onset	duration	sample	trial_type	response_time	stim_file	item_name	category	serialpos	list	test	answer	experiment	session	subject
0.0	164.816	135383	INSTRUCT_START	n/a	n/a	n/a	n/a	-999	-999	[0, 0, 0]	n/a	catFR1	0	R1447M
164.816	4.583	300178	INSTRUCT_END	n/a	n/a	n/a	n/a	-999	-999	[0, 0, 0]	n/a	catFR1	0	R1447M
169.399	12.168	304766	INSTRUCT_START	n/a	n/a	n/a	n/a	-999	-999	[0, 0, 0]	n/a	catFR1	0	R1447M
181.567	37.949	316943	INSTRUCT_END	n/a	n/a	n/a	n/a	-999	-999	[0, 0, 0]	n/a	catFR1	0	R1447M
219.516	10.383	354887	COUNTDOWN_START	n/a	n/a	n/a	n/a	-999	-999	[0, 0, 0]	n/a	catFR1	0	R1447M
229.899	0.0	365253	COUNTDOWN_END	n/a	n/a	n/a	n/a	-999	-999	[0, 0, 0]	n/a	catFR1	0	R1447M
229.899	1.899	365273	ENCODING_START	n/a	n/a	n/a	n/a	-999	-1	[0, 0, 0]	n/a	catFR1	0	R1447M
231.798	1.601	367163	WORD	n/a	n/a	BLOCKS	Toys	1	-1	[0, 0, 0]	n/a	catFR1	0	R1447M
233.399	0.799	368770	WORD_OFF	n/a	n/a	BLOCKS	Toys	1	-1	[0, 0, 0]	n/a	catFR1	0	R1447M
234.198	1.6	369564	WORD	n/a	n/a	BALL	Toys	2	-1	[0, 0, 0]	n/a	catFR1	0	R1447M
235.798	0.967	371156	WORD_OFF	n/a	n/a	BALL	Toys	2	-1	[0, 0, 0]	n/a	catFR1	0	R1447M
236.765	1.6	372123	WORD	n/a	n/a	LEATHER	Fabric	3	-1	[0, 0, 0]	n/a	catFR1	0	R1447M
238.365	0.917	373735	WORD_OFF	n/a	n/a	LEATHER	Fabric	3	-1	[0, 0, 0]	n/a	catFR1	0	R1447M
239.282	1.6	374653	WORD	n/a	n/a	COTTON	Fabric	4	-1	[0, 0, 0]	n/a	catFR1	0	R1447M
240.882	0.85	376240	WORD_OFF	n/a	n/a	COTTON	Fabric	4	-1	[0, 0, 0]	n/a	catFR1	0	R1447M
241.732	1.617	377108	WORD	n/a	n/a	MOPED	Vehicles	5	-1	[0, 0, 0]	n/a	catFR1	0	R1447M
243.349	0.783	378715	WORD_OFF	n/a	n/a	MOPED	Vehicles	5	-1	[0, 0, 0]	n/a	catFR1	0	R1447M
244.132	1.6	379489	WORD	n/a	n/a	CAR	Vehicles	6	-1	[0, 0, 0]	n/a	catFR1	0	R1447M
245.732	0.817	381101	WORD_OFF	n/a	n/a	CAR	Vehicles	6	-1	[0, 0, 0]	n/a	catFR1	0	R1447M
246.549	1.616	381914	WORD	n/a	n/a	FOOTBALL	Toys	7	-1	[0, 0, 0]	n/a	catFR1	0	R1447M
248.165	0.868	383531	WORD_OFF	n/a	n/a	FOOTBALL	Toys	7	-1	[0, 0, 0]	n/a	catFR1	0	R1447M
249.033	1.599	384399	WORD	n/a	n/a	BASKETBALL	Toys	8	-1	[0, 0, 0]	n/a	catFR1	0	R1447M
250.632	0.949	385986	WORD_OFF	n/a	n/a	BASKETBALL	Toys	8	-1	[0, 0, 0]	n/a	catFR1	0	R1447M
251.581	1.601	386949	WORD	n/a	n/a	BIKE	Vehicles	9	-1	[0, 0, 0]	n/a	catFR1	0	R1447M
253.182	0.933	388541	WORD_OFF	n/a	n/a	BIKE	Vehicles	9	-1	[0, 0, 0]	n/a	catFR1	0	R1447M
254.115	1.601	389483	WORD	n/a	n/a	TRUCK	Vehicles	10	-1	[0, 0, 0]	n/a	catFR1	0	R1447M
255.716	0.85	391070	WORD_OFF	n/a	n/a	TRUCK	Vehicles	10	-1	[0, 0, 0]	n/a	catFR1	0	R1447M
256.566	1.599	391938	WORD	n/a	n/a	VELVET	Fabric	11	-1	[0, 0, 0]	n/a	catFR1	0	R1447M
258.165	0.984	393525	WORD_OFF	n/a	n/a	VELVET	Fabric	11	-1	[0, 0, 0]	n/a	catFR1	0	R1447M
259.149	1.616	394517	WORD	n/a	n/a	SILK	Fabric	12	-1	[0, 0, 0]	n/a	catFR1	0	R1447M
260.765	0.002	396129	WORD_OFF	n/a	n/a	SILK	Fabric	12	-1	[0, 0, 0]	n/a	catFR1	0	R1447M
260.767	0.0	396129	ENCODING_END	n/a	n/a	n/a	n/a	-999	-1	[0, 0, 0]	n/a	catFR1	0	R1447M
260.767	0.0	396129	DISTRACT_START	n/a	n/a	n/a	n/a	-999	-1	[0, 0, 0]	n/a	catFR1	0	R1447M
260.766	0.001	396131	PROB	0.001	n/a	n/a	n/a	-999	-1	[3, 5, 2]	10	catFR1	0	R1447M
260.767	9.448	396132	START	n/a	n/a	n/a	n/a	-999	-1	[-999, -999, -999]	n/a	catFR1	0	R1447M
270.215	6.418	405579	PROB	6.418	n/a	n/a	n/a	-999	-1	[8, 7, 2]	17	catFR1	0	R1447M
276.633	6.233	411997	PROB	6.233	n/a	n/a	n/a	-999	-1	[4, 1, 7]	12	catFR1	0	R1447M
282.866	0.0	418226	DISTRACT_END	n/a	n/a	n/a	n/a	-999	-1	[0, 0, 0]	n/a	catFR1	0	R1447M
282.866	1.016	418230	STOP	n/a	n/a	n/a	n/a	-999	-1	[-999, -999, -999]	n/a	catFR1	0	R1447M
283.882	2.983	419243	REC_START	n/a	n/a	n/a	n/a	-999	-1	[0, 0, 0]	n/a	catFR1	0	R1447M
286.865	0.968	422229	REC_WORD	0.968	n/a	BLOCKS	Toys	1	-1	[0, 0, 0]	n/a	catFR1	0	R1447M
287.833	1.048	423197	REC_WORD	1.048	n/a	BIKE	Vehicles	9	-1	[0, 0, 0]	n/a	catFR1	0	R1447M
288.881	0.137	424245	REC_WORD_VV	0.137	n/a	<>	n/a	-999	-1	[0, 0, 0]	n/a	catFR1	0	R1447M
289.018	3.395	424382	REC_WORD	3.395	n/a	LEATHER	Fabric	3	-1	[0, 0, 0]	n/a	catFR1	0	R1447M
292.413	2.695	427776	REC_WORD	2.695	n/a	VELVET	Fabric	11	-1	[0, 0, 0]	n/a	catFR1	0	R1447M
295.108	2.064	430471	REC_WORD	2.064	n/a	MOPED	Vehicles	5	-1	[0, 0, 0]	n/a	catFR1	0	R1447M
297.172	0.792	432535	REC_WORD	0.792	n/a	TRUCK	Vehicles	10	-1	[0, 0, 0]	n/a	catFR1	0	R1447M
297.964	17.155	433327	REC_WORD	17.155	n/a	BIKE	Vehicles	9	-1	[0, 0, 0]	n/a	catFR1	0	R1447M
315.119	13.213	450486	REC_END	n/a	n/a	n/a	n/a	-999	-1	[0, 0, 0]	n/a	catFR1	0	R1447M
328.332	10.35	463684	COUNTDOWN_START	n/a	n/a	n/a	n/a	-999	1	[0, 0, 0]	n/a	catFR1	0	R1447M
338.682	0.001	474051	COUNTDOWN_END	n/a	n/a	n/a	n/a	-999	1	[0, 0, 0]	n/a	catFR1	0	R1447M
338.683	2.182	474051	ENCODING_START	n/a	n/a	n/a	n/a	-999	1	[0, 0, 0]	n/a	catFR1	0	R1447M
340.865	1.6	476233	WORD	n/a	wordpools/wordpool_categorized_EN.txt	DOVE	Birds	1	1	[0, 0, 0]	n/a	catFR1	0	R1447M
342.465	0.917	477820	WORD_OFF	n/a	n/a	DOVE	Birds	1	1	[0, 0, 0]	n/a	catFR1	0	R1447M
343.382	1.6	478738	WORD	n/a	wordpools/wordpool_categorized_EN.txt	GOOSE	Birds	2	1	[0, 0, 0]	n/a	catFR1	0	R1447M
344.982	0.95	480345	WORD_OFF	n/a	n/a	GOOSE	Birds	2	1	[0, 0, 0]	n/a	catFR1	0	R1447M
345.932	1.616	481292	WORD	n/a	wordpools/wordpool_categorized_EN.txt	BOAT	Vehicles	3	1	[0, 0, 0]	n/a	catFR1	0	R1447M
347.548	1.0	482904	WORD_OFF	n/a	n/a	BOAT	Vehicles	3	1	[0, 0, 0]	n/a	catFR1	0	R1447M
348.548	1.617	483896	WORD	n/a	wordpools/wordpool_categorized_EN.txt	SCOOTER	Vehicles	4	1	[0, 0, 0]	n/a	catFR1	0	R1447M
350.165	0.783	485533	WORD_OFF	n/a	n/a	SCOOTER	Vehicles	4	1	[0, 0, 0]	n/a	catFR1	0	R1447M
350.948	1.6	486302	WORD	n/a	wordpools/wordpool_categorized_EN.txt	OCEAN	Landscapes	5	1	[0, 0, 0]	n/a	catFR1	0	R1447M
352.548	0.967	487914	WORD_OFF	n/a	n/a	OCEAN	Landscapes	5	1	[0, 0, 0]	n/a	catFR1	0	R1447M
353.515	1.6	488881	WORD	n/a	wordpools/wordpool_categorized_EN.txt	STREAM	Landscapes	6	1	[0, 0, 0]	n/a	catFR1	0	R1447M
355.115	0.767	490468	WORD_OFF	n/a	n/a	STREAM	Landscapes	6	1	[0, 0, 0]	n/a	catFR1	0	R1447M
355.882	1.599	491237	WORD	n/a	wordpools/wordpool_categorized_EN.txt	JEEP	Vehicles	7	1	[0, 0, 0]	n/a	catFR1	0	R1447M
357.481	0.917	492844	WORD_OFF	n/a	n/a	JEEP	Vehicles	7	1	[0, 0, 0]	n/a	catFR1	0	R1447M
358.398	1.617	493762	WORD	n/a	wordpools/wordpool_categorized_EN.txt	MOTORCYCLE	Vehicles	8	1	[0, 0, 0]	n/a	catFR1	0	R1447M
360.015	1.0	495379	WORD_OFF	n/a	n/a	MOTORCYCLE	Vehicles	8	1	[0, 0, 0]	n/a	catFR1	0	R1447M
361.015	1.6	496371	WORD	n/a	wordpools/wordpool_categorized_EN.txt	BEACH	Landscapes	9	1	[0, 0, 0]	n/a	catFR1	0	R1447M
362.615	0.783	497983	WORD_OFF	n/a	n/a	BEACH	Landscapes	9	1	[0, 0, 0]	n/a	catFR1	0	R1447M
363.398	1.6	498752	WORD	n/a	wordpools/wordpool_categorized_EN.txt	VALLEY	Landscapes	10	1	[0, 0, 0]	n/a	catFR1	0	R1447M
364.998	0.984	500364	WORD_OFF	n/a	n/a	VALLEY	Landscapes	10	1	[0, 0, 0]	n/a	catFR1	0	R1447M
365.982	1.6	501331	WORD	n/a	wordpools/wordpool_categorized_EN.txt	PIGEON	Birds	11	1	[0, 0, 0]	n/a	catFR1	0	R1447M
367.582	0.951	502943	WORD_OFF	n/a	n/a	PIGEON	Birds	11	1	[0, 0, 0]	n/a	catFR1	0	R1447M
368.533	1.6	503885	WORD	n/a	wordpools/wordpool_categorized_EN.txt	DUCK	Birds	12	1	[0, 0, 0]	n/a	catFR1	0	R1447M
370.133	0.0	505492	WORD_OFF	n/a	n/a	DUCK	Birds	12	1	[0, 0, 0]	n/a	catFR1	0	R1447M
370.133	0.001	505493	PROB	0.001	n/a	n/a	n/a	-999	1	[3, 5, 4]	12	catFR1	0	R1447M
370.134	0.0	505494	START	n/a	n/a	n/a	n/a	-999	1	[-999, -999, -999]	n/a	catFR1	0	R1447M
370.134	0.0	505497	ENCODING_END	n/a	n/a	n/a	n/a	-999	1	[0, 0, 0]	n/a	catFR1	0	R1447M
370.134	7.316	505497	DISTRACT_START	n/a	n/a	n/a	n/a	-999	1	[0, 0, 0]	n/a	catFR1	0	R1447M
377.45	4.683	512809	PROB	4.683	n/a	n/a	n/a	-999	1	[7, 2, 3]	12	catFR1	0	R1447M
382.133	3.7	517492	PROB	3.7	n/a	n/a	n/a	-999	1	[4, 6, 5]	15	catFR1	0	R1447M
385.833	4.982	521192	PROB	4.982	n/a	n/a	n/a	-999	1	[1, 8, 3]	12	catFR1	0	R1447M
390.815	0.0	526174	STOP	n/a	n/a	n/a	n/a	-999	1	[-999, -999, -999]	n/a	catFR1	0	R1447M
390.815	1.167	526176	DISTRACT_END	n/a	n/a	n/a	n/a	-999	1	[0, 0, 0]	n/a	catFR1	0	R1447M
391.982	1.603	527346	REC_START	n/a	n/a	n/a	n/a	-999	1	[0, 0, 0]	n/a	catFR1	0	R1447M
393.585	0.637	528944	REC_WORD	0.637	n/a	DUCK	Birds	12	1	[0, 0, 0]	n/a	catFR1	0	R1447M
394.222	1.035	529581	REC_WORD	1.035	n/a	GOOSE	Birds	2	1	[0, 0, 0]	n/a	catFR1	0	R1447M
395.257	0.369	530616	REC_WORD	0.369	n/a	RIVER	n/a	-999	1	[0, 0, 0]	n/a	catFR1	0	R1447M
395.626	1.888	530984	REC_WORD	1.888	n/a	STREAM	Landscapes	6	1	[0, 0, 0]	n/a	catFR1	0	R1447M
397.514	2.391	532872	REC_WORD	2.391	n/a	BOAT	Vehicles	3	1	[0, 0, 0]	n/a	catFR1	0	R1447M
399.905	2.41	535263	REC_WORD	2.41	n/a	LAKE	n/a	-999	1	[0, 0, 0]	n/a	catFR1	0	R1447M
402.315	3.158	537673	REC_WORD_VV	3.158	n/a	<>	n/a	-999	1	[0, 0, 0]	n/a	catFR1	0	R1447M
405.473	0.985	540831	REC_WORD	0.985	n/a	SCOOTER	Vehicles	4	1	[0, 0, 0]	n/a	catFR1	0	R1447M
406.458	4.068	541816	REC_WORD	4.068	n/a	MOTORCYCLE	Vehicles	8	1	[0, 0, 0]	n/a	catFR1	0	R1447M
410.526	3.39	545884	REC_WORD	3.39	n/a	PIGEON	Birds	11	1	[0, 0, 0]	n/a	catFR1	0	R1447M
413.916	9.34	549274	REC_WORD	9.34	n/a	WATER	n/a	-999	1	[0, 0, 0]	n/a	catFR1	0	R1447M
423.256	2.808	558619	REC_END	n/a	n/a	n/a	n/a	-999	1	[0, 0, 0]	n/a	catFR1	0	R1447M
426.064	10.351	561421	COUNTDOWN_START	n/a	n/a	n/a	n/a	-999	1	[0, 0, 0]	n/a	catFR1	0	R1447M
436.415	0.0	571763	COUNTDOWN_END	n/a	n/a	n/a	n/a	-999	1	[0, 0, 0]	n/a	catFR1	0	R1447M
436.415	2.016	571763	ENCODING_START	n/a	n/a	n/a	n/a	-999	2	[0, 0, 0]	n/a	catFR1	0	R1447M
438.431	1.601	573791	WORD	n/a	wordpools/wordpool_categorized_EN.txt	SATIN	Fabric	1	2	[0, 0, 0]	n/a	catFR1	0	R1447M
440.032	0.917	575383	WORD_OFF	n/a	n/a	SATIN	Fabric	1	2	[0, 0, 0]	n/a	catFR1	0	R1447M
440.949	1.6	576301	WORD	n/a	wordpools/wordpool_categorized_EN.txt	DENIM	Fabric	2	2	[0, 0, 0]	n/a	catFR1	0	R1447M
442.549	0.95	577908	WORD_OFF	n/a	n/a	DENIM	Fabric	2	2	[0, 0, 0]	n/a	catFR1	0	R1447M
443.499	1.599	578855	WORD	n/a	wordpools/wordpool_categorized_EN.txt	TULIP	Flowers	3	2	[0, 0, 0]	n/a	catFR1	0	R1447M
445.098	0.784	580443	WORD_OFF	n/a	n/a	TULIP	Flowers	3	2	[0, 0, 0]	n/a	catFR1	0	R1447M
445.882	1.6	581236	WORD	n/a	wordpools/wordpool_categorized_EN.txt	DAISY	Flowers	4	2	[0, 0, 0]	n/a	catFR1	0	R1447M
447.482	0.983	582843	WORD_OFF	n/a	n/a	DAISY	Flowers	4	2	[0, 0, 0]	n/a	catFR1	0	R1447M
448.465	1.6	583815	WORD	n/a	wordpools/wordpool_categorized_EN.txt	EAR	BodyParts	5	2	[0, 0, 0]	n/a	catFR1	0	R1447M
450.065	0.933	585427	WORD_OFF	n/a	n/a	EAR	BodyParts	5	2	[0, 0, 0]	n/a	catFR1	0	R1447M
450.998	1.6	586345	WORD	n/a	wordpools/wordpool_categorized_EN.txt	FOOT	BodyParts	6	2	[0, 0, 0]	n/a	catFR1	0	R1447M
452.598	0.833	587957	WORD_OFF	n/a	n/a	FOOT	BodyParts	6	2	[0, 0, 0]	n/a	catFR1	0	R1447M
453.431	1.617	588775	WORD	n/a	wordpools/wordpool_categorized_EN.txt	WOOL	Fabric	7	2	[0, 0, 0]	n/a	catFR1	0	R1447M
455.048	1.0	590412	WORD_OFF	n/a	n/a	WOOL	Fabric	7	2	[0, 0, 0]	n/a	catFR1	0	R1447M
456.048	1.6	591404	WORD	n/a	wordpools/wordpool_categorized_EN.txt	FLEECE	Fabric	8	2	[0, 0, 0]	n/a	catFR1	0	R1447M
457.648	1.0	592991	WORD_OFF	n/a	n/a	FLEECE	Fabric	8	2	[0, 0, 0]	n/a	catFR1	0	R1447M
458.648	1.616	594008	WORD	n/a	wordpools/wordpool_categorized_EN.txt	ROSE	Flowers	9	2	[0, 0, 0]	n/a	catFR1	0	R1447M
460.264	0.768	595620	WORD_OFF	n/a	n/a	ROSE	Flowers	9	2	[0, 0, 0]	n/a	catFR1	0	R1447M
461.032	1.599	596389	WORD	n/a	wordpools/wordpool_categorized_EN.txt	PETUNIA	Flowers	10	2	[0, 0, 0]	n/a	catFR1	0	R1447M
462.631	0.767	597976	WORD_OFF	n/a	n/a	PETUNIA	Flowers	10	2	[0, 0, 0]	n/a	catFR1	0	R1447M
463.398	1.6	598745	WORD	n/a	wordpools/wordpool_categorized_EN.txt	KNEE	BodyParts	11	2	[0, 0, 0]	n/a	catFR1	0	R1447M
464.998	0.817	600357	WORD_OFF	n/a	n/a	KNEE	BodyParts	11	2	[0, 0, 0]	n/a	catFR1	0	R1447M
465.815	1.6	601171	WORD	n/a	wordpools/wordpool_categorized_EN.txt	EYE	BodyParts	12	2	[0, 0, 0]	n/a	catFR1	0	R1447M
467.415	0.002	602763	WORD_OFF	n/a	n/a	EYE	BodyParts	12	2	[0, 0, 0]	n/a	catFR1	0	R1447M
467.417	0.0	602763	ENCODING_END	n/a	n/a	n/a	n/a	-999	2	[0, 0, 0]	n/a	catFR1	0	R1447M
467.417	0.0	602763	DISTRACT_START	n/a	n/a	n/a	n/a	-999	2	[0, 0, 0]	n/a	catFR1	0	R1447M
467.415	0.002	602770	PROB	0.002	n/a	n/a	n/a	-999	2	[4, 8, 7]	19	catFR1	0	R1447M
467.417	6.733	602772	START	n/a	n/a	n/a	n/a	-999	2	[-999, -999, -999]	n/a	catFR1	0	R1447M
474.15	3.45	609505	PROB	3.45	n/a	n/a	n/a	-999	2	[7, 3, 5]	15	catFR1	0	R1447M
477.6	4.649	612955	PROB	4.649	n/a	n/a	n/a	-999	2	[7, 4, 7]	18	catFR1	0	R1447M
482.249	5.084	617603	PROB	5.084	n/a	n/a	n/a	-999	2	[2, 2, 7]	11	catFR1	0	R1447M
487.333	4.682	622687	PROB	4.682	n/a	n/a	n/a	-999	2	[3, 4, 4]	11	catFR1	0	R1447M
492.015	0.0	627364	DISTRACT_END	n/a	n/a	n/a	n/a	-999	2	[0, 0, 0]	n/a	catFR1	0	R1447M
492.015	1.334	627369	STOP	n/a	n/a	n/a	n/a	-999	2	[-999, -999, -999]	n/a	catFR1	0	R1447M
493.349	2.925	628703	REC_START	n/a	n/a	n/a	n/a	-999	2	[0, 0, 0]	n/a	catFR1	0	R1447M
496.274	0.719	631628	REC_WORD	0.719	n/a	EAR	BodyParts	5	2	[0, 0, 0]	n/a	catFR1	0	R1447M
496.993	2.604	632347	REC_WORD	2.604	n/a	KNEE	BodyParts	11	2	[0, 0, 0]	n/a	catFR1	0	R1447M
499.597	2.263	634951	REC_WORD_VV	2.263	n/a	<>	n/a	-999	2	[0, 0, 0]	n/a	catFR1	0	R1447M
501.86	0.829	637213	REC_WORD	0.829	n/a	WOOL	Fabric	7	2	[0, 0, 0]	n/a	catFR1	0	R1447M
502.689	4.825	638042	REC_WORD	4.825	n/a	FLEECE	Fabric	8	2	[0, 0, 0]	n/a	catFR1	0	R1447M
507.514	0.802	642867	REC_WORD	0.802	n/a	SATIN	Fabric	1	2	[0, 0, 0]	n/a	catFR1	0	R1447M
508.316	1.78	643669	REC_WORD	1.78	n/a	VELVET	Fabric	-999	2	[0, 0, 0]	n/a	catFR1	0	R1447M
510.096	0.689	645449	REC_WORD	0.689	n/a	ROSE	Flowers	9	2	[0, 0, 0]	n/a	catFR1	0	R1447M
510.785	2.349	646138	REC_WORD	2.349	n/a	PETUNIA	Flowers	10	2	[0, 0, 0]	n/a	catFR1	0	R1447M
513.134	11.455	648487	REC_WORD_VV	11.455	n/a	<>	n/a	-999	2	[0, 0, 0]	n/a	catFR1	0	R1447M
524.589	2.493	659947	REC_END	n/a	n/a	n/a	n/a	-999	2	[0, 0, 0]	n/a	catFR1	0	R1447M
527.082	10.351	662431	COUNTDOWN_START	n/a	n/a	n/a	n/a	-999	2	[0, 0, 0]	n/a	catFR1	0	R1447M
537.433	0.0	672773	COUNTDOWN_END	n/a	n/a	n/a	n/a	-999	2	[0, 0, 0]	n/a	catFR1	0	R1447M
537.433	2.332	672793	ENCODING_START	n/a	n/a	n/a	n/a	-999	3	[0, 0, 0]	n/a	catFR1	0	R1447M
539.765	1.617	675104	WORD	n/a	wordpools/wordpool_categorized_EN.txt	BEE	Insects	1	3	[0, 0, 0]	n/a	catFR1	0	R1447M
541.382	0.8	676736	WORD_OFF	n/a	n/a	BEE	Insects	1	3	[0, 0, 0]	n/a	catFR1	0	R1447M
542.182	1.616	677534	WORD	n/a	wordpools/wordpool_categorized_EN.txt	ANT	Insects	2	3	[0, 0, 0]	n/a	catFR1	0	R1447M
543.798	0.8	679146	WORD_OFF	n/a	n/a	ANT	Insects	2	3	[0, 0, 0]	n/a	catFR1	0	R1447M
544.598	1.6	679940	WORD	n/a	wordpools/wordpool_categorized_EN.txt	CHAIR	Furniture	3	3	[0, 0, 0]	n/a	catFR1	0	R1447M
546.198	0.95	681552	WORD_OFF	n/a	n/a	CHAIR	Furniture	3	3	[0, 0, 0]	n/a	catFR1	0	R1447M
547.148	1.602	682494	WORD	n/a	wordpools/wordpool_categorized_EN.txt	SOFA	Furniture	4	3	[0, 0, 0]	n/a	catFR1	0	R1447M
548.75	0.798	684106	WORD_OFF	n/a	n/a	SOFA	Furniture	4	3	[0, 0, 0]	n/a	catFR1	0	R1447M
549.548	1.601	684900	WORD	n/a	wordpools/wordpool_categorized_EN.txt	ELBOW	BodyParts	5	3	[0, 0, 0]	n/a	catFR1	0	R1447M
551.149	0.866	686487	WORD_OFF	n/a	n/a	ELBOW	BodyParts	5	3	[0, 0, 0]	n/a	catFR1	0	R1447M
552.015	1.6	687355	WORD	n/a	wordpools/wordpool_categorized_EN.txt	HAND	BodyParts	6	3	[0, 0, 0]	n/a	catFR1	0	R1447M
553.615	0.883	688967	WORD_OFF	n/a	n/a	HAND	BodyParts	6	3	[0, 0, 0]	n/a	catFR1	0	R1447M
554.498	1.616	689855	WORD	n/a	wordpools/wordpool_categorized_EN.txt	BUTTERFLY	Insects	7	3	[0, 0, 0]	n/a	catFR1	0	R1447M
556.114	1.001	691467	WORD_OFF	n/a	n/a	BUTTERFLY	Insects	7	3	[0, 0, 0]	n/a	catFR1	0	R1447M
557.115	1.6	692464	WORD	n/a	wordpools/wordpool_categorized_EN.txt	MOSQUITO	Insects	8	3	[0, 0, 0]	n/a	catFR1	0	R1447M
558.715	0.966	694071	WORD_OFF	n/a	n/a	MOSQUITO	Insects	8	3	[0, 0, 0]	n/a	catFR1	0	R1447M
559.681	1.617	695038	WORD	n/a	wordpools/wordpool_categorized_EN.txt	TOE	BodyParts	9	3	[0, 0, 0]	n/a	catFR1	0	R1447M
561.298	0.767	696655	WORD_OFF	n/a	n/a	TOE	BodyParts	9	3	[0, 0, 0]	n/a	catFR1	0	R1447M
562.065	1.6	697419	WORD	n/a	wordpools/wordpool_categorized_EN.txt	LEG	BodyParts	10	3	[0, 0, 0]	n/a	catFR1	0	R1447M
563.665	0.95	699011	WORD_OFF	n/a	n/a	LEG	BodyParts	10	3	[0, 0, 0]	n/a	catFR1	0	R1447M
564.615	1.616	699954	WORD	n/a	wordpools/wordpool_categorized_EN.txt	SHELF	Furniture	11	3	[0, 0, 0]	n/a	catFR1	0	R1447M
566.231	0.8	701586	WORD_OFF	n/a	n/a	SHELF	Furniture	11	3	[0, 0, 0]	n/a	catFR1	0	R1447M
567.031	1.617	702384	WORD	n/a	wordpools/wordpool_categorized_EN.txt	COUCH	Furniture	12	3	[0, 0, 0]	n/a	catFR1	0	R1447M
568.648	0.002	703996	WORD_OFF	n/a	n/a	COUCH	Furniture	12	3	[0, 0, 0]	n/a	catFR1	0	R1447M
568.65	0.0	703996	ENCODING_END	n/a	n/a	n/a	n/a	-999	3	[0, 0, 0]	n/a	catFR1	0	R1447M
568.65	0.0	703996	DISTRACT_START	n/a	n/a	n/a	n/a	-999	3	[0, 0, 0]	n/a	catFR1	0	R1447M
568.648	0.002	703998	PROB	0.002	n/a	n/a	n/a	-999	3	[3, 1, 4]	8	catFR1	0	R1447M
568.65	4.65	704000	START	n/a	n/a	n/a	n/a	-999	3	[-999, -999, -999]	n/a	catFR1	0	R1447M
573.3	8.132	708650	PROB	8.132	n/a	n/a	n/a	-999	3	[7, 7, 3]	17	catFR1	0	R1447M
581.432	6.068	716782	PROB	6.068	n/a	n/a	n/a	-999	3	[7, 4, 8]	19	catFR1	0	R1447M
587.5	5.199	722849	PROB	5.199	n/a	n/a	n/a	-999	3	[8, 7, 2]	17	catFR1	0	R1447M
592.699	0.0	728047	DISTRACT_END	n/a	n/a	n/a	n/a	-999	3	[0, 0, 0]	n/a	catFR1	0	R1447M
592.699	1.051	728048	STOP	n/a	n/a	n/a	n/a	-999	3	[-999, -999, -999]	n/a	catFR1	0	R1447M
593.75	2.195	729094	REC_START	n/a	n/a	n/a	n/a	-999	3	[0, 0, 0]	n/a	catFR1	0	R1447M
595.945	0.421	731294	REC_WORD_VV	0.421	n/a	<>	n/a	-999	3	[0, 0, 0]	n/a	catFR1	0	R1447M
596.366	0.811	731715	REC_WORD	0.811	n/a	FLY	n/a	-999	3	[0, 0, 0]	n/a	catFR1	0	R1447M
597.177	1.952	732526	REC_WORD	1.952	n/a	ANT	Insects	2	3	[0, 0, 0]	n/a	catFR1	0	R1447M
599.129	3.225	734478	REC_WORD	3.225	n/a	MOSQUITO	Insects	8	3	[0, 0, 0]	n/a	catFR1	0	R1447M
602.354	2.077	737703	REC_WORD	2.077	n/a	BUTTERFLY	Insects	7	3	[0, 0, 0]	n/a	catFR1	0	R1447M
604.431	0.49	739780	REC_WORD	0.49	n/a	CHAIR	Furniture	3	3	[0, 0, 0]	n/a	catFR1	0	R1447M
604.921	7.763	740270	REC_WORD	7.763	n/a	SOFA	Furniture	4	3	[0, 0, 0]	n/a	catFR1	0	R1447M
612.684	3.466	748032	REC_WORD	3.466	n/a	BOAT	Vehicles	-999	3	[0, 0, 0]	n/a	catFR1	0	R1447M
616.15	8.832	751498	REC_WORD_VV	8.832	n/a	<>	n/a	-999	3	[0, 0, 0]	n/a	catFR1	0	R1447M
624.982	1.749	760337	REC_END	n/a	n/a	n/a	n/a	-999	3	[0, 0, 0]	n/a	catFR1	0	R1447M
626.731	10.352	762078	COUNTDOWN_START	n/a	n/a	n/a	n/a	-999	3	[0, 0, 0]	n/a	catFR1	0	R1447M
637.083	0.0	772419	COUNTDOWN_END	n/a	n/a	n/a	n/a	-999	3	[0, 0, 0]	n/a	catFR1	0	R1447M
637.083	1.932	772419	ENCODING_START	n/a	n/a	n/a	n/a	-999	4	[0, 0, 0]	n/a	catFR1	0	R1447M
639.015	1.617	774354	WORD	n/a	wordpools/wordpool_categorized_EN.txt	PEAR	Fruit	1	4	[0, 0, 0]	n/a	catFR1	0	R1447M
640.632	0.766	775986	WORD_OFF	n/a	n/a	PEAR	Fruit	1	4	[0, 0, 0]	n/a	catFR1	0	R1447M
641.398	1.601	776734	WORD	n/a	wordpools/wordpool_categorized_EN.txt	APPLE	Fruit	2	4	[0, 0, 0]	n/a	catFR1	0	R1447M
642.999	0.915	778346	WORD_OFF	n/a	n/a	APPLE	Fruit	2	4	[0, 0, 0]	n/a	catFR1	0	R1447M
643.914	1.601	779260	WORD	n/a	wordpools/wordpool_categorized_EN.txt	SPIDER	Insects	3	4	[0, 0, 0]	n/a	catFR1	0	R1447M
645.515	0.9	780851	WORD_OFF	n/a	n/a	SPIDER	Insects	3	4	[0, 0, 0]	n/a	catFR1	0	R1447M
646.415	1.601	781764	WORD	n/a	wordpools/wordpool_categorized_EN.txt	LADYBUG	Insects	4	4	[0, 0, 0]	n/a	catFR1	0	R1447M
648.016	0.899	783356	WORD_OFF	n/a	n/a	LADYBUG	Insects	4	4	[0, 0, 0]	n/a	catFR1	0	R1447M
648.915	1.6	784269	WORD	n/a	wordpools/wordpool_categorized_EN.txt	OCTOPUS	OceanAnimals	5	4	[0, 0, 0]	n/a	catFR1	0	R1447M
650.515	0.783	785861	WORD_OFF	n/a	n/a	OCTOPUS	OceanAnimals	5	4	[0, 0, 0]	n/a	catFR1	0	R1447M
651.298	1.617	786654	WORD	n/a	wordpools/wordpool_categorized_EN.txt	JELLYFISH	OceanAnimals	6	4	[0, 0, 0]	n/a	catFR1	0	R1447M
652.915	0.967	788261	WORD_OFF	n/a	n/a	JELLYFISH	OceanAnimals	6	4	[0, 0, 0]	n/a	catFR1	0	R1447M
653.882	1.6	789233	WORD	n/a	wordpools/wordpool_categorized_EN.txt	STRAWBERRY	Fruit	7	4	[0, 0, 0]	n/a	catFR1	0	R1447M
655.482	0.866	790821	WORD_OFF	n/a	n/a	STRAWBERRY	Fruit	7	4	[0, 0, 0]	n/a	catFR1	0	R1447M
656.348	1.617	791689	WORD	n/a	wordpools/wordpool_categorized_EN.txt	BLUEBERRY	Fruit	8	4	[0, 0, 0]	n/a	catFR1	0	R1447M
657.965	0.917	793301	WORD_OFF	n/a	n/a	BLUEBERRY	Fruit	8	4	[0, 0, 0]	n/a	catFR1	0	R1447M
658.882	1.6	794218	WORD	n/a	wordpools/wordpool_categorized_EN.txt	SQUID	OceanAnimals	9	4	[0, 0, 0]	n/a	catFR1	0	R1447M
660.482	0.799	795830	WORD_OFF	n/a	n/a	SQUID	OceanAnimals	9	4	[0, 0, 0]	n/a	catFR1	0	R1447M
661.281	1.601	796624	WORD	n/a	wordpools/wordpool_categorized_EN.txt	PLANKTON	OceanAnimals	10	4	[0, 0, 0]	n/a	catFR1	0	R1447M
662.882	0.916	798231	WORD_OFF	n/a	n/a	PLANKTON	OceanAnimals	10	4	[0, 0, 0]	n/a	catFR1	0	R1447M
663.798	1.616	799153	WORD	n/a	wordpools/wordpool_categorized_EN.txt	GNAT	Insects	11	4	[0, 0, 0]	n/a	catFR1	0	R1447M
665.414	1.001	800765	WORD_OFF	n/a	n/a	GNAT	Insects	11	4	[0, 0, 0]	n/a	catFR1	0	R1447M
666.415	1.6	801757	WORD	n/a	wordpools/wordpool_categorized_EN.txt	CRICKET	Insects	12	4	[0, 0, 0]	n/a	catFR1	0	R1447M
668.015	0.001	803361	PROB	0.001	n/a	n/a	n/a	-999	4	[6, 5, 7]	18	catFR1	0	R1447M
668.016	0.0	803362	START	n/a	n/a	n/a	n/a	-999	4	[-999, -999, -999]	n/a	catFR1	0	R1447M
668.015	0.001	803365	WORD_OFF	n/a	n/a	CRICKET	Insects	12	4	[0, 0, 0]	n/a	catFR1	0	R1447M
668.016	0.0	803369	ENCODING_END	n/a	n/a	n/a	n/a	-999	4	[0, 0, 0]	n/a	catFR1	0	R1447M
668.016	10.55	803369	DISTRACT_START	n/a	n/a	n/a	n/a	-999	4	[0, 0, 0]	n/a	catFR1	0	R1447M
678.566	3.584	813911	PROB	3.584	n/a	n/a	n/a	-999	4	[5, 3, 8]	16	catFR1	0	R1447M
682.15	3.649	817495	PROB	3.649	n/a	n/a	n/a	-999	4	[2, 5, 4]	11	catFR1	0	R1447M
685.799	3.3	821144	PROB	3.3	n/a	n/a	n/a	-999	4	[4, 4, 1]	9	catFR1	0	R1447M
689.099	0.0	824444	STOP	n/a	n/a	n/a	n/a	-999	4	[-999, -999, -999]	n/a	catFR1	0	R1447M
689.099	1.149	824445	DISTRACT_END	n/a	n/a	n/a	n/a	-999	4	[0, 0, 0]	n/a	catFR1	0	R1447M
690.248	3.599	825590	REC_START	n/a	n/a	n/a	n/a	-999	4	[0, 0, 0]	n/a	catFR1	0	R1447M
693.847	1.138	829191	REC_WORD	1.138	n/a	GNAT	Insects	11	4	[0, 0, 0]	n/a	catFR1	0	R1447M
694.985	2.566	830329	REC_WORD	2.566	n/a	MOSQUITO	Insects	-999	4	[0, 0, 0]	n/a	catFR1	0	R1447M
697.551	10.695	832895	REC_WORD_VV	10.695	n/a	<>	n/a	-999	4	[0, 0, 0]	n/a	catFR1	0	R1447M
708.246	1.256	843590	REC_WORD	1.256	n/a	SQUID	OceanAnimals	9	4	[0, 0, 0]	n/a	catFR1	0	R1447M
709.502	11.986	844846	REC_WORD	11.986	n/a	OCTOPUS	OceanAnimals	5	4	[0, 0, 0]	n/a	catFR1	0	R1447M
721.488	3.227	856838	REC_END	n/a	n/a	n/a	n/a	-999	4	[0, 0, 0]	n/a	catFR1	0	R1447M
724.715	10.352	860062	COUNTDOWN_START	n/a	n/a	n/a	n/a	-999	4	[0, 0, 0]	n/a	catFR1	0	R1447M
735.067	0.0	870404	COUNTDOWN_END	n/a	n/a	n/a	n/a	-999	4	[0, 0, 0]	n/a	catFR1	0	R1447M
735.067	1.832	870404	ENCODING_START	n/a	n/a	n/a	n/a	-999	5	[0, 0, 0]	n/a	catFR1	0	R1447M
736.899	1.6	872239	WORD	n/a	wordpools/wordpool_categorized_EN.txt	DRILL	Tools	1	5	[0, 0, 0]	n/a	catFR1	0	R1447M
738.499	0.816	873846	WORD_OFF	n/a	n/a	DRILL	Tools	1	5	[0, 0, 0]	n/a	catFR1	0	R1447M
739.315	1.6	874645	WORD	n/a	wordpools/wordpool_categorized_EN.txt	WRENCH	Tools	2	5	[0, 0, 0]	n/a	catFR1	0	R1447M
740.915	0.784	876257	WORD_OFF	n/a	n/a	WRENCH	Tools	2	5	[0, 0, 0]	n/a	catFR1	0	R1447M
741.699	1.6	877045	WORD	n/a	wordpools/wordpool_categorized_EN.txt	BEAR	Zoo	3	5	[0, 0, 0]	n/a	catFR1	0	R1447M
743.299	0.882	878637	WORD_OFF	n/a	n/a	BEAR	Zoo	3	5	[0, 0, 0]	n/a	catFR1	0	R1447M
744.181	1.601	879530	WORD	n/a	wordpools/wordpool_categorized_EN.txt	PANDA	Zoo	4	5	[0, 0, 0]	n/a	catFR1	0	R1447M
745.782	1.0	881117	WORD_OFF	n/a	n/a	PANDA	Zoo	4	5	[0, 0, 0]	n/a	catFR1	0	R1447M
746.782	1.616	882129	WORD	n/a	wordpools/wordpool_categorized_EN.txt	PIG	FarmAnimals	5	5	[0, 0, 0]	n/a	catFR1	0	R1447M
748.398	0.784	883746	WORD_OFF	n/a	n/a	PIG	FarmAnimals	5	5	[0, 0, 0]	n/a	catFR1	0	R1447M
749.182	1.6	884515	WORD	n/a	wordpools/wordpool_categorized_EN.txt	BULL	FarmAnimals	6	5	[0, 0, 0]	n/a	catFR1	0	R1447M
750.782	0.933	886127	WORD_OFF	n/a	n/a	BULL	FarmAnimals	6	5	[0, 0, 0]	n/a	catFR1	0	R1447M
751.715	1.617	887045	WORD	n/a	wordpools/wordpool_categorized_EN.txt	HAMMER	Tools	7	5	[0, 0, 0]	n/a	catFR1	0	R1447M
753.332	0.8	888681	WORD_OFF	n/a	n/a	HAMMER	Tools	7	5	[0, 0, 0]	n/a	catFR1	0	R1447M
754.132	1.6	889475	WORD	n/a	wordpools/wordpool_categorized_EN.txt	SHOVEL	Tools	8	5	[0, 0, 0]	n/a	catFR1	0	R1447M
755.732	0.766	891062	WORD_OFF	n/a	n/a	SHOVEL	Tools	8	5	[0, 0, 0]	n/a	catFR1	0	R1447M
756.498	1.6	891831	WORD	n/a	wordpools/wordpool_categorized_EN.txt	ORANGUTAN	Zoo	9	5	[0, 0, 0]	n/a	catFR1	0	R1447M
758.098	0.8	893443	WORD_OFF	n/a	n/a	ORANGUTAN	Zoo	9	5	[0, 0, 0]	n/a	catFR1	0	R1447M
758.898	1.6	894237	WORD	n/a	wordpools/wordpool_categorized_EN.txt	GORILLA	Zoo	10	5	[0, 0, 0]	n/a	catFR1	0	R1447M
760.498	0.967	895844	WORD_OFF	n/a	n/a	GORILLA	Zoo	10	5	[0, 0, 0]	n/a	catFR1	0	R1447M
761.465	1.6	896811	WORD	n/a	wordpools/wordpool_categorized_EN.txt	CHICKEN	FarmAnimals	11	5	[0, 0, 0]	n/a	catFR1	0	R1447M
763.065	0.9	898403	WORD_OFF	n/a	n/a	CHICKEN	FarmAnimals	11	5	[0, 0, 0]	n/a	catFR1	0	R1447M
763.965	1.601	899296	WORD	n/a	wordpools/wordpool_categorized_EN.txt	ROOSTER	FarmAnimals	12	5	[0, 0, 0]	n/a	catFR1	0	R1447M
765.566	0.0	900907	PROB	0.0	n/a	n/a	n/a	-999	5	[8, 7, 7]	22	catFR1	0	R1447M
765.566	0.0	900907	START	n/a	n/a	n/a	n/a	-999	5	[-999, -999, -999]	n/a	catFR1	0	R1447M
765.565	0.001	900908	WORD_OFF	n/a	n/a	ROOSTER	FarmAnimals	12	5	[0, 0, 0]	n/a	catFR1	0	R1447M
765.566	0.0	900908	ENCODING_END	n/a	n/a	n/a	n/a	-999	5	[0, 0, 0]	n/a	catFR1	0	R1447M
765.566	7.899	900908	DISTRACT_START	n/a	n/a	n/a	n/a	-999	5	[0, 0, 0]	n/a	catFR1	0	R1447M
773.465	6.018	908806	PROB	6.018	n/a	n/a	n/a	-999	5	[7, 3, 7]	17	catFR1	0	R1447M
779.483	5.601	914823	PROB	5.601	n/a	n/a	n/a	-999	5	[8, 5, 1]	14	catFR1	0	R1447M
785.084	8.648	920424	PROB	8.648	n/a	n/a	n/a	-999	5	[5, 7, 2]	14	catFR1	0	R1447M
793.732	0.0	929072	STOP	n/a	n/a	n/a	n/a	-999	5	[-999, -999, -999]	n/a	catFR1	0	R1447M
793.732	1.266	929076	DISTRACT_END	n/a	n/a	n/a	n/a	-999	5	[0, 0, 0]	n/a	catFR1	0	R1447M
794.998	3.24	930340	REC_START	n/a	n/a	n/a	n/a	-999	5	[0, 0, 0]	n/a	catFR1	0	R1447M
798.238	1.248	933577	REC_WORD	1.248	n/a	ORANGUTAN	Zoo	9	5	[0, 0, 0]	n/a	catFR1	0	R1447M
799.486	2.394	934825	REC_WORD	2.394	n/a	GORILLA	Zoo	10	5	[0, 0, 0]	n/a	catFR1	0	R1447M
801.88	2.103	937219	REC_WORD_VV	2.103	n/a	<>	n/a	-999	5	[0, 0, 0]	n/a	catFR1	0	R1447M
803.983	0.518	939322	REC_WORD	0.518	n/a	BALL	Toys	-999	5	[0, 0, 0]	n/a	catFR1	0	R1447M
804.501	1.306	939840	REC_WORD	1.306	n/a	PIG	FarmAnimals	5	5	[0, 0, 0]	n/a	catFR1	0	R1447M
805.807	0.543	941146	REC_WORD	0.543	n/a	CHICKEN	FarmAnimals	11	5	[0, 0, 0]	n/a	catFR1	0	R1447M
806.35	2.377	941689	REC_WORD	2.377	n/a	ROO	n/a	-999	5	[0, 0, 0]	n/a	catFR1	0	R1447M
808.727	1.099	944066	REC_WORD	1.099	n/a	PEAR	Fruit	-999	5	[0, 0, 0]	n/a	catFR1	0	R1447M
809.826	16.458	945165	REC_WORD	16.458	n/a	APPLE	Fruit	-999	5	[0, 0, 0]	n/a	catFR1	0	R1447M
826.284	2.131	961618	REC_END	n/a	n/a	n/a	n/a	-999	5	[0, 0, 0]	n/a	catFR1	0	R1447M
828.415	10.351	963751	COUNTDOWN_START	n/a	n/a	n/a	n/a	-999	5	[0, 0, 0]	n/a	catFR1	0	R1447M
838.766	0.0	974092	COUNTDOWN_END	n/a	n/a	n/a	n/a	-999	5	[0, 0, 0]	n/a	catFR1	0	R1447M
838.766	1.916	974092	ENCODING_START	n/a	n/a	n/a	n/a	-999	6	[0, 0, 0]	n/a	catFR1	0	R1447M
840.682	1.617	976022	WORD	n/a	wordpools/wordpool_categorized_EN.txt	SPANDEX	Fabric	1	6	[0, 0, 0]	n/a	catFR1	0	R1447M
842.299	0.933	977639	WORD_OFF	n/a	n/a	SPANDEX	Fabric	1	6	[0, 0, 0]	n/a	catFR1	0	R1447M
843.232	1.6	978576	WORD	n/a	wordpools/wordpool_categorized_EN.txt	LINEN	Fabric	2	6	[0, 0, 0]	n/a	catFR1	0	R1447M
844.832	0.916	980168	WORD_OFF	n/a	n/a	LINEN	Fabric	2	6	[0, 0, 0]	n/a	catFR1	0	R1447M
845.748	1.601	981086	WORD	n/a	wordpools/wordpool_categorized_EN.txt	TOASTER	Appliances	3	6	[0, 0, 0]	n/a	catFR1	0	R1447M
847.349	0.766	982673	WORD_OFF	n/a	n/a	TOASTER	Appliances	3	6	[0, 0, 0]	n/a	catFR1	0	R1447M
848.115	1.6	983442	WORD	n/a	wordpools/wordpool_categorized_EN.txt	WASHER	Appliances	4	6	[0, 0, 0]	n/a	catFR1	0	R1447M
849.715	0.8	985054	WORD_OFF	n/a	n/a	WASHER	Appliances	4	6	[0, 0, 0]	n/a	catFR1	0	R1447M
850.515	1.6	985848	WORD	n/a	wordpools/wordpool_categorized_EN.txt	SANDER	Tools	5	6	[0, 0, 0]	n/a	catFR1	0	R1447M
852.115	0.767	987455	WORD_OFF	n/a	n/a	SANDER	Tools	5	6	[0, 0, 0]	n/a	catFR1	0	R1447M
852.882	1.6	988225	WORD	n/a	wordpools/wordpool_categorized_EN.txt	RATCHET	Tools	6	6	[0, 0, 0]	n/a	catFR1	0	R1447M
854.482	0.9	989816	WORD_OFF	n/a	n/a	RATCHET	Tools	6	6	[0, 0, 0]	n/a	catFR1	0	R1447M
855.382	1.6	990708	WORD	n/a	wordpools/wordpool_categorized_EN.txt	DRYER	Appliances	7	6	[0, 0, 0]	n/a	catFR1	0	R1447M
856.982	0.916	992320	WORD_OFF	n/a	n/a	DRYER	Appliances	7	6	[0, 0, 0]	n/a	catFR1	0	R1447M
857.898	1.6	993238	WORD	n/a	wordpools/wordpool_categorized_EN.txt	FREEZER	Appliances	8	6	[0, 0, 0]	n/a	catFR1	0	R1447M
859.498	0.867	994825	WORD_OFF	n/a	n/a	FREEZER	Appliances	8	6	[0, 0, 0]	n/a	catFR1	0	R1447M
860.365	1.6	995693	WORD	n/a	wordpools/wordpool_categorized_EN.txt	NYLON	Fabric	9	6	[0, 0, 0]	n/a	catFR1	0	R1447M
861.965	0.867	997305	WORD_OFF	n/a	n/a	NYLON	Fabric	9	6	[0, 0, 0]	n/a	catFR1	0	R1447M
862.832	1.6	998173	WORD	n/a	wordpools/wordpool_categorized_EN.txt	SUEDE	Fabric	10	6	[0, 0, 0]	n/a	catFR1	0	R1447M
864.432	0.833	999760	WORD_OFF	n/a	n/a	SUEDE	Fabric	10	6	[0, 0, 0]	n/a	catFR1	0	R1447M
865.265	1.6	1000604	WORD	n/a	wordpools/wordpool_categorized_EN.txt	CROWBAR	Tools	11	6	[0, 0, 0]	n/a	catFR1	0	R1447M
866.865	0.767	1002191	WORD_OFF	n/a	n/a	CROWBAR	Tools	11	6	[0, 0, 0]	n/a	catFR1	0	R1447M
867.632	1.616	1002960	WORD	n/a	wordpools/wordpool_categorized_EN.txt	SCREWDRIVER	Tools	12	6	[0, 0, 0]	n/a	catFR1	0	R1447M
869.248	0.002	1004584	PROB	0.002	n/a	n/a	n/a	-999	6	[1, 1, 8]	10	catFR1	0	R1447M
869.25	0.0	1004586	START	n/a	n/a	n/a	n/a	-999	6	[-999, -999, -999]	n/a	catFR1	0	R1447M
869.248	0.002	1004592	WORD_OFF	n/a	n/a	SCREWDRIVER	Tools	12	6	[0, 0, 0]	n/a	catFR1	0	R1447M
869.25	0.0	1004596	ENCODING_END	n/a	n/a	n/a	n/a	-999	6	[0, 0, 0]	n/a	catFR1	0	R1447M
869.25	3.848	1004596	DISTRACT_START	n/a	n/a	n/a	n/a	-999	6	[0, 0, 0]	n/a	catFR1	0	R1447M
873.098	5.484	1008434	PROB	5.484	n/a	n/a	n/a	-999	6	[7, 4, 1]	12	catFR1	0	R1447M
878.582	3.217	1013918	PROB	3.217	n/a	n/a	n/a	-999	6	[1, 4, 5]	10	catFR1	0	R1447M
881.799	7.566	1017134	PROB	7.566	n/a	n/a	n/a	-999	6	[3, 8, 8]	19	catFR1	0	R1447M
889.365	0.0	1024700	STOP	n/a	n/a	n/a	n/a	-999	6	[-999, -999, -999]	n/a	catFR1	0	R1447M
889.365	1.217	1024709	DISTRACT_END	n/a	n/a	n/a	n/a	-999	6	[0, 0, 0]	n/a	catFR1	0	R1447M
890.582	2.372	1025919	REC_START	n/a	n/a	n/a	n/a	-999	6	[0, 0, 0]	n/a	catFR1	0	R1447M
892.954	1.635	1028289	REC_WORD	1.635	n/a	SPANDEX	Fabric	1	6	[0, 0, 0]	n/a	catFR1	0	R1447M
894.589	1.733	1029924	REC_WORD	1.733	n/a	NYLON	Fabric	9	6	[0, 0, 0]	n/a	catFR1	0	R1447M
896.322	3.007	1031657	REC_WORD	3.007	n/a	SUEDE	Fabric	10	6	[0, 0, 0]	n/a	catFR1	0	R1447M
899.329	3.665	1034664	REC_WORD_VV	3.665	n/a	<>	n/a	-999	6	[0, 0, 0]	n/a	catFR1	0	R1447M
902.994	0.983	1038328	REC_WORD	0.983	n/a	SCREWDRIVER	Tools	12	6	[0, 0, 0]	n/a	catFR1	0	R1447M
903.977	3.287	1039311	REC_WORD	3.287	n/a	CROWBAR	Tools	11	6	[0, 0, 0]	n/a	catFR1	0	R1447M
907.264	1.003	1042598	REC_WORD_VV	1.003	n/a	<>	n/a	-999	6	[0, 0, 0]	n/a	catFR1	0	R1447M
908.267	3.645	1043601	REC_WORD	3.645	n/a	LEATHER	Fabric	-999	6	[0, 0, 0]	n/a	catFR1	0	R1447M
911.912	4.316	1047246	REC_WORD	4.316	n/a	HAMMER	Tools	-999	6	[0, 0, 0]	n/a	catFR1	0	R1447M
916.228	5.652	1051562	REC_WORD	5.652	n/a	DRILL	Tools	-999	6	[0, 0, 0]	n/a	catFR1	0	R1447M
921.88	3.319	1057217	REC_END	n/a	n/a	n/a	n/a	-999	6	[0, 0, 0]	n/a	catFR1	0	R1447M
925.199	10.35	1060540	COUNTDOWN_START	n/a	n/a	n/a	n/a	-999	6	[0, 0, 0]	n/a	catFR1	0	R1447M
935.549	0.0	1070887	COUNTDOWN_END	n/a	n/a	n/a	n/a	-999	6	[0, 0, 0]	n/a	catFR1	0	R1447M
935.549	2.016	1070887	ENCODING_START	n/a	n/a	n/a	n/a	-999	7	[0, 0, 0]	n/a	catFR1	0	R1447M
937.565	1.6	1072895	WORD	n/a	wordpools/wordpool_categorized_EN.txt	NIGHTSTAND	Furniture	1	7	[0, 0, 0]	n/a	catFR1	0	R1447M
939.165	0.85	1074503	WORD_OFF	n/a	n/a	NIGHTSTAND	Furniture	1	7	[0, 0, 0]	n/a	catFR1	0	R1447M
940.015	1.6	1075351	WORD	n/a	wordpools/wordpool_categorized_EN.txt	DESK	Furniture	2	7	[0, 0, 0]	n/a	catFR1	0	R1447M
941.615	0.767	1076938	WORD_OFF	n/a	n/a	DESK	Furniture	2	7	[0, 0, 0]	n/a	catFR1	0	R1447M
942.382	1.6	1077707	WORD	n/a	wordpools/wordpool_categorized_EN.txt	BEER	Beverages	3	7	[0, 0, 0]	n/a	catFR1	0	R1447M
943.982	0.95	1079319	WORD_OFF	n/a	n/a	BEER	Beverages	3	7	[0, 0, 0]	n/a	catFR1	0	R1447M
944.932	1.617	1080261	WORD	n/a	wordpools/wordpool_categorized_EN.txt	SODA	Beverages	4	7	[0, 0, 0]	n/a	catFR1	0	R1447M
946.549	0.766	1081873	WORD_OFF	n/a	n/a	SODA	Beverages	4	7	[0, 0, 0]	n/a	catFR1	0	R1447M
947.315	1.6	1082642	WORD	n/a	wordpools/wordpool_categorized_EN.txt	GLUE	OfficeSupplies	5	7	[0, 0, 0]	n/a	catFR1	0	R1447M
948.915	0.917	1084250	WORD_OFF	n/a	n/a	GLUE	OfficeSupplies	5	7	[0, 0, 0]	n/a	catFR1	0	R1447M
949.832	1.6	1085171	WORD	n/a	wordpools/wordpool_categorized_EN.txt	STAPLER	OfficeSupplies	6	7	[0, 0, 0]	n/a	catFR1	0	R1447M
951.432	0.967	1086759	WORD_OFF	n/a	n/a	STAPLER	OfficeSupplies	6	7	[0, 0, 0]	n/a	catFR1	0	R1447M
952.399	1.6	1087726	WORD	n/a	wordpools/wordpool_categorized_EN.txt	BOOKCASE	Furniture	7	7	[0, 0, 0]	n/a	catFR1	0	R1447M
953.999	1.0	1089333	WORD_OFF	n/a	n/a	BOOKCASE	Furniture	7	7	[0, 0, 0]	n/a	catFR1	0	R1447M
954.999	1.616	1090330	WORD	n/a	wordpools/wordpool_categorized_EN.txt	RECLINER	Furniture	8	7	[0, 0, 0]	n/a	catFR1	0	R1447M
956.615	0.817	1091942	WORD_OFF	n/a	n/a	RECLINER	Furniture	8	7	[0, 0, 0]	n/a	catFR1	0	R1447M
957.432	1.6	1092760	WORD	n/a	wordpools/wordpool_categorized_EN.txt	MARKER	OfficeSupplies	9	7	[0, 0, 0]	n/a	catFR1	0	R1447M
959.032	0.883	1094372	WORD_OFF	n/a	n/a	MARKER	OfficeSupplies	9	7	[0, 0, 0]	n/a	catFR1	0	R1447M
959.915	1.6	1095240	WORD	n/a	wordpools/wordpool_categorized_EN.txt	RULER	OfficeSupplies	10	7	[0, 0, 0]	n/a	catFR1	0	R1447M
961.515	0.767	1096852	WORD_OFF	n/a	n/a	RULER	OfficeSupplies	10	7	[0, 0, 0]	n/a	catFR1	0	R1447M
962.282	1.6	1097621	WORD	n/a	wordpools/wordpool_categorized_EN.txt	CIDER	Beverages	11	7	[0, 0, 0]	n/a	catFR1	0	R1447M
963.882	0.799	1099208	WORD_OFF	n/a	n/a	CIDER	Beverages	11	7	[0, 0, 0]	n/a	catFR1	0	R1447M
964.681	1.601	1100002	WORD	n/a	wordpools/wordpool_categorized_EN.txt	JUICE	Beverages	12	7	[0, 0, 0]	n/a	catFR1	0	R1447M
966.282	0.001	1101614	WORD_OFF	n/a	n/a	JUICE	Beverages	12	7	[0, 0, 0]	n/a	catFR1	0	R1447M
966.283	0.0	1101614	ENCODING_END	n/a	n/a	n/a	n/a	-999	7	[0, 0, 0]	n/a	catFR1	0	R1447M
966.283	0.0	1101614	DISTRACT_START	n/a	n/a	n/a	n/a	-999	7	[0, 0, 0]	n/a	catFR1	0	R1447M
966.283	0.0	1101614	START	n/a	n/a	n/a	n/a	-999	7	[-999, -999, -999]	n/a	catFR1	0	R1447M
966.283	4.066	1101614	PROB	4.066	n/a	n/a	n/a	-999	7	[2, 8, 7]	17	catFR1	0	R1447M
970.349	6.016	1105680	PROB	6.016	n/a	n/a	n/a	-999	7	[1, 8, 5]	14	catFR1	0	R1447M
976.365	4.233	1111696	PROB	4.233	n/a	n/a	n/a	-999	7	[6, 1, 3]	10	catFR1	0	R1447M
980.598	4.785	1115929	PROB	4.785	n/a	n/a	n/a	-999	7	[3, 2, 4]	9	catFR1	0	R1447M
985.383	3.767	1120714	PROB	3.767	n/a	n/a	n/a	-999	7	[2, 7, 1]	10	catFR1	0	R1447M
989.15	0.0	1124479	DISTRACT_END	n/a	n/a	n/a	n/a	-999	7	[0, 0, 0]	n/a	catFR1	0	R1447M
989.15	1.066	1124480	STOP	n/a	n/a	n/a	n/a	-999	7	[-999, -999, -999]	n/a	catFR1	0	R1447M
990.216	2.192	1125546	REC_START	n/a	n/a	n/a	n/a	-999	7	[0, 0, 0]	n/a	catFR1	0	R1447M
992.408	1.935	1127738	REC_WORD_VV	1.935	n/a	<>	n/a	-999	7	[0, 0, 0]	n/a	catFR1	0	R1447M
994.343	0.977	1129673	REC_WORD	0.977	n/a	BOOKCASE	Furniture	7	7	[0, 0, 0]	n/a	catFR1	0	R1447M
995.32	3.165	1130650	REC_WORD	3.165	n/a	DESK	Furniture	2	7	[0, 0, 0]	n/a	catFR1	0	R1447M
998.485	1.433	1133815	REC_WORD	1.433	n/a	CHAIR	Furniture	-999	7	[0, 0, 0]	n/a	catFR1	0	R1447M
999.918	4.423	1135248	REC_WORD	4.423	n/a	RECLINER	Furniture	8	7	[0, 0, 0]	n/a	catFR1	0	R1447M
1004.341	17.169	1139671	REC_WORD_VV	17.169	n/a	<>	n/a	-999	7	[0, 0, 0]	n/a	catFR1	0	R1447M
1021.51	2.072	1156843	REC_END	n/a	n/a	n/a	n/a	-999	7	[0, 0, 0]	n/a	catFR1	0	R1447M
1023.582	10.35	1158902	COUNTDOWN_START	n/a	n/a	n/a	n/a	-999	7	[0, 0, 0]	n/a	catFR1	0	R1447M
1033.932	0.0	1169268	COUNTDOWN_END	n/a	n/a	n/a	n/a	-999	7	[0, 0, 0]	n/a	catFR1	0	R1447M
1033.932	2.033	1169268	ENCODING_START	n/a	n/a	n/a	n/a	-999	8	[0, 0, 0]	n/a	catFR1	0	R1447M
1035.965	1.617	1171297	WORD	n/a	wordpools/wordpool_categorized_EN.txt	FLOOR	Building	1	8	[0, 0, 0]	n/a	catFR1	0	R1447M
1037.582	0.867	1172914	WORD_OFF	n/a	n/a	FLOOR	Building	1	8	[0, 0, 0]	n/a	catFR1	0	R1447M
1038.449	1.6	1173777	WORD	n/a	wordpools/wordpool_categorized_EN.txt	ATTIC	Building	2	8	[0, 0, 0]	n/a	catFR1	0	R1447M
1040.049	0.916	1175369	WORD_OFF	n/a	n/a	ATTIC	Building	2	8	[0, 0, 0]	n/a	catFR1	0	R1447M
1040.965	1.6	1176286	WORD	n/a	wordpools/wordpool_categorized_EN.txt	LILAC	Flowers	3	8	[0, 0, 0]	n/a	catFR1	0	R1447M
1042.565	1.0	1177898	WORD_OFF	n/a	n/a	LILAC	Flowers	3	8	[0, 0, 0]	n/a	catFR1	0	R1447M
1043.565	1.6	1178890	WORD	n/a	wordpools/wordpool_categorized_EN.txt	ORCHID	Flowers	4	8	[0, 0, 0]	n/a	catFR1	0	R1447M
1045.165	0.967	1180498	WORD_OFF	n/a	n/a	ORCHID	Flowers	4	8	[0, 0, 0]	n/a	catFR1	0	R1447M
1046.132	1.6	1181470	WORD	n/a	wordpools/wordpool_categorized_EN.txt	PIANO	Instruments	5	8	[0, 0, 0]	n/a	catFR1	0	R1447M
1047.732	0.767	1183057	WORD_OFF	n/a	n/a	PIANO	Instruments	5	8	[0, 0, 0]	n/a	catFR1	0	R1447M
1048.499	1.6	1183826	WORD	n/a	wordpools/wordpool_categorized_EN.txt	DRUM	Instruments	6	8	[0, 0, 0]	n/a	catFR1	0	R1447M
1050.099	0.816	1185433	WORD_OFF	n/a	n/a	DRUM	Instruments	6	8	[0, 0, 0]	n/a	catFR1	0	R1447M
1050.915	1.6	1186231	WORD	n/a	wordpools/wordpool_categorized_EN.txt	SUNFLOWER	Flowers	7	8	[0, 0, 0]	n/a	catFR1	0	R1447M
1052.515	0.9	1187843	WORD_OFF	n/a	n/a	SUNFLOWER	Flowers	7	8	[0, 0, 0]	n/a	catFR1	0	R1447M
1053.415	1.6	1188736	WORD	n/a	wordpools/wordpool_categorized_EN.txt	LILY	Flowers	8	8	[0, 0, 0]	n/a	catFR1	0	R1447M
1055.015	0.85	1190348	WORD_OFF	n/a	n/a	LILY	Flowers	8	8	[0, 0, 0]	n/a	catFR1	0	R1447M
1055.865	1.6	1191191	WORD	n/a	wordpools/wordpool_categorized_EN.txt	TROMBONE	Instruments	9	8	[0, 0, 0]	n/a	catFR1	0	R1447M
1057.465	0.833	1192798	WORD_OFF	n/a	n/a	TROMBONE	Instruments	9	8	[0, 0, 0]	n/a	catFR1	0	R1447M
1058.298	1.601	1193622	WORD	n/a	wordpools/wordpool_categorized_EN.txt	FLUTE	Instruments	10	8	[0, 0, 0]	n/a	catFR1	0	R1447M
1059.899	0.833	1195229	WORD_OFF	n/a	n/a	FLUTE	Instruments	10	8	[0, 0, 0]	n/a	catFR1	0	R1447M
1060.732	1.617	1196052	WORD	n/a	wordpools/wordpool_categorized_EN.txt	DOOR	Building	11	8	[0, 0, 0]	n/a	catFR1	0	R1447M
1062.349	0.799	1197664	WORD_OFF	n/a	n/a	DOOR	Building	11	8	[0, 0, 0]	n/a	catFR1	0	R1447M
1063.148	1.601	1198478	WORD	n/a	wordpools/wordpool_categorized_EN.txt	CEILING	Building	12	8	[0, 0, 0]	n/a	catFR1	0	R1447M
1064.749	0.001	1200070	WORD_OFF	n/a	n/a	CEILING	Building	12	8	[0, 0, 0]	n/a	catFR1	0	R1447M
1064.75	0.0	1200070	ENCODING_END	n/a	n/a	n/a	n/a	-999	8	[0, 0, 0]	n/a	catFR1	0	R1447M
1064.75	0.0	1200070	DISTRACT_START	n/a	n/a	n/a	n/a	-999	8	[0, 0, 0]	n/a	catFR1	0	R1447M
1064.749	0.001	1200076	PROB	0.001	n/a	n/a	n/a	-999	8	[1, 4, 8]	13	catFR1	0	R1447M
1064.75	5.148	1200077	START	n/a	n/a	n/a	n/a	-999	8	[-999, -999, -999]	n/a	catFR1	0	R1447M
1069.898	10.1	1205225	PROB	10.1	n/a	n/a	n/a	-999	8	[8, 7, 8]	23	catFR1	0	R1447M
1079.998	6.051	1215324	PROB	6.051	n/a	n/a	n/a	-999	8	[6, 2, 7]	15	catFR1	0	R1447M
1086.049	0.0	1221373	DISTRACT_END	n/a	n/a	n/a	n/a	-999	8	[0, 0, 0]	n/a	catFR1	0	R1447M
1086.049	1.1	1221375	STOP	n/a	n/a	n/a	n/a	-999	8	[-999, -999, -999]	n/a	catFR1	0	R1447M
1087.149	1.888	1222464	REC_START	n/a	n/a	n/a	n/a	-999	8	[0, 0, 0]	n/a	catFR1	0	R1447M
1089.037	0.339	1224363	REC_WORD_VV	0.339	n/a	<>	n/a	-999	8	[0, 0, 0]	n/a	catFR1	0	R1447M
1089.376	1.156	1224702	REC_WORD	1.156	n/a	FLOOR	Building	1	8	[0, 0, 0]	n/a	catFR1	0	R1447M
1090.532	1.488	1225858	REC_WORD	1.488	n/a	CEILING	Building	12	8	[0, 0, 0]	n/a	catFR1	0	R1447M
1092.02	3.151	1227345	REC_WORD	3.151	n/a	ATTIC	Building	2	8	[0, 0, 0]	n/a	catFR1	0	R1447M
1095.171	0.742	1230496	REC_WORD_VV	0.742	n/a	<>	n/a	-999	8	[0, 0, 0]	n/a	catFR1	0	R1447M
1095.913	4.351	1231238	REC_WORD	4.351	n/a	TROMBONE	Instruments	9	8	[0, 0, 0]	n/a	catFR1	0	R1447M
1100.264	18.157	1235589	REC_WORD	18.157	n/a	LILY	Flowers	8	8	[0, 0, 0]	n/a	catFR1	0	R1447M
1118.421	3.011	1253737	REC_END	n/a	n/a	n/a	n/a	-999	8	[0, 0, 0]	n/a	catFR1	0	R1447M
1121.432	10.351	1256762	COUNTDOWN_START	n/a	n/a	n/a	n/a	-999	8	[0, 0, 0]	n/a	catFR1	0	R1447M
1131.783	0.0	1267104	COUNTDOWN_END	n/a	n/a	n/a	n/a	-999	8	[0, 0, 0]	n/a	catFR1	0	R1447M
1131.783	2.232	1267104	ENCODING_START	n/a	n/a	n/a	n/a	-999	9	[0, 0, 0]	n/a	catFR1	0	R1447M
1134.015	1.617	1269336	WORD	n/a	wordpools/wordpool_categorized_EN.txt	CUPCAKE	Desserts	1	9	[0, 0, 0]	n/a	catFR1	0	R1447M
1135.632	0.883	1270948	WORD_OFF	n/a	n/a	CUPCAKE	Desserts	1	9	[0, 0, 0]	n/a	catFR1	0	R1447M
1136.515	1.6	1271841	WORD	n/a	wordpools/wordpool_categorized_EN.txt	BROWNIES	Desserts	2	9	[0, 0, 0]	n/a	catFR1	0	R1447M
1138.115	1.0	1273428	WORD_OFF	n/a	n/a	BROWNIES	Desserts	2	9	[0, 0, 0]	n/a	catFR1	0	R1447M
1139.115	1.6	1274445	WORD	n/a	wordpools/wordpool_categorized_EN.txt	BLUEBIRD	Birds	3	9	[0, 0, 0]	n/a	catFR1	0	R1447M
1140.715	0.95	1276032	WORD_OFF	n/a	n/a	BLUEBIRD	Birds	3	9	[0, 0, 0]	n/a	catFR1	0	R1447M
1141.665	1.6	1276994	WORD	n/a	wordpools/wordpool_categorized_EN.txt	CARDINAL	Birds	4	9	[0, 0, 0]	n/a	catFR1	0	R1447M
1143.265	0.917	1278586	WORD_OFF	n/a	n/a	CARDINAL	Birds	4	9	[0, 0, 0]	n/a	catFR1	0	R1447M
1144.182	1.617	1279504	WORD	n/a	wordpools/wordpool_categorized_EN.txt	FOLDER	OfficeSupplies	5	9	[0, 0, 0]	n/a	catFR1	0	R1447M
1145.799	0.95	1281116	WORD_OFF	n/a	n/a	FOLDER	OfficeSupplies	5	9	[0, 0, 0]	n/a	catFR1	0	R1447M
1146.749	1.6	1282078	WORD	n/a	wordpools/wordpool_categorized_EN.txt	PEN	OfficeSupplies	6	9	[0, 0, 0]	n/a	catFR1	0	R1447M
1148.349	0.816	1283670	WORD_OFF	n/a	n/a	PEN	OfficeSupplies	6	9	[0, 0, 0]	n/a	catFR1	0	R1447M
1149.165	1.601	1284489	WORD	n/a	wordpools/wordpool_categorized_EN.txt	COOKIE	Desserts	7	9	[0, 0, 0]	n/a	catFR1	0	R1447M
1150.766	0.866	1286076	WORD_OFF	n/a	n/a	COOKIE	Desserts	7	9	[0, 0, 0]	n/a	catFR1	0	R1447M
1151.632	1.6	1286944	WORD	n/a	wordpools/wordpool_categorized_EN.txt	JELLO	Desserts	8	9	[0, 0, 0]	n/a	catFR1	0	R1447M
1153.232	0.8	1288556	WORD_OFF	n/a	n/a	JELLO	Desserts	8	9	[0, 0, 0]	n/a	catFR1	0	R1447M
1154.032	1.6	1289349	WORD	n/a	wordpools/wordpool_categorized_EN.txt	ROBIN	Birds	9	9	[0, 0, 0]	n/a	catFR1	0	R1447M
1155.632	0.8	1290957	WORD_OFF	n/a	n/a	ROBIN	Birds	9	9	[0, 0, 0]	n/a	catFR1	0	R1447M
1156.432	1.617	1291755	WORD	n/a	wordpools/wordpool_categorized_EN.txt	CROW	Birds	10	9	[0, 0, 0]	n/a	catFR1	0	R1447M
1158.049	0.883	1293367	WORD_OFF	n/a	n/a	CROW	Birds	10	9	[0, 0, 0]	n/a	catFR1	0	R1447M
1158.932	1.6	1294255	WORD	n/a	wordpools/wordpool_categorized_EN.txt	PENCIL	OfficeSupplies	11	9	[0, 0, 0]	n/a	catFR1	0	R1447M
1160.532	0.916	1295847	WORD_OFF	n/a	n/a	PENCIL	OfficeSupplies	11	9	[0, 0, 0]	n/a	catFR1	0	R1447M
1161.448	1.601	1296765	WORD	n/a	wordpools/wordpool_categorized_EN.txt	TAPE	OfficeSupplies	12	9	[0, 0, 0]	n/a	catFR1	0	R1447M
1163.049	0.001	1298371	PROB	0.001	n/a	n/a	n/a	-999	9	[7, 3, 8]	18	catFR1	0	R1447M
1163.05	0.0	1298372	START	n/a	n/a	n/a	n/a	-999	9	[-999, -999, -999]	n/a	catFR1	0	R1447M
1163.049	0.001	1298377	WORD_OFF	n/a	n/a	TAPE	OfficeSupplies	12	9	[0, 0, 0]	n/a	catFR1	0	R1447M
1163.05	0.0	1298377	ENCODING_END	n/a	n/a	n/a	n/a	-999	9	[0, 0, 0]	n/a	catFR1	0	R1447M
1163.05	3.932	1298377	DISTRACT_START	n/a	n/a	n/a	n/a	-999	9	[0, 0, 0]	n/a	catFR1	0	R1447M
1166.982	4.601	1302304	PROB	4.601	n/a	n/a	n/a	-999	9	[1, 3, 5]	9	catFR1	0	R1447M
1171.583	3.749	1306905	PROB	3.749	n/a	n/a	n/a	-999	9	[3, 7, 2]	12	catFR1	0	R1447M
1175.332	4.383	1310654	PROB	4.383	n/a	n/a	n/a	-999	9	[8, 4, 7]	19	catFR1	0	R1447M
1179.715	3.2	1315036	PROB	3.2	n/a	n/a	n/a	-999	9	[5, 2, 2]	9	catFR1	0	R1447M
1182.915	3.7	1318236	PROB	3.7	n/a	n/a	n/a	-999	9	[7, 1, 7]	15	catFR1	0	R1447M
1186.615	0.0	1321936	STOP	n/a	n/a	n/a	n/a	-999	9	[-999, -999, -999]	n/a	catFR1	0	R1447M
1186.615	1.133	1321937	DISTRACT_END	n/a	n/a	n/a	n/a	-999	9	[0, 0, 0]	n/a	catFR1	0	R1447M
1187.748	2.633	1323077	REC_START	n/a	n/a	n/a	n/a	-999	9	[0, 0, 0]	n/a	catFR1	0	R1447M
1190.381	1.272	1325702	REC_WORD	1.272	n/a	CUPCAKE	Desserts	1	9	[0, 0, 0]	n/a	catFR1	0	R1447M
1191.653	1.005	1326974	REC_WORD_VV	1.005	n/a	<>	n/a	-999	9	[0, 0, 0]	n/a	catFR1	0	R1447M
1192.658	26.375	1327979	REC_WORD	26.375	n/a	BROWNIES	Desserts	2	9	[0, 0, 0]	n/a	catFR1	0	R1447M
1219.033	0.0	1354350	REC_END	n/a	n/a	n/a	n/a	-999	9	[0, 0, 0]	n/a	catFR1	0	R1447M
