onset	duration	sample	trial_type	response_time	stim_file	item_name	category	serialpos	list	test	answer	experiment	session	subject
0.0	0.0	876907	INSTRUCT_START	n/a	n/a	n/a	n/a	-999	-999	[0, 0, 0]	n/a	catFR1	0	R1207J
0.0	11.06	876907	INSTRUCT_END	n/a	n/a	n/a	n/a	-999	-999	[0, 0, 0]	n/a	catFR1	0	R1207J
11.06	0.0	887967	SESS_START	n/a	n/a	n/a	n/a	-999	-999	[0, 0, 0]	n/a	catFR1	0	R1207J
11.06	230.913	887967	MIC_TEST	n/a	n/a	n/a	n/a	-999	-999	[0, 0, 0]	n/a	catFR1	0	R1207J
241.973	4.042	1118881	PRACTICE_TRIAL	n/a	n/a	n/a	n/a	-999	-1	[0, 0, 0]	n/a	catFR1	0	R1207J
246.015	10.428	1122923	COUNTDOWN_START	n/a	n/a	n/a	n/a	-999	-1	[0, 0, 0]	n/a	catFR1	0	R1207J
256.443	0.007	1133351	COUNTDOWN_END	n/a	n/a	n/a	n/a	-999	-1	[0, 0, 0]	n/a	catFR1	0	R1207J
256.45	1.616	1133358	PRACTICE_ORIENT	n/a	n/a	n/a	n/a	-999	-1	[0, 0, 0]	n/a	catFR1	0	R1207J
258.066	2.017	1134974	PRACTICE_ORIENT_OFF	n/a	n/a	n/a	n/a	-999	-1	[0, 0, 0]	n/a	catFR1	0	R1207J
260.083	1.617	1136991	PRACTICE_WORD	n/a	n/a	ATTIC	n/a	-1	-1	[0, 0, 0]	n/a	catFR1	0	R1207J
261.7	0.834	1138608	PRACTICE_WORD_OFF	n/a	n/a	ATTIC	n/a	-999	-1	[0, 0, 0]	n/a	catFR1	0	R1207J
262.534	1.617	1139442	PRACTICE_WORD	n/a	n/a	TONGUE	n/a	-1	-1	[0, 0, 0]	n/a	catFR1	0	R1207J
264.151	0.85	1141059	PRACTICE_WORD_OFF	n/a	n/a	TONGUE	n/a	-999	-1	[0, 0, 0]	n/a	catFR1	0	R1207J
265.001	1.616	1141909	PRACTICE_WORD	n/a	n/a	IRON	n/a	-1	-1	[0, 0, 0]	n/a	catFR1	0	R1207J
266.617	0.934	1143525	PRACTICE_WORD_OFF	n/a	n/a	IRON	n/a	-999	-1	[0, 0, 0]	n/a	catFR1	0	R1207J
267.551	1.617	1144459	PRACTICE_WORD	n/a	n/a	FLOOD	n/a	-1	-1	[0, 0, 0]	n/a	catFR1	0	R1207J
269.168	0.983	1146076	PRACTICE_WORD_OFF	n/a	n/a	FLOOD	n/a	-999	-1	[0, 0, 0]	n/a	catFR1	0	R1207J
270.151	1.617	1147059	PRACTICE_WORD	n/a	n/a	WATCH	n/a	-1	-1	[0, 0, 0]	n/a	catFR1	0	R1207J
271.768	0.967	1148676	PRACTICE_WORD_OFF	n/a	n/a	WATCH	n/a	-999	-1	[0, 0, 0]	n/a	catFR1	0	R1207J
272.735	1.616	1149643	PRACTICE_WORD	n/a	n/a	COTTON	n/a	-1	-1	[0, 0, 0]	n/a	catFR1	0	R1207J
274.351	0.818	1151259	PRACTICE_WORD_OFF	n/a	n/a	COTTON	n/a	-999	-1	[0, 0, 0]	n/a	catFR1	0	R1207J
275.169	1.616	1152077	PRACTICE_WORD	n/a	n/a	WAGON	n/a	-1	-1	[0, 0, 0]	n/a	catFR1	0	R1207J
276.785	0.951	1153693	PRACTICE_WORD_OFF	n/a	n/a	WAGON	n/a	-999	-1	[0, 0, 0]	n/a	catFR1	0	R1207J
277.736	1.615	1154644	PRACTICE_WORD	n/a	n/a	RHINO	n/a	-1	-1	[0, 0, 0]	n/a	catFR1	0	R1207J
279.351	0.934	1156259	PRACTICE_WORD_OFF	n/a	n/a	RHINO	n/a	-999	-1	[0, 0, 0]	n/a	catFR1	0	R1207J
280.285	1.618	1157193	PRACTICE_WORD	n/a	n/a	CHEST	n/a	-1	-1	[0, 0, 0]	n/a	catFR1	0	R1207J
281.903	0.867	1158811	PRACTICE_WORD_OFF	n/a	n/a	CHEST	n/a	-999	-1	[0, 0, 0]	n/a	catFR1	0	R1207J
282.77	1.617	1159678	PRACTICE_WORD	n/a	n/a	RING	n/a	-1	-1	[0, 0, 0]	n/a	catFR1	0	R1207J
284.387	0.932	1161295	PRACTICE_WORD_OFF	n/a	n/a	RING	n/a	-999	-1	[0, 0, 0]	n/a	catFR1	0	R1207J
285.319	1.618	1162227	PRACTICE_WORD	n/a	n/a	CAMEL	n/a	-1	-1	[0, 0, 0]	n/a	catFR1	0	R1207J
286.937	0.766	1163845	PRACTICE_WORD_OFF	n/a	n/a	CAMEL	n/a	-999	-1	[0, 0, 0]	n/a	catFR1	0	R1207J
287.703	1.616	1164611	PRACTICE_WORD	n/a	n/a	BEAM	n/a	-1	-1	[0, 0, 0]	n/a	catFR1	0	R1207J
289.319	0.001	1166227	PRACTICE_WORD_OFF	n/a	n/a	BEAM	n/a	-999	-1	[0, 0, 0]	n/a	catFR1	0	R1207J
289.32	0.0	1166228	DISTRACT_START	n/a	n/a	n/a	n/a	-999	-1	[0, 0, 0]	n/a	catFR1	0	R1207J
289.32	0.0	1166228	ENCODING_END	n/a	n/a	n/a	n/a	-999	-1	[0, 0, 0]	n/a	catFR1	0	R1207J
289.32	0.016	1166228	START	n/a	n/a	n/a	n/a	-999	-1	[-999, -999, -999]	n/a	catFR1	0	R1207J
289.336	8.269	1166244	PROB	8.229	n/a	n/a	n/a	-999	-1	[1, 6, 5]	12.0	catFR1	0	R1207J
297.605	7.733	1174513	PROB	7.695	n/a	n/a	n/a	-999	-1	[4, 2, 7]	13.0	catFR1	0	R1207J
305.338	3.702	1182246	PROB	3.675	n/a	n/a	n/a	-999	-1	[2, 8, 1]	11.0	catFR1	0	R1207J
309.04	4.868	1185948	PROB	4.868	n/a	n/a	n/a	-999	-1	[2, 3, 6]	11.0	catFR1	0	R1207J
313.908	0.016	1190816	STOP	n/a	n/a	n/a	n/a	-999	-1	[-999, -999, -999]	n/a	catFR1	0	R1207J
313.924	0.566	1190832	DISTRACT_END	n/a	n/a	n/a	n/a	-999	-1	[0, 0, 0]	n/a	catFR1	0	R1207J
314.49	0.522	1191398	RETRIEVAL_ORIENT	n/a	n/a	n/a	n/a	-999	-1	[0, 0, 0]	n/a	catFR1	0	R1207J
315.012	30.009	1191920	PRACTICE_REC_START	n/a	n/a	n/a	n/a	-999	-1	[0, 0, 0]	n/a	catFR1	0	R1207J
345.021	15.058	1221929	PRACTICE_REC_END	n/a	n/a	n/a	n/a	-999	-1	[0, 0, 0]	n/a	catFR1	0	R1207J
360.079	0.5	1236987	TRIAL	n/a	n/a	n/a	n/a	-999	1	[0, 0, 0]	n/a	catFR1	0	R1207J
360.579	10.428	1237487	COUNTDOWN_START	n/a	n/a	n/a	n/a	-999	1	[0, 0, 0]	n/a	catFR1	0	R1207J
371.007	0.007	1247915	COUNTDOWN_END	n/a	n/a	n/a	n/a	-999	1	[0, 0, 0]	n/a	catFR1	0	R1207J
371.014	1.617	1247922	ORIENT	n/a	n/a	n/a	n/a	-999	1	[0, 0, 0]	n/a	catFR1	0	R1207J
372.631	1.817	1249539	ORIENT_OFF	n/a	n/a	n/a	n/a	-999	1	[0, 0, 0]	n/a	catFR1	0	R1207J
374.448	1.617	1251356	WORD	n/a	wordpools/wordpool_categorized_EN.txt	STOVE	Appliances	1	1	[0, 0, 0]	n/a	catFR1	0	R1207J
376.065	0.8	1252973	WORD_OFF	n/a	n/a	STOVE	n/a	1	1	[0, 0, 0]	n/a	catFR1	0	R1207J
376.865	1.617	1253773	WORD	n/a	wordpools/wordpool_categorized_EN.txt	VACUUM	Appliances	2	1	[0, 0, 0]	n/a	catFR1	0	R1207J
378.482	0.933	1255390	WORD_OFF	n/a	n/a	VACUUM	n/a	2	1	[0, 0, 0]	n/a	catFR1	0	R1207J
379.415	1.617	1256323	WORD	n/a	wordpools/wordpool_categorized_EN.txt	COMPUTER	Electronics	3	1	[0, 0, 0]	n/a	catFR1	0	R1207J
381.032	0.934	1257940	WORD_OFF	n/a	n/a	COMPUTER	n/a	3	1	[0, 0, 0]	n/a	catFR1	0	R1207J
381.966	1.617	1258874	WORD	n/a	wordpools/wordpool_categorized_EN.txt	TELEVISION	Electronics	4	1	[0, 0, 0]	n/a	catFR1	0	R1207J
383.583	0.966	1260491	WORD_OFF	n/a	n/a	TELEVISION	n/a	4	1	[0, 0, 0]	n/a	catFR1	0	R1207J
384.549	1.618	1261457	WORD	n/a	wordpools/wordpool_categorized_EN.txt	APPLE	Fruit	5	1	[0, 0, 0]	n/a	catFR1	0	R1207J
386.167	0.899	1263075	WORD_OFF	n/a	n/a	APPLE	n/a	5	1	[0, 0, 0]	n/a	catFR1	0	R1207J
387.066	1.617	1263974	WORD	n/a	wordpools/wordpool_categorized_EN.txt	PEAR	Fruit	6	1	[0, 0, 0]	n/a	catFR1	0	R1207J
388.683	1.017	1265591	WORD_OFF	n/a	n/a	PEAR	n/a	6	1	[0, 0, 0]	n/a	catFR1	0	R1207J
389.7	1.616	1266608	WORD	n/a	wordpools/wordpool_categorized_EN.txt	TOASTER	Appliances	7	1	[0, 0, 0]	n/a	catFR1	0	R1207J
391.316	1.017	1268224	WORD_OFF	n/a	n/a	TOASTER	n/a	7	1	[0, 0, 0]	n/a	catFR1	0	R1207J
392.333	1.618	1269241	WORD	n/a	wordpools/wordpool_categorized_EN.txt	BLENDER	Appliances	8	1	[0, 0, 0]	n/a	catFR1	0	R1207J
393.951	0.983	1270859	WORD_OFF	n/a	n/a	BLENDER	n/a	8	1	[0, 0, 0]	n/a	catFR1	0	R1207J
394.934	1.617	1271842	WORD	n/a	wordpools/wordpool_categorized_EN.txt	HEADPHONES	Electronics	9	1	[0, 0, 0]	n/a	catFR1	0	R1207J
396.551	0.983	1273459	WORD_OFF	n/a	n/a	HEADPHONES	n/a	9	1	[0, 0, 0]	n/a	catFR1	0	R1207J
397.534	1.617	1274442	WORD	n/a	wordpools/wordpool_categorized_EN.txt	TABLET	Electronics	10	1	[0, 0, 0]	n/a	catFR1	0	R1207J
399.151	1.017	1276059	WORD_OFF	n/a	n/a	TABLET	n/a	10	1	[0, 0, 0]	n/a	catFR1	0	R1207J
400.168	1.617	1277076	WORD	n/a	wordpools/wordpool_categorized_EN.txt	LIME	Fruit	11	1	[0, 0, 0]	n/a	catFR1	0	R1207J
401.785	0.933	1278693	WORD_OFF	n/a	n/a	LIME	n/a	11	1	[0, 0, 0]	n/a	catFR1	0	R1207J
402.718	1.616	1279626	WORD	n/a	wordpools/wordpool_categorized_EN.txt	LEMON	Fruit	12	1	[0, 0, 0]	n/a	catFR1	0	R1207J
404.334	0.001	1281242	WORD_OFF	n/a	n/a	LEMON	n/a	12	1	[0, 0, 0]	n/a	catFR1	0	R1207J
404.335	0.131	1281243	ENCODING_END	n/a	n/a	n/a	n/a	-999	1	[0, 0, 0]	n/a	catFR1	0	R1207J
404.466	0.0	1281374	DISTRACT_START	n/a	n/a	n/a	n/a	-999	1	[0, 0, 0]	n/a	catFR1	0	R1207J
404.466	0.019	1281374	START	n/a	n/a	n/a	n/a	-999	1	[-999, -999, -999]	n/a	catFR1	0	R1207J
404.485	6.651	1281393	PROB	6.629	n/a	n/a	n/a	-999	1	[2, 9, 9]	20.0	catFR1	0	R1207J
411.136	3.867	1288044	PROB	3.84	n/a	n/a	n/a	-999	1	[4, 2, 8]	14.0	catFR1	0	R1207J
415.003	19.173	1291911	PROB	19.173	n/a	n/a	n/a	-999	1	[6, 9, 8]	23.0	catFR1	0	R1207J
434.176	0.013	1311085	STOP	n/a	n/a	n/a	n/a	-999	1	[-999, -999, -999]	n/a	catFR1	0	R1207J
434.189	0.534	1311098	DISTRACT_END	n/a	n/a	n/a	n/a	-999	1	[0, 0, 0]	n/a	catFR1	0	R1207J
434.723	0.516	1311632	RETRIEVAL_ORIENT	n/a	n/a	n/a	n/a	-999	1	[0, 0, 0]	n/a	catFR1	0	R1207J
435.239	2.402	1312148	REC_START	n/a	n/a	n/a	n/a	-999	1	[0, 0, 0]	n/a	catFR1	0	R1207J
437.641	1.968	1314550	REC_WORD	2.402	n/a	APPLE	Fruit	5	1	[0, 0, 0]	n/a	catFR1	0	R1207J
439.609	3.329	1316518	REC_WORD	4.37	n/a	STOVE	Appliances	1	1	[0, 0, 0]	n/a	catFR1	0	R1207J
442.938	1.322	1319847	REC_WORD	7.699	n/a	COMPUTER	Electronics	3	1	[0, 0, 0]	n/a	catFR1	0	R1207J
444.26	1.07	1321169	REC_WORD	9.021	n/a	TELEVISION	Electronics	4	1	[0, 0, 0]	n/a	catFR1	0	R1207J
445.33	1.579	1322239	REC_WORD	10.091	n/a	TABLET	Electronics	10	1	[0, 0, 0]	n/a	catFR1	0	R1207J
446.909	5.181	1323818	REC_WORD	11.67	n/a	HEADPHONES	Electronics	9	1	[0, 0, 0]	n/a	catFR1	0	R1207J
452.09	13.163	1328999	REC_WORD	16.851	n/a	STOVE	Appliances	1	1	[0, 0, 0]	n/a	catFR1	0	R1207J
465.253	8.241	1342162	REC_END	n/a	n/a	n/a	n/a	-999	1	[0, 0, 0]	n/a	catFR1	0	R1207J
473.494	0.5	1350403	TRIAL	n/a	n/a	n/a	n/a	-999	2	[0, 0, 0]	n/a	catFR1	0	R1207J
473.994	10.428	1350903	COUNTDOWN_START	n/a	n/a	n/a	n/a	-999	2	[0, 0, 0]	n/a	catFR1	0	R1207J
484.422	0.007	1361331	COUNTDOWN_END	n/a	n/a	n/a	n/a	-999	2	[0, 0, 0]	n/a	catFR1	0	R1207J
484.429	1.617	1361338	ORIENT	n/a	n/a	n/a	n/a	-999	2	[0, 0, 0]	n/a	catFR1	0	R1207J
486.046	1.9	1362955	ORIENT_OFF	n/a	n/a	n/a	n/a	-999	2	[0, 0, 0]	n/a	catFR1	0	R1207J
487.946	1.617	1364855	WORD	n/a	wordpools/wordpool_categorized_EN.txt	BEETLE	Insects	1	2	[0, 0, 0]	n/a	catFR1	0	R1207J
489.563	0.782	1366472	WORD_OFF	n/a	n/a	BEETLE	n/a	1	2	[0, 0, 0]	n/a	catFR1	0	R1207J
490.345	1.601	1367254	WORD	n/a	wordpools/wordpool_categorized_EN.txt	FLY	Insects	2	2	[0, 0, 0]	n/a	catFR1	0	R1207J
491.946	0.784	1368855	WORD_OFF	n/a	n/a	FLY	n/a	2	2	[0, 0, 0]	n/a	catFR1	0	R1207J
492.73	1.616	1369639	WORD	n/a	wordpools/wordpool_categorized_EN.txt	PEN	OfficeSupplies	3	2	[0, 0, 0]	n/a	catFR1	0	R1207J
494.346	0.851	1371255	WORD_OFF	n/a	n/a	PEN	n/a	3	2	[0, 0, 0]	n/a	catFR1	0	R1207J
495.197	1.617	1372106	WORD	n/a	wordpools/wordpool_categorized_EN.txt	RULER	OfficeSupplies	4	2	[0, 0, 0]	n/a	catFR1	0	R1207J
496.814	0.766	1373723	WORD_OFF	n/a	n/a	RULER	n/a	4	2	[0, 0, 0]	n/a	catFR1	0	R1207J
497.58	1.617	1374489	WORD	n/a	wordpools/wordpool_categorized_EN.txt	OYSTER	OceanAnimals	5	2	[0, 0, 0]	n/a	catFR1	0	R1207J
499.197	0.801	1376106	WORD_OFF	n/a	n/a	OYSTER	n/a	5	2	[0, 0, 0]	n/a	catFR1	0	R1207J
499.998	1.616	1376907	WORD	n/a	wordpools/wordpool_categorized_EN.txt	CRAB	OceanAnimals	6	2	[0, 0, 0]	n/a	catFR1	0	R1207J
501.614	0.834	1378523	WORD_OFF	n/a	n/a	CRAB	n/a	6	2	[0, 0, 0]	n/a	catFR1	0	R1207J
502.448	1.617	1379357	WORD	n/a	wordpools/wordpool_categorized_EN.txt	LADYBUG	Insects	7	2	[0, 0, 0]	n/a	catFR1	0	R1207J
504.065	0.984	1380974	WORD_OFF	n/a	n/a	LADYBUG	n/a	7	2	[0, 0, 0]	n/a	catFR1	0	R1207J
505.049	1.616	1381958	WORD	n/a	wordpools/wordpool_categorized_EN.txt	ANT	Insects	8	2	[0, 0, 0]	n/a	catFR1	0	R1207J
506.665	0.783	1383574	WORD_OFF	n/a	n/a	ANT	n/a	8	2	[0, 0, 0]	n/a	catFR1	0	R1207J
507.448	1.617	1384357	WORD	n/a	wordpools/wordpool_categorized_EN.txt	GLUE	OfficeSupplies	9	2	[0, 0, 0]	n/a	catFR1	0	R1207J
509.065	0.784	1385974	WORD_OFF	n/a	n/a	GLUE	n/a	9	2	[0, 0, 0]	n/a	catFR1	0	R1207J
509.849	1.617	1386758	WORD	n/a	wordpools/wordpool_categorized_EN.txt	ERASER	OfficeSupplies	10	2	[0, 0, 0]	n/a	catFR1	0	R1207J
511.466	0.849	1388375	WORD_OFF	n/a	n/a	ERASER	n/a	10	2	[0, 0, 0]	n/a	catFR1	0	R1207J
512.315	1.618	1389224	WORD	n/a	wordpools/wordpool_categorized_EN.txt	OCTOPUS	OceanAnimals	11	2	[0, 0, 0]	n/a	catFR1	0	R1207J
513.933	0.883	1390842	WORD_OFF	n/a	n/a	OCTOPUS	n/a	11	2	[0, 0, 0]	n/a	catFR1	0	R1207J
514.816	1.617	1391725	WORD	n/a	wordpools/wordpool_categorized_EN.txt	JELLYFISH	OceanAnimals	12	2	[0, 0, 0]	n/a	catFR1	0	R1207J
516.433	0.0	1393342	ENCODING_END	n/a	n/a	n/a	n/a	-999	2	[0, 0, 0]	n/a	catFR1	0	R1207J
516.433	0.101	1393342	WORD_OFF	n/a	n/a	JELLYFISH	n/a	12	2	[0, 0, 0]	n/a	catFR1	0	R1207J
516.534	0.0	1393443	DISTRACT_START	n/a	n/a	n/a	n/a	-999	2	[0, 0, 0]	n/a	catFR1	0	R1207J
516.534	0.015	1393443	START	n/a	n/a	n/a	n/a	-999	2	[-999, -999, -999]	n/a	catFR1	0	R1207J
516.549	7.252	1393458	PROB	7.215	n/a	n/a	n/a	-999	2	[3, 2, 4]	9.0	catFR1	0	R1207J
523.801	6.584	1400710	PROB	6.555	n/a	n/a	n/a	-999	2	[9, 4, 5]	18.0	catFR1	0	R1207J
530.385	4.367	1407294	PROB	4.339	n/a	n/a	n/a	-999	2	[6, 7, 3]	16.0	catFR1	0	R1207J
534.752	4.506	1411661	PROB	4.506	n/a	n/a	n/a	-999	2	[7, 8, 2]	17.0	catFR1	0	R1207J
539.258	0.011	1416167	STOP	n/a	n/a	n/a	n/a	-999	2	[-999, -999, -999]	n/a	catFR1	0	R1207J
539.269	0.65	1416178	DISTRACT_END	n/a	n/a	n/a	n/a	-999	2	[0, 0, 0]	n/a	catFR1	0	R1207J
539.919	0.518	1416828	RETRIEVAL_ORIENT	n/a	n/a	n/a	n/a	-999	2	[0, 0, 0]	n/a	catFR1	0	R1207J
540.437	2.147	1417346	REC_START	n/a	n/a	n/a	n/a	-999	2	[0, 0, 0]	n/a	catFR1	0	R1207J
542.584	3.623	1419493	REC_WORD	2.147	n/a	OYSTER	OceanAnimals	5	2	[0, 0, 0]	n/a	catFR1	0	R1207J
546.207	7.111	1423116	REC_WORD	5.77	n/a	CLAMS	n/a	-999	2	[0, 0, 0]	n/a	catFR1	0	R1207J
553.318	2.284	1430227	REC_WORD	12.881	n/a	CRAB	OceanAnimals	6	2	[0, 0, 0]	n/a	catFR1	0	R1207J
555.602	1.804	1432511	REC_WORD	15.165	n/a	ERASER	OfficeSupplies	10	2	[0, 0, 0]	n/a	catFR1	0	R1207J
557.406	8.075	1434315	REC_WORD	16.969	n/a	PENCIL	n/a	-999	2	[0, 0, 0]	n/a	catFR1	0	R1207J
565.481	4.963	1442390	REC_WORD_VV	25.044	n/a	<>	n/a	-999	2	[0, 0, 0]	n/a	catFR1	0	R1207J
570.444	5.197	1447353	REC_END	n/a	n/a	n/a	n/a	-999	2	[0, 0, 0]	n/a	catFR1	0	R1207J
575.641	0.5	1452550	TRIAL	n/a	n/a	n/a	n/a	-999	3	[0, 0, 0]	n/a	catFR1	0	R1207J
576.141	10.428	1453050	COUNTDOWN_START	n/a	n/a	n/a	n/a	-999	3	[0, 0, 0]	n/a	catFR1	0	R1207J
586.569	0.006	1463478	COUNTDOWN_END	n/a	n/a	n/a	n/a	-999	3	[0, 0, 0]	n/a	catFR1	0	R1207J
586.575	1.617	1463484	ORIENT	n/a	n/a	n/a	n/a	-999	3	[0, 0, 0]	n/a	catFR1	0	R1207J
588.192	2.367	1465101	ORIENT_OFF	n/a	n/a	n/a	n/a	-999	3	[0, 0, 0]	n/a	catFR1	0	R1207J
590.559	1.617	1467468	WORD	n/a	wordpools/wordpool_categorized_EN.txt	CRICKET	Insects	1	3	[0, 0, 0]	n/a	catFR1	0	R1207J
592.176	1.0	1469085	WORD_OFF	n/a	n/a	CRICKET	n/a	1	3	[0, 0, 0]	n/a	catFR1	0	R1207J
593.176	1.617	1470085	WORD	n/a	wordpools/wordpool_categorized_EN.txt	MOTH	Insects	2	3	[0, 0, 0]	n/a	catFR1	0	R1207J
594.793	0.95	1471702	WORD_OFF	n/a	n/a	MOTH	n/a	2	3	[0, 0, 0]	n/a	catFR1	0	R1207J
595.743	1.617	1472652	WORD	n/a	wordpools/wordpool_categorized_EN.txt	CLOUD	Weather	3	3	[0, 0, 0]	n/a	catFR1	0	R1207J
597.36	0.767	1474269	WORD_OFF	n/a	n/a	CLOUD	n/a	3	3	[0, 0, 0]	n/a	catFR1	0	R1207J
598.127	1.617	1475036	WORD	n/a	wordpools/wordpool_categorized_EN.txt	SNOW	Weather	4	3	[0, 0, 0]	n/a	catFR1	0	R1207J
599.744	0.833	1476653	WORD_OFF	n/a	n/a	SNOW	n/a	4	3	[0, 0, 0]	n/a	catFR1	0	R1207J
600.577	1.617	1477486	WORD	n/a	wordpools/wordpool_categorized_EN.txt	PEACH	Fruit	5	3	[0, 0, 0]	n/a	catFR1	0	R1207J
602.194	0.767	1479103	WORD_OFF	n/a	n/a	PEACH	n/a	5	3	[0, 0, 0]	n/a	catFR1	0	R1207J
602.961	1.617	1479870	WORD	n/a	wordpools/wordpool_categorized_EN.txt	BANANA	Fruit	6	3	[0, 0, 0]	n/a	catFR1	0	R1207J
604.578	0.85	1481487	WORD_OFF	n/a	n/a	BANANA	n/a	6	3	[0, 0, 0]	n/a	catFR1	0	R1207J
605.428	1.616	1482337	WORD	n/a	wordpools/wordpool_categorized_EN.txt	RAIN	Weather	7	3	[0, 0, 0]	n/a	catFR1	0	R1207J
607.044	0.784	1483953	WORD_OFF	n/a	n/a	RAIN	n/a	7	3	[0, 0, 0]	n/a	catFR1	0	R1207J
607.828	1.617	1484737	WORD	n/a	wordpools/wordpool_categorized_EN.txt	HURRICANE	Weather	8	3	[0, 0, 0]	n/a	catFR1	0	R1207J
609.445	0.882	1486354	WORD_OFF	n/a	n/a	HURRICANE	n/a	8	3	[0, 0, 0]	n/a	catFR1	0	R1207J
610.327	1.618	1487236	WORD	n/a	wordpools/wordpool_categorized_EN.txt	GNAT	Insects	9	3	[0, 0, 0]	n/a	catFR1	0	R1207J
611.945	0.817	1488854	WORD_OFF	n/a	n/a	GNAT	n/a	9	3	[0, 0, 0]	n/a	catFR1	0	R1207J
612.762	1.617	1489671	WORD	n/a	wordpools/wordpool_categorized_EN.txt	BEE	Insects	10	3	[0, 0, 0]	n/a	catFR1	0	R1207J
614.379	0.916	1491288	WORD_OFF	n/a	n/a	BEE	n/a	10	3	[0, 0, 0]	n/a	catFR1	0	R1207J
615.295	1.617	1492204	WORD	n/a	wordpools/wordpool_categorized_EN.txt	GRAPE	Fruit	11	3	[0, 0, 0]	n/a	catFR1	0	R1207J
616.912	0.784	1493821	WORD_OFF	n/a	n/a	GRAPE	n/a	11	3	[0, 0, 0]	n/a	catFR1	0	R1207J
617.696	1.616	1494605	WORD	n/a	wordpools/wordpool_categorized_EN.txt	BLUEBERRY	Fruit	12	3	[0, 0, 0]	n/a	catFR1	0	R1207J
619.312	0.0	1496221	WORD_OFF	n/a	n/a	BLUEBERRY	n/a	12	3	[0, 0, 0]	n/a	catFR1	0	R1207J
619.312	0.138	1496221	ENCODING_END	n/a	n/a	n/a	n/a	-999	3	[0, 0, 0]	n/a	catFR1	0	R1207J
619.45	0.0	1496359	DISTRACT_START	n/a	n/a	n/a	n/a	-999	3	[0, 0, 0]	n/a	catFR1	0	R1207J
619.45	0.013	1496359	START	n/a	n/a	n/a	n/a	-999	3	[-999, -999, -999]	n/a	catFR1	0	R1207J
619.463	5.217	1496372	PROB	5.193	n/a	n/a	n/a	-999	3	[5, 3, 9]	17.0	catFR1	0	R1207J
624.68	4.117	1501589	PROB	4.087	n/a	n/a	n/a	-999	3	[8, 6, 2]	16.0	catFR1	0	R1207J
628.797	2.801	1505706	PROB	2.772	n/a	n/a	n/a	-999	3	[1, 1, 1]	3.0	catFR1	0	R1207J
631.598	3.934	1508507	PROB	3.907	n/a	n/a	n/a	-999	3	[1, 8, 2]	11.0	catFR1	0	R1207J
635.532	4.195	1512441	PROB	4.195	n/a	n/a	n/a	-999	3	[1, 5, 1]	7.0	catFR1	0	R1207J
639.727	0.022	1516636	STOP	n/a	n/a	n/a	n/a	-999	3	[-999, -999, -999]	n/a	catFR1	0	R1207J
639.749	0.516	1516658	DISTRACT_END	n/a	n/a	n/a	n/a	-999	3	[0, 0, 0]	n/a	catFR1	0	R1207J
640.265	0.518	1517174	RETRIEVAL_ORIENT	n/a	n/a	n/a	n/a	-999	3	[0, 0, 0]	n/a	catFR1	0	R1207J
640.783	0.994	1517692	REC_START	n/a	n/a	n/a	n/a	-999	3	[0, 0, 0]	n/a	catFR1	0	R1207J
641.777	2.202	1518686	REC_WORD	0.994	n/a	GNAT	Insects	9	3	[0, 0, 0]	n/a	catFR1	0	R1207J
643.979	3.13	1520888	REC_WORD	3.196	n/a	FLY	n/a	-999	3	[0, 0, 0]	n/a	catFR1	0	R1207J
647.109	1.356	1524018	REC_WORD	6.326	n/a	LADYBUG	n/a	-999	3	[0, 0, 0]	n/a	catFR1	0	R1207J
648.465	1.0	1525374	REC_WORD_VV	7.682	n/a	<>	n/a	-999	3	[0, 0, 0]	n/a	catFR1	0	R1207J
649.465	0.73	1526374	REC_WORD_VV	8.682	n/a	<>	n/a	-999	3	[0, 0, 0]	n/a	catFR1	0	R1207J
650.195	10.265	1527104	REC_WORD_VV	9.412	n/a	<>	n/a	-999	3	[0, 0, 0]	n/a	catFR1	0	R1207J
660.46	7.994	1537369	REC_WORD	19.677	n/a	BANANA	Fruit	6	3	[0, 0, 0]	n/a	catFR1	0	R1207J
668.454	1.729	1545363	REC_WORD	27.671	n/a	MOTH	Insects	2	3	[0, 0, 0]	n/a	catFR1	0	R1207J
670.183	0.61	1547092	REC_WORD	29.4	n/a	RAIN	Weather	7	3	[0, 0, 0]	n/a	catFR1	0	R1207J
670.793	23.03	1547702	REC_END	n/a	n/a	n/a	n/a	-999	3	[0, 0, 0]	n/a	catFR1	0	R1207J
693.823	0.5	1570732	TRIAL	n/a	n/a	n/a	n/a	-999	4	[0, 0, 0]	n/a	catFR1	0	R1207J
694.323	10.428	1571232	COUNTDOWN_START	n/a	n/a	n/a	n/a	-999	4	[0, 0, 0]	n/a	catFR1	0	R1207J
704.751	0.006	1581660	COUNTDOWN_END	n/a	n/a	n/a	n/a	-999	4	[0, 0, 0]	n/a	catFR1	0	R1207J
704.757	1.617	1581666	ORIENT	n/a	n/a	n/a	n/a	-999	4	[0, 0, 0]	n/a	catFR1	0	R1207J
706.374	2.25	1583283	ORIENT_OFF	n/a	n/a	n/a	n/a	-999	4	[0, 0, 0]	n/a	catFR1	0	R1207J
708.624	1.616	1585533	WORD	n/a	wordpools/wordpool_categorized_EN.txt	DRESSER	Furniture	1	4	[0, 0, 0]	n/a	catFR1	0	R1207J
710.24	0.968	1587149	WORD_OFF	n/a	n/a	DRESSER	n/a	1	4	[0, 0, 0]	n/a	catFR1	0	R1207J
711.208	1.617	1588117	WORD	n/a	wordpools/wordpool_categorized_EN.txt	SHELF	Furniture	2	4	[0, 0, 0]	n/a	catFR1	0	R1207J
712.825	1.0	1589734	WORD_OFF	n/a	n/a	SHELF	n/a	2	4	[0, 0, 0]	n/a	catFR1	0	R1207J
713.825	1.617	1590734	WORD	n/a	wordpools/wordpool_categorized_EN.txt	ORCHID	Flowers	3	4	[0, 0, 0]	n/a	catFR1	0	R1207J
715.442	0.849	1592351	WORD_OFF	n/a	n/a	ORCHID	n/a	3	4	[0, 0, 0]	n/a	catFR1	0	R1207J
716.291	1.618	1593200	WORD	n/a	wordpools/wordpool_categorized_EN.txt	LILY	Flowers	4	4	[0, 0, 0]	n/a	catFR1	0	R1207J
717.909	0.8	1594819	WORD_OFF	n/a	n/a	LILY	n/a	4	4	[0, 0, 0]	n/a	catFR1	0	R1207J
718.709	1.616	1595619	WORD	n/a	wordpools/wordpool_categorized_EN.txt	VIOLIN	Instruments	5	4	[0, 0, 0]	n/a	catFR1	0	R1207J
720.325	0.933	1597235	WORD_OFF	n/a	n/a	VIOLIN	n/a	5	4	[0, 0, 0]	n/a	catFR1	0	R1207J
721.258	1.618	1598168	WORD	n/a	wordpools/wordpool_categorized_EN.txt	BANJO	Instruments	6	4	[0, 0, 0]	n/a	catFR1	0	R1207J
722.876	0.934	1599786	WORD_OFF	n/a	n/a	BANJO	n/a	6	4	[0, 0, 0]	n/a	catFR1	0	R1207J
723.81	1.617	1600720	WORD	n/a	wordpools/wordpool_categorized_EN.txt	PETUNIA	Flowers	7	4	[0, 0, 0]	n/a	catFR1	0	R1207J
725.427	0.899	1602337	WORD_OFF	n/a	n/a	PETUNIA	n/a	7	4	[0, 0, 0]	n/a	catFR1	0	R1207J
726.326	1.601	1603236	WORD	n/a	wordpools/wordpool_categorized_EN.txt	MARIGOLD	Flowers	8	4	[0, 0, 0]	n/a	catFR1	0	R1207J
727.927	0.95	1604837	WORD_OFF	n/a	n/a	MARIGOLD	n/a	8	4	[0, 0, 0]	n/a	catFR1	0	R1207J
728.877	1.617	1605787	WORD	n/a	wordpools/wordpool_categorized_EN.txt	TABLE	Furniture	9	4	[0, 0, 0]	n/a	catFR1	0	R1207J
730.494	0.917	1607404	WORD_OFF	n/a	n/a	TABLE	n/a	9	4	[0, 0, 0]	n/a	catFR1	0	R1207J
731.411	1.617	1608321	WORD	n/a	wordpools/wordpool_categorized_EN.txt	CHAIR	Furniture	10	4	[0, 0, 0]	n/a	catFR1	0	R1207J
733.028	0.883	1609938	WORD_OFF	n/a	n/a	CHAIR	n/a	10	4	[0, 0, 0]	n/a	catFR1	0	R1207J
733.911	1.617	1610821	WORD	n/a	wordpools/wordpool_categorized_EN.txt	TUBA	Instruments	11	4	[0, 0, 0]	n/a	catFR1	0	R1207J
735.528	0.766	1612438	WORD_OFF	n/a	n/a	TUBA	n/a	11	4	[0, 0, 0]	n/a	catFR1	0	R1207J
736.294	1.617	1613204	WORD	n/a	wordpools/wordpool_categorized_EN.txt	BASS	Instruments	12	4	[0, 0, 0]	n/a	catFR1	0	R1207J
737.911	0.001	1614821	WORD_OFF	n/a	n/a	BASS	n/a	12	4	[0, 0, 0]	n/a	catFR1	0	R1207J
737.912	0.132	1614822	ENCODING_END	n/a	n/a	n/a	n/a	-999	4	[0, 0, 0]	n/a	catFR1	0	R1207J
738.044	0.0	1614954	DISTRACT_START	n/a	n/a	n/a	n/a	-999	4	[0, 0, 0]	n/a	catFR1	0	R1207J
738.044	0.017	1614954	START	n/a	n/a	n/a	n/a	-999	4	[-999, -999, -999]	n/a	catFR1	0	R1207J
738.061	7.468	1614971	PROB	7.43	n/a	n/a	n/a	-999	4	[7, 4, 1]	12.0	catFR1	0	R1207J
745.529	5.617	1622439	PROB	5.587	n/a	n/a	n/a	-999	4	[5, 4, 8]	17.0	catFR1	0	R1207J
751.146	3.618	1628056	PROB	3.594	n/a	n/a	n/a	-999	4	[5, 8, 2]	15.0	catFR1	0	R1207J
754.764	8.671	1631674	PROB	8.671	n/a	n/a	n/a	-999	4	[4, 9, 2]	15.0	catFR1	0	R1207J
763.435	0.013	1640345	STOP	n/a	n/a	n/a	n/a	-999	4	[-999, -999, -999]	n/a	catFR1	0	R1207J
763.448	0.55	1640358	DISTRACT_END	n/a	n/a	n/a	n/a	-999	4	[0, 0, 0]	n/a	catFR1	0	R1207J
763.998	0.518	1640908	RETRIEVAL_ORIENT	n/a	n/a	n/a	n/a	-999	4	[0, 0, 0]	n/a	catFR1	0	R1207J
764.516	1.404	1641426	REC_START	n/a	n/a	n/a	n/a	-999	4	[0, 0, 0]	n/a	catFR1	0	R1207J
765.92	1.106	1642830	REC_WORD	1.404	n/a	TABLE	Furniture	9	4	[0, 0, 0]	n/a	catFR1	0	R1207J
767.026	1.746	1643936	REC_WORD	2.51	n/a	CHAIR	Furniture	10	4	[0, 0, 0]	n/a	catFR1	0	R1207J
768.772	0.859	1645682	REC_WORD	4.256	n/a	ORCHID	Flowers	3	4	[0, 0, 0]	n/a	catFR1	0	R1207J
769.631	11.036	1646541	REC_WORD	5.115	n/a	LILY	Flowers	4	4	[0, 0, 0]	n/a	catFR1	0	R1207J
780.667	3.293	1657577	REC_WORD	16.151	n/a	DRESSER	Furniture	1	4	[0, 0, 0]	n/a	catFR1	0	R1207J
783.96	5.382	1660870	REC_WORD	19.444	n/a	DRAWER	n/a	-999	4	[0, 0, 0]	n/a	catFR1	0	R1207J
789.342	5.184	1666252	REC_WORD	24.826	n/a	BANJO	Instruments	6	4	[0, 0, 0]	n/a	catFR1	0	R1207J
794.526	5.443	1671436	REC_END	n/a	n/a	n/a	n/a	-999	4	[0, 0, 0]	n/a	catFR1	0	R1207J
799.969	0.5	1676879	TRIAL	n/a	n/a	n/a	n/a	-999	5	[0, 0, 0]	n/a	catFR1	0	R1207J
800.469	10.428	1677379	COUNTDOWN_START	n/a	n/a	n/a	n/a	-999	5	[0, 0, 0]	n/a	catFR1	0	R1207J
810.897	0.007	1687807	COUNTDOWN_END	n/a	n/a	n/a	n/a	-999	5	[0, 0, 0]	n/a	catFR1	0	R1207J
810.904	1.617	1687814	ORIENT	n/a	n/a	n/a	n/a	-999	5	[0, 0, 0]	n/a	catFR1	0	R1207J
812.521	2.284	1689431	ORIENT_OFF	n/a	n/a	n/a	n/a	-999	5	[0, 0, 0]	n/a	catFR1	0	R1207J
814.805	1.617	1691715	WORD	n/a	wordpools/wordpool_categorized_EN.txt	ROOSTER	FarmAnimals	1	5	[0, 0, 0]	n/a	catFR1	0	R1207J
816.422	0.882	1693332	WORD_OFF	n/a	n/a	ROOSTER	n/a	1	5	[0, 0, 0]	n/a	catFR1	0	R1207J
817.304	1.618	1694214	WORD	n/a	wordpools/wordpool_categorized_EN.txt	TURKEY	FarmAnimals	2	5	[0, 0, 0]	n/a	catFR1	0	R1207J
818.922	0.85	1695832	WORD_OFF	n/a	n/a	TURKEY	n/a	2	5	[0, 0, 0]	n/a	catFR1	0	R1207J
819.772	1.617	1696682	WORD	n/a	wordpools/wordpool_categorized_EN.txt	DUCK	Birds	3	5	[0, 0, 0]	n/a	catFR1	0	R1207J
821.389	1.0	1698299	WORD_OFF	n/a	n/a	DUCK	n/a	3	5	[0, 0, 0]	n/a	catFR1	0	R1207J
822.389	1.617	1699299	WORD	n/a	wordpools/wordpool_categorized_EN.txt	FINCH	Birds	4	5	[0, 0, 0]	n/a	catFR1	0	R1207J
824.006	0.916	1700916	WORD_OFF	n/a	n/a	FINCH	n/a	4	5	[0, 0, 0]	n/a	catFR1	0	R1207J
824.922	1.617	1701832	WORD	n/a	wordpools/wordpool_categorized_EN.txt	LILAC	Flowers	5	5	[0, 0, 0]	n/a	catFR1	0	R1207J
826.539	0.783	1703449	WORD_OFF	n/a	n/a	LILAC	n/a	5	5	[0, 0, 0]	n/a	catFR1	0	R1207J
827.322	1.618	1704232	WORD	n/a	wordpools/wordpool_categorized_EN.txt	CARNATION	Flowers	6	5	[0, 0, 0]	n/a	catFR1	0	R1207J
828.94	0.883	1705850	WORD_OFF	n/a	n/a	CARNATION	n/a	6	5	[0, 0, 0]	n/a	catFR1	0	R1207J
829.823	1.617	1706733	WORD	n/a	wordpools/wordpool_categorized_EN.txt	DOVE	Birds	7	5	[0, 0, 0]	n/a	catFR1	0	R1207J
831.44	0.866	1708350	WORD_OFF	n/a	n/a	DOVE	n/a	7	5	[0, 0, 0]	n/a	catFR1	0	R1207J
832.306	1.618	1709216	WORD	n/a	wordpools/wordpool_categorized_EN.txt	PIGEON	Birds	8	5	[0, 0, 0]	n/a	catFR1	0	R1207J
833.924	0.967	1710834	WORD_OFF	n/a	n/a	PIGEON	n/a	8	5	[0, 0, 0]	n/a	catFR1	0	R1207J
834.891	1.616	1711801	WORD	n/a	wordpools/wordpool_categorized_EN.txt	PIG	FarmAnimals	9	5	[0, 0, 0]	n/a	catFR1	0	R1207J
836.507	0.85	1713417	WORD_OFF	n/a	n/a	PIG	n/a	9	5	[0, 0, 0]	n/a	catFR1	0	R1207J
837.357	1.617	1714267	WORD	n/a	wordpools/wordpool_categorized_EN.txt	LAMB	FarmAnimals	10	5	[0, 0, 0]	n/a	catFR1	0	R1207J
838.974	0.784	1715884	WORD_OFF	n/a	n/a	LAMB	n/a	10	5	[0, 0, 0]	n/a	catFR1	0	R1207J
839.758	1.617	1716668	WORD	n/a	wordpools/wordpool_categorized_EN.txt	VIOLET	Flowers	11	5	[0, 0, 0]	n/a	catFR1	0	R1207J
841.375	0.966	1718285	WORD_OFF	n/a	n/a	VIOLET	n/a	11	5	[0, 0, 0]	n/a	catFR1	0	R1207J
842.341	1.617	1719251	WORD	n/a	wordpools/wordpool_categorized_EN.txt	DAISY	Flowers	12	5	[0, 0, 0]	n/a	catFR1	0	R1207J
843.958	0.001	1720868	WORD_OFF	n/a	n/a	DAISY	n/a	12	5	[0, 0, 0]	n/a	catFR1	0	R1207J
843.959	0.098	1720869	ENCODING_END	n/a	n/a	n/a	n/a	-999	5	[0, 0, 0]	n/a	catFR1	0	R1207J
844.057	0.001	1720967	DISTRACT_START	n/a	n/a	n/a	n/a	-999	5	[0, 0, 0]	n/a	catFR1	0	R1207J
844.058	0.017	1720968	START	n/a	n/a	n/a	n/a	-999	5	[-999, -999, -999]	n/a	catFR1	0	R1207J
844.075	5.684	1720985	PROB	5.659	n/a	n/a	n/a	-999	5	[5, 4, 4]	13.0	catFR1	0	R1207J
849.759	11.335	1726669	PROB	11.312	n/a	n/a	n/a	-999	5	[6, 8, 1]	15.0	catFR1	0	R1207J
861.094	7.816	1738004	PROB	7.816	n/a	n/a	n/a	-999	5	[9, 9, 5]	23.0	catFR1	0	R1207J
868.91	0.018	1745820	STOP	n/a	n/a	n/a	n/a	-999	5	[-999, -999, -999]	n/a	catFR1	0	R1207J
868.928	0.534	1745838	DISTRACT_END	n/a	n/a	n/a	n/a	-999	5	[0, 0, 0]	n/a	catFR1	0	R1207J
869.462	0.517	1746372	RETRIEVAL_ORIENT	n/a	n/a	n/a	n/a	-999	5	[0, 0, 0]	n/a	catFR1	0	R1207J
869.979	1.644	1746889	REC_START	n/a	n/a	n/a	n/a	-999	5	[0, 0, 0]	n/a	catFR1	0	R1207J
871.623	6.752	1748533	REC_WORD	1.644	n/a	VIOLET	Flowers	11	5	[0, 0, 0]	n/a	catFR1	0	R1207J
878.375	2.41	1755285	REC_WORD	8.396	n/a	LAMB	FarmAnimals	10	5	[0, 0, 0]	n/a	catFR1	0	R1207J
880.785	19.202	1757695	REC_WORD	10.806	n/a	PIGEON	Birds	8	5	[0, 0, 0]	n/a	catFR1	0	R1207J
899.987	8.013	1776897	REC_END	n/a	n/a	n/a	n/a	-999	5	[0, 0, 0]	n/a	catFR1	0	R1207J
908.0	0.5	1784910	TRIAL	n/a	n/a	n/a	n/a	-999	6	[0, 0, 0]	n/a	catFR1	0	R1207J
908.5	10.428	1785410	COUNTDOWN_START	n/a	n/a	n/a	n/a	-999	6	[0, 0, 0]	n/a	catFR1	0	R1207J
918.928	0.007	1795838	COUNTDOWN_END	n/a	n/a	n/a	n/a	-999	6	[0, 0, 0]	n/a	catFR1	0	R1207J
918.935	1.617	1795845	ORIENT	n/a	n/a	n/a	n/a	-999	6	[0, 0, 0]	n/a	catFR1	0	R1207J
920.552	1.816	1797462	ORIENT_OFF	n/a	n/a	n/a	n/a	-999	6	[0, 0, 0]	n/a	catFR1	0	R1207J
922.368	1.617	1799278	WORD	n/a	wordpools/wordpool_categorized_EN.txt	WIND	Weather	1	6	[0, 0, 0]	n/a	catFR1	0	R1207J
923.985	0.801	1800895	WORD_OFF	n/a	n/a	WIND	n/a	1	6	[0, 0, 0]	n/a	catFR1	0	R1207J
924.786	1.617	1801696	WORD	n/a	wordpools/wordpool_categorized_EN.txt	TORNADO	Weather	2	6	[0, 0, 0]	n/a	catFR1	0	R1207J
926.403	0.816	1803313	WORD_OFF	n/a	n/a	TORNADO	n/a	2	6	[0, 0, 0]	n/a	catFR1	0	R1207J
927.219	1.617	1804129	WORD	n/a	wordpools/wordpool_categorized_EN.txt	MONKEY	Zoo	3	6	[0, 0, 0]	n/a	catFR1	0	R1207J
928.836	0.9	1805746	WORD_OFF	n/a	n/a	MONKEY	n/a	3	6	[0, 0, 0]	n/a	catFR1	0	R1207J
929.736	1.616	1806646	WORD	n/a	wordpools/wordpool_categorized_EN.txt	LION	Zoo	4	6	[0, 0, 0]	n/a	catFR1	0	R1207J
931.352	0.834	1808262	WORD_OFF	n/a	n/a	LION	n/a	4	6	[0, 0, 0]	n/a	catFR1	0	R1207J
932.186	1.617	1809096	WORD	n/a	wordpools/wordpool_categorized_EN.txt	HAWK	Birds	5	6	[0, 0, 0]	n/a	catFR1	0	R1207J
933.803	0.917	1810713	WORD_OFF	n/a	n/a	HAWK	n/a	5	6	[0, 0, 0]	n/a	catFR1	0	R1207J
934.72	1.616	1811630	WORD	n/a	wordpools/wordpool_categorized_EN.txt	CROW	Birds	6	6	[0, 0, 0]	n/a	catFR1	0	R1207J
936.336	0.884	1813246	WORD_OFF	n/a	n/a	CROW	n/a	6	6	[0, 0, 0]	n/a	catFR1	0	R1207J
937.22	1.617	1814130	WORD	n/a	wordpools/wordpool_categorized_EN.txt	DRIZZLE	Weather	7	6	[0, 0, 0]	n/a	catFR1	0	R1207J
938.837	0.834	1815747	WORD_OFF	n/a	n/a	DRIZZLE	n/a	7	6	[0, 0, 0]	n/a	catFR1	0	R1207J
939.671	1.616	1816581	WORD	n/a	wordpools/wordpool_categorized_EN.txt	THUNDER	Weather	8	6	[0, 0, 0]	n/a	catFR1	0	R1207J
941.287	1.0	1818197	WORD_OFF	n/a	n/a	THUNDER	n/a	8	6	[0, 0, 0]	n/a	catFR1	0	R1207J
942.287	1.618	1819197	WORD	n/a	wordpools/wordpool_categorized_EN.txt	GIRAFFE	Zoo	9	6	[0, 0, 0]	n/a	catFR1	0	R1207J
943.905	0.867	1820815	WORD_OFF	n/a	n/a	GIRAFFE	n/a	9	6	[0, 0, 0]	n/a	catFR1	0	R1207J
944.772	1.616	1821682	WORD	n/a	wordpools/wordpool_categorized_EN.txt	CHEETAH	Zoo	10	6	[0, 0, 0]	n/a	catFR1	0	R1207J
946.388	0.866	1823298	WORD_OFF	n/a	n/a	CHEETAH	n/a	10	6	[0, 0, 0]	n/a	catFR1	0	R1207J
947.254	1.618	1824164	WORD	n/a	wordpools/wordpool_categorized_EN.txt	BLUEBIRD	Birds	11	6	[0, 0, 0]	n/a	catFR1	0	R1207J
948.872	0.867	1825782	WORD_OFF	n/a	n/a	BLUEBIRD	n/a	11	6	[0, 0, 0]	n/a	catFR1	0	R1207J
949.739	1.616	1826649	WORD	n/a	wordpools/wordpool_categorized_EN.txt	GOOSE	Birds	12	6	[0, 0, 0]	n/a	catFR1	0	R1207J
951.355	0.001	1828265	WORD_OFF	n/a	n/a	GOOSE	n/a	12	6	[0, 0, 0]	n/a	catFR1	0	R1207J
951.356	0.132	1828266	ENCODING_END	n/a	n/a	n/a	n/a	-999	6	[0, 0, 0]	n/a	catFR1	0	R1207J
951.488	0.0	1828398	DISTRACT_START	n/a	n/a	n/a	n/a	-999	6	[0, 0, 0]	n/a	catFR1	0	R1207J
951.488	0.018	1828398	START	n/a	n/a	n/a	n/a	-999	6	[-999, -999, -999]	n/a	catFR1	0	R1207J
951.506	4.417	1828416	PROB	4.385	n/a	n/a	n/a	-999	6	[7, 1, 1]	9.0	catFR1	0	R1207J
955.923	7.251	1832833	PROB	7.223	n/a	n/a	n/a	-999	6	[3, 2, 4]	9.0	catFR1	0	R1207J
963.174	6.25	1840084	PROB	6.22	n/a	n/a	n/a	-999	6	[9, 8, 9]	26.0	catFR1	0	R1207J
969.424	9.514	1846334	PROB	9.514	n/a	n/a	n/a	-999	6	[9, 8, 9]	26.0	catFR1	0	R1207J
978.938	0.021	1855848	STOP	n/a	n/a	n/a	n/a	-999	6	[-999, -999, -999]	n/a	catFR1	0	R1207J
978.959	0.517	1855869	DISTRACT_END	n/a	n/a	n/a	n/a	-999	6	[0, 0, 0]	n/a	catFR1	0	R1207J
979.476	0.517	1856386	RETRIEVAL_ORIENT	n/a	n/a	n/a	n/a	-999	6	[0, 0, 0]	n/a	catFR1	0	R1207J
979.993	3.119	1856903	REC_START	n/a	n/a	n/a	n/a	-999	6	[0, 0, 0]	n/a	catFR1	0	R1207J
983.112	3.301	1860022	REC_WORD	3.119	n/a	GIRAFFE	Zoo	9	6	[0, 0, 0]	n/a	catFR1	0	R1207J
986.413	8.711	1863323	REC_WORD	6.42	n/a	DRIZZLE	Weather	7	6	[0, 0, 0]	n/a	catFR1	0	R1207J
995.124	5.083	1872034	REC_WORD	15.131	n/a	THUNDER	Weather	8	6	[0, 0, 0]	n/a	catFR1	0	R1207J
1000.207	9.797	1877117	REC_WORD	20.214	n/a	CHEETAH	Zoo	10	6	[0, 0, 0]	n/a	catFR1	0	R1207J
1010.004	5.077	1886915	REC_END	n/a	n/a	n/a	n/a	-999	6	[0, 0, 0]	n/a	catFR1	0	R1207J
1015.081	0.5	1891992	TRIAL	n/a	n/a	n/a	n/a	-999	7	[0, 0, 0]	n/a	catFR1	0	R1207J
1015.581	10.428	1892492	COUNTDOWN_START	n/a	n/a	n/a	n/a	-999	7	[0, 0, 0]	n/a	catFR1	0	R1207J
1026.009	0.006	1902920	COUNTDOWN_END	n/a	n/a	n/a	n/a	-999	7	[0, 0, 0]	n/a	catFR1	0	R1207J
1026.015	1.617	1902926	ORIENT	n/a	n/a	n/a	n/a	-999	7	[0, 0, 0]	n/a	catFR1	0	R1207J
1027.632	2.134	1904543	ORIENT_OFF	n/a	n/a	n/a	n/a	-999	7	[0, 0, 0]	n/a	catFR1	0	R1207J
1029.766	1.616	1906677	WORD	n/a	wordpools/wordpool_categorized_EN.txt	JACKET	Clothing	1	7	[0, 0, 0]	n/a	catFR1	0	R1207J
1031.382	0.851	1908293	WORD_OFF	n/a	n/a	JACKET	n/a	1	7	[0, 0, 0]	n/a	catFR1	0	R1207J
1032.233	1.617	1909144	WORD	n/a	wordpools/wordpool_categorized_EN.txt	SKIRT	Clothing	2	7	[0, 0, 0]	n/a	catFR1	0	R1207J
1033.85	1.0	1910761	WORD_OFF	n/a	n/a	SKIRT	n/a	2	7	[0, 0, 0]	n/a	catFR1	0	R1207J
1034.85	1.616	1911761	WORD	n/a	wordpools/wordpool_categorized_EN.txt	WRENCH	Tools	3	7	[0, 0, 0]	n/a	catFR1	0	R1207J
1036.466	0.917	1913377	WORD_OFF	n/a	n/a	WRENCH	n/a	3	7	[0, 0, 0]	n/a	catFR1	0	R1207J
1037.383	1.617	1914294	WORD	n/a	wordpools/wordpool_categorized_EN.txt	HAMMER	Tools	4	7	[0, 0, 0]	n/a	catFR1	0	R1207J
1039.0	0.9	1915911	WORD_OFF	n/a	n/a	HAMMER	n/a	4	7	[0, 0, 0]	n/a	catFR1	0	R1207J
1039.9	1.617	1916811	WORD	n/a	wordpools/wordpool_categorized_EN.txt	CALF	FarmAnimals	5	7	[0, 0, 0]	n/a	catFR1	0	R1207J
1041.517	1.0	1918428	WORD_OFF	n/a	n/a	CALF	n/a	5	7	[0, 0, 0]	n/a	catFR1	0	R1207J
1042.517	1.617	1919428	WORD	n/a	wordpools/wordpool_categorized_EN.txt	GOAT	FarmAnimals	6	7	[0, 0, 0]	n/a	catFR1	0	R1207J
1044.134	0.917	1921045	WORD_OFF	n/a	n/a	GOAT	n/a	6	7	[0, 0, 0]	n/a	catFR1	0	R1207J
1045.051	1.617	1921962	WORD	n/a	wordpools/wordpool_categorized_EN.txt	SANDER	Tools	7	7	[0, 0, 0]	n/a	catFR1	0	R1207J
1046.668	0.8	1923579	WORD_OFF	n/a	n/a	SANDER	n/a	7	7	[0, 0, 0]	n/a	catFR1	0	R1207J
1047.468	1.617	1924379	WORD	n/a	wordpools/wordpool_categorized_EN.txt	SAW	Tools	8	7	[0, 0, 0]	n/a	catFR1	0	R1207J
1049.085	0.883	1925996	WORD_OFF	n/a	n/a	SAW	n/a	8	7	[0, 0, 0]	n/a	catFR1	0	R1207J
1049.968	1.617	1926879	WORD	n/a	wordpools/wordpool_categorized_EN.txt	SHORTS	Clothing	9	7	[0, 0, 0]	n/a	catFR1	0	R1207J
1051.585	0.917	1928496	WORD_OFF	n/a	n/a	SHORTS	n/a	9	7	[0, 0, 0]	n/a	catFR1	0	R1207J
1052.502	1.617	1929413	WORD	n/a	wordpools/wordpool_categorized_EN.txt	JEANS	Clothing	10	7	[0, 0, 0]	n/a	catFR1	0	R1207J
1054.119	0.95	1931030	WORD_OFF	n/a	n/a	JEANS	n/a	10	7	[0, 0, 0]	n/a	catFR1	0	R1207J
1055.069	1.617	1931980	WORD	n/a	wordpools/wordpool_categorized_EN.txt	HORSE	FarmAnimals	11	7	[0, 0, 0]	n/a	catFR1	0	R1207J
1056.686	0.883	1933597	WORD_OFF	n/a	n/a	HORSE	n/a	11	7	[0, 0, 0]	n/a	catFR1	0	R1207J
1057.569	1.617	1934480	WORD	n/a	wordpools/wordpool_categorized_EN.txt	CHICKEN	FarmAnimals	12	7	[0, 0, 0]	n/a	catFR1	0	R1207J
1059.186	0.0	1936097	WORD_OFF	n/a	n/a	CHICKEN	n/a	12	7	[0, 0, 0]	n/a	catFR1	0	R1207J
1059.186	0.099	1936097	ENCODING_END	n/a	n/a	n/a	n/a	-999	7	[0, 0, 0]	n/a	catFR1	0	R1207J
1059.285	0.0	1936196	DISTRACT_START	n/a	n/a	n/a	n/a	-999	7	[0, 0, 0]	n/a	catFR1	0	R1207J
1059.285	0.017	1936196	START	n/a	n/a	n/a	n/a	-999	7	[-999, -999, -999]	n/a	catFR1	0	R1207J
1059.302	16.386	1936213	PROB	16.352	n/a	n/a	n/a	-999	7	[7, 6, 8]	22.0	catFR1	0	R1207J
1075.688	23.389	1952599	PROB	23.389	n/a	n/a	n/a	-999	7	[3, 4, 8]	15.0	catFR1	0	R1207J
1099.077	0.014	1975988	STOP	n/a	n/a	n/a	n/a	-999	7	[-999, -999, -999]	n/a	catFR1	0	R1207J
1099.091	0.65	1976002	DISTRACT_END	n/a	n/a	n/a	n/a	-999	7	[0, 0, 0]	n/a	catFR1	0	R1207J
1099.741	0.517	1976652	RETRIEVAL_ORIENT	n/a	n/a	n/a	n/a	-999	7	[0, 0, 0]	n/a	catFR1	0	R1207J
1100.258	2.224	1977169	REC_START	n/a	n/a	n/a	n/a	-999	7	[0, 0, 0]	n/a	catFR1	0	R1207J
1102.482	2.813	1979393	REC_WORD	2.224	n/a	JACKET	Clothing	1	7	[0, 0, 0]	n/a	catFR1	0	R1207J
1105.295	1.887	1982206	REC_WORD	5.037	n/a	SKIRT	Clothing	2	7	[0, 0, 0]	n/a	catFR1	0	R1207J
1107.182	2.107	1984093	REC_WORD	6.924	n/a	JEANS	Clothing	10	7	[0, 0, 0]	n/a	catFR1	0	R1207J
1109.289	20.98	1986200	REC_WORD	9.031	n/a	SHORTS	Clothing	9	7	[0, 0, 0]	n/a	catFR1	0	R1207J
1130.269	28.53	2007180	REC_END	n/a	n/a	n/a	n/a	-999	7	[0, 0, 0]	n/a	catFR1	0	R1207J
1158.799	0.5	2035710	TRIAL	n/a	n/a	n/a	n/a	-999	8	[0, 0, 0]	n/a	catFR1	0	R1207J
1159.299	10.428	2036210	COUNTDOWN_START	n/a	n/a	n/a	n/a	-999	8	[0, 0, 0]	n/a	catFR1	0	R1207J
1169.727	0.006	2046638	COUNTDOWN_END	n/a	n/a	n/a	n/a	-999	8	[0, 0, 0]	n/a	catFR1	0	R1207J
1169.733	1.616	2046644	ORIENT	n/a	n/a	n/a	n/a	-999	8	[0, 0, 0]	n/a	catFR1	0	R1207J
1171.349	2.052	2048260	ORIENT_OFF	n/a	n/a	n/a	n/a	-999	8	[0, 0, 0]	n/a	catFR1	0	R1207J
1173.401	1.617	2050312	WORD	n/a	wordpools/wordpool_categorized_EN.txt	LIGHTNING	Weather	1	8	[0, 0, 0]	n/a	catFR1	0	R1207J
1175.018	0.917	2051929	WORD_OFF	n/a	n/a	LIGHTNING	n/a	1	8	[0, 0, 0]	n/a	catFR1	0	R1207J
1175.935	1.616	2052846	WORD	n/a	wordpools/wordpool_categorized_EN.txt	HUMIDITY	Weather	2	8	[0, 0, 0]	n/a	catFR1	0	R1207J
1177.551	0.95	2054462	WORD_OFF	n/a	n/a	HUMIDITY	n/a	2	8	[0, 0, 0]	n/a	catFR1	0	R1207J
1178.501	1.617	2055412	WORD	n/a	wordpools/wordpool_categorized_EN.txt	REFRIGERATOR	Appliances	3	8	[0, 0, 0]	n/a	catFR1	0	R1207J
1180.118	1.0	2057029	WORD_OFF	n/a	n/a	REFRIGERATOR	n/a	3	8	[0, 0, 0]	n/a	catFR1	0	R1207J
1181.118	1.617	2058029	WORD	n/a	wordpools/wordpool_categorized_EN.txt	WASHER	Appliances	4	8	[0, 0, 0]	n/a	catFR1	0	R1207J
1182.735	0.984	2059646	WORD_OFF	n/a	n/a	WASHER	n/a	4	8	[0, 0, 0]	n/a	catFR1	0	R1207J
1183.719	1.616	2060630	WORD	n/a	wordpools/wordpool_categorized_EN.txt	SPRUCE	Trees	5	8	[0, 0, 0]	n/a	catFR1	0	R1207J
1185.335	0.95	2062246	WORD_OFF	n/a	n/a	SPRUCE	n/a	5	8	[0, 0, 0]	n/a	catFR1	0	R1207J
1186.285	1.617	2063196	WORD	n/a	wordpools/wordpool_categorized_EN.txt	OAK	Trees	6	8	[0, 0, 0]	n/a	catFR1	0	R1207J
1187.902	0.917	2064813	WORD_OFF	n/a	n/a	OAK	n/a	6	8	[0, 0, 0]	n/a	catFR1	0	R1207J
1188.819	1.617	2065730	WORD	n/a	wordpools/wordpool_categorized_EN.txt	THUNDERSTORM	Weather	7	8	[0, 0, 0]	n/a	catFR1	0	R1207J
1190.436	0.816	2067347	WORD_OFF	n/a	n/a	THUNDERSTORM	n/a	7	8	[0, 0, 0]	n/a	catFR1	0	R1207J
1191.252	1.601	2068163	WORD	n/a	wordpools/wordpool_categorized_EN.txt	FOG	Weather	8	8	[0, 0, 0]	n/a	catFR1	0	R1207J
1192.853	0.951	2069764	WORD_OFF	n/a	n/a	FOG	n/a	8	8	[0, 0, 0]	n/a	catFR1	0	R1207J
1193.804	1.616	2070715	WORD	n/a	wordpools/wordpool_categorized_EN.txt	IRON	Appliances	9	8	[0, 0, 0]	n/a	catFR1	0	R1207J
1195.42	0.866	2072331	WORD_OFF	n/a	n/a	IRON	n/a	9	8	[0, 0, 0]	n/a	catFR1	0	R1207J
1196.286	1.618	2073197	WORD	n/a	wordpools/wordpool_categorized_EN.txt	OVEN	Appliances	10	8	[0, 0, 0]	n/a	catFR1	0	R1207J
1197.904	0.85	2074815	WORD_OFF	n/a	n/a	OVEN	n/a	10	8	[0, 0, 0]	n/a	catFR1	0	R1207J
1198.754	1.617	2075665	WORD	n/a	wordpools/wordpool_categorized_EN.txt	BIRCH	Trees	11	8	[0, 0, 0]	n/a	catFR1	0	R1207J
1200.371	0.882	2077282	WORD_OFF	n/a	n/a	BIRCH	n/a	11	8	[0, 0, 0]	n/a	catFR1	0	R1207J
1201.253	1.618	2078164	WORD	n/a	wordpools/wordpool_categorized_EN.txt	WILLOW	Trees	12	8	[0, 0, 0]	n/a	catFR1	0	R1207J
1202.871	0.001	2079782	WORD_OFF	n/a	n/a	WILLOW	n/a	12	8	[0, 0, 0]	n/a	catFR1	0	R1207J
1202.872	0.102	2079783	ENCODING_END	n/a	n/a	n/a	n/a	-999	8	[0, 0, 0]	n/a	catFR1	0	R1207J
1202.974	0.0	2079885	DISTRACT_START	n/a	n/a	n/a	n/a	-999	8	[0, 0, 0]	n/a	catFR1	0	R1207J
1202.974	0.014	2079885	START	n/a	n/a	n/a	n/a	-999	8	[-999, -999, -999]	n/a	catFR1	0	R1207J
1202.988	6.35	2079899	PROB	6.323	n/a	n/a	n/a	-999	8	[9, 7, 1]	17.0	catFR1	0	R1207J
1209.338	4.185	2086249	PROB	4.151	n/a	n/a	n/a	-999	8	[3, 7, 1]	11.0	catFR1	0	R1207J
1213.523	7.401	2090434	PROB	7.372	n/a	n/a	n/a	-999	8	[3, 4, 5]	12.0	catFR1	0	R1207J
1220.924	4.531	2097835	PROB	4.531	n/a	n/a	n/a	-999	8	[6, 9, 1]	16.0	catFR1	0	R1207J
1225.455	0.019	2102366	STOP	n/a	n/a	n/a	n/a	-999	8	[-999, -999, -999]	n/a	catFR1	0	R1207J
1225.474	0.65	2102385	DISTRACT_END	n/a	n/a	n/a	n/a	-999	8	[0, 0, 0]	n/a	catFR1	0	R1207J
1226.124	0.519	2103035	RETRIEVAL_ORIENT	n/a	n/a	n/a	n/a	-999	8	[0, 0, 0]	n/a	catFR1	0	R1207J
1226.643	3.721	2103554	REC_START	n/a	n/a	n/a	n/a	-999	8	[0, 0, 0]	n/a	catFR1	0	R1207J
1230.364	1.092	2107275	REC_WORD	3.721	n/a	THUNDER	n/a	-999	8	[0, 0, 0]	n/a	catFR1	0	R1207J
1231.456	4.701	2108367	REC_WORD	4.813	n/a	HUMIDITY	Weather	2	8	[0, 0, 0]	n/a	catFR1	0	R1207J
1236.157	6.655	2113068	REC_WORD	9.514	n/a	IRON	Appliances	9	8	[0, 0, 0]	n/a	catFR1	0	R1207J
1242.812	6.613	2119723	REC_WORD	16.169	n/a	STORM	n/a	-999	8	[0, 0, 0]	n/a	catFR1	0	R1207J
1249.425	1.0	2126336	REC_WORD_VV	22.782	n/a	<>	n/a	-999	8	[0, 0, 0]	n/a	catFR1	0	R1207J
1250.425	1.0	2127336	REC_WORD_VV	23.782	n/a	<>	n/a	-999	8	[0, 0, 0]	n/a	catFR1	0	R1207J
1251.425	1.0	2128336	REC_WORD_VV	24.782	n/a	<>	n/a	-999	8	[0, 0, 0]	n/a	catFR1	0	R1207J
1252.425	1.0	2129336	REC_WORD_VV	25.782	n/a	<>	n/a	-999	8	[0, 0, 0]	n/a	catFR1	0	R1207J
1253.425	1.0	2130336	REC_WORD_VV	26.782	n/a	<>	n/a	-999	8	[0, 0, 0]	n/a	catFR1	0	R1207J
1254.425	1.0	2131336	REC_WORD_VV	27.782	n/a	<>	n/a	-999	8	[0, 0, 0]	n/a	catFR1	0	R1207J
1255.425	1.0	2132336	REC_WORD_VV	28.782	n/a	<>	n/a	-999	8	[0, 0, 0]	n/a	catFR1	0	R1207J
1256.425	0.225	2133336	REC_WORD_VV	29.782	n/a	<>	n/a	-999	8	[0, 0, 0]	n/a	catFR1	0	R1207J
1256.65	0.0	2133561	REC_END	n/a	n/a	n/a	n/a	-999	8	[0, 0, 0]	n/a	catFR1	0	R1207J
