onset	duration	sample	trial_type	response_time	stim_file	item_name	category	serialpos	list	test	answer	experiment	session	subject
0.0	41.853	118	INSTRUCT_START	n/a	n/a	n/a	n/a	-999	-999	[0, 0, 0]	n/a	catFR1	2	R1372C
41.853	3.935	41969	INSTRUCT_END	n/a	n/a	n/a	n/a	-999	-999	[0, 0, 0]	n/a	catFR1	2	R1372C
45.788	36.633	45903	MIC TEST_START	n/a	n/a	n/a	n/a	-999	-999	[0, 0, 0]	n/a	catFR1	2	R1372C
82.421	0.012	82535	MIC TEST_END	n/a	n/a	n/a	n/a	-999	-999	[0, 0, 0]	n/a	catFR1	2	R1372C
82.433	0.0	82547	TRIAL_START	n/a	n/a	n/a	n/a	-999	-1	[0, 0, 0]	n/a	catFR1	2	R1372C
82.433	0.001	82547	TRIAL	n/a	n/a	n/a	n/a	-999	-1	[0, 0, 0]	n/a	catFR1	2	R1372C
82.434	6.045	82548	WAITING_START	n/a	n/a	n/a	n/a	-999	-1	[0, 0, 0]	n/a	catFR1	2	R1372C
88.479	0.001	88592	WAITING_END	n/a	n/a	n/a	n/a	-999	-1	[0, 0, 0]	n/a	catFR1	2	R1372C
88.48	10.429	88593	COUNTDOWN_START	n/a	n/a	n/a	n/a	-999	-1	[0, 0, 0]	n/a	catFR1	2	R1372C
98.909	0.001	99022	COUNTDOWN_END	n/a	n/a	n/a	n/a	-999	-1	[0, 0, 0]	n/a	catFR1	2	R1372C
98.91	1.053	99023	ORIENT_START	n/a	n/a	n/a	n/a	-999	-1	[0, 0, 0]	n/a	catFR1	2	R1372C
99.963	0.001	100076	ORIENT_END	n/a	n/a	n/a	n/a	-999	-1	[0, 0, 0]	n/a	catFR1	2	R1372C
99.964	0.85	100077	ENCODING_START	n/a	n/a	n/a	n/a	-999	-1	[0, 0, 0]	n/a	catFR1	2	R1372C
100.814	1.634	100927	WORD	n/a	n/a	SILK	n/a	1	-1	[0, 0, 0]	n/a	catFR1	2	R1372C
102.448	1.08	102561	WORD_OFF	n/a	n/a	SILK	n/a	1	-1	[0, 0, 0]	n/a	catFR1	2	R1372C
103.528	1.637	103640	WORD	n/a	n/a	DENIM	n/a	2	-1	[0, 0, 0]	n/a	catFR1	2	R1372C
105.165	1.096	105277	WORD_OFF	n/a	n/a	DENIM	n/a	2	-1	[0, 0, 0]	n/a	catFR1	2	R1372C
106.261	1.638	106373	WORD	n/a	n/a	DAY	n/a	3	-1	[0, 0, 0]	n/a	catFR1	2	R1372C
107.899	0.8	108011	WORD_OFF	n/a	n/a	DAY	n/a	3	-1	[0, 0, 0]	n/a	catFR1	2	R1372C
108.699	1.634	108811	WORD	n/a	n/a	TEACHER	n/a	4	-1	[0, 0, 0]	n/a	catFR1	2	R1372C
110.333	0.987	110445	WORD_OFF	n/a	n/a	TEACHER	n/a	4	-1	[0, 0, 0]	n/a	catFR1	2	R1372C
111.32	1.63	111432	WORD	n/a	n/a	PLUMBER	n/a	5	-1	[0, 0, 0]	n/a	catFR1	2	R1372C
112.95	1.137	113062	WORD_OFF	n/a	n/a	PLUMBER	n/a	5	-1	[0, 0, 0]	n/a	catFR1	2	R1372C
114.087	1.63	114199	WORD	n/a	n/a	MINUTE	n/a	6	-1	[0, 0, 0]	n/a	catFR1	2	R1372C
115.717	0.872	115829	WORD_OFF	n/a	n/a	MINUTE	n/a	6	-1	[0, 0, 0]	n/a	catFR1	2	R1372C
116.589	1.629	116701	WORD	n/a	n/a	HOUR	n/a	7	-1	[0, 0, 0]	n/a	catFR1	2	R1372C
118.218	0.994	118330	WORD_OFF	n/a	n/a	HOUR	n/a	7	-1	[0, 0, 0]	n/a	catFR1	2	R1372C
119.212	1.623	119324	WORD	n/a	n/a	SECOND	n/a	8	-1	[0, 0, 0]	n/a	catFR1	2	R1372C
120.835	0.97	120947	WORD_OFF	n/a	n/a	SECOND	n/a	8	-1	[0, 0, 0]	n/a	catFR1	2	R1372C
121.805	1.63	121916	WORD	n/a	n/a	LEATHER	n/a	9	-1	[0, 0, 0]	n/a	catFR1	2	R1372C
123.435	0.927	123546	WORD_OFF	n/a	n/a	LEATHER	n/a	9	-1	[0, 0, 0]	n/a	catFR1	2	R1372C
124.362	1.623	124473	WORD	n/a	n/a	FIREMAN	n/a	10	-1	[0, 0, 0]	n/a	catFR1	2	R1372C
125.985	0.977	126096	WORD_OFF	n/a	n/a	FIREMAN	n/a	10	-1	[0, 0, 0]	n/a	catFR1	2	R1372C
126.962	1.607	127073	WORD	n/a	n/a	FARMER	n/a	11	-1	[0, 0, 0]	n/a	catFR1	2	R1372C
128.569	0.76	128680	WORD_OFF	n/a	n/a	FARMER	n/a	11	-1	[0, 0, 0]	n/a	catFR1	2	R1372C
129.329	1.624	129440	WORD	n/a	n/a	WOOL	n/a	12	-1	[0, 0, 0]	n/a	catFR1	2	R1372C
130.953	0.001	131064	WORD_OFF	n/a	n/a	WOOL	n/a	12	-1	[0, 0, 0]	n/a	catFR1	2	R1372C
130.954	0.0	131065	ENCODING_END	n/a	n/a	n/a	n/a	-999	-1	[0, 0, 0]	n/a	catFR1	2	R1372C
130.954	0.001	131065	DISTRACT_START	n/a	n/a	n/a	n/a	-999	-1	[0, 0, 0]	n/a	catFR1	2	R1372C
130.955	0.014	131066	START	n/a	n/a	n/a	n/a	-999	-1	[-999, -999, -999]	n/a	catFR1	2	R1372C
130.969	7.869	131080	PROB	7.869	n/a	n/a	n/a	-999	-1	[9, 6, 9]	15	catFR1	2	R1372C
138.838	12.812	138949	PROB	12.812	n/a	n/a	n/a	-999	-1	[1, 8, 3]	12	catFR1	2	R1372C
151.65	0.007	151760	STOP	n/a	n/a	n/a	n/a	-999	-1	[-999, -999, -999]	n/a	catFR1	2	R1372C
151.657	0.505	151767	DISTRACT_END	n/a	n/a	n/a	n/a	-999	-1	[0, 0, 0]	n/a	catFR1	2	R1372C
152.162	1.679	152272	RETRIEVAL_ORIENT_START	n/a	n/a	n/a	n/a	-999	-1	[0, 0, 0]	n/a	catFR1	2	R1372C
153.841	0.0	153951	RETRIEVAL_ORIENT_END	n/a	n/a	n/a	n/a	-999	-1	[0, 0, 0]	n/a	catFR1	2	R1372C
153.841	30.012	153951	REC_START	n/a	n/a	n/a	n/a	-999	-1	[0, 0, 0]	n/a	catFR1	2	R1372C
183.853	0.001	183961	REC_END	n/a	n/a	n/a	n/a	-999	-1	[0, 0, 0]	n/a	catFR1	2	R1372C
183.854	24.531	183962	PRACTICE_POST_INSTRUCT_START	n/a	n/a	n/a	n/a	-999	-1	[0, 0, 0]	n/a	catFR1	2	R1372C
208.385	0.001	208492	PRACTICE_POST_INSTRUCT_END	n/a	n/a	n/a	n/a	-999	-1	[0, 0, 0]	n/a	catFR1	2	R1372C
208.386	0.026	208493	TRIAL_END	n/a	n/a	n/a	n/a	-999	-1	[0, 0, 0]	n/a	catFR1	2	R1372C
208.412	0.0	208519	TRIAL_START	n/a	n/a	n/a	n/a	-999	1	[0, 0, 0]	n/a	catFR1	2	R1372C
208.412	0.001	208519	TRIAL	n/a	n/a	n/a	n/a	-999	1	[0, 0, 0]	n/a	catFR1	2	R1372C
208.413	1.889	208520	WAITING_START	n/a	n/a	n/a	n/a	-999	1	[0, 0, 0]	n/a	catFR1	2	R1372C
210.302	0.0	210409	WAITING_END	n/a	n/a	n/a	n/a	-999	1	[0, 0, 0]	n/a	catFR1	2	R1372C
210.302	10.431	210409	COUNTDOWN_START	n/a	n/a	n/a	n/a	-999	1	[0, 0, 0]	n/a	catFR1	2	R1372C
220.733	0.0	220839	COUNTDOWN_END	n/a	n/a	n/a	n/a	-999	1	[0, 0, 0]	n/a	catFR1	2	R1372C
220.733	1.138	220839	ORIENT_START	n/a	n/a	n/a	n/a	-999	1	[0, 0, 0]	n/a	catFR1	2	R1372C
221.871	0.0	221977	ORIENT_END	n/a	n/a	n/a	n/a	-999	1	[0, 0, 0]	n/a	catFR1	2	R1372C
221.871	0.84	221977	ENCODING_START	n/a	n/a	n/a	n/a	-999	1	[0, 0, 0]	n/a	catFR1	2	R1372C
222.711	1.627	222817	WORD	n/a	wordpools/wordpool_categorized_EN.txt	MIXER	Appliances	1	1	[0, 0, 0]	n/a	catFR1	2	R1372C
224.338	0.769	224444	WORD_OFF	n/a	n/a	MIXER	Appliances	1	1	[0, 0, 0]	n/a	catFR1	2	R1372C
225.107	1.631	225213	WORD	n/a	wordpools/wordpool_categorized_EN.txt	BLENDER	Appliances	2	1	[0, 0, 0]	n/a	catFR1	2	R1372C
226.738	1.12	226844	WORD_OFF	n/a	n/a	BLENDER	Appliances	2	1	[0, 0, 0]	n/a	catFR1	2	R1372C
227.858	1.63	227964	WORD	n/a	wordpools/wordpool_categorized_EN.txt	ISLAND	Landscapes	3	1	[0, 0, 0]	n/a	catFR1	2	R1372C
229.488	0.851	229594	WORD_OFF	n/a	n/a	ISLAND	Landscapes	3	1	[0, 0, 0]	n/a	catFR1	2	R1372C
230.339	1.632	230445	WORD	n/a	wordpools/wordpool_categorized_EN.txt	RIVER	Landscapes	4	1	[0, 0, 0]	n/a	catFR1	2	R1372C
231.971	0.985	232077	WORD_OFF	n/a	n/a	RIVER	Landscapes	4	1	[0, 0, 0]	n/a	catFR1	2	R1372C
232.956	1.616	233062	WORD	n/a	wordpools/wordpool_categorized_EN.txt	HICKORY	Trees	5	1	[0, 0, 0]	n/a	catFR1	2	R1372C
234.572	0.808	234678	WORD_OFF	n/a	n/a	HICKORY	Trees	5	1	[0, 0, 0]	n/a	catFR1	2	R1372C
235.38	1.626	235486	WORD	n/a	wordpools/wordpool_categorized_EN.txt	EVERGREEN	Trees	6	1	[0, 0, 0]	n/a	catFR1	2	R1372C
237.006	0.922	237111	WORD_OFF	n/a	n/a	EVERGREEN	Trees	6	1	[0, 0, 0]	n/a	catFR1	2	R1372C
237.928	1.629	238033	WORD	n/a	wordpools/wordpool_categorized_EN.txt	REFRIGERATOR	Appliances	7	1	[0, 0, 0]	n/a	catFR1	2	R1372C
239.557	0.97	239662	WORD_OFF	n/a	n/a	REFRIGERATOR	Appliances	7	1	[0, 0, 0]	n/a	catFR1	2	R1372C
240.527	1.631	240632	WORD	n/a	wordpools/wordpool_categorized_EN.txt	WASHER	Appliances	8	1	[0, 0, 0]	n/a	catFR1	2	R1372C
242.158	1.037	242263	WORD_OFF	n/a	n/a	WASHER	Appliances	8	1	[0, 0, 0]	n/a	catFR1	2	R1372C
243.195	1.63	243300	WORD	n/a	wordpools/wordpool_categorized_EN.txt	OCEAN	Landscapes	9	1	[0, 0, 0]	n/a	catFR1	2	R1372C
244.825	0.822	244930	WORD_OFF	n/a	n/a	OCEAN	Landscapes	9	1	[0, 0, 0]	n/a	catFR1	2	R1372C
245.647	1.628	245752	WORD	n/a	wordpools/wordpool_categorized_EN.txt	STREAM	Landscapes	10	1	[0, 0, 0]	n/a	catFR1	2	R1372C
247.275	0.858	247380	WORD_OFF	n/a	n/a	STREAM	Landscapes	10	1	[0, 0, 0]	n/a	catFR1	2	R1372C
248.133	1.626	248238	WORD	n/a	wordpools/wordpool_categorized_EN.txt	CYPRESS	Trees	11	1	[0, 0, 0]	n/a	catFR1	2	R1372C
249.759	0.973	249864	WORD_OFF	n/a	n/a	CYPRESS	Trees	11	1	[0, 0, 0]	n/a	catFR1	2	R1372C
250.732	1.627	250837	WORD	n/a	wordpools/wordpool_categorized_EN.txt	MAPLE	Trees	12	1	[0, 0, 0]	n/a	catFR1	2	R1372C
252.359	0.001	252464	WORD_OFF	n/a	n/a	MAPLE	Trees	12	1	[0, 0, 0]	n/a	catFR1	2	R1372C
252.36	0.0	252465	ENCODING_END	n/a	n/a	n/a	n/a	-999	1	[0, 0, 0]	n/a	catFR1	2	R1372C
252.36	0.001	252465	DISTRACT_START	n/a	n/a	n/a	n/a	-999	1	[0, 0, 0]	n/a	catFR1	2	R1372C
252.361	0.015	252466	START	n/a	n/a	n/a	n/a	-999	1	[-999, -999, -999]	n/a	catFR1	2	R1372C
252.376	8.118	252481	PROB	8.118	n/a	n/a	n/a	-999	1	[2, 4, 5]	11	catFR1	2	R1372C
260.494	5.184	260598	PROB	5.184	n/a	n/a	n/a	-999	1	[7, 9, 3]	19	catFR1	2	R1372C
265.678	5.451	265782	PROB	5.451	n/a	n/a	n/a	-999	1	[5, 7, 4]	16	catFR1	2	R1372C
271.129	4.276	271233	PROB	4.276	n/a	n/a	n/a	-999	1	[3, 3, 6]	12	catFR1	2	R1372C
275.405	0.009	275508	STOP	n/a	n/a	n/a	n/a	-999	1	[-999, -999, -999]	n/a	catFR1	2	R1372C
275.414	0.59	275517	DISTRACT_END	n/a	n/a	n/a	n/a	-999	1	[0, 0, 0]	n/a	catFR1	2	R1372C
276.004	1.593	276107	RETRIEVAL_ORIENT_START	n/a	n/a	n/a	n/a	-999	1	[0, 0, 0]	n/a	catFR1	2	R1372C
277.597	0.001	277700	RETRIEVAL_ORIENT_END	n/a	n/a	n/a	n/a	-999	1	[0, 0, 0]	n/a	catFR1	2	R1372C
277.598	0.36	277701	REC_START	n/a	n/a	n/a	n/a	-999	1	[0, 0, 0]	n/a	catFR1	2	R1372C
277.958	1.215	278061	REC_WORD	1.215	n/a	MIXER	Appliances	1	1	[0, 0, 0]	n/a	catFR1	2	R1372C
279.173	3.846	279276	REC_WORD	3.846	n/a	BLENDER	Appliances	2	1	[0, 0, 0]	n/a	catFR1	2	R1372C
283.019	2.988	283122	REC_WORD	2.988	n/a	MAPLE	Trees	12	1	[0, 0, 0]	n/a	catFR1	2	R1372C
286.007	1.196	286110	REC_WORD	1.196	n/a	STREAM	Landscapes	10	1	[0, 0, 0]	n/a	catFR1	2	R1372C
287.203	20.407	287306	REC_WORD	20.407	n/a	OCEAN	Landscapes	9	1	[0, 0, 0]	n/a	catFR1	2	R1372C
307.61	0.0	307712	REC_END	n/a	n/a	n/a	n/a	-999	1	[0, 0, 0]	n/a	catFR1	2	R1372C
307.61	0.026	307712	TRIAL_END	n/a	n/a	n/a	n/a	-999	1	[0, 0, 0]	n/a	catFR1	2	R1372C
307.636	0.0	307738	TRIAL_START	n/a	n/a	n/a	n/a	-999	2	[0, 0, 0]	n/a	catFR1	2	R1372C
307.636	0.0	307738	TRIAL	n/a	n/a	n/a	n/a	-999	2	[0, 0, 0]	n/a	catFR1	2	R1372C
307.636	7.635	307738	WAITING_START	n/a	n/a	n/a	n/a	-999	2	[0, 0, 0]	n/a	catFR1	2	R1372C
315.271	0.0	315372	WAITING_END	n/a	n/a	n/a	n/a	-999	2	[0, 0, 0]	n/a	catFR1	2	R1372C
315.271	10.43	315372	COUNTDOWN_START	n/a	n/a	n/a	n/a	-999	2	[0, 0, 0]	n/a	catFR1	2	R1372C
325.701	0.001	325802	COUNTDOWN_END	n/a	n/a	n/a	n/a	-999	2	[0, 0, 0]	n/a	catFR1	2	R1372C
325.702	1.221	325803	ORIENT_START	n/a	n/a	n/a	n/a	-999	2	[0, 0, 0]	n/a	catFR1	2	R1372C
326.923	0.001	327024	ORIENT_END	n/a	n/a	n/a	n/a	-999	2	[0, 0, 0]	n/a	catFR1	2	R1372C
326.924	0.855	327025	ENCODING_START	n/a	n/a	n/a	n/a	-999	2	[0, 0, 0]	n/a	catFR1	2	R1372C
327.779	1.628	327880	WORD	n/a	wordpools/wordpool_categorized_EN.txt	MILK	Beverages	1	2	[0, 0, 0]	n/a	catFR1	2	R1372C
329.407	1.117	329508	WORD_OFF	n/a	n/a	MILK	Beverages	1	2	[0, 0, 0]	n/a	catFR1	2	R1372C
330.524	1.634	330625	WORD	n/a	wordpools/wordpool_categorized_EN.txt	CIDER	Beverages	2	2	[0, 0, 0]	n/a	catFR1	2	R1372C
332.158	1.082	332258	WORD_OFF	n/a	n/a	CIDER	Beverages	2	2	[0, 0, 0]	n/a	catFR1	2	R1372C
333.24	1.635	333340	WORD	n/a	wordpools/wordpool_categorized_EN.txt	APPLE	Fruit	3	2	[0, 0, 0]	n/a	catFR1	2	R1372C
334.875	0.925	334975	WORD_OFF	n/a	n/a	APPLE	Fruit	3	2	[0, 0, 0]	n/a	catFR1	2	R1372C
335.8	1.625	335900	WORD	n/a	wordpools/wordpool_categorized_EN.txt	BLUEBERRY	Fruit	4	2	[0, 0, 0]	n/a	catFR1	2	R1372C
337.425	0.764	337525	WORD_OFF	n/a	n/a	BLUEBERRY	Fruit	4	2	[0, 0, 0]	n/a	catFR1	2	R1372C
338.189	1.637	338289	WORD	n/a	wordpools/wordpool_categorized_EN.txt	CHEETAH	Zoo	5	2	[0, 0, 0]	n/a	catFR1	2	R1372C
339.826	0.804	339926	WORD_OFF	n/a	n/a	CHEETAH	Zoo	5	2	[0, 0, 0]	n/a	catFR1	2	R1372C
340.63	1.63	340730	WORD	n/a	wordpools/wordpool_categorized_EN.txt	PANDA	Zoo	6	2	[0, 0, 0]	n/a	catFR1	2	R1372C
342.26	0.797	342360	WORD_OFF	n/a	n/a	PANDA	Zoo	6	2	[0, 0, 0]	n/a	catFR1	2	R1372C
343.057	1.636	343157	WORD	n/a	wordpools/wordpool_categorized_EN.txt	PEAR	Fruit	7	2	[0, 0, 0]	n/a	catFR1	2	R1372C
344.693	0.919	344793	WORD_OFF	n/a	n/a	PEAR	Fruit	7	2	[0, 0, 0]	n/a	catFR1	2	R1372C
345.612	1.632	345712	WORD	n/a	wordpools/wordpool_categorized_EN.txt	CHERRY	Fruit	8	2	[0, 0, 0]	n/a	catFR1	2	R1372C
347.244	0.962	347344	WORD_OFF	n/a	n/a	CHERRY	Fruit	8	2	[0, 0, 0]	n/a	catFR1	2	R1372C
348.206	1.638	348306	WORD	n/a	wordpools/wordpool_categorized_EN.txt	BEER	Beverages	9	2	[0, 0, 0]	n/a	catFR1	2	R1372C
349.844	1.112	349944	WORD_OFF	n/a	n/a	BEER	Beverages	9	2	[0, 0, 0]	n/a	catFR1	2	R1372C
350.956	1.622	351055	WORD	n/a	wordpools/wordpool_categorized_EN.txt	JUICE	Beverages	10	2	[0, 0, 0]	n/a	catFR1	2	R1372C
352.578	0.788	352677	WORD_OFF	n/a	n/a	JUICE	Beverages	10	2	[0, 0, 0]	n/a	catFR1	2	R1372C
353.366	1.628	353465	WORD	n/a	wordpools/wordpool_categorized_EN.txt	GIRAFFE	Zoo	11	2	[0, 0, 0]	n/a	catFR1	2	R1372C
354.994	1.072	355093	WORD_OFF	n/a	n/a	GIRAFFE	Zoo	11	2	[0, 0, 0]	n/a	catFR1	2	R1372C
356.066	1.63	356165	WORD	n/a	wordpools/wordpool_categorized_EN.txt	MONKEY	Zoo	12	2	[0, 0, 0]	n/a	catFR1	2	R1372C
357.696	0.0	357795	WORD_OFF	n/a	n/a	MONKEY	Zoo	12	2	[0, 0, 0]	n/a	catFR1	2	R1372C
357.696	0.001	357795	ENCODING_END	n/a	n/a	n/a	n/a	-999	2	[0, 0, 0]	n/a	catFR1	2	R1372C
357.697	0.0	357796	DISTRACT_START	n/a	n/a	n/a	n/a	-999	2	[0, 0, 0]	n/a	catFR1	2	R1372C
357.697	0.015	357796	START	n/a	n/a	n/a	n/a	-999	2	[-999, -999, -999]	n/a	catFR1	2	R1372C
357.712	5.168	357811	PROB	5.168	n/a	n/a	n/a	-999	2	[3, 9, 7]	19	catFR1	2	R1372C
362.88	3.4	362979	PROB	3.4	n/a	n/a	n/a	-999	2	[7, 7, 7]	21	catFR1	2	R1372C
366.28	7.435	366379	PROB	7.435	n/a	n/a	n/a	-999	2	[6, 7, 4]	16	catFR1	2	R1372C
373.715	4.68	373813	PROB	4.68	n/a	n/a	n/a	-999	2	[2, 7, 8]	17	catFR1	2	R1372C
378.395	0.021	378493	STOP	n/a	n/a	n/a	n/a	-999	2	[-999, -999, -999]	n/a	catFR1	2	R1372C
378.416	0.546	378514	DISTRACT_END	n/a	n/a	n/a	n/a	-999	2	[0, 0, 0]	n/a	catFR1	2	R1372C
378.962	1.588	379060	RETRIEVAL_ORIENT_START	n/a	n/a	n/a	n/a	-999	2	[0, 0, 0]	n/a	catFR1	2	R1372C
380.55	0.0	380648	RETRIEVAL_ORIENT_END	n/a	n/a	n/a	n/a	-999	2	[0, 0, 0]	n/a	catFR1	2	R1372C
380.55	1.833	380648	REC_START	n/a	n/a	n/a	n/a	-999	2	[0, 0, 0]	n/a	catFR1	2	R1372C
382.383	1.146	382481	REC_WORD	1.146	n/a	APPLE	Fruit	3	2	[0, 0, 0]	n/a	catFR1	2	R1372C
383.529	1.216	383627	REC_WORD	1.216	n/a	CIDER	Beverages	2	2	[0, 0, 0]	n/a	catFR1	2	R1372C
384.745	1.001	384843	REC_WORD	1.001	n/a	BEER	Beverages	9	2	[0, 0, 0]	n/a	catFR1	2	R1372C
385.746	24.815	385844	REC_WORD	24.815	n/a	MILK	Beverages	1	2	[0, 0, 0]	n/a	catFR1	2	R1372C
410.561	0.001	410657	REC_END	n/a	n/a	n/a	n/a	-999	2	[0, 0, 0]	n/a	catFR1	2	R1372C
410.562	0.022	410658	TRIAL_END	n/a	n/a	n/a	n/a	-999	2	[0, 0, 0]	n/a	catFR1	2	R1372C
410.584	0.0	410680	TRIAL_START	n/a	n/a	n/a	n/a	-999	3	[0, 0, 0]	n/a	catFR1	2	R1372C
410.584	0.0	410680	TRIAL	n/a	n/a	n/a	n/a	-999	3	[0, 0, 0]	n/a	catFR1	2	R1372C
410.584	13.158	410680	WAITING_START	n/a	n/a	n/a	n/a	-999	3	[0, 0, 0]	n/a	catFR1	2	R1372C
423.742	0.0	423838	WAITING_END	n/a	n/a	n/a	n/a	-999	3	[0, 0, 0]	n/a	catFR1	2	R1372C
423.742	10.428	423838	COUNTDOWN_START	n/a	n/a	n/a	n/a	-999	3	[0, 0, 0]	n/a	catFR1	2	R1372C
434.17	0.001	434265	COUNTDOWN_END	n/a	n/a	n/a	n/a	-999	3	[0, 0, 0]	n/a	catFR1	2	R1372C
434.171	1.023	434266	ORIENT_START	n/a	n/a	n/a	n/a	-999	3	[0, 0, 0]	n/a	catFR1	2	R1372C
435.194	0.0	435289	ORIENT_END	n/a	n/a	n/a	n/a	-999	3	[0, 0, 0]	n/a	catFR1	2	R1372C
435.194	1.086	435289	ENCODING_START	n/a	n/a	n/a	n/a	-999	3	[0, 0, 0]	n/a	catFR1	2	R1372C
436.28	1.631	436375	WORD	n/a	wordpools/wordpool_categorized_EN.txt	RUM	Beverages	1	3	[0, 0, 0]	n/a	catFR1	2	R1372C
437.911	0.892	438006	WORD_OFF	n/a	n/a	RUM	Beverages	1	3	[0, 0, 0]	n/a	catFR1	2	R1372C
438.803	1.625	438898	WORD	n/a	wordpools/wordpool_categorized_EN.txt	COLA	Beverages	2	3	[0, 0, 0]	n/a	catFR1	2	R1372C
440.428	0.771	440523	WORD_OFF	n/a	n/a	COLA	Beverages	2	3	[0, 0, 0]	n/a	catFR1	2	R1372C
441.199	1.629	441294	WORD	n/a	wordpools/wordpool_categorized_EN.txt	LEMON	Fruit	3	3	[0, 0, 0]	n/a	catFR1	2	R1372C
442.828	0.845	442923	WORD_OFF	n/a	n/a	LEMON	Fruit	3	3	[0, 0, 0]	n/a	catFR1	2	R1372C
443.673	1.639	443768	WORD	n/a	wordpools/wordpool_categorized_EN.txt	STRAWBERRY	Fruit	4	3	[0, 0, 0]	n/a	catFR1	2	R1372C
445.312	0.773	445406	WORD_OFF	n/a	n/a	STRAWBERRY	Fruit	4	3	[0, 0, 0]	n/a	catFR1	2	R1372C
446.085	1.61	446179	WORD	n/a	wordpools/wordpool_categorized_EN.txt	LAKE	Landscapes	5	3	[0, 0, 0]	n/a	catFR1	2	R1372C
447.695	1.092	447789	WORD_OFF	n/a	n/a	LAKE	Landscapes	5	3	[0, 0, 0]	n/a	catFR1	2	R1372C
448.787	1.626	448881	WORD	n/a	wordpools/wordpool_categorized_EN.txt	VALLEY	Landscapes	6	3	[0, 0, 0]	n/a	catFR1	2	R1372C
450.413	1.124	450507	WORD_OFF	n/a	n/a	VALLEY	Landscapes	6	3	[0, 0, 0]	n/a	catFR1	2	R1372C
451.537	1.627	451631	WORD	n/a	wordpools/wordpool_categorized_EN.txt	BANANA	Fruit	7	3	[0, 0, 0]	n/a	catFR1	2	R1372C
453.164	0.983	453258	WORD_OFF	n/a	n/a	BANANA	Fruit	7	3	[0, 0, 0]	n/a	catFR1	2	R1372C
454.147	1.634	454241	WORD	n/a	wordpools/wordpool_categorized_EN.txt	LIME	Fruit	8	3	[0, 0, 0]	n/a	catFR1	2	R1372C
455.781	0.868	455875	WORD_OFF	n/a	n/a	LIME	Fruit	8	3	[0, 0, 0]	n/a	catFR1	2	R1372C
456.649	1.632	456743	WORD	n/a	wordpools/wordpool_categorized_EN.txt	SODA	Beverages	9	3	[0, 0, 0]	n/a	catFR1	2	R1372C
458.281	1.102	458375	WORD_OFF	n/a	n/a	SODA	Beverages	9	3	[0, 0, 0]	n/a	catFR1	2	R1372C
459.383	1.631	459477	WORD	n/a	wordpools/wordpool_categorized_EN.txt	TEA	Beverages	10	3	[0, 0, 0]	n/a	catFR1	2	R1372C
461.014	1.13	461108	WORD_OFF	n/a	n/a	TEA	Beverages	10	3	[0, 0, 0]	n/a	catFR1	2	R1372C
462.144	1.638	462238	WORD	n/a	wordpools/wordpool_categorized_EN.txt	WOODS	Landscapes	11	3	[0, 0, 0]	n/a	catFR1	2	R1372C
463.782	0.82	463876	WORD_OFF	n/a	n/a	WOODS	Landscapes	11	3	[0, 0, 0]	n/a	catFR1	2	R1372C
464.602	1.631	464695	WORD	n/a	wordpools/wordpool_categorized_EN.txt	FOREST	Landscapes	12	3	[0, 0, 0]	n/a	catFR1	2	R1372C
466.233	0.0	466326	WORD_OFF	n/a	n/a	FOREST	Landscapes	12	3	[0, 0, 0]	n/a	catFR1	2	R1372C
466.233	0.001	466326	ENCODING_END	n/a	n/a	n/a	n/a	-999	3	[0, 0, 0]	n/a	catFR1	2	R1372C
466.234	0.0	466327	DISTRACT_START	n/a	n/a	n/a	n/a	-999	3	[0, 0, 0]	n/a	catFR1	2	R1372C
466.234	0.015	466327	START	n/a	n/a	n/a	n/a	-999	3	[-999, -999, -999]	n/a	catFR1	2	R1372C
466.249	6.135	466342	PROB	6.135	n/a	n/a	n/a	-999	3	[4, 7, 2]	13	catFR1	2	R1372C
472.384	3.367	472477	PROB	3.367	n/a	n/a	n/a	-999	3	[9, 7, 3]	19	catFR1	2	R1372C
475.751	4.884	475844	PROB	4.884	n/a	n/a	n/a	-999	3	[1, 5, 3]	9	catFR1	2	R1372C
480.635	5.034	480728	PROB	5.034	n/a	n/a	n/a	-999	3	[6, 9, 1]	16	catFR1	2	R1372C
485.669	4.865	485761	PROB	4.865	n/a	n/a	n/a	-999	3	[6, 4, 7]	17	catFR1	2	R1372C
490.534	0.02	490626	STOP	n/a	n/a	n/a	n/a	-999	3	[-999, -999, -999]	n/a	catFR1	2	R1372C
490.554	0.543	490646	DISTRACT_END	n/a	n/a	n/a	n/a	-999	3	[0, 0, 0]	n/a	catFR1	2	R1372C
491.097	1.607	491189	RETRIEVAL_ORIENT_START	n/a	n/a	n/a	n/a	-999	3	[0, 0, 0]	n/a	catFR1	2	R1372C
492.704	0.001	492796	RETRIEVAL_ORIENT_END	n/a	n/a	n/a	n/a	-999	3	[0, 0, 0]	n/a	catFR1	2	R1372C
492.705	29.988	492797	REC_START	n/a	n/a	n/a	n/a	-999	3	[0, 0, 0]	n/a	catFR1	2	R1372C
522.693	0.022	522783	REC_WORD_VV	0.022	n/a	<>	n/a	-999	3	[0, 0, 0]	n/a	catFR1	2	R1372C
522.715	0.001	522805	REC_END	n/a	n/a	n/a	n/a	-999	3	[0, 0, 0]	n/a	catFR1	2	R1372C
522.716	0.024	522806	TRIAL_END	n/a	n/a	n/a	n/a	-999	3	[0, 0, 0]	n/a	catFR1	2	R1372C
522.74	0.0	522830	TRIAL_START	n/a	n/a	n/a	n/a	-999	4	[0, 0, 0]	n/a	catFR1	2	R1372C
522.74	0.0	522830	TRIAL	n/a	n/a	n/a	n/a	-999	4	[0, 0, 0]	n/a	catFR1	2	R1372C
522.74	20.457	522830	WAITING_START	n/a	n/a	n/a	n/a	-999	4	[0, 0, 0]	n/a	catFR1	2	R1372C
543.197	0.001	543286	WAITING_END	n/a	n/a	n/a	n/a	-999	4	[0, 0, 0]	n/a	catFR1	2	R1372C
543.198	10.429	543287	COUNTDOWN_START	n/a	n/a	n/a	n/a	-999	4	[0, 0, 0]	n/a	catFR1	2	R1372C
553.627	0.0	553716	COUNTDOWN_END	n/a	n/a	n/a	n/a	-999	4	[0, 0, 0]	n/a	catFR1	2	R1372C
553.627	1.138	553716	ORIENT_START	n/a	n/a	n/a	n/a	-999	4	[0, 0, 0]	n/a	catFR1	2	R1372C
554.765	0.001	554854	ORIENT_END	n/a	n/a	n/a	n/a	-999	4	[0, 0, 0]	n/a	catFR1	2	R1372C
554.766	1.096	554855	ENCODING_START	n/a	n/a	n/a	n/a	-999	4	[0, 0, 0]	n/a	catFR1	2	R1372C
555.862	1.638	555951	WORD	n/a	wordpools/wordpool_categorized_EN.txt	PRINTER	Electronics	1	4	[0, 0, 0]	n/a	catFR1	2	R1372C
557.5	0.836	557589	WORD_OFF	n/a	n/a	PRINTER	Electronics	1	4	[0, 0, 0]	n/a	catFR1	2	R1372C
558.336	1.63	558425	WORD	n/a	wordpools/wordpool_categorized_EN.txt	HEADPHONES	Electronics	2	4	[0, 0, 0]	n/a	catFR1	2	R1372C
559.966	0.85	560054	WORD_OFF	n/a	n/a	HEADPHONES	Electronics	2	4	[0, 0, 0]	n/a	catFR1	2	R1372C
560.816	1.635	560904	WORD	n/a	wordpools/wordpool_categorized_EN.txt	WHALE	OceanAnimals	3	4	[0, 0, 0]	n/a	catFR1	2	R1372C
562.451	1.093	562539	WORD_OFF	n/a	n/a	WHALE	OceanAnimals	3	4	[0, 0, 0]	n/a	catFR1	2	R1372C
563.544	1.624	563632	WORD	n/a	wordpools/wordpool_categorized_EN.txt	SQUID	OceanAnimals	4	4	[0, 0, 0]	n/a	catFR1	2	R1372C
565.168	0.841	565256	WORD_OFF	n/a	n/a	SQUID	OceanAnimals	4	4	[0, 0, 0]	n/a	catFR1	2	R1372C
566.009	1.626	566097	WORD	n/a	wordpools/wordpool_categorized_EN.txt	PUZZLE	Toys	5	4	[0, 0, 0]	n/a	catFR1	2	R1372C
567.635	0.81	567723	WORD_OFF	n/a	n/a	PUZZLE	Toys	5	4	[0, 0, 0]	n/a	catFR1	2	R1372C
568.445	1.623	568533	WORD	n/a	wordpools/wordpool_categorized_EN.txt	BALL	Toys	6	4	[0, 0, 0]	n/a	catFR1	2	R1372C
570.068	0.913	570156	WORD_OFF	n/a	n/a	BALL	Toys	6	4	[0, 0, 0]	n/a	catFR1	2	R1372C
570.981	1.638	571069	WORD	n/a	wordpools/wordpool_categorized_EN.txt	OCTOPUS	OceanAnimals	7	4	[0, 0, 0]	n/a	catFR1	2	R1372C
572.619	0.757	572707	WORD_OFF	n/a	n/a	OCTOPUS	OceanAnimals	7	4	[0, 0, 0]	n/a	catFR1	2	R1372C
573.376	1.626	573464	WORD	n/a	wordpools/wordpool_categorized_EN.txt	OYSTER	OceanAnimals	8	4	[0, 0, 0]	n/a	catFR1	2	R1372C
575.002	0.91	575090	WORD_OFF	n/a	n/a	OYSTER	OceanAnimals	8	4	[0, 0, 0]	n/a	catFR1	2	R1372C
575.912	1.625	576000	WORD	n/a	wordpools/wordpool_categorized_EN.txt	BARBIE	Toys	9	4	[0, 0, 0]	n/a	catFR1	2	R1372C
577.537	0.998	577625	WORD_OFF	n/a	n/a	BARBIE	Toys	9	4	[0, 0, 0]	n/a	catFR1	2	R1372C
578.535	1.636	578622	WORD	n/a	wordpools/wordpool_categorized_EN.txt	FRISBEE	Toys	10	4	[0, 0, 0]	n/a	catFR1	2	R1372C
580.171	0.809	580258	WORD_OFF	n/a	n/a	FRISBEE	Toys	10	4	[0, 0, 0]	n/a	catFR1	2	R1372C
580.98	1.625	581067	WORD	n/a	wordpools/wordpool_categorized_EN.txt	COMPUTER	Electronics	11	4	[0, 0, 0]	n/a	catFR1	2	R1372C
582.605	1.1	582692	WORD_OFF	n/a	n/a	COMPUTER	Electronics	11	4	[0, 0, 0]	n/a	catFR1	2	R1372C
583.705	1.634	583792	WORD	n/a	wordpools/wordpool_categorized_EN.txt	SCANNER	Electronics	12	4	[0, 0, 0]	n/a	catFR1	2	R1372C
585.339	0.0	585426	WORD_OFF	n/a	n/a	SCANNER	Electronics	12	4	[0, 0, 0]	n/a	catFR1	2	R1372C
585.339	0.0	585426	ENCODING_END	n/a	n/a	n/a	n/a	-999	4	[0, 0, 0]	n/a	catFR1	2	R1372C
585.339	0.001	585426	DISTRACT_START	n/a	n/a	n/a	n/a	-999	4	[0, 0, 0]	n/a	catFR1	2	R1372C
585.34	0.015	585427	START	n/a	n/a	n/a	n/a	-999	4	[-999, -999, -999]	n/a	catFR1	2	R1372C
585.355	5.733	585442	PROB	5.733	n/a	n/a	n/a	-999	4	[2, 2, 7]	11	catFR1	2	R1372C
591.088	5.236	591175	PROB	5.236	n/a	n/a	n/a	-999	4	[4, 8, 3]	13	catFR1	2	R1372C
596.324	7.517	596411	PROB	7.517	n/a	n/a	n/a	-999	4	[4, 7, 4]	13	catFR1	2	R1372C
603.841	7.486	603927	PROB	7.486	n/a	n/a	n/a	-999	4	[9, 6, 3]	18	catFR1	2	R1372C
611.327	0.016	611413	STOP	n/a	n/a	n/a	n/a	-999	4	[-999, -999, -999]	n/a	catFR1	2	R1372C
611.343	0.581	611429	DISTRACT_END	n/a	n/a	n/a	n/a	-999	4	[0, 0, 0]	n/a	catFR1	2	R1372C
611.924	1.536	612010	RETRIEVAL_ORIENT_START	n/a	n/a	n/a	n/a	-999	4	[0, 0, 0]	n/a	catFR1	2	R1372C
613.46	0.001	613546	RETRIEVAL_ORIENT_END	n/a	n/a	n/a	n/a	-999	4	[0, 0, 0]	n/a	catFR1	2	R1372C
613.461	3.575	613547	REC_START	n/a	n/a	n/a	n/a	-999	4	[0, 0, 0]	n/a	catFR1	2	R1372C
617.036	3.465	617121	REC_WORD	3.465	n/a	COMPUTER	Electronics	11	4	[0, 0, 0]	n/a	catFR1	2	R1372C
620.501	1.987	620586	REC_WORD	1.987	n/a	SCANNER	Electronics	12	4	[0, 0, 0]	n/a	catFR1	2	R1372C
622.488	20.984	622573	REC_WORD	20.984	n/a	PRINTER	Electronics	1	4	[0, 0, 0]	n/a	catFR1	2	R1372C
643.472	0.0	643556	REC_END	n/a	n/a	n/a	n/a	-999	4	[0, 0, 0]	n/a	catFR1	2	R1372C
643.472	0.023	643556	TRIAL_END	n/a	n/a	n/a	n/a	-999	4	[0, 0, 0]	n/a	catFR1	2	R1372C
643.495	0.0	643579	TRIAL_START	n/a	n/a	n/a	n/a	-999	5	[0, 0, 0]	n/a	catFR1	2	R1372C
643.495	0.0	643579	TRIAL	n/a	n/a	n/a	n/a	-999	5	[0, 0, 0]	n/a	catFR1	2	R1372C
643.495	42.545	643579	WAITING_START	n/a	n/a	n/a	n/a	-999	5	[0, 0, 0]	n/a	catFR1	2	R1372C
686.04	0.0	686122	WAITING_END	n/a	n/a	n/a	n/a	-999	5	[0, 0, 0]	n/a	catFR1	2	R1372C
686.04	10.429	686122	COUNTDOWN_START	n/a	n/a	n/a	n/a	-999	5	[0, 0, 0]	n/a	catFR1	2	R1372C
696.469	0.0	696550	COUNTDOWN_END	n/a	n/a	n/a	n/a	-999	5	[0, 0, 0]	n/a	catFR1	2	R1372C
696.469	1.074	696550	ORIENT_START	n/a	n/a	n/a	n/a	-999	5	[0, 0, 0]	n/a	catFR1	2	R1372C
697.543	0.0	697624	ORIENT_END	n/a	n/a	n/a	n/a	-999	5	[0, 0, 0]	n/a	catFR1	2	R1372C
697.543	1.03	697624	ENCODING_START	n/a	n/a	n/a	n/a	-999	5	[0, 0, 0]	n/a	catFR1	2	R1372C
698.573	1.637	698654	WORD	n/a	wordpools/wordpool_categorized_EN.txt	ORCHID	Flowers	1	5	[0, 0, 0]	n/a	catFR1	2	R1372C
700.21	0.917	700291	WORD_OFF	n/a	n/a	ORCHID	Flowers	1	5	[0, 0, 0]	n/a	catFR1	2	R1372C
701.127	1.633	701208	WORD	n/a	wordpools/wordpool_categorized_EN.txt	PETUNIA	Flowers	2	5	[0, 0, 0]	n/a	catFR1	2	R1372C
702.76	0.797	702841	WORD_OFF	n/a	n/a	PETUNIA	Flowers	2	5	[0, 0, 0]	n/a	catFR1	2	R1372C
703.557	1.638	703638	WORD	n/a	wordpools/wordpool_categorized_EN.txt	CELLO	Instruments	3	5	[0, 0, 0]	n/a	catFR1	2	R1372C
705.195	1.105	705276	WORD_OFF	n/a	n/a	CELLO	Instruments	3	5	[0, 0, 0]	n/a	catFR1	2	R1372C
706.3	1.628	706381	WORD	n/a	wordpools/wordpool_categorized_EN.txt	VIOLIN	Instruments	4	5	[0, 0, 0]	n/a	catFR1	2	R1372C
707.928	0.844	708009	WORD_OFF	n/a	n/a	VIOLIN	Instruments	4	5	[0, 0, 0]	n/a	catFR1	2	R1372C
708.772	1.623	708853	WORD	n/a	wordpools/wordpool_categorized_EN.txt	ELM	Trees	5	5	[0, 0, 0]	n/a	catFR1	2	R1372C
710.395	1.143	710476	WORD_OFF	n/a	n/a	ELM	Trees	5	5	[0, 0, 0]	n/a	catFR1	2	R1372C
711.538	1.624	711619	WORD	n/a	wordpools/wordpool_categorized_EN.txt	BIRCH	Trees	6	5	[0, 0, 0]	n/a	catFR1	2	R1372C
713.162	1.078	713242	WORD_OFF	n/a	n/a	BIRCH	Trees	6	5	[0, 0, 0]	n/a	catFR1	2	R1372C
714.24	1.623	714320	WORD	n/a	wordpools/wordpool_categorized_EN.txt	LILY	Flowers	7	5	[0, 0, 0]	n/a	catFR1	2	R1372C
715.863	0.908	715943	WORD_OFF	n/a	n/a	LILY	Flowers	7	5	[0, 0, 0]	n/a	catFR1	2	R1372C
716.771	1.626	716851	WORD	n/a	wordpools/wordpool_categorized_EN.txt	DAISY	Flowers	8	5	[0, 0, 0]	n/a	catFR1	2	R1372C
718.397	0.767	718477	WORD_OFF	n/a	n/a	DAISY	Flowers	8	5	[0, 0, 0]	n/a	catFR1	2	R1372C
719.164	1.633	719244	WORD	n/a	wordpools/wordpool_categorized_EN.txt	PINE	Trees	9	5	[0, 0, 0]	n/a	catFR1	2	R1372C
720.797	1.029	720877	WORD_OFF	n/a	n/a	PINE	Trees	9	5	[0, 0, 0]	n/a	catFR1	2	R1372C
721.826	1.638	721906	WORD	n/a	wordpools/wordpool_categorized_EN.txt	CEDAR	Trees	10	5	[0, 0, 0]	n/a	catFR1	2	R1372C
723.464	1.096	723544	WORD_OFF	n/a	n/a	CEDAR	Trees	10	5	[0, 0, 0]	n/a	catFR1	2	R1372C
724.56	1.638	724640	WORD	n/a	wordpools/wordpool_categorized_EN.txt	PIANO	Instruments	11	5	[0, 0, 0]	n/a	catFR1	2	R1372C
726.198	0.816	726278	WORD_OFF	n/a	n/a	PIANO	Instruments	11	5	[0, 0, 0]	n/a	catFR1	2	R1372C
727.014	1.635	727094	WORD	n/a	wordpools/wordpool_categorized_EN.txt	BASS	Instruments	12	5	[0, 0, 0]	n/a	catFR1	2	R1372C
728.649	0.0	728729	WORD_OFF	n/a	n/a	BASS	Instruments	12	5	[0, 0, 0]	n/a	catFR1	2	R1372C
728.649	0.0	728729	ENCODING_END	n/a	n/a	n/a	n/a	-999	5	[0, 0, 0]	n/a	catFR1	2	R1372C
728.649	0.001	728729	DISTRACT_START	n/a	n/a	n/a	n/a	-999	5	[0, 0, 0]	n/a	catFR1	2	R1372C
728.65	0.015	728730	START	n/a	n/a	n/a	n/a	-999	5	[-999, -999, -999]	n/a	catFR1	2	R1372C
728.665	5.018	728745	PROB	5.018	n/a	n/a	n/a	-999	5	[2, 2, 7]	11	catFR1	2	R1372C
733.683	4.333	733762	PROB	4.333	n/a	n/a	n/a	-999	5	[5, 2, 1]	8	catFR1	2	R1372C
738.016	6.102	738095	PROB	6.102	n/a	n/a	n/a	-999	5	[5, 4, 4]	13	catFR1	2	R1372C
744.118	5.541	744197	PROB	5.541	n/a	n/a	n/a	-999	5	[7, 4, 2]	13	catFR1	2	R1372C
749.659	0.01	749738	STOP	n/a	n/a	n/a	n/a	-999	5	[-999, -999, -999]	n/a	catFR1	2	R1372C
749.669	0.603	749748	DISTRACT_END	n/a	n/a	n/a	n/a	-999	5	[0, 0, 0]	n/a	catFR1	2	R1372C
750.272	1.614	750350	RETRIEVAL_ORIENT_START	n/a	n/a	n/a	n/a	-999	5	[0, 0, 0]	n/a	catFR1	2	R1372C
751.886	0.001	751964	RETRIEVAL_ORIENT_END	n/a	n/a	n/a	n/a	-999	5	[0, 0, 0]	n/a	catFR1	2	R1372C
751.887	0.379	751965	REC_START	n/a	n/a	n/a	n/a	-999	5	[0, 0, 0]	n/a	catFR1	2	R1372C
752.266	5.239	752344	REC_WORD	5.239	n/a	PETUNIA	Flowers	2	5	[0, 0, 0]	n/a	catFR1	2	R1372C
757.505	2.733	757583	REC_WORD	2.733	n/a	ELM	Trees	5	5	[0, 0, 0]	n/a	catFR1	2	R1372C
760.238	21.66	760316	REC_WORD	21.66	n/a	SUNFLOWER	n/a	-999	5	[0, 0, 0]	n/a	catFR1	2	R1372C
781.898	0.0	781975	REC_END	n/a	n/a	n/a	n/a	-999	5	[0, 0, 0]	n/a	catFR1	2	R1372C
781.898	0.024	781975	TRIAL_END	n/a	n/a	n/a	n/a	-999	5	[0, 0, 0]	n/a	catFR1	2	R1372C
781.922	0.0	781999	TRIAL_START	n/a	n/a	n/a	n/a	-999	6	[0, 0, 0]	n/a	catFR1	2	R1372C
781.922	0.0	781999	TRIAL	n/a	n/a	n/a	n/a	-999	6	[0, 0, 0]	n/a	catFR1	2	R1372C
781.922	18.824	781999	WAITING_START	n/a	n/a	n/a	n/a	-999	6	[0, 0, 0]	n/a	catFR1	2	R1372C
800.746	0.0	800822	WAITING_END	n/a	n/a	n/a	n/a	-999	6	[0, 0, 0]	n/a	catFR1	2	R1372C
800.746	10.429	800822	COUNTDOWN_START	n/a	n/a	n/a	n/a	-999	6	[0, 0, 0]	n/a	catFR1	2	R1372C
811.175	0.001	811250	COUNTDOWN_END	n/a	n/a	n/a	n/a	-999	6	[0, 0, 0]	n/a	catFR1	2	R1372C
811.176	1.255	811251	ORIENT_START	n/a	n/a	n/a	n/a	-999	6	[0, 0, 0]	n/a	catFR1	2	R1372C
812.431	0.0	812506	ORIENT_END	n/a	n/a	n/a	n/a	-999	6	[0, 0, 0]	n/a	catFR1	2	R1372C
812.431	0.879	812506	ENCODING_START	n/a	n/a	n/a	n/a	-999	6	[0, 0, 0]	n/a	catFR1	2	R1372C
813.31	1.638	813385	WORD	n/a	wordpools/wordpool_categorized_EN.txt	COFFEE	Beverages	1	6	[0, 0, 0]	n/a	catFR1	2	R1372C
814.948	0.839	815023	WORD_OFF	n/a	n/a	COFFEE	Beverages	1	6	[0, 0, 0]	n/a	catFR1	2	R1372C
815.787	1.628	815862	WORD	n/a	wordpools/wordpool_categorized_EN.txt	LEMONADE	Beverages	2	6	[0, 0, 0]	n/a	catFR1	2	R1372C
817.415	1.044	817490	WORD_OFF	n/a	n/a	LEMONADE	Beverages	2	6	[0, 0, 0]	n/a	catFR1	2	R1372C
818.459	1.623	818534	WORD	n/a	wordpools/wordpool_categorized_EN.txt	STEREO	Electronics	3	6	[0, 0, 0]	n/a	catFR1	2	R1372C
820.082	0.847	820157	WORD_OFF	n/a	n/a	STEREO	Electronics	3	6	[0, 0, 0]	n/a	catFR1	2	R1372C
820.929	1.637	821004	WORD	n/a	wordpools/wordpool_categorized_EN.txt	RADIO	Electronics	4	6	[0, 0, 0]	n/a	catFR1	2	R1372C
822.566	1.101	822641	WORD_OFF	n/a	n/a	RADIO	Electronics	4	6	[0, 0, 0]	n/a	catFR1	2	R1372C
823.667	1.633	823742	WORD	n/a	wordpools/wordpool_categorized_EN.txt	BEACH	Landscapes	5	6	[0, 0, 0]	n/a	catFR1	2	R1372C
825.3	0.793	825375	WORD_OFF	n/a	n/a	BEACH	Landscapes	5	6	[0, 0, 0]	n/a	catFR1	2	R1372C
826.093	1.624	826167	WORD	n/a	wordpools/wordpool_categorized_EN.txt	MOUNTAIN	Landscapes	6	6	[0, 0, 0]	n/a	catFR1	2	R1372C
827.717	0.836	827791	WORD_OFF	n/a	n/a	MOUNTAIN	Landscapes	6	6	[0, 0, 0]	n/a	catFR1	2	R1372C
828.553	1.631	828627	WORD	n/a	wordpools/wordpool_categorized_EN.txt	WATER	Beverages	7	6	[0, 0, 0]	n/a	catFR1	2	R1372C
830.184	0.796	830258	WORD_OFF	n/a	n/a	WATER	Beverages	7	6	[0, 0, 0]	n/a	catFR1	2	R1372C
830.98	1.638	831054	WORD	n/a	wordpools/wordpool_categorized_EN.txt	WINE	Beverages	8	6	[0, 0, 0]	n/a	catFR1	2	R1372C
832.618	1.053	832692	WORD_OFF	n/a	n/a	WINE	Beverages	8	6	[0, 0, 0]	n/a	catFR1	2	R1372C
833.671	1.631	833745	WORD	n/a	wordpools/wordpool_categorized_EN.txt	CREEK	Landscapes	9	6	[0, 0, 0]	n/a	catFR1	2	R1372C
835.302	1.148	835376	WORD_OFF	n/a	n/a	CREEK	Landscapes	9	6	[0, 0, 0]	n/a	catFR1	2	R1372C
836.45	1.635	836524	WORD	n/a	wordpools/wordpool_categorized_EN.txt	HILLS	Landscapes	10	6	[0, 0, 0]	n/a	catFR1	2	R1372C
838.085	0.922	838159	WORD_OFF	n/a	n/a	HILLS	Landscapes	10	6	[0, 0, 0]	n/a	catFR1	2	R1372C
839.007	1.629	839081	WORD	n/a	wordpools/wordpool_categorized_EN.txt	CALCULATOR	Electronics	11	6	[0, 0, 0]	n/a	catFR1	2	R1372C
840.636	0.797	840710	WORD_OFF	n/a	n/a	CALCULATOR	Electronics	11	6	[0, 0, 0]	n/a	catFR1	2	R1372C
841.433	1.636	841507	WORD	n/a	wordpools/wordpool_categorized_EN.txt	TELEVISION	Electronics	12	6	[0, 0, 0]	n/a	catFR1	2	R1372C
843.069	0.001	843143	WORD_OFF	n/a	n/a	TELEVISION	Electronics	12	6	[0, 0, 0]	n/a	catFR1	2	R1372C
843.07	0.0	843144	ENCODING_END	n/a	n/a	n/a	n/a	-999	6	[0, 0, 0]	n/a	catFR1	2	R1372C
843.07	0.0	843144	DISTRACT_START	n/a	n/a	n/a	n/a	-999	6	[0, 0, 0]	n/a	catFR1	2	R1372C
843.07	0.015	843144	START	n/a	n/a	n/a	n/a	-999	6	[-999, -999, -999]	n/a	catFR1	2	R1372C
843.085	6.036	843159	PROB	6.036	n/a	n/a	n/a	-999	6	[7, 7, 8]	22	catFR1	2	R1372C
849.121	4.001	849194	PROB	4.001	n/a	n/a	n/a	-999	6	[5, 6, 5]	16	catFR1	2	R1372C
853.122	3.634	853195	PROB	3.634	n/a	n/a	n/a	-999	6	[4, 3, 3]	10	catFR1	2	R1372C
856.756	3.784	856829	PROB	3.784	n/a	n/a	n/a	-999	6	[5, 7, 5]	17	catFR1	2	R1372C
860.54	4.393	860613	PROB	4.393	n/a	n/a	n/a	-999	6	[4, 9, 3]	16	catFR1	2	R1372C
864.933	0.008	865005	STOP	n/a	n/a	n/a	n/a	-999	6	[-999, -999, -999]	n/a	catFR1	2	R1372C
864.941	0.622	865013	DISTRACT_END	n/a	n/a	n/a	n/a	-999	6	[0, 0, 0]	n/a	catFR1	2	R1372C
865.563	1.728	865635	RETRIEVAL_ORIENT_START	n/a	n/a	n/a	n/a	-999	6	[0, 0, 0]	n/a	catFR1	2	R1372C
867.291	0.001	867363	RETRIEVAL_ORIENT_END	n/a	n/a	n/a	n/a	-999	6	[0, 0, 0]	n/a	catFR1	2	R1372C
867.292	0.837	867364	REC_START	n/a	n/a	n/a	n/a	-999	6	[0, 0, 0]	n/a	catFR1	2	R1372C
868.129	1.186	868201	REC_WORD	1.186	n/a	COFFEE	Beverages	1	6	[0, 0, 0]	n/a	catFR1	2	R1372C
869.315	3.803	869387	REC_WORD	3.803	n/a	LEMONADE	Beverages	2	6	[0, 0, 0]	n/a	catFR1	2	R1372C
873.118	2.966	873190	REC_WORD	2.966	n/a	CREEK	Landscapes	9	6	[0, 0, 0]	n/a	catFR1	2	R1372C
876.084	11.391	876156	REC_WORD	11.391	n/a	MOUNTAIN	Landscapes	6	6	[0, 0, 0]	n/a	catFR1	2	R1372C
887.475	9.828	887546	REC_WORD	9.828	n/a	CALCULATOR	Electronics	11	6	[0, 0, 0]	n/a	catFR1	2	R1372C
897.303	0.001	897374	REC_END	n/a	n/a	n/a	n/a	-999	6	[0, 0, 0]	n/a	catFR1	2	R1372C
897.304	0.022	897375	TRIAL_END	n/a	n/a	n/a	n/a	-999	6	[0, 0, 0]	n/a	catFR1	2	R1372C
897.326	0.0	897397	TRIAL_START	n/a	n/a	n/a	n/a	-999	7	[0, 0, 0]	n/a	catFR1	2	R1372C
897.326	0.0	897397	TRIAL	n/a	n/a	n/a	n/a	-999	7	[0, 0, 0]	n/a	catFR1	2	R1372C
897.326	196.275	897397	WAITING_START	n/a	n/a	n/a	n/a	-999	7	[0, 0, 0]	n/a	catFR1	2	R1372C
1093.601	0.0	1093661	WAITING_END	n/a	n/a	n/a	n/a	-999	7	[0, 0, 0]	n/a	catFR1	2	R1372C
1093.601	10.429	1093661	COUNTDOWN_START	n/a	n/a	n/a	n/a	-999	7	[0, 0, 0]	n/a	catFR1	2	R1372C
1104.03	0.001	1104090	COUNTDOWN_END	n/a	n/a	n/a	n/a	-999	7	[0, 0, 0]	n/a	catFR1	2	R1372C
1104.031	1.121	1104091	ORIENT_START	n/a	n/a	n/a	n/a	-999	7	[0, 0, 0]	n/a	catFR1	2	R1372C
1105.152	0.001	1105212	ORIENT_END	n/a	n/a	n/a	n/a	-999	7	[0, 0, 0]	n/a	catFR1	2	R1372C
1105.153	1.064	1105213	ENCODING_START	n/a	n/a	n/a	n/a	-999	7	[0, 0, 0]	n/a	catFR1	2	R1372C
1106.217	1.636	1106277	WORD	n/a	wordpools/wordpool_categorized_EN.txt	PLUM	Fruit	1	7	[0, 0, 0]	n/a	catFR1	2	R1372C
1107.853	0.786	1107913	WORD_OFF	n/a	n/a	PLUM	Fruit	1	7	[0, 0, 0]	n/a	catFR1	2	R1372C
1108.639	1.631	1108699	WORD	n/a	wordpools/wordpool_categorized_EN.txt	GRAPE	Fruit	2	7	[0, 0, 0]	n/a	catFR1	2	R1372C
1110.27	0.994	1110330	WORD_OFF	n/a	n/a	GRAPE	Fruit	2	7	[0, 0, 0]	n/a	catFR1	2	R1372C
1111.264	1.623	1111324	WORD	n/a	wordpools/wordpool_categorized_EN.txt	CABINET	Furniture	3	7	[0, 0, 0]	n/a	catFR1	2	R1372C
1112.887	0.896	1112946	WORD_OFF	n/a	n/a	CABINET	Furniture	3	7	[0, 0, 0]	n/a	catFR1	2	R1372C
1113.783	1.638	1113842	WORD	n/a	wordpools/wordpool_categorized_EN.txt	DESK	Furniture	4	7	[0, 0, 0]	n/a	catFR1	2	R1372C
1115.421	0.914	1115480	WORD_OFF	n/a	n/a	DESK	Furniture	4	7	[0, 0, 0]	n/a	catFR1	2	R1372C
1116.335	1.636	1116394	WORD	n/a	wordpools/wordpool_categorized_EN.txt	FLY	Insects	5	7	[0, 0, 0]	n/a	catFR1	2	R1372C
1117.971	0.783	1118030	WORD_OFF	n/a	n/a	FLY	Insects	5	7	[0, 0, 0]	n/a	catFR1	2	R1372C
1118.754	1.635	1118813	WORD	n/a	wordpools/wordpool_categorized_EN.txt	BEETLE	Insects	6	7	[0, 0, 0]	n/a	catFR1	2	R1372C
1120.389	1.146	1120448	WORD_OFF	n/a	n/a	BEETLE	Insects	6	7	[0, 0, 0]	n/a	catFR1	2	R1372C
1121.535	1.638	1121594	WORD	n/a	wordpools/wordpool_categorized_EN.txt	PEACH	Fruit	7	7	[0, 0, 0]	n/a	catFR1	2	R1372C
1123.173	0.993	1123232	WORD_OFF	n/a	n/a	PEACH	Fruit	7	7	[0, 0, 0]	n/a	catFR1	2	R1372C
1124.166	1.624	1124225	WORD	n/a	wordpools/wordpool_categorized_EN.txt	ORANGE	Fruit	8	7	[0, 0, 0]	n/a	catFR1	2	R1372C
1125.79	1.056	1125849	WORD_OFF	n/a	n/a	ORANGE	Fruit	8	7	[0, 0, 0]	n/a	catFR1	2	R1372C
1126.846	1.628	1126905	WORD	n/a	wordpools/wordpool_categorized_EN.txt	NIGHTSTAND	Furniture	9	7	[0, 0, 0]	n/a	catFR1	2	R1372C
1128.474	1.143	1128533	WORD_OFF	n/a	n/a	NIGHTSTAND	Furniture	9	7	[0, 0, 0]	n/a	catFR1	2	R1372C
1129.617	1.624	1129676	WORD	n/a	wordpools/wordpool_categorized_EN.txt	SOFA	Furniture	10	7	[0, 0, 0]	n/a	catFR1	2	R1372C
1131.241	0.75	1131299	WORD_OFF	n/a	n/a	SOFA	Furniture	10	7	[0, 0, 0]	n/a	catFR1	2	R1372C
1131.991	1.616	1132049	WORD	n/a	wordpools/wordpool_categorized_EN.txt	ANT	Insects	11	7	[0, 0, 0]	n/a	catFR1	2	R1372C
1133.607	1.08	1133665	WORD_OFF	n/a	n/a	ANT	Insects	11	7	[0, 0, 0]	n/a	catFR1	2	R1372C
1134.687	1.638	1134745	WORD	n/a	wordpools/wordpool_categorized_EN.txt	LADYBUG	Insects	12	7	[0, 0, 0]	n/a	catFR1	2	R1372C
1136.325	0.001	1136383	WORD_OFF	n/a	n/a	LADYBUG	Insects	12	7	[0, 0, 0]	n/a	catFR1	2	R1372C
1136.326	0.0	1136384	ENCODING_END	n/a	n/a	n/a	n/a	-999	7	[0, 0, 0]	n/a	catFR1	2	R1372C
1136.326	0.0	1136384	DISTRACT_START	n/a	n/a	n/a	n/a	-999	7	[0, 0, 0]	n/a	catFR1	2	R1372C
1136.326	0.015	1136384	START	n/a	n/a	n/a	n/a	-999	7	[-999, -999, -999]	n/a	catFR1	2	R1372C
1136.341	4.868	1136399	PROB	4.868	n/a	n/a	n/a	-999	7	[6, 6, 7]	19	catFR1	2	R1372C
1141.209	3.883	1141267	PROB	3.883	n/a	n/a	n/a	-999	7	[1, 5, 1]	7	catFR1	2	R1372C
1145.092	9.02	1145150	PROB	9.02	n/a	n/a	n/a	-999	7	[5, 2, 6]	15	catFR1	2	R1372C
1154.112	5.432	1154169	PROB	5.432	n/a	n/a	n/a	-999	7	[3, 6, 8]	17	catFR1	2	R1372C
1159.544	0.019	1159601	STOP	n/a	n/a	n/a	n/a	-999	7	[-999, -999, -999]	n/a	catFR1	2	R1372C
1159.563	0.651	1159620	DISTRACT_END	n/a	n/a	n/a	n/a	-999	7	[0, 0, 0]	n/a	catFR1	2	R1372C
1160.214	1.599	1160271	RETRIEVAL_ORIENT_START	n/a	n/a	n/a	n/a	-999	7	[0, 0, 0]	n/a	catFR1	2	R1372C
1161.813	0.001	1161870	RETRIEVAL_ORIENT_END	n/a	n/a	n/a	n/a	-999	7	[0, 0, 0]	n/a	catFR1	2	R1372C
1161.814	0.206	1161871	REC_START	n/a	n/a	n/a	n/a	-999	7	[0, 0, 0]	n/a	catFR1	2	R1372C
1162.02	3.285	1162077	REC_WORD	3.285	n/a	PLUM	Fruit	1	7	[0, 0, 0]	n/a	catFR1	2	R1372C
1165.305	26.519	1165362	REC_WORD	26.519	n/a	SQUID	OceanAnimals	-999	7	[0, 0, 0]	n/a	catFR1	2	R1372C
1191.824	0.0	1191879	REC_END	n/a	n/a	n/a	n/a	-999	7	[0, 0, 0]	n/a	catFR1	2	R1372C
1191.824	0.023	1191879	TRIAL_END	n/a	n/a	n/a	n/a	-999	7	[0, 0, 0]	n/a	catFR1	2	R1372C
1191.847	0.001	1191902	TRIAL_START	n/a	n/a	n/a	n/a	-999	8	[0, 0, 0]	n/a	catFR1	2	R1372C
1191.848	0.0	1191903	TRIAL	n/a	n/a	n/a	n/a	-999	8	[0, 0, 0]	n/a	catFR1	2	R1372C
1191.848	25.576	1191903	WAITING_START	n/a	n/a	n/a	n/a	-999	8	[0, 0, 0]	n/a	catFR1	2	R1372C
1217.424	0.0	1217478	WAITING_END	n/a	n/a	n/a	n/a	-999	8	[0, 0, 0]	n/a	catFR1	2	R1372C
1217.424	10.43	1217478	COUNTDOWN_START	n/a	n/a	n/a	n/a	-999	8	[0, 0, 0]	n/a	catFR1	2	R1372C
1227.854	0.0	1227907	COUNTDOWN_END	n/a	n/a	n/a	n/a	-999	8	[0, 0, 0]	n/a	catFR1	2	R1372C
1227.854	1.137	1227907	ORIENT_START	n/a	n/a	n/a	n/a	-999	8	[0, 0, 0]	n/a	catFR1	2	R1372C
1228.991	0.001	1229044	ORIENT_END	n/a	n/a	n/a	n/a	-999	8	[0, 0, 0]	n/a	catFR1	2	R1372C
1228.992	0.803	1229045	ENCODING_START	n/a	n/a	n/a	n/a	-999	8	[0, 0, 0]	n/a	catFR1	2	R1372C
1229.795	1.631	1229848	WORD	n/a	wordpools/wordpool_categorized_EN.txt	JEANS	Clothing	1	8	[0, 0, 0]	n/a	catFR1	2	R1372C
1231.426	0.772	1231479	WORD_OFF	n/a	n/a	JEANS	Clothing	1	8	[0, 0, 0]	n/a	catFR1	2	R1372C
1232.198	1.629	1232251	WORD	n/a	wordpools/wordpool_categorized_EN.txt	SKIRT	Clothing	2	8	[0, 0, 0]	n/a	catFR1	2	R1372C
1233.827	1.099	1233880	WORD_OFF	n/a	n/a	SKIRT	Clothing	2	8	[0, 0, 0]	n/a	catFR1	2	R1372C
1234.926	1.636	1234979	WORD	n/a	wordpools/wordpool_categorized_EN.txt	CRICKET	Insects	3	8	[0, 0, 0]	n/a	catFR1	2	R1372C
1236.562	0.88	1236615	WORD_OFF	n/a	n/a	CRICKET	Insects	3	8	[0, 0, 0]	n/a	catFR1	2	R1372C
1237.442	1.635	1237495	WORD	n/a	wordpools/wordpool_categorized_EN.txt	ROACH	Insects	4	8	[0, 0, 0]	n/a	catFR1	2	R1372C
1239.077	1.013	1239130	WORD_OFF	n/a	n/a	ROACH	Insects	4	8	[0, 0, 0]	n/a	catFR1	2	R1372C
1240.09	1.638	1240143	WORD	n/a	wordpools/wordpool_categorized_EN.txt	PAPER	OfficeSupplies	5	8	[0, 0, 0]	n/a	catFR1	2	R1372C
1241.728	1.009	1241781	WORD_OFF	n/a	n/a	PAPER	OfficeSupplies	5	8	[0, 0, 0]	n/a	catFR1	2	R1372C
1242.737	1.625	1242790	WORD	n/a	wordpools/wordpool_categorized_EN.txt	BINDER	OfficeSupplies	6	8	[0, 0, 0]	n/a	catFR1	2	R1372C
1244.362	0.788	1244415	WORD_OFF	n/a	n/a	BINDER	OfficeSupplies	6	8	[0, 0, 0]	n/a	catFR1	2	R1372C
1245.15	1.629	1245202	WORD	n/a	wordpools/wordpool_categorized_EN.txt	MOTH	Insects	7	8	[0, 0, 0]	n/a	catFR1	2	R1372C
1246.779	0.806	1246831	WORD_OFF	n/a	n/a	MOTH	Insects	7	8	[0, 0, 0]	n/a	catFR1	2	R1372C
1247.585	1.628	1247637	WORD	n/a	wordpools/wordpool_categorized_EN.txt	GNAT	Insects	8	8	[0, 0, 0]	n/a	catFR1	2	R1372C
1249.213	0.881	1249265	WORD_OFF	n/a	n/a	GNAT	Insects	8	8	[0, 0, 0]	n/a	catFR1	2	R1372C
1250.094	1.636	1250146	WORD	n/a	wordpools/wordpool_categorized_EN.txt	SOCKS	Clothing	9	8	[0, 0, 0]	n/a	catFR1	2	R1372C
1251.73	0.768	1251782	WORD_OFF	n/a	n/a	SOCKS	Clothing	9	8	[0, 0, 0]	n/a	catFR1	2	R1372C
1252.498	1.632	1252550	WORD	n/a	wordpools/wordpool_categorized_EN.txt	SHIRT	Clothing	10	8	[0, 0, 0]	n/a	catFR1	2	R1372C
1254.13	0.991	1254182	WORD_OFF	n/a	n/a	SHIRT	Clothing	10	8	[0, 0, 0]	n/a	catFR1	2	R1372C
1255.121	1.627	1255173	WORD	n/a	wordpools/wordpool_categorized_EN.txt	PENCIL	OfficeSupplies	11	8	[0, 0, 0]	n/a	catFR1	2	R1372C
1256.748	0.874	1256800	WORD_OFF	n/a	n/a	PENCIL	OfficeSupplies	11	8	[0, 0, 0]	n/a	catFR1	2	R1372C
1257.622	1.626	1257674	WORD	n/a	wordpools/wordpool_categorized_EN.txt	GLUE	OfficeSupplies	12	8	[0, 0, 0]	n/a	catFR1	2	R1372C
1259.248	0.001	1259300	WORD_OFF	n/a	n/a	GLUE	OfficeSupplies	12	8	[0, 0, 0]	n/a	catFR1	2	R1372C
1259.249	0.0	1259301	ENCODING_END	n/a	n/a	n/a	n/a	-999	8	[0, 0, 0]	n/a	catFR1	2	R1372C
1259.249	0.0	1259301	DISTRACT_START	n/a	n/a	n/a	n/a	-999	8	[0, 0, 0]	n/a	catFR1	2	R1372C
1259.249	0.015	1259301	START	n/a	n/a	n/a	n/a	-999	8	[-999, -999, -999]	n/a	catFR1	2	R1372C
1259.264	4.8	1259316	PROB	4.8	n/a	n/a	n/a	-999	8	[6, 1, 6]	13	catFR1	2	R1372C
1264.064	4.502	1264115	PROB	4.502	n/a	n/a	n/a	-999	8	[4, 5, 4]	13	catFR1	2	R1372C
1268.566	7.068	1268617	PROB	7.068	n/a	n/a	n/a	-999	8	[2, 6, 8]	16	catFR1	2	R1372C
1275.634	5.401	1275685	PROB	5.401	n/a	n/a	n/a	-999	8	[3, 2, 9]	12	catFR1	2	R1372C
1281.035	0.016	1281086	STOP	n/a	n/a	n/a	n/a	-999	8	[-999, -999, -999]	n/a	catFR1	2	R1372C
1281.051	0.581	1281102	DISTRACT_END	n/a	n/a	n/a	n/a	-999	8	[0, 0, 0]	n/a	catFR1	2	R1372C
1281.632	1.721	1281683	RETRIEVAL_ORIENT_START	n/a	n/a	n/a	n/a	-999	8	[0, 0, 0]	n/a	catFR1	2	R1372C
1283.353	0.0	1283403	RETRIEVAL_ORIENT_END	n/a	n/a	n/a	n/a	-999	8	[0, 0, 0]	n/a	catFR1	2	R1372C
1283.353	0.631	1283403	REC_START	n/a	n/a	n/a	n/a	-999	8	[0, 0, 0]	n/a	catFR1	2	R1372C
1283.984	4.145	1284034	REC_WORD	4.145	n/a	GNAT	Insects	8	8	[0, 0, 0]	n/a	catFR1	2	R1372C
1288.129	7.311	1288179	REC_WORD	7.311	n/a	TBTHBTHBTHBTH	n/a	-999	8	[0, 0, 0]	n/a	catFR1	2	R1372C
1295.44	17.925	1295490	REC_WORD	17.925	n/a	ROACH	Insects	4	8	[0, 0, 0]	n/a	catFR1	2	R1372C
1313.365	0.0	1313414	REC_END	n/a	n/a	n/a	n/a	-999	8	[0, 0, 0]	n/a	catFR1	2	R1372C
1313.365	0.023	1313414	TRIAL_END	n/a	n/a	n/a	n/a	-999	8	[0, 0, 0]	n/a	catFR1	2	R1372C
1313.388	0.0	1313437	TRIAL_START	n/a	n/a	n/a	n/a	-999	9	[0, 0, 0]	n/a	catFR1	2	R1372C
1313.388	0.0	1313437	TRIAL	n/a	n/a	n/a	n/a	-999	9	[0, 0, 0]	n/a	catFR1	2	R1372C
1313.388	15.173	1313437	WAITING_START	n/a	n/a	n/a	n/a	-999	9	[0, 0, 0]	n/a	catFR1	2	R1372C
1328.561	0.001	1328609	WAITING_END	n/a	n/a	n/a	n/a	-999	9	[0, 0, 0]	n/a	catFR1	2	R1372C
1328.562	10.429	1328610	COUNTDOWN_START	n/a	n/a	n/a	n/a	-999	9	[0, 0, 0]	n/a	catFR1	2	R1372C
1338.991	0.0	1339039	COUNTDOWN_END	n/a	n/a	n/a	n/a	-999	9	[0, 0, 0]	n/a	catFR1	2	R1372C
1338.991	1.122	1339039	ORIENT_START	n/a	n/a	n/a	n/a	-999	9	[0, 0, 0]	n/a	catFR1	2	R1372C
1340.113	0.001	1340160	ORIENT_END	n/a	n/a	n/a	n/a	-999	9	[0, 0, 0]	n/a	catFR1	2	R1372C
1340.114	0.912	1340161	ENCODING_START	n/a	n/a	n/a	n/a	-999	9	[0, 0, 0]	n/a	catFR1	2	R1372C
1341.026	1.621	1341073	WORD	n/a	wordpools/wordpool_categorized_EN.txt	GOOSE	Birds	1	9	[0, 0, 0]	n/a	catFR1	2	R1372C
1342.647	0.972	1342694	WORD_OFF	n/a	n/a	GOOSE	Birds	1	9	[0, 0, 0]	n/a	catFR1	2	R1372C
1343.619	1.628	1343666	WORD	n/a	wordpools/wordpool_categorized_EN.txt	SPARROW	Birds	2	9	[0, 0, 0]	n/a	catFR1	2	R1372C
1345.247	1.13	1345294	WORD_OFF	n/a	n/a	SPARROW	Birds	2	9	[0, 0, 0]	n/a	catFR1	2	R1372C
1346.377	1.637	1346424	WORD	n/a	wordpools/wordpool_categorized_EN.txt	TABLET	Electronics	3	9	[0, 0, 0]	n/a	catFR1	2	R1372C
1348.014	0.844	1348061	WORD_OFF	n/a	n/a	TABLET	Electronics	3	9	[0, 0, 0]	n/a	catFR1	2	R1372C
1348.858	1.624	1348905	WORD	n/a	wordpools/wordpool_categorized_EN.txt	SPEAKER	Electronics	4	9	[0, 0, 0]	n/a	catFR1	2	R1372C
1350.482	0.99	1350529	WORD_OFF	n/a	n/a	SPEAKER	Electronics	4	9	[0, 0, 0]	n/a	catFR1	2	R1372C
1351.472	1.626	1351519	WORD	n/a	wordpools/wordpool_categorized_EN.txt	LEVEL	Tools	5	9	[0, 0, 0]	n/a	catFR1	2	R1372C
1353.098	0.924	1353145	WORD_OFF	n/a	n/a	LEVEL	Tools	5	9	[0, 0, 0]	n/a	catFR1	2	R1372C
1354.022	1.627	1354069	WORD	n/a	wordpools/wordpool_categorized_EN.txt	WRENCH	Tools	6	9	[0, 0, 0]	n/a	catFR1	2	R1372C
1355.649	1.078	1355696	WORD_OFF	n/a	n/a	WRENCH	Tools	6	9	[0, 0, 0]	n/a	catFR1	2	R1372C
1356.727	1.623	1356774	WORD	n/a	wordpools/wordpool_categorized_EN.txt	CARDINAL	Birds	7	9	[0, 0, 0]	n/a	catFR1	2	R1372C
1358.35	0.784	1358397	WORD_OFF	n/a	n/a	CARDINAL	Birds	7	9	[0, 0, 0]	n/a	catFR1	2	R1372C
1359.134	1.633	1359180	WORD	n/a	wordpools/wordpool_categorized_EN.txt	SEAGULL	Birds	8	9	[0, 0, 0]	n/a	catFR1	2	R1372C
1360.767	1.142	1360813	WORD_OFF	n/a	n/a	SEAGULL	Birds	8	9	[0, 0, 0]	n/a	catFR1	2	R1372C
1361.909	1.625	1361955	WORD	n/a	wordpools/wordpool_categorized_EN.txt	PHONE	Electronics	9	9	[0, 0, 0]	n/a	catFR1	2	R1372C
1363.534	0.878	1363580	WORD_OFF	n/a	n/a	PHONE	Electronics	9	9	[0, 0, 0]	n/a	catFR1	2	R1372C
1364.412	1.639	1364458	WORD	n/a	wordpools/wordpool_categorized_EN.txt	MICROWAVE	Electronics	10	9	[0, 0, 0]	n/a	catFR1	2	R1372C
1366.051	1.094	1366097	WORD_OFF	n/a	n/a	MICROWAVE	Electronics	10	9	[0, 0, 0]	n/a	catFR1	2	R1372C
1367.145	1.624	1367191	WORD	n/a	wordpools/wordpool_categorized_EN.txt	SAW	Tools	11	9	[0, 0, 0]	n/a	catFR1	2	R1372C
1368.769	0.98	1368815	WORD_OFF	n/a	n/a	SAW	Tools	11	9	[0, 0, 0]	n/a	catFR1	2	R1372C
1369.749	1.637	1369795	WORD	n/a	wordpools/wordpool_categorized_EN.txt	CROWBAR	Tools	12	9	[0, 0, 0]	n/a	catFR1	2	R1372C
1371.386	0.0	1371432	WORD_OFF	n/a	n/a	CROWBAR	Tools	12	9	[0, 0, 0]	n/a	catFR1	2	R1372C
1371.386	0.001	1371432	ENCODING_END	n/a	n/a	n/a	n/a	-999	9	[0, 0, 0]	n/a	catFR1	2	R1372C
1371.387	0.0	1371433	DISTRACT_START	n/a	n/a	n/a	n/a	-999	9	[0, 0, 0]	n/a	catFR1	2	R1372C
1371.387	0.015	1371433	START	n/a	n/a	n/a	n/a	-999	9	[-999, -999, -999]	n/a	catFR1	2	R1372C
1371.402	8.368	1371448	PROB	8.368	n/a	n/a	n/a	-999	9	[3, 9, 5]	17	catFR1	2	R1372C
1379.77	10.102	1379815	PROB	10.102	n/a	n/a	n/a	-999	9	[5, 9, 7]	19	catFR1	2	R1372C
1389.872	5.939	1389917	PROB	5.939	n/a	n/a	n/a	-999	9	[6, 3, 2]	11	catFR1	2	R1372C
1395.811	0.013	1395856	STOP	n/a	n/a	n/a	n/a	-999	9	[-999, -999, -999]	n/a	catFR1	2	R1372C
1395.824	0.59	1395869	DISTRACT_END	n/a	n/a	n/a	n/a	-999	9	[0, 0, 0]	n/a	catFR1	2	R1372C
1396.414	1.559	1396459	RETRIEVAL_ORIENT_START	n/a	n/a	n/a	n/a	-999	9	[0, 0, 0]	n/a	catFR1	2	R1372C
1397.973	0.0	1398017	RETRIEVAL_ORIENT_END	n/a	n/a	n/a	n/a	-999	9	[0, 0, 0]	n/a	catFR1	2	R1372C
1397.973	10.77	1398017	REC_START	n/a	n/a	n/a	n/a	-999	9	[0, 0, 0]	n/a	catFR1	2	R1372C
1408.743	6.359	1408787	REC_WORD	6.359	n/a	CARDINAL	Birds	7	9	[0, 0, 0]	n/a	catFR1	2	R1372C
1415.102	12.883	1415146	REC_WORD	12.883	n/a	SPARROW	Birds	2	9	[0, 0, 0]	n/a	catFR1	2	R1372C
1427.985	0.0	1428028	REC_END	n/a	n/a	n/a	n/a	-999	9	[0, 0, 0]	n/a	catFR1	2	R1372C
1427.985	0.023	1428028	TRIAL_END	n/a	n/a	n/a	n/a	-999	9	[0, 0, 0]	n/a	catFR1	2	R1372C
1428.008	0.0	1428051	TRIAL_START	n/a	n/a	n/a	n/a	-999	10	[0, 0, 0]	n/a	catFR1	2	R1372C
1428.008	0.0	1428051	TRIAL	n/a	n/a	n/a	n/a	-999	10	[0, 0, 0]	n/a	catFR1	2	R1372C
1428.008	23.726	1428051	WAITING_START	n/a	n/a	n/a	n/a	-999	10	[0, 0, 0]	n/a	catFR1	2	R1372C
1451.734	0.001	1451776	WAITING_END	n/a	n/a	n/a	n/a	-999	10	[0, 0, 0]	n/a	catFR1	2	R1372C
1451.735	10.429	1451777	COUNTDOWN_START	n/a	n/a	n/a	n/a	-999	10	[0, 0, 0]	n/a	catFR1	2	R1372C
1462.164	0.001	1462205	COUNTDOWN_END	n/a	n/a	n/a	n/a	-999	10	[0, 0, 0]	n/a	catFR1	2	R1372C
1462.165	1.221	1462206	ORIENT_START	n/a	n/a	n/a	n/a	-999	10	[0, 0, 0]	n/a	catFR1	2	R1372C
1463.386	0.001	1463427	ORIENT_END	n/a	n/a	n/a	n/a	-999	10	[0, 0, 0]	n/a	catFR1	2	R1372C
1463.387	0.999	1463428	ENCODING_START	n/a	n/a	n/a	n/a	-999	10	[0, 0, 0]	n/a	catFR1	2	R1372C
1464.386	1.633	1464427	WORD	n/a	wordpools/wordpool_categorized_EN.txt	STOVE	Appliances	1	10	[0, 0, 0]	n/a	catFR1	2	R1372C
1466.019	0.886	1466060	WORD_OFF	n/a	n/a	STOVE	Appliances	1	10	[0, 0, 0]	n/a	catFR1	2	R1372C
1466.905	1.632	1466946	WORD	n/a	wordpools/wordpool_categorized_EN.txt	TOASTER	Appliances	2	10	[0, 0, 0]	n/a	catFR1	2	R1372C
1468.537	1.084	1468578	WORD_OFF	n/a	n/a	TOASTER	Appliances	2	10	[0, 0, 0]	n/a	catFR1	2	R1372C
1469.621	1.633	1469662	WORD	n/a	wordpools/wordpool_categorized_EN.txt	DOLL	Toys	3	10	[0, 0, 0]	n/a	catFR1	2	R1372C
1471.254	0.799	1471295	WORD_OFF	n/a	n/a	DOLL	Toys	3	10	[0, 0, 0]	n/a	catFR1	2	R1372C
1472.053	1.635	1472094	WORD	n/a	wordpools/wordpool_categorized_EN.txt	BASEBALL	Toys	4	10	[0, 0, 0]	n/a	catFR1	2	R1372C
1473.688	1.114	1473728	WORD_OFF	n/a	n/a	BASEBALL	Toys	4	10	[0, 0, 0]	n/a	catFR1	2	R1372C
1474.802	1.637	1474842	WORD	n/a	wordpools/wordpool_categorized_EN.txt	BROCCOLI	Vegetables	5	10	[0, 0, 0]	n/a	catFR1	2	R1372C
1476.439	0.85	1476479	WORD_OFF	n/a	n/a	BROCCOLI	Vegetables	5	10	[0, 0, 0]	n/a	catFR1	2	R1372C
1477.289	1.634	1477329	WORD	n/a	wordpools/wordpool_categorized_EN.txt	CABBAGE	Vegetables	6	10	[0, 0, 0]	n/a	catFR1	2	R1372C
1478.923	1.099	1478963	WORD_OFF	n/a	n/a	CABBAGE	Vegetables	6	10	[0, 0, 0]	n/a	catFR1	2	R1372C
1480.022	1.634	1480062	WORD	n/a	wordpools/wordpool_categorized_EN.txt	SLINKY	Toys	7	10	[0, 0, 0]	n/a	catFR1	2	R1372C
1481.656	0.931	1481696	WORD_OFF	n/a	n/a	SLINKY	Toys	7	10	[0, 0, 0]	n/a	catFR1	2	R1372C
1482.587	1.637	1482627	WORD	n/a	wordpools/wordpool_categorized_EN.txt	DOLLHOUSE	Toys	8	10	[0, 0, 0]	n/a	catFR1	2	R1372C
1484.224	1.125	1484264	WORD_OFF	n/a	n/a	DOLLHOUSE	Toys	8	10	[0, 0, 0]	n/a	catFR1	2	R1372C
1485.349	1.624	1485389	WORD	n/a	wordpools/wordpool_categorized_EN.txt	CELERY	Vegetables	9	10	[0, 0, 0]	n/a	catFR1	2	R1372C
1486.973	0.912	1487013	WORD_OFF	n/a	n/a	CELERY	Vegetables	9	10	[0, 0, 0]	n/a	catFR1	2	R1372C
1487.885	1.623	1487925	WORD	n/a	wordpools/wordpool_categorized_EN.txt	LETTUCE	Vegetables	10	10	[0, 0, 0]	n/a	catFR1	2	R1372C
1489.508	0.792	1489548	WORD_OFF	n/a	n/a	LETTUCE	Vegetables	10	10	[0, 0, 0]	n/a	catFR1	2	R1372C
1490.3	1.625	1490340	WORD	n/a	wordpools/wordpool_categorized_EN.txt	FREEZER	Appliances	11	10	[0, 0, 0]	n/a	catFR1	2	R1372C
1491.925	0.776	1491965	WORD_OFF	n/a	n/a	FREEZER	Appliances	11	10	[0, 0, 0]	n/a	catFR1	2	R1372C
1492.701	1.624	1492740	WORD	n/a	wordpools/wordpool_categorized_EN.txt	DRYER	Appliances	12	10	[0, 0, 0]	n/a	catFR1	2	R1372C
1494.325	0.001	1494364	WORD_OFF	n/a	n/a	DRYER	Appliances	12	10	[0, 0, 0]	n/a	catFR1	2	R1372C
1494.326	0.0	1494365	ENCODING_END	n/a	n/a	n/a	n/a	-999	10	[0, 0, 0]	n/a	catFR1	2	R1372C
1494.326	0.001	1494365	DISTRACT_START	n/a	n/a	n/a	n/a	-999	10	[0, 0, 0]	n/a	catFR1	2	R1372C
1494.327	0.015	1494366	START	n/a	n/a	n/a	n/a	-999	10	[-999, -999, -999]	n/a	catFR1	2	R1372C
1494.342	5.633	1494381	PROB	5.633	n/a	n/a	n/a	-999	10	[3, 4, 7]	14	catFR1	2	R1372C
1499.975	4.268	1500014	PROB	4.268	n/a	n/a	n/a	-999	10	[1, 4, 2]	7	catFR1	2	R1372C
1504.243	5.218	1504282	PROB	5.218	n/a	n/a	n/a	-999	10	[9, 1, 5]	15	catFR1	2	R1372C
1509.461	7.187	1509500	PROB	7.187	n/a	n/a	n/a	-999	10	[5, 6, 5]	16	catFR1	2	R1372C
1516.648	0.015	1516686	STOP	n/a	n/a	n/a	n/a	-999	10	[-999, -999, -999]	n/a	catFR1	2	R1372C
1516.663	0.698	1516701	DISTRACT_END	n/a	n/a	n/a	n/a	-999	10	[0, 0, 0]	n/a	catFR1	2	R1372C
1517.361	1.635	1517399	RETRIEVAL_ORIENT_START	n/a	n/a	n/a	n/a	-999	10	[0, 0, 0]	n/a	catFR1	2	R1372C
1518.996	0.0	1519034	RETRIEVAL_ORIENT_END	n/a	n/a	n/a	n/a	-999	10	[0, 0, 0]	n/a	catFR1	2	R1372C
1518.996	0.594	1519034	REC_START	n/a	n/a	n/a	n/a	-999	10	[0, 0, 0]	n/a	catFR1	2	R1372C
1519.59	1.594	1519628	REC_WORD	1.594	n/a	SLINKY	Toys	7	10	[0, 0, 0]	n/a	catFR1	2	R1372C
1521.184	8.644	1521222	REC_WORD	8.644	n/a	MICROWAVE	Electronics	-999	10	[0, 0, 0]	n/a	catFR1	2	R1372C
1529.828	16.464	1529866	REC_WORD	16.464	n/a	WASHER	Appliances	-999	10	[0, 0, 0]	n/a	catFR1	2	R1372C
1546.292	2.714	1546329	REC_WORD	2.714	n/a	CELERY	Vegetables	9	10	[0, 0, 0]	n/a	catFR1	2	R1372C
1549.006	0.0	1549043	REC_END	n/a	n/a	n/a	n/a	-999	10	[0, 0, 0]	n/a	catFR1	2	R1372C
1549.006	0.022	1549043	TRIAL_END	n/a	n/a	n/a	n/a	-999	10	[0, 0, 0]	n/a	catFR1	2	R1372C
1549.028	0.001	1549065	TRIAL_START	n/a	n/a	n/a	n/a	-999	11	[0, 0, 0]	n/a	catFR1	2	R1372C
1549.029	0.0	1549066	TRIAL	n/a	n/a	n/a	n/a	-999	11	[0, 0, 0]	n/a	catFR1	2	R1372C
1549.029	24.695	1549066	WAITING_START	n/a	n/a	n/a	n/a	-999	11	[0, 0, 0]	n/a	catFR1	2	R1372C
1573.724	0.0	1573759	WAITING_END	n/a	n/a	n/a	n/a	-999	11	[0, 0, 0]	n/a	catFR1	2	R1372C
1573.724	10.429	1573759	COUNTDOWN_START	n/a	n/a	n/a	n/a	-999	11	[0, 0, 0]	n/a	catFR1	2	R1372C
1584.153	0.001	1584188	COUNTDOWN_END	n/a	n/a	n/a	n/a	-999	11	[0, 0, 0]	n/a	catFR1	2	R1372C
1584.154	1.122	1584189	ORIENT_START	n/a	n/a	n/a	n/a	-999	11	[0, 0, 0]	n/a	catFR1	2	R1372C
1585.276	0.0	1585311	ORIENT_END	n/a	n/a	n/a	n/a	-999	11	[0, 0, 0]	n/a	catFR1	2	R1372C
1585.276	1.109	1585311	ENCODING_START	n/a	n/a	n/a	n/a	-999	11	[0, 0, 0]	n/a	catFR1	2	R1372C
1586.385	1.624	1586420	WORD	n/a	wordpools/wordpool_categorized_EN.txt	BLUEBIRD	Birds	1	11	[0, 0, 0]	n/a	catFR1	2	R1372C
1588.009	1.076	1588043	WORD_OFF	n/a	n/a	BLUEBIRD	Birds	1	11	[0, 0, 0]	n/a	catFR1	2	R1372C
1589.085	1.625	1589119	WORD	n/a	wordpools/wordpool_categorized_EN.txt	PIGEON	Birds	2	11	[0, 0, 0]	n/a	catFR1	2	R1372C
1590.71	1.022	1590744	WORD_OFF	n/a	n/a	PIGEON	Birds	2	11	[0, 0, 0]	n/a	catFR1	2	R1372C
1591.732	1.629	1591766	WORD	n/a	wordpools/wordpool_categorized_EN.txt	FOOT	BodyParts	3	11	[0, 0, 0]	n/a	catFR1	2	R1372C
1593.361	1.04	1593395	WORD_OFF	n/a	n/a	FOOT	BodyParts	3	11	[0, 0, 0]	n/a	catFR1	2	R1372C
1594.401	1.627	1594435	WORD	n/a	wordpools/wordpool_categorized_EN.txt	FINGERS	BodyParts	4	11	[0, 0, 0]	n/a	catFR1	2	R1372C
1596.028	1.002	1596062	WORD_OFF	n/a	n/a	FINGERS	BodyParts	4	11	[0, 0, 0]	n/a	catFR1	2	R1372C
1597.03	1.614	1597064	WORD	n/a	wordpools/wordpool_categorized_EN.txt	LADLE	KitchenTools	5	11	[0, 0, 0]	n/a	catFR1	2	R1372C
1598.644	0.917	1598678	WORD_OFF	n/a	n/a	LADLE	KitchenTools	5	11	[0, 0, 0]	n/a	catFR1	2	R1372C
1599.561	1.634	1599595	WORD	n/a	wordpools/wordpool_categorized_EN.txt	PEELER	KitchenTools	6	11	[0, 0, 0]	n/a	catFR1	2	R1372C
1601.195	1.111	1601229	WORD_OFF	n/a	n/a	PEELER	KitchenTools	6	11	[0, 0, 0]	n/a	catFR1	2	R1372C
1602.306	1.623	1602340	WORD	n/a	wordpools/wordpool_categorized_EN.txt	DOVE	Birds	7	11	[0, 0, 0]	n/a	catFR1	2	R1372C
1603.929	1.014	1603963	WORD_OFF	n/a	n/a	DOVE	Birds	7	11	[0, 0, 0]	n/a	catFR1	2	R1372C
1604.943	1.637	1604977	WORD	n/a	wordpools/wordpool_categorized_EN.txt	HAWK	Birds	8	11	[0, 0, 0]	n/a	catFR1	2	R1372C
1606.58	1.034	1606613	WORD_OFF	n/a	n/a	HAWK	Birds	8	11	[0, 0, 0]	n/a	catFR1	2	R1372C
1607.614	1.633	1607647	WORD	n/a	wordpools/wordpool_categorized_EN.txt	EAR	BodyParts	9	11	[0, 0, 0]	n/a	catFR1	2	R1372C
1609.247	1.005	1609280	WORD_OFF	n/a	n/a	EAR	BodyParts	9	11	[0, 0, 0]	n/a	catFR1	2	R1372C
1610.252	1.629	1610285	WORD	n/a	wordpools/wordpool_categorized_EN.txt	ARM	BodyParts	10	11	[0, 0, 0]	n/a	catFR1	2	R1372C
1611.881	1.136	1611914	WORD_OFF	n/a	n/a	ARM	BodyParts	10	11	[0, 0, 0]	n/a	catFR1	2	R1372C
1613.017	1.631	1613050	WORD	n/a	wordpools/wordpool_categorized_EN.txt	COLANDER	KitchenTools	11	11	[0, 0, 0]	n/a	catFR1	2	R1372C
1614.648	1.139	1614681	WORD_OFF	n/a	n/a	COLANDER	KitchenTools	11	11	[0, 0, 0]	n/a	catFR1	2	R1372C
1615.787	1.628	1615820	WORD	n/a	wordpools/wordpool_categorized_EN.txt	FORK	KitchenTools	12	11	[0, 0, 0]	n/a	catFR1	2	R1372C
1617.415	0.001	1617448	WORD_OFF	n/a	n/a	FORK	KitchenTools	12	11	[0, 0, 0]	n/a	catFR1	2	R1372C
1617.416	0.0	1617449	ENCODING_END	n/a	n/a	n/a	n/a	-999	11	[0, 0, 0]	n/a	catFR1	2	R1372C
1617.416	0.0	1617449	DISTRACT_START	n/a	n/a	n/a	n/a	-999	11	[0, 0, 0]	n/a	catFR1	2	R1372C
1617.416	0.015	1617449	START	n/a	n/a	n/a	n/a	-999	11	[-999, -999, -999]	n/a	catFR1	2	R1372C
1617.431	5.068	1617464	PROB	5.068	n/a	n/a	n/a	-999	11	[9, 5, 9]	15	catFR1	2	R1372C
1622.499	6.385	1622532	PROB	6.385	n/a	n/a	n/a	-999	11	[7, 9, 5]	21	catFR1	2	R1372C
1628.884	4.917	1628916	PROB	4.917	n/a	n/a	n/a	-999	11	[2, 1, 8]	11	catFR1	2	R1372C
1633.801	3.897	1633833	PROB	3.897	n/a	n/a	n/a	-999	11	[4, 9, 9]	22	catFR1	2	R1372C
1637.698	0.021	1637730	STOP	n/a	n/a	n/a	n/a	-999	11	[-999, -999, -999]	n/a	catFR1	2	R1372C
1637.719	0.605	1637751	DISTRACT_END	n/a	n/a	n/a	n/a	-999	11	[0, 0, 0]	n/a	catFR1	2	R1372C
1638.324	1.711	1638356	RETRIEVAL_ORIENT_START	n/a	n/a	n/a	n/a	-999	11	[0, 0, 0]	n/a	catFR1	2	R1372C
1640.035	0.001	1640067	RETRIEVAL_ORIENT_END	n/a	n/a	n/a	n/a	-999	11	[0, 0, 0]	n/a	catFR1	2	R1372C
1640.036	1.124	1640068	REC_START	n/a	n/a	n/a	n/a	-999	11	[0, 0, 0]	n/a	catFR1	2	R1372C
1641.16	1.36	1641192	REC_WORD	1.36	n/a	COLANDER	KitchenTools	11	11	[0, 0, 0]	n/a	catFR1	2	R1372C
1642.52	27.526	1642552	REC_WORD	27.526	n/a	PEELER	KitchenTools	6	11	[0, 0, 0]	n/a	catFR1	2	R1372C
1670.046	0.0	1670076	REC_END	n/a	n/a	n/a	n/a	-999	11	[0, 0, 0]	n/a	catFR1	2	R1372C
1670.046	0.022	1670076	TRIAL_END	n/a	n/a	n/a	n/a	-999	11	[0, 0, 0]	n/a	catFR1	2	R1372C
1670.068	0.0	1670098	TRIAL_START	n/a	n/a	n/a	n/a	-999	12	[0, 0, 0]	n/a	catFR1	2	R1372C
1670.068	0.001	1670098	TRIAL	n/a	n/a	n/a	n/a	-999	12	[0, 0, 0]	n/a	catFR1	2	R1372C
1670.069	13.509	1670099	WAITING_START	n/a	n/a	n/a	n/a	-999	12	[0, 0, 0]	n/a	catFR1	2	R1372C
1683.578	0.0	1683607	WAITING_END	n/a	n/a	n/a	n/a	-999	12	[0, 0, 0]	n/a	catFR1	2	R1372C
1683.578	10.43	1683607	COUNTDOWN_START	n/a	n/a	n/a	n/a	-999	12	[0, 0, 0]	n/a	catFR1	2	R1372C
1694.008	0.001	1694037	COUNTDOWN_END	n/a	n/a	n/a	n/a	-999	12	[0, 0, 0]	n/a	catFR1	2	R1372C
1694.009	1.02	1694038	ORIENT_START	n/a	n/a	n/a	n/a	-999	12	[0, 0, 0]	n/a	catFR1	2	R1372C
1695.029	0.0	1695058	ORIENT_END	n/a	n/a	n/a	n/a	-999	12	[0, 0, 0]	n/a	catFR1	2	R1372C
1695.029	1.12	1695058	ENCODING_START	n/a	n/a	n/a	n/a	-999	12	[0, 0, 0]	n/a	catFR1	2	R1372C
1696.149	1.631	1696178	WORD	n/a	wordpools/wordpool_categorized_EN.txt	ROBIN	Birds	1	12	[0, 0, 0]	n/a	catFR1	2	R1372C
1697.78	0.863	1697809	WORD_OFF	n/a	n/a	ROBIN	Birds	1	12	[0, 0, 0]	n/a	catFR1	2	R1372C
1698.643	1.638	1698672	WORD	n/a	wordpools/wordpool_categorized_EN.txt	DUCK	Birds	2	12	[0, 0, 0]	n/a	catFR1	2	R1372C
1700.281	0.813	1700310	WORD_OFF	n/a	n/a	DUCK	Birds	2	12	[0, 0, 0]	n/a	catFR1	2	R1372C
1701.094	1.637	1701123	WORD	n/a	wordpools/wordpool_categorized_EN.txt	JELLO	Desserts	3	12	[0, 0, 0]	n/a	catFR1	2	R1372C
1702.731	0.837	1702759	WORD_OFF	n/a	n/a	JELLO	Desserts	3	12	[0, 0, 0]	n/a	catFR1	2	R1372C
1703.568	1.63	1703596	WORD	n/a	wordpools/wordpool_categorized_EN.txt	PUDDING	Desserts	4	12	[0, 0, 0]	n/a	catFR1	2	R1372C
1705.198	1.138	1705226	WORD_OFF	n/a	n/a	PUDDING	Desserts	4	12	[0, 0, 0]	n/a	catFR1	2	R1372C
1706.336	1.629	1706364	WORD	n/a	wordpools/wordpool_categorized_EN.txt	BUTTERFLY	Insects	5	12	[0, 0, 0]	n/a	catFR1	2	R1372C
1707.965	1.132	1707993	WORD_OFF	n/a	n/a	BUTTERFLY	Insects	5	12	[0, 0, 0]	n/a	catFR1	2	R1372C
1709.097	1.636	1709125	WORD	n/a	wordpools/wordpool_categorized_EN.txt	SPIDER	Insects	6	12	[0, 0, 0]	n/a	catFR1	2	R1372C
1710.733	1.024	1710761	WORD_OFF	n/a	n/a	SPIDER	Insects	6	12	[0, 0, 0]	n/a	catFR1	2	R1372C
1711.757	1.626	1711785	WORD	n/a	wordpools/wordpool_categorized_EN.txt	FINCH	Birds	7	12	[0, 0, 0]	n/a	catFR1	2	R1372C
1713.383	1.044	1713411	WORD_OFF	n/a	n/a	FINCH	Birds	7	12	[0, 0, 0]	n/a	catFR1	2	R1372C
1714.427	1.624	1714455	WORD	n/a	wordpools/wordpool_categorized_EN.txt	CROW	Birds	8	12	[0, 0, 0]	n/a	catFR1	2	R1372C
1716.051	0.832	1716079	WORD_OFF	n/a	n/a	CROW	Birds	8	12	[0, 0, 0]	n/a	catFR1	2	R1372C
1716.883	1.635	1716911	WORD	n/a	wordpools/wordpool_categorized_EN.txt	BEE	Insects	9	12	[0, 0, 0]	n/a	catFR1	2	R1372C
1718.518	1.054	1718546	WORD_OFF	n/a	n/a	BEE	Insects	9	12	[0, 0, 0]	n/a	catFR1	2	R1372C
1719.572	1.629	1719600	WORD	n/a	wordpools/wordpool_categorized_EN.txt	MOSQUITO	Insects	10	12	[0, 0, 0]	n/a	catFR1	2	R1372C
1721.201	0.76	1721228	WORD_OFF	n/a	n/a	MOSQUITO	Insects	10	12	[0, 0, 0]	n/a	catFR1	2	R1372C
1721.961	1.641	1721988	WORD	n/a	wordpools/wordpool_categorized_EN.txt	CHEESECAKE	Desserts	11	12	[0, 0, 0]	n/a	catFR1	2	R1372C
1723.602	0.886	1723629	WORD_OFF	n/a	n/a	CHEESECAKE	Desserts	11	12	[0, 0, 0]	n/a	catFR1	2	R1372C
1724.488	1.631	1724515	WORD	n/a	wordpools/wordpool_categorized_EN.txt	PASTRY	Desserts	12	12	[0, 0, 0]	n/a	catFR1	2	R1372C
1726.119	0.0	1726146	WORD_OFF	n/a	n/a	PASTRY	Desserts	12	12	[0, 0, 0]	n/a	catFR1	2	R1372C
1726.119	0.001	1726146	ENCODING_END	n/a	n/a	n/a	n/a	-999	12	[0, 0, 0]	n/a	catFR1	2	R1372C
1726.12	0.0	1726147	DISTRACT_START	n/a	n/a	n/a	n/a	-999	12	[0, 0, 0]	n/a	catFR1	2	R1372C
1726.12	0.015	1726147	START	n/a	n/a	n/a	n/a	-999	12	[-999, -999, -999]	n/a	catFR1	2	R1372C
1726.135	5.618	1726162	PROB	5.618	n/a	n/a	n/a	-999	12	[2, 8, 8]	18	catFR1	2	R1372C
1731.753	3.884	1731780	PROB	3.884	n/a	n/a	n/a	-999	12	[9, 9, 4]	22	catFR1	2	R1372C
1735.637	5.184	1735664	PROB	5.184	n/a	n/a	n/a	-999	12	[3, 9, 9]	21	catFR1	2	R1372C
1740.821	3.468	1740847	PROB	3.468	n/a	n/a	n/a	-999	12	[8, 3, 1]	12	catFR1	2	R1372C
1744.289	3.714	1744315	PROB	3.714	n/a	n/a	n/a	-999	12	[1, 3, 4]	8	catFR1	2	R1372C
1748.003	0.019	1748029	STOP	n/a	n/a	n/a	n/a	-999	12	[-999, -999, -999]	n/a	catFR1	2	R1372C
1748.022	0.664	1748048	DISTRACT_END	n/a	n/a	n/a	n/a	-999	12	[0, 0, 0]	n/a	catFR1	2	R1372C
1748.686	1.687	1748712	RETRIEVAL_ORIENT_START	n/a	n/a	n/a	n/a	-999	12	[0, 0, 0]	n/a	catFR1	2	R1372C
1750.373	0.001	1750399	RETRIEVAL_ORIENT_END	n/a	n/a	n/a	n/a	-999	12	[0, 0, 0]	n/a	catFR1	2	R1372C
1750.374	1.137	1750400	REC_START	n/a	n/a	n/a	n/a	-999	12	[0, 0, 0]	n/a	catFR1	2	R1372C
1751.511	28.874	1751537	REC_WORD	28.874	n/a	COLANDER	KitchenTools	-999	12	[0, 0, 0]	n/a	catFR1	2	R1372C
1780.385	0.0	1780409	REC_END	n/a	n/a	n/a	n/a	-999	12	[0, 0, 0]	n/a	catFR1	2	R1372C
1780.385	0.025	1780409	TRIAL_END	n/a	n/a	n/a	n/a	-999	12	[0, 0, 0]	n/a	catFR1	2	R1372C
1780.41	0.0	1780434	TRIAL_START	n/a	n/a	n/a	n/a	-999	13	[0, 0, 0]	n/a	catFR1	2	R1372C
1780.41	0.001	1780434	TRIAL	n/a	n/a	n/a	n/a	-999	13	[0, 0, 0]	n/a	catFR1	2	R1372C
1780.411	14.454	1780435	WAITING_START	n/a	n/a	n/a	n/a	-999	13	[0, 0, 0]	n/a	catFR1	2	R1372C
1794.865	0.001	1794889	WAITING_END	n/a	n/a	n/a	n/a	-999	13	[0, 0, 0]	n/a	catFR1	2	R1372C
1794.866	10.428	1794890	COUNTDOWN_START	n/a	n/a	n/a	n/a	-999	13	[0, 0, 0]	n/a	catFR1	2	R1372C
1805.294	0.001	1805317	COUNTDOWN_END	n/a	n/a	n/a	n/a	-999	13	[0, 0, 0]	n/a	catFR1	2	R1372C
1805.295	1.157	1805318	ORIENT_START	n/a	n/a	n/a	n/a	-999	13	[0, 0, 0]	n/a	catFR1	2	R1372C
1806.452	0.001	1806475	ORIENT_END	n/a	n/a	n/a	n/a	-999	13	[0, 0, 0]	n/a	catFR1	2	R1372C
1806.453	0.885	1806476	ENCODING_START	n/a	n/a	n/a	n/a	-999	13	[0, 0, 0]	n/a	catFR1	2	R1372C
1807.338	1.629	1807361	WORD	n/a	wordpools/wordpool_categorized_EN.txt	VACUUM	Appliances	1	13	[0, 0, 0]	n/a	catFR1	2	R1372C
1808.967	1.115	1808990	WORD_OFF	n/a	n/a	VACUUM	Appliances	1	13	[0, 0, 0]	n/a	catFR1	2	R1372C
1810.082	1.636	1810105	WORD	n/a	wordpools/wordpool_categorized_EN.txt	IRON	Appliances	2	13	[0, 0, 0]	n/a	catFR1	2	R1372C
1811.718	0.908	1811741	WORD_OFF	n/a	n/a	IRON	Appliances	2	13	[0, 0, 0]	n/a	catFR1	2	R1372C
1812.626	1.626	1812649	WORD	n/a	wordpools/wordpool_categorized_EN.txt	DRESS	Clothing	3	13	[0, 0, 0]	n/a	catFR1	2	R1372C
1814.252	0.835	1814275	WORD_OFF	n/a	n/a	DRESS	Clothing	3	13	[0, 0, 0]	n/a	catFR1	2	R1372C
1815.087	1.632	1815110	WORD	n/a	wordpools/wordpool_categorized_EN.txt	JACKET	Clothing	4	13	[0, 0, 0]	n/a	catFR1	2	R1372C
1816.719	0.776	1816741	WORD_OFF	n/a	n/a	JACKET	Clothing	4	13	[0, 0, 0]	n/a	catFR1	2	R1372C
1817.495	1.625	1817517	WORD	n/a	wordpools/wordpool_categorized_EN.txt	SPRUCE	Trees	5	13	[0, 0, 0]	n/a	catFR1	2	R1372C
1819.12	0.907	1819142	WORD_OFF	n/a	n/a	SPRUCE	Trees	5	13	[0, 0, 0]	n/a	catFR1	2	R1372C
1820.027	1.609	1820049	WORD	n/a	wordpools/wordpool_categorized_EN.txt	WILLOW	Trees	6	13	[0, 0, 0]	n/a	catFR1	2	R1372C
1821.636	0.77	1821658	WORD_OFF	n/a	n/a	WILLOW	Trees	6	13	[0, 0, 0]	n/a	catFR1	2	R1372C
1822.406	1.63	1822428	WORD	n/a	wordpools/wordpool_categorized_EN.txt	DISHWASHER	Appliances	7	13	[0, 0, 0]	n/a	catFR1	2	R1372C
1824.036	0.881	1824058	WORD_OFF	n/a	n/a	DISHWASHER	Appliances	7	13	[0, 0, 0]	n/a	catFR1	2	R1372C
1824.917	1.637	1824939	WORD	n/a	wordpools/wordpool_categorized_EN.txt	OVEN	Appliances	8	13	[0, 0, 0]	n/a	catFR1	2	R1372C
1826.554	0.951	1826576	WORD_OFF	n/a	n/a	OVEN	Appliances	8	13	[0, 0, 0]	n/a	catFR1	2	R1372C
1827.505	1.633	1827527	WORD	n/a	wordpools/wordpool_categorized_EN.txt	OAK	Trees	9	13	[0, 0, 0]	n/a	catFR1	2	R1372C
1829.138	0.753	1829160	WORD_OFF	n/a	n/a	OAK	Trees	9	13	[0, 0, 0]	n/a	catFR1	2	R1372C
1829.891	1.631	1829913	WORD	n/a	wordpools/wordpool_categorized_EN.txt	WALNUT	Trees	10	13	[0, 0, 0]	n/a	catFR1	2	R1372C
1831.522	1.108	1831544	WORD_OFF	n/a	n/a	WALNUT	Trees	10	13	[0, 0, 0]	n/a	catFR1	2	R1372C
1832.63	1.626	1832652	WORD	n/a	wordpools/wordpool_categorized_EN.txt	PANTS	Clothing	11	13	[0, 0, 0]	n/a	catFR1	2	R1372C
1834.256	0.912	1834278	WORD_OFF	n/a	n/a	PANTS	Clothing	11	13	[0, 0, 0]	n/a	catFR1	2	R1372C
1835.168	1.638	1835189	WORD	n/a	wordpools/wordpool_categorized_EN.txt	BLOUSE	Clothing	12	13	[0, 0, 0]	n/a	catFR1	2	R1372C
1836.806	0.001	1836827	WORD_OFF	n/a	n/a	BLOUSE	Clothing	12	13	[0, 0, 0]	n/a	catFR1	2	R1372C
1836.807	0.0	1836828	ENCODING_END	n/a	n/a	n/a	n/a	-999	13	[0, 0, 0]	n/a	catFR1	2	R1372C
1836.807	0.001	1836828	DISTRACT_START	n/a	n/a	n/a	n/a	-999	13	[0, 0, 0]	n/a	catFR1	2	R1372C
1836.808	0.015	1836829	START	n/a	n/a	n/a	n/a	-999	13	[-999, -999, -999]	n/a	catFR1	2	R1372C
1836.823	4.384	1836844	PROB	4.384	n/a	n/a	n/a	-999	13	[3, 1, 5]	9	catFR1	2	R1372C
1841.207	5.418	1841228	PROB	5.418	n/a	n/a	n/a	-999	13	[2, 2, 6]	10	catFR1	2	R1372C
1846.625	6.151	1846646	PROB	6.151	n/a	n/a	n/a	-999	13	[1, 4, 2]	7	catFR1	2	R1372C
1852.776	4.404	1852797	PROB	4.404	n/a	n/a	n/a	-999	13	[5, 4, 2]	11	catFR1	2	R1372C
1857.18	0.014	1857200	STOP	n/a	n/a	n/a	n/a	-999	13	[-999, -999, -999]	n/a	catFR1	2	R1372C
1857.194	0.565	1857214	DISTRACT_END	n/a	n/a	n/a	n/a	-999	13	[0, 0, 0]	n/a	catFR1	2	R1372C
1857.759	1.568	1857779	RETRIEVAL_ORIENT_START	n/a	n/a	n/a	n/a	-999	13	[0, 0, 0]	n/a	catFR1	2	R1372C
1859.327	0.001	1859347	RETRIEVAL_ORIENT_END	n/a	n/a	n/a	n/a	-999	13	[0, 0, 0]	n/a	catFR1	2	R1372C
1859.328	2.83	1859348	REC_START	n/a	n/a	n/a	n/a	-999	13	[0, 0, 0]	n/a	catFR1	2	R1372C
1862.158	4.565	1862178	REC_WORD	4.565	n/a	ELM	Trees	-999	13	[0, 0, 0]	n/a	catFR1	2	R1372C
1866.723	14.604	1866743	REC_WORD	14.604	n/a	OAK	Trees	9	13	[0, 0, 0]	n/a	catFR1	2	R1372C
1881.327	8.012	1881346	REC_WORD	8.012	n/a	SPRUCE	Trees	5	13	[0, 0, 0]	n/a	catFR1	2	R1372C
1889.339	0.0	1889358	REC_END	n/a	n/a	n/a	n/a	-999	13	[0, 0, 0]	n/a	catFR1	2	R1372C
1889.339	0.026	1889358	TRIAL_END	n/a	n/a	n/a	n/a	-999	13	[0, 0, 0]	n/a	catFR1	2	R1372C
1889.365	0.0	1889384	TRIAL_START	n/a	n/a	n/a	n/a	-999	14	[0, 0, 0]	n/a	catFR1	2	R1372C
1889.365	0.0	1889384	TRIAL	n/a	n/a	n/a	n/a	-999	14	[0, 0, 0]	n/a	catFR1	2	R1372C
1889.365	8.735	1889384	WAITING_START	n/a	n/a	n/a	n/a	-999	14	[0, 0, 0]	n/a	catFR1	2	R1372C
1898.1	0.001	1898118	WAITING_END	n/a	n/a	n/a	n/a	-999	14	[0, 0, 0]	n/a	catFR1	2	R1372C
1898.101	10.429	1898119	COUNTDOWN_START	n/a	n/a	n/a	n/a	-999	14	[0, 0, 0]	n/a	catFR1	2	R1372C
1908.53	0.001	1908548	COUNTDOWN_END	n/a	n/a	n/a	n/a	-999	14	[0, 0, 0]	n/a	catFR1	2	R1372C
1908.531	1.139	1908549	ORIENT_START	n/a	n/a	n/a	n/a	-999	14	[0, 0, 0]	n/a	catFR1	2	R1372C
1909.67	0.0	1909688	ORIENT_END	n/a	n/a	n/a	n/a	-999	14	[0, 0, 0]	n/a	catFR1	2	R1372C
1909.67	0.888	1909688	ENCODING_START	n/a	n/a	n/a	n/a	-999	14	[0, 0, 0]	n/a	catFR1	2	R1372C
1910.558	1.629	1910576	WORD	n/a	wordpools/wordpool_categorized_EN.txt	COBBLER	Desserts	1	14	[0, 0, 0]	n/a	catFR1	2	R1372C
1912.187	0.968	1912204	WORD_OFF	n/a	n/a	COBBLER	Desserts	1	14	[0, 0, 0]	n/a	catFR1	2	R1372C
1913.155	1.633	1913172	WORD	n/a	wordpools/wordpool_categorized_EN.txt	PIE	Desserts	2	14	[0, 0, 0]	n/a	catFR1	2	R1372C
1914.788	1.061	1914805	WORD_OFF	n/a	n/a	PIE	Desserts	2	14	[0, 0, 0]	n/a	catFR1	2	R1372C
1915.849	1.623	1915866	WORD	n/a	wordpools/wordpool_categorized_EN.txt	BULL	FarmAnimals	3	14	[0, 0, 0]	n/a	catFR1	2	R1372C
1917.472	1.023	1917489	WORD_OFF	n/a	n/a	BULL	FarmAnimals	3	14	[0, 0, 0]	n/a	catFR1	2	R1372C
1918.495	1.627	1918512	WORD	n/a	wordpools/wordpool_categorized_EN.txt	CHICKEN	FarmAnimals	4	14	[0, 0, 0]	n/a	catFR1	2	R1372C
1920.122	1.11	1920139	WORD_OFF	n/a	n/a	CHICKEN	FarmAnimals	4	14	[0, 0, 0]	n/a	catFR1	2	R1372C
1921.232	1.624	1921249	WORD	n/a	wordpools/wordpool_categorized_EN.txt	ORANGUTAN	Zoo	5	14	[0, 0, 0]	n/a	catFR1	2	R1372C
1922.856	1.051	1922873	WORD_OFF	n/a	n/a	ORANGUTAN	Zoo	5	14	[0, 0, 0]	n/a	catFR1	2	R1372C
1923.907	1.633	1923924	WORD	n/a	wordpools/wordpool_categorized_EN.txt	BEAR	Zoo	6	14	[0, 0, 0]	n/a	catFR1	2	R1372C
1925.54	0.877	1925557	WORD_OFF	n/a	n/a	BEAR	Zoo	6	14	[0, 0, 0]	n/a	catFR1	2	R1372C
1926.417	1.622	1926434	WORD	n/a	wordpools/wordpool_categorized_EN.txt	SHEEP	FarmAnimals	7	14	[0, 0, 0]	n/a	catFR1	2	R1372C
1928.039	0.891	1928056	WORD_OFF	n/a	n/a	SHEEP	FarmAnimals	7	14	[0, 0, 0]	n/a	catFR1	2	R1372C
1928.93	1.627	1928947	WORD	n/a	wordpools/wordpool_categorized_EN.txt	HEN	FarmAnimals	8	14	[0, 0, 0]	n/a	catFR1	2	R1372C
1930.557	0.852	1930573	WORD_OFF	n/a	n/a	HEN	FarmAnimals	8	14	[0, 0, 0]	n/a	catFR1	2	R1372C
1931.409	1.631	1931425	WORD	n/a	wordpools/wordpool_categorized_EN.txt	COOKIE	Desserts	9	14	[0, 0, 0]	n/a	catFR1	2	R1372C
1933.04	1.031	1933056	WORD_OFF	n/a	n/a	COOKIE	Desserts	9	14	[0, 0, 0]	n/a	catFR1	2	R1372C
1934.071	1.637	1934087	WORD	n/a	wordpools/wordpool_categorized_EN.txt	FUDGE	Desserts	10	14	[0, 0, 0]	n/a	catFR1	2	R1372C
1935.708	0.806	1935724	WORD_OFF	n/a	n/a	FUDGE	Desserts	10	14	[0, 0, 0]	n/a	catFR1	2	R1372C
1936.514	1.628	1936530	WORD	n/a	wordpools/wordpool_categorized_EN.txt	CHIMPANZEE	Zoo	11	14	[0, 0, 0]	n/a	catFR1	2	R1372C
1938.142	1.049	1938158	WORD_OFF	n/a	n/a	CHIMPANZEE	Zoo	11	14	[0, 0, 0]	n/a	catFR1	2	R1372C
1939.191	1.635	1939207	WORD	n/a	wordpools/wordpool_categorized_EN.txt	GORILLA	Zoo	12	14	[0, 0, 0]	n/a	catFR1	2	R1372C
1940.826	0.001	1940842	WORD_OFF	n/a	n/a	GORILLA	Zoo	12	14	[0, 0, 0]	n/a	catFR1	2	R1372C
1940.827	0.0	1940843	ENCODING_END	n/a	n/a	n/a	n/a	-999	14	[0, 0, 0]	n/a	catFR1	2	R1372C
1940.827	0.0	1940843	DISTRACT_START	n/a	n/a	n/a	n/a	-999	14	[0, 0, 0]	n/a	catFR1	2	R1372C
1940.827	0.015	1940843	START	n/a	n/a	n/a	n/a	-999	14	[-999, -999, -999]	n/a	catFR1	2	R1372C
1940.842	5.935	1940858	PROB	5.935	n/a	n/a	n/a	-999	14	[1, 7, 6]	14	catFR1	2	R1372C
1946.777	12.835	1946793	PROB	12.835	n/a	n/a	n/a	-999	14	[8, 7, 6]	21	catFR1	2	R1372C
1959.612	6.465	1959627	PROB	6.465	n/a	n/a	n/a	-999	14	[2, 8, 7]	17	catFR1	2	R1372C
1966.077	0.019	1966092	STOP	n/a	n/a	n/a	n/a	-999	14	[-999, -999, -999]	n/a	catFR1	2	R1372C
1966.096	0.539	1966111	DISTRACT_END	n/a	n/a	n/a	n/a	-999	14	[0, 0, 0]	n/a	catFR1	2	R1372C
1966.635	1.546	1966650	RETRIEVAL_ORIENT_START	n/a	n/a	n/a	n/a	-999	14	[0, 0, 0]	n/a	catFR1	2	R1372C
1968.181	0.0	1968196	RETRIEVAL_ORIENT_END	n/a	n/a	n/a	n/a	-999	14	[0, 0, 0]	n/a	catFR1	2	R1372C
1968.181	1.388	1968196	REC_START	n/a	n/a	n/a	n/a	-999	14	[0, 0, 0]	n/a	catFR1	2	R1372C
1969.569	4.892	1969583	REC_WORD	4.892	n/a	CHIMPANZEE	Zoo	11	14	[0, 0, 0]	n/a	catFR1	2	R1372C
1974.461	23.732	1974475	REC_WORD	23.732	n/a	GORILLA	Zoo	12	14	[0, 0, 0]	n/a	catFR1	2	R1372C
1998.193	0.001	1998206	REC_END	n/a	n/a	n/a	n/a	-999	14	[0, 0, 0]	n/a	catFR1	2	R1372C
1998.194	0.024	1998207	TRIAL_END	n/a	n/a	n/a	n/a	-999	14	[0, 0, 0]	n/a	catFR1	2	R1372C
1998.218	0.0	1998231	TRIAL_START	n/a	n/a	n/a	n/a	-999	15	[0, 0, 0]	n/a	catFR1	2	R1372C
1998.218	0.001	1998231	TRIAL	n/a	n/a	n/a	n/a	-999	15	[0, 0, 0]	n/a	catFR1	2	R1372C
1998.219	7.802	1998232	WAITING_START	n/a	n/a	n/a	n/a	-999	15	[0, 0, 0]	n/a	catFR1	2	R1372C
2006.021	0.0	2006034	WAITING_END	n/a	n/a	n/a	n/a	-999	15	[0, 0, 0]	n/a	catFR1	2	R1372C
2006.021	10.43	2006034	COUNTDOWN_START	n/a	n/a	n/a	n/a	-999	15	[0, 0, 0]	n/a	catFR1	2	R1372C
2016.451	0.001	2016463	COUNTDOWN_END	n/a	n/a	n/a	n/a	-999	15	[0, 0, 0]	n/a	catFR1	2	R1372C
2016.452	1.222	2016464	ORIENT_START	n/a	n/a	n/a	n/a	-999	15	[0, 0, 0]	n/a	catFR1	2	R1372C
2017.674	0.0	2017686	ORIENT_END	n/a	n/a	n/a	n/a	-999	15	[0, 0, 0]	n/a	catFR1	2	R1372C
2017.674	0.994	2017686	ENCODING_START	n/a	n/a	n/a	n/a	-999	15	[0, 0, 0]	n/a	catFR1	2	R1372C
2018.668	1.639	2018680	WORD	n/a	wordpools/wordpool_categorized_EN.txt	CUPCAKE	Desserts	1	15	[0, 0, 0]	n/a	catFR1	2	R1372C
2020.307	1.143	2020319	WORD_OFF	n/a	n/a	CUPCAKE	Desserts	1	15	[0, 0, 0]	n/a	catFR1	2	R1372C
2021.45	1.624	2021462	WORD	n/a	wordpools/wordpool_categorized_EN.txt	MOUSSE	Desserts	2	15	[0, 0, 0]	n/a	catFR1	2	R1372C
2023.074	1.052	2023086	WORD_OFF	n/a	n/a	MOUSSE	Desserts	2	15	[0, 0, 0]	n/a	catFR1	2	R1372C
2024.126	1.633	2024138	WORD	n/a	wordpools/wordpool_categorized_EN.txt	BOAT	Vehicles	3	15	[0, 0, 0]	n/a	catFR1	2	R1372C
2025.759	1.04	2025770	WORD_OFF	n/a	n/a	BOAT	Vehicles	3	15	[0, 0, 0]	n/a	catFR1	2	R1372C
2026.799	1.627	2026810	WORD	n/a	wordpools/wordpool_categorized_EN.txt	TRAIN	Vehicles	4	15	[0, 0, 0]	n/a	catFR1	2	R1372C
2028.426	0.825	2028437	WORD_OFF	n/a	n/a	TRAIN	Vehicles	4	15	[0, 0, 0]	n/a	catFR1	2	R1372C
2029.251	1.625	2029262	WORD	n/a	wordpools/wordpool_categorized_EN.txt	THUNDERSTORM	Weather	5	15	[0, 0, 0]	n/a	catFR1	2	R1372C
2030.876	1.106	2030887	WORD_OFF	n/a	n/a	THUNDERSTORM	Weather	5	15	[0, 0, 0]	n/a	catFR1	2	R1372C
2031.982	1.628	2031993	WORD	n/a	wordpools/wordpool_categorized_EN.txt	HURRICANE	Weather	6	15	[0, 0, 0]	n/a	catFR1	2	R1372C
2033.61	1.004	2033621	WORD_OFF	n/a	n/a	HURRICANE	Weather	6	15	[0, 0, 0]	n/a	catFR1	2	R1372C
2034.614	1.63	2034625	WORD	n/a	wordpools/wordpool_categorized_EN.txt	BUS	Vehicles	7	15	[0, 0, 0]	n/a	catFR1	2	R1372C
2036.244	0.993	2036255	WORD_OFF	n/a	n/a	BUS	Vehicles	7	15	[0, 0, 0]	n/a	catFR1	2	R1372C
2037.237	1.624	2037248	WORD	n/a	wordpools/wordpool_categorized_EN.txt	MOTORCYCLE	Vehicles	8	15	[0, 0, 0]	n/a	catFR1	2	R1372C
2038.861	1.062	2038872	WORD_OFF	n/a	n/a	MOTORCYCLE	Vehicles	8	15	[0, 0, 0]	n/a	catFR1	2	R1372C
2039.923	1.639	2039934	WORD	n/a	wordpools/wordpool_categorized_EN.txt	CAKE	Desserts	9	15	[0, 0, 0]	n/a	catFR1	2	R1372C
2041.562	0.832	2041573	WORD_OFF	n/a	n/a	CAKE	Desserts	9	15	[0, 0, 0]	n/a	catFR1	2	R1372C
2042.394	1.634	2042405	WORD	n/a	wordpools/wordpool_categorized_EN.txt	BROWNIES	Desserts	10	15	[0, 0, 0]	n/a	catFR1	2	R1372C
2044.028	0.844	2044039	WORD_OFF	n/a	n/a	BROWNIES	Desserts	10	15	[0, 0, 0]	n/a	catFR1	2	R1372C
2044.872	1.624	2044882	WORD	n/a	wordpools/wordpool_categorized_EN.txt	RAIN	Weather	11	15	[0, 0, 0]	n/a	catFR1	2	R1372C
2046.496	0.879	2046506	WORD_OFF	n/a	n/a	RAIN	Weather	11	15	[0, 0, 0]	n/a	catFR1	2	R1372C
2047.375	1.637	2047385	WORD	n/a	wordpools/wordpool_categorized_EN.txt	DRIZZLE	Weather	12	15	[0, 0, 0]	n/a	catFR1	2	R1372C
2049.012	0.0	2049022	WORD_OFF	n/a	n/a	DRIZZLE	Weather	12	15	[0, 0, 0]	n/a	catFR1	2	R1372C
2049.012	0.001	2049022	ENCODING_END	n/a	n/a	n/a	n/a	-999	15	[0, 0, 0]	n/a	catFR1	2	R1372C
2049.013	0.0	2049023	DISTRACT_START	n/a	n/a	n/a	n/a	-999	15	[0, 0, 0]	n/a	catFR1	2	R1372C
2049.013	0.015	2049023	START	n/a	n/a	n/a	n/a	-999	15	[-999, -999, -999]	n/a	catFR1	2	R1372C
2049.028	5.486	2049038	PROB	5.486	n/a	n/a	n/a	-999	15	[3, 6, 7]	16	catFR1	2	R1372C
2054.514	5.251	2054524	PROB	5.251	n/a	n/a	n/a	-999	15	[7, 8, 7]	22	catFR1	2	R1372C
2059.765	4.734	2059775	PROB	4.734	n/a	n/a	n/a	-999	15	[2, 4, 3]	9	catFR1	2	R1372C
2064.499	4.334	2064508	PROB	4.334	n/a	n/a	n/a	-999	15	[5, 5, 9]	19	catFR1	2	R1372C
2068.833	4.743	2068842	PROB	4.743	n/a	n/a	n/a	-999	15	[7, 8, 7]	22	catFR1	2	R1372C
2073.576	0.008	2073585	STOP	n/a	n/a	n/a	n/a	-999	15	[-999, -999, -999]	n/a	catFR1	2	R1372C
2073.584	0.568	2073593	DISTRACT_END	n/a	n/a	n/a	n/a	-999	15	[0, 0, 0]	n/a	catFR1	2	R1372C
2074.152	1.7	2074161	RETRIEVAL_ORIENT_START	n/a	n/a	n/a	n/a	-999	15	[0, 0, 0]	n/a	catFR1	2	R1372C
2075.852	0.0	2075861	RETRIEVAL_ORIENT_END	n/a	n/a	n/a	n/a	-999	15	[0, 0, 0]	n/a	catFR1	2	R1372C
2075.852	0.922	2075861	REC_START	n/a	n/a	n/a	n/a	-999	15	[0, 0, 0]	n/a	catFR1	2	R1372C
2076.774	4.437	2076783	REC_WORD	4.437	n/a	CUPCAKE	Desserts	1	15	[0, 0, 0]	n/a	catFR1	2	R1372C
2081.211	2.286	2081220	REC_WORD	2.286	n/a	FUDGE	Desserts	-999	15	[0, 0, 0]	n/a	catFR1	2	R1372C
2083.497	14.433	2083505	REC_WORD	14.433	n/a	ICE CREAM	n/a	-999	15	[0, 0, 0]	n/a	catFR1	2	R1372C
2097.93	7.934	2097938	REC_WORD	7.934	n/a	THUNDERSTORM	Weather	5	15	[0, 0, 0]	n/a	catFR1	2	R1372C
2105.864	0.0	2105871	REC_END	n/a	n/a	n/a	n/a	-999	15	[0, 0, 0]	n/a	catFR1	2	R1372C
2105.864	0.023	2105871	TRIAL_END	n/a	n/a	n/a	n/a	-999	15	[0, 0, 0]	n/a	catFR1	2	R1372C
2105.887	0.0	2105894	TRIAL_START	n/a	n/a	n/a	n/a	-999	16	[0, 0, 0]	n/a	catFR1	2	R1372C
2105.887	0.0	2105894	TRIAL	n/a	n/a	n/a	n/a	-999	16	[0, 0, 0]	n/a	catFR1	2	R1372C
2105.887	11.789	2105894	WAITING_START	n/a	n/a	n/a	n/a	-999	16	[0, 0, 0]	n/a	catFR1	2	R1372C
2117.676	0.0	2117683	WAITING_END	n/a	n/a	n/a	n/a	-999	16	[0, 0, 0]	n/a	catFR1	2	R1372C
2117.676	10.43	2117683	COUNTDOWN_START	n/a	n/a	n/a	n/a	-999	16	[0, 0, 0]	n/a	catFR1	2	R1372C
2128.106	0.0	2128112	COUNTDOWN_END	n/a	n/a	n/a	n/a	-999	16	[0, 0, 0]	n/a	catFR1	2	R1372C
2128.106	1.072	2128112	ORIENT_START	n/a	n/a	n/a	n/a	-999	16	[0, 0, 0]	n/a	catFR1	2	R1372C
2129.178	0.0	2129184	ORIENT_END	n/a	n/a	n/a	n/a	-999	16	[0, 0, 0]	n/a	catFR1	2	R1372C
2129.178	0.915	2129184	ENCODING_START	n/a	n/a	n/a	n/a	-999	16	[0, 0, 0]	n/a	catFR1	2	R1372C
2130.093	1.635	2130099	WORD	n/a	wordpools/wordpool_categorized_EN.txt	FOUNDATION	Building	1	16	[0, 0, 0]	n/a	catFR1	2	R1372C
2131.728	0.877	2131734	WORD_OFF	n/a	n/a	FOUNDATION	Building	1	16	[0, 0, 0]	n/a	catFR1	2	R1372C
2132.605	1.624	2132611	WORD	n/a	wordpools/wordpool_categorized_EN.txt	CEILING	Building	2	16	[0, 0, 0]	n/a	catFR1	2	R1372C
2134.229	0.8	2134235	WORD_OFF	n/a	n/a	CEILING	Building	2	16	[0, 0, 0]	n/a	catFR1	2	R1372C
2135.029	1.634	2135035	WORD	n/a	wordpools/wordpool_categorized_EN.txt	UNDERWEAR	Clothing	3	16	[0, 0, 0]	n/a	catFR1	2	R1372C
2136.663	1.026	2136669	WORD_OFF	n/a	n/a	UNDERWEAR	Clothing	3	16	[0, 0, 0]	n/a	catFR1	2	R1372C
2137.689	1.624	2137695	WORD	n/a	wordpools/wordpool_categorized_EN.txt	COAT	Clothing	4	16	[0, 0, 0]	n/a	catFR1	2	R1372C
2139.313	0.774	2139319	WORD_OFF	n/a	n/a	COAT	Clothing	4	16	[0, 0, 0]	n/a	catFR1	2	R1372C
2140.087	1.627	2140092	WORD	n/a	wordpools/wordpool_categorized_EN.txt	TULIP	Flowers	5	16	[0, 0, 0]	n/a	catFR1	2	R1372C
2141.714	1.013	2141719	WORD_OFF	n/a	n/a	TULIP	Flowers	5	16	[0, 0, 0]	n/a	catFR1	2	R1372C
2142.727	1.637	2142732	WORD	n/a	wordpools/wordpool_categorized_EN.txt	SUNFLOWER	Flowers	6	16	[0, 0, 0]	n/a	catFR1	2	R1372C
2144.364	0.865	2144369	WORD_OFF	n/a	n/a	SUNFLOWER	Flowers	6	16	[0, 0, 0]	n/a	catFR1	2	R1372C
2145.229	1.636	2145234	WORD	n/a	wordpools/wordpool_categorized_EN.txt	ATTIC	Building	7	16	[0, 0, 0]	n/a	catFR1	2	R1372C
2146.865	0.827	2146870	WORD_OFF	n/a	n/a	ATTIC	Building	7	16	[0, 0, 0]	n/a	catFR1	2	R1372C
2147.692	1.623	2147697	WORD	n/a	wordpools/wordpool_categorized_EN.txt	HALLWAY	Building	8	16	[0, 0, 0]	n/a	catFR1	2	R1372C
2149.315	0.922	2149320	WORD_OFF	n/a	n/a	HALLWAY	Building	8	16	[0, 0, 0]	n/a	catFR1	2	R1372C
2150.237	1.628	2150242	WORD	n/a	wordpools/wordpool_categorized_EN.txt	CARNATION	Flowers	9	16	[0, 0, 0]	n/a	catFR1	2	R1372C
2151.865	1.122	2151870	WORD_OFF	n/a	n/a	CARNATION	Flowers	9	16	[0, 0, 0]	n/a	catFR1	2	R1372C
2152.987	1.629	2152992	WORD	n/a	wordpools/wordpool_categorized_EN.txt	LILAC	Flowers	10	16	[0, 0, 0]	n/a	catFR1	2	R1372C
2154.616	1.012	2154621	WORD_OFF	n/a	n/a	LILAC	Flowers	10	16	[0, 0, 0]	n/a	catFR1	2	R1372C
2155.628	1.639	2155633	WORD	n/a	wordpools/wordpool_categorized_EN.txt	SHOES	Clothing	11	16	[0, 0, 0]	n/a	catFR1	2	R1372C
2157.267	0.926	2157272	WORD_OFF	n/a	n/a	SHOES	Clothing	11	16	[0, 0, 0]	n/a	catFR1	2	R1372C
2158.193	1.624	2158198	WORD	n/a	wordpools/wordpool_categorized_EN.txt	SHORTS	Clothing	12	16	[0, 0, 0]	n/a	catFR1	2	R1372C
2159.817	0.001	2159821	WORD_OFF	n/a	n/a	SHORTS	Clothing	12	16	[0, 0, 0]	n/a	catFR1	2	R1372C
2159.818	0.0	2159822	ENCODING_END	n/a	n/a	n/a	n/a	-999	16	[0, 0, 0]	n/a	catFR1	2	R1372C
2159.818	0.0	2159822	DISTRACT_START	n/a	n/a	n/a	n/a	-999	16	[0, 0, 0]	n/a	catFR1	2	R1372C
2159.818	0.015	2159822	START	n/a	n/a	n/a	n/a	-999	16	[-999, -999, -999]	n/a	catFR1	2	R1372C
2159.833	5.568	2159837	PROB	5.568	n/a	n/a	n/a	-999	16	[3, 7, 7]	17	catFR1	2	R1372C
2165.401	5.617	2165405	PROB	5.617	n/a	n/a	n/a	-999	16	[2, 4, 7]	16	catFR1	2	R1372C
2171.018	7.252	2171022	PROB	7.252	n/a	n/a	n/a	-999	16	[4, 5, 8]	17	catFR1	2	R1372C
2178.27	4.181	2178273	PROB	4.181	n/a	n/a	n/a	-999	16	[4, 7, 2]	13	catFR1	2	R1372C
2182.451	0.021	2182454	STOP	n/a	n/a	n/a	n/a	-999	16	[-999, -999, -999]	n/a	catFR1	2	R1372C
2182.472	0.62	2182475	DISTRACT_END	n/a	n/a	n/a	n/a	-999	16	[0, 0, 0]	n/a	catFR1	2	R1372C
2183.092	1.546	2183095	RETRIEVAL_ORIENT_START	n/a	n/a	n/a	n/a	-999	16	[0, 0, 0]	n/a	catFR1	2	R1372C
2184.638	0.001	2184641	RETRIEVAL_ORIENT_END	n/a	n/a	n/a	n/a	-999	16	[0, 0, 0]	n/a	catFR1	2	R1372C
2184.639	0.781	2184642	REC_START	n/a	n/a	n/a	n/a	-999	16	[0, 0, 0]	n/a	catFR1	2	R1372C
2185.42	1.025	2185423	REC_WORD	1.025	n/a	TULIP	Flowers	5	16	[0, 0, 0]	n/a	catFR1	2	R1372C
2186.445	14.152	2186448	REC_WORD	14.152	n/a	SUNFLOWER	Flowers	6	16	[0, 0, 0]	n/a	catFR1	2	R1372C
2200.597	12.584	2200599	REC_WORD	12.584	n/a	SHORTS	Clothing	12	16	[0, 0, 0]	n/a	catFR1	2	R1372C
2213.181	1.469	2213183	REC_WORD	1.469	n/a	THUNDERSTORM	Weather	-999	16	[0, 0, 0]	n/a	catFR1	2	R1372C
2214.65	0.0	2214652	REC_END	n/a	n/a	n/a	n/a	-999	16	[0, 0, 0]	n/a	catFR1	2	R1372C
2214.65	0.022	2214652	TRIAL_END	n/a	n/a	n/a	n/a	-999	16	[0, 0, 0]	n/a	catFR1	2	R1372C
2214.672	0.0	2214674	TRIAL_START	n/a	n/a	n/a	n/a	-999	17	[0, 0, 0]	n/a	catFR1	2	R1372C
2214.672	0.001	2214674	TRIAL	n/a	n/a	n/a	n/a	-999	17	[0, 0, 0]	n/a	catFR1	2	R1372C
2214.673	6.822	2214675	WAITING_START	n/a	n/a	n/a	n/a	-999	17	[0, 0, 0]	n/a	catFR1	2	R1372C
2221.495	0.001	2221496	WAITING_END	n/a	n/a	n/a	n/a	-999	17	[0, 0, 0]	n/a	catFR1	2	R1372C
2221.496	10.428	2221497	COUNTDOWN_START	n/a	n/a	n/a	n/a	-999	17	[0, 0, 0]	n/a	catFR1	2	R1372C
2231.924	0.0	2231925	COUNTDOWN_END	n/a	n/a	n/a	n/a	-999	17	[0, 0, 0]	n/a	catFR1	2	R1372C
2231.924	1.24	2231925	ORIENT_START	n/a	n/a	n/a	n/a	-999	17	[0, 0, 0]	n/a	catFR1	2	R1372C
2233.164	0.001	2233165	ORIENT_END	n/a	n/a	n/a	n/a	-999	17	[0, 0, 0]	n/a	catFR1	2	R1372C
2233.165	0.833	2233166	ENCODING_START	n/a	n/a	n/a	n/a	-999	17	[0, 0, 0]	n/a	catFR1	2	R1372C
2233.998	1.633	2233999	WORD	n/a	wordpools/wordpool_categorized_EN.txt	MARIGOLD	Flowers	1	17	[0, 0, 0]	n/a	catFR1	2	R1372C
2235.631	1.043	2235631	WORD_OFF	n/a	n/a	MARIGOLD	Flowers	1	17	[0, 0, 0]	n/a	catFR1	2	R1372C
2236.674	1.625	2236674	WORD	n/a	wordpools/wordpool_categorized_EN.txt	VIOLET	Flowers	2	17	[0, 0, 0]	n/a	catFR1	2	R1372C
2238.299	0.822	2238299	WORD_OFF	n/a	n/a	VIOLET	Flowers	2	17	[0, 0, 0]	n/a	catFR1	2	R1372C
2239.121	1.628	2239121	WORD	n/a	wordpools/wordpool_categorized_EN.txt	SHOVEL	Tools	3	17	[0, 0, 0]	n/a	catFR1	2	R1372C
2240.749	0.9	2240749	WORD_OFF	n/a	n/a	SHOVEL	Tools	3	17	[0, 0, 0]	n/a	catFR1	2	R1372C
2241.649	1.634	2241649	WORD	n/a	wordpools/wordpool_categorized_EN.txt	SANDER	Tools	4	17	[0, 0, 0]	n/a	catFR1	2	R1372C
2243.283	0.759	2243283	WORD_OFF	n/a	n/a	SANDER	Tools	4	17	[0, 0, 0]	n/a	catFR1	2	R1372C
2244.042	1.624	2244042	WORD	n/a	wordpools/wordpool_categorized_EN.txt	TRUCK	Vehicles	5	17	[0, 0, 0]	n/a	catFR1	2	R1372C
2245.666	0.973	2245666	WORD_OFF	n/a	n/a	TRUCK	Vehicles	5	17	[0, 0, 0]	n/a	catFR1	2	R1372C
2246.639	1.628	2246639	WORD	n/a	wordpools/wordpool_categorized_EN.txt	JEEP	Vehicles	6	17	[0, 0, 0]	n/a	catFR1	2	R1372C
2248.267	0.954	2248267	WORD_OFF	n/a	n/a	JEEP	Vehicles	6	17	[0, 0, 0]	n/a	catFR1	2	R1372C
2249.221	1.63	2249221	WORD	n/a	wordpools/wordpool_categorized_EN.txt	DAFFODIL	Flowers	7	17	[0, 0, 0]	n/a	catFR1	2	R1372C
2250.851	1.0	2250851	WORD_OFF	n/a	n/a	DAFFODIL	Flowers	7	17	[0, 0, 0]	n/a	catFR1	2	R1372C
2251.851	1.634	2251851	WORD	n/a	wordpools/wordpool_categorized_EN.txt	ROSE	Flowers	8	17	[0, 0, 0]	n/a	catFR1	2	R1372C
2253.485	1.055	2253485	WORD_OFF	n/a	n/a	ROSE	Flowers	8	17	[0, 0, 0]	n/a	catFR1	2	R1372C
2254.54	1.628	2254539	WORD	n/a	wordpools/wordpool_categorized_EN.txt	PLIERS	Tools	9	17	[0, 0, 0]	n/a	catFR1	2	R1372C
2256.168	0.951	2256167	WORD_OFF	n/a	n/a	PLIERS	Tools	9	17	[0, 0, 0]	n/a	catFR1	2	R1372C
2257.119	1.633	2257118	WORD	n/a	wordpools/wordpool_categorized_EN.txt	DRILL	Tools	10	17	[0, 0, 0]	n/a	catFR1	2	R1372C
2258.752	0.982	2258751	WORD_OFF	n/a	n/a	DRILL	Tools	10	17	[0, 0, 0]	n/a	catFR1	2	R1372C
2259.734	1.635	2259733	WORD	n/a	wordpools/wordpool_categorized_EN.txt	BIKE	Vehicles	11	17	[0, 0, 0]	n/a	catFR1	2	R1372C
2261.369	0.972	2261368	WORD_OFF	n/a	n/a	BIKE	Vehicles	11	17	[0, 0, 0]	n/a	catFR1	2	R1372C
2262.341	1.628	2262340	WORD	n/a	wordpools/wordpool_categorized_EN.txt	CAR	Vehicles	12	17	[0, 0, 0]	n/a	catFR1	2	R1372C
2263.969	0.0	2263968	WORD_OFF	n/a	n/a	CAR	Vehicles	12	17	[0, 0, 0]	n/a	catFR1	2	R1372C
2263.969	0.001	2263968	ENCODING_END	n/a	n/a	n/a	n/a	-999	17	[0, 0, 0]	n/a	catFR1	2	R1372C
2263.97	0.0	2263969	DISTRACT_START	n/a	n/a	n/a	n/a	-999	17	[0, 0, 0]	n/a	catFR1	2	R1372C
2263.97	0.015	2263969	START	n/a	n/a	n/a	n/a	-999	17	[-999, -999, -999]	n/a	catFR1	2	R1372C
2263.985	6.469	2263984	PROB	6.469	n/a	n/a	n/a	-999	17	[8, 6, 4]	18	catFR1	2	R1372C
2270.454	8.835	2270453	PROB	8.835	n/a	n/a	n/a	-999	17	[8, 7, 8]	23	catFR1	2	R1372C
2279.289	4.87	2279287	PROB	4.87	n/a	n/a	n/a	-999	17	[2, 4, 7]	13	catFR1	2	R1372C
2284.159	0.015	2284157	STOP	n/a	n/a	n/a	n/a	-999	17	[-999, -999, -999]	n/a	catFR1	2	R1372C
2284.174	0.593	2284172	DISTRACT_END	n/a	n/a	n/a	n/a	-999	17	[0, 0, 0]	n/a	catFR1	2	R1372C
2284.767	1.64	2284765	RETRIEVAL_ORIENT_START	n/a	n/a	n/a	n/a	-999	17	[0, 0, 0]	n/a	catFR1	2	R1372C
2286.407	0.001	2286405	RETRIEVAL_ORIENT_END	n/a	n/a	n/a	n/a	-999	17	[0, 0, 0]	n/a	catFR1	2	R1372C
2286.408	29.982	2286406	REC_START	n/a	n/a	n/a	n/a	-999	17	[0, 0, 0]	n/a	catFR1	2	R1372C
2316.39	0.029	2316386	REC_WORD	0.029	n/a	CAN'T REMEMBER ANYTHING	n/a	-999	17	[0, 0, 0]	n/a	catFR1	2	R1372C
2316.419	0.0	2316415	REC_END	n/a	n/a	n/a	n/a	-999	17	[0, 0, 0]	n/a	catFR1	2	R1372C
2316.419	0.022	2316415	TRIAL_END	n/a	n/a	n/a	n/a	-999	17	[0, 0, 0]	n/a	catFR1	2	R1372C
2316.441	0.0	2316437	TRIAL_START	n/a	n/a	n/a	n/a	-999	18	[0, 0, 0]	n/a	catFR1	2	R1372C
2316.441	0.001	2316437	TRIAL	n/a	n/a	n/a	n/a	-999	18	[0, 0, 0]	n/a	catFR1	2	R1372C
2316.442	17.308	2316438	WAITING_START	n/a	n/a	n/a	n/a	-999	18	[0, 0, 0]	n/a	catFR1	2	R1372C
2333.75	0.0	2333745	WAITING_END	n/a	n/a	n/a	n/a	-999	18	[0, 0, 0]	n/a	catFR1	2	R1372C
2333.75	10.43	2333745	COUNTDOWN_START	n/a	n/a	n/a	n/a	-999	18	[0, 0, 0]	n/a	catFR1	2	R1372C
2344.18	0.001	2344175	COUNTDOWN_END	n/a	n/a	n/a	n/a	-999	18	[0, 0, 0]	n/a	catFR1	2	R1372C
2344.181	1.137	2344176	ORIENT_START	n/a	n/a	n/a	n/a	-999	18	[0, 0, 0]	n/a	catFR1	2	R1372C
2345.318	0.001	2345313	ORIENT_END	n/a	n/a	n/a	n/a	-999	18	[0, 0, 0]	n/a	catFR1	2	R1372C
2345.319	0.971	2345314	ENCODING_START	n/a	n/a	n/a	n/a	-999	18	[0, 0, 0]	n/a	catFR1	2	R1372C
2346.29	1.629	2346285	WORD	n/a	wordpools/wordpool_categorized_EN.txt	TOE	BodyParts	1	18	[0, 0, 0]	n/a	catFR1	2	R1372C
2347.919	0.907	2347914	WORD_OFF	n/a	n/a	TOE	BodyParts	1	18	[0, 0, 0]	n/a	catFR1	2	R1372C
2348.826	1.627	2348821	WORD	n/a	wordpools/wordpool_categorized_EN.txt	KNEE	BodyParts	2	18	[0, 0, 0]	n/a	catFR1	2	R1372C
2350.453	0.983	2350447	WORD_OFF	n/a	n/a	KNEE	BodyParts	2	18	[0, 0, 0]	n/a	catFR1	2	R1372C
2351.436	1.633	2351430	WORD	n/a	wordpools/wordpool_categorized_EN.txt	ROOF	Building	3	18	[0, 0, 0]	n/a	catFR1	2	R1372C
2353.069	0.888	2353063	WORD_OFF	n/a	n/a	ROOF	Building	3	18	[0, 0, 0]	n/a	catFR1	2	R1372C
2353.957	1.63	2353951	WORD	n/a	wordpools/wordpool_categorized_EN.txt	ROOM	Building	4	18	[0, 0, 0]	n/a	catFR1	2	R1372C
2355.587	0.778	2355581	WORD_OFF	n/a	n/a	ROOM	Building	4	18	[0, 0, 0]	n/a	catFR1	2	R1372C
2356.365	1.638	2356359	WORD	n/a	wordpools/wordpool_categorized_EN.txt	RATCHET	Tools	5	18	[0, 0, 0]	n/a	catFR1	2	R1372C
2358.003	0.811	2357997	WORD_OFF	n/a	n/a	RATCHET	Tools	5	18	[0, 0, 0]	n/a	catFR1	2	R1372C
2358.814	1.624	2358808	WORD	n/a	wordpools/wordpool_categorized_EN.txt	HAMMER	Tools	6	18	[0, 0, 0]	n/a	catFR1	2	R1372C
2360.438	0.952	2360432	WORD_OFF	n/a	n/a	HAMMER	Tools	6	18	[0, 0, 0]	n/a	catFR1	2	R1372C
2361.39	1.631	2361384	WORD	n/a	wordpools/wordpool_categorized_EN.txt	ELBOW	BodyParts	7	18	[0, 0, 0]	n/a	catFR1	2	R1372C
2363.021	1.139	2363015	WORD_OFF	n/a	n/a	ELBOW	BodyParts	7	18	[0, 0, 0]	n/a	catFR1	2	R1372C
2364.16	1.629	2364154	WORD	n/a	wordpools/wordpool_categorized_EN.txt	HEAD	BodyParts	8	18	[0, 0, 0]	n/a	catFR1	2	R1372C
2365.789	1.142	2365783	WORD_OFF	n/a	n/a	HEAD	BodyParts	8	18	[0, 0, 0]	n/a	catFR1	2	R1372C
2366.931	1.625	2366925	WORD	n/a	wordpools/wordpool_categorized_EN.txt	STAIRS	Building	9	18	[0, 0, 0]	n/a	catFR1	2	R1372C
2368.556	0.841	2368549	WORD_OFF	n/a	n/a	STAIRS	Building	9	18	[0, 0, 0]	n/a	catFR1	2	R1372C
2369.397	1.625	2369390	WORD	n/a	wordpools/wordpool_categorized_EN.txt	DOOR	Building	10	18	[0, 0, 0]	n/a	catFR1	2	R1372C
2371.022	1.123	2371015	WORD_OFF	n/a	n/a	DOOR	Building	10	18	[0, 0, 0]	n/a	catFR1	2	R1372C
2372.145	1.629	2372138	WORD	n/a	wordpools/wordpool_categorized_EN.txt	AXE	Tools	11	18	[0, 0, 0]	n/a	catFR1	2	R1372C
2373.774	1.027	2373767	WORD_OFF	n/a	n/a	AXE	Tools	11	18	[0, 0, 0]	n/a	catFR1	2	R1372C
2374.801	1.64	2374794	WORD	n/a	wordpools/wordpool_categorized_EN.txt	SCREWDRIVER	Tools	12	18	[0, 0, 0]	n/a	catFR1	2	R1372C
2376.441	0.001	2376434	WORD_OFF	n/a	n/a	SCREWDRIVER	Tools	12	18	[0, 0, 0]	n/a	catFR1	2	R1372C
2376.442	0.0	2376435	ENCODING_END	n/a	n/a	n/a	n/a	-999	18	[0, 0, 0]	n/a	catFR1	2	R1372C
2376.442	0.0	2376435	DISTRACT_START	n/a	n/a	n/a	n/a	-999	18	[0, 0, 0]	n/a	catFR1	2	R1372C
2376.442	0.015	2376435	START	n/a	n/a	n/a	n/a	-999	18	[-999, -999, -999]	n/a	catFR1	2	R1372C
2376.457	4.5	2376450	PROB	4.5	n/a	n/a	n/a	-999	18	[9, 6, 4]	14	catFR1	2	R1372C
2380.957	6.519	2380950	PROB	6.519	n/a	n/a	n/a	-999	18	[2, 6, 3]	11	catFR1	2	R1372C
2387.476	9.076	2387468	PROB	9.076	n/a	n/a	n/a	-999	18	[8, 4, 2]	14	catFR1	2	R1372C
2396.552	0.009	2396544	STOP	n/a	n/a	n/a	n/a	-999	18	[-999, -999, -999]	n/a	catFR1	2	R1372C
2396.561	0.555	2396553	DISTRACT_END	n/a	n/a	n/a	n/a	-999	18	[0, 0, 0]	n/a	catFR1	2	R1372C
2397.116	1.562	2397108	RETRIEVAL_ORIENT_START	n/a	n/a	n/a	n/a	-999	18	[0, 0, 0]	n/a	catFR1	2	R1372C
2398.678	0.001	2398670	RETRIEVAL_ORIENT_END	n/a	n/a	n/a	n/a	-999	18	[0, 0, 0]	n/a	catFR1	2	R1372C
2398.679	4.222	2398671	REC_START	n/a	n/a	n/a	n/a	-999	18	[0, 0, 0]	n/a	catFR1	2	R1372C
2402.901	13.978	2402893	REC_WORD	13.978	n/a	JEEP	Vehicles	-999	18	[0, 0, 0]	n/a	catFR1	2	R1372C
2416.879	11.811	2416870	REC_WORD	11.811	n/a	AXE	Tools	11	18	[0, 0, 0]	n/a	catFR1	2	R1372C
2428.69	0.0	2428680	REC_END	n/a	n/a	n/a	n/a	-999	18	[0, 0, 0]	n/a	catFR1	2	R1372C
2428.69	0.023	2428680	TRIAL_END	n/a	n/a	n/a	n/a	-999	18	[0, 0, 0]	n/a	catFR1	2	R1372C
2428.713	0.0	2428703	TRIAL_START	n/a	n/a	n/a	n/a	-999	19	[0, 0, 0]	n/a	catFR1	2	R1372C
2428.713	0.0	2428703	TRIAL	n/a	n/a	n/a	n/a	-999	19	[0, 0, 0]	n/a	catFR1	2	R1372C
2428.713	9.706	2428703	WAITING_START	n/a	n/a	n/a	n/a	-999	19	[0, 0, 0]	n/a	catFR1	2	R1372C
2438.419	0.001	2438409	WAITING_END	n/a	n/a	n/a	n/a	-999	19	[0, 0, 0]	n/a	catFR1	2	R1372C
2438.42	10.428	2438410	COUNTDOWN_START	n/a	n/a	n/a	n/a	-999	19	[0, 0, 0]	n/a	catFR1	2	R1372C
2448.848	0.001	2448837	COUNTDOWN_END	n/a	n/a	n/a	n/a	-999	19	[0, 0, 0]	n/a	catFR1	2	R1372C
2448.849	1.056	2448838	ORIENT_START	n/a	n/a	n/a	n/a	-999	19	[0, 0, 0]	n/a	catFR1	2	R1372C
2449.905	0.0	2449894	ORIENT_END	n/a	n/a	n/a	n/a	-999	19	[0, 0, 0]	n/a	catFR1	2	R1372C
2449.905	1.103	2449894	ENCODING_START	n/a	n/a	n/a	n/a	-999	19	[0, 0, 0]	n/a	catFR1	2	R1372C
2451.008	1.631	2450997	WORD	n/a	wordpools/wordpool_categorized_EN.txt	HAND	BodyParts	1	19	[0, 0, 0]	n/a	catFR1	2	R1372C
2452.639	0.946	2452628	WORD_OFF	n/a	n/a	HAND	BodyParts	1	19	[0, 0, 0]	n/a	catFR1	2	R1372C
2453.585	1.637	2453574	WORD	n/a	wordpools/wordpool_categorized_EN.txt	EYE	BodyParts	2	19	[0, 0, 0]	n/a	catFR1	2	R1372C
2455.222	0.768	2455211	WORD_OFF	n/a	n/a	EYE	BodyParts	2	19	[0, 0, 0]	n/a	catFR1	2	R1372C
2455.99	1.633	2455979	WORD	n/a	wordpools/wordpool_categorized_EN.txt	SHELF	Furniture	3	19	[0, 0, 0]	n/a	catFR1	2	R1372C
2457.623	0.759	2457612	WORD_OFF	n/a	n/a	SHELF	Furniture	3	19	[0, 0, 0]	n/a	catFR1	2	R1372C
2458.382	1.624	2458371	WORD	n/a	wordpools/wordpool_categorized_EN.txt	COUCH	Furniture	4	19	[0, 0, 0]	n/a	catFR1	2	R1372C
2460.006	0.753	2459995	WORD_OFF	n/a	n/a	COUCH	Furniture	4	19	[0, 0, 0]	n/a	catFR1	2	R1372C
2460.759	1.631	2460748	WORD	n/a	wordpools/wordpool_categorized_EN.txt	ONION	Vegetables	5	19	[0, 0, 0]	n/a	catFR1	2	R1372C
2462.39	0.898	2462379	WORD_OFF	n/a	n/a	ONION	Vegetables	5	19	[0, 0, 0]	n/a	catFR1	2	R1372C
2463.288	1.636	2463276	WORD	n/a	wordpools/wordpool_categorized_EN.txt	POTATO	Vegetables	6	19	[0, 0, 0]	n/a	catFR1	2	R1372C
2464.924	1.032	2464912	WORD_OFF	n/a	n/a	POTATO	Vegetables	6	19	[0, 0, 0]	n/a	catFR1	2	R1372C
2465.956	1.635	2465944	WORD	n/a	wordpools/wordpool_categorized_EN.txt	LEG	BodyParts	7	19	[0, 0, 0]	n/a	catFR1	2	R1372C
2467.591	1.142	2467579	WORD_OFF	n/a	n/a	LEG	BodyParts	7	19	[0, 0, 0]	n/a	catFR1	2	R1372C
2468.733	1.625	2468721	WORD	n/a	wordpools/wordpool_categorized_EN.txt	NOSE	BodyParts	8	19	[0, 0, 0]	n/a	catFR1	2	R1372C
2470.358	0.96	2470346	WORD_OFF	n/a	n/a	NOSE	BodyParts	8	19	[0, 0, 0]	n/a	catFR1	2	R1372C
2471.318	1.624	2471306	WORD	n/a	wordpools/wordpool_categorized_EN.txt	CARROT	Vegetables	9	19	[0, 0, 0]	n/a	catFR1	2	R1372C
2472.942	1.045	2472930	WORD_OFF	n/a	n/a	CARROT	Vegetables	9	19	[0, 0, 0]	n/a	catFR1	2	R1372C
2473.987	1.639	2473975	WORD	n/a	wordpools/wordpool_categorized_EN.txt	CUCUMBER	Vegetables	10	19	[0, 0, 0]	n/a	catFR1	2	R1372C
2475.626	1.044	2475614	WORD_OFF	n/a	n/a	CUCUMBER	Vegetables	10	19	[0, 0, 0]	n/a	catFR1	2	R1372C
2476.67	1.64	2476658	WORD	n/a	wordpools/wordpool_categorized_EN.txt	BOOKCASE	Furniture	11	19	[0, 0, 0]	n/a	catFR1	2	R1372C
2478.31	1.086	2478298	WORD_OFF	n/a	n/a	BOOKCASE	Furniture	11	19	[0, 0, 0]	n/a	catFR1	2	R1372C
2479.396	1.63	2479384	WORD	n/a	wordpools/wordpool_categorized_EN.txt	RECLINER	Furniture	12	19	[0, 0, 0]	n/a	catFR1	2	R1372C
2481.026	0.001	2481014	WORD_OFF	n/a	n/a	RECLINER	Furniture	12	19	[0, 0, 0]	n/a	catFR1	2	R1372C
2481.027	0.0	2481015	ENCODING_END	n/a	n/a	n/a	n/a	-999	19	[0, 0, 0]	n/a	catFR1	2	R1372C
2481.027	0.0	2481015	DISTRACT_START	n/a	n/a	n/a	n/a	-999	19	[0, 0, 0]	n/a	catFR1	2	R1372C
2481.027	0.016	2481015	START	n/a	n/a	n/a	n/a	-999	19	[-999, -999, -999]	n/a	catFR1	2	R1372C
2481.043	5.318	2481031	PROB	5.318	n/a	n/a	n/a	-999	19	[1, 9, 7]	17	catFR1	2	R1372C
2486.361	5.084	2486348	PROB	5.084	n/a	n/a	n/a	-999	19	[7, 2, 3]	12	catFR1	2	R1372C
2491.445	4.685	2491432	PROB	4.685	n/a	n/a	n/a	-999	19	[5, 9, 1]	15	catFR1	2	R1372C
2496.13	6.222	2496117	PROB	6.222	n/a	n/a	n/a	-999	19	[6, 6, 7]	19	catFR1	2	R1372C
2502.352	0.013	2502338	STOP	n/a	n/a	n/a	n/a	-999	19	[-999, -999, -999]	n/a	catFR1	2	R1372C
2502.365	0.548	2502351	DISTRACT_END	n/a	n/a	n/a	n/a	-999	19	[0, 0, 0]	n/a	catFR1	2	R1372C
2502.913	1.535	2502899	RETRIEVAL_ORIENT_START	n/a	n/a	n/a	n/a	-999	19	[0, 0, 0]	n/a	catFR1	2	R1372C
2504.448	0.0	2504434	RETRIEVAL_ORIENT_END	n/a	n/a	n/a	n/a	-999	19	[0, 0, 0]	n/a	catFR1	2	R1372C
2504.448	0.883	2504434	REC_START	n/a	n/a	n/a	n/a	-999	19	[0, 0, 0]	n/a	catFR1	2	R1372C
2505.331	19.3	2505317	REC_WORD	19.3	n/a	RECLINER	Furniture	12	19	[0, 0, 0]	n/a	catFR1	2	R1372C
2524.631	7.231	2524616	REC_WORD	7.231	n/a	HAND	BodyParts	1	19	[0, 0, 0]	n/a	catFR1	2	R1372C
2531.862	2.596	2531847	REC_WORD	2.596	n/a	NOSE	BodyParts	8	19	[0, 0, 0]	n/a	catFR1	2	R1372C
2534.458	0.0	2534443	REC_END	n/a	n/a	n/a	n/a	-999	19	[0, 0, 0]	n/a	catFR1	2	R1372C
2534.458	0.025	2534443	TRIAL_END	n/a	n/a	n/a	n/a	-999	19	[0, 0, 0]	n/a	catFR1	2	R1372C
2534.483	0.0	2534468	TRIAL_START	n/a	n/a	n/a	n/a	-999	20	[0, 0, 0]	n/a	catFR1	2	R1372C
2534.483	0.0	2534468	TRIAL	n/a	n/a	n/a	n/a	-999	20	[0, 0, 0]	n/a	catFR1	2	R1372C
2534.483	0.0	2534468	WAITING_START	n/a	n/a	n/a	n/a	-999	20	[0, 0, 0]	n/a	catFR1	2	R1372C
