onset	duration	sample	trial_type	response_time	stim_file	item_name	category	serialpos	list	test	answer	experiment	session	subject
0.0	0.865	13051	INSTRUCT_START	n/a	n/a	n/a	n/a	-999	-999	[0, 0, 0]	n/a	catFR1	1	R1461T
0.865	26.533	13916	INSTRUCT_END	n/a	n/a	n/a	n/a	-999	-999	[0, 0, 0]	n/a	catFR1	1	R1461T
27.398	10.4	40445	COUNTDOWN_START	n/a	n/a	n/a	n/a	-999	-999	[0, 0, 0]	n/a	catFR1	1	R1461T
37.798	0.0	50847	COUNTDOWN_END	n/a	n/a	n/a	n/a	-999	-999	[0, 0, 0]	n/a	catFR1	1	R1461T
37.798	1.967	50847	ENCODING_START	n/a	n/a	n/a	n/a	-999	-1	[0, 0, 0]	n/a	catFR1	1	R1461T
39.765	1.6	52802	WORD	n/a	n/a	PEZ	OceanAnimals	1	-1	[0, 0, 0]	n/a	catFR1	1	R1461T
41.365	0.9	54404	WORD_OFF	n/a	n/a	PEZ	OceanAnimals	1	-1	[0, 0, 0]	n/a	catFR1	1	R1461T
42.265	1.6	55311	WORD	n/a	n/a	CANGREJO	OceanAnimals	2	-1	[0, 0, 0]	n/a	catFR1	1	R1461T
43.865	0.783	56912	WORD_OFF	n/a	n/a	CANGREJO	OceanAnimals	2	-1	[0, 0, 0]	n/a	catFR1	1	R1461T
44.648	1.6	57691	WORD	n/a	n/a	TALADRO	Tools	3	-1	[0, 0, 0]	n/a	catFR1	1	R1461T
46.248	1.0	59293	WORD_OFF	n/a	n/a	TALADRO	Tools	3	-1	[0, 0, 0]	n/a	catFR1	1	R1461T
47.248	1.6	60285	WORD	n/a	n/a	LIJADORA	Tools	4	-1	[0, 0, 0]	n/a	catFR1	1	R1461T
48.848	0.95	61886	WORD_OFF	n/a	n/a	LIJADORA	Tools	4	-1	[0, 0, 0]	n/a	catFR1	1	R1461T
49.798	1.616	62836	WORD	n/a	n/a	ESCALERAS	Building	5	-1	[0, 0, 0]	n/a	catFR1	1	R1461T
51.414	0.783	64451	WORD_OFF	n/a	n/a	ESCALERAS	Building	5	-1	[0, 0, 0]	n/a	catFR1	1	R1461T
52.197	1.601	65245	WORD	n/a	n/a	ATICO	Building	6	-1	[0, 0, 0]	n/a	catFR1	1	R1461T
53.798	0.9	66846	WORD_OFF	n/a	n/a	ATICO	Building	6	-1	[0, 0, 0]	n/a	catFR1	1	R1461T
54.698	1.616	67739	WORD	n/a	n/a	OSTRA	OceanAnimals	7	-1	[0, 0, 0]	n/a	catFR1	1	R1461T
56.314	0.988	69354	WORD_OFF	n/a	n/a	OSTRA	OceanAnimals	7	-1	[0, 0, 0]	n/a	catFR1	1	R1461T
57.302	1.612	70346	WORD	n/a	n/a	LANGOSTA	OceanAnimals	8	-1	[0, 0, 0]	n/a	catFR1	1	R1461T
58.914	0.917	71962	WORD_OFF	n/a	n/a	LANGOSTA	OceanAnimals	8	-1	[0, 0, 0]	n/a	catFR1	1	R1461T
59.831	1.617	72869	WORD	n/a	n/a	SIERRA	Tools	9	-1	[0, 0, 0]	n/a	catFR1	1	R1461T
61.448	0.767	74484	WORD_OFF	n/a	n/a	SIERRA	Tools	9	-1	[0, 0, 0]	n/a	catFR1	1	R1461T
62.215	1.6	75250	WORD	n/a	n/a	DESTORNILLADOR	Tools	10	-1	[0, 0, 0]	n/a	catFR1	1	R1461T
63.815	0.883	76851	WORD_OFF	n/a	n/a	DESTORNILLADOR	Tools	10	-1	[0, 0, 0]	n/a	catFR1	1	R1461T
64.698	1.616	77744	WORD	n/a	n/a	PUERTA	Building	11	-1	[0, 0, 0]	n/a	catFR1	1	R1461T
66.314	0.9	79359	WORD_OFF	n/a	n/a	PUERTA	Building	11	-1	[0, 0, 0]	n/a	catFR1	1	R1461T
67.214	1.6	80252	WORD	n/a	n/a	VENTANA	Building	12	-1	[0, 0, 0]	n/a	catFR1	1	R1461T
68.814	0.002	81854	WORD_OFF	n/a	n/a	VENTANA	Building	12	-1	[0, 0, 0]	n/a	catFR1	1	R1461T
68.816	0.0	81854	ENCODING_END	n/a	n/a	n/a	n/a	-999	-1	[0, 0, 0]	n/a	catFR1	1	R1461T
68.816	0.0	81854	START	n/a	n/a	n/a	n/a	-999	-1	[-999, -999, -999]	n/a	catFR1	1	R1461T
68.816	0.0	81854	PROB	0.0	n/a	n/a	n/a	-999	-1	[6, 4, 4]	644	catFR1	1	R1461T
68.816	14.932	81868	DISTRACT_START	n/a	n/a	n/a	n/a	-999	-1	[0, 0, 0]	n/a	catFR1	1	R1461T
83.748	14.599	96785	PROB	14.599	n/a	n/a	n/a	-999	-1	[4, 4, 2]	442	catFR1	1	R1461T
98.347	0.0	111384	STOP	n/a	n/a	n/a	n/a	-999	-1	[-999, -999, -999]	n/a	catFR1	1	R1461T
98.347	2.183	111387	DISTRACT_END	n/a	n/a	n/a	n/a	-999	-1	[0, 0, 0]	n/a	catFR1	1	R1461T
100.53	0.252	113577	REC_START	n/a	n/a	n/a	n/a	-999	-1	[0, 0, 0]	n/a	catFR1	1	R1461T
100.782	2.036	113818	REC_WORD	2.036	n/a	VENTANA	Building	12	-1	[0, 0, 0]	n/a	catFR1	1	R1461T
102.818	4.447	115854	REC_WORD	4.447	n/a	ESCALERA	n/a	-999	-1	[0, 0, 0]	n/a	catFR1	1	R1461T
107.265	2.216	120301	REC_WORD_VV	2.216	n/a	<>	n/a	-999	-1	[0, 0, 0]	n/a	catFR1	1	R1461T
109.481	1.001	122517	REC_WORD	1.001	n/a	ESCALERA	n/a	-999	-1	[0, 0, 0]	n/a	catFR1	1	R1461T
110.482	0.872	123518	REC_WORD	0.872	n/a	ESCALERA	n/a	-999	-1	[0, 0, 0]	n/a	catFR1	1	R1461T
111.354	19.366	124390	REC_WORD_VV	19.366	n/a	<>	n/a	-999	-1	[0, 0, 0]	n/a	catFR1	1	R1461T
130.72	9.995	143754	REC_END	n/a	n/a	n/a	n/a	-999	-1	[0, 0, 0]	n/a	catFR1	1	R1461T
140.715	10.349	153759	COUNTDOWN_START	n/a	n/a	n/a	n/a	-999	1	[0, 0, 0]	n/a	catFR1	1	R1461T
151.064	0.0	164105	COUNTDOWN_END	n/a	n/a	n/a	n/a	-999	1	[0, 0, 0]	n/a	catFR1	1	R1461T
151.064	1.984	164105	ENCODING_START	n/a	n/a	n/a	n/a	-999	1	[0, 0, 0]	n/a	catFR1	1	R1461T
153.048	1.6	166089	WORD	n/a	wordpools/wordpool_categorized_SP.txt	CEBRA	Zoo	1	1	[0, 0, 0]	n/a	catFR1	1	R1461T
154.648	0.999	167690	WORD_OFF	n/a	n/a	CEBRA	Zoo	1	1	[0, 0, 0]	n/a	catFR1	1	R1461T
155.647	1.601	168682	WORD	n/a	wordpools/wordpool_categorized_SP.txt	LEON	Zoo	2	1	[0, 0, 0]	n/a	catFR1	1	R1461T
157.248	0.799	170283	WORD_OFF	n/a	n/a	LEON	Zoo	2	1	[0, 0, 0]	n/a	catFR1	1	R1461T
158.047	1.601	171077	WORD	n/a	wordpools/wordpool_categorized_SP.txt	ZANCUDO	Insects	3	1	[0, 0, 0]	n/a	catFR1	1	R1461T
159.648	0.9	172678	WORD_OFF	n/a	n/a	ZANCUDO	Insects	3	1	[0, 0, 0]	n/a	catFR1	1	R1461T
160.548	1.617	173585	WORD	n/a	wordpools/wordpool_categorized_SP.txt	GRILLO	Insects	4	1	[0, 0, 0]	n/a	catFR1	1	R1461T
162.165	0.833	175201	WORD_OFF	n/a	n/a	GRILLO	Insects	4	1	[0, 0, 0]	n/a	catFR1	1	R1461T
162.998	1.616	176037	WORD	n/a	wordpools/wordpool_categorized_SP.txt	PULPO	OceanAnimals	5	1	[0, 0, 0]	n/a	catFR1	1	R1461T
164.614	0.933	177652	WORD_OFF	n/a	n/a	PULPO	OceanAnimals	5	1	[0, 0, 0]	n/a	catFR1	1	R1461T
165.547	1.6	178588	WORD	n/a	wordpools/wordpool_categorized_SP.txt	TORTUGA	OceanAnimals	6	1	[0, 0, 0]	n/a	catFR1	1	R1461T
167.147	1.001	180189	WORD_OFF	n/a	n/a	TORTUGA	OceanAnimals	6	1	[0, 0, 0]	n/a	catFR1	1	R1461T
168.148	1.617	181181	WORD	n/a	wordpools/wordpool_categorized_SP.txt	POLILLA	Insects	7	1	[0, 0, 0]	n/a	catFR1	1	R1461T
169.765	0.983	182797	WORD_OFF	n/a	n/a	POLILLA	Insects	7	1	[0, 0, 0]	n/a	catFR1	1	R1461T
170.748	1.6	183789	WORD	n/a	wordpools/wordpool_categorized_SP.txt	MARIQUITA	Insects	8	1	[0, 0, 0]	n/a	catFR1	1	R1461T
172.348	0.883	185390	WORD_OFF	n/a	n/a	MARIQUITA	Insects	8	1	[0, 0, 0]	n/a	catFR1	1	R1461T
173.231	1.617	186269	WORD	n/a	wordpools/wordpool_categorized_SP.txt	CAMARON	OceanAnimals	9	1	[0, 0, 0]	n/a	catFR1	1	R1461T
174.848	0.8	187884	WORD_OFF	n/a	n/a	CAMARON	OceanAnimals	9	1	[0, 0, 0]	n/a	catFR1	1	R1461T
175.648	1.6	188678	WORD	n/a	wordpools/wordpool_categorized_SP.txt	DELFIN	OceanAnimals	10	1	[0, 0, 0]	n/a	catFR1	1	R1461T
177.248	0.934	190279	WORD_OFF	n/a	n/a	DELFIN	OceanAnimals	10	1	[0, 0, 0]	n/a	catFR1	1	R1461T
178.182	1.615	191214	WORD	n/a	wordpools/wordpool_categorized_SP.txt	TIGRE	Zoo	11	1	[0, 0, 0]	n/a	catFR1	1	R1461T
179.797	0.901	192830	WORD_OFF	n/a	n/a	TIGRE	Zoo	11	1	[0, 0, 0]	n/a	catFR1	1	R1461T
180.698	1.6	193737	WORD	n/a	wordpools/wordpool_categorized_SP.txt	GUEPARDO	Zoo	12	1	[0, 0, 0]	n/a	catFR1	1	R1461T
182.298	0.001	195330	PROB	0.001	n/a	n/a	n/a	-999	1	[6, 1, 7]	6117	catFR1	1	R1461T
182.299	0.0	195331	START	n/a	n/a	n/a	n/a	-999	1	[-999, -999, -999]	n/a	catFR1	1	R1461T
182.298	0.001	195338	WORD_OFF	n/a	n/a	GUEPARDO	Zoo	12	1	[0, 0, 0]	n/a	catFR1	1	R1461T
182.299	0.0	195338	ENCODING_END	n/a	n/a	n/a	n/a	-999	1	[0, 0, 0]	n/a	catFR1	1	R1461T
182.299	14.814	195338	DISTRACT_START	n/a	n/a	n/a	n/a	-999	1	[0, 0, 0]	n/a	catFR1	1	R1461T
197.113	8.87	210145	PROB	8.87	n/a	n/a	n/a	-999	1	[2, 2, 2]	222	catFR1	1	R1461T
205.983	0.0	219014	STOP	n/a	n/a	n/a	n/a	-999	1	[-999, -999, -999]	n/a	catFR1	1	R1461T
205.983	2.031	219019	DISTRACT_END	n/a	n/a	n/a	n/a	-999	1	[0, 0, 0]	n/a	catFR1	1	R1461T
208.014	2.219	221053	REC_START	n/a	n/a	n/a	n/a	-999	1	[0, 0, 0]	n/a	catFR1	1	R1461T
210.233	0.844	223264	REC_WORD_VV	0.844	n/a	<>	n/a	-999	1	[0, 0, 0]	n/a	catFR1	1	R1461T
211.077	2.286	224108	REC_WORD	2.286	n/a	TIGRE	Zoo	11	1	[0, 0, 0]	n/a	catFR1	1	R1461T
213.363	5.721	226394	REC_WORD_VV	5.721	n/a	<>	n/a	-999	1	[0, 0, 0]	n/a	catFR1	1	R1461T
219.084	6.899	232114	REC_WORD	6.899	n/a	ESCALERA	n/a	-999	1	[0, 0, 0]	n/a	catFR1	1	R1461T
225.983	9.618	239013	REC_WORD_VV	9.618	n/a	<>	n/a	-999	1	[0, 0, 0]	n/a	catFR1	1	R1461T
235.601	2.594	248631	REC_WORD	2.594	n/a	TAPIA	n/a	-999	1	[0, 0, 0]	n/a	catFR1	1	R1461T
238.195	2.136	251230	REC_END	n/a	n/a	n/a	n/a	-999	1	[0, 0, 0]	n/a	catFR1	1	R1461T
240.331	10.35	253370	COUNTDOWN_START	n/a	n/a	n/a	n/a	-999	2	[0, 0, 0]	n/a	catFR1	1	R1461T
250.681	0.0	263715	COUNTDOWN_END	n/a	n/a	n/a	n/a	-999	2	[0, 0, 0]	n/a	catFR1	1	R1461T
250.681	2.266	263715	ENCODING_START	n/a	n/a	n/a	n/a	-999	2	[0, 0, 0]	n/a	catFR1	1	R1461T
252.947	1.6	265983	WORD	n/a	wordpools/wordpool_categorized_SP.txt	PALA	Tools	1	2	[0, 0, 0]	n/a	catFR1	1	R1461T
254.547	0.833	267584	WORD_OFF	n/a	n/a	PALA	Tools	1	2	[0, 0, 0]	n/a	catFR1	1	R1461T
255.38	1.601	268406	WORD	n/a	wordpools/wordpool_categorized_SP.txt	TRINQUETE	Tools	2	2	[0, 0, 0]	n/a	catFR1	1	R1461T
256.981	0.95	270008	WORD_OFF	n/a	n/a	TRINQUETE	Tools	2	2	[0, 0, 0]	n/a	catFR1	1	R1461T
257.931	1.617	270957	WORD	n/a	wordpools/wordpool_categorized_SP.txt	NARIZ	BodyParts	3	2	[0, 0, 0]	n/a	catFR1	1	R1461T
259.548	0.799	272573	WORD_OFF	n/a	n/a	NARIZ	BodyParts	3	2	[0, 0, 0]	n/a	catFR1	1	R1461T
260.347	1.601	273380	WORD	n/a	wordpools/wordpool_categorized_SP.txt	OJO	BodyParts	4	2	[0, 0, 0]	n/a	catFR1	1	R1461T
261.948	0.9	274982	WORD_OFF	n/a	n/a	OJO	BodyParts	4	2	[0, 0, 0]	n/a	catFR1	1	R1461T
262.848	1.6	275874	WORD	n/a	wordpools/wordpool_categorized_SP.txt	MICROONDAS	Electronics	5	2	[0, 0, 0]	n/a	catFR1	1	R1461T
264.448	0.966	277476	WORD_OFF	n/a	n/a	MICROONDAS	Electronics	5	2	[0, 0, 0]	n/a	catFR1	1	R1461T
265.414	1.617	278440	WORD	n/a	wordpools/wordpool_categorized_SP.txt	AUDIFONOS	Electronics	6	2	[0, 0, 0]	n/a	catFR1	1	R1461T
267.031	0.967	280069	WORD_OFF	n/a	n/a	AUDIFONOS	Electronics	6	2	[0, 0, 0]	n/a	catFR1	1	R1461T
267.998	1.616	281033	WORD	n/a	wordpools/wordpool_categorized_SP.txt	DEDOS	BodyParts	7	2	[0, 0, 0]	n/a	catFR1	1	R1461T
269.614	0.934	282648	WORD_OFF	n/a	n/a	DEDOS	BodyParts	7	2	[0, 0, 0]	n/a	catFR1	1	R1461T
270.548	1.601	283584	WORD	n/a	wordpools/wordpool_categorized_SP.txt	RODILLA	BodyParts	8	2	[0, 0, 0]	n/a	catFR1	1	R1461T
272.149	0.915	285185	WORD_OFF	n/a	n/a	RODILLA	BodyParts	8	2	[0, 0, 0]	n/a	catFR1	1	R1461T
273.064	1.6	286092	WORD	n/a	wordpools/wordpool_categorized_SP.txt	LLAVE	Tools	9	2	[0, 0, 0]	n/a	catFR1	1	R1461T
274.664	1.0	287693	WORD_OFF	n/a	n/a	LLAVE	Tools	9	2	[0, 0, 0]	n/a	catFR1	1	R1461T
275.664	1.617	288700	WORD	n/a	wordpools/wordpool_categorized_SP.txt	PALANCA	Tools	10	2	[0, 0, 0]	n/a	catFR1	1	R1461T
277.281	0.783	290315	WORD_OFF	n/a	n/a	PALANCA	Tools	10	2	[0, 0, 0]	n/a	catFR1	1	R1461T
278.064	1.616	291095	WORD	n/a	wordpools/wordpool_categorized_SP.txt	TELEVISION	Electronics	11	2	[0, 0, 0]	n/a	catFR1	1	R1461T
279.68	0.767	292710	WORD_OFF	n/a	n/a	TELEVISION	Electronics	11	2	[0, 0, 0]	n/a	catFR1	1	R1461T
280.447	1.617	293475	WORD	n/a	wordpools/wordpool_categorized_SP.txt	COMPUTADOR	Electronics	12	2	[0, 0, 0]	n/a	catFR1	1	R1461T
282.064	0.002	295091	WORD_OFF	n/a	n/a	COMPUTADOR	Electronics	12	2	[0, 0, 0]	n/a	catFR1	1	R1461T
282.066	0.0	295091	ENCODING_END	n/a	n/a	n/a	n/a	-999	2	[0, 0, 0]	n/a	catFR1	1	R1461T
282.065	0.001	295092	PROB	0.001	n/a	n/a	n/a	-999	2	[6, 6, 8]	668	catFR1	1	R1461T
282.066	0.0	295093	START	n/a	n/a	n/a	n/a	-999	2	[-999, -999, -999]	n/a	catFR1	1	R1461T
282.066	15.232	295105	DISTRACT_START	n/a	n/a	n/a	n/a	-999	2	[0, 0, 0]	n/a	catFR1	1	R1461T
297.298	6.917	310324	PROB	6.917	n/a	n/a	n/a	-999	2	[7, 7, 7]	777	catFR1	1	R1461T
304.215	0.0	317241	DISTRACT_END	n/a	n/a	n/a	n/a	-999	2	[0, 0, 0]	n/a	catFR1	1	R1461T
304.215	2.215	317241	STOP	n/a	n/a	n/a	n/a	-999	2	[-999, -999, -999]	n/a	catFR1	1	R1461T
306.43	0.406	319460	REC_START	n/a	n/a	n/a	n/a	-999	2	[0, 0, 0]	n/a	catFR1	1	R1461T
306.836	3.029	319862	REC_WORD	3.029	n/a	OJO	BodyParts	4	2	[0, 0, 0]	n/a	catFR1	1	R1461T
309.865	1.263	322891	REC_WORD_VV	1.263	n/a	<>	n/a	-999	2	[0, 0, 0]	n/a	catFR1	1	R1461T
311.128	1.677	324154	REC_WORD_VV	1.677	n/a	<>	n/a	-999	2	[0, 0, 0]	n/a	catFR1	1	R1461T
312.805	3.743	325831	REC_WORD	3.743	n/a	ESCALERA	n/a	-999	2	[0, 0, 0]	n/a	catFR1	1	R1461T
316.548	20.074	329573	REC_WORD	20.074	n/a	TAPIA	n/a	-999	2	[0, 0, 0]	n/a	catFR1	1	R1461T
336.622	3.009	349651	REC_END	n/a	n/a	n/a	n/a	-999	2	[0, 0, 0]	n/a	catFR1	1	R1461T
339.631	10.35	352655	COUNTDOWN_START	n/a	n/a	n/a	n/a	-999	3	[0, 0, 0]	n/a	catFR1	1	R1461T
349.981	0.001	363014	COUNTDOWN_END	n/a	n/a	n/a	n/a	-999	3	[0, 0, 0]	n/a	catFR1	1	R1461T
349.982	2.116	363014	ENCODING_START	n/a	n/a	n/a	n/a	-999	3	[0, 0, 0]	n/a	catFR1	1	R1461T
352.098	1.616	365126	WORD	n/a	wordpools/wordpool_categorized_SP.txt	NYLON	Fabric	1	3	[0, 0, 0]	n/a	catFR1	1	R1461T
353.714	0.9	366742	WORD_OFF	n/a	n/a	NYLON	Fabric	1	3	[0, 0, 0]	n/a	catFR1	1	R1461T
354.614	1.617	367634	WORD	n/a	wordpools/wordpool_categorized_SP.txt	TERCIOPELO	Fabric	2	3	[0, 0, 0]	n/a	catFR1	1	R1461T
356.231	0.95	369264	WORD_OFF	n/a	n/a	TERCIOPELO	Fabric	2	3	[0, 0, 0]	n/a	catFR1	1	R1461T
357.181	1.617	370214	WORD	n/a	wordpools/wordpool_categorized_SP.txt	TUBA	Instruments	3	3	[0, 0, 0]	n/a	catFR1	1	R1461T
358.798	0.915	371829	WORD_OFF	n/a	n/a	TUBA	Instruments	3	3	[0, 0, 0]	n/a	catFR1	1	R1461T
359.713	1.601	372736	WORD	n/a	wordpools/wordpool_categorized_SP.txt	BANJO	Instruments	4	3	[0, 0, 0]	n/a	catFR1	1	R1461T
361.314	0.9	374337	WORD_OFF	n/a	n/a	BANJO	Instruments	4	3	[0, 0, 0]	n/a	catFR1	1	R1461T
362.214	1.6	375244	WORD	n/a	wordpools/wordpool_categorized_SP.txt	ROMPECABEZAS	Toys	5	3	[0, 0, 0]	n/a	catFR1	1	R1461T
363.814	1.0	376846	WORD_OFF	n/a	n/a	ROMPECABEZAS	Toys	5	3	[0, 0, 0]	n/a	catFR1	1	R1461T
364.814	1.6	377838	WORD	n/a	wordpools/wordpool_categorized_SP.txt	BEISBOL	Toys	6	3	[0, 0, 0]	n/a	catFR1	1	R1461T
366.414	0.884	379439	WORD_OFF	n/a	n/a	BEISBOL	Toys	6	3	[0, 0, 0]	n/a	catFR1	1	R1461T
367.298	1.616	380318	WORD	n/a	wordpools/wordpool_categorized_SP.txt	MEZCLILLA	Fabric	7	3	[0, 0, 0]	n/a	catFR1	1	R1461T
368.914	0.966	381933	WORD_OFF	n/a	n/a	MEZCLILLA	Fabric	7	3	[0, 0, 0]	n/a	catFR1	1	R1461T
369.88	1.6	382911	WORD	n/a	wordpools/wordpool_categorized_SP.txt	SEDA	Fabric	8	3	[0, 0, 0]	n/a	catFR1	1	R1461T
371.48	0.901	384498	WORD_OFF	n/a	n/a	SEDA	Fabric	8	3	[0, 0, 0]	n/a	catFR1	1	R1461T
372.381	1.6	385405	WORD	n/a	wordpools/wordpool_categorized_SP.txt	FUTBOL	Toys	9	3	[0, 0, 0]	n/a	catFR1	1	R1461T
373.981	0.783	387007	WORD_OFF	n/a	n/a	FUTBOL	Toys	9	3	[0, 0, 0]	n/a	catFR1	1	R1461T
374.764	1.6	387786	WORD	n/a	wordpools/wordpool_categorized_SP.txt	CASITA	Toys	10	3	[0, 0, 0]	n/a	catFR1	1	R1461T
376.364	0.884	389388	WORD_OFF	n/a	n/a	CASITA	Toys	10	3	[0, 0, 0]	n/a	catFR1	1	R1461T
377.248	1.617	390266	WORD	n/a	wordpools/wordpool_categorized_SP.txt	ORGANO	Instruments	11	3	[0, 0, 0]	n/a	catFR1	1	R1461T
378.865	0.966	391896	WORD_OFF	n/a	n/a	ORGANO	Instruments	11	3	[0, 0, 0]	n/a	catFR1	1	R1461T
379.831	1.601	392860	WORD	n/a	wordpools/wordpool_categorized_SP.txt	TROMBON	Instruments	12	3	[0, 0, 0]	n/a	catFR1	1	R1461T
381.432	0.003	394454	PROB	0.003	n/a	n/a	n/a	-999	3	[7, 1, 6]	716	catFR1	1	R1461T
381.435	0.0	394457	START	n/a	n/a	n/a	n/a	-999	3	[-999, -999, -999]	n/a	catFR1	1	R1461T
381.431	0.004	394461	WORD_OFF	n/a	n/a	TROMBON	Instruments	12	3	[0, 0, 0]	n/a	catFR1	1	R1461T
381.435	0.0	394461	ENCODING_END	n/a	n/a	n/a	n/a	-999	3	[0, 0, 0]	n/a	catFR1	1	R1461T
381.435	13.147	394461	DISTRACT_START	n/a	n/a	n/a	n/a	-999	3	[0, 0, 0]	n/a	catFR1	1	R1461T
394.582	26.099	407603	PROB	26.099	n/a	n/a	n/a	-999	3	[4, 4, 3]	443	catFR1	1	R1461T
420.681	0.0	433701	STOP	n/a	n/a	n/a	n/a	-999	3	[-999, -999, -999]	n/a	catFR1	1	R1461T
420.681	2.35	433702	DISTRACT_END	n/a	n/a	n/a	n/a	-999	3	[0, 0, 0]	n/a	catFR1	1	R1461T
423.031	30.011	436048	REC_START	n/a	n/a	n/a	n/a	-999	3	[0, 0, 0]	n/a	catFR1	1	R1461T
453.042	0.2	466060	REC_WORD_VV	0.2	n/a	<>	n/a	-999	3	[0, 0, 0]	n/a	catFR1	1	R1461T
453.242	17.756	466267	REC_END	n/a	n/a	n/a	n/a	-999	3	[0, 0, 0]	n/a	catFR1	1	R1461T
470.998	10.35	484024	COUNTDOWN_START	n/a	n/a	n/a	n/a	-999	4	[0, 0, 0]	n/a	catFR1	1	R1461T
481.348	0.0	494369	COUNTDOWN_END	n/a	n/a	n/a	n/a	-999	4	[0, 0, 0]	n/a	catFR1	1	R1461T
481.348	2.117	494369	ENCODING_START	n/a	n/a	n/a	n/a	-999	4	[0, 0, 0]	n/a	catFR1	1	R1461T
483.465	1.616	496481	WORD	n/a	wordpools/wordpool_categorized_SP.txt	ESCRITORIO	Furniture	1	4	[0, 0, 0]	n/a	catFR1	1	R1461T
485.081	0.917	498096	WORD_OFF	n/a	n/a	ESCRITORIO	Furniture	1	4	[0, 0, 0]	n/a	catFR1	1	R1461T
485.998	1.6	499018	WORD	n/a	wordpools/wordpool_categorized_SP.txt	SOFA	Furniture	2	4	[0, 0, 0]	n/a	catFR1	1	R1461T
487.598	0.9	500619	WORD_OFF	n/a	n/a	SOFA	Furniture	2	4	[0, 0, 0]	n/a	catFR1	1	R1461T
488.498	1.617	501526	WORD	n/a	wordpools/wordpool_categorized_SP.txt	LAVADORA	Appliances	3	4	[0, 0, 0]	n/a	catFR1	1	R1461T
490.115	0.933	503141	WORD_OFF	n/a	n/a	LAVADORA	Appliances	3	4	[0, 0, 0]	n/a	catFR1	1	R1461T
491.048	1.616	504063	WORD	n/a	wordpools/wordpool_categorized_SP.txt	REFRIGERADOR	Appliances	4	4	[0, 0, 0]	n/a	catFR1	1	R1461T
492.664	0.817	505678	WORD_OFF	n/a	n/a	REFRIGERADOR	Appliances	4	4	[0, 0, 0]	n/a	catFR1	1	R1461T
493.481	1.6	506500	WORD	n/a	wordpools/wordpool_categorized_SP.txt	CLAVEL	Flowers	5	4	[0, 0, 0]	n/a	catFR1	1	R1461T
495.081	0.933	508101	WORD_OFF	n/a	n/a	CLAVEL	Flowers	5	4	[0, 0, 0]	n/a	catFR1	1	R1461T
496.014	1.601	509037	WORD	n/a	wordpools/wordpool_categorized_SP.txt	GIRASOL	Flowers	6	4	[0, 0, 0]	n/a	catFR1	1	R1461T
497.615	0.966	510638	WORD_OFF	n/a	n/a	GIRASOL	Flowers	6	4	[0, 0, 0]	n/a	catFR1	1	R1461T
498.581	1.6	511602	WORD	n/a	wordpools/wordpool_categorized_SP.txt	ESTUFA	Appliances	7	4	[0, 0, 0]	n/a	catFR1	1	R1461T
500.181	0.8	513203	WORD_OFF	n/a	n/a	ESTUFA	Appliances	7	4	[0, 0, 0]	n/a	catFR1	1	R1461T
500.981	1.6	513997	WORD	n/a	wordpools/wordpool_categorized_SP.txt	ASPIRADORA	Appliances	8	4	[0, 0, 0]	n/a	catFR1	1	R1461T
502.581	0.984	515598	WORD_OFF	n/a	n/a	ASPIRADORA	Appliances	8	4	[0, 0, 0]	n/a	catFR1	1	R1461T
503.565	1.616	516590	WORD	n/a	wordpools/wordpool_categorized_SP.txt	BURO	Furniture	9	4	[0, 0, 0]	n/a	catFR1	1	R1461T
505.181	0.984	518206	WORD_OFF	n/a	n/a	BURO	Furniture	9	4	[0, 0, 0]	n/a	catFR1	1	R1461T
506.165	1.616	519184	WORD	n/a	wordpools/wordpool_categorized_SP.txt	MESA	Furniture	10	4	[0, 0, 0]	n/a	catFR1	1	R1461T
507.781	1.0	520799	WORD_OFF	n/a	n/a	MESA	Furniture	10	4	[0, 0, 0]	n/a	catFR1	1	R1461T
508.781	1.617	521805	WORD	n/a	wordpools/wordpool_categorized_SP.txt	PETUNIA	Flowers	11	4	[0, 0, 0]	n/a	catFR1	1	R1461T
510.398	1.0	523421	WORD_OFF	n/a	n/a	PETUNIA	Flowers	11	4	[0, 0, 0]	n/a	catFR1	1	R1461T
511.398	1.6	524413	WORD	n/a	wordpools/wordpool_categorized_SP.txt	NARCISO	Flowers	12	4	[0, 0, 0]	n/a	catFR1	1	R1461T
512.998	0.0	526013	PROB	0.0	n/a	n/a	n/a	-999	4	[8, 5, 8]	858	catFR1	1	R1461T
512.998	0.001	526014	WORD_OFF	n/a	n/a	NARCISO	Flowers	12	4	[0, 0, 0]	n/a	catFR1	1	R1461T
512.999	0.001	526014	ENCODING_END	n/a	n/a	n/a	n/a	-999	4	[0, 0, 0]	n/a	catFR1	1	R1461T
513.0	0.0	526014	DISTRACT_START	n/a	n/a	n/a	n/a	-999	4	[0, 0, 0]	n/a	catFR1	1	R1461T
513.0	15.132	526015	START	n/a	n/a	n/a	n/a	-999	4	[-999, -999, -999]	n/a	catFR1	1	R1461T
528.132	9.216	541147	PROB	9.216	n/a	n/a	n/a	-999	4	[1, 6, 7]	167	catFR1	1	R1461T
537.348	0.0	550361	DISTRACT_END	n/a	n/a	n/a	n/a	-999	4	[0, 0, 0]	n/a	catFR1	1	R1461T
537.348	2.366	550362	STOP	n/a	n/a	n/a	n/a	-999	4	[-999, -999, -999]	n/a	catFR1	1	R1461T
539.714	3.289	552735	REC_START	n/a	n/a	n/a	n/a	-999	4	[0, 0, 0]	n/a	catFR1	1	R1461T
543.003	0.971	556017	REC_WORD_VV	0.971	n/a	<>	n/a	-999	4	[0, 0, 0]	n/a	catFR1	1	R1461T
543.974	1.003	556988	REC_WORD	1.003	n/a	BEI	n/a	-999	4	[0, 0, 0]	n/a	catFR1	1	R1461T
544.977	1.257	557991	REC_WORD	1.257	n/a	BEISBOL	Toys	-999	4	[0, 0, 0]	n/a	catFR1	1	R1461T
546.234	1.376	559248	REC_WORD	1.376	n/a	MESA	Furniture	10	4	[0, 0, 0]	n/a	catFR1	1	R1461T
547.61	10.56	560624	REC_WORD	10.56	n/a	CASA	n/a	-999	4	[0, 0, 0]	n/a	catFR1	1	R1461T
558.17	1.0	571183	REC_WORD	1.0	n/a	ESTUFA	Appliances	7	4	[0, 0, 0]	n/a	catFR1	1	R1461T
559.17	10.769	572183	REC_WORD	10.769	n/a	ESTUFA	Appliances	7	4	[0, 0, 0]	n/a	catFR1	1	R1461T
569.939	14.426	582955	REC_END	n/a	n/a	n/a	n/a	-999	4	[0, 0, 0]	n/a	catFR1	1	R1461T
584.365	10.35	597381	COUNTDOWN_START	n/a	n/a	n/a	n/a	-999	5	[0, 0, 0]	n/a	catFR1	1	R1461T
594.715	0.0	607726	COUNTDOWN_END	n/a	n/a	n/a	n/a	-999	5	[0, 0, 0]	n/a	catFR1	1	R1461T
594.715	1.966	607726	ENCODING_START	n/a	n/a	n/a	n/a	-999	5	[0, 0, 0]	n/a	catFR1	1	R1461T
596.681	1.6	609696	WORD	n/a	wordpools/wordpool_categorized_SP.txt	BOSQUE	Landscapes	1	5	[0, 0, 0]	n/a	catFR1	1	R1461T
598.281	0.799	611298	WORD_OFF	n/a	n/a	BOSQUE	Landscapes	1	5	[0, 0, 0]	n/a	catFR1	1	R1461T
599.08	1.601	612091	WORD	n/a	wordpools/wordpool_categorized_SP.txt	RIO	Landscapes	2	5	[0, 0, 0]	n/a	catFR1	1	R1461T
600.681	0.8	613693	WORD_OFF	n/a	n/a	RIO	Landscapes	2	5	[0, 0, 0]	n/a	catFR1	1	R1461T
601.481	1.617	614500	WORD	n/a	wordpools/wordpool_categorized_SP.txt	CAMIONETA	Vehicles	3	5	[0, 0, 0]	n/a	catFR1	1	R1461T
603.098	0.95	616116	WORD_OFF	n/a	n/a	CAMIONETA	Vehicles	3	5	[0, 0, 0]	n/a	catFR1	1	R1461T
604.048	1.6	617065	WORD	n/a	wordpools/wordpool_categorized_SP.txt	TREN	Vehicles	4	5	[0, 0, 0]	n/a	catFR1	1	R1461T
605.648	0.966	618667	WORD_OFF	n/a	n/a	TREN	Vehicles	4	5	[0, 0, 0]	n/a	catFR1	1	R1461T
606.614	1.6	619630	WORD	n/a	wordpools/wordpool_categorized_SP.txt	BROCOLI	Vegetables	5	5	[0, 0, 0]	n/a	catFR1	1	R1461T
608.214	0.833	621232	WORD_OFF	n/a	n/a	BROCOLI	Vegetables	5	5	[0, 0, 0]	n/a	catFR1	1	R1461T
609.047	1.601	622054	WORD	n/a	wordpools/wordpool_categorized_SP.txt	APIO	Vegetables	6	5	[0, 0, 0]	n/a	catFR1	1	R1461T
610.648	0.9	623655	WORD_OFF	n/a	n/a	APIO	Vegetables	6	5	[0, 0, 0]	n/a	catFR1	1	R1461T
611.548	1.6	624562	WORD	n/a	wordpools/wordpool_categorized_SP.txt	JEEP	Vehicles	7	5	[0, 0, 0]	n/a	catFR1	1	R1461T
613.148	0.949	626164	WORD_OFF	n/a	n/a	JEEP	Vehicles	7	5	[0, 0, 0]	n/a	catFR1	1	R1461T
614.097	1.616	627113	WORD	n/a	wordpools/wordpool_categorized_SP.txt	MOTOCICLETA	Vehicles	8	5	[0, 0, 0]	n/a	catFR1	1	R1461T
615.713	0.934	628729	WORD_OFF	n/a	n/a	MOTOCICLETA	Vehicles	8	5	[0, 0, 0]	n/a	catFR1	1	R1461T
616.647	1.6	629664	WORD	n/a	wordpools/wordpool_categorized_SP.txt	CORRIENTE	Landscapes	9	5	[0, 0, 0]	n/a	catFR1	1	R1461T
618.247	0.916	631265	WORD_OFF	n/a	n/a	CORRIENTE	Landscapes	9	5	[0, 0, 0]	n/a	catFR1	1	R1461T
619.163	1.601	632172	WORD	n/a	wordpools/wordpool_categorized_SP.txt	VALLE	Landscapes	10	5	[0, 0, 0]	n/a	catFR1	1	R1461T
620.764	0.933	633774	WORD_OFF	n/a	n/a	VALLE	Landscapes	10	5	[0, 0, 0]	n/a	catFR1	1	R1461T
621.697	1.6	634709	WORD	n/a	wordpools/wordpool_categorized_SP.txt	PEPINO	Vegetables	11	5	[0, 0, 0]	n/a	catFR1	1	R1461T
623.297	0.783	636310	WORD_OFF	n/a	n/a	PEPINO	Vegetables	11	5	[0, 0, 0]	n/a	catFR1	1	R1461T
624.08	1.617	637090	WORD	n/a	wordpools/wordpool_categorized_SP.txt	ZANAHORIA	Vegetables	12	5	[0, 0, 0]	n/a	catFR1	1	R1461T
625.697	0.002	638705	WORD_OFF	n/a	n/a	ZANAHORIA	Vegetables	12	5	[0, 0, 0]	n/a	catFR1	1	R1461T
625.699	0.0	638705	ENCODING_END	n/a	n/a	n/a	n/a	-999	5	[0, 0, 0]	n/a	catFR1	1	R1461T
625.697	0.002	638707	PROB	0.002	n/a	n/a	n/a	-999	5	[2, 3, 3]	233	catFR1	1	R1461T
625.699	0.0	638709	START	n/a	n/a	n/a	n/a	-999	5	[-999, -999, -999]	n/a	catFR1	1	R1461T
625.699	18.115	638719	DISTRACT_START	n/a	n/a	n/a	n/a	-999	5	[0, 0, 0]	n/a	catFR1	1	R1461T
643.814	21.716	656823	PROB	21.716	n/a	n/a	n/a	-999	5	[5, 3, 2]	523	catFR1	1	R1461T
665.53	0.0	678538	STOP	n/a	n/a	n/a	n/a	-999	5	[-999, -999, -999]	n/a	catFR1	1	R1461T
665.53	2.134	678541	DISTRACT_END	n/a	n/a	n/a	n/a	-999	5	[0, 0, 0]	n/a	catFR1	1	R1461T
667.664	1.005	680675	REC_START	n/a	n/a	n/a	n/a	-999	5	[0, 0, 0]	n/a	catFR1	1	R1461T
668.669	1.0	681676	REC_WORD	1.0	n/a	PEPINO	Vegetables	11	5	[0, 0, 0]	n/a	catFR1	1	R1461T
669.669	2.821	682676	REC_WORD	2.821	n/a	PEPINO	Vegetables	11	5	[0, 0, 0]	n/a	catFR1	1	R1461T
672.49	25.413	685497	REC_WORD	25.413	n/a	VALLE	Landscapes	10	5	[0, 0, 0]	n/a	catFR1	1	R1461T
697.903	5.144	710909	REC_END	n/a	n/a	n/a	n/a	-999	5	[0, 0, 0]	n/a	catFR1	1	R1461T
703.047	10.349	716053	COUNTDOWN_START	n/a	n/a	n/a	n/a	-999	6	[0, 0, 0]	n/a	catFR1	1	R1461T
713.396	0.0	726398	COUNTDOWN_END	n/a	n/a	n/a	n/a	-999	6	[0, 0, 0]	n/a	catFR1	1	R1461T
713.396	1.984	726412	ENCODING_START	n/a	n/a	n/a	n/a	-999	6	[0, 0, 0]	n/a	catFR1	1	R1461T
715.38	1.617	728382	WORD	n/a	wordpools/wordpool_categorized_SP.txt	MONO	Zoo	1	6	[0, 0, 0]	n/a	catFR1	1	R1461T
716.997	0.9	729997	WORD_OFF	n/a	n/a	MONO	Zoo	1	6	[0, 0, 0]	n/a	catFR1	1	R1461T
717.897	1.616	730904	WORD	n/a	wordpools/wordpool_categorized_SP.txt	JIRAFA	Zoo	2	6	[0, 0, 0]	n/a	catFR1	1	R1461T
719.513	0.833	732520	WORD_OFF	n/a	n/a	JIRAFA	Zoo	2	6	[0, 0, 0]	n/a	catFR1	1	R1461T
720.346	1.617	733356	WORD	n/a	wordpools/wordpool_categorized_SP.txt	ESTEREO	Electronics	3	6	[0, 0, 0]	n/a	catFR1	1	R1461T
721.963	0.834	734972	WORD_OFF	n/a	n/a	ESTEREO	Electronics	3	6	[0, 0, 0]	n/a	catFR1	1	R1461T
722.797	1.6	735808	WORD	n/a	wordpools/wordpool_categorized_SP.txt	RADIO	Electronics	4	6	[0, 0, 0]	n/a	catFR1	1	R1461T
724.397	0.8	737409	WORD_OFF	n/a	n/a	RADIO	Electronics	4	6	[0, 0, 0]	n/a	catFR1	1	R1461T
725.197	1.617	738203	WORD	n/a	wordpools/wordpool_categorized_SP.txt	ARANDANO	Fruit	5	6	[0, 0, 0]	n/a	catFR1	1	R1461T
726.814	0.815	739818	WORD_OFF	n/a	n/a	ARANDANO	Fruit	5	6	[0, 0, 0]	n/a	catFR1	1	R1461T
727.629	1.601	740640	WORD	n/a	wordpools/wordpool_categorized_SP.txt	LIMON	Fruit	6	6	[0, 0, 0]	n/a	catFR1	1	R1461T
729.23	0.983	742242	WORD_OFF	n/a	n/a	LIMON	Fruit	6	6	[0, 0, 0]	n/a	catFR1	1	R1461T
730.213	1.6	743219	WORD	n/a	wordpools/wordpool_categorized_SP.txt	ESCANER	Electronics	7	6	[0, 0, 0]	n/a	catFR1	1	R1461T
731.813	0.817	744821	WORD_OFF	n/a	n/a	ESCANER	Electronics	7	6	[0, 0, 0]	n/a	catFR1	1	R1461T
732.63	1.616	745643	WORD	n/a	wordpools/wordpool_categorized_SP.txt	IMPRESORA	Electronics	8	6	[0, 0, 0]	n/a	catFR1	1	R1461T
734.246	0.867	747258	WORD_OFF	n/a	n/a	IMPRESORA	Electronics	8	6	[0, 0, 0]	n/a	catFR1	1	R1461T
735.113	1.601	748123	WORD	n/a	wordpools/wordpool_categorized_SP.txt	FRESA	Fruit	9	6	[0, 0, 0]	n/a	catFR1	1	R1461T
736.714	0.949	749724	WORD_OFF	n/a	n/a	FRESA	Fruit	9	6	[0, 0, 0]	n/a	catFR1	1	R1461T
737.663	1.601	750674	WORD	n/a	wordpools/wordpool_categorized_SP.txt	NARANJA	Fruit	10	6	[0, 0, 0]	n/a	catFR1	1	R1461T
739.264	0.765	752275	WORD_OFF	n/a	n/a	NARANJA	Fruit	10	6	[0, 0, 0]	n/a	catFR1	1	R1461T
740.029	1.601	753040	WORD	n/a	wordpools/wordpool_categorized_SP.txt	ORANGUTAN	Zoo	11	6	[0, 0, 0]	n/a	catFR1	1	R1461T
741.63	0.953	754642	WORD_OFF	n/a	n/a	ORANGUTAN	Zoo	11	6	[0, 0, 0]	n/a	catFR1	1	R1461T
742.583	1.598	755591	WORD	n/a	wordpools/wordpool_categorized_SP.txt	GORILA	Zoo	12	6	[0, 0, 0]	n/a	catFR1	1	R1461T
744.181	0.001	757184	PROB	0.001	n/a	n/a	n/a	-999	6	[4, 2, 7]	427	catFR1	1	R1461T
744.182	0.0	757185	START	n/a	n/a	n/a	n/a	-999	6	[-999, -999, -999]	n/a	catFR1	1	R1461T
744.18	0.002	757192	WORD_OFF	n/a	n/a	GORILA	Zoo	12	6	[0, 0, 0]	n/a	catFR1	1	R1461T
744.182	0.0	757192	ENCODING_END	n/a	n/a	n/a	n/a	-999	6	[0, 0, 0]	n/a	catFR1	1	R1461T
744.182	16.332	757192	DISTRACT_START	n/a	n/a	n/a	n/a	-999	6	[0, 0, 0]	n/a	catFR1	1	R1461T
760.514	10.4	773517	PROB	10.4	n/a	n/a	n/a	-999	6	[1, 1, 5]	115	catFR1	1	R1461T
770.914	0.0	783916	STOP	n/a	n/a	n/a	n/a	-999	6	[-999, -999, -999]	n/a	catFR1	1	R1461T
770.914	2.333	783920	DISTRACT_END	n/a	n/a	n/a	n/a	-999	6	[0, 0, 0]	n/a	catFR1	1	R1461T
773.247	2.478	786252	REC_START	n/a	n/a	n/a	n/a	-999	6	[0, 0, 0]	n/a	catFR1	1	R1461T
775.725	0.997	788727	REC_WORD	0.997	n/a	PIANO	n/a	-999	6	[0, 0, 0]	n/a	catFR1	1	R1461T
776.722	3.6	789724	REC_WORD	3.6	n/a	PIANO	n/a	-999	6	[0, 0, 0]	n/a	catFR1	1	R1461T
780.322	4.963	793324	REC_WORD_VV	4.963	n/a	<>	n/a	-999	6	[0, 0, 0]	n/a	catFR1	1	R1461T
785.285	4.633	798286	REC_WORD	4.633	n/a	VALLE	Landscapes	-999	6	[0, 0, 0]	n/a	catFR1	1	R1461T
789.918	1.49	802919	REC_WORD	1.49	n/a	MANZANA	n/a	-999	6	[0, 0, 0]	n/a	catFR1	1	R1461T
791.408	12.055	804409	REC_WORD	12.055	n/a	PEPINO	Vegetables	-999	6	[0, 0, 0]	n/a	catFR1	1	R1461T
803.463	8.65	816471	REC_END	n/a	n/a	n/a	n/a	-999	6	[0, 0, 0]	n/a	catFR1	1	R1461T
812.113	10.35	825116	COUNTDOWN_START	n/a	n/a	n/a	n/a	-999	7	[0, 0, 0]	n/a	catFR1	1	R1461T
822.463	0.0	835461	COUNTDOWN_END	n/a	n/a	n/a	n/a	-999	7	[0, 0, 0]	n/a	catFR1	1	R1461T
822.463	1.883	835475	ENCODING_START	n/a	n/a	n/a	n/a	-999	7	[0, 0, 0]	n/a	catFR1	1	R1461T
824.346	1.6	837346	WORD	n/a	wordpools/wordpool_categorized_SP.txt	SODA	Beverages	1	7	[0, 0, 0]	n/a	catFR1	1	R1461T
825.946	0.801	838947	WORD_OFF	n/a	n/a	SODA	Beverages	1	7	[0, 0, 0]	n/a	catFR1	1	R1461T
826.747	1.6	839755	WORD	n/a	wordpools/wordpool_categorized_SP.txt	CAFE	Beverages	2	7	[0, 0, 0]	n/a	catFR1	1	R1461T
828.347	0.867	841342	WORD_OFF	n/a	n/a	CAFE	Beverages	2	7	[0, 0, 0]	n/a	catFR1	1	R1461T
829.214	1.6	842221	WORD	n/a	wordpools/wordpool_categorized_SP.txt	ELEFANTE	Zoo	3	7	[0, 0, 0]	n/a	catFR1	1	R1461T
830.814	0.783	843822	WORD_OFF	n/a	n/a	ELEFANTE	Zoo	3	7	[0, 0, 0]	n/a	catFR1	1	R1461T
831.597	1.6	844602	WORD	n/a	wordpools/wordpool_categorized_SP.txt	PANDA	Zoo	4	7	[0, 0, 0]	n/a	catFR1	1	R1461T
833.197	0.917	846203	WORD_OFF	n/a	n/a	PANDA	Zoo	4	7	[0, 0, 0]	n/a	catFR1	1	R1461T
834.114	1.615	847110	WORD	n/a	wordpools/wordpool_categorized_SP.txt	FLAUTA	Instruments	5	7	[0, 0, 0]	n/a	catFR1	1	R1461T
835.729	0.834	848726	WORD_OFF	n/a	n/a	FLAUTA	Instruments	5	7	[0, 0, 0]	n/a	catFR1	1	R1461T
836.563	1.601	849562	WORD	n/a	wordpools/wordpool_categorized_SP.txt	VIOLIN	Instruments	6	7	[0, 0, 0]	n/a	catFR1	1	R1461T
838.164	0.849	851163	WORD_OFF	n/a	n/a	VIOLIN	Instruments	6	7	[0, 0, 0]	n/a	catFR1	1	R1461T
839.013	1.601	852013	WORD	n/a	wordpools/wordpool_categorized_SP.txt	OSO	Zoo	7	7	[0, 0, 0]	n/a	catFR1	1	R1461T
840.614	0.783	853615	WORD_OFF	n/a	n/a	OSO	Zoo	7	7	[0, 0, 0]	n/a	catFR1	1	R1461T
841.397	1.616	854394	WORD	n/a	wordpools/wordpool_categorized_SP.txt	CHIMPANCE	Zoo	8	7	[0, 0, 0]	n/a	catFR1	1	R1461T
843.013	0.817	856010	WORD_OFF	n/a	n/a	CHIMPANCE	Zoo	8	7	[0, 0, 0]	n/a	catFR1	1	R1461T
843.83	1.617	856832	WORD	n/a	wordpools/wordpool_categorized_SP.txt	BAJO	Instruments	9	7	[0, 0, 0]	n/a	catFR1	1	R1461T
845.447	0.832	858447	WORD_OFF	n/a	n/a	BAJO	Instruments	9	7	[0, 0, 0]	n/a	catFR1	1	R1461T
846.279	1.601	859283	WORD	n/a	wordpools/wordpool_categorized_SP.txt	TROMPETA	Instruments	10	7	[0, 0, 0]	n/a	catFR1	1	R1461T
847.88	0.949	860885	WORD_OFF	n/a	n/a	TROMPETA	Instruments	10	7	[0, 0, 0]	n/a	catFR1	1	R1461T
848.829	1.602	861834	WORD	n/a	wordpools/wordpool_categorized_SP.txt	TE	Beverages	11	7	[0, 0, 0]	n/a	catFR1	1	R1461T
850.431	0.948	863436	WORD_OFF	n/a	n/a	TE	Beverages	11	7	[0, 0, 0]	n/a	catFR1	1	R1461T
851.379	1.602	864385	WORD	n/a	wordpools/wordpool_categorized_SP.txt	CERVEZA	Beverages	12	7	[0, 0, 0]	n/a	catFR1	1	R1461T
852.981	0.001	865979	PROB	0.001	n/a	n/a	n/a	-999	7	[6, 7, 6]	676	catFR1	1	R1461T
852.982	0.0	865980	START	n/a	n/a	n/a	n/a	-999	7	[-999, -999, -999]	n/a	catFR1	1	R1461T
852.98	0.002	865986	WORD_OFF	n/a	n/a	CERVEZA	Beverages	12	7	[0, 0, 0]	n/a	catFR1	1	R1461T
852.982	0.0	865986	ENCODING_END	n/a	n/a	n/a	n/a	-999	7	[0, 0, 0]	n/a	catFR1	1	R1461T
852.982	18.865	865986	DISTRACT_START	n/a	n/a	n/a	n/a	-999	7	[0, 0, 0]	n/a	catFR1	1	R1461T
871.847	16.15	884844	PROB	16.15	n/a	n/a	n/a	-999	7	[1, 2, 4]	124	catFR1	1	R1461T
887.997	0.0	900990	DISTRACT_END	n/a	n/a	n/a	n/a	-999	7	[0, 0, 0]	n/a	catFR1	1	R1461T
887.997	2.049	900993	STOP	n/a	n/a	n/a	n/a	-999	7	[-999, -999, -999]	n/a	catFR1	1	R1461T
890.046	0.229	903038	REC_START	n/a	n/a	n/a	n/a	-999	7	[0, 0, 0]	n/a	catFR1	1	R1461T
890.275	0.708	903271	REC_WORD_VV	0.708	n/a	<>	n/a	-999	7	[0, 0, 0]	n/a	catFR1	1	R1461T
890.983	3.019	903979	REC_WORD	3.019	n/a	TE	Beverages	11	7	[0, 0, 0]	n/a	catFR1	1	R1461T
894.002	4.996	906998	REC_WORD	4.996	n/a	PIANO	n/a	-999	7	[0, 0, 0]	n/a	catFR1	1	R1461T
898.998	0.773	911994	REC_WORD	0.773	n/a	PEPINO	Vegetables	-999	7	[0, 0, 0]	n/a	catFR1	1	R1461T
899.771	2.781	912767	REC_WORD	2.781	n/a	SODA	Beverages	1	7	[0, 0, 0]	n/a	catFR1	1	R1461T
902.552	17.707	915547	REC_WORD	17.707	n/a	CERVEZA	Beverages	12	7	[0, 0, 0]	n/a	catFR1	1	R1461T
920.259	3.588	933258	REC_END	n/a	n/a	n/a	n/a	-999	7	[0, 0, 0]	n/a	catFR1	1	R1461T
923.847	10.35	936843	COUNTDOWN_START	n/a	n/a	n/a	n/a	-999	8	[0, 0, 0]	n/a	catFR1	1	R1461T
934.197	0.0	947189	COUNTDOWN_END	n/a	n/a	n/a	n/a	-999	8	[0, 0, 0]	n/a	catFR1	1	R1461T
934.197	2.232	947189	ENCODING_START	n/a	n/a	n/a	n/a	-999	8	[0, 0, 0]	n/a	catFR1	1	R1461T
936.429	1.601	949428	WORD	n/a	wordpools/wordpool_categorized_SP.txt	HACHA	Tools	1	8	[0, 0, 0]	n/a	catFR1	1	R1461T
938.03	0.95	951029	WORD_OFF	n/a	n/a	HACHA	Tools	1	8	[0, 0, 0]	n/a	catFR1	1	R1461T
938.98	1.6	951979	WORD	n/a	wordpools/wordpool_categorized_SP.txt	MARTILLO	Tools	2	8	[0, 0, 0]	n/a	catFR1	1	R1461T
940.58	0.917	953580	WORD_OFF	n/a	n/a	MARTILLO	Tools	2	8	[0, 0, 0]	n/a	catFR1	1	R1461T
941.497	1.616	954487	WORD	n/a	wordpools/wordpool_categorized_SP.txt	MECEDORA	Furniture	3	8	[0, 0, 0]	n/a	catFR1	1	R1461T
943.113	0.867	956102	WORD_OFF	n/a	n/a	MECEDORA	Furniture	3	8	[0, 0, 0]	n/a	catFR1	1	R1461T
943.98	1.617	956981	WORD	n/a	wordpools/wordpool_categorized_SP.txt	GABINETE	Furniture	4	8	[0, 0, 0]	n/a	catFR1	1	R1461T
945.597	0.799	958597	WORD_OFF	n/a	n/a	GABINETE	Furniture	4	8	[0, 0, 0]	n/a	catFR1	1	R1461T
946.396	1.601	959390	WORD	n/a	wordpools/wordpool_categorized_SP.txt	DULCE	Desserts	5	8	[0, 0, 0]	n/a	catFR1	1	R1461T
947.997	0.867	960992	WORD_OFF	n/a	n/a	DULCE	Desserts	5	8	[0, 0, 0]	n/a	catFR1	1	R1461T
948.864	1.616	961856	WORD	n/a	wordpools/wordpool_categorized_SP.txt	TORTA	Desserts	6	8	[0, 0, 0]	n/a	catFR1	1	R1461T
950.48	0.767	963472	WORD_OFF	n/a	n/a	TORTA	Desserts	6	8	[0, 0, 0]	n/a	catFR1	1	R1461T
951.247	1.6	964237	WORD	n/a	wordpools/wordpool_categorized_SP.txt	ALICATES	Tools	7	8	[0, 0, 0]	n/a	catFR1	1	R1461T
952.847	0.85	965838	WORD_OFF	n/a	n/a	ALICATES	Tools	7	8	[0, 0, 0]	n/a	catFR1	1	R1461T
953.697	1.6	966688	WORD	n/a	wordpools/wordpool_categorized_SP.txt	NIVEL	Tools	8	8	[0, 0, 0]	n/a	catFR1	1	R1461T
955.297	0.95	968290	WORD_OFF	n/a	n/a	NIVEL	Tools	8	8	[0, 0, 0]	n/a	catFR1	1	R1461T
956.247	1.6	969239	WORD	n/a	wordpools/wordpool_categorized_SP.txt	SILLA	Furniture	9	8	[0, 0, 0]	n/a	catFR1	1	R1461T
957.847	0.949	970841	WORD_OFF	n/a	n/a	SILLA	Furniture	9	8	[0, 0, 0]	n/a	catFR1	1	R1461T
958.796	1.6	971790	WORD	n/a	wordpools/wordpool_categorized_SP.txt	ESTANTE	Furniture	10	8	[0, 0, 0]	n/a	catFR1	1	R1461T
960.396	0.851	973392	WORD_OFF	n/a	n/a	ESTANTE	Furniture	10	8	[0, 0, 0]	n/a	catFR1	1	R1461T
961.247	1.6	974242	WORD	n/a	wordpools/wordpool_categorized_SP.txt	CHURRO	Desserts	11	8	[0, 0, 0]	n/a	catFR1	1	R1461T
962.847	1.017	975843	WORD_OFF	n/a	n/a	CHURRO	Desserts	11	8	[0, 0, 0]	n/a	catFR1	1	R1461T
963.864	1.616	976864	WORD	n/a	wordpools/wordpool_categorized_SP.txt	PUDIN	Desserts	12	8	[0, 0, 0]	n/a	catFR1	1	R1461T
965.48	0.001	978472	PROB	0.001	n/a	n/a	n/a	-999	8	[7, 1, 5]	715	catFR1	1	R1461T
965.481	0.0	978473	START	n/a	n/a	n/a	n/a	-999	8	[-999, -999, -999]	n/a	catFR1	1	R1461T
965.479	0.002	978479	WORD_OFF	n/a	n/a	PUDIN	Desserts	12	8	[0, 0, 0]	n/a	catFR1	1	R1461T
965.481	0.0	978479	ENCODING_END	n/a	n/a	n/a	n/a	-999	8	[0, 0, 0]	n/a	catFR1	1	R1461T
965.481	14.515	978479	DISTRACT_START	n/a	n/a	n/a	n/a	-999	8	[0, 0, 0]	n/a	catFR1	1	R1461T
979.996	11.4	992987	PROB	11.4	n/a	n/a	n/a	-999	8	[4, 3, 6]	436	catFR1	1	R1461T
991.396	0.0	1004384	DISTRACT_END	n/a	n/a	n/a	n/a	-999	8	[0, 0, 0]	n/a	catFR1	1	R1461T
991.396	2.101	1004387	STOP	n/a	n/a	n/a	n/a	-999	8	[-999, -999, -999]	n/a	catFR1	1	R1461T
993.497	2.875	1006490	REC_START	n/a	n/a	n/a	n/a	-999	8	[0, 0, 0]	n/a	catFR1	1	R1461T
996.372	1.0	1009363	REC_WORD_VV	1.0	n/a	<>	n/a	-999	8	[0, 0, 0]	n/a	catFR1	1	R1461T
997.372	0.14	1010363	REC_WORD_VV	0.14	n/a	<>	n/a	-999	8	[0, 0, 0]	n/a	catFR1	1	R1461T
997.512	2.018	1010503	REC_WORD	2.018	n/a	SODA	Beverages	-999	8	[0, 0, 0]	n/a	catFR1	1	R1461T
999.53	3.198	1012520	REC_WORD	3.198	n/a	GABINETE	Furniture	4	8	[0, 0, 0]	n/a	catFR1	1	R1461T
1002.728	2.106	1015718	REC_WORD_VV	2.106	n/a	<>	n/a	-999	8	[0, 0, 0]	n/a	catFR1	1	R1461T
1004.834	4.768	1017824	REC_WORD_VV	4.768	n/a	<>	n/a	-999	8	[0, 0, 0]	n/a	catFR1	1	R1461T
1009.602	1.0	1022592	REC_WORD	1.0	n/a	GABINETE	Furniture	4	8	[0, 0, 0]	n/a	catFR1	1	R1461T
1010.602	13.108	1023592	REC_WORD	13.108	n/a	GABINETE	Furniture	4	8	[0, 0, 0]	n/a	catFR1	1	R1461T
1023.71	3.486	1036709	REC_END	n/a	n/a	n/a	n/a	-999	8	[0, 0, 0]	n/a	catFR1	1	R1461T
1027.196	10.351	1040196	COUNTDOWN_START	n/a	n/a	n/a	n/a	-999	9	[0, 0, 0]	n/a	catFR1	1	R1461T
1037.547	0.0	1050541	COUNTDOWN_END	n/a	n/a	n/a	n/a	-999	9	[0, 0, 0]	n/a	catFR1	1	R1461T
1037.547	2.167	1050541	ENCODING_START	n/a	n/a	n/a	n/a	-999	9	[0, 0, 0]	n/a	catFR1	1	R1461T
1039.714	1.6	1052709	WORD	n/a	wordpools/wordpool_categorized_SP.txt	REPOLLO	Vegetables	1	9	[0, 0, 0]	n/a	catFR1	1	R1461T
1041.314	0.899	1054310	WORD_OFF	n/a	n/a	REPOLLO	Vegetables	1	9	[0, 0, 0]	n/a	catFR1	1	R1461T
1042.213	1.617	1055203	WORD	n/a	wordpools/wordpool_categorized_SP.txt	ESPINACA	Vegetables	2	9	[0, 0, 0]	n/a	catFR1	1	R1461T
1043.83	0.95	1056819	WORD_OFF	n/a	n/a	ESPINACA	Vegetables	2	9	[0, 0, 0]	n/a	catFR1	1	R1461T
1044.78	1.6	1057768	WORD	n/a	wordpools/wordpool_categorized_SP.txt	CABALLO	FarmAnimals	3	9	[0, 0, 0]	n/a	catFR1	1	R1461T
1046.38	0.917	1059370	WORD_OFF	n/a	n/a	CABALLO	FarmAnimals	3	9	[0, 0, 0]	n/a	catFR1	1	R1461T
1047.297	1.6	1060291	WORD	n/a	wordpools/wordpool_categorized_SP.txt	CORDERO	FarmAnimals	4	9	[0, 0, 0]	n/a	catFR1	1	R1461T
1048.897	0.95	1061892	WORD_OFF	n/a	n/a	CORDERO	FarmAnimals	4	9	[0, 0, 0]	n/a	catFR1	1	R1461T
1049.847	1.6	1062842	WORD	n/a	wordpools/wordpool_categorized_SP.txt	CANICAS	Toys	5	9	[0, 0, 0]	n/a	catFR1	1	R1461T
1051.447	0.833	1064443	WORD_OFF	n/a	n/a	CANICAS	Toys	5	9	[0, 0, 0]	n/a	catFR1	1	R1461T
1052.28	1.6	1065265	WORD	n/a	wordpools/wordpool_categorized_SP.txt	FRISBEE	Toys	6	9	[0, 0, 0]	n/a	catFR1	1	R1461T
1053.88	0.966	1066866	WORD_OFF	n/a	n/a	FRISBEE	Toys	6	9	[0, 0, 0]	n/a	catFR1	1	R1461T
1054.846	1.6	1067830	WORD	n/a	wordpools/wordpool_categorized_SP.txt	POLLO	FarmAnimals	7	9	[0, 0, 0]	n/a	catFR1	1	R1461T
1056.446	0.9	1069431	WORD_OFF	n/a	n/a	POLLO	FarmAnimals	7	9	[0, 0, 0]	n/a	catFR1	1	R1461T
1057.346	1.6	1070338	WORD	n/a	wordpools/wordpool_categorized_SP.txt	BECERRO	FarmAnimals	8	9	[0, 0, 0]	n/a	catFR1	1	R1461T
1058.946	0.801	1071940	WORD_OFF	n/a	n/a	BECERRO	FarmAnimals	8	9	[0, 0, 0]	n/a	catFR1	1	R1461T
1059.747	1.6	1072733	WORD	n/a	wordpools/wordpool_categorized_SP.txt	CEBOLLA	Vegetables	9	9	[0, 0, 0]	n/a	catFR1	1	R1461T
1061.347	0.933	1074335	WORD_OFF	n/a	n/a	CEBOLLA	Vegetables	9	9	[0, 0, 0]	n/a	catFR1	1	R1461T
1062.28	1.6	1075270	WORD	n/a	wordpools/wordpool_categorized_SP.txt	PAPA	Vegetables	10	9	[0, 0, 0]	n/a	catFR1	1	R1461T
1063.88	0.984	1076871	WORD_OFF	n/a	n/a	PAPA	Vegetables	10	9	[0, 0, 0]	n/a	catFR1	1	R1461T
1064.864	1.6	1077849	WORD	n/a	wordpools/wordpool_categorized_SP.txt	BALERO	Toys	11	9	[0, 0, 0]	n/a	catFR1	1	R1461T
1066.464	0.899	1079450	WORD_OFF	n/a	n/a	BALERO	Toys	11	9	[0, 0, 0]	n/a	catFR1	1	R1461T
1067.363	1.601	1080357	WORD	n/a	wordpools/wordpool_categorized_SP.txt	BALONCESTO	Toys	12	9	[0, 0, 0]	n/a	catFR1	1	R1461T
1068.964	0.001	1081951	PROB	0.001	n/a	n/a	n/a	-999	9	[4, 8, 6]	486	catFR1	1	R1461T
1068.965	0.0	1081952	START	n/a	n/a	n/a	n/a	-999	9	[-999, -999, -999]	n/a	catFR1	1	R1461T
1068.964	0.001	1081959	WORD_OFF	n/a	n/a	BALONCESTO	Toys	12	9	[0, 0, 0]	n/a	catFR1	1	R1461T
1068.965	0.0	1081959	ENCODING_END	n/a	n/a	n/a	n/a	-999	9	[0, 0, 0]	n/a	catFR1	1	R1461T
1068.965	14.766	1081959	DISTRACT_START	n/a	n/a	n/a	n/a	-999	9	[0, 0, 0]	n/a	catFR1	1	R1461T
1083.731	8.948	1096717	PROB	8.948	n/a	n/a	n/a	-999	9	[2, 6, 3]	263	catFR1	1	R1461T
1092.679	0.0	1105665	STOP	n/a	n/a	n/a	n/a	-999	9	[-999, -999, -999]	n/a	catFR1	1	R1461T
1092.679	2.134	1105668	DISTRACT_END	n/a	n/a	n/a	n/a	-999	9	[0, 0, 0]	n/a	catFR1	1	R1461T
1094.813	2.925	1107801	REC_START	n/a	n/a	n/a	n/a	-999	9	[0, 0, 0]	n/a	catFR1	1	R1461T
1097.738	1.534	1110723	REC_WORD_VV	1.534	n/a	<>	n/a	-999	9	[0, 0, 0]	n/a	catFR1	1	R1461T
1099.272	1.61	1112257	REC_WORD	1.61	n/a	GABINETE	Furniture	-999	9	[0, 0, 0]	n/a	catFR1	1	R1461T
1100.882	0.586	1113867	REC_WORD_VV	0.586	n/a	<>	n/a	-999	9	[0, 0, 0]	n/a	catFR1	1	R1461T
1101.468	3.629	1114453	REC_WORD	3.629	n/a	PAPA	Vegetables	10	9	[0, 0, 0]	n/a	catFR1	1	R1461T
1105.097	5.756	1118082	REC_WORD_VV	5.756	n/a	<>	n/a	-999	9	[0, 0, 0]	n/a	catFR1	1	R1461T
1110.853	14.208	1123838	REC_WORD	14.208	n/a	ESCALERA	n/a	-999	9	[0, 0, 0]	n/a	catFR1	1	R1461T
1125.061	6.436	1138049	REC_END	n/a	n/a	n/a	n/a	-999	9	[0, 0, 0]	n/a	catFR1	1	R1461T
1131.497	10.35	1144483	COUNTDOWN_START	n/a	n/a	n/a	n/a	-999	10	[0, 0, 0]	n/a	catFR1	1	R1461T
1141.847	0.0	1154828	COUNTDOWN_END	n/a	n/a	n/a	n/a	-999	10	[0, 0, 0]	n/a	catFR1	1	R1461T
1141.847	2.0	1154842	ENCODING_START	n/a	n/a	n/a	n/a	-999	10	[0, 0, 0]	n/a	catFR1	1	R1461T
1143.847	1.6	1156826	WORD	n/a	wordpools/wordpool_categorized_SP.txt	BARBIE	Toys	1	10	[0, 0, 0]	n/a	catFR1	1	R1461T
1145.447	0.967	1158428	WORD_OFF	n/a	n/a	BARBIE	Toys	1	10	[0, 0, 0]	n/a	catFR1	1	R1461T
1146.414	1.616	1159406	WORD	n/a	wordpools/wordpool_categorized_SP.txt	MUNECO	Toys	2	10	[0, 0, 0]	n/a	catFR1	1	R1461T
1148.03	0.85	1161021	WORD_OFF	n/a	n/a	MUNECO	Toys	2	10	[0, 0, 0]	n/a	catFR1	1	R1461T
1148.88	1.6	1161871	WORD	n/a	wordpools/wordpool_categorized_SP.txt	GALLINA	FarmAnimals	3	10	[0, 0, 0]	n/a	catFR1	1	R1461T
1150.48	0.8	1163473	WORD_OFF	n/a	n/a	GALLINA	FarmAnimals	3	10	[0, 0, 0]	n/a	catFR1	1	R1461T
1151.28	1.6	1164266	WORD	n/a	wordpools/wordpool_categorized_SP.txt	CERDO	FarmAnimals	4	10	[0, 0, 0]	n/a	catFR1	1	R1461T
1152.88	0.867	1165868	WORD_OFF	n/a	n/a	CERDO	FarmAnimals	4	10	[0, 0, 0]	n/a	catFR1	1	R1461T
1153.747	1.6	1166732	WORD	n/a	wordpools/wordpool_categorized_SP.txt	OREJA	BodyParts	5	10	[0, 0, 0]	n/a	catFR1	1	R1461T
1155.347	0.833	1168334	WORD_OFF	n/a	n/a	OREJA	BodyParts	5	10	[0, 0, 0]	n/a	catFR1	1	R1461T
1156.18	1.6	1169170	WORD	n/a	wordpools/wordpool_categorized_SP.txt	MANO	BodyParts	6	10	[0, 0, 0]	n/a	catFR1	1	R1461T
1157.78	0.9	1170771	WORD_OFF	n/a	n/a	MANO	BodyParts	6	10	[0, 0, 0]	n/a	catFR1	1	R1461T
1158.68	1.6	1171664	WORD	n/a	wordpools/wordpool_categorized_SP.txt	CABRA	FarmAnimals	7	10	[0, 0, 0]	n/a	catFR1	1	R1461T
1160.28	0.9	1173265	WORD_OFF	n/a	n/a	CABRA	FarmAnimals	7	10	[0, 0, 0]	n/a	catFR1	1	R1461T
1161.18	1.617	1174172	WORD	n/a	wordpools/wordpool_categorized_SP.txt	TORO	FarmAnimals	8	10	[0, 0, 0]	n/a	catFR1	1	R1461T
1162.797	0.866	1175788	WORD_OFF	n/a	n/a	TORO	FarmAnimals	8	10	[0, 0, 0]	n/a	catFR1	1	R1461T
1163.663	1.601	1176652	WORD	n/a	wordpools/wordpool_categorized_SP.txt	CABEZA	BodyParts	9	10	[0, 0, 0]	n/a	catFR1	1	R1461T
1165.264	0.882	1178254	WORD_OFF	n/a	n/a	CABEZA	BodyParts	9	10	[0, 0, 0]	n/a	catFR1	1	R1461T
1166.146	1.6	1179132	WORD	n/a	wordpools/wordpool_categorized_SP.txt	DIENTE	BodyParts	10	10	[0, 0, 0]	n/a	catFR1	1	R1461T
1167.746	0.85	1180734	WORD_OFF	n/a	n/a	DIENTE	BodyParts	10	10	[0, 0, 0]	n/a	catFR1	1	R1461T
1168.596	1.601	1181584	WORD	n/a	wordpools/wordpool_categorized_SP.txt	BLOQUE	Toys	11	10	[0, 0, 0]	n/a	catFR1	1	R1461T
1170.197	0.866	1183185	WORD_OFF	n/a	n/a	BLOQUE	Toys	11	10	[0, 0, 0]	n/a	catFR1	1	R1461T
1171.063	1.618	1184050	WORD	n/a	wordpools/wordpool_categorized_SP.txt	BOLA	Toys	12	10	[0, 0, 0]	n/a	catFR1	1	R1461T
1172.681	0.001	1185663	PROB	0.001	n/a	n/a	n/a	-999	10	[7, 4, 5]	745	catFR1	1	R1461T
1172.682	0.0	1185664	START	n/a	n/a	n/a	n/a	-999	10	[-999, -999, -999]	n/a	catFR1	1	R1461T
1172.68	0.002	1185679	WORD_OFF	n/a	n/a	BOLA	Toys	12	10	[0, 0, 0]	n/a	catFR1	1	R1461T
1172.682	0.0	1185679	ENCODING_END	n/a	n/a	n/a	n/a	-999	10	[0, 0, 0]	n/a	catFR1	1	R1461T
1172.682	12.099	1185679	DISTRACT_START	n/a	n/a	n/a	n/a	-999	10	[0, 0, 0]	n/a	catFR1	1	R1461T
1184.781	15.616	1197762	PROB	15.616	n/a	n/a	n/a	-999	10	[6, 2, 6]	626	catFR1	1	R1461T
1200.397	0.0	1213377	STOP	n/a	n/a	n/a	n/a	-999	10	[-999, -999, -999]	n/a	catFR1	1	R1461T
1200.397	2.1	1213384	DISTRACT_END	n/a	n/a	n/a	n/a	-999	10	[0, 0, 0]	n/a	catFR1	1	R1461T
1202.497	2.147	1215476	REC_START	n/a	n/a	n/a	n/a	-999	10	[0, 0, 0]	n/a	catFR1	1	R1461T
1204.644	0.936	1217624	REC_WORD	0.936	n/a	DIENTES	n/a	-999	10	[0, 0, 0]	n/a	catFR1	1	R1461T
1205.58	1.797	1218560	REC_WORD	1.797	n/a	CABEZA	BodyParts	9	10	[0, 0, 0]	n/a	catFR1	1	R1461T
1207.377	10.829	1220357	REC_WORD	10.829	n/a	MANO	BodyParts	6	10	[0, 0, 0]	n/a	catFR1	1	R1461T
1218.206	0.0	1231185	REC_WORD	0.0	n/a	PIANO	n/a	-999	10	[0, 0, 0]	n/a	catFR1	1	R1461T
