onset	duration	sample	trial_type	response_time	stim_file	item_name	category	serialpos	list	test	answer	experiment	session	subject
0.0	1.015	10460	INSTRUCT_START	n/a	n/a	n/a	n/a	-999	-999	[0, 0, 0]	n/a	catFR1	1	R1515T
1.015	39.632	11471	INSTRUCT_END	n/a	n/a	n/a	n/a	-999	-999	[0, 0, 0]	n/a	catFR1	1	R1515T
40.647	10.349	51112	COUNTDOWN_START	n/a	n/a	n/a	n/a	-999	-999	[0, 0, 0]	n/a	catFR1	1	R1515T
50.996	0.001	61454	COUNTDOWN_END	n/a	n/a	n/a	n/a	-999	-999	[0, 0, 0]	n/a	catFR1	1	R1515T
50.997	2.034	61454	ENCODING_START	n/a	n/a	n/a	n/a	-999	-1	[0, 0, 0]	n/a	catFR1	1	R1515T
53.031	1.616	63487	WORD	n/a	n/a	BASS	Instruments	1	-1	[0, 0, 0]	n/a	catFR1	1	R1515T
54.647	0.833	65108	WORD_OFF	n/a	n/a	BASS	Instruments	1	-1	[0, 0, 0]	n/a	catFR1	1	R1515T
55.48	1.617	65943	WORD	n/a	n/a	FLUTE	Instruments	2	-1	[0, 0, 0]	n/a	catFR1	1	R1515T
57.097	0.95	67554	WORD_OFF	n/a	n/a	FLUTE	Instruments	2	-1	[0, 0, 0]	n/a	catFR1	1	R1515T
58.047	1.6	68506	WORD	n/a	n/a	SQUID	OceanAnimals	3	-1	[0, 0, 0]	n/a	catFR1	1	R1515T
59.647	0.983	70107	WORD_OFF	n/a	n/a	SQUID	OceanAnimals	3	-1	[0, 0, 0]	n/a	catFR1	1	R1515T
60.63	1.601	71090	WORD	n/a	n/a	FISH	OceanAnimals	4	-1	[0, 0, 0]	n/a	catFR1	1	R1515T
62.231	0.916	72690	WORD_OFF	n/a	n/a	FISH	OceanAnimals	4	-1	[0, 0, 0]	n/a	catFR1	1	R1515T
63.147	1.616	73604	WORD	n/a	n/a	WILLOW	Trees	5	-1	[0, 0, 0]	n/a	catFR1	1	R1515T
64.763	0.834	75224	WORD_OFF	n/a	n/a	WILLOW	Trees	5	-1	[0, 0, 0]	n/a	catFR1	1	R1515T
65.597	1.617	76059	WORD	n/a	n/a	CYPRESS	Trees	6	-1	[0, 0, 0]	n/a	catFR1	1	R1515T
67.214	0.782	77670	WORD_OFF	n/a	n/a	CYPRESS	Trees	6	-1	[0, 0, 0]	n/a	catFR1	1	R1515T
67.996	1.601	78456	WORD	n/a	n/a	PLANKTON	OceanAnimals	7	-1	[0, 0, 0]	n/a	catFR1	1	R1515T
69.597	0.85	80057	WORD_OFF	n/a	n/a	PLANKTON	OceanAnimals	7	-1	[0, 0, 0]	n/a	catFR1	1	R1515T
70.447	1.615	80901	WORD	n/a	n/a	OCTOPUS	OceanAnimals	8	-1	[0, 0, 0]	n/a	catFR1	1	R1515T
72.062	0.934	82522	WORD_OFF	n/a	n/a	OCTOPUS	OceanAnimals	8	-1	[0, 0, 0]	n/a	catFR1	1	R1515T
72.996	1.6	83455	WORD	n/a	n/a	TRUMPET	Instruments	9	-1	[0, 0, 0]	n/a	catFR1	1	R1515T
74.596	0.767	85056	WORD_OFF	n/a	n/a	TRUMPET	Instruments	9	-1	[0, 0, 0]	n/a	catFR1	1	R1515T
75.363	1.601	85822	WORD	n/a	n/a	DRUM	Instruments	10	-1	[0, 0, 0]	n/a	catFR1	1	R1515T
76.964	0.849	87423	WORD_OFF	n/a	n/a	DRUM	Instruments	10	-1	[0, 0, 0]	n/a	catFR1	1	R1515T
77.813	1.617	88268	WORD	n/a	n/a	OAK	Trees	11	-1	[0, 0, 0]	n/a	catFR1	1	R1515T
79.43	0.817	89888	WORD_OFF	n/a	n/a	OAK	Trees	11	-1	[0, 0, 0]	n/a	catFR1	1	R1515T
80.247	1.617	90704	WORD	n/a	n/a	HICKORY	Trees	12	-1	[0, 0, 0]	n/a	catFR1	1	R1515T
81.864	0.001	92324	WORD_OFF	n/a	n/a	HICKORY	Trees	12	-1	[0, 0, 0]	n/a	catFR1	1	R1515T
81.865	0.0	92324	ENCODING_END	n/a	n/a	n/a	n/a	-999	-1	[0, 0, 0]	n/a	catFR1	1	R1515T
81.865	0.0	92324	DISTRACT_START	n/a	n/a	n/a	n/a	-999	-1	[0, 0, 0]	n/a	catFR1	1	R1515T
81.865	0.001	92326	START	n/a	n/a	n/a	n/a	-999	-1	[-999, -999, -999]	n/a	catFR1	1	R1515T
81.866	4.365	92327	PROB	4.349	n/a	n/a	n/a	-999	-1	[5, 2, 7]	14.0	catFR1	1	R1515T
86.231	17.283	96692	PROB	17.266	n/a	n/a	n/a	-999	-1	[4, 7, 4]	15.0	catFR1	1	R1515T
103.514	0.0	113971	DISTRACT_END	n/a	n/a	n/a	n/a	-999	-1	[0, 0, 0]	n/a	catFR1	1	R1515T
103.514	2.167	113974	STOP	n/a	n/a	n/a	n/a	-999	-1	[-999, -999, -999]	n/a	catFR1	1	R1515T
105.681	1.775	116140	REC_START	n/a	n/a	n/a	n/a	-999	-1	[0, 0, 0]	n/a	catFR1	1	R1515T
107.456	1.0	117916	REC_WORD	1.775	n/a	MAHOGANY	n/a	-999	-1	[0, 0, 0]	n/a	catFR1	1	R1515T
108.456	0.285	118916	REC_WORD	2.775	n/a	MAHOGANY	n/a	-999	-1	[0, 0, 0]	n/a	catFR1	1	R1515T
108.741	1.388	119201	REC_WORD	3.06	n/a	OAK	Trees	11	-1	[0, 0, 0]	n/a	catFR1	1	R1515T
110.129	1.0	120589	REC_WORD	4.448	n/a	PLANKTON	OceanAnimals	7	-1	[0, 0, 0]	n/a	catFR1	1	R1515T
111.129	0.832	121589	REC_WORD	5.448	n/a	PLANKTON	OceanAnimals	7	-1	[0, 0, 0]	n/a	catFR1	1	R1515T
111.961	1.0	122421	REC_WORD	6.28	n/a	BASS	Instruments	1	-1	[0, 0, 0]	n/a	catFR1	1	R1515T
112.961	0.561	123421	REC_WORD	7.28	n/a	BASS	Instruments	1	-1	[0, 0, 0]	n/a	catFR1	1	R1515T
113.522	1.0	123982	REC_WORD	7.841	n/a	TRUMPET	Instruments	9	-1	[0, 0, 0]	n/a	catFR1	1	R1515T
114.522	2.794	124981	REC_WORD	8.841	n/a	TRUMPET	Instruments	9	-1	[0, 0, 0]	n/a	catFR1	1	R1515T
117.316	0.549	127775	REC_WORD_VV	11.635	n/a	<>	n/a	-999	-1	[0, 0, 0]	n/a	catFR1	1	R1515T
117.865	0.812	128324	REC_WORD	12.184	n/a	OAK	Trees	11	-1	[0, 0, 0]	n/a	catFR1	1	R1515T
118.677	1.0	129136	REC_WORD_VV	12.996	n/a	<>	n/a	-999	-1	[0, 0, 0]	n/a	catFR1	1	R1515T
119.677	1.571	130136	REC_WORD_VV	13.996	n/a	<>	n/a	-999	-1	[0, 0, 0]	n/a	catFR1	1	R1515T
121.248	1.0	131707	REC_WORD_VV	15.567	n/a	<>	n/a	-999	-1	[0, 0, 0]	n/a	catFR1	1	R1515T
122.248	4.401	132707	REC_WORD_VV	16.567	n/a	<>	n/a	-999	-1	[0, 0, 0]	n/a	catFR1	1	R1515T
126.649	9.239	137108	REC_WORD_VV	20.968	n/a	<>	n/a	-999	-1	[0, 0, 0]	n/a	catFR1	1	R1515T
135.888	8.926	146344	REC_END	n/a	n/a	n/a	n/a	-999	-1	[0, 0, 0]	n/a	catFR1	1	R1515T
144.814	10.349	155272	COUNTDOWN_START	n/a	n/a	n/a	n/a	-999	1	[0, 0, 0]	n/a	catFR1	1	R1515T
155.163	0.0	165614	COUNTDOWN_END	n/a	n/a	n/a	n/a	-999	1	[0, 0, 0]	n/a	catFR1	1	R1515T
155.163	2.384	165614	ENCODING_START	n/a	n/a	n/a	n/a	-999	1	[0, 0, 0]	n/a	catFR1	1	R1515T
157.547	1.617	168001	WORD	n/a	wordpools/wordpool_categorized_EN.txt	ROOF	Building	1	1	[0, 0, 0]	n/a	catFR1	1	R1515T
159.164	0.8	169612	WORD_OFF	n/a	n/a	ROOF	Building	1	1	[0, 0, 0]	n/a	catFR1	1	R1515T
159.964	1.6	170417	WORD	n/a	wordpools/wordpool_categorized_EN.txt	ATTIC	Building	2	1	[0, 0, 0]	n/a	catFR1	1	R1515T
161.564	0.783	172018	WORD_OFF	n/a	n/a	ATTIC	Building	2	1	[0, 0, 0]	n/a	catFR1	1	R1515T
162.347	1.617	172804	WORD	n/a	wordpools/wordpool_categorized_EN.txt	CUPCAKE	Desserts	3	1	[0, 0, 0]	n/a	catFR1	1	R1515T
163.964	0.815	174415	WORD_OFF	n/a	n/a	CUPCAKE	Desserts	3	1	[0, 0, 0]	n/a	catFR1	1	R1515T
164.779	1.601	175230	WORD	n/a	wordpools/wordpool_categorized_EN.txt	BROWNIES	Desserts	4	1	[0, 0, 0]	n/a	catFR1	1	R1515T
166.38	0.984	176831	WORD_OFF	n/a	n/a	BROWNIES	Desserts	4	1	[0, 0, 0]	n/a	catFR1	1	R1515T
167.364	1.6	177813	WORD	n/a	wordpools/wordpool_categorized_EN.txt	SCREWDRIVER	Tools	5	1	[0, 0, 0]	n/a	catFR1	1	R1515T
168.964	0.997	179414	WORD_OFF	n/a	n/a	SCREWDRIVER	Tools	5	1	[0, 0, 0]	n/a	catFR1	1	R1515T
169.961	1.602	180416	WORD	n/a	wordpools/wordpool_categorized_EN.txt	RATCHET	Tools	6	1	[0, 0, 0]	n/a	catFR1	1	R1515T
171.563	0.833	182017	WORD_OFF	n/a	n/a	RATCHET	Tools	6	1	[0, 0, 0]	n/a	catFR1	1	R1515T
172.396	1.601	182852	WORD	n/a	wordpools/wordpool_categorized_EN.txt	MOUSSE	Desserts	7	1	[0, 0, 0]	n/a	catFR1	1	R1515T
173.997	0.817	184452	WORD_OFF	n/a	n/a	MOUSSE	Desserts	7	1	[0, 0, 0]	n/a	catFR1	1	R1515T
174.814	1.616	185268	WORD	n/a	wordpools/wordpool_categorized_EN.txt	JELLO	Desserts	8	1	[0, 0, 0]	n/a	catFR1	1	R1515T
176.43	0.85	186878	WORD_OFF	n/a	n/a	JELLO	Desserts	8	1	[0, 0, 0]	n/a	catFR1	1	R1515T
177.28	1.618	187733	WORD	n/a	wordpools/wordpool_categorized_EN.txt	DRILL	Tools	9	1	[0, 0, 0]	n/a	catFR1	1	R1515T
178.898	0.948	189354	WORD_OFF	n/a	n/a	DRILL	Tools	9	1	[0, 0, 0]	n/a	catFR1	1	R1515T
179.846	1.6	190296	WORD	n/a	wordpools/wordpool_categorized_EN.txt	AXE	Tools	10	1	[0, 0, 0]	n/a	catFR1	1	R1515T
181.446	0.818	191897	WORD_OFF	n/a	n/a	AXE	Tools	10	1	[0, 0, 0]	n/a	catFR1	1	R1515T
182.264	1.6	192713	WORD	n/a	wordpools/wordpool_categorized_EN.txt	HALLWAY	Building	11	1	[0, 0, 0]	n/a	catFR1	1	R1515T
183.864	0.867	194314	WORD_OFF	n/a	n/a	HALLWAY	Building	11	1	[0, 0, 0]	n/a	catFR1	1	R1515T
184.731	1.616	195178	WORD	n/a	wordpools/wordpool_categorized_EN.txt	WALL	Building	12	1	[0, 0, 0]	n/a	catFR1	1	R1515T
186.347	0.002	196798	WORD_OFF	n/a	n/a	WALL	Building	12	1	[0, 0, 0]	n/a	catFR1	1	R1515T
186.349	0.0	196798	ENCODING_END	n/a	n/a	n/a	n/a	-999	1	[0, 0, 0]	n/a	catFR1	1	R1515T
186.349	0.0	196798	DISTRACT_START	n/a	n/a	n/a	n/a	-999	1	[0, 0, 0]	n/a	catFR1	1	R1515T
186.348	0.001	196804	PROB	5.682	n/a	n/a	n/a	-999	1	[6, 7, 7]	20.0	catFR1	1	R1515T
186.349	5.699	196805	START	n/a	n/a	n/a	n/a	-999	1	[-999, -999, -999]	n/a	catFR1	1	R1515T
192.048	5.349	202503	PROB	5.333	n/a	n/a	n/a	-999	1	[1, 7, 4]	12.0	catFR1	1	R1515T
197.397	4.384	207852	PROB	4.367	n/a	n/a	n/a	-999	1	[5, 5, 8]	18.0	catFR1	1	R1515T
201.781	6.999	212236	PROB	6.983	n/a	n/a	n/a	-999	1	[8, 6, 6]	20.0	catFR1	1	R1515T
208.78	0.0	219231	DISTRACT_END	n/a	n/a	n/a	n/a	-999	1	[0, 0, 0]	n/a	catFR1	1	R1515T
208.78	2.034	219235	STOP	n/a	n/a	n/a	n/a	-999	1	[-999, -999, -999]	n/a	catFR1	1	R1515T
210.814	0.519	221263	REC_START	n/a	n/a	n/a	n/a	-999	1	[0, 0, 0]	n/a	catFR1	1	R1515T
211.333	0.93	221788	REC_WORD	0.519	n/a	HALLWAY	Building	11	1	[0, 0, 0]	n/a	catFR1	1	R1515T
212.263	0.634	222717	REC_WORD	1.449	n/a	ROOF	Building	1	1	[0, 0, 0]	n/a	catFR1	1	R1515T
212.897	1.0	223351	REC_WORD	2.083	n/a	ATTIC	Building	2	1	[0, 0, 0]	n/a	catFR1	1	R1515T
213.897	1.488	224351	REC_WORD	3.083	n/a	ATTIC	Building	2	1	[0, 0, 0]	n/a	catFR1	1	R1515T
215.385	1.0	225839	REC_WORD	4.571	n/a	AXE	Tools	10	1	[0, 0, 0]	n/a	catFR1	1	R1515T
216.385	0.614	226839	REC_WORD	5.571	n/a	AXE	Tools	10	1	[0, 0, 0]	n/a	catFR1	1	R1515T
216.999	1.0	227453	REC_WORD	6.185	n/a	SCREWDRIVER	Tools	5	1	[0, 0, 0]	n/a	catFR1	1	R1515T
217.999	1.0	228453	REC_WORD	7.185	n/a	SCREWDRIVER	Tools	5	1	[0, 0, 0]	n/a	catFR1	1	R1515T
218.999	1.691	229453	REC_WORD	8.185	n/a	SCREWDRIVER	Tools	5	1	[0, 0, 0]	n/a	catFR1	1	R1515T
220.69	1.0	231144	REC_WORD	9.876	n/a	MOUSSE	Desserts	7	1	[0, 0, 0]	n/a	catFR1	1	R1515T
221.69	0.125	232144	REC_WORD	10.876	n/a	MOUSSE	Desserts	7	1	[0, 0, 0]	n/a	catFR1	1	R1515T
221.815	1.0	232269	REC_WORD	11.001	n/a	CUPCAKE	Desserts	3	1	[0, 0, 0]	n/a	catFR1	1	R1515T
222.815	0.735	233269	REC_WORD	12.001	n/a	CUPCAKE	Desserts	3	1	[0, 0, 0]	n/a	catFR1	1	R1515T
223.55	1.0	234004	REC_WORD	12.736	n/a	BROWNIE	n/a	-999	1	[0, 0, 0]	n/a	catFR1	1	R1515T
224.55	5.988	235004	REC_WORD	13.736	n/a	BROWNIE	n/a	-999	1	[0, 0, 0]	n/a	catFR1	1	R1515T
230.538	0.394	240992	REC_WORD_VV	19.724	n/a	<>	n/a	-999	1	[0, 0, 0]	n/a	catFR1	1	R1515T
230.932	1.6	241386	REC_WORD	20.118	n/a	ROOF	Building	1	1	[0, 0, 0]	n/a	catFR1	1	R1515T
232.532	8.48	242985	REC_WORD_VV	21.718	n/a	<>	n/a	-999	1	[0, 0, 0]	n/a	catFR1	1	R1515T
241.012	2.218	251457	REC_END	n/a	n/a	n/a	n/a	-999	1	[0, 0, 0]	n/a	catFR1	1	R1515T
243.23	10.35	253676	COUNTDOWN_START	n/a	n/a	n/a	n/a	-999	2	[0, 0, 0]	n/a	catFR1	1	R1515T
253.58	0.0	264028	COUNTDOWN_END	n/a	n/a	n/a	n/a	-999	2	[0, 0, 0]	n/a	catFR1	1	R1515T
253.58	2.05	264028	ENCODING_START	n/a	n/a	n/a	n/a	-999	2	[0, 0, 0]	n/a	catFR1	1	R1515T
255.63	1.6	266081	WORD	n/a	wordpools/wordpool_categorized_EN.txt	BARBIE	Toys	1	2	[0, 0, 0]	n/a	catFR1	1	R1515T
257.23	0.984	267682	WORD_OFF	n/a	n/a	BARBIE	Toys	1	2	[0, 0, 0]	n/a	catFR1	1	R1515T
258.214	1.6	268664	WORD	n/a	wordpools/wordpool_categorized_EN.txt	FOOTBALL	Toys	2	2	[0, 0, 0]	n/a	catFR1	1	R1515T
259.814	0.8	270265	WORD_OFF	n/a	n/a	FOOTBALL	Toys	2	2	[0, 0, 0]	n/a	catFR1	1	R1515T
260.614	1.616	271061	WORD	n/a	wordpools/wordpool_categorized_EN.txt	LAKE	Landscapes	3	2	[0, 0, 0]	n/a	catFR1	1	R1515T
262.23	0.967	272681	WORD_OFF	n/a	n/a	LAKE	Landscapes	3	2	[0, 0, 0]	n/a	catFR1	1	R1515T
263.197	1.617	273644	WORD	n/a	wordpools/wordpool_categorized_EN.txt	RIVER	Landscapes	4	2	[0, 0, 0]	n/a	catFR1	1	R1515T
264.814	0.8	275265	WORD_OFF	n/a	n/a	RIVER	Landscapes	4	2	[0, 0, 0]	n/a	catFR1	1	R1515T
265.614	1.616	276060	WORD	n/a	wordpools/wordpool_categorized_EN.txt	RAIN	Weather	5	2	[0, 0, 0]	n/a	catFR1	1	R1515T
267.23	0.917	277681	WORD_OFF	n/a	n/a	RAIN	Weather	5	2	[0, 0, 0]	n/a	catFR1	1	R1515T
268.147	1.6	278594	WORD	n/a	wordpools/wordpool_categorized_EN.txt	FOG	Weather	6	2	[0, 0, 0]	n/a	catFR1	1	R1515T
269.747	0.833	280195	WORD_OFF	n/a	n/a	FOG	Weather	6	2	[0, 0, 0]	n/a	catFR1	1	R1515T
270.58	1.6	281030	WORD	n/a	wordpools/wordpool_categorized_EN.txt	BASKETBALL	Toys	7	2	[0, 0, 0]	n/a	catFR1	1	R1515T
272.18	0.849	282631	WORD_OFF	n/a	n/a	BASKETBALL	Toys	7	2	[0, 0, 0]	n/a	catFR1	1	R1515T
273.029	1.601	283476	WORD	n/a	wordpools/wordpool_categorized_EN.txt	BLOCKS	Toys	8	2	[0, 0, 0]	n/a	catFR1	1	R1515T
274.63	0.767	285077	WORD_OFF	n/a	n/a	BLOCKS	Toys	8	2	[0, 0, 0]	n/a	catFR1	1	R1515T
275.397	1.617	285843	WORD	n/a	wordpools/wordpool_categorized_EN.txt	LIGHTNING	Weather	9	2	[0, 0, 0]	n/a	catFR1	1	R1515T
277.014	0.783	287463	WORD_OFF	n/a	n/a	LIGHTNING	Weather	9	2	[0, 0, 0]	n/a	catFR1	1	R1515T
277.797	1.616	288239	WORD	n/a	wordpools/wordpool_categorized_EN.txt	WIND	Weather	10	2	[0, 0, 0]	n/a	catFR1	1	R1515T
279.413	0.95	289860	WORD_OFF	n/a	n/a	WIND	Weather	10	2	[0, 0, 0]	n/a	catFR1	1	R1515T
280.363	1.6	290812	WORD	n/a	wordpools/wordpool_categorized_EN.txt	HILLS	Landscapes	11	2	[0, 0, 0]	n/a	catFR1	1	R1515T
281.963	0.983	292413	WORD_OFF	n/a	n/a	HILLS	Landscapes	11	2	[0, 0, 0]	n/a	catFR1	1	R1515T
282.946	1.601	293396	WORD	n/a	wordpools/wordpool_categorized_EN.txt	MOUNTAIN	Landscapes	12	2	[0, 0, 0]	n/a	catFR1	1	R1515T
284.547	0.002	294997	WORD_OFF	n/a	n/a	MOUNTAIN	Landscapes	12	2	[0, 0, 0]	n/a	catFR1	1	R1515T
284.549	0.0	294997	ENCODING_END	n/a	n/a	n/a	n/a	-999	2	[0, 0, 0]	n/a	catFR1	1	R1515T
284.549	0.0	294997	DISTRACT_START	n/a	n/a	n/a	n/a	-999	2	[0, 0, 0]	n/a	catFR1	1	R1515T
284.548	0.001	294999	PROB	11.933	n/a	n/a	n/a	-999	2	[8, 3, 4]	15.0	catFR1	1	R1515T
284.549	11.948	295000	START	n/a	n/a	n/a	n/a	-999	2	[-999, -999, -999]	n/a	catFR1	1	R1515T
296.497	3.318	306947	PROB	3.299	n/a	n/a	n/a	-999	2	[3, 2, 1]	6.0	catFR1	1	R1515T
299.815	7.116	310265	PROB	7.099	n/a	n/a	n/a	-999	2	[6, 4, 5]	13.0	catFR1	1	R1515T
306.931	0.0	317371	DISTRACT_END	n/a	n/a	n/a	n/a	-999	2	[0, 0, 0]	n/a	catFR1	1	R1515T
306.931	2.166	317381	STOP	n/a	n/a	n/a	n/a	-999	2	[-999, -999, -999]	n/a	catFR1	1	R1515T
309.097	0.137	319539	REC_START	n/a	n/a	n/a	n/a	-999	2	[0, 0, 0]	n/a	catFR1	1	R1515T
309.234	1.0	319683	REC_WORD	0.137	n/a	BARBIE	Toys	1	2	[0, 0, 0]	n/a	catFR1	1	R1515T
310.234	1.973	320683	REC_WORD	1.137	n/a	BARBIE	Toys	1	2	[0, 0, 0]	n/a	catFR1	1	R1515T
312.207	5.383	322656	REC_WORD_VV	3.11	n/a	<>	n/a	-999	2	[0, 0, 0]	n/a	catFR1	1	R1515T
317.59	2.498	328039	REC_WORD_VV	8.493	n/a	<>	n/a	-999	2	[0, 0, 0]	n/a	catFR1	1	R1515T
320.088	1.0	330537	REC_WORD	10.991	n/a	HILL	n/a	-999	2	[0, 0, 0]	n/a	catFR1	1	R1515T
321.088	1.978	331537	REC_WORD	11.991	n/a	HILL	n/a	-999	2	[0, 0, 0]	n/a	catFR1	1	R1515T
323.066	1.0	333515	REC_WORD_VV	13.969	n/a	<>	n/a	-999	2	[0, 0, 0]	n/a	catFR1	1	R1515T
324.066	1.0	334515	REC_WORD_VV	14.969	n/a	<>	n/a	-999	2	[0, 0, 0]	n/a	catFR1	1	R1515T
325.066	1.991	335515	REC_WORD_VV	15.969	n/a	<>	n/a	-999	2	[0, 0, 0]	n/a	catFR1	1	R1515T
327.057	12.254	337506	REC_WORD_VV	17.96	n/a	<>	n/a	-999	2	[0, 0, 0]	n/a	catFR1	1	R1515T
339.311	1.72	349753	REC_END	n/a	n/a	n/a	n/a	-999	2	[0, 0, 0]	n/a	catFR1	1	R1515T
341.031	10.349	351472	COUNTDOWN_START	n/a	n/a	n/a	n/a	-999	3	[0, 0, 0]	n/a	catFR1	1	R1515T
351.38	0.0	361824	COUNTDOWN_END	n/a	n/a	n/a	n/a	-999	3	[0, 0, 0]	n/a	catFR1	1	R1515T
351.38	2.033	361824	ENCODING_START	n/a	n/a	n/a	n/a	-999	3	[0, 0, 0]	n/a	catFR1	1	R1515T
353.413	1.617	363857	WORD	n/a	wordpools/wordpool_categorized_EN.txt	DOOR	Building	1	3	[0, 0, 0]	n/a	catFR1	1	R1515T
355.03	0.834	365468	WORD_OFF	n/a	n/a	DOOR	Building	1	3	[0, 0, 0]	n/a	catFR1	1	R1515T
355.864	1.617	366303	WORD	n/a	wordpools/wordpool_categorized_EN.txt	BATHROOM	Building	2	3	[0, 0, 0]	n/a	catFR1	1	R1515T
357.481	0.766	367923	WORD_OFF	n/a	n/a	BATHROOM	Building	2	3	[0, 0, 0]	n/a	catFR1	1	R1515T
358.247	1.617	368689	WORD	n/a	wordpools/wordpool_categorized_EN.txt	CAULIFLOWER	Vegetables	3	3	[0, 0, 0]	n/a	catFR1	1	R1515T
359.864	0.783	370310	WORD_OFF	n/a	n/a	CAULIFLOWER	Vegetables	3	3	[0, 0, 0]	n/a	catFR1	1	R1515T
360.647	1.6	371086	WORD	n/a	wordpools/wordpool_categorized_EN.txt	CELERY	Vegetables	4	3	[0, 0, 0]	n/a	catFR1	1	R1515T
362.247	0.984	372687	WORD_OFF	n/a	n/a	CELERY	Vegetables	4	3	[0, 0, 0]	n/a	catFR1	1	R1515T
363.231	1.616	373669	WORD	n/a	wordpools/wordpool_categorized_EN.txt	NIGHTSTAND	Furniture	5	3	[0, 0, 0]	n/a	catFR1	1	R1515T
364.847	0.883	375290	WORD_OFF	n/a	n/a	NIGHTSTAND	Furniture	5	3	[0, 0, 0]	n/a	catFR1	1	R1515T
365.73	1.601	376174	WORD	n/a	wordpools/wordpool_categorized_EN.txt	CHAIR	Furniture	6	3	[0, 0, 0]	n/a	catFR1	1	R1515T
367.331	0.983	377774	WORD_OFF	n/a	n/a	CHAIR	Furniture	6	3	[0, 0, 0]	n/a	catFR1	1	R1515T
368.314	1.6	378757	WORD	n/a	wordpools/wordpool_categorized_EN.txt	FLOOR	Building	7	3	[0, 0, 0]	n/a	catFR1	1	R1515T
369.914	0.833	380358	WORD_OFF	n/a	n/a	FLOOR	Building	7	3	[0, 0, 0]	n/a	catFR1	1	R1515T
370.747	1.616	381192	WORD	n/a	wordpools/wordpool_categorized_EN.txt	WINDOW	Building	8	3	[0, 0, 0]	n/a	catFR1	1	R1515T
372.363	0.951	382803	WORD_OFF	n/a	n/a	WINDOW	Building	8	3	[0, 0, 0]	n/a	catFR1	1	R1515T
373.314	1.616	383756	WORD	n/a	wordpools/wordpool_categorized_EN.txt	CABINET	Furniture	9	3	[0, 0, 0]	n/a	catFR1	1	R1515T
374.93	0.884	385367	WORD_OFF	n/a	n/a	CABINET	Furniture	9	3	[0, 0, 0]	n/a	catFR1	1	R1515T
375.814	1.6	386251	WORD	n/a	wordpools/wordpool_categorized_EN.txt	COUCH	Furniture	10	3	[0, 0, 0]	n/a	catFR1	1	R1515T
377.414	1.0	387852	WORD_OFF	n/a	n/a	COUCH	Furniture	10	3	[0, 0, 0]	n/a	catFR1	1	R1515T
378.414	1.6	388853	WORD	n/a	wordpools/wordpool_categorized_EN.txt	SPINACH	Vegetables	11	3	[0, 0, 0]	n/a	catFR1	1	R1515T
380.014	0.899	390454	WORD_OFF	n/a	n/a	SPINACH	Vegetables	11	3	[0, 0, 0]	n/a	catFR1	1	R1515T
380.913	1.6	391358	WORD	n/a	wordpools/wordpool_categorized_EN.txt	CUCUMBER	Vegetables	12	3	[0, 0, 0]	n/a	catFR1	1	R1515T
382.513	0.001	392959	WORD_OFF	n/a	n/a	CUCUMBER	Vegetables	12	3	[0, 0, 0]	n/a	catFR1	1	R1515T
382.514	0.0	392959	ENCODING_END	n/a	n/a	n/a	n/a	-999	3	[0, 0, 0]	n/a	catFR1	1	R1515T
382.514	0.0	392959	DISTRACT_START	n/a	n/a	n/a	n/a	-999	3	[0, 0, 0]	n/a	catFR1	1	R1515T
382.514	0.0	392960	START	n/a	n/a	n/a	n/a	-999	3	[-999, -999, -999]	n/a	catFR1	1	R1515T
382.514	6.067	392960	PROB	6.05	n/a	n/a	n/a	-999	3	[1, 8, 6]	15.0	catFR1	1	R1515T
388.581	3.333	399026	PROB	3.316	n/a	n/a	n/a	-999	3	[1, 7, 8]	16.0	catFR1	1	R1515T
391.914	3.767	402359	PROB	3.75	n/a	n/a	n/a	-999	3	[2, 8, 4]	14.0	catFR1	1	R1515T
395.681	7.483	406126	PROB	7.466	n/a	n/a	n/a	-999	3	[4, 5, 8]	17.0	catFR1	1	R1515T
403.164	0.0	413604	DISTRACT_END	n/a	n/a	n/a	n/a	-999	3	[0, 0, 0]	n/a	catFR1	1	R1515T
403.164	2.032	413609	STOP	n/a	n/a	n/a	n/a	-999	3	[-999, -999, -999]	n/a	catFR1	1	R1515T
405.196	0.002	415636	REC_START	n/a	n/a	n/a	n/a	-999	3	[0, 0, 0]	n/a	catFR1	1	R1515T
405.198	0.736	415643	REC_WORD	0.002	n/a	CUCUMBER	Vegetables	12	3	[0, 0, 0]	n/a	catFR1	1	R1515T
405.934	1.0	416379	REC_WORD	0.738	n/a	SPINACH	Vegetables	11	3	[0, 0, 0]	n/a	catFR1	1	R1515T
406.934	0.87	417378	REC_WORD	1.738	n/a	SPINACH	Vegetables	11	3	[0, 0, 0]	n/a	catFR1	1	R1515T
407.804	1.0	418248	REC_WORD	2.608	n/a	CAULIFLOWER	Vegetables	3	3	[0, 0, 0]	n/a	catFR1	1	R1515T
408.804	2.43	419248	REC_WORD	3.608	n/a	CAULIFLOWER	Vegetables	3	3	[0, 0, 0]	n/a	catFR1	1	R1515T
411.234	0.794	421678	REC_WORD_VV	6.038	n/a	<>	n/a	-999	3	[0, 0, 0]	n/a	catFR1	1	R1515T
412.028	0.775	422472	REC_WORD	6.832	n/a	DOOR	Building	1	3	[0, 0, 0]	n/a	catFR1	1	R1515T
412.803	1.0	423247	REC_WORD	7.607	n/a	HALLWAY	Building	-999	3	[0, 0, 0]	n/a	catFR1	1	R1515T
413.803	1.055	424247	REC_WORD	8.607	n/a	HALLWAY	Building	-999	3	[0, 0, 0]	n/a	catFR1	1	R1515T
414.858	1.0	425302	REC_WORD	9.662	n/a	FLOOR	Building	7	3	[0, 0, 0]	n/a	catFR1	1	R1515T
415.858	0.835	426302	REC_WORD	10.662	n/a	FLOOR	Building	7	3	[0, 0, 0]	n/a	catFR1	1	R1515T
416.693	1.0	427137	REC_WORD	11.497	n/a	CABINET	Furniture	9	3	[0, 0, 0]	n/a	catFR1	1	R1515T
417.693	6.836	428137	REC_WORD	12.497	n/a	CABINET	Furniture	9	3	[0, 0, 0]	n/a	catFR1	1	R1515T
424.529	1.0	434973	REC_WORD	19.333	n/a	BEDROOM	n/a	-999	3	[0, 0, 0]	n/a	catFR1	1	R1515T
425.529	7.433	435973	REC_WORD	20.333	n/a	BEDROOM	n/a	-999	3	[0, 0, 0]	n/a	catFR1	1	R1515T
432.962	1.0	443405	REC_WORD_VV	27.766	n/a	<>	n/a	-999	3	[0, 0, 0]	n/a	catFR1	1	R1515T
433.962	1.483	444405	REC_WORD_VV	28.766	n/a	<>	n/a	-999	3	[0, 0, 0]	n/a	catFR1	1	R1515T
435.445	2.218	445888	REC_END	n/a	n/a	n/a	n/a	-999	3	[0, 0, 0]	n/a	catFR1	1	R1515T
437.663	10.351	448098	COUNTDOWN_START	n/a	n/a	n/a	n/a	-999	4	[0, 0, 0]	n/a	catFR1	1	R1515T
448.014	0.0	458451	COUNTDOWN_END	n/a	n/a	n/a	n/a	-999	4	[0, 0, 0]	n/a	catFR1	1	R1515T
448.014	2.3	458451	ENCODING_START	n/a	n/a	n/a	n/a	-999	4	[0, 0, 0]	n/a	catFR1	1	R1515T
450.314	1.617	460749	WORD	n/a	wordpools/wordpool_categorized_EN.txt	BEER	Beverages	1	4	[0, 0, 0]	n/a	catFR1	1	R1515T
451.931	0.783	462369	WORD_OFF	n/a	n/a	BEER	Beverages	1	4	[0, 0, 0]	n/a	catFR1	1	R1515T
452.714	1.617	463155	WORD	n/a	wordpools/wordpool_categorized_EN.txt	WATER	Beverages	2	4	[0, 0, 0]	n/a	catFR1	1	R1515T
454.331	0.899	464766	WORD_OFF	n/a	n/a	WATER	Beverages	2	4	[0, 0, 0]	n/a	catFR1	1	R1515T
455.23	1.601	465670	WORD	n/a	wordpools/wordpool_categorized_EN.txt	BED	Furniture	3	4	[0, 0, 0]	n/a	catFR1	1	R1515T
456.831	0.966	467271	WORD_OFF	n/a	n/a	BED	Furniture	3	4	[0, 0, 0]	n/a	catFR1	1	R1515T
457.797	1.6	468233	WORD	n/a	wordpools/wordpool_categorized_EN.txt	DRESSER	Furniture	4	4	[0, 0, 0]	n/a	catFR1	1	R1515T
459.397	0.783	469834	WORD_OFF	n/a	n/a	DRESSER	Furniture	4	4	[0, 0, 0]	n/a	catFR1	1	R1515T
460.18	1.6	470620	WORD	n/a	wordpools/wordpool_categorized_EN.txt	PEN	OfficeSupplies	5	4	[0, 0, 0]	n/a	catFR1	1	R1515T
461.78	0.867	472221	WORD_OFF	n/a	n/a	PEN	OfficeSupplies	5	4	[0, 0, 0]	n/a	catFR1	1	R1515T
462.647	1.6	473085	WORD	n/a	wordpools/wordpool_categorized_EN.txt	ERASER	OfficeSupplies	6	4	[0, 0, 0]	n/a	catFR1	1	R1515T
464.247	0.884	474686	WORD_OFF	n/a	n/a	ERASER	OfficeSupplies	6	4	[0, 0, 0]	n/a	catFR1	1	R1515T
465.131	1.616	475570	WORD	n/a	wordpools/wordpool_categorized_EN.txt	DESK	Furniture	7	4	[0, 0, 0]	n/a	catFR1	1	R1515T
466.747	0.85	477181	WORD_OFF	n/a	n/a	DESK	Furniture	7	4	[0, 0, 0]	n/a	catFR1	1	R1515T
467.597	1.6	478035	WORD	n/a	wordpools/wordpool_categorized_EN.txt	TABLE	Furniture	8	4	[0, 0, 0]	n/a	catFR1	1	R1515T
469.197	0.834	479636	WORD_OFF	n/a	n/a	TABLE	Furniture	8	4	[0, 0, 0]	n/a	catFR1	1	R1515T
470.031	1.6	480471	WORD	n/a	wordpools/wordpool_categorized_EN.txt	MARKER	OfficeSupplies	9	4	[0, 0, 0]	n/a	catFR1	1	R1515T
471.631	0.816	482062	WORD_OFF	n/a	n/a	MARKER	OfficeSupplies	9	4	[0, 0, 0]	n/a	catFR1	1	R1515T
472.447	1.6	482887	WORD	n/a	wordpools/wordpool_categorized_EN.txt	STAPLER	OfficeSupplies	10	4	[0, 0, 0]	n/a	catFR1	1	R1515T
474.047	0.936	484478	WORD_OFF	n/a	n/a	STAPLER	OfficeSupplies	10	4	[0, 0, 0]	n/a	catFR1	1	R1515T
474.983	1.597	485421	WORD	n/a	wordpools/wordpool_categorized_EN.txt	SODA	Beverages	11	4	[0, 0, 0]	n/a	catFR1	1	R1515T
476.58	0.966	487012	WORD_OFF	n/a	n/a	SODA	Beverages	11	4	[0, 0, 0]	n/a	catFR1	1	R1515T
477.546	1.601	487985	WORD	n/a	wordpools/wordpool_categorized_EN.txt	JUICE	Beverages	12	4	[0, 0, 0]	n/a	catFR1	1	R1515T
479.147	0.001	489586	WORD_OFF	n/a	n/a	JUICE	Beverages	12	4	[0, 0, 0]	n/a	catFR1	1	R1515T
479.148	0.0	489586	ENCODING_END	n/a	n/a	n/a	n/a	-999	4	[0, 0, 0]	n/a	catFR1	1	R1515T
479.148	0.0	489586	DISTRACT_START	n/a	n/a	n/a	n/a	-999	4	[0, 0, 0]	n/a	catFR1	1	R1515T
479.148	0.0	489589	START	n/a	n/a	n/a	n/a	-999	4	[-999, -999, -999]	n/a	catFR1	1	R1515T
479.148	5.632	489589	PROB	5.616	n/a	n/a	n/a	-999	4	[7, 7, 4]	18.0	catFR1	1	R1515T
484.78	6.567	495220	PROB	6.55	n/a	n/a	n/a	-999	4	[3, 5, 2]	10.0	catFR1	1	R1515T
491.347	7.25	501787	PROB	7.233	n/a	n/a	n/a	-999	4	[3, 4, 2]	9.0	catFR1	1	R1515T
498.597	3.331	509037	PROB	3.315	n/a	n/a	n/a	-999	4	[2, 6, 6]	14.0	catFR1	1	R1515T
501.928	0.0	512362	DISTRACT_END	n/a	n/a	n/a	n/a	-999	4	[0, 0, 0]	n/a	catFR1	1	R1515T
501.928	2.203	512368	STOP	n/a	n/a	n/a	n/a	-999	4	[-999, -999, -999]	n/a	catFR1	1	R1515T
504.131	0.0	514570	REC_START	n/a	n/a	n/a	n/a	-999	4	[0, 0, 0]	n/a	catFR1	1	R1515T
504.131	0.771	514570	REC_WORD	0.0	n/a	WATER	Beverages	2	4	[0, 0, 0]	n/a	catFR1	1	R1515T
504.902	1.0	515341	REC_WORD	0.771	n/a	SODA	Beverages	11	4	[0, 0, 0]	n/a	catFR1	1	R1515T
505.902	0.025	516341	REC_WORD	1.771	n/a	SODA	Beverages	11	4	[0, 0, 0]	n/a	catFR1	1	R1515T
505.927	1.0	516366	REC_WORD	1.796	n/a	BEER	Beverages	1	4	[0, 0, 0]	n/a	catFR1	1	R1515T
506.927	1.419	517366	REC_WORD	2.796	n/a	BEER	Beverages	1	4	[0, 0, 0]	n/a	catFR1	1	R1515T
508.346	0.65	518785	REC_WORD	4.215	n/a	SODA	Beverages	11	4	[0, 0, 0]	n/a	catFR1	1	R1515T
508.996	0.348	519435	REC_WORD	4.865	n/a	BEER	Beverages	1	4	[0, 0, 0]	n/a	catFR1	1	R1515T
509.344	1.555	519783	REC_WORD	5.213	n/a	JUICE	Beverages	12	4	[0, 0, 0]	n/a	catFR1	1	R1515T
510.899	0.329	521338	REC_WORD_VV	6.768	n/a	<>	n/a	-999	4	[0, 0, 0]	n/a	catFR1	1	R1515T
511.228	0.814	521667	REC_WORD	7.097	n/a	MARKER	OfficeSupplies	9	4	[0, 0, 0]	n/a	catFR1	1	R1515T
512.042	1.0	522481	REC_WORD	7.911	n/a	STAPLER	OfficeSupplies	10	4	[0, 0, 0]	n/a	catFR1	1	R1515T
513.042	1.22	523481	REC_WORD	8.911	n/a	STAPLER	OfficeSupplies	10	4	[0, 0, 0]	n/a	catFR1	1	R1515T
514.262	0.719	524701	REC_WORD	10.131	n/a	PEN	OfficeSupplies	5	4	[0, 0, 0]	n/a	catFR1	1	R1515T
514.981	1.0	525420	REC_WORD	10.85	n/a	ERASER	OfficeSupplies	6	4	[0, 0, 0]	n/a	catFR1	1	R1515T
515.981	1.8	526420	REC_WORD	11.85	n/a	ERASER	OfficeSupplies	6	4	[0, 0, 0]	n/a	catFR1	1	R1515T
517.781	0.794	528220	REC_WORD_VV	13.65	n/a	<>	n/a	-999	4	[0, 0, 0]	n/a	catFR1	1	R1515T
518.575	1.0	529014	REC_WORD	14.444	n/a	BED	Furniture	3	4	[0, 0, 0]	n/a	catFR1	1	R1515T
519.575	1.215	530014	REC_WORD	15.444	n/a	BED	Furniture	3	4	[0, 0, 0]	n/a	catFR1	1	R1515T
520.79	1.0	531229	REC_WORD	16.659	n/a	COUCH	Furniture	-999	4	[0, 0, 0]	n/a	catFR1	1	R1515T
521.79	4.793	532229	REC_WORD	17.659	n/a	COUCH	Furniture	-999	4	[0, 0, 0]	n/a	catFR1	1	R1515T
526.583	0.539	537021	REC_WORD	22.452	n/a	BED	Furniture	3	4	[0, 0, 0]	n/a	catFR1	1	R1515T
527.122	1.499	537560	REC_WORD	22.991	n/a	COUCH	Furniture	-999	4	[0, 0, 0]	n/a	catFR1	1	R1515T
528.621	1.0	539059	REC_WORD	24.49	n/a	CABINET	Furniture	-999	4	[0, 0, 0]	n/a	catFR1	1	R1515T
529.621	4.746	540059	REC_WORD	25.49	n/a	CABINET	Furniture	-999	4	[0, 0, 0]	n/a	catFR1	1	R1515T
534.367	1.564	544804	REC_END	n/a	n/a	n/a	n/a	-999	4	[0, 0, 0]	n/a	catFR1	1	R1515T
535.931	10.349	546365	COUNTDOWN_START	n/a	n/a	n/a	n/a	-999	5	[0, 0, 0]	n/a	catFR1	1	R1515T
546.28	0.0	556717	COUNTDOWN_END	n/a	n/a	n/a	n/a	-999	5	[0, 0, 0]	n/a	catFR1	1	R1515T
546.28	2.067	556717	ENCODING_START	n/a	n/a	n/a	n/a	-999	5	[0, 0, 0]	n/a	catFR1	1	R1515T
548.347	1.6	558780	WORD	n/a	wordpools/wordpool_categorized_EN.txt	PLUM	Fruit	1	5	[0, 0, 0]	n/a	catFR1	1	R1515T
549.947	0.9	560381	WORD_OFF	n/a	n/a	PLUM	Fruit	1	5	[0, 0, 0]	n/a	catFR1	1	R1515T
550.847	1.617	561275	WORD	n/a	wordpools/wordpool_categorized_EN.txt	GRAPE	Fruit	2	5	[0, 0, 0]	n/a	catFR1	1	R1515T
552.464	0.9	562895	WORD_OFF	n/a	n/a	GRAPE	Fruit	2	5	[0, 0, 0]	n/a	catFR1	1	R1515T
553.364	1.617	563799	WORD	n/a	wordpools/wordpool_categorized_EN.txt	HEADPHONES	Electronics	3	5	[0, 0, 0]	n/a	catFR1	1	R1515T
554.981	0.916	565410	WORD_OFF	n/a	n/a	HEADPHONES	Electronics	3	5	[0, 0, 0]	n/a	catFR1	1	R1515T
555.897	1.6	566333	WORD	n/a	wordpools/wordpool_categorized_EN.txt	TELEVISION	Electronics	4	5	[0, 0, 0]	n/a	catFR1	1	R1515T
557.497	0.867	567934	WORD_OFF	n/a	n/a	TELEVISION	Electronics	4	5	[0, 0, 0]	n/a	catFR1	1	R1515T
558.364	1.614	568798	WORD	n/a	wordpools/wordpool_categorized_EN.txt	FORK	KitchenTools	5	5	[0, 0, 0]	n/a	catFR1	1	R1515T
559.978	0.853	570409	WORD_OFF	n/a	n/a	FORK	KitchenTools	5	5	[0, 0, 0]	n/a	catFR1	1	R1515T
560.831	1.6	571263	WORD	n/a	wordpools/wordpool_categorized_EN.txt	CORKSCREW	KitchenTools	6	5	[0, 0, 0]	n/a	catFR1	1	R1515T
562.431	0.783	572864	WORD_OFF	n/a	n/a	CORKSCREW	KitchenTools	6	5	[0, 0, 0]	n/a	catFR1	1	R1515T
563.214	1.616	573650	WORD	n/a	wordpools/wordpool_categorized_EN.txt	PRINTER	Electronics	7	5	[0, 0, 0]	n/a	catFR1	1	R1515T
564.83	1.001	575261	WORD_OFF	n/a	n/a	PRINTER	Electronics	7	5	[0, 0, 0]	n/a	catFR1	1	R1515T
565.831	1.616	576263	WORD	n/a	wordpools/wordpool_categorized_EN.txt	STEREO	Electronics	8	5	[0, 0, 0]	n/a	catFR1	1	R1515T
567.447	1.0	577883	WORD_OFF	n/a	n/a	STEREO	Electronics	8	5	[0, 0, 0]	n/a	catFR1	1	R1515T
568.447	1.617	578875	WORD	n/a	wordpools/wordpool_categorized_EN.txt	COLANDER	KitchenTools	9	5	[0, 0, 0]	n/a	catFR1	1	R1515T
570.064	0.782	580496	WORD_OFF	n/a	n/a	COLANDER	KitchenTools	9	5	[0, 0, 0]	n/a	catFR1	1	R1515T
570.846	1.601	581272	WORD	n/a	wordpools/wordpool_categorized_EN.txt	SPATULA	KitchenTools	10	5	[0, 0, 0]	n/a	catFR1	1	R1515T
572.447	0.899	582883	WORD_OFF	n/a	n/a	SPATULA	KitchenTools	10	5	[0, 0, 0]	n/a	catFR1	1	R1515T
573.346	1.601	583776	WORD	n/a	wordpools/wordpool_categorized_EN.txt	ORANGE	Fruit	11	5	[0, 0, 0]	n/a	catFR1	1	R1515T
574.947	0.95	585377	WORD_OFF	n/a	n/a	ORANGE	Fruit	11	5	[0, 0, 0]	n/a	catFR1	1	R1515T
575.897	1.617	586330	WORD	n/a	wordpools/wordpool_categorized_EN.txt	APPLE	Fruit	12	5	[0, 0, 0]	n/a	catFR1	1	R1515T
577.514	0.0	587941	WORD_OFF	n/a	n/a	APPLE	Fruit	12	5	[0, 0, 0]	n/a	catFR1	1	R1515T
577.514	0.001	587950	PROB	4.617	n/a	n/a	n/a	-999	5	[5, 2, 2]	9.0	catFR1	1	R1515T
577.515	0.0	587951	ENCODING_END	n/a	n/a	n/a	n/a	-999	5	[0, 0, 0]	n/a	catFR1	1	R1515T
577.515	0.0	587951	DISTRACT_START	n/a	n/a	n/a	n/a	-999	5	[0, 0, 0]	n/a	catFR1	1	R1515T
577.515	4.632	587951	START	n/a	n/a	n/a	n/a	-999	5	[-999, -999, -999]	n/a	catFR1	1	R1515T
582.147	3.166	592582	PROB	3.15	n/a	n/a	n/a	-999	5	[2, 5, 3]	9.0	catFR1	1	R1515T
585.313	6.918	595748	PROB	6.9	n/a	n/a	n/a	-999	5	[7, 3, 4]	14.0	catFR1	1	R1515T
592.231	5.432	602666	PROB	5.416	n/a	n/a	n/a	-999	5	[4, 8, 4]	16.0	catFR1	1	R1515T
597.663	0.0	608095	DISTRACT_END	n/a	n/a	n/a	n/a	-999	5	[0, 0, 0]	n/a	catFR1	1	R1515T
597.663	2.284	608098	STOP	n/a	n/a	n/a	n/a	-999	5	[-999, -999, -999]	n/a	catFR1	1	R1515T
599.947	0.273	610372	REC_START	n/a	n/a	n/a	n/a	-999	5	[0, 0, 0]	n/a	catFR1	1	R1515T
600.22	1.147	610655	REC_WORD	0.273	n/a	PLUM	Fruit	1	5	[0, 0, 0]	n/a	catFR1	1	R1515T
601.367	1.0	611801	REC_WORD	1.42	n/a	ORANGE	Fruit	11	5	[0, 0, 0]	n/a	catFR1	1	R1515T
602.367	1.58	612801	REC_WORD	2.42	n/a	ORANGE	Fruit	11	5	[0, 0, 0]	n/a	catFR1	1	R1515T
603.947	1.0	614381	REC_WORD	4.0	n/a	GRAPE	Fruit	2	5	[0, 0, 0]	n/a	catFR1	1	R1515T
604.947	1.412	615381	REC_WORD	5.0	n/a	GRAPE	Fruit	2	5	[0, 0, 0]	n/a	catFR1	1	R1515T
606.359	1.0	616793	REC_WORD	6.412	n/a	CORKSCREW	KitchenTools	6	5	[0, 0, 0]	n/a	catFR1	1	R1515T
607.359	0.277	617793	REC_WORD	7.412	n/a	CORKSCREW	KitchenTools	6	5	[0, 0, 0]	n/a	catFR1	1	R1515T
607.636	0.635	618070	REC_WORD_VV	7.689	n/a	<>	n/a	-999	5	[0, 0, 0]	n/a	catFR1	1	R1515T
608.271	1.0	618705	REC_WORD	8.324	n/a	CALENDAR	n/a	-999	5	[0, 0, 0]	n/a	catFR1	1	R1515T
609.271	1.166	619705	REC_WORD	9.324	n/a	CALENDAR	n/a	-999	5	[0, 0, 0]	n/a	catFR1	1	R1515T
610.437	0.624	620871	REC_WORD_VV	10.49	n/a	<>	n/a	-999	5	[0, 0, 0]	n/a	catFR1	1	R1515T
611.061	1.0	621495	REC_WORD	11.114	n/a	SPATULA	KitchenTools	10	5	[0, 0, 0]	n/a	catFR1	1	R1515T
612.061	2.695	622495	REC_WORD	12.114	n/a	SPATULA	KitchenTools	10	5	[0, 0, 0]	n/a	catFR1	1	R1515T
614.756	1.0	625190	REC_WORD	14.809	n/a	TELEVISION	Electronics	4	5	[0, 0, 0]	n/a	catFR1	1	R1515T
615.756	3.358	626190	REC_WORD	15.809	n/a	TELEVISION	Electronics	4	5	[0, 0, 0]	n/a	catFR1	1	R1515T
619.114	0.386	629548	REC_WORD_VV	19.167	n/a	<>	n/a	-999	5	[0, 0, 0]	n/a	catFR1	1	R1515T
619.5	0.488	629934	REC_WORD	19.553	n/a	RADIO	n/a	-999	5	[0, 0, 0]	n/a	catFR1	1	R1515T
619.988	3.155	630422	REC_WORD_VV	20.041	n/a	<>	n/a	-999	5	[0, 0, 0]	n/a	catFR1	1	R1515T
623.143	3.08	633576	REC_WORD_VV	23.196	n/a	<>	n/a	-999	5	[0, 0, 0]	n/a	catFR1	1	R1515T
626.223	1.0	636656	REC_WORD_VV	26.276	n/a	<>	n/a	-999	5	[0, 0, 0]	n/a	catFR1	1	R1515T
627.223	2.941	637656	REC_WORD_VV	27.276	n/a	<>	n/a	-999	5	[0, 0, 0]	n/a	catFR1	1	R1515T
630.164	1.9	640595	REC_END	n/a	n/a	n/a	n/a	-999	5	[0, 0, 0]	n/a	catFR1	1	R1515T
632.064	10.35	642491	COUNTDOWN_START	n/a	n/a	n/a	n/a	-999	6	[0, 0, 0]	n/a	catFR1	1	R1515T
642.414	0.0	652843	COUNTDOWN_END	n/a	n/a	n/a	n/a	-999	6	[0, 0, 0]	n/a	catFR1	1	R1515T
642.414	1.983	652843	ENCODING_START	n/a	n/a	n/a	n/a	-999	6	[0, 0, 0]	n/a	catFR1	1	R1515T
644.397	1.616	654827	WORD	n/a	wordpools/wordpool_categorized_EN.txt	BROCCOLI	Vegetables	1	6	[0, 0, 0]	n/a	catFR1	1	R1515T
646.013	0.784	656438	WORD_OFF	n/a	n/a	BROCCOLI	Vegetables	1	6	[0, 0, 0]	n/a	catFR1	1	R1515T
646.797	1.617	657224	WORD	n/a	wordpools/wordpool_categorized_EN.txt	LETTUCE	Vegetables	2	6	[0, 0, 0]	n/a	catFR1	1	R1515T
648.414	0.9	658854	WORD_OFF	n/a	n/a	LETTUCE	Vegetables	2	6	[0, 0, 0]	n/a	catFR1	1	R1515T
649.314	1.616	659738	WORD	n/a	wordpools/wordpool_categorized_EN.txt	BEACH	Landscapes	3	6	[0, 0, 0]	n/a	catFR1	1	R1515T
650.93	0.901	661359	WORD_OFF	n/a	n/a	BEACH	Landscapes	3	6	[0, 0, 0]	n/a	catFR1	1	R1515T
651.831	1.6	662262	WORD	n/a	wordpools/wordpool_categorized_EN.txt	VALLEY	Landscapes	4	6	[0, 0, 0]	n/a	catFR1	1	R1515T
653.431	1.0	663853	WORD_OFF	n/a	n/a	VALLEY	Landscapes	4	6	[0, 0, 0]	n/a	catFR1	1	R1515T
654.431	1.614	664855	WORD	n/a	wordpools/wordpool_categorized_EN.txt	MARBLES	Toys	5	6	[0, 0, 0]	n/a	catFR1	1	R1515T
656.045	1.002	666476	WORD_OFF	n/a	n/a	MARBLES	Toys	5	6	[0, 0, 0]	n/a	catFR1	1	R1515T
657.047	1.6	667478	WORD	n/a	wordpools/wordpool_categorized_EN.txt	DOLLHOUSE	Toys	6	6	[0, 0, 0]	n/a	catFR1	1	R1515T
658.647	0.9	669088	WORD_OFF	n/a	n/a	DOLLHOUSE	Toys	6	6	[0, 0, 0]	n/a	catFR1	1	R1515T
659.547	1.617	669972	WORD	n/a	wordpools/wordpool_categorized_EN.txt	CABBAGE	Vegetables	7	6	[0, 0, 0]	n/a	catFR1	1	R1515T
661.164	0.983	671593	WORD_OFF	n/a	n/a	CABBAGE	Vegetables	7	6	[0, 0, 0]	n/a	catFR1	1	R1515T
662.147	1.6	672575	WORD	n/a	wordpools/wordpool_categorized_EN.txt	POTATO	Vegetables	8	6	[0, 0, 0]	n/a	catFR1	1	R1515T
663.747	0.817	674176	WORD_OFF	n/a	n/a	POTATO	Vegetables	8	6	[0, 0, 0]	n/a	catFR1	1	R1515T
664.564	1.6	674991	WORD	n/a	wordpools/wordpool_categorized_EN.txt	CREEK	Landscapes	9	6	[0, 0, 0]	n/a	catFR1	1	R1515T
666.164	0.917	676592	WORD_OFF	n/a	n/a	CREEK	Landscapes	9	6	[0, 0, 0]	n/a	catFR1	1	R1515T
667.081	1.599	677506	WORD	n/a	wordpools/wordpool_categorized_EN.txt	ISLAND	Landscapes	10	6	[0, 0, 0]	n/a	catFR1	1	R1515T
668.68	0.817	679107	WORD_OFF	n/a	n/a	ISLAND	Landscapes	10	6	[0, 0, 0]	n/a	catFR1	1	R1515T
669.497	1.6	679922	WORD	n/a	wordpools/wordpool_categorized_EN.txt	BASEBALL	Toys	11	6	[0, 0, 0]	n/a	catFR1	1	R1515T
671.097	0.783	681523	WORD_OFF	n/a	n/a	BASEBALL	Toys	11	6	[0, 0, 0]	n/a	catFR1	1	R1515T
671.88	1.601	682308	WORD	n/a	wordpools/wordpool_categorized_EN.txt	BALL	Toys	12	6	[0, 0, 0]	n/a	catFR1	1	R1515T
673.481	0.003	683909	WORD_OFF	n/a	n/a	BALL	Toys	12	6	[0, 0, 0]	n/a	catFR1	1	R1515T
673.484	0.0	683909	ENCODING_END	n/a	n/a	n/a	n/a	-999	6	[0, 0, 0]	n/a	catFR1	1	R1515T
673.484	0.0	683909	DISTRACT_START	n/a	n/a	n/a	n/a	-999	6	[0, 0, 0]	n/a	catFR1	1	R1515T
673.481	0.003	683912	PROB	5.7	n/a	n/a	n/a	-999	6	[6, 3, 3]	12.0	catFR1	1	R1515T
673.484	5.714	683915	START	n/a	n/a	n/a	n/a	-999	6	[-999, -999, -999]	n/a	catFR1	1	R1515T
679.198	6.083	689628	PROB	6.066	n/a	n/a	n/a	-999	6	[5, 4, 2]	11.0	catFR1	1	R1515T
685.281	8.481	695711	PROB	8.464	n/a	n/a	n/a	-999	6	[3, 4, 3]	10.0	catFR1	1	R1515T
693.762	0.0	704191	DISTRACT_END	n/a	n/a	n/a	n/a	-999	6	[0, 0, 0]	n/a	catFR1	1	R1515T
693.762	2.168	704192	STOP	n/a	n/a	n/a	n/a	-999	6	[-999, -999, -999]	n/a	catFR1	1	R1515T
695.93	1.639	706350	REC_START	n/a	n/a	n/a	n/a	-999	6	[0, 0, 0]	n/a	catFR1	1	R1515T
697.569	1.0	707999	REC_WORD	1.639	n/a	BROCCOLI	Vegetables	1	6	[0, 0, 0]	n/a	catFR1	1	R1515T
698.569	0.078	708999	REC_WORD	2.639	n/a	BROCCOLI	Vegetables	1	6	[0, 0, 0]	n/a	catFR1	1	R1515T
698.647	1.0	709077	REC_WORD	2.717	n/a	LETTUCE	Vegetables	2	6	[0, 0, 0]	n/a	catFR1	1	R1515T
699.647	1.796	710076	REC_WORD	3.717	n/a	LETTUCE	Vegetables	2	6	[0, 0, 0]	n/a	catFR1	1	R1515T
701.443	1.0	711872	REC_WORD	5.513	n/a	POTATO	Vegetables	8	6	[0, 0, 0]	n/a	catFR1	1	R1515T
702.443	2.719	712872	REC_WORD	6.513	n/a	POTATO	Vegetables	8	6	[0, 0, 0]	n/a	catFR1	1	R1515T
705.162	0.982	715591	REC_WORD_VV	9.232	n/a	<>	n/a	-999	6	[0, 0, 0]	n/a	catFR1	1	R1515T
706.144	0.97	716573	REC_WORD	10.214	n/a	CREEK	Landscapes	9	6	[0, 0, 0]	n/a	catFR1	1	R1515T
707.114	1.0	717543	REC_WORD	11.184	n/a	VALLEY	Landscapes	4	6	[0, 0, 0]	n/a	catFR1	1	R1515T
708.114	1.56	718543	REC_WORD	12.184	n/a	VALLEY	Landscapes	4	6	[0, 0, 0]	n/a	catFR1	1	R1515T
709.674	4.174	720103	REC_WORD	13.744	n/a	BEACH	Landscapes	3	6	[0, 0, 0]	n/a	catFR1	1	R1515T
713.848	1.0	724277	REC_WORD_VV	17.918	n/a	<>	n/a	-999	6	[0, 0, 0]	n/a	catFR1	1	R1515T
714.848	1.0	725277	REC_WORD_VV	18.918	n/a	<>	n/a	-999	6	[0, 0, 0]	n/a	catFR1	1	R1515T
715.848	1.0	726277	REC_WORD_VV	19.918	n/a	<>	n/a	-999	6	[0, 0, 0]	n/a	catFR1	1	R1515T
716.848	1.0	727277	REC_WORD_VV	20.918	n/a	<>	n/a	-999	6	[0, 0, 0]	n/a	catFR1	1	R1515T
717.848	1.0	728277	REC_WORD_VV	21.918	n/a	<>	n/a	-999	6	[0, 0, 0]	n/a	catFR1	1	R1515T
718.848	5.735	729276	REC_WORD_VV	22.918	n/a	<>	n/a	-999	6	[0, 0, 0]	n/a	catFR1	1	R1515T
724.583	1.0	735011	REC_WORD_VV	28.653	n/a	<>	n/a	-999	6	[0, 0, 0]	n/a	catFR1	1	R1515T
725.583	0.58	736011	REC_WORD_VV	29.653	n/a	<>	n/a	-999	6	[0, 0, 0]	n/a	catFR1	1	R1515T
726.163	2.55	736584	REC_END	n/a	n/a	n/a	n/a	-999	6	[0, 0, 0]	n/a	catFR1	1	R1515T
728.713	10.35	739137	COUNTDOWN_START	n/a	n/a	n/a	n/a	-999	7	[0, 0, 0]	n/a	catFR1	1	R1515T
739.063	0.0	749489	COUNTDOWN_END	n/a	n/a	n/a	n/a	-999	7	[0, 0, 0]	n/a	catFR1	1	R1515T
739.063	2.034	749489	ENCODING_START	n/a	n/a	n/a	n/a	-999	7	[0, 0, 0]	n/a	catFR1	1	R1515T
741.097	1.617	751523	WORD	n/a	wordpools/wordpool_categorized_EN.txt	FOLDER	OfficeSupplies	1	7	[0, 0, 0]	n/a	catFR1	1	R1515T
742.714	0.9	753133	WORD_OFF	n/a	n/a	FOLDER	OfficeSupplies	1	7	[0, 0, 0]	n/a	catFR1	1	R1515T
743.614	1.6	754037	WORD	n/a	wordpools/wordpool_categorized_EN.txt	TAPE	OfficeSupplies	2	7	[0, 0, 0]	n/a	catFR1	1	R1515T
745.214	0.832	755638	WORD_OFF	n/a	n/a	TAPE	OfficeSupplies	2	7	[0, 0, 0]	n/a	catFR1	1	R1515T
746.046	1.602	756473	WORD	n/a	wordpools/wordpool_categorized_EN.txt	HURRICANE	Weather	3	7	[0, 0, 0]	n/a	catFR1	1	R1515T
747.648	0.899	758074	WORD_OFF	n/a	n/a	HURRICANE	Weather	3	7	[0, 0, 0]	n/a	catFR1	1	R1515T
748.547	1.617	758967	WORD	n/a	wordpools/wordpool_categorized_EN.txt	TORNADO	Weather	4	7	[0, 0, 0]	n/a	catFR1	1	R1515T
750.164	1.0	760588	WORD_OFF	n/a	n/a	TORNADO	Weather	4	7	[0, 0, 0]	n/a	catFR1	1	R1515T
751.164	1.6	761590	WORD	n/a	wordpools/wordpool_categorized_EN.txt	COOKIE	Desserts	5	7	[0, 0, 0]	n/a	catFR1	1	R1515T
752.764	1.0	763191	WORD_OFF	n/a	n/a	COOKIE	Desserts	5	7	[0, 0, 0]	n/a	catFR1	1	R1515T
753.764	1.6	764183	WORD	n/a	wordpools/wordpool_categorized_EN.txt	COBBLER	Desserts	6	7	[0, 0, 0]	n/a	catFR1	1	R1515T
755.364	0.85	765784	WORD_OFF	n/a	n/a	COBBLER	Desserts	6	7	[0, 0, 0]	n/a	catFR1	1	R1515T
756.214	1.617	766638	WORD	n/a	wordpools/wordpool_categorized_EN.txt	RULER	OfficeSupplies	7	7	[0, 0, 0]	n/a	catFR1	1	R1515T
757.831	0.799	768249	WORD_OFF	n/a	n/a	RULER	OfficeSupplies	7	7	[0, 0, 0]	n/a	catFR1	1	R1515T
758.63	1.6	769054	WORD	n/a	wordpools/wordpool_categorized_EN.txt	BINDER	OfficeSupplies	8	7	[0, 0, 0]	n/a	catFR1	1	R1515T
760.23	0.984	770655	WORD_OFF	n/a	n/a	BINDER	OfficeSupplies	8	7	[0, 0, 0]	n/a	catFR1	1	R1515T
761.214	1.615	771638	WORD	n/a	wordpools/wordpool_categorized_EN.txt	THUNDER	Weather	9	7	[0, 0, 0]	n/a	catFR1	1	R1515T
762.829	0.985	773248	WORD_OFF	n/a	n/a	THUNDER	Weather	9	7	[0, 0, 0]	n/a	catFR1	1	R1515T
763.814	1.617	774240	WORD	n/a	wordpools/wordpool_categorized_EN.txt	HUMIDITY	Weather	10	7	[0, 0, 0]	n/a	catFR1	1	R1515T
765.431	0.949	775851	WORD_OFF	n/a	n/a	HUMIDITY	Weather	10	7	[0, 0, 0]	n/a	catFR1	1	R1515T
766.38	1.617	776804	WORD	n/a	wordpools/wordpool_categorized_EN.txt	PIE	Desserts	11	7	[0, 0, 0]	n/a	catFR1	1	R1515T
767.997	0.866	778415	WORD_OFF	n/a	n/a	PIE	Desserts	11	7	[0, 0, 0]	n/a	catFR1	1	R1515T
768.863	1.6	779279	WORD	n/a	wordpools/wordpool_categorized_EN.txt	CAKE	Desserts	12	7	[0, 0, 0]	n/a	catFR1	1	R1515T
770.463	0.004	780880	WORD_OFF	n/a	n/a	CAKE	Desserts	12	7	[0, 0, 0]	n/a	catFR1	1	R1515T
770.467	0.0	780890	ENCODING_END	n/a	n/a	n/a	n/a	-999	7	[0, 0, 0]	n/a	catFR1	1	R1515T
770.467	0.0	780890	DISTRACT_START	n/a	n/a	n/a	n/a	-999	7	[0, 0, 0]	n/a	catFR1	1	R1515T
770.464	0.003	780890	PROB	4.549	n/a	n/a	n/a	-999	7	[8, 8, 2]	18.0	catFR1	1	R1515T
770.467	4.563	780893	START	n/a	n/a	n/a	n/a	-999	7	[-999, -999, -999]	n/a	catFR1	1	R1515T
775.03	4.05	785456	PROB	4.034	n/a	n/a	n/a	-999	7	[1, 1, 3]	5.0	catFR1	1	R1515T
779.08	10.135	789505	PROB	10.116	n/a	n/a	n/a	-999	7	[1, 4, 5]	10.0	catFR1	1	R1515T
789.215	13.437	799640	PROB	13.416	n/a	n/a	n/a	-999	7	[4, 8, 7]	19.0	catFR1	1	R1515T
802.652	0.0	813076	DISTRACT_END	n/a	n/a	n/a	n/a	-999	7	[0, 0, 0]	n/a	catFR1	1	R1515T
802.652	2.245	813076	STOP	n/a	n/a	n/a	n/a	-999	7	[-999, -999, -999]	n/a	catFR1	1	R1515T
804.897	1.094	815313	REC_START	n/a	n/a	n/a	n/a	-999	7	[0, 0, 0]	n/a	catFR1	1	R1515T
805.991	1.0	816415	REC_WORD_VV	1.094	n/a	<>	n/a	-999	7	[0, 0, 0]	n/a	catFR1	1	R1515T
806.991	0.679	817415	REC_WORD_VV	2.094	n/a	<>	n/a	-999	7	[0, 0, 0]	n/a	catFR1	1	R1515T
807.67	1.0	818094	REC_WORD	2.773	n/a	HURRICANE	Weather	3	7	[0, 0, 0]	n/a	catFR1	1	R1515T
808.67	0.054	819094	REC_WORD	3.773	n/a	HURRICANE	Weather	3	7	[0, 0, 0]	n/a	catFR1	1	R1515T
808.724	1.0	819148	REC_WORD	3.827	n/a	HUMIDITY	Weather	10	7	[0, 0, 0]	n/a	catFR1	1	R1515T
809.724	0.09	820148	REC_WORD	4.827	n/a	HUMIDITY	Weather	10	7	[0, 0, 0]	n/a	catFR1	1	R1515T
809.814	1.0	820238	REC_WORD	4.917	n/a	TORNADO	Weather	4	7	[0, 0, 0]	n/a	catFR1	1	R1515T
810.814	1.078	821238	REC_WORD	5.917	n/a	TORNADO	Weather	4	7	[0, 0, 0]	n/a	catFR1	1	R1515T
811.892	1.0	822316	REC_WORD_VV	6.995	n/a	<>	n/a	-999	7	[0, 0, 0]	n/a	catFR1	1	R1515T
812.892	3.44	823316	REC_WORD_VV	7.995	n/a	<>	n/a	-999	7	[0, 0, 0]	n/a	catFR1	1	R1515T
816.332	0.977	826755	REC_WORD_VV	11.435	n/a	<>	n/a	-999	7	[0, 0, 0]	n/a	catFR1	1	R1515T
817.309	1.242	827732	REC_WORD	12.412	n/a	CAKE	Desserts	12	7	[0, 0, 0]	n/a	catFR1	1	R1515T
818.551	1.0	828974	REC_WORD	13.654	n/a	PIE	Desserts	11	7	[0, 0, 0]	n/a	catFR1	1	R1515T
819.551	1.122	829974	REC_WORD	14.654	n/a	PIE	Desserts	11	7	[0, 0, 0]	n/a	catFR1	1	R1515T
820.673	1.0	831096	REC_WORD_VV	15.776	n/a	<>	n/a	-999	7	[0, 0, 0]	n/a	catFR1	1	R1515T
821.673	3.166	832096	REC_WORD_VV	16.776	n/a	<>	n/a	-999	7	[0, 0, 0]	n/a	catFR1	1	R1515T
824.839	1.0	835262	REC_WORD	19.942	n/a	COOKIE	Desserts	5	7	[0, 0, 0]	n/a	catFR1	1	R1515T
825.839	4.765	836262	REC_WORD	20.942	n/a	COOKIE	Desserts	5	7	[0, 0, 0]	n/a	catFR1	1	R1515T
830.604	3.354	841027	REC_WORD_VV	25.707	n/a	<>	n/a	-999	7	[0, 0, 0]	n/a	catFR1	1	R1515T
833.958	1.19	844381	REC_WORD_VV	29.061	n/a	<>	n/a	-999	7	[0, 0, 0]	n/a	catFR1	1	R1515T
835.148	14.682	845566	REC_END	n/a	n/a	n/a	n/a	-999	7	[0, 0, 0]	n/a	catFR1	1	R1515T
849.83	10.349	860250	COUNTDOWN_START	n/a	n/a	n/a	n/a	-999	8	[0, 0, 0]	n/a	catFR1	1	R1515T
860.179	0.0	870592	COUNTDOWN_END	n/a	n/a	n/a	n/a	-999	8	[0, 0, 0]	n/a	catFR1	1	R1515T
860.179	2.135	870602	ENCODING_START	n/a	n/a	n/a	n/a	-999	8	[0, 0, 0]	n/a	catFR1	1	R1515T
862.314	1.6	872733	WORD	n/a	wordpools/wordpool_categorized_EN.txt	PHONE	Electronics	1	8	[0, 0, 0]	n/a	catFR1	1	R1515T
863.914	0.916	874334	WORD_OFF	n/a	n/a	PHONE	Electronics	1	8	[0, 0, 0]	n/a	catFR1	1	R1515T
864.83	1.6	875247	WORD	n/a	wordpools/wordpool_categorized_EN.txt	SCANNER	Electronics	2	8	[0, 0, 0]	n/a	catFR1	1	R1515T
866.43	1.0	876848	WORD_OFF	n/a	n/a	SCANNER	Electronics	2	8	[0, 0, 0]	n/a	catFR1	1	R1515T
867.43	1.601	877850	WORD	n/a	wordpools/wordpool_categorized_EN.txt	ROSE	Flowers	3	8	[0, 0, 0]	n/a	catFR1	1	R1515T
869.031	0.949	879451	WORD_OFF	n/a	n/a	ROSE	Flowers	3	8	[0, 0, 0]	n/a	catFR1	1	R1515T
869.98	1.601	880394	WORD	n/a	wordpools/wordpool_categorized_EN.txt	DAFFODIL	Flowers	4	8	[0, 0, 0]	n/a	catFR1	1	R1515T
871.581	0.882	881995	WORD_OFF	n/a	n/a	DAFFODIL	Flowers	4	8	[0, 0, 0]	n/a	catFR1	1	R1515T
872.463	1.601	882879	WORD	n/a	wordpools/wordpool_categorized_EN.txt	CLOUD	Weather	5	8	[0, 0, 0]	n/a	catFR1	1	R1515T
874.064	0.833	884480	WORD_OFF	n/a	n/a	CLOUD	Weather	5	8	[0, 0, 0]	n/a	catFR1	1	R1515T
874.897	1.6	885315	WORD	n/a	wordpools/wordpool_categorized_EN.txt	DRIZZLE	Weather	6	8	[0, 0, 0]	n/a	catFR1	1	R1515T
876.497	0.933	886916	WORD_OFF	n/a	n/a	DRIZZLE	Weather	6	8	[0, 0, 0]	n/a	catFR1	1	R1515T
877.43	1.601	887849	WORD	n/a	wordpools/wordpool_categorized_EN.txt	MICROWAVE	Electronics	7	8	[0, 0, 0]	n/a	catFR1	1	R1515T
879.031	0.949	889450	WORD_OFF	n/a	n/a	MICROWAVE	Electronics	7	8	[0, 0, 0]	n/a	catFR1	1	R1515T
879.98	1.617	890393	WORD	n/a	wordpools/wordpool_categorized_EN.txt	COMPUTER	Electronics	8	8	[0, 0, 0]	n/a	catFR1	1	R1515T
881.597	1.0	892013	WORD_OFF	n/a	n/a	COMPUTER	Electronics	8	8	[0, 0, 0]	n/a	catFR1	1	R1515T
882.597	1.617	893015	WORD	n/a	wordpools/wordpool_categorized_EN.txt	LILAC	Flowers	9	8	[0, 0, 0]	n/a	catFR1	1	R1515T
884.214	0.816	894626	WORD_OFF	n/a	n/a	LILAC	Flowers	9	8	[0, 0, 0]	n/a	catFR1	1	R1515T
885.03	1.601	895441	WORD	n/a	wordpools/wordpool_categorized_EN.txt	VIOLET	Flowers	10	8	[0, 0, 0]	n/a	catFR1	1	R1515T
886.631	0.933	897042	WORD_OFF	n/a	n/a	VIOLET	Flowers	10	8	[0, 0, 0]	n/a	catFR1	1	R1515T
887.564	1.616	897975	WORD	n/a	wordpools/wordpool_categorized_EN.txt	SNOW	Weather	11	8	[0, 0, 0]	n/a	catFR1	1	R1515T
889.18	1.001	899596	WORD_OFF	n/a	n/a	SNOW	Weather	11	8	[0, 0, 0]	n/a	catFR1	1	R1515T
890.181	1.599	900597	WORD	n/a	wordpools/wordpool_categorized_EN.txt	THUNDERSTORM	Weather	12	8	[0, 0, 0]	n/a	catFR1	1	R1515T
891.78	0.002	902198	WORD_OFF	n/a	n/a	THUNDERSTORM	Weather	12	8	[0, 0, 0]	n/a	catFR1	1	R1515T
891.782	0.0	902198	ENCODING_END	n/a	n/a	n/a	n/a	-999	8	[0, 0, 0]	n/a	catFR1	1	R1515T
891.782	0.0	902198	DISTRACT_START	n/a	n/a	n/a	n/a	-999	8	[0, 0, 0]	n/a	catFR1	1	R1515T
891.781	0.001	902201	PROB	5.333	n/a	n/a	n/a	-999	8	[1, 5, 3]	9.0	catFR1	1	R1515T
891.782	5.348	902202	START	n/a	n/a	n/a	n/a	-999	8	[-999, -999, -999]	n/a	catFR1	1	R1515T
897.13	6.085	907549	PROB	6.067	n/a	n/a	n/a	-999	8	[3, 3, 7]	13.0	catFR1	1	R1515T
903.215	6.516	913634	PROB	6.499	n/a	n/a	n/a	-999	8	[8, 5, 3]	16.0	catFR1	1	R1515T
909.731	6.016	920150	PROB	6.0	n/a	n/a	n/a	-999	8	[5, 7, 7]	19.0	catFR1	1	R1515T
915.747	0.0	926164	DISTRACT_END	n/a	n/a	n/a	n/a	-999	8	[0, 0, 0]	n/a	catFR1	1	R1515T
915.747	2.05	926165	STOP	n/a	n/a	n/a	n/a	-999	8	[-999, -999, -999]	n/a	catFR1	1	R1515T
917.797	0.738	928214	REC_START	n/a	n/a	n/a	n/a	-999	8	[0, 0, 0]	n/a	catFR1	1	R1515T
918.535	0.603	928953	REC_WORD_VV	0.738	n/a	<>	n/a	-999	8	[0, 0, 0]	n/a	catFR1	1	R1515T
919.138	1.0	929556	REC_WORD	1.341	n/a	ROSE	Flowers	3	8	[0, 0, 0]	n/a	catFR1	1	R1515T
920.138	1.321	930556	REC_WORD	2.341	n/a	ROSE	Flowers	3	8	[0, 0, 0]	n/a	catFR1	1	R1515T
921.459	1.0	931877	REC_WORD	3.662	n/a	VIOLET	Flowers	10	8	[0, 0, 0]	n/a	catFR1	1	R1515T
922.459	0.387	932877	REC_WORD	4.662	n/a	VIOLET	Flowers	10	8	[0, 0, 0]	n/a	catFR1	1	R1515T
922.846	1.0	933264	REC_WORD	5.049	n/a	LILAC	Flowers	9	8	[0, 0, 0]	n/a	catFR1	1	R1515T
923.846	0.35	934264	REC_WORD	6.049	n/a	LILAC	Flowers	9	8	[0, 0, 0]	n/a	catFR1	1	R1515T
924.196	1.0	934614	REC_WORD	6.399	n/a	DAFFODIL	Flowers	4	8	[0, 0, 0]	n/a	catFR1	1	R1515T
925.196	1.113	935614	REC_WORD	7.399	n/a	DAFFODIL	Flowers	4	8	[0, 0, 0]	n/a	catFR1	1	R1515T
926.309	1.0	936727	REC_WORD	8.512	n/a	THUNDERSTORM	Weather	12	8	[0, 0, 0]	n/a	catFR1	1	R1515T
927.309	1.175	937727	REC_WORD	9.512	n/a	THUNDERSTORM	Weather	12	8	[0, 0, 0]	n/a	catFR1	1	R1515T
928.484	8.95	938902	REC_WORD_VV	10.687	n/a	<>	n/a	-999	8	[0, 0, 0]	n/a	catFR1	1	R1515T
937.434	1.005	947851	REC_WORD	19.637	n/a	HUMIDITY	Weather	-999	8	[0, 0, 0]	n/a	catFR1	1	R1515T
938.439	0.279	948856	REC_WORD	20.642	n/a	HUMIDITY	Weather	-999	8	[0, 0, 0]	n/a	catFR1	1	R1515T
938.718	1.0	949135	REC_WORD_VV	20.921	n/a	<>	n/a	-999	8	[0, 0, 0]	n/a	catFR1	1	R1515T
939.718	1.0	950135	REC_WORD_VV	21.921	n/a	<>	n/a	-999	8	[0, 0, 0]	n/a	catFR1	1	R1515T
940.718	7.302	951135	REC_WORD_VV	22.921	n/a	<>	n/a	-999	8	[0, 0, 0]	n/a	catFR1	1	R1515T
948.02	1.527	958428	REC_END	n/a	n/a	n/a	n/a	-999	8	[0, 0, 0]	n/a	catFR1	1	R1515T
949.547	10.349	959960	COUNTDOWN_START	n/a	n/a	n/a	n/a	-999	9	[0, 0, 0]	n/a	catFR1	1	R1515T
959.896	0.0	970312	COUNTDOWN_END	n/a	n/a	n/a	n/a	-999	9	[0, 0, 0]	n/a	catFR1	1	R1515T
959.896	2.017	970312	ENCODING_START	n/a	n/a	n/a	n/a	-999	9	[0, 0, 0]	n/a	catFR1	1	R1515T
961.913	1.6	972326	WORD	n/a	wordpools/wordpool_categorized_EN.txt	TIGER	Zoo	1	9	[0, 0, 0]	n/a	catFR1	1	R1515T
963.513	0.834	973927	WORD_OFF	n/a	n/a	TIGER	Zoo	1	9	[0, 0, 0]	n/a	catFR1	1	R1515T
964.347	1.617	974762	WORD	n/a	wordpools/wordpool_categorized_EN.txt	MONKEY	Zoo	2	9	[0, 0, 0]	n/a	catFR1	1	R1515T
965.964	0.783	976372	WORD_OFF	n/a	n/a	MONKEY	Zoo	2	9	[0, 0, 0]	n/a	catFR1	1	R1515T
966.747	1.617	977158	WORD	n/a	wordpools/wordpool_categorized_EN.txt	WALNUT	Trees	3	9	[0, 0, 0]	n/a	catFR1	1	R1515T
968.364	0.933	978779	WORD_OFF	n/a	n/a	WALNUT	Trees	3	9	[0, 0, 0]	n/a	catFR1	1	R1515T
969.297	1.6	979712	WORD	n/a	wordpools/wordpool_categorized_EN.txt	MAPLE	Trees	4	9	[0, 0, 0]	n/a	catFR1	1	R1515T
970.897	0.783	981313	WORD_OFF	n/a	n/a	MAPLE	Trees	4	9	[0, 0, 0]	n/a	catFR1	1	R1515T
971.68	1.6	982089	WORD	n/a	wordpools/wordpool_categorized_EN.txt	TEA	Beverages	5	9	[0, 0, 0]	n/a	catFR1	1	R1515T
973.28	0.901	983690	WORD_OFF	n/a	n/a	TEA	Beverages	5	9	[0, 0, 0]	n/a	catFR1	1	R1515T
974.181	1.599	984593	WORD	n/a	wordpools/wordpool_categorized_EN.txt	LEMONADE	Beverages	6	9	[0, 0, 0]	n/a	catFR1	1	R1515T
975.78	0.851	986194	WORD_OFF	n/a	n/a	LEMONADE	Beverages	6	9	[0, 0, 0]	n/a	catFR1	1	R1515T
976.631	1.6	987039	WORD	n/a	wordpools/wordpool_categorized_EN.txt	LION	Zoo	7	9	[0, 0, 0]	n/a	catFR1	1	R1515T
978.231	0.932	988640	WORD_OFF	n/a	n/a	LION	Zoo	7	9	[0, 0, 0]	n/a	catFR1	1	R1515T
979.163	1.601	989573	WORD	n/a	wordpools/wordpool_categorized_EN.txt	GIRAFFE	Zoo	8	9	[0, 0, 0]	n/a	catFR1	1	R1515T
980.764	1.0	991174	WORD_OFF	n/a	n/a	GIRAFFE	Zoo	8	9	[0, 0, 0]	n/a	catFR1	1	R1515T
981.764	1.6	992176	WORD	n/a	wordpools/wordpool_categorized_EN.txt	COFFEE	Beverages	9	9	[0, 0, 0]	n/a	catFR1	1	R1515T
983.364	0.799	993777	WORD_OFF	n/a	n/a	COFFEE	Beverages	9	9	[0, 0, 0]	n/a	catFR1	1	R1515T
984.163	1.618	994572	WORD	n/a	wordpools/wordpool_categorized_EN.txt	CIDER	Beverages	10	9	[0, 0, 0]	n/a	catFR1	1	R1515T
985.781	0.833	996193	WORD_OFF	n/a	n/a	CIDER	Beverages	10	9	[0, 0, 0]	n/a	catFR1	1	R1515T
986.614	1.6	997028	WORD	n/a	wordpools/wordpool_categorized_EN.txt	BIRCH	Trees	11	9	[0, 0, 0]	n/a	catFR1	1	R1515T
988.214	0.765	998629	WORD_OFF	n/a	n/a	BIRCH	Trees	11	9	[0, 0, 0]	n/a	catFR1	1	R1515T
988.979	1.601	999395	WORD	n/a	wordpools/wordpool_categorized_EN.txt	EVERGREEN	Trees	12	9	[0, 0, 0]	n/a	catFR1	1	R1515T
990.58	0.001	1000986	WORD_OFF	n/a	n/a	EVERGREEN	Trees	12	9	[0, 0, 0]	n/a	catFR1	1	R1515T
990.581	0.002	1000995	PROB	7.183	n/a	n/a	n/a	-999	9	[7, 4, 8]	19.0	catFR1	1	R1515T
990.583	0.0	1000996	ENCODING_END	n/a	n/a	n/a	n/a	-999	9	[0, 0, 0]	n/a	catFR1	1	R1515T
990.583	0.0	1000996	DISTRACT_START	n/a	n/a	n/a	n/a	-999	9	[0, 0, 0]	n/a	catFR1	1	R1515T
990.583	7.197	1000997	START	n/a	n/a	n/a	n/a	-999	9	[-999, -999, -999]	n/a	catFR1	1	R1515T
997.78	3.634	1008194	PROB	3.616	n/a	n/a	n/a	-999	9	[6, 1, 6]	13.0	catFR1	1	R1515T
1001.414	2.599	1011828	PROB	2.583	n/a	n/a	n/a	-999	9	[1, 3, 1]	5.0	catFR1	1	R1515T
1004.013	7.234	1014427	PROB	7.217	n/a	n/a	n/a	-999	9	[2, 3, 8]	13.0	catFR1	1	R1515T
1011.247	0.0	1021651	DISTRACT_END	n/a	n/a	n/a	n/a	-999	9	[0, 0, 0]	n/a	catFR1	1	R1515T
1011.247	2.383	1021660	STOP	n/a	n/a	n/a	n/a	-999	9	[-999, -999, -999]	n/a	catFR1	1	R1515T
1013.63	0.255	1024036	REC_START	n/a	n/a	n/a	n/a	-999	9	[0, 0, 0]	n/a	catFR1	1	R1515T
1013.885	0.736	1024298	REC_WORD	0.255	n/a	BIRCH	Trees	11	9	[0, 0, 0]	n/a	catFR1	1	R1515T
1014.621	0.776	1025034	REC_WORD	0.991	n/a	EVERGREEN	Trees	12	9	[0, 0, 0]	n/a	catFR1	1	R1515T
1015.397	1.0	1025810	REC_WORD	1.767	n/a	MAPLE	Trees	4	9	[0, 0, 0]	n/a	catFR1	1	R1515T
1016.397	0.898	1026810	REC_WORD	2.767	n/a	MAPLE	Trees	4	9	[0, 0, 0]	n/a	catFR1	1	R1515T
1017.295	1.0	1027708	REC_WORD	3.665	n/a	LION	Zoo	7	9	[0, 0, 0]	n/a	catFR1	1	R1515T
1018.295	0.111	1028708	REC_WORD	4.665	n/a	LION	Zoo	7	9	[0, 0, 0]	n/a	catFR1	1	R1515T
1018.406	1.0	1028819	REC_WORD	4.776	n/a	TIGER	Zoo	1	9	[0, 0, 0]	n/a	catFR1	1	R1515T
1019.406	1.593	1029819	REC_WORD	5.776	n/a	TIGER	Zoo	1	9	[0, 0, 0]	n/a	catFR1	1	R1515T
1020.999	0.83	1031412	REC_WORD_VV	7.369	n/a	<>	n/a	-999	9	[0, 0, 0]	n/a	catFR1	1	R1515T
1021.829	1.0	1032242	REC_WORD	8.199	n/a	MONKEY	Zoo	2	9	[0, 0, 0]	n/a	catFR1	1	R1515T
1022.829	1.357	1033242	REC_WORD	9.199	n/a	MONKEY	Zoo	2	9	[0, 0, 0]	n/a	catFR1	1	R1515T
1024.186	0.68	1034599	REC_WORD_VV	10.556	n/a	<>	n/a	-999	9	[0, 0, 0]	n/a	catFR1	1	R1515T
1024.866	1.0	1035279	REC_WORD	11.236	n/a	CIDER	Beverages	10	9	[0, 0, 0]	n/a	catFR1	1	R1515T
1025.866	0.06	1036279	REC_WORD	12.236	n/a	CIDER	Beverages	10	9	[0, 0, 0]	n/a	catFR1	1	R1515T
1025.926	1.0	1036339	REC_WORD	12.296	n/a	COFFEE	Beverages	9	9	[0, 0, 0]	n/a	catFR1	1	R1515T
1026.926	0.836	1037339	REC_WORD	13.296	n/a	COFFEE	Beverages	9	9	[0, 0, 0]	n/a	catFR1	1	R1515T
1027.762	8.732	1038175	REC_WORD	14.132	n/a	TEA	Beverages	5	9	[0, 0, 0]	n/a	catFR1	1	R1515T
1036.494	1.0	1046906	REC_WORD	22.864	n/a	EVERGREEN	Trees	12	9	[0, 0, 0]	n/a	catFR1	1	R1515T
1037.494	6.37	1047906	REC_WORD	23.864	n/a	EVERGREEN	Trees	12	9	[0, 0, 0]	n/a	catFR1	1	R1515T
1043.864	2.182	1054269	REC_END	n/a	n/a	n/a	n/a	-999	9	[0, 0, 0]	n/a	catFR1	1	R1515T
1046.046	10.351	1056459	COUNTDOWN_START	n/a	n/a	n/a	n/a	-999	10	[0, 0, 0]	n/a	catFR1	1	R1515T
1056.397	0.0	1066802	COUNTDOWN_END	n/a	n/a	n/a	n/a	-999	10	[0, 0, 0]	n/a	catFR1	1	R1515T
1056.397	2.0	1066802	ENCODING_START	n/a	n/a	n/a	n/a	-999	10	[0, 0, 0]	n/a	catFR1	1	R1515T
1058.397	1.6	1068805	WORD	n/a	wordpools/wordpool_categorized_EN.txt	HEN	FarmAnimals	1	10	[0, 0, 0]	n/a	catFR1	1	R1515T
1059.997	0.982	1070406	WORD_OFF	n/a	n/a	HEN	FarmAnimals	1	10	[0, 0, 0]	n/a	catFR1	1	R1515T
1060.979	1.601	1071388	WORD	n/a	wordpools/wordpool_categorized_EN.txt	SHEEP	FarmAnimals	2	10	[0, 0, 0]	n/a	catFR1	1	R1515T
1062.58	0.817	1072989	WORD_OFF	n/a	n/a	SHEEP	FarmAnimals	2	10	[0, 0, 0]	n/a	catFR1	1	R1515T
1063.397	1.6	1073804	WORD	n/a	wordpools/wordpool_categorized_EN.txt	PIANO	Instruments	3	10	[0, 0, 0]	n/a	catFR1	1	R1515T
1064.997	0.984	1075405	WORD_OFF	n/a	n/a	PIANO	Instruments	3	10	[0, 0, 0]	n/a	catFR1	1	R1515T
1065.981	1.599	1076388	WORD	n/a	wordpools/wordpool_categorized_EN.txt	BANJO	Instruments	4	10	[0, 0, 0]	n/a	catFR1	1	R1515T
1067.58	0.884	1077989	WORD_OFF	n/a	n/a	BANJO	Instruments	4	10	[0, 0, 0]	n/a	catFR1	1	R1515T
1068.464	1.6	1078872	WORD	n/a	wordpools/wordpool_categorized_EN.txt	ORCHID	Flowers	5	10	[0, 0, 0]	n/a	catFR1	1	R1515T
1070.064	0.883	1080473	WORD_OFF	n/a	n/a	ORCHID	Flowers	5	10	[0, 0, 0]	n/a	catFR1	1	R1515T
1070.947	1.617	1081357	WORD	n/a	wordpools/wordpool_categorized_EN.txt	LILY	Flowers	6	10	[0, 0, 0]	n/a	catFR1	1	R1515T
1072.564	0.833	1082968	WORD_OFF	n/a	n/a	LILY	Flowers	6	10	[0, 0, 0]	n/a	catFR1	1	R1515T
1073.397	1.6	1083803	WORD	n/a	wordpools/wordpool_categorized_EN.txt	ORGAN	Instruments	7	10	[0, 0, 0]	n/a	catFR1	1	R1515T
1074.997	0.95	1085404	WORD_OFF	n/a	n/a	ORGAN	Instruments	7	10	[0, 0, 0]	n/a	catFR1	1	R1515T
1075.947	1.617	1086357	WORD	n/a	wordpools/wordpool_categorized_EN.txt	TROMBONE	Instruments	8	10	[0, 0, 0]	n/a	catFR1	1	R1515T
1077.564	0.766	1087967	WORD_OFF	n/a	n/a	TROMBONE	Instruments	8	10	[0, 0, 0]	n/a	catFR1	1	R1515T
1078.33	1.6	1088734	WORD	n/a	wordpools/wordpool_categorized_EN.txt	CARNATION	Flowers	9	10	[0, 0, 0]	n/a	catFR1	1	R1515T
1079.93	0.8	1090334	WORD_OFF	n/a	n/a	CARNATION	Flowers	9	10	[0, 0, 0]	n/a	catFR1	1	R1515T
1080.73	1.617	1091140	WORD	n/a	wordpools/wordpool_categorized_EN.txt	DAISY	Flowers	10	10	[0, 0, 0]	n/a	catFR1	1	R1515T
1082.347	0.784	1092751	WORD_OFF	n/a	n/a	DAISY	Flowers	10	10	[0, 0, 0]	n/a	catFR1	1	R1515T
1083.131	1.615	1093536	WORD	n/a	wordpools/wordpool_categorized_EN.txt	LAMB	FarmAnimals	11	10	[0, 0, 0]	n/a	catFR1	1	R1515T
1084.746	0.834	1095147	WORD_OFF	n/a	n/a	LAMB	FarmAnimals	11	10	[0, 0, 0]	n/a	catFR1	1	R1515T
1085.58	1.6	1095982	WORD	n/a	wordpools/wordpool_categorized_EN.txt	CALF	FarmAnimals	12	10	[0, 0, 0]	n/a	catFR1	1	R1515T
1087.18	0.001	1097583	WORD_OFF	n/a	n/a	CALF	FarmAnimals	12	10	[0, 0, 0]	n/a	catFR1	1	R1515T
1087.181	0.003	1097591	PROB	3.7	n/a	n/a	n/a	-999	10	[1, 2, 6]	9.0	catFR1	1	R1515T
1087.184	0.0	1097593	ENCODING_END	n/a	n/a	n/a	n/a	-999	10	[0, 0, 0]	n/a	catFR1	1	R1515T
1087.184	0.0	1097593	DISTRACT_START	n/a	n/a	n/a	n/a	-999	10	[0, 0, 0]	n/a	catFR1	1	R1515T
1087.184	3.714	1097594	START	n/a	n/a	n/a	n/a	-999	10	[-999, -999, -999]	n/a	catFR1	1	R1515T
1090.898	3.515	1101307	PROB	3.499	n/a	n/a	n/a	-999	10	[1, 4, 4]	9.0	catFR1	1	R1515T
1094.413	4.668	1104822	PROB	4.65	n/a	n/a	n/a	-999	10	[6, 1, 7]	14.0	catFR1	1	R1515T
1099.081	6.117	1109490	PROB	6.099	n/a	n/a	n/a	-999	10	[3, 2, 5]	10.0	catFR1	1	R1515T
1105.198	4.266	1115607	PROB	4.249	n/a	n/a	n/a	-999	10	[3, 3, 6]	12.0	catFR1	1	R1515T
1109.464	0.0	1119869	DISTRACT_END	n/a	n/a	n/a	n/a	-999	10	[0, 0, 0]	n/a	catFR1	1	R1515T
1109.464	2.066	1119872	STOP	n/a	n/a	n/a	n/a	-999	10	[-999, -999, -999]	n/a	catFR1	1	R1515T
1111.53	1.673	1121939	REC_START	n/a	n/a	n/a	n/a	-999	10	[0, 0, 0]	n/a	catFR1	1	R1515T
1113.203	1.0	1123611	REC_WORD_VV	1.673	n/a	<>	n/a	-999	10	[0, 0, 0]	n/a	catFR1	1	R1515T
1114.203	0.426	1124611	REC_WORD_VV	2.673	n/a	<>	n/a	-999	10	[0, 0, 0]	n/a	catFR1	1	R1515T
1114.629	1.0	1125037	REC_WORD	3.099	n/a	PIANO	Instruments	3	10	[0, 0, 0]	n/a	catFR1	1	R1515T
1115.629	0.402	1126037	REC_WORD	4.099	n/a	PIANO	Instruments	3	10	[0, 0, 0]	n/a	catFR1	1	R1515T
1116.031	1.0	1126439	REC_WORD	4.501	n/a	ORGAN	Instruments	7	10	[0, 0, 0]	n/a	catFR1	1	R1515T
1117.031	0.929	1127439	REC_WORD	5.501	n/a	ORGAN	Instruments	7	10	[0, 0, 0]	n/a	catFR1	1	R1515T
1117.96	1.0	1128368	REC_WORD	6.43	n/a	BANJO	Instruments	4	10	[0, 0, 0]	n/a	catFR1	1	R1515T
1118.96	2.818	1129368	REC_WORD	7.43	n/a	BANJO	Instruments	4	10	[0, 0, 0]	n/a	catFR1	1	R1515T
1121.778	1.0	1132186	REC_WORD_VV	10.248	n/a	<>	n/a	-999	10	[0, 0, 0]	n/a	catFR1	1	R1515T
1122.778	4.401	1133186	REC_WORD_VV	11.248	n/a	<>	n/a	-999	10	[0, 0, 0]	n/a	catFR1	1	R1515T
1127.179	1.0	1137587	REC_WORD	15.649	n/a	LILY	Flowers	6	10	[0, 0, 0]	n/a	catFR1	1	R1515T
1128.179	0.646	1138586	REC_WORD	16.649	n/a	LILY	Flowers	6	10	[0, 0, 0]	n/a	catFR1	1	R1515T
1128.825	1.0	1139232	REC_WORD	17.295	n/a	ORCHID	Flowers	5	10	[0, 0, 0]	n/a	catFR1	1	R1515T
1129.825	2.659	1140232	REC_WORD	18.295	n/a	ORCHID	Flowers	5	10	[0, 0, 0]	n/a	catFR1	1	R1515T
1132.484	1.0	1142891	REC_WORD	20.954	n/a	DAISY	Flowers	10	10	[0, 0, 0]	n/a	catFR1	1	R1515T
1133.484	4.586	1143891	REC_WORD	21.954	n/a	DAISY	Flowers	10	10	[0, 0, 0]	n/a	catFR1	1	R1515T
1138.07	1.0	1148477	REC_WORD_VV	26.54	n/a	<>	n/a	-999	10	[0, 0, 0]	n/a	catFR1	1	R1515T
1139.07	1.347	1149477	REC_WORD_VV	27.54	n/a	<>	n/a	-999	10	[0, 0, 0]	n/a	catFR1	1	R1515T
1140.417	0.345	1150824	REC_WORD_VV	28.887	n/a	<>	n/a	-999	10	[0, 0, 0]	n/a	catFR1	1	R1515T
1140.762	0.987	1151169	REC_WORD	29.232	n/a	ROSE	Flowers	-999	10	[0, 0, 0]	n/a	catFR1	1	R1515T
1141.749	2.682	1152153	REC_END	n/a	n/a	n/a	n/a	-999	10	[0, 0, 0]	n/a	catFR1	1	R1515T
1144.431	10.349	1154834	COUNTDOWN_START	n/a	n/a	n/a	n/a	-999	11	[0, 0, 0]	n/a	catFR1	1	R1515T
1154.78	0.0	1165186	COUNTDOWN_END	n/a	n/a	n/a	n/a	-999	11	[0, 0, 0]	n/a	catFR1	1	R1515T
1154.78	2.051	1165186	ENCODING_START	n/a	n/a	n/a	n/a	-999	11	[0, 0, 0]	n/a	catFR1	1	R1515T
1156.831	1.599	1167229	WORD	n/a	wordpools/wordpool_categorized_EN.txt	HAWK	Birds	1	11	[0, 0, 0]	n/a	catFR1	1	R1515T
1158.43	0.8	1168830	WORD_OFF	n/a	n/a	HAWK	Birds	1	11	[0, 0, 0]	n/a	catFR1	1	R1515T
1159.23	1.6	1169636	WORD	n/a	wordpools/wordpool_categorized_EN.txt	PIGEON	Birds	2	11	[0, 0, 0]	n/a	catFR1	1	R1515T
1160.83	0.784	1171236	WORD_OFF	n/a	n/a	PIGEON	Birds	2	11	[0, 0, 0]	n/a	catFR1	1	R1515T
1161.614	1.616	1172012	WORD	n/a	wordpools/wordpool_categorized_EN.txt	TOE	BodyParts	3	11	[0, 0, 0]	n/a	catFR1	1	R1515T
1163.23	0.934	1173633	WORD_OFF	n/a	n/a	TOE	BodyParts	3	11	[0, 0, 0]	n/a	catFR1	1	R1515T
1164.164	1.6	1174566	WORD	n/a	wordpools/wordpool_categorized_EN.txt	KNEE	BodyParts	4	11	[0, 0, 0]	n/a	catFR1	1	R1515T
1165.764	0.999	1176167	WORD_OFF	n/a	n/a	KNEE	BodyParts	4	11	[0, 0, 0]	n/a	catFR1	1	R1515T
1166.763	1.601	1177169	WORD	n/a	wordpools/wordpool_categorized_EN.txt	COLA	Beverages	5	11	[0, 0, 0]	n/a	catFR1	1	R1515T
1168.364	0.766	1178760	WORD_OFF	n/a	n/a	COLA	Beverages	5	11	[0, 0, 0]	n/a	catFR1	1	R1515T
1169.13	1.6	1179526	WORD	n/a	wordpools/wordpool_categorized_EN.txt	WINE	Beverages	6	11	[0, 0, 0]	n/a	catFR1	1	R1515T
1170.73	0.867	1181127	WORD_OFF	n/a	n/a	WINE	Beverages	6	11	[0, 0, 0]	n/a	catFR1	1	R1515T
1171.597	1.6	1182001	WORD	n/a	wordpools/wordpool_categorized_EN.txt	ARM	BodyParts	7	11	[0, 0, 0]	n/a	catFR1	1	R1515T
1173.197	0.95	1183602	WORD_OFF	n/a	n/a	ARM	BodyParts	7	11	[0, 0, 0]	n/a	catFR1	1	R1515T
1174.147	1.6	1184545	WORD	n/a	wordpools/wordpool_categorized_EN.txt	EYE	BodyParts	8	11	[0, 0, 0]	n/a	catFR1	1	R1515T
1175.747	0.933	1186146	WORD_OFF	n/a	n/a	EYE	BodyParts	8	11	[0, 0, 0]	n/a	catFR1	1	R1515T
1176.68	1.6	1187079	WORD	n/a	wordpools/wordpool_categorized_EN.txt	GOOSE	Birds	9	11	[0, 0, 0]	n/a	catFR1	1	R1515T
1178.28	0.916	1188680	WORD_OFF	n/a	n/a	GOOSE	Birds	9	11	[0, 0, 0]	n/a	catFR1	1	R1515T
1179.196	1.601	1189593	WORD	n/a	wordpools/wordpool_categorized_EN.txt	DOVE	Birds	10	11	[0, 0, 0]	n/a	catFR1	1	R1515T
1180.797	0.916	1191194	WORD_OFF	n/a	n/a	DOVE	Birds	10	11	[0, 0, 0]	n/a	catFR1	1	R1515T
1181.713	1.6	1192118	WORD	n/a	wordpools/wordpool_categorized_EN.txt	MILK	Beverages	11	11	[0, 0, 0]	n/a	catFR1	1	R1515T
1183.313	0.801	1193709	WORD_OFF	n/a	n/a	MILK	Beverages	11	11	[0, 0, 0]	n/a	catFR1	1	R1515T
1184.114	1.6	1194514	WORD	n/a	wordpools/wordpool_categorized_EN.txt	RUM	Beverages	12	11	[0, 0, 0]	n/a	catFR1	1	R1515T
1185.714	0.003	1196115	WORD_OFF	n/a	n/a	RUM	Beverages	12	11	[0, 0, 0]	n/a	catFR1	1	R1515T
1185.717	0.0	1196115	ENCODING_END	n/a	n/a	n/a	n/a	-999	11	[0, 0, 0]	n/a	catFR1	1	R1515T
1185.717	0.0	1196115	DISTRACT_START	n/a	n/a	n/a	n/a	-999	11	[0, 0, 0]	n/a	catFR1	1	R1515T
1185.714	0.003	1196118	PROB	6.433	n/a	n/a	n/a	-999	11	[1, 4, 8]	13.0	catFR1	1	R1515T
1185.717	6.447	1196121	START	n/a	n/a	n/a	n/a	-999	11	[-999, -999, -999]	n/a	catFR1	1	R1515T
1192.164	3.749	1202568	PROB	3.733	n/a	n/a	n/a	-999	11	[1, 2, 8]	11.0	catFR1	1	R1515T
1195.913	8.732	1206317	PROB	8.715	n/a	n/a	n/a	-999	11	[4, 8, 6]	18.0	catFR1	1	R1515T
1204.645	12.937	1215048	PROB	12.918	n/a	n/a	n/a	-999	11	[5, 8, 6]	19.0	catFR1	1	R1515T
1217.582	0.0	1227977	DISTRACT_END	n/a	n/a	n/a	n/a	-999	11	[0, 0, 0]	n/a	catFR1	1	R1515T
1217.582	2.298	1227985	STOP	n/a	n/a	n/a	n/a	-999	11	[-999, -999, -999]	n/a	catFR1	1	R1515T
1219.88	0.263	1230283	REC_START	n/a	n/a	n/a	n/a	-999	11	[0, 0, 0]	n/a	catFR1	1	R1515T
1220.143	1.0	1230546	REC_WORD	0.263	n/a	RUM	Beverages	12	11	[0, 0, 0]	n/a	catFR1	1	R1515T
1221.143	2.263	1231546	REC_WORD	1.263	n/a	RUM	Beverages	12	11	[0, 0, 0]	n/a	catFR1	1	R1515T
1223.406	1.0	1233809	REC_WORD	3.526	n/a	COKE	n/a	-999	11	[0, 0, 0]	n/a	catFR1	1	R1515T
1224.406	1.1	1234809	REC_WORD	4.526	n/a	COKE	n/a	-999	11	[0, 0, 0]	n/a	catFR1	1	R1515T
1225.506	1.0	1235908	REC_WORD	5.626	n/a	ARM	BodyParts	7	11	[0, 0, 0]	n/a	catFR1	1	R1515T
1226.506	0.854	1236908	REC_WORD	6.626	n/a	ARM	BodyParts	7	11	[0, 0, 0]	n/a	catFR1	1	R1515T
1227.36	1.0	1237762	REC_WORD	7.48	n/a	TOE	BodyParts	3	11	[0, 0, 0]	n/a	catFR1	1	R1515T
1228.36	14.591	1238762	REC_WORD	8.48	n/a	TOE	BodyParts	3	11	[0, 0, 0]	n/a	catFR1	1	R1515T
1242.951	1.0	1253353	REC_WORD_VV	23.071	n/a	<>	n/a	-999	11	[0, 0, 0]	n/a	catFR1	1	R1515T
1243.951	6.171	1254353	REC_WORD_VV	24.071	n/a	<>	n/a	-999	11	[0, 0, 0]	n/a	catFR1	1	R1515T
1250.122	1.825	1260516	REC_END	n/a	n/a	n/a	n/a	-999	11	[0, 0, 0]	n/a	catFR1	1	R1515T
1251.947	10.349	1262343	COUNTDOWN_START	n/a	n/a	n/a	n/a	-999	12	[0, 0, 0]	n/a	catFR1	1	R1515T
1262.296	0.0	1272695	COUNTDOWN_END	n/a	n/a	n/a	n/a	-999	12	[0, 0, 0]	n/a	catFR1	1	R1515T
1262.296	1.834	1272695	ENCODING_START	n/a	n/a	n/a	n/a	-999	12	[0, 0, 0]	n/a	catFR1	1	R1515T
1264.13	1.601	1274522	WORD	n/a	wordpools/wordpool_categorized_EN.txt	DUCK	Birds	1	12	[0, 0, 0]	n/a	catFR1	1	R1515T
1265.731	0.899	1276123	WORD_OFF	n/a	n/a	DUCK	Birds	1	12	[0, 0, 0]	n/a	catFR1	1	R1515T
1266.63	1.601	1277027	WORD	n/a	wordpools/wordpool_categorized_EN.txt	FINCH	Birds	2	12	[0, 0, 0]	n/a	catFR1	1	R1515T
1268.231	0.916	1278628	WORD_OFF	n/a	n/a	FINCH	Birds	2	12	[0, 0, 0]	n/a	catFR1	1	R1515T
1269.147	1.6	1279541	WORD	n/a	wordpools/wordpool_categorized_EN.txt	FOOT	BodyParts	3	12	[0, 0, 0]	n/a	catFR1	1	R1515T
1270.747	0.867	1281142	WORD_OFF	n/a	n/a	FOOT	BodyParts	3	12	[0, 0, 0]	n/a	catFR1	1	R1515T
1271.614	1.6	1282006	WORD	n/a	wordpools/wordpool_categorized_EN.txt	HAND	BodyParts	4	12	[0, 0, 0]	n/a	catFR1	1	R1515T
1273.214	0.983	1283607	WORD_OFF	n/a	n/a	HAND	BodyParts	4	12	[0, 0, 0]	n/a	catFR1	1	R1515T
1274.197	1.601	1284590	WORD	n/a	wordpools/wordpool_categorized_EN.txt	ELM	Trees	5	12	[0, 0, 0]	n/a	catFR1	1	R1515T
1275.798	0.884	1286191	WORD_OFF	n/a	n/a	ELM	Trees	5	12	[0, 0, 0]	n/a	catFR1	1	R1515T
1276.682	1.615	1287074	WORD	n/a	wordpools/wordpool_categorized_EN.txt	PINE	Trees	6	12	[0, 0, 0]	n/a	catFR1	1	R1515T
1278.297	0.883	1288695	WORD_OFF	n/a	n/a	PINE	Trees	6	12	[0, 0, 0]	n/a	catFR1	1	R1515T
1279.18	1.6	1289579	WORD	n/a	wordpools/wordpool_categorized_EN.txt	NOSE	BodyParts	7	12	[0, 0, 0]	n/a	catFR1	1	R1515T
1280.78	1.0	1291180	WORD_OFF	n/a	n/a	NOSE	BodyParts	7	12	[0, 0, 0]	n/a	catFR1	1	R1515T
1281.78	1.6	1292172	WORD	n/a	wordpools/wordpool_categorized_EN.txt	LEG	BodyParts	8	12	[0, 0, 0]	n/a	catFR1	1	R1515T
1283.38	0.901	1293773	WORD_OFF	n/a	n/a	LEG	BodyParts	8	12	[0, 0, 0]	n/a	catFR1	1	R1515T
1284.281	1.599	1294677	WORD	n/a	wordpools/wordpool_categorized_EN.txt	SPRUCE	Trees	9	12	[0, 0, 0]	n/a	catFR1	1	R1515T
1285.88	0.918	1296277	WORD_OFF	n/a	n/a	SPRUCE	Trees	9	12	[0, 0, 0]	n/a	catFR1	1	R1515T
1286.798	1.599	1297191	WORD	n/a	wordpools/wordpool_categorized_EN.txt	CEDAR	Trees	10	12	[0, 0, 0]	n/a	catFR1	1	R1515T
1288.397	0.817	1298792	WORD_OFF	n/a	n/a	CEDAR	Trees	10	12	[0, 0, 0]	n/a	catFR1	1	R1515T
1289.214	1.6	1299607	WORD	n/a	wordpools/wordpool_categorized_EN.txt	SEAGULL	Birds	11	12	[0, 0, 0]	n/a	catFR1	1	R1515T
1290.814	0.984	1301208	WORD_OFF	n/a	n/a	SEAGULL	Birds	11	12	[0, 0, 0]	n/a	catFR1	1	R1515T
1291.798	1.599	1302190	WORD	n/a	wordpools/wordpool_categorized_EN.txt	BLUEBIRD	Birds	12	12	[0, 0, 0]	n/a	catFR1	1	R1515T
1293.397	0.002	1303791	WORD_OFF	n/a	n/a	BLUEBIRD	Birds	12	12	[0, 0, 0]	n/a	catFR1	1	R1515T
1293.399	0.0	1303791	ENCODING_END	n/a	n/a	n/a	n/a	-999	12	[0, 0, 0]	n/a	catFR1	1	R1515T
1293.397	0.002	1303796	PROB	5.049	n/a	n/a	n/a	-999	12	[1, 6, 6]	13.0	catFR1	1	R1515T
1293.399	0.0	1303798	START	n/a	n/a	n/a	n/a	-999	12	[-999, -999, -999]	n/a	catFR1	1	R1515T
1293.399	5.065	1303801	DISTRACT_START	n/a	n/a	n/a	n/a	-999	12	[0, 0, 0]	n/a	catFR1	1	R1515T
1298.464	4.433	1308863	PROB	4.416	n/a	n/a	n/a	-999	12	[2, 3, 4]	9.0	catFR1	1	R1515T
1302.897	4.016	1313295	PROB	3.999	n/a	n/a	n/a	-999	12	[4, 8, 1]	13.0	catFR1	1	R1515T
1306.913	2.701	1317311	PROB	2.683	n/a	n/a	n/a	-999	12	[7, 1, 1]	9.0	catFR1	1	R1515T
1309.614	4.117	1320012	PROB	4.1	n/a	n/a	n/a	-999	12	[8, 8, 3]	19.0	catFR1	1	R1515T
1313.731	0.0	1324122	DISTRACT_END	n/a	n/a	n/a	n/a	-999	12	[0, 0, 0]	n/a	catFR1	1	R1515T
1313.731	2.099	1324129	STOP	n/a	n/a	n/a	n/a	-999	12	[-999, -999, -999]	n/a	catFR1	1	R1515T
1315.83	1.831	1326222	REC_START	n/a	n/a	n/a	n/a	-999	12	[0, 0, 0]	n/a	catFR1	1	R1515T
1317.661	0.317	1328059	REC_WORD_VV	1.831	n/a	<>	n/a	-999	12	[0, 0, 0]	n/a	catFR1	1	R1515T
1317.978	1.0	1328376	REC_WORD	2.148	n/a	ELM	Trees	5	12	[0, 0, 0]	n/a	catFR1	1	R1515T
1318.978	0.195	1329376	REC_WORD	3.148	n/a	ELM	Trees	5	12	[0, 0, 0]	n/a	catFR1	1	R1515T
1319.173	0.487	1329571	REC_WORD_VV	3.343	n/a	<>	n/a	-999	12	[0, 0, 0]	n/a	catFR1	1	R1515T
1319.66	1.0	1330058	REC_WORD	3.83	n/a	PINE	Trees	6	12	[0, 0, 0]	n/a	catFR1	1	R1515T
1320.66	1.216	1331058	REC_WORD	4.83	n/a	PINE	Trees	6	12	[0, 0, 0]	n/a	catFR1	1	R1515T
1321.876	0.499	1332274	REC_WORD_VV	6.046	n/a	<>	n/a	-999	12	[0, 0, 0]	n/a	catFR1	1	R1515T
1322.375	1.0	1332772	REC_WORD	6.545	n/a	SEAGULL	Birds	11	12	[0, 0, 0]	n/a	catFR1	1	R1515T
1323.375	1.458	1333772	REC_WORD	7.545	n/a	SEAGULL	Birds	11	12	[0, 0, 0]	n/a	catFR1	1	R1515T
1324.833	0.399	1335230	REC_WORD_VV	9.003	n/a	<>	n/a	-999	12	[0, 0, 0]	n/a	catFR1	1	R1515T
1325.232	2.105	1335629	REC_WORD	9.402	n/a	DUCK	Birds	1	12	[0, 0, 0]	n/a	catFR1	1	R1515T
1327.337	0.348	1337734	REC_WORD_VV	11.507	n/a	<>	n/a	-999	12	[0, 0, 0]	n/a	catFR1	1	R1515T
1327.685	0.694	1338082	REC_WORD	11.855	n/a	LEG	BodyParts	8	12	[0, 0, 0]	n/a	catFR1	1	R1515T
1328.379	0.381	1338776	REC_WORD_VV	12.549	n/a	<>	n/a	-999	12	[0, 0, 0]	n/a	catFR1	1	R1515T
1328.76	3.132	1339157	REC_WORD	12.93	n/a	ARM	BodyParts	-999	12	[0, 0, 0]	n/a	catFR1	1	R1515T
1331.892	1.0	1342289	REC_WORD_VV	16.062	n/a	<>	n/a	-999	12	[0, 0, 0]	n/a	catFR1	1	R1515T
1332.892	13.182	1343289	REC_WORD_VV	17.062	n/a	<>	n/a	-999	12	[0, 0, 0]	n/a	catFR1	1	R1515T
1346.074	0.0	1356465	REC_END	n/a	n/a	n/a	n/a	-999	12	[0, 0, 0]	n/a	catFR1	1	R1515T
