onset	duration	sample	trial_type	response_time	stim_file	item_name	category	serialpos	list	test	answer	experiment	session	subject
0.0	164.783	18985	INSTRUCT_START	n/a	n/a	n/a	n/a	-999	-999	[0, 0, 0]	n/a	catFR1	3	R1491T
164.783	24.683	183754	INSTRUCT_END	n/a	n/a	n/a	n/a	-999	-999	[0, 0, 0]	n/a	catFR1	3	R1491T
189.466	10.35	208430	COUNTDOWN_START	n/a	n/a	n/a	n/a	-999	-999	[0, 0, 0]	n/a	catFR1	3	R1491T
199.816	0.0	218790	COUNTDOWN_END	n/a	n/a	n/a	n/a	-999	-999	[0, 0, 0]	n/a	catFR1	3	R1491T
199.816	1.967	218790	ENCODING_START	n/a	n/a	n/a	n/a	-999	-1	[0, 0, 0]	n/a	catFR1	3	R1491T
201.783	1.616	220747	WORD	n/a	n/a	JEEP	Vehicles	1	-1	[0, 0, 0]	n/a	catFR1	3	R1491T
203.399	0.933	222373	WORD_OFF	n/a	n/a	JEEP	Vehicles	1	-1	[0, 0, 0]	n/a	catFR1	3	R1491T
204.332	1.616	223296	WORD	n/a	n/a	BIKE	Vehicles	2	-1	[0, 0, 0]	n/a	catFR1	3	R1491T
205.948	0.951	224922	WORD_OFF	n/a	n/a	BIKE	Vehicles	2	-1	[0, 0, 0]	n/a	catFR1	3	R1491T
206.899	1.617	225872	WORD	n/a	n/a	CAKE	Desserts	3	-1	[0, 0, 0]	n/a	catFR1	3	R1491T
208.516	0.966	227484	WORD_OFF	n/a	n/a	CAKE	Desserts	3	-1	[0, 0, 0]	n/a	catFR1	3	R1491T
209.482	1.617	228449	WORD	n/a	n/a	MOUSSE	Desserts	4	-1	[0, 0, 0]	n/a	catFR1	3	R1491T
211.099	0.867	230074	WORD_OFF	n/a	n/a	MOUSSE	Desserts	4	-1	[0, 0, 0]	n/a	catFR1	3	R1491T
211.966	1.615	230929	WORD	n/a	n/a	TABLET	Electronics	5	-1	[0, 0, 0]	n/a	catFR1	3	R1491T
213.581	0.885	232554	WORD_OFF	n/a	n/a	TABLET	Electronics	5	-1	[0, 0, 0]	n/a	catFR1	3	R1491T
214.466	1.616	233436	WORD	n/a	n/a	HEADPHONES	Electronics	6	-1	[0, 0, 0]	n/a	catFR1	3	R1491T
216.082	0.983	235048	WORD_OFF	n/a	n/a	HEADPHONES	Electronics	6	-1	[0, 0, 0]	n/a	catFR1	3	R1491T
217.065	1.616	236026	WORD	n/a	n/a	FUDGE	Desserts	7	-1	[0, 0, 0]	n/a	catFR1	3	R1491T
218.681	1.001	237652	WORD_OFF	n/a	n/a	FUDGE	Desserts	7	-1	[0, 0, 0]	n/a	catFR1	3	R1491T
219.682	1.616	238644	WORD	n/a	n/a	BROWNIES	Desserts	8	-1	[0, 0, 0]	n/a	catFR1	3	R1491T
221.298	0.883	240270	WORD_OFF	n/a	n/a	BROWNIES	Desserts	8	-1	[0, 0, 0]	n/a	catFR1	3	R1491T
222.181	1.617	241152	WORD	n/a	n/a	SCOOTER	Vehicles	9	-1	[0, 0, 0]	n/a	catFR1	3	R1491T
223.798	0.817	242764	WORD_OFF	n/a	n/a	SCOOTER	Vehicles	9	-1	[0, 0, 0]	n/a	catFR1	3	R1491T
224.615	1.6	243577	WORD	n/a	n/a	TRAIN	Vehicles	10	-1	[0, 0, 0]	n/a	catFR1	3	R1491T
226.215	0.867	245189	WORD_OFF	n/a	n/a	TRAIN	Vehicles	10	-1	[0, 0, 0]	n/a	catFR1	3	R1491T
227.082	1.6	246043	WORD	n/a	n/a	PRINTER	Electronics	11	-1	[0, 0, 0]	n/a	catFR1	3	R1491T
228.682	0.967	247655	WORD_OFF	n/a	n/a	PRINTER	Electronics	11	-1	[0, 0, 0]	n/a	catFR1	3	R1491T
229.649	1.617	248619	WORD	n/a	n/a	RADIO	Electronics	12	-1	[0, 0, 0]	n/a	catFR1	3	R1491T
231.266	0.0	250226	START	n/a	n/a	n/a	n/a	-999	-1	[-999, -999, -999]	n/a	catFR1	3	R1491T
231.266	0.0	250226	PROB	7.666	n/a	n/a	n/a	-999	-1	[2, 4, 8]	14.0	catFR1	3	R1491T
231.265	0.001	250231	WORD_OFF	n/a	n/a	RADIO	Electronics	12	-1	[0, 0, 0]	n/a	catFR1	3	R1491T
231.266	0.0	250231	ENCODING_END	n/a	n/a	n/a	n/a	-999	-1	[0, 0, 0]	n/a	catFR1	3	R1491T
231.266	7.683	250231	DISTRACT_START	n/a	n/a	n/a	n/a	-999	-1	[0, 0, 0]	n/a	catFR1	3	R1491T
238.949	4.05	257909	PROB	4.032	n/a	n/a	n/a	-999	-1	[4, 1, 1]	6.0	catFR1	3	R1491T
242.999	5.1	261959	PROB	5.083	n/a	n/a	n/a	-999	-1	[8, 5, 5]	18.0	catFR1	3	R1491T
248.099	5.298	267059	PROB	5.283	n/a	n/a	n/a	-999	-1	[3, 7, 5]	15.0	catFR1	3	R1491T
253.397	0.0	272356	STOP	n/a	n/a	n/a	n/a	-999	-1	[-999, -999, -999]	n/a	catFR1	3	R1491T
253.397	2.035	272358	DISTRACT_END	n/a	n/a	n/a	n/a	-999	-1	[0, 0, 0]	n/a	catFR1	3	R1491T
255.432	2.718	274392	REC_START	n/a	n/a	n/a	n/a	-999	-1	[0, 0, 0]	n/a	catFR1	3	R1491T
258.15	1.0	277109	REC_WORD	2.718	n/a	CHEROKEE	n/a	-999	-1	[0, 0, 0]	n/a	catFR1	3	R1491T
259.15	2.304	278109	REC_WORD	3.718	n/a	CHEROKEE	n/a	-999	-1	[0, 0, 0]	n/a	catFR1	3	R1491T
261.454	0.957	280413	REC_WORD_VV	6.022	n/a	<>	n/a	-999	-1	[0, 0, 0]	n/a	catFR1	3	R1491T
262.411	23.222	281370	REC_WORD_VV	6.979	n/a	<>	n/a	-999	-1	[0, 0, 0]	n/a	catFR1	3	R1491T
285.633	10.249	304598	REC_END	n/a	n/a	n/a	n/a	-999	-1	[0, 0, 0]	n/a	catFR1	3	R1491T
295.882	10.349	314849	COUNTDOWN_START	n/a	n/a	n/a	n/a	-999	1	[0, 0, 0]	n/a	catFR1	3	R1491T
306.231	0.0	325196	COUNTDOWN_END	n/a	n/a	n/a	n/a	-999	1	[0, 0, 0]	n/a	catFR1	3	R1491T
306.231	2.25	325196	ENCODING_START	n/a	n/a	n/a	n/a	-999	1	[0, 0, 0]	n/a	catFR1	3	R1491T
308.481	1.601	327442	WORD	n/a	wordpools/wordpool_categorized_EN.txt	VIOLIN	Instruments	1	1	[0, 0, 0]	n/a	catFR1	3	R1491T
310.082	0.916	329040	WORD_OFF	n/a	n/a	VIOLIN	Instruments	1	1	[0, 0, 0]	n/a	catFR1	3	R1491T
310.998	1.601	329963	WORD	n/a	wordpools/wordpool_categorized_EN.txt	CELLO	Instruments	2	1	[0, 0, 0]	n/a	catFR1	3	R1491T
312.599	0.817	331561	WORD_OFF	n/a	n/a	CELLO	Instruments	2	1	[0, 0, 0]	n/a	catFR1	3	R1491T
313.416	1.616	332374	WORD	n/a	wordpools/wordpool_categorized_EN.txt	BOOKCASE	Furniture	3	1	[0, 0, 0]	n/a	catFR1	3	R1491T
315.032	0.767	334000	WORD_OFF	n/a	n/a	BOOKCASE	Furniture	3	1	[0, 0, 0]	n/a	catFR1	3	R1491T
315.799	1.6	334758	WORD	n/a	wordpools/wordpool_categorized_EN.txt	TABLE	Furniture	4	1	[0, 0, 0]	n/a	catFR1	3	R1491T
317.399	0.833	336356	WORD_OFF	n/a	n/a	TABLE	Furniture	4	1	[0, 0, 0]	n/a	catFR1	3	R1491T
318.232	1.6	337197	WORD	n/a	wordpools/wordpool_categorized_EN.txt	FOOTBALL	Toys	5	1	[0, 0, 0]	n/a	catFR1	3	R1491T
319.832	0.949	338795	WORD_OFF	n/a	n/a	FOOTBALL	Toys	5	1	[0, 0, 0]	n/a	catFR1	3	R1491T
320.781	1.6	339745	WORD	n/a	wordpools/wordpool_categorized_EN.txt	MARBLES	Toys	6	1	[0, 0, 0]	n/a	catFR1	3	R1491T
322.381	0.867	341344	WORD_OFF	n/a	n/a	MARBLES	Toys	6	1	[0, 0, 0]	n/a	catFR1	3	R1491T
323.248	1.6	342212	WORD	n/a	wordpools/wordpool_categorized_EN.txt	DRESSER	Furniture	7	1	[0, 0, 0]	n/a	catFR1	3	R1491T
324.848	0.95	343810	WORD_OFF	n/a	n/a	DRESSER	Furniture	7	1	[0, 0, 0]	n/a	catFR1	3	R1491T
325.798	1.618	344761	WORD	n/a	wordpools/wordpool_categorized_EN.txt	COUCH	Furniture	8	1	[0, 0, 0]	n/a	catFR1	3	R1491T
327.416	1.0	346373	WORD_OFF	n/a	n/a	COUCH	Furniture	8	1	[0, 0, 0]	n/a	catFR1	3	R1491T
328.416	1.616	347378	WORD	n/a	wordpools/wordpool_categorized_EN.txt	SLINKY	Toys	9	1	[0, 0, 0]	n/a	catFR1	3	R1491T
330.032	0.8	348990	WORD_OFF	n/a	n/a	SLINKY	Toys	9	1	[0, 0, 0]	n/a	catFR1	3	R1491T
330.832	1.6	349789	WORD	n/a	wordpools/wordpool_categorized_EN.txt	BLOCKS	Toys	10	1	[0, 0, 0]	n/a	catFR1	3	R1491T
332.432	0.918	351388	WORD_OFF	n/a	n/a	BLOCKS	Toys	10	1	[0, 0, 0]	n/a	catFR1	3	R1491T
333.35	1.616	352311	WORD	n/a	wordpools/wordpool_categorized_EN.txt	TUBA	Instruments	11	1	[0, 0, 0]	n/a	catFR1	3	R1491T
334.966	0.832	353923	WORD_OFF	n/a	n/a	TUBA	Instruments	11	1	[0, 0, 0]	n/a	catFR1	3	R1491T
335.798	1.601	354763	WORD	n/a	wordpools/wordpool_categorized_EN.txt	PIANO	Instruments	12	1	[0, 0, 0]	n/a	catFR1	3	R1491T
337.399	0.001	356354	PROB	3.933	n/a	n/a	n/a	-999	1	[5, 3, 3]	11.0	catFR1	3	R1491T
337.4	0.0	356355	START	n/a	n/a	n/a	n/a	-999	1	[-999, -999, -999]	n/a	catFR1	3	R1491T
337.399	0.001	356361	WORD_OFF	n/a	n/a	PIANO	Instruments	12	1	[0, 0, 0]	n/a	catFR1	3	R1491T
337.4	0.0	356361	ENCODING_END	n/a	n/a	n/a	n/a	-999	1	[0, 0, 0]	n/a	catFR1	3	R1491T
337.4	3.949	356361	DISTRACT_START	n/a	n/a	n/a	n/a	-999	1	[0, 0, 0]	n/a	catFR1	3	R1491T
341.349	4.199	360304	PROB	4.182	n/a	n/a	n/a	-999	1	[6, 1, 2]	9.0	catFR1	3	R1491T
345.548	7.101	364503	PROB	7.084	n/a	n/a	n/a	-999	1	[5, 4, 4]	13.0	catFR1	3	R1491T
352.649	6.233	371603	PROB	6.216	n/a	n/a	n/a	-999	1	[8, 2, 7]	17.0	catFR1	3	R1491T
358.882	0.0	377836	STOP	n/a	n/a	n/a	n/a	-999	1	[-999, -999, -999]	n/a	catFR1	3	R1491T
358.882	2.4	377841	DISTRACT_END	n/a	n/a	n/a	n/a	-999	1	[0, 0, 0]	n/a	catFR1	3	R1491T
361.282	30.011	380246	REC_START	n/a	n/a	n/a	n/a	-999	1	[0, 0, 0]	n/a	catFR1	3	R1491T
391.293	0.229	410245	REC_WORD_VV	30.011	n/a	<>	n/a	-999	1	[0, 0, 0]	n/a	catFR1	3	R1491T
391.522	2.076	410481	REC_END	n/a	n/a	n/a	n/a	-999	1	[0, 0, 0]	n/a	catFR1	3	R1491T
393.598	10.35	412561	COUNTDOWN_START	n/a	n/a	n/a	n/a	-999	2	[0, 0, 0]	n/a	catFR1	3	R1491T
403.948	0.0	422908	COUNTDOWN_END	n/a	n/a	n/a	n/a	-999	2	[0, 0, 0]	n/a	catFR1	3	R1491T
403.948	2.3	422908	ENCODING_START	n/a	n/a	n/a	n/a	-999	2	[0, 0, 0]	n/a	catFR1	3	R1491T
406.248	1.601	425209	WORD	n/a	wordpools/wordpool_categorized_EN.txt	LAKE	Landscapes	1	2	[0, 0, 0]	n/a	catFR1	3	R1491T
407.849	0.883	426807	WORD_OFF	n/a	n/a	LAKE	Landscapes	1	2	[0, 0, 0]	n/a	catFR1	3	R1491T
408.732	1.6	427689	WORD	n/a	wordpools/wordpool_categorized_EN.txt	OCEAN	Landscapes	2	2	[0, 0, 0]	n/a	catFR1	3	R1491T
410.332	0.866	429287	WORD_OFF	n/a	n/a	OCEAN	Landscapes	2	2	[0, 0, 0]	n/a	catFR1	3	R1491T
411.198	1.617	430155	WORD	n/a	wordpools/wordpool_categorized_EN.txt	APPLE	Fruit	3	2	[0, 0, 0]	n/a	catFR1	3	R1491T
412.815	0.767	431767	WORD_OFF	n/a	n/a	APPLE	Fruit	3	2	[0, 0, 0]	n/a	catFR1	3	R1491T
413.582	1.6	432539	WORD	n/a	wordpools/wordpool_categorized_EN.txt	LEMON	Fruit	4	2	[0, 0, 0]	n/a	catFR1	3	R1491T
415.182	0.816	434137	WORD_OFF	n/a	n/a	LEMON	Fruit	4	2	[0, 0, 0]	n/a	catFR1	3	R1491T
415.998	1.601	434950	WORD	n/a	wordpools/wordpool_categorized_EN.txt	SCREWDRIVER	Tools	5	2	[0, 0, 0]	n/a	catFR1	3	R1491T
417.599	0.966	436562	WORD_OFF	n/a	n/a	SCREWDRIVER	Tools	5	2	[0, 0, 0]	n/a	catFR1	3	R1491T
418.565	1.617	437526	WORD	n/a	wordpools/wordpool_categorized_EN.txt	SAW	Tools	6	2	[0, 0, 0]	n/a	catFR1	3	R1491T
420.182	0.766	439138	WORD_OFF	n/a	n/a	SAW	Tools	6	2	[0, 0, 0]	n/a	catFR1	3	R1491T
420.948	1.616	439910	WORD	n/a	wordpools/wordpool_categorized_EN.txt	RIVER	Landscapes	7	2	[0, 0, 0]	n/a	catFR1	3	R1491T
422.564	0.918	441522	WORD_OFF	n/a	n/a	RIVER	Landscapes	7	2	[0, 0, 0]	n/a	catFR1	3	R1491T
423.482	1.616	442432	WORD	n/a	wordpools/wordpool_categorized_EN.txt	ISLAND	Landscapes	8	2	[0, 0, 0]	n/a	catFR1	3	R1491T
425.098	0.767	444057	WORD_OFF	n/a	n/a	ISLAND	Landscapes	8	2	[0, 0, 0]	n/a	catFR1	3	R1491T
425.865	1.617	444828	WORD	n/a	wordpools/wordpool_categorized_EN.txt	CHERRY	Fruit	9	2	[0, 0, 0]	n/a	catFR1	3	R1491T
427.482	0.883	446440	WORD_OFF	n/a	n/a	CHERRY	Fruit	9	2	[0, 0, 0]	n/a	catFR1	3	R1491T
428.365	1.617	447322	WORD	n/a	wordpools/wordpool_categorized_EN.txt	PLUM	Fruit	10	2	[0, 0, 0]	n/a	catFR1	3	R1491T
429.982	0.983	448934	WORD_OFF	n/a	n/a	PLUM	Fruit	10	2	[0, 0, 0]	n/a	catFR1	3	R1491T
430.965	1.6	449926	WORD	n/a	wordpools/wordpool_categorized_EN.txt	DRILL	Tools	11	2	[0, 0, 0]	n/a	catFR1	3	R1491T
432.565	0.917	451524	WORD_OFF	n/a	n/a	DRILL	Tools	11	2	[0, 0, 0]	n/a	catFR1	3	R1491T
433.482	1.6	452434	WORD	n/a	wordpools/wordpool_categorized_EN.txt	PLIERS	Tools	12	2	[0, 0, 0]	n/a	catFR1	3	R1491T
435.082	0.0	454032	WORD_OFF	n/a	n/a	PLIERS	Tools	12	2	[0, 0, 0]	n/a	catFR1	3	R1491T
435.082	0.002	454032	PROB	5.5	n/a	n/a	n/a	-999	2	[6, 1, 7]	14.0	catFR1	3	R1491T
435.084	0.0	454034	START	n/a	n/a	n/a	n/a	-999	2	[-999, -999, -999]	n/a	catFR1	3	R1491T
435.083	0.001	454046	ENCODING_END	n/a	n/a	n/a	n/a	-999	2	[0, 0, 0]	n/a	catFR1	3	R1491T
435.084	5.516	454046	DISTRACT_START	n/a	n/a	n/a	n/a	-999	2	[0, 0, 0]	n/a	catFR1	3	R1491T
440.6	3.465	459550	PROB	3.449	n/a	n/a	n/a	-999	2	[4, 3, 3]	10.0	catFR1	3	R1491T
444.065	7.3	463015	PROB	7.284	n/a	n/a	n/a	-999	2	[8, 7, 8]	23.0	catFR1	3	R1491T
451.365	3.184	470314	PROB	3.167	n/a	n/a	n/a	-999	2	[6, 7, 1]	8.0	catFR1	3	R1491T
454.549	6.166	473498	PROB	6.15	n/a	n/a	n/a	-999	2	[8, 2, 3]	13.0	catFR1	3	R1491T
460.715	0.0	479664	STOP	n/a	n/a	n/a	n/a	-999	2	[-999, -999, -999]	n/a	catFR1	3	R1491T
460.715	2.051	479672	DISTRACT_END	n/a	n/a	n/a	n/a	-999	2	[0, 0, 0]	n/a	catFR1	3	R1491T
462.766	30.011	481720	REC_START	n/a	n/a	n/a	n/a	-999	2	[0, 0, 0]	n/a	catFR1	3	R1491T
492.777	0.221	511724	REC_WORD_VV	30.011	n/a	<>	n/a	-999	2	[0, 0, 0]	n/a	catFR1	3	R1491T
492.998	2.467	511954	REC_END	n/a	n/a	n/a	n/a	-999	2	[0, 0, 0]	n/a	catFR1	3	R1491T
495.465	10.35	514420	COUNTDOWN_START	n/a	n/a	n/a	n/a	-999	3	[0, 0, 0]	n/a	catFR1	3	R1491T
505.815	0.0	524767	COUNTDOWN_END	n/a	n/a	n/a	n/a	-999	3	[0, 0, 0]	n/a	catFR1	3	R1491T
505.815	2.017	524767	ENCODING_START	n/a	n/a	n/a	n/a	-999	3	[0, 0, 0]	n/a	catFR1	3	R1491T
507.832	1.617	526779	WORD	n/a	wordpools/wordpool_categorized_EN.txt	MOUNTAIN	Landscapes	1	3	[0, 0, 0]	n/a	catFR1	3	R1491T
509.449	0.849	528404	WORD_OFF	n/a	n/a	MOUNTAIN	Landscapes	1	3	[0, 0, 0]	n/a	catFR1	3	R1491T
510.298	1.601	529245	WORD	n/a	wordpools/wordpool_categorized_EN.txt	WOODS	Landscapes	2	3	[0, 0, 0]	n/a	catFR1	3	R1491T
511.899	0.85	530857	WORD_OFF	n/a	n/a	WOODS	Landscapes	2	3	[0, 0, 0]	n/a	catFR1	3	R1491T
512.749	1.6	531697	WORD	n/a	wordpools/wordpool_categorized_EN.txt	TONGS	KitchenTools	3	3	[0, 0, 0]	n/a	catFR1	3	R1491T
514.349	0.9	533296	WORD_OFF	n/a	n/a	TONGS	KitchenTools	3	3	[0, 0, 0]	n/a	catFR1	3	R1491T
515.249	1.6	534205	WORD	n/a	wordpools/wordpool_categorized_EN.txt	SPATULA	KitchenTools	4	3	[0, 0, 0]	n/a	catFR1	3	R1491T
516.849	0.949	535803	WORD_OFF	n/a	n/a	SPATULA	KitchenTools	4	3	[0, 0, 0]	n/a	catFR1	3	R1491T
517.798	1.601	536754	WORD	n/a	wordpools/wordpool_categorized_EN.txt	CRICKET	Insects	5	3	[0, 0, 0]	n/a	catFR1	3	R1491T
519.399	0.783	538352	WORD_OFF	n/a	n/a	CRICKET	Insects	5	3	[0, 0, 0]	n/a	catFR1	3	R1491T
520.182	1.6	539137	WORD	n/a	wordpools/wordpool_categorized_EN.txt	LADYBUG	Insects	6	3	[0, 0, 0]	n/a	catFR1	3	R1491T
521.782	0.882	540736	WORD_OFF	n/a	n/a	LADYBUG	Insects	6	3	[0, 0, 0]	n/a	catFR1	3	R1491T
522.664	1.602	541617	WORD	n/a	wordpools/wordpool_categorized_EN.txt	FOREST	Landscapes	7	3	[0, 0, 0]	n/a	catFR1	3	R1491T
524.266	0.815	543215	WORD_OFF	n/a	n/a	FOREST	Landscapes	7	3	[0, 0, 0]	n/a	catFR1	3	R1491T
525.081	1.601	544028	WORD	n/a	wordpools/wordpool_categorized_EN.txt	HILLS	Landscapes	8	3	[0, 0, 0]	n/a	catFR1	3	R1491T
526.682	0.916	545627	WORD_OFF	n/a	n/a	HILLS	Landscapes	8	3	[0, 0, 0]	n/a	catFR1	3	R1491T
527.598	1.6	546550	WORD	n/a	wordpools/wordpool_categorized_EN.txt	SPIDER	Insects	9	3	[0, 0, 0]	n/a	catFR1	3	R1491T
529.198	0.833	548148	WORD_OFF	n/a	n/a	SPIDER	Insects	9	3	[0, 0, 0]	n/a	catFR1	3	R1491T
530.031	1.601	548988	WORD	n/a	wordpools/wordpool_categorized_EN.txt	FLY	Insects	10	3	[0, 0, 0]	n/a	catFR1	3	R1491T
531.632	0.85	550587	WORD_OFF	n/a	n/a	FLY	Insects	10	3	[0, 0, 0]	n/a	catFR1	3	R1491T
532.482	1.6	551427	WORD	n/a	wordpools/wordpool_categorized_EN.txt	STRAINER	KitchenTools	11	3	[0, 0, 0]	n/a	catFR1	3	R1491T
534.082	0.967	553039	WORD_OFF	n/a	n/a	STRAINER	KitchenTools	11	3	[0, 0, 0]	n/a	catFR1	3	R1491T
535.049	1.6	554003	WORD	n/a	wordpools/wordpool_categorized_EN.txt	FORK	KitchenTools	12	3	[0, 0, 0]	n/a	catFR1	3	R1491T
536.649	0.003	555594	PROB	7.399	n/a	n/a	n/a	-999	3	[8, 2, 6]	16.0	catFR1	3	R1491T
536.652	0.0	555597	START	n/a	n/a	n/a	n/a	-999	3	[-999, -999, -999]	n/a	catFR1	3	R1491T
536.649	0.003	555602	WORD_OFF	n/a	n/a	FORK	KitchenTools	12	3	[0, 0, 0]	n/a	catFR1	3	R1491T
536.652	0.0	555602	ENCODING_END	n/a	n/a	n/a	n/a	-999	3	[0, 0, 0]	n/a	catFR1	3	R1491T
536.652	7.414	555602	DISTRACT_START	n/a	n/a	n/a	n/a	-999	3	[0, 0, 0]	n/a	catFR1	3	R1491T
544.066	4.917	563010	PROB	4.9	n/a	n/a	n/a	-999	3	[4, 7, 7]	18.0	catFR1	3	R1491T
548.983	4.483	567927	PROB	4.466	n/a	n/a	n/a	-999	3	[8, 4, 5]	17.0	catFR1	3	R1491T
553.466	3.616	572410	PROB	3.6	n/a	n/a	n/a	-999	3	[4, 4, 2]	10.0	catFR1	3	R1491T
557.082	0.0	576026	STOP	n/a	n/a	n/a	n/a	-999	3	[-999, -999, -999]	n/a	catFR1	3	R1491T
557.082	2.2	576034	DISTRACT_END	n/a	n/a	n/a	n/a	-999	3	[0, 0, 0]	n/a	catFR1	3	R1491T
559.282	5.847	578233	REC_START	n/a	n/a	n/a	n/a	-999	3	[0, 0, 0]	n/a	catFR1	3	R1491T
565.129	1.0	584072	REC_WORD_VV	5.847	n/a	<>	n/a	-999	3	[0, 0, 0]	n/a	catFR1	3	R1491T
566.129	23.39	585072	REC_WORD_VV	6.847	n/a	<>	n/a	-999	3	[0, 0, 0]	n/a	catFR1	3	R1491T
589.519	2.213	608467	REC_END	n/a	n/a	n/a	n/a	-999	3	[0, 0, 0]	n/a	catFR1	3	R1491T
591.732	10.349	610685	COUNTDOWN_START	n/a	n/a	n/a	n/a	-999	4	[0, 0, 0]	n/a	catFR1	3	R1491T
602.081	0.0	621032	COUNTDOWN_END	n/a	n/a	n/a	n/a	-999	4	[0, 0, 0]	n/a	catFR1	3	R1491T
602.081	2.135	621032	ENCODING_START	n/a	n/a	n/a	n/a	-999	4	[0, 0, 0]	n/a	catFR1	3	R1491T
604.216	1.616	623168	WORD	n/a	wordpools/wordpool_categorized_EN.txt	PAPER	OfficeSupplies	1	4	[0, 0, 0]	n/a	catFR1	3	R1491T
605.832	0.867	624780	WORD_OFF	n/a	n/a	PAPER	OfficeSupplies	1	4	[0, 0, 0]	n/a	catFR1	3	R1491T
606.699	1.6	625648	WORD	n/a	wordpools/wordpool_categorized_EN.txt	FOLDER	OfficeSupplies	2	4	[0, 0, 0]	n/a	catFR1	3	R1491T
608.299	0.983	627246	WORD_OFF	n/a	n/a	FOLDER	OfficeSupplies	2	4	[0, 0, 0]	n/a	catFR1	3	R1491T
609.282	1.6	628224	WORD	n/a	wordpools/wordpool_categorized_EN.txt	BUTTERFLY	Insects	3	4	[0, 0, 0]	n/a	catFR1	3	R1491T
610.882	0.817	629823	WORD_OFF	n/a	n/a	BUTTERFLY	Insects	3	4	[0, 0, 0]	n/a	catFR1	3	R1491T
611.699	1.616	630649	WORD	n/a	wordpools/wordpool_categorized_EN.txt	ROACH	Insects	4	4	[0, 0, 0]	n/a	catFR1	3	R1491T
613.315	1.001	632261	WORD_OFF	n/a	n/a	ROACH	Insects	4	4	[0, 0, 0]	n/a	catFR1	3	R1491T
614.316	1.599	633267	WORD	n/a	wordpools/wordpool_categorized_EN.txt	HAMMER	Tools	5	4	[0, 0, 0]	n/a	catFR1	3	R1491T
615.915	0.867	634865	WORD_OFF	n/a	n/a	HAMMER	Tools	5	4	[0, 0, 0]	n/a	catFR1	3	R1491T
616.782	1.6	635733	WORD	n/a	wordpools/wordpool_categorized_EN.txt	WRENCH	Tools	6	4	[0, 0, 0]	n/a	catFR1	3	R1491T
618.382	0.783	637331	WORD_OFF	n/a	n/a	WRENCH	Tools	6	4	[0, 0, 0]	n/a	catFR1	3	R1491T
619.165	1.601	638117	WORD	n/a	wordpools/wordpool_categorized_EN.txt	MOSQUITO	Insects	7	4	[0, 0, 0]	n/a	catFR1	3	R1491T
620.766	0.882	639715	WORD_OFF	n/a	n/a	MOSQUITO	Insects	7	4	[0, 0, 0]	n/a	catFR1	3	R1491T
621.648	1.601	640597	WORD	n/a	wordpools/wordpool_categorized_EN.txt	BEE	Insects	8	4	[0, 0, 0]	n/a	catFR1	3	R1491T
623.249	0.982	642195	WORD_OFF	n/a	n/a	BEE	Insects	8	4	[0, 0, 0]	n/a	catFR1	3	R1491T
624.231	1.6	643173	WORD	n/a	wordpools/wordpool_categorized_EN.txt	NOTEBOOK	OfficeSupplies	9	4	[0, 0, 0]	n/a	catFR1	3	R1491T
625.831	1.001	644771	WORD_OFF	n/a	n/a	NOTEBOOK	OfficeSupplies	9	4	[0, 0, 0]	n/a	catFR1	3	R1491T
626.832	1.616	645777	WORD	n/a	wordpools/wordpool_categorized_EN.txt	MARKER	OfficeSupplies	10	4	[0, 0, 0]	n/a	catFR1	3	R1491T
628.448	0.917	647389	WORD_OFF	n/a	n/a	MARKER	OfficeSupplies	10	4	[0, 0, 0]	n/a	catFR1	3	R1491T
629.365	1.6	648312	WORD	n/a	wordpools/wordpool_categorized_EN.txt	SHOVEL	Tools	11	4	[0, 0, 0]	n/a	catFR1	3	R1491T
630.965	0.934	649911	WORD_OFF	n/a	n/a	SHOVEL	Tools	11	4	[0, 0, 0]	n/a	catFR1	3	R1491T
631.899	1.616	650847	WORD	n/a	wordpools/wordpool_categorized_EN.txt	CROWBAR	Tools	12	4	[0, 0, 0]	n/a	catFR1	3	R1491T
633.515	0.001	652455	PROB	4.4	n/a	n/a	n/a	-999	4	[3, 4, 2]	9.0	catFR1	3	R1491T
633.516	0.0	652456	START	n/a	n/a	n/a	n/a	-999	4	[-999, -999, -999]	n/a	catFR1	3	R1491T
633.515	0.001	652459	WORD_OFF	n/a	n/a	CROWBAR	Tools	12	4	[0, 0, 0]	n/a	catFR1	3	R1491T
633.516	0.0	652459	ENCODING_END	n/a	n/a	n/a	n/a	-999	4	[0, 0, 0]	n/a	catFR1	3	R1491T
633.516	4.416	652459	DISTRACT_START	n/a	n/a	n/a	n/a	-999	4	[0, 0, 0]	n/a	catFR1	3	R1491T
637.932	4.349	656872	PROB	4.332	n/a	n/a	n/a	-999	4	[4, 3, 7]	14.0	catFR1	3	R1491T
642.281	4.719	661220	PROB	4.7	n/a	n/a	n/a	-999	4	[3, 7, 2]	12.0	catFR1	3	R1491T
647.0	3.583	665939	PROB	3.566	n/a	n/a	n/a	-999	4	[6, 2, 5]	13.0	catFR1	3	R1491T
650.583	3.398	669522	PROB	3.382	n/a	n/a	n/a	-999	4	[4, 4, 3]	11.0	catFR1	3	R1491T
653.981	0.0	672920	STOP	n/a	n/a	n/a	n/a	-999	4	[-999, -999, -999]	n/a	catFR1	3	R1491T
653.981	2.218	672933	DISTRACT_END	n/a	n/a	n/a	n/a	-999	4	[0, 0, 0]	n/a	catFR1	3	R1491T
656.199	2.439	675146	REC_START	n/a	n/a	n/a	n/a	-999	4	[0, 0, 0]	n/a	catFR1	3	R1491T
658.638	27.816	677577	REC_WORD	2.439	n/a	ROACH	Insects	4	4	[0, 0, 0]	n/a	catFR1	3	R1491T
686.454	2.728	705394	REC_END	n/a	n/a	n/a	n/a	-999	4	[0, 0, 0]	n/a	catFR1	3	R1491T
689.182	10.35	708122	COUNTDOWN_START	n/a	n/a	n/a	n/a	-999	5	[0, 0, 0]	n/a	catFR1	3	R1491T
699.532	0.0	718469	COUNTDOWN_END	n/a	n/a	n/a	n/a	-999	5	[0, 0, 0]	n/a	catFR1	3	R1491T
699.532	2.133	718482	ENCODING_START	n/a	n/a	n/a	n/a	-999	5	[0, 0, 0]	n/a	catFR1	3	R1491T
701.665	1.601	720604	WORD	n/a	wordpools/wordpool_categorized_EN.txt	COTTON	Fabric	1	5	[0, 0, 0]	n/a	catFR1	3	R1491T
703.266	0.982	722202	WORD_OFF	n/a	n/a	COTTON	Fabric	1	5	[0, 0, 0]	n/a	catFR1	3	R1491T
704.248	1.601	723194	WORD	n/a	wordpools/wordpool_categorized_EN.txt	SILK	Fabric	2	5	[0, 0, 0]	n/a	catFR1	3	R1491T
705.849	0.799	724793	WORD_OFF	n/a	n/a	SILK	Fabric	2	5	[0, 0, 0]	n/a	catFR1	3	R1491T
706.648	1.601	725592	WORD	n/a	wordpools/wordpool_categorized_EN.txt	WHALE	OceanAnimals	3	5	[0, 0, 0]	n/a	catFR1	3	R1491T
708.249	0.95	727190	WORD_OFF	n/a	n/a	WHALE	OceanAnimals	3	5	[0, 0, 0]	n/a	catFR1	3	R1491T
709.199	1.615	728141	WORD	n/a	wordpools/wordpool_categorized_EN.txt	LOBSTER	OceanAnimals	4	5	[0, 0, 0]	n/a	catFR1	3	R1491T
710.814	0.935	729753	WORD_OFF	n/a	n/a	LOBSTER	OceanAnimals	4	5	[0, 0, 0]	n/a	catFR1	3	R1491T
711.749	1.616	730690	WORD	n/a	wordpools/wordpool_categorized_EN.txt	LIME	Fruit	5	5	[0, 0, 0]	n/a	catFR1	3	R1491T
713.365	0.834	732302	WORD_OFF	n/a	n/a	LIME	Fruit	5	5	[0, 0, 0]	n/a	catFR1	3	R1491T
714.199	1.616	733142	WORD	n/a	wordpools/wordpool_categorized_EN.txt	BLUEBERRY	Fruit	6	5	[0, 0, 0]	n/a	catFR1	3	R1491T
715.815	0.983	734754	WORD_OFF	n/a	n/a	BLUEBERRY	Fruit	6	5	[0, 0, 0]	n/a	catFR1	3	R1491T
716.798	1.601	735732	WORD	n/a	wordpools/wordpool_categorized_EN.txt	WOOL	Fabric	7	5	[0, 0, 0]	n/a	catFR1	3	R1491T
718.399	0.85	737344	WORD_OFF	n/a	n/a	WOOL	Fabric	7	5	[0, 0, 0]	n/a	catFR1	3	R1491T
719.249	1.6	738185	WORD	n/a	wordpools/wordpool_categorized_EN.txt	FLEECE	Fabric	8	5	[0, 0, 0]	n/a	catFR1	3	R1491T
720.849	0.8	739797	WORD_OFF	n/a	n/a	FLEECE	Fabric	8	5	[0, 0, 0]	n/a	catFR1	3	R1491T
721.649	1.617	740596	WORD	n/a	wordpools/wordpool_categorized_EN.txt	PEACH	Fruit	9	5	[0, 0, 0]	n/a	catFR1	3	R1491T
723.266	0.983	742208	WORD_OFF	n/a	n/a	PEACH	Fruit	9	5	[0, 0, 0]	n/a	catFR1	3	R1491T
724.249	1.617	743186	WORD	n/a	wordpools/wordpool_categorized_EN.txt	ORANGE	Fruit	10	5	[0, 0, 0]	n/a	catFR1	3	R1491T
725.866	0.999	744812	WORD_OFF	n/a	n/a	ORANGE	Fruit	10	5	[0, 0, 0]	n/a	catFR1	3	R1491T
726.865	1.601	745804	WORD	n/a	wordpools/wordpool_categorized_EN.txt	OCTOPUS	OceanAnimals	11	5	[0, 0, 0]	n/a	catFR1	3	R1491T
728.466	0.799	747402	WORD_OFF	n/a	n/a	OCTOPUS	OceanAnimals	11	5	[0, 0, 0]	n/a	catFR1	3	R1491T
729.265	1.6	748201	WORD	n/a	wordpools/wordpool_categorized_EN.txt	OYSTER	OceanAnimals	12	5	[0, 0, 0]	n/a	catFR1	3	R1491T
730.865	0.0	749799	WORD_OFF	n/a	n/a	OYSTER	OceanAnimals	12	5	[0, 0, 0]	n/a	catFR1	3	R1491T
730.865	0.001	749800	PROB	5.05	n/a	n/a	n/a	-999	5	[8, 8, 6]	24.0	catFR1	3	R1491T
730.866	0.0	749801	START	n/a	n/a	n/a	n/a	-999	5	[-999, -999, -999]	n/a	catFR1	3	R1491T
730.866	0.0	749813	ENCODING_END	n/a	n/a	n/a	n/a	-999	5	[0, 0, 0]	n/a	catFR1	3	R1491T
730.866	5.066	749813	DISTRACT_START	n/a	n/a	n/a	n/a	-999	5	[0, 0, 0]	n/a	catFR1	3	R1491T
735.932	4.2	754867	PROB	4.184	n/a	n/a	n/a	-999	5	[7, 1, 3]	11.0	catFR1	3	R1491T
740.132	4.218	759066	PROB	4.2	n/a	n/a	n/a	-999	5	[4, 8, 8]	20.0	catFR1	3	R1491T
744.35	5.081	763284	PROB	5.066	n/a	n/a	n/a	-999	5	[4, 1, 3]	8.0	catFR1	3	R1491T
749.431	6.018	768365	PROB	6.0	n/a	n/a	n/a	-999	5	[5, 6, 3]	14.0	catFR1	3	R1491T
755.449	0.0	774383	STOP	n/a	n/a	n/a	n/a	-999	5	[-999, -999, -999]	n/a	catFR1	3	R1491T
755.449	2.016	774393	DISTRACT_END	n/a	n/a	n/a	n/a	-999	5	[0, 0, 0]	n/a	catFR1	3	R1491T
757.465	30.011	776398	REC_START	n/a	n/a	n/a	n/a	-999	5	[0, 0, 0]	n/a	catFR1	3	R1491T
787.476	0.228	806408	REC_WORD_VV	30.011	n/a	<>	n/a	-999	5	[0, 0, 0]	n/a	catFR1	3	R1491T
787.704	3.828	806646	REC_END	n/a	n/a	n/a	n/a	-999	5	[0, 0, 0]	n/a	catFR1	3	R1491T
791.532	10.349	810477	COUNTDOWN_START	n/a	n/a	n/a	n/a	-999	6	[0, 0, 0]	n/a	catFR1	3	R1491T
801.881	0.0	820824	COUNTDOWN_END	n/a	n/a	n/a	n/a	-999	6	[0, 0, 0]	n/a	catFR1	3	R1491T
801.881	2.218	820824	ENCODING_START	n/a	n/a	n/a	n/a	-999	6	[0, 0, 0]	n/a	catFR1	3	R1491T
804.099	1.6	823042	WORD	n/a	wordpools/wordpool_categorized_EN.txt	GOOSE	Birds	1	6	[0, 0, 0]	n/a	catFR1	3	R1491T
805.699	0.967	824640	WORD_OFF	n/a	n/a	GOOSE	Birds	1	6	[0, 0, 0]	n/a	catFR1	3	R1491T
806.666	1.6	825605	WORD	n/a	wordpools/wordpool_categorized_EN.txt	SPARROW	Birds	2	6	[0, 0, 0]	n/a	catFR1	3	R1491T
808.266	0.799	827203	WORD_OFF	n/a	n/a	SPARROW	Birds	2	6	[0, 0, 0]	n/a	catFR1	3	R1491T
809.065	1.601	828002	WORD	n/a	wordpools/wordpool_categorized_EN.txt	TORNADO	Weather	3	6	[0, 0, 0]	n/a	catFR1	3	R1491T
810.666	0.933	829600	WORD_OFF	n/a	n/a	TORNADO	Weather	3	6	[0, 0, 0]	n/a	catFR1	3	R1491T
811.599	1.616	830537	WORD	n/a	wordpools/wordpool_categorized_EN.txt	WIND	Weather	4	6	[0, 0, 0]	n/a	catFR1	3	R1491T
813.215	0.766	832149	WORD_OFF	n/a	n/a	WIND	Weather	4	6	[0, 0, 0]	n/a	catFR1	3	R1491T
813.981	1.601	832921	WORD	n/a	wordpools/wordpool_categorized_EN.txt	JACKET	Clothing	5	6	[0, 0, 0]	n/a	catFR1	3	R1491T
815.582	1.0	834519	WORD_OFF	n/a	n/a	JACKET	Clothing	5	6	[0, 0, 0]	n/a	catFR1	3	R1491T
816.582	1.6	835525	WORD	n/a	wordpools/wordpool_categorized_EN.txt	BLOUSE	Clothing	6	6	[0, 0, 0]	n/a	catFR1	3	R1491T
818.182	0.85	837123	WORD_OFF	n/a	n/a	BLOUSE	Clothing	6	6	[0, 0, 0]	n/a	catFR1	3	R1491T
819.032	1.6	837963	WORD	n/a	wordpools/wordpool_categorized_EN.txt	CLOUD	Weather	7	6	[0, 0, 0]	n/a	catFR1	3	R1491T
820.632	0.783	839575	WORD_OFF	n/a	n/a	CLOUD	Weather	7	6	[0, 0, 0]	n/a	catFR1	3	R1491T
821.415	1.6	840347	WORD	n/a	wordpools/wordpool_categorized_EN.txt	FOG	Weather	8	6	[0, 0, 0]	n/a	catFR1	3	R1491T
823.015	0.834	841945	WORD_OFF	n/a	n/a	FOG	Weather	8	6	[0, 0, 0]	n/a	catFR1	3	R1491T
823.849	1.617	842785	WORD	n/a	wordpools/wordpool_categorized_EN.txt	PIGEON	Birds	9	6	[0, 0, 0]	n/a	catFR1	3	R1491T
825.466	0.866	844397	WORD_OFF	n/a	n/a	PIGEON	Birds	9	6	[0, 0, 0]	n/a	catFR1	3	R1491T
826.332	1.616	845265	WORD	n/a	wordpools/wordpool_categorized_EN.txt	BLUEBIRD	Birds	10	6	[0, 0, 0]	n/a	catFR1	3	R1491T
827.948	0.884	846877	WORD_OFF	n/a	n/a	BLUEBIRD	Birds	10	6	[0, 0, 0]	n/a	catFR1	3	R1491T
828.832	1.617	847773	WORD	n/a	wordpools/wordpool_categorized_EN.txt	UNDERWEAR	Clothing	11	6	[0, 0, 0]	n/a	catFR1	3	R1491T
830.449	0.766	849385	WORD_OFF	n/a	n/a	UNDERWEAR	Clothing	11	6	[0, 0, 0]	n/a	catFR1	3	R1491T
831.215	1.617	850157	WORD	n/a	wordpools/wordpool_categorized_EN.txt	SHOES	Clothing	12	6	[0, 0, 0]	n/a	catFR1	3	R1491T
832.832	0.001	851762	PROB	6.649	n/a	n/a	n/a	-999	6	[7, 2, 4]	13.0	catFR1	3	R1491T
832.833	0.0	851763	START	n/a	n/a	n/a	n/a	-999	6	[-999, -999, -999]	n/a	catFR1	3	R1491T
832.832	0.001	851769	WORD_OFF	n/a	n/a	SHOES	Clothing	12	6	[0, 0, 0]	n/a	catFR1	3	R1491T
832.833	0.0	851769	ENCODING_END	n/a	n/a	n/a	n/a	-999	6	[0, 0, 0]	n/a	catFR1	3	R1491T
832.833	6.666	851769	DISTRACT_START	n/a	n/a	n/a	n/a	-999	6	[0, 0, 0]	n/a	catFR1	3	R1491T
839.499	7.1	858428	PROB	7.083	n/a	n/a	n/a	-999	6	[6, 4, 8]	18.0	catFR1	3	R1491T
846.599	3.5	865528	PROB	3.483	n/a	n/a	n/a	-999	6	[4, 2, 3]	9.0	catFR1	3	R1491T
850.099	4.5	869028	PROB	4.482	n/a	n/a	n/a	-999	6	[5, 4, 6]	15.0	catFR1	3	R1491T
854.599	0.0	873527	STOP	n/a	n/a	n/a	n/a	-999	6	[-999, -999, -999]	n/a	catFR1	3	R1491T
854.599	2.283	873537	DISTRACT_END	n/a	n/a	n/a	n/a	-999	6	[0, 0, 0]	n/a	catFR1	3	R1491T
856.882	29.994	875819	REC_START	n/a	n/a	n/a	n/a	-999	6	[0, 0, 0]	n/a	catFR1	3	R1491T
886.876	0.229	905803	REC_WORD_VV	29.994	n/a	<>	n/a	-999	6	[0, 0, 0]	n/a	catFR1	3	R1491T
887.105	4.11	906039	REC_END	n/a	n/a	n/a	n/a	-999	6	[0, 0, 0]	n/a	catFR1	3	R1491T
891.215	10.351	910145	COUNTDOWN_START	n/a	n/a	n/a	n/a	-999	7	[0, 0, 0]	n/a	catFR1	3	R1491T
901.566	0.0	920492	COUNTDOWN_END	n/a	n/a	n/a	n/a	-999	7	[0, 0, 0]	n/a	catFR1	3	R1491T
901.566	2.183	920506	ENCODING_START	n/a	n/a	n/a	n/a	-999	7	[0, 0, 0]	n/a	catFR1	3	R1491T
903.749	1.6	922683	WORD	n/a	wordpools/wordpool_categorized_EN.txt	DENIM	Fabric	1	7	[0, 0, 0]	n/a	catFR1	3	R1491T
905.349	0.783	924281	WORD_OFF	n/a	n/a	DENIM	Fabric	1	7	[0, 0, 0]	n/a	catFR1	3	R1491T
906.132	1.617	925066	WORD	n/a	wordpools/wordpool_categorized_EN.txt	NYLON	Fabric	2	7	[0, 0, 0]	n/a	catFR1	3	R1491T
907.749	0.816	926678	WORD_OFF	n/a	n/a	NYLON	Fabric	2	7	[0, 0, 0]	n/a	catFR1	3	R1491T
908.565	1.6	927491	WORD	n/a	wordpools/wordpool_categorized_EN.txt	HORSE	FarmAnimals	3	7	[0, 0, 0]	n/a	catFR1	3	R1491T
910.165	0.817	929103	WORD_OFF	n/a	n/a	HORSE	FarmAnimals	3	7	[0, 0, 0]	n/a	catFR1	3	R1491T
910.982	1.6	929916	WORD	n/a	wordpools/wordpool_categorized_EN.txt	GOAT	FarmAnimals	4	7	[0, 0, 0]	n/a	catFR1	3	R1491T
912.582	0.833	931514	WORD_OFF	n/a	n/a	GOAT	FarmAnimals	4	7	[0, 0, 0]	n/a	catFR1	3	R1491T
913.415	1.601	932341	WORD	n/a	wordpools/wordpool_categorized_EN.txt	HUMIDITY	Weather	5	7	[0, 0, 0]	n/a	catFR1	3	R1491T
915.016	0.782	933953	WORD_OFF	n/a	n/a	HUMIDITY	Weather	5	7	[0, 0, 0]	n/a	catFR1	3	R1491T
915.798	1.601	934724	WORD	n/a	wordpools/wordpool_categorized_EN.txt	THUNDERSTORM	Weather	6	7	[0, 0, 0]	n/a	catFR1	3	R1491T
917.399	0.783	936336	WORD_OFF	n/a	n/a	THUNDERSTORM	Weather	6	7	[0, 0, 0]	n/a	catFR1	3	R1491T
918.182	1.617	937108	WORD	n/a	wordpools/wordpool_categorized_EN.txt	SATIN	Fabric	7	7	[0, 0, 0]	n/a	catFR1	3	R1491T
919.799	0.982	938734	WORD_OFF	n/a	n/a	SATIN	Fabric	7	7	[0, 0, 0]	n/a	catFR1	3	R1491T
920.781	1.601	939712	WORD	n/a	wordpools/wordpool_categorized_EN.txt	LINEN	Fabric	8	7	[0, 0, 0]	n/a	catFR1	3	R1491T
922.382	0.883	941310	WORD_OFF	n/a	n/a	LINEN	Fabric	8	7	[0, 0, 0]	n/a	catFR1	3	R1491T
923.265	1.601	942192	WORD	n/a	wordpools/wordpool_categorized_EN.txt	HEN	FarmAnimals	9	7	[0, 0, 0]	n/a	catFR1	3	R1491T
924.866	0.783	943790	WORD_OFF	n/a	n/a	HEN	FarmAnimals	9	7	[0, 0, 0]	n/a	catFR1	3	R1491T
925.649	1.617	944576	WORD	n/a	wordpools/wordpool_categorized_EN.txt	BULL	FarmAnimals	10	7	[0, 0, 0]	n/a	catFR1	3	R1491T
927.266	0.899	946201	WORD_OFF	n/a	n/a	BULL	FarmAnimals	10	7	[0, 0, 0]	n/a	catFR1	3	R1491T
928.165	1.601	947097	WORD	n/a	wordpools/wordpool_categorized_EN.txt	SNOW	Weather	11	7	[0, 0, 0]	n/a	catFR1	3	R1491T
929.766	0.883	948695	WORD_OFF	n/a	n/a	SNOW	Weather	11	7	[0, 0, 0]	n/a	catFR1	3	R1491T
930.649	1.616	949577	WORD	n/a	wordpools/wordpool_categorized_EN.txt	DRIZZLE	Weather	12	7	[0, 0, 0]	n/a	catFR1	3	R1491T
932.265	0.0	951189	WORD_OFF	n/a	n/a	DRIZZLE	Weather	12	7	[0, 0, 0]	n/a	catFR1	3	R1491T
932.265	0.001	951189	PROB	5.167	n/a	n/a	n/a	-999	7	[3, 4, 2]	9.0	catFR1	3	R1491T
932.266	0.0	951190	START	n/a	n/a	n/a	n/a	-999	7	[-999, -999, -999]	n/a	catFR1	3	R1491T
932.266	0.0	951203	ENCODING_END	n/a	n/a	n/a	n/a	-999	7	[0, 0, 0]	n/a	catFR1	3	R1491T
932.266	5.183	951203	DISTRACT_START	n/a	n/a	n/a	n/a	-999	7	[0, 0, 0]	n/a	catFR1	3	R1491T
937.449	4.866	956373	PROB	4.849	n/a	n/a	n/a	-999	7	[5, 5, 6]	16.0	catFR1	3	R1491T
942.315	4.5	961239	PROB	4.483	n/a	n/a	n/a	-999	7	[8, 8, 4]	20.0	catFR1	3	R1491T
946.815	6.767	965739	PROB	6.751	n/a	n/a	n/a	-999	7	[8, 3, 7]	18.0	catFR1	3	R1491T
953.582	0.0	972505	STOP	n/a	n/a	n/a	n/a	-999	7	[-999, -999, -999]	n/a	catFR1	3	R1491T
953.582	2.2	972517	DISTRACT_END	n/a	n/a	n/a	n/a	-999	7	[0, 0, 0]	n/a	catFR1	3	R1491T
955.782	29.995	974716	REC_START	n/a	n/a	n/a	n/a	-999	7	[0, 0, 0]	n/a	catFR1	3	R1491T
985.777	0.226	1004699	REC_WORD_VV	29.995	n/a	<>	n/a	-999	7	[0, 0, 0]	n/a	catFR1	3	R1491T
986.003	2.596	1004936	REC_END	n/a	n/a	n/a	n/a	-999	7	[0, 0, 0]	n/a	catFR1	3	R1491T
988.599	10.349	1007526	COUNTDOWN_START	n/a	n/a	n/a	n/a	-999	8	[0, 0, 0]	n/a	catFR1	3	R1491T
998.948	0.0	1017873	COUNTDOWN_END	n/a	n/a	n/a	n/a	-999	8	[0, 0, 0]	n/a	catFR1	3	R1491T
998.948	2.117	1017873	ENCODING_START	n/a	n/a	n/a	n/a	-999	8	[0, 0, 0]	n/a	catFR1	3	R1491T
1001.065	1.6	1019995	WORD	n/a	wordpools/wordpool_categorized_EN.txt	THUNDER	Weather	1	8	[0, 0, 0]	n/a	catFR1	3	R1491T
1002.665	0.866	1021593	WORD_OFF	n/a	n/a	THUNDER	Weather	1	8	[0, 0, 0]	n/a	catFR1	3	R1491T
1003.531	1.601	1022461	WORD	n/a	wordpools/wordpool_categorized_EN.txt	LIGHTNING	Weather	2	8	[0, 0, 0]	n/a	catFR1	3	R1491T
1005.132	0.8	1024059	WORD_OFF	n/a	n/a	LIGHTNING	Weather	2	8	[0, 0, 0]	n/a	catFR1	3	R1491T
1005.932	1.617	1024859	WORD	n/a	wordpools/wordpool_categorized_EN.txt	TOE	BodyParts	3	8	[0, 0, 0]	n/a	catFR1	3	R1491T
1007.549	0.933	1026471	WORD_OFF	n/a	n/a	TOE	BodyParts	3	8	[0, 0, 0]	n/a	catFR1	3	R1491T
1008.482	1.6	1027407	WORD	n/a	wordpools/wordpool_categorized_EN.txt	EAR	BodyParts	4	8	[0, 0, 0]	n/a	catFR1	3	R1491T
1010.082	1.0	1029006	WORD_OFF	n/a	n/a	EAR	BodyParts	4	8	[0, 0, 0]	n/a	catFR1	3	R1491T
1011.082	1.6	1030011	WORD	n/a	wordpools/wordpool_categorized_EN.txt	CHEETAH	Zoo	5	8	[0, 0, 0]	n/a	catFR1	3	R1491T
1012.682	0.8	1031610	WORD_OFF	n/a	n/a	CHEETAH	Zoo	5	8	[0, 0, 0]	n/a	catFR1	3	R1491T
1013.482	1.617	1032409	WORD	n/a	wordpools/wordpool_categorized_EN.txt	GORILLA	Zoo	6	8	[0, 0, 0]	n/a	catFR1	3	R1491T
1015.099	0.85	1034021	WORD_OFF	n/a	n/a	GORILLA	Zoo	6	8	[0, 0, 0]	n/a	catFR1	3	R1491T
1015.949	1.616	1034875	WORD	n/a	wordpools/wordpool_categorized_EN.txt	HURRICANE	Weather	7	8	[0, 0, 0]	n/a	catFR1	3	R1491T
1017.565	0.817	1036487	WORD_OFF	n/a	n/a	HURRICANE	Weather	7	8	[0, 0, 0]	n/a	catFR1	3	R1491T
1018.382	1.6	1037314	WORD	n/a	wordpools/wordpool_categorized_EN.txt	RAIN	Weather	8	8	[0, 0, 0]	n/a	catFR1	3	R1491T
1019.982	0.867	1038912	WORD_OFF	n/a	n/a	RAIN	Weather	8	8	[0, 0, 0]	n/a	catFR1	3	R1491T
1020.849	1.6	1039780	WORD	n/a	wordpools/wordpool_categorized_EN.txt	FINGERS	BodyParts	9	8	[0, 0, 0]	n/a	catFR1	3	R1491T
1022.449	0.8	1041378	WORD_OFF	n/a	n/a	FINGERS	BodyParts	9	8	[0, 0, 0]	n/a	catFR1	3	R1491T
1023.249	1.6	1042177	WORD	n/a	wordpools/wordpool_categorized_EN.txt	HEAD	BodyParts	10	8	[0, 0, 0]	n/a	catFR1	3	R1491T
1024.849	0.816	1043775	WORD_OFF	n/a	n/a	HEAD	BodyParts	10	8	[0, 0, 0]	n/a	catFR1	3	R1491T
1025.665	1.617	1044588	WORD	n/a	wordpools/wordpool_categorized_EN.txt	ORANGUTAN	Zoo	11	8	[0, 0, 0]	n/a	catFR1	3	R1491T
1027.282	0.8	1046200	WORD_OFF	n/a	n/a	ORANGUTAN	Zoo	11	8	[0, 0, 0]	n/a	catFR1	3	R1491T
1028.082	1.601	1047013	WORD	n/a	wordpools/wordpool_categorized_EN.txt	GIRAFFE	Zoo	12	8	[0, 0, 0]	n/a	catFR1	3	R1491T
1029.683	0.001	1048602	PROB	6.765	n/a	n/a	n/a	-999	8	[6, 8, 5]	19.0	catFR1	3	R1491T
1029.684	0.0	1048603	START	n/a	n/a	n/a	n/a	-999	8	[-999, -999, -999]	n/a	catFR1	3	R1491T
1029.682	0.002	1048611	WORD_OFF	n/a	n/a	GIRAFFE	Zoo	12	8	[0, 0, 0]	n/a	catFR1	3	R1491T
1029.684	0.0	1048611	ENCODING_END	n/a	n/a	n/a	n/a	-999	8	[0, 0, 0]	n/a	catFR1	3	R1491T
1029.684	6.781	1048611	DISTRACT_START	n/a	n/a	n/a	n/a	-999	8	[0, 0, 0]	n/a	catFR1	3	R1491T
1036.465	3.784	1055384	PROB	3.767	n/a	n/a	n/a	-999	8	[3, 2, 6]	11.0	catFR1	3	R1491T
1040.249	2.617	1059168	PROB	2.599	n/a	n/a	n/a	-999	8	[2, 3, 1]	6.0	catFR1	3	R1491T
1042.866	4.683	1061785	PROB	4.665	n/a	n/a	n/a	-999	8	[6, 3, 3]	12.0	catFR1	3	R1491T
1047.549	3.732	1066468	PROB	3.716	n/a	n/a	n/a	-999	8	[3, 6, 2]	11.0	catFR1	3	R1491T
1051.281	0.0	1070199	STOP	n/a	n/a	n/a	n/a	-999	8	[-999, -999, -999]	n/a	catFR1	3	R1491T
1051.281	2.168	1070201	DISTRACT_END	n/a	n/a	n/a	n/a	-999	8	[0, 0, 0]	n/a	catFR1	3	R1491T
1053.449	29.994	1072372	REC_START	n/a	n/a	n/a	n/a	-999	8	[0, 0, 0]	n/a	catFR1	3	R1491T
1083.443	0.242	1102360	REC_WORD_VV	29.994	n/a	<>	n/a	-999	8	[0, 0, 0]	n/a	catFR1	3	R1491T
1083.685	0.0	1102607	REC_END	n/a	n/a	n/a	n/a	-999	8	[0, 0, 0]	n/a	catFR1	3	R1491T
