onset	duration	sample	trial_type	response_time	stim_file	item_name	category	serialpos	list	test	answer	experiment	session	subject
0.0	216.805	20	INSTRUCT_START	n/a	n/a	n/a	n/a	-999	-999	[0, 0, 0]	n/a	catFR1	0	R1372C
216.805	58.212	217413	INSTRUCT_END	n/a	n/a	n/a	n/a	-999	-999	[0, 0, 0]	n/a	catFR1	0	R1372C
275.017	10.43	275624	COUNTDOWN_START	n/a	n/a	n/a	n/a	-999	-999	[0, 0, 0]	n/a	catFR1	0	R1372C
285.447	1.188	286026	COUNTDOWN_END	n/a	n/a	n/a	n/a	-999	-999	[0, 0, 0]	n/a	catFR1	0	R1372C
286.635	0.876	287211	ENCODING_START	n/a	n/a	n/a	n/a	-999	-1	[0, 0, 0]	n/a	catFR1	0	R1372C
287.511	1.624	288093	WORD	n/a	n/a	HOUR	n/a	1	-1	[0, 0, 0]	n/a	catFR1	0	R1372C
289.135	0.969	289705	WORD_OFF	n/a	n/a	HOUR	n/a	1	-1	[0, 0, 0]	n/a	catFR1	0	R1372C
290.104	1.631	290697	WORD	n/a	n/a	DAY	n/a	2	-1	[0, 0, 0]	n/a	catFR1	0	R1372C
291.735	0.756	292309	WORD_OFF	n/a	n/a	DAY	n/a	2	-1	[0, 0, 0]	n/a	catFR1	0	R1372C
292.491	1.628	293080	WORD	n/a	n/a	DENIM	n/a	3	-1	[0, 0, 0]	n/a	catFR1	0	R1372C
294.119	0.775	294692	WORD_OFF	n/a	n/a	DENIM	n/a	3	-1	[0, 0, 0]	n/a	catFR1	0	R1372C
294.894	1.626	295478	WORD	n/a	n/a	MINUTE	n/a	4	-1	[0, 0, 0]	n/a	catFR1	0	R1372C
296.52	1.021	297090	WORD_OFF	n/a	n/a	MINUTE	n/a	4	-1	[0, 0, 0]	n/a	catFR1	0	R1372C
297.541	1.629	298123	WORD	n/a	n/a	SECOND	n/a	5	-1	[0, 0, 0]	n/a	catFR1	0	R1372C
299.17	0.828	299749	WORD_OFF	n/a	n/a	SECOND	n/a	5	-1	[0, 0, 0]	n/a	catFR1	0	R1372C
299.998	1.639	300589	WORD	n/a	n/a	PLUMBER	n/a	6	-1	[0, 0, 0]	n/a	catFR1	0	R1372C
301.637	1.052	302215	WORD_OFF	n/a	n/a	PLUMBER	n/a	6	-1	[0, 0, 0]	n/a	catFR1	0	R1372C
302.689	1.632	303276	WORD	n/a	n/a	FIREMAN	n/a	7	-1	[0, 0, 0]	n/a	catFR1	0	R1372C
304.321	1.094	304901	WORD_OFF	n/a	n/a	FIREMAN	n/a	7	-1	[0, 0, 0]	n/a	catFR1	0	R1372C
305.415	1.623	305990	WORD	n/a	n/a	WOOL	n/a	8	-1	[0, 0, 0]	n/a	catFR1	0	R1372C
307.038	1.027	307616	WORD_OFF	n/a	n/a	WOOL	n/a	8	-1	[0, 0, 0]	n/a	catFR1	0	R1372C
308.065	1.624	308649	WORD	n/a	n/a	TEACHER	n/a	9	-1	[0, 0, 0]	n/a	catFR1	0	R1372C
309.689	0.9	310261	WORD_OFF	n/a	n/a	TEACHER	n/a	9	-1	[0, 0, 0]	n/a	catFR1	0	R1372C
310.589	1.633	311184	WORD	n/a	n/a	LEATHER	n/a	10	-1	[0, 0, 0]	n/a	catFR1	0	R1372C
312.222	0.865	312796	WORD_OFF	n/a	n/a	LEATHER	n/a	10	-1	[0, 0, 0]	n/a	catFR1	0	R1372C
313.087	1.637	313678	WORD	n/a	n/a	SILK	n/a	11	-1	[0, 0, 0]	n/a	catFR1	0	R1372C
314.724	0.769	315290	WORD_OFF	n/a	n/a	SILK	n/a	11	-1	[0, 0, 0]	n/a	catFR1	0	R1372C
315.493	1.632	316075	WORD	n/a	n/a	FARMER	n/a	12	-1	[0, 0, 0]	n/a	catFR1	0	R1372C
317.125	0.0	317708	START	n/a	n/a	n/a	n/a	-999	-1	[-999, -999, -999]	n/a	catFR1	0	R1372C
317.123	0.001	317715	WORD_OFF	n/a	n/a	FARMER	n/a	12	-1	[0, 0, 0]	n/a	catFR1	0	R1372C
317.124	0.001	317715	ENCODING_END	n/a	n/a	n/a	n/a	-999	-1	[0, 0, 0]	n/a	catFR1	0	R1372C
317.125	0.015	317715	DISTRACT_START	n/a	n/a	n/a	n/a	-999	-1	[0, 0, 0]	n/a	catFR1	0	R1372C
317.14	27.673	317723	PROB	27.673	n/a	n/a	n/a	-999	-1	[5, 3, 6]	14.0	catFR1	0	R1372C
344.813	0.016	345395	STOP	n/a	n/a	n/a	n/a	-999	-1	[-999, -999, -999]	n/a	catFR1	0	R1372C
344.829	2.151	345408	DISTRACT_END	n/a	n/a	n/a	n/a	-999	-1	[0, 0, 0]	n/a	catFR1	0	R1372C
346.98	9.98	347571	REC_START	n/a	n/a	n/a	n/a	-999	-1	[0, 0, 0]	n/a	catFR1	0	R1372C
356.96	20.031	357541	REC_WORD	9.98	n/a	HOUR	n/a	1	-1	[0, 0, 0]	n/a	catFR1	0	R1372C
376.991	41.952	378819	REC_END	n/a	n/a	n/a	n/a	-999	-1	[0, 0, 0]	n/a	catFR1	0	R1372C
418.943	10.43	419546	COUNTDOWN_START	n/a	n/a	n/a	n/a	-999	1	[0, 0, 0]	n/a	catFR1	0	R1372C
429.373	1.073	429948	COUNTDOWN_END	n/a	n/a	n/a	n/a	-999	1	[0, 0, 0]	n/a	catFR1	0	R1372C
430.446	0.986	431009	ENCODING_START	n/a	n/a	n/a	n/a	-999	1	[0, 0, 0]	n/a	catFR1	0	R1372C
431.432	1.63	432015	WORD	n/a	wordpools/wordpool_categorized_EN.txt	FREEZER	Appliances	1	1	[0, 0, 0]	n/a	catFR1	0	R1372C
433.062	0.973	433627	WORD_OFF	n/a	n/a	FREEZER	Appliances	1	1	[0, 0, 0]	n/a	catFR1	0	R1372C
434.035	1.627	434605	WORD	n/a	wordpools/wordpool_categorized_EN.txt	STOVE	Appliances	2	1	[0, 0, 0]	n/a	catFR1	0	R1372C
435.662	0.778	436231	WORD_OFF	n/a	n/a	STOVE	Appliances	2	1	[0, 0, 0]	n/a	catFR1	0	R1372C
436.44	1.623	437016	WORD	n/a	wordpools/wordpool_categorized_EN.txt	BOOKCASE	Furniture	3	1	[0, 0, 0]	n/a	catFR1	0	R1372C
438.063	0.871	438628	WORD_OFF	n/a	n/a	BOOKCASE	Furniture	3	1	[0, 0, 0]	n/a	catFR1	0	R1372C
438.934	1.629	439510	WORD	n/a	wordpools/wordpool_categorized_EN.txt	RECLINER	Furniture	4	1	[0, 0, 0]	n/a	catFR1	0	R1372C
440.563	1.021	441136	WORD_OFF	n/a	n/a	RECLINER	Furniture	4	1	[0, 0, 0]	n/a	catFR1	0	R1372C
441.584	1.629	442169	WORD	n/a	wordpools/wordpool_categorized_EN.txt	DRUM	Instruments	5	1	[0, 0, 0]	n/a	catFR1	0	R1372C
443.213	0.818	443781	WORD_OFF	n/a	n/a	DRUM	Instruments	5	1	[0, 0, 0]	n/a	catFR1	0	R1372C
444.031	1.633	444608	WORD	n/a	wordpools/wordpool_categorized_EN.txt	VIOLIN	Instruments	6	1	[0, 0, 0]	n/a	catFR1	0	R1372C
445.664	0.758	446234	WORD_OFF	n/a	n/a	VIOLIN	Instruments	6	1	[0, 0, 0]	n/a	catFR1	0	R1372C
446.422	1.626	446992	WORD	n/a	wordpools/wordpool_categorized_EN.txt	BED	Furniture	7	1	[0, 0, 0]	n/a	catFR1	0	R1372C
448.048	0.864	448617	WORD_OFF	n/a	n/a	BED	Furniture	7	1	[0, 0, 0]	n/a	catFR1	0	R1372C
448.912	1.619	449499	WORD	n/a	wordpools/wordpool_categorized_EN.txt	CABINET	Furniture	8	1	[0, 0, 0]	n/a	catFR1	0	R1372C
450.531	0.997	451097	WORD_OFF	n/a	n/a	CABINET	Furniture	8	1	[0, 0, 0]	n/a	catFR1	0	R1372C
451.528	1.638	452117	WORD	n/a	wordpools/wordpool_categorized_EN.txt	OVEN	Appliances	9	1	[0, 0, 0]	n/a	catFR1	0	R1372C
453.166	1.149	453729	WORD_OFF	n/a	n/a	OVEN	Appliances	9	1	[0, 0, 0]	n/a	catFR1	0	R1372C
454.315	1.633	454900	WORD	n/a	wordpools/wordpool_categorized_EN.txt	BLENDER	Appliances	10	1	[0, 0, 0]	n/a	catFR1	0	R1372C
455.948	0.91	456512	WORD_OFF	n/a	n/a	BLENDER	Appliances	10	1	[0, 0, 0]	n/a	catFR1	0	R1372C
456.858	1.625	457435	WORD	n/a	wordpools/wordpool_categorized_EN.txt	CELLO	Instruments	11	1	[0, 0, 0]	n/a	catFR1	0	R1372C
458.483	1.022	459047	WORD_OFF	n/a	n/a	CELLO	Instruments	11	1	[0, 0, 0]	n/a	catFR1	0	R1372C
459.505	1.63	460080	WORD	n/a	wordpools/wordpool_categorized_EN.txt	ORGAN	Instruments	12	1	[0, 0, 0]	n/a	catFR1	0	R1372C
461.135	0.0	461711	START	n/a	n/a	n/a	n/a	-999	1	[-999, -999, -999]	n/a	catFR1	0	R1372C
461.134	0.0	461720	WORD_OFF	n/a	n/a	ORGAN	Instruments	12	1	[0, 0, 0]	n/a	catFR1	0	R1372C
461.134	0.001	461720	ENCODING_END	n/a	n/a	n/a	n/a	-999	1	[0, 0, 0]	n/a	catFR1	0	R1372C
461.135	0.015	461720	DISTRACT_START	n/a	n/a	n/a	n/a	-999	1	[0, 0, 0]	n/a	catFR1	0	R1372C
461.15	21.303	461726	PROB	21.303	n/a	n/a	n/a	-999	1	[8, 4, 6]	18.0	catFR1	0	R1372C
482.453	0.018	483028	STOP	n/a	n/a	n/a	n/a	-999	1	[-999, -999, -999]	n/a	catFR1	0	R1372C
482.471	2.268	483034	DISTRACT_END	n/a	n/a	n/a	n/a	-999	1	[0, 0, 0]	n/a	catFR1	0	R1372C
484.739	8.281	485321	REC_START	n/a	n/a	n/a	n/a	-999	1	[0, 0, 0]	n/a	catFR1	0	R1372C
493.02	1.937	493594	REC_WORD	8.281	n/a	STOVE	Appliances	2	1	[0, 0, 0]	n/a	catFR1	0	R1372C
494.957	2.924	495531	REC_WORD	10.218	n/a	FREEZER	Appliances	1	1	[0, 0, 0]	n/a	catFR1	0	R1372C
497.881	16.87	498455	REC_WORD	13.142	n/a	OVEN	Appliances	9	1	[0, 0, 0]	n/a	catFR1	0	R1372C
514.751	37.084	515343	REC_END	n/a	n/a	n/a	n/a	-999	1	[0, 0, 0]	n/a	catFR1	0	R1372C
551.835	10.428	552433	COUNTDOWN_START	n/a	n/a	n/a	n/a	-999	2	[0, 0, 0]	n/a	catFR1	0	R1372C
562.263	1.108	562835	COUNTDOWN_END	n/a	n/a	n/a	n/a	-999	2	[0, 0, 0]	n/a	catFR1	0	R1372C
563.371	0.828	563937	ENCODING_START	n/a	n/a	n/a	n/a	-999	2	[0, 0, 0]	n/a	catFR1	0	R1372C
564.199	1.638	564778	WORD	n/a	wordpools/wordpool_categorized_EN.txt	KNEE	BodyParts	1	2	[0, 0, 0]	n/a	catFR1	0	R1372C
565.837	1.049	566403	WORD_OFF	n/a	n/a	KNEE	BodyParts	1	2	[0, 0, 0]	n/a	catFR1	0	R1372C
566.886	1.635	567464	WORD	n/a	wordpools/wordpool_categorized_EN.txt	FINGERS	BodyParts	2	2	[0, 0, 0]	n/a	catFR1	0	R1372C
568.521	0.942	569076	WORD_OFF	n/a	n/a	FINGERS	BodyParts	2	2	[0, 0, 0]	n/a	catFR1	0	R1372C
569.463	1.625	570027	WORD	n/a	wordpools/wordpool_categorized_EN.txt	STEREO	Electronics	3	2	[0, 0, 0]	n/a	catFR1	0	R1372C
571.088	0.923	571653	WORD_OFF	n/a	n/a	STEREO	Electronics	3	2	[0, 0, 0]	n/a	catFR1	0	R1372C
572.011	1.627	572576	WORD	n/a	wordpools/wordpool_categorized_EN.txt	PHONE	Electronics	4	2	[0, 0, 0]	n/a	catFR1	0	R1372C
573.638	1.081	574202	WORD_OFF	n/a	n/a	PHONE	Electronics	4	2	[0, 0, 0]	n/a	catFR1	0	R1372C
574.719	1.636	575304	WORD	n/a	wordpools/wordpool_categorized_EN.txt	ZEBRA	Zoo	5	2	[0, 0, 0]	n/a	catFR1	0	R1372C
576.355	0.835	576916	WORD_OFF	n/a	n/a	ZEBRA	Zoo	5	2	[0, 0, 0]	n/a	catFR1	0	R1372C
577.19	1.633	577770	WORD	n/a	wordpools/wordpool_categorized_EN.txt	MONKEY	Zoo	6	2	[0, 0, 0]	n/a	catFR1	0	R1372C
578.823	0.756	579382	WORD_OFF	n/a	n/a	MONKEY	Zoo	6	2	[0, 0, 0]	n/a	catFR1	0	R1372C
579.579	1.627	580154	WORD	n/a	wordpools/wordpool_categorized_EN.txt	PRINTER	Electronics	7	2	[0, 0, 0]	n/a	catFR1	0	R1372C
581.206	1.097	581766	WORD_OFF	n/a	n/a	PRINTER	Electronics	7	2	[0, 0, 0]	n/a	catFR1	0	R1372C
582.303	1.636	582882	WORD	n/a	wordpools/wordpool_categorized_EN.txt	HEADPHONES	Electronics	8	2	[0, 0, 0]	n/a	catFR1	0	R1372C
583.939	0.799	584494	WORD_OFF	n/a	n/a	HEADPHONES	Electronics	8	2	[0, 0, 0]	n/a	catFR1	0	R1372C
584.738	1.636	585320	WORD	n/a	wordpools/wordpool_categorized_EN.txt	NOSE	BodyParts	9	2	[0, 0, 0]	n/a	catFR1	0	R1372C
586.374	0.887	586932	WORD_OFF	n/a	n/a	NOSE	BodyParts	9	2	[0, 0, 0]	n/a	catFR1	0	R1372C
587.261	1.629	587828	WORD	n/a	wordpools/wordpool_categorized_EN.txt	TOE	BodyParts	10	2	[0, 0, 0]	n/a	catFR1	0	R1372C
588.89	0.824	589454	WORD_OFF	n/a	n/a	TOE	BodyParts	10	2	[0, 0, 0]	n/a	catFR1	0	R1372C
589.714	1.628	590280	WORD	n/a	wordpools/wordpool_categorized_EN.txt	GORILLA	Zoo	11	2	[0, 0, 0]	n/a	catFR1	0	R1372C
591.342	1.022	591906	WORD_OFF	n/a	n/a	GORILLA	Zoo	11	2	[0, 0, 0]	n/a	catFR1	0	R1372C
592.364	1.629	592939	WORD	n/a	wordpools/wordpool_categorized_EN.txt	ELEPHANT	Zoo	12	2	[0, 0, 0]	n/a	catFR1	0	R1372C
593.993	0.0	594562	START	n/a	n/a	n/a	n/a	-999	2	[-999, -999, -999]	n/a	catFR1	0	R1372C
593.992	0.001	594565	WORD_OFF	n/a	n/a	ELEPHANT	Zoo	12	2	[0, 0, 0]	n/a	catFR1	0	R1372C
593.993	0.0	594565	ENCODING_END	n/a	n/a	n/a	n/a	-999	2	[0, 0, 0]	n/a	catFR1	0	R1372C
593.993	0.016	594565	DISTRACT_START	n/a	n/a	n/a	n/a	-999	2	[0, 0, 0]	n/a	catFR1	0	R1372C
594.009	8.95	594578	PROB	8.911	n/a	n/a	n/a	-999	2	[6, 4, 9]	19.0	catFR1	0	R1372C
602.959	11.855	603527	PROB	11.855	n/a	n/a	n/a	-999	2	[6, 4, 3]	13.0	catFR1	0	R1372C
614.814	0.015	615382	STOP	n/a	n/a	n/a	n/a	-999	2	[-999, -999, -999]	n/a	catFR1	0	R1372C
614.829	2.368	615383	DISTRACT_END	n/a	n/a	n/a	n/a	-999	2	[0, 0, 0]	n/a	catFR1	0	R1372C
617.197	2.747	617767	REC_START	n/a	n/a	n/a	n/a	-999	2	[0, 0, 0]	n/a	catFR1	0	R1372C
619.944	6.476	620512	REC_WORD	2.747	n/a	KNEE	BodyParts	1	2	[0, 0, 0]	n/a	catFR1	0	R1372C
626.42	3.191	626987	REC_WORD	9.223	n/a	MONKEY	Zoo	6	2	[0, 0, 0]	n/a	catFR1	0	R1372C
629.611	17.597	630178	REC_WORD	12.414	n/a	GORILLA	Zoo	11	2	[0, 0, 0]	n/a	catFR1	0	R1372C
647.208	23.182	647789	REC_END	n/a	n/a	n/a	n/a	-999	2	[0, 0, 0]	n/a	catFR1	0	R1372C
670.39	10.429	670977	COUNTDOWN_START	n/a	n/a	n/a	n/a	-999	3	[0, 0, 0]	n/a	catFR1	0	R1372C
680.819	1.089	681379	COUNTDOWN_END	n/a	n/a	n/a	n/a	-999	3	[0, 0, 0]	n/a	catFR1	0	R1372C
681.908	0.799	682467	ENCODING_START	n/a	n/a	n/a	n/a	-999	3	[0, 0, 0]	n/a	catFR1	0	R1372C
682.707	1.635	683280	WORD	n/a	wordpools/wordpool_categorized_EN.txt	BULL	FarmAnimals	1	3	[0, 0, 0]	n/a	catFR1	0	R1372C
684.342	1.132	684892	WORD_OFF	n/a	n/a	BULL	FarmAnimals	1	3	[0, 0, 0]	n/a	catFR1	0	R1372C
685.474	1.636	686050	WORD	n/a	wordpools/wordpool_categorized_EN.txt	PIG	FarmAnimals	2	3	[0, 0, 0]	n/a	catFR1	0	R1372C
687.11	0.761	687662	WORD_OFF	n/a	n/a	PIG	FarmAnimals	2	3	[0, 0, 0]	n/a	catFR1	0	R1372C
687.871	1.639	688447	WORD	n/a	wordpools/wordpool_categorized_EN.txt	LIME	Fruit	3	3	[0, 0, 0]	n/a	catFR1	0	R1372C
689.51	1.035	690059	WORD_OFF	n/a	n/a	LIME	Fruit	3	3	[0, 0, 0]	n/a	catFR1	0	R1372C
690.545	1.632	691106	WORD	n/a	wordpools/wordpool_categorized_EN.txt	BLUEBERRY	Fruit	4	3	[0, 0, 0]	n/a	catFR1	0	R1372C
692.177	0.784	692732	WORD_OFF	n/a	n/a	BLUEBERRY	Fruit	4	3	[0, 0, 0]	n/a	catFR1	0	R1372C
692.961	1.633	693531	WORD	n/a	wordpools/wordpool_categorized_EN.txt	POTATO	Vegetables	5	3	[0, 0, 0]	n/a	catFR1	0	R1372C
694.594	0.867	695143	WORD_OFF	n/a	n/a	POTATO	Vegetables	5	3	[0, 0, 0]	n/a	catFR1	0	R1372C
695.461	1.634	696038	WORD	n/a	wordpools/wordpool_categorized_EN.txt	ONION	Vegetables	6	3	[0, 0, 0]	n/a	catFR1	0	R1372C
697.095	0.834	697650	WORD_OFF	n/a	n/a	ONION	Vegetables	6	3	[0, 0, 0]	n/a	catFR1	0	R1372C
697.929	1.633	698505	WORD	n/a	wordpools/wordpool_categorized_EN.txt	CHICKEN	FarmAnimals	7	3	[0, 0, 0]	n/a	catFR1	0	R1372C
699.562	1.056	700117	WORD_OFF	n/a	n/a	CHICKEN	FarmAnimals	7	3	[0, 0, 0]	n/a	catFR1	0	R1372C
700.618	1.628	701178	WORD	n/a	wordpools/wordpool_categorized_EN.txt	GOAT	FarmAnimals	8	3	[0, 0, 0]	n/a	catFR1	0	R1372C
702.246	1.046	702803	WORD_OFF	n/a	n/a	GOAT	FarmAnimals	8	3	[0, 0, 0]	n/a	catFR1	0	R1372C
703.292	1.638	703864	WORD	n/a	wordpools/wordpool_categorized_EN.txt	CHERRY	Fruit	9	3	[0, 0, 0]	n/a	catFR1	0	R1372C
704.93	1.068	705490	WORD_OFF	n/a	n/a	CHERRY	Fruit	9	3	[0, 0, 0]	n/a	catFR1	0	R1372C
705.998	1.632	706565	WORD	n/a	wordpools/wordpool_categorized_EN.txt	APPLE	Fruit	10	3	[0, 0, 0]	n/a	catFR1	0	R1372C
707.63	0.949	708190	WORD_OFF	n/a	n/a	APPLE	Fruit	10	3	[0, 0, 0]	n/a	catFR1	0	R1372C
708.579	1.635	709155	WORD	n/a	wordpools/wordpool_categorized_EN.txt	CUCUMBER	Vegetables	11	3	[0, 0, 0]	n/a	catFR1	0	R1372C
710.214	1.058	710767	WORD_OFF	n/a	n/a	CUCUMBER	Vegetables	11	3	[0, 0, 0]	n/a	catFR1	0	R1372C
711.272	1.626	711828	WORD	n/a	wordpools/wordpool_categorized_EN.txt	BROCCOLI	Vegetables	12	3	[0, 0, 0]	n/a	catFR1	0	R1372C
712.898	0.0	713461	START	n/a	n/a	n/a	n/a	-999	3	[-999, -999, -999]	n/a	catFR1	0	R1372C
712.897	0.0	713467	WORD_OFF	n/a	n/a	BROCCOLI	Vegetables	12	3	[0, 0, 0]	n/a	catFR1	0	R1372C
712.897	0.001	713467	ENCODING_END	n/a	n/a	n/a	n/a	-999	3	[0, 0, 0]	n/a	catFR1	0	R1372C
712.898	0.015	713467	DISTRACT_START	n/a	n/a	n/a	n/a	-999	3	[0, 0, 0]	n/a	catFR1	0	R1372C
712.913	5.669	713476	PROB	5.635	n/a	n/a	n/a	-999	3	[3, 1, 1]	5.0	catFR1	0	R1372C
718.582	6.785	719144	PROB	6.76	n/a	n/a	n/a	-999	3	[9, 2, 4]	15.0	catFR1	0	R1372C
725.367	8.53	725929	PROB	8.53	n/a	n/a	n/a	-999	3	[4, 1, 8]	13.0	catFR1	0	R1372C
733.897	0.02	734459	STOP	n/a	n/a	n/a	n/a	-999	3	[-999, -999, -999]	n/a	catFR1	0	R1372C
733.917	2.153	734478	DISTRACT_END	n/a	n/a	n/a	n/a	-999	3	[0, 0, 0]	n/a	catFR1	0	R1372C
736.07	1.449	736628	REC_START	n/a	n/a	n/a	n/a	-999	3	[0, 0, 0]	n/a	catFR1	0	R1372C
737.519	1.589	738080	REC_WORD	1.449	n/a	BULL	FarmAnimals	1	3	[0, 0, 0]	n/a	catFR1	0	R1372C
739.108	3.172	739669	REC_WORD	3.038	n/a	CUCUMBER	Vegetables	11	3	[0, 0, 0]	n/a	catFR1	0	R1372C
742.28	5.219	742841	REC_WORD	6.21	n/a	POTATO	Vegetables	5	3	[0, 0, 0]	n/a	catFR1	0	R1372C
747.499	2.193	748060	REC_WORD	11.429	n/a	CHERRY	Fruit	9	3	[0, 0, 0]	n/a	catFR1	0	R1372C
749.692	10.187	750253	REC_WORD	13.622	n/a	BLUEBERRY	Fruit	4	3	[0, 0, 0]	n/a	catFR1	0	R1372C
759.879	6.202	760439	REC_WORD	23.809	n/a	KNEE	BodyParts	-999	3	[0, 0, 0]	n/a	catFR1	0	R1372C
766.081	32.767	766663	REC_END	n/a	n/a	n/a	n/a	-999	3	[0, 0, 0]	n/a	catFR1	0	R1372C
798.848	10.429	799427	COUNTDOWN_START	n/a	n/a	n/a	n/a	-999	4	[0, 0, 0]	n/a	catFR1	0	R1372C
809.277	1.173	809829	COUNTDOWN_END	n/a	n/a	n/a	n/a	-999	4	[0, 0, 0]	n/a	catFR1	0	R1372C
810.45	0.887	811000	ENCODING_START	n/a	n/a	n/a	n/a	-999	4	[0, 0, 0]	n/a	catFR1	0	R1372C
811.337	1.629	811896	WORD	n/a	wordpools/wordpool_categorized_EN.txt	WALL	Building	1	4	[0, 0, 0]	n/a	catFR1	0	R1372C
812.966	0.987	813521	WORD_OFF	n/a	n/a	WALL	Building	1	4	[0, 0, 0]	n/a	catFR1	0	R1372C
813.953	1.631	814513	WORD	n/a	wordpools/wordpool_categorized_EN.txt	ROOF	Building	2	4	[0, 0, 0]	n/a	catFR1	0	R1372C
815.584	0.969	816125	WORD_OFF	n/a	n/a	ROOF	Building	2	4	[0, 0, 0]	n/a	catFR1	0	R1372C
816.553	1.631	817117	WORD	n/a	wordpools/wordpool_categorized_EN.txt	TONGS	KitchenTools	3	4	[0, 0, 0]	n/a	catFR1	0	R1372C
818.184	0.882	818729	WORD_OFF	n/a	n/a	TONGS	KitchenTools	3	4	[0, 0, 0]	n/a	catFR1	0	R1372C
819.066	1.635	819625	WORD	n/a	wordpools/wordpool_categorized_EN.txt	FORK	KitchenTools	4	4	[0, 0, 0]	n/a	catFR1	0	R1372C
820.701	1.125	821251	WORD_OFF	n/a	n/a	FORK	KitchenTools	4	4	[0, 0, 0]	n/a	catFR1	0	R1372C
821.826	1.626	822381	WORD	n/a	wordpools/wordpool_categorized_EN.txt	RIVER	Landscapes	5	4	[0, 0, 0]	n/a	catFR1	0	R1372C
823.452	1.012	824006	WORD_OFF	n/a	n/a	RIVER	Landscapes	5	4	[0, 0, 0]	n/a	catFR1	0	R1372C
824.464	1.638	825026	WORD	n/a	wordpools/wordpool_categorized_EN.txt	LAKE	Landscapes	6	4	[0, 0, 0]	n/a	catFR1	0	R1372C
826.102	0.788	826652	WORD_OFF	n/a	n/a	LAKE	Landscapes	6	4	[0, 0, 0]	n/a	catFR1	0	R1372C
826.89	1.629	827451	WORD	n/a	wordpools/wordpool_categorized_EN.txt	PEELER	KitchenTools	7	4	[0, 0, 0]	n/a	catFR1	0	R1372C
828.519	0.756	829063	WORD_OFF	n/a	n/a	PEELER	KitchenTools	7	4	[0, 0, 0]	n/a	catFR1	0	R1372C
829.275	1.627	829834	WORD	n/a	wordpools/wordpool_categorized_EN.txt	LADLE	KitchenTools	8	4	[0, 0, 0]	n/a	catFR1	0	R1372C
830.902	1.007	831446	WORD_OFF	n/a	n/a	LADLE	KitchenTools	8	4	[0, 0, 0]	n/a	catFR1	0	R1372C
831.909	1.628	832466	WORD	n/a	wordpools/wordpool_categorized_EN.txt	ROOM	Building	9	4	[0, 0, 0]	n/a	catFR1	0	R1372C
833.537	0.785	834078	WORD_OFF	n/a	n/a	ROOM	Building	9	4	[0, 0, 0]	n/a	catFR1	0	R1372C
834.322	1.631	834877	WORD	n/a	wordpools/wordpool_categorized_EN.txt	BATHROOM	Building	10	4	[0, 0, 0]	n/a	catFR1	0	R1372C
835.953	1.069	836503	WORD_OFF	n/a	n/a	BATHROOM	Building	10	4	[0, 0, 0]	n/a	catFR1	0	R1372C
837.022	1.633	837577	WORD	n/a	wordpools/wordpool_categorized_EN.txt	ISLAND	Landscapes	11	4	[0, 0, 0]	n/a	catFR1	0	R1372C
838.655	1.147	839203	WORD_OFF	n/a	n/a	ISLAND	Landscapes	11	4	[0, 0, 0]	n/a	catFR1	0	R1372C
839.802	1.638	840374	WORD	n/a	wordpools/wordpool_categorized_EN.txt	VALLEY	Landscapes	12	4	[0, 0, 0]	n/a	catFR1	0	R1372C
841.44	0.0	841996	START	n/a	n/a	n/a	n/a	-999	4	[-999, -999, -999]	n/a	catFR1	0	R1372C
841.439	0.0	842000	WORD_OFF	n/a	n/a	VALLEY	Landscapes	12	4	[0, 0, 0]	n/a	catFR1	0	R1372C
841.439	0.001	842000	ENCODING_END	n/a	n/a	n/a	n/a	-999	4	[0, 0, 0]	n/a	catFR1	0	R1372C
841.44	0.015	842000	DISTRACT_START	n/a	n/a	n/a	n/a	-999	4	[0, 0, 0]	n/a	catFR1	0	R1372C
841.455	6.751	842011	PROB	6.717	n/a	n/a	n/a	-999	4	[4, 7, 1]	12.0	catFR1	0	R1372C
848.206	15.748	848762	PROB	15.748	n/a	n/a	n/a	-999	4	[8, 9, 6]	23.0	catFR1	0	R1372C
863.954	0.021	864509	STOP	n/a	n/a	n/a	n/a	-999	4	[-999, -999, -999]	n/a	catFR1	0	R1372C
863.975	2.152	864527	DISTRACT_END	n/a	n/a	n/a	n/a	-999	4	[0, 0, 0]	n/a	catFR1	0	R1372C
866.127	1.968	866690	REC_START	n/a	n/a	n/a	n/a	-999	4	[0, 0, 0]	n/a	catFR1	0	R1372C
868.095	1.63	868650	REC_WORD	1.968	n/a	LAKE	Landscapes	6	4	[0, 0, 0]	n/a	catFR1	0	R1372C
869.725	10.644	870280	REC_WORD	3.598	n/a	RIVER	Landscapes	5	4	[0, 0, 0]	n/a	catFR1	0	R1372C
880.369	15.767	880923	REC_WORD	14.242	n/a	TONGS	KitchenTools	3	4	[0, 0, 0]	n/a	catFR1	0	R1372C
896.136	21.951	896712	REC_END	n/a	n/a	n/a	n/a	-999	4	[0, 0, 0]	n/a	catFR1	0	R1372C
918.087	10.428	918660	COUNTDOWN_START	n/a	n/a	n/a	n/a	-999	5	[0, 0, 0]	n/a	catFR1	0	R1372C
928.515	1.258	929062	COUNTDOWN_END	n/a	n/a	n/a	n/a	-999	5	[0, 0, 0]	n/a	catFR1	0	R1372C
929.773	1.018	930316	ENCODING_START	n/a	n/a	n/a	n/a	-999	5	[0, 0, 0]	n/a	catFR1	0	R1372C
930.791	1.631	931349	WORD	n/a	wordpools/wordpool_categorized_EN.txt	BEE	Insects	1	5	[0, 0, 0]	n/a	catFR1	0	R1372C
932.422	1.007	932961	WORD_OFF	n/a	n/a	BEE	Insects	1	5	[0, 0, 0]	n/a	catFR1	0	R1372C
933.429	1.627	933980	WORD	n/a	wordpools/wordpool_categorized_EN.txt	ROACH	Insects	2	5	[0, 0, 0]	n/a	catFR1	0	R1372C
935.056	1.118	935592	WORD_OFF	n/a	n/a	ROACH	Insects	2	5	[0, 0, 0]	n/a	catFR1	0	R1372C
936.174	1.633	936736	WORD	n/a	wordpools/wordpool_categorized_EN.txt	BEACH	Landscapes	3	5	[0, 0, 0]	n/a	catFR1	0	R1372C
937.807	0.808	938348	WORD_OFF	n/a	n/a	BEACH	Landscapes	3	5	[0, 0, 0]	n/a	catFR1	0	R1372C
938.615	1.625	939161	WORD	n/a	wordpools/wordpool_categorized_EN.txt	HILLS	Landscapes	4	5	[0, 0, 0]	n/a	catFR1	0	R1372C
940.24	0.939	940787	WORD_OFF	n/a	n/a	HILLS	Landscapes	4	5	[0, 0, 0]	n/a	catFR1	0	R1372C
941.179	1.629	941737	WORD	n/a	wordpools/wordpool_categorized_EN.txt	GIRAFFE	Zoo	5	5	[0, 0, 0]	n/a	catFR1	0	R1372C
942.808	0.892	943349	WORD_OFF	n/a	n/a	GIRAFFE	Zoo	5	5	[0, 0, 0]	n/a	catFR1	0	R1372C
943.7	1.625	944245	WORD	n/a	wordpools/wordpool_categorized_EN.txt	CHIMPANZEE	Zoo	6	5	[0, 0, 0]	n/a	catFR1	0	R1372C
945.325	0.856	945871	WORD_OFF	n/a	n/a	CHIMPANZEE	Zoo	6	5	[0, 0, 0]	n/a	catFR1	0	R1372C
946.181	1.628	946725	WORD	n/a	wordpools/wordpool_categorized_EN.txt	WOODS	Landscapes	7	5	[0, 0, 0]	n/a	catFR1	0	R1372C
947.809	1.146	948351	WORD_OFF	n/a	n/a	WOODS	Landscapes	7	5	[0, 0, 0]	n/a	catFR1	0	R1372C
948.955	1.637	949522	WORD	n/a	wordpools/wordpool_categorized_EN.txt	CREEK	Landscapes	8	5	[0, 0, 0]	n/a	catFR1	0	R1372C
950.592	0.824	951134	WORD_OFF	n/a	n/a	CREEK	Landscapes	8	5	[0, 0, 0]	n/a	catFR1	0	R1372C
951.416	1.627	951960	WORD	n/a	wordpools/wordpool_categorized_EN.txt	ORANGUTAN	Zoo	9	5	[0, 0, 0]	n/a	catFR1	0	R1372C
953.043	0.781	953586	WORD_OFF	n/a	n/a	ORANGUTAN	Zoo	9	5	[0, 0, 0]	n/a	catFR1	0	R1372C
953.824	1.636	954385	WORD	n/a	wordpools/wordpool_categorized_EN.txt	TIGER	Zoo	10	5	[0, 0, 0]	n/a	catFR1	0	R1372C
955.46	0.808	955997	WORD_OFF	n/a	n/a	TIGER	Zoo	10	5	[0, 0, 0]	n/a	catFR1	0	R1372C
956.268	1.625	956810	WORD	n/a	wordpools/wordpool_categorized_EN.txt	BUTTERFLY	Insects	11	5	[0, 0, 0]	n/a	catFR1	0	R1372C
957.893	0.838	958436	WORD_OFF	n/a	n/a	BUTTERFLY	Insects	11	5	[0, 0, 0]	n/a	catFR1	0	R1372C
958.731	1.631	959290	WORD	n/a	wordpools/wordpool_categorized_EN.txt	MOSQUITO	Insects	12	5	[0, 0, 0]	n/a	catFR1	0	R1372C
960.362	0.0	960912	START	n/a	n/a	n/a	n/a	-999	5	[-999, -999, -999]	n/a	catFR1	0	R1372C
960.361	0.001	960916	WORD_OFF	n/a	n/a	MOSQUITO	Insects	12	5	[0, 0, 0]	n/a	catFR1	0	R1372C
960.362	0.0	960916	ENCODING_END	n/a	n/a	n/a	n/a	-999	5	[0, 0, 0]	n/a	catFR1	0	R1372C
960.362	0.015	960916	DISTRACT_START	n/a	n/a	n/a	n/a	-999	5	[0, 0, 0]	n/a	catFR1	0	R1372C
960.377	6.818	960927	PROB	6.787	n/a	n/a	n/a	-999	5	[6, 3, 5]	13.0	catFR1	0	R1372C
967.195	6.401	967745	PROB	6.364	n/a	n/a	n/a	-999	5	[6, 1, 8]	15.0	catFR1	0	R1372C
973.596	7.157	974145	PROB	7.157	n/a	n/a	n/a	-999	5	[4, 6, 7]	17.0	catFR1	0	R1372C
980.753	0.011	981302	STOP	n/a	n/a	n/a	n/a	-999	5	[-999, -999, -999]	n/a	catFR1	0	R1372C
980.764	2.385	981307	DISTRACT_END	n/a	n/a	n/a	n/a	-999	5	[0, 0, 0]	n/a	catFR1	0	R1372C
983.149	1.153	983704	REC_START	n/a	n/a	n/a	n/a	-999	5	[0, 0, 0]	n/a	catFR1	0	R1372C
984.302	1.652	984851	REC_WORD	1.153	n/a	ROACH	Insects	2	5	[0, 0, 0]	n/a	catFR1	0	R1372C
985.954	3.997	986503	REC_WORD	2.805	n/a	BEE	Insects	1	5	[0, 0, 0]	n/a	catFR1	0	R1372C
989.951	20.956	990500	REC_WORD	6.802	n/a	WOODS	Landscapes	7	5	[0, 0, 0]	n/a	catFR1	0	R1372C
1010.907	2.252	1011454	REC_WORD	27.758	n/a	WOODS	Landscapes	7	5	[0, 0, 0]	n/a	catFR1	0	R1372C
1013.159	15.747	1013726	REC_END	n/a	n/a	n/a	n/a	-999	5	[0, 0, 0]	n/a	catFR1	0	R1372C
1028.906	10.428	1029474	COUNTDOWN_START	n/a	n/a	n/a	n/a	-999	6	[0, 0, 0]	n/a	catFR1	0	R1372C
1039.334	1.176	1039876	COUNTDOWN_END	n/a	n/a	n/a	n/a	-999	6	[0, 0, 0]	n/a	catFR1	0	R1372C
1040.51	1.103	1041047	ENCODING_START	n/a	n/a	n/a	n/a	-999	6	[0, 0, 0]	n/a	catFR1	0	R1372C
1041.613	1.63	1042163	WORD	n/a	wordpools/wordpool_categorized_EN.txt	WASHER	Appliances	1	6	[0, 0, 0]	n/a	catFR1	0	R1372C
1043.243	0.789	1043775	WORD_OFF	n/a	n/a	WASHER	Appliances	1	6	[0, 0, 0]	n/a	catFR1	0	R1372C
1044.032	1.628	1044575	WORD	n/a	wordpools/wordpool_categorized_EN.txt	MIXER	Appliances	2	6	[0, 0, 0]	n/a	catFR1	0	R1372C
1045.66	0.837	1046200	WORD_OFF	n/a	n/a	MIXER	Appliances	2	6	[0, 0, 0]	n/a	catFR1	0	R1372C
1046.497	1.63	1047041	WORD	n/a	wordpools/wordpool_categorized_EN.txt	COUCH	Furniture	3	6	[0, 0, 0]	n/a	catFR1	0	R1372C
1048.127	0.794	1048667	WORD_OFF	n/a	n/a	COUCH	Furniture	3	6	[0, 0, 0]	n/a	catFR1	0	R1372C
1048.921	1.64	1049479	WORD	n/a	wordpools/wordpool_categorized_EN.txt	NIGHTSTAND	Furniture	4	6	[0, 0, 0]	n/a	catFR1	0	R1372C
1050.561	0.831	1051091	WORD_OFF	n/a	n/a	NIGHTSTAND	Furniture	4	6	[0, 0, 0]	n/a	catFR1	0	R1372C
1051.392	1.636	1051946	WORD	n/a	wordpools/wordpool_categorized_EN.txt	TORNADO	Weather	5	6	[0, 0, 0]	n/a	catFR1	0	R1372C
1053.028	0.83	1053558	WORD_OFF	n/a	n/a	TORNADO	Weather	5	6	[0, 0, 0]	n/a	catFR1	0	R1372C
1053.858	1.637	1054412	WORD	n/a	wordpools/wordpool_categorized_EN.txt	HURRICANE	Weather	6	6	[0, 0, 0]	n/a	catFR1	0	R1372C
1055.495	1.013	1056024	WORD_OFF	n/a	n/a	HURRICANE	Weather	6	6	[0, 0, 0]	n/a	catFR1	0	R1372C
1056.508	1.638	1057071	WORD	n/a	wordpools/wordpool_categorized_EN.txt	DRYER	Appliances	7	6	[0, 0, 0]	n/a	catFR1	0	R1372C
1058.146	0.781	1058683	WORD_OFF	n/a	n/a	DRYER	Appliances	7	6	[0, 0, 0]	n/a	catFR1	0	R1372C
1058.927	1.636	1059482	WORD	n/a	wordpools/wordpool_categorized_EN.txt	IRON	Appliances	8	6	[0, 0, 0]	n/a	catFR1	0	R1372C
1060.563	0.925	1061094	WORD_OFF	n/a	n/a	IRON	Appliances	8	6	[0, 0, 0]	n/a	catFR1	0	R1372C
1061.488	1.626	1062031	WORD	n/a	wordpools/wordpool_categorized_EN.txt	SOFA	Furniture	9	6	[0, 0, 0]	n/a	catFR1	0	R1372C
1063.114	0.929	1063643	WORD_OFF	n/a	n/a	SOFA	Furniture	9	6	[0, 0, 0]	n/a	catFR1	0	R1372C
1064.043	1.638	1064594	WORD	n/a	wordpools/wordpool_categorized_EN.txt	DESK	Furniture	10	6	[0, 0, 0]	n/a	catFR1	0	R1372C
1065.681	0.884	1066219	WORD_OFF	n/a	n/a	DESK	Furniture	10	6	[0, 0, 0]	n/a	catFR1	0	R1372C
1066.565	1.633	1067115	WORD	n/a	wordpools/wordpool_categorized_EN.txt	HUMIDITY	Weather	11	6	[0, 0, 0]	n/a	catFR1	0	R1372C
1068.198	1.046	1068727	WORD_OFF	n/a	n/a	HUMIDITY	Weather	11	6	[0, 0, 0]	n/a	catFR1	0	R1372C
1069.244	1.638	1069802	WORD	n/a	wordpools/wordpool_categorized_EN.txt	DRIZZLE	Weather	12	6	[0, 0, 0]	n/a	catFR1	0	R1372C
1070.882	0.0	1071427	WORD_OFF	n/a	n/a	DRIZZLE	Weather	12	6	[0, 0, 0]	n/a	catFR1	0	R1372C
1070.882	0.001	1071427	ENCODING_END	n/a	n/a	n/a	n/a	-999	6	[0, 0, 0]	n/a	catFR1	0	R1372C
1070.883	0.0	1071427	START	n/a	n/a	n/a	n/a	-999	6	[-999, -999, -999]	n/a	catFR1	0	R1372C
1070.883	0.014	1071441	DISTRACT_START	n/a	n/a	n/a	n/a	-999	6	[0, 0, 0]	n/a	catFR1	0	R1372C
1070.897	5.202	1071441	PROB	5.166	n/a	n/a	n/a	-999	6	[3, 8, 2]	13.0	catFR1	0	R1372C
1076.099	6.918	1076643	PROB	6.884	n/a	n/a	n/a	-999	6	[5, 5, 7]	17.0	catFR1	0	R1372C
1083.017	5.101	1083561	PROB	5.063	n/a	n/a	n/a	-999	6	[4, 7, 7]	18.0	catFR1	0	R1372C
1088.118	8.502	1088661	PROB	8.493	n/a	n/a	n/a	-999	6	[8, 9, 3]	20.0	catFR1	0	R1372C
1096.62	0.0	1097151	DISTRACT_END	n/a	n/a	n/a	n/a	-999	6	[0, 0, 0]	n/a	catFR1	0	R1372C
1096.611	2.292	1097154	STOP	n/a	n/a	n/a	n/a	-999	6	[-999, -999, -999]	n/a	catFR1	0	R1372C
1098.903	6.987	1099451	REC_START	n/a	n/a	n/a	n/a	-999	6	[0, 0, 0]	n/a	catFR1	0	R1372C
1105.89	23.024	1106433	REC_WORD	6.987	n/a	WASHER	Appliances	1	6	[0, 0, 0]	n/a	catFR1	0	R1372C
1128.914	10.131	1129473	REC_END	n/a	n/a	n/a	n/a	-999	6	[0, 0, 0]	n/a	catFR1	0	R1372C
1139.045	10.429	1139614	COUNTDOWN_START	n/a	n/a	n/a	n/a	-999	7	[0, 0, 0]	n/a	catFR1	0	R1372C
1149.474	1.123	1150016	COUNTDOWN_END	n/a	n/a	n/a	n/a	-999	7	[0, 0, 0]	n/a	catFR1	0	R1372C
1150.597	1.104	1151132	ENCODING_START	n/a	n/a	n/a	n/a	-999	7	[0, 0, 0]	n/a	catFR1	0	R1372C
1151.701	1.63	1152248	WORD	n/a	wordpools/wordpool_categorized_EN.txt	CALF	FarmAnimals	1	7	[0, 0, 0]	n/a	catFR1	0	R1372C
1153.331	1.108	1153860	WORD_OFF	n/a	n/a	CALF	FarmAnimals	1	7	[0, 0, 0]	n/a	catFR1	0	R1372C
1154.439	1.625	1154976	WORD	n/a	wordpools/wordpool_categorized_EN.txt	HORSE	FarmAnimals	2	7	[0, 0, 0]	n/a	catFR1	0	R1372C
1156.064	0.817	1156588	WORD_OFF	n/a	n/a	HORSE	FarmAnimals	2	7	[0, 0, 0]	n/a	catFR1	0	R1372C
1156.881	1.634	1157428	WORD	n/a	wordpools/wordpool_categorized_EN.txt	SPOON	KitchenTools	3	7	[0, 0, 0]	n/a	catFR1	0	R1372C
1158.515	0.994	1159040	WORD_OFF	n/a	n/a	SPOON	KitchenTools	3	7	[0, 0, 0]	n/a	catFR1	0	R1372C
1159.509	1.623	1160046	WORD	n/a	wordpools/wordpool_categorized_EN.txt	COLANDER	KitchenTools	4	7	[0, 0, 0]	n/a	catFR1	0	R1372C
1161.132	0.869	1161658	WORD_OFF	n/a	n/a	COLANDER	KitchenTools	4	7	[0, 0, 0]	n/a	catFR1	0	R1372C
1162.001	1.631	1162540	WORD	n/a	wordpools/wordpool_categorized_EN.txt	PEAS	Vegetables	5	7	[0, 0, 0]	n/a	catFR1	0	R1372C
1163.632	1.104	1164166	WORD_OFF	n/a	n/a	PEAS	Vegetables	5	7	[0, 0, 0]	n/a	catFR1	0	R1372C
1164.736	1.63	1165282	WORD	n/a	wordpools/wordpool_categorized_EN.txt	CARROT	Vegetables	6	7	[0, 0, 0]	n/a	catFR1	0	R1372C
1166.366	1.006	1166894	WORD_OFF	n/a	n/a	CARROT	Vegetables	6	7	[0, 0, 0]	n/a	catFR1	0	R1372C
1167.372	1.628	1167913	WORD	n/a	wordpools/wordpool_categorized_EN.txt	CORKSCREW	KitchenTools	7	7	[0, 0, 0]	n/a	catFR1	0	R1372C
1169.0	0.881	1169525	WORD_OFF	n/a	n/a	CORKSCREW	KitchenTools	7	7	[0, 0, 0]	n/a	catFR1	0	R1372C
1169.881	1.636	1170434	WORD	n/a	wordpools/wordpool_categorized_EN.txt	SPATULA	KitchenTools	8	7	[0, 0, 0]	n/a	catFR1	0	R1372C
1171.517	0.797	1172046	WORD_OFF	n/a	n/a	SPATULA	KitchenTools	8	7	[0, 0, 0]	n/a	catFR1	0	R1372C
1172.314	1.636	1172859	WORD	n/a	wordpools/wordpool_categorized_EN.txt	ROOSTER	FarmAnimals	9	7	[0, 0, 0]	n/a	catFR1	0	R1372C
1173.95	1.068	1174485	WORD_OFF	n/a	n/a	ROOSTER	FarmAnimals	9	7	[0, 0, 0]	n/a	catFR1	0	R1372C
1175.018	1.634	1175560	WORD	n/a	wordpools/wordpool_categorized_EN.txt	SHEEP	FarmAnimals	10	7	[0, 0, 0]	n/a	catFR1	0	R1372C
1176.652	0.922	1177186	WORD_OFF	n/a	n/a	SHEEP	FarmAnimals	10	7	[0, 0, 0]	n/a	catFR1	0	R1372C
1177.574	1.628	1178109	WORD	n/a	wordpools/wordpool_categorized_EN.txt	CABBAGE	Vegetables	11	7	[0, 0, 0]	n/a	catFR1	0	R1372C
1179.202	1.077	1179734	WORD_OFF	n/a	n/a	CABBAGE	Vegetables	11	7	[0, 0, 0]	n/a	catFR1	0	R1372C
1180.279	1.624	1180809	WORD	n/a	wordpools/wordpool_categorized_EN.txt	CORN	Vegetables	12	7	[0, 0, 0]	n/a	catFR1	0	R1372C
1181.903	0.0	1182442	START	n/a	n/a	n/a	n/a	-999	7	[-999, -999, -999]	n/a	catFR1	0	R1372C
1181.902	0.0	1182449	WORD_OFF	n/a	n/a	CORN	Vegetables	12	7	[0, 0, 0]	n/a	catFR1	0	R1372C
1181.902	0.001	1182449	ENCODING_END	n/a	n/a	n/a	n/a	-999	7	[0, 0, 0]	n/a	catFR1	0	R1372C
1181.903	0.015	1182449	DISTRACT_START	n/a	n/a	n/a	n/a	-999	7	[0, 0, 0]	n/a	catFR1	0	R1372C
1181.918	8.719	1182457	PROB	8.68	n/a	n/a	n/a	-999	7	[7, 6, 2]	15.0	catFR1	0	R1372C
1190.637	4.401	1191175	PROB	4.377	n/a	n/a	n/a	-999	7	[2, 7, 6]	15.0	catFR1	0	R1372C
1195.038	7.702	1195576	PROB	7.691	n/a	n/a	n/a	-999	7	[5, 7, 1]	15.0	catFR1	0	R1372C
1202.74	0.0	1203267	DISTRACT_END	n/a	n/a	n/a	n/a	-999	7	[0, 0, 0]	n/a	catFR1	0	R1372C
1202.729	2.161	1203267	STOP	n/a	n/a	n/a	n/a	-999	7	[-999, -999, -999]	n/a	catFR1	0	R1372C
1204.89	0.404	1205430	REC_START	n/a	n/a	n/a	n/a	-999	7	[0, 0, 0]	n/a	catFR1	0	R1372C
1205.294	2.591	1205831	REC_WORD	0.404	n/a	SPATULA	KitchenTools	8	7	[0, 0, 0]	n/a	catFR1	0	R1372C
1207.885	9.771	1208422	REC_WORD	2.995	n/a	SPOON	KitchenTools	3	7	[0, 0, 0]	n/a	catFR1	0	R1372C
1217.656	17.244	1218193	REC_WORD	12.766	n/a	PEAS	Vegetables	5	7	[0, 0, 0]	n/a	catFR1	0	R1372C
1234.9	17.483	1235452	REC_END	n/a	n/a	n/a	n/a	-999	7	[0, 0, 0]	n/a	catFR1	0	R1372C
1252.383	10.428	1252938	COUNTDOWN_START	n/a	n/a	n/a	n/a	-999	8	[0, 0, 0]	n/a	catFR1	0	R1372C
1262.811	1.024	1263338	COUNTDOWN_END	n/a	n/a	n/a	n/a	-999	8	[0, 0, 0]	n/a	catFR1	0	R1372C
1263.835	0.771	1264357	ENCODING_START	n/a	n/a	n/a	n/a	-999	8	[0, 0, 0]	n/a	catFR1	0	R1372C
1264.606	1.629	1265143	WORD	n/a	wordpools/wordpool_categorized_EN.txt	PLIERS	Tools	1	8	[0, 0, 0]	n/a	catFR1	0	R1372C
1266.235	0.918	1266755	WORD_OFF	n/a	n/a	PLIERS	Tools	1	8	[0, 0, 0]	n/a	catFR1	0	R1372C
1267.153	1.633	1267692	WORD	n/a	wordpools/wordpool_categorized_EN.txt	DRILL	Tools	2	8	[0, 0, 0]	n/a	catFR1	0	R1372C
1268.786	1.086	1269317	WORD_OFF	n/a	n/a	DRILL	Tools	2	8	[0, 0, 0]	n/a	catFR1	0	R1372C
1269.872	1.631	1270406	WORD	n/a	wordpools/wordpool_categorized_EN.txt	FOOTBALL	Toys	3	8	[0, 0, 0]	n/a	catFR1	0	R1372C
1271.503	1.128	1272032	WORD_OFF	n/a	n/a	FOOTBALL	Toys	3	8	[0, 0, 0]	n/a	catFR1	0	R1372C
1272.631	1.639	1273175	WORD	n/a	wordpools/wordpool_categorized_EN.txt	DOLL	Toys	4	8	[0, 0, 0]	n/a	catFR1	0	R1372C
1274.27	1.0	1274787	WORD_OFF	n/a	n/a	DOLL	Toys	4	8	[0, 0, 0]	n/a	catFR1	0	R1372C
1275.27	1.633	1275807	WORD	n/a	wordpools/wordpool_categorized_EN.txt	CYPRESS	Trees	5	8	[0, 0, 0]	n/a	catFR1	0	R1372C
1276.903	1.139	1277433	WORD_OFF	n/a	n/a	CYPRESS	Trees	5	8	[0, 0, 0]	n/a	catFR1	0	R1372C
1278.042	1.629	1278576	WORD	n/a	wordpools/wordpool_categorized_EN.txt	EVERGREEN	Trees	6	8	[0, 0, 0]	n/a	catFR1	0	R1372C
1279.671	0.777	1280188	WORD_OFF	n/a	n/a	EVERGREEN	Trees	6	8	[0, 0, 0]	n/a	catFR1	0	R1372C
1280.448	1.623	1280973	WORD	n/a	wordpools/wordpool_categorized_EN.txt	BARBIE	Toys	7	8	[0, 0, 0]	n/a	catFR1	0	R1372C
1282.071	0.989	1282599	WORD_OFF	n/a	n/a	BARBIE	Toys	7	8	[0, 0, 0]	n/a	catFR1	0	R1372C
1283.06	1.629	1283591	WORD	n/a	wordpools/wordpool_categorized_EN.txt	BASKETBALL	Toys	8	8	[0, 0, 0]	n/a	catFR1	0	R1372C
1284.689	0.963	1285217	WORD_OFF	n/a	n/a	BASKETBALL	Toys	8	8	[0, 0, 0]	n/a	catFR1	0	R1372C
1285.652	1.637	1286195	WORD	n/a	wordpools/wordpool_categorized_EN.txt	HAMMER	Tools	9	8	[0, 0, 0]	n/a	catFR1	0	R1372C
1287.289	1.075	1287807	WORD_OFF	n/a	n/a	HAMMER	Tools	9	8	[0, 0, 0]	n/a	catFR1	0	R1372C
1288.364	1.625	1288896	WORD	n/a	wordpools/wordpool_categorized_EN.txt	AXE	Tools	10	8	[0, 0, 0]	n/a	catFR1	0	R1372C
1289.989	1.122	1290508	WORD_OFF	n/a	n/a	AXE	Tools	10	8	[0, 0, 0]	n/a	catFR1	0	R1372C
1291.111	1.629	1291651	WORD	n/a	wordpools/wordpool_categorized_EN.txt	WILLOW	Trees	11	8	[0, 0, 0]	n/a	catFR1	0	R1372C
1292.74	1.028	1293263	WORD_OFF	n/a	n/a	WILLOW	Trees	11	8	[0, 0, 0]	n/a	catFR1	0	R1372C
1293.768	1.624	1294297	WORD	n/a	wordpools/wordpool_categorized_EN.txt	PINE	Trees	12	8	[0, 0, 0]	n/a	catFR1	0	R1372C
1295.392	0.0	1295925	START	n/a	n/a	n/a	n/a	-999	8	[-999, -999, -999]	n/a	catFR1	0	R1372C
1295.39	0.001	1295936	WORD_OFF	n/a	n/a	PINE	Trees	12	8	[0, 0, 0]	n/a	catFR1	0	R1372C
1295.391	0.001	1295936	ENCODING_END	n/a	n/a	n/a	n/a	-999	8	[0, 0, 0]	n/a	catFR1	0	R1372C
1295.392	0.015	1295936	DISTRACT_START	n/a	n/a	n/a	n/a	-999	8	[0, 0, 0]	n/a	catFR1	0	R1372C
1295.407	10.484	1295940	PROB	10.457	n/a	n/a	n/a	-999	8	[6, 5, 3]	14.0	catFR1	0	R1372C
1305.891	7.136	1306423	PROB	7.098	n/a	n/a	n/a	-999	8	[8, 5, 1]	14.0	catFR1	0	R1372C
1313.027	8.458	1313559	PROB	8.458	n/a	n/a	n/a	-999	8	[9, 2, 5]	16.0	catFR1	0	R1372C
1321.485	0.01	1322016	STOP	n/a	n/a	n/a	n/a	-999	8	[-999, -999, -999]	n/a	catFR1	0	R1372C
1321.495	2.352	1322017	DISTRACT_END	n/a	n/a	n/a	n/a	-999	8	[0, 0, 0]	n/a	catFR1	0	R1372C
1323.847	3.849	1324387	REC_START	n/a	n/a	n/a	n/a	-999	8	[0, 0, 0]	n/a	catFR1	0	R1372C
1327.696	4.937	1328227	REC_WORD	3.849	n/a	BARBIE	Toys	7	8	[0, 0, 0]	n/a	catFR1	0	R1372C
1332.633	3.87	1333164	REC_WORD	8.786	n/a	DOLL	Toys	4	8	[0, 0, 0]	n/a	catFR1	0	R1372C
1336.503	17.355	1337034	REC_WORD	12.656	n/a	AXE	Tools	10	8	[0, 0, 0]	n/a	catFR1	0	R1372C
1353.858	8.413	1354409	REC_END	n/a	n/a	n/a	n/a	-999	8	[0, 0, 0]	n/a	catFR1	0	R1372C
1362.271	10.428	1362827	COUNTDOWN_START	n/a	n/a	n/a	n/a	-999	9	[0, 0, 0]	n/a	catFR1	0	R1372C
1372.699	1.19	1373229	COUNTDOWN_END	n/a	n/a	n/a	n/a	-999	9	[0, 0, 0]	n/a	catFR1	0	R1372C
1373.889	1.006	1374414	ENCODING_START	n/a	n/a	n/a	n/a	-999	9	[0, 0, 0]	n/a	catFR1	0	R1372C
1374.895	1.627	1375420	WORD	n/a	wordpools/wordpool_categorized_EN.txt	DOOR	Building	1	9	[0, 0, 0]	n/a	catFR1	0	R1372C
1376.522	1.073	1377046	WORD_OFF	n/a	n/a	DOOR	Building	1	9	[0, 0, 0]	n/a	catFR1	0	R1372C
1377.595	1.628	1378121	WORD	n/a	wordpools/wordpool_categorized_EN.txt	WINDOW	Building	2	9	[0, 0, 0]	n/a	catFR1	0	R1372C
1379.223	0.908	1379746	WORD_OFF	n/a	n/a	WINDOW	Building	2	9	[0, 0, 0]	n/a	catFR1	0	R1372C
1380.131	1.626	1380656	WORD	n/a	wordpools/wordpool_categorized_EN.txt	SQUID	OceanAnimals	3	9	[0, 0, 0]	n/a	catFR1	0	R1372C
1381.757	1.04	1382281	WORD_OFF	n/a	n/a	SQUID	OceanAnimals	3	9	[0, 0, 0]	n/a	catFR1	0	R1372C
1382.797	1.627	1383328	WORD	n/a	wordpools/wordpool_categorized_EN.txt	CRAB	OceanAnimals	4	9	[0, 0, 0]	n/a	catFR1	0	R1372C
1384.424	0.818	1384940	WORD_OFF	n/a	n/a	CRAB	OceanAnimals	4	9	[0, 0, 0]	n/a	catFR1	0	R1372C
1385.242	1.632	1385781	WORD	n/a	wordpools/wordpool_categorized_EN.txt	TAPE	OfficeSupplies	5	9	[0, 0, 0]	n/a	catFR1	0	R1372C
1386.874	1.151	1387393	WORD_OFF	n/a	n/a	TAPE	OfficeSupplies	5	9	[0, 0, 0]	n/a	catFR1	0	R1372C
1388.025	1.633	1388564	WORD	n/a	wordpools/wordpool_categorized_EN.txt	RULER	OfficeSupplies	6	9	[0, 0, 0]	n/a	catFR1	0	R1372C
1389.658	0.817	1390176	WORD_OFF	n/a	n/a	RULER	OfficeSupplies	6	9	[0, 0, 0]	n/a	catFR1	0	R1372C
1390.475	1.634	1391016	WORD	n/a	wordpools/wordpool_categorized_EN.txt	LOBSTER	OceanAnimals	7	9	[0, 0, 0]	n/a	catFR1	0	R1372C
1392.109	0.985	1392628	WORD_OFF	n/a	n/a	LOBSTER	OceanAnimals	7	9	[0, 0, 0]	n/a	catFR1	0	R1372C
1393.094	1.633	1393620	WORD	n/a	wordpools/wordpool_categorized_EN.txt	JELLYFISH	OceanAnimals	8	9	[0, 0, 0]	n/a	catFR1	0	R1372C
1394.727	0.989	1395246	WORD_OFF	n/a	n/a	JELLYFISH	OceanAnimals	8	9	[0, 0, 0]	n/a	catFR1	0	R1372C
1395.716	1.627	1396238	WORD	n/a	wordpools/wordpool_categorized_EN.txt	FOUNDATION	Building	9	9	[0, 0, 0]	n/a	catFR1	0	R1372C
1397.343	0.913	1397864	WORD_OFF	n/a	n/a	FOUNDATION	Building	9	9	[0, 0, 0]	n/a	catFR1	0	R1372C
1398.256	1.636	1398787	WORD	n/a	wordpools/wordpool_categorized_EN.txt	HALLWAY	Building	10	9	[0, 0, 0]	n/a	catFR1	0	R1372C
1399.892	0.883	1400413	WORD_OFF	n/a	n/a	HALLWAY	Building	10	9	[0, 0, 0]	n/a	catFR1	0	R1372C
1400.775	1.636	1401308	WORD	n/a	wordpools/wordpool_categorized_EN.txt	PEN	OfficeSupplies	11	9	[0, 0, 0]	n/a	catFR1	0	R1372C
1402.411	0.945	1402934	WORD_OFF	n/a	n/a	PEN	OfficeSupplies	11	9	[0, 0, 0]	n/a	catFR1	0	R1372C
1403.356	1.64	1403899	WORD	n/a	wordpools/wordpool_categorized_EN.txt	ERASER	OfficeSupplies	12	9	[0, 0, 0]	n/a	catFR1	0	R1372C
1404.996	0.0	1405523	START	n/a	n/a	n/a	n/a	-999	9	[-999, -999, -999]	n/a	catFR1	0	R1372C
1404.994	0.001	1405524	WORD_OFF	n/a	n/a	ERASER	OfficeSupplies	12	9	[0, 0, 0]	n/a	catFR1	0	R1372C
1404.995	0.001	1405524	ENCODING_END	n/a	n/a	n/a	n/a	-999	9	[0, 0, 0]	n/a	catFR1	0	R1372C
1404.996	0.015	1405538	DISTRACT_START	n/a	n/a	n/a	n/a	-999	9	[0, 0, 0]	n/a	catFR1	0	R1372C
1405.011	6.968	1405538	PROB	6.944	n/a	n/a	n/a	-999	9	[6, 3, 3]	12.0	catFR1	0	R1372C
1411.979	6.084	1412506	PROB	6.048	n/a	n/a	n/a	-999	9	[7, 4, 6]	17.0	catFR1	0	R1372C
1418.063	5.951	1418589	PROB	5.915	n/a	n/a	n/a	-999	9	[3, 9, 3]	15.0	catFR1	0	R1372C
1424.014	4.932	1424540	PROB	4.932	n/a	n/a	n/a	-999	9	[1, 9, 6]	16.0	catFR1	0	R1372C
1428.946	0.019	1429472	STOP	n/a	n/a	n/a	n/a	-999	9	[-999, -999, -999]	n/a	catFR1	0	R1372C
1428.965	2.385	1429484	DISTRACT_END	n/a	n/a	n/a	n/a	-999	9	[0, 0, 0]	n/a	catFR1	0	R1372C
1431.35	5.572	1431881	REC_START	n/a	n/a	n/a	n/a	-999	9	[0, 0, 0]	n/a	catFR1	0	R1372C
1436.922	5.524	1437448	REC_WORD	5.572	n/a	SQUID	OceanAnimals	3	9	[0, 0, 0]	n/a	catFR1	0	R1372C
1442.446	13.709	1442971	REC_WORD	11.096	n/a	LOBSTER	OceanAnimals	7	9	[0, 0, 0]	n/a	catFR1	0	R1372C
1456.155	5.207	1456680	REC_WORD	24.805	n/a	SQUID	OceanAnimals	3	9	[0, 0, 0]	n/a	catFR1	0	R1372C
1461.362	8.979	1461903	REC_END	n/a	n/a	n/a	n/a	-999	9	[0, 0, 0]	n/a	catFR1	0	R1372C
1470.341	10.429	1470886	COUNTDOWN_START	n/a	n/a	n/a	n/a	-999	10	[0, 0, 0]	n/a	catFR1	0	R1372C
1480.77	1.172	1481288	COUNTDOWN_END	n/a	n/a	n/a	n/a	-999	10	[0, 0, 0]	n/a	catFR1	0	R1372C
1481.942	1.082	1482460	ENCODING_START	n/a	n/a	n/a	n/a	-999	10	[0, 0, 0]	n/a	catFR1	0	R1372C
1483.024	1.635	1483562	WORD	n/a	wordpools/wordpool_categorized_EN.txt	ATTIC	Building	1	10	[0, 0, 0]	n/a	catFR1	0	R1372C
1484.659	0.878	1485174	WORD_OFF	n/a	n/a	ATTIC	Building	1	10	[0, 0, 0]	n/a	catFR1	0	R1372C
1485.537	1.623	1486056	WORD	n/a	wordpools/wordpool_categorized_EN.txt	STAIRS	Building	2	10	[0, 0, 0]	n/a	catFR1	0	R1372C
1487.16	0.767	1487668	WORD_OFF	n/a	n/a	STAIRS	Building	2	10	[0, 0, 0]	n/a	catFR1	0	R1372C
1487.927	1.633	1488453	WORD	n/a	wordpools/wordpool_categorized_EN.txt	SKIRT	Clothing	3	10	[0, 0, 0]	n/a	catFR1	0	R1372C
1489.56	1.039	1490079	WORD_OFF	n/a	n/a	SKIRT	Clothing	3	10	[0, 0, 0]	n/a	catFR1	0	R1372C
1490.599	1.629	1491126	WORD	n/a	wordpools/wordpool_categorized_EN.txt	SHIRT	Clothing	4	10	[0, 0, 0]	n/a	catFR1	0	R1372C
1492.228	1.05	1492738	WORD_OFF	n/a	n/a	SHIRT	Clothing	4	10	[0, 0, 0]	n/a	catFR1	0	R1372C
1493.278	1.632	1493812	WORD	n/a	wordpools/wordpool_categorized_EN.txt	RAIN	Weather	5	10	[0, 0, 0]	n/a	catFR1	0	R1372C
1494.91	0.803	1495424	WORD_OFF	n/a	n/a	RAIN	Weather	5	10	[0, 0, 0]	n/a	catFR1	0	R1372C
1495.713	1.632	1496237	WORD	n/a	wordpools/wordpool_categorized_EN.txt	SNOW	Weather	6	10	[0, 0, 0]	n/a	catFR1	0	R1372C
1497.345	0.898	1497863	WORD_OFF	n/a	n/a	SNOW	Weather	6	10	[0, 0, 0]	n/a	catFR1	0	R1372C
1498.243	1.636	1498772	WORD	n/a	wordpools/wordpool_categorized_EN.txt	JEANS	Clothing	7	10	[0, 0, 0]	n/a	catFR1	0	R1372C
1499.879	0.799	1500398	WORD_OFF	n/a	n/a	JEANS	Clothing	7	10	[0, 0, 0]	n/a	catFR1	0	R1372C
1500.678	1.635	1501211	WORD	n/a	wordpools/wordpool_categorized_EN.txt	SHORTS	Clothing	8	10	[0, 0, 0]	n/a	catFR1	0	R1372C
1502.313	0.849	1502823	WORD_OFF	n/a	n/a	SHORTS	Clothing	8	10	[0, 0, 0]	n/a	catFR1	0	R1372C
1503.162	1.635	1503691	WORD	n/a	wordpools/wordpool_categorized_EN.txt	FOG	Weather	9	10	[0, 0, 0]	n/a	catFR1	0	R1372C
1504.797	0.922	1505303	WORD_OFF	n/a	n/a	FOG	Weather	9	10	[0, 0, 0]	n/a	catFR1	0	R1372C
1505.719	1.628	1506240	WORD	n/a	wordpools/wordpool_categorized_EN.txt	THUNDERSTORM	Weather	10	10	[0, 0, 0]	n/a	catFR1	0	R1372C
1507.347	0.827	1507866	WORD_OFF	n/a	n/a	THUNDERSTORM	Weather	10	10	[0, 0, 0]	n/a	catFR1	0	R1372C
1508.174	1.624	1508692	WORD	n/a	wordpools/wordpool_categorized_EN.txt	FLOOR	Building	11	10	[0, 0, 0]	n/a	catFR1	0	R1372C
1509.798	0.764	1510304	WORD_OFF	n/a	n/a	FLOOR	Building	11	10	[0, 0, 0]	n/a	catFR1	0	R1372C
1510.562	1.637	1511090	WORD	n/a	wordpools/wordpool_categorized_EN.txt	CEILING	Building	12	10	[0, 0, 0]	n/a	catFR1	0	R1372C
1512.199	0.0	1512721	START	n/a	n/a	n/a	n/a	-999	10	[-999, -999, -999]	n/a	catFR1	0	R1372C
1512.198	0.001	1512729	WORD_OFF	n/a	n/a	CEILING	Building	12	10	[0, 0, 0]	n/a	catFR1	0	R1372C
1512.199	0.0	1512729	ENCODING_END	n/a	n/a	n/a	n/a	-999	10	[0, 0, 0]	n/a	catFR1	0	R1372C
1512.199	0.015	1512729	DISTRACT_START	n/a	n/a	n/a	n/a	-999	10	[0, 0, 0]	n/a	catFR1	0	R1372C
1512.214	4.918	1512736	PROB	4.895	n/a	n/a	n/a	-999	10	[5, 6, 4]	15.0	catFR1	0	R1372C
1517.132	5.134	1517653	PROB	5.105	n/a	n/a	n/a	-999	10	[3, 8, 5]	16.0	catFR1	0	R1372C
1522.266	7.402	1522787	PROB	7.368	n/a	n/a	n/a	-999	10	[5, 4, 2]	11.0	catFR1	0	R1372C
1529.668	4.054	1530189	PROB	4.054	n/a	n/a	n/a	-999	10	[1, 4, 4]	9.0	catFR1	0	R1372C
1533.722	0.013	1534243	STOP	n/a	n/a	n/a	n/a	-999	10	[-999, -999, -999]	n/a	catFR1	0	R1372C
1533.735	2.118	1534250	DISTRACT_END	n/a	n/a	n/a	n/a	-999	10	[0, 0, 0]	n/a	catFR1	0	R1372C
1535.853	1.41	1536372	REC_START	n/a	n/a	n/a	n/a	-999	10	[0, 0, 0]	n/a	catFR1	0	R1372C
1537.263	1.831	1537783	REC_WORD	1.41	n/a	ATTIC	Building	1	10	[0, 0, 0]	n/a	catFR1	0	R1372C
1539.094	5.307	1539614	REC_WORD	3.241	n/a	STAIRS	Building	2	10	[0, 0, 0]	n/a	catFR1	0	R1372C
1544.401	21.463	1544921	REC_WORD	8.548	n/a	ROOF	Building	-999	10	[0, 0, 0]	n/a	catFR1	0	R1372C
1565.864	10.647	1566394	REC_END	n/a	n/a	n/a	n/a	-999	10	[0, 0, 0]	n/a	catFR1	0	R1372C
1576.511	10.429	1577058	COUNTDOWN_START	n/a	n/a	n/a	n/a	-999	11	[0, 0, 0]	n/a	catFR1	0	R1372C
1586.94	1.206	1587446	COUNTDOWN_END	n/a	n/a	n/a	n/a	-999	11	[0, 0, 0]	n/a	catFR1	0	R1372C
1588.146	1.059	1588659	ENCODING_START	n/a	n/a	n/a	n/a	-999	11	[0, 0, 0]	n/a	catFR1	0	R1372C
1589.205	1.624	1589719	WORD	n/a	wordpools/wordpool_categorized_EN.txt	CHAIR	Furniture	1	11	[0, 0, 0]	n/a	catFR1	0	R1372C
1590.829	1.071	1591331	WORD_OFF	n/a	n/a	CHAIR	Furniture	1	11	[0, 0, 0]	n/a	catFR1	0	R1372C
1591.9	1.63	1592420	WORD	n/a	wordpools/wordpool_categorized_EN.txt	TABLE	Furniture	2	11	[0, 0, 0]	n/a	catFR1	0	R1372C
1593.53	0.997	1594032	WORD_OFF	n/a	n/a	TABLE	Furniture	2	11	[0, 0, 0]	n/a	catFR1	0	R1372C
1594.527	1.637	1595051	WORD	n/a	wordpools/wordpool_categorized_EN.txt	BOAT	Vehicles	3	11	[0, 0, 0]	n/a	catFR1	0	R1372C
1596.164	0.764	1596677	WORD_OFF	n/a	n/a	BOAT	Vehicles	3	11	[0, 0, 0]	n/a	catFR1	0	R1372C
1596.928	1.636	1597449	WORD	n/a	wordpools/wordpool_categorized_EN.txt	PLANE	Vehicles	4	11	[0, 0, 0]	n/a	catFR1	0	R1372C
1598.564	0.999	1599075	WORD_OFF	n/a	n/a	PLANE	Vehicles	4	11	[0, 0, 0]	n/a	catFR1	0	R1372C
1599.563	1.635	1600094	WORD	n/a	wordpools/wordpool_categorized_EN.txt	BEAR	Zoo	5	11	[0, 0, 0]	n/a	catFR1	0	R1372C
1601.198	1.094	1601706	WORD_OFF	n/a	n/a	BEAR	Zoo	5	11	[0, 0, 0]	n/a	catFR1	0	R1372C
1602.292	1.622	1602808	WORD	n/a	wordpools/wordpool_categorized_EN.txt	PANDA	Zoo	6	11	[0, 0, 0]	n/a	catFR1	0	R1372C
1603.914	0.983	1604420	WORD_OFF	n/a	n/a	PANDA	Zoo	6	11	[0, 0, 0]	n/a	catFR1	0	R1372C
1604.897	1.618	1605426	WORD	n/a	wordpools/wordpool_categorized_EN.txt	BIKE	Vehicles	7	11	[0, 0, 0]	n/a	catFR1	0	R1372C
1606.515	1.04	1607024	WORD_OFF	n/a	n/a	BIKE	Vehicles	7	11	[0, 0, 0]	n/a	catFR1	0	R1372C
1607.555	1.628	1608071	WORD	n/a	wordpools/wordpool_categorized_EN.txt	MOTORCYCLE	Vehicles	8	11	[0, 0, 0]	n/a	catFR1	0	R1372C
1609.183	0.923	1609683	WORD_OFF	n/a	n/a	MOTORCYCLE	Vehicles	8	11	[0, 0, 0]	n/a	catFR1	0	R1372C
1610.106	1.627	1610620	WORD	n/a	wordpools/wordpool_categorized_EN.txt	CHEETAH	Zoo	9	11	[0, 0, 0]	n/a	catFR1	0	R1372C
1611.733	0.925	1612246	WORD_OFF	n/a	n/a	CHEETAH	Zoo	9	11	[0, 0, 0]	n/a	catFR1	0	R1372C
1612.658	1.626	1613169	WORD	n/a	wordpools/wordpool_categorized_EN.txt	LION	Zoo	10	11	[0, 0, 0]	n/a	catFR1	0	R1372C
1614.284	0.971	1614795	WORD_OFF	n/a	n/a	LION	Zoo	10	11	[0, 0, 0]	n/a	catFR1	0	R1372C
1615.255	1.629	1615773	WORD	n/a	wordpools/wordpool_categorized_EN.txt	SHELF	Furniture	11	11	[0, 0, 0]	n/a	catFR1	0	R1372C
1616.884	0.97	1617385	WORD_OFF	n/a	n/a	SHELF	Furniture	11	11	[0, 0, 0]	n/a	catFR1	0	R1372C
1617.854	1.632	1618377	WORD	n/a	wordpools/wordpool_categorized_EN.txt	DRESSER	Furniture	12	11	[0, 0, 0]	n/a	catFR1	0	R1372C
1619.486	0.0	1620002	START	n/a	n/a	n/a	n/a	-999	11	[-999, -999, -999]	n/a	catFR1	0	R1372C
1619.485	0.0	1620003	WORD_OFF	n/a	n/a	DRESSER	Furniture	12	11	[0, 0, 0]	n/a	catFR1	0	R1372C
1619.485	0.001	1620003	ENCODING_END	n/a	n/a	n/a	n/a	-999	11	[0, 0, 0]	n/a	catFR1	0	R1372C
1619.486	0.015	1620017	DISTRACT_START	n/a	n/a	n/a	n/a	-999	11	[0, 0, 0]	n/a	catFR1	0	R1372C
1619.501	8.819	1620017	PROB	8.781	n/a	n/a	n/a	-999	11	[4, 5, 8]	17.0	catFR1	0	R1372C
1628.32	8.251	1628836	PROB	8.22	n/a	n/a	n/a	-999	11	[7, 2, 6]	15.0	catFR1	0	R1372C
1636.571	5.635	1637086	PROB	5.625	n/a	n/a	n/a	-999	11	[7, 8, 2]	17.0	catFR1	0	R1372C
1642.206	0.0	1642709	DISTRACT_END	n/a	n/a	n/a	n/a	-999	11	[0, 0, 0]	n/a	catFR1	0	R1372C
1642.196	2.328	1642711	STOP	n/a	n/a	n/a	n/a	-999	11	[-999, -999, -999]	n/a	catFR1	0	R1372C
1644.524	1.515	1645037	REC_START	n/a	n/a	n/a	n/a	-999	11	[0, 0, 0]	n/a	catFR1	0	R1372C
1646.039	2.847	1646554	REC_WORD	1.515	n/a	BIKE	Vehicles	7	11	[0, 0, 0]	n/a	catFR1	0	R1372C
1648.886	25.649	1649401	REC_WORD	4.362	n/a	MOTORCYCLE	Vehicles	8	11	[0, 0, 0]	n/a	catFR1	0	R1372C
1674.535	14.664	1675059	REC_END	n/a	n/a	n/a	n/a	-999	11	[0, 0, 0]	n/a	catFR1	0	R1372C
1689.199	10.429	1689732	COUNTDOWN_START	n/a	n/a	n/a	n/a	-999	12	[0, 0, 0]	n/a	catFR1	0	R1372C
1699.628	1.256	1700134	COUNTDOWN_END	n/a	n/a	n/a	n/a	-999	12	[0, 0, 0]	n/a	catFR1	0	R1372C
1700.884	1.019	1701388	ENCODING_START	n/a	n/a	n/a	n/a	-999	12	[0, 0, 0]	n/a	catFR1	0	R1372C
1701.903	1.631	1702422	WORD	n/a	wordpools/wordpool_categorized_EN.txt	GRAPE	Fruit	1	12	[0, 0, 0]	n/a	catFR1	0	R1372C
1703.534	1.01	1704034	WORD_OFF	n/a	n/a	GRAPE	Fruit	1	12	[0, 0, 0]	n/a	catFR1	0	R1372C
1704.544	1.624	1705053	WORD	n/a	wordpools/wordpool_categorized_EN.txt	BANANA	Fruit	2	12	[0, 0, 0]	n/a	catFR1	0	R1372C
1706.168	1.135	1706665	WORD_OFF	n/a	n/a	BANANA	Fruit	2	12	[0, 0, 0]	n/a	catFR1	0	R1372C
1707.303	1.631	1707822	WORD	n/a	wordpools/wordpool_categorized_EN.txt	WHISK	KitchenTools	3	12	[0, 0, 0]	n/a	catFR1	0	R1372C
1708.934	1.143	1709434	WORD_OFF	n/a	n/a	WHISK	KitchenTools	3	12	[0, 0, 0]	n/a	catFR1	0	R1372C
1710.077	1.625	1710592	WORD	n/a	wordpools/wordpool_categorized_EN.txt	STRAINER	KitchenTools	4	12	[0, 0, 0]	n/a	catFR1	0	R1372C
1711.702	1.053	1712204	WORD_OFF	n/a	n/a	STRAINER	KitchenTools	4	12	[0, 0, 0]	n/a	catFR1	0	R1372C
1712.755	1.631	1713265	WORD	n/a	wordpools/wordpool_categorized_EN.txt	MOUNTAIN	Landscapes	5	12	[0, 0, 0]	n/a	catFR1	0	R1372C
1714.386	1.047	1714890	WORD_OFF	n/a	n/a	MOUNTAIN	Landscapes	5	12	[0, 0, 0]	n/a	catFR1	0	R1372C
1715.433	1.637	1715951	WORD	n/a	wordpools/wordpool_categorized_EN.txt	STREAM	Landscapes	6	12	[0, 0, 0]	n/a	catFR1	0	R1372C
1717.07	0.947	1717577	WORD_OFF	n/a	n/a	STREAM	Landscapes	6	12	[0, 0, 0]	n/a	catFR1	0	R1372C
1718.017	1.637	1718542	WORD	n/a	wordpools/wordpool_categorized_EN.txt	STRAWBERRY	Fruit	7	12	[0, 0, 0]	n/a	catFR1	0	R1372C
1719.654	0.917	1720154	WORD_OFF	n/a	n/a	STRAWBERRY	Fruit	7	12	[0, 0, 0]	n/a	catFR1	0	R1372C
1720.571	1.633	1721090	WORD	n/a	wordpools/wordpool_categorized_EN.txt	PEAR	Fruit	8	12	[0, 0, 0]	n/a	catFR1	0	R1372C
1722.204	0.826	1722702	WORD_OFF	n/a	n/a	PEAR	Fruit	8	12	[0, 0, 0]	n/a	catFR1	0	R1372C
1723.03	1.625	1723543	WORD	n/a	wordpools/wordpool_categorized_EN.txt	FOREST	Landscapes	9	12	[0, 0, 0]	n/a	catFR1	0	R1372C
1724.655	0.942	1725155	WORD_OFF	n/a	n/a	FOREST	Landscapes	9	12	[0, 0, 0]	n/a	catFR1	0	R1372C
1725.597	1.625	1726106	WORD	n/a	wordpools/wordpool_categorized_EN.txt	OCEAN	Landscapes	10	12	[0, 0, 0]	n/a	catFR1	0	R1372C
1727.222	1.092	1727718	WORD_OFF	n/a	n/a	OCEAN	Landscapes	10	12	[0, 0, 0]	n/a	catFR1	0	R1372C
1728.314	1.624	1728820	WORD	n/a	wordpools/wordpool_categorized_EN.txt	KNIFE	KitchenTools	11	12	[0, 0, 0]	n/a	catFR1	0	R1372C
1729.938	0.87	1730446	WORD_OFF	n/a	n/a	KNIFE	KitchenTools	11	12	[0, 0, 0]	n/a	catFR1	0	R1372C
1730.808	1.633	1731327	WORD	n/a	wordpools/wordpool_categorized_EN.txt	GRATER	KitchenTools	12	12	[0, 0, 0]	n/a	catFR1	0	R1372C
1732.441	0.0	1732951	START	n/a	n/a	n/a	n/a	-999	12	[-999, -999, -999]	n/a	catFR1	0	R1372C
1732.439	0.001	1732953	WORD_OFF	n/a	n/a	GRATER	KitchenTools	12	12	[0, 0, 0]	n/a	catFR1	0	R1372C
1732.44	0.001	1732953	ENCODING_END	n/a	n/a	n/a	n/a	-999	12	[0, 0, 0]	n/a	catFR1	0	R1372C
1732.441	0.015	1732953	DISTRACT_START	n/a	n/a	n/a	n/a	-999	12	[0, 0, 0]	n/a	catFR1	0	R1372C
1732.456	6.418	1732966	PROB	6.392	n/a	n/a	n/a	-999	12	[7, 8, 8]	23.0	catFR1	0	R1372C
1738.874	5.767	1739384	PROB	5.743	n/a	n/a	n/a	-999	12	[6, 8, 8]	22.0	catFR1	0	R1372C
1744.641	9.191	1745151	PROB	9.191	n/a	n/a	n/a	-999	12	[3, 6, 8]	17.0	catFR1	0	R1372C
1753.832	0.011	1754341	STOP	n/a	n/a	n/a	n/a	-999	12	[-999, -999, -999]	n/a	catFR1	0	R1372C
1753.843	2.168	1754350	DISTRACT_END	n/a	n/a	n/a	n/a	-999	12	[0, 0, 0]	n/a	catFR1	0	R1372C
1756.011	1.169	1756527	REC_START	n/a	n/a	n/a	n/a	-999	12	[0, 0, 0]	n/a	catFR1	0	R1372C
1757.18	2.788	1757689	REC_WORD	1.169	n/a	GRAPE	Fruit	1	12	[0, 0, 0]	n/a	catFR1	0	R1372C
1759.968	7.562	1760477	REC_WORD	3.957	n/a	PEAR	Fruit	8	12	[0, 0, 0]	n/a	catFR1	0	R1372C
1767.53	5.835	1768039	REC_WORD	11.519	n/a	WHISK	KitchenTools	3	12	[0, 0, 0]	n/a	catFR1	0	R1372C
1773.365	12.656	1773873	REC_WORD	17.354	n/a	OCEAN	Landscapes	10	12	[0, 0, 0]	n/a	catFR1	0	R1372C
1786.021	14.482	1786549	REC_END	n/a	n/a	n/a	n/a	-999	12	[0, 0, 0]	n/a	catFR1	0	R1372C
1800.503	10.428	1801029	COUNTDOWN_START	n/a	n/a	n/a	n/a	-999	13	[0, 0, 0]	n/a	catFR1	0	R1372C
1810.931	1.224	1811431	COUNTDOWN_END	n/a	n/a	n/a	n/a	-999	13	[0, 0, 0]	n/a	catFR1	0	R1372C
1812.155	1.079	1812657	ENCODING_START	n/a	n/a	n/a	n/a	-999	13	[0, 0, 0]	n/a	catFR1	0	R1372C
1813.234	1.638	1813746	WORD	n/a	wordpools/wordpool_categorized_EN.txt	FINCH	Birds	1	13	[0, 0, 0]	n/a	catFR1	0	R1372C
1814.872	0.802	1815372	WORD_OFF	n/a	n/a	FINCH	Birds	1	13	[0, 0, 0]	n/a	catFR1	0	R1372C
1815.674	1.631	1816185	WORD	n/a	wordpools/wordpool_categorized_EN.txt	CARDINAL	Birds	2	13	[0, 0, 0]	n/a	catFR1	0	R1372C
1817.305	1.002	1817797	WORD_OFF	n/a	n/a	CARDINAL	Birds	2	13	[0, 0, 0]	n/a	catFR1	0	R1372C
1818.307	1.631	1818816	WORD	n/a	wordpools/wordpool_categorized_EN.txt	CALCULATOR	Electronics	3	13	[0, 0, 0]	n/a	catFR1	0	R1372C
1819.938	0.802	1820442	WORD_OFF	n/a	n/a	CALCULATOR	Electronics	3	13	[0, 0, 0]	n/a	catFR1	0	R1372C
1820.74	1.633	1821255	WORD	n/a	wordpools/wordpool_categorized_EN.txt	SCANNER	Electronics	4	13	[0, 0, 0]	n/a	catFR1	0	R1372C
1822.373	0.96	1822867	WORD_OFF	n/a	n/a	SCANNER	Electronics	4	13	[0, 0, 0]	n/a	catFR1	0	R1372C
1823.333	1.623	1823831	WORD	n/a	wordpools/wordpool_categorized_EN.txt	PLUM	Fruit	5	13	[0, 0, 0]	n/a	catFR1	0	R1372C
1824.956	0.909	1825457	WORD_OFF	n/a	n/a	PLUM	Fruit	5	13	[0, 0, 0]	n/a	catFR1	0	R1372C
1825.865	1.625	1826366	WORD	n/a	wordpools/wordpool_categorized_EN.txt	LEMON	Fruit	6	13	[0, 0, 0]	n/a	catFR1	0	R1372C
1827.49	1.07	1827992	WORD_OFF	n/a	n/a	LEMON	Fruit	6	13	[0, 0, 0]	n/a	catFR1	0	R1372C
1828.56	1.631	1829067	WORD	n/a	wordpools/wordpool_categorized_EN.txt	TELEVISION	Electronics	7	13	[0, 0, 0]	n/a	catFR1	0	R1372C
1830.191	1.107	1830693	WORD_OFF	n/a	n/a	TELEVISION	Electronics	7	13	[0, 0, 0]	n/a	catFR1	0	R1372C
1831.298	1.626	1831809	WORD	n/a	wordpools/wordpool_categorized_EN.txt	COMPUTER	Electronics	8	13	[0, 0, 0]	n/a	catFR1	0	R1372C
1832.924	0.917	1833421	WORD_OFF	n/a	n/a	COMPUTER	Electronics	8	13	[0, 0, 0]	n/a	catFR1	0	R1372C
1833.841	1.634	1834357	WORD	n/a	wordpools/wordpool_categorized_EN.txt	PEACH	Fruit	9	13	[0, 0, 0]	n/a	catFR1	0	R1372C
1835.475	1.106	1835969	WORD_OFF	n/a	n/a	PEACH	Fruit	9	13	[0, 0, 0]	n/a	catFR1	0	R1372C
1836.581	1.628	1837085	WORD	n/a	wordpools/wordpool_categorized_EN.txt	ORANGE	Fruit	10	13	[0, 0, 0]	n/a	catFR1	0	R1372C
1838.209	1.096	1838711	WORD_OFF	n/a	n/a	ORANGE	Fruit	10	13	[0, 0, 0]	n/a	catFR1	0	R1372C
1839.305	1.637	1839827	WORD	n/a	wordpools/wordpool_categorized_EN.txt	CROW	Birds	11	13	[0, 0, 0]	n/a	catFR1	0	R1372C
1840.942	1.022	1841439	WORD_OFF	n/a	n/a	CROW	Birds	11	13	[0, 0, 0]	n/a	catFR1	0	R1372C
1841.964	1.631	1842473	WORD	n/a	wordpools/wordpool_categorized_EN.txt	ROBIN	Birds	12	13	[0, 0, 0]	n/a	catFR1	0	R1372C
1843.595	0.0	1844100	START	n/a	n/a	n/a	n/a	-999	13	[-999, -999, -999]	n/a	catFR1	0	R1372C
1843.593	0.001	1844112	WORD_OFF	n/a	n/a	ROBIN	Birds	12	13	[0, 0, 0]	n/a	catFR1	0	R1372C
1843.594	0.001	1844112	ENCODING_END	n/a	n/a	n/a	n/a	-999	13	[0, 0, 0]	n/a	catFR1	0	R1372C
1843.595	0.015	1844112	DISTRACT_START	n/a	n/a	n/a	n/a	-999	13	[0, 0, 0]	n/a	catFR1	0	R1372C
1843.61	7.785	1844115	PROB	7.759	n/a	n/a	n/a	-999	13	[2, 3, 7]	12.0	catFR1	0	R1372C
1851.395	4.801	1851899	PROB	4.766	n/a	n/a	n/a	-999	13	[3, 5, 7]	15.0	catFR1	0	R1372C
1856.196	3.85	1856700	PROB	3.813	n/a	n/a	n/a	-999	13	[1, 9, 1]	11.0	catFR1	0	R1372C
1860.046	6.235	1860550	PROB	6.227	n/a	n/a	n/a	-999	13	[8, 5, 9]	22.0	catFR1	0	R1372C
1866.281	0.0	1866776	DISTRACT_END	n/a	n/a	n/a	n/a	-999	13	[0, 0, 0]	n/a	catFR1	0	R1372C
1866.273	2.109	1866776	STOP	n/a	n/a	n/a	n/a	-999	13	[-999, -999, -999]	n/a	catFR1	0	R1372C
1868.382	0.833	1868884	REC_START	n/a	n/a	n/a	n/a	-999	13	[0, 0, 0]	n/a	catFR1	0	R1372C
1869.215	2.428	1869718	REC_WORD	0.833	n/a	FINCH	Birds	1	13	[0, 0, 0]	n/a	catFR1	0	R1372C
1871.643	2.259	1872146	REC_WORD	3.261	n/a	CARDINAL	Birds	2	13	[0, 0, 0]	n/a	catFR1	0	R1372C
1873.902	3.134	1874405	REC_WORD	5.52	n/a	PLUM	Fruit	5	13	[0, 0, 0]	n/a	catFR1	0	R1372C
1877.036	21.357	1877539	REC_WORD	8.654	n/a	GRAPE	Fruit	-999	13	[0, 0, 0]	n/a	catFR1	0	R1372C
1898.393	9.697	1898906	REC_END	n/a	n/a	n/a	n/a	-999	13	[0, 0, 0]	n/a	catFR1	0	R1372C
1908.09	10.428	1908620	COUNTDOWN_START	n/a	n/a	n/a	n/a	-999	14	[0, 0, 0]	n/a	catFR1	0	R1372C
1918.518	1.057	1919008	COUNTDOWN_END	n/a	n/a	n/a	n/a	-999	14	[0, 0, 0]	n/a	catFR1	0	R1372C
1919.575	0.844	1920069	ENCODING_START	n/a	n/a	n/a	n/a	-999	14	[0, 0, 0]	n/a	catFR1	0	R1372C
1920.419	1.623	1920909	WORD	n/a	wordpools/wordpool_categorized_EN.txt	WATER	Beverages	1	14	[0, 0, 0]	n/a	catFR1	0	R1372C
1922.042	0.77	1922535	WORD_OFF	n/a	n/a	WATER	Beverages	1	14	[0, 0, 0]	n/a	catFR1	0	R1372C
1922.812	1.63	1923320	WORD	n/a	wordpools/wordpool_categorized_EN.txt	JUICE	Beverages	2	14	[0, 0, 0]	n/a	catFR1	0	R1372C
1924.442	1.069	1924932	WORD_OFF	n/a	n/a	JUICE	Beverages	2	14	[0, 0, 0]	n/a	catFR1	0	R1372C
1925.511	1.632	1926021	WORD	n/a	wordpools/wordpool_categorized_EN.txt	FUDGE	Desserts	3	14	[0, 0, 0]	n/a	catFR1	0	R1372C
1927.143	0.779	1927633	WORD_OFF	n/a	n/a	FUDGE	Desserts	3	14	[0, 0, 0]	n/a	catFR1	0	R1372C
1927.922	1.638	1928432	WORD	n/a	wordpools/wordpool_categorized_EN.txt	PUDDING	Desserts	4	14	[0, 0, 0]	n/a	catFR1	0	R1372C
1929.56	1.02	1930046	WORD_OFF	n/a	n/a	PUDDING	Desserts	4	14	[0, 0, 0]	n/a	catFR1	0	R1372C
1930.58	1.63	1931077	WORD	n/a	wordpools/wordpool_categorized_EN.txt	LADYBUG	Insects	5	14	[0, 0, 0]	n/a	catFR1	0	R1372C
1932.21	0.918	1932703	WORD_OFF	n/a	n/a	LADYBUG	Insects	5	14	[0, 0, 0]	n/a	catFR1	0	R1372C
1933.128	1.633	1933640	WORD	n/a	wordpools/wordpool_categorized_EN.txt	FLY	Insects	6	14	[0, 0, 0]	n/a	catFR1	0	R1372C
1934.761	0.781	1935252	WORD_OFF	n/a	n/a	FLY	Insects	6	14	[0, 0, 0]	n/a	catFR1	0	R1372C
1935.542	1.636	1936051	WORD	n/a	wordpools/wordpool_categorized_EN.txt	COLA	Beverages	7	14	[0, 0, 0]	n/a	catFR1	0	R1372C
1937.178	0.787	1937663	WORD_OFF	n/a	n/a	COLA	Beverages	7	14	[0, 0, 0]	n/a	catFR1	0	R1372C
1937.965	1.63	1938462	WORD	n/a	wordpools/wordpool_categorized_EN.txt	COFFEE	Beverages	8	14	[0, 0, 0]	n/a	catFR1	0	R1372C
1939.595	0.964	1940088	WORD_OFF	n/a	n/a	COFFEE	Beverages	8	14	[0, 0, 0]	n/a	catFR1	0	R1372C
1940.559	1.636	1941066	WORD	n/a	wordpools/wordpool_categorized_EN.txt	MOTH	Insects	9	14	[0, 0, 0]	n/a	catFR1	0	R1372C
1942.195	1.048	1942692	WORD_OFF	n/a	n/a	MOTH	Insects	9	14	[0, 0, 0]	n/a	catFR1	0	R1372C
1943.243	1.636	1943753	WORD	n/a	wordpools/wordpool_categorized_EN.txt	CRICKET	Insects	10	14	[0, 0, 0]	n/a	catFR1	0	R1372C
1944.879	0.846	1945365	WORD_OFF	n/a	n/a	CRICKET	Insects	10	14	[0, 0, 0]	n/a	catFR1	0	R1372C
1945.725	1.638	1946233	WORD	n/a	wordpools/wordpool_categorized_EN.txt	JELLO	Desserts	11	14	[0, 0, 0]	n/a	catFR1	0	R1372C
1947.363	0.803	1947859	WORD_OFF	n/a	n/a	JELLO	Desserts	11	14	[0, 0, 0]	n/a	catFR1	0	R1372C
1948.166	1.631	1948672	WORD	n/a	wordpools/wordpool_categorized_EN.txt	MOUSSE	Desserts	12	14	[0, 0, 0]	n/a	catFR1	0	R1372C
1949.797	0.001	1950297	WORD_OFF	n/a	n/a	MOUSSE	Desserts	12	14	[0, 0, 0]	n/a	catFR1	0	R1372C
1949.798	0.0	1950297	START	n/a	n/a	n/a	n/a	-999	14	[-999, -999, -999]	n/a	catFR1	0	R1372C
1949.797	0.001	1950311	ENCODING_END	n/a	n/a	n/a	n/a	-999	14	[0, 0, 0]	n/a	catFR1	0	R1372C
1949.798	0.015	1950311	DISTRACT_START	n/a	n/a	n/a	n/a	-999	14	[0, 0, 0]	n/a	catFR1	0	R1372C
1949.813	5.868	1950312	PROB	5.84	n/a	n/a	n/a	-999	14	[6, 8, 1]	15.0	catFR1	0	R1372C
1955.681	5.868	1956180	PROB	5.838	n/a	n/a	n/a	-999	14	[9, 6, 2]	15.0	catFR1	0	R1372C
1961.549	6.084	1962048	PROB	6.058	n/a	n/a	n/a	-999	14	[4, 5, 3]	12.0	catFR1	0	R1372C
1967.633	4.47	1968131	PROB	4.47	n/a	n/a	n/a	-999	14	[8, 8, 1]	17.0	catFR1	0	R1372C
1972.103	0.015	1972601	STOP	n/a	n/a	n/a	n/a	-999	14	[-999, -999, -999]	n/a	catFR1	0	R1372C
1972.118	2.218	1972604	DISTRACT_END	n/a	n/a	n/a	n/a	-999	14	[0, 0, 0]	n/a	catFR1	0	R1372C
1974.336	2.764	1974836	REC_START	n/a	n/a	n/a	n/a	-999	14	[0, 0, 0]	n/a	catFR1	0	R1372C
1977.1	2.432	1977598	REC_WORD	2.764	n/a	WATER	Beverages	1	14	[0, 0, 0]	n/a	catFR1	0	R1372C
1979.532	5.114	1980030	REC_WORD	5.196	n/a	JUICE	Beverages	2	14	[0, 0, 0]	n/a	catFR1	0	R1372C
1984.646	19.702	1985143	REC_WORD	10.31	n/a	PUDDING	Desserts	4	14	[0, 0, 0]	n/a	catFR1	0	R1372C
2004.348	5.444	2004857	REC_END	n/a	n/a	n/a	n/a	-999	14	[0, 0, 0]	n/a	catFR1	0	R1372C
2009.792	10.43	2010313	COUNTDOWN_START	n/a	n/a	n/a	n/a	-999	15	[0, 0, 0]	n/a	catFR1	0	R1372C
2020.222	1.122	2020715	COUNTDOWN_END	n/a	n/a	n/a	n/a	-999	15	[0, 0, 0]	n/a	catFR1	0	R1372C
2021.344	1.06	2021831	ENCODING_START	n/a	n/a	n/a	n/a	-999	15	[0, 0, 0]	n/a	catFR1	0	R1372C
2022.404	1.623	2022892	WORD	n/a	wordpools/wordpool_categorized_EN.txt	HAWK	Birds	1	15	[0, 0, 0]	n/a	catFR1	0	R1372C
2024.027	0.825	2024518	WORD_OFF	n/a	n/a	HAWK	Birds	1	15	[0, 0, 0]	n/a	catFR1	0	R1372C
2024.852	1.626	2025345	WORD	n/a	wordpools/wordpool_categorized_EN.txt	DOVE	Birds	2	15	[0, 0, 0]	n/a	catFR1	0	R1372C
2026.478	1.052	2026971	WORD_OFF	n/a	n/a	DOVE	Birds	2	15	[0, 0, 0]	n/a	catFR1	0	R1372C
2027.53	1.632	2028031	WORD	n/a	wordpools/wordpool_categorized_EN.txt	JACKET	Clothing	3	15	[0, 0, 0]	n/a	catFR1	0	R1372C
2029.162	1.058	2029643	WORD_OFF	n/a	n/a	JACKET	Clothing	3	15	[0, 0, 0]	n/a	catFR1	0	R1372C
2030.22	1.626	2030718	WORD	n/a	wordpools/wordpool_categorized_EN.txt	UNDERWEAR	Clothing	4	15	[0, 0, 0]	n/a	catFR1	0	R1372C
2031.846	0.763	2032330	WORD_OFF	n/a	n/a	UNDERWEAR	Clothing	4	15	[0, 0, 0]	n/a	catFR1	0	R1372C
2032.609	1.637	2033115	WORD	n/a	wordpools/wordpool_categorized_EN.txt	BUS	Vehicles	5	15	[0, 0, 0]	n/a	catFR1	0	R1372C
2034.246	0.852	2034727	WORD_OFF	n/a	n/a	BUS	Vehicles	5	15	[0, 0, 0]	n/a	catFR1	0	R1372C
2035.098	1.632	2035595	WORD	n/a	wordpools/wordpool_categorized_EN.txt	CAR	Vehicles	6	15	[0, 0, 0]	n/a	catFR1	0	R1372C
2036.73	0.795	2037221	WORD_OFF	n/a	n/a	CAR	Vehicles	6	15	[0, 0, 0]	n/a	catFR1	0	R1372C
2037.525	1.622	2038020	WORD	n/a	wordpools/wordpool_categorized_EN.txt	COAT	Clothing	7	15	[0, 0, 0]	n/a	catFR1	0	R1372C
2039.147	0.78	2039632	WORD_OFF	n/a	n/a	COAT	Clothing	7	15	[0, 0, 0]	n/a	catFR1	0	R1372C
2039.927	1.637	2040431	WORD	n/a	wordpools/wordpool_categorized_EN.txt	DRESS	Clothing	8	15	[0, 0, 0]	n/a	catFR1	0	R1372C
2041.564	1.019	2042043	WORD_OFF	n/a	n/a	DRESS	Clothing	8	15	[0, 0, 0]	n/a	catFR1	0	R1372C
2042.583	1.632	2043077	WORD	n/a	wordpools/wordpool_categorized_EN.txt	DUCK	Birds	9	15	[0, 0, 0]	n/a	catFR1	0	R1372C
2044.215	1.052	2044703	WORD_OFF	n/a	n/a	DUCK	Birds	9	15	[0, 0, 0]	n/a	catFR1	0	R1372C
2045.267	1.63	2045763	WORD	n/a	wordpools/wordpool_categorized_EN.txt	SEAGULL	Birds	10	15	[0, 0, 0]	n/a	catFR1	0	R1372C
2046.897	0.961	2047389	WORD_OFF	n/a	n/a	SEAGULL	Birds	10	15	[0, 0, 0]	n/a	catFR1	0	R1372C
2047.858	1.624	2048354	WORD	n/a	wordpools/wordpool_categorized_EN.txt	VAN	Vehicles	11	15	[0, 0, 0]	n/a	catFR1	0	R1372C
2049.482	1.125	2049966	WORD_OFF	n/a	n/a	VAN	Vehicles	11	15	[0, 0, 0]	n/a	catFR1	0	R1372C
2050.607	1.627	2051095	WORD	n/a	wordpools/wordpool_categorized_EN.txt	SCOOTER	Vehicles	12	15	[0, 0, 0]	n/a	catFR1	0	R1372C
2052.234	0.0	2052728	START	n/a	n/a	n/a	n/a	-999	15	[-999, -999, -999]	n/a	catFR1	0	R1372C
2052.233	0.0	2052735	WORD_OFF	n/a	n/a	SCOOTER	Vehicles	12	15	[0, 0, 0]	n/a	catFR1	0	R1372C
2052.233	0.001	2052735	ENCODING_END	n/a	n/a	n/a	n/a	-999	15	[0, 0, 0]	n/a	catFR1	0	R1372C
2052.234	0.015	2052735	DISTRACT_START	n/a	n/a	n/a	n/a	-999	15	[0, 0, 0]	n/a	catFR1	0	R1372C
2052.249	4.418	2052743	PROB	4.38	n/a	n/a	n/a	-999	15	[1, 8, 5]	14.0	catFR1	0	R1372C
2056.667	4.684	2057161	PROB	4.651	n/a	n/a	n/a	-999	15	[8, 2, 8]	18.0	catFR1	0	R1372C
2061.351	4.151	2061844	PROB	4.119	n/a	n/a	n/a	-999	15	[2, 8, 7]	17.0	catFR1	0	R1372C
2065.502	4.184	2065995	PROB	4.15	n/a	n/a	n/a	-999	15	[1, 9, 3]	13.0	catFR1	0	R1372C
2069.686	4.495	2070179	PROB	4.495	n/a	n/a	n/a	-999	15	[1, 7, 1]	9.0	catFR1	0	R1372C
2074.181	0.023	2074674	STOP	n/a	n/a	n/a	n/a	-999	15	[-999, -999, -999]	n/a	catFR1	0	R1372C
2074.204	2.184	2074683	DISTRACT_END	n/a	n/a	n/a	n/a	-999	15	[0, 0, 0]	n/a	catFR1	0	R1372C
2076.388	1.123	2076887	REC_START	n/a	n/a	n/a	n/a	-999	15	[0, 0, 0]	n/a	catFR1	0	R1372C
2077.511	1.98	2078004	REC_WORD	1.123	n/a	DOVE	Birds	2	15	[0, 0, 0]	n/a	catFR1	0	R1372C
2079.491	11.785	2079983	REC_WORD	3.103	n/a	DUCK	Birds	9	15	[0, 0, 0]	n/a	catFR1	0	R1372C
2091.276	15.121	2091768	REC_WORD	14.888	n/a	MOTH	Insects	-999	15	[0, 0, 0]	n/a	catFR1	0	R1372C
2106.397	10.332	2106909	REC_END	n/a	n/a	n/a	n/a	-999	15	[0, 0, 0]	n/a	catFR1	0	R1372C
2116.729	10.428	2117242	COUNTDOWN_START	n/a	n/a	n/a	n/a	-999	16	[0, 0, 0]	n/a	catFR1	0	R1372C
2127.157	1.141	2127645	COUNTDOWN_END	n/a	n/a	n/a	n/a	-999	16	[0, 0, 0]	n/a	catFR1	0	R1372C
2128.298	0.975	2128774	ENCODING_START	n/a	n/a	n/a	n/a	-999	16	[0, 0, 0]	n/a	catFR1	0	R1372C
2129.273	1.624	2129766	WORD	n/a	wordpools/wordpool_categorized_EN.txt	WINE	Beverages	1	16	[0, 0, 0]	n/a	catFR1	0	R1372C
2130.897	0.962	2131378	WORD_OFF	n/a	n/a	WINE	Beverages	1	16	[0, 0, 0]	n/a	catFR1	0	R1372C
2131.859	1.622	2132343	WORD	n/a	wordpools/wordpool_categorized_EN.txt	MILK	Beverages	2	16	[0, 0, 0]	n/a	catFR1	0	R1372C
2133.481	1.113	2133969	WORD_OFF	n/a	n/a	MILK	Beverages	2	16	[0, 0, 0]	n/a	catFR1	0	R1372C
2134.594	1.638	2135098	WORD	n/a	wordpools/wordpool_categorized_EN.txt	ORCHID	Flowers	3	16	[0, 0, 0]	n/a	catFR1	0	R1372C
2136.232	1.139	2136710	WORD_OFF	n/a	n/a	ORCHID	Flowers	3	16	[0, 0, 0]	n/a	catFR1	0	R1372C
2137.371	1.628	2137868	WORD	n/a	wordpools/wordpool_categorized_EN.txt	ROSE	Flowers	4	16	[0, 0, 0]	n/a	catFR1	0	R1372C
2138.999	0.857	2139480	WORD_OFF	n/a	n/a	ROSE	Flowers	4	16	[0, 0, 0]	n/a	catFR1	0	R1372C
2139.856	1.627	2140348	WORD	n/a	wordpools/wordpool_categorized_EN.txt	FISH	OceanAnimals	5	16	[0, 0, 0]	n/a	catFR1	0	R1372C
2141.483	1.136	2141960	WORD_OFF	n/a	n/a	FISH	OceanAnimals	5	16	[0, 0, 0]	n/a	catFR1	0	R1372C
2142.619	1.631	2143117	WORD	n/a	wordpools/wordpool_categorized_EN.txt	PLANKTON	OceanAnimals	6	16	[0, 0, 0]	n/a	catFR1	0	R1372C
2144.25	1.121	2144729	WORD_OFF	n/a	n/a	PLANKTON	OceanAnimals	6	16	[0, 0, 0]	n/a	catFR1	0	R1372C
2145.371	1.63	2145859	WORD	n/a	wordpools/wordpool_categorized_EN.txt	TEA	Beverages	7	16	[0, 0, 0]	n/a	catFR1	0	R1372C
2147.001	1.036	2147485	WORD_OFF	n/a	n/a	TEA	Beverages	7	16	[0, 0, 0]	n/a	catFR1	0	R1372C
2148.037	1.631	2148532	WORD	n/a	wordpools/wordpool_categorized_EN.txt	CIDER	Beverages	8	16	[0, 0, 0]	n/a	catFR1	0	R1372C
2149.668	0.948	2150144	WORD_OFF	n/a	n/a	CIDER	Beverages	8	16	[0, 0, 0]	n/a	catFR1	0	R1372C
2150.616	1.636	2151108	WORD	n/a	wordpools/wordpool_categorized_EN.txt	OYSTER	OceanAnimals	9	16	[0, 0, 0]	n/a	catFR1	0	R1372C
2152.252	0.885	2152734	WORD_OFF	n/a	n/a	OYSTER	OceanAnimals	9	16	[0, 0, 0]	n/a	catFR1	0	R1372C
2153.137	1.632	2153630	WORD	n/a	wordpools/wordpool_categorized_EN.txt	WHALE	OceanAnimals	10	16	[0, 0, 0]	n/a	catFR1	0	R1372C
2154.769	0.767	2155255	WORD_OFF	n/a	n/a	WHALE	OceanAnimals	10	16	[0, 0, 0]	n/a	catFR1	0	R1372C
2155.536	1.633	2156027	WORD	n/a	wordpools/wordpool_categorized_EN.txt	MARIGOLD	Flowers	11	16	[0, 0, 0]	n/a	catFR1	0	R1372C
2157.169	0.996	2157653	WORD_OFF	n/a	n/a	MARIGOLD	Flowers	11	16	[0, 0, 0]	n/a	catFR1	0	R1372C
2158.165	1.639	2158658	WORD	n/a	wordpools/wordpool_categorized_EN.txt	VIOLET	Flowers	12	16	[0, 0, 0]	n/a	catFR1	0	R1372C
2159.804	0.0	2160292	START	n/a	n/a	n/a	n/a	-999	16	[-999, -999, -999]	n/a	catFR1	0	R1372C
2159.803	0.001	2160298	WORD_OFF	n/a	n/a	VIOLET	Flowers	12	16	[0, 0, 0]	n/a	catFR1	0	R1372C
2159.804	0.0	2160298	ENCODING_END	n/a	n/a	n/a	n/a	-999	16	[0, 0, 0]	n/a	catFR1	0	R1372C
2159.804	0.015	2160298	DISTRACT_START	n/a	n/a	n/a	n/a	-999	16	[0, 0, 0]	n/a	catFR1	0	R1372C
2159.819	6.452	2160307	PROB	6.424	n/a	n/a	n/a	-999	16	[7, 8, 5]	20.0	catFR1	0	R1372C
2166.271	4.834	2166759	PROB	4.8	n/a	n/a	n/a	-999	16	[3, 3, 3]	9.0	catFR1	0	R1372C
2171.105	4.701	2171593	PROB	4.67	n/a	n/a	n/a	-999	16	[5, 1, 6]	12.0	catFR1	0	R1372C
2175.806	5.15	2176294	PROB	5.143	n/a	n/a	n/a	-999	16	[4, 4, 7]	15.0	catFR1	0	R1372C
2180.956	0.0	2181433	DISTRACT_END	n/a	n/a	n/a	n/a	-999	16	[0, 0, 0]	n/a	catFR1	0	R1372C
2180.949	2.209	2181436	STOP	n/a	n/a	n/a	n/a	-999	16	[-999, -999, -999]	n/a	catFR1	0	R1372C
2183.158	0.847	2183651	REC_START	n/a	n/a	n/a	n/a	-999	16	[0, 0, 0]	n/a	catFR1	0	R1372C
2184.005	4.217	2184492	REC_WORD	0.847	n/a	FISH	OceanAnimals	5	16	[0, 0, 0]	n/a	catFR1	0	R1372C
2188.222	4.457	2188709	REC_WORD	5.064	n/a	MILK	Beverages	2	16	[0, 0, 0]	n/a	catFR1	0	R1372C
2192.679	6.441	2193166	REC_WORD	9.521	n/a	WINE	Beverages	1	16	[0, 0, 0]	n/a	catFR1	0	R1372C
2199.12	14.048	2199606	REC_WORD	15.962	n/a	WHALE	OceanAnimals	10	16	[0, 0, 0]	n/a	catFR1	0	R1372C
2213.168	17.816	2213673	REC_END	n/a	n/a	n/a	n/a	-999	16	[0, 0, 0]	n/a	catFR1	0	R1372C
2230.984	10.428	2231488	COUNTDOWN_START	n/a	n/a	n/a	n/a	-999	17	[0, 0, 0]	n/a	catFR1	0	R1372C
2241.412	1.107	2241890	COUNTDOWN_END	n/a	n/a	n/a	n/a	-999	17	[0, 0, 0]	n/a	catFR1	0	R1372C
2242.519	1.083	2242992	ENCODING_START	n/a	n/a	n/a	n/a	-999	17	[0, 0, 0]	n/a	catFR1	0	R1372C
2243.602	1.634	2244094	WORD	n/a	wordpools/wordpool_categorized_EN.txt	SPARROW	Birds	1	17	[0, 0, 0]	n/a	catFR1	0	R1372C
2245.236	1.146	2245706	WORD_OFF	n/a	n/a	SPARROW	Birds	1	17	[0, 0, 0]	n/a	catFR1	0	R1372C
2246.382	1.638	2246877	WORD	n/a	wordpools/wordpool_categorized_EN.txt	GOOSE	Birds	2	17	[0, 0, 0]	n/a	catFR1	0	R1372C
2248.02	0.778	2248489	WORD_OFF	n/a	n/a	GOOSE	Birds	2	17	[0, 0, 0]	n/a	catFR1	0	R1372C
2248.798	1.622	2249275	WORD	n/a	wordpools/wordpool_categorized_EN.txt	ARM	BodyParts	3	17	[0, 0, 0]	n/a	catFR1	0	R1372C
2250.42	0.978	2250901	WORD_OFF	n/a	n/a	ARM	BodyParts	3	17	[0, 0, 0]	n/a	catFR1	0	R1372C
2251.398	1.623	2251879	WORD	n/a	wordpools/wordpool_categorized_EN.txt	ELBOW	BodyParts	4	17	[0, 0, 0]	n/a	catFR1	0	R1372C
2253.021	0.785	2253491	WORD_OFF	n/a	n/a	ELBOW	BodyParts	4	17	[0, 0, 0]	n/a	catFR1	0	R1372C
2253.806	1.632	2254290	WORD	n/a	wordpools/wordpool_categorized_EN.txt	SPRUCE	Trees	5	17	[0, 0, 0]	n/a	catFR1	0	R1372C
2255.438	1.002	2255916	WORD_OFF	n/a	n/a	SPRUCE	Trees	5	17	[0, 0, 0]	n/a	catFR1	0	R1372C
2256.44	1.631	2256935	WORD	n/a	wordpools/wordpool_categorized_EN.txt	WALNUT	Trees	6	17	[0, 0, 0]	n/a	catFR1	0	R1372C
2258.071	1.023	2258547	WORD_OFF	n/a	n/a	WALNUT	Trees	6	17	[0, 0, 0]	n/a	catFR1	0	R1372C
2259.094	1.628	2259581	WORD	n/a	wordpools/wordpool_categorized_EN.txt	HAND	BodyParts	7	17	[0, 0, 0]	n/a	catFR1	0	R1372C
2260.722	1.095	2261193	WORD_OFF	n/a	n/a	HAND	BodyParts	7	17	[0, 0, 0]	n/a	catFR1	0	R1372C
2261.817	1.622	2262295	WORD	n/a	wordpools/wordpool_categorized_EN.txt	EAR	BodyParts	8	17	[0, 0, 0]	n/a	catFR1	0	R1372C
2263.439	0.835	2263907	WORD_OFF	n/a	n/a	EAR	BodyParts	8	17	[0, 0, 0]	n/a	catFR1	0	R1372C
2264.274	1.631	2264761	WORD	n/a	wordpools/wordpool_categorized_EN.txt	MAPLE	Trees	9	17	[0, 0, 0]	n/a	catFR1	0	R1372C
2265.905	1.148	2266387	WORD_OFF	n/a	n/a	MAPLE	Trees	9	17	[0, 0, 0]	n/a	catFR1	0	R1372C
2267.053	1.637	2267544	WORD	n/a	wordpools/wordpool_categorized_EN.txt	BIRCH	Trees	10	17	[0, 0, 0]	n/a	catFR1	0	R1372C
2268.69	1.002	2269170	WORD_OFF	n/a	n/a	BIRCH	Trees	10	17	[0, 0, 0]	n/a	catFR1	0	R1372C
2269.692	1.632	2270176	WORD	n/a	wordpools/wordpool_categorized_EN.txt	BLUEBIRD	Birds	11	17	[0, 0, 0]	n/a	catFR1	0	R1372C
2271.324	1.087	2271801	WORD_OFF	n/a	n/a	BLUEBIRD	Birds	11	17	[0, 0, 0]	n/a	catFR1	0	R1372C
2272.411	1.631	2272890	WORD	n/a	wordpools/wordpool_categorized_EN.txt	PIGEON	Birds	12	17	[0, 0, 0]	n/a	catFR1	0	R1372C
2274.042	0.0	2274524	START	n/a	n/a	n/a	n/a	-999	17	[-999, -999, -999]	n/a	catFR1	0	R1372C
2274.041	0.001	2274529	WORD_OFF	n/a	n/a	PIGEON	Birds	12	17	[0, 0, 0]	n/a	catFR1	0	R1372C
2274.042	0.0	2274529	ENCODING_END	n/a	n/a	n/a	n/a	-999	17	[0, 0, 0]	n/a	catFR1	0	R1372C
2274.042	0.016	2274529	DISTRACT_START	n/a	n/a	n/a	n/a	-999	17	[0, 0, 0]	n/a	catFR1	0	R1372C
2274.058	5.767	2274540	PROB	5.732	n/a	n/a	n/a	-999	17	[9, 6, 7]	22.0	catFR1	0	R1372C
2279.825	7.151	2280307	PROB	7.12	n/a	n/a	n/a	-999	17	[3, 3, 8]	14.0	catFR1	0	R1372C
2286.976	9.315	2287458	PROB	9.315	n/a	n/a	n/a	-999	17	[7, 4, 2]	13.0	catFR1	0	R1372C
2296.291	0.021	2296772	STOP	n/a	n/a	n/a	n/a	-999	17	[-999, -999, -999]	n/a	catFR1	0	R1372C
2296.312	2.201	2296781	DISTRACT_END	n/a	n/a	n/a	n/a	-999	17	[0, 0, 0]	n/a	catFR1	0	R1372C
2298.513	0.798	2298999	REC_START	n/a	n/a	n/a	n/a	-999	17	[0, 0, 0]	n/a	catFR1	0	R1372C
2299.311	2.144	2299792	REC_WORD	0.798	n/a	SPRUCE	Trees	5	17	[0, 0, 0]	n/a	catFR1	0	R1372C
2301.455	5.398	2301936	REC_WORD	2.942	n/a	MAPLE	Trees	9	17	[0, 0, 0]	n/a	catFR1	0	R1372C
2306.853	5.592	2307334	REC_WORD	8.34	n/a	ELBOW	BodyParts	4	17	[0, 0, 0]	n/a	catFR1	0	R1372C
2312.445	7.276	2312926	REC_WORD	13.932	n/a	HAND	BodyParts	7	17	[0, 0, 0]	n/a	catFR1	0	R1372C
2319.721	8.803	2320201	REC_WORD	21.208	n/a	PIGEON	Birds	12	17	[0, 0, 0]	n/a	catFR1	0	R1372C
2328.524	4.679	2329021	REC_END	n/a	n/a	n/a	n/a	-999	17	[0, 0, 0]	n/a	catFR1	0	R1372C
2333.203	10.429	2333705	COUNTDOWN_START	n/a	n/a	n/a	n/a	-999	18	[0, 0, 0]	n/a	catFR1	0	R1372C
2343.632	1.057	2344107	COUNTDOWN_END	n/a	n/a	n/a	n/a	-999	18	[0, 0, 0]	n/a	catFR1	0	R1372C
2344.689	0.907	2345154	ENCODING_START	n/a	n/a	n/a	n/a	-999	18	[0, 0, 0]	n/a	catFR1	0	R1372C
2345.596	1.625	2346077	WORD	n/a	wordpools/wordpool_categorized_EN.txt	HEAD	BodyParts	1	18	[0, 0, 0]	n/a	catFR1	0	R1372C
2347.221	0.933	2347689	WORD_OFF	n/a	n/a	HEAD	BodyParts	1	18	[0, 0, 0]	n/a	catFR1	0	R1372C
2348.154	1.635	2348640	WORD	n/a	wordpools/wordpool_categorized_EN.txt	LEG	BodyParts	2	18	[0, 0, 0]	n/a	catFR1	0	R1372C
2349.789	0.831	2350252	WORD_OFF	n/a	n/a	LEG	BodyParts	2	18	[0, 0, 0]	n/a	catFR1	0	R1372C
2350.62	1.636	2351106	WORD	n/a	wordpools/wordpool_categorized_EN.txt	FLUTE	Instruments	3	18	[0, 0, 0]	n/a	catFR1	0	R1372C
2352.256	1.055	2352732	WORD_OFF	n/a	n/a	FLUTE	Instruments	3	18	[0, 0, 0]	n/a	catFR1	0	R1372C
2353.311	1.628	2353793	WORD	n/a	wordpools/wordpool_categorized_EN.txt	BANJO	Instruments	4	18	[0, 0, 0]	n/a	catFR1	0	R1372C
2354.939	1.035	2355405	WORD_OFF	n/a	n/a	BANJO	Instruments	4	18	[0, 0, 0]	n/a	catFR1	0	R1372C
2355.974	1.632	2356452	WORD	n/a	wordpools/wordpool_categorized_EN.txt	SAW	Tools	5	18	[0, 0, 0]	n/a	catFR1	0	R1372C
2357.606	1.123	2358078	WORD_OFF	n/a	n/a	SAW	Tools	5	18	[0, 0, 0]	n/a	catFR1	0	R1372C
2358.729	1.628	2359208	WORD	n/a	wordpools/wordpool_categorized_EN.txt	SHOVEL	Tools	6	18	[0, 0, 0]	n/a	catFR1	0	R1372C
2360.357	1.101	2360833	WORD_OFF	n/a	n/a	SHOVEL	Tools	6	18	[0, 0, 0]	n/a	catFR1	0	R1372C
2361.458	1.633	2361949	WORD	n/a	wordpools/wordpool_categorized_EN.txt	PIANO	Instruments	7	18	[0, 0, 0]	n/a	catFR1	0	R1372C
2363.091	1.048	2363561	WORD_OFF	n/a	n/a	PIANO	Instruments	7	18	[0, 0, 0]	n/a	catFR1	0	R1372C
2364.139	1.636	2364622	WORD	n/a	wordpools/wordpool_categorized_EN.txt	BASS	Instruments	8	18	[0, 0, 0]	n/a	catFR1	0	R1372C
2365.775	0.873	2366248	WORD_OFF	n/a	n/a	BASS	Instruments	8	18	[0, 0, 0]	n/a	catFR1	0	R1372C
2366.648	1.628	2367130	WORD	n/a	wordpools/wordpool_categorized_EN.txt	CROWBAR	Tools	9	18	[0, 0, 0]	n/a	catFR1	0	R1372C
2368.276	1.095	2368742	WORD_OFF	n/a	n/a	CROWBAR	Tools	9	18	[0, 0, 0]	n/a	catFR1	0	R1372C
2369.371	1.621	2369844	WORD	n/a	wordpools/wordpool_categorized_EN.txt	LEVEL	Tools	10	18	[0, 0, 0]	n/a	catFR1	0	R1372C
2370.992	0.91	2371456	WORD_OFF	n/a	n/a	LEVEL	Tools	10	18	[0, 0, 0]	n/a	catFR1	0	R1372C
2371.902	1.625	2372379	WORD	n/a	wordpools/wordpool_categorized_EN.txt	EYE	BodyParts	11	18	[0, 0, 0]	n/a	catFR1	0	R1372C
2373.527	0.962	2373991	WORD_OFF	n/a	n/a	EYE	BodyParts	11	18	[0, 0, 0]	n/a	catFR1	0	R1372C
2374.489	1.639	2374983	WORD	n/a	wordpools/wordpool_categorized_EN.txt	FOOT	BodyParts	12	18	[0, 0, 0]	n/a	catFR1	0	R1372C
2376.128	0.0	2376605	START	n/a	n/a	n/a	n/a	-999	18	[-999, -999, -999]	n/a	catFR1	0	R1372C
2376.127	0.001	2376609	WORD_OFF	n/a	n/a	FOOT	BodyParts	12	18	[0, 0, 0]	n/a	catFR1	0	R1372C
2376.128	0.0	2376609	ENCODING_END	n/a	n/a	n/a	n/a	-999	18	[0, 0, 0]	n/a	catFR1	0	R1372C
2376.128	0.015	2376609	DISTRACT_START	n/a	n/a	n/a	n/a	-999	18	[0, 0, 0]	n/a	catFR1	0	R1372C
2376.143	5.535	2376620	PROB	5.511	n/a	n/a	n/a	-999	18	[3, 6, 3]	12.0	catFR1	0	R1372C
2381.678	9.118	2382155	PROB	9.084	n/a	n/a	n/a	-999	18	[8, 7, 7]	22.0	catFR1	0	R1372C
2390.796	8.119	2391272	PROB	8.119	n/a	n/a	n/a	-999	18	[4, 9, 8]	21.0	catFR1	0	R1372C
2398.915	0.015	2399391	STOP	n/a	n/a	n/a	n/a	-999	18	[-999, -999, -999]	n/a	catFR1	0	R1372C
2398.93	2.269	2399397	DISTRACT_END	n/a	n/a	n/a	n/a	-999	18	[0, 0, 0]	n/a	catFR1	0	R1372C
2401.199	2.443	2401684	REC_START	n/a	n/a	n/a	n/a	-999	18	[0, 0, 0]	n/a	catFR1	0	R1372C
2403.642	15.418	2404118	REC_WORD	2.443	n/a	FLUTE	Instruments	3	18	[0, 0, 0]	n/a	catFR1	0	R1372C
2419.06	12.15	2419535	REC_WORD	17.861	n/a	LOTS OF NOISE FROM NURSE INTERRUPTION	n/a	-999	18	[0, 0, 0]	n/a	catFR1	0	R1372C
2431.21	6.496	2431706	REC_END	n/a	n/a	n/a	n/a	-999	18	[0, 0, 0]	n/a	catFR1	0	R1372C
2437.706	0.0	2438209	COUNTDOWN_START	n/a	n/a	n/a	n/a	-999	19	[0, 0, 0]	n/a	catFR1	0	R1372C
