onset	duration	sample	trial_type	response_time	stim_file	item_name	category	serialpos	list	test	answer	experiment	session	subject
0.0	5.381	189733	INSTRUCT_START	n/a	n/a	n/a	n/a	-999	-999	[0, 0, 0]	n/a	catFR1	1	R1412M
5.381	34.366	195120	INSTRUCT_END	n/a	n/a	n/a	n/a	-999	-999	[0, 0, 0]	n/a	catFR1	1	R1412M
39.747	10.0	229482	COUNTDOWN_START	n/a	n/a	n/a	n/a	-999	-999	[0, 0, 0]	n/a	catFR1	1	R1412M
50.131	0.0	239857	COUNTDOWN_END	n/a	n/a	n/a	n/a	-999	-999	[0, 0, 0]	n/a	catFR1	1	R1412M
50.131	2.183	239870	ENCODING_START	n/a	n/a	n/a	n/a	-999	-1	[0, 0, 0]	n/a	catFR1	1	R1412M
52.314	1.6	242047	WORD	n/a	n/a	STRAINER	KitchenTools	1	-1	[0, 0, 0]	n/a	catFR1	1	R1412M
53.93	0.999	243659	WORD_OFF	n/a	n/a	STRAINER	KitchenTools	1	-1	[0, 0, 0]	n/a	catFR1	1	R1412M
54.929	1.6	244665	WORD	n/a	n/a	FORK	KitchenTools	2	-1	[0, 0, 0]	n/a	catFR1	1	R1412M
56.529	0.95	246263	WORD_OFF	n/a	n/a	FORK	KitchenTools	2	-1	[0, 0, 0]	n/a	catFR1	1	R1412M
57.479	1.6	247214	WORD	n/a	n/a	CALCULATOR	Electronics	3	-1	[0, 0, 0]	n/a	catFR1	1	R1412M
59.08	0.9	248812	WORD_OFF	n/a	n/a	CALCULATOR	Electronics	3	-1	[0, 0, 0]	n/a	catFR1	1	R1412M
59.98	1.6	249708	WORD	n/a	n/a	TABLET	Electronics	4	-1	[0, 0, 0]	n/a	catFR1	1	R1412M
61.597	1.0	251334	WORD_OFF	n/a	n/a	TABLET	Electronics	4	-1	[0, 0, 0]	n/a	catFR1	1	R1412M
62.597	1.6	252326	WORD	n/a	n/a	FOG	Weather	5	-1	[0, 0, 0]	n/a	catFR1	1	R1412M
64.212	0.785	253938	WORD_OFF	n/a	n/a	FOG	Weather	5	-1	[0, 0, 0]	n/a	catFR1	1	R1412M
64.997	1.6	254723	WORD	n/a	n/a	CLOUD	Weather	6	-1	[0, 0, 0]	n/a	catFR1	1	R1412M
66.612	0.817	256349	WORD_OFF	n/a	n/a	CLOUD	Weather	6	-1	[0, 0, 0]	n/a	catFR1	1	R1412M
67.429	1.6	257162	WORD	n/a	n/a	WHISK	KitchenTools	7	-1	[0, 0, 0]	n/a	catFR1	1	R1412M
69.03	0.949	258760	WORD_OFF	n/a	n/a	WHISK	KitchenTools	7	-1	[0, 0, 0]	n/a	catFR1	1	R1412M
69.979	1.6	259710	WORD	n/a	n/a	COLANDER	KitchenTools	8	-1	[0, 0, 0]	n/a	catFR1	1	R1412M
71.579	0.885	261309	WORD_OFF	n/a	n/a	COLANDER	KitchenTools	8	-1	[0, 0, 0]	n/a	catFR1	1	R1412M
72.464	1.6	262190	WORD	n/a	n/a	RADIO	Electronics	9	-1	[0, 0, 0]	n/a	catFR1	1	R1412M
74.063	0.999	263789	WORD_OFF	n/a	n/a	RADIO	Electronics	9	-1	[0, 0, 0]	n/a	catFR1	1	R1412M
75.062	1.6	264794	WORD	n/a	n/a	STEREO	Electronics	10	-1	[0, 0, 0]	n/a	catFR1	1	R1412M
76.663	0.9	266393	WORD_OFF	n/a	n/a	STEREO	Electronics	10	-1	[0, 0, 0]	n/a	catFR1	1	R1412M
77.563	1.6	267288	WORD	n/a	n/a	THUNDER	Weather	11	-1	[0, 0, 0]	n/a	catFR1	1	R1412M
79.163	0.95	268900	WORD_OFF	n/a	n/a	THUNDER	Weather	11	-1	[0, 0, 0]	n/a	catFR1	1	R1412M
80.113	1.6	269837	WORD	n/a	n/a	TORNADO	Weather	12	-1	[0, 0, 0]	n/a	catFR1	1	R1412M
81.715	0.0	271444	START	n/a	n/a	n/a	n/a	-999	-1	[-999, -999, -999]	n/a	catFR1	1	R1412M
81.715	0.0	271444	PROB	3.483	n/a	n/a	n/a	-999	-1	[3, 2, 1]	6.0	catFR1	1	R1412M
81.713	0.002	271449	WORD_OFF	n/a	n/a	TORNADO	Weather	12	-1	[0, 0, 0]	n/a	catFR1	1	R1412M
81.715	0.0	271449	ENCODING_END	n/a	n/a	n/a	n/a	-999	-1	[0, 0, 0]	n/a	catFR1	1	R1412M
81.715	3.498	271449	DISTRACT_START	n/a	n/a	n/a	n/a	-999	-1	[0, 0, 0]	n/a	catFR1	1	R1412M
85.213	5.168	274942	PROB	5.15	n/a	n/a	n/a	-999	-1	[3, 4, 5]	12.0	catFR1	1	R1412M
90.381	3.983	280110	PROB	3.965	n/a	n/a	n/a	-999	-1	[2, 7, 2]	11.0	catFR1	1	R1412M
94.364	4.4	284093	PROB	4.382	n/a	n/a	n/a	-999	-1	[2, 7, 2]	11.0	catFR1	1	R1412M
98.764	6.533	288492	PROB	6.516	n/a	n/a	n/a	-999	-1	[3, 8, 6]	17.0	catFR1	1	R1412M
105.297	0.0	295023	DISTRACT_END	n/a	n/a	n/a	n/a	-999	-1	[0, 0, 0]	n/a	catFR1	1	R1412M
105.297	2.383	295025	STOP	n/a	n/a	n/a	n/a	-999	-1	[-999, -999, -999]	n/a	catFR1	1	R1412M
107.68	0.295	297414	REC_START	n/a	n/a	n/a	n/a	-999	-1	[0, 0, 0]	n/a	catFR1	1	R1412M
107.975	0.923	297703	REC_WORD	0.295	n/a	FORK	KitchenTools	2	-1	[0, 0, 0]	n/a	catFR1	1	R1412M
108.898	0.501	298626	REC_WORD	1.218	n/a	THUNDER	Weather	11	-1	[0, 0, 0]	n/a	catFR1	1	R1412M
109.399	2.204	299127	REC_WORD	1.719	n/a	SPOON	n/a	-999	-1	[0, 0, 0]	n/a	catFR1	1	R1412M
111.603	0.245	301331	REC_WORD_VV	3.923	n/a	<>	n/a	-999	-1	[0, 0, 0]	n/a	catFR1	1	R1412M
111.848	3.208	301576	REC_WORD	4.168	n/a	FOG	Weather	5	-1	[0, 0, 0]	n/a	catFR1	1	R1412M
115.056	0.777	304784	REC_WORD	7.376	n/a	RADIO	Electronics	9	-1	[0, 0, 0]	n/a	catFR1	1	R1412M
115.833	12.405	305561	REC_WORD	8.153	n/a	STEREO	Electronics	10	-1	[0, 0, 0]	n/a	catFR1	1	R1412M
128.238	9.697	317965	REC_WORD	20.558	n/a	COLANDER	KitchenTools	8	-1	[0, 0, 0]	n/a	catFR1	1	R1412M
137.935	11.911	327662	REC_END	n/a	n/a	n/a	n/a	-999	-1	[0, 0, 0]	n/a	catFR1	1	R1412M
149.846	10.0	339580	COUNTDOWN_START	n/a	n/a	n/a	n/a	-999	1	[0, 0, 0]	n/a	catFR1	1	R1412M
160.198	0.0	349927	COUNTDOWN_END	n/a	n/a	n/a	n/a	-999	1	[0, 0, 0]	n/a	catFR1	1	R1412M
160.198	1.999	349927	ENCODING_START	n/a	n/a	n/a	n/a	-999	1	[0, 0, 0]	n/a	catFR1	1	R1412M
162.197	1.6	351925	WORD	n/a	wordpools/wordpool_categorized_EN.txt	VIOLET	Flowers	1	1	[0, 0, 0]	n/a	catFR1	1	R1412M
163.797	0.817	353523	WORD_OFF	n/a	n/a	VIOLET	Flowers	1	1	[0, 0, 0]	n/a	catFR1	1	R1412M
164.614	1.6	354336	WORD	n/a	wordpools/wordpool_categorized_EN.txt	ORCHID	Flowers	2	1	[0, 0, 0]	n/a	catFR1	1	R1412M
166.23	0.866	355962	WORD_OFF	n/a	n/a	ORCHID	Flowers	2	1	[0, 0, 0]	n/a	catFR1	1	R1412M
167.096	1.6	356816	WORD	n/a	wordpools/wordpool_categorized_EN.txt	RUM	Beverages	3	1	[0, 0, 0]	n/a	catFR1	1	R1412M
168.698	0.932	358428	WORD_OFF	n/a	n/a	RUM	Beverages	3	1	[0, 0, 0]	n/a	catFR1	1	R1412M
169.63	1.6	359351	WORD	n/a	wordpools/wordpool_categorized_EN.txt	BEER	Beverages	4	1	[0, 0, 0]	n/a	catFR1	1	R1412M
171.247	0.9	360977	WORD_OFF	n/a	n/a	BEER	Beverages	4	1	[0, 0, 0]	n/a	catFR1	1	R1412M
172.147	1.6	361873	WORD	n/a	wordpools/wordpool_categorized_EN.txt	TUBA	Instruments	5	1	[0, 0, 0]	n/a	catFR1	1	R1412M
173.763	0.901	363485	WORD_OFF	n/a	n/a	TUBA	Instruments	5	1	[0, 0, 0]	n/a	catFR1	1	R1412M
174.664	1.6	364394	WORD	n/a	wordpools/wordpool_categorized_EN.txt	BANJO	Instruments	6	1	[0, 0, 0]	n/a	catFR1	1	R1412M
176.264	0.866	365992	WORD_OFF	n/a	n/a	BANJO	Instruments	6	1	[0, 0, 0]	n/a	catFR1	1	R1412M
177.13	1.6	366860	WORD	n/a	wordpools/wordpool_categorized_EN.txt	SUNFLOWER	Flowers	7	1	[0, 0, 0]	n/a	catFR1	1	R1412M
178.73	0.85	368458	WORD_OFF	n/a	n/a	SUNFLOWER	Flowers	7	1	[0, 0, 0]	n/a	catFR1	1	R1412M
179.58	1.6	369299	WORD	n/a	wordpools/wordpool_categorized_EN.txt	LILY	Flowers	8	1	[0, 0, 0]	n/a	catFR1	1	R1412M
181.18	0.984	370911	WORD_OFF	n/a	n/a	LILY	Flowers	8	1	[0, 0, 0]	n/a	catFR1	1	R1412M
182.164	1.6	371889	WORD	n/a	wordpools/wordpool_categorized_EN.txt	LEMONADE	Beverages	9	1	[0, 0, 0]	n/a	catFR1	1	R1412M
183.78	0.867	373501	WORD_OFF	n/a	n/a	LEMONADE	Beverages	9	1	[0, 0, 0]	n/a	catFR1	1	R1412M
184.647	1.6	374369	WORD	n/a	wordpools/wordpool_categorized_EN.txt	COLA	Beverages	10	1	[0, 0, 0]	n/a	catFR1	1	R1412M
186.263	0.849	375981	WORD_OFF	n/a	n/a	COLA	Beverages	10	1	[0, 0, 0]	n/a	catFR1	1	R1412M
187.112	1.6	376835	WORD	n/a	wordpools/wordpool_categorized_EN.txt	BASS	Instruments	11	1	[0, 0, 0]	n/a	catFR1	1	R1412M
188.713	0.834	378433	WORD_OFF	n/a	n/a	BASS	Instruments	11	1	[0, 0, 0]	n/a	catFR1	1	R1412M
189.547	1.6	379274	WORD	n/a	wordpools/wordpool_categorized_EN.txt	VIOLIN	Instruments	12	1	[0, 0, 0]	n/a	catFR1	1	R1412M
191.147	0.008	380871	PROB	4.483	n/a	n/a	n/a	-999	1	[4, 2, 1]	7.0	catFR1	1	R1412M
191.155	0.0	380879	START	n/a	n/a	n/a	n/a	-999	1	[-999, -999, -999]	n/a	catFR1	1	R1412M
191.147	0.008	380886	WORD_OFF	n/a	n/a	VIOLIN	Instruments	12	1	[0, 0, 0]	n/a	catFR1	1	R1412M
191.155	0.0	380886	ENCODING_END	n/a	n/a	n/a	n/a	-999	1	[0, 0, 0]	n/a	catFR1	1	R1412M
191.155	4.492	380886	DISTRACT_START	n/a	n/a	n/a	n/a	-999	1	[0, 0, 0]	n/a	catFR1	1	R1412M
195.647	2.983	385371	PROB	2.966	n/a	n/a	n/a	-999	1	[1, 5, 1]	6.0	catFR1	1	R1412M
198.63	7.367	388354	PROB	7.349	n/a	n/a	n/a	-999	1	[7, 8, 2]	17.0	catFR1	1	R1412M
205.997	6.983	395720	PROB	6.966	n/a	n/a	n/a	-999	1	[8, 1, 6]	15.0	catFR1	1	R1412M
212.98	0.0	402696	DISTRACT_END	n/a	n/a	n/a	n/a	-999	1	[0, 0, 0]	n/a	catFR1	1	R1412M
212.98	2.399	402703	STOP	n/a	n/a	n/a	n/a	-999	1	[-999, -999, -999]	n/a	catFR1	1	R1412M
215.379	0.146	405101	REC_START	n/a	n/a	n/a	n/a	-999	1	[0, 0, 0]	n/a	catFR1	1	R1412M
215.525	1.471	405248	REC_WORD	0.146	n/a	LEMONADE	Beverages	9	1	[0, 0, 0]	n/a	catFR1	1	R1412M
216.996	1.892	406719	REC_WORD	1.617	n/a	VIOLET	Flowers	1	1	[0, 0, 0]	n/a	catFR1	1	R1412M
218.888	2.385	408611	REC_WORD_VV	3.509	n/a	<>	n/a	-999	1	[0, 0, 0]	n/a	catFR1	1	R1412M
221.273	0.984	410995	REC_WORD	5.894	n/a	BEER	Beverages	4	1	[0, 0, 0]	n/a	catFR1	1	R1412M
222.257	7.563	411979	REC_WORD	6.878	n/a	COLA	Beverages	10	1	[0, 0, 0]	n/a	catFR1	1	R1412M
229.82	7.459	419542	REC_WORD	14.441	n/a	SUNFLOWER	Flowers	7	1	[0, 0, 0]	n/a	catFR1	1	R1412M
237.279	8.328	427001	REC_WORD	21.9	n/a	RUM	Beverages	3	1	[0, 0, 0]	n/a	catFR1	1	R1412M
245.607	6.057	435322	REC_END	n/a	n/a	n/a	n/a	-999	1	[0, 0, 0]	n/a	catFR1	1	R1412M
251.664	10.0	441384	COUNTDOWN_START	n/a	n/a	n/a	n/a	-999	2	[0, 0, 0]	n/a	catFR1	1	R1412M
262.014	0.0	451731	COUNTDOWN_END	n/a	n/a	n/a	n/a	-999	2	[0, 0, 0]	n/a	catFR1	1	R1412M
262.014	2.016	451731	ENCODING_START	n/a	n/a	n/a	n/a	-999	2	[0, 0, 0]	n/a	catFR1	1	R1412M
264.03	1.6	453756	WORD	n/a	wordpools/wordpool_categorized_EN.txt	LIGHTNING	Weather	1	2	[0, 0, 0]	n/a	catFR1	1	R1412M
265.647	0.949	455368	WORD_OFF	n/a	n/a	LIGHTNING	Weather	1	2	[0, 0, 0]	n/a	catFR1	1	R1412M
266.596	1.6	456319	WORD	n/a	wordpools/wordpool_categorized_EN.txt	SNOW	Weather	2	2	[0, 0, 0]	n/a	catFR1	1	R1412M
268.196	0.834	457917	WORD_OFF	n/a	n/a	SNOW	Weather	2	2	[0, 0, 0]	n/a	catFR1	1	R1412M
269.03	1.6	458744	WORD	n/a	wordpools/wordpool_categorized_EN.txt	RIVER	Landscapes	3	2	[0, 0, 0]	n/a	catFR1	1	R1412M
270.63	0.966	460356	WORD_OFF	n/a	n/a	RIVER	Landscapes	3	2	[0, 0, 0]	n/a	catFR1	1	R1412M
271.596	1.6	461320	WORD	n/a	wordpools/wordpool_categorized_EN.txt	ISLAND	Landscapes	4	2	[0, 0, 0]	n/a	catFR1	1	R1412M
273.197	0.95	462919	WORD_OFF	n/a	n/a	ISLAND	Landscapes	4	2	[0, 0, 0]	n/a	catFR1	1	R1412M
274.147	1.6	463869	WORD	n/a	wordpools/wordpool_categorized_EN.txt	TONGS	KitchenTools	5	2	[0, 0, 0]	n/a	catFR1	1	R1412M
275.763	1.0	465481	WORD_OFF	n/a	n/a	TONGS	KitchenTools	5	2	[0, 0, 0]	n/a	catFR1	1	R1412M
276.763	1.6	466487	WORD	n/a	wordpools/wordpool_categorized_EN.txt	KNIFE	KitchenTools	6	2	[0, 0, 0]	n/a	catFR1	1	R1412M
278.363	0.967	468085	WORD_OFF	n/a	n/a	KNIFE	KitchenTools	6	2	[0, 0, 0]	n/a	catFR1	1	R1412M
279.33	1.6	469050	WORD	n/a	wordpools/wordpool_categorized_EN.txt	DRIZZLE	Weather	7	2	[0, 0, 0]	n/a	catFR1	1	R1412M
280.947	0.916	470662	WORD_OFF	n/a	n/a	DRIZZLE	Weather	7	2	[0, 0, 0]	n/a	catFR1	1	R1412M
281.863	1.6	471585	WORD	n/a	wordpools/wordpool_categorized_EN.txt	HUMIDITY	Weather	8	2	[0, 0, 0]	n/a	catFR1	1	R1412M
283.48	0.833	473197	WORD_OFF	n/a	n/a	HUMIDITY	Weather	8	2	[0, 0, 0]	n/a	catFR1	1	R1412M
284.313	1.6	474037	WORD	n/a	wordpools/wordpool_categorized_EN.txt	LADLE	KitchenTools	9	2	[0, 0, 0]	n/a	catFR1	1	R1412M
285.93	1.0	475649	WORD_OFF	n/a	n/a	LADLE	KitchenTools	9	2	[0, 0, 0]	n/a	catFR1	1	R1412M
286.93	1.6	476655	WORD	n/a	wordpools/wordpool_categorized_EN.txt	SPATULA	KitchenTools	10	2	[0, 0, 0]	n/a	catFR1	1	R1412M
288.547	0.899	478267	WORD_OFF	n/a	n/a	SPATULA	KitchenTools	10	2	[0, 0, 0]	n/a	catFR1	1	R1412M
289.446	1.6	479163	WORD	n/a	wordpools/wordpool_categorized_EN.txt	HILLS	Landscapes	11	2	[0, 0, 0]	n/a	catFR1	1	R1412M
291.046	0.917	480761	WORD_OFF	n/a	n/a	HILLS	Landscapes	11	2	[0, 0, 0]	n/a	catFR1	1	R1412M
291.963	1.6	481684	WORD	n/a	wordpools/wordpool_categorized_EN.txt	FOREST	Landscapes	12	2	[0, 0, 0]	n/a	catFR1	1	R1412M
293.563	0.002	483282	WORD_OFF	n/a	n/a	FOREST	Landscapes	12	2	[0, 0, 0]	n/a	catFR1	1	R1412M
293.565	0.0	483282	ENCODING_END	n/a	n/a	n/a	n/a	-999	2	[0, 0, 0]	n/a	catFR1	1	R1412M
293.565	0.0	483282	DISTRACT_START	n/a	n/a	n/a	n/a	-999	2	[0, 0, 0]	n/a	catFR1	1	R1412M
293.563	0.002	483282	PROB	4.466	n/a	n/a	n/a	-999	2	[5, 5, 7]	17.0	catFR1	1	R1412M
293.565	4.482	483284	START	n/a	n/a	n/a	n/a	-999	2	[-999, -999, -999]	n/a	catFR1	1	R1412M
298.047	5.6	487766	PROB	5.583	n/a	n/a	n/a	-999	2	[7, 8, 7]	22.0	catFR1	1	R1412M
303.647	5.633	493366	PROB	5.616	n/a	n/a	n/a	-999	2	[2, 1, 7]	10.0	catFR1	1	R1412M
309.28	4.183	498998	PROB	4.166	n/a	n/a	n/a	-999	2	[4, 4, 6]	14.0	catFR1	1	R1412M
313.463	3.467	503181	PROB	3.45	n/a	n/a	n/a	-999	2	[2, 1, 4]	7.0	catFR1	1	R1412M
316.93	0.0	506648	STOP	n/a	n/a	n/a	n/a	-999	2	[-999, -999, -999]	n/a	catFR1	1	R1412M
316.93	2.25	506649	DISTRACT_END	n/a	n/a	n/a	n/a	-999	2	[0, 0, 0]	n/a	catFR1	1	R1412M
319.18	0.295	508903	REC_START	n/a	n/a	n/a	n/a	-999	2	[0, 0, 0]	n/a	catFR1	1	R1412M
319.475	1.034	509193	REC_WORD	0.295	n/a	ISLAND	Landscapes	4	2	[0, 0, 0]	n/a	catFR1	1	R1412M
320.509	0.997	510227	REC_WORD_VV	1.329	n/a	<>	n/a	-999	2	[0, 0, 0]	n/a	catFR1	1	R1412M
321.506	0.575	511224	REC_WORD_VV	2.326	n/a	<>	n/a	-999	2	[0, 0, 0]	n/a	catFR1	1	R1412M
322.081	2.155	511799	REC_WORD	2.901	n/a	DRIZZLE	Weather	7	2	[0, 0, 0]	n/a	catFR1	1	R1412M
324.236	0.576	513954	REC_WORD_VV	5.056	n/a	<>	n/a	-999	2	[0, 0, 0]	n/a	catFR1	1	R1412M
324.812	3.415	514530	REC_WORD	5.632	n/a	RIVER	Landscapes	3	2	[0, 0, 0]	n/a	catFR1	1	R1412M
328.227	21.169	517944	REC_WORD	9.047	n/a	HILLS	Landscapes	11	2	[0, 0, 0]	n/a	catFR1	1	R1412M
349.396	4.568	539110	REC_END	n/a	n/a	n/a	n/a	-999	2	[0, 0, 0]	n/a	catFR1	1	R1412M
353.964	10.0	543684	COUNTDOWN_START	n/a	n/a	n/a	n/a	-999	3	[0, 0, 0]	n/a	catFR1	1	R1412M
364.314	0.0	554031	COUNTDOWN_END	n/a	n/a	n/a	n/a	-999	3	[0, 0, 0]	n/a	catFR1	1	R1412M
364.314	1.849	554031	ENCODING_START	n/a	n/a	n/a	n/a	-999	3	[0, 0, 0]	n/a	catFR1	1	R1412M
366.163	1.6	555877	WORD	n/a	wordpools/wordpool_categorized_EN.txt	COTTON	Fabric	1	3	[0, 0, 0]	n/a	catFR1	1	R1412M
367.763	0.834	557475	WORD_OFF	n/a	n/a	COTTON	Fabric	1	3	[0, 0, 0]	n/a	catFR1	1	R1412M
368.597	1.6	558316	WORD	n/a	wordpools/wordpool_categorized_EN.txt	NYLON	Fabric	2	3	[0, 0, 0]	n/a	catFR1	1	R1412M
370.197	0.917	559914	WORD_OFF	n/a	n/a	NYLON	Fabric	2	3	[0, 0, 0]	n/a	catFR1	1	R1412M
371.114	1.6	560823	WORD	n/a	wordpools/wordpool_categorized_EN.txt	OCEAN	Landscapes	3	3	[0, 0, 0]	n/a	catFR1	1	R1412M
372.73	0.784	562449	WORD_OFF	n/a	n/a	OCEAN	Landscapes	3	3	[0, 0, 0]	n/a	catFR1	1	R1412M
373.514	1.6	563235	WORD	n/a	wordpools/wordpool_categorized_EN.txt	VALLEY	Landscapes	4	3	[0, 0, 0]	n/a	catFR1	1	R1412M
375.114	0.833	564833	WORD_OFF	n/a	n/a	VALLEY	Landscapes	4	3	[0, 0, 0]	n/a	catFR1	1	R1412M
375.947	1.6	565659	WORD	n/a	wordpools/wordpool_categorized_EN.txt	TIGER	Zoo	5	3	[0, 0, 0]	n/a	catFR1	1	R1412M
377.563	0.917	567285	WORD_OFF	n/a	n/a	TIGER	Zoo	5	3	[0, 0, 0]	n/a	catFR1	1	R1412M
378.48	1.6	568195	WORD	n/a	wordpools/wordpool_categorized_EN.txt	ORANGUTAN	Zoo	6	3	[0, 0, 0]	n/a	catFR1	1	R1412M
380.097	0.833	569807	WORD_OFF	n/a	n/a	ORANGUTAN	Zoo	6	3	[0, 0, 0]	n/a	catFR1	1	R1412M
380.93	1.6	570647	WORD	n/a	wordpools/wordpool_categorized_EN.txt	MOUNTAIN	Landscapes	7	3	[0, 0, 0]	n/a	catFR1	1	R1412M
382.547	0.883	572259	WORD_OFF	n/a	n/a	MOUNTAIN	Landscapes	7	3	[0, 0, 0]	n/a	catFR1	1	R1412M
383.43	1.6	573141	WORD	n/a	wordpools/wordpool_categorized_EN.txt	WOODS	Landscapes	8	3	[0, 0, 0]	n/a	catFR1	1	R1412M
385.03	0.833	574739	WORD_OFF	n/a	n/a	WOODS	Landscapes	8	3	[0, 0, 0]	n/a	catFR1	1	R1412M
385.863	1.6	575579	WORD	n/a	wordpools/wordpool_categorized_EN.txt	GORILLA	Zoo	9	3	[0, 0, 0]	n/a	catFR1	1	R1412M
387.463	1.0	577178	WORD_OFF	n/a	n/a	GORILLA	Zoo	9	3	[0, 0, 0]	n/a	catFR1	1	R1412M
388.463	1.6	578183	WORD	n/a	wordpools/wordpool_categorized_EN.txt	CHEETAH	Zoo	10	3	[0, 0, 0]	n/a	catFR1	1	R1412M
390.08	0.967	579795	WORD_OFF	n/a	n/a	CHEETAH	Zoo	10	3	[0, 0, 0]	n/a	catFR1	1	R1412M
391.047	1.6	580760	WORD	n/a	wordpools/wordpool_categorized_EN.txt	FLEECE	Fabric	11	3	[0, 0, 0]	n/a	catFR1	1	R1412M
392.647	0.968	582358	WORD_OFF	n/a	n/a	FLEECE	Fabric	11	3	[0, 0, 0]	n/a	catFR1	1	R1412M
393.615	1.6	583336	WORD	n/a	wordpools/wordpool_categorized_EN.txt	WOOL	Fabric	12	3	[0, 0, 0]	n/a	catFR1	1	R1412M
395.213	0.001	584921	WORD_OFF	n/a	n/a	WOOL	Fabric	12	3	[0, 0, 0]	n/a	catFR1	1	R1412M
395.214	0.001	584928	PROB	6.149	n/a	n/a	n/a	-999	3	[3, 8, 8]	19.0	catFR1	1	R1412M
395.215	0.0	584929	START	n/a	n/a	n/a	n/a	-999	3	[-999, -999, -999]	n/a	catFR1	1	R1412M
395.215	0.0	584935	ENCODING_END	n/a	n/a	n/a	n/a	-999	3	[0, 0, 0]	n/a	catFR1	1	R1412M
395.215	6.165	584935	DISTRACT_START	n/a	n/a	n/a	n/a	-999	3	[0, 0, 0]	n/a	catFR1	1	R1412M
401.38	3.967	591094	PROB	3.95	n/a	n/a	n/a	-999	3	[5, 5, 3]	13.0	catFR1	1	R1412M
405.347	8.851	595061	PROB	8.833	n/a	n/a	n/a	-999	3	[4, 7, 5]	17.0	catFR1	1	R1412M
414.198	7.898	603911	PROB	7.882	n/a	n/a	n/a	-999	3	[5, 8, 5]	18.0	catFR1	1	R1412M
422.096	0.0	611809	STOP	n/a	n/a	n/a	n/a	-999	3	[-999, -999, -999]	n/a	catFR1	1	R1412M
422.096	2.034	611815	DISTRACT_END	n/a	n/a	n/a	n/a	-999	3	[0, 0, 0]	n/a	catFR1	1	R1412M
424.13	0.915	613848	REC_START	n/a	n/a	n/a	n/a	-999	3	[0, 0, 0]	n/a	catFR1	1	R1412M
425.045	2.653	614758	REC_WORD	0.915	n/a	MOUNTAIN	Landscapes	7	3	[0, 0, 0]	n/a	catFR1	1	R1412M
427.698	1.036	617411	REC_WORD_VV	3.568	n/a	<>	n/a	-999	3	[0, 0, 0]	n/a	catFR1	1	R1412M
428.734	0.909	618447	REC_WORD	4.604	n/a	ORANGUTAN	Zoo	6	3	[0, 0, 0]	n/a	catFR1	1	R1412M
429.643	2.986	619356	REC_WORD	5.513	n/a	TIGER	Zoo	5	3	[0, 0, 0]	n/a	catFR1	1	R1412M
432.629	2.83	622341	REC_WORD_VV	8.499	n/a	<>	n/a	-999	3	[0, 0, 0]	n/a	catFR1	1	R1412M
435.459	7.639	625171	REC_WORD	11.329	n/a	FLEECE	Fabric	11	3	[0, 0, 0]	n/a	catFR1	1	R1412M
443.098	11.263	632810	REC_WORD	18.968	n/a	CHEETAH	Zoo	10	3	[0, 0, 0]	n/a	catFR1	1	R1412M
454.361	22.602	644069	REC_END	n/a	n/a	n/a	n/a	-999	3	[0, 0, 0]	n/a	catFR1	1	R1412M
476.963	10.0	666678	COUNTDOWN_START	n/a	n/a	n/a	n/a	-999	4	[0, 0, 0]	n/a	catFR1	1	R1412M
487.314	0.0	677025	COUNTDOWN_END	n/a	n/a	n/a	n/a	-999	4	[0, 0, 0]	n/a	catFR1	1	R1412M
487.314	2.033	677025	ENCODING_START	n/a	n/a	n/a	n/a	-999	4	[0, 0, 0]	n/a	catFR1	1	R1412M
489.347	1.6	679064	WORD	n/a	wordpools/wordpool_categorized_EN.txt	TURKEY	FarmAnimals	1	4	[0, 0, 0]	n/a	catFR1	1	R1412M
490.948	0.916	680662	WORD_OFF	n/a	n/a	TURKEY	FarmAnimals	1	4	[0, 0, 0]	n/a	catFR1	1	R1412M
491.864	1.6	681572	WORD	n/a	wordpools/wordpool_categorized_EN.txt	SHEEP	FarmAnimals	2	4	[0, 0, 0]	n/a	catFR1	1	R1412M
493.48	0.85	683184	WORD_OFF	n/a	n/a	SHEEP	FarmAnimals	2	4	[0, 0, 0]	n/a	catFR1	1	R1412M
494.33	1.6	684038	WORD	n/a	wordpools/wordpool_categorized_EN.txt	LION	Zoo	3	4	[0, 0, 0]	n/a	catFR1	1	R1412M
495.93	0.983	685636	WORD_OFF	n/a	n/a	LION	Zoo	3	4	[0, 0, 0]	n/a	catFR1	1	R1412M
496.913	1.6	686628	WORD	n/a	wordpools/wordpool_categorized_EN.txt	BEAR	Zoo	4	4	[0, 0, 0]	n/a	catFR1	1	R1412M
498.529	0.851	688240	WORD_OFF	n/a	n/a	BEAR	Zoo	4	4	[0, 0, 0]	n/a	catFR1	1	R1412M
499.38	1.6	689094	WORD	n/a	wordpools/wordpool_categorized_EN.txt	STRAWBERRY	Fruit	5	4	[0, 0, 0]	n/a	catFR1	1	R1412M
500.996	0.8	690706	WORD_OFF	n/a	n/a	STRAWBERRY	Fruit	5	4	[0, 0, 0]	n/a	catFR1	1	R1412M
501.796	1.6	691506	WORD	n/a	wordpools/wordpool_categorized_EN.txt	LIME	Fruit	6	4	[0, 0, 0]	n/a	catFR1	1	R1412M
503.412	0.918	693118	WORD_OFF	n/a	n/a	LIME	Fruit	6	4	[0, 0, 0]	n/a	catFR1	1	R1412M
504.33	1.6	694041	WORD	n/a	wordpools/wordpool_categorized_EN.txt	MONKEY	Zoo	7	4	[0, 0, 0]	n/a	catFR1	1	R1412M
505.947	0.95	695653	WORD_OFF	n/a	n/a	MONKEY	Zoo	7	4	[0, 0, 0]	n/a	catFR1	1	R1412M
506.897	1.6	696603	WORD	n/a	wordpools/wordpool_categorized_EN.txt	CHIMPANZEE	Zoo	8	4	[0, 0, 0]	n/a	catFR1	1	R1412M
508.497	0.916	698202	WORD_OFF	n/a	n/a	CHIMPANZEE	Zoo	8	4	[0, 0, 0]	n/a	catFR1	1	R1412M
509.413	1.6	699125	WORD	n/a	wordpools/wordpool_categorized_EN.txt	ORANGE	Fruit	9	4	[0, 0, 0]	n/a	catFR1	1	R1412M
511.014	0.866	700723	WORD_OFF	n/a	n/a	ORANGE	Fruit	9	4	[0, 0, 0]	n/a	catFR1	1	R1412M
511.88	1.6	701591	WORD	n/a	wordpools/wordpool_categorized_EN.txt	LEMON	Fruit	10	4	[0, 0, 0]	n/a	catFR1	1	R1412M
513.48	0.867	703189	WORD_OFF	n/a	n/a	LEMON	Fruit	10	4	[0, 0, 0]	n/a	catFR1	1	R1412M
514.347	1.6	704057	WORD	n/a	wordpools/wordpool_categorized_EN.txt	ROOSTER	FarmAnimals	11	4	[0, 0, 0]	n/a	catFR1	1	R1412M
515.947	0.95	705655	WORD_OFF	n/a	n/a	ROOSTER	FarmAnimals	11	4	[0, 0, 0]	n/a	catFR1	1	R1412M
516.897	1.6	706606	WORD	n/a	wordpools/wordpool_categorized_EN.txt	LAMB	FarmAnimals	12	4	[0, 0, 0]	n/a	catFR1	1	R1412M
518.497	0.002	708204	WORD_OFF	n/a	n/a	LAMB	FarmAnimals	12	4	[0, 0, 0]	n/a	catFR1	1	R1412M
518.499	0.0	708204	ENCODING_END	n/a	n/a	n/a	n/a	-999	4	[0, 0, 0]	n/a	catFR1	1	R1412M
518.499	0.0	708204	DISTRACT_START	n/a	n/a	n/a	n/a	-999	4	[0, 0, 0]	n/a	catFR1	1	R1412M
518.497	0.002	708205	PROB	8.615	n/a	n/a	n/a	-999	4	[8, 3, 3]	14.0	catFR1	1	R1412M
518.499	8.632	708207	START	n/a	n/a	n/a	n/a	-999	4	[-999, -999, -999]	n/a	catFR1	1	R1412M
527.131	4.599	716839	PROB	4.583	n/a	n/a	n/a	-999	4	[4, 5, 5]	14.0	catFR1	1	R1412M
531.73	5.968	721438	PROB	5.95	n/a	n/a	n/a	-999	4	[1, 6, 2]	9.0	catFR1	1	R1412M
537.698	5.814	727405	PROB	5.799	n/a	n/a	n/a	-999	4	[4, 3, 3]	10.0	catFR1	1	R1412M
543.512	0.0	733219	STOP	n/a	n/a	n/a	n/a	-999	4	[-999, -999, -999]	n/a	catFR1	1	R1412M
543.512	2.134	733225	DISTRACT_END	n/a	n/a	n/a	n/a	-999	4	[0, 0, 0]	n/a	catFR1	1	R1412M
545.646	1.63	735354	REC_START	n/a	n/a	n/a	n/a	-999	4	[0, 0, 0]	n/a	catFR1	1	R1412M
547.276	1.211	736983	REC_WORD	1.63	n/a	BEAR	Zoo	4	4	[0, 0, 0]	n/a	catFR1	1	R1412M
548.487	1.342	738194	REC_WORD	2.841	n/a	ROOSTER	FarmAnimals	11	4	[0, 0, 0]	n/a	catFR1	1	R1412M
549.829	1.318	739536	REC_WORD_VV	4.183	n/a	<>	n/a	-999	4	[0, 0, 0]	n/a	catFR1	1	R1412M
551.147	2.791	740854	REC_WORD	5.501	n/a	TURKEY	FarmAnimals	1	4	[0, 0, 0]	n/a	catFR1	1	R1412M
553.938	21.924	743645	REC_WORD	8.292	n/a	STRAWBERRY	Fruit	5	4	[0, 0, 0]	n/a	catFR1	1	R1412M
575.862	3.301	765575	REC_END	n/a	n/a	n/a	n/a	-999	4	[0, 0, 0]	n/a	catFR1	1	R1412M
579.163	10.0	768868	COUNTDOWN_START	n/a	n/a	n/a	n/a	-999	5	[0, 0, 0]	n/a	catFR1	1	R1412M
589.514	0.0	779215	COUNTDOWN_END	n/a	n/a	n/a	n/a	-999	5	[0, 0, 0]	n/a	catFR1	1	R1412M
589.514	2.116	779215	ENCODING_START	n/a	n/a	n/a	n/a	-999	5	[0, 0, 0]	n/a	catFR1	1	R1412M
591.63	1.6	781337	WORD	n/a	wordpools/wordpool_categorized_EN.txt	TOASTER	Appliances	1	5	[0, 0, 0]	n/a	catFR1	1	R1412M
593.247	0.866	782949	WORD_OFF	n/a	n/a	TOASTER	Appliances	1	5	[0, 0, 0]	n/a	catFR1	1	R1412M
594.113	1.6	783817	WORD	n/a	wordpools/wordpool_categorized_EN.txt	DISHWASHER	Appliances	2	5	[0, 0, 0]	n/a	catFR1	1	R1412M
595.713	0.866	785415	WORD_OFF	n/a	n/a	DISHWASHER	Appliances	2	5	[0, 0, 0]	n/a	catFR1	1	R1412M
596.579	1.6	786283	WORD	n/a	wordpools/wordpool_categorized_EN.txt	TRAIN	Vehicles	3	5	[0, 0, 0]	n/a	catFR1	1	R1412M
598.18	0.933	787881	WORD_OFF	n/a	n/a	TRAIN	Vehicles	3	5	[0, 0, 0]	n/a	catFR1	1	R1412M
599.113	1.6	788818	WORD	n/a	wordpools/wordpool_categorized_EN.txt	VAN	Vehicles	4	5	[0, 0, 0]	n/a	catFR1	1	R1412M
600.73	0.9	790430	WORD_OFF	n/a	n/a	VAN	Vehicles	4	5	[0, 0, 0]	n/a	catFR1	1	R1412M
601.63	1.6	791339	WORD	n/a	wordpools/wordpool_categorized_EN.txt	OCTOPUS	OceanAnimals	5	5	[0, 0, 0]	n/a	catFR1	1	R1412M
603.23	0.933	792937	WORD_OFF	n/a	n/a	OCTOPUS	OceanAnimals	5	5	[0, 0, 0]	n/a	catFR1	1	R1412M
604.163	1.6	793874	WORD	n/a	wordpools/wordpool_categorized_EN.txt	PLANKTON	OceanAnimals	6	5	[0, 0, 0]	n/a	catFR1	1	R1412M
605.764	0.916	795473	WORD_OFF	n/a	n/a	PLANKTON	OceanAnimals	6	5	[0, 0, 0]	n/a	catFR1	1	R1412M
606.68	1.6	796382	WORD	n/a	wordpools/wordpool_categorized_EN.txt	BLENDER	Appliances	7	5	[0, 0, 0]	n/a	catFR1	1	R1412M
608.28	0.967	797980	WORD_OFF	n/a	n/a	BLENDER	Appliances	7	5	[0, 0, 0]	n/a	catFR1	1	R1412M
609.247	1.6	798958	WORD	n/a	wordpools/wordpool_categorized_EN.txt	MIXER	Appliances	8	5	[0, 0, 0]	n/a	catFR1	1	R1412M
610.847	0.9	800557	WORD_OFF	n/a	n/a	MIXER	Appliances	8	5	[0, 0, 0]	n/a	catFR1	1	R1412M
611.747	1.6	801452	WORD	n/a	wordpools/wordpool_categorized_EN.txt	DOLPHIN	OceanAnimals	9	5	[0, 0, 0]	n/a	catFR1	1	R1412M
613.363	0.984	803064	WORD_OFF	n/a	n/a	DOLPHIN	OceanAnimals	9	5	[0, 0, 0]	n/a	catFR1	1	R1412M
614.347	1.6	804056	WORD	n/a	wordpools/wordpool_categorized_EN.txt	TURTLE	OceanAnimals	10	5	[0, 0, 0]	n/a	catFR1	1	R1412M
615.962	0.834	805668	WORD_OFF	n/a	n/a	TURTLE	OceanAnimals	10	5	[0, 0, 0]	n/a	catFR1	1	R1412M
616.796	1.6	806495	WORD	n/a	wordpools/wordpool_categorized_EN.txt	BOAT	Vehicles	11	5	[0, 0, 0]	n/a	catFR1	1	R1412M
618.397	0.816	808107	WORD_OFF	n/a	n/a	BOAT	Vehicles	11	5	[0, 0, 0]	n/a	catFR1	1	R1412M
619.213	1.6	808920	WORD	n/a	wordpools/wordpool_categorized_EN.txt	BUS	Vehicles	12	5	[0, 0, 0]	n/a	catFR1	1	R1412M
620.83	0.001	810532	WORD_OFF	n/a	n/a	BUS	Vehicles	12	5	[0, 0, 0]	n/a	catFR1	1	R1412M
620.831	0.0	810532	ENCODING_END	n/a	n/a	n/a	n/a	-999	5	[0, 0, 0]	n/a	catFR1	1	R1412M
620.831	0.0	810532	DISTRACT_START	n/a	n/a	n/a	n/a	-999	5	[0, 0, 0]	n/a	catFR1	1	R1412M
620.83	0.001	810533	PROB	4.1	n/a	n/a	n/a	-999	5	[4, 1, 6]	11.0	catFR1	1	R1412M
620.831	4.115	810534	START	n/a	n/a	n/a	n/a	-999	5	[-999, -999, -999]	n/a	catFR1	1	R1412M
624.946	6.984	814649	PROB	6.967	n/a	n/a	n/a	-999	5	[5, 7, 4]	16.0	catFR1	1	R1412M
631.93	4.7	821633	PROB	4.683	n/a	n/a	n/a	-999	5	[2, 8, 6]	16.0	catFR1	1	R1412M
636.63	4.783	826333	PROB	4.766	n/a	n/a	n/a	-999	5	[3, 8, 1]	12.0	catFR1	1	R1412M
641.413	0.0	831115	STOP	n/a	n/a	n/a	n/a	-999	5	[-999, -999, -999]	n/a	catFR1	1	R1412M
641.413	2.066	831116	DISTRACT_END	n/a	n/a	n/a	n/a	-999	5	[0, 0, 0]	n/a	catFR1	1	R1412M
643.479	1.75	833177	REC_START	n/a	n/a	n/a	n/a	-999	5	[0, 0, 0]	n/a	catFR1	1	R1412M
645.229	1.648	834931	REC_WORD	1.75	n/a	OCTOPUS	OceanAnimals	5	5	[0, 0, 0]	n/a	catFR1	1	R1412M
646.877	26.818	836579	REC_WORD	3.398	n/a	PLANKTON	OceanAnimals	6	5	[0, 0, 0]	n/a	catFR1	1	R1412M
673.695	7.568	863397	REC_END	n/a	n/a	n/a	n/a	-999	5	[0, 0, 0]	n/a	catFR1	1	R1412M
681.263	10.0	870961	COUNTDOWN_START	n/a	n/a	n/a	n/a	-999	6	[0, 0, 0]	n/a	catFR1	1	R1412M
691.614	0.0	881308	COUNTDOWN_END	n/a	n/a	n/a	n/a	-999	6	[0, 0, 0]	n/a	catFR1	1	R1412M
691.614	2.2	881322	ENCODING_START	n/a	n/a	n/a	n/a	-999	6	[0, 0, 0]	n/a	catFR1	1	R1412M
693.814	1.6	883513	WORD	n/a	wordpools/wordpool_categorized_EN.txt	OYSTER	OceanAnimals	1	6	[0, 0, 0]	n/a	catFR1	1	R1412M
695.413	0.951	885111	WORD_OFF	n/a	n/a	OYSTER	OceanAnimals	1	6	[0, 0, 0]	n/a	catFR1	1	R1412M
696.364	1.6	886061	WORD	n/a	wordpools/wordpool_categorized_EN.txt	CRAB	OceanAnimals	2	6	[0, 0, 0]	n/a	catFR1	1	R1412M
697.98	0.8	887687	WORD_OFF	n/a	n/a	CRAB	OceanAnimals	2	6	[0, 0, 0]	n/a	catFR1	1	R1412M
698.78	1.6	888486	WORD	n/a	wordpools/wordpool_categorized_EN.txt	NOSE	BodyParts	3	6	[0, 0, 0]	n/a	catFR1	1	R1412M
700.396	0.9	890098	WORD_OFF	n/a	n/a	NOSE	BodyParts	3	6	[0, 0, 0]	n/a	catFR1	1	R1412M
701.296	1.6	890994	WORD	n/a	wordpools/wordpool_categorized_EN.txt	TOE	BodyParts	4	6	[0, 0, 0]	n/a	catFR1	1	R1412M
702.897	0.816	892592	WORD_OFF	n/a	n/a	TOE	BodyParts	4	6	[0, 0, 0]	n/a	catFR1	1	R1412M
703.713	1.6	893419	WORD	n/a	wordpools/wordpool_categorized_EN.txt	BIKE	Vehicles	5	6	[0, 0, 0]	n/a	catFR1	1	R1412M
705.313	0.8	895017	WORD_OFF	n/a	n/a	BIKE	Vehicles	5	6	[0, 0, 0]	n/a	catFR1	1	R1412M
706.113	1.6	895816	WORD	n/a	wordpools/wordpool_categorized_EN.txt	PLANE	Vehicles	6	6	[0, 0, 0]	n/a	catFR1	1	R1412M
707.73	0.967	897428	WORD_OFF	n/a	n/a	PLANE	Vehicles	6	6	[0, 0, 0]	n/a	catFR1	1	R1412M
708.697	1.6	898393	WORD	n/a	wordpools/wordpool_categorized_EN.txt	EYE	BodyParts	7	6	[0, 0, 0]	n/a	catFR1	1	R1412M
710.313	0.817	900018	WORD_OFF	n/a	n/a	EYE	BodyParts	7	6	[0, 0, 0]	n/a	catFR1	1	R1412M
711.13	1.6	900831	WORD	n/a	wordpools/wordpool_categorized_EN.txt	ARM	BodyParts	8	6	[0, 0, 0]	n/a	catFR1	1	R1412M
712.73	0.767	902429	WORD_OFF	n/a	n/a	ARM	BodyParts	8	6	[0, 0, 0]	n/a	catFR1	1	R1412M
713.497	1.6	903201	WORD	n/a	wordpools/wordpool_categorized_EN.txt	SCOOTER	Vehicles	9	6	[0, 0, 0]	n/a	catFR1	1	R1412M
715.113	0.833	904813	WORD_OFF	n/a	n/a	SCOOTER	Vehicles	9	6	[0, 0, 0]	n/a	catFR1	1	R1412M
715.946	1.6	905640	WORD	n/a	wordpools/wordpool_categorized_EN.txt	TRUCK	Vehicles	10	6	[0, 0, 0]	n/a	catFR1	1	R1412M
717.563	1.0	907265	WORD_OFF	n/a	n/a	TRUCK	Vehicles	10	6	[0, 0, 0]	n/a	catFR1	1	R1412M
718.563	1.6	908257	WORD	n/a	wordpools/wordpool_categorized_EN.txt	WHALE	OceanAnimals	11	6	[0, 0, 0]	n/a	catFR1	1	R1412M
720.179	0.951	909883	WORD_OFF	n/a	n/a	WHALE	OceanAnimals	11	6	[0, 0, 0]	n/a	catFR1	1	R1412M
721.13	1.6	910834	WORD	n/a	wordpools/wordpool_categorized_EN.txt	SHRIMP	OceanAnimals	12	6	[0, 0, 0]	n/a	catFR1	1	R1412M
722.746	0.002	912444	PROB	4.133	n/a	n/a	n/a	-999	6	[7, 3, 1]	11.0	catFR1	1	R1412M
722.748	0.001	912446	WORD_OFF	n/a	n/a	SHRIMP	OceanAnimals	12	6	[0, 0, 0]	n/a	catFR1	1	R1412M
722.749	0.0	912446	ENCODING_END	n/a	n/a	n/a	n/a	-999	6	[0, 0, 0]	n/a	catFR1	1	R1412M
722.749	0.0	912446	DISTRACT_START	n/a	n/a	n/a	n/a	-999	6	[0, 0, 0]	n/a	catFR1	1	R1412M
722.749	4.148	912447	START	n/a	n/a	n/a	n/a	-999	6	[-999, -999, -999]	n/a	catFR1	1	R1412M
726.897	4.532	916595	PROB	4.516	n/a	n/a	n/a	-999	6	[6, 3, 7]	16.0	catFR1	1	R1412M
731.429	4.885	921127	PROB	4.867	n/a	n/a	n/a	-999	6	[2, 5, 7]	14.0	catFR1	1	R1412M
736.314	4.716	926012	PROB	4.7	n/a	n/a	n/a	-999	6	[5, 1, 1]	7.0	catFR1	1	R1412M
741.03	9.067	930728	PROB	9.05	n/a	n/a	n/a	-999	6	[2, 5, 5]	12.0	catFR1	1	R1412M
750.097	0.0	939794	STOP	n/a	n/a	n/a	n/a	-999	6	[-999, -999, -999]	n/a	catFR1	1	R1412M
750.097	2.2	939795	DISTRACT_END	n/a	n/a	n/a	n/a	-999	6	[0, 0, 0]	n/a	catFR1	1	R1412M
752.297	1.788	941993	REC_START	n/a	n/a	n/a	n/a	-999	6	[0, 0, 0]	n/a	catFR1	1	R1412M
754.085	4.373	943782	REC_WORD	1.788	n/a	TRUCK	Vehicles	10	6	[0, 0, 0]	n/a	catFR1	1	R1412M
758.458	0.834	948155	REC_WORD_VV	6.161	n/a	<>	n/a	-999	6	[0, 0, 0]	n/a	catFR1	1	R1412M
759.292	22.565	948989	REC_WORD	6.995	n/a	PLANE	Vehicles	6	6	[0, 0, 0]	n/a	catFR1	1	R1412M
781.857	0.667	971553	REC_WORD	29.56	n/a	WHALE	OceanAnimals	11	6	[0, 0, 0]	n/a	catFR1	1	R1412M
782.524	5.473	972214	REC_END	n/a	n/a	n/a	n/a	-999	6	[0, 0, 0]	n/a	catFR1	1	R1412M
787.997	10.0	977697	COUNTDOWN_START	n/a	n/a	n/a	n/a	-999	7	[0, 0, 0]	n/a	catFR1	1	R1412M
798.347	0.0	988044	COUNTDOWN_END	n/a	n/a	n/a	n/a	-999	7	[0, 0, 0]	n/a	catFR1	1	R1412M
798.347	2.083	988044	ENCODING_START	n/a	n/a	n/a	n/a	-999	7	[0, 0, 0]	n/a	catFR1	1	R1412M
800.43	1.6	990125	WORD	n/a	wordpools/wordpool_categorized_EN.txt	HALLWAY	Building	1	7	[0, 0, 0]	n/a	catFR1	1	R1412M
802.046	0.833	991737	WORD_OFF	n/a	n/a	HALLWAY	Building	1	7	[0, 0, 0]	n/a	catFR1	1	R1412M
802.879	1.6	992577	WORD	n/a	wordpools/wordpool_categorized_EN.txt	FLOOR	Building	2	7	[0, 0, 0]	n/a	catFR1	1	R1412M
804.496	0.817	994189	WORD_OFF	n/a	n/a	FLOOR	Building	2	7	[0, 0, 0]	n/a	catFR1	1	R1412M
805.313	1.6	995002	WORD	n/a	wordpools/wordpool_categorized_EN.txt	HAND	BodyParts	3	7	[0, 0, 0]	n/a	catFR1	1	R1412M
806.929	0.95	996628	WORD_OFF	n/a	n/a	HAND	BodyParts	3	7	[0, 0, 0]	n/a	catFR1	1	R1412M
807.879	1.6	997579	WORD	n/a	wordpools/wordpool_categorized_EN.txt	KNEE	BodyParts	4	7	[0, 0, 0]	n/a	catFR1	1	R1412M
809.48	0.816	999177	WORD_OFF	n/a	n/a	KNEE	BodyParts	4	7	[0, 0, 0]	n/a	catFR1	1	R1412M
810.296	1.6	999990	WORD	n/a	wordpools/wordpool_categorized_EN.txt	CHEESECAKE	Desserts	5	7	[0, 0, 0]	n/a	catFR1	1	R1412M
811.896	0.9	1001588	WORD_OFF	n/a	n/a	CHEESECAKE	Desserts	5	7	[0, 0, 0]	n/a	catFR1	1	R1412M
812.796	1.6	1002497	WORD	n/a	wordpools/wordpool_categorized_EN.txt	COOKIE	Desserts	6	7	[0, 0, 0]	n/a	catFR1	1	R1412M
814.396	0.933	1004096	WORD_OFF	n/a	n/a	COOKIE	Desserts	6	7	[0, 0, 0]	n/a	catFR1	1	R1412M
815.329	1.6	1005019	WORD	n/a	wordpools/wordpool_categorized_EN.txt	ATTIC	Building	7	7	[0, 0, 0]	n/a	catFR1	1	R1412M
816.946	0.9	1006644	WORD_OFF	n/a	n/a	ATTIC	Building	7	7	[0, 0, 0]	n/a	catFR1	1	R1412M
817.846	1.6	1007540	WORD	n/a	wordpools/wordpool_categorized_EN.txt	BATHROOM	Building	8	7	[0, 0, 0]	n/a	catFR1	1	R1412M
819.462	0.851	1009152	WORD_OFF	n/a	n/a	BATHROOM	Building	8	7	[0, 0, 0]	n/a	catFR1	1	R1412M
820.313	1.6	1010006	WORD	n/a	wordpools/wordpool_categorized_EN.txt	PUDDING	Desserts	9	7	[0, 0, 0]	n/a	catFR1	1	R1412M
821.913	0.95	1011604	WORD_OFF	n/a	n/a	PUDDING	Desserts	9	7	[0, 0, 0]	n/a	catFR1	1	R1412M
822.863	1.6	1012555	WORD	n/a	wordpools/wordpool_categorized_EN.txt	COBBLER	Desserts	10	7	[0, 0, 0]	n/a	catFR1	1	R1412M
824.464	0.783	1014153	WORD_OFF	n/a	n/a	COBBLER	Desserts	10	7	[0, 0, 0]	n/a	catFR1	1	R1412M
825.247	1.6	1014939	WORD	n/a	wordpools/wordpool_categorized_EN.txt	FINGERS	BodyParts	11	7	[0, 0, 0]	n/a	catFR1	1	R1412M
826.847	0.784	1016537	WORD_OFF	n/a	n/a	FINGERS	BodyParts	11	7	[0, 0, 0]	n/a	catFR1	1	R1412M
827.631	1.6	1017322	WORD	n/a	wordpools/wordpool_categorized_EN.txt	EAR	BodyParts	12	7	[0, 0, 0]	n/a	catFR1	1	R1412M
829.247	0.001	1018940	PROB	6.95	n/a	n/a	n/a	-999	7	[8, 5, 3]	16.0	catFR1	1	R1412M
829.248	0.0	1018941	START	n/a	n/a	n/a	n/a	-999	7	[-999, -999, -999]	n/a	catFR1	1	R1412M
829.247	0.001	1018948	WORD_OFF	n/a	n/a	EAR	BodyParts	12	7	[0, 0, 0]	n/a	catFR1	1	R1412M
829.248	0.0	1018948	ENCODING_END	n/a	n/a	n/a	n/a	-999	7	[0, 0, 0]	n/a	catFR1	1	R1412M
829.248	6.966	1018948	DISTRACT_START	n/a	n/a	n/a	n/a	-999	7	[0, 0, 0]	n/a	catFR1	1	R1412M
836.214	3.9	1025907	PROB	3.883	n/a	n/a	n/a	-999	7	[4, 5, 5]	14.0	catFR1	1	R1412M
840.114	5.467	1029807	PROB	5.45	n/a	n/a	n/a	-999	7	[8, 8, 5]	21.0	catFR1	1	R1412M
845.581	4.932	1035274	PROB	4.915	n/a	n/a	n/a	-999	7	[4, 3, 6]	13.0	catFR1	1	R1412M
850.513	0.0	1040205	STOP	n/a	n/a	n/a	n/a	-999	7	[-999, -999, -999]	n/a	catFR1	1	R1412M
850.513	2.284	1040207	DISTRACT_END	n/a	n/a	n/a	n/a	-999	7	[0, 0, 0]	n/a	catFR1	1	R1412M
852.797	1.79	1042488	REC_START	n/a	n/a	n/a	n/a	-999	7	[0, 0, 0]	n/a	catFR1	1	R1412M
854.587	1.576	1044279	REC_WORD	1.79	n/a	EYE	BodyParts	-999	7	[0, 0, 0]	n/a	catFR1	1	R1412M
856.163	6.32	1045855	REC_WORD	3.366	n/a	EAR	BodyParts	12	7	[0, 0, 0]	n/a	catFR1	1	R1412M
862.483	3.796	1052175	REC_WORD	9.686	n/a	TEETH	n/a	-999	7	[0, 0, 0]	n/a	catFR1	1	R1412M
866.279	16.761	1055971	REC_WORD_VV	13.482	n/a	<>	n/a	-999	7	[0, 0, 0]	n/a	catFR1	1	R1412M
883.04	11.141	1072736	REC_END	n/a	n/a	n/a	n/a	-999	7	[0, 0, 0]	n/a	catFR1	1	R1412M
894.181	10.0	1083869	COUNTDOWN_START	n/a	n/a	n/a	n/a	-999	8	[0, 0, 0]	n/a	catFR1	1	R1412M
904.53	0.0	1094216	COUNTDOWN_END	n/a	n/a	n/a	n/a	-999	8	[0, 0, 0]	n/a	catFR1	1	R1412M
904.53	2.1	1094216	ENCODING_START	n/a	n/a	n/a	n/a	-999	8	[0, 0, 0]	n/a	catFR1	1	R1412M
906.63	1.6	1096324	WORD	n/a	wordpools/wordpool_categorized_EN.txt	CEDAR	Trees	1	8	[0, 0, 0]	n/a	catFR1	1	R1412M
908.247	0.917	1097936	WORD_OFF	n/a	n/a	CEDAR	Trees	1	8	[0, 0, 0]	n/a	catFR1	1	R1412M
909.164	1.6	1098859	WORD	n/a	wordpools/wordpool_categorized_EN.txt	CYPRESS	Trees	2	8	[0, 0, 0]	n/a	catFR1	1	R1412M
910.764	0.817	1100457	WORD_OFF	n/a	n/a	CYPRESS	Trees	2	8	[0, 0, 0]	n/a	catFR1	1	R1412M
911.581	1.6	1101270	WORD	n/a	wordpools/wordpool_categorized_EN.txt	STREAM	Landscapes	3	8	[0, 0, 0]	n/a	catFR1	1	R1412M
913.181	0.899	1102868	WORD_OFF	n/a	n/a	STREAM	Landscapes	3	8	[0, 0, 0]	n/a	catFR1	1	R1412M
914.08	1.6	1103764	WORD	n/a	wordpools/wordpool_categorized_EN.txt	LAKE	Landscapes	4	8	[0, 0, 0]	n/a	catFR1	1	R1412M
915.681	0.916	1105376	WORD_OFF	n/a	n/a	LAKE	Landscapes	4	8	[0, 0, 0]	n/a	catFR1	1	R1412M
916.597	1.6	1106285	WORD	n/a	wordpools/wordpool_categorized_EN.txt	COW	FarmAnimals	5	8	[0, 0, 0]	n/a	catFR1	1	R1412M
918.197	0.867	1107883	WORD_OFF	n/a	n/a	COW	FarmAnimals	5	8	[0, 0, 0]	n/a	catFR1	1	R1412M
919.064	1.6	1108751	WORD	n/a	wordpools/wordpool_categorized_EN.txt	HORSE	FarmAnimals	6	8	[0, 0, 0]	n/a	catFR1	1	R1412M
920.663	0.816	1110350	WORD_OFF	n/a	n/a	HORSE	FarmAnimals	6	8	[0, 0, 0]	n/a	catFR1	1	R1412M
921.479	1.6	1111176	WORD	n/a	wordpools/wordpool_categorized_EN.txt	PINE	Trees	7	8	[0, 0, 0]	n/a	catFR1	1	R1412M
923.096	0.951	1112788	WORD_OFF	n/a	n/a	PINE	Trees	7	8	[0, 0, 0]	n/a	catFR1	1	R1412M
924.047	1.6	1113739	WORD	n/a	wordpools/wordpool_categorized_EN.txt	ELM	Trees	8	8	[0, 0, 0]	n/a	catFR1	1	R1412M
925.663	0.95	1115351	WORD_OFF	n/a	n/a	ELM	Trees	8	8	[0, 0, 0]	n/a	catFR1	1	R1412M
926.613	1.6	1116302	WORD	n/a	wordpools/wordpool_categorized_EN.txt	CREEK	Landscapes	9	8	[0, 0, 0]	n/a	catFR1	1	R1412M
928.23	0.917	1117914	WORD_OFF	n/a	n/a	CREEK	Landscapes	9	8	[0, 0, 0]	n/a	catFR1	1	R1412M
929.147	1.6	1118837	WORD	n/a	wordpools/wordpool_categorized_EN.txt	BEACH	Landscapes	10	8	[0, 0, 0]	n/a	catFR1	1	R1412M
930.747	0.85	1120435	WORD_OFF	n/a	n/a	BEACH	Landscapes	10	8	[0, 0, 0]	n/a	catFR1	1	R1412M
931.597	1.6	1121289	WORD	n/a	wordpools/wordpool_categorized_EN.txt	PIG	FarmAnimals	11	8	[0, 0, 0]	n/a	catFR1	1	R1412M
933.197	0.766	1122887	WORD_OFF	n/a	n/a	PIG	FarmAnimals	11	8	[0, 0, 0]	n/a	catFR1	1	R1412M
933.963	1.6	1123659	WORD	n/a	wordpools/wordpool_categorized_EN.txt	CHICKEN	FarmAnimals	12	8	[0, 0, 0]	n/a	catFR1	1	R1412M
935.564	0.001	1125252	PROB	5.533	n/a	n/a	n/a	-999	8	[6, 3, 2]	11.0	catFR1	1	R1412M
935.565	0.0	1125253	START	n/a	n/a	n/a	n/a	-999	8	[-999, -999, -999]	n/a	catFR1	1	R1412M
935.564	0.001	1125257	WORD_OFF	n/a	n/a	CHICKEN	FarmAnimals	12	8	[0, 0, 0]	n/a	catFR1	1	R1412M
935.565	0.0	1125257	ENCODING_END	n/a	n/a	n/a	n/a	-999	8	[0, 0, 0]	n/a	catFR1	1	R1412M
935.565	5.549	1125257	DISTRACT_START	n/a	n/a	n/a	n/a	-999	8	[0, 0, 0]	n/a	catFR1	1	R1412M
941.114	3.983	1130802	PROB	3.966	n/a	n/a	n/a	-999	8	[2, 4, 3]	9.0	catFR1	1	R1412M
945.097	5.167	1134785	PROB	5.15	n/a	n/a	n/a	-999	8	[6, 7, 1]	14.0	catFR1	1	R1412M
950.264	3.549	1139952	PROB	3.533	n/a	n/a	n/a	-999	8	[2, 1, 5]	8.0	catFR1	1	R1412M
953.813	5.267	1143500	PROB	5.25	n/a	n/a	n/a	-999	8	[5, 8, 4]	17.0	catFR1	1	R1412M
959.08	0.0	1148762	DISTRACT_END	n/a	n/a	n/a	n/a	-999	8	[0, 0, 0]	n/a	catFR1	1	R1412M
959.08	2.166	1148767	STOP	n/a	n/a	n/a	n/a	-999	8	[-999, -999, -999]	n/a	catFR1	1	R1412M
961.246	0.129	1150933	REC_START	n/a	n/a	n/a	n/a	-999	8	[0, 0, 0]	n/a	catFR1	1	R1412M
961.375	1.724	1151062	REC_WORD	0.129	n/a	STREAM	Landscapes	3	8	[0, 0, 0]	n/a	catFR1	1	R1412M
963.099	1.004	1152786	REC_WORD	1.853	n/a	LAKE	Landscapes	4	8	[0, 0, 0]	n/a	catFR1	1	R1412M
964.103	1.854	1153790	REC_WORD	2.857	n/a	RIVER	Landscapes	-999	8	[0, 0, 0]	n/a	catFR1	1	R1412M
965.957	1.268	1155644	REC_WORD	4.711	n/a	BEACH	Landscapes	10	8	[0, 0, 0]	n/a	catFR1	1	R1412M
967.225	1.069	1156912	REC_WORD	5.979	n/a	PIG	FarmAnimals	11	8	[0, 0, 0]	n/a	catFR1	1	R1412M
968.294	23.166	1157981	REC_WORD	7.048	n/a	COW	FarmAnimals	5	8	[0, 0, 0]	n/a	catFR1	1	R1412M
991.46	5.271	1181140	REC_END	n/a	n/a	n/a	n/a	-999	8	[0, 0, 0]	n/a	catFR1	1	R1412M
996.731	10.0	1186417	COUNTDOWN_START	n/a	n/a	n/a	n/a	-999	9	[0, 0, 0]	n/a	catFR1	1	R1412M
1007.081	0.0	1196764	COUNTDOWN_END	n/a	n/a	n/a	n/a	-999	9	[0, 0, 0]	n/a	catFR1	1	R1412M
1007.081	2.099	1196764	ENCODING_START	n/a	n/a	n/a	n/a	-999	9	[0, 0, 0]	n/a	catFR1	1	R1412M
1009.18	1.6	1198872	WORD	n/a	wordpools/wordpool_categorized_EN.txt	DRYER	Appliances	1	9	[0, 0, 0]	n/a	catFR1	1	R1412M
1010.78	0.85	1200470	WORD_OFF	n/a	n/a	DRYER	Appliances	1	9	[0, 0, 0]	n/a	catFR1	1	R1412M
1011.63	1.6	1201310	WORD	n/a	wordpools/wordpool_categorized_EN.txt	IRON	Appliances	2	9	[0, 0, 0]	n/a	catFR1	1	R1412M
1013.247	0.817	1202936	WORD_OFF	n/a	n/a	IRON	Appliances	2	9	[0, 0, 0]	n/a	catFR1	1	R1412M
1014.064	1.6	1203749	WORD	n/a	wordpools/wordpool_categorized_EN.txt	VELVET	Fabric	3	9	[0, 0, 0]	n/a	catFR1	1	R1412M
1015.664	0.949	1205347	WORD_OFF	n/a	n/a	VELVET	Fabric	3	9	[0, 0, 0]	n/a	catFR1	1	R1412M
1016.613	1.6	1206298	WORD	n/a	wordpools/wordpool_categorized_EN.txt	SATIN	Fabric	4	9	[0, 0, 0]	n/a	catFR1	1	R1412M
1018.213	1.0	1207896	WORD_OFF	n/a	n/a	SATIN	Fabric	4	9	[0, 0, 0]	n/a	catFR1	1	R1412M
1019.213	1.6	1208902	WORD	n/a	wordpools/wordpool_categorized_EN.txt	BANANA	Fruit	5	9	[0, 0, 0]	n/a	catFR1	1	R1412M
1020.813	0.834	1210500	WORD_OFF	n/a	n/a	BANANA	Fruit	5	9	[0, 0, 0]	n/a	catFR1	1	R1412M
1021.647	1.6	1211327	WORD	n/a	wordpools/wordpool_categorized_EN.txt	BLUEBERRY	Fruit	6	9	[0, 0, 0]	n/a	catFR1	1	R1412M
1023.262	0.818	1212953	WORD_OFF	n/a	n/a	BLUEBERRY	Fruit	6	9	[0, 0, 0]	n/a	catFR1	1	R1412M
1024.08	1.6	1213766	WORD	n/a	wordpools/wordpool_categorized_EN.txt	VACUUM	Appliances	7	9	[0, 0, 0]	n/a	catFR1	1	R1412M
1025.697	0.85	1215378	WORD_OFF	n/a	n/a	VACUUM	Appliances	7	9	[0, 0, 0]	n/a	catFR1	1	R1412M
1026.547	1.6	1216232	WORD	n/a	wordpools/wordpool_categorized_EN.txt	FREEZER	Appliances	8	9	[0, 0, 0]	n/a	catFR1	1	R1412M
1028.163	0.967	1217844	WORD_OFF	n/a	n/a	FREEZER	Appliances	8	9	[0, 0, 0]	n/a	catFR1	1	R1412M
1029.13	1.6	1218808	WORD	n/a	wordpools/wordpool_categorized_EN.txt	SPANDEX	Fabric	9	9	[0, 0, 0]	n/a	catFR1	1	R1412M
1030.73	0.967	1220420	WORD_OFF	n/a	n/a	SPANDEX	Fabric	9	9	[0, 0, 0]	n/a	catFR1	1	R1412M
1031.697	1.6	1221385	WORD	n/a	wordpools/wordpool_categorized_EN.txt	SILK	Fabric	10	9	[0, 0, 0]	n/a	catFR1	1	R1412M
1033.314	0.883	1222997	WORD_OFF	n/a	n/a	SILK	Fabric	10	9	[0, 0, 0]	n/a	catFR1	1	R1412M
1034.197	1.6	1223878	WORD	n/a	wordpools/wordpool_categorized_EN.txt	APPLE	Fruit	11	9	[0, 0, 0]	n/a	catFR1	1	R1412M
1035.814	0.933	1225504	WORD_OFF	n/a	n/a	APPLE	Fruit	11	9	[0, 0, 0]	n/a	catFR1	1	R1412M
1036.747	1.6	1226427	WORD	n/a	wordpools/wordpool_categorized_EN.txt	PEAR	Fruit	12	9	[0, 0, 0]	n/a	catFR1	1	R1412M
1038.347	0.0	1228026	WORD_OFF	n/a	n/a	PEAR	Fruit	12	9	[0, 0, 0]	n/a	catFR1	1	R1412M
1038.347	0.002	1228030	PROB	5.183	n/a	n/a	n/a	-999	9	[4, 6, 7]	17.0	catFR1	1	R1412M
1038.349	0.0	1228032	START	n/a	n/a	n/a	n/a	-999	9	[-999, -999, -999]	n/a	catFR1	1	R1412M
1038.348	0.001	1228039	ENCODING_END	n/a	n/a	n/a	n/a	-999	9	[0, 0, 0]	n/a	catFR1	1	R1412M
1038.349	5.198	1228039	DISTRACT_START	n/a	n/a	n/a	n/a	-999	9	[0, 0, 0]	n/a	catFR1	1	R1412M
1043.547	6.083	1233230	PROB	6.066	n/a	n/a	n/a	-999	9	[3, 8, 1]	12.0	catFR1	1	R1412M
1049.63	4.95	1239313	PROB	4.933	n/a	n/a	n/a	-999	9	[5, 3, 6]	14.0	catFR1	1	R1412M
1054.58	4.183	1244263	PROB	4.166	n/a	n/a	n/a	-999	9	[6, 5, 1]	12.0	catFR1	1	R1412M
1058.763	0.0	1248444	DISTRACT_END	n/a	n/a	n/a	n/a	-999	9	[0, 0, 0]	n/a	catFR1	1	R1412M
1058.763	2.117	1248445	STOP	n/a	n/a	n/a	n/a	-999	9	[-999, -999, -999]	n/a	catFR1	1	R1412M
1060.88	0.503	1250560	REC_START	n/a	n/a	n/a	n/a	-999	9	[0, 0, 0]	n/a	catFR1	1	R1412M
1061.383	0.75	1251065	REC_WORD	0.503	n/a	APPLE	Fruit	11	9	[0, 0, 0]	n/a	catFR1	1	R1412M
1062.133	0.666	1251815	REC_WORD	1.253	n/a	PEAR	Fruit	12	9	[0, 0, 0]	n/a	catFR1	1	R1412M
1062.799	1.837	1252481	REC_WORD	1.919	n/a	BANANA	Fruit	5	9	[0, 0, 0]	n/a	catFR1	1	R1412M
1064.636	2.738	1254318	REC_WORD	3.756	n/a	BLUEBERRY	Fruit	6	9	[0, 0, 0]	n/a	catFR1	1	R1412M
1067.374	11.461	1257056	REC_WORD_VV	6.494	n/a	<>	n/a	-999	9	[0, 0, 0]	n/a	catFR1	1	R1412M
1078.835	12.25	1268517	REC_WORD	17.955	n/a	DRYER	Appliances	1	9	[0, 0, 0]	n/a	catFR1	1	R1412M
1091.085	4.095	1280767	REC_END	n/a	n/a	n/a	n/a	-999	9	[0, 0, 0]	n/a	catFR1	1	R1412M
1095.18	10.0	1284859	COUNTDOWN_START	n/a	n/a	n/a	n/a	-999	10	[0, 0, 0]	n/a	catFR1	1	R1412M
1105.53	0.0	1295206	COUNTDOWN_END	n/a	n/a	n/a	n/a	-999	10	[0, 0, 0]	n/a	catFR1	1	R1412M
1105.53	2.0	1295206	ENCODING_START	n/a	n/a	n/a	n/a	-999	10	[0, 0, 0]	n/a	catFR1	1	R1412M
1107.53	1.6	1297217	WORD	n/a	wordpools/wordpool_categorized_EN.txt	CORKSCREW	KitchenTools	1	10	[0, 0, 0]	n/a	catFR1	1	R1412M
1109.13	0.866	1298816	WORD_OFF	n/a	n/a	CORKSCREW	KitchenTools	1	10	[0, 0, 0]	n/a	catFR1	1	R1412M
1109.996	1.6	1299684	WORD	n/a	wordpools/wordpool_categorized_EN.txt	PEELER	KitchenTools	2	10	[0, 0, 0]	n/a	catFR1	1	R1412M
1111.597	0.933	1301282	WORD_OFF	n/a	n/a	PEELER	KitchenTools	2	10	[0, 0, 0]	n/a	catFR1	1	R1412M
1112.53	1.6	1302205	WORD	n/a	wordpools/wordpool_categorized_EN.txt	GOAT	FarmAnimals	3	10	[0, 0, 0]	n/a	catFR1	1	R1412M
1114.147	0.783	1303831	WORD_OFF	n/a	n/a	GOAT	FarmAnimals	3	10	[0, 0, 0]	n/a	catFR1	1	R1412M
1114.93	1.6	1304616	WORD	n/a	wordpools/wordpool_categorized_EN.txt	CALF	FarmAnimals	4	10	[0, 0, 0]	n/a	catFR1	1	R1412M
1116.53	0.9	1306214	WORD_OFF	n/a	n/a	CALF	FarmAnimals	4	10	[0, 0, 0]	n/a	catFR1	1	R1412M
1117.43	1.6	1307110	WORD	n/a	wordpools/wordpool_categorized_EN.txt	SHIRT	Clothing	5	10	[0, 0, 0]	n/a	catFR1	1	R1412M
1119.03	0.984	1308708	WORD_OFF	n/a	n/a	SHIRT	Clothing	5	10	[0, 0, 0]	n/a	catFR1	1	R1412M
1120.014	1.6	1309700	WORD	n/a	wordpools/wordpool_categorized_EN.txt	SKIRT	Clothing	6	10	[0, 0, 0]	n/a	catFR1	1	R1412M
1121.629	0.784	1311312	WORD_OFF	n/a	n/a	SKIRT	Clothing	6	10	[0, 0, 0]	n/a	catFR1	1	R1412M
1122.413	1.6	1312097	WORD	n/a	wordpools/wordpool_categorized_EN.txt	GRATER	KitchenTools	7	10	[0, 0, 0]	n/a	catFR1	1	R1412M
1124.029	0.884	1313709	WORD_OFF	n/a	n/a	GRATER	KitchenTools	7	10	[0, 0, 0]	n/a	catFR1	1	R1412M
1124.913	1.6	1314591	WORD	n/a	wordpools/wordpool_categorized_EN.txt	SPOON	KitchenTools	8	10	[0, 0, 0]	n/a	catFR1	1	R1412M
1126.513	0.95	1316189	WORD_OFF	n/a	n/a	SPOON	KitchenTools	8	10	[0, 0, 0]	n/a	catFR1	1	R1412M
1127.463	1.6	1317140	WORD	n/a	wordpools/wordpool_categorized_EN.txt	BULL	FarmAnimals	9	10	[0, 0, 0]	n/a	catFR1	1	R1412M
1129.063	0.8	1318738	WORD_OFF	n/a	n/a	BULL	FarmAnimals	9	10	[0, 0, 0]	n/a	catFR1	1	R1412M
1129.863	1.6	1319537	WORD	n/a	wordpools/wordpool_categorized_EN.txt	HEN	FarmAnimals	10	10	[0, 0, 0]	n/a	catFR1	1	R1412M
1131.463	0.867	1321149	WORD_OFF	n/a	n/a	HEN	FarmAnimals	10	10	[0, 0, 0]	n/a	catFR1	1	R1412M
1132.33	1.6	1322004	WORD	n/a	wordpools/wordpool_categorized_EN.txt	SHORTS	Clothing	11	10	[0, 0, 0]	n/a	catFR1	1	R1412M
1133.93	0.782	1323616	WORD_OFF	n/a	n/a	SHORTS	Clothing	11	10	[0, 0, 0]	n/a	catFR1	1	R1412M
1134.712	1.6	1324387	WORD	n/a	wordpools/wordpool_categorized_EN.txt	DRESS	Clothing	12	10	[0, 0, 0]	n/a	catFR1	1	R1412M
1136.314	0.001	1325993	PROB	10.232	n/a	n/a	n/a	-999	10	[7, 4, 4]	15.0	catFR1	1	R1412M
1136.315	0.0	1325994	START	n/a	n/a	n/a	n/a	-999	10	[-999, -999, -999]	n/a	catFR1	1	R1412M
1136.313	0.002	1325999	WORD_OFF	n/a	n/a	DRESS	Clothing	12	10	[0, 0, 0]	n/a	catFR1	1	R1412M
1136.315	0.0	1325999	ENCODING_END	n/a	n/a	n/a	n/a	-999	10	[0, 0, 0]	n/a	catFR1	1	R1412M
1136.315	10.248	1325999	DISTRACT_START	n/a	n/a	n/a	n/a	-999	10	[0, 0, 0]	n/a	catFR1	1	R1412M
1146.563	3.9	1336241	PROB	3.883	n/a	n/a	n/a	-999	10	[1, 8, 1]	10.0	catFR1	1	R1412M
1150.463	10.034	1340141	PROB	10.017	n/a	n/a	n/a	-999	10	[4, 2, 3]	9.0	catFR1	1	R1412M
1160.497	0.0	1350175	STOP	n/a	n/a	n/a	n/a	-999	10	[-999, -999, -999]	n/a	catFR1	1	R1412M
1160.497	2.133	1350179	DISTRACT_END	n/a	n/a	n/a	n/a	-999	10	[0, 0, 0]	n/a	catFR1	1	R1412M
1162.63	2.536	1352309	REC_START	n/a	n/a	n/a	n/a	-999	10	[0, 0, 0]	n/a	catFR1	1	R1412M
1165.166	1.523	1354843	REC_WORD	2.536	n/a	HEN	FarmAnimals	10	10	[0, 0, 0]	n/a	catFR1	1	R1412M
1166.689	1.467	1356366	REC_WORD	4.059	n/a	BULL	FarmAnimals	9	10	[0, 0, 0]	n/a	catFR1	1	R1412M
1168.156	1.263	1357833	REC_WORD	5.526	n/a	COW	FarmAnimals	-999	10	[0, 0, 0]	n/a	catFR1	1	R1412M
1169.419	3.645	1359096	REC_WORD	6.789	n/a	PIG	FarmAnimals	-999	10	[0, 0, 0]	n/a	catFR1	1	R1412M
1173.064	7.025	1362741	REC_WORD	10.434	n/a	GOAT	FarmAnimals	3	10	[0, 0, 0]	n/a	catFR1	1	R1412M
1180.089	7.928	1369766	REC_WORD	17.459	n/a	CALF	FarmAnimals	4	10	[0, 0, 0]	n/a	catFR1	1	R1412M
1188.017	1.034	1377693	REC_WORD	25.387	n/a	SHIRT	Clothing	5	10	[0, 0, 0]	n/a	catFR1	1	R1412M
1189.051	3.786	1378727	REC_WORD	26.421	n/a	SHORTS	Clothing	11	10	[0, 0, 0]	n/a	catFR1	1	R1412M
1192.837	2.86	1382516	REC_END	n/a	n/a	n/a	n/a	-999	10	[0, 0, 0]	n/a	catFR1	1	R1412M
1195.697	10.0	1385381	COUNTDOWN_START	n/a	n/a	n/a	n/a	-999	11	[0, 0, 0]	n/a	catFR1	1	R1412M
1206.048	0.0	1395728	COUNTDOWN_END	n/a	n/a	n/a	n/a	-999	11	[0, 0, 0]	n/a	catFR1	1	R1412M
1206.048	2.082	1395728	ENCODING_START	n/a	n/a	n/a	n/a	-999	11	[0, 0, 0]	n/a	catFR1	1	R1412M
1208.13	1.6	1397809	WORD	n/a	wordpools/wordpool_categorized_EN.txt	SCREWDRIVER	Tools	1	11	[0, 0, 0]	n/a	catFR1	1	R1412M
1209.73	0.934	1399407	WORD_OFF	n/a	n/a	SCREWDRIVER	Tools	1	11	[0, 0, 0]	n/a	catFR1	1	R1412M
1210.664	1.6	1400344	WORD	n/a	wordpools/wordpool_categorized_EN.txt	AXE	Tools	2	11	[0, 0, 0]	n/a	catFR1	1	R1412M
1212.263	0.834	1401942	WORD_OFF	n/a	n/a	AXE	Tools	2	11	[0, 0, 0]	n/a	catFR1	1	R1412M
1213.097	1.6	1402769	WORD	n/a	wordpools/wordpool_categorized_EN.txt	LETTUCE	Vegetables	3	11	[0, 0, 0]	n/a	catFR1	1	R1412M
1214.696	0.833	1404367	WORD_OFF	n/a	n/a	LETTUCE	Vegetables	3	11	[0, 0, 0]	n/a	catFR1	1	R1412M
1215.529	1.6	1405208	WORD	n/a	wordpools/wordpool_categorized_EN.txt	POTATO	Vegetables	4	11	[0, 0, 0]	n/a	catFR1	1	R1412M
1217.13	0.816	1406806	WORD_OFF	n/a	n/a	POTATO	Vegetables	4	11	[0, 0, 0]	n/a	catFR1	1	R1412M
1217.946	1.6	1407619	WORD	n/a	wordpools/wordpool_categorized_EN.txt	CIDER	Beverages	5	11	[0, 0, 0]	n/a	catFR1	1	R1412M
1219.546	1.0	1409217	WORD_OFF	n/a	n/a	CIDER	Beverages	5	11	[0, 0, 0]	n/a	catFR1	1	R1412M
1220.546	1.6	1410223	WORD	n/a	wordpools/wordpool_categorized_EN.txt	WATER	Beverages	6	11	[0, 0, 0]	n/a	catFR1	1	R1412M
1222.146	0.767	1411821	WORD_OFF	n/a	n/a	WATER	Beverages	6	11	[0, 0, 0]	n/a	catFR1	1	R1412M
1222.913	1.6	1412592	WORD	n/a	wordpools/wordpool_categorized_EN.txt	ONION	Vegetables	7	11	[0, 0, 0]	n/a	catFR1	1	R1412M
1224.513	0.95	1414191	WORD_OFF	n/a	n/a	ONION	Vegetables	7	11	[0, 0, 0]	n/a	catFR1	1	R1412M
1225.463	1.6	1415141	WORD	n/a	wordpools/wordpool_categorized_EN.txt	BROCCOLI	Vegetables	8	11	[0, 0, 0]	n/a	catFR1	1	R1412M
1227.079	0.801	1416753	WORD_OFF	n/a	n/a	BROCCOLI	Vegetables	8	11	[0, 0, 0]	n/a	catFR1	1	R1412M
1227.88	1.6	1417552	WORD	n/a	wordpools/wordpool_categorized_EN.txt	RATCHET	Tools	9	11	[0, 0, 0]	n/a	catFR1	1	R1412M
1229.479	0.934	1419151	WORD_OFF	n/a	n/a	RATCHET	Tools	9	11	[0, 0, 0]	n/a	catFR1	1	R1412M
1230.413	1.6	1420088	WORD	n/a	wordpools/wordpool_categorized_EN.txt	LEVEL	Tools	10	11	[0, 0, 0]	n/a	catFR1	1	R1412M
1232.013	0.933	1421686	WORD_OFF	n/a	n/a	LEVEL	Tools	10	11	[0, 0, 0]	n/a	catFR1	1	R1412M
1232.946	1.6	1422623	WORD	n/a	wordpools/wordpool_categorized_EN.txt	TEA	Beverages	11	11	[0, 0, 0]	n/a	catFR1	1	R1412M
1234.546	0.783	1424221	WORD_OFF	n/a	n/a	TEA	Beverages	11	11	[0, 0, 0]	n/a	catFR1	1	R1412M
1235.329	1.6	1425006	WORD	n/a	wordpools/wordpool_categorized_EN.txt	SODA	Beverages	12	11	[0, 0, 0]	n/a	catFR1	1	R1412M
1236.929	0.002	1426604	WORD_OFF	n/a	n/a	SODA	Beverages	12	11	[0, 0, 0]	n/a	catFR1	1	R1412M
1236.931	0.0	1426604	ENCODING_END	n/a	n/a	n/a	n/a	-999	11	[0, 0, 0]	n/a	catFR1	1	R1412M
1236.931	0.0	1426604	DISTRACT_START	n/a	n/a	n/a	n/a	-999	11	[0, 0, 0]	n/a	catFR1	1	R1412M
1236.93	0.001	1426604	PROB	3.9	n/a	n/a	n/a	-999	11	[3, 7, 2]	12.0	catFR1	1	R1412M
1236.931	3.916	1426605	START	n/a	n/a	n/a	n/a	-999	11	[-999, -999, -999]	n/a	catFR1	1	R1412M
1240.847	6.201	1430521	PROB	6.184	n/a	n/a	n/a	-999	11	[4, 7, 4]	15.0	catFR1	1	R1412M
1247.048	4.199	1436721	PROB	4.181	n/a	n/a	n/a	-999	11	[2, 4, 5]	11.0	catFR1	1	R1412M
1251.247	3.85	1440920	PROB	3.833	n/a	n/a	n/a	-999	11	[5, 5, 4]	14.0	catFR1	1	R1412M
1255.097	6.2	1444770	PROB	6.183	n/a	n/a	n/a	-999	11	[7, 8, 7]	23.0	catFR1	1	R1412M
1261.297	0.0	1450970	STOP	n/a	n/a	n/a	n/a	-999	11	[-999, -999, -999]	n/a	catFR1	1	R1412M
1261.297	2.233	1450977	DISTRACT_END	n/a	n/a	n/a	n/a	-999	11	[0, 0, 0]	n/a	catFR1	1	R1412M
1263.53	0.933	1453204	REC_START	n/a	n/a	n/a	n/a	-999	11	[0, 0, 0]	n/a	catFR1	1	R1412M
1264.463	1.217	1454136	REC_WORD	0.933	n/a	SCREWDRIVER	Tools	1	11	[0, 0, 0]	n/a	catFR1	1	R1412M
1265.68	2.64	1455353	REC_WORD	2.15	n/a	AXE	Tools	2	11	[0, 0, 0]	n/a	catFR1	1	R1412M
1268.32	14.501	1457992	REC_WORD	4.79	n/a	HATCHET	n/a	-999	11	[0, 0, 0]	n/a	catFR1	1	R1412M
1282.821	10.932	1472493	REC_WORD	19.291	n/a	SODA	Beverages	12	11	[0, 0, 0]	n/a	catFR1	1	R1412M
1293.753	7.977	1483424	REC_END	n/a	n/a	n/a	n/a	-999	11	[0, 0, 0]	n/a	catFR1	1	R1412M
1301.73	10.0	1491401	COUNTDOWN_START	n/a	n/a	n/a	n/a	-999	12	[0, 0, 0]	n/a	catFR1	1	R1412M
1312.08	0.0	1501748	COUNTDOWN_END	n/a	n/a	n/a	n/a	-999	12	[0, 0, 0]	n/a	catFR1	1	R1412M
1312.08	1.983	1501748	ENCODING_START	n/a	n/a	n/a	n/a	-999	12	[0, 0, 0]	n/a	catFR1	1	R1412M
1314.063	1.6	1503732	WORD	n/a	wordpools/wordpool_categorized_EN.txt	CROWBAR	Tools	1	12	[0, 0, 0]	n/a	catFR1	1	R1412M
1315.663	0.95	1505331	WORD_OFF	n/a	n/a	CROWBAR	Tools	1	12	[0, 0, 0]	n/a	catFR1	1	R1412M
1316.613	1.6	1506281	WORD	n/a	wordpools/wordpool_categorized_EN.txt	PLIERS	Tools	2	12	[0, 0, 0]	n/a	catFR1	1	R1412M
1318.213	0.8	1507879	WORD_OFF	n/a	n/a	PLIERS	Tools	2	12	[0, 0, 0]	n/a	catFR1	1	R1412M
1319.013	1.6	1508679	WORD	n/a	wordpools/wordpool_categorized_EN.txt	WINE	Beverages	3	12	[0, 0, 0]	n/a	catFR1	1	R1412M
1320.629	0.967	1510304	WORD_OFF	n/a	n/a	WINE	Beverages	3	12	[0, 0, 0]	n/a	catFR1	1	R1412M
1321.596	1.6	1511269	WORD	n/a	wordpools/wordpool_categorized_EN.txt	MILK	Beverages	4	12	[0, 0, 0]	n/a	catFR1	1	R1412M
1323.196	0.833	1512881	WORD_OFF	n/a	n/a	MILK	Beverages	4	12	[0, 0, 0]	n/a	catFR1	1	R1412M
1324.029	1.6	1513694	WORD	n/a	wordpools/wordpool_categorized_EN.txt	CORN	Vegetables	5	12	[0, 0, 0]	n/a	catFR1	1	R1412M
1325.629	0.968	1515306	WORD_OFF	n/a	n/a	CORN	Vegetables	5	12	[0, 0, 0]	n/a	catFR1	1	R1412M
1326.597	1.6	1516270	WORD	n/a	wordpools/wordpool_categorized_EN.txt	CUCUMBER	Vegetables	6	12	[0, 0, 0]	n/a	catFR1	1	R1412M
1328.197	0.984	1517868	WORD_OFF	n/a	n/a	CUCUMBER	Vegetables	6	12	[0, 0, 0]	n/a	catFR1	1	R1412M
1329.181	1.6	1518847	WORD	n/a	wordpools/wordpool_categorized_EN.txt	COFFEE	Beverages	7	12	[0, 0, 0]	n/a	catFR1	1	R1412M
1330.781	0.8	1520445	WORD_OFF	n/a	n/a	COFFEE	Beverages	7	12	[0, 0, 0]	n/a	catFR1	1	R1412M
1331.581	1.6	1521258	WORD	n/a	wordpools/wordpool_categorized_EN.txt	JUICE	Beverages	8	12	[0, 0, 0]	n/a	catFR1	1	R1412M
1333.198	0.832	1522870	WORD_OFF	n/a	n/a	JUICE	Beverages	8	12	[0, 0, 0]	n/a	catFR1	1	R1412M
1334.03	1.6	1523696	WORD	n/a	wordpools/wordpool_categorized_EN.txt	PEAS	Vegetables	9	12	[0, 0, 0]	n/a	catFR1	1	R1412M
1335.63	1.0	1525295	WORD_OFF	n/a	n/a	PEAS	Vegetables	9	12	[0, 0, 0]	n/a	catFR1	1	R1412M
1336.63	1.6	1526300	WORD	n/a	wordpools/wordpool_categorized_EN.txt	CELERY	Vegetables	10	12	[0, 0, 0]	n/a	catFR1	1	R1412M
1338.23	0.816	1527899	WORD_OFF	n/a	n/a	CELERY	Vegetables	10	12	[0, 0, 0]	n/a	catFR1	1	R1412M
1339.046	1.6	1528711	WORD	n/a	wordpools/wordpool_categorized_EN.txt	WRENCH	Tools	11	12	[0, 0, 0]	n/a	catFR1	1	R1412M
1340.647	0.817	1530323	WORD_OFF	n/a	n/a	WRENCH	Tools	11	12	[0, 0, 0]	n/a	catFR1	1	R1412M
1341.464	1.6	1531136	WORD	n/a	wordpools/wordpool_categorized_EN.txt	SAW	Tools	12	12	[0, 0, 0]	n/a	catFR1	1	R1412M
1343.064	0.001	1532733	PROB	4.799	n/a	n/a	n/a	-999	12	[7, 2, 1]	10.0	catFR1	1	R1412M
1343.065	0.0	1532734	START	n/a	n/a	n/a	n/a	-999	12	[-999, -999, -999]	n/a	catFR1	1	R1412M
1343.064	0.001	1532735	WORD_OFF	n/a	n/a	SAW	Tools	12	12	[0, 0, 0]	n/a	catFR1	1	R1412M
1343.065	0.0	1532735	ENCODING_END	n/a	n/a	n/a	n/a	-999	12	[0, 0, 0]	n/a	catFR1	1	R1412M
1343.065	4.816	1532735	DISTRACT_START	n/a	n/a	n/a	n/a	-999	12	[0, 0, 0]	n/a	catFR1	1	R1412M
1347.881	4.649	1537550	PROB	4.633	n/a	n/a	n/a	-999	12	[4, 4, 7]	15.0	catFR1	1	R1412M
1352.53	5.084	1542198	PROB	5.067	n/a	n/a	n/a	-999	12	[4, 4, 7]	15.0	catFR1	1	R1412M
1357.614	6.316	1547282	PROB	6.3	n/a	n/a	n/a	-999	12	[4, 5, 3]	12.0	catFR1	1	R1412M
1363.93	0.0	1553594	DISTRACT_END	n/a	n/a	n/a	n/a	-999	12	[0, 0, 0]	n/a	catFR1	1	R1412M
1363.93	2.15	1553598	STOP	n/a	n/a	n/a	n/a	-999	12	[-999, -999, -999]	n/a	catFR1	1	R1412M
1366.08	1.473	1555751	REC_START	n/a	n/a	n/a	n/a	-999	12	[0, 0, 0]	n/a	catFR1	1	R1412M
1367.553	0.763	1557221	REC_WORD	1.473	n/a	CUCUMBER	Vegetables	6	12	[0, 0, 0]	n/a	catFR1	1	R1412M
1368.316	0.674	1557984	REC_WORD	2.236	n/a	LETTUCE	Vegetables	-999	12	[0, 0, 0]	n/a	catFR1	1	R1412M
1368.99	0.844	1558658	REC_WORD	2.91	n/a	CELERY	Vegetables	10	12	[0, 0, 0]	n/a	catFR1	1	R1412M
1369.834	1.231	1559502	REC_WORD	3.754	n/a	WINE	Beverages	3	12	[0, 0, 0]	n/a	catFR1	1	R1412M
1371.065	1.784	1560733	REC_WORD	4.985	n/a	PEAS	Vegetables	9	12	[0, 0, 0]	n/a	catFR1	1	R1412M
1372.849	3.513	1562516	REC_WORD	6.769	n/a	CROWBAR	Tools	1	12	[0, 0, 0]	n/a	catFR1	1	R1412M
1376.362	0.0	1566029	REC_WORD_VV	10.282	n/a	<>	n/a	-999	12	[0, 0, 0]	n/a	catFR1	1	R1412M
