onset	duration	sample	trial_type	response_time	stim_file	item_name	category	serialpos	list	test	answer	experiment	session	subject
0.0	4.383	4647	INSTRUCT_START	n/a	n/a	n/a	n/a	-999	-999	[0, 0, 0]	n/a	catFR1	1	R1390M
4.383	33.765	9019	INSTRUCT_END	n/a	n/a	n/a	n/a	-999	-999	[0, 0, 0]	n/a	catFR1	1	R1390M
38.148	2.618	42784	COUNTDOWN_START	n/a	n/a	n/a	n/a	-999	-999	[0, 0, 0]	n/a	catFR1	1	R1390M
40.766	0.001	45411	COUNTDOWN_END	n/a	n/a	n/a	n/a	-999	-999	[0, 0, 0]	n/a	catFR1	1	R1390M
40.767	2.199	45411	ENCODING_START	n/a	n/a	n/a	n/a	-999	-1	[0, 0, 0]	n/a	catFR1	1	R1390M
42.966	1.616	47616	WORD	n/a	n/a	HOUR	Times	1	-1	[0, 0, 0]	n/a	catFR1	1	R1390M
44.582	0.8	49214	WORD_OFF	n/a	n/a	HOUR	Times	1	-1	[0, 0, 0]	n/a	catFR1	1	R1390M
45.382	1.6	50022	WORD	n/a	n/a	MINUTE	Times	2	-1	[0, 0, 0]	n/a	catFR1	1	R1390M
46.982	0.799	51620	WORD_OFF	n/a	n/a	MINUTE	Times	2	-1	[0, 0, 0]	n/a	catFR1	1	R1390M
47.781	1.601	52429	WORD	n/a	n/a	PLUMBER	Professions	3	-1	[0, 0, 0]	n/a	catFR1	1	R1390M
49.382	0.967	54027	WORD_OFF	n/a	n/a	PLUMBER	Professions	3	-1	[0, 0, 0]	n/a	catFR1	1	R1390M
50.349	1.616	54982	WORD	n/a	n/a	FIREMAN	Professions	4	-1	[0, 0, 0]	n/a	catFR1	1	R1390M
51.965	0.883	56599	WORD_OFF	n/a	n/a	FIREMAN	Professions	4	-1	[0, 0, 0]	n/a	catFR1	1	R1390M
52.848	1.601	57480	WORD	n/a	n/a	SILK	Materials	5	-1	[0, 0, 0]	n/a	catFR1	1	R1390M
54.449	0.816	59097	WORD_OFF	n/a	n/a	SILK	Materials	5	-1	[0, 0, 0]	n/a	catFR1	1	R1390M
55.265	1.601	59905	WORD	n/a	n/a	DENIM	Materials	6	-1	[0, 0, 0]	n/a	catFR1	1	R1390M
56.866	0.8	61503	WORD_OFF	n/a	n/a	DENIM	Materials	6	-1	[0, 0, 0]	n/a	catFR1	1	R1390M
57.666	1.6	62312	WORD	n/a	n/a	SECOND	Times	7	-1	[0, 0, 0]	n/a	catFR1	1	R1390M
59.266	1.0	63910	WORD_OFF	n/a	n/a	SECOND	Times	7	-1	[0, 0, 0]	n/a	catFR1	1	R1390M
60.266	1.6	64902	WORD	n/a	n/a	DAY	Times	8	-1	[0, 0, 0]	n/a	catFR1	1	R1390M
61.866	0.949	66500	WORD_OFF	n/a	n/a	DAY	Times	8	-1	[0, 0, 0]	n/a	catFR1	1	R1390M
62.815	1.617	67455	WORD	n/a	n/a	TEACHER	Professions	9	-1	[0, 0, 0]	n/a	catFR1	1	R1390M
64.432	0.867	69072	WORD_OFF	n/a	n/a	TEACHER	Professions	9	-1	[0, 0, 0]	n/a	catFR1	1	R1390M
65.299	1.617	69935	WORD	n/a	n/a	FARMER	Professions	10	-1	[0, 0, 0]	n/a	catFR1	1	R1390M
66.916	0.866	71552	WORD_OFF	n/a	n/a	FARMER	Professions	10	-1	[0, 0, 0]	n/a	catFR1	1	R1390M
67.782	1.6	72415	WORD	n/a	n/a	WOOL	Materials	11	-1	[0, 0, 0]	n/a	catFR1	1	R1390M
69.382	0.917	74014	WORD_OFF	n/a	n/a	WOOL	Materials	11	-1	[0, 0, 0]	n/a	catFR1	1	R1390M
70.299	1.617	74932	WORD	n/a	n/a	LEATHER	Materials	12	-1	[0, 0, 0]	n/a	catFR1	1	R1390M
71.916	0.001	76549	WORD_OFF	n/a	n/a	LEATHER	Materials	12	-1	[0, 0, 0]	n/a	catFR1	1	R1390M
71.917	0.0	76549	ENCODING_END	n/a	n/a	n/a	n/a	-999	-1	[0, 0, 0]	n/a	catFR1	1	R1390M
71.917	0.002	76554	PROB	0.002	n/a	n/a	n/a	-999	-1	[5, 8, 5]	18	catFR1	1	R1390M
71.919	0.0	76556	START	n/a	n/a	n/a	n/a	-999	-1	[-999, -999, -999]	n/a	catFR1	1	R1390M
71.919	5.081	76567	DISTRACT_START	n/a	n/a	n/a	n/a	-999	-1	[0, 0, 0]	n/a	catFR1	1	R1390M
77.0	4.983	81636	PROB	4.983	n/a	n/a	n/a	-999	-1	[3, 3, 6]	12	catFR1	1	R1390M
81.983	5.516	86619	PROB	5.516	n/a	n/a	n/a	-999	-1	[2, 1, 4]	7	catFR1	1	R1390M
87.499	4.483	92135	PROB	4.483	n/a	n/a	n/a	-999	-1	[8, 3, 4]	15	catFR1	1	R1390M
91.982	0.0	96618	STOP	n/a	n/a	n/a	n/a	-999	-1	[-999, -999, -999]	n/a	catFR1	1	R1390M
91.982	1.318	96628	DISTRACT_END	n/a	n/a	n/a	n/a	-999	-1	[0, 0, 0]	n/a	catFR1	1	R1390M
93.3	1.876	97932	REC_START	n/a	n/a	n/a	n/a	-999	-1	[0, 0, 0]	n/a	catFR1	1	R1390M
95.176	0.734	99811	REC_WORD	0.734	n/a	HOUR	Times	1	-1	[0, 0, 0]	n/a	catFR1	1	R1390M
95.91	0.573	100545	REC_WORD	0.573	n/a	MINUTE	Times	2	-1	[0, 0, 0]	n/a	catFR1	1	R1390M
96.483	1.473	101118	REC_WORD	1.473	n/a	SECOND	Times	7	-1	[0, 0, 0]	n/a	catFR1	1	R1390M
97.956	1.902	102591	REC_WORD	1.902	n/a	DAY	Times	8	-1	[0, 0, 0]	n/a	catFR1	1	R1390M
99.858	2.675	104493	REC_WORD	2.675	n/a	FARMER	Professions	10	-1	[0, 0, 0]	n/a	catFR1	1	R1390M
102.533	1.006	107168	REC_WORD_VV	1.006	n/a	<>	n/a	-999	-1	[0, 0, 0]	n/a	catFR1	1	R1390M
103.539	1.43	108174	REC_WORD	1.43	n/a	SILK	Materials	5	-1	[0, 0, 0]	n/a	catFR1	1	R1390M
104.969	1.211	109604	REC_WORD	1.211	n/a	DENIM	Materials	6	-1	[0, 0, 0]	n/a	catFR1	1	R1390M
106.18	17.394	110815	REC_WORD	17.394	n/a	WOOL	Materials	11	-1	[0, 0, 0]	n/a	catFR1	1	R1390M
123.574	17.258	128206	REC_END	n/a	n/a	n/a	n/a	-999	-1	[0, 0, 0]	n/a	catFR1	1	R1390M
140.832	2.785	145474	COUNTDOWN_START	n/a	n/a	n/a	n/a	-999	1	[0, 0, 0]	n/a	catFR1	1	R1390M
143.617	0.0	148248	COUNTDOWN_END	n/a	n/a	n/a	n/a	-999	1	[0, 0, 0]	n/a	catFR1	1	R1390M
143.617	1.865	148248	ENCODING_START	n/a	n/a	n/a	n/a	-999	1	[0, 0, 0]	n/a	catFR1	1	R1390M
145.482	1.617	150122	WORD	n/a	wordpools/wordpool_categorized_EN.txt	WASHER	Appliances	1	1	[0, 0, 0]	n/a	catFR1	1	R1390M
147.099	0.917	151739	WORD_OFF	n/a	n/a	WASHER	Appliances	1	1	[0, 0, 0]	n/a	catFR1	1	R1390M
148.016	1.6	152657	WORD	n/a	wordpools/wordpool_categorized_EN.txt	OVEN	Appliances	2	1	[0, 0, 0]	n/a	catFR1	1	R1390M
149.616	0.933	154255	WORD_OFF	n/a	n/a	OVEN	Appliances	2	1	[0, 0, 0]	n/a	catFR1	1	R1390M
150.549	1.6	155192	WORD	n/a	wordpools/wordpool_categorized_EN.txt	PLANKTON	Oceananimals	3	1	[0, 0, 0]	n/a	catFR1	1	R1390M
152.149	0.783	156790	WORD_OFF	n/a	n/a	PLANKTON	Oceananimals	3	1	[0, 0, 0]	n/a	catFR1	1	R1390M
152.932	1.617	157562	WORD	n/a	wordpools/wordpool_categorized_EN.txt	OYSTER	Oceananimals	4	1	[0, 0, 0]	n/a	catFR1	1	R1390M
154.549	0.983	159179	WORD_OFF	n/a	n/a	OYSTER	Oceananimals	4	1	[0, 0, 0]	n/a	catFR1	1	R1390M
155.532	1.616	160171	WORD	n/a	wordpools/wordpool_categorized_EN.txt	COW	Farmanimals	5	1	[0, 0, 0]	n/a	catFR1	1	R1390M
157.148	0.984	161787	WORD_OFF	n/a	n/a	COW	Farmanimals	5	1	[0, 0, 0]	n/a	catFR1	1	R1390M
158.132	1.617	162761	WORD	n/a	wordpools/wordpool_categorized_EN.txt	CALF	Farmanimals	6	1	[0, 0, 0]	n/a	catFR1	1	R1390M
159.749	0.817	164377	WORD_OFF	n/a	n/a	CALF	Farmanimals	6	1	[0, 0, 0]	n/a	catFR1	1	R1390M
160.566	1.616	165204	WORD	n/a	wordpools/wordpool_categorized_EN.txt	OCTOPUS	Oceananimals	7	1	[0, 0, 0]	n/a	catFR1	1	R1390M
162.182	0.917	166821	WORD_OFF	n/a	n/a	OCTOPUS	Oceananimals	7	1	[0, 0, 0]	n/a	catFR1	1	R1390M
163.099	1.6	167739	WORD	n/a	wordpools/wordpool_categorized_EN.txt	FISH	Oceananimals	8	1	[0, 0, 0]	n/a	catFR1	1	R1390M
164.699	0.8	169337	WORD_OFF	n/a	n/a	FISH	Oceananimals	8	1	[0, 0, 0]	n/a	catFR1	1	R1390M
165.499	1.617	170127	WORD	n/a	wordpools/wordpool_categorized_EN.txt	BULL	Farmanimals	9	1	[0, 0, 0]	n/a	catFR1	1	R1390M
167.116	0.999	171744	WORD_OFF	n/a	n/a	BULL	Farmanimals	9	1	[0, 0, 0]	n/a	catFR1	1	R1390M
168.115	1.601	172754	WORD	n/a	wordpools/wordpool_categorized_EN.txt	CHICKEN	Farmanimals	10	1	[0, 0, 0]	n/a	catFR1	1	R1390M
169.716	0.799	174353	WORD_OFF	n/a	n/a	CHICKEN	Farmanimals	10	1	[0, 0, 0]	n/a	catFR1	1	R1390M
170.515	1.6	175142	WORD	n/a	wordpools/wordpool_categorized_EN.txt	MIXER	Appliances	11	1	[0, 0, 0]	n/a	catFR1	1	R1390M
172.115	0.967	176741	WORD_OFF	n/a	n/a	MIXER	Appliances	11	1	[0, 0, 0]	n/a	catFR1	1	R1390M
173.082	1.617	177714	WORD	n/a	wordpools/wordpool_categorized_EN.txt	REFRIGERATOR	Appliances	12	1	[0, 0, 0]	n/a	catFR1	1	R1390M
174.699	0.0	179330	PROB	0.0	n/a	n/a	n/a	-999	1	[5, 8, 4]	17	catFR1	1	R1390M
174.699	0.001	179331	WORD_OFF	n/a	n/a	REFRIGERATOR	Appliances	12	1	[0, 0, 0]	n/a	catFR1	1	R1390M
174.7	0.0	179331	ENCODING_END	n/a	n/a	n/a	n/a	-999	1	[0, 0, 0]	n/a	catFR1	1	R1390M
174.7	0.0	179331	DISTRACT_START	n/a	n/a	n/a	n/a	-999	1	[0, 0, 0]	n/a	catFR1	1	R1390M
174.7	5.933	179331	START	n/a	n/a	n/a	n/a	-999	1	[-999, -999, -999]	n/a	catFR1	1	R1390M
180.633	4.732	185264	PROB	4.732	n/a	n/a	n/a	-999	1	[8, 8, 4]	20	catFR1	1	R1390M
185.365	4.4	189996	PROB	4.4	n/a	n/a	n/a	-999	1	[4, 7, 3]	14	catFR1	1	R1390M
189.765	6.2	194396	PROB	6.2	n/a	n/a	n/a	-999	1	[7, 5, 8]	20	catFR1	1	R1390M
195.965	0.0	200595	STOP	n/a	n/a	n/a	n/a	-999	1	[-999, -999, -999]	n/a	catFR1	1	R1390M
195.965	1.383	200604	DISTRACT_END	n/a	n/a	n/a	n/a	-999	1	[0, 0, 0]	n/a	catFR1	1	R1390M
197.348	1.638	201982	REC_START	n/a	n/a	n/a	n/a	-999	1	[0, 0, 0]	n/a	catFR1	1	R1390M
198.986	0.675	203616	REC_WORD	0.675	n/a	PLANKTON	Oceananimals	3	1	[0, 0, 0]	n/a	catFR1	1	R1390M
199.661	0.529	204291	REC_WORD	0.529	n/a	FISH	Oceananimals	8	1	[0, 0, 0]	n/a	catFR1	1	R1390M
200.19	0.888	204820	REC_WORD	0.888	n/a	OCTOPUS	Oceananimals	7	1	[0, 0, 0]	n/a	catFR1	1	R1390M
201.078	1.397	205708	REC_WORD	1.397	n/a	COW	Farmanimals	5	1	[0, 0, 0]	n/a	catFR1	1	R1390M
202.475	0.683	207105	REC_WORD	0.683	n/a	BULL	Farmanimals	9	1	[0, 0, 0]	n/a	catFR1	1	R1390M
203.158	1.482	207788	REC_WORD	1.482	n/a	CALF	Farmanimals	6	1	[0, 0, 0]	n/a	catFR1	1	R1390M
204.64	2.606	209270	REC_WORD_VV	2.606	n/a	<>	n/a	-999	1	[0, 0, 0]	n/a	catFR1	1	R1390M
207.246	13.559	211876	REC_WORD	13.559	n/a	PLANKTON	Oceananimals	3	1	[0, 0, 0]	n/a	catFR1	1	R1390M
220.805	6.791	225434	REC_WORD	6.791	n/a	CHICKEN	Farmanimals	10	1	[0, 0, 0]	n/a	catFR1	1	R1390M
227.596	9.969	232219	REC_END	n/a	n/a	n/a	n/a	-999	1	[0, 0, 0]	n/a	catFR1	1	R1390M
237.565	2.601	242194	COUNTDOWN_START	n/a	n/a	n/a	n/a	-999	2	[0, 0, 0]	n/a	catFR1	1	R1390M
240.166	0.0	244803	COUNTDOWN_END	n/a	n/a	n/a	n/a	-999	2	[0, 0, 0]	n/a	catFR1	1	R1390M
240.166	2.232	244803	ENCODING_START	n/a	n/a	n/a	n/a	-999	2	[0, 0, 0]	n/a	catFR1	1	R1390M
242.398	1.601	247026	WORD	n/a	wordpools/wordpool_categorized_EN.txt	SHORTS	Clothing	1	2	[0, 0, 0]	n/a	catFR1	1	R1390M
243.999	0.949	248624	WORD_OFF	n/a	n/a	SHORTS	Clothing	1	2	[0, 0, 0]	n/a	catFR1	1	R1390M
244.948	1.601	249579	WORD	n/a	wordpools/wordpool_categorized_EN.txt	JACKET	Clothing	2	2	[0, 0, 0]	n/a	catFR1	1	R1390M
246.549	0.85	251177	WORD_OFF	n/a	n/a	JACKET	Clothing	2	2	[0, 0, 0]	n/a	catFR1	1	R1390M
247.399	1.6	252022	WORD	n/a	wordpools/wordpool_categorized_EN.txt	FOOT	Bodyparts	3	2	[0, 0, 0]	n/a	catFR1	1	R1390M
248.999	0.95	253621	WORD_OFF	n/a	n/a	FOOT	Bodyparts	3	2	[0, 0, 0]	n/a	catFR1	1	R1390M
249.949	1.616	254576	WORD	n/a	wordpools/wordpool_categorized_EN.txt	HEAD	Bodyparts	4	2	[0, 0, 0]	n/a	catFR1	1	R1390M
251.565	0.784	256192	WORD_OFF	n/a	n/a	HEAD	Bodyparts	4	2	[0, 0, 0]	n/a	catFR1	1	R1390M
252.349	1.617	256982	WORD	n/a	wordpools/wordpool_categorized_EN.txt	RAIN	Weather	5	2	[0, 0, 0]	n/a	catFR1	1	R1390M
253.966	0.783	258599	WORD_OFF	n/a	n/a	RAIN	Weather	5	2	[0, 0, 0]	n/a	catFR1	1	R1390M
254.749	1.6	259370	WORD	n/a	wordpools/wordpool_categorized_EN.txt	LIGHTNING	Weather	6	2	[0, 0, 0]	n/a	catFR1	1	R1390M
256.349	1.0	260987	WORD_OFF	n/a	n/a	LIGHTNING	Weather	6	2	[0, 0, 0]	n/a	catFR1	1	R1390M
257.349	1.6	261979	WORD	n/a	wordpools/wordpool_categorized_EN.txt	KNEE	Bodyparts	7	2	[0, 0, 0]	n/a	catFR1	1	R1390M
258.949	0.783	263577	WORD_OFF	n/a	n/a	KNEE	Bodyparts	7	2	[0, 0, 0]	n/a	catFR1	1	R1390M
259.732	1.6	264367	WORD	n/a	wordpools/wordpool_categorized_EN.txt	ARM	Bodyparts	8	2	[0, 0, 0]	n/a	catFR1	1	R1390M
261.332	0.833	265965	WORD_OFF	n/a	n/a	ARM	Bodyparts	8	2	[0, 0, 0]	n/a	catFR1	1	R1390M
262.165	1.617	266792	WORD	n/a	wordpools/wordpool_categorized_EN.txt	SOCKS	Clothing	9	2	[0, 0, 0]	n/a	catFR1	1	R1390M
263.782	0.833	268409	WORD_OFF	n/a	n/a	SOCKS	Clothing	9	2	[0, 0, 0]	n/a	catFR1	1	R1390M
264.615	1.6	269235	WORD	n/a	wordpools/wordpool_categorized_EN.txt	JEANS	Clothing	10	2	[0, 0, 0]	n/a	catFR1	1	R1390M
266.215	0.917	270852	WORD_OFF	n/a	n/a	JEANS	Clothing	10	2	[0, 0, 0]	n/a	catFR1	1	R1390M
267.132	1.6	271752	WORD	n/a	wordpools/wordpool_categorized_EN.txt	TORNADO	Weather	11	2	[0, 0, 0]	n/a	catFR1	1	R1390M
268.732	0.816	273369	WORD_OFF	n/a	n/a	TORNADO	Weather	11	2	[0, 0, 0]	n/a	catFR1	1	R1390M
269.548	1.617	274177	WORD	n/a	wordpools/wordpool_categorized_EN.txt	HURRICANE	Weather	12	2	[0, 0, 0]	n/a	catFR1	1	R1390M
271.165	0.0	275792	PROB	0.0	n/a	n/a	n/a	-999	2	[7, 1, 6]	14	catFR1	1	R1390M
271.165	0.002	275794	WORD_OFF	n/a	n/a	HURRICANE	Weather	12	2	[0, 0, 0]	n/a	catFR1	1	R1390M
271.167	0.0	275794	ENCODING_END	n/a	n/a	n/a	n/a	-999	2	[0, 0, 0]	n/a	catFR1	1	R1390M
271.167	0.0	275794	DISTRACT_START	n/a	n/a	n/a	n/a	-999	2	[0, 0, 0]	n/a	catFR1	1	R1390M
271.167	5.048	275794	START	n/a	n/a	n/a	n/a	-999	2	[-999, -999, -999]	n/a	catFR1	1	R1390M
276.215	5.2	280841	PROB	5.2	n/a	n/a	n/a	-999	2	[5, 4, 8]	17	catFR1	1	R1390M
281.415	6.469	286041	PROB	6.469	n/a	n/a	n/a	-999	2	[8, 3, 6]	17	catFR1	1	R1390M
287.884	5.664	292510	PROB	5.664	n/a	n/a	n/a	-999	2	[1, 5, 8]	14	catFR1	1	R1390M
293.548	0.0	298169	DISTRACT_END	n/a	n/a	n/a	n/a	-999	2	[0, 0, 0]	n/a	catFR1	1	R1390M
293.548	1.268	298174	STOP	n/a	n/a	n/a	n/a	-999	2	[-999, -999, -999]	n/a	catFR1	1	R1390M
294.816	1.803	299436	REC_START	n/a	n/a	n/a	n/a	-999	2	[0, 0, 0]	n/a	catFR1	1	R1390M
296.619	1.731	301244	REC_WORD_VV	1.731	n/a	<>	n/a	-999	2	[0, 0, 0]	n/a	catFR1	1	R1390M
298.35	0.671	302975	REC_WORD	0.671	n/a	RAIN	Weather	5	2	[0, 0, 0]	n/a	catFR1	1	R1390M
299.021	2.91	303646	REC_WORD	2.91	n/a	HURRICANE	Weather	12	2	[0, 0, 0]	n/a	catFR1	1	R1390M
301.931	23.149	306556	REC_WORD	23.149	n/a	STORM	n/a	-999	2	[0, 0, 0]	n/a	catFR1	1	R1390M
325.08	14.502	329711	REC_END	n/a	n/a	n/a	n/a	-999	2	[0, 0, 0]	n/a	catFR1	1	R1390M
339.582	10.351	344205	COUNTDOWN_START	n/a	n/a	n/a	n/a	-999	3	[0, 0, 0]	n/a	catFR1	1	R1390M
349.933	0.0	354566	COUNTDOWN_END	n/a	n/a	n/a	n/a	-999	3	[0, 0, 0]	n/a	catFR1	1	R1390M
349.933	2.149	354566	ENCODING_START	n/a	n/a	n/a	n/a	-999	3	[0, 0, 0]	n/a	catFR1	1	R1390M
352.082	1.6	356715	WORD	n/a	wordpools/wordpool_categorized_EN.txt	BASKETBALL	Toys	1	3	[0, 0, 0]	n/a	catFR1	1	R1390M
353.682	0.949	358313	WORD_OFF	n/a	n/a	BASKETBALL	Toys	1	3	[0, 0, 0]	n/a	catFR1	1	R1390M
354.631	1.601	359250	WORD	n/a	wordpools/wordpool_categorized_EN.txt	BARBIE	Toys	2	3	[0, 0, 0]	n/a	catFR1	1	R1390M
356.232	0.783	360848	WORD_OFF	n/a	n/a	BARBIE	Toys	2	3	[0, 0, 0]	n/a	catFR1	1	R1390M
357.015	1.617	361638	WORD	n/a	wordpools/wordpool_categorized_EN.txt	BEER	Beverages	3	3	[0, 0, 0]	n/a	catFR1	1	R1390M
358.632	0.866	363255	WORD_OFF	n/a	n/a	BEER	Beverages	3	3	[0, 0, 0]	n/a	catFR1	1	R1390M
359.498	1.617	364118	WORD	n/a	wordpools/wordpool_categorized_EN.txt	RUM	Beverages	4	3	[0, 0, 0]	n/a	catFR1	1	R1390M
361.115	0.883	365735	WORD_OFF	n/a	n/a	RUM	Beverages	4	3	[0, 0, 0]	n/a	catFR1	1	R1390M
361.998	1.6	366617	WORD	n/a	wordpools/wordpool_categorized_EN.txt	FUDGE	Desserts	5	3	[0, 0, 0]	n/a	catFR1	1	R1390M
363.598	0.883	368215	WORD_OFF	n/a	n/a	FUDGE	Desserts	5	3	[0, 0, 0]	n/a	catFR1	1	R1390M
364.481	1.601	369115	WORD	n/a	wordpools/wordpool_categorized_EN.txt	PASTRY	Desserts	6	3	[0, 0, 0]	n/a	catFR1	1	R1390M
366.082	0.949	370713	WORD_OFF	n/a	n/a	PASTRY	Desserts	6	3	[0, 0, 0]	n/a	catFR1	1	R1390M
367.031	1.601	371650	WORD	n/a	wordpools/wordpool_categorized_EN.txt	COFFEE	Beverages	7	3	[0, 0, 0]	n/a	catFR1	1	R1390M
368.632	1.0	373248	WORD_OFF	n/a	n/a	COFFEE	Beverages	7	3	[0, 0, 0]	n/a	catFR1	1	R1390M
369.632	1.617	374259	WORD	n/a	wordpools/wordpool_categorized_EN.txt	TEA	Beverages	8	3	[0, 0, 0]	n/a	catFR1	1	R1390M
371.249	0.767	375875	WORD_OFF	n/a	n/a	TEA	Beverages	8	3	[0, 0, 0]	n/a	catFR1	1	R1390M
372.016	1.616	376647	WORD	n/a	wordpools/wordpool_categorized_EN.txt	JELLO	Desserts	9	3	[0, 0, 0]	n/a	catFR1	1	R1390M
373.632	0.917	378263	WORD_OFF	n/a	n/a	JELLO	Desserts	9	3	[0, 0, 0]	n/a	catFR1	1	R1390M
374.549	1.601	379164	WORD	n/a	wordpools/wordpool_categorized_EN.txt	CAKE	Desserts	10	3	[0, 0, 0]	n/a	catFR1	1	R1390M
376.15	0.866	380780	WORD_OFF	n/a	n/a	CAKE	Desserts	10	3	[0, 0, 0]	n/a	catFR1	1	R1390M
377.016	1.6	381644	WORD	n/a	wordpools/wordpool_categorized_EN.txt	DOLLHOUSE	Toys	11	3	[0, 0, 0]	n/a	catFR1	1	R1390M
378.616	0.816	383242	WORD_OFF	n/a	n/a	DOLLHOUSE	Toys	11	3	[0, 0, 0]	n/a	catFR1	1	R1390M
379.432	1.6	384050	WORD	n/a	wordpools/wordpool_categorized_EN.txt	FOOTBALL	Toys	12	3	[0, 0, 0]	n/a	catFR1	1	R1390M
381.032	0.002	385648	WORD_OFF	n/a	n/a	FOOTBALL	Toys	12	3	[0, 0, 0]	n/a	catFR1	1	R1390M
381.034	0.0	385648	ENCODING_END	n/a	n/a	n/a	n/a	-999	3	[0, 0, 0]	n/a	catFR1	1	R1390M
381.033	0.001	385654	PROB	0.001	n/a	n/a	n/a	-999	3	[3, 3, 4]	10	catFR1	1	R1390M
381.034	0.0	385655	START	n/a	n/a	n/a	n/a	-999	3	[-999, -999, -999]	n/a	catFR1	1	R1390M
381.034	5.132	385667	DISTRACT_START	n/a	n/a	n/a	n/a	-999	3	[0, 0, 0]	n/a	catFR1	1	R1390M
386.166	7.752	390787	PROB	7.752	n/a	n/a	n/a	-999	3	[7, 5, 2]	14	catFR1	1	R1390M
393.918	4.864	398539	PROB	4.864	n/a	n/a	n/a	-999	3	[8, 6, 8]	22	catFR1	1	R1390M
398.782	5.067	403402	PROB	5.067	n/a	n/a	n/a	-999	3	[6, 8, 4]	18	catFR1	1	R1390M
403.849	0.0	408464	DISTRACT_END	n/a	n/a	n/a	n/a	-999	3	[0, 0, 0]	n/a	catFR1	1	R1390M
403.849	1.249	408469	STOP	n/a	n/a	n/a	n/a	-999	3	[-999, -999, -999]	n/a	catFR1	1	R1390M
405.098	2.563	409713	REC_START	n/a	n/a	n/a	n/a	-999	3	[0, 0, 0]	n/a	catFR1	1	R1390M
407.661	0.666	412281	REC_WORD	0.666	n/a	RUM	Beverages	4	3	[0, 0, 0]	n/a	catFR1	1	R1390M
408.327	0.972	412947	REC_WORD	0.972	n/a	BEER	Beverages	3	3	[0, 0, 0]	n/a	catFR1	1	R1390M
409.299	0.68	413919	REC_WORD	0.68	n/a	BARBIE	Toys	2	3	[0, 0, 0]	n/a	catFR1	1	R1390M
409.979	14.824	414599	REC_WORD	14.824	n/a	DOLLHOUSE	Toys	11	3	[0, 0, 0]	n/a	catFR1	1	R1390M
424.803	0.907	429422	REC_WORD_VV	0.907	n/a	<>	n/a	-999	3	[0, 0, 0]	n/a	catFR1	1	R1390M
425.71	4.917	430329	REC_WORD	4.917	n/a	BEER	Beverages	3	3	[0, 0, 0]	n/a	catFR1	1	R1390M
430.627	2.111	435246	REC_WORD	2.111	n/a	CAKE	Desserts	10	3	[0, 0, 0]	n/a	catFR1	1	R1390M
432.738	2.624	437357	REC_WORD	2.624	n/a	PASTRY	Desserts	6	3	[0, 0, 0]	n/a	catFR1	1	R1390M
435.362	14.47	439988	REC_END	n/a	n/a	n/a	n/a	-999	3	[0, 0, 0]	n/a	catFR1	1	R1390M
449.832	10.351	454445	COUNTDOWN_START	n/a	n/a	n/a	n/a	-999	4	[0, 0, 0]	n/a	catFR1	1	R1390M
460.183	0.0	464806	COUNTDOWN_END	n/a	n/a	n/a	n/a	-999	4	[0, 0, 0]	n/a	catFR1	1	R1390M
460.183	1.983	464806	ENCODING_START	n/a	n/a	n/a	n/a	-999	4	[0, 0, 0]	n/a	catFR1	1	R1390M
462.166	1.616	466790	WORD	n/a	wordpools/wordpool_categorized_EN.txt	ELM	Trees	1	4	[0, 0, 0]	n/a	catFR1	1	R1390M
463.782	0.834	468407	WORD_OFF	n/a	n/a	ELM	Trees	1	4	[0, 0, 0]	n/a	catFR1	1	R1390M
464.616	1.6	469233	WORD	n/a	wordpools/wordpool_categorized_EN.txt	BIRCH	Trees	2	4	[0, 0, 0]	n/a	catFR1	1	R1390M
466.216	0.9	470832	WORD_OFF	n/a	n/a	BIRCH	Trees	2	4	[0, 0, 0]	n/a	catFR1	1	R1390M
467.116	1.6	471732	WORD	n/a	wordpools/wordpool_categorized_EN.txt	DRIZZLE	Weather	3	4	[0, 0, 0]	n/a	catFR1	1	R1390M
468.716	0.916	473330	WORD_OFF	n/a	n/a	DRIZZLE	Weather	3	4	[0, 0, 0]	n/a	catFR1	1	R1390M
469.632	1.6	474248	WORD	n/a	wordpools/wordpool_categorized_EN.txt	THUNDERSTORM	Weather	4	4	[0, 0, 0]	n/a	catFR1	1	R1390M
471.232	0.867	475847	WORD_OFF	n/a	n/a	THUNDERSTORM	Weather	4	4	[0, 0, 0]	n/a	catFR1	1	R1390M
472.099	1.6	476710	WORD	n/a	wordpools/wordpool_categorized_EN.txt	BUS	Vehicles	5	4	[0, 0, 0]	n/a	catFR1	1	R1390M
473.699	0.816	478308	WORD_OFF	n/a	n/a	BUS	Vehicles	5	4	[0, 0, 0]	n/a	catFR1	1	R1390M
474.515	1.601	479135	WORD	n/a	wordpools/wordpool_categorized_EN.txt	PLANE	Vehicles	6	4	[0, 0, 0]	n/a	catFR1	1	R1390M
476.116	0.766	480733	WORD_OFF	n/a	n/a	PLANE	Vehicles	6	4	[0, 0, 0]	n/a	catFR1	1	R1390M
476.882	1.618	481505	WORD	n/a	wordpools/wordpool_categorized_EN.txt	CLOUD	Weather	7	4	[0, 0, 0]	n/a	catFR1	1	R1390M
478.5	0.982	483121	WORD_OFF	n/a	n/a	CLOUD	Weather	7	4	[0, 0, 0]	n/a	catFR1	1	R1390M
479.482	1.6	484095	WORD	n/a	wordpools/wordpool_categorized_EN.txt	WIND	Weather	8	4	[0, 0, 0]	n/a	catFR1	1	R1390M
481.082	0.966	485693	WORD_OFF	n/a	n/a	WIND	Weather	8	4	[0, 0, 0]	n/a	catFR1	1	R1390M
482.048	1.601	486667	WORD	n/a	wordpools/wordpool_categorized_EN.txt	WILLOW	Trees	9	4	[0, 0, 0]	n/a	catFR1	1	R1390M
483.649	0.983	488265	WORD_OFF	n/a	n/a	WILLOW	Trees	9	4	[0, 0, 0]	n/a	catFR1	1	R1390M
484.632	1.617	489257	WORD	n/a	wordpools/wordpool_categorized_EN.txt	CYPRESS	Trees	10	4	[0, 0, 0]	n/a	catFR1	1	R1390M
486.249	0.95	490874	WORD_OFF	n/a	n/a	CYPRESS	Trees	10	4	[0, 0, 0]	n/a	catFR1	1	R1390M
487.199	1.6	491810	WORD	n/a	wordpools/wordpool_categorized_EN.txt	TRAIN	Vehicles	11	4	[0, 0, 0]	n/a	catFR1	1	R1390M
488.799	0.983	493409	WORD_OFF	n/a	n/a	TRAIN	Vehicles	11	4	[0, 0, 0]	n/a	catFR1	1	R1390M
489.782	1.6	494401	WORD	n/a	wordpools/wordpool_categorized_EN.txt	JEEP	Vehicles	12	4	[0, 0, 0]	n/a	catFR1	1	R1390M
491.382	0.002	495999	WORD_OFF	n/a	n/a	JEEP	Vehicles	12	4	[0, 0, 0]	n/a	catFR1	1	R1390M
491.384	0.0	495999	ENCODING_END	n/a	n/a	n/a	n/a	-999	4	[0, 0, 0]	n/a	catFR1	1	R1390M
491.384	0.0	495999	DISTRACT_START	n/a	n/a	n/a	n/a	-999	4	[0, 0, 0]	n/a	catFR1	1	R1390M
491.383	0.001	495999	PROB	0.001	n/a	n/a	n/a	-999	4	[7, 1, 3]	11	catFR1	1	R1390M
491.384	4.782	496000	START	n/a	n/a	n/a	n/a	-999	4	[-999, -999, -999]	n/a	catFR1	1	R1390M
496.166	6.2	500781	PROB	6.2	n/a	n/a	n/a	-999	4	[1, 8, 5]	14	catFR1	1	R1390M
502.366	4.8	506981	PROB	4.8	n/a	n/a	n/a	-999	4	[8, 2, 7]	17	catFR1	1	R1390M
507.166	4.216	511781	PROB	4.216	n/a	n/a	n/a	-999	4	[1, 6, 1]	8	catFR1	1	R1390M
511.382	4.25	515997	PROB	4.25	n/a	n/a	n/a	-999	4	[8, 3, 5]	16	catFR1	1	R1390M
515.632	0.0	520247	STOP	n/a	n/a	n/a	n/a	-999	4	[-999, -999, -999]	n/a	catFR1	1	R1390M
515.632	1.233	520248	DISTRACT_END	n/a	n/a	n/a	n/a	-999	4	[0, 0, 0]	n/a	catFR1	1	R1390M
516.865	1.729	521479	REC_START	n/a	n/a	n/a	n/a	-999	4	[0, 0, 0]	n/a	catFR1	1	R1390M
518.594	0.671	523208	REC_WORD	0.671	n/a	ELM	Trees	1	4	[0, 0, 0]	n/a	catFR1	1	R1390M
519.265	0.683	523879	REC_WORD	0.683	n/a	BIRCH	Trees	2	4	[0, 0, 0]	n/a	catFR1	1	R1390M
519.948	1.248	524562	REC_WORD	1.248	n/a	CYPRESS	Trees	10	4	[0, 0, 0]	n/a	catFR1	1	R1390M
521.196	1.859	525810	REC_WORD	1.859	n/a	PLANE	Vehicles	6	4	[0, 0, 0]	n/a	catFR1	1	R1390M
523.055	24.064	527669	REC_WORD	24.064	n/a	JEEP	Vehicles	12	4	[0, 0, 0]	n/a	catFR1	1	R1390M
547.119	7.363	551735	REC_END	n/a	n/a	n/a	n/a	-999	4	[0, 0, 0]	n/a	catFR1	1	R1390M
554.482	10.351	559101	COUNTDOWN_START	n/a	n/a	n/a	n/a	-999	5	[0, 0, 0]	n/a	catFR1	1	R1390M
564.833	0.0	569444	COUNTDOWN_END	n/a	n/a	n/a	n/a	-999	5	[0, 0, 0]	n/a	catFR1	1	R1390M
564.833	2.283	569444	ENCODING_START	n/a	n/a	n/a	n/a	-999	5	[0, 0, 0]	n/a	catFR1	1	R1390M
567.116	1.616	571722	WORD	n/a	wordpools/wordpool_categorized_EN.txt	MILK	Beverages	1	5	[0, 0, 0]	n/a	catFR1	1	R1390M
568.732	0.834	573338	WORD_OFF	n/a	n/a	MILK	Beverages	1	5	[0, 0, 0]	n/a	catFR1	1	R1390M
569.566	1.6	574183	WORD	n/a	wordpools/wordpool_categorized_EN.txt	SODA	Beverages	2	5	[0, 0, 0]	n/a	catFR1	1	R1390M
571.166	0.816	575781	WORD_OFF	n/a	n/a	SODA	Beverages	2	5	[0, 0, 0]	n/a	catFR1	1	R1390M
571.982	1.617	576590	WORD	n/a	wordpools/wordpool_categorized_EN.txt	DAFFODIL	Flowers	3	5	[0, 0, 0]	n/a	catFR1	1	R1390M
573.599	0.983	578206	WORD_OFF	n/a	n/a	DAFFODIL	Flowers	3	5	[0, 0, 0]	n/a	catFR1	1	R1390M
574.582	1.617	579198	WORD	n/a	wordpools/wordpool_categorized_EN.txt	MARIGOLD	Flowers	4	5	[0, 0, 0]	n/a	catFR1	1	R1390M
576.199	0.85	580815	WORD_OFF	n/a	n/a	MARIGOLD	Flowers	4	5	[0, 0, 0]	n/a	catFR1	1	R1390M
577.049	1.617	581660	WORD	n/a	wordpools/wordpool_categorized_EN.txt	BASEBALL	Toys	5	5	[0, 0, 0]	n/a	catFR1	1	R1390M
578.666	0.898	583276	WORD_OFF	n/a	n/a	BASEBALL	Toys	5	5	[0, 0, 0]	n/a	catFR1	1	R1390M
579.564	1.602	584177	WORD	n/a	wordpools/wordpool_categorized_EN.txt	FRISBEE	Toys	6	5	[0, 0, 0]	n/a	catFR1	1	R1390M
581.166	0.783	585775	WORD_OFF	n/a	n/a	FRISBEE	Toys	6	5	[0, 0, 0]	n/a	catFR1	1	R1390M
581.949	1.617	586565	WORD	n/a	wordpools/wordpool_categorized_EN.txt	WINE	Beverages	7	5	[0, 0, 0]	n/a	catFR1	1	R1390M
583.566	0.816	588181	WORD_OFF	n/a	n/a	WINE	Beverages	7	5	[0, 0, 0]	n/a	catFR1	1	R1390M
584.382	1.6	588990	WORD	n/a	wordpools/wordpool_categorized_EN.txt	COLA	Beverages	8	5	[0, 0, 0]	n/a	catFR1	1	R1390M
585.982	0.95	590588	WORD_OFF	n/a	n/a	COLA	Beverages	8	5	[0, 0, 0]	n/a	catFR1	1	R1390M
586.932	1.6	591543	WORD	n/a	wordpools/wordpool_categorized_EN.txt	SLINKY	Toys	9	5	[0, 0, 0]	n/a	catFR1	1	R1390M
588.532	0.783	593141	WORD_OFF	n/a	n/a	SLINKY	Toys	9	5	[0, 0, 0]	n/a	catFR1	1	R1390M
589.315	1.617	593931	WORD	n/a	wordpools/wordpool_categorized_EN.txt	BALL	Toys	10	5	[0, 0, 0]	n/a	catFR1	1	R1390M
590.932	0.8	595548	WORD_OFF	n/a	n/a	BALL	Toys	10	5	[0, 0, 0]	n/a	catFR1	1	R1390M
591.732	1.616	596338	WORD	n/a	wordpools/wordpool_categorized_EN.txt	CARNATION	Flowers	11	5	[0, 0, 0]	n/a	catFR1	1	R1390M
593.348	0.934	597954	WORD_OFF	n/a	n/a	CARNATION	Flowers	11	5	[0, 0, 0]	n/a	catFR1	1	R1390M
594.282	1.617	598891	WORD	n/a	wordpools/wordpool_categorized_EN.txt	SUNFLOWER	Flowers	12	5	[0, 0, 0]	n/a	catFR1	1	R1390M
595.899	0.001	600508	WORD_OFF	n/a	n/a	SUNFLOWER	Flowers	12	5	[0, 0, 0]	n/a	catFR1	1	R1390M
595.9	0.0	600508	ENCODING_END	n/a	n/a	n/a	n/a	-999	5	[0, 0, 0]	n/a	catFR1	1	R1390M
595.9	0.0	600508	DISTRACT_START	n/a	n/a	n/a	n/a	-999	5	[0, 0, 0]	n/a	catFR1	1	R1390M
595.899	0.001	600510	PROB	0.001	n/a	n/a	n/a	-999	5	[7, 6, 8]	21	catFR1	1	R1390M
595.9	6.733	600511	START	n/a	n/a	n/a	n/a	-999	5	[-999, -999, -999]	n/a	catFR1	1	R1390M
602.633	13.699	607243	PROB	13.699	n/a	n/a	n/a	-999	5	[7, 8, 8]	23	catFR1	1	R1390M
616.332	0.0	620936	DISTRACT_END	n/a	n/a	n/a	n/a	-999	5	[0, 0, 0]	n/a	catFR1	1	R1390M
616.332	1.249	620942	STOP	n/a	n/a	n/a	n/a	-999	5	[-999, -999, -999]	n/a	catFR1	1	R1390M
617.581	2.775	622185	REC_START	n/a	n/a	n/a	n/a	-999	5	[0, 0, 0]	n/a	catFR1	1	R1390M
620.356	3.485	624965	REC_WORD	3.485	n/a	DAFFODIL	Flowers	3	5	[0, 0, 0]	n/a	catFR1	1	R1390M
623.841	7.134	628450	REC_WORD	7.134	n/a	SLINKY	Toys	9	5	[0, 0, 0]	n/a	catFR1	1	R1390M
630.975	16.854	635584	REC_WORD	16.854	n/a	WINE	Beverages	7	5	[0, 0, 0]	n/a	catFR1	1	R1390M
647.829	7.17	652441	REC_END	n/a	n/a	n/a	n/a	-999	5	[0, 0, 0]	n/a	catFR1	1	R1390M
654.999	7.534	659605	COUNTDOWN_START	n/a	n/a	n/a	n/a	-999	6	[0, 0, 0]	n/a	catFR1	1	R1390M
662.533	0.0	667137	COUNTDOWN_END	n/a	n/a	n/a	n/a	-999	6	[0, 0, 0]	n/a	catFR1	1	R1390M
662.533	1.999	667137	ENCODING_START	n/a	n/a	n/a	n/a	-999	6	[0, 0, 0]	n/a	catFR1	1	R1390M
664.532	1.617	669139	WORD	n/a	wordpools/wordpool_categorized_EN.txt	BINDER	Officesupplies	1	6	[0, 0, 0]	n/a	catFR1	1	R1390M
666.149	0.767	670756	WORD_OFF	n/a	n/a	BINDER	Officesupplies	1	6	[0, 0, 0]	n/a	catFR1	1	R1390M
666.916	1.616	671528	WORD	n/a	wordpools/wordpool_categorized_EN.txt	PEN	Officesupplies	2	6	[0, 0, 0]	n/a	catFR1	1	R1390M
668.532	0.85	673144	WORD_OFF	n/a	n/a	PEN	Officesupplies	2	6	[0, 0, 0]	n/a	catFR1	1	R1390M
669.382	1.6	673989	WORD	n/a	wordpools/wordpool_categorized_EN.txt	PANTS	Clothing	3	6	[0, 0, 0]	n/a	catFR1	1	R1390M
670.982	0.934	675587	WORD_OFF	n/a	n/a	PANTS	Clothing	3	6	[0, 0, 0]	n/a	catFR1	1	R1390M
671.916	1.6	676524	WORD	n/a	wordpools/wordpool_categorized_EN.txt	UNDERWEAR	Clothing	4	6	[0, 0, 0]	n/a	catFR1	1	R1390M
673.516	0.799	678123	WORD_OFF	n/a	n/a	UNDERWEAR	Clothing	4	6	[0, 0, 0]	n/a	catFR1	1	R1390M
674.315	1.617	678931	WORD	n/a	wordpools/wordpool_categorized_EN.txt	MOUNTAIN	Landscapes	5	6	[0, 0, 0]	n/a	catFR1	1	R1390M
675.932	0.816	680547	WORD_OFF	n/a	n/a	MOUNTAIN	Landscapes	5	6	[0, 0, 0]	n/a	catFR1	1	R1390M
676.748	1.601	681356	WORD	n/a	wordpools/wordpool_categorized_EN.txt	CREEK	Landscapes	6	6	[0, 0, 0]	n/a	catFR1	1	R1390M
678.349	0.833	682954	WORD_OFF	n/a	n/a	CREEK	Landscapes	6	6	[0, 0, 0]	n/a	catFR1	1	R1390M
679.182	1.6	683799	WORD	n/a	wordpools/wordpool_categorized_EN.txt	SHOES	Clothing	7	6	[0, 0, 0]	n/a	catFR1	1	R1390M
680.782	0.983	685397	WORD_OFF	n/a	n/a	SHOES	Clothing	7	6	[0, 0, 0]	n/a	catFR1	1	R1390M
681.765	1.617	686371	WORD	n/a	wordpools/wordpool_categorized_EN.txt	COAT	Clothing	8	6	[0, 0, 0]	n/a	catFR1	1	R1390M
683.382	0.917	687987	WORD_OFF	n/a	n/a	COAT	Clothing	8	6	[0, 0, 0]	n/a	catFR1	1	R1390M
684.299	1.616	688906	WORD	n/a	wordpools/wordpool_categorized_EN.txt	STREAM	Landscapes	9	6	[0, 0, 0]	n/a	catFR1	1	R1390M
685.915	0.783	690523	WORD_OFF	n/a	n/a	STREAM	Landscapes	9	6	[0, 0, 0]	n/a	catFR1	1	R1390M
686.698	1.6	691312	WORD	n/a	wordpools/wordpool_categorized_EN.txt	VALLEY	Landscapes	10	6	[0, 0, 0]	n/a	catFR1	1	R1390M
688.298	0.867	692911	WORD_OFF	n/a	n/a	VALLEY	Landscapes	10	6	[0, 0, 0]	n/a	catFR1	1	R1390M
689.165	1.6	693774	WORD	n/a	wordpools/wordpool_categorized_EN.txt	TAPE	Officesupplies	11	6	[0, 0, 0]	n/a	catFR1	1	R1390M
690.765	0.9	695372	WORD_OFF	n/a	n/a	TAPE	Officesupplies	11	6	[0, 0, 0]	n/a	catFR1	1	R1390M
691.665	1.6	696272	WORD	n/a	wordpools/wordpool_categorized_EN.txt	MARKER	Officesupplies	12	6	[0, 0, 0]	n/a	catFR1	1	R1390M
693.265	0.002	697871	WORD_OFF	n/a	n/a	MARKER	Officesupplies	12	6	[0, 0, 0]	n/a	catFR1	1	R1390M
693.267	0.0	697871	ENCODING_END	n/a	n/a	n/a	n/a	-999	6	[0, 0, 0]	n/a	catFR1	1	R1390M
693.267	0.0	697871	DISTRACT_START	n/a	n/a	n/a	n/a	-999	6	[0, 0, 0]	n/a	catFR1	1	R1390M
693.266	0.001	697872	PROB	0.001	n/a	n/a	n/a	-999	6	[1, 8, 8]	17	catFR1	1	R1390M
693.267	7.732	697873	START	n/a	n/a	n/a	n/a	-999	6	[-999, -999, -999]	n/a	catFR1	1	R1390M
700.999	5.734	705604	PROB	5.734	n/a	n/a	n/a	-999	6	[2, 2, 6]	10	catFR1	1	R1390M
706.733	5.283	711338	PROB	5.283	n/a	n/a	n/a	-999	6	[2, 8, 8]	18	catFR1	1	R1390M
712.016	5.233	716621	PROB	5.233	n/a	n/a	n/a	-999	6	[8, 4, 6]	18	catFR1	1	R1390M
717.249	0.0	721853	STOP	n/a	n/a	n/a	n/a	-999	6	[-999, -999, -999]	n/a	catFR1	1	R1390M
717.249	1.333	721862	DISTRACT_END	n/a	n/a	n/a	n/a	-999	6	[0, 0, 0]	n/a	catFR1	1	R1390M
718.582	1.372	723185	REC_START	n/a	n/a	n/a	n/a	-999	6	[0, 0, 0]	n/a	catFR1	1	R1390M
719.954	0.528	724558	REC_WORD	0.528	n/a	MOUNTAIN	Landscapes	5	6	[0, 0, 0]	n/a	catFR1	1	R1390M
720.482	0.497	725086	REC_WORD	0.497	n/a	VALLEY	Landscapes	10	6	[0, 0, 0]	n/a	catFR1	1	R1390M
720.979	1.584	725583	REC_WORD	1.584	n/a	CREEK	Landscapes	6	6	[0, 0, 0]	n/a	catFR1	1	R1390M
722.563	1.086	727167	REC_WORD_VV	1.086	n/a	<>	n/a	-999	6	[0, 0, 0]	n/a	catFR1	1	R1390M
723.649	1.658	728253	REC_WORD	1.658	n/a	PANTS	Clothing	3	6	[0, 0, 0]	n/a	catFR1	1	R1390M
725.307	2.032	729911	REC_WORD	2.032	n/a	UNDERWEAR	Clothing	4	6	[0, 0, 0]	n/a	catFR1	1	R1390M
727.339	8.616	731943	REC_WORD	8.616	n/a	COAT	Clothing	8	6	[0, 0, 0]	n/a	catFR1	1	R1390M
735.955	2.724	740559	REC_WORD	2.724	n/a	BINDER	Officesupplies	1	6	[0, 0, 0]	n/a	catFR1	1	R1390M
738.679	5.141	743282	REC_WORD	5.141	n/a	PEN	Officesupplies	2	6	[0, 0, 0]	n/a	catFR1	1	R1390M
743.82	5.026	748423	REC_WORD	5.026	n/a	MARKER	Officesupplies	12	6	[0, 0, 0]	n/a	catFR1	1	R1390M
748.846	233.37	753459	REC_END	n/a	n/a	n/a	n/a	-999	6	[0, 0, 0]	n/a	catFR1	1	R1390M
982.216	2.167	986818	COUNTDOWN_START	n/a	n/a	n/a	n/a	-999	7	[0, 0, 0]	n/a	catFR1	1	R1390M
984.383	0.0	988967	COUNTDOWN_END	n/a	n/a	n/a	n/a	-999	7	[0, 0, 0]	n/a	catFR1	1	R1390M
984.383	1.932	988986	ENCODING_START	n/a	n/a	n/a	n/a	-999	7	[0, 0, 0]	n/a	catFR1	1	R1390M
986.315	1.601	990914	WORD	n/a	wordpools/wordpool_categorized_EN.txt	CUCUMBER	Vegetables	1	7	[0, 0, 0]	n/a	catFR1	1	R1390M
987.916	0.966	992513	WORD_OFF	n/a	n/a	CUCUMBER	Vegetables	1	7	[0, 0, 0]	n/a	catFR1	1	R1390M
988.882	1.616	993468	WORD	n/a	wordpools/wordpool_categorized_EN.txt	CORN	Vegetables	2	7	[0, 0, 0]	n/a	catFR1	1	R1390M
990.498	0.984	995085	WORD_OFF	n/a	n/a	CORN	Vegetables	2	7	[0, 0, 0]	n/a	catFR1	1	R1390M
991.482	1.6	996077	WORD	n/a	wordpools/wordpool_categorized_EN.txt	CHAIR	Furniture	3	7	[0, 0, 0]	n/a	catFR1	1	R1390M
993.082	0.884	997675	WORD_OFF	n/a	n/a	CHAIR	Furniture	3	7	[0, 0, 0]	n/a	catFR1	1	R1390M
993.966	1.616	998557	WORD	n/a	wordpools/wordpool_categorized_EN.txt	TABLE	Furniture	4	7	[0, 0, 0]	n/a	catFR1	1	R1390M
995.582	0.934	1000173	WORD_OFF	n/a	n/a	TABLE	Furniture	4	7	[0, 0, 0]	n/a	catFR1	1	R1390M
996.516	1.616	1001110	WORD	n/a	wordpools/wordpool_categorized_EN.txt	LION	Zoo	5	7	[0, 0, 0]	n/a	catFR1	1	R1390M
998.132	0.767	1002727	WORD_OFF	n/a	n/a	LION	Zoo	5	7	[0, 0, 0]	n/a	catFR1	1	R1390M
998.899	1.6	1003498	WORD	n/a	wordpools/wordpool_categorized_EN.txt	ZEBRA	Zoo	6	7	[0, 0, 0]	n/a	catFR1	1	R1390M
1000.499	0.983	1005096	WORD_OFF	n/a	n/a	ZEBRA	Zoo	6	7	[0, 0, 0]	n/a	catFR1	1	R1390M
1001.482	1.617	1006070	WORD	n/a	wordpools/wordpool_categorized_EN.txt	SPINACH	Vegetables	7	7	[0, 0, 0]	n/a	catFR1	1	R1390M
1003.099	0.982	1007687	WORD_OFF	n/a	n/a	SPINACH	Vegetables	7	7	[0, 0, 0]	n/a	catFR1	1	R1390M
1004.081	1.6	1008679	WORD	n/a	wordpools/wordpool_categorized_EN.txt	CARROT	Vegetables	8	7	[0, 0, 0]	n/a	catFR1	1	R1390M
1005.681	1.001	1010277	WORD_OFF	n/a	n/a	CARROT	Vegetables	8	7	[0, 0, 0]	n/a	catFR1	1	R1390M
1006.682	1.616	1011269	WORD	n/a	wordpools/wordpool_categorized_EN.txt	CABINET	Furniture	9	7	[0, 0, 0]	n/a	catFR1	1	R1390M
1008.298	0.817	1012885	WORD_OFF	n/a	n/a	CABINET	Furniture	9	7	[0, 0, 0]	n/a	catFR1	1	R1390M
1009.115	1.602	1013712	WORD	n/a	wordpools/wordpool_categorized_EN.txt	SOFA	Furniture	10	7	[0, 0, 0]	n/a	catFR1	1	R1390M
1010.717	0.798	1015310	WORD_OFF	n/a	n/a	SOFA	Furniture	10	7	[0, 0, 0]	n/a	catFR1	1	R1390M
1011.515	1.6	1016100	WORD	n/a	wordpools/wordpool_categorized_EN.txt	CHEETAH	Zoo	11	7	[0, 0, 0]	n/a	catFR1	1	R1390M
1013.115	0.784	1017698	WORD_OFF	n/a	n/a	CHEETAH	Zoo	11	7	[0, 0, 0]	n/a	catFR1	1	R1390M
1013.899	1.616	1018488	WORD	n/a	wordpools/wordpool_categorized_EN.txt	BEAR	Zoo	12	7	[0, 0, 0]	n/a	catFR1	1	R1390M
1015.515	0.002	1020105	WORD_OFF	n/a	n/a	BEAR	Zoo	12	7	[0, 0, 0]	n/a	catFR1	1	R1390M
1015.517	0.0	1020105	ENCODING_END	n/a	n/a	n/a	n/a	-999	7	[0, 0, 0]	n/a	catFR1	1	R1390M
1015.517	0.0	1020105	DISTRACT_START	n/a	n/a	n/a	n/a	-999	7	[0, 0, 0]	n/a	catFR1	1	R1390M
1015.516	0.001	1020106	PROB	0.001	n/a	n/a	n/a	-999	7	[1, 4, 3]	8	catFR1	1	R1390M
1015.517	4.382	1020107	START	n/a	n/a	n/a	n/a	-999	7	[-999, -999, -999]	n/a	catFR1	1	R1390M
1019.899	3.784	1024488	PROB	3.784	n/a	n/a	n/a	-999	7	[5, 6, 1]	12	catFR1	1	R1390M
1023.683	7.066	1028272	PROB	7.066	n/a	n/a	n/a	-999	7	[3, 5, 3]	11	catFR1	1	R1390M
1030.749	7.099	1035338	PROB	7.099	n/a	n/a	n/a	-999	7	[6, 3, 6]	15	catFR1	1	R1390M
1037.848	0.0	1042437	STOP	n/a	n/a	n/a	n/a	-999	7	[-999, -999, -999]	n/a	catFR1	1	R1390M
1037.848	1.184	1042443	DISTRACT_END	n/a	n/a	n/a	n/a	-999	7	[0, 0, 0]	n/a	catFR1	1	R1390M
1039.032	1.88	1043619	REC_START	n/a	n/a	n/a	n/a	-999	7	[0, 0, 0]	n/a	catFR1	1	R1390M
1040.912	0.592	1045500	REC_WORD	0.592	n/a	CHEETAH	Zoo	11	7	[0, 0, 0]	n/a	catFR1	1	R1390M
1041.504	0.898	1046092	REC_WORD	0.898	n/a	BEAR	Zoo	12	7	[0, 0, 0]	n/a	catFR1	1	R1390M
1042.402	1.07	1046990	REC_WORD	1.07	n/a	LION	Zoo	5	7	[0, 0, 0]	n/a	catFR1	1	R1390M
1043.472	4.939	1048060	REC_WORD	4.939	n/a	ZEBRA	Zoo	6	7	[0, 0, 0]	n/a	catFR1	1	R1390M
1048.411	1.041	1052999	REC_WORD	1.041	n/a	SPINACH	Vegetables	7	7	[0, 0, 0]	n/a	catFR1	1	R1390M
1049.452	1.805	1054040	REC_WORD	1.805	n/a	CORN	Vegetables	2	7	[0, 0, 0]	n/a	catFR1	1	R1390M
1051.257	13.687	1055845	REC_WORD	13.687	n/a	CUCUMBER	Vegetables	1	7	[0, 0, 0]	n/a	catFR1	1	R1390M
1064.944	0.658	1069531	REC_WORD	0.658	n/a	BEAR	Zoo	12	7	[0, 0, 0]	n/a	catFR1	1	R1390M
1065.602	3.67	1070189	REC_WORD_VV	3.67	n/a	<>	n/a	-999	7	[0, 0, 0]	n/a	catFR1	1	R1390M
1069.272	15.777	1073857	REC_END	n/a	n/a	n/a	n/a	-999	7	[0, 0, 0]	n/a	catFR1	1	R1390M
1085.049	10.35	1089637	COUNTDOWN_START	n/a	n/a	n/a	n/a	-999	8	[0, 0, 0]	n/a	catFR1	1	R1390M
1095.399	0.001	1099979	COUNTDOWN_END	n/a	n/a	n/a	n/a	-999	8	[0, 0, 0]	n/a	catFR1	1	R1390M
1095.4	2.299	1099979	ENCODING_START	n/a	n/a	n/a	n/a	-999	8	[0, 0, 0]	n/a	catFR1	1	R1390M
1097.699	1.616	1102294	WORD	n/a	wordpools/wordpool_categorized_EN.txt	PEAS	Vegetables	1	8	[0, 0, 0]	n/a	catFR1	1	R1390M
1099.315	0.85	1103910	WORD_OFF	n/a	n/a	PEAS	Vegetables	1	8	[0, 0, 0]	n/a	catFR1	1	R1390M
1100.165	1.6	1104756	WORD	n/a	wordpools/wordpool_categorized_EN.txt	LETTUCE	Vegetables	2	8	[0, 0, 0]	n/a	catFR1	1	R1390M
1101.765	0.95	1106354	WORD_OFF	n/a	n/a	LETTUCE	Vegetables	2	8	[0, 0, 0]	n/a	catFR1	1	R1390M
1102.715	1.6	1107309	WORD	n/a	wordpools/wordpool_categorized_EN.txt	TURKEY	Farmanimals	3	8	[0, 0, 0]	n/a	catFR1	1	R1390M
1104.315	0.85	1108907	WORD_OFF	n/a	n/a	TURKEY	Farmanimals	3	8	[0, 0, 0]	n/a	catFR1	1	R1390M
1105.165	1.6	1109752	WORD	n/a	wordpools/wordpool_categorized_EN.txt	ROOSTER	Farmanimals	4	8	[0, 0, 0]	n/a	catFR1	1	R1390M
1106.765	0.8	1111350	WORD_OFF	n/a	n/a	ROOSTER	Farmanimals	4	8	[0, 0, 0]	n/a	catFR1	1	R1390M
1107.565	1.6	1112159	WORD	n/a	wordpools/wordpool_categorized_EN.txt	SANDER	Tools	5	8	[0, 0, 0]	n/a	catFR1	1	R1390M
1109.165	0.967	1113757	WORD_OFF	n/a	n/a	SANDER	Tools	5	8	[0, 0, 0]	n/a	catFR1	1	R1390M
1110.132	1.616	1114712	WORD	n/a	wordpools/wordpool_categorized_EN.txt	HAMMER	Tools	6	8	[0, 0, 0]	n/a	catFR1	1	R1390M
1111.748	0.834	1116329	WORD_OFF	n/a	n/a	HAMMER	Tools	6	8	[0, 0, 0]	n/a	catFR1	1	R1390M
1112.582	1.616	1117174	WORD	n/a	wordpools/wordpool_categorized_EN.txt	SHEEP	Farmanimals	7	8	[0, 0, 0]	n/a	catFR1	1	R1390M
1114.198	0.901	1118790	WORD_OFF	n/a	n/a	SHEEP	Farmanimals	7	8	[0, 0, 0]	n/a	catFR1	1	R1390M
1115.099	1.616	1119691	WORD	n/a	wordpools/wordpool_categorized_EN.txt	HEN	Farmanimals	8	8	[0, 0, 0]	n/a	catFR1	1	R1390M
1116.715	0.933	1121307	WORD_OFF	n/a	n/a	HEN	Farmanimals	8	8	[0, 0, 0]	n/a	catFR1	1	R1390M
1117.648	1.617	1122226	WORD	n/a	wordpools/wordpool_categorized_EN.txt	RATCHET	Tools	9	8	[0, 0, 0]	n/a	catFR1	1	R1390M
1119.265	0.883	1123842	WORD_OFF	n/a	n/a	RATCHET	Tools	9	8	[0, 0, 0]	n/a	catFR1	1	R1390M
1120.148	1.617	1124742	WORD	n/a	wordpools/wordpool_categorized_EN.txt	CROWBAR	Tools	10	8	[0, 0, 0]	n/a	catFR1	1	R1390M
1121.765	0.883	1126341	WORD_OFF	n/a	n/a	CROWBAR	Tools	10	8	[0, 0, 0]	n/a	catFR1	1	R1390M
1122.648	1.6	1127241	WORD	n/a	wordpools/wordpool_categorized_EN.txt	POTATO	Vegetables	11	8	[0, 0, 0]	n/a	catFR1	1	R1390M
1124.248	1.001	1128839	WORD_OFF	n/a	n/a	POTATO	Vegetables	11	8	[0, 0, 0]	n/a	catFR1	1	R1390M
1125.249	1.6	1129831	WORD	n/a	wordpools/wordpool_categorized_EN.txt	ONION	Vegetables	12	8	[0, 0, 0]	n/a	catFR1	1	R1390M
1126.849	0.002	1131429	WORD_OFF	n/a	n/a	ONION	Vegetables	12	8	[0, 0, 0]	n/a	catFR1	1	R1390M
1126.851	0.0	1131429	ENCODING_END	n/a	n/a	n/a	n/a	-999	8	[0, 0, 0]	n/a	catFR1	1	R1390M
1126.851	0.0	1131429	DISTRACT_START	n/a	n/a	n/a	n/a	-999	8	[0, 0, 0]	n/a	catFR1	1	R1390M
1126.85	0.001	1131434	PROB	0.001	n/a	n/a	n/a	-999	8	[7, 3, 8]	18	catFR1	1	R1390M
1126.851	6.265	1131435	START	n/a	n/a	n/a	n/a	-999	8	[-999, -999, -999]	n/a	catFR1	1	R1390M
1133.116	7.517	1137700	PROB	7.517	n/a	n/a	n/a	-999	8	[3, 5, 2]	10	catFR1	1	R1390M
1140.633	3.615	1145216	PROB	3.615	n/a	n/a	n/a	-999	8	[2, 2, 5]	9	catFR1	1	R1390M
1144.248	5.051	1148831	PROB	5.051	n/a	n/a	n/a	-999	8	[6, 5, 7]	18	catFR1	1	R1390M
1149.299	0.0	1153878	DISTRACT_END	n/a	n/a	n/a	n/a	-999	8	[0, 0, 0]	n/a	catFR1	1	R1390M
1149.299	1.3	1153882	STOP	n/a	n/a	n/a	n/a	-999	8	[-999, -999, -999]	n/a	catFR1	1	R1390M
1150.599	2.136	1155182	REC_START	n/a	n/a	n/a	n/a	-999	8	[0, 0, 0]	n/a	catFR1	1	R1390M
1152.735	2.701	1157318	REC_WORD	2.701	n/a	LETTUCE	Vegetables	2	8	[0, 0, 0]	n/a	catFR1	1	R1390M
1155.436	1.625	1160019	REC_WORD	1.625	n/a	HAMMER	Tools	6	8	[0, 0, 0]	n/a	catFR1	1	R1390M
1157.061	9.944	1161644	REC_WORD	9.944	n/a	WRENCH	n/a	-999	8	[0, 0, 0]	n/a	catFR1	1	R1390M
1167.005	2.381	1171587	REC_WORD	2.381	n/a	POTATO	Vegetables	11	8	[0, 0, 0]	n/a	catFR1	1	R1390M
1169.386	1.007	1173968	REC_WORD	1.007	n/a	HEN	Farmanimals	8	8	[0, 0, 0]	n/a	catFR1	1	R1390M
1170.393	10.446	1174975	REC_WORD	10.446	n/a	TURKEY	Farmanimals	3	8	[0, 0, 0]	n/a	catFR1	1	R1390M
1180.839	9.96	1185420	REC_END	n/a	n/a	n/a	n/a	-999	8	[0, 0, 0]	n/a	catFR1	1	R1390M
1190.799	9.901	1195376	COUNTDOWN_START	n/a	n/a	n/a	n/a	-999	9	[0, 0, 0]	n/a	catFR1	1	R1390M
1200.7	0.0	1205278	COUNTDOWN_END	n/a	n/a	n/a	n/a	-999	9	[0, 0, 0]	n/a	catFR1	1	R1390M
1200.7	1.998	1205278	ENCODING_START	n/a	n/a	n/a	n/a	-999	9	[0, 0, 0]	n/a	catFR1	1	R1390M
1202.698	1.601	1207280	WORD	n/a	wordpools/wordpool_categorized_EN.txt	CAULIFLOWER	Vegetables	1	9	[0, 0, 0]	n/a	catFR1	1	R1390M
1204.299	0.9	1208879	WORD_OFF	n/a	n/a	CAULIFLOWER	Vegetables	1	9	[0, 0, 0]	n/a	catFR1	1	R1390M
1205.199	1.616	1209779	WORD	n/a	wordpools/wordpool_categorized_EN.txt	CABBAGE	Vegetables	2	9	[0, 0, 0]	n/a	catFR1	1	R1390M
1206.815	0.783	1211395	WORD_OFF	n/a	n/a	CABBAGE	Vegetables	2	9	[0, 0, 0]	n/a	catFR1	1	R1390M
1207.598	1.6	1212185	WORD	n/a	wordpools/wordpool_categorized_EN.txt	APPLE	Fruit	3	9	[0, 0, 0]	n/a	catFR1	1	R1390M
1209.198	0.817	1213784	WORD_OFF	n/a	n/a	APPLE	Fruit	3	9	[0, 0, 0]	n/a	catFR1	1	R1390M
1210.015	1.601	1214592	WORD	n/a	wordpools/wordpool_categorized_EN.txt	BANANA	Fruit	4	9	[0, 0, 0]	n/a	catFR1	1	R1390M
1211.616	0.932	1216190	WORD_OFF	n/a	n/a	BANANA	Fruit	4	9	[0, 0, 0]	n/a	catFR1	1	R1390M
1212.548	1.601	1217127	WORD	n/a	wordpools/wordpool_categorized_EN.txt	GOOSE	Birds	5	9	[0, 0, 0]	n/a	catFR1	1	R1390M
1214.149	0.932	1218725	WORD_OFF	n/a	n/a	GOOSE	Birds	5	9	[0, 0, 0]	n/a	catFR1	1	R1390M
1215.081	1.601	1219662	WORD	n/a	wordpools/wordpool_categorized_EN.txt	FINCH	Birds	6	9	[0, 0, 0]	n/a	catFR1	1	R1390M
1216.682	0.9	1221260	WORD_OFF	n/a	n/a	FINCH	Birds	6	9	[0, 0, 0]	n/a	catFR1	1	R1390M
1217.582	1.6	1222160	WORD	n/a	wordpools/wordpool_categorized_EN.txt	STRAWBERRY	Fruit	7	9	[0, 0, 0]	n/a	catFR1	1	R1390M
1219.182	0.983	1223759	WORD_OFF	n/a	n/a	STRAWBERRY	Fruit	7	9	[0, 0, 0]	n/a	catFR1	1	R1390M
1220.165	1.601	1224751	WORD	n/a	wordpools/wordpool_categorized_EN.txt	PLUM	Fruit	8	9	[0, 0, 0]	n/a	catFR1	1	R1390M
1221.766	0.966	1226349	WORD_OFF	n/a	n/a	PLUM	Fruit	8	9	[0, 0, 0]	n/a	catFR1	1	R1390M
1222.732	1.6	1227308	WORD	n/a	wordpools/wordpool_categorized_EN.txt	BROCCOLI	Vegetables	9	9	[0, 0, 0]	n/a	catFR1	1	R1390M
1224.332	0.9	1228921	WORD_OFF	n/a	n/a	BROCCOLI	Vegetables	9	9	[0, 0, 0]	n/a	catFR1	1	R1390M
1225.232	1.617	1229821	WORD	n/a	wordpools/wordpool_categorized_EN.txt	CELERY	Vegetables	10	9	[0, 0, 0]	n/a	catFR1	1	R1390M
1226.849	0.883	1231437	WORD_OFF	n/a	n/a	CELERY	Vegetables	10	9	[0, 0, 0]	n/a	catFR1	1	R1390M
1227.732	1.6	1232319	WORD	n/a	wordpools/wordpool_categorized_EN.txt	BLUEBIRD	Birds	11	9	[0, 0, 0]	n/a	catFR1	1	R1390M
1229.332	0.967	1233917	WORD_OFF	n/a	n/a	BLUEBIRD	Birds	11	9	[0, 0, 0]	n/a	catFR1	1	R1390M
1230.299	1.6	1234873	WORD	n/a	wordpools/wordpool_categorized_EN.txt	CROW	Birds	12	9	[0, 0, 0]	n/a	catFR1	1	R1390M
1231.899	0.001	1236471	WORD_OFF	n/a	n/a	CROW	Birds	12	9	[0, 0, 0]	n/a	catFR1	1	R1390M
1231.9	0.001	1236479	PROB	0.001	n/a	n/a	n/a	-999	9	[5, 3, 7]	15	catFR1	1	R1390M
1231.901	0.0	1236480	START	n/a	n/a	n/a	n/a	-999	9	[-999, -999, -999]	n/a	catFR1	1	R1390M
1231.901	0.0	1236489	ENCODING_END	n/a	n/a	n/a	n/a	-999	9	[0, 0, 0]	n/a	catFR1	1	R1390M
1231.901	5.882	1236489	DISTRACT_START	n/a	n/a	n/a	n/a	-999	9	[0, 0, 0]	n/a	catFR1	1	R1390M
1237.783	2.983	1242362	PROB	2.983	n/a	n/a	n/a	-999	9	[3, 1, 2]	6	catFR1	1	R1390M
1240.766	3.816	1245344	PROB	3.816	n/a	n/a	n/a	-999	9	[4, 8, 2]	14	catFR1	1	R1390M
1244.582	4.317	1249160	PROB	4.317	n/a	n/a	n/a	-999	9	[2, 6, 7]	15	catFR1	1	R1390M
1248.899	4.633	1253477	PROB	4.633	n/a	n/a	n/a	-999	9	[8, 3, 8]	19	catFR1	1	R1390M
1253.532	0.0	1258110	STOP	n/a	n/a	n/a	n/a	-999	9	[-999, -999, -999]	n/a	catFR1	1	R1390M
1253.532	1.266	1258111	DISTRACT_END	n/a	n/a	n/a	n/a	-999	9	[0, 0, 0]	n/a	catFR1	1	R1390M
1254.798	2.195	1259379	REC_START	n/a	n/a	n/a	n/a	-999	9	[0, 0, 0]	n/a	catFR1	1	R1390M
1256.993	1.0	1261571	REC_WORD	1.0	n/a	STRAWBERRY	Fruit	7	9	[0, 0, 0]	n/a	catFR1	1	R1390M
1257.993	9.177	1262571	REC_WORD_VV	9.177	n/a	<>	n/a	-999	9	[0, 0, 0]	n/a	catFR1	1	R1390M
1267.17	17.863	1271747	REC_WORD	17.863	n/a	PLUM	Fruit	8	9	[0, 0, 0]	n/a	catFR1	1	R1390M
1285.033	14.749	1289616	REC_END	n/a	n/a	n/a	n/a	-999	9	[0, 0, 0]	n/a	catFR1	1	R1390M
1299.782	8.817	1304368	COUNTDOWN_START	n/a	n/a	n/a	n/a	-999	10	[0, 0, 0]	n/a	catFR1	1	R1390M
1308.599	0.0	1313167	COUNTDOWN_END	n/a	n/a	n/a	n/a	-999	10	[0, 0, 0]	n/a	catFR1	1	R1390M
1308.599	2.267	1313186	ENCODING_START	n/a	n/a	n/a	n/a	-999	10	[0, 0, 0]	n/a	catFR1	1	R1390M
1310.866	1.6	1315445	WORD	n/a	wordpools/wordpool_categorized_EN.txt	LEVEL	Tools	1	10	[0, 0, 0]	n/a	catFR1	1	R1390M
1312.466	0.816	1317043	WORD_OFF	n/a	n/a	LEVEL	Tools	1	10	[0, 0, 0]	n/a	catFR1	1	R1390M
1313.282	1.617	1317852	WORD	n/a	wordpools/wordpool_categorized_EN.txt	AXE	Tools	2	10	[0, 0, 0]	n/a	catFR1	1	R1390M
1314.899	0.867	1319468	WORD_OFF	n/a	n/a	AXE	Tools	2	10	[0, 0, 0]	n/a	catFR1	1	R1390M
1315.766	1.6	1320350	WORD	n/a	wordpools/wordpool_categorized_EN.txt	SEAGULL	Birds	3	10	[0, 0, 0]	n/a	catFR1	1	R1390M
1317.366	1.0	1321948	WORD_OFF	n/a	n/a	SEAGULL	Birds	3	10	[0, 0, 0]	n/a	catFR1	1	R1390M
1318.366	1.6	1322940	WORD	n/a	wordpools/wordpool_categorized_EN.txt	PIGEON	Birds	4	10	[0, 0, 0]	n/a	catFR1	1	R1390M
1319.966	0.849	1324538	WORD_OFF	n/a	n/a	PIGEON	Birds	4	10	[0, 0, 0]	n/a	catFR1	1	R1390M
1320.815	1.601	1325383	WORD	n/a	wordpools/wordpool_categorized_EN.txt	CUPCAKE	Desserts	5	10	[0, 0, 0]	n/a	catFR1	1	R1390M
1322.416	0.765	1327000	WORD_OFF	n/a	n/a	CUPCAKE	Desserts	5	10	[0, 0, 0]	n/a	catFR1	1	R1390M
1323.181	1.601	1327753	WORD	n/a	wordpools/wordpool_categorized_EN.txt	PUDDING	Desserts	6	10	[0, 0, 0]	n/a	catFR1	1	R1390M
1324.782	0.834	1329351	WORD_OFF	n/a	n/a	PUDDING	Desserts	6	10	[0, 0, 0]	n/a	catFR1	1	R1390M
1325.616	1.6	1330196	WORD	n/a	wordpools/wordpool_categorized_EN.txt	SPARROW	Birds	7	10	[0, 0, 0]	n/a	catFR1	1	R1390M
1327.216	0.983	1331795	WORD_OFF	n/a	n/a	SPARROW	Birds	7	10	[0, 0, 0]	n/a	catFR1	1	R1390M
1328.199	1.6	1332768	WORD	n/a	wordpools/wordpool_categorized_EN.txt	CARDINAL	Birds	8	10	[0, 0, 0]	n/a	catFR1	1	R1390M
1329.799	0.95	1334366	WORD_OFF	n/a	n/a	CARDINAL	Birds	8	10	[0, 0, 0]	n/a	catFR1	1	R1390M
1330.749	1.6	1335322	WORD	n/a	wordpools/wordpool_categorized_EN.txt	CHEESECAKE	Desserts	9	10	[0, 0, 0]	n/a	catFR1	1	R1390M
1332.349	0.9	1336920	WORD_OFF	n/a	n/a	CHEESECAKE	Desserts	9	10	[0, 0, 0]	n/a	catFR1	1	R1390M
1333.249	1.617	1337820	WORD	n/a	wordpools/wordpool_categorized_EN.txt	MOUSSE	Desserts	10	10	[0, 0, 0]	n/a	catFR1	1	R1390M
1334.866	0.948	1339437	WORD_OFF	n/a	n/a	MOUSSE	Desserts	10	10	[0, 0, 0]	n/a	catFR1	1	R1390M
1335.814	1.603	1340392	WORD	n/a	wordpools/wordpool_categorized_EN.txt	SHOVEL	Tools	11	10	[0, 0, 0]	n/a	catFR1	1	R1390M
1337.417	0.898	1341990	WORD_OFF	n/a	n/a	SHOVEL	Tools	11	10	[0, 0, 0]	n/a	catFR1	1	R1390M
1338.315	1.601	1342890	WORD	n/a	wordpools/wordpool_categorized_EN.txt	SCREWDRIVER	Tools	12	10	[0, 0, 0]	n/a	catFR1	1	R1390M
1339.916	0.001	1344489	WORD_OFF	n/a	n/a	SCREWDRIVER	Tools	12	10	[0, 0, 0]	n/a	catFR1	1	R1390M
1339.917	0.0	1344489	ENCODING_END	n/a	n/a	n/a	n/a	-999	10	[0, 0, 0]	n/a	catFR1	1	R1390M
1339.917	0.0	1344489	DISTRACT_START	n/a	n/a	n/a	n/a	-999	10	[0, 0, 0]	n/a	catFR1	1	R1390M
1339.916	0.001	1344490	PROB	0.001	n/a	n/a	n/a	-999	10	[1, 1, 4]	6	catFR1	1	R1390M
1339.917	3.299	1344491	START	n/a	n/a	n/a	n/a	-999	10	[-999, -999, -999]	n/a	catFR1	1	R1390M
1343.216	4.383	1347789	PROB	4.383	n/a	n/a	n/a	-999	10	[6, 6, 1]	13	catFR1	1	R1390M
1347.599	5.433	1352172	PROB	5.433	n/a	n/a	n/a	-999	10	[2, 4, 7]	13	catFR1	1	R1390M
1353.032	5.034	1357605	PROB	5.034	n/a	n/a	n/a	-999	10	[8, 5, 7]	20	catFR1	1	R1390M
1358.066	5.016	1362639	PROB	5.016	n/a	n/a	n/a	-999	10	[7, 8, 5]	20	catFR1	1	R1390M
1363.082	0.0	1367654	DISTRACT_END	n/a	n/a	n/a	n/a	-999	10	[0, 0, 0]	n/a	catFR1	1	R1390M
1363.082	1.4	1367654	STOP	n/a	n/a	n/a	n/a	-999	10	[-999, -999, -999]	n/a	catFR1	1	R1390M
1364.482	2.669	1369050	REC_START	n/a	n/a	n/a	n/a	-999	10	[0, 0, 0]	n/a	catFR1	1	R1390M
1367.151	2.788	1371723	REC_WORD	2.788	n/a	SHOVEL	Tools	11	10	[0, 0, 0]	n/a	catFR1	1	R1390M
1369.939	1.707	1374511	REC_WORD	1.707	n/a	HAMMER	Tools	-999	10	[0, 0, 0]	n/a	catFR1	1	R1390M
1371.646	6.575	1376218	REC_WORD	6.575	n/a	CHEESECAKE	Desserts	9	10	[0, 0, 0]	n/a	catFR1	1	R1390M
1378.221	1.089	1382793	REC_WORD	1.089	n/a	MOUSSE	Desserts	10	10	[0, 0, 0]	n/a	catFR1	1	R1390M
1379.31	7.229	1383882	REC_WORD_VV	7.229	n/a	<>	n/a	-999	10	[0, 0, 0]	n/a	catFR1	1	R1390M
1386.539	8.166	1391110	REC_WORD	8.166	n/a	SCREWDRIVER	Tools	12	10	[0, 0, 0]	n/a	catFR1	1	R1390M
1394.705	5.844	1399269	REC_END	n/a	n/a	n/a	n/a	-999	10	[0, 0, 0]	n/a	catFR1	1	R1390M
1400.549	2.067	1405129	COUNTDOWN_START	n/a	n/a	n/a	n/a	-999	11	[0, 0, 0]	n/a	catFR1	1	R1390M
1402.616	0.0	1407187	COUNTDOWN_END	n/a	n/a	n/a	n/a	-999	11	[0, 0, 0]	n/a	catFR1	1	R1390M
1402.616	1.866	1407187	ENCODING_START	n/a	n/a	n/a	n/a	-999	11	[0, 0, 0]	n/a	catFR1	1	R1390M
1404.482	1.6	1409060	WORD	n/a	wordpools/wordpool_categorized_EN.txt	WOODS	Landscapes	1	11	[0, 0, 0]	n/a	catFR1	1	R1390M
1406.082	0.8	1410659	WORD_OFF	n/a	n/a	WOODS	Landscapes	1	11	[0, 0, 0]	n/a	catFR1	1	R1390M
1406.882	1.617	1411448	WORD	n/a	wordpools/wordpool_categorized_EN.txt	BEACH	Landscapes	2	11	[0, 0, 0]	n/a	catFR1	1	R1390M
1408.499	0.9	1413065	WORD_OFF	n/a	n/a	BEACH	Landscapes	2	11	[0, 0, 0]	n/a	catFR1	1	R1390M
1409.399	1.6	1413965	WORD	n/a	wordpools/wordpool_categorized_EN.txt	SCOOTER	Vehicles	3	11	[0, 0, 0]	n/a	catFR1	1	R1390M
1410.999	0.817	1415563	WORD_OFF	n/a	n/a	SCOOTER	Vehicles	3	11	[0, 0, 0]	n/a	catFR1	1	R1390M
1411.816	1.616	1416390	WORD	n/a	wordpools/wordpool_categorized_EN.txt	BOAT	Vehicles	4	11	[0, 0, 0]	n/a	catFR1	1	R1390M
1413.432	0.8	1418007	WORD_OFF	n/a	n/a	BOAT	Vehicles	4	11	[0, 0, 0]	n/a	catFR1	1	R1390M
1414.232	1.6	1418797	WORD	n/a	wordpools/wordpool_categorized_EN.txt	NIGHTSTAND	Furniture	5	11	[0, 0, 0]	n/a	catFR1	1	R1390M
1415.832	0.884	1420395	WORD_OFF	n/a	n/a	NIGHTSTAND	Furniture	5	11	[0, 0, 0]	n/a	catFR1	1	R1390M
1416.716	1.616	1421295	WORD	n/a	wordpools/wordpool_categorized_EN.txt	COUCH	Furniture	6	11	[0, 0, 0]	n/a	catFR1	1	R1390M
1418.332	0.767	1422912	WORD_OFF	n/a	n/a	COUCH	Furniture	6	11	[0, 0, 0]	n/a	catFR1	1	R1390M
1419.099	1.6	1423665	WORD	n/a	wordpools/wordpool_categorized_EN.txt	FOREST	Landscapes	7	11	[0, 0, 0]	n/a	catFR1	1	R1390M
1420.699	0.783	1425263	WORD_OFF	n/a	n/a	FOREST	Landscapes	7	11	[0, 0, 0]	n/a	catFR1	1	R1390M
1421.482	1.6	1426053	WORD	n/a	wordpools/wordpool_categorized_EN.txt	ISLAND	Landscapes	8	11	[0, 0, 0]	n/a	catFR1	1	R1390M
1423.082	0.984	1427651	WORD_OFF	n/a	n/a	ISLAND	Landscapes	8	11	[0, 0, 0]	n/a	catFR1	1	R1390M
1424.066	1.6	1428643	WORD	n/a	wordpools/wordpool_categorized_EN.txt	BED	Furniture	9	11	[0, 0, 0]	n/a	catFR1	1	R1390M
1425.666	0.916	1430241	WORD_OFF	n/a	n/a	BED	Furniture	9	11	[0, 0, 0]	n/a	catFR1	1	R1390M
1426.582	1.6	1431160	WORD	n/a	wordpools/wordpool_categorized_EN.txt	BOOKCASE	Furniture	10	11	[0, 0, 0]	n/a	catFR1	1	R1390M
1428.182	0.933	1432758	WORD_OFF	n/a	n/a	BOOKCASE	Furniture	10	11	[0, 0, 0]	n/a	catFR1	1	R1390M
1429.115	1.6	1433677	WORD	n/a	wordpools/wordpool_categorized_EN.txt	CAR	Vehicles	11	11	[0, 0, 0]	n/a	catFR1	1	R1390M
1430.715	0.95	1435293	WORD_OFF	n/a	n/a	CAR	Vehicles	11	11	[0, 0, 0]	n/a	catFR1	1	R1390M
1431.665	1.6	1436230	WORD	n/a	wordpools/wordpool_categorized_EN.txt	MOTORCYCLE	Vehicles	12	11	[0, 0, 0]	n/a	catFR1	1	R1390M
1433.265	0.002	1437828	WORD_OFF	n/a	n/a	MOTORCYCLE	Vehicles	12	11	[0, 0, 0]	n/a	catFR1	1	R1390M
1433.267	0.0	1437828	ENCODING_END	n/a	n/a	n/a	n/a	-999	11	[0, 0, 0]	n/a	catFR1	1	R1390M
1433.266	0.001	1437835	PROB	0.001	n/a	n/a	n/a	-999	11	[4, 7, 7]	18	catFR1	1	R1390M
1433.267	0.0	1437836	START	n/a	n/a	n/a	n/a	-999	11	[-999, -999, -999]	n/a	catFR1	1	R1390M
1433.267	7.082	1437847	DISTRACT_START	n/a	n/a	n/a	n/a	-999	11	[0, 0, 0]	n/a	catFR1	1	R1390M
1440.349	5.0	1444918	PROB	5.0	n/a	n/a	n/a	-999	11	[7, 6, 5]	16	catFR1	1	R1390M
1445.349	6.533	1449917	PROB	6.533	n/a	n/a	n/a	-999	11	[7, 3, 1]	11	catFR1	1	R1390M
1451.882	6.834	1456450	PROB	6.834	n/a	n/a	n/a	-999	11	[1, 3, 6]	10	catFR1	1	R1390M
1458.716	0.0	1463284	STOP	n/a	n/a	n/a	n/a	-999	11	[-999, -999, -999]	n/a	catFR1	1	R1390M
1458.716	1.2	1463290	DISTRACT_END	n/a	n/a	n/a	n/a	-999	11	[0, 0, 0]	n/a	catFR1	1	R1390M
1459.916	3.265	1464484	REC_START	n/a	n/a	n/a	n/a	-999	11	[0, 0, 0]	n/a	catFR1	1	R1390M
1463.181	0.903	1467748	REC_WORD	0.903	n/a	BEACH	Landscapes	2	11	[0, 0, 0]	n/a	catFR1	1	R1390M
1464.084	0.913	1468651	REC_WORD	0.913	n/a	WOODS	Landscapes	1	11	[0, 0, 0]	n/a	catFR1	1	R1390M
1464.997	1.199	1469564	REC_WORD	1.199	n/a	FOREST	Landscapes	7	11	[0, 0, 0]	n/a	catFR1	1	R1390M
1466.196	1.905	1470763	REC_WORD	1.905	n/a	ISLAND	Landscapes	8	11	[0, 0, 0]	n/a	catFR1	1	R1390M
1468.101	1.14	1472668	REC_WORD	1.14	n/a	BED	Furniture	9	11	[0, 0, 0]	n/a	catFR1	1	R1390M
1469.241	2.197	1473808	REC_WORD	2.197	n/a	NIGHTSTAND	Furniture	5	11	[0, 0, 0]	n/a	catFR1	1	R1390M
1471.438	7.446	1476005	REC_WORD	7.446	n/a	COUCH	Furniture	6	11	[0, 0, 0]	n/a	catFR1	1	R1390M
1478.884	8.132	1483451	REC_WORD	8.132	n/a	CABINET	Furniture	-999	11	[0, 0, 0]	n/a	catFR1	1	R1390M
1487.016	3.135	1491582	REC_WORD_VV	3.135	n/a	<>	n/a	-999	11	[0, 0, 0]	n/a	catFR1	1	R1390M
1490.151	12.948	1494721	REC_END	n/a	n/a	n/a	n/a	-999	11	[0, 0, 0]	n/a	catFR1	1	R1390M
1503.099	8.184	1507672	COUNTDOWN_START	n/a	n/a	n/a	n/a	-999	12	[0, 0, 0]	n/a	catFR1	1	R1390M
1511.283	0.0	1515847	COUNTDOWN_END	n/a	n/a	n/a	n/a	-999	12	[0, 0, 0]	n/a	catFR1	1	R1390M
1511.283	2.066	1515847	ENCODING_START	n/a	n/a	n/a	n/a	-999	12	[0, 0, 0]	n/a	catFR1	1	R1390M
1513.349	1.616	1517923	WORD	n/a	wordpools/wordpool_categorized_EN.txt	DOVE	Birds	1	12	[0, 0, 0]	n/a	catFR1	1	R1390M
1514.965	0.9	1519540	WORD_OFF	n/a	n/a	DOVE	Birds	1	12	[0, 0, 0]	n/a	catFR1	1	R1390M
1515.865	1.6	1520440	WORD	n/a	wordpools/wordpool_categorized_EN.txt	HAWK	Birds	2	12	[0, 0, 0]	n/a	catFR1	1	R1390M
1517.465	0.8	1522038	WORD_OFF	n/a	n/a	HAWK	Birds	2	12	[0, 0, 0]	n/a	catFR1	1	R1390M
1518.265	1.6	1522828	WORD	n/a	wordpools/wordpool_categorized_EN.txt	DOLPHIN	Oceananimals	3	12	[0, 0, 0]	n/a	catFR1	1	R1390M
1519.865	0.867	1524426	WORD_OFF	n/a	n/a	DOLPHIN	Oceananimals	3	12	[0, 0, 0]	n/a	catFR1	1	R1390M
1520.732	1.617	1525290	WORD	n/a	wordpools/wordpool_categorized_EN.txt	SQUID	Oceananimals	4	12	[0, 0, 0]	n/a	catFR1	1	R1390M
1522.349	0.766	1526906	WORD_OFF	n/a	n/a	SQUID	Oceananimals	4	12	[0, 0, 0]	n/a	catFR1	1	R1390M
1523.115	1.6	1527678	WORD	n/a	wordpools/wordpool_categorized_EN.txt	BROWNIES	Desserts	5	12	[0, 0, 0]	n/a	catFR1	1	R1390M
1524.715	1.0	1529276	WORD_OFF	n/a	n/a	BROWNIES	Desserts	5	12	[0, 0, 0]	n/a	catFR1	1	R1390M
1525.715	1.617	1530286	WORD	n/a	wordpools/wordpool_categorized_EN.txt	COBBLER	Desserts	6	12	[0, 0, 0]	n/a	catFR1	1	R1390M
1527.332	0.766	1531903	WORD_OFF	n/a	n/a	COBBLER	Desserts	6	12	[0, 0, 0]	n/a	catFR1	1	R1390M
1528.098	1.6	1532656	WORD	n/a	wordpools/wordpool_categorized_EN.txt	DUCK	Birds	7	12	[0, 0, 0]	n/a	catFR1	1	R1390M
1529.698	0.85	1534273	WORD_OFF	n/a	n/a	DUCK	Birds	7	12	[0, 0, 0]	n/a	catFR1	1	R1390M
1530.548	1.617	1535118	WORD	n/a	wordpools/wordpool_categorized_EN.txt	ROBIN	Birds	8	12	[0, 0, 0]	n/a	catFR1	1	R1390M
1532.165	0.866	1536734	WORD_OFF	n/a	n/a	ROBIN	Birds	8	12	[0, 0, 0]	n/a	catFR1	1	R1390M
1533.031	1.617	1537598	WORD	n/a	wordpools/wordpool_categorized_EN.txt	PIE	Desserts	9	12	[0, 0, 0]	n/a	catFR1	1	R1390M
1534.648	0.967	1539214	WORD_OFF	n/a	n/a	PIE	Desserts	9	12	[0, 0, 0]	n/a	catFR1	1	R1390M
1535.615	1.616	1540188	WORD	n/a	wordpools/wordpool_categorized_EN.txt	COOKIE	Desserts	10	12	[0, 0, 0]	n/a	catFR1	1	R1390M
1537.231	0.984	1541804	WORD_OFF	n/a	n/a	COOKIE	Desserts	10	12	[0, 0, 0]	n/a	catFR1	1	R1390M
1538.215	1.6	1542778	WORD	n/a	wordpools/wordpool_categorized_EN.txt	JELLYFISH	Oceananimals	11	12	[0, 0, 0]	n/a	catFR1	1	R1390M
1539.815	0.867	1544376	WORD_OFF	n/a	n/a	JELLYFISH	Oceananimals	11	12	[0, 0, 0]	n/a	catFR1	1	R1390M
1540.682	1.617	1545240	WORD	n/a	wordpools/wordpool_categorized_EN.txt	WHALE	Oceananimals	12	12	[0, 0, 0]	n/a	catFR1	1	R1390M
1542.299	0.001	1546856	WORD_OFF	n/a	n/a	WHALE	Oceananimals	12	12	[0, 0, 0]	n/a	catFR1	1	R1390M
1542.3	0.0	1546856	ENCODING_END	n/a	n/a	n/a	n/a	-999	12	[0, 0, 0]	n/a	catFR1	1	R1390M
1542.299	0.002	1546863	PROB	0.002	n/a	n/a	n/a	-999	12	[7, 1, 8]	16	catFR1	1	R1390M
1542.301	0.0	1546865	START	n/a	n/a	n/a	n/a	-999	12	[-999, -999, -999]	n/a	catFR1	1	R1390M
1542.301	4.766	1546875	DISTRACT_START	n/a	n/a	n/a	n/a	-999	12	[0, 0, 0]	n/a	catFR1	1	R1390M
1547.067	5.266	1551630	PROB	5.266	n/a	n/a	n/a	-999	12	[8, 1, 7]	16	catFR1	1	R1390M
1552.333	6.716	1556896	PROB	6.716	n/a	n/a	n/a	-999	12	[5, 6, 3]	14	catFR1	1	R1390M
1559.049	4.616	1563612	PROB	4.616	n/a	n/a	n/a	-999	12	[1, 6, 7]	14	catFR1	1	R1390M
1563.665	0.0	1568221	DISTRACT_END	n/a	n/a	n/a	n/a	-999	12	[0, 0, 0]	n/a	catFR1	1	R1390M
1563.665	1.067	1568227	STOP	n/a	n/a	n/a	n/a	-999	12	[-999, -999, -999]	n/a	catFR1	1	R1390M
1564.732	3.573	1569286	REC_START	n/a	n/a	n/a	n/a	-999	12	[0, 0, 0]	n/a	catFR1	1	R1390M
1568.305	1.229	1572867	REC_WORD	1.229	n/a	DOLPHIN	Oceananimals	3	12	[0, 0, 0]	n/a	catFR1	1	R1390M
1569.534	1.164	1574096	REC_WORD	1.164	n/a	DOVE	Birds	1	12	[0, 0, 0]	n/a	catFR1	1	R1390M
1570.698	24.274	1575260	REC_WORD	24.274	n/a	SQUID	Oceananimals	4	12	[0, 0, 0]	n/a	catFR1	1	R1390M
1594.972	0.0	1599542	REC_END	n/a	n/a	n/a	n/a	-999	12	[0, 0, 0]	n/a	catFR1	1	R1390M
