onset	duration	sample	trial_type	response_time	stim_file	item_name	category	serialpos	list	test	answer	experiment	session	subject
0.0	3.284	2357	INSTRUCT_START	n/a	n/a	n/a	n/a	-999	-999	[0, 0, 0]	n/a	catFR1	0	R1426N
3.284	4.083	5635	INSTRUCT_END	n/a	n/a	n/a	n/a	-999	-999	[0, 0, 0]	n/a	catFR1	0	R1426N
7.367	164.766	9718	INSTRUCT_START	n/a	n/a	n/a	n/a	-999	-999	[0, 0, 0]	n/a	catFR1	0	R1426N
172.133	37.383	174476	INSTRUCT_END	n/a	n/a	n/a	n/a	-999	-999	[0, 0, 0]	n/a	catFR1	0	R1426N
209.516	10.45	211870	COUNTDOWN_START	n/a	n/a	n/a	n/a	-999	-999	[0, 0, 0]	n/a	catFR1	0	R1426N
219.966	0.0	222322	COUNTDOWN_END	n/a	n/a	n/a	n/a	-999	-999	[0, 0, 0]	n/a	catFR1	0	R1426N
219.966	2.049	222322	ENCODING_START	n/a	n/a	n/a	n/a	-999	-1	[0, 0, 0]	n/a	catFR1	0	R1426N
222.015	1.602	224364	WORD	n/a	n/a	TONGS	KitchenTools	1	-1	[0, 0, 0]	n/a	catFR1	0	R1426N
223.617	0.899	225960	WORD_OFF	n/a	n/a	TONGS	KitchenTools	1	-1	[0, 0, 0]	n/a	catFR1	0	R1426N
224.516	1.601	226865	WORD	n/a	n/a	FORK	KitchenTools	2	-1	[0, 0, 0]	n/a	catFR1	0	R1426N
226.117	0.831	228461	WORD_OFF	n/a	n/a	FORK	KitchenTools	2	-1	[0, 0, 0]	n/a	catFR1	0	R1426N
226.948	1.617	229295	WORD	n/a	n/a	MARKER	OfficeSupplies	3	-1	[0, 0, 0]	n/a	catFR1	0	R1426N
228.565	1.0	230920	WORD_OFF	n/a	n/a	MARKER	OfficeSupplies	3	-1	[0, 0, 0]	n/a	catFR1	0	R1426N
229.565	1.617	231912	WORD	n/a	n/a	PEN	OfficeSupplies	4	-1	[0, 0, 0]	n/a	catFR1	0	R1426N
231.182	0.784	233536	WORD_OFF	n/a	n/a	PEN	OfficeSupplies	4	-1	[0, 0, 0]	n/a	catFR1	0	R1426N
231.966	1.6	234313	WORD	n/a	n/a	SAW	Tools	5	-1	[0, 0, 0]	n/a	catFR1	0	R1426N
233.566	0.9	235908	WORD_OFF	n/a	n/a	SAW	Tools	5	-1	[0, 0, 0]	n/a	catFR1	0	R1426N
234.466	1.616	236814	WORD	n/a	n/a	LEVEL	Tools	6	-1	[0, 0, 0]	n/a	catFR1	0	R1426N
236.082	1.0	238424	WORD_OFF	n/a	n/a	LEVEL	Tools	6	-1	[0, 0, 0]	n/a	catFR1	0	R1426N
237.082	1.616	239431	WORD	n/a	n/a	SPATULA	KitchenTools	7	-1	[0, 0, 0]	n/a	catFR1	0	R1426N
238.698	0.934	241041	WORD_OFF	n/a	n/a	SPATULA	KitchenTools	7	-1	[0, 0, 0]	n/a	catFR1	0	R1426N
239.632	1.617	241975	WORD	n/a	n/a	WHISK	KitchenTools	8	-1	[0, 0, 0]	n/a	catFR1	0	R1426N
241.249	0.966	243600	WORD_OFF	n/a	n/a	WHISK	KitchenTools	8	-1	[0, 0, 0]	n/a	catFR1	0	R1426N
242.215	1.601	244563	WORD	n/a	n/a	BINDER	OfficeSupplies	9	-1	[0, 0, 0]	n/a	catFR1	0	R1426N
243.816	0.801	246159	WORD_OFF	n/a	n/a	BINDER	OfficeSupplies	9	-1	[0, 0, 0]	n/a	catFR1	0	R1426N
244.617	1.615	246964	WORD	n/a	n/a	PAPER	OfficeSupplies	10	-1	[0, 0, 0]	n/a	catFR1	0	R1426N
246.232	0.8	248574	WORD_OFF	n/a	n/a	PAPER	OfficeSupplies	10	-1	[0, 0, 0]	n/a	catFR1	0	R1426N
247.032	1.6	249379	WORD	n/a	n/a	PLIERS	Tools	11	-1	[0, 0, 0]	n/a	catFR1	0	R1426N
248.632	0.8	250975	WORD_OFF	n/a	n/a	PLIERS	Tools	11	-1	[0, 0, 0]	n/a	catFR1	0	R1426N
249.432	1.617	251780	WORD	n/a	n/a	SANDER	Tools	12	-1	[0, 0, 0]	n/a	catFR1	0	R1426N
251.049	0.001	253391	WORD_OFF	n/a	n/a	SANDER	Tools	12	-1	[0, 0, 0]	n/a	catFR1	0	R1426N
251.05	0.001	253401	PROB	0.001	n/a	n/a	n/a	-999	-1	[8, 1, 2]	11	catFR1	0	R1426N
251.051	0.0	253402	START	n/a	n/a	n/a	n/a	-999	-1	[-999, -999, -999]	n/a	catFR1	0	R1426N
251.051	0.0	253405	ENCODING_END	n/a	n/a	n/a	n/a	-999	-1	[0, 0, 0]	n/a	catFR1	0	R1426N
251.051	3.848	253405	DISTRACT_START	n/a	n/a	n/a	n/a	-999	-1	[0, 0, 0]	n/a	catFR1	0	R1426N
254.899	2.334	257250	PROB	2.334	n/a	n/a	n/a	-999	-1	[1, 4, 5]	10	catFR1	0	R1426N
257.233	2.083	259584	PROB	2.083	n/a	n/a	n/a	-999	-1	[6, 6, 1]	13	catFR1	0	R1426N
259.316	2.284	261667	PROB	2.284	n/a	n/a	n/a	-999	-1	[7, 5, 8]	20	catFR1	0	R1426N
261.6	5.466	263951	PROB	5.466	n/a	n/a	n/a	-999	-1	[7, 6, 5]	19	catFR1	0	R1426N
267.066	3.817	269416	PROB	3.817	n/a	n/a	n/a	-999	-1	[3, 2, 5]	10	catFR1	0	R1426N
270.883	3.116	273233	PROB	3.116	n/a	n/a	n/a	-999	-1	[3, 6, 5]	14	catFR1	0	R1426N
273.999	0.0	276349	STOP	n/a	n/a	n/a	n/a	-999	-1	[-999, -999, -999]	n/a	catFR1	0	R1426N
273.999	1.016	276350	DISTRACT_END	n/a	n/a	n/a	n/a	-999	-1	[0, 0, 0]	n/a	catFR1	0	R1426N
275.015	0.264	277357	REC_START	n/a	n/a	n/a	n/a	-999	-1	[0, 0, 0]	n/a	catFR1	0	R1426N
275.279	0.818	277629	REC_WORD_VV	0.818	n/a	<>	n/a	-999	-1	[0, 0, 0]	n/a	catFR1	0	R1426N
276.097	2.025	278447	REC_WORD	2.025	n/a	FORK	KitchenTools	2	-1	[0, 0, 0]	n/a	catFR1	0	R1426N
278.122	1.656	280472	REC_WORD	1.656	n/a	MARKER	OfficeSupplies	3	-1	[0, 0, 0]	n/a	catFR1	0	R1426N
279.778	26.457	282128	REC_WORD	26.457	n/a	MICROSOFT	n/a	-999	-1	[0, 0, 0]	n/a	catFR1	0	R1426N
306.235	10.781	308583	REC_END	n/a	n/a	n/a	n/a	-999	-1	[0, 0, 0]	n/a	catFR1	0	R1426N
317.016	10.35	319366	COUNTDOWN_START	n/a	n/a	n/a	n/a	-999	1	[0, 0, 0]	n/a	catFR1	0	R1426N
327.366	0.0	329717	COUNTDOWN_END	n/a	n/a	n/a	n/a	-999	1	[0, 0, 0]	n/a	catFR1	0	R1426N
327.366	2.216	329717	ENCODING_START	n/a	n/a	n/a	n/a	-999	1	[0, 0, 0]	n/a	catFR1	0	R1426N
329.582	1.617	331931	WORD	n/a	wordpools/wordpool_categorized_EN.txt	THUNDERSTORM	Weather	1	1	[0, 0, 0]	n/a	catFR1	0	R1426N
331.199	0.8	333541	WORD_OFF	n/a	n/a	THUNDERSTORM	Weather	1	1	[0, 0, 0]	n/a	catFR1	0	R1426N
331.999	1.6	334346	WORD	n/a	wordpools/wordpool_categorized_EN.txt	FOG	Weather	2	1	[0, 0, 0]	n/a	catFR1	0	R1426N
333.599	0.916	335942	WORD_OFF	n/a	n/a	FOG	Weather	2	1	[0, 0, 0]	n/a	catFR1	0	R1426N
334.515	1.601	336862	WORD	n/a	wordpools/wordpool_categorized_EN.txt	CARNATION	Flowers	3	1	[0, 0, 0]	n/a	catFR1	0	R1426N
336.116	0.9	338458	WORD_OFF	n/a	n/a	CARNATION	Flowers	3	1	[0, 0, 0]	n/a	catFR1	0	R1426N
337.016	1.6	339364	WORD	n/a	wordpools/wordpool_categorized_EN.txt	DAISY	Flowers	4	1	[0, 0, 0]	n/a	catFR1	0	R1426N
338.616	0.933	340960	WORD_OFF	n/a	n/a	DAISY	Flowers	4	1	[0, 0, 0]	n/a	catFR1	0	R1426N
339.549	1.617	341894	WORD	n/a	wordpools/wordpool_categorized_EN.txt	FOUNDATION	Building	5	1	[0, 0, 0]	n/a	catFR1	0	R1426N
341.166	0.95	343504	WORD_OFF	n/a	n/a	FOUNDATION	Building	5	1	[0, 0, 0]	n/a	catFR1	0	R1426N
342.116	1.616	344468	WORD	n/a	wordpools/wordpool_categorized_EN.txt	ROOF	Building	6	1	[0, 0, 0]	n/a	catFR1	0	R1426N
343.732	0.917	346078	WORD_OFF	n/a	n/a	ROOF	Building	6	1	[0, 0, 0]	n/a	catFR1	0	R1426N
344.649	1.6	346998	WORD	n/a	wordpools/wordpool_categorized_EN.txt	SNOW	Weather	7	1	[0, 0, 0]	n/a	catFR1	0	R1426N
346.249	0.917	348594	WORD_OFF	n/a	n/a	SNOW	Weather	7	1	[0, 0, 0]	n/a	catFR1	0	R1426N
347.166	1.616	349514	WORD	n/a	wordpools/wordpool_categorized_EN.txt	LIGHTNING	Weather	8	1	[0, 0, 0]	n/a	catFR1	0	R1426N
348.782	0.916	351124	WORD_OFF	n/a	n/a	LIGHTNING	Weather	8	1	[0, 0, 0]	n/a	catFR1	0	R1426N
349.698	1.601	352044	WORD	n/a	wordpools/wordpool_categorized_EN.txt	MARIGOLD	Flowers	9	1	[0, 0, 0]	n/a	catFR1	0	R1426N
351.299	0.8	353640	WORD_OFF	n/a	n/a	MARIGOLD	Flowers	9	1	[0, 0, 0]	n/a	catFR1	0	R1426N
352.099	1.617	354445	WORD	n/a	wordpools/wordpool_categorized_EN.txt	TULIP	Flowers	10	1	[0, 0, 0]	n/a	catFR1	0	R1426N
353.716	0.983	356055	WORD_OFF	n/a	n/a	TULIP	Flowers	10	1	[0, 0, 0]	n/a	catFR1	0	R1426N
354.699	1.617	357047	WORD	n/a	wordpools/wordpool_categorized_EN.txt	DOOR	Building	11	1	[0, 0, 0]	n/a	catFR1	0	R1426N
356.316	0.866	358658	WORD_OFF	n/a	n/a	DOOR	Building	11	1	[0, 0, 0]	n/a	catFR1	0	R1426N
357.182	1.617	359535	WORD	n/a	wordpools/wordpool_categorized_EN.txt	ATTIC	Building	12	1	[0, 0, 0]	n/a	catFR1	0	R1426N
358.799	0.002	361145	WORD_OFF	n/a	n/a	ATTIC	Building	12	1	[0, 0, 0]	n/a	catFR1	0	R1426N
358.801	0.0	361145	ENCODING_END	n/a	n/a	n/a	n/a	-999	1	[0, 0, 0]	n/a	catFR1	0	R1426N
358.801	0.0	361145	DISTRACT_START	n/a	n/a	n/a	n/a	-999	1	[0, 0, 0]	n/a	catFR1	0	R1426N
358.799	0.002	361147	PROB	0.002	n/a	n/a	n/a	-999	1	[2, 4, 2]	8	catFR1	0	R1426N
358.801	3.898	361149	START	n/a	n/a	n/a	n/a	-999	1	[-999, -999, -999]	n/a	catFR1	0	R1426N
362.699	2.75	365047	PROB	2.75	n/a	n/a	n/a	-999	1	[8, 3, 4]	15	catFR1	0	R1426N
365.449	2.701	367797	PROB	2.701	n/a	n/a	n/a	-999	1	[8, 8, 3]	19	catFR1	0	R1426N
368.15	2.25	370498	PROB	2.25	n/a	n/a	n/a	-999	1	[6, 3, 6]	15	catFR1	0	R1426N
370.4	3.382	372747	PROB	3.382	n/a	n/a	n/a	-999	1	[5, 6, 7]	18	catFR1	0	R1426N
373.782	1.967	376129	PROB	1.967	n/a	n/a	n/a	-999	1	[3, 3, 6]	12	catFR1	0	R1426N
375.749	2.333	378096	PROB	2.333	n/a	n/a	n/a	-999	1	[3, 2, 2]	7	catFR1	0	R1426N
378.082	2.583	380429	PROB	2.583	n/a	n/a	n/a	-999	1	[5, 4, 4]	13	catFR1	0	R1426N
380.665	0.0	383012	DISTRACT_END	n/a	n/a	n/a	n/a	-999	1	[0, 0, 0]	n/a	catFR1	0	R1426N
380.665	1.05	383012	STOP	n/a	n/a	n/a	n/a	-999	1	[-999, -999, -999]	n/a	catFR1	0	R1426N
381.715	0.382	384061	REC_START	n/a	n/a	n/a	n/a	-999	1	[0, 0, 0]	n/a	catFR1	0	R1426N
382.097	1.085	384444	REC_WORD	1.085	n/a	DAISY	Flowers	4	1	[0, 0, 0]	n/a	catFR1	0	R1426N
383.182	1.708	385529	REC_WORD	1.708	n/a	FOUNDATION	Building	5	1	[0, 0, 0]	n/a	catFR1	0	R1426N
384.89	1.022	387237	REC_WORD	1.022	n/a	NEWS	n/a	-999	1	[0, 0, 0]	n/a	catFR1	0	R1426N
385.912	1.511	388259	REC_WORD	1.511	n/a	STORM	n/a	-999	1	[0, 0, 0]	n/a	catFR1	0	R1426N
387.423	1.916	389770	REC_WORD	1.916	n/a	LIGHTNING	Weather	8	1	[0, 0, 0]	n/a	catFR1	0	R1426N
389.339	5.773	391686	REC_WORD	5.773	n/a	THUNDER	n/a	-999	1	[0, 0, 0]	n/a	catFR1	0	R1426N
395.112	17.859	397459	REC_WORD	17.859	n/a	STORM	n/a	-999	1	[0, 0, 0]	n/a	catFR1	0	R1426N
412.971	4.127	415316	REC_END	n/a	n/a	n/a	n/a	-999	1	[0, 0, 0]	n/a	catFR1	0	R1426N
417.098	10.352	419443	COUNTDOWN_START	n/a	n/a	n/a	n/a	-999	1	[0, 0, 0]	n/a	catFR1	0	R1426N
427.45	0.0	429794	COUNTDOWN_END	n/a	n/a	n/a	n/a	-999	1	[0, 0, 0]	n/a	catFR1	0	R1426N
427.45	1.999	429794	ENCODING_START	n/a	n/a	n/a	n/a	-999	2	[0, 0, 0]	n/a	catFR1	0	R1426N
429.449	1.6	431792	WORD	n/a	wordpools/wordpool_categorized_EN.txt	HEN	FarmAnimals	1	2	[0, 0, 0]	n/a	catFR1	0	R1426N
431.049	0.783	433388	WORD_OFF	n/a	n/a	HEN	FarmAnimals	1	2	[0, 0, 0]	n/a	catFR1	0	R1426N
431.832	1.617	434179	WORD	n/a	wordpools/wordpool_categorized_EN.txt	CHICKEN	FarmAnimals	2	2	[0, 0, 0]	n/a	catFR1	0	R1426N
433.449	0.866	435789	WORD_OFF	n/a	n/a	CHICKEN	FarmAnimals	2	2	[0, 0, 0]	n/a	catFR1	0	R1426N
434.315	1.601	436652	WORD	n/a	wordpools/wordpool_categorized_EN.txt	SPRUCE	Trees	3	2	[0, 0, 0]	n/a	catFR1	0	R1426N
435.916	0.833	438262	WORD_OFF	n/a	n/a	SPRUCE	Trees	3	2	[0, 0, 0]	n/a	catFR1	0	R1426N
436.749	1.6	439096	WORD	n/a	wordpools/wordpool_categorized_EN.txt	OAK	Trees	4	2	[0, 0, 0]	n/a	catFR1	0	R1426N
438.349	0.833	440692	WORD_OFF	n/a	n/a	OAK	Trees	4	2	[0, 0, 0]	n/a	catFR1	0	R1426N
439.182	1.617	441525	WORD	n/a	wordpools/wordpool_categorized_EN.txt	CAR	Vehicles	5	2	[0, 0, 0]	n/a	catFR1	0	R1426N
440.799	1.0	443136	WORD_OFF	n/a	n/a	CAR	Vehicles	5	2	[0, 0, 0]	n/a	catFR1	0	R1426N
441.799	1.6	444142	WORD	n/a	wordpools/wordpool_categorized_EN.txt	BUS	Vehicles	6	2	[0, 0, 0]	n/a	catFR1	0	R1426N
443.399	0.95	445752	WORD_OFF	n/a	n/a	BUS	Vehicles	6	2	[0, 0, 0]	n/a	catFR1	0	R1426N
444.349	1.617	446687	WORD	n/a	wordpools/wordpool_categorized_EN.txt	HORSE	FarmAnimals	7	2	[0, 0, 0]	n/a	catFR1	0	R1426N
445.966	0.883	448311	WORD_OFF	n/a	n/a	HORSE	FarmAnimals	7	2	[0, 0, 0]	n/a	catFR1	0	R1426N
446.849	1.617	449188	WORD	n/a	wordpools/wordpool_categorized_EN.txt	TURKEY	FarmAnimals	8	2	[0, 0, 0]	n/a	catFR1	0	R1426N
448.466	0.9	450813	WORD_OFF	n/a	n/a	TURKEY	FarmAnimals	8	2	[0, 0, 0]	n/a	catFR1	0	R1426N
449.366	1.616	451704	WORD	n/a	wordpools/wordpool_categorized_EN.txt	VAN	Vehicles	9	2	[0, 0, 0]	n/a	catFR1	0	R1426N
450.982	0.95	453329	WORD_OFF	n/a	n/a	VAN	Vehicles	9	2	[0, 0, 0]	n/a	catFR1	0	R1426N
451.932	1.6	454278	WORD	n/a	wordpools/wordpool_categorized_EN.txt	TRAIN	Vehicles	10	2	[0, 0, 0]	n/a	catFR1	0	R1426N
453.532	0.917	455873	WORD_OFF	n/a	n/a	TRAIN	Vehicles	10	2	[0, 0, 0]	n/a	catFR1	0	R1426N
454.449	1.617	456794	WORD	n/a	wordpools/wordpool_categorized_EN.txt	WALNUT	Trees	11	2	[0, 0, 0]	n/a	catFR1	0	R1426N
456.066	0.783	458404	WORD_OFF	n/a	n/a	WALNUT	Trees	11	2	[0, 0, 0]	n/a	catFR1	0	R1426N
456.849	1.6	459194	WORD	n/a	wordpools/wordpool_categorized_EN.txt	PINE	Trees	12	2	[0, 0, 0]	n/a	catFR1	0	R1426N
458.449	0.002	460790	WORD_OFF	n/a	n/a	PINE	Trees	12	2	[0, 0, 0]	n/a	catFR1	0	R1426N
458.451	0.0	460790	ENCODING_END	n/a	n/a	n/a	n/a	-999	2	[0, 0, 0]	n/a	catFR1	0	R1426N
458.451	0.0	460790	DISTRACT_START	n/a	n/a	n/a	n/a	-999	2	[0, 0, 0]	n/a	catFR1	0	R1426N
458.45	0.001	460795	PROB	0.001	n/a	n/a	n/a	-999	2	[6, 8, 4]	18	catFR1	0	R1426N
458.451	6.832	460796	START	n/a	n/a	n/a	n/a	-999	2	[-999, -999, -999]	n/a	catFR1	0	R1426N
465.283	4.117	467628	PROB	4.117	n/a	n/a	n/a	-999	2	[8, 8, 2]	18	catFR1	0	R1426N
469.4	2.466	471745	PROB	2.466	n/a	n/a	n/a	-999	2	[1, 5, 4]	10	catFR1	0	R1426N
471.866	4.316	474210	PROB	4.316	n/a	n/a	n/a	-999	2	[3, 5, 6]	14	catFR1	0	R1426N
476.182	1.934	478526	PROB	1.934	n/a	n/a	n/a	-999	2	[1, 4, 1]	6	catFR1	0	R1426N
478.116	3.032	480460	PROB	3.032	n/a	n/a	n/a	-999	2	[3, 6, 5]	14	catFR1	0	R1426N
481.148	0.0	483491	DISTRACT_END	n/a	n/a	n/a	n/a	-999	2	[0, 0, 0]	n/a	catFR1	0	R1426N
481.148	1.201	483492	STOP	n/a	n/a	n/a	n/a	-999	2	[-999, -999, -999]	n/a	catFR1	0	R1426N
482.349	0.528	484684	REC_START	n/a	n/a	n/a	n/a	-999	2	[0, 0, 0]	n/a	catFR1	0	R1426N
482.877	3.564	485221	REC_WORD	3.564	n/a	PINE	Trees	12	2	[0, 0, 0]	n/a	catFR1	0	R1426N
486.441	1.065	488785	REC_WORD	1.065	n/a	WALNUT	Trees	11	2	[0, 0, 0]	n/a	catFR1	0	R1426N
487.506	3.984	489850	REC_WORD	3.984	n/a	OAK	Trees	4	2	[0, 0, 0]	n/a	catFR1	0	R1426N
491.49	1.173	493834	REC_WORD	1.173	n/a	VAN	Vehicles	9	2	[0, 0, 0]	n/a	catFR1	0	R1426N
492.663	2.145	495007	REC_WORD	2.145	n/a	CAR	Vehicles	5	2	[0, 0, 0]	n/a	catFR1	0	R1426N
494.808	3.699	497152	REC_WORD	3.699	n/a	MOTORCYCLE	n/a	-999	2	[0, 0, 0]	n/a	catFR1	0	R1426N
498.507	1.39	500851	REC_WORD	1.39	n/a	TRUCK	n/a	-999	2	[0, 0, 0]	n/a	catFR1	0	R1426N
499.897	2.109	502241	REC_WORD	2.109	n/a	ROAD	n/a	-999	2	[0, 0, 0]	n/a	catFR1	0	R1426N
502.006	11.568	504350	REC_WORD	11.568	n/a	OAK	Trees	4	2	[0, 0, 0]	n/a	catFR1	0	R1426N
513.574	3.824	515911	REC_END	n/a	n/a	n/a	n/a	-999	2	[0, 0, 0]	n/a	catFR1	0	R1426N
517.398	10.352	519735	COUNTDOWN_START	n/a	n/a	n/a	n/a	-999	2	[0, 0, 0]	n/a	catFR1	0	R1426N
527.75	0.0	530086	COUNTDOWN_END	n/a	n/a	n/a	n/a	-999	2	[0, 0, 0]	n/a	catFR1	0	R1426N
527.75	2.199	530086	ENCODING_START	n/a	n/a	n/a	n/a	-999	3	[0, 0, 0]	n/a	catFR1	0	R1426N
529.949	1.617	532286	WORD	n/a	wordpools/wordpool_categorized_EN.txt	FREEZER	Appliances	1	3	[0, 0, 0]	n/a	catFR1	0	R1426N
531.566	0.916	533911	WORD_OFF	n/a	n/a	FREEZER	Appliances	1	3	[0, 0, 0]	n/a	catFR1	0	R1426N
532.482	1.617	534816	WORD	n/a	wordpools/wordpool_categorized_EN.txt	WASHER	Appliances	2	3	[0, 0, 0]	n/a	catFR1	0	R1426N
534.099	0.95	536441	WORD_OFF	n/a	n/a	WASHER	Appliances	2	3	[0, 0, 0]	n/a	catFR1	0	R1426N
535.049	1.6	537390	WORD	n/a	wordpools/wordpool_categorized_EN.txt	GLUE	OfficeSupplies	3	3	[0, 0, 0]	n/a	catFR1	0	R1426N
536.649	1.0	538986	WORD_OFF	n/a	n/a	GLUE	OfficeSupplies	3	3	[0, 0, 0]	n/a	catFR1	0	R1426N
537.649	1.6	539992	WORD	n/a	wordpools/wordpool_categorized_EN.txt	FOLDER	OfficeSupplies	4	3	[0, 0, 0]	n/a	catFR1	0	R1426N
539.249	0.933	541588	WORD_OFF	n/a	n/a	FOLDER	OfficeSupplies	4	3	[0, 0, 0]	n/a	catFR1	0	R1426N
540.182	1.602	542522	WORD	n/a	wordpools/wordpool_categorized_EN.txt	ROSE	Flowers	5	3	[0, 0, 0]	n/a	catFR1	0	R1426N
541.784	0.999	544118	WORD_OFF	n/a	n/a	ROSE	Flowers	5	3	[0, 0, 0]	n/a	catFR1	0	R1426N
542.783	1.599	545125	WORD	n/a	wordpools/wordpool_categorized_EN.txt	LILAC	Flowers	6	3	[0, 0, 0]	n/a	catFR1	0	R1426N
544.382	0.984	546720	WORD_OFF	n/a	n/a	LILAC	Flowers	6	3	[0, 0, 0]	n/a	catFR1	0	R1426N
545.366	1.6	547712	WORD	n/a	wordpools/wordpool_categorized_EN.txt	MIXER	Appliances	7	3	[0, 0, 0]	n/a	catFR1	0	R1426N
546.966	0.818	549308	WORD_OFF	n/a	n/a	MIXER	Appliances	7	3	[0, 0, 0]	n/a	catFR1	0	R1426N
547.784	1.598	550128	WORD	n/a	wordpools/wordpool_categorized_EN.txt	VACUUM	Appliances	8	3	[0, 0, 0]	n/a	catFR1	0	R1426N
549.382	0.867	551724	WORD_OFF	n/a	n/a	VACUUM	Appliances	8	3	[0, 0, 0]	n/a	catFR1	0	R1426N
550.249	1.6	552586	WORD	n/a	wordpools/wordpool_categorized_EN.txt	DAFFODIL	Flowers	9	3	[0, 0, 0]	n/a	catFR1	0	R1426N
551.849	0.833	554182	WORD_OFF	n/a	n/a	DAFFODIL	Flowers	9	3	[0, 0, 0]	n/a	catFR1	0	R1426N
552.682	1.617	555016	WORD	n/a	wordpools/wordpool_categorized_EN.txt	ORCHID	Flowers	10	3	[0, 0, 0]	n/a	catFR1	0	R1426N
554.299	0.917	556640	WORD_OFF	n/a	n/a	ORCHID	Flowers	10	3	[0, 0, 0]	n/a	catFR1	0	R1426N
555.216	1.6	557560	WORD	n/a	wordpools/wordpool_categorized_EN.txt	TAPE	OfficeSupplies	11	3	[0, 0, 0]	n/a	catFR1	0	R1426N
556.816	0.983	559156	WORD_OFF	n/a	n/a	TAPE	OfficeSupplies	11	3	[0, 0, 0]	n/a	catFR1	0	R1426N
557.799	1.601	560134	WORD	n/a	wordpools/wordpool_categorized_EN.txt	RULER	OfficeSupplies	12	3	[0, 0, 0]	n/a	catFR1	0	R1426N
559.4	0.001	561742	PROB	0.001	n/a	n/a	n/a	-999	3	[3, 7, 2]	12	catFR1	0	R1426N
559.401	0.0	561743	START	n/a	n/a	n/a	n/a	-999	3	[-999, -999, -999]	n/a	catFR1	0	R1426N
559.399	0.002	561744	WORD_OFF	n/a	n/a	RULER	OfficeSupplies	12	3	[0, 0, 0]	n/a	catFR1	0	R1426N
559.401	0.0	561744	ENCODING_END	n/a	n/a	n/a	n/a	-999	3	[0, 0, 0]	n/a	catFR1	0	R1426N
559.401	2.548	561744	DISTRACT_START	n/a	n/a	n/a	n/a	-999	3	[0, 0, 0]	n/a	catFR1	0	R1426N
561.949	2.268	564291	PROB	2.268	n/a	n/a	n/a	-999	3	[1, 3, 4]	8	catFR1	0	R1426N
564.217	4.665	566559	PROB	4.665	n/a	n/a	n/a	-999	3	[5, 4, 3]	12	catFR1	0	R1426N
568.882	1.884	571224	PROB	1.884	n/a	n/a	n/a	-999	3	[6, 3, 7]	16	catFR1	0	R1426N
570.766	2.901	573108	PROB	2.901	n/a	n/a	n/a	-999	3	[2, 1, 5]	8	catFR1	0	R1426N
573.667	2.765	576009	PROB	2.765	n/a	n/a	n/a	-999	3	[7, 2, 5]	14	catFR1	0	R1426N
576.432	2.584	578773	PROB	2.584	n/a	n/a	n/a	-999	3	[5, 6, 2]	13	catFR1	0	R1426N
579.016	2.383	581357	PROB	2.383	n/a	n/a	n/a	-999	3	[7, 3, 7]	17	catFR1	0	R1426N
581.399	0.0	583740	STOP	n/a	n/a	n/a	n/a	-999	3	[-999, -999, -999]	n/a	catFR1	0	R1426N
581.399	1.116	583741	DISTRACT_END	n/a	n/a	n/a	n/a	-999	3	[0, 0, 0]	n/a	catFR1	0	R1426N
582.515	0.065	584848	REC_START	n/a	n/a	n/a	n/a	-999	3	[0, 0, 0]	n/a	catFR1	0	R1426N
582.58	1.049	584921	REC_WORD	1.049	n/a	FREEZER	Appliances	1	3	[0, 0, 0]	n/a	catFR1	0	R1426N
583.629	0.92	585970	REC_WORD	0.92	n/a	WASHER	Appliances	2	3	[0, 0, 0]	n/a	catFR1	0	R1426N
584.549	1.658	586890	REC_WORD	1.658	n/a	MIXER	Appliances	7	3	[0, 0, 0]	n/a	catFR1	0	R1426N
586.207	1.013	588548	REC_WORD	1.013	n/a	COLD	n/a	-999	3	[0, 0, 0]	n/a	catFR1	0	R1426N
587.22	26.545	589561	REC_WORD	26.545	n/a	ROAD	n/a	-999	3	[0, 0, 0]	n/a	catFR1	0	R1426N
613.765	2.967	616103	REC_END	n/a	n/a	n/a	n/a	-999	3	[0, 0, 0]	n/a	catFR1	0	R1426N
616.732	10.351	619079	COUNTDOWN_START	n/a	n/a	n/a	n/a	-999	3	[0, 0, 0]	n/a	catFR1	0	R1426N
627.083	0.0	629416	COUNTDOWN_END	n/a	n/a	n/a	n/a	-999	3	[0, 0, 0]	n/a	catFR1	0	R1426N
627.083	2.299	629430	ENCODING_START	n/a	n/a	n/a	n/a	-999	4	[0, 0, 0]	n/a	catFR1	0	R1426N
629.382	1.617	631716	WORD	n/a	wordpools/wordpool_categorized_EN.txt	CRICKET	Insects	1	4	[0, 0, 0]	n/a	catFR1	0	R1426N
630.999	0.867	633341	WORD_OFF	n/a	n/a	CRICKET	Insects	1	4	[0, 0, 0]	n/a	catFR1	0	R1426N
631.866	1.616	634203	WORD	n/a	wordpools/wordpool_categorized_EN.txt	MOSQUITO	Insects	2	4	[0, 0, 0]	n/a	catFR1	0	R1426N
633.482	0.867	635813	WORD_OFF	n/a	n/a	MOSQUITO	Insects	2	4	[0, 0, 0]	n/a	catFR1	0	R1426N
634.349	1.6	636690	WORD	n/a	wordpools/wordpool_categorized_EN.txt	OYSTER	OceanAnimals	3	4	[0, 0, 0]	n/a	catFR1	0	R1426N
635.949	0.833	638286	WORD_OFF	n/a	n/a	OYSTER	OceanAnimals	3	4	[0, 0, 0]	n/a	catFR1	0	R1426N
636.782	1.6	639120	WORD	n/a	wordpools/wordpool_categorized_EN.txt	PLANKTON	OceanAnimals	4	4	[0, 0, 0]	n/a	catFR1	0	R1426N
638.382	0.85	640716	WORD_OFF	n/a	n/a	PLANKTON	OceanAnimals	4	4	[0, 0, 0]	n/a	catFR1	0	R1426N
639.232	1.6	641564	WORD	n/a	wordpools/wordpool_categorized_EN.txt	PUZZLE	Toys	5	4	[0, 0, 0]	n/a	catFR1	0	R1426N
640.832	0.967	643174	WORD_OFF	n/a	n/a	PUZZLE	Toys	5	4	[0, 0, 0]	n/a	catFR1	0	R1426N
641.799	1.6	644138	WORD	n/a	wordpools/wordpool_categorized_EN.txt	MARBLES	Toys	6	4	[0, 0, 0]	n/a	catFR1	0	R1426N
643.399	0.767	645733	WORD_OFF	n/a	n/a	MARBLES	Toys	6	4	[0, 0, 0]	n/a	catFR1	0	R1426N
644.166	1.6	646495	WORD	n/a	wordpools/wordpool_categorized_EN.txt	ROACH	Insects	7	4	[0, 0, 0]	n/a	catFR1	0	R1426N
645.766	0.999	648106	WORD_OFF	n/a	n/a	ROACH	Insects	7	4	[0, 0, 0]	n/a	catFR1	0	R1426N
646.765	1.601	649098	WORD	n/a	wordpools/wordpool_categorized_EN.txt	LADYBUG	Insects	8	4	[0, 0, 0]	n/a	catFR1	0	R1426N
648.366	1.0	650708	WORD_OFF	n/a	n/a	LADYBUG	Insects	8	4	[0, 0, 0]	n/a	catFR1	0	R1426N
649.366	1.6	651700	WORD	n/a	wordpools/wordpool_categorized_EN.txt	TURTLE	OceanAnimals	9	4	[0, 0, 0]	n/a	catFR1	0	R1426N
650.966	0.8	653296	WORD_OFF	n/a	n/a	TURTLE	OceanAnimals	9	4	[0, 0, 0]	n/a	catFR1	0	R1426N
651.766	1.616	654101	WORD	n/a	wordpools/wordpool_categorized_EN.txt	SQUID	OceanAnimals	10	4	[0, 0, 0]	n/a	catFR1	0	R1426N
653.382	0.883	655711	WORD_OFF	n/a	n/a	SQUID	OceanAnimals	10	4	[0, 0, 0]	n/a	catFR1	0	R1426N
654.265	1.601	656602	WORD	n/a	wordpools/wordpool_categorized_EN.txt	BASEBALL	Toys	11	4	[0, 0, 0]	n/a	catFR1	0	R1426N
655.866	0.866	658198	WORD_OFF	n/a	n/a	BASEBALL	Toys	11	4	[0, 0, 0]	n/a	catFR1	0	R1426N
656.732	1.6	659075	WORD	n/a	wordpools/wordpool_categorized_EN.txt	SLINKY	Toys	12	4	[0, 0, 0]	n/a	catFR1	0	R1426N
658.332	0.002	660671	WORD_OFF	n/a	n/a	SLINKY	Toys	12	4	[0, 0, 0]	n/a	catFR1	0	R1426N
658.334	0.0	660671	ENCODING_END	n/a	n/a	n/a	n/a	-999	4	[0, 0, 0]	n/a	catFR1	0	R1426N
658.334	0.0	660671	DISTRACT_START	n/a	n/a	n/a	n/a	-999	4	[0, 0, 0]	n/a	catFR1	0	R1426N
658.333	0.001	660672	PROB	0.001	n/a	n/a	n/a	-999	4	[2, 8, 7]	17	catFR1	0	R1426N
658.334	4.281	660673	START	n/a	n/a	n/a	n/a	-999	4	[-999, -999, -999]	n/a	catFR1	0	R1426N
662.615	2.235	664954	PROB	2.235	n/a	n/a	n/a	-999	4	[7, 7, 5]	19	catFR1	0	R1426N
664.85	2.883	667189	PROB	2.883	n/a	n/a	n/a	-999	4	[8, 4, 5]	17	catFR1	0	R1426N
667.733	2.117	670072	PROB	2.117	n/a	n/a	n/a	-999	4	[3, 1, 5]	9	catFR1	0	R1426N
669.85	1.933	672189	PROB	1.933	n/a	n/a	n/a	-999	4	[2, 4, 1]	7	catFR1	0	R1426N
671.783	3.149	674122	PROB	3.149	n/a	n/a	n/a	-999	4	[7, 3, 7]	17	catFR1	0	R1426N
674.932	1.935	677271	PROB	1.935	n/a	n/a	n/a	-999	4	[1, 4, 2]	7	catFR1	0	R1426N
676.867	2.865	679205	PROB	2.865	n/a	n/a	n/a	-999	4	[3, 6, 8]	17	catFR1	0	R1426N
679.732	0.0	682064	DISTRACT_END	n/a	n/a	n/a	n/a	-999	4	[0, 0, 0]	n/a	catFR1	0	R1426N
679.732	1.15	682070	STOP	n/a	n/a	n/a	n/a	-999	4	[-999, -999, -999]	n/a	catFR1	0	R1426N
680.882	0.249	683214	REC_START	n/a	n/a	n/a	n/a	-999	4	[0, 0, 0]	n/a	catFR1	0	R1426N
681.131	0.99	683469	REC_WORD	0.99	n/a	MOSQUITO	Insects	2	4	[0, 0, 0]	n/a	catFR1	0	R1426N
682.121	3.093	684459	REC_WORD	3.093	n/a	OYSTER	OceanAnimals	3	4	[0, 0, 0]	n/a	catFR1	0	R1426N
685.214	20.473	687552	REC_WORD	20.473	n/a	PLANKTON	OceanAnimals	4	4	[0, 0, 0]	n/a	catFR1	0	R1426N
705.687	6.45	708025	REC_WORD	6.45	n/a	LADYBUG	Insects	8	4	[0, 0, 0]	n/a	catFR1	0	R1426N
712.137	3.328	714469	REC_END	n/a	n/a	n/a	n/a	-999	4	[0, 0, 0]	n/a	catFR1	0	R1426N
715.465	10.351	717804	COUNTDOWN_START	n/a	n/a	n/a	n/a	-999	4	[0, 0, 0]	n/a	catFR1	0	R1426N
725.816	0.0	728156	COUNTDOWN_END	n/a	n/a	n/a	n/a	-999	4	[0, 0, 0]	n/a	catFR1	0	R1426N
725.816	2.066	728156	ENCODING_START	n/a	n/a	n/a	n/a	-999	5	[0, 0, 0]	n/a	catFR1	0	R1426N
727.882	1.6	730211	WORD	n/a	wordpools/wordpool_categorized_EN.txt	CROW	Birds	1	5	[0, 0, 0]	n/a	catFR1	0	R1426N
729.482	0.784	731822	WORD_OFF	n/a	n/a	CROW	Birds	1	5	[0, 0, 0]	n/a	catFR1	0	R1426N
730.266	1.6	732598	WORD	n/a	wordpools/wordpool_categorized_EN.txt	SEAGULL	Birds	2	5	[0, 0, 0]	n/a	catFR1	0	R1426N
731.866	0.933	734194	WORD_OFF	n/a	n/a	SEAGULL	Birds	2	5	[0, 0, 0]	n/a	catFR1	0	R1426N
732.799	1.6	735128	WORD	n/a	wordpools/wordpool_categorized_EN.txt	WOOL	Fabric	3	5	[0, 0, 0]	n/a	catFR1	0	R1426N
734.399	0.916	736739	WORD_OFF	n/a	n/a	WOOL	Fabric	3	5	[0, 0, 0]	n/a	catFR1	0	R1426N
735.315	1.6	737644	WORD	n/a	wordpools/wordpool_categorized_EN.txt	NYLON	Fabric	4	5	[0, 0, 0]	n/a	catFR1	0	R1426N
736.915	0.951	739254	WORD_OFF	n/a	n/a	NYLON	Fabric	4	5	[0, 0, 0]	n/a	catFR1	0	R1426N
737.866	1.6	740203	WORD	n/a	wordpools/wordpool_categorized_EN.txt	WOODS	Landscapes	5	5	[0, 0, 0]	n/a	catFR1	0	R1426N
739.466	0.95	741799	WORD_OFF	n/a	n/a	WOODS	Landscapes	5	5	[0, 0, 0]	n/a	catFR1	0	R1426N
740.416	1.6	742748	WORD	n/a	wordpools/wordpool_categorized_EN.txt	STREAM	Landscapes	6	5	[0, 0, 0]	n/a	catFR1	0	R1426N
742.016	1.0	744344	WORD_OFF	n/a	n/a	STREAM	Landscapes	6	5	[0, 0, 0]	n/a	catFR1	0	R1426N
743.016	1.616	745350	WORD	n/a	wordpools/wordpool_categorized_EN.txt	ROBIN	Birds	7	5	[0, 0, 0]	n/a	catFR1	0	R1426N
744.632	0.999	746960	WORD_OFF	n/a	n/a	ROBIN	Birds	7	5	[0, 0, 0]	n/a	catFR1	0	R1426N
745.631	1.601	747967	WORD	n/a	wordpools/wordpool_categorized_EN.txt	HAWK	Birds	8	5	[0, 0, 0]	n/a	catFR1	0	R1426N
747.232	1.0	749563	WORD_OFF	n/a	n/a	HAWK	Birds	8	5	[0, 0, 0]	n/a	catFR1	0	R1426N
748.232	1.6	750569	WORD	n/a	wordpools/wordpool_categorized_EN.txt	CREEK	Landscapes	9	5	[0, 0, 0]	n/a	catFR1	0	R1426N
749.832	0.833	752165	WORD_OFF	n/a	n/a	CREEK	Landscapes	9	5	[0, 0, 0]	n/a	catFR1	0	R1426N
750.665	1.601	752999	WORD	n/a	wordpools/wordpool_categorized_EN.txt	BEACH	Landscapes	10	5	[0, 0, 0]	n/a	catFR1	0	R1426N
752.266	0.816	754595	WORD_OFF	n/a	n/a	BEACH	Landscapes	10	5	[0, 0, 0]	n/a	catFR1	0	R1426N
753.082	1.616	755414	WORD	n/a	wordpools/wordpool_categorized_EN.txt	DENIM	Fabric	11	5	[0, 0, 0]	n/a	catFR1	0	R1426N
754.698	0.768	757039	WORD_OFF	n/a	n/a	DENIM	Fabric	11	5	[0, 0, 0]	n/a	catFR1	0	R1426N
755.466	1.6	757801	WORD	n/a	wordpools/wordpool_categorized_EN.txt	LEATHER	Fabric	12	5	[0, 0, 0]	n/a	catFR1	0	R1426N
757.066	0.002	759396	WORD_OFF	n/a	n/a	LEATHER	Fabric	12	5	[0, 0, 0]	n/a	catFR1	0	R1426N
757.068	0.0	759396	ENCODING_END	n/a	n/a	n/a	n/a	-999	5	[0, 0, 0]	n/a	catFR1	0	R1426N
757.067	0.001	759403	PROB	0.001	n/a	n/a	n/a	-999	5	[1, 1, 8]	10	catFR1	0	R1426N
757.068	0.0	759404	START	n/a	n/a	n/a	n/a	-999	5	[-999, -999, -999]	n/a	catFR1	0	R1426N
757.068	4.065	759411	DISTRACT_START	n/a	n/a	n/a	n/a	-999	5	[0, 0, 0]	n/a	catFR1	0	R1426N
761.133	1.732	763469	PROB	1.732	n/a	n/a	n/a	-999	5	[8, 3, 2]	13	catFR1	0	R1426N
762.865	1.851	765201	PROB	1.851	n/a	n/a	n/a	-999	5	[1, 6, 1]	8	catFR1	0	R1426N
764.716	1.967	767052	PROB	1.967	n/a	n/a	n/a	-999	5	[1, 2, 1]	4	catFR1	0	R1426N
766.683	4.282	769019	PROB	4.282	n/a	n/a	n/a	-999	5	[2, 1, 7]	10	catFR1	0	R1426N
770.965	2.985	773301	PROB	2.985	n/a	n/a	n/a	-999	5	[2, 7, 5]	14	catFR1	0	R1426N
773.95	2.833	776286	PROB	2.833	n/a	n/a	n/a	-999	5	[2, 8, 7]	17	catFR1	0	R1426N
776.783	2.499	779119	PROB	2.499	n/a	n/a	n/a	-999	5	[7, 8, 8]	23	catFR1	0	R1426N
779.282	0.0	781608	DISTRACT_END	n/a	n/a	n/a	n/a	-999	5	[0, 0, 0]	n/a	catFR1	0	R1426N
779.282	1.383	781617	STOP	n/a	n/a	n/a	n/a	-999	5	[-999, -999, -999]	n/a	catFR1	0	R1426N
780.665	0.0	783000	REC_WORD	0.0	n/a	GREEN	n/a	-999	5	[0, 0, 0]	n/a	catFR1	0	R1426N
780.665	0.893	783003	REC_START	n/a	n/a	n/a	n/a	-999	5	[0, 0, 0]	n/a	catFR1	0	R1426N
781.558	0.728	783893	REC_WORD	0.728	n/a	BEACH	Landscapes	10	5	[0, 0, 0]	n/a	catFR1	0	R1426N
782.286	0.716	784621	REC_WORD	0.716	n/a	DENIM	Fabric	11	5	[0, 0, 0]	n/a	catFR1	0	R1426N
783.002	1.578	785337	REC_WORD	1.578	n/a	LEATHER	Fabric	12	5	[0, 0, 0]	n/a	catFR1	0	R1426N
784.58	8.965	786915	REC_WORD	8.965	n/a	WOOL	Fabric	3	5	[0, 0, 0]	n/a	catFR1	0	R1426N
793.545	18.392	795880	REC_WORD	18.392	n/a	WOODS	Landscapes	5	5	[0, 0, 0]	n/a	catFR1	0	R1426N
811.937	3.095	814273	REC_END	n/a	n/a	n/a	n/a	-999	5	[0, 0, 0]	n/a	catFR1	0	R1426N
815.032	10.351	817364	COUNTDOWN_START	n/a	n/a	n/a	n/a	-999	5	[0, 0, 0]	n/a	catFR1	0	R1426N
825.383	0.0	827715	COUNTDOWN_END	n/a	n/a	n/a	n/a	-999	5	[0, 0, 0]	n/a	catFR1	0	R1426N
825.383	2.049	827715	ENCODING_START	n/a	n/a	n/a	n/a	-999	6	[0, 0, 0]	n/a	catFR1	0	R1426N
827.432	1.6	829756	WORD	n/a	wordpools/wordpool_categorized_EN.txt	ONION	Vegetables	1	6	[0, 0, 0]	n/a	catFR1	0	R1426N
829.032	0.817	831367	WORD_OFF	n/a	n/a	ONION	Vegetables	1	6	[0, 0, 0]	n/a	catFR1	0	R1426N
829.849	1.6	832186	WORD	n/a	wordpools/wordpool_categorized_EN.txt	CAULIFLOWER	Vegetables	2	6	[0, 0, 0]	n/a	catFR1	0	R1426N
831.449	0.967	833782	WORD_OFF	n/a	n/a	CAULIFLOWER	Vegetables	2	6	[0, 0, 0]	n/a	catFR1	0	R1426N
832.416	1.6	834745	WORD	n/a	wordpools/wordpool_categorized_EN.txt	BANJO	Instruments	3	6	[0, 0, 0]	n/a	catFR1	0	R1426N
834.016	0.766	836341	WORD_OFF	n/a	n/a	BANJO	Instruments	3	6	[0, 0, 0]	n/a	catFR1	0	R1426N
834.782	1.617	837117	WORD	n/a	wordpools/wordpool_categorized_EN.txt	TRUMPET	Instruments	4	6	[0, 0, 0]	n/a	catFR1	0	R1426N
836.399	0.85	838728	WORD_OFF	n/a	n/a	TRUMPET	Instruments	4	6	[0, 0, 0]	n/a	catFR1	0	R1426N
837.249	1.6	839576	WORD	n/a	wordpools/wordpool_categorized_EN.txt	LAMB	FarmAnimals	5	6	[0, 0, 0]	n/a	catFR1	0	R1426N
838.849	0.849	841186	WORD_OFF	n/a	n/a	LAMB	FarmAnimals	5	6	[0, 0, 0]	n/a	catFR1	0	R1426N
839.698	1.6	842034	WORD	n/a	wordpools/wordpool_categorized_EN.txt	SHEEP	FarmAnimals	6	6	[0, 0, 0]	n/a	catFR1	0	R1426N
841.298	0.783	843630	WORD_OFF	n/a	n/a	SHEEP	FarmAnimals	6	6	[0, 0, 0]	n/a	catFR1	0	R1426N
842.081	1.6	844406	WORD	n/a	wordpools/wordpool_categorized_EN.txt	TUBA	Instruments	7	6	[0, 0, 0]	n/a	catFR1	0	R1426N
843.681	0.851	846017	WORD_OFF	n/a	n/a	TUBA	Instruments	7	6	[0, 0, 0]	n/a	catFR1	0	R1426N
844.532	1.617	846865	WORD	n/a	wordpools/wordpool_categorized_EN.txt	TROMBONE	Instruments	8	6	[0, 0, 0]	n/a	catFR1	0	R1426N
846.149	0.883	848475	WORD_OFF	n/a	n/a	TROMBONE	Instruments	8	6	[0, 0, 0]	n/a	catFR1	0	R1426N
847.032	1.617	849366	WORD	n/a	wordpools/wordpool_categorized_EN.txt	COW	FarmAnimals	9	6	[0, 0, 0]	n/a	catFR1	0	R1426N
848.649	0.817	850977	WORD_OFF	n/a	n/a	COW	FarmAnimals	9	6	[0, 0, 0]	n/a	catFR1	0	R1426N
849.466	1.6	851796	WORD	n/a	wordpools/wordpool_categorized_EN.txt	BULL	FarmAnimals	10	6	[0, 0, 0]	n/a	catFR1	0	R1426N
851.066	0.899	853392	WORD_OFF	n/a	n/a	BULL	FarmAnimals	10	6	[0, 0, 0]	n/a	catFR1	0	R1426N
851.965	1.601	854298	WORD	n/a	wordpools/wordpool_categorized_EN.txt	BROCCOLI	Vegetables	11	6	[0, 0, 0]	n/a	catFR1	0	R1426N
853.566	0.95	855893	WORD_OFF	n/a	n/a	BROCCOLI	Vegetables	11	6	[0, 0, 0]	n/a	catFR1	0	R1426N
854.516	1.6	856842	WORD	n/a	wordpools/wordpool_categorized_EN.txt	CELERY	Vegetables	12	6	[0, 0, 0]	n/a	catFR1	0	R1426N
856.116	0.002	858449	PROB	0.002	n/a	n/a	n/a	-999	6	[4, 5, 7]	16	catFR1	0	R1426N
856.118	0.0	858451	START	n/a	n/a	n/a	n/a	-999	6	[-999, -999, -999]	n/a	catFR1	0	R1426N
856.116	0.002	858452	WORD_OFF	n/a	n/a	CELERY	Vegetables	12	6	[0, 0, 0]	n/a	catFR1	0	R1426N
856.118	0.0	858452	ENCODING_END	n/a	n/a	n/a	n/a	-999	6	[0, 0, 0]	n/a	catFR1	0	R1426N
856.118	4.148	858452	DISTRACT_START	n/a	n/a	n/a	n/a	-999	6	[0, 0, 0]	n/a	catFR1	0	R1426N
860.266	2.55	862599	PROB	2.55	n/a	n/a	n/a	-999	6	[3, 6, 1]	10	catFR1	0	R1426N
862.816	2.017	865149	PROB	2.017	n/a	n/a	n/a	-999	6	[6, 5, 1]	12	catFR1	0	R1426N
864.833	2.3	867166	PROB	2.3	n/a	n/a	n/a	-999	6	[1, 8, 3]	12	catFR1	0	R1426N
867.133	2.167	869466	PROB	2.167	n/a	n/a	n/a	-999	6	[5, 5, 7]	17	catFR1	0	R1426N
869.3	2.833	871633	PROB	2.833	n/a	n/a	n/a	-999	6	[6, 2, 7]	15	catFR1	0	R1426N
872.133	2.333	874466	PROB	2.333	n/a	n/a	n/a	-999	6	[5, 5, 5]	15	catFR1	0	R1426N
874.466	3.65	876799	PROB	3.65	n/a	n/a	n/a	-999	6	[7, 3, 3]	13	catFR1	0	R1426N
878.116	0.0	880449	DISTRACT_END	n/a	n/a	n/a	n/a	-999	6	[0, 0, 0]	n/a	catFR1	0	R1426N
878.116	1.333	880449	STOP	n/a	n/a	n/a	n/a	-999	6	[-999, -999, -999]	n/a	catFR1	0	R1426N
879.449	0.561	881786	REC_START	n/a	n/a	n/a	n/a	-999	6	[0, 0, 0]	n/a	catFR1	0	R1426N
880.01	0.705	882343	REC_WORD	0.705	n/a	BANJO	Instruments	3	6	[0, 0, 0]	n/a	catFR1	0	R1426N
880.715	5.175	883048	REC_WORD	5.175	n/a	CELERY	Vegetables	12	6	[0, 0, 0]	n/a	catFR1	0	R1426N
885.89	21.667	888222	REC_WORD	21.667	n/a	BROCCOLI	Vegetables	11	6	[0, 0, 0]	n/a	catFR1	0	R1426N
907.557	3.171	909889	REC_WORD	3.171	n/a	COW	FarmAnimals	9	6	[0, 0, 0]	n/a	catFR1	0	R1426N
910.728	3.011	913056	REC_END	n/a	n/a	n/a	n/a	-999	6	[0, 0, 0]	n/a	catFR1	0	R1426N
913.739	10.344	916075	COUNTDOWN_START	n/a	n/a	n/a	n/a	-999	6	[0, 0, 0]	n/a	catFR1	0	R1426N
924.083	0.001	926412	COUNTDOWN_END	n/a	n/a	n/a	n/a	-999	6	[0, 0, 0]	n/a	catFR1	0	R1426N
924.084	2.032	926412	ENCODING_START	n/a	n/a	n/a	n/a	-999	7	[0, 0, 0]	n/a	catFR1	0	R1426N
926.116	1.6	928439	WORD	n/a	wordpools/wordpool_categorized_EN.txt	SOCKS	Clothing	1	7	[0, 0, 0]	n/a	catFR1	0	R1426N
927.716	0.883	930049	WORD_OFF	n/a	n/a	SOCKS	Clothing	1	7	[0, 0, 0]	n/a	catFR1	0	R1426N
928.599	1.617	930926	WORD	n/a	wordpools/wordpool_categorized_EN.txt	UNDERWEAR	Clothing	2	7	[0, 0, 0]	n/a	catFR1	0	R1426N
930.216	0.983	932551	WORD_OFF	n/a	n/a	UNDERWEAR	Clothing	2	7	[0, 0, 0]	n/a	catFR1	0	R1426N
931.199	1.6	933528	WORD	n/a	wordpools/wordpool_categorized_EN.txt	BEE	Insects	3	7	[0, 0, 0]	n/a	catFR1	0	R1426N
932.799	0.983	935124	WORD_OFF	n/a	n/a	BEE	Insects	3	7	[0, 0, 0]	n/a	catFR1	0	R1426N
933.782	1.6	936116	WORD	n/a	wordpools/wordpool_categorized_EN.txt	ANT	Insects	4	7	[0, 0, 0]	n/a	catFR1	0	R1426N
935.382	0.884	937712	WORD_OFF	n/a	n/a	ANT	Insects	4	7	[0, 0, 0]	n/a	catFR1	0	R1426N
936.266	1.6	938589	WORD	n/a	wordpools/wordpool_categorized_EN.txt	FLEECE	Fabric	5	7	[0, 0, 0]	n/a	catFR1	0	R1426N
937.866	0.916	940199	WORD_OFF	n/a	n/a	FLEECE	Fabric	5	7	[0, 0, 0]	n/a	catFR1	0	R1426N
938.782	1.6	941105	WORD	n/a	wordpools/wordpool_categorized_EN.txt	SPANDEX	Fabric	6	7	[0, 0, 0]	n/a	catFR1	0	R1426N
940.382	0.867	942715	WORD_OFF	n/a	n/a	SPANDEX	Fabric	6	7	[0, 0, 0]	n/a	catFR1	0	R1426N
941.249	1.6	943578	WORD	n/a	wordpools/wordpool_categorized_EN.txt	SHORTS	Clothing	7	7	[0, 0, 0]	n/a	catFR1	0	R1426N
942.849	0.767	945173	WORD_OFF	n/a	n/a	SHORTS	Clothing	7	7	[0, 0, 0]	n/a	catFR1	0	R1426N
943.616	1.615	945950	WORD	n/a	wordpools/wordpool_categorized_EN.txt	SKIRT	Clothing	8	7	[0, 0, 0]	n/a	catFR1	0	R1426N
945.231	0.851	947560	WORD_OFF	n/a	n/a	SKIRT	Clothing	8	7	[0, 0, 0]	n/a	catFR1	0	R1426N
946.082	1.6	948408	WORD	n/a	wordpools/wordpool_categorized_EN.txt	MOTH	Insects	9	7	[0, 0, 0]	n/a	catFR1	0	R1426N
947.682	0.95	950004	WORD_OFF	n/a	n/a	MOTH	Insects	9	7	[0, 0, 0]	n/a	catFR1	0	R1426N
948.632	1.6	950967	WORD	n/a	wordpools/wordpool_categorized_EN.txt	SPIDER	Insects	10	7	[0, 0, 0]	n/a	catFR1	0	R1426N
950.232	0.834	952563	WORD_OFF	n/a	n/a	SPIDER	Insects	10	7	[0, 0, 0]	n/a	catFR1	0	R1426N
951.066	1.6	953397	WORD	n/a	wordpools/wordpool_categorized_EN.txt	SILK	Fabric	11	7	[0, 0, 0]	n/a	catFR1	0	R1426N
952.666	0.966	954993	WORD_OFF	n/a	n/a	SILK	Fabric	11	7	[0, 0, 0]	n/a	catFR1	0	R1426N
953.632	1.618	955956	WORD	n/a	wordpools/wordpool_categorized_EN.txt	SATIN	Fabric	12	7	[0, 0, 0]	n/a	catFR1	0	R1426N
955.25	0.0	957580	PROB	0.0	n/a	n/a	n/a	-999	7	[2, 7, 8]	17	catFR1	0	R1426N
955.249	0.002	957581	WORD_OFF	n/a	n/a	SATIN	Fabric	12	7	[0, 0, 0]	n/a	catFR1	0	R1426N
955.251	0.0	957581	ENCODING_END	n/a	n/a	n/a	n/a	-999	7	[0, 0, 0]	n/a	catFR1	0	R1426N
955.251	0.0	957581	DISTRACT_START	n/a	n/a	n/a	n/a	-999	7	[0, 0, 0]	n/a	catFR1	0	R1426N
955.251	5.582	957581	START	n/a	n/a	n/a	n/a	-999	7	[-999, -999, -999]	n/a	catFR1	0	R1426N
960.833	2.149	963163	PROB	2.149	n/a	n/a	n/a	-999	7	[4, 7, 4]	15	catFR1	0	R1426N
962.982	1.884	965312	PROB	1.884	n/a	n/a	n/a	-999	7	[5, 7, 3]	15	catFR1	0	R1426N
964.866	2.216	967196	PROB	2.216	n/a	n/a	n/a	-999	7	[2, 8, 3]	13	catFR1	0	R1426N
967.082	2.017	969412	PROB	2.017	n/a	n/a	n/a	-999	7	[6, 8, 8]	22	catFR1	0	R1426N
969.099	2.367	971429	PROB	2.367	n/a	n/a	n/a	-999	7	[8, 1, 1]	10	catFR1	0	R1426N
971.466	1.917	973796	PROB	1.917	n/a	n/a	n/a	-999	7	[6, 7, 8]	21	catFR1	0	R1426N
973.383	2.383	975713	PROB	2.383	n/a	n/a	n/a	-999	7	[8, 7, 3]	18	catFR1	0	R1426N
975.766	0.0	978096	DISTRACT_END	n/a	n/a	n/a	n/a	-999	7	[0, 0, 0]	n/a	catFR1	0	R1426N
975.766	1.116	978096	STOP	n/a	n/a	n/a	n/a	-999	7	[-999, -999, -999]	n/a	catFR1	0	R1426N
976.882	0.0	979203	REC_START	n/a	n/a	n/a	n/a	-999	7	[0, 0, 0]	n/a	catFR1	0	R1426N
976.882	0.804	979212	REC_WORD	0.804	n/a	SOCKS	Clothing	1	7	[0, 0, 0]	n/a	catFR1	0	R1426N
977.686	6.694	980016	REC_WORD	6.694	n/a	UNDERWEAR	Clothing	2	7	[0, 0, 0]	n/a	catFR1	0	R1426N
984.38	1.426	986709	REC_WORD	1.426	n/a	BEE	Insects	3	7	[0, 0, 0]	n/a	catFR1	0	R1426N
985.806	0.904	988135	REC_WORD	0.904	n/a	SHORTS	Clothing	7	7	[0, 0, 0]	n/a	catFR1	0	R1426N
986.71	21.435	989039	REC_WORD	21.435	n/a	PANTS	n/a	-999	7	[0, 0, 0]	n/a	catFR1	0	R1426N
1008.145	7.436	1010473	REC_END	n/a	n/a	n/a	n/a	-999	7	[0, 0, 0]	n/a	catFR1	0	R1426N
1015.581	10.352	1017906	COUNTDOWN_START	n/a	n/a	n/a	n/a	-999	7	[0, 0, 0]	n/a	catFR1	0	R1426N
1025.933	0.0	1028257	COUNTDOWN_END	n/a	n/a	n/a	n/a	-999	7	[0, 0, 0]	n/a	catFR1	0	R1426N
1025.933	2.199	1028257	ENCODING_START	n/a	n/a	n/a	n/a	-999	8	[0, 0, 0]	n/a	catFR1	0	R1426N
1028.132	1.6	1030456	WORD	n/a	wordpools/wordpool_categorized_EN.txt	WIND	Weather	1	8	[0, 0, 0]	n/a	catFR1	0	R1426N
1029.732	0.801	1032052	WORD_OFF	n/a	n/a	WIND	Weather	1	8	[0, 0, 0]	n/a	catFR1	0	R1426N
1030.533	1.6	1032857	WORD	n/a	wordpools/wordpool_categorized_EN.txt	HUMIDITY	Weather	2	8	[0, 0, 0]	n/a	catFR1	0	R1426N
1032.133	0.765	1034453	WORD_OFF	n/a	n/a	HUMIDITY	Weather	2	8	[0, 0, 0]	n/a	catFR1	0	R1426N
1032.898	1.601	1035230	WORD	n/a	wordpools/wordpool_categorized_EN.txt	BUTTERFLY	Insects	3	8	[0, 0, 0]	n/a	catFR1	0	R1426N
1034.499	0.983	1036825	WORD_OFF	n/a	n/a	BUTTERFLY	Insects	3	8	[0, 0, 0]	n/a	catFR1	0	R1426N
1035.482	1.616	1037803	WORD	n/a	wordpools/wordpool_categorized_EN.txt	FLY	Insects	4	8	[0, 0, 0]	n/a	catFR1	0	R1426N
1037.098	0.834	1039428	WORD_OFF	n/a	n/a	FLY	Insects	4	8	[0, 0, 0]	n/a	catFR1	0	R1426N
1037.932	1.6	1040261	WORD	n/a	wordpools/wordpool_categorized_EN.txt	BLUEBIRD	Birds	5	8	[0, 0, 0]	n/a	catFR1	0	R1426N
1039.532	0.95	1041857	WORD_OFF	n/a	n/a	BLUEBIRD	Birds	5	8	[0, 0, 0]	n/a	catFR1	0	R1426N
1040.482	1.616	1042806	WORD	n/a	wordpools/wordpool_categorized_EN.txt	GOOSE	Birds	6	8	[0, 0, 0]	n/a	catFR1	0	R1426N
1042.098	0.95	1044416	WORD_OFF	n/a	n/a	GOOSE	Birds	6	8	[0, 0, 0]	n/a	catFR1	0	R1426N
1043.048	1.618	1045380	WORD	n/a	wordpools/wordpool_categorized_EN.txt	THUNDER	Weather	7	8	[0, 0, 0]	n/a	catFR1	0	R1426N
1044.666	0.999	1046990	WORD_OFF	n/a	n/a	THUNDER	Weather	7	8	[0, 0, 0]	n/a	catFR1	0	R1426N
1045.665	1.601	1047996	WORD	n/a	wordpools/wordpool_categorized_EN.txt	HURRICANE	Weather	8	8	[0, 0, 0]	n/a	catFR1	0	R1426N
1047.266	0.933	1049592	WORD_OFF	n/a	n/a	HURRICANE	Weather	8	8	[0, 0, 0]	n/a	catFR1	0	R1426N
1048.199	1.6	1050527	WORD	n/a	wordpools/wordpool_categorized_EN.txt	DOVE	Birds	9	8	[0, 0, 0]	n/a	catFR1	0	R1426N
1049.799	0.783	1052122	WORD_OFF	n/a	n/a	DOVE	Birds	9	8	[0, 0, 0]	n/a	catFR1	0	R1426N
1050.582	1.6	1052913	WORD	n/a	wordpools/wordpool_categorized_EN.txt	PIGEON	Birds	10	8	[0, 0, 0]	n/a	catFR1	0	R1426N
1052.182	0.817	1054509	WORD_OFF	n/a	n/a	PIGEON	Birds	10	8	[0, 0, 0]	n/a	catFR1	0	R1426N
1052.999	1.6	1055328	WORD	n/a	wordpools/wordpool_categorized_EN.txt	BEETLE	Insects	11	8	[0, 0, 0]	n/a	catFR1	0	R1426N
1054.599	1.0	1056924	WORD_OFF	n/a	n/a	BEETLE	Insects	11	8	[0, 0, 0]	n/a	catFR1	0	R1426N
1055.599	1.6	1057931	WORD	n/a	wordpools/wordpool_categorized_EN.txt	GNAT	Insects	12	8	[0, 0, 0]	n/a	catFR1	0	R1426N
1057.199	0.002	1059526	WORD_OFF	n/a	n/a	GNAT	Insects	12	8	[0, 0, 0]	n/a	catFR1	0	R1426N
1057.201	0.0	1059526	ENCODING_END	n/a	n/a	n/a	n/a	-999	8	[0, 0, 0]	n/a	catFR1	0	R1426N
1057.201	0.0	1059526	DISTRACT_START	n/a	n/a	n/a	n/a	-999	8	[0, 0, 0]	n/a	catFR1	0	R1426N
1057.199	0.002	1059526	PROB	0.002	n/a	n/a	n/a	-999	8	[1, 2, 5]	13	catFR1	0	R1426N
1057.201	4.015	1059528	START	n/a	n/a	n/a	n/a	-999	8	[-999, -999, -999]	n/a	catFR1	0	R1426N
1061.216	2.984	1063543	PROB	2.984	n/a	n/a	n/a	-999	8	[6, 4, 5]	15	catFR1	0	R1426N
1064.2	2.882	1066527	PROB	2.882	n/a	n/a	n/a	-999	8	[5, 6, 2]	13	catFR1	0	R1426N
1067.082	3.818	1069409	PROB	3.818	n/a	n/a	n/a	-999	8	[4, 7, 8]	19	catFR1	0	R1426N
1070.9	1.571	1073227	PROB	1.571	n/a	n/a	n/a	-999	8	[3, 1, 7]	11	catFR1	0	R1426N
1072.471	2.011	1074798	PROB	2.011	n/a	n/a	n/a	-999	8	[4, 4, 5]	13	catFR1	0	R1426N
1074.482	3.25	1076809	PROB	3.25	n/a	n/a	n/a	-999	8	[8, 8, 8]	24	catFR1	0	R1426N
1077.732	0.0	1080056	DISTRACT_END	n/a	n/a	n/a	n/a	-999	8	[0, 0, 0]	n/a	catFR1	0	R1426N
1077.732	1.166	1080059	STOP	n/a	n/a	n/a	n/a	-999	8	[-999, -999, -999]	n/a	catFR1	0	R1426N
1078.898	0.0	1081221	REC_START	n/a	n/a	n/a	n/a	-999	8	[0, 0, 0]	n/a	catFR1	0	R1426N
1078.898	0.643	1081225	REC_WORD	0.643	n/a	WIND	Weather	1	8	[0, 0, 0]	n/a	catFR1	0	R1426N
1079.541	2.208	1081868	REC_WORD	2.208	n/a	HUMIDITY	Weather	2	8	[0, 0, 0]	n/a	catFR1	0	R1426N
1081.749	1.018	1084076	REC_WORD	1.018	n/a	BLUEBIRD	Birds	5	8	[0, 0, 0]	n/a	catFR1	0	R1426N
1082.767	2.209	1085094	REC_WORD	2.209	n/a	BUTTERFLY	Insects	3	8	[0, 0, 0]	n/a	catFR1	0	R1426N
1084.976	3.17	1087303	REC_WORD	3.17	n/a	BEE	Insects	-999	8	[0, 0, 0]	n/a	catFR1	0	R1426N
1088.146	19.69	1090472	REC_WORD	19.69	n/a	BIRD	n/a	-999	8	[0, 0, 0]	n/a	catFR1	0	R1426N
1107.836	2.331	1110162	REC_WORD	2.331	n/a	THUNDER	Weather	7	8	[0, 0, 0]	n/a	catFR1	0	R1426N
1110.167	13.415	1112491	REC_END	n/a	n/a	n/a	n/a	-999	8	[0, 0, 0]	n/a	catFR1	0	R1426N
1123.582	10.351	1125904	COUNTDOWN_START	n/a	n/a	n/a	n/a	-999	8	[0, 0, 0]	n/a	catFR1	0	R1426N
1133.933	0.0	1136255	COUNTDOWN_END	n/a	n/a	n/a	n/a	-999	8	[0, 0, 0]	n/a	catFR1	0	R1426N
1133.933	1.983	1136255	ENCODING_START	n/a	n/a	n/a	n/a	-999	9	[0, 0, 0]	n/a	catFR1	0	R1426N
1135.916	1.616	1138239	WORD	n/a	wordpools/wordpool_categorized_EN.txt	COUCH	Furniture	1	9	[0, 0, 0]	n/a	catFR1	0	R1426N
1137.532	0.85	1139850	WORD_OFF	n/a	n/a	COUCH	Furniture	1	9	[0, 0, 0]	n/a	catFR1	0	R1426N
1138.382	1.617	1140698	WORD	n/a	wordpools/wordpool_categorized_EN.txt	DESK	Furniture	2	9	[0, 0, 0]	n/a	catFR1	0	R1426N
1139.999	0.883	1142322	WORD_OFF	n/a	n/a	DESK	Furniture	2	9	[0, 0, 0]	n/a	catFR1	0	R1426N
1140.882	1.6	1143199	WORD	n/a	wordpools/wordpool_categorized_EN.txt	RAIN	Weather	3	9	[0, 0, 0]	n/a	catFR1	0	R1426N
1142.482	0.967	1144810	WORD_OFF	n/a	n/a	RAIN	Weather	3	9	[0, 0, 0]	n/a	catFR1	0	R1426N
1143.449	1.6	1145773	WORD	n/a	wordpools/wordpool_categorized_EN.txt	TORNADO	Weather	4	9	[0, 0, 0]	n/a	catFR1	0	R1426N
1145.049	0.8	1147369	WORD_OFF	n/a	n/a	TORNADO	Weather	4	9	[0, 0, 0]	n/a	catFR1	0	R1426N
1145.849	1.6	1148174	WORD	n/a	wordpools/wordpool_categorized_EN.txt	CABBAGE	Vegetables	5	9	[0, 0, 0]	n/a	catFR1	0	R1426N
1147.449	0.867	1149770	WORD_OFF	n/a	n/a	CABBAGE	Vegetables	5	9	[0, 0, 0]	n/a	catFR1	0	R1426N
1148.316	1.6	1150632	WORD	n/a	wordpools/wordpool_categorized_EN.txt	POTATO	Vegetables	6	9	[0, 0, 0]	n/a	catFR1	0	R1426N
1149.916	0.85	1152242	WORD_OFF	n/a	n/a	POTATO	Vegetables	6	9	[0, 0, 0]	n/a	catFR1	0	R1426N
1150.766	1.6	1153091	WORD	n/a	wordpools/wordpool_categorized_EN.txt	SOFA	Furniture	7	9	[0, 0, 0]	n/a	catFR1	0	R1426N
1152.366	0.766	1154686	WORD_OFF	n/a	n/a	SOFA	Furniture	7	9	[0, 0, 0]	n/a	catFR1	0	R1426N
1153.132	1.6	1155448	WORD	n/a	wordpools/wordpool_categorized_EN.txt	BOOKCASE	Furniture	8	9	[0, 0, 0]	n/a	catFR1	0	R1426N
1154.732	0.767	1157059	WORD_OFF	n/a	n/a	BOOKCASE	Furniture	8	9	[0, 0, 0]	n/a	catFR1	0	R1426N
1155.499	1.617	1157821	WORD	n/a	wordpools/wordpool_categorized_EN.txt	CUCUMBER	Vegetables	9	9	[0, 0, 0]	n/a	catFR1	0	R1426N
1157.116	0.799	1159431	WORD_OFF	n/a	n/a	CUCUMBER	Vegetables	9	9	[0, 0, 0]	n/a	catFR1	0	R1426N
1157.915	1.601	1160236	WORD	n/a	wordpools/wordpool_categorized_EN.txt	CARROT	Vegetables	10	9	[0, 0, 0]	n/a	catFR1	0	R1426N
1159.516	0.85	1161832	WORD_OFF	n/a	n/a	CARROT	Vegetables	10	9	[0, 0, 0]	n/a	catFR1	0	R1426N
1160.366	1.6	1162694	WORD	n/a	wordpools/wordpool_categorized_EN.txt	DRIZZLE	Weather	11	9	[0, 0, 0]	n/a	catFR1	0	R1426N
1161.966	0.8	1164290	WORD_OFF	n/a	n/a	DRIZZLE	Weather	11	9	[0, 0, 0]	n/a	catFR1	0	R1426N
1162.766	1.6	1165081	WORD	n/a	wordpools/wordpool_categorized_EN.txt	CLOUD	Weather	12	9	[0, 0, 0]	n/a	catFR1	0	R1426N
1164.366	0.0	1166690	PROB	0.0	n/a	n/a	n/a	-999	9	[8, 1, 5]	14	catFR1	0	R1426N
1164.366	0.002	1166691	WORD_OFF	n/a	n/a	CLOUD	Weather	12	9	[0, 0, 0]	n/a	catFR1	0	R1426N
1164.368	0.0	1166691	ENCODING_END	n/a	n/a	n/a	n/a	-999	9	[0, 0, 0]	n/a	catFR1	0	R1426N
1164.368	0.0	1166691	DISTRACT_START	n/a	n/a	n/a	n/a	-999	9	[0, 0, 0]	n/a	catFR1	0	R1426N
1164.368	3.181	1166692	START	n/a	n/a	n/a	n/a	-999	9	[-999, -999, -999]	n/a	catFR1	0	R1426N
1167.549	1.882	1169873	PROB	1.882	n/a	n/a	n/a	-999	9	[8, 7, 6]	21	catFR1	0	R1426N
1169.431	2.218	1171755	PROB	2.218	n/a	n/a	n/a	-999	9	[4, 3, 1]	8	catFR1	0	R1426N
1171.649	3.217	1173973	PROB	3.217	n/a	n/a	n/a	-999	9	[7, 1, 8]	16	catFR1	0	R1426N
1174.866	2.283	1177190	PROB	2.283	n/a	n/a	n/a	-999	9	[6, 7, 8]	21	catFR1	0	R1426N
1177.149	2.201	1179473	PROB	2.201	n/a	n/a	n/a	-999	9	[7, 4, 2]	13	catFR1	0	R1426N
1179.35	1.983	1181674	PROB	1.983	n/a	n/a	n/a	-999	9	[8, 6, 8]	22	catFR1	0	R1426N
1181.333	1.75	1183657	PROB	1.75	n/a	n/a	n/a	-999	9	[8, 2, 1]	11	catFR1	0	R1426N
1183.083	4.615	1185407	PROB	4.615	n/a	n/a	n/a	-999	9	[3, 3, 5]	11	catFR1	0	R1426N
1187.698	0.0	1190022	STOP	n/a	n/a	n/a	n/a	-999	9	[-999, -999, -999]	n/a	catFR1	0	R1426N
1187.698	1.267	1190025	DISTRACT_END	n/a	n/a	n/a	n/a	-999	9	[0, 0, 0]	n/a	catFR1	0	R1426N
1188.965	0.366	1191290	REC_START	n/a	n/a	n/a	n/a	-999	9	[0, 0, 0]	n/a	catFR1	0	R1426N
1189.331	0.961	1191654	REC_WORD	0.961	n/a	COUCH	Furniture	1	9	[0, 0, 0]	n/a	catFR1	0	R1426N
1190.292	1.105	1192615	REC_WORD	1.105	n/a	REST	n/a	-999	9	[0, 0, 0]	n/a	catFR1	0	R1426N
1191.397	0.589	1193720	REC_WORD	0.589	n/a	RAIN	Weather	3	9	[0, 0, 0]	n/a	catFR1	0	R1426N
1191.986	6.928	1194309	REC_WORD	6.928	n/a	TORNADO	Weather	4	9	[0, 0, 0]	n/a	catFR1	0	R1426N
1198.914	21.322	1201237	REC_WORD	21.322	n/a	WIND	Weather	-999	9	[0, 0, 0]	n/a	catFR1	0	R1426N
1220.236	7.113	1222559	REC_END	n/a	n/a	n/a	n/a	-999	9	[0, 0, 0]	n/a	catFR1	0	R1426N
1227.349	10.35	1229676	COUNTDOWN_START	n/a	n/a	n/a	n/a	-999	9	[0, 0, 0]	n/a	catFR1	0	R1426N
1237.699	0.0	1240013	COUNTDOWN_END	n/a	n/a	n/a	n/a	-999	9	[0, 0, 0]	n/a	catFR1	0	R1426N
1237.699	2.133	1240027	ENCODING_START	n/a	n/a	n/a	n/a	-999	10	[0, 0, 0]	n/a	catFR1	0	R1426N
1239.832	1.6	1242155	WORD	n/a	wordpools/wordpool_categorized_EN.txt	SUNFLOWER	Flowers	1	10	[0, 0, 0]	n/a	catFR1	0	R1426N
1241.432	0.784	1243751	WORD_OFF	n/a	n/a	SUNFLOWER	Flowers	1	10	[0, 0, 0]	n/a	catFR1	0	R1426N
1242.216	1.6	1244541	WORD	n/a	wordpools/wordpool_categorized_EN.txt	LILY	Flowers	2	10	[0, 0, 0]	n/a	catFR1	0	R1426N
1243.816	0.833	1246137	WORD_OFF	n/a	n/a	LILY	Flowers	2	10	[0, 0, 0]	n/a	catFR1	0	R1426N
1244.649	1.616	1246971	WORD	n/a	wordpools/wordpool_categorized_EN.txt	JEEP	Vehicles	3	10	[0, 0, 0]	n/a	catFR1	0	R1426N
1246.265	0.85	1248581	WORD_OFF	n/a	n/a	JEEP	Vehicles	3	10	[0, 0, 0]	n/a	catFR1	0	R1426N
1247.115	1.601	1249430	WORD	n/a	wordpools/wordpool_categorized_EN.txt	BOAT	Vehicles	4	10	[0, 0, 0]	n/a	catFR1	0	R1426N
1248.716	0.865	1251040	WORD_OFF	n/a	n/a	BOAT	Vehicles	4	10	[0, 0, 0]	n/a	catFR1	0	R1426N
1249.581	1.601	1251902	WORD	n/a	wordpools/wordpool_categorized_EN.txt	CEDAR	Trees	5	10	[0, 0, 0]	n/a	catFR1	0	R1426N
1251.182	0.867	1253498	WORD_OFF	n/a	n/a	CEDAR	Trees	5	10	[0, 0, 0]	n/a	catFR1	0	R1426N
1252.049	1.6	1254361	WORD	n/a	wordpools/wordpool_categorized_EN.txt	EVERGREEN	Trees	6	10	[0, 0, 0]	n/a	catFR1	0	R1426N
1253.649	0.783	1255971	WORD_OFF	n/a	n/a	EVERGREEN	Trees	6	10	[0, 0, 0]	n/a	catFR1	0	R1426N
1254.432	1.6	1256747	WORD	n/a	wordpools/wordpool_categorized_EN.txt	PETUNIA	Flowers	7	10	[0, 0, 0]	n/a	catFR1	0	R1426N
1256.032	0.9	1258358	WORD_OFF	n/a	n/a	PETUNIA	Flowers	7	10	[0, 0, 0]	n/a	catFR1	0	R1426N
1256.932	1.617	1259249	WORD	n/a	wordpools/wordpool_categorized_EN.txt	VIOLET	Flowers	8	10	[0, 0, 0]	n/a	catFR1	0	R1426N
1258.549	0.967	1260873	WORD_OFF	n/a	n/a	VIOLET	Flowers	8	10	[0, 0, 0]	n/a	catFR1	0	R1426N
1259.516	1.616	1261837	WORD	n/a	wordpools/wordpool_categorized_EN.txt	BIRCH	Trees	9	10	[0, 0, 0]	n/a	catFR1	0	R1426N
1261.132	0.867	1263447	WORD_OFF	n/a	n/a	BIRCH	Trees	9	10	[0, 0, 0]	n/a	catFR1	0	R1426N
1261.999	1.6	1264324	WORD	n/a	wordpools/wordpool_categorized_EN.txt	MAPLE	Trees	10	10	[0, 0, 0]	n/a	catFR1	0	R1426N
1263.599	0.8	1265920	WORD_OFF	n/a	n/a	MAPLE	Trees	10	10	[0, 0, 0]	n/a	catFR1	0	R1426N
1264.399	1.6	1266710	WORD	n/a	wordpools/wordpool_categorized_EN.txt	MOTORCYCLE	Vehicles	11	10	[0, 0, 0]	n/a	catFR1	0	R1426N
1265.999	0.783	1268321	WORD_OFF	n/a	n/a	MOTORCYCLE	Vehicles	11	10	[0, 0, 0]	n/a	catFR1	0	R1426N
1266.782	1.617	1269097	WORD	n/a	wordpools/wordpool_categorized_EN.txt	SCOOTER	Vehicles	12	10	[0, 0, 0]	n/a	catFR1	0	R1426N
1268.399	0.002	1270722	WORD_OFF	n/a	n/a	SCOOTER	Vehicles	12	10	[0, 0, 0]	n/a	catFR1	0	R1426N
1268.401	0.0	1270722	ENCODING_END	n/a	n/a	n/a	n/a	-999	10	[0, 0, 0]	n/a	catFR1	0	R1426N
1268.401	0.0	1270722	DISTRACT_START	n/a	n/a	n/a	n/a	-999	10	[0, 0, 0]	n/a	catFR1	0	R1426N
1268.401	0.004	1270722	START	n/a	n/a	n/a	n/a	-999	10	[-999, -999, -999]	n/a	catFR1	0	R1426N
1268.405	2.577	1270726	PROB	2.577	n/a	n/a	n/a	-999	10	[1, 5, 6]	12	catFR1	0	R1426N
1270.982	2.784	1273303	PROB	2.784	n/a	n/a	n/a	-999	10	[2, 2, 5]	9	catFR1	0	R1426N
1273.766	2.383	1276087	PROB	2.383	n/a	n/a	n/a	-999	10	[8, 5, 3]	16	catFR1	0	R1426N
1276.149	1.65	1278470	PROB	1.65	n/a	n/a	n/a	-999	10	[3, 2, 7]	12	catFR1	0	R1426N
1277.799	2.484	1280120	PROB	2.484	n/a	n/a	n/a	-999	10	[2, 8, 7]	17	catFR1	0	R1426N
1280.283	2.02	1282604	PROB	2.02	n/a	n/a	n/a	-999	10	[6, 2, 1]	9	catFR1	0	R1426N
1282.303	2.18	1284624	PROB	2.18	n/a	n/a	n/a	-999	10	[4, 1, 3]	8	catFR1	0	R1426N
1284.483	2.682	1286804	PROB	2.682	n/a	n/a	n/a	-999	10	[2, 8, 7]	17	catFR1	0	R1426N
1287.165	2.384	1289486	PROB	2.384	n/a	n/a	n/a	-999	10	[6, 1, 2]	9	catFR1	0	R1426N
1289.549	0.0	1291870	DISTRACT_END	n/a	n/a	n/a	n/a	-999	10	[0, 0, 0]	n/a	catFR1	0	R1426N
1289.549	1.183	1291870	STOP	n/a	n/a	n/a	n/a	-999	10	[-999, -999, -999]	n/a	catFR1	0	R1426N
1290.732	0.0	1293049	REC_START	n/a	n/a	n/a	n/a	-999	10	[0, 0, 0]	n/a	catFR1	0	R1426N
1290.732	2.609	1293053	REC_WORD	2.609	n/a	MOTORCYCLE	Vehicles	11	10	[0, 0, 0]	n/a	catFR1	0	R1426N
1293.341	2.372	1295661	REC_WORD	2.372	n/a	PETUNIA	Flowers	7	10	[0, 0, 0]	n/a	catFR1	0	R1426N
1295.713	9.181	1298033	REC_WORD	9.181	n/a	CAR	Vehicles	-999	10	[0, 0, 0]	n/a	catFR1	0	R1426N
1304.894	2.568	1307214	REC_WORD	2.568	n/a	SUNFLOWER	Flowers	1	10	[0, 0, 0]	n/a	catFR1	0	R1426N
1307.462	14.543	1309782	REC_WORD	14.543	n/a	SEED	n/a	-999	10	[0, 0, 0]	n/a	catFR1	0	R1426N
1322.005	6.294	1324318	REC_END	n/a	n/a	n/a	n/a	-999	10	[0, 0, 0]	n/a	catFR1	0	R1426N
1328.299	10.35	1330615	COUNTDOWN_START	n/a	n/a	n/a	n/a	-999	10	[0, 0, 0]	n/a	catFR1	0	R1426N
1338.649	0.0	1340967	COUNTDOWN_END	n/a	n/a	n/a	n/a	-999	10	[0, 0, 0]	n/a	catFR1	0	R1426N
1338.649	1.916	1340967	ENCODING_START	n/a	n/a	n/a	n/a	-999	11	[0, 0, 0]	n/a	catFR1	0	R1426N
1340.565	1.601	1342879	WORD	n/a	wordpools/wordpool_categorized_EN.txt	OCEAN	Landscapes	1	11	[0, 0, 0]	n/a	catFR1	0	R1426N
1342.166	0.883	1344475	WORD_OFF	n/a	n/a	OCEAN	Landscapes	1	11	[0, 0, 0]	n/a	catFR1	0	R1426N
1343.049	1.617	1345366	WORD	n/a	wordpools/wordpool_categorized_EN.txt	VALLEY	Landscapes	2	11	[0, 0, 0]	n/a	catFR1	0	R1426N
1344.666	0.983	1346976	WORD_OFF	n/a	n/a	VALLEY	Landscapes	2	11	[0, 0, 0]	n/a	catFR1	0	R1426N
1345.649	1.6	1347968	WORD	n/a	wordpools/wordpool_categorized_EN.txt	HICKORY	Trees	3	11	[0, 0, 0]	n/a	catFR1	0	R1426N
1347.249	0.883	1349564	WORD_OFF	n/a	n/a	HICKORY	Trees	3	11	[0, 0, 0]	n/a	catFR1	0	R1426N
1348.132	1.617	1350441	WORD	n/a	wordpools/wordpool_categorized_EN.txt	CYPRESS	Trees	4	11	[0, 0, 0]	n/a	catFR1	0	R1426N
1349.749	0.8	1352065	WORD_OFF	n/a	n/a	CYPRESS	Trees	4	11	[0, 0, 0]	n/a	catFR1	0	R1426N
1350.549	1.616	1352871	WORD	n/a	wordpools/wordpool_categorized_EN.txt	WHALE	OceanAnimals	5	11	[0, 0, 0]	n/a	catFR1	0	R1426N
1352.165	0.951	1354481	WORD_OFF	n/a	n/a	WHALE	OceanAnimals	5	11	[0, 0, 0]	n/a	catFR1	0	R1426N
1353.116	1.601	1355430	WORD	n/a	wordpools/wordpool_categorized_EN.txt	JELLYFISH	OceanAnimals	6	11	[0, 0, 0]	n/a	catFR1	0	R1426N
1354.717	0.899	1357040	WORD_OFF	n/a	n/a	JELLYFISH	OceanAnimals	6	11	[0, 0, 0]	n/a	catFR1	0	R1426N
1355.616	1.616	1357931	WORD	n/a	wordpools/wordpool_categorized_EN.txt	WILLOW	Trees	7	11	[0, 0, 0]	n/a	catFR1	0	R1426N
1357.232	0.767	1359541	WORD_OFF	n/a	n/a	WILLOW	Trees	7	11	[0, 0, 0]	n/a	catFR1	0	R1426N
1357.999	1.6	1360318	WORD	n/a	wordpools/wordpool_categorized_EN.txt	ELM	Trees	8	11	[0, 0, 0]	n/a	catFR1	0	R1426N
1359.599	1.0	1361914	WORD_OFF	n/a	n/a	ELM	Trees	8	11	[0, 0, 0]	n/a	catFR1	0	R1426N
1360.599	1.6	1362920	WORD	n/a	wordpools/wordpool_categorized_EN.txt	FOREST	Landscapes	9	11	[0, 0, 0]	n/a	catFR1	0	R1426N
1362.199	0.95	1364516	WORD_OFF	n/a	n/a	FOREST	Landscapes	9	11	[0, 0, 0]	n/a	catFR1	0	R1426N
1363.149	1.6	1365465	WORD	n/a	wordpools/wordpool_categorized_EN.txt	RIVER	Landscapes	10	11	[0, 0, 0]	n/a	catFR1	0	R1426N
1364.749	0.917	1367060	WORD_OFF	n/a	n/a	RIVER	Landscapes	10	11	[0, 0, 0]	n/a	catFR1	0	R1426N
1365.666	1.6	1367981	WORD	n/a	wordpools/wordpool_categorized_EN.txt	SHRIMP	OceanAnimals	11	11	[0, 0, 0]	n/a	catFR1	0	R1426N
1367.266	0.783	1369576	WORD_OFF	n/a	n/a	SHRIMP	OceanAnimals	11	11	[0, 0, 0]	n/a	catFR1	0	R1426N
1368.049	1.6	1370367	WORD	n/a	wordpools/wordpool_categorized_EN.txt	OCTOPUS	OceanAnimals	12	11	[0, 0, 0]	n/a	catFR1	0	R1426N
1369.649	0.002	1371963	WORD_OFF	n/a	n/a	OCTOPUS	OceanAnimals	12	11	[0, 0, 0]	n/a	catFR1	0	R1426N
1369.651	0.0	1371963	ENCODING_END	n/a	n/a	n/a	n/a	-999	11	[0, 0, 0]	n/a	catFR1	0	R1426N
1369.651	0.0	1371963	DISTRACT_START	n/a	n/a	n/a	n/a	-999	11	[0, 0, 0]	n/a	catFR1	0	R1426N
1369.65	0.001	1371968	PROB	0.001	n/a	n/a	n/a	-999	11	[8, 6, 5]	19	catFR1	0	R1426N
1369.651	4.932	1371969	START	n/a	n/a	n/a	n/a	-999	11	[-999, -999, -999]	n/a	catFR1	0	R1426N
1374.583	2.95	1376901	PROB	2.95	n/a	n/a	n/a	-999	11	[7, 1, 3]	11	catFR1	0	R1426N
1377.533	1.916	1379851	PROB	1.916	n/a	n/a	n/a	-999	11	[7, 8, 1]	16	catFR1	0	R1426N
1379.449	2.432	1381767	PROB	2.432	n/a	n/a	n/a	-999	11	[3, 1, 7]	11	catFR1	0	R1426N
1381.881	2.036	1384199	PROB	2.036	n/a	n/a	n/a	-999	11	[2, 5, 8]	15	catFR1	0	R1426N
1383.917	2.115	1386235	PROB	2.115	n/a	n/a	n/a	-999	11	[5, 1, 1]	7	catFR1	0	R1426N
1386.032	3.468	1388350	PROB	3.468	n/a	n/a	n/a	-999	11	[7, 8, 3]	18	catFR1	0	R1426N
1389.5	2.566	1391818	PROB	2.566	n/a	n/a	n/a	-999	11	[6, 8, 6]	20	catFR1	0	R1426N
1392.066	0.0	1394376	DISTRACT_END	n/a	n/a	n/a	n/a	-999	11	[0, 0, 0]	n/a	catFR1	0	R1426N
1392.066	1.016	1394384	STOP	n/a	n/a	n/a	n/a	-999	11	[-999, -999, -999]	n/a	catFR1	0	R1426N
1393.082	0.0	1395397	REC_START	n/a	n/a	n/a	n/a	-999	11	[0, 0, 0]	n/a	catFR1	0	R1426N
1393.082	0.887	1395400	REC_WORD	0.887	n/a	OCEAN	Landscapes	1	11	[0, 0, 0]	n/a	catFR1	0	R1426N
1393.969	0.794	1396286	REC_WORD	0.794	n/a	VALLEY	Landscapes	2	11	[0, 0, 0]	n/a	catFR1	0	R1426N
1394.763	0.809	1397080	REC_WORD	0.809	n/a	HICKORY	Trees	3	11	[0, 0, 0]	n/a	catFR1	0	R1426N
1395.572	5.258	1397889	REC_WORD	5.258	n/a	WHALE	OceanAnimals	5	11	[0, 0, 0]	n/a	catFR1	0	R1426N
1400.83	10.868	1403147	REC_WORD	10.868	n/a	TORNADO	Weather	-999	11	[0, 0, 0]	n/a	catFR1	0	R1426N
1411.698	12.645	1414015	REC_WORD	12.645	n/a	OCTOPUS	OceanAnimals	12	11	[0, 0, 0]	n/a	catFR1	0	R1426N
1424.343	3.973	1426652	REC_END	n/a	n/a	n/a	n/a	-999	11	[0, 0, 0]	n/a	catFR1	0	R1426N
1428.316	10.35	1430635	COUNTDOWN_START	n/a	n/a	n/a	n/a	-999	11	[0, 0, 0]	n/a	catFR1	0	R1426N
1438.666	0.0	1440986	COUNTDOWN_END	n/a	n/a	n/a	n/a	-999	11	[0, 0, 0]	n/a	catFR1	0	R1426N
1438.666	2.099	1440986	ENCODING_START	n/a	n/a	n/a	n/a	-999	12	[0, 0, 0]	n/a	catFR1	0	R1426N
1440.765	1.6	1443085	WORD	n/a	wordpools/wordpool_categorized_EN.txt	GUITAR	Instruments	1	12	[0, 0, 0]	n/a	catFR1	0	R1426N
1442.365	0.8	1444681	WORD_OFF	n/a	n/a	GUITAR	Instruments	1	12	[0, 0, 0]	n/a	catFR1	0	R1426N
1443.165	1.601	1445472	WORD	n/a	wordpools/wordpool_categorized_EN.txt	CELLO	Instruments	2	12	[0, 0, 0]	n/a	catFR1	0	R1426N
1444.766	0.966	1447082	WORD_OFF	n/a	n/a	CELLO	Instruments	2	12	[0, 0, 0]	n/a	catFR1	0	R1426N
1445.732	1.617	1448045	WORD	n/a	wordpools/wordpool_categorized_EN.txt	TOASTER	Appliances	3	12	[0, 0, 0]	n/a	catFR1	0	R1426N
1447.349	0.934	1449655	WORD_OFF	n/a	n/a	TOASTER	Appliances	3	12	[0, 0, 0]	n/a	catFR1	0	R1426N
1448.283	1.616	1450590	WORD	n/a	wordpools/wordpool_categorized_EN.txt	REFRIGERATOR	Appliances	4	12	[0, 0, 0]	n/a	catFR1	0	R1426N
1449.899	0.917	1452214	WORD_OFF	n/a	n/a	REFRIGERATOR	Appliances	4	12	[0, 0, 0]	n/a	catFR1	0	R1426N
1450.816	1.6	1453134	WORD	n/a	wordpools/wordpool_categorized_EN.txt	MOUNTAIN	Landscapes	5	12	[0, 0, 0]	n/a	catFR1	0	R1426N
1452.416	0.783	1454730	WORD_OFF	n/a	n/a	MOUNTAIN	Landscapes	5	12	[0, 0, 0]	n/a	catFR1	0	R1426N
1453.199	1.616	1455507	WORD	n/a	wordpools/wordpool_categorized_EN.txt	ISLAND	Landscapes	6	12	[0, 0, 0]	n/a	catFR1	0	R1426N
1454.815	0.867	1457131	WORD_OFF	n/a	n/a	ISLAND	Landscapes	6	12	[0, 0, 0]	n/a	catFR1	0	R1426N
1455.682	1.6	1457994	WORD	n/a	wordpools/wordpool_categorized_EN.txt	FLUTE	Instruments	7	12	[0, 0, 0]	n/a	catFR1	0	R1426N
1457.282	0.917	1459590	WORD_OFF	n/a	n/a	FLUTE	Instruments	7	12	[0, 0, 0]	n/a	catFR1	0	R1426N
1458.199	1.617	1460510	WORD	n/a	wordpools/wordpool_categorized_EN.txt	BASS	Instruments	8	12	[0, 0, 0]	n/a	catFR1	0	R1426N
1459.816	0.966	1462134	WORD_OFF	n/a	n/a	BASS	Instruments	8	12	[0, 0, 0]	n/a	catFR1	0	R1426N
1460.782	1.6	1463097	WORD	n/a	wordpools/wordpool_categorized_EN.txt	IRON	Appliances	9	12	[0, 0, 0]	n/a	catFR1	0	R1426N
1462.382	0.934	1464693	WORD_OFF	n/a	n/a	IRON	Appliances	9	12	[0, 0, 0]	n/a	catFR1	0	R1426N
1463.316	1.615	1465628	WORD	n/a	wordpools/wordpool_categorized_EN.txt	BLENDER	Appliances	10	12	[0, 0, 0]	n/a	catFR1	0	R1426N
1464.931	0.918	1467238	WORD_OFF	n/a	n/a	BLENDER	Appliances	10	12	[0, 0, 0]	n/a	catFR1	0	R1426N
1465.849	1.602	1468158	WORD	n/a	wordpools/wordpool_categorized_EN.txt	HILLS	Landscapes	11	12	[0, 0, 0]	n/a	catFR1	0	R1426N
1467.451	0.981	1469768	WORD_OFF	n/a	n/a	HILLS	Landscapes	11	12	[0, 0, 0]	n/a	catFR1	0	R1426N
1468.432	1.617	1470746	WORD	n/a	wordpools/wordpool_categorized_EN.txt	LAKE	Landscapes	12	12	[0, 0, 0]	n/a	catFR1	0	R1426N
1470.049	0.001	1472356	WORD_OFF	n/a	n/a	LAKE	Landscapes	12	12	[0, 0, 0]	n/a	catFR1	0	R1426N
1470.05	0.001	1472365	PROB	0.001	n/a	n/a	n/a	-999	12	[3, 8, 3]	14	catFR1	0	R1426N
1470.051	0.0	1472366	START	n/a	n/a	n/a	n/a	-999	12	[-999, -999, -999]	n/a	catFR1	0	R1426N
1470.051	0.0	1472371	ENCODING_END	n/a	n/a	n/a	n/a	-999	12	[0, 0, 0]	n/a	catFR1	0	R1426N
1470.051	4.348	1472371	DISTRACT_START	n/a	n/a	n/a	n/a	-999	12	[0, 0, 0]	n/a	catFR1	0	R1426N
1474.399	2.751	1476714	PROB	2.751	n/a	n/a	n/a	-999	12	[3, 7, 3]	13	catFR1	0	R1426N
1477.15	2.333	1479465	PROB	2.333	n/a	n/a	n/a	-999	12	[2, 5, 6]	13	catFR1	0	R1426N
1479.483	2.15	1481798	PROB	2.15	n/a	n/a	n/a	-999	12	[4, 4, 6]	14	catFR1	0	R1426N
1481.633	2.433	1483948	PROB	2.433	n/a	n/a	n/a	-999	12	[7, 1, 7]	15	catFR1	0	R1426N
1484.066	2.983	1486381	PROB	2.983	n/a	n/a	n/a	-999	12	[8, 8, 8]	24	catFR1	0	R1426N
1487.049	2.617	1489364	PROB	2.617	n/a	n/a	n/a	-999	12	[8, 2, 3]	13	catFR1	0	R1426N
1489.666	2.433	1491981	PROB	2.433	n/a	n/a	n/a	-999	12	[6, 2, 5]	13	catFR1	0	R1426N
1492.099	0.0	1494410	DISTRACT_END	n/a	n/a	n/a	n/a	-999	12	[0, 0, 0]	n/a	catFR1	0	R1426N
1492.099	1.1	1494414	STOP	n/a	n/a	n/a	n/a	-999	12	[-999, -999, -999]	n/a	catFR1	0	R1426N
1493.199	0.0	1495514	REC_WORD	0.0	n/a	GUITAR	Instruments	1	12	[0, 0, 0]	n/a	catFR1	0	R1426N
1493.199	0.764	1495517	REC_START	n/a	n/a	n/a	n/a	-999	12	[0, 0, 0]	n/a	catFR1	0	R1426N
1493.963	0.979	1496278	REC_WORD	0.979	n/a	REFRIGERATOR	Appliances	4	12	[0, 0, 0]	n/a	catFR1	0	R1426N
1494.942	1.121	1497257	REC_WORD	1.121	n/a	MOUNTAIN	Landscapes	5	12	[0, 0, 0]	n/a	catFR1	0	R1426N
1496.063	4.219	1498377	REC_WORD	4.219	n/a	VALLEY	Landscapes	-999	12	[0, 0, 0]	n/a	catFR1	0	R1426N
1500.282	10.938	1502596	REC_WORD	10.938	n/a	HILLS	Landscapes	11	12	[0, 0, 0]	n/a	catFR1	0	R1426N
1511.22	13.26	1513534	REC_WORD	13.26	n/a	SPROUT	n/a	-999	12	[0, 0, 0]	n/a	catFR1	0	R1426N
1524.48	0.0	1526787	REC_END	n/a	n/a	n/a	n/a	-999	12	[0, 0, 0]	n/a	catFR1	0	R1426N
