onset	duration	sample	trial_type	response_time	stim_file	item_name	category	serialpos	list	test	answer	experiment	session	subject
0.0	164.916	317049	INSTRUCT_START	n/a	n/a	n/a	n/a	-999	-999	[0, 0, 0]	n/a	catFR1	0	R1542J
164.916	131.017	481948	INSTRUCT_END	n/a	n/a	n/a	n/a	-999	-999	[0, 0, 0]	n/a	catFR1	0	R1542J
295.933	10.349	612961	COUNTDOWN_START	n/a	n/a	n/a	n/a	-999	-999	[0, 0, 0]	n/a	catFR1	0	R1542J
306.282	0.0	623304	COUNTDOWN_END	n/a	n/a	n/a	n/a	-999	-999	[0, 0, 0]	n/a	catFR1	0	R1542J
306.282	2.051	623320	ENCODING_START	n/a	n/a	n/a	n/a	-999	-1	[0, 0, 0]	n/a	catFR1	0	R1542J
308.333	1.6	625369	WORD	n/a	n/a	PEN	OfficeSupplies	1	-1	[0, 0, 0]	n/a	catFR1	0	R1542J
309.933	0.916	626963	WORD_OFF	n/a	n/a	PEN	OfficeSupplies	1	-1	[0, 0, 0]	n/a	catFR1	0	R1542J
310.849	1.617	627873	WORD	n/a	n/a	TAPE	OfficeSupplies	2	-1	[0, 0, 0]	n/a	catFR1	0	R1542J
312.466	0.783	629500	WORD_OFF	n/a	n/a	TAPE	OfficeSupplies	2	-1	[0, 0, 0]	n/a	catFR1	0	R1542J
313.249	1.6	630280	WORD	n/a	n/a	CABINET	Furniture	3	-1	[0, 0, 0]	n/a	catFR1	0	R1542J
314.849	1.0	631874	WORD_OFF	n/a	n/a	CABINET	Furniture	3	-1	[0, 0, 0]	n/a	catFR1	0	R1542J
315.849	1.6	632882	WORD	n/a	n/a	DESK	Furniture	4	-1	[0, 0, 0]	n/a	catFR1	0	R1542J
317.449	0.933	634476	WORD_OFF	n/a	n/a	DESK	Furniture	4	-1	[0, 0, 0]	n/a	catFR1	0	R1542J
318.382	1.617	635403	WORD	n/a	n/a	HALLWAY	Building	5	-1	[0, 0, 0]	n/a	catFR1	0	R1542J
319.999	0.967	637029	WORD_OFF	n/a	n/a	HALLWAY	Building	5	-1	[0, 0, 0]	n/a	catFR1	0	R1542J
320.966	1.616	637989	WORD	n/a	n/a	ROOF	Building	6	-1	[0, 0, 0]	n/a	catFR1	0	R1542J
322.582	0.884	639615	WORD_OFF	n/a	n/a	ROOF	Building	6	-1	[0, 0, 0]	n/a	catFR1	0	R1542J
323.466	1.6	640493	WORD	n/a	n/a	TABLE	Furniture	7	-1	[0, 0, 0]	n/a	catFR1	0	R1542J
325.066	0.799	642087	WORD_OFF	n/a	n/a	TABLE	Furniture	7	-1	[0, 0, 0]	n/a	catFR1	0	R1542J
325.865	1.618	642900	WORD	n/a	n/a	SHELF	Furniture	8	-1	[0, 0, 0]	n/a	catFR1	0	R1542J
327.483	0.965	644510	WORD_OFF	n/a	n/a	SHELF	Furniture	8	-1	[0, 0, 0]	n/a	catFR1	0	R1542J
328.448	1.601	645469	WORD	n/a	n/a	NOTEBOOK	OfficeSupplies	9	-1	[0, 0, 0]	n/a	catFR1	0	R1542J
330.049	0.984	647079	WORD_OFF	n/a	n/a	NOTEBOOK	OfficeSupplies	9	-1	[0, 0, 0]	n/a	catFR1	0	R1542J
331.033	1.615	648055	WORD	n/a	n/a	BINDER	OfficeSupplies	10	-1	[0, 0, 0]	n/a	catFR1	0	R1542J
332.648	0.85	649681	WORD_OFF	n/a	n/a	BINDER	OfficeSupplies	10	-1	[0, 0, 0]	n/a	catFR1	0	R1542J
333.498	1.6	650527	WORD	n/a	n/a	STAIRS	Building	11	-1	[0, 0, 0]	n/a	catFR1	0	R1542J
335.098	0.817	652121	WORD_OFF	n/a	n/a	STAIRS	Building	11	-1	[0, 0, 0]	n/a	catFR1	0	R1542J
335.915	1.601	652934	WORD	n/a	n/a	FLOOR	Building	12	-1	[0, 0, 0]	n/a	catFR1	0	R1542J
337.516	0.0	654539	START	n/a	n/a	n/a	n/a	-999	-1	[-999, -999, -999]	n/a	catFR1	0	R1542J
337.516	0.0	654539	PROB	4.783	n/a	n/a	n/a	-999	-1	[2, 6, 3]	11.0	catFR1	0	R1542J
337.515	0.001	654544	WORD_OFF	n/a	n/a	FLOOR	Building	12	-1	[0, 0, 0]	n/a	catFR1	0	R1542J
337.516	0.0	654544	ENCODING_END	n/a	n/a	n/a	n/a	-999	-1	[0, 0, 0]	n/a	catFR1	0	R1542J
337.516	4.8	654544	DISTRACT_START	n/a	n/a	n/a	n/a	-999	-1	[0, 0, 0]	n/a	catFR1	0	R1542J
342.316	3.632	659339	PROB	3.615	n/a	n/a	n/a	-999	-1	[2, 1, 6]	9.0	catFR1	0	R1542J
345.948	3.084	662971	PROB	3.067	n/a	n/a	n/a	-999	-1	[5, 2, 5]	12.0	catFR1	0	R1542J
349.032	3.101	666054	PROB	3.082	n/a	n/a	n/a	-999	-1	[8, 8, 1]	17.0	catFR1	0	R1542J
352.133	2.415	669155	PROB	2.399	n/a	n/a	n/a	-999	-1	[2, 2, 3]	7.0	catFR1	0	R1542J
354.548	3.4	671570	PROB	3.383	n/a	n/a	n/a	-999	-1	[7, 2, 7]	16.0	catFR1	0	R1542J
357.948	0.0	674969	DISTRACT_END	n/a	n/a	n/a	n/a	-999	-1	[0, 0, 0]	n/a	catFR1	0	R1542J
357.948	1.85	674970	STOP	n/a	n/a	n/a	n/a	-999	-1	[-999, -999, -999]	n/a	catFR1	0	R1542J
359.798	3.113	676823	REC_START	n/a	n/a	n/a	n/a	-999	-1	[0, 0, 0]	n/a	catFR1	0	R1542J
362.911	2.066	679933	REC_WORD	3.113	n/a	SHELF	Furniture	8	-1	[0, 0, 0]	n/a	catFR1	0	R1542J
364.977	1.286	681999	REC_WORD	5.179	n/a	CABINET	Furniture	3	-1	[0, 0, 0]	n/a	catFR1	0	R1542J
366.263	1.699	683285	REC_WORD	6.465	n/a	FLOOR	Building	12	-1	[0, 0, 0]	n/a	catFR1	0	R1542J
367.962	1.632	684984	REC_WORD	8.164	n/a	STAIRS	Building	11	-1	[0, 0, 0]	n/a	catFR1	0	R1542J
369.594	2.737	686616	REC_WORD	9.796	n/a	BINDER	OfficeSupplies	10	-1	[0, 0, 0]	n/a	catFR1	0	R1542J
372.331	7.057	689352	REC_WORD	12.533	n/a	NOTEBOOK	OfficeSupplies	9	-1	[0, 0, 0]	n/a	catFR1	0	R1542J
379.388	10.22	696409	REC_WORD	19.59	n/a	ROOF	Building	6	-1	[0, 0, 0]	n/a	catFR1	0	R1542J
389.608	0.385	706629	REC_WORD	29.81	n/a	TABLE	Furniture	7	-1	[0, 0, 0]	n/a	catFR1	0	R1542J
389.993	37.573	707022	REC_END	n/a	n/a	n/a	n/a	-999	-1	[0, 0, 0]	n/a	catFR1	0	R1542J
427.566	10.349	744588	COUNTDOWN_START	n/a	n/a	n/a	n/a	-999	1	[0, 0, 0]	n/a	catFR1	0	R1542J
437.915	0.0	754931	COUNTDOWN_END	n/a	n/a	n/a	n/a	-999	1	[0, 0, 0]	n/a	catFR1	0	R1542J
437.915	2.167	754947	ENCODING_START	n/a	n/a	n/a	n/a	-999	1	[0, 0, 0]	n/a	catFR1	0	R1542J
440.082	1.618	757110	WORD	n/a	wordpools/wordpool_categorized_EN.txt	BUTTERFLY	Insects	1	1	[0, 0, 0]	n/a	catFR1	0	R1542J
441.7	0.898	758720	WORD_OFF	n/a	n/a	BUTTERFLY	Insects	1	1	[0, 0, 0]	n/a	catFR1	0	R1542J
442.598	1.617	759614	WORD	n/a	wordpools/wordpool_categorized_EN.txt	ROACH	Insects	2	1	[0, 0, 0]	n/a	catFR1	0	R1542J
444.215	0.817	761240	WORD_OFF	n/a	n/a	ROACH	Insects	2	1	[0, 0, 0]	n/a	catFR1	0	R1542J
445.032	1.6	762054	WORD	n/a	wordpools/wordpool_categorized_EN.txt	SPANDEX	Fabric	3	1	[0, 0, 0]	n/a	catFR1	0	R1542J
446.632	0.783	763647	WORD_OFF	n/a	n/a	SPANDEX	Fabric	3	1	[0, 0, 0]	n/a	catFR1	0	R1542J
447.415	1.617	764444	WORD	n/a	wordpools/wordpool_categorized_EN.txt	COTTON	Fabric	4	1	[0, 0, 0]	n/a	catFR1	0	R1542J
449.032	0.901	766054	WORD_OFF	n/a	n/a	COTTON	Fabric	4	1	[0, 0, 0]	n/a	catFR1	0	R1542J
449.933	1.615	766948	WORD	n/a	wordpools/wordpool_categorized_EN.txt	OCEAN	Landscapes	5	1	[0, 0, 0]	n/a	catFR1	0	R1542J
451.548	0.95	768575	WORD_OFF	n/a	n/a	OCEAN	Landscapes	5	1	[0, 0, 0]	n/a	catFR1	0	R1542J
452.498	1.6	769518	WORD	n/a	wordpools/wordpool_categorized_EN.txt	ISLAND	Landscapes	6	1	[0, 0, 0]	n/a	catFR1	0	R1542J
454.098	0.767	771128	WORD_OFF	n/a	n/a	ISLAND	Landscapes	6	1	[0, 0, 0]	n/a	catFR1	0	R1542J
454.865	1.616	771892	WORD	n/a	wordpools/wordpool_categorized_EN.txt	SATIN	Fabric	7	1	[0, 0, 0]	n/a	catFR1	0	R1542J
456.481	0.766	773502	WORD_OFF	n/a	n/a	SATIN	Fabric	7	1	[0, 0, 0]	n/a	catFR1	0	R1542J
457.247	1.601	774267	WORD	n/a	wordpools/wordpool_categorized_EN.txt	FLEECE	Fabric	8	1	[0, 0, 0]	n/a	catFR1	0	R1542J
458.848	0.784	775876	WORD_OFF	n/a	n/a	FLEECE	Fabric	8	1	[0, 0, 0]	n/a	catFR1	0	R1542J
459.632	1.6	776657	WORD	n/a	wordpools/wordpool_categorized_EN.txt	ANT	Insects	9	1	[0, 0, 0]	n/a	catFR1	0	R1542J
461.232	0.982	778251	WORD_OFF	n/a	n/a	ANT	Insects	9	1	[0, 0, 0]	n/a	catFR1	0	R1542J
462.214	1.602	779243	WORD	n/a	wordpools/wordpool_categorized_EN.txt	LADYBUG	Insects	10	1	[0, 0, 0]	n/a	catFR1	0	R1542J
463.816	0.798	780836	WORD_OFF	n/a	n/a	LADYBUG	Insects	10	1	[0, 0, 0]	n/a	catFR1	0	R1542J
464.614	1.601	781633	WORD	n/a	wordpools/wordpool_categorized_EN.txt	VALLEY	Landscapes	11	1	[0, 0, 0]	n/a	catFR1	0	R1542J
466.215	0.883	783243	WORD_OFF	n/a	n/a	VALLEY	Landscapes	11	1	[0, 0, 0]	n/a	catFR1	0	R1542J
467.098	1.601	784121	WORD	n/a	wordpools/wordpool_categorized_EN.txt	STREAM	Landscapes	12	1	[0, 0, 0]	n/a	catFR1	0	R1542J
468.699	0.0	785715	WORD_OFF	n/a	n/a	STREAM	Landscapes	12	1	[0, 0, 0]	n/a	catFR1	0	R1542J
468.699	0.001	785716	PROB	3.716	n/a	n/a	n/a	-999	1	[4, 8, 4]	16.0	catFR1	0	R1542J
468.7	0.0	785717	START	n/a	n/a	n/a	n/a	-999	1	[-999, -999, -999]	n/a	catFR1	0	R1542J
468.7	0.0	785731	ENCODING_END	n/a	n/a	n/a	n/a	-999	1	[0, 0, 0]	n/a	catFR1	0	R1542J
468.7	3.732	785731	DISTRACT_START	n/a	n/a	n/a	n/a	-999	1	[0, 0, 0]	n/a	catFR1	0	R1542J
472.432	4.234	789449	PROB	4.216	n/a	n/a	n/a	-999	1	[5, 3, 6]	14.0	catFR1	0	R1542J
476.666	6.433	793683	PROB	6.417	n/a	n/a	n/a	-999	1	[4, 5, 5]	14.0	catFR1	0	R1542J
483.099	2.316	800116	PROB	2.299	n/a	n/a	n/a	-999	1	[5, 2, 1]	8.0	catFR1	0	R1542J
485.415	2.867	802432	PROB	2.849	n/a	n/a	n/a	-999	1	[2, 7, 3]	12.0	catFR1	0	R1542J
488.282	3.133	805298	PROB	3.116	n/a	n/a	n/a	-999	1	[7, 1, 6]	14.0	catFR1	0	R1542J
491.415	0.0	808431	STOP	n/a	n/a	n/a	n/a	-999	1	[-999, -999, -999]	n/a	catFR1	0	R1542J
491.415	1.633	808434	DISTRACT_END	n/a	n/a	n/a	n/a	-999	1	[0, 0, 0]	n/a	catFR1	0	R1542J
493.048	1.955	810076	REC_START	n/a	n/a	n/a	n/a	-999	1	[0, 0, 0]	n/a	catFR1	0	R1542J
495.003	1.796	812019	REC_WORD	1.955	n/a	SPANDEX	Fabric	3	1	[0, 0, 0]	n/a	catFR1	0	R1542J
496.799	1.352	813815	REC_WORD	3.751	n/a	SATIN	Fabric	7	1	[0, 0, 0]	n/a	catFR1	0	R1542J
498.151	1.577	815167	REC_WORD	5.103	n/a	ISLAND	Landscapes	6	1	[0, 0, 0]	n/a	catFR1	0	R1542J
499.728	1.246	816744	REC_WORD	6.68	n/a	VALLEY	Landscapes	11	1	[0, 0, 0]	n/a	catFR1	0	R1542J
500.974	1.938	817990	REC_WORD	7.926	n/a	STREAM	Landscapes	12	1	[0, 0, 0]	n/a	catFR1	0	R1542J
502.912	1.127	819928	REC_WORD	9.864	n/a	OCEAN	Landscapes	5	1	[0, 0, 0]	n/a	catFR1	0	R1542J
504.039	1.695	821055	REC_WORD	10.991	n/a	FLEECE	Fabric	8	1	[0, 0, 0]	n/a	catFR1	0	R1542J
505.734	7.399	822750	REC_WORD	12.686	n/a	COTTON	Fabric	4	1	[0, 0, 0]	n/a	catFR1	0	R1542J
513.133	1.847	830148	REC_WORD	20.085	n/a	BUTTERFLY	Insects	1	1	[0, 0, 0]	n/a	catFR1	0	R1542J
514.98	8.237	831995	REC_WORD	21.932	n/a	ROACH	Insects	2	1	[0, 0, 0]	n/a	catFR1	0	R1542J
523.217	2.566	840243	REC_END	n/a	n/a	n/a	n/a	-999	1	[0, 0, 0]	n/a	catFR1	0	R1542J
525.783	10.35	842812	COUNTDOWN_START	n/a	n/a	n/a	n/a	-999	2	[0, 0, 0]	n/a	catFR1	0	R1542J
536.133	0.0	853155	COUNTDOWN_END	n/a	n/a	n/a	n/a	-999	2	[0, 0, 0]	n/a	catFR1	0	R1542J
536.133	2.167	853155	ENCODING_START	n/a	n/a	n/a	n/a	-999	2	[0, 0, 0]	n/a	catFR1	0	R1542J
538.3	1.6	855318	WORD	n/a	wordpools/wordpool_categorized_EN.txt	CORKSCREW	KitchenTools	1	2	[0, 0, 0]	n/a	catFR1	0	R1542J
539.9	0.867	856911	WORD_OFF	n/a	n/a	CORKSCREW	KitchenTools	1	2	[0, 0, 0]	n/a	catFR1	0	R1542J
540.767	1.616	857790	WORD	n/a	wordpools/wordpool_categorized_EN.txt	COLANDER	KitchenTools	2	2	[0, 0, 0]	n/a	catFR1	0	R1542J
542.383	0.767	859400	WORD_OFF	n/a	n/a	COLANDER	KitchenTools	2	2	[0, 0, 0]	n/a	catFR1	0	R1542J
543.15	1.616	860164	WORD	n/a	wordpools/wordpool_categorized_EN.txt	MICROWAVE	Electronics	3	2	[0, 0, 0]	n/a	catFR1	0	R1542J
544.766	0.783	861790	WORD_OFF	n/a	n/a	MICROWAVE	Electronics	3	2	[0, 0, 0]	n/a	catFR1	0	R1542J
545.549	1.601	862571	WORD	n/a	wordpools/wordpool_categorized_EN.txt	TELEVISION	Electronics	4	2	[0, 0, 0]	n/a	catFR1	0	R1542J
547.15	0.949	864164	WORD_OFF	n/a	n/a	TELEVISION	Electronics	4	2	[0, 0, 0]	n/a	catFR1	0	R1542J
548.099	1.601	865124	WORD	n/a	wordpools/wordpool_categorized_EN.txt	PUZZLE	Toys	5	2	[0, 0, 0]	n/a	catFR1	0	R1542J
549.7	0.783	866718	WORD_OFF	n/a	n/a	PUZZLE	Toys	5	2	[0, 0, 0]	n/a	catFR1	0	R1542J
550.483	1.6	867498	WORD	n/a	wordpools/wordpool_categorized_EN.txt	BALL	Toys	6	2	[0, 0, 0]	n/a	catFR1	0	R1542J
552.083	1.0	869108	WORD_OFF	n/a	n/a	BALL	Toys	6	2	[0, 0, 0]	n/a	catFR1	0	R1542J
553.083	1.6	870100	WORD	n/a	wordpools/wordpool_categorized_EN.txt	CALCULATOR	Electronics	7	2	[0, 0, 0]	n/a	catFR1	0	R1542J
554.683	0.949	871710	WORD_OFF	n/a	n/a	CALCULATOR	Electronics	7	2	[0, 0, 0]	n/a	catFR1	0	R1542J
555.632	1.601	872653	WORD	n/a	wordpools/wordpool_categorized_EN.txt	HEADPHONES	Electronics	8	2	[0, 0, 0]	n/a	catFR1	0	R1542J
557.233	0.817	874247	WORD_OFF	n/a	n/a	HEADPHONES	Electronics	8	2	[0, 0, 0]	n/a	catFR1	0	R1542J
558.05	1.616	875060	WORD	n/a	wordpools/wordpool_categorized_EN.txt	TONGS	KitchenTools	9	2	[0, 0, 0]	n/a	catFR1	0	R1542J
559.666	0.85	876686	WORD_OFF	n/a	n/a	TONGS	KitchenTools	9	2	[0, 0, 0]	n/a	catFR1	0	R1542J
560.516	1.617	877532	WORD	n/a	wordpools/wordpool_categorized_EN.txt	STRAINER	KitchenTools	10	2	[0, 0, 0]	n/a	catFR1	0	R1542J
562.133	0.967	879158	WORD_OFF	n/a	n/a	STRAINER	KitchenTools	10	2	[0, 0, 0]	n/a	catFR1	0	R1542J
563.1	1.6	880118	WORD	n/a	wordpools/wordpool_categorized_EN.txt	DOLLHOUSE	Toys	11	2	[0, 0, 0]	n/a	catFR1	0	R1542J
564.7	0.767	881711	WORD_OFF	n/a	n/a	DOLLHOUSE	Toys	11	2	[0, 0, 0]	n/a	catFR1	0	R1542J
565.467	1.616	882492	WORD	n/a	wordpools/wordpool_categorized_EN.txt	FRISBEE	Toys	12	2	[0, 0, 0]	n/a	catFR1	0	R1542J
567.083	0.001	884096	PROB	2.934	n/a	n/a	n/a	-999	2	[6, 2, 2]	10.0	catFR1	0	R1542J
567.084	0.0	884097	START	n/a	n/a	n/a	n/a	-999	2	[-999, -999, -999]	n/a	catFR1	0	R1542J
567.083	0.001	884102	WORD_OFF	n/a	n/a	FRISBEE	Toys	12	2	[0, 0, 0]	n/a	catFR1	0	R1542J
567.084	0.0	884102	ENCODING_END	n/a	n/a	n/a	n/a	-999	2	[0, 0, 0]	n/a	catFR1	0	R1542J
567.084	2.95	884102	DISTRACT_START	n/a	n/a	n/a	n/a	-999	2	[0, 0, 0]	n/a	catFR1	0	R1542J
570.034	2.383	887047	PROB	2.366	n/a	n/a	n/a	-999	2	[2, 8, 1]	11.0	catFR1	0	R1542J
572.417	3.417	889430	PROB	3.4	n/a	n/a	n/a	-999	2	[6, 7, 4]	17.0	catFR1	0	R1542J
575.834	2.149	892847	PROB	2.132	n/a	n/a	n/a	-999	2	[6, 5, 1]	12.0	catFR1	0	R1542J
577.983	3.067	894996	PROB	3.05	n/a	n/a	n/a	-999	2	[3, 8, 8]	19.0	catFR1	0	R1542J
581.05	2.451	898062	PROB	2.433	n/a	n/a	n/a	-999	2	[3, 2, 6]	11.0	catFR1	0	R1542J
583.501	3.181	900513	PROB	3.166	n/a	n/a	n/a	-999	2	[6, 6, 3]	15.0	catFR1	0	R1542J
586.682	3.251	903694	PROB	3.234	n/a	n/a	n/a	-999	2	[3, 7, 3]	13.0	catFR1	0	R1542J
589.933	0.0	906945	STOP	n/a	n/a	n/a	n/a	-999	2	[-999, -999, -999]	n/a	catFR1	0	R1542J
589.933	1.834	906950	DISTRACT_END	n/a	n/a	n/a	n/a	-999	2	[0, 0, 0]	n/a	catFR1	0	R1542J
591.767	1.223	908788	REC_START	n/a	n/a	n/a	n/a	-999	2	[0, 0, 0]	n/a	catFR1	0	R1542J
592.99	1.372	910002	REC_WORD	1.223	n/a	COLANDER	KitchenTools	2	2	[0, 0, 0]	n/a	catFR1	0	R1542J
594.362	2.209	911374	REC_WORD	2.595	n/a	STRAINER	KitchenTools	10	2	[0, 0, 0]	n/a	catFR1	0	R1542J
596.571	25.393	913583	REC_WORD	4.804	n/a	MICROWAVE	Electronics	3	2	[0, 0, 0]	n/a	catFR1	0	R1542J
621.964	1.404	938987	REC_END	n/a	n/a	n/a	n/a	-999	2	[0, 0, 0]	n/a	catFR1	0	R1542J
623.368	10.349	940386	COUNTDOWN_START	n/a	n/a	n/a	n/a	-999	3	[0, 0, 0]	n/a	catFR1	0	R1542J
633.717	0.0	950728	COUNTDOWN_END	n/a	n/a	n/a	n/a	-999	3	[0, 0, 0]	n/a	catFR1	0	R1542J
633.717	2.1	950728	ENCODING_START	n/a	n/a	n/a	n/a	-999	3	[0, 0, 0]	n/a	catFR1	0	R1542J
635.817	1.616	952826	WORD	n/a	wordpools/wordpool_categorized_EN.txt	FOREST	Landscapes	1	3	[0, 0, 0]	n/a	catFR1	0	R1542J
637.433	0.884	954453	WORD_OFF	n/a	n/a	FOREST	Landscapes	1	3	[0, 0, 0]	n/a	catFR1	0	R1542J
638.317	1.615	955331	WORD	n/a	wordpools/wordpool_categorized_EN.txt	LAKE	Landscapes	2	3	[0, 0, 0]	n/a	catFR1	0	R1542J
639.932	0.867	956941	WORD_OFF	n/a	n/a	LAKE	Landscapes	2	3	[0, 0, 0]	n/a	catFR1	0	R1542J
640.799	1.601	957819	WORD	n/a	wordpools/wordpool_categorized_EN.txt	VIOLET	Flowers	3	3	[0, 0, 0]	n/a	catFR1	0	R1542J
642.4	0.816	959413	WORD_OFF	n/a	n/a	VIOLET	Flowers	3	3	[0, 0, 0]	n/a	catFR1	0	R1542J
643.216	1.6	960226	WORD	n/a	wordpools/wordpool_categorized_EN.txt	ORCHID	Flowers	4	3	[0, 0, 0]	n/a	catFR1	0	R1542J
644.816	0.833	961836	WORD_OFF	n/a	n/a	ORCHID	Flowers	4	3	[0, 0, 0]	n/a	catFR1	0	R1542J
645.649	1.6	962665	WORD	n/a	wordpools/wordpool_categorized_EN.txt	VELVET	Fabric	5	3	[0, 0, 0]	n/a	catFR1	0	R1542J
647.249	0.901	964259	WORD_OFF	n/a	n/a	VELVET	Fabric	5	3	[0, 0, 0]	n/a	catFR1	0	R1542J
648.15	1.6	965169	WORD	n/a	wordpools/wordpool_categorized_EN.txt	SILK	Fabric	6	3	[0, 0, 0]	n/a	catFR1	0	R1542J
649.75	0.782	966763	WORD_OFF	n/a	n/a	SILK	Fabric	6	3	[0, 0, 0]	n/a	catFR1	0	R1542J
650.532	1.601	967544	WORD	n/a	wordpools/wordpool_categorized_EN.txt	CREEK	Landscapes	7	3	[0, 0, 0]	n/a	catFR1	0	R1542J
652.133	0.984	969154	WORD_OFF	n/a	n/a	CREEK	Landscapes	7	3	[0, 0, 0]	n/a	catFR1	0	R1542J
653.117	1.599	970129	WORD	n/a	wordpools/wordpool_categorized_EN.txt	BEACH	Landscapes	8	3	[0, 0, 0]	n/a	catFR1	0	R1542J
654.716	0.85	971723	WORD_OFF	n/a	n/a	BEACH	Landscapes	8	3	[0, 0, 0]	n/a	catFR1	0	R1542J
655.566	1.6	972585	WORD	n/a	wordpools/wordpool_categorized_EN.txt	NYLON	Fabric	9	3	[0, 0, 0]	n/a	catFR1	0	R1542J
657.166	0.984	974179	WORD_OFF	n/a	n/a	NYLON	Fabric	9	3	[0, 0, 0]	n/a	catFR1	0	R1542J
658.15	1.617	975171	WORD	n/a	wordpools/wordpool_categorized_EN.txt	SUEDE	Fabric	10	3	[0, 0, 0]	n/a	catFR1	0	R1542J
659.767	0.866	976781	WORD_OFF	n/a	n/a	SUEDE	Fabric	10	3	[0, 0, 0]	n/a	catFR1	0	R1542J
660.633	1.6	977643	WORD	n/a	wordpools/wordpool_categorized_EN.txt	ROSE	Flowers	11	3	[0, 0, 0]	n/a	catFR1	0	R1542J
662.233	0.967	979252	WORD_OFF	n/a	n/a	ROSE	Flowers	11	3	[0, 0, 0]	n/a	catFR1	0	R1542J
663.2	1.6	980212	WORD	n/a	wordpools/wordpool_categorized_EN.txt	PETUNIA	Flowers	12	3	[0, 0, 0]	n/a	catFR1	0	R1542J
664.8	0.0	981806	WORD_OFF	n/a	n/a	PETUNIA	Flowers	12	3	[0, 0, 0]	n/a	catFR1	0	R1542J
664.8	0.001	981809	PROB	3.166	n/a	n/a	n/a	-999	3	[4, 3, 3]	10.0	catFR1	0	R1542J
664.801	0.0	981810	START	n/a	n/a	n/a	n/a	-999	3	[-999, -999, -999]	n/a	catFR1	0	R1542J
664.801	0.0	981822	ENCODING_END	n/a	n/a	n/a	n/a	-999	3	[0, 0, 0]	n/a	catFR1	0	R1542J
664.801	3.183	981822	DISTRACT_START	n/a	n/a	n/a	n/a	-999	3	[0, 0, 0]	n/a	catFR1	0	R1542J
667.984	2.95	984993	PROB	2.932	n/a	n/a	n/a	-999	3	[4, 3, 3]	10.0	catFR1	0	R1542J
670.934	2.783	987943	PROB	2.765	n/a	n/a	n/a	-999	3	[7, 3, 5]	15.0	catFR1	0	R1542J
673.717	2.733	990726	PROB	2.716	n/a	n/a	n/a	-999	3	[6, 5, 2]	13.0	catFR1	0	R1542J
676.45	2.5	993458	PROB	2.483	n/a	n/a	n/a	-999	3	[2, 6, 5]	13.0	catFR1	0	R1542J
678.95	2.233	995958	PROB	2.216	n/a	n/a	n/a	-999	3	[2, 3, 7]	12.0	catFR1	0	R1542J
681.183	2.035	998191	PROB	2.016	n/a	n/a	n/a	-999	3	[4, 7, 1]	12.0	catFR1	0	R1542J
683.218	3.365	1000226	PROB	3.349	n/a	n/a	n/a	-999	3	[8, 1, 1]	10.0	catFR1	0	R1542J
686.583	0.0	1003591	STOP	n/a	n/a	n/a	n/a	-999	3	[-999, -999, -999]	n/a	catFR1	0	R1542J
686.583	1.7	1003597	DISTRACT_END	n/a	n/a	n/a	n/a	-999	3	[0, 0, 0]	n/a	catFR1	0	R1542J
688.283	1.104	1005288	REC_START	n/a	n/a	n/a	n/a	-999	3	[0, 0, 0]	n/a	catFR1	0	R1542J
689.387	1.561	1006395	REC_WORD	1.104	n/a	PETUNIA	Flowers	12	3	[0, 0, 0]	n/a	catFR1	0	R1542J
690.948	1.495	1007956	REC_WORD	2.665	n/a	ORCHID	Flowers	4	3	[0, 0, 0]	n/a	catFR1	0	R1542J
692.443	2.16	1009451	REC_WORD	4.16	n/a	NYLON	Fabric	9	3	[0, 0, 0]	n/a	catFR1	0	R1542J
694.603	2.477	1011611	REC_WORD	6.32	n/a	FOREST	Landscapes	1	3	[0, 0, 0]	n/a	catFR1	0	R1542J
697.08	3.635	1014088	REC_WORD	8.797	n/a	LAKE	Landscapes	2	3	[0, 0, 0]	n/a	catFR1	0	R1542J
700.715	7.989	1017722	REC_WORD	12.432	n/a	VIOLET	Flowers	3	3	[0, 0, 0]	n/a	catFR1	0	R1542J
708.704	9.789	1025711	REC_WORD	20.421	n/a	SUEDE	Fabric	10	3	[0, 0, 0]	n/a	catFR1	0	R1542J
718.493	1.871	1035504	REC_END	n/a	n/a	n/a	n/a	-999	3	[0, 0, 0]	n/a	catFR1	0	R1542J
720.364	10.351	1037374	COUNTDOWN_START	n/a	n/a	n/a	n/a	-999	4	[0, 0, 0]	n/a	catFR1	0	R1542J
730.715	0.0	1047733	COUNTDOWN_END	n/a	n/a	n/a	n/a	-999	4	[0, 0, 0]	n/a	catFR1	0	R1542J
730.715	1.983	1047733	ENCODING_START	n/a	n/a	n/a	n/a	-999	4	[0, 0, 0]	n/a	catFR1	0	R1542J
732.698	1.616	1049717	WORD	n/a	wordpools/wordpool_categorized_EN.txt	BEE	Insects	1	4	[0, 0, 0]	n/a	catFR1	0	R1542J
734.314	0.867	1051327	WORD_OFF	n/a	n/a	BEE	Insects	1	4	[0, 0, 0]	n/a	catFR1	0	R1542J
735.181	1.601	1052189	WORD	n/a	wordpools/wordpool_categorized_EN.txt	FLY	Insects	2	4	[0, 0, 0]	n/a	catFR1	0	R1542J
736.782	0.85	1053799	WORD_OFF	n/a	n/a	FLY	Insects	2	4	[0, 0, 0]	n/a	catFR1	0	R1542J
737.632	1.616	1054644	WORD	n/a	wordpools/wordpool_categorized_EN.txt	JUICE	Beverages	3	4	[0, 0, 0]	n/a	catFR1	0	R1542J
739.248	0.933	1056254	WORD_OFF	n/a	n/a	JUICE	Beverages	3	4	[0, 0, 0]	n/a	catFR1	0	R1542J
740.181	1.6	1057198	WORD	n/a	wordpools/wordpool_categorized_EN.txt	WATER	Beverages	4	4	[0, 0, 0]	n/a	catFR1	0	R1542J
741.781	1.0	1058791	WORD_OFF	n/a	n/a	WATER	Beverages	4	4	[0, 0, 0]	n/a	catFR1	0	R1542J
742.781	1.6	1059783	WORD	n/a	wordpools/wordpool_categorized_EN.txt	WOOL	Fabric	5	4	[0, 0, 0]	n/a	catFR1	0	R1542J
744.381	0.951	1061393	WORD_OFF	n/a	n/a	WOOL	Fabric	5	4	[0, 0, 0]	n/a	catFR1	0	R1542J
745.332	1.6	1062336	WORD	n/a	wordpools/wordpool_categorized_EN.txt	LINEN	Fabric	6	4	[0, 0, 0]	n/a	catFR1	0	R1542J
746.932	0.784	1063946	WORD_OFF	n/a	n/a	LINEN	Fabric	6	4	[0, 0, 0]	n/a	catFR1	0	R1542J
747.716	1.616	1064727	WORD	n/a	wordpools/wordpool_categorized_EN.txt	WINE	Beverages	7	4	[0, 0, 0]	n/a	catFR1	0	R1542J
749.332	0.8	1066337	WORD_OFF	n/a	n/a	WINE	Beverages	7	4	[0, 0, 0]	n/a	catFR1	0	R1542J
750.132	1.6	1067134	WORD	n/a	wordpools/wordpool_categorized_EN.txt	LEMONADE	Beverages	8	4	[0, 0, 0]	n/a	catFR1	0	R1542J
751.732	1.0	1068744	WORD_OFF	n/a	n/a	LEMONADE	Beverages	8	4	[0, 0, 0]	n/a	catFR1	0	R1542J
752.732	1.617	1069736	WORD	n/a	wordpools/wordpool_categorized_EN.txt	DENIM	Fabric	9	4	[0, 0, 0]	n/a	catFR1	0	R1542J
754.349	0.883	1071362	WORD_OFF	n/a	n/a	DENIM	Fabric	9	4	[0, 0, 0]	n/a	catFR1	0	R1542J
755.232	1.601	1072240	WORD	n/a	wordpools/wordpool_categorized_EN.txt	LEATHER	Fabric	10	4	[0, 0, 0]	n/a	catFR1	0	R1542J
756.833	0.798	1073850	WORD_OFF	n/a	n/a	LEATHER	Fabric	10	4	[0, 0, 0]	n/a	catFR1	0	R1542J
757.631	1.601	1074647	WORD	n/a	wordpools/wordpool_categorized_EN.txt	MOSQUITO	Insects	11	4	[0, 0, 0]	n/a	catFR1	0	R1542J
759.232	0.949	1076241	WORD_OFF	n/a	n/a	MOSQUITO	Insects	11	4	[0, 0, 0]	n/a	catFR1	0	R1542J
760.181	1.601	1077184	WORD	n/a	wordpools/wordpool_categorized_EN.txt	BEETLE	Insects	12	4	[0, 0, 0]	n/a	catFR1	0	R1542J
761.782	0.0	1078787	START	n/a	n/a	n/a	n/a	-999	4	[-999, -999, -999]	n/a	catFR1	0	R1542J
761.782	0.0	1078787	PROB	5.466	n/a	n/a	n/a	-999	4	[2, 2, 2]	6.0	catFR1	0	R1542J
761.781	0.001	1078794	WORD_OFF	n/a	n/a	BEETLE	Insects	12	4	[0, 0, 0]	n/a	catFR1	0	R1542J
761.782	0.0	1078794	ENCODING_END	n/a	n/a	n/a	n/a	-999	4	[0, 0, 0]	n/a	catFR1	0	R1542J
761.782	5.484	1078794	DISTRACT_START	n/a	n/a	n/a	n/a	-999	4	[0, 0, 0]	n/a	catFR1	0	R1542J
767.266	3.299	1084271	PROB	3.283	n/a	n/a	n/a	-999	4	[1, 7, 6]	14.0	catFR1	0	R1542J
770.565	2.784	1087569	PROB	2.766	n/a	n/a	n/a	-999	4	[4, 6, 7]	17.0	catFR1	0	R1542J
773.349	2.966	1090353	PROB	2.949	n/a	n/a	n/a	-999	4	[5, 4, 8]	17.0	catFR1	0	R1542J
776.315	4.217	1093319	PROB	4.2	n/a	n/a	n/a	-999	4	[8, 4, 7]	19.0	catFR1	0	R1542J
780.532	6.383	1097536	PROB	6.366	n/a	n/a	n/a	-999	4	[2, 7, 5]	14.0	catFR1	0	R1542J
786.915	0.0	1103919	DISTRACT_END	n/a	n/a	n/a	n/a	-999	4	[0, 0, 0]	n/a	catFR1	0	R1542J
786.915	1.633	1103919	STOP	n/a	n/a	n/a	n/a	-999	4	[-999, -999, -999]	n/a	catFR1	0	R1542J
788.548	2.05	1105562	REC_START	n/a	n/a	n/a	n/a	-999	4	[0, 0, 0]	n/a	catFR1	0	R1542J
790.598	1.499	1107602	REC_WORD	2.05	n/a	BEE	Insects	1	4	[0, 0, 0]	n/a	catFR1	0	R1542J
792.097	2.911	1109100	REC_WORD	3.549	n/a	FLY	Insects	2	4	[0, 0, 0]	n/a	catFR1	0	R1542J
795.008	1.756	1112011	REC_WORD	6.46	n/a	WOOL	Fabric	5	4	[0, 0, 0]	n/a	catFR1	0	R1542J
796.764	15.03	1113767	REC_WORD	8.216	n/a	LEATHER	Fabric	10	4	[0, 0, 0]	n/a	catFR1	0	R1542J
811.794	6.965	1128797	REC_WORD	23.246	n/a	MAMMOTH	n/a	-999	4	[0, 0, 0]	n/a	catFR1	0	R1542J
818.759	1.64	1135761	REC_END	n/a	n/a	n/a	n/a	-999	4	[0, 0, 0]	n/a	catFR1	0	R1542J
820.399	10.35	1137403	COUNTDOWN_START	n/a	n/a	n/a	n/a	-999	5	[0, 0, 0]	n/a	catFR1	0	R1542J
830.749	0.0	1147762	COUNTDOWN_END	n/a	n/a	n/a	n/a	-999	5	[0, 0, 0]	n/a	catFR1	0	R1542J
830.749	2.349	1147762	ENCODING_START	n/a	n/a	n/a	n/a	-999	5	[0, 0, 0]	n/a	catFR1	0	R1542J
833.098	1.618	1150104	WORD	n/a	wordpools/wordpool_categorized_EN.txt	MOUNTAIN	Landscapes	1	5	[0, 0, 0]	n/a	catFR1	0	R1542J
834.716	0.999	1151730	WORD_OFF	n/a	n/a	MOUNTAIN	Landscapes	1	5	[0, 0, 0]	n/a	catFR1	0	R1542J
835.715	1.616	1152722	WORD	n/a	wordpools/wordpool_categorized_EN.txt	HILLS	Landscapes	2	5	[0, 0, 0]	n/a	catFR1	0	R1542J
837.331	0.8	1154332	WORD_OFF	n/a	n/a	HILLS	Landscapes	2	5	[0, 0, 0]	n/a	catFR1	0	R1542J
838.131	1.601	1155145	WORD	n/a	wordpools/wordpool_categorized_EN.txt	ONION	Vegetables	3	5	[0, 0, 0]	n/a	catFR1	0	R1542J
839.732	0.95	1156739	WORD_OFF	n/a	n/a	ONION	Vegetables	3	5	[0, 0, 0]	n/a	catFR1	0	R1542J
840.682	1.616	1157682	WORD	n/a	wordpools/wordpool_categorized_EN.txt	CABBAGE	Vegetables	4	5	[0, 0, 0]	n/a	catFR1	0	R1542J
842.298	0.951	1159308	WORD_OFF	n/a	n/a	CABBAGE	Vegetables	4	5	[0, 0, 0]	n/a	catFR1	0	R1542J
843.249	1.599	1160252	WORD	n/a	wordpools/wordpool_categorized_EN.txt	OYSTER	OceanAnimals	5	5	[0, 0, 0]	n/a	catFR1	0	R1542J
844.848	0.967	1161862	WORD_OFF	n/a	n/a	OYSTER	OceanAnimals	5	5	[0, 0, 0]	n/a	catFR1	0	R1542J
845.815	1.601	1162821	WORD	n/a	wordpools/wordpool_categorized_EN.txt	CRAB	OceanAnimals	6	5	[0, 0, 0]	n/a	catFR1	0	R1542J
847.416	0.832	1164415	WORD_OFF	n/a	n/a	CRAB	OceanAnimals	6	5	[0, 0, 0]	n/a	catFR1	0	R1542J
848.248	1.601	1165260	WORD	n/a	wordpools/wordpool_categorized_EN.txt	CELERY	Vegetables	7	5	[0, 0, 0]	n/a	catFR1	0	R1542J
849.849	0.883	1166854	WORD_OFF	n/a	n/a	CELERY	Vegetables	7	5	[0, 0, 0]	n/a	catFR1	0	R1542J
850.732	1.616	1167732	WORD	n/a	wordpools/wordpool_categorized_EN.txt	CAULIFLOWER	Vegetables	8	5	[0, 0, 0]	n/a	catFR1	0	R1542J
852.348	0.801	1169359	WORD_OFF	n/a	n/a	CAULIFLOWER	Vegetables	8	5	[0, 0, 0]	n/a	catFR1	0	R1542J
853.149	1.6	1170155	WORD	n/a	wordpools/wordpool_categorized_EN.txt	WOODS	Landscapes	9	5	[0, 0, 0]	n/a	catFR1	0	R1542J
854.749	0.799	1171749	WORD_OFF	n/a	n/a	WOODS	Landscapes	9	5	[0, 0, 0]	n/a	catFR1	0	R1542J
855.548	1.6	1172562	WORD	n/a	wordpools/wordpool_categorized_EN.txt	RIVER	Landscapes	10	5	[0, 0, 0]	n/a	catFR1	0	R1542J
857.148	0.783	1174156	WORD_OFF	n/a	n/a	RIVER	Landscapes	10	5	[0, 0, 0]	n/a	catFR1	0	R1542J
857.931	1.601	1174936	WORD	n/a	wordpools/wordpool_categorized_EN.txt	FISH	OceanAnimals	11	5	[0, 0, 0]	n/a	catFR1	0	R1542J
859.532	0.983	1176530	WORD_OFF	n/a	n/a	FISH	OceanAnimals	11	5	[0, 0, 0]	n/a	catFR1	0	R1542J
860.515	1.6	1177522	WORD	n/a	wordpools/wordpool_categorized_EN.txt	WHALE	OceanAnimals	12	5	[0, 0, 0]	n/a	catFR1	0	R1542J
862.115	0.0	1179115	PROB	5.032	n/a	n/a	n/a	-999	5	[6, 4, 8]	18.0	catFR1	0	R1542J
862.115	0.001	1179116	WORD_OFF	n/a	n/a	WHALE	OceanAnimals	12	5	[0, 0, 0]	n/a	catFR1	0	R1542J
862.116	0.0	1179116	ENCODING_END	n/a	n/a	n/a	n/a	-999	5	[0, 0, 0]	n/a	catFR1	0	R1542J
862.116	0.0	1179116	START	n/a	n/a	n/a	n/a	-999	5	[-999, -999, -999]	n/a	catFR1	0	R1542J
862.116	5.049	1179132	DISTRACT_START	n/a	n/a	n/a	n/a	-999	5	[0, 0, 0]	n/a	catFR1	0	R1542J
867.165	2.999	1184165	PROB	2.982	n/a	n/a	n/a	-999	5	[6, 5, 6]	17.0	catFR1	0	R1542J
870.164	2.434	1187164	PROB	2.417	n/a	n/a	n/a	-999	5	[1, 3, 3]	7.0	catFR1	0	R1542J
872.598	4.55	1189598	PROB	4.533	n/a	n/a	n/a	-999	5	[6, 3, 4]	13.0	catFR1	0	R1542J
877.148	2.668	1194148	PROB	2.651	n/a	n/a	n/a	-999	5	[7, 4, 4]	15.0	catFR1	0	R1542J
879.816	4.749	1196816	PROB	4.732	n/a	n/a	n/a	-999	5	[8, 8, 5]	21.0	catFR1	0	R1542J
884.565	0.0	1201564	STOP	n/a	n/a	n/a	n/a	-999	5	[-999, -999, -999]	n/a	catFR1	0	R1542J
884.565	1.732	1201574	DISTRACT_END	n/a	n/a	n/a	n/a	-999	5	[0, 0, 0]	n/a	catFR1	0	R1542J
886.297	1.222	1203298	REC_START	n/a	n/a	n/a	n/a	-999	5	[0, 0, 0]	n/a	catFR1	0	R1542J
887.519	1.554	1204518	REC_WORD	1.222	n/a	OYSTER	OceanAnimals	5	5	[0, 0, 0]	n/a	catFR1	0	R1542J
889.073	2.066	1206072	REC_WORD	2.776	n/a	FISH	OceanAnimals	11	5	[0, 0, 0]	n/a	catFR1	0	R1542J
891.139	2.547	1208138	REC_WORD	4.842	n/a	WHALE	OceanAnimals	12	5	[0, 0, 0]	n/a	catFR1	0	R1542J
893.686	3.761	1210685	REC_WORD	7.389	n/a	CRAB	OceanAnimals	6	5	[0, 0, 0]	n/a	catFR1	0	R1542J
897.447	2.031	1214446	REC_WORD	11.15	n/a	MOUNTAIN	Landscapes	1	5	[0, 0, 0]	n/a	catFR1	0	R1542J
899.478	6.236	1216477	REC_WORD	13.181	n/a	HILLS	Landscapes	2	5	[0, 0, 0]	n/a	catFR1	0	R1542J
905.714	10.786	1222713	REC_WORD	19.417	n/a	FOREST	Landscapes	-999	5	[0, 0, 0]	n/a	catFR1	0	R1542J
916.5	1.45	1233497	REC_END	n/a	n/a	n/a	n/a	-999	5	[0, 0, 0]	n/a	catFR1	0	R1542J
917.95	10.35	1234961	COUNTDOWN_START	n/a	n/a	n/a	n/a	-999	6	[0, 0, 0]	n/a	catFR1	0	R1542J
928.3	0.0	1245303	COUNTDOWN_END	n/a	n/a	n/a	n/a	-999	6	[0, 0, 0]	n/a	catFR1	0	R1542J
928.3	1.966	1245303	ENCODING_START	n/a	n/a	n/a	n/a	-999	6	[0, 0, 0]	n/a	catFR1	0	R1542J
930.266	1.616	1247271	WORD	n/a	wordpools/wordpool_categorized_EN.txt	COW	FarmAnimals	1	6	[0, 0, 0]	n/a	catFR1	0	R1542J
931.882	0.983	1248881	WORD_OFF	n/a	n/a	COW	FarmAnimals	1	6	[0, 0, 0]	n/a	catFR1	0	R1542J
932.865	1.601	1249873	WORD	n/a	wordpools/wordpool_categorized_EN.txt	HEN	FarmAnimals	2	6	[0, 0, 0]	n/a	catFR1	0	R1542J
934.466	0.783	1251467	WORD_OFF	n/a	n/a	HEN	FarmAnimals	2	6	[0, 0, 0]	n/a	catFR1	0	R1542J
935.249	1.6	1252247	WORD	n/a	wordpools/wordpool_categorized_EN.txt	TRAIN	Vehicles	3	6	[0, 0, 0]	n/a	catFR1	0	R1542J
936.849	0.951	1253857	WORD_OFF	n/a	n/a	TRAIN	Vehicles	3	6	[0, 0, 0]	n/a	catFR1	0	R1542J
937.8	1.615	1254801	WORD	n/a	wordpools/wordpool_categorized_EN.txt	TRUCK	Vehicles	4	6	[0, 0, 0]	n/a	catFR1	0	R1542J
939.415	0.835	1256411	WORD_OFF	n/a	n/a	TRUCK	Vehicles	4	6	[0, 0, 0]	n/a	catFR1	0	R1542J
940.25	1.617	1257256	WORD	n/a	wordpools/wordpool_categorized_EN.txt	TUBA	Instruments	5	6	[0, 0, 0]	n/a	catFR1	0	R1542J
941.867	0.9	1258866	WORD_OFF	n/a	n/a	TUBA	Instruments	5	6	[0, 0, 0]	n/a	catFR1	0	R1542J
942.767	1.616	1259761	WORD	n/a	wordpools/wordpool_categorized_EN.txt	VIOLIN	Instruments	6	6	[0, 0, 0]	n/a	catFR1	0	R1542J
944.383	0.917	1261387	WORD_OFF	n/a	n/a	VIOLIN	Instruments	6	6	[0, 0, 0]	n/a	catFR1	0	R1542J
945.3	1.6	1262297	WORD	n/a	wordpools/wordpool_categorized_EN.txt	HORSE	FarmAnimals	7	6	[0, 0, 0]	n/a	catFR1	0	R1542J
946.9	0.783	1263907	WORD_OFF	n/a	n/a	HORSE	FarmAnimals	7	6	[0, 0, 0]	n/a	catFR1	0	R1542J
947.683	1.6	1264688	WORD	n/a	wordpools/wordpool_categorized_EN.txt	BULL	FarmAnimals	8	6	[0, 0, 0]	n/a	catFR1	0	R1542J
949.283	0.917	1266282	WORD_OFF	n/a	n/a	BULL	FarmAnimals	8	6	[0, 0, 0]	n/a	catFR1	0	R1542J
950.2	1.6	1267209	WORD	n/a	wordpools/wordpool_categorized_EN.txt	VAN	Vehicles	9	6	[0, 0, 0]	n/a	catFR1	0	R1542J
951.8	0.866	1268802	WORD_OFF	n/a	n/a	VAN	Vehicles	9	6	[0, 0, 0]	n/a	catFR1	0	R1542J
952.666	1.601	1269664	WORD	n/a	wordpools/wordpool_categorized_EN.txt	CAR	Vehicles	10	6	[0, 0, 0]	n/a	catFR1	0	R1542J
954.267	0.783	1271274	WORD_OFF	n/a	n/a	CAR	Vehicles	10	6	[0, 0, 0]	n/a	catFR1	0	R1542J
955.05	1.6	1272055	WORD	n/a	wordpools/wordpool_categorized_EN.txt	FLUTE	Instruments	11	6	[0, 0, 0]	n/a	catFR1	0	R1542J
956.65	0.817	1273648	WORD_OFF	n/a	n/a	FLUTE	Instruments	11	6	[0, 0, 0]	n/a	catFR1	0	R1542J
957.467	1.6	1274462	WORD	n/a	wordpools/wordpool_categorized_EN.txt	CELLO	Instruments	12	6	[0, 0, 0]	n/a	catFR1	0	R1542J
959.067	0.001	1276063	PROB	3.733	n/a	n/a	n/a	-999	6	[6, 8, 1]	15.0	catFR1	0	R1542J
959.068	0.0	1276064	START	n/a	n/a	n/a	n/a	-999	6	[-999, -999, -999]	n/a	catFR1	0	R1542J
959.067	0.001	1276072	WORD_OFF	n/a	n/a	CELLO	Instruments	12	6	[0, 0, 0]	n/a	catFR1	0	R1542J
959.068	0.0	1276072	ENCODING_END	n/a	n/a	n/a	n/a	-999	6	[0, 0, 0]	n/a	catFR1	0	R1542J
959.068	3.749	1276072	DISTRACT_START	n/a	n/a	n/a	n/a	-999	6	[0, 0, 0]	n/a	catFR1	0	R1542J
962.817	2.899	1279813	PROB	2.883	n/a	n/a	n/a	-999	6	[7, 5, 8]	20.0	catFR1	0	R1542J
965.716	2.434	1282712	PROB	2.417	n/a	n/a	n/a	-999	6	[5, 5, 4]	14.0	catFR1	0	R1542J
968.15	4.284	1285146	PROB	4.266	n/a	n/a	n/a	-999	6	[7, 6, 7]	20.0	catFR1	0	R1542J
972.434	3.783	1289430	PROB	3.766	n/a	n/a	n/a	-999	6	[7, 8, 5]	20.0	catFR1	0	R1542J
976.217	2.899	1293213	PROB	2.883	n/a	n/a	n/a	-999	6	[4, 4, 3]	11.0	catFR1	0	R1542J
979.116	0.0	1296111	STOP	n/a	n/a	n/a	n/a	-999	6	[-999, -999, -999]	n/a	catFR1	0	R1542J
979.116	1.599	1296123	DISTRACT_END	n/a	n/a	n/a	n/a	-999	6	[0, 0, 0]	n/a	catFR1	0	R1542J
980.715	2.302	1297717	REC_START	n/a	n/a	n/a	n/a	-999	6	[0, 0, 0]	n/a	catFR1	0	R1542J
983.017	1.345	1300012	REC_WORD	2.302	n/a	TRUCK	Vehicles	4	6	[0, 0, 0]	n/a	catFR1	0	R1542J
984.362	1.569	1301357	REC_WORD	3.647	n/a	TRAIN	Vehicles	3	6	[0, 0, 0]	n/a	catFR1	0	R1542J
985.931	2.307	1302926	REC_WORD	5.216	n/a	CAR	Vehicles	10	6	[0, 0, 0]	n/a	catFR1	0	R1542J
988.238	1.642	1305233	REC_WORD	7.523	n/a	VAN	Vehicles	9	6	[0, 0, 0]	n/a	catFR1	0	R1542J
989.88	1.668	1306875	REC_WORD	9.165	n/a	TUBA	Instruments	5	6	[0, 0, 0]	n/a	catFR1	0	R1542J
991.548	1.476	1308543	REC_WORD	10.833	n/a	VIOLIN	Instruments	6	6	[0, 0, 0]	n/a	catFR1	0	R1542J
993.024	1.269	1310019	REC_WORD	12.309	n/a	CELLO	Instruments	12	6	[0, 0, 0]	n/a	catFR1	0	R1542J
994.293	1.402	1311288	REC_WORD	13.578	n/a	FLUTE	Instruments	11	6	[0, 0, 0]	n/a	catFR1	0	R1542J
995.695	1.403	1312690	REC_WORD	14.98	n/a	HEN	FarmAnimals	2	6	[0, 0, 0]	n/a	catFR1	0	R1542J
997.098	1.518	1314093	REC_WORD	16.383	n/a	COW	FarmAnimals	1	6	[0, 0, 0]	n/a	catFR1	0	R1542J
998.616	12.327	1315611	REC_WORD	17.901	n/a	HORSE	FarmAnimals	7	6	[0, 0, 0]	n/a	catFR1	0	R1542J
1010.943	1.472	1327948	REC_END	n/a	n/a	n/a	n/a	-999	6	[0, 0, 0]	n/a	catFR1	0	R1542J
1012.415	10.35	1329412	COUNTDOWN_START	n/a	n/a	n/a	n/a	-999	7	[0, 0, 0]	n/a	catFR1	0	R1542J
1022.765	0.0	1339771	COUNTDOWN_END	n/a	n/a	n/a	n/a	-999	7	[0, 0, 0]	n/a	catFR1	0	R1542J
1022.765	1.984	1339771	ENCODING_START	n/a	n/a	n/a	n/a	-999	7	[0, 0, 0]	n/a	catFR1	0	R1542J
1024.749	1.616	1341755	WORD	n/a	wordpools/wordpool_categorized_EN.txt	UNDERWEAR	Clothing	1	7	[0, 0, 0]	n/a	catFR1	0	R1542J
1026.365	0.983	1343365	WORD_OFF	n/a	n/a	UNDERWEAR	Clothing	1	7	[0, 0, 0]	n/a	catFR1	0	R1542J
1027.348	1.6	1344341	WORD	n/a	wordpools/wordpool_categorized_EN.txt	PANTS	Clothing	2	7	[0, 0, 0]	n/a	catFR1	0	R1542J
1028.948	0.917	1345951	WORD_OFF	n/a	n/a	PANTS	Clothing	2	7	[0, 0, 0]	n/a	catFR1	0	R1542J
1029.865	1.616	1346861	WORD	n/a	wordpools/wordpool_categorized_EN.txt	THUNDERSTORM	Weather	3	7	[0, 0, 0]	n/a	catFR1	0	R1542J
1031.481	0.883	1348488	WORD_OFF	n/a	n/a	THUNDERSTORM	Weather	3	7	[0, 0, 0]	n/a	catFR1	0	R1542J
1032.364	1.601	1349366	WORD	n/a	wordpools/wordpool_categorized_EN.txt	HURRICANE	Weather	4	7	[0, 0, 0]	n/a	catFR1	0	R1542J
1033.965	0.767	1350959	WORD_OFF	n/a	n/a	HURRICANE	Weather	4	7	[0, 0, 0]	n/a	catFR1	0	R1542J
1034.732	1.617	1351724	WORD	n/a	wordpools/wordpool_categorized_EN.txt	COBBLER	Desserts	5	7	[0, 0, 0]	n/a	catFR1	0	R1542J
1036.349	0.932	1353350	WORD_OFF	n/a	n/a	COBBLER	Desserts	5	7	[0, 0, 0]	n/a	catFR1	0	R1542J
1037.281	1.601	1354277	WORD	n/a	wordpools/wordpool_categorized_EN.txt	BROWNIES	Desserts	6	7	[0, 0, 0]	n/a	catFR1	0	R1542J
1038.882	0.982	1355887	WORD_OFF	n/a	n/a	BROWNIES	Desserts	6	7	[0, 0, 0]	n/a	catFR1	0	R1542J
1039.864	1.601	1356863	WORD	n/a	wordpools/wordpool_categorized_EN.txt	JACKET	Clothing	7	7	[0, 0, 0]	n/a	catFR1	0	R1542J
1041.465	0.8	1358456	WORD_OFF	n/a	n/a	JACKET	Clothing	7	7	[0, 0, 0]	n/a	catFR1	0	R1542J
1042.265	1.6	1359269	WORD	n/a	wordpools/wordpool_categorized_EN.txt	SHIRT	Clothing	8	7	[0, 0, 0]	n/a	catFR1	0	R1542J
1043.865	0.9	1360863	WORD_OFF	n/a	n/a	SHIRT	Clothing	8	7	[0, 0, 0]	n/a	catFR1	0	R1542J
1044.765	1.6	1361758	WORD	n/a	wordpools/wordpool_categorized_EN.txt	LIGHTNING	Weather	9	7	[0, 0, 0]	n/a	catFR1	0	R1542J
1046.365	0.9	1363368	WORD_OFF	n/a	n/a	LIGHTNING	Weather	9	7	[0, 0, 0]	n/a	catFR1	0	R1542J
1047.265	1.6	1364262	WORD	n/a	wordpools/wordpool_categorized_EN.txt	HUMIDITY	Weather	10	7	[0, 0, 0]	n/a	catFR1	0	R1542J
1048.865	0.833	1365856	WORD_OFF	n/a	n/a	HUMIDITY	Weather	10	7	[0, 0, 0]	n/a	catFR1	0	R1542J
1049.698	1.6	1366701	WORD	n/a	wordpools/wordpool_categorized_EN.txt	CHEESECAKE	Desserts	11	7	[0, 0, 0]	n/a	catFR1	0	R1542J
1051.298	0.851	1368295	WORD_OFF	n/a	n/a	CHEESECAKE	Desserts	11	7	[0, 0, 0]	n/a	catFR1	0	R1542J
1052.149	1.617	1369141	WORD	n/a	wordpools/wordpool_categorized_EN.txt	CAKE	Desserts	12	7	[0, 0, 0]	n/a	catFR1	0	R1542J
1053.766	0.0	1370758	START	n/a	n/a	n/a	n/a	-999	7	[-999, -999, -999]	n/a	catFR1	0	R1542J
1053.766	0.0	1370758	PROB	3.649	n/a	n/a	n/a	-999	7	[4, 1, 7]	12.0	catFR1	0	R1542J
1053.765	0.001	1370767	WORD_OFF	n/a	n/a	CAKE	Desserts	12	7	[0, 0, 0]	n/a	catFR1	0	R1542J
1053.766	0.0	1370767	ENCODING_END	n/a	n/a	n/a	n/a	-999	7	[0, 0, 0]	n/a	catFR1	0	R1542J
1053.766	3.666	1370767	DISTRACT_START	n/a	n/a	n/a	n/a	-999	7	[0, 0, 0]	n/a	catFR1	0	R1542J
1057.432	2.751	1374424	PROB	2.733	n/a	n/a	n/a	-999	7	[1, 4, 8]	13.0	catFR1	0	R1542J
1060.183	2.816	1377175	PROB	2.8	n/a	n/a	n/a	-999	7	[1, 7, 8]	16.0	catFR1	0	R1542J
1062.999	3.833	1379991	PROB	3.816	n/a	n/a	n/a	-999	7	[7, 7, 6]	20.0	catFR1	0	R1542J
1066.832	2.883	1383824	PROB	2.866	n/a	n/a	n/a	-999	7	[5, 2, 8]	15.0	catFR1	0	R1542J
1069.715	2.583	1386707	PROB	2.566	n/a	n/a	n/a	-999	7	[4, 1, 6]	11.0	catFR1	0	R1542J
1072.298	2.6	1389289	PROB	2.583	n/a	n/a	n/a	-999	7	[5, 3, 4]	12.0	catFR1	0	R1542J
1074.898	0.0	1391889	STOP	n/a	n/a	n/a	n/a	-999	7	[-999, -999, -999]	n/a	catFR1	0	R1542J
1074.898	1.616	1391892	DISTRACT_END	n/a	n/a	n/a	n/a	-999	7	[0, 0, 0]	n/a	catFR1	0	R1542J
1076.514	0.859	1393518	REC_START	n/a	n/a	n/a	n/a	-999	7	[0, 0, 0]	n/a	catFR1	0	R1542J
1077.373	1.637	1394364	REC_WORD	0.859	n/a	THUNDERSTORM	Weather	3	7	[0, 0, 0]	n/a	catFR1	0	R1542J
1079.01	4.795	1396001	REC_WORD	2.496	n/a	HURRICANE	Weather	4	7	[0, 0, 0]	n/a	catFR1	0	R1542J
1083.805	1.162	1400796	REC_WORD	7.291	n/a	UNDERWEAR	Clothing	1	7	[0, 0, 0]	n/a	catFR1	0	R1542J
1084.967	2.85	1401958	REC_WORD	8.453	n/a	PANTS	Clothing	2	7	[0, 0, 0]	n/a	catFR1	0	R1542J
1087.817	2.063	1404808	REC_WORD	11.303	n/a	SHIRT	Clothing	8	7	[0, 0, 0]	n/a	catFR1	0	R1542J
1089.88	7.265	1406871	REC_WORD	13.366	n/a	JACKET	Clothing	7	7	[0, 0, 0]	n/a	catFR1	0	R1542J
1097.145	1.375	1414135	REC_WORD	20.631	n/a	COBBLER	Desserts	5	7	[0, 0, 0]	n/a	catFR1	0	R1542J
1098.52	3.672	1415510	REC_WORD	22.006	n/a	BROWNIES	Desserts	6	7	[0, 0, 0]	n/a	catFR1	0	R1542J
1102.192	4.532	1419182	REC_WORD	25.678	n/a	PRECIPITATION	n/a	-999	7	[0, 0, 0]	n/a	catFR1	0	R1542J
1106.724	1.541	1423717	REC_END	n/a	n/a	n/a	n/a	-999	7	[0, 0, 0]	n/a	catFR1	0	R1542J
1108.265	10.351	1425262	COUNTDOWN_START	n/a	n/a	n/a	n/a	-999	8	[0, 0, 0]	n/a	catFR1	0	R1542J
1118.616	0.0	1435605	COUNTDOWN_END	n/a	n/a	n/a	n/a	-999	8	[0, 0, 0]	n/a	catFR1	0	R1542J
1118.616	1.983	1435605	ENCODING_START	n/a	n/a	n/a	n/a	-999	8	[0, 0, 0]	n/a	catFR1	0	R1542J
1120.599	1.616	1437589	WORD	n/a	wordpools/wordpool_categorized_EN.txt	ORANGUTAN	Zoo	1	8	[0, 0, 0]	n/a	catFR1	0	R1542J
1122.215	0.916	1439215	WORD_OFF	n/a	n/a	ORANGUTAN	Zoo	1	8	[0, 0, 0]	n/a	catFR1	0	R1542J
1123.131	1.601	1440125	WORD	n/a	wordpools/wordpool_categorized_EN.txt	CHIMPANZEE	Zoo	2	8	[0, 0, 0]	n/a	catFR1	0	R1542J
1124.732	0.999	1441719	WORD_OFF	n/a	n/a	CHIMPANZEE	Zoo	2	8	[0, 0, 0]	n/a	catFR1	0	R1542J
1125.731	1.617	1442727	WORD	n/a	wordpools/wordpool_categorized_EN.txt	REFRIGERATOR	Appliances	3	8	[0, 0, 0]	n/a	catFR1	0	R1542J
1127.348	0.768	1444337	WORD_OFF	n/a	n/a	REFRIGERATOR	Appliances	3	8	[0, 0, 0]	n/a	catFR1	0	R1542J
1128.116	1.616	1445118	WORD	n/a	wordpools/wordpool_categorized_EN.txt	DRYER	Appliances	4	8	[0, 0, 0]	n/a	catFR1	0	R1542J
1129.732	1.001	1446728	WORD_OFF	n/a	n/a	DRYER	Appliances	4	8	[0, 0, 0]	n/a	catFR1	0	R1542J
1130.733	1.616	1447720	WORD	n/a	wordpools/wordpool_categorized_EN.txt	WIND	Weather	5	8	[0, 0, 0]	n/a	catFR1	0	R1542J
1132.349	0.999	1449346	WORD_OFF	n/a	n/a	WIND	Weather	5	8	[0, 0, 0]	n/a	catFR1	0	R1542J
1133.348	1.617	1450338	WORD	n/a	wordpools/wordpool_categorized_EN.txt	THUNDER	Weather	6	8	[0, 0, 0]	n/a	catFR1	0	R1542J
1134.965	0.767	1451964	WORD_OFF	n/a	n/a	THUNDER	Weather	6	8	[0, 0, 0]	n/a	catFR1	0	R1542J
1135.732	1.6	1452729	WORD	n/a	wordpools/wordpool_categorized_EN.txt	LION	Zoo	7	8	[0, 0, 0]	n/a	catFR1	0	R1542J
1137.332	0.866	1454322	WORD_OFF	n/a	n/a	LION	Zoo	7	8	[0, 0, 0]	n/a	catFR1	0	R1542J
1138.198	1.617	1455184	WORD	n/a	wordpools/wordpool_categorized_EN.txt	BEAR	Zoo	8	8	[0, 0, 0]	n/a	catFR1	0	R1542J
1139.815	0.934	1456811	WORD_OFF	n/a	n/a	BEAR	Zoo	8	8	[0, 0, 0]	n/a	catFR1	0	R1542J
1140.749	1.616	1457737	WORD	n/a	wordpools/wordpool_categorized_EN.txt	FOG	Weather	9	8	[0, 0, 0]	n/a	catFR1	0	R1542J
1142.365	0.933	1459364	WORD_OFF	n/a	n/a	FOG	Weather	9	8	[0, 0, 0]	n/a	catFR1	0	R1542J
1143.298	1.6	1460291	WORD	n/a	wordpools/wordpool_categorized_EN.txt	DRIZZLE	Weather	10	8	[0, 0, 0]	n/a	catFR1	0	R1542J
1144.898	0.834	1461884	WORD_OFF	n/a	n/a	DRIZZLE	Weather	10	8	[0, 0, 0]	n/a	catFR1	0	R1542J
1145.732	1.615	1462730	WORD	n/a	wordpools/wordpool_categorized_EN.txt	IRON	Appliances	11	8	[0, 0, 0]	n/a	catFR1	0	R1542J
1147.347	0.835	1464340	WORD_OFF	n/a	n/a	IRON	Appliances	11	8	[0, 0, 0]	n/a	catFR1	0	R1542J
1148.182	1.616	1465169	WORD	n/a	wordpools/wordpool_categorized_EN.txt	MIXER	Appliances	12	8	[0, 0, 0]	n/a	catFR1	0	R1542J
1149.798	0.002	1466786	PROB	3.416	n/a	n/a	n/a	-999	8	[4, 3, 7]	14.0	catFR1	0	R1542J
1149.8	0.0	1466788	START	n/a	n/a	n/a	n/a	-999	8	[-999, -999, -999]	n/a	catFR1	0	R1542J
1149.798	0.002	1466796	WORD_OFF	n/a	n/a	MIXER	Appliances	12	8	[0, 0, 0]	n/a	catFR1	0	R1542J
1149.8	0.0	1466796	ENCODING_END	n/a	n/a	n/a	n/a	-999	8	[0, 0, 0]	n/a	catFR1	0	R1542J
1149.8	3.432	1466796	DISTRACT_START	n/a	n/a	n/a	n/a	-999	8	[0, 0, 0]	n/a	catFR1	0	R1542J
1153.232	2.617	1470220	PROB	2.6	n/a	n/a	n/a	-999	8	[5, 6, 2]	13.0	catFR1	0	R1542J
1155.849	2.882	1472837	PROB	2.866	n/a	n/a	n/a	-999	8	[7, 8, 2]	17.0	catFR1	0	R1542J
1158.731	4.95	1475719	PROB	4.933	n/a	n/a	n/a	-999	8	[4, 8, 6]	18.0	catFR1	0	R1542J
1163.681	3.001	1480669	PROB	2.983	n/a	n/a	n/a	-999	8	[5, 3, 3]	11.0	catFR1	0	R1542J
1166.682	4.033	1483669	PROB	4.016	n/a	n/a	n/a	-999	8	[7, 6, 6]	19.0	catFR1	0	R1542J
1170.715	0.0	1487702	STOP	n/a	n/a	n/a	n/a	-999	8	[-999, -999, -999]	n/a	catFR1	0	R1542J
1170.715	1.6	1487709	DISTRACT_END	n/a	n/a	n/a	n/a	-999	8	[0, 0, 0]	n/a	catFR1	0	R1542J
1172.315	1.605	1489303	REC_START	n/a	n/a	n/a	n/a	-999	8	[0, 0, 0]	n/a	catFR1	0	R1542J
1173.92	2.259	1490907	REC_WORD	1.605	n/a	FOG	Weather	9	8	[0, 0, 0]	n/a	catFR1	0	R1542J
1176.179	2.408	1493166	REC_WORD	3.864	n/a	MIXER	Appliances	12	8	[0, 0, 0]	n/a	catFR1	0	R1542J
1178.587	15.463	1495574	REC_WORD	6.272	n/a	IRON	Appliances	11	8	[0, 0, 0]	n/a	catFR1	0	R1542J
1194.05	8.467	1511036	REC_WORD	21.735	n/a	WIND	Weather	5	8	[0, 0, 0]	n/a	catFR1	0	R1542J
1202.517	1.498	1519502	REC_END	n/a	n/a	n/a	n/a	-999	8	[0, 0, 0]	n/a	catFR1	0	R1542J
1204.015	10.352	1521014	COUNTDOWN_START	n/a	n/a	n/a	n/a	-999	9	[0, 0, 0]	n/a	catFR1	0	R1542J
1214.367	0.0	1531357	COUNTDOWN_END	n/a	n/a	n/a	n/a	-999	9	[0, 0, 0]	n/a	catFR1	0	R1542J
1214.367	2.166	1531357	ENCODING_START	n/a	n/a	n/a	n/a	-999	9	[0, 0, 0]	n/a	catFR1	0	R1542J
1216.533	1.6	1533520	WORD	n/a	wordpools/wordpool_categorized_EN.txt	POTATO	Vegetables	1	9	[0, 0, 0]	n/a	catFR1	0	R1542J
1218.133	0.767	1535130	WORD_OFF	n/a	n/a	POTATO	Vegetables	1	9	[0, 0, 0]	n/a	catFR1	0	R1542J
1218.9	1.6	1535894	WORD	n/a	wordpools/wordpool_categorized_EN.txt	BROCCOLI	Vegetables	2	9	[0, 0, 0]	n/a	catFR1	0	R1542J
1220.5	0.833	1537488	WORD_OFF	n/a	n/a	BROCCOLI	Vegetables	2	9	[0, 0, 0]	n/a	catFR1	0	R1542J
1221.333	1.6	1538317	WORD	n/a	wordpools/wordpool_categorized_EN.txt	JELLO	Desserts	3	9	[0, 0, 0]	n/a	catFR1	0	R1542J
1222.933	0.983	1539927	WORD_OFF	n/a	n/a	JELLO	Desserts	3	9	[0, 0, 0]	n/a	catFR1	0	R1542J
1223.916	1.6	1540903	WORD	n/a	wordpools/wordpool_categorized_EN.txt	FUDGE	Desserts	4	9	[0, 0, 0]	n/a	catFR1	0	R1542J
1225.516	0.95	1542513	WORD_OFF	n/a	n/a	FUDGE	Desserts	4	9	[0, 0, 0]	n/a	catFR1	0	R1542J
1226.466	1.601	1543456	WORD	n/a	wordpools/wordpool_categorized_EN.txt	JEEP	Vehicles	5	9	[0, 0, 0]	n/a	catFR1	0	R1542J
1228.067	0.999	1545050	WORD_OFF	n/a	n/a	JEEP	Vehicles	5	9	[0, 0, 0]	n/a	catFR1	0	R1542J
1229.066	1.6	1546058	WORD	n/a	wordpools/wordpool_categorized_EN.txt	MOTORCYCLE	Vehicles	6	9	[0, 0, 0]	n/a	catFR1	0	R1542J
1230.666	0.801	1547652	WORD_OFF	n/a	n/a	MOTORCYCLE	Vehicles	6	9	[0, 0, 0]	n/a	catFR1	0	R1542J
1231.467	1.6	1548448	WORD	n/a	wordpools/wordpool_categorized_EN.txt	MOUSSE	Desserts	7	9	[0, 0, 0]	n/a	catFR1	0	R1542J
1233.067	0.799	1550058	WORD_OFF	n/a	n/a	MOUSSE	Desserts	7	9	[0, 0, 0]	n/a	catFR1	0	R1542J
1233.866	1.617	1550855	WORD	n/a	wordpools/wordpool_categorized_EN.txt	COOKIE	Desserts	8	9	[0, 0, 0]	n/a	catFR1	0	R1542J
1235.483	0.9	1552465	WORD_OFF	n/a	n/a	COOKIE	Desserts	8	9	[0, 0, 0]	n/a	catFR1	0	R1542J
1236.383	1.6	1553376	WORD	n/a	wordpools/wordpool_categorized_EN.txt	SPINACH	Vegetables	9	9	[0, 0, 0]	n/a	catFR1	0	R1542J
1237.983	0.834	1554970	WORD_OFF	n/a	n/a	SPINACH	Vegetables	9	9	[0, 0, 0]	n/a	catFR1	0	R1542J
1238.817	1.6	1555799	WORD	n/a	wordpools/wordpool_categorized_EN.txt	CORN	Vegetables	10	9	[0, 0, 0]	n/a	catFR1	0	R1542J
1240.417	0.766	1557409	WORD_OFF	n/a	n/a	CORN	Vegetables	10	9	[0, 0, 0]	n/a	catFR1	0	R1542J
1241.183	1.617	1558173	WORD	n/a	wordpools/wordpool_categorized_EN.txt	BUS	Vehicles	11	9	[0, 0, 0]	n/a	catFR1	0	R1542J
1242.8	0.882	1559783	WORD_OFF	n/a	n/a	BUS	Vehicles	11	9	[0, 0, 0]	n/a	catFR1	0	R1542J
1243.682	1.602	1560678	WORD	n/a	wordpools/wordpool_categorized_EN.txt	MOPED	Vehicles	12	9	[0, 0, 0]	n/a	catFR1	0	R1542J
1245.284	0.001	1562268	PROB	3.933	n/a	n/a	n/a	-999	9	[1, 3, 5]	9.0	catFR1	0	R1542J
1245.285	0.0	1562269	START	n/a	n/a	n/a	n/a	-999	9	[-999, -999, -999]	n/a	catFR1	0	R1542J
1245.283	0.002	1562271	WORD_OFF	n/a	n/a	MOPED	Vehicles	12	9	[0, 0, 0]	n/a	catFR1	0	R1542J
1245.285	0.0	1562271	ENCODING_END	n/a	n/a	n/a	n/a	-999	9	[0, 0, 0]	n/a	catFR1	0	R1542J
1245.285	3.948	1562271	DISTRACT_START	n/a	n/a	n/a	n/a	-999	9	[0, 0, 0]	n/a	catFR1	0	R1542J
1249.233	4.301	1566217	PROB	4.283	n/a	n/a	n/a	-999	9	[7, 4, 4]	15.0	catFR1	0	R1542J
1253.534	3.382	1570518	PROB	3.366	n/a	n/a	n/a	-999	9	[8, 3, 4]	15.0	catFR1	0	R1542J
1256.916	3.417	1573900	PROB	3.4	n/a	n/a	n/a	-999	9	[1, 7, 4]	12.0	catFR1	0	R1542J
1260.333	2.35	1577316	PROB	2.333	n/a	n/a	n/a	-999	9	[7, 4, 1]	12.0	catFR1	0	R1542J
1262.683	3.349	1579666	PROB	3.333	n/a	n/a	n/a	-999	9	[1, 7, 3]	11.0	catFR1	0	R1542J
1266.032	0.0	1583015	STOP	n/a	n/a	n/a	n/a	-999	9	[-999, -999, -999]	n/a	catFR1	0	R1542J
1266.032	1.651	1583022	DISTRACT_END	n/a	n/a	n/a	n/a	-999	9	[0, 0, 0]	n/a	catFR1	0	R1542J
1267.683	1.625	1584665	REC_START	n/a	n/a	n/a	n/a	-999	9	[0, 0, 0]	n/a	catFR1	0	R1542J
1269.308	1.758	1586291	REC_WORD	1.625	n/a	FUDGE	Desserts	4	9	[0, 0, 0]	n/a	catFR1	0	R1542J
1271.066	6.885	1588049	REC_WORD	3.383	n/a	JELLO	Desserts	3	9	[0, 0, 0]	n/a	catFR1	0	R1542J
1277.951	19.958	1594934	REC_WORD	10.268	n/a	SPINACH	Vegetables	9	9	[0, 0, 0]	n/a	catFR1	0	R1542J
1297.909	1.656	1614896	REC_END	n/a	n/a	n/a	n/a	-999	9	[0, 0, 0]	n/a	catFR1	0	R1542J
1299.565	10.351	1616555	COUNTDOWN_START	n/a	n/a	n/a	n/a	-999	10	[0, 0, 0]	n/a	catFR1	0	R1542J
1309.916	0.0	1626898	COUNTDOWN_END	n/a	n/a	n/a	n/a	-999	10	[0, 0, 0]	n/a	catFR1	0	R1542J
1309.916	2.216	1626898	ENCODING_START	n/a	n/a	n/a	n/a	-999	10	[0, 0, 0]	n/a	catFR1	0	R1542J
1312.132	1.616	1629126	WORD	n/a	wordpools/wordpool_categorized_EN.txt	LETTUCE	Vegetables	1	10	[0, 0, 0]	n/a	catFR1	0	R1542J
1313.748	0.999	1630736	WORD_OFF	n/a	n/a	LETTUCE	Vegetables	1	10	[0, 0, 0]	n/a	catFR1	0	R1542J
1314.747	1.601	1631728	WORD	n/a	wordpools/wordpool_categorized_EN.txt	CUCUMBER	Vegetables	2	10	[0, 0, 0]	n/a	catFR1	0	R1542J
1316.348	0.967	1633338	WORD_OFF	n/a	n/a	CUCUMBER	Vegetables	2	10	[0, 0, 0]	n/a	catFR1	0	R1542J
1317.315	1.601	1634297	WORD	n/a	wordpools/wordpool_categorized_EN.txt	STRAWBERRY	Fruit	3	10	[0, 0, 0]	n/a	catFR1	0	R1542J
1318.916	0.982	1635907	WORD_OFF	n/a	n/a	STRAWBERRY	Fruit	3	10	[0, 0, 0]	n/a	catFR1	0	R1542J
1319.898	1.601	1636883	WORD	n/a	wordpools/wordpool_categorized_EN.txt	ORANGE	Fruit	4	10	[0, 0, 0]	n/a	catFR1	0	R1542J
1321.499	0.765	1638476	WORD_OFF	n/a	n/a	ORANGE	Fruit	4	10	[0, 0, 0]	n/a	catFR1	0	R1542J
1322.264	1.618	1639257	WORD	n/a	wordpools/wordpool_categorized_EN.txt	FOOT	BodyParts	5	10	[0, 0, 0]	n/a	catFR1	0	R1542J
1323.882	0.817	1640867	WORD_OFF	n/a	n/a	FOOT	BodyParts	5	10	[0, 0, 0]	n/a	catFR1	0	R1542J
1324.699	1.615	1641680	WORD	n/a	wordpools/wordpool_categorized_EN.txt	TOE	BodyParts	6	10	[0, 0, 0]	n/a	catFR1	0	R1542J
1326.314	0.867	1643306	WORD_OFF	n/a	n/a	TOE	BodyParts	6	10	[0, 0, 0]	n/a	catFR1	0	R1542J
1327.181	1.601	1644168	WORD	n/a	wordpools/wordpool_categorized_EN.txt	PLUM	Fruit	7	10	[0, 0, 0]	n/a	catFR1	0	R1542J
1328.782	0.917	1645762	WORD_OFF	n/a	n/a	PLUM	Fruit	7	10	[0, 0, 0]	n/a	catFR1	0	R1542J
1329.699	1.6	1646689	WORD	n/a	wordpools/wordpool_categorized_EN.txt	PEACH	Fruit	8	10	[0, 0, 0]	n/a	catFR1	0	R1542J
1331.299	0.916	1648283	WORD_OFF	n/a	n/a	PEACH	Fruit	8	10	[0, 0, 0]	n/a	catFR1	0	R1542J
1332.215	1.6	1649193	WORD	n/a	wordpools/wordpool_categorized_EN.txt	FINGERS	BodyParts	9	10	[0, 0, 0]	n/a	catFR1	0	R1542J
1333.815	0.867	1650803	WORD_OFF	n/a	n/a	FINGERS	BodyParts	9	10	[0, 0, 0]	n/a	catFR1	0	R1542J
1334.682	1.617	1651665	WORD	n/a	wordpools/wordpool_categorized_EN.txt	ARM	BodyParts	10	10	[0, 0, 0]	n/a	catFR1	0	R1542J
1336.299	0.933	1653291	WORD_OFF	n/a	n/a	ARM	BodyParts	10	10	[0, 0, 0]	n/a	catFR1	0	R1542J
1337.232	1.617	1654218	WORD	n/a	wordpools/wordpool_categorized_EN.txt	PEAS	Vegetables	11	10	[0, 0, 0]	n/a	catFR1	0	R1542J
1338.849	0.999	1655828	WORD_OFF	n/a	n/a	PEAS	Vegetables	11	10	[0, 0, 0]	n/a	catFR1	0	R1542J
1339.848	1.601	1656837	WORD	n/a	wordpools/wordpool_categorized_EN.txt	CARROT	Vegetables	12	10	[0, 0, 0]	n/a	catFR1	0	R1542J
1341.449	0.0	1658429	START	n/a	n/a	n/a	n/a	-999	10	[-999, -999, -999]	n/a	catFR1	0	R1542J
1341.449	0.0	1658429	PROB	3.599	n/a	n/a	n/a	-999	10	[4, 5, 4]	13.0	catFR1	0	R1542J
1341.448	0.001	1658430	WORD_OFF	n/a	n/a	CARROT	Vegetables	12	10	[0, 0, 0]	n/a	catFR1	0	R1542J
1341.449	0.0	1658430	ENCODING_END	n/a	n/a	n/a	n/a	-999	10	[0, 0, 0]	n/a	catFR1	0	R1542J
1341.449	3.616	1658430	DISTRACT_START	n/a	n/a	n/a	n/a	-999	10	[0, 0, 0]	n/a	catFR1	0	R1542J
1345.065	2.983	1662045	PROB	2.967	n/a	n/a	n/a	-999	10	[7, 2, 3]	12.0	catFR1	0	R1542J
1348.048	2.218	1665028	PROB	2.2	n/a	n/a	n/a	-999	10	[3, 4, 1]	8.0	catFR1	0	R1542J
1350.266	2.566	1667246	PROB	2.549	n/a	n/a	n/a	-999	10	[2, 5, 8]	15.0	catFR1	0	R1542J
1352.832	2.216	1669811	PROB	2.199	n/a	n/a	n/a	-999	10	[4, 1, 2]	7.0	catFR1	0	R1542J
1355.048	2.567	1672027	PROB	2.549	n/a	n/a	n/a	-999	10	[3, 4, 3]	10.0	catFR1	0	R1542J
1357.615	3.318	1674594	PROB	3.3	n/a	n/a	n/a	-999	10	[1, 4, 8]	13.0	catFR1	0	R1542J
1360.933	3.082	1677912	PROB	3.066	n/a	n/a	n/a	-999	10	[3, 8, 5]	16.0	catFR1	0	R1542J
1364.015	0.0	1680994	STOP	n/a	n/a	n/a	n/a	-999	10	[-999, -999, -999]	n/a	catFR1	0	R1542J
1364.015	1.766	1681002	DISTRACT_END	n/a	n/a	n/a	n/a	-999	10	[0, 0, 0]	n/a	catFR1	0	R1542J
1365.781	1.071	1682759	REC_START	n/a	n/a	n/a	n/a	-999	10	[0, 0, 0]	n/a	catFR1	0	R1542J
1366.852	1.299	1683831	REC_WORD	1.071	n/a	FOOT	BodyParts	5	10	[0, 0, 0]	n/a	catFR1	0	R1542J
1368.151	1.136	1685130	REC_WORD	2.37	n/a	TOE	BodyParts	6	10	[0, 0, 0]	n/a	catFR1	0	R1542J
1369.287	1.083	1686266	REC_WORD	3.506	n/a	ARM	BodyParts	10	10	[0, 0, 0]	n/a	catFR1	0	R1542J
1370.37	1.516	1687349	REC_WORD	4.589	n/a	FINGERS	BodyParts	9	10	[0, 0, 0]	n/a	catFR1	0	R1542J
1371.886	2.166	1688865	REC_WORD	6.105	n/a	CARROT	Vegetables	12	10	[0, 0, 0]	n/a	catFR1	0	R1542J
1374.052	3.759	1691030	REC_WORD	8.271	n/a	PEAS	Vegetables	11	10	[0, 0, 0]	n/a	catFR1	0	R1542J
1377.811	1.27	1694789	REC_WORD	12.03	n/a	PLUM	Fruit	7	10	[0, 0, 0]	n/a	catFR1	0	R1542J
1379.081	1.075	1696059	REC_WORD	13.3	n/a	PEACH	Fruit	8	10	[0, 0, 0]	n/a	catFR1	0	R1542J
1380.156	2.139	1697134	REC_WORD	14.375	n/a	STRAWBERRY	Fruit	3	10	[0, 0, 0]	n/a	catFR1	0	R1542J
1382.295	3.005	1699273	REC_WORD	16.514	n/a	ORANGE	Fruit	4	10	[0, 0, 0]	n/a	catFR1	0	R1542J
1385.3	3.112	1702278	REC_WORD	19.519	n/a	LETTUCE	Vegetables	1	10	[0, 0, 0]	n/a	catFR1	0	R1542J
1388.412	7.586	1705390	REC_WORD	22.631	n/a	CUCUMBER	Vegetables	2	10	[0, 0, 0]	n/a	catFR1	0	R1542J
1395.998	1.57	1712974	REC_END	n/a	n/a	n/a	n/a	-999	10	[0, 0, 0]	n/a	catFR1	0	R1542J
1397.568	10.348	1714551	COUNTDOWN_START	n/a	n/a	n/a	n/a	-999	11	[0, 0, 0]	n/a	catFR1	0	R1542J
1407.916	0.0	1724894	COUNTDOWN_END	n/a	n/a	n/a	n/a	-999	11	[0, 0, 0]	n/a	catFR1	0	R1542J
1407.916	1.817	1724894	ENCODING_START	n/a	n/a	n/a	n/a	-999	11	[0, 0, 0]	n/a	catFR1	0	R1542J
1409.733	1.6	1726716	WORD	n/a	wordpools/wordpool_categorized_EN.txt	GRAPE	Fruit	1	11	[0, 0, 0]	n/a	catFR1	0	R1542J
1411.333	0.85	1728309	WORD_OFF	n/a	n/a	GRAPE	Fruit	1	11	[0, 0, 0]	n/a	catFR1	0	R1542J
1412.183	1.616	1729171	WORD	n/a	wordpools/wordpool_categorized_EN.txt	PEAR	Fruit	2	11	[0, 0, 0]	n/a	catFR1	0	R1542J
1413.799	0.901	1730781	WORD_OFF	n/a	n/a	PEAR	Fruit	2	11	[0, 0, 0]	n/a	catFR1	0	R1542J
1414.7	1.617	1731676	WORD	n/a	wordpools/wordpool_categorized_EN.txt	BOAT	Vehicles	3	11	[0, 0, 0]	n/a	catFR1	0	R1542J
1416.317	0.782	1733302	WORD_OFF	n/a	n/a	BOAT	Vehicles	3	11	[0, 0, 0]	n/a	catFR1	0	R1542J
1417.099	1.6	1734082	WORD	n/a	wordpools/wordpool_categorized_EN.txt	SCOOTER	Vehicles	4	11	[0, 0, 0]	n/a	catFR1	0	R1542J
1418.699	0.782	1735676	WORD_OFF	n/a	n/a	SCOOTER	Vehicles	4	11	[0, 0, 0]	n/a	catFR1	0	R1542J
1419.481	1.601	1736457	WORD	n/a	wordpools/wordpool_categorized_EN.txt	CHAIR	Furniture	5	11	[0, 0, 0]	n/a	catFR1	0	R1542J
1421.082	1.0	1738067	WORD_OFF	n/a	n/a	CHAIR	Furniture	5	11	[0, 0, 0]	n/a	catFR1	0	R1542J
1422.082	1.6	1739059	WORD	n/a	wordpools/wordpool_categorized_EN.txt	BOOKCASE	Furniture	6	11	[0, 0, 0]	n/a	catFR1	0	R1542J
1423.682	0.884	1740669	WORD_OFF	n/a	n/a	BOOKCASE	Furniture	6	11	[0, 0, 0]	n/a	catFR1	0	R1542J
1424.566	1.601	1741547	WORD	n/a	wordpools/wordpool_categorized_EN.txt	BIKE	Vehicles	7	11	[0, 0, 0]	n/a	catFR1	0	R1542J
1426.167	0.983	1743140	WORD_OFF	n/a	n/a	BIKE	Vehicles	7	11	[0, 0, 0]	n/a	catFR1	0	R1542J
1427.15	1.616	1744132	WORD	n/a	wordpools/wordpool_categorized_EN.txt	PLANE	Vehicles	8	11	[0, 0, 0]	n/a	catFR1	0	R1542J
1428.766	0.884	1745742	WORD_OFF	n/a	n/a	PLANE	Vehicles	8	11	[0, 0, 0]	n/a	catFR1	0	R1542J
1429.65	1.614	1746637	WORD	n/a	wordpools/wordpool_categorized_EN.txt	RECLINER	Furniture	9	11	[0, 0, 0]	n/a	catFR1	0	R1542J
1431.264	0.917	1748247	WORD_OFF	n/a	n/a	RECLINER	Furniture	9	11	[0, 0, 0]	n/a	catFR1	0	R1542J
1432.181	1.602	1749157	WORD	n/a	wordpools/wordpool_categorized_EN.txt	BED	Furniture	10	11	[0, 0, 0]	n/a	catFR1	0	R1542J
1433.783	0.931	1750767	WORD_OFF	n/a	n/a	BED	Furniture	10	11	[0, 0, 0]	n/a	catFR1	0	R1542J
1434.714	1.603	1751694	WORD	n/a	wordpools/wordpool_categorized_EN.txt	BANANA	Fruit	11	11	[0, 0, 0]	n/a	catFR1	0	R1542J
1436.317	0.866	1753304	WORD_OFF	n/a	n/a	BANANA	Fruit	11	11	[0, 0, 0]	n/a	catFR1	0	R1542J
1437.183	1.616	1754166	WORD	n/a	wordpools/wordpool_categorized_EN.txt	LIME	Fruit	12	11	[0, 0, 0]	n/a	catFR1	0	R1542J
1438.799	0.0	1755775	PROB	3.117	n/a	n/a	n/a	-999	11	[2, 8, 3]	13.0	catFR1	0	R1542J
1438.799	0.002	1755776	WORD_OFF	n/a	n/a	LIME	Fruit	12	11	[0, 0, 0]	n/a	catFR1	0	R1542J
1438.801	0.0	1755776	ENCODING_END	n/a	n/a	n/a	n/a	-999	11	[0, 0, 0]	n/a	catFR1	0	R1542J
1438.801	0.0	1755776	DISTRACT_START	n/a	n/a	n/a	n/a	-999	11	[0, 0, 0]	n/a	catFR1	0	R1542J
1438.801	3.132	1755777	START	n/a	n/a	n/a	n/a	-999	11	[-999, -999, -999]	n/a	catFR1	0	R1542J
1441.933	3.55	1758909	PROB	3.533	n/a	n/a	n/a	-999	11	[7, 1, 8]	16.0	catFR1	0	R1542J
1445.483	4.867	1762458	PROB	4.85	n/a	n/a	n/a	-999	11	[2, 8, 3]	13.0	catFR1	0	R1542J
1450.35	2.5	1767325	PROB	2.483	n/a	n/a	n/a	-999	11	[8, 2, 1]	11.0	catFR1	0	R1542J
1452.85	2.333	1769825	PROB	2.315	n/a	n/a	n/a	-999	11	[3, 5, 2]	10.0	catFR1	0	R1542J
1455.183	2.017	1772158	PROB	2.0	n/a	n/a	n/a	-999	11	[1, 1, 5]	7.0	catFR1	0	R1542J
1457.2	4.132	1774175	PROB	4.115	n/a	n/a	n/a	-999	11	[3, 5, 6]	14.0	catFR1	0	R1542J
1461.332	0.0	1778307	STOP	n/a	n/a	n/a	n/a	-999	11	[-999, -999, -999]	n/a	catFR1	0	R1542J
1461.332	1.901	1778316	DISTRACT_END	n/a	n/a	n/a	n/a	-999	11	[0, 0, 0]	n/a	catFR1	0	R1542J
1463.233	1.23	1780218	REC_START	n/a	n/a	n/a	n/a	-999	11	[0, 0, 0]	n/a	catFR1	0	R1542J
1464.463	1.057	1781438	REC_WORD	1.23	n/a	BOAT	Vehicles	3	11	[0, 0, 0]	n/a	catFR1	0	R1542J
1465.52	1.267	1782495	REC_WORD	2.287	n/a	SCOOTER	Vehicles	4	11	[0, 0, 0]	n/a	catFR1	0	R1542J
1466.787	1.31	1783762	REC_WORD	3.554	n/a	PLANE	Vehicles	8	11	[0, 0, 0]	n/a	catFR1	0	R1542J
1468.097	1.39	1785071	REC_WORD	4.864	n/a	BIKE	Vehicles	7	11	[0, 0, 0]	n/a	catFR1	0	R1542J
1469.487	1.536	1786461	REC_WORD	6.254	n/a	GRAPE	Fruit	1	11	[0, 0, 0]	n/a	catFR1	0	R1542J
1471.023	22.435	1787997	REC_WORD	7.79	n/a	PEAR	Fruit	2	11	[0, 0, 0]	n/a	catFR1	0	R1542J
1493.458	1.607	1810434	REC_END	n/a	n/a	n/a	n/a	-999	11	[0, 0, 0]	n/a	catFR1	0	R1542J
1495.065	10.35	1812044	COUNTDOWN_START	n/a	n/a	n/a	n/a	-999	12	[0, 0, 0]	n/a	catFR1	0	R1542J
1505.415	0.0	1822387	COUNTDOWN_END	n/a	n/a	n/a	n/a	-999	12	[0, 0, 0]	n/a	catFR1	0	R1542J
1505.415	2.05	1822403	ENCODING_START	n/a	n/a	n/a	n/a	-999	12	[0, 0, 0]	n/a	catFR1	0	R1542J
1507.465	1.6	1824452	WORD	n/a	wordpools/wordpool_categorized_EN.txt	BLUEBERRY	Fruit	1	12	[0, 0, 0]	n/a	catFR1	0	R1542J
1509.065	0.899	1826046	WORD_OFF	n/a	n/a	BLUEBERRY	Fruit	1	12	[0, 0, 0]	n/a	catFR1	0	R1542J
1509.964	1.601	1826940	WORD	n/a	wordpools/wordpool_categorized_EN.txt	APPLE	Fruit	2	12	[0, 0, 0]	n/a	catFR1	0	R1542J
1511.565	0.999	1828550	WORD_OFF	n/a	n/a	APPLE	Fruit	2	12	[0, 0, 0]	n/a	catFR1	0	R1542J
1512.564	1.601	1829542	WORD	n/a	wordpools/wordpool_categorized_EN.txt	TURTLE	OceanAnimals	3	12	[0, 0, 0]	n/a	catFR1	0	R1542J
1514.165	0.933	1831136	WORD_OFF	n/a	n/a	TURTLE	OceanAnimals	3	12	[0, 0, 0]	n/a	catFR1	0	R1542J
1515.098	1.616	1832079	WORD	n/a	wordpools/wordpool_categorized_EN.txt	SHRIMP	OceanAnimals	4	12	[0, 0, 0]	n/a	catFR1	0	R1542J
1516.714	0.751	1833689	WORD_OFF	n/a	n/a	SHRIMP	OceanAnimals	4	12	[0, 0, 0]	n/a	catFR1	0	R1542J
1517.465	1.6	1834437	WORD	n/a	wordpools/wordpool_categorized_EN.txt	SKIRT	Clothing	5	12	[0, 0, 0]	n/a	catFR1	0	R1542J
1519.065	0.9	1836047	WORD_OFF	n/a	n/a	SKIRT	Clothing	5	12	[0, 0, 0]	n/a	catFR1	0	R1542J
1519.965	1.615	1836941	WORD	n/a	wordpools/wordpool_categorized_EN.txt	SHOES	Clothing	6	12	[0, 0, 0]	n/a	catFR1	0	R1542J
1521.58	0.785	1838551	WORD_OFF	n/a	n/a	SHOES	Clothing	6	12	[0, 0, 0]	n/a	catFR1	0	R1542J
1522.365	1.617	1839348	WORD	n/a	wordpools/wordpool_categorized_EN.txt	CHERRY	Fruit	7	12	[0, 0, 0]	n/a	catFR1	0	R1542J
1523.982	0.984	1840958	WORD_OFF	n/a	n/a	CHERRY	Fruit	7	12	[0, 0, 0]	n/a	catFR1	0	R1542J
1524.966	1.615	1841950	WORD	n/a	wordpools/wordpool_categorized_EN.txt	LEMON	Fruit	8	12	[0, 0, 0]	n/a	catFR1	0	R1542J
1526.581	0.95	1843560	WORD_OFF	n/a	n/a	LEMON	Fruit	8	12	[0, 0, 0]	n/a	catFR1	0	R1542J
1527.531	1.618	1844503	WORD	n/a	wordpools/wordpool_categorized_EN.txt	BLOUSE	Clothing	9	12	[0, 0, 0]	n/a	catFR1	0	R1542J
1529.149	0.933	1846129	WORD_OFF	n/a	n/a	BLOUSE	Clothing	9	12	[0, 0, 0]	n/a	catFR1	0	R1542J
1530.082	1.616	1847056	WORD	n/a	wordpools/wordpool_categorized_EN.txt	SHORTS	Clothing	10	12	[0, 0, 0]	n/a	catFR1	0	R1542J
1531.698	0.817	1848683	WORD_OFF	n/a	n/a	SHORTS	Clothing	10	12	[0, 0, 0]	n/a	catFR1	0	R1542J
1532.515	1.617	1849496	WORD	n/a	wordpools/wordpool_categorized_EN.txt	LOBSTER	OceanAnimals	11	12	[0, 0, 0]	n/a	catFR1	0	R1542J
1534.132	0.85	1851106	WORD_OFF	n/a	n/a	LOBSTER	OceanAnimals	11	12	[0, 0, 0]	n/a	catFR1	0	R1542J
1534.982	1.617	1851951	WORD	n/a	wordpools/wordpool_categorized_EN.txt	DOLPHIN	OceanAnimals	12	12	[0, 0, 0]	n/a	catFR1	0	R1542J
1536.599	0.001	1853571	PROB	3.682	n/a	n/a	n/a	-999	12	[7, 6, 8]	21.0	catFR1	0	R1542J
1536.6	0.0	1853572	START	n/a	n/a	n/a	n/a	-999	12	[-999, -999, -999]	n/a	catFR1	0	R1542J
1536.598	0.001	1853578	WORD_OFF	n/a	n/a	DOLPHIN	OceanAnimals	12	12	[0, 0, 0]	n/a	catFR1	0	R1542J
1536.599	0.001	1853578	ENCODING_END	n/a	n/a	n/a	n/a	-999	12	[0, 0, 0]	n/a	catFR1	0	R1542J
1536.6	3.699	1853578	DISTRACT_START	n/a	n/a	n/a	n/a	-999	12	[0, 0, 0]	n/a	catFR1	0	R1542J
1540.299	4.617	1857270	PROB	4.599	n/a	n/a	n/a	-999	12	[5, 6, 6]	17.0	catFR1	0	R1542J
1544.916	2.733	1861887	PROB	2.717	n/a	n/a	n/a	-999	12	[2, 3, 5]	10.0	catFR1	0	R1542J
1547.649	3.883	1864620	PROB	3.865	n/a	n/a	n/a	-999	12	[7, 1, 4]	12.0	catFR1	0	R1542J
1551.532	3.266	1868503	PROB	3.25	n/a	n/a	n/a	-999	12	[7, 4, 2]	13.0	catFR1	0	R1542J
1554.798	2.133	1871769	PROB	2.117	n/a	n/a	n/a	-999	12	[7, 5, 1]	13.0	catFR1	0	R1542J
1556.931	0.0	1873902	STOP	n/a	n/a	n/a	n/a	-999	12	[-999, -999, -999]	n/a	catFR1	0	R1542J
1556.931	1.834	1873905	DISTRACT_END	n/a	n/a	n/a	n/a	-999	12	[0, 0, 0]	n/a	catFR1	0	R1542J
1558.765	1.169	1875743	REC_START	n/a	n/a	n/a	n/a	-999	12	[0, 0, 0]	n/a	catFR1	0	R1542J
1559.934	1.413	1876905	REC_WORD	1.169	n/a	SKIRT	Clothing	5	12	[0, 0, 0]	n/a	catFR1	0	R1542J
1561.347	1.211	1878317	REC_WORD	2.582	n/a	BLOUSE	Clothing	9	12	[0, 0, 0]	n/a	catFR1	0	R1542J
1562.558	5.748	1879528	REC_WORD	3.793	n/a	SHORTS	Clothing	10	12	[0, 0, 0]	n/a	catFR1	0	R1542J
1568.306	4.766	1885276	REC_WORD	9.541	n/a	BLUEBERRY	Fruit	1	12	[0, 0, 0]	n/a	catFR1	0	R1542J
1573.072	1.394	1890042	REC_WORD	14.307	n/a	APPLE	Fruit	2	12	[0, 0, 0]	n/a	catFR1	0	R1542J
1574.466	1.608	1891436	REC_WORD	15.701	n/a	LEMON	Fruit	8	12	[0, 0, 0]	n/a	catFR1	0	R1542J
1576.074	12.899	1893044	REC_WORD	17.309	n/a	CHERRY	Fruit	7	12	[0, 0, 0]	n/a	catFR1	0	R1542J
1588.973	0.0	1905942	REC_END	n/a	n/a	n/a	n/a	-999	12	[0, 0, 0]	n/a	catFR1	0	R1542J
