onset	duration	sample	trial_type	response_time	stim_file	item_name	category	serialpos	list	test	answer	experiment	session	subject
0.0	8.834	248821	INSTRUCT_START	n/a	n/a	n/a	n/a	-999	-999	[0, 0, 0]	n/a	catFR1	8	R1468J
8.834	39.332	257656	INSTRUCT_END	n/a	n/a	n/a	n/a	-999	-999	[0, 0, 0]	n/a	catFR1	8	R1468J
48.166	10.35	296987	COUNTDOWN_START	n/a	n/a	n/a	n/a	-999	-999	[0, 0, 0]	n/a	catFR1	8	R1468J
58.516	0.0	307333	COUNTDOWN_END	n/a	n/a	n/a	n/a	-999	-999	[0, 0, 0]	n/a	catFR1	8	R1468J
58.516	1.902	307333	ENCODING_START	n/a	n/a	n/a	n/a	-999	-1	[0, 0, 0]	n/a	catFR1	8	R1468J
60.418	1.599	309232	WORD	n/a	n/a	HICKORY	Trees	1	-1	[0, 0, 0]	n/a	catFR1	8	R1468J
62.017	0.866	310836	WORD_OFF	n/a	n/a	HICKORY	Trees	1	-1	[0, 0, 0]	n/a	catFR1	8	R1468J
62.883	1.6	311697	WORD	n/a	n/a	BIRCH	Trees	2	-1	[0, 0, 0]	n/a	catFR1	8	R1468J
64.483	0.933	313301	WORD_OFF	n/a	n/a	BIRCH	Trees	2	-1	[0, 0, 0]	n/a	catFR1	8	R1468J
65.416	1.6	314231	WORD	n/a	n/a	RADIO	Electronics	3	-1	[0, 0, 0]	n/a	catFR1	8	R1468J
67.016	0.95	315835	WORD_OFF	n/a	n/a	RADIO	Electronics	3	-1	[0, 0, 0]	n/a	catFR1	8	R1468J
67.966	1.617	316781	WORD	n/a	n/a	TELEVISION	Electronics	4	-1	[0, 0, 0]	n/a	catFR1	8	R1468J
69.583	0.95	318400	WORD_OFF	n/a	n/a	TELEVISION	Electronics	4	-1	[0, 0, 0]	n/a	catFR1	8	R1468J
70.533	1.6	319346	WORD	n/a	n/a	GUITAR	Instruments	5	-1	[0, 0, 0]	n/a	catFR1	8	R1468J
72.133	0.999	320950	WORD_OFF	n/a	n/a	GUITAR	Instruments	5	-1	[0, 0, 0]	n/a	catFR1	8	R1468J
73.132	1.6	321950	WORD	n/a	n/a	ORGAN	Instruments	6	-1	[0, 0, 0]	n/a	catFR1	8	R1468J
74.732	0.917	323546	WORD_OFF	n/a	n/a	ORGAN	Instruments	6	-1	[0, 0, 0]	n/a	catFR1	8	R1468J
75.649	1.616	324461	WORD	n/a	n/a	PHONE	Electronics	7	-1	[0, 0, 0]	n/a	catFR1	8	R1468J
77.265	0.967	326081	WORD_OFF	n/a	n/a	PHONE	Electronics	7	-1	[0, 0, 0]	n/a	catFR1	8	R1468J
78.232	1.601	327049	WORD	n/a	n/a	HEADPHONES	Electronics	8	-1	[0, 0, 0]	n/a	catFR1	8	R1468J
79.833	0.867	328646	WORD_OFF	n/a	n/a	HEADPHONES	Electronics	8	-1	[0, 0, 0]	n/a	catFR1	8	R1468J
80.7	1.616	329514	WORD	n/a	n/a	CEDAR	Trees	9	-1	[0, 0, 0]	n/a	catFR1	8	R1468J
82.316	0.784	331134	WORD_OFF	n/a	n/a	CEDAR	Trees	9	-1	[0, 0, 0]	n/a	catFR1	8	R1468J
83.1	1.616	331916	WORD	n/a	n/a	WILLOW	Trees	10	-1	[0, 0, 0]	n/a	catFR1	8	R1468J
84.716	0.85	333528	WORD_OFF	n/a	n/a	WILLOW	Trees	10	-1	[0, 0, 0]	n/a	catFR1	8	R1468J
85.566	1.617	334381	WORD	n/a	n/a	BASS	Instruments	11	-1	[0, 0, 0]	n/a	catFR1	8	R1468J
87.183	0.95	336001	WORD_OFF	n/a	n/a	BASS	Instruments	11	-1	[0, 0, 0]	n/a	catFR1	8	R1468J
88.133	1.616	336946	WORD	n/a	n/a	TRUMPET	Instruments	12	-1	[0, 0, 0]	n/a	catFR1	8	R1468J
89.749	0.001	338564	PROB	0.001	n/a	n/a	n/a	-999	-1	[4, 8, 7]	19	catFR1	8	R1468J
89.75	0.0	338565	START	n/a	n/a	n/a	n/a	-999	-1	[-999, -999, -999]	n/a	catFR1	8	R1468J
89.749	0.001	338566	WORD_OFF	n/a	n/a	TRUMPET	Instruments	12	-1	[0, 0, 0]	n/a	catFR1	8	R1468J
89.75	0.0	338566	ENCODING_END	n/a	n/a	n/a	n/a	-999	-1	[0, 0, 0]	n/a	catFR1	8	R1468J
89.75	3.799	338566	DISTRACT_START	n/a	n/a	n/a	n/a	-999	-1	[0, 0, 0]	n/a	catFR1	8	R1468J
93.549	3.718	342364	PROB	3.718	n/a	n/a	n/a	-999	-1	[8, 4, 2]	14	catFR1	8	R1468J
97.267	4.766	346082	PROB	4.766	n/a	n/a	n/a	-999	-1	[4, 5, 3]	12	catFR1	8	R1468J
102.033	7.634	350848	PROB	7.634	n/a	n/a	n/a	-999	-1	[7, 4, 3]	14	catFR1	8	R1468J
109.667	5.149	358482	PROB	5.149	n/a	n/a	n/a	-999	-1	[8, 8, 2]	18	catFR1	8	R1468J
114.816	0.0	363629	DISTRACT_END	n/a	n/a	n/a	n/a	-999	-1	[0, 0, 0]	n/a	catFR1	8	R1468J
114.816	1.3	363630	STOP	n/a	n/a	n/a	n/a	-999	-1	[-999, -999, -999]	n/a	catFR1	8	R1468J
116.116	1.252	364931	REC_START	n/a	n/a	n/a	n/a	-999	-1	[0, 0, 0]	n/a	catFR1	8	R1468J
117.368	1.34	366182	REC_WORD	1.34	n/a	BIRCH	Trees	2	-1	[0, 0, 0]	n/a	catFR1	8	R1468J
118.708	2.383	367522	REC_WORD	2.383	n/a	WILLOW	Trees	10	-1	[0, 0, 0]	n/a	catFR1	8	R1468J
121.091	2.092	369905	REC_WORD	2.092	n/a	GUITAR	Instruments	5	-1	[0, 0, 0]	n/a	catFR1	8	R1468J
123.183	2.799	371997	REC_WORD	2.799	n/a	ORGAN	Instruments	6	-1	[0, 0, 0]	n/a	catFR1	8	R1468J
125.982	10.277	374796	REC_WORD	10.277	n/a	MICROPHONE	n/a	-999	-1	[0, 0, 0]	n/a	catFR1	8	R1468J
136.259	7.288	385072	REC_WORD	7.288	n/a	BASS	Instruments	11	-1	[0, 0, 0]	n/a	catFR1	8	R1468J
143.547	3.761	392360	REC_WORD	3.761	n/a	HEADPHONES	Electronics	8	-1	[0, 0, 0]	n/a	catFR1	8	R1468J
147.308	8.691	396117	REC_END	n/a	n/a	n/a	n/a	-999	-1	[0, 0, 0]	n/a	catFR1	8	R1468J
155.999	10.352	404813	COUNTDOWN_START	n/a	n/a	n/a	n/a	-999	1	[0, 0, 0]	n/a	catFR1	8	R1468J
166.351	0.0	415159	COUNTDOWN_END	n/a	n/a	n/a	n/a	-999	1	[0, 0, 0]	n/a	catFR1	8	R1468J
166.351	2.181	415167	ENCODING_START	n/a	n/a	n/a	n/a	-999	1	[0, 0, 0]	n/a	catFR1	8	R1468J
168.532	1.6	417345	WORD	n/a	wordpools/wordpool_categorized_EN.txt	PEACH	Fruit	1	1	[0, 0, 0]	n/a	catFR1	8	R1468J
170.132	1.001	418941	WORD_OFF	n/a	n/a	PEACH	Fruit	1	1	[0, 0, 0]	n/a	catFR1	8	R1468J
171.133	1.6	419941	WORD	n/a	wordpools/wordpool_categorized_EN.txt	CHERRY	Fruit	2	1	[0, 0, 0]	n/a	catFR1	8	R1468J
172.733	0.9	421545	WORD_OFF	n/a	n/a	CHERRY	Fruit	2	1	[0, 0, 0]	n/a	catFR1	8	R1468J
173.633	1.616	422444	WORD	n/a	wordpools/wordpool_categorized_EN.txt	CHEESECAKE	Desserts	3	1	[0, 0, 0]	n/a	catFR1	8	R1468J
175.249	0.918	424072	WORD_OFF	n/a	n/a	CHEESECAKE	Desserts	3	1	[0, 0, 0]	n/a	catFR1	8	R1468J
176.167	1.616	424978	WORD	n/a	wordpools/wordpool_categorized_EN.txt	JELLO	Desserts	4	1	[0, 0, 0]	n/a	catFR1	8	R1468J
177.783	0.883	426590	WORD_OFF	n/a	n/a	JELLO	Desserts	4	1	[0, 0, 0]	n/a	catFR1	8	R1468J
178.666	1.618	427474	WORD	n/a	wordpools/wordpool_categorized_EN.txt	SKIRT	Clothing	5	1	[0, 0, 0]	n/a	catFR1	8	R1468J
180.284	0.832	429094	WORD_OFF	n/a	n/a	SKIRT	Clothing	5	1	[0, 0, 0]	n/a	catFR1	8	R1468J
181.116	1.6	429923	WORD	n/a	wordpools/wordpool_categorized_EN.txt	SHIRT	Clothing	6	1	[0, 0, 0]	n/a	catFR1	8	R1468J
182.716	0.984	431527	WORD_OFF	n/a	n/a	SHIRT	Clothing	6	1	[0, 0, 0]	n/a	catFR1	8	R1468J
183.7	1.615	432511	WORD	n/a	wordpools/wordpool_categorized_EN.txt	BANANA	Fruit	7	1	[0, 0, 0]	n/a	catFR1	8	R1468J
185.315	1.0	434123	WORD_OFF	n/a	n/a	BANANA	Fruit	7	1	[0, 0, 0]	n/a	catFR1	8	R1468J
186.315	1.601	435123	WORD	n/a	wordpools/wordpool_categorized_EN.txt	ORANGE	Fruit	8	1	[0, 0, 0]	n/a	catFR1	8	R1468J
187.916	0.949	436727	WORD_OFF	n/a	n/a	ORANGE	Fruit	8	1	[0, 0, 0]	n/a	catFR1	8	R1468J
188.865	1.601	437673	WORD	n/a	wordpools/wordpool_categorized_EN.txt	JEANS	Clothing	9	1	[0, 0, 0]	n/a	catFR1	8	R1468J
190.466	0.784	439277	WORD_OFF	n/a	n/a	JEANS	Clothing	9	1	[0, 0, 0]	n/a	catFR1	8	R1468J
191.25	1.6	440060	WORD	n/a	wordpools/wordpool_categorized_EN.txt	SOCKS	Clothing	10	1	[0, 0, 0]	n/a	catFR1	8	R1468J
192.85	0.766	441664	WORD_OFF	n/a	n/a	SOCKS	Clothing	10	1	[0, 0, 0]	n/a	catFR1	8	R1468J
193.616	1.6	442424	WORD	n/a	wordpools/wordpool_categorized_EN.txt	BROWNIES	Desserts	11	1	[0, 0, 0]	n/a	catFR1	8	R1468J
195.216	0.883	444028	WORD_OFF	n/a	n/a	BROWNIES	Desserts	11	1	[0, 0, 0]	n/a	catFR1	8	R1468J
196.099	1.6	444911	WORD	n/a	wordpools/wordpool_categorized_EN.txt	PASTRY	Desserts	12	1	[0, 0, 0]	n/a	catFR1	8	R1468J
197.699	0.001	446508	WORD_OFF	n/a	n/a	PASTRY	Desserts	12	1	[0, 0, 0]	n/a	catFR1	8	R1468J
197.7	0.0	446508	ENCODING_END	n/a	n/a	n/a	n/a	-999	1	[0, 0, 0]	n/a	catFR1	8	R1468J
197.7	0.0	446511	START	n/a	n/a	n/a	n/a	-999	1	[-999, -999, -999]	n/a	catFR1	8	R1468J
197.7	0.0	446511	PROB	0.0	n/a	n/a	n/a	-999	1	[1, 1, 6]	8	catFR1	8	R1468J
197.7	5.033	446516	DISTRACT_START	n/a	n/a	n/a	n/a	-999	1	[0, 0, 0]	n/a	catFR1	8	R1468J
202.733	4.317	451544	PROB	4.317	n/a	n/a	n/a	-999	1	[1, 3, 2]	6	catFR1	8	R1468J
207.05	6.718	455860	PROB	6.718	n/a	n/a	n/a	-999	1	[3, 3, 7]	13	catFR1	8	R1468J
213.768	3.748	462578	PROB	3.748	n/a	n/a	n/a	-999	1	[2, 2, 7]	11	catFR1	8	R1468J
217.516	7.05	466326	PROB	7.05	n/a	n/a	n/a	-999	1	[4, 8, 3]	15	catFR1	8	R1468J
224.566	0.0	473376	STOP	n/a	n/a	n/a	n/a	-999	1	[-999, -999, -999]	n/a	catFR1	8	R1468J
224.566	1.285	473377	DISTRACT_END	n/a	n/a	n/a	n/a	-999	1	[0, 0, 0]	n/a	catFR1	8	R1468J
225.851	1.547	474664	REC_START	n/a	n/a	n/a	n/a	-999	1	[0, 0, 0]	n/a	catFR1	8	R1468J
227.398	1.811	476208	REC_WORD	1.811	n/a	BROWNIES	Desserts	11	1	[0, 0, 0]	n/a	catFR1	8	R1468J
229.209	2.109	478019	REC_WORD	2.109	n/a	PASTRY	Desserts	12	1	[0, 0, 0]	n/a	catFR1	8	R1468J
231.318	1.372	480127	REC_WORD	1.372	n/a	PEACH	Fruit	1	1	[0, 0, 0]	n/a	catFR1	8	R1468J
232.69	4.13	481499	REC_WORD	4.13	n/a	BANANA	Fruit	7	1	[0, 0, 0]	n/a	catFR1	8	R1468J
236.82	7.359	485629	REC_WORD	7.359	n/a	SKIRT	Clothing	5	1	[0, 0, 0]	n/a	catFR1	8	R1468J
244.179	4.068	492988	REC_WORD	4.068	n/a	SHIRT	Clothing	6	1	[0, 0, 0]	n/a	catFR1	8	R1468J
248.247	8.786	497056	REC_WORD	8.786	n/a	ORANGE	Fruit	8	1	[0, 0, 0]	n/a	catFR1	8	R1468J
257.033	2.885	505842	REC_END	n/a	n/a	n/a	n/a	-999	1	[0, 0, 0]	n/a	catFR1	8	R1468J
259.918	10.35	508725	COUNTDOWN_START	n/a	n/a	n/a	n/a	-999	1	[0, 0, 0]	n/a	catFR1	8	R1468J
270.268	0.0	519079	COUNTDOWN_END	n/a	n/a	n/a	n/a	-999	1	[0, 0, 0]	n/a	catFR1	8	R1468J
270.268	2.1	519079	ENCODING_START	n/a	n/a	n/a	n/a	-999	2	[0, 0, 0]	n/a	catFR1	8	R1468J
272.368	1.616	521179	WORD	n/a	wordpools/wordpool_categorized_EN.txt	SNOW	Weather	1	2	[0, 0, 0]	n/a	catFR1	8	R1468J
273.984	0.9	522791	WORD_OFF	n/a	n/a	SNOW	Weather	1	2	[0, 0, 0]	n/a	catFR1	8	R1468J
274.884	1.6	523690	WORD	n/a	wordpools/wordpool_categorized_EN.txt	TORNADO	Weather	2	2	[0, 0, 0]	n/a	catFR1	8	R1468J
276.484	0.817	525294	WORD_OFF	n/a	n/a	TORNADO	Weather	2	2	[0, 0, 0]	n/a	catFR1	8	R1468J
277.301	1.6	526108	WORD	n/a	wordpools/wordpool_categorized_EN.txt	PANTS	Clothing	3	2	[0, 0, 0]	n/a	catFR1	8	R1468J
278.901	0.967	527705	WORD_OFF	n/a	n/a	PANTS	Clothing	3	2	[0, 0, 0]	n/a	catFR1	8	R1468J
279.868	1.616	528673	WORD	n/a	wordpools/wordpool_categorized_EN.txt	DRESS	Clothing	4	2	[0, 0, 0]	n/a	catFR1	8	R1468J
281.484	0.966	530293	WORD_OFF	n/a	n/a	DRESS	Clothing	4	2	[0, 0, 0]	n/a	catFR1	8	R1468J
282.45	1.601	531254	WORD	n/a	wordpools/wordpool_categorized_EN.txt	SHELF	Furniture	5	2	[0, 0, 0]	n/a	catFR1	8	R1468J
284.051	0.949	532858	WORD_OFF	n/a	n/a	SHELF	Furniture	5	2	[0, 0, 0]	n/a	catFR1	8	R1468J
285.0	1.6	533804	WORD	n/a	wordpools/wordpool_categorized_EN.txt	COUCH	Furniture	6	2	[0, 0, 0]	n/a	catFR1	8	R1468J
286.6	0.765	535408	WORD_OFF	n/a	n/a	COUCH	Furniture	6	2	[0, 0, 0]	n/a	catFR1	8	R1468J
287.365	1.602	536175	WORD	n/a	wordpools/wordpool_categorized_EN.txt	JACKET	Clothing	7	2	[0, 0, 0]	n/a	catFR1	8	R1468J
288.967	0.834	537772	WORD_OFF	n/a	n/a	JACKET	Clothing	7	2	[0, 0, 0]	n/a	catFR1	8	R1468J
289.801	1.6	538609	WORD	n/a	wordpools/wordpool_categorized_EN.txt	UNDERWEAR	Clothing	8	2	[0, 0, 0]	n/a	catFR1	8	R1468J
291.401	0.783	540205	WORD_OFF	n/a	n/a	UNDERWEAR	Clothing	8	2	[0, 0, 0]	n/a	catFR1	8	R1468J
292.184	1.6	540988	WORD	n/a	wordpools/wordpool_categorized_EN.txt	RECLINER	Furniture	9	2	[0, 0, 0]	n/a	catFR1	8	R1468J
293.784	0.784	542592	WORD_OFF	n/a	n/a	RECLINER	Furniture	9	2	[0, 0, 0]	n/a	catFR1	8	R1468J
294.568	1.6	543375	WORD	n/a	wordpools/wordpool_categorized_EN.txt	CABINET	Furniture	10	2	[0, 0, 0]	n/a	catFR1	8	R1468J
296.168	0.916	544971	WORD_OFF	n/a	n/a	CABINET	Furniture	10	2	[0, 0, 0]	n/a	catFR1	8	R1468J
297.084	1.6	545894	WORD	n/a	wordpools/wordpool_categorized_EN.txt	RAIN	Weather	11	2	[0, 0, 0]	n/a	catFR1	8	R1468J
298.684	0.767	547490	WORD_OFF	n/a	n/a	RAIN	Weather	11	2	[0, 0, 0]	n/a	catFR1	8	R1468J
299.451	1.6	548257	WORD	n/a	wordpools/wordpool_categorized_EN.txt	WIND	Weather	12	2	[0, 0, 0]	n/a	catFR1	8	R1468J
301.051	0.0	549854	WORD_OFF	n/a	n/a	WIND	Weather	12	2	[0, 0, 0]	n/a	catFR1	8	R1468J
301.051	0.001	549858	PROB	0.001	n/a	n/a	n/a	-999	2	[2, 5, 4]	11	catFR1	8	R1468J
301.052	0.0	549859	START	n/a	n/a	n/a	n/a	-999	2	[-999, -999, -999]	n/a	catFR1	8	R1468J
301.052	0.0	549862	ENCODING_END	n/a	n/a	n/a	n/a	-999	2	[0, 0, 0]	n/a	catFR1	8	R1468J
301.052	5.633	549862	DISTRACT_START	n/a	n/a	n/a	n/a	-999	2	[0, 0, 0]	n/a	catFR1	8	R1468J
306.685	4.533	555491	PROB	4.533	n/a	n/a	n/a	-999	2	[6, 6, 4]	16	catFR1	8	R1468J
311.218	4.366	560024	PROB	4.366	n/a	n/a	n/a	-999	2	[4, 6, 2]	12	catFR1	8	R1468J
315.584	5.632	564390	PROB	5.632	n/a	n/a	n/a	-999	2	[8, 8, 3]	19	catFR1	8	R1468J
321.216	0.0	570019	DISTRACT_END	n/a	n/a	n/a	n/a	-999	2	[0, 0, 0]	n/a	catFR1	8	R1468J
321.216	1.267	570022	STOP	n/a	n/a	n/a	n/a	-999	2	[-999, -999, -999]	n/a	catFR1	8	R1468J
322.483	1.041	571290	REC_START	n/a	n/a	n/a	n/a	-999	2	[0, 0, 0]	n/a	catFR1	8	R1468J
323.524	1.307	572330	REC_WORD	1.307	n/a	RAIN	Weather	11	2	[0, 0, 0]	n/a	catFR1	8	R1468J
324.831	3.095	573637	REC_WORD	3.095	n/a	WIND	Weather	12	2	[0, 0, 0]	n/a	catFR1	8	R1468J
327.926	5.047	576731	REC_WORD	5.047	n/a	SNOW	Weather	1	2	[0, 0, 0]	n/a	catFR1	8	R1468J
332.973	3.964	581778	REC_WORD	3.964	n/a	CABINET	Furniture	10	2	[0, 0, 0]	n/a	catFR1	8	R1468J
336.937	3.576	585742	REC_WORD	3.576	n/a	TORNADO	Weather	2	2	[0, 0, 0]	n/a	catFR1	8	R1468J
340.513	6.682	589318	REC_WORD	6.682	n/a	CABINET	Furniture	10	2	[0, 0, 0]	n/a	catFR1	8	R1468J
347.195	6.516	596000	REC_WORD	6.516	n/a	SHELF	Furniture	5	2	[0, 0, 0]	n/a	catFR1	8	R1468J
353.711	2.772	602515	REC_END	n/a	n/a	n/a	n/a	-999	2	[0, 0, 0]	n/a	catFR1	8	R1468J
356.483	10.349	605290	COUNTDOWN_START	n/a	n/a	n/a	n/a	-999	2	[0, 0, 0]	n/a	catFR1	8	R1468J
366.832	0.0	615636	COUNTDOWN_END	n/a	n/a	n/a	n/a	-999	2	[0, 0, 0]	n/a	catFR1	8	R1468J
366.832	1.885	615636	ENCODING_START	n/a	n/a	n/a	n/a	-999	3	[0, 0, 0]	n/a	catFR1	8	R1468J
368.717	1.615	617519	WORD	n/a	wordpools/wordpool_categorized_EN.txt	NOSE	BodyParts	1	3	[0, 0, 0]	n/a	catFR1	8	R1468J
370.332	0.934	619139	WORD_OFF	n/a	n/a	NOSE	BodyParts	1	3	[0, 0, 0]	n/a	catFR1	8	R1468J
371.266	1.616	620069	WORD	n/a	wordpools/wordpool_categorized_EN.txt	TOE	BodyParts	2	3	[0, 0, 0]	n/a	catFR1	8	R1468J
372.882	0.851	621681	WORD_OFF	n/a	n/a	TOE	BodyParts	2	3	[0, 0, 0]	n/a	catFR1	8	R1468J
373.733	1.6	622533	WORD	n/a	wordpools/wordpool_categorized_EN.txt	WALNUT	Trees	3	3	[0, 0, 0]	n/a	catFR1	8	R1468J
375.333	0.9	624138	WORD_OFF	n/a	n/a	WALNUT	Trees	3	3	[0, 0, 0]	n/a	catFR1	8	R1468J
376.233	1.616	625037	WORD	n/a	wordpools/wordpool_categorized_EN.txt	SPRUCE	Trees	4	3	[0, 0, 0]	n/a	catFR1	8	R1468J
377.849	0.95	626649	WORD_OFF	n/a	n/a	SPRUCE	Trees	4	3	[0, 0, 0]	n/a	catFR1	8	R1468J
378.799	1.601	627602	WORD	n/a	wordpools/wordpool_categorized_EN.txt	STAIRS	Building	5	3	[0, 0, 0]	n/a	catFR1	8	R1468J
380.4	0.915	629206	WORD_OFF	n/a	n/a	STAIRS	Building	5	3	[0, 0, 0]	n/a	catFR1	8	R1468J
381.315	1.601	630121	WORD	n/a	wordpools/wordpool_categorized_EN.txt	FLOOR	Building	6	3	[0, 0, 0]	n/a	catFR1	8	R1468J
382.916	0.783	631717	WORD_OFF	n/a	n/a	FLOOR	Building	6	3	[0, 0, 0]	n/a	catFR1	8	R1468J
383.699	1.6	632500	WORD	n/a	wordpools/wordpool_categorized_EN.txt	PINE	Trees	7	3	[0, 0, 0]	n/a	catFR1	8	R1468J
385.299	0.784	634104	WORD_OFF	n/a	n/a	PINE	Trees	7	3	[0, 0, 0]	n/a	catFR1	8	R1468J
386.083	1.616	634887	WORD	n/a	wordpools/wordpool_categorized_EN.txt	MAPLE	Trees	8	3	[0, 0, 0]	n/a	catFR1	8	R1468J
387.699	0.917	636499	WORD_OFF	n/a	n/a	MAPLE	Trees	8	3	[0, 0, 0]	n/a	catFR1	8	R1468J
388.616	1.6	637421	WORD	n/a	wordpools/wordpool_categorized_EN.txt	WALL	Building	9	3	[0, 0, 0]	n/a	catFR1	8	R1468J
390.216	0.817	639018	WORD_OFF	n/a	n/a	WALL	Building	9	3	[0, 0, 0]	n/a	catFR1	8	R1468J
391.033	1.616	639832	WORD	n/a	wordpools/wordpool_categorized_EN.txt	ROOF	Building	10	3	[0, 0, 0]	n/a	catFR1	8	R1468J
392.649	0.9	641451	WORD_OFF	n/a	n/a	ROOF	Building	10	3	[0, 0, 0]	n/a	catFR1	8	R1468J
393.549	1.618	642350	WORD	n/a	wordpools/wordpool_categorized_EN.txt	LEG	BodyParts	11	3	[0, 0, 0]	n/a	catFR1	8	R1468J
395.167	0.766	643970	WORD_OFF	n/a	n/a	LEG	BodyParts	11	3	[0, 0, 0]	n/a	catFR1	8	R1468J
395.933	1.6	644737	WORD	n/a	wordpools/wordpool_categorized_EN.txt	FINGERS	BodyParts	12	3	[0, 0, 0]	n/a	catFR1	8	R1468J
397.533	0.001	646334	WORD_OFF	n/a	n/a	FINGERS	BodyParts	12	3	[0, 0, 0]	n/a	catFR1	8	R1468J
397.534	0.0	646334	ENCODING_END	n/a	n/a	n/a	n/a	-999	3	[0, 0, 0]	n/a	catFR1	8	R1468J
397.533	0.001	646336	PROB	0.001	n/a	n/a	n/a	-999	3	[3, 5, 5]	13	catFR1	8	R1468J
397.534	0.0	646337	START	n/a	n/a	n/a	n/a	-999	3	[-999, -999, -999]	n/a	catFR1	8	R1468J
397.534	5.365	646341	DISTRACT_START	n/a	n/a	n/a	n/a	-999	3	[0, 0, 0]	n/a	catFR1	8	R1468J
402.899	2.45	651701	PROB	2.45	n/a	n/a	n/a	-999	3	[4, 2, 6]	12	catFR1	8	R1468J
405.349	7.851	654151	PROB	7.851	n/a	n/a	n/a	-999	3	[7, 5, 7]	19	catFR1	8	R1468J
413.2	6.165	662002	PROB	6.165	n/a	n/a	n/a	-999	3	[1, 3, 6]	10	catFR1	8	R1468J
419.365	0.0	668165	DISTRACT_END	n/a	n/a	n/a	n/a	-999	3	[0, 0, 0]	n/a	catFR1	8	R1468J
419.365	1.218	668167	STOP	n/a	n/a	n/a	n/a	-999	3	[-999, -999, -999]	n/a	catFR1	8	R1468J
420.583	1.683	669382	REC_START	n/a	n/a	n/a	n/a	-999	3	[0, 0, 0]	n/a	catFR1	8	R1468J
422.266	1.32	671068	REC_WORD	1.32	n/a	PINE	Trees	7	3	[0, 0, 0]	n/a	catFR1	8	R1468J
423.586	2.277	672388	REC_WORD	2.277	n/a	MAPLE	Trees	8	3	[0, 0, 0]	n/a	catFR1	8	R1468J
425.863	1.785	674664	REC_WORD	1.785	n/a	WALNUT	Trees	3	3	[0, 0, 0]	n/a	catFR1	8	R1468J
427.648	2.658	676449	REC_WORD	2.658	n/a	SPRUCE	Trees	4	3	[0, 0, 0]	n/a	catFR1	8	R1468J
430.306	4.102	679107	REC_WORD	4.102	n/a	TOE	BodyParts	2	3	[0, 0, 0]	n/a	catFR1	8	R1468J
434.408	17.399	683209	REC_WORD	17.399	n/a	WIND	Weather	-999	3	[0, 0, 0]	n/a	catFR1	8	R1468J
451.807	2.694	700607	REC_END	n/a	n/a	n/a	n/a	-999	3	[0, 0, 0]	n/a	catFR1	8	R1468J
454.501	10.349	703304	COUNTDOWN_START	n/a	n/a	n/a	n/a	-999	3	[0, 0, 0]	n/a	catFR1	8	R1468J
464.85	0.001	713650	COUNTDOWN_END	n/a	n/a	n/a	n/a	-999	3	[0, 0, 0]	n/a	catFR1	8	R1468J
464.851	2.184	713650	ENCODING_START	n/a	n/a	n/a	n/a	-999	4	[0, 0, 0]	n/a	catFR1	8	R1468J
467.035	1.616	715836	WORD	n/a	wordpools/wordpool_categorized_EN.txt	TRUCK	Vehicles	1	4	[0, 0, 0]	n/a	catFR1	8	R1468J
468.651	0.933	717448	WORD_OFF	n/a	n/a	TRUCK	Vehicles	1	4	[0, 0, 0]	n/a	catFR1	8	R1468J
469.584	1.616	718385	WORD	n/a	wordpools/wordpool_categorized_EN.txt	SCOOTER	Vehicles	2	4	[0, 0, 0]	n/a	catFR1	8	R1468J
471.2	0.884	719997	WORD_OFF	n/a	n/a	SCOOTER	Vehicles	2	4	[0, 0, 0]	n/a	catFR1	8	R1468J
472.084	1.6	720881	WORD	n/a	wordpools/wordpool_categorized_EN.txt	FOREST	Landscapes	3	4	[0, 0, 0]	n/a	catFR1	8	R1468J
473.684	0.899	722485	WORD_OFF	n/a	n/a	FOREST	Landscapes	3	4	[0, 0, 0]	n/a	catFR1	8	R1468J
474.583	1.601	723384	WORD	n/a	wordpools/wordpool_categorized_EN.txt	ISLAND	Landscapes	4	4	[0, 0, 0]	n/a	catFR1	8	R1468J
476.184	0.95	724981	WORD_OFF	n/a	n/a	ISLAND	Landscapes	4	4	[0, 0, 0]	n/a	catFR1	8	R1468J
477.134	1.6	725934	WORD	n/a	wordpools/wordpool_categorized_EN.txt	ONION	Vegetables	5	4	[0, 0, 0]	n/a	catFR1	8	R1468J
478.734	0.767	727530	WORD_OFF	n/a	n/a	ONION	Vegetables	5	4	[0, 0, 0]	n/a	catFR1	8	R1468J
479.501	1.616	728298	WORD	n/a	wordpools/wordpool_categorized_EN.txt	POTATO	Vegetables	6	4	[0, 0, 0]	n/a	catFR1	8	R1468J
481.117	0.817	729917	WORD_OFF	n/a	n/a	POTATO	Vegetables	6	4	[0, 0, 0]	n/a	catFR1	8	R1468J
481.934	1.6	730731	WORD	n/a	wordpools/wordpool_categorized_EN.txt	HILLS	Landscapes	7	4	[0, 0, 0]	n/a	catFR1	8	R1468J
483.534	1.0	732335	WORD_OFF	n/a	n/a	HILLS	Landscapes	7	4	[0, 0, 0]	n/a	catFR1	8	R1468J
484.534	1.617	733335	WORD	n/a	wordpools/wordpool_categorized_EN.txt	CREEK	Landscapes	8	4	[0, 0, 0]	n/a	catFR1	8	R1468J
486.151	0.783	734947	WORD_OFF	n/a	n/a	CREEK	Landscapes	8	4	[0, 0, 0]	n/a	catFR1	8	R1468J
486.934	1.6	735730	WORD	n/a	wordpools/wordpool_categorized_EN.txt	CARROT	Vegetables	9	4	[0, 0, 0]	n/a	catFR1	8	R1468J
488.534	0.767	737334	WORD_OFF	n/a	n/a	CARROT	Vegetables	9	4	[0, 0, 0]	n/a	catFR1	8	R1468J
489.301	1.6	738101	WORD	n/a	wordpools/wordpool_categorized_EN.txt	LETTUCE	Vegetables	10	4	[0, 0, 0]	n/a	catFR1	8	R1468J
490.901	0.983	739698	WORD_OFF	n/a	n/a	LETTUCE	Vegetables	10	4	[0, 0, 0]	n/a	catFR1	8	R1468J
491.884	1.601	740682	WORD	n/a	wordpools/wordpool_categorized_EN.txt	BUS	Vehicles	11	4	[0, 0, 0]	n/a	catFR1	8	R1468J
493.485	0.949	742286	WORD_OFF	n/a	n/a	BUS	Vehicles	11	4	[0, 0, 0]	n/a	catFR1	8	R1468J
494.434	1.601	743232	WORD	n/a	wordpools/wordpool_categorized_EN.txt	VAN	Vehicles	12	4	[0, 0, 0]	n/a	catFR1	8	R1468J
496.035	0.001	744834	PROB	0.001	n/a	n/a	n/a	-999	4	[3, 4, 2]	8	catFR1	8	R1468J
496.036	0.0	744835	START	n/a	n/a	n/a	n/a	-999	4	[-999, -999, -999]	n/a	catFR1	8	R1468J
496.034	0.002	744836	WORD_OFF	n/a	n/a	VAN	Vehicles	12	4	[0, 0, 0]	n/a	catFR1	8	R1468J
496.036	0.0	744836	ENCODING_END	n/a	n/a	n/a	n/a	-999	4	[0, 0, 0]	n/a	catFR1	8	R1468J
496.036	5.831	744836	DISTRACT_START	n/a	n/a	n/a	n/a	-999	4	[0, 0, 0]	n/a	catFR1	8	R1468J
501.867	4.434	750665	PROB	4.434	n/a	n/a	n/a	-999	4	[4, 2, 7]	13	catFR1	8	R1468J
506.301	6.533	755099	PROB	6.533	n/a	n/a	n/a	-999	4	[8, 8, 7]	23	catFR1	8	R1468J
512.834	7.899	761632	PROB	7.899	n/a	n/a	n/a	-999	4	[4, 1, 7]	12	catFR1	8	R1468J
520.733	0.0	769528	DISTRACT_END	n/a	n/a	n/a	n/a	-999	4	[0, 0, 0]	n/a	catFR1	8	R1468J
520.733	1.218	769531	STOP	n/a	n/a	n/a	n/a	-999	4	[-999, -999, -999]	n/a	catFR1	8	R1468J
521.951	2.262	770744	REC_START	n/a	n/a	n/a	n/a	-999	4	[0, 0, 0]	n/a	catFR1	8	R1468J
524.213	5.053	773010	REC_WORD	5.053	n/a	CARROT	Vegetables	9	4	[0, 0, 0]	n/a	catFR1	8	R1468J
529.266	9.91	778063	REC_WORD	9.91	n/a	WILLOW	Trees	-999	4	[0, 0, 0]	n/a	catFR1	8	R1468J
539.176	5.013	787973	REC_WORD	5.013	n/a	OAK	n/a	-999	4	[0, 0, 0]	n/a	catFR1	8	R1468J
544.189	8.991	792986	REC_WORD	8.991	n/a	SPRUCE	Trees	-999	4	[0, 0, 0]	n/a	catFR1	8	R1468J
553.18	2.285	801977	REC_END	n/a	n/a	n/a	n/a	-999	4	[0, 0, 0]	n/a	catFR1	8	R1468J
555.465	10.351	804263	COUNTDOWN_START	n/a	n/a	n/a	n/a	-999	4	[0, 0, 0]	n/a	catFR1	8	R1468J
565.816	0.001	814609	COUNTDOWN_END	n/a	n/a	n/a	n/a	-999	4	[0, 0, 0]	n/a	catFR1	8	R1468J
565.817	1.948	814617	ENCODING_START	n/a	n/a	n/a	n/a	-999	5	[0, 0, 0]	n/a	catFR1	8	R1468J
567.765	1.601	816562	WORD	n/a	wordpools/wordpool_categorized_EN.txt	HUMIDITY	Weather	1	5	[0, 0, 0]	n/a	catFR1	8	R1468J
569.366	0.917	818159	WORD_OFF	n/a	n/a	HUMIDITY	Weather	1	5	[0, 0, 0]	n/a	catFR1	8	R1468J
570.283	1.6	819081	WORD	n/a	wordpools/wordpool_categorized_EN.txt	CLOUD	Weather	2	5	[0, 0, 0]	n/a	catFR1	8	R1468J
571.883	0.865	820678	WORD_OFF	n/a	n/a	CLOUD	Weather	2	5	[0, 0, 0]	n/a	catFR1	8	R1468J
572.748	1.601	821546	WORD	n/a	wordpools/wordpool_categorized_EN.txt	SQUID	OceanAnimals	3	5	[0, 0, 0]	n/a	catFR1	8	R1468J
574.349	0.817	823142	WORD_OFF	n/a	n/a	SQUID	OceanAnimals	3	5	[0, 0, 0]	n/a	catFR1	8	R1468J
575.166	1.6	823964	WORD	n/a	wordpools/wordpool_categorized_EN.txt	CRAB	OceanAnimals	4	5	[0, 0, 0]	n/a	catFR1	8	R1468J
576.766	0.917	825560	WORD_OFF	n/a	n/a	CRAB	OceanAnimals	4	5	[0, 0, 0]	n/a	catFR1	8	R1468J
577.683	1.616	826475	WORD	n/a	wordpools/wordpool_categorized_EN.txt	EVERGREEN	Trees	5	5	[0, 0, 0]	n/a	catFR1	8	R1468J
579.299	0.817	828094	WORD_OFF	n/a	n/a	EVERGREEN	Trees	5	5	[0, 0, 0]	n/a	catFR1	8	R1468J
580.116	1.616	828908	WORD	n/a	wordpools/wordpool_categorized_EN.txt	CYPRESS	Trees	6	5	[0, 0, 0]	n/a	catFR1	8	R1468J
581.732	0.85	830528	WORD_OFF	n/a	n/a	CYPRESS	Trees	6	5	[0, 0, 0]	n/a	catFR1	8	R1468J
582.582	1.616	831380	WORD	n/a	wordpools/wordpool_categorized_EN.txt	THUNDER	Weather	7	5	[0, 0, 0]	n/a	catFR1	8	R1468J
584.198	0.801	832992	WORD_OFF	n/a	n/a	THUNDER	Weather	7	5	[0, 0, 0]	n/a	catFR1	8	R1468J
584.999	1.616	833791	WORD	n/a	wordpools/wordpool_categorized_EN.txt	DRIZZLE	Weather	8	5	[0, 0, 0]	n/a	catFR1	8	R1468J
586.615	0.934	835410	WORD_OFF	n/a	n/a	DRIZZLE	Weather	8	5	[0, 0, 0]	n/a	catFR1	8	R1468J
587.549	1.601	836340	WORD	n/a	wordpools/wordpool_categorized_EN.txt	OAK	Trees	9	5	[0, 0, 0]	n/a	catFR1	8	R1468J
589.15	0.883	837945	WORD_OFF	n/a	n/a	OAK	Trees	9	5	[0, 0, 0]	n/a	catFR1	8	R1468J
590.033	1.616	838828	WORD	n/a	wordpools/wordpool_categorized_EN.txt	ELM	Trees	10	5	[0, 0, 0]	n/a	catFR1	8	R1468J
591.649	0.783	840440	WORD_OFF	n/a	n/a	ELM	Trees	10	5	[0, 0, 0]	n/a	catFR1	8	R1468J
592.432	1.617	841223	WORD	n/a	wordpools/wordpool_categorized_EN.txt	LOBSTER	OceanAnimals	11	5	[0, 0, 0]	n/a	catFR1	8	R1468J
594.049	0.85	842843	WORD_OFF	n/a	n/a	LOBSTER	OceanAnimals	11	5	[0, 0, 0]	n/a	catFR1	8	R1468J
594.899	1.617	843695	WORD	n/a	wordpools/wordpool_categorized_EN.txt	DOLPHIN	OceanAnimals	12	5	[0, 0, 0]	n/a	catFR1	8	R1468J
596.516	0.0	845307	WORD_OFF	n/a	n/a	DOLPHIN	OceanAnimals	12	5	[0, 0, 0]	n/a	catFR1	8	R1468J
596.516	0.0	845310	START	n/a	n/a	n/a	n/a	-999	5	[-999, -999, -999]	n/a	catFR1	8	R1468J
596.516	0.0	845310	PROB	0.0	n/a	n/a	n/a	-999	5	[3, 6, 1]	10	catFR1	8	R1468J
596.516	0.0	845315	ENCODING_END	n/a	n/a	n/a	n/a	-999	5	[0, 0, 0]	n/a	catFR1	8	R1468J
596.516	4.234	845315	DISTRACT_START	n/a	n/a	n/a	n/a	-999	5	[0, 0, 0]	n/a	catFR1	8	R1468J
600.75	6.182	849544	PROB	6.182	n/a	n/a	n/a	-999	5	[2, 6, 8]	16	catFR1	8	R1468J
606.932	3.65	855726	PROB	3.65	n/a	n/a	n/a	-999	5	[6, 5, 5]	16	catFR1	8	R1468J
610.582	4.353	859376	PROB	4.353	n/a	n/a	n/a	-999	5	[1, 8, 8]	17	catFR1	8	R1468J
614.935	5.115	863729	PROB	5.115	n/a	n/a	n/a	-999	5	[1, 8, 7]	16	catFR1	8	R1468J
620.05	0.0	868843	STOP	n/a	n/a	n/a	n/a	-999	5	[-999, -999, -999]	n/a	catFR1	8	R1468J
620.05	1.033	868844	DISTRACT_END	n/a	n/a	n/a	n/a	-999	5	[0, 0, 0]	n/a	catFR1	8	R1468J
621.083	2.418	869875	REC_START	n/a	n/a	n/a	n/a	-999	5	[0, 0, 0]	n/a	catFR1	8	R1468J
623.501	0.773	872294	REC_WORD	0.773	n/a	SQUID	OceanAnimals	3	5	[0, 0, 0]	n/a	catFR1	8	R1468J
624.274	0.604	873067	REC_WORD_VV	0.604	n/a	<>	n/a	-999	5	[0, 0, 0]	n/a	catFR1	8	R1468J
624.878	1.691	873671	REC_WORD	1.691	n/a	SQUID	OceanAnimals	3	5	[0, 0, 0]	n/a	catFR1	8	R1468J
626.569	3.691	875362	REC_WORD	3.691	n/a	DOLPHIN	OceanAnimals	12	5	[0, 0, 0]	n/a	catFR1	8	R1468J
630.26	9.825	879053	REC_WORD	9.825	n/a	LOBSTER	OceanAnimals	11	5	[0, 0, 0]	n/a	catFR1	8	R1468J
640.085	12.22	888878	REC_WORD	12.22	n/a	SPRUCE	Trees	-999	5	[0, 0, 0]	n/a	catFR1	8	R1468J
652.305	1.546	901099	REC_END	n/a	n/a	n/a	n/a	-999	5	[0, 0, 0]	n/a	catFR1	8	R1468J
653.851	10.349	902642	COUNTDOWN_START	n/a	n/a	n/a	n/a	-999	5	[0, 0, 0]	n/a	catFR1	8	R1468J
664.2	0.0	912988	COUNTDOWN_END	n/a	n/a	n/a	n/a	-999	5	[0, 0, 0]	n/a	catFR1	8	R1468J
664.2	2.084	912996	ENCODING_START	n/a	n/a	n/a	n/a	-999	6	[0, 0, 0]	n/a	catFR1	8	R1468J
666.284	1.617	915073	WORD	n/a	wordpools/wordpool_categorized_EN.txt	SODA	Beverages	1	6	[0, 0, 0]	n/a	catFR1	8	R1468J
667.901	0.817	916692	WORD_OFF	n/a	n/a	SODA	Beverages	1	6	[0, 0, 0]	n/a	catFR1	8	R1468J
668.718	1.6	917506	WORD	n/a	wordpools/wordpool_categorized_EN.txt	TEA	Beverages	2	6	[0, 0, 0]	n/a	catFR1	8	R1468J
670.318	0.866	919110	WORD_OFF	n/a	n/a	TEA	Beverages	2	6	[0, 0, 0]	n/a	catFR1	8	R1468J
671.184	1.6	919978	WORD	n/a	wordpools/wordpool_categorized_EN.txt	SATIN	Fabric	3	6	[0, 0, 0]	n/a	catFR1	8	R1468J
672.784	0.848	921575	WORD_OFF	n/a	n/a	SATIN	Fabric	3	6	[0, 0, 0]	n/a	catFR1	8	R1468J
673.632	1.602	922420	WORD	n/a	wordpools/wordpool_categorized_EN.txt	COTTON	Fabric	4	6	[0, 0, 0]	n/a	catFR1	8	R1468J
675.234	0.95	924024	WORD_OFF	n/a	n/a	COTTON	Fabric	4	6	[0, 0, 0]	n/a	catFR1	8	R1468J
676.184	1.6	924977	WORD	n/a	wordpools/wordpool_categorized_EN.txt	CHICKEN	FarmAnimals	5	6	[0, 0, 0]	n/a	catFR1	8	R1468J
677.784	0.984	926574	WORD_OFF	n/a	n/a	CHICKEN	FarmAnimals	5	6	[0, 0, 0]	n/a	catFR1	8	R1468J
678.768	1.599	927558	WORD	n/a	wordpools/wordpool_categorized_EN.txt	CALF	FarmAnimals	6	6	[0, 0, 0]	n/a	catFR1	8	R1468J
680.367	0.767	929154	WORD_OFF	n/a	n/a	CALF	FarmAnimals	6	6	[0, 0, 0]	n/a	catFR1	8	R1468J
681.134	1.6	929922	WORD	n/a	wordpools/wordpool_categorized_EN.txt	MILK	Beverages	7	6	[0, 0, 0]	n/a	catFR1	8	R1468J
682.734	0.834	931526	WORD_OFF	n/a	n/a	MILK	Beverages	7	6	[0, 0, 0]	n/a	catFR1	8	R1468J
683.568	1.615	932355	WORD	n/a	wordpools/wordpool_categorized_EN.txt	BEER	Beverages	8	6	[0, 0, 0]	n/a	catFR1	8	R1468J
685.183	0.985	933975	WORD_OFF	n/a	n/a	BEER	Beverages	8	6	[0, 0, 0]	n/a	catFR1	8	R1468J
686.168	1.616	934959	WORD	n/a	wordpools/wordpool_categorized_EN.txt	COW	FarmAnimals	9	6	[0, 0, 0]	n/a	catFR1	8	R1468J
687.784	0.934	936571	WORD_OFF	n/a	n/a	COW	FarmAnimals	9	6	[0, 0, 0]	n/a	catFR1	8	R1468J
688.718	1.616	937509	WORD	n/a	wordpools/wordpool_categorized_EN.txt	HORSE	FarmAnimals	10	6	[0, 0, 0]	n/a	catFR1	8	R1468J
690.334	0.95	939121	WORD_OFF	n/a	n/a	HORSE	FarmAnimals	10	6	[0, 0, 0]	n/a	catFR1	8	R1468J
691.284	1.601	940074	WORD	n/a	wordpools/wordpool_categorized_EN.txt	LEATHER	Fabric	11	6	[0, 0, 0]	n/a	catFR1	8	R1468J
692.885	0.833	941678	WORD_OFF	n/a	n/a	LEATHER	Fabric	11	6	[0, 0, 0]	n/a	catFR1	8	R1468J
693.718	1.616	942508	WORD	n/a	wordpools/wordpool_categorized_EN.txt	SUEDE	Fabric	12	6	[0, 0, 0]	n/a	catFR1	8	R1468J
695.334	0.001	944124	PROB	0.001	n/a	n/a	n/a	-999	6	[2, 8, 4]	14	catFR1	8	R1468J
695.335	0.0	944125	START	n/a	n/a	n/a	n/a	-999	6	[-999, -999, -999]	n/a	catFR1	8	R1468J
695.333	0.002	944127	WORD_OFF	n/a	n/a	SUEDE	Fabric	12	6	[0, 0, 0]	n/a	catFR1	8	R1468J
695.335	0.0	944127	ENCODING_END	n/a	n/a	n/a	n/a	-999	6	[0, 0, 0]	n/a	catFR1	8	R1468J
695.335	6.65	944127	DISTRACT_START	n/a	n/a	n/a	n/a	-999	6	[0, 0, 0]	n/a	catFR1	8	R1468J
701.985	3.266	950775	PROB	3.266	n/a	n/a	n/a	-999	6	[5, 2, 8]	15	catFR1	8	R1468J
705.251	4.466	954041	PROB	4.466	n/a	n/a	n/a	-999	6	[5, 4, 4]	13	catFR1	8	R1468J
709.717	2.4	958507	PROB	2.4	n/a	n/a	n/a	-999	6	[8, 2, 3]	13	catFR1	8	R1468J
712.117	3.449	960907	PROB	3.449	n/a	n/a	n/a	-999	6	[4, 1, 7]	12	catFR1	8	R1468J
715.566	0.0	964355	DISTRACT_END	n/a	n/a	n/a	n/a	-999	6	[0, 0, 0]	n/a	catFR1	8	R1468J
715.566	1.134	964355	STOP	n/a	n/a	n/a	n/a	-999	6	[-999, -999, -999]	n/a	catFR1	8	R1468J
716.7	2.015	965486	REC_START	n/a	n/a	n/a	n/a	-999	6	[0, 0, 0]	n/a	catFR1	8	R1468J
718.715	0.89	967504	REC_WORD	0.89	n/a	MAPLE	Trees	-999	6	[0, 0, 0]	n/a	catFR1	8	R1468J
719.605	2.049	968394	REC_WORD_VV	2.049	n/a	<>	n/a	-999	6	[0, 0, 0]	n/a	catFR1	8	R1468J
721.654	0.786	970443	REC_WORD	0.786	n/a	LEATHER	Fabric	11	6	[0, 0, 0]	n/a	catFR1	8	R1468J
722.44	2.682	971229	REC_WORD	2.682	n/a	SUEDE	Fabric	12	6	[0, 0, 0]	n/a	catFR1	8	R1468J
725.122	13.749	973911	REC_WORD	13.749	n/a	SILK	n/a	-999	6	[0, 0, 0]	n/a	catFR1	8	R1468J
738.871	5.312	987659	REC_WORD	5.312	n/a	COTTON	Fabric	4	6	[0, 0, 0]	n/a	catFR1	8	R1468J
744.183	3.751	992971	REC_WORD	3.751	n/a	TEA	Beverages	2	6	[0, 0, 0]	n/a	catFR1	8	R1468J
747.934	3.45	996719	REC_END	n/a	n/a	n/a	n/a	-999	6	[0, 0, 0]	n/a	catFR1	8	R1468J
751.384	10.35	1000175	COUNTDOWN_START	n/a	n/a	n/a	n/a	-999	6	[0, 0, 0]	n/a	catFR1	8	R1468J
761.734	0.0	1010522	COUNTDOWN_END	n/a	n/a	n/a	n/a	-999	6	[0, 0, 0]	n/a	catFR1	8	R1468J
761.734	1.884	1010522	ENCODING_START	n/a	n/a	n/a	n/a	-999	7	[0, 0, 0]	n/a	catFR1	8	R1468J
763.618	1.6	1012405	WORD	n/a	wordpools/wordpool_categorized_EN.txt	DOVE	Birds	1	7	[0, 0, 0]	n/a	catFR1	8	R1468J
765.218	0.999	1014001	WORD_OFF	n/a	n/a	DOVE	Birds	1	7	[0, 0, 0]	n/a	catFR1	8	R1468J
766.217	1.601	1015001	WORD	n/a	wordpools/wordpool_categorized_EN.txt	CROW	Birds	2	7	[0, 0, 0]	n/a	catFR1	8	R1468J
767.818	0.866	1016605	WORD_OFF	n/a	n/a	CROW	Birds	2	7	[0, 0, 0]	n/a	catFR1	8	R1468J
768.684	1.6	1017473	WORD	n/a	wordpools/wordpool_categorized_EN.txt	SHOVEL	Tools	3	7	[0, 0, 0]	n/a	catFR1	8	R1468J
770.284	0.966	1019070	WORD_OFF	n/a	n/a	SHOVEL	Tools	3	7	[0, 0, 0]	n/a	catFR1	8	R1468J
771.25	1.601	1020039	WORD	n/a	wordpools/wordpool_categorized_EN.txt	CROWBAR	Tools	4	7	[0, 0, 0]	n/a	catFR1	8	R1468J
772.851	0.983	1021635	WORD_OFF	n/a	n/a	CROWBAR	Tools	4	7	[0, 0, 0]	n/a	catFR1	8	R1468J
773.834	1.6	1022619	WORD	n/a	wordpools/wordpool_categorized_EN.txt	GIRAFFE	Zoo	5	7	[0, 0, 0]	n/a	catFR1	8	R1468J
775.434	0.767	1024223	WORD_OFF	n/a	n/a	GIRAFFE	Zoo	5	7	[0, 0, 0]	n/a	catFR1	8	R1468J
776.201	1.6	1024991	WORD	n/a	wordpools/wordpool_categorized_EN.txt	MONKEY	Zoo	6	7	[0, 0, 0]	n/a	catFR1	8	R1468J
777.801	0.767	1026587	WORD_OFF	n/a	n/a	MONKEY	Zoo	6	7	[0, 0, 0]	n/a	catFR1	8	R1468J
778.568	1.616	1027354	WORD	n/a	wordpools/wordpool_categorized_EN.txt	BLUEBIRD	Birds	7	7	[0, 0, 0]	n/a	catFR1	8	R1468J
780.184	0.767	1028966	WORD_OFF	n/a	n/a	BLUEBIRD	Birds	7	7	[0, 0, 0]	n/a	catFR1	8	R1468J
780.951	1.617	1029734	WORD	n/a	wordpools/wordpool_categorized_EN.txt	DUCK	Birds	8	7	[0, 0, 0]	n/a	catFR1	8	R1468J
782.568	0.783	1031353	WORD_OFF	n/a	n/a	DUCK	Birds	8	7	[0, 0, 0]	n/a	catFR1	8	R1468J
783.351	1.617	1032136	WORD	n/a	wordpools/wordpool_categorized_EN.txt	WRENCH	Tools	9	7	[0, 0, 0]	n/a	catFR1	8	R1468J
784.968	0.899	1033756	WORD_OFF	n/a	n/a	WRENCH	Tools	9	7	[0, 0, 0]	n/a	catFR1	8	R1468J
785.867	1.6	1034655	WORD	n/a	wordpools/wordpool_categorized_EN.txt	SAW	Tools	10	7	[0, 0, 0]	n/a	catFR1	8	R1468J
787.467	0.801	1036251	WORD_OFF	n/a	n/a	SAW	Tools	10	7	[0, 0, 0]	n/a	catFR1	8	R1468J
788.268	1.616	1037057	WORD	n/a	wordpools/wordpool_categorized_EN.txt	CHIMPANZEE	Zoo	11	7	[0, 0, 0]	n/a	catFR1	8	R1468J
789.884	0.917	1038669	WORD_OFF	n/a	n/a	CHIMPANZEE	Zoo	11	7	[0, 0, 0]	n/a	catFR1	8	R1468J
790.801	1.6	1039584	WORD	n/a	wordpools/wordpool_categorized_EN.txt	ELEPHANT	Zoo	12	7	[0, 0, 0]	n/a	catFR1	8	R1468J
792.401	0.0	1041187	PROB	0.0	n/a	n/a	n/a	-999	7	[4, 1, 5]	10	catFR1	8	R1468J
792.401	0.001	1041188	WORD_OFF	n/a	n/a	ELEPHANT	Zoo	12	7	[0, 0, 0]	n/a	catFR1	8	R1468J
792.402	0.0	1041188	ENCODING_END	n/a	n/a	n/a	n/a	-999	7	[0, 0, 0]	n/a	catFR1	8	R1468J
792.402	0.0	1041188	DISTRACT_START	n/a	n/a	n/a	n/a	-999	7	[0, 0, 0]	n/a	catFR1	8	R1468J
792.402	4.733	1041188	START	n/a	n/a	n/a	n/a	-999	7	[-999, -999, -999]	n/a	catFR1	8	R1468J
797.135	8.932	1045921	PROB	8.932	n/a	n/a	n/a	-999	7	[7, 4, 5]	15	catFR1	8	R1468J
806.067	4.932	1054853	PROB	4.932	n/a	n/a	n/a	-999	7	[2, 8, 8]	18	catFR1	8	R1468J
810.999	3.485	1059784	PROB	3.485	n/a	n/a	n/a	-999	7	[5, 5, 1]	11	catFR1	8	R1468J
814.484	0.0	1063268	DISTRACT_END	n/a	n/a	n/a	n/a	-999	7	[0, 0, 0]	n/a	catFR1	8	R1468J
814.484	1.166	1063269	STOP	n/a	n/a	n/a	n/a	-999	7	[-999, -999, -999]	n/a	catFR1	8	R1468J
815.65	2.162	1064438	REC_START	n/a	n/a	n/a	n/a	-999	7	[0, 0, 0]	n/a	catFR1	8	R1468J
817.812	1.705	1066597	REC_WORD	1.705	n/a	CHIMPANZEE	Zoo	11	7	[0, 0, 0]	n/a	catFR1	8	R1468J
819.517	3.564	1068302	REC_WORD	3.564	n/a	ELEPHANT	Zoo	12	7	[0, 0, 0]	n/a	catFR1	8	R1468J
823.081	2.175	1071866	REC_WORD	2.175	n/a	WRENCH	Tools	9	7	[0, 0, 0]	n/a	catFR1	8	R1468J
825.256	18.617	1074041	REC_WORD	18.617	n/a	HAMMER	n/a	-999	7	[0, 0, 0]	n/a	catFR1	8	R1468J
843.873	3.002	1092657	REC_WORD	3.002	n/a	OAK	Trees	-999	7	[0, 0, 0]	n/a	catFR1	8	R1468J
846.875	2.443	1095655	REC_END	n/a	n/a	n/a	n/a	-999	7	[0, 0, 0]	n/a	catFR1	8	R1468J
849.318	10.347	1098104	COUNTDOWN_START	n/a	n/a	n/a	n/a	-999	7	[0, 0, 0]	n/a	catFR1	8	R1468J
859.665	0.0	1108450	COUNTDOWN_END	n/a	n/a	n/a	n/a	-999	7	[0, 0, 0]	n/a	catFR1	8	R1468J
859.665	2.153	1108450	ENCODING_START	n/a	n/a	n/a	n/a	-999	8	[0, 0, 0]	n/a	catFR1	8	R1468J
861.818	1.6	1110597	WORD	n/a	wordpools/wordpool_categorized_EN.txt	ROBIN	Birds	1	8	[0, 0, 0]	n/a	catFR1	8	R1468J
863.418	0.8	1112201	WORD_OFF	n/a	n/a	ROBIN	Birds	1	8	[0, 0, 0]	n/a	catFR1	8	R1468J
864.218	1.616	1113000	WORD	n/a	wordpools/wordpool_categorized_EN.txt	GOOSE	Birds	2	8	[0, 0, 0]	n/a	catFR1	8	R1468J
865.834	0.817	1114619	WORD_OFF	n/a	n/a	GOOSE	Birds	2	8	[0, 0, 0]	n/a	catFR1	8	R1468J
866.651	1.6	1115433	WORD	n/a	wordpools/wordpool_categorized_EN.txt	HAND	BodyParts	3	8	[0, 0, 0]	n/a	catFR1	8	R1468J
868.251	0.816	1117037	WORD_OFF	n/a	n/a	HAND	BodyParts	3	8	[0, 0, 0]	n/a	catFR1	8	R1468J
869.067	1.601	1117851	WORD	n/a	wordpools/wordpool_categorized_EN.txt	ELBOW	BodyParts	4	8	[0, 0, 0]	n/a	catFR1	8	R1468J
870.668	0.883	1119448	WORD_OFF	n/a	n/a	ELBOW	BodyParts	4	8	[0, 0, 0]	n/a	catFR1	8	R1468J
871.551	1.6	1120331	WORD	n/a	wordpools/wordpool_categorized_EN.txt	FOLDER	OfficeSupplies	5	8	[0, 0, 0]	n/a	catFR1	8	R1468J
873.151	0.767	1121935	WORD_OFF	n/a	n/a	FOLDER	OfficeSupplies	5	8	[0, 0, 0]	n/a	catFR1	8	R1468J
873.918	1.6	1122703	WORD	n/a	wordpools/wordpool_categorized_EN.txt	MARKER	OfficeSupplies	6	8	[0, 0, 0]	n/a	catFR1	8	R1468J
875.518	0.916	1124299	WORD_OFF	n/a	n/a	MARKER	OfficeSupplies	6	8	[0, 0, 0]	n/a	catFR1	8	R1468J
876.434	1.617	1125214	WORD	n/a	wordpools/wordpool_categorized_EN.txt	FOOT	BodyParts	7	8	[0, 0, 0]	n/a	catFR1	8	R1468J
878.051	0.933	1126833	WORD_OFF	n/a	n/a	FOOT	BodyParts	7	8	[0, 0, 0]	n/a	catFR1	8	R1468J
878.984	1.6	1127763	WORD	n/a	wordpools/wordpool_categorized_EN.txt	KNEE	BodyParts	8	8	[0, 0, 0]	n/a	catFR1	8	R1468J
880.584	0.983	1129368	WORD_OFF	n/a	n/a	KNEE	BodyParts	8	8	[0, 0, 0]	n/a	catFR1	8	R1468J
881.567	1.617	1130352	WORD	n/a	wordpools/wordpool_categorized_EN.txt	SPARROW	Birds	9	8	[0, 0, 0]	n/a	catFR1	8	R1468J
883.184	0.999	1131964	WORD_OFF	n/a	n/a	SPARROW	Birds	9	8	[0, 0, 0]	n/a	catFR1	8	R1468J
884.183	1.602	1132964	WORD	n/a	wordpools/wordpool_categorized_EN.txt	FINCH	Birds	10	8	[0, 0, 0]	n/a	catFR1	8	R1468J
885.785	0.983	1134568	WORD_OFF	n/a	n/a	FINCH	Birds	10	8	[0, 0, 0]	n/a	catFR1	8	R1468J
886.768	1.616	1135552	WORD	n/a	wordpools/wordpool_categorized_EN.txt	NOTEBOOK	OfficeSupplies	11	8	[0, 0, 0]	n/a	catFR1	8	R1468J
888.384	0.8	1137164	WORD_OFF	n/a	n/a	NOTEBOOK	OfficeSupplies	11	8	[0, 0, 0]	n/a	catFR1	8	R1468J
889.184	1.6	1137962	WORD	n/a	wordpools/wordpool_categorized_EN.txt	GLUE	OfficeSupplies	12	8	[0, 0, 0]	n/a	catFR1	8	R1468J
890.784	0.002	1139567	WORD_OFF	n/a	n/a	GLUE	OfficeSupplies	12	8	[0, 0, 0]	n/a	catFR1	8	R1468J
890.786	0.0	1139567	ENCODING_END	n/a	n/a	n/a	n/a	-999	8	[0, 0, 0]	n/a	catFR1	8	R1468J
890.785	0.001	1139567	PROB	0.001	n/a	n/a	n/a	-999	8	[1, 3, 2]	6	catFR1	8	R1468J
890.786	0.0	1139568	START	n/a	n/a	n/a	n/a	-999	8	[-999, -999, -999]	n/a	catFR1	8	R1468J
890.786	4.83	1139574	DISTRACT_START	n/a	n/a	n/a	n/a	-999	8	[0, 0, 0]	n/a	catFR1	8	R1468J
895.616	8.917	1144398	PROB	8.917	n/a	n/a	n/a	-999	8	[7, 7, 7]	21	catFR1	8	R1468J
904.533	4.067	1153315	PROB	4.067	n/a	n/a	n/a	-999	8	[8, 5, 2]	15	catFR1	8	R1468J
908.6	5.65	1157381	PROB	5.65	n/a	n/a	n/a	-999	8	[1, 5, 3]	9	catFR1	8	R1468J
914.25	0.0	1163026	DISTRACT_END	n/a	n/a	n/a	n/a	-999	8	[0, 0, 0]	n/a	catFR1	8	R1468J
914.25	1.049	1163031	STOP	n/a	n/a	n/a	n/a	-999	8	[-999, -999, -999]	n/a	catFR1	8	R1468J
915.299	1.595	1164080	REC_START	n/a	n/a	n/a	n/a	-999	8	[0, 0, 0]	n/a	catFR1	8	R1468J
916.894	4.679	1165675	REC_WORD	4.679	n/a	GLUE	OfficeSupplies	12	8	[0, 0, 0]	n/a	catFR1	8	R1468J
921.573	5.871	1170354	REC_WORD	5.871	n/a	FOLDER	OfficeSupplies	5	8	[0, 0, 0]	n/a	catFR1	8	R1468J
927.444	5.872	1176225	REC_WORD	5.872	n/a	NOTEBOOK	OfficeSupplies	11	8	[0, 0, 0]	n/a	catFR1	8	R1468J
933.316	13.2	1182096	REC_WORD	13.2	n/a	WRENCH	Tools	-999	8	[0, 0, 0]	n/a	catFR1	8	R1468J
946.516	2.233	1195297	REC_END	n/a	n/a	n/a	n/a	-999	8	[0, 0, 0]	n/a	catFR1	8	R1468J
948.749	10.351	1197529	COUNTDOWN_START	n/a	n/a	n/a	n/a	-999	8	[0, 0, 0]	n/a	catFR1	8	R1468J
959.1	0.0	1207875	COUNTDOWN_END	n/a	n/a	n/a	n/a	-999	8	[0, 0, 0]	n/a	catFR1	8	R1468J
959.1	2.034	1207883	ENCODING_START	n/a	n/a	n/a	n/a	-999	9	[0, 0, 0]	n/a	catFR1	8	R1468J
961.134	1.617	1209913	WORD	n/a	wordpools/wordpool_categorized_EN.txt	ARM	BodyParts	1	9	[0, 0, 0]	n/a	catFR1	8	R1468J
962.751	0.817	1211533	WORD_OFF	n/a	n/a	ARM	BodyParts	1	9	[0, 0, 0]	n/a	catFR1	8	R1468J
963.568	1.6	1212347	WORD	n/a	wordpools/wordpool_categorized_EN.txt	EYE	BodyParts	2	9	[0, 0, 0]	n/a	catFR1	8	R1468J
965.168	0.766	1213943	WORD_OFF	n/a	n/a	EYE	BodyParts	2	9	[0, 0, 0]	n/a	catFR1	8	R1468J
965.934	1.617	1214711	WORD	n/a	wordpools/wordpool_categorized_EN.txt	HALLWAY	Building	3	9	[0, 0, 0]	n/a	catFR1	8	R1468J
967.551	0.8	1216330	WORD_OFF	n/a	n/a	HALLWAY	Building	3	9	[0, 0, 0]	n/a	catFR1	8	R1468J
968.351	1.616	1217129	WORD	n/a	wordpools/wordpool_categorized_EN.txt	CEILING	Building	4	9	[0, 0, 0]	n/a	catFR1	8	R1468J
969.967	0.834	1218748	WORD_OFF	n/a	n/a	CEILING	Building	4	9	[0, 0, 0]	n/a	catFR1	8	R1468J
970.801	1.616	1219578	WORD	n/a	wordpools/wordpool_categorized_EN.txt	PUZZLE	Toys	5	9	[0, 0, 0]	n/a	catFR1	8	R1468J
972.417	0.817	1221197	WORD_OFF	n/a	n/a	PUZZLE	Toys	5	9	[0, 0, 0]	n/a	catFR1	8	R1468J
973.234	1.614	1222011	WORD	n/a	wordpools/wordpool_categorized_EN.txt	BALL	Toys	6	9	[0, 0, 0]	n/a	catFR1	8	R1468J
974.848	0.886	1223623	WORD_OFF	n/a	n/a	BALL	Toys	6	9	[0, 0, 0]	n/a	catFR1	8	R1468J
975.734	1.617	1224514	WORD	n/a	wordpools/wordpool_categorized_EN.txt	HEAD	BodyParts	7	9	[0, 0, 0]	n/a	catFR1	8	R1468J
977.351	0.85	1226126	WORD_OFF	n/a	n/a	HEAD	BodyParts	7	9	[0, 0, 0]	n/a	catFR1	8	R1468J
978.201	1.615	1226979	WORD	n/a	wordpools/wordpool_categorized_EN.txt	EAR	BodyParts	8	9	[0, 0, 0]	n/a	catFR1	8	R1468J
979.816	0.918	1228591	WORD_OFF	n/a	n/a	EAR	BodyParts	8	9	[0, 0, 0]	n/a	catFR1	8	R1468J
980.734	1.6	1229513	WORD	n/a	wordpools/wordpool_categorized_EN.txt	BLOCKS	Toys	9	9	[0, 0, 0]	n/a	catFR1	8	R1468J
982.334	0.983	1231110	WORD_OFF	n/a	n/a	BLOCKS	Toys	9	9	[0, 0, 0]	n/a	catFR1	8	R1468J
983.317	1.6	1232094	WORD	n/a	wordpools/wordpool_categorized_EN.txt	BARBIE	Toys	10	9	[0, 0, 0]	n/a	catFR1	8	R1468J
984.917	0.767	1233698	WORD_OFF	n/a	n/a	BARBIE	Toys	10	9	[0, 0, 0]	n/a	catFR1	8	R1468J
985.684	1.617	1234465	WORD	n/a	wordpools/wordpool_categorized_EN.txt	ROOM	Building	11	9	[0, 0, 0]	n/a	catFR1	8	R1468J
987.301	0.933	1236077	WORD_OFF	n/a	n/a	ROOM	Building	11	9	[0, 0, 0]	n/a	catFR1	8	R1468J
988.234	1.617	1237015	WORD	n/a	wordpools/wordpool_categorized_EN.txt	FOUNDATION	Building	12	9	[0, 0, 0]	n/a	catFR1	8	R1468J
989.851	0.001	1238627	WORD_OFF	n/a	n/a	FOUNDATION	Building	12	9	[0, 0, 0]	n/a	catFR1	8	R1468J
989.852	0.0	1238627	ENCODING_END	n/a	n/a	n/a	n/a	-999	9	[0, 0, 0]	n/a	catFR1	8	R1468J
989.851	0.001	1238629	PROB	0.001	n/a	n/a	n/a	-999	9	[3, 1, 4]	8	catFR1	8	R1468J
989.852	0.0	1238630	START	n/a	n/a	n/a	n/a	-999	9	[-999, -999, -999]	n/a	catFR1	8	R1468J
989.852	3.898	1238635	DISTRACT_START	n/a	n/a	n/a	n/a	-999	9	[0, 0, 0]	n/a	catFR1	8	R1468J
993.75	5.051	1242528	PROB	5.051	n/a	n/a	n/a	-999	9	[7, 3, 3]	13	catFR1	8	R1468J
998.801	2.234	1247579	PROB	2.234	n/a	n/a	n/a	-999	9	[1, 2, 5]	8	catFR1	8	R1468J
1001.035	4.465	1249813	PROB	4.465	n/a	n/a	n/a	-999	9	[6, 6, 6]	18	catFR1	8	R1468J
1005.5	4.734	1254277	PROB	4.734	n/a	n/a	n/a	-999	9	[4, 5, 8]	17	catFR1	8	R1468J
1010.234	0.0	1259010	DISTRACT_END	n/a	n/a	n/a	n/a	-999	9	[0, 0, 0]	n/a	catFR1	8	R1468J
1010.234	1.366	1259011	STOP	n/a	n/a	n/a	n/a	-999	9	[-999, -999, -999]	n/a	catFR1	8	R1468J
1011.6	1.559	1260374	REC_START	n/a	n/a	n/a	n/a	-999	9	[0, 0, 0]	n/a	catFR1	8	R1468J
1013.159	1.204	1261936	REC_WORD	1.204	n/a	HALLWAY	Building	3	9	[0, 0, 0]	n/a	catFR1	8	R1468J
1014.363	1.872	1263140	REC_WORD	1.872	n/a	HAMMER	n/a	-999	9	[0, 0, 0]	n/a	catFR1	8	R1468J
1016.235	7.545	1265012	REC_WORD	7.545	n/a	ROOM	Building	11	9	[0, 0, 0]	n/a	catFR1	8	R1468J
1023.78	1.247	1272557	REC_WORD	1.247	n/a	NOSE	BodyParts	-999	9	[0, 0, 0]	n/a	catFR1	8	R1468J
1025.027	17.785	1273804	REC_WORD	17.785	n/a	EAR	BodyParts	8	9	[0, 0, 0]	n/a	catFR1	8	R1468J
1042.812	2.055	1291591	REC_END	n/a	n/a	n/a	n/a	-999	9	[0, 0, 0]	n/a	catFR1	8	R1468J
1044.867	10.348	1293644	COUNTDOWN_START	n/a	n/a	n/a	n/a	-999	9	[0, 0, 0]	n/a	catFR1	8	R1468J
1055.215	0.0	1303991	COUNTDOWN_END	n/a	n/a	n/a	n/a	-999	9	[0, 0, 0]	n/a	catFR1	8	R1468J
1055.215	2.234	1303991	ENCODING_START	n/a	n/a	n/a	n/a	-999	10	[0, 0, 0]	n/a	catFR1	8	R1468J
1057.449	1.601	1306223	WORD	n/a	wordpools/wordpool_categorized_EN.txt	SEAGULL	Birds	1	10	[0, 0, 0]	n/a	catFR1	8	R1468J
1059.05	0.999	1307827	WORD_OFF	n/a	n/a	SEAGULL	Birds	1	10	[0, 0, 0]	n/a	catFR1	8	R1468J
1060.049	1.617	1308827	WORD	n/a	wordpools/wordpool_categorized_EN.txt	HAWK	Birds	2	10	[0, 0, 0]	n/a	catFR1	8	R1468J
1061.666	0.867	1310439	WORD_OFF	n/a	n/a	HAWK	Birds	2	10	[0, 0, 0]	n/a	catFR1	8	R1468J
1062.533	1.616	1311307	WORD	n/a	wordpools/wordpool_categorized_EN.txt	FORK	KitchenTools	3	10	[0, 0, 0]	n/a	catFR1	8	R1468J
1064.149	0.817	1312926	WORD_OFF	n/a	n/a	FORK	KitchenTools	3	10	[0, 0, 0]	n/a	catFR1	8	R1468J
1064.966	1.6	1313740	WORD	n/a	wordpools/wordpool_categorized_EN.txt	COLANDER	KitchenTools	4	10	[0, 0, 0]	n/a	catFR1	8	R1468J
1066.566	0.866	1315337	WORD_OFF	n/a	n/a	COLANDER	KitchenTools	4	10	[0, 0, 0]	n/a	catFR1	8	R1468J
1067.432	1.601	1316205	WORD	n/a	wordpools/wordpool_categorized_EN.txt	LEVEL	Tools	5	10	[0, 0, 0]	n/a	catFR1	8	R1468J
1069.033	0.766	1317809	WORD_OFF	n/a	n/a	LEVEL	Tools	5	10	[0, 0, 0]	n/a	catFR1	8	R1468J
1069.799	1.6	1318576	WORD	n/a	wordpools/wordpool_categorized_EN.txt	AXE	Tools	6	10	[0, 0, 0]	n/a	catFR1	8	R1468J
1071.399	0.867	1320173	WORD_OFF	n/a	n/a	AXE	Tools	6	10	[0, 0, 0]	n/a	catFR1	8	R1468J
1072.266	1.601	1321041	WORD	n/a	wordpools/wordpool_categorized_EN.txt	GRATER	KitchenTools	7	10	[0, 0, 0]	n/a	catFR1	8	R1468J
1073.867	0.832	1322637	WORD_OFF	n/a	n/a	GRATER	KitchenTools	7	10	[0, 0, 0]	n/a	catFR1	8	R1468J
1074.699	1.616	1323474	WORD	n/a	wordpools/wordpool_categorized_EN.txt	LADLE	KitchenTools	8	10	[0, 0, 0]	n/a	catFR1	8	R1468J
1076.315	0.801	1325086	WORD_OFF	n/a	n/a	LADLE	KitchenTools	8	10	[0, 0, 0]	n/a	catFR1	8	R1468J
1077.116	1.6	1325892	WORD	n/a	wordpools/wordpool_categorized_EN.txt	SANDER	Tools	9	10	[0, 0, 0]	n/a	catFR1	8	R1468J
1078.716	0.983	1327489	WORD_OFF	n/a	n/a	SANDER	Tools	9	10	[0, 0, 0]	n/a	catFR1	8	R1468J
1079.699	1.6	1328473	WORD	n/a	wordpools/wordpool_categorized_EN.txt	PLIERS	Tools	10	10	[0, 0, 0]	n/a	catFR1	8	R1468J
1081.299	0.95	1330069	WORD_OFF	n/a	n/a	PLIERS	Tools	10	10	[0, 0, 0]	n/a	catFR1	8	R1468J
1082.249	1.617	1331023	WORD	n/a	wordpools/wordpool_categorized_EN.txt	PIGEON	Birds	11	10	[0, 0, 0]	n/a	catFR1	8	R1468J
1083.866	0.818	1332642	WORD_OFF	n/a	n/a	PIGEON	Birds	11	10	[0, 0, 0]	n/a	catFR1	8	R1468J
1084.684	1.615	1333456	WORD	n/a	wordpools/wordpool_categorized_EN.txt	CARDINAL	Birds	12	10	[0, 0, 0]	n/a	catFR1	8	R1468J
1086.299	0.001	1335073	PROB	0.001	n/a	n/a	n/a	-999	10	[8, 5, 1]	14	catFR1	8	R1468J
1086.3	0.0	1335074	START	n/a	n/a	n/a	n/a	-999	10	[-999, -999, -999]	n/a	catFR1	8	R1468J
1086.299	0.001	1335076	WORD_OFF	n/a	n/a	CARDINAL	Birds	12	10	[0, 0, 0]	n/a	catFR1	8	R1468J
1086.3	0.0	1335076	ENCODING_END	n/a	n/a	n/a	n/a	-999	10	[0, 0, 0]	n/a	catFR1	8	R1468J
1086.3	4.932	1335076	DISTRACT_START	n/a	n/a	n/a	n/a	-999	10	[0, 0, 0]	n/a	catFR1	8	R1468J
1091.232	3.351	1340006	PROB	3.351	n/a	n/a	n/a	-999	10	[8, 2, 3]	13	catFR1	8	R1468J
1094.583	4.034	1343357	PROB	4.034	n/a	n/a	n/a	-999	10	[7, 7, 2]	12	catFR1	8	R1468J
1098.617	5.683	1347391	PROB	5.683	n/a	n/a	n/a	-999	10	[2, 8, 3]	13	catFR1	8	R1468J
1104.3	5.415	1353073	PROB	5.415	n/a	n/a	n/a	-999	10	[1, 7, 1]	9	catFR1	8	R1468J
1109.715	0.0	1358488	STOP	n/a	n/a	n/a	n/a	-999	10	[-999, -999, -999]	n/a	catFR1	8	R1468J
1109.715	1.169	1358489	DISTRACT_END	n/a	n/a	n/a	n/a	-999	10	[0, 0, 0]	n/a	catFR1	8	R1468J
1110.884	1.292	1359659	REC_START	n/a	n/a	n/a	n/a	-999	10	[0, 0, 0]	n/a	catFR1	8	R1468J
1112.176	2.821	1360949	REC_WORD	2.821	n/a	PENGUIN	n/a	-999	10	[0, 0, 0]	n/a	catFR1	8	R1468J
1114.997	2.279	1363770	REC_WORD	2.279	n/a	SADDLE	n/a	-999	10	[0, 0, 0]	n/a	catFR1	8	R1468J
1117.276	24.827	1366049	REC_WORD	24.827	n/a	HAWK	Birds	2	10	[0, 0, 0]	n/a	catFR1	8	R1468J
1142.103	2.381	1390876	REC_END	n/a	n/a	n/a	n/a	-999	10	[0, 0, 0]	n/a	catFR1	8	R1468J
1144.484	10.351	1393255	COUNTDOWN_START	n/a	n/a	n/a	n/a	-999	10	[0, 0, 0]	n/a	catFR1	8	R1468J
1154.835	0.0	1403609	COUNTDOWN_END	n/a	n/a	n/a	n/a	-999	10	[0, 0, 0]	n/a	catFR1	8	R1468J
1154.835	2.216	1403609	ENCODING_START	n/a	n/a	n/a	n/a	-999	11	[0, 0, 0]	n/a	catFR1	8	R1468J
1157.051	1.6	1405818	WORD	n/a	wordpools/wordpool_categorized_EN.txt	STEREO	Electronics	1	11	[0, 0, 0]	n/a	catFR1	8	R1468J
1158.651	0.8	1407422	WORD_OFF	n/a	n/a	STEREO	Electronics	1	11	[0, 0, 0]	n/a	catFR1	8	R1468J
1159.451	1.6	1408220	WORD	n/a	wordpools/wordpool_categorized_EN.txt	CALCULATOR	Electronics	2	11	[0, 0, 0]	n/a	catFR1	8	R1468J
1161.051	0.816	1409825	WORD_OFF	n/a	n/a	CALCULATOR	Electronics	2	11	[0, 0, 0]	n/a	catFR1	8	R1468J
1161.867	1.6	1410638	WORD	n/a	wordpools/wordpool_categorized_EN.txt	CORKSCREW	KitchenTools	3	11	[0, 0, 0]	n/a	catFR1	8	R1468J
1163.467	0.984	1412235	WORD_OFF	n/a	n/a	CORKSCREW	KitchenTools	3	11	[0, 0, 0]	n/a	catFR1	8	R1468J
1164.451	1.617	1413219	WORD	n/a	wordpools/wordpool_categorized_EN.txt	WHISK	KitchenTools	4	11	[0, 0, 0]	n/a	catFR1	8	R1468J
1166.068	0.816	1414839	WORD_OFF	n/a	n/a	WHISK	KitchenTools	4	11	[0, 0, 0]	n/a	catFR1	8	R1468J
1166.884	1.617	1415653	WORD	n/a	wordpools/wordpool_categorized_EN.txt	CELERY	Vegetables	5	11	[0, 0, 0]	n/a	catFR1	8	R1468J
1168.501	0.9	1417272	WORD_OFF	n/a	n/a	CELERY	Vegetables	5	11	[0, 0, 0]	n/a	catFR1	8	R1468J
1169.401	1.617	1418171	WORD	n/a	wordpools/wordpool_categorized_EN.txt	PEAS	Vegetables	6	11	[0, 0, 0]	n/a	catFR1	8	R1468J
1171.018	0.933	1419791	WORD_OFF	n/a	n/a	PEAS	Vegetables	6	11	[0, 0, 0]	n/a	catFR1	8	R1468J
1171.951	1.617	1420721	WORD	n/a	wordpools/wordpool_categorized_EN.txt	TONGS	KitchenTools	7	11	[0, 0, 0]	n/a	catFR1	8	R1468J
1173.568	0.798	1422341	WORD_OFF	n/a	n/a	TONGS	KitchenTools	7	11	[0, 0, 0]	n/a	catFR1	8	R1468J
1174.366	1.601	1423139	WORD	n/a	wordpools/wordpool_categorized_EN.txt	KNIFE	KitchenTools	8	11	[0, 0, 0]	n/a	catFR1	8	R1468J
1175.967	0.816	1424736	WORD_OFF	n/a	n/a	KNIFE	KitchenTools	8	11	[0, 0, 0]	n/a	catFR1	8	R1468J
1176.783	1.601	1425549	WORD	n/a	wordpools/wordpool_categorized_EN.txt	CUCUMBER	Vegetables	9	11	[0, 0, 0]	n/a	catFR1	8	R1468J
1178.384	0.8	1427154	WORD_OFF	n/a	n/a	CUCUMBER	Vegetables	9	11	[0, 0, 0]	n/a	catFR1	8	R1468J
1179.184	1.617	1427952	WORD	n/a	wordpools/wordpool_categorized_EN.txt	BROCCOLI	Vegetables	10	11	[0, 0, 0]	n/a	catFR1	8	R1468J
1180.801	0.866	1429572	WORD_OFF	n/a	n/a	BROCCOLI	Vegetables	10	11	[0, 0, 0]	n/a	catFR1	8	R1468J
1181.667	1.617	1430440	WORD	n/a	wordpools/wordpool_categorized_EN.txt	SPEAKER	Electronics	11	11	[0, 0, 0]	n/a	catFR1	8	R1468J
1183.284	0.867	1432052	WORD_OFF	n/a	n/a	SPEAKER	Electronics	11	11	[0, 0, 0]	n/a	catFR1	8	R1468J
1184.151	1.6	1432920	WORD	n/a	wordpools/wordpool_categorized_EN.txt	MICROWAVE	Electronics	12	11	[0, 0, 0]	n/a	catFR1	8	R1468J
1185.751	0.001	1434521	PROB	0.001	n/a	n/a	n/a	-999	11	[6, 8, 4]	16	catFR1	8	R1468J
1185.752	0.0	1434522	START	n/a	n/a	n/a	n/a	-999	11	[-999, -999, -999]	n/a	catFR1	8	R1468J
1185.751	0.001	1434524	WORD_OFF	n/a	n/a	MICROWAVE	Electronics	12	11	[0, 0, 0]	n/a	catFR1	8	R1468J
1185.752	0.0	1434524	ENCODING_END	n/a	n/a	n/a	n/a	-999	11	[0, 0, 0]	n/a	catFR1	8	R1468J
1185.752	4.932	1434524	DISTRACT_START	n/a	n/a	n/a	n/a	-999	11	[0, 0, 0]	n/a	catFR1	8	R1468J
1190.684	3.35	1439454	PROB	3.35	n/a	n/a	n/a	-999	11	[4, 4, 8]	16	catFR1	8	R1468J
1194.034	5.916	1442804	PROB	5.916	n/a	n/a	n/a	-999	11	[5, 6, 1]	12	catFR1	8	R1468J
1199.95	4.917	1448719	PROB	4.917	n/a	n/a	n/a	-999	11	[2, 4, 1]	7	catFR1	8	R1468J
1204.867	3.334	1453636	PROB	3.334	n/a	n/a	n/a	-999	11	[3, 8, 2]	13	catFR1	8	R1468J
1208.201	0.0	1456968	DISTRACT_END	n/a	n/a	n/a	n/a	-999	11	[0, 0, 0]	n/a	catFR1	8	R1468J
1208.201	1.333	1456970	STOP	n/a	n/a	n/a	n/a	-999	11	[-999, -999, -999]	n/a	catFR1	8	R1468J
1209.534	2.423	1458301	REC_START	n/a	n/a	n/a	n/a	-999	11	[0, 0, 0]	n/a	catFR1	8	R1468J
1211.957	4.751	1460726	REC_WORD	4.751	n/a	MICROPHONE	n/a	-999	11	[0, 0, 0]	n/a	catFR1	8	R1468J
1216.708	3.575	1465477	REC_WORD_VV	3.575	n/a	<>	n/a	-999	11	[0, 0, 0]	n/a	catFR1	8	R1468J
1220.283	5.499	1469052	REC_WORD	5.499	n/a	CORKSCREW	KitchenTools	3	11	[0, 0, 0]	n/a	catFR1	8	R1468J
1225.782	3.54	1474550	REC_WORD	3.54	n/a	HEADPHONES	Electronics	-999	11	[0, 0, 0]	n/a	catFR1	8	R1468J
1229.322	9.274	1478090	REC_WORD	9.274	n/a	CELERY	Vegetables	5	11	[0, 0, 0]	n/a	catFR1	8	R1468J
1238.596	2.182	1487364	REC_WORD	2.182	n/a	OLIVE	n/a	-999	11	[0, 0, 0]	n/a	catFR1	8	R1468J
1240.778	2.471	1489541	REC_END	n/a	n/a	n/a	n/a	-999	11	[0, 0, 0]	n/a	catFR1	8	R1468J
1243.249	10.352	1492013	COUNTDOWN_START	n/a	n/a	n/a	n/a	-999	11	[0, 0, 0]	n/a	catFR1	8	R1468J
1253.601	0.0	1502367	COUNTDOWN_END	n/a	n/a	n/a	n/a	-999	11	[0, 0, 0]	n/a	catFR1	8	R1468J
1253.601	1.881	1502367	ENCODING_START	n/a	n/a	n/a	n/a	-999	12	[0, 0, 0]	n/a	catFR1	8	R1468J
1255.482	1.601	1504250	WORD	n/a	wordpools/wordpool_categorized_EN.txt	SCREWDRIVER	Tools	1	12	[0, 0, 0]	n/a	catFR1	8	R1468J
1257.083	0.9	1505847	WORD_OFF	n/a	n/a	SCREWDRIVER	Tools	1	12	[0, 0, 0]	n/a	catFR1	8	R1468J
1257.983	1.616	1506746	WORD	n/a	wordpools/wordpool_categorized_EN.txt	HAMMER	Tools	2	12	[0, 0, 0]	n/a	catFR1	8	R1468J
1259.599	0.883	1508366	WORD_OFF	n/a	n/a	HAMMER	Tools	2	12	[0, 0, 0]	n/a	catFR1	8	R1468J
1260.482	1.6	1509249	WORD	n/a	wordpools/wordpool_categorized_EN.txt	STRAINER	KitchenTools	3	12	[0, 0, 0]	n/a	catFR1	8	R1468J
1262.082	0.917	1510846	WORD_OFF	n/a	n/a	STRAINER	KitchenTools	3	12	[0, 0, 0]	n/a	catFR1	8	R1468J
1262.999	1.601	1511768	WORD	n/a	wordpools/wordpool_categorized_EN.txt	PEELER	KitchenTools	4	12	[0, 0, 0]	n/a	catFR1	8	R1468J
1264.6	0.982	1513364	WORD_OFF	n/a	n/a	PEELER	KitchenTools	4	12	[0, 0, 0]	n/a	catFR1	8	R1468J
1265.582	1.601	1514349	WORD	n/a	wordpools/wordpool_categorized_EN.txt	TABLET	Electronics	5	12	[0, 0, 0]	n/a	catFR1	8	R1468J
1267.183	0.9	1515953	WORD_OFF	n/a	n/a	TABLET	Electronics	5	12	[0, 0, 0]	n/a	catFR1	8	R1468J
1268.083	1.6	1516852	WORD	n/a	wordpools/wordpool_categorized_EN.txt	PRINTER	Electronics	6	12	[0, 0, 0]	n/a	catFR1	8	R1468J
1269.683	0.849	1518448	WORD_OFF	n/a	n/a	PRINTER	Electronics	6	12	[0, 0, 0]	n/a	catFR1	8	R1468J
1270.532	1.6	1519301	WORD	n/a	wordpools/wordpool_categorized_EN.txt	DRILL	Tools	7	12	[0, 0, 0]	n/a	catFR1	8	R1468J
1272.132	0.833	1520897	WORD_OFF	n/a	n/a	DRILL	Tools	7	12	[0, 0, 0]	n/a	catFR1	8	R1468J
1272.965	1.617	1521734	WORD	n/a	wordpools/wordpool_categorized_EN.txt	RATCHET	Tools	8	12	[0, 0, 0]	n/a	catFR1	8	R1468J
1274.582	0.817	1523346	WORD_OFF	n/a	n/a	RATCHET	Tools	8	12	[0, 0, 0]	n/a	catFR1	8	R1468J
1275.399	1.617	1524168	WORD	n/a	wordpools/wordpool_categorized_EN.txt	SPATULA	KitchenTools	9	12	[0, 0, 0]	n/a	catFR1	8	R1468J
1277.016	0.966	1525780	WORD_OFF	n/a	n/a	SPATULA	KitchenTools	9	12	[0, 0, 0]	n/a	catFR1	8	R1468J
1277.982	1.6	1526749	WORD	n/a	wordpools/wordpool_categorized_EN.txt	SPOON	KitchenTools	10	12	[0, 0, 0]	n/a	catFR1	8	R1468J
1279.582	0.851	1528345	WORD_OFF	n/a	n/a	SPOON	KitchenTools	10	12	[0, 0, 0]	n/a	catFR1	8	R1468J
1280.433	1.616	1529198	WORD	n/a	wordpools/wordpool_categorized_EN.txt	SCANNER	Electronics	11	12	[0, 0, 0]	n/a	catFR1	8	R1468J
1282.049	0.767	1530817	WORD_OFF	n/a	n/a	SCANNER	Electronics	11	12	[0, 0, 0]	n/a	catFR1	8	R1468J
1282.816	1.616	1531585	WORD	n/a	wordpools/wordpool_categorized_EN.txt	COMPUTER	Electronics	12	12	[0, 0, 0]	n/a	catFR1	8	R1468J
1284.432	0.001	1533197	WORD_OFF	n/a	n/a	COMPUTER	Electronics	12	12	[0, 0, 0]	n/a	catFR1	8	R1468J
1284.433	0.0	1533197	ENCODING_END	n/a	n/a	n/a	n/a	-999	12	[0, 0, 0]	n/a	catFR1	8	R1468J
1284.433	0.0	1533199	START	n/a	n/a	n/a	n/a	-999	12	[-999, -999, -999]	n/a	catFR1	8	R1468J
1284.433	0.0	1533199	PROB	0.0	n/a	n/a	n/a	-999	12	[1, 5, 8]	14	catFR1	8	R1468J
1284.433	4.399	1533204	DISTRACT_START	n/a	n/a	n/a	n/a	-999	12	[0, 0, 0]	n/a	catFR1	8	R1468J
1288.832	5.234	1537598	PROB	5.234	n/a	n/a	n/a	-999	12	[4, 5, 6]	15	catFR1	8	R1468J
1294.066	4.452	1542831	PROB	4.452	n/a	n/a	n/a	-999	12	[7, 3, 8]	18	catFR1	8	R1468J
1298.518	4.698	1547283	PROB	4.698	n/a	n/a	n/a	-999	12	[4, 3, 2]	9	catFR1	8	R1468J
1303.216	5.034	1551981	PROB	5.034	n/a	n/a	n/a	-999	12	[1, 3, 5]	9	catFR1	8	R1468J
1308.25	0.0	1557012	DISTRACT_END	n/a	n/a	n/a	n/a	-999	12	[0, 0, 0]	n/a	catFR1	8	R1468J
1308.25	1.033	1557015	STOP	n/a	n/a	n/a	n/a	-999	12	[-999, -999, -999]	n/a	catFR1	8	R1468J
1309.283	1.3	1558051	REC_START	n/a	n/a	n/a	n/a	-999	12	[0, 0, 0]	n/a	catFR1	8	R1468J
1310.583	5.52	1559348	REC_WORD	5.52	n/a	SPATULA	KitchenTools	9	12	[0, 0, 0]	n/a	catFR1	8	R1468J
1316.103	2.758	1564868	REC_WORD	2.758	n/a	CORKSCREW	KitchenTools	-999	12	[0, 0, 0]	n/a	catFR1	8	R1468J
1318.861	4.102	1567625	REC_WORD	4.102	n/a	WRENCH	Tools	-999	12	[0, 0, 0]	n/a	catFR1	8	R1468J
1322.963	4.724	1571727	REC_WORD	4.724	n/a	NOTEBOOK	OfficeSupplies	-999	12	[0, 0, 0]	n/a	catFR1	8	R1468J
1327.687	12.808	1576451	REC_WORD	12.808	n/a	FOLDER	OfficeSupplies	-999	12	[0, 0, 0]	n/a	catFR1	8	R1468J
1340.495	0.0	1589260	REC_END	n/a	n/a	n/a	n/a	-999	12	[0, 0, 0]	n/a	catFR1	8	R1468J
