onset	duration	sample	trial_type	response_time	stim_file	item_name	category	serialpos	list	test	answer	experiment	session	subject
0.0	0.565	2622	INSTRUCT_START	n/a	n/a	n/a	n/a	-999	-999	[0, 0, 0]	n/a	catFR1	1	R1405E
0.565	33.616	3181	INSTRUCT_END	n/a	n/a	n/a	n/a	-999	-999	[0, 0, 0]	n/a	catFR1	1	R1405E
34.181	10.0	36795	COUNTDOWN_START	n/a	n/a	n/a	n/a	-999	-999	[0, 0, 0]	n/a	catFR1	1	R1405E
44.597	0.0	47216	COUNTDOWN_END	n/a	n/a	n/a	n/a	-999	-999	[0, 0, 0]	n/a	catFR1	1	R1405E
44.597	1.916	47216	ENCODING_START	n/a	n/a	n/a	n/a	-999	-1	[0, 0, 0]	n/a	catFR1	1	R1405E
46.513	1.6	49132	WORD	n/a	n/a	DRESS	Clothing	1	-1	[0, 0, 0]	n/a	catFR1	1	R1405E
48.129	0.934	50740	WORD_OFF	n/a	n/a	DRESS	Clothing	1	-1	[0, 0, 0]	n/a	catFR1	1	R1405E
49.063	1.6	51675	WORD	n/a	n/a	PANTS	Clothing	2	-1	[0, 0, 0]	n/a	catFR1	1	R1405E
50.679	0.8	53294	WORD_OFF	n/a	n/a	PANTS	Clothing	2	-1	[0, 0, 0]	n/a	catFR1	1	R1405E
51.479	1.6	54092	WORD	n/a	n/a	BANANA	Fruit	3	-1	[0, 0, 0]	n/a	catFR1	1	R1405E
53.096	0.849	55711	WORD_OFF	n/a	n/a	BANANA	Fruit	3	-1	[0, 0, 0]	n/a	catFR1	1	R1405E
53.945	1.6	56566	WORD	n/a	n/a	STRAWBERRY	Fruit	4	-1	[0, 0, 0]	n/a	catFR1	1	R1405E
55.562	0.917	58174	WORD_OFF	n/a	n/a	STRAWBERRY	Fruit	4	-1	[0, 0, 0]	n/a	catFR1	1	R1405E
56.479	1.6	59098	WORD	n/a	n/a	BEETLE	Insects	5	-1	[0, 0, 0]	n/a	catFR1	1	R1405E
58.095	0.85	60705	WORD_OFF	n/a	n/a	BEETLE	Insects	5	-1	[0, 0, 0]	n/a	catFR1	1	R1405E
58.945	1.6	61560	WORD	n/a	n/a	ROACH	Insects	6	-1	[0, 0, 0]	n/a	catFR1	1	R1405E
60.562	0.9	63180	WORD_OFF	n/a	n/a	ROACH	Insects	6	-1	[0, 0, 0]	n/a	catFR1	1	R1405E
61.462	1.6	64080	WORD	n/a	n/a	PEACH	Fruit	7	-1	[0, 0, 0]	n/a	catFR1	1	R1405E
63.062	0.983	65677	WORD_OFF	n/a	n/a	PEACH	Fruit	7	-1	[0, 0, 0]	n/a	catFR1	1	R1405E
64.045	1.6	66657	WORD	n/a	n/a	PLUM	Fruit	8	-1	[0, 0, 0]	n/a	catFR1	1	R1405E
65.662	0.766	68276	WORD_OFF	n/a	n/a	PLUM	Fruit	8	-1	[0, 0, 0]	n/a	catFR1	1	R1405E
66.428	1.6	69040	WORD	n/a	n/a	ANT	Insects	9	-1	[0, 0, 0]	n/a	catFR1	1	R1405E
68.045	0.85	70660	WORD_OFF	n/a	n/a	ANT	Insects	9	-1	[0, 0, 0]	n/a	catFR1	1	R1405E
68.895	1.6	71515	WORD	n/a	n/a	MOSQUITO	Insects	10	-1	[0, 0, 0]	n/a	catFR1	1	R1405E
70.511	0.884	73122	WORD_OFF	n/a	n/a	MOSQUITO	Insects	10	-1	[0, 0, 0]	n/a	catFR1	1	R1405E
71.395	1.6	74012	WORD	n/a	n/a	SKIRT	Clothing	11	-1	[0, 0, 0]	n/a	catFR1	1	R1405E
73.011	0.833	75631	WORD_OFF	n/a	n/a	SKIRT	Clothing	11	-1	[0, 0, 0]	n/a	catFR1	1	R1405E
73.844	1.6	76463	WORD	n/a	n/a	JACKET	Clothing	12	-1	[0, 0, 0]	n/a	catFR1	1	R1405E
75.461	0.002	78071	WORD_OFF	n/a	n/a	JACKET	Clothing	12	-1	[0, 0, 0]	n/a	catFR1	1	R1405E
75.463	0.0	78077	START	n/a	n/a	n/a	n/a	-999	-1	[-999, -999, -999]	n/a	catFR1	1	R1405E
75.463	0.0	78077	PROB	5.533	n/a	n/a	n/a	-999	-1	[8, 7, 7]	22.0	catFR1	1	R1405E
75.463	0.0	78082	ENCODING_END	n/a	n/a	n/a	n/a	-999	-1	[0, 0, 0]	n/a	catFR1	1	R1405E
75.463	5.548	78082	DISTRACT_START	n/a	n/a	n/a	n/a	-999	-1	[0, 0, 0]	n/a	catFR1	1	R1405E
81.011	4.05	83625	PROB	4.033	n/a	n/a	n/a	-999	-1	[3, 5, 7]	15.0	catFR1	1	R1405E
85.061	2.968	87675	PROB	2.95	n/a	n/a	n/a	-999	-1	[5, 3, 3]	11.0	catFR1	1	R1405E
88.029	7.682	90643	PROB	7.665	n/a	n/a	n/a	-999	-1	[2, 2, 8]	12.0	catFR1	1	R1405E
95.711	0.0	98321	DISTRACT_END	n/a	n/a	n/a	n/a	-999	-1	[0, 0, 0]	n/a	catFR1	1	R1405E
95.711	2.15	98325	STOP	n/a	n/a	n/a	n/a	-999	-1	[-999, -999, -999]	n/a	catFR1	1	R1405E
97.861	1.359	100473	REC_START	n/a	n/a	n/a	n/a	-999	-1	[0, 0, 0]	n/a	catFR1	1	R1405E
99.22	0.937	101834	REC_WORD	1.359	n/a	DRESS	Clothing	1	-1	[0, 0, 0]	n/a	catFR1	1	R1405E
100.157	1.365	102771	REC_WORD	2.296	n/a	PANTS	Clothing	2	-1	[0, 0, 0]	n/a	catFR1	1	R1405E
101.522	1.118	104136	REC_WORD	3.661	n/a	BANANA	Fruit	3	-1	[0, 0, 0]	n/a	catFR1	1	R1405E
102.64	6.709	105254	REC_WORD	4.779	n/a	FRUIT	n/a	-999	-1	[0, 0, 0]	n/a	catFR1	1	R1405E
109.349	0.897	111963	REC_WORD	11.488	n/a	MOSQUITO	Insects	10	-1	[0, 0, 0]	n/a	catFR1	1	R1405E
110.246	1.0	112860	REC_WORD_VV	12.385	n/a	<>	n/a	-999	-1	[0, 0, 0]	n/a	catFR1	1	R1405E
111.246	0.874	113860	REC_WORD_VV	13.385	n/a	<>	n/a	-999	-1	[0, 0, 0]	n/a	catFR1	1	R1405E
112.12	0.857	114734	REC_WORD_VV	14.259	n/a	<>	n/a	-999	-1	[0, 0, 0]	n/a	catFR1	1	R1405E
112.977	15.159	115591	REC_WORD	15.116	n/a	ROACH	Insects	6	-1	[0, 0, 0]	n/a	catFR1	1	R1405E
128.136	14.207	130750	REC_END	n/a	n/a	n/a	n/a	-999	-1	[0, 0, 0]	n/a	catFR1	1	R1405E
142.343	10.0	144957	COUNTDOWN_START	n/a	n/a	n/a	n/a	-999	1	[0, 0, 0]	n/a	catFR1	1	R1405E
152.693	0.0	155310	COUNTDOWN_END	n/a	n/a	n/a	n/a	-999	1	[0, 0, 0]	n/a	catFR1	1	R1405E
152.693	2.082	155310	ENCODING_START	n/a	n/a	n/a	n/a	-999	1	[0, 0, 0]	n/a	catFR1	1	R1405E
154.775	1.6	157385	WORD	n/a	wordpools/wordpool_categorized_EN.txt	COUCH	Furniture	1	1	[0, 0, 0]	n/a	catFR1	1	R1405E
156.392	0.966	159004	WORD_OFF	n/a	n/a	COUCH	Furniture	1	1	[0, 0, 0]	n/a	catFR1	1	R1405E
157.358	1.6	159974	WORD	n/a	wordpools/wordpool_categorized_EN.txt	SHELF	Furniture	2	1	[0, 0, 0]	n/a	catFR1	1	R1405E
158.958	0.866	161570	WORD_OFF	n/a	n/a	SHELF	Furniture	2	1	[0, 0, 0]	n/a	catFR1	1	R1405E
159.824	1.6	162437	WORD	n/a	wordpools/wordpool_categorized_EN.txt	MAPLE	Trees	3	1	[0, 0, 0]	n/a	catFR1	1	R1405E
161.425	0.883	164044	WORD_OFF	n/a	n/a	MAPLE	Trees	3	1	[0, 0, 0]	n/a	catFR1	1	R1405E
162.308	1.6	164922	WORD	n/a	wordpools/wordpool_categorized_EN.txt	ELM	Trees	4	1	[0, 0, 0]	n/a	catFR1	1	R1405E
163.909	0.983	166519	WORD_OFF	n/a	n/a	ELM	Trees	4	1	[0, 0, 0]	n/a	catFR1	1	R1405E
164.892	1.6	167511	WORD	n/a	wordpools/wordpool_categorized_EN.txt	HAND	BodyParts	5	1	[0, 0, 0]	n/a	catFR1	1	R1405E
166.492	0.783	169107	WORD_OFF	n/a	n/a	HAND	BodyParts	5	1	[0, 0, 0]	n/a	catFR1	1	R1405E
167.275	1.6	169894	WORD	n/a	wordpools/wordpool_categorized_EN.txt	ARM	BodyParts	6	1	[0, 0, 0]	n/a	catFR1	1	R1405E
168.891	0.951	171501	WORD_OFF	n/a	n/a	ARM	BodyParts	6	1	[0, 0, 0]	n/a	catFR1	1	R1405E
169.842	1.6	172459	WORD	n/a	wordpools/wordpool_categorized_EN.txt	SOFA	Furniture	7	1	[0, 0, 0]	n/a	catFR1	1	R1405E
171.458	0.917	174078	WORD_OFF	n/a	n/a	SOFA	Furniture	7	1	[0, 0, 0]	n/a	catFR1	1	R1405E
172.375	1.6	174990	WORD	n/a	wordpools/wordpool_categorized_EN.txt	CHAIR	Furniture	8	1	[0, 0, 0]	n/a	catFR1	1	R1405E
173.992	0.916	176610	WORD_OFF	n/a	n/a	CHAIR	Furniture	8	1	[0, 0, 0]	n/a	catFR1	1	R1405E
174.908	1.6	177522	WORD	n/a	wordpools/wordpool_categorized_EN.txt	PINE	Trees	9	1	[0, 0, 0]	n/a	catFR1	1	R1405E
176.508	0.916	179118	WORD_OFF	n/a	n/a	PINE	Trees	9	1	[0, 0, 0]	n/a	catFR1	1	R1405E
177.424	1.6	180042	WORD	n/a	wordpools/wordpool_categorized_EN.txt	WILLOW	Trees	10	1	[0, 0, 0]	n/a	catFR1	1	R1405E
179.024	0.884	181638	WORD_OFF	n/a	n/a	WILLOW	Trees	10	1	[0, 0, 0]	n/a	catFR1	1	R1405E
179.908	1.6	182527	WORD	n/a	wordpools/wordpool_categorized_EN.txt	EYE	BodyParts	11	1	[0, 0, 0]	n/a	catFR1	1	R1405E
181.508	1.0	184124	WORD_OFF	n/a	n/a	EYE	BodyParts	11	1	[0, 0, 0]	n/a	catFR1	1	R1405E
182.508	1.6	185127	WORD	n/a	wordpools/wordpool_categorized_EN.txt	NOSE	BodyParts	12	1	[0, 0, 0]	n/a	catFR1	1	R1405E
184.108	0.0	186722	PROB	5.783	n/a	n/a	n/a	-999	1	[7, 8, 8]	23.0	catFR1	1	R1405E
184.108	0.001	186723	WORD_OFF	n/a	n/a	NOSE	BodyParts	12	1	[0, 0, 0]	n/a	catFR1	1	R1405E
184.109	0.0	186723	ENCODING_END	n/a	n/a	n/a	n/a	-999	1	[0, 0, 0]	n/a	catFR1	1	R1405E
184.109	0.0	186723	DISTRACT_START	n/a	n/a	n/a	n/a	-999	1	[0, 0, 0]	n/a	catFR1	1	R1405E
184.109	5.799	186723	START	n/a	n/a	n/a	n/a	-999	1	[-999, -999, -999]	n/a	catFR1	1	R1405E
189.908	5.349	192522	PROB	5.333	n/a	n/a	n/a	-999	1	[8, 7, 8]	23.0	catFR1	1	R1405E
195.257	3.484	197871	PROB	3.467	n/a	n/a	n/a	-999	1	[6, 5, 4]	15.0	catFR1	1	R1405E
198.741	5.466	201355	PROB	5.45	n/a	n/a	n/a	-999	1	[1, 8, 3]	12.0	catFR1	1	R1405E
204.207	0.0	206821	STOP	n/a	n/a	n/a	n/a	-999	1	[-999, -999, -999]	n/a	catFR1	1	R1405E
204.207	2.117	206826	DISTRACT_END	n/a	n/a	n/a	n/a	-999	1	[0, 0, 0]	n/a	catFR1	1	R1405E
206.324	4.05	208943	REC_START	n/a	n/a	n/a	n/a	-999	1	[0, 0, 0]	n/a	catFR1	1	R1405E
210.374	6.402	212988	REC_WORD	4.05	n/a	WILLOW	Trees	10	1	[0, 0, 0]	n/a	catFR1	1	R1405E
216.776	2.256	219390	REC_WORD	10.452	n/a	SHIRT	n/a	-999	1	[0, 0, 0]	n/a	catFR1	1	R1405E
219.032	4.799	221646	REC_WORD	12.708	n/a	SKIRT	Clothing	-999	1	[0, 0, 0]	n/a	catFR1	1	R1405E
223.831	12.738	226445	REC_WORD	17.507	n/a	COUCH	Furniture	1	1	[0, 0, 0]	n/a	catFR1	1	R1405E
236.569	4.17	239185	REC_END	n/a	n/a	n/a	n/a	-999	1	[0, 0, 0]	n/a	catFR1	1	R1405E
240.739	10.0	243359	COUNTDOWN_START	n/a	n/a	n/a	n/a	-999	2	[0, 0, 0]	n/a	catFR1	1	R1405E
251.089	0.0	253700	COUNTDOWN_END	n/a	n/a	n/a	n/a	-999	2	[0, 0, 0]	n/a	catFR1	1	R1405E
251.089	2.133	253700	ENCODING_START	n/a	n/a	n/a	n/a	-999	2	[0, 0, 0]	n/a	catFR1	1	R1405E
253.222	1.6	255833	WORD	n/a	wordpools/wordpool_categorized_EN.txt	BASEBALL	Toys	1	2	[0, 0, 0]	n/a	catFR1	1	R1405E
254.822	0.783	257440	WORD_OFF	n/a	n/a	BASEBALL	Toys	1	2	[0, 0, 0]	n/a	catFR1	1	R1405E
255.605	1.6	258216	WORD	n/a	wordpools/wordpool_categorized_EN.txt	PUZZLE	Toys	2	2	[0, 0, 0]	n/a	catFR1	1	R1405E
257.205	0.95	259824	WORD_OFF	n/a	n/a	PUZZLE	Toys	2	2	[0, 0, 0]	n/a	catFR1	1	R1405E
258.155	1.6	260770	WORD	n/a	wordpools/wordpool_categorized_EN.txt	LEVEL	Tools	3	2	[0, 0, 0]	n/a	catFR1	1	R1405E
259.771	0.766	262389	WORD_OFF	n/a	n/a	LEVEL	Tools	3	2	[0, 0, 0]	n/a	catFR1	1	R1405E
260.537	1.6	263153	WORD	n/a	wordpools/wordpool_categorized_EN.txt	SCREWDRIVER	Tools	4	2	[0, 0, 0]	n/a	catFR1	1	R1405E
262.137	0.984	264749	WORD_OFF	n/a	n/a	SCREWDRIVER	Tools	4	2	[0, 0, 0]	n/a	catFR1	1	R1405E
263.121	1.6	265741	WORD	n/a	wordpools/wordpool_categorized_EN.txt	DENIM	Fabric	5	2	[0, 0, 0]	n/a	catFR1	1	R1405E
264.721	0.983	267338	WORD_OFF	n/a	n/a	DENIM	Fabric	5	2	[0, 0, 0]	n/a	catFR1	1	R1405E
265.704	1.6	268330	WORD	n/a	wordpools/wordpool_categorized_EN.txt	VELVET	Fabric	6	2	[0, 0, 0]	n/a	catFR1	1	R1405E
267.304	0.834	269915	WORD_OFF	n/a	n/a	VELVET	Fabric	6	2	[0, 0, 0]	n/a	catFR1	1	R1405E
268.138	1.6	270758	WORD	n/a	wordpools/wordpool_categorized_EN.txt	SHOVEL	Tools	7	2	[0, 0, 0]	n/a	catFR1	1	R1405E
269.754	0.833	272366	WORD_OFF	n/a	n/a	SHOVEL	Tools	7	2	[0, 0, 0]	n/a	catFR1	1	R1405E
270.587	1.6	273198	WORD	n/a	wordpools/wordpool_categorized_EN.txt	AXE	Tools	8	2	[0, 0, 0]	n/a	catFR1	1	R1405E
272.204	0.934	274818	WORD_OFF	n/a	n/a	AXE	Tools	8	2	[0, 0, 0]	n/a	catFR1	1	R1405E
273.138	1.6	275753	WORD	n/a	wordpools/wordpool_categorized_EN.txt	FLEECE	Fabric	9	2	[0, 0, 0]	n/a	catFR1	1	R1405E
274.754	0.767	277372	WORD_OFF	n/a	n/a	FLEECE	Fabric	9	2	[0, 0, 0]	n/a	catFR1	1	R1405E
275.521	1.6	278136	WORD	n/a	wordpools/wordpool_categorized_EN.txt	SUEDE	Fabric	10	2	[0, 0, 0]	n/a	catFR1	1	R1405E
277.121	0.767	279732	WORD_OFF	n/a	n/a	SUEDE	Fabric	10	2	[0, 0, 0]	n/a	catFR1	1	R1405E
277.888	1.6	280507	WORD	n/a	wordpools/wordpool_categorized_EN.txt	BALL	Toys	11	2	[0, 0, 0]	n/a	catFR1	1	R1405E
279.505	0.8	282115	WORD_OFF	n/a	n/a	BALL	Toys	11	2	[0, 0, 0]	n/a	catFR1	1	R1405E
280.305	1.6	282925	WORD	n/a	wordpools/wordpool_categorized_EN.txt	BLOCKS	Toys	12	2	[0, 0, 0]	n/a	catFR1	1	R1405E
281.921	0.0	284532	WORD_OFF	n/a	n/a	BLOCKS	Toys	12	2	[0, 0, 0]	n/a	catFR1	1	R1405E
281.921	0.002	284535	PROB	2.749	n/a	n/a	n/a	-999	2	[3, 3, 6]	12.0	catFR1	1	R1405E
281.923	0.0	284537	START	n/a	n/a	n/a	n/a	-999	2	[-999, -999, -999]	n/a	catFR1	1	R1405E
281.923	0.0	284544	ENCODING_END	n/a	n/a	n/a	n/a	-999	2	[0, 0, 0]	n/a	catFR1	1	R1405E
281.923	2.766	284544	DISTRACT_START	n/a	n/a	n/a	n/a	-999	2	[0, 0, 0]	n/a	catFR1	1	R1405E
284.689	2.166	287303	PROB	2.149	n/a	n/a	n/a	-999	2	[4, 6, 1]	11.0	catFR1	1	R1405E
286.855	2.382	289469	PROB	2.366	n/a	n/a	n/a	-999	2	[2, 3, 6]	11.0	catFR1	1	R1405E
289.237	4.851	291851	PROB	4.834	n/a	n/a	n/a	-999	2	[4, 8, 7]	19.0	catFR1	1	R1405E
294.088	3.5	296702	PROB	3.482	n/a	n/a	n/a	-999	2	[8, 5, 3]	16.0	catFR1	1	R1405E
297.588	4.115	300202	PROB	4.099	n/a	n/a	n/a	-999	2	[3, 1, 5]	9.0	catFR1	1	R1405E
301.703	6.454	304317	PROB	6.433	n/a	n/a	n/a	-999	2	[3, 5, 8]	16.0	catFR1	1	R1405E
308.157	0.0	310769	DISTRACT_END	n/a	n/a	n/a	n/a	-999	2	[0, 0, 0]	n/a	catFR1	1	R1405E
308.157	2.03	310771	STOP	n/a	n/a	n/a	n/a	-999	2	[-999, -999, -999]	n/a	catFR1	1	R1405E
310.187	1.386	312807	REC_START	n/a	n/a	n/a	n/a	-999	2	[0, 0, 0]	n/a	catFR1	1	R1405E
311.573	2.344	314187	REC_WORD	1.386	n/a	SCREWDRIVER	Tools	4	2	[0, 0, 0]	n/a	catFR1	1	R1405E
313.917	9.395	316531	REC_WORD	3.73	n/a	BASEBALL	Toys	1	2	[0, 0, 0]	n/a	catFR1	1	R1405E
323.312	1.867	325926	REC_WORD	13.125	n/a	WRENCH	n/a	-999	2	[0, 0, 0]	n/a	catFR1	1	R1405E
325.179	6.645	327793	REC_WORD	14.992	n/a	SUEDE	Fabric	10	2	[0, 0, 0]	n/a	catFR1	1	R1405E
331.824	8.606	334438	REC_WORD	21.637	n/a	AXE	Tools	8	2	[0, 0, 0]	n/a	catFR1	1	R1405E
340.43	4.772	343049	REC_END	n/a	n/a	n/a	n/a	-999	2	[0, 0, 0]	n/a	catFR1	1	R1405E
345.202	10.0	347815	COUNTDOWN_START	n/a	n/a	n/a	n/a	-999	3	[0, 0, 0]	n/a	catFR1	1	R1405E
355.551	0.0	358168	COUNTDOWN_END	n/a	n/a	n/a	n/a	-999	3	[0, 0, 0]	n/a	catFR1	1	R1405E
355.551	2.151	358168	ENCODING_START	n/a	n/a	n/a	n/a	-999	3	[0, 0, 0]	n/a	catFR1	1	R1405E
357.702	1.6	360323	WORD	n/a	wordpools/wordpool_categorized_EN.txt	STAPLER	OfficeSupplies	1	3	[0, 0, 0]	n/a	catFR1	1	R1405E
359.318	1.0	361931	WORD_OFF	n/a	n/a	STAPLER	OfficeSupplies	1	3	[0, 0, 0]	n/a	catFR1	1	R1405E
360.318	1.6	362934	WORD	n/a	wordpools/wordpool_categorized_EN.txt	PAPER	OfficeSupplies	2	3	[0, 0, 0]	n/a	catFR1	1	R1405E
361.918	0.999	364531	WORD_OFF	n/a	n/a	PAPER	OfficeSupplies	2	3	[0, 0, 0]	n/a	catFR1	1	R1405E
362.917	1.6	365534	WORD	n/a	wordpools/wordpool_categorized_EN.txt	ZEBRA	Zoo	3	3	[0, 0, 0]	n/a	catFR1	1	R1405E
364.518	0.866	367130	WORD_OFF	n/a	n/a	ZEBRA	Zoo	3	3	[0, 0, 0]	n/a	catFR1	1	R1405E
365.384	1.6	367997	WORD	n/a	wordpools/wordpool_categorized_EN.txt	LION	Zoo	4	3	[0, 0, 0]	n/a	catFR1	1	R1405E
366.985	0.983	369605	WORD_OFF	n/a	n/a	LION	Zoo	4	3	[0, 0, 0]	n/a	catFR1	1	R1405E
367.968	1.6	370585	WORD	n/a	wordpools/wordpool_categorized_EN.txt	HAWK	Birds	5	3	[0, 0, 0]	n/a	catFR1	1	R1405E
369.568	0.966	372182	WORD_OFF	n/a	n/a	HAWK	Birds	5	3	[0, 0, 0]	n/a	catFR1	1	R1405E
370.534	1.6	373151	WORD	n/a	wordpools/wordpool_categorized_EN.txt	CROW	Birds	6	3	[0, 0, 0]	n/a	catFR1	1	R1405E
372.135	0.949	374747	WORD_OFF	n/a	n/a	CROW	Birds	6	3	[0, 0, 0]	n/a	catFR1	1	R1405E
373.084	1.6	375705	WORD	n/a	wordpools/wordpool_categorized_EN.txt	ORANGUTAN	Zoo	7	3	[0, 0, 0]	n/a	catFR1	1	R1405E
374.701	0.767	377313	WORD_OFF	n/a	n/a	ORANGUTAN	Zoo	7	3	[0, 0, 0]	n/a	catFR1	1	R1405E
375.468	1.6	378088	WORD	n/a	wordpools/wordpool_categorized_EN.txt	GORILLA	Zoo	8	3	[0, 0, 0]	n/a	catFR1	1	R1405E
377.084	0.883	379707	WORD_OFF	n/a	n/a	GORILLA	Zoo	8	3	[0, 0, 0]	n/a	catFR1	1	R1405E
377.967	1.6	380585	WORD	n/a	wordpools/wordpool_categorized_EN.txt	TAPE	OfficeSupplies	9	3	[0, 0, 0]	n/a	catFR1	1	R1405E
379.568	1.0	382181	WORD_OFF	n/a	n/a	TAPE	OfficeSupplies	9	3	[0, 0, 0]	n/a	catFR1	1	R1405E
380.568	1.6	383185	WORD	n/a	wordpools/wordpool_categorized_EN.txt	ERASER	OfficeSupplies	10	3	[0, 0, 0]	n/a	catFR1	1	R1405E
382.184	0.983	384804	WORD_OFF	n/a	n/a	ERASER	OfficeSupplies	10	3	[0, 0, 0]	n/a	catFR1	1	R1405E
383.167	1.6	385785	WORD	n/a	wordpools/wordpool_categorized_EN.txt	SEAGULL	Birds	11	3	[0, 0, 0]	n/a	catFR1	1	R1405E
384.767	0.817	387381	WORD_OFF	n/a	n/a	SEAGULL	Birds	11	3	[0, 0, 0]	n/a	catFR1	1	R1405E
385.584	1.6	388202	WORD	n/a	wordpools/wordpool_categorized_EN.txt	GOOSE	Birds	12	3	[0, 0, 0]	n/a	catFR1	1	R1405E
387.184	0.002	389798	WORD_OFF	n/a	n/a	GOOSE	Birds	12	3	[0, 0, 0]	n/a	catFR1	1	R1405E
387.186	0.0	389798	ENCODING_END	n/a	n/a	n/a	n/a	-999	3	[0, 0, 0]	n/a	catFR1	1	R1405E
387.186	0.0	389798	DISTRACT_START	n/a	n/a	n/a	n/a	-999	3	[0, 0, 0]	n/a	catFR1	1	R1405E
387.185	0.001	389799	PROB	6.649	n/a	n/a	n/a	-999	3	[7, 5, 6]	19.0	catFR1	1	R1405E
387.186	6.667	389800	START	n/a	n/a	n/a	n/a	-999	3	[-999, -999, -999]	n/a	catFR1	1	R1405E
393.853	8.147	396467	PROB	8.133	n/a	n/a	n/a	-999	3	[8, 7, 8]	22.0	catFR1	1	R1405E
402.0	4.384	404614	PROB	4.367	n/a	n/a	n/a	-999	3	[4, 4, 4]	12.0	catFR1	1	R1405E
406.384	4.166	408998	PROB	4.148	n/a	n/a	n/a	-999	3	[5, 6, 8]	19.0	catFR1	1	R1405E
410.55	0.0	413162	DISTRACT_END	n/a	n/a	n/a	n/a	-999	3	[0, 0, 0]	n/a	catFR1	1	R1405E
410.55	2.366	413164	STOP	n/a	n/a	n/a	n/a	-999	3	[-999, -999, -999]	n/a	catFR1	1	R1405E
412.916	1.673	415530	REC_START	n/a	n/a	n/a	n/a	-999	3	[0, 0, 0]	n/a	catFR1	1	R1405E
414.589	2.32	417203	REC_WORD	1.673	n/a	PAPER	OfficeSupplies	2	3	[0, 0, 0]	n/a	catFR1	1	R1405E
416.909	5.318	419523	REC_WORD	3.993	n/a	ZEBRA	Zoo	3	3	[0, 0, 0]	n/a	catFR1	1	R1405E
422.227	6.801	424841	REC_WORD	9.311	n/a	AXE	Tools	-999	3	[0, 0, 0]	n/a	catFR1	1	R1405E
429.028	5.134	431642	REC_WORD	16.112	n/a	LION	Zoo	4	3	[0, 0, 0]	n/a	catFR1	1	R1405E
434.162	8.999	436776	REC_WORD	21.246	n/a	WILLOW	Trees	-999	3	[0, 0, 0]	n/a	catFR1	1	R1405E
443.161	3.638	445772	REC_END	n/a	n/a	n/a	n/a	-999	3	[0, 0, 0]	n/a	catFR1	1	R1405E
446.799	10.0	449421	COUNTDOWN_START	n/a	n/a	n/a	n/a	-999	4	[0, 0, 0]	n/a	catFR1	1	R1405E
457.148	0.0	459763	COUNTDOWN_END	n/a	n/a	n/a	n/a	-999	4	[0, 0, 0]	n/a	catFR1	1	R1405E
457.148	2.067	459763	ENCODING_START	n/a	n/a	n/a	n/a	-999	4	[0, 0, 0]	n/a	catFR1	1	R1405E
459.215	1.6	461826	WORD	n/a	wordpools/wordpool_categorized_EN.txt	MICROWAVE	Electronics	1	4	[0, 0, 0]	n/a	catFR1	1	R1405E
460.831	0.95	463446	WORD_OFF	n/a	n/a	MICROWAVE	Electronics	1	4	[0, 0, 0]	n/a	catFR1	1	R1405E
461.781	1.6	464392	WORD	n/a	wordpools/wordpool_categorized_EN.txt	PRINTER	Electronics	2	4	[0, 0, 0]	n/a	catFR1	1	R1405E
463.397	0.884	466011	WORD_OFF	n/a	n/a	PRINTER	Electronics	2	4	[0, 0, 0]	n/a	catFR1	1	R1405E
464.281	1.6	466901	WORD	n/a	wordpools/wordpool_categorized_EN.txt	OVEN	Appliances	3	4	[0, 0, 0]	n/a	catFR1	1	R1405E
465.881	0.767	468497	WORD_OFF	n/a	n/a	OVEN	Appliances	3	4	[0, 0, 0]	n/a	catFR1	1	R1405E
466.648	1.6	469261	WORD	n/a	wordpools/wordpool_categorized_EN.txt	VACUUM	Appliances	4	4	[0, 0, 0]	n/a	catFR1	1	R1405E
468.265	0.799	470880	WORD_OFF	n/a	n/a	VACUUM	Appliances	4	4	[0, 0, 0]	n/a	catFR1	1	R1405E
469.064	1.6	471678	WORD	n/a	wordpools/wordpool_categorized_EN.txt	BLUEBERRY	Fruit	5	4	[0, 0, 0]	n/a	catFR1	1	R1405E
470.665	0.916	473274	WORD_OFF	n/a	n/a	BLUEBERRY	Fruit	5	4	[0, 0, 0]	n/a	catFR1	1	R1405E
471.581	1.6	474198	WORD	n/a	wordpools/wordpool_categorized_EN.txt	ORANGE	Fruit	6	4	[0, 0, 0]	n/a	catFR1	1	R1405E
473.181	0.767	475794	WORD_OFF	n/a	n/a	ORANGE	Fruit	6	4	[0, 0, 0]	n/a	catFR1	1	R1405E
473.948	1.6	476558	WORD	n/a	wordpools/wordpool_categorized_EN.txt	IRON	Appliances	7	4	[0, 0, 0]	n/a	catFR1	1	R1405E
475.564	0.85	478177	WORD_OFF	n/a	n/a	IRON	Appliances	7	4	[0, 0, 0]	n/a	catFR1	1	R1405E
476.414	1.6	479033	WORD	n/a	wordpools/wordpool_categorized_EN.txt	DISHWASHER	Appliances	8	4	[0, 0, 0]	n/a	catFR1	1	R1405E
478.014	0.933	480629	WORD_OFF	n/a	n/a	DISHWASHER	Appliances	8	4	[0, 0, 0]	n/a	catFR1	1	R1405E
478.947	1.6	481564	WORD	n/a	wordpools/wordpool_categorized_EN.txt	LIME	Fruit	9	4	[0, 0, 0]	n/a	catFR1	1	R1405E
480.564	0.833	483183	WORD_OFF	n/a	n/a	LIME	Fruit	9	4	[0, 0, 0]	n/a	catFR1	1	R1405E
481.397	1.6	484015	WORD	n/a	wordpools/wordpool_categorized_EN.txt	PEAR	Fruit	10	4	[0, 0, 0]	n/a	catFR1	1	R1405E
482.997	0.917	485612	WORD_OFF	n/a	n/a	PEAR	Fruit	10	4	[0, 0, 0]	n/a	catFR1	1	R1405E
483.914	1.6	486535	WORD	n/a	wordpools/wordpool_categorized_EN.txt	PHONE	Electronics	11	4	[0, 0, 0]	n/a	catFR1	1	R1405E
485.514	1.0	488132	WORD_OFF	n/a	n/a	PHONE	Electronics	11	4	[0, 0, 0]	n/a	catFR1	1	R1405E
486.514	1.6	489135	WORD	n/a	wordpools/wordpool_categorized_EN.txt	SCANNER	Electronics	12	4	[0, 0, 0]	n/a	catFR1	1	R1405E
488.131	0.0	490743	WORD_OFF	n/a	n/a	SCANNER	Electronics	12	4	[0, 0, 0]	n/a	catFR1	1	R1405E
488.131	0.001	490745	PROB	3.399	n/a	n/a	n/a	-999	4	[3, 6, 4]	13.0	catFR1	1	R1405E
488.132	0.0	490746	START	n/a	n/a	n/a	n/a	-999	4	[-999, -999, -999]	n/a	catFR1	1	R1405E
488.132	0.0	490754	ENCODING_END	n/a	n/a	n/a	n/a	-999	4	[0, 0, 0]	n/a	catFR1	1	R1405E
488.132	3.415	490754	DISTRACT_START	n/a	n/a	n/a	n/a	-999	4	[0, 0, 0]	n/a	catFR1	1	R1405E
491.547	2.201	494161	PROB	2.182	n/a	n/a	n/a	-999	4	[3, 3, 1]	7.0	catFR1	1	R1405E
493.748	4.115	496362	PROB	4.099	n/a	n/a	n/a	-999	4	[2, 2, 3]	7.0	catFR1	1	R1405E
497.863	1.668	500477	PROB	1.65	n/a	n/a	n/a	-999	4	[2, 1, 1]	5.0	catFR1	1	R1405E
499.531	3.366	502145	PROB	3.349	n/a	n/a	n/a	-999	4	[1, 3, 6]	10.0	catFR1	1	R1405E
502.897	4.75	505511	PROB	4.733	n/a	n/a	n/a	-999	4	[4, 8, 5]	17.0	catFR1	1	R1405E
507.647	3.499	510261	PROB	3.482	n/a	n/a	n/a	-999	4	[4, 1, 5]	10.0	catFR1	1	R1405E
511.146	0.0	513760	STOP	n/a	n/a	n/a	n/a	-999	4	[-999, -999, -999]	n/a	catFR1	1	R1405E
511.146	2.217	513764	DISTRACT_END	n/a	n/a	n/a	n/a	-999	4	[0, 0, 0]	n/a	catFR1	1	R1405E
513.363	1.627	515973	REC_START	n/a	n/a	n/a	n/a	-999	4	[0, 0, 0]	n/a	catFR1	1	R1405E
514.99	1.908	517604	REC_WORD	1.627	n/a	MICROWAVE	Electronics	1	4	[0, 0, 0]	n/a	catFR1	1	R1405E
516.898	2.389	519512	REC_WORD	3.535	n/a	SCANNER	Electronics	12	4	[0, 0, 0]	n/a	catFR1	1	R1405E
519.287	2.31	521901	REC_WORD	5.924	n/a	PRINTER	Electronics	2	4	[0, 0, 0]	n/a	catFR1	1	R1405E
521.597	2.025	524211	REC_WORD	8.234	n/a	FAX	n/a	-999	4	[0, 0, 0]	n/a	catFR1	1	R1405E
523.622	1.697	526236	REC_WORD_VV	10.259	n/a	<>	n/a	-999	4	[0, 0, 0]	n/a	catFR1	1	R1405E
525.319	1.321	527933	REC_WORD	11.956	n/a	LEMON	n/a	-999	4	[0, 0, 0]	n/a	catFR1	1	R1405E
526.64	1.341	529254	REC_WORD	13.277	n/a	LIME	Fruit	9	4	[0, 0, 0]	n/a	catFR1	1	R1405E
527.981	5.569	530595	REC_WORD	14.618	n/a	PEAR	Fruit	10	4	[0, 0, 0]	n/a	catFR1	1	R1405E
533.55	8.072	536164	REC_WORD	20.187	n/a	ORANGE	Fruit	6	4	[0, 0, 0]	n/a	catFR1	1	R1405E
541.622	2.011	544236	REC_WORD	28.259	n/a	DISHWASHER	Appliances	8	4	[0, 0, 0]	n/a	catFR1	1	R1405E
543.633	4.395	546249	REC_END	n/a	n/a	n/a	n/a	-999	4	[0, 0, 0]	n/a	catFR1	1	R1405E
548.028	10.0	550639	COUNTDOWN_START	n/a	n/a	n/a	n/a	-999	5	[0, 0, 0]	n/a	catFR1	1	R1405E
558.379	0.0	560992	COUNTDOWN_END	n/a	n/a	n/a	n/a	-999	5	[0, 0, 0]	n/a	catFR1	1	R1405E
558.379	2.382	560992	ENCODING_START	n/a	n/a	n/a	n/a	-999	5	[0, 0, 0]	n/a	catFR1	1	R1405E
560.761	1.6	563375	WORD	n/a	wordpools/wordpool_categorized_EN.txt	SCOOTER	Vehicles	1	5	[0, 0, 0]	n/a	catFR1	1	R1405E
562.361	0.833	564972	WORD_OFF	n/a	n/a	SCOOTER	Vehicles	1	5	[0, 0, 0]	n/a	catFR1	1	R1405E
563.194	1.6	565815	WORD	n/a	wordpools/wordpool_categorized_EN.txt	PLANE	Vehicles	2	5	[0, 0, 0]	n/a	catFR1	1	R1405E
564.811	0.917	567423	WORD_OFF	n/a	n/a	PLANE	Vehicles	2	5	[0, 0, 0]	n/a	catFR1	1	R1405E
565.728	1.6	568347	WORD	n/a	wordpools/wordpool_categorized_EN.txt	VALLEY	Landscapes	3	5	[0, 0, 0]	n/a	catFR1	1	R1405E
567.343	0.801	569954	WORD_OFF	n/a	n/a	VALLEY	Landscapes	3	5	[0, 0, 0]	n/a	catFR1	1	R1405E
568.144	1.6	570764	WORD	n/a	wordpools/wordpool_categorized_EN.txt	ISLAND	Landscapes	4	5	[0, 0, 0]	n/a	catFR1	1	R1405E
569.744	0.8	572360	WORD_OFF	n/a	n/a	ISLAND	Landscapes	4	5	[0, 0, 0]	n/a	catFR1	1	R1405E
570.544	1.6	573158	WORD	n/a	wordpools/wordpool_categorized_EN.txt	PASTRY	Desserts	5	5	[0, 0, 0]	n/a	catFR1	1	R1405E
572.161	0.966	574778	WORD_OFF	n/a	n/a	PASTRY	Desserts	5	5	[0, 0, 0]	n/a	catFR1	1	R1405E
573.127	1.6	575747	WORD	n/a	wordpools/wordpool_categorized_EN.txt	PIE	Desserts	6	5	[0, 0, 0]	n/a	catFR1	1	R1405E
574.744	0.783	577354	WORD_OFF	n/a	n/a	PIE	Desserts	6	5	[0, 0, 0]	n/a	catFR1	1	R1405E
575.527	1.6	578141	WORD	n/a	wordpools/wordpool_categorized_EN.txt	CAR	Vehicles	7	5	[0, 0, 0]	n/a	catFR1	1	R1405E
577.127	0.8	579738	WORD_OFF	n/a	n/a	CAR	Vehicles	7	5	[0, 0, 0]	n/a	catFR1	1	R1405E
577.927	1.6	580547	WORD	n/a	wordpools/wordpool_categorized_EN.txt	TRAIN	Vehicles	8	5	[0, 0, 0]	n/a	catFR1	1	R1405E
579.527	0.95	582143	WORD_OFF	n/a	n/a	TRAIN	Vehicles	8	5	[0, 0, 0]	n/a	catFR1	1	R1405E
580.477	1.6	583090	WORD	n/a	wordpools/wordpool_categorized_EN.txt	BROWNIES	Desserts	9	5	[0, 0, 0]	n/a	catFR1	1	R1405E
582.094	0.833	584709	WORD_OFF	n/a	n/a	BROWNIES	Desserts	9	5	[0, 0, 0]	n/a	catFR1	1	R1405E
582.927	1.6	585541	WORD	n/a	wordpools/wordpool_categorized_EN.txt	FUDGE	Desserts	10	5	[0, 0, 0]	n/a	catFR1	1	R1405E
584.544	0.883	587160	WORD_OFF	n/a	n/a	FUDGE	Desserts	10	5	[0, 0, 0]	n/a	catFR1	1	R1405E
585.427	1.6	588038	WORD	n/a	wordpools/wordpool_categorized_EN.txt	HILLS	Landscapes	11	5	[0, 0, 0]	n/a	catFR1	1	R1405E
587.044	0.916	589658	WORD_OFF	n/a	n/a	HILLS	Landscapes	11	5	[0, 0, 0]	n/a	catFR1	1	R1405E
587.96	1.6	590581	WORD	n/a	wordpools/wordpool_categorized_EN.txt	CREEK	Landscapes	12	5	[0, 0, 0]	n/a	catFR1	1	R1405E
589.561	0.001	592175	PROB	4.715	n/a	n/a	n/a	-999	5	[8, 6, 8]	22.0	catFR1	1	R1405E
589.562	0.0	592176	START	n/a	n/a	n/a	n/a	-999	5	[-999, -999, -999]	n/a	catFR1	1	R1405E
589.56	0.002	592177	WORD_OFF	n/a	n/a	CREEK	Landscapes	12	5	[0, 0, 0]	n/a	catFR1	1	R1405E
589.562	0.0	592177	ENCODING_END	n/a	n/a	n/a	n/a	-999	5	[0, 0, 0]	n/a	catFR1	1	R1405E
589.562	4.732	592177	DISTRACT_START	n/a	n/a	n/a	n/a	-999	5	[0, 0, 0]	n/a	catFR1	1	R1405E
594.294	2.699	596908	PROB	2.683	n/a	n/a	n/a	-999	5	[1, 7, 7]	15.0	catFR1	1	R1405E
596.993	6.751	599607	PROB	6.733	n/a	n/a	n/a	-999	5	[8, 7, 2]	17.0	catFR1	1	R1405E
603.744	2.716	606358	PROB	2.699	n/a	n/a	n/a	-999	5	[2, 5, 4]	11.0	catFR1	1	R1405E
606.46	2.533	609074	PROB	2.515	n/a	n/a	n/a	-999	5	[4, 3, 3]	10.0	catFR1	1	R1405E
608.993	3.933	611607	PROB	3.916	n/a	n/a	n/a	-999	5	[3, 2, 2]	7.0	catFR1	1	R1405E
612.926	0.0	615540	STOP	n/a	n/a	n/a	n/a	-999	5	[-999, -999, -999]	n/a	catFR1	1	R1405E
612.926	2.133	615541	DISTRACT_END	n/a	n/a	n/a	n/a	-999	5	[0, 0, 0]	n/a	catFR1	1	R1405E
615.059	1.332	617670	REC_START	n/a	n/a	n/a	n/a	-999	5	[0, 0, 0]	n/a	catFR1	1	R1405E
616.391	1.662	619005	REC_WORD	1.332	n/a	HEN	n/a	-999	5	[0, 0, 0]	n/a	catFR1	1	R1405E
618.053	1.5	620667	REC_WORD	2.994	n/a	PLANE	Vehicles	2	5	[0, 0, 0]	n/a	catFR1	1	R1405E
619.553	1.0	622167	REC_WORD	4.494	n/a	VALLEY	Landscapes	3	5	[0, 0, 0]	n/a	catFR1	1	R1405E
620.553	1.284	623167	REC_WORD_VV	5.494	n/a	<>	n/a	-999	5	[0, 0, 0]	n/a	catFR1	1	R1405E
621.837	1.019	624451	REC_WORD_VV	6.778	n/a	<>	n/a	-999	5	[0, 0, 0]	n/a	catFR1	1	R1405E
622.856	6.369	625470	REC_WORD	7.797	n/a	ISLAND	Landscapes	4	5	[0, 0, 0]	n/a	catFR1	1	R1405E
629.225	16.1	631839	REC_WORD	14.166	n/a	TABLE	n/a	-999	5	[0, 0, 0]	n/a	catFR1	1	R1405E
645.325	4.216	647946	REC_END	n/a	n/a	n/a	n/a	-999	5	[0, 0, 0]	n/a	catFR1	1	R1405E
649.541	10.0	652154	COUNTDOWN_START	n/a	n/a	n/a	n/a	-999	6	[0, 0, 0]	n/a	catFR1	1	R1405E
659.892	0.0	662507	COUNTDOWN_END	n/a	n/a	n/a	n/a	-999	6	[0, 0, 0]	n/a	catFR1	1	R1405E
659.892	2.249	662507	ENCODING_START	n/a	n/a	n/a	n/a	-999	6	[0, 0, 0]	n/a	catFR1	1	R1405E
662.141	1.6	664753	WORD	n/a	wordpools/wordpool_categorized_EN.txt	LINEN	Fabric	1	6	[0, 0, 0]	n/a	catFR1	1	R1405E
663.758	0.799	666372	WORD_OFF	n/a	n/a	LINEN	Fabric	1	6	[0, 0, 0]	n/a	catFR1	1	R1405E
664.557	1.6	667170	WORD	n/a	wordpools/wordpool_categorized_EN.txt	NYLON	Fabric	2	6	[0, 0, 0]	n/a	catFR1	1	R1405E
666.157	0.866	668778	WORD_OFF	n/a	n/a	NYLON	Fabric	2	6	[0, 0, 0]	n/a	catFR1	1	R1405E
667.023	1.6	669645	WORD	n/a	wordpools/wordpool_categorized_EN.txt	BIKE	Vehicles	3	6	[0, 0, 0]	n/a	catFR1	1	R1405E
668.624	0.816	671241	WORD_OFF	n/a	n/a	BIKE	Vehicles	3	6	[0, 0, 0]	n/a	catFR1	1	R1405E
669.44	1.6	672050	WORD	n/a	wordpools/wordpool_categorized_EN.txt	MOTORCYCLE	Vehicles	4	6	[0, 0, 0]	n/a	catFR1	1	R1405E
671.04	0.8	673658	WORD_OFF	n/a	n/a	MOTORCYCLE	Vehicles	4	6	[0, 0, 0]	n/a	catFR1	1	R1405E
671.84	1.6	674456	WORD	n/a	wordpools/wordpool_categorized_EN.txt	TROMBONE	Instruments	5	6	[0, 0, 0]	n/a	catFR1	1	R1405E
673.441	0.965	676053	WORD_OFF	n/a	n/a	TROMBONE	Instruments	5	6	[0, 0, 0]	n/a	catFR1	1	R1405E
674.406	1.6	677022	WORD	n/a	wordpools/wordpool_categorized_EN.txt	VIOLIN	Instruments	6	6	[0, 0, 0]	n/a	catFR1	1	R1405E
676.007	0.883	678618	WORD_OFF	n/a	n/a	VIOLIN	Instruments	6	6	[0, 0, 0]	n/a	catFR1	1	R1405E
676.89	1.6	679508	WORD	n/a	wordpools/wordpool_categorized_EN.txt	JEEP	Vehicles	7	6	[0, 0, 0]	n/a	catFR1	1	R1405E
678.49	0.834	681104	WORD_OFF	n/a	n/a	JEEP	Vehicles	7	6	[0, 0, 0]	n/a	catFR1	1	R1405E
679.324	1.6	681936	WORD	n/a	wordpools/wordpool_categorized_EN.txt	VAN	Vehicles	8	6	[0, 0, 0]	n/a	catFR1	1	R1405E
680.939	0.967	683555	WORD_OFF	n/a	n/a	VAN	Vehicles	8	6	[0, 0, 0]	n/a	catFR1	1	R1405E
681.906	1.6	684525	WORD	n/a	wordpools/wordpool_categorized_EN.txt	PIANO	Instruments	9	6	[0, 0, 0]	n/a	catFR1	1	R1405E
683.507	0.816	686121	WORD_OFF	n/a	n/a	PIANO	Instruments	9	6	[0, 0, 0]	n/a	catFR1	1	R1405E
684.323	1.6	686942	WORD	n/a	wordpools/wordpool_categorized_EN.txt	TUBA	Instruments	10	6	[0, 0, 0]	n/a	catFR1	1	R1405E
685.94	0.95	688561	WORD_OFF	n/a	n/a	TUBA	Instruments	10	6	[0, 0, 0]	n/a	catFR1	1	R1405E
686.89	1.6	689507	WORD	n/a	wordpools/wordpool_categorized_EN.txt	SATIN	Fabric	11	6	[0, 0, 0]	n/a	catFR1	1	R1405E
688.507	0.866	691127	WORD_OFF	n/a	n/a	SATIN	Fabric	11	6	[0, 0, 0]	n/a	catFR1	1	R1405E
689.373	1.6	691993	WORD	n/a	wordpools/wordpool_categorized_EN.txt	SPANDEX	Fabric	12	6	[0, 0, 0]	n/a	catFR1	1	R1405E
690.99	0.001	693601	WORD_OFF	n/a	n/a	SPANDEX	Fabric	12	6	[0, 0, 0]	n/a	catFR1	1	R1405E
690.991	0.002	693606	START	n/a	n/a	n/a	n/a	-999	6	[-999, -999, -999]	n/a	catFR1	1	R1405E
690.993	0.0	693608	PROB	2.966	n/a	n/a	n/a	-999	6	[2, 8, 6]	16.0	catFR1	1	R1405E
690.991	0.0	693612	ENCODING_END	n/a	n/a	n/a	n/a	-999	6	[0, 0, 0]	n/a	catFR1	1	R1405E
690.991	2.983	693612	DISTRACT_START	n/a	n/a	n/a	n/a	-999	6	[0, 0, 0]	n/a	catFR1	1	R1405E
693.974	2.882	696589	PROB	2.866	n/a	n/a	n/a	-999	6	[7, 7, 1]	15.0	catFR1	1	R1405E
696.856	4.051	699471	PROB	4.033	n/a	n/a	n/a	-999	6	[8, 5, 5]	18.0	catFR1	1	R1405E
700.907	2.733	703522	PROB	2.716	n/a	n/a	n/a	-999	6	[2, 7, 8]	17.0	catFR1	1	R1405E
703.64	2.15	706255	PROB	2.132	n/a	n/a	n/a	-999	6	[1, 7, 4]	11.0	catFR1	1	R1405E
705.79	4.233	708405	PROB	4.216	n/a	n/a	n/a	-999	6	[3, 5, 5]	13.0	catFR1	1	R1405E
710.023	5.766	712638	PROB	5.749	n/a	n/a	n/a	-999	6	[3, 6, 7]	16.0	catFR1	1	R1405E
715.789	0.0	718401	DISTRACT_END	n/a	n/a	n/a	n/a	-999	6	[0, 0, 0]	n/a	catFR1	1	R1405E
715.789	2.299	718404	STOP	n/a	n/a	n/a	n/a	-999	6	[-999, -999, -999]	n/a	catFR1	1	R1405E
718.088	3.084	720701	REC_START	n/a	n/a	n/a	n/a	-999	6	[0, 0, 0]	n/a	catFR1	1	R1405E
721.172	1.87	723787	REC_WORD	3.084	n/a	SATIN	Fabric	11	6	[0, 0, 0]	n/a	catFR1	1	R1405E
723.042	25.31	725657	REC_WORD	4.954	n/a	SPANDEX	Fabric	12	6	[0, 0, 0]	n/a	catFR1	1	R1405E
748.352	2.919	750966	REC_END	n/a	n/a	n/a	n/a	-999	6	[0, 0, 0]	n/a	catFR1	1	R1405E
751.271	10.0	753885	COUNTDOWN_START	n/a	n/a	n/a	n/a	-999	7	[0, 0, 0]	n/a	catFR1	1	R1405E
761.621	0.001	764238	COUNTDOWN_END	n/a	n/a	n/a	n/a	-999	7	[0, 0, 0]	n/a	catFR1	1	R1405E
761.622	2.132	764238	ENCODING_START	n/a	n/a	n/a	n/a	-999	7	[0, 0, 0]	n/a	catFR1	1	R1405E
763.754	1.6	766370	WORD	n/a	wordpools/wordpool_categorized_EN.txt	BLENDER	Appliances	1	7	[0, 0, 0]	n/a	catFR1	1	R1405E
765.354	0.917	767967	WORD_OFF	n/a	n/a	BLENDER	Appliances	1	7	[0, 0, 0]	n/a	catFR1	1	R1405E
766.271	1.6	768890	WORD	n/a	wordpools/wordpool_categorized_EN.txt	WASHER	Appliances	2	7	[0, 0, 0]	n/a	catFR1	1	R1405E
767.87	0.834	770486	WORD_OFF	n/a	n/a	WASHER	Appliances	2	7	[0, 0, 0]	n/a	catFR1	1	R1405E
768.704	1.6	771319	WORD	n/a	wordpools/wordpool_categorized_EN.txt	JELLYFISH	OceanAnimals	3	7	[0, 0, 0]	n/a	catFR1	1	R1405E
770.32	0.834	772938	WORD_OFF	n/a	n/a	JELLYFISH	OceanAnimals	3	7	[0, 0, 0]	n/a	catFR1	1	R1405E
771.154	1.6	773770	WORD	n/a	wordpools/wordpool_categorized_EN.txt	PLANKTON	OceanAnimals	4	7	[0, 0, 0]	n/a	catFR1	1	R1405E
772.77	0.949	775389	WORD_OFF	n/a	n/a	PLANKTON	OceanAnimals	4	7	[0, 0, 0]	n/a	catFR1	1	R1405E
773.719	1.6	776336	WORD	n/a	wordpools/wordpool_categorized_EN.txt	CHEESECAKE	Desserts	5	7	[0, 0, 0]	n/a	catFR1	1	R1405E
775.32	0.933	777932	WORD_OFF	n/a	n/a	CHEESECAKE	Desserts	5	7	[0, 0, 0]	n/a	catFR1	1	R1405E
776.253	1.6	778867	WORD	n/a	wordpools/wordpool_categorized_EN.txt	COBBLER	Desserts	6	7	[0, 0, 0]	n/a	catFR1	1	R1405E
777.853	0.95	780475	WORD_OFF	n/a	n/a	COBBLER	Desserts	6	7	[0, 0, 0]	n/a	catFR1	1	R1405E
778.803	1.6	781421	WORD	n/a	wordpools/wordpool_categorized_EN.txt	STOVE	Appliances	7	7	[0, 0, 0]	n/a	catFR1	1	R1405E
780.42	0.833	783040	WORD_OFF	n/a	n/a	STOVE	Appliances	7	7	[0, 0, 0]	n/a	catFR1	1	R1405E
781.253	1.6	783873	WORD	n/a	wordpools/wordpool_categorized_EN.txt	REFRIGERATOR	Appliances	8	7	[0, 0, 0]	n/a	catFR1	1	R1405E
782.87	0.933	785480	WORD_OFF	n/a	n/a	REFRIGERATOR	Appliances	8	7	[0, 0, 0]	n/a	catFR1	1	R1405E
783.803	1.6	786415	WORD	n/a	wordpools/wordpool_categorized_EN.txt	SHRIMP	OceanAnimals	9	7	[0, 0, 0]	n/a	catFR1	1	R1405E
785.403	0.917	788023	WORD_OFF	n/a	n/a	SHRIMP	OceanAnimals	9	7	[0, 0, 0]	n/a	catFR1	1	R1405E
786.32	1.6	788935	WORD	n/a	wordpools/wordpool_categorized_EN.txt	OCTOPUS	OceanAnimals	10	7	[0, 0, 0]	n/a	catFR1	1	R1405E
787.92	0.95	790532	WORD_OFF	n/a	n/a	OCTOPUS	OceanAnimals	10	7	[0, 0, 0]	n/a	catFR1	1	R1405E
788.87	1.6	791489	WORD	n/a	wordpools/wordpool_categorized_EN.txt	CUPCAKE	Desserts	11	7	[0, 0, 0]	n/a	catFR1	1	R1405E
790.47	0.799	793086	WORD_OFF	n/a	n/a	CUPCAKE	Desserts	11	7	[0, 0, 0]	n/a	catFR1	1	R1405E
791.269	1.6	793884	WORD	n/a	wordpools/wordpool_categorized_EN.txt	MOUSSE	Desserts	12	7	[0, 0, 0]	n/a	catFR1	1	R1405E
792.87	0.001	795480	WORD_OFF	n/a	n/a	MOUSSE	Desserts	12	7	[0, 0, 0]	n/a	catFR1	1	R1405E
792.871	0.001	795486	START	n/a	n/a	n/a	n/a	-999	7	[-999, -999, -999]	n/a	catFR1	1	R1405E
792.872	0.0	795487	PROB	5.466	n/a	n/a	n/a	-999	7	[5, 8, 3]	16.0	catFR1	1	R1405E
792.871	0.0	795492	ENCODING_END	n/a	n/a	n/a	n/a	-999	7	[0, 0, 0]	n/a	catFR1	1	R1405E
792.871	5.482	795492	DISTRACT_START	n/a	n/a	n/a	n/a	-999	7	[0, 0, 0]	n/a	catFR1	1	R1405E
798.353	13.383	800968	PROB	13.365	n/a	n/a	n/a	-999	7	[3, 4, 1]	8.0	catFR1	1	R1405E
811.736	4.199	814351	PROB	4.182	n/a	n/a	n/a	-999	7	[7, 8, 6]	21.0	catFR1	1	R1405E
815.935	0.0	818547	DISTRACT_END	n/a	n/a	n/a	n/a	-999	7	[0, 0, 0]	n/a	catFR1	1	R1405E
815.935	2.316	818550	STOP	n/a	n/a	n/a	n/a	-999	7	[-999, -999, -999]	n/a	catFR1	1	R1405E
818.251	2.026	820870	REC_START	n/a	n/a	n/a	n/a	-999	7	[0, 0, 0]	n/a	catFR1	1	R1405E
820.277	1.785	822892	REC_WORD	2.026	n/a	CHEESECAKE	Desserts	5	7	[0, 0, 0]	n/a	catFR1	1	R1405E
822.062	2.897	824677	REC_WORD	3.811	n/a	OCTOPUS	OceanAnimals	10	7	[0, 0, 0]	n/a	catFR1	1	R1405E
824.959	5.366	827574	REC_WORD	6.708	n/a	TUBA	Instruments	-999	7	[0, 0, 0]	n/a	catFR1	1	R1405E
830.325	6.49	832940	REC_WORD	12.074	n/a	SHRIMP	OceanAnimals	9	7	[0, 0, 0]	n/a	catFR1	1	R1405E
836.815	11.681	839430	REC_WORD	18.564	n/a	DISHWASHER	Appliances	-999	7	[0, 0, 0]	n/a	catFR1	1	R1405E
848.496	7.122	851112	REC_END	n/a	n/a	n/a	n/a	-999	7	[0, 0, 0]	n/a	catFR1	1	R1405E
855.618	10.0	858238	COUNTDOWN_START	n/a	n/a	n/a	n/a	-999	8	[0, 0, 0]	n/a	catFR1	1	R1405E
865.968	0.0	868580	COUNTDOWN_END	n/a	n/a	n/a	n/a	-999	8	[0, 0, 0]	n/a	catFR1	1	R1405E
865.968	2.032	868580	ENCODING_START	n/a	n/a	n/a	n/a	-999	8	[0, 0, 0]	n/a	catFR1	1	R1405E
868.0	1.6	870621	WORD	n/a	wordpools/wordpool_categorized_EN.txt	DOLLHOUSE	Toys	1	8	[0, 0, 0]	n/a	catFR1	1	R1405E
869.6	0.95	872218	WORD_OFF	n/a	n/a	DOLLHOUSE	Toys	1	8	[0, 0, 0]	n/a	catFR1	1	R1405E
870.55	1.6	873164	WORD	n/a	wordpools/wordpool_categorized_EN.txt	BASKETBALL	Toys	2	8	[0, 0, 0]	n/a	catFR1	1	R1405E
872.15	0.849	874772	WORD_OFF	n/a	n/a	BASKETBALL	Toys	2	8	[0, 0, 0]	n/a	catFR1	1	R1405E
872.999	1.6	875616	WORD	n/a	wordpools/wordpool_categorized_EN.txt	DRUM	Instruments	3	8	[0, 0, 0]	n/a	catFR1	1	R1405E
874.6	0.933	877212	WORD_OFF	n/a	n/a	DRUM	Instruments	3	8	[0, 0, 0]	n/a	catFR1	1	R1405E
875.533	1.6	878147	WORD	n/a	wordpools/wordpool_categorized_EN.txt	BANJO	Instruments	4	8	[0, 0, 0]	n/a	catFR1	1	R1405E
877.15	0.933	879766	WORD_OFF	n/a	n/a	BANJO	Instruments	4	8	[0, 0, 0]	n/a	catFR1	1	R1405E
878.083	1.6	880701	WORD	n/a	wordpools/wordpool_categorized_EN.txt	CEDAR	Trees	5	8	[0, 0, 0]	n/a	catFR1	1	R1405E
879.683	0.867	882297	WORD_OFF	n/a	n/a	CEDAR	Trees	5	8	[0, 0, 0]	n/a	catFR1	1	R1405E
880.55	1.6	883164	WORD	n/a	wordpools/wordpool_categorized_EN.txt	WALNUT	Trees	6	8	[0, 0, 0]	n/a	catFR1	1	R1405E
882.15	0.966	884760	WORD_OFF	n/a	n/a	WALNUT	Trees	6	8	[0, 0, 0]	n/a	catFR1	1	R1405E
883.116	1.6	885729	WORD	n/a	wordpools/wordpool_categorized_EN.txt	MARBLES	Toys	7	8	[0, 0, 0]	n/a	catFR1	1	R1405E
884.733	0.95	887349	WORD_OFF	n/a	n/a	MARBLES	Toys	7	8	[0, 0, 0]	n/a	catFR1	1	R1405E
885.683	1.6	888295	WORD	n/a	wordpools/wordpool_categorized_EN.txt	DOLL	Toys	8	8	[0, 0, 0]	n/a	catFR1	1	R1405E
887.299	0.85	889914	WORD_OFF	n/a	n/a	DOLL	Toys	8	8	[0, 0, 0]	n/a	catFR1	1	R1405E
888.149	1.6	890769	WORD	n/a	wordpools/wordpool_categorized_EN.txt	BIRCH	Trees	9	8	[0, 0, 0]	n/a	catFR1	1	R1405E
889.766	0.85	892377	WORD_OFF	n/a	n/a	BIRCH	Trees	9	8	[0, 0, 0]	n/a	catFR1	1	R1405E
890.616	1.6	893232	WORD	n/a	wordpools/wordpool_categorized_EN.txt	OAK	Trees	10	8	[0, 0, 0]	n/a	catFR1	1	R1405E
892.232	0.85	894851	WORD_OFF	n/a	n/a	OAK	Trees	10	8	[0, 0, 0]	n/a	catFR1	1	R1405E
893.082	1.6	895695	WORD	n/a	wordpools/wordpool_categorized_EN.txt	CELLO	Instruments	11	8	[0, 0, 0]	n/a	catFR1	1	R1405E
894.682	0.867	897303	WORD_OFF	n/a	n/a	CELLO	Instruments	11	8	[0, 0, 0]	n/a	catFR1	1	R1405E
895.549	1.6	898169	WORD	n/a	wordpools/wordpool_categorized_EN.txt	GUITAR	Instruments	12	8	[0, 0, 0]	n/a	catFR1	1	R1405E
897.165	0.001	899777	WORD_OFF	n/a	n/a	GUITAR	Instruments	12	8	[0, 0, 0]	n/a	catFR1	1	R1405E
897.166	0.001	899781	PROB	2.532	n/a	n/a	n/a	-999	8	[2, 4, 6]	12.0	catFR1	1	R1405E
897.167	0.0	899782	START	n/a	n/a	n/a	n/a	-999	8	[-999, -999, -999]	n/a	catFR1	1	R1405E
897.167	0.0	899788	ENCODING_END	n/a	n/a	n/a	n/a	-999	8	[0, 0, 0]	n/a	catFR1	1	R1405E
897.167	2.549	899788	DISTRACT_START	n/a	n/a	n/a	n/a	-999	8	[0, 0, 0]	n/a	catFR1	1	R1405E
899.716	2.717	902331	PROB	2.699	n/a	n/a	n/a	-999	8	[4, 2, 2]	10.0	catFR1	1	R1405E
902.433	5.366	905048	PROB	5.349	n/a	n/a	n/a	-999	8	[6, 2, 8]	16.0	catFR1	1	R1405E
907.799	3.616	910414	PROB	3.599	n/a	n/a	n/a	-999	8	[8, 2, 2]	12.0	catFR1	1	R1405E
911.415	4.951	914030	PROB	4.933	n/a	n/a	n/a	-999	8	[4, 5, 8]	15.0	catFR1	1	R1405E
916.366	10.148	918981	PROB	10.131	n/a	n/a	n/a	-999	8	[6, 8, 6]	20.0	catFR1	1	R1405E
926.514	0.0	929127	DISTRACT_END	n/a	n/a	n/a	n/a	-999	8	[0, 0, 0]	n/a	catFR1	1	R1405E
926.514	2.333	929129	STOP	n/a	n/a	n/a	n/a	-999	8	[-999, -999, -999]	n/a	catFR1	1	R1405E
928.847	1.192	931461	REC_START	n/a	n/a	n/a	n/a	-999	8	[0, 0, 0]	n/a	catFR1	1	R1405E
930.039	15.925	932654	REC_WORD	1.192	n/a	GUITAR	Instruments	12	8	[0, 0, 0]	n/a	catFR1	1	R1405E
945.964	13.137	948579	REC_WORD	17.117	n/a	DRUM	Instruments	3	8	[0, 0, 0]	n/a	catFR1	1	R1405E
959.101	2.795	961714	REC_END	n/a	n/a	n/a	n/a	-999	8	[0, 0, 0]	n/a	catFR1	1	R1405E
961.896	10.0	964519	COUNTDOWN_START	n/a	n/a	n/a	n/a	-999	9	[0, 0, 0]	n/a	catFR1	1	R1405E
972.247	0.001	974861	COUNTDOWN_END	n/a	n/a	n/a	n/a	-999	9	[0, 0, 0]	n/a	catFR1	1	R1405E
972.248	2.032	974861	ENCODING_START	n/a	n/a	n/a	n/a	-999	9	[0, 0, 0]	n/a	catFR1	1	R1405E
974.28	1.6	976891	WORD	n/a	wordpools/wordpool_categorized_EN.txt	LOBSTER	OceanAnimals	1	9	[0, 0, 0]	n/a	catFR1	1	R1405E
975.88	0.9	978498	WORD_OFF	n/a	n/a	LOBSTER	OceanAnimals	1	9	[0, 0, 0]	n/a	catFR1	1	R1405E
976.78	1.6	979399	WORD	n/a	wordpools/wordpool_categorized_EN.txt	TURTLE	OceanAnimals	2	9	[0, 0, 0]	n/a	catFR1	1	R1405E
978.396	0.85	981018	WORD_OFF	n/a	n/a	TURTLE	OceanAnimals	2	9	[0, 0, 0]	n/a	catFR1	1	R1405E
979.246	1.6	981862	WORD	n/a	wordpools/wordpool_categorized_EN.txt	SHIRT	Clothing	3	9	[0, 0, 0]	n/a	catFR1	1	R1405E
980.846	0.766	983458	WORD_OFF	n/a	n/a	SHIRT	Clothing	3	9	[0, 0, 0]	n/a	catFR1	1	R1405E
981.612	1.6	984234	WORD	n/a	wordpools/wordpool_categorized_EN.txt	BLOUSE	Clothing	4	9	[0, 0, 0]	n/a	catFR1	1	R1405E
983.213	0.766	985830	WORD_OFF	n/a	n/a	BLOUSE	Clothing	4	9	[0, 0, 0]	n/a	catFR1	1	R1405E
983.979	1.6	986594	WORD	n/a	wordpools/wordpool_categorized_EN.txt	BEE	Insects	5	9	[0, 0, 0]	n/a	catFR1	1	R1405E
985.596	0.816	988213	WORD_OFF	n/a	n/a	BEE	Insects	5	9	[0, 0, 0]	n/a	catFR1	1	R1405E
986.412	1.6	989034	WORD	n/a	wordpools/wordpool_categorized_EN.txt	FLY	Insects	6	9	[0, 0, 0]	n/a	catFR1	1	R1405E
988.012	1.0	990630	WORD_OFF	n/a	n/a	FLY	Insects	6	9	[0, 0, 0]	n/a	catFR1	1	R1405E
989.012	1.6	991634	WORD	n/a	wordpools/wordpool_categorized_EN.txt	FISH	OceanAnimals	7	9	[0, 0, 0]	n/a	catFR1	1	R1405E
990.612	0.983	993230	WORD_OFF	n/a	n/a	FISH	OceanAnimals	7	9	[0, 0, 0]	n/a	catFR1	1	R1405E
991.595	1.6	994211	WORD	n/a	wordpools/wordpool_categorized_EN.txt	CRAB	OceanAnimals	8	9	[0, 0, 0]	n/a	catFR1	1	R1405E
993.195	1.0	995807	WORD_OFF	n/a	n/a	CRAB	OceanAnimals	8	9	[0, 0, 0]	n/a	catFR1	1	R1405E
994.195	1.6	996811	WORD	n/a	wordpools/wordpool_categorized_EN.txt	CRICKET	Insects	9	9	[0, 0, 0]	n/a	catFR1	1	R1405E
995.812	0.983	998430	WORD_OFF	n/a	n/a	CRICKET	Insects	9	9	[0, 0, 0]	n/a	catFR1	1	R1405E
996.795	1.6	999410	WORD	n/a	wordpools/wordpool_categorized_EN.txt	LADYBUG	Insects	10	9	[0, 0, 0]	n/a	catFR1	1	R1405E
998.395	0.783	1001007	WORD_OFF	n/a	n/a	LADYBUG	Insects	10	9	[0, 0, 0]	n/a	catFR1	1	R1405E
999.178	1.6	1001793	WORD	n/a	wordpools/wordpool_categorized_EN.txt	SOCKS	Clothing	11	9	[0, 0, 0]	n/a	catFR1	1	R1405E
1000.795	0.916	1003412	WORD_OFF	n/a	n/a	SOCKS	Clothing	11	9	[0, 0, 0]	n/a	catFR1	1	R1405E
1001.711	1.6	1004325	WORD	n/a	wordpools/wordpool_categorized_EN.txt	JEANS	Clothing	12	9	[0, 0, 0]	n/a	catFR1	1	R1405E
1003.313	0.0	1005928	START	n/a	n/a	n/a	n/a	-999	9	[-999, -999, -999]	n/a	catFR1	1	R1405E
1003.313	0.0	1005928	PROB	3.099	n/a	n/a	n/a	-999	9	[2, 3, 5]	10.0	catFR1	1	R1405E
1003.312	0.001	1005932	WORD_OFF	n/a	n/a	JEANS	Clothing	12	9	[0, 0, 0]	n/a	catFR1	1	R1405E
1003.313	0.0	1005932	ENCODING_END	n/a	n/a	n/a	n/a	-999	9	[0, 0, 0]	n/a	catFR1	1	R1405E
1003.313	3.116	1005932	DISTRACT_START	n/a	n/a	n/a	n/a	-999	9	[0, 0, 0]	n/a	catFR1	1	R1405E
1006.429	6.6	1009044	PROB	6.582	n/a	n/a	n/a	-999	9	[8, 7, 7]	23.0	catFR1	1	R1405E
1013.029	4.983	1015644	PROB	4.965	n/a	n/a	n/a	-999	9	[8, 7, 6]	21.0	catFR1	1	R1405E
1018.012	2.633	1020627	PROB	2.615	n/a	n/a	n/a	-999	9	[1, 6, 1]	8.0	catFR1	1	R1405E
1020.645	2.35	1023260	PROB	2.333	n/a	n/a	n/a	-999	9	[7, 3, 1]	11.0	catFR1	1	R1405E
1022.995	2.649	1025610	PROB	2.633	n/a	n/a	n/a	-999	9	[1, 4, 4]	9.0	catFR1	1	R1405E
1025.644	0.0	1028258	DISTRACT_END	n/a	n/a	n/a	n/a	-999	9	[0, 0, 0]	n/a	catFR1	1	R1405E
1025.644	2.217	1028259	STOP	n/a	n/a	n/a	n/a	-999	9	[-999, -999, -999]	n/a	catFR1	1	R1405E
1027.861	0.522	1030478	REC_START	n/a	n/a	n/a	n/a	-999	9	[0, 0, 0]	n/a	catFR1	1	R1405E
1028.383	1.459	1030998	REC_WORD	0.522	n/a	SOCKS	Clothing	11	9	[0, 0, 0]	n/a	catFR1	1	R1405E
1029.842	5.018	1032457	REC_WORD	1.981	n/a	LADYBUG	Insects	10	9	[0, 0, 0]	n/a	catFR1	1	R1405E
1034.86	3.162	1037475	REC_WORD	6.999	n/a	ANT	Insects	-999	9	[0, 0, 0]	n/a	catFR1	1	R1405E
1038.022	8.142	1040637	REC_WORD	10.161	n/a	AXE	Tools	-999	9	[0, 0, 0]	n/a	catFR1	1	R1405E
1046.164	11.972	1048779	REC_WORD	18.303	n/a	FISH	OceanAnimals	7	9	[0, 0, 0]	n/a	catFR1	1	R1405E
1058.136	6.041	1060755	REC_END	n/a	n/a	n/a	n/a	-999	9	[0, 0, 0]	n/a	catFR1	1	R1405E
1064.177	10.0	1066798	COUNTDOWN_START	n/a	n/a	n/a	n/a	-999	10	[0, 0, 0]	n/a	catFR1	1	R1405E
1074.526	0.0	1077140	COUNTDOWN_END	n/a	n/a	n/a	n/a	-999	10	[0, 0, 0]	n/a	catFR1	1	R1405E
1074.526	2.367	1077140	ENCODING_START	n/a	n/a	n/a	n/a	-999	10	[0, 0, 0]	n/a	catFR1	1	R1405E
1076.893	1.6	1079511	WORD	n/a	wordpools/wordpool_categorized_EN.txt	COOKIE	Desserts	1	10	[0, 0, 0]	n/a	catFR1	1	R1405E
1078.509	0.933	1081130	WORD_OFF	n/a	n/a	COOKIE	Desserts	1	10	[0, 0, 0]	n/a	catFR1	1	R1405E
1079.442	1.6	1082054	WORD	n/a	wordpools/wordpool_categorized_EN.txt	JELLO	Desserts	2	10	[0, 0, 0]	n/a	catFR1	1	R1405E
1081.042	0.833	1083662	WORD_OFF	n/a	n/a	JELLO	Desserts	2	10	[0, 0, 0]	n/a	catFR1	1	R1405E
1081.875	1.6	1084494	WORD	n/a	wordpools/wordpool_categorized_EN.txt	LILY	Flowers	3	10	[0, 0, 0]	n/a	catFR1	1	R1405E
1083.494	0.965	1086113	WORD_OFF	n/a	n/a	LILY	Flowers	3	10	[0, 0, 0]	n/a	catFR1	1	R1405E
1084.459	1.6	1087071	WORD	n/a	wordpools/wordpool_categorized_EN.txt	VIOLET	Flowers	4	10	[0, 0, 0]	n/a	catFR1	1	R1405E
1086.075	1.0	1088690	WORD_OFF	n/a	n/a	VIOLET	Flowers	4	10	[0, 0, 0]	n/a	catFR1	1	R1405E
1087.075	1.6	1089694	WORD	n/a	wordpools/wordpool_categorized_EN.txt	BEACH	Landscapes	5	10	[0, 0, 0]	n/a	catFR1	1	R1405E
1088.675	0.883	1091290	WORD_OFF	n/a	n/a	BEACH	Landscapes	5	10	[0, 0, 0]	n/a	catFR1	1	R1405E
1089.558	1.6	1092179	WORD	n/a	wordpools/wordpool_categorized_EN.txt	FOREST	Landscapes	6	10	[0, 0, 0]	n/a	catFR1	1	R1405E
1091.175	0.917	1093787	WORD_OFF	n/a	n/a	FOREST	Landscapes	6	10	[0, 0, 0]	n/a	catFR1	1	R1405E
1092.092	1.6	1094711	WORD	n/a	wordpools/wordpool_categorized_EN.txt	SUNFLOWER	Flowers	7	10	[0, 0, 0]	n/a	catFR1	1	R1405E
1093.691	0.867	1096307	WORD_OFF	n/a	n/a	SUNFLOWER	Flowers	7	10	[0, 0, 0]	n/a	catFR1	1	R1405E
1094.558	1.6	1097173	WORD	n/a	wordpools/wordpool_categorized_EN.txt	ROSE	Flowers	8	10	[0, 0, 0]	n/a	catFR1	1	R1405E
1096.158	1.001	1098770	WORD_OFF	n/a	n/a	ROSE	Flowers	8	10	[0, 0, 0]	n/a	catFR1	1	R1405E
1097.159	1.6	1099773	WORD	n/a	wordpools/wordpool_categorized_EN.txt	LAKE	Landscapes	9	10	[0, 0, 0]	n/a	catFR1	1	R1405E
1098.775	0.967	1101392	WORD_OFF	n/a	n/a	LAKE	Landscapes	9	10	[0, 0, 0]	n/a	catFR1	1	R1405E
1099.742	1.6	1102362	WORD	n/a	wordpools/wordpool_categorized_EN.txt	STREAM	Landscapes	10	10	[0, 0, 0]	n/a	catFR1	1	R1405E
1101.342	0.916	1103958	WORD_OFF	n/a	n/a	STREAM	Landscapes	10	10	[0, 0, 0]	n/a	catFR1	1	R1405E
1102.258	1.6	1104870	WORD	n/a	wordpools/wordpool_categorized_EN.txt	PUDDING	Desserts	11	10	[0, 0, 0]	n/a	catFR1	1	R1405E
1103.874	0.817	1106489	WORD_OFF	n/a	n/a	PUDDING	Desserts	11	10	[0, 0, 0]	n/a	catFR1	1	R1405E
1104.691	1.6	1107310	WORD	n/a	wordpools/wordpool_categorized_EN.txt	CAKE	Desserts	12	10	[0, 0, 0]	n/a	catFR1	1	R1405E
1106.309	0.001	1108924	PROB	3.182	n/a	n/a	n/a	-999	10	[1, 4, 8]	13.0	catFR1	1	R1405E
1106.31	0.0	1108925	START	n/a	n/a	n/a	n/a	-999	10	[-999, -999, -999]	n/a	catFR1	1	R1405E
1106.308	0.002	1108929	WORD_OFF	n/a	n/a	CAKE	Desserts	12	10	[0, 0, 0]	n/a	catFR1	1	R1405E
1106.31	0.0	1108929	ENCODING_END	n/a	n/a	n/a	n/a	-999	10	[0, 0, 0]	n/a	catFR1	1	R1405E
1106.31	3.198	1108929	DISTRACT_START	n/a	n/a	n/a	n/a	-999	10	[0, 0, 0]	n/a	catFR1	1	R1405E
1109.508	2.984	1112123	PROB	2.967	n/a	n/a	n/a	-999	10	[3, 2, 1]	6.0	catFR1	1	R1405E
1112.492	3.832	1115107	PROB	3.816	n/a	n/a	n/a	-999	10	[2, 2, 4]	10.0	catFR1	1	R1405E
1116.324	5.484	1118939	PROB	5.467	n/a	n/a	n/a	-999	10	[6, 8, 8]	22.0	catFR1	1	R1405E
1121.808	1.8	1124423	PROB	1.783	n/a	n/a	n/a	-999	10	[3, 3, 1]	7.0	catFR1	1	R1405E
1123.608	4.2	1126223	PROB	4.183	n/a	n/a	n/a	-999	10	[7, 8, 5]	20.0	catFR1	1	R1405E
1127.808	0.0	1130423	DISTRACT_END	n/a	n/a	n/a	n/a	-999	10	[0, 0, 0]	n/a	catFR1	1	R1405E
1127.808	2.016	1130423	STOP	n/a	n/a	n/a	n/a	-999	10	[-999, -999, -999]	n/a	catFR1	1	R1405E
1129.824	0.583	1132437	REC_START	n/a	n/a	n/a	n/a	-999	10	[0, 0, 0]	n/a	catFR1	1	R1405E
1130.407	3.437	1133022	REC_WORD	0.583	n/a	STREAM	Landscapes	10	10	[0, 0, 0]	n/a	catFR1	1	R1405E
1133.844	2.657	1136459	REC_WORD	4.02	n/a	LAKE	Landscapes	9	10	[0, 0, 0]	n/a	catFR1	1	R1405E
1136.501	23.587	1139116	REC_WORD	6.677	n/a	COOKIE	Desserts	1	10	[0, 0, 0]	n/a	catFR1	1	R1405E
1160.088	6.271	1162702	REC_END	n/a	n/a	n/a	n/a	-999	10	[0, 0, 0]	n/a	catFR1	1	R1405E
1166.359	10.0	1168974	COUNTDOWN_START	n/a	n/a	n/a	n/a	-999	11	[0, 0, 0]	n/a	catFR1	1	R1405E
1176.706	0.0	1179327	COUNTDOWN_END	n/a	n/a	n/a	n/a	-999	11	[0, 0, 0]	n/a	catFR1	1	R1405E
1176.706	328.512	1179327	ENCODING_START	n/a	n/a	n/a	n/a	-999	11	[0, 0, 0]	n/a	catFR1	1	R1405E
1505.218	1.6	1507838	WORD	n/a	wordpools/wordpool_categorized_EN.txt	FOOTBALL	Toys	1	11	[0, 0, 0]	n/a	catFR1	1	R1405E
1506.834	0.967	1509446	WORD_OFF	n/a	n/a	FOOTBALL	Toys	1	11	[0, 0, 0]	n/a	catFR1	1	R1405E
1507.801	1.6	1510415	WORD	n/a	wordpools/wordpool_categorized_EN.txt	FRISBEE	Toys	2	11	[0, 0, 0]	n/a	catFR1	1	R1405E
1509.417	0.902	1512034	WORD_OFF	n/a	n/a	FRISBEE	Toys	2	11	[0, 0, 0]	n/a	catFR1	1	R1405E
1510.319	1.6	1512935	WORD	n/a	wordpools/wordpool_categorized_EN.txt	GRAPE	Fruit	3	11	[0, 0, 0]	n/a	catFR1	1	R1405E
1511.934	0.799	1514554	WORD_OFF	n/a	n/a	GRAPE	Fruit	3	11	[0, 0, 0]	n/a	catFR1	1	R1405E
1512.733	1.6	1515352	WORD	n/a	wordpools/wordpool_categorized_EN.txt	APPLE	Fruit	4	11	[0, 0, 0]	n/a	catFR1	1	R1405E
1514.333	0.851	1516949	WORD_OFF	n/a	n/a	APPLE	Fruit	4	11	[0, 0, 0]	n/a	catFR1	1	R1405E
1515.184	1.6	1517804	WORD	n/a	wordpools/wordpool_categorized_EN.txt	COAT	Clothing	5	11	[0, 0, 0]	n/a	catFR1	1	R1405E
1516.784	0.883	1519400	WORD_OFF	n/a	n/a	COAT	Clothing	5	11	[0, 0, 0]	n/a	catFR1	1	R1405E
1517.667	1.6	1520278	WORD	n/a	wordpools/wordpool_categorized_EN.txt	SHORTS	Clothing	6	11	[0, 0, 0]	n/a	catFR1	1	R1405E
1519.284	0.85	1521897	WORD_OFF	n/a	n/a	SHORTS	Clothing	6	11	[0, 0, 0]	n/a	catFR1	1	R1405E
1520.134	1.6	1522753	WORD	n/a	wordpools/wordpool_categorized_EN.txt	CHERRY	Fruit	7	11	[0, 0, 0]	n/a	catFR1	1	R1405E
1521.75	0.767	1524372	WORD_OFF	n/a	n/a	CHERRY	Fruit	7	11	[0, 0, 0]	n/a	catFR1	1	R1405E
1522.517	1.6	1525136	WORD	n/a	wordpools/wordpool_categorized_EN.txt	LEMON	Fruit	8	11	[0, 0, 0]	n/a	catFR1	1	R1405E
1524.133	0.867	1526755	WORD_OFF	n/a	n/a	LEMON	Fruit	8	11	[0, 0, 0]	n/a	catFR1	1	R1405E
1525.0	1.6	1527621	WORD	n/a	wordpools/wordpool_categorized_EN.txt	UNDERWEAR	Clothing	9	11	[0, 0, 0]	n/a	catFR1	1	R1405E
1526.618	0.983	1529229	WORD_OFF	n/a	n/a	UNDERWEAR	Clothing	9	11	[0, 0, 0]	n/a	catFR1	1	R1405E
1527.601	1.6	1530221	WORD	n/a	wordpools/wordpool_categorized_EN.txt	SHOES	Clothing	10	11	[0, 0, 0]	n/a	catFR1	1	R1405E
1529.201	1.0	1531817	WORD_OFF	n/a	n/a	SHOES	Clothing	10	11	[0, 0, 0]	n/a	catFR1	1	R1405E
1530.201	1.6	1532821	WORD	n/a	wordpools/wordpool_categorized_EN.txt	BARBIE	Toys	11	11	[0, 0, 0]	n/a	catFR1	1	R1405E
1531.817	0.9	1534429	WORD_OFF	n/a	n/a	BARBIE	Toys	11	11	[0, 0, 0]	n/a	catFR1	1	R1405E
1532.717	1.6	1535341	WORD	n/a	wordpools/wordpool_categorized_EN.txt	SLINKY	Toys	12	11	[0, 0, 0]	n/a	catFR1	1	R1405E
1534.318	0.001	1536934	PROB	3.949	n/a	n/a	n/a	-999	11	[7, 3, 5]	15.0	catFR1	1	R1405E
1534.319	0.0	1536935	START	n/a	n/a	n/a	n/a	-999	11	[-999, -999, -999]	n/a	catFR1	1	R1405E
1534.317	0.002	1536937	WORD_OFF	n/a	n/a	SLINKY	Toys	12	11	[0, 0, 0]	n/a	catFR1	1	R1405E
1534.319	0.0	1536937	ENCODING_END	n/a	n/a	n/a	n/a	-999	11	[0, 0, 0]	n/a	catFR1	1	R1405E
1534.319	3.965	1536937	DISTRACT_START	n/a	n/a	n/a	n/a	-999	11	[0, 0, 0]	n/a	catFR1	1	R1405E
1538.284	6.5	1540900	PROB	6.483	n/a	n/a	n/a	-999	11	[3, 4, 4]	11.0	catFR1	1	R1405E
1544.784	3.967	1547400	PROB	3.949	n/a	n/a	n/a	-999	11	[4, 8, 8]	20.0	catFR1	1	R1405E
1548.751	5.416	1551367	PROB	5.399	n/a	n/a	n/a	-999	11	[7, 4, 8]	17.0	catFR1	1	R1405E
1554.167	3.499	1556783	PROB	3.483	n/a	n/a	n/a	-999	11	[8, 1, 7]	16.0	catFR1	1	R1405E
1557.666	0.0	1560278	DISTRACT_END	n/a	n/a	n/a	n/a	-999	11	[0, 0, 0]	n/a	catFR1	1	R1405E
1557.666	2.067	1560282	STOP	n/a	n/a	n/a	n/a	-999	11	[-999, -999, -999]	n/a	catFR1	1	R1405E
1559.733	2.967	1562349	REC_START	n/a	n/a	n/a	n/a	-999	11	[0, 0, 0]	n/a	catFR1	1	R1405E
1562.7	3.045	1565316	REC_WORD	2.967	n/a	JELLO	Desserts	-999	11	[0, 0, 0]	n/a	catFR1	1	R1405E
1565.745	2.607	1568361	REC_WORD	6.012	n/a	FOOTBALL	Toys	1	11	[0, 0, 0]	n/a	catFR1	1	R1405E
1568.352	9.656	1570968	REC_WORD	8.619	n/a	LEMON	Fruit	8	11	[0, 0, 0]	n/a	catFR1	1	R1405E
1578.008	4.913	1580624	REC_WORD	18.275	n/a	SLINKY	Toys	12	11	[0, 0, 0]	n/a	catFR1	1	R1405E
1582.921	7.059	1585537	REC_WORD	23.188	n/a	PANTS	Clothing	-999	11	[0, 0, 0]	n/a	catFR1	1	R1405E
1589.98	6.084	1592592	REC_END	n/a	n/a	n/a	n/a	-999	11	[0, 0, 0]	n/a	catFR1	1	R1405E
1596.064	10.0	1598680	COUNTDOWN_START	n/a	n/a	n/a	n/a	-999	12	[0, 0, 0]	n/a	catFR1	1	R1405E
1606.415	0.0	1609034	COUNTDOWN_END	n/a	n/a	n/a	n/a	-999	12	[0, 0, 0]	n/a	catFR1	1	R1405E
1606.415	2.252	1609034	ENCODING_START	n/a	n/a	n/a	n/a	-999	12	[0, 0, 0]	n/a	catFR1	1	R1405E
1608.667	1.6	1611280	WORD	n/a	wordpools/wordpool_categorized_EN.txt	SPIDER	Insects	1	12	[0, 0, 0]	n/a	catFR1	1	R1405E
1610.264	0.984	1612876	WORD_OFF	n/a	n/a	SPIDER	Insects	1	12	[0, 0, 0]	n/a	catFR1	1	R1405E
1611.248	1.6	1613868	WORD	n/a	wordpools/wordpool_categorized_EN.txt	BUTTERFLY	Insects	2	12	[0, 0, 0]	n/a	catFR1	1	R1405E
1612.864	0.799	1615476	WORD_OFF	n/a	n/a	BUTTERFLY	Insects	2	12	[0, 0, 0]	n/a	catFR1	1	R1405E
1613.663	1.6	1616286	WORD	n/a	wordpools/wordpool_categorized_EN.txt	DOVE	Birds	3	12	[0, 0, 0]	n/a	catFR1	1	R1405E
1615.264	0.933	1617882	WORD_OFF	n/a	n/a	DOVE	Birds	3	12	[0, 0, 0]	n/a	catFR1	1	R1405E
1616.197	1.6	1618817	WORD	n/a	wordpools/wordpool_categorized_EN.txt	FINCH	Birds	4	12	[0, 0, 0]	n/a	catFR1	1	R1405E
1617.814	0.883	1620436	WORD_OFF	n/a	n/a	FINCH	Birds	4	12	[0, 0, 0]	n/a	catFR1	1	R1405E
1618.697	1.6	1621314	WORD	n/a	wordpools/wordpool_categorized_EN.txt	WOODS	Landscapes	5	12	[0, 0, 0]	n/a	catFR1	1	R1405E
1620.297	0.867	1622910	WORD_OFF	n/a	n/a	WOODS	Landscapes	5	12	[0, 0, 0]	n/a	catFR1	1	R1405E
1621.164	1.6	1623777	WORD	n/a	wordpools/wordpool_categorized_EN.txt	OCEAN	Landscapes	6	12	[0, 0, 0]	n/a	catFR1	1	R1405E
1622.781	0.95	1625396	WORD_OFF	n/a	n/a	OCEAN	Landscapes	6	12	[0, 0, 0]	n/a	catFR1	1	R1405E
1623.731	1.6	1626342	WORD	n/a	wordpools/wordpool_categorized_EN.txt	DUCK	Birds	7	12	[0, 0, 0]	n/a	catFR1	1	R1405E
1625.331	0.9	1627950	WORD_OFF	n/a	n/a	DUCK	Birds	7	12	[0, 0, 0]	n/a	catFR1	1	R1405E
1626.231	1.6	1628851	WORD	n/a	wordpools/wordpool_categorized_EN.txt	CARDINAL	Birds	8	12	[0, 0, 0]	n/a	catFR1	1	R1405E
1627.847	0.9	1630459	WORD_OFF	n/a	n/a	CARDINAL	Birds	8	12	[0, 0, 0]	n/a	catFR1	1	R1405E
1628.747	1.6	1631359	WORD	n/a	wordpools/wordpool_categorized_EN.txt	MOUNTAIN	Landscapes	9	12	[0, 0, 0]	n/a	catFR1	1	R1405E
1630.347	0.934	1632967	WORD_OFF	n/a	n/a	MOUNTAIN	Landscapes	9	12	[0, 0, 0]	n/a	catFR1	1	R1405E
1631.281	1.6	1633902	WORD	n/a	wordpools/wordpool_categorized_EN.txt	RIVER	Landscapes	10	12	[0, 0, 0]	n/a	catFR1	1	R1405E
1632.897	0.817	1635510	WORD_OFF	n/a	n/a	RIVER	Landscapes	10	12	[0, 0, 0]	n/a	catFR1	1	R1405E
1633.714	1.6	1636331	WORD	n/a	wordpools/wordpool_categorized_EN.txt	GNAT	Insects	11	12	[0, 0, 0]	n/a	catFR1	1	R1405E
1635.33	0.917	1637950	WORD_OFF	n/a	n/a	GNAT	Insects	11	12	[0, 0, 0]	n/a	catFR1	1	R1405E
1636.247	1.6	1638862	WORD	n/a	wordpools/wordpool_categorized_EN.txt	MOTH	Insects	12	12	[0, 0, 0]	n/a	catFR1	1	R1405E
1637.847	0.0	1640458	WORD_OFF	n/a	n/a	MOTH	Insects	12	12	[0, 0, 0]	n/a	catFR1	1	R1405E
1637.847	0.001	1640463	PROB	2.733	n/a	n/a	n/a	-999	12	[7, 1, 3]	11.0	catFR1	1	R1405E
1637.848	0.0	1640464	START	n/a	n/a	n/a	n/a	-999	12	[-999, -999, -999]	n/a	catFR1	1	R1405E
1637.848	0.0	1640470	ENCODING_END	n/a	n/a	n/a	n/a	-999	12	[0, 0, 0]	n/a	catFR1	1	R1405E
1637.848	2.752	1640470	DISTRACT_START	n/a	n/a	n/a	n/a	-999	12	[0, 0, 0]	n/a	catFR1	1	R1405E
1640.6	3.23	1643216	PROB	3.216	n/a	n/a	n/a	-999	12	[7, 4, 2]	13.0	catFR1	1	R1405E
1643.83	3.717	1646446	PROB	3.7	n/a	n/a	n/a	-999	12	[1, 2, 5]	8.0	catFR1	1	R1405E
1647.547	1.934	1650163	PROB	1.916	n/a	n/a	n/a	-999	12	[5, 4, 2]	11.0	catFR1	1	R1405E
1649.481	1.816	1652097	PROB	1.799	n/a	n/a	n/a	-999	12	[1, 6, 5]	12.0	catFR1	1	R1405E
1651.297	2.4	1653913	PROB	2.383	n/a	n/a	n/a	-999	12	[4, 8, 2]	14.0	catFR1	1	R1405E
1653.697	2.565	1656313	PROB	2.549	n/a	n/a	n/a	-999	12	[2, 5, 6]	13.0	catFR1	1	R1405E
1656.262	10.3	1658878	PROB	10.283	n/a	n/a	n/a	-999	12	[5, 3, 3]	12.0	catFR1	1	R1405E
1666.562	0.0	1669178	STOP	n/a	n/a	n/a	n/a	-999	12	[-999, -999, -999]	n/a	catFR1	1	R1405E
1666.562	2.084	1669181	DISTRACT_END	n/a	n/a	n/a	n/a	-999	12	[0, 0, 0]	n/a	catFR1	1	R1405E
1668.646	1.807	1671264	REC_START	n/a	n/a	n/a	n/a	-999	12	[0, 0, 0]	n/a	catFR1	1	R1405E
1670.453	1.994	1673069	REC_WORD	1.807	n/a	COOK	n/a	-999	12	[0, 0, 0]	n/a	catFR1	1	R1405E
1672.447	3.913	1675063	REC_WORD	3.801	n/a	LEMON	Fruit	-999	12	[0, 0, 0]	n/a	catFR1	1	R1405E
1676.36	2.263	1678976	REC_WORD	7.714	n/a	MOUNTAIN	Landscapes	9	12	[0, 0, 0]	n/a	catFR1	1	R1405E
1678.623	6.768	1681239	REC_WORD	9.977	n/a	GNAT	Insects	11	12	[0, 0, 0]	n/a	catFR1	1	R1405E
1685.391	4.513	1688007	REC_WORD	16.745	n/a	OCEAN	Landscapes	6	12	[0, 0, 0]	n/a	catFR1	1	R1405E
1689.904	8.999	1692520	REC_WORD	21.258	n/a	SPIDER	Insects	1	12	[0, 0, 0]	n/a	catFR1	1	R1405E
1698.903	0.0	1701518	REC_END	n/a	n/a	n/a	n/a	-999	12	[0, 0, 0]	n/a	catFR1	1	R1405E
