onset	duration	sample	trial_type	response_time	stim_file	item_name	category	serialpos	list	test	answer	experiment	session	subject
0.0	16.049	5696	INSTRUCT_START	n/a	n/a	n/a	n/a	-999	-999	[0, 0, 0]	n/a	catFR1	2	R1515T
16.049	44.733	21735	INSTRUCT_END	n/a	n/a	n/a	n/a	-999	-999	[0, 0, 0]	n/a	catFR1	2	R1515T
60.782	10.349	66473	COUNTDOWN_START	n/a	n/a	n/a	n/a	-999	-999	[0, 0, 0]	n/a	catFR1	2	R1515T
71.131	0.0	76816	COUNTDOWN_END	n/a	n/a	n/a	n/a	-999	-999	[0, 0, 0]	n/a	catFR1	2	R1515T
71.131	2.051	76816	ENCODING_START	n/a	n/a	n/a	n/a	-999	-1	[0, 0, 0]	n/a	catFR1	2	R1515T
73.182	1.616	78868	WORD	n/a	n/a	CHICKEN	FarmAnimals	1	-1	[0, 0, 0]	n/a	catFR1	2	R1515T
74.798	0.816	80479	WORD_OFF	n/a	n/a	CHICKEN	FarmAnimals	1	-1	[0, 0, 0]	n/a	catFR1	2	R1515T
75.614	1.6	81304	WORD	n/a	n/a	BULL	FarmAnimals	2	-1	[0, 0, 0]	n/a	catFR1	2	R1515T
77.214	0.85	82905	WORD_OFF	n/a	n/a	BULL	FarmAnimals	2	-1	[0, 0, 0]	n/a	catFR1	2	R1515T
78.064	1.6	83750	WORD	n/a	n/a	DOLL	Toys	3	-1	[0, 0, 0]	n/a	catFR1	2	R1515T
79.664	0.784	85351	WORD_OFF	n/a	n/a	DOLL	Toys	3	-1	[0, 0, 0]	n/a	catFR1	2	R1515T
80.448	1.617	86136	WORD	n/a	n/a	SLINKY	Toys	4	-1	[0, 0, 0]	n/a	catFR1	2	R1515T
82.065	0.816	87747	WORD_OFF	n/a	n/a	SLINKY	Toys	4	-1	[0, 0, 0]	n/a	catFR1	2	R1515T
82.881	1.6	88562	WORD	n/a	n/a	VIOLIN	Instruments	5	-1	[0, 0, 0]	n/a	catFR1	2	R1515T
84.481	0.967	90163	WORD_OFF	n/a	n/a	VIOLIN	Instruments	5	-1	[0, 0, 0]	n/a	catFR1	2	R1515T
85.448	1.6	91136	WORD	n/a	n/a	CELLO	Instruments	6	-1	[0, 0, 0]	n/a	catFR1	2	R1515T
87.048	0.833	92737	WORD_OFF	n/a	n/a	CELLO	Instruments	6	-1	[0, 0, 0]	n/a	catFR1	2	R1515T
87.881	1.601	93562	WORD	n/a	n/a	PUZZLE	Toys	7	-1	[0, 0, 0]	n/a	catFR1	2	R1515T
89.482	0.9	95163	WORD_OFF	n/a	n/a	PUZZLE	Toys	7	-1	[0, 0, 0]	n/a	catFR1	2	R1515T
90.382	1.616	96066	WORD	n/a	n/a	FRISBEE	Toys	8	-1	[0, 0, 0]	n/a	catFR1	2	R1515T
91.998	0.884	97687	WORD_OFF	n/a	n/a	FRISBEE	Toys	8	-1	[0, 0, 0]	n/a	catFR1	2	R1515T
92.882	1.616	98571	WORD	n/a	n/a	HORSE	FarmAnimals	9	-1	[0, 0, 0]	n/a	catFR1	2	R1515T
94.498	0.934	100182	WORD_OFF	n/a	n/a	HORSE	FarmAnimals	9	-1	[0, 0, 0]	n/a	catFR1	2	R1515T
95.432	1.616	101115	WORD	n/a	n/a	COW	FarmAnimals	10	-1	[0, 0, 0]	n/a	catFR1	2	R1515T
97.048	0.8	102735	WORD_OFF	n/a	n/a	COW	FarmAnimals	10	-1	[0, 0, 0]	n/a	catFR1	2	R1515T
97.848	1.617	103531	WORD	n/a	n/a	GUITAR	Instruments	11	-1	[0, 0, 0]	n/a	catFR1	2	R1515T
99.465	0.8	105151	WORD_OFF	n/a	n/a	GUITAR	Instruments	11	-1	[0, 0, 0]	n/a	catFR1	2	R1515T
100.265	1.616	105947	WORD	n/a	n/a	TUBA	Instruments	12	-1	[0, 0, 0]	n/a	catFR1	2	R1515T
101.881	0.002	107568	WORD_OFF	n/a	n/a	TUBA	Instruments	12	-1	[0, 0, 0]	n/a	catFR1	2	R1515T
101.883	0.0	107568	ENCODING_END	n/a	n/a	n/a	n/a	-999	-1	[0, 0, 0]	n/a	catFR1	2	R1515T
101.883	0.0	107568	DISTRACT_START	n/a	n/a	n/a	n/a	-999	-1	[0, 0, 0]	n/a	catFR1	2	R1515T
101.882	0.001	107570	PROB	0.001	n/a	n/a	n/a	-999	-1	[5, 3, 4]	12	catFR1	2	R1515T
101.883	3.514	107571	START	n/a	n/a	n/a	n/a	-999	-1	[-999, -999, -999]	n/a	catFR1	2	R1515T
105.397	3.317	111085	PROB	3.317	n/a	n/a	n/a	-999	-1	[1, 8, 2]	11	catFR1	2	R1515T
108.714	2.301	114402	PROB	2.301	n/a	n/a	n/a	-999	-1	[8, 2, 2]	12	catFR1	2	R1515T
111.015	2.317	116703	PROB	2.317	n/a	n/a	n/a	-999	-1	[3, 1, 1]	5	catFR1	2	R1515T
113.332	2.484	119019	PROB	2.484	n/a	n/a	n/a	-999	-1	[5, 1, 6]	12	catFR1	2	R1515T
115.816	5.282	121503	PROB	5.282	n/a	n/a	n/a	-999	-1	[6, 8, 4]	16	catFR1	2	R1515T
121.098	6.483	126785	PROB	6.483	n/a	n/a	n/a	-999	-1	[8, 3, 2]	13	catFR1	2	R1515T
127.581	0.0	133261	DISTRACT_END	n/a	n/a	n/a	n/a	-999	-1	[0, 0, 0]	n/a	catFR1	2	R1515T
127.581	1.101	133268	STOP	n/a	n/a	n/a	n/a	-999	-1	[-999, -999, -999]	n/a	catFR1	2	R1515T
128.682	1.51	134361	REC_START	n/a	n/a	n/a	n/a	-999	-1	[0, 0, 0]	n/a	catFR1	2	R1515T
130.192	1.411	135879	REC_WORD	1.411	n/a	CELLO	Instruments	6	-1	[0, 0, 0]	n/a	catFR1	2	R1515T
131.603	1.162	137290	REC_WORD	1.162	n/a	VIOLIN	Instruments	5	-1	[0, 0, 0]	n/a	catFR1	2	R1515T
132.765	1.756	138451	REC_WORD	1.756	n/a	TUBA	Instruments	12	-1	[0, 0, 0]	n/a	catFR1	2	R1515T
134.521	0.633	140207	REC_WORD	0.633	n/a	DOLL	Toys	3	-1	[0, 0, 0]	n/a	catFR1	2	R1515T
135.154	1.174	140840	REC_WORD	1.174	n/a	SLINKY	Toys	4	-1	[0, 0, 0]	n/a	catFR1	2	R1515T
136.328	3.291	142014	REC_WORD	3.291	n/a	FRISBEE	Toys	8	-1	[0, 0, 0]	n/a	catFR1	2	R1515T
139.619	1.154	145305	REC_WORD	1.154	n/a	BULL	FarmAnimals	2	-1	[0, 0, 0]	n/a	catFR1	2	R1515T
140.773	0.885	146459	REC_WORD	0.885	n/a	COW	FarmAnimals	10	-1	[0, 0, 0]	n/a	catFR1	2	R1515T
141.658	1.0	147344	REC_WORD	1.0	n/a	HORSE	FarmAnimals	9	-1	[0, 0, 0]	n/a	catFR1	2	R1515T
142.658	3.892	148344	REC_WORD	3.892	n/a	HORSE	FarmAnimals	9	-1	[0, 0, 0]	n/a	catFR1	2	R1515T
146.55	1.0	152236	REC_WORD_VV	1.0	n/a	<>	n/a	-999	-1	[0, 0, 0]	n/a	catFR1	2	R1515T
147.55	7.816	153236	REC_WORD_VV	7.816	n/a	<>	n/a	-999	-1	[0, 0, 0]	n/a	catFR1	2	R1515T
155.366	1.0	161051	REC_WORD_VV	1.0	n/a	<>	n/a	-999	-1	[0, 0, 0]	n/a	catFR1	2	R1515T
156.366	0.349	162051	REC_WORD_VV	0.349	n/a	<>	n/a	-999	-1	[0, 0, 0]	n/a	catFR1	2	R1515T
156.715	3.157	162400	REC_WORD	3.157	n/a	CELLO	Instruments	6	-1	[0, 0, 0]	n/a	catFR1	2	R1515T
159.872	8.841	165555	REC_END	n/a	n/a	n/a	n/a	-999	-1	[0, 0, 0]	n/a	catFR1	2	R1515T
168.713	10.351	174395	COUNTDOWN_START	n/a	n/a	n/a	n/a	-999	1	[0, 0, 0]	n/a	catFR1	2	R1515T
179.064	0.0	184747	COUNTDOWN_END	n/a	n/a	n/a	n/a	-999	1	[0, 0, 0]	n/a	catFR1	2	R1515T
179.064	2.034	184747	ENCODING_START	n/a	n/a	n/a	n/a	-999	1	[0, 0, 0]	n/a	catFR1	2	R1515T
181.098	1.617	186780	WORD	n/a	wordpools/wordpool_categorized_EN.txt	TABLET	Electronics	1	1	[0, 0, 0]	n/a	catFR1	2	R1515T
182.715	0.916	188391	WORD_OFF	n/a	n/a	TABLET	Electronics	1	1	[0, 0, 0]	n/a	catFR1	2	R1515T
183.631	1.616	189314	WORD	n/a	wordpools/wordpool_categorized_EN.txt	SPEAKER	Electronics	2	1	[0, 0, 0]	n/a	catFR1	2	R1515T
185.247	0.951	190925	WORD_OFF	n/a	n/a	SPEAKER	Electronics	2	1	[0, 0, 0]	n/a	catFR1	2	R1515T
186.198	1.6	191878	WORD	n/a	wordpools/wordpool_categorized_EN.txt	WRENCH	Tools	3	1	[0, 0, 0]	n/a	catFR1	2	R1515T
187.798	0.816	193488	WORD_OFF	n/a	n/a	WRENCH	Tools	3	1	[0, 0, 0]	n/a	catFR1	2	R1515T
188.614	1.601	194294	WORD	n/a	wordpools/wordpool_categorized_EN.txt	CROWBAR	Tools	4	1	[0, 0, 0]	n/a	catFR1	2	R1515T
190.215	0.867	195895	WORD_OFF	n/a	n/a	CROWBAR	Tools	4	1	[0, 0, 0]	n/a	catFR1	2	R1515T
191.082	1.615	196759	WORD	n/a	wordpools/wordpool_categorized_EN.txt	PENCIL	OfficeSupplies	5	1	[0, 0, 0]	n/a	catFR1	2	R1515T
192.697	0.851	198380	WORD_OFF	n/a	n/a	PENCIL	OfficeSupplies	5	1	[0, 0, 0]	n/a	catFR1	2	R1515T
193.548	1.617	199224	WORD	n/a	wordpools/wordpool_categorized_EN.txt	GLUE	OfficeSupplies	6	1	[0, 0, 0]	n/a	catFR1	2	R1515T
195.165	0.766	200845	WORD_OFF	n/a	n/a	GLUE	OfficeSupplies	6	1	[0, 0, 0]	n/a	catFR1	2	R1515T
195.931	1.617	201611	WORD	n/a	wordpools/wordpool_categorized_EN.txt	RADIO	Electronics	7	1	[0, 0, 0]	n/a	catFR1	2	R1515T
197.548	0.883	203232	WORD_OFF	n/a	n/a	RADIO	Electronics	7	1	[0, 0, 0]	n/a	catFR1	2	R1515T
198.431	1.601	204106	WORD	n/a	wordpools/wordpool_categorized_EN.txt	CALCULATOR	Electronics	8	1	[0, 0, 0]	n/a	catFR1	2	R1515T
200.032	0.933	205707	WORD_OFF	n/a	n/a	CALCULATOR	Electronics	8	1	[0, 0, 0]	n/a	catFR1	2	R1515T
200.965	1.617	206650	WORD	n/a	wordpools/wordpool_categorized_EN.txt	LEVEL	Tools	9	1	[0, 0, 0]	n/a	catFR1	2	R1515T
202.582	0.983	208260	WORD_OFF	n/a	n/a	LEVEL	Tools	9	1	[0, 0, 0]	n/a	catFR1	2	R1515T
203.565	1.6	209243	WORD	n/a	wordpools/wordpool_categorized_EN.txt	HAMMER	Tools	10	1	[0, 0, 0]	n/a	catFR1	2	R1515T
205.165	0.867	210844	WORD_OFF	n/a	n/a	HAMMER	Tools	10	1	[0, 0, 0]	n/a	catFR1	2	R1515T
206.032	1.616	211708	WORD	n/a	wordpools/wordpool_categorized_EN.txt	NOTEBOOK	OfficeSupplies	11	1	[0, 0, 0]	n/a	catFR1	2	R1515T
207.648	0.934	213328	WORD_OFF	n/a	n/a	NOTEBOOK	OfficeSupplies	11	1	[0, 0, 0]	n/a	catFR1	2	R1515T
208.582	1.6	214262	WORD	n/a	wordpools/wordpool_categorized_EN.txt	PAPER	OfficeSupplies	12	1	[0, 0, 0]	n/a	catFR1	2	R1515T
210.182	0.001	215863	WORD_OFF	n/a	n/a	PAPER	OfficeSupplies	12	1	[0, 0, 0]	n/a	catFR1	2	R1515T
210.183	0.0	215863	ENCODING_END	n/a	n/a	n/a	n/a	-999	1	[0, 0, 0]	n/a	catFR1	2	R1515T
210.183	0.0	215863	DISTRACT_START	n/a	n/a	n/a	n/a	-999	1	[0, 0, 0]	n/a	catFR1	2	R1515T
210.182	0.001	215865	PROB	0.001	n/a	n/a	n/a	-999	1	[8, 2, 5]	15	catFR1	2	R1515T
210.183	3.299	215866	START	n/a	n/a	n/a	n/a	-999	1	[-999, -999, -999]	n/a	catFR1	2	R1515T
213.482	2.9	219164	PROB	2.9	n/a	n/a	n/a	-999	1	[8, 2, 5]	15	catFR1	2	R1515T
216.382	6.684	222064	PROB	6.684	n/a	n/a	n/a	-999	1	[5, 1, 8]	14	catFR1	2	R1515T
223.066	3.467	228748	PROB	3.467	n/a	n/a	n/a	-999	1	[2, 7, 4]	13	catFR1	2	R1515T
226.533	2.649	232215	PROB	2.649	n/a	n/a	n/a	-999	1	[2, 7, 1]	10	catFR1	2	R1515T
229.182	4.299	234864	PROB	4.299	n/a	n/a	n/a	-999	1	[6, 4, 8]	18	catFR1	2	R1515T
233.481	0.0	239160	DISTRACT_END	n/a	n/a	n/a	n/a	-999	1	[0, 0, 0]	n/a	catFR1	2	R1515T
233.481	1.134	239162	STOP	n/a	n/a	n/a	n/a	-999	1	[-999, -999, -999]	n/a	catFR1	2	R1515T
234.615	0.0	240289	REC_START	n/a	n/a	n/a	n/a	-999	1	[0, 0, 0]	n/a	catFR1	2	R1515T
234.615	0.818	240296	REC_WORD	0.818	n/a	HAMMER	Tools	10	1	[0, 0, 0]	n/a	catFR1	2	R1515T
235.433	1.849	241114	REC_WORD	1.849	n/a	LEVEL	Tools	9	1	[0, 0, 0]	n/a	catFR1	2	R1515T
237.282	0.946	242963	REC_WORD	0.946	n/a	CROWBAR	Tools	4	1	[0, 0, 0]	n/a	catFR1	2	R1515T
238.228	2.202	243909	REC_WORD	2.202	n/a	WRENCH	Tools	3	1	[0, 0, 0]	n/a	catFR1	2	R1515T
240.43	1.58	246111	REC_WORD	1.58	n/a	PENCIL	OfficeSupplies	5	1	[0, 0, 0]	n/a	catFR1	2	R1515T
242.01	1.683	247691	REC_WORD	1.683	n/a	NOTEBOOK	OfficeSupplies	11	1	[0, 0, 0]	n/a	catFR1	2	R1515T
243.693	1.916	249374	REC_WORD	1.916	n/a	TABLET	Electronics	1	1	[0, 0, 0]	n/a	catFR1	2	R1515T
245.609	2.038	251290	REC_WORD	2.038	n/a	RADIO	Electronics	7	1	[0, 0, 0]	n/a	catFR1	2	R1515T
247.647	4.003	253328	REC_WORD	4.003	n/a	SPEAKER	Electronics	2	1	[0, 0, 0]	n/a	catFR1	2	R1515T
251.65	0.654	257330	REC_WORD_VV	0.654	n/a	<>	n/a	-999	1	[0, 0, 0]	n/a	catFR1	2	R1515T
252.304	1.0	257984	REC_WORD	1.0	n/a	CROWBAR	Tools	4	1	[0, 0, 0]	n/a	catFR1	2	R1515T
253.304	1.0	258984	REC_WORD_VV	1.0	n/a	<>	n/a	-999	1	[0, 0, 0]	n/a	catFR1	2	R1515T
254.304	8.462	259984	REC_WORD_VV	8.462	n/a	<>	n/a	-999	1	[0, 0, 0]	n/a	catFR1	2	R1515T
262.766	0.149	268446	REC_WORD_VV	0.149	n/a	<>	n/a	-999	1	[0, 0, 0]	n/a	catFR1	2	R1515T
262.915	1.0	268595	REC_WORD	1.0	n/a	NOTEBOOK	OfficeSupplies	11	1	[0, 0, 0]	n/a	catFR1	2	R1515T
263.915	1.905	269595	REC_WORD_VV	1.905	n/a	<>	n/a	-999	1	[0, 0, 0]	n/a	catFR1	2	R1515T
265.82	3.495	271493	REC_END	n/a	n/a	n/a	n/a	-999	1	[0, 0, 0]	n/a	catFR1	2	R1515T
269.315	10.35	274990	COUNTDOWN_START	n/a	n/a	n/a	n/a	-999	1	[0, 0, 0]	n/a	catFR1	2	R1515T
279.665	0.0	285342	COUNTDOWN_END	n/a	n/a	n/a	n/a	-999	1	[0, 0, 0]	n/a	catFR1	2	R1515T
279.665	2.266	285342	ENCODING_START	n/a	n/a	n/a	n/a	-999	2	[0, 0, 0]	n/a	catFR1	2	R1515T
281.931	1.616	287611	WORD	n/a	wordpools/wordpool_categorized_EN.txt	PIG	FarmAnimals	1	2	[0, 0, 0]	n/a	catFR1	2	R1515T
283.547	0.801	289221	WORD_OFF	n/a	n/a	PIG	FarmAnimals	1	2	[0, 0, 0]	n/a	catFR1	2	R1515T
284.348	1.616	290027	WORD	n/a	wordpools/wordpool_categorized_EN.txt	ROOSTER	FarmAnimals	2	2	[0, 0, 0]	n/a	catFR1	2	R1515T
285.964	0.834	291638	WORD_OFF	n/a	n/a	ROOSTER	FarmAnimals	2	2	[0, 0, 0]	n/a	catFR1	2	R1515T
286.798	1.617	292472	WORD	n/a	wordpools/wordpool_categorized_EN.txt	LADYBUG	Insects	3	2	[0, 0, 0]	n/a	catFR1	2	R1515T
288.415	0.95	294093	WORD_OFF	n/a	n/a	LADYBUG	Insects	3	2	[0, 0, 0]	n/a	catFR1	2	R1515T
289.365	1.617	295036	WORD	n/a	wordpools/wordpool_categorized_EN.txt	BEETLE	Insects	4	2	[0, 0, 0]	n/a	catFR1	2	R1515T
290.982	0.783	296656	WORD_OFF	n/a	n/a	BEETLE	Insects	4	2	[0, 0, 0]	n/a	catFR1	2	R1515T
291.765	1.6	297442	WORD	n/a	wordpools/wordpool_categorized_EN.txt	OYSTER	OceanAnimals	5	2	[0, 0, 0]	n/a	catFR1	2	R1515T
293.365	0.983	299043	WORD_OFF	n/a	n/a	OYSTER	OceanAnimals	5	2	[0, 0, 0]	n/a	catFR1	2	R1515T
294.348	1.617	300025	WORD	n/a	wordpools/wordpool_categorized_EN.txt	DOLPHIN	OceanAnimals	6	2	[0, 0, 0]	n/a	catFR1	2	R1515T
295.965	0.833	301636	WORD_OFF	n/a	n/a	DOLPHIN	OceanAnimals	6	2	[0, 0, 0]	n/a	catFR1	2	R1515T
296.798	1.617	302471	WORD	n/a	wordpools/wordpool_categorized_EN.txt	CRICKET	Insects	7	2	[0, 0, 0]	n/a	catFR1	2	R1515T
298.415	0.9	304092	WORD_OFF	n/a	n/a	CRICKET	Insects	7	2	[0, 0, 0]	n/a	catFR1	2	R1515T
299.315	1.617	304985	WORD	n/a	wordpools/wordpool_categorized_EN.txt	BEE	Insects	8	2	[0, 0, 0]	n/a	catFR1	2	R1515T
300.932	0.783	306606	WORD_OFF	n/a	n/a	BEE	Insects	8	2	[0, 0, 0]	n/a	catFR1	2	R1515T
301.715	1.617	307392	WORD	n/a	wordpools/wordpool_categorized_EN.txt	TURKEY	FarmAnimals	9	2	[0, 0, 0]	n/a	catFR1	2	R1515T
303.332	0.933	309002	WORD_OFF	n/a	n/a	TURKEY	FarmAnimals	9	2	[0, 0, 0]	n/a	catFR1	2	R1515T
304.265	1.617	309935	WORD	n/a	wordpools/wordpool_categorized_EN.txt	GOAT	FarmAnimals	10	2	[0, 0, 0]	n/a	catFR1	2	R1515T
305.882	0.948	311556	WORD_OFF	n/a	n/a	GOAT	FarmAnimals	10	2	[0, 0, 0]	n/a	catFR1	2	R1515T
306.83	1.601	312509	WORD	n/a	wordpools/wordpool_categorized_EN.txt	CRAB	OceanAnimals	11	2	[0, 0, 0]	n/a	catFR1	2	R1515T
308.431	0.95	314100	WORD_OFF	n/a	n/a	CRAB	OceanAnimals	11	2	[0, 0, 0]	n/a	catFR1	2	R1515T
309.381	1.6	315053	WORD	n/a	wordpools/wordpool_categorized_EN.txt	SHRIMP	OceanAnimals	12	2	[0, 0, 0]	n/a	catFR1	2	R1515T
310.981	0.002	316654	WORD_OFF	n/a	n/a	SHRIMP	OceanAnimals	12	2	[0, 0, 0]	n/a	catFR1	2	R1515T
310.983	0.0	316654	ENCODING_END	n/a	n/a	n/a	n/a	-999	2	[0, 0, 0]	n/a	catFR1	2	R1515T
310.982	0.001	316659	PROB	0.001	n/a	n/a	n/a	-999	2	[2, 5, 4]	11	catFR1	2	R1515T
310.983	0.0	316660	START	n/a	n/a	n/a	n/a	-999	2	[-999, -999, -999]	n/a	catFR1	2	R1515T
310.983	3.699	316663	DISTRACT_START	n/a	n/a	n/a	n/a	-999	2	[0, 0, 0]	n/a	catFR1	2	R1515T
314.682	3.5	320359	PROB	3.5	n/a	n/a	n/a	-999	2	[7, 3, 7]	17	catFR1	2	R1515T
318.182	2.983	323859	PROB	2.983	n/a	n/a	n/a	-999	2	[1, 2, 1]	4	catFR1	2	R1515T
321.165	4.517	326842	PROB	4.517	n/a	n/a	n/a	-999	2	[5, 7, 7]	19	catFR1	2	R1515T
325.682	4.1	331359	PROB	4.1	n/a	n/a	n/a	-999	2	[6, 7, 6]	19	catFR1	2	R1515T
329.782	3.116	335459	PROB	3.116	n/a	n/a	n/a	-999	2	[8, 3, 8]	19	catFR1	2	R1515T
332.898	0.0	338566	DISTRACT_END	n/a	n/a	n/a	n/a	-999	2	[0, 0, 0]	n/a	catFR1	2	R1515T
332.898	1.266	338574	STOP	n/a	n/a	n/a	n/a	-999	2	[-999, -999, -999]	n/a	catFR1	2	R1515T
334.164	0.0	339833	REC_START	n/a	n/a	n/a	n/a	-999	2	[0, 0, 0]	n/a	catFR1	2	R1515T
334.164	0.52	339840	REC_WORD	0.52	n/a	SHRIMP	OceanAnimals	12	2	[0, 0, 0]	n/a	catFR1	2	R1515T
334.684	0.864	340360	REC_WORD	0.864	n/a	CRAB	OceanAnimals	11	2	[0, 0, 0]	n/a	catFR1	2	R1515T
335.548	0.895	341224	REC_WORD	0.895	n/a	OYSTER	OceanAnimals	5	2	[0, 0, 0]	n/a	catFR1	2	R1515T
336.443	4.595	342119	REC_WORD	4.595	n/a	DOLPHIN	OceanAnimals	6	2	[0, 0, 0]	n/a	catFR1	2	R1515T
341.038	8.258	346714	REC_WORD_VV	8.258	n/a	<>	n/a	-999	2	[0, 0, 0]	n/a	catFR1	2	R1515T
349.296	1.0	354972	REC_WORD_VV	1.0	n/a	<>	n/a	-999	2	[0, 0, 0]	n/a	catFR1	2	R1515T
350.296	1.0	355971	REC_WORD_VV	1.0	n/a	<>	n/a	-999	2	[0, 0, 0]	n/a	catFR1	2	R1515T
351.296	4.999	356971	REC_WORD_VV	4.999	n/a	<>	n/a	-999	2	[0, 0, 0]	n/a	catFR1	2	R1515T
356.295	9.056	361970	REC_WORD_VV	9.056	n/a	<>	n/a	-999	2	[0, 0, 0]	n/a	catFR1	2	R1515T
365.351	6.714	371027	REC_END	n/a	n/a	n/a	n/a	-999	2	[0, 0, 0]	n/a	catFR1	2	R1515T
372.065	10.35	377735	COUNTDOWN_START	n/a	n/a	n/a	n/a	-999	2	[0, 0, 0]	n/a	catFR1	2	R1515T
382.415	0.0	388087	COUNTDOWN_END	n/a	n/a	n/a	n/a	-999	2	[0, 0, 0]	n/a	catFR1	2	R1515T
382.415	2.082	388087	ENCODING_START	n/a	n/a	n/a	n/a	-999	3	[0, 0, 0]	n/a	catFR1	2	R1515T
384.497	1.617	390170	WORD	n/a	wordpools/wordpool_categorized_EN.txt	CORN	Vegetables	1	3	[0, 0, 0]	n/a	catFR1	2	R1515T
386.114	0.95	391780	WORD_OFF	n/a	n/a	CORN	Vegetables	1	3	[0, 0, 0]	n/a	catFR1	2	R1515T
387.064	1.617	392733	WORD	n/a	wordpools/wordpool_categorized_EN.txt	PEAS	Vegetables	2	3	[0, 0, 0]	n/a	catFR1	2	R1515T
388.681	0.834	394354	WORD_OFF	n/a	n/a	PEAS	Vegetables	2	3	[0, 0, 0]	n/a	catFR1	2	R1515T
389.515	1.616	395188	WORD	n/a	wordpools/wordpool_categorized_EN.txt	SUNFLOWER	Flowers	3	3	[0, 0, 0]	n/a	catFR1	2	R1515T
391.131	0.75	396799	WORD_OFF	n/a	n/a	SUNFLOWER	Flowers	3	3	[0, 0, 0]	n/a	catFR1	2	R1515T
391.881	1.601	397546	WORD	n/a	wordpools/wordpool_categorized_EN.txt	MARIGOLD	Flowers	4	3	[0, 0, 0]	n/a	catFR1	2	R1515T
393.482	0.833	399147	WORD_OFF	n/a	n/a	MARIGOLD	Flowers	4	3	[0, 0, 0]	n/a	catFR1	2	R1515T
394.315	1.616	399982	WORD	n/a	wordpools/wordpool_categorized_EN.txt	SATIN	Fabric	5	3	[0, 0, 0]	n/a	catFR1	2	R1515T
395.931	0.85	401602	WORD_OFF	n/a	n/a	SATIN	Fabric	5	3	[0, 0, 0]	n/a	catFR1	2	R1515T
396.781	1.6	402447	WORD	n/a	wordpools/wordpool_categorized_EN.txt	FLEECE	Fabric	6	3	[0, 0, 0]	n/a	catFR1	2	R1515T
398.381	0.9	404048	WORD_OFF	n/a	n/a	FLEECE	Fabric	6	3	[0, 0, 0]	n/a	catFR1	2	R1515T
399.281	1.601	404951	WORD	n/a	wordpools/wordpool_categorized_EN.txt	ONION	Vegetables	7	3	[0, 0, 0]	n/a	catFR1	2	R1515T
400.882	0.983	406552	WORD_OFF	n/a	n/a	ONION	Vegetables	7	3	[0, 0, 0]	n/a	catFR1	2	R1515T
401.865	1.616	407534	WORD	n/a	wordpools/wordpool_categorized_EN.txt	CARROT	Vegetables	8	3	[0, 0, 0]	n/a	catFR1	2	R1515T
403.481	0.933	409155	WORD_OFF	n/a	n/a	CARROT	Vegetables	8	3	[0, 0, 0]	n/a	catFR1	2	R1515T
404.414	1.601	410078	WORD	n/a	wordpools/wordpool_categorized_EN.txt	TULIP	Flowers	9	3	[0, 0, 0]	n/a	catFR1	2	R1515T
406.015	0.883	411679	WORD_OFF	n/a	n/a	TULIP	Flowers	9	3	[0, 0, 0]	n/a	catFR1	2	R1515T
406.898	1.6	412563	WORD	n/a	wordpools/wordpool_categorized_EN.txt	PETUNIA	Flowers	10	3	[0, 0, 0]	n/a	catFR1	2	R1515T
408.498	0.883	414164	WORD_OFF	n/a	n/a	PETUNIA	Flowers	10	3	[0, 0, 0]	n/a	catFR1	2	R1515T
409.381	1.6	415048	WORD	n/a	wordpools/wordpool_categorized_EN.txt	LINEN	Fabric	11	3	[0, 0, 0]	n/a	catFR1	2	R1515T
410.981	0.816	416649	WORD_OFF	n/a	n/a	LINEN	Fabric	11	3	[0, 0, 0]	n/a	catFR1	2	R1515T
411.797	1.601	417464	WORD	n/a	wordpools/wordpool_categorized_EN.txt	WOOL	Fabric	12	3	[0, 0, 0]	n/a	catFR1	2	R1515T
413.398	0.002	419065	WORD_OFF	n/a	n/a	WOOL	Fabric	12	3	[0, 0, 0]	n/a	catFR1	2	R1515T
413.4	0.0	419065	ENCODING_END	n/a	n/a	n/a	n/a	-999	3	[0, 0, 0]	n/a	catFR1	2	R1515T
413.399	0.001	419071	PROB	0.001	n/a	n/a	n/a	-999	3	[4, 8, 1]	13	catFR1	2	R1515T
413.4	0.0	419072	START	n/a	n/a	n/a	n/a	-999	3	[-999, -999, -999]	n/a	catFR1	2	R1515T
413.4	3.882	419075	DISTRACT_START	n/a	n/a	n/a	n/a	-999	3	[0, 0, 0]	n/a	catFR1	2	R1515T
417.282	4.299	422954	PROB	4.299	n/a	n/a	n/a	-999	3	[7, 4, 3]	14	catFR1	2	R1515T
421.581	2.817	427253	PROB	2.817	n/a	n/a	n/a	-999	3	[7, 3, 2]	12	catFR1	2	R1515T
424.398	2.886	430070	PROB	2.886	n/a	n/a	n/a	-999	3	[8, 1, 3]	12	catFR1	2	R1515T
427.284	3.881	432956	PROB	3.881	n/a	n/a	n/a	-999	3	[8, 4, 1]	13	catFR1	2	R1515T
431.165	3.9	436836	PROB	3.9	n/a	n/a	n/a	-999	3	[2, 1, 5]	8	catFR1	2	R1515T
435.065	0.0	440732	DISTRACT_END	n/a	n/a	n/a	n/a	-999	3	[0, 0, 0]	n/a	catFR1	2	R1515T
435.065	1.133	440736	STOP	n/a	n/a	n/a	n/a	-999	3	[-999, -999, -999]	n/a	catFR1	2	R1515T
436.198	0.0	441862	REC_START	n/a	n/a	n/a	n/a	-999	3	[0, 0, 0]	n/a	catFR1	2	R1515T
436.198	0.737	441869	REC_WORD	0.737	n/a	PETUNIA	Flowers	10	3	[0, 0, 0]	n/a	catFR1	2	R1515T
436.935	0.818	442606	REC_WORD	0.818	n/a	MARIGOLD	Flowers	4	3	[0, 0, 0]	n/a	catFR1	2	R1515T
437.753	2.192	443424	REC_WORD	2.192	n/a	TULIP	Flowers	9	3	[0, 0, 0]	n/a	catFR1	2	R1515T
439.945	2.015	445616	REC_WORD_VV	2.015	n/a	<>	n/a	-999	3	[0, 0, 0]	n/a	catFR1	2	R1515T
441.96	0.895	447631	REC_WORD	0.895	n/a	FLEECE	Fabric	6	3	[0, 0, 0]	n/a	catFR1	2	R1515T
442.855	1.381	448526	REC_WORD	1.381	n/a	LINEN	Fabric	11	3	[0, 0, 0]	n/a	catFR1	2	R1515T
444.236	4.455	449907	REC_WORD	4.455	n/a	WOOL	Fabric	12	3	[0, 0, 0]	n/a	catFR1	2	R1515T
448.691	2.622	454362	REC_WORD_VV	2.622	n/a	<>	n/a	-999	3	[0, 0, 0]	n/a	catFR1	2	R1515T
451.313	3.394	456983	REC_WORD	3.394	n/a	BEETLE	Insects	-999	3	[0, 0, 0]	n/a	catFR1	2	R1515T
454.707	6.633	460377	REC_WORD	6.633	n/a	LADYBUG	Insects	-999	3	[0, 0, 0]	n/a	catFR1	2	R1515T
461.34	6.026	467010	REC_WORD_VV	6.026	n/a	<>	n/a	-999	3	[0, 0, 0]	n/a	catFR1	2	R1515T
467.366	3.831	473036	REC_END	n/a	n/a	n/a	n/a	-999	3	[0, 0, 0]	n/a	catFR1	2	R1515T
471.197	10.351	476866	COUNTDOWN_START	n/a	n/a	n/a	n/a	-999	3	[0, 0, 0]	n/a	catFR1	2	R1515T
481.548	0.001	487209	COUNTDOWN_END	n/a	n/a	n/a	n/a	-999	3	[0, 0, 0]	n/a	catFR1	2	R1515T
481.549	2.265	487219	ENCODING_START	n/a	n/a	n/a	n/a	-999	4	[0, 0, 0]	n/a	catFR1	2	R1515T
483.814	1.6	489478	WORD	n/a	wordpools/wordpool_categorized_EN.txt	CHEESECAKE	Desserts	1	4	[0, 0, 0]	n/a	catFR1	2	R1515T
485.414	0.768	491078	WORD_OFF	n/a	n/a	CHEESECAKE	Desserts	1	4	[0, 0, 0]	n/a	catFR1	2	R1515T
486.182	1.615	491845	WORD	n/a	wordpools/wordpool_categorized_EN.txt	FUDGE	Desserts	2	4	[0, 0, 0]	n/a	catFR1	2	R1515T
487.797	0.851	493465	WORD_OFF	n/a	n/a	FUDGE	Desserts	2	4	[0, 0, 0]	n/a	catFR1	2	R1515T
488.648	1.616	494310	WORD	n/a	wordpools/wordpool_categorized_EN.txt	JEANS	Clothing	3	4	[0, 0, 0]	n/a	catFR1	2	R1515T
490.264	0.951	495930	WORD_OFF	n/a	n/a	JEANS	Clothing	3	4	[0, 0, 0]	n/a	catFR1	2	R1515T
491.215	1.616	496883	WORD	n/a	wordpools/wordpool_categorized_EN.txt	SHOES	Clothing	4	4	[0, 0, 0]	n/a	catFR1	2	R1515T
492.831	0.984	498494	WORD_OFF	n/a	n/a	SHOES	Clothing	4	4	[0, 0, 0]	n/a	catFR1	2	R1515T
493.815	1.616	499476	WORD	n/a	wordpools/wordpool_categorized_EN.txt	ANT	Insects	5	4	[0, 0, 0]	n/a	catFR1	2	R1515T
495.431	1.0	501097	WORD_OFF	n/a	n/a	ANT	Insects	5	4	[0, 0, 0]	n/a	catFR1	2	R1515T
496.431	1.601	502099	WORD	n/a	wordpools/wordpool_categorized_EN.txt	GNAT	Insects	6	4	[0, 0, 0]	n/a	catFR1	2	R1515T
498.032	0.816	503699	WORD_OFF	n/a	n/a	GNAT	Insects	6	4	[0, 0, 0]	n/a	catFR1	2	R1515T
498.848	1.617	504515	WORD	n/a	wordpools/wordpool_categorized_EN.txt	UNDERWEAR	Clothing	7	4	[0, 0, 0]	n/a	catFR1	2	R1515T
500.465	1.0	506125	WORD_OFF	n/a	n/a	UNDERWEAR	Clothing	7	4	[0, 0, 0]	n/a	catFR1	2	R1515T
501.465	1.617	507127	WORD	n/a	wordpools/wordpool_categorized_EN.txt	PANTS	Clothing	8	4	[0, 0, 0]	n/a	catFR1	2	R1515T
503.082	0.999	508748	WORD_OFF	n/a	n/a	PANTS	Clothing	8	4	[0, 0, 0]	n/a	catFR1	2	R1515T
504.081	1.601	509750	WORD	n/a	wordpools/wordpool_categorized_EN.txt	FLY	Insects	9	4	[0, 0, 0]	n/a	catFR1	2	R1515T
505.682	0.966	511341	WORD_OFF	n/a	n/a	FLY	Insects	9	4	[0, 0, 0]	n/a	catFR1	2	R1515T
506.648	1.6	512313	WORD	n/a	wordpools/wordpool_categorized_EN.txt	BUTTERFLY	Insects	10	4	[0, 0, 0]	n/a	catFR1	2	R1515T
508.248	0.9	513914	WORD_OFF	n/a	n/a	BUTTERFLY	Insects	10	4	[0, 0, 0]	n/a	catFR1	2	R1515T
509.148	1.617	514808	WORD	n/a	wordpools/wordpool_categorized_EN.txt	PASTRY	Desserts	11	4	[0, 0, 0]	n/a	catFR1	2	R1515T
510.765	0.867	516428	WORD_OFF	n/a	n/a	PASTRY	Desserts	11	4	[0, 0, 0]	n/a	catFR1	2	R1515T
511.632	1.616	517293	WORD	n/a	wordpools/wordpool_categorized_EN.txt	PUDDING	Desserts	12	4	[0, 0, 0]	n/a	catFR1	2	R1515T
513.248	0.002	518913	WORD_OFF	n/a	n/a	PUDDING	Desserts	12	4	[0, 0, 0]	n/a	catFR1	2	R1515T
513.25	0.0	518913	ENCODING_END	n/a	n/a	n/a	n/a	-999	4	[0, 0, 0]	n/a	catFR1	2	R1515T
513.25	0.0	518913	DISTRACT_START	n/a	n/a	n/a	n/a	-999	4	[0, 0, 0]	n/a	catFR1	2	R1515T
513.249	0.001	518916	PROB	0.001	n/a	n/a	n/a	-999	4	[5, 1, 3]	9	catFR1	2	R1515T
513.25	3.617	518917	START	n/a	n/a	n/a	n/a	-999	4	[-999, -999, -999]	n/a	catFR1	2	R1515T
516.867	4.465	522534	PROB	4.465	n/a	n/a	n/a	-999	4	[3, 8, 4]	15	catFR1	2	R1515T
521.332	3.667	526999	PROB	3.667	n/a	n/a	n/a	-999	4	[6, 4, 5]	15	catFR1	2	R1515T
524.999	5.782	530666	PROB	5.782	n/a	n/a	n/a	-999	4	[6, 5, 4]	15	catFR1	2	R1515T
530.781	3.517	536447	PROB	3.517	n/a	n/a	n/a	-999	4	[7, 5, 5]	17	catFR1	2	R1515T
534.298	0.0	539961	DISTRACT_END	n/a	n/a	n/a	n/a	-999	4	[0, 0, 0]	n/a	catFR1	2	R1515T
534.298	1.25	539964	STOP	n/a	n/a	n/a	n/a	-999	4	[-999, -999, -999]	n/a	catFR1	2	R1515T
535.548	0.204	541209	REC_START	n/a	n/a	n/a	n/a	-999	4	[0, 0, 0]	n/a	catFR1	2	R1515T
535.752	1.081	541418	REC_WORD	1.081	n/a	GNAT	Insects	6	4	[0, 0, 0]	n/a	catFR1	2	R1515T
536.833	2.653	542499	REC_WORD	2.653	n/a	ANT	Insects	5	4	[0, 0, 0]	n/a	catFR1	2	R1515T
539.486	3.993	545152	REC_WORD	3.993	n/a	BUTTERFLY	Insects	10	4	[0, 0, 0]	n/a	catFR1	2	R1515T
543.479	1.171	549145	REC_WORD	1.171	n/a	JEANS	Clothing	3	4	[0, 0, 0]	n/a	catFR1	2	R1515T
544.65	1.058	550316	REC_WORD	1.058	n/a	PANTS	Clothing	8	4	[0, 0, 0]	n/a	catFR1	2	R1515T
545.708	2.131	551374	REC_WORD	2.131	n/a	UNDERWEAR	Clothing	7	4	[0, 0, 0]	n/a	catFR1	2	R1515T
547.839	7.072	553505	REC_WORD	7.072	n/a	PASTRY	Desserts	11	4	[0, 0, 0]	n/a	catFR1	2	R1515T
554.911	1.902	560576	REC_WORD	1.902	n/a	PASTRY	Desserts	11	4	[0, 0, 0]	n/a	catFR1	2	R1515T
556.813	0.26	562478	REC_WORD_VV	0.26	n/a	<>	n/a	-999	4	[0, 0, 0]	n/a	catFR1	2	R1515T
557.073	2.888	562738	REC_WORD	2.888	n/a	BAKING	n/a	-999	4	[0, 0, 0]	n/a	catFR1	2	R1515T
559.961	6.777	565626	REC_WORD_VV	6.777	n/a	<>	n/a	-999	4	[0, 0, 0]	n/a	catFR1	2	R1515T
566.738	1.61	572403	REC_END	n/a	n/a	n/a	n/a	-999	4	[0, 0, 0]	n/a	catFR1	2	R1515T
568.348	10.349	574014	COUNTDOWN_START	n/a	n/a	n/a	n/a	-999	4	[0, 0, 0]	n/a	catFR1	2	R1515T
578.697	0.0	584356	COUNTDOWN_END	n/a	n/a	n/a	n/a	-999	4	[0, 0, 0]	n/a	catFR1	2	R1515T
578.697	1.884	584356	ENCODING_START	n/a	n/a	n/a	n/a	-999	5	[0, 0, 0]	n/a	catFR1	2	R1515T
580.581	1.601	586242	WORD	n/a	wordpools/wordpool_categorized_EN.txt	DRESS	Clothing	1	5	[0, 0, 0]	n/a	catFR1	2	R1515T
582.182	0.88	587843	WORD_OFF	n/a	n/a	DRESS	Clothing	1	5	[0, 0, 0]	n/a	catFR1	2	R1515T
583.062	1.602	588727	WORD	n/a	wordpools/wordpool_categorized_EN.txt	SHIRT	Clothing	2	5	[0, 0, 0]	n/a	catFR1	2	R1515T
584.664	0.867	590328	WORD_OFF	n/a	n/a	SHIRT	Clothing	2	5	[0, 0, 0]	n/a	catFR1	2	R1515T
585.531	1.601	591192	WORD	n/a	wordpools/wordpool_categorized_EN.txt	ELEPHANT	Zoo	3	5	[0, 0, 0]	n/a	catFR1	2	R1515T
587.132	0.915	592793	WORD_OFF	n/a	n/a	ELEPHANT	Zoo	3	5	[0, 0, 0]	n/a	catFR1	2	R1515T
588.047	1.6	593706	WORD	n/a	wordpools/wordpool_categorized_EN.txt	CHIMPANZEE	Zoo	4	5	[0, 0, 0]	n/a	catFR1	2	R1515T
589.647	0.783	595307	WORD_OFF	n/a	n/a	CHIMPANZEE	Zoo	4	5	[0, 0, 0]	n/a	catFR1	2	R1515T
590.43	1.601	596093	WORD	n/a	wordpools/wordpool_categorized_EN.txt	SHELF	Furniture	5	5	[0, 0, 0]	n/a	catFR1	2	R1515T
592.031	0.883	597694	WORD_OFF	n/a	n/a	SHELF	Furniture	5	5	[0, 0, 0]	n/a	catFR1	2	R1515T
592.914	1.601	598578	WORD	n/a	wordpools/wordpool_categorized_EN.txt	RECLINER	Furniture	6	5	[0, 0, 0]	n/a	catFR1	2	R1515T
594.515	0.866	600169	WORD_OFF	n/a	n/a	RECLINER	Furniture	6	5	[0, 0, 0]	n/a	catFR1	2	R1515T
595.381	1.601	601043	WORD	n/a	wordpools/wordpool_categorized_EN.txt	ZEBRA	Zoo	7	5	[0, 0, 0]	n/a	catFR1	2	R1515T
596.982	0.866	602644	WORD_OFF	n/a	n/a	ZEBRA	Zoo	7	5	[0, 0, 0]	n/a	catFR1	2	R1515T
597.848	1.617	603508	WORD	n/a	wordpools/wordpool_categorized_EN.txt	GORILLA	Zoo	8	5	[0, 0, 0]	n/a	catFR1	2	R1515T
599.465	0.983	605119	WORD_OFF	n/a	n/a	GORILLA	Zoo	8	5	[0, 0, 0]	n/a	catFR1	2	R1515T
600.448	1.6	606111	WORD	n/a	wordpools/wordpool_categorized_EN.txt	SHORTS	Clothing	9	5	[0, 0, 0]	n/a	catFR1	2	R1515T
602.048	0.934	607702	WORD_OFF	n/a	n/a	SHORTS	Clothing	9	5	[0, 0, 0]	n/a	catFR1	2	R1515T
602.982	1.616	608645	WORD	n/a	wordpools/wordpool_categorized_EN.txt	SKIRT	Clothing	10	5	[0, 0, 0]	n/a	catFR1	2	R1515T
604.598	0.984	610256	WORD_OFF	n/a	n/a	SKIRT	Clothing	10	5	[0, 0, 0]	n/a	catFR1	2	R1515T
605.582	1.6	611238	WORD	n/a	wordpools/wordpool_categorized_EN.txt	SOFA	Furniture	11	5	[0, 0, 0]	n/a	catFR1	2	R1515T
607.182	0.966	612839	WORD_OFF	n/a	n/a	SOFA	Furniture	11	5	[0, 0, 0]	n/a	catFR1	2	R1515T
608.148	1.601	613811	WORD	n/a	wordpools/wordpool_categorized_EN.txt	BOOKCASE	Furniture	12	5	[0, 0, 0]	n/a	catFR1	2	R1515T
609.749	0.0	615411	PROB	0.0	n/a	n/a	n/a	-999	5	[5, 3, 7]	15	catFR1	2	R1515T
609.748	0.002	615412	WORD_OFF	n/a	n/a	BOOKCASE	Furniture	12	5	[0, 0, 0]	n/a	catFR1	2	R1515T
609.75	0.0	615412	ENCODING_END	n/a	n/a	n/a	n/a	-999	5	[0, 0, 0]	n/a	catFR1	2	R1515T
609.75	0.0	615412	DISTRACT_START	n/a	n/a	n/a	n/a	-999	5	[0, 0, 0]	n/a	catFR1	2	R1515T
609.75	5.132	615412	START	n/a	n/a	n/a	n/a	-999	5	[-999, -999, -999]	n/a	catFR1	2	R1515T
614.882	6.083	620544	PROB	6.083	n/a	n/a	n/a	-999	5	[6, 7, 2]	15	catFR1	2	R1515T
620.965	2.917	626627	PROB	2.917	n/a	n/a	n/a	-999	5	[2, 1, 4]	7	catFR1	2	R1515T
623.882	5.717	629544	PROB	5.717	n/a	n/a	n/a	-999	5	[7, 5, 4]	16	catFR1	2	R1515T
629.599	1.649	635260	PROB	1.649	n/a	n/a	n/a	-999	5	[2, 5, 5]	12	catFR1	2	R1515T
631.248	0.0	636902	DISTRACT_END	n/a	n/a	n/a	n/a	-999	5	[0, 0, 0]	n/a	catFR1	2	R1515T
631.248	1.4	636909	STOP	n/a	n/a	n/a	n/a	-999	5	[-999, -999, -999]	n/a	catFR1	2	R1515T
632.648	0.562	638307	REC_START	n/a	n/a	n/a	n/a	-999	5	[0, 0, 0]	n/a	catFR1	2	R1515T
633.21	0.719	638871	REC_WORD	0.719	n/a	DRESS	Clothing	1	5	[0, 0, 0]	n/a	catFR1	2	R1515T
633.929	1.645	639590	REC_WORD	1.645	n/a	SHIRT	Clothing	2	5	[0, 0, 0]	n/a	catFR1	2	R1515T
635.574	0.728	641235	REC_WORD	0.728	n/a	SKIRT	Clothing	10	5	[0, 0, 0]	n/a	catFR1	2	R1515T
636.302	1.766	641963	REC_WORD	1.766	n/a	SHORT	n/a	-999	5	[0, 0, 0]	n/a	catFR1	2	R1515T
638.068	2.36	643729	REC_WORD	2.36	n/a	BOOKSHELF	n/a	-999	5	[0, 0, 0]	n/a	catFR1	2	R1515T
640.428	2.039	646089	REC_WORD	2.039	n/a	COUCH	n/a	-999	5	[0, 0, 0]	n/a	catFR1	2	R1515T
642.467	2.725	648128	REC_WORD	2.725	n/a	RECLINER	Furniture	6	5	[0, 0, 0]	n/a	catFR1	2	R1515T
645.192	0.41	650853	REC_WORD_VV	0.41	n/a	<>	n/a	-999	5	[0, 0, 0]	n/a	catFR1	2	R1515T
645.602	0.674	651263	REC_WORD	0.674	n/a	ZEBRA	Zoo	7	5	[0, 0, 0]	n/a	catFR1	2	R1515T
646.276	0.542	651937	REC_WORD	0.542	n/a	GORILLA	Zoo	8	5	[0, 0, 0]	n/a	catFR1	2	R1515T
646.818	1.159	652479	REC_WORD	1.159	n/a	CHIMPANZEE	Zoo	4	5	[0, 0, 0]	n/a	catFR1	2	R1515T
647.977	5.361	653637	REC_WORD	5.361	n/a	ELEPHANT	Zoo	3	5	[0, 0, 0]	n/a	catFR1	2	R1515T
653.338	4.514	658998	REC_WORD	4.514	n/a	SHELF	Furniture	5	5	[0, 0, 0]	n/a	catFR1	2	R1515T
657.852	5.992	663512	REC_WORD_VV	5.992	n/a	<>	n/a	-999	5	[0, 0, 0]	n/a	catFR1	2	R1515T
663.844	1.987	669501	REC_END	n/a	n/a	n/a	n/a	-999	5	[0, 0, 0]	n/a	catFR1	2	R1515T
665.831	10.35	671485	COUNTDOWN_START	n/a	n/a	n/a	n/a	-999	5	[0, 0, 0]	n/a	catFR1	2	R1515T
676.181	0.0	681837	COUNTDOWN_END	n/a	n/a	n/a	n/a	-999	5	[0, 0, 0]	n/a	catFR1	2	R1515T
676.181	2.167	681837	ENCODING_START	n/a	n/a	n/a	n/a	-999	6	[0, 0, 0]	n/a	catFR1	2	R1515T
678.348	1.6	684008	WORD	n/a	wordpools/wordpool_categorized_EN.txt	CARDINAL	Birds	1	6	[0, 0, 0]	n/a	catFR1	2	R1515T
679.948	0.9	685599	WORD_OFF	n/a	n/a	CARDINAL	Birds	1	6	[0, 0, 0]	n/a	catFR1	2	R1515T
680.848	1.6	686502	WORD	n/a	wordpools/wordpool_categorized_EN.txt	SPARROW	Birds	2	6	[0, 0, 0]	n/a	catFR1	2	R1515T
682.448	0.783	688103	WORD_OFF	n/a	n/a	SPARROW	Birds	2	6	[0, 0, 0]	n/a	catFR1	2	R1515T
683.231	1.6	688889	WORD	n/a	wordpools/wordpool_categorized_EN.txt	WOODS	Landscapes	3	6	[0, 0, 0]	n/a	catFR1	2	R1515T
684.831	0.783	690490	WORD_OFF	n/a	n/a	WOODS	Landscapes	3	6	[0, 0, 0]	n/a	catFR1	2	R1515T
685.614	1.601	691266	WORD	n/a	wordpools/wordpool_categorized_EN.txt	STREAM	Landscapes	4	6	[0, 0, 0]	n/a	catFR1	2	R1515T
687.215	0.9	692867	WORD_OFF	n/a	n/a	STREAM	Landscapes	4	6	[0, 0, 0]	n/a	catFR1	2	R1515T
688.115	1.617	693770	WORD	n/a	wordpools/wordpool_categorized_EN.txt	PLIERS	Tools	5	6	[0, 0, 0]	n/a	catFR1	2	R1515T
689.732	0.832	695381	WORD_OFF	n/a	n/a	PLIERS	Tools	5	6	[0, 0, 0]	n/a	catFR1	2	R1515T
690.564	1.601	696216	WORD	n/a	wordpools/wordpool_categorized_EN.txt	SAW	Tools	6	6	[0, 0, 0]	n/a	catFR1	2	R1515T
692.165	1.0	697817	WORD_OFF	n/a	n/a	SAW	Tools	6	6	[0, 0, 0]	n/a	catFR1	2	R1515T
693.165	1.616	698819	WORD	n/a	wordpools/wordpool_categorized_EN.txt	ROBIN	Birds	7	6	[0, 0, 0]	n/a	catFR1	2	R1515T
694.781	0.867	700439	WORD_OFF	n/a	n/a	ROBIN	Birds	7	6	[0, 0, 0]	n/a	catFR1	2	R1515T
695.648	1.616	701304	WORD	n/a	wordpools/wordpool_categorized_EN.txt	CROW	Birds	8	6	[0, 0, 0]	n/a	catFR1	2	R1515T
697.264	0.818	702915	WORD_OFF	n/a	n/a	CROW	Birds	8	6	[0, 0, 0]	n/a	catFR1	2	R1515T
698.082	1.615	703740	WORD	n/a	wordpools/wordpool_categorized_EN.txt	FOREST	Landscapes	9	6	[0, 0, 0]	n/a	catFR1	2	R1515T
699.697	0.917	705350	WORD_OFF	n/a	n/a	FOREST	Landscapes	9	6	[0, 0, 0]	n/a	catFR1	2	R1515T
700.614	1.601	706264	WORD	n/a	wordpools/wordpool_categorized_EN.txt	OCEAN	Landscapes	10	6	[0, 0, 0]	n/a	catFR1	2	R1515T
702.215	0.866	707865	WORD_OFF	n/a	n/a	OCEAN	Landscapes	10	6	[0, 0, 0]	n/a	catFR1	2	R1515T
703.081	1.601	708739	WORD	n/a	wordpools/wordpool_categorized_EN.txt	SANDER	Tools	11	6	[0, 0, 0]	n/a	catFR1	2	R1515T
704.682	0.949	710340	WORD_OFF	n/a	n/a	SANDER	Tools	11	6	[0, 0, 0]	n/a	catFR1	2	R1515T
705.631	1.601	711283	WORD	n/a	wordpools/wordpool_categorized_EN.txt	SHOVEL	Tools	12	6	[0, 0, 0]	n/a	catFR1	2	R1515T
707.232	0.001	712884	WORD_OFF	n/a	n/a	SHOVEL	Tools	12	6	[0, 0, 0]	n/a	catFR1	2	R1515T
707.233	0.0	712884	ENCODING_END	n/a	n/a	n/a	n/a	-999	6	[0, 0, 0]	n/a	catFR1	2	R1515T
707.233	0.0	712884	DISTRACT_START	n/a	n/a	n/a	n/a	-999	6	[0, 0, 0]	n/a	catFR1	2	R1515T
707.232	0.001	712889	PROB	0.001	n/a	n/a	n/a	-999	6	[2, 4, 7]	13	catFR1	2	R1515T
707.233	5.499	712890	START	n/a	n/a	n/a	n/a	-999	6	[-999, -999, -999]	n/a	catFR1	2	R1515T
712.732	3.4	718389	PROB	3.4	n/a	n/a	n/a	-999	6	[1, 7, 6]	14	catFR1	2	R1515T
716.132	4.217	721789	PROB	4.217	n/a	n/a	n/a	-999	6	[4, 1, 8]	13	catFR1	2	R1515T
720.349	3.318	726006	PROB	3.318	n/a	n/a	n/a	-999	6	[2, 5, 2]	9	catFR1	2	R1515T
723.667	4.014	729324	PROB	4.014	n/a	n/a	n/a	-999	6	[7, 7, 5]	19	catFR1	2	R1515T
727.681	0.0	733333	DISTRACT_END	n/a	n/a	n/a	n/a	-999	6	[0, 0, 0]	n/a	catFR1	2	R1515T
727.681	1.301	733337	STOP	n/a	n/a	n/a	n/a	-999	6	[-999, -999, -999]	n/a	catFR1	2	R1515T
728.982	0.182	734639	REC_START	n/a	n/a	n/a	n/a	-999	6	[0, 0, 0]	n/a	catFR1	2	R1515T
729.164	1.793	734820	REC_WORD	1.793	n/a	FOREST	Landscapes	9	6	[0, 0, 0]	n/a	catFR1	2	R1515T
730.957	2.502	736613	REC_WORD	2.502	n/a	OCEAN	Landscapes	10	6	[0, 0, 0]	n/a	catFR1	2	R1515T
733.459	5.806	739115	REC_WORD	5.806	n/a	PLIERS	Tools	5	6	[0, 0, 0]	n/a	catFR1	2	R1515T
739.265	3.673	744921	REC_WORD_VV	3.673	n/a	<>	n/a	-999	6	[0, 0, 0]	n/a	catFR1	2	R1515T
742.938	2.534	748594	REC_WORD_VV	2.534	n/a	<>	n/a	-999	6	[0, 0, 0]	n/a	catFR1	2	R1515T
745.472	4.607	751128	REC_WORD	4.607	n/a	TREES	n/a	-999	6	[0, 0, 0]	n/a	catFR1	2	R1515T
750.079	2.663	755734	REC_WORD_VV	2.663	n/a	<>	n/a	-999	6	[0, 0, 0]	n/a	catFR1	2	R1515T
752.742	0.185	758397	REC_WORD_VV	0.185	n/a	<>	n/a	-999	6	[0, 0, 0]	n/a	catFR1	2	R1515T
752.927	0.574	758582	REC_WORD	0.574	n/a	CARDINAL	Birds	1	6	[0, 0, 0]	n/a	catFR1	2	R1515T
753.501	0.714	759156	REC_WORD	0.714	n/a	SPARROW	Birds	2	6	[0, 0, 0]	n/a	catFR1	2	R1515T
754.215	3.313	759870	REC_WORD	3.313	n/a	CROW	Birds	8	6	[0, 0, 0]	n/a	catFR1	2	R1515T
757.528	1.0	763183	REC_WORD_VV	1.0	n/a	<>	n/a	-999	6	[0, 0, 0]	n/a	catFR1	2	R1515T
758.528	1.646	764183	REC_WORD_VV	1.646	n/a	<>	n/a	-999	6	[0, 0, 0]	n/a	catFR1	2	R1515T
760.174	3.158	765823	REC_END	n/a	n/a	n/a	n/a	-999	6	[0, 0, 0]	n/a	catFR1	2	R1515T
763.332	10.35	768986	COUNTDOWN_START	n/a	n/a	n/a	n/a	-999	6	[0, 0, 0]	n/a	catFR1	2	R1515T
773.682	0.0	779328	COUNTDOWN_END	n/a	n/a	n/a	n/a	-999	6	[0, 0, 0]	n/a	catFR1	2	R1515T
773.682	2.216	779338	ENCODING_START	n/a	n/a	n/a	n/a	-999	7	[0, 0, 0]	n/a	catFR1	2	R1515T
775.898	1.6	781548	WORD	n/a	wordpools/wordpool_categorized_EN.txt	PANDA	Zoo	1	7	[0, 0, 0]	n/a	catFR1	2	R1515T
777.498	0.783	783149	WORD_OFF	n/a	n/a	PANDA	Zoo	1	7	[0, 0, 0]	n/a	catFR1	2	R1515T
778.281	1.617	783934	WORD	n/a	wordpools/wordpool_categorized_EN.txt	ORANGUTAN	Zoo	2	7	[0, 0, 0]	n/a	catFR1	2	R1515T
779.898	0.984	785545	WORD_OFF	n/a	n/a	ORANGUTAN	Zoo	2	7	[0, 0, 0]	n/a	catFR1	2	R1515T
780.882	1.615	786527	WORD	n/a	wordpools/wordpool_categorized_EN.txt	TOASTER	Appliances	3	7	[0, 0, 0]	n/a	catFR1	2	R1515T
782.497	0.868	788148	WORD_OFF	n/a	n/a	TOASTER	Appliances	3	7	[0, 0, 0]	n/a	catFR1	2	R1515T
783.365	1.616	789012	WORD	n/a	wordpools/wordpool_categorized_EN.txt	IRON	Appliances	4	7	[0, 0, 0]	n/a	catFR1	2	R1515T
784.981	0.984	790633	WORD_OFF	n/a	n/a	IRON	Appliances	4	7	[0, 0, 0]	n/a	catFR1	2	R1515T
785.965	1.6	791615	WORD	n/a	wordpools/wordpool_categorized_EN.txt	BANANA	Fruit	5	7	[0, 0, 0]	n/a	catFR1	2	R1515T
787.565	0.767	793216	WORD_OFF	n/a	n/a	BANANA	Fruit	5	7	[0, 0, 0]	n/a	catFR1	2	R1515T
788.332	1.599	793982	WORD	n/a	wordpools/wordpool_categorized_EN.txt	STRAWBERRY	Fruit	6	7	[0, 0, 0]	n/a	catFR1	2	R1515T
789.931	0.901	795583	WORD_OFF	n/a	n/a	STRAWBERRY	Fruit	6	7	[0, 0, 0]	n/a	catFR1	2	R1515T
790.832	1.616	796477	WORD	n/a	wordpools/wordpool_categorized_EN.txt	BEAR	Zoo	7	7	[0, 0, 0]	n/a	catFR1	2	R1515T
792.448	0.999	798097	WORD_OFF	n/a	n/a	BEAR	Zoo	7	7	[0, 0, 0]	n/a	catFR1	2	R1515T
793.447	1.601	799099	WORD	n/a	wordpools/wordpool_categorized_EN.txt	CHEETAH	Zoo	8	7	[0, 0, 0]	n/a	catFR1	2	R1515T
795.048	0.883	800700	WORD_OFF	n/a	n/a	CHEETAH	Zoo	8	7	[0, 0, 0]	n/a	catFR1	2	R1515T
795.931	1.616	801584	WORD	n/a	wordpools/wordpool_categorized_EN.txt	BLUEBERRY	Fruit	9	7	[0, 0, 0]	n/a	catFR1	2	R1515T
797.547	0.85	803195	WORD_OFF	n/a	n/a	BLUEBERRY	Fruit	9	7	[0, 0, 0]	n/a	catFR1	2	R1515T
798.397	1.6	804049	WORD	n/a	wordpools/wordpool_categorized_EN.txt	LIME	Fruit	10	7	[0, 0, 0]	n/a	catFR1	2	R1515T
799.997	0.835	805650	WORD_OFF	n/a	n/a	LIME	Fruit	10	7	[0, 0, 0]	n/a	catFR1	2	R1515T
800.832	1.616	806485	WORD	n/a	wordpools/wordpool_categorized_EN.txt	DISHWASHER	Appliances	11	7	[0, 0, 0]	n/a	catFR1	2	R1515T
802.448	0.867	808096	WORD_OFF	n/a	n/a	DISHWASHER	Appliances	11	7	[0, 0, 0]	n/a	catFR1	2	R1515T
803.315	1.617	808960	WORD	n/a	wordpools/wordpool_categorized_EN.txt	STOVE	Appliances	12	7	[0, 0, 0]	n/a	catFR1	2	R1515T
804.932	0.001	810581	WORD_OFF	n/a	n/a	STOVE	Appliances	12	7	[0, 0, 0]	n/a	catFR1	2	R1515T
804.933	0.0	810581	ENCODING_END	n/a	n/a	n/a	n/a	-999	7	[0, 0, 0]	n/a	catFR1	2	R1515T
804.933	0.0	810581	DISTRACT_START	n/a	n/a	n/a	n/a	-999	7	[0, 0, 0]	n/a	catFR1	2	R1515T
804.932	0.001	810585	PROB	0.001	n/a	n/a	n/a	-999	7	[3, 3, 3]	9	catFR1	2	R1515T
804.933	2.183	810586	START	n/a	n/a	n/a	n/a	-999	7	[-999, -999, -999]	n/a	catFR1	2	R1515T
807.116	2.616	812768	PROB	2.616	n/a	n/a	n/a	-999	7	[1, 6, 2]	9	catFR1	2	R1515T
809.732	5.951	815384	PROB	5.951	n/a	n/a	n/a	-999	7	[7, 6, 7]	20	catFR1	2	R1515T
815.683	3.699	821335	PROB	3.699	n/a	n/a	n/a	-999	7	[3, 2, 4]	9	catFR1	2	R1515T
819.382	3.7	825034	PROB	3.7	n/a	n/a	n/a	-999	7	[4, 6, 6]	16	catFR1	2	R1515T
823.082	2.751	828734	PROB	2.751	n/a	n/a	n/a	-999	7	[4, 1, 3]	8	catFR1	2	R1515T
825.833	0.0	831482	DISTRACT_END	n/a	n/a	n/a	n/a	-999	7	[0, 0, 0]	n/a	catFR1	2	R1515T
825.833	1.282	831485	STOP	n/a	n/a	n/a	n/a	-999	7	[-999, -999, -999]	n/a	catFR1	2	R1515T
827.115	0.0	832758	REC_START	n/a	n/a	n/a	n/a	-999	7	[0, 0, 0]	n/a	catFR1	2	R1515T
827.115	0.541	832766	REC_WORD	0.541	n/a	PANDA	Zoo	1	7	[0, 0, 0]	n/a	catFR1	2	R1515T
827.656	1.951	833307	REC_WORD	1.951	n/a	ORANGUTAN	Zoo	2	7	[0, 0, 0]	n/a	catFR1	2	R1515T
829.607	1.0	835258	REC_WORD	1.0	n/a	CHIMPANZEE	Zoo	-999	7	[0, 0, 0]	n/a	catFR1	2	R1515T
830.607	1.375	836258	REC_WORD	1.375	n/a	CHIMPANZEE	Zoo	-999	7	[0, 0, 0]	n/a	catFR1	2	R1515T
831.982	1.97	837633	REC_WORD_VV	1.97	n/a	<>	n/a	-999	7	[0, 0, 0]	n/a	catFR1	2	R1515T
833.952	0.927	839603	REC_WORD	0.927	n/a	LIME	Fruit	10	7	[0, 0, 0]	n/a	catFR1	2	R1515T
834.879	1.0	840530	REC_WORD	1.0	n/a	STRAWBERRY	Fruit	6	7	[0, 0, 0]	n/a	catFR1	2	R1515T
835.879	6.089	841530	REC_WORD	6.089	n/a	STRAWBERRY	Fruit	6	7	[0, 0, 0]	n/a	catFR1	2	R1515T
841.968	0.959	847619	REC_WORD	0.959	n/a	TOASTER	Appliances	3	7	[0, 0, 0]	n/a	catFR1	2	R1515T
842.927	2.193	848578	REC_WORD	2.193	n/a	STOVE	Appliances	12	7	[0, 0, 0]	n/a	catFR1	2	R1515T
845.12	5.48	850771	REC_WORD	5.48	n/a	IRON	Appliances	4	7	[0, 0, 0]	n/a	catFR1	2	R1515T
850.6	0.415	856250	REC_WORD_VV	0.415	n/a	<>	n/a	-999	7	[0, 0, 0]	n/a	catFR1	2	R1515T
851.015	3.993	856665	REC_WORD	3.993	n/a	PANDA	Zoo	1	7	[0, 0, 0]	n/a	catFR1	2	R1515T
855.008	3.298	860658	REC_WORD_VV	3.298	n/a	<>	n/a	-999	7	[0, 0, 0]	n/a	catFR1	2	R1515T
858.306	1.458	863952	REC_END	n/a	n/a	n/a	n/a	-999	7	[0, 0, 0]	n/a	catFR1	2	R1515T
859.764	10.35	865416	COUNTDOWN_START	n/a	n/a	n/a	n/a	-999	7	[0, 0, 0]	n/a	catFR1	2	R1515T
870.114	0.0	875758	COUNTDOWN_END	n/a	n/a	n/a	n/a	-999	7	[0, 0, 0]	n/a	catFR1	2	R1515T
870.114	1.834	875758	ENCODING_START	n/a	n/a	n/a	n/a	-999	8	[0, 0, 0]	n/a	catFR1	2	R1515T
871.948	1.6	877595	WORD	n/a	wordpools/wordpool_categorized_EN.txt	PEACH	Fruit	1	8	[0, 0, 0]	n/a	catFR1	2	R1515T
873.548	0.899	879196	WORD_OFF	n/a	n/a	PEACH	Fruit	1	8	[0, 0, 0]	n/a	catFR1	2	R1515T
874.447	1.601	880090	WORD	n/a	wordpools/wordpool_categorized_EN.txt	PEAR	Fruit	2	8	[0, 0, 0]	n/a	catFR1	2	R1515T
876.048	0.884	881691	WORD_OFF	n/a	n/a	PEAR	Fruit	2	8	[0, 0, 0]	n/a	catFR1	2	R1515T
876.932	1.616	882574	WORD	n/a	wordpools/wordpool_categorized_EN.txt	WHALE	OceanAnimals	3	8	[0, 0, 0]	n/a	catFR1	2	R1515T
878.548	0.85	884195	WORD_OFF	n/a	n/a	WHALE	OceanAnimals	3	8	[0, 0, 0]	n/a	catFR1	2	R1515T
879.398	1.617	885040	WORD	n/a	wordpools/wordpool_categorized_EN.txt	JELLYFISH	OceanAnimals	4	8	[0, 0, 0]	n/a	catFR1	2	R1515T
881.015	0.766	886660	WORD_OFF	n/a	n/a	JELLYFISH	OceanAnimals	4	8	[0, 0, 0]	n/a	catFR1	2	R1515T
881.781	1.601	887426	WORD	n/a	wordpools/wordpool_categorized_EN.txt	DRYER	Appliances	5	8	[0, 0, 0]	n/a	catFR1	2	R1515T
883.382	0.948	889027	WORD_OFF	n/a	n/a	DRYER	Appliances	5	8	[0, 0, 0]	n/a	catFR1	2	R1515T
884.33	1.602	889970	WORD	n/a	wordpools/wordpool_categorized_EN.txt	OVEN	Appliances	6	8	[0, 0, 0]	n/a	catFR1	2	R1515T
885.932	0.95	891571	WORD_OFF	n/a	n/a	OVEN	Appliances	6	8	[0, 0, 0]	n/a	catFR1	2	R1515T
886.882	1.6	892524	WORD	n/a	wordpools/wordpool_categorized_EN.txt	TURTLE	OceanAnimals	7	8	[0, 0, 0]	n/a	catFR1	2	R1515T
888.482	0.783	894125	WORD_OFF	n/a	n/a	TURTLE	OceanAnimals	7	8	[0, 0, 0]	n/a	catFR1	2	R1515T
889.265	1.615	894911	WORD	n/a	wordpools/wordpool_categorized_EN.txt	LOBSTER	OceanAnimals	8	8	[0, 0, 0]	n/a	catFR1	2	R1515T
890.88	0.985	896521	WORD_OFF	n/a	n/a	LOBSTER	OceanAnimals	8	8	[0, 0, 0]	n/a	catFR1	2	R1515T
891.865	1.617	897513	WORD	n/a	wordpools/wordpool_categorized_EN.txt	MIXER	Appliances	9	8	[0, 0, 0]	n/a	catFR1	2	R1515T
893.482	0.866	899124	WORD_OFF	n/a	n/a	MIXER	Appliances	9	8	[0, 0, 0]	n/a	catFR1	2	R1515T
894.348	1.6	899988	WORD	n/a	wordpools/wordpool_categorized_EN.txt	FREEZER	Appliances	10	8	[0, 0, 0]	n/a	catFR1	2	R1515T
895.948	0.966	901589	WORD_OFF	n/a	n/a	FREEZER	Appliances	10	8	[0, 0, 0]	n/a	catFR1	2	R1515T
896.914	1.616	902562	WORD	n/a	wordpools/wordpool_categorized_EN.txt	CHERRY	Fruit	11	8	[0, 0, 0]	n/a	catFR1	2	R1515T
898.53	0.767	904173	WORD_OFF	n/a	n/a	CHERRY	Fruit	11	8	[0, 0, 0]	n/a	catFR1	2	R1515T
899.297	1.601	904939	WORD	n/a	wordpools/wordpool_categorized_EN.txt	LEMON	Fruit	12	8	[0, 0, 0]	n/a	catFR1	2	R1515T
900.898	0.001	906540	WORD_OFF	n/a	n/a	LEMON	Fruit	12	8	[0, 0, 0]	n/a	catFR1	2	R1515T
900.899	0.0	906540	ENCODING_END	n/a	n/a	n/a	n/a	-999	8	[0, 0, 0]	n/a	catFR1	2	R1515T
900.899	0.0	906547	PROB	0.0	n/a	n/a	n/a	-999	8	[5, 7, 5]	17	catFR1	2	R1515T
900.899	0.0	906547	START	n/a	n/a	n/a	n/a	-999	8	[-999, -999, -999]	n/a	catFR1	2	R1515T
900.899	2.899	906549	DISTRACT_START	n/a	n/a	n/a	n/a	-999	8	[0, 0, 0]	n/a	catFR1	2	R1515T
903.798	2.884	909446	PROB	2.884	n/a	n/a	n/a	-999	8	[1, 4, 7]	12	catFR1	2	R1515T
906.682	2.917	912329	PROB	2.917	n/a	n/a	n/a	-999	8	[2, 8, 7]	17	catFR1	2	R1515T
909.599	3.75	915246	PROB	3.75	n/a	n/a	n/a	-999	8	[7, 8, 7]	22	catFR1	2	R1515T
913.349	3.234	918996	PROB	3.234	n/a	n/a	n/a	-999	8	[3, 1, 5]	9	catFR1	2	R1515T
916.583	2.716	922230	PROB	2.716	n/a	n/a	n/a	-999	8	[1, 6, 1]	8	catFR1	2	R1515T
919.299	4.733	924946	PROB	4.733	n/a	n/a	n/a	-999	8	[2, 6, 7]	15	catFR1	2	R1515T
924.032	0.0	929670	DISTRACT_END	n/a	n/a	n/a	n/a	-999	8	[0, 0, 0]	n/a	catFR1	2	R1515T
924.032	1.166	929679	STOP	n/a	n/a	n/a	n/a	-999	8	[-999, -999, -999]	n/a	catFR1	2	R1515T
925.198	0.0	930839	REC_START	n/a	n/a	n/a	n/a	-999	8	[0, 0, 0]	n/a	catFR1	2	R1515T
925.198	0.557	930845	REC_WORD	0.557	n/a	PEACH	Fruit	1	8	[0, 0, 0]	n/a	catFR1	2	R1515T
925.755	2.609	931401	REC_WORD	2.609	n/a	PEAR	Fruit	2	8	[0, 0, 0]	n/a	catFR1	2	R1515T
928.364	1.227	934010	REC_WORD	1.227	n/a	LOBSTER	OceanAnimals	8	8	[0, 0, 0]	n/a	catFR1	2	R1515T
929.591	1.0	935237	REC_WORD	1.0	n/a	JELLYFISH	OceanAnimals	4	8	[0, 0, 0]	n/a	catFR1	2	R1515T
930.591	9.008	936237	REC_WORD	9.008	n/a	WHALE	OceanAnimals	3	8	[0, 0, 0]	n/a	catFR1	2	R1515T
939.599	1.488	945245	REC_WORD_VV	1.488	n/a	<>	n/a	-999	8	[0, 0, 0]	n/a	catFR1	2	R1515T
941.087	0.395	946733	REC_WORD	0.395	n/a	PEACH	Fruit	1	8	[0, 0, 0]	n/a	catFR1	2	R1515T
941.482	5.713	947128	REC_WORD	5.713	n/a	PEAR	Fruit	2	8	[0, 0, 0]	n/a	catFR1	2	R1515T
947.195	0.294	952840	REC_WORD_VV	0.294	n/a	<>	n/a	-999	8	[0, 0, 0]	n/a	catFR1	2	R1515T
947.489	4.228	953134	REC_WORD	4.228	n/a	CHERRY	Fruit	11	8	[0, 0, 0]	n/a	catFR1	2	R1515T
951.717	4.677	957362	REC_WORD_VV	4.677	n/a	<>	n/a	-999	8	[0, 0, 0]	n/a	catFR1	2	R1515T
956.394	1.553	962033	REC_END	n/a	n/a	n/a	n/a	-999	8	[0, 0, 0]	n/a	catFR1	2	R1515T
957.947	10.351	963594	COUNTDOWN_START	n/a	n/a	n/a	n/a	-999	8	[0, 0, 0]	n/a	catFR1	2	R1515T
968.298	0.0	973937	COUNTDOWN_END	n/a	n/a	n/a	n/a	-999	8	[0, 0, 0]	n/a	catFR1	2	R1515T
968.298	1.932	973937	ENCODING_START	n/a	n/a	n/a	n/a	-999	9	[0, 0, 0]	n/a	catFR1	2	R1515T
970.23	1.602	975872	WORD	n/a	wordpools/wordpool_categorized_EN.txt	HEAD	BodyParts	1	9	[0, 0, 0]	n/a	catFR1	2	R1515T
971.832	0.933	977472	WORD_OFF	n/a	n/a	HEAD	BodyParts	1	9	[0, 0, 0]	n/a	catFR1	2	R1515T
972.765	1.6	978406	WORD	n/a	wordpools/wordpool_categorized_EN.txt	FINGERS	BodyParts	2	9	[0, 0, 0]	n/a	catFR1	2	R1515T
974.365	0.933	980006	WORD_OFF	n/a	n/a	FINGERS	BodyParts	2	9	[0, 0, 0]	n/a	catFR1	2	R1515T
975.298	1.617	980940	WORD	n/a	wordpools/wordpool_categorized_EN.txt	ROACH	Insects	3	9	[0, 0, 0]	n/a	catFR1	2	R1515T
976.915	1.0	982550	WORD_OFF	n/a	n/a	ROACH	Insects	3	9	[0, 0, 0]	n/a	catFR1	2	R1515T
977.915	1.617	983552	WORD	n/a	wordpools/wordpool_categorized_EN.txt	MOTH	Insects	4	9	[0, 0, 0]	n/a	catFR1	2	R1515T
979.532	0.849	985173	WORD_OFF	n/a	n/a	MOTH	Insects	4	9	[0, 0, 0]	n/a	catFR1	2	R1515T
980.381	1.617	986017	WORD	n/a	wordpools/wordpool_categorized_EN.txt	BLENDER	Appliances	5	9	[0, 0, 0]	n/a	catFR1	2	R1515T
981.998	0.983	987638	WORD_OFF	n/a	n/a	BLENDER	Appliances	5	9	[0, 0, 0]	n/a	catFR1	2	R1515T
982.981	1.617	988620	WORD	n/a	wordpools/wordpool_categorized_EN.txt	WASHER	Appliances	6	9	[0, 0, 0]	n/a	catFR1	2	R1515T
984.598	0.866	990241	WORD_OFF	n/a	n/a	WASHER	Appliances	6	9	[0, 0, 0]	n/a	catFR1	2	R1515T
985.464	1.6	991105	WORD	n/a	wordpools/wordpool_categorized_EN.txt	ELBOW	BodyParts	7	9	[0, 0, 0]	n/a	catFR1	2	R1515T
987.064	0.967	992706	WORD_OFF	n/a	n/a	ELBOW	BodyParts	7	9	[0, 0, 0]	n/a	catFR1	2	R1515T
988.031	1.601	993669	WORD	n/a	wordpools/wordpool_categorized_EN.txt	EAR	BodyParts	8	9	[0, 0, 0]	n/a	catFR1	2	R1515T
989.632	0.833	995270	WORD_OFF	n/a	n/a	EAR	BodyParts	8	9	[0, 0, 0]	n/a	catFR1	2	R1515T
990.465	1.615	996104	WORD	n/a	wordpools/wordpool_categorized_EN.txt	VACUUM	Appliances	9	9	[0, 0, 0]	n/a	catFR1	2	R1515T
992.08	0.835	997715	WORD_OFF	n/a	n/a	VACUUM	Appliances	9	9	[0, 0, 0]	n/a	catFR1	2	R1515T
992.915	1.617	998550	WORD	n/a	wordpools/wordpool_categorized_EN.txt	REFRIGERATOR	Appliances	10	9	[0, 0, 0]	n/a	catFR1	2	R1515T
994.532	0.799	1000171	WORD_OFF	n/a	n/a	REFRIGERATOR	Appliances	10	9	[0, 0, 0]	n/a	catFR1	2	R1515T
995.331	1.601	1000966	WORD	n/a	wordpools/wordpool_categorized_EN.txt	SPIDER	Insects	11	9	[0, 0, 0]	n/a	catFR1	2	R1515T
996.932	0.948	1002567	WORD_OFF	n/a	n/a	SPIDER	Insects	11	9	[0, 0, 0]	n/a	catFR1	2	R1515T
997.88	1.601	1003520	WORD	n/a	wordpools/wordpool_categorized_EN.txt	MOSQUITO	Insects	12	9	[0, 0, 0]	n/a	catFR1	2	R1515T
999.481	0.001	1005121	WORD_OFF	n/a	n/a	MOSQUITO	Insects	12	9	[0, 0, 0]	n/a	catFR1	2	R1515T
999.482	0.0	1005121	ENCODING_END	n/a	n/a	n/a	n/a	-999	9	[0, 0, 0]	n/a	catFR1	2	R1515T
999.482	0.0	1005121	DISTRACT_START	n/a	n/a	n/a	n/a	-999	9	[0, 0, 0]	n/a	catFR1	2	R1515T
999.481	0.001	1005124	PROB	0.001	n/a	n/a	n/a	-999	9	[6, 4, 8]	18	catFR1	2	R1515T
999.482	4.867	1005125	START	n/a	n/a	n/a	n/a	-999	9	[-999, -999, -999]	n/a	catFR1	2	R1515T
1004.349	3.683	1009992	PROB	3.683	n/a	n/a	n/a	-999	9	[6, 4, 5]	15	catFR1	2	R1515T
1008.032	6.25	1013674	PROB	6.25	n/a	n/a	n/a	-999	9	[5, 6, 2]	13	catFR1	2	R1515T
1014.282	3.583	1019924	PROB	3.583	n/a	n/a	n/a	-999	9	[1, 1, 8]	10	catFR1	2	R1515T
1017.865	2.933	1023507	PROB	2.933	n/a	n/a	n/a	-999	9	[6, 4, 6]	16	catFR1	2	R1515T
1020.798	0.0	1026434	DISTRACT_END	n/a	n/a	n/a	n/a	-999	9	[0, 0, 0]	n/a	catFR1	2	R1515T
1020.798	1.4	1026440	STOP	n/a	n/a	n/a	n/a	-999	9	[-999, -999, -999]	n/a	catFR1	2	R1515T
1022.198	1.268	1027839	REC_START	n/a	n/a	n/a	n/a	-999	9	[0, 0, 0]	n/a	catFR1	2	R1515T
1023.466	1.0	1029108	REC_WORD	1.0	n/a	REFRIGERATOR	Appliances	10	9	[0, 0, 0]	n/a	catFR1	2	R1515T
1024.466	0.86	1030108	REC_WORD	0.86	n/a	REFRIGERATOR	Appliances	10	9	[0, 0, 0]	n/a	catFR1	2	R1515T
1025.326	2.383	1030967	REC_WORD	2.383	n/a	BLENDER	Appliances	5	9	[0, 0, 0]	n/a	catFR1	2	R1515T
1027.709	1.239	1033350	REC_WORD	1.239	n/a	SPIDER	Insects	11	9	[0, 0, 0]	n/a	catFR1	2	R1515T
1028.948	6.958	1034589	REC_WORD	6.958	n/a	MOSQUITO	Insects	12	9	[0, 0, 0]	n/a	catFR1	2	R1515T
1035.906	3.618	1041547	REC_WORD_VV	3.618	n/a	<>	n/a	-999	9	[0, 0, 0]	n/a	catFR1	2	R1515T
1039.524	6.032	1045165	REC_WORD	6.032	n/a	MIXER	Appliances	-999	9	[0, 0, 0]	n/a	catFR1	2	R1515T
1045.556	7.844	1051196	REC_WORD	7.844	n/a	DISHWASHER	Appliances	-999	9	[0, 0, 0]	n/a	catFR1	2	R1515T
1053.4	1.848	1059032	REC_END	n/a	n/a	n/a	n/a	-999	9	[0, 0, 0]	n/a	catFR1	2	R1515T
1055.248	10.35	1060889	COUNTDOWN_START	n/a	n/a	n/a	n/a	-999	9	[0, 0, 0]	n/a	catFR1	2	R1515T
1065.598	0.0	1071231	COUNTDOWN_END	n/a	n/a	n/a	n/a	-999	9	[0, 0, 0]	n/a	catFR1	2	R1515T
1065.598	2.281	1071231	ENCODING_START	n/a	n/a	n/a	n/a	-999	10	[0, 0, 0]	n/a	catFR1	2	R1515T
1067.879	1.602	1073510	WORD	n/a	wordpools/wordpool_categorized_EN.txt	JEEP	Vehicles	1	10	[0, 0, 0]	n/a	catFR1	2	R1515T
1069.481	0.834	1075121	WORD_OFF	n/a	n/a	JEEP	Vehicles	1	10	[0, 0, 0]	n/a	catFR1	2	R1515T
1070.315	1.617	1075946	WORD	n/a	wordpools/wordpool_categorized_EN.txt	MOPED	Vehicles	2	10	[0, 0, 0]	n/a	catFR1	2	R1515T
1071.932	0.883	1077566	WORD_OFF	n/a	n/a	MOPED	Vehicles	2	10	[0, 0, 0]	n/a	catFR1	2	R1515T
1072.815	1.617	1078450	WORD	n/a	wordpools/wordpool_categorized_EN.txt	PEELER	KitchenTools	3	10	[0, 0, 0]	n/a	catFR1	2	R1515T
1074.432	0.799	1080071	WORD_OFF	n/a	n/a	PEELER	KitchenTools	3	10	[0, 0, 0]	n/a	catFR1	2	R1515T
1075.231	1.6	1080866	WORD	n/a	wordpools/wordpool_categorized_EN.txt	WHISK	KitchenTools	4	10	[0, 0, 0]	n/a	catFR1	2	R1515T
1076.831	0.851	1082467	WORD_OFF	n/a	n/a	WHISK	KitchenTools	4	10	[0, 0, 0]	n/a	catFR1	2	R1515T
1077.682	1.616	1083312	WORD	n/a	wordpools/wordpool_categorized_EN.txt	LEATHER	Fabric	5	10	[0, 0, 0]	n/a	catFR1	2	R1515T
1079.298	0.967	1084932	WORD_OFF	n/a	n/a	LEATHER	Fabric	5	10	[0, 0, 0]	n/a	catFR1	2	R1515T
1080.265	1.601	1085895	WORD	n/a	wordpools/wordpool_categorized_EN.txt	SUEDE	Fabric	6	10	[0, 0, 0]	n/a	catFR1	2	R1515T
1081.866	0.799	1087496	WORD_OFF	n/a	n/a	SUEDE	Fabric	6	10	[0, 0, 0]	n/a	catFR1	2	R1515T
1082.665	1.6	1088301	WORD	n/a	wordpools/wordpool_categorized_EN.txt	STRAINER	KitchenTools	7	10	[0, 0, 0]	n/a	catFR1	2	R1515T
1084.265	0.8	1089902	WORD_OFF	n/a	n/a	STRAINER	KitchenTools	7	10	[0, 0, 0]	n/a	catFR1	2	R1515T
1085.065	1.6	1090698	WORD	n/a	wordpools/wordpool_categorized_EN.txt	TONGS	KitchenTools	8	10	[0, 0, 0]	n/a	catFR1	2	R1515T
1086.665	0.95	1092299	WORD_OFF	n/a	n/a	TONGS	KitchenTools	8	10	[0, 0, 0]	n/a	catFR1	2	R1515T
1087.615	1.6	1093252	WORD	n/a	wordpools/wordpool_categorized_EN.txt	SILK	Fabric	9	10	[0, 0, 0]	n/a	catFR1	2	R1515T
1089.215	0.914	1094852	WORD_OFF	n/a	n/a	SILK	Fabric	9	10	[0, 0, 0]	n/a	catFR1	2	R1515T
1090.129	1.602	1095766	WORD	n/a	wordpools/wordpool_categorized_EN.txt	VELVET	Fabric	10	10	[0, 0, 0]	n/a	catFR1	2	R1515T
1091.731	0.9	1097367	WORD_OFF	n/a	n/a	VELVET	Fabric	10	10	[0, 0, 0]	n/a	catFR1	2	R1515T
1092.631	1.616	1098270	WORD	n/a	wordpools/wordpool_categorized_EN.txt	VAN	Vehicles	11	10	[0, 0, 0]	n/a	catFR1	2	R1515T
1094.247	1.001	1099881	WORD_OFF	n/a	n/a	VAN	Vehicles	11	10	[0, 0, 0]	n/a	catFR1	2	R1515T
1095.248	1.618	1100883	WORD	n/a	wordpools/wordpool_categorized_EN.txt	TRAIN	Vehicles	12	10	[0, 0, 0]	n/a	catFR1	2	R1515T
1096.866	0.002	1102504	WORD_OFF	n/a	n/a	TRAIN	Vehicles	12	10	[0, 0, 0]	n/a	catFR1	2	R1515T
1096.868	0.0	1102504	ENCODING_END	n/a	n/a	n/a	n/a	-999	10	[0, 0, 0]	n/a	catFR1	2	R1515T
1096.868	0.0	1102504	DISTRACT_START	n/a	n/a	n/a	n/a	-999	10	[0, 0, 0]	n/a	catFR1	2	R1515T
1096.866	0.002	1102504	PROB	0.002	n/a	n/a	n/a	-999	10	[1, 4, 6]	11	catFR1	2	R1515T
1096.868	2.564	1102506	START	n/a	n/a	n/a	n/a	-999	10	[-999, -999, -999]	n/a	catFR1	2	R1515T
1099.432	5.266	1105070	PROB	5.266	n/a	n/a	n/a	-999	10	[4, 4, 7]	15	catFR1	2	R1515T
1104.698	3.517	1110335	PROB	3.517	n/a	n/a	n/a	-999	10	[6, 1, 8]	15	catFR1	2	R1515T
1108.215	3.3	1113852	PROB	3.3	n/a	n/a	n/a	-999	10	[5, 2, 3]	10	catFR1	2	R1515T
1111.515	2.833	1117152	PROB	2.833	n/a	n/a	n/a	-999	10	[4, 1, 5]	10	catFR1	2	R1515T
1114.348	4.366	1119985	PROB	4.366	n/a	n/a	n/a	-999	10	[2, 3, 5]	10	catFR1	2	R1515T
1118.714	0.0	1124347	DISTRACT_END	n/a	n/a	n/a	n/a	-999	10	[0, 0, 0]	n/a	catFR1	2	R1515T
1118.714	1.218	1124351	STOP	n/a	n/a	n/a	n/a	-999	10	[-999, -999, -999]	n/a	catFR1	2	R1515T
1119.932	0.15	1125565	REC_START	n/a	n/a	n/a	n/a	-999	10	[0, 0, 0]	n/a	catFR1	2	R1515T
1120.082	0.742	1125719	REC_WORD	0.742	n/a	WHISK	KitchenTools	4	10	[0, 0, 0]	n/a	catFR1	2	R1515T
1120.824	4.335	1126461	REC_WORD	4.335	n/a	TONGS	KitchenTools	8	10	[0, 0, 0]	n/a	catFR1	2	R1515T
1125.159	2.637	1130795	REC_WORD	2.637	n/a	PEELER	KitchenTools	3	10	[0, 0, 0]	n/a	catFR1	2	R1515T
1127.796	0.772	1133432	REC_WORD	0.772	n/a	VAN	Vehicles	11	10	[0, 0, 0]	n/a	catFR1	2	R1515T
1128.568	5.821	1134204	REC_WORD	5.821	n/a	TRAIN	Vehicles	12	10	[0, 0, 0]	n/a	catFR1	2	R1515T
1134.389	3.183	1140025	REC_WORD_VV	3.183	n/a	<>	n/a	-999	10	[0, 0, 0]	n/a	catFR1	2	R1515T
1137.572	1.0	1143208	REC_WORD_VV	1.0	n/a	<>	n/a	-999	10	[0, 0, 0]	n/a	catFR1	2	R1515T
1138.572	1.0	1144208	REC_WORD_VV	1.0	n/a	<>	n/a	-999	10	[0, 0, 0]	n/a	catFR1	2	R1515T
1139.572	4.83	1145208	REC_WORD_VV	4.83	n/a	<>	n/a	-999	10	[0, 0, 0]	n/a	catFR1	2	R1515T
1144.402	6.726	1150037	REC_WORD_VV	6.726	n/a	<>	n/a	-999	10	[0, 0, 0]	n/a	catFR1	2	R1515T
1151.128	1.637	1156759	REC_END	n/a	n/a	n/a	n/a	-999	10	[0, 0, 0]	n/a	catFR1	2	R1515T
1152.765	10.35	1158399	COUNTDOWN_START	n/a	n/a	n/a	n/a	-999	10	[0, 0, 0]	n/a	catFR1	2	R1515T
1163.115	0.0	1168742	COUNTDOWN_END	n/a	n/a	n/a	n/a	-999	10	[0, 0, 0]	n/a	catFR1	2	R1515T
1163.115	1.967	1168752	ENCODING_START	n/a	n/a	n/a	n/a	-999	11	[0, 0, 0]	n/a	catFR1	2	R1515T
1165.082	1.616	1170716	WORD	n/a	wordpools/wordpool_categorized_EN.txt	FOUNDATION	Building	1	11	[0, 0, 0]	n/a	catFR1	2	R1515T
1166.698	0.984	1172327	WORD_OFF	n/a	n/a	FOUNDATION	Building	1	11	[0, 0, 0]	n/a	catFR1	2	R1515T
1167.682	1.599	1173309	WORD	n/a	wordpools/wordpool_categorized_EN.txt	CEILING	Building	2	11	[0, 0, 0]	n/a	catFR1	2	R1515T
1169.281	0.933	1174910	WORD_OFF	n/a	n/a	CEILING	Building	2	11	[0, 0, 0]	n/a	catFR1	2	R1515T
1170.214	1.601	1175843	WORD	n/a	wordpools/wordpool_categorized_EN.txt	CAR	Vehicles	3	11	[0, 0, 0]	n/a	catFR1	2	R1515T
1171.815	0.933	1177444	WORD_OFF	n/a	n/a	CAR	Vehicles	3	11	[0, 0, 0]	n/a	catFR1	2	R1515T
1172.748	1.617	1178377	WORD	n/a	wordpools/wordpool_categorized_EN.txt	MOTORCYCLE	Vehicles	4	11	[0, 0, 0]	n/a	catFR1	2	R1515T
1174.365	0.883	1179997	WORD_OFF	n/a	n/a	MOTORCYCLE	Vehicles	4	11	[0, 0, 0]	n/a	catFR1	2	R1515T
1175.248	1.616	1180881	WORD	n/a	wordpools/wordpool_categorized_EN.txt	COAT	Clothing	5	11	[0, 0, 0]	n/a	catFR1	2	R1515T
1176.864	0.9	1182492	WORD_OFF	n/a	n/a	COAT	Clothing	5	11	[0, 0, 0]	n/a	catFR1	2	R1515T
1177.764	1.601	1183396	WORD	n/a	wordpools/wordpool_categorized_EN.txt	JACKET	Clothing	6	11	[0, 0, 0]	n/a	catFR1	2	R1515T
1179.365	0.817	1184997	WORD_OFF	n/a	n/a	JACKET	Clothing	6	11	[0, 0, 0]	n/a	catFR1	2	R1515T
1180.182	1.616	1185812	WORD	n/a	wordpools/wordpool_categorized_EN.txt	TRUCK	Vehicles	7	11	[0, 0, 0]	n/a	catFR1	2	R1515T
1181.798	0.9	1187423	WORD_OFF	n/a	n/a	TRUCK	Vehicles	7	11	[0, 0, 0]	n/a	catFR1	2	R1515T
1182.698	1.6	1188326	WORD	n/a	wordpools/wordpool_categorized_EN.txt	BUS	Vehicles	8	11	[0, 0, 0]	n/a	catFR1	2	R1515T
1184.298	1.0	1189927	WORD_OFF	n/a	n/a	BUS	Vehicles	8	11	[0, 0, 0]	n/a	catFR1	2	R1515T
1185.298	1.6	1190929	WORD	n/a	wordpools/wordpool_categorized_EN.txt	STAIRS	Building	9	11	[0, 0, 0]	n/a	catFR1	2	R1515T
1186.898	0.883	1192530	WORD_OFF	n/a	n/a	STAIRS	Building	9	11	[0, 0, 0]	n/a	catFR1	2	R1515T
1187.781	1.601	1193414	WORD	n/a	wordpools/wordpool_categorized_EN.txt	ROOM	Building	10	11	[0, 0, 0]	n/a	catFR1	2	R1515T
1189.382	0.899	1195015	WORD_OFF	n/a	n/a	ROOM	Building	10	11	[0, 0, 0]	n/a	catFR1	2	R1515T
1190.281	1.6	1195909	WORD	n/a	wordpools/wordpool_categorized_EN.txt	BLOUSE	Clothing	11	11	[0, 0, 0]	n/a	catFR1	2	R1515T
1191.881	0.9	1197510	WORD_OFF	n/a	n/a	BLOUSE	Clothing	11	11	[0, 0, 0]	n/a	catFR1	2	R1515T
1192.781	1.601	1198413	WORD	n/a	wordpools/wordpool_categorized_EN.txt	SOCKS	Clothing	12	11	[0, 0, 0]	n/a	catFR1	2	R1515T
1194.382	0.001	1200014	WORD_OFF	n/a	n/a	SOCKS	Clothing	12	11	[0, 0, 0]	n/a	catFR1	2	R1515T
1194.383	0.0	1200014	ENCODING_END	n/a	n/a	n/a	n/a	-999	11	[0, 0, 0]	n/a	catFR1	2	R1515T
1194.383	0.0	1200014	DISTRACT_START	n/a	n/a	n/a	n/a	-999	11	[0, 0, 0]	n/a	catFR1	2	R1515T
1194.382	0.001	1200015	PROB	0.001	n/a	n/a	n/a	-999	11	[1, 6, 4]	11	catFR1	2	R1515T
1194.383	4.098	1200016	START	n/a	n/a	n/a	n/a	-999	11	[-999, -999, -999]	n/a	catFR1	2	R1515T
1198.481	2.766	1204114	PROB	2.766	n/a	n/a	n/a	-999	11	[2, 4, 1]	7	catFR1	2	R1515T
1201.247	5.035	1206880	PROB	5.035	n/a	n/a	n/a	-999	11	[3, 6, 2]	11	catFR1	2	R1515T
1206.282	1.299	1211914	PROB	1.299	n/a	n/a	n/a	-999	11	[1, 1, 1]	3	catFR1	2	R1515T
1207.581	3.084	1213213	PROB	3.084	n/a	n/a	n/a	-999	11	[1, 5, 3]	9	catFR1	2	R1515T
1210.665	2.217	1216297	PROB	2.217	n/a	n/a	n/a	-999	11	[8, 5, 5]	18	catFR1	2	R1515T
1212.882	2.966	1218514	PROB	2.966	n/a	n/a	n/a	-999	11	[8, 1, 1]	10	catFR1	2	R1515T
1215.848	0.0	1221475	DISTRACT_END	n/a	n/a	n/a	n/a	-999	11	[0, 0, 0]	n/a	catFR1	2	R1515T
1215.848	1.1	1221480	STOP	n/a	n/a	n/a	n/a	-999	11	[-999, -999, -999]	n/a	catFR1	2	R1515T
1216.948	1.424	1222575	REC_START	n/a	n/a	n/a	n/a	-999	11	[0, 0, 0]	n/a	catFR1	2	R1515T
1218.372	0.418	1224004	REC_WORD_VV	0.418	n/a	<>	n/a	-999	11	[0, 0, 0]	n/a	catFR1	2	R1515T
1218.79	1.07	1224422	REC_WORD	1.07	n/a	BLOUSE	Clothing	11	11	[0, 0, 0]	n/a	catFR1	2	R1515T
1219.86	2.82	1225492	REC_WORD	2.82	n/a	JACKET	Clothing	6	11	[0, 0, 0]	n/a	catFR1	2	R1515T
1222.68	2.414	1228312	REC_WORD	2.414	n/a	COAT	Clothing	5	11	[0, 0, 0]	n/a	catFR1	2	R1515T
1225.094	0.865	1230725	REC_WORD	0.865	n/a	CAR	Vehicles	3	11	[0, 0, 0]	n/a	catFR1	2	R1515T
1225.959	0.741	1231590	REC_WORD	0.741	n/a	VAN	Vehicles	-999	11	[0, 0, 0]	n/a	catFR1	2	R1515T
1226.7	0.812	1232331	REC_WORD	0.812	n/a	BUS	Vehicles	8	11	[0, 0, 0]	n/a	catFR1	2	R1515T
1227.512	1.06	1233143	REC_WORD	1.06	n/a	TRAIN	Vehicles	-999	11	[0, 0, 0]	n/a	catFR1	2	R1515T
1228.572	4.22	1234203	REC_WORD	4.22	n/a	MOTORCYCLE	Vehicles	4	11	[0, 0, 0]	n/a	catFR1	2	R1515T
1232.792	0.907	1238423	REC_WORD_VV	0.907	n/a	<>	n/a	-999	11	[0, 0, 0]	n/a	catFR1	2	R1515T
1233.699	0.629	1239330	REC_WORD_VV	0.629	n/a	<>	n/a	-999	11	[0, 0, 0]	n/a	catFR1	2	R1515T
1234.328	1.18	1239959	REC_WORD	1.18	n/a	VELVET	Fabric	-999	11	[0, 0, 0]	n/a	catFR1	2	R1515T
1235.508	2.183	1241139	REC_WORD_VV	2.183	n/a	<>	n/a	-999	11	[0, 0, 0]	n/a	catFR1	2	R1515T
1237.691	9.117	1243322	REC_WORD	9.117	n/a	SILK	Fabric	-999	11	[0, 0, 0]	n/a	catFR1	2	R1515T
1246.808	1.336	1252438	REC_WORD_VV	1.336	n/a	<>	n/a	-999	11	[0, 0, 0]	n/a	catFR1	2	R1515T
1248.144	2.038	1253769	REC_END	n/a	n/a	n/a	n/a	-999	11	[0, 0, 0]	n/a	catFR1	2	R1515T
1250.182	10.349	1255812	COUNTDOWN_START	n/a	n/a	n/a	n/a	-999	11	[0, 0, 0]	n/a	catFR1	2	R1515T
1260.531	0.0	1266154	COUNTDOWN_END	n/a	n/a	n/a	n/a	-999	11	[0, 0, 0]	n/a	catFR1	2	R1515T
1260.531	2.034	1266154	ENCODING_START	n/a	n/a	n/a	n/a	-999	12	[0, 0, 0]	n/a	catFR1	2	R1515T
1262.565	1.617	1268187	WORD	n/a	wordpools/wordpool_categorized_EN.txt	BOAT	Vehicles	1	12	[0, 0, 0]	n/a	catFR1	2	R1515T
1264.182	1.0	1269808	WORD_OFF	n/a	n/a	BOAT	Vehicles	1	12	[0, 0, 0]	n/a	catFR1	2	R1515T
1265.182	1.616	1270810	WORD	n/a	wordpools/wordpool_categorized_EN.txt	PLANE	Vehicles	2	12	[0, 0, 0]	n/a	catFR1	2	R1515T
1266.798	0.967	1272420	WORD_OFF	n/a	n/a	PLANE	Vehicles	2	12	[0, 0, 0]	n/a	catFR1	2	R1515T
1267.765	1.616	1273393	WORD	n/a	wordpools/wordpool_categorized_EN.txt	DENIM	Fabric	3	12	[0, 0, 0]	n/a	catFR1	2	R1515T
1269.381	0.9	1275004	WORD_OFF	n/a	n/a	DENIM	Fabric	3	12	[0, 0, 0]	n/a	catFR1	2	R1515T
1270.281	1.6	1275907	WORD	n/a	wordpools/wordpool_categorized_EN.txt	COTTON	Fabric	4	12	[0, 0, 0]	n/a	catFR1	2	R1515T
1271.881	1.001	1277508	WORD_OFF	n/a	n/a	COTTON	Fabric	4	12	[0, 0, 0]	n/a	catFR1	2	R1515T
1272.882	1.614	1278510	WORD	n/a	wordpools/wordpool_categorized_EN.txt	LADLE	KitchenTools	5	12	[0, 0, 0]	n/a	catFR1	2	R1515T
1274.496	1.001	1280121	WORD_OFF	n/a	n/a	LADLE	KitchenTools	5	12	[0, 0, 0]	n/a	catFR1	2	R1515T
1275.497	1.6	1281122	WORD	n/a	wordpools/wordpool_categorized_EN.txt	SPOON	KitchenTools	6	12	[0, 0, 0]	n/a	catFR1	2	R1515T
1277.097	1.0	1282723	WORD_OFF	n/a	n/a	SPOON	KitchenTools	6	12	[0, 0, 0]	n/a	catFR1	2	R1515T
1278.097	1.6	1283725	WORD	n/a	wordpools/wordpool_categorized_EN.txt	SPANDEX	Fabric	7	12	[0, 0, 0]	n/a	catFR1	2	R1515T
1279.697	0.784	1285326	WORD_OFF	n/a	n/a	SPANDEX	Fabric	7	12	[0, 0, 0]	n/a	catFR1	2	R1515T
1280.481	1.601	1286102	WORD	n/a	wordpools/wordpool_categorized_EN.txt	NYLON	Fabric	8	12	[0, 0, 0]	n/a	catFR1	2	R1515T
1282.082	0.815	1287703	WORD_OFF	n/a	n/a	NYLON	Fabric	8	12	[0, 0, 0]	n/a	catFR1	2	R1515T
1282.897	1.617	1288518	WORD	n/a	wordpools/wordpool_categorized_EN.txt	BIKE	Vehicles	9	12	[0, 0, 0]	n/a	catFR1	2	R1515T
1284.514	0.867	1290139	WORD_OFF	n/a	n/a	BIKE	Vehicles	9	12	[0, 0, 0]	n/a	catFR1	2	R1515T
1285.381	1.6	1291003	WORD	n/a	wordpools/wordpool_categorized_EN.txt	SCOOTER	Vehicles	10	12	[0, 0, 0]	n/a	catFR1	2	R1515T
1286.981	0.801	1292604	WORD_OFF	n/a	n/a	SCOOTER	Vehicles	10	12	[0, 0, 0]	n/a	catFR1	2	R1515T
1287.782	1.599	1293410	WORD	n/a	wordpools/wordpool_categorized_EN.txt	GRATER	KitchenTools	11	12	[0, 0, 0]	n/a	catFR1	2	R1515T
1289.381	0.867	1295010	WORD_OFF	n/a	n/a	GRATER	KitchenTools	11	12	[0, 0, 0]	n/a	catFR1	2	R1515T
1290.248	1.6	1295875	WORD	n/a	wordpools/wordpool_categorized_EN.txt	KNIFE	KitchenTools	12	12	[0, 0, 0]	n/a	catFR1	2	R1515T
1291.848	0.001	1297476	WORD_OFF	n/a	n/a	KNIFE	KitchenTools	12	12	[0, 0, 0]	n/a	catFR1	2	R1515T
1291.849	0.001	1297476	ENCODING_END	n/a	n/a	n/a	n/a	-999	12	[0, 0, 0]	n/a	catFR1	2	R1515T
1291.85	0.0	1297476	DISTRACT_START	n/a	n/a	n/a	n/a	-999	12	[0, 0, 0]	n/a	catFR1	2	R1515T
1291.849	0.001	1297477	PROB	0.001	n/a	n/a	n/a	-999	12	[6, 3, 7]	16	catFR1	2	R1515T
1291.85	5.382	1297478	START	n/a	n/a	n/a	n/a	-999	12	[-999, -999, -999]	n/a	catFR1	2	R1515T
1297.232	7.249	1302860	PROB	7.249	n/a	n/a	n/a	-999	12	[8, 5, 7]	20	catFR1	2	R1515T
1304.481	2.734	1310108	PROB	2.734	n/a	n/a	n/a	-999	12	[2, 2, 4]	8	catFR1	2	R1515T
1307.215	3.767	1312842	PROB	3.767	n/a	n/a	n/a	-999	12	[4, 6, 7]	17	catFR1	2	R1515T
1310.982	3.999	1316609	PROB	3.999	n/a	n/a	n/a	-999	12	[1, 2, 3]	6	catFR1	2	R1515T
1314.981	0.0	1320606	DISTRACT_END	n/a	n/a	n/a	n/a	-999	12	[0, 0, 0]	n/a	catFR1	2	R1515T
1314.981	1.05	1320608	STOP	n/a	n/a	n/a	n/a	-999	12	[-999, -999, -999]	n/a	catFR1	2	R1515T
1316.031	1.28	1321657	REC_START	n/a	n/a	n/a	n/a	-999	12	[0, 0, 0]	n/a	catFR1	2	R1515T
1317.311	0.553	1322938	REC_WORD_VV	0.553	n/a	<>	n/a	-999	12	[0, 0, 0]	n/a	catFR1	2	R1515T
1317.864	1.214	1323491	REC_WORD	1.214	n/a	PLANE	Vehicles	2	12	[0, 0, 0]	n/a	catFR1	2	R1515T
1319.078	1.592	1324705	REC_WORD	1.592	n/a	BICYCLE	n/a	-999	12	[0, 0, 0]	n/a	catFR1	2	R1515T
1320.67	5.49	1326297	REC_WORD	5.49	n/a	BOAT	Vehicles	1	12	[0, 0, 0]	n/a	catFR1	2	R1515T
1326.16	1.734	1331786	REC_WORD	1.734	n/a	LADLE	KitchenTools	5	12	[0, 0, 0]	n/a	catFR1	2	R1515T
1327.894	4.558	1333520	REC_WORD	4.558	n/a	GRATER	KitchenTools	11	12	[0, 0, 0]	n/a	catFR1	2	R1515T
1332.452	0.61	1338078	REC_WORD	0.61	n/a	TOASTER	Appliances	-999	12	[0, 0, 0]	n/a	catFR1	2	R1515T
1333.062	3.073	1338688	REC_WORD_VV	3.073	n/a	<>	n/a	-999	12	[0, 0, 0]	n/a	catFR1	2	R1515T
1336.135	0.637	1341761	REC_WORD	0.637	n/a	LADLE	KitchenTools	5	12	[0, 0, 0]	n/a	catFR1	2	R1515T
1336.772	0.416	1342398	REC_WORD	0.416	n/a	GRATER	KitchenTools	11	12	[0, 0, 0]	n/a	catFR1	2	R1515T
1337.188	2.086	1342814	REC_WORD	2.086	n/a	KNIFE	KitchenTools	12	12	[0, 0, 0]	n/a	catFR1	2	R1515T
1339.274	7.937	1344900	REC_WORD_VV	7.937	n/a	<>	n/a	-999	12	[0, 0, 0]	n/a	catFR1	2	R1515T
1347.211	0.0	1352831	REC_END	n/a	n/a	n/a	n/a	-999	12	[0, 0, 0]	n/a	catFR1	2	R1515T
