onset	duration	sample	trial_type	response_time	stim_file	item_name	category	serialpos	list	test	answer	experiment	session	subject
0.0	1.046	33356	INSTRUCT_START	n/a	n/a	n/a	n/a	-999	-999	[0, 0, 0]	n/a	catFR1	5	R1498D
1.046	23.401	34401	INSTRUCT_END	n/a	n/a	n/a	n/a	-999	-999	[0, 0, 0]	n/a	catFR1	5	R1498D
24.447	10.0	57801	COUNTDOWN_START	n/a	n/a	n/a	n/a	-999	-999	[0, 0, 0]	n/a	catFR1	5	R1498D
34.796	0.0	68146	COUNTDOWN_END	n/a	n/a	n/a	n/a	-999	-999	[0, 0, 0]	n/a	catFR1	5	R1498D
34.796	2.152	68146	ENCODING_START	n/a	n/a	n/a	n/a	-999	-1	[0, 0, 0]	n/a	catFR1	5	R1498D
36.948	1.6	70299	WORD	n/a	n/a	MOTH	Insects	1	-1	[0, 0, 0]	n/a	catFR1	5	R1498D
38.564	0.967	71911	WORD_OFF	n/a	n/a	MOTH	Insects	1	-1	[0, 0, 0]	n/a	catFR1	5	R1498D
39.531	1.6	72885	WORD	n/a	n/a	FLY	Insects	2	-1	[0, 0, 0]	n/a	catFR1	5	R1498D
41.131	0.883	74479	WORD_OFF	n/a	n/a	FLY	Insects	2	-1	[0, 0, 0]	n/a	catFR1	5	R1498D
42.014	1.6	75365	WORD	n/a	n/a	COMPUTER	Electronics	3	-1	[0, 0, 0]	n/a	catFR1	5	R1498D
43.631	0.783	76977	WORD_OFF	n/a	n/a	COMPUTER	Electronics	3	-1	[0, 0, 0]	n/a	catFR1	5	R1498D
44.414	1.6	77765	WORD	n/a	n/a	HEADPHONES	Electronics	4	-1	[0, 0, 0]	n/a	catFR1	5	R1498D
46.014	0.8	79359	WORD_OFF	n/a	n/a	HEADPHONES	Electronics	4	-1	[0, 0, 0]	n/a	catFR1	5	R1498D
46.814	1.6	80165	WORD	n/a	n/a	MARIGOLD	Flowers	5	-1	[0, 0, 0]	n/a	catFR1	5	R1498D
48.431	0.832	81777	WORD_OFF	n/a	n/a	MARIGOLD	Flowers	5	-1	[0, 0, 0]	n/a	catFR1	5	R1498D
49.263	1.6	82610	WORD	n/a	n/a	LILAC	Flowers	6	-1	[0, 0, 0]	n/a	catFR1	5	R1498D
50.864	0.817	84213	WORD_OFF	n/a	n/a	LILAC	Flowers	6	-1	[0, 0, 0]	n/a	catFR1	5	R1498D
51.681	1.6	85028	WORD	n/a	n/a	MOSQUITO	Insects	7	-1	[0, 0, 0]	n/a	catFR1	5	R1498D
53.295	0.836	86640	WORD_OFF	n/a	n/a	MOSQUITO	Insects	7	-1	[0, 0, 0]	n/a	catFR1	5	R1498D
54.131	1.6	87481	WORD	n/a	n/a	SPIDER	Insects	8	-1	[0, 0, 0]	n/a	catFR1	5	R1498D
55.748	0.781	89093	WORD_OFF	n/a	n/a	SPIDER	Insects	8	-1	[0, 0, 0]	n/a	catFR1	5	R1498D
56.529	1.6	89873	WORD	n/a	n/a	TABLET	Electronics	9	-1	[0, 0, 0]	n/a	catFR1	5	R1498D
58.131	0.867	91476	WORD_OFF	n/a	n/a	TABLET	Electronics	9	-1	[0, 0, 0]	n/a	catFR1	5	R1498D
58.998	1.6	92344	WORD	n/a	n/a	MICROWAVE	Electronics	10	-1	[0, 0, 0]	n/a	catFR1	5	R1498D
60.597	0.949	93947	WORD_OFF	n/a	n/a	MICROWAVE	Electronics	10	-1	[0, 0, 0]	n/a	catFR1	5	R1498D
61.546	1.6	94895	WORD	n/a	n/a	VIOLET	Flowers	11	-1	[0, 0, 0]	n/a	catFR1	5	R1498D
63.147	1.0	96498	WORD_OFF	n/a	n/a	VIOLET	Flowers	11	-1	[0, 0, 0]	n/a	catFR1	5	R1498D
64.147	1.6	97499	WORD	n/a	n/a	ORCHID	Flowers	12	-1	[0, 0, 0]	n/a	catFR1	5	R1498D
65.748	0.001	99093	WORD_OFF	n/a	n/a	ORCHID	Flowers	12	-1	[0, 0, 0]	n/a	catFR1	5	R1498D
65.749	0.0	99093	ENCODING_END	n/a	n/a	n/a	n/a	-999	-1	[0, 0, 0]	n/a	catFR1	5	R1498D
65.748	0.001	99095	PROB	6.499	n/a	n/a	n/a	-999	-1	[7, 1, 5]	13.0	catFR1	5	R1498D
65.749	0.0	99096	START	n/a	n/a	n/a	n/a	-999	-1	[-999, -999, -999]	n/a	catFR1	5	R1498D
65.749	6.515	99102	DISTRACT_START	n/a	n/a	n/a	n/a	-999	-1	[0, 0, 0]	n/a	catFR1	5	R1498D
72.264	13.1	105610	PROB	13.083	n/a	n/a	n/a	-999	-1	[5, 6, 8]	19.0	catFR1	5	R1498D
85.364	4.417	118709	PROB	4.4	n/a	n/a	n/a	-999	-1	[5, 1, 1]	7.0	catFR1	5	R1498D
89.781	0.0	123126	STOP	n/a	n/a	n/a	n/a	-999	-1	[-999, -999, -999]	n/a	catFR1	5	R1498D
89.781	2.165	123131	DISTRACT_END	n/a	n/a	n/a	n/a	-999	-1	[0, 0, 0]	n/a	catFR1	5	R1498D
91.946	0.47	125292	REC_START	n/a	n/a	n/a	n/a	-999	-1	[0, 0, 0]	n/a	catFR1	5	R1498D
92.416	3.402	125761	REC_WORD	0.47	n/a	MARIGOLD	Flowers	5	-1	[0, 0, 0]	n/a	catFR1	5	R1498D
95.818	26.339	129163	REC_WORD	3.872	n/a	SUNFLOWER	n/a	-999	-1	[0, 0, 0]	n/a	catFR1	5	R1498D
122.157	10.957	155504	REC_END	n/a	n/a	n/a	n/a	-999	-1	[0, 0, 0]	n/a	catFR1	5	R1498D
133.114	10.0	166461	COUNTDOWN_START	n/a	n/a	n/a	n/a	-999	1	[0, 0, 0]	n/a	catFR1	5	R1498D
143.463	0.001	176806	COUNTDOWN_END	n/a	n/a	n/a	n/a	-999	1	[0, 0, 0]	n/a	catFR1	5	R1498D
143.464	2.15	176806	ENCODING_START	n/a	n/a	n/a	n/a	-999	1	[0, 0, 0]	n/a	catFR1	5	R1498D
145.614	1.6	178958	WORD	n/a	wordpools/wordpool_categorized_EN.txt	FLUTE	Instruments	1	1	[0, 0, 0]	n/a	catFR1	5	R1498D
147.214	0.966	180561	WORD_OFF	n/a	n/a	FLUTE	Instruments	1	1	[0, 0, 0]	n/a	catFR1	5	R1498D
148.18	1.6	181527	WORD	n/a	wordpools/wordpool_categorized_EN.txt	TUBA	Instruments	2	1	[0, 0, 0]	n/a	catFR1	5	R1498D
149.781	0.9	183121	WORD_OFF	n/a	n/a	TUBA	Instruments	2	1	[0, 0, 0]	n/a	catFR1	5	R1498D
150.681	1.6	184024	WORD	n/a	wordpools/wordpool_categorized_EN.txt	CHAIR	Furniture	3	1	[0, 0, 0]	n/a	catFR1	5	R1498D
152.297	0.783	185636	WORD_OFF	n/a	n/a	CHAIR	Furniture	3	1	[0, 0, 0]	n/a	catFR1	5	R1498D
153.08	1.6	186425	WORD	n/a	wordpools/wordpool_categorized_EN.txt	RECLINER	Furniture	4	1	[0, 0, 0]	n/a	catFR1	5	R1498D
154.681	0.85	188028	WORD_OFF	n/a	n/a	RECLINER	Furniture	4	1	[0, 0, 0]	n/a	catFR1	5	R1498D
155.531	1.6	188878	WORD	n/a	wordpools/wordpool_categorized_EN.txt	CARDINAL	Birds	5	1	[0, 0, 0]	n/a	catFR1	5	R1498D
157.146	0.935	190490	WORD_OFF	n/a	n/a	CARDINAL	Birds	5	1	[0, 0, 0]	n/a	catFR1	5	R1498D
158.081	1.6	191420	WORD	n/a	wordpools/wordpool_categorized_EN.txt	HAWK	Birds	6	1	[0, 0, 0]	n/a	catFR1	5	R1498D
159.681	0.998	193023	WORD_OFF	n/a	n/a	HAWK	Birds	6	1	[0, 0, 0]	n/a	catFR1	5	R1498D
160.679	1.6	194024	WORD	n/a	wordpools/wordpool_categorized_EN.txt	PIANO	Instruments	7	1	[0, 0, 0]	n/a	catFR1	5	R1498D
162.28	0.884	195627	WORD_OFF	n/a	n/a	PIANO	Instruments	7	1	[0, 0, 0]	n/a	catFR1	5	R1498D
163.164	1.6	196504	WORD	n/a	wordpools/wordpool_categorized_EN.txt	TRUMPET	Instruments	8	1	[0, 0, 0]	n/a	catFR1	5	R1498D
164.764	0.833	198107	WORD_OFF	n/a	n/a	TRUMPET	Instruments	8	1	[0, 0, 0]	n/a	catFR1	5	R1498D
165.597	1.6	198940	WORD	n/a	wordpools/wordpool_categorized_EN.txt	TABLE	Furniture	9	1	[0, 0, 0]	n/a	catFR1	5	R1498D
167.214	0.966	200561	WORD_OFF	n/a	n/a	TABLE	Furniture	9	1	[0, 0, 0]	n/a	catFR1	5	R1498D
168.18	1.6	201526	WORD	n/a	wordpools/wordpool_categorized_EN.txt	BED	Furniture	10	1	[0, 0, 0]	n/a	catFR1	5	R1498D
169.78	0.834	203120	WORD_OFF	n/a	n/a	BED	Furniture	10	1	[0, 0, 0]	n/a	catFR1	5	R1498D
170.614	1.6	203953	WORD	n/a	wordpools/wordpool_categorized_EN.txt	BLUEBIRD	Birds	11	1	[0, 0, 0]	n/a	catFR1	5	R1498D
172.231	0.866	205574	WORD_OFF	n/a	n/a	BLUEBIRD	Birds	11	1	[0, 0, 0]	n/a	catFR1	5	R1498D
173.097	1.6	206442	WORD	n/a	wordpools/wordpool_categorized_EN.txt	SEAGULL	Birds	12	1	[0, 0, 0]	n/a	catFR1	5	R1498D
174.714	0.002	208054	WORD_OFF	n/a	n/a	SEAGULL	Birds	12	1	[0, 0, 0]	n/a	catFR1	5	R1498D
174.716	0.0	208054	ENCODING_END	n/a	n/a	n/a	n/a	-999	1	[0, 0, 0]	n/a	catFR1	5	R1498D
174.715	0.001	208056	PROB	22.864	n/a	n/a	n/a	-999	1	[8, 7, 7]	29.0	catFR1	5	R1498D
174.716	0.0	208057	START	n/a	n/a	n/a	n/a	-999	1	[-999, -999, -999]	n/a	catFR1	5	R1498D
174.716	22.879	208063	DISTRACT_START	n/a	n/a	n/a	n/a	-999	1	[0, 0, 0]	n/a	catFR1	5	R1498D
197.595	0.0	230932	DISTRACT_END	n/a	n/a	n/a	n/a	-999	1	[0, 0, 0]	n/a	catFR1	5	R1498D
197.595	2.186	230935	STOP	n/a	n/a	n/a	n/a	-999	1	[-999, -999, -999]	n/a	catFR1	5	R1498D
199.781	4.746	233119	REC_START	n/a	n/a	n/a	n/a	-999	1	[0, 0, 0]	n/a	catFR1	5	R1498D
204.527	0.822	237866	REC_WORD	4.746	n/a	MARIGOLD	Flowers	-999	1	[0, 0, 0]	n/a	catFR1	5	R1498D
205.349	1.109	238688	REC_WORD	5.568	n/a	SUN	n/a	-999	1	[0, 0, 0]	n/a	catFR1	5	R1498D
206.458	7.951	239797	REC_WORD	6.677	n/a	SEAGULL	Birds	12	1	[0, 0, 0]	n/a	catFR1	5	R1498D
214.409	8.793	247748	REC_WORD	14.628	n/a	BASS	n/a	-999	1	[0, 0, 0]	n/a	catFR1	5	R1498D
223.202	2.255	256540	REC_WORD	23.421	n/a	ORCHID	Flowers	-999	1	[0, 0, 0]	n/a	catFR1	5	R1498D
225.457	4.505	258795	REC_WORD	25.676	n/a	FLOWER	n/a	-999	1	[0, 0, 0]	n/a	catFR1	5	R1498D
229.962	2.852	263305	REC_END	n/a	n/a	n/a	n/a	-999	1	[0, 0, 0]	n/a	catFR1	5	R1498D
232.814	10.0	266165	COUNTDOWN_START	n/a	n/a	n/a	n/a	-999	2	[0, 0, 0]	n/a	catFR1	5	R1498D
243.164	0.0	276502	COUNTDOWN_END	n/a	n/a	n/a	n/a	-999	2	[0, 0, 0]	n/a	catFR1	5	R1498D
243.164	2.117	276502	ENCODING_START	n/a	n/a	n/a	n/a	-999	2	[0, 0, 0]	n/a	catFR1	5	R1498D
245.281	1.6	278619	WORD	n/a	wordpools/wordpool_categorized_EN.txt	CRAB	OceanAnimals	1	2	[0, 0, 0]	n/a	catFR1	5	R1498D
246.897	0.834	280239	WORD_OFF	n/a	n/a	CRAB	OceanAnimals	1	2	[0, 0, 0]	n/a	catFR1	5	R1498D
247.731	1.6	281072	WORD	n/a	wordpools/wordpool_categorized_EN.txt	OYSTER	OceanAnimals	2	2	[0, 0, 0]	n/a	catFR1	5	R1498D
249.348	0.766	282684	WORD_OFF	n/a	n/a	OYSTER	OceanAnimals	2	2	[0, 0, 0]	n/a	catFR1	5	R1498D
250.114	1.6	283455	WORD	n/a	wordpools/wordpool_categorized_EN.txt	CAULIFLOWER	Vegetables	3	2	[0, 0, 0]	n/a	catFR1	5	R1498D
251.731	0.947	285067	WORD_OFF	n/a	n/a	CAULIFLOWER	Vegetables	3	2	[0, 0, 0]	n/a	catFR1	5	R1498D
252.678	1.6	286014	WORD	n/a	wordpools/wordpool_categorized_EN.txt	POTATO	Vegetables	4	2	[0, 0, 0]	n/a	catFR1	5	R1498D
254.279	0.902	287617	WORD_OFF	n/a	n/a	POTATO	Vegetables	4	2	[0, 0, 0]	n/a	catFR1	5	R1498D
255.181	1.6	288521	WORD	n/a	wordpools/wordpool_categorized_EN.txt	WOOL	Fabric	5	2	[0, 0, 0]	n/a	catFR1	5	R1498D
256.781	0.917	290115	WORD_OFF	n/a	n/a	WOOL	Fabric	5	2	[0, 0, 0]	n/a	catFR1	5	R1498D
257.698	1.6	291036	WORD	n/a	wordpools/wordpool_categorized_EN.txt	SATIN	Fabric	6	2	[0, 0, 0]	n/a	catFR1	5	R1498D
259.314	0.9	292648	WORD_OFF	n/a	n/a	SATIN	Fabric	6	2	[0, 0, 0]	n/a	catFR1	5	R1498D
260.214	1.6	293552	WORD	n/a	wordpools/wordpool_categorized_EN.txt	FISH	OceanAnimals	7	2	[0, 0, 0]	n/a	catFR1	5	R1498D
261.831	0.933	295173	WORD_OFF	n/a	n/a	FISH	OceanAnimals	7	2	[0, 0, 0]	n/a	catFR1	5	R1498D
262.764	1.6	296103	WORD	n/a	wordpools/wordpool_categorized_EN.txt	DOLPHIN	OceanAnimals	8	2	[0, 0, 0]	n/a	catFR1	5	R1498D
264.38	0.951	297715	WORD_OFF	n/a	n/a	DOLPHIN	OceanAnimals	8	2	[0, 0, 0]	n/a	catFR1	5	R1498D
265.331	1.6	298671	WORD	n/a	wordpools/wordpool_categorized_EN.txt	CORN	Vegetables	9	2	[0, 0, 0]	n/a	catFR1	5	R1498D
266.947	0.884	300283	WORD_OFF	n/a	n/a	CORN	Vegetables	9	2	[0, 0, 0]	n/a	catFR1	5	R1498D
267.831	1.6	301169	WORD	n/a	wordpools/wordpool_categorized_EN.txt	CELERY	Vegetables	10	2	[0, 0, 0]	n/a	catFR1	5	R1498D
269.447	0.916	302781	WORD_OFF	n/a	n/a	CELERY	Vegetables	10	2	[0, 0, 0]	n/a	catFR1	5	R1498D
270.363	1.6	303702	WORD	n/a	wordpools/wordpool_categorized_EN.txt	LEATHER	Fabric	11	2	[0, 0, 0]	n/a	catFR1	5	R1498D
271.964	0.899	305305	WORD_OFF	n/a	n/a	LEATHER	Fabric	11	2	[0, 0, 0]	n/a	catFR1	5	R1498D
272.863	1.6	306200	WORD	n/a	wordpools/wordpool_categorized_EN.txt	DENIM	Fabric	12	2	[0, 0, 0]	n/a	catFR1	5	R1498D
274.464	0.001	307799	PROB	4.732	n/a	n/a	n/a	-999	2	[4, 4, 4]	12.0	catFR1	5	R1498D
274.465	0.0	307800	START	n/a	n/a	n/a	n/a	-999	2	[-999, -999, -999]	n/a	catFR1	5	R1498D
274.464	0.001	307803	WORD_OFF	n/a	n/a	DENIM	Fabric	12	2	[0, 0, 0]	n/a	catFR1	5	R1498D
274.465	0.0	307803	ENCODING_END	n/a	n/a	n/a	n/a	-999	2	[0, 0, 0]	n/a	catFR1	5	R1498D
274.465	4.749	307803	DISTRACT_START	n/a	n/a	n/a	n/a	-999	2	[0, 0, 0]	n/a	catFR1	5	R1498D
279.214	9.567	312549	PROB	9.55	n/a	n/a	n/a	-999	2	[8, 4, 8]	20.0	catFR1	5	R1498D
288.781	6.05	322116	PROB	6.032	n/a	n/a	n/a	-999	2	[3, 4, 8]	15.0	catFR1	5	R1498D
294.831	0.0	328165	DISTRACT_END	n/a	n/a	n/a	n/a	-999	2	[0, 0, 0]	n/a	catFR1	5	R1498D
294.831	2.233	328165	STOP	n/a	n/a	n/a	n/a	-999	2	[-999, -999, -999]	n/a	catFR1	5	R1498D
297.064	4.238	330396	REC_START	n/a	n/a	n/a	n/a	-999	2	[0, 0, 0]	n/a	catFR1	5	R1498D
301.302	16.881	334636	REC_WORD_VV	4.238	n/a	<>	n/a	-999	2	[0, 0, 0]	n/a	catFR1	5	R1498D
318.183	9.097	351516	REC_WORD	21.119	n/a	MOTH	Insects	-999	2	[0, 0, 0]	n/a	catFR1	5	R1498D
327.28	7.917	360618	REC_END	n/a	n/a	n/a	n/a	-999	2	[0, 0, 0]	n/a	catFR1	5	R1498D
335.197	10.0	368536	COUNTDOWN_START	n/a	n/a	n/a	n/a	-999	3	[0, 0, 0]	n/a	catFR1	5	R1498D
345.547	0.0	378881	COUNTDOWN_END	n/a	n/a	n/a	n/a	-999	3	[0, 0, 0]	n/a	catFR1	5	R1498D
345.547	1.984	378881	ENCODING_START	n/a	n/a	n/a	n/a	-999	3	[0, 0, 0]	n/a	catFR1	5	R1498D
347.531	1.6	380865	WORD	n/a	wordpools/wordpool_categorized_EN.txt	FOG	Weather	1	3	[0, 0, 0]	n/a	catFR1	5	R1498D
349.131	0.933	382468	WORD_OFF	n/a	n/a	FOG	Weather	1	3	[0, 0, 0]	n/a	catFR1	5	R1498D
350.064	1.6	383398	WORD	n/a	wordpools/wordpool_categorized_EN.txt	THUNDERSTORM	Weather	2	3	[0, 0, 0]	n/a	catFR1	5	R1498D
351.68	0.951	385010	WORD_OFF	n/a	n/a	THUNDERSTORM	Weather	2	3	[0, 0, 0]	n/a	catFR1	5	R1498D
352.631	1.6	385967	WORD	n/a	wordpools/wordpool_categorized_EN.txt	GIRAFFE	Zoo	3	3	[0, 0, 0]	n/a	catFR1	5	R1498D
354.231	0.799	387561	WORD_OFF	n/a	n/a	GIRAFFE	Zoo	3	3	[0, 0, 0]	n/a	catFR1	5	R1498D
355.03	1.6	388367	WORD	n/a	wordpools/wordpool_categorized_EN.txt	ELEPHANT	Zoo	4	3	[0, 0, 0]	n/a	catFR1	5	R1498D
356.631	0.933	389962	WORD_OFF	n/a	n/a	ELEPHANT	Zoo	4	3	[0, 0, 0]	n/a	catFR1	5	R1498D
357.564	1.6	390900	WORD	n/a	wordpools/wordpool_categorized_EN.txt	COOKIE	Desserts	5	3	[0, 0, 0]	n/a	catFR1	5	R1498D
359.18	0.917	392512	WORD_OFF	n/a	n/a	COOKIE	Desserts	5	3	[0, 0, 0]	n/a	catFR1	5	R1498D
360.097	1.6	393434	WORD	n/a	wordpools/wordpool_categorized_EN.txt	PIE	Desserts	6	3	[0, 0, 0]	n/a	catFR1	5	R1498D
361.713	0.884	395046	WORD_OFF	n/a	n/a	PIE	Desserts	6	3	[0, 0, 0]	n/a	catFR1	5	R1498D
362.597	1.6	395931	WORD	n/a	wordpools/wordpool_categorized_EN.txt	CHEETAH	Zoo	7	3	[0, 0, 0]	n/a	catFR1	5	R1498D
364.197	0.799	397534	WORD_OFF	n/a	n/a	CHEETAH	Zoo	7	3	[0, 0, 0]	n/a	catFR1	5	R1498D
364.996	1.6	398332	WORD	n/a	wordpools/wordpool_categorized_EN.txt	PANDA	Zoo	8	3	[0, 0, 0]	n/a	catFR1	5	R1498D
366.596	0.817	399926	WORD_OFF	n/a	n/a	PANDA	Zoo	8	3	[0, 0, 0]	n/a	catFR1	5	R1498D
367.413	1.6	400741	WORD	n/a	wordpools/wordpool_categorized_EN.txt	LIGHTNING	Weather	9	3	[0, 0, 0]	n/a	catFR1	5	R1498D
369.013	0.801	402344	WORD_OFF	n/a	n/a	LIGHTNING	Weather	9	3	[0, 0, 0]	n/a	catFR1	5	R1498D
369.814	1.6	403141	WORD	n/a	wordpools/wordpool_categorized_EN.txt	HUMIDITY	Weather	10	3	[0, 0, 0]	n/a	catFR1	5	R1498D
371.43	0.967	404762	WORD_OFF	n/a	n/a	HUMIDITY	Weather	10	3	[0, 0, 0]	n/a	catFR1	5	R1498D
372.397	1.6	405727	WORD	n/a	wordpools/wordpool_categorized_EN.txt	JELLO	Desserts	11	3	[0, 0, 0]	n/a	catFR1	5	R1498D
373.997	0.8	407330	WORD_OFF	n/a	n/a	JELLO	Desserts	11	3	[0, 0, 0]	n/a	catFR1	5	R1498D
374.797	1.6	408128	WORD	n/a	wordpools/wordpool_categorized_EN.txt	COBBLER	Desserts	12	3	[0, 0, 0]	n/a	catFR1	5	R1498D
376.398	0.001	409728	PROB	12.648	n/a	n/a	n/a	-999	3	[6, 8, 3]	17.0	catFR1	5	R1498D
376.399	0.0	409729	START	n/a	n/a	n/a	n/a	-999	3	[-999, -999, -999]	n/a	catFR1	5	R1498D
376.397	0.002	409731	WORD_OFF	n/a	n/a	COBBLER	Desserts	12	3	[0, 0, 0]	n/a	catFR1	5	R1498D
376.399	0.0	409731	ENCODING_END	n/a	n/a	n/a	n/a	-999	3	[0, 0, 0]	n/a	catFR1	5	R1498D
376.399	12.665	409731	DISTRACT_START	n/a	n/a	n/a	n/a	-999	3	[0, 0, 0]	n/a	catFR1	5	R1498D
389.064	9.8	422393	PROB	9.782	n/a	n/a	n/a	-999	3	[2, 8, 6]	16.0	catFR1	5	R1498D
398.864	0.0	432192	DISTRACT_END	n/a	n/a	n/a	n/a	-999	3	[0, 0, 0]	n/a	catFR1	5	R1498D
398.864	2.217	432193	STOP	n/a	n/a	n/a	n/a	-999	3	[-999, -999, -999]	n/a	catFR1	5	R1498D
401.081	14.251	434415	REC_START	n/a	n/a	n/a	n/a	-999	3	[0, 0, 0]	n/a	catFR1	5	R1498D
415.332	3.285	448660	REC_WORD	14.251	n/a	FOG	Weather	1	3	[0, 0, 0]	n/a	catFR1	5	R1498D
418.617	12.678	451945	REC_WORD	17.536	n/a	RAIN	n/a	-999	3	[0, 0, 0]	n/a	catFR1	5	R1498D
431.295	16.035	464627	REC_END	n/a	n/a	n/a	n/a	-999	3	[0, 0, 0]	n/a	catFR1	5	R1498D
447.33	10.0	480659	COUNTDOWN_START	n/a	n/a	n/a	n/a	-999	4	[0, 0, 0]	n/a	catFR1	5	R1498D
457.68	0.0	491004	COUNTDOWN_END	n/a	n/a	n/a	n/a	-999	4	[0, 0, 0]	n/a	catFR1	5	R1498D
457.68	2.35	491004	ENCODING_START	n/a	n/a	n/a	n/a	-999	4	[0, 0, 0]	n/a	catFR1	5	R1498D
460.03	1.6	493360	WORD	n/a	wordpools/wordpool_categorized_EN.txt	ATTIC	Building	1	4	[0, 0, 0]	n/a	catFR1	5	R1498D
461.63	0.784	494954	WORD_OFF	n/a	n/a	ATTIC	Building	1	4	[0, 0, 0]	n/a	catFR1	5	R1498D
462.414	1.6	495742	WORD	n/a	wordpools/wordpool_categorized_EN.txt	HALLWAY	Building	2	4	[0, 0, 0]	n/a	catFR1	5	R1498D
464.014	0.8	497346	WORD_OFF	n/a	n/a	HALLWAY	Building	2	4	[0, 0, 0]	n/a	catFR1	5	R1498D
464.814	1.6	498143	WORD	n/a	wordpools/wordpool_categorized_EN.txt	SHOVEL	Tools	3	4	[0, 0, 0]	n/a	catFR1	5	R1498D
466.431	0.95	499755	WORD_OFF	n/a	n/a	SHOVEL	Tools	3	4	[0, 0, 0]	n/a	catFR1	5	R1498D
467.381	1.6	500711	WORD	n/a	wordpools/wordpool_categorized_EN.txt	RATCHET	Tools	4	4	[0, 0, 0]	n/a	catFR1	5	R1498D
468.981	0.967	502306	WORD_OFF	n/a	n/a	RATCHET	Tools	4	4	[0, 0, 0]	n/a	catFR1	5	R1498D
469.948	1.6	503271	WORD	n/a	wordpools/wordpool_categorized_EN.txt	STEREO	Electronics	5	4	[0, 0, 0]	n/a	catFR1	5	R1498D
471.548	0.916	504874	WORD_OFF	n/a	n/a	STEREO	Electronics	5	4	[0, 0, 0]	n/a	catFR1	5	R1498D
472.464	1.6	505786	WORD	n/a	wordpools/wordpool_categorized_EN.txt	RADIO	Electronics	6	4	[0, 0, 0]	n/a	catFR1	5	R1498D
474.064	0.767	507390	WORD_OFF	n/a	n/a	RADIO	Electronics	6	4	[0, 0, 0]	n/a	catFR1	5	R1498D
474.831	1.6	508160	WORD	n/a	wordpools/wordpool_categorized_EN.txt	ROOF	Building	7	4	[0, 0, 0]	n/a	catFR1	5	R1498D
476.448	0.833	509772	WORD_OFF	n/a	n/a	ROOF	Building	7	4	[0, 0, 0]	n/a	catFR1	5	R1498D
477.281	1.6	510605	WORD	n/a	wordpools/wordpool_categorized_EN.txt	WALL	Building	8	4	[0, 0, 0]	n/a	catFR1	5	R1498D
478.881	0.85	512208	WORD_OFF	n/a	n/a	WALL	Building	8	4	[0, 0, 0]	n/a	catFR1	5	R1498D
479.731	1.6	513058	WORD	n/a	wordpools/wordpool_categorized_EN.txt	WRENCH	Tools	9	4	[0, 0, 0]	n/a	catFR1	5	R1498D
481.347	0.917	514670	WORD_OFF	n/a	n/a	WRENCH	Tools	9	4	[0, 0, 0]	n/a	catFR1	5	R1498D
482.264	1.6	515591	WORD	n/a	wordpools/wordpool_categorized_EN.txt	DRILL	Tools	10	4	[0, 0, 0]	n/a	catFR1	5	R1498D
483.881	0.917	517203	WORD_OFF	n/a	n/a	DRILL	Tools	10	4	[0, 0, 0]	n/a	catFR1	5	R1498D
484.798	1.6	518124	WORD	n/a	wordpools/wordpool_categorized_EN.txt	CALCULATOR	Electronics	11	4	[0, 0, 0]	n/a	catFR1	5	R1498D
486.414	0.883	519736	WORD_OFF	n/a	n/a	CALCULATOR	Electronics	11	4	[0, 0, 0]	n/a	catFR1	5	R1498D
487.297	1.6	520622	WORD	n/a	wordpools/wordpool_categorized_EN.txt	PRINTER	Electronics	12	4	[0, 0, 0]	n/a	catFR1	5	R1498D
488.914	0.002	522238	PROB	5.95	n/a	n/a	n/a	-999	4	[4, 8, 4]	16.0	catFR1	5	R1498D
488.916	0.0	522240	START	n/a	n/a	n/a	n/a	-999	4	[-999, -999, -999]	n/a	catFR1	5	R1498D
488.914	0.002	522243	WORD_OFF	n/a	n/a	PRINTER	Electronics	12	4	[0, 0, 0]	n/a	catFR1	5	R1498D
488.916	0.0	522243	ENCODING_END	n/a	n/a	n/a	n/a	-999	4	[0, 0, 0]	n/a	catFR1	5	R1498D
488.916	5.965	522243	DISTRACT_START	n/a	n/a	n/a	n/a	-999	4	[0, 0, 0]	n/a	catFR1	5	R1498D
494.881	3.75	528205	PROB	3.733	n/a	n/a	n/a	-999	4	[2, 7, 3]	12.0	catFR1	5	R1498D
498.631	3.799	531955	PROB	3.782	n/a	n/a	n/a	-999	4	[8, 2, 8]	18.0	catFR1	5	R1498D
502.43	6.75	535753	PROB	6.734	n/a	n/a	n/a	-999	4	[1, 3, 1]	5.0	catFR1	5	R1498D
509.18	0.0	542503	STOP	n/a	n/a	n/a	n/a	-999	4	[-999, -999, -999]	n/a	catFR1	5	R1498D
509.18	2.333	542508	DISTRACT_END	n/a	n/a	n/a	n/a	-999	4	[0, 0, 0]	n/a	catFR1	5	R1498D
511.513	2.433	544837	REC_START	n/a	n/a	n/a	n/a	-999	4	[0, 0, 0]	n/a	catFR1	5	R1498D
513.946	1.072	547269	REC_WORD	2.433	n/a	CALCULATOR	Electronics	11	4	[0, 0, 0]	n/a	catFR1	5	R1498D
515.018	9.391	548341	REC_WORD	3.505	n/a	PRINTER	Electronics	12	4	[0, 0, 0]	n/a	catFR1	5	R1498D
524.409	1.423	557731	REC_WORD	12.896	n/a	HALLWAY	Building	2	4	[0, 0, 0]	n/a	catFR1	5	R1498D
525.832	14.253	559154	REC_WORD	14.319	n/a	FLOOR	n/a	-999	4	[0, 0, 0]	n/a	catFR1	5	R1498D
540.085	1.689	573406	REC_WORD	28.572	n/a	STAIRS	n/a	-999	4	[0, 0, 0]	n/a	catFR1	5	R1498D
541.774	9.206	575093	REC_END	n/a	n/a	n/a	n/a	-999	4	[0, 0, 0]	n/a	catFR1	5	R1498D
550.98	10.0	584305	COUNTDOWN_START	n/a	n/a	n/a	n/a	-999	5	[0, 0, 0]	n/a	catFR1	5	R1498D
561.328	0.0	594650	COUNTDOWN_END	n/a	n/a	n/a	n/a	-999	5	[0, 0, 0]	n/a	catFR1	5	R1498D
561.328	2.069	594650	ENCODING_START	n/a	n/a	n/a	n/a	-999	5	[0, 0, 0]	n/a	catFR1	5	R1498D
563.397	1.6	596723	WORD	n/a	wordpools/wordpool_categorized_EN.txt	BANANA	Fruit	1	5	[0, 0, 0]	n/a	catFR1	5	R1498D
565.013	0.983	598335	WORD_OFF	n/a	n/a	BANANA	Fruit	1	5	[0, 0, 0]	n/a	catFR1	5	R1498D
565.996	1.6	599318	WORD	n/a	wordpools/wordpool_categorized_EN.txt	PEACH	Fruit	2	5	[0, 0, 0]	n/a	catFR1	5	R1498D
567.596	0.884	600921	WORD_OFF	n/a	n/a	PEACH	Fruit	2	5	[0, 0, 0]	n/a	catFR1	5	R1498D
568.48	1.6	601798	WORD	n/a	wordpools/wordpool_categorized_EN.txt	STAPLER	OfficeSupplies	3	5	[0, 0, 0]	n/a	catFR1	5	R1498D
570.08	0.966	603401	WORD_OFF	n/a	n/a	STAPLER	OfficeSupplies	3	5	[0, 0, 0]	n/a	catFR1	5	R1498D
571.046	1.6	604366	WORD	n/a	wordpools/wordpool_categorized_EN.txt	GLUE	OfficeSupplies	4	5	[0, 0, 0]	n/a	catFR1	5	R1498D
572.647	0.883	605969	WORD_OFF	n/a	n/a	GLUE	OfficeSupplies	4	5	[0, 0, 0]	n/a	catFR1	5	R1498D
573.53	1.6	606855	WORD	n/a	wordpools/wordpool_categorized_EN.txt	RUM	Beverages	5	5	[0, 0, 0]	n/a	catFR1	5	R1498D
575.131	0.783	608449	WORD_OFF	n/a	n/a	RUM	Beverages	5	5	[0, 0, 0]	n/a	catFR1	5	R1498D
575.914	1.6	609238	WORD	n/a	wordpools/wordpool_categorized_EN.txt	BEER	Beverages	6	5	[0, 0, 0]	n/a	catFR1	5	R1498D
577.514	0.884	610832	WORD_OFF	n/a	n/a	BEER	Beverages	6	5	[0, 0, 0]	n/a	catFR1	5	R1498D
578.398	1.6	611718	WORD	n/a	wordpools/wordpool_categorized_EN.txt	PENCIL	OfficeSupplies	7	5	[0, 0, 0]	n/a	catFR1	5	R1498D
580.014	0.817	613339	WORD_OFF	n/a	n/a	PENCIL	OfficeSupplies	7	5	[0, 0, 0]	n/a	catFR1	5	R1498D
580.831	1.6	614153	WORD	n/a	wordpools/wordpool_categorized_EN.txt	ERASER	OfficeSupplies	8	5	[0, 0, 0]	n/a	catFR1	5	R1498D
582.446	0.852	615765	WORD_OFF	n/a	n/a	ERASER	OfficeSupplies	8	5	[0, 0, 0]	n/a	catFR1	5	R1498D
583.298	1.6	616616	WORD	n/a	wordpools/wordpool_categorized_EN.txt	LEMONADE	Beverages	9	5	[0, 0, 0]	n/a	catFR1	5	R1498D
584.898	0.949	618219	WORD_OFF	n/a	n/a	LEMONADE	Beverages	9	5	[0, 0, 0]	n/a	catFR1	5	R1498D
585.847	1.6	619167	WORD	n/a	wordpools/wordpool_categorized_EN.txt	COLA	Beverages	10	5	[0, 0, 0]	n/a	catFR1	5	R1498D
587.447	0.884	620770	WORD_OFF	n/a	n/a	COLA	Beverages	10	5	[0, 0, 0]	n/a	catFR1	5	R1498D
588.331	1.6	621655	WORD	n/a	wordpools/wordpool_categorized_EN.txt	PLUM	Fruit	11	5	[0, 0, 0]	n/a	catFR1	5	R1498D
589.946	0.834	623267	WORD_OFF	n/a	n/a	PLUM	Fruit	11	5	[0, 0, 0]	n/a	catFR1	5	R1498D
590.78	1.6	624100	WORD	n/a	wordpools/wordpool_categorized_EN.txt	APPLE	Fruit	12	5	[0, 0, 0]	n/a	catFR1	5	R1498D
592.396	0.001	625712	WORD_OFF	n/a	n/a	APPLE	Fruit	12	5	[0, 0, 0]	n/a	catFR1	5	R1498D
592.397	0.0	625716	START	n/a	n/a	n/a	n/a	-999	5	[-999, -999, -999]	n/a	catFR1	5	R1498D
592.397	0.0	625716	PROB	5.617	n/a	n/a	n/a	-999	5	[8, 1, 1]	10.0	catFR1	5	R1498D
592.397	0.0	625721	ENCODING_END	n/a	n/a	n/a	n/a	-999	5	[0, 0, 0]	n/a	catFR1	5	R1498D
592.397	5.634	625721	DISTRACT_START	n/a	n/a	n/a	n/a	-999	5	[0, 0, 0]	n/a	catFR1	5	R1498D
598.031	5.899	631349	PROB	5.883	n/a	n/a	n/a	-999	5	[3, 1, 5]	9.0	catFR1	5	R1498D
603.93	4.735	637248	PROB	4.715	n/a	n/a	n/a	-999	5	[5, 3, 7]	15.0	catFR1	5	R1498D
608.665	2.165	641983	PROB	2.149	n/a	n/a	n/a	-999	5	[7, 1, 3]	11.0	catFR1	5	R1498D
610.83	10.982	644148	PROB	10.966	n/a	n/a	n/a	-999	5	[5, 8, 8]	21.0	catFR1	5	R1498D
621.812	0.0	655129	STOP	n/a	n/a	n/a	n/a	-999	5	[-999, -999, -999]	n/a	catFR1	5	R1498D
621.812	2.101	655135	DISTRACT_END	n/a	n/a	n/a	n/a	-999	5	[0, 0, 0]	n/a	catFR1	5	R1498D
623.913	12.242	657234	REC_START	n/a	n/a	n/a	n/a	-999	5	[0, 0, 0]	n/a	catFR1	5	R1498D
636.155	0.552	669471	REC_WORD	12.242	n/a	BEER	Beverages	6	5	[0, 0, 0]	n/a	catFR1	5	R1498D
636.707	17.472	670023	REC_WORD	12.794	n/a	WINE	n/a	-999	5	[0, 0, 0]	n/a	catFR1	5	R1498D
654.179	17.252	687499	REC_END	n/a	n/a	n/a	n/a	-999	5	[0, 0, 0]	n/a	catFR1	5	R1498D
671.431	10.0	704744	COUNTDOWN_START	n/a	n/a	n/a	n/a	-999	6	[0, 0, 0]	n/a	catFR1	5	R1498D
681.78	0.0	715098	COUNTDOWN_END	n/a	n/a	n/a	n/a	-999	6	[0, 0, 0]	n/a	catFR1	5	R1498D
681.78	2.049	715098	ENCODING_START	n/a	n/a	n/a	n/a	-999	6	[0, 0, 0]	n/a	catFR1	5	R1498D
683.829	1.6	717144	WORD	n/a	wordpools/wordpool_categorized_EN.txt	LADLE	KitchenTools	1	6	[0, 0, 0]	n/a	catFR1	5	R1498D
685.43	0.868	718747	WORD_OFF	n/a	n/a	LADLE	KitchenTools	1	6	[0, 0, 0]	n/a	catFR1	5	R1498D
686.298	1.6	719615	WORD	n/a	wordpools/wordpool_categorized_EN.txt	SPATULA	KitchenTools	2	6	[0, 0, 0]	n/a	catFR1	5	R1498D
687.898	0.783	721210	WORD_OFF	n/a	n/a	SPATULA	KitchenTools	2	6	[0, 0, 0]	n/a	catFR1	5	R1498D
688.681	1.6	721998	WORD	n/a	wordpools/wordpool_categorized_EN.txt	OCEAN	Landscapes	3	6	[0, 0, 0]	n/a	catFR1	5	R1498D
690.297	1.0	723610	WORD_OFF	n/a	n/a	OCEAN	Landscapes	3	6	[0, 0, 0]	n/a	catFR1	5	R1498D
691.297	1.6	724611	WORD	n/a	wordpools/wordpool_categorized_EN.txt	WOODS	Landscapes	4	6	[0, 0, 0]	n/a	catFR1	5	R1498D
692.915	0.916	726232	WORD_OFF	n/a	n/a	WOODS	Landscapes	4	6	[0, 0, 0]	n/a	catFR1	5	R1498D
693.831	1.6	727144	WORD	n/a	wordpools/wordpool_categorized_EN.txt	SUEDE	Fabric	5	6	[0, 0, 0]	n/a	catFR1	5	R1498D
695.431	0.766	728747	WORD_OFF	n/a	n/a	SUEDE	Fabric	5	6	[0, 0, 0]	n/a	catFR1	5	R1498D
696.197	1.6	729509	WORD	n/a	wordpools/wordpool_categorized_EN.txt	SILK	Fabric	6	6	[0, 0, 0]	n/a	catFR1	5	R1498D
697.814	0.917	731130	WORD_OFF	n/a	n/a	SILK	Fabric	6	6	[0, 0, 0]	n/a	catFR1	5	R1498D
698.731	1.6	732042	WORD	n/a	wordpools/wordpool_categorized_EN.txt	CREEK	Landscapes	7	6	[0, 0, 0]	n/a	catFR1	5	R1498D
700.331	0.95	733645	WORD_OFF	n/a	n/a	CREEK	Landscapes	7	6	[0, 0, 0]	n/a	catFR1	5	R1498D
701.281	1.6	734593	WORD	n/a	wordpools/wordpool_categorized_EN.txt	MOUNTAIN	Landscapes	8	6	[0, 0, 0]	n/a	catFR1	5	R1498D
702.881	0.8	736196	WORD_OFF	n/a	n/a	MOUNTAIN	Landscapes	8	6	[0, 0, 0]	n/a	catFR1	5	R1498D
703.681	1.6	736993	WORD	n/a	wordpools/wordpool_categorized_EN.txt	TONGS	KitchenTools	9	6	[0, 0, 0]	n/a	catFR1	5	R1498D
705.297	0.8	738614	WORD_OFF	n/a	n/a	TONGS	KitchenTools	9	6	[0, 0, 0]	n/a	catFR1	5	R1498D
706.097	1.6	739411	WORD	n/a	wordpools/wordpool_categorized_EN.txt	KNIFE	KitchenTools	10	6	[0, 0, 0]	n/a	catFR1	5	R1498D
707.698	0.899	741014	WORD_OFF	n/a	n/a	KNIFE	KitchenTools	10	6	[0, 0, 0]	n/a	catFR1	5	R1498D
708.597	1.6	741909	WORD	n/a	wordpools/wordpool_categorized_EN.txt	SPANDEX	Fabric	11	6	[0, 0, 0]	n/a	catFR1	5	R1498D
710.197	0.884	743512	WORD_OFF	n/a	n/a	SPANDEX	Fabric	11	6	[0, 0, 0]	n/a	catFR1	5	R1498D
711.081	1.6	744398	WORD	n/a	wordpools/wordpool_categorized_EN.txt	LINEN	Fabric	12	6	[0, 0, 0]	n/a	catFR1	5	R1498D
712.698	0.001	746010	WORD_OFF	n/a	n/a	LINEN	Fabric	12	6	[0, 0, 0]	n/a	catFR1	5	R1498D
712.699	0.0	746010	ENCODING_END	n/a	n/a	n/a	n/a	-999	6	[0, 0, 0]	n/a	catFR1	5	R1498D
712.698	0.001	746010	PROB	4.433	n/a	n/a	n/a	-999	6	[6, 1, 4]	11.0	catFR1	5	R1498D
712.699	0.0	746011	START	n/a	n/a	n/a	n/a	-999	6	[-999, -999, -999]	n/a	catFR1	5	R1498D
712.699	4.449	746019	DISTRACT_START	n/a	n/a	n/a	n/a	-999	6	[0, 0, 0]	n/a	catFR1	5	R1498D
717.148	6.017	750460	PROB	5.999	n/a	n/a	n/a	-999	6	[2, 5, 4]	11.0	catFR1	5	R1498D
723.165	18.049	756477	PROB	18.033	n/a	n/a	n/a	-999	6	[7, 6, 2]	25.0	catFR1	5	R1498D
741.214	0.0	774525	STOP	n/a	n/a	n/a	n/a	-999	6	[-999, -999, -999]	n/a	catFR1	5	R1498D
741.214	2.233	774530	DISTRACT_END	n/a	n/a	n/a	n/a	-999	6	[0, 0, 0]	n/a	catFR1	5	R1498D
743.447	3.063	776761	REC_START	n/a	n/a	n/a	n/a	-999	6	[0, 0, 0]	n/a	catFR1	5	R1498D
746.51	0.6	779820	REC_WORD	3.063	n/a	LINEN	Fabric	12	6	[0, 0, 0]	n/a	catFR1	5	R1498D
747.11	26.572	780420	REC_WORD	3.663	n/a	SUEDE	Fabric	5	6	[0, 0, 0]	n/a	catFR1	5	R1498D
773.682	6.582	806991	REC_END	n/a	n/a	n/a	n/a	-999	6	[0, 0, 0]	n/a	catFR1	5	R1498D
780.264	10.0	813572	COUNTDOWN_START	n/a	n/a	n/a	n/a	-999	7	[0, 0, 0]	n/a	catFR1	5	R1498D
790.614	0.0	823926	COUNTDOWN_END	n/a	n/a	n/a	n/a	-999	7	[0, 0, 0]	n/a	catFR1	5	R1498D
790.614	2.0	823926	ENCODING_START	n/a	n/a	n/a	n/a	-999	7	[0, 0, 0]	n/a	catFR1	5	R1498D
792.614	1.6	825928	WORD	n/a	wordpools/wordpool_categorized_EN.txt	DAFFODIL	Flowers	1	7	[0, 0, 0]	n/a	catFR1	5	R1498D
794.231	0.916	827540	WORD_OFF	n/a	n/a	DAFFODIL	Flowers	1	7	[0, 0, 0]	n/a	catFR1	5	R1498D
795.147	1.6	828461	WORD	n/a	wordpools/wordpool_categorized_EN.txt	LILY	Flowers	2	7	[0, 0, 0]	n/a	catFR1	5	R1498D
796.764	0.933	830073	WORD_OFF	n/a	n/a	LILY	Flowers	2	7	[0, 0, 0]	n/a	catFR1	5	R1498D
797.697	1.6	831003	WORD	n/a	wordpools/wordpool_categorized_EN.txt	STOVE	Appliances	3	7	[0, 0, 0]	n/a	catFR1	5	R1498D
799.297	0.851	832606	WORD_OFF	n/a	n/a	STOVE	Appliances	3	7	[0, 0, 0]	n/a	catFR1	5	R1498D
800.148	1.6	833456	WORD	n/a	wordpools/wordpool_categorized_EN.txt	TOASTER	Appliances	4	7	[0, 0, 0]	n/a	catFR1	5	R1498D
801.764	0.983	835077	WORD_OFF	n/a	n/a	TOASTER	Appliances	4	7	[0, 0, 0]	n/a	catFR1	5	R1498D
802.747	1.6	836060	WORD	n/a	wordpools/wordpool_categorized_EN.txt	STRAWBERRY	Fruit	5	7	[0, 0, 0]	n/a	catFR1	5	R1498D
804.347	0.85	837654	WORD_OFF	n/a	n/a	STRAWBERRY	Fruit	5	7	[0, 0, 0]	n/a	catFR1	5	R1498D
805.197	1.6	838505	WORD	n/a	wordpools/wordpool_categorized_EN.txt	PEAR	Fruit	6	7	[0, 0, 0]	n/a	catFR1	5	R1498D
806.797	1.0	840108	WORD_OFF	n/a	n/a	PEAR	Fruit	6	7	[0, 0, 0]	n/a	catFR1	5	R1498D
807.797	1.6	841109	WORD	n/a	wordpools/wordpool_categorized_EN.txt	DISHWASHER	Appliances	7	7	[0, 0, 0]	n/a	catFR1	5	R1498D
809.397	0.866	842703	WORD_OFF	n/a	n/a	DISHWASHER	Appliances	7	7	[0, 0, 0]	n/a	catFR1	5	R1498D
810.263	1.6	843571	WORD	n/a	wordpools/wordpool_categorized_EN.txt	BLENDER	Appliances	8	7	[0, 0, 0]	n/a	catFR1	5	R1498D
811.864	0.833	845174	WORD_OFF	n/a	n/a	BLENDER	Appliances	8	7	[0, 0, 0]	n/a	catFR1	5	R1498D
812.697	1.6	846007	WORD	n/a	wordpools/wordpool_categorized_EN.txt	DAISY	Flowers	9	7	[0, 0, 0]	n/a	catFR1	5	R1498D
814.297	0.916	847610	WORD_OFF	n/a	n/a	DAISY	Flowers	9	7	[0, 0, 0]	n/a	catFR1	5	R1498D
815.213	1.6	848522	WORD	n/a	wordpools/wordpool_categorized_EN.txt	PETUNIA	Flowers	10	7	[0, 0, 0]	n/a	catFR1	5	R1498D
816.813	0.867	850125	WORD_OFF	n/a	n/a	PETUNIA	Flowers	10	7	[0, 0, 0]	n/a	catFR1	5	R1498D
817.68	1.6	850984	WORD	n/a	wordpools/wordpool_categorized_EN.txt	LEMON	Fruit	11	7	[0, 0, 0]	n/a	catFR1	5	R1498D
819.297	0.834	852605	WORD_OFF	n/a	n/a	LEMON	Fruit	11	7	[0, 0, 0]	n/a	catFR1	5	R1498D
820.131	1.6	853438	WORD	n/a	wordpools/wordpool_categorized_EN.txt	BLUEBERRY	Fruit	12	7	[0, 0, 0]	n/a	catFR1	5	R1498D
821.747	0.001	855053	PROB	7.767	n/a	n/a	n/a	-999	7	[2, 7, 8]	17.0	catFR1	5	R1498D
821.748	0.0	855054	START	n/a	n/a	n/a	n/a	-999	7	[-999, -999, -999]	n/a	catFR1	5	R1498D
821.747	0.001	855059	WORD_OFF	n/a	n/a	BLUEBERRY	Fruit	12	7	[0, 0, 0]	n/a	catFR1	5	R1498D
821.748	0.0	855059	ENCODING_END	n/a	n/a	n/a	n/a	-999	7	[0, 0, 0]	n/a	catFR1	5	R1498D
821.748	7.782	855059	DISTRACT_START	n/a	n/a	n/a	n/a	-999	7	[0, 0, 0]	n/a	catFR1	5	R1498D
829.53	17.017	862836	PROB	17.001	n/a	n/a	n/a	-999	7	[7, 8, 4]	19.0	catFR1	5	R1498D
846.547	0.0	879850	DISTRACT_END	n/a	n/a	n/a	n/a	-999	7	[0, 0, 0]	n/a	catFR1	5	R1498D
846.547	2.167	879852	STOP	n/a	n/a	n/a	n/a	-999	7	[-999, -999, -999]	n/a	catFR1	5	R1498D
848.714	16.055	882019	REC_START	n/a	n/a	n/a	n/a	-999	7	[0, 0, 0]	n/a	catFR1	5	R1498D
864.769	9.13	898073	REC_WORD_VV	16.055	n/a	<>	n/a	-999	7	[0, 0, 0]	n/a	catFR1	5	R1498D
873.899	5.055	907203	REC_WORD_VV	25.185	n/a	<>	n/a	-999	7	[0, 0, 0]	n/a	catFR1	5	R1498D
878.954	17.76	912258	REC_END	n/a	n/a	n/a	n/a	-999	7	[0, 0, 0]	n/a	catFR1	5	R1498D
896.714	10.0	930017	COUNTDOWN_START	n/a	n/a	n/a	n/a	-999	8	[0, 0, 0]	n/a	catFR1	5	R1498D
907.063	0.0	940371	COUNTDOWN_END	n/a	n/a	n/a	n/a	-999	8	[0, 0, 0]	n/a	catFR1	5	R1498D
907.063	2.217	940371	ENCODING_START	n/a	n/a	n/a	n/a	-999	8	[0, 0, 0]	n/a	catFR1	5	R1498D
909.28	1.6	942585	WORD	n/a	wordpools/wordpool_categorized_EN.txt	ARM	BodyParts	1	8	[0, 0, 0]	n/a	catFR1	5	R1498D
910.88	0.95	944179	WORD_OFF	n/a	n/a	ARM	BodyParts	1	8	[0, 0, 0]	n/a	catFR1	5	R1498D
911.83	1.6	945136	WORD	n/a	wordpools/wordpool_categorized_EN.txt	EYE	BodyParts	2	8	[0, 0, 0]	n/a	catFR1	5	R1498D
913.447	0.883	946748	WORD_OFF	n/a	n/a	EYE	BodyParts	2	8	[0, 0, 0]	n/a	catFR1	5	R1498D
914.33	1.6	947634	WORD	n/a	wordpools/wordpool_categorized_EN.txt	VALLEY	Landscapes	3	8	[0, 0, 0]	n/a	catFR1	5	R1498D
915.931	0.866	949237	WORD_OFF	n/a	n/a	VALLEY	Landscapes	3	8	[0, 0, 0]	n/a	catFR1	5	R1498D
916.797	1.6	950105	WORD	n/a	wordpools/wordpool_categorized_EN.txt	ISLAND	Landscapes	4	8	[0, 0, 0]	n/a	catFR1	5	R1498D
918.397	0.817	951699	WORD_OFF	n/a	n/a	ISLAND	Landscapes	4	8	[0, 0, 0]	n/a	catFR1	5	R1498D
919.214	1.6	952514	WORD	n/a	wordpools/wordpool_categorized_EN.txt	PLANE	Vehicles	5	8	[0, 0, 0]	n/a	catFR1	5	R1498D
920.814	0.817	954117	WORD_OFF	n/a	n/a	PLANE	Vehicles	5	8	[0, 0, 0]	n/a	catFR1	5	R1498D
921.631	1.6	954932	WORD	n/a	wordpools/wordpool_categorized_EN.txt	CAR	Vehicles	6	8	[0, 0, 0]	n/a	catFR1	5	R1498D
923.231	0.85	956535	WORD_OFF	n/a	n/a	CAR	Vehicles	6	8	[0, 0, 0]	n/a	catFR1	5	R1498D
924.081	1.6	957385	WORD	n/a	wordpools/wordpool_categorized_EN.txt	HAND	BodyParts	7	8	[0, 0, 0]	n/a	catFR1	5	R1498D
925.697	0.816	958997	WORD_OFF	n/a	n/a	HAND	BodyParts	7	8	[0, 0, 0]	n/a	catFR1	5	R1498D
926.513	1.6	959812	WORD	n/a	wordpools/wordpool_categorized_EN.txt	FOOT	BodyParts	8	8	[0, 0, 0]	n/a	catFR1	5	R1498D
928.13	0.967	961433	WORD_OFF	n/a	n/a	FOOT	BodyParts	8	8	[0, 0, 0]	n/a	catFR1	5	R1498D
929.097	1.6	962398	WORD	n/a	wordpools/wordpool_categorized_EN.txt	MOTORCYCLE	Vehicles	9	8	[0, 0, 0]	n/a	catFR1	5	R1498D
930.714	0.983	964019	WORD_OFF	n/a	n/a	MOTORCYCLE	Vehicles	9	8	[0, 0, 0]	n/a	catFR1	5	R1498D
931.697	1.6	965002	WORD	n/a	wordpools/wordpool_categorized_EN.txt	JEEP	Vehicles	10	8	[0, 0, 0]	n/a	catFR1	5	R1498D
933.297	0.867	966597	WORD_OFF	n/a	n/a	JEEP	Vehicles	10	8	[0, 0, 0]	n/a	catFR1	5	R1498D
934.164	1.6	967465	WORD	n/a	wordpools/wordpool_categorized_EN.txt	HILLS	Landscapes	11	8	[0, 0, 0]	n/a	catFR1	5	R1498D
935.781	1.0	969086	WORD_OFF	n/a	n/a	HILLS	Landscapes	11	8	[0, 0, 0]	n/a	catFR1	5	R1498D
936.781	1.6	970086	WORD	n/a	wordpools/wordpool_categorized_EN.txt	BEACH	Landscapes	12	8	[0, 0, 0]	n/a	catFR1	5	R1498D
938.381	0.001	971681	WORD_OFF	n/a	n/a	BEACH	Landscapes	12	8	[0, 0, 0]	n/a	catFR1	5	R1498D
938.382	0.0	971681	ENCODING_END	n/a	n/a	n/a	n/a	-999	8	[0, 0, 0]	n/a	catFR1	5	R1498D
938.381	0.001	971681	PROB	7.899	n/a	n/a	n/a	-999	8	[6, 1, 8]	15.0	catFR1	5	R1498D
938.382	0.0	971682	START	n/a	n/a	n/a	n/a	-999	8	[-999, -999, -999]	n/a	catFR1	5	R1498D
938.382	7.915	971690	DISTRACT_START	n/a	n/a	n/a	n/a	-999	8	[0, 0, 0]	n/a	catFR1	5	R1498D
946.297	4.233	979597	PROB	4.217	n/a	n/a	n/a	-999	8	[1, 7, 3]	11.0	catFR1	5	R1498D
950.53	4.151	983829	PROB	4.133	n/a	n/a	n/a	-999	8	[1, 4, 1]	6.0	catFR1	5	R1498D
954.681	6.032	987980	PROB	6.015	n/a	n/a	n/a	-999	8	[6, 4, 7]	17.0	catFR1	5	R1498D
960.713	0.0	994012	STOP	n/a	n/a	n/a	n/a	-999	8	[-999, -999, -999]	n/a	catFR1	5	R1498D
960.713	2.351	994018	DISTRACT_END	n/a	n/a	n/a	n/a	-999	8	[0, 0, 0]	n/a	catFR1	5	R1498D
963.064	8.492	996365	REC_START	n/a	n/a	n/a	n/a	-999	8	[0, 0, 0]	n/a	catFR1	5	R1498D
971.556	6.344	1004854	REC_WORD	8.492	n/a	HILLS	Landscapes	11	8	[0, 0, 0]	n/a	catFR1	5	R1498D
977.9	3.794	1011198	REC_WORD_VV	14.836	n/a	<>	n/a	-999	8	[0, 0, 0]	n/a	catFR1	5	R1498D
981.694	5.077	1014992	REC_WORD_VV	18.63	n/a	<>	n/a	-999	8	[0, 0, 0]	n/a	catFR1	5	R1498D
986.771	6.563	1020069	REC_WORD_VV	23.707	n/a	<>	n/a	-999	8	[0, 0, 0]	n/a	catFR1	5	R1498D
993.334	11.646	1026630	REC_END	n/a	n/a	n/a	n/a	-999	8	[0, 0, 0]	n/a	catFR1	5	R1498D
1004.98	10.0	1038277	COUNTDOWN_START	n/a	n/a	n/a	n/a	-999	9	[0, 0, 0]	n/a	catFR1	5	R1498D
1015.33	0.0	1048631	COUNTDOWN_END	n/a	n/a	n/a	n/a	-999	9	[0, 0, 0]	n/a	catFR1	5	R1498D
1015.33	2.233	1048631	ENCODING_START	n/a	n/a	n/a	n/a	-999	9	[0, 0, 0]	n/a	catFR1	5	R1498D
1017.563	1.6	1050863	WORD	n/a	wordpools/wordpool_categorized_EN.txt	DOOR	Building	1	9	[0, 0, 0]	n/a	catFR1	5	R1498D
1019.164	0.899	1052458	WORD_OFF	n/a	n/a	DOOR	Building	1	9	[0, 0, 0]	n/a	catFR1	5	R1498D
1020.063	1.6	1053361	WORD	n/a	wordpools/wordpool_categorized_EN.txt	STAIRS	Building	2	9	[0, 0, 0]	n/a	catFR1	5	R1498D
1021.663	0.801	1054964	WORD_OFF	n/a	n/a	STAIRS	Building	2	9	[0, 0, 0]	n/a	catFR1	5	R1498D
1022.464	1.6	1055761	WORD	n/a	wordpools/wordpool_categorized_EN.txt	TRAIN	Vehicles	3	9	[0, 0, 0]	n/a	catFR1	5	R1498D
1024.081	0.783	1057382	WORD_OFF	n/a	n/a	TRAIN	Vehicles	3	9	[0, 0, 0]	n/a	catFR1	5	R1498D
1024.864	1.6	1058162	WORD	n/a	wordpools/wordpool_categorized_EN.txt	MOPED	Vehicles	4	9	[0, 0, 0]	n/a	catFR1	5	R1498D
1026.481	0.883	1059774	WORD_OFF	n/a	n/a	MOPED	Vehicles	4	9	[0, 0, 0]	n/a	catFR1	5	R1498D
1027.364	1.6	1060659	WORD	n/a	wordpools/wordpool_categorized_EN.txt	DRIZZLE	Weather	5	9	[0, 0, 0]	n/a	catFR1	5	R1498D
1028.98	0.883	1062280	WORD_OFF	n/a	n/a	DRIZZLE	Weather	5	9	[0, 0, 0]	n/a	catFR1	5	R1498D
1029.863	1.6	1063157	WORD	n/a	wordpools/wordpool_categorized_EN.txt	RAIN	Weather	6	9	[0, 0, 0]	n/a	catFR1	5	R1498D
1031.464	0.767	1064760	WORD_OFF	n/a	n/a	RAIN	Weather	6	9	[0, 0, 0]	n/a	catFR1	5	R1498D
1032.231	1.6	1065531	WORD	n/a	wordpools/wordpool_categorized_EN.txt	BATHROOM	Building	7	9	[0, 0, 0]	n/a	catFR1	5	R1498D
1033.848	0.998	1067143	WORD_OFF	n/a	n/a	BATHROOM	Building	7	9	[0, 0, 0]	n/a	catFR1	5	R1498D
1034.846	1.6	1068144	WORD	n/a	wordpools/wordpool_categorized_EN.txt	CEILING	Building	8	9	[0, 0, 0]	n/a	catFR1	5	R1498D
1036.447	0.767	1069747	WORD_OFF	n/a	n/a	CEILING	Building	8	9	[0, 0, 0]	n/a	catFR1	5	R1498D
1037.214	1.6	1070509	WORD	n/a	wordpools/wordpool_categorized_EN.txt	WIND	Weather	9	9	[0, 0, 0]	n/a	catFR1	5	R1498D
1038.831	0.882	1072129	WORD_OFF	n/a	n/a	WIND	Weather	9	9	[0, 0, 0]	n/a	catFR1	5	R1498D
1039.713	1.6	1073006	WORD	n/a	wordpools/wordpool_categorized_EN.txt	HURRICANE	Weather	10	9	[0, 0, 0]	n/a	catFR1	5	R1498D
1041.314	0.933	1074609	WORD_OFF	n/a	n/a	HURRICANE	Weather	10	9	[0, 0, 0]	n/a	catFR1	5	R1498D
1042.247	1.6	1075539	WORD	n/a	wordpools/wordpool_categorized_EN.txt	BUS	Vehicles	11	9	[0, 0, 0]	n/a	catFR1	5	R1498D
1043.848	0.782	1077143	WORD_OFF	n/a	n/a	BUS	Vehicles	11	9	[0, 0, 0]	n/a	catFR1	5	R1498D
1044.63	1.6	1077931	WORD	n/a	wordpools/wordpool_categorized_EN.txt	SCOOTER	Vehicles	12	9	[0, 0, 0]	n/a	catFR1	5	R1498D
1046.248	0.0	1079542	PROB	6.849	n/a	n/a	n/a	-999	9	[8, 4, 5]	17.0	catFR1	5	R1498D
1046.247	0.002	1079543	WORD_OFF	n/a	n/a	SCOOTER	Vehicles	12	9	[0, 0, 0]	n/a	catFR1	5	R1498D
1046.249	0.0	1079543	ENCODING_END	n/a	n/a	n/a	n/a	-999	9	[0, 0, 0]	n/a	catFR1	5	R1498D
1046.249	0.0	1079543	START	n/a	n/a	n/a	n/a	-999	9	[-999, -999, -999]	n/a	catFR1	5	R1498D
1046.249	6.865	1079552	DISTRACT_START	n/a	n/a	n/a	n/a	-999	9	[0, 0, 0]	n/a	catFR1	5	R1498D
1053.114	16.15	1086408	PROB	16.133	n/a	n/a	n/a	-999	9	[2, 7, 6]	15.0	catFR1	5	R1498D
1069.264	0.0	1102557	STOP	n/a	n/a	n/a	n/a	-999	9	[-999, -999, -999]	n/a	catFR1	5	R1498D
1069.264	2.317	1102563	DISTRACT_END	n/a	n/a	n/a	n/a	-999	9	[0, 0, 0]	n/a	catFR1	5	R1498D
1071.581	1.139	1104873	REC_START	n/a	n/a	n/a	n/a	-999	9	[0, 0, 0]	n/a	catFR1	5	R1498D
1072.72	0.808	1106013	REC_WORD	1.139	n/a	MOPED	Vehicles	4	9	[0, 0, 0]	n/a	catFR1	5	R1498D
1073.528	4.323	1106821	REC_WORD	1.947	n/a	SCOOTER	Vehicles	12	9	[0, 0, 0]	n/a	catFR1	5	R1498D
1077.851	3.611	1111144	REC_WORD	6.27	n/a	MOTORCYCLE	Vehicles	-999	9	[0, 0, 0]	n/a	catFR1	5	R1498D
1081.462	5.583	1114755	REC_WORD	9.881	n/a	TRAIN	Vehicles	3	9	[0, 0, 0]	n/a	catFR1	5	R1498D
1087.045	4.004	1120337	REC_WORD	15.464	n/a	TRAILER	n/a	-999	9	[0, 0, 0]	n/a	catFR1	5	R1498D
1091.049	1.0	1124341	REC_WORD_VV	19.468	n/a	<>	n/a	-999	9	[0, 0, 0]	n/a	catFR1	5	R1498D
1092.049	1.0	1125341	REC_WORD_VV	20.468	n/a	<>	n/a	-999	9	[0, 0, 0]	n/a	catFR1	5	R1498D
1093.049	1.0	1126341	REC_WORD_VV	21.468	n/a	<>	n/a	-999	9	[0, 0, 0]	n/a	catFR1	5	R1498D
1094.049	7.772	1127341	REC_WORD_VV	22.468	n/a	<>	n/a	-999	9	[0, 0, 0]	n/a	catFR1	5	R1498D
1101.821	6.392	1135113	REC_END	n/a	n/a	n/a	n/a	-999	9	[0, 0, 0]	n/a	catFR1	5	R1498D
1108.213	10.0	1141507	COUNTDOWN_START	n/a	n/a	n/a	n/a	-999	10	[0, 0, 0]	n/a	catFR1	5	R1498D
1118.565	0.0	1151861	COUNTDOWN_END	n/a	n/a	n/a	n/a	-999	10	[0, 0, 0]	n/a	catFR1	5	R1498D
1118.565	1.931	1151861	ENCODING_START	n/a	n/a	n/a	n/a	-999	10	[0, 0, 0]	n/a	catFR1	5	R1498D
1120.496	1.6	1153792	WORD	n/a	wordpools/wordpool_categorized_EN.txt	CORKSCREW	KitchenTools	1	10	[0, 0, 0]	n/a	catFR1	5	R1498D
1122.097	0.95	1155387	WORD_OFF	n/a	n/a	CORKSCREW	KitchenTools	1	10	[0, 0, 0]	n/a	catFR1	5	R1498D
1123.047	1.6	1156343	WORD	n/a	wordpools/wordpool_categorized_EN.txt	COLANDER	KitchenTools	2	10	[0, 0, 0]	n/a	catFR1	5	R1498D
1124.647	0.967	1157937	WORD_OFF	n/a	n/a	COLANDER	KitchenTools	2	10	[0, 0, 0]	n/a	catFR1	5	R1498D
1125.614	1.6	1158903	WORD	n/a	wordpools/wordpool_categorized_EN.txt	COW	FarmAnimals	3	10	[0, 0, 0]	n/a	catFR1	5	R1498D
1127.231	0.833	1160524	WORD_OFF	n/a	n/a	COW	FarmAnimals	3	10	[0, 0, 0]	n/a	catFR1	5	R1498D
1128.064	1.6	1161356	WORD	n/a	wordpools/wordpool_categorized_EN.txt	PIG	FarmAnimals	4	10	[0, 0, 0]	n/a	catFR1	5	R1498D
1129.679	0.952	1162968	WORD_OFF	n/a	n/a	PIG	FarmAnimals	4	10	[0, 0, 0]	n/a	catFR1	5	R1498D
1130.631	1.6	1163925	WORD	n/a	wordpools/wordpool_categorized_EN.txt	WINDOW	Building	5	10	[0, 0, 0]	n/a	catFR1	5	R1498D
1132.246	0.95	1165537	WORD_OFF	n/a	n/a	WINDOW	Building	5	10	[0, 0, 0]	n/a	catFR1	5	R1498D
1133.196	1.6	1166493	WORD	n/a	wordpools/wordpool_categorized_EN.txt	ROOM	Building	6	10	[0, 0, 0]	n/a	catFR1	5	R1498D
1134.797	0.916	1168088	WORD_OFF	n/a	n/a	ROOM	Building	6	10	[0, 0, 0]	n/a	catFR1	5	R1498D
1135.713	1.6	1169009	WORD	n/a	wordpools/wordpool_categorized_EN.txt	LAMB	FarmAnimals	7	10	[0, 0, 0]	n/a	catFR1	5	R1498D
1137.314	0.949	1170603	WORD_OFF	n/a	n/a	LAMB	FarmAnimals	7	10	[0, 0, 0]	n/a	catFR1	5	R1498D
1138.263	1.6	1171551	WORD	n/a	wordpools/wordpool_categorized_EN.txt	SHEEP	FarmAnimals	8	10	[0, 0, 0]	n/a	catFR1	5	R1498D
1139.864	0.799	1173154	WORD_OFF	n/a	n/a	SHEEP	FarmAnimals	8	10	[0, 0, 0]	n/a	catFR1	5	R1498D
1140.663	1.6	1173951	WORD	n/a	wordpools/wordpool_categorized_EN.txt	FLOOR	Building	9	10	[0, 0, 0]	n/a	catFR1	5	R1498D
1142.264	0.916	1175554	WORD_OFF	n/a	n/a	FLOOR	Building	9	10	[0, 0, 0]	n/a	catFR1	5	R1498D
1143.18	1.6	1176475	WORD	n/a	wordpools/wordpool_categorized_EN.txt	FOUNDATION	Building	10	10	[0, 0, 0]	n/a	catFR1	5	R1498D
1144.781	0.833	1178070	WORD_OFF	n/a	n/a	FOUNDATION	Building	10	10	[0, 0, 0]	n/a	catFR1	5	R1498D
1145.614	1.6	1178911	WORD	n/a	wordpools/wordpool_categorized_EN.txt	STRAINER	KitchenTools	11	10	[0, 0, 0]	n/a	catFR1	5	R1498D
1147.23	0.934	1180523	WORD_OFF	n/a	n/a	STRAINER	KitchenTools	11	10	[0, 0, 0]	n/a	catFR1	5	R1498D
1148.164	1.6	1181453	WORD	n/a	wordpools/wordpool_categorized_EN.txt	WHISK	KitchenTools	12	10	[0, 0, 0]	n/a	catFR1	5	R1498D
1149.78	0.002	1183069	PROB	11.767	n/a	n/a	n/a	-999	10	[4, 3, 8]	15.0	catFR1	5	R1498D
1149.782	0.0	1183071	START	n/a	n/a	n/a	n/a	-999	10	[-999, -999, -999]	n/a	catFR1	5	R1498D
1149.779	0.003	1183074	WORD_OFF	n/a	n/a	WHISK	KitchenTools	12	10	[0, 0, 0]	n/a	catFR1	5	R1498D
1149.782	0.0	1183074	ENCODING_END	n/a	n/a	n/a	n/a	-999	10	[0, 0, 0]	n/a	catFR1	5	R1498D
1149.782	11.783	1183074	DISTRACT_START	n/a	n/a	n/a	n/a	-999	10	[0, 0, 0]	n/a	catFR1	5	R1498D
1161.565	5.0	1194853	PROB	4.982	n/a	n/a	n/a	-999	10	[2, 3, 2]	7.0	catFR1	5	R1498D
1166.565	4.399	1199853	PROB	4.383	n/a	n/a	n/a	-999	10	[7, 6, 1]	14.0	catFR1	5	R1498D
1170.964	0.0	1204251	DISTRACT_END	n/a	n/a	n/a	n/a	-999	10	[0, 0, 0]	n/a	catFR1	5	R1498D
1170.964	2.067	1204252	STOP	n/a	n/a	n/a	n/a	-999	10	[-999, -999, -999]	n/a	catFR1	5	R1498D
1173.031	2.895	1206323	REC_START	n/a	n/a	n/a	n/a	-999	10	[0, 0, 0]	n/a	catFR1	5	R1498D
1175.926	0.868	1209214	REC_WORD	2.895	n/a	PIG	FarmAnimals	4	10	[0, 0, 0]	n/a	catFR1	5	R1498D
1176.794	0.481	1210082	REC_WORD	3.763	n/a	PIGEON	n/a	-999	10	[0, 0, 0]	n/a	catFR1	5	R1498D
1177.275	8.939	1210562	REC_WORD	4.244	n/a	STRAINER	KitchenTools	11	10	[0, 0, 0]	n/a	catFR1	5	R1498D
1186.214	0.451	1219501	REC_WORD	13.183	n/a	CALF	n/a	-999	10	[0, 0, 0]	n/a	catFR1	5	R1498D
1186.665	6.783	1219952	REC_WORD	13.634	n/a	SHEEP	FarmAnimals	8	10	[0, 0, 0]	n/a	catFR1	5	R1498D
1193.448	9.811	1226735	REC_WORD	20.417	n/a	ROBIN	n/a	-999	10	[0, 0, 0]	n/a	catFR1	5	R1498D
1203.259	22.272	1236545	REC_END	n/a	n/a	n/a	n/a	-999	10	[0, 0, 0]	n/a	catFR1	5	R1498D
1225.531	10.0	1258820	COUNTDOWN_START	n/a	n/a	n/a	n/a	-999	11	[0, 0, 0]	n/a	catFR1	5	R1498D
1235.88	0.0	1269165	COUNTDOWN_END	n/a	n/a	n/a	n/a	-999	11	[0, 0, 0]	n/a	catFR1	5	R1498D
1235.88	1.917	1269165	ENCODING_START	n/a	n/a	n/a	n/a	-999	11	[0, 0, 0]	n/a	catFR1	5	R1498D
1237.797	1.6	1271087	WORD	n/a	wordpools/wordpool_categorized_EN.txt	SLINKY	Toys	1	11	[0, 0, 0]	n/a	catFR1	5	R1498D
1239.413	0.884	1272699	WORD_OFF	n/a	n/a	SLINKY	Toys	1	11	[0, 0, 0]	n/a	catFR1	5	R1498D
1240.297	1.6	1273585	WORD	n/a	wordpools/wordpool_categorized_EN.txt	MARBLES	Toys	2	11	[0, 0, 0]	n/a	catFR1	5	R1498D
1241.897	0.784	1275179	WORD_OFF	n/a	n/a	MARBLES	Toys	2	11	[0, 0, 0]	n/a	catFR1	5	R1498D
1242.681	1.6	1275968	WORD	n/a	wordpools/wordpool_categorized_EN.txt	DRYER	Appliances	3	11	[0, 0, 0]	n/a	catFR1	5	R1498D
1244.296	0.834	1277580	WORD_OFF	n/a	n/a	DRYER	Appliances	3	11	[0, 0, 0]	n/a	catFR1	5	R1498D
1245.13	1.6	1278412	WORD	n/a	wordpools/wordpool_categorized_EN.txt	FREEZER	Appliances	4	11	[0, 0, 0]	n/a	catFR1	5	R1498D
1246.731	0.766	1280015	WORD_OFF	n/a	n/a	FREEZER	Appliances	4	11	[0, 0, 0]	n/a	catFR1	5	R1498D
1247.497	1.6	1280786	WORD	n/a	wordpools/wordpool_categorized_EN.txt	SPINACH	Vegetables	5	11	[0, 0, 0]	n/a	catFR1	5	R1498D
1249.114	0.882	1282398	WORD_OFF	n/a	n/a	SPINACH	Vegetables	5	11	[0, 0, 0]	n/a	catFR1	5	R1498D
1249.996	1.6	1283284	WORD	n/a	wordpools/wordpool_categorized_EN.txt	PEAS	Vegetables	6	11	[0, 0, 0]	n/a	catFR1	5	R1498D
1251.598	0.816	1284887	WORD_OFF	n/a	n/a	PEAS	Vegetables	6	11	[0, 0, 0]	n/a	catFR1	5	R1498D
1252.414	1.6	1285702	WORD	n/a	wordpools/wordpool_categorized_EN.txt	DOLL	Toys	7	11	[0, 0, 0]	n/a	catFR1	5	R1498D
1254.014	0.982	1287296	WORD_OFF	n/a	n/a	DOLL	Toys	7	11	[0, 0, 0]	n/a	catFR1	5	R1498D
1254.996	1.6	1288279	WORD	n/a	wordpools/wordpool_categorized_EN.txt	BASKETBALL	Toys	8	11	[0, 0, 0]	n/a	catFR1	5	R1498D
1256.597	0.95	1289882	WORD_OFF	n/a	n/a	BASKETBALL	Toys	8	11	[0, 0, 0]	n/a	catFR1	5	R1498D
1257.547	1.6	1290830	WORD	n/a	wordpools/wordpool_categorized_EN.txt	ONION	Vegetables	9	11	[0, 0, 0]	n/a	catFR1	5	R1498D
1259.146	0.768	1292433	WORD_OFF	n/a	n/a	ONION	Vegetables	9	11	[0, 0, 0]	n/a	catFR1	5	R1498D
1259.914	1.6	1293195	WORD	n/a	wordpools/wordpool_categorized_EN.txt	CABBAGE	Vegetables	10	11	[0, 0, 0]	n/a	catFR1	5	R1498D
1261.514	0.783	1294798	WORD_OFF	n/a	n/a	CABBAGE	Vegetables	10	11	[0, 0, 0]	n/a	catFR1	5	R1498D
1262.297	1.6	1295577	WORD	n/a	wordpools/wordpool_categorized_EN.txt	REFRIGERATOR	Appliances	11	11	[0, 0, 0]	n/a	catFR1	5	R1498D
1263.897	0.85	1297180	WORD_OFF	n/a	n/a	REFRIGERATOR	Appliances	11	11	[0, 0, 0]	n/a	catFR1	5	R1498D
1264.747	1.6	1298031	WORD	n/a	wordpools/wordpool_categorized_EN.txt	IRON	Appliances	12	11	[0, 0, 0]	n/a	catFR1	5	R1498D
1266.365	0.0	1299648	START	n/a	n/a	n/a	n/a	-999	11	[-999, -999, -999]	n/a	catFR1	5	R1498D
1266.365	0.0	1299648	PROB	4.382	n/a	n/a	n/a	-999	11	[1, 3, 5]	9.0	catFR1	5	R1498D
1266.364	0.001	1299652	WORD_OFF	n/a	n/a	IRON	Appliances	12	11	[0, 0, 0]	n/a	catFR1	5	R1498D
1266.365	0.0	1299652	ENCODING_END	n/a	n/a	n/a	n/a	-999	11	[0, 0, 0]	n/a	catFR1	5	R1498D
1266.365	4.399	1299652	DISTRACT_START	n/a	n/a	n/a	n/a	-999	11	[0, 0, 0]	n/a	catFR1	5	R1498D
1270.764	5.166	1304046	PROB	5.15	n/a	n/a	n/a	-999	11	[7, 4, 3]	14.0	catFR1	5	R1498D
1275.93	3.784	1309212	PROB	3.767	n/a	n/a	n/a	-999	11	[3, 3, 2]	8.0	catFR1	5	R1498D
1279.714	4.4	1312996	PROB	4.383	n/a	n/a	n/a	-999	11	[1, 3, 2]	6.0	catFR1	5	R1498D
1284.114	4.567	1317396	PROB	4.549	n/a	n/a	n/a	-999	11	[3, 2, 7]	12.0	catFR1	5	R1498D
1288.681	0.0	1321963	DISTRACT_END	n/a	n/a	n/a	n/a	-999	11	[0, 0, 0]	n/a	catFR1	5	R1498D
1288.681	2.366	1321963	STOP	n/a	n/a	n/a	n/a	-999	11	[-999, -999, -999]	n/a	catFR1	5	R1498D
1291.047	15.778	1324327	REC_START	n/a	n/a	n/a	n/a	-999	11	[0, 0, 0]	n/a	catFR1	5	R1498D
1306.825	14.469	1340106	REC_WORD	15.778	n/a	MARBLES	Toys	2	11	[0, 0, 0]	n/a	catFR1	5	R1498D
1321.294	14.252	1354575	REC_END	n/a	n/a	n/a	n/a	-999	11	[0, 0, 0]	n/a	catFR1	5	R1498D
1335.546	10.0	1368826	COUNTDOWN_START	n/a	n/a	n/a	n/a	-999	12	[0, 0, 0]	n/a	catFR1	5	R1498D
1345.898	0.0	1379180	COUNTDOWN_END	n/a	n/a	n/a	n/a	-999	12	[0, 0, 0]	n/a	catFR1	5	R1498D
1345.898	1.98	1379180	ENCODING_START	n/a	n/a	n/a	n/a	-999	12	[0, 0, 0]	n/a	catFR1	5	R1498D
1347.878	1.6	1381155	WORD	n/a	wordpools/wordpool_categorized_EN.txt	CLOUD	Weather	1	12	[0, 0, 0]	n/a	catFR1	5	R1498D
1349.48	0.967	1382758	WORD_OFF	n/a	n/a	CLOUD	Weather	1	12	[0, 0, 0]	n/a	catFR1	5	R1498D
1350.447	1.6	1383724	WORD	n/a	wordpools/wordpool_categorized_EN.txt	THUNDER	Weather	2	12	[0, 0, 0]	n/a	catFR1	5	R1498D
1352.047	0.95	1385327	WORD_OFF	n/a	n/a	THUNDER	Weather	2	12	[0, 0, 0]	n/a	catFR1	5	R1498D
1352.997	1.6	1386274	WORD	n/a	wordpools/wordpool_categorized_EN.txt	PUZZLE	Toys	3	12	[0, 0, 0]	n/a	catFR1	5	R1498D
1354.597	1.0	1387878	WORD_OFF	n/a	n/a	PUZZLE	Toys	3	12	[0, 0, 0]	n/a	catFR1	5	R1498D
1355.597	1.6	1388878	WORD	n/a	wordpools/wordpool_categorized_EN.txt	FRISBEE	Toys	4	12	[0, 0, 0]	n/a	catFR1	5	R1498D
1357.197	0.816	1390473	WORD_OFF	n/a	n/a	FRISBEE	Toys	4	12	[0, 0, 0]	n/a	catFR1	5	R1498D
1358.013	1.6	1391296	WORD	n/a	wordpools/wordpool_categorized_EN.txt	MIXER	Appliances	5	12	[0, 0, 0]	n/a	catFR1	5	R1498D
1359.63	0.9	1392908	WORD_OFF	n/a	n/a	MIXER	Appliances	5	12	[0, 0, 0]	n/a	catFR1	5	R1498D
1360.53	1.6	1393812	WORD	n/a	wordpools/wordpool_categorized_EN.txt	VACUUM	Appliances	6	12	[0, 0, 0]	n/a	catFR1	5	R1498D
1362.13	0.817	1395406	WORD_OFF	n/a	n/a	VACUUM	Appliances	6	12	[0, 0, 0]	n/a	catFR1	5	R1498D
1362.947	1.6	1396230	WORD	n/a	wordpools/wordpool_categorized_EN.txt	TORNADO	Weather	7	12	[0, 0, 0]	n/a	catFR1	5	R1498D
1364.547	0.884	1397824	WORD_OFF	n/a	n/a	TORNADO	Weather	7	12	[0, 0, 0]	n/a	catFR1	5	R1498D
1365.431	1.6	1398710	WORD	n/a	wordpools/wordpool_categorized_EN.txt	SNOW	Weather	8	12	[0, 0, 0]	n/a	catFR1	5	R1498D
1367.031	0.9	1400313	WORD_OFF	n/a	n/a	SNOW	Weather	8	12	[0, 0, 0]	n/a	catFR1	5	R1498D
1367.931	1.6	1401208	WORD	n/a	wordpools/wordpool_categorized_EN.txt	OVEN	Appliances	9	12	[0, 0, 0]	n/a	catFR1	5	R1498D
1369.547	0.767	1402828	WORD_OFF	n/a	n/a	OVEN	Appliances	9	12	[0, 0, 0]	n/a	catFR1	5	R1498D
1370.314	1.6	1403590	WORD	n/a	wordpools/wordpool_categorized_EN.txt	WASHER	Appliances	10	12	[0, 0, 0]	n/a	catFR1	5	R1498D
1371.929	0.902	1405211	WORD_OFF	n/a	n/a	WASHER	Appliances	10	12	[0, 0, 0]	n/a	catFR1	5	R1498D
1372.831	1.6	1406106	WORD	n/a	wordpools/wordpool_categorized_EN.txt	FOOTBALL	Toys	11	12	[0, 0, 0]	n/a	catFR1	5	R1498D
1374.431	0.849	1407709	WORD_OFF	n/a	n/a	FOOTBALL	Toys	11	12	[0, 0, 0]	n/a	catFR1	5	R1498D
1375.28	1.6	1408559	WORD	n/a	wordpools/wordpool_categorized_EN.txt	BALL	Toys	12	12	[0, 0, 0]	n/a	catFR1	5	R1498D
1376.896	0.0	1410171	WORD_OFF	n/a	n/a	BALL	Toys	12	12	[0, 0, 0]	n/a	catFR1	5	R1498D
1376.896	0.001	1410173	PROB	6.65	n/a	n/a	n/a	-999	12	[5, 4, 4]	13.0	catFR1	5	R1498D
1376.897	0.0	1410174	START	n/a	n/a	n/a	n/a	-999	12	[-999, -999, -999]	n/a	catFR1	5	R1498D
1376.897	0.0	1410180	ENCODING_END	n/a	n/a	n/a	n/a	-999	12	[0, 0, 0]	n/a	catFR1	5	R1498D
1376.897	6.668	1410180	DISTRACT_START	n/a	n/a	n/a	n/a	-999	12	[0, 0, 0]	n/a	catFR1	5	R1498D
1383.565	9.7	1416841	PROB	9.683	n/a	n/a	n/a	-999	12	[2, 7, 5]	14.0	catFR1	5	R1498D
1393.265	9.132	1426541	PROB	9.116	n/a	n/a	n/a	-999	12	[6, 2, 7]	15.0	catFR1	5	R1498D
1402.397	0.0	1435671	DISTRACT_END	n/a	n/a	n/a	n/a	-999	12	[0, 0, 0]	n/a	catFR1	5	R1498D
1402.397	2.117	1435672	STOP	n/a	n/a	n/a	n/a	-999	12	[-999, -999, -999]	n/a	catFR1	5	R1498D
1404.514	28.716	1437787	REC_START	n/a	n/a	n/a	n/a	-999	12	[0, 0, 0]	n/a	catFR1	5	R1498D
1433.23	1.535	1466504	REC_WORD_VV	28.716	n/a	<>	n/a	-999	12	[0, 0, 0]	n/a	catFR1	5	R1498D
1434.765	0.0	1468044	REC_END	n/a	n/a	n/a	n/a	-999	12	[0, 0, 0]	n/a	catFR1	5	R1498D
