onset	duration	sample	trial_type	response_time	stim_file	item_name	category	serialpos	list	test	answer	experiment	session	subject
0.0	10.389	114180	COUNTDOWN_START	n/a	n/a	n/a	n/a	-999	10	[0, 0, 0]	n/a	catFR1	0	R1655S
10.389	0.001	124560	COUNTDOWN_END	n/a	n/a	n/a	n/a	-999	10	[0, 0, 0]	n/a	catFR1	0	R1655S
10.39	1.989	124560	ENCODING_START	n/a	n/a	n/a	n/a	-999	10	[0, 0, 0]	n/a	catFR1	0	R1655S
12.379	1.604	126558	WORD	n/a	wordpools/wordpool_categorized_EN.txt	LADLE	KitchenTools	1	10	[0, 0, 0]	n/a	catFR1	0	R1655S
13.983	0.812	128154	WORD_OFF	n/a	n/a	LADLE	KitchenTools	1	10	[0, 0, 0]	n/a	catFR1	0	R1655S
14.795	1.602	128974	WORD	n/a	wordpools/wordpool_categorized_EN.txt	KNIFE	KitchenTools	2	10	[0, 0, 0]	n/a	catFR1	0	R1655S
16.397	0.817	130570	WORD_OFF	n/a	n/a	KNIFE	KitchenTools	2	10	[0, 0, 0]	n/a	catFR1	0	R1655S
17.214	1.606	131389	WORD	n/a	wordpools/wordpool_categorized_EN.txt	DOOR	Building	3	10	[0, 0, 0]	n/a	catFR1	0	R1655S
18.82	0.927	132999	WORD_OFF	n/a	n/a	DOOR	Building	3	10	[0, 0, 0]	n/a	catFR1	0	R1655S
19.747	1.607	133919	WORD	n/a	wordpools/wordpool_categorized_EN.txt	BATHROOM	Building	4	10	[0, 0, 0]	n/a	catFR1	0	R1655S
21.354	0.958	135530	WORD_OFF	n/a	n/a	BATHROOM	Building	4	10	[0, 0, 0]	n/a	catFR1	0	R1655S
22.312	1.601	136493	WORD	n/a	wordpools/wordpool_categorized_EN.txt	CABINET	Furniture	5	10	[0, 0, 0]	n/a	catFR1	0	R1655S
23.913	0.807	138089	WORD_OFF	n/a	n/a	CABINET	Furniture	5	10	[0, 0, 0]	n/a	catFR1	0	R1655S
24.72	1.6	138894	WORD	n/a	wordpools/wordpool_categorized_EN.txt	RECLINER	Furniture	6	10	[0, 0, 0]	n/a	catFR1	0	R1655S
26.32	0.995	140490	WORD_OFF	n/a	n/a	RECLINER	Furniture	6	10	[0, 0, 0]	n/a	catFR1	0	R1655S
27.315	1.606	141482	WORD	n/a	wordpools/wordpool_categorized_EN.txt	ROOF	Building	7	10	[0, 0, 0]	n/a	catFR1	0	R1655S
28.921	0.943	143092	WORD_OFF	n/a	n/a	ROOF	Building	7	10	[0, 0, 0]	n/a	catFR1	0	R1655S
29.864	1.606	144041	WORD	n/a	wordpools/wordpool_categorized_EN.txt	FOUNDATION	Building	8	10	[0, 0, 0]	n/a	catFR1	0	R1655S
31.47	0.844	145651	WORD_OFF	n/a	n/a	FOUNDATION	Building	8	10	[0, 0, 0]	n/a	catFR1	0	R1655S
32.314	1.608	146485	WORD	n/a	wordpools/wordpool_categorized_EN.txt	COUCH	Furniture	9	10	[0, 0, 0]	n/a	catFR1	0	R1655S
33.922	0.775	148095	WORD_OFF	n/a	n/a	COUCH	Furniture	9	10	[0, 0, 0]	n/a	catFR1	0	R1655S
34.697	1.607	148871	WORD	n/a	wordpools/wordpool_categorized_EN.txt	TABLE	Furniture	10	10	[0, 0, 0]	n/a	catFR1	0	R1655S
36.304	0.918	150481	WORD_OFF	n/a	n/a	TABLE	Furniture	10	10	[0, 0, 0]	n/a	catFR1	0	R1655S
37.222	1.607	151402	WORD	n/a	wordpools/wordpool_categorized_EN.txt	CORKSCREW	KitchenTools	11	10	[0, 0, 0]	n/a	catFR1	0	R1655S
38.829	0.818	152997	WORD_OFF	n/a	n/a	CORKSCREW	KitchenTools	11	10	[0, 0, 0]	n/a	catFR1	0	R1655S
39.647	1.608	153817	WORD	n/a	wordpools/wordpool_categorized_EN.txt	SPOON	KitchenTools	12	10	[0, 0, 0]	n/a	catFR1	0	R1655S
41.255	0.006	155427	WORD_OFF	n/a	n/a	SPOON	KitchenTools	12	10	[0, 0, 0]	n/a	catFR1	0	R1655S
41.261	0.003	155437	START	n/a	n/a	n/a	n/a	-999	10	[-999, -999, -999]	n/a	catFR1	0	R1655S
41.264	0.0	155440	PROB	0.0	n/a	n/a	n/a	-999	10	[2, 2, 3]	7	catFR1	0	R1655S
41.261	0.0	155441	ENCODING_END	n/a	n/a	n/a	n/a	-999	10	[0, 0, 0]	n/a	catFR1	0	R1655S
41.261	4.286	155441	DISTRACT_START	n/a	n/a	n/a	n/a	-999	10	[0, 0, 0]	n/a	catFR1	0	R1655S
45.547	5.465	159723	PROB	5.465	n/a	n/a	n/a	-999	10	[6, 7, 6]	19	catFR1	0	R1655S
51.012	4.635	165188	PROB	4.635	n/a	n/a	n/a	-999	10	[3, 8, 7]	18	catFR1	0	R1655S
55.647	4.325	169823	PROB	4.325	n/a	n/a	n/a	-999	10	[8, 8, 2]	18	catFR1	0	R1655S
59.972	4.434	174148	PROB	4.434	n/a	n/a	n/a	-999	10	[6, 8, 5]	19	catFR1	0	R1655S
64.406	0.0	178574	DISTRACT_END	n/a	n/a	n/a	n/a	-999	10	[0, 0, 0]	n/a	catFR1	0	R1655S
64.406	2.008	178582	STOP	n/a	n/a	n/a	n/a	-999	10	[-999, -999, -999]	n/a	catFR1	0	R1655S
66.414	0.91	180587	REC_START	n/a	n/a	n/a	n/a	-999	10	[0, 0, 0]	n/a	catFR1	0	R1655S
67.324	1.048	181500	REC_WORD	1.048	n/a	LADLE	KitchenTools	1	10	[0, 0, 0]	n/a	catFR1	0	R1655S
68.372	4.317	182548	REC_WORD	4.317	n/a	KNIFE	KitchenTools	2	10	[0, 0, 0]	n/a	catFR1	0	R1655S
72.689	5.346	186865	REC_WORD_VV	5.346	n/a	<>	n/a	-999	10	[0, 0, 0]	n/a	catFR1	0	R1655S
78.035	0.943	192211	REC_WORD_VV	0.943	n/a	<>	n/a	-999	10	[0, 0, 0]	n/a	catFR1	0	R1655S
78.978	0.0	193154	REC_WORD	0.0	n/a	BATHROOM	Building	4	10	[0, 0, 0]	n/a	catFR1	0	R1655S
-5881.737	5978.34	208880	INSTRUCT_START	n/a	n/a	n/a	n/a	-999	-999	[0, 0, 0]	n/a	catFR1	0	R1655S
96.603	2.892	210778	REC_END	n/a	n/a	n/a	n/a	-999	10	[0, 0, 0]	n/a	catFR1	0	R1655S
99.495	10.341	213668	COUNTDOWN_START	n/a	n/a	n/a	n/a	-999	10	[0, 0, 0]	n/a	catFR1	0	R1655S
109.836	0.0	224004	COUNTDOWN_END	n/a	n/a	n/a	n/a	-999	10	[0, 0, 0]	n/a	catFR1	0	R1655S
109.836	2.177	224004	ENCODING_START	n/a	n/a	n/a	n/a	-999	11	[0, 0, 0]	n/a	catFR1	0	R1655S
112.013	1.606	226190	WORD	n/a	wordpools/wordpool_categorized_EN.txt	PINE	Trees	1	11	[0, 0, 0]	n/a	catFR1	0	R1655S
113.619	0.952	227800	WORD_OFF	n/a	n/a	PINE	Trees	1	11	[0, 0, 0]	n/a	catFR1	0	R1655S
114.571	1.607	228749	WORD	n/a	wordpools/wordpool_categorized_EN.txt	CEDAR	Trees	2	11	[0, 0, 0]	n/a	catFR1	0	R1655S
116.178	0.883	230359	WORD_OFF	n/a	n/a	CEDAR	Trees	2	11	[0, 0, 0]	n/a	catFR1	0	R1655S
117.061	1.601	231236	WORD	n/a	wordpools/wordpool_categorized_EN.txt	HEN	FarmAnimals	3	11	[0, 0, 0]	n/a	catFR1	0	R1655S
118.662	0.938	232832	WORD_OFF	n/a	n/a	HEN	FarmAnimals	3	11	[0, 0, 0]	n/a	catFR1	0	R1655S
119.6	1.605	233781	WORD	n/a	wordpools/wordpool_categorized_EN.txt	CHICKEN	FarmAnimals	4	11	[0, 0, 0]	n/a	catFR1	0	R1655S
121.205	0.891	235376	WORD_OFF	n/a	n/a	CHICKEN	FarmAnimals	4	11	[0, 0, 0]	n/a	catFR1	0	R1655S
122.096	1.6	236268	WORD	n/a	wordpools/wordpool_categorized_EN.txt	LINEN	Fabric	5	11	[0, 0, 0]	n/a	catFR1	0	R1655S
123.696	0.834	237864	WORD_OFF	n/a	n/a	LINEN	Fabric	5	11	[0, 0, 0]	n/a	catFR1	0	R1655S
124.53	1.607	238712	WORD	n/a	wordpools/wordpool_categorized_EN.txt	VELVET	Fabric	6	11	[0, 0, 0]	n/a	catFR1	0	R1655S
126.137	0.775	240308	WORD_OFF	n/a	n/a	VELVET	Fabric	6	11	[0, 0, 0]	n/a	catFR1	0	R1655S
126.912	1.601	241084	WORD	n/a	wordpools/wordpool_categorized_EN.txt	COW	FarmAnimals	7	11	[0, 0, 0]	n/a	catFR1	0	R1655S
128.513	0.757	242694	WORD_OFF	n/a	n/a	COW	FarmAnimals	7	11	[0, 0, 0]	n/a	catFR1	0	R1655S
129.27	1.602	243442	WORD	n/a	wordpools/wordpool_categorized_EN.txt	TURKEY	FarmAnimals	8	11	[0, 0, 0]	n/a	catFR1	0	R1655S
130.872	0.974	245052	WORD_OFF	n/a	n/a	TURKEY	FarmAnimals	8	11	[0, 0, 0]	n/a	catFR1	0	R1655S
131.846	1.609	246015	WORD	n/a	wordpools/wordpool_categorized_EN.txt	NYLON	Fabric	9	11	[0, 0, 0]	n/a	catFR1	0	R1655S
133.455	0.934	247625	WORD_OFF	n/a	n/a	NYLON	Fabric	9	11	[0, 0, 0]	n/a	catFR1	0	R1655S
134.389	1.608	248560	WORD	n/a	wordpools/wordpool_categorized_EN.txt	SATIN	Fabric	10	11	[0, 0, 0]	n/a	catFR1	0	R1655S
135.997	0.95	250170	WORD_OFF	n/a	n/a	SATIN	Fabric	10	11	[0, 0, 0]	n/a	catFR1	0	R1655S
136.947	1.6	251119	WORD	n/a	wordpools/wordpool_categorized_EN.txt	MAPLE	Trees	11	11	[0, 0, 0]	n/a	catFR1	0	R1655S
138.547	0.765	252729	WORD_OFF	n/a	n/a	MAPLE	Trees	11	11	[0, 0, 0]	n/a	catFR1	0	R1655S
139.312	1.603	253491	WORD	n/a	wordpools/wordpool_categorized_EN.txt	OAK	Trees	12	11	[0, 0, 0]	n/a	catFR1	0	R1655S
140.915	0.002	255087	WORD_OFF	n/a	n/a	OAK	Trees	12	11	[0, 0, 0]	n/a	catFR1	0	R1655S
140.917	0.0	255087	ENCODING_END	n/a	n/a	n/a	n/a	-999	11	[0, 0, 0]	n/a	catFR1	0	R1655S
140.917	0.0	255087	DISTRACT_START	n/a	n/a	n/a	n/a	-999	11	[0, 0, 0]	n/a	catFR1	0	R1655S
140.915	0.002	255091	PROB	0.002	n/a	n/a	n/a	-999	11	[1, 8, 5]	14	catFR1	0	R1655S
140.917	6.587	255093	START	n/a	n/a	n/a	n/a	-999	11	[-999, -999, -999]	n/a	catFR1	0	R1655S
147.504	3.927	261680	PROB	3.927	n/a	n/a	n/a	-999	11	[7, 3, 5]	15	catFR1	0	R1655S
151.431	5.857	265607	PROB	5.857	n/a	n/a	n/a	-999	11	[6, 6, 3]	15	catFR1	0	R1655S
157.288	3.558	271464	PROB	3.558	n/a	n/a	n/a	-999	11	[5, 6, 4]	15	catFR1	0	R1655S
160.846	5.066	275022	PROB	5.066	n/a	n/a	n/a	-999	11	[3, 5, 4]	12	catFR1	0	R1655S
165.912	0.0	280088	DISTRACT_END	n/a	n/a	n/a	n/a	-999	11	[0, 0, 0]	n/a	catFR1	0	R1655S
165.912	2.326	280088	STOP	n/a	n/a	n/a	n/a	-999	11	[-999, -999, -999]	n/a	catFR1	0	R1655S
168.238	1.616	282417	REC_START	n/a	n/a	n/a	n/a	-999	11	[0, 0, 0]	n/a	catFR1	0	R1655S
169.854	1.0	284030	REC_WORD_VV	1.0	n/a	<>	n/a	-999	11	[0, 0, 0]	n/a	catFR1	0	R1655S
170.854	1.162	285030	REC_WORD_VV	1.162	n/a	<>	n/a	-999	11	[0, 0, 0]	n/a	catFR1	0	R1655S
172.016	3.512	286192	REC_WORD	3.512	n/a	CEDAR	Trees	2	11	[0, 0, 0]	n/a	catFR1	0	R1655S
175.528	1.395	289704	REC_WORD	1.395	n/a	KNIFE	KitchenTools	-999	11	[0, 0, 0]	n/a	catFR1	0	R1655S
176.923	4.765	291099	REC_WORD_VV	4.765	n/a	<>	n/a	-999	11	[0, 0, 0]	n/a	catFR1	0	R1655S
181.688	1.0	295864	REC_WORD_VV	1.0	n/a	<>	n/a	-999	11	[0, 0, 0]	n/a	catFR1	0	R1655S
182.688	15.695	296864	REC_WORD_VV	15.695	n/a	<>	n/a	-999	11	[0, 0, 0]	n/a	catFR1	0	R1655S
198.383	1.97	312551	REC_END	n/a	n/a	n/a	n/a	-999	11	[0, 0, 0]	n/a	catFR1	0	R1655S
200.353	10.344	314521	COUNTDOWN_START	n/a	n/a	n/a	n/a	-999	11	[0, 0, 0]	n/a	catFR1	0	R1655S
210.697	0.0	324872	COUNTDOWN_END	n/a	n/a	n/a	n/a	-999	11	[0, 0, 0]	n/a	catFR1	0	R1655S
210.697	2.065	324872	ENCODING_START	n/a	n/a	n/a	n/a	-999	12	[0, 0, 0]	n/a	catFR1	0	R1655S
212.762	1.602	326942	WORD	n/a	wordpools/wordpool_categorized_EN.txt	DRESSER	Furniture	1	12	[0, 0, 0]	n/a	catFR1	0	R1655S
214.364	0.874	328538	WORD_OFF	n/a	n/a	DRESSER	Furniture	1	12	[0, 0, 0]	n/a	catFR1	0	R1655S
215.238	1.602	329415	WORD	n/a	wordpools/wordpool_categorized_EN.txt	BOOKCASE	Furniture	2	12	[0, 0, 0]	n/a	catFR1	0	R1655S
216.84	0.814	331011	WORD_OFF	n/a	n/a	BOOKCASE	Furniture	2	12	[0, 0, 0]	n/a	catFR1	0	R1655S
217.654	1.6	331830	WORD	n/a	wordpools/wordpool_categorized_EN.txt	GOAT	FarmAnimals	3	12	[0, 0, 0]	n/a	catFR1	0	R1655S
219.254	0.858	333426	WORD_OFF	n/a	n/a	GOAT	FarmAnimals	3	12	[0, 0, 0]	n/a	catFR1	0	R1655S
220.112	1.609	334289	WORD	n/a	wordpools/wordpool_categorized_EN.txt	PIG	FarmAnimals	4	12	[0, 0, 0]	n/a	catFR1	0	R1655S
221.721	0.944	335899	WORD_OFF	n/a	n/a	PIG	FarmAnimals	4	12	[0, 0, 0]	n/a	catFR1	0	R1655S
222.665	1.606	336834	WORD	n/a	wordpools/wordpool_categorized_EN.txt	DENIM	Fabric	5	12	[0, 0, 0]	n/a	catFR1	0	R1655S
224.271	0.759	338444	WORD_OFF	n/a	n/a	DENIM	Fabric	5	12	[0, 0, 0]	n/a	catFR1	0	R1655S
225.03	1.6	339206	WORD	n/a	wordpools/wordpool_categorized_EN.txt	SPANDEX	Fabric	6	12	[0, 0, 0]	n/a	catFR1	0	R1655S
226.63	0.792	340802	WORD_OFF	n/a	n/a	SPANDEX	Fabric	6	12	[0, 0, 0]	n/a	catFR1	0	R1655S
227.422	1.606	341592	WORD	n/a	wordpools/wordpool_categorized_EN.txt	DESK	Furniture	7	12	[0, 0, 0]	n/a	catFR1	0	R1655S
229.028	0.912	343202	WORD_OFF	n/a	n/a	DESK	Furniture	7	12	[0, 0, 0]	n/a	catFR1	0	R1655S
229.94	1.606	344108	WORD	n/a	wordpools/wordpool_categorized_EN.txt	NIGHTSTAND	Furniture	8	12	[0, 0, 0]	n/a	catFR1	0	R1655S
231.546	0.957	345718	WORD_OFF	n/a	n/a	NIGHTSTAND	Furniture	8	12	[0, 0, 0]	n/a	catFR1	0	R1655S
232.503	1.602	346682	WORD	n/a	wordpools/wordpool_categorized_EN.txt	LAMB	FarmAnimals	9	12	[0, 0, 0]	n/a	catFR1	0	R1655S
234.105	0.841	348277	WORD_OFF	n/a	n/a	LAMB	FarmAnimals	9	12	[0, 0, 0]	n/a	catFR1	0	R1655S
234.946	1.609	349126	WORD	n/a	wordpools/wordpool_categorized_EN.txt	ROOSTER	FarmAnimals	10	12	[0, 0, 0]	n/a	catFR1	0	R1655S
236.555	0.95	350736	WORD_OFF	n/a	n/a	ROOSTER	FarmAnimals	10	12	[0, 0, 0]	n/a	catFR1	0	R1655S
237.505	1.6	351685	WORD	n/a	wordpools/wordpool_categorized_EN.txt	LEATHER	Fabric	11	12	[0, 0, 0]	n/a	catFR1	0	R1655S
239.105	0.874	353281	WORD_OFF	n/a	n/a	LEATHER	Fabric	11	12	[0, 0, 0]	n/a	catFR1	0	R1655S
239.979	1.601	354158	WORD	n/a	wordpools/wordpool_categorized_EN.txt	WOOL	Fabric	12	12	[0, 0, 0]	n/a	catFR1	0	R1655S
241.58	0.003	355753	WORD_OFF	n/a	n/a	WOOL	Fabric	12	12	[0, 0, 0]	n/a	catFR1	0	R1655S
241.583	0.001	355753	ENCODING_END	n/a	n/a	n/a	n/a	-999	12	[0, 0, 0]	n/a	catFR1	0	R1655S
241.584	0.0	355753	DISTRACT_START	n/a	n/a	n/a	n/a	-999	12	[0, 0, 0]	n/a	catFR1	0	R1655S
241.578	0.006	355754	PROB	0.006	n/a	n/a	n/a	-999	12	[5, 3, 6]	14	catFR1	0	R1655S
241.584	5.428	355760	START	n/a	n/a	n/a	n/a	-999	12	[-999, -999, -999]	n/a	catFR1	0	R1655S
247.012	4.792	361188	PROB	4.792	n/a	n/a	n/a	-999	12	[4, 5, 5]	14	catFR1	0	R1655S
251.804	5.218	365980	PROB	5.218	n/a	n/a	n/a	-999	12	[5, 7, 6]	18	catFR1	0	R1655S
257.022	3.981	371198	PROB	3.981	n/a	n/a	n/a	-999	12	[8, 5, 1]	14	catFR1	0	R1655S
261.003	0.0	375179	PROB	0.0	n/a	n/a	n/a	-999	12	[1, 7, 6]	14	catFR1	0	R1655S
-5715.186	5980.175	375421	INSTRUCT_END	n/a	n/a	n/a	n/a	-999	-999	[0, 0, 0]	n/a	catFR1	0	R1655S
264.989	0.0	379159	DISTRACT_END	n/a	n/a	n/a	n/a	-999	12	[0, 0, 0]	n/a	catFR1	0	R1655S
264.989	2.232	379165	STOP	n/a	n/a	n/a	n/a	-999	12	[-999, -999, -999]	n/a	catFR1	0	R1655S
267.221	0.638	381402	REC_START	n/a	n/a	n/a	n/a	-999	12	[0, 0, 0]	n/a	catFR1	0	R1655S
267.859	1.59	382035	REC_WORD_VV	1.59	n/a	<>	n/a	-999	12	[0, 0, 0]	n/a	catFR1	0	R1655S
269.449	2.508	383625	REC_WORD	2.508	n/a	LEATHER	Fabric	11	12	[0, 0, 0]	n/a	catFR1	0	R1655S
271.957	0.926	386133	REC_WORD_VV	0.926	n/a	<>	n/a	-999	12	[0, 0, 0]	n/a	catFR1	0	R1655S
272.883	5.414	387059	REC_WORD	5.414	n/a	DENIM	Fabric	5	12	[0, 0, 0]	n/a	catFR1	0	R1655S
278.297	4.269	392473	REC_WORD_VV	4.269	n/a	<>	n/a	-999	12	[0, 0, 0]	n/a	catFR1	0	R1655S
282.566	14.801	396742	REC_WORD_VV	14.801	n/a	<>	n/a	-999	12	[0, 0, 0]	n/a	catFR1	0	R1655S
297.367	0.0	411535	REC_END	n/a	n/a	n/a	n/a	-999	12	[0, 0, 0]	n/a	catFR1	0	R1655S
-5669.563	10.352	421053	COUNTDOWN_START	n/a	n/a	n/a	n/a	-999	-999	[0, 0, 0]	n/a	catFR1	0	R1655S
-5659.211	0.001	431404	COUNTDOWN_END	n/a	n/a	n/a	n/a	-999	-999	[0, 0, 0]	n/a	catFR1	0	R1655S
-5659.21	2.088	431404	ENCODING_START	n/a	n/a	n/a	n/a	-999	-1	[0, 0, 0]	n/a	catFR1	0	R1655S
-5657.122	1.605	433489	WORD	n/a	n/a	SEAGULL	Birds	1	-1	[0, 0, 0]	n/a	catFR1	0	R1655S
-5655.517	0.971	435099	WORD_OFF	n/a	n/a	SEAGULL	Birds	1	-1	[0, 0, 0]	n/a	catFR1	0	R1655S
-5654.546	1.601	436062	WORD	n/a	n/a	DOVE	Birds	2	-1	[0, 0, 0]	n/a	catFR1	0	R1655S
-5652.945	0.899	437672	WORD_OFF	n/a	n/a	DOVE	Birds	2	-1	[0, 0, 0]	n/a	catFR1	0	R1655S
-5652.046	1.6	438564	WORD	n/a	n/a	ORANGUTAN	Zoo	3	-1	[0, 0, 0]	n/a	catFR1	0	R1655S
-5650.446	0.96	440174	WORD_OFF	n/a	n/a	ORANGUTAN	Zoo	3	-1	[0, 0, 0]	n/a	catFR1	0	R1655S
-5649.486	1.6	441123	WORD	n/a	n/a	ZEBRA	Zoo	4	-1	[0, 0, 0]	n/a	catFR1	0	R1655S
-5647.886	0.907	442733	WORD_OFF	n/a	n/a	ZEBRA	Zoo	4	-1	[0, 0, 0]	n/a	catFR1	0	R1655S
-5646.979	1.602	443639	WORD	n/a	n/a	VELVET	Fabric	5	-1	[0, 0, 0]	n/a	catFR1	0	R1655S
-5645.377	0.791	445235	WORD_OFF	n/a	n/a	VELVET	Fabric	5	-1	[0, 0, 0]	n/a	catFR1	0	R1655S
-5644.586	1.6	446025	WORD	n/a	n/a	SPANDEX	Fabric	6	-1	[0, 0, 0]	n/a	catFR1	0	R1655S
-5642.986	0.767	447636	WORD_OFF	n/a	n/a	SPANDEX	Fabric	6	-1	[0, 0, 0]	n/a	catFR1	0	R1655S
-5642.219	1.599	448397	WORD	n/a	n/a	TIGER	Zoo	7	-1	[0, 0, 0]	n/a	catFR1	0	R1655S
-5640.62	0.808	449993	WORD_OFF	n/a	n/a	TIGER	Zoo	7	-1	[0, 0, 0]	n/a	catFR1	0	R1655S
-5639.812	1.601	450798	WORD	n/a	n/a	ELEPHANT	Zoo	8	-1	[0, 0, 0]	n/a	catFR1	0	R1655S
-5638.211	0.758	452394	WORD_OFF	n/a	n/a	ELEPHANT	Zoo	8	-1	[0, 0, 0]	n/a	catFR1	0	R1655S
-5637.453	1.6	453156	WORD	n/a	n/a	NYLON	Fabric	9	-1	[0, 0, 0]	n/a	catFR1	0	R1655S
-5635.853	0.766	454766	WORD_OFF	n/a	n/a	NYLON	Fabric	9	-1	[0, 0, 0]	n/a	catFR1	0	R1655S
-5635.087	1.601	455528	WORD	n/a	n/a	SATIN	Fabric	10	-1	[0, 0, 0]	n/a	catFR1	0	R1655S
-5633.486	0.866	457124	WORD_OFF	n/a	n/a	SATIN	Fabric	10	-1	[0, 0, 0]	n/a	catFR1	0	R1655S
-5632.62	1.6	458001	WORD	n/a	n/a	ROBIN	Birds	11	-1	[0, 0, 0]	n/a	catFR1	0	R1655S
-5631.02	1.0	459597	WORD_OFF	n/a	n/a	ROBIN	Birds	11	-1	[0, 0, 0]	n/a	catFR1	0	R1655S
-5630.02	1.599	460589	WORD	n/a	n/a	CARDINAL	Birds	12	-1	[0, 0, 0]	n/a	catFR1	0	R1655S
-5628.421	0.003	462185	WORD_OFF	n/a	n/a	CARDINAL	Birds	12	-1	[0, 0, 0]	n/a	catFR1	0	R1655S
-5628.418	0.0	462199	ENCODING_END	n/a	n/a	n/a	n/a	-999	-1	[0, 0, 0]	n/a	catFR1	0	R1655S
-5628.418	0.0	462199	DISTRACT_START	n/a	n/a	n/a	n/a	-999	-1	[0, 0, 0]	n/a	catFR1	0	R1655S
-5628.418	0.002	462199	START	n/a	n/a	n/a	n/a	-999	-1	[-999, -999, -999]	n/a	catFR1	0	R1655S
-5628.416	7.064	462201	PROB	7.064	n/a	n/a	n/a	-999	-1	[4, 1, 2]	7	catFR1	0	R1655S
-5621.352	4.758	469265	PROB	4.758	n/a	n/a	n/a	-999	-1	[1, 8, 8]	17	catFR1	0	R1655S
-5616.594	4.782	474023	PROB	4.782	n/a	n/a	n/a	-999	-1	[2, 8, 5]	15	catFR1	0	R1655S
-5611.812	4.436	478805	PROB	4.436	n/a	n/a	n/a	-999	-1	[1, 7, 1]	9	catFR1	0	R1655S
-5607.376	0.0	483232	DISTRACT_END	n/a	n/a	n/a	n/a	-999	-1	[0, 0, 0]	n/a	catFR1	0	R1655S
-5607.376	2.041	483241	STOP	n/a	n/a	n/a	n/a	-999	-1	[-999, -999, -999]	n/a	catFR1	0	R1655S
-5605.335	10.025	485274	REC_START	n/a	n/a	n/a	n/a	-999	-1	[0, 0, 0]	n/a	catFR1	0	R1655S
-5595.31	2.338	495307	REC_WORD	2.338	n/a	SANDER	n/a	-999	-1	[0, 0, 0]	n/a	catFR1	0	R1655S
-5592.972	3.15	497645	REC_WORD	3.15	n/a	SEAGULL	Birds	1	-1	[0, 0, 0]	n/a	catFR1	0	R1655S
-5589.822	1.579	500795	REC_WORD_VV	1.579	n/a	<>	n/a	-999	-1	[0, 0, 0]	n/a	catFR1	0	R1655S
-5588.243	3.949	502374	REC_WORD_VV	3.949	n/a	<>	n/a	-999	-1	[0, 0, 0]	n/a	catFR1	0	R1655S
-5584.294	3.961	506323	REC_WORD	3.961	n/a	VELVET	Fabric	5	-1	[0, 0, 0]	n/a	catFR1	0	R1655S
-5580.333	5.149	510284	REC_WORD_VV	5.149	n/a	<>	n/a	-999	-1	[0, 0, 0]	n/a	catFR1	0	R1655S
-5575.184	28.707	515422	REC_END	n/a	n/a	n/a	n/a	-999	-1	[0, 0, 0]	n/a	catFR1	0	R1655S
-5546.477	10.341	544133	COUNTDOWN_START	n/a	n/a	n/a	n/a	-999	1	[0, 0, 0]	n/a	catFR1	0	R1655S
-5536.136	0.0	554469	COUNTDOWN_END	n/a	n/a	n/a	n/a	-999	1	[0, 0, 0]	n/a	catFR1	0	R1655S
-5536.136	2.025	554469	ENCODING_START	n/a	n/a	n/a	n/a	-999	1	[0, 0, 0]	n/a	catFR1	0	R1655S
-5534.111	1.6	556497	WORD	n/a	wordpools/wordpool_categorized_EN.txt	EAR	BodyParts	1	1	[0, 0, 0]	n/a	catFR1	0	R1655S
-5532.511	0.808	558107	WORD_OFF	n/a	n/a	EAR	BodyParts	1	1	[0, 0, 0]	n/a	catFR1	0	R1655S
-5531.703	1.601	558912	WORD	n/a	wordpools/wordpool_categorized_EN.txt	ARM	BodyParts	2	1	[0, 0, 0]	n/a	catFR1	0	R1655S
-5530.102	0.965	560508	WORD_OFF	n/a	n/a	ARM	BodyParts	2	1	[0, 0, 0]	n/a	catFR1	0	R1655S
-5529.137	1.602	561471	WORD	n/a	wordpools/wordpool_categorized_EN.txt	WOOL	Fabric	3	1	[0, 0, 0]	n/a	catFR1	0	R1655S
-5527.535	0.823	563081	WORD_OFF	n/a	n/a	WOOL	Fabric	3	1	[0, 0, 0]	n/a	catFR1	0	R1655S
-5526.712	1.601	563901	WORD	n/a	wordpools/wordpool_categorized_EN.txt	LEATHER	Fabric	4	1	[0, 0, 0]	n/a	catFR1	0	R1655S
-5525.111	0.859	565496	WORD_OFF	n/a	n/a	LEATHER	Fabric	4	1	[0, 0, 0]	n/a	catFR1	0	R1655S
-5524.252	1.607	566359	WORD	n/a	wordpools/wordpool_categorized_EN.txt	CYPRESS	Trees	5	1	[0, 0, 0]	n/a	catFR1	0	R1655S
-5522.645	0.866	567969	WORD_OFF	n/a	n/a	CYPRESS	Trees	5	1	[0, 0, 0]	n/a	catFR1	0	R1655S
-5521.779	1.6	568832	WORD	n/a	wordpools/wordpool_categorized_EN.txt	WALNUT	Trees	6	1	[0, 0, 0]	n/a	catFR1	0	R1655S
-5520.179	0.824	570428	WORD_OFF	n/a	n/a	WALNUT	Trees	6	1	[0, 0, 0]	n/a	catFR1	0	R1655S
-5519.355	1.602	571262	WORD	n/a	wordpools/wordpool_categorized_EN.txt	LINEN	Fabric	7	1	[0, 0, 0]	n/a	catFR1	0	R1655S
-5517.753	1.0	572857	WORD_OFF	n/a	n/a	LINEN	Fabric	7	1	[0, 0, 0]	n/a	catFR1	0	R1655S
-5516.753	1.6	573864	WORD	n/a	wordpools/wordpool_categorized_EN.txt	DENIM	Fabric	8	1	[0, 0, 0]	n/a	catFR1	0	R1655S
-5515.153	0.918	575460	WORD_OFF	n/a	n/a	DENIM	Fabric	8	1	[0, 0, 0]	n/a	catFR1	0	R1655S
-5514.235	1.607	576380	WORD	n/a	wordpools/wordpool_categorized_EN.txt	FOOT	BodyParts	9	1	[0, 0, 0]	n/a	catFR1	0	R1655S
-5512.628	0.782	577990	WORD_OFF	n/a	n/a	FOOT	BodyParts	9	1	[0, 0, 0]	n/a	catFR1	0	R1655S
-5511.846	1.6	578766	WORD	n/a	wordpools/wordpool_categorized_EN.txt	FINGERS	BodyParts	10	1	[0, 0, 0]	n/a	catFR1	0	R1655S
-5510.246	0.776	580362	WORD_OFF	n/a	n/a	FINGERS	BodyParts	10	1	[0, 0, 0]	n/a	catFR1	0	R1655S
-5509.47	1.607	581138	WORD	n/a	wordpools/wordpool_categorized_EN.txt	SPRUCE	Trees	11	1	[0, 0, 0]	n/a	catFR1	0	R1655S
-5507.863	0.793	582749	WORD_OFF	n/a	n/a	SPRUCE	Trees	11	1	[0, 0, 0]	n/a	catFR1	0	R1655S
-5507.07	1.608	583539	WORD	n/a	wordpools/wordpool_categorized_EN.txt	CEDAR	Trees	12	1	[0, 0, 0]	n/a	catFR1	0	R1655S
-5505.462	0.002	585150	WORD_OFF	n/a	n/a	CEDAR	Trees	12	1	[0, 0, 0]	n/a	catFR1	0	R1655S
-5505.46	0.0	585150	ENCODING_END	n/a	n/a	n/a	n/a	-999	1	[0, 0, 0]	n/a	catFR1	0	R1655S
-5505.46	0.0	585150	DISTRACT_START	n/a	n/a	n/a	n/a	-999	1	[0, 0, 0]	n/a	catFR1	0	R1655S
-5505.461	0.001	585156	PROB	0.001	n/a	n/a	n/a	-999	1	[1, 3, 4]	8	catFR1	0	R1655S
-5505.46	4.332	585157	START	n/a	n/a	n/a	n/a	-999	1	[-999, -999, -999]	n/a	catFR1	0	R1655S
-5501.128	4.426	589489	PROB	4.426	n/a	n/a	n/a	-999	1	[6, 1, 5]	12	catFR1	0	R1655S
-5496.702	4.651	593915	PROB	4.651	n/a	n/a	n/a	-999	1	[6, 3, 2]	11	catFR1	0	R1655S
-5492.051	4.914	598566	PROB	4.914	n/a	n/a	n/a	-999	1	[5, 2, 7]	14	catFR1	0	R1655S
-5487.137	5.658	603480	PROB	5.658	n/a	n/a	n/a	-999	1	[6, 7, 3]	17	catFR1	0	R1655S
-5481.479	0.0	609130	DISTRACT_END	n/a	n/a	n/a	n/a	-999	1	[0, 0, 0]	n/a	catFR1	0	R1655S
-5481.479	2.084	609138	STOP	n/a	n/a	n/a	n/a	-999	1	[-999, -999, -999]	n/a	catFR1	0	R1655S
-5479.395	0.226	611215	REC_START	n/a	n/a	n/a	n/a	-999	1	[0, 0, 0]	n/a	catFR1	0	R1655S
-5479.169	9.59	611448	REC_WORD_VV	9.59	n/a	<>	n/a	-999	1	[0, 0, 0]	n/a	catFR1	0	R1655S
-5469.579	1.48	621038	REC_WORD_VV	1.48	n/a	<>	n/a	-999	1	[0, 0, 0]	n/a	catFR1	0	R1655S
-5468.099	1.277	622518	REC_WORD_VV	1.277	n/a	<>	n/a	-999	1	[0, 0, 0]	n/a	catFR1	0	R1655S
-5466.822	2.942	623795	REC_WORD	2.942	n/a	DENIM	Fabric	8	1	[0, 0, 0]	n/a	catFR1	0	R1655S
-5463.88	5.622	626737	REC_WORD_VV	5.622	n/a	<>	n/a	-999	1	[0, 0, 0]	n/a	catFR1	0	R1655S
-5458.258	0.988	632359	REC_WORD	0.988	n/a	VELVET	Fabric	-999	1	[0, 0, 0]	n/a	catFR1	0	R1655S
-5457.27	1.876	633347	REC_WORD_VV	1.876	n/a	<>	n/a	-999	1	[0, 0, 0]	n/a	catFR1	0	R1655S
-5455.394	2.995	635223	REC_WORD_VV	2.995	n/a	<>	n/a	-999	1	[0, 0, 0]	n/a	catFR1	0	R1655S
-5452.399	1.0	638218	REC_WORD_VV	1.0	n/a	<>	n/a	-999	1	[0, 0, 0]	n/a	catFR1	0	R1655S
-5451.399	2.157	639218	REC_WORD_VV	2.157	n/a	<>	n/a	-999	1	[0, 0, 0]	n/a	catFR1	0	R1655S
-5449.242	4.233	641363	REC_END	n/a	n/a	n/a	n/a	-999	1	[0, 0, 0]	n/a	catFR1	0	R1655S
-5445.009	10.339	645604	COUNTDOWN_START	n/a	n/a	n/a	n/a	-999	1	[0, 0, 0]	n/a	catFR1	0	R1655S
-5434.67	0.0	655941	COUNTDOWN_END	n/a	n/a	n/a	n/a	-999	1	[0, 0, 0]	n/a	catFR1	0	R1655S
-5434.67	2.033	655941	ENCODING_START	n/a	n/a	n/a	n/a	-999	2	[0, 0, 0]	n/a	catFR1	0	R1655S
-5432.637	1.601	657982	WORD	n/a	wordpools/wordpool_categorized_EN.txt	CELLO	Instruments	1	2	[0, 0, 0]	n/a	catFR1	0	R1655S
-5431.036	0.974	659578	WORD_OFF	n/a	n/a	CELLO	Instruments	1	2	[0, 0, 0]	n/a	catFR1	0	R1655S
-5430.062	1.601	660556	WORD	n/a	wordpools/wordpool_categorized_EN.txt	DRUM	Instruments	2	2	[0, 0, 0]	n/a	catFR1	0	R1655S
-5428.461	0.781	662152	WORD_OFF	n/a	n/a	DRUM	Instruments	2	2	[0, 0, 0]	n/a	catFR1	0	R1655S
-5427.68	1.609	662928	WORD	n/a	wordpools/wordpool_categorized_EN.txt	SHOVEL	Tools	3	2	[0, 0, 0]	n/a	catFR1	0	R1655S
-5426.071	0.835	664538	WORD_OFF	n/a	n/a	SHOVEL	Tools	3	2	[0, 0, 0]	n/a	catFR1	0	R1655S
-5425.236	1.6	665372	WORD	n/a	wordpools/wordpool_categorized_EN.txt	DRILL	Tools	4	2	[0, 0, 0]	n/a	catFR1	0	R1655S
-5423.636	0.883	666982	WORD_OFF	n/a	n/a	DRILL	Tools	4	2	[0, 0, 0]	n/a	catFR1	0	R1655S
-5422.753	1.607	667859	WORD	n/a	wordpools/wordpool_categorized_EN.txt	MOSQUITO	Insects	5	2	[0, 0, 0]	n/a	catFR1	0	R1655S
-5421.146	0.851	669469	WORD_OFF	n/a	n/a	MOSQUITO	Insects	5	2	[0, 0, 0]	n/a	catFR1	0	R1655S
-5420.295	1.601	670318	WORD	n/a	wordpools/wordpool_categorized_EN.txt	BEETLE	Insects	6	2	[0, 0, 0]	n/a	catFR1	0	R1655S
-5418.694	0.757	671914	WORD_OFF	n/a	n/a	BEETLE	Insects	6	2	[0, 0, 0]	n/a	catFR1	0	R1655S
-5417.937	1.61	672676	WORD	n/a	wordpools/wordpool_categorized_EN.txt	CROWBAR	Tools	7	2	[0, 0, 0]	n/a	catFR1	0	R1655S
-5416.327	0.981	674286	WORD_OFF	n/a	n/a	CROWBAR	Tools	7	2	[0, 0, 0]	n/a	catFR1	0	R1655S
-5415.346	1.609	675263	WORD	n/a	wordpools/wordpool_categorized_EN.txt	RATCHET	Tools	8	2	[0, 0, 0]	n/a	catFR1	0	R1655S
-5413.737	0.992	676874	WORD_OFF	n/a	n/a	RATCHET	Tools	8	2	[0, 0, 0]	n/a	catFR1	0	R1655S
-5412.745	1.6	677866	WORD	n/a	wordpools/wordpool_categorized_EN.txt	BANJO	Instruments	9	2	[0, 0, 0]	n/a	catFR1	0	R1655S
-5411.145	0.966	679461	WORD_OFF	n/a	n/a	BANJO	Instruments	9	2	[0, 0, 0]	n/a	catFR1	0	R1655S
-5410.179	1.609	680439	WORD	n/a	wordpools/wordpool_categorized_EN.txt	BASS	Instruments	10	2	[0, 0, 0]	n/a	catFR1	0	R1655S
-5408.57	0.976	682049	WORD_OFF	n/a	n/a	BASS	Instruments	10	2	[0, 0, 0]	n/a	catFR1	0	R1655S
-5407.594	1.602	683012	WORD	n/a	wordpools/wordpool_categorized_EN.txt	CRICKET	Insects	11	2	[0, 0, 0]	n/a	catFR1	0	R1655S
-5405.992	0.888	684623	WORD_OFF	n/a	n/a	CRICKET	Insects	11	2	[0, 0, 0]	n/a	catFR1	0	R1655S
-5405.104	1.6	685514	WORD	n/a	wordpools/wordpool_categorized_EN.txt	GNAT	Insects	12	2	[0, 0, 0]	n/a	catFR1	0	R1655S
-5403.504	0.003	687110	WORD_OFF	n/a	n/a	GNAT	Insects	12	2	[0, 0, 0]	n/a	catFR1	0	R1655S
-5403.501	0.0	687110	ENCODING_END	n/a	n/a	n/a	n/a	-999	2	[0, 0, 0]	n/a	catFR1	0	R1655S
-5403.501	0.0	687110	DISTRACT_START	n/a	n/a	n/a	n/a	-999	2	[0, 0, 0]	n/a	catFR1	0	R1655S
-5403.503	0.002	687114	PROB	0.002	n/a	n/a	n/a	-999	2	[2, 2, 3]	7	catFR1	0	R1655S
-5403.501	4.824	687116	START	n/a	n/a	n/a	n/a	-999	2	[-999, -999, -999]	n/a	catFR1	0	R1655S
-5398.677	5.065	691940	PROB	5.065	n/a	n/a	n/a	-999	2	[2, 5, 8]	15	catFR1	0	R1655S
-5393.612	5.944	697005	PROB	5.944	n/a	n/a	n/a	-999	2	[3, 8, 6]	17	catFR1	0	R1655S
-5387.668	3.514	702949	PROB	3.514	n/a	n/a	n/a	-999	2	[7, 3, 5]	15	catFR1	0	R1655S
-5384.154	4.192	706463	PROB	4.192	n/a	n/a	n/a	-999	2	[8, 3, 1]	12	catFR1	0	R1655S
-5379.962	0.0	710645	DISTRACT_END	n/a	n/a	n/a	n/a	-999	2	[0, 0, 0]	n/a	catFR1	0	R1655S
-5379.962	2.366	710655	STOP	n/a	n/a	n/a	n/a	-999	2	[-999, -999, -999]	n/a	catFR1	0	R1655S
-5377.596	3.956	713017	REC_START	n/a	n/a	n/a	n/a	-999	2	[0, 0, 0]	n/a	catFR1	0	R1655S
-5373.64	4.417	716977	REC_WORD_VV	4.417	n/a	<>	n/a	-999	2	[0, 0, 0]	n/a	catFR1	0	R1655S
-5369.223	11.624	721394	REC_WORD_VV	11.624	n/a	<>	n/a	-999	2	[0, 0, 0]	n/a	catFR1	0	R1655S
-5357.599	5.103	733018	REC_WORD	5.103	n/a	DENIM	Fabric	-999	2	[0, 0, 0]	n/a	catFR1	0	R1655S
-5352.496	5.042	738121	REC_WORD	5.042	n/a	WRENCH	n/a	-999	2	[0, 0, 0]	n/a	catFR1	0	R1655S
-5347.454	3.333	743151	REC_END	n/a	n/a	n/a	n/a	-999	2	[0, 0, 0]	n/a	catFR1	0	R1655S
-5344.121	10.342	746486	COUNTDOWN_START	n/a	n/a	n/a	n/a	-999	2	[0, 0, 0]	n/a	catFR1	0	R1655S
-5333.779	0.001	756837	COUNTDOWN_END	n/a	n/a	n/a	n/a	-999	2	[0, 0, 0]	n/a	catFR1	0	R1655S
-5333.778	1.966	756837	ENCODING_START	n/a	n/a	n/a	n/a	-999	3	[0, 0, 0]	n/a	catFR1	0	R1655S
-5331.812	1.6	758807	WORD	n/a	wordpools/wordpool_categorized_EN.txt	JELLYFISH	OceanAnimals	1	3	[0, 0, 0]	n/a	catFR1	0	R1655S
-5330.212	0.793	760403	WORD_OFF	n/a	n/a	JELLYFISH	OceanAnimals	1	3	[0, 0, 0]	n/a	catFR1	0	R1655S
-5329.419	1.608	761193	WORD	n/a	wordpools/wordpool_categorized_EN.txt	SQUID	OceanAnimals	2	3	[0, 0, 0]	n/a	catFR1	0	R1655S
-5327.811	0.808	762804	WORD_OFF	n/a	n/a	SQUID	OceanAnimals	2	3	[0, 0, 0]	n/a	catFR1	0	R1655S
-5327.003	1.611	763609	WORD	n/a	wordpools/wordpool_categorized_EN.txt	TUBA	Instruments	3	3	[0, 0, 0]	n/a	catFR1	0	R1655S
-5325.392	0.948	765219	WORD_OFF	n/a	n/a	TUBA	Instruments	3	3	[0, 0, 0]	n/a	catFR1	0	R1655S
-5324.444	1.608	766168	WORD	n/a	wordpools/wordpool_categorized_EN.txt	TROMBONE	Instruments	4	3	[0, 0, 0]	n/a	catFR1	0	R1655S
-5322.836	0.768	767778	WORD_OFF	n/a	n/a	TROMBONE	Instruments	4	3	[0, 0, 0]	n/a	catFR1	0	R1655S
-5322.068	1.605	768540	WORD	n/a	wordpools/wordpool_categorized_EN.txt	BIRCH	Trees	5	3	[0, 0, 0]	n/a	catFR1	0	R1655S
-5320.463	0.975	770150	WORD_OFF	n/a	n/a	BIRCH	Trees	5	3	[0, 0, 0]	n/a	catFR1	0	R1655S
-5319.488	1.602	771128	WORD	n/a	wordpools/wordpool_categorized_EN.txt	EVERGREEN	Trees	6	3	[0, 0, 0]	n/a	catFR1	0	R1655S
-5317.886	0.908	772724	WORD_OFF	n/a	n/a	EVERGREEN	Trees	6	3	[0, 0, 0]	n/a	catFR1	0	R1655S
-5316.978	1.617	773629	WORD	n/a	wordpools/wordpool_categorized_EN.txt	TURTLE	OceanAnimals	7	3	[0, 0, 0]	n/a	catFR1	0	R1655S
-5315.361	0.957	775254	WORD_OFF	n/a	n/a	TURTLE	OceanAnimals	7	3	[0, 0, 0]	n/a	catFR1	0	R1655S
-5314.404	1.608	776217	WORD	n/a	wordpools/wordpool_categorized_EN.txt	CRAB	OceanAnimals	8	3	[0, 0, 0]	n/a	catFR1	0	R1655S
-5312.796	0.783	777813	WORD_OFF	n/a	n/a	CRAB	OceanAnimals	8	3	[0, 0, 0]	n/a	catFR1	0	R1655S
-5312.013	1.601	778604	WORD	n/a	wordpools/wordpool_categorized_EN.txt	PINE	Trees	9	3	[0, 0, 0]	n/a	catFR1	0	R1655S
-5310.412	0.925	780200	WORD_OFF	n/a	n/a	PINE	Trees	9	3	[0, 0, 0]	n/a	catFR1	0	R1655S
-5309.487	1.6	781120	WORD	n/a	wordpools/wordpool_categorized_EN.txt	OAK	Trees	10	3	[0, 0, 0]	n/a	catFR1	0	R1655S
-5307.887	0.95	782730	WORD_OFF	n/a	n/a	OAK	Trees	10	3	[0, 0, 0]	n/a	catFR1	0	R1655S
-5306.937	1.607	783679	WORD	n/a	wordpools/wordpool_categorized_EN.txt	ORGAN	Instruments	11	3	[0, 0, 0]	n/a	catFR1	0	R1655S
-5305.33	0.936	785289	WORD_OFF	n/a	n/a	ORGAN	Instruments	11	3	[0, 0, 0]	n/a	catFR1	0	R1655S
-5304.394	1.607	786223	WORD	n/a	wordpools/wordpool_categorized_EN.txt	TRUMPET	Instruments	12	3	[0, 0, 0]	n/a	catFR1	0	R1655S
-5302.787	0.0	787819	WORD_OFF	n/a	n/a	TRUMPET	Instruments	12	3	[0, 0, 0]	n/a	catFR1	0	R1655S
-5302.787	0.002	787830	PROB	0.002	n/a	n/a	n/a	-999	3	[1, 3, 7]	11	catFR1	0	R1655S
-5302.785	0.0	787832	START	n/a	n/a	n/a	n/a	-999	3	[-999, -999, -999]	n/a	catFR1	0	R1655S
-5302.785	0.0	787834	ENCODING_END	n/a	n/a	n/a	n/a	-999	3	[0, 0, 0]	n/a	catFR1	0	R1655S
-5302.785	5.498	787834	DISTRACT_START	n/a	n/a	n/a	n/a	-999	3	[0, 0, 0]	n/a	catFR1	0	R1655S
-5297.287	3.142	793330	PROB	3.142	n/a	n/a	n/a	-999	3	[4, 1, 2]	7	catFR1	0	R1655S
-5294.145	6.741	796472	PROB	6.741	n/a	n/a	n/a	-999	3	[7, 5, 6]	18	catFR1	0	R1655S
-5287.404	3.901	803213	PROB	3.901	n/a	n/a	n/a	-999	3	[7, 4, 4]	15	catFR1	0	R1655S
-5283.503	4.333	807114	PROB	4.333	n/a	n/a	n/a	-999	3	[3, 5, 5]	13	catFR1	0	R1655S
-5279.17	0.0	811440	DISTRACT_END	n/a	n/a	n/a	n/a	-999	3	[0, 0, 0]	n/a	catFR1	0	R1655S
-5279.17	2.259	811447	STOP	n/a	n/a	n/a	n/a	-999	3	[-999, -999, -999]	n/a	catFR1	0	R1655S
-5276.911	1.025	813698	REC_START	n/a	n/a	n/a	n/a	-999	3	[0, 0, 0]	n/a	catFR1	0	R1655S
-5275.886	0.465	814731	REC_WORD_VV	0.465	n/a	<>	n/a	-999	3	[0, 0, 0]	n/a	catFR1	0	R1655S
-5275.421	1.694	815196	REC_WORD_VV	1.694	n/a	<>	n/a	-999	3	[0, 0, 0]	n/a	catFR1	0	R1655S
-5273.727	5.127	816890	REC_WORD_VV	5.127	n/a	<>	n/a	-999	3	[0, 0, 0]	n/a	catFR1	0	R1655S
-5268.6	1.653	822017	REC_WORD	1.653	n/a	WRENCH	n/a	-999	3	[0, 0, 0]	n/a	catFR1	0	R1655S
-5266.947	2.621	823670	REC_WORD_VV	2.621	n/a	<>	n/a	-999	3	[0, 0, 0]	n/a	catFR1	0	R1655S
-5264.326	3.682	826291	REC_WORD_VV	3.682	n/a	<>	n/a	-999	3	[0, 0, 0]	n/a	catFR1	0	R1655S
-5260.644	1.0	829973	REC_WORD_VV	1.0	n/a	<>	n/a	-999	3	[0, 0, 0]	n/a	catFR1	0	R1655S
-5259.644	1.0	830973	REC_WORD_VV	1.0	n/a	<>	n/a	-999	3	[0, 0, 0]	n/a	catFR1	0	R1655S
-5258.644	11.873	831973	REC_WORD_VV	11.873	n/a	<>	n/a	-999	3	[0, 0, 0]	n/a	catFR1	0	R1655S
-5246.771	2.083	843846	REC_END	n/a	n/a	n/a	n/a	-999	3	[0, 0, 0]	n/a	catFR1	0	R1655S
-5244.688	10.342	845930	COUNTDOWN_START	n/a	n/a	n/a	n/a	-999	3	[0, 0, 0]	n/a	catFR1	0	R1655S
-5234.346	0.001	856267	COUNTDOWN_END	n/a	n/a	n/a	n/a	-999	3	[0, 0, 0]	n/a	catFR1	0	R1655S
-5234.345	1.966	856267	ENCODING_START	n/a	n/a	n/a	n/a	-999	4	[0, 0, 0]	n/a	catFR1	0	R1655S
-5232.379	1.601	858237	WORD	n/a	wordpools/wordpool_categorized_EN.txt	FLUTE	Instruments	1	4	[0, 0, 0]	n/a	catFR1	0	R1655S
-5230.778	0.841	859833	WORD_OFF	n/a	n/a	FLUTE	Instruments	1	4	[0, 0, 0]	n/a	catFR1	0	R1655S
-5229.937	1.609	860681	WORD	n/a	wordpools/wordpool_categorized_EN.txt	PIANO	Instruments	2	4	[0, 0, 0]	n/a	catFR1	0	R1655S
-5228.328	0.79	862291	WORD_OFF	n/a	n/a	PIANO	Instruments	2	4	[0, 0, 0]	n/a	catFR1	0	R1655S
-5227.538	1.611	863067	WORD	n/a	wordpools/wordpool_categorized_EN.txt	BEE	Insects	3	4	[0, 0, 0]	n/a	catFR1	0	R1655S
-5225.927	0.824	864678	WORD_OFF	n/a	n/a	BEE	Insects	3	4	[0, 0, 0]	n/a	catFR1	0	R1655S
-5225.103	1.607	865512	WORD	n/a	wordpools/wordpool_categorized_EN.txt	LADYBUG	Insects	4	4	[0, 0, 0]	n/a	catFR1	0	R1655S
-5223.496	0.866	867122	WORD_OFF	n/a	n/a	LADYBUG	Insects	4	4	[0, 0, 0]	n/a	catFR1	0	R1655S
-5222.63	1.601	867984	WORD	n/a	wordpools/wordpool_categorized_EN.txt	DRYER	Appliances	5	4	[0, 0, 0]	n/a	catFR1	0	R1655S
-5221.029	0.834	869580	WORD_OFF	n/a	n/a	DRYER	Appliances	5	4	[0, 0, 0]	n/a	catFR1	0	R1655S
-5220.195	1.602	870414	WORD	n/a	wordpools/wordpool_categorized_EN.txt	OVEN	Appliances	6	4	[0, 0, 0]	n/a	catFR1	0	R1655S
-5218.593	0.763	872024	WORD_OFF	n/a	n/a	OVEN	Appliances	6	4	[0, 0, 0]	n/a	catFR1	0	R1655S
-5217.83	1.602	872786	WORD	n/a	wordpools/wordpool_categorized_EN.txt	SPIDER	Insects	7	4	[0, 0, 0]	n/a	catFR1	0	R1655S
-5216.228	0.925	874382	WORD_OFF	n/a	n/a	SPIDER	Insects	7	4	[0, 0, 0]	n/a	catFR1	0	R1655S
-5215.303	1.609	875302	WORD	n/a	wordpools/wordpool_categorized_EN.txt	ANT	Insects	8	4	[0, 0, 0]	n/a	catFR1	0	R1655S
-5213.694	0.792	876912	WORD_OFF	n/a	n/a	ANT	Insects	8	4	[0, 0, 0]	n/a	catFR1	0	R1655S
-5212.902	1.607	877717	WORD	n/a	wordpools/wordpool_categorized_EN.txt	FREEZER	Appliances	9	4	[0, 0, 0]	n/a	catFR1	0	R1655S
-5211.295	0.899	879313	WORD_OFF	n/a	n/a	FREEZER	Appliances	9	4	[0, 0, 0]	n/a	catFR1	0	R1655S
-5210.396	1.61	880219	WORD	n/a	wordpools/wordpool_categorized_EN.txt	IRON	Appliances	10	4	[0, 0, 0]	n/a	catFR1	0	R1655S
-5208.786	0.983	881829	WORD_OFF	n/a	n/a	IRON	Appliances	10	4	[0, 0, 0]	n/a	catFR1	0	R1655S
-5207.803	1.609	882807	WORD	n/a	wordpools/wordpool_categorized_EN.txt	VIOLIN	Instruments	11	4	[0, 0, 0]	n/a	catFR1	0	R1655S
-5206.194	0.999	884417	WORD_OFF	n/a	n/a	VIOLIN	Instruments	11	4	[0, 0, 0]	n/a	catFR1	0	R1655S
-5205.195	1.608	885423	WORD	n/a	wordpools/wordpool_categorized_EN.txt	GUITAR	Instruments	12	4	[0, 0, 0]	n/a	catFR1	0	R1655S
-5203.587	0.001	887030	PROB	0.001	n/a	n/a	n/a	-999	4	[6, 7, 2]	15	catFR1	0	R1655S
-5203.586	0.003	887034	WORD_OFF	n/a	n/a	GUITAR	Instruments	12	4	[0, 0, 0]	n/a	catFR1	0	R1655S
-5203.583	0.0	887034	ENCODING_END	n/a	n/a	n/a	n/a	-999	4	[0, 0, 0]	n/a	catFR1	0	R1655S
-5203.583	0.0	887034	DISTRACT_START	n/a	n/a	n/a	n/a	-999	4	[0, 0, 0]	n/a	catFR1	0	R1655S
-5203.583	4.896	887034	START	n/a	n/a	n/a	n/a	-999	4	[-999, -999, -999]	n/a	catFR1	0	R1655S
-5198.687	4.033	891930	PROB	4.033	n/a	n/a	n/a	-999	4	[3, 7, 4]	14	catFR1	0	R1655S
-5194.654	5.31	895963	PROB	5.31	n/a	n/a	n/a	-999	4	[6, 6, 8]	20	catFR1	0	R1655S
-5189.344	5.199	901273	PROB	5.199	n/a	n/a	n/a	-999	4	[2, 3, 8]	13	catFR1	0	R1655S
-5184.145	4.024	906472	PROB	4.024	n/a	n/a	n/a	-999	4	[4, 2, 7]	13	catFR1	0	R1655S
-5180.121	0.0	910496	DISTRACT_END	n/a	n/a	n/a	n/a	-999	4	[0, 0, 0]	n/a	catFR1	0	R1655S
-5180.121	2.367	910496	STOP	n/a	n/a	n/a	n/a	-999	4	[-999, -999, -999]	n/a	catFR1	0	R1655S
-5177.754	1.569	912854	REC_START	n/a	n/a	n/a	n/a	-999	4	[0, 0, 0]	n/a	catFR1	0	R1655S
-5176.185	1.435	914432	REC_WORD_VV	1.435	n/a	<>	n/a	-999	4	[0, 0, 0]	n/a	catFR1	0	R1655S
-5174.75	1.0	915867	REC_WORD_VV	1.0	n/a	<>	n/a	-999	4	[0, 0, 0]	n/a	catFR1	0	R1655S
-5173.75	1.0	916867	REC_WORD_VV	1.0	n/a	<>	n/a	-999	4	[0, 0, 0]	n/a	catFR1	0	R1655S
-5172.75	1.0	917867	REC_WORD_VV	1.0	n/a	<>	n/a	-999	4	[0, 0, 0]	n/a	catFR1	0	R1655S
-5171.75	1.0	918867	REC_WORD_VV	1.0	n/a	<>	n/a	-999	4	[0, 0, 0]	n/a	catFR1	0	R1655S
-5170.75	1.0	919867	REC_WORD_VV	1.0	n/a	<>	n/a	-999	4	[0, 0, 0]	n/a	catFR1	0	R1655S
-5169.75	10.886	920867	REC_WORD_VV	10.886	n/a	<>	n/a	-999	4	[0, 0, 0]	n/a	catFR1	0	R1655S
-5158.864	2.854	931753	REC_WORD	2.854	n/a	SPIDER	Insects	7	4	[0, 0, 0]	n/a	catFR1	0	R1655S
-5156.01	8.405	934607	REC_WORD_VV	8.405	n/a	<>	n/a	-999	4	[0, 0, 0]	n/a	catFR1	0	R1655S
-5147.605	3.925	943002	REC_END	n/a	n/a	n/a	n/a	-999	4	[0, 0, 0]	n/a	catFR1	0	R1655S
-5143.68	10.343	946927	COUNTDOWN_START	n/a	n/a	n/a	n/a	-999	4	[0, 0, 0]	n/a	catFR1	0	R1655S
-5133.337	0.0	957279	COUNTDOWN_END	n/a	n/a	n/a	n/a	-999	4	[0, 0, 0]	n/a	catFR1	0	R1655S
-5133.337	1.926	957279	ENCODING_START	n/a	n/a	n/a	n/a	-999	5	[0, 0, 0]	n/a	catFR1	0	R1655S
-5131.411	1.6	959205	WORD	n/a	wordpools/wordpool_categorized_EN.txt	DOLLHOUSE	Toys	1	5	[0, 0, 0]	n/a	catFR1	0	R1655S
-5129.811	0.941	960801	WORD_OFF	n/a	n/a	DOLLHOUSE	Toys	1	5	[0, 0, 0]	n/a	catFR1	0	R1655S
-5128.87	1.6	961735	WORD	n/a	wordpools/wordpool_categorized_EN.txt	SLINKY	Toys	2	5	[0, 0, 0]	n/a	catFR1	0	R1655S
-5127.27	0.866	963346	WORD_OFF	n/a	n/a	SLINKY	Toys	2	5	[0, 0, 0]	n/a	catFR1	0	R1655S
-5126.404	1.609	964208	WORD	n/a	wordpools/wordpool_categorized_EN.txt	ISLAND	Landscapes	3	5	[0, 0, 0]	n/a	catFR1	0	R1655S
-5124.795	0.825	965818	WORD_OFF	n/a	n/a	ISLAND	Landscapes	3	5	[0, 0, 0]	n/a	catFR1	0	R1655S
-5123.97	1.603	966638	WORD	n/a	wordpools/wordpool_categorized_EN.txt	BEACH	Landscapes	4	5	[0, 0, 0]	n/a	catFR1	0	R1655S
-5122.367	0.982	968248	WORD_OFF	n/a	n/a	BEACH	Landscapes	4	5	[0, 0, 0]	n/a	catFR1	0	R1655S
-5121.385	1.608	969226	WORD	n/a	wordpools/wordpool_categorized_EN.txt	PAPER	OfficeSupplies	5	5	[0, 0, 0]	n/a	catFR1	0	R1655S
-5119.777	0.99	970836	WORD_OFF	n/a	n/a	PAPER	OfficeSupplies	5	5	[0, 0, 0]	n/a	catFR1	0	R1655S
-5118.787	1.61	971828	WORD	n/a	wordpools/wordpool_categorized_EN.txt	BINDER	OfficeSupplies	6	5	[0, 0, 0]	n/a	catFR1	0	R1655S
-5117.177	0.839	973438	WORD_OFF	n/a	n/a	BINDER	OfficeSupplies	6	5	[0, 0, 0]	n/a	catFR1	0	R1655S
-5116.338	1.618	974272	WORD	n/a	wordpools/wordpool_categorized_EN.txt	BALL	Toys	7	5	[0, 0, 0]	n/a	catFR1	0	R1655S
-5114.72	0.759	975897	WORD_OFF	n/a	n/a	BALL	Toys	7	5	[0, 0, 0]	n/a	catFR1	0	R1655S
-5113.961	1.601	976644	WORD	n/a	wordpools/wordpool_categorized_EN.txt	FOOTBALL	Toys	8	5	[0, 0, 0]	n/a	catFR1	0	R1655S
-5112.36	0.755	978254	WORD_OFF	n/a	n/a	FOOTBALL	Toys	8	5	[0, 0, 0]	n/a	catFR1	0	R1655S
-5111.605	1.601	979002	WORD	n/a	wordpools/wordpool_categorized_EN.txt	ERASER	OfficeSupplies	9	5	[0, 0, 0]	n/a	catFR1	0	R1655S
-5110.004	0.993	980612	WORD_OFF	n/a	n/a	ERASER	OfficeSupplies	9	5	[0, 0, 0]	n/a	catFR1	0	R1655S
-5109.011	1.607	981604	WORD	n/a	wordpools/wordpool_categorized_EN.txt	PEN	OfficeSupplies	10	5	[0, 0, 0]	n/a	catFR1	0	R1655S
-5107.404	0.926	983214	WORD_OFF	n/a	n/a	PEN	OfficeSupplies	10	5	[0, 0, 0]	n/a	catFR1	0	R1655S
-5106.478	1.599	984134	WORD	n/a	wordpools/wordpool_categorized_EN.txt	MOUNTAIN	Landscapes	11	5	[0, 0, 0]	n/a	catFR1	0	R1655S
-5104.879	0.86	985730	WORD_OFF	n/a	n/a	MOUNTAIN	Landscapes	11	5	[0, 0, 0]	n/a	catFR1	0	R1655S
-5104.019	1.599	986593	WORD	n/a	wordpools/wordpool_categorized_EN.txt	FOREST	Landscapes	12	5	[0, 0, 0]	n/a	catFR1	0	R1655S
-5102.42	0.003	988189	WORD_OFF	n/a	n/a	FOREST	Landscapes	12	5	[0, 0, 0]	n/a	catFR1	0	R1655S
-5102.417	0.0	988189	ENCODING_END	n/a	n/a	n/a	n/a	-999	5	[0, 0, 0]	n/a	catFR1	0	R1655S
-5102.421	0.004	988196	PROB	0.004	n/a	n/a	n/a	-999	5	[8, 8, 7]	23	catFR1	0	R1655S
-5102.417	0.0	988200	START	n/a	n/a	n/a	n/a	-999	5	[-999, -999, -999]	n/a	catFR1	0	R1655S
-5102.417	7.796	988203	DISTRACT_START	n/a	n/a	n/a	n/a	-999	5	[0, 0, 0]	n/a	catFR1	0	R1655S
-5094.621	2.95	995996	PROB	2.95	n/a	n/a	n/a	-999	5	[1, 1, 1]	3	catFR1	0	R1655S
-5091.671	3.075	998946	PROB	3.075	n/a	n/a	n/a	-999	5	[2, 3, 1]	5	catFR1	0	R1655S
-5088.596	7.016	1002021	PROB	7.016	n/a	n/a	n/a	-999	5	[8, 7, 3]	18	catFR1	0	R1655S
-5081.58	0.0	1009035	DISTRACT_END	n/a	n/a	n/a	n/a	-999	5	[0, 0, 0]	n/a	catFR1	0	R1655S
-5081.58	2.168	1009037	STOP	n/a	n/a	n/a	n/a	-999	5	[-999, -999, -999]	n/a	catFR1	0	R1655S
-5079.412	3.373	1011206	REC_START	n/a	n/a	n/a	n/a	-999	5	[0, 0, 0]	n/a	catFR1	0	R1655S
-5076.039	1.0	1014578	REC_WORD_VV	1.0	n/a	<>	n/a	-999	5	[0, 0, 0]	n/a	catFR1	0	R1655S
-5075.039	4.389	1015578	REC_WORD_VV	4.389	n/a	<>	n/a	-999	5	[0, 0, 0]	n/a	catFR1	0	R1655S
-5070.65	2.851	1019967	REC_WORD	2.851	n/a	DOLLHOUSE	Toys	1	5	[0, 0, 0]	n/a	catFR1	0	R1655S
-5067.799	10.143	1022818	REC_WORD_VV	10.143	n/a	<>	n/a	-999	5	[0, 0, 0]	n/a	catFR1	0	R1655S
-5057.656	4.146	1032961	REC_WORD_VV	4.146	n/a	<>	n/a	-999	5	[0, 0, 0]	n/a	catFR1	0	R1655S
-5053.51	1.619	1037107	REC_WORD_VV	1.619	n/a	<>	n/a	-999	5	[0, 0, 0]	n/a	catFR1	0	R1655S
-5051.891	2.628	1038726	REC_WORD_VV	2.628	n/a	<>	n/a	-999	5	[0, 0, 0]	n/a	catFR1	0	R1655S
-5049.263	2.293	1041354	REC_END	n/a	n/a	n/a	n/a	-999	5	[0, 0, 0]	n/a	catFR1	0	R1655S
-5046.97	10.341	1043640	COUNTDOWN_START	n/a	n/a	n/a	n/a	-999	5	[0, 0, 0]	n/a	catFR1	0	R1655S
-5036.629	0.0	1053977	COUNTDOWN_END	n/a	n/a	n/a	n/a	-999	5	[0, 0, 0]	n/a	catFR1	0	R1655S
-5036.629	2.133	1053991	ENCODING_START	n/a	n/a	n/a	n/a	-999	6	[0, 0, 0]	n/a	catFR1	0	R1655S
-5034.496	1.609	1056119	WORD	n/a	wordpools/wordpool_categorized_EN.txt	KNIFE	KitchenTools	1	6	[0, 0, 0]	n/a	catFR1	0	R1655S
-5032.887	0.824	1057729	WORD_OFF	n/a	n/a	KNIFE	KitchenTools	1	6	[0, 0, 0]	n/a	catFR1	0	R1655S
-5032.063	1.609	1058549	WORD	n/a	wordpools/wordpool_categorized_EN.txt	CORKSCREW	KitchenTools	2	6	[0, 0, 0]	n/a	catFR1	0	R1655S
-5030.454	0.983	1060159	WORD_OFF	n/a	n/a	CORKSCREW	KitchenTools	2	6	[0, 0, 0]	n/a	catFR1	0	R1655S
-5029.471	1.6	1061137	WORD	n/a	wordpools/wordpool_categorized_EN.txt	FINCH	Birds	3	6	[0, 0, 0]	n/a	catFR1	0	R1655S
-5027.871	0.952	1062747	WORD_OFF	n/a	n/a	FINCH	Birds	3	6	[0, 0, 0]	n/a	catFR1	0	R1655S
-5026.919	1.607	1063696	WORD	n/a	wordpools/wordpool_categorized_EN.txt	SPARROW	Birds	4	6	[0, 0, 0]	n/a	catFR1	0	R1655S
-5025.312	0.933	1065306	WORD_OFF	n/a	n/a	SPARROW	Birds	4	6	[0, 0, 0]	n/a	catFR1	0	R1655S
-5024.379	1.6	1066240	WORD	n/a	wordpools/wordpool_categorized_EN.txt	BUTTERFLY	Insects	5	6	[0, 0, 0]	n/a	catFR1	0	R1655S
-5022.779	0.958	1067836	WORD_OFF	n/a	n/a	BUTTERFLY	Insects	5	6	[0, 0, 0]	n/a	catFR1	0	R1655S
-5021.821	1.601	1068785	WORD	n/a	wordpools/wordpool_categorized_EN.txt	MOTH	Insects	6	6	[0, 0, 0]	n/a	catFR1	0	R1655S
-5020.22	0.908	1070395	WORD_OFF	n/a	n/a	MOTH	Insects	6	6	[0, 0, 0]	n/a	catFR1	0	R1655S
-5019.312	1.599	1071301	WORD	n/a	wordpools/wordpool_categorized_EN.txt	GRATER	KitchenTools	7	6	[0, 0, 0]	n/a	catFR1	0	R1655S
-5017.713	0.874	1072897	WORD_OFF	n/a	n/a	GRATER	KitchenTools	7	6	[0, 0, 0]	n/a	catFR1	0	R1655S
-5016.839	1.602	1073774	WORD	n/a	wordpools/wordpool_categorized_EN.txt	COLANDER	KitchenTools	8	6	[0, 0, 0]	n/a	catFR1	0	R1655S
-5015.237	0.976	1075370	WORD_OFF	n/a	n/a	COLANDER	KitchenTools	8	6	[0, 0, 0]	n/a	catFR1	0	R1655S
-5014.261	1.607	1076347	WORD	n/a	wordpools/wordpool_categorized_EN.txt	ROACH	Insects	9	6	[0, 0, 0]	n/a	catFR1	0	R1655S
-5012.654	0.9	1077957	WORD_OFF	n/a	n/a	ROACH	Insects	9	6	[0, 0, 0]	n/a	catFR1	0	R1655S
-5011.754	1.601	1078863	WORD	n/a	wordpools/wordpool_categorized_EN.txt	FLY	Insects	10	6	[0, 0, 0]	n/a	catFR1	0	R1655S
-5010.153	0.767	1080459	WORD_OFF	n/a	n/a	FLY	Insects	10	6	[0, 0, 0]	n/a	catFR1	0	R1655S
-5009.386	1.6	1081221	WORD	n/a	wordpools/wordpool_categorized_EN.txt	DUCK	Birds	11	6	[0, 0, 0]	n/a	catFR1	0	R1655S
-5007.786	0.815	1082831	WORD_OFF	n/a	n/a	DUCK	Birds	11	6	[0, 0, 0]	n/a	catFR1	0	R1655S
-5006.971	1.601	1083636	WORD	n/a	wordpools/wordpool_categorized_EN.txt	PIGEON	Birds	12	6	[0, 0, 0]	n/a	catFR1	0	R1655S
-5005.37	0.003	1085246	WORD_OFF	n/a	n/a	PIGEON	Birds	12	6	[0, 0, 0]	n/a	catFR1	0	R1655S
-5005.367	0.0	1085246	ENCODING_END	n/a	n/a	n/a	n/a	-999	6	[0, 0, 0]	n/a	catFR1	0	R1655S
-5005.367	0.0	1085246	DISTRACT_START	n/a	n/a	n/a	n/a	-999	6	[0, 0, 0]	n/a	catFR1	0	R1655S
-5005.369	0.002	1085248	PROB	0.002	n/a	n/a	n/a	-999	6	[6, 3, 3]	15	catFR1	0	R1655S
-5005.367	7.363	1085250	START	n/a	n/a	n/a	n/a	-999	6	[-999, -999, -999]	n/a	catFR1	0	R1655S
-4998.004	6.967	1092613	PROB	6.967	n/a	n/a	n/a	-999	6	[6, 3, 4]	13	catFR1	0	R1655S
-4991.037	4.749	1099580	PROB	4.749	n/a	n/a	n/a	-999	6	[5, 5, 8]	18	catFR1	0	R1655S
-4986.288	4.392	1104329	PROB	4.392	n/a	n/a	n/a	-999	6	[5, 6, 2]	13	catFR1	0	R1655S
-4981.896	0.0	1108709	DISTRACT_END	n/a	n/a	n/a	n/a	-999	6	[0, 0, 0]	n/a	catFR1	0	R1655S
-4981.896	2.202	1108721	STOP	n/a	n/a	n/a	n/a	-999	6	[-999, -999, -999]	n/a	catFR1	0	R1655S
-4979.694	3.83	1110923	REC_START	n/a	n/a	n/a	n/a	-999	6	[0, 0, 0]	n/a	catFR1	0	R1655S
-4975.864	1.63	1114753	REC_WORD_VV	1.63	n/a	<>	n/a	-999	6	[0, 0, 0]	n/a	catFR1	0	R1655S
-4974.234	1.266	1116383	REC_WORD_VV	1.266	n/a	<>	n/a	-999	6	[0, 0, 0]	n/a	catFR1	0	R1655S
-4972.968	1.757	1117649	REC_WORD_VV	1.757	n/a	<>	n/a	-999	6	[0, 0, 0]	n/a	catFR1	0	R1655S
-4971.211	2.114	1119406	REC_WORD	2.114	n/a	ROACH	Insects	9	6	[0, 0, 0]	n/a	catFR1	0	R1655S
-4969.097	10.17	1121520	REC_WORD_VV	10.17	n/a	<>	n/a	-999	6	[0, 0, 0]	n/a	catFR1	0	R1655S
-4958.927	1.78	1131690	REC_WORD_VV	1.78	n/a	<>	n/a	-999	6	[0, 0, 0]	n/a	catFR1	0	R1655S
-4957.147	7.595	1133470	REC_WORD	7.595	n/a	INSECTS	n/a	-999	6	[0, 0, 0]	n/a	catFR1	0	R1655S
-4949.552	4.225	1141057	REC_END	n/a	n/a	n/a	n/a	-999	6	[0, 0, 0]	n/a	catFR1	0	R1655S
-4945.327	10.341	1145284	COUNTDOWN_START	n/a	n/a	n/a	n/a	-999	6	[0, 0, 0]	n/a	catFR1	0	R1655S
-4934.986	0.001	1155621	COUNTDOWN_END	n/a	n/a	n/a	n/a	-999	6	[0, 0, 0]	n/a	catFR1	0	R1655S
-4934.985	1.857	1155635	ENCODING_START	n/a	n/a	n/a	n/a	-999	7	[0, 0, 0]	n/a	catFR1	0	R1655S
-4933.128	1.608	1157490	WORD	n/a	wordpools/wordpool_categorized_EN.txt	HAND	BodyParts	1	7	[0, 0, 0]	n/a	catFR1	0	R1655S
-4931.52	0.774	1159100	WORD_OFF	n/a	n/a	HAND	BodyParts	1	7	[0, 0, 0]	n/a	catFR1	0	R1655S
-4930.746	1.601	1159862	WORD	n/a	wordpools/wordpool_categorized_EN.txt	EYE	BodyParts	2	7	[0, 0, 0]	n/a	catFR1	0	R1655S
-4929.145	0.808	1161472	WORD_OFF	n/a	n/a	EYE	BodyParts	2	7	[0, 0, 0]	n/a	catFR1	0	R1655S
-4928.337	1.608	1162277	WORD	n/a	wordpools/wordpool_categorized_EN.txt	COUCH	Furniture	3	7	[0, 0, 0]	n/a	catFR1	0	R1655S
-4926.729	0.884	1163888	WORD_OFF	n/a	n/a	COUCH	Furniture	3	7	[0, 0, 0]	n/a	catFR1	0	R1655S
-4925.845	1.6	1164765	WORD	n/a	wordpools/wordpool_categorized_EN.txt	RECLINER	Furniture	4	7	[0, 0, 0]	n/a	catFR1	0	R1655S
-4924.245	0.941	1166375	WORD_OFF	n/a	n/a	RECLINER	Furniture	4	7	[0, 0, 0]	n/a	catFR1	0	R1655S
-4923.304	1.608	1167309	WORD	n/a	wordpools/wordpool_categorized_EN.txt	WRENCH	Tools	5	7	[0, 0, 0]	n/a	catFR1	0	R1655S
-4921.696	0.974	1168919	WORD_OFF	n/a	n/a	WRENCH	Tools	5	7	[0, 0, 0]	n/a	catFR1	0	R1655S
-4920.722	1.613	1169883	WORD	n/a	wordpools/wordpool_categorized_EN.txt	PLIERS	Tools	6	7	[0, 0, 0]	n/a	catFR1	0	R1655S
-4919.109	0.789	1171507	WORD_OFF	n/a	n/a	PLIERS	Tools	6	7	[0, 0, 0]	n/a	catFR1	0	R1655S
-4918.32	1.607	1172298	WORD	n/a	wordpools/wordpool_categorized_EN.txt	DRESSER	Furniture	7	7	[0, 0, 0]	n/a	catFR1	0	R1655S
-4916.713	0.858	1173894	WORD_OFF	n/a	n/a	DRESSER	Furniture	7	7	[0, 0, 0]	n/a	catFR1	0	R1655S
-4915.855	1.601	1174756	WORD	n/a	wordpools/wordpool_categorized_EN.txt	NIGHTSTAND	Furniture	8	7	[0, 0, 0]	n/a	catFR1	0	R1655S
-4914.254	0.858	1176352	WORD_OFF	n/a	n/a	NIGHTSTAND	Furniture	8	7	[0, 0, 0]	n/a	catFR1	0	R1655S
-4913.396	1.601	1177215	WORD	n/a	wordpools/wordpool_categorized_EN.txt	KNEE	BodyParts	9	7	[0, 0, 0]	n/a	catFR1	0	R1655S
-4911.795	0.842	1178811	WORD_OFF	n/a	n/a	KNEE	BodyParts	9	7	[0, 0, 0]	n/a	catFR1	0	R1655S
-4910.953	1.6	1179659	WORD	n/a	wordpools/wordpool_categorized_EN.txt	HEAD	BodyParts	10	7	[0, 0, 0]	n/a	catFR1	0	R1655S
-4909.353	1.002	1181255	WORD_OFF	n/a	n/a	HEAD	BodyParts	10	7	[0, 0, 0]	n/a	catFR1	0	R1655S
-4908.351	1.607	1182261	WORD	n/a	wordpools/wordpool_categorized_EN.txt	AXE	Tools	11	7	[0, 0, 0]	n/a	catFR1	0	R1655S
-4906.744	0.849	1183871	WORD_OFF	n/a	n/a	AXE	Tools	11	7	[0, 0, 0]	n/a	catFR1	0	R1655S
-4905.895	1.599	1184720	WORD	n/a	wordpools/wordpool_categorized_EN.txt	SANDER	Tools	12	7	[0, 0, 0]	n/a	catFR1	0	R1655S
-4904.296	0.003	1186315	WORD_OFF	n/a	n/a	SANDER	Tools	12	7	[0, 0, 0]	n/a	catFR1	0	R1655S
-4904.293	0.001	1186315	ENCODING_END	n/a	n/a	n/a	n/a	-999	7	[0, 0, 0]	n/a	catFR1	0	R1655S
-4904.292	0.0	1186315	DISTRACT_START	n/a	n/a	n/a	n/a	-999	7	[0, 0, 0]	n/a	catFR1	0	R1655S
-4904.294	0.002	1186323	PROB	0.002	n/a	n/a	n/a	-999	7	[4, 2, 3]	9	catFR1	0	R1655S
-4904.292	9.23	1186325	START	n/a	n/a	n/a	n/a	-999	7	[-999, -999, -999]	n/a	catFR1	0	R1655S
-4895.062	6.483	1195555	PROB	6.483	n/a	n/a	n/a	-999	7	[8, 6, 3]	17	catFR1	0	R1655S
-4888.579	4.891	1202038	PROB	4.891	n/a	n/a	n/a	-999	7	[5, 7, 8]	20	catFR1	0	R1655S
-4883.688	0.0	1206917	DISTRACT_END	n/a	n/a	n/a	n/a	-999	7	[0, 0, 0]	n/a	catFR1	0	R1655S
-4883.688	2.093	1206929	STOP	n/a	n/a	n/a	n/a	-999	7	[-999, -999, -999]	n/a	catFR1	0	R1655S
-4881.595	8.15	1209016	REC_START	n/a	n/a	n/a	n/a	-999	7	[0, 0, 0]	n/a	catFR1	0	R1655S
-4873.445	1.545	1217172	REC_WORD	1.545	n/a	KNIFE	KitchenTools	-999	7	[0, 0, 0]	n/a	catFR1	0	R1655S
-4871.9	2.491	1218717	REC_WORD_VV	2.491	n/a	<>	n/a	-999	7	[0, 0, 0]	n/a	catFR1	0	R1655S
-4869.409	2.7	1221208	REC_WORD_VV	2.7	n/a	<>	n/a	-999	7	[0, 0, 0]	n/a	catFR1	0	R1655S
-4866.709	4.113	1223908	REC_WORD	4.113	n/a	WRENCH	Tools	5	7	[0, 0, 0]	n/a	catFR1	0	R1655S
-4862.596	7.971	1228021	REC_WORD_VV	7.971	n/a	<>	n/a	-999	7	[0, 0, 0]	n/a	catFR1	0	R1655S
-4854.625	3.187	1235992	REC_WORD	3.187	n/a	SANDER	Tools	12	7	[0, 0, 0]	n/a	catFR1	0	R1655S
-4851.438	5.475	1239179	REC_END	n/a	n/a	n/a	n/a	-999	7	[0, 0, 0]	n/a	catFR1	0	R1655S
-4845.963	10.341	1244656	COUNTDOWN_START	n/a	n/a	n/a	n/a	-999	7	[0, 0, 0]	n/a	catFR1	0	R1655S
-4835.622	0.001	1254993	COUNTDOWN_END	n/a	n/a	n/a	n/a	-999	7	[0, 0, 0]	n/a	catFR1	0	R1655S
-4835.621	2.175	1254993	ENCODING_START	n/a	n/a	n/a	n/a	-999	8	[0, 0, 0]	n/a	catFR1	0	R1655S
-4833.446	1.6	1257164	WORD	n/a	wordpools/wordpool_categorized_EN.txt	PEELER	KitchenTools	1	8	[0, 0, 0]	n/a	catFR1	0	R1655S
-4831.846	0.793	1258760	WORD_OFF	n/a	n/a	PEELER	KitchenTools	1	8	[0, 0, 0]	n/a	catFR1	0	R1655S
-4831.053	1.609	1259565	WORD	n/a	wordpools/wordpool_categorized_EN.txt	SPOON	KitchenTools	2	8	[0, 0, 0]	n/a	catFR1	0	R1655S
-4829.444	0.99	1261175	WORD_OFF	n/a	n/a	SPOON	KitchenTools	2	8	[0, 0, 0]	n/a	catFR1	0	R1655S
-4828.454	1.599	1262153	WORD	n/a	wordpools/wordpool_categorized_EN.txt	HAMMER	Tools	3	8	[0, 0, 0]	n/a	catFR1	0	R1655S
-4826.855	0.793	1263763	WORD_OFF	n/a	n/a	HAMMER	Tools	3	8	[0, 0, 0]	n/a	catFR1	0	R1655S
-4826.062	1.6	1264554	WORD	n/a	wordpools/wordpool_categorized_EN.txt	SAW	Tools	4	8	[0, 0, 0]	n/a	catFR1	0	R1655S
-4824.462	0.949	1266150	WORD_OFF	n/a	n/a	SAW	Tools	4	8	[0, 0, 0]	n/a	catFR1	0	R1655S
-4823.513	1.602	1267099	WORD	n/a	wordpools/wordpool_categorized_EN.txt	ELM	Trees	5	8	[0, 0, 0]	n/a	catFR1	0	R1655S
-4821.911	0.89	1268709	WORD_OFF	n/a	n/a	ELM	Trees	5	8	[0, 0, 0]	n/a	catFR1	0	R1655S
-4821.021	1.601	1269586	WORD	n/a	wordpools/wordpool_categorized_EN.txt	HICKORY	Trees	6	8	[0, 0, 0]	n/a	catFR1	0	R1655S
-4819.42	0.792	1271196	WORD_OFF	n/a	n/a	HICKORY	Trees	6	8	[0, 0, 0]	n/a	catFR1	0	R1655S
-4818.628	1.599	1271987	WORD	n/a	wordpools/wordpool_categorized_EN.txt	LADLE	KitchenTools	7	8	[0, 0, 0]	n/a	catFR1	0	R1655S
-4817.029	0.917	1273583	WORD_OFF	n/a	n/a	LADLE	KitchenTools	7	8	[0, 0, 0]	n/a	catFR1	0	R1655S
-4816.112	1.601	1274503	WORD	n/a	wordpools/wordpool_categorized_EN.txt	TONGS	KitchenTools	8	8	[0, 0, 0]	n/a	catFR1	0	R1655S
-4814.511	0.991	1276098	WORD_OFF	n/a	n/a	TONGS	KitchenTools	8	8	[0, 0, 0]	n/a	catFR1	0	R1655S
-4813.52	1.6	1277090	WORD	n/a	wordpools/wordpool_categorized_EN.txt	WILLOW	Trees	9	8	[0, 0, 0]	n/a	catFR1	0	R1655S
-4811.92	0.991	1278686	WORD_OFF	n/a	n/a	WILLOW	Trees	9	8	[0, 0, 0]	n/a	catFR1	0	R1655S
-4810.929	1.599	1279678	WORD	n/a	wordpools/wordpool_categorized_EN.txt	MAPLE	Trees	10	8	[0, 0, 0]	n/a	catFR1	0	R1655S
-4809.33	0.835	1281288	WORD_OFF	n/a	n/a	MAPLE	Trees	10	8	[0, 0, 0]	n/a	catFR1	0	R1655S
-4808.495	1.617	1282122	WORD	n/a	wordpools/wordpool_categorized_EN.txt	SCREWDRIVER	Tools	11	8	[0, 0, 0]	n/a	catFR1	0	R1655S
-4806.878	0.999	1283733	WORD_OFF	n/a	n/a	SCREWDRIVER	Tools	11	8	[0, 0, 0]	n/a	catFR1	0	R1655S
-4805.879	1.608	1284739	WORD	n/a	wordpools/wordpool_categorized_EN.txt	LEVEL	Tools	12	8	[0, 0, 0]	n/a	catFR1	0	R1655S
-4804.271	0.001	1286346	PROB	0.001	n/a	n/a	n/a	-999	8	[8, 7, 7]	22	catFR1	0	R1655S
-4804.27	0.005	1286349	WORD_OFF	n/a	n/a	LEVEL	Tools	12	8	[0, 0, 0]	n/a	catFR1	0	R1655S
-4804.265	0.0	1286349	ENCODING_END	n/a	n/a	n/a	n/a	-999	8	[0, 0, 0]	n/a	catFR1	0	R1655S
-4804.265	0.0	1286349	DISTRACT_START	n/a	n/a	n/a	n/a	-999	8	[0, 0, 0]	n/a	catFR1	0	R1655S
-4804.265	5.82	1286352	START	n/a	n/a	n/a	n/a	-999	8	[-999, -999, -999]	n/a	catFR1	0	R1655S
-4798.445	5.908	1292172	PROB	5.908	n/a	n/a	n/a	-999	8	[2, 6, 3]	11	catFR1	0	R1655S
-4792.537	3.065	1298080	PROB	3.065	n/a	n/a	n/a	-999	8	[7, 7, 7]	21	catFR1	0	R1655S
-4789.472	3.418	1301145	PROB	3.418	n/a	n/a	n/a	-999	8	[7, 1, 1]	9	catFR1	0	R1655S
-4786.054	5.491	1304563	PROB	5.491	n/a	n/a	n/a	-999	8	[7, 7, 3]	17	catFR1	0	R1655S
-4780.563	0.0	1310042	DISTRACT_END	n/a	n/a	n/a	n/a	-999	8	[0, 0, 0]	n/a	catFR1	0	R1655S
-4780.563	2.401	1310054	STOP	n/a	n/a	n/a	n/a	-999	8	[-999, -999, -999]	n/a	catFR1	0	R1655S
-4778.162	3.478	1312457	REC_START	n/a	n/a	n/a	n/a	-999	8	[0, 0, 0]	n/a	catFR1	0	R1655S
-4774.684	2.786	1315933	REC_WORD_VV	2.786	n/a	<>	n/a	-999	8	[0, 0, 0]	n/a	catFR1	0	R1655S
-4771.898	8.631	1318719	REC_WORD_VV	8.631	n/a	<>	n/a	-999	8	[0, 0, 0]	n/a	catFR1	0	R1655S
-4763.267	5.552	1327350	REC_WORD_VV	5.552	n/a	<>	n/a	-999	8	[0, 0, 0]	n/a	catFR1	0	R1655S
-4757.715	1.0	1332902	REC_WORD_VV	1.0	n/a	<>	n/a	-999	8	[0, 0, 0]	n/a	catFR1	0	R1655S
-4756.715	2.856	1333902	REC_WORD_VV	2.856	n/a	<>	n/a	-999	8	[0, 0, 0]	n/a	catFR1	0	R1655S
-4753.859	5.842	1336758	REC_WORD_VV	5.842	n/a	<>	n/a	-999	8	[0, 0, 0]	n/a	catFR1	0	R1655S
-4748.017	2.821	1342591	REC_END	n/a	n/a	n/a	n/a	-999	8	[0, 0, 0]	n/a	catFR1	0	R1655S
-4745.196	10.342	1345423	COUNTDOWN_START	n/a	n/a	n/a	n/a	-999	8	[0, 0, 0]	n/a	catFR1	0	R1655S
-4734.854	0.0	1355760	COUNTDOWN_END	n/a	n/a	n/a	n/a	-999	8	[0, 0, 0]	n/a	catFR1	0	R1655S
-4734.854	1.974	1355760	ENCODING_START	n/a	n/a	n/a	n/a	-999	9	[0, 0, 0]	n/a	catFR1	0	R1655S
-4732.88	1.601	1357730	WORD	n/a	wordpools/wordpool_categorized_EN.txt	FOUNDATION	Building	1	9	[0, 0, 0]	n/a	catFR1	0	R1655S
-4731.279	0.934	1359340	WORD_OFF	n/a	n/a	FOUNDATION	Building	1	9	[0, 0, 0]	n/a	catFR1	0	R1655S
-4730.345	1.608	1360275	WORD	n/a	wordpools/wordpool_categorized_EN.txt	ROOM	Building	2	9	[0, 0, 0]	n/a	catFR1	0	R1655S
-4728.737	0.815	1361870	WORD_OFF	n/a	n/a	ROOM	Building	2	9	[0, 0, 0]	n/a	catFR1	0	R1655S
-4727.922	1.6	1362690	WORD	n/a	wordpools/wordpool_categorized_EN.txt	DAISY	Flowers	3	9	[0, 0, 0]	n/a	catFR1	0	R1655S
-4726.322	0.883	1364286	WORD_OFF	n/a	n/a	DAISY	Flowers	3	9	[0, 0, 0]	n/a	catFR1	0	R1655S
-4725.439	1.601	1365177	WORD	n/a	wordpools/wordpool_categorized_EN.txt	ROSE	Flowers	4	9	[0, 0, 0]	n/a	catFR1	0	R1655S
-4723.838	0.934	1366773	WORD_OFF	n/a	n/a	ROSE	Flowers	4	9	[0, 0, 0]	n/a	catFR1	0	R1655S
-4722.904	1.609	1367707	WORD	n/a	wordpools/wordpool_categorized_EN.txt	WASHER	Appliances	5	9	[0, 0, 0]	n/a	catFR1	0	R1655S
-4721.295	0.841	1369318	WORD_OFF	n/a	n/a	WASHER	Appliances	5	9	[0, 0, 0]	n/a	catFR1	0	R1655S
-4720.454	1.602	1370152	WORD	n/a	wordpools/wordpool_categorized_EN.txt	TOASTER	Appliances	6	9	[0, 0, 0]	n/a	catFR1	0	R1655S
-4718.852	0.765	1371762	WORD_OFF	n/a	n/a	TOASTER	Appliances	6	9	[0, 0, 0]	n/a	catFR1	0	R1655S
-4718.087	1.607	1372524	WORD	n/a	wordpools/wordpool_categorized_EN.txt	ATTIC	Building	7	9	[0, 0, 0]	n/a	catFR1	0	R1655S
-4716.48	0.892	1374134	WORD_OFF	n/a	n/a	ATTIC	Building	7	9	[0, 0, 0]	n/a	catFR1	0	R1655S
-4715.588	1.609	1375025	WORD	n/a	wordpools/wordpool_categorized_EN.txt	HALLWAY	Building	8	9	[0, 0, 0]	n/a	catFR1	0	R1655S
-4713.979	0.869	1376635	WORD_OFF	n/a	n/a	HALLWAY	Building	8	9	[0, 0, 0]	n/a	catFR1	0	R1655S
-4713.11	1.606	1377498	WORD	n/a	wordpools/wordpool_categorized_EN.txt	STOVE	Appliances	9	9	[0, 0, 0]	n/a	catFR1	0	R1655S
-4711.504	0.859	1379108	WORD_OFF	n/a	n/a	STOVE	Appliances	9	9	[0, 0, 0]	n/a	catFR1	0	R1655S
-4710.645	1.61	1379971	WORD	n/a	wordpools/wordpool_categorized_EN.txt	VACUUM	Appliances	10	9	[0, 0, 0]	n/a	catFR1	0	R1655S
-4709.035	0.964	1381581	WORD_OFF	n/a	n/a	VACUUM	Appliances	10	9	[0, 0, 0]	n/a	catFR1	0	R1655S
-4708.071	1.609	1382544	WORD	n/a	wordpools/wordpool_categorized_EN.txt	DAFFODIL	Flowers	11	9	[0, 0, 0]	n/a	catFR1	0	R1655S
-4706.462	0.957	1384154	WORD_OFF	n/a	n/a	DAFFODIL	Flowers	11	9	[0, 0, 0]	n/a	catFR1	0	R1655S
-4705.505	1.601	1385103	WORD	n/a	wordpools/wordpool_categorized_EN.txt	ORCHID	Flowers	12	9	[0, 0, 0]	n/a	catFR1	0	R1655S
-4703.904	0.0	1386713	PROB	0.0	n/a	n/a	n/a	-999	9	[4, 1, 1]	6	catFR1	0	R1655S
-4703.904	0.004	1386714	WORD_OFF	n/a	n/a	ORCHID	Flowers	12	9	[0, 0, 0]	n/a	catFR1	0	R1655S
-4703.9	0.0	1386714	ENCODING_END	n/a	n/a	n/a	n/a	-999	9	[0, 0, 0]	n/a	catFR1	0	R1655S
-4703.9	0.0	1386714	DISTRACT_START	n/a	n/a	n/a	n/a	-999	9	[0, 0, 0]	n/a	catFR1	0	R1655S
-4703.9	4.222	1386717	START	n/a	n/a	n/a	n/a	-999	9	[-999, -999, -999]	n/a	catFR1	0	R1655S
-4699.678	4.85	1390939	PROB	4.85	n/a	n/a	n/a	-999	9	[1, 2, 6]	9	catFR1	0	R1655S
-4694.828	3.991	1395789	PROB	3.991	n/a	n/a	n/a	-999	9	[1, 6, 7]	14	catFR1	0	R1655S
-4690.837	4.609	1399780	PROB	4.609	n/a	n/a	n/a	-999	9	[8, 7, 4]	19	catFR1	0	R1655S
-4686.228	5.8	1404389	PROB	5.8	n/a	n/a	n/a	-999	9	[7, 4, 4]	15	catFR1	0	R1655S
-4680.428	0.0	1410189	STOP	n/a	n/a	n/a	n/a	-999	9	[-999, -999, -999]	n/a	catFR1	0	R1655S
-4680.428	2.216	1410191	DISTRACT_END	n/a	n/a	n/a	n/a	-999	9	[0, 0, 0]	n/a	catFR1	0	R1655S
-4678.212	2.232	1412405	REC_START	n/a	n/a	n/a	n/a	-999	9	[0, 0, 0]	n/a	catFR1	0	R1655S
-4675.98	1.545	1414637	REC_WORD_VV	1.545	n/a	<>	n/a	-999	9	[0, 0, 0]	n/a	catFR1	0	R1655S
-4674.435	2.401	1416182	REC_WORD_VV	2.401	n/a	<>	n/a	-999	9	[0, 0, 0]	n/a	catFR1	0	R1655S
-4672.034	3.462	1418583	REC_WORD_VV	3.462	n/a	<>	n/a	-999	9	[0, 0, 0]	n/a	catFR1	0	R1655S
-4668.572	0.73	1422045	REC_WORD_VV	0.73	n/a	<>	n/a	-999	9	[0, 0, 0]	n/a	catFR1	0	R1655S
-4667.842	1.196	1422775	REC_WORD	1.196	n/a	DOLLHOUSE	Toys	-999	9	[0, 0, 0]	n/a	catFR1	0	R1655S
-4666.646	1.0	1423971	REC_WORD_VV	1.0	n/a	<>	n/a	-999	9	[0, 0, 0]	n/a	catFR1	0	R1655S
-4665.646	1.69	1424971	REC_WORD_VV	1.69	n/a	<>	n/a	-999	9	[0, 0, 0]	n/a	catFR1	0	R1655S
-4663.956	4.415	1426661	REC_WORD_VV	4.415	n/a	<>	n/a	-999	9	[0, 0, 0]	n/a	catFR1	0	R1655S
-4659.541	4.481	1431076	REC_WORD	4.481	n/a	WRENCH	Tools	-999	9	[0, 0, 0]	n/a	catFR1	0	R1655S
-4655.06	3.035	1435557	REC_WORD	3.035	n/a	KNIFE	KitchenTools	-999	9	[0, 0, 0]	n/a	catFR1	0	R1655S
-4652.025	2.821	1438592	REC_WORD_VV	2.821	n/a	<>	n/a	-999	9	[0, 0, 0]	n/a	catFR1	0	R1655S
-4649.204	1.15	1441413	REC_WORD_VV	1.15	n/a	<>	n/a	-999	9	[0, 0, 0]	n/a	catFR1	0	R1655S
-4648.054	3.917	1442553	REC_END	n/a	n/a	n/a	n/a	-999	9	[0, 0, 0]	n/a	catFR1	0	R1655S
-4644.137	10.341	1446478	COUNTDOWN_START	n/a	n/a	n/a	n/a	-999	9	[0, 0, 0]	n/a	catFR1	0	R1655S
-4633.796	0.002	1456815	COUNTDOWN_END	n/a	n/a	n/a	n/a	-999	9	[0, 0, 0]	n/a	catFR1	0	R1655S
-4633.794	0.0	1456829	ENCODING_START	n/a	n/a	n/a	n/a	-999	10	[0, 0, 0]	n/a	catFR1	0	R1655S
