onset	duration	sample	trial_type	response_time	stim_file	item_name	category	serialpos	list	test	answer	experiment	session	subject
0.0	0.0	-1	INSTRUCT_START	n/a	n/a	n/a	n/a	-999	-999	[0, 0, 0]	n/a	catFR1	0	R1230J
0.0	151.337	-1	INSTRUCT_END	n/a	n/a	n/a	n/a	-999	-999	[0, 0, 0]	n/a	catFR1	0	R1230J
151.337	0.0	14527	INSTRUCT_START	n/a	n/a	n/a	n/a	-999	-999	[0, 0, 0]	n/a	catFR1	0	R1230J
151.337	11.049	14527	INSTRUCT_END	n/a	n/a	n/a	n/a	-999	-999	[0, 0, 0]	n/a	catFR1	0	R1230J
162.386	0.0	25576	SESS_START	n/a	n/a	n/a	n/a	-999	-999	[0, 0, 0]	n/a	catFR1	0	R1230J
162.386	656.606	25576	MIC_TEST	n/a	n/a	n/a	n/a	-999	-999	[0, 0, 0]	n/a	catFR1	0	R1230J
818.992	6.347	682184	PRACTICE_TRIAL	n/a	n/a	n/a	n/a	-999	-1	[0, 0, 0]	n/a	catFR1	0	R1230J
825.339	10.428	688531	COUNTDOWN_START	n/a	n/a	n/a	n/a	-999	-1	[0, 0, 0]	n/a	catFR1	0	R1230J
835.767	0.006	698959	COUNTDOWN_END	n/a	n/a	n/a	n/a	-999	-1	[0, 0, 0]	n/a	catFR1	0	R1230J
835.773	1.618	698965	PRACTICE_ORIENT	n/a	n/a	n/a	n/a	-999	-1	[0, 0, 0]	n/a	catFR1	0	R1230J
837.391	2.201	700583	PRACTICE_ORIENT_OFF	n/a	n/a	n/a	n/a	-999	-1	[0, 0, 0]	n/a	catFR1	0	R1230J
839.592	1.616	702784	PRACTICE_WORD	n/a	n/a	WAGON	n/a	-1	-1	[0, 0, 0]	n/a	catFR1	0	R1230J
841.208	0.883	704400	PRACTICE_WORD_OFF	n/a	n/a	WAGON	n/a	-999	-1	[0, 0, 0]	n/a	catFR1	0	R1230J
842.091	1.617	705283	PRACTICE_WORD	n/a	n/a	CHEST	n/a	-1	-1	[0, 0, 0]	n/a	catFR1	0	R1230J
843.708	0.934	706900	PRACTICE_WORD_OFF	n/a	n/a	CHEST	n/a	-999	-1	[0, 0, 0]	n/a	catFR1	0	R1230J
844.642	1.617	707834	PRACTICE_WORD	n/a	n/a	RHINO	n/a	-1	-1	[0, 0, 0]	n/a	catFR1	0	R1230J
846.259	0.949	709451	PRACTICE_WORD_OFF	n/a	n/a	RHINO	n/a	-999	-1	[0, 0, 0]	n/a	catFR1	0	R1230J
847.208	1.617	710400	PRACTICE_WORD	n/a	n/a	IRON	n/a	-1	-1	[0, 0, 0]	n/a	catFR1	0	R1230J
848.825	0.85	712017	PRACTICE_WORD_OFF	n/a	n/a	IRON	n/a	-999	-1	[0, 0, 0]	n/a	catFR1	0	R1230J
849.675	1.618	712867	PRACTICE_WORD	n/a	n/a	ATTIC	n/a	-1	-1	[0, 0, 0]	n/a	catFR1	0	R1230J
851.293	0.8	714485	PRACTICE_WORD_OFF	n/a	n/a	ATTIC	n/a	-999	-1	[0, 0, 0]	n/a	catFR1	0	R1230J
852.093	1.616	715285	PRACTICE_WORD	n/a	n/a	BEAM	n/a	-1	-1	[0, 0, 0]	n/a	catFR1	0	R1230J
853.709	0.984	716901	PRACTICE_WORD_OFF	n/a	n/a	BEAM	n/a	-999	-1	[0, 0, 0]	n/a	catFR1	0	R1230J
854.693	1.617	717885	PRACTICE_WORD	n/a	n/a	COTTON	n/a	-1	-1	[0, 0, 0]	n/a	catFR1	0	R1230J
856.31	0.866	719502	PRACTICE_WORD_OFF	n/a	n/a	COTTON	n/a	-999	-1	[0, 0, 0]	n/a	catFR1	0	R1230J
857.176	1.617	720368	PRACTICE_WORD	n/a	n/a	CAMEL	n/a	-1	-1	[0, 0, 0]	n/a	catFR1	0	R1230J
858.793	0.917	721985	PRACTICE_WORD_OFF	n/a	n/a	CAMEL	n/a	-999	-1	[0, 0, 0]	n/a	catFR1	0	R1230J
859.71	1.601	722902	PRACTICE_WORD	n/a	n/a	RING	n/a	-1	-1	[0, 0, 0]	n/a	catFR1	0	R1230J
861.311	0.934	724503	PRACTICE_WORD_OFF	n/a	n/a	RING	n/a	-999	-1	[0, 0, 0]	n/a	catFR1	0	R1230J
862.245	1.616	725437	PRACTICE_WORD	n/a	n/a	FLOOD	n/a	-1	-1	[0, 0, 0]	n/a	catFR1	0	R1230J
863.861	0.916	727053	PRACTICE_WORD_OFF	n/a	n/a	FLOOD	n/a	-999	-1	[0, 0, 0]	n/a	catFR1	0	R1230J
864.777	1.618	727969	PRACTICE_WORD	n/a	n/a	WATCH	n/a	-1	-1	[0, 0, 0]	n/a	catFR1	0	R1230J
866.395	0.984	729587	PRACTICE_WORD_OFF	n/a	n/a	WATCH	n/a	-999	-1	[0, 0, 0]	n/a	catFR1	0	R1230J
867.379	1.616	730571	PRACTICE_WORD	n/a	n/a	TONGUE	n/a	-1	-1	[0, 0, 0]	n/a	catFR1	0	R1230J
868.995	0.0	732187	DISTRACT_START	n/a	n/a	n/a	n/a	-999	-1	[0, 0, 0]	n/a	catFR1	0	R1230J
868.995	0.0	732187	ENCODING_END	n/a	n/a	n/a	n/a	-999	-1	[0, 0, 0]	n/a	catFR1	0	R1230J
868.995	0.0	732187	PRACTICE_WORD_OFF	n/a	n/a	TONGUE	n/a	-999	-1	[0, 0, 0]	n/a	catFR1	0	R1230J
868.995	0.016	732187	START	n/a	n/a	n/a	n/a	-999	-1	[-999, -999, -999]	n/a	catFR1	0	R1230J
869.011	3.518	732203	PROB	3.48	n/a	n/a	n/a	-999	-1	[1, 4, 1]	6.0	catFR1	0	R1230J
872.529	4.55	735721	PROB	4.527	n/a	n/a	n/a	-999	-1	[4, 7, 2]	13.0	catFR1	0	R1230J
877.079	2.85	740271	PROB	2.826	n/a	n/a	n/a	-999	-1	[1, 3, 4]	8.0	catFR1	0	R1230J
879.929	3.369	743121	PROB	3.337	n/a	n/a	n/a	-999	-1	[2, 5, 6]	13.0	catFR1	0	R1230J
883.298	4.2	746490	PROB	4.175	n/a	n/a	n/a	-999	-1	[7, 1, 5]	13.0	catFR1	0	R1230J
887.498	3.039	750690	PROB	3.039	n/a	n/a	n/a	-999	-1	[3, 4, 1]	8.0	catFR1	0	R1230J
890.537	0.011	753729	STOP	n/a	n/a	n/a	n/a	-999	-1	[-999, -999, -999]	n/a	catFR1	0	R1230J
890.548	0.649	753740	DISTRACT_END	n/a	n/a	n/a	n/a	-999	-1	[0, 0, 0]	n/a	catFR1	0	R1230J
891.197	0.518	754389	RETRIEVAL_ORIENT	n/a	n/a	n/a	n/a	-999	-1	[0, 0, 0]	n/a	catFR1	0	R1230J
891.715	30.011	754907	PRACTICE_REC_START	n/a	n/a	n/a	n/a	-999	-1	[0, 0, 0]	n/a	catFR1	0	R1230J
921.726	18.745	784918	PRACTICE_REC_END	n/a	n/a	n/a	n/a	-999	-1	[0, 0, 0]	n/a	catFR1	0	R1230J
940.471	0.5	803663	TRIAL	n/a	n/a	n/a	n/a	-999	1	[0, 0, 0]	n/a	catFR1	0	R1230J
940.971	10.428	804163	COUNTDOWN_START	n/a	n/a	n/a	n/a	-999	1	[0, 0, 0]	n/a	catFR1	0	R1230J
951.399	0.007	814591	COUNTDOWN_END	n/a	n/a	n/a	n/a	-999	1	[0, 0, 0]	n/a	catFR1	0	R1230J
951.406	1.616	814598	ORIENT	n/a	n/a	n/a	n/a	-999	1	[0, 0, 0]	n/a	catFR1	0	R1230J
953.022	2.318	816214	ORIENT_OFF	n/a	n/a	n/a	n/a	-999	1	[0, 0, 0]	n/a	catFR1	0	R1230J
955.34	1.616	818532	WORD	n/a	wordpools/wordpool_categorized_EN.txt	CRICKET	Insects	1	1	[0, 0, 0]	n/a	catFR1	0	R1230J
956.956	0.833	820148	WORD_OFF	n/a	n/a	CRICKET	n/a	1	1	[0, 0, 0]	n/a	catFR1	0	R1230J
957.789	1.618	820981	WORD	n/a	wordpools/wordpool_categorized_EN.txt	BUTTERFLY	Insects	2	1	[0, 0, 0]	n/a	catFR1	0	R1230J
959.407	0.967	822599	WORD_OFF	n/a	n/a	BUTTERFLY	n/a	2	1	[0, 0, 0]	n/a	catFR1	0	R1230J
960.374	1.616	823566	WORD	n/a	wordpools/wordpool_categorized_EN.txt	EYE	BodyParts	3	1	[0, 0, 0]	n/a	catFR1	0	R1230J
961.99	0.9	825182	WORD_OFF	n/a	n/a	EYE	n/a	3	1	[0, 0, 0]	n/a	catFR1	0	R1230J
962.89	1.601	826082	WORD	n/a	wordpools/wordpool_categorized_EN.txt	KNEE	BodyParts	4	1	[0, 0, 0]	n/a	catFR1	0	R1230J
964.491	0.85	827683	WORD_OFF	n/a	n/a	KNEE	n/a	4	1	[0, 0, 0]	n/a	catFR1	0	R1230J
965.341	1.616	828533	WORD	n/a	wordpools/wordpool_categorized_EN.txt	JUICE	Beverages	5	1	[0, 0, 0]	n/a	catFR1	0	R1230J
966.957	1.0	830149	WORD_OFF	n/a	n/a	JUICE	n/a	5	1	[0, 0, 0]	n/a	catFR1	0	R1230J
967.957	1.618	831149	WORD	n/a	wordpools/wordpool_categorized_EN.txt	COLA	Beverages	6	1	[0, 0, 0]	n/a	catFR1	0	R1230J
969.575	0.833	832767	WORD_OFF	n/a	n/a	COLA	n/a	6	1	[0, 0, 0]	n/a	catFR1	0	R1230J
970.408	1.616	833600	WORD	n/a	wordpools/wordpool_categorized_EN.txt	ANT	Insects	7	1	[0, 0, 0]	n/a	catFR1	0	R1230J
972.024	0.934	835216	WORD_OFF	n/a	n/a	ANT	n/a	7	1	[0, 0, 0]	n/a	catFR1	0	R1230J
972.958	1.618	836150	WORD	n/a	wordpools/wordpool_categorized_EN.txt	GNAT	Insects	8	1	[0, 0, 0]	n/a	catFR1	0	R1230J
974.576	0.966	837768	WORD_OFF	n/a	n/a	GNAT	n/a	8	1	[0, 0, 0]	n/a	catFR1	0	R1230J
975.542	1.616	838734	WORD	n/a	wordpools/wordpool_categorized_EN.txt	HAND	BodyParts	9	1	[0, 0, 0]	n/a	catFR1	0	R1230J
977.158	1.0	840350	WORD_OFF	n/a	n/a	HAND	n/a	9	1	[0, 0, 0]	n/a	catFR1	0	R1230J
978.158	1.617	841350	WORD	n/a	wordpools/wordpool_categorized_EN.txt	FOOT	BodyParts	10	1	[0, 0, 0]	n/a	catFR1	0	R1230J
979.775	0.884	842967	WORD_OFF	n/a	n/a	FOOT	n/a	10	1	[0, 0, 0]	n/a	catFR1	0	R1230J
980.659	1.618	843851	WORD	n/a	wordpools/wordpool_categorized_EN.txt	WINE	Beverages	11	1	[0, 0, 0]	n/a	catFR1	0	R1230J
982.277	0.782	845469	WORD_OFF	n/a	n/a	WINE	n/a	11	1	[0, 0, 0]	n/a	catFR1	0	R1230J
983.059	1.617	846251	WORD	n/a	wordpools/wordpool_categorized_EN.txt	WATER	Beverages	12	1	[0, 0, 0]	n/a	catFR1	0	R1230J
984.676	0.001	847868	WORD_OFF	n/a	n/a	WATER	n/a	12	1	[0, 0, 0]	n/a	catFR1	0	R1230J
984.677	0.128	847869	ENCODING_END	n/a	n/a	n/a	n/a	-999	1	[0, 0, 0]	n/a	catFR1	0	R1230J
984.805	0.0	847997	DISTRACT_START	n/a	n/a	n/a	n/a	-999	1	[0, 0, 0]	n/a	catFR1	0	R1230J
984.805	0.021	847997	START	n/a	n/a	n/a	n/a	-999	1	[-999, -999, -999]	n/a	catFR1	0	R1230J
984.826	3.384	848018	PROB	3.362	n/a	n/a	n/a	-999	1	[1, 8, 2]	11.0	catFR1	0	R1230J
988.21	2.767	851402	PROB	2.73	n/a	n/a	n/a	-999	1	[4, 5, 2]	11.0	catFR1	0	R1230J
990.977	3.268	854169	PROB	3.235	n/a	n/a	n/a	-999	1	[3, 5, 3]	11.0	catFR1	0	R1230J
994.245	2.832	857437	PROB	2.799	n/a	n/a	n/a	-999	1	[4, 2, 4]	10.0	catFR1	0	R1230J
997.077	4.718	860269	PROB	4.679	n/a	n/a	n/a	-999	1	[2, 3, 9]	14.0	catFR1	0	R1230J
1001.795	3.017	864987	PROB	2.985	n/a	n/a	n/a	-999	1	[1, 7, 5]	14.0	catFR1	0	R1230J
1004.812	3.167	868004	PROB	3.167	n/a	n/a	n/a	-999	1	[4, 5, 6]	15.0	catFR1	0	R1230J
1007.979	0.017	871171	STOP	n/a	n/a	n/a	n/a	-999	1	[-999, -999, -999]	n/a	catFR1	0	R1230J
1007.996	0.584	871188	DISTRACT_END	n/a	n/a	n/a	n/a	-999	1	[0, 0, 0]	n/a	catFR1	0	R1230J
1008.58	0.516	871772	RETRIEVAL_ORIENT	n/a	n/a	n/a	n/a	-999	1	[0, 0, 0]	n/a	catFR1	0	R1230J
1009.096	1.418	872288	REC_START	n/a	n/a	n/a	n/a	-999	1	[0, 0, 0]	n/a	catFR1	0	R1230J
1010.514	0.571	873706	REC_WORD	1.418	n/a	CRICKET	Insects	1	1	[0, 0, 0]	n/a	catFR1	0	R1230J
1011.085	1.052	874277	REC_WORD	1.989	n/a	BUTTERFLY	Insects	2	1	[0, 0, 0]	n/a	catFR1	0	R1230J
1012.137	0.867	875329	REC_WORD	3.041	n/a	GNAT	Insects	8	1	[0, 0, 0]	n/a	catFR1	0	R1230J
1013.004	26.103	876196	REC_WORD	3.908	n/a	ANT	Insects	7	1	[0, 0, 0]	n/a	catFR1	0	R1230J
1039.107	4.494	902299	REC_END	n/a	n/a	n/a	n/a	-999	1	[0, 0, 0]	n/a	catFR1	0	R1230J
1043.601	0.5	906793	TRIAL	n/a	n/a	n/a	n/a	-999	2	[0, 0, 0]	n/a	catFR1	0	R1230J
1044.101	10.428	907293	COUNTDOWN_START	n/a	n/a	n/a	n/a	-999	2	[0, 0, 0]	n/a	catFR1	0	R1230J
1054.529	0.007	917721	COUNTDOWN_END	n/a	n/a	n/a	n/a	-999	2	[0, 0, 0]	n/a	catFR1	0	R1230J
1054.536	1.616	917728	ORIENT	n/a	n/a	n/a	n/a	-999	2	[0, 0, 0]	n/a	catFR1	0	R1230J
1056.152	2.301	919344	ORIENT_OFF	n/a	n/a	n/a	n/a	-999	2	[0, 0, 0]	n/a	catFR1	0	R1230J
1058.453	1.616	921645	WORD	n/a	wordpools/wordpool_categorized_EN.txt	FORK	KitchenTools	1	2	[0, 0, 0]	n/a	catFR1	0	R1230J
1060.069	0.983	923261	WORD_OFF	n/a	n/a	FORK	n/a	1	2	[0, 0, 0]	n/a	catFR1	0	R1230J
1061.052	1.617	924244	WORD	n/a	wordpools/wordpool_categorized_EN.txt	SPOON	KitchenTools	2	2	[0, 0, 0]	n/a	catFR1	0	R1230J
1062.669	0.768	925861	WORD_OFF	n/a	n/a	SPOON	n/a	2	2	[0, 0, 0]	n/a	catFR1	0	R1230J
1063.437	1.616	926629	WORD	n/a	wordpools/wordpool_categorized_EN.txt	FISH	OceanAnimals	3	2	[0, 0, 0]	n/a	catFR1	0	R1230J
1065.053	0.967	928245	WORD_OFF	n/a	n/a	FISH	n/a	3	2	[0, 0, 0]	n/a	catFR1	0	R1230J
1066.02	1.617	929212	WORD	n/a	wordpools/wordpool_categorized_EN.txt	PLANKTON	OceanAnimals	4	2	[0, 0, 0]	n/a	catFR1	0	R1230J
1067.637	0.951	930829	WORD_OFF	n/a	n/a	PLANKTON	n/a	4	2	[0, 0, 0]	n/a	catFR1	0	R1230J
1068.588	1.616	931780	WORD	n/a	wordpools/wordpool_categorized_EN.txt	GIRAFFE	Zoo	5	2	[0, 0, 0]	n/a	catFR1	0	R1230J
1070.204	0.983	933396	WORD_OFF	n/a	n/a	GIRAFFE	n/a	5	2	[0, 0, 0]	n/a	catFR1	0	R1230J
1071.187	1.617	934379	WORD	n/a	wordpools/wordpool_categorized_EN.txt	ZEBRA	Zoo	6	2	[0, 0, 0]	n/a	catFR1	0	R1230J
1072.804	0.933	935996	WORD_OFF	n/a	n/a	ZEBRA	n/a	6	2	[0, 0, 0]	n/a	catFR1	0	R1230J
1073.737	1.618	936929	WORD	n/a	wordpools/wordpool_categorized_EN.txt	JELLYFISH	OceanAnimals	7	2	[0, 0, 0]	n/a	catFR1	0	R1230J
1075.355	0.833	938547	WORD_OFF	n/a	n/a	JELLYFISH	n/a	7	2	[0, 0, 0]	n/a	catFR1	0	R1230J
1076.188	1.616	939380	WORD	n/a	wordpools/wordpool_categorized_EN.txt	OCTOPUS	OceanAnimals	8	2	[0, 0, 0]	n/a	catFR1	0	R1230J
1077.804	0.934	940996	WORD_OFF	n/a	n/a	OCTOPUS	n/a	8	2	[0, 0, 0]	n/a	catFR1	0	R1230J
1078.738	1.618	941930	WORD	n/a	wordpools/wordpool_categorized_EN.txt	COLANDER	KitchenTools	9	2	[0, 0, 0]	n/a	catFR1	0	R1230J
1080.356	0.766	943548	WORD_OFF	n/a	n/a	COLANDER	n/a	9	2	[0, 0, 0]	n/a	catFR1	0	R1230J
1081.122	1.617	944314	WORD	n/a	wordpools/wordpool_categorized_EN.txt	GRATER	KitchenTools	10	2	[0, 0, 0]	n/a	catFR1	0	R1230J
1082.739	0.834	945931	WORD_OFF	n/a	n/a	GRATER	n/a	10	2	[0, 0, 0]	n/a	catFR1	0	R1230J
1083.573	1.616	946765	WORD	n/a	wordpools/wordpool_categorized_EN.txt	CHIMPANZEE	Zoo	11	2	[0, 0, 0]	n/a	catFR1	0	R1230J
1085.189	0.933	948381	WORD_OFF	n/a	n/a	CHIMPANZEE	n/a	11	2	[0, 0, 0]	n/a	catFR1	0	R1230J
1086.122	1.617	949314	WORD	n/a	wordpools/wordpool_categorized_EN.txt	PANDA	Zoo	12	2	[0, 0, 0]	n/a	catFR1	0	R1230J
1087.739	0.0	950931	ENCODING_END	n/a	n/a	n/a	n/a	-999	2	[0, 0, 0]	n/a	catFR1	0	R1230J
1087.739	0.101	950931	WORD_OFF	n/a	n/a	PANDA	n/a	12	2	[0, 0, 0]	n/a	catFR1	0	R1230J
1087.84	0.0	951032	DISTRACT_START	n/a	n/a	n/a	n/a	-999	2	[0, 0, 0]	n/a	catFR1	0	R1230J
1087.84	0.016	951032	START	n/a	n/a	n/a	n/a	-999	2	[-999, -999, -999]	n/a	catFR1	0	R1230J
1087.856	2.368	951048	PROB	2.336	n/a	n/a	n/a	-999	2	[6, 4, 1]	11.0	catFR1	0	R1230J
1090.224	2.783	953416	PROB	2.752	n/a	n/a	n/a	-999	2	[3, 8, 2]	13.0	catFR1	0	R1230J
1093.007	4.083	956199	PROB	4.05	n/a	n/a	n/a	-999	2	[8, 9, 9]	26.0	catFR1	0	R1230J
1097.09	2.235	960282	PROB	2.2	n/a	n/a	n/a	-999	2	[2, 6, 4]	12.0	catFR1	0	R1230J
1099.325	4.301	962517	PROB	4.275	n/a	n/a	n/a	-999	2	[7, 8, 9]	24.0	catFR1	0	R1230J
1103.626	2.249	966818	PROB	2.214	n/a	n/a	n/a	-999	2	[2, 5, 4]	11.0	catFR1	0	R1230J
1105.875	2.812	969067	PROB	2.812	n/a	n/a	n/a	-999	2	[1, 1, 3]	5.0	catFR1	0	R1230J
1108.687	0.022	971879	STOP	n/a	n/a	n/a	n/a	-999	2	[-999, -999, -999]	n/a	catFR1	0	R1230J
1108.709	0.517	971901	DISTRACT_END	n/a	n/a	n/a	n/a	-999	2	[0, 0, 0]	n/a	catFR1	0	R1230J
1109.226	0.517	972418	RETRIEVAL_ORIENT	n/a	n/a	n/a	n/a	-999	2	[0, 0, 0]	n/a	catFR1	0	R1230J
1109.743	1.315	972935	REC_START	n/a	n/a	n/a	n/a	-999	2	[0, 0, 0]	n/a	catFR1	0	R1230J
1111.058	1.396	974250	REC_WORD	1.315	n/a	GIRAFFE	Zoo	5	2	[0, 0, 0]	n/a	catFR1	0	R1230J
1112.454	1.224	975646	REC_WORD	2.711	n/a	CHIMPANZEE	Zoo	11	2	[0, 0, 0]	n/a	catFR1	0	R1230J
1113.678	0.592	976870	REC_WORD	3.935	n/a	FORK	KitchenTools	1	2	[0, 0, 0]	n/a	catFR1	0	R1230J
1114.27	2.194	977462	REC_WORD	4.527	n/a	SPOON	KitchenTools	2	2	[0, 0, 0]	n/a	catFR1	0	R1230J
1116.464	0.531	979656	REC_WORD_VV	6.721	n/a	<>	n/a	-999	2	[0, 0, 0]	n/a	catFR1	0	R1230J
1116.995	3.403	980187	REC_WORD	7.252	n/a	COLANDER	KitchenTools	9	2	[0, 0, 0]	n/a	catFR1	0	R1230J
1120.398	2.009	983590	REC_WORD_VV	10.655	n/a	<>	n/a	-999	2	[0, 0, 0]	n/a	catFR1	0	R1230J
1122.407	1.308	985599	REC_WORD_VV	12.664	n/a	<>	n/a	-999	2	[0, 0, 0]	n/a	catFR1	0	R1230J
1123.715	1.214	986907	REC_WORD	13.972	n/a	APE	n/a	-999	2	[0, 0, 0]	n/a	catFR1	0	R1230J
1124.929	1.0	988121	REC_WORD_VV	15.186	n/a	<>	n/a	-999	2	[0, 0, 0]	n/a	catFR1	0	R1230J
1125.929	3.733	989121	REC_WORD_VV	16.186	n/a	<>	n/a	-999	2	[0, 0, 0]	n/a	catFR1	0	R1230J
1129.662	1.008	992854	REC_WORD	19.919	n/a	WINE	n/a	-999	2	[0, 0, 0]	n/a	catFR1	0	R1230J
1130.67	2.864	993862	REC_WORD_VV	20.927	n/a	<>	n/a	-999	2	[0, 0, 0]	n/a	catFR1	0	R1230J
1133.534	1.0	996726	REC_WORD_VV	23.791	n/a	<>	n/a	-999	2	[0, 0, 0]	n/a	catFR1	0	R1230J
1134.534	1.0	997726	REC_WORD_VV	24.791	n/a	<>	n/a	-999	2	[0, 0, 0]	n/a	catFR1	0	R1230J
1135.534	3.055	998726	REC_WORD_VV	25.791	n/a	<>	n/a	-999	2	[0, 0, 0]	n/a	catFR1	0	R1230J
1138.589	1.164	1001781	REC_WORD_VV	28.846	n/a	<>	n/a	-999	2	[0, 0, 0]	n/a	catFR1	0	R1230J
1139.753	5.611	1002945	REC_END	n/a	n/a	n/a	n/a	-999	2	[0, 0, 0]	n/a	catFR1	0	R1230J
1145.364	0.5	1008556	TRIAL	n/a	n/a	n/a	n/a	-999	3	[0, 0, 0]	n/a	catFR1	0	R1230J
1145.864	10.428	1009056	COUNTDOWN_START	n/a	n/a	n/a	n/a	-999	3	[0, 0, 0]	n/a	catFR1	0	R1230J
1156.292	0.007	1019484	COUNTDOWN_END	n/a	n/a	n/a	n/a	-999	3	[0, 0, 0]	n/a	catFR1	0	R1230J
1156.299	1.616	1019491	ORIENT	n/a	n/a	n/a	n/a	-999	3	[0, 0, 0]	n/a	catFR1	0	R1230J
1157.915	2.05	1021107	ORIENT_OFF	n/a	n/a	n/a	n/a	-999	3	[0, 0, 0]	n/a	catFR1	0	R1230J
1159.965	1.618	1023157	WORD	n/a	wordpools/wordpool_categorized_EN.txt	DOOR	Building	1	3	[0, 0, 0]	n/a	catFR1	0	R1230J
1161.583	0.884	1024775	WORD_OFF	n/a	n/a	DOOR	n/a	1	3	[0, 0, 0]	n/a	catFR1	0	R1230J
1162.467	1.615	1025659	WORD	n/a	wordpools/wordpool_categorized_EN.txt	FOUNDATION	Building	2	3	[0, 0, 0]	n/a	catFR1	0	R1230J
1164.082	0.984	1027274	WORD_OFF	n/a	n/a	FOUNDATION	n/a	2	3	[0, 0, 0]	n/a	catFR1	0	R1230J
1165.066	1.616	1028258	WORD	n/a	wordpools/wordpool_categorized_EN.txt	SANDER	Tools	3	3	[0, 0, 0]	n/a	catFR1	0	R1230J
1166.682	1.001	1029874	WORD_OFF	n/a	n/a	SANDER	n/a	3	3	[0, 0, 0]	n/a	catFR1	0	R1230J
1167.683	1.618	1030875	WORD	n/a	wordpools/wordpool_categorized_EN.txt	WRENCH	Tools	4	3	[0, 0, 0]	n/a	catFR1	0	R1230J
1169.301	0.933	1032493	WORD_OFF	n/a	n/a	WRENCH	n/a	4	3	[0, 0, 0]	n/a	catFR1	0	R1230J
1170.234	1.616	1033426	WORD	n/a	wordpools/wordpool_categorized_EN.txt	BULL	FarmAnimals	5	3	[0, 0, 0]	n/a	catFR1	0	R1230J
1171.85	0.933	1035042	WORD_OFF	n/a	n/a	BULL	n/a	5	3	[0, 0, 0]	n/a	catFR1	0	R1230J
1172.783	1.602	1035975	WORD	n/a	wordpools/wordpool_categorized_EN.txt	COW	FarmAnimals	6	3	[0, 0, 0]	n/a	catFR1	0	R1230J
1174.385	0.983	1037577	WORD_OFF	n/a	n/a	COW	n/a	6	3	[0, 0, 0]	n/a	catFR1	0	R1230J
1175.368	1.616	1038560	WORD	n/a	wordpools/wordpool_categorized_EN.txt	DRILL	Tools	7	3	[0, 0, 0]	n/a	catFR1	0	R1230J
1176.984	0.783	1040176	WORD_OFF	n/a	n/a	DRILL	n/a	7	3	[0, 0, 0]	n/a	catFR1	0	R1230J
1177.767	1.618	1040959	WORD	n/a	wordpools/wordpool_categorized_EN.txt	LEVEL	Tools	8	3	[0, 0, 0]	n/a	catFR1	0	R1230J
1179.385	0.917	1042577	WORD_OFF	n/a	n/a	LEVEL	n/a	8	3	[0, 0, 0]	n/a	catFR1	0	R1230J
1180.302	1.616	1043494	WORD	n/a	wordpools/wordpool_categorized_EN.txt	HALLWAY	Building	9	3	[0, 0, 0]	n/a	catFR1	0	R1230J
1181.918	0.933	1045110	WORD_OFF	n/a	n/a	HALLWAY	n/a	9	3	[0, 0, 0]	n/a	catFR1	0	R1230J
1182.851	1.618	1046043	WORD	n/a	wordpools/wordpool_categorized_EN.txt	BATHROOM	Building	10	3	[0, 0, 0]	n/a	catFR1	0	R1230J
1184.469	1.017	1047661	WORD_OFF	n/a	n/a	BATHROOM	n/a	10	3	[0, 0, 0]	n/a	catFR1	0	R1230J
1185.486	1.616	1048678	WORD	n/a	wordpools/wordpool_categorized_EN.txt	CHICKEN	FarmAnimals	11	3	[0, 0, 0]	n/a	catFR1	0	R1230J
1187.102	0.967	1050294	WORD_OFF	n/a	n/a	CHICKEN	n/a	11	3	[0, 0, 0]	n/a	catFR1	0	R1230J
1188.069	1.616	1051261	WORD	n/a	wordpools/wordpool_categorized_EN.txt	TURKEY	FarmAnimals	12	3	[0, 0, 0]	n/a	catFR1	0	R1230J
1189.685	0.001	1052877	WORD_OFF	n/a	n/a	TURKEY	n/a	12	3	[0, 0, 0]	n/a	catFR1	0	R1230J
1189.686	0.096	1052878	ENCODING_END	n/a	n/a	n/a	n/a	-999	3	[0, 0, 0]	n/a	catFR1	0	R1230J
1189.782	0.0	1052974	DISTRACT_START	n/a	n/a	n/a	n/a	-999	3	[0, 0, 0]	n/a	catFR1	0	R1230J
1189.782	0.02	1052974	START	n/a	n/a	n/a	n/a	-999	3	[-999, -999, -999]	n/a	catFR1	0	R1230J
1189.802	3.984	1052994	PROB	3.962	n/a	n/a	n/a	-999	3	[6, 9, 7]	26.0	catFR1	0	R1230J
1193.786	6.184	1056978	PROB	6.146	n/a	n/a	n/a	-999	3	[6, 7, 5]	18.0	catFR1	0	R1230J
1199.97	3.252	1063163	PROB	3.218	n/a	n/a	n/a	-999	3	[9, 9, 4]	22.0	catFR1	0	R1230J
1203.222	2.765	1066415	PROB	2.733	n/a	n/a	n/a	-999	3	[9, 7, 1]	17.0	catFR1	0	R1230J
1205.987	2.984	1069180	PROB	2.96	n/a	n/a	n/a	-999	3	[7, 2, 2]	11.0	catFR1	0	R1230J
1208.971	3.224	1072164	PROB	3.224	n/a	n/a	n/a	-999	3	[5, 1, 9]	15.0	catFR1	0	R1230J
1212.195	0.011	1075388	STOP	n/a	n/a	n/a	n/a	-999	3	[-999, -999, -999]	n/a	catFR1	0	R1230J
1212.206	0.683	1075399	DISTRACT_END	n/a	n/a	n/a	n/a	-999	3	[0, 0, 0]	n/a	catFR1	0	R1230J
1212.889	0.518	1076082	RETRIEVAL_ORIENT	n/a	n/a	n/a	n/a	-999	3	[0, 0, 0]	n/a	catFR1	0	R1230J
1213.407	2.082	1076600	REC_START	n/a	n/a	n/a	n/a	-999	3	[0, 0, 0]	n/a	catFR1	0	R1230J
1215.489	1.024	1078682	REC_WORD_VV	2.082	n/a	<>	n/a	-999	3	[0, 0, 0]	n/a	catFR1	0	R1230J
1216.513	0.115	1079706	REC_WORD_VV	3.106	n/a	<>	n/a	-999	3	[0, 0, 0]	n/a	catFR1	0	R1230J
1216.628	1.232	1079821	REC_WORD	3.221	n/a	TURKEY	FarmAnimals	12	3	[0, 0, 0]	n/a	catFR1	0	R1230J
1217.86	0.155	1081053	REC_WORD_VV	4.453	n/a	<>	n/a	-999	3	[0, 0, 0]	n/a	catFR1	0	R1230J
1218.015	1.675	1081208	REC_WORD	4.608	n/a	BULL	FarmAnimals	5	3	[0, 0, 0]	n/a	catFR1	0	R1230J
1219.69	0.527	1082883	REC_WORD_VV	6.283	n/a	<>	n/a	-999	3	[0, 0, 0]	n/a	catFR1	0	R1230J
1220.217	0.637	1083410	REC_WORD	6.81	n/a	OX	n/a	-999	3	[0, 0, 0]	n/a	catFR1	0	R1230J
1220.854	1.382	1084047	REC_WORD_VV	7.447	n/a	<>	n/a	-999	3	[0, 0, 0]	n/a	catFR1	0	R1230J
1222.236	1.44	1085429	REC_WORD	8.829	n/a	FOUNDATION	Building	2	3	[0, 0, 0]	n/a	catFR1	0	R1230J
1223.676	2.182	1086869	REC_WORD	10.269	n/a	DOOR	Building	1	3	[0, 0, 0]	n/a	catFR1	0	R1230J
1225.858	3.215	1089051	REC_WORD	12.451	n/a	HALLWAY	Building	9	3	[0, 0, 0]	n/a	catFR1	0	R1230J
1229.073	1.0	1092266	REC_WORD_VV	15.666	n/a	<>	n/a	-999	3	[0, 0, 0]	n/a	catFR1	0	R1230J
1230.073	0.653	1093266	REC_WORD_VV	16.666	n/a	<>	n/a	-999	3	[0, 0, 0]	n/a	catFR1	0	R1230J
1230.726	3.925	1093919	REC_WORD_VV	17.319	n/a	<>	n/a	-999	3	[0, 0, 0]	n/a	catFR1	0	R1230J
1234.651	2.109	1097844	REC_WORD	21.244	n/a	JELLYFISH	n/a	-999	3	[0, 0, 0]	n/a	catFR1	0	R1230J
1236.76	1.0	1099953	REC_WORD_VV	23.353	n/a	<>	n/a	-999	3	[0, 0, 0]	n/a	catFR1	0	R1230J
1237.76	1.0	1100953	REC_WORD_VV	24.353	n/a	<>	n/a	-999	3	[0, 0, 0]	n/a	catFR1	0	R1230J
1238.76	1.0	1101953	REC_WORD_VV	25.353	n/a	<>	n/a	-999	3	[0, 0, 0]	n/a	catFR1	0	R1230J
1239.76	1.0	1102953	REC_WORD_VV	26.353	n/a	<>	n/a	-999	3	[0, 0, 0]	n/a	catFR1	0	R1230J
1240.76	2.424	1103953	REC_WORD_VV	27.353	n/a	<>	n/a	-999	3	[0, 0, 0]	n/a	catFR1	0	R1230J
1243.184	0.232	1106377	REC_WORD_VV	29.777	n/a	<>	n/a	-999	3	[0, 0, 0]	n/a	catFR1	0	R1230J
1243.416	5.66	1106609	REC_END	n/a	n/a	n/a	n/a	-999	3	[0, 0, 0]	n/a	catFR1	0	R1230J
1249.076	0.5	1112269	TRIAL	n/a	n/a	n/a	n/a	-999	4	[0, 0, 0]	n/a	catFR1	0	R1230J
1249.576	10.428	1112769	COUNTDOWN_START	n/a	n/a	n/a	n/a	-999	4	[0, 0, 0]	n/a	catFR1	0	R1230J
1260.004	0.007	1123197	COUNTDOWN_END	n/a	n/a	n/a	n/a	-999	4	[0, 0, 0]	n/a	catFR1	0	R1230J
1260.011	1.618	1123204	ORIENT	n/a	n/a	n/a	n/a	-999	4	[0, 0, 0]	n/a	catFR1	0	R1230J
1261.629	2.183	1124822	ORIENT_OFF	n/a	n/a	n/a	n/a	-999	4	[0, 0, 0]	n/a	catFR1	0	R1230J
1263.812	1.617	1127005	WORD	n/a	wordpools/wordpool_categorized_EN.txt	FOG	Weather	1	4	[0, 0, 0]	n/a	catFR1	0	R1230J
1265.429	0.834	1128622	WORD_OFF	n/a	n/a	FOG	n/a	1	4	[0, 0, 0]	n/a	catFR1	0	R1230J
1266.263	1.616	1129456	WORD	n/a	wordpools/wordpool_categorized_EN.txt	CLOUD	Weather	2	4	[0, 0, 0]	n/a	catFR1	0	R1230J
1267.879	0.9	1131072	WORD_OFF	n/a	n/a	CLOUD	n/a	2	4	[0, 0, 0]	n/a	catFR1	0	R1230J
1268.779	1.618	1131972	WORD	n/a	wordpools/wordpool_categorized_EN.txt	JEEP	Vehicles	3	4	[0, 0, 0]	n/a	catFR1	0	R1230J
1270.397	0.866	1133590	WORD_OFF	n/a	n/a	JEEP	n/a	3	4	[0, 0, 0]	n/a	catFR1	0	R1230J
1271.263	1.617	1134456	WORD	n/a	wordpools/wordpool_categorized_EN.txt	BOAT	Vehicles	4	4	[0, 0, 0]	n/a	catFR1	0	R1230J
1272.88	0.95	1136073	WORD_OFF	n/a	n/a	BOAT	n/a	4	4	[0, 0, 0]	n/a	catFR1	0	R1230J
1273.83	1.617	1137023	WORD	n/a	wordpools/wordpool_categorized_EN.txt	SHOVEL	Tools	5	4	[0, 0, 0]	n/a	catFR1	0	R1230J
1275.447	0.984	1138640	WORD_OFF	n/a	n/a	SHOVEL	n/a	5	4	[0, 0, 0]	n/a	catFR1	0	R1230J
1276.431	1.616	1139624	WORD	n/a	wordpools/wordpool_categorized_EN.txt	AXE	Tools	6	4	[0, 0, 0]	n/a	catFR1	0	R1230J
1278.047	0.867	1141240	WORD_OFF	n/a	n/a	AXE	n/a	6	4	[0, 0, 0]	n/a	catFR1	0	R1230J
1278.914	1.617	1142107	WORD	n/a	wordpools/wordpool_categorized_EN.txt	SCOOTER	Vehicles	7	4	[0, 0, 0]	n/a	catFR1	0	R1230J
1280.531	0.817	1143724	WORD_OFF	n/a	n/a	SCOOTER	n/a	7	4	[0, 0, 0]	n/a	catFR1	0	R1230J
1281.348	1.616	1144541	WORD	n/a	wordpools/wordpool_categorized_EN.txt	TRUCK	Vehicles	8	4	[0, 0, 0]	n/a	catFR1	0	R1230J
1282.964	0.8	1146157	WORD_OFF	n/a	n/a	TRUCK	n/a	8	4	[0, 0, 0]	n/a	catFR1	0	R1230J
1283.764	1.618	1146957	WORD	n/a	wordpools/wordpool_categorized_EN.txt	HURRICANE	Weather	9	4	[0, 0, 0]	n/a	catFR1	0	R1230J
1285.382	0.966	1148575	WORD_OFF	n/a	n/a	HURRICANE	n/a	9	4	[0, 0, 0]	n/a	catFR1	0	R1230J
1286.348	1.617	1149541	WORD	n/a	wordpools/wordpool_categorized_EN.txt	RAIN	Weather	10	4	[0, 0, 0]	n/a	catFR1	0	R1230J
1287.965	0.866	1151158	WORD_OFF	n/a	n/a	RAIN	n/a	10	4	[0, 0, 0]	n/a	catFR1	0	R1230J
1288.831	1.618	1152024	WORD	n/a	wordpools/wordpool_categorized_EN.txt	SCREWDRIVER	Tools	11	4	[0, 0, 0]	n/a	catFR1	0	R1230J
1290.449	0.967	1153642	WORD_OFF	n/a	n/a	SCREWDRIVER	n/a	11	4	[0, 0, 0]	n/a	catFR1	0	R1230J
1291.416	1.616	1154609	WORD	n/a	wordpools/wordpool_categorized_EN.txt	SAW	Tools	12	4	[0, 0, 0]	n/a	catFR1	0	R1230J
1293.032	0.0	1156225	ENCODING_END	n/a	n/a	n/a	n/a	-999	4	[0, 0, 0]	n/a	catFR1	0	R1230J
1293.032	0.127	1156225	WORD_OFF	n/a	n/a	SAW	n/a	12	4	[0, 0, 0]	n/a	catFR1	0	R1230J
1293.159	0.0	1156352	DISTRACT_START	n/a	n/a	n/a	n/a	-999	4	[0, 0, 0]	n/a	catFR1	0	R1230J
1293.159	0.023	1156352	START	n/a	n/a	n/a	n/a	-999	4	[-999, -999, -999]	n/a	catFR1	0	R1230J
1293.182	3.168	1156375	PROB	3.139	n/a	n/a	n/a	-999	4	[6, 5, 6]	17.0	catFR1	0	R1230J
1296.35	2.666	1159543	PROB	2.641	n/a	n/a	n/a	-999	4	[7, 5, 4]	16.0	catFR1	0	R1230J
1299.016	2.684	1162209	PROB	2.647	n/a	n/a	n/a	-999	4	[1, 5, 4]	10.0	catFR1	0	R1230J
1301.7	4.384	1164893	PROB	4.348	n/a	n/a	n/a	-999	4	[3, 8, 3]	14.0	catFR1	0	R1230J
1306.084	3.083	1169277	PROB	3.058	n/a	n/a	n/a	-999	4	[5, 9, 6]	20.0	catFR1	0	R1230J
1309.167	3.352	1172360	PROB	3.321	n/a	n/a	n/a	-999	4	[9, 6, 7]	21.0	catFR1	0	R1230J
1312.519	3.313	1175712	PROB	3.313	n/a	n/a	n/a	-999	4	[5, 2, 2]	9.0	catFR1	0	R1230J
1315.832	0.02	1179025	STOP	n/a	n/a	n/a	n/a	-999	4	[-999, -999, -999]	n/a	catFR1	0	R1230J
1315.852	0.717	1179045	DISTRACT_END	n/a	n/a	n/a	n/a	-999	4	[0, 0, 0]	n/a	catFR1	0	R1230J
1316.569	0.517	1179762	RETRIEVAL_ORIENT	n/a	n/a	n/a	n/a	-999	4	[0, 0, 0]	n/a	catFR1	0	R1230J
1317.086	3.044	1180279	REC_START	n/a	n/a	n/a	n/a	-999	4	[0, 0, 0]	n/a	catFR1	0	R1230J
1320.13	5.604	1183323	REC_WORD	3.044	n/a	RAIN	Weather	10	4	[0, 0, 0]	n/a	catFR1	0	R1230J
1325.734	1.952	1188927	REC_WORD_VV	8.648	n/a	<>	n/a	-999	4	[0, 0, 0]	n/a	catFR1	0	R1230J
1327.686	9.157	1190879	REC_WORD	10.6	n/a	HURRICANE	Weather	9	4	[0, 0, 0]	n/a	catFR1	0	R1230J
1336.843	4.462	1200036	REC_WORD	19.757	n/a	TRUCK	Vehicles	8	4	[0, 0, 0]	n/a	catFR1	0	R1230J
1341.305	2.028	1204498	REC_WORD	24.219	n/a	AXE	Tools	6	4	[0, 0, 0]	n/a	catFR1	0	R1230J
1343.333	3.764	1206526	REC_WORD	26.247	n/a	SCREWDRIVER	Tools	11	4	[0, 0, 0]	n/a	catFR1	0	R1230J
1347.097	4.559	1210290	REC_END	n/a	n/a	n/a	n/a	-999	4	[0, 0, 0]	n/a	catFR1	0	R1230J
1351.656	0.5	1214849	TRIAL	n/a	n/a	n/a	n/a	-999	5	[0, 0, 0]	n/a	catFR1	0	R1230J
1352.156	10.428	1215349	COUNTDOWN_START	n/a	n/a	n/a	n/a	-999	5	[0, 0, 0]	n/a	catFR1	0	R1230J
1362.584	0.008	1225777	COUNTDOWN_END	n/a	n/a	n/a	n/a	-999	5	[0, 0, 0]	n/a	catFR1	0	R1230J
1362.592	1.616	1225785	ORIENT	n/a	n/a	n/a	n/a	-999	5	[0, 0, 0]	n/a	catFR1	0	R1230J
1364.208	2.351	1227401	ORIENT_OFF	n/a	n/a	n/a	n/a	-999	5	[0, 0, 0]	n/a	catFR1	0	R1230J
1366.559	1.616	1229752	WORD	n/a	wordpools/wordpool_categorized_EN.txt	LADYBUG	Insects	1	5	[0, 0, 0]	n/a	catFR1	0	R1230J
1368.175	0.967	1231368	WORD_OFF	n/a	n/a	LADYBUG	n/a	1	5	[0, 0, 0]	n/a	catFR1	0	R1230J
1369.142	1.617	1232335	WORD	n/a	wordpools/wordpool_categorized_EN.txt	MOTH	Insects	2	5	[0, 0, 0]	n/a	catFR1	0	R1230J
1370.759	0.834	1233952	WORD_OFF	n/a	n/a	MOTH	n/a	2	5	[0, 0, 0]	n/a	catFR1	0	R1230J
1371.593	1.616	1234786	WORD	n/a	wordpools/wordpool_categorized_EN.txt	ELEPHANT	Zoo	3	5	[0, 0, 0]	n/a	catFR1	0	R1230J
1373.209	0.917	1236402	WORD_OFF	n/a	n/a	ELEPHANT	n/a	3	5	[0, 0, 0]	n/a	catFR1	0	R1230J
1374.126	1.616	1237319	WORD	n/a	wordpools/wordpool_categorized_EN.txt	LION	Zoo	4	5	[0, 0, 0]	n/a	catFR1	0	R1230J
1375.742	0.852	1238935	WORD_OFF	n/a	n/a	LION	n/a	4	5	[0, 0, 0]	n/a	catFR1	0	R1230J
1376.594	1.616	1239787	WORD	n/a	wordpools/wordpool_categorized_EN.txt	SKIRT	Clothing	5	5	[0, 0, 0]	n/a	catFR1	0	R1230J
1378.21	0.916	1241403	WORD_OFF	n/a	n/a	SKIRT	n/a	5	5	[0, 0, 0]	n/a	catFR1	0	R1230J
1379.126	1.617	1242319	WORD	n/a	wordpools/wordpool_categorized_EN.txt	SHIRT	Clothing	6	5	[0, 0, 0]	n/a	catFR1	0	R1230J
1380.743	0.868	1243936	WORD_OFF	n/a	n/a	SHIRT	n/a	6	5	[0, 0, 0]	n/a	catFR1	0	R1230J
1381.611	1.617	1244804	WORD	n/a	wordpools/wordpool_categorized_EN.txt	MONKEY	Zoo	7	5	[0, 0, 0]	n/a	catFR1	0	R1230J
1383.228	0.966	1246421	WORD_OFF	n/a	n/a	MONKEY	n/a	7	5	[0, 0, 0]	n/a	catFR1	0	R1230J
1384.194	1.616	1247387	WORD	n/a	wordpools/wordpool_categorized_EN.txt	BEAR	Zoo	8	5	[0, 0, 0]	n/a	catFR1	0	R1230J
1385.81	0.802	1249003	WORD_OFF	n/a	n/a	BEAR	n/a	8	5	[0, 0, 0]	n/a	catFR1	0	R1230J
1386.612	1.616	1249805	WORD	n/a	wordpools/wordpool_categorized_EN.txt	ROACH	Insects	9	5	[0, 0, 0]	n/a	catFR1	0	R1230J
1388.228	0.883	1251421	WORD_OFF	n/a	n/a	ROACH	n/a	9	5	[0, 0, 0]	n/a	catFR1	0	R1230J
1389.111	1.617	1252304	WORD	n/a	wordpools/wordpool_categorized_EN.txt	MOSQUITO	Insects	10	5	[0, 0, 0]	n/a	catFR1	0	R1230J
1390.728	0.834	1253921	WORD_OFF	n/a	n/a	MOSQUITO	n/a	10	5	[0, 0, 0]	n/a	catFR1	0	R1230J
1391.562	1.616	1254755	WORD	n/a	wordpools/wordpool_categorized_EN.txt	COAT	Clothing	11	5	[0, 0, 0]	n/a	catFR1	0	R1230J
1393.178	0.984	1256371	WORD_OFF	n/a	n/a	COAT	n/a	11	5	[0, 0, 0]	n/a	catFR1	0	R1230J
1394.162	1.616	1257355	WORD	n/a	wordpools/wordpool_categorized_EN.txt	PANTS	Clothing	12	5	[0, 0, 0]	n/a	catFR1	0	R1230J
1395.778	0.001	1258971	WORD_OFF	n/a	n/a	PANTS	n/a	12	5	[0, 0, 0]	n/a	catFR1	0	R1230J
1395.779	0.097	1258972	ENCODING_END	n/a	n/a	n/a	n/a	-999	5	[0, 0, 0]	n/a	catFR1	0	R1230J
1395.876	0.0	1259069	DISTRACT_START	n/a	n/a	n/a	n/a	-999	5	[0, 0, 0]	n/a	catFR1	0	R1230J
1395.876	0.019	1259069	START	n/a	n/a	n/a	n/a	-999	5	[-999, -999, -999]	n/a	catFR1	0	R1230J
1395.895	3.335	1259088	PROB	3.3	n/a	n/a	n/a	-999	5	[5, 3, 1]	9.0	catFR1	0	R1230J
1399.23	2.167	1262423	PROB	2.143	n/a	n/a	n/a	-999	5	[3, 7, 1]	11.0	catFR1	0	R1230J
1401.397	2.516	1264590	PROB	2.486	n/a	n/a	n/a	-999	5	[9, 3, 4]	16.0	catFR1	0	R1230J
1403.913	2.418	1267106	PROB	2.394	n/a	n/a	n/a	-999	5	[9, 4, 5]	18.0	catFR1	0	R1230J
1406.331	2.332	1269524	PROB	2.306	n/a	n/a	n/a	-999	5	[2, 9, 1]	12.0	catFR1	0	R1230J
1408.663	1.551	1271856	PROB	1.524	n/a	n/a	n/a	-999	5	[1, 1, 1]	3.0	catFR1	0	R1230J
1410.214	2.717	1273407	PROB	2.694	n/a	n/a	n/a	-999	5	[7, 1, 6]	14.0	catFR1	0	R1230J
1412.931	2.484	1276124	PROB	2.456	n/a	n/a	n/a	-999	5	[8, 6, 3]	17.0	catFR1	0	R1230J
1415.415	2.587	1278608	PROB	2.587	n/a	n/a	n/a	-999	5	[1, 4, 5]	10.0	catFR1	0	R1230J
1418.002	0.013	1281195	STOP	n/a	n/a	n/a	n/a	-999	5	[-999, -999, -999]	n/a	catFR1	0	R1230J
1418.015	0.7	1281208	DISTRACT_END	n/a	n/a	n/a	n/a	-999	5	[0, 0, 0]	n/a	catFR1	0	R1230J
1418.715	0.518	1281908	RETRIEVAL_ORIENT	n/a	n/a	n/a	n/a	-999	5	[0, 0, 0]	n/a	catFR1	0	R1230J
1419.233	7.955	1282426	REC_START	n/a	n/a	n/a	n/a	-999	5	[0, 0, 0]	n/a	catFR1	0	R1230J
1427.188	1.902	1290381	REC_WORD_VV	7.955	n/a	<>	n/a	-999	5	[0, 0, 0]	n/a	catFR1	0	R1230J
1429.09	5.13	1292283	REC_WORD	9.857	n/a	MONKEY	Zoo	7	5	[0, 0, 0]	n/a	catFR1	0	R1230J
1434.22	5.933	1297413	REC_WORD	14.987	n/a	APE	n/a	-999	5	[0, 0, 0]	n/a	catFR1	0	R1230J
1440.153	0.25	1303346	REC_WORD_VV	20.92	n/a	<>	n/a	-999	5	[0, 0, 0]	n/a	catFR1	0	R1230J
1440.403	8.565	1303596	REC_WORD	21.17	n/a	TOOL	n/a	-999	5	[0, 0, 0]	n/a	catFR1	0	R1230J
1448.968	0.276	1312161	REC_WORD	29.735	n/a	RAIN	n/a	-999	5	[0, 0, 0]	n/a	catFR1	0	R1230J
1449.244	7.442	1312437	REC_END	n/a	n/a	n/a	n/a	-999	5	[0, 0, 0]	n/a	catFR1	0	R1230J
1456.686	0.5	1319879	TRIAL	n/a	n/a	n/a	n/a	-999	6	[0, 0, 0]	n/a	catFR1	0	R1230J
1457.186	10.428	1320379	COUNTDOWN_START	n/a	n/a	n/a	n/a	-999	6	[0, 0, 0]	n/a	catFR1	0	R1230J
1467.614	0.008	1330807	COUNTDOWN_END	n/a	n/a	n/a	n/a	-999	6	[0, 0, 0]	n/a	catFR1	0	R1230J
1467.622	1.617	1330815	ORIENT	n/a	n/a	n/a	n/a	-999	6	[0, 0, 0]	n/a	catFR1	0	R1230J
1469.239	2.233	1332432	ORIENT_OFF	n/a	n/a	n/a	n/a	-999	6	[0, 0, 0]	n/a	catFR1	0	R1230J
1471.472	1.616	1334665	WORD	n/a	wordpools/wordpool_categorized_EN.txt	STRAINER	KitchenTools	1	6	[0, 0, 0]	n/a	catFR1	0	R1230J
1473.088	0.867	1336281	WORD_OFF	n/a	n/a	STRAINER	n/a	1	6	[0, 0, 0]	n/a	catFR1	0	R1230J
1473.955	1.618	1337148	WORD	n/a	wordpools/wordpool_categorized_EN.txt	TONGS	KitchenTools	2	6	[0, 0, 0]	n/a	catFR1	0	R1230J
1475.573	0.767	1338766	WORD_OFF	n/a	n/a	TONGS	n/a	2	6	[0, 0, 0]	n/a	catFR1	0	R1230J
1476.34	1.616	1339533	WORD	n/a	wordpools/wordpool_categorized_EN.txt	CUPCAKE	Desserts	3	6	[0, 0, 0]	n/a	catFR1	0	R1230J
1477.956	0.966	1341149	WORD_OFF	n/a	n/a	CUPCAKE	n/a	3	6	[0, 0, 0]	n/a	catFR1	0	R1230J
1478.922	1.601	1342115	WORD	n/a	wordpools/wordpool_categorized_EN.txt	CAKE	Desserts	4	6	[0, 0, 0]	n/a	catFR1	0	R1230J
1480.523	0.951	1343716	WORD_OFF	n/a	n/a	CAKE	n/a	4	6	[0, 0, 0]	n/a	catFR1	0	R1230J
1481.474	1.616	1344667	WORD	n/a	wordpools/wordpool_categorized_EN.txt	BASS	Instruments	5	6	[0, 0, 0]	n/a	catFR1	0	R1230J
1483.09	0.917	1346283	WORD_OFF	n/a	n/a	BASS	n/a	5	6	[0, 0, 0]	n/a	catFR1	0	R1230J
1484.007	1.617	1347200	WORD	n/a	wordpools/wordpool_categorized_EN.txt	VIOLIN	Instruments	6	6	[0, 0, 0]	n/a	catFR1	0	R1230J
1485.624	0.8	1348817	WORD_OFF	n/a	n/a	VIOLIN	n/a	6	6	[0, 0, 0]	n/a	catFR1	0	R1230J
1486.424	1.616	1349617	WORD	n/a	wordpools/wordpool_categorized_EN.txt	SPATULA	KitchenTools	7	6	[0, 0, 0]	n/a	catFR1	0	R1230J
1488.04	0.867	1351233	WORD_OFF	n/a	n/a	SPATULA	n/a	7	6	[0, 0, 0]	n/a	catFR1	0	R1230J
1488.907	1.618	1352100	WORD	n/a	wordpools/wordpool_categorized_EN.txt	KNIFE	KitchenTools	8	6	[0, 0, 0]	n/a	catFR1	0	R1230J
1490.525	1.0	1353718	WORD_OFF	n/a	n/a	KNIFE	n/a	8	6	[0, 0, 0]	n/a	catFR1	0	R1230J
1491.525	1.616	1354718	WORD	n/a	wordpools/wordpool_categorized_EN.txt	PUDDING	Desserts	9	6	[0, 0, 0]	n/a	catFR1	0	R1230J
1493.141	0.984	1356334	WORD_OFF	n/a	n/a	PUDDING	n/a	9	6	[0, 0, 0]	n/a	catFR1	0	R1230J
1494.125	1.616	1357318	WORD	n/a	wordpools/wordpool_categorized_EN.txt	BROWNIES	Desserts	10	6	[0, 0, 0]	n/a	catFR1	0	R1230J
1495.741	0.885	1358934	WORD_OFF	n/a	n/a	BROWNIES	n/a	10	6	[0, 0, 0]	n/a	catFR1	0	R1230J
1496.626	1.617	1359819	WORD	n/a	wordpools/wordpool_categorized_EN.txt	FLUTE	Instruments	11	6	[0, 0, 0]	n/a	catFR1	0	R1230J
1498.243	1.016	1361436	WORD_OFF	n/a	n/a	FLUTE	n/a	11	6	[0, 0, 0]	n/a	catFR1	0	R1230J
1499.259	1.616	1362452	WORD	n/a	wordpools/wordpool_categorized_EN.txt	TROMBONE	Instruments	12	6	[0, 0, 0]	n/a	catFR1	0	R1230J
1500.875	0.001	1364068	WORD_OFF	n/a	n/a	TROMBONE	n/a	12	6	[0, 0, 0]	n/a	catFR1	0	R1230J
1500.876	0.127	1364069	ENCODING_END	n/a	n/a	n/a	n/a	-999	6	[0, 0, 0]	n/a	catFR1	0	R1230J
1501.003	0.0	1364196	DISTRACT_START	n/a	n/a	n/a	n/a	-999	6	[0, 0, 0]	n/a	catFR1	0	R1230J
1501.003	0.022	1364196	START	n/a	n/a	n/a	n/a	-999	6	[-999, -999, -999]	n/a	catFR1	0	R1230J
1501.025	3.017	1364218	PROB	2.991	n/a	n/a	n/a	-999	6	[3, 1, 9]	13.0	catFR1	0	R1230J
1504.042	2.352	1367235	PROB	2.318	n/a	n/a	n/a	-999	6	[1, 1, 3]	5.0	catFR1	0	R1230J
1506.394	2.599	1369587	PROB	2.573	n/a	n/a	n/a	-999	6	[6, 9, 1]	16.0	catFR1	0	R1230J
1508.993	2.9	1372186	PROB	2.871	n/a	n/a	n/a	-999	6	[8, 1, 9]	18.0	catFR1	0	R1230J
1511.893	2.884	1375086	PROB	2.858	n/a	n/a	n/a	-999	6	[3, 3, 4]	10.0	catFR1	0	R1230J
1514.777	2.685	1377970	PROB	2.647	n/a	n/a	n/a	-999	6	[4, 2, 4]	10.0	catFR1	0	R1230J
1517.462	2.749	1380655	PROB	2.721	n/a	n/a	n/a	-999	6	[9, 3, 8]	20.0	catFR1	0	R1230J
1520.211	3.429	1383404	PROB	3.429	n/a	n/a	n/a	-999	6	[8, 7, 7]	22.0	catFR1	0	R1230J
1523.64	0.022	1386833	STOP	n/a	n/a	n/a	n/a	-999	6	[-999, -999, -999]	n/a	catFR1	0	R1230J
1523.662	0.516	1386855	DISTRACT_END	n/a	n/a	n/a	n/a	-999	6	[0, 0, 0]	n/a	catFR1	0	R1230J
1524.178	0.518	1387371	RETRIEVAL_ORIENT	n/a	n/a	n/a	n/a	-999	6	[0, 0, 0]	n/a	catFR1	0	R1230J
1524.696	4.044	1387889	REC_START	n/a	n/a	n/a	n/a	-999	6	[0, 0, 0]	n/a	catFR1	0	R1230J
1528.74	0.431	1391933	REC_WORD_VV	4.044	n/a	<>	n/a	-999	6	[0, 0, 0]	n/a	catFR1	0	R1230J
1529.171	3.324	1392364	REC_WORD	4.475	n/a	FLUTE	Instruments	11	6	[0, 0, 0]	n/a	catFR1	0	R1230J
1532.495	11.235	1395688	REC_WORD_VV	7.799	n/a	<>	n/a	-999	6	[0, 0, 0]	n/a	catFR1	0	R1230J
1543.73	1.0	1406923	REC_WORD_VV	19.034	n/a	<>	n/a	-999	6	[0, 0, 0]	n/a	catFR1	0	R1230J
1544.73	0.556	1407923	REC_WORD_VV	20.034	n/a	<>	n/a	-999	6	[0, 0, 0]	n/a	catFR1	0	R1230J
1545.286	5.474	1408479	REC_WORD	20.59	n/a	MONKEY	n/a	-999	6	[0, 0, 0]	n/a	catFR1	0	R1230J
1550.76	3.946	1413953	REC_WORD_VV	26.064	n/a	<>	n/a	-999	6	[0, 0, 0]	n/a	catFR1	0	R1230J
1554.706	10.011	1417899	REC_END	n/a	n/a	n/a	n/a	-999	6	[0, 0, 0]	n/a	catFR1	0	R1230J
1564.717	0.5	1427910	TRIAL	n/a	n/a	n/a	n/a	-999	7	[0, 0, 0]	n/a	catFR1	0	R1230J
1565.217	10.428	1428410	COUNTDOWN_START	n/a	n/a	n/a	n/a	-999	7	[0, 0, 0]	n/a	catFR1	0	R1230J
1575.645	0.006	1438838	COUNTDOWN_END	n/a	n/a	n/a	n/a	-999	7	[0, 0, 0]	n/a	catFR1	0	R1230J
1575.651	1.618	1438844	ORIENT	n/a	n/a	n/a	n/a	-999	7	[0, 0, 0]	n/a	catFR1	0	R1230J
1577.269	2.101	1440462	ORIENT_OFF	n/a	n/a	n/a	n/a	-999	7	[0, 0, 0]	n/a	catFR1	0	R1230J
1579.37	1.616	1442563	WORD	n/a	wordpools/wordpool_categorized_EN.txt	PEAS	Vegetables	1	7	[0, 0, 0]	n/a	catFR1	0	R1230J
1580.986	0.933	1444179	WORD_OFF	n/a	n/a	PEAS	n/a	1	7	[0, 0, 0]	n/a	catFR1	0	R1230J
1581.919	1.618	1445112	WORD	n/a	wordpools/wordpool_categorized_EN.txt	CAULIFLOWER	Vegetables	2	7	[0, 0, 0]	n/a	catFR1	0	R1230J
1583.537	0.884	1446730	WORD_OFF	n/a	n/a	CAULIFLOWER	n/a	2	7	[0, 0, 0]	n/a	catFR1	0	R1230J
1584.421	1.615	1447614	WORD	n/a	wordpools/wordpool_categorized_EN.txt	TABLET	Electronics	3	7	[0, 0, 0]	n/a	catFR1	0	R1230J
1586.036	0.917	1449229	WORD_OFF	n/a	n/a	TABLET	n/a	3	7	[0, 0, 0]	n/a	catFR1	0	R1230J
1586.953	1.618	1450146	WORD	n/a	wordpools/wordpool_categorized_EN.txt	HEADPHONES	Electronics	4	7	[0, 0, 0]	n/a	catFR1	0	R1230J
1588.571	0.883	1451764	WORD_OFF	n/a	n/a	HEADPHONES	n/a	4	7	[0, 0, 0]	n/a	catFR1	0	R1230J
1589.454	1.616	1452647	WORD	n/a	wordpools/wordpool_categorized_EN.txt	SHEEP	FarmAnimals	5	7	[0, 0, 0]	n/a	catFR1	0	R1230J
1591.07	0.8	1454263	WORD_OFF	n/a	n/a	SHEEP	n/a	5	7	[0, 0, 0]	n/a	catFR1	0	R1230J
1591.87	1.618	1455063	WORD	n/a	wordpools/wordpool_categorized_EN.txt	ROOSTER	FarmAnimals	6	7	[0, 0, 0]	n/a	catFR1	0	R1230J
1593.488	0.817	1456681	WORD_OFF	n/a	n/a	ROOSTER	n/a	6	7	[0, 0, 0]	n/a	catFR1	0	R1230J
1594.305	1.616	1457498	WORD	n/a	wordpools/wordpool_categorized_EN.txt	PRINTER	Electronics	7	7	[0, 0, 0]	n/a	catFR1	0	R1230J
1595.921	0.883	1459114	WORD_OFF	n/a	n/a	PRINTER	n/a	7	7	[0, 0, 0]	n/a	catFR1	0	R1230J
1596.804	1.618	1459997	WORD	n/a	wordpools/wordpool_categorized_EN.txt	COMPUTER	Electronics	8	7	[0, 0, 0]	n/a	catFR1	0	R1230J
1598.422	0.783	1461615	WORD_OFF	n/a	n/a	COMPUTER	n/a	8	7	[0, 0, 0]	n/a	catFR1	0	R1230J
1599.205	1.617	1462398	WORD	n/a	wordpools/wordpool_categorized_EN.txt	CORN	Vegetables	9	7	[0, 0, 0]	n/a	catFR1	0	R1230J
1600.822	0.784	1464015	WORD_OFF	n/a	n/a	CORN	n/a	9	7	[0, 0, 0]	n/a	catFR1	0	R1230J
1601.606	1.617	1464799	WORD	n/a	wordpools/wordpool_categorized_EN.txt	CARROT	Vegetables	10	7	[0, 0, 0]	n/a	catFR1	0	R1230J
1603.223	0.899	1466416	WORD_OFF	n/a	n/a	CARROT	n/a	10	7	[0, 0, 0]	n/a	catFR1	0	R1230J
1604.122	1.616	1467315	WORD	n/a	wordpools/wordpool_categorized_EN.txt	LAMB	FarmAnimals	11	7	[0, 0, 0]	n/a	catFR1	0	R1230J
1605.738	0.785	1468931	WORD_OFF	n/a	n/a	LAMB	n/a	11	7	[0, 0, 0]	n/a	catFR1	0	R1230J
1606.523	1.616	1469716	WORD	n/a	wordpools/wordpool_categorized_EN.txt	CALF	FarmAnimals	12	7	[0, 0, 0]	n/a	catFR1	0	R1230J
1608.139	0.0	1471332	ENCODING_END	n/a	n/a	n/a	n/a	-999	7	[0, 0, 0]	n/a	catFR1	0	R1230J
1608.139	0.129	1471332	WORD_OFF	n/a	n/a	CALF	n/a	12	7	[0, 0, 0]	n/a	catFR1	0	R1230J
1608.268	0.0	1471461	DISTRACT_START	n/a	n/a	n/a	n/a	-999	7	[0, 0, 0]	n/a	catFR1	0	R1230J
1608.268	0.022	1471461	START	n/a	n/a	n/a	n/a	-999	7	[-999, -999, -999]	n/a	catFR1	0	R1230J
1608.29	3.433	1471483	PROB	3.408	n/a	n/a	n/a	-999	7	[8, 8, 2]	18.0	catFR1	0	R1230J
1611.723	2.917	1474916	PROB	2.888	n/a	n/a	n/a	-999	7	[2, 3, 1]	6.0	catFR1	0	R1230J
1614.64	3.417	1477833	PROB	3.378	n/a	n/a	n/a	-999	7	[1, 2, 7]	10.0	catFR1	0	R1230J
1618.057	2.551	1481250	PROB	2.523	n/a	n/a	n/a	-999	7	[5, 1, 6]	11.0	catFR1	0	R1230J
1620.608	2.583	1483801	PROB	2.546	n/a	n/a	n/a	-999	7	[8, 1, 4]	12.0	catFR1	0	R1230J
1623.191	3.784	1486384	PROB	3.747	n/a	n/a	n/a	-999	7	[2, 8, 3]	13.0	catFR1	0	R1230J
1626.975	2.755	1490168	PROB	2.755	n/a	n/a	n/a	-999	7	[3, 2, 7]	12.0	catFR1	0	R1230J
1629.73	0.012	1492923	STOP	n/a	n/a	n/a	n/a	-999	7	[-999, -999, -999]	n/a	catFR1	0	R1230J
1629.742	0.534	1492935	DISTRACT_END	n/a	n/a	n/a	n/a	-999	7	[0, 0, 0]	n/a	catFR1	0	R1230J
1630.276	0.516	1493469	RETRIEVAL_ORIENT	n/a	n/a	n/a	n/a	-999	7	[0, 0, 0]	n/a	catFR1	0	R1230J
1630.792	0.877	1493985	REC_START	n/a	n/a	n/a	n/a	-999	7	[0, 0, 0]	n/a	catFR1	0	R1230J
1631.669	0.691	1494862	REC_WORD	0.877	n/a	PEAS	Vegetables	1	7	[0, 0, 0]	n/a	catFR1	0	R1230J
1632.36	1.041	1495553	REC_WORD	1.568	n/a	CAULIFLOWER	Vegetables	2	7	[0, 0, 0]	n/a	catFR1	0	R1230J
1633.401	2.22	1496594	REC_WORD	2.609	n/a	CARROT	Vegetables	10	7	[0, 0, 0]	n/a	catFR1	0	R1230J
1635.621	3.613	1498814	REC_WORD	4.829	n/a	CALF	FarmAnimals	12	7	[0, 0, 0]	n/a	catFR1	0	R1230J
1639.234	8.357	1502427	REC_WORD	8.442	n/a	SHEEP	FarmAnimals	5	7	[0, 0, 0]	n/a	catFR1	0	R1230J
1647.591	0.714	1510785	REC_WORD	16.799	n/a	CALENDAR	n/a	-999	7	[0, 0, 0]	n/a	catFR1	0	R1230J
1648.305	12.498	1511499	REC_WORD_VV	17.513	n/a	<>	n/a	-999	7	[0, 0, 0]	n/a	catFR1	0	R1230J
1660.803	5.093	1523997	REC_END	n/a	n/a	n/a	n/a	-999	7	[0, 0, 0]	n/a	catFR1	0	R1230J
1665.896	0.5	1529090	TRIAL	n/a	n/a	n/a	n/a	-999	8	[0, 0, 0]	n/a	catFR1	0	R1230J
1666.396	10.428	1529590	COUNTDOWN_START	n/a	n/a	n/a	n/a	-999	8	[0, 0, 0]	n/a	catFR1	0	R1230J
1676.824	0.007	1540018	COUNTDOWN_END	n/a	n/a	n/a	n/a	-999	8	[0, 0, 0]	n/a	catFR1	0	R1230J
1676.831	1.618	1540025	ORIENT	n/a	n/a	n/a	n/a	-999	8	[0, 0, 0]	n/a	catFR1	0	R1230J
1678.449	2.067	1541643	ORIENT_OFF	n/a	n/a	n/a	n/a	-999	8	[0, 0, 0]	n/a	catFR1	0	R1230J
1680.516	1.616	1543710	WORD	n/a	wordpools/wordpool_categorized_EN.txt	FINGERS	BodyParts	1	8	[0, 0, 0]	n/a	catFR1	0	R1230J
1682.132	0.85	1545326	WORD_OFF	n/a	n/a	FINGERS	n/a	1	8	[0, 0, 0]	n/a	catFR1	0	R1230J
1682.982	1.601	1546176	WORD	n/a	wordpools/wordpool_categorized_EN.txt	LEG	BodyParts	2	8	[0, 0, 0]	n/a	catFR1	0	R1230J
1684.583	0.9	1547777	WORD_OFF	n/a	n/a	LEG	n/a	2	8	[0, 0, 0]	n/a	catFR1	0	R1230J
1685.483	1.616	1548677	WORD	n/a	wordpools/wordpool_categorized_EN.txt	PEAR	Fruit	3	8	[0, 0, 0]	n/a	catFR1	0	R1230J
1687.099	0.867	1550293	WORD_OFF	n/a	n/a	PEAR	n/a	3	8	[0, 0, 0]	n/a	catFR1	0	R1230J
1687.966	1.618	1551160	WORD	n/a	wordpools/wordpool_categorized_EN.txt	STRAWBERRY	Fruit	4	8	[0, 0, 0]	n/a	catFR1	0	R1230J
1689.584	0.783	1552778	WORD_OFF	n/a	n/a	STRAWBERRY	n/a	4	8	[0, 0, 0]	n/a	catFR1	0	R1230J
1690.367	1.616	1553561	WORD	n/a	wordpools/wordpool_categorized_EN.txt	PIG	FarmAnimals	5	8	[0, 0, 0]	n/a	catFR1	0	R1230J
1691.983	0.767	1555177	WORD_OFF	n/a	n/a	PIG	n/a	5	8	[0, 0, 0]	n/a	catFR1	0	R1230J
1692.75	1.618	1555944	WORD	n/a	wordpools/wordpool_categorized_EN.txt	GOAT	FarmAnimals	6	8	[0, 0, 0]	n/a	catFR1	0	R1230J
1694.368	0.782	1557562	WORD_OFF	n/a	n/a	GOAT	n/a	6	8	[0, 0, 0]	n/a	catFR1	0	R1230J
1695.15	1.617	1558344	WORD	n/a	wordpools/wordpool_categorized_EN.txt	EAR	BodyParts	7	8	[0, 0, 0]	n/a	catFR1	0	R1230J
1696.767	0.883	1559961	WORD_OFF	n/a	n/a	EAR	n/a	7	8	[0, 0, 0]	n/a	catFR1	0	R1230J
1697.65	1.618	1560844	WORD	n/a	wordpools/wordpool_categorized_EN.txt	NOSE	BodyParts	8	8	[0, 0, 0]	n/a	catFR1	0	R1230J
1699.268	0.899	1562462	WORD_OFF	n/a	n/a	NOSE	n/a	8	8	[0, 0, 0]	n/a	catFR1	0	R1230J
1700.167	1.617	1563361	WORD	n/a	wordpools/wordpool_categorized_EN.txt	ORANGE	Fruit	9	8	[0, 0, 0]	n/a	catFR1	0	R1230J
1701.784	0.785	1564978	WORD_OFF	n/a	n/a	ORANGE	n/a	9	8	[0, 0, 0]	n/a	catFR1	0	R1230J
1702.569	1.616	1565763	WORD	n/a	wordpools/wordpool_categorized_EN.txt	GRAPE	Fruit	10	8	[0, 0, 0]	n/a	catFR1	0	R1230J
1704.185	0.9	1567379	WORD_OFF	n/a	n/a	GRAPE	n/a	10	8	[0, 0, 0]	n/a	catFR1	0	R1230J
1705.085	1.616	1568279	WORD	n/a	wordpools/wordpool_categorized_EN.txt	HEN	FarmAnimals	11	8	[0, 0, 0]	n/a	catFR1	0	R1230J
1706.701	0.984	1569895	WORD_OFF	n/a	n/a	HEN	n/a	11	8	[0, 0, 0]	n/a	catFR1	0	R1230J
1707.685	1.618	1570879	WORD	n/a	wordpools/wordpool_categorized_EN.txt	HORSE	FarmAnimals	12	8	[0, 0, 0]	n/a	catFR1	0	R1230J
1709.303	0.0	1572497	ENCODING_END	n/a	n/a	n/a	n/a	-999	8	[0, 0, 0]	n/a	catFR1	0	R1230J
1709.303	0.098	1572497	WORD_OFF	n/a	n/a	HORSE	n/a	12	8	[0, 0, 0]	n/a	catFR1	0	R1230J
1709.401	0.0	1572595	DISTRACT_START	n/a	n/a	n/a	n/a	-999	8	[0, 0, 0]	n/a	catFR1	0	R1230J
1709.401	0.019	1572595	START	n/a	n/a	n/a	n/a	-999	8	[-999, -999, -999]	n/a	catFR1	0	R1230J
1709.42	5.034	1572614	PROB	5.003	n/a	n/a	n/a	-999	8	[7, 1, 6]	14.0	catFR1	0	R1230J
1714.454	2.866	1577648	PROB	2.834	n/a	n/a	n/a	-999	8	[2, 9, 3]	14.0	catFR1	0	R1230J
1717.32	2.968	1580514	PROB	2.935	n/a	n/a	n/a	-999	8	[5, 4, 2]	14.0	catFR1	0	R1230J
1720.288	2.782	1583482	PROB	2.751	n/a	n/a	n/a	-999	8	[9, 9, 1]	19.0	catFR1	0	R1230J
1723.07	2.884	1586264	PROB	2.855	n/a	n/a	n/a	-999	8	[3, 7, 7]	17.0	catFR1	0	R1230J
1725.954	3.446	1589148	PROB	3.446	n/a	n/a	n/a	-999	8	[1, 1, 5]	7.0	catFR1	0	R1230J
1729.4	0.006	1592594	STOP	n/a	n/a	n/a	n/a	-999	8	[-999, -999, -999]	n/a	catFR1	0	R1230J
1729.406	0.565	1592600	DISTRACT_END	n/a	n/a	n/a	n/a	-999	8	[0, 0, 0]	n/a	catFR1	0	R1230J
1729.971	0.519	1593165	RETRIEVAL_ORIENT	n/a	n/a	n/a	n/a	-999	8	[0, 0, 0]	n/a	catFR1	0	R1230J
1730.49	2.472	1593684	REC_START	n/a	n/a	n/a	n/a	-999	8	[0, 0, 0]	n/a	catFR1	0	R1230J
1732.962	3.908	1596156	REC_WORD	2.472	n/a	PEAS	n/a	-999	8	[0, 0, 0]	n/a	catFR1	0	R1230J
1736.87	0.676	1600064	REC_WORD	6.38	n/a	EAR	BodyParts	7	8	[0, 0, 0]	n/a	catFR1	0	R1230J
1737.546	2.691	1600740	REC_WORD	7.056	n/a	NOSE	BodyParts	8	8	[0, 0, 0]	n/a	catFR1	0	R1230J
1740.237	3.576	1603431	REC_WORD	9.747	n/a	ORANGE	Fruit	9	8	[0, 0, 0]	n/a	catFR1	0	R1230J
1743.813	0.125	1607007	REC_WORD_VV	13.323	n/a	<>	n/a	-999	8	[0, 0, 0]	n/a	catFR1	0	R1230J
1743.938	1.086	1607132	REC_WORD	13.448	n/a	LEG	BodyParts	2	8	[0, 0, 0]	n/a	catFR1	0	R1230J
1745.024	0.768	1608218	REC_WORD_VV	14.534	n/a	<>	n/a	-999	8	[0, 0, 0]	n/a	catFR1	0	R1230J
1745.792	5.428	1608986	REC_WORD	15.302	n/a	PEAR	Fruit	3	8	[0, 0, 0]	n/a	catFR1	0	R1230J
1751.22	9.281	1614414	REC_WORD_VV	20.73	n/a	<>	n/a	-999	8	[0, 0, 0]	n/a	catFR1	0	R1230J
1760.501	4.342	1623695	REC_END	n/a	n/a	n/a	n/a	-999	8	[0, 0, 0]	n/a	catFR1	0	R1230J
1764.843	0.5	1628037	TRIAL	n/a	n/a	n/a	n/a	-999	9	[0, 0, 0]	n/a	catFR1	0	R1230J
1765.343	10.428	1628537	COUNTDOWN_START	n/a	n/a	n/a	n/a	-999	9	[0, 0, 0]	n/a	catFR1	0	R1230J
1775.771	0.006	1638965	COUNTDOWN_END	n/a	n/a	n/a	n/a	-999	9	[0, 0, 0]	n/a	catFR1	0	R1230J
1775.777	1.601	1638971	ORIENT	n/a	n/a	n/a	n/a	-999	9	[0, 0, 0]	n/a	catFR1	0	R1230J
1777.378	2.201	1640572	ORIENT_OFF	n/a	n/a	n/a	n/a	-999	9	[0, 0, 0]	n/a	catFR1	0	R1230J
1779.579	1.616	1642773	WORD	n/a	wordpools/wordpool_categorized_EN.txt	ELBOW	BodyParts	1	9	[0, 0, 0]	n/a	catFR1	0	R1230J
1781.195	0.933	1644389	WORD_OFF	n/a	n/a	ELBOW	n/a	1	9	[0, 0, 0]	n/a	catFR1	0	R1230J
1782.128	1.617	1645322	WORD	n/a	wordpools/wordpool_categorized_EN.txt	ARM	BodyParts	2	9	[0, 0, 0]	n/a	catFR1	0	R1230J
1783.745	0.967	1646939	WORD_OFF	n/a	n/a	ARM	n/a	2	9	[0, 0, 0]	n/a	catFR1	0	R1230J
1784.712	1.617	1647906	WORD	n/a	wordpools/wordpool_categorized_EN.txt	BINDER	OfficeSupplies	3	9	[0, 0, 0]	n/a	catFR1	0	R1230J
1786.329	0.883	1649523	WORD_OFF	n/a	n/a	BINDER	n/a	3	9	[0, 0, 0]	n/a	catFR1	0	R1230J
1787.212	1.617	1650406	WORD	n/a	wordpools/wordpool_categorized_EN.txt	FOLDER	OfficeSupplies	4	9	[0, 0, 0]	n/a	catFR1	0	R1230J
1788.829	0.967	1652023	WORD_OFF	n/a	n/a	FOLDER	n/a	4	9	[0, 0, 0]	n/a	catFR1	0	R1230J
1789.796	1.618	1652990	WORD	n/a	wordpools/wordpool_categorized_EN.txt	GUITAR	Instruments	5	9	[0, 0, 0]	n/a	catFR1	0	R1230J
1791.414	0.966	1654608	WORD_OFF	n/a	n/a	GUITAR	n/a	5	9	[0, 0, 0]	n/a	catFR1	0	R1230J
1792.38	1.616	1655574	WORD	n/a	wordpools/wordpool_categorized_EN.txt	CELLO	Instruments	6	9	[0, 0, 0]	n/a	catFR1	0	R1230J
1793.996	0.8	1657190	WORD_OFF	n/a	n/a	CELLO	n/a	6	9	[0, 0, 0]	n/a	catFR1	0	R1230J
1794.796	1.618	1657990	WORD	n/a	wordpools/wordpool_categorized_EN.txt	TOE	BodyParts	7	9	[0, 0, 0]	n/a	catFR1	0	R1230J
1796.414	0.9	1659608	WORD_OFF	n/a	n/a	TOE	n/a	7	9	[0, 0, 0]	n/a	catFR1	0	R1230J
1797.314	1.616	1660508	WORD	n/a	wordpools/wordpool_categorized_EN.txt	HEAD	BodyParts	8	9	[0, 0, 0]	n/a	catFR1	0	R1230J
1798.93	0.967	1662124	WORD_OFF	n/a	n/a	HEAD	n/a	8	9	[0, 0, 0]	n/a	catFR1	0	R1230J
1799.897	1.618	1663091	WORD	n/a	wordpools/wordpool_categorized_EN.txt	RULER	OfficeSupplies	9	9	[0, 0, 0]	n/a	catFR1	0	R1230J
1801.515	0.833	1664709	WORD_OFF	n/a	n/a	RULER	n/a	9	9	[0, 0, 0]	n/a	catFR1	0	R1230J
1802.348	1.616	1665542	WORD	n/a	wordpools/wordpool_categorized_EN.txt	PAPER	OfficeSupplies	10	9	[0, 0, 0]	n/a	catFR1	0	R1230J
1803.964	0.934	1667158	WORD_OFF	n/a	n/a	PAPER	n/a	10	9	[0, 0, 0]	n/a	catFR1	0	R1230J
1804.898	1.617	1668092	WORD	n/a	wordpools/wordpool_categorized_EN.txt	TUBA	Instruments	11	9	[0, 0, 0]	n/a	catFR1	0	R1230J
1806.515	0.884	1669709	WORD_OFF	n/a	n/a	TUBA	n/a	11	9	[0, 0, 0]	n/a	catFR1	0	R1230J
1807.399	1.616	1670593	WORD	n/a	wordpools/wordpool_categorized_EN.txt	BANJO	Instruments	12	9	[0, 0, 0]	n/a	catFR1	0	R1230J
1809.015	0.0	1672209	ENCODING_END	n/a	n/a	n/a	n/a	-999	9	[0, 0, 0]	n/a	catFR1	0	R1230J
1809.015	0.126	1672209	WORD_OFF	n/a	n/a	BANJO	n/a	12	9	[0, 0, 0]	n/a	catFR1	0	R1230J
1809.141	0.0	1672335	DISTRACT_START	n/a	n/a	n/a	n/a	-999	9	[0, 0, 0]	n/a	catFR1	0	R1230J
1809.141	0.007	1672335	START	n/a	n/a	n/a	n/a	-999	9	[-999, -999, -999]	n/a	catFR1	0	R1230J
1809.148	4.034	1672342	PROB	4.006	n/a	n/a	n/a	-999	9	[9, 5, 2]	16.0	catFR1	0	R1230J
1813.182	3.567	1676376	PROB	3.531	n/a	n/a	n/a	-999	9	[4, 3, 5]	12.0	catFR1	0	R1230J
1816.749	3.434	1679943	PROB	3.406	n/a	n/a	n/a	-999	9	[7, 2, 1]	10.0	catFR1	0	R1230J
1820.183	4.152	1683377	PROB	4.116	n/a	n/a	n/a	-999	9	[3, 4, 9]	16.0	catFR1	0	R1230J
1824.335	2.133	1687529	PROB	2.099	n/a	n/a	n/a	-999	9	[5, 5, 2]	12.0	catFR1	0	R1230J
1826.468	2.983	1689662	PROB	2.983	n/a	n/a	n/a	-999	9	[2, 8, 6]	16.0	catFR1	0	R1230J
1829.451	0.017	1692645	STOP	n/a	n/a	n/a	n/a	-999	9	[-999, -999, -999]	n/a	catFR1	0	R1230J
1829.468	0.516	1692662	DISTRACT_END	n/a	n/a	n/a	n/a	-999	9	[0, 0, 0]	n/a	catFR1	0	R1230J
1829.984	0.518	1693178	RETRIEVAL_ORIENT	n/a	n/a	n/a	n/a	-999	9	[0, 0, 0]	n/a	catFR1	0	R1230J
1830.502	1.063	1693696	REC_START	n/a	n/a	n/a	n/a	-999	9	[0, 0, 0]	n/a	catFR1	0	R1230J
1831.565	0.261	1694759	REC_WORD_VV	1.063	n/a	<>	n/a	-999	9	[0, 0, 0]	n/a	catFR1	0	R1230J
1831.826	0.417	1695020	REC_WORD	1.324	n/a	TOE	BodyParts	7	9	[0, 0, 0]	n/a	catFR1	0	R1230J
1832.243	0.197	1695437	REC_WORD_VV	1.741	n/a	<>	n/a	-999	9	[0, 0, 0]	n/a	catFR1	0	R1230J
1832.44	0.578	1695634	REC_WORD	1.938	n/a	HEAD	BodyParts	8	9	[0, 0, 0]	n/a	catFR1	0	R1230J
1833.018	0.151	1696212	REC_WORD_VV	2.516	n/a	<>	n/a	-999	9	[0, 0, 0]	n/a	catFR1	0	R1230J
1833.169	3.237	1696363	REC_WORD	2.667	n/a	CELLO	Instruments	6	9	[0, 0, 0]	n/a	catFR1	0	R1230J
1836.406	1.0	1699600	REC_WORD_VV	5.904	n/a	<>	n/a	-999	9	[0, 0, 0]	n/a	catFR1	0	R1230J
1837.406	1.0	1700600	REC_WORD_VV	6.904	n/a	<>	n/a	-999	9	[0, 0, 0]	n/a	catFR1	0	R1230J
1838.406	1.0	1701600	REC_WORD_VV	7.904	n/a	<>	n/a	-999	9	[0, 0, 0]	n/a	catFR1	0	R1230J
1839.406	1.015	1702600	REC_WORD_VV	8.904	n/a	<>	n/a	-999	9	[0, 0, 0]	n/a	catFR1	0	R1230J
1840.421	7.387	1703615	REC_WORD	9.919	n/a	ORANGE	n/a	-999	9	[0, 0, 0]	n/a	catFR1	0	R1230J
1847.808	10.755	1711002	REC_WORD	17.306	n/a	GUITAR	Instruments	5	9	[0, 0, 0]	n/a	catFR1	0	R1230J
1858.563	1.765	1721757	REC_WORD	28.061	n/a	ELBOW	BodyParts	1	9	[0, 0, 0]	n/a	catFR1	0	R1230J
1860.328	0.186	1723522	REC_WORD	29.826	n/a	ELBOW	BodyParts	1	9	[0, 0, 0]	n/a	catFR1	0	R1230J
1860.514	5.324	1723708	REC_END	n/a	n/a	n/a	n/a	-999	9	[0, 0, 0]	n/a	catFR1	0	R1230J
1865.838	0.5	1729032	TRIAL	n/a	n/a	n/a	n/a	-999	10	[0, 0, 0]	n/a	catFR1	0	R1230J
1866.338	10.428	1729532	COUNTDOWN_START	n/a	n/a	n/a	n/a	-999	10	[0, 0, 0]	n/a	catFR1	0	R1230J
1876.766	0.007	1739960	COUNTDOWN_END	n/a	n/a	n/a	n/a	-999	10	[0, 0, 0]	n/a	catFR1	0	R1230J
1876.773	1.618	1739967	ORIENT	n/a	n/a	n/a	n/a	-999	10	[0, 0, 0]	n/a	catFR1	0	R1230J
1878.391	1.85	1741585	ORIENT_OFF	n/a	n/a	n/a	n/a	-999	10	[0, 0, 0]	n/a	catFR1	0	R1230J
1880.241	1.616	1743435	WORD	n/a	wordpools/wordpool_categorized_EN.txt	ELM	Trees	1	10	[0, 0, 0]	n/a	catFR1	0	R1230J
1881.857	0.951	1745051	WORD_OFF	n/a	n/a	ELM	n/a	1	10	[0, 0, 0]	n/a	catFR1	0	R1230J
1882.808	1.618	1746002	WORD	n/a	wordpools/wordpool_categorized_EN.txt	BIRCH	Trees	2	10	[0, 0, 0]	n/a	catFR1	0	R1230J
1884.426	0.782	1747620	WORD_OFF	n/a	n/a	BIRCH	n/a	2	10	[0, 0, 0]	n/a	catFR1	0	R1230J
1885.208	1.617	1748402	WORD	n/a	wordpools/wordpool_categorized_EN.txt	OCEAN	Landscapes	3	10	[0, 0, 0]	n/a	catFR1	0	R1230J
1886.825	1.0	1750019	WORD_OFF	n/a	n/a	OCEAN	n/a	3	10	[0, 0, 0]	n/a	catFR1	0	R1230J
1887.825	1.618	1751019	WORD	n/a	wordpools/wordpool_categorized_EN.txt	MOUNTAIN	Landscapes	4	10	[0, 0, 0]	n/a	catFR1	0	R1230J
1889.443	0.883	1752637	WORD_OFF	n/a	n/a	MOUNTAIN	n/a	4	10	[0, 0, 0]	n/a	catFR1	0	R1230J
1890.326	1.616	1753520	WORD	n/a	wordpools/wordpool_categorized_EN.txt	SQUID	OceanAnimals	5	10	[0, 0, 0]	n/a	catFR1	0	R1230J
1891.942	0.784	1755136	WORD_OFF	n/a	n/a	SQUID	n/a	5	10	[0, 0, 0]	n/a	catFR1	0	R1230J
1892.726	1.617	1755920	WORD	n/a	wordpools/wordpool_categorized_EN.txt	TURTLE	OceanAnimals	6	10	[0, 0, 0]	n/a	catFR1	0	R1230J
1894.343	0.967	1757537	WORD_OFF	n/a	n/a	TURTLE	n/a	6	10	[0, 0, 0]	n/a	catFR1	0	R1230J
1895.31	1.616	1758504	WORD	n/a	wordpools/wordpool_categorized_EN.txt	EVERGREEN	Trees	7	10	[0, 0, 0]	n/a	catFR1	0	R1230J
1896.926	0.85	1760120	WORD_OFF	n/a	n/a	EVERGREEN	n/a	7	10	[0, 0, 0]	n/a	catFR1	0	R1230J
1897.776	1.618	1760970	WORD	n/a	wordpools/wordpool_categorized_EN.txt	PINE	Trees	8	10	[0, 0, 0]	n/a	catFR1	0	R1230J
1899.394	1.017	1762588	WORD_OFF	n/a	n/a	PINE	n/a	8	10	[0, 0, 0]	n/a	catFR1	0	R1230J
1900.411	1.616	1763605	WORD	n/a	wordpools/wordpool_categorized_EN.txt	CREEK	Landscapes	9	10	[0, 0, 0]	n/a	catFR1	0	R1230J
1902.027	0.883	1765221	WORD_OFF	n/a	n/a	CREEK	n/a	9	10	[0, 0, 0]	n/a	catFR1	0	R1230J
1902.91	1.618	1766104	WORD	n/a	wordpools/wordpool_categorized_EN.txt	WOODS	Landscapes	10	10	[0, 0, 0]	n/a	catFR1	0	R1230J
1904.528	0.833	1767722	WORD_OFF	n/a	n/a	WOODS	n/a	10	10	[0, 0, 0]	n/a	catFR1	0	R1230J
1905.361	1.616	1768555	WORD	n/a	wordpools/wordpool_categorized_EN.txt	SHRIMP	OceanAnimals	11	10	[0, 0, 0]	n/a	catFR1	0	R1230J
1906.977	0.917	1770171	WORD_OFF	n/a	n/a	SHRIMP	n/a	11	10	[0, 0, 0]	n/a	catFR1	0	R1230J
1907.894	1.618	1771088	WORD	n/a	wordpools/wordpool_categorized_EN.txt	WHALE	OceanAnimals	12	10	[0, 0, 0]	n/a	catFR1	0	R1230J
1909.512	0.0	1772706	WORD_OFF	n/a	n/a	WHALE	n/a	12	10	[0, 0, 0]	n/a	catFR1	0	R1230J
1909.512	0.098	1772706	ENCODING_END	n/a	n/a	n/a	n/a	-999	10	[0, 0, 0]	n/a	catFR1	0	R1230J
1909.61	0.0	1772804	DISTRACT_START	n/a	n/a	n/a	n/a	-999	10	[0, 0, 0]	n/a	catFR1	0	R1230J
1909.61	0.018	1772804	START	n/a	n/a	n/a	n/a	-999	10	[-999, -999, -999]	n/a	catFR1	0	R1230J
1909.628	3.801	1772822	PROB	3.763	n/a	n/a	n/a	-999	10	[9, 8, 2]	19.0	catFR1	0	R1230J
1913.429	4.45	1776623	PROB	4.424	n/a	n/a	n/a	-999	10	[9, 4, 7]	20.0	catFR1	0	R1230J
1917.879	2.333	1781073	PROB	2.302	n/a	n/a	n/a	-999	10	[3, 2, 6]	11.0	catFR1	0	R1230J
1920.212	4.085	1783406	PROB	4.06	n/a	n/a	n/a	-999	10	[9, 4, 8]	21.0	catFR1	0	R1230J
1924.297	3.034	1787491	PROB	2.998	n/a	n/a	n/a	-999	10	[1, 3, 9]	13.0	catFR1	0	R1230J
1927.331	3.299	1790525	PROB	3.299	n/a	n/a	n/a	-999	10	[9, 4, 9]	22.0	catFR1	0	R1230J
1930.63	0.017	1793824	STOP	n/a	n/a	n/a	n/a	-999	10	[-999, -999, -999]	n/a	catFR1	0	R1230J
1930.647	0.618	1793841	DISTRACT_END	n/a	n/a	n/a	n/a	-999	10	[0, 0, 0]	n/a	catFR1	0	R1230J
1931.265	0.516	1794459	RETRIEVAL_ORIENT	n/a	n/a	n/a	n/a	-999	10	[0, 0, 0]	n/a	catFR1	0	R1230J
1931.781	1.083	1794975	REC_START	n/a	n/a	n/a	n/a	-999	10	[0, 0, 0]	n/a	catFR1	0	R1230J
1932.864	0.135	1796058	REC_WORD_VV	1.083	n/a	<>	n/a	-999	10	[0, 0, 0]	n/a	catFR1	0	R1230J
1932.999	0.822	1796193	REC_WORD	1.218	n/a	ELM	Trees	1	10	[0, 0, 0]	n/a	catFR1	0	R1230J
1933.821	0.215	1797015	REC_WORD_VV	2.04	n/a	<>	n/a	-999	10	[0, 0, 0]	n/a	catFR1	0	R1230J
1934.036	2.808	1797230	REC_WORD	2.255	n/a	BIRCH	Trees	2	10	[0, 0, 0]	n/a	catFR1	0	R1230J
1936.844	2.719	1800038	REC_WORD_VV	5.063	n/a	<>	n/a	-999	10	[0, 0, 0]	n/a	catFR1	0	R1230J
1939.563	0.082	1802757	REC_WORD_VV	7.782	n/a	<>	n/a	-999	10	[0, 0, 0]	n/a	catFR1	0	R1230J
1939.645	2.942	1802839	REC_WORD	7.864	n/a	SHRIMP	OceanAnimals	11	10	[0, 0, 0]	n/a	catFR1	0	R1230J
1942.587	3.597	1805781	REC_WORD	10.806	n/a	EVERGREEN	Trees	7	10	[0, 0, 0]	n/a	catFR1	0	R1230J
1946.184	13.282	1809378	REC_WORD	14.403	n/a	TURTLE	OceanAnimals	6	10	[0, 0, 0]	n/a	catFR1	0	R1230J
1959.466	2.323	1822660	REC_WORD	27.685	n/a	OAK	n/a	-999	10	[0, 0, 0]	n/a	catFR1	0	R1230J
1961.789	4.329	1824983	REC_END	n/a	n/a	n/a	n/a	-999	10	[0, 0, 0]	n/a	catFR1	0	R1230J
1966.118	0.5	1829312	TRIAL	n/a	n/a	n/a	n/a	-999	11	[0, 0, 0]	n/a	catFR1	0	R1230J
1966.618	10.428	1829812	COUNTDOWN_START	n/a	n/a	n/a	n/a	-999	11	[0, 0, 0]	n/a	catFR1	0	R1230J
1977.046	0.007	1840240	COUNTDOWN_END	n/a	n/a	n/a	n/a	-999	11	[0, 0, 0]	n/a	catFR1	0	R1230J
1977.053	1.617	1840247	ORIENT	n/a	n/a	n/a	n/a	-999	11	[0, 0, 0]	n/a	catFR1	0	R1230J
1978.67	2.083	1841864	ORIENT_OFF	n/a	n/a	n/a	n/a	-999	11	[0, 0, 0]	n/a	catFR1	0	R1230J
1980.753	1.618	1843947	WORD	n/a	wordpools/wordpool_categorized_EN.txt	CHEETAH	Zoo	1	11	[0, 0, 0]	n/a	catFR1	0	R1230J
1982.371	0.833	1845565	WORD_OFF	n/a	n/a	CHEETAH	n/a	1	11	[0, 0, 0]	n/a	catFR1	0	R1230J
1983.204	1.617	1846398	WORD	n/a	wordpools/wordpool_categorized_EN.txt	TIGER	Zoo	2	11	[0, 0, 0]	n/a	catFR1	0	R1230J
1984.821	0.8	1848015	WORD_OFF	n/a	n/a	TIGER	n/a	2	11	[0, 0, 0]	n/a	catFR1	0	R1230J
1985.621	1.601	1848815	WORD	n/a	wordpools/wordpool_categorized_EN.txt	CELERY	Vegetables	3	11	[0, 0, 0]	n/a	catFR1	0	R1230J
1987.222	0.949	1850416	WORD_OFF	n/a	n/a	CELERY	n/a	3	11	[0, 0, 0]	n/a	catFR1	0	R1230J
1988.171	1.617	1851365	WORD	n/a	wordpools/wordpool_categorized_EN.txt	LETTUCE	Vegetables	4	11	[0, 0, 0]	n/a	catFR1	0	R1230J
1989.788	0.834	1852982	WORD_OFF	n/a	n/a	LETTUCE	n/a	4	11	[0, 0, 0]	n/a	catFR1	0	R1230J
1990.622	1.617	1853816	WORD	n/a	wordpools/wordpool_categorized_EN.txt	VIOLET	Flowers	5	11	[0, 0, 0]	n/a	catFR1	0	R1230J
1992.239	0.832	1855433	WORD_OFF	n/a	n/a	VIOLET	n/a	5	11	[0, 0, 0]	n/a	catFR1	0	R1230J
1993.071	1.618	1856265	WORD	n/a	wordpools/wordpool_categorized_EN.txt	MARIGOLD	Flowers	6	11	[0, 0, 0]	n/a	catFR1	0	R1230J
1994.689	0.8	1857883	WORD_OFF	n/a	n/a	MARIGOLD	n/a	6	11	[0, 0, 0]	n/a	catFR1	0	R1230J
1995.489	1.616	1858683	WORD	n/a	wordpools/wordpool_categorized_EN.txt	ORANGUTAN	Zoo	7	11	[0, 0, 0]	n/a	catFR1	0	R1230J
1997.105	0.801	1860299	WORD_OFF	n/a	n/a	ORANGUTAN	n/a	7	11	[0, 0, 0]	n/a	catFR1	0	R1230J
1997.906	1.617	1861100	WORD	n/a	wordpools/wordpool_categorized_EN.txt	GORILLA	Zoo	8	11	[0, 0, 0]	n/a	catFR1	0	R1230J
1999.523	0.951	1862717	WORD_OFF	n/a	n/a	GORILLA	n/a	8	11	[0, 0, 0]	n/a	catFR1	0	R1230J
2000.474	1.615	1863668	WORD	n/a	wordpools/wordpool_categorized_EN.txt	BROCCOLI	Vegetables	9	11	[0, 0, 0]	n/a	catFR1	0	R1230J
2002.089	0.967	1865283	WORD_OFF	n/a	n/a	BROCCOLI	n/a	9	11	[0, 0, 0]	n/a	catFR1	0	R1230J
2003.056	1.617	1866250	WORD	n/a	wordpools/wordpool_categorized_EN.txt	CABBAGE	Vegetables	10	11	[0, 0, 0]	n/a	catFR1	0	R1230J
2004.673	0.951	1867867	WORD_OFF	n/a	n/a	CABBAGE	n/a	10	11	[0, 0, 0]	n/a	catFR1	0	R1230J
2005.624	1.617	1868818	WORD	n/a	wordpools/wordpool_categorized_EN.txt	ORCHID	Flowers	11	11	[0, 0, 0]	n/a	catFR1	0	R1230J
2007.241	0.966	1870435	WORD_OFF	n/a	n/a	ORCHID	n/a	11	11	[0, 0, 0]	n/a	catFR1	0	R1230J
2008.207	1.617	1871401	WORD	n/a	wordpools/wordpool_categorized_EN.txt	PETUNIA	Flowers	12	11	[0, 0, 0]	n/a	catFR1	0	R1230J
2009.824	0.0	1873018	WORD_OFF	n/a	n/a	PETUNIA	n/a	12	11	[0, 0, 0]	n/a	catFR1	0	R1230J
2009.824	0.097	1873018	ENCODING_END	n/a	n/a	n/a	n/a	-999	11	[0, 0, 0]	n/a	catFR1	0	R1230J
2009.921	0.0	1873115	DISTRACT_START	n/a	n/a	n/a	n/a	-999	11	[0, 0, 0]	n/a	catFR1	0	R1230J
2009.921	0.019	1873115	START	n/a	n/a	n/a	n/a	-999	11	[-999, -999, -999]	n/a	catFR1	0	R1230J
2009.94	3.369	1873134	PROB	3.343	n/a	n/a	n/a	-999	11	[7, 2, 8]	17.0	catFR1	0	R1230J
2013.309	2.233	1876503	PROB	2.199	n/a	n/a	n/a	-999	11	[8, 2, 5]	15.0	catFR1	0	R1230J
2015.542	2.934	1878736	PROB	2.901	n/a	n/a	n/a	-999	11	[6, 8, 1]	15.0	catFR1	0	R1230J
2018.476	2.282	1881670	PROB	2.255	n/a	n/a	n/a	-999	11	[4, 6, 9]	19.0	catFR1	0	R1230J
2020.758	2.502	1883952	PROB	2.476	n/a	n/a	n/a	-999	11	[7, 5, 4]	16.0	catFR1	0	R1230J
2023.26	4.549	1886454	PROB	4.517	n/a	n/a	n/a	-999	11	[6, 8, 4]	14.0	catFR1	0	R1230J
2027.809	2.698	1891003	PROB	2.698	n/a	n/a	n/a	-999	11	[4, 5, 3]	12.0	catFR1	0	R1230J
2030.507	0.021	1893701	STOP	n/a	n/a	n/a	n/a	-999	11	[-999, -999, -999]	n/a	catFR1	0	R1230J
2030.528	0.565	1893722	DISTRACT_END	n/a	n/a	n/a	n/a	-999	11	[0, 0, 0]	n/a	catFR1	0	R1230J
2031.093	0.518	1894287	RETRIEVAL_ORIENT	n/a	n/a	n/a	n/a	-999	11	[0, 0, 0]	n/a	catFR1	0	R1230J
2031.611	0.704	1894805	REC_START	n/a	n/a	n/a	n/a	-999	11	[0, 0, 0]	n/a	catFR1	0	R1230J
2032.315	0.261	1895509	REC_WORD_VV	0.704	n/a	<>	n/a	-999	11	[0, 0, 0]	n/a	catFR1	0	R1230J
2032.576	1.162	1895770	REC_WORD	0.965	n/a	CHEETAH	Zoo	1	11	[0, 0, 0]	n/a	catFR1	0	R1230J
2033.738	3.468	1896932	REC_WORD	2.127	n/a	LEOPARD	n/a	-999	11	[0, 0, 0]	n/a	catFR1	0	R1230J
2037.206	0.526	1900400	REC_WORD_VV	5.595	n/a	<>	n/a	-999	11	[0, 0, 0]	n/a	catFR1	0	R1230J
2037.732	2.09	1900926	REC_WORD	6.121	n/a	ORANGUTAN	Zoo	7	11	[0, 0, 0]	n/a	catFR1	0	R1230J
2039.822	1.479	1903016	REC_WORD	8.211	n/a	TULIP	n/a	-999	11	[0, 0, 0]	n/a	catFR1	0	R1230J
2041.301	1.832	1904495	REC_WORD	9.69	n/a	ORCHID	Flowers	11	11	[0, 0, 0]	n/a	catFR1	0	R1230J
2043.133	1.843	1906327	REC_WORD	11.522	n/a	CELERY	Vegetables	3	11	[0, 0, 0]	n/a	catFR1	0	R1230J
2044.976	0.837	1908170	REC_WORD	13.365	n/a	CARROT	n/a	-999	11	[0, 0, 0]	n/a	catFR1	0	R1230J
2045.813	4.521	1909007	REC_WORD	14.202	n/a	CABBAGE	Vegetables	10	11	[0, 0, 0]	n/a	catFR1	0	R1230J
2050.334	2.96	1913528	REC_WORD_VV	18.723	n/a	<>	n/a	-999	11	[0, 0, 0]	n/a	catFR1	0	R1230J
2053.294	1.037	1916488	REC_WORD_VV	21.683	n/a	<>	n/a	-999	11	[0, 0, 0]	n/a	catFR1	0	R1230J
2054.331	5.936	1917525	REC_WORD_VV	22.72	n/a	<>	n/a	-999	11	[0, 0, 0]	n/a	catFR1	0	R1230J
2060.267	1.355	1923461	REC_WORD_VV	28.656	n/a	<>	n/a	-999	11	[0, 0, 0]	n/a	catFR1	0	R1230J
2061.622	4.776	1924816	REC_END	n/a	n/a	n/a	n/a	-999	11	[0, 0, 0]	n/a	catFR1	0	R1230J
2066.398	0.5	1929592	TRIAL	n/a	n/a	n/a	n/a	-999	12	[0, 0, 0]	n/a	catFR1	0	R1230J
2066.898	10.428	1930092	COUNTDOWN_START	n/a	n/a	n/a	n/a	-999	12	[0, 0, 0]	n/a	catFR1	0	R1230J
2077.326	0.007	1940520	COUNTDOWN_END	n/a	n/a	n/a	n/a	-999	12	[0, 0, 0]	n/a	catFR1	0	R1230J
2077.333	1.616	1940527	ORIENT	n/a	n/a	n/a	n/a	-999	12	[0, 0, 0]	n/a	catFR1	0	R1230J
2078.949	2.05	1942143	ORIENT_OFF	n/a	n/a	n/a	n/a	-999	12	[0, 0, 0]	n/a	catFR1	0	R1230J
2080.999	1.619	1944193	WORD	n/a	wordpools/wordpool_categorized_EN.txt	CEDAR	Trees	1	12	[0, 0, 0]	n/a	catFR1	0	R1230J
2082.618	1.0	1945812	WORD_OFF	n/a	n/a	CEDAR	n/a	1	12	[0, 0, 0]	n/a	catFR1	0	R1230J
2083.618	1.616	1946812	WORD	n/a	wordpools/wordpool_categorized_EN.txt	WILLOW	Trees	2	12	[0, 0, 0]	n/a	catFR1	0	R1230J
2085.234	0.833	1948429	WORD_OFF	n/a	n/a	WILLOW	n/a	2	12	[0, 0, 0]	n/a	catFR1	0	R1230J
2086.067	1.617	1949262	WORD	n/a	wordpools/wordpool_categorized_EN.txt	FRISBEE	Toys	3	12	[0, 0, 0]	n/a	catFR1	0	R1230J
2087.684	0.983	1950879	WORD_OFF	n/a	n/a	FRISBEE	n/a	3	12	[0, 0, 0]	n/a	catFR1	0	R1230J
2088.667	1.618	1951862	WORD	n/a	wordpools/wordpool_categorized_EN.txt	MARBLES	Toys	4	12	[0, 0, 0]	n/a	catFR1	0	R1230J
2090.285	0.783	1953480	WORD_OFF	n/a	n/a	MARBLES	n/a	4	12	[0, 0, 0]	n/a	catFR1	0	R1230J
2091.068	1.616	1954263	WORD	n/a	wordpools/wordpool_categorized_EN.txt	LADLE	KitchenTools	5	12	[0, 0, 0]	n/a	catFR1	0	R1230J
2092.684	0.902	1955879	WORD_OFF	n/a	n/a	LADLE	n/a	5	12	[0, 0, 0]	n/a	catFR1	0	R1230J
2093.586	1.615	1956781	WORD	n/a	wordpools/wordpool_categorized_EN.txt	CORKSCREW	KitchenTools	6	12	[0, 0, 0]	n/a	catFR1	0	R1230J
2095.201	0.917	1958396	WORD_OFF	n/a	n/a	CORKSCREW	n/a	6	12	[0, 0, 0]	n/a	catFR1	0	R1230J
2096.118	1.617	1959313	WORD	n/a	wordpools/wordpool_categorized_EN.txt	HICKORY	Trees	7	12	[0, 0, 0]	n/a	catFR1	0	R1230J
2097.735	0.901	1960930	WORD_OFF	n/a	n/a	HICKORY	n/a	7	12	[0, 0, 0]	n/a	catFR1	0	R1230J
2098.636	1.617	1961831	WORD	n/a	wordpools/wordpool_categorized_EN.txt	WALNUT	Trees	8	12	[0, 0, 0]	n/a	catFR1	0	R1230J
2100.253	0.916	1963448	WORD_OFF	n/a	n/a	WALNUT	n/a	8	12	[0, 0, 0]	n/a	catFR1	0	R1230J
2101.169	1.617	1964364	WORD	n/a	wordpools/wordpool_categorized_EN.txt	DOLLHOUSE	Toys	9	12	[0, 0, 0]	n/a	catFR1	0	R1230J
2102.786	1.017	1965981	WORD_OFF	n/a	n/a	DOLLHOUSE	n/a	9	12	[0, 0, 0]	n/a	catFR1	0	R1230J
2103.803	1.617	1966998	WORD	n/a	wordpools/wordpool_categorized_EN.txt	BASKETBALL	Toys	10	12	[0, 0, 0]	n/a	catFR1	0	R1230J
2105.42	0.95	1968615	WORD_OFF	n/a	n/a	BASKETBALL	n/a	10	12	[0, 0, 0]	n/a	catFR1	0	R1230J
2106.37	1.616	1969565	WORD	n/a	wordpools/wordpool_categorized_EN.txt	WHISK	KitchenTools	11	12	[0, 0, 0]	n/a	catFR1	0	R1230J
2107.986	0.8	1971181	WORD_OFF	n/a	n/a	WHISK	n/a	11	12	[0, 0, 0]	n/a	catFR1	0	R1230J
2108.786	1.618	1971981	WORD	n/a	wordpools/wordpool_categorized_EN.txt	PEELER	KitchenTools	12	12	[0, 0, 0]	n/a	catFR1	0	R1230J
2110.404	0.001	1973599	WORD_OFF	n/a	n/a	PEELER	n/a	12	12	[0, 0, 0]	n/a	catFR1	0	R1230J
2110.405	0.135	1973600	ENCODING_END	n/a	n/a	n/a	n/a	-999	12	[0, 0, 0]	n/a	catFR1	0	R1230J
2110.54	0.0	1973735	DISTRACT_START	n/a	n/a	n/a	n/a	-999	12	[0, 0, 0]	n/a	catFR1	0	R1230J
2110.54	0.014	1973735	START	n/a	n/a	n/a	n/a	-999	12	[-999, -999, -999]	n/a	catFR1	0	R1230J
2110.554	3.25	1973749	PROB	3.212	n/a	n/a	n/a	-999	12	[7, 2, 8]	17.0	catFR1	0	R1230J
2113.804	4.117	1976999	PROB	4.09	n/a	n/a	n/a	-999	12	[3, 5, 2]	10.0	catFR1	0	R1230J
2117.921	2.967	1981116	PROB	2.932	n/a	n/a	n/a	-999	12	[3, 6, 7]	16.0	catFR1	0	R1230J
2120.888	3.284	1984083	PROB	3.246	n/a	n/a	n/a	-999	12	[2, 5, 9]	16.0	catFR1	0	R1230J
2124.172	2.817	1987367	PROB	2.778	n/a	n/a	n/a	-999	12	[9, 2, 8]	19.0	catFR1	0	R1230J
2126.989	3.65	1990184	PROB	3.65	n/a	n/a	n/a	-999	12	[9, 7, 7]	13.0	catFR1	0	R1230J
2130.639	0.017	1993834	STOP	n/a	n/a	n/a	n/a	-999	12	[-999, -999, -999]	n/a	catFR1	0	R1230J
2130.656	0.701	1993851	DISTRACT_END	n/a	n/a	n/a	n/a	-999	12	[0, 0, 0]	n/a	catFR1	0	R1230J
2131.357	0.516	1994552	RETRIEVAL_ORIENT	n/a	n/a	n/a	n/a	-999	12	[0, 0, 0]	n/a	catFR1	0	R1230J
2131.873	1.804	1995068	REC_START	n/a	n/a	n/a	n/a	-999	12	[0, 0, 0]	n/a	catFR1	0	R1230J
2133.677	0.245	1996872	REC_WORD_VV	1.804	n/a	<>	n/a	-999	12	[0, 0, 0]	n/a	catFR1	0	R1230J
2133.922	4.012	1997117	REC_WORD	2.049	n/a	CEDAR	Trees	1	12	[0, 0, 0]	n/a	catFR1	0	R1230J
2137.934	1.0	2001129	REC_WORD_VV	6.061	n/a	<>	n/a	-999	12	[0, 0, 0]	n/a	catFR1	0	R1230J
2138.934	11.396	2002129	REC_WORD_VV	7.061	n/a	<>	n/a	-999	12	[0, 0, 0]	n/a	catFR1	0	R1230J
2150.33	1.245	2013525	REC_WORD	18.457	n/a	HAMMER	n/a	-999	12	[0, 0, 0]	n/a	catFR1	0	R1230J
2151.575	9.938	2014770	REC_WORD_VV	19.702	n/a	<>	n/a	-999	12	[0, 0, 0]	n/a	catFR1	0	R1230J
2161.513	0.371	2024708	REC_WORD	29.64	n/a	ORANGE	n/a	-999	12	[0, 0, 0]	n/a	catFR1	0	R1230J
2161.884	4.611	2025079	REC_END	n/a	n/a	n/a	n/a	-999	12	[0, 0, 0]	n/a	catFR1	0	R1230J
2166.495	0.5	2029690	TRIAL	n/a	n/a	n/a	n/a	-999	13	[0, 0, 0]	n/a	catFR1	0	R1230J
2166.995	10.428	2030190	COUNTDOWN_START	n/a	n/a	n/a	n/a	-999	13	[0, 0, 0]	n/a	catFR1	0	R1230J
2177.423	0.006	2040618	COUNTDOWN_END	n/a	n/a	n/a	n/a	-999	13	[0, 0, 0]	n/a	catFR1	0	R1230J
2177.429	1.616	2040624	ORIENT	n/a	n/a	n/a	n/a	-999	13	[0, 0, 0]	n/a	catFR1	0	R1230J
2179.045	1.934	2042240	ORIENT_OFF	n/a	n/a	n/a	n/a	-999	13	[0, 0, 0]	n/a	catFR1	0	R1230J
2180.979	1.618	2044174	WORD	n/a	wordpools/wordpool_categorized_EN.txt	SPINACH	Vegetables	1	13	[0, 0, 0]	n/a	catFR1	0	R1230J
2182.597	0.967	2045792	WORD_OFF	n/a	n/a	SPINACH	n/a	1	13	[0, 0, 0]	n/a	catFR1	0	R1230J
2183.564	1.615	2046759	WORD	n/a	wordpools/wordpool_categorized_EN.txt	CUCUMBER	Vegetables	2	13	[0, 0, 0]	n/a	catFR1	0	R1230J
2185.179	0.85	2048374	WORD_OFF	n/a	n/a	CUCUMBER	n/a	2	13	[0, 0, 0]	n/a	catFR1	0	R1230J
2186.029	1.617	2049224	WORD	n/a	wordpools/wordpool_categorized_EN.txt	WALL	Building	3	13	[0, 0, 0]	n/a	catFR1	0	R1230J
2187.646	0.935	2050841	WORD_OFF	n/a	n/a	WALL	n/a	3	13	[0, 0, 0]	n/a	catFR1	0	R1230J
2188.581	1.616	2051776	WORD	n/a	wordpools/wordpool_categorized_EN.txt	ROOM	Building	4	13	[0, 0, 0]	n/a	catFR1	0	R1230J
2190.197	0.783	2053392	WORD_OFF	n/a	n/a	ROOM	n/a	4	13	[0, 0, 0]	n/a	catFR1	0	R1230J
2190.98	1.618	2054175	WORD	n/a	wordpools/wordpool_categorized_EN.txt	PEACH	Fruit	5	13	[0, 0, 0]	n/a	catFR1	0	R1230J
2192.598	0.834	2055793	WORD_OFF	n/a	n/a	PEACH	n/a	5	13	[0, 0, 0]	n/a	catFR1	0	R1230J
2193.432	1.615	2056627	WORD	n/a	wordpools/wordpool_categorized_EN.txt	PLUM	Fruit	6	13	[0, 0, 0]	n/a	catFR1	0	R1230J
2195.047	0.867	2058242	WORD_OFF	n/a	n/a	PLUM	n/a	6	13	[0, 0, 0]	n/a	catFR1	0	R1230J
2195.914	1.601	2059109	WORD	n/a	wordpools/wordpool_categorized_EN.txt	ROOF	Building	7	13	[0, 0, 0]	n/a	catFR1	0	R1230J
2197.515	0.967	2060710	WORD_OFF	n/a	n/a	ROOF	n/a	7	13	[0, 0, 0]	n/a	catFR1	0	R1230J
2198.482	1.616	2061677	WORD	n/a	wordpools/wordpool_categorized_EN.txt	STAIRS	Building	8	13	[0, 0, 0]	n/a	catFR1	0	R1230J
2200.098	0.8	2063293	WORD_OFF	n/a	n/a	STAIRS	n/a	8	13	[0, 0, 0]	n/a	catFR1	0	R1230J
2200.898	1.601	2064093	WORD	n/a	wordpools/wordpool_categorized_EN.txt	ONION	Vegetables	9	13	[0, 0, 0]	n/a	catFR1	0	R1230J
2202.499	0.784	2065694	WORD_OFF	n/a	n/a	ONION	n/a	9	13	[0, 0, 0]	n/a	catFR1	0	R1230J
2203.283	1.616	2066478	WORD	n/a	wordpools/wordpool_categorized_EN.txt	POTATO	Vegetables	10	13	[0, 0, 0]	n/a	catFR1	0	R1230J
2204.899	0.95	2068094	WORD_OFF	n/a	n/a	POTATO	n/a	10	13	[0, 0, 0]	n/a	catFR1	0	R1230J
2205.849	1.617	2069044	WORD	n/a	wordpools/wordpool_categorized_EN.txt	APPLE	Fruit	11	13	[0, 0, 0]	n/a	catFR1	0	R1230J
2207.466	0.901	2070661	WORD_OFF	n/a	n/a	APPLE	n/a	11	13	[0, 0, 0]	n/a	catFR1	0	R1230J
2208.367	1.616	2071562	WORD	n/a	wordpools/wordpool_categorized_EN.txt	BANANA	Fruit	12	13	[0, 0, 0]	n/a	catFR1	0	R1230J
2209.983	0.0	2073178	ENCODING_END	n/a	n/a	n/a	n/a	-999	13	[0, 0, 0]	n/a	catFR1	0	R1230J
2209.983	0.094	2073178	WORD_OFF	n/a	n/a	BANANA	n/a	12	13	[0, 0, 0]	n/a	catFR1	0	R1230J
2210.077	0.0	2073272	DISTRACT_START	n/a	n/a	n/a	n/a	-999	13	[0, 0, 0]	n/a	catFR1	0	R1230J
2210.077	0.022	2073272	START	n/a	n/a	n/a	n/a	-999	13	[-999, -999, -999]	n/a	catFR1	0	R1230J
2210.099	4.084	2073294	PROB	4.055	n/a	n/a	n/a	-999	13	[2, 2, 9]	13.0	catFR1	0	R1230J
2214.183	3.285	2077378	PROB	3.26	n/a	n/a	n/a	-999	13	[2, 3, 5]	10.0	catFR1	0	R1230J
2217.468	3.85	2080663	PROB	3.814	n/a	n/a	n/a	-999	13	[2, 3, 5]	10.0	catFR1	0	R1230J
2221.318	3.234	2084513	PROB	3.212	n/a	n/a	n/a	-999	13	[7, 4, 1]	12.0	catFR1	0	R1230J
2224.552	2.199	2087747	PROB	2.161	n/a	n/a	n/a	-999	13	[4, 1, 9]	14.0	catFR1	0	R1230J
2226.751	2.117	2089946	PROB	2.082	n/a	n/a	n/a	-999	13	[6, 4, 5]	15.0	catFR1	0	R1230J
2228.868	3.373	2092063	PROB	3.373	n/a	n/a	n/a	-999	13	[5, 6, 5]	16.0	catFR1	0	R1230J
2232.241	0.012	2095436	STOP	n/a	n/a	n/a	n/a	-999	13	[-999, -999, -999]	n/a	catFR1	0	R1230J
2232.253	0.583	2095448	DISTRACT_END	n/a	n/a	n/a	n/a	-999	13	[0, 0, 0]	n/a	catFR1	0	R1230J
2232.836	0.518	2096031	RETRIEVAL_ORIENT	n/a	n/a	n/a	n/a	-999	13	[0, 0, 0]	n/a	catFR1	0	R1230J
2233.354	1.285	2096549	REC_START	n/a	n/a	n/a	n/a	-999	13	[0, 0, 0]	n/a	catFR1	0	R1230J
2234.639	2.091	2097834	REC_WORD	1.285	n/a	SPINACH	Vegetables	1	13	[0, 0, 0]	n/a	catFR1	0	R1230J
2236.73	4.542	2099925	REC_WORD	3.376	n/a	PEACH	Fruit	5	13	[0, 0, 0]	n/a	catFR1	0	R1230J
2241.272	1.402	2104467	REC_WORD	7.918	n/a	GRAPE	n/a	-999	13	[0, 0, 0]	n/a	catFR1	0	R1230J
2242.674	1.872	2105869	REC_WORD	9.32	n/a	ORANGE	n/a	-999	13	[0, 0, 0]	n/a	catFR1	0	R1230J
2244.546	1.0	2107741	REC_WORD	11.192	n/a	FALL	n/a	-999	13	[0, 0, 0]	n/a	catFR1	0	R1230J
2245.546	3.164	2108741	REC_WORD_VV	12.192	n/a	<>	n/a	-999	13	[0, 0, 0]	n/a	catFR1	0	R1230J
2248.71	3.66	2111905	REC_WORD	15.356	n/a	FULL	n/a	-999	13	[0, 0, 0]	n/a	catFR1	0	R1230J
2252.37	3.977	2115565	REC_WORD	19.016	n/a	CUCUMBER	Vegetables	2	13	[0, 0, 0]	n/a	catFR1	0	R1230J
2256.347	7.015	2119542	REC_WORD	22.993	n/a	PURPLE	n/a	-999	13	[0, 0, 0]	n/a	catFR1	0	R1230J
2263.362	4.645	2126557	REC_END	n/a	n/a	n/a	n/a	-999	13	[0, 0, 0]	n/a	catFR1	0	R1230J
2268.007	0.5	2131202	TRIAL	n/a	n/a	n/a	n/a	-999	14	[0, 0, 0]	n/a	catFR1	0	R1230J
2268.507	10.428	2131702	COUNTDOWN_START	n/a	n/a	n/a	n/a	-999	14	[0, 0, 0]	n/a	catFR1	0	R1230J
2278.935	0.006	2142130	COUNTDOWN_END	n/a	n/a	n/a	n/a	-999	14	[0, 0, 0]	n/a	catFR1	0	R1230J
2278.941	1.618	2142136	ORIENT	n/a	n/a	n/a	n/a	-999	14	[0, 0, 0]	n/a	catFR1	0	R1230J
2280.559	2.034	2143754	ORIENT_OFF	n/a	n/a	n/a	n/a	-999	14	[0, 0, 0]	n/a	catFR1	0	R1230J
2282.593	1.616	2145788	WORD	n/a	wordpools/wordpool_categorized_EN.txt	DUCK	Birds	1	14	[0, 0, 0]	n/a	catFR1	0	R1230J
2284.209	0.983	2147404	WORD_OFF	n/a	n/a	DUCK	n/a	1	14	[0, 0, 0]	n/a	catFR1	0	R1230J
2285.192	1.617	2148387	WORD	n/a	wordpools/wordpool_categorized_EN.txt	CARDINAL	Birds	2	14	[0, 0, 0]	n/a	catFR1	0	R1230J
2286.809	0.9	2150004	WORD_OFF	n/a	n/a	CARDINAL	n/a	2	14	[0, 0, 0]	n/a	catFR1	0	R1230J
2287.709	1.618	2150904	WORD	n/a	wordpools/wordpool_categorized_EN.txt	SHOES	Clothing	3	14	[0, 0, 0]	n/a	catFR1	0	R1230J
2289.327	0.783	2152522	WORD_OFF	n/a	n/a	SHOES	n/a	3	14	[0, 0, 0]	n/a	catFR1	0	R1230J
2290.11	1.617	2153305	WORD	n/a	wordpools/wordpool_categorized_EN.txt	UNDERWEAR	Clothing	4	14	[0, 0, 0]	n/a	catFR1	0	R1230J
2291.727	0.834	2154922	WORD_OFF	n/a	n/a	UNDERWEAR	n/a	4	14	[0, 0, 0]	n/a	catFR1	0	R1230J
2292.561	1.616	2155756	WORD	n/a	wordpools/wordpool_categorized_EN.txt	HAMMER	Tools	5	14	[0, 0, 0]	n/a	catFR1	0	R1230J
2294.177	0.9	2157372	WORD_OFF	n/a	n/a	HAMMER	n/a	5	14	[0, 0, 0]	n/a	catFR1	0	R1230J
2295.077	1.617	2158272	WORD	n/a	wordpools/wordpool_categorized_EN.txt	CROWBAR	Tools	6	14	[0, 0, 0]	n/a	catFR1	0	R1230J
2296.694	0.934	2159889	WORD_OFF	n/a	n/a	CROWBAR	n/a	6	14	[0, 0, 0]	n/a	catFR1	0	R1230J
2297.628	1.617	2160823	WORD	n/a	wordpools/wordpool_categorized_EN.txt	GOOSE	Birds	7	14	[0, 0, 0]	n/a	catFR1	0	R1230J
2299.245	0.782	2162440	WORD_OFF	n/a	n/a	GOOSE	n/a	7	14	[0, 0, 0]	n/a	catFR1	0	R1230J
2300.027	1.602	2163222	WORD	n/a	wordpools/wordpool_categorized_EN.txt	PIGEON	Birds	8	14	[0, 0, 0]	n/a	catFR1	0	R1230J
2301.629	0.867	2164824	WORD_OFF	n/a	n/a	PIGEON	n/a	8	14	[0, 0, 0]	n/a	catFR1	0	R1230J
2302.496	1.616	2165691	WORD	n/a	wordpools/wordpool_categorized_EN.txt	JACKET	Clothing	9	14	[0, 0, 0]	n/a	catFR1	0	R1230J
2304.112	0.949	2167307	WORD_OFF	n/a	n/a	JACKET	n/a	9	14	[0, 0, 0]	n/a	catFR1	0	R1230J
2305.061	1.617	2168256	WORD	n/a	wordpools/wordpool_categorized_EN.txt	JEANS	Clothing	10	14	[0, 0, 0]	n/a	catFR1	0	R1230J
2306.678	1.0	2169873	WORD_OFF	n/a	n/a	JEANS	n/a	10	14	[0, 0, 0]	n/a	catFR1	0	R1230J
2307.678	1.618	2170873	WORD	n/a	wordpools/wordpool_categorized_EN.txt	PLIERS	Tools	11	14	[0, 0, 0]	n/a	catFR1	0	R1230J
2309.296	0.916	2172491	WORD_OFF	n/a	n/a	PLIERS	n/a	11	14	[0, 0, 0]	n/a	catFR1	0	R1230J
2310.212	1.617	2173407	WORD	n/a	wordpools/wordpool_categorized_EN.txt	RATCHET	Tools	12	14	[0, 0, 0]	n/a	catFR1	0	R1230J
2311.829	0.0	2175024	ENCODING_END	n/a	n/a	n/a	n/a	-999	14	[0, 0, 0]	n/a	catFR1	0	R1230J
2311.829	0.096	2175024	WORD_OFF	n/a	n/a	RATCHET	n/a	12	14	[0, 0, 0]	n/a	catFR1	0	R1230J
2311.925	0.0	2175120	DISTRACT_START	n/a	n/a	n/a	n/a	-999	14	[0, 0, 0]	n/a	catFR1	0	R1230J
2311.925	0.021	2175120	START	n/a	n/a	n/a	n/a	-999	14	[-999, -999, -999]	n/a	catFR1	0	R1230J
2311.946	3.833	2175141	PROB	3.795	n/a	n/a	n/a	-999	14	[6, 8, 3]	17.0	catFR1	0	R1230J
2315.779	3.652	2178974	PROB	3.619	n/a	n/a	n/a	-999	14	[9, 6, 7]	21.0	catFR1	0	R1230J
2319.431	3.2	2182626	PROB	3.177	n/a	n/a	n/a	-999	14	[7, 3, 4]	14.0	catFR1	0	R1230J
2322.631	2.767	2185826	PROB	2.742	n/a	n/a	n/a	-999	14	[7, 3, 3]	13.0	catFR1	0	R1230J
2325.398	3.134	2188593	PROB	3.112	n/a	n/a	n/a	-999	14	[1, 8, 7]	18.0	catFR1	0	R1230J
2328.532	2.65	2191727	PROB	2.625	n/a	n/a	n/a	-999	14	[8, 2, 1]	11.0	catFR1	0	R1230J
2331.182	3.84	2194377	PROB	3.84	n/a	n/a	n/a	-999	14	[9, 9, 8]	26.0	catFR1	0	R1230J
2335.022	0.01	2198217	STOP	n/a	n/a	n/a	n/a	-999	14	[-999, -999, -999]	n/a	catFR1	0	R1230J
2335.032	0.667	2198227	DISTRACT_END	n/a	n/a	n/a	n/a	-999	14	[0, 0, 0]	n/a	catFR1	0	R1230J
2335.699	0.517	2198894	RETRIEVAL_ORIENT	n/a	n/a	n/a	n/a	-999	14	[0, 0, 0]	n/a	catFR1	0	R1230J
2336.216	2.124	2199411	REC_START	n/a	n/a	n/a	n/a	-999	14	[0, 0, 0]	n/a	catFR1	0	R1230J
2338.34	0.041	2201535	REC_WORD_VV	2.124	n/a	<>	n/a	-999	14	[0, 0, 0]	n/a	catFR1	0	R1230J
2338.381	2.318	2201576	REC_WORD	2.165	n/a	RATCHET	Tools	12	14	[0, 0, 0]	n/a	catFR1	0	R1230J
2340.699	3.751	2203894	REC_WORD	4.483	n/a	PLIERS	Tools	11	14	[0, 0, 0]	n/a	catFR1	0	R1230J
2344.45	0.2	2207645	REC_WORD_VV	8.234	n/a	<>	n/a	-999	14	[0, 0, 0]	n/a	catFR1	0	R1230J
2344.65	14.412	2207845	REC_WORD	8.434	n/a	PEACH	n/a	-999	14	[0, 0, 0]	n/a	catFR1	0	R1230J
2359.062	7.165	2222257	REC_WORD	22.846	n/a	RING	n/a	-999	14	[0, 0, 0]	n/a	catFR1	0	R1230J
2366.227	4.426	2229422	REC_END	n/a	n/a	n/a	n/a	-999	14	[0, 0, 0]	n/a	catFR1	0	R1230J
2370.653	0.5	2233848	TRIAL	n/a	n/a	n/a	n/a	-999	15	[0, 0, 0]	n/a	catFR1	0	R1230J
2371.153	10.428	2234348	COUNTDOWN_START	n/a	n/a	n/a	n/a	-999	15	[0, 0, 0]	n/a	catFR1	0	R1230J
2381.581	0.008	2244776	COUNTDOWN_END	n/a	n/a	n/a	n/a	-999	15	[0, 0, 0]	n/a	catFR1	0	R1230J
2381.589	1.616	2244784	ORIENT	n/a	n/a	n/a	n/a	-999	15	[0, 0, 0]	n/a	catFR1	0	R1230J
2383.205	2.101	2246400	ORIENT_OFF	n/a	n/a	n/a	n/a	-999	15	[0, 0, 0]	n/a	catFR1	0	R1230J
2385.306	1.616	2248501	WORD	n/a	wordpools/wordpool_categorized_EN.txt	HILLS	Landscapes	1	15	[0, 0, 0]	n/a	catFR1	0	R1230J
2386.922	0.8	2250117	WORD_OFF	n/a	n/a	HILLS	n/a	1	15	[0, 0, 0]	n/a	catFR1	0	R1230J
2387.722	1.618	2250917	WORD	n/a	wordpools/wordpool_categorized_EN.txt	BEACH	Landscapes	2	15	[0, 0, 0]	n/a	catFR1	0	R1230J
2389.34	0.799	2252535	WORD_OFF	n/a	n/a	BEACH	n/a	2	15	[0, 0, 0]	n/a	catFR1	0	R1230J
2390.139	1.617	2253334	WORD	n/a	wordpools/wordpool_categorized_EN.txt	STEREO	Electronics	3	15	[0, 0, 0]	n/a	catFR1	0	R1230J
2391.756	0.834	2254951	WORD_OFF	n/a	n/a	STEREO	n/a	3	15	[0, 0, 0]	n/a	catFR1	0	R1230J
2392.59	1.616	2255785	WORD	n/a	wordpools/wordpool_categorized_EN.txt	CALCULATOR	Electronics	4	15	[0, 0, 0]	n/a	catFR1	0	R1230J
2394.206	0.967	2257401	WORD_OFF	n/a	n/a	CALCULATOR	n/a	4	15	[0, 0, 0]	n/a	catFR1	0	R1230J
2395.173	1.617	2258368	WORD	n/a	wordpools/wordpool_categorized_EN.txt	COBBLER	Desserts	5	15	[0, 0, 0]	n/a	catFR1	0	R1230J
2396.79	0.933	2259985	WORD_OFF	n/a	n/a	COBBLER	n/a	5	15	[0, 0, 0]	n/a	catFR1	0	R1230J
2397.723	1.618	2260918	WORD	n/a	wordpools/wordpool_categorized_EN.txt	MOUSSE	Desserts	6	15	[0, 0, 0]	n/a	catFR1	0	R1230J
2399.341	0.849	2262536	WORD_OFF	n/a	n/a	MOUSSE	n/a	6	15	[0, 0, 0]	n/a	catFR1	0	R1230J
2400.19	1.617	2263385	WORD	n/a	wordpools/wordpool_categorized_EN.txt	RIVER	Landscapes	7	15	[0, 0, 0]	n/a	catFR1	0	R1230J
2401.807	0.867	2265002	WORD_OFF	n/a	n/a	RIVER	n/a	7	15	[0, 0, 0]	n/a	catFR1	0	R1230J
2402.674	1.618	2265869	WORD	n/a	wordpools/wordpool_categorized_EN.txt	VALLEY	Landscapes	8	15	[0, 0, 0]	n/a	catFR1	0	R1230J
2404.292	0.799	2267487	WORD_OFF	n/a	n/a	VALLEY	n/a	8	15	[0, 0, 0]	n/a	catFR1	0	R1230J
2405.091	1.617	2268286	WORD	n/a	wordpools/wordpool_categorized_EN.txt	TELEVISION	Electronics	9	15	[0, 0, 0]	n/a	catFR1	0	R1230J
2406.708	0.851	2269903	WORD_OFF	n/a	n/a	TELEVISION	n/a	9	15	[0, 0, 0]	n/a	catFR1	0	R1230J
2407.559	1.616	2270754	WORD	n/a	wordpools/wordpool_categorized_EN.txt	PHONE	Electronics	10	15	[0, 0, 0]	n/a	catFR1	0	R1230J
2409.175	0.833	2272370	WORD_OFF	n/a	n/a	PHONE	n/a	10	15	[0, 0, 0]	n/a	catFR1	0	R1230J
2410.008	1.618	2273203	WORD	n/a	wordpools/wordpool_categorized_EN.txt	COOKIE	Desserts	11	15	[0, 0, 0]	n/a	catFR1	0	R1230J
2411.626	0.85	2274821	WORD_OFF	n/a	n/a	COOKIE	n/a	11	15	[0, 0, 0]	n/a	catFR1	0	R1230J
2412.476	1.616	2275671	WORD	n/a	wordpools/wordpool_categorized_EN.txt	JELLO	Desserts	12	15	[0, 0, 0]	n/a	catFR1	0	R1230J
2414.092	0.001	2277287	WORD_OFF	n/a	n/a	JELLO	n/a	12	15	[0, 0, 0]	n/a	catFR1	0	R1230J
2414.093	0.134	2277288	ENCODING_END	n/a	n/a	n/a	n/a	-999	15	[0, 0, 0]	n/a	catFR1	0	R1230J
2414.227	0.0	2277422	DISTRACT_START	n/a	n/a	n/a	n/a	-999	15	[0, 0, 0]	n/a	catFR1	0	R1230J
2414.227	0.016	2277422	START	n/a	n/a	n/a	n/a	-999	15	[-999, -999, -999]	n/a	catFR1	0	R1230J
2414.243	4.883	2277438	PROB	4.855	n/a	n/a	n/a	-999	15	[9, 2, 9]	20.0	catFR1	0	R1230J
2419.126	3.951	2282321	PROB	3.916	n/a	n/a	n/a	-999	15	[2, 7, 9]	18.0	catFR1	0	R1230J
2423.077	4.468	2286272	PROB	4.437	n/a	n/a	n/a	-999	15	[3, 2, 3]	8.0	catFR1	0	R1230J
2427.545	3.867	2290740	PROB	3.834	n/a	n/a	n/a	-999	15	[7, 8, 8]	23.0	catFR1	0	R1230J
2431.412	3.333	2294607	PROB	3.333	n/a	n/a	n/a	-999	15	[1, 3, 2]	6.0	catFR1	0	R1230J
2434.745	0.017	2297940	STOP	n/a	n/a	n/a	n/a	-999	15	[-999, -999, -999]	n/a	catFR1	0	R1230J
2434.762	0.65	2297957	DISTRACT_END	n/a	n/a	n/a	n/a	-999	15	[0, 0, 0]	n/a	catFR1	0	R1230J
2435.412	0.517	2298607	RETRIEVAL_ORIENT	n/a	n/a	n/a	n/a	-999	15	[0, 0, 0]	n/a	catFR1	0	R1230J
2435.929	1.096	2299124	REC_START	n/a	n/a	n/a	n/a	-999	15	[0, 0, 0]	n/a	catFR1	0	R1230J
2437.025	2.373	2300220	REC_WORD	1.096	n/a	COBBLER	Desserts	5	15	[0, 0, 0]	n/a	catFR1	0	R1230J
2439.398	1.879	2302593	REC_WORD	3.469	n/a	STEREO	Electronics	3	15	[0, 0, 0]	n/a	catFR1	0	R1230J
2441.277	6.439	2304472	REC_WORD	5.348	n/a	MICROPHONE	n/a	-999	15	[0, 0, 0]	n/a	catFR1	0	R1230J
2447.716	0.509	2310911	REC_WORD_VV	11.787	n/a	<>	n/a	-999	15	[0, 0, 0]	n/a	catFR1	0	R1230J
2448.225	6.209	2311420	REC_WORD	12.296	n/a	PEACH	n/a	-999	15	[0, 0, 0]	n/a	catFR1	0	R1230J
2454.434	10.721	2317629	REC_WORD	18.505	n/a	CYLINDER	n/a	-999	15	[0, 0, 0]	n/a	catFR1	0	R1230J
2465.155	0.784	2328350	REC_WORD_VV	29.226	n/a	<>	n/a	-999	15	[0, 0, 0]	n/a	catFR1	0	R1230J
2465.939	5.744	2329134	REC_END	n/a	n/a	n/a	n/a	-999	15	[0, 0, 0]	n/a	catFR1	0	R1230J
2471.683	0.5	2334878	TRIAL	n/a	n/a	n/a	n/a	-999	16	[0, 0, 0]	n/a	catFR1	0	R1230J
2472.183	10.428	2335378	COUNTDOWN_START	n/a	n/a	n/a	n/a	-999	16	[0, 0, 0]	n/a	catFR1	0	R1230J
2482.611	0.008	2345806	COUNTDOWN_END	n/a	n/a	n/a	n/a	-999	16	[0, 0, 0]	n/a	catFR1	0	R1230J
2482.619	1.617	2345814	ORIENT	n/a	n/a	n/a	n/a	-999	16	[0, 0, 0]	n/a	catFR1	0	R1230J
2484.236	2.116	2347431	ORIENT_OFF	n/a	n/a	n/a	n/a	-999	16	[0, 0, 0]	n/a	catFR1	0	R1230J
2486.352	1.616	2349547	WORD	n/a	wordpools/wordpool_categorized_EN.txt	FLOOR	Building	1	16	[0, 0, 0]	n/a	catFR1	0	R1230J
2487.968	1.0	2351163	WORD_OFF	n/a	n/a	FLOOR	n/a	1	16	[0, 0, 0]	n/a	catFR1	0	R1230J
2488.968	1.618	2352163	WORD	n/a	wordpools/wordpool_categorized_EN.txt	CEILING	Building	2	16	[0, 0, 0]	n/a	catFR1	0	R1230J
2490.586	0.917	2353781	WORD_OFF	n/a	n/a	CEILING	n/a	2	16	[0, 0, 0]	n/a	catFR1	0	R1230J
2491.503	1.616	2354698	WORD	n/a	wordpools/wordpool_categorized_EN.txt	DAFFODIL	Flowers	3	16	[0, 0, 0]	n/a	catFR1	0	R1230J
2493.119	1.017	2356314	WORD_OFF	n/a	n/a	DAFFODIL	n/a	3	16	[0, 0, 0]	n/a	catFR1	0	R1230J
2494.136	1.616	2357331	WORD	n/a	wordpools/wordpool_categorized_EN.txt	DAISY	Flowers	4	16	[0, 0, 0]	n/a	catFR1	0	R1230J
2495.752	0.885	2358947	WORD_OFF	n/a	n/a	DAISY	n/a	4	16	[0, 0, 0]	n/a	catFR1	0	R1230J
2496.637	1.617	2359832	WORD	n/a	wordpools/wordpool_categorized_EN.txt	BEETLE	Insects	5	16	[0, 0, 0]	n/a	catFR1	0	R1230J
2498.254	0.832	2361449	WORD_OFF	n/a	n/a	BEETLE	n/a	5	16	[0, 0, 0]	n/a	catFR1	0	R1230J
2499.086	1.617	2362281	WORD	n/a	wordpools/wordpool_categorized_EN.txt	BEE	Insects	6	16	[0, 0, 0]	n/a	catFR1	0	R1230J
2500.703	0.768	2363898	WORD_OFF	n/a	n/a	BEE	n/a	6	16	[0, 0, 0]	n/a	catFR1	0	R1230J
2501.471	1.616	2364666	WORD	n/a	wordpools/wordpool_categorized_EN.txt	WINDOW	Building	7	16	[0, 0, 0]	n/a	catFR1	0	R1230J
2503.087	0.8	2366282	WORD_OFF	n/a	n/a	WINDOW	n/a	7	16	[0, 0, 0]	n/a	catFR1	0	R1230J
2503.887	1.618	2367082	WORD	n/a	wordpools/wordpool_categorized_EN.txt	ATTIC	Building	8	16	[0, 0, 0]	n/a	catFR1	0	R1230J
2505.505	0.916	2368700	WORD_OFF	n/a	n/a	ATTIC	n/a	8	16	[0, 0, 0]	n/a	catFR1	0	R1230J
2506.421	1.616	2369616	WORD	n/a	wordpools/wordpool_categorized_EN.txt	TULIP	Flowers	9	16	[0, 0, 0]	n/a	catFR1	0	R1230J
2508.037	0.917	2371232	WORD_OFF	n/a	n/a	TULIP	n/a	9	16	[0, 0, 0]	n/a	catFR1	0	R1230J
2508.954	1.601	2372149	WORD	n/a	wordpools/wordpool_categorized_EN.txt	CARNATION	Flowers	10	16	[0, 0, 0]	n/a	catFR1	0	R1230J
2510.555	1.017	2373750	WORD_OFF	n/a	n/a	CARNATION	n/a	10	16	[0, 0, 0]	n/a	catFR1	0	R1230J
2511.572	1.616	2374767	WORD	n/a	wordpools/wordpool_categorized_EN.txt	FLY	Insects	11	16	[0, 0, 0]	n/a	catFR1	0	R1230J
2513.188	0.917	2376383	WORD_OFF	n/a	n/a	FLY	n/a	11	16	[0, 0, 0]	n/a	catFR1	0	R1230J
2514.105	1.617	2377300	WORD	n/a	wordpools/wordpool_categorized_EN.txt	SPIDER	Insects	12	16	[0, 0, 0]	n/a	catFR1	0	R1230J
2515.722	0.0	2378917	ENCODING_END	n/a	n/a	n/a	n/a	-999	16	[0, 0, 0]	n/a	catFR1	0	R1230J
2515.722	0.098	2378917	WORD_OFF	n/a	n/a	SPIDER	n/a	12	16	[0, 0, 0]	n/a	catFR1	0	R1230J
2515.82	0.0	2379015	DISTRACT_START	n/a	n/a	n/a	n/a	-999	16	[0, 0, 0]	n/a	catFR1	0	R1230J
2515.82	0.018	2379015	START	n/a	n/a	n/a	n/a	-999	16	[-999, -999, -999]	n/a	catFR1	0	R1230J
2515.838	4.301	2379033	PROB	4.264	n/a	n/a	n/a	-999	16	[2, 9, 8]	19.0	catFR1	0	R1230J
2520.139	2.901	2383334	PROB	2.874	n/a	n/a	n/a	-999	16	[3, 2, 8]	13.0	catFR1	0	R1230J
2523.04	2.866	2386235	PROB	2.837	n/a	n/a	n/a	-999	16	[7, 6, 3]	16.0	catFR1	0	R1230J
2525.906	2.784	2389101	PROB	2.746	n/a	n/a	n/a	-999	16	[5, 6, 7]	18.0	catFR1	0	R1230J
2528.69	3.034	2391886	PROB	3.01	n/a	n/a	n/a	-999	16	[9, 5, 2]	16.0	catFR1	0	R1230J
2531.724	2.501	2394920	PROB	2.465	n/a	n/a	n/a	-999	16	[4, 7, 3]	14.0	catFR1	0	R1230J
2534.225	3.987	2397421	PROB	3.987	n/a	n/a	n/a	-999	16	[7, 4, 8]	21.0	catFR1	0	R1230J
2538.212	0.014	2401408	STOP	n/a	n/a	n/a	n/a	-999	16	[-999, -999, -999]	n/a	catFR1	0	R1230J
2538.226	0.599	2401422	DISTRACT_END	n/a	n/a	n/a	n/a	-999	16	[0, 0, 0]	n/a	catFR1	0	R1230J
2538.825	0.518	2402021	RETRIEVAL_ORIENT	n/a	n/a	n/a	n/a	-999	16	[0, 0, 0]	n/a	catFR1	0	R1230J
2539.343	1.177	2402539	REC_START	n/a	n/a	n/a	n/a	-999	16	[0, 0, 0]	n/a	catFR1	0	R1230J
2540.52	0.109	2403716	REC_WORD_VV	1.177	n/a	<>	n/a	-999	16	[0, 0, 0]	n/a	catFR1	0	R1230J
2540.629	3.522	2403825	REC_WORD	1.286	n/a	FLY	Insects	11	16	[0, 0, 0]	n/a	catFR1	0	R1230J
2544.151	1.2	2407347	REC_WORD	4.808	n/a	SPIDER	Insects	12	16	[0, 0, 0]	n/a	catFR1	0	R1230J
2545.351	0.172	2408547	REC_WORD_VV	6.008	n/a	<>	n/a	-999	16	[0, 0, 0]	n/a	catFR1	0	R1230J
2545.523	3.008	2408719	REC_WORD	6.18	n/a	BEE	Insects	6	16	[0, 0, 0]	n/a	catFR1	0	R1230J
2548.531	0.822	2411727	REC_WORD_VV	9.188	n/a	<>	n/a	-999	16	[0, 0, 0]	n/a	catFR1	0	R1230J
2549.353	1.841	2412549	REC_WORD	10.01	n/a	BEETLE	Insects	5	16	[0, 0, 0]	n/a	catFR1	0	R1230J
2551.194	0.052	2414390	REC_WORD_VV	11.851	n/a	<>	n/a	-999	16	[0, 0, 0]	n/a	catFR1	0	R1230J
2551.246	1.127	2414442	REC_WORD	11.903	n/a	FLOOR	Building	1	16	[0, 0, 0]	n/a	catFR1	0	R1230J
2552.373	0.133	2415569	REC_WORD_VV	13.03	n/a	<>	n/a	-999	16	[0, 0, 0]	n/a	catFR1	0	R1230J
2552.506	16.848	2415702	REC_WORD	13.163	n/a	ROOF	n/a	-999	16	[0, 0, 0]	n/a	catFR1	0	R1230J
2569.354	4.993	2432550	REC_END	n/a	n/a	n/a	n/a	-999	16	[0, 0, 0]	n/a	catFR1	0	R1230J
2574.347	0.5	2437543	TRIAL	n/a	n/a	n/a	n/a	-999	17	[0, 0, 0]	n/a	catFR1	0	R1230J
2574.847	10.428	2438043	COUNTDOWN_START	n/a	n/a	n/a	n/a	-999	17	[0, 0, 0]	n/a	catFR1	0	R1230J
2585.275	0.006	2448471	COUNTDOWN_END	n/a	n/a	n/a	n/a	-999	17	[0, 0, 0]	n/a	catFR1	0	R1230J
2585.281	1.616	2448477	ORIENT	n/a	n/a	n/a	n/a	-999	17	[0, 0, 0]	n/a	catFR1	0	R1230J
2586.897	2.301	2450093	ORIENT_OFF	n/a	n/a	n/a	n/a	-999	17	[0, 0, 0]	n/a	catFR1	0	R1230J
2589.198	1.617	2452394	WORD	n/a	wordpools/wordpool_categorized_EN.txt	SODA	Beverages	1	17	[0, 0, 0]	n/a	catFR1	0	R1230J
2590.815	0.866	2454011	WORD_OFF	n/a	n/a	SODA	n/a	1	17	[0, 0, 0]	n/a	catFR1	0	R1230J
2591.681	1.618	2454877	WORD	n/a	wordpools/wordpool_categorized_EN.txt	MILK	Beverages	2	17	[0, 0, 0]	n/a	catFR1	0	R1230J
2593.299	1.001	2456495	WORD_OFF	n/a	n/a	MILK	n/a	2	17	[0, 0, 0]	n/a	catFR1	0	R1230J
2594.3	1.615	2457496	WORD	n/a	wordpools/wordpool_categorized_EN.txt	PASTRY	Desserts	3	17	[0, 0, 0]	n/a	catFR1	0	R1230J
2595.915	0.767	2459111	WORD_OFF	n/a	n/a	PASTRY	n/a	3	17	[0, 0, 0]	n/a	catFR1	0	R1230J
2596.682	1.618	2459878	WORD	n/a	wordpools/wordpool_categorized_EN.txt	CHEESECAKE	Desserts	4	17	[0, 0, 0]	n/a	catFR1	0	R1230J
2598.3	0.782	2461496	WORD_OFF	n/a	n/a	CHEESECAKE	n/a	4	17	[0, 0, 0]	n/a	catFR1	0	R1230J
2599.082	1.617	2462278	WORD	n/a	wordpools/wordpool_categorized_EN.txt	ROSE	Flowers	5	17	[0, 0, 0]	n/a	catFR1	0	R1230J
2600.699	0.868	2463895	WORD_OFF	n/a	n/a	ROSE	n/a	5	17	[0, 0, 0]	n/a	catFR1	0	R1230J
2601.567	1.616	2464763	WORD	n/a	wordpools/wordpool_categorized_EN.txt	LILAC	Flowers	6	17	[0, 0, 0]	n/a	catFR1	0	R1230J
2603.183	0.767	2466379	WORD_OFF	n/a	n/a	LILAC	n/a	6	17	[0, 0, 0]	n/a	catFR1	0	R1230J
2603.95	1.617	2467146	WORD	n/a	wordpools/wordpool_categorized_EN.txt	PIE	Desserts	7	17	[0, 0, 0]	n/a	catFR1	0	R1230J
2605.567	0.767	2468763	WORD_OFF	n/a	n/a	PIE	n/a	7	17	[0, 0, 0]	n/a	catFR1	0	R1230J
2606.334	1.616	2469530	WORD	n/a	wordpools/wordpool_categorized_EN.txt	FUDGE	Desserts	8	17	[0, 0, 0]	n/a	catFR1	0	R1230J
2607.95	1.0	2471146	WORD_OFF	n/a	n/a	FUDGE	n/a	8	17	[0, 0, 0]	n/a	catFR1	0	R1230J
2608.95	1.618	2472146	WORD	n/a	wordpools/wordpool_categorized_EN.txt	COFFEE	Beverages	9	17	[0, 0, 0]	n/a	catFR1	0	R1230J
2610.568	0.834	2473764	WORD_OFF	n/a	n/a	COFFEE	n/a	9	17	[0, 0, 0]	n/a	catFR1	0	R1230J
2611.402	1.616	2474598	WORD	n/a	wordpools/wordpool_categorized_EN.txt	RUM	Beverages	10	17	[0, 0, 0]	n/a	catFR1	0	R1230J
2613.018	0.766	2476214	WORD_OFF	n/a	n/a	RUM	n/a	10	17	[0, 0, 0]	n/a	catFR1	0	R1230J
2613.784	1.618	2476980	WORD	n/a	wordpools/wordpool_categorized_EN.txt	LILY	Flowers	11	17	[0, 0, 0]	n/a	catFR1	0	R1230J
2615.402	0.933	2478598	WORD_OFF	n/a	n/a	LILY	n/a	11	17	[0, 0, 0]	n/a	catFR1	0	R1230J
2616.335	1.616	2479531	WORD	n/a	wordpools/wordpool_categorized_EN.txt	SUNFLOWER	Flowers	12	17	[0, 0, 0]	n/a	catFR1	0	R1230J
2617.951	0.001	2481147	WORD_OFF	n/a	n/a	SUNFLOWER	n/a	12	17	[0, 0, 0]	n/a	catFR1	0	R1230J
2617.952	0.1	2481148	ENCODING_END	n/a	n/a	n/a	n/a	-999	17	[0, 0, 0]	n/a	catFR1	0	R1230J
2618.052	0.0	2481248	DISTRACT_START	n/a	n/a	n/a	n/a	-999	17	[0, 0, 0]	n/a	catFR1	0	R1230J
2618.052	0.016	2481248	START	n/a	n/a	n/a	n/a	-999	17	[-999, -999, -999]	n/a	catFR1	0	R1230J
2618.068	2.984	2481264	PROB	2.949	n/a	n/a	n/a	-999	17	[7, 3, 8]	18.0	catFR1	0	R1230J
2621.052	3.984	2484248	PROB	3.958	n/a	n/a	n/a	-999	17	[1, 8, 4]	13.0	catFR1	0	R1230J
2625.036	3.484	2488232	PROB	3.454	n/a	n/a	n/a	-999	17	[8, 9, 7]	24.0	catFR1	0	R1230J
2628.52	2.084	2491716	PROB	2.058	n/a	n/a	n/a	-999	17	[3, 7, 1]	11.0	catFR1	0	R1230J
2630.604	2.717	2493800	PROB	2.694	n/a	n/a	n/a	-999	17	[2, 8, 8]	18.0	catFR1	0	R1230J
2633.321	2.766	2496517	PROB	2.736	n/a	n/a	n/a	-999	17	[8, 2, 2]	12.0	catFR1	0	R1230J
2636.087	3.05	2499283	PROB	3.05	n/a	n/a	n/a	-999	17	[5, 8, 3]	16.0	catFR1	0	R1230J
2639.137	0.017	2502333	STOP	n/a	n/a	n/a	n/a	-999	17	[-999, -999, -999]	n/a	catFR1	0	R1230J
2639.154	0.567	2502350	DISTRACT_END	n/a	n/a	n/a	n/a	-999	17	[0, 0, 0]	n/a	catFR1	0	R1230J
2639.721	0.518	2502917	RETRIEVAL_ORIENT	n/a	n/a	n/a	n/a	-999	17	[0, 0, 0]	n/a	catFR1	0	R1230J
2640.239	1.68	2503435	REC_START	n/a	n/a	n/a	n/a	-999	17	[0, 0, 0]	n/a	catFR1	0	R1230J
2641.919	0.919	2505115	REC_WORD	1.68	n/a	LILAC	Flowers	6	17	[0, 0, 0]	n/a	catFR1	0	R1230J
2642.838	10.131	2506034	REC_WORD	2.599	n/a	LILY	Flowers	11	17	[0, 0, 0]	n/a	catFR1	0	R1230J
2652.969	17.28	2516165	REC_WORD	12.73	n/a	TULIP	n/a	-999	17	[0, 0, 0]	n/a	catFR1	0	R1230J
2670.249	5.061	2533445	REC_END	n/a	n/a	n/a	n/a	-999	17	[0, 0, 0]	n/a	catFR1	0	R1230J
2675.31	0.5	2538506	TRIAL	n/a	n/a	n/a	n/a	-999	18	[0, 0, 0]	n/a	catFR1	0	R1230J
2675.81	10.428	2539006	COUNTDOWN_START	n/a	n/a	n/a	n/a	-999	18	[0, 0, 0]	n/a	catFR1	0	R1230J
2686.238	0.006	2549434	COUNTDOWN_END	n/a	n/a	n/a	n/a	-999	18	[0, 0, 0]	n/a	catFR1	0	R1230J
2686.244	1.616	2549440	ORIENT	n/a	n/a	n/a	n/a	-999	18	[0, 0, 0]	n/a	catFR1	0	R1230J
2687.86	2.151	2551056	ORIENT_OFF	n/a	n/a	n/a	n/a	-999	18	[0, 0, 0]	n/a	catFR1	0	R1230J
2690.011	1.618	2553207	WORD	n/a	wordpools/wordpool_categorized_EN.txt	COUCH	Furniture	1	18	[0, 0, 0]	n/a	catFR1	0	R1230J
2691.629	0.95	2554825	WORD_OFF	n/a	n/a	COUCH	n/a	1	18	[0, 0, 0]	n/a	catFR1	0	R1230J
2692.579	1.616	2555775	WORD	n/a	wordpools/wordpool_categorized_EN.txt	CABINET	Furniture	2	18	[0, 0, 0]	n/a	catFR1	0	R1230J
2694.195	0.8	2557391	WORD_OFF	n/a	n/a	CABINET	n/a	2	18	[0, 0, 0]	n/a	catFR1	0	R1230J
2694.995	1.617	2558191	WORD	n/a	wordpools/wordpool_categorized_EN.txt	MAPLE	Trees	3	18	[0, 0, 0]	n/a	catFR1	0	R1230J
2696.612	0.817	2559808	WORD_OFF	n/a	n/a	MAPLE	n/a	3	18	[0, 0, 0]	n/a	catFR1	0	R1230J
2697.429	1.616	2560625	WORD	n/a	wordpools/wordpool_categorized_EN.txt	CYPRESS	Trees	4	18	[0, 0, 0]	n/a	catFR1	0	R1230J
2699.045	0.767	2562241	WORD_OFF	n/a	n/a	CYPRESS	n/a	4	18	[0, 0, 0]	n/a	catFR1	0	R1230J
2699.812	1.618	2563008	WORD	n/a	wordpools/wordpool_categorized_EN.txt	CAR	Vehicles	5	18	[0, 0, 0]	n/a	catFR1	0	R1230J
2701.43	0.765	2564626	WORD_OFF	n/a	n/a	CAR	n/a	5	18	[0, 0, 0]	n/a	catFR1	0	R1230J
2702.195	1.618	2565391	WORD	n/a	wordpools/wordpool_categorized_EN.txt	TRAIN	Vehicles	6	18	[0, 0, 0]	n/a	catFR1	0	R1230J
2703.813	0.95	2567009	WORD_OFF	n/a	n/a	TRAIN	n/a	6	18	[0, 0, 0]	n/a	catFR1	0	R1230J
2704.763	1.617	2567959	WORD	n/a	wordpools/wordpool_categorized_EN.txt	RECLINER	Furniture	7	18	[0, 0, 0]	n/a	catFR1	0	R1230J
2706.38	0.766	2569576	WORD_OFF	n/a	n/a	RECLINER	n/a	7	18	[0, 0, 0]	n/a	catFR1	0	R1230J
2707.146	1.617	2570342	WORD	n/a	wordpools/wordpool_categorized_EN.txt	NIGHTSTAND	Furniture	8	18	[0, 0, 0]	n/a	catFR1	0	R1230J
2708.763	0.835	2571959	WORD_OFF	n/a	n/a	NIGHTSTAND	n/a	8	18	[0, 0, 0]	n/a	catFR1	0	R1230J
2709.598	1.616	2572794	WORD	n/a	wordpools/wordpool_categorized_EN.txt	OAK	Trees	9	18	[0, 0, 0]	n/a	catFR1	0	R1230J
2711.214	0.95	2574410	WORD_OFF	n/a	n/a	OAK	n/a	9	18	[0, 0, 0]	n/a	catFR1	0	R1230J
2712.164	1.617	2575360	WORD	n/a	wordpools/wordpool_categorized_EN.txt	SPRUCE	Trees	10	18	[0, 0, 0]	n/a	catFR1	0	R1230J
2713.781	0.817	2576977	WORD_OFF	n/a	n/a	SPRUCE	n/a	10	18	[0, 0, 0]	n/a	catFR1	0	R1230J
2714.598	1.616	2577794	WORD	n/a	wordpools/wordpool_categorized_EN.txt	VAN	Vehicles	11	18	[0, 0, 0]	n/a	catFR1	0	R1230J
2716.214	0.967	2579410	WORD_OFF	n/a	n/a	VAN	n/a	11	18	[0, 0, 0]	n/a	catFR1	0	R1230J
2717.181	1.617	2580377	WORD	n/a	wordpools/wordpool_categorized_EN.txt	BUS	Vehicles	12	18	[0, 0, 0]	n/a	catFR1	0	R1230J
2718.798	0.0	2581994	WORD_OFF	n/a	n/a	BUS	n/a	12	18	[0, 0, 0]	n/a	catFR1	0	R1230J
2718.798	0.124	2581994	ENCODING_END	n/a	n/a	n/a	n/a	-999	18	[0, 0, 0]	n/a	catFR1	0	R1230J
2718.922	0.0	2582118	DISTRACT_START	n/a	n/a	n/a	n/a	-999	18	[0, 0, 0]	n/a	catFR1	0	R1230J
2718.922	0.009	2582118	START	n/a	n/a	n/a	n/a	-999	18	[-999, -999, -999]	n/a	catFR1	0	R1230J
2718.931	3.502	2582127	PROB	3.475	n/a	n/a	n/a	-999	18	[6, 5, 4]	15.0	catFR1	0	R1230J
2722.433	4.033	2585629	PROB	4.005	n/a	n/a	n/a	-999	18	[2, 9, 6]	17.0	catFR1	0	R1230J
2726.466	2.583	2589662	PROB	2.546	n/a	n/a	n/a	-999	18	[3, 5, 5]	13.0	catFR1	0	R1230J
2729.049	3.851	2592245	PROB	3.82	n/a	n/a	n/a	-999	18	[7, 7, 9]	13.0	catFR1	0	R1230J
2732.9	3.183	2596096	PROB	3.144	n/a	n/a	n/a	-999	18	[3, 6, 2]	11.0	catFR1	0	R1230J
2736.083	3.434	2599279	PROB	3.434	n/a	n/a	n/a	-999	18	[7, 4, 2]	13.0	catFR1	0	R1230J
2739.517	0.018	2602713	STOP	n/a	n/a	n/a	n/a	-999	18	[-999, -999, -999]	n/a	catFR1	0	R1230J
2739.535	0.532	2602731	DISTRACT_END	n/a	n/a	n/a	n/a	-999	18	[0, 0, 0]	n/a	catFR1	0	R1230J
2740.067	0.519	2603263	RETRIEVAL_ORIENT	n/a	n/a	n/a	n/a	-999	18	[0, 0, 0]	n/a	catFR1	0	R1230J
2740.586	0.381	2603782	REC_START	n/a	n/a	n/a	n/a	-999	18	[0, 0, 0]	n/a	catFR1	0	R1230J
2740.967	0.164	2604163	REC_WORD_VV	0.381	n/a	<>	n/a	-999	18	[0, 0, 0]	n/a	catFR1	0	R1230J
2741.131	0.552	2604327	REC_WORD	0.545	n/a	COUCH	Furniture	1	18	[0, 0, 0]	n/a	catFR1	0	R1230J
2741.683	0.223	2604879	REC_WORD_VV	1.097	n/a	<>	n/a	-999	18	[0, 0, 0]	n/a	catFR1	0	R1230J
2741.906	0.601	2605102	REC_WORD	1.32	n/a	CAR	Vehicles	5	18	[0, 0, 0]	n/a	catFR1	0	R1230J
2742.507	0.13	2605703	REC_WORD_VV	1.921	n/a	<>	n/a	-999	18	[0, 0, 0]	n/a	catFR1	0	R1230J
2742.637	9.296	2605833	REC_WORD	2.051	n/a	VAN	Vehicles	11	18	[0, 0, 0]	n/a	catFR1	0	R1230J
2751.933	1.021	2615129	REC_WORD	11.347	n/a	POTATO	n/a	-999	18	[0, 0, 0]	n/a	catFR1	0	R1230J
2752.954	1.879	2616150	REC_WORD_VV	12.368	n/a	<>	n/a	-999	18	[0, 0, 0]	n/a	catFR1	0	R1230J
2754.833	3.647	2618029	REC_WORD_VV	14.247	n/a	<>	n/a	-999	18	[0, 0, 0]	n/a	catFR1	0	R1230J
2758.48	0.099	2621676	REC_WORD_VV	17.894	n/a	<>	n/a	-999	18	[0, 0, 0]	n/a	catFR1	0	R1230J
2758.579	12.018	2621775	REC_WORD	17.993	n/a	TRUCK	n/a	-999	18	[0, 0, 0]	n/a	catFR1	0	R1230J
2770.597	5.158	2633793	REC_END	n/a	n/a	n/a	n/a	-999	18	[0, 0, 0]	n/a	catFR1	0	R1230J
2775.755	0.5	2638951	TRIAL	n/a	n/a	n/a	n/a	-999	19	[0, 0, 0]	n/a	catFR1	0	R1230J
2776.255	10.428	2639451	COUNTDOWN_START	n/a	n/a	n/a	n/a	-999	19	[0, 0, 0]	n/a	catFR1	0	R1230J
2786.683	0.007	2649879	COUNTDOWN_END	n/a	n/a	n/a	n/a	-999	19	[0, 0, 0]	n/a	catFR1	0	R1230J
2786.69	1.618	2649886	ORIENT	n/a	n/a	n/a	n/a	-999	19	[0, 0, 0]	n/a	catFR1	0	R1230J
2788.308	2.1	2651504	ORIENT_OFF	n/a	n/a	n/a	n/a	-999	19	[0, 0, 0]	n/a	catFR1	0	R1230J
2790.408	1.616	2653604	WORD	n/a	wordpools/wordpool_categorized_EN.txt	FINCH	Birds	1	19	[0, 0, 0]	n/a	catFR1	0	R1230J
2792.024	0.916	2655220	WORD_OFF	n/a	n/a	FINCH	n/a	1	19	[0, 0, 0]	n/a	catFR1	0	R1230J
2792.94	1.602	2656136	WORD	n/a	wordpools/wordpool_categorized_EN.txt	SPARROW	Birds	2	19	[0, 0, 0]	n/a	catFR1	0	R1230J
2794.542	0.899	2657738	WORD_OFF	n/a	n/a	SPARROW	n/a	2	19	[0, 0, 0]	n/a	catFR1	0	R1230J
2795.441	1.617	2658637	WORD	n/a	wordpools/wordpool_categorized_EN.txt	CRAB	OceanAnimals	3	19	[0, 0, 0]	n/a	catFR1	0	R1230J
2797.058	0.883	2660254	WORD_OFF	n/a	n/a	CRAB	n/a	3	19	[0, 0, 0]	n/a	catFR1	0	R1230J
2797.941	1.601	2661137	WORD	n/a	wordpools/wordpool_categorized_EN.txt	LOBSTER	OceanAnimals	4	19	[0, 0, 0]	n/a	catFR1	0	R1230J
2799.542	0.934	2662738	WORD_OFF	n/a	n/a	LOBSTER	n/a	4	19	[0, 0, 0]	n/a	catFR1	0	R1230J
2800.476	1.616	2663672	WORD	n/a	wordpools/wordpool_categorized_EN.txt	ORGAN	Instruments	5	19	[0, 0, 0]	n/a	catFR1	0	R1230J
2802.092	0.833	2665288	WORD_OFF	n/a	n/a	ORGAN	n/a	5	19	[0, 0, 0]	n/a	catFR1	0	R1230J
2802.925	1.618	2666121	WORD	n/a	wordpools/wordpool_categorized_EN.txt	PIANO	Instruments	6	19	[0, 0, 0]	n/a	catFR1	0	R1230J
2804.543	0.8	2667739	WORD_OFF	n/a	n/a	PIANO	n/a	6	19	[0, 0, 0]	n/a	catFR1	0	R1230J
2805.343	1.616	2668539	WORD	n/a	wordpools/wordpool_categorized_EN.txt	OYSTER	OceanAnimals	7	19	[0, 0, 0]	n/a	catFR1	0	R1230J
2806.959	0.867	2670155	WORD_OFF	n/a	n/a	OYSTER	n/a	7	19	[0, 0, 0]	n/a	catFR1	0	R1230J
2807.826	1.618	2671022	WORD	n/a	wordpools/wordpool_categorized_EN.txt	DOLPHIN	OceanAnimals	8	19	[0, 0, 0]	n/a	catFR1	0	R1230J
2809.444	0.9	2672640	WORD_OFF	n/a	n/a	DOLPHIN	n/a	8	19	[0, 0, 0]	n/a	catFR1	0	R1230J
2810.344	1.616	2673540	WORD	n/a	wordpools/wordpool_categorized_EN.txt	ROBIN	Birds	9	19	[0, 0, 0]	n/a	catFR1	0	R1230J
2811.96	0.883	2675156	WORD_OFF	n/a	n/a	ROBIN	n/a	9	19	[0, 0, 0]	n/a	catFR1	0	R1230J
2812.843	1.601	2676039	WORD	n/a	wordpools/wordpool_categorized_EN.txt	CROW	Birds	10	19	[0, 0, 0]	n/a	catFR1	0	R1230J
2814.444	0.984	2677640	WORD_OFF	n/a	n/a	CROW	n/a	10	19	[0, 0, 0]	n/a	catFR1	0	R1230J
2815.428	1.615	2678624	WORD	n/a	wordpools/wordpool_categorized_EN.txt	TRUMPET	Instruments	11	19	[0, 0, 0]	n/a	catFR1	0	R1230J
2817.043	0.951	2680239	WORD_OFF	n/a	n/a	TRUMPET	n/a	11	19	[0, 0, 0]	n/a	catFR1	0	R1230J
2817.994	1.618	2681190	WORD	n/a	wordpools/wordpool_categorized_EN.txt	DRUM	Instruments	12	19	[0, 0, 0]	n/a	catFR1	0	R1230J
2819.612	0.0	2682808	ENCODING_END	n/a	n/a	n/a	n/a	-999	19	[0, 0, 0]	n/a	catFR1	0	R1230J
2819.612	0.097	2682808	WORD_OFF	n/a	n/a	DRUM	n/a	12	19	[0, 0, 0]	n/a	catFR1	0	R1230J
2819.709	0.0	2682905	DISTRACT_START	n/a	n/a	n/a	n/a	-999	19	[0, 0, 0]	n/a	catFR1	0	R1230J
2819.709	0.018	2682905	START	n/a	n/a	n/a	n/a	-999	19	[-999, -999, -999]	n/a	catFR1	0	R1230J
2819.727	2.868	2682923	PROB	2.835	n/a	n/a	n/a	-999	19	[4, 2, 6]	12.0	catFR1	0	R1230J
2822.595	5.15	2685791	PROB	5.117	n/a	n/a	n/a	-999	19	[2, 7, 5]	14.0	catFR1	0	R1230J
2827.745	2.367	2690941	PROB	2.335	n/a	n/a	n/a	-999	19	[5, 6, 2]	13.0	catFR1	0	R1230J
2830.112	2.784	2693308	PROB	2.76	n/a	n/a	n/a	-999	19	[2, 1, 6]	9.0	catFR1	0	R1230J
2832.896	2.85	2696092	PROB	2.823	n/a	n/a	n/a	-999	19	[4, 4, 3]	11.0	catFR1	0	R1230J
2835.746	2.751	2698942	PROB	2.727	n/a	n/a	n/a	-999	19	[3, 5, 1]	9.0	catFR1	0	R1230J
2838.497	2.976	2701693	PROB	2.976	n/a	n/a	n/a	-999	19	[4, 2, 2]	10.0	catFR1	0	R1230J
2841.473	0.008	2704669	STOP	n/a	n/a	n/a	n/a	-999	19	[-999, -999, -999]	n/a	catFR1	0	R1230J
2841.481	0.599	2704677	DISTRACT_END	n/a	n/a	n/a	n/a	-999	19	[0, 0, 0]	n/a	catFR1	0	R1230J
2842.08	0.519	2705276	RETRIEVAL_ORIENT	n/a	n/a	n/a	n/a	-999	19	[0, 0, 0]	n/a	catFR1	0	R1230J
2842.599	0.887	2705795	REC_START	n/a	n/a	n/a	n/a	-999	19	[0, 0, 0]	n/a	catFR1	0	R1230J
2843.486	0.086	2706682	REC_WORD_VV	0.887	n/a	<>	n/a	-999	19	[0, 0, 0]	n/a	catFR1	0	R1230J
2843.572	1.903	2706768	REC_WORD	0.973	n/a	SPARROW	Birds	2	19	[0, 0, 0]	n/a	catFR1	0	R1230J
2845.475	0.09	2708671	REC_WORD_VV	2.876	n/a	<>	n/a	-999	19	[0, 0, 0]	n/a	catFR1	0	R1230J
2845.565	2.138	2708761	REC_WORD	2.966	n/a	FINCH	Birds	1	19	[0, 0, 0]	n/a	catFR1	0	R1230J
2847.703	0.15	2710899	REC_WORD_VV	5.104	n/a	<>	n/a	-999	19	[0, 0, 0]	n/a	catFR1	0	R1230J
2847.853	1.433	2711049	REC_WORD	5.254	n/a	CRAB	OceanAnimals	3	19	[0, 0, 0]	n/a	catFR1	0	R1230J
2849.286	0.095	2712482	REC_WORD_VV	6.687	n/a	<>	n/a	-999	19	[0, 0, 0]	n/a	catFR1	0	R1230J
2849.381	2.747	2712577	REC_WORD	6.782	n/a	LOBSTER	OceanAnimals	4	19	[0, 0, 0]	n/a	catFR1	0	R1230J
2852.128	1.457	2715324	REC_WORD_VV	9.529	n/a	<>	n/a	-999	19	[0, 0, 0]	n/a	catFR1	0	R1230J
2853.585	1.431	2716781	REC_WORD	10.986	n/a	DRUM	Instruments	12	19	[0, 0, 0]	n/a	catFR1	0	R1230J
