onset	duration	sample	trial_type	response_time	stim_file	item_name	category	serialpos	list	test	answer	experiment	session	subject
0.0	0.915	245557	INSTRUCT_START	n/a	n/a	n/a	n/a	-999	-999	[0, 0, 0]	n/a	catFR1	5	R1495J
0.915	30.652	246473	INSTRUCT_END	n/a	n/a	n/a	n/a	-999	-999	[0, 0, 0]	n/a	catFR1	5	R1495J
31.567	10.35	277123	COUNTDOWN_START	n/a	n/a	n/a	n/a	-999	-999	[0, 0, 0]	n/a	catFR1	5	R1495J
41.917	0.0	287476	COUNTDOWN_END	n/a	n/a	n/a	n/a	-999	-999	[0, 0, 0]	n/a	catFR1	5	R1495J
41.917	1.899	287476	ENCODING_START	n/a	n/a	n/a	n/a	-999	-1	[0, 0, 0]	n/a	catFR1	5	R1495J
43.816	1.601	289371	WORD	n/a	n/a	SHRIMP	OceanAnimals	1	-1	[0, 0, 0]	n/a	catFR1	5	R1495J
45.417	0.85	290973	WORD_OFF	n/a	n/a	SHRIMP	OceanAnimals	1	-1	[0, 0, 0]	n/a	catFR1	5	R1495J
46.267	1.616	291825	WORD	n/a	n/a	DOLPHIN	OceanAnimals	2	-1	[0, 0, 0]	n/a	catFR1	5	R1495J
47.883	0.951	293441	WORD_OFF	n/a	n/a	DOLPHIN	OceanAnimals	2	-1	[0, 0, 0]	n/a	catFR1	5	R1495J
48.834	1.616	294382	WORD	n/a	n/a	MOSQUITO	Insects	3	-1	[0, 0, 0]	n/a	catFR1	5	R1495J
50.45	0.933	295997	WORD_OFF	n/a	n/a	MOSQUITO	Insects	3	-1	[0, 0, 0]	n/a	catFR1	5	R1495J
51.383	1.617	296938	WORD	n/a	n/a	CRICKET	Insects	4	-1	[0, 0, 0]	n/a	catFR1	5	R1495J
53.0	0.783	298553	WORD_OFF	n/a	n/a	CRICKET	Insects	4	-1	[0, 0, 0]	n/a	catFR1	5	R1495J
53.783	1.616	299342	WORD	n/a	n/a	IRON	Appliances	5	-1	[0, 0, 0]	n/a	catFR1	5	R1495J
55.399	0.867	300957	WORD_OFF	n/a	n/a	IRON	Appliances	5	-1	[0, 0, 0]	n/a	catFR1	5	R1495J
56.266	1.617	301822	WORD	n/a	n/a	DISHWASHER	Appliances	6	-1	[0, 0, 0]	n/a	catFR1	5	R1495J
57.883	1.0	303437	WORD_OFF	n/a	n/a	DISHWASHER	Appliances	6	-1	[0, 0, 0]	n/a	catFR1	5	R1495J
58.883	1.617	304442	WORD	n/a	n/a	TURTLE	OceanAnimals	7	-1	[0, 0, 0]	n/a	catFR1	5	R1495J
60.5	0.833	306057	WORD_OFF	n/a	n/a	TURTLE	OceanAnimals	7	-1	[0, 0, 0]	n/a	catFR1	5	R1495J
61.333	1.616	306883	WORD	n/a	n/a	WHALE	OceanAnimals	8	-1	[0, 0, 0]	n/a	catFR1	5	R1495J
62.949	0.867	308499	WORD_OFF	n/a	n/a	WHALE	OceanAnimals	8	-1	[0, 0, 0]	n/a	catFR1	5	R1495J
63.816	1.616	309363	WORD	n/a	n/a	BUTTERFLY	Insects	9	-1	[0, 0, 0]	n/a	catFR1	5	R1495J
65.432	0.767	310979	WORD_OFF	n/a	n/a	BUTTERFLY	Insects	9	-1	[0, 0, 0]	n/a	catFR1	5	R1495J
66.199	1.601	311754	WORD	n/a	n/a	MOTH	Insects	10	-1	[0, 0, 0]	n/a	catFR1	5	R1495J
67.8	0.765	313357	WORD_OFF	n/a	n/a	MOTH	Insects	10	-1	[0, 0, 0]	n/a	catFR1	5	R1495J
68.565	1.617	314120	WORD	n/a	n/a	TOASTER	Appliances	11	-1	[0, 0, 0]	n/a	catFR1	5	R1495J
70.182	0.85	315735	WORD_OFF	n/a	n/a	TOASTER	Appliances	11	-1	[0, 0, 0]	n/a	catFR1	5	R1495J
71.032	1.601	316587	WORD	n/a	n/a	WASHER	Appliances	12	-1	[0, 0, 0]	n/a	catFR1	5	R1495J
72.633	0.0	318184	START	n/a	n/a	n/a	n/a	-999	-1	[-999, -999, -999]	n/a	catFR1	5	R1495J
72.633	0.0	318184	PROB	0.0	n/a	n/a	n/a	-999	-1	[6, 8, 4]	18	catFR1	5	R1495J
72.632	0.001	318190	WORD_OFF	n/a	n/a	WASHER	Appliances	12	-1	[0, 0, 0]	n/a	catFR1	5	R1495J
72.633	0.0	318190	ENCODING_END	n/a	n/a	n/a	n/a	-999	-1	[0, 0, 0]	n/a	catFR1	5	R1495J
72.633	2.916	318190	DISTRACT_START	n/a	n/a	n/a	n/a	-999	-1	[0, 0, 0]	n/a	catFR1	5	R1495J
75.549	4.433	321100	PROB	4.433	n/a	n/a	n/a	-999	-1	[1, 7, 6]	14	catFR1	5	R1495J
79.982	2.117	325533	PROB	2.117	n/a	n/a	n/a	-999	-1	[6, 3, 4]	13	catFR1	5	R1495J
82.099	2.7	327650	PROB	2.7	n/a	n/a	n/a	-999	-1	[2, 5, 3]	10	catFR1	5	R1495J
84.799	2.1	330350	PROB	2.1	n/a	n/a	n/a	-999	-1	[5, 5, 2]	12	catFR1	5	R1495J
86.899	4.567	332450	PROB	4.567	n/a	n/a	n/a	-999	-1	[3, 4, 5]	12	catFR1	5	R1495J
91.466	2.034	337017	PROB	2.034	n/a	n/a	n/a	-999	-1	[8, 3, 2]	13	catFR1	5	R1495J
93.5	0.0	339047	DISTRACT_END	n/a	n/a	n/a	n/a	-999	-1	[0, 0, 0]	n/a	catFR1	5	R1495J
93.5	2.399	339051	STOP	n/a	n/a	n/a	n/a	-999	-1	[-999, -999, -999]	n/a	catFR1	5	R1495J
95.899	0.32	341446	REC_START	n/a	n/a	n/a	n/a	-999	-1	[0, 0, 0]	n/a	catFR1	5	R1495J
96.219	6.103	341770	REC_WORD	6.103	n/a	MOSQUITO	Insects	3	-1	[0, 0, 0]	n/a	catFR1	5	R1495J
102.322	10.238	347872	REC_WORD	10.238	n/a	MOTH	Insects	10	-1	[0, 0, 0]	n/a	catFR1	5	R1495J
112.56	1.392	358110	REC_WORD	1.392	n/a	DISHWASHER	Appliances	6	-1	[0, 0, 0]	n/a	catFR1	5	R1495J
113.952	12.133	359502	REC_WORD	12.133	n/a	IRON	Appliances	5	-1	[0, 0, 0]	n/a	catFR1	5	R1495J
126.085	4.766	371630	REC_END	n/a	n/a	n/a	n/a	-999	-1	[0, 0, 0]	n/a	catFR1	5	R1495J
130.851	10.349	376400	COUNTDOWN_START	n/a	n/a	n/a	n/a	-999	1	[0, 0, 0]	n/a	catFR1	5	R1495J
141.2	0.0	386752	COUNTDOWN_END	n/a	n/a	n/a	n/a	-999	1	[0, 0, 0]	n/a	catFR1	5	R1495J
141.2	2.133	386752	ENCODING_START	n/a	n/a	n/a	n/a	-999	1	[0, 0, 0]	n/a	catFR1	5	R1495J
143.333	1.601	388889	WORD	n/a	wordpools/wordpool_categorized_EN.txt	LADYBUG	Insects	1	1	[0, 0, 0]	n/a	catFR1	5	R1495J
144.934	0.981	390478	WORD_OFF	n/a	n/a	LADYBUG	Insects	1	1	[0, 0, 0]	n/a	catFR1	5	R1495J
145.915	1.603	391470	WORD	n/a	wordpools/wordpool_categorized_EN.txt	SPIDER	Insects	2	1	[0, 0, 0]	n/a	catFR1	5	R1495J
147.518	0.765	393060	WORD_OFF	n/a	n/a	SPIDER	Insects	2	1	[0, 0, 0]	n/a	catFR1	5	R1495J
148.283	1.616	393836	WORD	n/a	wordpools/wordpool_categorized_EN.txt	COOKIE	Desserts	3	1	[0, 0, 0]	n/a	catFR1	5	R1495J
149.899	0.884	395451	WORD_OFF	n/a	n/a	COOKIE	Desserts	3	1	[0, 0, 0]	n/a	catFR1	5	R1495J
150.783	1.617	396329	WORD	n/a	wordpools/wordpool_categorized_EN.txt	MOUSSE	Desserts	4	1	[0, 0, 0]	n/a	catFR1	5	R1495J
152.4	0.966	397944	WORD_OFF	n/a	n/a	MOUSSE	Desserts	4	1	[0, 0, 0]	n/a	catFR1	5	R1495J
153.366	1.6	398910	WORD	n/a	wordpools/wordpool_categorized_EN.txt	TIGER	Zoo	5	1	[0, 0, 0]	n/a	catFR1	5	R1495J
154.966	0.917	400513	WORD_OFF	n/a	n/a	TIGER	Zoo	5	1	[0, 0, 0]	n/a	catFR1	5	R1495J
155.883	1.6	401429	WORD	n/a	wordpools/wordpool_categorized_EN.txt	CHEETAH	Zoo	6	1	[0, 0, 0]	n/a	catFR1	5	R1495J
157.483	0.817	403031	WORD_OFF	n/a	n/a	CHEETAH	Zoo	6	1	[0, 0, 0]	n/a	catFR1	5	R1495J
158.3	1.616	403845	WORD	n/a	wordpools/wordpool_categorized_EN.txt	FUDGE	Desserts	7	1	[0, 0, 0]	n/a	catFR1	5	R1495J
159.916	0.834	405460	WORD_OFF	n/a	n/a	FUDGE	Desserts	7	1	[0, 0, 0]	n/a	catFR1	5	R1495J
160.75	1.616	406300	WORD	n/a	wordpools/wordpool_categorized_EN.txt	COBBLER	Desserts	8	1	[0, 0, 0]	n/a	catFR1	5	R1495J
162.366	0.883	407915	WORD_OFF	n/a	n/a	COBBLER	Desserts	8	1	[0, 0, 0]	n/a	catFR1	5	R1495J
163.249	1.6	408792	WORD	n/a	wordpools/wordpool_categorized_EN.txt	ZEBRA	Zoo	9	1	[0, 0, 0]	n/a	catFR1	5	R1495J
164.849	0.783	410395	WORD_OFF	n/a	n/a	ZEBRA	Zoo	9	1	[0, 0, 0]	n/a	catFR1	5	R1495J
165.632	1.602	411183	WORD	n/a	wordpools/wordpool_categorized_EN.txt	PANDA	Zoo	10	1	[0, 0, 0]	n/a	catFR1	5	R1495J
167.234	0.865	412786	WORD_OFF	n/a	n/a	PANDA	Zoo	10	1	[0, 0, 0]	n/a	catFR1	5	R1495J
168.099	1.616	413650	WORD	n/a	wordpools/wordpool_categorized_EN.txt	GNAT	Insects	11	1	[0, 0, 0]	n/a	catFR1	5	R1495J
169.715	0.917	415266	WORD_OFF	n/a	n/a	GNAT	Insects	11	1	[0, 0, 0]	n/a	catFR1	5	R1495J
170.632	1.617	416181	WORD	n/a	wordpools/wordpool_categorized_EN.txt	BEE	Insects	12	1	[0, 0, 0]	n/a	catFR1	5	R1495J
172.249	0.0	417796	START	n/a	n/a	n/a	n/a	-999	1	[-999, -999, -999]	n/a	catFR1	5	R1495J
172.249	0.0	417796	PROB	0.0	n/a	n/a	n/a	-999	1	[4, 6, 7]	17	catFR1	5	R1495J
172.248	0.001	417797	WORD_OFF	n/a	n/a	BEE	Insects	12	1	[0, 0, 0]	n/a	catFR1	5	R1495J
172.249	0.0	417797	ENCODING_END	n/a	n/a	n/a	n/a	-999	1	[0, 0, 0]	n/a	catFR1	5	R1495J
172.249	3.017	417797	DISTRACT_START	n/a	n/a	n/a	n/a	-999	1	[0, 0, 0]	n/a	catFR1	5	R1495J
175.266	3.134	420813	PROB	3.134	n/a	n/a	n/a	-999	1	[3, 4, 8]	15	catFR1	5	R1495J
178.4	2.349	423947	PROB	2.349	n/a	n/a	n/a	-999	1	[1, 2, 7]	10	catFR1	5	R1495J
180.749	2.1	426296	PROB	2.1	n/a	n/a	n/a	-999	1	[1, 5, 2]	8	catFR1	5	R1495J
182.849	2.516	428396	PROB	2.516	n/a	n/a	n/a	-999	1	[2, 3, 8]	13	catFR1	5	R1495J
185.365	3.752	430912	PROB	3.752	n/a	n/a	n/a	-999	1	[7, 6, 1]	14	catFR1	5	R1495J
189.117	2.516	434664	PROB	2.516	n/a	n/a	n/a	-999	1	[5, 4, 4]	13	catFR1	5	R1495J
191.633	2.383	437179	PROB	2.383	n/a	n/a	n/a	-999	1	[6, 4, 8]	18	catFR1	5	R1495J
194.016	0.0	439557	DISTRACT_END	n/a	n/a	n/a	n/a	-999	1	[0, 0, 0]	n/a	catFR1	5	R1495J
194.016	2.048	439562	STOP	n/a	n/a	n/a	n/a	-999	1	[-999, -999, -999]	n/a	catFR1	5	R1495J
196.064	0.487	441612	REC_START	n/a	n/a	n/a	n/a	-999	1	[0, 0, 0]	n/a	catFR1	5	R1495J
196.551	0.753	442097	REC_WORD	0.753	n/a	GNAT	Insects	11	1	[0, 0, 0]	n/a	catFR1	5	R1495J
197.304	28.942	442850	REC_WORD	28.942	n/a	ZEBRA	Zoo	9	1	[0, 0, 0]	n/a	catFR1	5	R1495J
226.246	1.538	471797	REC_END	n/a	n/a	n/a	n/a	-999	1	[0, 0, 0]	n/a	catFR1	5	R1495J
227.784	10.349	473336	COUNTDOWN_START	n/a	n/a	n/a	n/a	-999	2	[0, 0, 0]	n/a	catFR1	5	R1495J
238.133	0.0	483675	COUNTDOWN_END	n/a	n/a	n/a	n/a	-999	2	[0, 0, 0]	n/a	catFR1	5	R1495J
238.133	2.117	483675	ENCODING_START	n/a	n/a	n/a	n/a	-999	2	[0, 0, 0]	n/a	catFR1	5	R1495J
240.25	1.616	485799	WORD	n/a	wordpools/wordpool_categorized_EN.txt	BROWNIES	Desserts	1	2	[0, 0, 0]	n/a	catFR1	5	R1495J
241.866	0.884	487414	WORD_OFF	n/a	n/a	BROWNIES	Desserts	1	2	[0, 0, 0]	n/a	catFR1	5	R1495J
242.75	1.617	488292	WORD	n/a	wordpools/wordpool_categorized_EN.txt	CUPCAKE	Desserts	2	2	[0, 0, 0]	n/a	catFR1	5	R1495J
244.367	0.833	489907	WORD_OFF	n/a	n/a	CUPCAKE	Desserts	2	2	[0, 0, 0]	n/a	catFR1	5	R1495J
245.2	1.6	490747	WORD	n/a	wordpools/wordpool_categorized_EN.txt	ORANGUTAN	Zoo	3	2	[0, 0, 0]	n/a	catFR1	5	R1495J
246.8	0.766	492349	WORD_OFF	n/a	n/a	ORANGUTAN	Zoo	3	2	[0, 0, 0]	n/a	catFR1	5	R1495J
247.566	1.617	493112	WORD	n/a	wordpools/wordpool_categorized_EN.txt	BEAR	Zoo	4	2	[0, 0, 0]	n/a	catFR1	5	R1495J
249.183	0.966	494727	WORD_OFF	n/a	n/a	BEAR	Zoo	4	2	[0, 0, 0]	n/a	catFR1	5	R1495J
250.149	1.601	495694	WORD	n/a	wordpools/wordpool_categorized_EN.txt	KNIFE	KitchenTools	5	2	[0, 0, 0]	n/a	catFR1	5	R1495J
251.75	0.883	497296	WORD_OFF	n/a	n/a	KNIFE	KitchenTools	5	2	[0, 0, 0]	n/a	catFR1	5	R1495J
252.633	1.6	498174	WORD	n/a	wordpools/wordpool_categorized_EN.txt	TONGS	KitchenTools	6	2	[0, 0, 0]	n/a	catFR1	5	R1495J
254.233	0.833	499776	WORD_OFF	n/a	n/a	TONGS	KitchenTools	6	2	[0, 0, 0]	n/a	catFR1	5	R1495J
255.066	1.618	500616	WORD	n/a	wordpools/wordpool_categorized_EN.txt	GIRAFFE	Zoo	7	2	[0, 0, 0]	n/a	catFR1	5	R1495J
256.684	0.815	502231	WORD_OFF	n/a	n/a	GIRAFFE	Zoo	7	2	[0, 0, 0]	n/a	catFR1	5	R1495J
257.499	1.6	503045	WORD	n/a	wordpools/wordpool_categorized_EN.txt	ELEPHANT	Zoo	8	2	[0, 0, 0]	n/a	catFR1	5	R1495J
259.099	0.9	504647	WORD_OFF	n/a	n/a	ELEPHANT	Zoo	8	2	[0, 0, 0]	n/a	catFR1	5	R1495J
259.999	1.616	505538	WORD	n/a	wordpools/wordpool_categorized_EN.txt	PUDDING	Desserts	9	2	[0, 0, 0]	n/a	catFR1	5	R1495J
261.615	1.0	507165	WORD_OFF	n/a	n/a	PUDDING	Desserts	9	2	[0, 0, 0]	n/a	catFR1	5	R1495J
262.615	1.617	508157	WORD	n/a	wordpools/wordpool_categorized_EN.txt	CHEESECAKE	Desserts	10	2	[0, 0, 0]	n/a	catFR1	5	R1495J
264.232	0.867	509773	WORD_OFF	n/a	n/a	CHEESECAKE	Desserts	10	2	[0, 0, 0]	n/a	catFR1	5	R1495J
265.099	1.617	510637	WORD	n/a	wordpools/wordpool_categorized_EN.txt	FORK	KitchenTools	11	2	[0, 0, 0]	n/a	catFR1	5	R1495J
266.716	0.882	512265	WORD_OFF	n/a	n/a	FORK	KitchenTools	11	2	[0, 0, 0]	n/a	catFR1	5	R1495J
267.598	1.6	513143	WORD	n/a	wordpools/wordpool_categorized_EN.txt	CORKSCREW	KitchenTools	12	2	[0, 0, 0]	n/a	catFR1	5	R1495J
269.198	0.001	514741	PROB	0.001	n/a	n/a	n/a	-999	2	[5, 1, 4]	10	catFR1	5	R1495J
269.199	0.0	514742	START	n/a	n/a	n/a	n/a	-999	2	[-999, -999, -999]	n/a	catFR1	5	R1495J
269.198	0.001	514745	WORD_OFF	n/a	n/a	CORKSCREW	KitchenTools	12	2	[0, 0, 0]	n/a	catFR1	5	R1495J
269.199	0.0	514745	ENCODING_END	n/a	n/a	n/a	n/a	-999	2	[0, 0, 0]	n/a	catFR1	5	R1495J
269.199	3.284	514745	DISTRACT_START	n/a	n/a	n/a	n/a	-999	2	[0, 0, 0]	n/a	catFR1	5	R1495J
272.483	2.716	518026	PROB	2.716	n/a	n/a	n/a	-999	2	[4, 7, 2]	13	catFR1	5	R1495J
275.199	3.85	520742	PROB	3.85	n/a	n/a	n/a	-999	2	[2, 7, 5]	14	catFR1	5	R1495J
279.049	2.851	524592	PROB	2.851	n/a	n/a	n/a	-999	2	[5, 8, 7]	20	catFR1	5	R1495J
281.9	5.299	527443	PROB	5.299	n/a	n/a	n/a	-999	2	[2, 7, 4]	13	catFR1	5	R1495J
287.199	2.265	532741	PROB	2.265	n/a	n/a	n/a	-999	2	[7, 2, 2]	11	catFR1	5	R1495J
289.464	0.0	535005	DISTRACT_END	n/a	n/a	n/a	n/a	-999	2	[0, 0, 0]	n/a	catFR1	5	R1495J
289.464	2.252	535006	STOP	n/a	n/a	n/a	n/a	-999	2	[-999, -999, -999]	n/a	catFR1	5	R1495J
291.716	0.533	537264	REC_START	n/a	n/a	n/a	n/a	-999	2	[0, 0, 0]	n/a	catFR1	5	R1495J
292.249	0.577	537791	REC_WORD	0.577	n/a	ELEPHANT	Zoo	8	2	[0, 0, 0]	n/a	catFR1	5	R1495J
292.826	1.829	538368	REC_WORD	1.829	n/a	GIRAFFE	Zoo	7	2	[0, 0, 0]	n/a	catFR1	5	R1495J
294.655	1.901	540197	REC_WORD	1.901	n/a	CORKSCREW	KitchenTools	12	2	[0, 0, 0]	n/a	catFR1	5	R1495J
296.556	3.868	542098	REC_WORD	3.868	n/a	FORK	KitchenTools	11	2	[0, 0, 0]	n/a	catFR1	5	R1495J
300.424	2.471	545966	REC_WORD	2.471	n/a	KNIFE	KitchenTools	5	2	[0, 0, 0]	n/a	catFR1	5	R1495J
302.895	0.938	548437	REC_WORD	0.938	n/a	BROWNIES	Desserts	1	2	[0, 0, 0]	n/a	catFR1	5	R1495J
303.833	4.143	549375	REC_WORD	4.143	n/a	CUPCAKE	Desserts	2	2	[0, 0, 0]	n/a	catFR1	5	R1495J
307.976	13.96	553518	REC_WORD	13.96	n/a	FUDGE	Desserts	-999	2	[0, 0, 0]	n/a	catFR1	5	R1495J
321.936	1.262	567474	REC_END	n/a	n/a	n/a	n/a	-999	2	[0, 0, 0]	n/a	catFR1	5	R1495J
323.198	10.352	568746	COUNTDOWN_START	n/a	n/a	n/a	n/a	-999	3	[0, 0, 0]	n/a	catFR1	5	R1495J
333.55	0.0	579085	COUNTDOWN_END	n/a	n/a	n/a	n/a	-999	3	[0, 0, 0]	n/a	catFR1	5	R1495J
333.55	2.234	579098	ENCODING_START	n/a	n/a	n/a	n/a	-999	3	[0, 0, 0]	n/a	catFR1	5	R1495J
335.784	1.616	581324	WORD	n/a	wordpools/wordpool_categorized_EN.txt	HAND	BodyParts	1	3	[0, 0, 0]	n/a	catFR1	5	R1495J
337.4	0.882	582939	WORD_OFF	n/a	n/a	HAND	BodyParts	1	3	[0, 0, 0]	n/a	catFR1	5	R1495J
338.282	1.602	583829	WORD	n/a	wordpools/wordpool_categorized_EN.txt	EAR	BodyParts	2	3	[0, 0, 0]	n/a	catFR1	5	R1495J
339.884	0.832	585419	WORD_OFF	n/a	n/a	EAR	BodyParts	2	3	[0, 0, 0]	n/a	catFR1	5	R1495J
340.716	1.6	586258	WORD	n/a	wordpools/wordpool_categorized_EN.txt	BED	Furniture	3	3	[0, 0, 0]	n/a	catFR1	5	R1495J
342.316	0.85	587861	WORD_OFF	n/a	n/a	BED	Furniture	3	3	[0, 0, 0]	n/a	catFR1	5	R1495J
343.166	1.601	588713	WORD	n/a	wordpools/wordpool_categorized_EN.txt	DESK	Furniture	4	3	[0, 0, 0]	n/a	catFR1	5	R1495J
344.767	0.966	590303	WORD_OFF	n/a	n/a	DESK	Furniture	4	3	[0, 0, 0]	n/a	catFR1	5	R1495J
345.733	1.616	591269	WORD	n/a	wordpools/wordpool_categorized_EN.txt	DENIM	Fabric	5	3	[0, 0, 0]	n/a	catFR1	5	R1495J
347.349	0.767	592884	WORD_OFF	n/a	n/a	DENIM	Fabric	5	3	[0, 0, 0]	n/a	catFR1	5	R1495J
348.116	1.616	593660	WORD	n/a	wordpools/wordpool_categorized_EN.txt	FLEECE	Fabric	6	3	[0, 0, 0]	n/a	catFR1	5	R1495J
349.732	0.951	595275	WORD_OFF	n/a	n/a	FLEECE	Fabric	6	3	[0, 0, 0]	n/a	catFR1	5	R1495J
350.683	1.6	596229	WORD	n/a	wordpools/wordpool_categorized_EN.txt	EYE	BodyParts	7	3	[0, 0, 0]	n/a	catFR1	5	R1495J
352.283	0.883	597819	WORD_OFF	n/a	n/a	EYE	BodyParts	7	3	[0, 0, 0]	n/a	catFR1	5	R1495J
353.166	1.616	598709	WORD	n/a	wordpools/wordpool_categorized_EN.txt	ARM	BodyParts	8	3	[0, 0, 0]	n/a	catFR1	5	R1495J
354.782	0.817	600324	WORD_OFF	n/a	n/a	ARM	BodyParts	8	3	[0, 0, 0]	n/a	catFR1	5	R1495J
355.599	1.6	601138	WORD	n/a	wordpools/wordpool_categorized_EN.txt	SUEDE	Fabric	9	3	[0, 0, 0]	n/a	catFR1	5	R1495J
357.199	0.85	602741	WORD_OFF	n/a	n/a	SUEDE	Fabric	9	3	[0, 0, 0]	n/a	catFR1	5	R1495J
358.049	1.6	603593	WORD	n/a	wordpools/wordpool_categorized_EN.txt	LEATHER	Fabric	10	3	[0, 0, 0]	n/a	catFR1	5	R1495J
359.649	0.983	605195	WORD_OFF	n/a	n/a	LEATHER	Fabric	10	3	[0, 0, 0]	n/a	catFR1	5	R1495J
360.632	1.6	606175	WORD	n/a	wordpools/wordpool_categorized_EN.txt	NIGHTSTAND	Furniture	11	3	[0, 0, 0]	n/a	catFR1	5	R1495J
362.232	1.001	607777	WORD_OFF	n/a	n/a	NIGHTSTAND	Furniture	11	3	[0, 0, 0]	n/a	catFR1	5	R1495J
363.233	1.6	608769	WORD	n/a	wordpools/wordpool_categorized_EN.txt	RECLINER	Furniture	12	3	[0, 0, 0]	n/a	catFR1	5	R1495J
364.833	0.002	610372	WORD_OFF	n/a	n/a	RECLINER	Furniture	12	3	[0, 0, 0]	n/a	catFR1	5	R1495J
364.835	0.0	610372	ENCODING_END	n/a	n/a	n/a	n/a	-999	3	[0, 0, 0]	n/a	catFR1	5	R1495J
364.835	0.0	610372	DISTRACT_START	n/a	n/a	n/a	n/a	-999	3	[0, 0, 0]	n/a	catFR1	5	R1495J
364.833	0.002	610372	PROB	0.002	n/a	n/a	n/a	-999	3	[3, 6, 7]	16	catFR1	5	R1495J
364.835	3.632	610374	START	n/a	n/a	n/a	n/a	-999	3	[-999, -999, -999]	n/a	catFR1	5	R1495J
368.467	2.716	614006	PROB	2.716	n/a	n/a	n/a	-999	3	[7, 1, 2]	10	catFR1	5	R1495J
371.183	2.983	616722	PROB	2.983	n/a	n/a	n/a	-999	3	[6, 3, 3]	12	catFR1	5	R1495J
374.166	3.217	619705	PROB	3.217	n/a	n/a	n/a	-999	3	[1, 6, 7]	14	catFR1	5	R1495J
377.383	2.616	622922	PROB	2.616	n/a	n/a	n/a	-999	3	[6, 2, 2]	10	catFR1	5	R1495J
379.999	2.101	625537	PROB	2.101	n/a	n/a	n/a	-999	3	[1, 4, 1]	6	catFR1	5	R1495J
382.1	2.365	627638	PROB	2.365	n/a	n/a	n/a	-999	3	[4, 3, 1]	8	catFR1	5	R1495J
384.465	2.267	630003	PROB	2.267	n/a	n/a	n/a	-999	3	[1, 2, 1]	4	catFR1	5	R1495J
386.732	0.0	632270	STOP	n/a	n/a	n/a	n/a	-999	3	[-999, -999, -999]	n/a	catFR1	5	R1495J
386.732	2.383	632272	DISTRACT_END	n/a	n/a	n/a	n/a	-999	3	[0, 0, 0]	n/a	catFR1	5	R1495J
389.115	1.983	634658	REC_START	n/a	n/a	n/a	n/a	-999	3	[0, 0, 0]	n/a	catFR1	5	R1495J
391.098	0.996	636636	REC_WORD	0.996	n/a	RECLINER	Furniture	12	3	[0, 0, 0]	n/a	catFR1	5	R1495J
392.094	27.248	637632	REC_WORD	27.248	n/a	BED	Furniture	3	3	[0, 0, 0]	n/a	catFR1	5	R1495J
419.342	1.324	664881	REC_END	n/a	n/a	n/a	n/a	-999	3	[0, 0, 0]	n/a	catFR1	5	R1495J
420.666	10.35	666203	COUNTDOWN_START	n/a	n/a	n/a	n/a	-999	4	[0, 0, 0]	n/a	catFR1	5	R1495J
431.016	0.0	676556	COUNTDOWN_END	n/a	n/a	n/a	n/a	-999	4	[0, 0, 0]	n/a	catFR1	5	R1495J
431.016	1.951	676556	ENCODING_START	n/a	n/a	n/a	n/a	-999	4	[0, 0, 0]	n/a	catFR1	5	R1495J
432.967	1.617	678502	WORD	n/a	wordpools/wordpool_categorized_EN.txt	BATHROOM	Building	1	4	[0, 0, 0]	n/a	catFR1	5	R1495J
434.584	0.831	680117	WORD_OFF	n/a	n/a	BATHROOM	Building	1	4	[0, 0, 0]	n/a	catFR1	5	R1495J
435.415	1.601	680956	WORD	n/a	wordpools/wordpool_categorized_EN.txt	HALLWAY	Building	2	4	[0, 0, 0]	n/a	catFR1	5	R1495J
437.016	1.001	682559	WORD_OFF	n/a	n/a	HALLWAY	Building	2	4	[0, 0, 0]	n/a	catFR1	5	R1495J
438.017	1.616	683551	WORD	n/a	wordpools/wordpool_categorized_EN.txt	OVEN	Appliances	3	4	[0, 0, 0]	n/a	catFR1	5	R1495J
439.633	0.8	685166	WORD_OFF	n/a	n/a	OVEN	Appliances	3	4	[0, 0, 0]	n/a	catFR1	5	R1495J
440.433	1.6	685967	WORD	n/a	wordpools/wordpool_categorized_EN.txt	BLENDER	Appliances	4	4	[0, 0, 0]	n/a	catFR1	5	R1495J
442.033	0.967	687569	WORD_OFF	n/a	n/a	BLENDER	Appliances	4	4	[0, 0, 0]	n/a	catFR1	5	R1495J
443.0	1.616	688536	WORD	n/a	wordpools/wordpool_categorized_EN.txt	TURKEY	FarmAnimals	5	4	[0, 0, 0]	n/a	catFR1	5	R1495J
444.616	0.867	690151	WORD_OFF	n/a	n/a	TURKEY	FarmAnimals	5	4	[0, 0, 0]	n/a	catFR1	5	R1495J
445.483	1.617	691016	WORD	n/a	wordpools/wordpool_categorized_EN.txt	PIG	FarmAnimals	6	4	[0, 0, 0]	n/a	catFR1	5	R1495J
447.1	0.983	692631	WORD_OFF	n/a	n/a	PIG	FarmAnimals	6	4	[0, 0, 0]	n/a	catFR1	5	R1495J
448.083	1.617	693623	WORD	n/a	wordpools/wordpool_categorized_EN.txt	VACUUM	Appliances	7	4	[0, 0, 0]	n/a	catFR1	5	R1495J
449.7	0.833	695238	WORD_OFF	n/a	n/a	VACUUM	Appliances	7	4	[0, 0, 0]	n/a	catFR1	5	R1495J
450.533	1.617	696065	WORD	n/a	wordpools/wordpool_categorized_EN.txt	DRYER	Appliances	8	4	[0, 0, 0]	n/a	catFR1	5	R1495J
452.15	0.781	697680	WORD_OFF	n/a	n/a	DRYER	Appliances	8	4	[0, 0, 0]	n/a	catFR1	5	R1495J
452.931	1.601	698469	WORD	n/a	wordpools/wordpool_categorized_EN.txt	DOOR	Building	9	4	[0, 0, 0]	n/a	catFR1	5	R1495J
454.532	0.783	700071	WORD_OFF	n/a	n/a	DOOR	Building	9	4	[0, 0, 0]	n/a	catFR1	5	R1495J
455.315	1.601	700847	WORD	n/a	wordpools/wordpool_categorized_EN.txt	STAIRS	Building	10	4	[0, 0, 0]	n/a	catFR1	5	R1495J
456.916	0.766	702449	WORD_OFF	n/a	n/a	STAIRS	Building	10	4	[0, 0, 0]	n/a	catFR1	5	R1495J
457.682	1.617	703212	WORD	n/a	wordpools/wordpool_categorized_EN.txt	SHEEP	FarmAnimals	11	4	[0, 0, 0]	n/a	catFR1	5	R1495J
459.299	0.801	704840	WORD_OFF	n/a	n/a	SHEEP	FarmAnimals	11	4	[0, 0, 0]	n/a	catFR1	5	R1495J
460.1	1.616	705629	WORD	n/a	wordpools/wordpool_categorized_EN.txt	COW	FarmAnimals	12	4	[0, 0, 0]	n/a	catFR1	5	R1495J
461.716	0.0	707251	START	n/a	n/a	n/a	n/a	-999	4	[-999, -999, -999]	n/a	catFR1	5	R1495J
461.716	0.0	707251	PROB	0.0	n/a	n/a	n/a	-999	4	[2, 1, 4]	7	catFR1	5	R1495J
461.715	0.001	707257	WORD_OFF	n/a	n/a	COW	FarmAnimals	12	4	[0, 0, 0]	n/a	catFR1	5	R1495J
461.716	0.0	707257	ENCODING_END	n/a	n/a	n/a	n/a	-999	4	[0, 0, 0]	n/a	catFR1	5	R1495J
461.716	3.117	707257	DISTRACT_START	n/a	n/a	n/a	n/a	-999	4	[0, 0, 0]	n/a	catFR1	5	R1495J
464.833	2.502	710368	PROB	2.502	n/a	n/a	n/a	-999	4	[5, 4, 5]	14	catFR1	5	R1495J
467.335	3.264	712870	PROB	3.264	n/a	n/a	n/a	-999	4	[4, 6, 4]	14	catFR1	5	R1495J
470.599	2.232	716134	PROB	2.232	n/a	n/a	n/a	-999	4	[1, 6, 6]	13	catFR1	5	R1495J
472.831	2.552	718366	PROB	2.552	n/a	n/a	n/a	-999	4	[5, 4, 5]	14	catFR1	5	R1495J
475.383	2.416	720917	PROB	2.416	n/a	n/a	n/a	-999	4	[1, 5, 6]	12	catFR1	5	R1495J
477.799	5.784	723333	PROB	5.784	n/a	n/a	n/a	-999	4	[5, 3, 6]	14	catFR1	5	R1495J
483.583	0.0	729117	STOP	n/a	n/a	n/a	n/a	-999	4	[-999, -999, -999]	n/a	catFR1	5	R1495J
483.583	2.215	729119	DISTRACT_END	n/a	n/a	n/a	n/a	-999	4	[0, 0, 0]	n/a	catFR1	5	R1495J
485.798	1.03	731327	REC_START	n/a	n/a	n/a	n/a	-999	4	[0, 0, 0]	n/a	catFR1	5	R1495J
486.828	2.246	732362	REC_WORD	2.246	n/a	SHEEP	FarmAnimals	11	4	[0, 0, 0]	n/a	catFR1	5	R1495J
489.074	0.536	734608	REC_WORD	0.536	n/a	DOOR	Building	9	4	[0, 0, 0]	n/a	catFR1	5	R1495J
489.61	0.636	735144	REC_WORD	0.636	n/a	HALLWAY	Building	2	4	[0, 0, 0]	n/a	catFR1	5	R1495J
490.246	5.549	735780	REC_WORD	5.549	n/a	BATHROOM	Building	1	4	[0, 0, 0]	n/a	catFR1	5	R1495J
495.795	20.239	741329	REC_WORD	20.239	n/a	NIGHTSTAND	Furniture	-999	4	[0, 0, 0]	n/a	catFR1	5	R1495J
516.034	1.333	761562	REC_END	n/a	n/a	n/a	n/a	-999	4	[0, 0, 0]	n/a	catFR1	5	R1495J
517.367	10.349	762910	COUNTDOWN_START	n/a	n/a	n/a	n/a	-999	5	[0, 0, 0]	n/a	catFR1	5	R1495J
527.716	0.0	773250	COUNTDOWN_END	n/a	n/a	n/a	n/a	-999	5	[0, 0, 0]	n/a	catFR1	5	R1495J
527.716	2.367	773250	ENCODING_START	n/a	n/a	n/a	n/a	-999	5	[0, 0, 0]	n/a	catFR1	5	R1495J
530.083	1.617	775616	WORD	n/a	wordpools/wordpool_categorized_EN.txt	SCANNER	Electronics	1	5	[0, 0, 0]	n/a	catFR1	5	R1495J
531.7	0.984	777231	WORD_OFF	n/a	n/a	SCANNER	Electronics	1	5	[0, 0, 0]	n/a	catFR1	5	R1495J
532.684	1.615	778223	WORD	n/a	wordpools/wordpool_categorized_EN.txt	PRINTER	Electronics	2	5	[0, 0, 0]	n/a	catFR1	5	R1495J
534.299	0.883	779838	WORD_OFF	n/a	n/a	PRINTER	Electronics	2	5	[0, 0, 0]	n/a	catFR1	5	R1495J
535.182	1.601	780716	WORD	n/a	wordpools/wordpool_categorized_EN.txt	HEN	FarmAnimals	3	5	[0, 0, 0]	n/a	catFR1	5	R1495J
536.783	0.933	782318	WORD_OFF	n/a	n/a	HEN	FarmAnimals	3	5	[0, 0, 0]	n/a	catFR1	5	R1495J
537.716	1.6	783246	WORD	n/a	wordpools/wordpool_categorized_EN.txt	CALF	FarmAnimals	4	5	[0, 0, 0]	n/a	catFR1	5	R1495J
539.316	0.783	784849	WORD_OFF	n/a	n/a	CALF	FarmAnimals	4	5	[0, 0, 0]	n/a	catFR1	5	R1495J
540.099	1.601	785637	WORD	n/a	wordpools/wordpool_categorized_EN.txt	MOUNTAIN	Landscapes	5	5	[0, 0, 0]	n/a	catFR1	5	R1495J
541.7	0.882	787227	WORD_OFF	n/a	n/a	MOUNTAIN	Landscapes	5	5	[0, 0, 0]	n/a	catFR1	5	R1495J
542.582	1.601	788117	WORD	n/a	wordpools/wordpool_categorized_EN.txt	RIVER	Landscapes	6	5	[0, 0, 0]	n/a	catFR1	5	R1495J
544.183	0.883	789720	WORD_OFF	n/a	n/a	RIVER	Landscapes	6	5	[0, 0, 0]	n/a	catFR1	5	R1495J
545.066	1.616	790597	WORD	n/a	wordpools/wordpool_categorized_EN.txt	ROOSTER	FarmAnimals	7	5	[0, 0, 0]	n/a	catFR1	5	R1495J
546.682	0.817	792213	WORD_OFF	n/a	n/a	ROOSTER	FarmAnimals	7	5	[0, 0, 0]	n/a	catFR1	5	R1495J
547.499	1.6	793027	WORD	n/a	wordpools/wordpool_categorized_EN.txt	CHICKEN	FarmAnimals	8	5	[0, 0, 0]	n/a	catFR1	5	R1495J
549.099	1.0	794629	WORD_OFF	n/a	n/a	CHICKEN	FarmAnimals	8	5	[0, 0, 0]	n/a	catFR1	5	R1495J
550.099	1.6	795634	WORD	n/a	wordpools/wordpool_categorized_EN.txt	LAKE	Landscapes	9	5	[0, 0, 0]	n/a	catFR1	5	R1495J
551.699	0.966	797236	WORD_OFF	n/a	n/a	LAKE	Landscapes	9	5	[0, 0, 0]	n/a	catFR1	5	R1495J
552.665	1.6	798203	WORD	n/a	wordpools/wordpool_categorized_EN.txt	STREAM	Landscapes	10	5	[0, 0, 0]	n/a	catFR1	5	R1495J
554.265	0.851	799792	WORD_OFF	n/a	n/a	STREAM	Landscapes	10	5	[0, 0, 0]	n/a	catFR1	5	R1495J
555.116	1.6	800645	WORD	n/a	wordpools/wordpool_categorized_EN.txt	HEADPHONES	Electronics	11	5	[0, 0, 0]	n/a	catFR1	5	R1495J
556.716	0.783	802247	WORD_OFF	n/a	n/a	HEADPHONES	Electronics	11	5	[0, 0, 0]	n/a	catFR1	5	R1495J
557.499	1.615	803036	WORD	n/a	wordpools/wordpool_categorized_EN.txt	TABLET	Electronics	12	5	[0, 0, 0]	n/a	catFR1	5	R1495J
559.114	0.002	804645	PROB	0.002	n/a	n/a	n/a	-999	5	[1, 7, 4]	12	catFR1	5	R1495J
559.116	0.0	804647	START	n/a	n/a	n/a	n/a	-999	5	[-999, -999, -999]	n/a	catFR1	5	R1495J
559.114	0.002	804651	WORD_OFF	n/a	n/a	TABLET	Electronics	12	5	[0, 0, 0]	n/a	catFR1	5	R1495J
559.116	0.0	804651	ENCODING_END	n/a	n/a	n/a	n/a	-999	5	[0, 0, 0]	n/a	catFR1	5	R1495J
559.116	4.015	804651	DISTRACT_START	n/a	n/a	n/a	n/a	-999	5	[0, 0, 0]	n/a	catFR1	5	R1495J
563.131	2.65	808662	PROB	2.65	n/a	n/a	n/a	-999	5	[7, 3, 5]	15	catFR1	5	R1495J
565.781	2.267	811312	PROB	2.267	n/a	n/a	n/a	-999	5	[3, 6, 4]	13	catFR1	5	R1495J
568.048	2.5	813579	PROB	2.5	n/a	n/a	n/a	-999	5	[8, 5, 5]	18	catFR1	5	R1495J
570.548	3.285	816078	PROB	3.285	n/a	n/a	n/a	-999	5	[8, 6, 6]	20	catFR1	5	R1495J
573.833	3.899	819363	PROB	3.899	n/a	n/a	n/a	-999	5	[7, 3, 5]	15	catFR1	5	R1495J
577.732	3.483	823262	PROB	3.483	n/a	n/a	n/a	-999	5	[6, 5, 7]	18	catFR1	5	R1495J
581.215	0.0	826742	DISTRACT_END	n/a	n/a	n/a	n/a	-999	5	[0, 0, 0]	n/a	catFR1	5	R1495J
581.215	2.068	826745	STOP	n/a	n/a	n/a	n/a	-999	5	[-999, -999, -999]	n/a	catFR1	5	R1495J
583.283	0.752	828810	REC_START	n/a	n/a	n/a	n/a	-999	5	[0, 0, 0]	n/a	catFR1	5	R1495J
584.035	1.977	829565	REC_WORD	1.977	n/a	MOUNTAIN	Landscapes	5	5	[0, 0, 0]	n/a	catFR1	5	R1495J
586.012	2.227	831542	REC_WORD	2.227	n/a	STREAM	Landscapes	10	5	[0, 0, 0]	n/a	catFR1	5	R1495J
588.239	10.774	833769	REC_WORD	10.774	n/a	CREEK	n/a	-999	5	[0, 0, 0]	n/a	catFR1	5	R1495J
599.013	14.502	844542	REC_WORD	14.502	n/a	BLENDER	Appliances	-999	5	[0, 0, 0]	n/a	catFR1	5	R1495J
613.515	1.552	859045	REC_END	n/a	n/a	n/a	n/a	-999	5	[0, 0, 0]	n/a	catFR1	5	R1495J
615.067	10.349	860597	COUNTDOWN_START	n/a	n/a	n/a	n/a	-999	6	[0, 0, 0]	n/a	catFR1	5	R1495J
625.416	0.0	870949	COUNTDOWN_END	n/a	n/a	n/a	n/a	-999	6	[0, 0, 0]	n/a	catFR1	5	R1495J
625.416	1.983	870949	ENCODING_START	n/a	n/a	n/a	n/a	-999	6	[0, 0, 0]	n/a	catFR1	5	R1495J
627.399	1.601	872933	WORD	n/a	wordpools/wordpool_categorized_EN.txt	WILLOW	Trees	1	6	[0, 0, 0]	n/a	catFR1	5	R1495J
629.0	0.884	874523	WORD_OFF	n/a	n/a	WILLOW	Trees	1	6	[0, 0, 0]	n/a	catFR1	5	R1495J
629.884	1.616	875413	WORD	n/a	wordpools/wordpool_categorized_EN.txt	PINE	Trees	2	6	[0, 0, 0]	n/a	catFR1	5	R1495J
631.5	0.8	877029	WORD_OFF	n/a	n/a	PINE	Trees	2	6	[0, 0, 0]	n/a	catFR1	5	R1495J
632.3	1.616	877830	WORD	n/a	wordpools/wordpool_categorized_EN.txt	FOG	Weather	3	6	[0, 0, 0]	n/a	catFR1	5	R1495J
633.916	0.984	879445	WORD_OFF	n/a	n/a	FOG	Weather	3	6	[0, 0, 0]	n/a	catFR1	5	R1495J
634.9	1.617	880424	WORD	n/a	wordpools/wordpool_categorized_EN.txt	CLOUD	Weather	4	6	[0, 0, 0]	n/a	catFR1	5	R1495J
636.517	0.833	882047	WORD_OFF	n/a	n/a	CLOUD	Weather	4	6	[0, 0, 0]	n/a	catFR1	5	R1495J
637.35	1.6	882879	WORD	n/a	wordpools/wordpool_categorized_EN.txt	CARROT	Vegetables	5	6	[0, 0, 0]	n/a	catFR1	5	R1495J
638.95	0.816	884481	WORD_OFF	n/a	n/a	CARROT	Vegetables	5	6	[0, 0, 0]	n/a	catFR1	5	R1495J
639.766	1.617	885295	WORD	n/a	wordpools/wordpool_categorized_EN.txt	BROCCOLI	Vegetables	6	6	[0, 0, 0]	n/a	catFR1	5	R1495J
641.383	0.783	886910	WORD_OFF	n/a	n/a	BROCCOLI	Vegetables	6	6	[0, 0, 0]	n/a	catFR1	5	R1495J
642.166	1.615	887699	WORD	n/a	wordpools/wordpool_categorized_EN.txt	HICKORY	Trees	7	6	[0, 0, 0]	n/a	catFR1	5	R1495J
643.781	0.969	889314	WORD_OFF	n/a	n/a	HICKORY	Trees	7	6	[0, 0, 0]	n/a	catFR1	5	R1495J
644.75	1.616	890281	WORD	n/a	wordpools/wordpool_categorized_EN.txt	WALNUT	Trees	8	6	[0, 0, 0]	n/a	catFR1	5	R1495J
646.366	0.833	891896	WORD_OFF	n/a	n/a	WALNUT	Trees	8	6	[0, 0, 0]	n/a	catFR1	5	R1495J
647.199	1.6	892722	WORD	n/a	wordpools/wordpool_categorized_EN.txt	CELERY	Vegetables	9	6	[0, 0, 0]	n/a	catFR1	5	R1495J
648.799	0.916	894325	WORD_OFF	n/a	n/a	CELERY	Vegetables	9	6	[0, 0, 0]	n/a	catFR1	5	R1495J
649.715	1.601	895241	WORD	n/a	wordpools/wordpool_categorized_EN.txt	CORN	Vegetables	10	6	[0, 0, 0]	n/a	catFR1	5	R1495J
651.316	0.9	896843	WORD_OFF	n/a	n/a	CORN	Vegetables	10	6	[0, 0, 0]	n/a	catFR1	5	R1495J
652.216	1.616	897746	WORD	n/a	wordpools/wordpool_categorized_EN.txt	THUNDER	Weather	11	6	[0, 0, 0]	n/a	catFR1	5	R1495J
653.832	0.916	899361	WORD_OFF	n/a	n/a	THUNDER	Weather	11	6	[0, 0, 0]	n/a	catFR1	5	R1495J
654.748	1.601	900277	WORD	n/a	wordpools/wordpool_categorized_EN.txt	WIND	Weather	12	6	[0, 0, 0]	n/a	catFR1	5	R1495J
656.349	0.001	901876	PROB	0.001	n/a	n/a	n/a	-999	6	[8, 7, 4]	19	catFR1	5	R1495J
656.35	0.0	901877	START	n/a	n/a	n/a	n/a	-999	6	[-999, -999, -999]	n/a	catFR1	5	R1495J
656.349	0.001	901879	WORD_OFF	n/a	n/a	WIND	Weather	12	6	[0, 0, 0]	n/a	catFR1	5	R1495J
656.35	0.0	901879	ENCODING_END	n/a	n/a	n/a	n/a	-999	6	[0, 0, 0]	n/a	catFR1	5	R1495J
656.35	13.45	901879	DISTRACT_START	n/a	n/a	n/a	n/a	-999	6	[0, 0, 0]	n/a	catFR1	5	R1495J
669.8	2.282	915326	PROB	2.282	n/a	n/a	n/a	-999	6	[7, 7, 7]	21	catFR1	5	R1495J
672.082	3.767	917608	PROB	3.767	n/a	n/a	n/a	-999	6	[1, 2, 3]	6	catFR1	5	R1495J
675.849	4.701	921375	PROB	4.701	n/a	n/a	n/a	-999	6	[6, 6, 3]	15	catFR1	5	R1495J
680.55	0.0	926076	STOP	n/a	n/a	n/a	n/a	-999	6	[-999, -999, -999]	n/a	catFR1	5	R1495J
680.55	2.383	926082	DISTRACT_END	n/a	n/a	n/a	n/a	-999	6	[0, 0, 0]	n/a	catFR1	5	R1495J
682.933	0.0	928455	REC_START	n/a	n/a	n/a	n/a	-999	6	[0, 0, 0]	n/a	catFR1	5	R1495J
682.933	0.723	928459	REC_WORD	0.723	n/a	HICKORY	Trees	7	6	[0, 0, 0]	n/a	catFR1	5	R1495J
683.656	1.959	929182	REC_WORD	1.959	n/a	PINE	Trees	2	6	[0, 0, 0]	n/a	catFR1	5	R1495J
685.615	6.379	931141	REC_WORD	6.379	n/a	OAK	n/a	-999	6	[0, 0, 0]	n/a	catFR1	5	R1495J
691.994	0.811	937519	REC_WORD	0.811	n/a	WIND	Weather	12	6	[0, 0, 0]	n/a	catFR1	5	R1495J
692.805	1.206	938330	REC_WORD	1.206	n/a	THUNDERSTORM	n/a	-999	6	[0, 0, 0]	n/a	catFR1	5	R1495J
694.011	7.659	939536	REC_WORD	7.659	n/a	THUNDER	Weather	11	6	[0, 0, 0]	n/a	catFR1	5	R1495J
701.67	11.497	947195	REC_WORD	11.497	n/a	RAIN	n/a	-999	6	[0, 0, 0]	n/a	catFR1	5	R1495J
713.167	1.283	958690	REC_END	n/a	n/a	n/a	n/a	-999	6	[0, 0, 0]	n/a	catFR1	5	R1495J
714.45	10.35	959975	COUNTDOWN_START	n/a	n/a	n/a	n/a	-999	7	[0, 0, 0]	n/a	catFR1	5	R1495J
724.8	0.0	970327	COUNTDOWN_END	n/a	n/a	n/a	n/a	-999	7	[0, 0, 0]	n/a	catFR1	5	R1495J
724.8	2.099	970327	ENCODING_START	n/a	n/a	n/a	n/a	-999	7	[0, 0, 0]	n/a	catFR1	5	R1495J
726.899	1.601	972426	WORD	n/a	wordpools/wordpool_categorized_EN.txt	DOLLHOUSE	Toys	1	7	[0, 0, 0]	n/a	catFR1	5	R1495J
728.5	1.0	974028	WORD_OFF	n/a	n/a	DOLLHOUSE	Toys	1	7	[0, 0, 0]	n/a	catFR1	5	R1495J
729.5	1.6	975020	WORD	n/a	wordpools/wordpool_categorized_EN.txt	BASKETBALL	Toys	2	7	[0, 0, 0]	n/a	catFR1	5	R1495J
731.1	0.866	976623	WORD_OFF	n/a	n/a	BASKETBALL	Toys	2	7	[0, 0, 0]	n/a	catFR1	5	R1495J
731.966	1.6	977488	WORD	n/a	wordpools/wordpool_categorized_EN.txt	ISLAND	Landscapes	3	7	[0, 0, 0]	n/a	catFR1	5	R1495J
733.566	0.867	979090	WORD_OFF	n/a	n/a	ISLAND	Landscapes	3	7	[0, 0, 0]	n/a	catFR1	5	R1495J
734.433	1.617	979955	WORD	n/a	wordpools/wordpool_categorized_EN.txt	VALLEY	Landscapes	4	7	[0, 0, 0]	n/a	catFR1	5	R1495J
736.05	0.949	981570	WORD_OFF	n/a	n/a	VALLEY	Landscapes	4	7	[0, 0, 0]	n/a	catFR1	5	R1495J
736.999	1.6	982524	WORD	n/a	wordpools/wordpool_categorized_EN.txt	LIGHTNING	Weather	5	7	[0, 0, 0]	n/a	catFR1	5	R1495J
738.599	0.917	984126	WORD_OFF	n/a	n/a	LIGHTNING	Weather	5	7	[0, 0, 0]	n/a	catFR1	5	R1495J
739.516	1.616	985042	WORD	n/a	wordpools/wordpool_categorized_EN.txt	TORNADO	Weather	6	7	[0, 0, 0]	n/a	catFR1	5	R1495J
741.132	0.95	986657	WORD_OFF	n/a	n/a	TORNADO	Weather	6	7	[0, 0, 0]	n/a	catFR1	5	R1495J
742.082	1.617	987611	WORD	n/a	wordpools/wordpool_categorized_EN.txt	BASEBALL	Toys	7	7	[0, 0, 0]	n/a	catFR1	5	R1495J
743.699	0.95	989226	WORD_OFF	n/a	n/a	BASEBALL	Toys	7	7	[0, 0, 0]	n/a	catFR1	5	R1495J
744.649	1.6	990167	WORD	n/a	wordpools/wordpool_categorized_EN.txt	BALL	Toys	8	7	[0, 0, 0]	n/a	catFR1	5	R1495J
746.249	0.901	991770	WORD_OFF	n/a	n/a	BALL	Toys	8	7	[0, 0, 0]	n/a	catFR1	5	R1495J
747.15	1.616	992673	WORD	n/a	wordpools/wordpool_categorized_EN.txt	BEACH	Landscapes	9	7	[0, 0, 0]	n/a	catFR1	5	R1495J
748.766	0.934	994288	WORD_OFF	n/a	n/a	BEACH	Landscapes	9	7	[0, 0, 0]	n/a	catFR1	5	R1495J
749.7	1.599	995229	WORD	n/a	wordpools/wordpool_categorized_EN.txt	HILLS	Landscapes	10	7	[0, 0, 0]	n/a	catFR1	5	R1495J
751.299	0.849	996819	WORD_OFF	n/a	n/a	HILLS	Landscapes	10	7	[0, 0, 0]	n/a	catFR1	5	R1495J
752.148	1.602	997671	WORD	n/a	wordpools/wordpool_categorized_EN.txt	SNOW	Weather	11	7	[0, 0, 0]	n/a	catFR1	5	R1495J
753.75	0.932	999273	WORD_OFF	n/a	n/a	SNOW	Weather	11	7	[0, 0, 0]	n/a	catFR1	5	R1495J
754.682	1.6	1000202	WORD	n/a	wordpools/wordpool_categorized_EN.txt	DRIZZLE	Weather	12	7	[0, 0, 0]	n/a	catFR1	5	R1495J
756.282	0.001	1001804	WORD_OFF	n/a	n/a	DRIZZLE	Weather	12	7	[0, 0, 0]	n/a	catFR1	5	R1495J
756.283	0.0	1001804	ENCODING_END	n/a	n/a	n/a	n/a	-999	7	[0, 0, 0]	n/a	catFR1	5	R1495J
756.283	0.0	1001804	DISTRACT_START	n/a	n/a	n/a	n/a	-999	7	[0, 0, 0]	n/a	catFR1	5	R1495J
756.282	0.001	1001805	PROB	0.001	n/a	n/a	n/a	-999	7	[3, 4, 5]	12	catFR1	5	R1495J
756.283	4.017	1001806	START	n/a	n/a	n/a	n/a	-999	7	[-999, -999, -999]	n/a	catFR1	5	R1495J
760.3	2.75	1005822	PROB	2.75	n/a	n/a	n/a	-999	7	[4, 6, 5]	15	catFR1	5	R1495J
763.05	2.249	1008572	PROB	2.249	n/a	n/a	n/a	-999	7	[3, 3, 5]	11	catFR1	5	R1495J
765.299	5.868	1010821	PROB	5.868	n/a	n/a	n/a	-999	7	[8, 4, 6]	18	catFR1	5	R1495J
771.167	4.449	1016689	PROB	4.449	n/a	n/a	n/a	-999	7	[3, 1, 6]	10	catFR1	5	R1495J
775.616	4.299	1021138	PROB	4.299	n/a	n/a	n/a	-999	7	[7, 2, 5]	14	catFR1	5	R1495J
779.915	0.0	1025434	DISTRACT_END	n/a	n/a	n/a	n/a	-999	7	[0, 0, 0]	n/a	catFR1	5	R1495J
779.915	2.183	1025437	STOP	n/a	n/a	n/a	n/a	-999	7	[-999, -999, -999]	n/a	catFR1	5	R1495J
782.098	1.483	1027617	REC_START	n/a	n/a	n/a	n/a	-999	7	[0, 0, 0]	n/a	catFR1	5	R1495J
783.581	0.97	1029102	REC_WORD	0.97	n/a	WINDOW	n/a	-999	7	[0, 0, 0]	n/a	catFR1	5	R1495J
784.551	5.546	1030072	REC_WORD	5.546	n/a	RAIN	n/a	-999	7	[0, 0, 0]	n/a	catFR1	5	R1495J
790.097	0.781	1035618	REC_WORD	0.781	n/a	BASEBALL	Toys	7	7	[0, 0, 0]	n/a	catFR1	5	R1495J
790.878	7.665	1036399	REC_WORD	7.665	n/a	BALL	Toys	8	7	[0, 0, 0]	n/a	catFR1	5	R1495J
798.543	2.599	1044064	REC_WORD	2.599	n/a	HILLS	Landscapes	10	7	[0, 0, 0]	n/a	catFR1	5	R1495J
801.142	4.513	1046663	REC_WORD	4.513	n/a	VALLEY	Landscapes	4	7	[0, 0, 0]	n/a	catFR1	5	R1495J
805.655	6.687	1051176	REC_WORD	6.687	n/a	MOUNTAIN	Landscapes	-999	7	[0, 0, 0]	n/a	catFR1	5	R1495J
812.342	1.492	1057865	REC_END	n/a	n/a	n/a	n/a	-999	7	[0, 0, 0]	n/a	catFR1	5	R1495J
813.834	10.348	1059353	COUNTDOWN_START	n/a	n/a	n/a	n/a	-999	8	[0, 0, 0]	n/a	catFR1	5	R1495J
824.182	0.0	1069705	COUNTDOWN_END	n/a	n/a	n/a	n/a	-999	8	[0, 0, 0]	n/a	catFR1	5	R1495J
824.182	1.983	1069705	ENCODING_START	n/a	n/a	n/a	n/a	-999	8	[0, 0, 0]	n/a	catFR1	5	R1495J
826.165	1.602	1071689	WORD	n/a	wordpools/wordpool_categorized_EN.txt	ONION	Vegetables	1	8	[0, 0, 0]	n/a	catFR1	5	R1495J
827.767	0.816	1073292	WORD_OFF	n/a	n/a	ONION	Vegetables	1	8	[0, 0, 0]	n/a	catFR1	5	R1495J
828.583	1.617	1074106	WORD	n/a	wordpools/wordpool_categorized_EN.txt	CABBAGE	Vegetables	2	8	[0, 0, 0]	n/a	catFR1	5	R1495J
830.2	0.949	1075721	WORD_OFF	n/a	n/a	CABBAGE	Vegetables	2	8	[0, 0, 0]	n/a	catFR1	5	R1495J
831.149	1.601	1076675	WORD	n/a	wordpools/wordpool_categorized_EN.txt	GOAT	FarmAnimals	3	8	[0, 0, 0]	n/a	catFR1	5	R1495J
832.75	1.016	1078277	WORD_OFF	n/a	n/a	GOAT	FarmAnimals	3	8	[0, 0, 0]	n/a	catFR1	5	R1495J
833.766	1.617	1079282	WORD	n/a	wordpools/wordpool_categorized_EN.txt	BULL	FarmAnimals	4	8	[0, 0, 0]	n/a	catFR1	5	R1495J
835.383	0.933	1080910	WORD_OFF	n/a	n/a	BULL	FarmAnimals	4	8	[0, 0, 0]	n/a	catFR1	5	R1495J
836.316	1.616	1081838	WORD	n/a	wordpools/wordpool_categorized_EN.txt	FINGERS	BodyParts	5	8	[0, 0, 0]	n/a	catFR1	5	R1495J
837.932	0.884	1083453	WORD_OFF	n/a	n/a	FINGERS	BodyParts	5	8	[0, 0, 0]	n/a	catFR1	5	R1495J
838.816	1.617	1084331	WORD	n/a	wordpools/wordpool_categorized_EN.txt	KNEE	BodyParts	6	8	[0, 0, 0]	n/a	catFR1	5	R1495J
840.433	0.833	1085959	WORD_OFF	n/a	n/a	KNEE	BodyParts	6	8	[0, 0, 0]	n/a	catFR1	5	R1495J
841.266	1.616	1086785	WORD	n/a	wordpools/wordpool_categorized_EN.txt	HORSE	FarmAnimals	7	8	[0, 0, 0]	n/a	catFR1	5	R1495J
842.882	0.766	1088401	WORD_OFF	n/a	n/a	HORSE	FarmAnimals	7	8	[0, 0, 0]	n/a	catFR1	5	R1495J
843.648	1.601	1089164	WORD	n/a	wordpools/wordpool_categorized_EN.txt	LAMB	FarmAnimals	8	8	[0, 0, 0]	n/a	catFR1	5	R1495J
845.249	0.966	1090766	WORD_OFF	n/a	n/a	LAMB	FarmAnimals	8	8	[0, 0, 0]	n/a	catFR1	5	R1495J
846.215	1.599	1091733	WORD	n/a	wordpools/wordpool_categorized_EN.txt	LETTUCE	Vegetables	9	8	[0, 0, 0]	n/a	catFR1	5	R1495J
847.814	0.819	1093335	WORD_OFF	n/a	n/a	LETTUCE	Vegetables	9	8	[0, 0, 0]	n/a	catFR1	5	R1495J
848.633	1.615	1094149	WORD	n/a	wordpools/wordpool_categorized_EN.txt	POTATO	Vegetables	10	8	[0, 0, 0]	n/a	catFR1	5	R1495J
850.248	0.983	1095764	WORD_OFF	n/a	n/a	POTATO	Vegetables	10	8	[0, 0, 0]	n/a	catFR1	5	R1495J
851.231	1.6	1096756	WORD	n/a	wordpools/wordpool_categorized_EN.txt	FOOT	BodyParts	11	8	[0, 0, 0]	n/a	catFR1	5	R1495J
852.831	0.802	1098359	WORD_OFF	n/a	n/a	FOOT	BodyParts	11	8	[0, 0, 0]	n/a	catFR1	5	R1495J
853.633	1.616	1099147	WORD	n/a	wordpools/wordpool_categorized_EN.txt	HEAD	BodyParts	12	8	[0, 0, 0]	n/a	catFR1	5	R1495J
855.249	0.0	1100762	WORD_OFF	n/a	n/a	HEAD	BodyParts	12	8	[0, 0, 0]	n/a	catFR1	5	R1495J
855.249	0.001	1100767	PROB	0.001	n/a	n/a	n/a	-999	8	[5, 6, 6]	17	catFR1	5	R1495J
855.25	0.0	1100768	START	n/a	n/a	n/a	n/a	-999	8	[-999, -999, -999]	n/a	catFR1	5	R1495J
855.25	0.0	1100775	ENCODING_END	n/a	n/a	n/a	n/a	-999	8	[0, 0, 0]	n/a	catFR1	5	R1495J
855.25	4.216	1100775	DISTRACT_START	n/a	n/a	n/a	n/a	-999	8	[0, 0, 0]	n/a	catFR1	5	R1495J
859.466	2.551	1104984	PROB	2.551	n/a	n/a	n/a	-999	8	[1, 3, 2]	6	catFR1	5	R1495J
862.017	3.916	1107535	PROB	3.916	n/a	n/a	n/a	-999	8	[4, 5, 3]	12	catFR1	5	R1495J
865.933	2.082	1111451	PROB	2.082	n/a	n/a	n/a	-999	8	[4, 4, 1]	9	catFR1	5	R1495J
868.015	3.484	1113533	PROB	3.484	n/a	n/a	n/a	-999	8	[4, 5, 3]	12	catFR1	5	R1495J
871.499	2.617	1117017	PROB	2.617	n/a	n/a	n/a	-999	8	[2, 3, 6]	11	catFR1	5	R1495J
874.116	2.818	1119634	PROB	2.818	n/a	n/a	n/a	-999	8	[8, 7, 5]	20	catFR1	5	R1495J
876.934	0.0	1122447	DISTRACT_END	n/a	n/a	n/a	n/a	-999	8	[0, 0, 0]	n/a	catFR1	5	R1495J
876.934	2.165	1122452	STOP	n/a	n/a	n/a	n/a	-999	8	[-999, -999, -999]	n/a	catFR1	5	R1495J
879.099	2.28	1124617	REC_START	n/a	n/a	n/a	n/a	-999	8	[0, 0, 0]	n/a	catFR1	5	R1495J
881.379	1.597	1126896	REC_WORD	1.597	n/a	KNEE	BodyParts	6	8	[0, 0, 0]	n/a	catFR1	5	R1495J
882.976	7.869	1128493	REC_WORD	7.869	n/a	HEAD	BodyParts	12	8	[0, 0, 0]	n/a	catFR1	5	R1495J
890.845	4.16	1136362	REC_WORD	4.16	n/a	BULL	FarmAnimals	4	8	[0, 0, 0]	n/a	catFR1	5	R1495J
895.005	14.335	1140522	REC_WORD	14.335	n/a	GOAT	FarmAnimals	3	8	[0, 0, 0]	n/a	catFR1	5	R1495J
909.34	1.443	1154852	REC_END	n/a	n/a	n/a	n/a	-999	8	[0, 0, 0]	n/a	catFR1	5	R1495J
910.783	10.349	1156302	COUNTDOWN_START	n/a	n/a	n/a	n/a	-999	9	[0, 0, 0]	n/a	catFR1	5	R1495J
921.132	0.0	1166654	COUNTDOWN_END	n/a	n/a	n/a	n/a	-999	9	[0, 0, 0]	n/a	catFR1	5	R1495J
921.132	1.784	1166654	ENCODING_START	n/a	n/a	n/a	n/a	-999	9	[0, 0, 0]	n/a	catFR1	5	R1495J
922.916	1.617	1168435	WORD	n/a	wordpools/wordpool_categorized_EN.txt	COTTON	Fabric	1	9	[0, 0, 0]	n/a	catFR1	5	R1495J
924.533	0.983	1170050	WORD_OFF	n/a	n/a	COTTON	Fabric	1	9	[0, 0, 0]	n/a	catFR1	5	R1495J
925.516	1.617	1171029	WORD	n/a	wordpools/wordpool_categorized_EN.txt	LINEN	Fabric	2	9	[0, 0, 0]	n/a	catFR1	5	R1495J
927.133	0.817	1172644	WORD_OFF	n/a	n/a	LINEN	Fabric	2	9	[0, 0, 0]	n/a	catFR1	5	R1495J
927.95	1.6	1173471	WORD	n/a	wordpools/wordpool_categorized_EN.txt	MOTORCYCLE	Vehicles	3	9	[0, 0, 0]	n/a	catFR1	5	R1495J
929.55	0.999	1175073	WORD_OFF	n/a	n/a	MOTORCYCLE	Vehicles	3	9	[0, 0, 0]	n/a	catFR1	5	R1495J
930.549	1.601	1176065	WORD	n/a	wordpools/wordpool_categorized_EN.txt	SCOOTER	Vehicles	4	9	[0, 0, 0]	n/a	catFR1	5	R1495J
932.15	0.949	1177668	WORD_OFF	n/a	n/a	SCOOTER	Vehicles	4	9	[0, 0, 0]	n/a	catFR1	5	R1495J
933.099	1.601	1178622	WORD	n/a	wordpools/wordpool_categorized_EN.txt	CEILING	Building	5	9	[0, 0, 0]	n/a	catFR1	5	R1495J
934.7	0.766	1180211	WORD_OFF	n/a	n/a	CEILING	Building	5	9	[0, 0, 0]	n/a	catFR1	5	R1495J
935.466	1.617	1180987	WORD	n/a	wordpools/wordpool_categorized_EN.txt	ATTIC	Building	6	9	[0, 0, 0]	n/a	catFR1	5	R1495J
937.083	0.8	1182602	WORD_OFF	n/a	n/a	ATTIC	Building	6	9	[0, 0, 0]	n/a	catFR1	5	R1495J
937.883	1.615	1183404	WORD	n/a	wordpools/wordpool_categorized_EN.txt	WOOL	Fabric	7	9	[0, 0, 0]	n/a	catFR1	5	R1495J
939.498	0.95	1185019	WORD_OFF	n/a	n/a	WOOL	Fabric	7	9	[0, 0, 0]	n/a	catFR1	5	R1495J
940.448	1.617	1185960	WORD	n/a	wordpools/wordpool_categorized_EN.txt	SATIN	Fabric	8	9	[0, 0, 0]	n/a	catFR1	5	R1495J
942.065	0.867	1187575	WORD_OFF	n/a	n/a	SATIN	Fabric	8	9	[0, 0, 0]	n/a	catFR1	5	R1495J
942.932	1.6	1188453	WORD	n/a	wordpools/wordpool_categorized_EN.txt	TRUCK	Vehicles	9	9	[0, 0, 0]	n/a	catFR1	5	R1495J
944.532	0.933	1190042	WORD_OFF	n/a	n/a	TRUCK	Vehicles	9	9	[0, 0, 0]	n/a	catFR1	5	R1495J
945.465	1.6	1190984	WORD	n/a	wordpools/wordpool_categorized_EN.txt	PLANE	Vehicles	10	9	[0, 0, 0]	n/a	catFR1	5	R1495J
947.065	0.767	1192586	WORD_OFF	n/a	n/a	PLANE	Vehicles	10	9	[0, 0, 0]	n/a	catFR1	5	R1495J
947.832	1.617	1193349	WORD	n/a	wordpools/wordpool_categorized_EN.txt	ROOM	Building	11	9	[0, 0, 0]	n/a	catFR1	5	R1495J
949.449	1.0	1194964	WORD_OFF	n/a	n/a	ROOM	Building	11	9	[0, 0, 0]	n/a	catFR1	5	R1495J
950.449	1.617	1195969	WORD	n/a	wordpools/wordpool_categorized_EN.txt	FLOOR	Building	12	9	[0, 0, 0]	n/a	catFR1	5	R1495J
952.066	0.001	1197580	PROB	0.001	n/a	n/a	n/a	-999	9	[6, 8, 2]	16	catFR1	5	R1495J
952.067	0.0	1197581	START	n/a	n/a	n/a	n/a	-999	9	[-999, -999, -999]	n/a	catFR1	5	R1495J
952.066	0.001	1197584	WORD_OFF	n/a	n/a	FLOOR	Building	12	9	[0, 0, 0]	n/a	catFR1	5	R1495J
952.067	0.0	1197584	ENCODING_END	n/a	n/a	n/a	n/a	-999	9	[0, 0, 0]	n/a	catFR1	5	R1495J
952.067	2.866	1197584	DISTRACT_START	n/a	n/a	n/a	n/a	-999	9	[0, 0, 0]	n/a	catFR1	5	R1495J
954.933	2.033	1200447	PROB	2.033	n/a	n/a	n/a	-999	9	[7, 7, 7]	21	catFR1	5	R1495J
956.966	2.134	1202480	PROB	2.134	n/a	n/a	n/a	-999	9	[3, 2, 1]	6	catFR1	5	R1495J
959.1	3.65	1204614	PROB	3.65	n/a	n/a	n/a	-999	9	[4, 7, 3]	14	catFR1	5	R1495J
962.75	2.399	1208264	PROB	2.399	n/a	n/a	n/a	-999	9	[5, 6, 1]	12	catFR1	5	R1495J
965.149	2.733	1210663	PROB	2.733	n/a	n/a	n/a	-999	9	[1, 4, 3]	8	catFR1	5	R1495J
967.882	3.217	1213396	PROB	3.217	n/a	n/a	n/a	-999	9	[8, 8, 7]	23	catFR1	5	R1495J
971.099	3.133	1216613	PROB	3.133	n/a	n/a	n/a	-999	9	[3, 7, 1]	11	catFR1	5	R1495J
974.232	0.0	1219745	STOP	n/a	n/a	n/a	n/a	-999	9	[-999, -999, -999]	n/a	catFR1	5	R1495J
974.232	2.3	1219752	DISTRACT_END	n/a	n/a	n/a	n/a	-999	9	[0, 0, 0]	n/a	catFR1	5	R1495J
976.532	0.948	1222049	REC_START	n/a	n/a	n/a	n/a	-999	9	[0, 0, 0]	n/a	catFR1	5	R1495J
977.48	0.554	1222993	REC_WORD	0.554	n/a	FLOOR	Building	12	9	[0, 0, 0]	n/a	catFR1	5	R1495J
978.034	3.75	1223547	REC_WORD	3.75	n/a	CEILING	Building	5	9	[0, 0, 0]	n/a	catFR1	5	R1495J
981.784	0.769	1227297	REC_WORD	0.769	n/a	BEDDING	n/a	-999	9	[0, 0, 0]	n/a	catFR1	5	R1495J
982.553	5.555	1228066	REC_WORD	5.555	n/a	BED	Furniture	-999	9	[0, 0, 0]	n/a	catFR1	5	R1495J
988.108	1.425	1233621	REC_WORD	1.425	n/a	SCOOTER	Vehicles	4	9	[0, 0, 0]	n/a	catFR1	5	R1495J
989.533	17.222	1235046	REC_WORD	17.222	n/a	TRUCK	Vehicles	9	9	[0, 0, 0]	n/a	catFR1	5	R1495J
1006.755	1.762	1252271	REC_END	n/a	n/a	n/a	n/a	-999	9	[0, 0, 0]	n/a	catFR1	5	R1495J
1008.517	10.35	1254026	COUNTDOWN_START	n/a	n/a	n/a	n/a	-999	10	[0, 0, 0]	n/a	catFR1	5	R1495J
1018.867	0.0	1264379	COUNTDOWN_END	n/a	n/a	n/a	n/a	-999	10	[0, 0, 0]	n/a	catFR1	5	R1495J
1018.867	2.232	1264379	ENCODING_START	n/a	n/a	n/a	n/a	-999	10	[0, 0, 0]	n/a	catFR1	5	R1495J
1021.099	1.601	1266617	WORD	n/a	wordpools/wordpool_categorized_EN.txt	LEVEL	Tools	1	10	[0, 0, 0]	n/a	catFR1	5	R1495J
1022.7	0.966	1268207	WORD_OFF	n/a	n/a	LEVEL	Tools	1	10	[0, 0, 0]	n/a	catFR1	5	R1495J
1023.666	1.6	1269173	WORD	n/a	wordpools/wordpool_categorized_EN.txt	SANDER	Tools	2	10	[0, 0, 0]	n/a	catFR1	5	R1495J
1025.266	0.766	1270776	WORD_OFF	n/a	n/a	SANDER	Tools	2	10	[0, 0, 0]	n/a	catFR1	5	R1495J
1026.032	1.6	1271539	WORD	n/a	wordpools/wordpool_categorized_EN.txt	FOUNDATION	Building	3	10	[0, 0, 0]	n/a	catFR1	5	R1495J
1027.632	0.817	1273141	WORD_OFF	n/a	n/a	FOUNDATION	Building	3	10	[0, 0, 0]	n/a	catFR1	5	R1495J
1028.449	1.6	1273955	WORD	n/a	wordpools/wordpool_categorized_EN.txt	WINDOW	Building	4	10	[0, 0, 0]	n/a	catFR1	5	R1495J
1030.049	0.933	1275558	WORD_OFF	n/a	n/a	WINDOW	Building	4	10	[0, 0, 0]	n/a	catFR1	5	R1495J
1030.982	1.617	1276499	WORD	n/a	wordpools/wordpool_categorized_EN.txt	PEACH	Fruit	5	10	[0, 0, 0]	n/a	catFR1	5	R1495J
1032.599	0.883	1278114	WORD_OFF	n/a	n/a	PEACH	Fruit	5	10	[0, 0, 0]	n/a	catFR1	5	R1495J
1033.482	1.601	1278992	WORD	n/a	wordpools/wordpool_categorized_EN.txt	ORANGE	Fruit	6	10	[0, 0, 0]	n/a	catFR1	5	R1495J
1035.083	0.832	1280594	WORD_OFF	n/a	n/a	ORANGE	Fruit	6	10	[0, 0, 0]	n/a	catFR1	5	R1495J
1035.915	1.6	1281434	WORD	n/a	wordpools/wordpool_categorized_EN.txt	CROWBAR	Tools	7	10	[0, 0, 0]	n/a	catFR1	5	R1495J
1037.515	0.85	1283036	WORD_OFF	n/a	n/a	CROWBAR	Tools	7	10	[0, 0, 0]	n/a	catFR1	5	R1495J
1038.365	1.6	1283875	WORD	n/a	wordpools/wordpool_categorized_EN.txt	HAMMER	Tools	8	10	[0, 0, 0]	n/a	catFR1	5	R1495J
1039.965	0.849	1285478	WORD_OFF	n/a	n/a	HAMMER	Tools	8	10	[0, 0, 0]	n/a	catFR1	5	R1495J
1040.814	1.6	1286330	WORD	n/a	wordpools/wordpool_categorized_EN.txt	GRAPE	Fruit	9	10	[0, 0, 0]	n/a	catFR1	5	R1495J
1042.414	1.001	1287932	WORD_OFF	n/a	n/a	GRAPE	Fruit	9	10	[0, 0, 0]	n/a	catFR1	5	R1495J
1043.415	1.601	1288924	WORD	n/a	wordpools/wordpool_categorized_EN.txt	LIME	Fruit	10	10	[0, 0, 0]	n/a	catFR1	5	R1495J
1045.016	0.833	1290527	WORD_OFF	n/a	n/a	LIME	Fruit	10	10	[0, 0, 0]	n/a	catFR1	5	R1495J
1045.849	1.615	1291366	WORD	n/a	wordpools/wordpool_categorized_EN.txt	WALL	Building	11	10	[0, 0, 0]	n/a	catFR1	5	R1495J
1047.464	0.918	1292981	WORD_OFF	n/a	n/a	WALL	Building	11	10	[0, 0, 0]	n/a	catFR1	5	R1495J
1048.382	1.617	1293897	WORD	n/a	wordpools/wordpool_categorized_EN.txt	ROOF	Building	12	10	[0, 0, 0]	n/a	catFR1	5	R1495J
1049.999	0.001	1295509	PROB	0.001	n/a	n/a	n/a	-999	10	[5, 8, 2]	15	catFR1	5	R1495J
1050.0	0.0	1295510	START	n/a	n/a	n/a	n/a	-999	10	[-999, -999, -999]	n/a	catFR1	5	R1495J
1049.999	0.001	1295512	WORD_OFF	n/a	n/a	ROOF	Building	12	10	[0, 0, 0]	n/a	catFR1	5	R1495J
1050.0	0.0	1295512	ENCODING_END	n/a	n/a	n/a	n/a	-999	10	[0, 0, 0]	n/a	catFR1	5	R1495J
1050.0	2.981	1295512	DISTRACT_START	n/a	n/a	n/a	n/a	-999	10	[0, 0, 0]	n/a	catFR1	5	R1495J
1052.981	2.403	1298491	PROB	2.403	n/a	n/a	n/a	-999	10	[4, 6, 4]	14	catFR1	5	R1495J
1055.384	1.965	1300894	PROB	1.965	n/a	n/a	n/a	-999	10	[1, 7, 1]	9	catFR1	5	R1495J
1057.349	4.567	1302859	PROB	4.567	n/a	n/a	n/a	-999	10	[2, 6, 7]	15	catFR1	5	R1495J
1061.916	2.266	1307426	PROB	2.266	n/a	n/a	n/a	-999	10	[1, 2, 1]	4	catFR1	5	R1495J
1064.182	3.5	1309692	PROB	3.5	n/a	n/a	n/a	-999	10	[5, 4, 4]	13	catFR1	5	R1495J
1067.682	2.583	1313191	PROB	2.583	n/a	n/a	n/a	-999	10	[4, 4, 5]	13	catFR1	5	R1495J
1070.265	0.0	1315772	DISTRACT_END	n/a	n/a	n/a	n/a	-999	10	[0, 0, 0]	n/a	catFR1	5	R1495J
1070.265	2.333	1315774	STOP	n/a	n/a	n/a	n/a	-999	10	[-999, -999, -999]	n/a	catFR1	5	R1495J
1072.598	0.797	1318107	REC_START	n/a	n/a	n/a	n/a	-999	10	[0, 0, 0]	n/a	catFR1	5	R1495J
1073.395	0.684	1318904	REC_WORD	0.684	n/a	ORANGE	Fruit	6	10	[0, 0, 0]	n/a	catFR1	5	R1495J
1074.079	28.722	1319588	REC_WORD	28.722	n/a	PEACH	Fruit	5	10	[0, 0, 0]	n/a	catFR1	5	R1495J
1102.801	1.381	1348304	REC_END	n/a	n/a	n/a	n/a	-999	10	[0, 0, 0]	n/a	catFR1	5	R1495J
1104.182	10.353	1349691	COUNTDOWN_START	n/a	n/a	n/a	n/a	-999	11	[0, 0, 0]	n/a	catFR1	5	R1495J
1114.535	0.0	1360043	COUNTDOWN_END	n/a	n/a	n/a	n/a	-999	11	[0, 0, 0]	n/a	catFR1	5	R1495J
1114.535	2.115	1360043	ENCODING_START	n/a	n/a	n/a	n/a	-999	11	[0, 0, 0]	n/a	catFR1	5	R1495J
1116.65	1.6	1362154	WORD	n/a	wordpools/wordpool_categorized_EN.txt	AXE	Tools	1	11	[0, 0, 0]	n/a	catFR1	5	R1495J
1118.25	0.999	1363757	WORD_OFF	n/a	n/a	AXE	Tools	1	11	[0, 0, 0]	n/a	catFR1	5	R1495J
1119.249	1.601	1364761	WORD	n/a	wordpools/wordpool_categorized_EN.txt	PLIERS	Tools	2	11	[0, 0, 0]	n/a	catFR1	5	R1495J
1120.85	0.85	1366364	WORD_OFF	n/a	n/a	PLIERS	Tools	2	11	[0, 0, 0]	n/a	catFR1	5	R1495J
1121.7	1.6	1367203	WORD	n/a	wordpools/wordpool_categorized_EN.txt	MOPED	Vehicles	3	11	[0, 0, 0]	n/a	catFR1	5	R1495J
1123.3	0.782	1368806	WORD_OFF	n/a	n/a	MOPED	Vehicles	3	11	[0, 0, 0]	n/a	catFR1	5	R1495J
1124.082	1.601	1369594	WORD	n/a	wordpools/wordpool_categorized_EN.txt	BUS	Vehicles	4	11	[0, 0, 0]	n/a	catFR1	5	R1495J
1125.683	0.95	1371197	WORD_OFF	n/a	n/a	BUS	Vehicles	4	11	[0, 0, 0]	n/a	catFR1	5	R1495J
1126.633	1.615	1372138	WORD	n/a	wordpools/wordpool_categorized_EN.txt	PUZZLE	Toys	5	11	[0, 0, 0]	n/a	catFR1	5	R1495J
1128.248	0.884	1373753	WORD_OFF	n/a	n/a	PUZZLE	Toys	5	11	[0, 0, 0]	n/a	catFR1	5	R1495J
1129.132	1.617	1374643	WORD	n/a	wordpools/wordpool_categorized_EN.txt	BLOCKS	Toys	6	11	[0, 0, 0]	n/a	catFR1	5	R1495J
1130.749	0.983	1376258	WORD_OFF	n/a	n/a	BLOCKS	Toys	6	11	[0, 0, 0]	n/a	catFR1	5	R1495J
1131.732	1.618	1377238	WORD	n/a	wordpools/wordpool_categorized_EN.txt	TRAIN	Vehicles	7	11	[0, 0, 0]	n/a	catFR1	5	R1495J
1133.35	0.8	1378853	WORD_OFF	n/a	n/a	TRAIN	Vehicles	7	11	[0, 0, 0]	n/a	catFR1	5	R1495J
1134.15	1.615	1379654	WORD	n/a	wordpools/wordpool_categorized_EN.txt	BOAT	Vehicles	8	11	[0, 0, 0]	n/a	catFR1	5	R1495J
1135.765	0.85	1381269	WORD_OFF	n/a	n/a	BOAT	Vehicles	8	11	[0, 0, 0]	n/a	catFR1	5	R1495J
1136.615	1.617	1382121	WORD	n/a	wordpools/wordpool_categorized_EN.txt	FRISBEE	Toys	9	11	[0, 0, 0]	n/a	catFR1	5	R1495J
1138.232	0.985	1383737	WORD_OFF	n/a	n/a	FRISBEE	Toys	9	11	[0, 0, 0]	n/a	catFR1	5	R1495J
1139.217	1.616	1384729	WORD	n/a	wordpools/wordpool_categorized_EN.txt	FOOTBALL	Toys	10	11	[0, 0, 0]	n/a	catFR1	5	R1495J
1140.833	0.832	1386344	WORD_OFF	n/a	n/a	FOOTBALL	Toys	10	11	[0, 0, 0]	n/a	catFR1	5	R1495J
1141.665	1.601	1387170	WORD	n/a	wordpools/wordpool_categorized_EN.txt	WRENCH	Tools	11	11	[0, 0, 0]	n/a	catFR1	5	R1495J
1143.266	0.883	1388773	WORD_OFF	n/a	n/a	WRENCH	Tools	11	11	[0, 0, 0]	n/a	catFR1	5	R1495J
1144.149	1.601	1389663	WORD	n/a	wordpools/wordpool_categorized_EN.txt	SAW	Tools	12	11	[0, 0, 0]	n/a	catFR1	5	R1495J
1145.75	0.0	1391253	WORD_OFF	n/a	n/a	SAW	Tools	12	11	[0, 0, 0]	n/a	catFR1	5	R1495J
1145.75	0.001	1391256	PROB	0.001	n/a	n/a	n/a	-999	11	[6, 8, 1]	15	catFR1	5	R1495J
1145.751	0.0	1391257	START	n/a	n/a	n/a	n/a	-999	11	[-999, -999, -999]	n/a	catFR1	5	R1495J
1145.751	0.0	1391266	ENCODING_END	n/a	n/a	n/a	n/a	-999	11	[0, 0, 0]	n/a	catFR1	5	R1495J
1145.751	4.998	1391266	DISTRACT_START	n/a	n/a	n/a	n/a	-999	11	[0, 0, 0]	n/a	catFR1	5	R1495J
1150.749	3.334	1396255	PROB	3.334	n/a	n/a	n/a	-999	11	[4, 8, 6]	18	catFR1	5	R1495J
1154.083	3.683	1399589	PROB	3.683	n/a	n/a	n/a	-999	11	[3, 6, 1]	10	catFR1	5	R1495J
1157.766	4.316	1403272	PROB	4.316	n/a	n/a	n/a	-999	11	[8, 7, 4]	19	catFR1	5	R1495J
1162.082	2.218	1407587	PROB	2.218	n/a	n/a	n/a	-999	11	[2, 2, 8]	12	catFR1	5	R1495J
1164.3	2.632	1409805	PROB	2.632	n/a	n/a	n/a	-999	11	[4, 3, 4]	11	catFR1	5	R1495J
1166.932	0.0	1412437	STOP	n/a	n/a	n/a	n/a	-999	11	[-999, -999, -999]	n/a	catFR1	5	R1495J
1166.932	2.216	1412441	DISTRACT_END	n/a	n/a	n/a	n/a	-999	11	[0, 0, 0]	n/a	catFR1	5	R1495J
1169.148	0.82	1414649	REC_START	n/a	n/a	n/a	n/a	-999	11	[0, 0, 0]	n/a	catFR1	5	R1495J
1169.968	14.218	1415473	REC_WORD	14.218	n/a	WRENCH	Tools	11	11	[0, 0, 0]	n/a	catFR1	5	R1495J
1184.186	15.194	1429691	REC_WORD	15.194	n/a	GOAT	FarmAnimals	-999	11	[0, 0, 0]	n/a	catFR1	5	R1495J
1199.38	2.787	1444884	REC_END	n/a	n/a	n/a	n/a	-999	11	[0, 0, 0]	n/a	catFR1	5	R1495J
1202.167	10.349	1447670	COUNTDOWN_START	n/a	n/a	n/a	n/a	-999	12	[0, 0, 0]	n/a	catFR1	5	R1495J
1212.516	0.0	1458022	COUNTDOWN_END	n/a	n/a	n/a	n/a	-999	12	[0, 0, 0]	n/a	catFR1	5	R1495J
1212.516	1.817	1458022	ENCODING_START	n/a	n/a	n/a	n/a	-999	12	[0, 0, 0]	n/a	catFR1	5	R1495J
1214.333	1.6	1459841	WORD	n/a	wordpools/wordpool_categorized_EN.txt	LEMON	Fruit	1	12	[0, 0, 0]	n/a	catFR1	5	R1495J
1215.933	0.833	1461443	WORD_OFF	n/a	n/a	LEMON	Fruit	1	12	[0, 0, 0]	n/a	catFR1	5	R1495J
1216.766	1.6	1462270	WORD	n/a	wordpools/wordpool_categorized_EN.txt	BLUEBERRY	Fruit	2	12	[0, 0, 0]	n/a	catFR1	5	R1495J
1218.366	0.9	1463872	WORD_OFF	n/a	n/a	BLUEBERRY	Fruit	2	12	[0, 0, 0]	n/a	catFR1	5	R1495J
1219.266	1.617	1464775	WORD	n/a	wordpools/wordpool_categorized_EN.txt	HURRICANE	Weather	3	12	[0, 0, 0]	n/a	catFR1	5	R1495J
1220.883	0.767	1466390	WORD_OFF	n/a	n/a	HURRICANE	Weather	3	12	[0, 0, 0]	n/a	catFR1	5	R1495J
1221.65	1.616	1467154	WORD	n/a	wordpools/wordpool_categorized_EN.txt	THUNDERSTORM	Weather	4	12	[0, 0, 0]	n/a	catFR1	5	R1495J
1223.266	0.833	1468769	WORD_OFF	n/a	n/a	THUNDERSTORM	Weather	4	12	[0, 0, 0]	n/a	catFR1	5	R1495J
1224.099	1.6	1469608	WORD	n/a	wordpools/wordpool_categorized_EN.txt	MARBLES	Toys	5	12	[0, 0, 0]	n/a	catFR1	5	R1495J
1225.699	0.934	1471198	WORD_OFF	n/a	n/a	MARBLES	Toys	5	12	[0, 0, 0]	n/a	catFR1	5	R1495J
1226.633	1.617	1472139	WORD	n/a	wordpools/wordpool_categorized_EN.txt	SLINKY	Toys	6	12	[0, 0, 0]	n/a	catFR1	5	R1495J
1228.25	0.882	1473754	WORD_OFF	n/a	n/a	SLINKY	Toys	6	12	[0, 0, 0]	n/a	catFR1	5	R1495J
1229.132	1.6	1474632	WORD	n/a	wordpools/wordpool_categorized_EN.txt	PEAR	Fruit	7	12	[0, 0, 0]	n/a	catFR1	5	R1495J
1230.732	0.983	1476234	WORD_OFF	n/a	n/a	PEAR	Fruit	7	12	[0, 0, 0]	n/a	catFR1	5	R1495J
1231.715	1.6	1477213	WORD	n/a	wordpools/wordpool_categorized_EN.txt	STRAWBERRY	Fruit	8	12	[0, 0, 0]	n/a	catFR1	5	R1495J
1233.315	0.766	1478816	WORD_OFF	n/a	n/a	STRAWBERRY	Fruit	8	12	[0, 0, 0]	n/a	catFR1	5	R1495J
1234.081	1.601	1479579	WORD	n/a	wordpools/wordpool_categorized_EN.txt	BARBIE	Toys	9	12	[0, 0, 0]	n/a	catFR1	5	R1495J
1235.682	0.916	1481181	WORD_OFF	n/a	n/a	BARBIE	Toys	9	12	[0, 0, 0]	n/a	catFR1	5	R1495J
1236.598	1.602	1482097	WORD	n/a	wordpools/wordpool_categorized_EN.txt	DOLL	Toys	10	12	[0, 0, 0]	n/a	catFR1	5	R1495J
1238.2	0.933	1483700	WORD_OFF	n/a	n/a	DOLL	Toys	10	12	[0, 0, 0]	n/a	catFR1	5	R1495J
1239.133	1.6	1484641	WORD	n/a	wordpools/wordpool_categorized_EN.txt	HUMIDITY	Weather	11	12	[0, 0, 0]	n/a	catFR1	5	R1495J
1240.733	0.782	1486243	WORD_OFF	n/a	n/a	HUMIDITY	Weather	11	12	[0, 0, 0]	n/a	catFR1	5	R1495J
1241.515	1.616	1487019	WORD	n/a	wordpools/wordpool_categorized_EN.txt	RAIN	Weather	12	12	[0, 0, 0]	n/a	catFR1	5	R1495J
1243.131	0.001	1488634	WORD_OFF	n/a	n/a	RAIN	Weather	12	12	[0, 0, 0]	n/a	catFR1	5	R1495J
1243.132	0.0	1488634	ENCODING_END	n/a	n/a	n/a	n/a	-999	12	[0, 0, 0]	n/a	catFR1	5	R1495J
1243.132	0.0	1488634	DISTRACT_START	n/a	n/a	n/a	n/a	-999	12	[0, 0, 0]	n/a	catFR1	5	R1495J
1243.132	0.0	1488634	START	n/a	n/a	n/a	n/a	-999	12	[-999, -999, -999]	n/a	catFR1	5	R1495J
1243.132	2.734	1488634	PROB	2.734	n/a	n/a	n/a	-999	12	[2, 1, 3]	6	catFR1	5	R1495J
1245.866	2.584	1491368	PROB	2.584	n/a	n/a	n/a	-999	12	[7, 8, 7]	22	catFR1	5	R1495J
1248.45	2.366	1493952	PROB	2.366	n/a	n/a	n/a	-999	12	[5, 5, 7]	17	catFR1	5	R1495J
1250.816	3.55	1496318	PROB	3.55	n/a	n/a	n/a	-999	12	[8, 3, 6]	17	catFR1	5	R1495J
1254.366	3.134	1499868	PROB	3.134	n/a	n/a	n/a	-999	12	[7, 7, 8]	22	catFR1	5	R1495J
1257.5	2.965	1503001	PROB	2.965	n/a	n/a	n/a	-999	12	[8, 3, 3]	14	catFR1	5	R1495J
1260.465	2.001	1505966	PROB	2.001	n/a	n/a	n/a	-999	12	[1, 1, 3]	5	catFR1	5	R1495J
1262.466	3.731	1507967	PROB	3.731	n/a	n/a	n/a	-999	12	[4, 7, 2]	13	catFR1	5	R1495J
1266.197	0.0	1511698	STOP	n/a	n/a	n/a	n/a	-999	12	[-999, -999, -999]	n/a	catFR1	5	R1495J
1266.197	2.135	1511704	DISTRACT_END	n/a	n/a	n/a	n/a	-999	12	[0, 0, 0]	n/a	catFR1	5	R1495J
1268.332	0.531	1513836	REC_START	n/a	n/a	n/a	n/a	-999	12	[0, 0, 0]	n/a	catFR1	5	R1495J
1268.863	0.689	1514364	REC_WORD	0.689	n/a	HUMIDITY	Weather	11	12	[0, 0, 0]	n/a	catFR1	5	R1495J
1269.552	6.306	1515053	REC_WORD	6.306	n/a	RAIN	Weather	12	12	[0, 0, 0]	n/a	catFR1	5	R1495J
1275.858	0.476	1521359	REC_WORD	0.476	n/a	BLUEBERRY	Fruit	2	12	[0, 0, 0]	n/a	catFR1	5	R1495J
1276.334	2.674	1521835	REC_WORD	2.674	n/a	STRAWBERRY	Fruit	8	12	[0, 0, 0]	n/a	catFR1	5	R1495J
1279.008	19.554	1524509	REC_WORD	19.554	n/a	PEAR	Fruit	7	12	[0, 0, 0]	n/a	catFR1	5	R1495J
1298.562	0.0	1544059	REC_END	n/a	n/a	n/a	n/a	-999	12	[0, 0, 0]	n/a	catFR1	5	R1495J
