onset	duration	sample	trial_type	response_time	stim_file	item_name	category	serialpos	list	test	answer	experiment	session	subject
0.0	2.729	206070	INSTRUCT_START	n/a	n/a	n/a	n/a	-999	-999	[0, 0, 0]	n/a	catFR1	6	R1662S
2.729	26.262	208804	INSTRUCT_END	n/a	n/a	n/a	n/a	-999	-999	[0, 0, 0]	n/a	catFR1	6	R1662S
28.991	10.0	235069	COUNTDOWN_START	n/a	n/a	n/a	n/a	-999	-999	[0, 0, 0]	n/a	catFR1	6	R1662S
39.346	0.0	245416	COUNTDOWN_END	n/a	n/a	n/a	n/a	-999	-999	[0, 0, 0]	n/a	catFR1	6	R1662S
39.346	2.249	245416	ENCODING_START	n/a	n/a	n/a	n/a	-999	-1	[0, 0, 0]	n/a	catFR1	6	R1662S
41.595	1.6	247665	WORD	n/a	n/a	PAPER	OfficeSupplies	1	-1	[0, 0, 0]	n/a	catFR1	6	R1662S
43.2	0.941	249280	WORD_OFF	n/a	n/a	PAPER	OfficeSupplies	1	-1	[0, 0, 0]	n/a	catFR1	6	R1662S
44.141	1.6	250214	WORD	n/a	n/a	NOTEBOOK	OfficeSupplies	2	-1	[0, 0, 0]	n/a	catFR1	6	R1662S
45.742	0.815	251817	WORD_OFF	n/a	n/a	NOTEBOOK	OfficeSupplies	2	-1	[0, 0, 0]	n/a	catFR1	6	R1662S
46.557	1.6	252636	WORD	n/a	n/a	NOSE	BodyParts	3	-1	[0, 0, 0]	n/a	catFR1	6	R1662S
48.161	0.805	254240	WORD_OFF	n/a	n/a	NOSE	BodyParts	3	-1	[0, 0, 0]	n/a	catFR1	6	R1662S
48.966	1.6	255047	WORD	n/a	n/a	FOOT	BodyParts	4	-1	[0, 0, 0]	n/a	catFR1	6	R1662S
50.574	0.791	256650	WORD_OFF	n/a	n/a	FOOT	BodyParts	4	-1	[0, 0, 0]	n/a	catFR1	6	R1662S
51.365	1.6	257435	WORD	n/a	n/a	CHERRY	Fruit	5	-1	[0, 0, 0]	n/a	catFR1	6	R1662S
52.966	0.967	259038	WORD_OFF	n/a	n/a	CHERRY	Fruit	5	-1	[0, 0, 0]	n/a	catFR1	6	R1662S
53.933	1.6	260007	WORD	n/a	n/a	PEACH	Fruit	6	-1	[0, 0, 0]	n/a	catFR1	6	R1662S
55.541	0.925	261610	WORD_OFF	n/a	n/a	PEACH	Fruit	6	-1	[0, 0, 0]	n/a	catFR1	6	R1662S
56.466	1.6	262545	WORD	n/a	n/a	BINDER	OfficeSupplies	7	-1	[0, 0, 0]	n/a	catFR1	6	R1662S
58.066	0.834	264137	WORD_OFF	n/a	n/a	BINDER	OfficeSupplies	7	-1	[0, 0, 0]	n/a	catFR1	6	R1662S
58.9	1.6	264979	WORD	n/a	n/a	ERASER	OfficeSupplies	8	-1	[0, 0, 0]	n/a	catFR1	6	R1662S
60.507	0.978	266582	WORD_OFF	n/a	n/a	ERASER	OfficeSupplies	8	-1	[0, 0, 0]	n/a	catFR1	6	R1662S
61.485	1.6	267562	WORD	n/a	n/a	FINGERS	BodyParts	9	-1	[0, 0, 0]	n/a	catFR1	6	R1662S
63.09	0.846	269166	WORD_OFF	n/a	n/a	FINGERS	BodyParts	9	-1	[0, 0, 0]	n/a	catFR1	6	R1662S
63.936	1.6	270008	WORD	n/a	n/a	ARM	BodyParts	10	-1	[0, 0, 0]	n/a	catFR1	6	R1662S
65.54	0.917	271611	WORD_OFF	n/a	n/a	ARM	BodyParts	10	-1	[0, 0, 0]	n/a	catFR1	6	R1662S
66.457	1.6	272534	WORD	n/a	n/a	BLUEBERRY	Fruit	11	-1	[0, 0, 0]	n/a	catFR1	6	R1662S
68.059	0.94	274137	WORD_OFF	n/a	n/a	BLUEBERRY	Fruit	11	-1	[0, 0, 0]	n/a	catFR1	6	R1662S
68.999	1.6	275072	WORD	n/a	n/a	PLUM	Fruit	12	-1	[0, 0, 0]	n/a	catFR1	6	R1662S
70.611	0.0	276686	PROB	3.541	n/a	n/a	n/a	-999	-1	[5, 6, 5]	16.0	catFR1	6	R1662S
70.607	0.004	276687	WORD_OFF	n/a	n/a	PLUM	Fruit	12	-1	[0, 0, 0]	n/a	catFR1	6	R1662S
70.611	0.001	276687	ENCODING_END	n/a	n/a	n/a	n/a	-999	-1	[0, 0, 0]	n/a	catFR1	6	R1662S
70.612	0.0	276687	DISTRACT_START	n/a	n/a	n/a	n/a	-999	-1	[0, 0, 0]	n/a	catFR1	6	R1662S
70.612	3.546	276687	START	n/a	n/a	n/a	n/a	-999	-1	[-999, -999, -999]	n/a	catFR1	6	R1662S
74.158	5.0	280233	PROB	4.992	n/a	n/a	n/a	-999	-1	[3, 6, 7]	16.0	catFR1	6	R1662S
79.158	2.74	285233	PROB	2.733	n/a	n/a	n/a	-999	-1	[3, 3, 6]	12.0	catFR1	6	R1662S
81.898	3.793	287973	PROB	3.783	n/a	n/a	n/a	-999	-1	[2, 8, 6]	16.0	catFR1	6	R1662S
85.691	2.366	291766	PROB	2.357	n/a	n/a	n/a	-999	-1	[1, 1, 3]	5.0	catFR1	6	R1662S
88.057	3.426	294132	PROB	3.416	n/a	n/a	n/a	-999	-1	[8, 4, 6]	18.0	catFR1	6	R1662S
91.483	0.0	297553	DISTRACT_END	n/a	n/a	n/a	n/a	-999	-1	[0, 0, 0]	n/a	catFR1	6	R1662S
91.483	2.177	297558	STOP	n/a	n/a	n/a	n/a	-999	-1	[-999, -999, -999]	n/a	catFR1	6	R1662S
93.66	1.187	299733	REC_START	n/a	n/a	n/a	n/a	-999	-1	[0, 0, 0]	n/a	catFR1	6	R1662S
94.847	1.096	300922	REC_WORD_VV	1.187	n/a	<>	n/a	-999	-1	[0, 0, 0]	n/a	catFR1	6	R1662S
95.943	0.905	302018	REC_WORD	2.283	n/a	BLUEBERRY	Fruit	11	-1	[0, 0, 0]	n/a	catFR1	6	R1662S
96.848	1.508	302923	REC_WORD	3.188	n/a	PLUM	Fruit	12	-1	[0, 0, 0]	n/a	catFR1	6	R1662S
98.356	1.352	304431	REC_WORD	4.696	n/a	PAPER	OfficeSupplies	1	-1	[0, 0, 0]	n/a	catFR1	6	R1662S
99.708	2.073	305783	REC_WORD	6.048	n/a	NOTEBOOK	OfficeSupplies	2	-1	[0, 0, 0]	n/a	catFR1	6	R1662S
101.781	1.885	307856	REC_WORD_VV	8.121	n/a	<>	n/a	-999	-1	[0, 0, 0]	n/a	catFR1	6	R1662S
103.666	2.31	309741	REC_WORD	10.006	n/a	BINDER	OfficeSupplies	7	-1	[0, 0, 0]	n/a	catFR1	6	R1662S
105.976	3.908	312051	REC_WORD	12.316	n/a	ELBOW	n/a	-999	-1	[0, 0, 0]	n/a	catFR1	6	R1662S
109.884	1.803	315959	REC_WORD	16.224	n/a	FOOT	BodyParts	4	-1	[0, 0, 0]	n/a	catFR1	6	R1662S
111.687	4.546	317762	REC_WORD	18.027	n/a	ARM	BodyParts	10	-1	[0, 0, 0]	n/a	catFR1	6	R1662S
116.233	3.499	322308	REC_WORD	22.573	n/a	PEACH	Fruit	6	-1	[0, 0, 0]	n/a	catFR1	6	R1662S
119.732	3.36	325807	REC_WORD	26.072	n/a	CHERRY	Fruit	5	-1	[0, 0, 0]	n/a	catFR1	6	R1662S
123.092	0.724	329167	REC_WORD_VV	29.432	n/a	<>	n/a	-999	-1	[0, 0, 0]	n/a	catFR1	6	R1662S
123.816	10.966	329885	REC_END	n/a	n/a	n/a	n/a	-999	-1	[0, 0, 0]	n/a	catFR1	6	R1662S
134.782	10.0	340855	COUNTDOWN_START	n/a	n/a	n/a	n/a	-999	1	[0, 0, 0]	n/a	catFR1	6	R1662S
145.125	0.0	351202	COUNTDOWN_END	n/a	n/a	n/a	n/a	-999	1	[0, 0, 0]	n/a	catFR1	6	R1662S
145.125	2.258	351202	ENCODING_START	n/a	n/a	n/a	n/a	-999	1	[0, 0, 0]	n/a	catFR1	6	R1662S
147.383	1.6	353463	WORD	n/a	wordpools/wordpool_categorized_EN.txt	CHIMPANZEE	Zoo	1	1	[0, 0, 0]	n/a	catFR1	6	R1662S
148.992	0.957	355066	WORD_OFF	n/a	n/a	CHIMPANZEE	Zoo	1	1	[0, 0, 0]	n/a	catFR1	6	R1662S
149.949	1.6	356023	WORD	n/a	wordpools/wordpool_categorized_EN.txt	CHEETAH	Zoo	2	1	[0, 0, 0]	n/a	catFR1	6	R1662S
151.558	0.791	357627	WORD_OFF	n/a	n/a	CHEETAH	Zoo	2	1	[0, 0, 0]	n/a	catFR1	6	R1662S
152.349	1.6	358423	WORD	n/a	wordpools/wordpool_categorized_EN.txt	FUDGE	Desserts	3	1	[0, 0, 0]	n/a	catFR1	6	R1662S
153.949	0.817	360026	WORD_OFF	n/a	n/a	FUDGE	Desserts	3	1	[0, 0, 0]	n/a	catFR1	6	R1662S
154.766	1.6	360845	WORD	n/a	wordpools/wordpool_categorized_EN.txt	MOUSSE	Desserts	4	1	[0, 0, 0]	n/a	catFR1	6	R1662S
156.374	0.984	362448	WORD_OFF	n/a	n/a	MOUSSE	Desserts	4	1	[0, 0, 0]	n/a	catFR1	6	R1662S
157.358	1.6	363429	WORD	n/a	wordpools/wordpool_categorized_EN.txt	SPEAKER	Electronics	5	1	[0, 0, 0]	n/a	catFR1	6	R1662S
158.965	0.992	365044	WORD_OFF	n/a	n/a	SPEAKER	Electronics	5	1	[0, 0, 0]	n/a	catFR1	6	R1662S
159.957	1.6	366036	WORD	n/a	wordpools/wordpool_categorized_EN.txt	PRINTER	Electronics	6	1	[0, 0, 0]	n/a	catFR1	6	R1662S
161.557	0.841	367628	WORD_OFF	n/a	n/a	PRINTER	Electronics	6	1	[0, 0, 0]	n/a	catFR1	6	R1662S
162.398	1.6	368470	WORD	n/a	wordpools/wordpool_categorized_EN.txt	MONKEY	Zoo	7	1	[0, 0, 0]	n/a	catFR1	6	R1662S
163.999	0.842	370073	WORD_OFF	n/a	n/a	MONKEY	Zoo	7	1	[0, 0, 0]	n/a	catFR1	6	R1662S
164.841	1.6	370915	WORD	n/a	wordpools/wordpool_categorized_EN.txt	ELEPHANT	Zoo	8	1	[0, 0, 0]	n/a	catFR1	6	R1662S
166.441	0.86	372518	WORD_OFF	n/a	n/a	ELEPHANT	Zoo	8	1	[0, 0, 0]	n/a	catFR1	6	R1662S
167.301	1.6	373372	WORD	n/a	wordpools/wordpool_categorized_EN.txt	TABLET	Electronics	9	1	[0, 0, 0]	n/a	catFR1	6	R1662S
168.908	0.858	374987	WORD_OFF	n/a	n/a	TABLET	Electronics	9	1	[0, 0, 0]	n/a	catFR1	6	R1662S
169.766	1.6	375840	WORD	n/a	wordpools/wordpool_categorized_EN.txt	HEADPHONES	Electronics	10	1	[0, 0, 0]	n/a	catFR1	6	R1662S
171.366	0.85	377444	WORD_OFF	n/a	n/a	HEADPHONES	Electronics	10	1	[0, 0, 0]	n/a	catFR1	6	R1662S
172.216	1.6	378297	WORD	n/a	wordpools/wordpool_categorized_EN.txt	PASTRY	Desserts	11	1	[0, 0, 0]	n/a	catFR1	6	R1662S
173.816	0.824	379889	WORD_OFF	n/a	n/a	PASTRY	Desserts	11	1	[0, 0, 0]	n/a	catFR1	6	R1662S
174.64	1.6	380720	WORD	n/a	wordpools/wordpool_categorized_EN.txt	BROWNIES	Desserts	12	1	[0, 0, 0]	n/a	catFR1	6	R1662S
176.241	0.004	382316	PROB	3.916	n/a	n/a	n/a	-999	1	[7, 1, 4]	12.0	catFR1	6	R1662S
176.245	0.0	382320	START	n/a	n/a	n/a	n/a	-999	1	[-999, -999, -999]	n/a	catFR1	6	R1662S
176.24	0.005	382323	WORD_OFF	n/a	n/a	BROWNIES	Desserts	12	1	[0, 0, 0]	n/a	catFR1	6	R1662S
176.245	0.0	382323	ENCODING_END	n/a	n/a	n/a	n/a	-999	1	[0, 0, 0]	n/a	catFR1	6	R1662S
176.245	3.921	382323	DISTRACT_START	n/a	n/a	n/a	n/a	-999	1	[0, 0, 0]	n/a	catFR1	6	R1662S
180.166	3.183	386241	PROB	3.174	n/a	n/a	n/a	-999	1	[1, 8, 8]	17.0	catFR1	6	R1662S
183.349	3.167	389424	PROB	3.158	n/a	n/a	n/a	-999	1	[6, 7, 2]	15.0	catFR1	6	R1662S
186.516	3.85	392591	PROB	3.84	n/a	n/a	n/a	-999	1	[6, 4, 7]	17.0	catFR1	6	R1662S
190.366	2.766	396441	PROB	2.757	n/a	n/a	n/a	-999	1	[1, 7, 1]	9.0	catFR1	6	R1662S
193.132	3.933	399207	PROB	3.924	n/a	n/a	n/a	-999	1	[2, 7, 8]	17.0	catFR1	6	R1662S
197.065	0.0	403140	STOP	n/a	n/a	n/a	n/a	-999	1	[-999, -999, -999]	n/a	catFR1	6	R1662S
197.065	2.3	403143	DISTRACT_END	n/a	n/a	n/a	n/a	-999	1	[0, 0, 0]	n/a	catFR1	6	R1662S
199.365	1.689	405439	REC_START	n/a	n/a	n/a	n/a	-999	1	[0, 0, 0]	n/a	catFR1	6	R1662S
201.054	0.655	407129	REC_WORD_VV	1.689	n/a	<>	n/a	-999	1	[0, 0, 0]	n/a	catFR1	6	R1662S
201.709	5.006	407784	REC_WORD	2.344	n/a	CHIMPANZEE	Zoo	1	1	[0, 0, 0]	n/a	catFR1	6	R1662S
206.715	1.656	412790	REC_WORD	7.35	n/a	MONKEY	Zoo	7	1	[0, 0, 0]	n/a	catFR1	6	R1662S
208.371	2.02	414446	REC_WORD_VV	9.006	n/a	<>	n/a	-999	1	[0, 0, 0]	n/a	catFR1	6	R1662S
210.391	5.371	416466	REC_WORD	11.026	n/a	PASTRY	Desserts	11	1	[0, 0, 0]	n/a	catFR1	6	R1662S
215.762	2.65	421837	REC_WORD_VV	16.397	n/a	<>	n/a	-999	1	[0, 0, 0]	n/a	catFR1	6	R1662S
218.412	6.378	424487	REC_WORD	19.047	n/a	SPEAKER	Electronics	5	1	[0, 0, 0]	n/a	catFR1	6	R1662S
224.79	2.259	430865	REC_WORD	25.425	n/a	BLUEBERRY	Fruit	-999	1	[0, 0, 0]	n/a	catFR1	6	R1662S
227.049	2.454	433124	REC_WORD_VV	27.684	n/a	<>	n/a	-999	1	[0, 0, 0]	n/a	catFR1	6	R1662S
229.503	2.437	435579	REC_END	n/a	n/a	n/a	n/a	-999	1	[0, 0, 0]	n/a	catFR1	6	R1662S
231.94	10.0	438013	COUNTDOWN_START	n/a	n/a	n/a	n/a	-999	2	[0, 0, 0]	n/a	catFR1	6	R1662S
242.282	0.0	448360	COUNTDOWN_END	n/a	n/a	n/a	n/a	-999	2	[0, 0, 0]	n/a	catFR1	6	R1662S
242.282	2.033	448360	ENCODING_START	n/a	n/a	n/a	n/a	-999	2	[0, 0, 0]	n/a	catFR1	6	R1662S
244.315	1.6	450390	WORD	n/a	wordpools/wordpool_categorized_EN.txt	LILY	Flowers	1	2	[0, 0, 0]	n/a	catFR1	6	R1662S
245.916	0.966	451994	WORD_OFF	n/a	n/a	LILY	Flowers	1	2	[0, 0, 0]	n/a	catFR1	6	R1662S
246.882	1.6	452951	WORD	n/a	wordpools/wordpool_categorized_EN.txt	DAISY	Flowers	2	2	[0, 0, 0]	n/a	catFR1	6	R1662S
248.482	0.809	454554	WORD_OFF	n/a	n/a	DAISY	Flowers	2	2	[0, 0, 0]	n/a	catFR1	6	R1662S
249.291	1.6	455373	WORD	n/a	wordpools/wordpool_categorized_EN.txt	TROMBONE	Instruments	3	2	[0, 0, 0]	n/a	catFR1	6	R1662S
250.899	0.923	456977	WORD_OFF	n/a	n/a	TROMBONE	Instruments	3	2	[0, 0, 0]	n/a	catFR1	6	R1662S
251.822	1.6	457899	WORD	n/a	wordpools/wordpool_categorized_EN.txt	FLUTE	Instruments	4	2	[0, 0, 0]	n/a	catFR1	6	R1662S
253.423	0.792	459491	WORD_OFF	n/a	n/a	FLUTE	Instruments	4	2	[0, 0, 0]	n/a	catFR1	6	R1662S
254.215	1.6	460287	WORD	n/a	wordpools/wordpool_categorized_EN.txt	RATCHET	Tools	5	2	[0, 0, 0]	n/a	catFR1	6	R1662S
255.815	0.926	461891	WORD_OFF	n/a	n/a	RATCHET	Tools	5	2	[0, 0, 0]	n/a	catFR1	6	R1662S
256.741	1.6	462813	WORD	n/a	wordpools/wordpool_categorized_EN.txt	AXE	Tools	6	2	[0, 0, 0]	n/a	catFR1	6	R1662S
258.34	0.851	464417	WORD_OFF	n/a	n/a	AXE	Tools	6	2	[0, 0, 0]	n/a	catFR1	6	R1662S
259.191	1.6	465270	WORD	n/a	wordpools/wordpool_categorized_EN.txt	GUITAR	Instruments	7	2	[0, 0, 0]	n/a	catFR1	6	R1662S
260.801	0.79	466874	WORD_OFF	n/a	n/a	GUITAR	Instruments	7	2	[0, 0, 0]	n/a	catFR1	6	R1662S
261.591	1.6	467670	WORD	n/a	wordpools/wordpool_categorized_EN.txt	VIOLIN	Instruments	8	2	[0, 0, 0]	n/a	catFR1	6	R1662S
263.191	0.942	469261	WORD_OFF	n/a	n/a	VIOLIN	Instruments	8	2	[0, 0, 0]	n/a	catFR1	6	R1662S
264.133	1.6	470207	WORD	n/a	wordpools/wordpool_categorized_EN.txt	ORCHID	Flowers	9	2	[0, 0, 0]	n/a	catFR1	6	R1662S
265.74	0.967	471811	WORD_OFF	n/a	n/a	ORCHID	Flowers	9	2	[0, 0, 0]	n/a	catFR1	6	R1662S
266.707	1.6	472791	WORD	n/a	wordpools/wordpool_categorized_EN.txt	TULIP	Flowers	10	2	[0, 0, 0]	n/a	catFR1	6	R1662S
268.31	0.973	474383	WORD_OFF	n/a	n/a	TULIP	Flowers	10	2	[0, 0, 0]	n/a	catFR1	6	R1662S
269.283	1.6	475363	WORD	n/a	wordpools/wordpool_categorized_EN.txt	SHOVEL	Tools	11	2	[0, 0, 0]	n/a	catFR1	6	R1662S
270.892	0.907	476967	WORD_OFF	n/a	n/a	SHOVEL	Tools	11	2	[0, 0, 0]	n/a	catFR1	6	R1662S
271.799	1.6	477878	WORD	n/a	wordpools/wordpool_categorized_EN.txt	LEVEL	Tools	12	2	[0, 0, 0]	n/a	catFR1	6	R1662S
273.41	0.0	479481	WORD_OFF	n/a	n/a	LEVEL	Tools	12	2	[0, 0, 0]	n/a	catFR1	6	R1662S
273.408	0.005	479483	PROB	3.9	n/a	n/a	n/a	-999	2	[4, 2, 3]	9.0	catFR1	6	R1662S
273.413	0.0	479488	START	n/a	n/a	n/a	n/a	-999	2	[-999, -999, -999]	n/a	catFR1	6	R1662S
273.413	0.0	479493	ENCODING_END	n/a	n/a	n/a	n/a	-999	2	[0, 0, 0]	n/a	catFR1	6	R1662S
273.413	3.902	479493	DISTRACT_START	n/a	n/a	n/a	n/a	-999	2	[0, 0, 0]	n/a	catFR1	6	R1662S
277.315	3.109	483390	PROB	3.1	n/a	n/a	n/a	-999	2	[3, 7, 7]	17.0	catFR1	6	R1662S
280.424	3.434	486499	PROB	3.424	n/a	n/a	n/a	-999	2	[6, 6, 6]	18.0	catFR1	6	R1662S
283.858	5.916	489933	PROB	5.907	n/a	n/a	n/a	-999	2	[7, 4, 5]	16.0	catFR1	6	R1662S
289.774	4.407	495849	PROB	4.399	n/a	n/a	n/a	-999	2	[4, 2, 5]	11.0	catFR1	6	R1662S
294.181	0.0	500256	DISTRACT_END	n/a	n/a	n/a	n/a	-999	2	[0, 0, 0]	n/a	catFR1	6	R1662S
294.181	2.126	500256	STOP	n/a	n/a	n/a	n/a	-999	2	[-999, -999, -999]	n/a	catFR1	6	R1662S
296.307	1.12	502389	REC_START	n/a	n/a	n/a	n/a	-999	2	[0, 0, 0]	n/a	catFR1	6	R1662S
297.427	0.555	503502	REC_WORD	1.12	n/a	RATCHET	Tools	5	2	[0, 0, 0]	n/a	catFR1	6	R1662S
297.982	1.085	504057	REC_WORD	1.675	n/a	SHOVEL	Tools	11	2	[0, 0, 0]	n/a	catFR1	6	R1662S
299.067	0.681	505142	REC_WORD	2.76	n/a	LEVEL	Tools	12	2	[0, 0, 0]	n/a	catFR1	6	R1662S
299.748	1.086	505823	REC_WORD	3.441	n/a	DAISY	Flowers	2	2	[0, 0, 0]	n/a	catFR1	6	R1662S
300.834	0.932	506909	REC_WORD	4.527	n/a	TULIP	Flowers	10	2	[0, 0, 0]	n/a	catFR1	6	R1662S
301.766	2.494	507841	REC_WORD	5.459	n/a	ORCHID	Flowers	9	2	[0, 0, 0]	n/a	catFR1	6	R1662S
304.26	3.216	510335	REC_WORD	7.953	n/a	LILY	Flowers	1	2	[0, 0, 0]	n/a	catFR1	6	R1662S
307.476	8.934	513551	REC_WORD_VV	11.169	n/a	<>	n/a	-999	2	[0, 0, 0]	n/a	catFR1	6	R1662S
316.41	5.692	522485	REC_WORD	20.103	n/a	AXE	Tools	6	2	[0, 0, 0]	n/a	catFR1	6	R1662S
322.102	1.0	528177	REC_WORD_VV	25.795	n/a	<>	n/a	-999	2	[0, 0, 0]	n/a	catFR1	6	R1662S
323.102	3.345	529177	REC_WORD_VV	26.795	n/a	<>	n/a	-999	2	[0, 0, 0]	n/a	catFR1	6	R1662S
326.447	3.737	532519	REC_END	n/a	n/a	n/a	n/a	-999	2	[0, 0, 0]	n/a	catFR1	6	R1662S
330.184	10.0	536256	COUNTDOWN_START	n/a	n/a	n/a	n/a	-999	3	[0, 0, 0]	n/a	catFR1	6	R1662S
340.525	0.0	546603	COUNTDOWN_END	n/a	n/a	n/a	n/a	-999	3	[0, 0, 0]	n/a	catFR1	6	R1662S
340.525	2.199	546603	ENCODING_START	n/a	n/a	n/a	n/a	-999	3	[0, 0, 0]	n/a	catFR1	6	R1662S
342.724	1.6	548794	WORD	n/a	wordpools/wordpool_categorized_EN.txt	PLANE	Vehicles	1	3	[0, 0, 0]	n/a	catFR1	6	R1662S
344.324	0.966	550398	WORD_OFF	n/a	n/a	PLANE	Vehicles	1	3	[0, 0, 0]	n/a	catFR1	6	R1662S
345.29	1.6	551367	WORD	n/a	wordpools/wordpool_categorized_EN.txt	TRUCK	Vehicles	2	3	[0, 0, 0]	n/a	catFR1	6	R1662S
346.891	0.802	552970	WORD_OFF	n/a	n/a	TRUCK	Vehicles	2	3	[0, 0, 0]	n/a	catFR1	6	R1662S
347.693	1.6	553766	WORD	n/a	wordpools/wordpool_categorized_EN.txt	RIVER	Landscapes	3	3	[0, 0, 0]	n/a	catFR1	6	R1662S
349.298	0.793	555369	WORD_OFF	n/a	n/a	RIVER	Landscapes	3	3	[0, 0, 0]	n/a	catFR1	6	R1662S
350.091	1.6	556165	WORD	n/a	wordpools/wordpool_categorized_EN.txt	VALLEY	Landscapes	4	3	[0, 0, 0]	n/a	catFR1	6	R1662S
351.701	0.914	557780	WORD_OFF	n/a	n/a	VALLEY	Landscapes	4	3	[0, 0, 0]	n/a	catFR1	6	R1662S
352.615	1.6	558691	WORD	n/a	wordpools/wordpool_categorized_EN.txt	FOG	Weather	5	3	[0, 0, 0]	n/a	catFR1	6	R1662S
354.216	0.966	560295	WORD_OFF	n/a	n/a	FOG	Weather	5	3	[0, 0, 0]	n/a	catFR1	6	R1662S
355.182	1.6	561263	WORD	n/a	wordpools/wordpool_categorized_EN.txt	HURRICANE	Weather	6	3	[0, 0, 0]	n/a	catFR1	6	R1662S
356.782	0.775	562855	WORD_OFF	n/a	n/a	HURRICANE	Weather	6	3	[0, 0, 0]	n/a	catFR1	6	R1662S
357.557	1.6	563640	WORD	n/a	wordpools/wordpool_categorized_EN.txt	MOUNTAIN	Landscapes	7	3	[0, 0, 0]	n/a	catFR1	6	R1662S
359.168	0.797	565243	WORD_OFF	n/a	n/a	MOUNTAIN	Landscapes	7	3	[0, 0, 0]	n/a	catFR1	6	R1662S
359.965	1.6	566039	WORD	n/a	wordpools/wordpool_categorized_EN.txt	WOODS	Landscapes	8	3	[0, 0, 0]	n/a	catFR1	6	R1662S
361.565	0.784	567642	WORD_OFF	n/a	n/a	WOODS	Landscapes	8	3	[0, 0, 0]	n/a	catFR1	6	R1662S
362.349	1.6	568427	WORD	n/a	wordpools/wordpool_categorized_EN.txt	LIGHTNING	Weather	9	3	[0, 0, 0]	n/a	catFR1	6	R1662S
363.949	0.992	570018	WORD_OFF	n/a	n/a	LIGHTNING	Weather	9	3	[0, 0, 0]	n/a	catFR1	6	R1662S
364.941	1.6	571010	WORD	n/a	wordpools/wordpool_categorized_EN.txt	HUMIDITY	Weather	10	3	[0, 0, 0]	n/a	catFR1	6	R1662S
366.55	0.992	572625	WORD_OFF	n/a	n/a	HUMIDITY	Weather	10	3	[0, 0, 0]	n/a	catFR1	6	R1662S
367.542	1.6	573617	WORD	n/a	wordpools/wordpool_categorized_EN.txt	MOPED	Vehicles	11	3	[0, 0, 0]	n/a	catFR1	6	R1662S
369.149	0.75	575221	WORD_OFF	n/a	n/a	MOPED	Vehicles	11	3	[0, 0, 0]	n/a	catFR1	6	R1662S
369.899	1.6	575970	WORD	n/a	wordpools/wordpool_categorized_EN.txt	BIKE	Vehicles	12	3	[0, 0, 0]	n/a	catFR1	6	R1662S
371.507	0.0	577582	PROB	3.049	n/a	n/a	n/a	-999	3	[4, 4, 4]	12.0	catFR1	6	R1662S
371.507	0.004	577585	WORD_OFF	n/a	n/a	BIKE	Vehicles	12	3	[0, 0, 0]	n/a	catFR1	6	R1662S
371.511	0.0	577585	ENCODING_END	n/a	n/a	n/a	n/a	-999	3	[0, 0, 0]	n/a	catFR1	6	R1662S
371.511	0.0	577585	DISTRACT_START	n/a	n/a	n/a	n/a	-999	3	[0, 0, 0]	n/a	catFR1	6	R1662S
371.511	3.055	577586	START	n/a	n/a	n/a	n/a	-999	3	[-999, -999, -999]	n/a	catFR1	6	R1662S
374.566	3.768	580641	PROB	3.749	n/a	n/a	n/a	-999	3	[5, 8, 8]	21.0	catFR1	6	R1662S
378.334	3.764	584409	PROB	3.757	n/a	n/a	n/a	-999	3	[3, 2, 1]	6.0	catFR1	6	R1662S
382.098	3.119	588173	PROB	3.108	n/a	n/a	n/a	-999	3	[5, 7, 1]	13.0	catFR1	6	R1662S
385.217	1.915	591292	PROB	1.907	n/a	n/a	n/a	-999	3	[2, 2, 2]	6.0	catFR1	6	R1662S
387.132	3.574	593207	PROB	3.566	n/a	n/a	n/a	-999	3	[2, 5, 3]	10.0	catFR1	6	R1662S
390.706	2.784	596781	PROB	2.775	n/a	n/a	n/a	-999	3	[5, 2, 1]	8.0	catFR1	6	R1662S
393.49	0.0	599559	DISTRACT_END	n/a	n/a	n/a	n/a	-999	3	[0, 0, 0]	n/a	catFR1	6	R1662S
393.49	2.025	599565	STOP	n/a	n/a	n/a	n/a	-999	3	[-999, -999, -999]	n/a	catFR1	6	R1662S
395.515	0.144	601589	REC_START	n/a	n/a	n/a	n/a	-999	3	[0, 0, 0]	n/a	catFR1	6	R1662S
395.659	0.926	601734	REC_WORD	0.144	n/a	MOPED	Vehicles	11	3	[0, 0, 0]	n/a	catFR1	6	R1662S
396.585	0.684	602660	REC_WORD	1.07	n/a	BIKE	Vehicles	12	3	[0, 0, 0]	n/a	catFR1	6	R1662S
397.269	0.569	603344	REC_WORD	1.754	n/a	VALLEY	Landscapes	4	3	[0, 0, 0]	n/a	catFR1	6	R1662S
397.838	2.754	603913	REC_WORD	2.323	n/a	MOUNTAIN	Landscapes	7	3	[0, 0, 0]	n/a	catFR1	6	R1662S
400.592	2.02	606667	REC_WORD_VV	5.077	n/a	<>	n/a	-999	3	[0, 0, 0]	n/a	catFR1	6	R1662S
402.612	1.43	608687	REC_WORD	7.097	n/a	HILLS	n/a	-999	3	[0, 0, 0]	n/a	catFR1	6	R1662S
404.042	0.394	610117	REC_WORD	8.527	n/a	WOODS	Landscapes	8	3	[0, 0, 0]	n/a	catFR1	6	R1662S
404.436	1.0	610511	REC_WORD_VV	8.921	n/a	<>	n/a	-999	3	[0, 0, 0]	n/a	catFR1	6	R1662S
405.436	1.0	611511	REC_WORD_VV	9.921	n/a	<>	n/a	-999	3	[0, 0, 0]	n/a	catFR1	6	R1662S
406.436	3.976	612511	REC_WORD_VV	10.921	n/a	<>	n/a	-999	3	[0, 0, 0]	n/a	catFR1	6	R1662S
410.412	12.455	616487	REC_WORD_VV	14.897	n/a	<>	n/a	-999	3	[0, 0, 0]	n/a	catFR1	6	R1662S
422.867	2.46	628942	REC_WORD_VV	27.352	n/a	<>	n/a	-999	3	[0, 0, 0]	n/a	catFR1	6	R1662S
425.327	0.322	631402	REC_WORD	29.812	n/a	FOG	Weather	5	3	[0, 0, 0]	n/a	catFR1	6	R1662S
425.649	3.699	631718	REC_END	n/a	n/a	n/a	n/a	-999	3	[0, 0, 0]	n/a	catFR1	6	R1662S
429.348	10.0	635421	COUNTDOWN_START	n/a	n/a	n/a	n/a	-999	4	[0, 0, 0]	n/a	catFR1	6	R1662S
439.691	0.001	645768	COUNTDOWN_END	n/a	n/a	n/a	n/a	-999	4	[0, 0, 0]	n/a	catFR1	6	R1662S
439.692	1.973	645768	ENCODING_START	n/a	n/a	n/a	n/a	-999	4	[0, 0, 0]	n/a	catFR1	6	R1662S
441.665	1.6	647740	WORD	n/a	wordpools/wordpool_categorized_EN.txt	GRAPE	Fruit	1	4	[0, 0, 0]	n/a	catFR1	6	R1662S
443.265	0.934	649344	WORD_OFF	n/a	n/a	GRAPE	Fruit	1	4	[0, 0, 0]	n/a	catFR1	6	R1662S
444.199	1.6	650278	WORD	n/a	wordpools/wordpool_categorized_EN.txt	LEMON	Fruit	2	4	[0, 0, 0]	n/a	catFR1	6	R1662S
445.807	0.932	651881	WORD_OFF	n/a	n/a	LEMON	Fruit	2	4	[0, 0, 0]	n/a	catFR1	6	R1662S
446.739	1.6	652816	WORD	n/a	wordpools/wordpool_categorized_EN.txt	PUDDING	Desserts	3	4	[0, 0, 0]	n/a	catFR1	6	R1662S
448.342	0.898	654419	WORD_OFF	n/a	n/a	PUDDING	Desserts	3	4	[0, 0, 0]	n/a	catFR1	6	R1662S
449.24	1.6	655319	WORD	n/a	wordpools/wordpool_categorized_EN.txt	PIE	Desserts	4	4	[0, 0, 0]	n/a	catFR1	6	R1662S
450.841	0.959	656911	WORD_OFF	n/a	n/a	PIE	Desserts	4	4	[0, 0, 0]	n/a	catFR1	6	R1662S
451.8	1.6	657880	WORD	n/a	wordpools/wordpool_categorized_EN.txt	CAULIFLOWER	Vegetables	5	4	[0, 0, 0]	n/a	catFR1	6	R1662S
453.406	0.85	659483	WORD_OFF	n/a	n/a	CAULIFLOWER	Vegetables	5	4	[0, 0, 0]	n/a	catFR1	6	R1662S
454.256	1.6	660325	WORD	n/a	wordpools/wordpool_categorized_EN.txt	PEAS	Vegetables	6	4	[0, 0, 0]	n/a	catFR1	6	R1662S
455.873	0.943	661951	WORD_OFF	n/a	n/a	PEAS	Vegetables	6	4	[0, 0, 0]	n/a	catFR1	6	R1662S
456.816	1.6	662897	WORD	n/a	wordpools/wordpool_categorized_EN.txt	CHEESECAKE	Desserts	7	4	[0, 0, 0]	n/a	catFR1	6	R1662S
458.416	0.864	664489	WORD_OFF	n/a	n/a	CHEESECAKE	Desserts	7	4	[0, 0, 0]	n/a	catFR1	6	R1662S
459.28	1.6	665354	WORD	n/a	wordpools/wordpool_categorized_EN.txt	JELLO	Desserts	8	4	[0, 0, 0]	n/a	catFR1	6	R1662S
460.881	0.785	666958	WORD_OFF	n/a	n/a	JELLO	Desserts	8	4	[0, 0, 0]	n/a	catFR1	6	R1662S
461.666	1.6	667742	WORD	n/a	wordpools/wordpool_categorized_EN.txt	ORANGE	Fruit	9	4	[0, 0, 0]	n/a	catFR1	6	R1662S
463.274	0.983	669345	WORD_OFF	n/a	n/a	ORANGE	Fruit	9	4	[0, 0, 0]	n/a	catFR1	6	R1662S
464.257	1.6	670337	WORD	n/a	wordpools/wordpool_categorized_EN.txt	STRAWBERRY	Fruit	10	4	[0, 0, 0]	n/a	catFR1	6	R1662S
465.867	0.848	671941	WORD_OFF	n/a	n/a	STRAWBERRY	Fruit	10	4	[0, 0, 0]	n/a	catFR1	6	R1662S
466.715	1.6	672794	WORD	n/a	wordpools/wordpool_categorized_EN.txt	SPINACH	Vegetables	11	4	[0, 0, 0]	n/a	catFR1	6	R1662S
468.323	0.85	674398	WORD_OFF	n/a	n/a	SPINACH	Vegetables	11	4	[0, 0, 0]	n/a	catFR1	6	R1662S
469.173	1.6	675251	WORD	n/a	wordpools/wordpool_categorized_EN.txt	CARROT	Vegetables	12	4	[0, 0, 0]	n/a	catFR1	6	R1662S
470.774	0.004	676849	PROB	3.966	n/a	n/a	n/a	-999	4	[4, 6, 6]	16.0	catFR1	6	R1662S
470.778	0.0	676853	START	n/a	n/a	n/a	n/a	-999	4	[-999, -999, -999]	n/a	catFR1	6	R1662S
470.774	0.004	676854	WORD_OFF	n/a	n/a	CARROT	Vegetables	12	4	[0, 0, 0]	n/a	catFR1	6	R1662S
470.778	0.0	676854	ENCODING_END	n/a	n/a	n/a	n/a	-999	4	[0, 0, 0]	n/a	catFR1	6	R1662S
470.778	3.971	676854	DISTRACT_START	n/a	n/a	n/a	n/a	-999	4	[0, 0, 0]	n/a	catFR1	6	R1662S
474.749	4.449	680824	PROB	4.441	n/a	n/a	n/a	-999	4	[7, 5, 7]	19.0	catFR1	6	R1662S
479.198	3.334	685273	PROB	3.325	n/a	n/a	n/a	-999	4	[2, 4, 8]	14.0	catFR1	6	R1662S
482.532	1.875	688607	PROB	1.866	n/a	n/a	n/a	-999	4	[5, 1, 1]	7.0	catFR1	6	R1662S
484.407	4.543	690482	PROB	4.532	n/a	n/a	n/a	-999	4	[6, 1, 2]	9.0	catFR1	6	R1662S
488.95	3.959	695025	PROB	3.949	n/a	n/a	n/a	-999	4	[6, 2, 2]	10.0	catFR1	6	R1662S
492.909	0.0	698978	DISTRACT_END	n/a	n/a	n/a	n/a	-999	4	[0, 0, 0]	n/a	catFR1	6	R1662S
492.909	2.031	698984	STOP	n/a	n/a	n/a	n/a	-999	4	[-999, -999, -999]	n/a	catFR1	6	R1662S
494.94	0.0	701015	REC_WORD	0.0	n/a	CAULIFLOWER	Vegetables	5	4	[0, 0, 0]	n/a	catFR1	6	R1662S
494.94	1.112	701020	REC_START	n/a	n/a	n/a	n/a	-999	4	[0, 0, 0]	n/a	catFR1	6	R1662S
496.052	0.84	702127	REC_WORD	1.112	n/a	SPINACH	Vegetables	11	4	[0, 0, 0]	n/a	catFR1	6	R1662S
496.892	0.775	702967	REC_WORD	1.952	n/a	CARROT	Vegetables	12	4	[0, 0, 0]	n/a	catFR1	6	R1662S
497.667	1.61	703742	REC_WORD	2.727	n/a	CHEESECAKE	Desserts	7	4	[0, 0, 0]	n/a	catFR1	6	R1662S
499.277	1.317	705352	REC_WORD	4.337	n/a	LEMON	Fruit	2	4	[0, 0, 0]	n/a	catFR1	6	R1662S
500.594	4.335	706669	REC_WORD	5.654	n/a	GRAPE	Fruit	1	4	[0, 0, 0]	n/a	catFR1	6	R1662S
504.929	6.16	711004	REC_WORD_VV	9.989	n/a	<>	n/a	-999	4	[0, 0, 0]	n/a	catFR1	6	R1662S
511.089	0.798	717164	REC_WORD	16.149	n/a	SPINACH	Vegetables	11	4	[0, 0, 0]	n/a	catFR1	6	R1662S
511.887	1.0	717962	REC_WORD_VV	16.947	n/a	<>	n/a	-999	4	[0, 0, 0]	n/a	catFR1	6	R1662S
512.887	1.351	718962	REC_WORD_VV	17.947	n/a	<>	n/a	-999	4	[0, 0, 0]	n/a	catFR1	6	R1662S
514.238	7.875	720313	REC_WORD_VV	19.298	n/a	<>	n/a	-999	4	[0, 0, 0]	n/a	catFR1	6	R1662S
522.113	0.715	728188	REC_WORD	27.173	n/a	ORANGE	Fruit	9	4	[0, 0, 0]	n/a	catFR1	6	R1662S
522.828	2.257	728903	REC_WORD	27.888	n/a	JELLO	Desserts	8	4	[0, 0, 0]	n/a	catFR1	6	R1662S
525.085	2.304	731161	REC_END	n/a	n/a	n/a	n/a	-999	4	[0, 0, 0]	n/a	catFR1	6	R1662S
527.389	10.0	733468	COUNTDOWN_START	n/a	n/a	n/a	n/a	-999	5	[0, 0, 0]	n/a	catFR1	6	R1662S
537.732	0.0	743803	COUNTDOWN_END	n/a	n/a	n/a	n/a	-999	5	[0, 0, 0]	n/a	catFR1	6	R1662S
537.732	2.09	743814	ENCODING_START	n/a	n/a	n/a	n/a	-999	5	[0, 0, 0]	n/a	catFR1	6	R1662S
539.822	1.6	745902	WORD	n/a	wordpools/wordpool_categorized_EN.txt	GLUE	OfficeSupplies	1	5	[0, 0, 0]	n/a	catFR1	6	R1662S
541.423	0.775	747494	WORD_OFF	n/a	n/a	GLUE	OfficeSupplies	1	5	[0, 0, 0]	n/a	catFR1	6	R1662S
542.198	1.6	748278	WORD	n/a	wordpools/wordpool_categorized_EN.txt	MARKER	OfficeSupplies	2	5	[0, 0, 0]	n/a	catFR1	6	R1662S
543.798	0.793	749870	WORD_OFF	n/a	n/a	MARKER	OfficeSupplies	2	5	[0, 0, 0]	n/a	catFR1	6	R1662S
544.591	1.6	750666	WORD	n/a	wordpools/wordpool_categorized_EN.txt	BIRCH	Trees	3	5	[0, 0, 0]	n/a	catFR1	6	R1662S
546.199	0.774	752269	WORD_OFF	n/a	n/a	BIRCH	Trees	3	5	[0, 0, 0]	n/a	catFR1	6	R1662S
546.973	1.6	753054	WORD	n/a	wordpools/wordpool_categorized_EN.txt	OAK	Trees	4	5	[0, 0, 0]	n/a	catFR1	6	R1662S
548.582	0.8	754657	WORD_OFF	n/a	n/a	OAK	Trees	4	5	[0, 0, 0]	n/a	catFR1	6	R1662S
549.382	1.6	755453	WORD	n/a	wordpools/wordpool_categorized_EN.txt	BALL	Toys	5	5	[0, 0, 0]	n/a	catFR1	6	R1662S
550.981	0.842	757056	WORD_OFF	n/a	n/a	BALL	Toys	5	5	[0, 0, 0]	n/a	catFR1	6	R1662S
551.823	1.6	757898	WORD	n/a	wordpools/wordpool_categorized_EN.txt	FOOTBALL	Toys	6	5	[0, 0, 0]	n/a	catFR1	6	R1662S
553.423	0.967	759502	WORD_OFF	n/a	n/a	FOOTBALL	Toys	6	5	[0, 0, 0]	n/a	catFR1	6	R1662S
554.39	1.6	760471	WORD	n/a	wordpools/wordpool_categorized_EN.txt	PEN	OfficeSupplies	7	5	[0, 0, 0]	n/a	catFR1	6	R1662S
555.998	0.817	762074	WORD_OFF	n/a	n/a	PEN	OfficeSupplies	7	5	[0, 0, 0]	n/a	catFR1	6	R1662S
556.815	1.6	762893	WORD	n/a	wordpools/wordpool_categorized_EN.txt	TAPE	OfficeSupplies	8	5	[0, 0, 0]	n/a	catFR1	6	R1662S
558.422	0.968	764496	WORD_OFF	n/a	n/a	TAPE	OfficeSupplies	8	5	[0, 0, 0]	n/a	catFR1	6	R1662S
559.39	1.6	765465	WORD	n/a	wordpools/wordpool_categorized_EN.txt	MARBLES	Toys	9	5	[0, 0, 0]	n/a	catFR1	6	R1662S
560.99	0.867	767069	WORD_OFF	n/a	n/a	MARBLES	Toys	9	5	[0, 0, 0]	n/a	catFR1	6	R1662S
561.857	1.6	767934	WORD	n/a	wordpools/wordpool_categorized_EN.txt	BASKETBALL	Toys	10	5	[0, 0, 0]	n/a	catFR1	6	R1662S
563.458	1.001	769537	WORD_OFF	n/a	n/a	BASKETBALL	Toys	10	5	[0, 0, 0]	n/a	catFR1	6	R1662S
564.459	1.6	770541	WORD	n/a	wordpools/wordpool_categorized_EN.txt	EVERGREEN	Trees	11	5	[0, 0, 0]	n/a	catFR1	6	R1662S
566.064	0.891	772133	WORD_OFF	n/a	n/a	EVERGREEN	Trees	11	5	[0, 0, 0]	n/a	catFR1	6	R1662S
566.955	1.6	773032	WORD	n/a	wordpools/wordpool_categorized_EN.txt	SPRUCE	Trees	12	5	[0, 0, 0]	n/a	catFR1	6	R1662S
568.556	0.001	774631	PROB	2.625	n/a	n/a	n/a	-999	5	[1, 1, 5]	7.0	catFR1	6	R1662S
568.557	0.0	774632	START	n/a	n/a	n/a	n/a	-999	5	[-999, -999, -999]	n/a	catFR1	6	R1662S
568.555	0.002	774636	WORD_OFF	n/a	n/a	SPRUCE	Trees	12	5	[0, 0, 0]	n/a	catFR1	6	R1662S
568.557	0.0	774636	ENCODING_END	n/a	n/a	n/a	n/a	-999	5	[0, 0, 0]	n/a	catFR1	6	R1662S
568.557	2.634	774636	DISTRACT_START	n/a	n/a	n/a	n/a	-999	5	[0, 0, 0]	n/a	catFR1	6	R1662S
571.191	3.558	777266	PROB	3.549	n/a	n/a	n/a	-999	5	[5, 3, 7]	15.0	catFR1	6	R1662S
574.749	3.225	780824	PROB	3.216	n/a	n/a	n/a	-999	5	[2, 2, 7]	11.0	catFR1	6	R1662S
577.974	3.424	784049	PROB	3.415	n/a	n/a	n/a	-999	5	[5, 8, 5]	18.0	catFR1	6	R1662S
581.398	6.319	787473	PROB	6.308	n/a	n/a	n/a	-999	5	[2, 6, 5]	13.0	catFR1	6	R1662S
587.717	4.015	793792	PROB	4.007	n/a	n/a	n/a	-999	5	[5, 8, 7]	20.0	catFR1	6	R1662S
591.732	0.0	797807	STOP	n/a	n/a	n/a	n/a	-999	5	[-999, -999, -999]	n/a	catFR1	6	R1662S
591.732	2.334	797809	DISTRACT_END	n/a	n/a	n/a	n/a	-999	5	[0, 0, 0]	n/a	catFR1	6	R1662S
594.066	0.0	800139	REC_START	n/a	n/a	n/a	n/a	-999	5	[0, 0, 0]	n/a	catFR1	6	R1662S
594.066	1.036	800141	REC_WORD	0.0	n/a	EVERGREEN	Trees	11	5	[0, 0, 0]	n/a	catFR1	6	R1662S
595.102	1.745	801177	REC_WORD	1.036	n/a	SPRUCE	Trees	12	5	[0, 0, 0]	n/a	catFR1	6	R1662S
596.847	0.68	802922	REC_WORD	2.781	n/a	BALL	Toys	5	5	[0, 0, 0]	n/a	catFR1	6	R1662S
597.527	4.441	803602	REC_WORD	3.461	n/a	BASKETBALL	Toys	10	5	[0, 0, 0]	n/a	catFR1	6	R1662S
601.968	6.495	808043	REC_WORD_VV	7.902	n/a	<>	n/a	-999	5	[0, 0, 0]	n/a	catFR1	6	R1662S
608.463	1.97	814538	REC_WORD_VV	14.397	n/a	<>	n/a	-999	5	[0, 0, 0]	n/a	catFR1	6	R1662S
610.433	3.356	816508	REC_WORD	16.367	n/a	PENCIL	n/a	-999	5	[0, 0, 0]	n/a	catFR1	6	R1662S
613.789	0.682	819864	REC_WORD	19.723	n/a	TAPE	OfficeSupplies	8	5	[0, 0, 0]	n/a	catFR1	6	R1662S
614.471	4.204	820546	REC_WORD	20.405	n/a	GLUE	OfficeSupplies	1	5	[0, 0, 0]	n/a	catFR1	6	R1662S
618.675	5.533	824750	REC_WORD	24.609	n/a	NOTEBOOK	OfficeSupplies	-999	5	[0, 0, 0]	n/a	catFR1	6	R1662S
624.208	1.64	830280	REC_END	n/a	n/a	n/a	n/a	-999	5	[0, 0, 0]	n/a	catFR1	6	R1662S
625.848	10.0	831929	COUNTDOWN_START	n/a	n/a	n/a	n/a	-999	6	[0, 0, 0]	n/a	catFR1	6	R1662S
636.181	0.001	842253	COUNTDOWN_END	n/a	n/a	n/a	n/a	-999	6	[0, 0, 0]	n/a	catFR1	6	R1662S
636.182	2.316	842253	ENCODING_START	n/a	n/a	n/a	n/a	-999	6	[0, 0, 0]	n/a	catFR1	6	R1662S
638.498	1.6	844572	WORD	n/a	wordpools/wordpool_categorized_EN.txt	CAR	Vehicles	1	6	[0, 0, 0]	n/a	catFR1	6	R1662S
640.106	0.835	846186	WORD_OFF	n/a	n/a	CAR	Vehicles	1	6	[0, 0, 0]	n/a	catFR1	6	R1662S
640.941	1.6	847017	WORD	n/a	wordpools/wordpool_categorized_EN.txt	BOAT	Vehicles	2	6	[0, 0, 0]	n/a	catFR1	6	R1662S
642.541	0.99	848620	WORD_OFF	n/a	n/a	BOAT	Vehicles	2	6	[0, 0, 0]	n/a	catFR1	6	R1662S
643.531	1.6	849601	WORD	n/a	wordpools/wordpool_categorized_EN.txt	CARNATION	Flowers	3	6	[0, 0, 0]	n/a	catFR1	6	R1662S
645.141	0.94	851216	WORD_OFF	n/a	n/a	CARNATION	Flowers	3	6	[0, 0, 0]	n/a	catFR1	6	R1662S
646.081	1.6	852161	WORD	n/a	wordpools/wordpool_categorized_EN.txt	PETUNIA	Flowers	4	6	[0, 0, 0]	n/a	catFR1	6	R1662S
647.681	0.842	853753	WORD_OFF	n/a	n/a	PETUNIA	Flowers	4	6	[0, 0, 0]	n/a	catFR1	6	R1662S
648.523	1.6	854595	WORD	n/a	wordpools/wordpool_categorized_EN.txt	PLANKTON	OceanAnimals	5	6	[0, 0, 0]	n/a	catFR1	6	R1662S
650.123	0.991	856199	WORD_OFF	n/a	n/a	PLANKTON	OceanAnimals	5	6	[0, 0, 0]	n/a	catFR1	6	R1662S
651.114	1.6	857191	WORD	n/a	wordpools/wordpool_categorized_EN.txt	SHRIMP	OceanAnimals	6	6	[0, 0, 0]	n/a	catFR1	6	R1662S
652.714	0.859	858794	WORD_OFF	n/a	n/a	SHRIMP	OceanAnimals	6	6	[0, 0, 0]	n/a	catFR1	6	R1662S
653.573	1.6	859648	WORD	n/a	wordpools/wordpool_categorized_EN.txt	TRAIN	Vehicles	7	6	[0, 0, 0]	n/a	catFR1	6	R1662S
655.191	0.941	861262	WORD_OFF	n/a	n/a	TRAIN	Vehicles	7	6	[0, 0, 0]	n/a	catFR1	6	R1662S
656.132	1.6	862208	WORD	n/a	wordpools/wordpool_categorized_EN.txt	MOTORCYCLE	Vehicles	8	6	[0, 0, 0]	n/a	catFR1	6	R1662S
657.741	0.766	863823	WORD_OFF	n/a	n/a	MOTORCYCLE	Vehicles	8	6	[0, 0, 0]	n/a	catFR1	6	R1662S
658.507	1.6	864585	WORD	n/a	wordpools/wordpool_categorized_EN.txt	OYSTER	OceanAnimals	9	6	[0, 0, 0]	n/a	catFR1	6	R1662S
660.107	0.866	866188	WORD_OFF	n/a	n/a	OYSTER	OceanAnimals	9	6	[0, 0, 0]	n/a	catFR1	6	R1662S
660.973	1.6	867053	WORD	n/a	wordpools/wordpool_categorized_EN.txt	WHALE	OceanAnimals	10	6	[0, 0, 0]	n/a	catFR1	6	R1662S
662.583	0.965	868656	WORD_OFF	n/a	n/a	WHALE	OceanAnimals	10	6	[0, 0, 0]	n/a	catFR1	6	R1662S
663.548	1.6	869625	WORD	n/a	wordpools/wordpool_categorized_EN.txt	ROSE	Flowers	11	6	[0, 0, 0]	n/a	catFR1	6	R1662S
665.148	0.902	871229	WORD_OFF	n/a	n/a	ROSE	Flowers	11	6	[0, 0, 0]	n/a	catFR1	6	R1662S
666.05	1.6	872128	WORD	n/a	wordpools/wordpool_categorized_EN.txt	DAFFODIL	Flowers	12	6	[0, 0, 0]	n/a	catFR1	6	R1662S
667.656	0.003	873732	WORD_OFF	n/a	n/a	DAFFODIL	Flowers	12	6	[0, 0, 0]	n/a	catFR1	6	R1662S
667.659	0.0	873732	ENCODING_END	n/a	n/a	n/a	n/a	-999	6	[0, 0, 0]	n/a	catFR1	6	R1662S
667.659	0.0	873732	DISTRACT_START	n/a	n/a	n/a	n/a	-999	6	[0, 0, 0]	n/a	catFR1	6	R1662S
667.657	0.002	873732	PROB	6.658	n/a	n/a	n/a	-999	6	[3, 8, 4]	15.0	catFR1	6	R1662S
667.659	6.664	873734	START	n/a	n/a	n/a	n/a	-999	6	[-999, -999, -999]	n/a	catFR1	6	R1662S
674.323	3.008	880398	PROB	3.0	n/a	n/a	n/a	-999	6	[5, 1, 2]	8.0	catFR1	6	R1662S
677.331	3.893	883406	PROB	3.883	n/a	n/a	n/a	-999	6	[2, 4, 8]	14.0	catFR1	6	R1662S
681.224	4.391	887299	PROB	4.383	n/a	n/a	n/a	-999	6	[7, 1, 5]	13.0	catFR1	6	R1662S
685.615	4.284	891690	PROB	4.274	n/a	n/a	n/a	-999	6	[7, 6, 6]	19.0	catFR1	6	R1662S
689.899	0.0	895971	DISTRACT_END	n/a	n/a	n/a	n/a	-999	6	[0, 0, 0]	n/a	catFR1	6	R1662S
689.899	2.049	895974	STOP	n/a	n/a	n/a	n/a	-999	6	[-999, -999, -999]	n/a	catFR1	6	R1662S
691.948	1.329	898024	REC_START	n/a	n/a	n/a	n/a	-999	6	[0, 0, 0]	n/a	catFR1	6	R1662S
693.277	0.849	899352	REC_WORD	1.329	n/a	ROSE	Flowers	11	6	[0, 0, 0]	n/a	catFR1	6	R1662S
694.126	0.691	900201	REC_WORD	2.178	n/a	DAFFODIL	Flowers	12	6	[0, 0, 0]	n/a	catFR1	6	R1662S
694.817	0.946	900892	REC_WORD	2.869	n/a	PETUNIA	Flowers	4	6	[0, 0, 0]	n/a	catFR1	6	R1662S
695.763	1.347	901838	REC_WORD	3.815	n/a	PLANKTON	OceanAnimals	5	6	[0, 0, 0]	n/a	catFR1	6	R1662S
697.11	1.544	903185	REC_WORD	5.162	n/a	CAR	Vehicles	1	6	[0, 0, 0]	n/a	catFR1	6	R1662S
698.654	1.887	904729	REC_WORD	6.706	n/a	MOTORCYCLE	Vehicles	8	6	[0, 0, 0]	n/a	catFR1	6	R1662S
700.541	1.457	906616	REC_WORD	8.593	n/a	TRAIN	Vehicles	7	6	[0, 0, 0]	n/a	catFR1	6	R1662S
701.998	4.422	908073	REC_WORD	10.05	n/a	BOAT	Vehicles	2	6	[0, 0, 0]	n/a	catFR1	6	R1662S
706.42	9.172	912495	REC_WORD_VV	14.472	n/a	<>	n/a	-999	6	[0, 0, 0]	n/a	catFR1	6	R1662S
715.592	3.72	921667	REC_WORD_VV	23.644	n/a	<>	n/a	-999	6	[0, 0, 0]	n/a	catFR1	6	R1662S
719.312	2.769	925387	REC_WORD_VV	27.364	n/a	<>	n/a	-999	6	[0, 0, 0]	n/a	catFR1	6	R1662S
722.081	1.243	928153	REC_END	n/a	n/a	n/a	n/a	-999	6	[0, 0, 0]	n/a	catFR1	6	R1662S
723.324	10.0	929399	COUNTDOWN_START	n/a	n/a	n/a	n/a	-999	7	[0, 0, 0]	n/a	catFR1	6	R1662S
733.666	0.0	939746	COUNTDOWN_END	n/a	n/a	n/a	n/a	-999	7	[0, 0, 0]	n/a	catFR1	6	R1662S
733.666	1.965	939746	ENCODING_START	n/a	n/a	n/a	n/a	-999	7	[0, 0, 0]	n/a	catFR1	6	R1662S
735.631	1.6	941707	WORD	n/a	wordpools/wordpool_categorized_EN.txt	PIANO	Instruments	1	7	[0, 0, 0]	n/a	catFR1	6	R1662S
737.238	0.917	943310	WORD_OFF	n/a	n/a	PIANO	Instruments	1	7	[0, 0, 0]	n/a	catFR1	6	R1662S
738.155	1.6	944233	WORD	n/a	wordpools/wordpool_categorized_EN.txt	BASS	Instruments	2	7	[0, 0, 0]	n/a	catFR1	6	R1662S
739.755	0.801	945836	WORD_OFF	n/a	n/a	BASS	Instruments	2	7	[0, 0, 0]	n/a	catFR1	6	R1662S
740.556	1.6	946632	WORD	n/a	wordpools/wordpool_categorized_EN.txt	CALF	FarmAnimals	3	7	[0, 0, 0]	n/a	catFR1	6	R1662S
742.157	0.966	948235	WORD_OFF	n/a	n/a	CALF	FarmAnimals	3	7	[0, 0, 0]	n/a	catFR1	6	R1662S
743.123	1.6	949204	WORD	n/a	wordpools/wordpool_categorized_EN.txt	TURKEY	FarmAnimals	4	7	[0, 0, 0]	n/a	catFR1	6	R1662S
744.726	0.874	950796	WORD_OFF	n/a	n/a	TURKEY	FarmAnimals	4	7	[0, 0, 0]	n/a	catFR1	6	R1662S
745.6	1.6	951673	WORD	n/a	wordpools/wordpool_categorized_EN.txt	COLA	Beverages	5	7	[0, 0, 0]	n/a	catFR1	6	R1662S
747.205	0.993	953276	WORD_OFF	n/a	n/a	COLA	Beverages	5	7	[0, 0, 0]	n/a	catFR1	6	R1662S
748.198	1.6	954280	WORD	n/a	wordpools/wordpool_categorized_EN.txt	SODA	Beverages	6	7	[0, 0, 0]	n/a	catFR1	6	R1662S
749.816	0.767	955895	WORD_OFF	n/a	n/a	SODA	Beverages	6	7	[0, 0, 0]	n/a	catFR1	6	R1662S
750.583	1.6	956656	WORD	n/a	wordpools/wordpool_categorized_EN.txt	TRUMPET	Instruments	7	7	[0, 0, 0]	n/a	catFR1	6	R1662S
752.19	0.866	958259	WORD_OFF	n/a	n/a	TRUMPET	Instruments	7	7	[0, 0, 0]	n/a	catFR1	6	R1662S
753.056	1.6	959136	WORD	n/a	wordpools/wordpool_categorized_EN.txt	ORGAN	Instruments	8	7	[0, 0, 0]	n/a	catFR1	6	R1662S
754.666	0.923	960739	WORD_OFF	n/a	n/a	ORGAN	Instruments	8	7	[0, 0, 0]	n/a	catFR1	6	R1662S
755.589	1.6	961662	WORD	n/a	wordpools/wordpool_categorized_EN.txt	COFFEE	Beverages	9	7	[0, 0, 0]	n/a	catFR1	6	R1662S
757.189	0.958	963265	WORD_OFF	n/a	n/a	COFFEE	Beverages	9	7	[0, 0, 0]	n/a	catFR1	6	R1662S
758.147	1.6	964223	WORD	n/a	wordpools/wordpool_categorized_EN.txt	BEER	Beverages	10	7	[0, 0, 0]	n/a	catFR1	6	R1662S
759.748	0.827	965826	WORD_OFF	n/a	n/a	BEER	Beverages	10	7	[0, 0, 0]	n/a	catFR1	6	R1662S
760.575	1.6	966645	WORD	n/a	wordpools/wordpool_categorized_EN.txt	HEN	FarmAnimals	11	7	[0, 0, 0]	n/a	catFR1	6	R1662S
762.175	0.807	968248	WORD_OFF	n/a	n/a	HEN	FarmAnimals	11	7	[0, 0, 0]	n/a	catFR1	6	R1662S
762.982	1.6	969056	WORD	n/a	wordpools/wordpool_categorized_EN.txt	HORSE	FarmAnimals	12	7	[0, 0, 0]	n/a	catFR1	6	R1662S
764.583	0.0	970658	PROB	4.508	n/a	n/a	n/a	-999	7	[6, 5, 7]	18.0	catFR1	6	R1662S
764.582	0.005	970659	WORD_OFF	n/a	n/a	HORSE	FarmAnimals	12	7	[0, 0, 0]	n/a	catFR1	6	R1662S
764.587	0.0	970659	ENCODING_END	n/a	n/a	n/a	n/a	-999	7	[0, 0, 0]	n/a	catFR1	6	R1662S
764.587	0.0	970659	DISTRACT_START	n/a	n/a	n/a	n/a	-999	7	[0, 0, 0]	n/a	catFR1	6	R1662S
764.587	4.511	970662	START	n/a	n/a	n/a	n/a	-999	7	[-999, -999, -999]	n/a	catFR1	6	R1662S
769.098	3.952	975173	PROB	3.941	n/a	n/a	n/a	-999	7	[5, 6, 8]	19.0	catFR1	6	R1662S
773.05	2.856	979125	PROB	2.849	n/a	n/a	n/a	-999	7	[8, 2, 5]	15.0	catFR1	6	R1662S
775.906	4.034	981981	PROB	4.024	n/a	n/a	n/a	-999	7	[3, 6, 1]	10.0	catFR1	6	R1662S
779.94	3.076	986015	PROB	3.067	n/a	n/a	n/a	-999	7	[1, 8, 1]	10.0	catFR1	6	R1662S
783.016	2.748	989091	PROB	2.741	n/a	n/a	n/a	-999	7	[7, 1, 1]	9.0	catFR1	6	R1662S
785.764	0.0	991837	DISTRACT_END	n/a	n/a	n/a	n/a	-999	7	[0, 0, 0]	n/a	catFR1	6	R1662S
785.764	2.076	991839	STOP	n/a	n/a	n/a	n/a	-999	7	[-999, -999, -999]	n/a	catFR1	6	R1662S
787.84	2.538	993914	REC_START	n/a	n/a	n/a	n/a	-999	7	[0, 0, 0]	n/a	catFR1	6	R1662S
790.378	1.762	996453	REC_WORD	2.538	n/a	TRUMPET	Instruments	7	7	[0, 0, 0]	n/a	catFR1	6	R1662S
792.14	0.941	998216	REC_WORD	4.3	n/a	HORSE	FarmAnimals	12	7	[0, 0, 0]	n/a	catFR1	6	R1662S
793.081	7.16	999157	REC_WORD	5.241	n/a	HEN	FarmAnimals	11	7	[0, 0, 0]	n/a	catFR1	6	R1662S
800.241	2.471	1006317	REC_WORD	12.401	n/a	TROMBONE	Instruments	-999	7	[0, 0, 0]	n/a	catFR1	6	R1662S
802.712	15.269	1008788	REC_WORD_VV	14.872	n/a	<>	n/a	-999	7	[0, 0, 0]	n/a	catFR1	6	R1662S
817.981	1.801	1024054	REC_END	n/a	n/a	n/a	n/a	-999	7	[0, 0, 0]	n/a	catFR1	6	R1662S
819.782	10.0	1025865	COUNTDOWN_START	n/a	n/a	n/a	n/a	-999	8	[0, 0, 0]	n/a	catFR1	6	R1662S
830.124	0.0	1036200	COUNTDOWN_END	n/a	n/a	n/a	n/a	-999	8	[0, 0, 0]	n/a	catFR1	6	R1662S
830.124	2.199	1036200	ENCODING_START	n/a	n/a	n/a	n/a	-999	8	[0, 0, 0]	n/a	catFR1	6	R1662S
832.323	1.6	1038392	WORD	n/a	wordpools/wordpool_categorized_EN.txt	ORANGUTAN	Zoo	1	8	[0, 0, 0]	n/a	catFR1	6	R1662S
833.931	0.784	1040007	WORD_OFF	n/a	n/a	ORANGUTAN	Zoo	1	8	[0, 0, 0]	n/a	catFR1	6	R1662S
834.715	1.6	1040791	WORD	n/a	wordpools/wordpool_categorized_EN.txt	LION	Zoo	2	8	[0, 0, 0]	n/a	catFR1	6	R1662S
836.314	0.935	1042395	WORD_OFF	n/a	n/a	LION	Zoo	2	8	[0, 0, 0]	n/a	catFR1	6	R1662S
837.249	1.6	1043329	WORD	n/a	wordpools/wordpool_categorized_EN.txt	DUCK	Birds	3	8	[0, 0, 0]	n/a	catFR1	6	R1662S
838.856	0.776	1044932	WORD_OFF	n/a	n/a	DUCK	Birds	3	8	[0, 0, 0]	n/a	catFR1	6	R1662S
839.632	1.6	1045705	WORD	n/a	wordpools/wordpool_categorized_EN.txt	DOVE	Birds	4	8	[0, 0, 0]	n/a	catFR1	6	R1662S
841.24	0.782	1047320	WORD_OFF	n/a	n/a	DOVE	Birds	4	8	[0, 0, 0]	n/a	catFR1	6	R1662S
842.022	1.6	1048093	WORD	n/a	wordpools/wordpool_categorized_EN.txt	SUNFLOWER	Flowers	5	8	[0, 0, 0]	n/a	catFR1	6	R1662S
843.626	0.922	1049708	WORD_OFF	n/a	n/a	SUNFLOWER	Flowers	5	8	[0, 0, 0]	n/a	catFR1	6	R1662S
844.548	1.6	1050619	WORD	n/a	wordpools/wordpool_categorized_EN.txt	MARIGOLD	Flowers	6	8	[0, 0, 0]	n/a	catFR1	6	R1662S
846.156	0.842	1052234	WORD_OFF	n/a	n/a	MARIGOLD	Flowers	6	8	[0, 0, 0]	n/a	catFR1	6	R1662S
846.998	1.6	1053076	WORD	n/a	wordpools/wordpool_categorized_EN.txt	BLUEBIRD	Birds	7	8	[0, 0, 0]	n/a	catFR1	6	R1662S
848.598	0.775	1054679	WORD_OFF	n/a	n/a	BLUEBIRD	Birds	7	8	[0, 0, 0]	n/a	catFR1	6	R1662S
849.373	1.6	1055452	WORD	n/a	wordpools/wordpool_categorized_EN.txt	CROW	Birds	8	8	[0, 0, 0]	n/a	catFR1	6	R1662S
850.973	1.0	1057044	WORD_OFF	n/a	n/a	CROW	Birds	8	8	[0, 0, 0]	n/a	catFR1	6	R1662S
851.973	1.6	1058047	WORD	n/a	wordpools/wordpool_categorized_EN.txt	BEAR	Zoo	9	8	[0, 0, 0]	n/a	catFR1	6	R1662S
853.573	0.792	1059651	WORD_OFF	n/a	n/a	BEAR	Zoo	9	8	[0, 0, 0]	n/a	catFR1	6	R1662S
854.365	1.6	1060435	WORD	n/a	wordpools/wordpool_categorized_EN.txt	PANDA	Zoo	10	8	[0, 0, 0]	n/a	catFR1	6	R1662S
855.964	0.977	1062039	WORD_OFF	n/a	n/a	PANDA	Zoo	10	8	[0, 0, 0]	n/a	catFR1	6	R1662S
856.941	1.6	1063019	WORD	n/a	wordpools/wordpool_categorized_EN.txt	VIOLET	Flowers	11	8	[0, 0, 0]	n/a	catFR1	6	R1662S
858.547	1.0	1064622	WORD_OFF	n/a	n/a	VIOLET	Flowers	11	8	[0, 0, 0]	n/a	catFR1	6	R1662S
859.547	1.6	1065626	WORD	n/a	wordpools/wordpool_categorized_EN.txt	LILAC	Flowers	12	8	[0, 0, 0]	n/a	catFR1	6	R1662S
861.147	0.001	1067218	WORD_OFF	n/a	n/a	LILAC	Flowers	12	8	[0, 0, 0]	n/a	catFR1	6	R1662S
861.148	0.0	1067218	ENCODING_END	n/a	n/a	n/a	n/a	-999	8	[0, 0, 0]	n/a	catFR1	6	R1662S
861.148	0.0	1067224	START	n/a	n/a	n/a	n/a	-999	8	[-999, -999, -999]	n/a	catFR1	6	R1662S
861.148	0.0	1067224	PROB	3.474	n/a	n/a	n/a	-999	8	[8, 2, 5]	15.0	catFR1	6	R1662S
861.148	3.485	1067229	DISTRACT_START	n/a	n/a	n/a	n/a	-999	8	[0, 0, 0]	n/a	catFR1	6	R1662S
864.633	2.191	1070709	PROB	2.183	n/a	n/a	n/a	-999	8	[2, 2, 2]	6.0	catFR1	6	R1662S
866.824	4.657	1072900	PROB	4.649	n/a	n/a	n/a	-999	8	[7, 2, 7]	16.0	catFR1	6	R1662S
871.481	3.867	1077557	PROB	3.858	n/a	n/a	n/a	-999	8	[8, 2, 8]	18.0	catFR1	6	R1662S
875.348	3.392	1081424	PROB	3.374	n/a	n/a	n/a	-999	8	[8, 1, 5]	14.0	catFR1	6	R1662S
878.74	3.332	1084816	PROB	3.324	n/a	n/a	n/a	-999	8	[6, 6, 7]	19.0	catFR1	6	R1662S
882.072	0.0	1088142	DISTRACT_END	n/a	n/a	n/a	n/a	-999	8	[0, 0, 0]	n/a	catFR1	6	R1662S
882.072	2.368	1088148	STOP	n/a	n/a	n/a	n/a	-999	8	[-999, -999, -999]	n/a	catFR1	6	R1662S
884.44	0.671	1090518	REC_START	n/a	n/a	n/a	n/a	-999	8	[0, 0, 0]	n/a	catFR1	6	R1662S
885.111	1.025	1091187	REC_WORD	0.671	n/a	LILAC	Flowers	12	8	[0, 0, 0]	n/a	catFR1	6	R1662S
886.136	0.65	1092212	REC_WORD	1.696	n/a	VIOLET	Flowers	11	8	[0, 0, 0]	n/a	catFR1	6	R1662S
886.786	1.457	1092862	REC_WORD	2.346	n/a	CROW	Birds	8	8	[0, 0, 0]	n/a	catFR1	6	R1662S
888.243	2.596	1094319	REC_WORD	3.803	n/a	BEAR	Zoo	9	8	[0, 0, 0]	n/a	catFR1	6	R1662S
890.839	8.277	1096915	REC_WORD_VV	6.399	n/a	<>	n/a	-999	8	[0, 0, 0]	n/a	catFR1	6	R1662S
899.116	3.753	1105192	REC_WORD	14.676	n/a	ORANGUTAN	Zoo	1	8	[0, 0, 0]	n/a	catFR1	6	R1662S
902.869	2.26	1108945	REC_WORD	18.429	n/a	BASS	Instruments	-999	8	[0, 0, 0]	n/a	catFR1	6	R1662S
905.129	1.84	1111205	REC_WORD_VV	20.689	n/a	<>	n/a	-999	8	[0, 0, 0]	n/a	catFR1	6	R1662S
906.969	4.856	1113045	REC_WORD_VV	22.529	n/a	<>	n/a	-999	8	[0, 0, 0]	n/a	catFR1	6	R1662S
911.825	0.772	1117901	REC_WORD	27.385	n/a	SHRIMP	OceanAnimals	-999	8	[0, 0, 0]	n/a	catFR1	6	R1662S
912.597	1.984	1118673	REC_WORD_VV	28.157	n/a	<>	n/a	-999	8	[0, 0, 0]	n/a	catFR1	6	R1662S
914.581	2.15	1120659	REC_END	n/a	n/a	n/a	n/a	-999	8	[0, 0, 0]	n/a	catFR1	6	R1662S
916.731	10.0	1122816	COUNTDOWN_START	n/a	n/a	n/a	n/a	-999	9	[0, 0, 0]	n/a	catFR1	6	R1662S
927.09	0.001	1133163	COUNTDOWN_END	n/a	n/a	n/a	n/a	-999	9	[0, 0, 0]	n/a	catFR1	6	R1662S
927.091	2.323	1133163	ENCODING_START	n/a	n/a	n/a	n/a	-999	9	[0, 0, 0]	n/a	catFR1	6	R1662S
929.414	1.6	1135493	WORD	n/a	wordpools/wordpool_categorized_EN.txt	BLOUSE	Clothing	1	9	[0, 0, 0]	n/a	catFR1	6	R1662S
931.014	0.975	1137084	WORD_OFF	n/a	n/a	BLOUSE	Clothing	1	9	[0, 0, 0]	n/a	catFR1	6	R1662S
931.989	1.6	1138065	WORD	n/a	wordpools/wordpool_categorized_EN.txt	DRESS	Clothing	2	9	[0, 0, 0]	n/a	catFR1	6	R1662S
933.59	0.759	1139668	WORD_OFF	n/a	n/a	DRESS	Clothing	2	9	[0, 0, 0]	n/a	catFR1	6	R1662S
934.349	1.6	1140430	WORD	n/a	wordpools/wordpool_categorized_EN.txt	TUBA	Instruments	3	9	[0, 0, 0]	n/a	catFR1	6	R1662S
935.957	0.882	1142033	WORD_OFF	n/a	n/a	TUBA	Instruments	3	9	[0, 0, 0]	n/a	catFR1	6	R1662S
936.839	1.6	1142910	WORD	n/a	wordpools/wordpool_categorized_EN.txt	BANJO	Instruments	4	9	[0, 0, 0]	n/a	catFR1	6	R1662S
938.448	0.775	1144524	WORD_OFF	n/a	n/a	BANJO	Instruments	4	9	[0, 0, 0]	n/a	catFR1	6	R1662S
939.223	1.6	1145297	WORD	n/a	wordpools/wordpool_categorized_EN.txt	CUCUMBER	Vegetables	5	9	[0, 0, 0]	n/a	catFR1	6	R1662S
940.831	0.934	1146912	WORD_OFF	n/a	n/a	CUCUMBER	Vegetables	5	9	[0, 0, 0]	n/a	catFR1	6	R1662S
941.765	1.6	1147846	WORD	n/a	wordpools/wordpool_categorized_EN.txt	POTATO	Vegetables	6	9	[0, 0, 0]	n/a	catFR1	6	R1662S
943.373	0.776	1149450	WORD_OFF	n/a	n/a	POTATO	Vegetables	6	9	[0, 0, 0]	n/a	catFR1	6	R1662S
944.149	1.6	1150223	WORD	n/a	wordpools/wordpool_categorized_EN.txt	PANTS	Clothing	7	9	[0, 0, 0]	n/a	catFR1	6	R1662S
945.749	0.907	1151826	WORD_OFF	n/a	n/a	PANTS	Clothing	7	9	[0, 0, 0]	n/a	catFR1	6	R1662S
946.656	1.6	1152737	WORD	n/a	wordpools/wordpool_categorized_EN.txt	SHIRT	Clothing	8	9	[0, 0, 0]	n/a	catFR1	6	R1662S
948.255	0.943	1154329	WORD_OFF	n/a	n/a	SHIRT	Clothing	8	9	[0, 0, 0]	n/a	catFR1	6	R1662S
949.198	1.6	1155275	WORD	n/a	wordpools/wordpool_categorized_EN.txt	DRUM	Instruments	9	9	[0, 0, 0]	n/a	catFR1	6	R1662S
950.798	1.0	1156878	WORD_OFF	n/a	n/a	DRUM	Instruments	9	9	[0, 0, 0]	n/a	catFR1	6	R1662S
951.798	1.6	1157870	WORD	n/a	wordpools/wordpool_categorized_EN.txt	CELLO	Instruments	10	9	[0, 0, 0]	n/a	catFR1	6	R1662S
953.398	0.927	1159474	WORD_OFF	n/a	n/a	CELLO	Instruments	10	9	[0, 0, 0]	n/a	catFR1	6	R1662S
954.325	1.6	1160396	WORD	n/a	wordpools/wordpool_categorized_EN.txt	LETTUCE	Vegetables	11	9	[0, 0, 0]	n/a	catFR1	6	R1662S
955.932	0.782	1162011	WORD_OFF	n/a	n/a	LETTUCE	Vegetables	11	9	[0, 0, 0]	n/a	catFR1	6	R1662S
956.714	1.6	1162784	WORD	n/a	wordpools/wordpool_categorized_EN.txt	CELERY	Vegetables	12	9	[0, 0, 0]	n/a	catFR1	6	R1662S
958.314	0.002	1164387	WORD_OFF	n/a	n/a	CELERY	Vegetables	12	9	[0, 0, 0]	n/a	catFR1	6	R1662S
958.316	0.0	1164387	ENCODING_END	n/a	n/a	n/a	n/a	-999	9	[0, 0, 0]	n/a	catFR1	6	R1662S
958.314	0.002	1164390	PROB	3.208	n/a	n/a	n/a	-999	9	[3, 8, 2]	13.0	catFR1	6	R1662S
958.316	0.0	1164392	START	n/a	n/a	n/a	n/a	-999	9	[-999, -999, -999]	n/a	catFR1	6	R1662S
958.316	3.223	1164399	DISTRACT_START	n/a	n/a	n/a	n/a	-999	9	[0, 0, 0]	n/a	catFR1	6	R1662S
961.539	3.643	1167615	PROB	3.633	n/a	n/a	n/a	-999	9	[4, 1, 3]	8.0	catFR1	6	R1662S
965.182	3.452	1171258	PROB	3.441	n/a	n/a	n/a	-999	9	[2, 3, 8]	13.0	catFR1	6	R1662S
968.634	2.972	1174710	PROB	2.966	n/a	n/a	n/a	-999	9	[5, 4, 6]	15.0	catFR1	6	R1662S
971.606	4.783	1177682	PROB	4.774	n/a	n/a	n/a	-999	9	[3, 1, 7]	11.0	catFR1	6	R1662S
976.389	5.001	1182465	PROB	4.991	n/a	n/a	n/a	-999	9	[4, 2, 7]	13.0	catFR1	6	R1662S
981.39	0.0	1187466	STOP	n/a	n/a	n/a	n/a	-999	9	[-999, -999, -999]	n/a	catFR1	6	R1662S
981.39	2.357	1187469	DISTRACT_END	n/a	n/a	n/a	n/a	-999	9	[0, 0, 0]	n/a	catFR1	6	R1662S
983.747	1.397	1189822	REC_START	n/a	n/a	n/a	n/a	-999	9	[0, 0, 0]	n/a	catFR1	6	R1662S
985.144	9.991	1191220	REC_WORD	1.397	n/a	CELLO	Instruments	10	9	[0, 0, 0]	n/a	catFR1	6	R1662S
995.135	1.0	1201211	REC_WORD_VV	11.388	n/a	<>	n/a	-999	9	[0, 0, 0]	n/a	catFR1	6	R1662S
996.135	1.0	1202211	REC_WORD_VV	12.388	n/a	<>	n/a	-999	9	[0, 0, 0]	n/a	catFR1	6	R1662S
997.135	1.0	1203211	REC_WORD_VV	13.388	n/a	<>	n/a	-999	9	[0, 0, 0]	n/a	catFR1	6	R1662S
998.135	10.791	1204211	REC_WORD_VV	14.388	n/a	<>	n/a	-999	9	[0, 0, 0]	n/a	catFR1	6	R1662S
1008.926	1.0	1215002	REC_WORD_VV	25.179	n/a	<>	n/a	-999	9	[0, 0, 0]	n/a	catFR1	6	R1662S
1009.926	1.0	1216002	REC_WORD_VV	26.179	n/a	<>	n/a	-999	9	[0, 0, 0]	n/a	catFR1	6	R1662S
1010.926	2.954	1217002	REC_WORD_VV	27.179	n/a	<>	n/a	-999	9	[0, 0, 0]	n/a	catFR1	6	R1662S
1013.88	3.051	1219951	REC_END	n/a	n/a	n/a	n/a	-999	9	[0, 0, 0]	n/a	catFR1	6	R1662S
1016.931	10.0	1223008	COUNTDOWN_START	n/a	n/a	n/a	n/a	-999	10	[0, 0, 0]	n/a	catFR1	6	R1662S
1027.289	0.0	1233366	COUNTDOWN_END	n/a	n/a	n/a	n/a	-999	10	[0, 0, 0]	n/a	catFR1	6	R1662S
1027.289	2.127	1233366	ENCODING_START	n/a	n/a	n/a	n/a	-999	10	[0, 0, 0]	n/a	catFR1	6	R1662S
1029.416	1.6	1235488	WORD	n/a	wordpools/wordpool_categorized_EN.txt	SHEEP	FarmAnimals	1	10	[0, 0, 0]	n/a	catFR1	6	R1662S
1031.022	0.992	1237092	WORD_OFF	n/a	n/a	SHEEP	FarmAnimals	1	10	[0, 0, 0]	n/a	catFR1	6	R1662S
1032.014	1.6	1238095	WORD	n/a	wordpools/wordpool_categorized_EN.txt	COW	FarmAnimals	2	10	[0, 0, 0]	n/a	catFR1	6	R1662S
1033.613	0.867	1239687	WORD_OFF	n/a	n/a	COW	FarmAnimals	2	10	[0, 0, 0]	n/a	catFR1	6	R1662S
1034.48	1.6	1240564	WORD	n/a	wordpools/wordpool_categorized_EN.txt	WIND	Weather	3	10	[0, 0, 0]	n/a	catFR1	6	R1662S
1036.081	0.998	1242156	WORD_OFF	n/a	n/a	WIND	Weather	3	10	[0, 0, 0]	n/a	catFR1	6	R1662S
1037.079	1.6	1243159	WORD	n/a	wordpools/wordpool_categorized_EN.txt	THUNDER	Weather	4	10	[0, 0, 0]	n/a	catFR1	6	R1662S
1038.68	0.828	1244751	WORD_OFF	n/a	n/a	THUNDER	Weather	4	10	[0, 0, 0]	n/a	catFR1	6	R1662S
1039.508	1.6	1245581	WORD	n/a	wordpools/wordpool_categorized_EN.txt	HAND	BodyParts	5	10	[0, 0, 0]	n/a	catFR1	6	R1662S
1041.108	0.899	1247185	WORD_OFF	n/a	n/a	HAND	BodyParts	5	10	[0, 0, 0]	n/a	catFR1	6	R1662S
1042.007	1.6	1248085	WORD	n/a	wordpools/wordpool_categorized_EN.txt	EYE	BodyParts	6	10	[0, 0, 0]	n/a	catFR1	6	R1662S
1043.614	0.983	1249688	WORD_OFF	n/a	n/a	EYE	BodyParts	6	10	[0, 0, 0]	n/a	catFR1	6	R1662S
1044.597	1.6	1250680	WORD	n/a	wordpools/wordpool_categorized_EN.txt	TORNADO	Weather	7	10	[0, 0, 0]	n/a	catFR1	6	R1662S
1046.206	0.884	1252283	WORD_OFF	n/a	n/a	TORNADO	Weather	7	10	[0, 0, 0]	n/a	catFR1	6	R1662S
1047.09	1.6	1253171	WORD	n/a	wordpools/wordpool_categorized_EN.txt	RAIN	Weather	8	10	[0, 0, 0]	n/a	catFR1	6	R1662S
1048.69	0.992	1254763	WORD_OFF	n/a	n/a	RAIN	Weather	8	10	[0, 0, 0]	n/a	catFR1	6	R1662S
1049.682	1.6	1255755	WORD	n/a	wordpools/wordpool_categorized_EN.txt	PIG	FarmAnimals	9	10	[0, 0, 0]	n/a	catFR1	6	R1662S
1051.289	0.766	1257370	WORD_OFF	n/a	n/a	PIG	FarmAnimals	9	10	[0, 0, 0]	n/a	catFR1	6	R1662S
1052.055	1.6	1258131	WORD	n/a	wordpools/wordpool_categorized_EN.txt	ROOSTER	FarmAnimals	10	10	[0, 0, 0]	n/a	catFR1	6	R1662S
1053.656	0.999	1259735	WORD_OFF	n/a	n/a	ROOSTER	FarmAnimals	10	10	[0, 0, 0]	n/a	catFR1	6	R1662S
1054.655	1.6	1260727	WORD	n/a	wordpools/wordpool_categorized_EN.txt	KNEE	BodyParts	11	10	[0, 0, 0]	n/a	catFR1	6	R1662S
1056.256	0.966	1262330	WORD_OFF	n/a	n/a	KNEE	BodyParts	11	10	[0, 0, 0]	n/a	catFR1	6	R1662S
1057.222	1.6	1263299	WORD	n/a	wordpools/wordpool_categorized_EN.txt	LEG	BodyParts	12	10	[0, 0, 0]	n/a	catFR1	6	R1662S
1058.823	0.002	1264899	PROB	3.357	n/a	n/a	n/a	-999	10	[7, 5, 5]	17.0	catFR1	6	R1662S
1058.825	0.0	1264901	START	n/a	n/a	n/a	n/a	-999	10	[-999, -999, -999]	n/a	catFR1	6	R1662S
1058.822	0.003	1264902	WORD_OFF	n/a	n/a	LEG	BodyParts	12	10	[0, 0, 0]	n/a	catFR1	6	R1662S
1058.825	0.0	1264902	ENCODING_END	n/a	n/a	n/a	n/a	-999	10	[0, 0, 0]	n/a	catFR1	6	R1662S
1058.825	3.365	1264902	DISTRACT_START	n/a	n/a	n/a	n/a	-999	10	[0, 0, 0]	n/a	catFR1	6	R1662S
1062.19	3.75	1268266	PROB	3.741	n/a	n/a	n/a	-999	10	[7, 1, 4]	12.0	catFR1	6	R1662S
1065.94	3.067	1272016	PROB	3.058	n/a	n/a	n/a	-999	10	[8, 1, 4]	13.0	catFR1	6	R1662S
1069.007	2.89	1275083	PROB	2.883	n/a	n/a	n/a	-999	10	[1, 3, 6]	10.0	catFR1	6	R1662S
1071.897	3.3	1277973	PROB	3.291	n/a	n/a	n/a	-999	10	[4, 3, 7]	14.0	catFR1	6	R1662S
1075.197	7.425	1281273	PROB	7.417	n/a	n/a	n/a	-999	10	[4, 1, 8]	13.0	catFR1	6	R1662S
1082.622	0.0	1288698	STOP	n/a	n/a	n/a	n/a	-999	10	[-999, -999, -999]	n/a	catFR1	6	R1662S
1082.622	2.393	1288699	DISTRACT_END	n/a	n/a	n/a	n/a	-999	10	[0, 0, 0]	n/a	catFR1	6	R1662S
1085.015	1.539	1291087	REC_START	n/a	n/a	n/a	n/a	-999	10	[0, 0, 0]	n/a	catFR1	6	R1662S
1086.554	0.85	1292630	REC_WORD	1.539	n/a	SHEEP	FarmAnimals	1	10	[0, 0, 0]	n/a	catFR1	6	R1662S
1087.404	0.985	1293480	REC_WORD	2.389	n/a	COW	FarmAnimals	2	10	[0, 0, 0]	n/a	catFR1	6	R1662S
1088.389	0.893	1294465	REC_WORD	3.374	n/a	THUNDER	Weather	4	10	[0, 0, 0]	n/a	catFR1	6	R1662S
1089.282	0.696	1295358	REC_WORD	4.267	n/a	WIND	Weather	3	10	[0, 0, 0]	n/a	catFR1	6	R1662S
1089.978	7.571	1296054	REC_WORD	4.963	n/a	TORNADO	Weather	7	10	[0, 0, 0]	n/a	catFR1	6	R1662S
1097.549	1.984	1303625	REC_WORD	12.534	n/a	PIG	FarmAnimals	9	10	[0, 0, 0]	n/a	catFR1	6	R1662S
1099.533	2.3	1305609	REC_WORD	14.518	n/a	HEN	FarmAnimals	-999	10	[0, 0, 0]	n/a	catFR1	6	R1662S
1101.833	4.304	1307909	REC_WORD_VV	16.818	n/a	<>	n/a	-999	10	[0, 0, 0]	n/a	catFR1	6	R1662S
1106.137	1.106	1312213	REC_WORD	21.122	n/a	RAIN	Weather	8	10	[0, 0, 0]	n/a	catFR1	6	R1662S
1107.243	2.457	1313319	REC_WORD_VV	22.228	n/a	<>	n/a	-999	10	[0, 0, 0]	n/a	catFR1	6	R1662S
1109.7	5.446	1315776	REC_WORD	24.685	n/a	LIGHTNING	Weather	-999	10	[0, 0, 0]	n/a	catFR1	6	R1662S
1115.146	1.842	1321227	REC_END	n/a	n/a	n/a	n/a	-999	10	[0, 0, 0]	n/a	catFR1	6	R1662S
1116.988	10.0	1323061	COUNTDOWN_START	n/a	n/a	n/a	n/a	-999	11	[0, 0, 0]	n/a	catFR1	6	R1662S
1127.332	0.001	1333408	COUNTDOWN_END	n/a	n/a	n/a	n/a	-999	11	[0, 0, 0]	n/a	catFR1	6	R1662S
1127.333	2.008	1333408	ENCODING_START	n/a	n/a	n/a	n/a	-999	11	[0, 0, 0]	n/a	catFR1	6	R1662S
1129.341	1.6	1335415	WORD	n/a	wordpools/wordpool_categorized_EN.txt	TURTLE	OceanAnimals	1	11	[0, 0, 0]	n/a	catFR1	6	R1662S
1130.942	0.771	1337018	WORD_OFF	n/a	n/a	TURTLE	OceanAnimals	1	11	[0, 0, 0]	n/a	catFR1	6	R1662S
1131.713	1.6	1337791	WORD	n/a	wordpools/wordpool_categorized_EN.txt	OCTOPUS	OceanAnimals	2	11	[0, 0, 0]	n/a	catFR1	6	R1662S
1133.316	0.998	1339395	WORD_OFF	n/a	n/a	OCTOPUS	OceanAnimals	2	11	[0, 0, 0]	n/a	catFR1	6	R1662S
1134.314	1.6	1340387	WORD	n/a	wordpools/wordpool_categorized_EN.txt	ONION	Vegetables	3	11	[0, 0, 0]	n/a	catFR1	6	R1662S
1135.921	0.985	1342001	WORD_OFF	n/a	n/a	ONION	Vegetables	3	11	[0, 0, 0]	n/a	catFR1	6	R1662S
1136.906	1.6	1342982	WORD	n/a	wordpools/wordpool_categorized_EN.txt	CABBAGE	Vegetables	4	11	[0, 0, 0]	n/a	catFR1	6	R1662S
1138.515	0.866	1344585	WORD_OFF	n/a	n/a	CABBAGE	Vegetables	4	11	[0, 0, 0]	n/a	catFR1	6	R1662S
1139.381	1.6	1345462	WORD	n/a	wordpools/wordpool_categorized_EN.txt	HEAD	BodyParts	5	11	[0, 0, 0]	n/a	catFR1	6	R1662S
1140.988	0.834	1347065	WORD_OFF	n/a	n/a	HEAD	BodyParts	5	11	[0, 0, 0]	n/a	catFR1	6	R1662S
1141.822	1.6	1347896	WORD	n/a	wordpools/wordpool_categorized_EN.txt	TOE	BodyParts	6	11	[0, 0, 0]	n/a	catFR1	6	R1662S
1143.423	0.933	1349499	WORD_OFF	n/a	n/a	TOE	BodyParts	6	11	[0, 0, 0]	n/a	catFR1	6	R1662S
1144.356	1.6	1350433	WORD	n/a	wordpools/wordpool_categorized_EN.txt	CORN	Vegetables	7	11	[0, 0, 0]	n/a	catFR1	6	R1662S
1145.957	0.998	1352037	WORD_OFF	n/a	n/a	CORN	Vegetables	7	11	[0, 0, 0]	n/a	catFR1	6	R1662S
1146.955	1.6	1353029	WORD	n/a	wordpools/wordpool_categorized_EN.txt	BROCCOLI	Vegetables	8	11	[0, 0, 0]	n/a	catFR1	6	R1662S
1148.555	0.96	1354632	WORD_OFF	n/a	n/a	BROCCOLI	Vegetables	8	11	[0, 0, 0]	n/a	catFR1	6	R1662S
1149.515	1.6	1355590	WORD	n/a	wordpools/wordpool_categorized_EN.txt	ELBOW	BodyParts	9	11	[0, 0, 0]	n/a	catFR1	6	R1662S
1151.124	0.79	1357204	WORD_OFF	n/a	n/a	ELBOW	BodyParts	9	11	[0, 0, 0]	n/a	catFR1	6	R1662S
1151.914	1.6	1357989	WORD	n/a	wordpools/wordpool_categorized_EN.txt	EAR	BodyParts	10	11	[0, 0, 0]	n/a	catFR1	6	R1662S
1153.522	1.001	1359604	WORD_OFF	n/a	n/a	EAR	BodyParts	10	11	[0, 0, 0]	n/a	catFR1	6	R1662S
1154.523	1.6	1360596	WORD	n/a	wordpools/wordpool_categorized_EN.txt	FISH	OceanAnimals	11	11	[0, 0, 0]	n/a	catFR1	6	R1662S
1156.123	0.765	1362199	WORD_OFF	n/a	n/a	FISH	OceanAnimals	11	11	[0, 0, 0]	n/a	catFR1	6	R1662S
1156.888	1.6	1362960	WORD	n/a	wordpools/wordpool_categorized_EN.txt	JELLYFISH	OceanAnimals	12	11	[0, 0, 0]	n/a	catFR1	6	R1662S
1158.488	0.001	1364564	WORD_OFF	n/a	n/a	JELLYFISH	OceanAnimals	12	11	[0, 0, 0]	n/a	catFR1	6	R1662S
1158.489	0.0	1364564	ENCODING_END	n/a	n/a	n/a	n/a	-999	11	[0, 0, 0]	n/a	catFR1	6	R1662S
1158.489	0.0	1364564	DISTRACT_START	n/a	n/a	n/a	n/a	-999	11	[0, 0, 0]	n/a	catFR1	6	R1662S
1158.489	0.0	1364565	PROB	3.9	n/a	n/a	n/a	-999	11	[4, 8, 8]	20.0	catFR1	6	R1662S
1158.489	3.909	1364565	START	n/a	n/a	n/a	n/a	-999	11	[-999, -999, -999]	n/a	catFR1	6	R1662S
1162.398	3.284	1368474	PROB	3.274	n/a	n/a	n/a	-999	11	[7, 1, 8]	16.0	catFR1	6	R1662S
1165.682	2.657	1371758	PROB	2.65	n/a	n/a	n/a	-999	11	[4, 6, 2]	12.0	catFR1	6	R1662S
1168.339	2.6	1374415	PROB	2.59	n/a	n/a	n/a	-999	11	[3, 5, 5]	13.0	catFR1	6	R1662S
1170.939	11.241	1377015	PROB	11.233	n/a	n/a	n/a	-999	11	[5, 8, 3]	16.0	catFR1	6	R1662S
1182.18	0.0	1388256	DISTRACT_END	n/a	n/a	n/a	n/a	-999	11	[0, 0, 0]	n/a	catFR1	6	R1662S
1182.18	2.134	1388256	STOP	n/a	n/a	n/a	n/a	-999	11	[-999, -999, -999]	n/a	catFR1	6	R1662S
1184.314	2.855	1390390	REC_START	n/a	n/a	n/a	n/a	-999	11	[0, 0, 0]	n/a	catFR1	6	R1662S
1187.169	3.711	1393245	REC_WORD	2.855	n/a	HEAD	BodyParts	5	11	[0, 0, 0]	n/a	catFR1	6	R1662S
1190.88	2.308	1396956	REC_WORD	6.566	n/a	JELLYFISH	OceanAnimals	12	11	[0, 0, 0]	n/a	catFR1	6	R1662S
1193.188	2.591	1399264	REC_WORD	8.874	n/a	FISH	OceanAnimals	11	11	[0, 0, 0]	n/a	catFR1	6	R1662S
1195.779	1.375	1401855	REC_WORD	11.465	n/a	ELBOW	BodyParts	9	11	[0, 0, 0]	n/a	catFR1	6	R1662S
1197.154	3.056	1403230	REC_WORD	12.84	n/a	CABBAGE	Vegetables	4	11	[0, 0, 0]	n/a	catFR1	6	R1662S
1200.21	11.253	1406286	REC_WORD_VV	15.896	n/a	<>	n/a	-999	11	[0, 0, 0]	n/a	catFR1	6	R1662S
1211.463	2.985	1417539	REC_WORD	27.149	n/a	LEG	BodyParts	-999	11	[0, 0, 0]	n/a	catFR1	6	R1662S
1214.448	1.773	1420519	REC_END	n/a	n/a	n/a	n/a	-999	11	[0, 0, 0]	n/a	catFR1	6	R1662S
1216.221	10.0	1422296	COUNTDOWN_START	n/a	n/a	n/a	n/a	-999	12	[0, 0, 0]	n/a	catFR1	6	R1662S
1226.563	0.0	1432643	COUNTDOWN_END	n/a	n/a	n/a	n/a	-999	12	[0, 0, 0]	n/a	catFR1	6	R1662S
1226.563	2.193	1432643	ENCODING_START	n/a	n/a	n/a	n/a	-999	12	[0, 0, 0]	n/a	catFR1	6	R1662S
1228.756	1.6	1434834	WORD	n/a	wordpools/wordpool_categorized_EN.txt	TEA	Beverages	1	12	[0, 0, 0]	n/a	catFR1	6	R1662S
1230.364	0.916	1436438	WORD_OFF	n/a	n/a	TEA	Beverages	1	12	[0, 0, 0]	n/a	catFR1	6	R1662S
1231.28	1.6	1437360	WORD	n/a	wordpools/wordpool_categorized_EN.txt	WATER	Beverages	2	12	[0, 0, 0]	n/a	catFR1	6	R1662S
1232.88	0.833	1438952	WORD_OFF	n/a	n/a	WATER	Beverages	2	12	[0, 0, 0]	n/a	catFR1	6	R1662S
1233.713	1.6	1439794	WORD	n/a	wordpools/wordpool_categorized_EN.txt	LOBSTER	OceanAnimals	3	12	[0, 0, 0]	n/a	catFR1	6	R1662S
1235.321	0.866	1441397	WORD_OFF	n/a	n/a	LOBSTER	OceanAnimals	3	12	[0, 0, 0]	n/a	catFR1	6	R1662S
1236.187	1.6	1442263	WORD	n/a	wordpools/wordpool_categorized_EN.txt	CRAB	OceanAnimals	4	12	[0, 0, 0]	n/a	catFR1	6	R1662S
1237.788	0.917	1443866	WORD_OFF	n/a	n/a	CRAB	OceanAnimals	4	12	[0, 0, 0]	n/a	catFR1	6	R1662S
1238.705	1.6	1444777	WORD	n/a	wordpools/wordpool_categorized_EN.txt	STAPLER	OfficeSupplies	5	12	[0, 0, 0]	n/a	catFR1	6	R1662S
1240.307	0.882	1446381	WORD_OFF	n/a	n/a	STAPLER	OfficeSupplies	5	12	[0, 0, 0]	n/a	catFR1	6	R1662S
1241.189	1.6	1447269	WORD	n/a	wordpools/wordpool_categorized_EN.txt	RULER	OfficeSupplies	6	12	[0, 0, 0]	n/a	catFR1	6	R1662S
1242.791	0.997	1448872	WORD_OFF	n/a	n/a	RULER	OfficeSupplies	6	12	[0, 0, 0]	n/a	catFR1	6	R1662S
1243.788	1.6	1449864	WORD	n/a	wordpools/wordpool_categorized_EN.txt	SQUID	OceanAnimals	7	12	[0, 0, 0]	n/a	catFR1	6	R1662S
1245.406	0.899	1451479	WORD_OFF	n/a	n/a	SQUID	OceanAnimals	7	12	[0, 0, 0]	n/a	catFR1	6	R1662S
1246.305	1.6	1452379	WORD	n/a	wordpools/wordpool_categorized_EN.txt	DOLPHIN	OceanAnimals	8	12	[0, 0, 0]	n/a	catFR1	6	R1662S
1247.913	0.853	1453994	WORD_OFF	n/a	n/a	DOLPHIN	OceanAnimals	8	12	[0, 0, 0]	n/a	catFR1	6	R1662S
1248.766	1.6	1454847	WORD	n/a	wordpools/wordpool_categorized_EN.txt	FOLDER	OfficeSupplies	9	12	[0, 0, 0]	n/a	catFR1	6	R1662S
1250.372	0.983	1456450	WORD_OFF	n/a	n/a	FOLDER	OfficeSupplies	9	12	[0, 0, 0]	n/a	catFR1	6	R1662S
1251.355	1.6	1457431	WORD	n/a	wordpools/wordpool_categorized_EN.txt	PENCIL	OfficeSupplies	10	12	[0, 0, 0]	n/a	catFR1	6	R1662S
1252.962	0.786	1459034	WORD_OFF	n/a	n/a	PENCIL	OfficeSupplies	10	12	[0, 0, 0]	n/a	catFR1	6	R1662S
1253.748	1.6	1459819	WORD	n/a	wordpools/wordpool_categorized_EN.txt	WINE	Beverages	11	12	[0, 0, 0]	n/a	catFR1	6	R1662S
1255.358	0.955	1461434	WORD_OFF	n/a	n/a	WINE	Beverages	11	12	[0, 0, 0]	n/a	catFR1	6	R1662S
1256.313	1.6	1462391	WORD	n/a	wordpools/wordpool_categorized_EN.txt	JUICE	Beverages	12	12	[0, 0, 0]	n/a	catFR1	6	R1662S
1257.914	0.0	1463990	PROB	3.616	n/a	n/a	n/a	-999	12	[8, 4, 2]	14.0	catFR1	6	R1662S
1257.914	0.007	1463994	WORD_OFF	n/a	n/a	JUICE	Beverages	12	12	[0, 0, 0]	n/a	catFR1	6	R1662S
1257.921	0.0	1463994	ENCODING_END	n/a	n/a	n/a	n/a	-999	12	[0, 0, 0]	n/a	catFR1	6	R1662S
1257.921	0.0	1463997	START	n/a	n/a	n/a	n/a	-999	12	[-999, -999, -999]	n/a	catFR1	6	R1662S
1257.921	3.619	1464006	DISTRACT_START	n/a	n/a	n/a	n/a	-999	12	[0, 0, 0]	n/a	catFR1	6	R1662S
1261.54	2.674	1467616	PROB	2.665	n/a	n/a	n/a	-999	12	[2, 8, 3]	13.0	catFR1	6	R1662S
1264.214	3.219	1470290	PROB	3.207	n/a	n/a	n/a	-999	12	[8, 7, 2]	17.0	catFR1	6	R1662S
1267.433	4.381	1473509	PROB	4.373	n/a	n/a	n/a	-999	12	[3, 4, 4]	11.0	catFR1	6	R1662S
1271.814	7.693	1477890	PROB	7.683	n/a	n/a	n/a	-999	12	[7, 5, 8]	20.0	catFR1	6	R1662S
1279.507	0.0	1485583	STOP	n/a	n/a	n/a	n/a	-999	12	[-999, -999, -999]	n/a	catFR1	6	R1662S
1279.507	2.223	1485588	DISTRACT_END	n/a	n/a	n/a	n/a	-999	12	[0, 0, 0]	n/a	catFR1	6	R1662S
1281.73	1.341	1487802	REC_START	n/a	n/a	n/a	n/a	-999	12	[0, 0, 0]	n/a	catFR1	6	R1662S
1283.071	1.52	1489147	REC_WORD	1.341	n/a	LOBSTER	OceanAnimals	3	12	[0, 0, 0]	n/a	catFR1	6	R1662S
1284.591	1.685	1490667	REC_WORD	2.861	n/a	CRAB	OceanAnimals	4	12	[0, 0, 0]	n/a	catFR1	6	R1662S
1286.276	0.553	1492352	REC_WORD	4.546	n/a	WATER	Beverages	2	12	[0, 0, 0]	n/a	catFR1	6	R1662S
1286.829	0.813	1492905	REC_WORD	5.099	n/a	TEA	Beverages	1	12	[0, 0, 0]	n/a	catFR1	6	R1662S
1287.642	2.943	1493718	REC_WORD	5.912	n/a	WINE	Beverages	11	12	[0, 0, 0]	n/a	catFR1	6	R1662S
1290.585	6.976	1496661	REC_WORD	8.855	n/a	JUICE	Beverages	12	12	[0, 0, 0]	n/a	catFR1	6	R1662S
1297.561	14.301	1503637	REC_WORD_VV	15.831	n/a	<>	n/a	-999	12	[0, 0, 0]	n/a	catFR1	6	R1662S
1311.862	0.0	1517943	REC_END	n/a	n/a	n/a	n/a	-999	12	[0, 0, 0]	n/a	catFR1	6	R1662S
