onset	duration	sample	trial_type	response_time	stim_file	item_name	category	serialpos	list	test	answer	experiment	session	subject
0.0	1.182	211643	INSTRUCT_START	n/a	n/a	n/a	n/a	-999	-999	[0, 0, 0]	n/a	catFR1	2	R1476J
1.182	36.701	212828	INSTRUCT_END	n/a	n/a	n/a	n/a	-999	-999	[0, 0, 0]	n/a	catFR1	2	R1476J
37.883	10.349	249532	COUNTDOWN_START	n/a	n/a	n/a	n/a	-999	-999	[0, 0, 0]	n/a	catFR1	2	R1476J
48.232	0.0	259874	COUNTDOWN_END	n/a	n/a	n/a	n/a	-999	-999	[0, 0, 0]	n/a	catFR1	2	R1476J
48.232	2.216	259874	ENCODING_START	n/a	n/a	n/a	n/a	-999	-1	[0, 0, 0]	n/a	catFR1	2	R1476J
50.448	1.6	262087	WORD	n/a	n/a	SODA	Beverages	1	-1	[0, 0, 0]	n/a	catFR1	2	R1476J
52.048	0.784	263694	WORD_OFF	n/a	n/a	SODA	Beverages	1	-1	[0, 0, 0]	n/a	catFR1	2	R1476J
52.832	1.616	264471	WORD	n/a	n/a	COLA	Beverages	2	-1	[0, 0, 0]	n/a	catFR1	2	R1476J
54.448	0.984	266092	WORD_OFF	n/a	n/a	COLA	Beverages	2	-1	[0, 0, 0]	n/a	catFR1	2	R1476J
55.432	1.615	267077	WORD	n/a	n/a	DOLLHOUSE	Toys	3	-1	[0, 0, 0]	n/a	catFR1	2	R1476J
57.047	0.767	268691	WORD_OFF	n/a	n/a	DOLLHOUSE	Toys	3	-1	[0, 0, 0]	n/a	catFR1	2	R1476J
57.814	1.6	269453	WORD	n/a	n/a	DOLL	Toys	4	-1	[0, 0, 0]	n/a	catFR1	2	R1476J
59.414	1.001	271060	WORD_OFF	n/a	n/a	DOLL	Toys	4	-1	[0, 0, 0]	n/a	catFR1	2	R1476J
60.415	1.616	272059	WORD	n/a	n/a	SOCKS	Clothing	5	-1	[0, 0, 0]	n/a	catFR1	2	R1476J
62.031	0.967	273673	WORD_OFF	n/a	n/a	SOCKS	Clothing	5	-1	[0, 0, 0]	n/a	catFR1	2	R1476J
62.998	1.601	274643	WORD	n/a	n/a	UNDERWEAR	Clothing	6	-1	[0, 0, 0]	n/a	catFR1	2	R1476J
64.599	0.899	276242	WORD_OFF	n/a	n/a	UNDERWEAR	Clothing	6	-1	[0, 0, 0]	n/a	catFR1	2	R1476J
65.498	1.617	277138	WORD	n/a	n/a	CIDER	Beverages	7	-1	[0, 0, 0]	n/a	catFR1	2	R1476J
67.115	0.916	278759	WORD_OFF	n/a	n/a	CIDER	Beverages	7	-1	[0, 0, 0]	n/a	catFR1	2	R1476J
68.031	1.616	279669	WORD	n/a	n/a	MILK	Beverages	8	-1	[0, 0, 0]	n/a	catFR1	2	R1476J
69.647	0.869	281291	WORD_OFF	n/a	n/a	MILK	Beverages	8	-1	[0, 0, 0]	n/a	catFR1	2	R1476J
70.516	1.6	282157	WORD	n/a	n/a	SHOES	Clothing	9	-1	[0, 0, 0]	n/a	catFR1	2	R1476J
72.116	0.848	283756	WORD_OFF	n/a	n/a	SHOES	Clothing	9	-1	[0, 0, 0]	n/a	catFR1	2	R1476J
72.964	1.601	284607	WORD	n/a	n/a	JACKET	Clothing	10	-1	[0, 0, 0]	n/a	catFR1	2	R1476J
74.565	0.949	286206	WORD_OFF	n/a	n/a	JACKET	Clothing	10	-1	[0, 0, 0]	n/a	catFR1	2	R1476J
75.514	1.601	287154	WORD	n/a	n/a	PUZZLE	Toys	11	-1	[0, 0, 0]	n/a	catFR1	2	R1476J
77.115	1.0	288757	WORD_OFF	n/a	n/a	PUZZLE	Toys	11	-1	[0, 0, 0]	n/a	catFR1	2	R1476J
78.115	1.617	289760	WORD	n/a	n/a	BASEBALL	Toys	12	-1	[0, 0, 0]	n/a	catFR1	2	R1476J
79.732	0.001	291373	START	n/a	n/a	n/a	n/a	-999	-1	[-999, -999, -999]	n/a	catFR1	2	R1476J
79.733	0.0	291374	PROB	0.0	n/a	n/a	n/a	-999	-1	[3, 2, 6]	11	catFR1	2	R1476J
79.731	0.001	291381	WORD_OFF	n/a	n/a	BASEBALL	Toys	12	-1	[0, 0, 0]	n/a	catFR1	2	R1476J
79.732	0.0	291381	ENCODING_END	n/a	n/a	n/a	n/a	-999	-1	[0, 0, 0]	n/a	catFR1	2	R1476J
79.732	3.5	291388	DISTRACT_START	n/a	n/a	n/a	n/a	-999	-1	[0, 0, 0]	n/a	catFR1	2	R1476J
83.232	3.682	294873	PROB	3.682	n/a	n/a	n/a	-999	-1	[3, 8, 2]	13	catFR1	2	R1476J
86.914	4.233	298555	PROB	4.233	n/a	n/a	n/a	-999	-1	[8, 7, 4]	19	catFR1	2	R1476J
91.147	6.218	302787	PROB	6.218	n/a	n/a	n/a	-999	-1	[1, 6, 2]	9	catFR1	2	R1476J
97.365	5.933	309005	PROB	5.933	n/a	n/a	n/a	-999	-1	[3, 1, 2]	6	catFR1	2	R1476J
103.298	0.0	314937	DISTRACT_END	n/a	n/a	n/a	n/a	-999	-1	[0, 0, 0]	n/a	catFR1	2	R1476J
103.298	2.133	314938	STOP	n/a	n/a	n/a	n/a	-999	-1	[-999, -999, -999]	n/a	catFR1	2	R1476J
105.431	1.468	317070	REC_START	n/a	n/a	n/a	n/a	-999	-1	[0, 0, 0]	n/a	catFR1	2	R1476J
106.899	0.362	318539	REC_WORD_VV	0.362	n/a	<>	n/a	-999	-1	[0, 0, 0]	n/a	catFR1	2	R1476J
107.261	1.598	318901	REC_WORD	1.598	n/a	SODA	Beverages	1	-1	[0, 0, 0]	n/a	catFR1	2	R1476J
108.859	0.843	320499	REC_WORD	0.843	n/a	COLA	Beverages	2	-1	[0, 0, 0]	n/a	catFR1	2	R1476J
109.702	0.856	321342	REC_WORD	0.856	n/a	DOLLHOUSE	Toys	3	-1	[0, 0, 0]	n/a	catFR1	2	R1476J
110.558	1.821	322198	REC_WORD	1.821	n/a	DOLL	Toys	4	-1	[0, 0, 0]	n/a	catFR1	2	R1476J
112.379	4.632	324019	REC_WORD_VV	4.632	n/a	<>	n/a	-999	-1	[0, 0, 0]	n/a	catFR1	2	R1476J
117.011	8.122	328650	REC_WORD_VV	8.122	n/a	<>	n/a	-999	-1	[0, 0, 0]	n/a	catFR1	2	R1476J
125.133	10.497	336772	REC_WORD_VV	10.497	n/a	<>	n/a	-999	-1	[0, 0, 0]	n/a	catFR1	2	R1476J
135.63	73.401	347273	REC_END	n/a	n/a	n/a	n/a	-999	-1	[0, 0, 0]	n/a	catFR1	2	R1476J
209.031	10.35	420674	COUNTDOWN_START	n/a	n/a	n/a	n/a	-999	1	[0, 0, 0]	n/a	catFR1	2	R1476J
219.381	0.0	431016	COUNTDOWN_END	n/a	n/a	n/a	n/a	-999	1	[0, 0, 0]	n/a	catFR1	2	R1476J
219.381	2.216	431016	ENCODING_START	n/a	n/a	n/a	n/a	-999	1	[0, 0, 0]	n/a	catFR1	2	R1476J
221.597	1.617	433229	WORD	n/a	wordpools/wordpool_categorized_EN.txt	JELLO	Desserts	1	1	[0, 0, 0]	n/a	catFR1	2	R1476J
223.214	0.8	434851	WORD_OFF	n/a	n/a	JELLO	Desserts	1	1	[0, 0, 0]	n/a	catFR1	2	R1476J
224.014	1.601	435650	WORD	n/a	wordpools/wordpool_categorized_EN.txt	COOKIE	Desserts	2	1	[0, 0, 0]	n/a	catFR1	2	R1476J
225.615	0.999	437249	WORD_OFF	n/a	n/a	COOKIE	Desserts	2	1	[0, 0, 0]	n/a	catFR1	2	R1476J
226.614	1.617	438249	WORD	n/a	wordpools/wordpool_categorized_EN.txt	OCEAN	Landscapes	3	1	[0, 0, 0]	n/a	catFR1	2	R1476J
228.231	0.766	439862	WORD_OFF	n/a	n/a	OCEAN	Landscapes	3	1	[0, 0, 0]	n/a	catFR1	2	R1476J
228.997	1.6	440632	WORD	n/a	wordpools/wordpool_categorized_EN.txt	CREEK	Landscapes	4	1	[0, 0, 0]	n/a	catFR1	2	R1476J
230.597	0.918	442231	WORD_OFF	n/a	n/a	CREEK	Landscapes	4	1	[0, 0, 0]	n/a	catFR1	2	R1476J
231.515	1.6	443149	WORD	n/a	wordpools/wordpool_categorized_EN.txt	FLOOR	Building	5	1	[0, 0, 0]	n/a	catFR1	2	R1476J
233.115	0.917	444748	WORD_OFF	n/a	n/a	FLOOR	Building	5	1	[0, 0, 0]	n/a	catFR1	2	R1476J
234.032	1.6	445666	WORD	n/a	wordpools/wordpool_categorized_EN.txt	ROOF	Building	6	1	[0, 0, 0]	n/a	catFR1	2	R1476J
235.632	0.899	447265	WORD_OFF	n/a	n/a	ROOF	Building	6	1	[0, 0, 0]	n/a	catFR1	2	R1476J
236.531	1.6	448169	WORD	n/a	wordpools/wordpool_categorized_EN.txt	PUDDING	Desserts	7	1	[0, 0, 0]	n/a	catFR1	2	R1476J
238.131	0.783	449768	WORD_OFF	n/a	n/a	PUDDING	Desserts	7	1	[0, 0, 0]	n/a	catFR1	2	R1476J
238.914	1.601	450545	WORD	n/a	wordpools/wordpool_categorized_EN.txt	CAKE	Desserts	8	1	[0, 0, 0]	n/a	catFR1	2	R1476J
240.515	0.766	452151	WORD_OFF	n/a	n/a	CAKE	Desserts	8	1	[0, 0, 0]	n/a	catFR1	2	R1476J
241.281	1.617	452914	WORD	n/a	wordpools/wordpool_categorized_EN.txt	ISLAND	Landscapes	9	1	[0, 0, 0]	n/a	catFR1	2	R1476J
242.898	0.8	454535	WORD_OFF	n/a	n/a	ISLAND	Landscapes	9	1	[0, 0, 0]	n/a	catFR1	2	R1476J
243.698	1.601	455335	WORD	n/a	wordpools/wordpool_categorized_EN.txt	MOUNTAIN	Landscapes	10	1	[0, 0, 0]	n/a	catFR1	2	R1476J
245.299	0.85	456934	WORD_OFF	n/a	n/a	MOUNTAIN	Landscapes	10	1	[0, 0, 0]	n/a	catFR1	2	R1476J
246.149	1.615	457785	WORD	n/a	wordpools/wordpool_categorized_EN.txt	ROOM	Building	11	1	[0, 0, 0]	n/a	catFR1	2	R1476J
247.764	0.867	459399	WORD_OFF	n/a	n/a	ROOM	Building	11	1	[0, 0, 0]	n/a	catFR1	2	R1476J
248.631	1.6	460265	WORD	n/a	wordpools/wordpool_categorized_EN.txt	DOOR	Building	12	1	[0, 0, 0]	n/a	catFR1	2	R1476J
250.231	0.0	461864	WORD_OFF	n/a	n/a	DOOR	Building	12	1	[0, 0, 0]	n/a	catFR1	2	R1476J
250.231	0.001	461865	PROB	0.001	n/a	n/a	n/a	-999	1	[4, 6, 8]	18	catFR1	2	R1476J
250.232	0.0	461866	START	n/a	n/a	n/a	n/a	-999	1	[-999, -999, -999]	n/a	catFR1	2	R1476J
250.232	0.0	461872	ENCODING_END	n/a	n/a	n/a	n/a	-999	1	[0, 0, 0]	n/a	catFR1	2	R1476J
250.232	4.4	461872	DISTRACT_START	n/a	n/a	n/a	n/a	-999	1	[0, 0, 0]	n/a	catFR1	2	R1476J
254.632	4.517	466266	PROB	4.517	n/a	n/a	n/a	-999	1	[5, 3, 2]	10	catFR1	2	R1476J
259.149	3.883	470782	PROB	3.883	n/a	n/a	n/a	-999	1	[7, 3, 7]	17	catFR1	2	R1476J
263.032	4.033	474665	PROB	4.033	n/a	n/a	n/a	-999	1	[3, 2, 1]	6	catFR1	2	R1476J
267.065	4.45	478698	PROB	4.45	n/a	n/a	n/a	-999	1	[6, 6, 7]	19	catFR1	2	R1476J
271.515	0.0	483148	DISTRACT_END	n/a	n/a	n/a	n/a	-999	1	[0, 0, 0]	n/a	catFR1	2	R1476J
271.515	2.166	483148	STOP	n/a	n/a	n/a	n/a	-999	1	[-999, -999, -999]	n/a	catFR1	2	R1476J
273.681	1.464	485317	REC_START	n/a	n/a	n/a	n/a	-999	1	[0, 0, 0]	n/a	catFR1	2	R1476J
275.145	1.157	486778	REC_WORD	1.157	n/a	OCEAN	Landscapes	3	1	[0, 0, 0]	n/a	catFR1	2	R1476J
276.302	1.051	487935	REC_WORD	1.051	n/a	CREEK	Landscapes	4	1	[0, 0, 0]	n/a	catFR1	2	R1476J
277.353	0.93	488986	REC_WORD	0.93	n/a	ISLAND	Landscapes	9	1	[0, 0, 0]	n/a	catFR1	2	R1476J
278.283	2.592	489916	REC_WORD	2.592	n/a	MOUNTAIN	Landscapes	10	1	[0, 0, 0]	n/a	catFR1	2	R1476J
280.875	1.793	492508	REC_WORD	1.793	n/a	DOOR	Building	12	1	[0, 0, 0]	n/a	catFR1	2	R1476J
282.668	5.544	494300	REC_WORD	5.544	n/a	ROOM	Building	11	1	[0, 0, 0]	n/a	catFR1	2	R1476J
288.212	1.704	499844	REC_WORD_VV	1.704	n/a	<>	n/a	-999	1	[0, 0, 0]	n/a	catFR1	2	R1476J
289.916	13.985	501548	REC_WORD	13.985	n/a	LAKE	n/a	-999	1	[0, 0, 0]	n/a	catFR1	2	R1476J
303.901	21.931	515536	REC_END	n/a	n/a	n/a	n/a	-999	1	[0, 0, 0]	n/a	catFR1	2	R1476J
325.832	10.35	537463	COUNTDOWN_START	n/a	n/a	n/a	n/a	-999	2	[0, 0, 0]	n/a	catFR1	2	R1476J
336.182	0.001	547813	COUNTDOWN_END	n/a	n/a	n/a	n/a	-999	2	[0, 0, 0]	n/a	catFR1	2	R1476J
336.183	2.182	547813	ENCODING_START	n/a	n/a	n/a	n/a	-999	2	[0, 0, 0]	n/a	catFR1	2	R1476J
338.365	1.601	549997	WORD	n/a	wordpools/wordpool_categorized_EN.txt	ELBOW	BodyParts	1	2	[0, 0, 0]	n/a	catFR1	2	R1476J
339.966	0.933	551596	WORD_OFF	n/a	n/a	ELBOW	BodyParts	1	2	[0, 0, 0]	n/a	catFR1	2	R1476J
340.899	1.615	552528	WORD	n/a	wordpools/wordpool_categorized_EN.txt	EYE	BodyParts	2	2	[0, 0, 0]	n/a	catFR1	2	R1476J
342.514	0.883	554142	WORD_OFF	n/a	n/a	EYE	BodyParts	2	2	[0, 0, 0]	n/a	catFR1	2	R1476J
343.397	1.602	555031	WORD	n/a	wordpools/wordpool_categorized_EN.txt	PEAR	Fruit	3	2	[0, 0, 0]	n/a	catFR1	2	R1476J
344.999	0.882	556630	WORD_OFF	n/a	n/a	PEAR	Fruit	3	2	[0, 0, 0]	n/a	catFR1	2	R1476J
345.881	1.601	557511	WORD	n/a	wordpools/wordpool_categorized_EN.txt	BANANA	Fruit	4	2	[0, 0, 0]	n/a	catFR1	2	R1476J
347.482	0.783	559110	WORD_OFF	n/a	n/a	BANANA	Fruit	4	2	[0, 0, 0]	n/a	catFR1	2	R1476J
348.265	1.617	559894	WORD	n/a	wordpools/wordpool_categorized_EN.txt	SPINACH	Vegetables	5	2	[0, 0, 0]	n/a	catFR1	2	R1476J
349.882	0.766	561516	WORD_OFF	n/a	n/a	SPINACH	Vegetables	5	2	[0, 0, 0]	n/a	catFR1	2	R1476J
350.648	1.6	562278	WORD	n/a	wordpools/wordpool_categorized_EN.txt	PEAS	Vegetables	6	2	[0, 0, 0]	n/a	catFR1	2	R1476J
352.248	0.867	563877	WORD_OFF	n/a	n/a	PEAS	Vegetables	6	2	[0, 0, 0]	n/a	catFR1	2	R1476J
353.115	1.617	564743	WORD	n/a	wordpools/wordpool_categorized_EN.txt	APPLE	Fruit	7	2	[0, 0, 0]	n/a	catFR1	2	R1476J
354.732	0.849	566365	WORD_OFF	n/a	n/a	APPLE	Fruit	7	2	[0, 0, 0]	n/a	catFR1	2	R1476J
355.581	1.601	567209	WORD	n/a	wordpools/wordpool_categorized_EN.txt	STRAWBERRY	Fruit	8	2	[0, 0, 0]	n/a	catFR1	2	R1476J
357.182	0.948	568815	WORD_OFF	n/a	n/a	STRAWBERRY	Fruit	8	2	[0, 0, 0]	n/a	catFR1	2	R1476J
358.13	1.602	569763	WORD	n/a	wordpools/wordpool_categorized_EN.txt	LEG	BodyParts	9	2	[0, 0, 0]	n/a	catFR1	2	R1476J
359.732	0.799	571362	WORD_OFF	n/a	n/a	LEG	BodyParts	9	2	[0, 0, 0]	n/a	catFR1	2	R1476J
360.531	1.616	572161	WORD	n/a	wordpools/wordpool_categorized_EN.txt	TOE	BodyParts	10	2	[0, 0, 0]	n/a	catFR1	2	R1476J
362.147	0.802	573775	WORD_OFF	n/a	n/a	TOE	BodyParts	10	2	[0, 0, 0]	n/a	catFR1	2	R1476J
362.949	1.616	574582	WORD	n/a	wordpools/wordpool_categorized_EN.txt	CABBAGE	Vegetables	11	2	[0, 0, 0]	n/a	catFR1	2	R1476J
364.565	0.932	576196	WORD_OFF	n/a	n/a	CABBAGE	Vegetables	11	2	[0, 0, 0]	n/a	catFR1	2	R1476J
365.497	1.601	577129	WORD	n/a	wordpools/wordpool_categorized_EN.txt	CUCUMBER	Vegetables	12	2	[0, 0, 0]	n/a	catFR1	2	R1476J
367.098	0.0	578727	PROB	0.0	n/a	n/a	n/a	-999	2	[8, 1, 4]	13	catFR1	2	R1476J
367.098	0.001	578728	WORD_OFF	n/a	n/a	CUCUMBER	Vegetables	12	2	[0, 0, 0]	n/a	catFR1	2	R1476J
367.099	0.0	578728	ENCODING_END	n/a	n/a	n/a	n/a	-999	2	[0, 0, 0]	n/a	catFR1	2	R1476J
367.099	0.0	578728	DISTRACT_START	n/a	n/a	n/a	n/a	-999	2	[0, 0, 0]	n/a	catFR1	2	R1476J
367.099	5.266	578728	START	n/a	n/a	n/a	n/a	-999	2	[-999, -999, -999]	n/a	catFR1	2	R1476J
372.365	3.434	583994	PROB	3.434	n/a	n/a	n/a	-999	2	[5, 2, 5]	12	catFR1	2	R1476J
375.799	4.899	587428	PROB	4.899	n/a	n/a	n/a	-999	2	[7, 6, 5]	18	catFR1	2	R1476J
380.698	3.367	592326	PROB	3.367	n/a	n/a	n/a	-999	2	[6, 6, 8]	20	catFR1	2	R1476J
384.065	4.249	595693	PROB	4.249	n/a	n/a	n/a	-999	2	[6, 2, 2]	10	catFR1	2	R1476J
388.314	0.0	599942	STOP	n/a	n/a	n/a	n/a	-999	2	[-999, -999, -999]	n/a	catFR1	2	R1476J
388.314	2.283	599945	DISTRACT_END	n/a	n/a	n/a	n/a	-999	2	[0, 0, 0]	n/a	catFR1	2	R1476J
390.597	1.787	602225	REC_START	n/a	n/a	n/a	n/a	-999	2	[0, 0, 0]	n/a	catFR1	2	R1476J
392.384	1.103	604012	REC_WORD	1.103	n/a	SPINACH	Vegetables	5	2	[0, 0, 0]	n/a	catFR1	2	R1476J
393.487	0.957	605115	REC_WORD	0.957	n/a	PEAS	Vegetables	6	2	[0, 0, 0]	n/a	catFR1	2	R1476J
394.444	3.391	606072	REC_WORD	3.391	n/a	PEAR	Fruit	3	2	[0, 0, 0]	n/a	catFR1	2	R1476J
397.835	1.637	609463	REC_WORD	1.637	n/a	APPLE	Fruit	7	2	[0, 0, 0]	n/a	catFR1	2	R1476J
399.472	8.177	611100	REC_WORD	8.177	n/a	CUCUMBER	Vegetables	12	2	[0, 0, 0]	n/a	catFR1	2	R1476J
407.649	5.241	619276	REC_WORD_VV	5.241	n/a	<>	n/a	-999	2	[0, 0, 0]	n/a	catFR1	2	R1476J
412.89	7.924	624517	REC_WORD	7.924	n/a	GRAPE	n/a	-999	2	[0, 0, 0]	n/a	catFR1	2	R1476J
420.814	3.201	632444	REC_END	n/a	n/a	n/a	n/a	-999	2	[0, 0, 0]	n/a	catFR1	2	R1476J
424.015	10.35	635642	COUNTDOWN_START	n/a	n/a	n/a	n/a	-999	3	[0, 0, 0]	n/a	catFR1	2	R1476J
434.365	0.0	645991	COUNTDOWN_END	n/a	n/a	n/a	n/a	-999	3	[0, 0, 0]	n/a	catFR1	2	R1476J
434.365	2.183	645991	ENCODING_START	n/a	n/a	n/a	n/a	-999	3	[0, 0, 0]	n/a	catFR1	2	R1476J
436.548	1.6	648175	WORD	n/a	wordpools/wordpool_categorized_EN.txt	MARIGOLD	Flowers	1	3	[0, 0, 0]	n/a	catFR1	2	R1476J
438.148	0.917	649774	WORD_OFF	n/a	n/a	MARIGOLD	Flowers	1	3	[0, 0, 0]	n/a	catFR1	2	R1476J
439.065	1.6	650692	WORD	n/a	wordpools/wordpool_categorized_EN.txt	SUNFLOWER	Flowers	2	3	[0, 0, 0]	n/a	catFR1	2	R1476J
440.665	0.95	652291	WORD_OFF	n/a	n/a	SUNFLOWER	Flowers	2	3	[0, 0, 0]	n/a	catFR1	2	R1476J
441.615	1.599	653239	WORD	n/a	wordpools/wordpool_categorized_EN.txt	BUTTERFLY	Insects	3	3	[0, 0, 0]	n/a	catFR1	2	R1476J
443.214	0.799	654838	WORD_OFF	n/a	n/a	BUTTERFLY	Insects	3	3	[0, 0, 0]	n/a	catFR1	2	R1476J
444.013	1.601	655637	WORD	n/a	wordpools/wordpool_categorized_EN.txt	ANT	Insects	4	3	[0, 0, 0]	n/a	catFR1	2	R1476J
445.614	1.0	657236	WORD_OFF	n/a	n/a	ANT	Insects	4	3	[0, 0, 0]	n/a	catFR1	2	R1476J
446.614	1.601	658243	WORD	n/a	wordpools/wordpool_categorized_EN.txt	GRAPE	Fruit	5	3	[0, 0, 0]	n/a	catFR1	2	R1476J
448.215	0.783	659842	WORD_OFF	n/a	n/a	GRAPE	Fruit	5	3	[0, 0, 0]	n/a	catFR1	2	R1476J
448.998	1.602	660627	WORD	n/a	wordpools/wordpool_categorized_EN.txt	ORANGE	Fruit	6	3	[0, 0, 0]	n/a	catFR1	2	R1476J
450.6	0.948	662226	WORD_OFF	n/a	n/a	ORANGE	Fruit	6	3	[0, 0, 0]	n/a	catFR1	2	R1476J
451.548	1.6	663173	WORD	n/a	wordpools/wordpool_categorized_EN.txt	BEE	Insects	7	3	[0, 0, 0]	n/a	catFR1	2	R1476J
453.148	0.867	664772	WORD_OFF	n/a	n/a	BEE	Insects	7	3	[0, 0, 0]	n/a	catFR1	2	R1476J
454.015	1.617	665639	WORD	n/a	wordpools/wordpool_categorized_EN.txt	GNAT	Insects	8	3	[0, 0, 0]	n/a	catFR1	2	R1476J
455.632	0.832	667260	WORD_OFF	n/a	n/a	GNAT	Insects	8	3	[0, 0, 0]	n/a	catFR1	2	R1476J
456.464	1.602	668089	WORD	n/a	wordpools/wordpool_categorized_EN.txt	DAFFODIL	Flowers	9	3	[0, 0, 0]	n/a	catFR1	2	R1476J
458.066	0.9	669688	WORD_OFF	n/a	n/a	DAFFODIL	Flowers	9	3	[0, 0, 0]	n/a	catFR1	2	R1476J
458.966	1.615	670591	WORD	n/a	wordpools/wordpool_categorized_EN.txt	LILAC	Flowers	10	3	[0, 0, 0]	n/a	catFR1	2	R1476J
460.581	0.984	672205	WORD_OFF	n/a	n/a	LILAC	Flowers	10	3	[0, 0, 0]	n/a	catFR1	2	R1476J
461.565	1.6	673190	WORD	n/a	wordpools/wordpool_categorized_EN.txt	PLUM	Fruit	11	3	[0, 0, 0]	n/a	catFR1	2	R1476J
463.165	0.817	674789	WORD_OFF	n/a	n/a	PLUM	Fruit	11	3	[0, 0, 0]	n/a	catFR1	2	R1476J
463.982	1.601	675610	WORD	n/a	wordpools/wordpool_categorized_EN.txt	BLUEBERRY	Fruit	12	3	[0, 0, 0]	n/a	catFR1	2	R1476J
465.583	0.0	677208	PROB	0.0	n/a	n/a	n/a	-999	3	[7, 5, 2]	14	catFR1	2	R1476J
465.583	0.003	677209	WORD_OFF	n/a	n/a	BLUEBERRY	Fruit	12	3	[0, 0, 0]	n/a	catFR1	2	R1476J
465.586	0.0	677209	ENCODING_END	n/a	n/a	n/a	n/a	-999	3	[0, 0, 0]	n/a	catFR1	2	R1476J
465.586	0.0	677209	DISTRACT_START	n/a	n/a	n/a	n/a	-999	3	[0, 0, 0]	n/a	catFR1	2	R1476J
465.586	4.846	677211	START	n/a	n/a	n/a	n/a	-999	3	[-999, -999, -999]	n/a	catFR1	2	R1476J
470.432	3.518	682057	PROB	3.518	n/a	n/a	n/a	-999	3	[6, 5, 3]	14	catFR1	2	R1476J
473.95	4.665	685574	PROB	4.665	n/a	n/a	n/a	-999	3	[8, 4, 6]	18	catFR1	2	R1476J
478.615	4.633	690239	PROB	4.633	n/a	n/a	n/a	-999	3	[6, 8, 8]	22	catFR1	2	R1476J
483.248	3.783	694872	PROB	3.783	n/a	n/a	n/a	-999	3	[5, 6, 2]	13	catFR1	2	R1476J
487.031	0.0	698655	STOP	n/a	n/a	n/a	n/a	-999	3	[-999, -999, -999]	n/a	catFR1	2	R1476J
487.031	2.135	698656	DISTRACT_END	n/a	n/a	n/a	n/a	-999	3	[0, 0, 0]	n/a	catFR1	2	R1476J
489.166	0.676	700789	REC_START	n/a	n/a	n/a	n/a	-999	3	[0, 0, 0]	n/a	catFR1	2	R1476J
489.842	0.821	701466	REC_WORD	0.821	n/a	MARIGOLD	Flowers	1	3	[0, 0, 0]	n/a	catFR1	2	R1476J
490.663	1.0	702287	REC_WORD	1.0	n/a	SUNFLOWER	Flowers	2	3	[0, 0, 0]	n/a	catFR1	2	R1476J
491.663	0.343	703287	REC_WORD_VV	0.343	n/a	<>	n/a	-999	3	[0, 0, 0]	n/a	catFR1	2	R1476J
492.006	1.664	703630	REC_WORD	1.664	n/a	PLUM	Fruit	11	3	[0, 0, 0]	n/a	catFR1	2	R1476J
493.67	4.956	705294	REC_WORD	4.956	n/a	APPLE	Fruit	-999	3	[0, 0, 0]	n/a	catFR1	2	R1476J
498.626	18.523	710249	REC_WORD	18.523	n/a	DAFFODIL	Flowers	9	3	[0, 0, 0]	n/a	catFR1	2	R1476J
517.149	2.261	728772	REC_WORD_VV	2.261	n/a	<>	n/a	-999	3	[0, 0, 0]	n/a	catFR1	2	R1476J
519.41	4.373	731029	REC_END	n/a	n/a	n/a	n/a	-999	3	[0, 0, 0]	n/a	catFR1	2	R1476J
523.783	10.349	735412	COUNTDOWN_START	n/a	n/a	n/a	n/a	-999	4	[0, 0, 0]	n/a	catFR1	2	R1476J
534.132	0.0	745754	COUNTDOWN_END	n/a	n/a	n/a	n/a	-999	4	[0, 0, 0]	n/a	catFR1	2	R1476J
534.132	2.1	745754	ENCODING_START	n/a	n/a	n/a	n/a	-999	4	[0, 0, 0]	n/a	catFR1	2	R1476J
536.232	1.6	747856	WORD	n/a	wordpools/wordpool_categorized_EN.txt	GOAT	FarmAnimals	1	4	[0, 0, 0]	n/a	catFR1	2	R1476J
537.832	0.783	749455	WORD_OFF	n/a	n/a	GOAT	FarmAnimals	1	4	[0, 0, 0]	n/a	catFR1	2	R1476J
538.615	1.617	750240	WORD	n/a	wordpools/wordpool_categorized_EN.txt	LAMB	FarmAnimals	2	4	[0, 0, 0]	n/a	catFR1	2	R1476J
540.232	0.783	751854	WORD_OFF	n/a	n/a	LAMB	FarmAnimals	2	4	[0, 0, 0]	n/a	catFR1	2	R1476J
541.015	1.6	752638	WORD	n/a	wordpools/wordpool_categorized_EN.txt	FUDGE	Desserts	3	4	[0, 0, 0]	n/a	catFR1	2	R1476J
542.615	0.983	754237	WORD_OFF	n/a	n/a	FUDGE	Desserts	3	4	[0, 0, 0]	n/a	catFR1	2	R1476J
543.598	1.6	755222	WORD	n/a	wordpools/wordpool_categorized_EN.txt	PASTRY	Desserts	4	4	[0, 0, 0]	n/a	catFR1	2	R1476J
545.198	0.983	756821	WORD_OFF	n/a	n/a	PASTRY	Desserts	4	4	[0, 0, 0]	n/a	catFR1	2	R1476J
546.181	1.6	757806	WORD	n/a	wordpools/wordpool_categorized_EN.txt	TAPE	OfficeSupplies	5	4	[0, 0, 0]	n/a	catFR1	2	R1476J
547.781	0.817	759405	WORD_OFF	n/a	n/a	TAPE	OfficeSupplies	5	4	[0, 0, 0]	n/a	catFR1	2	R1476J
548.598	1.6	760219	WORD	n/a	wordpools/wordpool_categorized_EN.txt	ERASER	OfficeSupplies	6	4	[0, 0, 0]	n/a	catFR1	2	R1476J
550.198	0.883	761818	WORD_OFF	n/a	n/a	ERASER	OfficeSupplies	6	4	[0, 0, 0]	n/a	catFR1	2	R1476J
551.081	1.601	762699	WORD	n/a	wordpools/wordpool_categorized_EN.txt	CHICKEN	FarmAnimals	7	4	[0, 0, 0]	n/a	catFR1	2	R1476J
552.682	0.999	764306	WORD_OFF	n/a	n/a	CHICKEN	FarmAnimals	7	4	[0, 0, 0]	n/a	catFR1	2	R1476J
553.681	1.601	765305	WORD	n/a	wordpools/wordpool_categorized_EN.txt	PIG	FarmAnimals	8	4	[0, 0, 0]	n/a	catFR1	2	R1476J
555.282	0.999	766904	WORD_OFF	n/a	n/a	PIG	FarmAnimals	8	4	[0, 0, 0]	n/a	catFR1	2	R1476J
556.281	1.6	767903	WORD	n/a	wordpools/wordpool_categorized_EN.txt	CHEESECAKE	Desserts	9	4	[0, 0, 0]	n/a	catFR1	2	R1476J
557.881	0.899	769502	WORD_OFF	n/a	n/a	CHEESECAKE	Desserts	9	4	[0, 0, 0]	n/a	catFR1	2	R1476J
558.78	1.601	770398	WORD	n/a	wordpools/wordpool_categorized_EN.txt	MOUSSE	Desserts	10	4	[0, 0, 0]	n/a	catFR1	2	R1476J
560.381	0.967	772005	WORD_OFF	n/a	n/a	MOUSSE	Desserts	10	4	[0, 0, 0]	n/a	catFR1	2	R1476J
561.348	1.617	772974	WORD	n/a	wordpools/wordpool_categorized_EN.txt	GLUE	OfficeSupplies	11	4	[0, 0, 0]	n/a	catFR1	2	R1476J
562.965	0.866	774588	WORD_OFF	n/a	n/a	GLUE	OfficeSupplies	11	4	[0, 0, 0]	n/a	catFR1	2	R1476J
563.831	1.616	775454	WORD	n/a	wordpools/wordpool_categorized_EN.txt	PAPER	OfficeSupplies	12	4	[0, 0, 0]	n/a	catFR1	2	R1476J
565.447	0.001	777068	WORD_OFF	n/a	n/a	PAPER	OfficeSupplies	12	4	[0, 0, 0]	n/a	catFR1	2	R1476J
565.448	0.0	777068	ENCODING_END	n/a	n/a	n/a	n/a	-999	4	[0, 0, 0]	n/a	catFR1	2	R1476J
565.448	0.0	777069	START	n/a	n/a	n/a	n/a	-999	4	[-999, -999, -999]	n/a	catFR1	2	R1476J
565.448	0.0	777069	PROB	0.0	n/a	n/a	n/a	-999	4	[3, 4, 2]	9	catFR1	2	R1476J
565.448	3.368	777076	DISTRACT_START	n/a	n/a	n/a	n/a	-999	4	[0, 0, 0]	n/a	catFR1	2	R1476J
568.816	5.616	780437	PROB	5.616	n/a	n/a	n/a	-999	4	[5, 4, 8]	17	catFR1	2	R1476J
574.432	3.517	786052	PROB	3.517	n/a	n/a	n/a	-999	4	[3, 5, 2]	10	catFR1	2	R1476J
577.949	3.583	789569	PROB	3.583	n/a	n/a	n/a	-999	4	[3, 8, 7]	18	catFR1	2	R1476J
581.532	3.583	793152	PROB	3.583	n/a	n/a	n/a	-999	4	[3, 2, 8]	13	catFR1	2	R1476J
585.115	2.515	796735	PROB	2.515	n/a	n/a	n/a	-999	4	[3, 1, 5]	9	catFR1	2	R1476J
587.63	0.0	799248	DISTRACT_END	n/a	n/a	n/a	n/a	-999	4	[0, 0, 0]	n/a	catFR1	2	R1476J
587.63	2.217	799250	STOP	n/a	n/a	n/a	n/a	-999	4	[-999, -999, -999]	n/a	catFR1	2	R1476J
589.847	1.9	801469	REC_START	n/a	n/a	n/a	n/a	-999	4	[0, 0, 0]	n/a	catFR1	2	R1476J
591.747	0.558	803367	REC_WORD_VV	0.558	n/a	<>	n/a	-999	4	[0, 0, 0]	n/a	catFR1	2	R1476J
592.305	0.565	803925	REC_WORD	0.565	n/a	GOAT	FarmAnimals	1	4	[0, 0, 0]	n/a	catFR1	2	R1476J
592.87	0.527	804490	REC_WORD	0.527	n/a	LAMB	FarmAnimals	2	4	[0, 0, 0]	n/a	catFR1	2	R1476J
593.397	0.767	805017	REC_WORD	0.767	n/a	FUDGE	Desserts	3	4	[0, 0, 0]	n/a	catFR1	2	R1476J
594.164	3.222	805783	REC_WORD	3.222	n/a	TAPE	OfficeSupplies	5	4	[0, 0, 0]	n/a	catFR1	2	R1476J
597.386	22.677	809005	REC_WORD_VV	22.677	n/a	<>	n/a	-999	4	[0, 0, 0]	n/a	catFR1	2	R1476J
620.063	3.351	831680	REC_END	n/a	n/a	n/a	n/a	-999	4	[0, 0, 0]	n/a	catFR1	2	R1476J
623.414	10.351	835034	COUNTDOWN_START	n/a	n/a	n/a	n/a	-999	5	[0, 0, 0]	n/a	catFR1	2	R1476J
633.765	0.0	845383	COUNTDOWN_END	n/a	n/a	n/a	n/a	-999	5	[0, 0, 0]	n/a	catFR1	2	R1476J
633.765	2.216	845383	ENCODING_START	n/a	n/a	n/a	n/a	-999	5	[0, 0, 0]	n/a	catFR1	2	R1476J
635.981	1.618	847596	WORD	n/a	wordpools/wordpool_categorized_EN.txt	CALF	FarmAnimals	1	5	[0, 0, 0]	n/a	catFR1	2	R1476J
637.599	0.916	849218	WORD_OFF	n/a	n/a	CALF	FarmAnimals	1	5	[0, 0, 0]	n/a	catFR1	2	R1476J
638.515	1.616	850136	WORD	n/a	wordpools/wordpool_categorized_EN.txt	COW	FarmAnimals	2	5	[0, 0, 0]	n/a	catFR1	2	R1476J
640.131	0.767	851750	WORD_OFF	n/a	n/a	COW	FarmAnimals	2	5	[0, 0, 0]	n/a	catFR1	2	R1476J
640.898	1.601	852519	WORD	n/a	wordpools/wordpool_categorized_EN.txt	HEAD	BodyParts	3	5	[0, 0, 0]	n/a	catFR1	2	R1476J
642.499	0.782	854118	WORD_OFF	n/a	n/a	HEAD	BodyParts	3	5	[0, 0, 0]	n/a	catFR1	2	R1476J
643.281	1.6	854896	WORD	n/a	wordpools/wordpool_categorized_EN.txt	FOOT	BodyParts	4	5	[0, 0, 0]	n/a	catFR1	2	R1476J
644.881	0.85	856502	WORD_OFF	n/a	n/a	FOOT	BodyParts	4	5	[0, 0, 0]	n/a	catFR1	2	R1476J
645.731	1.602	857346	WORD	n/a	wordpools/wordpool_categorized_EN.txt	WRENCH	Tools	5	5	[0, 0, 0]	n/a	catFR1	2	R1476J
647.333	0.814	858953	WORD_OFF	n/a	n/a	WRENCH	Tools	5	5	[0, 0, 0]	n/a	catFR1	2	R1476J
648.147	1.601	859767	WORD	n/a	wordpools/wordpool_categorized_EN.txt	SCREWDRIVER	Tools	6	5	[0, 0, 0]	n/a	catFR1	2	R1476J
649.748	0.95	861366	WORD_OFF	n/a	n/a	SCREWDRIVER	Tools	6	5	[0, 0, 0]	n/a	catFR1	2	R1476J
650.698	1.617	862314	WORD	n/a	wordpools/wordpool_categorized_EN.txt	BULL	FarmAnimals	7	5	[0, 0, 0]	n/a	catFR1	2	R1476J
652.315	0.817	863935	WORD_OFF	n/a	n/a	BULL	FarmAnimals	7	5	[0, 0, 0]	n/a	catFR1	2	R1476J
653.132	1.6	864749	WORD	n/a	wordpools/wordpool_categorized_EN.txt	HEN	FarmAnimals	8	5	[0, 0, 0]	n/a	catFR1	2	R1476J
654.732	0.915	866348	WORD_OFF	n/a	n/a	HEN	FarmAnimals	8	5	[0, 0, 0]	n/a	catFR1	2	R1476J
655.647	1.601	867266	WORD	n/a	wordpools/wordpool_categorized_EN.txt	FINGERS	BodyParts	9	5	[0, 0, 0]	n/a	catFR1	2	R1476J
657.248	0.884	868865	WORD_OFF	n/a	n/a	FINGERS	BodyParts	9	5	[0, 0, 0]	n/a	catFR1	2	R1476J
658.132	1.599	869746	WORD	n/a	wordpools/wordpool_categorized_EN.txt	NOSE	BodyParts	10	5	[0, 0, 0]	n/a	catFR1	2	R1476J
659.731	0.901	871353	WORD_OFF	n/a	n/a	NOSE	BodyParts	10	5	[0, 0, 0]	n/a	catFR1	2	R1476J
660.632	1.615	872248	WORD	n/a	wordpools/wordpool_categorized_EN.txt	LEVEL	Tools	11	5	[0, 0, 0]	n/a	catFR1	2	R1476J
662.247	0.817	873862	WORD_OFF	n/a	n/a	LEVEL	Tools	11	5	[0, 0, 0]	n/a	catFR1	2	R1476J
663.064	1.617	874684	WORD	n/a	wordpools/wordpool_categorized_EN.txt	SANDER	Tools	12	5	[0, 0, 0]	n/a	catFR1	2	R1476J
664.681	0.001	876298	WORD_OFF	n/a	n/a	SANDER	Tools	12	5	[0, 0, 0]	n/a	catFR1	2	R1476J
664.682	0.0	876298	ENCODING_END	n/a	n/a	n/a	n/a	-999	5	[0, 0, 0]	n/a	catFR1	2	R1476J
664.682	0.0	876299	START	n/a	n/a	n/a	n/a	-999	5	[-999, -999, -999]	n/a	catFR1	2	R1476J
664.682	0.0	876299	PROB	0.0	n/a	n/a	n/a	-999	5	[2, 3, 6]	11	catFR1	2	R1476J
664.682	3.817	876305	DISTRACT_START	n/a	n/a	n/a	n/a	-999	5	[0, 0, 0]	n/a	catFR1	2	R1476J
668.499	5.367	880115	PROB	5.367	n/a	n/a	n/a	-999	5	[5, 7, 4]	16	catFR1	2	R1476J
673.866	4.7	885482	PROB	4.7	n/a	n/a	n/a	-999	5	[7, 1, 5]	14	catFR1	2	R1476J
678.566	6.417	890182	PROB	6.417	n/a	n/a	n/a	-999	5	[7, 8, 1]	16	catFR1	2	R1476J
684.983	0.0	896597	DISTRACT_END	n/a	n/a	n/a	n/a	-999	5	[0, 0, 0]	n/a	catFR1	2	R1476J
684.983	2.4	896599	STOP	n/a	n/a	n/a	n/a	-999	5	[-999, -999, -999]	n/a	catFR1	2	R1476J
687.383	0.886	898996	REC_START	n/a	n/a	n/a	n/a	-999	5	[0, 0, 0]	n/a	catFR1	2	R1476J
688.269	0.556	899885	REC_WORD	0.556	n/a	COW	FarmAnimals	2	5	[0, 0, 0]	n/a	catFR1	2	R1476J
688.825	0.594	900441	REC_WORD	0.594	n/a	NOSE	BodyParts	10	5	[0, 0, 0]	n/a	catFR1	2	R1476J
689.419	0.482	901035	REC_WORD	0.482	n/a	HEAD	BodyParts	3	5	[0, 0, 0]	n/a	catFR1	2	R1476J
689.901	1.851	901517	REC_WORD	1.851	n/a	FOOT	BodyParts	4	5	[0, 0, 0]	n/a	catFR1	2	R1476J
691.752	1.566	903367	REC_WORD	1.566	n/a	SANDER	Tools	12	5	[0, 0, 0]	n/a	catFR1	2	R1476J
693.318	24.287	904933	REC_WORD	24.287	n/a	HEN	FarmAnimals	8	5	[0, 0, 0]	n/a	catFR1	2	R1476J
717.605	2.511	929222	REC_END	n/a	n/a	n/a	n/a	-999	5	[0, 0, 0]	n/a	catFR1	2	R1476J
720.116	10.349	931731	COUNTDOWN_START	n/a	n/a	n/a	n/a	-999	6	[0, 0, 0]	n/a	catFR1	2	R1476J
730.465	0.0	942081	COUNTDOWN_END	n/a	n/a	n/a	n/a	-999	6	[0, 0, 0]	n/a	catFR1	2	R1476J
730.465	1.983	942081	ENCODING_START	n/a	n/a	n/a	n/a	-999	6	[0, 0, 0]	n/a	catFR1	2	R1476J
732.448	1.601	944065	WORD	n/a	wordpools/wordpool_categorized_EN.txt	NYLON	Fabric	1	6	[0, 0, 0]	n/a	catFR1	2	R1476J
734.049	0.916	945664	WORD_OFF	n/a	n/a	NYLON	Fabric	1	6	[0, 0, 0]	n/a	catFR1	2	R1476J
734.965	1.6	946582	WORD	n/a	wordpools/wordpool_categorized_EN.txt	SILK	Fabric	2	6	[0, 0, 0]	n/a	catFR1	2	R1476J
736.565	0.817	948181	WORD_OFF	n/a	n/a	SILK	Fabric	2	6	[0, 0, 0]	n/a	catFR1	2	R1476J
737.382	1.617	948995	WORD	n/a	wordpools/wordpool_categorized_EN.txt	HURRICANE	Weather	3	6	[0, 0, 0]	n/a	catFR1	2	R1476J
738.999	0.766	950616	WORD_OFF	n/a	n/a	HURRICANE	Weather	3	6	[0, 0, 0]	n/a	catFR1	2	R1476J
739.765	1.617	951379	WORD	n/a	wordpools/wordpool_categorized_EN.txt	TORNADO	Weather	4	6	[0, 0, 0]	n/a	catFR1	2	R1476J
741.382	0.884	952993	WORD_OFF	n/a	n/a	TORNADO	Weather	4	6	[0, 0, 0]	n/a	catFR1	2	R1476J
742.266	1.6	953881	WORD	n/a	wordpools/wordpool_categorized_EN.txt	PIE	Desserts	5	6	[0, 0, 0]	n/a	catFR1	2	R1476J
743.866	0.898	955480	WORD_OFF	n/a	n/a	PIE	Desserts	5	6	[0, 0, 0]	n/a	catFR1	2	R1476J
744.764	1.601	956376	WORD	n/a	wordpools/wordpool_categorized_EN.txt	CUPCAKE	Desserts	6	6	[0, 0, 0]	n/a	catFR1	2	R1476J
746.365	0.8	957975	WORD_OFF	n/a	n/a	CUPCAKE	Desserts	6	6	[0, 0, 0]	n/a	catFR1	2	R1476J
747.165	1.6	958782	WORD	n/a	wordpools/wordpool_categorized_EN.txt	WIND	Weather	7	6	[0, 0, 0]	n/a	catFR1	2	R1476J
748.765	0.967	960381	WORD_OFF	n/a	n/a	WIND	Weather	7	6	[0, 0, 0]	n/a	catFR1	2	R1476J
749.732	1.616	961343	WORD	n/a	wordpools/wordpool_categorized_EN.txt	LIGHTNING	Weather	8	6	[0, 0, 0]	n/a	catFR1	2	R1476J
751.348	0.95	962965	WORD_OFF	n/a	n/a	LIGHTNING	Weather	8	6	[0, 0, 0]	n/a	catFR1	2	R1476J
752.298	1.6	963912	WORD	n/a	wordpools/wordpool_categorized_EN.txt	COBBLER	Desserts	9	6	[0, 0, 0]	n/a	catFR1	2	R1476J
753.898	0.767	965511	WORD_OFF	n/a	n/a	COBBLER	Desserts	9	6	[0, 0, 0]	n/a	catFR1	2	R1476J
754.665	1.616	966281	WORD	n/a	wordpools/wordpool_categorized_EN.txt	BROWNIES	Desserts	10	6	[0, 0, 0]	n/a	catFR1	2	R1476J
756.281	0.834	967895	WORD_OFF	n/a	n/a	BROWNIES	Desserts	10	6	[0, 0, 0]	n/a	catFR1	2	R1476J
757.115	1.616	968731	WORD	n/a	wordpools/wordpool_categorized_EN.txt	LEATHER	Fabric	11	6	[0, 0, 0]	n/a	catFR1	2	R1476J
758.731	0.834	970345	WORD_OFF	n/a	n/a	LEATHER	Fabric	11	6	[0, 0, 0]	n/a	catFR1	2	R1476J
759.565	1.616	971174	WORD	n/a	wordpools/wordpool_categorized_EN.txt	SUEDE	Fabric	12	6	[0, 0, 0]	n/a	catFR1	2	R1476J
761.181	0.0	972794	PROB	0.0	n/a	n/a	n/a	-999	6	[5, 6, 6]	17	catFR1	2	R1476J
761.18	0.003	972796	WORD_OFF	n/a	n/a	SUEDE	Fabric	12	6	[0, 0, 0]	n/a	catFR1	2	R1476J
761.183	0.0	972796	ENCODING_END	n/a	n/a	n/a	n/a	-999	6	[0, 0, 0]	n/a	catFR1	2	R1476J
761.183	0.0	972796	DISTRACT_START	n/a	n/a	n/a	n/a	-999	6	[0, 0, 0]	n/a	catFR1	2	R1476J
761.183	4.883	972796	START	n/a	n/a	n/a	n/a	-999	6	[-999, -999, -999]	n/a	catFR1	2	R1476J
766.066	4.365	977678	PROB	4.365	n/a	n/a	n/a	-999	6	[5, 3, 8]	16	catFR1	2	R1476J
770.431	8.501	982043	PROB	8.501	n/a	n/a	n/a	-999	6	[4, 3, 5]	12	catFR1	2	R1476J
778.932	3.683	990544	PROB	3.683	n/a	n/a	n/a	-999	6	[7, 6, 4]	17	catFR1	2	R1476J
782.615	0.0	994227	DISTRACT_END	n/a	n/a	n/a	n/a	-999	6	[0, 0, 0]	n/a	catFR1	2	R1476J
782.615	2.049	994227	STOP	n/a	n/a	n/a	n/a	-999	6	[-999, -999, -999]	n/a	catFR1	2	R1476J
784.664	0.811	996279	REC_START	n/a	n/a	n/a	n/a	-999	6	[0, 0, 0]	n/a	catFR1	2	R1476J
785.475	1.409	997087	REC_WORD	1.409	n/a	HURRICANE	Weather	3	6	[0, 0, 0]	n/a	catFR1	2	R1476J
786.884	2.41	998495	REC_WORD	2.41	n/a	COBBLER	Desserts	9	6	[0, 0, 0]	n/a	catFR1	2	R1476J
789.294	2.242	1000905	REC_WORD	2.242	n/a	HEN	FarmAnimals	-999	6	[0, 0, 0]	n/a	catFR1	2	R1476J
791.536	14.383	1003147	REC_WORD_VV	14.383	n/a	<>	n/a	-999	6	[0, 0, 0]	n/a	catFR1	2	R1476J
805.919	8.961	1017530	REC_WORD_VV	8.961	n/a	<>	n/a	-999	6	[0, 0, 0]	n/a	catFR1	2	R1476J
814.88	2.668	1026490	REC_END	n/a	n/a	n/a	n/a	-999	6	[0, 0, 0]	n/a	catFR1	2	R1476J
817.548	10.35	1029162	COUNTDOWN_START	n/a	n/a	n/a	n/a	-999	7	[0, 0, 0]	n/a	catFR1	2	R1476J
827.898	0.0	1039511	COUNTDOWN_END	n/a	n/a	n/a	n/a	-999	7	[0, 0, 0]	n/a	catFR1	2	R1476J
827.898	1.85	1039511	ENCODING_START	n/a	n/a	n/a	n/a	-999	7	[0, 0, 0]	n/a	catFR1	2	R1476J
829.748	1.6	1041362	WORD	n/a	wordpools/wordpool_categorized_EN.txt	CYPRESS	Trees	1	7	[0, 0, 0]	n/a	catFR1	2	R1476J
831.348	0.9	1042961	WORD_OFF	n/a	n/a	CYPRESS	Trees	1	7	[0, 0, 0]	n/a	catFR1	2	R1476J
832.248	1.617	1043857	WORD	n/a	wordpools/wordpool_categorized_EN.txt	WALNUT	Trees	2	7	[0, 0, 0]	n/a	catFR1	2	R1476J
833.865	0.833	1045478	WORD_OFF	n/a	n/a	WALNUT	Trees	2	7	[0, 0, 0]	n/a	catFR1	2	R1476J
834.698	1.6	1046307	WORD	n/a	wordpools/wordpool_categorized_EN.txt	NOTEBOOK	OfficeSupplies	3	7	[0, 0, 0]	n/a	catFR1	2	R1476J
836.298	0.883	1047906	WORD_OFF	n/a	n/a	NOTEBOOK	OfficeSupplies	3	7	[0, 0, 0]	n/a	catFR1	2	R1476J
837.181	1.6	1048787	WORD	n/a	wordpools/wordpool_categorized_EN.txt	STAPLER	OfficeSupplies	4	7	[0, 0, 0]	n/a	catFR1	2	R1476J
838.781	0.984	1050394	WORD_OFF	n/a	n/a	STAPLER	OfficeSupplies	4	7	[0, 0, 0]	n/a	catFR1	2	R1476J
839.765	1.599	1051371	WORD	n/a	wordpools/wordpool_categorized_EN.txt	SPOON	KitchenTools	5	7	[0, 0, 0]	n/a	catFR1	2	R1476J
841.364	0.784	1052977	WORD_OFF	n/a	n/a	SPOON	KitchenTools	5	7	[0, 0, 0]	n/a	catFR1	2	R1476J
842.148	1.6	1053755	WORD	n/a	wordpools/wordpool_categorized_EN.txt	COLANDER	KitchenTools	6	7	[0, 0, 0]	n/a	catFR1	2	R1476J
843.748	0.817	1055354	WORD_OFF	n/a	n/a	COLANDER	KitchenTools	6	7	[0, 0, 0]	n/a	catFR1	2	R1476J
844.565	1.6	1056175	WORD	n/a	wordpools/wordpool_categorized_EN.txt	RULER	OfficeSupplies	7	7	[0, 0, 0]	n/a	catFR1	2	R1476J
846.165	0.85	1057775	WORD_OFF	n/a	n/a	RULER	OfficeSupplies	7	7	[0, 0, 0]	n/a	catFR1	2	R1476J
847.015	1.6	1058626	WORD	n/a	wordpools/wordpool_categorized_EN.txt	PEN	OfficeSupplies	8	7	[0, 0, 0]	n/a	catFR1	2	R1476J
848.615	0.917	1060225	WORD_OFF	n/a	n/a	PEN	OfficeSupplies	8	7	[0, 0, 0]	n/a	catFR1	2	R1476J
849.532	1.616	1061143	WORD	n/a	wordpools/wordpool_categorized_EN.txt	SPRUCE	Trees	9	7	[0, 0, 0]	n/a	catFR1	2	R1476J
851.148	0.951	1062757	WORD_OFF	n/a	n/a	SPRUCE	Trees	9	7	[0, 0, 0]	n/a	catFR1	2	R1476J
852.099	1.616	1063712	WORD	n/a	wordpools/wordpool_categorized_EN.txt	HICKORY	Trees	10	7	[0, 0, 0]	n/a	catFR1	2	R1476J
853.715	0.899	1065326	WORD_OFF	n/a	n/a	HICKORY	Trees	10	7	[0, 0, 0]	n/a	catFR1	2	R1476J
854.614	1.6	1066221	WORD	n/a	wordpools/wordpool_categorized_EN.txt	TONGS	KitchenTools	11	7	[0, 0, 0]	n/a	catFR1	2	R1476J
856.214	0.767	1067820	WORD_OFF	n/a	n/a	TONGS	KitchenTools	11	7	[0, 0, 0]	n/a	catFR1	2	R1476J
856.981	1.601	1068590	WORD	n/a	wordpools/wordpool_categorized_EN.txt	CORKSCREW	KitchenTools	12	7	[0, 0, 0]	n/a	catFR1	2	R1476J
858.582	0.0	1070189	WORD_OFF	n/a	n/a	CORKSCREW	KitchenTools	12	7	[0, 0, 0]	n/a	catFR1	2	R1476J
858.582	0.003	1070190	PROB	0.003	n/a	n/a	n/a	-999	7	[2, 1, 7]	10	catFR1	2	R1476J
858.585	0.0	1070193	START	n/a	n/a	n/a	n/a	-999	7	[-999, -999, -999]	n/a	catFR1	2	R1476J
858.585	0.0	1070197	ENCODING_END	n/a	n/a	n/a	n/a	-999	7	[0, 0, 0]	n/a	catFR1	2	R1476J
858.585	6.196	1070197	DISTRACT_START	n/a	n/a	n/a	n/a	-999	7	[0, 0, 0]	n/a	catFR1	2	R1476J
864.781	3.6	1076389	PROB	3.6	n/a	n/a	n/a	-999	7	[5, 7, 7]	19	catFR1	2	R1476J
868.381	4.668	1079989	PROB	4.668	n/a	n/a	n/a	-999	7	[6, 5, 4]	16	catFR1	2	R1476J
873.049	2.983	1084657	PROB	2.983	n/a	n/a	n/a	-999	7	[3, 7, 3]	13	catFR1	2	R1476J
876.032	4.283	1087640	PROB	4.283	n/a	n/a	n/a	-999	7	[1, 2, 5]	8	catFR1	2	R1476J
880.315	0.0	1091923	STOP	n/a	n/a	n/a	n/a	-999	7	[-999, -999, -999]	n/a	catFR1	2	R1476J
880.315	2.283	1091924	DISTRACT_END	n/a	n/a	n/a	n/a	-999	7	[0, 0, 0]	n/a	catFR1	2	R1476J
882.598	0.562	1094205	REC_START	n/a	n/a	n/a	n/a	-999	7	[0, 0, 0]	n/a	catFR1	2	R1476J
883.16	0.748	1094767	REC_WORD	0.748	n/a	HICKORY	Trees	10	7	[0, 0, 0]	n/a	catFR1	2	R1476J
883.908	0.82	1095515	REC_WORD	0.82	n/a	SPRUCE	Trees	9	7	[0, 0, 0]	n/a	catFR1	2	R1476J
884.728	0.843	1096335	REC_WORD	0.843	n/a	MAPLE	n/a	-999	7	[0, 0, 0]	n/a	catFR1	2	R1476J
885.571	27.244	1097178	REC_WORD	27.244	n/a	COLANDER	KitchenTools	6	7	[0, 0, 0]	n/a	catFR1	2	R1476J
912.815	1.567	1124424	REC_END	n/a	n/a	n/a	n/a	-999	7	[0, 0, 0]	n/a	catFR1	2	R1476J
914.382	10.35	1125986	COUNTDOWN_START	n/a	n/a	n/a	n/a	-999	8	[0, 0, 0]	n/a	catFR1	2	R1476J
924.732	0.0	1136335	COUNTDOWN_END	n/a	n/a	n/a	n/a	-999	8	[0, 0, 0]	n/a	catFR1	2	R1476J
924.732	2.117	1136342	ENCODING_START	n/a	n/a	n/a	n/a	-999	8	[0, 0, 0]	n/a	catFR1	2	R1476J
926.849	1.616	1138452	WORD	n/a	wordpools/wordpool_categorized_EN.txt	SPATULA	KitchenTools	1	8	[0, 0, 0]	n/a	catFR1	2	R1476J
928.465	0.85	1140073	WORD_OFF	n/a	n/a	SPATULA	KitchenTools	1	8	[0, 0, 0]	n/a	catFR1	2	R1476J
929.315	1.616	1140925	WORD	n/a	wordpools/wordpool_categorized_EN.txt	STRAINER	KitchenTools	2	8	[0, 0, 0]	n/a	catFR1	2	R1476J
930.931	0.783	1142539	WORD_OFF	n/a	n/a	STRAINER	KitchenTools	2	8	[0, 0, 0]	n/a	catFR1	2	R1476J
931.714	1.602	1143323	WORD	n/a	wordpools/wordpool_categorized_EN.txt	COFFEE	Beverages	3	8	[0, 0, 0]	n/a	catFR1	2	R1476J
933.316	0.982	1144922	WORD_OFF	n/a	n/a	COFFEE	Beverages	3	8	[0, 0, 0]	n/a	catFR1	2	R1476J
934.298	1.601	1145907	WORD	n/a	wordpools/wordpool_categorized_EN.txt	LEMONADE	Beverages	4	8	[0, 0, 0]	n/a	catFR1	2	R1476J
935.899	0.833	1147506	WORD_OFF	n/a	n/a	LEMONADE	Beverages	4	8	[0, 0, 0]	n/a	catFR1	2	R1476J
936.732	1.615	1148335	WORD	n/a	wordpools/wordpool_categorized_EN.txt	VELVET	Fabric	5	8	[0, 0, 0]	n/a	catFR1	2	R1476J
938.347	0.767	1149956	WORD_OFF	n/a	n/a	VELVET	Fabric	5	8	[0, 0, 0]	n/a	catFR1	2	R1476J
939.114	1.601	1150719	WORD	n/a	wordpools/wordpool_categorized_EN.txt	SATIN	Fabric	6	8	[0, 0, 0]	n/a	catFR1	2	R1476J
940.715	0.9	1152318	WORD_OFF	n/a	n/a	SATIN	Fabric	6	8	[0, 0, 0]	n/a	catFR1	2	R1476J
941.615	1.616	1153221	WORD	n/a	wordpools/wordpool_categorized_EN.txt	GRATER	KitchenTools	7	8	[0, 0, 0]	n/a	catFR1	2	R1476J
943.231	0.984	1154835	WORD_OFF	n/a	n/a	GRATER	KitchenTools	7	8	[0, 0, 0]	n/a	catFR1	2	R1476J
944.215	1.6	1155820	WORD	n/a	wordpools/wordpool_categorized_EN.txt	FORK	KitchenTools	8	8	[0, 0, 0]	n/a	catFR1	2	R1476J
945.815	0.95	1157419	WORD_OFF	n/a	n/a	FORK	KitchenTools	8	8	[0, 0, 0]	n/a	catFR1	2	R1476J
946.765	1.6	1158374	WORD	n/a	wordpools/wordpool_categorized_EN.txt	WOOL	Fabric	9	8	[0, 0, 0]	n/a	catFR1	2	R1476J
948.365	0.767	1159973	WORD_OFF	n/a	n/a	WOOL	Fabric	9	8	[0, 0, 0]	n/a	catFR1	2	R1476J
949.132	1.615	1160735	WORD	n/a	wordpools/wordpool_categorized_EN.txt	SPANDEX	Fabric	10	8	[0, 0, 0]	n/a	catFR1	2	R1476J
950.747	0.951	1162349	WORD_OFF	n/a	n/a	SPANDEX	Fabric	10	8	[0, 0, 0]	n/a	catFR1	2	R1476J
951.698	1.616	1163304	WORD	n/a	wordpools/wordpool_categorized_EN.txt	WINE	Beverages	11	8	[0, 0, 0]	n/a	catFR1	2	R1476J
953.314	0.9	1164918	WORD_OFF	n/a	n/a	WINE	Beverages	11	8	[0, 0, 0]	n/a	catFR1	2	R1476J
954.214	1.601	1165821	WORD	n/a	wordpools/wordpool_categorized_EN.txt	WATER	Beverages	12	8	[0, 0, 0]	n/a	catFR1	2	R1476J
955.815	0.0	1167419	PROB	0.0	n/a	n/a	n/a	-999	8	[7, 4, 2]	13	catFR1	2	R1476J
955.815	0.003	1167420	WORD_OFF	n/a	n/a	WATER	Beverages	12	8	[0, 0, 0]	n/a	catFR1	2	R1476J
955.818	0.0	1167420	ENCODING_END	n/a	n/a	n/a	n/a	-999	8	[0, 0, 0]	n/a	catFR1	2	R1476J
955.818	0.0	1167420	DISTRACT_START	n/a	n/a	n/a	n/a	-999	8	[0, 0, 0]	n/a	catFR1	2	R1476J
955.818	7.098	1167422	START	n/a	n/a	n/a	n/a	-999	8	[-999, -999, -999]	n/a	catFR1	2	R1476J
962.916	4.3	1174520	PROB	4.3	n/a	n/a	n/a	-999	8	[5, 1, 8]	14	catFR1	2	R1476J
967.216	3.166	1178820	PROB	3.166	n/a	n/a	n/a	-999	8	[8, 5, 5]	18	catFR1	2	R1476J
970.382	3.55	1181986	PROB	3.55	n/a	n/a	n/a	-999	8	[5, 4, 5]	14	catFR1	2	R1476J
973.932	4.448	1185536	PROB	4.448	n/a	n/a	n/a	-999	8	[2, 7, 2]	11	catFR1	2	R1476J
978.38	0.0	1189983	STOP	n/a	n/a	n/a	n/a	-999	8	[-999, -999, -999]	n/a	catFR1	2	R1476J
978.38	2.068	1189984	DISTRACT_END	n/a	n/a	n/a	n/a	-999	8	[0, 0, 0]	n/a	catFR1	2	R1476J
980.448	0.718	1192050	REC_START	n/a	n/a	n/a	n/a	-999	8	[0, 0, 0]	n/a	catFR1	2	R1476J
981.166	2.323	1192769	REC_WORD	2.323	n/a	WATER	Beverages	12	8	[0, 0, 0]	n/a	catFR1	2	R1476J
983.489	0.861	1195092	REC_WORD	0.861	n/a	WINE	Beverages	11	8	[0, 0, 0]	n/a	catFR1	2	R1476J
984.35	0.887	1195953	REC_WORD	0.887	n/a	SPATULA	KitchenTools	1	8	[0, 0, 0]	n/a	catFR1	2	R1476J
985.237	6.991	1196840	REC_WORD	6.991	n/a	SPRUCE	Trees	-999	8	[0, 0, 0]	n/a	catFR1	2	R1476J
992.228	18.45	1203831	REC_WORD	18.45	n/a	LEMONADE	Beverages	4	8	[0, 0, 0]	n/a	catFR1	2	R1476J
1010.678	19.57	1222284	REC_END	n/a	n/a	n/a	n/a	-999	8	[0, 0, 0]	n/a	catFR1	2	R1476J
1030.248	10.349	1241850	COUNTDOWN_START	n/a	n/a	n/a	n/a	-999	9	[0, 0, 0]	n/a	catFR1	2	R1476J
1040.597	0.0	1252199	COUNTDOWN_END	n/a	n/a	n/a	n/a	-999	9	[0, 0, 0]	n/a	catFR1	2	R1476J
1040.597	2.068	1252199	ENCODING_START	n/a	n/a	n/a	n/a	-999	9	[0, 0, 0]	n/a	catFR1	2	R1476J
1042.665	1.601	1254264	WORD	n/a	wordpools/wordpool_categorized_EN.txt	VAN	Vehicles	1	9	[0, 0, 0]	n/a	catFR1	2	R1476J
1044.266	0.782	1255864	WORD_OFF	n/a	n/a	VAN	Vehicles	1	9	[0, 0, 0]	n/a	catFR1	2	R1476J
1045.048	1.616	1256648	WORD	n/a	wordpools/wordpool_categorized_EN.txt	BIKE	Vehicles	2	9	[0, 0, 0]	n/a	catFR1	2	R1476J
1046.664	0.768	1258262	WORD_OFF	n/a	n/a	BIKE	Vehicles	2	9	[0, 0, 0]	n/a	catFR1	2	R1476J
1047.432	1.616	1259032	WORD	n/a	wordpools/wordpool_categorized_EN.txt	BLENDER	Appliances	3	9	[0, 0, 0]	n/a	catFR1	2	R1476J
1049.048	0.816	1260646	WORD_OFF	n/a	n/a	BLENDER	Appliances	3	9	[0, 0, 0]	n/a	catFR1	2	R1476J
1049.864	1.6	1261468	WORD	n/a	wordpools/wordpool_categorized_EN.txt	TOASTER	Appliances	4	9	[0, 0, 0]	n/a	catFR1	2	R1476J
1051.464	0.918	1263067	WORD_OFF	n/a	n/a	TOASTER	Appliances	4	9	[0, 0, 0]	n/a	catFR1	2	R1476J
1052.382	1.615	1263985	WORD	n/a	wordpools/wordpool_categorized_EN.txt	HALLWAY	Building	5	9	[0, 0, 0]	n/a	catFR1	2	R1476J
1053.997	0.967	1265598	WORD_OFF	n/a	n/a	HALLWAY	Building	5	9	[0, 0, 0]	n/a	catFR1	2	R1476J
1054.964	1.601	1266561	WORD	n/a	wordpools/wordpool_categorized_EN.txt	STAIRS	Building	6	9	[0, 0, 0]	n/a	catFR1	2	R1476J
1056.565	0.784	1268167	WORD_OFF	n/a	n/a	STAIRS	Building	6	9	[0, 0, 0]	n/a	catFR1	2	R1476J
1057.349	1.615	1268952	WORD	n/a	wordpools/wordpool_categorized_EN.txt	TRAIN	Vehicles	7	9	[0, 0, 0]	n/a	catFR1	2	R1476J
1058.964	0.984	1270566	WORD_OFF	n/a	n/a	TRAIN	Vehicles	7	9	[0, 0, 0]	n/a	catFR1	2	R1476J
1059.948	1.616	1271550	WORD	n/a	wordpools/wordpool_categorized_EN.txt	JEEP	Vehicles	8	9	[0, 0, 0]	n/a	catFR1	2	R1476J
1061.564	0.867	1273164	WORD_OFF	n/a	n/a	JEEP	Vehicles	8	9	[0, 0, 0]	n/a	catFR1	2	R1476J
1062.431	1.6	1274030	WORD	n/a	wordpools/wordpool_categorized_EN.txt	FOUNDATION	Building	9	9	[0, 0, 0]	n/a	catFR1	2	R1476J
1064.031	0.934	1275629	WORD_OFF	n/a	n/a	FOUNDATION	Building	9	9	[0, 0, 0]	n/a	catFR1	2	R1476J
1064.965	1.6	1276562	WORD	n/a	wordpools/wordpool_categorized_EN.txt	BATHROOM	Building	10	9	[0, 0, 0]	n/a	catFR1	2	R1476J
1066.565	0.865	1278169	WORD_OFF	n/a	n/a	BATHROOM	Building	10	9	[0, 0, 0]	n/a	catFR1	2	R1476J
1067.43	1.601	1279027	WORD	n/a	wordpools/wordpool_categorized_EN.txt	DRYER	Appliances	11	9	[0, 0, 0]	n/a	catFR1	2	R1476J
1069.031	0.95	1280634	WORD_OFF	n/a	n/a	DRYER	Appliances	11	9	[0, 0, 0]	n/a	catFR1	2	R1476J
1069.981	1.617	1281581	WORD	n/a	wordpools/wordpool_categorized_EN.txt	DISHWASHER	Appliances	12	9	[0, 0, 0]	n/a	catFR1	2	R1476J
1071.598	0.001	1283195	WORD_OFF	n/a	n/a	DISHWASHER	Appliances	12	9	[0, 0, 0]	n/a	catFR1	2	R1476J
1071.599	0.0	1283199	START	n/a	n/a	n/a	n/a	-999	9	[-999, -999, -999]	n/a	catFR1	2	R1476J
1071.599	0.0	1283199	PROB	0.0	n/a	n/a	n/a	-999	9	[6, 4, 1]	11	catFR1	2	R1476J
1071.599	0.0	1283203	ENCODING_END	n/a	n/a	n/a	n/a	-999	9	[0, 0, 0]	n/a	catFR1	2	R1476J
1071.599	4.3	1283203	DISTRACT_START	n/a	n/a	n/a	n/a	-999	9	[0, 0, 0]	n/a	catFR1	2	R1476J
1075.899	3.749	1287498	PROB	3.749	n/a	n/a	n/a	-999	9	[6, 6, 4]	16	catFR1	2	R1476J
1079.648	3.75	1291247	PROB	3.75	n/a	n/a	n/a	-999	9	[8, 6, 8]	22	catFR1	2	R1476J
1083.398	5.917	1294997	PROB	5.917	n/a	n/a	n/a	-999	9	[1, 3, 8]	12	catFR1	2	R1476J
1089.315	4.916	1300914	PROB	4.916	n/a	n/a	n/a	-999	9	[3, 5, 4]	12	catFR1	2	R1476J
1094.231	0.0	1305826	DISTRACT_END	n/a	n/a	n/a	n/a	-999	9	[0, 0, 0]	n/a	catFR1	2	R1476J
1094.231	2.066	1305830	STOP	n/a	n/a	n/a	n/a	-999	9	[-999, -999, -999]	n/a	catFR1	2	R1476J
1096.297	1.088	1307900	REC_START	n/a	n/a	n/a	n/a	-999	9	[0, 0, 0]	n/a	catFR1	2	R1476J
1097.385	1.474	1308984	REC_WORD	1.474	n/a	HALLWAY	Building	5	9	[0, 0, 0]	n/a	catFR1	2	R1476J
1098.859	0.582	1310457	REC_WORD	0.582	n/a	VAN	Vehicles	1	9	[0, 0, 0]	n/a	catFR1	2	R1476J
1099.441	0.862	1311039	REC_WORD	0.862	n/a	DRYER	Appliances	11	9	[0, 0, 0]	n/a	catFR1	2	R1476J
1100.303	1.571	1311901	REC_WORD	1.571	n/a	DISHWASHER	Appliances	12	9	[0, 0, 0]	n/a	catFR1	2	R1476J
1101.874	4.409	1313472	REC_WORD	4.409	n/a	STAIRS	Building	6	9	[0, 0, 0]	n/a	catFR1	2	R1476J
1106.283	6.135	1317881	REC_WORD_VV	6.135	n/a	<>	n/a	-999	9	[0, 0, 0]	n/a	catFR1	2	R1476J
1112.418	1.345	1324016	REC_WORD_VV	1.345	n/a	<>	n/a	-999	9	[0, 0, 0]	n/a	catFR1	2	R1476J
1113.763	12.746	1325361	REC_WORD_VV	12.746	n/a	<>	n/a	-999	9	[0, 0, 0]	n/a	catFR1	2	R1476J
1126.509	8.639	1338103	REC_END	n/a	n/a	n/a	n/a	-999	9	[0, 0, 0]	n/a	catFR1	2	R1476J
1135.148	10.35	1346750	COUNTDOWN_START	n/a	n/a	n/a	n/a	-999	10	[0, 0, 0]	n/a	catFR1	2	R1476J
1145.498	0.0	1357092	COUNTDOWN_END	n/a	n/a	n/a	n/a	-999	10	[0, 0, 0]	n/a	catFR1	2	R1476J
1145.498	2.066	1357099	ENCODING_START	n/a	n/a	n/a	n/a	-999	10	[0, 0, 0]	n/a	catFR1	2	R1476J
1147.564	1.6	1359157	WORD	n/a	wordpools/wordpool_categorized_EN.txt	LINEN	Fabric	1	10	[0, 0, 0]	n/a	catFR1	2	R1476J
1149.164	0.984	1360764	WORD_OFF	n/a	n/a	LINEN	Fabric	1	10	[0, 0, 0]	n/a	catFR1	2	R1476J
1150.148	1.599	1361748	WORD	n/a	wordpools/wordpool_categorized_EN.txt	COTTON	Fabric	2	10	[0, 0, 0]	n/a	catFR1	2	R1476J
1151.747	0.818	1363347	WORD_OFF	n/a	n/a	COTTON	Fabric	2	10	[0, 0, 0]	n/a	catFR1	2	R1476J
1152.565	1.615	1364162	WORD	n/a	wordpools/wordpool_categorized_EN.txt	BEAR	Zoo	3	10	[0, 0, 0]	n/a	catFR1	2	R1476J
1154.18	0.952	1365776	WORD_OFF	n/a	n/a	BEAR	Zoo	3	10	[0, 0, 0]	n/a	catFR1	2	R1476J
1155.132	1.616	1366731	WORD	n/a	wordpools/wordpool_categorized_EN.txt	LION	Zoo	4	10	[0, 0, 0]	n/a	catFR1	2	R1476J
1156.748	0.85	1368344	WORD_OFF	n/a	n/a	LION	Zoo	4	10	[0, 0, 0]	n/a	catFR1	2	R1476J
1157.598	1.6	1369196	WORD	n/a	wordpools/wordpool_categorized_EN.txt	SPARROW	Birds	5	10	[0, 0, 0]	n/a	catFR1	2	R1476J
1159.198	0.933	1370795	WORD_OFF	n/a	n/a	SPARROW	Birds	5	10	[0, 0, 0]	n/a	catFR1	2	R1476J
1160.131	1.6	1371728	WORD	n/a	wordpools/wordpool_categorized_EN.txt	ROBIN	Birds	6	10	[0, 0, 0]	n/a	catFR1	2	R1476J
1161.731	0.984	1373327	WORD_OFF	n/a	n/a	ROBIN	Birds	6	10	[0, 0, 0]	n/a	catFR1	2	R1476J
1162.715	1.615	1374311	WORD	n/a	wordpools/wordpool_categorized_EN.txt	DENIM	Fabric	7	10	[0, 0, 0]	n/a	catFR1	2	R1476J
1164.33	0.951	1375925	WORD_OFF	n/a	n/a	DENIM	Fabric	7	10	[0, 0, 0]	n/a	catFR1	2	R1476J
1165.281	1.6	1376880	WORD	n/a	wordpools/wordpool_categorized_EN.txt	FLEECE	Fabric	8	10	[0, 0, 0]	n/a	catFR1	2	R1476J
1166.881	0.983	1378479	WORD_OFF	n/a	n/a	FLEECE	Fabric	8	10	[0, 0, 0]	n/a	catFR1	2	R1476J
1167.864	1.617	1379458	WORD	n/a	wordpools/wordpool_categorized_EN.txt	GOOSE	Birds	9	10	[0, 0, 0]	n/a	catFR1	2	R1476J
1169.481	0.933	1381078	WORD_OFF	n/a	n/a	GOOSE	Birds	9	10	[0, 0, 0]	n/a	catFR1	2	R1476J
1170.414	1.601	1382010	WORD	n/a	wordpools/wordpool_categorized_EN.txt	CARDINAL	Birds	10	10	[0, 0, 0]	n/a	catFR1	2	R1476J
1172.015	0.899	1383609	WORD_OFF	n/a	n/a	CARDINAL	Birds	10	10	[0, 0, 0]	n/a	catFR1	2	R1476J
1172.914	1.601	1384512	WORD	n/a	wordpools/wordpool_categorized_EN.txt	CHEETAH	Zoo	11	10	[0, 0, 0]	n/a	catFR1	2	R1476J
1174.515	0.899	1386112	WORD_OFF	n/a	n/a	CHEETAH	Zoo	11	10	[0, 0, 0]	n/a	catFR1	2	R1476J
1175.414	1.618	1387007	WORD	n/a	wordpools/wordpool_categorized_EN.txt	MONKEY	Zoo	12	10	[0, 0, 0]	n/a	catFR1	2	R1476J
1177.032	0.0	1388627	START	n/a	n/a	n/a	n/a	-999	10	[-999, -999, -999]	n/a	catFR1	2	R1476J
1177.032	0.0	1388627	PROB	0.0	n/a	n/a	n/a	-999	10	[4, 3, 1]	8	catFR1	2	R1476J
1177.031	0.001	1388629	WORD_OFF	n/a	n/a	MONKEY	Zoo	12	10	[0, 0, 0]	n/a	catFR1	2	R1476J
1177.032	0.0	1388629	ENCODING_END	n/a	n/a	n/a	n/a	-999	10	[0, 0, 0]	n/a	catFR1	2	R1476J
1177.032	3.468	1388629	DISTRACT_START	n/a	n/a	n/a	n/a	-999	10	[0, 0, 0]	n/a	catFR1	2	R1476J
1180.5	5.065	1392095	PROB	5.065	n/a	n/a	n/a	-999	10	[7, 6, 5]	18	catFR1	2	R1476J
1185.565	4.95	1397160	PROB	4.95	n/a	n/a	n/a	-999	10	[2, 6, 7]	15	catFR1	2	R1476J
1190.515	3.617	1402110	PROB	3.617	n/a	n/a	n/a	-999	10	[2, 3, 8]	13	catFR1	2	R1476J
1194.132	3.615	1405726	PROB	3.615	n/a	n/a	n/a	-999	10	[2, 4, 6]	12	catFR1	2	R1476J
1197.747	0.0	1409341	STOP	n/a	n/a	n/a	n/a	-999	10	[-999, -999, -999]	n/a	catFR1	2	R1476J
1197.747	2.25	1409342	DISTRACT_END	n/a	n/a	n/a	n/a	-999	10	[0, 0, 0]	n/a	catFR1	2	R1476J
1199.997	0.676	1411593	REC_START	n/a	n/a	n/a	n/a	-999	10	[0, 0, 0]	n/a	catFR1	2	R1476J
1200.673	0.577	1412267	REC_WORD	0.577	n/a	LINEN	Fabric	1	10	[0, 0, 0]	n/a	catFR1	2	R1476J
1201.25	0.733	1412844	REC_WORD	0.733	n/a	FLEECE	Fabric	8	10	[0, 0, 0]	n/a	catFR1	2	R1476J
1201.983	0.904	1413577	REC_WORD	0.904	n/a	CHEETAH	Zoo	11	10	[0, 0, 0]	n/a	catFR1	2	R1476J
1202.887	4.85	1414481	REC_WORD	4.85	n/a	MONKEY	Zoo	12	10	[0, 0, 0]	n/a	catFR1	2	R1476J
1207.737	10.266	1419331	REC_WORD	10.266	n/a	COPPER	n/a	-999	10	[0, 0, 0]	n/a	catFR1	2	R1476J
1218.003	7.244	1429597	REC_WORD	7.244	n/a	ANT	Insects	-999	10	[0, 0, 0]	n/a	catFR1	2	R1476J
1225.247	4.954	1436840	REC_WORD_VV	4.954	n/a	<>	n/a	-999	10	[0, 0, 0]	n/a	catFR1	2	R1476J
1230.201	3.746	1441797	REC_END	n/a	n/a	n/a	n/a	-999	10	[0, 0, 0]	n/a	catFR1	2	R1476J
1233.947	10.352	1445543	COUNTDOWN_START	n/a	n/a	n/a	n/a	-999	11	[0, 0, 0]	n/a	catFR1	2	R1476J
1244.299	0.001	1455892	COUNTDOWN_END	n/a	n/a	n/a	n/a	-999	11	[0, 0, 0]	n/a	catFR1	2	R1476J
1244.3	2.148	1455892	ENCODING_START	n/a	n/a	n/a	n/a	-999	11	[0, 0, 0]	n/a	catFR1	2	R1476J
1246.448	1.601	1458039	WORD	n/a	wordpools/wordpool_categorized_EN.txt	FINCH	Birds	1	11	[0, 0, 0]	n/a	catFR1	2	R1476J
1248.049	0.834	1459645	WORD_OFF	n/a	n/a	FINCH	Birds	1	11	[0, 0, 0]	n/a	catFR1	2	R1476J
1248.883	1.616	1460474	WORD	n/a	wordpools/wordpool_categorized_EN.txt	DOVE	Birds	2	11	[0, 0, 0]	n/a	catFR1	2	R1476J
1250.499	0.984	1462096	WORD_OFF	n/a	n/a	DOVE	Birds	2	11	[0, 0, 0]	n/a	catFR1	2	R1476J
1251.483	1.6	1463073	WORD	n/a	wordpools/wordpool_categorized_EN.txt	VACUUM	Appliances	3	11	[0, 0, 0]	n/a	catFR1	2	R1476J
1253.083	0.815	1464672	WORD_OFF	n/a	n/a	VACUUM	Appliances	3	11	[0, 0, 0]	n/a	catFR1	2	R1476J
1253.898	1.601	1465486	WORD	n/a	wordpools/wordpool_categorized_EN.txt	REFRIGERATOR	Appliances	4	11	[0, 0, 0]	n/a	catFR1	2	R1476J
1255.499	0.851	1467093	WORD_OFF	n/a	n/a	REFRIGERATOR	Appliances	4	11	[0, 0, 0]	n/a	catFR1	2	R1476J
1256.35	1.616	1467944	WORD	n/a	wordpools/wordpool_categorized_EN.txt	GIRAFFE	Zoo	5	11	[0, 0, 0]	n/a	catFR1	2	R1476J
1257.966	0.782	1469558	WORD_OFF	n/a	n/a	GIRAFFE	Zoo	5	11	[0, 0, 0]	n/a	catFR1	2	R1476J
1258.748	1.602	1470343	WORD	n/a	wordpools/wordpool_categorized_EN.txt	CHIMPANZEE	Zoo	6	11	[0, 0, 0]	n/a	catFR1	2	R1476J
1260.35	0.798	1471942	WORD_OFF	n/a	n/a	CHIMPANZEE	Zoo	6	11	[0, 0, 0]	n/a	catFR1	2	R1476J
1261.148	1.601	1472741	WORD	n/a	wordpools/wordpool_categorized_EN.txt	WASHER	Appliances	7	11	[0, 0, 0]	n/a	catFR1	2	R1476J
1262.749	0.917	1474340	WORD_OFF	n/a	n/a	WASHER	Appliances	7	11	[0, 0, 0]	n/a	catFR1	2	R1476J
1263.666	1.617	1475258	WORD	n/a	wordpools/wordpool_categorized_EN.txt	STOVE	Appliances	8	11	[0, 0, 0]	n/a	catFR1	2	R1476J
1265.283	0.914	1476872	WORD_OFF	n/a	n/a	STOVE	Appliances	8	11	[0, 0, 0]	n/a	catFR1	2	R1476J
1266.197	1.602	1477790	WORD	n/a	wordpools/wordpool_categorized_EN.txt	BLUEBIRD	Birds	9	11	[0, 0, 0]	n/a	catFR1	2	R1476J
1267.799	0.984	1479389	WORD_OFF	n/a	n/a	BLUEBIRD	Birds	9	11	[0, 0, 0]	n/a	catFR1	2	R1476J
1268.783	1.617	1480374	WORD	n/a	wordpools/wordpool_categorized_EN.txt	HAWK	Birds	10	11	[0, 0, 0]	n/a	catFR1	2	R1476J
1270.4	0.966	1481995	WORD_OFF	n/a	n/a	HAWK	Birds	10	11	[0, 0, 0]	n/a	catFR1	2	R1476J
1271.366	1.6	1482957	WORD	n/a	wordpools/wordpool_categorized_EN.txt	ELEPHANT	Zoo	11	11	[0, 0, 0]	n/a	catFR1	2	R1476J
1272.966	0.784	1484556	WORD_OFF	n/a	n/a	ELEPHANT	Zoo	11	11	[0, 0, 0]	n/a	catFR1	2	R1476J
1273.75	1.599	1485341	WORD	n/a	wordpools/wordpool_categorized_EN.txt	GORILLA	Zoo	12	11	[0, 0, 0]	n/a	catFR1	2	R1476J
1275.349	0.001	1486940	WORD_OFF	n/a	n/a	GORILLA	Zoo	12	11	[0, 0, 0]	n/a	catFR1	2	R1476J
1275.35	0.001	1486941	PROB	0.001	n/a	n/a	n/a	-999	11	[6, 7, 6]	19	catFR1	2	R1476J
1275.351	0.0	1486942	START	n/a	n/a	n/a	n/a	-999	11	[-999, -999, -999]	n/a	catFR1	2	R1476J
1275.351	0.0	1486948	ENCODING_END	n/a	n/a	n/a	n/a	-999	11	[0, 0, 0]	n/a	catFR1	2	R1476J
1275.351	5.199	1486948	DISTRACT_START	n/a	n/a	n/a	n/a	-999	11	[0, 0, 0]	n/a	catFR1	2	R1476J
1280.55	5.299	1492141	PROB	5.299	n/a	n/a	n/a	-999	11	[2, 3, 3]	8	catFR1	2	R1476J
1285.849	3.483	1497440	PROB	3.483	n/a	n/a	n/a	-999	11	[8, 6, 6]	20	catFR1	2	R1476J
1289.332	3.984	1500923	PROB	3.984	n/a	n/a	n/a	-999	11	[2, 8, 4]	14	catFR1	2	R1476J
1293.316	3.999	1504906	PROB	3.999	n/a	n/a	n/a	-999	11	[8, 8, 3]	19	catFR1	2	R1476J
1297.315	0.0	1508905	DISTRACT_END	n/a	n/a	n/a	n/a	-999	11	[0, 0, 0]	n/a	catFR1	2	R1476J
1297.315	2.134	1508905	STOP	n/a	n/a	n/a	n/a	-999	11	[-999, -999, -999]	n/a	catFR1	2	R1476J
1299.449	1.313	1511037	REC_START	n/a	n/a	n/a	n/a	-999	11	[0, 0, 0]	n/a	catFR1	2	R1476J
1300.762	1.005	1512352	REC_WORD_VV	1.005	n/a	<>	n/a	-999	11	[0, 0, 0]	n/a	catFR1	2	R1476J
1301.767	0.607	1513357	REC_WORD	0.607	n/a	DRYER	Appliances	-999	11	[0, 0, 0]	n/a	catFR1	2	R1476J
1302.374	1.366	1513964	REC_WORD	1.366	n/a	STOVE	Appliances	8	11	[0, 0, 0]	n/a	catFR1	2	R1476J
1303.74	1.239	1515330	REC_WORD	1.239	n/a	WASHER	Appliances	7	11	[0, 0, 0]	n/a	catFR1	2	R1476J
1304.979	0.795	1516569	REC_WORD	0.795	n/a	GORILLA	Zoo	12	11	[0, 0, 0]	n/a	catFR1	2	R1476J
1305.774	9.317	1517364	REC_WORD	9.317	n/a	CHIMPANZEE	Zoo	6	11	[0, 0, 0]	n/a	catFR1	2	R1476J
1315.091	8.742	1526681	REC_WORD	8.742	n/a	REFRIGERATOR	Appliances	4	11	[0, 0, 0]	n/a	catFR1	2	R1476J
1323.833	5.837	1535422	REC_WORD_VV	5.837	n/a	<>	n/a	-999	11	[0, 0, 0]	n/a	catFR1	2	R1476J
1329.67	3.713	1541263	REC_END	n/a	n/a	n/a	n/a	-999	11	[0, 0, 0]	n/a	catFR1	2	R1476J
1333.383	10.35	1544972	COUNTDOWN_START	n/a	n/a	n/a	n/a	-999	12	[0, 0, 0]	n/a	catFR1	2	R1476J
1343.733	0.0	1555322	COUNTDOWN_END	n/a	n/a	n/a	n/a	-999	12	[0, 0, 0]	n/a	catFR1	2	R1476J
1343.733	1.966	1555329	ENCODING_START	n/a	n/a	n/a	n/a	-999	12	[0, 0, 0]	n/a	catFR1	2	R1476J
1345.699	1.616	1557291	WORD	n/a	wordpools/wordpool_categorized_EN.txt	ZEBRA	Zoo	1	12	[0, 0, 0]	n/a	catFR1	2	R1476J
1347.315	0.951	1558905	WORD_OFF	n/a	n/a	ZEBRA	Zoo	1	12	[0, 0, 0]	n/a	catFR1	2	R1476J
1348.266	1.6	1559852	WORD	n/a	wordpools/wordpool_categorized_EN.txt	ORANGUTAN	Zoo	2	12	[0, 0, 0]	n/a	catFR1	2	R1476J
1349.866	0.917	1561451	WORD_OFF	n/a	n/a	ORANGUTAN	Zoo	2	12	[0, 0, 0]	n/a	catFR1	2	R1476J
1350.783	1.6	1562369	WORD	n/a	wordpools/wordpool_categorized_EN.txt	RUM	Beverages	3	12	[0, 0, 0]	n/a	catFR1	2	R1476J
1352.383	0.916	1563968	WORD_OFF	n/a	n/a	RUM	Beverages	3	12	[0, 0, 0]	n/a	catFR1	2	R1476J
1353.299	1.6	1564886	WORD	n/a	wordpools/wordpool_categorized_EN.txt	JUICE	Beverages	4	12	[0, 0, 0]	n/a	catFR1	2	R1476J
1354.899	0.949	1566485	WORD_OFF	n/a	n/a	JUICE	Beverages	4	12	[0, 0, 0]	n/a	catFR1	2	R1476J
1355.848	1.601	1567440	WORD	n/a	wordpools/wordpool_categorized_EN.txt	MIXER	Appliances	5	12	[0, 0, 0]	n/a	catFR1	2	R1476J
1357.449	0.767	1569039	WORD_OFF	n/a	n/a	MIXER	Appliances	5	12	[0, 0, 0]	n/a	catFR1	2	R1476J
1358.216	1.617	1569802	WORD	n/a	wordpools/wordpool_categorized_EN.txt	OVEN	Appliances	6	12	[0, 0, 0]	n/a	catFR1	2	R1476J
1359.833	1.0	1571423	WORD_OFF	n/a	n/a	OVEN	Appliances	6	12	[0, 0, 0]	n/a	catFR1	2	R1476J
1360.833	1.6	1572422	WORD	n/a	wordpools/wordpool_categorized_EN.txt	BEER	Beverages	7	12	[0, 0, 0]	n/a	catFR1	2	R1476J
1362.433	0.966	1574021	WORD_OFF	n/a	n/a	BEER	Beverages	7	12	[0, 0, 0]	n/a	catFR1	2	R1476J
1363.399	1.601	1574991	WORD	n/a	wordpools/wordpool_categorized_EN.txt	TEA	Beverages	8	12	[0, 0, 0]	n/a	catFR1	2	R1476J
1365.0	0.916	1576590	WORD_OFF	n/a	n/a	TEA	Beverages	8	12	[0, 0, 0]	n/a	catFR1	2	R1476J
1365.916	1.6	1577508	WORD	n/a	wordpools/wordpool_categorized_EN.txt	IRON	Appliances	9	12	[0, 0, 0]	n/a	catFR1	2	R1476J
1367.516	0.967	1579107	WORD_OFF	n/a	n/a	IRON	Appliances	9	12	[0, 0, 0]	n/a	catFR1	2	R1476J
1368.483	1.6	1580070	WORD	n/a	wordpools/wordpool_categorized_EN.txt	FREEZER	Appliances	10	12	[0, 0, 0]	n/a	catFR1	2	R1476J
1370.083	1.0	1581669	WORD_OFF	n/a	n/a	FREEZER	Appliances	10	12	[0, 0, 0]	n/a	catFR1	2	R1476J
1371.083	1.615	1582668	WORD	n/a	wordpools/wordpool_categorized_EN.txt	TIGER	Zoo	11	12	[0, 0, 0]	n/a	catFR1	2	R1476J
1372.698	0.885	1584289	WORD_OFF	n/a	n/a	TIGER	Zoo	11	12	[0, 0, 0]	n/a	catFR1	2	R1476J
1373.583	1.617	1585170	WORD	n/a	wordpools/wordpool_categorized_EN.txt	PANDA	Zoo	12	12	[0, 0, 0]	n/a	catFR1	2	R1476J
1375.2	0.0	1586784	WORD_OFF	n/a	n/a	PANDA	Zoo	12	12	[0, 0, 0]	n/a	catFR1	2	R1476J
1375.2	0.003	1586787	PROB	0.003	n/a	n/a	n/a	-999	12	[7, 7, 4]	18	catFR1	2	R1476J
1375.203	0.0	1586790	START	n/a	n/a	n/a	n/a	-999	12	[-999, -999, -999]	n/a	catFR1	2	R1476J
1375.203	0.0	1586792	ENCODING_END	n/a	n/a	n/a	n/a	-999	12	[0, 0, 0]	n/a	catFR1	2	R1476J
1375.203	5.329	1586792	DISTRACT_START	n/a	n/a	n/a	n/a	-999	12	[0, 0, 0]	n/a	catFR1	2	R1476J
1380.532	3.468	1592119	PROB	3.468	n/a	n/a	n/a	-999	12	[2, 1, 5]	8	catFR1	2	R1476J
1384.0	2.916	1595587	PROB	2.916	n/a	n/a	n/a	-999	12	[3, 2, 4]	9	catFR1	2	R1476J
1386.916	4.834	1598502	PROB	4.834	n/a	n/a	n/a	-999	12	[7, 6, 2]	14	catFR1	2	R1476J
1391.75	3.582	1603336	PROB	3.582	n/a	n/a	n/a	-999	12	[4, 6, 1]	11	catFR1	2	R1476J
1395.332	0.0	1606918	STOP	n/a	n/a	n/a	n/a	-999	12	[-999, -999, -999]	n/a	catFR1	2	R1476J
1395.332	2.233	1606920	DISTRACT_END	n/a	n/a	n/a	n/a	-999	12	[0, 0, 0]	n/a	catFR1	2	R1476J
1397.565	1.864	1609149	REC_START	n/a	n/a	n/a	n/a	-999	12	[0, 0, 0]	n/a	catFR1	2	R1476J
1399.429	0.784	1611015	REC_WORD_VV	0.784	n/a	<>	n/a	-999	12	[0, 0, 0]	n/a	catFR1	2	R1476J
1400.213	2.17	1611799	REC_WORD	2.17	n/a	MIXER	Appliances	5	12	[0, 0, 0]	n/a	catFR1	2	R1476J
1402.383	1.59	1613969	REC_WORD	1.59	n/a	BEER	Beverages	7	12	[0, 0, 0]	n/a	catFR1	2	R1476J
1403.973	0.54	1615559	REC_WORD	0.54	n/a	RUM	Beverages	3	12	[0, 0, 0]	n/a	catFR1	2	R1476J
1404.513	4.998	1616099	REC_WORD	4.998	n/a	OVEN	Appliances	6	12	[0, 0, 0]	n/a	catFR1	2	R1476J
1409.511	5.65	1621097	REC_WORD_VV	5.65	n/a	<>	n/a	-999	12	[0, 0, 0]	n/a	catFR1	2	R1476J
1415.161	0.438	1626746	REC_WORD_VV	0.438	n/a	<>	n/a	-999	12	[0, 0, 0]	n/a	catFR1	2	R1476J
1415.599	5.379	1627184	REC_WORD	5.379	n/a	STOVE	Appliances	-999	12	[0, 0, 0]	n/a	catFR1	2	R1476J
1420.978	6.795	1632563	REC_WORD_VV	6.795	n/a	<>	n/a	-999	12	[0, 0, 0]	n/a	catFR1	2	R1476J
1427.773	0.0	1639360	REC_END	n/a	n/a	n/a	n/a	-999	12	[0, 0, 0]	n/a	catFR1	2	R1476J
