onset	duration	sample	trial_type	response_time	stim_file	item_name	category	serialpos	list	test	answer	experiment	session	subject
0.0	1.942	27890	INSTRUCT_START	n/a	n/a	n/a	n/a	-999	-999	[0, 0, 0]	n/a	catFR1	3	R1674A
1.942	24.197	29836	INSTRUCT_END	n/a	n/a	n/a	n/a	-999	-999	[0, 0, 0]	n/a	catFR1	3	R1674A
26.139	10.353	54025	COUNTDOWN_START	n/a	n/a	n/a	n/a	-999	-999	[0, 0, 0]	n/a	catFR1	3	R1674A
36.492	0.0	64384	COUNTDOWN_END	n/a	n/a	n/a	n/a	-999	-999	[0, 0, 0]	n/a	catFR1	3	R1674A
36.492	1.892	64384	ENCODING_START	n/a	n/a	n/a	n/a	-999	-1	[0, 0, 0]	n/a	catFR1	3	R1674A
38.384	1.607	66273	WORD	n/a	n/a	BEAR	Zoo	1	-1	[0, 0, 0]	n/a	catFR1	3	R1674A
39.991	0.914	67885	WORD_OFF	n/a	n/a	BEAR	Zoo	1	-1	[0, 0, 0]	n/a	catFR1	3	R1674A
40.905	1.601	68800	WORD	n/a	n/a	CHIMPANZEE	Zoo	2	-1	[0, 0, 0]	n/a	catFR1	3	R1674A
42.506	0.992	70393	WORD_OFF	n/a	n/a	CHIMPANZEE	Zoo	2	-1	[0, 0, 0]	n/a	catFR1	3	R1674A
43.498	1.607	71385	WORD	n/a	n/a	GOAT	FarmAnimals	3	-1	[0, 0, 0]	n/a	catFR1	3	R1674A
45.105	0.951	72997	WORD_OFF	n/a	n/a	GOAT	FarmAnimals	3	-1	[0, 0, 0]	n/a	catFR1	3	R1674A
46.056	1.607	73951	WORD	n/a	n/a	TURKEY	FarmAnimals	4	-1	[0, 0, 0]	n/a	catFR1	3	R1674A
47.663	0.885	75554	WORD_OFF	n/a	n/a	TURKEY	FarmAnimals	4	-1	[0, 0, 0]	n/a	catFR1	3	R1674A
48.548	1.607	76441	WORD	n/a	n/a	LEATHER	Fabric	5	-1	[0, 0, 0]	n/a	catFR1	3	R1674A
50.155	0.8	78043	WORD_OFF	n/a	n/a	LEATHER	Fabric	5	-1	[0, 0, 0]	n/a	catFR1	3	R1674A
50.955	1.6	78844	WORD	n/a	n/a	FLEECE	Fabric	6	-1	[0, 0, 0]	n/a	catFR1	3	R1674A
52.555	0.901	80447	WORD_OFF	n/a	n/a	FLEECE	Fabric	6	-1	[0, 0, 0]	n/a	catFR1	3	R1674A
53.456	1.608	81343	WORD	n/a	n/a	GIRAFFE	Zoo	7	-1	[0, 0, 0]	n/a	catFR1	3	R1674A
55.064	0.932	82955	WORD_OFF	n/a	n/a	GIRAFFE	Zoo	7	-1	[0, 0, 0]	n/a	catFR1	3	R1674A
55.996	1.602	83890	WORD	n/a	n/a	ELEPHANT	Zoo	8	-1	[0, 0, 0]	n/a	catFR1	3	R1674A
57.598	0.898	85493	WORD_OFF	n/a	n/a	ELEPHANT	Zoo	8	-1	[0, 0, 0]	n/a	catFR1	3	R1674A
58.496	1.601	86389	WORD	n/a	n/a	SUEDE	Fabric	9	-1	[0, 0, 0]	n/a	catFR1	3	R1674A
60.097	0.775	87992	WORD_OFF	n/a	n/a	SUEDE	Fabric	9	-1	[0, 0, 0]	n/a	catFR1	3	R1674A
60.872	1.609	88764	WORD	n/a	n/a	WOOL	Fabric	10	-1	[0, 0, 0]	n/a	catFR1	3	R1674A
62.481	0.792	90376	WORD_OFF	n/a	n/a	WOOL	Fabric	10	-1	[0, 0, 0]	n/a	catFR1	3	R1674A
63.273	1.6	91159	WORD	n/a	n/a	HEN	FarmAnimals	11	-1	[0, 0, 0]	n/a	catFR1	3	R1674A
64.873	0.981	92761	WORD_OFF	n/a	n/a	HEN	FarmAnimals	11	-1	[0, 0, 0]	n/a	catFR1	3	R1674A
65.854	1.602	93743	WORD	n/a	n/a	BULL	FarmAnimals	12	-1	[0, 0, 0]	n/a	catFR1	3	R1674A
67.456	0.003	95346	WORD_OFF	n/a	n/a	BULL	FarmAnimals	12	-1	[0, 0, 0]	n/a	catFR1	3	R1674A
67.459	0.0	95346	ENCODING_END	n/a	n/a	n/a	n/a	-999	-1	[0, 0, 0]	n/a	catFR1	3	R1674A
67.459	0.001	95348	START	n/a	n/a	n/a	n/a	-999	-1	[-999, -999, -999]	n/a	catFR1	3	R1674A
67.46	0.0	95349	PROB	5.816	n/a	n/a	n/a	-999	-1	[2, 7, 6]	13.0	catFR1	3	R1674A
67.459	5.831	95355	DISTRACT_START	n/a	n/a	n/a	n/a	-999	-1	[0, 0, 0]	n/a	catFR1	3	R1674A
73.29	3.757	101179	PROB	3.749	n/a	n/a	n/a	-999	-1	[8, 1, 5]	14.0	catFR1	3	R1674A
77.047	2.283	104936	PROB	2.274	n/a	n/a	n/a	-999	-1	[3, 2, 8]	13.0	catFR1	3	R1674A
79.33	2.608	107219	PROB	2.6	n/a	n/a	n/a	-999	-1	[4, 2, 2]	8.0	catFR1	3	R1674A
81.938	2.976	109827	PROB	2.966	n/a	n/a	n/a	-999	-1	[3, 3, 7]	13.0	catFR1	3	R1674A
84.914	2.167	112803	PROB	2.158	n/a	n/a	n/a	-999	-1	[2, 6, 4]	12.0	catFR1	3	R1674A
87.081	2.75	114970	PROB	2.742	n/a	n/a	n/a	-999	-1	[2, 6, 6]	14.0	catFR1	3	R1674A
89.831	0.0	117720	STOP	n/a	n/a	n/a	n/a	-999	-1	[-999, -999, -999]	n/a	catFR1	3	R1674A
89.831	2.11	117723	DISTRACT_END	n/a	n/a	n/a	n/a	-999	-1	[0, 0, 0]	n/a	catFR1	3	R1674A
91.941	0.605	119831	REC_START	n/a	n/a	n/a	n/a	-999	-1	[0, 0, 0]	n/a	catFR1	3	R1674A
92.546	1.216	120435	REC_WORD	0.605	n/a	SUEDE	Fabric	9	-1	[0, 0, 0]	n/a	catFR1	3	R1674A
93.762	0.779	121651	REC_WORD	1.821	n/a	WOOL	Fabric	10	-1	[0, 0, 0]	n/a	catFR1	3	R1674A
94.541	0.939	122430	REC_WORD	2.6	n/a	FLEECE	Fabric	6	-1	[0, 0, 0]	n/a	catFR1	3	R1674A
95.48	1.285	123369	REC_WORD	3.539	n/a	CHIMPANZEE	Zoo	2	-1	[0, 0, 0]	n/a	catFR1	3	R1674A
96.765	0.876	124654	REC_WORD	4.824	n/a	ELEPHANT	Zoo	8	-1	[0, 0, 0]	n/a	catFR1	3	R1674A
97.641	2.387	125530	REC_WORD	5.7	n/a	HEN	FarmAnimals	11	-1	[0, 0, 0]	n/a	catFR1	3	R1674A
100.028	2.929	127917	REC_WORD_VV	8.087	n/a	<>	n/a	-999	-1	[0, 0, 0]	n/a	catFR1	3	R1674A
102.957	1.975	130846	REC_WORD	11.016	n/a	GOAT	FarmAnimals	3	-1	[0, 0, 0]	n/a	catFR1	3	R1674A
104.932	17.163	132821	REC_WORD_VV	12.991	n/a	<>	n/a	-999	-1	[0, 0, 0]	n/a	catFR1	3	R1674A
122.095	6.195	149982	REC_END	n/a	n/a	n/a	n/a	-999	-1	[0, 0, 0]	n/a	catFR1	3	R1674A
128.29	10.34	156182	COUNTDOWN_START	n/a	n/a	n/a	n/a	-999	1	[0, 0, 0]	n/a	catFR1	3	R1674A
138.63	0.001	166522	COUNTDOWN_END	n/a	n/a	n/a	n/a	-999	1	[0, 0, 0]	n/a	catFR1	3	R1674A
138.631	1.849	166522	ENCODING_START	n/a	n/a	n/a	n/a	-999	1	[0, 0, 0]	n/a	catFR1	3	R1674A
140.48	1.61	168372	WORD	n/a	wordpools/wordpool_categorized_EN.txt	SHELF	Furniture	1	1	[0, 0, 0]	n/a	catFR1	3	R1674A
142.09	0.765	169984	WORD_OFF	n/a	n/a	SHELF	Furniture	1	1	[0, 0, 0]	n/a	catFR1	3	R1674A
142.855	1.61	170747	WORD	n/a	wordpools/wordpool_categorized_EN.txt	DESK	Furniture	2	1	[0, 0, 0]	n/a	catFR1	3	R1674A
144.465	0.85	172359	WORD_OFF	n/a	n/a	DESK	Furniture	2	1	[0, 0, 0]	n/a	catFR1	3	R1674A
145.315	1.607	173208	WORD	n/a	wordpools/wordpool_categorized_EN.txt	FINCH	Birds	3	1	[0, 0, 0]	n/a	catFR1	3	R1674A
146.922	0.918	174811	WORD_OFF	n/a	n/a	FINCH	Birds	3	1	[0, 0, 0]	n/a	catFR1	3	R1674A
147.84	1.608	175727	WORD	n/a	wordpools/wordpool_categorized_EN.txt	BLUEBIRD	Birds	4	1	[0, 0, 0]	n/a	catFR1	3	R1674A
149.448	0.815	177339	WORD_OFF	n/a	n/a	BLUEBIRD	Birds	4	1	[0, 0, 0]	n/a	catFR1	3	R1674A
150.263	1.602	178149	WORD	n/a	wordpools/wordpool_categorized_EN.txt	BROWNIES	Desserts	5	1	[0, 0, 0]	n/a	catFR1	3	R1674A
151.865	0.856	179752	WORD_OFF	n/a	n/a	BROWNIES	Desserts	5	1	[0, 0, 0]	n/a	catFR1	3	R1674A
152.721	1.602	180610	WORD	n/a	wordpools/wordpool_categorized_EN.txt	COOKIE	Desserts	6	1	[0, 0, 0]	n/a	catFR1	3	R1674A
154.323	0.907	182213	WORD_OFF	n/a	n/a	COOKIE	Desserts	6	1	[0, 0, 0]	n/a	catFR1	3	R1674A
155.23	1.61	183119	WORD	n/a	wordpools/wordpool_categorized_EN.txt	NIGHTSTAND	Furniture	7	1	[0, 0, 0]	n/a	catFR1	3	R1674A
156.84	0.941	184731	WORD_OFF	n/a	n/a	NIGHTSTAND	Furniture	7	1	[0, 0, 0]	n/a	catFR1	3	R1674A
157.781	1.609	185675	WORD	n/a	wordpools/wordpool_categorized_EN.txt	TABLE	Furniture	8	1	[0, 0, 0]	n/a	catFR1	3	R1674A
159.39	0.883	187278	WORD_OFF	n/a	n/a	TABLE	Furniture	8	1	[0, 0, 0]	n/a	catFR1	3	R1674A
160.273	1.608	188165	WORD	n/a	wordpools/wordpool_categorized_EN.txt	CROW	Birds	9	1	[0, 0, 0]	n/a	catFR1	3	R1674A
161.881	0.767	189767	WORD_OFF	n/a	n/a	CROW	Birds	9	1	[0, 0, 0]	n/a	catFR1	3	R1674A
162.648	1.607	190540	WORD	n/a	wordpools/wordpool_categorized_EN.txt	SEAGULL	Birds	10	1	[0, 0, 0]	n/a	catFR1	3	R1674A
164.255	0.993	192152	WORD_OFF	n/a	n/a	SEAGULL	Birds	10	1	[0, 0, 0]	n/a	catFR1	3	R1674A
165.248	1.608	193134	WORD	n/a	wordpools/wordpool_categorized_EN.txt	FUDGE	Desserts	11	1	[0, 0, 0]	n/a	catFR1	3	R1674A
166.856	0.934	194746	WORD_OFF	n/a	n/a	FUDGE	Desserts	11	1	[0, 0, 0]	n/a	catFR1	3	R1674A
167.79	1.607	195681	WORD	n/a	wordpools/wordpool_categorized_EN.txt	COBBLER	Desserts	12	1	[0, 0, 0]	n/a	catFR1	3	R1674A
169.397	0.001	197283	WORD_OFF	n/a	n/a	COBBLER	Desserts	12	1	[0, 0, 0]	n/a	catFR1	3	R1674A
169.398	0.002	197287	PROB	3.132	n/a	n/a	n/a	-999	1	[8, 7, 3]	18.0	catFR1	3	R1674A
169.4	0.0	197289	START	n/a	n/a	n/a	n/a	-999	1	[-999, -999, -999]	n/a	catFR1	3	R1674A
169.4	0.0	197293	ENCODING_END	n/a	n/a	n/a	n/a	-999	1	[0, 0, 0]	n/a	catFR1	3	R1674A
169.4	3.139	197293	DISTRACT_START	n/a	n/a	n/a	n/a	-999	1	[0, 0, 0]	n/a	catFR1	3	R1674A
172.539	5.826	200427	PROB	5.816	n/a	n/a	n/a	-999	1	[7, 5, 7]	19.0	catFR1	3	R1674A
178.365	3.3	206253	PROB	3.291	n/a	n/a	n/a	-999	1	[1, 1, 8]	10.0	catFR1	3	R1674A
181.665	4.184	209553	PROB	4.175	n/a	n/a	n/a	-999	1	[6, 3, 1]	10.0	catFR1	3	R1674A
185.849	3.115	213737	PROB	3.108	n/a	n/a	n/a	-999	1	[1, 8, 3]	12.0	catFR1	3	R1674A
188.964	4.157	216852	PROB	4.149	n/a	n/a	n/a	-999	1	[1, 4, 4]	9.0	catFR1	3	R1674A
193.121	0.0	221006	DISTRACT_END	n/a	n/a	n/a	n/a	-999	1	[0, 0, 0]	n/a	catFR1	3	R1674A
193.121	2.302	221009	STOP	n/a	n/a	n/a	n/a	-999	1	[-999, -999, -999]	n/a	catFR1	3	R1674A
195.423	1.3	223314	REC_START	n/a	n/a	n/a	n/a	-999	1	[0, 0, 0]	n/a	catFR1	3	R1674A
196.723	2.562	224611	REC_WORD_VV	1.3	n/a	<>	n/a	-999	1	[0, 0, 0]	n/a	catFR1	3	R1674A
199.285	1.437	227173	REC_WORD	3.862	n/a	BROWNIES	Desserts	5	1	[0, 0, 0]	n/a	catFR1	3	R1674A
200.722	3.158	228610	REC_WORD	5.299	n/a	COBBLER	Desserts	12	1	[0, 0, 0]	n/a	catFR1	3	R1674A
203.88	7.227	231768	REC_WORD_VV	8.457	n/a	<>	n/a	-999	1	[0, 0, 0]	n/a	catFR1	3	R1674A
211.107	3.563	238995	REC_WORD	15.684	n/a	FINCH	Birds	3	1	[0, 0, 0]	n/a	catFR1	3	R1674A
214.67	0.931	242558	REC_WORD	19.247	n/a	SEAGULL	Birds	10	1	[0, 0, 0]	n/a	catFR1	3	R1674A
215.601	9.969	243489	REC_WORD	20.178	n/a	BLUEBIRD	Birds	4	1	[0, 0, 0]	n/a	catFR1	3	R1674A
225.57	1.943	253455	REC_END	n/a	n/a	n/a	n/a	-999	1	[0, 0, 0]	n/a	catFR1	3	R1674A
227.513	10.343	255401	COUNTDOWN_START	n/a	n/a	n/a	n/a	-999	2	[0, 0, 0]	n/a	catFR1	3	R1674A
237.856	0.001	265750	COUNTDOWN_END	n/a	n/a	n/a	n/a	-999	2	[0, 0, 0]	n/a	catFR1	3	R1674A
237.857	2.016	265750	ENCODING_START	n/a	n/a	n/a	n/a	-999	2	[0, 0, 0]	n/a	catFR1	3	R1674A
239.873	1.6	267763	WORD	n/a	wordpools/wordpool_categorized_EN.txt	BUTTERFLY	Insects	1	2	[0, 0, 0]	n/a	catFR1	3	R1674A
241.473	0.865	269366	WORD_OFF	n/a	n/a	BUTTERFLY	Insects	1	2	[0, 0, 0]	n/a	catFR1	3	R1674A
242.338	1.61	270234	WORD	n/a	wordpools/wordpool_categorized_EN.txt	MOSQUITO	Insects	2	2	[0, 0, 0]	n/a	catFR1	3	R1674A
243.948	0.834	271836	WORD_OFF	n/a	n/a	MOSQUITO	Insects	2	2	[0, 0, 0]	n/a	catFR1	3	R1674A
244.782	1.606	272675	WORD	n/a	wordpools/wordpool_categorized_EN.txt	LOBSTER	OceanAnimals	3	2	[0, 0, 0]	n/a	catFR1	3	R1674A
246.388	0.96	274278	WORD_OFF	n/a	n/a	LOBSTER	OceanAnimals	3	2	[0, 0, 0]	n/a	catFR1	3	R1674A
247.348	1.609	275241	WORD	n/a	wordpools/wordpool_categorized_EN.txt	SHRIMP	OceanAnimals	4	2	[0, 0, 0]	n/a	catFR1	3	R1674A
248.957	0.798	276844	WORD_OFF	n/a	n/a	SHRIMP	OceanAnimals	4	2	[0, 0, 0]	n/a	catFR1	3	R1674A
249.755	1.602	277645	WORD	n/a	wordpools/wordpool_categorized_EN.txt	WALL	Building	5	2	[0, 0, 0]	n/a	catFR1	3	R1674A
251.357	0.999	279247	WORD_OFF	n/a	n/a	WALL	Building	5	2	[0, 0, 0]	n/a	catFR1	3	R1674A
252.356	1.608	280249	WORD	n/a	wordpools/wordpool_categorized_EN.txt	HALLWAY	Building	6	2	[0, 0, 0]	n/a	catFR1	3	R1674A
253.964	0.801	281851	WORD_OFF	n/a	n/a	HALLWAY	Building	6	2	[0, 0, 0]	n/a	catFR1	3	R1674A
254.765	1.607	282653	WORD	n/a	wordpools/wordpool_categorized_EN.txt	MOTH	Insects	7	2	[0, 0, 0]	n/a	catFR1	3	R1674A
256.372	0.968	284265	WORD_OFF	n/a	n/a	MOTH	Insects	7	2	[0, 0, 0]	n/a	catFR1	3	R1674A
257.34	1.608	285228	WORD	n/a	wordpools/wordpool_categorized_EN.txt	GNAT	Insects	8	2	[0, 0, 0]	n/a	catFR1	3	R1674A
258.948	0.765	286840	WORD_OFF	n/a	n/a	GNAT	Insects	8	2	[0, 0, 0]	n/a	catFR1	3	R1674A
259.713	1.61	287603	WORD	n/a	wordpools/wordpool_categorized_EN.txt	JELLYFISH	OceanAnimals	9	2	[0, 0, 0]	n/a	catFR1	3	R1674A
261.323	0.891	289215	WORD_OFF	n/a	n/a	JELLYFISH	OceanAnimals	9	2	[0, 0, 0]	n/a	catFR1	3	R1674A
262.214	1.607	290102	WORD	n/a	wordpools/wordpool_categorized_EN.txt	OYSTER	OceanAnimals	10	2	[0, 0, 0]	n/a	catFR1	3	R1674A
263.821	0.892	291714	WORD_OFF	n/a	n/a	OYSTER	OceanAnimals	10	2	[0, 0, 0]	n/a	catFR1	3	R1674A
264.713	1.601	292601	WORD	n/a	wordpools/wordpool_categorized_EN.txt	FOUNDATION	Building	11	2	[0, 0, 0]	n/a	catFR1	3	R1674A
266.314	0.9	294204	WORD_OFF	n/a	n/a	FOUNDATION	Building	11	2	[0, 0, 0]	n/a	catFR1	3	R1674A
267.214	1.609	295100	WORD	n/a	wordpools/wordpool_categorized_EN.txt	ROOM	Building	12	2	[0, 0, 0]	n/a	catFR1	3	R1674A
268.823	0.0	296711	PROB	3.765	n/a	n/a	n/a	-999	2	[4, 1, 6]	11.0	catFR1	3	R1674A
268.823	0.004	296712	WORD_OFF	n/a	n/a	ROOM	Building	12	2	[0, 0, 0]	n/a	catFR1	3	R1674A
268.827	0.0	296712	ENCODING_END	n/a	n/a	n/a	n/a	-999	2	[0, 0, 0]	n/a	catFR1	3	R1674A
268.827	0.0	296715	START	n/a	n/a	n/a	n/a	-999	2	[-999, -999, -999]	n/a	catFR1	3	R1674A
268.827	3.772	296722	DISTRACT_START	n/a	n/a	n/a	n/a	-999	2	[0, 0, 0]	n/a	catFR1	3	R1674A
272.599	2.899	300487	PROB	2.891	n/a	n/a	n/a	-999	2	[3, 3, 5]	11.0	catFR1	3	R1674A
275.498	3.667	303386	PROB	3.657	n/a	n/a	n/a	-999	2	[1, 1, 6]	8.0	catFR1	3	R1674A
279.165	3.682	307053	PROB	3.674	n/a	n/a	n/a	-999	2	[3, 2, 6]	11.0	catFR1	3	R1674A
282.847	2.609	310735	PROB	2.599	n/a	n/a	n/a	-999	2	[5, 3, 7]	15.0	catFR1	3	R1674A
285.456	2.467	313344	PROB	2.457	n/a	n/a	n/a	-999	2	[1, 8, 3]	12.0	catFR1	3	R1674A
287.923	4.316	315811	PROB	4.308	n/a	n/a	n/a	-999	2	[3, 6, 7]	16.0	catFR1	3	R1674A
292.239	0.0	320127	STOP	n/a	n/a	n/a	n/a	-999	2	[-999, -999, -999]	n/a	catFR1	3	R1674A
292.239	2.059	320129	DISTRACT_END	n/a	n/a	n/a	n/a	-999	2	[0, 0, 0]	n/a	catFR1	3	R1674A
294.298	1.19	322189	REC_START	n/a	n/a	n/a	n/a	-999	2	[0, 0, 0]	n/a	catFR1	3	R1674A
295.488	2.296	323376	REC_WORD	1.19	n/a	JELLYFISH	OceanAnimals	9	2	[0, 0, 0]	n/a	catFR1	3	R1674A
297.784	0.721	325672	REC_WORD	3.486	n/a	MOTH	Insects	7	2	[0, 0, 0]	n/a	catFR1	3	R1674A
298.505	1.216	326393	REC_WORD	4.207	n/a	GNAT	Insects	8	2	[0, 0, 0]	n/a	catFR1	3	R1674A
299.721	4.072	327609	REC_WORD	5.423	n/a	OYSTER	OceanAnimals	10	2	[0, 0, 0]	n/a	catFR1	3	R1674A
303.793	2.645	331681	REC_WORD_VV	9.495	n/a	<>	n/a	-999	2	[0, 0, 0]	n/a	catFR1	3	R1674A
306.438	6.792	334326	REC_WORD	12.14	n/a	MOSQUITO	Insects	2	2	[0, 0, 0]	n/a	catFR1	3	R1674A
313.23	5.201	341118	REC_WORD	18.932	n/a	MOTH	Insects	7	2	[0, 0, 0]	n/a	catFR1	3	R1674A
318.431	0.942	346319	REC_WORD_VV	24.133	n/a	<>	n/a	-999	2	[0, 0, 0]	n/a	catFR1	3	R1674A
319.373	5.069	347261	REC_WORD	25.075	n/a	FOUNDATION	Building	11	2	[0, 0, 0]	n/a	catFR1	3	R1674A
324.442	2.973	352331	REC_END	n/a	n/a	n/a	n/a	-999	2	[0, 0, 0]	n/a	catFR1	3	R1674A
327.415	10.34	355307	COUNTDOWN_START	n/a	n/a	n/a	n/a	-999	3	[0, 0, 0]	n/a	catFR1	3	R1674A
337.755	0.001	365647	COUNTDOWN_END	n/a	n/a	n/a	n/a	-999	3	[0, 0, 0]	n/a	catFR1	3	R1674A
337.756	2.042	365647	ENCODING_START	n/a	n/a	n/a	n/a	-999	3	[0, 0, 0]	n/a	catFR1	3	R1674A
339.798	1.609	367688	WORD	n/a	wordpools/wordpool_categorized_EN.txt	TIGER	Zoo	1	3	[0, 0, 0]	n/a	catFR1	3	R1674A
341.407	0.915	369300	WORD_OFF	n/a	n/a	TIGER	Zoo	1	3	[0, 0, 0]	n/a	catFR1	3	R1674A
342.322	1.6	370216	WORD	n/a	wordpools/wordpool_categorized_EN.txt	GORILLA	Zoo	2	3	[0, 0, 0]	n/a	catFR1	3	R1674A
343.922	0.959	371809	WORD_OFF	n/a	n/a	GORILLA	Zoo	2	3	[0, 0, 0]	n/a	catFR1	3	R1674A
344.881	1.608	372772	WORD	n/a	wordpools/wordpool_categorized_EN.txt	BOOKCASE	Furniture	3	3	[0, 0, 0]	n/a	catFR1	3	R1674A
346.489	0.9	374384	WORD_OFF	n/a	n/a	BOOKCASE	Furniture	3	3	[0, 0, 0]	n/a	catFR1	3	R1674A
347.389	1.6	375281	WORD	n/a	wordpools/wordpool_categorized_EN.txt	DRESSER	Furniture	4	3	[0, 0, 0]	n/a	catFR1	3	R1674A
348.989	0.834	376883	WORD_OFF	n/a	n/a	DRESSER	Furniture	4	3	[0, 0, 0]	n/a	catFR1	3	R1674A
349.823	1.607	377713	WORD	n/a	wordpools/wordpool_categorized_EN.txt	TABLET	Electronics	5	3	[0, 0, 0]	n/a	catFR1	3	R1674A
351.43	0.793	379315	WORD_OFF	n/a	n/a	TABLET	Electronics	5	3	[0, 0, 0]	n/a	catFR1	3	R1674A
352.223	1.608	380117	WORD	n/a	wordpools/wordpool_categorized_EN.txt	MICROWAVE	Electronics	6	3	[0, 0, 0]	n/a	catFR1	3	R1674A
353.831	0.867	381719	WORD_OFF	n/a	n/a	MICROWAVE	Electronics	6	3	[0, 0, 0]	n/a	catFR1	3	R1674A
354.698	1.608	382587	WORD	n/a	wordpools/wordpool_categorized_EN.txt	SOFA	Furniture	7	3	[0, 0, 0]	n/a	catFR1	3	R1674A
356.306	0.874	384199	WORD_OFF	n/a	n/a	SOFA	Furniture	7	3	[0, 0, 0]	n/a	catFR1	3	R1674A
357.18	1.602	385067	WORD	n/a	wordpools/wordpool_categorized_EN.txt	BED	Furniture	8	3	[0, 0, 0]	n/a	catFR1	3	R1674A
358.782	0.972	386669	WORD_OFF	n/a	n/a	BED	Furniture	8	3	[0, 0, 0]	n/a	catFR1	3	R1674A
359.754	1.601	387642	WORD	n/a	wordpools/wordpool_categorized_EN.txt	SCANNER	Electronics	9	3	[0, 0, 0]	n/a	catFR1	3	R1674A
361.355	0.801	389245	WORD_OFF	n/a	n/a	SCANNER	Electronics	9	3	[0, 0, 0]	n/a	catFR1	3	R1674A
362.156	1.607	390046	WORD	n/a	wordpools/wordpool_categorized_EN.txt	COMPUTER	Electronics	10	3	[0, 0, 0]	n/a	catFR1	3	R1674A
363.763	0.767	391649	WORD_OFF	n/a	n/a	COMPUTER	Electronics	10	3	[0, 0, 0]	n/a	catFR1	3	R1674A
364.53	1.61	392421	WORD	n/a	wordpools/wordpool_categorized_EN.txt	PANDA	Zoo	11	3	[0, 0, 0]	n/a	catFR1	3	R1674A
366.14	0.998	394033	WORD_OFF	n/a	n/a	PANDA	Zoo	11	3	[0, 0, 0]	n/a	catFR1	3	R1674A
367.138	1.609	395025	WORD	n/a	wordpools/wordpool_categorized_EN.txt	ORANGUTAN	Zoo	12	3	[0, 0, 0]	n/a	catFR1	3	R1674A
368.747	0.0	396635	PROB	3.857	n/a	n/a	n/a	-999	3	[5, 7, 4]	16.0	catFR1	3	R1674A
368.747	0.007	396637	WORD_OFF	n/a	n/a	ORANGUTAN	Zoo	12	3	[0, 0, 0]	n/a	catFR1	3	R1674A
368.754	0.0	396642	START	n/a	n/a	n/a	n/a	-999	3	[-999, -999, -999]	n/a	catFR1	3	R1674A
368.754	0.0	396647	ENCODING_END	n/a	n/a	n/a	n/a	-999	3	[0, 0, 0]	n/a	catFR1	3	R1674A
368.754	3.86	396647	DISTRACT_START	n/a	n/a	n/a	n/a	-999	3	[0, 0, 0]	n/a	catFR1	3	R1674A
372.614	3.825	400502	PROB	3.816	n/a	n/a	n/a	-999	3	[5, 6, 6]	17.0	catFR1	3	R1674A
376.439	2.226	404327	PROB	2.216	n/a	n/a	n/a	-999	3	[8, 8, 1]	17.0	catFR1	3	R1674A
378.665	2.89	406553	PROB	2.883	n/a	n/a	n/a	-999	3	[2, 3, 5]	10.0	catFR1	3	R1674A
381.555	3.843	409443	PROB	3.833	n/a	n/a	n/a	-999	3	[4, 7, 6]	17.0	catFR1	3	R1674A
385.398	3.008	413286	PROB	2.999	n/a	n/a	n/a	-999	3	[2, 4, 5]	11.0	catFR1	3	R1674A
388.406	3.515	416294	PROB	3.508	n/a	n/a	n/a	-999	3	[7, 2, 3]	13.0	catFR1	3	R1674A
391.921	0.0	419806	DISTRACT_END	n/a	n/a	n/a	n/a	-999	3	[0, 0, 0]	n/a	catFR1	3	R1674A
391.921	2.202	419809	STOP	n/a	n/a	n/a	n/a	-999	3	[-999, -999, -999]	n/a	catFR1	3	R1674A
394.123	2.257	422009	REC_START	n/a	n/a	n/a	n/a	-999	3	[0, 0, 0]	n/a	catFR1	3	R1674A
396.38	3.591	424268	REC_WORD_VV	2.257	n/a	<>	n/a	-999	3	[0, 0, 0]	n/a	catFR1	3	R1674A
399.971	2.113	427859	REC_WORD	5.848	n/a	ORANGUTAN	Zoo	12	3	[0, 0, 0]	n/a	catFR1	3	R1674A
402.084	3.546	429972	REC_WORD	7.961	n/a	CHIMPANZEE	Zoo	-999	3	[0, 0, 0]	n/a	catFR1	3	R1674A
405.63	0.968	433518	REC_WORD_VV	11.507	n/a	<>	n/a	-999	3	[0, 0, 0]	n/a	catFR1	3	R1674A
406.598	8.683	434486	REC_WORD	12.475	n/a	BUTTERFLY	Insects	-999	3	[0, 0, 0]	n/a	catFR1	3	R1674A
415.281	2.814	443169	REC_WORD	21.158	n/a	NIGHTSTAND	Furniture	-999	3	[0, 0, 0]	n/a	catFR1	3	R1674A
418.095	0.753	445983	REC_WORD	23.972	n/a	SCANNER	Electronics	9	3	[0, 0, 0]	n/a	catFR1	3	R1674A
418.848	5.421	446736	REC_WORD	24.725	n/a	COMPUTER	Electronics	10	3	[0, 0, 0]	n/a	catFR1	3	R1674A
424.269	2.485	452160	REC_END	n/a	n/a	n/a	n/a	-999	3	[0, 0, 0]	n/a	catFR1	3	R1674A
426.754	10.343	454650	COUNTDOWN_START	n/a	n/a	n/a	n/a	-999	4	[0, 0, 0]	n/a	catFR1	3	R1674A
437.097	0.0	464990	COUNTDOWN_END	n/a	n/a	n/a	n/a	-999	4	[0, 0, 0]	n/a	catFR1	3	R1674A
437.097	1.917	464990	ENCODING_START	n/a	n/a	n/a	n/a	-999	4	[0, 0, 0]	n/a	catFR1	3	R1674A
439.014	1.607	466907	WORD	n/a	wordpools/wordpool_categorized_EN.txt	VALLEY	Landscapes	1	4	[0, 0, 0]	n/a	catFR1	3	R1674A
440.621	0.942	468509	WORD_OFF	n/a	n/a	VALLEY	Landscapes	1	4	[0, 0, 0]	n/a	catFR1	3	R1674A
441.563	1.602	469454	WORD	n/a	wordpools/wordpool_categorized_EN.txt	WOODS	Landscapes	2	4	[0, 0, 0]	n/a	catFR1	3	R1674A
443.165	0.857	471056	WORD_OFF	n/a	n/a	WOODS	Landscapes	2	4	[0, 0, 0]	n/a	catFR1	3	R1674A
444.022	1.601	471915	WORD	n/a	wordpools/wordpool_categorized_EN.txt	CRAB	OceanAnimals	3	4	[0, 0, 0]	n/a	catFR1	3	R1674A
445.623	0.99	473517	WORD_OFF	n/a	n/a	CRAB	OceanAnimals	3	4	[0, 0, 0]	n/a	catFR1	3	R1674A
446.613	1.602	474500	WORD	n/a	wordpools/wordpool_categorized_EN.txt	SQUID	OceanAnimals	4	4	[0, 0, 0]	n/a	catFR1	3	R1674A
448.215	0.766	476102	WORD_OFF	n/a	n/a	SQUID	OceanAnimals	4	4	[0, 0, 0]	n/a	catFR1	3	R1674A
448.981	1.609	476875	WORD	n/a	wordpools/wordpool_categorized_EN.txt	TOE	BodyParts	5	4	[0, 0, 0]	n/a	catFR1	3	R1674A
450.59	0.966	478477	WORD_OFF	n/a	n/a	TOE	BodyParts	5	4	[0, 0, 0]	n/a	catFR1	3	R1674A
451.556	1.607	479450	WORD	n/a	wordpools/wordpool_categorized_EN.txt	NOSE	BodyParts	6	4	[0, 0, 0]	n/a	catFR1	3	R1674A
453.163	0.925	481052	WORD_OFF	n/a	n/a	NOSE	BodyParts	6	4	[0, 0, 0]	n/a	catFR1	3	R1674A
454.088	1.601	481978	WORD	n/a	wordpools/wordpool_categorized_EN.txt	MOUNTAIN	Landscapes	7	4	[0, 0, 0]	n/a	catFR1	3	R1674A
455.689	0.959	483580	WORD_OFF	n/a	n/a	MOUNTAIN	Landscapes	7	4	[0, 0, 0]	n/a	catFR1	3	R1674A
456.648	1.608	484534	WORD	n/a	wordpools/wordpool_categorized_EN.txt	HILLS	Landscapes	8	4	[0, 0, 0]	n/a	catFR1	3	R1674A
458.256	0.791	486146	WORD_OFF	n/a	n/a	HILLS	Landscapes	8	4	[0, 0, 0]	n/a	catFR1	3	R1674A
459.047	1.6	486938	WORD	n/a	wordpools/wordpool_categorized_EN.txt	WHALE	OceanAnimals	9	4	[0, 0, 0]	n/a	catFR1	3	R1674A
460.647	0.958	488540	WORD_OFF	n/a	n/a	WHALE	OceanAnimals	9	4	[0, 0, 0]	n/a	catFR1	3	R1674A
461.605	1.601	489494	WORD	n/a	wordpools/wordpool_categorized_EN.txt	TURTLE	OceanAnimals	10	4	[0, 0, 0]	n/a	catFR1	3	R1674A
463.206	0.907	491096	WORD_OFF	n/a	n/a	TURTLE	OceanAnimals	10	4	[0, 0, 0]	n/a	catFR1	3	R1674A
464.113	1.601	492003	WORD	n/a	wordpools/wordpool_categorized_EN.txt	LEG	BodyParts	11	4	[0, 0, 0]	n/a	catFR1	3	R1674A
465.714	0.951	493605	WORD_OFF	n/a	n/a	LEG	BodyParts	11	4	[0, 0, 0]	n/a	catFR1	3	R1674A
466.665	1.607	494550	WORD	n/a	wordpools/wordpool_categorized_EN.txt	HAND	BodyParts	12	4	[0, 0, 0]	n/a	catFR1	3	R1674A
468.272	0.0	496159	PROB	3.399	n/a	n/a	n/a	-999	4	[8, 1, 1]	10.0	catFR1	3	R1674A
468.271	0.003	496161	WORD_OFF	n/a	n/a	HAND	BodyParts	12	4	[0, 0, 0]	n/a	catFR1	3	R1674A
468.274	0.0	496161	ENCODING_END	n/a	n/a	n/a	n/a	-999	4	[0, 0, 0]	n/a	catFR1	3	R1674A
468.274	0.0	496161	DISTRACT_START	n/a	n/a	n/a	n/a	-999	4	[0, 0, 0]	n/a	catFR1	3	R1674A
468.274	3.406	496161	START	n/a	n/a	n/a	n/a	-999	4	[-999, -999, -999]	n/a	catFR1	3	R1674A
471.68	2.417	499567	PROB	2.408	n/a	n/a	n/a	-999	4	[4, 3, 3]	10.0	catFR1	3	R1674A
474.097	2.175	501984	PROB	2.166	n/a	n/a	n/a	-999	4	[8, 7, 3]	18.0	catFR1	3	R1674A
476.272	2.101	504159	PROB	2.091	n/a	n/a	n/a	-999	4	[2, 8, 2]	12.0	catFR1	3	R1674A
478.373	2.716	506260	PROB	2.708	n/a	n/a	n/a	-999	4	[4, 2, 5]	11.0	catFR1	3	R1674A
481.089	1.991	508976	PROB	1.983	n/a	n/a	n/a	-999	4	[3, 1, 5]	9.0	catFR1	3	R1674A
483.08	5.909	510967	PROB	5.899	n/a	n/a	n/a	-999	4	[7, 7, 3]	17.0	catFR1	3	R1674A
488.989	0.0	516876	STOP	n/a	n/a	n/a	n/a	-999	4	[-999, -999, -999]	n/a	catFR1	3	R1674A
488.989	2.4	516879	DISTRACT_END	n/a	n/a	n/a	n/a	-999	4	[0, 0, 0]	n/a	catFR1	3	R1674A
491.389	3.032	519278	REC_START	n/a	n/a	n/a	n/a	-999	4	[0, 0, 0]	n/a	catFR1	3	R1674A
494.421	2.407	522308	REC_WORD_VV	3.032	n/a	<>	n/a	-999	4	[0, 0, 0]	n/a	catFR1	3	R1674A
496.828	2.159	524715	REC_WORD	5.439	n/a	MOUNTAIN	Landscapes	7	4	[0, 0, 0]	n/a	catFR1	3	R1674A
498.987	1.324	526874	REC_WORD	7.598	n/a	HILLS	Landscapes	8	4	[0, 0, 0]	n/a	catFR1	3	R1674A
500.311	5.49	528198	REC_WORD	8.922	n/a	NOSE	BodyParts	6	4	[0, 0, 0]	n/a	catFR1	3	R1674A
505.801	2.315	533688	REC_WORD	14.412	n/a	JELLYFISH	OceanAnimals	-999	4	[0, 0, 0]	n/a	catFR1	3	R1674A
508.116	1.146	536003	REC_WORD	16.727	n/a	CRAB	OceanAnimals	3	4	[0, 0, 0]	n/a	catFR1	3	R1674A
509.262	7.974	537149	REC_WORD	17.873	n/a	VALLEY	Landscapes	1	4	[0, 0, 0]	n/a	catFR1	3	R1674A
517.236	2.862	545123	REC_WORD_VV	25.847	n/a	<>	n/a	-999	4	[0, 0, 0]	n/a	catFR1	3	R1674A
520.098	1.427	547985	REC_WORD	28.709	n/a	SQUID	OceanAnimals	4	4	[0, 0, 0]	n/a	catFR1	3	R1674A
521.525	2.107	549415	REC_END	n/a	n/a	n/a	n/a	-999	4	[0, 0, 0]	n/a	catFR1	3	R1674A
523.632	10.34	551523	COUNTDOWN_START	n/a	n/a	n/a	n/a	-999	5	[0, 0, 0]	n/a	catFR1	3	R1674A
533.972	0.0	561862	COUNTDOWN_END	n/a	n/a	n/a	n/a	-999	5	[0, 0, 0]	n/a	catFR1	3	R1674A
533.972	2.292	561862	ENCODING_START	n/a	n/a	n/a	n/a	-999	5	[0, 0, 0]	n/a	catFR1	3	R1674A
536.264	1.608	564151	WORD	n/a	wordpools/wordpool_categorized_EN.txt	RIVER	Landscapes	1	5	[0, 0, 0]	n/a	catFR1	3	R1674A
537.872	0.817	565763	WORD_OFF	n/a	n/a	RIVER	Landscapes	1	5	[0, 0, 0]	n/a	catFR1	3	R1674A
538.689	1.608	566574	WORD	n/a	wordpools/wordpool_categorized_EN.txt	OCEAN	Landscapes	2	5	[0, 0, 0]	n/a	catFR1	3	R1674A
540.297	0.767	568186	WORD_OFF	n/a	n/a	OCEAN	Landscapes	2	5	[0, 0, 0]	n/a	catFR1	3	R1674A
541.064	1.608	568949	WORD	n/a	wordpools/wordpool_categorized_EN.txt	PENCIL	OfficeSupplies	3	5	[0, 0, 0]	n/a	catFR1	3	R1674A
542.672	0.976	570561	WORD_OFF	n/a	n/a	PENCIL	OfficeSupplies	3	5	[0, 0, 0]	n/a	catFR1	3	R1674A
543.648	1.607	571534	WORD	n/a	wordpools/wordpool_categorized_EN.txt	STAPLER	OfficeSupplies	4	5	[0, 0, 0]	n/a	catFR1	3	R1674A
545.255	0.984	573146	WORD_OFF	n/a	n/a	STAPLER	OfficeSupplies	4	5	[0, 0, 0]	n/a	catFR1	3	R1674A
546.239	1.6	574129	WORD	n/a	wordpools/wordpool_categorized_EN.txt	PIG	FarmAnimals	5	5	[0, 0, 0]	n/a	catFR1	3	R1674A
547.839	0.858	575731	WORD_OFF	n/a	n/a	PIG	FarmAnimals	5	5	[0, 0, 0]	n/a	catFR1	3	R1674A
548.697	1.6	576590	WORD	n/a	wordpools/wordpool_categorized_EN.txt	CALF	FarmAnimals	6	5	[0, 0, 0]	n/a	catFR1	3	R1674A
550.297	0.784	578183	WORD_OFF	n/a	n/a	CALF	FarmAnimals	6	5	[0, 0, 0]	n/a	catFR1	3	R1674A
551.081	1.6	578974	WORD	n/a	wordpools/wordpool_categorized_EN.txt	TAPE	OfficeSupplies	7	5	[0, 0, 0]	n/a	catFR1	3	R1674A
552.681	0.767	580567	WORD_OFF	n/a	n/a	TAPE	OfficeSupplies	7	5	[0, 0, 0]	n/a	catFR1	3	R1674A
553.448	1.608	581340	WORD	n/a	wordpools/wordpool_categorized_EN.txt	NOTEBOOK	OfficeSupplies	8	5	[0, 0, 0]	n/a	catFR1	3	R1674A
555.056	0.782	582942	WORD_OFF	n/a	n/a	NOTEBOOK	OfficeSupplies	8	5	[0, 0, 0]	n/a	catFR1	3	R1674A
555.838	1.601	583724	WORD	n/a	wordpools/wordpool_categorized_EN.txt	BEACH	Landscapes	9	5	[0, 0, 0]	n/a	catFR1	3	R1674A
557.439	0.892	585327	WORD_OFF	n/a	n/a	BEACH	Landscapes	9	5	[0, 0, 0]	n/a	catFR1	3	R1674A
558.331	1.609	586223	WORD	n/a	wordpools/wordpool_categorized_EN.txt	LAKE	Landscapes	10	5	[0, 0, 0]	n/a	catFR1	3	R1674A
559.94	0.881	587826	WORD_OFF	n/a	n/a	LAKE	Landscapes	10	5	[0, 0, 0]	n/a	catFR1	3	R1674A
560.821	1.6	588713	WORD	n/a	wordpools/wordpool_categorized_EN.txt	HORSE	FarmAnimals	11	5	[0, 0, 0]	n/a	catFR1	3	R1674A
562.421	0.859	590306	WORD_OFF	n/a	n/a	HORSE	FarmAnimals	11	5	[0, 0, 0]	n/a	catFR1	3	R1674A
563.28	1.6	591164	WORD	n/a	wordpools/wordpool_categorized_EN.txt	LAMB	FarmAnimals	12	5	[0, 0, 0]	n/a	catFR1	3	R1674A
564.88	0.001	592767	WORD_OFF	n/a	n/a	LAMB	FarmAnimals	12	5	[0, 0, 0]	n/a	catFR1	3	R1674A
564.881	0.003	592768	PROB	2.709	n/a	n/a	n/a	-999	5	[3, 7, 2]	12.0	catFR1	3	R1674A
564.884	0.0	592771	START	n/a	n/a	n/a	n/a	-999	5	[-999, -999, -999]	n/a	catFR1	3	R1674A
564.883	0.001	592776	ENCODING_END	n/a	n/a	n/a	n/a	-999	5	[0, 0, 0]	n/a	catFR1	3	R1674A
564.884	2.713	592776	DISTRACT_START	n/a	n/a	n/a	n/a	-999	5	[0, 0, 0]	n/a	catFR1	3	R1674A
567.597	2.993	595484	PROB	2.983	n/a	n/a	n/a	-999	5	[1, 3, 4]	8.0	catFR1	3	R1674A
570.59	2.675	598477	PROB	2.666	n/a	n/a	n/a	-999	5	[3, 3, 5]	11.0	catFR1	3	R1674A
573.265	5.724	601152	PROB	5.715	n/a	n/a	n/a	-999	5	[8, 7, 8]	23.0	catFR1	3	R1674A
578.989	3.159	606876	PROB	3.149	n/a	n/a	n/a	-999	5	[8, 5, 2]	15.0	catFR1	3	R1674A
582.148	4.365	610035	PROB	4.358	n/a	n/a	n/a	-999	5	[4, 8, 4]	16.0	catFR1	3	R1674A
586.513	0.0	614400	DISTRACT_END	n/a	n/a	n/a	n/a	-999	5	[0, 0, 0]	n/a	catFR1	3	R1674A
586.513	2.11	614400	STOP	n/a	n/a	n/a	n/a	-999	5	[-999, -999, -999]	n/a	catFR1	3	R1674A
588.623	4.491	616508	REC_START	n/a	n/a	n/a	n/a	-999	5	[0, 0, 0]	n/a	catFR1	3	R1674A
593.114	5.057	621001	REC_WORD	4.491	n/a	OCEAN	Landscapes	2	5	[0, 0, 0]	n/a	catFR1	3	R1674A
598.171	20.597	626058	REC_WORD_VV	9.548	n/a	<>	n/a	-999	5	[0, 0, 0]	n/a	catFR1	3	R1674A
618.768	2.105	646659	REC_END	n/a	n/a	n/a	n/a	-999	5	[0, 0, 0]	n/a	catFR1	3	R1674A
620.873	10.34	648767	COUNTDOWN_START	n/a	n/a	n/a	n/a	-999	6	[0, 0, 0]	n/a	catFR1	3	R1674A
631.213	0.0	659097	COUNTDOWN_END	n/a	n/a	n/a	n/a	-999	6	[0, 0, 0]	n/a	catFR1	3	R1674A
631.213	2.0	659107	ENCODING_START	n/a	n/a	n/a	n/a	-999	6	[0, 0, 0]	n/a	catFR1	3	R1674A
633.213	1.6	661100	WORD	n/a	wordpools/wordpool_categorized_EN.txt	PEN	OfficeSupplies	1	6	[0, 0, 0]	n/a	catFR1	3	R1674A
634.813	0.918	662703	WORD_OFF	n/a	n/a	PEN	OfficeSupplies	1	6	[0, 0, 0]	n/a	catFR1	3	R1674A
635.731	1.6	663618	WORD	n/a	wordpools/wordpool_categorized_EN.txt	FOLDER	OfficeSupplies	2	6	[0, 0, 0]	n/a	catFR1	3	R1674A
637.331	0.766	665221	WORD_OFF	n/a	n/a	FOLDER	OfficeSupplies	2	6	[0, 0, 0]	n/a	catFR1	3	R1674A
638.097	1.599	665984	WORD	n/a	wordpools/wordpool_categorized_EN.txt	STRAINER	KitchenTools	3	6	[0, 0, 0]	n/a	catFR1	3	R1674A
639.696	0.994	667586	WORD_OFF	n/a	n/a	STRAINER	KitchenTools	3	6	[0, 0, 0]	n/a	catFR1	3	R1674A
640.69	1.608	668578	WORD	n/a	wordpools/wordpool_categorized_EN.txt	CORKSCREW	KitchenTools	4	6	[0, 0, 0]	n/a	catFR1	3	R1674A
642.298	0.875	670190	WORD_OFF	n/a	n/a	CORKSCREW	KitchenTools	4	6	[0, 0, 0]	n/a	catFR1	3	R1674A
643.173	1.6	671058	WORD	n/a	wordpools/wordpool_categorized_EN.txt	FOOT	BodyParts	5	6	[0, 0, 0]	n/a	catFR1	3	R1674A
644.773	0.917	672661	WORD_OFF	n/a	n/a	FOOT	BodyParts	5	6	[0, 0, 0]	n/a	catFR1	3	R1674A
645.69	1.607	673577	WORD	n/a	wordpools/wordpool_categorized_EN.txt	ELBOW	BodyParts	6	6	[0, 0, 0]	n/a	catFR1	3	R1674A
647.297	0.76	675189	WORD_OFF	n/a	n/a	ELBOW	BodyParts	6	6	[0, 0, 0]	n/a	catFR1	3	R1674A
648.057	1.606	675942	WORD	n/a	wordpools/wordpool_categorized_EN.txt	WHISK	KitchenTools	7	6	[0, 0, 0]	n/a	catFR1	3	R1674A
649.663	0.818	677554	WORD_OFF	n/a	n/a	WHISK	KitchenTools	7	6	[0, 0, 0]	n/a	catFR1	3	R1674A
650.481	1.607	678374	WORD	n/a	wordpools/wordpool_categorized_EN.txt	GRATER	KitchenTools	8	6	[0, 0, 0]	n/a	catFR1	3	R1674A
652.088	0.81	679977	WORD_OFF	n/a	n/a	GRATER	KitchenTools	8	6	[0, 0, 0]	n/a	catFR1	3	R1674A
652.898	1.6	680788	WORD	n/a	wordpools/wordpool_categorized_EN.txt	GLUE	OfficeSupplies	9	6	[0, 0, 0]	n/a	catFR1	3	R1674A
654.498	0.915	682390	WORD_OFF	n/a	n/a	GLUE	OfficeSupplies	9	6	[0, 0, 0]	n/a	catFR1	3	R1674A
655.413	1.6	683296	WORD	n/a	wordpools/wordpool_categorized_EN.txt	BINDER	OfficeSupplies	10	6	[0, 0, 0]	n/a	catFR1	3	R1674A
657.013	0.902	684899	WORD_OFF	n/a	n/a	BINDER	OfficeSupplies	10	6	[0, 0, 0]	n/a	catFR1	3	R1674A
657.915	1.608	685805	WORD	n/a	wordpools/wordpool_categorized_EN.txt	EAR	BodyParts	11	6	[0, 0, 0]	n/a	catFR1	3	R1674A
659.523	0.85	687407	WORD_OFF	n/a	n/a	EAR	BodyParts	11	6	[0, 0, 0]	n/a	catFR1	3	R1674A
660.373	1.608	688266	WORD	n/a	wordpools/wordpool_categorized_EN.txt	FINGERS	BodyParts	12	6	[0, 0, 0]	n/a	catFR1	3	R1674A
661.981	0.003	689868	WORD_OFF	n/a	n/a	FINGERS	BodyParts	12	6	[0, 0, 0]	n/a	catFR1	3	R1674A
661.984	0.0	689868	ENCODING_END	n/a	n/a	n/a	n/a	-999	6	[0, 0, 0]	n/a	catFR1	3	R1674A
661.981	0.003	689868	PROB	5.808	n/a	n/a	n/a	-999	6	[8, 8, 4]	20.0	catFR1	3	R1674A
661.984	0.0	689871	START	n/a	n/a	n/a	n/a	-999	6	[-999, -999, -999]	n/a	catFR1	3	R1674A
661.984	5.813	689878	DISTRACT_START	n/a	n/a	n/a	n/a	-999	6	[0, 0, 0]	n/a	catFR1	3	R1674A
667.797	2.418	695684	PROB	2.408	n/a	n/a	n/a	-999	6	[4, 6, 7]	17.0	catFR1	3	R1674A
670.215	3.158	698102	PROB	3.15	n/a	n/a	n/a	-999	6	[8, 6, 2]	16.0	catFR1	3	R1674A
673.373	3.641	701260	PROB	3.634	n/a	n/a	n/a	-999	6	[8, 3, 1]	12.0	catFR1	3	R1674A
677.014	3.692	704901	PROB	3.684	n/a	n/a	n/a	-999	6	[8, 6, 1]	15.0	catFR1	3	R1674A
680.706	2.192	708593	PROB	2.184	n/a	n/a	n/a	-999	6	[1, 1, 5]	7.0	catFR1	3	R1674A
682.898	0.0	710785	STOP	n/a	n/a	n/a	n/a	-999	6	[-999, -999, -999]	n/a	catFR1	3	R1674A
682.898	2.261	710786	DISTRACT_END	n/a	n/a	n/a	n/a	-999	6	[0, 0, 0]	n/a	catFR1	3	R1674A
685.159	4.075	713047	REC_START	n/a	n/a	n/a	n/a	-999	6	[0, 0, 0]	n/a	catFR1	3	R1674A
689.234	0.309	717121	REC_WORD_VV	4.075	n/a	<>	n/a	-999	6	[0, 0, 0]	n/a	catFR1	3	R1674A
689.543	0.604	717430	REC_WORD	4.384	n/a	CORKSCREW	KitchenTools	4	6	[0, 0, 0]	n/a	catFR1	3	R1674A
690.147	2.013	718034	REC_WORD_VV	4.988	n/a	<>	n/a	-999	6	[0, 0, 0]	n/a	catFR1	3	R1674A
692.16	6.566	720047	REC_WORD_VV	7.001	n/a	<>	n/a	-999	6	[0, 0, 0]	n/a	catFR1	3	R1674A
698.726	1.022	726613	REC_WORD_VV	13.567	n/a	<>	n/a	-999	6	[0, 0, 0]	n/a	catFR1	3	R1674A
699.748	0.627	727635	REC_WORD_VV	14.589	n/a	<>	n/a	-999	6	[0, 0, 0]	n/a	catFR1	3	R1674A
700.375	0.697	728262	REC_WORD_VV	15.216	n/a	<>	n/a	-999	6	[0, 0, 0]	n/a	catFR1	3	R1674A
701.072	0.58	728959	REC_WORD_VV	15.913	n/a	<>	n/a	-999	6	[0, 0, 0]	n/a	catFR1	3	R1674A
701.652	13.649	729539	REC_WORD_VV	16.493	n/a	<>	n/a	-999	6	[0, 0, 0]	n/a	catFR1	3	R1674A
715.301	10.987	743188	REC_END	n/a	n/a	n/a	n/a	-999	6	[0, 0, 0]	n/a	catFR1	3	R1674A
726.288	10.342	754177	COUNTDOWN_START	n/a	n/a	n/a	n/a	-999	7	[0, 0, 0]	n/a	catFR1	3	R1674A
736.63	0.0	764516	COUNTDOWN_END	n/a	n/a	n/a	n/a	-999	7	[0, 0, 0]	n/a	catFR1	3	R1674A
736.63	2.093	764516	ENCODING_START	n/a	n/a	n/a	n/a	-999	7	[0, 0, 0]	n/a	catFR1	3	R1674A
738.723	1.6	766615	WORD	n/a	wordpools/wordpool_categorized_EN.txt	KNEE	BodyParts	1	7	[0, 0, 0]	n/a	catFR1	3	R1674A
740.323	0.875	768217	WORD_OFF	n/a	n/a	KNEE	BodyParts	1	7	[0, 0, 0]	n/a	catFR1	3	R1674A
741.198	1.608	769085	WORD	n/a	wordpools/wordpool_categorized_EN.txt	EYE	BodyParts	2	7	[0, 0, 0]	n/a	catFR1	3	R1674A
742.806	0.851	770697	WORD_OFF	n/a	n/a	EYE	BodyParts	2	7	[0, 0, 0]	n/a	catFR1	3	R1674A
743.657	1.606	771546	WORD	n/a	wordpools/wordpool_categorized_EN.txt	RUM	Beverages	3	7	[0, 0, 0]	n/a	catFR1	3	R1674A
745.263	0.801	773149	WORD_OFF	n/a	n/a	RUM	Beverages	3	7	[0, 0, 0]	n/a	catFR1	3	R1674A
746.064	1.6	773950	WORD	n/a	wordpools/wordpool_categorized_EN.txt	CIDER	Beverages	4	7	[0, 0, 0]	n/a	catFR1	3	R1674A
747.664	0.984	775552	WORD_OFF	n/a	n/a	CIDER	Beverages	4	7	[0, 0, 0]	n/a	catFR1	3	R1674A
748.648	1.6	776535	WORD	n/a	wordpools/wordpool_categorized_EN.txt	JEEP	Vehicles	5	7	[0, 0, 0]	n/a	catFR1	3	R1674A
750.248	0.84	778137	WORD_OFF	n/a	n/a	JEEP	Vehicles	5	7	[0, 0, 0]	n/a	catFR1	3	R1674A
751.088	1.61	778977	WORD	n/a	wordpools/wordpool_categorized_EN.txt	TRAIN	Vehicles	6	7	[0, 0, 0]	n/a	catFR1	3	R1674A
752.698	0.975	780589	WORD_OFF	n/a	n/a	TRAIN	Vehicles	6	7	[0, 0, 0]	n/a	catFR1	3	R1674A
753.673	1.608	781561	WORD	n/a	wordpools/wordpool_categorized_EN.txt	WINE	Beverages	7	7	[0, 0, 0]	n/a	catFR1	3	R1674A
755.281	0.784	783173	WORD_OFF	n/a	n/a	WINE	Beverages	7	7	[0, 0, 0]	n/a	catFR1	3	R1674A
756.065	1.606	783956	WORD	n/a	wordpools/wordpool_categorized_EN.txt	SODA	Beverages	8	7	[0, 0, 0]	n/a	catFR1	3	R1674A
757.671	0.833	785558	WORD_OFF	n/a	n/a	SODA	Beverages	8	7	[0, 0, 0]	n/a	catFR1	3	R1674A
758.504	1.603	786388	WORD	n/a	wordpools/wordpool_categorized_EN.txt	BIKE	Vehicles	9	7	[0, 0, 0]	n/a	catFR1	3	R1674A
760.107	0.774	788000	WORD_OFF	n/a	n/a	BIKE	Vehicles	9	7	[0, 0, 0]	n/a	catFR1	3	R1674A
760.881	1.601	788773	WORD	n/a	wordpools/wordpool_categorized_EN.txt	PLANE	Vehicles	10	7	[0, 0, 0]	n/a	catFR1	3	R1674A
762.482	0.873	790365	WORD_OFF	n/a	n/a	PLANE	Vehicles	10	7	[0, 0, 0]	n/a	catFR1	3	R1674A
763.355	1.601	791243	WORD	n/a	wordpools/wordpool_categorized_EN.txt	HEAD	BodyParts	11	7	[0, 0, 0]	n/a	catFR1	3	R1674A
764.956	0.867	792845	WORD_OFF	n/a	n/a	HEAD	BodyParts	11	7	[0, 0, 0]	n/a	catFR1	3	R1674A
765.823	1.608	793713	WORD	n/a	wordpools/wordpool_categorized_EN.txt	ARM	BodyParts	12	7	[0, 0, 0]	n/a	catFR1	3	R1674A
767.431	0.0	795316	WORD_OFF	n/a	n/a	ARM	BodyParts	12	7	[0, 0, 0]	n/a	catFR1	3	R1674A
767.431	0.004	795317	PROB	5.082	n/a	n/a	n/a	-999	7	[5, 7, 1]	13.0	catFR1	3	R1674A
767.435	0.0	795321	START	n/a	n/a	n/a	n/a	-999	7	[-999, -999, -999]	n/a	catFR1	3	R1674A
767.435	0.0	795325	ENCODING_END	n/a	n/a	n/a	n/a	-999	7	[0, 0, 0]	n/a	catFR1	3	R1674A
767.435	5.087	795325	DISTRACT_START	n/a	n/a	n/a	n/a	-999	7	[0, 0, 0]	n/a	catFR1	3	R1674A
772.522	2.674	800408	PROB	2.666	n/a	n/a	n/a	-999	7	[1, 2, 1]	4.0	catFR1	3	R1674A
775.196	2.468	803082	PROB	2.459	n/a	n/a	n/a	-999	7	[8, 1, 7]	16.0	catFR1	3	R1674A
777.664	4.341	805550	PROB	4.334	n/a	n/a	n/a	-999	7	[5, 6, 3]	14.0	catFR1	3	R1674A
782.005	2.884	809891	PROB	2.875	n/a	n/a	n/a	-999	7	[6, 2, 8]	16.0	catFR1	3	R1674A
784.889	6.542	812775	PROB	6.532	n/a	n/a	n/a	-999	7	[8, 4, 7]	19.0	catFR1	3	R1674A
791.431	0.0	819315	DISTRACT_END	n/a	n/a	n/a	n/a	-999	7	[0, 0, 0]	n/a	catFR1	3	R1674A
791.431	2.333	819317	STOP	n/a	n/a	n/a	n/a	-999	7	[-999, -999, -999]	n/a	catFR1	3	R1674A
793.764	1.787	821652	REC_START	n/a	n/a	n/a	n/a	-999	7	[0, 0, 0]	n/a	catFR1	3	R1674A
795.551	1.201	823437	REC_WORD	1.787	n/a	KNEE	BodyParts	1	7	[0, 0, 0]	n/a	catFR1	3	R1674A
796.752	0.933	824638	REC_WORD	2.988	n/a	EYE	BodyParts	2	7	[0, 0, 0]	n/a	catFR1	3	R1674A
797.685	0.883	825571	REC_WORD	3.921	n/a	RUM	Beverages	3	7	[0, 0, 0]	n/a	catFR1	3	R1674A
798.568	3.924	826454	REC_WORD	4.804	n/a	CIDER	Beverages	4	7	[0, 0, 0]	n/a	catFR1	3	R1674A
802.492	4.767	830378	REC_WORD	8.728	n/a	HEAD	BodyParts	11	7	[0, 0, 0]	n/a	catFR1	3	R1674A
807.259	2.274	835145	REC_WORD_VV	13.495	n/a	<>	n/a	-999	7	[0, 0, 0]	n/a	catFR1	3	R1674A
809.533	1.486	837419	REC_WORD	15.769	n/a	PLANE	Vehicles	10	7	[0, 0, 0]	n/a	catFR1	3	R1674A
811.019	12.882	838905	REC_WORD	17.255	n/a	PLANE	Vehicles	10	7	[0, 0, 0]	n/a	catFR1	3	R1674A
823.901	1.989	851784	REC_END	n/a	n/a	n/a	n/a	-999	7	[0, 0, 0]	n/a	catFR1	3	R1674A
825.89	10.34	853777	COUNTDOWN_START	n/a	n/a	n/a	n/a	-999	8	[0, 0, 0]	n/a	catFR1	3	R1674A
836.23	0.0	864117	COUNTDOWN_END	n/a	n/a	n/a	n/a	-999	8	[0, 0, 0]	n/a	catFR1	3	R1674A
836.23	1.85	864117	ENCODING_START	n/a	n/a	n/a	n/a	-999	8	[0, 0, 0]	n/a	catFR1	3	R1674A
838.08	1.601	865967	WORD	n/a	wordpools/wordpool_categorized_EN.txt	POTATO	Vegetables	1	8	[0, 0, 0]	n/a	catFR1	3	R1674A
839.681	0.817	867570	WORD_OFF	n/a	n/a	POTATO	Vegetables	1	8	[0, 0, 0]	n/a	catFR1	3	R1674A
840.498	1.608	868390	WORD	n/a	wordpools/wordpool_categorized_EN.txt	BROCCOLI	Vegetables	2	8	[0, 0, 0]	n/a	catFR1	3	R1674A
842.106	0.858	869993	WORD_OFF	n/a	n/a	BROCCOLI	Vegetables	2	8	[0, 0, 0]	n/a	catFR1	3	R1674A
842.964	1.601	870851	WORD	n/a	wordpools/wordpool_categorized_EN.txt	MARKER	OfficeSupplies	3	8	[0, 0, 0]	n/a	catFR1	3	R1674A
844.565	0.858	872453	WORD_OFF	n/a	n/a	MARKER	OfficeSupplies	3	8	[0, 0, 0]	n/a	catFR1	3	R1674A
845.423	1.6	873312	WORD	n/a	wordpools/wordpool_categorized_EN.txt	PAPER	OfficeSupplies	4	8	[0, 0, 0]	n/a	catFR1	3	R1674A
847.023	0.941	874914	WORD_OFF	n/a	n/a	PAPER	OfficeSupplies	4	8	[0, 0, 0]	n/a	catFR1	3	R1674A
847.964	1.607	875849	WORD	n/a	wordpools/wordpool_categorized_EN.txt	ROOF	Building	5	8	[0, 0, 0]	n/a	catFR1	3	R1674A
849.571	0.76	877461	WORD_OFF	n/a	n/a	ROOF	Building	5	8	[0, 0, 0]	n/a	catFR1	3	R1674A
850.331	1.6	878215	WORD	n/a	wordpools/wordpool_categorized_EN.txt	BATHROOM	Building	6	8	[0, 0, 0]	n/a	catFR1	3	R1674A
851.931	0.85	879817	WORD_OFF	n/a	n/a	BATHROOM	Building	6	8	[0, 0, 0]	n/a	catFR1	3	R1674A
852.781	1.6	880666	WORD	n/a	wordpools/wordpool_categorized_EN.txt	CELERY	Vegetables	7	8	[0, 0, 0]	n/a	catFR1	3	R1674A
854.381	0.933	882269	WORD_OFF	n/a	n/a	CELERY	Vegetables	7	8	[0, 0, 0]	n/a	catFR1	3	R1674A
855.314	1.6	883203	WORD	n/a	wordpools/wordpool_categorized_EN.txt	SPINACH	Vegetables	8	8	[0, 0, 0]	n/a	catFR1	3	R1674A
856.914	0.951	884806	WORD_OFF	n/a	n/a	SPINACH	Vegetables	8	8	[0, 0, 0]	n/a	catFR1	3	R1674A
857.865	1.606	885750	WORD	n/a	wordpools/wordpool_categorized_EN.txt	WINDOW	Building	9	8	[0, 0, 0]	n/a	catFR1	3	R1674A
859.471	0.902	887362	WORD_OFF	n/a	n/a	WINDOW	Building	9	8	[0, 0, 0]	n/a	catFR1	3	R1674A
860.373	1.608	888259	WORD	n/a	wordpools/wordpool_categorized_EN.txt	ATTIC	Building	10	8	[0, 0, 0]	n/a	catFR1	3	R1674A
861.981	0.983	889871	WORD_OFF	n/a	n/a	ATTIC	Building	10	8	[0, 0, 0]	n/a	catFR1	3	R1674A
862.964	1.6	890853	WORD	n/a	wordpools/wordpool_categorized_EN.txt	ERASER	OfficeSupplies	11	8	[0, 0, 0]	n/a	catFR1	3	R1674A
864.564	0.834	892456	WORD_OFF	n/a	n/a	ERASER	OfficeSupplies	11	8	[0, 0, 0]	n/a	catFR1	3	R1674A
865.398	1.608	893285	WORD	n/a	wordpools/wordpool_categorized_EN.txt	RULER	OfficeSupplies	12	8	[0, 0, 0]	n/a	catFR1	3	R1674A
867.006	0.003	894892	PROB	4.907	n/a	n/a	n/a	-999	8	[6, 8, 6]	20.0	catFR1	3	R1674A
867.009	0.0	894895	START	n/a	n/a	n/a	n/a	-999	8	[-999, -999, -999]	n/a	catFR1	3	R1674A
867.006	0.003	894897	WORD_OFF	n/a	n/a	RULER	OfficeSupplies	12	8	[0, 0, 0]	n/a	catFR1	3	R1674A
867.009	0.0	894897	ENCODING_END	n/a	n/a	n/a	n/a	-999	8	[0, 0, 0]	n/a	catFR1	3	R1674A
867.009	4.914	894897	DISTRACT_START	n/a	n/a	n/a	n/a	-999	8	[0, 0, 0]	n/a	catFR1	3	R1674A
871.923	2.981	899809	PROB	2.966	n/a	n/a	n/a	-999	8	[1, 6, 3]	10.0	catFR1	3	R1674A
874.904	16.001	902790	PROB	15.991	n/a	n/a	n/a	-999	8	[7, 2, 6]	15.0	catFR1	3	R1674A
890.905	0.0	918791	DISTRACT_END	n/a	n/a	n/a	n/a	-999	8	[0, 0, 0]	n/a	catFR1	3	R1674A
890.905	2.017	918791	STOP	n/a	n/a	n/a	n/a	-999	8	[-999, -999, -999]	n/a	catFR1	3	R1674A
892.922	3.537	920813	REC_START	n/a	n/a	n/a	n/a	-999	8	[0, 0, 0]	n/a	catFR1	3	R1674A
896.459	0.766	924345	REC_WORD_VV	3.537	n/a	<>	n/a	-999	8	[0, 0, 0]	n/a	catFR1	3	R1674A
897.225	5.387	925111	REC_WORD_VV	4.303	n/a	<>	n/a	-999	8	[0, 0, 0]	n/a	catFR1	3	R1674A
902.612	20.454	930498	REC_WORD	9.69	n/a	RULER	OfficeSupplies	12	8	[0, 0, 0]	n/a	catFR1	3	R1674A
923.066	3.682	950955	REC_END	n/a	n/a	n/a	n/a	-999	8	[0, 0, 0]	n/a	catFR1	3	R1674A
926.748	10.349	954637	COUNTDOWN_START	n/a	n/a	n/a	n/a	-999	9	[0, 0, 0]	n/a	catFR1	3	R1674A
937.097	0.0	964986	COUNTDOWN_END	n/a	n/a	n/a	n/a	-999	9	[0, 0, 0]	n/a	catFR1	3	R1674A
937.097	1.985	964986	ENCODING_START	n/a	n/a	n/a	n/a	-999	9	[0, 0, 0]	n/a	catFR1	3	R1674A
939.082	1.6	966970	WORD	n/a	wordpools/wordpool_categorized_EN.txt	PEACH	Fruit	1	9	[0, 0, 0]	n/a	catFR1	3	R1674A
940.682	0.766	968572	WORD_OFF	n/a	n/a	PEACH	Fruit	1	9	[0, 0, 0]	n/a	catFR1	3	R1674A
941.448	1.6	969336	WORD	n/a	wordpools/wordpool_categorized_EN.txt	ORANGE	Fruit	2	9	[0, 0, 0]	n/a	catFR1	3	R1674A
943.048	0.808	970938	WORD_OFF	n/a	n/a	ORANGE	Fruit	2	9	[0, 0, 0]	n/a	catFR1	3	R1674A
943.856	1.6	971739	WORD	n/a	wordpools/wordpool_categorized_EN.txt	HICKORY	Trees	3	9	[0, 0, 0]	n/a	catFR1	3	R1674A
945.456	0.834	973342	WORD_OFF	n/a	n/a	HICKORY	Trees	3	9	[0, 0, 0]	n/a	catFR1	3	R1674A
946.29	1.6	974181	WORD	n/a	wordpools/wordpool_categorized_EN.txt	SPRUCE	Trees	4	9	[0, 0, 0]	n/a	catFR1	3	R1674A
947.89	0.823	975774	WORD_OFF	n/a	n/a	SPRUCE	Trees	4	9	[0, 0, 0]	n/a	catFR1	3	R1674A
948.713	1.602	976604	WORD	n/a	wordpools/wordpool_categorized_EN.txt	LADLE	KitchenTools	5	9	[0, 0, 0]	n/a	catFR1	3	R1674A
950.315	0.833	978206	WORD_OFF	n/a	n/a	LADLE	KitchenTools	5	9	[0, 0, 0]	n/a	catFR1	3	R1674A
951.148	1.6	979036	WORD	n/a	wordpools/wordpool_categorized_EN.txt	SPATULA	KitchenTools	6	9	[0, 0, 0]	n/a	catFR1	3	R1674A
952.748	0.775	980639	WORD_OFF	n/a	n/a	SPATULA	KitchenTools	6	9	[0, 0, 0]	n/a	catFR1	3	R1674A
953.523	1.608	981411	WORD	n/a	wordpools/wordpool_categorized_EN.txt	ELM	Trees	7	9	[0, 0, 0]	n/a	catFR1	3	R1674A
955.131	0.808	983023	WORD_OFF	n/a	n/a	ELM	Trees	7	9	[0, 0, 0]	n/a	catFR1	3	R1674A
955.939	1.601	983824	WORD	n/a	wordpools/wordpool_categorized_EN.txt	BIRCH	Trees	8	9	[0, 0, 0]	n/a	catFR1	3	R1674A
957.54	0.775	985427	WORD_OFF	n/a	n/a	BIRCH	Trees	8	9	[0, 0, 0]	n/a	catFR1	3	R1674A
958.315	1.607	986200	WORD	n/a	wordpools/wordpool_categorized_EN.txt	PEAR	Fruit	9	9	[0, 0, 0]	n/a	catFR1	3	R1674A
959.922	0.851	987812	WORD_OFF	n/a	n/a	PEAR	Fruit	9	9	[0, 0, 0]	n/a	catFR1	3	R1674A
960.773	1.607	988660	WORD	n/a	wordpools/wordpool_categorized_EN.txt	BLUEBERRY	Fruit	10	9	[0, 0, 0]	n/a	catFR1	3	R1674A
962.38	0.866	990268	WORD_OFF	n/a	n/a	BLUEBERRY	Fruit	10	9	[0, 0, 0]	n/a	catFR1	3	R1674A
963.246	1.602	991131	WORD	n/a	wordpools/wordpool_categorized_EN.txt	COLANDER	KitchenTools	11	9	[0, 0, 0]	n/a	catFR1	3	R1674A
964.848	0.758	992733	WORD_OFF	n/a	n/a	COLANDER	KitchenTools	11	9	[0, 0, 0]	n/a	catFR1	3	R1674A
965.606	1.608	993496	WORD	n/a	wordpools/wordpool_categorized_EN.txt	SPOON	KitchenTools	12	9	[0, 0, 0]	n/a	catFR1	3	R1674A
967.214	0.0	995099	WORD_OFF	n/a	n/a	SPOON	KitchenTools	12	9	[0, 0, 0]	n/a	catFR1	3	R1674A
967.214	0.003	995100	PROB	6.532	n/a	n/a	n/a	-999	9	[6, 7, 5]	18.0	catFR1	3	R1674A
967.217	0.0	995103	START	n/a	n/a	n/a	n/a	-999	9	[-999, -999, -999]	n/a	catFR1	3	R1674A
967.217	0.0	995108	ENCODING_END	n/a	n/a	n/a	n/a	-999	9	[0, 0, 0]	n/a	catFR1	3	R1674A
967.217	6.539	995108	DISTRACT_START	n/a	n/a	n/a	n/a	-999	9	[0, 0, 0]	n/a	catFR1	3	R1674A
973.756	4.042	1001642	PROB	4.032	n/a	n/a	n/a	-999	9	[3, 4, 7]	14.0	catFR1	3	R1674A
977.798	2.65	1005684	PROB	2.641	n/a	n/a	n/a	-999	9	[6, 1, 5]	12.0	catFR1	3	R1674A
980.448	2.45	1008334	PROB	2.442	n/a	n/a	n/a	-999	9	[3, 7, 2]	12.0	catFR1	3	R1674A
982.898	3.767	1010784	PROB	3.757	n/a	n/a	n/a	-999	9	[6, 8, 6]	20.0	catFR1	3	R1674A
986.665	3.315	1014551	PROB	3.307	n/a	n/a	n/a	-999	9	[1, 7, 6]	14.0	catFR1	3	R1674A
989.98	0.0	1017866	STOP	n/a	n/a	n/a	n/a	-999	9	[-999, -999, -999]	n/a	catFR1	3	R1674A
989.98	2.368	1017867	DISTRACT_END	n/a	n/a	n/a	n/a	-999	9	[0, 0, 0]	n/a	catFR1	3	R1674A
992.348	1.068	1020233	REC_START	n/a	n/a	n/a	n/a	-999	9	[0, 0, 0]	n/a	catFR1	3	R1674A
993.416	1.748	1021302	REC_WORD	1.068	n/a	SPATULA	KitchenTools	6	9	[0, 0, 0]	n/a	catFR1	3	R1674A
995.164	0.65	1023050	REC_WORD_VV	2.816	n/a	<>	n/a	-999	9	[0, 0, 0]	n/a	catFR1	3	R1674A
995.814	0.643	1023700	REC_WORD_VV	3.466	n/a	<>	n/a	-999	9	[0, 0, 0]	n/a	catFR1	3	R1674A
996.457	0.63	1024343	REC_WORD	4.109	n/a	ELM	Trees	7	9	[0, 0, 0]	n/a	catFR1	3	R1674A
997.087	1.088	1024973	REC_WORD	4.739	n/a	SPRUCE	Trees	4	9	[0, 0, 0]	n/a	catFR1	3	R1674A
998.175	3.317	1026061	REC_WORD	5.827	n/a	LADLE	KitchenTools	5	9	[0, 0, 0]	n/a	catFR1	3	R1674A
1001.492	1.772	1029378	REC_WORD_VV	9.144	n/a	<>	n/a	-999	9	[0, 0, 0]	n/a	catFR1	3	R1674A
1003.264	19.227	1031150	REC_WORD	10.916	n/a	CELERY	Vegetables	-999	9	[0, 0, 0]	n/a	catFR1	3	R1674A
1022.491	2.19	1050374	REC_END	n/a	n/a	n/a	n/a	-999	9	[0, 0, 0]	n/a	catFR1	3	R1674A
1024.681	10.341	1052568	COUNTDOWN_START	n/a	n/a	n/a	n/a	-999	10	[0, 0, 0]	n/a	catFR1	3	R1674A
1035.022	0.0	1062908	COUNTDOWN_END	n/a	n/a	n/a	n/a	-999	10	[0, 0, 0]	n/a	catFR1	3	R1674A
1035.022	1.976	1062917	ENCODING_START	n/a	n/a	n/a	n/a	-999	10	[0, 0, 0]	n/a	catFR1	3	R1674A
1036.998	1.6	1064882	WORD	n/a	wordpools/wordpool_categorized_EN.txt	EVERGREEN	Trees	1	10	[0, 0, 0]	n/a	catFR1	3	R1674A
1038.598	0.875	1066485	WORD_OFF	n/a	n/a	EVERGREEN	Trees	1	10	[0, 0, 0]	n/a	catFR1	3	R1674A
1039.473	1.608	1067362	WORD	n/a	wordpools/wordpool_categorized_EN.txt	CEDAR	Trees	2	10	[0, 0, 0]	n/a	catFR1	3	R1674A
1041.081	0.934	1068965	WORD_OFF	n/a	n/a	CEDAR	Trees	2	10	[0, 0, 0]	n/a	catFR1	3	R1674A
1042.015	1.608	1069899	WORD	n/a	wordpools/wordpool_categorized_EN.txt	CAR	Vehicles	3	10	[0, 0, 0]	n/a	catFR1	3	R1674A
1043.623	0.982	1071511	WORD_OFF	n/a	n/a	CAR	Vehicles	3	10	[0, 0, 0]	n/a	catFR1	3	R1674A
1044.605	1.601	1072494	WORD	n/a	wordpools/wordpool_categorized_EN.txt	TRUCK	Vehicles	4	10	[0, 0, 0]	n/a	catFR1	3	R1674A
1046.206	0.882	1074096	WORD_OFF	n/a	n/a	TRUCK	Vehicles	4	10	[0, 0, 0]	n/a	catFR1	3	R1674A
1047.088	1.61	1074974	WORD	n/a	wordpools/wordpool_categorized_EN.txt	RADIO	Electronics	5	10	[0, 0, 0]	n/a	catFR1	3	R1674A
1048.698	0.849	1076586	WORD_OFF	n/a	n/a	RADIO	Electronics	5	10	[0, 0, 0]	n/a	catFR1	3	R1674A
1049.547	1.609	1077435	WORD	n/a	wordpools/wordpool_categorized_EN.txt	CALCULATOR	Electronics	6	10	[0, 0, 0]	n/a	catFR1	3	R1674A
1051.156	0.824	1079047	WORD_OFF	n/a	n/a	CALCULATOR	Electronics	6	10	[0, 0, 0]	n/a	catFR1	3	R1674A
1051.98	1.601	1079867	WORD	n/a	wordpools/wordpool_categorized_EN.txt	PINE	Trees	7	10	[0, 0, 0]	n/a	catFR1	3	R1674A
1053.581	0.784	1081470	WORD_OFF	n/a	n/a	PINE	Trees	7	10	[0, 0, 0]	n/a	catFR1	3	R1674A
1054.365	1.608	1082252	WORD	n/a	wordpools/wordpool_categorized_EN.txt	WALNUT	Trees	8	10	[0, 0, 0]	n/a	catFR1	3	R1674A
1055.973	0.967	1083864	WORD_OFF	n/a	n/a	WALNUT	Trees	8	10	[0, 0, 0]	n/a	catFR1	3	R1674A
1056.94	1.599	1084827	WORD	n/a	wordpools/wordpool_categorized_EN.txt	PRINTER	Electronics	9	10	[0, 0, 0]	n/a	catFR1	3	R1674A
1058.539	0.909	1086430	WORD_OFF	n/a	n/a	PRINTER	Electronics	9	10	[0, 0, 0]	n/a	catFR1	3	R1674A
1059.448	1.608	1087336	WORD	n/a	wordpools/wordpool_categorized_EN.txt	SPEAKER	Electronics	10	10	[0, 0, 0]	n/a	catFR1	3	R1674A
1061.056	0.891	1088948	WORD_OFF	n/a	n/a	SPEAKER	Electronics	10	10	[0, 0, 0]	n/a	catFR1	3	R1674A
1061.947	1.609	1089835	WORD	n/a	wordpools/wordpool_categorized_EN.txt	BUS	Vehicles	11	10	[0, 0, 0]	n/a	catFR1	3	R1674A
1063.556	0.991	1091447	WORD_OFF	n/a	n/a	BUS	Vehicles	11	10	[0, 0, 0]	n/a	catFR1	3	R1674A
1064.547	1.6	1092431	WORD	n/a	wordpools/wordpool_categorized_EN.txt	MOTORCYCLE	Vehicles	12	10	[0, 0, 0]	n/a	catFR1	3	R1674A
1066.147	0.0	1094032	WORD_OFF	n/a	n/a	MOTORCYCLE	Vehicles	12	10	[0, 0, 0]	n/a	catFR1	3	R1674A
1066.147	0.003	1094032	PROB	3.099	n/a	n/a	n/a	-999	10	[7, 7, 2]	18.0	catFR1	3	R1674A
1066.15	0.0	1094035	START	n/a	n/a	n/a	n/a	-999	10	[-999, -999, -999]	n/a	catFR1	3	R1674A
1066.15	0.0	1094041	ENCODING_END	n/a	n/a	n/a	n/a	-999	10	[0, 0, 0]	n/a	catFR1	3	R1674A
1066.15	3.107	1094041	DISTRACT_START	n/a	n/a	n/a	n/a	-999	10	[0, 0, 0]	n/a	catFR1	3	R1674A
1069.257	4.915	1097142	PROB	4.908	n/a	n/a	n/a	-999	10	[1, 2, 5]	8.0	catFR1	3	R1674A
1074.172	3.927	1102057	PROB	3.916	n/a	n/a	n/a	-999	10	[8, 1, 6]	15.0	catFR1	3	R1674A
1078.099	5.315	1105984	PROB	5.307	n/a	n/a	n/a	-999	10	[6, 2, 7]	13.0	catFR1	3	R1674A
1083.414	4.6	1111299	PROB	4.591	n/a	n/a	n/a	-999	10	[8, 1, 3]	12.0	catFR1	3	R1674A
1088.014	0.0	1115899	STOP	n/a	n/a	n/a	n/a	-999	10	[-999, -999, -999]	n/a	catFR1	3	R1674A
1088.014	2.092	1115903	DISTRACT_END	n/a	n/a	n/a	n/a	-999	10	[0, 0, 0]	n/a	catFR1	3	R1674A
1090.106	2.899	1117992	REC_START	n/a	n/a	n/a	n/a	-999	10	[0, 0, 0]	n/a	catFR1	3	R1674A
1093.005	1.391	1120890	REC_WORD	2.899	n/a	SPRUCE	Trees	-999	10	[0, 0, 0]	n/a	catFR1	3	R1674A
1094.396	6.229	1122281	REC_WORD	4.29	n/a	EVERGREEN	Trees	1	10	[0, 0, 0]	n/a	catFR1	3	R1674A
1100.625	5.383	1128510	REC_WORD_VV	10.519	n/a	<>	n/a	-999	10	[0, 0, 0]	n/a	catFR1	3	R1674A
1106.008	0.708	1133893	REC_WORD	15.902	n/a	HICKORY	Trees	-999	10	[0, 0, 0]	n/a	catFR1	3	R1674A
1106.716	13.536	1134601	REC_WORD_VV	16.61	n/a	<>	n/a	-999	10	[0, 0, 0]	n/a	catFR1	3	R1674A
1120.252	5.795	1148134	REC_END	n/a	n/a	n/a	n/a	-999	10	[0, 0, 0]	n/a	catFR1	3	R1674A
1126.047	10.343	1153933	COUNTDOWN_START	n/a	n/a	n/a	n/a	-999	11	[0, 0, 0]	n/a	catFR1	3	R1674A
1136.39	0.0	1164273	COUNTDOWN_END	n/a	n/a	n/a	n/a	-999	11	[0, 0, 0]	n/a	catFR1	3	R1674A
1136.39	2.3	1164282	ENCODING_START	n/a	n/a	n/a	n/a	-999	11	[0, 0, 0]	n/a	catFR1	3	R1674A
1138.69	1.608	1166581	WORD	n/a	wordpools/wordpool_categorized_EN.txt	LILY	Flowers	1	11	[0, 0, 0]	n/a	catFR1	3	R1674A
1140.298	0.94	1168184	WORD_OFF	n/a	n/a	LILY	Flowers	1	11	[0, 0, 0]	n/a	catFR1	3	R1674A
1141.238	1.6	1169128	WORD	n/a	wordpools/wordpool_categorized_EN.txt	LILAC	Flowers	2	11	[0, 0, 0]	n/a	catFR1	3	R1674A
1142.838	0.883	1170721	WORD_OFF	n/a	n/a	LILAC	Flowers	2	11	[0, 0, 0]	n/a	catFR1	3	R1674A
1143.721	1.6	1171608	WORD	n/a	wordpools/wordpool_categorized_EN.txt	OVEN	Appliances	3	11	[0, 0, 0]	n/a	catFR1	3	R1674A
1145.321	0.81	1173210	WORD_OFF	n/a	n/a	OVEN	Appliances	3	11	[0, 0, 0]	n/a	catFR1	3	R1674A
1146.131	1.599	1174021	WORD	n/a	wordpools/wordpool_categorized_EN.txt	MIXER	Appliances	4	11	[0, 0, 0]	n/a	catFR1	3	R1674A
1147.73	0.976	1175614	WORD_OFF	n/a	n/a	MIXER	Appliances	4	11	[0, 0, 0]	n/a	catFR1	3	R1674A
1148.706	1.608	1176597	WORD	n/a	wordpools/wordpool_categorized_EN.txt	OAK	Trees	5	11	[0, 0, 0]	n/a	catFR1	3	R1674A
1150.314	0.884	1178199	WORD_OFF	n/a	n/a	OAK	Trees	5	11	[0, 0, 0]	n/a	catFR1	3	R1674A
1151.198	1.609	1179086	WORD	n/a	wordpools/wordpool_categorized_EN.txt	CYPRESS	Trees	6	11	[0, 0, 0]	n/a	catFR1	3	R1674A
1152.807	0.974	1180698	WORD_OFF	n/a	n/a	CYPRESS	Trees	6	11	[0, 0, 0]	n/a	catFR1	3	R1674A
1153.781	1.609	1181671	WORD	n/a	wordpools/wordpool_categorized_EN.txt	FREEZER	Appliances	7	11	[0, 0, 0]	n/a	catFR1	3	R1674A
1155.39	0.916	1183274	WORD_OFF	n/a	n/a	FREEZER	Appliances	7	11	[0, 0, 0]	n/a	catFR1	3	R1674A
1156.306	1.6	1184189	WORD	n/a	wordpools/wordpool_categorized_EN.txt	IRON	Appliances	8	11	[0, 0, 0]	n/a	catFR1	3	R1674A
1157.906	0.842	1185792	WORD_OFF	n/a	n/a	IRON	Appliances	8	11	[0, 0, 0]	n/a	catFR1	3	R1674A
1158.748	1.609	1186631	WORD	n/a	wordpools/wordpool_categorized_EN.txt	PETUNIA	Flowers	9	11	[0, 0, 0]	n/a	catFR1	3	R1674A
1160.357	0.806	1188243	WORD_OFF	n/a	n/a	PETUNIA	Flowers	9	11	[0, 0, 0]	n/a	catFR1	3	R1674A
1161.163	1.601	1189054	WORD	n/a	wordpools/wordpool_categorized_EN.txt	DAFFODIL	Flowers	10	11	[0, 0, 0]	n/a	catFR1	3	R1674A
1162.764	0.817	1190647	WORD_OFF	n/a	n/a	DAFFODIL	Flowers	10	11	[0, 0, 0]	n/a	catFR1	3	R1674A
1163.581	1.607	1191467	WORD	n/a	wordpools/wordpool_categorized_EN.txt	MAPLE	Trees	11	11	[0, 0, 0]	n/a	catFR1	3	R1674A
1165.188	0.975	1193070	WORD_OFF	n/a	n/a	MAPLE	Trees	11	11	[0, 0, 0]	n/a	catFR1	3	R1674A
1166.163	1.602	1194052	WORD	n/a	wordpools/wordpool_categorized_EN.txt	WILLOW	Trees	12	11	[0, 0, 0]	n/a	catFR1	3	R1674A
1167.765	0.002	1195650	PROB	3.858	n/a	n/a	n/a	-999	11	[8, 1, 5]	14.0	catFR1	3	R1674A
1167.767	0.0	1195652	START	n/a	n/a	n/a	n/a	-999	11	[-999, -999, -999]	n/a	catFR1	3	R1674A
1167.764	0.003	1195654	WORD_OFF	n/a	n/a	WILLOW	Trees	12	11	[0, 0, 0]	n/a	catFR1	3	R1674A
1167.767	0.0	1195654	ENCODING_END	n/a	n/a	n/a	n/a	-999	11	[0, 0, 0]	n/a	catFR1	3	R1674A
1167.767	3.863	1195654	DISTRACT_START	n/a	n/a	n/a	n/a	-999	11	[0, 0, 0]	n/a	catFR1	3	R1674A
1171.63	2.56	1199515	PROB	2.549	n/a	n/a	n/a	-999	11	[5, 2, 3]	10.0	catFR1	3	R1674A
1174.19	2.491	1202075	PROB	2.482	n/a	n/a	n/a	-999	11	[2, 1, 1]	4.0	catFR1	3	R1674A
1176.681	2.49	1204566	PROB	2.483	n/a	n/a	n/a	-999	11	[3, 6, 4]	13.0	catFR1	3	R1674A
1179.171	3.711	1207056	PROB	3.7	n/a	n/a	n/a	-999	11	[8, 8, 6]	22.0	catFR1	3	R1674A
1182.882	2.698	1210767	PROB	2.692	n/a	n/a	n/a	-999	11	[4, 4, 1]	9.0	catFR1	3	R1674A
1185.58	2.192	1213465	PROB	2.184	n/a	n/a	n/a	-999	11	[2, 2, 5]	9.0	catFR1	3	R1674A
1187.772	0.0	1215657	DISTRACT_END	n/a	n/a	n/a	n/a	-999	11	[0, 0, 0]	n/a	catFR1	3	R1674A
1187.772	2.067	1215657	STOP	n/a	n/a	n/a	n/a	-999	11	[-999, -999, -999]	n/a	catFR1	3	R1674A
1189.839	1.351	1217726	REC_START	n/a	n/a	n/a	n/a	-999	11	[0, 0, 0]	n/a	catFR1	3	R1674A
1191.19	1.74	1219075	REC_WORD	1.351	n/a	CYPRESS	Trees	6	11	[0, 0, 0]	n/a	catFR1	3	R1674A
1192.93	1.44	1220815	REC_WORD	3.091	n/a	LILY	Flowers	1	11	[0, 0, 0]	n/a	catFR1	3	R1674A
1194.37	1.171	1222255	REC_WORD	4.531	n/a	DAFFODIL	Flowers	10	11	[0, 0, 0]	n/a	catFR1	3	R1674A
1195.541	4.02	1223426	REC_WORD	5.702	n/a	PETUNIA	Flowers	9	11	[0, 0, 0]	n/a	catFR1	3	R1674A
1199.561	2.253	1227446	REC_WORD	9.722	n/a	HICKORY	Trees	-999	11	[0, 0, 0]	n/a	catFR1	3	R1674A
1201.814	0.72	1229699	REC_WORD	11.975	n/a	WILLOW	Trees	12	11	[0, 0, 0]	n/a	catFR1	3	R1674A
1202.534	1.0	1230419	REC_WORD_VV	12.695	n/a	<>	n/a	-999	11	[0, 0, 0]	n/a	catFR1	3	R1674A
1203.534	1.0	1231419	REC_WORD_VV	13.695	n/a	<>	n/a	-999	11	[0, 0, 0]	n/a	catFR1	3	R1674A
1204.534	15.444	1232419	REC_WORD_VV	14.695	n/a	<>	n/a	-999	11	[0, 0, 0]	n/a	catFR1	3	R1674A
1219.978	3.452	1247868	REC_END	n/a	n/a	n/a	n/a	-999	11	[0, 0, 0]	n/a	catFR1	3	R1674A
1223.43	10.341	1251321	COUNTDOWN_START	n/a	n/a	n/a	n/a	-999	12	[0, 0, 0]	n/a	catFR1	3	R1674A
1233.771	0.001	1261661	COUNTDOWN_END	n/a	n/a	n/a	n/a	-999	12	[0, 0, 0]	n/a	catFR1	3	R1674A
1233.772	2.2	1261661	ENCODING_START	n/a	n/a	n/a	n/a	-999	12	[0, 0, 0]	n/a	catFR1	3	R1674A
1235.972	1.6	1263854	WORD	n/a	wordpools/wordpool_categorized_EN.txt	DRIZZLE	Weather	1	12	[0, 0, 0]	n/a	catFR1	3	R1674A
1237.572	0.769	1265457	WORD_OFF	n/a	n/a	DRIZZLE	Weather	1	12	[0, 0, 0]	n/a	catFR1	3	R1674A
1238.341	1.606	1266229	WORD	n/a	wordpools/wordpool_categorized_EN.txt	HURRICANE	Weather	2	12	[0, 0, 0]	n/a	catFR1	3	R1674A
1239.947	0.859	1267832	WORD_OFF	n/a	n/a	HURRICANE	Weather	2	12	[0, 0, 0]	n/a	catFR1	3	R1674A
1240.806	1.6	1268690	WORD	n/a	wordpools/wordpool_categorized_EN.txt	VIOLET	Flowers	3	12	[0, 0, 0]	n/a	catFR1	3	R1674A
1242.406	0.892	1270293	WORD_OFF	n/a	n/a	VIOLET	Flowers	3	12	[0, 0, 0]	n/a	catFR1	3	R1674A
1243.298	1.608	1271189	WORD	n/a	wordpools/wordpool_categorized_EN.txt	ORCHID	Flowers	4	12	[0, 0, 0]	n/a	catFR1	3	R1674A
1244.906	0.85	1272792	WORD_OFF	n/a	n/a	ORCHID	Flowers	4	12	[0, 0, 0]	n/a	catFR1	3	R1674A
1245.756	1.599	1273641	WORD	n/a	wordpools/wordpool_categorized_EN.txt	FISH	OceanAnimals	5	12	[0, 0, 0]	n/a	catFR1	3	R1674A
1247.355	0.992	1275243	WORD_OFF	n/a	n/a	FISH	OceanAnimals	5	12	[0, 0, 0]	n/a	catFR1	3	R1674A
1248.347	1.599	1276235	WORD	n/a	wordpools/wordpool_categorized_EN.txt	DOLPHIN	OceanAnimals	6	12	[0, 0, 0]	n/a	catFR1	3	R1674A
1249.946	0.867	1277828	WORD_OFF	n/a	n/a	DOLPHIN	OceanAnimals	6	12	[0, 0, 0]	n/a	catFR1	3	R1674A
1250.813	1.61	1278696	WORD	n/a	wordpools/wordpool_categorized_EN.txt	SNOW	Weather	7	12	[0, 0, 0]	n/a	catFR1	3	R1674A
1252.423	0.84	1280308	WORD_OFF	n/a	n/a	SNOW	Weather	7	12	[0, 0, 0]	n/a	catFR1	3	R1674A
1253.263	1.61	1281148	WORD	n/a	wordpools/wordpool_categorized_EN.txt	LIGHTNING	Weather	8	12	[0, 0, 0]	n/a	catFR1	3	R1674A
1254.873	0.874	1282760	WORD_OFF	n/a	n/a	LIGHTNING	Weather	8	12	[0, 0, 0]	n/a	catFR1	3	R1674A
1255.747	1.602	1283637	WORD	n/a	wordpools/wordpool_categorized_EN.txt	OCTOPUS	OceanAnimals	9	12	[0, 0, 0]	n/a	catFR1	3	R1674A
1257.349	0.84	1285238	WORD_OFF	n/a	n/a	OCTOPUS	OceanAnimals	9	12	[0, 0, 0]	n/a	catFR1	3	R1674A
1258.189	1.601	1286079	WORD	n/a	wordpools/wordpool_categorized_EN.txt	PLANKTON	OceanAnimals	10	12	[0, 0, 0]	n/a	catFR1	3	R1674A
1259.79	0.915	1287672	WORD_OFF	n/a	n/a	PLANKTON	OceanAnimals	10	12	[0, 0, 0]	n/a	catFR1	3	R1674A
1260.705	1.602	1288588	WORD	n/a	wordpools/wordpool_categorized_EN.txt	MARIGOLD	Flowers	11	12	[0, 0, 0]	n/a	catFR1	3	R1674A
1262.307	0.883	1290200	WORD_OFF	n/a	n/a	MARIGOLD	Flowers	11	12	[0, 0, 0]	n/a	catFR1	3	R1674A
1263.19	1.606	1291077	WORD	n/a	wordpools/wordpool_categorized_EN.txt	SUNFLOWER	Flowers	12	12	[0, 0, 0]	n/a	catFR1	3	R1674A
1264.796	0.001	1292680	WORD_OFF	n/a	n/a	SUNFLOWER	Flowers	12	12	[0, 0, 0]	n/a	catFR1	3	R1674A
1264.797	0.002	1292682	PROB	2.691	n/a	n/a	n/a	-999	12	[8, 5, 5]	18.0	catFR1	3	R1674A
1264.799	0.0	1292684	START	n/a	n/a	n/a	n/a	-999	12	[-999, -999, -999]	n/a	catFR1	3	R1674A
1264.799	0.0	1292689	ENCODING_END	n/a	n/a	n/a	n/a	-999	12	[0, 0, 0]	n/a	catFR1	3	R1674A
1264.799	2.699	1292689	DISTRACT_START	n/a	n/a	n/a	n/a	-999	12	[0, 0, 0]	n/a	catFR1	3	R1674A
1267.498	3.584	1295383	PROB	3.574	n/a	n/a	n/a	-999	12	[6, 6, 5]	17.0	catFR1	3	R1674A
1271.082	5.799	1298967	PROB	5.791	n/a	n/a	n/a	-999	12	[7, 6, 2]	15.0	catFR1	3	R1674A
1276.881	4.124	1304766	PROB	4.117	n/a	n/a	n/a	-999	12	[7, 3, 4]	14.0	catFR1	3	R1674A
1281.005	2.477	1308890	PROB	2.466	n/a	n/a	n/a	-999	12	[4, 5, 5]	14.0	catFR1	3	R1674A
1283.482	4.256	1311367	PROB	4.249	n/a	n/a	n/a	-999	12	[8, 7, 6]	21.0	catFR1	3	R1674A
1287.738	0.0	1315620	DISTRACT_END	n/a	n/a	n/a	n/a	-999	12	[0, 0, 0]	n/a	catFR1	3	R1674A
1287.738	2.234	1315623	STOP	n/a	n/a	n/a	n/a	-999	12	[-999, -999, -999]	n/a	catFR1	3	R1674A
1289.972	1.298	1317861	REC_START	n/a	n/a	n/a	n/a	-999	12	[0, 0, 0]	n/a	catFR1	3	R1674A
1291.27	5.935	1319155	REC_WORD	1.298	n/a	ORCHID	Flowers	4	12	[0, 0, 0]	n/a	catFR1	3	R1674A
1297.205	3.041	1325090	REC_WORD	7.233	n/a	THUNDERSTORM	n/a	-999	12	[0, 0, 0]	n/a	catFR1	3	R1674A
1300.246	0.229	1328131	REC_WORD_VV	10.274	n/a	<>	n/a	-999	12	[0, 0, 0]	n/a	catFR1	3	R1674A
1300.475	1.172	1328360	REC_WORD	10.503	n/a	HURRICANE	Weather	2	12	[0, 0, 0]	n/a	catFR1	3	R1674A
1301.647	1.319	1329532	REC_WORD	11.675	n/a	HURRICANE	Weather	2	12	[0, 0, 0]	n/a	catFR1	3	R1674A
1302.966	2.343	1330851	REC_WORD_VV	12.994	n/a	<>	n/a	-999	12	[0, 0, 0]	n/a	catFR1	3	R1674A
1305.309	8.23	1333194	REC_WORD	15.337	n/a	DOLPHIN	OceanAnimals	6	12	[0, 0, 0]	n/a	catFR1	3	R1674A
1313.539	6.584	1341424	REC_WORD	23.567	n/a	PLANKTON	OceanAnimals	10	12	[0, 0, 0]	n/a	catFR1	3	R1674A
1320.123	0.0	1348012	REC_END	n/a	n/a	n/a	n/a	-999	12	[0, 0, 0]	n/a	catFR1	3	R1674A
