onset	duration	sample	trial_type	response_time	stim_file	item_name	category	serialpos	list	test	answer	experiment	session	subject
0.0	15.094	977413	SESS_START	n/a	n/a	n/a	n/a	-999	-999	[0, 0, 0]	n/a	catFR1	0	R1092J
15.094	10.428	992507	COUNTDOWN_START	n/a	n/a	n/a	n/a	-999	-999	[0, 0, 0]	n/a	catFR1	0	R1092J
25.522	3.775	1002935	COUNTDOWN_END	n/a	n/a	n/a	n/a	-999	-999	[0, 0, 0]	n/a	catFR1	0	R1092J
29.297	2.45	1006710	PRACTICE_WORD	n/a	n/a	WAGON	n/a	-999	-999	[0, 0, 0]	n/a	catFR1	0	R1092J
31.747	2.416	1009160	PRACTICE_WORD	n/a	n/a	COTTON	n/a	-999	-999	[0, 0, 0]	n/a	catFR1	0	R1092J
34.163	2.568	1011576	PRACTICE_WORD	n/a	n/a	TONGUE	n/a	-999	-999	[0, 0, 0]	n/a	catFR1	0	R1092J
36.731	2.384	1014144	PRACTICE_WORD	n/a	n/a	WATCH	n/a	-999	-999	[0, 0, 0]	n/a	catFR1	0	R1092J
39.115	2.6	1016528	PRACTICE_WORD	n/a	n/a	RING	n/a	-999	-999	[0, 0, 0]	n/a	catFR1	0	R1092J
41.715	2.5	1019128	PRACTICE_WORD	n/a	n/a	BEAM	n/a	-999	-999	[0, 0, 0]	n/a	catFR1	0	R1092J
44.215	2.5	1021628	PRACTICE_WORD	n/a	n/a	CAMEL	n/a	-999	-999	[0, 0, 0]	n/a	catFR1	0	R1092J
46.715	2.517	1024128	PRACTICE_WORD	n/a	n/a	CHEST	n/a	-999	-999	[0, 0, 0]	n/a	catFR1	0	R1092J
49.232	2.418	1026645	PRACTICE_WORD	n/a	n/a	ATTIC	n/a	-999	-999	[0, 0, 0]	n/a	catFR1	0	R1092J
51.65	2.466	1029063	PRACTICE_WORD	n/a	n/a	RHINO	n/a	-999	-999	[0, 0, 0]	n/a	catFR1	0	R1092J
54.116	2.601	1031529	PRACTICE_WORD	n/a	n/a	IRON	n/a	-999	-999	[0, 0, 0]	n/a	catFR1	0	R1092J
56.717	1.617	1034130	PRACTICE_WORD	n/a	n/a	FLOOD	n/a	-999	-999	[0, 0, 0]	n/a	catFR1	0	R1092J
58.334	0.0	1035747	PRACTICE_DISTRACT_START	n/a	n/a	n/a	n/a	-999	-999	[0, 0, 0]	n/a	catFR1	0	R1092J
58.334	0.016	1035747	START	n/a	n/a	n/a	n/a	-999	-1	[-999, -999, -999]	n/a	catFR1	0	R1092J
58.35	12.485	1035763	PROB	12.457	n/a	n/a	n/a	-999	-1	[3, 8, 7]	18.0	catFR1	0	R1092J
70.835	3.067	1048248	PROB	3.044	n/a	n/a	n/a	-999	-1	[7, 3, 1]	11.0	catFR1	0	R1092J
73.902	2.817	1051315	PROB	2.793	n/a	n/a	n/a	-999	-1	[6, 4, 3]	13.0	catFR1	0	R1092J
76.719	2.208	1054132	PROB	2.208	n/a	n/a	n/a	-999	-1	[2, 3, 2]	7.0	catFR1	0	R1092J
78.927	0.009	1056340	STOP	n/a	n/a	n/a	n/a	-999	-1	[-999, -999, -999]	n/a	catFR1	0	R1092J
78.936	0.586	1056349	PRACTICE_DISTRACT_END	n/a	n/a	n/a	n/a	-999	-999	[0, 0, 0]	n/a	catFR1	0	R1092J
79.522	30.515	1056935	PRACTICE_REC_START	n/a	n/a	n/a	n/a	-999	-999	[0, 0, 0]	n/a	catFR1	0	R1092J
110.037	11.722	1087450	PRACTICE_REC_END	n/a	n/a	n/a	n/a	-999	-999	[0, 0, 0]	n/a	catFR1	0	R1092J
121.759	0.0	1099172	TRIAL	n/a	n/a	n/a	n/a	-999	1	[0, 0, 0]	n/a	catFR1	0	R1092J
121.759	10.428	1099172	COUNTDOWN_START	n/a	n/a	n/a	n/a	-999	1	[0, 0, 0]	n/a	catFR1	0	R1092J
132.187	0.023	1109600	COUNTDOWN_END	n/a	n/a	n/a	n/a	-999	1	[0, 0, 0]	n/a	catFR1	0	R1092J
132.21	3.533	1109623	ORIENT	n/a	n/a	n/a	n/a	-999	1	[0, 0, 0]	n/a	catFR1	0	R1092J
135.743	2.584	1113156	WORD	n/a	wordpools/wordpool_categorized_EN.txt	CRICKET	Insects	1	1	[0, 0, 0]	n/a	catFR1	0	R1092J
138.327	2.401	1115739	WORD	n/a	wordpools/wordpool_categorized_EN.txt	ANT	Insects	2	1	[0, 0, 0]	n/a	catFR1	0	R1092J
140.728	2.5	1118140	WORD	n/a	wordpools/wordpool_categorized_EN.txt	DESK	Furniture	3	1	[0, 0, 0]	n/a	catFR1	0	R1092J
143.228	2.45	1120640	WORD	n/a	wordpools/wordpool_categorized_EN.txt	CHAIR	Furniture	4	1	[0, 0, 0]	n/a	catFR1	0	R1092J
145.678	2.45	1123090	WORD	n/a	wordpools/wordpool_categorized_EN.txt	PHONE	Electronics	5	1	[0, 0, 0]	n/a	catFR1	0	R1092J
148.128	2.601	1125540	WORD	n/a	wordpools/wordpool_categorized_EN.txt	CALCULATOR	Electronics	6	1	[0, 0, 0]	n/a	catFR1	0	R1092J
150.729	2.433	1128141	WORD	n/a	wordpools/wordpool_categorized_EN.txt	GNAT	Insects	7	1	[0, 0, 0]	n/a	catFR1	0	R1092J
153.162	2.551	1130574	WORD	n/a	wordpools/wordpool_categorized_EN.txt	LADYBUG	Insects	8	1	[0, 0, 0]	n/a	catFR1	0	R1092J
155.713	2.467	1133125	WORD	n/a	wordpools/wordpool_categorized_EN.txt	HEADPHONES	Electronics	9	1	[0, 0, 0]	n/a	catFR1	0	R1092J
158.18	2.6	1135592	WORD	n/a	wordpools/wordpool_categorized_EN.txt	RADIO	Electronics	10	1	[0, 0, 0]	n/a	catFR1	0	R1092J
160.78	2.567	1138192	WORD	n/a	wordpools/wordpool_categorized_EN.txt	NIGHTSTAND	Furniture	11	1	[0, 0, 0]	n/a	catFR1	0	R1092J
163.347	1.617	1140759	WORD	n/a	wordpools/wordpool_categorized_EN.txt	COUCH	Furniture	12	1	[0, 0, 0]	n/a	catFR1	0	R1092J
164.964	0.001	1142376	DISTRACT_START	n/a	n/a	n/a	n/a	-999	1	[0, 0, 0]	n/a	catFR1	0	R1092J
164.965	0.016	1142377	START	n/a	n/a	n/a	n/a	-999	1	[-999, -999, -999]	n/a	catFR1	0	R1092J
164.981	5.45	1142393	PROB	5.414	n/a	n/a	n/a	-999	1	[7, 2, 5]	14.0	catFR1	0	R1092J
170.431	2.417	1147843	PROB	2.388	n/a	n/a	n/a	-999	1	[1, 3, 5]	9.0	catFR1	0	R1092J
172.848	4.084	1150260	PROB	4.059	n/a	n/a	n/a	-999	1	[3, 9, 4]	16.0	catFR1	0	R1092J
176.932	3.834	1154344	PROB	3.799	n/a	n/a	n/a	-999	1	[7, 2, 8]	17.0	catFR1	0	R1092J
180.766	3.884	1158178	PROB	3.852	n/a	n/a	n/a	-999	1	[8, 1, 5]	14.0	catFR1	0	R1092J
184.65	3.145	1162062	PROB	3.145	n/a	n/a	n/a	-999	1	[5, 1, 7]	13.0	catFR1	0	R1092J
187.795	0.005	1165207	STOP	n/a	n/a	n/a	n/a	-999	1	[-999, -999, -999]	n/a	catFR1	0	R1092J
187.8	1.151	1165212	DISTRACT_END	n/a	n/a	n/a	n/a	-999	1	[0, 0, 0]	n/a	catFR1	0	R1092J
188.951	2.913	1166363	REC_START	n/a	n/a	n/a	n/a	-999	1	[0, 0, 0]	n/a	catFR1	0	R1092J
191.864	1.073	1169276	REC_WORD_VV	2.913	n/a	<>	n/a	-999	1	[0, 0, 0]	n/a	catFR1	0	R1092J
192.937	2.193	1170349	REC_WORD	3.986	n/a	CHAIR	Furniture	4	1	[0, 0, 0]	n/a	catFR1	0	R1092J
195.13	2.184	1172542	REC_WORD	6.179	n/a	ATTIC	n/a	-999	1	[0, 0, 0]	n/a	catFR1	0	R1092J
197.314	8.394	1174726	REC_WORD	8.363	n/a	COTTON	n/a	-999	1	[0, 0, 0]	n/a	catFR1	0	R1092J
205.708	2.761	1183120	REC_WORD	16.757	n/a	DESK	Furniture	3	1	[0, 0, 0]	n/a	catFR1	0	R1092J
208.469	10.493	1185881	REC_WORD	19.518	n/a	FOLD	n/a	-999	1	[0, 0, 0]	n/a	catFR1	0	R1092J
218.962	7.243	1196374	REC_END	n/a	n/a	n/a	n/a	-999	1	[0, 0, 0]	n/a	catFR1	0	R1092J
226.205	0.0	1203617	TRIAL	n/a	n/a	n/a	n/a	-999	2	[0, 0, 0]	n/a	catFR1	0	R1092J
226.205	10.428	1203617	COUNTDOWN_START	n/a	n/a	n/a	n/a	-999	2	[0, 0, 0]	n/a	catFR1	0	R1092J
236.633	0.007	1214045	COUNTDOWN_END	n/a	n/a	n/a	n/a	-999	2	[0, 0, 0]	n/a	catFR1	0	R1092J
236.64	3.767	1214052	ORIENT	n/a	n/a	n/a	n/a	-999	2	[0, 0, 0]	n/a	catFR1	0	R1092J
240.407	2.383	1217819	WORD	n/a	wordpools/wordpool_categorized_EN.txt	FLUTE	Instruments	1	2	[0, 0, 0]	n/a	catFR1	0	R1092J
242.79	2.417	1220202	WORD	n/a	wordpools/wordpool_categorized_EN.txt	TRUMPET	Instruments	2	2	[0, 0, 0]	n/a	catFR1	0	R1092J
245.207	2.401	1222619	WORD	n/a	wordpools/wordpool_categorized_EN.txt	TABLET	Electronics	3	2	[0, 0, 0]	n/a	catFR1	0	R1092J
247.608	2.567	1225020	WORD	n/a	wordpools/wordpool_categorized_EN.txt	PRINTER	Electronics	4	2	[0, 0, 0]	n/a	catFR1	0	R1092J
250.175	2.617	1227587	WORD	n/a	wordpools/wordpool_categorized_EN.txt	OCTOPUS	OceanAnimals	5	2	[0, 0, 0]	n/a	catFR1	0	R1092J
252.792	2.617	1230204	WORD	n/a	wordpools/wordpool_categorized_EN.txt	DOLPHIN	OceanAnimals	6	2	[0, 0, 0]	n/a	catFR1	0	R1092J
255.409	2.467	1232821	WORD	n/a	wordpools/wordpool_categorized_EN.txt	ORGAN	Instruments	7	2	[0, 0, 0]	n/a	catFR1	0	R1092J
257.876	2.4	1235288	WORD	n/a	wordpools/wordpool_categorized_EN.txt	VIOLIN	Instruments	8	2	[0, 0, 0]	n/a	catFR1	0	R1092J
260.276	2.584	1237688	WORD	n/a	wordpools/wordpool_categorized_EN.txt	OYSTER	OceanAnimals	9	2	[0, 0, 0]	n/a	catFR1	0	R1092J
262.86	2.533	1240272	WORD	n/a	wordpools/wordpool_categorized_EN.txt	SHRIMP	OceanAnimals	10	2	[0, 0, 0]	n/a	catFR1	0	R1092J
265.393	2.484	1242805	WORD	n/a	wordpools/wordpool_categorized_EN.txt	STEREO	Electronics	11	2	[0, 0, 0]	n/a	catFR1	0	R1092J
267.877	1.618	1245289	WORD	n/a	wordpools/wordpool_categorized_EN.txt	MICROWAVE	Electronics	12	2	[0, 0, 0]	n/a	catFR1	0	R1092J
269.495	0.0	1246907	DISTRACT_START	n/a	n/a	n/a	n/a	-999	2	[0, 0, 0]	n/a	catFR1	0	R1092J
269.495	0.016	1246907	START	n/a	n/a	n/a	n/a	-999	2	[-999, -999, -999]	n/a	catFR1	0	R1092J
269.511	3.4	1246923	PROB	3.376	n/a	n/a	n/a	-999	2	[2, 8, 3]	13.0	catFR1	0	R1092J
272.911	2.717	1250323	PROB	2.688	n/a	n/a	n/a	-999	2	[3, 3, 7]	13.0	catFR1	0	R1092J
275.628	6.301	1253040	PROB	6.267	n/a	n/a	n/a	-999	2	[8, 3, 7]	18.0	catFR1	0	R1092J
281.929	4.017	1259341	PROB	3.981	n/a	n/a	n/a	-999	2	[9, 6, 6]	21.0	catFR1	0	R1092J
285.946	2.684	1263358	PROB	2.661	n/a	n/a	n/a	-999	2	[8, 3, 1]	12.0	catFR1	0	R1092J
288.63	4.88	1266042	PROB	4.88	n/a	n/a	n/a	-999	2	[6, 8, 2]	16.0	catFR1	0	R1092J
293.51	0.004	1270922	STOP	n/a	n/a	n/a	n/a	-999	2	[-999, -999, -999]	n/a	catFR1	0	R1092J
293.514	1.034	1270926	DISTRACT_END	n/a	n/a	n/a	n/a	-999	2	[0, 0, 0]	n/a	catFR1	0	R1092J
294.548	2.162	1271960	REC_START	n/a	n/a	n/a	n/a	-999	2	[0, 0, 0]	n/a	catFR1	0	R1092J
296.71	1.002	1274122	REC_WORD	2.162	n/a	ORGAN	Instruments	7	2	[0, 0, 0]	n/a	catFR1	0	R1092J
297.712	1.519	1275124	REC_WORD	3.164	n/a	TRUMPET	Instruments	2	2	[0, 0, 0]	n/a	catFR1	0	R1092J
299.231	3.096	1276643	REC_WORD	4.683	n/a	FLUTE	Instruments	1	2	[0, 0, 0]	n/a	catFR1	0	R1092J
302.327	4.417	1279739	REC_WORD	7.779	n/a	COTTON	n/a	-999	2	[0, 0, 0]	n/a	catFR1	0	R1092J
306.744	2.806	1284156	REC_WORD	12.196	n/a	DESK	n/a	-999	2	[0, 0, 0]	n/a	catFR1	0	R1092J
309.55	6.284	1286962	REC_WORD	15.002	n/a	STAIRS	n/a	-999	2	[0, 0, 0]	n/a	catFR1	0	R1092J
315.834	8.726	1293246	REC_WORD	21.286	n/a	TRUMPET	Instruments	2	2	[0, 0, 0]	n/a	catFR1	0	R1092J
324.56	16.71	1301972	REC_END	n/a	n/a	n/a	n/a	-999	2	[0, 0, 0]	n/a	catFR1	0	R1092J
341.27	0.0	1318682	TRIAL	n/a	n/a	n/a	n/a	-999	3	[0, 0, 0]	n/a	catFR1	0	R1092J
341.27	10.428	1318682	COUNTDOWN_START	n/a	n/a	n/a	n/a	-999	3	[0, 0, 0]	n/a	catFR1	0	R1092J
351.698	0.007	1329110	COUNTDOWN_END	n/a	n/a	n/a	n/a	-999	3	[0, 0, 0]	n/a	catFR1	0	R1092J
351.705	3.7	1329117	ORIENT	n/a	n/a	n/a	n/a	-999	3	[0, 0, 0]	n/a	catFR1	0	R1092J
355.405	2.467	1332817	WORD	n/a	wordpools/wordpool_categorized_EN.txt	SHELF	Furniture	1	3	[0, 0, 0]	n/a	catFR1	0	R1092J
357.872	2.55	1335284	WORD	n/a	wordpools/wordpool_categorized_EN.txt	DRESSER	Furniture	2	3	[0, 0, 0]	n/a	catFR1	0	R1092J
360.422	2.584	1337834	WORD	n/a	wordpools/wordpool_categorized_EN.txt	COFFEE	Beverages	3	3	[0, 0, 0]	n/a	catFR1	0	R1092J
363.006	2.55	1340418	WORD	n/a	wordpools/wordpool_categorized_EN.txt	RUM	Beverages	4	3	[0, 0, 0]	n/a	catFR1	0	R1092J
365.556	2.384	1342968	WORD	n/a	wordpools/wordpool_categorized_EN.txt	HILLS	Landscapes	5	3	[0, 0, 0]	n/a	catFR1	0	R1092J
367.94	2.567	1345352	WORD	n/a	wordpools/wordpool_categorized_EN.txt	WOODS	Landscapes	6	3	[0, 0, 0]	n/a	catFR1	0	R1092J
370.507	2.45	1347919	WORD	n/a	wordpools/wordpool_categorized_EN.txt	BEER	Beverages	7	3	[0, 0, 0]	n/a	catFR1	0	R1092J
372.957	2.384	1350369	WORD	n/a	wordpools/wordpool_categorized_EN.txt	JUICE	Beverages	8	3	[0, 0, 0]	n/a	catFR1	0	R1092J
375.341	2.5	1352753	WORD	n/a	wordpools/wordpool_categorized_EN.txt	SOFA	Furniture	9	3	[0, 0, 0]	n/a	catFR1	0	R1092J
377.841	2.484	1355253	WORD	n/a	wordpools/wordpool_categorized_EN.txt	TABLE	Furniture	10	3	[0, 0, 0]	n/a	catFR1	0	R1092J
380.325	2.533	1357737	WORD	n/a	wordpools/wordpool_categorized_EN.txt	OCEAN	Landscapes	11	3	[0, 0, 0]	n/a	catFR1	0	R1092J
382.858	1.617	1360270	WORD	n/a	wordpools/wordpool_categorized_EN.txt	RIVER	Landscapes	12	3	[0, 0, 0]	n/a	catFR1	0	R1092J
384.475	0.001	1361887	DISTRACT_START	n/a	n/a	n/a	n/a	-999	3	[0, 0, 0]	n/a	catFR1	0	R1092J
384.476	0.017	1361888	START	n/a	n/a	n/a	n/a	-999	3	[-999, -999, -999]	n/a	catFR1	0	R1092J
384.493	3.749	1361905	PROB	3.725	n/a	n/a	n/a	-999	3	[9, 5, 5]	19.0	catFR1	0	R1092J
388.242	4.267	1365654	PROB	4.241	n/a	n/a	n/a	-999	3	[6, 7, 5]	19.0	catFR1	0	R1092J
392.509	5.684	1369921	PROB	5.653	n/a	n/a	n/a	-999	3	[6, 7, 1]	14.0	catFR1	0	R1092J
398.193	6.44	1375605	PROB	6.44	n/a	n/a	n/a	-999	3	[7, 6, 9]	22.0	catFR1	0	R1092J
404.633	0.011	1382045	STOP	n/a	n/a	n/a	n/a	-999	3	[-999, -999, -999]	n/a	catFR1	0	R1092J
404.644	1.034	1382056	DISTRACT_END	n/a	n/a	n/a	n/a	-999	3	[0, 0, 0]	n/a	catFR1	0	R1092J
405.678	2.137	1383090	REC_START	n/a	n/a	n/a	n/a	-999	3	[0, 0, 0]	n/a	catFR1	0	R1092J
407.815	0.673	1385227	REC_WORD	2.137	n/a	COFFEE	Beverages	3	3	[0, 0, 0]	n/a	catFR1	0	R1092J
408.488	1.678	1385900	REC_WORD	2.81	n/a	DRESSER	Furniture	2	3	[0, 0, 0]	n/a	catFR1	0	R1092J
410.166	1.672	1387578	REC_WORD	4.488	n/a	SHELF	Furniture	1	3	[0, 0, 0]	n/a	catFR1	0	R1092J
411.838	2.992	1389250	REC_WORD	6.16	n/a	WOODS	Landscapes	6	3	[0, 0, 0]	n/a	catFR1	0	R1092J
414.83	0.96	1392242	REC_WORD	9.152	n/a	RUM	Beverages	4	3	[0, 0, 0]	n/a	catFR1	0	R1092J
415.79	7.053	1393202	REC_WORD	10.112	n/a	BEER	Beverages	7	3	[0, 0, 0]	n/a	catFR1	0	R1092J
422.843	2.549	1400255	REC_WORD	17.165	n/a	TABLE	Furniture	10	3	[0, 0, 0]	n/a	catFR1	0	R1092J
425.392	5.279	1402804	REC_WORD	19.714	n/a	CHAIR	n/a	-999	3	[0, 0, 0]	n/a	catFR1	0	R1092J
430.671	5.022	1408083	REC_WORD	24.993	n/a	LADDER	n/a	-999	3	[0, 0, 0]	n/a	catFR1	0	R1092J
435.693	5.206	1413105	REC_END	n/a	n/a	n/a	n/a	-999	3	[0, 0, 0]	n/a	catFR1	0	R1092J
440.899	0.0	1418311	TRIAL	n/a	n/a	n/a	n/a	-999	4	[0, 0, 0]	n/a	catFR1	0	R1092J
440.899	10.428	1418311	COUNTDOWN_START	n/a	n/a	n/a	n/a	-999	4	[0, 0, 0]	n/a	catFR1	0	R1092J
451.327	0.007	1428739	COUNTDOWN_END	n/a	n/a	n/a	n/a	-999	4	[0, 0, 0]	n/a	catFR1	0	R1092J
451.334	3.784	1428746	ORIENT	n/a	n/a	n/a	n/a	-999	4	[0, 0, 0]	n/a	catFR1	0	R1092J
455.118	2.433	1432530	WORD	n/a	wordpools/wordpool_categorized_EN.txt	HAND	BodyParts	1	4	[0, 0, 0]	n/a	catFR1	0	R1092J
457.551	2.401	1434963	WORD	n/a	wordpools/wordpool_categorized_EN.txt	FINGERS	BodyParts	2	4	[0, 0, 0]	n/a	catFR1	0	R1092J
459.952	2.583	1437364	WORD	n/a	wordpools/wordpool_categorized_EN.txt	POTATO	Vegetables	3	4	[0, 0, 0]	n/a	catFR1	0	R1092J
462.535	2.417	1439947	WORD	n/a	wordpools/wordpool_categorized_EN.txt	CORN	Vegetables	4	4	[0, 0, 0]	n/a	catFR1	0	R1092J
464.952	2.584	1442364	WORD	n/a	wordpools/wordpool_categorized_EN.txt	COLA	Beverages	5	4	[0, 0, 0]	n/a	catFR1	0	R1092J
467.536	2.383	1444948	WORD	n/a	wordpools/wordpool_categorized_EN.txt	WATER	Beverages	6	4	[0, 0, 0]	n/a	catFR1	0	R1092J
469.919	2.584	1447331	WORD	n/a	wordpools/wordpool_categorized_EN.txt	EAR	BodyParts	7	4	[0, 0, 0]	n/a	catFR1	0	R1092J
472.503	2.5	1449915	WORD	n/a	wordpools/wordpool_categorized_EN.txt	ELBOW	BodyParts	8	4	[0, 0, 0]	n/a	catFR1	0	R1092J
475.003	2.551	1452415	WORD	n/a	wordpools/wordpool_categorized_EN.txt	TEA	Beverages	9	4	[0, 0, 0]	n/a	catFR1	0	R1092J
477.554	2.5	1454966	WORD	n/a	wordpools/wordpool_categorized_EN.txt	CIDER	Beverages	10	4	[0, 0, 0]	n/a	catFR1	0	R1092J
480.054	2.5	1457466	WORD	n/a	wordpools/wordpool_categorized_EN.txt	PEAS	Vegetables	11	4	[0, 0, 0]	n/a	catFR1	0	R1092J
482.554	1.617	1459966	WORD	n/a	wordpools/wordpool_categorized_EN.txt	CABBAGE	Vegetables	12	4	[0, 0, 0]	n/a	catFR1	0	R1092J
484.171	0.001	1461583	DISTRACT_START	n/a	n/a	n/a	n/a	-999	4	[0, 0, 0]	n/a	catFR1	0	R1092J
484.172	0.016	1461584	START	n/a	n/a	n/a	n/a	-999	4	[-999, -999, -999]	n/a	catFR1	0	R1092J
484.188	3.434	1461600	PROB	3.41	n/a	n/a	n/a	-999	4	[3, 4, 7]	14.0	catFR1	0	R1092J
487.622	4.817	1465034	PROB	4.784	n/a	n/a	n/a	-999	4	[3, 5, 6]	14.0	catFR1	0	R1092J
492.439	2.867	1469851	PROB	2.839	n/a	n/a	n/a	-999	4	[6, 3, 3]	12.0	catFR1	0	R1092J
495.306	4.334	1472718	PROB	4.3	n/a	n/a	n/a	-999	4	[4, 9, 8]	20.0	catFR1	0	R1092J
499.64	2.284	1477052	PROB	2.254	n/a	n/a	n/a	-999	4	[3, 2, 1]	6.0	catFR1	0	R1092J
501.924	3.21	1479336	PROB	3.21	n/a	n/a	n/a	-999	4	[2, 9, 7]	18.0	catFR1	0	R1092J
505.134	0.006	1482546	STOP	n/a	n/a	n/a	n/a	-999	4	[-999, -999, -999]	n/a	catFR1	0	R1092J
505.14	1.101	1482552	DISTRACT_END	n/a	n/a	n/a	n/a	-999	4	[0, 0, 0]	n/a	catFR1	0	R1092J
506.241	4.003	1483653	REC_START	n/a	n/a	n/a	n/a	-999	4	[0, 0, 0]	n/a	catFR1	0	R1092J
510.244	0.716	1487656	REC_WORD_VV	4.003	n/a	<>	n/a	-999	4	[0, 0, 0]	n/a	catFR1	0	R1092J
510.96	3.916	1488372	REC_WORD	4.719	n/a	CORN	Vegetables	4	4	[0, 0, 0]	n/a	catFR1	0	R1092J
514.876	2.589	1492288	REC_WORD	8.635	n/a	COLA	Beverages	5	4	[0, 0, 0]	n/a	catFR1	0	R1092J
517.465	1.44	1494877	REC_WORD	11.224	n/a	TABLE	n/a	-999	4	[0, 0, 0]	n/a	catFR1	0	R1092J
518.905	2.889	1496317	REC_WORD	12.664	n/a	CIDER	Beverages	10	4	[0, 0, 0]	n/a	catFR1	0	R1092J
521.794	3.892	1499206	REC_WORD	15.553	n/a	TEA	Beverages	9	4	[0, 0, 0]	n/a	catFR1	0	R1092J
525.686	4.384	1503098	REC_WORD	19.445	n/a	DRESSER	n/a	-999	4	[0, 0, 0]	n/a	catFR1	0	R1092J
530.07	6.187	1507482	REC_WORD	23.829	n/a	SHELF	n/a	-999	4	[0, 0, 0]	n/a	catFR1	0	R1092J
536.257	4.905	1513669	REC_END	n/a	n/a	n/a	n/a	-999	4	[0, 0, 0]	n/a	catFR1	0	R1092J
541.162	0.0	1518574	TRIAL	n/a	n/a	n/a	n/a	-999	5	[0, 0, 0]	n/a	catFR1	0	R1092J
541.162	10.428	1518574	COUNTDOWN_START	n/a	n/a	n/a	n/a	-999	5	[0, 0, 0]	n/a	catFR1	0	R1092J
551.59	0.007	1529002	COUNTDOWN_END	n/a	n/a	n/a	n/a	-999	5	[0, 0, 0]	n/a	catFR1	0	R1092J
551.597	3.867	1529009	ORIENT	n/a	n/a	n/a	n/a	-999	5	[0, 0, 0]	n/a	catFR1	0	R1092J
555.464	2.616	1532876	WORD	n/a	wordpools/wordpool_categorized_EN.txt	LETTUCE	Vegetables	1	5	[0, 0, 0]	n/a	catFR1	0	R1092J
558.08	2.468	1535492	WORD	n/a	wordpools/wordpool_categorized_EN.txt	SPINACH	Vegetables	2	5	[0, 0, 0]	n/a	catFR1	0	R1092J
560.548	2.516	1537960	WORD	n/a	wordpools/wordpool_categorized_EN.txt	BULL	FarmAnimals	3	5	[0, 0, 0]	n/a	catFR1	0	R1092J
563.064	2.534	1540476	WORD	n/a	wordpools/wordpool_categorized_EN.txt	CALF	FarmAnimals	4	5	[0, 0, 0]	n/a	catFR1	0	R1092J
565.598	2.517	1543010	WORD	n/a	wordpools/wordpool_categorized_EN.txt	APPLE	Fruit	5	5	[0, 0, 0]	n/a	catFR1	0	R1092J
568.115	2.584	1545527	WORD	n/a	wordpools/wordpool_categorized_EN.txt	PEACH	Fruit	6	5	[0, 0, 0]	n/a	catFR1	0	R1092J
570.699	2.467	1548111	WORD	n/a	wordpools/wordpool_categorized_EN.txt	CHICKEN	FarmAnimals	7	5	[0, 0, 0]	n/a	catFR1	0	R1092J
573.166	2.433	1550578	WORD	n/a	wordpools/wordpool_categorized_EN.txt	HORSE	FarmAnimals	8	5	[0, 0, 0]	n/a	catFR1	0	R1092J
575.599	2.501	1553011	WORD	n/a	wordpools/wordpool_categorized_EN.txt	CUCUMBER	Vegetables	9	5	[0, 0, 0]	n/a	catFR1	0	R1092J
578.1	2.517	1555512	WORD	n/a	wordpools/wordpool_categorized_EN.txt	BROCCOLI	Vegetables	10	5	[0, 0, 0]	n/a	catFR1	0	R1092J
580.617	2.567	1558029	WORD	n/a	wordpools/wordpool_categorized_EN.txt	CHERRY	Fruit	11	5	[0, 0, 0]	n/a	catFR1	0	R1092J
583.184	1.617	1560596	WORD	n/a	wordpools/wordpool_categorized_EN.txt	STRAWBERRY	Fruit	12	5	[0, 0, 0]	n/a	catFR1	0	R1092J
584.801	0.0	1562213	DISTRACT_START	n/a	n/a	n/a	n/a	-999	5	[0, 0, 0]	n/a	catFR1	0	R1092J
584.801	0.016	1562213	START	n/a	n/a	n/a	n/a	-999	5	[-999, -999, -999]	n/a	catFR1	0	R1092J
584.817	3.034	1562229	PROB	3.009	n/a	n/a	n/a	-999	5	[4, 2, 2]	8.0	catFR1	0	R1092J
587.851	4.667	1565263	PROB	4.647	n/a	n/a	n/a	-999	5	[2, 7, 6]	14.0	catFR1	0	R1092J
592.518	4.368	1569930	PROB	4.34	n/a	n/a	n/a	-999	5	[2, 4, 9]	15.0	catFR1	0	R1092J
596.886	3.934	1574298	PROB	3.908	n/a	n/a	n/a	-999	5	[5, 3, 5]	14.0	catFR1	0	R1092J
600.82	2.05	1578232	PROB	2.013	n/a	n/a	n/a	-999	5	[7, 3, 2]	12.0	catFR1	0	R1092J
602.87	2.643	1580282	PROB	2.643	n/a	n/a	n/a	-999	5	[2, 5, 8]	15.0	catFR1	0	R1092J
605.513	0.007	1582925	STOP	n/a	n/a	n/a	n/a	-999	5	[-999, -999, -999]	n/a	catFR1	0	R1092J
605.52	1.084	1582932	DISTRACT_END	n/a	n/a	n/a	n/a	-999	5	[0, 0, 0]	n/a	catFR1	0	R1092J
606.604	1.559	1584016	REC_START	n/a	n/a	n/a	n/a	-999	5	[0, 0, 0]	n/a	catFR1	0	R1092J
608.163	1.286	1585575	REC_WORD	1.559	n/a	CUCUMBER	Vegetables	9	5	[0, 0, 0]	n/a	catFR1	0	R1092J
609.449	1.979	1586861	REC_WORD	2.845	n/a	COOLER	n/a	-999	5	[0, 0, 0]	n/a	catFR1	0	R1092J
611.428	2.873	1588840	REC_WORD	4.824	n/a	STRAWBERRY	Fruit	12	5	[0, 0, 0]	n/a	catFR1	0	R1092J
614.301	1.697	1591713	REC_WORD	7.697	n/a	SHELF	n/a	-999	5	[0, 0, 0]	n/a	catFR1	0	R1092J
615.998	6.951	1593410	REC_WORD	9.394	n/a	HORSE	FarmAnimals	8	5	[0, 0, 0]	n/a	catFR1	0	R1092J
622.949	7.507	1600361	REC_WORD	16.345	n/a	BOWL	n/a	-999	5	[0, 0, 0]	n/a	catFR1	0	R1092J
630.456	6.156	1607868	REC_WORD	23.852	n/a	COOLER	n/a	-999	5	[0, 0, 0]	n/a	catFR1	0	R1092J
636.612	3.813	1614024	REC_END	n/a	n/a	n/a	n/a	-999	5	[0, 0, 0]	n/a	catFR1	0	R1092J
640.425	0.0	1617837	COUNTDOWN_START	n/a	n/a	n/a	n/a	-999	6	[0, 0, 0]	n/a	catFR1	0	R1092J
640.425	10.428	1617837	TRIAL	n/a	n/a	n/a	n/a	-999	6	[0, 0, 0]	n/a	catFR1	0	R1092J
650.853	0.006	1628265	COUNTDOWN_END	n/a	n/a	n/a	n/a	-999	6	[0, 0, 0]	n/a	catFR1	0	R1092J
650.859	3.834	1628271	ORIENT	n/a	n/a	n/a	n/a	-999	6	[0, 0, 0]	n/a	catFR1	0	R1092J
654.693	2.617	1632105	WORD	n/a	wordpools/wordpool_categorized_EN.txt	GIRAFFE	Zoo	1	6	[0, 0, 0]	n/a	catFR1	0	R1092J
657.31	2.584	1634722	WORD	n/a	wordpools/wordpool_categorized_EN.txt	ELEPHANT	Zoo	2	6	[0, 0, 0]	n/a	catFR1	0	R1092J
659.894	2.55	1637306	WORD	n/a	wordpools/wordpool_categorized_EN.txt	DOOR	Building	3	6	[0, 0, 0]	n/a	catFR1	0	R1092J
662.444	2.4	1639856	WORD	n/a	wordpools/wordpool_categorized_EN.txt	WINDOW	Building	4	6	[0, 0, 0]	n/a	catFR1	0	R1092J
664.844	2.467	1642256	WORD	n/a	wordpools/wordpool_categorized_EN.txt	MARBLES	Toys	5	6	[0, 0, 0]	n/a	catFR1	0	R1092J
667.311	2.434	1644723	WORD	n/a	wordpools/wordpool_categorized_EN.txt	DOLLHOUSE	Toys	6	6	[0, 0, 0]	n/a	catFR1	0	R1092J
669.745	2.5	1647157	WORD	n/a	wordpools/wordpool_categorized_EN.txt	GORILLA	Zoo	7	6	[0, 0, 0]	n/a	catFR1	0	R1092J
672.245	2.417	1649657	WORD	n/a	wordpools/wordpool_categorized_EN.txt	ORANGUTAN	Zoo	8	6	[0, 0, 0]	n/a	catFR1	0	R1092J
674.662	2.434	1652074	WORD	n/a	wordpools/wordpool_categorized_EN.txt	BASEBALL	Toys	9	6	[0, 0, 0]	n/a	catFR1	0	R1092J
677.096	2.584	1654508	WORD	n/a	wordpools/wordpool_categorized_EN.txt	DOLL	Toys	10	6	[0, 0, 0]	n/a	catFR1	0	R1092J
679.68	2.417	1657092	WORD	n/a	wordpools/wordpool_categorized_EN.txt	BATHROOM	Building	11	6	[0, 0, 0]	n/a	catFR1	0	R1092J
682.097	1.616	1659509	WORD	n/a	wordpools/wordpool_categorized_EN.txt	STAIRS	Building	12	6	[0, 0, 0]	n/a	catFR1	0	R1092J
683.713	0.001	1661125	DISTRACT_START	n/a	n/a	n/a	n/a	-999	6	[0, 0, 0]	n/a	catFR1	0	R1092J
683.714	0.016	1661126	START	n/a	n/a	n/a	n/a	-999	6	[-999, -999, -999]	n/a	catFR1	0	R1092J
683.73	4.217	1661142	PROB	4.188	n/a	n/a	n/a	-999	6	[2, 7, 5]	14.0	catFR1	0	R1092J
687.947	4.467	1665359	PROB	4.435	n/a	n/a	n/a	-999	6	[6, 9, 9]	24.0	catFR1	0	R1092J
692.414	2.884	1669826	PROB	2.856	n/a	n/a	n/a	-999	6	[3, 1, 9]	13.0	catFR1	0	R1092J
695.298	2.851	1672710	PROB	2.828	n/a	n/a	n/a	-999	6	[2, 9, 1]	12.0	catFR1	0	R1092J
698.149	2.283	1675561	PROB	2.248	n/a	n/a	n/a	-999	6	[7, 3, 5]	15.0	catFR1	0	R1092J
700.432	3.184	1677844	PROB	3.157	n/a	n/a	n/a	-999	6	[8, 6, 2]	16.0	catFR1	0	R1092J
703.616	3.253	1681028	PROB	3.253	n/a	n/a	n/a	-999	6	[5, 1, 8]	15.0	catFR1	0	R1092J
706.869	0.014	1684281	STOP	n/a	n/a	n/a	n/a	-999	6	[-999, -999, -999]	n/a	catFR1	0	R1092J
706.883	1.101	1684295	DISTRACT_END	n/a	n/a	n/a	n/a	-999	6	[0, 0, 0]	n/a	catFR1	0	R1092J
707.984	1.923	1685396	REC_START	n/a	n/a	n/a	n/a	-999	6	[0, 0, 0]	n/a	catFR1	0	R1092J
709.907	1.788	1687319	REC_WORD	1.923	n/a	ORANGUTAN	Zoo	8	6	[0, 0, 0]	n/a	catFR1	0	R1092J
711.695	1.366	1689107	REC_WORD	3.711	n/a	GORILLA	Zoo	7	6	[0, 0, 0]	n/a	catFR1	0	R1092J
713.061	3.326	1690473	REC_WORD	5.077	n/a	GIRAFFE	Zoo	1	6	[0, 0, 0]	n/a	catFR1	0	R1092J
716.387	2.188	1693799	REC_WORD	8.403	n/a	DOOR	Building	3	6	[0, 0, 0]	n/a	catFR1	0	R1092J
718.575	3.63	1695987	REC_WORD	10.591	n/a	SHELF	n/a	-999	6	[0, 0, 0]	n/a	catFR1	0	R1092J
722.205	4.031	1699617	REC_WORD	14.221	n/a	WINDOW	Building	4	6	[0, 0, 0]	n/a	catFR1	0	R1092J
726.236	11.76	1703648	REC_WORD	18.252	n/a	LETTUCE	n/a	-999	6	[0, 0, 0]	n/a	catFR1	0	R1092J
737.996	3.758	1715408	REC_END	n/a	n/a	n/a	n/a	-999	6	[0, 0, 0]	n/a	catFR1	0	R1092J
741.754	0.0	1719166	TRIAL	n/a	n/a	n/a	n/a	-999	7	[0, 0, 0]	n/a	catFR1	0	R1092J
741.754	10.428	1719166	COUNTDOWN_START	n/a	n/a	n/a	n/a	-999	7	[0, 0, 0]	n/a	catFR1	0	R1092J
752.182	0.007	1729593	COUNTDOWN_END	n/a	n/a	n/a	n/a	-999	7	[0, 0, 0]	n/a	catFR1	0	R1092J
752.189	3.7	1729600	ORIENT	n/a	n/a	n/a	n/a	-999	7	[0, 0, 0]	n/a	catFR1	0	R1092J
755.889	2.484	1733300	WORD	n/a	wordpools/wordpool_categorized_EN.txt	SUNFLOWER	Flowers	1	7	[0, 0, 0]	n/a	catFR1	0	R1092J
758.373	2.567	1735784	WORD	n/a	wordpools/wordpool_categorized_EN.txt	VIOLET	Flowers	2	7	[0, 0, 0]	n/a	catFR1	0	R1092J
760.94	2.383	1738351	WORD	n/a	wordpools/wordpool_categorized_EN.txt	THUNDERSTORM	Weather	3	7	[0, 0, 0]	n/a	catFR1	0	R1092J
763.323	2.418	1740734	WORD	n/a	wordpools/wordpool_categorized_EN.txt	CLOUD	Weather	4	7	[0, 0, 0]	n/a	catFR1	0	R1092J
765.741	2.4	1743152	WORD	n/a	wordpools/wordpool_categorized_EN.txt	CABINET	Furniture	5	7	[0, 0, 0]	n/a	catFR1	0	R1092J
768.141	2.55	1745552	WORD	n/a	wordpools/wordpool_categorized_EN.txt	BOOKCASE	Furniture	6	7	[0, 0, 0]	n/a	catFR1	0	R1092J
770.691	2.434	1748102	WORD	n/a	wordpools/wordpool_categorized_EN.txt	HUMIDITY	Weather	7	7	[0, 0, 0]	n/a	catFR1	0	R1092J
773.125	2.483	1750536	WORD	n/a	wordpools/wordpool_categorized_EN.txt	WIND	Weather	8	7	[0, 0, 0]	n/a	catFR1	0	R1092J
775.608	2.551	1753019	WORD	n/a	wordpools/wordpool_categorized_EN.txt	MARIGOLD	Flowers	9	7	[0, 0, 0]	n/a	catFR1	0	R1092J
778.159	2.417	1755570	WORD	n/a	wordpools/wordpool_categorized_EN.txt	ORCHID	Flowers	10	7	[0, 0, 0]	n/a	catFR1	0	R1092J
780.576	2.533	1757987	WORD	n/a	wordpools/wordpool_categorized_EN.txt	BED	Furniture	11	7	[0, 0, 0]	n/a	catFR1	0	R1092J
783.109	1.617	1760520	WORD	n/a	wordpools/wordpool_categorized_EN.txt	RECLINER	Furniture	12	7	[0, 0, 0]	n/a	catFR1	0	R1092J
784.726	0.001	1762137	DISTRACT_START	n/a	n/a	n/a	n/a	-999	7	[0, 0, 0]	n/a	catFR1	0	R1092J
784.727	0.016	1762138	START	n/a	n/a	n/a	n/a	-999	7	[-999, -999, -999]	n/a	catFR1	0	R1092J
784.743	6.668	1762154	PROB	6.643	n/a	n/a	n/a	-999	7	[4, 3, 3]	10.0	catFR1	0	R1092J
791.411	5.2	1768822	PROB	5.174	n/a	n/a	n/a	-999	7	[2, 3, 7]	12.0	catFR1	0	R1092J
796.611	3.601	1774022	PROB	3.566	n/a	n/a	n/a	-999	7	[9, 9, 9]	27.0	catFR1	0	R1092J
800.212	3.933	1777623	PROB	3.909	n/a	n/a	n/a	-999	7	[7, 1, 9]	17.0	catFR1	0	R1092J
804.145	2.576	1781556	PROB	2.576	n/a	n/a	n/a	-999	7	[4, 5, 8]	17.0	catFR1	0	R1092J
806.721	0.008	1784132	STOP	n/a	n/a	n/a	n/a	-999	7	[-999, -999, -999]	n/a	catFR1	0	R1092J
806.729	1.218	1784140	DISTRACT_END	n/a	n/a	n/a	n/a	-999	7	[0, 0, 0]	n/a	catFR1	0	R1092J
807.947	0.97	1785358	REC_START	n/a	n/a	n/a	n/a	-999	7	[0, 0, 0]	n/a	catFR1	0	R1092J
808.917	1.769	1786328	REC_WORD	0.97	n/a	THUNDERSTORM	Weather	3	7	[0, 0, 0]	n/a	catFR1	0	R1092J
810.686	1.933	1788097	REC_WORD	2.739	n/a	ORANGUTAN	n/a	-999	7	[0, 0, 0]	n/a	catFR1	0	R1092J
812.619	2.195	1790030	REC_WORD	4.672	n/a	GORILLA	n/a	-999	7	[0, 0, 0]	n/a	catFR1	0	R1092J
814.814	2.269	1792225	REC_WORD	6.867	n/a	ORCHID	Flowers	10	7	[0, 0, 0]	n/a	catFR1	0	R1092J
817.083	2.6	1794494	REC_WORD	9.136	n/a	VIOLET	Flowers	2	7	[0, 0, 0]	n/a	catFR1	0	R1092J
819.683	2.686	1797094	REC_WORD	11.736	n/a	FLOWER	n/a	-999	7	[0, 0, 0]	n/a	catFR1	0	R1092J
822.369	9.469	1799780	REC_WORD	14.422	n/a	DOOR	n/a	-999	7	[0, 0, 0]	n/a	catFR1	0	R1092J
831.838	4.959	1809249	REC_WORD	23.891	n/a	WINDSTORM	n/a	-999	7	[0, 0, 0]	n/a	catFR1	0	R1092J
836.797	1.162	1814208	REC_WORD	28.85	n/a	VIOLET	Flowers	2	7	[0, 0, 0]	n/a	catFR1	0	R1092J
837.959	6.908	1815370	REC_END	n/a	n/a	n/a	n/a	-999	7	[0, 0, 0]	n/a	catFR1	0	R1092J
844.867	0.0	1822278	TRIAL	n/a	n/a	n/a	n/a	-999	8	[0, 0, 0]	n/a	catFR1	0	R1092J
844.867	10.428	1822278	COUNTDOWN_START	n/a	n/a	n/a	n/a	-999	8	[0, 0, 0]	n/a	catFR1	0	R1092J
855.295	0.007	1832706	COUNTDOWN_END	n/a	n/a	n/a	n/a	-999	8	[0, 0, 0]	n/a	catFR1	0	R1092J
855.302	3.784	1832713	ORIENT	n/a	n/a	n/a	n/a	-999	8	[0, 0, 0]	n/a	catFR1	0	R1092J
859.086	2.517	1836497	WORD	n/a	wordpools/wordpool_categorized_EN.txt	FORK	KitchenTools	1	8	[0, 0, 0]	n/a	catFR1	0	R1092J
861.603	2.5	1839014	WORD	n/a	wordpools/wordpool_categorized_EN.txt	PEELER	KitchenTools	2	8	[0, 0, 0]	n/a	catFR1	0	R1092J
864.103	2.617	1841514	WORD	n/a	wordpools/wordpool_categorized_EN.txt	LEMON	Fruit	3	8	[0, 0, 0]	n/a	catFR1	0	R1092J
866.72	2.5	1844131	WORD	n/a	wordpools/wordpool_categorized_EN.txt	GRAPE	Fruit	4	8	[0, 0, 0]	n/a	catFR1	0	R1092J
869.22	2.618	1846631	WORD	n/a	wordpools/wordpool_categorized_EN.txt	HALLWAY	Building	5	8	[0, 0, 0]	n/a	catFR1	0	R1092J
871.838	2.4	1849249	WORD	n/a	wordpools/wordpool_categorized_EN.txt	FOUNDATION	Building	6	8	[0, 0, 0]	n/a	catFR1	0	R1092J
874.238	2.55	1851649	WORD	n/a	wordpools/wordpool_categorized_EN.txt	LIME	Fruit	7	8	[0, 0, 0]	n/a	catFR1	0	R1092J
876.788	2.434	1854199	WORD	n/a	wordpools/wordpool_categorized_EN.txt	BANANA	Fruit	8	8	[0, 0, 0]	n/a	catFR1	0	R1092J
879.222	2.517	1856633	WORD	n/a	wordpools/wordpool_categorized_EN.txt	SPATULA	KitchenTools	9	8	[0, 0, 0]	n/a	catFR1	0	R1092J
881.739	2.383	1859150	WORD	n/a	wordpools/wordpool_categorized_EN.txt	WHISK	KitchenTools	10	8	[0, 0, 0]	n/a	catFR1	0	R1092J
884.122	2.601	1861533	WORD	n/a	wordpools/wordpool_categorized_EN.txt	ROOM	Building	11	8	[0, 0, 0]	n/a	catFR1	0	R1092J
886.723	1.617	1864134	WORD	n/a	wordpools/wordpool_categorized_EN.txt	CEILING	Building	12	8	[0, 0, 0]	n/a	catFR1	0	R1092J
888.34	0.001	1865751	DISTRACT_START	n/a	n/a	n/a	n/a	-999	8	[0, 0, 0]	n/a	catFR1	0	R1092J
888.341	0.015	1865752	START	n/a	n/a	n/a	n/a	-999	8	[-999, -999, -999]	n/a	catFR1	0	R1092J
888.356	9.201	1865767	PROB	9.17	n/a	n/a	n/a	-999	8	[9, 7, 4]	21.0	catFR1	0	R1092J
897.557	2.634	1874968	PROB	2.608	n/a	n/a	n/a	-999	8	[5, 5, 7]	17.0	catFR1	0	R1092J
900.191	2.017	1877602	PROB	1.99	n/a	n/a	n/a	-999	8	[8, 2, 1]	11.0	catFR1	0	R1092J
902.208	2.35	1879619	PROB	2.317	n/a	n/a	n/a	-999	8	[7, 1, 9]	18.0	catFR1	0	R1092J
904.558	2.517	1881969	PROB	2.487	n/a	n/a	n/a	-999	8	[7, 7, 5]	19.0	catFR1	0	R1092J
907.075	3.058	1884486	PROB	3.058	n/a	n/a	n/a	-999	8	[1, 7, 4]	12.0	catFR1	0	R1092J
910.133	0.009	1887544	STOP	n/a	n/a	n/a	n/a	-999	8	[-999, -999, -999]	n/a	catFR1	0	R1092J
910.142	1.118	1887553	DISTRACT_END	n/a	n/a	n/a	n/a	-999	8	[0, 0, 0]	n/a	catFR1	0	R1092J
911.26	1.886	1888671	REC_START	n/a	n/a	n/a	n/a	-999	8	[0, 0, 0]	n/a	catFR1	0	R1092J
913.146	1.1	1890557	REC_WORD	1.886	n/a	PEELER	KitchenTools	2	8	[0, 0, 0]	n/a	catFR1	0	R1092J
914.246	1.567	1891657	REC_WORD	2.986	n/a	CUCUMBER	n/a	-999	8	[0, 0, 0]	n/a	catFR1	0	R1092J
915.813	1.539	1893224	REC_WORD	4.553	n/a	FORK	KitchenTools	1	8	[0, 0, 0]	n/a	catFR1	0	R1092J
917.352	9.009	1894763	REC_WORD	6.092	n/a	GRAPE	Fruit	4	8	[0, 0, 0]	n/a	catFR1	0	R1092J
926.361	3.793	1903772	REC_WORD	15.101	n/a	DOOR	n/a	-999	8	[0, 0, 0]	n/a	catFR1	0	R1092J
930.154	4.007	1907565	REC_WORD	18.894	n/a	SUNFLOWER	n/a	-999	8	[0, 0, 0]	n/a	catFR1	0	R1092J
934.161	4.561	1911572	REC_WORD	22.901	n/a	PEELER	KitchenTools	2	8	[0, 0, 0]	n/a	catFR1	0	R1092J
938.722	0.884	1916133	REC_WORD	27.462	n/a	GORILLA	n/a	-999	8	[0, 0, 0]	n/a	catFR1	0	R1092J
939.606	1.666	1917017	REC_WORD	28.346	n/a	ORANGUTAN	n/a	-999	8	[0, 0, 0]	n/a	catFR1	0	R1092J
941.272	4.075	1918683	REC_END	n/a	n/a	n/a	n/a	-999	8	[0, 0, 0]	n/a	catFR1	0	R1092J
945.347	0.0	1922758	TRIAL	n/a	n/a	n/a	n/a	-999	9	[0, 0, 0]	n/a	catFR1	0	R1092J
945.347	10.428	1922758	COUNTDOWN_START	n/a	n/a	n/a	n/a	-999	9	[0, 0, 0]	n/a	catFR1	0	R1092J
955.775	0.006	1933186	COUNTDOWN_END	n/a	n/a	n/a	n/a	-999	9	[0, 0, 0]	n/a	catFR1	0	R1092J
955.781	3.551	1933192	ORIENT	n/a	n/a	n/a	n/a	-999	9	[0, 0, 0]	n/a	catFR1	0	R1092J
959.332	2.55	1936743	WORD	n/a	wordpools/wordpool_categorized_EN.txt	CARROT	Vegetables	1	9	[0, 0, 0]	n/a	catFR1	0	R1092J
961.882	2.534	1939293	WORD	n/a	wordpools/wordpool_categorized_EN.txt	CAULIFLOWER	Vegetables	2	9	[0, 0, 0]	n/a	catFR1	0	R1092J
964.416	2.583	1941827	WORD	n/a	wordpools/wordpool_categorized_EN.txt	SCOOTER	Vehicles	3	9	[0, 0, 0]	n/a	catFR1	0	R1092J
966.999	2.401	1944410	WORD	n/a	wordpools/wordpool_categorized_EN.txt	PLANE	Vehicles	4	9	[0, 0, 0]	n/a	catFR1	0	R1092J
969.4	2.617	1946811	WORD	n/a	wordpools/wordpool_categorized_EN.txt	TROMBONE	Instruments	5	9	[0, 0, 0]	n/a	catFR1	0	R1092J
972.017	2.5	1949428	WORD	n/a	wordpools/wordpool_categorized_EN.txt	BASS	Instruments	6	9	[0, 0, 0]	n/a	catFR1	0	R1092J
974.517	2.567	1951928	WORD	n/a	wordpools/wordpool_categorized_EN.txt	ONION	Vegetables	7	9	[0, 0, 0]	n/a	catFR1	0	R1092J
977.084	2.6	1954495	WORD	n/a	wordpools/wordpool_categorized_EN.txt	CELERY	Vegetables	8	9	[0, 0, 0]	n/a	catFR1	0	R1092J
979.684	2.551	1957095	WORD	n/a	wordpools/wordpool_categorized_EN.txt	CELLO	Instruments	9	9	[0, 0, 0]	n/a	catFR1	0	R1092J
982.235	2.483	1959646	WORD	n/a	wordpools/wordpool_categorized_EN.txt	PIANO	Instruments	10	9	[0, 0, 0]	n/a	catFR1	0	R1092J
984.718	2.451	1962129	WORD	n/a	wordpools/wordpool_categorized_EN.txt	BOAT	Vehicles	11	9	[0, 0, 0]	n/a	catFR1	0	R1092J
987.169	1.617	1964580	WORD	n/a	wordpools/wordpool_categorized_EN.txt	VAN	Vehicles	12	9	[0, 0, 0]	n/a	catFR1	0	R1092J
988.786	0.001	1966197	DISTRACT_START	n/a	n/a	n/a	n/a	-999	9	[0, 0, 0]	n/a	catFR1	0	R1092J
988.787	0.015	1966198	START	n/a	n/a	n/a	n/a	-999	9	[-999, -999, -999]	n/a	catFR1	0	R1092J
988.802	3.767	1966213	PROB	3.735	n/a	n/a	n/a	-999	9	[3, 2, 6]	11.0	catFR1	0	R1092J
992.569	2.501	1969980	PROB	2.464	n/a	n/a	n/a	-999	9	[4, 1, 1]	6.0	catFR1	0	R1092J
995.07	2.683	1972481	PROB	2.651	n/a	n/a	n/a	-999	9	[9, 9, 4]	22.0	catFR1	0	R1092J
997.753	2.434	1975164	PROB	2.408	n/a	n/a	n/a	-999	9	[4, 6, 7]	17.0	catFR1	0	R1092J
1000.187	2.517	1977598	PROB	2.494	n/a	n/a	n/a	-999	9	[1, 7, 3]	11.0	catFR1	0	R1092J
1002.704	3.334	1980115	PROB	3.313	n/a	n/a	n/a	-999	9	[5, 6, 9]	20.0	catFR1	0	R1092J
1006.038	2.65	1983449	PROB	2.611	n/a	n/a	n/a	-999	9	[5, 7, 5]	17.0	catFR1	0	R1092J
1008.688	3.177	1986099	PROB	3.177	n/a	n/a	n/a	-999	9	[9, 6, 2]	17.0	catFR1	0	R1092J
1011.865	0.007	1989276	STOP	n/a	n/a	n/a	n/a	-999	9	[-999, -999, -999]	n/a	catFR1	0	R1092J
1011.872	1.151	1989283	DISTRACT_END	n/a	n/a	n/a	n/a	-999	9	[0, 0, 0]	n/a	catFR1	0	R1092J
1013.023	1.387	1990434	REC_START	n/a	n/a	n/a	n/a	-999	9	[0, 0, 0]	n/a	catFR1	0	R1092J
1014.41	1.05	1991821	REC_WORD	1.387	n/a	CAULIFLOWER	Vegetables	2	9	[0, 0, 0]	n/a	catFR1	0	R1092J
1015.46	1.342	1992871	REC_WORD	2.437	n/a	SCOOTER	Vehicles	3	9	[0, 0, 0]	n/a	catFR1	0	R1092J
1016.802	7.801	1994213	REC_WORD	3.779	n/a	GRAPE	n/a	-999	9	[0, 0, 0]	n/a	catFR1	0	R1092J
1024.603	4.833	2002014	REC_WORD	11.58	n/a	WATERMELON	n/a	-999	9	[0, 0, 0]	n/a	catFR1	0	R1092J
1029.436	2.317	2006847	REC_WORD	16.413	n/a	DOOR	n/a	-999	9	[0, 0, 0]	n/a	catFR1	0	R1092J
1031.753	6.633	2009164	REC_WORD	18.73	n/a	LETTUCE	n/a	-999	9	[0, 0, 0]	n/a	catFR1	0	R1092J
1038.386	4.649	2015797	REC_WORD	25.363	n/a	VAN	Vehicles	12	9	[0, 0, 0]	n/a	catFR1	0	R1092J
1043.035	5.942	2020446	REC_END	n/a	n/a	n/a	n/a	-999	9	[0, 0, 0]	n/a	catFR1	0	R1092J
1048.977	0.0	2026388	TRIAL	n/a	n/a	n/a	n/a	-999	10	[0, 0, 0]	n/a	catFR1	0	R1092J
1048.977	10.428	2026388	COUNTDOWN_START	n/a	n/a	n/a	n/a	-999	10	[0, 0, 0]	n/a	catFR1	0	R1092J
1059.405	0.006	2036816	COUNTDOWN_END	n/a	n/a	n/a	n/a	-999	10	[0, 0, 0]	n/a	catFR1	0	R1092J
1059.411	3.684	2036822	ORIENT	n/a	n/a	n/a	n/a	-999	10	[0, 0, 0]	n/a	catFR1	0	R1092J
1063.095	2.517	2040506	WORD	n/a	wordpools/wordpool_categorized_EN.txt	FISH	OceanAnimals	1	10	[0, 0, 0]	n/a	catFR1	0	R1092J
1065.612	2.484	2043023	WORD	n/a	wordpools/wordpool_categorized_EN.txt	CRAB	OceanAnimals	2	10	[0, 0, 0]	n/a	catFR1	0	R1092J
1068.096	2.383	2045507	WORD	n/a	wordpools/wordpool_categorized_EN.txt	OAK	Trees	3	10	[0, 0, 0]	n/a	catFR1	0	R1092J
1070.479	2.517	2047890	WORD	n/a	wordpools/wordpool_categorized_EN.txt	BIRCH	Trees	4	10	[0, 0, 0]	n/a	catFR1	0	R1092J
1072.996	2.451	2050407	WORD	n/a	wordpools/wordpool_categorized_EN.txt	DUCK	Birds	5	10	[0, 0, 0]	n/a	catFR1	0	R1092J
1075.447	2.45	2052858	WORD	n/a	wordpools/wordpool_categorized_EN.txt	CARDINAL	Birds	6	10	[0, 0, 0]	n/a	catFR1	0	R1092J
1077.897	2.55	2055308	WORD	n/a	wordpools/wordpool_categorized_EN.txt	TURTLE	OceanAnimals	7	10	[0, 0, 0]	n/a	catFR1	0	R1092J
1080.447	2.6	2057858	WORD	n/a	wordpools/wordpool_categorized_EN.txt	SQUID	OceanAnimals	8	10	[0, 0, 0]	n/a	catFR1	0	R1092J
1083.047	2.401	2060458	WORD	n/a	wordpools/wordpool_categorized_EN.txt	DOVE	Birds	9	10	[0, 0, 0]	n/a	catFR1	0	R1092J
1085.448	2.567	2062859	WORD	n/a	wordpools/wordpool_categorized_EN.txt	FINCH	Birds	10	10	[0, 0, 0]	n/a	catFR1	0	R1092J
1088.015	2.55	2065426	WORD	n/a	wordpools/wordpool_categorized_EN.txt	PINE	Trees	11	10	[0, 0, 0]	n/a	catFR1	0	R1092J
1090.565	1.617	2067976	WORD	n/a	wordpools/wordpool_categorized_EN.txt	SPRUCE	Trees	12	10	[0, 0, 0]	n/a	catFR1	0	R1092J
1092.182	0.001	2069593	DISTRACT_START	n/a	n/a	n/a	n/a	-999	10	[0, 0, 0]	n/a	catFR1	0	R1092J
1092.183	0.016	2069594	START	n/a	n/a	n/a	n/a	-999	10	[-999, -999, -999]	n/a	catFR1	0	R1092J
1092.199	3.533	2069610	PROB	3.51	n/a	n/a	n/a	-999	10	[9, 2, 4]	15.0	catFR1	0	R1092J
1095.732	2.734	2073143	PROB	2.705	n/a	n/a	n/a	-999	10	[9, 4, 5]	18.0	catFR1	0	R1092J
1098.466	2.001	2075877	PROB	1.971	n/a	n/a	n/a	-999	10	[4, 1, 1]	6.0	catFR1	0	R1092J
1100.467	3.766	2077878	PROB	3.746	n/a	n/a	n/a	-999	10	[6, 2, 5]	13.0	catFR1	0	R1092J
1104.233	2.184	2081644	PROB	2.156	n/a	n/a	n/a	-999	10	[6, 4, 8]	18.0	catFR1	0	R1092J
1106.417	3.618	2083828	PROB	3.588	n/a	n/a	n/a	-999	10	[7, 1, 2]	10.0	catFR1	0	R1092J
1110.035	2.465	2087446	PROB	2.465	n/a	n/a	n/a	-999	10	[3, 6, 9]	18.0	catFR1	0	R1092J
1112.5	0.018	2089911	STOP	n/a	n/a	n/a	n/a	-999	10	[-999, -999, -999]	n/a	catFR1	0	R1092J
1112.518	1.134	2089929	DISTRACT_END	n/a	n/a	n/a	n/a	-999	10	[0, 0, 0]	n/a	catFR1	0	R1092J
1113.652	1.731	2091063	REC_START	n/a	n/a	n/a	n/a	-999	10	[0, 0, 0]	n/a	catFR1	0	R1092J
1115.383	3.647	2092794	REC_WORD	1.731	n/a	DOOR	n/a	-999	10	[0, 0, 0]	n/a	catFR1	0	R1092J
1119.03	0.964	2096441	REC_WORD	5.378	n/a	BIRCH	Trees	4	10	[0, 0, 0]	n/a	catFR1	0	R1092J
1119.994	2.358	2097405	REC_WORD	6.342	n/a	SUNFLOWER	n/a	-999	10	[0, 0, 0]	n/a	catFR1	0	R1092J
1122.352	3.297	2099763	REC_WORD	8.7	n/a	SCOOTER	n/a	-999	10	[0, 0, 0]	n/a	catFR1	0	R1092J
1125.649	12.52	2103060	REC_WORD	11.997	n/a	DUCK	Birds	5	10	[0, 0, 0]	n/a	catFR1	0	R1092J
1138.169	4.398	2115580	REC_WORD	24.517	n/a	BIRCH	Trees	4	10	[0, 0, 0]	n/a	catFR1	0	R1092J
1142.567	1.096	2119978	REC_WORD	28.915	n/a	TEA	n/a	-999	10	[0, 0, 0]	n/a	catFR1	0	R1092J
1143.663	83.486	2121074	REC_END	n/a	n/a	n/a	n/a	-999	10	[0, 0, 0]	n/a	catFR1	0	R1092J
1227.149	0.001	2204560	COUNTDOWN_START	n/a	n/a	n/a	n/a	-999	11	[0, 0, 0]	n/a	catFR1	0	R1092J
1227.15	10.427	2204561	TRIAL	n/a	n/a	n/a	n/a	-999	11	[0, 0, 0]	n/a	catFR1	0	R1092J
1237.577	0.007	2214988	COUNTDOWN_END	n/a	n/a	n/a	n/a	-999	11	[0, 0, 0]	n/a	catFR1	0	R1092J
1237.584	3.717	2214995	ORIENT	n/a	n/a	n/a	n/a	-999	11	[0, 0, 0]	n/a	catFR1	0	R1092J
1241.301	2.4	2218712	WORD	n/a	wordpools/wordpool_categorized_EN.txt	LIGHTNING	Weather	1	11	[0, 0, 0]	n/a	catFR1	0	R1092J
1243.701	2.484	2221112	WORD	n/a	wordpools/wordpool_categorized_EN.txt	RAIN	Weather	2	11	[0, 0, 0]	n/a	catFR1	0	R1092J
1246.185	2.634	2223596	WORD	n/a	wordpools/wordpool_categorized_EN.txt	CUPCAKE	Desserts	3	11	[0, 0, 0]	n/a	catFR1	0	R1092J
1248.819	2.533	2226230	WORD	n/a	wordpools/wordpool_categorized_EN.txt	FUDGE	Desserts	4	11	[0, 0, 0]	n/a	catFR1	0	R1092J
1251.352	2.517	2228763	WORD	n/a	wordpools/wordpool_categorized_EN.txt	STAPLER	OfficeSupplies	5	11	[0, 0, 0]	n/a	catFR1	0	R1092J
1253.869	2.551	2231280	WORD	n/a	wordpools/wordpool_categorized_EN.txt	NOTEBOOK	OfficeSupplies	6	11	[0, 0, 0]	n/a	catFR1	0	R1092J
1256.42	2.517	2233831	WORD	n/a	wordpools/wordpool_categorized_EN.txt	PIE	Desserts	7	11	[0, 0, 0]	n/a	catFR1	0	R1092J
1258.937	2.6	2236348	WORD	n/a	wordpools/wordpool_categorized_EN.txt	COBBLER	Desserts	8	11	[0, 0, 0]	n/a	catFR1	0	R1092J
1261.537	2.517	2238948	WORD	n/a	wordpools/wordpool_categorized_EN.txt	DRIZZLE	Weather	9	11	[0, 0, 0]	n/a	catFR1	0	R1092J
1264.054	2.584	2241465	WORD	n/a	wordpools/wordpool_categorized_EN.txt	FOG	Weather	10	11	[0, 0, 0]	n/a	catFR1	0	R1092J
1266.638	2.45	2244049	WORD	n/a	wordpools/wordpool_categorized_EN.txt	PENCIL	OfficeSupplies	11	11	[0, 0, 0]	n/a	catFR1	0	R1092J
1269.088	1.617	2246499	WORD	n/a	wordpools/wordpool_categorized_EN.txt	BINDER	OfficeSupplies	12	11	[0, 0, 0]	n/a	catFR1	0	R1092J
1270.705	0.0	2248116	DISTRACT_START	n/a	n/a	n/a	n/a	-999	11	[0, 0, 0]	n/a	catFR1	0	R1092J
1270.705	0.017	2248116	START	n/a	n/a	n/a	n/a	-999	11	[-999, -999, -999]	n/a	catFR1	0	R1092J
1270.722	3.1	2248133	PROB	3.067	n/a	n/a	n/a	-999	11	[3, 3, 7]	11.0	catFR1	0	R1092J
1273.822	2.133	2251233	PROB	2.104	n/a	n/a	n/a	-999	11	[6, 2, 1]	9.0	catFR1	0	R1092J
1275.955	4.251	2253366	PROB	4.227	n/a	n/a	n/a	-999	11	[6, 2, 6]	14.0	catFR1	0	R1092J
1280.206	2.867	2257617	PROB	2.832	n/a	n/a	n/a	-999	11	[4, 9, 7]	20.0	catFR1	0	R1092J
1283.073	3.384	2260484	PROB	3.348	n/a	n/a	n/a	-999	11	[5, 4, 5]	14.0	catFR1	0	R1092J
1286.457	2.534	2263868	PROB	2.508	n/a	n/a	n/a	-999	11	[5, 6, 7]	18.0	catFR1	0	R1092J
1288.991	2.703	2266402	PROB	2.703	n/a	n/a	n/a	-999	11	[1, 4, 9]	14.0	catFR1	0	R1092J
1291.694	0.014	2269105	STOP	n/a	n/a	n/a	n/a	-999	11	[-999, -999, -999]	n/a	catFR1	0	R1092J
1291.708	1.033	2269119	DISTRACT_END	n/a	n/a	n/a	n/a	-999	11	[0, 0, 0]	n/a	catFR1	0	R1092J
1292.741	2.494	2270152	REC_START	n/a	n/a	n/a	n/a	-999	11	[0, 0, 0]	n/a	catFR1	0	R1092J
1295.235	0.871	2272646	REC_WORD	2.494	n/a	CUPCAKE	Desserts	3	11	[0, 0, 0]	n/a	catFR1	0	R1092J
1296.106	0.867	2273517	REC_WORD	3.365	n/a	LIGHTNING	Weather	1	11	[0, 0, 0]	n/a	catFR1	0	R1092J
1296.973	3.679	2274384	REC_WORD	4.232	n/a	THUNDER	n/a	-999	11	[0, 0, 0]	n/a	catFR1	0	R1092J
1300.652	3.909	2278063	REC_WORD	7.911	n/a	GRAPE	n/a	-999	11	[0, 0, 0]	n/a	catFR1	0	R1092J
1304.561	2.112	2281972	REC_WORD	11.82	n/a	RAIN	Weather	2	11	[0, 0, 0]	n/a	catFR1	0	R1092J
1306.673	11.117	2284084	REC_WORD	13.932	n/a	DOVE	n/a	-999	11	[0, 0, 0]	n/a	catFR1	0	R1092J
1317.79	4.966	2295201	REC_WORD	25.049	n/a	COBBLER	Desserts	8	11	[0, 0, 0]	n/a	catFR1	0	R1092J
1322.756	4.922	2300167	REC_END	n/a	n/a	n/a	n/a	-999	11	[0, 0, 0]	n/a	catFR1	0	R1092J
1327.678	0.001	2305089	COUNTDOWN_START	n/a	n/a	n/a	n/a	-999	12	[0, 0, 0]	n/a	catFR1	0	R1092J
1327.679	10.427	2305090	TRIAL	n/a	n/a	n/a	n/a	-999	12	[0, 0, 0]	n/a	catFR1	0	R1092J
1338.106	0.007	2315517	COUNTDOWN_END	n/a	n/a	n/a	n/a	-999	12	[0, 0, 0]	n/a	catFR1	0	R1092J
1338.113	3.484	2315524	ORIENT	n/a	n/a	n/a	n/a	-999	12	[0, 0, 0]	n/a	catFR1	0	R1092J
1341.597	2.417	2319008	WORD	n/a	wordpools/wordpool_categorized_EN.txt	TOE	BodyParts	1	12	[0, 0, 0]	n/a	catFR1	0	R1092J
1344.014	2.467	2321425	WORD	n/a	wordpools/wordpool_categorized_EN.txt	NOSE	BodyParts	2	12	[0, 0, 0]	n/a	catFR1	0	R1092J
1346.481	2.484	2323892	WORD	n/a	wordpools/wordpool_categorized_EN.txt	BLENDER	Appliances	3	12	[0, 0, 0]	n/a	catFR1	0	R1092J
1348.965	2.484	2326376	WORD	n/a	wordpools/wordpool_categorized_EN.txt	REFRIGERATOR	Appliances	4	12	[0, 0, 0]	n/a	catFR1	0	R1092J
1351.449	2.55	2328860	WORD	n/a	wordpools/wordpool_categorized_EN.txt	BLUEBIRD	Birds	5	12	[0, 0, 0]	n/a	catFR1	0	R1092J
1353.999	2.4	2331410	WORD	n/a	wordpools/wordpool_categorized_EN.txt	ROBIN	Birds	6	12	[0, 0, 0]	n/a	catFR1	0	R1092J
1356.399	2.6	2333809	WORD	n/a	wordpools/wordpool_categorized_EN.txt	TOASTER	Appliances	7	12	[0, 0, 0]	n/a	catFR1	0	R1092J
1358.999	2.518	2336409	WORD	n/a	wordpools/wordpool_categorized_EN.txt	OVEN	Appliances	8	12	[0, 0, 0]	n/a	catFR1	0	R1092J
1361.517	2.616	2338927	WORD	n/a	wordpools/wordpool_categorized_EN.txt	LEG	BodyParts	9	12	[0, 0, 0]	n/a	catFR1	0	R1092J
1364.133	2.601	2341543	WORD	n/a	wordpools/wordpool_categorized_EN.txt	ARM	BodyParts	10	12	[0, 0, 0]	n/a	catFR1	0	R1092J
1366.734	2.567	2344144	WORD	n/a	wordpools/wordpool_categorized_EN.txt	PIGEON	Birds	11	12	[0, 0, 0]	n/a	catFR1	0	R1092J
1369.301	1.617	2346711	WORD	n/a	wordpools/wordpool_categorized_EN.txt	CROW	Birds	12	12	[0, 0, 0]	n/a	catFR1	0	R1092J
1370.918	0.001	2348328	DISTRACT_START	n/a	n/a	n/a	n/a	-999	12	[0, 0, 0]	n/a	catFR1	0	R1092J
1370.919	0.015	2348329	START	n/a	n/a	n/a	n/a	-999	12	[-999, -999, -999]	n/a	catFR1	0	R1092J
1370.934	3.15	2348344	PROB	3.115	n/a	n/a	n/a	-999	12	[9, 9, 2]	20.0	catFR1	0	R1092J
1374.084	1.984	2351494	PROB	1.958	n/a	n/a	n/a	-999	12	[1, 3, 1]	5.0	catFR1	0	R1092J
1376.068	2.117	2353478	PROB	2.094	n/a	n/a	n/a	-999	12	[2, 4, 3]	9.0	catFR1	0	R1092J
1378.185	3.101	2355595	PROB	3.065	n/a	n/a	n/a	-999	12	[6, 7, 5]	18.0	catFR1	0	R1092J
1381.286	2.266	2358696	PROB	2.244	n/a	n/a	n/a	-999	12	[3, 3, 2]	8.0	catFR1	0	R1092J
1383.552	6.635	2360962	PROB	6.601	n/a	n/a	n/a	-999	12	[9, 7, 6]	22.0	catFR1	0	R1092J
1390.187	2.87	2367597	PROB	2.87	n/a	n/a	n/a	-999	12	[4, 8, 6]	20.0	catFR1	0	R1092J
1393.057	0.013	2370467	STOP	n/a	n/a	n/a	n/a	-999	12	[-999, -999, -999]	n/a	catFR1	0	R1092J
1393.07	1.051	2370480	DISTRACT_END	n/a	n/a	n/a	n/a	-999	12	[0, 0, 0]	n/a	catFR1	0	R1092J
1394.121	2.083	2371531	REC_START	n/a	n/a	n/a	n/a	-999	12	[0, 0, 0]	n/a	catFR1	0	R1092J
1396.204	1.006	2373614	REC_WORD	2.083	n/a	COBBLER	n/a	-999	12	[0, 0, 0]	n/a	catFR1	0	R1092J
1397.21	0.876	2374620	REC_WORD	3.089	n/a	TOE	BodyParts	1	12	[0, 0, 0]	n/a	catFR1	0	R1092J
1398.086	4.274	2375496	REC_WORD	3.965	n/a	NOSE	BodyParts	2	12	[0, 0, 0]	n/a	catFR1	0	R1092J
1402.36	1.473	2379770	REC_WORD	8.239	n/a	ROBIN	Birds	6	12	[0, 0, 0]	n/a	catFR1	0	R1092J
1403.833	1.909	2381243	REC_WORD	9.712	n/a	CROW	Birds	12	12	[0, 0, 0]	n/a	catFR1	0	R1092J
1405.742	1.678	2383152	REC_WORD	11.621	n/a	BLENDER	Appliances	3	12	[0, 0, 0]	n/a	catFR1	0	R1092J
1407.42	16.713	2384830	REC_WORD	13.299	n/a	REFRIGERATOR	Appliances	4	12	[0, 0, 0]	n/a	catFR1	0	R1092J
1424.133	5.109	2401543	REC_END	n/a	n/a	n/a	n/a	-999	12	[0, 0, 0]	n/a	catFR1	0	R1092J
1429.242	0.0	2406652	TRIAL	n/a	n/a	n/a	n/a	-999	13	[0, 0, 0]	n/a	catFR1	0	R1092J
1429.242	10.428	2406652	COUNTDOWN_START	n/a	n/a	n/a	n/a	-999	13	[0, 0, 0]	n/a	catFR1	0	R1092J
1439.67	0.006	2417080	COUNTDOWN_END	n/a	n/a	n/a	n/a	-999	13	[0, 0, 0]	n/a	catFR1	0	R1092J
1439.676	3.501	2417086	ORIENT	n/a	n/a	n/a	n/a	-999	13	[0, 0, 0]	n/a	catFR1	0	R1092J
1443.177	2.6	2420587	WORD	n/a	wordpools/wordpool_categorized_EN.txt	GOAT	FarmAnimals	1	13	[0, 0, 0]	n/a	catFR1	0	R1092J
1445.777	2.5	2423187	WORD	n/a	wordpools/wordpool_categorized_EN.txt	LAMB	FarmAnimals	2	13	[0, 0, 0]	n/a	catFR1	0	R1092J
1448.277	2.501	2425687	WORD	n/a	wordpools/wordpool_categorized_EN.txt	SPARROW	Birds	3	13	[0, 0, 0]	n/a	catFR1	0	R1092J
1450.778	2.45	2428188	WORD	n/a	wordpools/wordpool_categorized_EN.txt	SEAGULL	Birds	4	13	[0, 0, 0]	n/a	catFR1	0	R1092J
1453.228	2.617	2430638	WORD	n/a	wordpools/wordpool_categorized_EN.txt	CAR	Vehicles	5	13	[0, 0, 0]	n/a	catFR1	0	R1092J
1455.845	2.55	2433255	WORD	n/a	wordpools/wordpool_categorized_EN.txt	JEEP	Vehicles	6	13	[0, 0, 0]	n/a	catFR1	0	R1092J
1458.395	2.434	2435805	WORD	n/a	wordpools/wordpool_categorized_EN.txt	COW	FarmAnimals	7	13	[0, 0, 0]	n/a	catFR1	0	R1092J
1460.829	2.617	2438239	WORD	n/a	wordpools/wordpool_categorized_EN.txt	HEN	FarmAnimals	8	13	[0, 0, 0]	n/a	catFR1	0	R1092J
1463.446	2.6	2440856	WORD	n/a	wordpools/wordpool_categorized_EN.txt	MOPED	Vehicles	9	13	[0, 0, 0]	n/a	catFR1	0	R1092J
1466.046	2.534	2443456	WORD	n/a	wordpools/wordpool_categorized_EN.txt	TRAIN	Vehicles	10	13	[0, 0, 0]	n/a	catFR1	0	R1092J
1468.58	2.5	2445990	WORD	n/a	wordpools/wordpool_categorized_EN.txt	HAWK	Birds	11	13	[0, 0, 0]	n/a	catFR1	0	R1092J
1471.08	1.617	2448490	WORD	n/a	wordpools/wordpool_categorized_EN.txt	GOOSE	Birds	12	13	[0, 0, 0]	n/a	catFR1	0	R1092J
1472.697	0.001	2450107	DISTRACT_START	n/a	n/a	n/a	n/a	-999	13	[0, 0, 0]	n/a	catFR1	0	R1092J
1472.698	0.016	2450108	START	n/a	n/a	n/a	n/a	-999	13	[-999, -999, -999]	n/a	catFR1	0	R1092J
1472.714	3.1	2450124	PROB	3.076	n/a	n/a	n/a	-999	13	[1, 5, 5]	11.0	catFR1	0	R1092J
1475.814	4.751	2453224	PROB	4.719	n/a	n/a	n/a	-999	13	[9, 7, 7]	23.0	catFR1	0	R1092J
1480.565	2.5	2457975	PROB	2.472	n/a	n/a	n/a	-999	13	[8, 1, 9]	18.0	catFR1	0	R1092J
1483.065	3.867	2460475	PROB	3.844	n/a	n/a	n/a	-999	13	[6, 6, 7]	19.0	catFR1	0	R1092J
1486.932	2.552	2464342	PROB	2.521	n/a	n/a	n/a	-999	13	[2, 3, 5]	10.0	catFR1	0	R1092J
1489.484	3.182	2466894	PROB	3.16	n/a	n/a	n/a	-999	13	[5, 8, 4]	17.0	catFR1	0	R1092J
1492.666	5.163	2470076	PROB	5.163	n/a	n/a	n/a	-999	13	[7, 7, 7]	21.0	catFR1	0	R1092J
1497.829	0.005	2475239	STOP	n/a	n/a	n/a	n/a	-999	13	[-999, -999, -999]	n/a	catFR1	0	R1092J
1497.834	1.1	2475244	DISTRACT_END	n/a	n/a	n/a	n/a	-999	13	[0, 0, 0]	n/a	catFR1	0	R1092J
1498.934	1.356	2476344	REC_START	n/a	n/a	n/a	n/a	-999	13	[0, 0, 0]	n/a	catFR1	0	R1092J
1500.29	0.884	2477700	REC_WORD	1.356	n/a	CHEEK	n/a	-999	13	[0, 0, 0]	n/a	catFR1	0	R1092J
1501.174	2.947	2478584	REC_WORD	2.24	n/a	CAR	Vehicles	5	13	[0, 0, 0]	n/a	catFR1	0	R1092J
1504.121	2.962	2481531	REC_WORD	5.187	n/a	COBBLER	n/a	-999	13	[0, 0, 0]	n/a	catFR1	0	R1092J
1507.083	5.803	2484493	REC_WORD	8.149	n/a	BLENDER	n/a	-999	13	[0, 0, 0]	n/a	catFR1	0	R1092J
1512.886	2.637	2490296	REC_WORD	13.952	n/a	COW	FarmAnimals	7	13	[0, 0, 0]	n/a	catFR1	0	R1092J
1515.523	3.95	2492933	REC_WORD	16.589	n/a	SPARROW	Birds	3	13	[0, 0, 0]	n/a	catFR1	0	R1092J
1519.473	9.476	2496883	REC_WORD	20.539	n/a	HAWK	Birds	11	13	[0, 0, 0]	n/a	catFR1	0	R1092J
1528.949	4.222	2506359	REC_END	n/a	n/a	n/a	n/a	-999	13	[0, 0, 0]	n/a	catFR1	0	R1092J
1533.171	0.001	2510581	COUNTDOWN_START	n/a	n/a	n/a	n/a	-999	14	[0, 0, 0]	n/a	catFR1	0	R1092J
1533.172	10.427	2510582	TRIAL	n/a	n/a	n/a	n/a	-999	14	[0, 0, 0]	n/a	catFR1	0	R1092J
1543.599	0.007	2521009	COUNTDOWN_END	n/a	n/a	n/a	n/a	-999	14	[0, 0, 0]	n/a	catFR1	0	R1092J
1543.606	3.684	2521016	ORIENT	n/a	n/a	n/a	n/a	-999	14	[0, 0, 0]	n/a	catFR1	0	R1092J
1547.29	2.584	2524700	WORD	n/a	wordpools/wordpool_categorized_EN.txt	BLOUSE	Clothing	1	14	[0, 0, 0]	n/a	catFR1	0	R1092J
1549.874	2.383	2527284	WORD	n/a	wordpools/wordpool_categorized_EN.txt	SOCKS	Clothing	2	14	[0, 0, 0]	n/a	catFR1	0	R1092J
1552.257	2.384	2529667	WORD	n/a	wordpools/wordpool_categorized_EN.txt	BARBIE	Toys	3	14	[0, 0, 0]	n/a	catFR1	0	R1092J
1554.641	2.617	2532051	WORD	n/a	wordpools/wordpool_categorized_EN.txt	SLINKY	Toys	4	14	[0, 0, 0]	n/a	catFR1	0	R1092J
1557.258	2.517	2534668	WORD	n/a	wordpools/wordpool_categorized_EN.txt	MARKER	OfficeSupplies	5	14	[0, 0, 0]	n/a	catFR1	0	R1092J
1559.775	2.467	2537185	WORD	n/a	wordpools/wordpool_categorized_EN.txt	FOLDER	OfficeSupplies	6	14	[0, 0, 0]	n/a	catFR1	0	R1092J
1562.242	2.517	2539652	WORD	n/a	wordpools/wordpool_categorized_EN.txt	JACKET	Clothing	7	14	[0, 0, 0]	n/a	catFR1	0	R1092J
1564.759	2.534	2542169	WORD	n/a	wordpools/wordpool_categorized_EN.txt	SHIRT	Clothing	8	14	[0, 0, 0]	n/a	catFR1	0	R1092J
1567.293	2.467	2544703	WORD	n/a	wordpools/wordpool_categorized_EN.txt	PEN	OfficeSupplies	9	14	[0, 0, 0]	n/a	catFR1	0	R1092J
1569.76	2.433	2547170	WORD	n/a	wordpools/wordpool_categorized_EN.txt	TAPE	OfficeSupplies	10	14	[0, 0, 0]	n/a	catFR1	0	R1092J
1572.193	2.517	2549603	WORD	n/a	wordpools/wordpool_categorized_EN.txt	FOOTBALL	Toys	11	14	[0, 0, 0]	n/a	catFR1	0	R1092J
1574.71	1.617	2552120	WORD	n/a	wordpools/wordpool_categorized_EN.txt	PUZZLE	Toys	12	14	[0, 0, 0]	n/a	catFR1	0	R1092J
1576.327	0.001	2553737	DISTRACT_START	n/a	n/a	n/a	n/a	-999	14	[0, 0, 0]	n/a	catFR1	0	R1092J
1576.328	0.016	2553738	START	n/a	n/a	n/a	n/a	-999	14	[-999, -999, -999]	n/a	catFR1	0	R1092J
1576.344	8.467	2553754	PROB	8.433	n/a	n/a	n/a	-999	14	[9, 4, 8]	21.0	catFR1	0	R1092J
1584.811	2.517	2562221	PROB	2.494	n/a	n/a	n/a	-999	14	[1, 1, 6]	8.0	catFR1	0	R1092J
1587.328	2.918	2564738	PROB	2.889	n/a	n/a	n/a	-999	14	[2, 6, 3]	11.0	catFR1	0	R1092J
1590.246	2.65	2567656	PROB	2.619	n/a	n/a	n/a	-999	14	[6, 5, 5]	16.0	catFR1	0	R1092J
1592.896	3.0	2570306	PROB	2.969	n/a	n/a	n/a	-999	14	[5, 3, 9]	17.0	catFR1	0	R1092J
1595.896	2.465	2573306	PROB	2.465	n/a	n/a	n/a	-999	14	[7, 7, 5]	19.0	catFR1	0	R1092J
1598.361	0.019	2575771	STOP	n/a	n/a	n/a	n/a	-999	14	[-999, -999, -999]	n/a	catFR1	0	R1092J
1598.38	1.051	2575790	DISTRACT_END	n/a	n/a	n/a	n/a	-999	14	[0, 0, 0]	n/a	catFR1	0	R1092J
1599.431	6.343	2576841	REC_START	n/a	n/a	n/a	n/a	-999	14	[0, 0, 0]	n/a	catFR1	0	R1092J
1605.774	6.418	2583184	REC_WORD	6.343	n/a	SUNFLOWER	n/a	-999	14	[0, 0, 0]	n/a	catFR1	0	R1092J
1612.192	7.303	2589602	REC_WORD	12.761	n/a	SOCKS	Clothing	2	14	[0, 0, 0]	n/a	catFR1	0	R1092J
1619.495	1.796	2596905	REC_WORD	20.064	n/a	COBBLER	n/a	-999	14	[0, 0, 0]	n/a	catFR1	0	R1092J
1621.291	2.179	2598701	REC_WORD	21.86	n/a	SHOES	n/a	-999	14	[0, 0, 0]	n/a	catFR1	0	R1092J
1623.47	3.641	2600880	REC_WORD	24.039	n/a	CROW	n/a	-999	14	[0, 0, 0]	n/a	catFR1	0	R1092J
1627.111	2.331	2604521	REC_WORD	27.68	n/a	FINCH	n/a	-999	14	[0, 0, 0]	n/a	catFR1	0	R1092J
1629.442	3.043	2606852	REC_END	n/a	n/a	n/a	n/a	-999	14	[0, 0, 0]	n/a	catFR1	0	R1092J
1632.485	0.0	2609895	TRIAL	n/a	n/a	n/a	n/a	-999	15	[0, 0, 0]	n/a	catFR1	0	R1092J
1632.485	10.428	2609895	COUNTDOWN_START	n/a	n/a	n/a	n/a	-999	15	[0, 0, 0]	n/a	catFR1	0	R1092J
1642.913	0.022	2620323	COUNTDOWN_END	n/a	n/a	n/a	n/a	-999	15	[0, 0, 0]	n/a	catFR1	0	R1092J
1642.935	3.684	2620345	ORIENT	n/a	n/a	n/a	n/a	-999	15	[0, 0, 0]	n/a	catFR1	0	R1092J
1646.619	2.501	2624029	WORD	n/a	wordpools/wordpool_categorized_EN.txt	THUNDER	Weather	1	15	[0, 0, 0]	n/a	catFR1	0	R1092J
1649.12	2.434	2626530	WORD	n/a	wordpools/wordpool_categorized_EN.txt	HURRICANE	Weather	2	15	[0, 0, 0]	n/a	catFR1	0	R1092J
1651.554	2.499	2628964	WORD	n/a	wordpools/wordpool_categorized_EN.txt	LAKE	Landscapes	3	15	[0, 0, 0]	n/a	catFR1	0	R1092J
1654.053	2.568	2631463	WORD	n/a	wordpools/wordpool_categorized_EN.txt	CREEK	Landscapes	4	15	[0, 0, 0]	n/a	catFR1	0	R1092J
1656.621	2.433	2634031	WORD	n/a	wordpools/wordpool_categorized_EN.txt	HAMMER	Tools	5	15	[0, 0, 0]	n/a	catFR1	0	R1092J
1659.054	2.467	2636464	WORD	n/a	wordpools/wordpool_categorized_EN.txt	WRENCH	Tools	6	15	[0, 0, 0]	n/a	catFR1	0	R1092J
1661.521	2.55	2638931	WORD	n/a	wordpools/wordpool_categorized_EN.txt	TORNADO	Weather	7	15	[0, 0, 0]	n/a	catFR1	0	R1092J
1664.071	2.418	2641481	WORD	n/a	wordpools/wordpool_categorized_EN.txt	SNOW	Weather	8	15	[0, 0, 0]	n/a	catFR1	0	R1092J
1666.489	2.533	2643899	WORD	n/a	wordpools/wordpool_categorized_EN.txt	DRILL	Tools	9	15	[0, 0, 0]	n/a	catFR1	0	R1092J
1669.022	2.584	2646432	WORD	n/a	wordpools/wordpool_categorized_EN.txt	SHOVEL	Tools	10	15	[0, 0, 0]	n/a	catFR1	0	R1092J
1671.606	2.6	2649016	WORD	n/a	wordpools/wordpool_categorized_EN.txt	ISLAND	Landscapes	11	15	[0, 0, 0]	n/a	catFR1	0	R1092J
1674.206	1.617	2651616	WORD	n/a	wordpools/wordpool_categorized_EN.txt	STREAM	Landscapes	12	15	[0, 0, 0]	n/a	catFR1	0	R1092J
1675.823	0.001	2653233	DISTRACT_START	n/a	n/a	n/a	n/a	-999	15	[0, 0, 0]	n/a	catFR1	0	R1092J
1675.824	0.016	2653234	START	n/a	n/a	n/a	n/a	-999	15	[-999, -999, -999]	n/a	catFR1	0	R1092J
1675.84	3.8	2653250	PROB	3.773	n/a	n/a	n/a	-999	15	[7, 1, 6]	13.0	catFR1	0	R1092J
1679.64	3.134	2657050	PROB	3.109	n/a	n/a	n/a	-999	15	[6, 7, 2]	15.0	catFR1	0	R1092J
1682.774	3.217	2660184	PROB	3.183	n/a	n/a	n/a	-999	15	[6, 9, 9]	24.0	catFR1	0	R1092J
1685.991	2.884	2663401	PROB	2.862	n/a	n/a	n/a	-999	15	[7, 8, 5]	20.0	catFR1	0	R1092J
1688.875	2.384	2666285	PROB	2.354	n/a	n/a	n/a	-999	15	[2, 9, 9]	20.0	catFR1	0	R1092J
1691.259	2.133	2668669	PROB	2.097	n/a	n/a	n/a	-999	15	[1, 1, 2]	4.0	catFR1	0	R1092J
1693.392	2.837	2670802	PROB	2.837	n/a	n/a	n/a	-999	15	[7, 4, 2]	13.0	catFR1	0	R1092J
1696.229	0.013	2673639	STOP	n/a	n/a	n/a	n/a	-999	15	[-999, -999, -999]	n/a	catFR1	0	R1092J
1696.242	1.051	2673652	DISTRACT_END	n/a	n/a	n/a	n/a	-999	15	[0, 0, 0]	n/a	catFR1	0	R1092J
1697.293	1.585	2674703	REC_START	n/a	n/a	n/a	n/a	-999	15	[0, 0, 0]	n/a	catFR1	0	R1092J
1698.878	0.333	2676288	REC_WORD_VV	1.585	n/a	<>	n/a	-999	15	[0, 0, 0]	n/a	catFR1	0	R1092J
1699.211	0.591	2676621	REC_WORD	1.918	n/a	CREEK	Landscapes	4	15	[0, 0, 0]	n/a	catFR1	0	R1092J
1699.802	1.95	2677212	REC_WORD	2.509	n/a	THUNDER	Weather	1	15	[0, 0, 0]	n/a	catFR1	0	R1092J
1701.752	2.015	2679162	REC_WORD	4.459	n/a	STREAM	Landscapes	12	15	[0, 0, 0]	n/a	catFR1	0	R1092J
1703.767	16.473	2681177	REC_WORD	6.474	n/a	HURRICANE	Weather	2	15	[0, 0, 0]	n/a	catFR1	0	R1092J
1720.24	4.237	2697650	REC_WORD	22.947	n/a	WRENCH	Tools	6	15	[0, 0, 0]	n/a	catFR1	0	R1092J
1724.477	2.827	2701887	REC_WORD	27.184	n/a	HAMMER	Tools	5	15	[0, 0, 0]	n/a	catFR1	0	R1092J
1727.304	7.776	2704714	REC_END	n/a	n/a	n/a	n/a	-999	15	[0, 0, 0]	n/a	catFR1	0	R1092J
1735.08	0.001	2712490	COUNTDOWN_START	n/a	n/a	n/a	n/a	-999	16	[0, 0, 0]	n/a	catFR1	0	R1092J
1735.081	10.427	2712491	TRIAL	n/a	n/a	n/a	n/a	-999	16	[0, 0, 0]	n/a	catFR1	0	R1092J
1745.508	0.007	2722918	COUNTDOWN_END	n/a	n/a	n/a	n/a	-999	16	[0, 0, 0]	n/a	catFR1	0	R1092J
1745.515	3.534	2722925	ORIENT	n/a	n/a	n/a	n/a	-999	16	[0, 0, 0]	n/a	catFR1	0	R1092J
1749.049	2.5	2726459	WORD	n/a	wordpools/wordpool_categorized_EN.txt	BEE	Insects	1	16	[0, 0, 0]	n/a	catFR1	0	R1092J
1751.549	2.501	2728959	WORD	n/a	wordpools/wordpool_categorized_EN.txt	FLY	Insects	2	16	[0, 0, 0]	n/a	catFR1	0	R1092J
1754.05	2.383	2731460	WORD	n/a	wordpools/wordpool_categorized_EN.txt	GLUE	OfficeSupplies	3	16	[0, 0, 0]	n/a	catFR1	0	R1092J
1756.433	2.467	2733843	WORD	n/a	wordpools/wordpool_categorized_EN.txt	RULER	OfficeSupplies	4	16	[0, 0, 0]	n/a	catFR1	0	R1092J
1758.9	2.617	2736310	WORD	n/a	wordpools/wordpool_categorized_EN.txt	GRATER	KitchenTools	5	16	[0, 0, 0]	n/a	catFR1	0	R1092J
1761.517	2.5	2738927	WORD	n/a	wordpools/wordpool_categorized_EN.txt	CORKSCREW	KitchenTools	6	16	[0, 0, 0]	n/a	catFR1	0	R1092J
1764.017	2.418	2741427	WORD	n/a	wordpools/wordpool_categorized_EN.txt	ERASER	OfficeSupplies	7	16	[0, 0, 0]	n/a	catFR1	0	R1092J
1766.435	2.6	2743845	WORD	n/a	wordpools/wordpool_categorized_EN.txt	PAPER	OfficeSupplies	8	16	[0, 0, 0]	n/a	catFR1	0	R1092J
1769.035	2.451	2746445	WORD	n/a	wordpools/wordpool_categorized_EN.txt	MOSQUITO	Insects	9	16	[0, 0, 0]	n/a	catFR1	0	R1092J
1771.486	2.483	2748896	WORD	n/a	wordpools/wordpool_categorized_EN.txt	BEETLE	Insects	10	16	[0, 0, 0]	n/a	catFR1	0	R1092J
1773.969	2.567	2751379	WORD	n/a	wordpools/wordpool_categorized_EN.txt	SPOON	KitchenTools	11	16	[0, 0, 0]	n/a	catFR1	0	R1092J
1776.536	1.617	2753946	WORD	n/a	wordpools/wordpool_categorized_EN.txt	LADLE	KitchenTools	12	16	[0, 0, 0]	n/a	catFR1	0	R1092J
1778.153	0.001	2755563	DISTRACT_START	n/a	n/a	n/a	n/a	-999	16	[0, 0, 0]	n/a	catFR1	0	R1092J
1778.154	0.016	2755564	START	n/a	n/a	n/a	n/a	-999	16	[-999, -999, -999]	n/a	catFR1	0	R1092J
1778.17	3.75	2755580	PROB	3.727	n/a	n/a	n/a	-999	16	[6, 9, 5]	20.0	catFR1	0	R1092J
1781.92	6.034	2759330	PROB	6.001	n/a	n/a	n/a	-999	16	[9, 3, 4]	16.0	catFR1	0	R1092J
1787.954	4.484	2765364	PROB	4.455	n/a	n/a	n/a	-999	16	[8, 8, 7]	24.0	catFR1	0	R1092J
1792.438	2.417	2769848	PROB	2.394	n/a	n/a	n/a	-999	16	[3, 5, 5]	13.0	catFR1	0	R1092J
1794.855	3.034	2772265	PROB	3.002	n/a	n/a	n/a	-999	16	[8, 5, 4]	17.0	catFR1	0	R1092J
1797.889	2.119	2775299	PROB	2.119	n/a	n/a	n/a	-999	16	[1, 2, 2]	5.0	catFR1	0	R1092J
1800.008	0.014	2777418	STOP	n/a	n/a	n/a	n/a	-999	16	[-999, -999, -999]	n/a	catFR1	0	R1092J
1800.022	1.051	2777432	DISTRACT_END	n/a	n/a	n/a	n/a	-999	16	[0, 0, 0]	n/a	catFR1	0	R1092J
1801.073	1.542	2778483	REC_START	n/a	n/a	n/a	n/a	-999	16	[0, 0, 0]	n/a	catFR1	0	R1092J
1802.615	1.476	2780025	REC_WORD	1.542	n/a	FLY	Insects	2	16	[0, 0, 0]	n/a	catFR1	0	R1092J
1804.091	1.244	2781501	REC_WORD	3.018	n/a	BEE	Insects	1	16	[0, 0, 0]	n/a	catFR1	0	R1092J
1805.335	2.854	2782745	REC_WORD	4.262	n/a	MOSQUITO	Insects	9	16	[0, 0, 0]	n/a	catFR1	0	R1092J
1808.189	14.407	2785599	REC_WORD	7.116	n/a	LADLE	KitchenTools	12	16	[0, 0, 0]	n/a	catFR1	0	R1092J
1822.596	0.556	2800006	REC_WORD	21.523	n/a	CREEK	n/a	-999	16	[0, 0, 0]	n/a	catFR1	0	R1092J
1823.152	2.506	2800562	REC_WORD	22.079	n/a	STREAM	n/a	-999	16	[0, 0, 0]	n/a	catFR1	0	R1092J
1825.658	3.557	2803068	REC_WORD_VV	24.585	n/a	<>	n/a	-999	16	[0, 0, 0]	n/a	catFR1	0	R1092J
1829.215	1.869	2806625	REC_WORD	28.142	n/a	GRATER	KitchenTools	5	16	[0, 0, 0]	n/a	catFR1	0	R1092J
1831.084	18.161	2808494	REC_END	n/a	n/a	n/a	n/a	-999	16	[0, 0, 0]	n/a	catFR1	0	R1092J
1849.245	0.0	2826655	COUNTDOWN_START	n/a	n/a	n/a	n/a	-999	17	[0, 0, 0]	n/a	catFR1	0	R1092J
1849.245	10.428	2826655	TRIAL	n/a	n/a	n/a	n/a	-999	17	[0, 0, 0]	n/a	catFR1	0	R1092J
1859.673	0.007	2837083	COUNTDOWN_END	n/a	n/a	n/a	n/a	-999	17	[0, 0, 0]	n/a	catFR1	0	R1092J
1859.68	3.783	2837090	ORIENT	n/a	n/a	n/a	n/a	-999	17	[0, 0, 0]	n/a	catFR1	0	R1092J
1863.463	2.551	2840873	WORD	n/a	wordpools/wordpool_categorized_EN.txt	BROWNIES	Desserts	1	17	[0, 0, 0]	n/a	catFR1	0	R1092J
1866.014	2.483	2843424	WORD	n/a	wordpools/wordpool_categorized_EN.txt	CHEESECAKE	Desserts	2	17	[0, 0, 0]	n/a	catFR1	0	R1092J
1868.497	2.468	2845907	WORD	n/a	wordpools/wordpool_categorized_EN.txt	MONKEY	Zoo	3	17	[0, 0, 0]	n/a	catFR1	0	R1092J
1870.965	2.416	2848375	WORD	n/a	wordpools/wordpool_categorized_EN.txt	CHIMPANZEE	Zoo	4	17	[0, 0, 0]	n/a	catFR1	0	R1092J
1873.381	2.45	2850791	WORD	n/a	wordpools/wordpool_categorized_EN.txt	SHORTS	Clothing	5	17	[0, 0, 0]	n/a	catFR1	0	R1092J
1875.831	2.434	2853241	WORD	n/a	wordpools/wordpool_categorized_EN.txt	JEANS	Clothing	6	17	[0, 0, 0]	n/a	catFR1	0	R1092J
1878.265	2.534	2855675	WORD	n/a	wordpools/wordpool_categorized_EN.txt	JELLO	Desserts	7	17	[0, 0, 0]	n/a	catFR1	0	R1092J
1880.799	2.55	2858209	WORD	n/a	wordpools/wordpool_categorized_EN.txt	CAKE	Desserts	8	17	[0, 0, 0]	n/a	catFR1	0	R1092J
1883.349	2.501	2860759	WORD	n/a	wordpools/wordpool_categorized_EN.txt	DRESS	Clothing	9	17	[0, 0, 0]	n/a	catFR1	0	R1092J
1885.85	2.517	2863260	WORD	n/a	wordpools/wordpool_categorized_EN.txt	UNDERWEAR	Clothing	10	17	[0, 0, 0]	n/a	catFR1	0	R1092J
1888.367	2.617	2865777	WORD	n/a	wordpools/wordpool_categorized_EN.txt	TIGER	Zoo	11	17	[0, 0, 0]	n/a	catFR1	0	R1092J
1890.984	1.616	2868394	WORD	n/a	wordpools/wordpool_categorized_EN.txt	LION	Zoo	12	17	[0, 0, 0]	n/a	catFR1	0	R1092J
1892.6	0.001	2870010	DISTRACT_START	n/a	n/a	n/a	n/a	-999	17	[0, 0, 0]	n/a	catFR1	0	R1092J
1892.601	0.016	2870011	START	n/a	n/a	n/a	n/a	-999	17	[-999, -999, -999]	n/a	catFR1	0	R1092J
1892.617	3.034	2870027	PROB	3.011	n/a	n/a	n/a	-999	17	[9, 5, 5]	19.0	catFR1	0	R1092J
1895.651	3.384	2873061	PROB	3.361	n/a	n/a	n/a	-999	17	[2, 6, 6]	14.0	catFR1	0	R1092J
1899.035	2.784	2876445	PROB	2.761	n/a	n/a	n/a	-999	17	[9, 2, 1]	12.0	catFR1	0	R1092J
1901.819	2.65	2879229	PROB	2.617	n/a	n/a	n/a	-999	17	[4, 7, 1]	12.0	catFR1	0	R1092J
1904.469	2.533	2881879	PROB	2.511	n/a	n/a	n/a	-999	17	[5, 6, 6]	17.0	catFR1	0	R1092J
1907.002	3.117	2884412	PROB	3.09	n/a	n/a	n/a	-999	17	[9, 7, 1]	17.0	catFR1	0	R1092J
1910.119	2.477	2887529	PROB	2.477	n/a	n/a	n/a	-999	17	[4, 6, 7]	17.0	catFR1	0	R1092J
1912.596	0.007	2890006	STOP	n/a	n/a	n/a	n/a	-999	17	[-999, -999, -999]	n/a	catFR1	0	R1092J
1912.603	1.151	2890013	DISTRACT_END	n/a	n/a	n/a	n/a	-999	17	[0, 0, 0]	n/a	catFR1	0	R1092J
1913.754	1.712	2891164	REC_START	n/a	n/a	n/a	n/a	-999	17	[0, 0, 0]	n/a	catFR1	0	R1092J
1915.466	1.259	2892876	REC_WORD_VV	1.712	n/a	<>	n/a	-999	17	[0, 0, 0]	n/a	catFR1	0	R1092J
1916.725	2.576	2894135	REC_WORD	2.971	n/a	LION	Zoo	12	17	[0, 0, 0]	n/a	catFR1	0	R1092J
1919.301	4.715	2896711	REC_WORD	5.547	n/a	TIGER	Zoo	11	17	[0, 0, 0]	n/a	catFR1	0	R1092J
1924.016	19.486	2901426	REC_WORD	10.262	n/a	BLENDER	n/a	-999	17	[0, 0, 0]	n/a	catFR1	0	R1092J
1943.502	0.263	2920912	REC_WORD	29.748	n/a	BEE	n/a	-999	17	[0, 0, 0]	n/a	catFR1	0	R1092J
1943.765	3.409	2921175	REC_END	n/a	n/a	n/a	n/a	-999	17	[0, 0, 0]	n/a	catFR1	0	R1092J
1947.174	0.001	2924584	COUNTDOWN_START	n/a	n/a	n/a	n/a	-999	18	[0, 0, 0]	n/a	catFR1	0	R1092J
1947.175	10.427	2924585	TRIAL	n/a	n/a	n/a	n/a	-999	18	[0, 0, 0]	n/a	catFR1	0	R1092J
1957.602	0.007	2935012	COUNTDOWN_END	n/a	n/a	n/a	n/a	-999	18	[0, 0, 0]	n/a	catFR1	0	R1092J
1957.609	3.834	2935019	ORIENT	n/a	n/a	n/a	n/a	-999	18	[0, 0, 0]	n/a	catFR1	0	R1092J
1961.443	2.583	2938853	WORD	n/a	wordpools/wordpool_categorized_EN.txt	TURKEY	FarmAnimals	1	18	[0, 0, 0]	n/a	catFR1	0	R1092J
1964.026	2.434	2941435	WORD	n/a	wordpools/wordpool_categorized_EN.txt	PIG	FarmAnimals	2	18	[0, 0, 0]	n/a	catFR1	0	R1092J
1966.46	2.434	2943869	WORD	n/a	wordpools/wordpool_categorized_EN.txt	PANTS	Clothing	3	18	[0, 0, 0]	n/a	catFR1	0	R1092J
1968.894	2.417	2946303	WORD	n/a	wordpools/wordpool_categorized_EN.txt	SHOES	Clothing	4	18	[0, 0, 0]	n/a	catFR1	0	R1092J
1971.311	2.517	2948720	WORD	n/a	wordpools/wordpool_categorized_EN.txt	DISHWASHER	Appliances	5	18	[0, 0, 0]	n/a	catFR1	0	R1092J
1973.828	2.583	2951237	WORD	n/a	wordpools/wordpool_categorized_EN.txt	FREEZER	Appliances	6	18	[0, 0, 0]	n/a	catFR1	0	R1092J
1976.411	2.584	2953820	WORD	n/a	wordpools/wordpool_categorized_EN.txt	SKIRT	Clothing	7	18	[0, 0, 0]	n/a	catFR1	0	R1092J
1978.995	2.5	2956404	WORD	n/a	wordpools/wordpool_categorized_EN.txt	COAT	Clothing	8	18	[0, 0, 0]	n/a	catFR1	0	R1092J
1981.495	2.417	2958904	WORD	n/a	wordpools/wordpool_categorized_EN.txt	ROOSTER	FarmAnimals	9	18	[0, 0, 0]	n/a	catFR1	0	R1092J
1983.912	2.601	2961321	WORD	n/a	wordpools/wordpool_categorized_EN.txt	SHEEP	FarmAnimals	10	18	[0, 0, 0]	n/a	catFR1	0	R1092J
1986.513	2.433	2963922	WORD	n/a	wordpools/wordpool_categorized_EN.txt	DRYER	Appliances	11	18	[0, 0, 0]	n/a	catFR1	0	R1092J
1988.946	1.617	2966355	WORD	n/a	wordpools/wordpool_categorized_EN.txt	STOVE	Appliances	12	18	[0, 0, 0]	n/a	catFR1	0	R1092J
1990.563	0.001	2967972	DISTRACT_START	n/a	n/a	n/a	n/a	-999	18	[0, 0, 0]	n/a	catFR1	0	R1092J
1990.564	0.016	2967973	START	n/a	n/a	n/a	n/a	-999	18	[-999, -999, -999]	n/a	catFR1	0	R1092J
1990.58	5.517	2967989	PROB	5.484	n/a	n/a	n/a	-999	18	[9, 5, 7]	21.0	catFR1	0	R1092J
1996.097	3.567	2973506	PROB	3.543	n/a	n/a	n/a	-999	18	[5, 8, 6]	19.0	catFR1	0	R1092J
1999.664	2.301	2977073	PROB	2.28	n/a	n/a	n/a	-999	18	[8, 2, 2]	12.0	catFR1	0	R1092J
2001.965	2.25	2979374	PROB	2.227	n/a	n/a	n/a	-999	18	[1, 9, 2]	12.0	catFR1	0	R1092J
2004.215	3.867	2981624	PROB	3.833	n/a	n/a	n/a	-999	18	[6, 3, 5]	14.0	catFR1	0	R1092J
2008.082	2.384	2985491	PROB	2.35	n/a	n/a	n/a	-999	18	[5, 2, 2]	9.0	catFR1	0	R1092J
2010.466	2.629	2987875	PROB	2.629	n/a	n/a	n/a	-999	18	[1, 2, 5]	8.0	catFR1	0	R1092J
2013.095	0.004	2990504	STOP	n/a	n/a	n/a	n/a	-999	18	[-999, -999, -999]	n/a	catFR1	0	R1092J
2013.099	1.101	2990508	DISTRACT_END	n/a	n/a	n/a	n/a	-999	18	[0, 0, 0]	n/a	catFR1	0	R1092J
2014.2	1.882	2991609	REC_START	n/a	n/a	n/a	n/a	-999	18	[0, 0, 0]	n/a	catFR1	0	R1092J
2016.082	4.403	2993491	REC_WORD	1.882	n/a	TURKEY	FarmAnimals	1	18	[0, 0, 0]	n/a	catFR1	0	R1092J
2020.485	13.781	2997894	REC_WORD	6.285	n/a	OVEN	n/a	-999	18	[0, 0, 0]	n/a	catFR1	0	R1092J
2034.266	1.957	3011675	REC_WORD	20.066	n/a	DRESSER	n/a	-999	18	[0, 0, 0]	n/a	catFR1	0	R1092J
2036.223	2.526	3013632	REC_WORD	22.023	n/a	SHOES	Clothing	4	18	[0, 0, 0]	n/a	catFR1	0	R1092J
2038.749	5.462	3016158	REC_WORD	24.549	n/a	SHIRT	n/a	-999	18	[0, 0, 0]	n/a	catFR1	0	R1092J
2044.211	3.309	3021620	REC_END	n/a	n/a	n/a	n/a	-999	18	[0, 0, 0]	n/a	catFR1	0	R1092J
2047.52	0.001	3024929	COUNTDOWN_START	n/a	n/a	n/a	n/a	-999	19	[0, 0, 0]	n/a	catFR1	0	R1092J
2047.521	10.427	3024930	TRIAL	n/a	n/a	n/a	n/a	-999	19	[0, 0, 0]	n/a	catFR1	0	R1092J
2057.948	0.007	3035357	COUNTDOWN_END	n/a	n/a	n/a	n/a	-999	19	[0, 0, 0]	n/a	catFR1	0	R1092J
2057.955	3.701	3035364	ORIENT	n/a	n/a	n/a	n/a	-999	19	[0, 0, 0]	n/a	catFR1	0	R1092J
2061.656	2.516	3039065	WORD	n/a	wordpools/wordpool_categorized_EN.txt	SPEAKER	Electronics	1	19	[0, 0, 0]	n/a	catFR1	0	R1092J
2064.172	2.618	3041581	WORD	n/a	wordpools/wordpool_categorized_EN.txt	COMPUTER	Electronics	2	19	[0, 0, 0]	n/a	catFR1	0	R1092J
2066.79	2.517	3044199	WORD	n/a	wordpools/wordpool_categorized_EN.txt	SAW	Tools	3	19	[0, 0, 0]	n/a	catFR1	0	R1092J
2069.307	2.433	3046716	WORD	n/a	wordpools/wordpool_categorized_EN.txt	AXE	Tools	4	19	[0, 0, 0]	n/a	catFR1	0	R1092J
2071.74	2.517	3049149	WORD	n/a	wordpools/wordpool_categorized_EN.txt	MAPLE	Trees	5	19	[0, 0, 0]	n/a	catFR1	0	R1092J
2074.257	2.467	3051666	WORD	n/a	wordpools/wordpool_categorized_EN.txt	CEDAR	Trees	6	19	[0, 0, 0]	n/a	catFR1	0	R1092J
2076.724	2.616	3054133	WORD	n/a	wordpools/wordpool_categorized_EN.txt	SCANNER	Electronics	7	19	[0, 0, 0]	n/a	catFR1	0	R1092J
2079.34	2.601	3056749	WORD	n/a	wordpools/wordpool_categorized_EN.txt	TELEVISION	Electronics	8	19	[0, 0, 0]	n/a	catFR1	0	R1092J
2081.941	2.384	3059350	WORD	n/a	wordpools/wordpool_categorized_EN.txt	WALNUT	Trees	9	19	[0, 0, 0]	n/a	catFR1	0	R1092J
2084.325	2.6	3061734	WORD	n/a	wordpools/wordpool_categorized_EN.txt	CYPRESS	Trees	10	19	[0, 0, 0]	n/a	catFR1	0	R1092J
2086.925	2.55	3064334	WORD	n/a	wordpools/wordpool_categorized_EN.txt	SANDER	Tools	11	19	[0, 0, 0]	n/a	catFR1	0	R1092J
2089.475	1.617	3066884	WORD	n/a	wordpools/wordpool_categorized_EN.txt	RATCHET	Tools	12	19	[0, 0, 0]	n/a	catFR1	0	R1092J
2091.092	0.001	3068501	DISTRACT_START	n/a	n/a	n/a	n/a	-999	19	[0, 0, 0]	n/a	catFR1	0	R1092J
2091.093	0.016	3068502	START	n/a	n/a	n/a	n/a	-999	19	[-999, -999, -999]	n/a	catFR1	0	R1092J
2091.109	4.567	3068518	PROB	4.535	n/a	n/a	n/a	-999	19	[2, 9, 4]	16.0	catFR1	0	R1092J
2095.676	4.168	3073085	PROB	4.136	n/a	n/a	n/a	-999	19	[4, 3, 8]	15.0	catFR1	0	R1092J
2099.844	2.7	3077253	PROB	2.672	n/a	n/a	n/a	-999	19	[8, 6, 3]	17.0	catFR1	0	R1092J
2102.544	4.017	3079953	PROB	3.996	n/a	n/a	n/a	-999	19	[1, 4, 4]	10.0	catFR1	0	R1092J
2106.561	3.434	3083970	PROB	3.402	n/a	n/a	n/a	-999	19	[4, 8, 2]	14.0	catFR1	0	R1092J
2109.995	2.561	3087404	PROB	2.561	n/a	n/a	n/a	-999	19	[2, 3, 6]	11.0	catFR1	0	R1092J
2112.556	0.006	3089965	STOP	n/a	n/a	n/a	n/a	-999	19	[-999, -999, -999]	n/a	catFR1	0	R1092J
2112.562	1.05	3089971	DISTRACT_END	n/a	n/a	n/a	n/a	-999	19	[0, 0, 0]	n/a	catFR1	0	R1092J
2113.612	1.57	3091021	REC_START	n/a	n/a	n/a	n/a	-999	19	[0, 0, 0]	n/a	catFR1	0	R1092J
2115.182	1.504	3092591	REC_WORD	1.57	n/a	COMPUTER	Electronics	2	19	[0, 0, 0]	n/a	catFR1	0	R1092J
2116.686	2.012	3094095	REC_WORD	3.074	n/a	SCREEN	n/a	-999	19	[0, 0, 0]	n/a	catFR1	0	R1092J
2118.698	2.09	3096107	REC_WORD	5.086	n/a	SCANNER	Electronics	7	19	[0, 0, 0]	n/a	catFR1	0	R1092J
2120.788	7.229	3098197	REC_WORD	7.176	n/a	TELEVISION	Electronics	8	19	[0, 0, 0]	n/a	catFR1	0	R1092J
2128.017	2.443	3105426	REC_WORD	14.405	n/a	CYPRESS	Trees	10	19	[0, 0, 0]	n/a	catFR1	0	R1092J
2130.46	5.429	3107869	REC_WORD	16.848	n/a	WALNUT	Trees	9	19	[0, 0, 0]	n/a	catFR1	0	R1092J
2135.889	4.218	3113298	REC_WORD	22.277	n/a	BIRD	n/a	-999	19	[0, 0, 0]	n/a	catFR1	0	R1092J
2140.107	3.521	3117516	REC_WORD	26.495	n/a	SCREEN	n/a	-999	19	[0, 0, 0]	n/a	catFR1	0	R1092J
2143.628	3.856	3121037	REC_END	n/a	n/a	n/a	n/a	-999	19	[0, 0, 0]	n/a	catFR1	0	R1092J
2147.484	0.0	3124893	TRIAL	n/a	n/a	n/a	n/a	-999	20	[0, 0, 0]	n/a	catFR1	0	R1092J
2147.484	10.428	3124893	COUNTDOWN_START	n/a	n/a	n/a	n/a	-999	20	[0, 0, 0]	n/a	catFR1	0	R1092J
2157.912	0.006	3135321	COUNTDOWN_END	n/a	n/a	n/a	n/a	-999	20	[0, 0, 0]	n/a	catFR1	0	R1092J
2157.918	3.467	3135327	ORIENT	n/a	n/a	n/a	n/a	-999	20	[0, 0, 0]	n/a	catFR1	0	R1092J
2161.385	2.4	3138794	WORD	n/a	wordpools/wordpool_categorized_EN.txt	WALL	Building	1	20	[0, 0, 0]	n/a	catFR1	0	R1092J
2163.785	2.567	3141194	WORD	n/a	wordpools/wordpool_categorized_EN.txt	FLOOR	Building	2	20	[0, 0, 0]	n/a	catFR1	0	R1092J
2166.352	2.617	3143761	WORD	n/a	wordpools/wordpool_categorized_EN.txt	PETUNIA	Flowers	3	20	[0, 0, 0]	n/a	catFR1	0	R1092J
2168.969	2.451	3146378	WORD	n/a	wordpools/wordpool_categorized_EN.txt	DAFFODIL	Flowers	4	20	[0, 0, 0]	n/a	catFR1	0	R1092J
2171.42	2.45	3148829	WORD	n/a	wordpools/wordpool_categorized_EN.txt	WINE	Beverages	5	20	[0, 0, 0]	n/a	catFR1	0	R1092J
2173.87	2.567	3151279	WORD	n/a	wordpools/wordpool_categorized_EN.txt	LEMONADE	Beverages	6	20	[0, 0, 0]	n/a	catFR1	0	R1092J
2176.437	2.534	3153846	WORD	n/a	wordpools/wordpool_categorized_EN.txt	DAISY	Flowers	7	20	[0, 0, 0]	n/a	catFR1	0	R1092J
2178.971	2.417	3156380	WORD	n/a	wordpools/wordpool_categorized_EN.txt	LILY	Flowers	8	20	[0, 0, 0]	n/a	catFR1	0	R1092J
2181.388	2.45	3158797	WORD	n/a	wordpools/wordpool_categorized_EN.txt	ROOF	Building	9	20	[0, 0, 0]	n/a	catFR1	0	R1092J
2183.838	2.467	3161247	WORD	n/a	wordpools/wordpool_categorized_EN.txt	ATTIC	Building	10	20	[0, 0, 0]	n/a	catFR1	0	R1092J
2186.305	2.533	3163714	WORD	n/a	wordpools/wordpool_categorized_EN.txt	MILK	Beverages	11	20	[0, 0, 0]	n/a	catFR1	0	R1092J
2188.838	1.601	3166247	WORD	n/a	wordpools/wordpool_categorized_EN.txt	SODA	Beverages	12	20	[0, 0, 0]	n/a	catFR1	0	R1092J
2190.439	0.001	3167848	DISTRACT_START	n/a	n/a	n/a	n/a	-999	20	[0, 0, 0]	n/a	catFR1	0	R1092J
2190.44	0.015	3167849	START	n/a	n/a	n/a	n/a	-999	20	[-999, -999, -999]	n/a	catFR1	0	R1092J
2190.455	3.067	3167864	PROB	3.041	n/a	n/a	n/a	-999	20	[6, 2, 1]	9.0	catFR1	0	R1092J
2193.522	2.834	3170931	PROB	2.798	n/a	n/a	n/a	-999	20	[5, 8, 7]	20.0	catFR1	0	R1092J
2196.356	2.801	3173765	PROB	2.764	n/a	n/a	n/a	-999	20	[5, 7, 3]	15.0	catFR1	0	R1092J
2199.157	2.717	3176566	PROB	2.691	n/a	n/a	n/a	-999	20	[1, 6, 1]	8.0	catFR1	0	R1092J
2201.874	2.066	3179283	PROB	2.038	n/a	n/a	n/a	-999	20	[5, 1, 1]	7.0	catFR1	0	R1092J
2203.94	2.251	3181349	PROB	2.22	n/a	n/a	n/a	-999	20	[2, 2, 5]	9.0	catFR1	0	R1092J
2206.191	3.984	3183600	PROB	3.961	n/a	n/a	n/a	-999	20	[9, 7, 1]	17.0	catFR1	0	R1092J
2210.175	3.288	3187584	PROB	3.288	n/a	n/a	n/a	-999	20	[3, 9, 7]	19.0	catFR1	0	R1092J
2213.463	0.012	3190872	STOP	n/a	n/a	n/a	n/a	-999	20	[-999, -999, -999]	n/a	catFR1	0	R1092J
2213.475	1.101	3190884	DISTRACT_END	n/a	n/a	n/a	n/a	-999	20	[0, 0, 0]	n/a	catFR1	0	R1092J
2214.576	1.711	3191985	REC_START	n/a	n/a	n/a	n/a	-999	20	[0, 0, 0]	n/a	catFR1	0	R1092J
2216.287	0.804	3193696	REC_WORD	1.711	n/a	WALL	Building	1	20	[0, 0, 0]	n/a	catFR1	0	R1092J
2217.091	1.917	3194500	REC_WORD	2.515	n/a	FLOOR	Building	2	20	[0, 0, 0]	n/a	catFR1	0	R1092J
2219.008	16.223	3196417	REC_WORD	4.432	n/a	CEILING	n/a	-999	20	[0, 0, 0]	n/a	catFR1	0	R1092J
2235.231	3.252	3212640	REC_WORD	20.655	n/a	SAW	n/a	-999	20	[0, 0, 0]	n/a	catFR1	0	R1092J
2238.483	1.525	3215892	REC_WORD	23.907	n/a	DAFFODIL	Flowers	4	20	[0, 0, 0]	n/a	catFR1	0	R1092J
2240.008	4.58	3217417	REC_WORD	25.432	n/a	PETUNIA	Flowers	3	20	[0, 0, 0]	n/a	catFR1	0	R1092J
2244.588	10.209	3221997	REC_END	n/a	n/a	n/a	n/a	-999	20	[0, 0, 0]	n/a	catFR1	0	R1092J
2254.797	0.0	3232206	TRIAL	n/a	n/a	n/a	n/a	-999	21	[0, 0, 0]	n/a	catFR1	0	R1092J
2254.797	10.428	3232206	COUNTDOWN_START	n/a	n/a	n/a	n/a	-999	21	[0, 0, 0]	n/a	catFR1	0	R1092J
2265.225	0.0	3242634	COUNTDOWN_END	n/a	n/a	n/a	n/a	-999	21	[0, 0, 0]	n/a	catFR1	0	R1092J
