onset	duration	sample	trial_type	response_time	stim_file	item_name	category	serialpos	list	test	answer	experiment	session	subject
0.0	161.833	80445	INSTRUCT_START	n/a	n/a	n/a	n/a	-999	-999	[0, 0, 0]	n/a	catFR1	0	R1400N
161.833	37.999	242272	INSTRUCT_END	n/a	n/a	n/a	n/a	-999	-999	[0, 0, 0]	n/a	catFR1	0	R1400N
199.832	10.351	280267	COUNTDOWN_START	n/a	n/a	n/a	n/a	-999	-999	[0, 0, 0]	n/a	catFR1	0	R1400N
210.183	0.001	290618	COUNTDOWN_END	n/a	n/a	n/a	n/a	-999	-999	[0, 0, 0]	n/a	catFR1	0	R1400N
210.184	1.865	290618	ENCODING_START	n/a	n/a	n/a	n/a	-999	-1	[0, 0, 0]	n/a	catFR1	0	R1400N
212.049	1.6	292489	WORD	n/a	n/a	STEREO	Electronics	1	-1	[0, 0, 0]	n/a	catFR1	0	R1400N
213.649	0.834	294080	WORD_OFF	n/a	n/a	STEREO	Electronics	1	-1	[0, 0, 0]	n/a	catFR1	0	R1400N
214.483	1.615	294923	WORD	n/a	n/a	COMPUTER	Electronics	2	-1	[0, 0, 0]	n/a	catFR1	0	R1400N
216.098	0.951	296532	WORD_OFF	n/a	n/a	COMPUTER	Electronics	2	-1	[0, 0, 0]	n/a	catFR1	0	R1400N
217.049	1.617	297487	WORD	n/a	n/a	FINCH	Birds	3	-1	[0, 0, 0]	n/a	catFR1	0	R1400N
218.666	0.933	299097	WORD_OFF	n/a	n/a	FINCH	Birds	3	-1	[0, 0, 0]	n/a	catFR1	0	R1400N
219.599	1.617	300032	WORD	n/a	n/a	CROW	Birds	4	-1	[0, 0, 0]	n/a	catFR1	0	R1400N
221.216	0.783	301661	WORD_OFF	n/a	n/a	CROW	Birds	4	-1	[0, 0, 0]	n/a	catFR1	0	R1400N
221.999	1.6	302428	WORD	n/a	n/a	BEER	Beverages	5	-1	[0, 0, 0]	n/a	catFR1	0	R1400N
223.599	0.984	304038	WORD_OFF	n/a	n/a	BEER	Beverages	5	-1	[0, 0, 0]	n/a	catFR1	0	R1400N
224.583	1.6	305011	WORD	n/a	n/a	TEA	Beverages	6	-1	[0, 0, 0]	n/a	catFR1	0	R1400N
226.183	0.817	306621	WORD_OFF	n/a	n/a	TEA	Beverages	6	-1	[0, 0, 0]	n/a	catFR1	0	R1400N
227.0	1.615	307444	WORD	n/a	n/a	TABLET	Electronics	7	-1	[0, 0, 0]	n/a	catFR1	0	R1400N
228.615	0.784	309054	WORD_OFF	n/a	n/a	TABLET	Electronics	7	-1	[0, 0, 0]	n/a	catFR1	0	R1400N
229.399	1.6	309840	WORD	n/a	n/a	SPEAKER	Electronics	8	-1	[0, 0, 0]	n/a	catFR1	0	R1400N
230.999	1.0	311431	WORD_OFF	n/a	n/a	SPEAKER	Electronics	8	-1	[0, 0, 0]	n/a	catFR1	0	R1400N
231.999	1.617	312442	WORD	n/a	n/a	COLA	Beverages	9	-1	[0, 0, 0]	n/a	catFR1	0	R1400N
233.616	0.8	314051	WORD_OFF	n/a	n/a	COLA	Beverages	9	-1	[0, 0, 0]	n/a	catFR1	0	R1400N
234.416	1.616	314856	WORD	n/a	n/a	MILK	Beverages	10	-1	[0, 0, 0]	n/a	catFR1	0	R1400N
236.032	0.967	316466	WORD_OFF	n/a	n/a	MILK	Beverages	10	-1	[0, 0, 0]	n/a	catFR1	0	R1400N
236.999	1.6	317439	WORD	n/a	n/a	DOVE	Birds	11	-1	[0, 0, 0]	n/a	catFR1	0	R1400N
238.599	1.0	319030	WORD_OFF	n/a	n/a	DOVE	Birds	11	-1	[0, 0, 0]	n/a	catFR1	0	R1400N
239.599	1.601	320041	WORD	n/a	n/a	CARDINAL	Birds	12	-1	[0, 0, 0]	n/a	catFR1	0	R1400N
241.2	0.0	321632	WORD_OFF	n/a	n/a	CARDINAL	Birds	12	-1	[0, 0, 0]	n/a	catFR1	0	R1400N
241.2	0.001	321634	PROB	0.001	n/a	n/a	n/a	-999	-1	[3, 7, 1]	11	catFR1	0	R1400N
241.201	0.001	321632	ENCODING_END	n/a	n/a	n/a	n/a	-999	-1	[0, 0, 0]	n/a	catFR1	0	R1400N
241.202	0.0	321632	DISTRACT_START	n/a	n/a	n/a	n/a	-999	-1	[0, 0, 0]	n/a	catFR1	0	R1400N
241.202	4.981	321636	START	n/a	n/a	n/a	n/a	-999	-1	[-999, -999, -999]	n/a	catFR1	0	R1400N
246.183	2.25	326617	PROB	2.25	n/a	n/a	n/a	-999	-1	[1, 1, 4]	6	catFR1	0	R1400N
248.433	3.366	328867	PROB	3.366	n/a	n/a	n/a	-999	-1	[2, 3, 4]	9	catFR1	0	R1400N
251.799	3.0	332233	PROB	3.0	n/a	n/a	n/a	-999	-1	[2, 6, 5]	13	catFR1	0	R1400N
254.799	2.619	335233	PROB	2.619	n/a	n/a	n/a	-999	-1	[5, 5, 6]	16	catFR1	0	R1400N
257.418	2.298	337852	PROB	2.298	n/a	n/a	n/a	-999	-1	[4, 5, 5]	14	catFR1	0	R1400N
259.716	2.15	340150	PROB	2.15	n/a	n/a	n/a	-999	-1	[1, 4, 8]	13	catFR1	0	R1400N
261.866	0.0	342295	DISTRACT_END	n/a	n/a	n/a	n/a	-999	-1	[0, 0, 0]	n/a	catFR1	0	R1400N
261.866	1.05	342299	STOP	n/a	n/a	n/a	n/a	-999	-1	[-999, -999, -999]	n/a	catFR1	0	R1400N
262.916	1.559	343343	REC_START	n/a	n/a	n/a	n/a	-999	-1	[0, 0, 0]	n/a	catFR1	0	R1400N
264.475	1.87	344908	REC_WORD	1.87	n/a	CROW	Birds	4	-1	[0, 0, 0]	n/a	catFR1	0	R1400N
266.345	5.131	346778	REC_WORD	5.131	n/a	TABLET	Electronics	7	-1	[0, 0, 0]	n/a	catFR1	0	R1400N
271.476	2.107	351909	REC_WORD	2.107	n/a	PEANUTS	n/a	-999	-1	[0, 0, 0]	n/a	catFR1	0	R1400N
273.583	20.545	354016	REC_WORD	20.545	n/a	FINCH	Birds	3	-1	[0, 0, 0]	n/a	catFR1	0	R1400N
294.128	54.055	374563	REC_END	n/a	n/a	n/a	n/a	-999	-1	[0, 0, 0]	n/a	catFR1	0	R1400N
348.183	10.349	428618	COUNTDOWN_START	n/a	n/a	n/a	n/a	-999	1	[0, 0, 0]	n/a	catFR1	0	R1400N
358.532	0.001	438968	COUNTDOWN_END	n/a	n/a	n/a	n/a	-999	1	[0, 0, 0]	n/a	catFR1	0	R1400N
358.533	1.949	438968	ENCODING_START	n/a	n/a	n/a	n/a	-999	1	[0, 0, 0]	n/a	catFR1	0	R1400N
360.482	1.601	440915	WORD	n/a	wordpools/wordpool_categorized_EN.txt	MARBLES	Toys	1	1	[0, 0, 0]	n/a	catFR1	0	R1400N
362.083	0.766	442506	WORD_OFF	n/a	n/a	MARBLES	Toys	1	1	[0, 0, 0]	n/a	catFR1	0	R1400N
362.849	1.6	443273	WORD	n/a	wordpools/wordpool_categorized_EN.txt	BLOCKS	Toys	2	1	[0, 0, 0]	n/a	catFR1	0	R1400N
364.449	0.933	444883	WORD_OFF	n/a	n/a	BLOCKS	Toys	2	1	[0, 0, 0]	n/a	catFR1	0	R1400N
365.382	1.601	445819	WORD	n/a	wordpools/wordpool_categorized_EN.txt	PIGEON	Birds	3	1	[0, 0, 0]	n/a	catFR1	0	R1400N
366.983	0.883	447410	WORD_OFF	n/a	n/a	PIGEON	Birds	3	1	[0, 0, 0]	n/a	catFR1	0	R1400N
367.866	1.616	448289	WORD	n/a	wordpools/wordpool_categorized_EN.txt	GOOSE	Birds	4	1	[0, 0, 0]	n/a	catFR1	0	R1400N
369.482	0.917	449918	WORD_OFF	n/a	n/a	GOOSE	Birds	4	1	[0, 0, 0]	n/a	catFR1	0	R1400N
370.399	1.601	450835	WORD	n/a	wordpools/wordpool_categorized_EN.txt	WOODS	Landscapes	5	1	[0, 0, 0]	n/a	catFR1	0	R1400N
372.0	0.815	452426	WORD_OFF	n/a	n/a	WOODS	Landscapes	5	1	[0, 0, 0]	n/a	catFR1	0	R1400N
372.815	1.6	453249	WORD	n/a	wordpools/wordpool_categorized_EN.txt	RIVER	Landscapes	6	1	[0, 0, 0]	n/a	catFR1	0	R1400N
374.415	0.801	454840	WORD_OFF	n/a	n/a	RIVER	Landscapes	6	1	[0, 0, 0]	n/a	catFR1	0	R1400N
375.216	1.617	455645	WORD	n/a	wordpools/wordpool_categorized_EN.txt	PUZZLE	Toys	7	1	[0, 0, 0]	n/a	catFR1	0	R1400N
376.833	0.8	457255	WORD_OFF	n/a	n/a	PUZZLE	Toys	7	1	[0, 0, 0]	n/a	catFR1	0	R1400N
377.633	1.616	458060	WORD	n/a	wordpools/wordpool_categorized_EN.txt	BALL	Toys	8	1	[0, 0, 0]	n/a	catFR1	0	R1400N
379.249	0.816	459688	WORD_OFF	n/a	n/a	BALL	Toys	8	1	[0, 0, 0]	n/a	catFR1	0	R1400N
380.065	1.601	460493	WORD	n/a	wordpools/wordpool_categorized_EN.txt	SPARROW	Birds	9	1	[0, 0, 0]	n/a	catFR1	0	R1400N
381.666	0.917	462103	WORD_OFF	n/a	n/a	SPARROW	Birds	9	1	[0, 0, 0]	n/a	catFR1	0	R1400N
382.583	1.6	463020	WORD	n/a	wordpools/wordpool_categorized_EN.txt	ROBIN	Birds	10	1	[0, 0, 0]	n/a	catFR1	0	R1400N
384.183	0.8	464611	WORD_OFF	n/a	n/a	ROBIN	Birds	10	1	[0, 0, 0]	n/a	catFR1	0	R1400N
384.983	1.616	465415	WORD	n/a	wordpools/wordpool_categorized_EN.txt	MOUNTAIN	Landscapes	11	1	[0, 0, 0]	n/a	catFR1	0	R1400N
386.599	0.967	467025	WORD_OFF	n/a	n/a	MOUNTAIN	Landscapes	11	1	[0, 0, 0]	n/a	catFR1	0	R1400N
387.566	1.6	467998	WORD	n/a	wordpools/wordpool_categorized_EN.txt	ISLAND	Landscapes	12	1	[0, 0, 0]	n/a	catFR1	0	R1400N
389.166	0.0	469589	WORD_OFF	n/a	n/a	ISLAND	Landscapes	12	1	[0, 0, 0]	n/a	catFR1	0	R1400N
389.166	0.002	469596	PROB	0.002	n/a	n/a	n/a	-999	1	[8, 2, 1]	11	catFR1	0	R1400N
389.168	0.0	469589	ENCODING_END	n/a	n/a	n/a	n/a	-999	1	[0, 0, 0]	n/a	catFR1	0	R1400N
389.168	0.0	469608	DISTRACT_START	n/a	n/a	n/a	n/a	-999	1	[0, 0, 0]	n/a	catFR1	0	R1400N
389.168	3.497	469598	START	n/a	n/a	n/a	n/a	-999	1	[-999, -999, -999]	n/a	catFR1	0	R1400N
392.665	3.318	473094	PROB	3.318	n/a	n/a	n/a	-999	1	[3, 1, 6]	10	catFR1	0	R1400N
395.983	4.7	476412	PROB	4.7	n/a	n/a	n/a	-999	1	[8, 7, 4]	19	catFR1	0	R1400N
400.683	3.401	481112	PROB	3.401	n/a	n/a	n/a	-999	1	[7, 6, 5]	19	catFR1	0	R1400N
404.084	3.765	484513	PROB	3.765	n/a	n/a	n/a	-999	1	[1, 2, 7]	10	catFR1	0	R1400N
407.849	7.333	488278	PROB	7.333	n/a	n/a	n/a	-999	1	[8, 3, 5]	16	catFR1	0	R1400N
415.182	0.0	495606	DISTRACT_END	n/a	n/a	n/a	n/a	-999	1	[0, 0, 0]	n/a	catFR1	0	R1400N
415.182	1.033	495611	STOP	n/a	n/a	n/a	n/a	-999	1	[-999, -999, -999]	n/a	catFR1	0	R1400N
416.215	3.821	496635	REC_START	n/a	n/a	n/a	n/a	-999	1	[0, 0, 0]	n/a	catFR1	0	R1400N
420.036	27.38	500465	REC_WORD	27.38	n/a	MARBLES	Toys	1	1	[0, 0, 0]	n/a	catFR1	0	R1400N
447.416	4.35	527836	REC_END	n/a	n/a	n/a	n/a	-999	1	[0, 0, 0]	n/a	catFR1	0	R1400N
451.766	10.35	532198	COUNTDOWN_START	n/a	n/a	n/a	n/a	-999	1	[0, 0, 0]	n/a	catFR1	0	R1400N
462.116	0.0	542548	COUNTDOWN_END	n/a	n/a	n/a	n/a	-999	1	[0, 0, 0]	n/a	catFR1	0	R1400N
462.116	1.983	542548	ENCODING_START	n/a	n/a	n/a	n/a	-999	2	[0, 0, 0]	n/a	catFR1	0	R1400N
464.099	1.6	544532	WORD	n/a	wordpools/wordpool_categorized_EN.txt	MOTORCYCLE	Vehicles	1	2	[0, 0, 0]	n/a	catFR1	0	R1400N
465.699	0.933	546123	WORD_OFF	n/a	n/a	MOTORCYCLE	Vehicles	1	2	[0, 0, 0]	n/a	catFR1	0	R1400N
466.632	1.601	547059	WORD	n/a	wordpools/wordpool_categorized_EN.txt	PLANE	Vehicles	2	2	[0, 0, 0]	n/a	catFR1	0	R1400N
468.233	0.9	548668	WORD_OFF	n/a	n/a	PLANE	Vehicles	2	2	[0, 0, 0]	n/a	catFR1	0	R1400N
469.133	1.6	549567	WORD	n/a	wordpools/wordpool_categorized_EN.txt	HILLS	Landscapes	3	2	[0, 0, 0]	n/a	catFR1	0	R1400N
470.733	0.882	551158	WORD_OFF	n/a	n/a	HILLS	Landscapes	3	2	[0, 0, 0]	n/a	catFR1	0	R1400N
471.615	1.6	552037	WORD	n/a	wordpools/wordpool_categorized_EN.txt	STREAM	Landscapes	4	2	[0, 0, 0]	n/a	catFR1	0	R1400N
473.215	0.901	553647	WORD_OFF	n/a	n/a	STREAM	Landscapes	4	2	[0, 0, 0]	n/a	catFR1	0	R1400N
474.116	1.6	554546	WORD	n/a	wordpools/wordpool_categorized_EN.txt	GIRAFFE	Zoo	5	2	[0, 0, 0]	n/a	catFR1	0	R1400N
475.716	0.833	556136	WORD_OFF	n/a	n/a	GIRAFFE	Zoo	5	2	[0, 0, 0]	n/a	catFR1	0	R1400N
476.549	1.617	556979	WORD	n/a	wordpools/wordpool_categorized_EN.txt	PANDA	Zoo	6	2	[0, 0, 0]	n/a	catFR1	0	R1400N
478.166	0.934	558588	WORD_OFF	n/a	n/a	PANDA	Zoo	6	2	[0, 0, 0]	n/a	catFR1	0	R1400N
479.1	1.599	559524	WORD	n/a	wordpools/wordpool_categorized_EN.txt	BOAT	Vehicles	7	2	[0, 0, 0]	n/a	catFR1	0	R1400N
480.699	0.884	561134	WORD_OFF	n/a	n/a	BOAT	Vehicles	7	2	[0, 0, 0]	n/a	catFR1	0	R1400N
481.583	1.6	562014	WORD	n/a	wordpools/wordpool_categorized_EN.txt	BUS	Vehicles	8	2	[0, 0, 0]	n/a	catFR1	0	R1400N
483.183	0.95	563605	WORD_OFF	n/a	n/a	BUS	Vehicles	8	2	[0, 0, 0]	n/a	catFR1	0	R1400N
484.133	1.616	564559	WORD	n/a	wordpools/wordpool_categorized_EN.txt	CREEK	Landscapes	9	2	[0, 0, 0]	n/a	catFR1	0	R1400N
485.749	0.767	566169	WORD_OFF	n/a	n/a	CREEK	Landscapes	9	2	[0, 0, 0]	n/a	catFR1	0	R1400N
486.516	1.616	566936	WORD	n/a	wordpools/wordpool_categorized_EN.txt	BEACH	Landscapes	10	2	[0, 0, 0]	n/a	catFR1	0	R1400N
488.132	0.834	568565	WORD_OFF	n/a	n/a	BEACH	Landscapes	10	2	[0, 0, 0]	n/a	catFR1	0	R1400N
488.966	1.617	569388	WORD	n/a	wordpools/wordpool_categorized_EN.txt	GORILLA	Zoo	11	2	[0, 0, 0]	n/a	catFR1	0	R1400N
490.583	0.816	571016	WORD_OFF	n/a	n/a	GORILLA	Zoo	11	2	[0, 0, 0]	n/a	catFR1	0	R1400N
491.399	1.617	571821	WORD	n/a	wordpools/wordpool_categorized_EN.txt	MONKEY	Zoo	12	2	[0, 0, 0]	n/a	catFR1	0	R1400N
493.016	0.001	573450	WORD_OFF	n/a	n/a	MONKEY	Zoo	12	2	[0, 0, 0]	n/a	catFR1	0	R1400N
493.017	0.0	573450	DISTRACT_START	n/a	n/a	n/a	n/a	-999	2	[0, 0, 0]	n/a	catFR1	0	R1400N
493.017	0.0	573450	ENCODING_END	n/a	n/a	n/a	n/a	-999	2	[0, 0, 0]	n/a	catFR1	0	R1400N
493.017	0.0	573443	START	n/a	n/a	n/a	n/a	-999	2	[-999, -999, -999]	n/a	catFR1	0	R1400N
493.017	3.133	573443	PROB	3.133	n/a	n/a	n/a	-999	2	[8, 5, 5]	18	catFR1	0	R1400N
496.15	2.75	576576	PROB	2.75	n/a	n/a	n/a	-999	2	[5, 1, 6]	12	catFR1	0	R1400N
498.9	3.583	579326	PROB	3.583	n/a	n/a	n/a	-999	2	[2, 8, 7]	17	catFR1	0	R1400N
502.483	2.55	582909	PROB	2.55	n/a	n/a	n/a	-999	2	[3, 1, 1]	5	catFR1	0	R1400N
505.033	2.4	585459	PROB	2.4	n/a	n/a	n/a	-999	2	[3, 2, 7]	12	catFR1	0	R1400N
507.433	2.883	587859	PROB	2.883	n/a	n/a	n/a	-999	2	[7, 7, 5]	19	catFR1	0	R1400N
510.316	2.584	590742	PROB	2.584	n/a	n/a	n/a	-999	2	[8, 1, 8]	17	catFR1	0	R1400N
512.9	3.332	593326	PROB	3.332	n/a	n/a	n/a	-999	2	[7, 5, 5]	17	catFR1	0	R1400N
516.232	0.0	596659	DISTRACT_END	n/a	n/a	n/a	n/a	-999	2	[0, 0, 0]	n/a	catFR1	0	R1400N
516.232	1.15	596658	STOP	n/a	n/a	n/a	n/a	-999	2	[-999, -999, -999]	n/a	catFR1	0	R1400N
517.382	0.923	597800	REC_START	n/a	n/a	n/a	n/a	-999	2	[0, 0, 0]	n/a	catFR1	0	R1400N
518.305	5.007	598731	REC_WORD	5.007	n/a	MONKEY	Zoo	12	2	[0, 0, 0]	n/a	catFR1	0	R1400N
523.312	25.27	603737	REC_WORD	25.27	n/a	PANDA	Zoo	6	2	[0, 0, 0]	n/a	catFR1	0	R1400N
548.582	11.117	629002	REC_END	n/a	n/a	n/a	n/a	-999	2	[0, 0, 0]	n/a	catFR1	0	R1400N
559.699	10.351	640120	COUNTDOWN_START	n/a	n/a	n/a	n/a	-999	2	[0, 0, 0]	n/a	catFR1	0	R1400N
570.05	0.0	650470	COUNTDOWN_END	n/a	n/a	n/a	n/a	-999	2	[0, 0, 0]	n/a	catFR1	0	R1400N
570.05	2.183	650470	ENCODING_START	n/a	n/a	n/a	n/a	-999	3	[0, 0, 0]	n/a	catFR1	0	R1400N
572.233	1.6	652660	WORD	n/a	wordpools/wordpool_categorized_EN.txt	TIGER	Zoo	1	3	[0, 0, 0]	n/a	catFR1	0	R1400N
573.833	1.0	654251	WORD_OFF	n/a	n/a	TIGER	Zoo	1	3	[0, 0, 0]	n/a	catFR1	0	R1400N
574.833	1.616	655262	WORD	n/a	wordpools/wordpool_categorized_EN.txt	LION	Zoo	2	3	[0, 0, 0]	n/a	catFR1	0	R1400N
576.449	0.8	656871	WORD_OFF	n/a	n/a	LION	Zoo	2	3	[0, 0, 0]	n/a	catFR1	0	R1400N
577.249	1.6	657676	WORD	n/a	wordpools/wordpool_categorized_EN.txt	SHOES	Clothing	3	3	[0, 0, 0]	n/a	catFR1	0	R1400N
578.849	0.984	659267	WORD_OFF	n/a	n/a	SHOES	Clothing	3	3	[0, 0, 0]	n/a	catFR1	0	R1400N
579.833	1.6	660259	WORD	n/a	wordpools/wordpool_categorized_EN.txt	PANTS	Clothing	4	3	[0, 0, 0]	n/a	catFR1	0	R1400N
581.433	0.816	661850	WORD_OFF	n/a	n/a	PANTS	Clothing	4	3	[0, 0, 0]	n/a	catFR1	0	R1400N
582.249	1.617	662673	WORD	n/a	wordpools/wordpool_categorized_EN.txt	TUBA	Instruments	5	3	[0, 0, 0]	n/a	catFR1	0	R1400N
583.866	0.983	664283	WORD_OFF	n/a	n/a	TUBA	Instruments	5	3	[0, 0, 0]	n/a	catFR1	0	R1400N
584.849	1.616	665275	WORD	n/a	wordpools/wordpool_categorized_EN.txt	PIANO	Instruments	6	3	[0, 0, 0]	n/a	catFR1	0	R1400N
586.465	0.951	666885	WORD_OFF	n/a	n/a	PIANO	Instruments	6	3	[0, 0, 0]	n/a	catFR1	0	R1400N
587.416	1.617	667839	WORD	n/a	wordpools/wordpool_categorized_EN.txt	ZEBRA	Zoo	7	3	[0, 0, 0]	n/a	catFR1	0	R1400N
589.033	0.932	669449	WORD_OFF	n/a	n/a	ZEBRA	Zoo	7	3	[0, 0, 0]	n/a	catFR1	0	R1400N
589.965	1.601	670385	WORD	n/a	wordpools/wordpool_categorized_EN.txt	CHIMPANZEE	Zoo	8	3	[0, 0, 0]	n/a	catFR1	0	R1400N
591.566	0.833	671994	WORD_OFF	n/a	n/a	CHIMPANZEE	Zoo	8	3	[0, 0, 0]	n/a	catFR1	0	R1400N
592.399	1.6	672818	WORD	n/a	wordpools/wordpool_categorized_EN.txt	ORGAN	Instruments	9	3	[0, 0, 0]	n/a	catFR1	0	R1400N
593.999	0.784	674428	WORD_OFF	n/a	n/a	ORGAN	Instruments	9	3	[0, 0, 0]	n/a	catFR1	0	R1400N
594.783	1.616	675214	WORD	n/a	wordpools/wordpool_categorized_EN.txt	DRUM	Instruments	10	3	[0, 0, 0]	n/a	catFR1	0	R1400N
596.399	0.784	676823	WORD_OFF	n/a	n/a	DRUM	Instruments	10	3	[0, 0, 0]	n/a	catFR1	0	R1400N
597.183	1.617	677610	WORD	n/a	wordpools/wordpool_categorized_EN.txt	BLOUSE	Clothing	11	3	[0, 0, 0]	n/a	catFR1	0	R1400N
598.8	1.0	679219	WORD_OFF	n/a	n/a	BLOUSE	Clothing	11	3	[0, 0, 0]	n/a	catFR1	0	R1400N
599.8	1.616	680230	WORD	n/a	wordpools/wordpool_categorized_EN.txt	COAT	Clothing	12	3	[0, 0, 0]	n/a	catFR1	0	R1400N
601.416	0.0	681840	WORD_OFF	n/a	n/a	COAT	Clothing	12	3	[0, 0, 0]	n/a	catFR1	0	R1400N
601.416	0.002	681839	PROB	0.002	n/a	n/a	n/a	-999	3	[6, 3, 3]	12	catFR1	0	R1400N
601.418	0.0	681840	DISTRACT_START	n/a	n/a	n/a	n/a	-999	3	[0, 0, 0]	n/a	catFR1	0	R1400N
601.418	0.0	681840	ENCODING_END	n/a	n/a	n/a	n/a	-999	3	[0, 0, 0]	n/a	catFR1	0	R1400N
601.418	3.797	681841	START	n/a	n/a	n/a	n/a	-999	3	[-999, -999, -999]	n/a	catFR1	0	R1400N
605.215	2.285	685638	PROB	2.285	n/a	n/a	n/a	-999	3	[1, 6, 5]	12	catFR1	0	R1400N
607.5	3.067	687923	PROB	3.067	n/a	n/a	n/a	-999	3	[8, 1, 7]	16	catFR1	0	R1400N
610.567	2.383	690990	PROB	2.383	n/a	n/a	n/a	-999	3	[5, 2, 6]	13	catFR1	0	R1400N
612.95	2.882	693373	PROB	2.882	n/a	n/a	n/a	-999	3	[6, 2, 5]	3	catFR1	0	R1400N
615.832	5.684	696255	PROB	5.684	n/a	n/a	n/a	-999	3	[8, 8, 5]	19	catFR1	0	R1400N
621.516	0.0	701942	DISTRACT_END	n/a	n/a	n/a	n/a	-999	3	[0, 0, 0]	n/a	catFR1	0	R1400N
621.516	1.016	701938	STOP	n/a	n/a	n/a	n/a	-999	3	[-999, -999, -999]	n/a	catFR1	0	R1400N
622.532	2.038	702952	REC_START	n/a	n/a	n/a	n/a	-999	3	[0, 0, 0]	n/a	catFR1	0	R1400N
624.57	2.67	704992	REC_WORD	2.67	n/a	COAT	Clothing	12	3	[0, 0, 0]	n/a	catFR1	0	R1400N
627.24	1.576	707662	REC_WORD	1.576	n/a	BLOUSE	Clothing	11	3	[0, 0, 0]	n/a	catFR1	0	R1400N
628.816	2.375	709238	REC_WORD	2.375	n/a	LION	Zoo	2	3	[0, 0, 0]	n/a	catFR1	0	R1400N
631.191	8.257	711613	REC_WORD	8.257	n/a	CHIMPANZEE	Zoo	8	3	[0, 0, 0]	n/a	catFR1	0	R1400N
639.448	14.285	719870	REC_WORD	14.285	n/a	TIGER	Zoo	1	3	[0, 0, 0]	n/a	catFR1	0	R1400N
653.733	12.333	734153	REC_END	n/a	n/a	n/a	n/a	-999	3	[0, 0, 0]	n/a	catFR1	0	R1400N
666.066	10.35	746488	COUNTDOWN_START	n/a	n/a	n/a	n/a	-999	3	[0, 0, 0]	n/a	catFR1	0	R1400N
676.416	0.0	756838	COUNTDOWN_END	n/a	n/a	n/a	n/a	-999	3	[0, 0, 0]	n/a	catFR1	0	R1400N
676.416	2.183	756838	ENCODING_START	n/a	n/a	n/a	n/a	-999	4	[0, 0, 0]	n/a	catFR1	0	R1400N
678.599	1.617	759028	WORD	n/a	wordpools/wordpool_categorized_EN.txt	PASTRY	Desserts	1	4	[0, 0, 0]	n/a	catFR1	0	R1400N
680.216	0.95	760638	WORD_OFF	n/a	n/a	PASTRY	Desserts	1	4	[0, 0, 0]	n/a	catFR1	0	R1400N
681.166	1.617	761593	WORD	n/a	wordpools/wordpool_categorized_EN.txt	BROWNIES	Desserts	2	4	[0, 0, 0]	n/a	catFR1	0	R1400N
682.783	0.95	763202	WORD_OFF	n/a	n/a	BROWNIES	Desserts	2	4	[0, 0, 0]	n/a	catFR1	0	R1400N
683.733	1.6	764157	WORD	n/a	wordpools/wordpool_categorized_EN.txt	ROSE	Flowers	3	4	[0, 0, 0]	n/a	catFR1	0	R1400N
685.333	0.766	765748	WORD_OFF	n/a	n/a	ROSE	Flowers	3	4	[0, 0, 0]	n/a	catFR1	0	R1400N
686.099	1.617	766515	WORD	n/a	wordpools/wordpool_categorized_EN.txt	LILY	Flowers	4	4	[0, 0, 0]	n/a	catFR1	0	R1400N
687.716	0.999	768144	WORD_OFF	n/a	n/a	LILY	Flowers	4	4	[0, 0, 0]	n/a	catFR1	0	R1400N
688.715	1.601	769136	WORD	n/a	wordpools/wordpool_categorized_EN.txt	LIGHTNING	Weather	5	4	[0, 0, 0]	n/a	catFR1	0	R1400N
690.316	0.9	770745	WORD_OFF	n/a	n/a	LIGHTNING	Weather	5	4	[0, 0, 0]	n/a	catFR1	0	R1400N
691.216	1.617	771644	WORD	n/a	wordpools/wordpool_categorized_EN.txt	DRIZZLE	Weather	6	4	[0, 0, 0]	n/a	catFR1	0	R1400N
692.833	0.9	773253	WORD_OFF	n/a	n/a	DRIZZLE	Weather	6	4	[0, 0, 0]	n/a	catFR1	0	R1400N
693.733	1.6	774152	WORD	n/a	wordpools/wordpool_categorized_EN.txt	MOUSSE	Desserts	7	4	[0, 0, 0]	n/a	catFR1	0	R1400N
695.333	0.933	775761	WORD_OFF	n/a	n/a	MOUSSE	Desserts	7	4	[0, 0, 0]	n/a	catFR1	0	R1400N
696.266	1.616	776678	WORD	n/a	wordpools/wordpool_categorized_EN.txt	FUDGE	Desserts	8	4	[0, 0, 0]	n/a	catFR1	0	R1400N
697.882	0.901	778307	WORD_OFF	n/a	n/a	FUDGE	Desserts	8	4	[0, 0, 0]	n/a	catFR1	0	R1400N
698.783	1.616	779205	WORD	n/a	wordpools/wordpool_categorized_EN.txt	DAFFODIL	Flowers	9	4	[0, 0, 0]	n/a	catFR1	0	R1400N
700.399	0.834	780815	WORD_OFF	n/a	n/a	DAFFODIL	Flowers	9	4	[0, 0, 0]	n/a	catFR1	0	R1400N
701.233	1.616	781657	WORD	n/a	wordpools/wordpool_categorized_EN.txt	DAISY	Flowers	10	4	[0, 0, 0]	n/a	catFR1	0	R1400N
702.849	0.9	783267	WORD_OFF	n/a	n/a	DAISY	Flowers	10	4	[0, 0, 0]	n/a	catFR1	0	R1400N
703.749	1.617	784165	WORD	n/a	wordpools/wordpool_categorized_EN.txt	CLOUD	Weather	11	4	[0, 0, 0]	n/a	catFR1	0	R1400N
705.366	0.849	785794	WORD_OFF	n/a	n/a	CLOUD	Weather	11	4	[0, 0, 0]	n/a	catFR1	0	R1400N
706.215	1.6	786636	WORD	n/a	wordpools/wordpool_categorized_EN.txt	TORNADO	Weather	12	4	[0, 0, 0]	n/a	catFR1	0	R1400N
707.815	0.001	788227	WORD_OFF	n/a	n/a	TORNADO	Weather	12	4	[0, 0, 0]	n/a	catFR1	0	R1400N
707.816	0.001	788236	PROB	0.001	n/a	n/a	n/a	-999	4	[3, 5, 1]	9	catFR1	0	R1400N
707.817	0.0	788245	DISTRACT_START	n/a	n/a	n/a	n/a	-999	4	[0, 0, 0]	n/a	catFR1	0	R1400N
707.817	0.0	788245	ENCODING_END	n/a	n/a	n/a	n/a	-999	4	[0, 0, 0]	n/a	catFR1	0	R1400N
707.817	3.316	788237	START	n/a	n/a	n/a	n/a	-999	4	[-999, -999, -999]	n/a	catFR1	0	R1400N
711.133	2.733	791553	PROB	2.733	n/a	n/a	n/a	-999	4	[1, 5, 2]	8	catFR1	0	R1400N
713.866	2.4	794286	PROB	2.4	n/a	n/a	n/a	-999	4	[1, 2, 2]	5	catFR1	0	R1400N
716.266	4.65	796686	PROB	4.65	n/a	n/a	n/a	-999	4	[7, 2, 8]	17	catFR1	0	R1400N
720.916	3.433	801335	PROB	3.433	n/a	n/a	n/a	-999	4	[8, 3, 2]	13	catFR1	0	R1400N
724.349	1.967	804768	PROB	1.967	n/a	n/a	n/a	-999	4	[1, 4, 8]	13	catFR1	0	R1400N
726.316	4.185	806735	PROB	4.185	n/a	n/a	n/a	-999	4	[5, 6, 5]	16	catFR1	0	R1400N
730.501	0.0	810912	DISTRACT_END	n/a	n/a	n/a	n/a	-999	4	[0, 0, 0]	n/a	catFR1	0	R1400N
730.501	1.031	810920	STOP	n/a	n/a	n/a	n/a	-999	4	[-999, -999, -999]	n/a	catFR1	0	R1400N
731.532	1.763	811960	REC_START	n/a	n/a	n/a	n/a	-999	4	[0, 0, 0]	n/a	catFR1	0	R1400N
733.295	2.325	813714	REC_WORD	2.325	n/a	PASTRY	Desserts	1	4	[0, 0, 0]	n/a	catFR1	0	R1400N
735.62	4.053	816039	REC_WORD	4.053	n/a	BROWNIES	Desserts	2	4	[0, 0, 0]	n/a	catFR1	0	R1400N
739.673	23.069	820092	REC_WORD	23.069	n/a	ROSE	Flowers	3	4	[0, 0, 0]	n/a	catFR1	0	R1400N
762.742	4.391	843161	REC_END	n/a	n/a	n/a	n/a	-999	4	[0, 0, 0]	n/a	catFR1	0	R1400N
767.133	10.35	847560	COUNTDOWN_START	n/a	n/a	n/a	n/a	-999	4	[0, 0, 0]	n/a	catFR1	0	R1400N
777.483	0.001	857910	COUNTDOWN_END	n/a	n/a	n/a	n/a	-999	4	[0, 0, 0]	n/a	catFR1	0	R1400N
777.484	2.165	857910	ENCODING_START	n/a	n/a	n/a	n/a	-999	5	[0, 0, 0]	n/a	catFR1	0	R1400N
779.649	1.6	860062	WORD	n/a	wordpools/wordpool_categorized_EN.txt	SPRUCE	Trees	1	5	[0, 0, 0]	n/a	catFR1	0	R1400N
781.249	0.967	861672	WORD_OFF	n/a	n/a	SPRUCE	Trees	1	5	[0, 0, 0]	n/a	catFR1	0	R1400N
782.216	1.617	862627	WORD	n/a	wordpools/wordpool_categorized_EN.txt	HICKORY	Trees	2	5	[0, 0, 0]	n/a	catFR1	0	R1400N
783.833	0.817	864255	WORD_OFF	n/a	n/a	HICKORY	Trees	2	5	[0, 0, 0]	n/a	catFR1	0	R1400N
784.65	1.616	865060	WORD	n/a	wordpools/wordpool_categorized_EN.txt	SILK	Fabric	3	5	[0, 0, 0]	n/a	catFR1	0	R1400N
786.266	0.933	866688	WORD_OFF	n/a	n/a	SILK	Fabric	3	5	[0, 0, 0]	n/a	catFR1	0	R1400N
787.199	1.616	867624	WORD	n/a	wordpools/wordpool_categorized_EN.txt	LINEN	Fabric	4	5	[0, 0, 0]	n/a	catFR1	0	R1400N
788.815	0.918	869234	WORD_OFF	n/a	n/a	LINEN	Fabric	4	5	[0, 0, 0]	n/a	catFR1	0	R1400N
789.733	1.615	870151	WORD	n/a	wordpools/wordpool_categorized_EN.txt	BASKETBALL	Toys	5	5	[0, 0, 0]	n/a	catFR1	0	R1400N
791.348	0.951	871761	WORD_OFF	n/a	n/a	BASKETBALL	Toys	5	5	[0, 0, 0]	n/a	catFR1	0	R1400N
792.299	1.6	872715	WORD	n/a	wordpools/wordpool_categorized_EN.txt	SLINKY	Toys	6	5	[0, 0, 0]	n/a	catFR1	0	R1400N
793.899	0.834	874325	WORD_OFF	n/a	n/a	SLINKY	Toys	6	5	[0, 0, 0]	n/a	catFR1	0	R1400N
794.733	1.616	875148	WORD	n/a	wordpools/wordpool_categorized_EN.txt	LEATHER	Fabric	7	5	[0, 0, 0]	n/a	catFR1	0	R1400N
796.349	0.816	876758	WORD_OFF	n/a	n/a	LEATHER	Fabric	7	5	[0, 0, 0]	n/a	catFR1	0	R1400N
797.165	1.601	877582	WORD	n/a	wordpools/wordpool_categorized_EN.txt	VELVET	Fabric	8	5	[0, 0, 0]	n/a	catFR1	0	R1400N
798.766	0.983	879191	WORD_OFF	n/a	n/a	VELVET	Fabric	8	5	[0, 0, 0]	n/a	catFR1	0	R1400N
799.749	1.617	880164	WORD	n/a	wordpools/wordpool_categorized_EN.txt	DOLL	Toys	9	5	[0, 0, 0]	n/a	catFR1	0	R1400N
801.366	0.766	881774	WORD_OFF	n/a	n/a	DOLL	Toys	9	5	[0, 0, 0]	n/a	catFR1	0	R1400N
802.132	1.601	882542	WORD	n/a	wordpools/wordpool_categorized_EN.txt	FOOTBALL	Toys	10	5	[0, 0, 0]	n/a	catFR1	0	R1400N
803.733	0.817	884151	WORD_OFF	n/a	n/a	FOOTBALL	Toys	10	5	[0, 0, 0]	n/a	catFR1	0	R1400N
804.55	1.616	884975	WORD	n/a	wordpools/wordpool_categorized_EN.txt	CYPRESS	Trees	11	5	[0, 0, 0]	n/a	catFR1	0	R1400N
806.166	0.867	886584	WORD_OFF	n/a	n/a	CYPRESS	Trees	11	5	[0, 0, 0]	n/a	catFR1	0	R1400N
807.033	1.616	887445	WORD	n/a	wordpools/wordpool_categorized_EN.txt	PINE	Trees	12	5	[0, 0, 0]	n/a	catFR1	0	R1400N
808.649	0.001	889074	WORD_OFF	n/a	n/a	PINE	Trees	12	5	[0, 0, 0]	n/a	catFR1	0	R1400N
808.65	0.001	889067	PROB	0.001	n/a	n/a	n/a	-999	5	[1, 6, 2]	9	catFR1	0	R1400N
808.651	0.0	889074	DISTRACT_START	n/a	n/a	n/a	n/a	-999	5	[0, 0, 0]	n/a	catFR1	0	R1400N
808.651	0.0	889074	ENCODING_END	n/a	n/a	n/a	n/a	-999	5	[0, 0, 0]	n/a	catFR1	0	R1400N
808.651	3.849	889068	START	n/a	n/a	n/a	n/a	-999	5	[-999, -999, -999]	n/a	catFR1	0	R1400N
812.5	4.733	892917	PROB	4.733	n/a	n/a	n/a	-999	5	[2, 4, 8]	14	catFR1	0	R1400N
817.233	3.383	897649	PROB	3.383	n/a	n/a	n/a	-999	5	[7, 8, 7]	22	catFR1	0	R1400N
820.616	4.25	901032	PROB	4.25	n/a	n/a	n/a	-999	5	[4, 8, 6]	8	catFR1	0	R1400N
824.866	7.932	905282	PROB	7.932	n/a	n/a	n/a	-999	5	[4, 3, 8]	15	catFR1	0	R1400N
832.798	0.0	913219	DISTRACT_END	n/a	n/a	n/a	n/a	-999	5	[0, 0, 0]	n/a	catFR1	0	R1400N
832.798	1.034	913214	STOP	n/a	n/a	n/a	n/a	-999	5	[-999, -999, -999]	n/a	catFR1	0	R1400N
833.832	3.254	914248	REC_START	n/a	n/a	n/a	n/a	-999	5	[0, 0, 0]	n/a	catFR1	0	R1400N
837.086	8.235	917502	REC_WORD	8.235	n/a	SILK	Fabric	3	5	[0, 0, 0]	n/a	catFR1	0	R1400N
845.321	19.73	925737	REC_WORD_VV	19.73	n/a	<>	n/a	-999	5	[0, 0, 0]	n/a	catFR1	0	R1400N
865.051	7.748	945468	REC_END	n/a	n/a	n/a	n/a	-999	5	[0, 0, 0]	n/a	catFR1	0	R1400N
872.799	10.351	953217	COUNTDOWN_START	n/a	n/a	n/a	n/a	-999	5	[0, 0, 0]	n/a	catFR1	0	R1400N
883.15	0.0	963567	COUNTDOWN_END	n/a	n/a	n/a	n/a	-999	5	[0, 0, 0]	n/a	catFR1	0	R1400N
883.15	2.116	963567	ENCODING_START	n/a	n/a	n/a	n/a	-999	6	[0, 0, 0]	n/a	catFR1	0	R1400N
885.266	1.617	965682	WORD	n/a	wordpools/wordpool_categorized_EN.txt	DRESS	Clothing	1	6	[0, 0, 0]	n/a	catFR1	0	R1400N
886.883	0.783	967292	WORD_OFF	n/a	n/a	DRESS	Clothing	1	6	[0, 0, 0]	n/a	catFR1	0	R1400N
887.666	1.617	968078	WORD	n/a	wordpools/wordpool_categorized_EN.txt	SOCKS	Clothing	2	6	[0, 0, 0]	n/a	catFR1	0	R1400N
889.283	0.9	969706	WORD_OFF	n/a	n/a	SOCKS	Clothing	2	6	[0, 0, 0]	n/a	catFR1	0	R1400N
890.183	1.6	970605	WORD	n/a	wordpools/wordpool_categorized_EN.txt	CHEESECAKE	Desserts	3	6	[0, 0, 0]	n/a	catFR1	0	R1400N
891.783	0.8	972196	WORD_OFF	n/a	n/a	CHEESECAKE	Desserts	3	6	[0, 0, 0]	n/a	catFR1	0	R1400N
892.583	1.615	973001	WORD	n/a	wordpools/wordpool_categorized_EN.txt	PIE	Desserts	4	6	[0, 0, 0]	n/a	catFR1	0	R1400N
894.198	0.833	974610	WORD_OFF	n/a	n/a	PIE	Desserts	4	6	[0, 0, 0]	n/a	catFR1	0	R1400N
895.031	1.601	975452	WORD	n/a	wordpools/wordpool_categorized_EN.txt	SPOON	KitchenTools	5	6	[0, 0, 0]	n/a	catFR1	0	R1400N
896.632	0.968	977043	WORD_OFF	n/a	n/a	SPOON	KitchenTools	5	6	[0, 0, 0]	n/a	catFR1	0	R1400N
897.6	1.599	978017	WORD	n/a	wordpools/wordpool_categorized_EN.txt	COLANDER	KitchenTools	6	6	[0, 0, 0]	n/a	catFR1	0	R1400N
899.199	0.817	979608	WORD_OFF	n/a	n/a	COLANDER	KitchenTools	6	6	[0, 0, 0]	n/a	catFR1	0	R1400N
900.016	1.6	980431	WORD	n/a	wordpools/wordpool_categorized_EN.txt	COOKIE	Desserts	7	6	[0, 0, 0]	n/a	catFR1	0	R1400N
901.616	0.933	982022	WORD_OFF	n/a	n/a	COOKIE	Desserts	7	6	[0, 0, 0]	n/a	catFR1	0	R1400N
902.549	1.6	982958	WORD	n/a	wordpools/wordpool_categorized_EN.txt	PUDDING	Desserts	8	6	[0, 0, 0]	n/a	catFR1	0	R1400N
904.149	1.0	984568	WORD_OFF	n/a	n/a	PUDDING	Desserts	8	6	[0, 0, 0]	n/a	catFR1	0	R1400N
905.149	1.6	985560	WORD	n/a	wordpools/wordpool_categorized_EN.txt	FORK	KitchenTools	9	6	[0, 0, 0]	n/a	catFR1	0	R1400N
906.749	0.917	987169	WORD_OFF	n/a	n/a	FORK	KitchenTools	9	6	[0, 0, 0]	n/a	catFR1	0	R1400N
907.666	1.616	988086	WORD	n/a	wordpools/wordpool_categorized_EN.txt	LADLE	KitchenTools	10	6	[0, 0, 0]	n/a	catFR1	0	R1400N
909.282	0.967	989696	WORD_OFF	n/a	n/a	LADLE	KitchenTools	10	6	[0, 0, 0]	n/a	catFR1	0	R1400N
910.249	1.617	990669	WORD	n/a	wordpools/wordpool_categorized_EN.txt	SHIRT	Clothing	11	6	[0, 0, 0]	n/a	catFR1	0	R1400N
911.866	0.782	992279	WORD_OFF	n/a	n/a	SHIRT	Clothing	11	6	[0, 0, 0]	n/a	catFR1	0	R1400N
912.648	1.601	993065	WORD	n/a	wordpools/wordpool_categorized_EN.txt	JEANS	Clothing	12	6	[0, 0, 0]	n/a	catFR1	0	R1400N
914.249	0.001	994656	WORD_OFF	n/a	n/a	JEANS	Clothing	12	6	[0, 0, 0]	n/a	catFR1	0	R1400N
914.25	0.001	994663	PROB	0.001	n/a	n/a	n/a	-999	6	[8, 7, 4]	19	catFR1	0	R1400N
914.251	0.0	994675	DISTRACT_START	n/a	n/a	n/a	n/a	-999	6	[0, 0, 0]	n/a	catFR1	0	R1400N
914.251	0.0	994675	ENCODING_END	n/a	n/a	n/a	n/a	-999	6	[0, 0, 0]	n/a	catFR1	0	R1400N
914.251	5.348	994664	START	n/a	n/a	n/a	n/a	-999	6	[-999, -999, -999]	n/a	catFR1	0	R1400N
919.599	2.684	1000012	PROB	2.684	n/a	n/a	n/a	-999	6	[2, 8, 7]	17	catFR1	0	R1400N
922.283	2.916	1002696	PROB	2.916	n/a	n/a	n/a	-999	6	[3, 7, 5]	15	catFR1	0	R1400N
925.199	3.7	1005612	PROB	3.7	n/a	n/a	n/a	-999	6	[4, 1, 6]	11	catFR1	0	R1400N
928.899	2.55	1009312	PROB	2.55	n/a	n/a	n/a	-999	6	[2, 1, 3]	6	catFR1	0	R1400N
931.449	4.349	1011862	PROB	4.349	n/a	n/a	n/a	-999	6	[8, 8, 5]	21	catFR1	0	R1400N
935.798	0.0	1016218	DISTRACT_END	n/a	n/a	n/a	n/a	-999	6	[0, 0, 0]	n/a	catFR1	0	R1400N
935.798	1.102	1016211	STOP	n/a	n/a	n/a	n/a	-999	6	[-999, -999, -999]	n/a	catFR1	0	R1400N
936.9	10.476	1017322	REC_START	n/a	n/a	n/a	n/a	-999	6	[0, 0, 0]	n/a	catFR1	0	R1400N
947.376	6.161	1027788	REC_WORD	6.161	n/a	SHIRT	Clothing	11	6	[0, 0, 0]	n/a	catFR1	0	R1400N
953.537	1.714	1033949	REC_WORD	1.714	n/a	SPOON	KitchenTools	5	6	[0, 0, 0]	n/a	catFR1	0	R1400N
955.251	2.298	1035663	REC_WORD	2.298	n/a	FORK	KitchenTools	9	6	[0, 0, 0]	n/a	catFR1	0	R1400N
957.549	10.555	1037961	REC_WORD	10.555	n/a	CHEESECAKE	Desserts	3	6	[0, 0, 0]	n/a	catFR1	0	R1400N
968.104	27.744	1048524	REC_END	n/a	n/a	n/a	n/a	-999	6	[0, 0, 0]	n/a	catFR1	0	R1400N
995.848	10.352	1076262	COUNTDOWN_START	n/a	n/a	n/a	n/a	-999	6	[0, 0, 0]	n/a	catFR1	0	R1400N
1006.2	0.0	1086612	COUNTDOWN_END	n/a	n/a	n/a	n/a	-999	6	[0, 0, 0]	n/a	catFR1	0	R1400N
1006.2	2.232	1086612	ENCODING_START	n/a	n/a	n/a	n/a	-999	7	[0, 0, 0]	n/a	catFR1	0	R1400N
1008.432	1.6	1088840	WORD	n/a	wordpools/wordpool_categorized_EN.txt	HUMIDITY	Weather	1	7	[0, 0, 0]	n/a	catFR1	0	R1400N
1010.032	0.934	1090449	WORD_OFF	n/a	n/a	HUMIDITY	Weather	1	7	[0, 0, 0]	n/a	catFR1	0	R1400N
1010.966	1.6	1091385	WORD	n/a	wordpools/wordpool_categorized_EN.txt	SNOW	Weather	2	7	[0, 0, 0]	n/a	catFR1	0	R1400N
1012.566	0.866	1092976	WORD_OFF	n/a	n/a	SNOW	Weather	2	7	[0, 0, 0]	n/a	catFR1	0	R1400N
1013.432	1.6	1093837	WORD	n/a	wordpools/wordpool_categorized_EN.txt	LIME	Fruit	3	7	[0, 0, 0]	n/a	catFR1	0	R1400N
1015.032	0.983	1095447	WORD_OFF	n/a	n/a	LIME	Fruit	3	7	[0, 0, 0]	n/a	catFR1	0	R1400N
1016.015	1.601	1096420	WORD	n/a	wordpools/wordpool_categorized_EN.txt	BLUEBERRY	Fruit	4	7	[0, 0, 0]	n/a	catFR1	0	R1400N
1017.616	0.899	1098030	WORD_OFF	n/a	n/a	BLUEBERRY	Fruit	4	7	[0, 0, 0]	n/a	catFR1	0	R1400N
1018.515	1.6	1098928	WORD	n/a	wordpools/wordpool_categorized_EN.txt	BARBIE	Toys	5	7	[0, 0, 0]	n/a	catFR1	0	R1400N
1020.115	1.001	1100519	WORD_OFF	n/a	n/a	BARBIE	Toys	5	7	[0, 0, 0]	n/a	catFR1	0	R1400N
1021.116	1.616	1101530	WORD	n/a	wordpools/wordpool_categorized_EN.txt	BASEBALL	Toys	6	7	[0, 0, 0]	n/a	catFR1	0	R1400N
1022.732	0.9	1103140	WORD_OFF	n/a	n/a	BASEBALL	Toys	6	7	[0, 0, 0]	n/a	catFR1	0	R1400N
1023.632	1.617	1104038	WORD	n/a	wordpools/wordpool_categorized_EN.txt	FOG	Weather	7	7	[0, 0, 0]	n/a	catFR1	0	R1400N
1025.249	0.866	1105666	WORD_OFF	n/a	n/a	FOG	Weather	7	7	[0, 0, 0]	n/a	catFR1	0	R1400N
1026.115	1.6	1106527	WORD	n/a	wordpools/wordpool_categorized_EN.txt	WIND	Weather	8	7	[0, 0, 0]	n/a	catFR1	0	R1400N
1027.715	0.85	1108118	WORD_OFF	n/a	n/a	WIND	Weather	8	7	[0, 0, 0]	n/a	catFR1	0	R1400N
1028.565	1.617	1108979	WORD	n/a	wordpools/wordpool_categorized_EN.txt	FRISBEE	Toys	9	7	[0, 0, 0]	n/a	catFR1	0	R1400N
1030.182	0.883	1110589	WORD_OFF	n/a	n/a	FRISBEE	Toys	9	7	[0, 0, 0]	n/a	catFR1	0	R1400N
1031.065	1.617	1111469	WORD	n/a	wordpools/wordpool_categorized_EN.txt	DOLLHOUSE	Toys	10	7	[0, 0, 0]	n/a	catFR1	0	R1400N
1032.682	0.766	1113097	WORD_OFF	n/a	n/a	DOLLHOUSE	Toys	10	7	[0, 0, 0]	n/a	catFR1	0	R1400N
1033.448	1.601	1113864	WORD	n/a	wordpools/wordpool_categorized_EN.txt	PEAR	Fruit	11	7	[0, 0, 0]	n/a	catFR1	0	R1400N
1035.049	0.966	1115455	WORD_OFF	n/a	n/a	PEAR	Fruit	11	7	[0, 0, 0]	n/a	catFR1	0	R1400N
1036.015	1.6	1116429	WORD	n/a	wordpools/wordpool_categorized_EN.txt	GRAPE	Fruit	12	7	[0, 0, 0]	n/a	catFR1	0	R1400N
1037.615	0.001	1118020	WORD_OFF	n/a	n/a	GRAPE	Fruit	12	7	[0, 0, 0]	n/a	catFR1	0	R1400N
1037.616	0.001	1118026	PROB	0.001	n/a	n/a	n/a	-999	7	[2, 3, 3]	8	catFR1	0	R1400N
1037.617	0.0	1118020	ENCODING_END	n/a	n/a	n/a	n/a	-999	7	[0, 0, 0]	n/a	catFR1	0	R1400N
1037.617	0.0	1118038	DISTRACT_START	n/a	n/a	n/a	n/a	-999	7	[0, 0, 0]	n/a	catFR1	0	R1400N
1037.617	3.116	1118027	START	n/a	n/a	n/a	n/a	-999	7	[-999, -999, -999]	n/a	catFR1	0	R1400N
1040.733	2.65	1121143	PROB	2.65	n/a	n/a	n/a	-999	7	[1, 7, 4]	12	catFR1	0	R1400N
1043.383	3.384	1123793	PROB	3.384	n/a	n/a	n/a	-999	7	[2, 1, 5]	8	catFR1	0	R1400N
1046.767	2.665	1127176	PROB	2.665	n/a	n/a	n/a	-999	7	[1, 5, 7]	13	catFR1	0	R1400N
1049.432	2.818	1129841	PROB	2.818	n/a	n/a	n/a	-999	7	[5, 6, 7]	18	catFR1	0	R1400N
1052.25	2.199	1132659	PROB	2.199	n/a	n/a	n/a	-999	7	[2, 3, 3]	8	catFR1	0	R1400N
1054.449	3.167	1134858	PROB	3.167	n/a	n/a	n/a	-999	7	[2, 8, 3]	13	catFR1	0	R1400N
1057.616	0.0	1138028	DISTRACT_END	n/a	n/a	n/a	n/a	-999	7	[0, 0, 0]	n/a	catFR1	0	R1400N
1057.616	1.083	1138025	STOP	n/a	n/a	n/a	n/a	-999	7	[-999, -999, -999]	n/a	catFR1	0	R1400N
1058.699	1.97	1139114	REC_START	n/a	n/a	n/a	n/a	-999	7	[0, 0, 0]	n/a	catFR1	0	R1400N
1060.669	2.319	1141078	REC_WORD	2.319	n/a	HUMIDITY	Weather	1	7	[0, 0, 0]	n/a	catFR1	0	R1400N
1062.988	2.244	1143397	REC_WORD	2.244	n/a	SNOW	Weather	2	7	[0, 0, 0]	n/a	catFR1	0	R1400N
1065.232	2.147	1145641	REC_WORD	2.147	n/a	FOG	Weather	7	7	[0, 0, 0]	n/a	catFR1	0	R1400N
1067.379	22.529	1147788	REC_WORD	22.529	n/a	BASEBALL	Toys	6	7	[0, 0, 0]	n/a	catFR1	0	R1400N
1089.908	6.724	1170315	REC_END	n/a	n/a	n/a	n/a	-999	7	[0, 0, 0]	n/a	catFR1	0	R1400N
1096.632	10.351	1177034	COUNTDOWN_START	n/a	n/a	n/a	n/a	-999	7	[0, 0, 0]	n/a	catFR1	0	R1400N
1106.983	0.0	1187385	COUNTDOWN_END	n/a	n/a	n/a	n/a	-999	7	[0, 0, 0]	n/a	catFR1	0	R1400N
1106.983	2.283	1187385	ENCODING_START	n/a	n/a	n/a	n/a	-999	8	[0, 0, 0]	n/a	catFR1	0	R1400N
1109.266	1.616	1189668	WORD	n/a	wordpools/wordpool_categorized_EN.txt	CORKSCREW	KitchenTools	1	8	[0, 0, 0]	n/a	catFR1	0	R1400N
1110.882	0.767	1191296	WORD_OFF	n/a	n/a	CORKSCREW	KitchenTools	1	8	[0, 0, 0]	n/a	catFR1	0	R1400N
1111.649	1.6	1192064	WORD	n/a	wordpools/wordpool_categorized_EN.txt	GRATER	KitchenTools	2	8	[0, 0, 0]	n/a	catFR1	0	R1400N
1113.249	0.999	1193655	WORD_OFF	n/a	n/a	GRATER	KitchenTools	2	8	[0, 0, 0]	n/a	catFR1	0	R1400N
1114.248	1.601	1194647	WORD	n/a	wordpools/wordpool_categorized_EN.txt	CROWBAR	Tools	3	8	[0, 0, 0]	n/a	catFR1	0	R1400N
1115.849	1.0	1196275	WORD_OFF	n/a	n/a	CROWBAR	Tools	3	8	[0, 0, 0]	n/a	catFR1	0	R1400N
1116.849	1.617	1197248	WORD	n/a	wordpools/wordpool_categorized_EN.txt	SHOVEL	Tools	4	8	[0, 0, 0]	n/a	catFR1	0	R1400N
1118.466	0.866	1198877	WORD_OFF	n/a	n/a	SHOVEL	Tools	4	8	[0, 0, 0]	n/a	catFR1	0	R1400N
1119.332	1.6	1199738	WORD	n/a	wordpools/wordpool_categorized_EN.txt	CALCULATOR	Electronics	5	8	[0, 0, 0]	n/a	catFR1	0	R1400N
1120.932	0.833	1201348	WORD_OFF	n/a	n/a	CALCULATOR	Electronics	5	8	[0, 0, 0]	n/a	catFR1	0	R1400N
1121.765	1.6	1202171	WORD	n/a	wordpools/wordpool_categorized_EN.txt	PHONE	Electronics	6	8	[0, 0, 0]	n/a	catFR1	0	R1400N
1123.365	0.967	1203781	WORD_OFF	n/a	n/a	PHONE	Electronics	6	8	[0, 0, 0]	n/a	catFR1	0	R1400N
1124.332	1.6	1204735	WORD	n/a	wordpools/wordpool_categorized_EN.txt	SCREWDRIVER	Tools	7	8	[0, 0, 0]	n/a	catFR1	0	R1400N
1125.932	0.967	1206345	WORD_OFF	n/a	n/a	SCREWDRIVER	Tools	7	8	[0, 0, 0]	n/a	catFR1	0	R1400N
1126.899	1.616	1207299	WORD	n/a	wordpools/wordpool_categorized_EN.txt	LEVEL	Tools	8	8	[0, 0, 0]	n/a	catFR1	0	R1400N
1128.515	0.884	1208928	WORD_OFF	n/a	n/a	LEVEL	Tools	8	8	[0, 0, 0]	n/a	catFR1	0	R1400N
1129.399	1.601	1209808	WORD	n/a	wordpools/wordpool_categorized_EN.txt	SPATULA	KitchenTools	9	8	[0, 0, 0]	n/a	catFR1	0	R1400N
1131.0	0.799	1211398	WORD_OFF	n/a	n/a	SPATULA	KitchenTools	9	8	[0, 0, 0]	n/a	catFR1	0	R1400N
1131.799	1.616	1212203	WORD	n/a	wordpools/wordpool_categorized_EN.txt	TONGS	KitchenTools	10	8	[0, 0, 0]	n/a	catFR1	0	R1400N
1133.415	0.867	1213832	WORD_OFF	n/a	n/a	TONGS	KitchenTools	10	8	[0, 0, 0]	n/a	catFR1	0	R1400N
1134.282	1.6	1214693	WORD	n/a	wordpools/wordpool_categorized_EN.txt	TELEVISION	Electronics	11	8	[0, 0, 0]	n/a	catFR1	0	R1400N
1135.882	1.0	1216284	WORD_OFF	n/a	n/a	TELEVISION	Electronics	11	8	[0, 0, 0]	n/a	catFR1	0	R1400N
1136.882	1.617	1217294	WORD	n/a	wordpools/wordpool_categorized_EN.txt	PRINTER	Electronics	12	8	[0, 0, 0]	n/a	catFR1	0	R1400N
1138.499	0.001	1218904	WORD_OFF	n/a	n/a	PRINTER	Electronics	12	8	[0, 0, 0]	n/a	catFR1	0	R1400N
1138.5	0.001	1218907	PROB	0.001	n/a	n/a	n/a	-999	8	[3, 1, 5]	9	catFR1	0	R1400N
1138.501	0.0	1218904	DISTRACT_START	n/a	n/a	n/a	n/a	-999	8	[0, 0, 0]	n/a	catFR1	0	R1400N
1138.501	0.0	1218904	ENCODING_END	n/a	n/a	n/a	n/a	-999	8	[0, 0, 0]	n/a	catFR1	0	R1400N
1138.501	3.899	1218908	START	n/a	n/a	n/a	n/a	-999	8	[-999, -999, -999]	n/a	catFR1	0	R1400N
1142.4	3.051	1222806	PROB	3.051	n/a	n/a	n/a	-999	8	[1, 3, 6]	10	catFR1	0	R1400N
1145.451	5.616	1225857	PROB	5.616	n/a	n/a	n/a	-999	8	[1, 6, 8]	15	catFR1	0	R1400N
1151.067	4.133	1231473	PROB	4.133	n/a	n/a	n/a	-999	8	[2, 6, 3]	11	catFR1	0	R1400N
1155.2	2.383	1235606	PROB	2.383	n/a	n/a	n/a	-999	8	[1, 8, 1]	10	catFR1	0	R1400N
1157.583	2.983	1237989	PROB	2.983	n/a	n/a	n/a	-999	8	[7, 2, 8]	17	catFR1	0	R1400N
1160.566	0.0	1240971	DISTRACT_END	n/a	n/a	n/a	n/a	-999	8	[0, 0, 0]	n/a	catFR1	0	R1400N
1160.566	1.167	1240972	STOP	n/a	n/a	n/a	n/a	-999	8	[-999, -999, -999]	n/a	catFR1	0	R1400N
1161.733	2.132	1242132	REC_START	n/a	n/a	n/a	n/a	-999	8	[0, 0, 0]	n/a	catFR1	0	R1400N
1163.865	2.97	1244271	REC_WORD	2.97	n/a	TELEVISION	Electronics	11	8	[0, 0, 0]	n/a	catFR1	0	R1400N
1166.835	0.883	1247241	REC_WORD	0.883	n/a	CALCULATOR	Electronics	5	8	[0, 0, 0]	n/a	catFR1	0	R1400N
1167.718	2.813	1248124	REC_WORD	2.813	n/a	PRINTER	Electronics	12	8	[0, 0, 0]	n/a	catFR1	0	R1400N
1170.531	22.399	1250937	REC_WORD	22.399	n/a	SCREWDRIVER	Tools	7	8	[0, 0, 0]	n/a	catFR1	0	R1400N
1192.93	4.719	1273333	REC_END	n/a	n/a	n/a	n/a	-999	8	[0, 0, 0]	n/a	catFR1	0	R1400N
1197.649	10.351	1278050	COUNTDOWN_START	n/a	n/a	n/a	n/a	-999	8	[0, 0, 0]	n/a	catFR1	0	R1400N
1208.0	0.0	1288400	COUNTDOWN_END	n/a	n/a	n/a	n/a	-999	8	[0, 0, 0]	n/a	catFR1	0	R1400N
1208.0	2.216	1288400	ENCODING_START	n/a	n/a	n/a	n/a	-999	9	[0, 0, 0]	n/a	catFR1	0	R1400N
1210.216	1.6	1290627	WORD	n/a	wordpools/wordpool_categorized_EN.txt	PEN	OfficeSupplies	1	9	[0, 0, 0]	n/a	catFR1	0	R1400N
1211.816	0.85	1292218	WORD_OFF	n/a	n/a	PEN	OfficeSupplies	1	9	[0, 0, 0]	n/a	catFR1	0	R1400N
1212.666	1.616	1293079	WORD	n/a	wordpools/wordpool_categorized_EN.txt	ERASER	OfficeSupplies	2	9	[0, 0, 0]	n/a	catFR1	0	R1400N
1214.282	0.85	1294689	WORD_OFF	n/a	n/a	ERASER	OfficeSupplies	2	9	[0, 0, 0]	n/a	catFR1	0	R1400N
1215.132	1.6	1295531	WORD	n/a	wordpools/wordpool_categorized_EN.txt	TRUCK	Vehicles	3	9	[0, 0, 0]	n/a	catFR1	0	R1400N
1216.732	0.95	1297141	WORD_OFF	n/a	n/a	TRUCK	Vehicles	3	9	[0, 0, 0]	n/a	catFR1	0	R1400N
1217.682	1.617	1298095	WORD	n/a	wordpools/wordpool_categorized_EN.txt	VAN	Vehicles	4	9	[0, 0, 0]	n/a	catFR1	0	R1400N
1219.299	0.933	1299705	WORD_OFF	n/a	n/a	VAN	Vehicles	4	9	[0, 0, 0]	n/a	catFR1	0	R1400N
1220.232	1.6	1300641	WORD	n/a	wordpools/wordpool_categorized_EN.txt	BASS	Instruments	5	9	[0, 0, 0]	n/a	catFR1	0	R1400N
1221.832	0.9	1302232	WORD_OFF	n/a	n/a	BASS	Instruments	5	9	[0, 0, 0]	n/a	catFR1	0	R1400N
1222.732	1.6	1303130	WORD	n/a	wordpools/wordpool_categorized_EN.txt	VIOLIN	Instruments	6	9	[0, 0, 0]	n/a	catFR1	0	R1400N
1224.332	0.95	1304740	WORD_OFF	n/a	n/a	VIOLIN	Instruments	6	9	[0, 0, 0]	n/a	catFR1	0	R1400N
1225.282	1.6	1305695	WORD	n/a	wordpools/wordpool_categorized_EN.txt	RULER	OfficeSupplies	7	9	[0, 0, 0]	n/a	catFR1	0	R1400N
1226.882	0.85	1307285	WORD_OFF	n/a	n/a	RULER	OfficeSupplies	7	9	[0, 0, 0]	n/a	catFR1	0	R1400N
1227.732	1.6	1308128	WORD	n/a	wordpools/wordpool_categorized_EN.txt	GLUE	OfficeSupplies	8	9	[0, 0, 0]	n/a	catFR1	0	R1400N
1229.332	0.933	1309737	WORD_OFF	n/a	n/a	GLUE	OfficeSupplies	8	9	[0, 0, 0]	n/a	catFR1	0	R1400N
1230.265	1.617	1310673	WORD	n/a	wordpools/wordpool_categorized_EN.txt	BIKE	Vehicles	9	9	[0, 0, 0]	n/a	catFR1	0	R1400N
1231.882	0.983	1312283	WORD_OFF	n/a	n/a	BIKE	Vehicles	9	9	[0, 0, 0]	n/a	catFR1	0	R1400N
1232.865	1.616	1313275	WORD	n/a	wordpools/wordpool_categorized_EN.txt	MOPED	Vehicles	10	9	[0, 0, 0]	n/a	catFR1	0	R1400N
1234.481	0.784	1314885	WORD_OFF	n/a	n/a	MOPED	Vehicles	10	9	[0, 0, 0]	n/a	catFR1	0	R1400N
1235.265	1.6	1315671	WORD	n/a	wordpools/wordpool_categorized_EN.txt	FLUTE	Instruments	11	9	[0, 0, 0]	n/a	catFR1	0	R1400N
1236.865	0.884	1317262	WORD_OFF	n/a	n/a	FLUTE	Instruments	11	9	[0, 0, 0]	n/a	catFR1	0	R1400N
1237.749	1.6	1318160	WORD	n/a	wordpools/wordpool_categorized_EN.txt	BANJO	Instruments	12	9	[0, 0, 0]	n/a	catFR1	0	R1400N
1239.349	0.0	1319751	WORD_OFF	n/a	n/a	BANJO	Instruments	12	9	[0, 0, 0]	n/a	catFR1	0	R1400N
1239.349	0.002	1319753	PROB	0.002	n/a	n/a	n/a	-999	9	[6, 8, 4]	18	catFR1	0	R1400N
1239.351	0.0	1319751	DISTRACT_START	n/a	n/a	n/a	n/a	-999	9	[0, 0, 0]	n/a	catFR1	0	R1400N
1239.351	0.0	1319751	ENCODING_END	n/a	n/a	n/a	n/a	-999	9	[0, 0, 0]	n/a	catFR1	0	R1400N
1239.351	4.19	1319755	START	n/a	n/a	n/a	n/a	-999	9	[-999, -999, -999]	n/a	catFR1	0	R1400N
1243.541	4.309	1323944	PROB	4.309	n/a	n/a	n/a	-999	9	[1, 8, 3]	12	catFR1	0	R1400N
1247.85	2.683	1328253	PROB	2.683	n/a	n/a	n/a	-999	9	[3, 8, 8]	19	catFR1	0	R1400N
1250.533	2.866	1330936	PROB	2.866	n/a	n/a	n/a	-999	9	[6, 3, 5]	14	catFR1	0	R1400N
1253.399	2.451	1333802	PROB	2.451	n/a	n/a	n/a	-999	9	[1, 3, 7]	11	catFR1	0	R1400N
1255.85	3.434	1336253	PROB	3.434	n/a	n/a	n/a	-999	9	[2, 2, 4]	8	catFR1	0	R1400N
1259.284	2.832	1339687	PROB	2.832	n/a	n/a	n/a	-999	9	[2, 5, 5]	12	catFR1	0	R1400N
1262.116	0.0	1342511	DISTRACT_END	n/a	n/a	n/a	n/a	-999	9	[0, 0, 0]	n/a	catFR1	0	R1400N
1262.116	1.3	1342519	STOP	n/a	n/a	n/a	n/a	-999	9	[-999, -999, -999]	n/a	catFR1	0	R1400N
1263.416	2.894	1343821	REC_START	n/a	n/a	n/a	n/a	-999	9	[0, 0, 0]	n/a	catFR1	0	R1400N
1266.31	5.81	1346713	REC_WORD	5.81	n/a	MOPED	Vehicles	10	9	[0, 0, 0]	n/a	catFR1	0	R1400N
1272.12	22.497	1352523	REC_WORD	22.497	n/a	GLUE	OfficeSupplies	8	9	[0, 0, 0]	n/a	catFR1	0	R1400N
1294.617	4.182	1375022	REC_END	n/a	n/a	n/a	n/a	-999	9	[0, 0, 0]	n/a	catFR1	0	R1400N
1298.799	10.352	1379196	COUNTDOWN_START	n/a	n/a	n/a	n/a	-999	9	[0, 0, 0]	n/a	catFR1	0	R1400N
1309.151	0.0	1389546	COUNTDOWN_END	n/a	n/a	n/a	n/a	-999	9	[0, 0, 0]	n/a	catFR1	0	R1400N
1309.151	2.265	1389546	ENCODING_START	n/a	n/a	n/a	n/a	-999	10	[0, 0, 0]	n/a	catFR1	0	R1400N
1311.416	1.6	1391811	WORD	n/a	wordpools/wordpool_categorized_EN.txt	BULL	FarmAnimals	1	10	[0, 0, 0]	n/a	catFR1	0	R1400N
1313.016	0.816	1393421	WORD_OFF	n/a	n/a	BULL	FarmAnimals	1	10	[0, 0, 0]	n/a	catFR1	0	R1400N
1313.832	1.617	1394226	WORD	n/a	wordpools/wordpool_categorized_EN.txt	LAMB	FarmAnimals	2	10	[0, 0, 0]	n/a	catFR1	0	R1400N
1315.449	0.917	1395854	WORD_OFF	n/a	n/a	LAMB	FarmAnimals	2	10	[0, 0, 0]	n/a	catFR1	0	R1400N
1316.366	1.616	1396771	WORD	n/a	wordpools/wordpool_categorized_EN.txt	VACUUM	Appliances	3	10	[0, 0, 0]	n/a	catFR1	0	R1400N
1317.982	0.917	1398381	WORD_OFF	n/a	n/a	VACUUM	Appliances	3	10	[0, 0, 0]	n/a	catFR1	0	R1400N
1318.899	1.6	1399298	WORD	n/a	wordpools/wordpool_categorized_EN.txt	OVEN	Appliances	4	10	[0, 0, 0]	n/a	catFR1	0	R1400N
1320.499	0.784	1400908	WORD_OFF	n/a	n/a	OVEN	Appliances	4	10	[0, 0, 0]	n/a	catFR1	0	R1400N
1321.283	1.6	1401675	WORD	n/a	wordpools/wordpool_categorized_EN.txt	TOE	BodyParts	5	10	[0, 0, 0]	n/a	catFR1	0	R1400N
1322.883	0.767	1403285	WORD_OFF	n/a	n/a	TOE	BodyParts	5	10	[0, 0, 0]	n/a	catFR1	0	R1400N
1323.65	1.616	1404052	WORD	n/a	wordpools/wordpool_categorized_EN.txt	FOOT	BodyParts	6	10	[0, 0, 0]	n/a	catFR1	0	R1400N
1325.266	0.933	1405662	WORD_OFF	n/a	n/a	FOOT	BodyParts	6	10	[0, 0, 0]	n/a	catFR1	0	R1400N
1326.199	1.616	1406598	WORD	n/a	wordpools/wordpool_categorized_EN.txt	MIXER	Appliances	7	10	[0, 0, 0]	n/a	catFR1	0	R1400N
1327.815	0.8	1408207	WORD_OFF	n/a	n/a	MIXER	Appliances	7	10	[0, 0, 0]	n/a	catFR1	0	R1400N
1328.615	1.601	1409012	WORD	n/a	wordpools/wordpool_categorized_EN.txt	STOVE	Appliances	8	10	[0, 0, 0]	n/a	catFR1	0	R1400N
1330.216	0.967	1410622	WORD_OFF	n/a	n/a	STOVE	Appliances	8	10	[0, 0, 0]	n/a	catFR1	0	R1400N
1331.183	1.6	1411576	WORD	n/a	wordpools/wordpool_categorized_EN.txt	SHEEP	FarmAnimals	9	10	[0, 0, 0]	n/a	catFR1	0	R1400N
1332.783	0.883	1413186	WORD_OFF	n/a	n/a	SHEEP	FarmAnimals	9	10	[0, 0, 0]	n/a	catFR1	0	R1400N
1333.666	1.616	1414066	WORD	n/a	wordpools/wordpool_categorized_EN.txt	CALF	FarmAnimals	10	10	[0, 0, 0]	n/a	catFR1	0	R1400N
1335.282	0.917	1415675	WORD_OFF	n/a	n/a	CALF	FarmAnimals	10	10	[0, 0, 0]	n/a	catFR1	0	R1400N
1336.199	1.617	1416592	WORD	n/a	wordpools/wordpool_categorized_EN.txt	FINGERS	BodyParts	11	10	[0, 0, 0]	n/a	catFR1	0	R1400N
1337.816	0.899	1418221	WORD_OFF	n/a	n/a	FINGERS	BodyParts	11	10	[0, 0, 0]	n/a	catFR1	0	R1400N
1338.715	1.617	1419119	WORD	n/a	wordpools/wordpool_categorized_EN.txt	NOSE	BodyParts	12	10	[0, 0, 0]	n/a	catFR1	0	R1400N
1340.332	0.0	1420729	WORD_OFF	n/a	n/a	NOSE	BodyParts	12	10	[0, 0, 0]	n/a	catFR1	0	R1400N
1340.332	0.002	1420732	PROB	0.002	n/a	n/a	n/a	-999	10	[3, 4, 1]	8	catFR1	0	R1400N
1340.334	0.0	1420729	DISTRACT_START	n/a	n/a	n/a	n/a	-999	10	[0, 0, 0]	n/a	catFR1	0	R1400N
1340.334	0.0	1420729	ENCODING_END	n/a	n/a	n/a	n/a	-999	10	[0, 0, 0]	n/a	catFR1	0	R1400N
1340.334	3.049	1420734	START	n/a	n/a	n/a	n/a	-999	10	[-999, -999, -999]	n/a	catFR1	0	R1400N
1343.383	3.866	1423783	PROB	3.866	n/a	n/a	n/a	-999	10	[7, 5, 4]	16	catFR1	0	R1400N
1347.249	4.467	1427649	PROB	4.467	n/a	n/a	n/a	-999	10	[7, 6, 7]	20	catFR1	0	R1400N
1351.716	3.268	1432116	PROB	3.268	n/a	n/a	n/a	-999	10	[6, 4, 4]	14	catFR1	0	R1400N
1354.984	2.365	1435384	PROB	2.365	n/a	n/a	n/a	-999	10	[2, 6, 6]	14	catFR1	0	R1400N
1357.349	2.701	1437749	PROB	2.701	n/a	n/a	n/a	-999	10	[6, 4, 5]	15	catFR1	0	R1400N
1360.05	2.815	1440450	PROB	2.815	n/a	n/a	n/a	-999	10	[2, 3, 7]	12	catFR1	0	R1400N
1362.865	0.0	1443264	DISTRACT_END	n/a	n/a	n/a	n/a	-999	10	[0, 0, 0]	n/a	catFR1	0	R1400N
1362.865	1.268	1443265	STOP	n/a	n/a	n/a	n/a	-999	10	[-999, -999, -999]	n/a	catFR1	0	R1400N
1364.133	1.557	1444537	REC_START	n/a	n/a	n/a	n/a	-999	10	[0, 0, 0]	n/a	catFR1	0	R1400N
1365.69	2.479	1446090	REC_WORD	2.479	n/a	OVEN	Appliances	4	10	[0, 0, 0]	n/a	catFR1	0	R1400N
1368.169	3.065	1448569	REC_WORD	3.065	n/a	STOVE	Appliances	8	10	[0, 0, 0]	n/a	catFR1	0	R1400N
1371.234	24.09	1451633	REC_WORD	24.09	n/a	FINGERS	BodyParts	11	10	[0, 0, 0]	n/a	catFR1	0	R1400N
1395.324	2.142	1475719	REC_END	n/a	n/a	n/a	n/a	-999	10	[0, 0, 0]	n/a	catFR1	0	R1400N
1397.466	10.35	1477872	COUNTDOWN_START	n/a	n/a	n/a	n/a	-999	10	[0, 0, 0]	n/a	catFR1	0	R1400N
1407.816	0.0	1488222	COUNTDOWN_END	n/a	n/a	n/a	n/a	-999	10	[0, 0, 0]	n/a	catFR1	0	R1400N
1407.816	2.166	1488222	ENCODING_START	n/a	n/a	n/a	n/a	-999	11	[0, 0, 0]	n/a	catFR1	0	R1400N
1409.982	1.6	1490375	WORD	n/a	wordpools/wordpool_categorized_EN.txt	TULIP	Flowers	1	11	[0, 0, 0]	n/a	catFR1	0	R1400N
1411.582	0.95	1491984	WORD_OFF	n/a	n/a	TULIP	Flowers	1	11	[0, 0, 0]	n/a	catFR1	0	R1400N
1412.532	1.6	1492939	WORD	n/a	wordpools/wordpool_categorized_EN.txt	VIOLET	Flowers	2	11	[0, 0, 0]	n/a	catFR1	0	R1400N
1414.132	1.0	1494530	WORD_OFF	n/a	n/a	VIOLET	Flowers	2	11	[0, 0, 0]	n/a	catFR1	0	R1400N
1415.132	1.617	1495522	WORD	n/a	wordpools/wordpool_categorized_EN.txt	PIG	FarmAnimals	3	11	[0, 0, 0]	n/a	catFR1	0	R1400N
1416.749	0.783	1497150	WORD_OFF	n/a	n/a	PIG	FarmAnimals	3	11	[0, 0, 0]	n/a	catFR1	0	R1400N
1417.532	1.616	1497936	WORD	n/a	wordpools/wordpool_categorized_EN.txt	ROOSTER	FarmAnimals	4	11	[0, 0, 0]	n/a	catFR1	0	R1400N
1419.148	0.95	1499546	WORD_OFF	n/a	n/a	ROOSTER	FarmAnimals	4	11	[0, 0, 0]	n/a	catFR1	0	R1400N
1420.098	1.601	1500501	WORD	n/a	wordpools/wordpool_categorized_EN.txt	HEADPHONES	Electronics	5	11	[0, 0, 0]	n/a	catFR1	0	R1400N
1421.699	0.95	1502092	WORD_OFF	n/a	n/a	HEADPHONES	Electronics	5	11	[0, 0, 0]	n/a	catFR1	0	R1400N
1422.649	1.616	1503046	WORD	n/a	wordpools/wordpool_categorized_EN.txt	MICROWAVE	Electronics	6	11	[0, 0, 0]	n/a	catFR1	0	R1400N
1424.265	0.767	1504656	WORD_OFF	n/a	n/a	MICROWAVE	Electronics	6	11	[0, 0, 0]	n/a	catFR1	0	R1400N
1425.032	1.6	1505423	WORD	n/a	wordpools/wordpool_categorized_EN.txt	HEN	FarmAnimals	7	11	[0, 0, 0]	n/a	catFR1	0	R1400N
1426.632	0.883	1507033	WORD_OFF	n/a	n/a	HEN	FarmAnimals	7	11	[0, 0, 0]	n/a	catFR1	0	R1400N
1427.515	1.6	1507912	WORD	n/a	wordpools/wordpool_categorized_EN.txt	TURKEY	FarmAnimals	8	11	[0, 0, 0]	n/a	catFR1	0	R1400N
1429.115	0.917	1509522	WORD_OFF	n/a	n/a	TURKEY	FarmAnimals	8	11	[0, 0, 0]	n/a	catFR1	0	R1400N
1430.032	1.617	1510439	WORD	n/a	wordpools/wordpool_categorized_EN.txt	RADIO	Electronics	9	11	[0, 0, 0]	n/a	catFR1	0	R1400N
1431.649	0.783	1512049	WORD_OFF	n/a	n/a	RADIO	Electronics	9	11	[0, 0, 0]	n/a	catFR1	0	R1400N
1432.432	1.6	1512835	WORD	n/a	wordpools/wordpool_categorized_EN.txt	SCANNER	Electronics	10	11	[0, 0, 0]	n/a	catFR1	0	R1400N
1434.032	0.967	1514426	WORD_OFF	n/a	n/a	SCANNER	Electronics	10	11	[0, 0, 0]	n/a	catFR1	0	R1400N
1434.999	1.6	1515399	WORD	n/a	wordpools/wordpool_categorized_EN.txt	PETUNIA	Flowers	11	11	[0, 0, 0]	n/a	catFR1	0	R1400N
1436.599	0.8	1516990	WORD_OFF	n/a	n/a	PETUNIA	Flowers	11	11	[0, 0, 0]	n/a	catFR1	0	R1400N
1437.399	1.6	1517795	WORD	n/a	wordpools/wordpool_categorized_EN.txt	SUNFLOWER	Flowers	12	11	[0, 0, 0]	n/a	catFR1	0	R1400N
1438.999	0.0	1519405	WORD_OFF	n/a	n/a	SUNFLOWER	Flowers	12	11	[0, 0, 0]	n/a	catFR1	0	R1400N
1438.999	0.002	1519396	PROB	0.002	n/a	n/a	n/a	-999	11	[4, 4, 8]	16	catFR1	0	R1400N
1439.001	0.0	1519405	DISTRACT_START	n/a	n/a	n/a	n/a	-999	11	[0, 0, 0]	n/a	catFR1	0	R1400N
1439.001	0.0	1519405	ENCODING_END	n/a	n/a	n/a	n/a	-999	11	[0, 0, 0]	n/a	catFR1	0	R1400N
1439.001	4.45	1519398	START	n/a	n/a	n/a	n/a	-999	11	[-999, -999, -999]	n/a	catFR1	0	R1400N
1443.451	2.482	1523848	PROB	2.482	n/a	n/a	n/a	-999	11	[1, 4, 6]	11	catFR1	0	R1400N
1445.933	2.201	1526330	PROB	2.201	n/a	n/a	n/a	-999	11	[1, 2, 3]	6	catFR1	0	R1400N
1448.134	3.165	1528531	PROB	3.165	n/a	n/a	n/a	-999	11	[2, 6, 7]	15	catFR1	0	R1400N
1451.299	2.384	1531696	PROB	2.384	n/a	n/a	n/a	-999	11	[6, 4, 3]	13	catFR1	0	R1400N
1453.683	3.584	1534080	PROB	3.584	n/a	n/a	n/a	-999	11	[8, 3, 7]	18	catFR1	0	R1400N
1457.267	2.966	1537664	PROB	2.966	n/a	n/a	n/a	-999	11	[7, 5, 8]	20	catFR1	0	R1400N
1460.233	0.0	1540630	DISTRACT_END	n/a	n/a	n/a	n/a	-999	11	[0, 0, 0]	n/a	catFR1	0	R1400N
1460.233	1.283	1540630	STOP	n/a	n/a	n/a	n/a	-999	11	[-999, -999, -999]	n/a	catFR1	0	R1400N
1461.516	1.923	1541921	REC_START	n/a	n/a	n/a	n/a	-999	11	[0, 0, 0]	n/a	catFR1	0	R1400N
1463.439	3.095	1543836	REC_WORD	3.095	n/a	MICROWAVE	Electronics	6	11	[0, 0, 0]	n/a	catFR1	0	R1400N
1466.534	7.775	1546931	REC_WORD	7.775	n/a	HEADPHONES	Electronics	5	11	[0, 0, 0]	n/a	catFR1	0	R1400N
1474.309	18.39	1554705	REC_WORD	18.39	n/a	PRINTER	Electronics	-999	11	[0, 0, 0]	n/a	catFR1	0	R1400N
1492.699	2.167	1573104	REC_END	n/a	n/a	n/a	n/a	-999	11	[0, 0, 0]	n/a	catFR1	0	R1400N
1494.866	10.35	1575256	COUNTDOWN_START	n/a	n/a	n/a	n/a	-999	11	[0, 0, 0]	n/a	catFR1	0	R1400N
1505.216	0.0	1585607	COUNTDOWN_END	n/a	n/a	n/a	n/a	-999	11	[0, 0, 0]	n/a	catFR1	0	R1400N
1505.216	2.05	1585607	ENCODING_START	n/a	n/a	n/a	n/a	-999	12	[0, 0, 0]	n/a	catFR1	0	R1400N
1507.266	1.617	1587665	WORD	n/a	wordpools/wordpool_categorized_EN.txt	GNAT	Insects	1	12	[0, 0, 0]	n/a	catFR1	0	R1400N
1508.883	0.766	1589275	WORD_OFF	n/a	n/a	GNAT	Insects	1	12	[0, 0, 0]	n/a	catFR1	0	R1400N
1509.649	1.617	1590043	WORD	n/a	wordpools/wordpool_categorized_EN.txt	MOTH	Insects	2	12	[0, 0, 0]	n/a	catFR1	0	R1400N
1511.266	0.916	1591671	WORD_OFF	n/a	n/a	MOTH	Insects	2	12	[0, 0, 0]	n/a	catFR1	0	R1400N
1512.182	1.601	1592569	WORD	n/a	wordpools/wordpool_categorized_EN.txt	JEEP	Vehicles	3	12	[0, 0, 0]	n/a	catFR1	0	R1400N
1513.783	0.9	1594179	WORD_OFF	n/a	n/a	JEEP	Vehicles	3	12	[0, 0, 0]	n/a	catFR1	0	R1400N
1514.683	1.6	1595077	WORD	n/a	wordpools/wordpool_categorized_EN.txt	TRAIN	Vehicles	4	12	[0, 0, 0]	n/a	catFR1	0	R1400N
1516.283	0.933	1596687	WORD_OFF	n/a	n/a	TRAIN	Vehicles	4	12	[0, 0, 0]	n/a	catFR1	0	R1400N
1517.216	1.617	1597604	WORD	n/a	wordpools/wordpool_categorized_EN.txt	MARIGOLD	Flowers	5	12	[0, 0, 0]	n/a	catFR1	0	R1400N
1518.833	0.983	1599233	WORD_OFF	n/a	n/a	MARIGOLD	Flowers	5	12	[0, 0, 0]	n/a	catFR1	0	R1400N
1519.816	1.617	1600206	WORD	n/a	wordpools/wordpool_categorized_EN.txt	LILAC	Flowers	6	12	[0, 0, 0]	n/a	catFR1	0	R1400N
1521.433	0.966	1601834	WORD_OFF	n/a	n/a	LILAC	Flowers	6	12	[0, 0, 0]	n/a	catFR1	0	R1400N
1522.399	1.6	1602789	WORD	n/a	wordpools/wordpool_categorized_EN.txt	SCOOTER	Vehicles	7	12	[0, 0, 0]	n/a	catFR1	0	R1400N
1523.999	0.95	1604398	WORD_OFF	n/a	n/a	SCOOTER	Vehicles	7	12	[0, 0, 0]	n/a	catFR1	0	R1400N
1524.949	1.6	1605353	WORD	n/a	wordpools/wordpool_categorized_EN.txt	CAR	Vehicles	8	12	[0, 0, 0]	n/a	catFR1	0	R1400N
1526.549	0.767	1606944	WORD_OFF	n/a	n/a	CAR	Vehicles	8	12	[0, 0, 0]	n/a	catFR1	0	R1400N
1527.316	1.617	1607711	WORD	n/a	wordpools/wordpool_categorized_EN.txt	CARNATION	Flowers	9	12	[0, 0, 0]	n/a	catFR1	0	R1400N
1528.933	0.883	1609321	WORD_OFF	n/a	n/a	CARNATION	Flowers	9	12	[0, 0, 0]	n/a	catFR1	0	R1400N
1529.816	1.617	1610219	WORD	n/a	wordpools/wordpool_categorized_EN.txt	ORCHID	Flowers	10	12	[0, 0, 0]	n/a	catFR1	0	R1400N
1531.433	0.949	1611829	WORD_OFF	n/a	n/a	ORCHID	Flowers	10	12	[0, 0, 0]	n/a	catFR1	0	R1400N
1532.382	1.6	1612784	WORD	n/a	wordpools/wordpool_categorized_EN.txt	FLY	Insects	11	12	[0, 0, 0]	n/a	catFR1	0	R1400N
1533.982	0.967	1614375	WORD_OFF	n/a	n/a	FLY	Insects	11	12	[0, 0, 0]	n/a	catFR1	0	R1400N
1534.949	1.617	1615348	WORD	n/a	wordpools/wordpool_categorized_EN.txt	LADYBUG	Insects	12	12	[0, 0, 0]	n/a	catFR1	0	R1400N
1536.566	0.0	1616958	WORD_OFF	n/a	n/a	LADYBUG	Insects	12	12	[0, 0, 0]	n/a	catFR1	0	R1400N
1536.566	0.001	1616960	PROB	0.001	n/a	n/a	n/a	-999	12	[3, 3, 8]	14	catFR1	0	R1400N
1536.567	0.0	1616958	DISTRACT_START	n/a	n/a	n/a	n/a	-999	12	[0, 0, 0]	n/a	catFR1	0	R1400N
1536.567	0.0	1616958	ENCODING_END	n/a	n/a	n/a	n/a	-999	12	[0, 0, 0]	n/a	catFR1	0	R1400N
1536.567	4.283	1616961	START	n/a	n/a	n/a	n/a	-999	12	[-999, -999, -999]	n/a	catFR1	0	R1400N
1540.85	2.7	1621244	PROB	2.7	n/a	n/a	n/a	-999	12	[5, 5, 5]	15	catFR1	0	R1400N
1543.55	3.383	1623944	PROB	3.383	n/a	n/a	n/a	-999	12	[2, 7, 4]	13	catFR1	0	R1400N
1546.933	2.617	1627327	PROB	2.617	n/a	n/a	n/a	-999	12	[4, 4, 6]	14	catFR1	0	R1400N
1549.55	3.268	1629944	PROB	3.268	n/a	n/a	n/a	-999	12	[2, 5, 1]	8	catFR1	0	R1400N
1552.818	2.715	1633212	PROB	2.715	n/a	n/a	n/a	-999	12	[8, 4, 1]	13	catFR1	0	R1400N
1555.533	3.7	1635927	PROB	3.7	n/a	n/a	n/a	-999	12	[4, 4, 8]	16	catFR1	0	R1400N
1559.233	0.0	1639624	DISTRACT_END	n/a	n/a	n/a	n/a	-999	12	[0, 0, 0]	n/a	catFR1	0	R1400N
1559.233	1.016	1639627	STOP	n/a	n/a	n/a	n/a	-999	12	[-999, -999, -999]	n/a	catFR1	0	R1400N
1560.249	1.722	1640634	REC_START	n/a	n/a	n/a	n/a	-999	12	[0, 0, 0]	n/a	catFR1	0	R1400N
1561.971	2.062	1642365	REC_WORD	2.062	n/a	LADYBUG	Insects	12	12	[0, 0, 0]	n/a	catFR1	0	R1400N
1564.033	4.784	1644427	REC_WORD	4.784	n/a	FLY	Insects	11	12	[0, 0, 0]	n/a	catFR1	0	R1400N
1568.817	2.475	1649210	REC_WORD	2.475	n/a	MARIGOLD	Flowers	5	12	[0, 0, 0]	n/a	catFR1	0	R1400N
1571.292	2.284	1651685	REC_WORD	2.284	n/a	BUS	Vehicles	-999	12	[0, 0, 0]	n/a	catFR1	0	R1400N
1573.576	1.275	1653969	REC_WORD	1.275	n/a	TRAIN	Vehicles	4	12	[0, 0, 0]	n/a	catFR1	0	R1400N
1574.851	16.604	1655244	REC_WORD	16.604	n/a	JEEP	Vehicles	3	12	[0, 0, 0]	n/a	catFR1	0	R1400N
1591.455	0.0	1671854	REC_END	n/a	n/a	n/a	n/a	-999	12	[0, 0, 0]	n/a	catFR1	0	R1400N
