onset	duration	sample	trial_type	response_time	stim_file	item_name	category	serialpos	list	test	answer	experiment	session	subject
0.0	56.09	46027	SESS_START	n/a	n/a	n/a	n/a	-999	-999	[0, 0, 0]	n/a	catFR1	0	R1176M
56.09	10.428	74069	COUNTDOWN_START	n/a	n/a	n/a	n/a	-999	-999	[0, 0, 0]	n/a	catFR1	0	R1176M
66.518	3.758	79283	COUNTDOWN_END	n/a	n/a	n/a	n/a	-999	-999	[0, 0, 0]	n/a	catFR1	0	R1176M
70.276	2.483	81161	PRACTICE_WORD	n/a	n/a	WAGON	n/a	-999	-999	[0, 0, 0]	n/a	catFR1	0	R1176M
72.759	2.568	82403	PRACTICE_WORD	n/a	n/a	ATTIC	n/a	-999	-999	[0, 0, 0]	n/a	catFR1	0	R1176M
75.327	2.583	83687	PRACTICE_WORD	n/a	n/a	FLOOD	n/a	-999	-999	[0, 0, 0]	n/a	catFR1	0	R1176M
77.91	2.501	84978	PRACTICE_WORD	n/a	n/a	COTTON	n/a	-999	-999	[0, 0, 0]	n/a	catFR1	0	R1176M
80.411	2.466	86228	PRACTICE_WORD	n/a	n/a	CAMEL	n/a	-999	-999	[0, 0, 0]	n/a	catFR1	0	R1176M
82.877	2.569	87461	PRACTICE_WORD	n/a	n/a	RING	n/a	-999	-999	[0, 0, 0]	n/a	catFR1	0	R1176M
85.446	2.567	88746	PRACTICE_WORD	n/a	n/a	RHINO	n/a	-999	-999	[0, 0, 0]	n/a	catFR1	0	R1176M
88.013	2.467	90029	PRACTICE_WORD	n/a	n/a	CHEST	n/a	-999	-999	[0, 0, 0]	n/a	catFR1	0	R1176M
90.48	2.517	91262	PRACTICE_WORD	n/a	n/a	IRON	n/a	-999	-999	[0, 0, 0]	n/a	catFR1	0	R1176M
92.997	2.451	92521	PRACTICE_WORD	n/a	n/a	BEAM	n/a	-999	-999	[0, 0, 0]	n/a	catFR1	0	R1176M
95.448	2.567	93746	PRACTICE_WORD	n/a	n/a	TONGUE	n/a	-999	-999	[0, 0, 0]	n/a	catFR1	0	R1176M
98.015	1.617	95029	PRACTICE_WORD	n/a	n/a	WATCH	n/a	-999	-999	[0, 0, 0]	n/a	catFR1	0	R1176M
99.632	0.0	95838	PRACTICE_DISTRACT_START	n/a	n/a	n/a	n/a	-999	-999	[0, 0, 0]	n/a	catFR1	0	R1176M
99.632	0.016	95838	START	n/a	n/a	n/a	n/a	-999	-1	[-999, -999, -999]	n/a	catFR1	0	R1176M
99.648	4.068	95846	PROB	4.068	n/a	n/a	n/a	-999	-1	[6, 6, 7]	19	catFR1	0	R1176M
103.716	5.518	97880	PROB	5.518	n/a	n/a	n/a	-999	-1	[8, 4, 1]	13	catFR1	0	R1176M
109.234	2.95	100638	PROB	2.95	n/a	n/a	n/a	-999	-1	[3, 9, 8]	20	catFR1	0	R1176M
112.184	3.017	102113	PROB	3.017	n/a	n/a	n/a	-999	-1	[5, 1, 1]	7	catFR1	0	R1176M
115.201	5.182	103622	PROB	5.182	n/a	n/a	n/a	-999	-1	[6, 7, 7]	22	catFR1	0	R1176M
120.383	0.019	106212	STOP	n/a	n/a	n/a	n/a	-999	-1	[-999, -999, -999]	n/a	catFR1	0	R1176M
120.402	0.553	106222	PRACTICE_DISTRACT_END	n/a	n/a	n/a	n/a	-999	-999	[0, 0, 0]	n/a	catFR1	0	R1176M
120.955	30.514	106498	PRACTICE_REC_START	n/a	n/a	n/a	n/a	-999	-999	[0, 0, 0]	n/a	catFR1	0	R1176M
151.469	31.045	121754	PRACTICE_REC_END	n/a	n/a	n/a	n/a	-999	-999	[0, 0, 0]	n/a	catFR1	0	R1176M
182.514	0.001	137275	COUNTDOWN_START	n/a	n/a	n/a	n/a	-999	1	[0, 0, 0]	n/a	catFR1	0	R1176M
182.515	10.427	137275	TRIAL	n/a	n/a	n/a	n/a	-999	1	[0, 0, 0]	n/a	catFR1	0	R1176M
192.942	0.008	142488	COUNTDOWN_END	n/a	n/a	n/a	n/a	-999	1	[0, 0, 0]	n/a	catFR1	0	R1176M
192.95	3.617	142492	ORIENT	n/a	n/a	n/a	n/a	-999	1	[0, 0, 0]	n/a	catFR1	0	R1176M
196.567	2.467	144300	WORD	n/a	wordpools/wordpool_categorized_EN.txt	TONGS	KitchenTools	1	1	[0, 0, 0]	n/a	catFR1	0	R1176M
199.034	2.517	145534	WORD	n/a	wordpools/wordpool_categorized_EN.txt	STRAINER	KitchenTools	2	1	[0, 0, 0]	n/a	catFR1	0	R1176M
201.551	2.384	146792	WORD	n/a	wordpools/wordpool_categorized_EN.txt	PEAS	Vegetables	3	1	[0, 0, 0]	n/a	catFR1	0	R1176M
203.935	2.617	147984	WORD	n/a	wordpools/wordpool_categorized_EN.txt	CABBAGE	Vegetables	4	1	[0, 0, 0]	n/a	catFR1	0	R1176M
206.552	2.451	149292	WORD	n/a	wordpools/wordpool_categorized_EN.txt	PIG	FarmAnimals	5	1	[0, 0, 0]	n/a	catFR1	0	R1176M
209.003	2.6	150518	WORD	n/a	wordpools/wordpool_categorized_EN.txt	LAMB	FarmAnimals	6	1	[0, 0, 0]	n/a	catFR1	0	R1176M
211.603	2.501	151818	WORD	n/a	wordpools/wordpool_categorized_EN.txt	CARROT	Vegetables	7	1	[0, 0, 0]	n/a	catFR1	0	R1176M
214.104	2.417	153068	WORD	n/a	wordpools/wordpool_categorized_EN.txt	POTATO	Vegetables	8	1	[0, 0, 0]	n/a	catFR1	0	R1176M
216.521	2.517	154276	WORD	n/a	wordpools/wordpool_categorized_EN.txt	LADLE	KitchenTools	9	1	[0, 0, 0]	n/a	catFR1	0	R1176M
219.038	2.5	155535	WORD	n/a	wordpools/wordpool_categorized_EN.txt	KNIFE	KitchenTools	10	1	[0, 0, 0]	n/a	catFR1	0	R1176M
221.538	2.451	156785	WORD	n/a	wordpools/wordpool_categorized_EN.txt	ROOSTER	FarmAnimals	11	1	[0, 0, 0]	n/a	catFR1	0	R1176M
223.989	1.617	158010	WORD	n/a	wordpools/wordpool_categorized_EN.txt	CALF	FarmAnimals	12	1	[0, 0, 0]	n/a	catFR1	0	R1176M
225.606	0.001	158818	DISTRACT_START	n/a	n/a	n/a	n/a	-999	1	[0, 0, 0]	n/a	catFR1	0	R1176M
225.607	0.016	158819	START	n/a	n/a	n/a	n/a	-999	1	[-999, -999, -999]	n/a	catFR1	0	R1176M
225.623	3.034	158827	PROB	3.034	n/a	n/a	n/a	-999	1	[5, 6, 6]	17	catFR1	0	R1176M
228.657	2.683	160344	PROB	2.683	n/a	n/a	n/a	-999	1	[1, 7, 8]	15	catFR1	0	R1176M
231.34	2.618	161685	PROB	2.618	n/a	n/a	n/a	-999	1	[5, 3, 7]	15	catFR1	0	R1176M
233.958	3.75	162994	PROB	3.75	n/a	n/a	n/a	-999	1	[3, 7, 9]	19	catFR1	0	R1176M
237.708	4.183	164869	PROB	4.183	n/a	n/a	n/a	-999	1	[1, 2, 9]	11	catFR1	0	R1176M
241.891	3.875	166960	PROB	3.875	n/a	n/a	n/a	-999	1	[6, 8, 5]	16	catFR1	0	R1176M
245.766	0.01	168897	STOP	n/a	n/a	n/a	n/a	-999	1	[-999, -999, -999]	n/a	catFR1	0	R1176M
245.776	1.172	168902	DISTRACT_END	n/a	n/a	n/a	n/a	-999	1	[0, 0, 0]	n/a	catFR1	0	R1176M
246.948	2.401	169488	REC_START	n/a	n/a	n/a	n/a	-999	1	[0, 0, 0]	n/a	catFR1	0	R1176M
249.349	0.683	170689	REC_WORD	0.683	n/a	TONGS	KitchenTools	1	1	[0, 0, 0]	n/a	catFR1	0	R1176M
250.032	1.567	171030	REC_WORD	1.567	n/a	STRAINER	KitchenTools	2	1	[0, 0, 0]	n/a	catFR1	0	R1176M
251.599	1.118	171813	REC_WORD	1.118	n/a	PEAS	Vegetables	3	1	[0, 0, 0]	n/a	catFR1	0	R1176M
252.717	24.238	172372	REC_WORD	24.238	n/a	CABBAGE	Vegetables	4	1	[0, 0, 0]	n/a	catFR1	0	R1176M
276.955	16.597	184490	REC_END	n/a	n/a	n/a	n/a	-999	1	[0, 0, 0]	n/a	catFR1	0	R1176M
293.552	0.0	192788	TRIAL	n/a	n/a	n/a	n/a	-999	2	[0, 0, 0]	n/a	catFR1	0	R1176M
293.552	10.428	192788	COUNTDOWN_START	n/a	n/a	n/a	n/a	-999	2	[0, 0, 0]	n/a	catFR1	0	R1176M
303.98	0.008	198001	COUNTDOWN_END	n/a	n/a	n/a	n/a	-999	2	[0, 0, 0]	n/a	catFR1	0	R1176M
303.988	3.467	198005	ORIENT	n/a	n/a	n/a	n/a	-999	2	[0, 0, 0]	n/a	catFR1	0	R1176M
307.455	2.534	199739	WORD	n/a	wordpools/wordpool_categorized_EN.txt	GUITAR	Instruments	1	2	[0, 0, 0]	n/a	catFR1	0	R1176M
309.989	2.617	201005	WORD	n/a	wordpools/wordpool_categorized_EN.txt	TROMBONE	Instruments	2	2	[0, 0, 0]	n/a	catFR1	0	R1176M
312.606	2.45	202314	WORD	n/a	wordpools/wordpool_categorized_EN.txt	SPOON	KitchenTools	3	2	[0, 0, 0]	n/a	catFR1	0	R1176M
315.056	2.534	203539	WORD	n/a	wordpools/wordpool_categorized_EN.txt	WHISK	KitchenTools	4	2	[0, 0, 0]	n/a	catFR1	0	R1176M
317.59	2.451	204806	WORD	n/a	wordpools/wordpool_categorized_EN.txt	EAR	BodyParts	5	2	[0, 0, 0]	n/a	catFR1	0	R1176M
320.041	2.55	206031	WORD	n/a	wordpools/wordpool_categorized_EN.txt	LEG	BodyParts	6	2	[0, 0, 0]	n/a	catFR1	0	R1176M
322.591	2.401	207306	WORD	n/a	wordpools/wordpool_categorized_EN.txt	SPATULA	KitchenTools	7	2	[0, 0, 0]	n/a	catFR1	0	R1176M
324.992	2.617	208506	WORD	n/a	wordpools/wordpool_categorized_EN.txt	COLANDER	KitchenTools	8	2	[0, 0, 0]	n/a	catFR1	0	R1176M
327.609	2.6	209815	WORD	n/a	wordpools/wordpool_categorized_EN.txt	TUBA	Instruments	9	2	[0, 0, 0]	n/a	catFR1	0	R1176M
330.209	2.617	211114	WORD	n/a	wordpools/wordpool_categorized_EN.txt	BANJO	Instruments	10	2	[0, 0, 0]	n/a	catFR1	0	R1176M
332.826	2.468	212423	WORD	n/a	wordpools/wordpool_categorized_EN.txt	HEAD	BodyParts	11	2	[0, 0, 0]	n/a	catFR1	0	R1176M
335.294	1.616	213657	WORD	n/a	wordpools/wordpool_categorized_EN.txt	ARM	BodyParts	12	2	[0, 0, 0]	n/a	catFR1	0	R1176M
336.91	0.001	214465	DISTRACT_START	n/a	n/a	n/a	n/a	-999	2	[0, 0, 0]	n/a	catFR1	0	R1176M
336.911	0.015	214465	START	n/a	n/a	n/a	n/a	-999	2	[-999, -999, -999]	n/a	catFR1	0	R1176M
336.926	2.602	214473	PROB	2.602	n/a	n/a	n/a	-999	2	[6, 4, 9]	19	catFR1	0	R1176M
339.528	3.201	215773	PROB	3.201	n/a	n/a	n/a	-999	2	[3, 1, 3]	7	catFR1	0	R1176M
342.729	1.666	217374	PROB	1.666	n/a	n/a	n/a	-999	2	[2, 2, 8]	12	catFR1	0	R1176M
344.395	2.718	218207	PROB	2.718	n/a	n/a	n/a	-999	2	[5, 6, 7]	13	catFR1	0	R1176M
347.113	3.783	219566	PROB	3.783	n/a	n/a	n/a	-999	2	[3, 4, 9]	15	catFR1	0	R1176M
350.896	4.0	221457	PROB	4.0	n/a	n/a	n/a	-999	2	[6, 1, 3]	10	catFR1	0	R1176M
354.896	2.663	223457	PROB	2.663	n/a	n/a	n/a	-999	2	[4, 6, 1]	11	catFR1	0	R1176M
357.559	0.006	224788	STOP	n/a	n/a	n/a	n/a	-999	2	[-999, -999, -999]	n/a	catFR1	0	R1176M
357.565	1.117	224791	DISTRACT_END	n/a	n/a	n/a	n/a	-999	2	[0, 0, 0]	n/a	catFR1	0	R1176M
358.682	2.2	225349	REC_START	n/a	n/a	n/a	n/a	-999	2	[0, 0, 0]	n/a	catFR1	0	R1176M
360.882	1.073	226449	REC_WORD	1.073	n/a	GUITAR	Instruments	1	2	[0, 0, 0]	n/a	catFR1	0	R1176M
361.955	1.203	226986	REC_WORD	1.203	n/a	TROMBONE	Instruments	2	2	[0, 0, 0]	n/a	catFR1	0	R1176M
363.158	1.808	227587	REC_WORD	1.808	n/a	SPOON	KitchenTools	3	2	[0, 0, 0]	n/a	catFR1	0	R1176M
364.966	23.729	228491	REC_WORD	23.729	n/a	WHISK	KitchenTools	4	2	[0, 0, 0]	n/a	catFR1	0	R1176M
388.695	20.73	240354	REC_END	n/a	n/a	n/a	n/a	-999	2	[0, 0, 0]	n/a	catFR1	0	R1176M
409.425	0.0	250718	TRIAL	n/a	n/a	n/a	n/a	-999	3	[0, 0, 0]	n/a	catFR1	0	R1176M
409.425	10.428	250718	COUNTDOWN_START	n/a	n/a	n/a	n/a	-999	3	[0, 0, 0]	n/a	catFR1	0	R1176M
419.853	0.006	255932	COUNTDOWN_END	n/a	n/a	n/a	n/a	-999	3	[0, 0, 0]	n/a	catFR1	0	R1176M
419.859	3.618	255935	ORIENT	n/a	n/a	n/a	n/a	-999	3	[0, 0, 0]	n/a	catFR1	0	R1176M
423.477	2.551	257744	WORD	n/a	wordpools/wordpool_categorized_EN.txt	LION	Zoo	1	3	[0, 0, 0]	n/a	catFR1	0	R1176M
426.028	2.5	259019	WORD	n/a	wordpools/wordpool_categorized_EN.txt	GORILLA	Zoo	2	3	[0, 0, 0]	n/a	catFR1	0	R1176M
428.528	2.551	260269	WORD	n/a	wordpools/wordpool_categorized_EN.txt	HAMMER	Tools	3	3	[0, 0, 0]	n/a	catFR1	0	R1176M
431.079	2.484	261544	WORD	n/a	wordpools/wordpool_categorized_EN.txt	DRILL	Tools	4	3	[0, 0, 0]	n/a	catFR1	0	R1176M
433.563	2.45	262786	WORD	n/a	wordpools/wordpool_categorized_EN.txt	PRINTER	Electronics	5	3	[0, 0, 0]	n/a	catFR1	0	R1176M
436.013	2.551	264011	WORD	n/a	wordpools/wordpool_categorized_EN.txt	RADIO	Electronics	6	3	[0, 0, 0]	n/a	catFR1	0	R1176M
438.564	2.383	265286	WORD	n/a	wordpools/wordpool_categorized_EN.txt	CROWBAR	Tools	7	3	[0, 0, 0]	n/a	catFR1	0	R1176M
440.947	2.384	266478	WORD	n/a	wordpools/wordpool_categorized_EN.txt	SCREWDRIVER	Tools	8	3	[0, 0, 0]	n/a	catFR1	0	R1176M
443.331	2.566	267670	WORD	n/a	wordpools/wordpool_categorized_EN.txt	GIRAFFE	Zoo	9	3	[0, 0, 0]	n/a	catFR1	0	R1176M
445.897	2.368	268952	WORD	n/a	wordpools/wordpool_categorized_EN.txt	CHIMPANZEE	Zoo	10	3	[0, 0, 0]	n/a	catFR1	0	R1176M
448.265	2.434	270136	WORD	n/a	wordpools/wordpool_categorized_EN.txt	STEREO	Electronics	11	3	[0, 0, 0]	n/a	catFR1	0	R1176M
450.699	1.617	271353	WORD	n/a	wordpools/wordpool_categorized_EN.txt	PHONE	Electronics	12	3	[0, 0, 0]	n/a	catFR1	0	R1176M
452.316	0.001	272162	DISTRACT_START	n/a	n/a	n/a	n/a	-999	3	[0, 0, 0]	n/a	catFR1	0	R1176M
452.317	0.016	272162	START	n/a	n/a	n/a	n/a	-999	3	[-999, -999, -999]	n/a	catFR1	0	R1176M
452.333	3.667	272170	PROB	3.667	n/a	n/a	n/a	-999	3	[2, 1, 6]	7	catFR1	0	R1176M
456.0	2.084	274003	PROB	2.084	n/a	n/a	n/a	-999	3	[1, 3, 5]	9	catFR1	0	R1176M
458.084	2.25	275045	PROB	2.25	n/a	n/a	n/a	-999	3	[9, 5, 1]	15	catFR1	0	R1176M
460.334	2.284	276170	PROB	2.284	n/a	n/a	n/a	-999	3	[1, 9, 1]	11	catFR1	0	R1176M
462.618	3.133	277312	PROB	3.133	n/a	n/a	n/a	-999	3	[7, 7, 1]	15	catFR1	0	R1176M
465.751	3.084	278878	PROB	3.084	n/a	n/a	n/a	-999	3	[4, 4, 1]	9	catFR1	0	R1176M
468.835	3.385	280420	PROB	3.385	n/a	n/a	n/a	-999	3	[4, 4, 6]	14	catFR1	0	R1176M
472.22	3.147	282113	PROB	3.147	n/a	n/a	n/a	-999	3	[5, 3, 9]	16	catFR1	0	R1176M
475.367	0.003	283686	STOP	n/a	n/a	n/a	n/a	-999	3	[-999, -999, -999]	n/a	catFR1	0	R1176M
475.37	1.035	283687	DISTRACT_END	n/a	n/a	n/a	n/a	-999	3	[0, 0, 0]	n/a	catFR1	0	R1176M
476.405	1.867	284205	REC_START	n/a	n/a	n/a	n/a	-999	3	[0, 0, 0]	n/a	catFR1	0	R1176M
478.272	0.803	285138	REC_WORD	0.803	n/a	HAMMER	Tools	3	3	[0, 0, 0]	n/a	catFR1	0	R1176M
479.075	3.79	285540	REC_WORD	3.79	n/a	SCREW	n/a	-999	3	[0, 0, 0]	n/a	catFR1	0	R1176M
482.865	4.813	287435	REC_WORD	4.813	n/a	LION	Zoo	1	3	[0, 0, 0]	n/a	catFR1	0	R1176M
487.678	18.736	289841	REC_WORD	18.736	n/a	GIRAFFE	Zoo	9	3	[0, 0, 0]	n/a	catFR1	0	R1176M
506.414	31.052	299208	REC_END	n/a	n/a	n/a	n/a	-999	3	[0, 0, 0]	n/a	catFR1	0	R1176M
537.466	0.0	314732	TRIAL	n/a	n/a	n/a	n/a	-999	4	[0, 0, 0]	n/a	catFR1	0	R1176M
537.466	10.428	314732	COUNTDOWN_START	n/a	n/a	n/a	n/a	-999	4	[0, 0, 0]	n/a	catFR1	0	R1176M
547.894	0.006	319946	COUNTDOWN_END	n/a	n/a	n/a	n/a	-999	4	[0, 0, 0]	n/a	catFR1	0	R1176M
547.9	3.918	319949	ORIENT	n/a	n/a	n/a	n/a	-999	4	[0, 0, 0]	n/a	catFR1	0	R1176M
551.818	2.568	321908	WORD	n/a	wordpools/wordpool_categorized_EN.txt	TURTLE	OceanAnimals	1	4	[0, 0, 0]	n/a	catFR1	0	R1176M
554.386	2.449	323191	WORD	n/a	wordpools/wordpool_categorized_EN.txt	DOLPHIN	OceanAnimals	2	4	[0, 0, 0]	n/a	catFR1	0	R1176M
556.835	2.585	324416	WORD	n/a	wordpools/wordpool_categorized_EN.txt	EYE	BodyParts	3	4	[0, 0, 0]	n/a	catFR1	0	R1176M
559.42	2.567	325708	WORD	n/a	wordpools/wordpool_categorized_EN.txt	NOSE	BodyParts	4	4	[0, 0, 0]	n/a	catFR1	0	R1176M
561.987	2.517	326991	WORD	n/a	wordpools/wordpool_categorized_EN.txt	CHEESECAKE	Desserts	5	4	[0, 0, 0]	n/a	catFR1	0	R1176M
564.504	2.451	328250	WORD	n/a	wordpools/wordpool_categorized_EN.txt	FUDGE	Desserts	6	4	[0, 0, 0]	n/a	catFR1	0	R1176M
566.955	2.534	329475	WORD	n/a	wordpools/wordpool_categorized_EN.txt	CRAB	OceanAnimals	7	4	[0, 0, 0]	n/a	catFR1	0	R1176M
569.489	2.483	330742	WORD	n/a	wordpools/wordpool_categorized_EN.txt	SQUID	OceanAnimals	8	4	[0, 0, 0]	n/a	catFR1	0	R1176M
571.972	2.434	331983	WORD	n/a	wordpools/wordpool_categorized_EN.txt	PASTRY	Desserts	9	4	[0, 0, 0]	n/a	catFR1	0	R1176M
574.406	2.467	333200	WORD	n/a	wordpools/wordpool_categorized_EN.txt	JELLO	Desserts	10	4	[0, 0, 0]	n/a	catFR1	0	R1176M
576.873	2.384	334434	WORD	n/a	wordpools/wordpool_categorized_EN.txt	TOE	BodyParts	11	4	[0, 0, 0]	n/a	catFR1	0	R1176M
579.257	1.616	335626	WORD	n/a	wordpools/wordpool_categorized_EN.txt	KNEE	BodyParts	12	4	[0, 0, 0]	n/a	catFR1	0	R1176M
580.873	0.001	336434	DISTRACT_START	n/a	n/a	n/a	n/a	-999	4	[0, 0, 0]	n/a	catFR1	0	R1176M
580.874	0.016	336434	START	n/a	n/a	n/a	n/a	-999	4	[-999, -999, -999]	n/a	catFR1	0	R1176M
580.89	6.486	336442	PROB	6.486	n/a	n/a	n/a	-999	4	[8, 9, 9]	24	catFR1	0	R1176M
587.376	2.3	339685	PROB	2.3	n/a	n/a	n/a	-999	4	[5, 2, 8]	15	catFR1	0	R1176M
589.676	2.384	340835	PROB	2.384	n/a	n/a	n/a	-999	4	[8, 2, 8]	18	catFR1	0	R1176M
592.06	2.9	342026	PROB	2.9	n/a	n/a	n/a	-999	4	[1, 5, 7]	13	catFR1	0	R1176M
594.96	3.268	343476	PROB	3.268	n/a	n/a	n/a	-999	4	[2, 9, 8]	19	catFR1	0	R1176M
598.228	2.882	345110	PROB	2.882	n/a	n/a	n/a	-999	4	[2, 3, 4]	10	catFR1	0	R1176M
601.11	0.018	346551	STOP	n/a	n/a	n/a	n/a	-999	4	[-999, -999, -999]	n/a	catFR1	0	R1176M
601.128	1.218	346560	DISTRACT_END	n/a	n/a	n/a	n/a	-999	4	[0, 0, 0]	n/a	catFR1	0	R1176M
602.346	1.118	347169	REC_START	n/a	n/a	n/a	n/a	-999	4	[0, 0, 0]	n/a	catFR1	0	R1176M
603.464	0.849	347728	REC_WORD	0.849	n/a	TURTLE	OceanAnimals	1	4	[0, 0, 0]	n/a	catFR1	0	R1176M
604.313	2.044	348152	REC_WORD	2.044	n/a	DOLPHIN	OceanAnimals	2	4	[0, 0, 0]	n/a	catFR1	0	R1176M
606.357	3.027	349174	REC_WORD	3.027	n/a	EYE	BodyParts	3	4	[0, 0, 0]	n/a	catFR1	0	R1176M
609.384	0.578	350688	REC_WORD	0.578	n/a	NOSE	BodyParts	4	4	[0, 0, 0]	n/a	catFR1	0	R1176M
609.962	1.116	350977	REC_WORD	1.116	n/a	CHEESECAKE	Desserts	5	4	[0, 0, 0]	n/a	catFR1	0	R1176M
611.078	3.309	351534	REC_WORD	3.309	n/a	PASTRY	Desserts	9	4	[0, 0, 0]	n/a	catFR1	0	R1176M
614.387	17.97	353189	REC_WORD	17.97	n/a	TOE	BodyParts	11	4	[0, 0, 0]	n/a	catFR1	0	R1176M
632.357	9.212	362173	REC_END	n/a	n/a	n/a	n/a	-999	4	[0, 0, 0]	n/a	catFR1	0	R1176M
641.569	0.0	366778	TRIAL	n/a	n/a	n/a	n/a	-999	5	[0, 0, 0]	n/a	catFR1	0	R1176M
641.569	10.428	366778	COUNTDOWN_START	n/a	n/a	n/a	n/a	-999	5	[0, 0, 0]	n/a	catFR1	0	R1176M
651.997	0.008	371992	COUNTDOWN_END	n/a	n/a	n/a	n/a	-999	5	[0, 0, 0]	n/a	catFR1	0	R1176M
652.005	3.734	371996	ORIENT	n/a	n/a	n/a	n/a	-999	5	[0, 0, 0]	n/a	catFR1	0	R1176M
655.739	2.583	373863	WORD	n/a	wordpools/wordpool_categorized_EN.txt	PEELER	KitchenTools	1	5	[0, 0, 0]	n/a	catFR1	0	R1176M
658.322	2.583	375154	WORD	n/a	wordpools/wordpool_categorized_EN.txt	FORK	KitchenTools	2	5	[0, 0, 0]	n/a	catFR1	0	R1176M
660.905	2.452	376445	WORD	n/a	wordpools/wordpool_categorized_EN.txt	TOASTER	Appliances	3	5	[0, 0, 0]	n/a	catFR1	0	R1176M
663.357	2.399	377671	WORD	n/a	wordpools/wordpool_categorized_EN.txt	REFRIGERATOR	Appliances	4	5	[0, 0, 0]	n/a	catFR1	0	R1176M
665.756	2.402	378871	WORD	n/a	wordpools/wordpool_categorized_EN.txt	DRIZZLE	Weather	5	5	[0, 0, 0]	n/a	catFR1	0	R1176M
668.158	2.55	380072	WORD	n/a	wordpools/wordpool_categorized_EN.txt	FOG	Weather	6	5	[0, 0, 0]	n/a	catFR1	0	R1176M
670.708	2.467	381346	WORD	n/a	wordpools/wordpool_categorized_EN.txt	GRATER	KitchenTools	7	5	[0, 0, 0]	n/a	catFR1	0	R1176M
673.175	2.566	382580	WORD	n/a	wordpools/wordpool_categorized_EN.txt	CORKSCREW	KitchenTools	8	5	[0, 0, 0]	n/a	catFR1	0	R1176M
675.741	2.402	383863	WORD	n/a	wordpools/wordpool_categorized_EN.txt	RAIN	Weather	9	5	[0, 0, 0]	n/a	catFR1	0	R1176M
678.143	2.484	385064	WORD	n/a	wordpools/wordpool_categorized_EN.txt	HURRICANE	Weather	10	5	[0, 0, 0]	n/a	catFR1	0	R1176M
680.627	2.517	386305	WORD	n/a	wordpools/wordpool_categorized_EN.txt	IRON	Appliances	11	5	[0, 0, 0]	n/a	catFR1	0	R1176M
683.144	1.616	387564	WORD	n/a	wordpools/wordpool_categorized_EN.txt	BLENDER	Appliances	12	5	[0, 0, 0]	n/a	catFR1	0	R1176M
684.76	0.001	388372	DISTRACT_START	n/a	n/a	n/a	n/a	-999	5	[0, 0, 0]	n/a	catFR1	0	R1176M
684.761	0.016	388372	START	n/a	n/a	n/a	n/a	-999	5	[-999, -999, -999]	n/a	catFR1	0	R1176M
684.777	4.117	388380	PROB	4.117	n/a	n/a	n/a	-999	5	[6, 8, 2]	16	catFR1	0	R1176M
688.894	2.068	390438	PROB	2.068	n/a	n/a	n/a	-999	5	[7, 5, 3]	15	catFR1	0	R1176M
690.962	5.535	391472	PROB	5.535	n/a	n/a	n/a	-999	5	[3, 9, 5]	16	catFR1	0	R1176M
696.497	3.8	394240	PROB	3.8	n/a	n/a	n/a	-999	5	[6, 1, 9]	16	catFR1	0	R1176M
700.297	2.017	396139	PROB	2.017	n/a	n/a	n/a	-999	5	[5, 4, 1]	9	catFR1	0	R1176M
702.314	2.417	397148	PROB	2.417	n/a	n/a	n/a	-999	5	[5, 2, 4]	14	catFR1	0	R1176M
704.731	6.123	398356	PROB	6.123	n/a	n/a	n/a	-999	5	[5, 2, 4]	14	catFR1	0	R1176M
710.854	0.011	401417	STOP	n/a	n/a	n/a	n/a	-999	5	[-999, -999, -999]	n/a	catFR1	0	R1176M
710.865	1.218	401423	DISTRACT_END	n/a	n/a	n/a	n/a	-999	5	[0, 0, 0]	n/a	catFR1	0	R1176M
712.083	0.867	402032	REC_START	n/a	n/a	n/a	n/a	-999	5	[0, 0, 0]	n/a	catFR1	0	R1176M
712.95	0.848	402465	REC_WORD	0.848	n/a	PEELER	KitchenTools	1	5	[0, 0, 0]	n/a	catFR1	0	R1176M
713.798	1.457	402889	REC_WORD	1.457	n/a	TOASTER	Appliances	3	5	[0, 0, 0]	n/a	catFR1	0	R1176M
715.255	26.843	403618	REC_WORD	26.843	n/a	REFRIGERATOR	Appliances	4	5	[0, 0, 0]	n/a	catFR1	0	R1176M
742.098	32.28	417038	REC_END	n/a	n/a	n/a	n/a	-999	5	[0, 0, 0]	n/a	catFR1	0	R1176M
774.378	0.0	433176	TRIAL	n/a	n/a	n/a	n/a	-999	6	[0, 0, 0]	n/a	catFR1	0	R1176M
774.378	10.428	433176	COUNTDOWN_START	n/a	n/a	n/a	n/a	-999	6	[0, 0, 0]	n/a	catFR1	0	R1176M
784.806	0.006	438390	COUNTDOWN_END	n/a	n/a	n/a	n/a	-999	6	[0, 0, 0]	n/a	catFR1	0	R1176M
784.812	3.552	438393	ORIENT	n/a	n/a	n/a	n/a	-999	6	[0, 0, 0]	n/a	catFR1	0	R1176M
788.364	2.533	440168	WORD	n/a	wordpools/wordpool_categorized_EN.txt	CELERY	Vegetables	1	6	[0, 0, 0]	n/a	catFR1	0	R1176M
790.897	2.551	441435	WORD	n/a	wordpools/wordpool_categorized_EN.txt	BROCCOLI	Vegetables	2	6	[0, 0, 0]	n/a	catFR1	0	R1176M
793.448	2.601	442710	WORD	n/a	wordpools/wordpool_categorized_EN.txt	WHALE	OceanAnimals	3	6	[0, 0, 0]	n/a	catFR1	0	R1176M
796.049	2.617	444010	WORD	n/a	wordpools/wordpool_categorized_EN.txt	OYSTER	OceanAnimals	4	6	[0, 0, 0]	n/a	catFR1	0	R1176M
798.666	2.567	445319	WORD	n/a	wordpools/wordpool_categorized_EN.txt	PLUM	Fruit	5	6	[0, 0, 0]	n/a	catFR1	0	R1176M
801.233	2.484	446602	WORD	n/a	wordpools/wordpool_categorized_EN.txt	LEMON	Fruit	6	6	[0, 0, 0]	n/a	catFR1	0	R1176M
803.717	2.567	447844	WORD	n/a	wordpools/wordpool_categorized_EN.txt	LOBSTER	OceanAnimals	7	6	[0, 0, 0]	n/a	catFR1	0	R1176M
806.284	2.466	449127	WORD	n/a	wordpools/wordpool_categorized_EN.txt	PLANKTON	OceanAnimals	8	6	[0, 0, 0]	n/a	catFR1	0	R1176M
808.75	2.385	450360	WORD	n/a	wordpools/wordpool_categorized_EN.txt	CAULIFLOWER	Vegetables	9	6	[0, 0, 0]	n/a	catFR1	0	R1176M
811.135	2.601	451553	WORD	n/a	wordpools/wordpool_categorized_EN.txt	ONION	Vegetables	10	6	[0, 0, 0]	n/a	catFR1	0	R1176M
813.736	2.6	452853	WORD	n/a	wordpools/wordpool_categorized_EN.txt	APPLE	Fruit	11	6	[0, 0, 0]	n/a	catFR1	0	R1176M
816.336	1.617	454153	WORD	n/a	wordpools/wordpool_categorized_EN.txt	CHERRY	Fruit	12	6	[0, 0, 0]	n/a	catFR1	0	R1176M
817.953	0.001	454961	DISTRACT_START	n/a	n/a	n/a	n/a	-999	6	[0, 0, 0]	n/a	catFR1	0	R1176M
817.954	0.016	454962	START	n/a	n/a	n/a	n/a	-999	6	[-999, -999, -999]	n/a	catFR1	0	R1176M
817.97	2.584	454970	PROB	2.584	n/a	n/a	n/a	-999	6	[2, 1, 9]	12	catFR1	0	R1176M
820.554	2.332	456262	PROB	2.332	n/a	n/a	n/a	-999	6	[5, 6, 4]	15	catFR1	0	R1176M
822.886	2.502	457428	PROB	2.502	n/a	n/a	n/a	-999	6	[1, 9, 9]	19	catFR1	0	R1176M
825.388	3.284	458678	PROB	3.284	n/a	n/a	n/a	-999	6	[7, 4, 2]	12	catFR1	0	R1176M
828.672	4.034	460320	PROB	4.034	n/a	n/a	n/a	-999	6	[1, 6, 9]	15	catFR1	0	R1176M
832.706	7.245	462337	PROB	7.245	n/a	n/a	n/a	-999	6	[3, 9, 3]	15	catFR1	0	R1176M
839.951	0.006	465959	STOP	n/a	n/a	n/a	n/a	-999	6	[-999, -999, -999]	n/a	catFR1	0	R1176M
839.957	1.151	465962	DISTRACT_END	n/a	n/a	n/a	n/a	-999	6	[0, 0, 0]	n/a	catFR1	0	R1176M
841.108	0.631	466538	REC_START	n/a	n/a	n/a	n/a	-999	6	[0, 0, 0]	n/a	catFR1	0	R1176M
841.739	1.372	466853	REC_WORD	1.372	n/a	CELERY	Vegetables	1	6	[0, 0, 0]	n/a	catFR1	0	R1176M
843.111	1.416	467539	REC_WORD	1.416	n/a	BROCCOLI	Vegetables	2	6	[0, 0, 0]	n/a	catFR1	0	R1176M
844.527	1.04	468247	REC_WORD	1.04	n/a	PLUM	Fruit	5	6	[0, 0, 0]	n/a	catFR1	0	R1176M
845.567	1.267	468767	REC_WORD	1.267	n/a	CAULIFLOWER	Vegetables	9	6	[0, 0, 0]	n/a	catFR1	0	R1176M
846.834	1.284	469400	REC_WORD	1.284	n/a	CELERY	Vegetables	1	6	[0, 0, 0]	n/a	catFR1	0	R1176M
848.118	23.005	470042	REC_WORD	23.005	n/a	WHALE	OceanAnimals	3	6	[0, 0, 0]	n/a	catFR1	0	R1176M
871.123	38.247	481544	REC_END	n/a	n/a	n/a	n/a	-999	6	[0, 0, 0]	n/a	catFR1	0	R1176M
909.37	0.001	500665	COUNTDOWN_START	n/a	n/a	n/a	n/a	-999	7	[0, 0, 0]	n/a	catFR1	0	R1176M
909.371	10.427	500666	TRIAL	n/a	n/a	n/a	n/a	-999	7	[0, 0, 0]	n/a	catFR1	0	R1176M
919.798	0.007	505879	COUNTDOWN_END	n/a	n/a	n/a	n/a	-999	7	[0, 0, 0]	n/a	catFR1	0	R1176M
919.805	3.552	505882	ORIENT	n/a	n/a	n/a	n/a	-999	7	[0, 0, 0]	n/a	catFR1	0	R1176M
923.357	2.466	507658	WORD	n/a	wordpools/wordpool_categorized_EN.txt	LIME	Fruit	1	7	[0, 0, 0]	n/a	catFR1	0	R1176M
925.823	2.485	508891	WORD	n/a	wordpools/wordpool_categorized_EN.txt	ORANGE	Fruit	2	7	[0, 0, 0]	n/a	catFR1	0	R1176M
928.308	2.499	510133	WORD	n/a	wordpools/wordpool_categorized_EN.txt	COBBLER	Desserts	3	7	[0, 0, 0]	n/a	catFR1	0	R1176M
930.807	2.585	511382	WORD	n/a	wordpools/wordpool_categorized_EN.txt	CUPCAKE	Desserts	4	7	[0, 0, 0]	n/a	catFR1	0	R1176M
933.392	2.499	512675	WORD	n/a	wordpools/wordpool_categorized_EN.txt	THUNDER	Weather	5	7	[0, 0, 0]	n/a	catFR1	0	R1176M
935.891	2.435	513924	WORD	n/a	wordpools/wordpool_categorized_EN.txt	WIND	Weather	6	7	[0, 0, 0]	n/a	catFR1	0	R1176M
938.326	2.433	515142	WORD	n/a	wordpools/wordpool_categorized_EN.txt	MOUSSE	Desserts	7	7	[0, 0, 0]	n/a	catFR1	0	R1176M
940.759	2.502	516358	WORD	n/a	wordpools/wordpool_categorized_EN.txt	PUDDING	Desserts	8	7	[0, 0, 0]	n/a	catFR1	0	R1176M
943.261	2.516	517609	WORD	n/a	wordpools/wordpool_categorized_EN.txt	GRAPE	Fruit	9	7	[0, 0, 0]	n/a	catFR1	0	R1176M
945.777	2.485	518867	WORD	n/a	wordpools/wordpool_categorized_EN.txt	BLUEBERRY	Fruit	10	7	[0, 0, 0]	n/a	catFR1	0	R1176M
948.262	2.549	520109	WORD	n/a	wordpools/wordpool_categorized_EN.txt	TORNADO	Weather	11	7	[0, 0, 0]	n/a	catFR1	0	R1176M
950.811	1.618	521383	WORD	n/a	wordpools/wordpool_categorized_EN.txt	THUNDERSTORM	Weather	12	7	[0, 0, 0]	n/a	catFR1	0	R1176M
952.429	0.001	522192	DISTRACT_START	n/a	n/a	n/a	n/a	-999	7	[0, 0, 0]	n/a	catFR1	0	R1176M
952.43	0.016	522193	START	n/a	n/a	n/a	n/a	-999	7	[-999, -999, -999]	n/a	catFR1	0	R1176M
952.446	2.399	522201	PROB	2.399	n/a	n/a	n/a	-999	7	[2, 9, 1]	12	catFR1	0	R1176M
954.845	2.852	523400	PROB	2.852	n/a	n/a	n/a	-999	7	[8, 1, 8]	17	catFR1	0	R1176M
957.697	3.567	524826	PROB	3.567	n/a	n/a	n/a	-999	7	[5, 6, 8]	18	catFR1	0	R1176M
961.264	3.434	526609	PROB	3.434	n/a	n/a	n/a	-999	7	[8, 7, 7]	25	catFR1	0	R1176M
964.698	3.2	528326	PROB	3.2	n/a	n/a	n/a	-999	7	[9, 9, 7]	25	catFR1	0	R1176M
967.898	4.285	529926	PROB	4.285	n/a	n/a	n/a	-999	7	[1, 6, 9]	16	catFR1	0	R1176M
972.183	3.12	532068	PROB	3.12	n/a	n/a	n/a	-999	7	[3, 6, 7]	16	catFR1	0	R1176M
975.303	0.014	533628	STOP	n/a	n/a	n/a	n/a	-999	7	[-999, -999, -999]	n/a	catFR1	0	R1176M
975.317	1.151	533635	DISTRACT_END	n/a	n/a	n/a	n/a	-999	7	[0, 0, 0]	n/a	catFR1	0	R1176M
976.468	0.719	534211	REC_START	n/a	n/a	n/a	n/a	-999	7	[0, 0, 0]	n/a	catFR1	0	R1176M
977.187	1.12	534570	REC_WORD	1.12	n/a	LIME	Fruit	1	7	[0, 0, 0]	n/a	catFR1	0	R1176M
978.307	1.596	535130	REC_WORD	1.596	n/a	ORANGE	Fruit	2	7	[0, 0, 0]	n/a	catFR1	0	R1176M
979.903	1.495	535928	REC_WORD	1.495	n/a	CUPCAKE	Desserts	4	7	[0, 0, 0]	n/a	catFR1	0	R1176M
981.398	1.594	536675	REC_WORD	1.594	n/a	THUNDER	Weather	5	7	[0, 0, 0]	n/a	catFR1	0	R1176M
982.992	6.058	537472	REC_WORD	6.058	n/a	WIND	Weather	6	7	[0, 0, 0]	n/a	catFR1	0	R1176M
989.05	17.429	540501	REC_WORD	17.429	n/a	THUNDERSTORM	Weather	12	7	[0, 0, 0]	n/a	catFR1	0	R1176M
1006.479	19.914	549215	REC_END	n/a	n/a	n/a	n/a	-999	7	[0, 0, 0]	n/a	catFR1	0	R1176M
1026.393	0.0	559171	TRIAL	n/a	n/a	n/a	n/a	-999	8	[0, 0, 0]	n/a	catFR1	0	R1176M
1026.393	10.428	559171	COUNTDOWN_START	n/a	n/a	n/a	n/a	-999	8	[0, 0, 0]	n/a	catFR1	0	R1176M
1036.821	0.007	564384	COUNTDOWN_END	n/a	n/a	n/a	n/a	-999	8	[0, 0, 0]	n/a	catFR1	0	R1176M
1036.828	3.635	564388	ORIENT	n/a	n/a	n/a	n/a	-999	8	[0, 0, 0]	n/a	catFR1	0	R1176M
1040.463	2.55	566205	WORD	n/a	wordpools/wordpool_categorized_EN.txt	BEETLE	Insects	1	8	[0, 0, 0]	n/a	catFR1	0	R1176M
1043.013	2.484	567480	WORD	n/a	wordpools/wordpool_categorized_EN.txt	CRICKET	Insects	2	8	[0, 0, 0]	n/a	catFR1	0	R1176M
1045.497	2.416	568722	WORD	n/a	wordpools/wordpool_categorized_EN.txt	DRESSER	Furniture	3	8	[0, 0, 0]	n/a	catFR1	0	R1176M
1047.913	2.535	569929	WORD	n/a	wordpools/wordpool_categorized_EN.txt	CABINET	Furniture	4	8	[0, 0, 0]	n/a	catFR1	0	R1176M
1050.448	2.383	571197	WORD	n/a	wordpools/wordpool_categorized_EN.txt	PETUNIA	Flowers	5	8	[0, 0, 0]	n/a	catFR1	0	R1176M
1052.831	2.401	572388	WORD	n/a	wordpools/wordpool_categorized_EN.txt	DAISY	Flowers	6	8	[0, 0, 0]	n/a	catFR1	0	R1176M
1055.232	2.583	573589	WORD	n/a	wordpools/wordpool_categorized_EN.txt	COUCH	Furniture	7	8	[0, 0, 0]	n/a	catFR1	0	R1176M
1057.815	2.451	574880	WORD	n/a	wordpools/wordpool_categorized_EN.txt	CHAIR	Furniture	8	8	[0, 0, 0]	n/a	catFR1	0	R1176M
1060.266	2.533	576105	WORD	n/a	wordpools/wordpool_categorized_EN.txt	BEE	Insects	9	8	[0, 0, 0]	n/a	catFR1	0	R1176M
1062.799	2.485	577372	WORD	n/a	wordpools/wordpool_categorized_EN.txt	GNAT	Insects	10	8	[0, 0, 0]	n/a	catFR1	0	R1176M
1065.284	2.516	578614	WORD	n/a	wordpools/wordpool_categorized_EN.txt	LILY	Flowers	11	8	[0, 0, 0]	n/a	catFR1	0	R1176M
1067.8	1.618	579872	WORD	n/a	wordpools/wordpool_categorized_EN.txt	ORCHID	Flowers	12	8	[0, 0, 0]	n/a	catFR1	0	R1176M
1069.418	0.001	580681	DISTRACT_START	n/a	n/a	n/a	n/a	-999	8	[0, 0, 0]	n/a	catFR1	0	R1176M
1069.419	0.016	580681	START	n/a	n/a	n/a	n/a	-999	8	[-999, -999, -999]	n/a	catFR1	0	R1176M
1069.435	4.951	580689	PROB	4.951	n/a	n/a	n/a	-999	8	[1, 6, 7]	14	catFR1	0	R1176M
1074.386	3.334	583165	PROB	3.334	n/a	n/a	n/a	-999	8	[7, 1, 5]	13	catFR1	0	R1176M
1077.72	2.95	584831	PROB	2.95	n/a	n/a	n/a	-999	8	[7, 7, 7]	21	catFR1	0	R1176M
1080.67	3.784	586306	PROB	3.784	n/a	n/a	n/a	-999	8	[1, 7, 5]	13	catFR1	0	R1176M
1084.454	3.367	588198	PROB	3.367	n/a	n/a	n/a	-999	8	[8, 3, 9]	20	catFR1	0	R1176M
1087.821	4.977	589881	PROB	4.977	n/a	n/a	n/a	-999	8	[4, 2, 7]	14	catFR1	0	R1176M
1092.798	0.007	592370	STOP	n/a	n/a	n/a	n/a	-999	8	[-999, -999, -999]	n/a	catFR1	0	R1176M
1092.805	1.202	592373	DISTRACT_END	n/a	n/a	n/a	n/a	-999	8	[0, 0, 0]	n/a	catFR1	0	R1176M
1094.007	1.394	592974	REC_START	n/a	n/a	n/a	n/a	-999	8	[0, 0, 0]	n/a	catFR1	0	R1176M
1095.401	1.491	593671	REC_WORD	1.491	n/a	BEETLE	Insects	1	8	[0, 0, 0]	n/a	catFR1	0	R1176M
1096.892	0.938	594416	REC_WORD	0.938	n/a	CRICKET	Insects	2	8	[0, 0, 0]	n/a	catFR1	0	R1176M
1097.83	3.851	594885	REC_WORD	3.851	n/a	DRESSER	Furniture	3	8	[0, 0, 0]	n/a	catFR1	0	R1176M
1101.681	1.583	596811	REC_WORD	1.583	n/a	COUCH	Furniture	7	8	[0, 0, 0]	n/a	catFR1	0	R1176M
1103.264	1.099	597602	REC_WORD	1.099	n/a	PETUNIA	Flowers	5	8	[0, 0, 0]	n/a	catFR1	0	R1176M
1104.363	0.997	598152	REC_WORD	0.997	n/a	LILY	Flowers	11	8	[0, 0, 0]	n/a	catFR1	0	R1176M
1105.36	18.657	598650	REC_WORD	18.657	n/a	DAISY	Flowers	6	8	[0, 0, 0]	n/a	catFR1	0	R1176M
1124.017	29.9	607978	REC_END	n/a	n/a	n/a	n/a	-999	8	[0, 0, 0]	n/a	catFR1	0	R1176M
1153.917	0.0	622926	COUNTDOWN_START	n/a	n/a	n/a	n/a	-999	9	[0, 0, 0]	n/a	catFR1	0	R1176M
1153.917	10.428	622926	TRIAL	n/a	n/a	n/a	n/a	-999	9	[0, 0, 0]	n/a	catFR1	0	R1176M
1164.345	0.008	628139	COUNTDOWN_END	n/a	n/a	n/a	n/a	-999	9	[0, 0, 0]	n/a	catFR1	0	R1176M
1164.353	3.801	628143	ORIENT	n/a	n/a	n/a	n/a	-999	9	[0, 0, 0]	n/a	catFR1	0	R1176M
1168.154	2.616	630044	WORD	n/a	wordpools/wordpool_categorized_EN.txt	COOKIE	Desserts	1	9	[0, 0, 0]	n/a	catFR1	0	R1176M
1170.77	2.451	631352	WORD	n/a	wordpools/wordpool_categorized_EN.txt	CAKE	Desserts	2	9	[0, 0, 0]	n/a	catFR1	0	R1176M
1173.221	2.567	632577	WORD	n/a	wordpools/wordpool_categorized_EN.txt	SOCKS	Clothing	3	9	[0, 0, 0]	n/a	catFR1	0	R1176M
1175.788	2.618	633860	WORD	n/a	wordpools/wordpool_categorized_EN.txt	SHOES	Clothing	4	9	[0, 0, 0]	n/a	catFR1	0	R1176M
1178.406	2.416	635169	WORD	n/a	wordpools/wordpool_categorized_EN.txt	TELEVISION	Electronics	5	9	[0, 0, 0]	n/a	catFR1	0	R1176M
1180.822	2.485	636377	WORD	n/a	wordpools/wordpool_categorized_EN.txt	COMPUTER	Electronics	6	9	[0, 0, 0]	n/a	catFR1	0	R1176M
1183.307	2.599	637619	WORD	n/a	wordpools/wordpool_categorized_EN.txt	BROWNIES	Desserts	7	9	[0, 0, 0]	n/a	catFR1	0	R1176M
1185.906	2.518	638919	WORD	n/a	wordpools/wordpool_categorized_EN.txt	PIE	Desserts	8	9	[0, 0, 0]	n/a	catFR1	0	R1176M
1188.424	2.417	640178	WORD	n/a	wordpools/wordpool_categorized_EN.txt	CALCULATOR	Electronics	9	9	[0, 0, 0]	n/a	catFR1	0	R1176M
1190.841	2.484	641386	WORD	n/a	wordpools/wordpool_categorized_EN.txt	TABLET	Electronics	10	9	[0, 0, 0]	n/a	catFR1	0	R1176M
1193.325	2.517	642628	WORD	n/a	wordpools/wordpool_categorized_EN.txt	DRESS	Clothing	11	9	[0, 0, 0]	n/a	catFR1	0	R1176M
1195.842	1.617	643886	WORD	n/a	wordpools/wordpool_categorized_EN.txt	COAT	Clothing	12	9	[0, 0, 0]	n/a	catFR1	0	R1176M
1197.459	0.001	644695	DISTRACT_START	n/a	n/a	n/a	n/a	-999	9	[0, 0, 0]	n/a	catFR1	0	R1176M
1197.46	0.016	644695	START	n/a	n/a	n/a	n/a	-999	9	[-999, -999, -999]	n/a	catFR1	0	R1176M
1197.476	6.4	644703	PROB	6.4	n/a	n/a	n/a	-999	9	[9, 2, 5]	16	catFR1	0	R1176M
1203.876	2.202	647903	PROB	2.202	n/a	n/a	n/a	-999	9	[3, 9, 7]	19	catFR1	0	R1176M
1206.078	3.234	649004	PROB	3.234	n/a	n/a	n/a	-999	9	[8, 3, 9]	20	catFR1	0	R1176M
1209.312	4.234	650621	PROB	4.234	n/a	n/a	n/a	-999	9	[5, 7, 4]	16	catFR1	0	R1176M
1213.546	3.501	652737	PROB	3.501	n/a	n/a	n/a	-999	9	[4, 7, 4]	16	catFR1	0	R1176M
1217.047	2.528	654488	PROB	2.528	n/a	n/a	n/a	-999	9	[7, 4, 2]	14	catFR1	0	R1176M
1219.575	0.005	655752	STOP	n/a	n/a	n/a	n/a	-999	9	[-999, -999, -999]	n/a	catFR1	0	R1176M
1219.58	1.126	655754	DISTRACT_END	n/a	n/a	n/a	n/a	-999	9	[0, 0, 0]	n/a	catFR1	0	R1176M
1220.706	1.497	656317	REC_START	n/a	n/a	n/a	n/a	-999	9	[0, 0, 0]	n/a	catFR1	0	R1176M
1222.203	0.927	657065	REC_WORD	0.927	n/a	COOKIE	Desserts	1	9	[0, 0, 0]	n/a	catFR1	0	R1176M
1223.13	0.981	657529	REC_WORD	0.981	n/a	CAKE	Desserts	2	9	[0, 0, 0]	n/a	catFR1	0	R1176M
1224.111	0.974	658019	REC_WORD	0.974	n/a	SOCKS	Clothing	3	9	[0, 0, 0]	n/a	catFR1	0	R1176M
1225.085	1.71	658506	REC_WORD	1.71	n/a	SHOES	Clothing	4	9	[0, 0, 0]	n/a	catFR1	0	R1176M
1226.795	2.21	659361	REC_WORD	2.21	n/a	TELEVISION	Electronics	5	9	[0, 0, 0]	n/a	catFR1	0	R1176M
1229.005	21.704	660466	REC_WORD	21.704	n/a	BROWNIES	Desserts	7	9	[0, 0, 0]	n/a	catFR1	0	R1176M
1250.709	13.33	671317	REC_END	n/a	n/a	n/a	n/a	-999	9	[0, 0, 0]	n/a	catFR1	0	R1176M
1264.039	0.0	677981	TRIAL	n/a	n/a	n/a	n/a	-999	10	[0, 0, 0]	n/a	catFR1	0	R1176M
1264.039	10.428	677981	COUNTDOWN_START	n/a	n/a	n/a	n/a	-999	10	[0, 0, 0]	n/a	catFR1	0	R1176M
1274.467	0.007	683195	COUNTDOWN_END	n/a	n/a	n/a	n/a	-999	10	[0, 0, 0]	n/a	catFR1	0	R1176M
1274.474	3.484	683198	ORIENT	n/a	n/a	n/a	n/a	-999	10	[0, 0, 0]	n/a	catFR1	0	R1176M
1277.958	2.451	684940	WORD	n/a	wordpools/wordpool_categorized_EN.txt	WRENCH	Tools	1	10	[0, 0, 0]	n/a	catFR1	0	R1176M
1280.409	2.449	686165	WORD	n/a	wordpools/wordpool_categorized_EN.txt	SANDER	Tools	2	10	[0, 0, 0]	n/a	catFR1	0	R1176M
1282.858	2.602	687390	WORD	n/a	wordpools/wordpool_categorized_EN.txt	VAN	Vehicles	3	10	[0, 0, 0]	n/a	catFR1	0	R1176M
1285.46	2.6	688691	WORD	n/a	wordpools/wordpool_categorized_EN.txt	BUS	Vehicles	4	10	[0, 0, 0]	n/a	catFR1	0	R1176M
1288.06	2.601	689991	WORD	n/a	wordpools/wordpool_categorized_EN.txt	STAPLER	OfficeSupplies	5	10	[0, 0, 0]	n/a	catFR1	0	R1176M
1290.661	2.467	691291	WORD	n/a	wordpools/wordpool_categorized_EN.txt	FOLDER	OfficeSupplies	6	10	[0, 0, 0]	n/a	catFR1	0	R1176M
1293.128	2.434	692524	WORD	n/a	wordpools/wordpool_categorized_EN.txt	RATCHET	Tools	7	10	[0, 0, 0]	n/a	catFR1	0	R1176M
1295.562	2.417	693741	WORD	n/a	wordpools/wordpool_categorized_EN.txt	AXE	Tools	8	10	[0, 0, 0]	n/a	catFR1	0	R1176M
1297.979	2.6	694950	WORD	n/a	wordpools/wordpool_categorized_EN.txt	RULER	OfficeSupplies	9	10	[0, 0, 0]	n/a	catFR1	0	R1176M
1300.579	2.451	696249	WORD	n/a	wordpools/wordpool_categorized_EN.txt	PENCIL	OfficeSupplies	10	10	[0, 0, 0]	n/a	catFR1	0	R1176M
1303.03	2.55	697475	WORD	n/a	wordpools/wordpool_categorized_EN.txt	MOTORCYCLE	Vehicles	11	10	[0, 0, 0]	n/a	catFR1	0	R1176M
1305.58	1.617	698750	WORD	n/a	wordpools/wordpool_categorized_EN.txt	TRAIN	Vehicles	12	10	[0, 0, 0]	n/a	catFR1	0	R1176M
1307.197	0.001	699558	DISTRACT_START	n/a	n/a	n/a	n/a	-999	10	[0, 0, 0]	n/a	catFR1	0	R1176M
1307.198	0.016	699559	START	n/a	n/a	n/a	n/a	-999	10	[-999, -999, -999]	n/a	catFR1	0	R1176M
1307.214	3.951	699567	PROB	3.951	n/a	n/a	n/a	-999	10	[2, 7, 8]	18	catFR1	0	R1176M
1311.165	2.732	701542	PROB	2.732	n/a	n/a	n/a	-999	10	[5, 2, 8]	15	catFR1	0	R1176M
1313.897	3.152	702908	PROB	3.152	n/a	n/a	n/a	-999	10	[4, 8, 4]	16	catFR1	0	R1176M
1317.049	3.234	704484	PROB	3.234	n/a	n/a	n/a	-999	10	[1, 6, 7]	14	catFR1	0	R1176M
1320.283	5.517	706100	PROB	5.517	n/a	n/a	n/a	-999	10	[8, 9, 2]	19	catFR1	0	R1176M
1325.8	2.415	708859	PROB	2.415	n/a	n/a	n/a	-999	10	[1, 2, 5]	8	catFR1	0	R1176M
1328.215	0.02	710066	STOP	n/a	n/a	n/a	n/a	-999	10	[-999, -999, -999]	n/a	catFR1	0	R1176M
1328.235	1.042	710076	DISTRACT_END	n/a	n/a	n/a	n/a	-999	10	[0, 0, 0]	n/a	catFR1	0	R1176M
1329.277	2.782	710597	REC_START	n/a	n/a	n/a	n/a	-999	10	[0, 0, 0]	n/a	catFR1	0	R1176M
1332.059	0.869	711988	REC_WORD	0.869	n/a	AXE	Tools	8	10	[0, 0, 0]	n/a	catFR1	0	R1176M
1332.928	2.476	712422	REC_WORD	2.476	n/a	WRENCH	Tools	1	10	[0, 0, 0]	n/a	catFR1	0	R1176M
1335.404	18.075	713660	REC_WORD	18.075	n/a	MOTORCYCLE	Vehicles	11	10	[0, 0, 0]	n/a	catFR1	0	R1176M
1353.479	5.801	722697	REC_WORD	5.801	n/a	SANDER	Tools	2	10	[0, 0, 0]	n/a	catFR1	0	R1176M
1359.28	47.736	725597	REC_END	n/a	n/a	n/a	n/a	-999	10	[0, 0, 0]	n/a	catFR1	0	R1176M
1407.016	0.001	749462	COUNTDOWN_START	n/a	n/a	n/a	n/a	-999	11	[0, 0, 0]	n/a	catFR1	0	R1176M
1407.017	10.427	749463	TRIAL	n/a	n/a	n/a	n/a	-999	11	[0, 0, 0]	n/a	catFR1	0	R1176M
1417.444	0.008	754676	COUNTDOWN_END	n/a	n/a	n/a	n/a	-999	11	[0, 0, 0]	n/a	catFR1	0	R1176M
1417.452	3.567	754680	ORIENT	n/a	n/a	n/a	n/a	-999	11	[0, 0, 0]	n/a	catFR1	0	R1176M
1421.019	2.401	756463	WORD	n/a	wordpools/wordpool_categorized_EN.txt	BIKE	Vehicles	1	11	[0, 0, 0]	n/a	catFR1	0	R1176M
1423.42	2.382	757664	WORD	n/a	wordpools/wordpool_categorized_EN.txt	MOPED	Vehicles	2	11	[0, 0, 0]	n/a	catFR1	0	R1176M
1425.802	2.385	758854	WORD	n/a	wordpools/wordpool_categorized_EN.txt	LIGHTNING	Weather	3	11	[0, 0, 0]	n/a	catFR1	0	R1176M
1428.187	2.6	760047	WORD	n/a	wordpools/wordpool_categorized_EN.txt	HUMIDITY	Weather	4	11	[0, 0, 0]	n/a	catFR1	0	R1176M
1430.787	2.484	761347	WORD	n/a	wordpools/wordpool_categorized_EN.txt	BEACH	Landscapes	5	11	[0, 0, 0]	n/a	catFR1	0	R1176M
1433.271	2.517	762589	WORD	n/a	wordpools/wordpool_categorized_EN.txt	LAKE	Landscapes	6	11	[0, 0, 0]	n/a	catFR1	0	R1176M
1435.788	2.518	763847	WORD	n/a	wordpools/wordpool_categorized_EN.txt	SCOOTER	Vehicles	7	11	[0, 0, 0]	n/a	catFR1	0	R1176M
1438.306	2.449	765106	WORD	n/a	wordpools/wordpool_categorized_EN.txt	PLANE	Vehicles	8	11	[0, 0, 0]	n/a	catFR1	0	R1176M
1440.755	2.535	766330	WORD	n/a	wordpools/wordpool_categorized_EN.txt	STREAM	Landscapes	9	11	[0, 0, 0]	n/a	catFR1	0	R1176M
1443.29	2.483	767598	WORD	n/a	wordpools/wordpool_categorized_EN.txt	FOREST	Landscapes	10	11	[0, 0, 0]	n/a	catFR1	0	R1176M
1445.773	2.418	768839	WORD	n/a	wordpools/wordpool_categorized_EN.txt	CLOUD	Weather	11	11	[0, 0, 0]	n/a	catFR1	0	R1176M
1448.191	1.616	770048	WORD	n/a	wordpools/wordpool_categorized_EN.txt	SNOW	Weather	12	11	[0, 0, 0]	n/a	catFR1	0	R1176M
1449.807	0.001	770856	DISTRACT_START	n/a	n/a	n/a	n/a	-999	11	[0, 0, 0]	n/a	catFR1	0	R1176M
1449.808	0.016	770856	START	n/a	n/a	n/a	n/a	-999	11	[-999, -999, -999]	n/a	catFR1	0	R1176M
1449.824	3.05	770864	PROB	3.05	n/a	n/a	n/a	-999	11	[2, 9, 3]	13	catFR1	0	R1176M
1452.874	1.967	772389	PROB	1.967	n/a	n/a	n/a	-999	11	[1, 3, 5]	9	catFR1	0	R1176M
1454.841	3.068	773372	PROB	3.068	n/a	n/a	n/a	-999	11	[1, 6, 2]	9	catFR1	0	R1176M
1457.909	2.584	774906	PROB	2.584	n/a	n/a	n/a	-999	11	[9, 9, 1]	19	catFR1	0	R1176M
1460.493	2.168	776198	PROB	2.168	n/a	n/a	n/a	-999	11	[4, 2, 6]	14	catFR1	0	R1176M
1462.661	2.232	777282	PROB	2.232	n/a	n/a	n/a	-999	11	[2, 1, 1]	4	catFR1	0	R1176M
1464.893	2.017	778398	PROB	2.017	n/a	n/a	n/a	-999	11	[5, 5, 1]	11	catFR1	0	R1176M
1466.91	2.952	779406	PROB	2.952	n/a	n/a	n/a	-999	11	[2, 4, 2]	8	catFR1	0	R1176M
1469.862	0.016	780882	STOP	n/a	n/a	n/a	n/a	-999	11	[-999, -999, -999]	n/a	catFR1	0	R1176M
1469.878	1.135	780890	DISTRACT_END	n/a	n/a	n/a	n/a	-999	11	[0, 0, 0]	n/a	catFR1	0	R1176M
1471.013	1.043	781458	REC_START	n/a	n/a	n/a	n/a	-999	11	[0, 0, 0]	n/a	catFR1	0	R1176M
1472.056	0.983	781979	REC_WORD	0.983	n/a	BIKE	Vehicles	1	11	[0, 0, 0]	n/a	catFR1	0	R1176M
1473.039	2.025	782471	REC_WORD	2.025	n/a	MOPED	Vehicles	2	11	[0, 0, 0]	n/a	catFR1	0	R1176M
1475.064	13.452	783483	REC_WORD	13.452	n/a	HUMIDITY	Weather	4	11	[0, 0, 0]	n/a	catFR1	0	R1176M
1488.516	7.893	790208	REC_WORD	7.893	n/a	MOTORCYCLE	n/a	-999	11	[0, 0, 0]	n/a	catFR1	0	R1176M
1496.409	1.313	794154	REC_WORD	1.313	n/a	BEACH	Landscapes	5	11	[0, 0, 0]	n/a	catFR1	0	R1176M
1497.722	3.302	794811	REC_WORD	3.302	n/a	LAKE	Landscapes	6	11	[0, 0, 0]	n/a	catFR1	0	R1176M
1501.024	23.999	796462	REC_END	n/a	n/a	n/a	n/a	-999	11	[0, 0, 0]	n/a	catFR1	0	R1176M
1525.023	0.0	808460	TRIAL	n/a	n/a	n/a	n/a	-999	12	[0, 0, 0]	n/a	catFR1	0	R1176M
1525.023	10.428	808460	COUNTDOWN_START	n/a	n/a	n/a	n/a	-999	12	[0, 0, 0]	n/a	catFR1	0	R1176M
1535.451	0.007	813673	COUNTDOWN_END	n/a	n/a	n/a	n/a	-999	12	[0, 0, 0]	n/a	catFR1	0	R1176M
1535.458	3.884	813677	ORIENT	n/a	n/a	n/a	n/a	-999	12	[0, 0, 0]	n/a	catFR1	0	R1176M
1539.342	2.449	815619	WORD	n/a	wordpools/wordpool_categorized_EN.txt	FLOOR	Building	1	12	[0, 0, 0]	n/a	catFR1	0	R1176M
1541.791	2.585	816843	WORD	n/a	wordpools/wordpool_categorized_EN.txt	WALL	Building	2	12	[0, 0, 0]	n/a	catFR1	0	R1176M
1544.376	2.416	818135	WORD	n/a	wordpools/wordpool_categorized_EN.txt	SHEEP	FarmAnimals	3	12	[0, 0, 0]	n/a	catFR1	0	R1176M
1546.792	2.519	819343	WORD	n/a	wordpools/wordpool_categorized_EN.txt	BULL	FarmAnimals	4	12	[0, 0, 0]	n/a	catFR1	0	R1176M
1549.311	2.466	820603	WORD	n/a	wordpools/wordpool_categorized_EN.txt	DRUM	Instruments	5	12	[0, 0, 0]	n/a	catFR1	0	R1176M
1551.777	2.551	821835	WORD	n/a	wordpools/wordpool_categorized_EN.txt	BASS	Instruments	6	12	[0, 0, 0]	n/a	catFR1	0	R1176M
1554.328	2.6	823111	WORD	n/a	wordpools/wordpool_categorized_EN.txt	CHICKEN	FarmAnimals	7	12	[0, 0, 0]	n/a	catFR1	0	R1176M
1556.928	2.451	824411	WORD	n/a	wordpools/wordpool_categorized_EN.txt	HEN	FarmAnimals	8	12	[0, 0, 0]	n/a	catFR1	0	R1176M
1559.379	2.617	825636	WORD	n/a	wordpools/wordpool_categorized_EN.txt	ROOF	Building	9	12	[0, 0, 0]	n/a	catFR1	0	R1176M
1561.996	2.484	826944	WORD	n/a	wordpools/wordpool_categorized_EN.txt	ROOM	Building	10	12	[0, 0, 0]	n/a	catFR1	0	R1176M
1564.48	2.6	828186	WORD	n/a	wordpools/wordpool_categorized_EN.txt	TRUMPET	Instruments	11	12	[0, 0, 0]	n/a	catFR1	0	R1176M
1567.08	1.618	829486	WORD	n/a	wordpools/wordpool_categorized_EN.txt	CELLO	Instruments	12	12	[0, 0, 0]	n/a	catFR1	0	R1176M
1568.698	0.001	830295	DISTRACT_START	n/a	n/a	n/a	n/a	-999	12	[0, 0, 0]	n/a	catFR1	0	R1176M
1568.699	0.015	830296	START	n/a	n/a	n/a	n/a	-999	12	[-999, -999, -999]	n/a	catFR1	0	R1176M
1568.714	3.017	830303	PROB	3.017	n/a	n/a	n/a	-999	12	[1, 6, 5]	12	catFR1	0	R1176M
1571.731	2.384	831811	PROB	2.384	n/a	n/a	n/a	-999	12	[6, 3, 8]	17	catFR1	0	R1176M
1574.115	3.051	833003	PROB	3.051	n/a	n/a	n/a	-999	12	[7, 2, 4]	14	catFR1	0	R1176M
1577.166	3.616	834529	PROB	3.616	n/a	n/a	n/a	-999	12	[6, 8, 5]	16	catFR1	0	R1176M
1580.782	3.585	836336	PROB	3.585	n/a	n/a	n/a	-999	12	[7, 5, 9]	21	catFR1	0	R1176M
1584.367	2.284	838129	PROB	2.284	n/a	n/a	n/a	-999	12	[1, 5, 1]	7	catFR1	0	R1176M
1586.651	3.66	839271	PROB	3.66	n/a	n/a	n/a	-999	12	[8, 3, 3]	14	catFR1	0	R1176M
1590.311	0.007	841100	STOP	n/a	n/a	n/a	n/a	-999	12	[-999, -999, -999]	n/a	catFR1	0	R1176M
1590.318	1.185	841104	DISTRACT_END	n/a	n/a	n/a	n/a	-999	12	[0, 0, 0]	n/a	catFR1	0	R1176M
1591.503	0.732	841696	REC_START	n/a	n/a	n/a	n/a	-999	12	[0, 0, 0]	n/a	catFR1	0	R1176M
1592.235	0.949	842062	REC_WORD	0.949	n/a	FLOOR	Building	1	12	[0, 0, 0]	n/a	catFR1	0	R1176M
1593.184	2.756	842537	REC_WORD	2.756	n/a	WALL	Building	2	12	[0, 0, 0]	n/a	catFR1	0	R1176M
1595.94	1.521	843915	REC_WORD	1.521	n/a	SHEEP	FarmAnimals	3	12	[0, 0, 0]	n/a	catFR1	0	R1176M
1597.461	3.831	844675	REC_WORD	3.831	n/a	CHICKEN	FarmAnimals	7	12	[0, 0, 0]	n/a	catFR1	0	R1176M
1601.292	5.514	846590	REC_WORD	5.514	n/a	ROOF	Building	9	12	[0, 0, 0]	n/a	catFR1	0	R1176M
1606.806	3.625	849347	REC_WORD	3.625	n/a	CELLO	Instruments	12	12	[0, 0, 0]	n/a	catFR1	0	R1176M
1610.431	11.083	851159	REC_WORD	11.083	n/a	TRUMPET	Instruments	11	12	[0, 0, 0]	n/a	catFR1	0	R1176M
1621.514	36.768	856700	REC_END	n/a	n/a	n/a	n/a	-999	12	[0, 0, 0]	n/a	catFR1	0	R1176M
1658.282	0.0	875082	COUNTDOWN_START	n/a	n/a	n/a	n/a	-999	13	[0, 0, 0]	n/a	catFR1	0	R1176M
1658.282	10.428	875082	TRIAL	n/a	n/a	n/a	n/a	-999	13	[0, 0, 0]	n/a	catFR1	0	R1176M
1668.71	0.007	880296	COUNTDOWN_END	n/a	n/a	n/a	n/a	-999	13	[0, 0, 0]	n/a	catFR1	0	R1176M
1668.717	3.934	880299	ORIENT	n/a	n/a	n/a	n/a	-999	13	[0, 0, 0]	n/a	catFR1	0	R1176M
1672.651	2.5	882266	WORD	n/a	wordpools/wordpool_categorized_EN.txt	OAK	Trees	1	13	[0, 0, 0]	n/a	catFR1	0	R1176M
1675.151	2.584	883516	WORD	n/a	wordpools/wordpool_categorized_EN.txt	PINE	Trees	2	13	[0, 0, 0]	n/a	catFR1	0	R1176M
1677.735	2.617	884808	WORD	n/a	wordpools/wordpool_categorized_EN.txt	MICROWAVE	Electronics	3	13	[0, 0, 0]	n/a	catFR1	0	R1176M
1680.352	2.384	886116	WORD	n/a	wordpools/wordpool_categorized_EN.txt	SPEAKER	Electronics	4	13	[0, 0, 0]	n/a	catFR1	0	R1176M
1682.736	2.584	887308	WORD	n/a	wordpools/wordpool_categorized_EN.txt	MARBLES	Toys	5	13	[0, 0, 0]	n/a	catFR1	0	R1176M
1685.32	2.384	888600	WORD	n/a	wordpools/wordpool_categorized_EN.txt	PUZZLE	Toys	6	13	[0, 0, 0]	n/a	catFR1	0	R1176M
1687.704	2.467	889792	WORD	n/a	wordpools/wordpool_categorized_EN.txt	CEDAR	Trees	7	13	[0, 0, 0]	n/a	catFR1	0	R1176M
1690.171	2.616	891025	WORD	n/a	wordpools/wordpool_categorized_EN.txt	SPRUCE	Trees	8	13	[0, 0, 0]	n/a	catFR1	0	R1176M
1692.787	2.568	892333	WORD	n/a	wordpools/wordpool_categorized_EN.txt	BLOCKS	Toys	9	13	[0, 0, 0]	n/a	catFR1	0	R1176M
1695.355	2.384	893617	WORD	n/a	wordpools/wordpool_categorized_EN.txt	DOLLHOUSE	Toys	10	13	[0, 0, 0]	n/a	catFR1	0	R1176M
1697.739	2.434	894809	WORD	n/a	wordpools/wordpool_categorized_EN.txt	SCANNER	Electronics	11	13	[0, 0, 0]	n/a	catFR1	0	R1176M
1700.173	1.616	896026	WORD	n/a	wordpools/wordpool_categorized_EN.txt	HEADPHONES	Electronics	12	13	[0, 0, 0]	n/a	catFR1	0	R1176M
1701.789	0.001	896834	DISTRACT_START	n/a	n/a	n/a	n/a	-999	13	[0, 0, 0]	n/a	catFR1	0	R1176M
1701.79	0.015	896834	START	n/a	n/a	n/a	n/a	-999	13	[-999, -999, -999]	n/a	catFR1	0	R1176M
1701.805	4.502	896842	PROB	4.502	n/a	n/a	n/a	-999	13	[6, 3, 6]	14	catFR1	0	R1176M
1706.307	3.45	899092	PROB	3.45	n/a	n/a	n/a	-999	13	[9, 3, 2]	14	catFR1	0	R1176M
1709.757	3.718	900817	PROB	3.718	n/a	n/a	n/a	-999	13	[6, 5, 2]	11	catFR1	0	R1176M
1713.475	3.168	902676	PROB	3.168	n/a	n/a	n/a	-999	13	[4, 8, 6]	18	catFR1	0	R1176M
1716.643	3.517	904260	PROB	3.517	n/a	n/a	n/a	-999	13	[6, 8, 4]	18	catFR1	0	R1176M
1720.16	4.559	906018	PROB	4.559	n/a	n/a	n/a	-999	13	[1, 2, 6]	9	catFR1	0	R1176M
1724.719	0.009	908298	STOP	n/a	n/a	n/a	n/a	-999	13	[-999, -999, -999]	n/a	catFR1	0	R1176M
1724.728	1.116	908302	DISTRACT_END	n/a	n/a	n/a	n/a	-999	13	[0, 0, 0]	n/a	catFR1	0	R1176M
1725.844	1.118	908860	REC_START	n/a	n/a	n/a	n/a	-999	13	[0, 0, 0]	n/a	catFR1	0	R1176M
1726.962	1.348	909419	REC_WORD	1.348	n/a	OAK	Trees	1	13	[0, 0, 0]	n/a	catFR1	0	R1176M
1728.31	1.399	910093	REC_WORD	1.399	n/a	PINE	Trees	2	13	[0, 0, 0]	n/a	catFR1	0	R1176M
1729.709	3.143	910792	REC_WORD	3.143	n/a	MICROWAVE	Electronics	3	13	[0, 0, 0]	n/a	catFR1	0	R1176M
1732.852	2.2	912364	REC_WORD	2.2	n/a	SPRUCE	Trees	8	13	[0, 0, 0]	n/a	catFR1	0	R1176M
1735.052	3.564	913464	REC_WORD	3.564	n/a	CEDAR	Trees	7	13	[0, 0, 0]	n/a	catFR1	0	R1176M
1738.616	5.438	915245	REC_WORD	5.438	n/a	HEADPHONES	Electronics	12	13	[0, 0, 0]	n/a	catFR1	0	R1176M
1744.054	11.801	917964	REC_WORD	11.801	n/a	RADIO	n/a	-999	13	[0, 0, 0]	n/a	catFR1	0	R1176M
1755.855	36.619	923864	REC_END	n/a	n/a	n/a	n/a	-999	13	[0, 0, 0]	n/a	catFR1	0	R1176M
1792.474	0.0	942172	TRIAL	n/a	n/a	n/a	n/a	-999	14	[0, 0, 0]	n/a	catFR1	0	R1176M
1792.474	10.428	942172	COUNTDOWN_START	n/a	n/a	n/a	n/a	-999	14	[0, 0, 0]	n/a	catFR1	0	R1176M
1802.902	0.006	947385	COUNTDOWN_END	n/a	n/a	n/a	n/a	-999	14	[0, 0, 0]	n/a	catFR1	0	R1176M
1802.908	3.602	947388	ORIENT	n/a	n/a	n/a	n/a	-999	14	[0, 0, 0]	n/a	catFR1	0	R1176M
1806.51	2.55	949189	WORD	n/a	wordpools/wordpool_categorized_EN.txt	BASEBALL	Toys	1	14	[0, 0, 0]	n/a	catFR1	0	R1176M
1809.06	2.418	950464	WORD	n/a	wordpools/wordpool_categorized_EN.txt	DOLL	Toys	2	14	[0, 0, 0]	n/a	catFR1	0	R1176M
1811.478	2.517	951673	WORD	n/a	wordpools/wordpool_categorized_EN.txt	DUCK	Birds	3	14	[0, 0, 0]	n/a	catFR1	0	R1176M
1813.995	2.45	952931	WORD	n/a	wordpools/wordpool_categorized_EN.txt	BLUEBIRD	Birds	4	14	[0, 0, 0]	n/a	catFR1	0	R1176M
1816.445	2.617	954156	WORD	n/a	wordpools/wordpool_categorized_EN.txt	BOOKCASE	Furniture	5	14	[0, 0, 0]	n/a	catFR1	0	R1176M
1819.062	2.584	955464	WORD	n/a	wordpools/wordpool_categorized_EN.txt	BED	Furniture	6	14	[0, 0, 0]	n/a	catFR1	0	R1176M
1821.646	2.567	956756	WORD	n/a	wordpools/wordpool_categorized_EN.txt	FRISBEE	Toys	7	14	[0, 0, 0]	n/a	catFR1	0	R1176M
1824.213	2.417	958039	WORD	n/a	wordpools/wordpool_categorized_EN.txt	BALL	Toys	8	14	[0, 0, 0]	n/a	catFR1	0	R1176M
1826.63	2.618	959248	WORD	n/a	wordpools/wordpool_categorized_EN.txt	DESK	Furniture	9	14	[0, 0, 0]	n/a	catFR1	0	R1176M
1829.248	2.582	960557	WORD	n/a	wordpools/wordpool_categorized_EN.txt	SHELF	Furniture	10	14	[0, 0, 0]	n/a	catFR1	0	R1176M
1831.83	2.435	961848	WORD	n/a	wordpools/wordpool_categorized_EN.txt	HAWK	Birds	11	14	[0, 0, 0]	n/a	catFR1	0	R1176M
1834.265	1.616	963065	WORD	n/a	wordpools/wordpool_categorized_EN.txt	SPARROW	Birds	12	14	[0, 0, 0]	n/a	catFR1	0	R1176M
1835.881	0.001	963873	DISTRACT_START	n/a	n/a	n/a	n/a	-999	14	[0, 0, 0]	n/a	catFR1	0	R1176M
1835.882	0.016	963873	START	n/a	n/a	n/a	n/a	-999	14	[-999, -999, -999]	n/a	catFR1	0	R1176M
1835.898	3.652	963881	PROB	3.652	n/a	n/a	n/a	-999	14	[9, 9, 3]	15	catFR1	0	R1176M
1839.55	3.75	965707	PROB	3.75	n/a	n/a	n/a	-999	14	[4, 8, 4]	16	catFR1	0	R1176M
1843.3	1.967	967582	PROB	1.967	n/a	n/a	n/a	-999	14	[4, 4, 1]	9	catFR1	0	R1176M
1845.267	2.184	968565	PROB	2.184	n/a	n/a	n/a	-999	14	[3, 4, 6]	13	catFR1	0	R1176M
1847.451	3.851	969657	PROB	3.851	n/a	n/a	n/a	-999	14	[5, 2, 6]	13	catFR1	0	R1176M
1851.302	2.784	971583	PROB	2.784	n/a	n/a	n/a	-999	14	[1, 8, 5]	14	catFR1	0	R1176M
1854.086	2.744	972974	PROB	2.744	n/a	n/a	n/a	-999	14	[3, 1, 1]	5	catFR1	0	R1176M
1856.83	0.005	974346	STOP	n/a	n/a	n/a	n/a	-999	14	[-999, -999, -999]	n/a	catFR1	0	R1176M
1856.835	1.185	974349	DISTRACT_END	n/a	n/a	n/a	n/a	-999	14	[0, 0, 0]	n/a	catFR1	0	R1176M
1858.02	2.21	974941	REC_START	n/a	n/a	n/a	n/a	-999	14	[0, 0, 0]	n/a	catFR1	0	R1176M
1860.23	1.249	976046	REC_WORD	1.249	n/a	BASEBALL	Toys	1	14	[0, 0, 0]	n/a	catFR1	0	R1176M
1861.479	1.527	976670	REC_WORD	1.527	n/a	DOLL	Toys	2	14	[0, 0, 0]	n/a	catFR1	0	R1176M
1863.006	24.03	977434	REC_WORD	24.03	n/a	DUCK	Birds	3	14	[0, 0, 0]	n/a	catFR1	0	R1176M
1887.036	0.996	989448	REC_WORD	0.996	n/a	BALL	Toys	8	14	[0, 0, 0]	n/a	catFR1	0	R1176M
1888.032	882.446	989946	REC_END	n/a	n/a	n/a	n/a	-999	14	[0, 0, 0]	n/a	catFR1	0	R1176M
2770.478	0.001	1431123	COUNTDOWN_START	n/a	n/a	n/a	n/a	-999	15	[0, 0, 0]	n/a	catFR1	0	R1176M
2770.479	10.427	1431124	TRIAL	n/a	n/a	n/a	n/a	-999	15	[0, 0, 0]	n/a	catFR1	0	R1176M
2780.906	0.007	1436337	COUNTDOWN_END	n/a	n/a	n/a	n/a	-999	15	[0, 0, 0]	n/a	catFR1	0	R1176M
2780.913	3.818	1436340	ORIENT	n/a	n/a	n/a	n/a	-999	15	[0, 0, 0]	n/a	catFR1	0	R1176M
2784.731	2.45	1438249	WORD	n/a	wordpools/wordpool_categorized_EN.txt	SODA	Beverages	1	15	[0, 0, 0]	n/a	catFR1	0	R1176M
2787.181	2.418	1439474	WORD	n/a	wordpools/wordpool_categorized_EN.txt	WINE	Beverages	2	15	[0, 0, 0]	n/a	catFR1	0	R1176M
2789.599	2.567	1440683	WORD	n/a	wordpools/wordpool_categorized_EN.txt	OCEAN	Landscapes	3	15	[0, 0, 0]	n/a	catFR1	0	R1176M
2792.166	2.616	1441966	WORD	n/a	wordpools/wordpool_categorized_EN.txt	WOODS	Landscapes	4	15	[0, 0, 0]	n/a	catFR1	0	R1176M
2794.782	2.418	1443274	WORD	n/a	wordpools/wordpool_categorized_EN.txt	GOOSE	Birds	5	15	[0, 0, 0]	n/a	catFR1	0	R1176M
2797.2	2.501	1444483	WORD	n/a	wordpools/wordpool_categorized_EN.txt	DOVE	Birds	6	15	[0, 0, 0]	n/a	catFR1	0	R1176M
2799.701	2.617	1445733	WORD	n/a	wordpools/wordpool_categorized_EN.txt	WATER	Beverages	7	15	[0, 0, 0]	n/a	catFR1	0	R1176M
2802.318	2.4	1447041	WORD	n/a	wordpools/wordpool_categorized_EN.txt	MILK	Beverages	8	15	[0, 0, 0]	n/a	catFR1	0	R1176M
2804.718	2.484	1448241	WORD	n/a	wordpools/wordpool_categorized_EN.txt	PIGEON	Birds	9	15	[0, 0, 0]	n/a	catFR1	0	R1176M
2807.202	2.616	1449483	WORD	n/a	wordpools/wordpool_categorized_EN.txt	CROW	Birds	10	15	[0, 0, 0]	n/a	catFR1	0	R1176M
2809.818	2.435	1450791	WORD	n/a	wordpools/wordpool_categorized_EN.txt	RIVER	Landscapes	11	15	[0, 0, 0]	n/a	catFR1	0	R1176M
2812.253	1.616	1452008	WORD	n/a	wordpools/wordpool_categorized_EN.txt	ISLAND	Landscapes	12	15	[0, 0, 0]	n/a	catFR1	0	R1176M
2813.869	0.001	1452816	DISTRACT_START	n/a	n/a	n/a	n/a	-999	15	[0, 0, 0]	n/a	catFR1	0	R1176M
2813.87	0.016	1452817	START	n/a	n/a	n/a	n/a	-999	15	[-999, -999, -999]	n/a	catFR1	0	R1176M
2813.886	4.435	1452825	PROB	4.435	n/a	n/a	n/a	-999	15	[1, 8, 3]	12	catFR1	0	R1176M
2818.321	4.134	1455042	PROB	4.134	n/a	n/a	n/a	-999	15	[2, 7, 8]	17	catFR1	0	R1176M
2822.455	3.251	1457109	PROB	3.251	n/a	n/a	n/a	-999	15	[8, 3, 1]	11	catFR1	0	R1176M
2825.706	2.234	1458734	PROB	2.234	n/a	n/a	n/a	-999	15	[5, 1, 2]	8	catFR1	0	R1176M
2827.94	3.35	1459851	PROB	3.35	n/a	n/a	n/a	-999	15	[7, 5, 7]	19	catFR1	0	R1176M
2831.29	2.773	1461526	PROB	2.773	n/a	n/a	n/a	-999	15	[6, 1, 2]	18	catFR1	0	R1176M
2834.063	0.011	1462912	STOP	n/a	n/a	n/a	n/a	-999	15	[-999, -999, -999]	n/a	catFR1	0	R1176M
2834.074	1.184	1462918	DISTRACT_END	n/a	n/a	n/a	n/a	-999	15	[0, 0, 0]	n/a	catFR1	0	R1176M
2835.258	0.826	1463510	REC_START	n/a	n/a	n/a	n/a	-999	15	[0, 0, 0]	n/a	catFR1	0	R1176M
2836.084	1.496	1463923	REC_WORD	1.496	n/a	SODA	Beverages	1	15	[0, 0, 0]	n/a	catFR1	0	R1176M
2837.58	3.476	1464671	REC_WORD	3.476	n/a	OCEAN	Landscapes	3	15	[0, 0, 0]	n/a	catFR1	0	R1176M
2841.056	11.216	1466408	REC_WORD	11.216	n/a	RIVER	Landscapes	11	15	[0, 0, 0]	n/a	catFR1	0	R1176M
2852.272	12.998	1472016	REC_WORD	12.998	n/a	DUCK	n/a	-999	15	[0, 0, 0]	n/a	catFR1	0	R1176M
2865.27	431.126	1478514	REC_END	n/a	n/a	n/a	n/a	-999	15	[0, 0, 0]	n/a	catFR1	0	R1176M
3296.396	0.001	1694055	COUNTDOWN_START	n/a	n/a	n/a	n/a	-999	16	[0, 0, 0]	n/a	catFR1	0	R1176M
3296.397	10.427	1694056	TRIAL	n/a	n/a	n/a	n/a	-999	16	[0, 0, 0]	n/a	catFR1	0	R1176M
3306.824	0.007	1699268	COUNTDOWN_END	n/a	n/a	n/a	n/a	-999	16	[0, 0, 0]	n/a	catFR1	0	R1176M
3306.831	3.601	1699272	ORIENT	n/a	n/a	n/a	n/a	-999	16	[0, 0, 0]	n/a	catFR1	0	R1176M
3310.432	2.433	1701072	WORD	n/a	wordpools/wordpool_categorized_EN.txt	UNDERWEAR	Clothing	1	16	[0, 0, 0]	n/a	catFR1	0	R1176M
3312.865	2.618	1702289	WORD	n/a	wordpools/wordpool_categorized_EN.txt	SKIRT	Clothing	2	16	[0, 0, 0]	n/a	catFR1	0	R1176M
3315.483	2.467	1703598	WORD	n/a	wordpools/wordpool_categorized_EN.txt	PAPER	OfficeSupplies	3	16	[0, 0, 0]	n/a	catFR1	0	R1176M
3317.95	2.584	1704831	WORD	n/a	wordpools/wordpool_categorized_EN.txt	MARKER	OfficeSupplies	4	16	[0, 0, 0]	n/a	catFR1	0	R1176M
3320.534	2.617	1706123	WORD	n/a	wordpools/wordpool_categorized_EN.txt	SOFA	Furniture	5	16	[0, 0, 0]	n/a	catFR1	0	R1176M
3323.151	2.518	1707431	WORD	n/a	wordpools/wordpool_categorized_EN.txt	RECLINER	Furniture	6	16	[0, 0, 0]	n/a	catFR1	0	R1176M
3325.669	2.433	1708690	WORD	n/a	wordpools/wordpool_categorized_EN.txt	NOTEBOOK	OfficeSupplies	7	16	[0, 0, 0]	n/a	catFR1	0	R1176M
3328.102	2.501	1709906	WORD	n/a	wordpools/wordpool_categorized_EN.txt	ERASER	OfficeSupplies	8	16	[0, 0, 0]	n/a	catFR1	0	R1176M
3330.603	2.617	1711157	WORD	n/a	wordpools/wordpool_categorized_EN.txt	JEANS	Clothing	9	16	[0, 0, 0]	n/a	catFR1	0	R1176M
3333.22	2.417	1712465	WORD	n/a	wordpools/wordpool_categorized_EN.txt	BLOUSE	Clothing	10	16	[0, 0, 0]	n/a	catFR1	0	R1176M
3335.637	2.551	1713673	WORD	n/a	wordpools/wordpool_categorized_EN.txt	NIGHTSTAND	Furniture	11	16	[0, 0, 0]	n/a	catFR1	0	R1176M
3338.188	1.616	1714949	WORD	n/a	wordpools/wordpool_categorized_EN.txt	TABLE	Furniture	12	16	[0, 0, 0]	n/a	catFR1	0	R1176M
3339.804	0.001	1715757	DISTRACT_START	n/a	n/a	n/a	n/a	-999	16	[0, 0, 0]	n/a	catFR1	0	R1176M
3339.805	0.015	1715757	START	n/a	n/a	n/a	n/a	-999	16	[-999, -999, -999]	n/a	catFR1	0	R1176M
3339.82	2.718	1715765	PROB	2.718	n/a	n/a	n/a	-999	16	[9, 1, 8]	18	catFR1	0	R1176M
3342.538	3.518	1717124	PROB	3.518	n/a	n/a	n/a	-999	16	[2, 8, 7]	17	catFR1	0	R1176M
3346.056	3.05	1718882	PROB	3.05	n/a	n/a	n/a	-999	16	[5, 9, 5]	19	catFR1	0	R1176M
3349.106	3.783	1720407	PROB	3.783	n/a	n/a	n/a	-999	16	[1, 1, 7]	9	catFR1	0	R1176M
3352.889	4.836	1722299	PROB	4.836	n/a	n/a	n/a	-999	16	[4, 3, 4]	11	catFR1	0	R1176M
3357.725	2.578	1724716	PROB	2.578	n/a	n/a	n/a	-999	16	[7, 4, 5]	16	catFR1	0	R1176M
3360.303	0.006	1726005	STOP	n/a	n/a	n/a	n/a	-999	16	[-999, -999, -999]	n/a	catFR1	0	R1176M
3360.309	1.034	1726008	DISTRACT_END	n/a	n/a	n/a	n/a	-999	16	[0, 0, 0]	n/a	catFR1	0	R1176M
3361.343	1.378	1726525	REC_START	n/a	n/a	n/a	n/a	-999	16	[0, 0, 0]	n/a	catFR1	0	R1176M
3362.721	0.981	1727214	REC_WORD	0.981	n/a	UNDERWEAR	Clothing	1	16	[0, 0, 0]	n/a	catFR1	0	R1176M
3363.702	2.054	1727705	REC_WORD	2.054	n/a	RECLINER	Furniture	6	16	[0, 0, 0]	n/a	catFR1	0	R1176M
3365.756	17.155	1728731	REC_WORD	17.155	n/a	SOFA	Furniture	5	16	[0, 0, 0]	n/a	catFR1	0	R1176M
3382.911	4.011	1737308	REC_WORD	4.011	n/a	SKIRT	Clothing	2	16	[0, 0, 0]	n/a	catFR1	0	R1176M
3386.922	4.431	1739313	REC_WORD	4.431	n/a	BEDROOM	n/a	-999	16	[0, 0, 0]	n/a	catFR1	0	R1176M
3391.353	21.565	1741529	REC_END	n/a	n/a	n/a	n/a	-999	16	[0, 0, 0]	n/a	catFR1	0	R1176M
3412.918	0.0	1752310	COUNTDOWN_START	n/a	n/a	n/a	n/a	-999	17	[0, 0, 0]	n/a	catFR1	0	R1176M
3412.918	10.428	1752310	TRIAL	n/a	n/a	n/a	n/a	-999	17	[0, 0, 0]	n/a	catFR1	0	R1176M
3423.346	0.008	1757523	COUNTDOWN_END	n/a	n/a	n/a	n/a	-999	17	[0, 0, 0]	n/a	catFR1	0	R1176M
3423.354	3.566	1757527	ORIENT	n/a	n/a	n/a	n/a	-999	17	[0, 0, 0]	n/a	catFR1	0	R1176M
3426.92	2.535	1759310	WORD	n/a	wordpools/wordpool_categorized_EN.txt	EVERGREEN	Trees	1	17	[0, 0, 0]	n/a	catFR1	0	R1176M
3429.455	2.617	1760578	WORD	n/a	wordpools/wordpool_categorized_EN.txt	BIRCH	Trees	2	17	[0, 0, 0]	n/a	catFR1	0	R1176M
3432.072	2.551	1761886	WORD	n/a	wordpools/wordpool_categorized_EN.txt	ATTIC	Building	3	17	[0, 0, 0]	n/a	catFR1	0	R1176M
3434.623	2.567	1763161	WORD	n/a	wordpools/wordpool_categorized_EN.txt	HALLWAY	Building	4	17	[0, 0, 0]	n/a	catFR1	0	R1176M
3437.19	2.616	1764445	WORD	n/a	wordpools/wordpool_categorized_EN.txt	ZEBRA	Zoo	5	17	[0, 0, 0]	n/a	catFR1	0	R1176M
3439.806	2.402	1765753	WORD	n/a	wordpools/wordpool_categorized_EN.txt	PANDA	Zoo	6	17	[0, 0, 0]	n/a	catFR1	0	R1176M
3442.208	2.417	1766954	WORD	n/a	wordpools/wordpool_categorized_EN.txt	BATHROOM	Building	7	17	[0, 0, 0]	n/a	catFR1	0	R1176M
3444.625	2.517	1768162	WORD	n/a	wordpools/wordpool_categorized_EN.txt	DOOR	Building	8	17	[0, 0, 0]	n/a	catFR1	0	R1176M
3447.142	2.433	1769420	WORD	n/a	wordpools/wordpool_categorized_EN.txt	WALNUT	Trees	9	17	[0, 0, 0]	n/a	catFR1	0	R1176M
3449.575	2.435	1770637	WORD	n/a	wordpools/wordpool_categorized_EN.txt	WILLOW	Trees	10	17	[0, 0, 0]	n/a	catFR1	0	R1176M
3452.01	2.55	1771854	WORD	n/a	wordpools/wordpool_categorized_EN.txt	TIGER	Zoo	11	17	[0, 0, 0]	n/a	catFR1	0	R1176M
3454.56	1.617	1773129	WORD	n/a	wordpools/wordpool_categorized_EN.txt	CHEETAH	Zoo	12	17	[0, 0, 0]	n/a	catFR1	0	R1176M
3456.177	0.001	1773937	DISTRACT_START	n/a	n/a	n/a	n/a	-999	17	[0, 0, 0]	n/a	catFR1	0	R1176M
3456.178	0.016	1773938	START	n/a	n/a	n/a	n/a	-999	17	[-999, -999, -999]	n/a	catFR1	0	R1176M
3456.194	3.25	1773946	PROB	3.25	n/a	n/a	n/a	-999	17	[5, 2, 6]	12	catFR1	0	R1176M
3459.444	2.667	1775571	PROB	2.667	n/a	n/a	n/a	-999	17	[5, 7, 5]	17	catFR1	0	R1176M
3462.111	2.683	1776904	PROB	2.683	n/a	n/a	n/a	-999	17	[8, 8, 6]	24	catFR1	0	R1176M
3464.794	2.719	1778245	PROB	2.719	n/a	n/a	n/a	-999	17	[9, 9, 5]	23	catFR1	0	R1176M
3467.513	2.933	1779605	PROB	2.933	n/a	n/a	n/a	-999	17	[4, 5, 7]	17	catFR1	0	R1176M
3470.446	3.317	1781071	PROB	3.317	n/a	n/a	n/a	-999	17	[8, 5, 9]	23	catFR1	0	R1176M
3473.763	3.364	1782729	PROB	3.364	n/a	n/a	n/a	-999	17	[6, 9, 4]	19	catFR1	0	R1176M
3477.127	0.004	1784411	STOP	n/a	n/a	n/a	n/a	-999	17	[-999, -999, -999]	n/a	catFR1	0	R1176M
3477.131	1.084	1784413	DISTRACT_END	n/a	n/a	n/a	n/a	-999	17	[0, 0, 0]	n/a	catFR1	0	R1176M
3478.215	1.115	1784955	REC_START	n/a	n/a	n/a	n/a	-999	17	[0, 0, 0]	n/a	catFR1	0	R1176M
3479.33	0.753	1785513	REC_WORD	0.753	n/a	ATTIC	Building	3	17	[0, 0, 0]	n/a	catFR1	0	R1176M
3480.083	3.267	1785889	REC_WORD	3.267	n/a	HALLWAY	Building	4	17	[0, 0, 0]	n/a	catFR1	0	R1176M
3483.35	1.284	1787522	REC_WORD	1.284	n/a	ZEBRA	Zoo	5	17	[0, 0, 0]	n/a	catFR1	0	R1176M
3484.634	23.593	1788164	REC_WORD	23.593	n/a	CHEETAH	Zoo	12	17	[0, 0, 0]	n/a	catFR1	0	R1176M
3508.227	27.015	1799960	REC_END	n/a	n/a	n/a	n/a	-999	17	[0, 0, 0]	n/a	catFR1	0	R1176M
3535.242	0.0	1813466	TRIAL	n/a	n/a	n/a	n/a	-999	18	[0, 0, 0]	n/a	catFR1	0	R1176M
3535.242	10.428	1813466	COUNTDOWN_START	n/a	n/a	n/a	n/a	-999	18	[0, 0, 0]	n/a	catFR1	0	R1176M
3545.67	0.008	1818679	COUNTDOWN_END	n/a	n/a	n/a	n/a	-999	18	[0, 0, 0]	n/a	catFR1	0	R1176M
3545.678	3.667	1818683	ORIENT	n/a	n/a	n/a	n/a	-999	18	[0, 0, 0]	n/a	catFR1	0	R1176M
3549.345	2.566	1820516	WORD	n/a	wordpools/wordpool_categorized_EN.txt	SPINACH	Vegetables	1	18	[0, 0, 0]	n/a	catFR1	0	R1176M
3551.911	2.518	1821799	WORD	n/a	wordpools/wordpool_categorized_EN.txt	CUCUMBER	Vegetables	2	18	[0, 0, 0]	n/a	catFR1	0	R1176M
3554.429	2.45	1823058	WORD	n/a	wordpools/wordpool_categorized_EN.txt	TULIP	Flowers	3	18	[0, 0, 0]	n/a	catFR1	0	R1176M
3556.879	2.468	1824283	WORD	n/a	wordpools/wordpool_categorized_EN.txt	VIOLET	Flowers	4	18	[0, 0, 0]	n/a	catFR1	0	R1176M
3559.347	2.449	1825517	WORD	n/a	wordpools/wordpool_categorized_EN.txt	TRUCK	Vehicles	5	18	[0, 0, 0]	n/a	catFR1	0	R1176M
3561.796	2.518	1826741	WORD	n/a	wordpools/wordpool_categorized_EN.txt	BOAT	Vehicles	6	18	[0, 0, 0]	n/a	catFR1	0	R1176M
3564.314	2.401	1828000	WORD	n/a	wordpools/wordpool_categorized_EN.txt	LETTUCE	Vegetables	7	18	[0, 0, 0]	n/a	catFR1	0	R1176M
3566.715	2.617	1829201	WORD	n/a	wordpools/wordpool_categorized_EN.txt	CORN	Vegetables	8	18	[0, 0, 0]	n/a	catFR1	0	R1176M
3569.332	2.583	1830509	WORD	n/a	wordpools/wordpool_categorized_EN.txt	CAR	Vehicles	9	18	[0, 0, 0]	n/a	catFR1	0	R1176M
3571.915	2.401	1831800	WORD	n/a	wordpools/wordpool_categorized_EN.txt	JEEP	Vehicles	10	18	[0, 0, 0]	n/a	catFR1	0	R1176M
3574.316	2.55	1833001	WORD	n/a	wordpools/wordpool_categorized_EN.txt	MARIGOLD	Flowers	11	18	[0, 0, 0]	n/a	catFR1	0	R1176M
3576.866	1.601	1834276	WORD	n/a	wordpools/wordpool_categorized_EN.txt	SUNFLOWER	Flowers	12	18	[0, 0, 0]	n/a	catFR1	0	R1176M
3578.467	0.001	1835076	DISTRACT_START	n/a	n/a	n/a	n/a	-999	18	[0, 0, 0]	n/a	catFR1	0	R1176M
3578.468	0.016	1835076	START	n/a	n/a	n/a	n/a	-999	18	[-999, -999, -999]	n/a	catFR1	0	R1176M
3578.484	4.184	1835084	PROB	4.184	n/a	n/a	n/a	-999	18	[7, 7, 1]	15	catFR1	0	R1176M
3582.668	2.851	1837176	PROB	2.851	n/a	n/a	n/a	-999	18	[7, 6, 8]	24	catFR1	0	R1176M
3585.519	3.65	1838602	PROB	3.65	n/a	n/a	n/a	-999	18	[8, 5, 8]	21	catFR1	0	R1176M
3589.169	2.167	1840426	PROB	2.167	n/a	n/a	n/a	-999	18	[2, 3, 3]	6	catFR1	0	R1176M
3591.336	3.284	1841510	PROB	3.284	n/a	n/a	n/a	-999	18	[9, 3, 4]	15	catFR1	0	R1176M
3594.62	7.25	1843152	PROB	7.25	n/a	n/a	n/a	-999	18	[1, 9, 2]	12	catFR1	0	R1176M
3601.87	0.017	1846776	STOP	n/a	n/a	n/a	n/a	-999	18	[-999, -999, -999]	n/a	catFR1	0	R1176M
3601.887	1.152	1846785	DISTRACT_END	n/a	n/a	n/a	n/a	-999	18	[0, 0, 0]	n/a	catFR1	0	R1176M
3603.039	0.627	1847361	REC_START	n/a	n/a	n/a	n/a	-999	18	[0, 0, 0]	n/a	catFR1	0	R1176M
3603.666	1.082	1847674	REC_WORD	1.082	n/a	LETTUCE	Vegetables	7	18	[0, 0, 0]	n/a	catFR1	0	R1176M
3604.748	3.606	1848215	REC_WORD	3.606	n/a	CUCUMBER	Vegetables	2	18	[0, 0, 0]	n/a	catFR1	0	R1176M
3608.354	6.842	1850018	REC_WORD	6.842	n/a	SPINACH	Vegetables	1	18	[0, 0, 0]	n/a	catFR1	0	R1176M
3615.196	11.429	1853439	REC_WORD	11.429	n/a	MARIGOLD	Flowers	11	18	[0, 0, 0]	n/a	catFR1	0	R1176M
3626.625	6.429	1859152	REC_WORD	6.429	n/a	BOAT	Vehicles	6	18	[0, 0, 0]	n/a	catFR1	0	R1176M
3633.054	10.142	1862367	REC_END	n/a	n/a	n/a	n/a	-999	18	[0, 0, 0]	n/a	catFR1	0	R1176M
3643.196	0.001	1867437	COUNTDOWN_START	n/a	n/a	n/a	n/a	-999	19	[0, 0, 0]	n/a	catFR1	0	R1176M
3643.197	10.427	1867438	TRIAL	n/a	n/a	n/a	n/a	-999	19	[0, 0, 0]	n/a	catFR1	0	R1176M
3653.624	0.008	1872651	COUNTDOWN_END	n/a	n/a	n/a	n/a	-999	19	[0, 0, 0]	n/a	catFR1	0	R1176M
3653.632	3.434	1872655	ORIENT	n/a	n/a	n/a	n/a	-999	19	[0, 0, 0]	n/a	catFR1	0	R1176M
3657.066	2.517	1874371	WORD	n/a	wordpools/wordpool_categorized_EN.txt	RUM	Beverages	1	19	[0, 0, 0]	n/a	catFR1	0	R1176M
3659.583	2.384	1875630	WORD	n/a	wordpools/wordpool_categorized_EN.txt	TEA	Beverages	2	19	[0, 0, 0]	n/a	catFR1	0	R1176M
3661.967	2.483	1876822	WORD	n/a	wordpools/wordpool_categorized_EN.txt	BASKETBALL	Toys	3	19	[0, 0, 0]	n/a	catFR1	0	R1176M
3664.45	2.417	1878063	WORD	n/a	wordpools/wordpool_categorized_EN.txt	BARBIE	Toys	4	19	[0, 0, 0]	n/a	catFR1	0	R1176M
3666.867	2.584	1879271	WORD	n/a	wordpools/wordpool_categorized_EN.txt	MOTH	Insects	5	19	[0, 0, 0]	n/a	catFR1	0	R1176M
3669.451	2.501	1880563	WORD	n/a	wordpools/wordpool_categorized_EN.txt	MOSQUITO	Insects	6	19	[0, 0, 0]	n/a	catFR1	0	R1176M
3671.952	2.4	1881814	WORD	n/a	wordpools/wordpool_categorized_EN.txt	SLINKY	Toys	7	19	[0, 0, 0]	n/a	catFR1	0	R1176M
3674.352	2.4	1883014	WORD	n/a	wordpools/wordpool_categorized_EN.txt	FOOTBALL	Toys	8	19	[0, 0, 0]	n/a	catFR1	0	R1176M
3676.752	2.418	1884213	WORD	n/a	wordpools/wordpool_categorized_EN.txt	JUICE	Beverages	9	19	[0, 0, 0]	n/a	catFR1	0	R1176M
3679.17	2.616	1885422	WORD	n/a	wordpools/wordpool_categorized_EN.txt	BEER	Beverages	10	19	[0, 0, 0]	n/a	catFR1	0	R1176M
3681.786	2.468	1886730	WORD	n/a	wordpools/wordpool_categorized_EN.txt	BUTTERFLY	Insects	11	19	[0, 0, 0]	n/a	catFR1	0	R1176M
3684.254	1.616	1887964	WORD	n/a	wordpools/wordpool_categorized_EN.txt	SPIDER	Insects	12	19	[0, 0, 0]	n/a	catFR1	0	R1176M
3685.87	0.001	1888772	DISTRACT_START	n/a	n/a	n/a	n/a	-999	19	[0, 0, 0]	n/a	catFR1	0	R1176M
3685.871	0.016	1888772	START	n/a	n/a	n/a	n/a	-999	19	[-999, -999, -999]	n/a	catFR1	0	R1176M
3685.887	5.469	1888780	PROB	5.469	n/a	n/a	n/a	-999	19	[1, 8, 4]	13	catFR1	0	R1176M
3691.356	2.067	1891515	PROB	2.067	n/a	n/a	n/a	-999	19	[2, 7, 4]	14	catFR1	0	R1176M
3693.423	2.717	1892548	PROB	2.717	n/a	n/a	n/a	-999	19	[4, 5, 9]	18	catFR1	0	R1176M
3696.14	2.067	1893906	PROB	2.067	n/a	n/a	n/a	-999	19	[2, 8, 6]	16	catFR1	0	R1176M
3698.207	2.784	1894940	PROB	2.784	n/a	n/a	n/a	-999	19	[4, 8, 3]	15	catFR1	0	R1176M
3700.991	7.918	1896332	PROB	7.918	n/a	n/a	n/a	-999	19	[7, 4, 7]	18	catFR1	0	R1176M
3708.909	0.016	1900290	STOP	n/a	n/a	n/a	n/a	-999	19	[-999, -999, -999]	n/a	catFR1	0	R1176M
3708.925	1.218	1900298	DISTRACT_END	n/a	n/a	n/a	n/a	-999	19	[0, 0, 0]	n/a	catFR1	0	R1176M
3710.143	1.267	1900907	REC_START	n/a	n/a	n/a	n/a	-999	19	[0, 0, 0]	n/a	catFR1	0	R1176M
3711.41	1.541	1901541	REC_WORD	1.541	n/a	RUM	Beverages	1	19	[0, 0, 0]	n/a	catFR1	0	R1176M
3712.951	2.91	1902311	REC_WORD	2.91	n/a	BASKETBALL	Toys	3	19	[0, 0, 0]	n/a	catFR1	0	R1176M
3715.861	2.232	1903766	REC_WORD	2.232	n/a	MOTH	Insects	5	19	[0, 0, 0]	n/a	catFR1	0	R1176M
3718.093	5.791	1904882	REC_WORD	5.791	n/a	BARBIE	Toys	4	19	[0, 0, 0]	n/a	catFR1	0	R1176M
3723.884	5.898	1907777	REC_WORD	5.898	n/a	FOOTBALL	Toys	8	19	[0, 0, 0]	n/a	catFR1	0	R1176M
3729.782	10.373	1910726	REC_WORD	10.373	n/a	TEA	Beverages	2	19	[0, 0, 0]	n/a	catFR1	0	R1176M
3740.155	9.312	1915912	REC_END	n/a	n/a	n/a	n/a	-999	19	[0, 0, 0]	n/a	catFR1	0	R1176M
3749.467	0.0	1920567	TRIAL	n/a	n/a	n/a	n/a	-999	20	[0, 0, 0]	n/a	catFR1	0	R1176M
3749.467	10.428	1920567	COUNTDOWN_START	n/a	n/a	n/a	n/a	-999	20	[0, 0, 0]	n/a	catFR1	0	R1176M
3759.895	0.006	1925781	COUNTDOWN_END	n/a	n/a	n/a	n/a	-999	20	[0, 0, 0]	n/a	catFR1	0	R1176M
3759.901	3.835	1925784	ORIENT	n/a	n/a	n/a	n/a	-999	20	[0, 0, 0]	n/a	catFR1	0	R1176M
3763.736	2.617	1927701	WORD	n/a	wordpools/wordpool_categorized_EN.txt	TAPE	OfficeSupplies	1	20	[0, 0, 0]	n/a	catFR1	0	R1176M
3766.353	2.618	1929009	WORD	n/a	wordpools/wordpool_categorized_EN.txt	PEN	OfficeSupplies	2	20	[0, 0, 0]	n/a	catFR1	0	R1176M
3768.971	2.5	1930318	WORD	n/a	wordpools/wordpool_categorized_EN.txt	ORGAN	Instruments	3	20	[0, 0, 0]	n/a	catFR1	0	R1176M
3771.471	2.467	1931568	WORD	n/a	wordpools/wordpool_categorized_EN.txt	FLUTE	Instruments	4	20	[0, 0, 0]	n/a	catFR1	0	R1176M
3773.938	2.451	1932801	WORD	n/a	wordpools/wordpool_categorized_EN.txt	CARNATION	Flowers	5	20	[0, 0, 0]	n/a	catFR1	0	R1176M
3776.389	2.432	1934027	WORD	n/a	wordpools/wordpool_categorized_EN.txt	LILAC	Flowers	6	20	[0, 0, 0]	n/a	catFR1	0	R1176M
3778.821	2.369	1935243	WORD	n/a	wordpools/wordpool_categorized_EN.txt	GLUE	OfficeSupplies	7	20	[0, 0, 0]	n/a	catFR1	0	R1176M
3781.19	2.5	1936427	WORD	n/a	wordpools/wordpool_categorized_EN.txt	BINDER	OfficeSupplies	8	20	[0, 0, 0]	n/a	catFR1	0	R1176M
3783.69	2.4	1937677	WORD	n/a	wordpools/wordpool_categorized_EN.txt	DAFFODIL	Flowers	9	20	[0, 0, 0]	n/a	catFR1	0	R1176M
3786.09	2.451	1938877	WORD	n/a	wordpools/wordpool_categorized_EN.txt	ROSE	Flowers	10	20	[0, 0, 0]	n/a	catFR1	0	R1176M
3788.541	2.417	1940102	WORD	n/a	wordpools/wordpool_categorized_EN.txt	PIANO	Instruments	11	20	[0, 0, 0]	n/a	catFR1	0	R1176M
3790.958	1.617	1941311	WORD	n/a	wordpools/wordpool_categorized_EN.txt	VIOLIN	Instruments	12	20	[0, 0, 0]	n/a	catFR1	0	R1176M
3792.575	0.001	1942119	DISTRACT_START	n/a	n/a	n/a	n/a	-999	20	[0, 0, 0]	n/a	catFR1	0	R1176M
3792.576	0.016	1942119	START	n/a	n/a	n/a	n/a	-999	20	[-999, -999, -999]	n/a	catFR1	0	R1176M
3792.592	2.767	1942127	PROB	2.767	n/a	n/a	n/a	-999	20	[5, 3, 8]	16	catFR1	0	R1176M
3795.359	2.499	1943511	PROB	2.499	n/a	n/a	n/a	-999	20	[6, 2, 8]	16	catFR1	0	R1176M
3797.858	2.884	1944760	PROB	2.884	n/a	n/a	n/a	-999	20	[4, 8, 5]	15	catFR1	0	R1176M
3800.742	3.101	1946202	PROB	3.101	n/a	n/a	n/a	-999	20	[9, 7, 4]	20	catFR1	0	R1176M
3803.843	4.001	1947752	PROB	4.001	n/a	n/a	n/a	-999	20	[8, 8, 1]	12	catFR1	0	R1176M
3807.844	3.451	1949753	PROB	3.451	n/a	n/a	n/a	-999	20	[2, 8, 4]	16	catFR1	0	R1176M
3811.295	2.943	1951478	PROB	2.943	n/a	n/a	n/a	-999	20	[8, 6, 4]	18	catFR1	0	R1176M
3814.238	0.008	1952949	STOP	n/a	n/a	n/a	n/a	-999	20	[-999, -999, -999]	n/a	catFR1	0	R1176M
3814.246	1.184	1952953	DISTRACT_END	n/a	n/a	n/a	n/a	-999	20	[0, 0, 0]	n/a	catFR1	0	R1176M
3815.43	2.381	1953545	REC_START	n/a	n/a	n/a	n/a	-999	20	[0, 0, 0]	n/a	catFR1	0	R1176M
3817.811	2.33	1954736	REC_WORD	2.33	n/a	TAPE	OfficeSupplies	1	20	[0, 0, 0]	n/a	catFR1	0	R1176M
3820.141	1.546	1955901	REC_WORD	1.546	n/a	CARNATION	Flowers	5	20	[0, 0, 0]	n/a	catFR1	0	R1176M
3821.687	23.755	1956673	REC_WORD	23.755	n/a	LILAC	Flowers	6	20	[0, 0, 0]	n/a	catFR1	0	R1176M
3845.442	32.432	1968550	REC_END	n/a	n/a	n/a	n/a	-999	20	[0, 0, 0]	n/a	catFR1	0	R1176M
3877.874	0.0	1984764	TRIAL	n/a	n/a	n/a	n/a	-999	21	[0, 0, 0]	n/a	catFR1	0	R1176M
3877.874	10.428	1984764	COUNTDOWN_START	n/a	n/a	n/a	n/a	-999	21	[0, 0, 0]	n/a	catFR1	0	R1176M
3888.302	0.008	1989978	COUNTDOWN_END	n/a	n/a	n/a	n/a	-999	21	[0, 0, 0]	n/a	catFR1	0	R1176M
3888.31	3.45	1989982	ORIENT	n/a	n/a	n/a	n/a	-999	21	[0, 0, 0]	n/a	catFR1	0	R1176M
3891.76	2.385	1991706	WORD	n/a	wordpools/wordpool_categorized_EN.txt	FISH	OceanAnimals	1	21	[0, 0, 0]	n/a	catFR1	0	R1176M
3894.145	2.616	1992899	WORD	n/a	wordpools/wordpool_categorized_EN.txt	OCTOPUS	OceanAnimals	2	21	[0, 0, 0]	n/a	catFR1	0	R1176M
3896.761	2.468	1994207	WORD	n/a	wordpools/wordpool_categorized_EN.txt	ANT	Insects	3	21	[0, 0, 0]	n/a	catFR1	0	R1176M
3899.229	2.516	1995440	WORD	n/a	wordpools/wordpool_categorized_EN.txt	ROACH	Insects	4	21	[0, 0, 0]	n/a	catFR1	0	R1176M
3901.745	2.535	1996698	WORD	n/a	wordpools/wordpool_categorized_EN.txt	WINDOW	Building	5	21	[0, 0, 0]	n/a	catFR1	0	R1176M
3904.28	2.45	1997966	WORD	n/a	wordpools/wordpool_categorized_EN.txt	STAIRS	Building	6	21	[0, 0, 0]	n/a	catFR1	0	R1176M
3906.73	2.451	1999191	WORD	n/a	wordpools/wordpool_categorized_EN.txt	FLY	Insects	7	21	[0, 0, 0]	n/a	catFR1	0	R1176M
3909.181	2.534	2000416	WORD	n/a	wordpools/wordpool_categorized_EN.txt	LADYBUG	Insects	8	21	[0, 0, 0]	n/a	catFR1	0	R1176M
3911.715	2.584	2001683	WORD	n/a	wordpools/wordpool_categorized_EN.txt	JELLYFISH	OceanAnimals	9	21	[0, 0, 0]	n/a	catFR1	0	R1176M
3914.299	2.599	2002975	WORD	n/a	wordpools/wordpool_categorized_EN.txt	SHRIMP	OceanAnimals	10	21	[0, 0, 0]	n/a	catFR1	0	R1176M
3916.898	2.552	2004274	WORD	n/a	wordpools/wordpool_categorized_EN.txt	FOUNDATION	Building	11	21	[0, 0, 0]	n/a	catFR1	0	R1176M
3919.45	1.617	2005550	WORD	n/a	wordpools/wordpool_categorized_EN.txt	CEILING	Building	12	21	[0, 0, 0]	n/a	catFR1	0	R1176M
3921.067	0.001	2006358	DISTRACT_START	n/a	n/a	n/a	n/a	-999	21	[0, 0, 0]	n/a	catFR1	0	R1176M
3921.068	0.015	2006359	START	n/a	n/a	n/a	n/a	-999	21	[-999, -999, -999]	n/a	catFR1	0	R1176M
3921.083	3.584	2006366	PROB	3.584	n/a	n/a	n/a	-999	21	[7, 6, 5]	20	catFR1	0	R1176M
3924.667	4.083	2008158	PROB	4.083	n/a	n/a	n/a	-999	21	[7, 3, 6]	16	catFR1	0	R1176M
3928.75	2.435	2010199	PROB	2.435	n/a	n/a	n/a	-999	21	[9, 3, 4]	15	catFR1	0	R1176M
3931.185	2.901	2011417	PROB	2.901	n/a	n/a	n/a	-999	21	[6, 6, 7]	19	catFR1	0	R1176M
3934.086	2.2	2012867	PROB	2.2	n/a	n/a	n/a	-999	21	[8, 9, 1]	18	catFR1	0	R1176M
3936.286	3.384	2013967	PROB	3.384	n/a	n/a	n/a	-999	21	[1, 6, 3]	10	catFR1	0	R1176M
3939.67	2.649	2015659	PROB	2.649	n/a	n/a	n/a	-999	21	[7, 5, 1]	13	catFR1	0	R1176M
3942.319	0.018	2016983	STOP	n/a	n/a	n/a	n/a	-999	21	[-999, -999, -999]	n/a	catFR1	0	R1176M
3942.337	1.134	2016992	DISTRACT_END	n/a	n/a	n/a	n/a	-999	21	[0, 0, 0]	n/a	catFR1	0	R1176M
3943.471	1.243	2017559	REC_START	n/a	n/a	n/a	n/a	-999	21	[0, 0, 0]	n/a	catFR1	0	R1176M
3944.714	0.967	2018181	REC_WORD	0.967	n/a	FISH	OceanAnimals	1	21	[0, 0, 0]	n/a	catFR1	0	R1176M
3945.681	27.805	2018664	REC_WORD	27.805	n/a	OCTOPUS	OceanAnimals	2	21	[0, 0, 0]	n/a	catFR1	0	R1176M
3973.486	33.947	2032565	REC_END	n/a	n/a	n/a	n/a	-999	21	[0, 0, 0]	n/a	catFR1	0	R1176M
4007.433	0.0	2049537	TRIAL	n/a	n/a	n/a	n/a	-999	22	[0, 0, 0]	n/a	catFR1	0	R1176M
4007.433	10.428	2049537	COUNTDOWN_START	n/a	n/a	n/a	n/a	-999	22	[0, 0, 0]	n/a	catFR1	0	R1176M
4017.861	0.007	2054750	COUNTDOWN_END	n/a	n/a	n/a	n/a	-999	22	[0, 0, 0]	n/a	catFR1	0	R1176M
4017.868	3.568	2054754	ORIENT	n/a	n/a	n/a	n/a	-999	22	[0, 0, 0]	n/a	catFR1	0	R1176M
4021.436	2.6	2056538	WORD	n/a	wordpools/wordpool_categorized_EN.txt	ROBIN	Birds	1	22	[0, 0, 0]	n/a	catFR1	0	R1176M
4024.036	2.551	2057838	WORD	n/a	wordpools/wordpool_categorized_EN.txt	SEAGULL	Birds	2	22	[0, 0, 0]	n/a	catFR1	0	R1176M
4026.587	2.45	2059113	WORD	n/a	wordpools/wordpool_categorized_EN.txt	STRAWBERRY	Fruit	3	22	[0, 0, 0]	n/a	catFR1	0	R1176M
4029.037	2.584	2060338	WORD	n/a	wordpools/wordpool_categorized_EN.txt	BANANA	Fruit	4	22	[0, 0, 0]	n/a	catFR1	0	R1176M
4031.621	2.584	2061630	WORD	n/a	wordpools/wordpool_categorized_EN.txt	SHOVEL	Tools	5	22	[0, 0, 0]	n/a	catFR1	0	R1176M
4034.205	2.583	2062921	WORD	n/a	wordpools/wordpool_categorized_EN.txt	SAW	Tools	6	22	[0, 0, 0]	n/a	catFR1	0	R1176M
4036.788	2.585	2064213	WORD	n/a	wordpools/wordpool_categorized_EN.txt	CARDINAL	Birds	7	22	[0, 0, 0]	n/a	catFR1	0	R1176M
4039.373	2.432	2065505	WORD	n/a	wordpools/wordpool_categorized_EN.txt	FINCH	Birds	8	22	[0, 0, 0]	n/a	catFR1	0	R1176M
4041.805	2.502	2066721	WORD	n/a	wordpools/wordpool_categorized_EN.txt	LEVEL	Tools	9	22	[0, 0, 0]	n/a	catFR1	0	R1176M
4044.307	2.516	2067972	WORD	n/a	wordpools/wordpool_categorized_EN.txt	PLIERS	Tools	10	22	[0, 0, 0]	n/a	catFR1	0	R1176M
4046.823	2.585	2069230	WORD	n/a	wordpools/wordpool_categorized_EN.txt	PEAR	Fruit	11	22	[0, 0, 0]	n/a	catFR1	0	R1176M
4049.408	1.617	2070522	WORD	n/a	wordpools/wordpool_categorized_EN.txt	PEACH	Fruit	12	22	[0, 0, 0]	n/a	catFR1	0	R1176M
4051.025	0.001	2071331	DISTRACT_START	n/a	n/a	n/a	n/a	-999	22	[0, 0, 0]	n/a	catFR1	0	R1176M
4051.026	0.016	2071331	START	n/a	n/a	n/a	n/a	-999	22	[-999, -999, -999]	n/a	catFR1	0	R1176M
4051.042	7.051	2071339	PROB	7.051	n/a	n/a	n/a	-999	22	[8, 6, 1]	16	catFR1	0	R1176M
4058.093	2.783	2074864	PROB	2.783	n/a	n/a	n/a	-999	22	[5, 9, 5]	19	catFR1	0	R1176M
4060.876	2.468	2076256	PROB	2.468	n/a	n/a	n/a	-999	22	[6, 6, 9]	21	catFR1	0	R1176M
4063.344	2.984	2077489	PROB	2.984	n/a	n/a	n/a	-999	22	[1, 2, 2]	5	catFR1	0	R1176M
4066.328	2.599	2078981	PROB	2.599	n/a	n/a	n/a	-999	22	[8, 1, 5]	14	catFR1	0	R1176M
4068.927	2.102	2080281	PROB	2.102	n/a	n/a	n/a	-999	22	[4, 4, 5]	9	catFR1	0	R1176M
4071.029	2.362	2081332	PROB	2.362	n/a	n/a	n/a	-999	22	[6, 1, 4]	11	catFR1	0	R1176M
4073.391	0.005	2082512	STOP	n/a	n/a	n/a	n/a	-999	22	[-999, -999, -999]	n/a	catFR1	0	R1176M
4073.396	1.167	2082515	DISTRACT_END	n/a	n/a	n/a	n/a	-999	22	[0, 0, 0]	n/a	catFR1	0	R1176M
4074.563	0.974	2083098	REC_START	n/a	n/a	n/a	n/a	-999	22	[0, 0, 0]	n/a	catFR1	0	R1176M
4075.537	0.905	2083585	REC_WORD	0.905	n/a	ROBIN	Birds	1	22	[0, 0, 0]	n/a	catFR1	0	R1176M
4076.442	1.905	2084038	REC_WORD	1.905	n/a	SEAGULL	Birds	2	22	[0, 0, 0]	n/a	catFR1	0	R1176M
4078.347	1.59	2084990	REC_WORD	1.59	n/a	STRAWBERRY	Fruit	3	22	[0, 0, 0]	n/a	catFR1	0	R1176M
4079.937	3.547	2085785	REC_WORD	3.547	n/a	BANANA	Fruit	4	22	[0, 0, 0]	n/a	catFR1	0	R1176M
4083.484	5.423	2087558	REC_WORD	5.423	n/a	FINCH	Birds	8	22	[0, 0, 0]	n/a	catFR1	0	R1176M
4088.907	6.849	2090270	REC_WORD	6.849	n/a	CARDINAL	Birds	7	22	[0, 0, 0]	n/a	catFR1	0	R1176M
4095.756	8.822	2093694	REC_WORD	8.822	n/a	PEAR	Fruit	11	22	[0, 0, 0]	n/a	catFR1	0	R1176M
4104.578	19.744	2098104	REC_END	n/a	n/a	n/a	n/a	-999	22	[0, 0, 0]	n/a	catFR1	0	R1176M
4124.322	0.001	2107975	COUNTDOWN_START	n/a	n/a	n/a	n/a	-999	23	[0, 0, 0]	n/a	catFR1	0	R1176M
4124.323	10.427	2107976	TRIAL	n/a	n/a	n/a	n/a	-999	23	[0, 0, 0]	n/a	catFR1	0	R1176M
4134.75	0.007	2113189	COUNTDOWN_END	n/a	n/a	n/a	n/a	-999	23	[0, 0, 0]	n/a	catFR1	0	R1176M
4134.757	3.585	2113192	ORIENT	n/a	n/a	n/a	n/a	-999	23	[0, 0, 0]	n/a	catFR1	0	R1176M
4138.342	2.483	2114985	WORD	n/a	wordpools/wordpool_categorized_EN.txt	FINGERS	BodyParts	1	23	[0, 0, 0]	n/a	catFR1	0	R1176M
4140.825	2.601	2116226	WORD	n/a	wordpools/wordpool_categorized_EN.txt	FOOT	BodyParts	2	23	[0, 0, 0]	n/a	catFR1	0	R1176M
4143.426	2.499	2117526	WORD	n/a	wordpools/wordpool_categorized_EN.txt	COLA	Beverages	3	23	[0, 0, 0]	n/a	catFR1	0	R1176M
4145.925	2.419	2118776	WORD	n/a	wordpools/wordpool_categorized_EN.txt	LEMONADE	Beverages	4	23	[0, 0, 0]	n/a	catFR1	0	R1176M
4148.344	2.466	2119985	WORD	n/a	wordpools/wordpool_categorized_EN.txt	WASHER	Appliances	5	23	[0, 0, 0]	n/a	catFR1	0	R1176M
4150.81	2.618	2121218	WORD	n/a	wordpools/wordpool_categorized_EN.txt	STOVE	Appliances	6	23	[0, 0, 0]	n/a	catFR1	0	R1176M
4153.428	2.584	2122527	WORD	n/a	wordpools/wordpool_categorized_EN.txt	COFFEE	Beverages	7	23	[0, 0, 0]	n/a	catFR1	0	R1176M
4156.012	2.483	2123819	WORD	n/a	wordpools/wordpool_categorized_EN.txt	CIDER	Beverages	8	23	[0, 0, 0]	n/a	catFR1	0	R1176M
4158.495	2.501	2125060	WORD	n/a	wordpools/wordpool_categorized_EN.txt	HAND	BodyParts	9	23	[0, 0, 0]	n/a	catFR1	0	R1176M
4160.996	2.467	2126310	WORD	n/a	wordpools/wordpool_categorized_EN.txt	ELBOW	BodyParts	10	23	[0, 0, 0]	n/a	catFR1	0	R1176M
4163.463	2.601	2127544	WORD	n/a	wordpools/wordpool_categorized_EN.txt	MIXER	Appliances	11	23	[0, 0, 0]	n/a	catFR1	0	R1176M
4166.064	1.617	2128844	WORD	n/a	wordpools/wordpool_categorized_EN.txt	OVEN	Appliances	12	23	[0, 0, 0]	n/a	catFR1	0	R1176M
4167.681	0.001	2129653	DISTRACT_START	n/a	n/a	n/a	n/a	-999	23	[0, 0, 0]	n/a	catFR1	0	R1176M
4167.682	0.015	2129653	START	n/a	n/a	n/a	n/a	-999	23	[-999, -999, -999]	n/a	catFR1	0	R1176M
4167.697	3.434	2129661	PROB	3.434	n/a	n/a	n/a	-999	23	[4, 2, 2]	8	catFR1	0	R1176M
4171.131	1.75	2131377	PROB	1.75	n/a	n/a	n/a	-999	23	[8, 1, 3]	13	catFR1	0	R1176M
4172.881	4.051	2132252	PROB	4.051	n/a	n/a	n/a	-999	23	[5, 9, 6]	20	catFR1	0	R1176M
4176.932	2.384	2134278	PROB	2.384	n/a	n/a	n/a	-999	23	[6, 2, 8]	16	catFR1	0	R1176M
4179.316	5.567	2135469	PROB	5.567	n/a	n/a	n/a	-999	23	[2, 3, 8]	14	catFR1	0	R1176M
4184.883	2.994	2138253	PROB	2.994	n/a	n/a	n/a	-999	23	[6, 8, 5]	21	catFR1	0	R1176M
4187.877	0.007	2139750	STOP	n/a	n/a	n/a	n/a	-999	23	[-999, -999, -999]	n/a	catFR1	0	R1176M
4187.884	1.034	2139753	DISTRACT_END	n/a	n/a	n/a	n/a	-999	23	[0, 0, 0]	n/a	catFR1	0	R1176M
4188.918	1.09	2140270	REC_START	n/a	n/a	n/a	n/a	-999	23	[0, 0, 0]	n/a	catFR1	0	R1176M
4190.008	1.056	2140815	REC_WORD	1.056	n/a	FINGERS	BodyParts	1	23	[0, 0, 0]	n/a	catFR1	0	R1176M
4191.064	2.517	2141343	REC_WORD	2.517	n/a	FOOT	BodyParts	2	23	[0, 0, 0]	n/a	catFR1	0	R1176M
4193.581	2.11	2142601	REC_WORD	2.11	n/a	REFRIGERATOR	n/a	-999	23	[0, 0, 0]	n/a	catFR1	0	R1176M
4195.691	1.207	2143656	REC_WORD	1.207	n/a	MICROWAVE	n/a	-999	23	[0, 0, 0]	n/a	catFR1	0	R1176M
4196.898	5.763	2144260	REC_WORD	5.763	n/a	STOVE	Appliances	6	23	[0, 0, 0]	n/a	catFR1	0	R1176M
4202.661	16.268	2147141	REC_WORD	16.268	n/a	OVEN	Appliances	12	23	[0, 0, 0]	n/a	catFR1	0	R1176M
4218.929	34.685	2155274	REC_END	n/a	n/a	n/a	n/a	-999	23	[0, 0, 0]	n/a	catFR1	0	R1176M
4253.614	0.0	2172615	COUNTDOWN_START	n/a	n/a	n/a	n/a	-999	24	[0, 0, 0]	n/a	catFR1	0	R1176M
4253.614	10.428	2172615	TRIAL	n/a	n/a	n/a	n/a	-999	24	[0, 0, 0]	n/a	catFR1	0	R1176M
4264.042	0.007	2177828	COUNTDOWN_END	n/a	n/a	n/a	n/a	-999	24	[0, 0, 0]	n/a	catFR1	0	R1176M
4264.049	3.584	2177832	ORIENT	n/a	n/a	n/a	n/a	-999	24	[0, 0, 0]	n/a	catFR1	0	R1176M
4267.633	2.4	2179623	WORD	n/a	wordpools/wordpool_categorized_EN.txt	MOUNTAIN	Landscapes	1	24	[0, 0, 0]	n/a	catFR1	0	R1176M
4270.033	2.385	2180823	WORD	n/a	wordpools/wordpool_categorized_EN.txt	CREEK	Landscapes	2	24	[0, 0, 0]	n/a	catFR1	0	R1176M
4272.418	2.499	2182016	WORD	n/a	wordpools/wordpool_categorized_EN.txt	BEAR	Zoo	3	24	[0, 0, 0]	n/a	catFR1	0	R1176M
4274.917	2.502	2183265	WORD	n/a	wordpools/wordpool_categorized_EN.txt	ORANGUTAN	Zoo	4	24	[0, 0, 0]	n/a	catFR1	0	R1176M
4277.419	2.533	2184516	WORD	n/a	wordpools/wordpool_categorized_EN.txt	DISHWASHER	Appliances	5	24	[0, 0, 0]	n/a	catFR1	0	R1176M
4279.952	2.501	2185782	WORD	n/a	wordpools/wordpool_categorized_EN.txt	VACUUM	Appliances	6	24	[0, 0, 0]	n/a	catFR1	0	R1176M
4282.453	2.617	2187033	WORD	n/a	wordpools/wordpool_categorized_EN.txt	VALLEY	Landscapes	7	24	[0, 0, 0]	n/a	catFR1	0	R1176M
4285.07	2.534	2188341	WORD	n/a	wordpools/wordpool_categorized_EN.txt	HILLS	Landscapes	8	24	[0, 0, 0]	n/a	catFR1	0	R1176M
4287.604	2.4	2189608	WORD	n/a	wordpools/wordpool_categorized_EN.txt	FREEZER	Appliances	9	24	[0, 0, 0]	n/a	catFR1	0	R1176M
4290.004	2.567	2190808	WORD	n/a	wordpools/wordpool_categorized_EN.txt	DRYER	Appliances	10	24	[0, 0, 0]	n/a	catFR1	0	R1176M
4292.571	2.401	2192091	WORD	n/a	wordpools/wordpool_categorized_EN.txt	MONKEY	Zoo	11	24	[0, 0, 0]	n/a	catFR1	0	R1176M
4294.972	1.617	2193292	WORD	n/a	wordpools/wordpool_categorized_EN.txt	ELEPHANT	Zoo	12	24	[0, 0, 0]	n/a	catFR1	0	R1176M
4296.589	0.001	2194100	DISTRACT_START	n/a	n/a	n/a	n/a	-999	24	[0, 0, 0]	n/a	catFR1	0	R1176M
4296.59	0.016	2194100	START	n/a	n/a	n/a	n/a	-999	24	[-999, -999, -999]	n/a	catFR1	0	R1176M
4296.606	4.384	2194108	PROB	4.384	n/a	n/a	n/a	-999	24	[3, 9, 5]	17	catFR1	0	R1176M
4300.99	2.25	2196300	PROB	2.25	n/a	n/a	n/a	-999	24	[7, 9, 1]	17	catFR1	0	R1176M
4303.24	2.301	2197425	PROB	2.301	n/a	n/a	n/a	-999	24	[3, 4, 7]	14	catFR1	0	R1176M
4305.541	2.517	2198575	PROB	2.517	n/a	n/a	n/a	-999	24	[4, 2, 8]	14	catFR1	0	R1176M
4308.058	2.95	2199834	PROB	2.95	n/a	n/a	n/a	-999	24	[4, 4, 8]	16	catFR1	0	R1176M
4311.008	3.034	2201309	PROB	3.034	n/a	n/a	n/a	-999	24	[3, 4, 9]	16	catFR1	0	R1176M
4314.042	3.493	2202826	PROB	3.493	n/a	n/a	n/a	-999	24	[3, 2, 6]	15	catFR1	0	R1176M
4317.535	0.008	2204572	STOP	n/a	n/a	n/a	n/a	-999	24	[-999, -999, -999]	n/a	catFR1	0	R1176M
4317.543	1.034	2204576	DISTRACT_END	n/a	n/a	n/a	n/a	-999	24	[0, 0, 0]	n/a	catFR1	0	R1176M
4318.577	1.374	2205093	REC_START	n/a	n/a	n/a	n/a	-999	24	[0, 0, 0]	n/a	catFR1	0	R1176M
4319.951	1.431	2205780	REC_WORD	1.431	n/a	MOUNTAIN	Landscapes	1	24	[0, 0, 0]	n/a	catFR1	0	R1176M
4321.382	1.323	2206495	REC_WORD	1.323	n/a	CREEK	Landscapes	2	24	[0, 0, 0]	n/a	catFR1	0	R1176M
4322.705	1.665	2207157	REC_WORD	1.665	n/a	BEAR	Zoo	3	24	[0, 0, 0]	n/a	catFR1	0	R1176M
4324.37	2.139	2207989	REC_WORD	2.139	n/a	ORANGUTAN	Zoo	4	24	[0, 0, 0]	n/a	catFR1	0	R1176M
4326.509	3.332	2209058	REC_WORD	3.332	n/a	VALLEY	Landscapes	7	24	[0, 0, 0]	n/a	catFR1	0	R1176M
4329.841	6.66	2210724	REC_WORD	6.66	n/a	MONKEY	Zoo	11	24	[0, 0, 0]	n/a	catFR1	0	R1176M
4336.501	12.088	2214054	REC_WORD	12.088	n/a	VIEW	n/a	-999	24	[0, 0, 0]	n/a	catFR1	0	R1176M
4348.589	14.829	2220097	REC_END	n/a	n/a	n/a	n/a	-999	24	[0, 0, 0]	n/a	catFR1	0	R1176M
4363.418	0.0	2227511	TRIAL	n/a	n/a	n/a	n/a	-999	25	[0, 0, 0]	n/a	catFR1	0	R1176M
4363.418	10.428	2227511	COUNTDOWN_START	n/a	n/a	n/a	n/a	-999	25	[0, 0, 0]	n/a	catFR1	0	R1176M
4373.846	0.007	2232724	COUNTDOWN_END	n/a	n/a	n/a	n/a	-999	25	[0, 0, 0]	n/a	catFR1	0	R1176M
4373.853	3.852	2232728	ORIENT	n/a	n/a	n/a	n/a	-999	25	[0, 0, 0]	n/a	catFR1	0	R1176M
4377.705	2.567	2234654	WORD	n/a	wordpools/wordpool_categorized_EN.txt	COW	FarmAnimals	1	25	[0, 0, 0]	n/a	catFR1	0	R1176M
4380.272	2.599	2235937	WORD	n/a	wordpools/wordpool_categorized_EN.txt	GOAT	FarmAnimals	2	25	[0, 0, 0]	n/a	catFR1	0	R1176M
4382.871	2.435	2237237	WORD	n/a	wordpools/wordpool_categorized_EN.txt	HICKORY	Trees	3	25	[0, 0, 0]	n/a	catFR1	0	R1176M
4385.306	2.483	2238454	WORD	n/a	wordpools/wordpool_categorized_EN.txt	CYPRESS	Trees	4	25	[0, 0, 0]	n/a	catFR1	0	R1176M
4387.789	2.418	2239695	WORD	n/a	wordpools/wordpool_categorized_EN.txt	SHIRT	Clothing	5	25	[0, 0, 0]	n/a	catFR1	0	R1176M
4390.207	2.566	2240904	WORD	n/a	wordpools/wordpool_categorized_EN.txt	PANTS	Clothing	6	25	[0, 0, 0]	n/a	catFR1	0	R1176M
4392.773	2.402	2242187	WORD	n/a	wordpools/wordpool_categorized_EN.txt	MAPLE	Trees	7	25	[0, 0, 0]	n/a	catFR1	0	R1176M
4395.175	2.517	2243388	WORD	n/a	wordpools/wordpool_categorized_EN.txt	ELM	Trees	8	25	[0, 0, 0]	n/a	catFR1	0	R1176M
4397.692	2.417	2244646	WORD	n/a	wordpools/wordpool_categorized_EN.txt	HORSE	FarmAnimals	9	25	[0, 0, 0]	n/a	catFR1	0	R1176M
4400.109	2.617	2245855	WORD	n/a	wordpools/wordpool_categorized_EN.txt	TURKEY	FarmAnimals	10	25	[0, 0, 0]	n/a	catFR1	0	R1176M
4402.726	2.484	2247163	WORD	n/a	wordpools/wordpool_categorized_EN.txt	JACKET	Clothing	11	25	[0, 0, 0]	n/a	catFR1	0	R1176M
4405.21	1.616	2248405	WORD	n/a	wordpools/wordpool_categorized_EN.txt	SHORTS	Clothing	12	25	[0, 0, 0]	n/a	catFR1	0	R1176M
4406.826	0.001	2249213	DISTRACT_START	n/a	n/a	n/a	n/a	-999	25	[0, 0, 0]	n/a	catFR1	0	R1176M
4406.827	0.016	2249213	START	n/a	n/a	n/a	n/a	-999	25	[-999, -999, -999]	n/a	catFR1	0	R1176M
4406.843	2.634	2249221	PROB	2.634	n/a	n/a	n/a	-999	25	[7, 5, 5]	17	catFR1	0	R1176M
4409.477	2.718	2250538	PROB	2.718	n/a	n/a	n/a	-999	25	[3, 5, 4]	17	catFR1	0	R1176M
4412.195	3.083	2251897	PROB	3.083	n/a	n/a	n/a	-999	25	[9, 5, 2]	16	catFR1	0	R1176M
4415.278	4.918	2253438	PROB	4.918	n/a	n/a	n/a	-999	25	[9, 4, 2]	15	catFR1	0	R1176M
4420.196	2.517	2255897	PROB	2.517	n/a	n/a	n/a	-999	25	[6, 3, 2]	11	catFR1	0	R1176M
4422.713	2.183	2257155	PROB	2.183	n/a	n/a	n/a	-999	25	[8, 5, 2]	15	catFR1	0	R1176M
4424.896	2.775	2258247	PROB	2.775	n/a	n/a	n/a	-999	25	[5, 4, 6]	15	catFR1	0	R1176M
4427.671	0.01	2259634	STOP	n/a	n/a	n/a	n/a	-999	25	[-999, -999, -999]	n/a	catFR1	0	R1176M
4427.681	1.117	2259639	DISTRACT_END	n/a	n/a	n/a	n/a	-999	25	[0, 0, 0]	n/a	catFR1	0	R1176M
4428.798	3.787	2260198	REC_START	n/a	n/a	n/a	n/a	-999	25	[0, 0, 0]	n/a	catFR1	0	R1176M
4432.585	2.387	2262091	REC_WORD	2.387	n/a	COW	FarmAnimals	1	25	[0, 0, 0]	n/a	catFR1	0	R1176M
4434.972	2.774	2263284	REC_WORD	2.774	n/a	HICKORY	Trees	3	25	[0, 0, 0]	n/a	catFR1	0	R1176M
4437.746	7.837	2264671	REC_WORD	7.837	n/a	TREE	n/a	-999	25	[0, 0, 0]	n/a	catFR1	0	R1176M
4445.583	2.554	2268589	REC_WORD	2.554	n/a	BIRCH	n/a	-999	25	[0, 0, 0]	n/a	catFR1	0	R1176M
4448.137	10.672	2269866	REC_WORD	10.672	n/a	SHIRT	Clothing	5	25	[0, 0, 0]	n/a	catFR1	0	R1176M
4458.809	83.161	2275202	REC_END	n/a	n/a	n/a	n/a	-999	25	[0, 0, 0]	n/a	catFR1	0	R1176M
4541.97	0.0	2316778	SESS_END	n/a	n/a	n/a	n/a	-999	25	[0, 0, 0]	n/a	catFR1	0	R1176M
