onset	duration	sample	trial_type	response_time	stim_file	item_name	category	serialpos	list	test	answer	experiment	session	subject
0.0	5.015	165570	INSTRUCT_START	n/a	n/a	n/a	n/a	-999	-999	[0, 0, 0]	n/a	catFR1	5	R1395M
5.015	25.832	170586	INSTRUCT_END	n/a	n/a	n/a	n/a	-999	-999	[0, 0, 0]	n/a	catFR1	5	R1395M
30.847	10.35	196415	COUNTDOWN_START	n/a	n/a	n/a	n/a	-999	-999	[0, 0, 0]	n/a	catFR1	5	R1395M
41.197	0.0	206766	COUNTDOWN_END	n/a	n/a	n/a	n/a	-999	-999	[0, 0, 0]	n/a	catFR1	5	R1395M
41.197	2.217	206766	ENCODING_START	n/a	n/a	n/a	n/a	-999	-1	[0, 0, 0]	n/a	catFR1	5	R1395M
43.414	1.616	208984	WORD	n/a	n/a	TRUMPET	Instruments	1	-1	[0, 0, 0]	n/a	catFR1	5	R1395M
45.03	0.917	210603	WORD_OFF	n/a	n/a	TRUMPET	Instruments	1	-1	[0, 0, 0]	n/a	catFR1	5	R1395M
45.947	1.6	211520	WORD	n/a	n/a	TROMBONE	Instruments	2	-1	[0, 0, 0]	n/a	catFR1	5	R1395M
47.547	0.784	213120	WORD_OFF	n/a	n/a	TROMBONE	Instruments	2	-1	[0, 0, 0]	n/a	catFR1	5	R1395M
48.331	1.617	213897	WORD	n/a	n/a	SHRIMP	OceanAnimals	3	-1	[0, 0, 0]	n/a	catFR1	5	R1395M
49.948	0.949	215516	WORD_OFF	n/a	n/a	SHRIMP	OceanAnimals	3	-1	[0, 0, 0]	n/a	catFR1	5	R1395M
50.897	1.6	216461	WORD	n/a	n/a	FISH	OceanAnimals	4	-1	[0, 0, 0]	n/a	catFR1	5	R1395M
52.497	0.851	218071	WORD_OFF	n/a	n/a	FISH	OceanAnimals	4	-1	[0, 0, 0]	n/a	catFR1	5	R1395M
53.348	1.6	218913	WORD	n/a	n/a	ROOSTER	FarmAnimals	5	-1	[0, 0, 0]	n/a	catFR1	5	R1395M
54.948	0.916	220514	WORD_OFF	n/a	n/a	ROOSTER	FarmAnimals	5	-1	[0, 0, 0]	n/a	catFR1	5	R1395M
55.864	1.617	221431	WORD	n/a	n/a	BULL	FarmAnimals	6	-1	[0, 0, 0]	n/a	catFR1	5	R1395M
57.481	0.866	223050	WORD_OFF	n/a	n/a	BULL	FarmAnimals	6	-1	[0, 0, 0]	n/a	catFR1	5	R1395M
58.347	1.6	223920	WORD	n/a	n/a	OCTOPUS	OceanAnimals	7	-1	[0, 0, 0]	n/a	catFR1	5	R1395M
59.947	1.0	225520	WORD_OFF	n/a	n/a	OCTOPUS	OceanAnimals	7	-1	[0, 0, 0]	n/a	catFR1	5	R1395M
60.947	1.601	226512	WORD	n/a	n/a	WHALE	OceanAnimals	8	-1	[0, 0, 0]	n/a	catFR1	5	R1395M
62.548	0.816	228113	WORD_OFF	n/a	n/a	WHALE	OceanAnimals	8	-1	[0, 0, 0]	n/a	catFR1	5	R1395M
63.364	1.6	228936	WORD	n/a	n/a	HORSE	FarmAnimals	9	-1	[0, 0, 0]	n/a	catFR1	5	R1395M
64.964	0.917	230536	WORD_OFF	n/a	n/a	HORSE	FarmAnimals	9	-1	[0, 0, 0]	n/a	catFR1	5	R1395M
65.881	1.616	231444	WORD	n/a	n/a	PIG	FarmAnimals	10	-1	[0, 0, 0]	n/a	catFR1	5	R1395M
67.497	0.917	233063	WORD_OFF	n/a	n/a	PIG	FarmAnimals	10	-1	[0, 0, 0]	n/a	catFR1	5	R1395M
68.414	1.617	233980	WORD	n/a	n/a	CELLO	Instruments	11	-1	[0, 0, 0]	n/a	catFR1	5	R1395M
70.031	0.967	235599	WORD_OFF	n/a	n/a	CELLO	Instruments	11	-1	[0, 0, 0]	n/a	catFR1	5	R1395M
70.998	1.601	236563	WORD	n/a	n/a	BANJO	Instruments	12	-1	[0, 0, 0]	n/a	catFR1	5	R1395M
72.599	0.0	238166	PROB	0.0	n/a	n/a	n/a	-999	-1	[7, 2, 7]	16	catFR1	5	R1395M
72.598	0.008	238173	WORD_OFF	n/a	n/a	BANJO	Instruments	12	-1	[0, 0, 0]	n/a	catFR1	5	R1395M
72.606	0.0	238173	ENCODING_END	n/a	n/a	n/a	n/a	-999	-1	[0, 0, 0]	n/a	catFR1	5	R1395M
72.606	0.0	238173	DISTRACT_START	n/a	n/a	n/a	n/a	-999	-1	[0, 0, 0]	n/a	catFR1	5	R1395M
72.606	4.409	238173	START	n/a	n/a	n/a	n/a	-999	-1	[-999, -999, -999]	n/a	catFR1	5	R1395M
77.015	2.083	242581	PROB	2.083	n/a	n/a	n/a	-999	-1	[4, 5, 2]	11	catFR1	5	R1395M
79.098	2.666	244664	PROB	2.666	n/a	n/a	n/a	-999	-1	[4, 5, 8]	17	catFR1	5	R1395M
81.764	2.101	247330	PROB	2.101	n/a	n/a	n/a	-999	-1	[5, 3, 3]	11	catFR1	5	R1395M
83.865	2.783	249431	PROB	2.783	n/a	n/a	n/a	-999	-1	[7, 7, 2]	16	catFR1	5	R1395M
86.648	2.25	252214	PROB	2.25	n/a	n/a	n/a	-999	-1	[4, 4, 2]	10	catFR1	5	R1395M
88.898	2.516	254464	PROB	2.516	n/a	n/a	n/a	-999	-1	[6, 4, 5]	15	catFR1	5	R1395M
91.414	2.617	256980	PROB	2.617	n/a	n/a	n/a	-999	-1	[8, 4, 2]	14	catFR1	5	R1395M
94.031	0.0	259595	DISTRACT_END	n/a	n/a	n/a	n/a	-999	-1	[0, 0, 0]	n/a	catFR1	5	R1395M
94.031	2.183	259597	STOP	n/a	n/a	n/a	n/a	-999	-1	[-999, -999, -999]	n/a	catFR1	5	R1395M
96.214	1.213	261783	REC_START	n/a	n/a	n/a	n/a	-999	-1	[0, 0, 0]	n/a	catFR1	5	R1395M
97.427	1.329	262992	REC_WORD	1.329	n/a	FISH	OceanAnimals	4	-1	[0, 0, 0]	n/a	catFR1	5	R1395M
98.756	2.128	264321	REC_WORD	2.128	n/a	SHRIMP	OceanAnimals	3	-1	[0, 0, 0]	n/a	catFR1	5	R1395M
100.884	2.323	266449	REC_WORD	2.323	n/a	OCTOPUS	OceanAnimals	7	-1	[0, 0, 0]	n/a	catFR1	5	R1395M
103.207	6.055	268772	REC_WORD	6.055	n/a	LOBSTER	n/a	-999	-1	[0, 0, 0]	n/a	catFR1	5	R1395M
109.262	5.906	274827	REC_WORD_VV	5.906	n/a	<>	n/a	-999	-1	[0, 0, 0]	n/a	catFR1	5	R1395M
115.168	1.251	280732	REC_WORD	1.251	n/a	TROMBONE	Instruments	2	-1	[0, 0, 0]	n/a	catFR1	5	R1395M
116.419	1.26	281983	REC_WORD	1.26	n/a	TRUMPET	Instruments	1	-1	[0, 0, 0]	n/a	catFR1	5	R1395M
117.679	8.751	283243	REC_WORD	8.751	n/a	CELLO	Instruments	11	-1	[0, 0, 0]	n/a	catFR1	5	R1395M
126.43	8.001	291994	REC_END	n/a	n/a	n/a	n/a	-999	-1	[0, 0, 0]	n/a	catFR1	5	R1395M
134.431	10.349	299995	COUNTDOWN_START	n/a	n/a	n/a	n/a	-999	1	[0, 0, 0]	n/a	catFR1	5	R1395M
144.78	0.0	310346	COUNTDOWN_END	n/a	n/a	n/a	n/a	-999	1	[0, 0, 0]	n/a	catFR1	5	R1395M
144.78	2.084	310346	ENCODING_START	n/a	n/a	n/a	n/a	-999	1	[0, 0, 0]	n/a	catFR1	5	R1395M
146.864	1.617	312423	WORD	n/a	wordpools/wordpool_categorized_EN.txt	RADIO	Electronics	1	1	[0, 0, 0]	n/a	catFR1	5	R1395M
148.481	0.767	314042	WORD_OFF	n/a	n/a	RADIO	Electronics	1	1	[0, 0, 0]	n/a	catFR1	5	R1395M
149.248	1.6	314810	WORD	n/a	wordpools/wordpool_categorized_EN.txt	TABLET	Electronics	2	1	[0, 0, 0]	n/a	catFR1	5	R1395M
150.848	0.799	316410	WORD_OFF	n/a	n/a	TABLET	Electronics	2	1	[0, 0, 0]	n/a	catFR1	5	R1395M
151.647	1.617	317215	WORD	n/a	wordpools/wordpool_categorized_EN.txt	FOOT	BodyParts	3	1	[0, 0, 0]	n/a	catFR1	5	R1395M
153.264	0.9	318824	WORD_OFF	n/a	n/a	FOOT	BodyParts	3	1	[0, 0, 0]	n/a	catFR1	5	R1395M
154.164	1.617	319732	WORD	n/a	wordpools/wordpool_categorized_EN.txt	HAND	BodyParts	4	1	[0, 0, 0]	n/a	catFR1	5	R1395M
155.781	0.9	321342	WORD_OFF	n/a	n/a	HAND	BodyParts	4	1	[0, 0, 0]	n/a	catFR1	5	R1395M
156.681	1.6	322240	WORD	n/a	wordpools/wordpool_categorized_EN.txt	PENCIL	OfficeSupplies	5	1	[0, 0, 0]	n/a	catFR1	5	R1395M
158.281	0.8	323841	WORD_OFF	n/a	n/a	PENCIL	OfficeSupplies	5	1	[0, 0, 0]	n/a	catFR1	5	R1395M
159.081	1.6	324645	WORD	n/a	wordpools/wordpool_categorized_EN.txt	STAPLER	OfficeSupplies	6	1	[0, 0, 0]	n/a	catFR1	5	R1395M
160.681	0.932	326246	WORD_OFF	n/a	n/a	STAPLER	OfficeSupplies	6	1	[0, 0, 0]	n/a	catFR1	5	R1395M
161.613	1.601	327182	WORD	n/a	wordpools/wordpool_categorized_EN.txt	STEREO	Electronics	7	1	[0, 0, 0]	n/a	catFR1	5	R1395M
163.214	0.883	328772	WORD_OFF	n/a	n/a	STEREO	Electronics	7	1	[0, 0, 0]	n/a	catFR1	5	R1395M
164.097	1.6	329662	WORD	n/a	wordpools/wordpool_categorized_EN.txt	MICROWAVE	Electronics	8	1	[0, 0, 0]	n/a	catFR1	5	R1395M
165.697	0.784	331262	WORD_OFF	n/a	n/a	MICROWAVE	Electronics	8	1	[0, 0, 0]	n/a	catFR1	5	R1395M
166.481	1.6	332048	WORD	n/a	wordpools/wordpool_categorized_EN.txt	NOSE	BodyParts	9	1	[0, 0, 0]	n/a	catFR1	5	R1395M
168.081	0.966	333648	WORD_OFF	n/a	n/a	NOSE	BodyParts	9	1	[0, 0, 0]	n/a	catFR1	5	R1395M
169.047	1.6	334612	WORD	n/a	wordpools/wordpool_categorized_EN.txt	ARM	BodyParts	10	1	[0, 0, 0]	n/a	catFR1	5	R1395M
170.647	0.766	336212	WORD_OFF	n/a	n/a	ARM	BodyParts	10	1	[0, 0, 0]	n/a	catFR1	5	R1395M
171.413	1.601	336980	WORD	n/a	wordpools/wordpool_categorized_EN.txt	TAPE	OfficeSupplies	11	1	[0, 0, 0]	n/a	catFR1	5	R1395M
173.014	0.767	338580	WORD_OFF	n/a	n/a	TAPE	OfficeSupplies	11	1	[0, 0, 0]	n/a	catFR1	5	R1395M
173.781	1.6	339348	WORD	n/a	wordpools/wordpool_categorized_EN.txt	FOLDER	OfficeSupplies	12	1	[0, 0, 0]	n/a	catFR1	5	R1395M
175.381	0.002	340942	PROB	0.002	n/a	n/a	n/a	-999	1	[8, 1, 6]	14	catFR1	5	R1395M
175.383	0.0	340944	START	n/a	n/a	n/a	n/a	-999	1	[-999, -999, -999]	n/a	catFR1	5	R1395M
175.381	0.001	340948	WORD_OFF	n/a	n/a	FOLDER	OfficeSupplies	12	1	[0, 0, 0]	n/a	catFR1	5	R1395M
175.382	0.001	340948	ENCODING_END	n/a	n/a	n/a	n/a	-999	1	[0, 0, 0]	n/a	catFR1	5	R1395M
175.383	4.798	340948	DISTRACT_START	n/a	n/a	n/a	n/a	-999	1	[0, 0, 0]	n/a	catFR1	5	R1395M
180.181	2.7	345742	PROB	2.7	n/a	n/a	n/a	-999	1	[5, 4, 6]	15	catFR1	5	R1395M
182.881	2.2	348442	PROB	2.2	n/a	n/a	n/a	-999	1	[2, 8, 5]	15	catFR1	5	R1395M
185.081	2.749	350642	PROB	2.749	n/a	n/a	n/a	-999	1	[7, 6, 1]	14	catFR1	5	R1395M
187.83	2.117	353391	PROB	2.117	n/a	n/a	n/a	-999	1	[8, 7, 2]	17	catFR1	5	R1395M
189.947	3.301	355507	PROB	3.301	n/a	n/a	n/a	-999	1	[3, 1, 2]	6	catFR1	5	R1395M
193.248	2.084	358808	PROB	2.084	n/a	n/a	n/a	-999	1	[1, 3, 1]	5	catFR1	5	R1395M
195.332	2.165	360892	PROB	2.165	n/a	n/a	n/a	-999	1	[1, 2, 6]	9	catFR1	5	R1395M
197.497	0.0	363057	STOP	n/a	n/a	n/a	n/a	-999	1	[-999, -999, -999]	n/a	catFR1	5	R1395M
197.497	2.1	363062	DISTRACT_END	n/a	n/a	n/a	n/a	-999	1	[0, 0, 0]	n/a	catFR1	5	R1395M
199.597	2.805	365157	REC_START	n/a	n/a	n/a	n/a	-999	1	[0, 0, 0]	n/a	catFR1	5	R1395M
202.402	0.998	367962	REC_WORD	0.998	n/a	PENCIL	OfficeSupplies	5	1	[0, 0, 0]	n/a	catFR1	5	R1395M
203.4	0.635	368960	REC_WORD_VV	0.635	n/a	<>	n/a	-999	1	[0, 0, 0]	n/a	catFR1	5	R1395M
204.035	0.389	369595	REC_WORD	0.389	n/a	PENCIL	OfficeSupplies	5	1	[0, 0, 0]	n/a	catFR1	5	R1395M
204.424	5.251	369984	REC_WORD	5.251	n/a	STAPLER	OfficeSupplies	6	1	[0, 0, 0]	n/a	catFR1	5	R1395M
209.675	5.754	375234	REC_WORD	5.754	n/a	STEREO	Electronics	7	1	[0, 0, 0]	n/a	catFR1	5	R1395M
215.429	2.31	380988	REC_WORD	2.31	n/a	HAND	BodyParts	4	1	[0, 0, 0]	n/a	catFR1	5	R1395M
217.739	9.703	383298	REC_WORD	9.703	n/a	FOOT	BodyParts	3	1	[0, 0, 0]	n/a	catFR1	5	R1395M
227.442	2.379	393001	REC_WORD	2.379	n/a	ARM	BodyParts	10	1	[0, 0, 0]	n/a	catFR1	5	R1395M
229.821	2.577	395377	REC_END	n/a	n/a	n/a	n/a	-999	1	[0, 0, 0]	n/a	catFR1	5	R1395M
232.398	10.35	397960	COUNTDOWN_START	n/a	n/a	n/a	n/a	-999	2	[0, 0, 0]	n/a	catFR1	5	R1395M
242.748	0.0	408310	COUNTDOWN_END	n/a	n/a	n/a	n/a	-999	2	[0, 0, 0]	n/a	catFR1	5	R1395M
242.748	2.032	408310	ENCODING_START	n/a	n/a	n/a	n/a	-999	2	[0, 0, 0]	n/a	catFR1	5	R1395M
244.78	1.6	410341	WORD	n/a	wordpools/wordpool_categorized_EN.txt	JEEP	Vehicles	1	2	[0, 0, 0]	n/a	catFR1	5	R1395M
246.38	0.784	411941	WORD_OFF	n/a	n/a	JEEP	Vehicles	1	2	[0, 0, 0]	n/a	catFR1	5	R1395M
247.164	1.6	412727	WORD	n/a	wordpools/wordpool_categorized_EN.txt	VAN	Vehicles	2	2	[0, 0, 0]	n/a	catFR1	5	R1395M
248.764	0.833	414318	WORD_OFF	n/a	n/a	VAN	Vehicles	2	2	[0, 0, 0]	n/a	catFR1	5	R1395M
249.597	1.6	415151	WORD	n/a	wordpools/wordpool_categorized_EN.txt	LINEN	Fabric	3	2	[0, 0, 0]	n/a	catFR1	5	R1395M
251.197	0.966	416752	WORD_OFF	n/a	n/a	LINEN	Fabric	3	2	[0, 0, 0]	n/a	catFR1	5	R1395M
252.163	1.601	417725	WORD	n/a	wordpools/wordpool_categorized_EN.txt	COTTON	Fabric	4	2	[0, 0, 0]	n/a	catFR1	5	R1395M
253.764	0.817	419325	WORD_OFF	n/a	n/a	COTTON	Fabric	4	2	[0, 0, 0]	n/a	catFR1	5	R1395M
254.581	1.616	420139	WORD	n/a	wordpools/wordpool_categorized_EN.txt	GOAT	FarmAnimals	5	2	[0, 0, 0]	n/a	catFR1	5	R1395M
256.197	0.784	421758	WORD_OFF	n/a	n/a	GOAT	FarmAnimals	5	2	[0, 0, 0]	n/a	catFR1	5	R1395M
256.981	1.6	422535	WORD	n/a	wordpools/wordpool_categorized_EN.txt	LAMB	FarmAnimals	6	2	[0, 0, 0]	n/a	catFR1	5	R1395M
258.581	0.933	424135	WORD_OFF	n/a	n/a	LAMB	FarmAnimals	6	2	[0, 0, 0]	n/a	catFR1	5	R1395M
259.514	1.6	425071	WORD	n/a	wordpools/wordpool_categorized_EN.txt	BOAT	Vehicles	7	2	[0, 0, 0]	n/a	catFR1	5	R1395M
261.114	0.95	426672	WORD_OFF	n/a	n/a	BOAT	Vehicles	7	2	[0, 0, 0]	n/a	catFR1	5	R1395M
262.064	1.6	427626	WORD	n/a	wordpools/wordpool_categorized_EN.txt	SCOOTER	Vehicles	8	2	[0, 0, 0]	n/a	catFR1	5	R1395M
263.664	0.883	429221	WORD_OFF	n/a	n/a	SCOOTER	Vehicles	8	2	[0, 0, 0]	n/a	catFR1	5	R1395M
264.547	1.617	430106	WORD	n/a	wordpools/wordpool_categorized_EN.txt	SHEEP	FarmAnimals	9	2	[0, 0, 0]	n/a	catFR1	5	R1395M
266.164	0.95	431725	WORD_OFF	n/a	n/a	SHEEP	FarmAnimals	9	2	[0, 0, 0]	n/a	catFR1	5	R1395M
267.114	1.616	432670	WORD	n/a	wordpools/wordpool_categorized_EN.txt	CHICKEN	FarmAnimals	10	2	[0, 0, 0]	n/a	catFR1	5	R1395M
268.73	0.867	434289	WORD_OFF	n/a	n/a	CHICKEN	FarmAnimals	10	2	[0, 0, 0]	n/a	catFR1	5	R1395M
269.597	1.6	435150	WORD	n/a	wordpools/wordpool_categorized_EN.txt	WOOL	Fabric	11	2	[0, 0, 0]	n/a	catFR1	5	R1395M
271.197	0.767	436751	WORD_OFF	n/a	n/a	WOOL	Fabric	11	2	[0, 0, 0]	n/a	catFR1	5	R1395M
271.964	1.6	437518	WORD	n/a	wordpools/wordpool_categorized_EN.txt	FLEECE	Fabric	12	2	[0, 0, 0]	n/a	catFR1	5	R1395M
273.564	0.0	439118	WORD_OFF	n/a	n/a	FLEECE	Fabric	12	2	[0, 0, 0]	n/a	catFR1	5	R1395M
273.564	0.001	439120	PROB	0.001	n/a	n/a	n/a	-999	2	[7, 6, 3]	16	catFR1	5	R1395M
273.565	0.0	439121	START	n/a	n/a	n/a	n/a	-999	2	[-999, -999, -999]	n/a	catFR1	5	R1395M
273.565	0.0	439128	ENCODING_END	n/a	n/a	n/a	n/a	-999	2	[0, 0, 0]	n/a	catFR1	5	R1395M
273.565	4.35	439128	DISTRACT_START	n/a	n/a	n/a	n/a	-999	2	[0, 0, 0]	n/a	catFR1	5	R1395M
277.915	2.366	443471	PROB	2.366	n/a	n/a	n/a	-999	2	[5, 3, 7]	15	catFR1	5	R1395M
280.281	2.233	445837	PROB	2.233	n/a	n/a	n/a	-999	2	[8, 1, 8]	17	catFR1	5	R1395M
282.514	2.966	448070	PROB	2.966	n/a	n/a	n/a	-999	2	[8, 1, 7]	16	catFR1	5	R1395M
285.48	2.701	451035	PROB	2.701	n/a	n/a	n/a	-999	2	[4, 8, 6]	18	catFR1	5	R1395M
288.181	2.266	453736	PROB	2.266	n/a	n/a	n/a	-999	2	[5, 2, 1]	8	catFR1	5	R1395M
290.447	2.017	456002	PROB	2.017	n/a	n/a	n/a	-999	2	[5, 1, 2]	8	catFR1	5	R1395M
292.464	2.4	458019	PROB	2.4	n/a	n/a	n/a	-999	2	[6, 3, 7]	16	catFR1	5	R1395M
294.864	0.0	460418	DISTRACT_END	n/a	n/a	n/a	n/a	-999	2	[0, 0, 0]	n/a	catFR1	5	R1395M
294.864	2.117	460419	STOP	n/a	n/a	n/a	n/a	-999	2	[-999, -999, -999]	n/a	catFR1	5	R1395M
296.981	2.385	462541	REC_START	n/a	n/a	n/a	n/a	-999	2	[0, 0, 0]	n/a	catFR1	5	R1395M
299.366	1.374	464921	REC_WORD	1.374	n/a	JEEP	Vehicles	1	2	[0, 0, 0]	n/a	catFR1	5	R1395M
300.74	2.302	466295	REC_WORD	2.302	n/a	VAN	Vehicles	2	2	[0, 0, 0]	n/a	catFR1	5	R1395M
303.042	2.312	468596	REC_WORD	2.312	n/a	SHEEP	FarmAnimals	9	2	[0, 0, 0]	n/a	catFR1	5	R1395M
305.354	2.128	470908	REC_WORD	2.128	n/a	GOAT	FarmAnimals	5	2	[0, 0, 0]	n/a	catFR1	5	R1395M
307.482	2.05	473036	REC_WORD	2.05	n/a	COTTON	Fabric	4	2	[0, 0, 0]	n/a	catFR1	5	R1395M
309.532	2.233	475086	REC_WORD	2.233	n/a	WOOL	Fabric	11	2	[0, 0, 0]	n/a	catFR1	5	R1395M
311.765	6.353	477319	REC_WORD	6.353	n/a	LINEN	Fabric	3	2	[0, 0, 0]	n/a	catFR1	5	R1395M
318.118	9.087	483672	REC_WORD	9.087	n/a	BOAT	Vehicles	7	2	[0, 0, 0]	n/a	catFR1	5	R1395M
327.205	2.559	492761	REC_END	n/a	n/a	n/a	n/a	-999	2	[0, 0, 0]	n/a	catFR1	5	R1395M
329.764	10.351	495316	COUNTDOWN_START	n/a	n/a	n/a	n/a	-999	3	[0, 0, 0]	n/a	catFR1	5	R1395M
340.115	0.0	505667	COUNTDOWN_END	n/a	n/a	n/a	n/a	-999	3	[0, 0, 0]	n/a	catFR1	5	R1395M
340.115	1.982	505667	ENCODING_START	n/a	n/a	n/a	n/a	-999	3	[0, 0, 0]	n/a	catFR1	5	R1395M
342.097	1.617	507651	WORD	n/a	wordpools/wordpool_categorized_EN.txt	RULER	OfficeSupplies	1	3	[0, 0, 0]	n/a	catFR1	5	R1395M
343.714	0.95	509270	WORD_OFF	n/a	n/a	RULER	OfficeSupplies	1	3	[0, 0, 0]	n/a	catFR1	5	R1395M
344.664	1.6	510215	WORD	n/a	wordpools/wordpool_categorized_EN.txt	GLUE	OfficeSupplies	2	3	[0, 0, 0]	n/a	catFR1	5	R1395M
346.264	0.767	511815	WORD_OFF	n/a	n/a	GLUE	OfficeSupplies	2	3	[0, 0, 0]	n/a	catFR1	5	R1395M
347.031	1.6	512582	WORD	n/a	wordpools/wordpool_categorized_EN.txt	BIKE	Vehicles	3	3	[0, 0, 0]	n/a	catFR1	5	R1395M
348.631	1.0	514183	WORD_OFF	n/a	n/a	BIKE	Vehicles	3	3	[0, 0, 0]	n/a	catFR1	5	R1395M
349.631	1.615	515184	WORD	n/a	wordpools/wordpool_categorized_EN.txt	MOTORCYCLE	Vehicles	4	3	[0, 0, 0]	n/a	catFR1	5	R1395M
351.246	0.785	516803	WORD_OFF	n/a	n/a	MOTORCYCLE	Vehicles	4	3	[0, 0, 0]	n/a	catFR1	5	R1395M
352.031	1.599	517580	WORD	n/a	wordpools/wordpool_categorized_EN.txt	LADLE	KitchenTools	5	3	[0, 0, 0]	n/a	catFR1	5	R1395M
353.63	0.884	519180	WORD_OFF	n/a	n/a	LADLE	KitchenTools	5	3	[0, 0, 0]	n/a	catFR1	5	R1395M
354.514	1.6	520069	WORD	n/a	wordpools/wordpool_categorized_EN.txt	COLANDER	KitchenTools	6	3	[0, 0, 0]	n/a	catFR1	5	R1395M
356.114	0.866	521670	WORD_OFF	n/a	n/a	COLANDER	KitchenTools	6	3	[0, 0, 0]	n/a	catFR1	5	R1395M
356.98	1.617	522531	WORD	n/a	wordpools/wordpool_categorized_EN.txt	TRUCK	Vehicles	7	3	[0, 0, 0]	n/a	catFR1	5	R1395M
358.597	0.967	524150	WORD_OFF	n/a	n/a	TRUCK	Vehicles	7	3	[0, 0, 0]	n/a	catFR1	5	R1395M
359.564	1.6	525113	WORD	n/a	wordpools/wordpool_categorized_EN.txt	PLANE	Vehicles	8	3	[0, 0, 0]	n/a	catFR1	5	R1395M
361.164	1.0	526714	WORD_OFF	n/a	n/a	PLANE	Vehicles	8	3	[0, 0, 0]	n/a	catFR1	5	R1395M
362.164	1.6	527715	WORD	n/a	wordpools/wordpool_categorized_EN.txt	MARKER	OfficeSupplies	9	3	[0, 0, 0]	n/a	catFR1	5	R1395M
363.764	0.983	529315	WORD_OFF	n/a	n/a	MARKER	OfficeSupplies	9	3	[0, 0, 0]	n/a	catFR1	5	R1395M
364.747	1.617	530298	WORD	n/a	wordpools/wordpool_categorized_EN.txt	ERASER	OfficeSupplies	10	3	[0, 0, 0]	n/a	catFR1	5	R1395M
366.364	0.983	531917	WORD_OFF	n/a	n/a	ERASER	OfficeSupplies	10	3	[0, 0, 0]	n/a	catFR1	5	R1395M
367.347	1.6	532900	WORD	n/a	wordpools/wordpool_categorized_EN.txt	WHISK	KitchenTools	11	3	[0, 0, 0]	n/a	catFR1	5	R1395M
368.947	0.8	534500	WORD_OFF	n/a	n/a	WHISK	KitchenTools	11	3	[0, 0, 0]	n/a	catFR1	5	R1395M
369.747	1.616	535296	WORD	n/a	wordpools/wordpool_categorized_EN.txt	PEELER	KitchenTools	12	3	[0, 0, 0]	n/a	catFR1	5	R1395M
371.363	0.002	536915	WORD_OFF	n/a	n/a	PEELER	KitchenTools	12	3	[0, 0, 0]	n/a	catFR1	5	R1395M
371.365	0.0	536915	ENCODING_END	n/a	n/a	n/a	n/a	-999	3	[0, 0, 0]	n/a	catFR1	5	R1395M
371.365	0.0	536915	DISTRACT_START	n/a	n/a	n/a	n/a	-999	3	[0, 0, 0]	n/a	catFR1	5	R1395M
371.364	0.001	536915	PROB	0.001	n/a	n/a	n/a	-999	3	[4, 3, 6]	13	catFR1	5	R1395M
371.365	3.599	536916	START	n/a	n/a	n/a	n/a	-999	3	[-999, -999, -999]	n/a	catFR1	5	R1395M
374.964	2.167	540515	PROB	2.167	n/a	n/a	n/a	-999	3	[8, 6, 5]	19	catFR1	5	R1395M
377.131	2.617	542681	PROB	2.617	n/a	n/a	n/a	-999	3	[8, 3, 2]	13	catFR1	5	R1395M
379.748	1.799	545298	PROB	1.799	n/a	n/a	n/a	-999	3	[2, 1, 6]	9	catFR1	5	R1395M
381.547	1.903	547097	PROB	1.903	n/a	n/a	n/a	-999	3	[1, 5, 5]	11	catFR1	5	R1395M
383.45	2.447	549000	PROB	2.447	n/a	n/a	n/a	-999	3	[2, 8, 4]	14	catFR1	5	R1395M
385.897	2.067	551447	PROB	2.067	n/a	n/a	n/a	-999	3	[8, 1, 7]	16	catFR1	5	R1395M
387.964	1.868	553514	PROB	1.868	n/a	n/a	n/a	-999	3	[1, 2, 4]	7	catFR1	5	R1395M
389.832	2.849	555382	PROB	2.849	n/a	n/a	n/a	-999	3	[8, 3, 6]	17	catFR1	5	R1395M
392.681	0.0	558231	STOP	n/a	n/a	n/a	n/a	-999	3	[-999, -999, -999]	n/a	catFR1	5	R1395M
392.681	2.017	558233	DISTRACT_END	n/a	n/a	n/a	n/a	-999	3	[0, 0, 0]	n/a	catFR1	5	R1395M
394.698	2.823	560244	REC_START	n/a	n/a	n/a	n/a	-999	3	[0, 0, 0]	n/a	catFR1	5	R1395M
397.521	0.999	563070	REC_WORD	0.999	n/a	MOTORCYCLE	Vehicles	4	3	[0, 0, 0]	n/a	catFR1	5	R1395M
398.52	1.396	564069	REC_WORD_VV	1.396	n/a	<>	n/a	-999	3	[0, 0, 0]	n/a	catFR1	5	R1395M
399.916	1.557	565465	REC_WORD	1.557	n/a	BIKE	Vehicles	3	3	[0, 0, 0]	n/a	catFR1	5	R1395M
401.473	1.934	567022	REC_WORD	1.934	n/a	TRUCK	Vehicles	7	3	[0, 0, 0]	n/a	catFR1	5	R1395M
403.407	3.697	568956	REC_WORD	3.697	n/a	PLANE	Vehicles	8	3	[0, 0, 0]	n/a	catFR1	5	R1395M
407.104	2.016	572653	REC_WORD	2.016	n/a	PENCIL	OfficeSupplies	-999	3	[0, 0, 0]	n/a	catFR1	5	R1395M
409.12	2.311	574669	REC_WORD	2.311	n/a	ERASER	OfficeSupplies	10	3	[0, 0, 0]	n/a	catFR1	5	R1395M
411.431	2.164	576980	REC_WORD	2.164	n/a	MARKER	OfficeSupplies	9	3	[0, 0, 0]	n/a	catFR1	5	R1395M
413.595	2.264	579144	REC_WORD	2.264	n/a	RULER	OfficeSupplies	1	3	[0, 0, 0]	n/a	catFR1	5	R1395M
415.859	9.065	581407	REC_WORD	9.065	n/a	GLUE	OfficeSupplies	2	3	[0, 0, 0]	n/a	catFR1	5	R1395M
424.924	34.406	590473	REC_END	n/a	n/a	n/a	n/a	-999	3	[0, 0, 0]	n/a	catFR1	5	R1395M
459.33	10.351	624875	COUNTDOWN_START	n/a	n/a	n/a	n/a	-999	4	[0, 0, 0]	n/a	catFR1	5	R1395M
469.681	0.001	635225	COUNTDOWN_END	n/a	n/a	n/a	n/a	-999	4	[0, 0, 0]	n/a	catFR1	5	R1395M
469.682	2.182	635235	ENCODING_START	n/a	n/a	n/a	n/a	-999	4	[0, 0, 0]	n/a	catFR1	5	R1395M
471.864	1.617	637407	WORD	n/a	wordpools/wordpool_categorized_EN.txt	BEACH	Landscapes	1	4	[0, 0, 0]	n/a	catFR1	5	R1395M
473.481	0.999	639025	WORD_OFF	n/a	n/a	BEACH	Landscapes	1	4	[0, 0, 0]	n/a	catFR1	5	R1395M
474.48	1.601	640026	WORD	n/a	wordpools/wordpool_categorized_EN.txt	OCEAN	Landscapes	2	4	[0, 0, 0]	n/a	catFR1	5	R1395M
476.081	0.816	641627	WORD_OFF	n/a	n/a	OCEAN	Landscapes	2	4	[0, 0, 0]	n/a	catFR1	5	R1395M
476.897	1.617	642441	WORD	n/a	wordpools/wordpool_categorized_EN.txt	COOKIE	Desserts	3	4	[0, 0, 0]	n/a	catFR1	5	R1395M
478.514	1.0	644060	WORD_OFF	n/a	n/a	COOKIE	Desserts	3	4	[0, 0, 0]	n/a	catFR1	5	R1395M
479.514	1.6	645061	WORD	n/a	wordpools/wordpool_categorized_EN.txt	CUPCAKE	Desserts	4	4	[0, 0, 0]	n/a	catFR1	5	R1395M
481.114	0.917	646661	WORD_OFF	n/a	n/a	CUPCAKE	Desserts	4	4	[0, 0, 0]	n/a	catFR1	5	R1395M
482.031	1.6	647579	WORD	n/a	wordpools/wordpool_categorized_EN.txt	FLUTE	Instruments	5	4	[0, 0, 0]	n/a	catFR1	5	R1395M
483.631	0.766	649179	WORD_OFF	n/a	n/a	FLUTE	Instruments	5	4	[0, 0, 0]	n/a	catFR1	5	R1395M
484.397	1.6	649946	WORD	n/a	wordpools/wordpool_categorized_EN.txt	DRUM	Instruments	6	4	[0, 0, 0]	n/a	catFR1	5	R1395M
485.997	0.85	651547	WORD_OFF	n/a	n/a	DRUM	Instruments	6	4	[0, 0, 0]	n/a	catFR1	5	R1395M
486.847	1.617	652389	WORD	n/a	wordpools/wordpool_categorized_EN.txt	FOREST	Landscapes	7	4	[0, 0, 0]	n/a	catFR1	5	R1395M
488.464	0.966	654008	WORD_OFF	n/a	n/a	FOREST	Landscapes	7	4	[0, 0, 0]	n/a	catFR1	5	R1395M
489.43	1.601	654972	WORD	n/a	wordpools/wordpool_categorized_EN.txt	CREEK	Landscapes	8	4	[0, 0, 0]	n/a	catFR1	5	R1395M
491.031	0.783	656572	WORD_OFF	n/a	n/a	CREEK	Landscapes	8	4	[0, 0, 0]	n/a	catFR1	5	R1395M
491.814	1.6	657358	WORD	n/a	wordpools/wordpool_categorized_EN.txt	PASTRY	Desserts	9	4	[0, 0, 0]	n/a	catFR1	5	R1395M
493.414	0.85	658959	WORD_OFF	n/a	n/a	PASTRY	Desserts	9	4	[0, 0, 0]	n/a	catFR1	5	R1395M
494.264	1.6	659810	WORD	n/a	wordpools/wordpool_categorized_EN.txt	CAKE	Desserts	10	4	[0, 0, 0]	n/a	catFR1	5	R1395M
495.864	0.967	661410	WORD_OFF	n/a	n/a	CAKE	Desserts	10	4	[0, 0, 0]	n/a	catFR1	5	R1395M
496.831	1.6	662374	WORD	n/a	wordpools/wordpool_categorized_EN.txt	BASS	Instruments	11	4	[0, 0, 0]	n/a	catFR1	5	R1395M
498.431	0.9	663975	WORD_OFF	n/a	n/a	BASS	Instruments	11	4	[0, 0, 0]	n/a	catFR1	5	R1395M
499.331	1.6	664873	WORD	n/a	wordpools/wordpool_categorized_EN.txt	GUITAR	Instruments	12	4	[0, 0, 0]	n/a	catFR1	5	R1395M
500.931	0.001	666473	WORD_OFF	n/a	n/a	GUITAR	Instruments	12	4	[0, 0, 0]	n/a	catFR1	5	R1395M
500.932	0.0	666473	ENCODING_END	n/a	n/a	n/a	n/a	-999	4	[0, 0, 0]	n/a	catFR1	5	R1395M
500.931	0.001	666475	PROB	0.001	n/a	n/a	n/a	-999	4	[6, 1, 2]	9	catFR1	5	R1395M
500.932	0.0	666476	START	n/a	n/a	n/a	n/a	-999	4	[-999, -999, -999]	n/a	catFR1	5	R1395M
500.932	4.249	666483	DISTRACT_START	n/a	n/a	n/a	n/a	-999	4	[0, 0, 0]	n/a	catFR1	5	R1395M
505.181	1.9	670725	PROB	1.9	n/a	n/a	n/a	-999	4	[4, 5, 3]	12	catFR1	5	R1395M
507.081	2.449	672625	PROB	2.449	n/a	n/a	n/a	-999	4	[2, 5, 8]	15	catFR1	5	R1395M
509.53	2.234	675073	PROB	2.234	n/a	n/a	n/a	-999	4	[5, 5, 8]	18	catFR1	5	R1395M
511.764	2.501	677307	PROB	2.501	n/a	n/a	n/a	-999	4	[2, 3, 8]	13	catFR1	5	R1395M
514.265	2.083	679808	PROB	2.083	n/a	n/a	n/a	-999	4	[3, 3, 8]	14	catFR1	5	R1395M
516.348	1.967	681891	PROB	1.967	n/a	n/a	n/a	-999	4	[6, 4, 7]	17	catFR1	5	R1395M
518.315	2.365	683858	PROB	2.365	n/a	n/a	n/a	-999	4	[7, 4, 2]	13	catFR1	5	R1395M
520.68	2.834	686223	PROB	2.834	n/a	n/a	n/a	-999	4	[8, 3, 2]	13	catFR1	5	R1395M
523.514	0.0	689055	DISTRACT_END	n/a	n/a	n/a	n/a	-999	4	[0, 0, 0]	n/a	catFR1	5	R1395M
523.514	2.133	689057	STOP	n/a	n/a	n/a	n/a	-999	4	[-999, -999, -999]	n/a	catFR1	5	R1395M
525.647	2.624	691188	REC_START	n/a	n/a	n/a	n/a	-999	4	[0, 0, 0]	n/a	catFR1	5	R1395M
528.271	1.685	693814	REC_WORD	1.685	n/a	FLUTE	Instruments	5	4	[0, 0, 0]	n/a	catFR1	5	R1395M
529.956	2.797	695498	REC_WORD	2.797	n/a	DRUM	Instruments	6	4	[0, 0, 0]	n/a	catFR1	5	R1395M
532.753	2.358	698295	REC_WORD	2.358	n/a	GUITAR	Instruments	12	4	[0, 0, 0]	n/a	catFR1	5	R1395M
535.111	2.159	700653	REC_WORD	2.159	n/a	BEACH	Landscapes	1	4	[0, 0, 0]	n/a	catFR1	5	R1395M
537.27	3.158	702812	REC_WORD	3.158	n/a	OCEAN	Landscapes	2	4	[0, 0, 0]	n/a	catFR1	5	R1395M
540.428	3.505	705970	REC_WORD	3.505	n/a	FOREST	Landscapes	7	4	[0, 0, 0]	n/a	catFR1	5	R1395M
543.933	11.931	709475	REC_WORD	11.931	n/a	CREEK	Landscapes	8	4	[0, 0, 0]	n/a	catFR1	5	R1395M
555.864	3.0	721408	REC_END	n/a	n/a	n/a	n/a	-999	4	[0, 0, 0]	n/a	catFR1	5	R1395M
558.864	10.351	724412	COUNTDOWN_START	n/a	n/a	n/a	n/a	-999	5	[0, 0, 0]	n/a	catFR1	5	R1395M
569.215	0.0	734753	COUNTDOWN_END	n/a	n/a	n/a	n/a	-999	5	[0, 0, 0]	n/a	catFR1	5	R1395M
569.215	2.149	734762	ENCODING_START	n/a	n/a	n/a	n/a	-999	5	[0, 0, 0]	n/a	catFR1	5	R1395M
571.364	1.616	736905	WORD	n/a	wordpools/wordpool_categorized_EN.txt	UNDERWEAR	Clothing	1	5	[0, 0, 0]	n/a	catFR1	5	R1395M
572.98	0.801	738524	WORD_OFF	n/a	n/a	UNDERWEAR	Clothing	1	5	[0, 0, 0]	n/a	catFR1	5	R1395M
573.781	1.6	739320	WORD	n/a	wordpools/wordpool_categorized_EN.txt	BLOUSE	Clothing	2	5	[0, 0, 0]	n/a	catFR1	5	R1395M
575.381	0.95	740920	WORD_OFF	n/a	n/a	BLOUSE	Clothing	2	5	[0, 0, 0]	n/a	catFR1	5	R1395M
576.331	1.6	741875	WORD	n/a	wordpools/wordpool_categorized_EN.txt	PETUNIA	Flowers	3	5	[0, 0, 0]	n/a	catFR1	5	R1395M
577.931	0.95	743475	WORD_OFF	n/a	n/a	PETUNIA	Flowers	3	5	[0, 0, 0]	n/a	catFR1	5	R1395M
578.881	1.616	744420	WORD	n/a	wordpools/wordpool_categorized_EN.txt	VIOLET	Flowers	4	5	[0, 0, 0]	n/a	catFR1	5	R1395M
580.497	0.901	746039	WORD_OFF	n/a	n/a	VIOLET	Flowers	4	5	[0, 0, 0]	n/a	catFR1	5	R1395M
581.398	1.6	746938	WORD	n/a	wordpools/wordpool_categorized_EN.txt	TEA	Beverages	5	5	[0, 0, 0]	n/a	catFR1	5	R1395M
582.998	0.816	748538	WORD_OFF	n/a	n/a	TEA	Beverages	5	5	[0, 0, 0]	n/a	catFR1	5	R1395M
583.814	1.6	749352	WORD	n/a	wordpools/wordpool_categorized_EN.txt	WINE	Beverages	6	5	[0, 0, 0]	n/a	catFR1	5	R1395M
585.414	0.999	750952	WORD_OFF	n/a	n/a	WINE	Beverages	6	5	[0, 0, 0]	n/a	catFR1	5	R1395M
586.413	1.601	751954	WORD	n/a	wordpools/wordpool_categorized_EN.txt	DAFFODIL	Flowers	7	5	[0, 0, 0]	n/a	catFR1	5	R1395M
588.014	1.0	753554	WORD_OFF	n/a	n/a	DAFFODIL	Flowers	7	5	[0, 0, 0]	n/a	catFR1	5	R1395M
589.014	1.6	754555	WORD	n/a	wordpools/wordpool_categorized_EN.txt	MARIGOLD	Flowers	8	5	[0, 0, 0]	n/a	catFR1	5	R1395M
590.614	0.833	756156	WORD_OFF	n/a	n/a	MARIGOLD	Flowers	8	5	[0, 0, 0]	n/a	catFR1	5	R1395M
591.447	1.6	756989	WORD	n/a	wordpools/wordpool_categorized_EN.txt	COLA	Beverages	9	5	[0, 0, 0]	n/a	catFR1	5	R1395M
593.047	0.9	758589	WORD_OFF	n/a	n/a	COLA	Beverages	9	5	[0, 0, 0]	n/a	catFR1	5	R1395M
593.947	1.6	759487	WORD	n/a	wordpools/wordpool_categorized_EN.txt	RUM	Beverages	10	5	[0, 0, 0]	n/a	catFR1	5	R1395M
595.547	0.8	761088	WORD_OFF	n/a	n/a	RUM	Beverages	10	5	[0, 0, 0]	n/a	catFR1	5	R1395M
596.347	1.6	761883	WORD	n/a	wordpools/wordpool_categorized_EN.txt	DRESS	Clothing	11	5	[0, 0, 0]	n/a	catFR1	5	R1395M
597.947	0.817	763483	WORD_OFF	n/a	n/a	DRESS	Clothing	11	5	[0, 0, 0]	n/a	catFR1	5	R1395M
598.764	1.617	764307	WORD	n/a	wordpools/wordpool_categorized_EN.txt	JEANS	Clothing	12	5	[0, 0, 0]	n/a	catFR1	5	R1395M
600.381	0.0	765917	WORD_OFF	n/a	n/a	JEANS	Clothing	12	5	[0, 0, 0]	n/a	catFR1	5	R1395M
600.381	0.001	765920	PROB	0.001	n/a	n/a	n/a	-999	5	[1, 1, 8]	10	catFR1	5	R1395M
600.382	0.0	765921	START	n/a	n/a	n/a	n/a	-999	5	[-999, -999, -999]	n/a	catFR1	5	R1395M
600.382	0.0	765926	ENCODING_END	n/a	n/a	n/a	n/a	-999	5	[0, 0, 0]	n/a	catFR1	5	R1395M
600.382	3.565	765926	DISTRACT_START	n/a	n/a	n/a	n/a	-999	5	[0, 0, 0]	n/a	catFR1	5	R1395M
603.947	2.434	769485	PROB	2.434	n/a	n/a	n/a	-999	5	[6, 2, 6]	14	catFR1	5	R1395M
606.381	2.566	771919	PROB	2.566	n/a	n/a	n/a	-999	5	[5, 1, 2]	8	catFR1	5	R1395M
608.947	2.151	774485	PROB	2.151	n/a	n/a	n/a	-999	5	[5, 2, 2]	9	catFR1	5	R1395M
611.098	2.283	776636	PROB	2.283	n/a	n/a	n/a	-999	5	[2, 7, 8]	17	catFR1	5	R1395M
613.381	1.8	778919	PROB	1.8	n/a	n/a	n/a	-999	5	[2, 8, 7]	17	catFR1	5	R1395M
615.181	2.6	780719	PROB	2.6	n/a	n/a	n/a	-999	5	[4, 7, 8]	19	catFR1	5	R1395M
617.781	1.883	783319	PROB	1.883	n/a	n/a	n/a	-999	5	[5, 4, 1]	10	catFR1	5	R1395M
619.664	2.199	785202	PROB	2.199	n/a	n/a	n/a	-999	5	[3, 5, 7]	15	catFR1	5	R1395M
621.863	0.0	787400	STOP	n/a	n/a	n/a	n/a	-999	5	[-999, -999, -999]	n/a	catFR1	5	R1395M
621.863	2.35	787404	DISTRACT_END	n/a	n/a	n/a	n/a	-999	5	[0, 0, 0]	n/a	catFR1	5	R1395M
624.213	1.637	789751	REC_START	n/a	n/a	n/a	n/a	-999	5	[0, 0, 0]	n/a	catFR1	5	R1395M
625.85	1.561	791387	REC_WORD	1.561	n/a	UNDERWEAR	Clothing	1	5	[0, 0, 0]	n/a	catFR1	5	R1395M
627.411	1.799	792948	REC_WORD	1.799	n/a	BLOUSE	Clothing	2	5	[0, 0, 0]	n/a	catFR1	5	R1395M
629.21	1.98	794747	REC_WORD	1.98	n/a	DRESS	Clothing	11	5	[0, 0, 0]	n/a	catFR1	5	R1395M
631.19	17.871	796727	REC_WORD	17.871	n/a	JEANS	Clothing	12	5	[0, 0, 0]	n/a	catFR1	5	R1395M
649.061	0.24	814597	REC_WORD_VV	0.24	n/a	<>	n/a	-999	5	[0, 0, 0]	n/a	catFR1	5	R1395M
649.301	0.903	814837	REC_WORD	0.903	n/a	DAFFODIL	Flowers	7	5	[0, 0, 0]	n/a	catFR1	5	R1395M
650.204	2.569	815740	REC_WORD	2.569	n/a	MARIGOLD	Flowers	8	5	[0, 0, 0]	n/a	catFR1	5	R1395M
652.773	1.636	818309	REC_WORD_VV	1.636	n/a	<>	n/a	-999	5	[0, 0, 0]	n/a	catFR1	5	R1395M
654.409	5.005	819943	REC_END	n/a	n/a	n/a	n/a	-999	5	[0, 0, 0]	n/a	catFR1	5	R1395M
659.414	10.351	824950	COUNTDOWN_START	n/a	n/a	n/a	n/a	-999	6	[0, 0, 0]	n/a	catFR1	5	R1395M
669.765	0.0	835300	COUNTDOWN_END	n/a	n/a	n/a	n/a	-999	6	[0, 0, 0]	n/a	catFR1	5	R1395M
669.765	2.132	835300	ENCODING_START	n/a	n/a	n/a	n/a	-999	6	[0, 0, 0]	n/a	catFR1	5	R1395M
671.897	1.6	837434	WORD	n/a	wordpools/wordpool_categorized_EN.txt	PANTS	Clothing	1	6	[0, 0, 0]	n/a	catFR1	5	R1395M
673.497	0.917	839034	WORD_OFF	n/a	n/a	PANTS	Clothing	1	6	[0, 0, 0]	n/a	catFR1	5	R1395M
674.414	1.616	839952	WORD	n/a	wordpools/wordpool_categorized_EN.txt	SHORTS	Clothing	2	6	[0, 0, 0]	n/a	catFR1	5	R1395M
676.03	0.901	841561	WORD_OFF	n/a	n/a	SHORTS	Clothing	2	6	[0, 0, 0]	n/a	catFR1	5	R1395M
676.931	1.6	842469	WORD	n/a	wordpools/wordpool_categorized_EN.txt	ORGAN	Instruments	3	6	[0, 0, 0]	n/a	catFR1	5	R1395M
678.531	0.816	844069	WORD_OFF	n/a	n/a	ORGAN	Instruments	3	6	[0, 0, 0]	n/a	catFR1	5	R1395M
679.347	1.6	844884	WORD	n/a	wordpools/wordpool_categorized_EN.txt	TUBA	Instruments	4	6	[0, 0, 0]	n/a	catFR1	5	R1395M
680.947	0.917	846484	WORD_OFF	n/a	n/a	TUBA	Instruments	4	6	[0, 0, 0]	n/a	catFR1	5	R1395M
681.864	1.617	847401	WORD	n/a	wordpools/wordpool_categorized_EN.txt	BASKETBALL	Toys	5	6	[0, 0, 0]	n/a	catFR1	5	R1395M
683.481	0.833	849020	WORD_OFF	n/a	n/a	BASKETBALL	Toys	5	6	[0, 0, 0]	n/a	catFR1	5	R1395M
684.314	1.6	849853	WORD	n/a	wordpools/wordpool_categorized_EN.txt	DOLLHOUSE	Toys	6	6	[0, 0, 0]	n/a	catFR1	5	R1395M
685.914	0.767	851453	WORD_OFF	n/a	n/a	DOLLHOUSE	Toys	6	6	[0, 0, 0]	n/a	catFR1	5	R1395M
686.681	1.616	852211	WORD	n/a	wordpools/wordpool_categorized_EN.txt	VIOLIN	Instruments	7	6	[0, 0, 0]	n/a	catFR1	5	R1395M
688.297	0.867	853830	WORD_OFF	n/a	n/a	VIOLIN	Instruments	7	6	[0, 0, 0]	n/a	catFR1	5	R1395M
689.164	1.6	854701	WORD	n/a	wordpools/wordpool_categorized_EN.txt	PIANO	Instruments	8	6	[0, 0, 0]	n/a	catFR1	5	R1395M
690.764	0.916	856301	WORD_OFF	n/a	n/a	PIANO	Instruments	8	6	[0, 0, 0]	n/a	catFR1	5	R1395M
691.68	1.6	857218	WORD	n/a	wordpools/wordpool_categorized_EN.txt	BALL	Toys	9	6	[0, 0, 0]	n/a	catFR1	5	R1395M
693.28	0.85	858818	WORD_OFF	n/a	n/a	BALL	Toys	9	6	[0, 0, 0]	n/a	catFR1	5	R1395M
694.13	1.617	859661	WORD	n/a	wordpools/wordpool_categorized_EN.txt	BLOCKS	Toys	10	6	[0, 0, 0]	n/a	catFR1	5	R1395M
695.747	0.95	861280	WORD_OFF	n/a	n/a	BLOCKS	Toys	10	6	[0, 0, 0]	n/a	catFR1	5	R1395M
696.697	1.6	862234	WORD	n/a	wordpools/wordpool_categorized_EN.txt	SOCKS	Clothing	11	6	[0, 0, 0]	n/a	catFR1	5	R1395M
698.297	0.833	863834	WORD_OFF	n/a	n/a	SOCKS	Clothing	11	6	[0, 0, 0]	n/a	catFR1	5	R1395M
699.13	1.601	864667	WORD	n/a	wordpools/wordpool_categorized_EN.txt	SHIRT	Clothing	12	6	[0, 0, 0]	n/a	catFR1	5	R1395M
700.731	0.002	866264	PROB	0.002	n/a	n/a	n/a	-999	6	[7, 4, 3]	14	catFR1	5	R1395M
700.733	0.0	866266	START	n/a	n/a	n/a	n/a	-999	6	[-999, -999, -999]	n/a	catFR1	5	R1395M
700.73	0.003	866268	WORD_OFF	n/a	n/a	SHIRT	Clothing	12	6	[0, 0, 0]	n/a	catFR1	5	R1395M
700.733	0.0	866268	ENCODING_END	n/a	n/a	n/a	n/a	-999	6	[0, 0, 0]	n/a	catFR1	5	R1395M
700.733	3.481	866268	DISTRACT_START	n/a	n/a	n/a	n/a	-999	6	[0, 0, 0]	n/a	catFR1	5	R1395M
704.214	1.934	869747	PROB	1.934	n/a	n/a	n/a	-999	6	[5, 5, 7]	17	catFR1	5	R1395M
706.148	2.516	871681	PROB	2.516	n/a	n/a	n/a	-999	6	[8, 4, 2]	14	catFR1	5	R1395M
708.664	1.799	874197	PROB	1.799	n/a	n/a	n/a	-999	6	[3, 2, 6]	11	catFR1	5	R1395M
710.463	2.368	875996	PROB	2.368	n/a	n/a	n/a	-999	6	[4, 1, 7]	12	catFR1	5	R1395M
712.831	1.75	878364	PROB	1.75	n/a	n/a	n/a	-999	6	[5, 5, 8]	18	catFR1	5	R1395M
714.581	1.95	880114	PROB	1.95	n/a	n/a	n/a	-999	6	[4, 5, 6]	15	catFR1	5	R1395M
716.531	2.051	882063	PROB	2.051	n/a	n/a	n/a	-999	6	[6, 4, 5]	15	catFR1	5	R1395M
718.582	2.384	884114	PROB	2.384	n/a	n/a	n/a	-999	6	[3, 5, 4]	12	catFR1	5	R1395M
720.966	0.0	886498	STOP	n/a	n/a	n/a	n/a	-999	6	[-999, -999, -999]	n/a	catFR1	5	R1395M
720.966	2.048	886501	DISTRACT_END	n/a	n/a	n/a	n/a	-999	6	[0, 0, 0]	n/a	catFR1	5	R1395M
723.014	1.59	888549	REC_START	n/a	n/a	n/a	n/a	-999	6	[0, 0, 0]	n/a	catFR1	5	R1395M
724.604	1.398	890136	REC_WORD	1.398	n/a	DRESS	Clothing	-999	6	[0, 0, 0]	n/a	catFR1	5	R1395M
726.002	1.596	891534	REC_WORD	1.596	n/a	PANTS	Clothing	1	6	[0, 0, 0]	n/a	catFR1	5	R1395M
727.598	1.613	893130	REC_WORD	1.613	n/a	SHIRT	Clothing	12	6	[0, 0, 0]	n/a	catFR1	5	R1395M
729.211	24.02	894743	REC_WORD	24.02	n/a	SOCKS	Clothing	11	6	[0, 0, 0]	n/a	catFR1	5	R1395M
753.231	17.984	918759	REC_END	n/a	n/a	n/a	n/a	-999	6	[0, 0, 0]	n/a	catFR1	5	R1395M
771.215	10.35	936746	COUNTDOWN_START	n/a	n/a	n/a	n/a	-999	7	[0, 0, 0]	n/a	catFR1	5	R1395M
781.565	0.0	947097	COUNTDOWN_END	n/a	n/a	n/a	n/a	-999	7	[0, 0, 0]	n/a	catFR1	5	R1395M
781.565	2.182	947097	ENCODING_START	n/a	n/a	n/a	n/a	-999	7	[0, 0, 0]	n/a	catFR1	5	R1395M
783.747	1.6	949277	WORD	n/a	wordpools/wordpool_categorized_EN.txt	DRESSER	Furniture	1	7	[0, 0, 0]	n/a	catFR1	5	R1395M
785.347	0.934	950878	WORD_OFF	n/a	n/a	DRESSER	Furniture	1	7	[0, 0, 0]	n/a	catFR1	5	R1395M
786.281	1.615	951814	WORD	n/a	wordpools/wordpool_categorized_EN.txt	DESK	Furniture	2	7	[0, 0, 0]	n/a	catFR1	5	R1395M
787.896	1.001	953423	WORD_OFF	n/a	n/a	DESK	Furniture	2	7	[0, 0, 0]	n/a	catFR1	5	R1395M
788.897	1.6	954425	WORD	n/a	wordpools/wordpool_categorized_EN.txt	DRYER	Appliances	3	7	[0, 0, 0]	n/a	catFR1	5	R1395M
790.497	0.883	956025	WORD_OFF	n/a	n/a	DRYER	Appliances	3	7	[0, 0, 0]	n/a	catFR1	5	R1395M
791.38	1.617	956914	WORD	n/a	wordpools/wordpool_categorized_EN.txt	BLENDER	Appliances	4	7	[0, 0, 0]	n/a	catFR1	5	R1395M
792.997	0.833	958524	WORD_OFF	n/a	n/a	BLENDER	Appliances	4	7	[0, 0, 0]	n/a	catFR1	5	R1395M
793.83	1.6	959357	WORD	n/a	wordpools/wordpool_categorized_EN.txt	TIGER	Zoo	5	7	[0, 0, 0]	n/a	catFR1	5	R1395M
795.43	0.933	960957	WORD_OFF	n/a	n/a	TIGER	Zoo	5	7	[0, 0, 0]	n/a	catFR1	5	R1395M
796.363	1.6	961893	WORD	n/a	wordpools/wordpool_categorized_EN.txt	LION	Zoo	6	7	[0, 0, 0]	n/a	catFR1	5	R1395M
797.963	0.834	963493	WORD_OFF	n/a	n/a	LION	Zoo	6	7	[0, 0, 0]	n/a	catFR1	5	R1395M
798.797	1.6	964326	WORD	n/a	wordpools/wordpool_categorized_EN.txt	COUCH	Furniture	7	7	[0, 0, 0]	n/a	catFR1	5	R1395M
800.397	0.933	965926	WORD_OFF	n/a	n/a	COUCH	Furniture	7	7	[0, 0, 0]	n/a	catFR1	5	R1395M
801.33	1.617	966862	WORD	n/a	wordpools/wordpool_categorized_EN.txt	SHELF	Furniture	8	7	[0, 0, 0]	n/a	catFR1	5	R1395M
802.947	0.967	968472	WORD_OFF	n/a	n/a	SHELF	Furniture	8	7	[0, 0, 0]	n/a	catFR1	5	R1395M
803.914	1.617	969445	WORD	n/a	wordpools/wordpool_categorized_EN.txt	BEAR	Zoo	9	7	[0, 0, 0]	n/a	catFR1	5	R1395M
805.531	1.0	971064	WORD_OFF	n/a	n/a	BEAR	Zoo	9	7	[0, 0, 0]	n/a	catFR1	5	R1395M
806.531	1.6	972056	WORD	n/a	wordpools/wordpool_categorized_EN.txt	CHEETAH	Zoo	10	7	[0, 0, 0]	n/a	catFR1	5	R1395M
808.131	0.832	973656	WORD_OFF	n/a	n/a	CHEETAH	Zoo	10	7	[0, 0, 0]	n/a	catFR1	5	R1395M
808.963	1.6	974489	WORD	n/a	wordpools/wordpool_categorized_EN.txt	FREEZER	Appliances	11	7	[0, 0, 0]	n/a	catFR1	5	R1395M
810.563	0.968	976089	WORD_OFF	n/a	n/a	FREEZER	Appliances	11	7	[0, 0, 0]	n/a	catFR1	5	R1395M
811.531	1.6	977063	WORD	n/a	wordpools/wordpool_categorized_EN.txt	IRON	Appliances	12	7	[0, 0, 0]	n/a	catFR1	5	R1395M
813.131	0.002	978658	PROB	0.002	n/a	n/a	n/a	-999	7	[6, 3, 3]	12	catFR1	5	R1395M
813.133	0.0	978660	START	n/a	n/a	n/a	n/a	-999	7	[-999, -999, -999]	n/a	catFR1	5	R1395M
813.131	0.002	978663	WORD_OFF	n/a	n/a	IRON	Appliances	12	7	[0, 0, 0]	n/a	catFR1	5	R1395M
813.133	0.0	978663	ENCODING_END	n/a	n/a	n/a	n/a	-999	7	[0, 0, 0]	n/a	catFR1	5	R1395M
813.133	3.432	978663	DISTRACT_START	n/a	n/a	n/a	n/a	-999	7	[0, 0, 0]	n/a	catFR1	5	R1395M
816.565	2.366	982092	PROB	2.366	n/a	n/a	n/a	-999	7	[5, 7, 6]	18	catFR1	5	R1395M
818.931	2.117	984458	PROB	2.117	n/a	n/a	n/a	-999	7	[3, 2, 5]	10	catFR1	5	R1395M
821.048	2.417	986575	PROB	2.417	n/a	n/a	n/a	-999	7	[6, 6, 5]	17	catFR1	5	R1395M
823.465	3.667	988992	PROB	3.667	n/a	n/a	n/a	-999	7	[7, 5, 7]	19	catFR1	5	R1395M
827.132	5.483	992659	PROB	5.483	n/a	n/a	n/a	-999	7	[6, 2, 7]	15	catFR1	5	R1395M
832.615	3.949	998141	PROB	3.949	n/a	n/a	n/a	-999	7	[4, 2, 4]	10	catFR1	5	R1395M
836.564	0.0	1002087	DISTRACT_END	n/a	n/a	n/a	n/a	-999	7	[0, 0, 0]	n/a	catFR1	5	R1395M
836.564	2.183	1002090	STOP	n/a	n/a	n/a	n/a	-999	7	[-999, -999, -999]	n/a	catFR1	5	R1395M
838.747	5.036	1004276	REC_START	n/a	n/a	n/a	n/a	-999	7	[0, 0, 0]	n/a	catFR1	5	R1395M
843.783	1.161	1009309	REC_WORD	1.161	n/a	TIGER	Zoo	5	7	[0, 0, 0]	n/a	catFR1	5	R1395M
844.944	2.694	1010470	REC_WORD	2.694	n/a	LION	Zoo	6	7	[0, 0, 0]	n/a	catFR1	5	R1395M
847.638	0.741	1013164	REC_WORD_VV	0.741	n/a	<>	n/a	-999	7	[0, 0, 0]	n/a	catFR1	5	R1395M
848.379	6.43	1013904	REC_WORD	6.43	n/a	CHEETAH	Zoo	10	7	[0, 0, 0]	n/a	catFR1	5	R1395M
854.809	1.0	1020334	REC_WORD_VV	1.0	n/a	<>	n/a	-999	7	[0, 0, 0]	n/a	catFR1	5	R1395M
855.809	0.5	1021334	REC_WORD_VV	0.5	n/a	<>	n/a	-999	7	[0, 0, 0]	n/a	catFR1	5	R1395M
856.309	1.0	1021834	REC_WORD_VV	1.0	n/a	<>	n/a	-999	7	[0, 0, 0]	n/a	catFR1	5	R1395M
857.309	1.0	1022834	REC_WORD_VV	1.0	n/a	<>	n/a	-999	7	[0, 0, 0]	n/a	catFR1	5	R1395M
858.309	1.0	1023834	REC_WORD_VV	1.0	n/a	<>	n/a	-999	7	[0, 0, 0]	n/a	catFR1	5	R1395M
859.309	1.0	1024834	REC_WORD_VV	1.0	n/a	<>	n/a	-999	7	[0, 0, 0]	n/a	catFR1	5	R1395M
860.309	1.0	1025834	REC_WORD_VV	1.0	n/a	<>	n/a	-999	7	[0, 0, 0]	n/a	catFR1	5	R1395M
861.309	1.0	1026834	REC_WORD_VV	1.0	n/a	<>	n/a	-999	7	[0, 0, 0]	n/a	catFR1	5	R1395M
862.309	6.247	1027834	REC_WORD_VV	6.247	n/a	<>	n/a	-999	7	[0, 0, 0]	n/a	catFR1	5	R1395M
868.556	0.404	1034080	REC_WORD_VV	0.404	n/a	<>	n/a	-999	7	[0, 0, 0]	n/a	catFR1	5	R1395M
868.96	3.603	1034486	REC_END	n/a	n/a	n/a	n/a	-999	7	[0, 0, 0]	n/a	catFR1	5	R1395M
872.563	10.351	1038089	COUNTDOWN_START	n/a	n/a	n/a	n/a	-999	8	[0, 0, 0]	n/a	catFR1	5	R1395M
882.914	0.0	1048440	COUNTDOWN_END	n/a	n/a	n/a	n/a	-999	8	[0, 0, 0]	n/a	catFR1	5	R1395M
882.914	2.101	1048440	ENCODING_START	n/a	n/a	n/a	n/a	-999	8	[0, 0, 0]	n/a	catFR1	5	R1395M
885.015	1.617	1050536	WORD	n/a	wordpools/wordpool_categorized_EN.txt	TOASTER	Appliances	1	8	[0, 0, 0]	n/a	catFR1	5	R1395M
886.632	0.9	1052155	WORD_OFF	n/a	n/a	TOASTER	Appliances	1	8	[0, 0, 0]	n/a	catFR1	5	R1395M
887.532	1.616	1053054	WORD	n/a	wordpools/wordpool_categorized_EN.txt	MIXER	Appliances	2	8	[0, 0, 0]	n/a	catFR1	5	R1395M
889.148	0.95	1054673	WORD_OFF	n/a	n/a	MIXER	Appliances	2	8	[0, 0, 0]	n/a	catFR1	5	R1395M
890.098	1.616	1055618	WORD	n/a	wordpools/wordpool_categorized_EN.txt	LAKE	Landscapes	3	8	[0, 0, 0]	n/a	catFR1	5	R1395M
891.714	0.899	1057237	WORD_OFF	n/a	n/a	LAKE	Landscapes	3	8	[0, 0, 0]	n/a	catFR1	5	R1395M
892.613	1.601	1058135	WORD	n/a	wordpools/wordpool_categorized_EN.txt	MOUNTAIN	Landscapes	4	8	[0, 0, 0]	n/a	catFR1	5	R1395M
894.214	0.917	1059736	WORD_OFF	n/a	n/a	MOUNTAIN	Landscapes	4	8	[0, 0, 0]	n/a	catFR1	5	R1395M
895.131	1.6	1060653	WORD	n/a	wordpools/wordpool_categorized_EN.txt	PLIERS	Tools	5	8	[0, 0, 0]	n/a	catFR1	5	R1395M
896.731	0.933	1062253	WORD_OFF	n/a	n/a	PLIERS	Tools	5	8	[0, 0, 0]	n/a	catFR1	5	R1395M
897.664	1.617	1063189	WORD	n/a	wordpools/wordpool_categorized_EN.txt	CROWBAR	Tools	6	8	[0, 0, 0]	n/a	catFR1	5	R1395M
899.281	0.9	1064808	WORD_OFF	n/a	n/a	CROWBAR	Tools	6	8	[0, 0, 0]	n/a	catFR1	5	R1395M
900.181	1.6	1065706	WORD	n/a	wordpools/wordpool_categorized_EN.txt	ISLAND	Landscapes	7	8	[0, 0, 0]	n/a	catFR1	5	R1395M
901.781	0.967	1067307	WORD_OFF	n/a	n/a	ISLAND	Landscapes	7	8	[0, 0, 0]	n/a	catFR1	5	R1395M
902.748	1.6	1068271	WORD	n/a	wordpools/wordpool_categorized_EN.txt	RIVER	Landscapes	8	8	[0, 0, 0]	n/a	catFR1	5	R1395M
904.348	0.9	1069871	WORD_OFF	n/a	n/a	RIVER	Landscapes	8	8	[0, 0, 0]	n/a	catFR1	5	R1395M
905.248	1.6	1070769	WORD	n/a	wordpools/wordpool_categorized_EN.txt	VACUUM	Appliances	9	8	[0, 0, 0]	n/a	catFR1	5	R1395M
906.848	0.816	1072370	WORD_OFF	n/a	n/a	VACUUM	Appliances	9	8	[0, 0, 0]	n/a	catFR1	5	R1395M
907.664	1.6	1073184	WORD	n/a	wordpools/wordpool_categorized_EN.txt	STOVE	Appliances	10	8	[0, 0, 0]	n/a	catFR1	5	R1395M
909.264	0.867	1074784	WORD_OFF	n/a	n/a	STOVE	Appliances	10	8	[0, 0, 0]	n/a	catFR1	5	R1395M
910.131	1.617	1075654	WORD	n/a	wordpools/wordpool_categorized_EN.txt	SHOVEL	Tools	11	8	[0, 0, 0]	n/a	catFR1	5	R1395M
911.748	0.899	1077273	WORD_OFF	n/a	n/a	SHOVEL	Tools	11	8	[0, 0, 0]	n/a	catFR1	5	R1395M
912.647	1.601	1078172	WORD	n/a	wordpools/wordpool_categorized_EN.txt	RATCHET	Tools	12	8	[0, 0, 0]	n/a	catFR1	5	R1395M
914.248	0.001	1079770	PROB	0.001	n/a	n/a	n/a	-999	8	[5, 1, 5]	11	catFR1	5	R1395M
914.249	0.0	1079771	START	n/a	n/a	n/a	n/a	-999	8	[-999, -999, -999]	n/a	catFR1	5	R1395M
914.248	0.001	1079772	WORD_OFF	n/a	n/a	RATCHET	Tools	12	8	[0, 0, 0]	n/a	catFR1	5	R1395M
914.249	0.0	1079772	ENCODING_END	n/a	n/a	n/a	n/a	-999	8	[0, 0, 0]	n/a	catFR1	5	R1395M
914.249	5.749	1079772	DISTRACT_START	n/a	n/a	n/a	n/a	-999	8	[0, 0, 0]	n/a	catFR1	5	R1395M
919.998	3.266	1085520	PROB	3.266	n/a	n/a	n/a	-999	8	[4, 7, 6]	17	catFR1	5	R1395M
923.264	3.018	1088785	PROB	3.018	n/a	n/a	n/a	-999	8	[3, 2, 8]	13	catFR1	5	R1395M
926.282	2.233	1091803	PROB	2.233	n/a	n/a	n/a	-999	8	[5, 6, 2]	13	catFR1	5	R1395M
928.515	2.233	1094036	PROB	2.233	n/a	n/a	n/a	-999	8	[3, 6, 6]	15	catFR1	5	R1395M
930.748	2.1	1096269	PROB	2.1	n/a	n/a	n/a	-999	8	[6, 2, 2]	10	catFR1	5	R1395M
932.848	1.982	1098369	PROB	1.982	n/a	n/a	n/a	-999	8	[5, 5, 6]	16	catFR1	5	R1395M
934.83	0.0	1100351	DISTRACT_END	n/a	n/a	n/a	n/a	-999	8	[0, 0, 0]	n/a	catFR1	5	R1395M
934.83	2.084	1100351	STOP	n/a	n/a	n/a	n/a	-999	8	[-999, -999, -999]	n/a	catFR1	5	R1395M
936.914	4.756	1102437	REC_START	n/a	n/a	n/a	n/a	-999	8	[0, 0, 0]	n/a	catFR1	5	R1395M
941.67	0.819	1107191	REC_WORD	0.819	n/a	TIGER	Zoo	-999	8	[0, 0, 0]	n/a	catFR1	5	R1395M
942.489	5.544	1108009	REC_WORD	5.544	n/a	LION	Zoo	-999	8	[0, 0, 0]	n/a	catFR1	5	R1395M
948.033	0.995	1113553	REC_WORD_VV	0.995	n/a	<>	n/a	-999	8	[0, 0, 0]	n/a	catFR1	5	R1395M
949.028	1.0	1114548	REC_WORD_VV	1.0	n/a	<>	n/a	-999	8	[0, 0, 0]	n/a	catFR1	5	R1395M
950.028	1.266	1115548	REC_WORD_VV	1.266	n/a	<>	n/a	-999	8	[0, 0, 0]	n/a	catFR1	5	R1395M
951.294	1.0	1116814	REC_WORD_VV	1.0	n/a	<>	n/a	-999	8	[0, 0, 0]	n/a	catFR1	5	R1395M
952.294	1.0	1117814	REC_WORD_VV	1.0	n/a	<>	n/a	-999	8	[0, 0, 0]	n/a	catFR1	5	R1395M
953.294	6.788	1118814	REC_WORD_VV	6.788	n/a	<>	n/a	-999	8	[0, 0, 0]	n/a	catFR1	5	R1395M
960.082	1.0	1125602	REC_WORD_VV	1.0	n/a	<>	n/a	-999	8	[0, 0, 0]	n/a	catFR1	5	R1395M
961.082	2.815	1126601	REC_WORD_VV	2.815	n/a	<>	n/a	-999	8	[0, 0, 0]	n/a	catFR1	5	R1395M
963.897	1.0	1129416	REC_WORD_VV	1.0	n/a	<>	n/a	-999	8	[0, 0, 0]	n/a	catFR1	5	R1395M
964.897	1.0	1130416	REC_WORD_VV	1.0	n/a	<>	n/a	-999	8	[0, 0, 0]	n/a	catFR1	5	R1395M
965.897	1.252	1131416	REC_WORD_VV	1.252	n/a	<>	n/a	-999	8	[0, 0, 0]	n/a	catFR1	5	R1395M
967.149	3.232	1132666	REC_END	n/a	n/a	n/a	n/a	-999	8	[0, 0, 0]	n/a	catFR1	5	R1395M
970.381	10.35	1135904	COUNTDOWN_START	n/a	n/a	n/a	n/a	-999	9	[0, 0, 0]	n/a	catFR1	5	R1395M
980.731	0.001	1146255	COUNTDOWN_END	n/a	n/a	n/a	n/a	-999	9	[0, 0, 0]	n/a	catFR1	5	R1395M
980.732	2.149	1146255	ENCODING_START	n/a	n/a	n/a	n/a	-999	9	[0, 0, 0]	n/a	catFR1	5	R1395M
982.881	1.6	1148398	WORD	n/a	wordpools/wordpool_categorized_EN.txt	NIGHTSTAND	Furniture	1	9	[0, 0, 0]	n/a	catFR1	5	R1395M
984.481	0.95	1149998	WORD_OFF	n/a	n/a	NIGHTSTAND	Furniture	1	9	[0, 0, 0]	n/a	catFR1	5	R1395M
985.431	1.6	1150953	WORD	n/a	wordpools/wordpool_categorized_EN.txt	CHAIR	Furniture	2	9	[0, 0, 0]	n/a	catFR1	5	R1395M
987.031	0.9	1152553	WORD_OFF	n/a	n/a	CHAIR	Furniture	2	9	[0, 0, 0]	n/a	catFR1	5	R1395M
987.931	1.6	1153451	WORD	n/a	wordpools/wordpool_categorized_EN.txt	CABBAGE	Vegetables	3	9	[0, 0, 0]	n/a	catFR1	5	R1395M
989.531	0.833	1155052	WORD_OFF	n/a	n/a	CABBAGE	Vegetables	3	9	[0, 0, 0]	n/a	catFR1	5	R1395M
990.364	1.6	1155885	WORD	n/a	wordpools/wordpool_categorized_EN.txt	LETTUCE	Vegetables	4	9	[0, 0, 0]	n/a	catFR1	5	R1395M
991.964	0.767	1157485	WORD_OFF	n/a	n/a	LETTUCE	Vegetables	4	9	[0, 0, 0]	n/a	catFR1	5	R1395M
992.731	1.6	1158252	WORD	n/a	wordpools/wordpool_categorized_EN.txt	HILLS	Landscapes	5	9	[0, 0, 0]	n/a	catFR1	5	R1395M
994.331	0.983	1159853	WORD_OFF	n/a	n/a	HILLS	Landscapes	5	9	[0, 0, 0]	n/a	catFR1	5	R1395M
995.314	1.6	1160835	WORD	n/a	wordpools/wordpool_categorized_EN.txt	STREAM	Landscapes	6	9	[0, 0, 0]	n/a	catFR1	5	R1395M
996.914	0.817	1162436	WORD_OFF	n/a	n/a	STREAM	Landscapes	6	9	[0, 0, 0]	n/a	catFR1	5	R1395M
997.731	1.6	1163250	WORD	n/a	wordpools/wordpool_categorized_EN.txt	CORN	Vegetables	7	9	[0, 0, 0]	n/a	catFR1	5	R1395M
999.331	0.849	1164859	WORD_OFF	n/a	n/a	CORN	Vegetables	7	9	[0, 0, 0]	n/a	catFR1	5	R1395M
1000.18	1.601	1165702	WORD	n/a	wordpools/wordpool_categorized_EN.txt	CARROT	Vegetables	8	9	[0, 0, 0]	n/a	catFR1	5	R1395M
1001.781	0.767	1167302	WORD_OFF	n/a	n/a	CARROT	Vegetables	8	9	[0, 0, 0]	n/a	catFR1	5	R1395M
1002.548	1.616	1168069	WORD	n/a	wordpools/wordpool_categorized_EN.txt	WOODS	Landscapes	9	9	[0, 0, 0]	n/a	catFR1	5	R1395M
1004.164	0.883	1169679	WORD_OFF	n/a	n/a	WOODS	Landscapes	9	9	[0, 0, 0]	n/a	catFR1	5	R1395M
1005.047	1.617	1170568	WORD	n/a	wordpools/wordpool_categorized_EN.txt	VALLEY	Landscapes	10	9	[0, 0, 0]	n/a	catFR1	5	R1395M
1006.664	0.9	1172178	WORD_OFF	n/a	n/a	VALLEY	Landscapes	10	9	[0, 0, 0]	n/a	catFR1	5	R1395M
1007.564	1.6	1173086	WORD	n/a	wordpools/wordpool_categorized_EN.txt	BED	Furniture	11	9	[0, 0, 0]	n/a	catFR1	5	R1395M
1009.164	0.883	1174686	WORD_OFF	n/a	n/a	BED	Furniture	11	9	[0, 0, 0]	n/a	catFR1	5	R1395M
1010.047	1.601	1175566	WORD	n/a	wordpools/wordpool_categorized_EN.txt	SOFA	Furniture	12	9	[0, 0, 0]	n/a	catFR1	5	R1395M
1011.648	0.0	1177165	PROB	0.0	n/a	n/a	n/a	-999	9	[2, 7, 4]	13	catFR1	5	R1395M
1011.648	0.001	1177166	WORD_OFF	n/a	n/a	SOFA	Furniture	12	9	[0, 0, 0]	n/a	catFR1	5	R1395M
1011.649	0.0	1177166	ENCODING_END	n/a	n/a	n/a	n/a	-999	9	[0, 0, 0]	n/a	catFR1	5	R1395M
1011.649	0.0	1177166	DISTRACT_START	n/a	n/a	n/a	n/a	-999	9	[0, 0, 0]	n/a	catFR1	5	R1395M
1011.649	5.216	1177166	START	n/a	n/a	n/a	n/a	-999	9	[-999, -999, -999]	n/a	catFR1	5	R1395M
1016.865	2.399	1182381	PROB	2.399	n/a	n/a	n/a	-999	9	[5, 2, 5]	12	catFR1	5	R1395M
1019.264	2.051	1184780	PROB	2.051	n/a	n/a	n/a	-999	9	[6, 4, 2]	12	catFR1	5	R1395M
1021.315	2.482	1186831	PROB	2.482	n/a	n/a	n/a	-999	9	[8, 7, 2]	17	catFR1	5	R1395M
1023.797	2.283	1189313	PROB	2.283	n/a	n/a	n/a	-999	9	[5, 2, 4]	11	catFR1	5	R1395M
1026.08	2.135	1191596	PROB	2.135	n/a	n/a	n/a	-999	9	[1, 1, 6]	8	catFR1	5	R1395M
1028.215	2.566	1193731	PROB	2.566	n/a	n/a	n/a	-999	9	[1, 8, 3]	12	catFR1	5	R1395M
1030.781	2.599	1196297	PROB	2.599	n/a	n/a	n/a	-999	9	[1, 1, 4]	6	catFR1	5	R1395M
1033.38	0.0	1198896	DISTRACT_END	n/a	n/a	n/a	n/a	-999	9	[0, 0, 0]	n/a	catFR1	5	R1395M
1033.38	2.117	1198896	STOP	n/a	n/a	n/a	n/a	-999	9	[-999, -999, -999]	n/a	catFR1	5	R1395M
1035.497	1.565	1201010	REC_START	n/a	n/a	n/a	n/a	-999	9	[0, 0, 0]	n/a	catFR1	5	R1395M
1037.062	1.141	1202577	REC_WORD	1.141	n/a	CABBAGE	Vegetables	3	9	[0, 0, 0]	n/a	catFR1	5	R1395M
1038.203	2.188	1203718	REC_WORD	2.188	n/a	LETTUCE	Vegetables	4	9	[0, 0, 0]	n/a	catFR1	5	R1395M
1040.391	4.321	1205906	REC_WORD	4.321	n/a	CARROT	Vegetables	8	9	[0, 0, 0]	n/a	catFR1	5	R1395M
1044.712	2.481	1210227	REC_WORD	2.481	n/a	DRESSER	Furniture	-999	9	[0, 0, 0]	n/a	catFR1	5	R1395M
1047.193	18.503	1212708	REC_WORD	18.503	n/a	DRAWER	n/a	-999	9	[0, 0, 0]	n/a	catFR1	5	R1395M
1065.696	7.053	1231211	REC_END	n/a	n/a	n/a	n/a	-999	9	[0, 0, 0]	n/a	catFR1	5	R1395M
1072.749	10.348	1238267	COUNTDOWN_START	n/a	n/a	n/a	n/a	-999	10	[0, 0, 0]	n/a	catFR1	5	R1395M
1083.097	0.0	1248609	COUNTDOWN_END	n/a	n/a	n/a	n/a	-999	10	[0, 0, 0]	n/a	catFR1	5	R1395M
1083.097	1.867	1248609	ENCODING_START	n/a	n/a	n/a	n/a	-999	10	[0, 0, 0]	n/a	catFR1	5	R1395M
1084.964	1.6	1250480	WORD	n/a	wordpools/wordpool_categorized_EN.txt	CRAB	OceanAnimals	1	10	[0, 0, 0]	n/a	catFR1	5	R1395M
1086.564	0.8	1252081	WORD_OFF	n/a	n/a	CRAB	OceanAnimals	1	10	[0, 0, 0]	n/a	catFR1	5	R1395M
1087.364	1.617	1252876	WORD	n/a	wordpools/wordpool_categorized_EN.txt	TURTLE	OceanAnimals	2	10	[0, 0, 0]	n/a	catFR1	5	R1395M
1088.981	0.85	1254495	WORD_OFF	n/a	n/a	TURTLE	OceanAnimals	2	10	[0, 0, 0]	n/a	catFR1	5	R1395M
1089.831	1.6	1255347	WORD	n/a	wordpools/wordpool_categorized_EN.txt	MOSQUITO	Insects	3	10	[0, 0, 0]	n/a	catFR1	5	R1395M
1091.431	0.967	1256947	WORD_OFF	n/a	n/a	MOSQUITO	Insects	3	10	[0, 0, 0]	n/a	catFR1	5	R1395M
1092.398	1.6	1257911	WORD	n/a	wordpools/wordpool_categorized_EN.txt	SPIDER	Insects	4	10	[0, 0, 0]	n/a	catFR1	5	R1395M
1093.998	0.916	1259511	WORD_OFF	n/a	n/a	SPIDER	Insects	4	10	[0, 0, 0]	n/a	catFR1	5	R1395M
1094.914	1.617	1260428	WORD	n/a	wordpools/wordpool_categorized_EN.txt	BROCCOLI	Vegetables	5	10	[0, 0, 0]	n/a	catFR1	5	R1395M
1096.531	0.983	1262047	WORD_OFF	n/a	n/a	BROCCOLI	Vegetables	5	10	[0, 0, 0]	n/a	catFR1	5	R1395M
1097.514	1.6	1263030	WORD	n/a	wordpools/wordpool_categorized_EN.txt	POTATO	Vegetables	6	10	[0, 0, 0]	n/a	catFR1	5	R1395M
1099.114	0.999	1264630	WORD_OFF	n/a	n/a	POTATO	Vegetables	6	10	[0, 0, 0]	n/a	catFR1	5	R1395M
1100.113	1.601	1265622	WORD	n/a	wordpools/wordpool_categorized_EN.txt	JELLYFISH	OceanAnimals	7	10	[0, 0, 0]	n/a	catFR1	5	R1395M
1101.714	0.85	1267223	WORD_OFF	n/a	n/a	JELLYFISH	OceanAnimals	7	10	[0, 0, 0]	n/a	catFR1	5	R1395M
1102.564	1.6	1268074	WORD	n/a	wordpools/wordpool_categorized_EN.txt	PLANKTON	OceanAnimals	8	10	[0, 0, 0]	n/a	catFR1	5	R1395M
1104.164	0.933	1269674	WORD_OFF	n/a	n/a	PLANKTON	OceanAnimals	8	10	[0, 0, 0]	n/a	catFR1	5	R1395M
1105.097	1.617	1270610	WORD	n/a	wordpools/wordpool_categorized_EN.txt	CUCUMBER	Vegetables	9	10	[0, 0, 0]	n/a	catFR1	5	R1395M
1106.714	0.983	1272229	WORD_OFF	n/a	n/a	CUCUMBER	Vegetables	9	10	[0, 0, 0]	n/a	catFR1	5	R1395M
1107.697	1.6	1273212	WORD	n/a	wordpools/wordpool_categorized_EN.txt	CELERY	Vegetables	10	10	[0, 0, 0]	n/a	catFR1	5	R1395M
1109.297	0.983	1274812	WORD_OFF	n/a	n/a	CELERY	Vegetables	10	10	[0, 0, 0]	n/a	catFR1	5	R1395M
1110.28	1.6	1275795	WORD	n/a	wordpools/wordpool_categorized_EN.txt	FLY	Insects	11	10	[0, 0, 0]	n/a	catFR1	5	R1395M
1111.88	0.868	1277395	WORD_OFF	n/a	n/a	FLY	Insects	11	10	[0, 0, 0]	n/a	catFR1	5	R1395M
1112.748	1.616	1278256	WORD	n/a	wordpools/wordpool_categorized_EN.txt	BEETLE	Insects	12	10	[0, 0, 0]	n/a	catFR1	5	R1395M
1114.364	0.001	1279875	WORD_OFF	n/a	n/a	BEETLE	Insects	12	10	[0, 0, 0]	n/a	catFR1	5	R1395M
1114.365	0.0	1279875	ENCODING_END	n/a	n/a	n/a	n/a	-999	10	[0, 0, 0]	n/a	catFR1	5	R1395M
1114.365	0.0	1279875	DISTRACT_START	n/a	n/a	n/a	n/a	-999	10	[0, 0, 0]	n/a	catFR1	5	R1395M
1114.364	0.001	1279875	PROB	0.001	n/a	n/a	n/a	-999	10	[4, 6, 6]	16	catFR1	5	R1395M
1114.365	3.232	1279876	START	n/a	n/a	n/a	n/a	-999	10	[-999, -999, -999]	n/a	catFR1	5	R1395M
1117.597	2.4	1283108	PROB	2.4	n/a	n/a	n/a	-999	10	[4, 5, 4]	13	catFR1	5	R1395M
1119.997	2.383	1285508	PROB	2.383	n/a	n/a	n/a	-999	10	[5, 8, 2]	15	catFR1	5	R1395M
1122.38	2.3	1287891	PROB	2.3	n/a	n/a	n/a	-999	10	[8, 1, 4]	13	catFR1	5	R1395M
1124.68	4.283	1290191	PROB	4.283	n/a	n/a	n/a	-999	10	[8, 4, 7]	19	catFR1	5	R1395M
1128.963	2.334	1294473	PROB	2.334	n/a	n/a	n/a	-999	10	[5, 3, 4]	12	catFR1	5	R1395M
1131.297	2.135	1296807	PROB	2.135	n/a	n/a	n/a	-999	10	[2, 7, 4]	13	catFR1	5	R1395M
1133.432	1.949	1298942	PROB	1.949	n/a	n/a	n/a	-999	10	[7, 3, 6]	16	catFR1	5	R1395M
1135.381	0.0	1300891	STOP	n/a	n/a	n/a	n/a	-999	10	[-999, -999, -999]	n/a	catFR1	5	R1395M
1135.381	2.2	1300894	DISTRACT_END	n/a	n/a	n/a	n/a	-999	10	[0, 0, 0]	n/a	catFR1	5	R1395M
1137.581	4.262	1303092	REC_START	n/a	n/a	n/a	n/a	-999	10	[0, 0, 0]	n/a	catFR1	5	R1395M
1141.843	0.882	1307353	REC_WORD	0.882	n/a	CUCUMBER	Vegetables	9	10	[0, 0, 0]	n/a	catFR1	5	R1395M
1142.725	3.452	1308235	REC_WORD	3.452	n/a	CELERY	Vegetables	10	10	[0, 0, 0]	n/a	catFR1	5	R1395M
1146.177	0.809	1311687	REC_WORD	0.809	n/a	FLY	Insects	11	10	[0, 0, 0]	n/a	catFR1	5	R1395M
1146.986	0.573	1312496	REC_WORD	0.573	n/a	BEETLE	Insects	12	10	[0, 0, 0]	n/a	catFR1	5	R1395M
1147.559	1.949	1313069	REC_WORD	1.949	n/a	MOSQUITO	Insects	3	10	[0, 0, 0]	n/a	catFR1	5	R1395M
1149.508	0.714	1315017	REC_WORD	0.714	n/a	TURTLE	OceanAnimals	2	10	[0, 0, 0]	n/a	catFR1	5	R1395M
1150.222	6.106	1315731	REC_WORD	6.106	n/a	CRAB	OceanAnimals	1	10	[0, 0, 0]	n/a	catFR1	5	R1395M
1156.328	2.884	1321837	REC_WORD	2.884	n/a	LOBSTER	n/a	-999	10	[0, 0, 0]	n/a	catFR1	5	R1395M
1159.212	8.58	1324721	REC_WORD_VV	8.58	n/a	<>	n/a	-999	10	[0, 0, 0]	n/a	catFR1	5	R1395M
1167.792	132.755	1333303	REC_END	n/a	n/a	n/a	n/a	-999	10	[0, 0, 0]	n/a	catFR1	5	R1395M
1300.547	10.351	1466053	COUNTDOWN_START	n/a	n/a	n/a	n/a	-999	11	[0, 0, 0]	n/a	catFR1	5	R1395M
1310.898	0.0	1476403	COUNTDOWN_END	n/a	n/a	n/a	n/a	-999	11	[0, 0, 0]	n/a	catFR1	5	R1395M
1310.898	2.115	1476403	ENCODING_START	n/a	n/a	n/a	n/a	-999	11	[0, 0, 0]	n/a	catFR1	5	R1395M
1313.013	1.601	1478518	WORD	n/a	wordpools/wordpool_categorized_EN.txt	BEE	Insects	1	11	[0, 0, 0]	n/a	catFR1	5	R1395M
1314.614	0.85	1480119	WORD_OFF	n/a	n/a	BEE	Insects	1	11	[0, 0, 0]	n/a	catFR1	5	R1395M
1315.464	1.617	1480961	WORD	n/a	wordpools/wordpool_categorized_EN.txt	BUTTERFLY	Insects	2	11	[0, 0, 0]	n/a	catFR1	5	R1395M
1317.081	0.932	1482580	WORD_OFF	n/a	n/a	BUTTERFLY	Insects	2	11	[0, 0, 0]	n/a	catFR1	5	R1395M
1318.013	1.601	1483516	WORD	n/a	wordpools/wordpool_categorized_EN.txt	HEN	FarmAnimals	3	11	[0, 0, 0]	n/a	catFR1	5	R1395M
1319.614	0.883	1485116	WORD_OFF	n/a	n/a	HEN	FarmAnimals	3	11	[0, 0, 0]	n/a	catFR1	5	R1395M
1320.497	1.617	1485996	WORD	n/a	wordpools/wordpool_categorized_EN.txt	TURKEY	FarmAnimals	4	11	[0, 0, 0]	n/a	catFR1	5	R1395M
1322.114	1.0	1487615	WORD_OFF	n/a	n/a	TURKEY	FarmAnimals	4	11	[0, 0, 0]	n/a	catFR1	5	R1395M
1323.114	1.617	1488616	WORD	n/a	wordpools/wordpool_categorized_EN.txt	LILY	Flowers	5	11	[0, 0, 0]	n/a	catFR1	5	R1395M
1324.731	0.799	1490235	WORD_OFF	n/a	n/a	LILY	Flowers	5	11	[0, 0, 0]	n/a	catFR1	5	R1395M
1325.53	1.601	1491031	WORD	n/a	wordpools/wordpool_categorized_EN.txt	DAISY	Flowers	6	11	[0, 0, 0]	n/a	catFR1	5	R1395M
1327.131	0.982	1492631	WORD_OFF	n/a	n/a	DAISY	Flowers	6	11	[0, 0, 0]	n/a	catFR1	5	R1395M
1328.113	1.601	1493614	WORD	n/a	wordpools/wordpool_categorized_EN.txt	CALF	FarmAnimals	7	11	[0, 0, 0]	n/a	catFR1	5	R1395M
1329.714	0.8	1495214	WORD_OFF	n/a	n/a	CALF	FarmAnimals	7	11	[0, 0, 0]	n/a	catFR1	5	R1395M
1330.514	1.6	1496009	WORD	n/a	wordpools/wordpool_categorized_EN.txt	COW	FarmAnimals	8	11	[0, 0, 0]	n/a	catFR1	5	R1395M
1332.114	0.884	1497619	WORD_OFF	n/a	n/a	COW	FarmAnimals	8	11	[0, 0, 0]	n/a	catFR1	5	R1395M
1332.998	1.616	1498499	WORD	n/a	wordpools/wordpool_categorized_EN.txt	SUNFLOWER	Flowers	9	11	[0, 0, 0]	n/a	catFR1	5	R1395M
1334.614	0.984	1500118	WORD_OFF	n/a	n/a	SUNFLOWER	Flowers	9	11	[0, 0, 0]	n/a	catFR1	5	R1395M
1335.598	1.616	1501100	WORD	n/a	wordpools/wordpool_categorized_EN.txt	ROSE	Flowers	10	11	[0, 0, 0]	n/a	catFR1	5	R1395M
1337.214	0.767	1502719	WORD_OFF	n/a	n/a	ROSE	Flowers	10	11	[0, 0, 0]	n/a	catFR1	5	R1395M
1337.981	1.617	1503478	WORD	n/a	wordpools/wordpool_categorized_EN.txt	MOTH	Insects	11	11	[0, 0, 0]	n/a	catFR1	5	R1395M
1339.598	0.95	1505097	WORD_OFF	n/a	n/a	MOTH	Insects	11	11	[0, 0, 0]	n/a	catFR1	5	R1395M
1340.548	1.615	1506051	WORD	n/a	wordpools/wordpool_categorized_EN.txt	LADYBUG	Insects	12	11	[0, 0, 0]	n/a	catFR1	5	R1395M
1342.163	0.001	1507661	WORD_OFF	n/a	n/a	LADYBUG	Insects	12	11	[0, 0, 0]	n/a	catFR1	5	R1395M
1342.164	0.001	1507663	PROB	0.001	n/a	n/a	n/a	-999	11	[8, 4, 5]	17	catFR1	5	R1395M
1342.165	0.0	1507664	START	n/a	n/a	n/a	n/a	-999	11	[-999, -999, -999]	n/a	catFR1	5	R1395M
1342.165	0.0	1507670	ENCODING_END	n/a	n/a	n/a	n/a	-999	11	[0, 0, 0]	n/a	catFR1	5	R1395M
1342.165	2.849	1507670	DISTRACT_START	n/a	n/a	n/a	n/a	-999	11	[0, 0, 0]	n/a	catFR1	5	R1395M
1345.014	2.133	1510513	PROB	2.133	n/a	n/a	n/a	-999	11	[7, 7, 3]	17	catFR1	5	R1395M
1347.147	2.133	1512646	PROB	2.133	n/a	n/a	n/a	-999	11	[4, 3, 2]	9	catFR1	5	R1395M
1349.28	2.183	1514779	PROB	2.183	n/a	n/a	n/a	-999	11	[5, 1, 1]	7	catFR1	5	R1395M
1351.463	2.401	1516962	PROB	2.401	n/a	n/a	n/a	-999	11	[7, 8, 1]	16	catFR1	5	R1395M
1353.864	4.635	1519363	PROB	4.635	n/a	n/a	n/a	-999	11	[7, 6, 1]	14	catFR1	5	R1395M
1358.499	2.448	1523997	PROB	2.448	n/a	n/a	n/a	-999	11	[2, 1, 3]	6	catFR1	5	R1395M
1360.947	2.866	1526445	PROB	2.866	n/a	n/a	n/a	-999	11	[6, 5, 8]	19	catFR1	5	R1395M
1363.813	0.0	1529311	STOP	n/a	n/a	n/a	n/a	-999	11	[-999, -999, -999]	n/a	catFR1	5	R1395M
1363.813	2.117	1529316	DISTRACT_END	n/a	n/a	n/a	n/a	-999	11	[0, 0, 0]	n/a	catFR1	5	R1395M
1365.93	3.111	1531430	REC_START	n/a	n/a	n/a	n/a	-999	11	[0, 0, 0]	n/a	catFR1	5	R1395M
1369.041	1.469	1534539	REC_WORD	1.469	n/a	BEE	Insects	1	11	[0, 0, 0]	n/a	catFR1	5	R1395M
1370.51	3.035	1536008	REC_WORD	3.035	n/a	BUTTERFLY	Insects	2	11	[0, 0, 0]	n/a	catFR1	5	R1395M
1373.545	4.566	1539043	REC_WORD	4.566	n/a	MOTH	Insects	11	11	[0, 0, 0]	n/a	catFR1	5	R1395M
1378.111	5.266	1543608	REC_WORD	5.266	n/a	LILY	Flowers	5	11	[0, 0, 0]	n/a	catFR1	5	R1395M
1383.377	12.744	1548874	REC_WORD	12.744	n/a	DANDELION	n/a	-999	11	[0, 0, 0]	n/a	catFR1	5	R1395M
1396.121	2.493	1561622	REC_END	n/a	n/a	n/a	n/a	-999	11	[0, 0, 0]	n/a	catFR1	5	R1395M
1398.614	10.351	1564111	COUNTDOWN_START	n/a	n/a	n/a	n/a	-999	12	[0, 0, 0]	n/a	catFR1	5	R1395M
1408.965	0.0	1574462	COUNTDOWN_END	n/a	n/a	n/a	n/a	-999	12	[0, 0, 0]	n/a	catFR1	5	R1395M
1408.965	2.366	1574462	ENCODING_START	n/a	n/a	n/a	n/a	-999	12	[0, 0, 0]	n/a	catFR1	5	R1395M
1411.331	1.616	1576829	WORD	n/a	wordpools/wordpool_categorized_EN.txt	SCREWDRIVER	Tools	1	12	[0, 0, 0]	n/a	catFR1	5	R1395M
1412.947	0.95	1578448	WORD_OFF	n/a	n/a	SCREWDRIVER	Tools	1	12	[0, 0, 0]	n/a	catFR1	5	R1395M
1413.897	1.6	1579394	WORD	n/a	wordpools/wordpool_categorized_EN.txt	LEVEL	Tools	2	12	[0, 0, 0]	n/a	catFR1	5	R1395M
1415.497	0.817	1580994	WORD_OFF	n/a	n/a	LEVEL	Tools	2	12	[0, 0, 0]	n/a	catFR1	5	R1395M
1416.314	1.616	1581808	WORD	n/a	wordpools/wordpool_categorized_EN.txt	FUDGE	Desserts	3	12	[0, 0, 0]	n/a	catFR1	5	R1395M
1417.93	0.967	1583427	WORD_OFF	n/a	n/a	FUDGE	Desserts	3	12	[0, 0, 0]	n/a	catFR1	5	R1395M
1418.897	1.601	1584391	WORD	n/a	wordpools/wordpool_categorized_EN.txt	CHEESECAKE	Desserts	4	12	[0, 0, 0]	n/a	catFR1	5	R1395M
1420.498	0.883	1585991	WORD_OFF	n/a	n/a	CHEESECAKE	Desserts	4	12	[0, 0, 0]	n/a	catFR1	5	R1395M
1421.381	1.6	1586880	WORD	n/a	wordpools/wordpool_categorized_EN.txt	ANT	Insects	5	12	[0, 0, 0]	n/a	catFR1	5	R1395M
1422.981	0.867	1588481	WORD_OFF	n/a	n/a	ANT	Insects	5	12	[0, 0, 0]	n/a	catFR1	5	R1395M
1423.848	1.616	1589342	WORD	n/a	wordpools/wordpool_categorized_EN.txt	ROACH	Insects	6	12	[0, 0, 0]	n/a	catFR1	5	R1395M
1425.464	0.95	1590961	WORD_OFF	n/a	n/a	ROACH	Insects	6	12	[0, 0, 0]	n/a	catFR1	5	R1395M
1426.414	1.617	1591906	WORD	n/a	wordpools/wordpool_categorized_EN.txt	SANDER	Tools	7	12	[0, 0, 0]	n/a	catFR1	5	R1395M
1428.031	0.816	1593525	WORD_OFF	n/a	n/a	SANDER	Tools	7	12	[0, 0, 0]	n/a	catFR1	5	R1395M
1428.847	1.6	1594339	WORD	n/a	wordpools/wordpool_categorized_EN.txt	HAMMER	Tools	8	12	[0, 0, 0]	n/a	catFR1	5	R1395M
1430.447	0.884	1595939	WORD_OFF	n/a	n/a	HAMMER	Tools	8	12	[0, 0, 0]	n/a	catFR1	5	R1395M
1431.331	1.616	1596828	WORD	n/a	wordpools/wordpool_categorized_EN.txt	BROWNIES	Desserts	9	12	[0, 0, 0]	n/a	catFR1	5	R1395M
1432.947	0.984	1598438	WORD_OFF	n/a	n/a	BROWNIES	Desserts	9	12	[0, 0, 0]	n/a	catFR1	5	R1395M
1433.931	1.616	1599421	WORD	n/a	wordpools/wordpool_categorized_EN.txt	COBBLER	Desserts	10	12	[0, 0, 0]	n/a	catFR1	5	R1395M
1435.547	0.9	1601040	WORD_OFF	n/a	n/a	COBBLER	Desserts	10	12	[0, 0, 0]	n/a	catFR1	5	R1395M
1436.447	1.617	1601948	WORD	n/a	wordpools/wordpool_categorized_EN.txt	GNAT	Insects	11	12	[0, 0, 0]	n/a	catFR1	5	R1395M
1438.064	0.75	1603557	WORD_OFF	n/a	n/a	GNAT	Insects	11	12	[0, 0, 0]	n/a	catFR1	5	R1395M
1438.814	1.616	1604306	WORD	n/a	wordpools/wordpool_categorized_EN.txt	CRICKET	Insects	12	12	[0, 0, 0]	n/a	catFR1	5	R1395M
1440.43	0.002	1605925	WORD_OFF	n/a	n/a	CRICKET	Insects	12	12	[0, 0, 0]	n/a	catFR1	5	R1395M
1440.432	0.0	1605925	ENCODING_END	n/a	n/a	n/a	n/a	-999	12	[0, 0, 0]	n/a	catFR1	5	R1395M
1440.432	0.0	1605925	DISTRACT_START	n/a	n/a	n/a	n/a	-999	12	[0, 0, 0]	n/a	catFR1	5	R1395M
1440.431	0.001	1605925	PROB	0.001	n/a	n/a	n/a	-999	12	[3, 6, 2]	11	catFR1	5	R1395M
1440.432	3.782	1605926	START	n/a	n/a	n/a	n/a	-999	12	[-999, -999, -999]	n/a	catFR1	5	R1395M
1444.214	2.133	1609708	PROB	2.133	n/a	n/a	n/a	-999	12	[4, 6, 7]	17	catFR1	5	R1395M
1446.347	2.667	1611841	PROB	2.667	n/a	n/a	n/a	-999	12	[7, 1, 4]	12	catFR1	5	R1395M
1449.014	2.167	1614507	PROB	2.167	n/a	n/a	n/a	-999	12	[6, 3, 8]	17	catFR1	5	R1395M
1451.181	2.45	1616674	PROB	2.45	n/a	n/a	n/a	-999	12	[5, 2, 8]	15	catFR1	5	R1395M
1453.631	2.351	1619124	PROB	2.351	n/a	n/a	n/a	-999	12	[1, 8, 7]	16	catFR1	5	R1395M
1455.982	2.148	1621475	PROB	2.148	n/a	n/a	n/a	-999	12	[7, 7, 2]	16	catFR1	5	R1395M
1458.13	2.017	1623623	PROB	2.017	n/a	n/a	n/a	-999	12	[8, 1, 2]	11	catFR1	5	R1395M
1460.147	2.516	1625640	PROB	2.516	n/a	n/a	n/a	-999	12	[6, 5, 2]	13	catFR1	5	R1395M
1462.663	0.0	1628156	STOP	n/a	n/a	n/a	n/a	-999	12	[-999, -999, -999]	n/a	catFR1	5	R1395M
1462.663	2.034	1628161	DISTRACT_END	n/a	n/a	n/a	n/a	-999	12	[0, 0, 0]	n/a	catFR1	5	R1395M
1464.697	3.552	1630190	REC_START	n/a	n/a	n/a	n/a	-999	12	[0, 0, 0]	n/a	catFR1	5	R1395M
1468.249	1.188	1633741	REC_WORD	1.188	n/a	FUDGE	Desserts	3	12	[0, 0, 0]	n/a	catFR1	5	R1395M
1469.437	1.648	1634929	REC_WORD	1.648	n/a	CHEESECAKE	Desserts	4	12	[0, 0, 0]	n/a	catFR1	5	R1395M
1471.085	4.347	1636577	REC_WORD	4.347	n/a	BROWNIES	Desserts	9	12	[0, 0, 0]	n/a	catFR1	5	R1395M
1475.432	1.271	1640924	REC_WORD	1.271	n/a	ANT	Insects	5	12	[0, 0, 0]	n/a	catFR1	5	R1395M
1476.703	1.45	1642195	REC_WORD	1.45	n/a	ROACH	Insects	6	12	[0, 0, 0]	n/a	catFR1	5	R1395M
1478.153	11.374	1643645	REC_WORD	11.374	n/a	GNAT	Insects	11	12	[0, 0, 0]	n/a	catFR1	5	R1395M
1489.527	5.365	1655018	REC_WORD	5.365	n/a	CUPCAKE	Desserts	-999	12	[0, 0, 0]	n/a	catFR1	5	R1395M
1494.892	0.0	1660382	REC_END	n/a	n/a	n/a	n/a	-999	12	[0, 0, 0]	n/a	catFR1	5	R1395M
