onset	duration	sample	trial_type	response_time	stim_file	item_name	category	serialpos	list	test	answer	experiment	session	subject
0.0	53.556	-1	SESS_START	n/a	n/a	n/a	n/a	-999	-999	[0, 0, 0]	n/a	catFR1	0	R1024E
53.556	10.0	4059	COUNTDOWN_START	n/a	n/a	n/a	n/a	-999	-999	[0, 0, 0]	n/a	catFR1	0	R1024E
63.984	3.857	9273	COUNTDOWN_END	n/a	n/a	n/a	n/a	-999	-999	[0, 0, 0]	n/a	catFR1	0	R1024E
67.841	1.6	11201	PRACTICE_WORD	n/a	n/a	IRON	n/a	-999	-999	[0, 0, 0]	n/a	catFR1	0	R1024E
70.258	1.6	12410	PRACTICE_WORD	n/a	n/a	WATCH	n/a	-999	-999	[0, 0, 0]	n/a	catFR1	0	R1024E
72.692	1.6	13627	PRACTICE_WORD	n/a	n/a	RHINO	n/a	-999	-999	[0, 0, 0]	n/a	catFR1	0	R1024E
75.276	1.6	14919	PRACTICE_WORD	n/a	n/a	CAMEL	n/a	-999	-999	[0, 0, 0]	n/a	catFR1	0	R1024E
77.81	1.6	16186	PRACTICE_WORD	n/a	n/a	CHEST	n/a	-999	-999	[0, 0, 0]	n/a	catFR1	0	R1024E
80.293	1.6	17427	PRACTICE_WORD	n/a	n/a	BEAM	n/a	-999	-999	[0, 0, 0]	n/a	catFR1	0	R1024E
82.744	1.6	18653	PRACTICE_WORD	n/a	n/a	RING	n/a	-999	-999	[0, 0, 0]	n/a	catFR1	0	R1024E
85.294	1.6	19928	PRACTICE_WORD	n/a	n/a	FLOOD	n/a	-999	-999	[0, 0, 0]	n/a	catFR1	0	R1024E
87.811	1.6	21186	PRACTICE_WORD	n/a	n/a	COTTON	n/a	-999	-999	[0, 0, 0]	n/a	catFR1	0	R1024E
90.229	1.6	22395	PRACTICE_WORD	n/a	n/a	ATTIC	n/a	-999	-999	[0, 0, 0]	n/a	catFR1	0	R1024E
92.696	1.6	23629	PRACTICE_WORD	n/a	n/a	TONGUE	n/a	-999	-999	[0, 0, 0]	n/a	catFR1	0	R1024E
95.229	1.6	24895	PRACTICE_WORD	n/a	n/a	WAGON	n/a	-999	-999	[0, 0, 0]	n/a	catFR1	0	R1024E
96.846	0.001	25704	PRACTICE_DISTRACT_START	n/a	n/a	n/a	n/a	-999	-999	[0, 0, 0]	n/a	catFR1	0	R1024E
96.847	0.016	25704	START	n/a	n/a	n/a	n/a	-999	-1	[-999, -999, -999]	n/a	catFR1	0	R1024E
96.863	7.868	25712	PROB	7.846	n/a	n/a	n/a	-999	-1	[8, 2, 5]	15.0	catFR1	0	R1024E
104.731	4.267	29646	PROB	4.233	n/a	n/a	n/a	-999	-1	[1, 6, 5]	12.0	catFR1	0	R1024E
108.998	4.318	31780	PROB	4.294	n/a	n/a	n/a	-999	-1	[4, 5, 2]	11.0	catFR1	0	R1024E
113.316	5.209	33939	PROB	5.209	n/a	n/a	n/a	-999	-1	[8, 8, 2]	18.0	catFR1	0	R1024E
118.525	0.01	36543	STOP	n/a	n/a	n/a	n/a	-999	-1	[-999, -999, -999]	n/a	catFR1	0	R1024E
118.535	0.717	36548	PRACTICE_DISTRACT_END	n/a	n/a	n/a	n/a	-999	-999	[0, 0, 0]	n/a	catFR1	0	R1024E
119.252	30.515	36907	PRACTICE_REC_START	n/a	n/a	n/a	n/a	-999	-999	[0, 0, 0]	n/a	catFR1	0	R1024E
149.767	25.778	52165	PRACTICE_REC_END	n/a	n/a	n/a	n/a	-999	-999	[0, 0, 0]	n/a	catFR1	0	R1024E
175.545	10.0	65054	COUNTDOWN_START	n/a	n/a	n/a	n/a	-999	1	[0, 0, 0]	n/a	catFR1	0	R1024E
175.545	10.428	65054	TRIAL	n/a	n/a	n/a	n/a	-999	1	[0, 0, 0]	n/a	catFR1	0	R1024E
185.973	0.006	70268	COUNTDOWN_END	n/a	n/a	n/a	n/a	-999	1	[0, 0, 0]	n/a	catFR1	0	R1024E
185.979	1.6	70271	ORIENT	n/a	n/a	n/a	n/a	-999	1	[0, 0, 0]	n/a	catFR1	0	R1024E
189.779	1.6	72171	WORD	n/a	wordpools/wordpool_categorized_EN.txt	SANDER	Tools	1	1	[0, 0, 0]	n/a	catFR1	0	R1024E
192.18	1.6	73371	WORD	n/a	wordpools/wordpool_categorized_EN.txt	LEVEL	Tools	2	1	[0, 0, 0]	n/a	catFR1	0	R1024E
194.614	1.6	74588	WORD	n/a	wordpools/wordpool_categorized_EN.txt	LEMON	Fruit	3	1	[0, 0, 0]	n/a	catFR1	0	R1024E
196.997	1.6	75780	WORD	n/a	wordpools/wordpool_categorized_EN.txt	ORANGE	Fruit	4	1	[0, 0, 0]	n/a	catFR1	0	R1024E
199.382	1.6	76973	WORD	n/a	wordpools/wordpool_categorized_EN.txt	LAKE	Landscapes	5	1	[0, 0, 0]	n/a	catFR1	0	R1024E
201.948	1.6	78256	WORD	n/a	wordpools/wordpool_categorized_EN.txt	ISLAND	Landscapes	6	1	[0, 0, 0]	n/a	catFR1	0	R1024E
204.516	1.6	79540	WORD	n/a	wordpools/wordpool_categorized_EN.txt	HAMMER	Tools	7	1	[0, 0, 0]	n/a	catFR1	0	R1024E
206.949	1.6	80756	WORD	n/a	wordpools/wordpool_categorized_EN.txt	SHOVEL	Tools	8	1	[0, 0, 0]	n/a	catFR1	0	R1024E
209.333	1.6	81948	WORD	n/a	wordpools/wordpool_categorized_EN.txt	FOREST	Landscapes	9	1	[0, 0, 0]	n/a	catFR1	0	R1024E
211.933	1.6	83248	WORD	n/a	wordpools/wordpool_categorized_EN.txt	VALLEY	Landscapes	10	1	[0, 0, 0]	n/a	catFR1	0	R1024E
214.367	1.6	84465	WORD	n/a	wordpools/wordpool_categorized_EN.txt	APPLE	Fruit	11	1	[0, 0, 0]	n/a	catFR1	0	R1024E
216.751	1.6	85657	WORD	n/a	wordpools/wordpool_categorized_EN.txt	GRAPE	Fruit	12	1	[0, 0, 0]	n/a	catFR1	0	R1024E
218.368	0.002	86466	DISTRACT_START	n/a	n/a	n/a	n/a	-999	1	[0, 0, 0]	n/a	catFR1	0	R1024E
218.37	0.015	86467	START	n/a	n/a	n/a	n/a	-999	1	[-999, -999, -999]	n/a	catFR1	0	R1024E
218.385	11.019	86474	PROB	10.993	n/a	n/a	n/a	-999	1	[8, 4, 6]	18.0	catFR1	0	R1024E
229.404	4.117	91984	PROB	4.086	n/a	n/a	n/a	-999	1	[9, 8, 1]	18.0	catFR1	0	R1024E
233.521	7.4	94042	PROB	7.4	n/a	n/a	n/a	-999	1	[4, 9, 8]	21.0	catFR1	0	R1024E
240.921	0.017	97742	STOP	n/a	n/a	n/a	n/a	-999	1	[-999, -999, -999]	n/a	catFR1	0	R1024E
240.938	1.107	97751	DISTRACT_END	n/a	n/a	n/a	n/a	-999	1	[0, 0, 0]	n/a	catFR1	0	R1024E
242.045	2.434	98304	REC_START	n/a	n/a	n/a	n/a	-999	1	[0, 0, 0]	n/a	catFR1	0	R1024E
244.479	0.671	99521	REC_WORD	2.434	n/a	LEVEL	Tools	2	1	[0, 0, 0]	n/a	catFR1	0	R1024E
245.15	5.455	99857	REC_WORD	3.105	n/a	SANDER	Tools	1	1	[0, 0, 0]	n/a	catFR1	0	R1024E
250.605	3.889	102584	REC_WORD	8.56	n/a	GRAPE	Fruit	12	1	[0, 0, 0]	n/a	catFR1	0	R1024E
254.494	17.555	104529	REC_WORD	12.449	n/a	HAMMER	Tools	7	1	[0, 0, 0]	n/a	catFR1	0	R1024E
272.049	4.779	113307	REC_END	n/a	n/a	n/a	n/a	-999	1	[0, 0, 0]	n/a	catFR1	0	R1024E
276.828	0.0	115696	TRIAL	n/a	n/a	n/a	n/a	-999	2	[0, 0, 0]	n/a	catFR1	0	R1024E
276.828	10.0	115696	COUNTDOWN_START	n/a	n/a	n/a	n/a	-999	2	[0, 0, 0]	n/a	catFR1	0	R1024E
287.256	0.007	120910	COUNTDOWN_END	n/a	n/a	n/a	n/a	-999	2	[0, 0, 0]	n/a	catFR1	0	R1024E
287.263	1.6	120914	ORIENT	n/a	n/a	n/a	n/a	-999	2	[0, 0, 0]	n/a	catFR1	0	R1024E
290.763	1.6	122664	WORD	n/a	wordpools/wordpool_categorized_EN.txt	TROMBONE	Instruments	1	2	[0, 0, 0]	n/a	catFR1	0	R1024E
293.382	1.6	123973	WORD	n/a	wordpools/wordpool_categorized_EN.txt	BASS	Instruments	2	2	[0, 0, 0]	n/a	catFR1	0	R1024E
295.915	1.6	125240	WORD	n/a	wordpools/wordpool_categorized_EN.txt	PHONE	Electronics	3	2	[0, 0, 0]	n/a	catFR1	0	R1024E
298.483	1.6	126524	WORD	n/a	wordpools/wordpool_categorized_EN.txt	SCANNER	Electronics	4	2	[0, 0, 0]	n/a	catFR1	0	R1024E
300.982	1.6	127773	WORD	n/a	wordpools/wordpool_categorized_EN.txt	STRAINER	KitchenTools	5	2	[0, 0, 0]	n/a	catFR1	0	R1024E
303.417	1.6	128991	WORD	n/a	wordpools/wordpool_categorized_EN.txt	TONGS	KitchenTools	6	2	[0, 0, 0]	n/a	catFR1	0	R1024E
306.0	1.6	130282	WORD	n/a	wordpools/wordpool_categorized_EN.txt	RADIO	Electronics	7	2	[0, 0, 0]	n/a	catFR1	0	R1024E
308.484	1.6	131524	WORD	n/a	wordpools/wordpool_categorized_EN.txt	TELEVISION	Electronics	8	2	[0, 0, 0]	n/a	catFR1	0	R1024E
311.001	1.6	132783	WORD	n/a	wordpools/wordpool_categorized_EN.txt	TRUMPET	Instruments	9	2	[0, 0, 0]	n/a	catFR1	0	R1024E
313.469	1.6	134017	WORD	n/a	wordpools/wordpool_categorized_EN.txt	VIOLIN	Instruments	10	2	[0, 0, 0]	n/a	catFR1	0	R1024E
315.918	1.6	135241	WORD	n/a	wordpools/wordpool_categorized_EN.txt	COLANDER	KitchenTools	11	2	[0, 0, 0]	n/a	catFR1	0	R1024E
318.52	1.6	136542	WORD	n/a	wordpools/wordpool_categorized_EN.txt	SPATULA	KitchenTools	12	2	[0, 0, 0]	n/a	catFR1	0	R1024E
320.136	0.001	137350	DISTRACT_START	n/a	n/a	n/a	n/a	-999	2	[0, 0, 0]	n/a	catFR1	0	R1024E
320.137	0.015	137351	START	n/a	n/a	n/a	n/a	-999	2	[-999, -999, -999]	n/a	catFR1	0	R1024E
320.152	7.468	137358	PROB	7.436	n/a	n/a	n/a	-999	2	[9, 7, 3]	19.0	catFR1	0	R1024E
327.62	4.935	141092	PROB	4.905	n/a	n/a	n/a	-999	2	[2, 3, 3]	8.0	catFR1	0	R1024E
332.555	10.617	143560	PROB	10.617	n/a	n/a	n/a	-999	2	[1, 7, 8]	16.0	catFR1	0	R1024E
343.172	0.018	148868	STOP	n/a	n/a	n/a	n/a	-999	2	[-999, -999, -999]	n/a	catFR1	0	R1024E
343.19	1.185	148877	DISTRACT_END	n/a	n/a	n/a	n/a	-999	2	[0, 0, 0]	n/a	catFR1	0	R1024E
344.375	1.006	149470	REC_START	n/a	n/a	n/a	n/a	-999	2	[0, 0, 0]	n/a	catFR1	0	R1024E
345.381	0.817	149973	REC_WORD	1.006	n/a	TROMBONE	Instruments	1	2	[0, 0, 0]	n/a	catFR1	0	R1024E
346.198	2.653	150382	REC_WORD	1.823	n/a	TRUMPET	Instruments	9	2	[0, 0, 0]	n/a	catFR1	0	R1024E
348.851	0.796	151708	REC_WORD	4.476	n/a	COLANDER	KitchenTools	11	2	[0, 0, 0]	n/a	catFR1	0	R1024E
349.647	16.278	152106	REC_WORD	5.272	n/a	SPATULA	KitchenTools	12	2	[0, 0, 0]	n/a	catFR1	0	R1024E
365.925	0.648	160245	REC_WORD	21.55	n/a	TELEVISION	Electronics	8	2	[0, 0, 0]	n/a	catFR1	0	R1024E
366.573	7.81	160569	REC_WORD	22.198	n/a	RADIO	Electronics	7	2	[0, 0, 0]	n/a	catFR1	0	R1024E
374.383	6.93	164474	REC_END	n/a	n/a	n/a	n/a	-999	2	[0, 0, 0]	n/a	catFR1	0	R1024E
381.313	0.0	167939	TRIAL	n/a	n/a	n/a	n/a	-999	3	[0, 0, 0]	n/a	catFR1	0	R1024E
381.313	10.0	167939	COUNTDOWN_START	n/a	n/a	n/a	n/a	-999	3	[0, 0, 0]	n/a	catFR1	0	R1024E
391.741	0.007	173153	COUNTDOWN_END	n/a	n/a	n/a	n/a	-999	3	[0, 0, 0]	n/a	catFR1	0	R1024E
391.748	1.6	173157	ORIENT	n/a	n/a	n/a	n/a	-999	3	[0, 0, 0]	n/a	catFR1	0	R1024E
395.182	1.6	174874	WORD	n/a	wordpools/wordpool_categorized_EN.txt	PANTS	Clothing	1	3	[0, 0, 0]	n/a	catFR1	0	R1024E
397.583	1.6	176074	WORD	n/a	wordpools/wordpool_categorized_EN.txt	COAT	Clothing	2	3	[0, 0, 0]	n/a	catFR1	0	R1024E
400.2	1.6	177383	WORD	n/a	wordpools/wordpool_categorized_EN.txt	OAK	Trees	3	3	[0, 0, 0]	n/a	catFR1	0	R1024E
402.683	1.6	178624	WORD	n/a	wordpools/wordpool_categorized_EN.txt	WALNUT	Trees	4	3	[0, 0, 0]	n/a	catFR1	0	R1024E
405.184	1.6	179875	WORD	n/a	wordpools/wordpool_categorized_EN.txt	SHELF	Furniture	5	3	[0, 0, 0]	n/a	catFR1	0	R1024E
407.617	1.6	181091	WORD	n/a	wordpools/wordpool_categorized_EN.txt	BED	Furniture	6	3	[0, 0, 0]	n/a	catFR1	0	R1024E
410.068	1.6	182317	WORD	n/a	wordpools/wordpool_categorized_EN.txt	JEANS	Clothing	7	3	[0, 0, 0]	n/a	catFR1	0	R1024E
412.652	1.6	183609	WORD	n/a	wordpools/wordpool_categorized_EN.txt	DRESS	Clothing	8	3	[0, 0, 0]	n/a	catFR1	0	R1024E
415.285	1.6	184925	WORD	n/a	wordpools/wordpool_categorized_EN.txt	CHAIR	Furniture	9	3	[0, 0, 0]	n/a	catFR1	0	R1024E
417.753	1.6	186160	WORD	n/a	wordpools/wordpool_categorized_EN.txt	TABLE	Furniture	10	3	[0, 0, 0]	n/a	catFR1	0	R1024E
420.136	1.6	187351	WORD	n/a	wordpools/wordpool_categorized_EN.txt	CEDAR	Trees	11	3	[0, 0, 0]	n/a	catFR1	0	R1024E
422.554	1.6	188560	WORD	n/a	wordpools/wordpool_categorized_EN.txt	ELM	Trees	12	3	[0, 0, 0]	n/a	catFR1	0	R1024E
424.17	0.001	189368	DISTRACT_START	n/a	n/a	n/a	n/a	-999	3	[0, 0, 0]	n/a	catFR1	0	R1024E
424.171	0.016	189369	START	n/a	n/a	n/a	n/a	-999	3	[-999, -999, -999]	n/a	catFR1	0	R1024E
424.187	9.452	189377	PROB	9.427	n/a	n/a	n/a	-999	3	[5, 2, 7]	14.0	catFR1	0	R1024E
433.639	4.651	194103	PROB	4.631	n/a	n/a	n/a	-999	3	[8, 9, 1]	18.0	catFR1	0	R1024E
438.29	6.468	196428	PROB	6.468	n/a	n/a	n/a	-999	3	[2, 9, 2]	13.0	catFR1	0	R1024E
444.758	0.016	199662	STOP	n/a	n/a	n/a	n/a	-999	3	[-999, -999, -999]	n/a	catFR1	0	R1024E
444.774	1.067	199670	DISTRACT_END	n/a	n/a	n/a	n/a	-999	3	[0, 0, 0]	n/a	catFR1	0	R1024E
445.841	1.046	200204	REC_START	n/a	n/a	n/a	n/a	-999	3	[0, 0, 0]	n/a	catFR1	0	R1024E
446.887	0.388	200727	REC_WORD	1.046	n/a	OAK	Trees	3	3	[0, 0, 0]	n/a	catFR1	0	R1024E
447.275	0.634	200921	REC_WORD	1.434	n/a	WALNUT	Trees	4	3	[0, 0, 0]	n/a	catFR1	0	R1024E
447.909	0.554	201238	REC_WORD	2.068	n/a	CEDAR	Trees	11	3	[0, 0, 0]	n/a	catFR1	0	R1024E
448.463	2.53	201515	REC_WORD	2.622	n/a	ELM	Trees	12	3	[0, 0, 0]	n/a	catFR1	0	R1024E
450.993	0.624	202780	REC_WORD	5.152	n/a	BED	Furniture	6	3	[0, 0, 0]	n/a	catFR1	0	R1024E
451.617	24.239	203092	REC_WORD	5.776	n/a	SHELF	Furniture	5	3	[0, 0, 0]	n/a	catFR1	0	R1024E
475.856	10.61	215211	REC_END	n/a	n/a	n/a	n/a	-999	3	[0, 0, 0]	n/a	catFR1	0	R1024E
486.466	0.0	220516	TRIAL	n/a	n/a	n/a	n/a	-999	4	[0, 0, 0]	n/a	catFR1	0	R1024E
486.466	10.0	220516	COUNTDOWN_START	n/a	n/a	n/a	n/a	-999	4	[0, 0, 0]	n/a	catFR1	0	R1024E
496.894	0.006	225731	COUNTDOWN_END	n/a	n/a	n/a	n/a	-999	4	[0, 0, 0]	n/a	catFR1	0	R1024E
496.9	1.6	225734	ORIENT	n/a	n/a	n/a	n/a	-999	4	[0, 0, 0]	n/a	catFR1	0	R1024E
500.634	1.6	227601	WORD	n/a	wordpools/wordpool_categorized_EN.txt	DISHWASHER	Appliances	1	4	[0, 0, 0]	n/a	catFR1	0	R1024E
503.251	1.6	228909	WORD	n/a	wordpools/wordpool_categorized_EN.txt	WASHER	Appliances	2	4	[0, 0, 0]	n/a	catFR1	0	R1024E
505.651	1.6	230109	WORD	n/a	wordpools/wordpool_categorized_EN.txt	BROWNIES	Desserts	3	4	[0, 0, 0]	n/a	catFR1	0	R1024E
508.052	1.6	231310	WORD	n/a	wordpools/wordpool_categorized_EN.txt	PASTRY	Desserts	4	4	[0, 0, 0]	n/a	catFR1	0	R1024E
510.586	1.6	232577	WORD	n/a	wordpools/wordpool_categorized_EN.txt	LAMB	FarmAnimals	5	4	[0, 0, 0]	n/a	catFR1	0	R1024E
513.186	1.6	233877	WORD	n/a	wordpools/wordpool_categorized_EN.txt	HEN	FarmAnimals	6	4	[0, 0, 0]	n/a	catFR1	0	R1024E
515.67	1.6	235119	WORD	n/a	wordpools/wordpool_categorized_EN.txt	COOKIE	Desserts	7	4	[0, 0, 0]	n/a	catFR1	0	R1024E
518.104	1.6	236336	WORD	n/a	wordpools/wordpool_categorized_EN.txt	MOUSSE	Desserts	8	4	[0, 0, 0]	n/a	catFR1	0	R1024E
520.587	1.6	237577	WORD	n/a	wordpools/wordpool_categorized_EN.txt	STOVE	Appliances	9	4	[0, 0, 0]	n/a	catFR1	0	R1024E
523.138	1.6	238853	WORD	n/a	wordpools/wordpool_categorized_EN.txt	TOASTER	Appliances	10	4	[0, 0, 0]	n/a	catFR1	0	R1024E
525.688	1.6	240128	WORD	n/a	wordpools/wordpool_categorized_EN.txt	SHEEP	FarmAnimals	11	4	[0, 0, 0]	n/a	catFR1	0	R1024E
528.189	1.6	241378	WORD	n/a	wordpools/wordpool_categorized_EN.txt	BULL	FarmAnimals	12	4	[0, 0, 0]	n/a	catFR1	0	R1024E
529.806	0.0	242187	DISTRACT_START	n/a	n/a	n/a	n/a	-999	4	[0, 0, 0]	n/a	catFR1	0	R1024E
529.806	0.016	242187	START	n/a	n/a	n/a	n/a	-999	4	[-999, -999, -999]	n/a	catFR1	0	R1024E
529.822	7.218	242195	PROB	7.191	n/a	n/a	n/a	-999	4	[9, 6, 8]	23.0	catFR1	0	R1024E
537.04	4.101	245804	PROB	4.077	n/a	n/a	n/a	-999	4	[1, 7, 4]	12.0	catFR1	0	R1024E
541.141	3.067	247854	PROB	3.032	n/a	n/a	n/a	-999	4	[1, 2, 9]	12.0	catFR1	0	R1024E
544.208	5.677	249388	PROB	5.677	n/a	n/a	n/a	-999	4	[3, 1, 4]	8.0	catFR1	0	R1024E
549.885	0.007	252226	STOP	n/a	n/a	n/a	n/a	-999	4	[-999, -999, -999]	n/a	catFR1	0	R1024E
549.892	1.118	252230	DISTRACT_END	n/a	n/a	n/a	n/a	-999	4	[0, 0, 0]	n/a	catFR1	0	R1024E
551.01	4.88	252789	REC_START	n/a	n/a	n/a	n/a	-999	4	[0, 0, 0]	n/a	catFR1	0	R1024E
555.89	0.565	255229	REC_WORD	4.88	n/a	LAMB	FarmAnimals	5	4	[0, 0, 0]	n/a	catFR1	0	R1024E
556.455	19.666	255511	REC_WORD	5.445	n/a	SHEEP	FarmAnimals	11	4	[0, 0, 0]	n/a	catFR1	0	R1024E
576.121	0.902	265345	REC_WORD	25.111	n/a	DISHWASHER	Appliances	1	4	[0, 0, 0]	n/a	catFR1	0	R1024E
577.023	0.566	265796	REC_WORD	26.013	n/a	WASHER	Appliances	2	4	[0, 0, 0]	n/a	catFR1	0	R1024E
577.589	3.429	266079	REC_WORD	26.579	n/a	STOVE	Appliances	9	4	[0, 0, 0]	n/a	catFR1	0	R1024E
581.018	7.131	267793	REC_END	n/a	n/a	n/a	n/a	-999	4	[0, 0, 0]	n/a	catFR1	0	R1024E
588.149	0.0	271359	TRIAL	n/a	n/a	n/a	n/a	-999	5	[0, 0, 0]	n/a	catFR1	0	R1024E
588.149	10.0	271359	COUNTDOWN_START	n/a	n/a	n/a	n/a	-999	5	[0, 0, 0]	n/a	catFR1	0	R1024E
598.577	0.007	276573	COUNTDOWN_END	n/a	n/a	n/a	n/a	-999	5	[0, 0, 0]	n/a	catFR1	0	R1024E
598.584	1.6	276576	ORIENT	n/a	n/a	n/a	n/a	-999	5	[0, 0, 0]	n/a	catFR1	0	R1024E
602.436	1.6	278502	WORD	n/a	wordpools/wordpool_categorized_EN.txt	OYSTER	OceanAnimals	1	5	[0, 0, 0]	n/a	catFR1	0	R1024E
604.919	1.6	279744	WORD	n/a	wordpools/wordpool_categorized_EN.txt	JELLYFISH	OceanAnimals	2	5	[0, 0, 0]	n/a	catFR1	0	R1024E
607.387	1.6	280978	WORD	n/a	wordpools/wordpool_categorized_EN.txt	CELERY	Vegetables	3	5	[0, 0, 0]	n/a	catFR1	0	R1024E
609.936	1.6	282252	WORD	n/a	wordpools/wordpool_categorized_EN.txt	PEAS	Vegetables	4	5	[0, 0, 0]	n/a	catFR1	0	R1024E
612.421	1.6	283495	WORD	n/a	wordpools/wordpool_categorized_EN.txt	DOOR	Building	5	5	[0, 0, 0]	n/a	catFR1	0	R1024E
615.021	1.6	284795	WORD	n/a	wordpools/wordpool_categorized_EN.txt	WINDOW	Building	6	5	[0, 0, 0]	n/a	catFR1	0	R1024E
617.654	1.6	286111	WORD	n/a	wordpools/wordpool_categorized_EN.txt	WHALE	OceanAnimals	7	5	[0, 0, 0]	n/a	catFR1	0	R1024E
620.255	1.6	287412	WORD	n/a	wordpools/wordpool_categorized_EN.txt	OCTOPUS	OceanAnimals	8	5	[0, 0, 0]	n/a	catFR1	0	R1024E
622.722	1.6	288645	WORD	n/a	wordpools/wordpool_categorized_EN.txt	FLOOR	Building	9	5	[0, 0, 0]	n/a	catFR1	0	R1024E
625.289	1.6	289929	WORD	n/a	wordpools/wordpool_categorized_EN.txt	BATHROOM	Building	10	5	[0, 0, 0]	n/a	catFR1	0	R1024E
627.823	1.6	291196	WORD	n/a	wordpools/wordpool_categorized_EN.txt	SPINACH	Vegetables	11	5	[0, 0, 0]	n/a	catFR1	0	R1024E
630.24	1.6	292404	WORD	n/a	wordpools/wordpool_categorized_EN.txt	BROCCOLI	Vegetables	12	5	[0, 0, 0]	n/a	catFR1	0	R1024E
631.857	0.001	293213	DISTRACT_START	n/a	n/a	n/a	n/a	-999	5	[0, 0, 0]	n/a	catFR1	0	R1024E
631.858	0.015	293213	START	n/a	n/a	n/a	n/a	-999	5	[-999, -999, -999]	n/a	catFR1	0	R1024E
631.873	7.352	293221	PROB	7.326	n/a	n/a	n/a	-999	5	[7, 5, 3]	15.0	catFR1	0	R1024E
639.225	4.268	296897	PROB	4.247	n/a	n/a	n/a	-999	5	[1, 6, 4]	11.0	catFR1	0	R1024E
643.493	8.351	299031	PROB	8.33	n/a	n/a	n/a	-999	5	[9, 1, 7]	17.0	catFR1	0	R1024E
651.844	4.299	303207	PROB	4.299	n/a	n/a	n/a	-999	5	[4, 9, 9]	22.0	catFR1	0	R1024E
656.143	0.018	305356	STOP	n/a	n/a	n/a	n/a	-999	5	[-999, -999, -999]	n/a	catFR1	0	R1024E
656.161	1.117	305365	DISTRACT_END	n/a	n/a	n/a	n/a	-999	5	[0, 0, 0]	n/a	catFR1	0	R1024E
657.278	0.682	305924	REC_START	n/a	n/a	n/a	n/a	-999	5	[0, 0, 0]	n/a	catFR1	0	R1024E
657.96	0.863	306265	REC_WORD	0.682	n/a	OYSTER	OceanAnimals	1	5	[0, 0, 0]	n/a	catFR1	0	R1024E
658.823	6.491	306696	REC_WORD	1.545	n/a	JELLYFISH	OceanAnimals	2	5	[0, 0, 0]	n/a	catFR1	0	R1024E
665.314	0.919	309942	REC_WORD	8.036	n/a	CELERY	Vegetables	3	5	[0, 0, 0]	n/a	catFR1	0	R1024E
666.233	3.803	310401	REC_WORD	8.955	n/a	PEAS	Vegetables	4	5	[0, 0, 0]	n/a	catFR1	0	R1024E
670.036	5.826	312303	REC_WORD	12.758	n/a	SPINACH	Vegetables	11	5	[0, 0, 0]	n/a	catFR1	0	R1024E
675.862	11.427	315216	REC_WORD	18.584	n/a	BROCCOLI	Vegetables	12	5	[0, 0, 0]	n/a	catFR1	0	R1024E
687.289	97.961	320929	REC_END	n/a	n/a	n/a	n/a	-999	5	[0, 0, 0]	n/a	catFR1	0	R1024E
785.25	10.0	369911	COUNTDOWN_START	n/a	n/a	n/a	n/a	-999	6	[0, 0, 0]	n/a	catFR1	0	R1024E
785.251	10.427	369911	TRIAL	n/a	n/a	n/a	n/a	-999	6	[0, 0, 0]	n/a	catFR1	0	R1024E
795.678	0.008	375125	COUNTDOWN_END	n/a	n/a	n/a	n/a	-999	6	[0, 0, 0]	n/a	catFR1	0	R1024E
795.686	1.6	375129	ORIENT	n/a	n/a	n/a	n/a	-999	6	[0, 0, 0]	n/a	catFR1	0	R1024E
799.437	1.6	377004	WORD	n/a	wordpools/wordpool_categorized_EN.txt	CLOUD	Weather	1	6	[0, 0, 0]	n/a	catFR1	0	R1024E
801.92	1.6	378246	WORD	n/a	wordpools/wordpool_categorized_EN.txt	HURRICANE	Weather	2	6	[0, 0, 0]	n/a	catFR1	0	R1024E
804.438	1.6	379505	WORD	n/a	wordpools/wordpool_categorized_EN.txt	PEN	OfficeSupplies	3	6	[0, 0, 0]	n/a	catFR1	0	R1024E
806.988	1.6	380780	WORD	n/a	wordpools/wordpool_categorized_EN.txt	ERASER	OfficeSupplies	4	6	[0, 0, 0]	n/a	catFR1	0	R1024E
809.522	1.6	382047	WORD	n/a	wordpools/wordpool_categorized_EN.txt	COMPUTER	Electronics	5	6	[0, 0, 0]	n/a	catFR1	0	R1024E
811.972	1.6	383272	WORD	n/a	wordpools/wordpool_categorized_EN.txt	SPEAKER	Electronics	6	6	[0, 0, 0]	n/a	catFR1	0	R1024E
814.573	1.6	384572	WORD	n/a	wordpools/wordpool_categorized_EN.txt	MARKER	OfficeSupplies	7	6	[0, 0, 0]	n/a	catFR1	0	R1024E
817.139	1.6	385855	WORD	n/a	wordpools/wordpool_categorized_EN.txt	STAPLER	OfficeSupplies	8	6	[0, 0, 0]	n/a	catFR1	0	R1024E
819.606	1.6	387089	WORD	n/a	wordpools/wordpool_categorized_EN.txt	SNOW	Weather	9	6	[0, 0, 0]	n/a	catFR1	0	R1024E
822.157	1.6	388364	WORD	n/a	wordpools/wordpool_categorized_EN.txt	DRIZZLE	Weather	10	6	[0, 0, 0]	n/a	catFR1	0	R1024E
824.641	1.6	389606	WORD	n/a	wordpools/wordpool_categorized_EN.txt	MICROWAVE	Electronics	11	6	[0, 0, 0]	n/a	catFR1	0	R1024E
827.041	1.6	390806	WORD	n/a	wordpools/wordpool_categorized_EN.txt	PRINTER	Electronics	12	6	[0, 0, 0]	n/a	catFR1	0	R1024E
828.658	0.001	391615	DISTRACT_START	n/a	n/a	n/a	n/a	-999	6	[0, 0, 0]	n/a	catFR1	0	R1024E
828.659	0.016	391615	START	n/a	n/a	n/a	n/a	-999	6	[-999, -999, -999]	n/a	catFR1	0	R1024E
828.675	7.401	391623	PROB	7.373	n/a	n/a	n/a	-999	6	[9, 8, 2]	19.0	catFR1	0	R1024E
836.076	5.551	395324	PROB	5.532	n/a	n/a	n/a	-999	6	[8, 8, 1]	17.0	catFR1	0	R1024E
841.627	9.122	398099	PROB	9.122	n/a	n/a	n/a	-999	6	[8, 7, 6]	21.0	catFR1	0	R1024E
850.749	0.013	402660	STOP	n/a	n/a	n/a	n/a	-999	6	[-999, -999, -999]	n/a	catFR1	0	R1024E
850.762	1.168	402667	DISTRACT_END	n/a	n/a	n/a	n/a	-999	6	[0, 0, 0]	n/a	catFR1	0	R1024E
851.93	0.971	403251	REC_START	n/a	n/a	n/a	n/a	-999	6	[0, 0, 0]	n/a	catFR1	0	R1024E
852.901	0.427	403736	REC_WORD	0.971	n/a	PEN	OfficeSupplies	3	6	[0, 0, 0]	n/a	catFR1	0	R1024E
853.328	1.078	403950	REC_WORD	1.398	n/a	ERASER	OfficeSupplies	4	6	[0, 0, 0]	n/a	catFR1	0	R1024E
854.406	7.795	404489	REC_WORD	2.476	n/a	PRINTER	Electronics	12	6	[0, 0, 0]	n/a	catFR1	0	R1024E
862.201	19.738	408387	REC_WORD	10.271	n/a	MICROWAVE	Electronics	11	6	[0, 0, 0]	n/a	catFR1	0	R1024E
881.939	27.7	418256	REC_END	n/a	n/a	n/a	n/a	-999	6	[0, 0, 0]	n/a	catFR1	0	R1024E
909.639	0.0	432106	TRIAL	n/a	n/a	n/a	n/a	-999	7	[0, 0, 0]	n/a	catFR1	0	R1024E
909.639	10.0	432106	COUNTDOWN_START	n/a	n/a	n/a	n/a	-999	7	[0, 0, 0]	n/a	catFR1	0	R1024E
920.067	0.007	437320	COUNTDOWN_END	n/a	n/a	n/a	n/a	-999	7	[0, 0, 0]	n/a	catFR1	0	R1024E
920.074	1.6	437323	ORIENT	n/a	n/a	n/a	n/a	-999	7	[0, 0, 0]	n/a	catFR1	0	R1024E
923.941	1.6	439257	WORD	n/a	wordpools/wordpool_categorized_EN.txt	PLUM	Fruit	1	7	[0, 0, 0]	n/a	catFR1	0	R1024E
926.325	1.6	440449	WORD	n/a	wordpools/wordpool_categorized_EN.txt	LIME	Fruit	2	7	[0, 0, 0]	n/a	catFR1	0	R1024E
928.876	1.6	441724	WORD	n/a	wordpools/wordpool_categorized_EN.txt	KNEE	BodyParts	3	7	[0, 0, 0]	n/a	catFR1	0	R1024E
931.394	1.6	442983	WORD	n/a	wordpools/wordpool_categorized_EN.txt	EAR	BodyParts	4	7	[0, 0, 0]	n/a	catFR1	0	R1024E
933.876	1.6	444225	WORD	n/a	wordpools/wordpool_categorized_EN.txt	PAPER	OfficeSupplies	5	7	[0, 0, 0]	n/a	catFR1	0	R1024E
936.461	1.6	445517	WORD	n/a	wordpools/wordpool_categorized_EN.txt	GLUE	OfficeSupplies	6	7	[0, 0, 0]	n/a	catFR1	0	R1024E
938.911	1.6	446742	WORD	n/a	wordpools/wordpool_categorized_EN.txt	STRAWBERRY	Fruit	7	7	[0, 0, 0]	n/a	catFR1	0	R1024E
941.294	1.6	447934	WORD	n/a	wordpools/wordpool_categorized_EN.txt	PEACH	Fruit	8	7	[0, 0, 0]	n/a	catFR1	0	R1024E
943.845	1.6	449209	WORD	n/a	wordpools/wordpool_categorized_EN.txt	TAPE	OfficeSupplies	9	7	[0, 0, 0]	n/a	catFR1	0	R1024E
946.345	1.6	450459	WORD	n/a	wordpools/wordpool_categorized_EN.txt	BINDER	OfficeSupplies	10	7	[0, 0, 0]	n/a	catFR1	0	R1024E
948.846	1.6	451710	WORD	n/a	wordpools/wordpool_categorized_EN.txt	EYE	BodyParts	11	7	[0, 0, 0]	n/a	catFR1	0	R1024E
951.48	1.6	453027	WORD	n/a	wordpools/wordpool_categorized_EN.txt	LEG	BodyParts	12	7	[0, 0, 0]	n/a	catFR1	0	R1024E
953.096	0.001	453835	DISTRACT_START	n/a	n/a	n/a	n/a	-999	7	[0, 0, 0]	n/a	catFR1	0	R1024E
953.097	0.016	453835	START	n/a	n/a	n/a	n/a	-999	7	[-999, -999, -999]	n/a	catFR1	0	R1024E
953.113	5.051	453843	PROB	5.027	n/a	n/a	n/a	-999	7	[3, 7, 1]	11.0	catFR1	0	R1024E
958.164	5.018	456369	PROB	4.992	n/a	n/a	n/a	-999	7	[6, 6, 7]	19.0	catFR1	0	R1024E
963.182	4.301	458878	PROB	4.271	n/a	n/a	n/a	-999	7	[3, 3, 7]	13.0	catFR1	0	R1024E
967.483	4.633	461028	PROB	4.609	n/a	n/a	n/a	-999	7	[5, 1, 1]	7.0	catFR1	0	R1024E
972.116	5.552	463345	PROB	5.552	n/a	n/a	n/a	-999	7	[4, 4, 3]	11.0	catFR1	0	R1024E
977.668	0.016	466121	STOP	n/a	n/a	n/a	n/a	-999	7	[-999, -999, -999]	n/a	catFR1	0	R1024E
977.684	1.051	466129	DISTRACT_END	n/a	n/a	n/a	n/a	-999	7	[0, 0, 0]	n/a	catFR1	0	R1024E
978.735	1.603	466654	REC_START	n/a	n/a	n/a	n/a	-999	7	[0, 0, 0]	n/a	catFR1	0	R1024E
980.338	0.408	467456	REC_WORD	1.603	n/a	EYE	BodyParts	11	7	[0, 0, 0]	n/a	catFR1	0	R1024E
980.746	0.857	467660	REC_WORD	2.011	n/a	KNEE	BodyParts	3	7	[0, 0, 0]	n/a	catFR1	0	R1024E
981.603	3.855	468088	REC_WORD	2.868	n/a	LEG	BodyParts	12	7	[0, 0, 0]	n/a	catFR1	0	R1024E
985.458	2.628	470016	REC_WORD	6.723	n/a	PLUM	Fruit	1	7	[0, 0, 0]	n/a	catFR1	0	R1024E
988.086	4.306	471330	REC_WORD	9.351	n/a	STRAWBERRY	Fruit	7	7	[0, 0, 0]	n/a	catFR1	0	R1024E
992.392	7.014	473483	REC_WORD	13.657	n/a	PEACH	Fruit	8	7	[0, 0, 0]	n/a	catFR1	0	R1024E
999.406	9.337	476990	REC_WORD	20.671	n/a	ERASER	n/a	-999	7	[0, 0, 0]	n/a	catFR1	0	R1024E
1008.743	15.016	481659	REC_END	n/a	n/a	n/a	n/a	-999	7	[0, 0, 0]	n/a	catFR1	0	R1024E
1023.759	0.0	489167	TRIAL	n/a	n/a	n/a	n/a	-999	8	[0, 0, 0]	n/a	catFR1	0	R1024E
1023.759	10.0	489167	COUNTDOWN_START	n/a	n/a	n/a	n/a	-999	8	[0, 0, 0]	n/a	catFR1	0	R1024E
1034.187	0.007	494381	COUNTDOWN_END	n/a	n/a	n/a	n/a	-999	8	[0, 0, 0]	n/a	catFR1	0	R1024E
1034.194	1.6	494384	ORIENT	n/a	n/a	n/a	n/a	-999	8	[0, 0, 0]	n/a	catFR1	0	R1024E
1038.195	1.6	496385	WORD	n/a	wordpools/wordpool_categorized_EN.txt	BANJO	Instruments	1	8	[0, 0, 0]	n/a	catFR1	0	R1024E
1040.612	1.6	497593	WORD	n/a	wordpools/wordpool_categorized_EN.txt	ORGAN	Instruments	2	8	[0, 0, 0]	n/a	catFR1	0	R1024E
1043.146	1.6	498860	WORD	n/a	wordpools/wordpool_categorized_EN.txt	GOOSE	Birds	3	8	[0, 0, 0]	n/a	catFR1	0	R1024E
1045.596	1.6	500085	WORD	n/a	wordpools/wordpool_categorized_EN.txt	SPARROW	Birds	4	8	[0, 0, 0]	n/a	catFR1	0	R1024E
1048.08	1.6	501327	WORD	n/a	wordpools/wordpool_categorized_EN.txt	HICKORY	Trees	5	8	[0, 0, 0]	n/a	catFR1	0	R1024E
1050.464	1.6	502519	WORD	n/a	wordpools/wordpool_categorized_EN.txt	SPRUCE	Trees	6	8	[0, 0, 0]	n/a	catFR1	0	R1024E
1052.897	1.6	503736	WORD	n/a	wordpools/wordpool_categorized_EN.txt	PIANO	Instruments	7	8	[0, 0, 0]	n/a	catFR1	0	R1024E
1055.364	1.6	504969	WORD	n/a	wordpools/wordpool_categorized_EN.txt	CELLO	Instruments	8	8	[0, 0, 0]	n/a	catFR1	0	R1024E
1057.931	1.6	506253	WORD	n/a	wordpools/wordpool_categorized_EN.txt	EVERGREEN	Trees	9	8	[0, 0, 0]	n/a	catFR1	0	R1024E
1060.433	1.6	507504	WORD	n/a	wordpools/wordpool_categorized_EN.txt	PINE	Trees	10	8	[0, 0, 0]	n/a	catFR1	0	R1024E
1063.016	1.6	508795	WORD	n/a	wordpools/wordpool_categorized_EN.txt	BLUEBIRD	Birds	11	8	[0, 0, 0]	n/a	catFR1	0	R1024E
1065.467	1.6	510021	WORD	n/a	wordpools/wordpool_categorized_EN.txt	SEAGULL	Birds	12	8	[0, 0, 0]	n/a	catFR1	0	R1024E
1067.083	0.001	510829	DISTRACT_START	n/a	n/a	n/a	n/a	-999	8	[0, 0, 0]	n/a	catFR1	0	R1024E
1067.084	0.016	510829	START	n/a	n/a	n/a	n/a	-999	8	[-999, -999, -999]	n/a	catFR1	0	R1024E
1067.1	6.234	510837	PROB	6.207	n/a	n/a	n/a	-999	8	[3, 9, 8]	20.0	catFR1	0	R1024E
1073.334	5.484	513954	PROB	5.453	n/a	n/a	n/a	-999	8	[1, 9, 7]	17.0	catFR1	0	R1024E
1078.818	4.686	516697	PROB	4.65	n/a	n/a	n/a	-999	8	[1, 7, 6]	14.0	catFR1	0	R1024E
1083.504	8.515	519040	PROB	8.515	n/a	n/a	n/a	-999	8	[6, 9, 5]	20.0	catFR1	0	R1024E
1092.019	0.019	523297	STOP	n/a	n/a	n/a	n/a	-999	8	[-999, -999, -999]	n/a	catFR1	0	R1024E
1092.038	1.034	523307	DISTRACT_END	n/a	n/a	n/a	n/a	-999	8	[0, 0, 0]	n/a	catFR1	0	R1024E
1093.072	0.821	523824	REC_START	n/a	n/a	n/a	n/a	-999	8	[0, 0, 0]	n/a	catFR1	0	R1024E
1093.893	0.743	524234	REC_WORD	0.821	n/a	SPRUCE	Trees	6	8	[0, 0, 0]	n/a	catFR1	0	R1024E
1094.636	0.89	524606	REC_WORD	1.564	n/a	EVERGREEN	Trees	9	8	[0, 0, 0]	n/a	catFR1	0	R1024E
1095.526	2.514	525051	REC_WORD	2.454	n/a	PINE	Trees	10	8	[0, 0, 0]	n/a	catFR1	0	R1024E
1098.04	2.336	526308	REC_WORD	4.968	n/a	CELLO	Instruments	8	8	[0, 0, 0]	n/a	catFR1	0	R1024E
1100.376	3.978	527476	REC_WORD	7.304	n/a	PIANO	Instruments	7	8	[0, 0, 0]	n/a	catFR1	0	R1024E
1104.354	10.155	529465	REC_WORD	11.282	n/a	HICKORY	Trees	5	8	[0, 0, 0]	n/a	catFR1	0	R1024E
1114.509	8.571	534542	REC_WORD	21.437	n/a	ORGAN	Instruments	2	8	[0, 0, 0]	n/a	catFR1	0	R1024E
1123.08	10.965	538828	REC_END	n/a	n/a	n/a	n/a	-999	8	[0, 0, 0]	n/a	catFR1	0	R1024E
1134.045	0.0	544310	TRIAL	n/a	n/a	n/a	n/a	-999	9	[0, 0, 0]	n/a	catFR1	0	R1024E
1134.045	10.0	544310	COUNTDOWN_START	n/a	n/a	n/a	n/a	-999	9	[0, 0, 0]	n/a	catFR1	0	R1024E
1144.473	0.008	549524	COUNTDOWN_END	n/a	n/a	n/a	n/a	-999	9	[0, 0, 0]	n/a	catFR1	0	R1024E
1144.481	1.6	549528	ORIENT	n/a	n/a	n/a	n/a	-999	9	[0, 0, 0]	n/a	catFR1	0	R1024E
1148.031	1.6	551303	WORD	n/a	wordpools/wordpool_categorized_EN.txt	TULIP	Flowers	1	9	[0, 0, 0]	n/a	catFR1	0	R1024E
1150.565	1.6	552570	WORD	n/a	wordpools/wordpool_categorized_EN.txt	DAISY	Flowers	2	9	[0, 0, 0]	n/a	catFR1	0	R1024E
1153.082	1.6	553829	WORD	n/a	wordpools/wordpool_categorized_EN.txt	PLANKTON	OceanAnimals	3	9	[0, 0, 0]	n/a	catFR1	0	R1024E
1155.665	1.6	555121	WORD	n/a	wordpools/wordpool_categorized_EN.txt	CRAB	OceanAnimals	4	9	[0, 0, 0]	n/a	catFR1	0	R1024E
1158.049	1.6	556313	WORD	n/a	wordpools/wordpool_categorized_EN.txt	CHERRY	Fruit	5	9	[0, 0, 0]	n/a	catFR1	0	R1024E
1160.534	1.6	557555	WORD	n/a	wordpools/wordpool_categorized_EN.txt	BANANA	Fruit	6	9	[0, 0, 0]	n/a	catFR1	0	R1024E
1163.0	1.6	558788	WORD	n/a	wordpools/wordpool_categorized_EN.txt	LILAC	Flowers	7	9	[0, 0, 0]	n/a	catFR1	0	R1024E
1165.617	1.6	560097	WORD	n/a	wordpools/wordpool_categorized_EN.txt	LILY	Flowers	8	9	[0, 0, 0]	n/a	catFR1	0	R1024E
1168.101	1.6	561339	WORD	n/a	wordpools/wordpool_categorized_EN.txt	PEAR	Fruit	9	9	[0, 0, 0]	n/a	catFR1	0	R1024E
1170.634	1.6	562605	WORD	n/a	wordpools/wordpool_categorized_EN.txt	BLUEBERRY	Fruit	10	9	[0, 0, 0]	n/a	catFR1	0	R1024E
1173.252	1.6	563914	WORD	n/a	wordpools/wordpool_categorized_EN.txt	DOLPHIN	OceanAnimals	11	9	[0, 0, 0]	n/a	catFR1	0	R1024E
1175.769	1.6	565173	WORD	n/a	wordpools/wordpool_categorized_EN.txt	TURTLE	OceanAnimals	12	9	[0, 0, 0]	n/a	catFR1	0	R1024E
1177.387	0.001	565982	DISTRACT_START	n/a	n/a	n/a	n/a	-999	9	[0, 0, 0]	n/a	catFR1	0	R1024E
1177.388	0.015	565982	START	n/a	n/a	n/a	n/a	-999	9	[-999, -999, -999]	n/a	catFR1	0	R1024E
1177.403	5.734	565990	PROB	5.705	n/a	n/a	n/a	-999	9	[8, 3, 7]	18.0	catFR1	0	R1024E
1183.137	4.467	568857	PROB	4.432	n/a	n/a	n/a	-999	9	[1, 4, 3]	8.0	catFR1	0	R1024E
1187.604	4.318	571090	PROB	4.284	n/a	n/a	n/a	-999	9	[6, 3, 5]	14.0	catFR1	0	R1024E
1191.922	7.83	573249	PROB	7.83	n/a	n/a	n/a	-999	9	[7, 7, 5]	19.0	catFR1	0	R1024E
1199.752	0.004	577164	STOP	n/a	n/a	n/a	n/a	-999	9	[-999, -999, -999]	n/a	catFR1	0	R1024E
1199.756	1.118	577166	DISTRACT_END	n/a	n/a	n/a	n/a	-999	9	[0, 0, 0]	n/a	catFR1	0	R1024E
1200.874	5.104	577725	REC_START	n/a	n/a	n/a	n/a	-999	9	[0, 0, 0]	n/a	catFR1	0	R1024E
1205.978	0.89	580277	REC_WORD	5.104	n/a	TULIP	Flowers	1	9	[0, 0, 0]	n/a	catFR1	0	R1024E
1206.868	4.598	580722	REC_WORD	5.994	n/a	LILAC	Flowers	7	9	[0, 0, 0]	n/a	catFR1	0	R1024E
1211.466	2.642	583021	REC_WORD	10.592	n/a	SEAGULL	n/a	-999	9	[0, 0, 0]	n/a	catFR1	0	R1024E
1214.108	3.158	584342	REC_WORD	13.234	n/a	CRAB	OceanAnimals	4	9	[0, 0, 0]	n/a	catFR1	0	R1024E
1217.266	13.616	585921	REC_WORD	16.392	n/a	PLANKTON	OceanAnimals	3	9	[0, 0, 0]	n/a	catFR1	0	R1024E
1230.882	22.95	592730	REC_END	n/a	n/a	n/a	n/a	-999	9	[0, 0, 0]	n/a	catFR1	0	R1024E
1253.832	10.0	604205	COUNTDOWN_START	n/a	n/a	n/a	n/a	-999	10	[0, 0, 0]	n/a	catFR1	0	R1024E
1253.833	10.427	604205	TRIAL	n/a	n/a	n/a	n/a	-999	10	[0, 0, 0]	n/a	catFR1	0	R1024E
1264.26	0.008	609419	COUNTDOWN_END	n/a	n/a	n/a	n/a	-999	10	[0, 0, 0]	n/a	catFR1	0	R1024E
1264.268	1.6	609423	ORIENT	n/a	n/a	n/a	n/a	-999	10	[0, 0, 0]	n/a	catFR1	0	R1024E
1267.952	1.6	611265	WORD	n/a	wordpools/wordpool_categorized_EN.txt	SLINKY	Toys	1	10	[0, 0, 0]	n/a	catFR1	0	R1024E
1270.486	1.6	612532	WORD	n/a	wordpools/wordpool_categorized_EN.txt	MARBLES	Toys	2	10	[0, 0, 0]	n/a	catFR1	0	R1024E
1272.869	1.6	613723	WORD	n/a	wordpools/wordpool_categorized_EN.txt	CHICKEN	FarmAnimals	3	10	[0, 0, 0]	n/a	catFR1	0	R1024E
1275.27	1.6	614924	WORD	n/a	wordpools/wordpool_categorized_EN.txt	ROOSTER	FarmAnimals	4	10	[0, 0, 0]	n/a	catFR1	0	R1024E
1277.703	1.6	616140	WORD	n/a	wordpools/wordpool_categorized_EN.txt	CHIMPANZEE	Zoo	5	10	[0, 0, 0]	n/a	catFR1	0	R1024E
1280.187	1.6	617382	WORD	n/a	wordpools/wordpool_categorized_EN.txt	ORANGUTAN	Zoo	6	10	[0, 0, 0]	n/a	catFR1	0	R1024E
1282.588	1.6	618583	WORD	n/a	wordpools/wordpool_categorized_EN.txt	BARBIE	Toys	7	10	[0, 0, 0]	n/a	catFR1	0	R1024E
1285.121	1.6	619849	WORD	n/a	wordpools/wordpool_categorized_EN.txt	FOOTBALL	Toys	8	10	[0, 0, 0]	n/a	catFR1	0	R1024E
1287.588	1.6	621083	WORD	n/a	wordpools/wordpool_categorized_EN.txt	LION	Zoo	9	10	[0, 0, 0]	n/a	catFR1	0	R1024E
1290.022	1.6	622300	WORD	n/a	wordpools/wordpool_categorized_EN.txt	GIRAFFE	Zoo	10	10	[0, 0, 0]	n/a	catFR1	0	R1024E
1292.623	1.6	623600	WORD	n/a	wordpools/wordpool_categorized_EN.txt	CALF	FarmAnimals	11	10	[0, 0, 0]	n/a	catFR1	0	R1024E
1295.156	1.6	624867	WORD	n/a	wordpools/wordpool_categorized_EN.txt	GOAT	FarmAnimals	12	10	[0, 0, 0]	n/a	catFR1	0	R1024E
1296.773	0.001	625675	DISTRACT_START	n/a	n/a	n/a	n/a	-999	10	[0, 0, 0]	n/a	catFR1	0	R1024E
1296.774	0.016	625676	START	n/a	n/a	n/a	n/a	-999	10	[-999, -999, -999]	n/a	catFR1	0	R1024E
1296.79	6.018	625684	PROB	5.993	n/a	n/a	n/a	-999	10	[8, 5, 4]	17.0	catFR1	0	R1024E
1302.808	5.618	628693	PROB	5.592	n/a	n/a	n/a	-999	10	[1, 1, 5]	7.0	catFR1	0	R1024E
1308.426	6.952	631502	PROB	6.925	n/a	n/a	n/a	-999	10	[5, 7, 6]	18.0	catFR1	0	R1024E
1315.378	6.07	634978	PROB	6.07	n/a	n/a	n/a	-999	10	[2, 3, 8]	13.0	catFR1	0	R1024E
1321.448	0.014	638013	STOP	n/a	n/a	n/a	n/a	-999	10	[-999, -999, -999]	n/a	catFR1	0	R1024E
1321.462	1.216	638020	DISTRACT_END	n/a	n/a	n/a	n/a	-999	10	[0, 0, 0]	n/a	catFR1	0	R1024E
1322.678	0.828	638628	REC_START	n/a	n/a	n/a	n/a	-999	10	[0, 0, 0]	n/a	catFR1	0	R1024E
1323.506	0.868	639042	REC_WORD	0.828	n/a	SLINKY	Toys	1	10	[0, 0, 0]	n/a	catFR1	0	R1024E
1324.374	0.847	639476	REC_WORD	1.696	n/a	MARBLES	Toys	2	10	[0, 0, 0]	n/a	catFR1	0	R1024E
1325.221	0.74	639900	REC_WORD	2.543	n/a	FOOTBALL	Toys	8	10	[0, 0, 0]	n/a	catFR1	0	R1024E
1325.961	2.617	640270	REC_WORD	3.283	n/a	BARBIE	Toys	7	10	[0, 0, 0]	n/a	catFR1	0	R1024E
1328.578	2.759	641578	REC_WORD	5.9	n/a	ORANGUTAN	Zoo	6	10	[0, 0, 0]	n/a	catFR1	0	R1024E
1331.337	3.061	642958	REC_WORD	8.659	n/a	MONKEY	n/a	-999	10	[0, 0, 0]	n/a	catFR1	0	R1024E
1334.398	5.006	644488	REC_WORD	11.72	n/a	CHIMPANZEE	Zoo	5	10	[0, 0, 0]	n/a	catFR1	0	R1024E
1339.404	13.286	646991	REC_WORD	16.726	n/a	LION	Zoo	9	10	[0, 0, 0]	n/a	catFR1	0	R1024E
1352.69	49.635	653634	REC_END	n/a	n/a	n/a	n/a	-999	10	[0, 0, 0]	n/a	catFR1	0	R1024E
1402.325	0.0	678452	TRIAL	n/a	n/a	n/a	n/a	-999	11	[0, 0, 0]	n/a	catFR1	0	R1024E
1402.325	10.0	678452	COUNTDOWN_START	n/a	n/a	n/a	n/a	-999	11	[0, 0, 0]	n/a	catFR1	0	R1024E
1412.753	0.007	683666	COUNTDOWN_END	n/a	n/a	n/a	n/a	-999	11	[0, 0, 0]	n/a	catFR1	0	R1024E
1412.76	1.6	683670	ORIENT	n/a	n/a	n/a	n/a	-999	11	[0, 0, 0]	n/a	catFR1	0	R1024E
1416.144	1.6	685362	WORD	n/a	wordpools/wordpool_categorized_EN.txt	FISH	OceanAnimals	1	11	[0, 0, 0]	n/a	catFR1	0	R1024E
1418.562	1.6	686571	WORD	n/a	wordpools/wordpool_categorized_EN.txt	SHRIMP	OceanAnimals	2	11	[0, 0, 0]	n/a	catFR1	0	R1024E
1421.028	1.6	687804	WORD	n/a	wordpools/wordpool_categorized_EN.txt	STREAM	Landscapes	3	11	[0, 0, 0]	n/a	catFR1	0	R1024E
1423.646	1.6	689113	WORD	n/a	wordpools/wordpool_categorized_EN.txt	OCEAN	Landscapes	4	11	[0, 0, 0]	n/a	catFR1	0	R1024E
1426.263	1.6	690421	WORD	n/a	wordpools/wordpool_categorized_EN.txt	COFFEE	Beverages	5	11	[0, 0, 0]	n/a	catFR1	0	R1024E
1428.747	1.6	691663	WORD	n/a	wordpools/wordpool_categorized_EN.txt	JUICE	Beverages	6	11	[0, 0, 0]	n/a	catFR1	0	R1024E
1431.314	1.6	692947	WORD	n/a	wordpools/wordpool_categorized_EN.txt	BEACH	Landscapes	7	11	[0, 0, 0]	n/a	catFR1	0	R1024E
1433.814	1.6	694197	WORD	n/a	wordpools/wordpool_categorized_EN.txt	WOODS	Landscapes	8	11	[0, 0, 0]	n/a	catFR1	0	R1024E
1436.281	1.6	695430	WORD	n/a	wordpools/wordpool_categorized_EN.txt	SQUID	OceanAnimals	9	11	[0, 0, 0]	n/a	catFR1	0	R1024E
1438.848	1.6	696714	WORD	n/a	wordpools/wordpool_categorized_EN.txt	LOBSTER	OceanAnimals	10	11	[0, 0, 0]	n/a	catFR1	0	R1024E
1441.315	1.6	697947	WORD	n/a	wordpools/wordpool_categorized_EN.txt	COLA	Beverages	11	11	[0, 0, 0]	n/a	catFR1	0	R1024E
1443.716	1.6	699148	WORD	n/a	wordpools/wordpool_categorized_EN.txt	WATER	Beverages	12	11	[0, 0, 0]	n/a	catFR1	0	R1024E
1445.333	0.001	699956	DISTRACT_START	n/a	n/a	n/a	n/a	-999	11	[0, 0, 0]	n/a	catFR1	0	R1024E
1445.334	0.015	699957	START	n/a	n/a	n/a	n/a	-999	11	[-999, -999, -999]	n/a	catFR1	0	R1024E
1445.349	8.535	699964	PROB	8.502	n/a	n/a	n/a	-999	11	[5, 7, 2]	14.0	catFR1	0	R1024E
1453.884	4.001	704232	PROB	3.975	n/a	n/a	n/a	-999	11	[3, 2, 4]	9.0	catFR1	0	R1024E
1457.885	5.051	706233	PROB	5.025	n/a	n/a	n/a	-999	11	[4, 1, 1]	6.0	catFR1	0	R1024E
1462.936	5.874	708758	PROB	5.874	n/a	n/a	n/a	-999	11	[9, 3, 1]	13.0	catFR1	0	R1024E
1468.81	0.01	711695	STOP	n/a	n/a	n/a	n/a	-999	11	[-999, -999, -999]	n/a	catFR1	0	R1024E
1468.82	1.068	711700	DISTRACT_END	n/a	n/a	n/a	n/a	-999	11	[0, 0, 0]	n/a	catFR1	0	R1024E
1469.888	0.851	712234	REC_START	n/a	n/a	n/a	n/a	-999	11	[0, 0, 0]	n/a	catFR1	0	R1024E
1470.739	0.639	712660	REC_WORD	0.851	n/a	FISH	OceanAnimals	1	11	[0, 0, 0]	n/a	catFR1	0	R1024E
1471.378	2.662	712979	REC_WORD	1.49	n/a	SHRIMP	OceanAnimals	2	11	[0, 0, 0]	n/a	catFR1	0	R1024E
1474.04	1.297	714310	REC_WORD	4.152	n/a	LOBSTER	OceanAnimals	10	11	[0, 0, 0]	n/a	catFR1	0	R1024E
1475.337	1.565	714959	REC_WORD	5.449	n/a	SQUID	OceanAnimals	9	11	[0, 0, 0]	n/a	catFR1	0	R1024E
1476.902	0.601	715741	REC_WORD	7.014	n/a	STREAM	Landscapes	3	11	[0, 0, 0]	n/a	catFR1	0	R1024E
1477.503	22.393	716042	REC_WORD	7.615	n/a	OCEAN	Landscapes	4	11	[0, 0, 0]	n/a	catFR1	0	R1024E
1499.896	9.415	727238	REC_END	n/a	n/a	n/a	n/a	-999	11	[0, 0, 0]	n/a	catFR1	0	R1024E
1509.311	0.0	731946	TRIAL	n/a	n/a	n/a	n/a	-999	12	[0, 0, 0]	n/a	catFR1	0	R1024E
1509.311	10.0	731946	COUNTDOWN_START	n/a	n/a	n/a	n/a	-999	12	[0, 0, 0]	n/a	catFR1	0	R1024E
1519.739	0.007	737160	COUNTDOWN_END	n/a	n/a	n/a	n/a	-999	12	[0, 0, 0]	n/a	catFR1	0	R1024E
1519.746	1.6	737164	ORIENT	n/a	n/a	n/a	n/a	-999	12	[0, 0, 0]	n/a	catFR1	0	R1024E
1523.363	1.6	738972	WORD	n/a	wordpools/wordpool_categorized_EN.txt	WHISK	KitchenTools	1	12	[0, 0, 0]	n/a	catFR1	0	R1024E
1525.814	1.6	740198	WORD	n/a	wordpools/wordpool_categorized_EN.txt	CORKSCREW	KitchenTools	2	12	[0, 0, 0]	n/a	catFR1	0	R1024E
1528.415	1.6	741498	WORD	n/a	wordpools/wordpool_categorized_EN.txt	REFRIGERATOR	Appliances	3	12	[0, 0, 0]	n/a	catFR1	0	R1024E
1530.814	1.6	742698	WORD	n/a	wordpools/wordpool_categorized_EN.txt	FREEZER	Appliances	4	12	[0, 0, 0]	n/a	catFR1	0	R1024E
1533.281	1.6	743931	WORD	n/a	wordpools/wordpool_categorized_EN.txt	PENCIL	OfficeSupplies	5	12	[0, 0, 0]	n/a	catFR1	0	R1024E
1535.815	1.6	745198	WORD	n/a	wordpools/wordpool_categorized_EN.txt	FOLDER	OfficeSupplies	6	12	[0, 0, 0]	n/a	catFR1	0	R1024E
1538.349	1.6	746465	WORD	n/a	wordpools/wordpool_categorized_EN.txt	DRYER	Appliances	7	12	[0, 0, 0]	n/a	catFR1	0	R1024E
1540.949	1.6	747765	WORD	n/a	wordpools/wordpool_categorized_EN.txt	IRON	Appliances	8	12	[0, 0, 0]	n/a	catFR1	0	R1024E
1543.35	1.6	748966	WORD	n/a	wordpools/wordpool_categorized_EN.txt	GRATER	KitchenTools	9	12	[0, 0, 0]	n/a	catFR1	0	R1024E
1545.834	1.6	750208	WORD	n/a	wordpools/wordpool_categorized_EN.txt	FORK	KitchenTools	10	12	[0, 0, 0]	n/a	catFR1	0	R1024E
1548.435	1.6	751508	WORD	n/a	wordpools/wordpool_categorized_EN.txt	RULER	OfficeSupplies	11	12	[0, 0, 0]	n/a	catFR1	0	R1024E
1550.985	1.6	752783	WORD	n/a	wordpools/wordpool_categorized_EN.txt	NOTEBOOK	OfficeSupplies	12	12	[0, 0, 0]	n/a	catFR1	0	R1024E
1552.602	0.0	753592	DISTRACT_START	n/a	n/a	n/a	n/a	-999	12	[0, 0, 0]	n/a	catFR1	0	R1024E
1552.602	0.016	753592	START	n/a	n/a	n/a	n/a	-999	12	[-999, -999, -999]	n/a	catFR1	0	R1024E
1552.618	6.285	753600	PROB	6.258	n/a	n/a	n/a	-999	12	[9, 5, 2]	16.0	catFR1	0	R1024E
1558.903	6.468	756742	PROB	6.437	n/a	n/a	n/a	-999	12	[9, 4, 4]	17.0	catFR1	0	R1024E
1565.371	6.967	759976	PROB	6.935	n/a	n/a	n/a	-999	12	[4, 5, 4]	13.0	catFR1	0	R1024E
1572.338	5.304	763460	PROB	5.304	n/a	n/a	n/a	-999	12	[1, 1, 6]	8.0	catFR1	0	R1024E
1577.642	0.014	766112	STOP	n/a	n/a	n/a	n/a	-999	12	[-999, -999, -999]	n/a	catFR1	0	R1024E
1577.656	1.217	766119	DISTRACT_END	n/a	n/a	n/a	n/a	-999	12	[0, 0, 0]	n/a	catFR1	0	R1024E
1578.873	0.881	766727	REC_START	n/a	n/a	n/a	n/a	-999	12	[0, 0, 0]	n/a	catFR1	0	R1024E
1579.754	1.139	767168	REC_WORD	0.881	n/a	REFRIGERATOR	Appliances	3	12	[0, 0, 0]	n/a	catFR1	0	R1024E
1580.893	5.395	767737	REC_WORD	2.02	n/a	FREEZER	Appliances	4	12	[0, 0, 0]	n/a	catFR1	0	R1024E
1586.288	9.457	770435	REC_WORD	7.415	n/a	WHISK	KitchenTools	1	12	[0, 0, 0]	n/a	catFR1	0	R1024E
1595.745	1.851	775164	REC_WORD	16.872	n/a	NOTEBOOK	OfficeSupplies	12	12	[0, 0, 0]	n/a	catFR1	0	R1024E
1597.596	3.197	776089	REC_WORD	18.723	n/a	PEN	n/a	-999	12	[0, 0, 0]	n/a	catFR1	0	R1024E
1600.793	8.093	777688	REC_WORD	21.92	n/a	FOLDER	OfficeSupplies	6	12	[0, 0, 0]	n/a	catFR1	0	R1024E
1608.886	16.778	781734	REC_END	n/a	n/a	n/a	n/a	-999	12	[0, 0, 0]	n/a	catFR1	0	R1024E
1625.664	10.0	790123	COUNTDOWN_START	n/a	n/a	n/a	n/a	-999	13	[0, 0, 0]	n/a	catFR1	0	R1024E
1625.665	10.427	790124	TRIAL	n/a	n/a	n/a	n/a	-999	13	[0, 0, 0]	n/a	catFR1	0	R1024E
1636.092	0.008	795337	COUNTDOWN_END	n/a	n/a	n/a	n/a	-999	13	[0, 0, 0]	n/a	catFR1	0	R1024E
1636.1	1.6	795341	ORIENT	n/a	n/a	n/a	n/a	-999	13	[0, 0, 0]	n/a	catFR1	0	R1024E
1639.617	1.6	797100	WORD	n/a	wordpools/wordpool_categorized_EN.txt	COW	FarmAnimals	1	13	[0, 0, 0]	n/a	catFR1	0	R1024E
1642.017	1.6	798300	WORD	n/a	wordpools/wordpool_categorized_EN.txt	PIG	FarmAnimals	2	13	[0, 0, 0]	n/a	catFR1	0	R1024E
1644.485	1.6	799534	WORD	n/a	wordpools/wordpool_categorized_EN.txt	SCREWDRIVER	Tools	3	13	[0, 0, 0]	n/a	catFR1	0	R1024E
1647.068	1.6	800825	WORD	n/a	wordpools/wordpool_categorized_EN.txt	PLIERS	Tools	4	13	[0, 0, 0]	n/a	catFR1	0	R1024E
1649.57	1.6	802076	WORD	n/a	wordpools/wordpool_categorized_EN.txt	FOG	Weather	5	13	[0, 0, 0]	n/a	catFR1	0	R1024E
1652.136	1.6	803359	WORD	n/a	wordpools/wordpool_categorized_EN.txt	WIND	Weather	6	13	[0, 0, 0]	n/a	catFR1	0	R1024E
1654.653	1.6	804618	WORD	n/a	wordpools/wordpool_categorized_EN.txt	SAW	Tools	7	13	[0, 0, 0]	n/a	catFR1	0	R1024E
1657.086	1.6	805834	WORD	n/a	wordpools/wordpool_categorized_EN.txt	AXE	Tools	8	13	[0, 0, 0]	n/a	catFR1	0	R1024E
1659.521	1.6	807052	WORD	n/a	wordpools/wordpool_categorized_EN.txt	TURKEY	FarmAnimals	9	13	[0, 0, 0]	n/a	catFR1	0	R1024E
1661.954	1.6	808268	WORD	n/a	wordpools/wordpool_categorized_EN.txt	HORSE	FarmAnimals	10	13	[0, 0, 0]	n/a	catFR1	0	R1024E
1664.505	1.6	809544	WORD	n/a	wordpools/wordpool_categorized_EN.txt	RAIN	Weather	11	13	[0, 0, 0]	n/a	catFR1	0	R1024E
1667.122	1.6	810853	WORD	n/a	wordpools/wordpool_categorized_EN.txt	TORNADO	Weather	12	13	[0, 0, 0]	n/a	catFR1	0	R1024E
1668.739	0.001	811661	DISTRACT_START	n/a	n/a	n/a	n/a	-999	13	[0, 0, 0]	n/a	catFR1	0	R1024E
1668.74	0.015	811662	START	n/a	n/a	n/a	n/a	-999	13	[-999, -999, -999]	n/a	catFR1	0	R1024E
1668.755	10.419	811669	PROB	10.398	n/a	n/a	n/a	-999	13	[6, 8, 4]	18.0	catFR1	0	R1024E
1679.174	6.218	816879	PROB	6.197	n/a	n/a	n/a	-999	13	[9, 5, 3]	17.0	catFR1	0	R1024E
1685.392	9.402	819988	PROB	9.402	n/a	n/a	n/a	-999	13	[3, 1, 2]	6.0	catFR1	0	R1024E
1694.794	0.016	824689	STOP	n/a	n/a	n/a	n/a	-999	13	[-999, -999, -999]	n/a	catFR1	0	R1024E
1694.81	1.051	824697	DISTRACT_END	n/a	n/a	n/a	n/a	-999	13	[0, 0, 0]	n/a	catFR1	0	R1024E
1695.861	4.256	825222	REC_START	n/a	n/a	n/a	n/a	-999	13	[0, 0, 0]	n/a	catFR1	0	R1024E
1700.117	25.752	827350	REC_WORD	4.256	n/a	CORKSCREW	n/a	-999	13	[0, 0, 0]	n/a	catFR1	0	R1024E
1725.869	410.885	840226	REC_END	n/a	n/a	n/a	n/a	-999	13	[0, 0, 0]	n/a	catFR1	0	R1024E
2136.754	0.0	1045672	TRIAL	n/a	n/a	n/a	n/a	-999	14	[0, 0, 0]	n/a	catFR1	0	R1024E
2136.754	10.0	1045672	COUNTDOWN_START	n/a	n/a	n/a	n/a	-999	14	[0, 0, 0]	n/a	catFR1	0	R1024E
2147.182	0.007	1050886	COUNTDOWN_END	n/a	n/a	n/a	n/a	-999	14	[0, 0, 0]	n/a	catFR1	0	R1024E
2147.189	1.6	1050889	ORIENT	n/a	n/a	n/a	n/a	-999	14	[0, 0, 0]	n/a	catFR1	0	R1024E
2151.14	1.6	1052865	WORD	n/a	wordpools/wordpool_categorized_EN.txt	PIE	Desserts	1	14	[0, 0, 0]	n/a	catFR1	0	R1024E
2153.757	1.6	1054173	WORD	n/a	wordpools/wordpool_categorized_EN.txt	JELLO	Desserts	2	14	[0, 0, 0]	n/a	catFR1	0	R1024E
2156.241	1.6	1055415	WORD	n/a	wordpools/wordpool_categorized_EN.txt	SUNFLOWER	Flowers	3	14	[0, 0, 0]	n/a	catFR1	0	R1024E
2158.758	1.6	1056674	WORD	n/a	wordpools/wordpool_categorized_EN.txt	ROSE	Flowers	4	14	[0, 0, 0]	n/a	catFR1	0	R1024E
2161.242	1.6	1057916	WORD	n/a	wordpools/wordpool_categorized_EN.txt	DRESSER	Furniture	5	14	[0, 0, 0]	n/a	catFR1	0	R1024E
2163.859	1.6	1059224	WORD	n/a	wordpools/wordpool_categorized_EN.txt	DESK	Furniture	6	14	[0, 0, 0]	n/a	catFR1	0	R1024E
2166.359	1.6	1060474	WORD	n/a	wordpools/wordpool_categorized_EN.txt	MARIGOLD	Flowers	7	14	[0, 0, 0]	n/a	catFR1	0	R1024E
2168.826	1.6	1061708	WORD	n/a	wordpools/wordpool_categorized_EN.txt	PETUNIA	Flowers	8	14	[0, 0, 0]	n/a	catFR1	0	R1024E
2171.411	1.6	1063000	WORD	n/a	wordpools/wordpool_categorized_EN.txt	CUPCAKE	Desserts	9	14	[0, 0, 0]	n/a	catFR1	0	R1024E
2173.927	1.6	1064258	WORD	n/a	wordpools/wordpool_categorized_EN.txt	CHEESECAKE	Desserts	10	14	[0, 0, 0]	n/a	catFR1	0	R1024E
2176.328	1.6	1065459	WORD	n/a	wordpools/wordpool_categorized_EN.txt	SOFA	Furniture	11	14	[0, 0, 0]	n/a	catFR1	0	R1024E
2178.811	1.6	1066700	WORD	n/a	wordpools/wordpool_categorized_EN.txt	NIGHTSTAND	Furniture	12	14	[0, 0, 0]	n/a	catFR1	0	R1024E
2180.412	0.001	1067501	DISTRACT_START	n/a	n/a	n/a	n/a	-999	14	[0, 0, 0]	n/a	catFR1	0	R1024E
2180.413	0.016	1067501	START	n/a	n/a	n/a	n/a	-999	14	[-999, -999, -999]	n/a	catFR1	0	R1024E
2180.429	8.135	1067509	PROB	8.109	n/a	n/a	n/a	-999	14	[7, 9, 8]	24.0	catFR1	0	R1024E
2188.564	5.7	1071577	PROB	5.677	n/a	n/a	n/a	-999	14	[3, 4, 5]	12.0	catFR1	0	R1024E
2194.264	3.517	1074427	PROB	3.497	n/a	n/a	n/a	-999	14	[1, 2, 1]	4.0	catFR1	0	R1024E
2197.781	6.741	1076186	PROB	6.741	n/a	n/a	n/a	-999	14	[1, 5, 6]	13.0	catFR1	0	R1024E
2204.522	0.011	1079556	STOP	n/a	n/a	n/a	n/a	-999	14	[-999, -999, -999]	n/a	catFR1	0	R1024E
2204.533	1.084	1079562	DISTRACT_END	n/a	n/a	n/a	n/a	-999	14	[0, 0, 0]	n/a	catFR1	0	R1024E
2205.617	3.502	1080104	REC_START	n/a	n/a	n/a	n/a	-999	14	[0, 0, 0]	n/a	catFR1	0	R1024E
2209.119	0.956	1081855	REC_WORD	3.502	n/a	SUNFLOWER	Flowers	3	14	[0, 0, 0]	n/a	catFR1	0	R1024E
2210.075	1.456	1082333	REC_WORD	4.458	n/a	PETUNIA	Flowers	8	14	[0, 0, 0]	n/a	catFR1	0	R1024E
2211.531	2.515	1083061	REC_WORD	5.914	n/a	ROSE	Flowers	4	14	[0, 0, 0]	n/a	catFR1	0	R1024E
2214.046	4.646	1084318	REC_WORD	8.429	n/a	DRESSER	Furniture	5	14	[0, 0, 0]	n/a	catFR1	0	R1024E
2218.692	2.725	1086641	REC_WORD	13.075	n/a	CUPCAKE	Desserts	9	14	[0, 0, 0]	n/a	catFR1	0	R1024E
2221.417	1.827	1088004	REC_WORD	15.8	n/a	JELLO	Desserts	2	14	[0, 0, 0]	n/a	catFR1	0	R1024E
2223.244	12.381	1088917	REC_WORD	17.627	n/a	PIE	Desserts	1	14	[0, 0, 0]	n/a	catFR1	0	R1024E
2235.625	9.331	1095108	REC_END	n/a	n/a	n/a	n/a	-999	14	[0, 0, 0]	n/a	catFR1	0	R1024E
2244.956	0.0	1099773	TRIAL	n/a	n/a	n/a	n/a	-999	15	[0, 0, 0]	n/a	catFR1	0	R1024E
2244.956	10.0	1099773	COUNTDOWN_START	n/a	n/a	n/a	n/a	-999	15	[0, 0, 0]	n/a	catFR1	0	R1024E
2255.384	0.008	1104988	COUNTDOWN_END	n/a	n/a	n/a	n/a	-999	15	[0, 0, 0]	n/a	catFR1	0	R1024E
2255.392	1.6	1104992	ORIENT	n/a	n/a	n/a	n/a	-999	15	[0, 0, 0]	n/a	catFR1	0	R1024E
2258.859	1.6	1106725	WORD	n/a	wordpools/wordpool_categorized_EN.txt	MOPED	Vehicles	1	15	[0, 0, 0]	n/a	catFR1	0	R1024E
2261.359	1.6	1107975	WORD	n/a	wordpools/wordpool_categorized_EN.txt	SCOOTER	Vehicles	2	15	[0, 0, 0]	n/a	catFR1	0	R1024E
2263.81	1.6	1109201	WORD	n/a	wordpools/wordpool_categorized_EN.txt	LIGHTNING	Weather	3	15	[0, 0, 0]	n/a	catFR1	0	R1024E
2266.36	1.6	1110476	WORD	n/a	wordpools/wordpool_categorized_EN.txt	THUNDER	Weather	4	15	[0, 0, 0]	n/a	catFR1	0	R1024E
2268.927	1.6	1111759	WORD	n/a	wordpools/wordpool_categorized_EN.txt	ARM	BodyParts	5	15	[0, 0, 0]	n/a	catFR1	0	R1024E
2271.412	1.6	1113002	WORD	n/a	wordpools/wordpool_categorized_EN.txt	FOOT	BodyParts	6	15	[0, 0, 0]	n/a	catFR1	0	R1024E
2274.028	1.6	1114310	WORD	n/a	wordpools/wordpool_categorized_EN.txt	BUS	Vehicles	7	15	[0, 0, 0]	n/a	catFR1	0	R1024E
2276.479	1.6	1115535	WORD	n/a	wordpools/wordpool_categorized_EN.txt	BIKE	Vehicles	8	15	[0, 0, 0]	n/a	catFR1	0	R1024E
2278.879	1.6	1116735	WORD	n/a	wordpools/wordpool_categorized_EN.txt	HEAD	BodyParts	9	15	[0, 0, 0]	n/a	catFR1	0	R1024E
2281.48	1.6	1118036	WORD	n/a	wordpools/wordpool_categorized_EN.txt	NOSE	BodyParts	10	15	[0, 0, 0]	n/a	catFR1	0	R1024E
2283.913	1.6	1119252	WORD	n/a	wordpools/wordpool_categorized_EN.txt	HUMIDITY	Weather	11	15	[0, 0, 0]	n/a	catFR1	0	R1024E
2286.398	1.6	1120495	WORD	n/a	wordpools/wordpool_categorized_EN.txt	THUNDERSTORM	Weather	12	15	[0, 0, 0]	n/a	catFR1	0	R1024E
2288.014	0.001	1121303	DISTRACT_START	n/a	n/a	n/a	n/a	-999	15	[0, 0, 0]	n/a	catFR1	0	R1024E
2288.015	0.015	1121303	START	n/a	n/a	n/a	n/a	-999	15	[-999, -999, -999]	n/a	catFR1	0	R1024E
2288.03	4.868	1121311	PROB	4.836	n/a	n/a	n/a	-999	15	[1, 2, 2]	5.0	catFR1	0	R1024E
2292.898	6.985	1123745	PROB	6.959	n/a	n/a	n/a	-999	15	[9, 3, 6]	18.0	catFR1	0	R1024E
2299.883	3.684	1127237	PROB	3.656	n/a	n/a	n/a	-999	15	[5, 3, 5]	13.0	catFR1	0	R1024E
2303.567	6.418	1129079	PROB	6.418	n/a	n/a	n/a	-999	15	[7, 8, 3]	18.0	catFR1	0	R1024E
2309.985	0.016	1132288	STOP	n/a	n/a	n/a	n/a	-999	15	[-999, -999, -999]	n/a	catFR1	0	R1024E
2310.001	1.201	1132296	DISTRACT_END	n/a	n/a	n/a	n/a	-999	15	[0, 0, 0]	n/a	catFR1	0	R1024E
2311.202	0.709	1132897	REC_START	n/a	n/a	n/a	n/a	-999	15	[0, 0, 0]	n/a	catFR1	0	R1024E
2311.911	0.582	1133251	REC_WORD	0.709	n/a	MOPED	Vehicles	1	15	[0, 0, 0]	n/a	catFR1	0	R1024E
2312.493	1.91	1133542	REC_WORD	1.291	n/a	SCOOTER	Vehicles	2	15	[0, 0, 0]	n/a	catFR1	0	R1024E
2314.403	1.408	1134497	REC_WORD	3.201	n/a	LIGHTNING	Weather	3	15	[0, 0, 0]	n/a	catFR1	0	R1024E
2315.811	13.877	1135201	REC_WORD	4.609	n/a	THUNDERSTORM	Weather	12	15	[0, 0, 0]	n/a	catFR1	0	R1024E
2329.688	0.595	1142140	REC_WORD	18.486	n/a	BUS	Vehicles	7	15	[0, 0, 0]	n/a	catFR1	0	R1024E
2330.283	7.197	1142438	REC_WORD	19.081	n/a	BIKE	Vehicles	8	15	[0, 0, 0]	n/a	catFR1	0	R1024E
2337.48	1.615	1146036	REC_WORD	26.278	n/a	ARM	BodyParts	5	15	[0, 0, 0]	n/a	catFR1	0	R1024E
2339.095	2.115	1146844	REC_WORD	27.893	n/a	FOOT	BodyParts	6	15	[0, 0, 0]	n/a	catFR1	0	R1024E
2341.21	20.6	1147901	REC_END	n/a	n/a	n/a	n/a	-999	15	[0, 0, 0]	n/a	catFR1	0	R1024E
2361.81	0.0	1158201	TRIAL	n/a	n/a	n/a	n/a	-999	16	[0, 0, 0]	n/a	catFR1	0	R1024E
2361.81	10.0	1158201	COUNTDOWN_START	n/a	n/a	n/a	n/a	-999	16	[0, 0, 0]	n/a	catFR1	0	R1024E
2372.238	0.007	1163415	COUNTDOWN_END	n/a	n/a	n/a	n/a	-999	16	[0, 0, 0]	n/a	catFR1	0	R1024E
2372.245	1.6	1163419	ORIENT	n/a	n/a	n/a	n/a	-999	16	[0, 0, 0]	n/a	catFR1	0	R1024E
2375.863	1.6	1165228	WORD	n/a	wordpools/wordpool_categorized_EN.txt	CYPRESS	Trees	1	16	[0, 0, 0]	n/a	catFR1	0	R1024E
2378.414	1.6	1166503	WORD	n/a	wordpools/wordpool_categorized_EN.txt	MAPLE	Trees	2	16	[0, 0, 0]	n/a	catFR1	0	R1024E
2381.014	1.6	1167803	WORD	n/a	wordpools/wordpool_categorized_EN.txt	LADLE	KitchenTools	3	16	[0, 0, 0]	n/a	catFR1	0	R1024E
2383.448	1.6	1169020	WORD	n/a	wordpools/wordpool_categorized_EN.txt	PEELER	KitchenTools	4	16	[0, 0, 0]	n/a	catFR1	0	R1024E
2385.931	1.6	1170262	WORD	n/a	wordpools/wordpool_categorized_EN.txt	DAFFODIL	Flowers	5	16	[0, 0, 0]	n/a	catFR1	0	R1024E
2388.516	1.6	1171554	WORD	n/a	wordpools/wordpool_categorized_EN.txt	ORCHID	Flowers	6	16	[0, 0, 0]	n/a	catFR1	0	R1024E
2391.115	1.6	1172854	WORD	n/a	wordpools/wordpool_categorized_EN.txt	WILLOW	Trees	7	16	[0, 0, 0]	n/a	catFR1	0	R1024E
2393.533	1.6	1174063	WORD	n/a	wordpools/wordpool_categorized_EN.txt	BIRCH	Trees	8	16	[0, 0, 0]	n/a	catFR1	0	R1024E
2396.133	1.6	1175363	WORD	n/a	wordpools/wordpool_categorized_EN.txt	CARNATION	Flowers	9	16	[0, 0, 0]	n/a	catFR1	0	R1024E
2398.534	1.6	1176563	WORD	n/a	wordpools/wordpool_categorized_EN.txt	VIOLET	Flowers	10	16	[0, 0, 0]	n/a	catFR1	0	R1024E
2401.05	1.6	1177821	WORD	n/a	wordpools/wordpool_categorized_EN.txt	KNIFE	KitchenTools	11	16	[0, 0, 0]	n/a	catFR1	0	R1024E
2403.552	1.6	1179073	WORD	n/a	wordpools/wordpool_categorized_EN.txt	SPOON	KitchenTools	12	16	[0, 0, 0]	n/a	catFR1	0	R1024E
2405.168	0.0	1179881	DISTRACT_START	n/a	n/a	n/a	n/a	-999	16	[0, 0, 0]	n/a	catFR1	0	R1024E
2405.168	0.016	1179881	START	n/a	n/a	n/a	n/a	-999	16	[-999, -999, -999]	n/a	catFR1	0	R1024E
2405.184	5.085	1179889	PROB	5.051	n/a	n/a	n/a	-999	16	[1, 7, 8]	16.0	catFR1	0	R1024E
2410.269	5.584	1182431	PROB	5.558	n/a	n/a	n/a	-999	16	[7, 7, 8]	22.0	catFR1	0	R1024E
2415.853	6.652	1185223	PROB	6.632	n/a	n/a	n/a	-999	16	[6, 8, 7]	21.0	catFR1	0	R1024E
2422.505	6.563	1188549	PROB	6.563	n/a	n/a	n/a	-999	16	[3, 4, 2]	9.0	catFR1	0	R1024E
2429.068	0.004	1191831	STOP	n/a	n/a	n/a	n/a	-999	16	[-999, -999, -999]	n/a	catFR1	0	R1024E
2429.072	1.167	1191833	DISTRACT_END	n/a	n/a	n/a	n/a	-999	16	[0, 0, 0]	n/a	catFR1	0	R1024E
2430.239	0.603	1192416	REC_START	n/a	n/a	n/a	n/a	-999	16	[0, 0, 0]	n/a	catFR1	0	R1024E
2430.842	1.102	1192718	REC_WORD	0.603	n/a	CYPRESS	Trees	1	16	[0, 0, 0]	n/a	catFR1	0	R1024E
2431.944	0.757	1193269	REC_WORD	1.705	n/a	BIRCH	Trees	8	16	[0, 0, 0]	n/a	catFR1	0	R1024E
2432.701	2.942	1193647	REC_WORD	2.462	n/a	MAPLE	Trees	2	16	[0, 0, 0]	n/a	catFR1	0	R1024E
2435.643	11.578	1195118	REC_WORD	5.404	n/a	DAFFODIL	Flowers	5	16	[0, 0, 0]	n/a	catFR1	0	R1024E
2447.221	3.127	1200907	REC_WORD	16.982	n/a	VIOLET	Flowers	10	16	[0, 0, 0]	n/a	catFR1	0	R1024E
2450.348	0.84	1202471	REC_WORD	20.109	n/a	KNIFE	KitchenTools	11	16	[0, 0, 0]	n/a	catFR1	0	R1024E
2451.188	4.934	1202891	REC_WORD	20.949	n/a	SPOON	KitchenTools	12	16	[0, 0, 0]	n/a	catFR1	0	R1024E
2456.122	4.13	1205358	REC_WORD	25.883	n/a	LADLE	KitchenTools	3	16	[0, 0, 0]	n/a	catFR1	0	R1024E
2460.252	13.494	1207423	REC_END	n/a	n/a	n/a	n/a	-999	16	[0, 0, 0]	n/a	catFR1	0	R1024E
2473.746	10.0	1214170	COUNTDOWN_START	n/a	n/a	n/a	n/a	-999	17	[0, 0, 0]	n/a	catFR1	0	R1024E
2473.747	10.427	1214170	TRIAL	n/a	n/a	n/a	n/a	-999	17	[0, 0, 0]	n/a	catFR1	0	R1024E
2484.174	0.008	1219384	COUNTDOWN_END	n/a	n/a	n/a	n/a	-999	17	[0, 0, 0]	n/a	catFR1	0	R1024E
2484.182	1.6	1219388	ORIENT	n/a	n/a	n/a	n/a	-999	17	[0, 0, 0]	n/a	catFR1	0	R1024E
2488.082	1.6	1221338	WORD	n/a	wordpools/wordpool_categorized_EN.txt	LETTUCE	Vegetables	1	17	[0, 0, 0]	n/a	catFR1	0	R1024E
2490.484	1.6	1222539	WORD	n/a	wordpools/wordpool_categorized_EN.txt	CARROT	Vegetables	2	17	[0, 0, 0]	n/a	catFR1	0	R1024E
2492.933	1.6	1223764	WORD	n/a	wordpools/wordpool_categorized_EN.txt	JEEP	Vehicles	3	17	[0, 0, 0]	n/a	catFR1	0	R1024E
2495.485	1.6	1225040	WORD	n/a	wordpools/wordpool_categorized_EN.txt	BOAT	Vehicles	4	17	[0, 0, 0]	n/a	catFR1	0	R1024E
2498.034	1.6	1226314	WORD	n/a	wordpools/wordpool_categorized_EN.txt	CARDINAL	Birds	5	17	[0, 0, 0]	n/a	catFR1	0	R1024E
2500.435	1.6	1227515	WORD	n/a	wordpools/wordpool_categorized_EN.txt	PIGEON	Birds	6	17	[0, 0, 0]	n/a	catFR1	0	R1024E
2503.001	1.6	1228798	WORD	n/a	wordpools/wordpool_categorized_EN.txt	CAR	Vehicles	7	17	[0, 0, 0]	n/a	catFR1	0	R1024E
2505.57	1.6	1230082	WORD	n/a	wordpools/wordpool_categorized_EN.txt	TRAIN	Vehicles	8	17	[0, 0, 0]	n/a	catFR1	0	R1024E
2507.952	1.6	1231273	WORD	n/a	wordpools/wordpool_categorized_EN.txt	CABBAGE	Vegetables	9	17	[0, 0, 0]	n/a	catFR1	0	R1024E
2510.319	1.6	1232457	WORD	n/a	wordpools/wordpool_categorized_EN.txt	ONION	Vegetables	10	17	[0, 0, 0]	n/a	catFR1	0	R1024E
2512.72	1.6	1233657	WORD	n/a	wordpools/wordpool_categorized_EN.txt	CROW	Birds	11	17	[0, 0, 0]	n/a	catFR1	0	R1024E
2515.154	1.6	1234874	WORD	n/a	wordpools/wordpool_categorized_EN.txt	ROBIN	Birds	12	17	[0, 0, 0]	n/a	catFR1	0	R1024E
2516.771	0.0	1235683	DISTRACT_START	n/a	n/a	n/a	n/a	-999	17	[0, 0, 0]	n/a	catFR1	0	R1024E
2516.771	0.016	1235683	START	n/a	n/a	n/a	n/a	-999	17	[-999, -999, -999]	n/a	catFR1	0	R1024E
2516.787	8.868	1235691	PROB	8.84	n/a	n/a	n/a	-999	17	[8, 1, 9]	18.0	catFR1	0	R1024E
2525.655	5.451	1240125	PROB	5.417	n/a	n/a	n/a	-999	17	[4, 6, 5]	15.0	catFR1	0	R1024E
2531.106	5.535	1242850	PROB	5.502	n/a	n/a	n/a	-999	17	[8, 1, 8]	17.0	catFR1	0	R1024E
2536.641	9.366	1245618	PROB	9.366	n/a	n/a	n/a	-999	17	[6, 2, 7]	15.0	catFR1	0	R1024E
2546.007	0.019	1250301	STOP	n/a	n/a	n/a	n/a	-999	17	[-999, -999, -999]	n/a	catFR1	0	R1024E
2546.026	1.117	1250310	DISTRACT_END	n/a	n/a	n/a	n/a	-999	17	[0, 0, 0]	n/a	catFR1	0	R1024E
2547.143	2.07	1250869	REC_START	n/a	n/a	n/a	n/a	-999	17	[0, 0, 0]	n/a	catFR1	0	R1024E
2549.213	27.94	1251904	REC_WORD	2.07	n/a	JEEP	Vehicles	3	17	[0, 0, 0]	n/a	catFR1	0	R1024E
2577.153	81.427	1265874	REC_END	n/a	n/a	n/a	n/a	-999	17	[0, 0, 0]	n/a	catFR1	0	R1024E
2658.58	0.0	1306588	TRIAL	n/a	n/a	n/a	n/a	-999	18	[0, 0, 0]	n/a	catFR1	0	R1024E
2658.58	10.0	1306588	COUNTDOWN_START	n/a	n/a	n/a	n/a	-999	18	[0, 0, 0]	n/a	catFR1	0	R1024E
6111.363	46.025	3033003	SESS_START	n/a	n/a	n/a	n/a	-999	18	[0, 0, 0]	n/a	catFR1	0	R1024E
6157.388	0.0	3056016	TRIAL	n/a	n/a	n/a	n/a	-999	18	[0, 0, 0]	n/a	catFR1	0	R1024E
6157.388	10.0	3056016	COUNTDOWN_START	n/a	n/a	n/a	n/a	-999	18	[0, 0, 0]	n/a	catFR1	0	R1024E
6167.816	0.007	3061230	COUNTDOWN_END	n/a	n/a	n/a	n/a	-999	18	[0, 0, 0]	n/a	catFR1	0	R1024E
6167.823	1.6	3061234	ORIENT	n/a	n/a	n/a	n/a	-999	18	[0, 0, 0]	n/a	catFR1	0	R1024E
6171.541	1.6	3063093	WORD	n/a	wordpools/wordpool_categorized_EN.txt	WINE	Beverages	1	18	[0, 0, 0]	n/a	catFR1	0	R1024E
6174.058	1.6	3064351	WORD	n/a	wordpools/wordpool_categorized_EN.txt	BEER	Beverages	2	18	[0, 0, 0]	n/a	catFR1	0	R1024E
6176.475	1.6	3065560	WORD	n/a	wordpools/wordpool_categorized_EN.txt	CABINET	Furniture	3	18	[0, 0, 0]	n/a	catFR1	0	R1024E
6179.042	1.6	3066843	WORD	n/a	wordpools/wordpool_categorized_EN.txt	BOOKCASE	Furniture	4	18	[0, 0, 0]	n/a	catFR1	0	R1024E
6181.426	1.6	3068035	WORD	n/a	wordpools/wordpool_categorized_EN.txt	CAULIFLOWER	Vegetables	5	18	[0, 0, 0]	n/a	catFR1	0	R1024E
6184.009	1.6	3069327	WORD	n/a	wordpools/wordpool_categorized_EN.txt	POTATO	Vegetables	6	18	[0, 0, 0]	n/a	catFR1	0	R1024E
6186.493	1.6	3070569	WORD	n/a	wordpools/wordpool_categorized_EN.txt	RECLINER	Furniture	7	18	[0, 0, 0]	n/a	catFR1	0	R1024E
6188.927	1.6	3071786	WORD	n/a	wordpools/wordpool_categorized_EN.txt	COUCH	Furniture	8	18	[0, 0, 0]	n/a	catFR1	0	R1024E
6191.327	1.6	3072986	WORD	n/a	wordpools/wordpool_categorized_EN.txt	RUM	Beverages	9	18	[0, 0, 0]	n/a	catFR1	0	R1024E
6193.861	1.6	3074253	WORD	n/a	wordpools/wordpool_categorized_EN.txt	TEA	Beverages	10	18	[0, 0, 0]	n/a	catFR1	0	R1024E
6196.445	1.6	3075545	WORD	n/a	wordpools/wordpool_categorized_EN.txt	CORN	Vegetables	11	18	[0, 0, 0]	n/a	catFR1	0	R1024E
6198.846	1.6	3076745	WORD	n/a	wordpools/wordpool_categorized_EN.txt	CUCUMBER	Vegetables	12	18	[0, 0, 0]	n/a	catFR1	0	R1024E
6200.463	0.0	3077554	DISTRACT_START	n/a	n/a	n/a	n/a	-999	18	[0, 0, 0]	n/a	catFR1	0	R1024E
6200.463	0.016	3077554	START	n/a	n/a	n/a	n/a	-999	18	[-999, -999, -999]	n/a	catFR1	0	R1024E
6200.479	8.268	3077562	PROB	8.234	n/a	n/a	n/a	-999	18	[3, 3, 2]	8.0	catFR1	0	R1024E
6208.747	4.801	3081696	PROB	4.766	n/a	n/a	n/a	-999	18	[9, 4, 9]	22.0	catFR1	0	R1024E
6213.548	3.617	3084096	PROB	3.582	n/a	n/a	n/a	-999	18	[7, 4, 3]	14.0	catFR1	0	R1024E
6217.165	4.085	3085905	PROB	4.085	n/a	n/a	n/a	-999	18	[6, 4, 7]	17.0	catFR1	0	R1024E
6221.25	0.016	3087947	STOP	n/a	n/a	n/a	n/a	-999	18	[-999, -999, -999]	n/a	catFR1	0	R1024E
6221.266	1.118	3087955	DISTRACT_END	n/a	n/a	n/a	n/a	-999	18	[0, 0, 0]	n/a	catFR1	0	R1024E
6222.384	0.97	3088515	REC_START	n/a	n/a	n/a	n/a	-999	18	[0, 0, 0]	n/a	catFR1	0	R1024E
6223.354	0.846	3089000	REC_WORD	0.97	n/a	WINE	Beverages	1	18	[0, 0, 0]	n/a	catFR1	0	R1024E
6224.2	0.995	3089423	REC_WORD	1.816	n/a	BEER	Beverages	2	18	[0, 0, 0]	n/a	catFR1	0	R1024E
6225.195	0.87	3089920	REC_WORD	2.811	n/a	RUM	Beverages	9	18	[0, 0, 0]	n/a	catFR1	0	R1024E
6226.065	1.876	3090355	REC_WORD	3.681	n/a	TEA	Beverages	10	18	[0, 0, 0]	n/a	catFR1	0	R1024E
6227.941	1.016	3091293	REC_WORD	5.557	n/a	CABINET	Furniture	3	18	[0, 0, 0]	n/a	catFR1	0	R1024E
6228.957	6.189	3091801	REC_WORD	6.573	n/a	BOOKCASE	Furniture	4	18	[0, 0, 0]	n/a	catFR1	0	R1024E
6235.146	13.172	3094896	REC_WORD	12.762	n/a	CAULIFLOWER	Vegetables	5	18	[0, 0, 0]	n/a	catFR1	0	R1024E
6248.318	0.541	3101482	REC_WORD	25.934	n/a	COUCH	Furniture	8	18	[0, 0, 0]	n/a	catFR1	0	R1024E
6248.859	3.535	3101752	REC_WORD	26.475	n/a	RECLINER	Furniture	7	18	[0, 0, 0]	n/a	catFR1	0	R1024E
6252.394	3.445	3103520	REC_END	n/a	n/a	n/a	n/a	-999	18	[0, 0, 0]	n/a	catFR1	0	R1024E
6255.839	0.0	3105242	TRIAL	n/a	n/a	n/a	n/a	-999	19	[0, 0, 0]	n/a	catFR1	0	R1024E
6255.839	10.0	3105242	COUNTDOWN_START	n/a	n/a	n/a	n/a	-999	19	[0, 0, 0]	n/a	catFR1	0	R1024E
6266.267	0.006	3110456	COUNTDOWN_END	n/a	n/a	n/a	n/a	-999	19	[0, 0, 0]	n/a	catFR1	0	R1024E
6266.273	1.6	3110459	ORIENT	n/a	n/a	n/a	n/a	-999	19	[0, 0, 0]	n/a	catFR1	0	R1024E
6270.125	1.6	3112385	WORD	n/a	wordpools/wordpool_categorized_EN.txt	SPIDER	Insects	1	19	[0, 0, 0]	n/a	catFR1	0	R1024E
6272.675	1.6	3113660	WORD	n/a	wordpools/wordpool_categorized_EN.txt	GNAT	Insects	2	19	[0, 0, 0]	n/a	catFR1	0	R1024E
6275.159	1.6	3114902	WORD	n/a	wordpools/wordpool_categorized_EN.txt	FRISBEE	Toys	3	19	[0, 0, 0]	n/a	catFR1	0	R1024E
6277.71	1.6	3116178	WORD	n/a	wordpools/wordpool_categorized_EN.txt	BASEBALL	Toys	4	19	[0, 0, 0]	n/a	catFR1	0	R1024E
6280.127	1.6	3117386	WORD	n/a	wordpools/wordpool_categorized_EN.txt	FINGERS	BodyParts	5	19	[0, 0, 0]	n/a	catFR1	0	R1024E
6282.56	1.6	3118603	WORD	n/a	wordpools/wordpool_categorized_EN.txt	ELBOW	BodyParts	6	19	[0, 0, 0]	n/a	catFR1	0	R1024E
6285.01	1.6	3119828	WORD	n/a	wordpools/wordpool_categorized_EN.txt	DOLL	Toys	7	19	[0, 0, 0]	n/a	catFR1	0	R1024E
6287.595	1.6	3121120	WORD	n/a	wordpools/wordpool_categorized_EN.txt	PUZZLE	Toys	8	19	[0, 0, 0]	n/a	catFR1	0	R1024E
6290.112	1.6	3122379	WORD	n/a	wordpools/wordpool_categorized_EN.txt	LADYBUG	Insects	9	19	[0, 0, 0]	n/a	catFR1	0	R1024E
6292.612	1.6	3123629	WORD	n/a	wordpools/wordpool_categorized_EN.txt	MOSQUITO	Insects	10	19	[0, 0, 0]	n/a	catFR1	0	R1024E
6295.129	1.6	3124888	WORD	n/a	wordpools/wordpool_categorized_EN.txt	TOE	BodyParts	11	19	[0, 0, 0]	n/a	catFR1	0	R1024E
6297.563	1.6	3126105	WORD	n/a	wordpools/wordpool_categorized_EN.txt	HAND	BodyParts	12	19	[0, 0, 0]	n/a	catFR1	0	R1024E
6299.18	0.0	3126913	DISTRACT_START	n/a	n/a	n/a	n/a	-999	19	[0, 0, 0]	n/a	catFR1	0	R1024E
6299.18	0.016	3126913	START	n/a	n/a	n/a	n/a	-999	19	[-999, -999, -999]	n/a	catFR1	0	R1024E
6299.196	6.435	3126921	PROB	6.413	n/a	n/a	n/a	-999	19	[1, 9, 6]	16.0	catFR1	0	R1024E
6305.631	3.917	3130139	PROB	3.898	n/a	n/a	n/a	-999	19	[1, 4, 7]	12.0	catFR1	0	R1024E
6309.548	7.152	3132097	PROB	7.127	n/a	n/a	n/a	-999	19	[8, 5, 3]	16.0	catFR1	0	R1024E
6316.7	4.246	3135673	PROB	4.246	n/a	n/a	n/a	-999	19	[2, 8, 3]	13.0	catFR1	0	R1024E
6320.946	0.004	3137796	STOP	n/a	n/a	n/a	n/a	-999	19	[-999, -999, -999]	n/a	catFR1	0	R1024E
6320.95	1.118	3137798	DISTRACT_END	n/a	n/a	n/a	n/a	-999	19	[0, 0, 0]	n/a	catFR1	0	R1024E
6322.068	2.472	3138357	REC_START	n/a	n/a	n/a	n/a	-999	19	[0, 0, 0]	n/a	catFR1	0	R1024E
6324.54	0.674	3139593	REC_WORD	2.472	n/a	FINGERS	BodyParts	5	19	[0, 0, 0]	n/a	catFR1	0	R1024E
6325.214	1.214	3139930	REC_WORD	3.146	n/a	ELBOW	BodyParts	6	19	[0, 0, 0]	n/a	catFR1	0	R1024E
6326.428	1.273	3140537	REC_WORD	4.36	n/a	LADYBUG	Insects	9	19	[0, 0, 0]	n/a	catFR1	0	R1024E
6327.701	1.692	3141174	REC_WORD	5.633	n/a	FRISBEE	Toys	3	19	[0, 0, 0]	n/a	catFR1	0	R1024E
6329.393	0.82	3142020	REC_WORD	7.325	n/a	GNAT	Insects	2	19	[0, 0, 0]	n/a	catFR1	0	R1024E
6330.213	21.863	3142430	REC_WORD	8.145	n/a	SPIDER	Insects	1	19	[0, 0, 0]	n/a	catFR1	0	R1024E
6352.076	3.213	3153361	REC_END	n/a	n/a	n/a	n/a	-999	19	[0, 0, 0]	n/a	catFR1	0	R1024E
6355.289	10.0	3154968	COUNTDOWN_START	n/a	n/a	n/a	n/a	-999	20	[0, 0, 0]	n/a	catFR1	0	R1024E
6355.289	10.428	3154968	TRIAL	n/a	n/a	n/a	n/a	-999	20	[0, 0, 0]	n/a	catFR1	0	R1024E
6365.717	0.008	3160182	COUNTDOWN_END	n/a	n/a	n/a	n/a	-999	20	[0, 0, 0]	n/a	catFR1	0	R1024E
6365.725	1.6	3160186	ORIENT	n/a	n/a	n/a	n/a	-999	20	[0, 0, 0]	n/a	catFR1	0	R1024E
6369.626	1.6	3162137	WORD	n/a	wordpools/wordpool_categorized_EN.txt	MOUNTAIN	Landscapes	1	20	[0, 0, 0]	n/a	catFR1	0	R1024E
6372.009	1.6	3163328	WORD	n/a	wordpools/wordpool_categorized_EN.txt	CREEK	Landscapes	2	20	[0, 0, 0]	n/a	catFR1	0	R1024E
6374.46	1.6	3164554	WORD	n/a	wordpools/wordpool_categorized_EN.txt	ATTIC	Building	3	20	[0, 0, 0]	n/a	catFR1	0	R1024E
6376.927	1.6	3165787	WORD	n/a	wordpools/wordpool_categorized_EN.txt	HALLWAY	Building	4	20	[0, 0, 0]	n/a	catFR1	0	R1024E
6379.343	1.6	3166995	WORD	n/a	wordpools/wordpool_categorized_EN.txt	VAN	Vehicles	5	20	[0, 0, 0]	n/a	catFR1	0	R1024E
6381.861	1.6	3168254	WORD	n/a	wordpools/wordpool_categorized_EN.txt	PLANE	Vehicles	6	20	[0, 0, 0]	n/a	catFR1	0	R1024E
6384.294	1.6	3169471	WORD	n/a	wordpools/wordpool_categorized_EN.txt	RIVER	Landscapes	7	20	[0, 0, 0]	n/a	catFR1	0	R1024E
6386.695	1.6	3170671	WORD	n/a	wordpools/wordpool_categorized_EN.txt	HILLS	Landscapes	8	20	[0, 0, 0]	n/a	catFR1	0	R1024E
6389.129	1.6	3171888	WORD	n/a	wordpools/wordpool_categorized_EN.txt	MOTORCYCLE	Vehicles	9	20	[0, 0, 0]	n/a	catFR1	0	R1024E
6391.613	1.6	3173130	WORD	n/a	wordpools/wordpool_categorized_EN.txt	TRUCK	Vehicles	10	20	[0, 0, 0]	n/a	catFR1	0	R1024E
6394.097	1.6	3174372	WORD	n/a	wordpools/wordpool_categorized_EN.txt	ROOM	Building	11	20	[0, 0, 0]	n/a	catFR1	0	R1024E
6396.714	1.6	3175681	WORD	n/a	wordpools/wordpool_categorized_EN.txt	ROOF	Building	12	20	[0, 0, 0]	n/a	catFR1	0	R1024E
6398.33	0.0	3176489	DISTRACT_START	n/a	n/a	n/a	n/a	-999	20	[0, 0, 0]	n/a	catFR1	0	R1024E
6398.33	0.016	3176489	START	n/a	n/a	n/a	n/a	-999	20	[-999, -999, -999]	n/a	catFR1	0	R1024E
6398.346	4.752	3176497	PROB	4.72	n/a	n/a	n/a	-999	20	[5, 5, 7]	17.0	catFR1	0	R1024E
6403.098	5.2	3178873	PROB	5.175	n/a	n/a	n/a	-999	20	[6, 8, 4]	18.0	catFR1	0	R1024E
6408.298	6.869	3181473	PROB	6.846	n/a	n/a	n/a	-999	20	[9, 9, 4]	22.0	catFR1	0	R1024E
6415.167	6.352	3184907	PROB	6.352	n/a	n/a	n/a	-999	20	[6, 9, 5]	20.0	catFR1	0	R1024E
6421.519	0.016	3188083	STOP	n/a	n/a	n/a	n/a	-999	20	[-999, -999, -999]	n/a	catFR1	0	R1024E
6421.535	1.117	3188091	DISTRACT_END	n/a	n/a	n/a	n/a	-999	20	[0, 0, 0]	n/a	catFR1	0	R1024E
6422.652	1.067	3188650	REC_START	n/a	n/a	n/a	n/a	-999	20	[0, 0, 0]	n/a	catFR1	0	R1024E
6423.719	1.212	3189183	REC_WORD	1.067	n/a	MOUNTAIN	Landscapes	1	20	[0, 0, 0]	n/a	catFR1	0	R1024E
6424.931	2.724	3189789	REC_WORD	2.279	n/a	CREEK	Landscapes	2	20	[0, 0, 0]	n/a	catFR1	0	R1024E
6427.655	2.633	3191151	REC_WORD	5.003	n/a	RIVER	Landscapes	7	20	[0, 0, 0]	n/a	catFR1	0	R1024E
6430.288	5.154	3192468	REC_WORD	7.636	n/a	STREAM	n/a	-999	20	[0, 0, 0]	n/a	catFR1	0	R1024E
6435.442	1.245	3195045	REC_WORD	12.79	n/a	VAN	Vehicles	5	20	[0, 0, 0]	n/a	catFR1	0	R1024E
6436.687	11.546	3195667	REC_WORD	14.035	n/a	TRUCK	Vehicles	10	20	[0, 0, 0]	n/a	catFR1	0	R1024E
6448.233	1.708	3201441	REC_WORD	25.581	n/a	ATTIC	Building	3	20	[0, 0, 0]	n/a	catFR1	0	R1024E
6449.941	2.723	3202295	REC_WORD	27.289	n/a	ROOF	Building	12	20	[0, 0, 0]	n/a	catFR1	0	R1024E
6452.664	14.012	3203656	REC_END	n/a	n/a	n/a	n/a	-999	20	[0, 0, 0]	n/a	catFR1	0	R1024E
6466.676	0.0	3210662	TRIAL	n/a	n/a	n/a	n/a	-999	21	[0, 0, 0]	n/a	catFR1	0	R1024E
6466.676	10.0	3210662	COUNTDOWN_START	n/a	n/a	n/a	n/a	-999	21	[0, 0, 0]	n/a	catFR1	0	R1024E
6477.104	0.007	3215876	COUNTDOWN_END	n/a	n/a	n/a	n/a	-999	21	[0, 0, 0]	n/a	catFR1	0	R1024E
6477.111	1.6	3215880	ORIENT	n/a	n/a	n/a	n/a	-999	21	[0, 0, 0]	n/a	catFR1	0	R1024E
6480.712	1.6	3217680	WORD	n/a	wordpools/wordpool_categorized_EN.txt	HEADPHONES	Electronics	1	21	[0, 0, 0]	n/a	catFR1	0	R1024E
6483.129	1.6	3218889	WORD	n/a	wordpools/wordpool_categorized_EN.txt	CALCULATOR	Electronics	2	21	[0, 0, 0]	n/a	catFR1	0	R1024E
6485.646	1.6	3220147	WORD	n/a	wordpools/wordpool_categorized_EN.txt	BEETLE	Insects	3	21	[0, 0, 0]	n/a	catFR1	0	R1024E
6488.046	1.6	3221347	WORD	n/a	wordpools/wordpool_categorized_EN.txt	CRICKET	Insects	4	21	[0, 0, 0]	n/a	catFR1	0	R1024E
6490.647	1.6	3222648	WORD	n/a	wordpools/wordpool_categorized_EN.txt	ELEPHANT	Zoo	5	21	[0, 0, 0]	n/a	catFR1	0	R1024E
6493.097	1.6	3223873	WORD	n/a	wordpools/wordpool_categorized_EN.txt	CHEETAH	Zoo	6	21	[0, 0, 0]	n/a	catFR1	0	R1024E
6495.564	1.6	3225106	WORD	n/a	wordpools/wordpool_categorized_EN.txt	FLY	Insects	7	21	[0, 0, 0]	n/a	catFR1	0	R1024E
6498.115	1.6	3226382	WORD	n/a	wordpools/wordpool_categorized_EN.txt	BEE	Insects	8	21	[0, 0, 0]	n/a	catFR1	0	R1024E
6500.515	1.6	3227582	WORD	n/a	wordpools/wordpool_categorized_EN.txt	STEREO	Electronics	9	21	[0, 0, 0]	n/a	catFR1	0	R1024E
6503.032	1.6	3228840	WORD	n/a	wordpools/wordpool_categorized_EN.txt	TABLET	Electronics	10	21	[0, 0, 0]	n/a	catFR1	0	R1024E
6505.433	1.6	3230041	WORD	n/a	wordpools/wordpool_categorized_EN.txt	TIGER	Zoo	11	21	[0, 0, 0]	n/a	catFR1	0	R1024E
6507.833	1.6	3231241	WORD	n/a	wordpools/wordpool_categorized_EN.txt	ZEBRA	Zoo	12	21	[0, 0, 0]	n/a	catFR1	0	R1024E
6509.45	0.001	3232049	DISTRACT_START	n/a	n/a	n/a	n/a	-999	21	[0, 0, 0]	n/a	catFR1	0	R1024E
6509.451	0.016	3232050	START	n/a	n/a	n/a	n/a	-999	21	[-999, -999, -999]	n/a	catFR1	0	R1024E
6509.467	9.702	3232058	PROB	9.682	n/a	n/a	n/a	-999	21	[8, 9, 4]	21.0	catFR1	0	R1024E
6519.169	7.201	3236909	PROB	7.166	n/a	n/a	n/a	-999	21	[4, 9, 6]	19.0	catFR1	0	R1024E
6526.37	6.606	3240510	PROB	6.606	n/a	n/a	n/a	-999	21	[4, 7, 4]	15.0	catFR1	0	R1024E
6532.976	0.012	3243813	STOP	n/a	n/a	n/a	n/a	-999	21	[-999, -999, -999]	n/a	catFR1	0	R1024E
6532.988	1.067	3243819	DISTRACT_END	n/a	n/a	n/a	n/a	-999	21	[0, 0, 0]	n/a	catFR1	0	R1024E
6534.055	1.052	3244352	REC_START	n/a	n/a	n/a	n/a	-999	21	[0, 0, 0]	n/a	catFR1	0	R1024E
6535.107	7.077	3244878	REC_WORD	1.052	n/a	ELEPHANT	Zoo	5	21	[0, 0, 0]	n/a	catFR1	0	R1024E
6542.184	0.637	3248417	REC_WORD	8.129	n/a	TIGER	Zoo	11	21	[0, 0, 0]	n/a	catFR1	0	R1024E
6542.821	21.246	3248735	REC_WORD	8.766	n/a	CHEETAH	Zoo	6	21	[0, 0, 0]	n/a	catFR1	0	R1024E
6564.067	20.48	3259358	REC_END	n/a	n/a	n/a	n/a	-999	21	[0, 0, 0]	n/a	catFR1	0	R1024E
6584.547	0.0	3269598	TRIAL	n/a	n/a	n/a	n/a	-999	22	[0, 0, 0]	n/a	catFR1	0	R1024E
6584.547	10.0	3269598	COUNTDOWN_START	n/a	n/a	n/a	n/a	-999	22	[0, 0, 0]	n/a	catFR1	0	R1024E
6594.975	0.007	3274813	COUNTDOWN_END	n/a	n/a	n/a	n/a	-999	22	[0, 0, 0]	n/a	catFR1	0	R1024E
6594.982	1.6	3274816	ORIENT	n/a	n/a	n/a	n/a	-999	22	[0, 0, 0]	n/a	catFR1	0	R1024E
6598.799	1.6	3276725	WORD	n/a	wordpools/wordpool_categorized_EN.txt	CAKE	Desserts	1	22	[0, 0, 0]	n/a	catFR1	0	R1024E
6601.183	1.6	3277917	WORD	n/a	wordpools/wordpool_categorized_EN.txt	COBBLER	Desserts	2	22	[0, 0, 0]	n/a	catFR1	0	R1024E
6603.8	1.6	3279225	WORD	n/a	wordpools/wordpool_categorized_EN.txt	GUITAR	Instruments	3	22	[0, 0, 0]	n/a	catFR1	0	R1024E
6606.283	1.6	3280467	WORD	n/a	wordpools/wordpool_categorized_EN.txt	TUBA	Instruments	4	22	[0, 0, 0]	n/a	catFR1	0	R1024E
6608.767	1.6	3281709	WORD	n/a	wordpools/wordpool_categorized_EN.txt	SHOES	Clothing	5	22	[0, 0, 0]	n/a	catFR1	0	R1024E
6611.35	1.6	3283000	WORD	n/a	wordpools/wordpool_categorized_EN.txt	JACKET	Clothing	6	22	[0, 0, 0]	n/a	catFR1	0	R1024E
6613.718	1.6	3284184	WORD	n/a	wordpools/wordpool_categorized_EN.txt	PUDDING	Desserts	7	22	[0, 0, 0]	n/a	catFR1	0	R1024E
6616.152	1.6	3285401	WORD	n/a	wordpools/wordpool_categorized_EN.txt	FUDGE	Desserts	8	22	[0, 0, 0]	n/a	catFR1	0	R1024E
6618.686	1.6	3286668	WORD	n/a	wordpools/wordpool_categorized_EN.txt	BLOUSE	Clothing	9	22	[0, 0, 0]	n/a	catFR1	0	R1024E
6621.22	1.6	3287935	WORD	n/a	wordpools/wordpool_categorized_EN.txt	SHIRT	Clothing	10	22	[0, 0, 0]	n/a	catFR1	0	R1024E
6623.737	1.6	3289194	WORD	n/a	wordpools/wordpool_categorized_EN.txt	DRUM	Instruments	11	22	[0, 0, 0]	n/a	catFR1	0	R1024E
6626.32	1.6	3290485	WORD	n/a	wordpools/wordpool_categorized_EN.txt	FLUTE	Instruments	12	22	[0, 0, 0]	n/a	catFR1	0	R1024E
6627.938	0.0	3291294	DISTRACT_START	n/a	n/a	n/a	n/a	-999	22	[0, 0, 0]	n/a	catFR1	0	R1024E
6627.938	0.016	3291294	START	n/a	n/a	n/a	n/a	-999	22	[-999, -999, -999]	n/a	catFR1	0	R1024E
6627.954	12.686	3291302	PROB	12.659	n/a	n/a	n/a	-999	22	[9, 2, 6]	17.0	catFR1	0	R1024E
6640.64	11.211	3297645	PROB	11.211	n/a	n/a	n/a	-999	22	[7, 8, 8]	23.0	catFR1	0	R1024E
6651.851	0.008	3303251	STOP	n/a	n/a	n/a	n/a	-999	22	[-999, -999, -999]	n/a	catFR1	0	R1024E
6651.859	1.184	3303255	DISTRACT_END	n/a	n/a	n/a	n/a	-999	22	[0, 0, 0]	n/a	catFR1	0	R1024E
6653.043	2.345	3303847	REC_START	n/a	n/a	n/a	n/a	-999	22	[0, 0, 0]	n/a	catFR1	0	R1024E
6655.388	0.552	3305019	REC_WORD	2.345	n/a	CAKE	Desserts	1	22	[0, 0, 0]	n/a	catFR1	0	R1024E
6655.94	1.928	3305295	REC_WORD	2.897	n/a	COBBLER	Desserts	2	22	[0, 0, 0]	n/a	catFR1	0	R1024E
6657.868	5.007	3306259	REC_WORD	4.825	n/a	FUDGE	Desserts	8	22	[0, 0, 0]	n/a	catFR1	0	R1024E
6662.875	0.44	3308763	REC_WORD	9.832	n/a	BLOUSE	Clothing	9	22	[0, 0, 0]	n/a	catFR1	0	R1024E
6663.315	1.658	3308983	REC_WORD	10.272	n/a	SHIRT	Clothing	10	22	[0, 0, 0]	n/a	catFR1	0	R1024E
6664.973	18.078	3309812	REC_WORD	11.93	n/a	SHOES	Clothing	5	22	[0, 0, 0]	n/a	catFR1	0	R1024E
6683.051	21.167	3318851	REC_END	n/a	n/a	n/a	n/a	-999	22	[0, 0, 0]	n/a	catFR1	0	R1024E
6704.218	0.0	3329435	TRIAL	n/a	n/a	n/a	n/a	-999	23	[0, 0, 0]	n/a	catFR1	0	R1024E
6704.218	10.0	3329435	COUNTDOWN_START	n/a	n/a	n/a	n/a	-999	23	[0, 0, 0]	n/a	catFR1	0	R1024E
6714.646	0.007	3334649	COUNTDOWN_END	n/a	n/a	n/a	n/a	-999	23	[0, 0, 0]	n/a	catFR1	0	R1024E
6714.653	1.6	3334652	ORIENT	n/a	n/a	n/a	n/a	-999	23	[0, 0, 0]	n/a	catFR1	0	R1024E
6718.554	1.6	3336603	WORD	n/a	wordpools/wordpool_categorized_EN.txt	CEILING	Building	1	23	[0, 0, 0]	n/a	catFR1	0	R1024E
6721.104	1.6	3337878	WORD	n/a	wordpools/wordpool_categorized_EN.txt	STAIRS	Building	2	23	[0, 0, 0]	n/a	catFR1	0	R1024E
6723.571	1.6	3339111	WORD	n/a	wordpools/wordpool_categorized_EN.txt	PANDA	Zoo	3	23	[0, 0, 0]	n/a	catFR1	0	R1024E
6726.022	1.6	3340337	WORD	n/a	wordpools/wordpool_categorized_EN.txt	BEAR	Zoo	4	23	[0, 0, 0]	n/a	catFR1	0	R1024E
6728.405	1.6	3341528	WORD	n/a	wordpools/wordpool_categorized_EN.txt	DUCK	Birds	5	23	[0, 0, 0]	n/a	catFR1	0	R1024E
6730.906	1.6	3342779	WORD	n/a	wordpools/wordpool_categorized_EN.txt	HAWK	Birds	6	23	[0, 0, 0]	n/a	catFR1	0	R1024E
6733.305	1.6	3343978	WORD	n/a	wordpools/wordpool_categorized_EN.txt	WALL	Building	7	23	[0, 0, 0]	n/a	catFR1	0	R1024E
6735.723	1.6	3345187	WORD	n/a	wordpools/wordpool_categorized_EN.txt	FOUNDATION	Building	8	23	[0, 0, 0]	n/a	catFR1	0	R1024E
6738.124	1.6	3346388	WORD	n/a	wordpools/wordpool_categorized_EN.txt	DOVE	Birds	9	23	[0, 0, 0]	n/a	catFR1	0	R1024E
6740.591	1.6	3347622	WORD	n/a	wordpools/wordpool_categorized_EN.txt	FINCH	Birds	10	23	[0, 0, 0]	n/a	catFR1	0	R1024E
6743.091	1.6	3348872	WORD	n/a	wordpools/wordpool_categorized_EN.txt	GORILLA	Zoo	11	23	[0, 0, 0]	n/a	catFR1	0	R1024E
6745.525	1.6	3350089	WORD	n/a	wordpools/wordpool_categorized_EN.txt	MONKEY	Zoo	12	23	[0, 0, 0]	n/a	catFR1	0	R1024E
6747.142	0.001	3350897	DISTRACT_START	n/a	n/a	n/a	n/a	-999	23	[0, 0, 0]	n/a	catFR1	0	R1024E
6747.143	0.016	3350898	START	n/a	n/a	n/a	n/a	-999	23	[-999, -999, -999]	n/a	catFR1	0	R1024E
6747.159	10.134	3350906	PROB	10.099	n/a	n/a	n/a	-999	23	[9, 3, 5]	17.0	catFR1	0	R1024E
6757.293	4.518	3355973	PROB	4.485	n/a	n/a	n/a	-999	23	[5, 9, 3]	17.0	catFR1	0	R1024E
6761.811	4.517	3358232	PROB	4.494	n/a	n/a	n/a	-999	23	[6, 6, 8]	20.0	catFR1	0	R1024E
6766.328	3.17	3360490	PROB	3.17	n/a	n/a	n/a	-999	23	[5, 1, 1]	7.0	catFR1	0	R1024E
6769.498	0.015	3362075	STOP	n/a	n/a	n/a	n/a	-999	23	[-999, -999, -999]	n/a	catFR1	0	R1024E
6769.513	1.15	3362083	DISTRACT_END	n/a	n/a	n/a	n/a	-999	23	[0, 0, 0]	n/a	catFR1	0	R1024E
6770.663	1.118	3362658	REC_START	n/a	n/a	n/a	n/a	-999	23	[0, 0, 0]	n/a	catFR1	0	R1024E
6771.781	0.442	3363217	REC_WORD	1.118	n/a	WALL	Building	7	23	[0, 0, 0]	n/a	catFR1	0	R1024E
6772.223	2.876	3363438	REC_WORD	1.56	n/a	CEILING	Building	1	23	[0, 0, 0]	n/a	catFR1	0	R1024E
6775.099	1.437	3364876	REC_WORD	4.436	n/a	STAIRS	Building	2	23	[0, 0, 0]	n/a	catFR1	0	R1024E
6776.536	2.429	3365594	REC_WORD	5.873	n/a	FOUNDATION	Building	8	23	[0, 0, 0]	n/a	catFR1	0	R1024E
6778.965	0.512	3366809	REC_WORD	8.302	n/a	MONKEY	Zoo	12	23	[0, 0, 0]	n/a	catFR1	0	R1024E
6779.477	17.204	3367065	REC_WORD	8.814	n/a	GORILLA	Zoo	11	23	[0, 0, 0]	n/a	catFR1	0	R1024E
6796.681	0.715	3375667	REC_WORD	26.018	n/a	FINCH	Birds	10	23	[0, 0, 0]	n/a	catFR1	0	R1024E
6797.396	3.281	3376024	REC_WORD	26.733	n/a	DOVE	Birds	9	23	[0, 0, 0]	n/a	catFR1	0	R1024E
6800.677	46.499	3377665	REC_END	n/a	n/a	n/a	n/a	-999	23	[0, 0, 0]	n/a	catFR1	0	R1024E
6847.176	10.0	3400915	COUNTDOWN_START	n/a	n/a	n/a	n/a	-999	24	[0, 0, 0]	n/a	catFR1	0	R1024E
6847.176	10.428	3400915	TRIAL	n/a	n/a	n/a	n/a	-999	24	[0, 0, 0]	n/a	catFR1	0	R1024E
6857.604	0.007	3406129	COUNTDOWN_END	n/a	n/a	n/a	n/a	-999	24	[0, 0, 0]	n/a	catFR1	0	R1024E
6857.611	1.6	3406132	ORIENT	n/a	n/a	n/a	n/a	-999	24	[0, 0, 0]	n/a	catFR1	0	R1024E
6861.277	1.6	3407965	WORD	n/a	wordpools/wordpool_categorized_EN.txt	ANT	Insects	1	24	[0, 0, 0]	n/a	catFR1	0	R1024E
6863.862	1.6	3409258	WORD	n/a	wordpools/wordpool_categorized_EN.txt	MOTH	Insects	2	24	[0, 0, 0]	n/a	catFR1	0	R1024E
6866.295	1.6	3410474	WORD	n/a	wordpools/wordpool_categorized_EN.txt	MILK	Beverages	3	24	[0, 0, 0]	n/a	catFR1	0	R1024E
6868.847	1.6	3411750	WORD	n/a	wordpools/wordpool_categorized_EN.txt	CIDER	Beverages	4	24	[0, 0, 0]	n/a	catFR1	0	R1024E
6871.346	1.6	3413000	WORD	n/a	wordpools/wordpool_categorized_EN.txt	RATCHET	Tools	5	24	[0, 0, 0]	n/a	catFR1	0	R1024E
6873.864	1.6	3414259	WORD	n/a	wordpools/wordpool_categorized_EN.txt	DRILL	Tools	6	24	[0, 0, 0]	n/a	catFR1	0	R1024E
6876.347	1.6	3415500	WORD	n/a	wordpools/wordpool_categorized_EN.txt	BUTTERFLY	Insects	7	24	[0, 0, 0]	n/a	catFR1	0	R1024E
6878.932	1.6	3416793	WORD	n/a	wordpools/wordpool_categorized_EN.txt	ROACH	Insects	8	24	[0, 0, 0]	n/a	catFR1	0	R1024E
6881.348	1.6	3418001	WORD	n/a	wordpools/wordpool_categorized_EN.txt	WRENCH	Tools	9	24	[0, 0, 0]	n/a	catFR1	0	R1024E
6883.783	1.6	3419219	WORD	n/a	wordpools/wordpool_categorized_EN.txt	CROWBAR	Tools	10	24	[0, 0, 0]	n/a	catFR1	0	R1024E
6886.166	1.6	3420410	WORD	n/a	wordpools/wordpool_categorized_EN.txt	SODA	Beverages	11	24	[0, 0, 0]	n/a	catFR1	0	R1024E
6888.583	1.6	3421619	WORD	n/a	wordpools/wordpool_categorized_EN.txt	LEMONADE	Beverages	12	24	[0, 0, 0]	n/a	catFR1	0	R1024E
6890.2	0.001	3422427	DISTRACT_START	n/a	n/a	n/a	n/a	-999	24	[0, 0, 0]	n/a	catFR1	0	R1024E
6890.201	0.016	3422428	START	n/a	n/a	n/a	n/a	-999	24	[-999, -999, -999]	n/a	catFR1	0	R1024E
6890.217	7.268	3422436	PROB	7.24	n/a	n/a	n/a	-999	24	[4, 6, 9]	19.0	catFR1	0	R1024E
6897.485	4.901	3426070	PROB	4.86	n/a	n/a	n/a	-999	24	[6, 6, 6]	18.0	catFR1	0	R1024E
6902.386	4.317	3428520	PROB	4.296	n/a	n/a	n/a	-999	24	[9, 1, 8]	18.0	catFR1	0	R1024E
6906.703	8.334	3430679	PROB	8.334	n/a	n/a	n/a	-999	24	[7, 2, 4]	13.0	catFR1	0	R1024E
6915.037	0.018	3434846	STOP	n/a	n/a	n/a	n/a	-999	24	[-999, -999, -999]	n/a	catFR1	0	R1024E
6915.055	1.184	3434855	DISTRACT_END	n/a	n/a	n/a	n/a	-999	24	[0, 0, 0]	n/a	catFR1	0	R1024E
6916.239	0.83	3435447	REC_START	n/a	n/a	n/a	n/a	-999	24	[0, 0, 0]	n/a	catFR1	0	R1024E
6917.069	0.86	3435862	REC_WORD	0.83	n/a	LEMONADE	Beverages	12	24	[0, 0, 0]	n/a	catFR1	0	R1024E
6917.929	5.007	3436292	REC_WORD	1.69	n/a	SODA	Beverages	11	24	[0, 0, 0]	n/a	catFR1	0	R1024E
6922.936	0.438	3438795	REC_WORD	6.697	n/a	WRENCH	Tools	9	24	[0, 0, 0]	n/a	catFR1	0	R1024E
6923.374	22.873	3439014	REC_WORD	7.135	n/a	CROWBAR	Tools	10	24	[0, 0, 0]	n/a	catFR1	0	R1024E
6946.247	10.948	3450451	REC_END	n/a	n/a	n/a	n/a	-999	24	[0, 0, 0]	n/a	catFR1	0	R1024E
6957.195	10.0	3455925	COUNTDOWN_START	n/a	n/a	n/a	n/a	-999	25	[0, 0, 0]	n/a	catFR1	0	R1024E
6957.196	10.427	3455926	TRIAL	n/a	n/a	n/a	n/a	-999	25	[0, 0, 0]	n/a	catFR1	0	R1024E
6967.623	0.008	3461139	COUNTDOWN_END	n/a	n/a	n/a	n/a	-999	25	[0, 0, 0]	n/a	catFR1	0	R1024E
6967.631	1.6	3461143	ORIENT	n/a	n/a	n/a	n/a	-999	25	[0, 0, 0]	n/a	catFR1	0	R1024E
6971.148	1.6	3462902	WORD	n/a	wordpools/wordpool_categorized_EN.txt	DOLLHOUSE	Toys	1	25	[0, 0, 0]	n/a	catFR1	0	R1024E
6973.582	1.6	3464119	WORD	n/a	wordpools/wordpool_categorized_EN.txt	BALL	Toys	2	25	[0, 0, 0]	n/a	catFR1	0	R1024E
6975.998	1.6	3465327	WORD	n/a	wordpools/wordpool_categorized_EN.txt	SHORTS	Clothing	3	25	[0, 0, 0]	n/a	catFR1	0	R1024E
6978.466	1.6	3466561	WORD	n/a	wordpools/wordpool_categorized_EN.txt	SOCKS	Clothing	4	25	[0, 0, 0]	n/a	catFR1	0	R1024E
6980.899	1.6	3467777	WORD	n/a	wordpools/wordpool_categorized_EN.txt	OVEN	Appliances	5	25	[0, 0, 0]	n/a	catFR1	0	R1024E
6983.383	1.6	3469019	WORD	n/a	wordpools/wordpool_categorized_EN.txt	VACUUM	Appliances	6	25	[0, 0, 0]	n/a	catFR1	0	R1024E
6985.834	1.6	3470245	WORD	n/a	wordpools/wordpool_categorized_EN.txt	SKIRT	Clothing	7	25	[0, 0, 0]	n/a	catFR1	0	R1024E
6988.418	1.6	3471537	WORD	n/a	wordpools/wordpool_categorized_EN.txt	UNDERWEAR	Clothing	8	25	[0, 0, 0]	n/a	catFR1	0	R1024E
6990.935	1.6	3472795	WORD	n/a	wordpools/wordpool_categorized_EN.txt	BLOCKS	Toys	9	25	[0, 0, 0]	n/a	catFR1	0	R1024E
6993.468	1.6	3474062	WORD	n/a	wordpools/wordpool_categorized_EN.txt	BASKETBALL	Toys	10	25	[0, 0, 0]	n/a	catFR1	0	R1024E
6995.936	1.6	3475296	WORD	n/a	wordpools/wordpool_categorized_EN.txt	BLENDER	Appliances	11	25	[0, 0, 0]	n/a	catFR1	0	R1024E
6998.352	1.6	3476504	WORD	n/a	wordpools/wordpool_categorized_EN.txt	MIXER	Appliances	12	25	[0, 0, 0]	n/a	catFR1	0	R1024E
6999.97	0.0	3477313	DISTRACT_START	n/a	n/a	n/a	n/a	-999	25	[0, 0, 0]	n/a	catFR1	0	R1024E
6999.97	0.016	3477313	START	n/a	n/a	n/a	n/a	-999	25	[-999, -999, -999]	n/a	catFR1	0	R1024E
6999.986	4.901	3477321	PROB	4.872	n/a	n/a	n/a	-999	25	[1, 8, 1]	10.0	catFR1	0	R1024E
7004.887	3.851	3479771	PROB	3.819	n/a	n/a	n/a	-999	25	[9, 1, 3]	13.0	catFR1	0	R1024E
7008.738	3.15	3481697	PROB	3.12	n/a	n/a	n/a	-999	25	[2, 2, 1]	5.0	catFR1	0	R1024E
7011.888	6.318	3483272	PROB	6.283	n/a	n/a	n/a	-999	25	[5, 6, 1]	12.0	catFR1	0	R1024E
7018.206	3.461	3486431	PROB	3.461	n/a	n/a	n/a	-999	25	[5, 1, 5]	11.0	catFR1	0	R1024E
7021.667	0.007	3488161	STOP	n/a	n/a	n/a	n/a	-999	25	[-999, -999, -999]	n/a	catFR1	0	R1024E
7021.674	1.15	3488165	DISTRACT_END	n/a	n/a	n/a	n/a	-999	25	[0, 0, 0]	n/a	catFR1	0	R1024E
7022.824	0.872	3488740	REC_START	n/a	n/a	n/a	n/a	-999	25	[0, 0, 0]	n/a	catFR1	0	R1024E
7023.696	1.462	3489176	REC_WORD	0.872	n/a	DOLLHOUSE	Toys	1	25	[0, 0, 0]	n/a	catFR1	0	R1024E
7025.158	0.72	3489907	REC_WORD	2.334	n/a	BLOCKS	Toys	9	25	[0, 0, 0]	n/a	catFR1	0	R1024E
7025.878	8.907	3490267	REC_WORD	3.054	n/a	BALL	Toys	2	25	[0, 0, 0]	n/a	catFR1	0	R1024E
7034.785	7.113	3494721	REC_WORD	11.961	n/a	MIXER	Appliances	12	25	[0, 0, 0]	n/a	catFR1	0	R1024E
7041.898	0.775	3498277	REC_WORD	19.074	n/a	SHORTS	Clothing	3	25	[0, 0, 0]	n/a	catFR1	0	R1024E
7042.673	0.846	3498665	REC_WORD	19.849	n/a	SOCKS	Clothing	4	25	[0, 0, 0]	n/a	catFR1	0	R1024E
7043.519	0.872	3499088	REC_WORD	20.695	n/a	UNDERWEAR	Clothing	8	25	[0, 0, 0]	n/a	catFR1	0	R1024E
7044.391	8.442	3499524	REC_WORD	21.567	n/a	SKIRT	Clothing	7	25	[0, 0, 0]	n/a	catFR1	0	R1024E
7052.833	31.668	3503745	REC_END	n/a	n/a	n/a	n/a	-999	25	[0, 0, 0]	n/a	catFR1	0	R1024E
7084.501	0.0	3519579	SESS_END	n/a	n/a	n/a	n/a	-999	25	[0, 0, 0]	n/a	catFR1	0	R1024E
