onset	duration	sample	trial_type	response_time	stim_file	item_name	category	serialpos	list	test	answer	experiment	session	subject
0.0	32.458	2093	INSTRUCT_START	n/a	n/a	n/a	n/a	-999	-999	[0, 0, 0]	n/a	catFR1	0	R1313J
32.458	8.518	34550	INSTRUCT_END	n/a	n/a	n/a	n/a	-999	-999	[0, 0, 0]	n/a	catFR1	0	R1313J
40.976	9.517	43068	MIC TEST_START	n/a	n/a	n/a	n/a	-999	-999	[0, 0, 0]	n/a	catFR1	0	R1313J
50.493	0.013	52584	MIC TEST_END	n/a	n/a	n/a	n/a	-999	-999	[0, 0, 0]	n/a	catFR1	0	R1313J
50.506	0.0	52597	TRIAL_START	n/a	n/a	n/a	n/a	-999	-1	[0, 0, 0]	n/a	catFR1	0	R1313J
50.506	0.0	52597	TRIAL	n/a	n/a	n/a	n/a	-999	-1	[0, 0, 0]	n/a	catFR1	0	R1313J
50.506	6.306	52597	WAITING_START	n/a	n/a	n/a	n/a	-999	-1	[0, 0, 0]	n/a	catFR1	0	R1313J
56.812	0.0	58903	COUNTDOWN_START	n/a	n/a	n/a	n/a	-999	-1	[0, 0, 0]	n/a	catFR1	0	R1313J
56.812	10.429	58903	WAITING_END	n/a	n/a	n/a	n/a	-999	-1	[0, 0, 0]	n/a	catFR1	0	R1313J
67.241	0.0	69332	COUNTDOWN_END	n/a	n/a	n/a	n/a	-999	-1	[0, 0, 0]	n/a	catFR1	0	R1313J
67.241	1.021	69332	ORIENT_START	n/a	n/a	n/a	n/a	-999	-1	[0, 0, 0]	n/a	catFR1	0	R1313J
68.262	0.001	70353	ORIENT_END	n/a	n/a	n/a	n/a	-999	-1	[0, 0, 0]	n/a	catFR1	0	R1313J
68.263	1.069	70354	ENCODING_START	n/a	n/a	n/a	n/a	-999	-1	[0, 0, 0]	n/a	catFR1	0	R1313J
69.332	1.631	71423	WORD	n/a	n/a	DAY	n/a	1	-1	[0, 0, 0]	n/a	catFR1	0	R1313J
70.963	1.095	73054	WORD_OFF	n/a	n/a	DAY	n/a	1	-1	[0, 0, 0]	n/a	catFR1	0	R1313J
72.058	1.622	74149	WORD	n/a	n/a	SILK	n/a	2	-1	[0, 0, 0]	n/a	catFR1	0	R1313J
73.68	0.784	75770	WORD_OFF	n/a	n/a	SILK	n/a	2	-1	[0, 0, 0]	n/a	catFR1	0	R1313J
74.464	1.633	76554	WORD	n/a	n/a	DENIM	n/a	3	-1	[0, 0, 0]	n/a	catFR1	0	R1313J
76.097	0.783	78187	WORD_OFF	n/a	n/a	DENIM	n/a	3	-1	[0, 0, 0]	n/a	catFR1	0	R1313J
76.88	1.635	78970	WORD	n/a	n/a	MINUTE	n/a	4	-1	[0, 0, 0]	n/a	catFR1	0	R1313J
78.515	1.121	80605	WORD_OFF	n/a	n/a	MINUTE	n/a	4	-1	[0, 0, 0]	n/a	catFR1	0	R1313J
79.636	1.628	81726	WORD	n/a	n/a	SECOND	n/a	5	-1	[0, 0, 0]	n/a	catFR1	0	R1313J
81.264	0.817	83354	WORD_OFF	n/a	n/a	SECOND	n/a	5	-1	[0, 0, 0]	n/a	catFR1	0	R1313J
82.081	1.635	84171	WORD	n/a	n/a	HOUR	n/a	6	-1	[0, 0, 0]	n/a	catFR1	0	R1313J
83.716	0.798	85806	WORD_OFF	n/a	n/a	HOUR	n/a	6	-1	[0, 0, 0]	n/a	catFR1	0	R1313J
84.514	1.634	86604	WORD	n/a	n/a	WOOL	n/a	7	-1	[0, 0, 0]	n/a	catFR1	0	R1313J
86.148	0.862	88238	WORD_OFF	n/a	n/a	WOOL	n/a	7	-1	[0, 0, 0]	n/a	catFR1	0	R1313J
87.01	1.606	89100	WORD	n/a	n/a	LEATHER	n/a	8	-1	[0, 0, 0]	n/a	catFR1	0	R1313J
88.616	0.984	90706	WORD_OFF	n/a	n/a	LEATHER	n/a	8	-1	[0, 0, 0]	n/a	catFR1	0	R1313J
89.6	1.633	91690	WORD	n/a	n/a	PLUMBER	n/a	9	-1	[0, 0, 0]	n/a	catFR1	0	R1313J
91.233	0.892	93323	WORD_OFF	n/a	n/a	PLUMBER	n/a	9	-1	[0, 0, 0]	n/a	catFR1	0	R1313J
92.125	1.626	94215	WORD	n/a	n/a	TEACHER	n/a	10	-1	[0, 0, 0]	n/a	catFR1	0	R1313J
93.751	0.96	95841	WORD_OFF	n/a	n/a	TEACHER	n/a	10	-1	[0, 0, 0]	n/a	catFR1	0	R1313J
94.711	1.622	96801	WORD	n/a	n/a	FARMER	n/a	11	-1	[0, 0, 0]	n/a	catFR1	0	R1313J
96.333	0.939	98423	WORD_OFF	n/a	n/a	FARMER	n/a	11	-1	[0, 0, 0]	n/a	catFR1	0	R1313J
97.272	1.613	99362	WORD	n/a	n/a	FIREMAN	n/a	12	-1	[0, 0, 0]	n/a	catFR1	0	R1313J
98.885	0.0	100974	DISTRACT_START	n/a	n/a	n/a	n/a	-999	-1	[0, 0, 0]	n/a	catFR1	0	R1313J
98.885	0.0	100974	WORD_OFF	n/a	n/a	FIREMAN	n/a	12	-1	[0, 0, 0]	n/a	catFR1	0	R1313J
98.885	0.001	100974	ENCODING_END	n/a	n/a	n/a	n/a	-999	-1	[0, 0, 0]	n/a	catFR1	0	R1313J
98.886	0.015	100975	START	n/a	n/a	n/a	n/a	-999	-1	[-999, -999, -999]	n/a	catFR1	0	R1313J
98.901	5.801	100990	PROB	5.801	n/a	n/a	n/a	-999	-1	[7, 4, 5]	16	catFR1	0	R1313J
104.702	5.467	106791	PROB	5.467	n/a	n/a	n/a	-999	-1	[1, 5, 7]	13	catFR1	0	R1313J
110.169	3.05	112258	PROB	3.05	n/a	n/a	n/a	-999	-1	[4, 9, 2]	15	catFR1	0	R1313J
113.219	5.763	115308	PROB	5.763	n/a	n/a	n/a	-999	-1	[6, 7, 8]	21	catFR1	0	R1313J
118.982	0.022	121071	STOP	n/a	n/a	n/a	n/a	-999	-1	[-999, -999, -999]	n/a	catFR1	0	R1313J
119.004	0.502	121093	DISTRACT_END	n/a	n/a	n/a	n/a	-999	-1	[0, 0, 0]	n/a	catFR1	0	R1313J
119.506	1.698	121595	RETRIEVAL_ORIENT_START	n/a	n/a	n/a	n/a	-999	-1	[0, 0, 0]	n/a	catFR1	0	R1313J
121.204	0.001	123293	RETRIEVAL_ORIENT_END	n/a	n/a	n/a	n/a	-999	-1	[0, 0, 0]	n/a	catFR1	0	R1313J
121.205	1.959	123294	REC_START	n/a	n/a	n/a	n/a	-999	-1	[0, 0, 0]	n/a	catFR1	0	R1313J
123.164	0.851	125252	REC_WORD	0.851	n/a	DAY	n/a	1	-1	[0, 0, 0]	n/a	catFR1	0	R1313J
124.015	1.17	126103	REC_WORD	1.17	n/a	SECOND	n/a	5	-1	[0, 0, 0]	n/a	catFR1	0	R1313J
125.185	1.17	127273	REC_WORD	1.17	n/a	FARMER	n/a	11	-1	[0, 0, 0]	n/a	catFR1	0	R1313J
126.355	9.42	128443	REC_WORD	9.42	n/a	SILK	n/a	2	-1	[0, 0, 0]	n/a	catFR1	0	R1313J
135.775	15.44	137863	REC_WORD_VV	15.44	n/a	<>	n/a	-999	-1	[0, 0, 0]	n/a	catFR1	0	R1313J
151.215	0.001	153302	REC_END	n/a	n/a	n/a	n/a	-999	-1	[0, 0, 0]	n/a	catFR1	0	R1313J
151.216	3.512	153303	PRACTICE_POST_INSTRUCT_START	n/a	n/a	n/a	n/a	-999	-1	[0, 0, 0]	n/a	catFR1	0	R1313J
154.728	0.0	156815	PRACTICE_POST_INSTRUCT_END	n/a	n/a	n/a	n/a	-999	-1	[0, 0, 0]	n/a	catFR1	0	R1313J
154.728	0.022	156815	TRIAL_END	n/a	n/a	n/a	n/a	-999	-1	[0, 0, 0]	n/a	catFR1	0	R1313J
154.75	0.0	156837	TRIAL_START	n/a	n/a	n/a	n/a	-999	1	[0, 0, 0]	n/a	catFR1	0	R1313J
154.75	0.001	156837	TRIAL	n/a	n/a	n/a	n/a	-999	1	[0, 0, 0]	n/a	catFR1	0	R1313J
154.751	1.643	156838	WAITING_START	n/a	n/a	n/a	n/a	-999	1	[0, 0, 0]	n/a	catFR1	0	R1313J
156.394	0.0	158481	COUNTDOWN_START	n/a	n/a	n/a	n/a	-999	1	[0, 0, 0]	n/a	catFR1	0	R1313J
156.394	10.43	158481	WAITING_END	n/a	n/a	n/a	n/a	-999	1	[0, 0, 0]	n/a	catFR1	0	R1313J
166.824	0.0	168911	COUNTDOWN_END	n/a	n/a	n/a	n/a	-999	1	[0, 0, 0]	n/a	catFR1	0	R1313J
166.824	1.255	168911	ORIENT_START	n/a	n/a	n/a	n/a	-999	1	[0, 0, 0]	n/a	catFR1	0	R1313J
168.079	0.0	170166	ORIENT_END	n/a	n/a	n/a	n/a	-999	1	[0, 0, 0]	n/a	catFR1	0	R1313J
168.079	1.084	170166	ENCODING_START	n/a	n/a	n/a	n/a	-999	1	[0, 0, 0]	n/a	catFR1	0	R1313J
169.163	1.634	171250	WORD	n/a	wordpools/wordpool_categorized_EN.txt	TOASTER	Appliances	1	1	[0, 0, 0]	n/a	catFR1	0	R1313J
170.797	1.085	172883	WORD_OFF	n/a	n/a	TOASTER	Appliances	1	1	[0, 0, 0]	n/a	catFR1	0	R1313J
171.882	1.632	173968	WORD	n/a	wordpools/wordpool_categorized_EN.txt	FREEZER	Appliances	2	1	[0, 0, 0]	n/a	catFR1	0	R1313J
173.514	1.126	175600	WORD_OFF	n/a	n/a	FREEZER	Appliances	2	1	[0, 0, 0]	n/a	catFR1	0	R1313J
174.64	1.624	176726	WORD	n/a	wordpools/wordpool_categorized_EN.txt	GOAT	FarmAnimals	3	1	[0, 0, 0]	n/a	catFR1	0	R1313J
176.264	0.921	178350	WORD_OFF	n/a	n/a	GOAT	FarmAnimals	3	1	[0, 0, 0]	n/a	catFR1	0	R1313J
177.185	1.63	179271	WORD	n/a	wordpools/wordpool_categorized_EN.txt	CHICKEN	FarmAnimals	4	1	[0, 0, 0]	n/a	catFR1	0	R1313J
178.815	0.9	180901	WORD_OFF	n/a	n/a	CHICKEN	FarmAnimals	4	1	[0, 0, 0]	n/a	catFR1	0	R1313J
179.715	1.633	181801	WORD	n/a	wordpools/wordpool_categorized_EN.txt	WRENCH	Tools	5	1	[0, 0, 0]	n/a	catFR1	0	R1313J
181.348	1.075	183434	WORD_OFF	n/a	n/a	WRENCH	Tools	5	1	[0, 0, 0]	n/a	catFR1	0	R1313J
182.423	1.625	184509	WORD	n/a	wordpools/wordpool_categorized_EN.txt	SANDER	Tools	6	1	[0, 0, 0]	n/a	catFR1	0	R1313J
184.048	1.068	186134	WORD_OFF	n/a	n/a	SANDER	Tools	6	1	[0, 0, 0]	n/a	catFR1	0	R1313J
185.116	1.634	187202	WORD	n/a	wordpools/wordpool_categorized_EN.txt	OVEN	Appliances	7	1	[0, 0, 0]	n/a	catFR1	0	R1313J
186.75	0.822	188836	WORD_OFF	n/a	n/a	OVEN	Appliances	7	1	[0, 0, 0]	n/a	catFR1	0	R1313J
187.572	1.627	189658	WORD	n/a	wordpools/wordpool_categorized_EN.txt	WASHER	Appliances	8	1	[0, 0, 0]	n/a	catFR1	0	R1313J
189.199	1.028	191285	WORD_OFF	n/a	n/a	WASHER	Appliances	8	1	[0, 0, 0]	n/a	catFR1	0	R1313J
190.227	1.607	192313	WORD	n/a	wordpools/wordpool_categorized_EN.txt	SHEEP	FarmAnimals	9	1	[0, 0, 0]	n/a	catFR1	0	R1313J
191.834	1.083	193920	WORD_OFF	n/a	n/a	SHEEP	FarmAnimals	9	1	[0, 0, 0]	n/a	catFR1	0	R1313J
192.917	1.634	195003	WORD	n/a	wordpools/wordpool_categorized_EN.txt	LAMB	FarmAnimals	10	1	[0, 0, 0]	n/a	catFR1	0	R1313J
194.551	0.863	196637	WORD_OFF	n/a	n/a	LAMB	FarmAnimals	10	1	[0, 0, 0]	n/a	catFR1	0	R1313J
195.414	1.637	197499	WORD	n/a	wordpools/wordpool_categorized_EN.txt	SAW	Tools	11	1	[0, 0, 0]	n/a	catFR1	0	R1313J
197.051	0.781	199136	WORD_OFF	n/a	n/a	SAW	Tools	11	1	[0, 0, 0]	n/a	catFR1	0	R1313J
197.832	1.637	199917	WORD	n/a	wordpools/wordpool_categorized_EN.txt	SHOVEL	Tools	12	1	[0, 0, 0]	n/a	catFR1	0	R1313J
199.469	0.0	201554	WORD_OFF	n/a	n/a	SHOVEL	Tools	12	1	[0, 0, 0]	n/a	catFR1	0	R1313J
199.469	0.001	201554	ENCODING_END	n/a	n/a	n/a	n/a	-999	1	[0, 0, 0]	n/a	catFR1	0	R1313J
199.47	0.0	201555	DISTRACT_START	n/a	n/a	n/a	n/a	-999	1	[0, 0, 0]	n/a	catFR1	0	R1313J
199.47	0.015	201555	START	n/a	n/a	n/a	n/a	-999	1	[-999, -999, -999]	n/a	catFR1	0	R1313J
199.485	5.95	201570	PROB	5.95	n/a	n/a	n/a	-999	1	[9, 6, 5]	20	catFR1	0	R1313J
205.435	3.118	207520	PROB	3.118	n/a	n/a	n/a	-999	1	[9, 1, 1]	11	catFR1	0	R1313J
208.553	3.934	210638	PROB	3.934	n/a	n/a	n/a	-999	1	[6, 6, 5]	17	catFR1	0	R1313J
212.487	5.8	214572	PROB	5.8	n/a	n/a	n/a	-999	1	[2, 9, 5]	16	catFR1	0	R1313J
218.287	5.256	220372	PROB	5.256	n/a	n/a	n/a	-999	1	[3, 6, 9]	18	catFR1	0	R1313J
223.543	0.013	225627	STOP	n/a	n/a	n/a	n/a	-999	1	[-999, -999, -999]	n/a	catFR1	0	R1313J
223.556	0.596	225640	DISTRACT_END	n/a	n/a	n/a	n/a	-999	1	[0, 0, 0]	n/a	catFR1	0	R1313J
224.152	1.621	226236	RETRIEVAL_ORIENT_START	n/a	n/a	n/a	n/a	-999	1	[0, 0, 0]	n/a	catFR1	0	R1313J
225.773	0.0	227857	RETRIEVAL_ORIENT_END	n/a	n/a	n/a	n/a	-999	1	[0, 0, 0]	n/a	catFR1	0	R1313J
225.773	1.9	227857	REC_START	n/a	n/a	n/a	n/a	-999	1	[0, 0, 0]	n/a	catFR1	0	R1313J
227.673	4.62	229757	REC_WORD	4.62	n/a	SANDER	Tools	6	1	[0, 0, 0]	n/a	catFR1	0	R1313J
232.293	23.493	234377	REC_WORD_VV	23.493	n/a	<>	n/a	-999	1	[0, 0, 0]	n/a	catFR1	0	R1313J
255.786	0.0	257869	REC_END	n/a	n/a	n/a	n/a	-999	1	[0, 0, 0]	n/a	catFR1	0	R1313J
255.786	0.02	257869	TRIAL_END	n/a	n/a	n/a	n/a	-999	1	[0, 0, 0]	n/a	catFR1	0	R1313J
255.806	0.0	257889	TRIAL_START	n/a	n/a	n/a	n/a	-999	2	[0, 0, 0]	n/a	catFR1	0	R1313J
255.806	0.0	257889	TRIAL	n/a	n/a	n/a	n/a	-999	2	[0, 0, 0]	n/a	catFR1	0	R1313J
255.806	2.188	257889	WAITING_START	n/a	n/a	n/a	n/a	-999	2	[0, 0, 0]	n/a	catFR1	0	R1313J
257.994	0.001	260077	WAITING_END	n/a	n/a	n/a	n/a	-999	2	[0, 0, 0]	n/a	catFR1	0	R1313J
257.995	10.428	260078	COUNTDOWN_START	n/a	n/a	n/a	n/a	-999	2	[0, 0, 0]	n/a	catFR1	0	R1313J
268.423	0.001	270505	COUNTDOWN_END	n/a	n/a	n/a	n/a	-999	2	[0, 0, 0]	n/a	catFR1	0	R1313J
268.424	1.156	270506	ORIENT_START	n/a	n/a	n/a	n/a	-999	2	[0, 0, 0]	n/a	catFR1	0	R1313J
269.58	0.001	271662	ORIENT_END	n/a	n/a	n/a	n/a	-999	2	[0, 0, 0]	n/a	catFR1	0	R1313J
269.581	0.984	271663	ENCODING_START	n/a	n/a	n/a	n/a	-999	2	[0, 0, 0]	n/a	catFR1	0	R1313J
270.565	1.632	272647	WORD	n/a	wordpools/wordpool_categorized_EN.txt	HEADPHONES	Electronics	1	2	[0, 0, 0]	n/a	catFR1	0	R1313J
272.197	0.931	274279	WORD_OFF	n/a	n/a	HEADPHONES	Electronics	1	2	[0, 0, 0]	n/a	catFR1	0	R1313J
273.128	1.62	275210	WORD	n/a	wordpools/wordpool_categorized_EN.txt	PRINTER	Electronics	2	2	[0, 0, 0]	n/a	catFR1	0	R1313J
274.748	0.956	276830	WORD_OFF	n/a	n/a	PRINTER	Electronics	2	2	[0, 0, 0]	n/a	catFR1	0	R1313J
275.704	1.627	277786	WORD	n/a	wordpools/wordpool_categorized_EN.txt	RATCHET	Tools	3	2	[0, 0, 0]	n/a	catFR1	0	R1313J
277.331	1.056	279413	WORD_OFF	n/a	n/a	RATCHET	Tools	3	2	[0, 0, 0]	n/a	catFR1	0	R1313J
278.387	1.627	280469	WORD	n/a	wordpools/wordpool_categorized_EN.txt	LEVEL	Tools	4	2	[0, 0, 0]	n/a	catFR1	0	R1313J
280.014	0.796	282096	WORD_OFF	n/a	n/a	LEVEL	Tools	4	2	[0, 0, 0]	n/a	catFR1	0	R1313J
280.81	1.621	282892	WORD	n/a	wordpools/wordpool_categorized_EN.txt	JEEP	Vehicles	5	2	[0, 0, 0]	n/a	catFR1	0	R1313J
282.431	0.838	284513	WORD_OFF	n/a	n/a	JEEP	Vehicles	5	2	[0, 0, 0]	n/a	catFR1	0	R1313J
283.269	1.614	285351	WORD	n/a	wordpools/wordpool_categorized_EN.txt	PLANE	Vehicles	6	2	[0, 0, 0]	n/a	catFR1	0	R1313J
284.883	1.104	286965	WORD_OFF	n/a	n/a	PLANE	Vehicles	6	2	[0, 0, 0]	n/a	catFR1	0	R1313J
285.987	1.63	288069	WORD	n/a	wordpools/wordpool_categorized_EN.txt	SCREWDRIVER	Tools	7	2	[0, 0, 0]	n/a	catFR1	0	R1313J
287.617	0.826	289699	WORD_OFF	n/a	n/a	SCREWDRIVER	Tools	7	2	[0, 0, 0]	n/a	catFR1	0	R1313J
288.443	1.623	290525	WORD	n/a	wordpools/wordpool_categorized_EN.txt	DRILL	Tools	8	2	[0, 0, 0]	n/a	catFR1	0	R1313J
290.066	1.116	292148	WORD_OFF	n/a	n/a	DRILL	Tools	8	2	[0, 0, 0]	n/a	catFR1	0	R1313J
291.182	1.636	293264	WORD	n/a	wordpools/wordpool_categorized_EN.txt	BIKE	Vehicles	9	2	[0, 0, 0]	n/a	catFR1	0	R1313J
292.818	1.064	294899	WORD_OFF	n/a	n/a	BIKE	Vehicles	9	2	[0, 0, 0]	n/a	catFR1	0	R1313J
293.882	1.636	295963	WORD	n/a	wordpools/wordpool_categorized_EN.txt	VAN	Vehicles	10	2	[0, 0, 0]	n/a	catFR1	0	R1313J
295.518	0.938	297599	WORD_OFF	n/a	n/a	VAN	Vehicles	10	2	[0, 0, 0]	n/a	catFR1	0	R1313J
296.456	1.628	298537	WORD	n/a	wordpools/wordpool_categorized_EN.txt	SCANNER	Electronics	11	2	[0, 0, 0]	n/a	catFR1	0	R1313J
298.084	0.795	300165	WORD_OFF	n/a	n/a	SCANNER	Electronics	11	2	[0, 0, 0]	n/a	catFR1	0	R1313J
298.879	1.623	300960	WORD	n/a	wordpools/wordpool_categorized_EN.txt	STEREO	Electronics	12	2	[0, 0, 0]	n/a	catFR1	0	R1313J
300.502	0.001	302583	WORD_OFF	n/a	n/a	STEREO	Electronics	12	2	[0, 0, 0]	n/a	catFR1	0	R1313J
300.503	0.0	302584	DISTRACT_START	n/a	n/a	n/a	n/a	-999	2	[0, 0, 0]	n/a	catFR1	0	R1313J
300.503	0.0	302584	ENCODING_END	n/a	n/a	n/a	n/a	-999	2	[0, 0, 0]	n/a	catFR1	0	R1313J
300.503	0.016	302584	START	n/a	n/a	n/a	n/a	-999	2	[-999, -999, -999]	n/a	catFR1	0	R1313J
300.519	5.167	302600	PROB	5.167	n/a	n/a	n/a	-999	2	[1, 6, 7]	14	catFR1	0	R1313J
305.686	4.984	307767	PROB	4.984	n/a	n/a	n/a	-999	2	[2, 6, 5]	13	catFR1	0	R1313J
310.67	3.7	312751	PROB	3.7	n/a	n/a	n/a	-999	2	[7, 7, 4]	18	catFR1	0	R1313J
314.37	4.001	316451	PROB	4.001	n/a	n/a	n/a	-999	2	[5, 4, 6]	15	catFR1	0	R1313J
318.371	5.025	320451	PROB	5.025	n/a	n/a	n/a	-999	2	[7, 6, 1]	14	catFR1	0	R1313J
323.396	0.009	325476	STOP	n/a	n/a	n/a	n/a	-999	2	[-999, -999, -999]	n/a	catFR1	0	R1313J
323.405	0.593	325485	DISTRACT_END	n/a	n/a	n/a	n/a	-999	2	[0, 0, 0]	n/a	catFR1	0	R1313J
323.998	1.692	326078	RETRIEVAL_ORIENT_START	n/a	n/a	n/a	n/a	-999	2	[0, 0, 0]	n/a	catFR1	0	R1313J
325.69	0.0	327770	RETRIEVAL_ORIENT_END	n/a	n/a	n/a	n/a	-999	2	[0, 0, 0]	n/a	catFR1	0	R1313J
325.69	0.0	327770	REC_START	n/a	n/a	n/a	n/a	-999	2	[0, 0, 0]	n/a	catFR1	0	R1313J
325.69	2.58	327770	REC_WORD	2.58	n/a	JEEP	Vehicles	5	2	[0, 0, 0]	n/a	catFR1	0	R1313J
328.27	1.53	330350	REC_WORD_VV	1.53	n/a	<>	n/a	-999	2	[0, 0, 0]	n/a	catFR1	0	R1313J
329.8	4.745	331880	REC_WORD	4.745	n/a	SCREWDRIVER	Tools	7	2	[0, 0, 0]	n/a	catFR1	0	R1313J
334.545	21.157	336625	REC_WORD_VV	21.157	n/a	<>	n/a	-999	2	[0, 0, 0]	n/a	catFR1	0	R1313J
355.702	0.0	357781	REC_END	n/a	n/a	n/a	n/a	-999	2	[0, 0, 0]	n/a	catFR1	0	R1313J
355.702	0.021	357781	TRIAL_END	n/a	n/a	n/a	n/a	-999	2	[0, 0, 0]	n/a	catFR1	0	R1313J
355.723	0.0	357802	TRIAL_START	n/a	n/a	n/a	n/a	-999	3	[0, 0, 0]	n/a	catFR1	0	R1313J
355.723	0.0	357802	TRIAL	n/a	n/a	n/a	n/a	-999	3	[0, 0, 0]	n/a	catFR1	0	R1313J
355.723	2.422	357802	WAITING_START	n/a	n/a	n/a	n/a	-999	3	[0, 0, 0]	n/a	catFR1	0	R1313J
358.145	0.0	360224	WAITING_END	n/a	n/a	n/a	n/a	-999	3	[0, 0, 0]	n/a	catFR1	0	R1313J
358.145	10.429	360224	COUNTDOWN_START	n/a	n/a	n/a	n/a	-999	3	[0, 0, 0]	n/a	catFR1	0	R1313J
368.574	0.0	370652	ORIENT_START	n/a	n/a	n/a	n/a	-999	3	[0, 0, 0]	n/a	catFR1	0	R1313J
368.574	1.073	370652	COUNTDOWN_END	n/a	n/a	n/a	n/a	-999	3	[0, 0, 0]	n/a	catFR1	0	R1313J
369.647	0.001	371725	ORIENT_END	n/a	n/a	n/a	n/a	-999	3	[0, 0, 0]	n/a	catFR1	0	R1313J
369.648	0.859	371726	ENCODING_START	n/a	n/a	n/a	n/a	-999	3	[0, 0, 0]	n/a	catFR1	0	R1313J
370.507	1.623	372585	WORD	n/a	wordpools/wordpool_categorized_EN.txt	VACUUM	Appliances	1	3	[0, 0, 0]	n/a	catFR1	0	R1313J
372.13	0.978	374208	WORD_OFF	n/a	n/a	VACUUM	Appliances	1	3	[0, 0, 0]	n/a	catFR1	0	R1313J
373.108	1.623	375186	WORD	n/a	wordpools/wordpool_categorized_EN.txt	STOVE	Appliances	2	3	[0, 0, 0]	n/a	catFR1	0	R1313J
374.731	0.788	376809	WORD_OFF	n/a	n/a	STOVE	Appliances	2	3	[0, 0, 0]	n/a	catFR1	0	R1313J
375.519	1.628	377597	WORD	n/a	wordpools/wordpool_categorized_EN.txt	BLUEBERRY	Fruit	3	3	[0, 0, 0]	n/a	catFR1	0	R1313J
377.147	0.889	379225	WORD_OFF	n/a	n/a	BLUEBERRY	Fruit	3	3	[0, 0, 0]	n/a	catFR1	0	R1313J
378.036	1.63	380114	WORD	n/a	wordpools/wordpool_categorized_EN.txt	PLUM	Fruit	4	3	[0, 0, 0]	n/a	catFR1	0	R1313J
379.666	0.797	381744	WORD_OFF	n/a	n/a	PLUM	Fruit	4	3	[0, 0, 0]	n/a	catFR1	0	R1313J
380.463	1.635	382541	WORD	n/a	wordpools/wordpool_categorized_EN.txt	STREAM	Landscapes	5	3	[0, 0, 0]	n/a	catFR1	0	R1313J
382.098	0.851	384176	WORD_OFF	n/a	n/a	STREAM	Landscapes	5	3	[0, 0, 0]	n/a	catFR1	0	R1313J
382.949	1.634	385027	WORD	n/a	wordpools/wordpool_categorized_EN.txt	RIVER	Landscapes	6	3	[0, 0, 0]	n/a	catFR1	0	R1313J
384.583	1.118	386661	WORD_OFF	n/a	n/a	RIVER	Landscapes	6	3	[0, 0, 0]	n/a	catFR1	0	R1313J
385.701	1.632	387779	WORD	n/a	wordpools/wordpool_categorized_EN.txt	LEMON	Fruit	7	3	[0, 0, 0]	n/a	catFR1	0	R1313J
387.333	0.846	389411	WORD_OFF	n/a	n/a	LEMON	Fruit	7	3	[0, 0, 0]	n/a	catFR1	0	R1313J
388.179	1.622	390257	WORD	n/a	wordpools/wordpool_categorized_EN.txt	ORANGE	Fruit	8	3	[0, 0, 0]	n/a	catFR1	0	R1313J
389.801	0.88	391879	WORD_OFF	n/a	n/a	ORANGE	Fruit	8	3	[0, 0, 0]	n/a	catFR1	0	R1313J
390.681	1.636	392758	WORD	n/a	wordpools/wordpool_categorized_EN.txt	VALLEY	Landscapes	9	3	[0, 0, 0]	n/a	catFR1	0	R1313J
392.317	0.981	394394	WORD_OFF	n/a	n/a	VALLEY	Landscapes	9	3	[0, 0, 0]	n/a	catFR1	0	R1313J
393.298	1.637	395375	WORD	n/a	wordpools/wordpool_categorized_EN.txt	ISLAND	Landscapes	10	3	[0, 0, 0]	n/a	catFR1	0	R1313J
394.935	0.791	397012	WORD_OFF	n/a	n/a	ISLAND	Landscapes	10	3	[0, 0, 0]	n/a	catFR1	0	R1313J
395.726	1.625	397803	WORD	n/a	wordpools/wordpool_categorized_EN.txt	MIXER	Appliances	11	3	[0, 0, 0]	n/a	catFR1	0	R1313J
397.351	0.988	399428	WORD_OFF	n/a	n/a	MIXER	Appliances	11	3	[0, 0, 0]	n/a	catFR1	0	R1313J
398.339	1.613	400416	WORD	n/a	wordpools/wordpool_categorized_EN.txt	DRYER	Appliances	12	3	[0, 0, 0]	n/a	catFR1	0	R1313J
399.952	0.0	402029	WORD_OFF	n/a	n/a	DRYER	Appliances	12	3	[0, 0, 0]	n/a	catFR1	0	R1313J
399.952	0.0	402029	ENCODING_END	n/a	n/a	n/a	n/a	-999	3	[0, 0, 0]	n/a	catFR1	0	R1313J
399.952	0.001	402029	DISTRACT_START	n/a	n/a	n/a	n/a	-999	3	[0, 0, 0]	n/a	catFR1	0	R1313J
399.953	0.016	402030	START	n/a	n/a	n/a	n/a	-999	3	[-999, -999, -999]	n/a	catFR1	0	R1313J
399.969	5.634	402046	PROB	5.634	n/a	n/a	n/a	-999	3	[4, 5, 9]	18	catFR1	0	R1313J
405.603	2.901	407680	PROB	2.901	n/a	n/a	n/a	-999	3	[1, 4, 1]	6	catFR1	0	R1313J
408.504	3.083	410581	PROB	3.083	n/a	n/a	n/a	-999	3	[3, 4, 6]	13	catFR1	0	R1313J
411.587	4.784	413664	PROB	4.784	n/a	n/a	n/a	-999	3	[2, 3, 9]	14	catFR1	0	R1313J
416.371	3.268	418447	PROB	3.268	n/a	n/a	n/a	-999	3	[2, 4, 3]	9	catFR1	0	R1313J
419.639	6.982	421715	PROB	6.982	n/a	n/a	n/a	-999	3	[4, 5, 7]	16	catFR1	0	R1313J
426.621	0.019	428697	STOP	n/a	n/a	n/a	n/a	-999	3	[-999, -999, -999]	n/a	catFR1	0	R1313J
426.64	0.574	428716	DISTRACT_END	n/a	n/a	n/a	n/a	-999	3	[0, 0, 0]	n/a	catFR1	0	R1313J
427.214	1.56	429290	RETRIEVAL_ORIENT_START	n/a	n/a	n/a	n/a	-999	3	[0, 0, 0]	n/a	catFR1	0	R1313J
428.774	0.0	430850	RETRIEVAL_ORIENT_END	n/a	n/a	n/a	n/a	-999	3	[0, 0, 0]	n/a	catFR1	0	R1313J
428.774	2.155	430850	REC_START	n/a	n/a	n/a	n/a	-999	3	[0, 0, 0]	n/a	catFR1	0	R1313J
430.929	4.115	433005	REC_WORD	4.115	n/a	VACUUM	Appliances	1	3	[0, 0, 0]	n/a	catFR1	0	R1313J
435.044	23.743	437120	REC_WORD_VV	23.743	n/a	<>	n/a	-999	3	[0, 0, 0]	n/a	catFR1	0	R1313J
458.787	0.0	460862	REC_END	n/a	n/a	n/a	n/a	-999	3	[0, 0, 0]	n/a	catFR1	0	R1313J
458.787	0.02	460862	TRIAL_END	n/a	n/a	n/a	n/a	-999	3	[0, 0, 0]	n/a	catFR1	0	R1313J
458.807	0.0	460882	TRIAL	n/a	n/a	n/a	n/a	-999	4	[0, 0, 0]	n/a	catFR1	0	R1313J
458.807	0.0	460882	WAITING_START	n/a	n/a	n/a	n/a	-999	4	[0, 0, 0]	n/a	catFR1	0	R1313J
458.807	2.089	460882	TRIAL_START	n/a	n/a	n/a	n/a	-999	4	[0, 0, 0]	n/a	catFR1	0	R1313J
460.896	0.0	462971	WAITING_END	n/a	n/a	n/a	n/a	-999	4	[0, 0, 0]	n/a	catFR1	0	R1313J
460.896	10.429	462971	COUNTDOWN_START	n/a	n/a	n/a	n/a	-999	4	[0, 0, 0]	n/a	catFR1	0	R1313J
471.325	0.0	473399	COUNTDOWN_END	n/a	n/a	n/a	n/a	-999	4	[0, 0, 0]	n/a	catFR1	0	R1313J
471.325	1.055	473399	ORIENT_START	n/a	n/a	n/a	n/a	-999	4	[0, 0, 0]	n/a	catFR1	0	R1313J
472.38	0.0	474454	ORIENT_END	n/a	n/a	n/a	n/a	-999	4	[0, 0, 0]	n/a	catFR1	0	R1313J
472.38	1.14	474454	ENCODING_START	n/a	n/a	n/a	n/a	-999	4	[0, 0, 0]	n/a	catFR1	0	R1313J
473.52	1.627	475594	WORD	n/a	wordpools/wordpool_categorized_EN.txt	ROBIN	Birds	1	4	[0, 0, 0]	n/a	catFR1	0	R1313J
475.147	0.888	477221	WORD_OFF	n/a	n/a	ROBIN	Birds	1	4	[0, 0, 0]	n/a	catFR1	0	R1313J
476.035	1.631	478109	WORD	n/a	wordpools/wordpool_categorized_EN.txt	CROW	Birds	2	4	[0, 0, 0]	n/a	catFR1	0	R1313J
477.666	0.88	479740	WORD_OFF	n/a	n/a	CROW	Birds	2	4	[0, 0, 0]	n/a	catFR1	0	R1313J
478.546	1.636	480620	WORD	n/a	wordpools/wordpool_categorized_EN.txt	TULIP	Flowers	3	4	[0, 0, 0]	n/a	catFR1	0	R1313J
480.182	1.022	482256	WORD_OFF	n/a	n/a	TULIP	Flowers	3	4	[0, 0, 0]	n/a	catFR1	0	R1313J
481.204	1.629	483278	WORD	n/a	wordpools/wordpool_categorized_EN.txt	SUNFLOWER	Flowers	4	4	[0, 0, 0]	n/a	catFR1	0	R1313J
482.833	1.005	484907	WORD_OFF	n/a	n/a	SUNFLOWER	Flowers	4	4	[0, 0, 0]	n/a	catFR1	0	R1313J
483.838	1.629	485912	WORD	n/a	wordpools/wordpool_categorized_EN.txt	SPATULA	KitchenTools	5	4	[0, 0, 0]	n/a	catFR1	0	R1313J
485.467	0.911	487541	WORD_OFF	n/a	n/a	SPATULA	KitchenTools	5	4	[0, 0, 0]	n/a	catFR1	0	R1313J
486.378	1.605	488452	WORD	n/a	wordpools/wordpool_categorized_EN.txt	SPOON	KitchenTools	6	4	[0, 0, 0]	n/a	catFR1	0	R1313J
487.983	0.974	490057	WORD_OFF	n/a	n/a	SPOON	KitchenTools	6	4	[0, 0, 0]	n/a	catFR1	0	R1313J
488.957	1.627	491030	WORD	n/a	wordpools/wordpool_categorized_EN.txt	DUCK	Birds	7	4	[0, 0, 0]	n/a	catFR1	0	R1313J
490.584	0.843	492657	WORD_OFF	n/a	n/a	DUCK	Birds	7	4	[0, 0, 0]	n/a	catFR1	0	R1313J
491.427	1.623	493500	WORD	n/a	wordpools/wordpool_categorized_EN.txt	DOVE	Birds	8	4	[0, 0, 0]	n/a	catFR1	0	R1313J
493.05	0.803	495123	WORD_OFF	n/a	n/a	DOVE	Birds	8	4	[0, 0, 0]	n/a	catFR1	0	R1313J
493.853	1.632	495926	WORD	n/a	wordpools/wordpool_categorized_EN.txt	FORK	KitchenTools	9	4	[0, 0, 0]	n/a	catFR1	0	R1313J
495.485	0.796	497558	WORD_OFF	n/a	n/a	FORK	KitchenTools	9	4	[0, 0, 0]	n/a	catFR1	0	R1313J
496.281	1.638	498354	WORD	n/a	wordpools/wordpool_categorized_EN.txt	TONGS	KitchenTools	10	4	[0, 0, 0]	n/a	catFR1	0	R1313J
497.919	0.794	499992	WORD_OFF	n/a	n/a	TONGS	KitchenTools	10	4	[0, 0, 0]	n/a	catFR1	0	R1313J
498.713	1.622	500786	WORD	n/a	wordpools/wordpool_categorized_EN.txt	ORCHID	Flowers	11	4	[0, 0, 0]	n/a	catFR1	0	R1313J
500.335	1.027	502408	WORD_OFF	n/a	n/a	ORCHID	Flowers	11	4	[0, 0, 0]	n/a	catFR1	0	R1313J
501.362	1.608	503435	WORD	n/a	wordpools/wordpool_categorized_EN.txt	CARNATION	Flowers	12	4	[0, 0, 0]	n/a	catFR1	0	R1313J
502.97	0.0	505043	WORD_OFF	n/a	n/a	CARNATION	Flowers	12	4	[0, 0, 0]	n/a	catFR1	0	R1313J
502.97	0.0	505043	ENCODING_END	n/a	n/a	n/a	n/a	-999	4	[0, 0, 0]	n/a	catFR1	0	R1313J
502.97	0.001	505043	DISTRACT_START	n/a	n/a	n/a	n/a	-999	4	[0, 0, 0]	n/a	catFR1	0	R1313J
502.971	0.014	505044	START	n/a	n/a	n/a	n/a	-999	4	[-999, -999, -999]	n/a	catFR1	0	R1313J
502.985	5.835	505058	PROB	5.835	n/a	n/a	n/a	-999	4	[7, 6, 8]	21	catFR1	0	R1313J
508.82	5.935	510893	PROB	5.935	n/a	n/a	n/a	-999	4	[3, 6, 7]	16	catFR1	0	R1313J
514.755	2.7	516827	PROB	2.7	n/a	n/a	n/a	-999	4	[5, 5, 5]	15	catFR1	0	R1313J
517.455	3.518	519527	PROB	3.518	n/a	n/a	n/a	-999	4	[1, 6, 6]	13	catFR1	0	R1313J
520.973	3.369	523045	PROB	3.369	n/a	n/a	n/a	-999	4	[4, 8, 2]	14	catFR1	0	R1313J
524.342	0.014	526414	STOP	n/a	n/a	n/a	n/a	-999	4	[-999, -999, -999]	n/a	catFR1	0	R1313J
524.356	0.588	526428	DISTRACT_END	n/a	n/a	n/a	n/a	-999	4	[0, 0, 0]	n/a	catFR1	0	R1313J
524.944	1.563	527016	RETRIEVAL_ORIENT_START	n/a	n/a	n/a	n/a	-999	4	[0, 0, 0]	n/a	catFR1	0	R1313J
526.507	0.0	528579	REC_START	n/a	n/a	n/a	n/a	-999	4	[0, 0, 0]	n/a	catFR1	0	R1313J
526.507	10.345	528579	RETRIEVAL_ORIENT_END	n/a	n/a	n/a	n/a	-999	4	[0, 0, 0]	n/a	catFR1	0	R1313J
536.852	2.055	538923	REC_WORD_VV	2.055	n/a	<>	n/a	-999	4	[0, 0, 0]	n/a	catFR1	0	R1313J
538.907	3.135	540978	REC_WORD_VV	3.135	n/a	<>	n/a	-999	4	[0, 0, 0]	n/a	catFR1	0	R1313J
542.042	4.075	544113	REC_WORD	4.075	n/a	FORK	KitchenTools	9	4	[0, 0, 0]	n/a	catFR1	0	R1313J
546.117	0.645	548188	REC_WORD	0.645	n/a	SPOON	KitchenTools	6	4	[0, 0, 0]	n/a	catFR1	0	R1313J
546.762	9.758	548833	REC_WORD	9.758	n/a	SPATULA	KitchenTools	5	4	[0, 0, 0]	n/a	catFR1	0	R1313J
556.52	0.0	558591	REC_END	n/a	n/a	n/a	n/a	-999	4	[0, 0, 0]	n/a	catFR1	0	R1313J
556.52	0.021	558591	TRIAL_END	n/a	n/a	n/a	n/a	-999	4	[0, 0, 0]	n/a	catFR1	0	R1313J
556.541	0.001	558612	TRIAL_START	n/a	n/a	n/a	n/a	-999	5	[0, 0, 0]	n/a	catFR1	0	R1313J
556.542	0.0	558613	TRIAL	n/a	n/a	n/a	n/a	-999	5	[0, 0, 0]	n/a	catFR1	0	R1313J
556.542	12.439	558613	WAITING_START	n/a	n/a	n/a	n/a	-999	5	[0, 0, 0]	n/a	catFR1	0	R1313J
568.981	0.0	571051	COUNTDOWN_START	n/a	n/a	n/a	n/a	-999	5	[0, 0, 0]	n/a	catFR1	0	R1313J
568.981	10.429	571051	WAITING_END	n/a	n/a	n/a	n/a	-999	5	[0, 0, 0]	n/a	catFR1	0	R1313J
579.41	0.0	581480	COUNTDOWN_END	n/a	n/a	n/a	n/a	-999	5	[0, 0, 0]	n/a	catFR1	0	R1313J
579.41	1.156	581480	ORIENT_START	n/a	n/a	n/a	n/a	-999	5	[0, 0, 0]	n/a	catFR1	0	R1313J
580.566	0.001	582636	ORIENT_END	n/a	n/a	n/a	n/a	-999	5	[0, 0, 0]	n/a	catFR1	0	R1313J
580.567	1.125	582637	ENCODING_START	n/a	n/a	n/a	n/a	-999	5	[0, 0, 0]	n/a	catFR1	0	R1313J
581.692	1.624	583762	WORD	n/a	wordpools/wordpool_categorized_EN.txt	FOUNDATION	Building	1	5	[0, 0, 0]	n/a	catFR1	0	R1313J
583.316	0.994	585386	WORD_OFF	n/a	n/a	FOUNDATION	Building	1	5	[0, 0, 0]	n/a	catFR1	0	R1313J
584.31	1.607	586380	WORD	n/a	wordpools/wordpool_categorized_EN.txt	CEILING	Building	2	5	[0, 0, 0]	n/a	catFR1	0	R1313J
585.917	1.113	587986	WORD_OFF	n/a	n/a	CEILING	Building	2	5	[0, 0, 0]	n/a	catFR1	0	R1313J
587.03	1.621	589099	WORD	n/a	wordpools/wordpool_categorized_EN.txt	TURKEY	FarmAnimals	3	5	[0, 0, 0]	n/a	catFR1	0	R1313J
588.651	1.13	590720	WORD_OFF	n/a	n/a	TURKEY	FarmAnimals	3	5	[0, 0, 0]	n/a	catFR1	0	R1313J
589.781	1.619	591850	WORD	n/a	wordpools/wordpool_categorized_EN.txt	BULL	FarmAnimals	4	5	[0, 0, 0]	n/a	catFR1	0	R1313J
591.4	1.122	593469	WORD_OFF	n/a	n/a	BULL	FarmAnimals	4	5	[0, 0, 0]	n/a	catFR1	0	R1313J
592.522	1.629	594591	WORD	n/a	wordpools/wordpool_categorized_EN.txt	BANANA	Fruit	5	5	[0, 0, 0]	n/a	catFR1	0	R1313J
594.151	1.057	596220	WORD_OFF	n/a	n/a	BANANA	Fruit	5	5	[0, 0, 0]	n/a	catFR1	0	R1313J
595.208	1.628	597277	WORD	n/a	wordpools/wordpool_categorized_EN.txt	GRAPE	Fruit	6	5	[0, 0, 0]	n/a	catFR1	0	R1313J
596.836	0.902	598905	WORD_OFF	n/a	n/a	GRAPE	Fruit	6	5	[0, 0, 0]	n/a	catFR1	0	R1313J
597.738	1.63	599807	WORD	n/a	wordpools/wordpool_categorized_EN.txt	DOOR	Building	7	5	[0, 0, 0]	n/a	catFR1	0	R1313J
599.368	1.06	601437	WORD_OFF	n/a	n/a	DOOR	Building	7	5	[0, 0, 0]	n/a	catFR1	0	R1313J
600.428	1.624	602497	WORD	n/a	wordpools/wordpool_categorized_EN.txt	ATTIC	Building	8	5	[0, 0, 0]	n/a	catFR1	0	R1313J
602.052	0.948	604121	WORD_OFF	n/a	n/a	ATTIC	Building	8	5	[0, 0, 0]	n/a	catFR1	0	R1313J
603.0	1.637	605069	WORD	n/a	wordpools/wordpool_categorized_EN.txt	HEN	FarmAnimals	9	5	[0, 0, 0]	n/a	catFR1	0	R1313J
604.637	0.757	606706	WORD_OFF	n/a	n/a	HEN	FarmAnimals	9	5	[0, 0, 0]	n/a	catFR1	0	R1313J
605.394	1.626	607463	WORD	n/a	wordpools/wordpool_categorized_EN.txt	PIG	FarmAnimals	10	5	[0, 0, 0]	n/a	catFR1	0	R1313J
607.02	0.794	609089	WORD_OFF	n/a	n/a	PIG	FarmAnimals	10	5	[0, 0, 0]	n/a	catFR1	0	R1313J
607.814	1.623	609883	WORD	n/a	wordpools/wordpool_categorized_EN.txt	CHERRY	Fruit	11	5	[0, 0, 0]	n/a	catFR1	0	R1313J
609.437	0.947	611506	WORD_OFF	n/a	n/a	CHERRY	Fruit	11	5	[0, 0, 0]	n/a	catFR1	0	R1313J
610.384	1.636	612452	WORD	n/a	wordpools/wordpool_categorized_EN.txt	PEAR	Fruit	12	5	[0, 0, 0]	n/a	catFR1	0	R1313J
612.02	0.001	614088	WORD_OFF	n/a	n/a	PEAR	Fruit	12	5	[0, 0, 0]	n/a	catFR1	0	R1313J
612.021	0.0	614089	ENCODING_END	n/a	n/a	n/a	n/a	-999	5	[0, 0, 0]	n/a	catFR1	0	R1313J
612.021	0.0	614089	DISTRACT_START	n/a	n/a	n/a	n/a	-999	5	[0, 0, 0]	n/a	catFR1	0	R1313J
612.021	0.016	614089	START	n/a	n/a	n/a	n/a	-999	5	[-999, -999, -999]	n/a	catFR1	0	R1313J
612.037	4.585	614105	PROB	4.585	n/a	n/a	n/a	-999	5	[3, 4, 2]	9	catFR1	0	R1313J
616.622	3.416	618690	PROB	3.416	n/a	n/a	n/a	-999	5	[2, 1, 3]	6	catFR1	0	R1313J
620.038	2.752	622106	PROB	2.752	n/a	n/a	n/a	-999	5	[3, 2, 6]	11	catFR1	0	R1313J
622.79	3.499	624858	PROB	3.499	n/a	n/a	n/a	-999	5	[2, 9, 5]	16	catFR1	0	R1313J
626.289	3.285	628357	PROB	3.285	n/a	n/a	n/a	-999	5	[5, 3, 6]	14	catFR1	0	R1313J
629.574	3.325	631642	PROB	3.325	n/a	n/a	n/a	-999	5	[9, 9, 2]	20	catFR1	0	R1313J
632.899	0.009	634967	STOP	n/a	n/a	n/a	n/a	-999	5	[-999, -999, -999]	n/a	catFR1	0	R1313J
632.908	0.629	634976	DISTRACT_END	n/a	n/a	n/a	n/a	-999	5	[0, 0, 0]	n/a	catFR1	0	R1313J
633.537	1.704	635605	RETRIEVAL_ORIENT_START	n/a	n/a	n/a	n/a	-999	5	[0, 0, 0]	n/a	catFR1	0	R1313J
635.241	0.0	637308	RETRIEVAL_ORIENT_END	n/a	n/a	n/a	n/a	-999	5	[0, 0, 0]	n/a	catFR1	0	R1313J
635.241	0.845	637308	REC_START	n/a	n/a	n/a	n/a	-999	5	[0, 0, 0]	n/a	catFR1	0	R1313J
636.086	3.08	638153	REC_WORD	3.08	n/a	FOUNDATION	Building	1	5	[0, 0, 0]	n/a	catFR1	0	R1313J
639.166	3.815	641233	REC_WORD	3.815	n/a	PIG	FarmAnimals	10	5	[0, 0, 0]	n/a	catFR1	0	R1313J
642.981	22.272	645048	REC_WORD	22.272	n/a	PEN	n/a	-999	5	[0, 0, 0]	n/a	catFR1	0	R1313J
665.253	0.0	667319	REC_END	n/a	n/a	n/a	n/a	-999	5	[0, 0, 0]	n/a	catFR1	0	R1313J
665.253	0.022	667319	TRIAL_END	n/a	n/a	n/a	n/a	-999	5	[0, 0, 0]	n/a	catFR1	0	R1313J
665.275	0.0	667341	TRIAL_START	n/a	n/a	n/a	n/a	-999	6	[0, 0, 0]	n/a	catFR1	0	R1313J
665.275	0.0	667341	TRIAL	n/a	n/a	n/a	n/a	-999	6	[0, 0, 0]	n/a	catFR1	0	R1313J
665.275	2.088	667341	WAITING_START	n/a	n/a	n/a	n/a	-999	6	[0, 0, 0]	n/a	catFR1	0	R1313J
667.363	0.001	669429	WAITING_END	n/a	n/a	n/a	n/a	-999	6	[0, 0, 0]	n/a	catFR1	0	R1313J
667.364	10.429	669430	COUNTDOWN_START	n/a	n/a	n/a	n/a	-999	6	[0, 0, 0]	n/a	catFR1	0	R1313J
677.793	0.0	679859	ORIENT_START	n/a	n/a	n/a	n/a	-999	6	[0, 0, 0]	n/a	catFR1	0	R1313J
677.793	1.205	679859	COUNTDOWN_END	n/a	n/a	n/a	n/a	-999	6	[0, 0, 0]	n/a	catFR1	0	R1313J
678.998	0.001	681064	ORIENT_END	n/a	n/a	n/a	n/a	-999	6	[0, 0, 0]	n/a	catFR1	0	R1313J
678.999	1.03	681065	ENCODING_START	n/a	n/a	n/a	n/a	-999	6	[0, 0, 0]	n/a	catFR1	0	R1313J
680.029	1.621	682095	WORD	n/a	wordpools/wordpool_categorized_EN.txt	PETUNIA	Flowers	1	6	[0, 0, 0]	n/a	catFR1	0	R1313J
681.65	0.986	683716	WORD_OFF	n/a	n/a	PETUNIA	Flowers	1	6	[0, 0, 0]	n/a	catFR1	0	R1313J
682.636	1.63	684702	WORD	n/a	wordpools/wordpool_categorized_EN.txt	MARIGOLD	Flowers	2	6	[0, 0, 0]	n/a	catFR1	0	R1313J
684.266	0.811	686331	WORD_OFF	n/a	n/a	MARIGOLD	Flowers	2	6	[0, 0, 0]	n/a	catFR1	0	R1313J
685.077	1.624	687142	WORD	n/a	wordpools/wordpool_categorized_EN.txt	LIME	Fruit	3	6	[0, 0, 0]	n/a	catFR1	0	R1313J
686.701	0.833	688766	WORD_OFF	n/a	n/a	LIME	Fruit	3	6	[0, 0, 0]	n/a	catFR1	0	R1313J
687.534	1.633	689599	WORD	n/a	wordpools/wordpool_categorized_EN.txt	PEACH	Fruit	4	6	[0, 0, 0]	n/a	catFR1	0	R1313J
689.167	1.111	691232	WORD_OFF	n/a	n/a	PEACH	Fruit	4	6	[0, 0, 0]	n/a	catFR1	0	R1313J
690.278	1.607	692343	WORD	n/a	wordpools/wordpool_categorized_EN.txt	CEDAR	Trees	5	6	[0, 0, 0]	n/a	catFR1	0	R1313J
691.885	0.914	693950	WORD_OFF	n/a	n/a	CEDAR	Trees	5	6	[0, 0, 0]	n/a	catFR1	0	R1313J
692.799	1.635	694864	WORD	n/a	wordpools/wordpool_categorized_EN.txt	ELM	Trees	6	6	[0, 0, 0]	n/a	catFR1	0	R1313J
694.434	0.828	696499	WORD_OFF	n/a	n/a	ELM	Trees	6	6	[0, 0, 0]	n/a	catFR1	0	R1313J
695.262	1.624	697327	WORD	n/a	wordpools/wordpool_categorized_EN.txt	ROSE	Flowers	7	6	[0, 0, 0]	n/a	catFR1	0	R1313J
696.886	0.949	698951	WORD_OFF	n/a	n/a	ROSE	Flowers	7	6	[0, 0, 0]	n/a	catFR1	0	R1313J
697.835	1.618	699900	WORD	n/a	wordpools/wordpool_categorized_EN.txt	VIOLET	Flowers	8	6	[0, 0, 0]	n/a	catFR1	0	R1313J
699.453	1.119	701518	WORD_OFF	n/a	n/a	VIOLET	Flowers	8	6	[0, 0, 0]	n/a	catFR1	0	R1313J
700.572	1.63	702637	WORD	n/a	wordpools/wordpool_categorized_EN.txt	SPRUCE	Trees	9	6	[0, 0, 0]	n/a	catFR1	0	R1313J
702.202	1.075	704267	WORD_OFF	n/a	n/a	SPRUCE	Trees	9	6	[0, 0, 0]	n/a	catFR1	0	R1313J
703.277	1.627	705342	WORD	n/a	wordpools/wordpool_categorized_EN.txt	HICKORY	Trees	10	6	[0, 0, 0]	n/a	catFR1	0	R1313J
704.904	1.064	706969	WORD_OFF	n/a	n/a	HICKORY	Trees	10	6	[0, 0, 0]	n/a	catFR1	0	R1313J
705.968	1.619	708033	WORD	n/a	wordpools/wordpool_categorized_EN.txt	APPLE	Fruit	11	6	[0, 0, 0]	n/a	catFR1	0	R1313J
707.587	1.147	709652	WORD_OFF	n/a	n/a	APPLE	Fruit	11	6	[0, 0, 0]	n/a	catFR1	0	R1313J
708.734	1.636	710798	WORD	n/a	wordpools/wordpool_categorized_EN.txt	STRAWBERRY	Fruit	12	6	[0, 0, 0]	n/a	catFR1	0	R1313J
710.37	0.001	712434	WORD_OFF	n/a	n/a	STRAWBERRY	Fruit	12	6	[0, 0, 0]	n/a	catFR1	0	R1313J
710.371	0.0	712435	DISTRACT_START	n/a	n/a	n/a	n/a	-999	6	[0, 0, 0]	n/a	catFR1	0	R1313J
710.371	0.001	712435	ENCODING_END	n/a	n/a	n/a	n/a	-999	6	[0, 0, 0]	n/a	catFR1	0	R1313J
710.372	0.015	712436	START	n/a	n/a	n/a	n/a	-999	6	[-999, -999, -999]	n/a	catFR1	0	R1313J
710.387	4.385	712451	PROB	4.385	n/a	n/a	n/a	-999	6	[8, 3, 4]	15	catFR1	0	R1313J
714.772	4.4	716836	PROB	4.4	n/a	n/a	n/a	-999	6	[3, 8, 7]	18	catFR1	0	R1313J
719.172	2.934	721236	PROB	2.934	n/a	n/a	n/a	-999	6	[5, 1, 8]	14	catFR1	0	R1313J
722.106	7.585	724170	PROB	7.585	n/a	n/a	n/a	-999	6	[5, 4, 8]	17	catFR1	0	R1313J
729.691	4.366	731755	PROB	4.366	n/a	n/a	n/a	-999	6	[1, 9, 8]	18	catFR1	0	R1313J
734.057	0.017	736120	STOP	n/a	n/a	n/a	n/a	-999	6	[-999, -999, -999]	n/a	catFR1	0	R1313J
734.074	0.674	736137	DISTRACT_END	n/a	n/a	n/a	n/a	-999	6	[0, 0, 0]	n/a	catFR1	0	R1313J
734.748	1.694	736811	RETRIEVAL_ORIENT_START	n/a	n/a	n/a	n/a	-999	6	[0, 0, 0]	n/a	catFR1	0	R1313J
736.442	0.001	738505	RETRIEVAL_ORIENT_END	n/a	n/a	n/a	n/a	-999	6	[0, 0, 0]	n/a	catFR1	0	R1313J
736.443	1.925	738506	REC_START	n/a	n/a	n/a	n/a	-999	6	[0, 0, 0]	n/a	catFR1	0	R1313J
738.368	4.48	740431	REC_WORD	4.48	n/a	HICKORY	Trees	10	6	[0, 0, 0]	n/a	catFR1	0	R1313J
742.848	12.62	744911	REC_WORD_VV	12.62	n/a	<>	n/a	-999	6	[0, 0, 0]	n/a	catFR1	0	R1313J
755.468	3.98	757531	REC_WORD	3.98	n/a	LIME	Fruit	3	6	[0, 0, 0]	n/a	catFR1	0	R1313J
759.448	7.008	761510	REC_WORD	7.008	n/a	PEACH	Fruit	4	6	[0, 0, 0]	n/a	catFR1	0	R1313J
766.456	0.0	768518	TRIAL_END	n/a	n/a	n/a	n/a	-999	6	[0, 0, 0]	n/a	catFR1	0	R1313J
766.456	0.02	768518	REC_END	n/a	n/a	n/a	n/a	-999	6	[0, 0, 0]	n/a	catFR1	0	R1313J
766.476	0.0	768538	TRIAL_START	n/a	n/a	n/a	n/a	-999	7	[0, 0, 0]	n/a	catFR1	0	R1313J
766.476	0.0	768538	TRIAL	n/a	n/a	n/a	n/a	-999	7	[0, 0, 0]	n/a	catFR1	0	R1313J
766.476	2.588	768538	WAITING_START	n/a	n/a	n/a	n/a	-999	7	[0, 0, 0]	n/a	catFR1	0	R1313J
769.064	0.0	771126	WAITING_END	n/a	n/a	n/a	n/a	-999	7	[0, 0, 0]	n/a	catFR1	0	R1313J
769.064	10.429	771126	COUNTDOWN_START	n/a	n/a	n/a	n/a	-999	7	[0, 0, 0]	n/a	catFR1	0	R1313J
779.493	0.0	781555	COUNTDOWN_END	n/a	n/a	n/a	n/a	-999	7	[0, 0, 0]	n/a	catFR1	0	R1313J
779.493	1.124	781555	ORIENT_START	n/a	n/a	n/a	n/a	-999	7	[0, 0, 0]	n/a	catFR1	0	R1313J
780.617	0.0	782679	ORIENT_END	n/a	n/a	n/a	n/a	-999	7	[0, 0, 0]	n/a	catFR1	0	R1313J
780.617	0.941	782679	ENCODING_START	n/a	n/a	n/a	n/a	-999	7	[0, 0, 0]	n/a	catFR1	0	R1313J
781.558	1.625	783619	WORD	n/a	wordpools/wordpool_categorized_EN.txt	BLUEBIRD	Birds	1	7	[0, 0, 0]	n/a	catFR1	0	R1313J
783.183	0.969	785244	WORD_OFF	n/a	n/a	BLUEBIRD	Birds	1	7	[0, 0, 0]	n/a	catFR1	0	R1313J
784.152	1.632	786213	WORD	n/a	wordpools/wordpool_categorized_EN.txt	GOOSE	Birds	2	7	[0, 0, 0]	n/a	catFR1	0	R1313J
785.784	0.806	787845	WORD_OFF	n/a	n/a	GOOSE	Birds	2	7	[0, 0, 0]	n/a	catFR1	0	R1313J
786.59	1.627	788651	WORD	n/a	wordpools/wordpool_categorized_EN.txt	KNIFE	KitchenTools	3	7	[0, 0, 0]	n/a	catFR1	0	R1313J
788.217	0.906	790278	WORD_OFF	n/a	n/a	KNIFE	KitchenTools	3	7	[0, 0, 0]	n/a	catFR1	0	R1313J
789.123	1.629	791184	WORD	n/a	wordpools/wordpool_categorized_EN.txt	PEELER	KitchenTools	4	7	[0, 0, 0]	n/a	catFR1	0	R1313J
790.752	0.762	792813	WORD_OFF	n/a	n/a	PEELER	KitchenTools	4	7	[0, 0, 0]	n/a	catFR1	0	R1313J
791.514	1.637	793575	WORD	n/a	wordpools/wordpool_categorized_EN.txt	TORNADO	Weather	5	7	[0, 0, 0]	n/a	catFR1	0	R1313J
793.151	0.86	795212	WORD_OFF	n/a	n/a	TORNADO	Weather	5	7	[0, 0, 0]	n/a	catFR1	0	R1313J
794.011	1.625	796072	WORD	n/a	wordpools/wordpool_categorized_EN.txt	WIND	Weather	6	7	[0, 0, 0]	n/a	catFR1	0	R1313J
795.636	0.843	797697	WORD_OFF	n/a	n/a	WIND	Weather	6	7	[0, 0, 0]	n/a	catFR1	0	R1313J
796.479	1.623	798540	WORD	n/a	wordpools/wordpool_categorized_EN.txt	FINCH	Birds	7	7	[0, 0, 0]	n/a	catFR1	0	R1313J
798.102	0.924	800163	WORD_OFF	n/a	n/a	FINCH	Birds	7	7	[0, 0, 0]	n/a	catFR1	0	R1313J
799.026	1.627	801087	WORD	n/a	wordpools/wordpool_categorized_EN.txt	HAWK	Birds	8	7	[0, 0, 0]	n/a	catFR1	0	R1313J
800.653	0.935	802714	WORD_OFF	n/a	n/a	HAWK	Birds	8	7	[0, 0, 0]	n/a	catFR1	0	R1313J
801.588	1.631	803649	WORD	n/a	wordpools/wordpool_categorized_EN.txt	STRAINER	KitchenTools	9	7	[0, 0, 0]	n/a	catFR1	0	R1313J
803.219	1.15	805280	WORD_OFF	n/a	n/a	STRAINER	KitchenTools	9	7	[0, 0, 0]	n/a	catFR1	0	R1313J
804.369	1.634	806430	WORD	n/a	wordpools/wordpool_categorized_EN.txt	COLANDER	KitchenTools	10	7	[0, 0, 0]	n/a	catFR1	0	R1313J
806.003	0.889	808063	WORD_OFF	n/a	n/a	COLANDER	KitchenTools	10	7	[0, 0, 0]	n/a	catFR1	0	R1313J
806.892	1.629	808952	WORD	n/a	wordpools/wordpool_categorized_EN.txt	RAIN	Weather	11	7	[0, 0, 0]	n/a	catFR1	0	R1313J
808.521	1.003	810581	WORD_OFF	n/a	n/a	RAIN	Weather	11	7	[0, 0, 0]	n/a	catFR1	0	R1313J
809.524	1.63	811584	WORD	n/a	wordpools/wordpool_categorized_EN.txt	HUMIDITY	Weather	12	7	[0, 0, 0]	n/a	catFR1	0	R1313J
811.154	0.001	813214	WORD_OFF	n/a	n/a	HUMIDITY	Weather	12	7	[0, 0, 0]	n/a	catFR1	0	R1313J
811.155	0.0	813215	DISTRACT_START	n/a	n/a	n/a	n/a	-999	7	[0, 0, 0]	n/a	catFR1	0	R1313J
811.155	0.0	813215	ENCODING_END	n/a	n/a	n/a	n/a	-999	7	[0, 0, 0]	n/a	catFR1	0	R1313J
811.155	0.015	813215	START	n/a	n/a	n/a	n/a	-999	7	[-999, -999, -999]	n/a	catFR1	0	R1313J
811.17	10.969	813230	PROB	10.969	n/a	n/a	n/a	-999	7	[9, 7, 6]	22	catFR1	0	R1313J
822.139	3.901	824199	PROB	3.901	n/a	n/a	n/a	-999	7	[5, 6, 1]	12	catFR1	0	R1313J
826.04	3.117	828100	PROB	3.117	n/a	n/a	n/a	-999	7	[6, 7, 3]	16	catFR1	0	R1313J
829.157	4.367	831217	PROB	4.367	n/a	n/a	n/a	-999	7	[6, 7, 2]	15	catFR1	0	R1313J
833.524	0.018	835583	STOP	n/a	n/a	n/a	n/a	-999	7	[-999, -999, -999]	n/a	catFR1	0	R1313J
833.542	0.604	835601	DISTRACT_END	n/a	n/a	n/a	n/a	-999	7	[0, 0, 0]	n/a	catFR1	0	R1313J
834.146	1.647	836205	RETRIEVAL_ORIENT_START	n/a	n/a	n/a	n/a	-999	7	[0, 0, 0]	n/a	catFR1	0	R1313J
835.793	0.0	837852	RETRIEVAL_ORIENT_END	n/a	n/a	n/a	n/a	-999	7	[0, 0, 0]	n/a	catFR1	0	R1313J
835.793	0.0	837852	REC_START	n/a	n/a	n/a	n/a	-999	7	[0, 0, 0]	n/a	catFR1	0	R1313J
835.793	7.069	837852	REC_WORD_VV	7.069	n/a	<>	n/a	-999	7	[0, 0, 0]	n/a	catFR1	0	R1313J
842.862	9.146	844921	REC_WORD_VV	9.146	n/a	<>	n/a	-999	7	[0, 0, 0]	n/a	catFR1	0	R1313J
852.008	1.0	854067	REC_WORD_VV	1.0	n/a	<>	n/a	-999	7	[0, 0, 0]	n/a	catFR1	0	R1313J
853.008	1.0	855067	REC_WORD_VV	1.0	n/a	<>	n/a	-999	7	[0, 0, 0]	n/a	catFR1	0	R1313J
854.008	11.798	856067	REC_WORD_VV	11.798	n/a	<>	n/a	-999	7	[0, 0, 0]	n/a	catFR1	0	R1313J
865.806	0.0	867864	REC_END	n/a	n/a	n/a	n/a	-999	7	[0, 0, 0]	n/a	catFR1	0	R1313J
865.806	0.022	867864	TRIAL_END	n/a	n/a	n/a	n/a	-999	7	[0, 0, 0]	n/a	catFR1	0	R1313J
865.828	0.001	867886	TRIAL_START	n/a	n/a	n/a	n/a	-999	8	[0, 0, 0]	n/a	catFR1	0	R1313J
865.829	0.0	867887	TRIAL	n/a	n/a	n/a	n/a	-999	8	[0, 0, 0]	n/a	catFR1	0	R1313J
865.829	2.053	867887	WAITING_START	n/a	n/a	n/a	n/a	-999	8	[0, 0, 0]	n/a	catFR1	0	R1313J
867.882	0.0	869940	WAITING_END	n/a	n/a	n/a	n/a	-999	8	[0, 0, 0]	n/a	catFR1	0	R1313J
867.882	10.429	869940	COUNTDOWN_START	n/a	n/a	n/a	n/a	-999	8	[0, 0, 0]	n/a	catFR1	0	R1313J
878.311	0.0	880369	COUNTDOWN_END	n/a	n/a	n/a	n/a	-999	8	[0, 0, 0]	n/a	catFR1	0	R1313J
878.311	1.139	880369	ORIENT_START	n/a	n/a	n/a	n/a	-999	8	[0, 0, 0]	n/a	catFR1	0	R1313J
879.45	0.0	881507	ENCODING_START	n/a	n/a	n/a	n/a	-999	8	[0, 0, 0]	n/a	catFR1	0	R1313J
879.45	0.753	881507	ORIENT_END	n/a	n/a	n/a	n/a	-999	8	[0, 0, 0]	n/a	catFR1	0	R1313J
880.203	1.631	882260	WORD	n/a	wordpools/wordpool_categorized_EN.txt	FINGERS	BodyParts	1	8	[0, 0, 0]	n/a	catFR1	0	R1313J
881.834	0.948	883891	WORD_OFF	n/a	n/a	FINGERS	BodyParts	1	8	[0, 0, 0]	n/a	catFR1	0	R1313J
882.782	1.634	884839	WORD	n/a	wordpools/wordpool_categorized_EN.txt	HEAD	BodyParts	2	8	[0, 0, 0]	n/a	catFR1	0	R1313J
884.416	0.831	886473	WORD_OFF	n/a	n/a	HEAD	BodyParts	2	8	[0, 0, 0]	n/a	catFR1	0	R1313J
885.247	1.621	887304	WORD	n/a	wordpools/wordpool_categorized_EN.txt	BASS	Instruments	3	8	[0, 0, 0]	n/a	catFR1	0	R1313J
886.868	1.14	888925	WORD_OFF	n/a	n/a	BASS	Instruments	3	8	[0, 0, 0]	n/a	catFR1	0	R1313J
888.008	1.627	890065	WORD	n/a	wordpools/wordpool_categorized_EN.txt	CELLO	Instruments	4	8	[0, 0, 0]	n/a	catFR1	0	R1313J
889.635	0.971	891692	WORD_OFF	n/a	n/a	CELLO	Instruments	4	8	[0, 0, 0]	n/a	catFR1	0	R1313J
890.606	1.628	892663	WORD	n/a	wordpools/wordpool_categorized_EN.txt	EVERGREEN	Trees	5	8	[0, 0, 0]	n/a	catFR1	0	R1313J
892.234	0.925	894291	WORD_OFF	n/a	n/a	EVERGREEN	Trees	5	8	[0, 0, 0]	n/a	catFR1	0	R1313J
893.159	1.61	895216	WORD	n/a	wordpools/wordpool_categorized_EN.txt	MAPLE	Trees	6	8	[0, 0, 0]	n/a	catFR1	0	R1313J
894.769	0.978	896826	WORD_OFF	n/a	n/a	MAPLE	Trees	6	8	[0, 0, 0]	n/a	catFR1	0	R1313J
895.747	1.622	897804	WORD	n/a	wordpools/wordpool_categorized_EN.txt	LEG	BodyParts	7	8	[0, 0, 0]	n/a	catFR1	0	R1313J
897.369	0.969	899426	WORD_OFF	n/a	n/a	LEG	BodyParts	7	8	[0, 0, 0]	n/a	catFR1	0	R1313J
898.338	1.632	900395	WORD	n/a	wordpools/wordpool_categorized_EN.txt	EAR	BodyParts	8	8	[0, 0, 0]	n/a	catFR1	0	R1313J
899.97	1.052	902027	WORD_OFF	n/a	n/a	EAR	BodyParts	8	8	[0, 0, 0]	n/a	catFR1	0	R1313J
901.022	1.615	903079	WORD	n/a	wordpools/wordpool_categorized_EN.txt	OAK	Trees	9	8	[0, 0, 0]	n/a	catFR1	0	R1313J
902.637	0.868	904694	WORD_OFF	n/a	n/a	OAK	Trees	9	8	[0, 0, 0]	n/a	catFR1	0	R1313J
903.505	1.632	905561	WORD	n/a	wordpools/wordpool_categorized_EN.txt	PINE	Trees	10	8	[0, 0, 0]	n/a	catFR1	0	R1313J
905.137	0.787	907193	WORD_OFF	n/a	n/a	PINE	Trees	10	8	[0, 0, 0]	n/a	catFR1	0	R1313J
905.924	1.631	907980	WORD	n/a	wordpools/wordpool_categorized_EN.txt	GUITAR	Instruments	11	8	[0, 0, 0]	n/a	catFR1	0	R1313J
907.555	1.012	909611	WORD_OFF	n/a	n/a	GUITAR	Instruments	11	8	[0, 0, 0]	n/a	catFR1	0	R1313J
908.567	1.62	910623	WORD	n/a	wordpools/wordpool_categorized_EN.txt	BANJO	Instruments	12	8	[0, 0, 0]	n/a	catFR1	0	R1313J
910.187	0.001	912243	WORD_OFF	n/a	n/a	BANJO	Instruments	12	8	[0, 0, 0]	n/a	catFR1	0	R1313J
910.188	0.0	912244	ENCODING_END	n/a	n/a	n/a	n/a	-999	8	[0, 0, 0]	n/a	catFR1	0	R1313J
910.188	0.0	912244	DISTRACT_START	n/a	n/a	n/a	n/a	-999	8	[0, 0, 0]	n/a	catFR1	0	R1313J
910.188	0.016	912244	START	n/a	n/a	n/a	n/a	-999	8	[-999, -999, -999]	n/a	catFR1	0	R1313J
910.204	4.535	912260	PROB	4.535	n/a	n/a	n/a	-999	8	[9, 2, 9]	20	catFR1	0	R1313J
914.739	4.266	916795	PROB	4.266	n/a	n/a	n/a	-999	8	[9, 9, 4]	22	catFR1	0	R1313J
919.005	3.819	921061	PROB	3.819	n/a	n/a	n/a	-999	8	[5, 4, 6]	15	catFR1	0	R1313J
922.824	6.5	924880	PROB	6.5	n/a	n/a	n/a	-999	8	[8, 5, 9]	22	catFR1	0	R1313J
929.324	4.195	931379	PROB	4.195	n/a	n/a	n/a	-999	8	[2, 8, 7]	17	catFR1	0	R1313J
933.519	0.006	935574	STOP	n/a	n/a	n/a	n/a	-999	8	[-999, -999, -999]	n/a	catFR1	0	R1313J
933.525	0.672	935580	DISTRACT_END	n/a	n/a	n/a	n/a	-999	8	[0, 0, 0]	n/a	catFR1	0	R1313J
934.197	1.562	936252	RETRIEVAL_ORIENT_START	n/a	n/a	n/a	n/a	-999	8	[0, 0, 0]	n/a	catFR1	0	R1313J
935.759	0.001	937814	RETRIEVAL_ORIENT_END	n/a	n/a	n/a	n/a	-999	8	[0, 0, 0]	n/a	catFR1	0	R1313J
935.76	0.345	937815	REC_START	n/a	n/a	n/a	n/a	-999	8	[0, 0, 0]	n/a	catFR1	0	R1313J
936.105	1.49	938160	REC_WORD	1.49	n/a	LEG	BodyParts	7	8	[0, 0, 0]	n/a	catFR1	0	R1313J
937.595	1.175	939650	REC_WORD	1.175	n/a	HEAD	BodyParts	2	8	[0, 0, 0]	n/a	catFR1	0	R1313J
938.77	1.695	940825	REC_WORD	1.695	n/a	FINGERS	BodyParts	1	8	[0, 0, 0]	n/a	catFR1	0	R1313J
940.465	1.265	942520	REC_WORD	1.265	n/a	GUITAR	Instruments	11	8	[0, 0, 0]	n/a	catFR1	0	R1313J
941.73	1.465	943785	REC_WORD	1.465	n/a	BANJO	Instruments	12	8	[0, 0, 0]	n/a	catFR1	0	R1313J
943.195	22.577	945250	REC_WORD	22.577	n/a	OAK	Trees	9	8	[0, 0, 0]	n/a	catFR1	0	R1313J
965.772	0.0	967826	TRIAL_END	n/a	n/a	n/a	n/a	-999	8	[0, 0, 0]	n/a	catFR1	0	R1313J
965.772	0.023	967826	REC_END	n/a	n/a	n/a	n/a	-999	8	[0, 0, 0]	n/a	catFR1	0	R1313J
965.795	0.0	967849	TRIAL_START	n/a	n/a	n/a	n/a	-999	9	[0, 0, 0]	n/a	catFR1	0	R1313J
965.795	0.0	967849	TRIAL	n/a	n/a	n/a	n/a	-999	9	[0, 0, 0]	n/a	catFR1	0	R1313J
965.795	2.586	967849	WAITING_START	n/a	n/a	n/a	n/a	-999	9	[0, 0, 0]	n/a	catFR1	0	R1313J
968.381	0.0	970435	WAITING_END	n/a	n/a	n/a	n/a	-999	9	[0, 0, 0]	n/a	catFR1	0	R1313J
968.381	10.429	970435	COUNTDOWN_START	n/a	n/a	n/a	n/a	-999	9	[0, 0, 0]	n/a	catFR1	0	R1313J
978.81	0.0	980863	COUNTDOWN_END	n/a	n/a	n/a	n/a	-999	9	[0, 0, 0]	n/a	catFR1	0	R1313J
978.81	1.057	980863	ORIENT_START	n/a	n/a	n/a	n/a	-999	9	[0, 0, 0]	n/a	catFR1	0	R1313J
979.867	0.0	981920	ORIENT_END	n/a	n/a	n/a	n/a	-999	9	[0, 0, 0]	n/a	catFR1	0	R1313J
979.867	0.896	981920	ENCODING_START	n/a	n/a	n/a	n/a	-999	9	[0, 0, 0]	n/a	catFR1	0	R1313J
980.763	1.637	982816	WORD	n/a	wordpools/wordpool_categorized_EN.txt	HALLWAY	Building	1	9	[0, 0, 0]	n/a	catFR1	0	R1313J
982.4	0.879	984453	WORD_OFF	n/a	n/a	HALLWAY	Building	1	9	[0, 0, 0]	n/a	catFR1	0	R1313J
983.279	1.622	985332	WORD	n/a	wordpools/wordpool_categorized_EN.txt	ROOF	Building	2	9	[0, 0, 0]	n/a	catFR1	0	R1313J
984.901	1.115	986954	WORD_OFF	n/a	n/a	ROOF	Building	2	9	[0, 0, 0]	n/a	catFR1	0	R1313J
986.016	1.636	988069	WORD	n/a	wordpools/wordpool_categorized_EN.txt	COW	FarmAnimals	3	9	[0, 0, 0]	n/a	catFR1	0	R1313J
987.652	0.948	989705	WORD_OFF	n/a	n/a	COW	FarmAnimals	3	9	[0, 0, 0]	n/a	catFR1	0	R1313J
988.6	1.634	990653	WORD	n/a	wordpools/wordpool_categorized_EN.txt	HORSE	FarmAnimals	4	9	[0, 0, 0]	n/a	catFR1	0	R1313J
990.234	0.863	992287	WORD_OFF	n/a	n/a	HORSE	FarmAnimals	4	9	[0, 0, 0]	n/a	catFR1	0	R1313J
991.097	1.605	993150	WORD	n/a	wordpools/wordpool_categorized_EN.txt	DAISY	Flowers	5	9	[0, 0, 0]	n/a	catFR1	0	R1313J
992.702	0.909	994755	WORD_OFF	n/a	n/a	DAISY	Flowers	5	9	[0, 0, 0]	n/a	catFR1	0	R1313J
993.611	1.624	995664	WORD	n/a	wordpools/wordpool_categorized_EN.txt	LILAC	Flowers	6	9	[0, 0, 0]	n/a	catFR1	0	R1313J
995.235	0.834	997288	WORD_OFF	n/a	n/a	LILAC	Flowers	6	9	[0, 0, 0]	n/a	catFR1	0	R1313J
996.069	1.634	998122	WORD	n/a	wordpools/wordpool_categorized_EN.txt	ROOSTER	FarmAnimals	7	9	[0, 0, 0]	n/a	catFR1	0	R1313J
997.703	1.095	999756	WORD_OFF	n/a	n/a	ROOSTER	FarmAnimals	7	9	[0, 0, 0]	n/a	catFR1	0	R1313J
998.798	1.621	1000851	WORD	n/a	wordpools/wordpool_categorized_EN.txt	CALF	FarmAnimals	8	9	[0, 0, 0]	n/a	catFR1	0	R1313J
1000.419	0.962	1002472	WORD_OFF	n/a	n/a	CALF	FarmAnimals	8	9	[0, 0, 0]	n/a	catFR1	0	R1313J
1001.381	1.622	1003433	WORD	n/a	wordpools/wordpool_categorized_EN.txt	BATHROOM	Building	9	9	[0, 0, 0]	n/a	catFR1	0	R1313J
1003.003	0.924	1005055	WORD_OFF	n/a	n/a	BATHROOM	Building	9	9	[0, 0, 0]	n/a	catFR1	0	R1313J
1003.927	1.627	1005979	WORD	n/a	wordpools/wordpool_categorized_EN.txt	STAIRS	Building	10	9	[0, 0, 0]	n/a	catFR1	0	R1313J
1005.554	0.823	1007606	WORD_OFF	n/a	n/a	STAIRS	Building	10	9	[0, 0, 0]	n/a	catFR1	0	R1313J
1006.377	1.627	1008429	WORD	n/a	wordpools/wordpool_categorized_EN.txt	LILY	Flowers	11	9	[0, 0, 0]	n/a	catFR1	0	R1313J
1008.004	0.875	1010056	WORD_OFF	n/a	n/a	LILY	Flowers	11	9	[0, 0, 0]	n/a	catFR1	0	R1313J
1008.879	1.626	1010931	WORD	n/a	wordpools/wordpool_categorized_EN.txt	DAFFODIL	Flowers	12	9	[0, 0, 0]	n/a	catFR1	0	R1313J
1010.505	0.001	1012557	WORD_OFF	n/a	n/a	DAFFODIL	Flowers	12	9	[0, 0, 0]	n/a	catFR1	0	R1313J
1010.506	0.0	1012558	DISTRACT_START	n/a	n/a	n/a	n/a	-999	9	[0, 0, 0]	n/a	catFR1	0	R1313J
1010.506	0.001	1012558	ENCODING_END	n/a	n/a	n/a	n/a	-999	9	[0, 0, 0]	n/a	catFR1	0	R1313J
1010.507	0.015	1012559	START	n/a	n/a	n/a	n/a	-999	9	[-999, -999, -999]	n/a	catFR1	0	R1313J
1010.522	8.085	1012574	PROB	8.085	n/a	n/a	n/a	-999	9	[4, 3, 9]	16	catFR1	0	R1313J
1018.607	3.133	1020659	PROB	3.133	n/a	n/a	n/a	-999	9	[8, 1, 2]	11	catFR1	0	R1313J
1021.74	3.818	1023792	PROB	3.818	n/a	n/a	n/a	-999	9	[9, 1, 3]	13	catFR1	0	R1313J
1025.558	3.599	1027609	PROB	3.599	n/a	n/a	n/a	-999	9	[6, 2, 1]	9	catFR1	0	R1313J
1029.157	3.253	1031208	PROB	3.253	n/a	n/a	n/a	-999	9	[3, 3, 2]	8	catFR1	0	R1313J
1032.41	0.015	1034461	STOP	n/a	n/a	n/a	n/a	-999	9	[-999, -999, -999]	n/a	catFR1	0	R1313J
1032.425	0.679	1034476	DISTRACT_END	n/a	n/a	n/a	n/a	-999	9	[0, 0, 0]	n/a	catFR1	0	R1313J
1033.104	1.639	1035155	RETRIEVAL_ORIENT_START	n/a	n/a	n/a	n/a	-999	9	[0, 0, 0]	n/a	catFR1	0	R1313J
1034.743	0.0	1036794	RETRIEVAL_ORIENT_END	n/a	n/a	n/a	n/a	-999	9	[0, 0, 0]	n/a	catFR1	0	R1313J
1034.743	1.074	1036794	REC_START	n/a	n/a	n/a	n/a	-999	9	[0, 0, 0]	n/a	catFR1	0	R1313J
1035.817	10.295	1037868	REC_WORD_VV	10.295	n/a	<>	n/a	-999	9	[0, 0, 0]	n/a	catFR1	0	R1313J
1046.112	18.643	1048163	REC_WORD_VV	18.643	n/a	<>	n/a	-999	9	[0, 0, 0]	n/a	catFR1	0	R1313J
1064.755	0.001	1066805	REC_END	n/a	n/a	n/a	n/a	-999	9	[0, 0, 0]	n/a	catFR1	0	R1313J
1064.756	0.022	1066806	TRIAL_END	n/a	n/a	n/a	n/a	-999	9	[0, 0, 0]	n/a	catFR1	0	R1313J
1064.778	0.0	1066828	TRIAL	n/a	n/a	n/a	n/a	-999	10	[0, 0, 0]	n/a	catFR1	0	R1313J
1064.778	0.0	1066828	WAITING_START	n/a	n/a	n/a	n/a	-999	10	[0, 0, 0]	n/a	catFR1	0	R1313J
1064.778	6.171	1066828	TRIAL_START	n/a	n/a	n/a	n/a	-999	10	[0, 0, 0]	n/a	catFR1	0	R1313J
1070.949	0.0	1072999	WAITING_END	n/a	n/a	n/a	n/a	-999	10	[0, 0, 0]	n/a	catFR1	0	R1313J
1070.949	10.43	1072999	COUNTDOWN_START	n/a	n/a	n/a	n/a	-999	10	[0, 0, 0]	n/a	catFR1	0	R1313J
1081.379	0.0	1083428	COUNTDOWN_END	n/a	n/a	n/a	n/a	-999	10	[0, 0, 0]	n/a	catFR1	0	R1313J
1081.379	1.122	1083428	ORIENT_START	n/a	n/a	n/a	n/a	-999	10	[0, 0, 0]	n/a	catFR1	0	R1313J
1082.501	0.0	1084550	ORIENT_END	n/a	n/a	n/a	n/a	-999	10	[0, 0, 0]	n/a	catFR1	0	R1313J
1082.501	0.841	1084550	ENCODING_START	n/a	n/a	n/a	n/a	-999	10	[0, 0, 0]	n/a	catFR1	0	R1313J
1083.342	1.626	1085391	WORD	n/a	wordpools/wordpool_categorized_EN.txt	NIGHTSTAND	Furniture	1	10	[0, 0, 0]	n/a	catFR1	0	R1313J
1084.968	0.978	1087017	WORD_OFF	n/a	n/a	NIGHTSTAND	Furniture	1	10	[0, 0, 0]	n/a	catFR1	0	R1313J
1085.946	1.622	1087995	WORD	n/a	wordpools/wordpool_categorized_EN.txt	DRESSER	Furniture	2	10	[0, 0, 0]	n/a	catFR1	0	R1313J
1087.568	1.107	1089617	WORD_OFF	n/a	n/a	DRESSER	Furniture	2	10	[0, 0, 0]	n/a	catFR1	0	R1313J
1088.675	1.626	1090724	WORD	n/a	wordpools/wordpool_categorized_EN.txt	WHISK	KitchenTools	3	10	[0, 0, 0]	n/a	catFR1	0	R1313J
1090.301	1.135	1092350	WORD_OFF	n/a	n/a	WHISK	KitchenTools	3	10	[0, 0, 0]	n/a	catFR1	0	R1313J
1091.436	1.632	1093485	WORD	n/a	wordpools/wordpool_categorized_EN.txt	GRATER	KitchenTools	4	10	[0, 0, 0]	n/a	catFR1	0	R1313J
1093.068	0.811	1095117	WORD_OFF	n/a	n/a	GRATER	KitchenTools	4	10	[0, 0, 0]	n/a	catFR1	0	R1313J
1093.879	1.624	1095928	WORD	n/a	wordpools/wordpool_categorized_EN.txt	MOUNTAIN	Landscapes	5	10	[0, 0, 0]	n/a	catFR1	0	R1313J
1095.503	0.819	1097552	WORD_OFF	n/a	n/a	MOUNTAIN	Landscapes	5	10	[0, 0, 0]	n/a	catFR1	0	R1313J
1096.322	1.615	1098371	WORD	n/a	wordpools/wordpool_categorized_EN.txt	OCEAN	Landscapes	6	10	[0, 0, 0]	n/a	catFR1	0	R1313J
1097.937	0.787	1099986	WORD_OFF	n/a	n/a	OCEAN	Landscapes	6	10	[0, 0, 0]	n/a	catFR1	0	R1313J
1098.724	1.629	1100772	WORD	n/a	wordpools/wordpool_categorized_EN.txt	SOFA	Furniture	7	10	[0, 0, 0]	n/a	catFR1	0	R1313J
1100.353	0.832	1102401	WORD_OFF	n/a	n/a	SOFA	Furniture	7	10	[0, 0, 0]	n/a	catFR1	0	R1313J
1101.185	1.636	1103233	WORD	n/a	wordpools/wordpool_categorized_EN.txt	CABINET	Furniture	8	10	[0, 0, 0]	n/a	catFR1	0	R1313J
1102.821	0.797	1104869	WORD_OFF	n/a	n/a	CABINET	Furniture	8	10	[0, 0, 0]	n/a	catFR1	0	R1313J
1103.618	1.636	1105666	WORD	n/a	wordpools/wordpool_categorized_EN.txt	LADLE	KitchenTools	9	10	[0, 0, 0]	n/a	catFR1	0	R1313J
1105.254	0.969	1107302	WORD_OFF	n/a	n/a	LADLE	KitchenTools	9	10	[0, 0, 0]	n/a	catFR1	0	R1313J
1106.223	1.615	1108271	WORD	n/a	wordpools/wordpool_categorized_EN.txt	CORKSCREW	KitchenTools	10	10	[0, 0, 0]	n/a	catFR1	0	R1313J
1107.838	1.084	1109886	WORD_OFF	n/a	n/a	CORKSCREW	KitchenTools	10	10	[0, 0, 0]	n/a	catFR1	0	R1313J
1108.922	1.617	1110970	WORD	n/a	wordpools/wordpool_categorized_EN.txt	BEACH	Landscapes	11	10	[0, 0, 0]	n/a	catFR1	0	R1313J
1110.539	1.081	1112587	WORD_OFF	n/a	n/a	BEACH	Landscapes	11	10	[0, 0, 0]	n/a	catFR1	0	R1313J
1111.62	1.635	1113668	WORD	n/a	wordpools/wordpool_categorized_EN.txt	LAKE	Landscapes	12	10	[0, 0, 0]	n/a	catFR1	0	R1313J
1113.255	0.0	1115303	WORD_OFF	n/a	n/a	LAKE	Landscapes	12	10	[0, 0, 0]	n/a	catFR1	0	R1313J
1113.255	0.001	1115303	ENCODING_END	n/a	n/a	n/a	n/a	-999	10	[0, 0, 0]	n/a	catFR1	0	R1313J
1113.256	0.0	1115304	DISTRACT_START	n/a	n/a	n/a	n/a	-999	10	[0, 0, 0]	n/a	catFR1	0	R1313J
1113.256	0.016	1115304	START	n/a	n/a	n/a	n/a	-999	10	[-999, -999, -999]	n/a	catFR1	0	R1313J
1113.272	4.235	1115320	PROB	4.235	n/a	n/a	n/a	-999	10	[4, 4, 2]	10	catFR1	0	R1313J
1117.507	4.367	1119555	PROB	4.367	n/a	n/a	n/a	-999	10	[7, 3, 9]	19	catFR1	0	R1313J
1121.874	3.1	1123922	PROB	3.1	n/a	n/a	n/a	-999	10	[5, 1, 9]	15	catFR1	0	R1313J
1124.974	4.35	1127021	PROB	4.35	n/a	n/a	n/a	-999	10	[1, 9, 6]	16	catFR1	0	R1313J
1129.324	3.989	1131371	PROB	3.989	n/a	n/a	n/a	-999	10	[6, 9, 2]	17	catFR1	0	R1313J
1133.313	0.012	1135360	STOP	n/a	n/a	n/a	n/a	-999	10	[-999, -999, -999]	n/a	catFR1	0	R1313J
1133.325	0.502	1135372	DISTRACT_END	n/a	n/a	n/a	n/a	-999	10	[0, 0, 0]	n/a	catFR1	0	R1313J
1133.827	1.633	1135874	RETRIEVAL_ORIENT_START	n/a	n/a	n/a	n/a	-999	10	[0, 0, 0]	n/a	catFR1	0	R1313J
1135.46	0.0	1137507	RETRIEVAL_ORIENT_END	n/a	n/a	n/a	n/a	-999	10	[0, 0, 0]	n/a	catFR1	0	R1313J
1135.46	1.759	1137507	REC_START	n/a	n/a	n/a	n/a	-999	10	[0, 0, 0]	n/a	catFR1	0	R1313J
1137.219	1.571	1139266	REC_WORD	1.571	n/a	SOFA	Furniture	7	10	[0, 0, 0]	n/a	catFR1	0	R1313J
1138.79	1.0	1140837	REC_WORD	1.0	n/a	CORKSCREW	KitchenTools	10	10	[0, 0, 0]	n/a	catFR1	0	R1313J
1139.79	0.97	1141837	REC_WORD_VV	0.97	n/a	<>	n/a	-999	10	[0, 0, 0]	n/a	catFR1	0	R1313J
1140.76	4.12	1142807	REC_WORD	4.12	n/a	OCEAN	Landscapes	6	10	[0, 0, 0]	n/a	catFR1	0	R1313J
1144.88	12.323	1146927	REC_WORD_VV	12.323	n/a	<>	n/a	-999	10	[0, 0, 0]	n/a	catFR1	0	R1313J
1157.203	4.21	1159249	REC_WORD_VV	4.21	n/a	<>	n/a	-999	10	[0, 0, 0]	n/a	catFR1	0	R1313J
1161.413	4.059	1163459	REC_WORD_VV	4.059	n/a	<>	n/a	-999	10	[0, 0, 0]	n/a	catFR1	0	R1313J
1165.472	0.0	1167518	REC_END	n/a	n/a	n/a	n/a	-999	10	[0, 0, 0]	n/a	catFR1	0	R1313J
1165.472	0.02	1167518	TRIAL_END	n/a	n/a	n/a	n/a	-999	10	[0, 0, 0]	n/a	catFR1	0	R1313J
1165.492	0.001	1167538	TRIAL_START	n/a	n/a	n/a	n/a	-999	11	[0, 0, 0]	n/a	catFR1	0	R1313J
1165.493	0.0	1167539	WAITING_START	n/a	n/a	n/a	n/a	-999	11	[0, 0, 0]	n/a	catFR1	0	R1313J
1165.493	1.688	1167539	TRIAL	n/a	n/a	n/a	n/a	-999	11	[0, 0, 0]	n/a	catFR1	0	R1313J
1167.181	0.0	1169227	WAITING_END	n/a	n/a	n/a	n/a	-999	11	[0, 0, 0]	n/a	catFR1	0	R1313J
1167.181	10.429	1169227	COUNTDOWN_START	n/a	n/a	n/a	n/a	-999	11	[0, 0, 0]	n/a	catFR1	0	R1313J
1177.61	0.0	1179655	COUNTDOWN_END	n/a	n/a	n/a	n/a	-999	11	[0, 0, 0]	n/a	catFR1	0	R1313J
1177.61	1.174	1179655	ORIENT_START	n/a	n/a	n/a	n/a	-999	11	[0, 0, 0]	n/a	catFR1	0	R1313J
1178.784	0.0	1180829	ORIENT_END	n/a	n/a	n/a	n/a	-999	11	[0, 0, 0]	n/a	catFR1	0	R1313J
1178.784	1.065	1180829	ENCODING_START	n/a	n/a	n/a	n/a	-999	11	[0, 0, 0]	n/a	catFR1	0	R1313J
1179.849	1.635	1181894	WORD	n/a	wordpools/wordpool_categorized_EN.txt	DOLLHOUSE	Toys	1	11	[0, 0, 0]	n/a	catFR1	0	R1313J
1181.484	1.111	1183529	WORD_OFF	n/a	n/a	DOLLHOUSE	Toys	1	11	[0, 0, 0]	n/a	catFR1	0	R1313J
1182.595	1.622	1184640	WORD	n/a	wordpools/wordpool_categorized_EN.txt	MARBLES	Toys	2	11	[0, 0, 0]	n/a	catFR1	0	R1313J
1184.217	0.951	1186262	WORD_OFF	n/a	n/a	MARBLES	Toys	2	11	[0, 0, 0]	n/a	catFR1	0	R1313J
1185.168	1.634	1187213	WORD	n/a	wordpools/wordpool_categorized_EN.txt	LIGHTNING	Weather	3	11	[0, 0, 0]	n/a	catFR1	0	R1313J
1186.802	0.955	1188847	WORD_OFF	n/a	n/a	LIGHTNING	Weather	3	11	[0, 0, 0]	n/a	catFR1	0	R1313J
1187.757	1.628	1189802	WORD	n/a	wordpools/wordpool_categorized_EN.txt	THUNDERSTORM	Weather	4	11	[0, 0, 0]	n/a	catFR1	0	R1313J
1189.385	0.951	1191430	WORD_OFF	n/a	n/a	THUNDERSTORM	Weather	4	11	[0, 0, 0]	n/a	catFR1	0	R1313J
1190.336	1.633	1192381	WORD	n/a	wordpools/wordpool_categorized_EN.txt	PANDA	Zoo	5	11	[0, 0, 0]	n/a	catFR1	0	R1313J
1191.969	0.939	1194014	WORD_OFF	n/a	n/a	PANDA	Zoo	5	11	[0, 0, 0]	n/a	catFR1	0	R1313J
1192.908	1.629	1194953	WORD	n/a	wordpools/wordpool_categorized_EN.txt	MONKEY	Zoo	6	11	[0, 0, 0]	n/a	catFR1	0	R1313J
1194.537	1.112	1196582	WORD_OFF	n/a	n/a	MONKEY	Zoo	6	11	[0, 0, 0]	n/a	catFR1	0	R1313J
1195.649	1.637	1197694	WORD	n/a	wordpools/wordpool_categorized_EN.txt	SNOW	Weather	7	11	[0, 0, 0]	n/a	catFR1	0	R1313J
1197.286	0.964	1199330	WORD_OFF	n/a	n/a	SNOW	Weather	7	11	[0, 0, 0]	n/a	catFR1	0	R1313J
1198.25	1.621	1200294	WORD	n/a	wordpools/wordpool_categorized_EN.txt	FOG	Weather	8	11	[0, 0, 0]	n/a	catFR1	0	R1313J
1199.871	1.026	1201915	WORD_OFF	n/a	n/a	FOG	Weather	8	11	[0, 0, 0]	n/a	catFR1	0	R1313J
1200.897	1.624	1202941	WORD	n/a	wordpools/wordpool_categorized_EN.txt	ORANGUTAN	Zoo	9	11	[0, 0, 0]	n/a	catFR1	0	R1313J
1202.521	1.121	1204565	WORD_OFF	n/a	n/a	ORANGUTAN	Zoo	9	11	[0, 0, 0]	n/a	catFR1	0	R1313J
1203.642	1.629	1205686	WORD	n/a	wordpools/wordpool_categorized_EN.txt	LION	Zoo	10	11	[0, 0, 0]	n/a	catFR1	0	R1313J
1205.271	0.764	1207315	WORD_OFF	n/a	n/a	LION	Zoo	10	11	[0, 0, 0]	n/a	catFR1	0	R1313J
1206.035	1.637	1208079	WORD	n/a	wordpools/wordpool_categorized_EN.txt	DOLL	Toys	11	11	[0, 0, 0]	n/a	catFR1	0	R1313J
1207.672	0.966	1209716	WORD_OFF	n/a	n/a	DOLL	Toys	11	11	[0, 0, 0]	n/a	catFR1	0	R1313J
1208.638	1.633	1210682	WORD	n/a	wordpools/wordpool_categorized_EN.txt	SLINKY	Toys	12	11	[0, 0, 0]	n/a	catFR1	0	R1313J
1210.271	0.001	1212315	WORD_OFF	n/a	n/a	SLINKY	Toys	12	11	[0, 0, 0]	n/a	catFR1	0	R1313J
1210.272	0.0	1212316	ENCODING_END	n/a	n/a	n/a	n/a	-999	11	[0, 0, 0]	n/a	catFR1	0	R1313J
1210.272	0.001	1212316	DISTRACT_START	n/a	n/a	n/a	n/a	-999	11	[0, 0, 0]	n/a	catFR1	0	R1313J
1210.273	0.015	1212317	START	n/a	n/a	n/a	n/a	-999	11	[-999, -999, -999]	n/a	catFR1	0	R1313J
1210.288	4.352	1212332	PROB	4.352	n/a	n/a	n/a	-999	11	[1, 8, 3]	12	catFR1	0	R1313J
1214.64	5.934	1216684	PROB	5.934	n/a	n/a	n/a	-999	11	[7, 6, 5]	18	catFR1	0	R1313J
1220.574	7.285	1222617	PROB	7.285	n/a	n/a	n/a	-999	11	[2, 8, 5]	15	catFR1	0	R1313J
1227.859	3.898	1229902	PROB	3.898	n/a	n/a	n/a	-999	11	[2, 6, 9]	17	catFR1	0	R1313J
1231.757	0.019	1233800	STOP	n/a	n/a	n/a	n/a	-999	11	[-999, -999, -999]	n/a	catFR1	0	R1313J
1231.776	0.539	1233819	DISTRACT_END	n/a	n/a	n/a	n/a	-999	11	[0, 0, 0]	n/a	catFR1	0	R1313J
1232.315	1.677	1234358	RETRIEVAL_ORIENT_START	n/a	n/a	n/a	n/a	-999	11	[0, 0, 0]	n/a	catFR1	0	R1313J
1233.992	0.0	1236035	REC_WORD_VV	0.0	n/a	<>	n/a	-999	11	[0, 0, 0]	n/a	catFR1	0	R1313J
1233.992	0.0	1236035	REC_START	n/a	n/a	n/a	n/a	-999	11	[0, 0, 0]	n/a	catFR1	0	R1313J
1233.992	0.87	1236035	RETRIEVAL_ORIENT_END	n/a	n/a	n/a	n/a	-999	11	[0, 0, 0]	n/a	catFR1	0	R1313J
1234.862	1.225	1236905	REC_WORD	1.225	n/a	THUNDERSTORM	Weather	4	11	[0, 0, 0]	n/a	catFR1	0	R1313J
1236.087	1.21	1238130	REC_WORD	1.21	n/a	SLINKY	Toys	12	11	[0, 0, 0]	n/a	catFR1	0	R1313J
1237.297	5.3	1239340	REC_WORD	5.3	n/a	LION	Zoo	10	11	[0, 0, 0]	n/a	catFR1	0	R1313J
1242.597	21.407	1244640	REC_WORD_VV	21.407	n/a	<>	n/a	-999	11	[0, 0, 0]	n/a	catFR1	0	R1313J
1264.004	0.0	1266046	REC_END	n/a	n/a	n/a	n/a	-999	11	[0, 0, 0]	n/a	catFR1	0	R1313J
1264.004	0.02	1266046	TRIAL_END	n/a	n/a	n/a	n/a	-999	11	[0, 0, 0]	n/a	catFR1	0	R1313J
1264.024	0.001	1266066	TRIAL_START	n/a	n/a	n/a	n/a	-999	12	[0, 0, 0]	n/a	catFR1	0	R1313J
1264.025	0.0	1266067	WAITING_START	n/a	n/a	n/a	n/a	-999	12	[0, 0, 0]	n/a	catFR1	0	R1313J
1264.025	28.31	1266067	TRIAL	n/a	n/a	n/a	n/a	-999	12	[0, 0, 0]	n/a	catFR1	0	R1313J
1292.335	0.001	1294376	WAITING_END	n/a	n/a	n/a	n/a	-999	12	[0, 0, 0]	n/a	catFR1	0	R1313J
1292.336	10.429	1294377	COUNTDOWN_START	n/a	n/a	n/a	n/a	-999	12	[0, 0, 0]	n/a	catFR1	0	R1313J
1302.765	0.0	1304805	COUNTDOWN_END	n/a	n/a	n/a	n/a	-999	12	[0, 0, 0]	n/a	catFR1	0	R1313J
1302.765	1.073	1304805	ORIENT_START	n/a	n/a	n/a	n/a	-999	12	[0, 0, 0]	n/a	catFR1	0	R1313J
1303.838	0.001	1305878	ORIENT_END	n/a	n/a	n/a	n/a	-999	12	[0, 0, 0]	n/a	catFR1	0	R1313J
1303.839	1.119	1305879	ENCODING_START	n/a	n/a	n/a	n/a	-999	12	[0, 0, 0]	n/a	catFR1	0	R1313J
1304.958	1.631	1306998	WORD	n/a	wordpools/wordpool_categorized_EN.txt	CHAIR	Furniture	1	12	[0, 0, 0]	n/a	catFR1	0	R1313J
1306.589	0.961	1308629	WORD_OFF	n/a	n/a	CHAIR	Furniture	1	12	[0, 0, 0]	n/a	catFR1	0	R1313J
1307.55	1.621	1309590	WORD	n/a	wordpools/wordpool_categorized_EN.txt	TABLE	Furniture	2	12	[0, 0, 0]	n/a	catFR1	0	R1313J
1309.171	0.911	1311211	WORD_OFF	n/a	n/a	TABLE	Furniture	2	12	[0, 0, 0]	n/a	catFR1	0	R1313J
1310.082	1.624	1312122	WORD	n/a	wordpools/wordpool_categorized_EN.txt	BIRCH	Trees	3	12	[0, 0, 0]	n/a	catFR1	0	R1313J
1311.706	0.789	1313746	WORD_OFF	n/a	n/a	BIRCH	Trees	3	12	[0, 0, 0]	n/a	catFR1	0	R1313J
1312.495	1.627	1314535	WORD	n/a	wordpools/wordpool_categorized_EN.txt	WILLOW	Trees	4	12	[0, 0, 0]	n/a	catFR1	0	R1313J
1314.122	1.043	1316162	WORD_OFF	n/a	n/a	WILLOW	Trees	4	12	[0, 0, 0]	n/a	catFR1	0	R1313J
1315.165	1.609	1317205	WORD	n/a	wordpools/wordpool_categorized_EN.txt	THUNDER	Weather	5	12	[0, 0, 0]	n/a	catFR1	0	R1313J
1316.774	0.893	1318814	WORD_OFF	n/a	n/a	THUNDER	Weather	5	12	[0, 0, 0]	n/a	catFR1	0	R1313J
1317.667	1.623	1319707	WORD	n/a	wordpools/wordpool_categorized_EN.txt	HURRICANE	Weather	6	12	[0, 0, 0]	n/a	catFR1	0	R1313J
1319.29	1.142	1321329	WORD_OFF	n/a	n/a	HURRICANE	Weather	6	12	[0, 0, 0]	n/a	catFR1	0	R1313J
1320.432	1.625	1322471	WORD	n/a	wordpools/wordpool_categorized_EN.txt	WALNUT	Trees	7	12	[0, 0, 0]	n/a	catFR1	0	R1313J
1322.057	0.993	1324096	WORD_OFF	n/a	n/a	WALNUT	Trees	7	12	[0, 0, 0]	n/a	catFR1	0	R1313J
1323.05	1.625	1325089	WORD	n/a	wordpools/wordpool_categorized_EN.txt	CYPRESS	Trees	8	12	[0, 0, 0]	n/a	catFR1	0	R1313J
1324.675	0.925	1326714	WORD_OFF	n/a	n/a	CYPRESS	Trees	8	12	[0, 0, 0]	n/a	catFR1	0	R1313J
1325.6	1.625	1327639	WORD	n/a	wordpools/wordpool_categorized_EN.txt	RECLINER	Furniture	9	12	[0, 0, 0]	n/a	catFR1	0	R1313J
1327.225	0.828	1329264	WORD_OFF	n/a	n/a	RECLINER	Furniture	9	12	[0, 0, 0]	n/a	catFR1	0	R1313J
1328.053	1.64	1330092	WORD	n/a	wordpools/wordpool_categorized_EN.txt	BOOKCASE	Furniture	10	12	[0, 0, 0]	n/a	catFR1	0	R1313J
1329.693	1.047	1331732	WORD_OFF	n/a	n/a	BOOKCASE	Furniture	10	12	[0, 0, 0]	n/a	catFR1	0	R1313J
1330.74	1.635	1332779	WORD	n/a	wordpools/wordpool_categorized_EN.txt	DRIZZLE	Weather	11	12	[0, 0, 0]	n/a	catFR1	0	R1313J
1332.375	1.114	1334414	WORD_OFF	n/a	n/a	DRIZZLE	Weather	11	12	[0, 0, 0]	n/a	catFR1	0	R1313J
1333.489	1.62	1335528	WORD	n/a	wordpools/wordpool_categorized_EN.txt	CLOUD	Weather	12	12	[0, 0, 0]	n/a	catFR1	0	R1313J
1335.109	0.001	1337148	WORD_OFF	n/a	n/a	CLOUD	Weather	12	12	[0, 0, 0]	n/a	catFR1	0	R1313J
1335.11	0.0	1337149	ENCODING_END	n/a	n/a	n/a	n/a	-999	12	[0, 0, 0]	n/a	catFR1	0	R1313J
1335.11	0.001	1337149	DISTRACT_START	n/a	n/a	n/a	n/a	-999	12	[0, 0, 0]	n/a	catFR1	0	R1313J
1335.111	0.015	1337150	START	n/a	n/a	n/a	n/a	-999	12	[-999, -999, -999]	n/a	catFR1	0	R1313J
1335.126	4.451	1337165	PROB	4.451	n/a	n/a	n/a	-999	12	[3, 6, 2]	11	catFR1	0	R1313J
1339.577	3.051	1341616	PROB	3.051	n/a	n/a	n/a	-999	12	[9, 9, 3]	21	catFR1	0	R1313J
1342.628	4.334	1344666	PROB	4.334	n/a	n/a	n/a	-999	12	[7, 9, 2]	18	catFR1	0	R1313J
1346.962	3.717	1349000	PROB	3.717	n/a	n/a	n/a	-999	12	[9, 1, 5]	15	catFR1	0	R1313J
1350.679	2.934	1352717	PROB	2.934	n/a	n/a	n/a	-999	12	[2, 3, 1]	6	catFR1	0	R1313J
1353.613	3.838	1355651	PROB	3.838	n/a	n/a	n/a	-999	12	[7, 8, 3]	18	catFR1	0	R1313J
1357.451	0.013	1359489	STOP	n/a	n/a	n/a	n/a	-999	12	[-999, -999, -999]	n/a	catFR1	0	R1313J
1357.464	0.693	1359502	DISTRACT_END	n/a	n/a	n/a	n/a	-999	12	[0, 0, 0]	n/a	catFR1	0	R1313J
1358.157	1.641	1360195	RETRIEVAL_ORIENT_START	n/a	n/a	n/a	n/a	-999	12	[0, 0, 0]	n/a	catFR1	0	R1313J
1359.798	0.0	1361836	RETRIEVAL_ORIENT_END	n/a	n/a	n/a	n/a	-999	12	[0, 0, 0]	n/a	catFR1	0	R1313J
1359.798	0.605	1361836	REC_START	n/a	n/a	n/a	n/a	-999	12	[0, 0, 0]	n/a	catFR1	0	R1313J
1360.403	29.409	1362441	REC_WORD	29.409	n/a	THUNDER	Weather	5	12	[0, 0, 0]	n/a	catFR1	0	R1313J
1389.812	0.0	1391849	REC_END	n/a	n/a	n/a	n/a	-999	12	[0, 0, 0]	n/a	catFR1	0	R1313J
1389.812	0.023	1391849	TRIAL_END	n/a	n/a	n/a	n/a	-999	12	[0, 0, 0]	n/a	catFR1	0	R1313J
1389.835	0.0	1391872	TRIAL_START	n/a	n/a	n/a	n/a	-999	13	[0, 0, 0]	n/a	catFR1	0	R1313J
1389.835	0.0	1391872	TRIAL	n/a	n/a	n/a	n/a	-999	13	[0, 0, 0]	n/a	catFR1	0	R1313J
1389.835	2.101	1391872	WAITING_START	n/a	n/a	n/a	n/a	-999	13	[0, 0, 0]	n/a	catFR1	0	R1313J
1391.936	0.0	1393972	WAITING_END	n/a	n/a	n/a	n/a	-999	13	[0, 0, 0]	n/a	catFR1	0	R1313J
1391.936	10.43	1393972	COUNTDOWN_START	n/a	n/a	n/a	n/a	-999	13	[0, 0, 0]	n/a	catFR1	0	R1313J
1402.366	0.0	1404402	COUNTDOWN_END	n/a	n/a	n/a	n/a	-999	13	[0, 0, 0]	n/a	catFR1	0	R1313J
1402.366	1.172	1404402	ORIENT_START	n/a	n/a	n/a	n/a	-999	13	[0, 0, 0]	n/a	catFR1	0	R1313J
1403.538	0.001	1405574	ORIENT_END	n/a	n/a	n/a	n/a	-999	13	[0, 0, 0]	n/a	catFR1	0	R1313J
1403.539	0.807	1405575	ENCODING_START	n/a	n/a	n/a	n/a	-999	13	[0, 0, 0]	n/a	catFR1	0	R1313J
1404.346	1.626	1406382	WORD	n/a	wordpools/wordpool_categorized_EN.txt	SHOES	Clothing	1	13	[0, 0, 0]	n/a	catFR1	0	R1313J
1405.972	0.962	1408008	WORD_OFF	n/a	n/a	SHOES	Clothing	1	13	[0, 0, 0]	n/a	catFR1	0	R1313J
1406.934	1.622	1408970	WORD	n/a	wordpools/wordpool_categorized_EN.txt	DRESS	Clothing	2	13	[0, 0, 0]	n/a	catFR1	0	R1313J
1408.556	0.8	1410592	WORD_OFF	n/a	n/a	DRESS	Clothing	2	13	[0, 0, 0]	n/a	catFR1	0	R1313J
1409.356	1.633	1411392	WORD	n/a	wordpools/wordpool_categorized_EN.txt	COUCH	Furniture	3	13	[0, 0, 0]	n/a	catFR1	0	R1313J
1410.989	0.794	1413025	WORD_OFF	n/a	n/a	COUCH	Furniture	3	13	[0, 0, 0]	n/a	catFR1	0	R1313J
1411.783	1.623	1413819	WORD	n/a	wordpools/wordpool_categorized_EN.txt	BED	Furniture	4	13	[0, 0, 0]	n/a	catFR1	0	R1313J
1413.406	0.953	1415442	WORD_OFF	n/a	n/a	BED	Furniture	4	13	[0, 0, 0]	n/a	catFR1	0	R1313J
1414.359	1.615	1416395	WORD	n/a	wordpools/wordpool_categorized_EN.txt	TIGER	Zoo	5	13	[0, 0, 0]	n/a	catFR1	0	R1313J
1415.974	0.752	1418009	WORD_OFF	n/a	n/a	TIGER	Zoo	5	13	[0, 0, 0]	n/a	catFR1	0	R1313J
1416.726	1.631	1418761	WORD	n/a	wordpools/wordpool_categorized_EN.txt	GIRAFFE	Zoo	6	13	[0, 0, 0]	n/a	catFR1	0	R1313J
1418.357	0.809	1420392	WORD_OFF	n/a	n/a	GIRAFFE	Zoo	6	13	[0, 0, 0]	n/a	catFR1	0	R1313J
1419.166	1.608	1421201	WORD	n/a	wordpools/wordpool_categorized_EN.txt	BLOUSE	Clothing	7	13	[0, 0, 0]	n/a	catFR1	0	R1313J
1420.774	1.02	1422809	WORD_OFF	n/a	n/a	BLOUSE	Clothing	7	13	[0, 0, 0]	n/a	catFR1	0	R1313J
1421.794	1.63	1423829	WORD	n/a	wordpools/wordpool_categorized_EN.txt	SHORTS	Clothing	8	13	[0, 0, 0]	n/a	catFR1	0	R1313J
1423.424	0.887	1425459	WORD_OFF	n/a	n/a	SHORTS	Clothing	8	13	[0, 0, 0]	n/a	catFR1	0	R1313J
1424.311	1.614	1426346	WORD	n/a	wordpools/wordpool_categorized_EN.txt	ELEPHANT	Zoo	9	13	[0, 0, 0]	n/a	catFR1	0	R1313J
1425.925	0.9	1427960	WORD_OFF	n/a	n/a	ELEPHANT	Zoo	9	13	[0, 0, 0]	n/a	catFR1	0	R1313J
1426.825	1.634	1428860	WORD	n/a	wordpools/wordpool_categorized_EN.txt	CHIMPANZEE	Zoo	10	13	[0, 0, 0]	n/a	catFR1	0	R1313J
1428.459	1.087	1430494	WORD_OFF	n/a	n/a	CHIMPANZEE	Zoo	10	13	[0, 0, 0]	n/a	catFR1	0	R1313J
1429.546	1.629	1431581	WORD	n/a	wordpools/wordpool_categorized_EN.txt	DESK	Furniture	11	13	[0, 0, 0]	n/a	catFR1	0	R1313J
1431.175	1.131	1433210	WORD_OFF	n/a	n/a	DESK	Furniture	11	13	[0, 0, 0]	n/a	catFR1	0	R1313J
1432.306	1.621	1434341	WORD	n/a	wordpools/wordpool_categorized_EN.txt	SHELF	Furniture	12	13	[0, 0, 0]	n/a	catFR1	0	R1313J
1433.927	0.0	1435962	WORD_OFF	n/a	n/a	SHELF	Furniture	12	13	[0, 0, 0]	n/a	catFR1	0	R1313J
1433.927	0.001	1435962	ENCODING_END	n/a	n/a	n/a	n/a	-999	13	[0, 0, 0]	n/a	catFR1	0	R1313J
1433.928	0.0	1435963	DISTRACT_START	n/a	n/a	n/a	n/a	-999	13	[0, 0, 0]	n/a	catFR1	0	R1313J
1433.928	0.015	1435963	START	n/a	n/a	n/a	n/a	-999	13	[-999, -999, -999]	n/a	catFR1	0	R1313J
1433.943	5.751	1435978	PROB	5.751	n/a	n/a	n/a	-999	13	[6, 6, 6]	18	catFR1	0	R1313J
1439.694	2.851	1441729	PROB	2.851	n/a	n/a	n/a	-999	13	[2, 9, 2]	13	catFR1	0	R1313J
1442.545	4.117	1444579	PROB	4.117	n/a	n/a	n/a	-999	13	[5, 7, 5]	17	catFR1	0	R1313J
1446.662	3.75	1448696	PROB	3.75	n/a	n/a	n/a	-999	13	[6, 7, 7]	20	catFR1	0	R1313J
1450.412	5.935	1452446	PROB	5.935	n/a	n/a	n/a	-999	13	[9, 8, 7]	24	catFR1	0	R1313J
1456.347	0.016	1458381	STOP	n/a	n/a	n/a	n/a	-999	13	[-999, -999, -999]	n/a	catFR1	0	R1313J
1456.363	0.661	1458397	DISTRACT_END	n/a	n/a	n/a	n/a	-999	13	[0, 0, 0]	n/a	catFR1	0	R1313J
1457.024	1.574	1459058	RETRIEVAL_ORIENT_START	n/a	n/a	n/a	n/a	-999	13	[0, 0, 0]	n/a	catFR1	0	R1313J
1458.598	0.0	1460632	RETRIEVAL_ORIENT_END	n/a	n/a	n/a	n/a	-999	13	[0, 0, 0]	n/a	catFR1	0	R1313J
1458.598	0.58	1460632	REC_START	n/a	n/a	n/a	n/a	-999	13	[0, 0, 0]	n/a	catFR1	0	R1313J
1459.178	1.0	1461212	REC_WORD	1.0	n/a	CHIMPANZEE	Zoo	10	13	[0, 0, 0]	n/a	catFR1	0	R1313J
1460.178	4.5	1462212	REC_WORD_VV	4.5	n/a	<>	n/a	-999	13	[0, 0, 0]	n/a	catFR1	0	R1313J
1464.678	14.66	1466711	REC_WORD_VV	14.66	n/a	<>	n/a	-999	13	[0, 0, 0]	n/a	catFR1	0	R1313J
1479.338	0.36	1481371	REC_WORD_VV	0.36	n/a	<>	n/a	-999	13	[0, 0, 0]	n/a	catFR1	0	R1313J
1479.698	8.913	1481731	REC_WORD	8.913	n/a	LION	Zoo	-999	13	[0, 0, 0]	n/a	catFR1	0	R1313J
1488.611	0.0	1490644	TRIAL_END	n/a	n/a	n/a	n/a	-999	13	[0, 0, 0]	n/a	catFR1	0	R1313J
1488.611	0.02	1490644	REC_END	n/a	n/a	n/a	n/a	-999	13	[0, 0, 0]	n/a	catFR1	0	R1313J
1488.631	0.001	1490664	TRIAL_START	n/a	n/a	n/a	n/a	-999	14	[0, 0, 0]	n/a	catFR1	0	R1313J
1488.632	0.0	1490665	TRIAL	n/a	n/a	n/a	n/a	-999	14	[0, 0, 0]	n/a	catFR1	0	R1313J
1488.632	2.121	1490665	WAITING_START	n/a	n/a	n/a	n/a	-999	14	[0, 0, 0]	n/a	catFR1	0	R1313J
1490.753	0.001	1492785	WAITING_END	n/a	n/a	n/a	n/a	-999	14	[0, 0, 0]	n/a	catFR1	0	R1313J
1490.754	10.428	1492786	COUNTDOWN_START	n/a	n/a	n/a	n/a	-999	14	[0, 0, 0]	n/a	catFR1	0	R1313J
1501.182	0.0	1503214	COUNTDOWN_END	n/a	n/a	n/a	n/a	-999	14	[0, 0, 0]	n/a	catFR1	0	R1313J
1501.182	1.022	1503214	ORIENT_START	n/a	n/a	n/a	n/a	-999	14	[0, 0, 0]	n/a	catFR1	0	R1313J
1502.204	0.001	1504236	ORIENT_END	n/a	n/a	n/a	n/a	-999	14	[0, 0, 0]	n/a	catFR1	0	R1313J
1502.205	0.955	1504237	ENCODING_START	n/a	n/a	n/a	n/a	-999	14	[0, 0, 0]	n/a	catFR1	0	R1313J
1503.16	1.629	1505192	WORD	n/a	wordpools/wordpool_categorized_EN.txt	CUPCAKE	Desserts	1	14	[0, 0, 0]	n/a	catFR1	0	R1313J
1504.789	1.12	1506821	WORD_OFF	n/a	n/a	CUPCAKE	Desserts	1	14	[0, 0, 0]	n/a	catFR1	0	R1313J
1505.909	1.63	1507941	WORD	n/a	wordpools/wordpool_categorized_EN.txt	JELLO	Desserts	2	14	[0, 0, 0]	n/a	catFR1	0	R1313J
1507.539	1.076	1509571	WORD_OFF	n/a	n/a	JELLO	Desserts	2	14	[0, 0, 0]	n/a	catFR1	0	R1313J
1508.615	1.624	1510647	WORD	n/a	wordpools/wordpool_categorized_EN.txt	FLY	Insects	3	14	[0, 0, 0]	n/a	catFR1	0	R1313J
1510.239	0.872	1512271	WORD_OFF	n/a	n/a	FLY	Insects	3	14	[0, 0, 0]	n/a	catFR1	0	R1313J
1511.111	1.612	1513143	WORD	n/a	wordpools/wordpool_categorized_EN.txt	SPIDER	Insects	4	14	[0, 0, 0]	n/a	catFR1	0	R1313J
1512.723	0.974	1514755	WORD_OFF	n/a	n/a	SPIDER	Insects	4	14	[0, 0, 0]	n/a	catFR1	0	R1313J
1513.697	1.626	1515728	WORD	n/a	wordpools/wordpool_categorized_EN.txt	FISH	OceanAnimals	5	14	[0, 0, 0]	n/a	catFR1	0	R1313J
1515.323	1.134	1517354	WORD_OFF	n/a	n/a	FISH	OceanAnimals	5	14	[0, 0, 0]	n/a	catFR1	0	R1313J
1516.457	1.633	1518488	WORD	n/a	wordpools/wordpool_categorized_EN.txt	TURTLE	OceanAnimals	6	14	[0, 0, 0]	n/a	catFR1	0	R1313J
1518.09	1.09	1520121	WORD_OFF	n/a	n/a	TURTLE	OceanAnimals	6	14	[0, 0, 0]	n/a	catFR1	0	R1313J
1519.18	1.612	1521211	WORD	n/a	wordpools/wordpool_categorized_EN.txt	COOKIE	Desserts	7	14	[0, 0, 0]	n/a	catFR1	0	R1313J
1520.792	1.01	1522823	WORD_OFF	n/a	n/a	COOKIE	Desserts	7	14	[0, 0, 0]	n/a	catFR1	0	R1313J
1521.802	1.622	1523833	WORD	n/a	wordpools/wordpool_categorized_EN.txt	FUDGE	Desserts	8	14	[0, 0, 0]	n/a	catFR1	0	R1313J
1523.424	0.832	1525455	WORD_OFF	n/a	n/a	FUDGE	Desserts	8	14	[0, 0, 0]	n/a	catFR1	0	R1313J
1524.256	1.62	1526287	WORD	n/a	wordpools/wordpool_categorized_EN.txt	DOLPHIN	OceanAnimals	9	14	[0, 0, 0]	n/a	catFR1	0	R1313J
1525.876	0.906	1527907	WORD_OFF	n/a	n/a	DOLPHIN	OceanAnimals	9	14	[0, 0, 0]	n/a	catFR1	0	R1313J
1526.782	1.627	1528813	WORD	n/a	wordpools/wordpool_categorized_EN.txt	SHRIMP	OceanAnimals	10	14	[0, 0, 0]	n/a	catFR1	0	R1313J
1528.409	1.119	1530440	WORD_OFF	n/a	n/a	SHRIMP	OceanAnimals	10	14	[0, 0, 0]	n/a	catFR1	0	R1313J
1529.528	1.631	1531559	WORD	n/a	wordpools/wordpool_categorized_EN.txt	BUTTERFLY	Insects	11	14	[0, 0, 0]	n/a	catFR1	0	R1313J
1531.159	0.933	1533190	WORD_OFF	n/a	n/a	BUTTERFLY	Insects	11	14	[0, 0, 0]	n/a	catFR1	0	R1313J
1532.092	1.635	1534123	WORD	n/a	wordpools/wordpool_categorized_EN.txt	ROACH	Insects	12	14	[0, 0, 0]	n/a	catFR1	0	R1313J
1533.727	0.001	1535758	WORD_OFF	n/a	n/a	ROACH	Insects	12	14	[0, 0, 0]	n/a	catFR1	0	R1313J
1533.728	0.0	1535759	ENCODING_END	n/a	n/a	n/a	n/a	-999	14	[0, 0, 0]	n/a	catFR1	0	R1313J
1533.728	0.0	1535759	DISTRACT_START	n/a	n/a	n/a	n/a	-999	14	[0, 0, 0]	n/a	catFR1	0	R1313J
1533.728	0.016	1535759	START	n/a	n/a	n/a	n/a	-999	14	[-999, -999, -999]	n/a	catFR1	0	R1313J
1533.744	7.751	1535775	PROB	7.751	n/a	n/a	n/a	-999	14	[4, 5, 9]	18	catFR1	0	R1313J
1541.495	12.152	1543525	PROB	12.152	n/a	n/a	n/a	-999	14	[7, 5, 8]	20	catFR1	0	R1313J
1553.647	3.341	1555677	PROB	3.341	n/a	n/a	n/a	-999	14	[3, 9, 1]	13	catFR1	0	R1313J
1556.988	0.009	1559018	STOP	n/a	n/a	n/a	n/a	-999	14	[-999, -999, -999]	n/a	catFR1	0	R1313J
1556.997	0.58	1559027	DISTRACT_END	n/a	n/a	n/a	n/a	-999	14	[0, 0, 0]	n/a	catFR1	0	R1313J
1557.577	1.653	1559607	RETRIEVAL_ORIENT_START	n/a	n/a	n/a	n/a	-999	14	[0, 0, 0]	n/a	catFR1	0	R1313J
1559.23	0.001	1561260	RETRIEVAL_ORIENT_END	n/a	n/a	n/a	n/a	-999	14	[0, 0, 0]	n/a	catFR1	0	R1313J
1559.231	0.995	1561261	REC_START	n/a	n/a	n/a	n/a	-999	14	[0, 0, 0]	n/a	catFR1	0	R1313J
1560.226	5.0	1562256	REC_WORD_VV	5.0	n/a	<>	n/a	-999	14	[0, 0, 0]	n/a	catFR1	0	R1313J
1565.226	14.615	1567255	REC_WORD_VV	14.615	n/a	<>	n/a	-999	14	[0, 0, 0]	n/a	catFR1	0	R1313J
1579.841	1.0	1581870	REC_WORD_VV	1.0	n/a	<>	n/a	-999	14	[0, 0, 0]	n/a	catFR1	0	R1313J
1580.841	1.0	1582870	REC_WORD_VV	1.0	n/a	<>	n/a	-999	14	[0, 0, 0]	n/a	catFR1	0	R1313J
1581.841	7.402	1583870	REC_WORD_VV	7.402	n/a	<>	n/a	-999	14	[0, 0, 0]	n/a	catFR1	0	R1313J
1589.243	0.0	1591271	TRIAL_END	n/a	n/a	n/a	n/a	-999	14	[0, 0, 0]	n/a	catFR1	0	R1313J
1589.243	0.022	1591271	REC_END	n/a	n/a	n/a	n/a	-999	14	[0, 0, 0]	n/a	catFR1	0	R1313J
1589.265	0.0	1591293	TRIAL_START	n/a	n/a	n/a	n/a	-999	15	[0, 0, 0]	n/a	catFR1	0	R1313J
1589.265	0.001	1591293	TRIAL	n/a	n/a	n/a	n/a	-999	15	[0, 0, 0]	n/a	catFR1	0	R1313J
1589.266	15.856	1591294	WAITING_START	n/a	n/a	n/a	n/a	-999	15	[0, 0, 0]	n/a	catFR1	0	R1313J
1605.122	0.0	1607150	WAITING_END	n/a	n/a	n/a	n/a	-999	15	[0, 0, 0]	n/a	catFR1	0	R1313J
1605.122	10.428	1607150	COUNTDOWN_START	n/a	n/a	n/a	n/a	-999	15	[0, 0, 0]	n/a	catFR1	0	R1313J
1615.55	0.001	1617577	COUNTDOWN_END	n/a	n/a	n/a	n/a	-999	15	[0, 0, 0]	n/a	catFR1	0	R1313J
1615.551	1.207	1617578	ORIENT_START	n/a	n/a	n/a	n/a	-999	15	[0, 0, 0]	n/a	catFR1	0	R1313J
1616.758	0.0	1618785	ENCODING_START	n/a	n/a	n/a	n/a	-999	15	[0, 0, 0]	n/a	catFR1	0	R1313J
1616.758	1.116	1618785	ORIENT_END	n/a	n/a	n/a	n/a	-999	15	[0, 0, 0]	n/a	catFR1	0	R1313J
1617.874	1.634	1619901	WORD	n/a	wordpools/wordpool_categorized_EN.txt	REFRIGERATOR	Appliances	1	15	[0, 0, 0]	n/a	catFR1	0	R1313J
1619.508	1.035	1621535	WORD_OFF	n/a	n/a	REFRIGERATOR	Appliances	1	15	[0, 0, 0]	n/a	catFR1	0	R1313J
1620.543	1.631	1622570	WORD	n/a	wordpools/wordpool_categorized_EN.txt	BLENDER	Appliances	2	15	[0, 0, 0]	n/a	catFR1	0	R1313J
1622.174	1.019	1624201	WORD_OFF	n/a	n/a	BLENDER	Appliances	2	15	[0, 0, 0]	n/a	catFR1	0	R1313J
1623.193	1.633	1625220	WORD	n/a	wordpools/wordpool_categorized_EN.txt	ROOM	Building	3	15	[0, 0, 0]	n/a	catFR1	0	R1313J
1624.826	0.806	1626853	WORD_OFF	n/a	n/a	ROOM	Building	3	15	[0, 0, 0]	n/a	catFR1	0	R1313J
1625.632	1.627	1627659	WORD	n/a	wordpools/wordpool_categorized_EN.txt	WALL	Building	4	15	[0, 0, 0]	n/a	catFR1	0	R1313J
1627.259	0.868	1629286	WORD_OFF	n/a	n/a	WALL	Building	4	15	[0, 0, 0]	n/a	catFR1	0	R1313J
1628.127	1.633	1630154	WORD	n/a	wordpools/wordpool_categorized_EN.txt	WOODS	Landscapes	5	15	[0, 0, 0]	n/a	catFR1	0	R1313J
1629.76	0.781	1631787	WORD_OFF	n/a	n/a	WOODS	Landscapes	5	15	[0, 0, 0]	n/a	catFR1	0	R1313J
1630.541	1.635	1632568	WORD	n/a	wordpools/wordpool_categorized_EN.txt	FOREST	Landscapes	6	15	[0, 0, 0]	n/a	catFR1	0	R1313J
1632.176	0.926	1634203	WORD_OFF	n/a	n/a	FOREST	Landscapes	6	15	[0, 0, 0]	n/a	catFR1	0	R1313J
1633.102	1.609	1635129	WORD	n/a	wordpools/wordpool_categorized_EN.txt	FLOOR	Building	7	15	[0, 0, 0]	n/a	catFR1	0	R1313J
1634.711	0.972	1636738	WORD_OFF	n/a	n/a	FLOOR	Building	7	15	[0, 0, 0]	n/a	catFR1	0	R1313J
1635.683	1.627	1637709	WORD	n/a	wordpools/wordpool_categorized_EN.txt	WINDOW	Building	8	15	[0, 0, 0]	n/a	catFR1	0	R1313J
1637.31	1.062	1639336	WORD_OFF	n/a	n/a	WINDOW	Building	8	15	[0, 0, 0]	n/a	catFR1	0	R1313J
1638.372	1.639	1640398	WORD	n/a	wordpools/wordpool_categorized_EN.txt	DISHWASHER	Appliances	9	15	[0, 0, 0]	n/a	catFR1	0	R1313J
1640.011	0.932	1642037	WORD_OFF	n/a	n/a	DISHWASHER	Appliances	9	15	[0, 0, 0]	n/a	catFR1	0	R1313J
1640.943	1.636	1642969	WORD	n/a	wordpools/wordpool_categorized_EN.txt	IRON	Appliances	10	15	[0, 0, 0]	n/a	catFR1	0	R1313J
1642.579	0.778	1644605	WORD_OFF	n/a	n/a	IRON	Appliances	10	15	[0, 0, 0]	n/a	catFR1	0	R1313J
1643.357	1.605	1645383	WORD	n/a	wordpools/wordpool_categorized_EN.txt	HILLS	Landscapes	11	15	[0, 0, 0]	n/a	catFR1	0	R1313J
1644.962	0.875	1646988	WORD_OFF	n/a	n/a	HILLS	Landscapes	11	15	[0, 0, 0]	n/a	catFR1	0	R1313J
1645.837	1.626	1647863	WORD	n/a	wordpools/wordpool_categorized_EN.txt	CREEK	Landscapes	12	15	[0, 0, 0]	n/a	catFR1	0	R1313J
1647.463	0.001	1649489	WORD_OFF	n/a	n/a	CREEK	Landscapes	12	15	[0, 0, 0]	n/a	catFR1	0	R1313J
1647.464	0.0	1649490	ENCODING_END	n/a	n/a	n/a	n/a	-999	15	[0, 0, 0]	n/a	catFR1	0	R1313J
1647.464	0.0	1649490	DISTRACT_START	n/a	n/a	n/a	n/a	-999	15	[0, 0, 0]	n/a	catFR1	0	R1313J
1647.464	0.016	1649490	START	n/a	n/a	n/a	n/a	-999	15	[-999, -999, -999]	n/a	catFR1	0	R1313J
1647.48	2.916	1649506	PROB	2.916	n/a	n/a	n/a	-999	15	[1, 7, 1]	9	catFR1	0	R1313J
1650.396	7.419	1652422	PROB	7.419	n/a	n/a	n/a	-999	15	[8, 7, 6]	21	catFR1	0	R1313J
1657.815	4.0	1659841	PROB	4.0	n/a	n/a	n/a	-999	15	[9, 2, 3]	14	catFR1	0	R1313J
1661.815	5.35	1663840	PROB	5.35	n/a	n/a	n/a	-999	15	[1, 9, 7]	17	catFR1	0	R1313J
1667.165	5.318	1669190	PROB	5.318	n/a	n/a	n/a	-999	15	[6, 5, 9]	20	catFR1	0	R1313J
1672.483	0.018	1674508	STOP	n/a	n/a	n/a	n/a	-999	15	[-999, -999, -999]	n/a	catFR1	0	R1313J
1672.501	0.624	1674526	DISTRACT_END	n/a	n/a	n/a	n/a	-999	15	[0, 0, 0]	n/a	catFR1	0	R1313J
1673.125	1.693	1675150	RETRIEVAL_ORIENT_START	n/a	n/a	n/a	n/a	-999	15	[0, 0, 0]	n/a	catFR1	0	R1313J
1674.818	0.0	1676843	RETRIEVAL_ORIENT_END	n/a	n/a	n/a	n/a	-999	15	[0, 0, 0]	n/a	catFR1	0	R1313J
1674.818	0.0	1676843	REC_START	n/a	n/a	n/a	n/a	-999	15	[0, 0, 0]	n/a	catFR1	0	R1313J
1674.818	0.574	1676843	REC_WORD	0.574	n/a	FOREST	Landscapes	6	15	[0, 0, 0]	n/a	catFR1	0	R1313J
1675.392	1.23	1677417	REC_WORD	1.23	n/a	FLOOR	Building	7	15	[0, 0, 0]	n/a	catFR1	0	R1313J
1676.622	0.81	1678647	REC_WORD	0.81	n/a	WINDOW	Building	8	15	[0, 0, 0]	n/a	catFR1	0	R1313J
1677.432	3.695	1679457	REC_WORD	3.695	n/a	DISHWASHER	Appliances	9	15	[0, 0, 0]	n/a	catFR1	0	R1313J
1681.127	23.703	1683152	REC_WORD_VV	23.703	n/a	<>	n/a	-999	15	[0, 0, 0]	n/a	catFR1	0	R1313J
1704.83	0.0	1706854	TRIAL_END	n/a	n/a	n/a	n/a	-999	15	[0, 0, 0]	n/a	catFR1	0	R1313J
1704.83	0.02	1706854	REC_END	n/a	n/a	n/a	n/a	-999	15	[0, 0, 0]	n/a	catFR1	0	R1313J
1704.85	0.0	1706874	TRIAL_START	n/a	n/a	n/a	n/a	-999	16	[0, 0, 0]	n/a	catFR1	0	R1313J
1704.85	0.0	1706874	TRIAL	n/a	n/a	n/a	n/a	-999	16	[0, 0, 0]	n/a	catFR1	0	R1313J
1704.85	2.073	1706874	WAITING_START	n/a	n/a	n/a	n/a	-999	16	[0, 0, 0]	n/a	catFR1	0	R1313J
1706.923	0.001	1708947	WAITING_END	n/a	n/a	n/a	n/a	-999	16	[0, 0, 0]	n/a	catFR1	0	R1313J
1706.924	10.429	1708948	COUNTDOWN_START	n/a	n/a	n/a	n/a	-999	16	[0, 0, 0]	n/a	catFR1	0	R1313J
1717.353	0.0	1719376	COUNTDOWN_END	n/a	n/a	n/a	n/a	-999	16	[0, 0, 0]	n/a	catFR1	0	R1313J
1717.353	1.071	1719376	ORIENT_START	n/a	n/a	n/a	n/a	-999	16	[0, 0, 0]	n/a	catFR1	0	R1313J
1718.424	0.001	1720447	ORIENT_END	n/a	n/a	n/a	n/a	-999	16	[0, 0, 0]	n/a	catFR1	0	R1313J
1718.425	1.103	1720448	ENCODING_START	n/a	n/a	n/a	n/a	-999	16	[0, 0, 0]	n/a	catFR1	0	R1313J
1719.528	1.63	1721551	WORD	n/a	wordpools/wordpool_categorized_EN.txt	MOTH	Insects	1	16	[0, 0, 0]	n/a	catFR1	0	R1313J
1721.158	1.037	1723181	WORD_OFF	n/a	n/a	MOTH	Insects	1	16	[0, 0, 0]	n/a	catFR1	0	R1313J
1722.195	1.631	1724218	WORD	n/a	wordpools/wordpool_categorized_EN.txt	CRICKET	Insects	2	16	[0, 0, 0]	n/a	catFR1	0	R1313J
1723.826	1.136	1725849	WORD_OFF	n/a	n/a	CRICKET	Insects	2	16	[0, 0, 0]	n/a	catFR1	0	R1313J
1724.962	1.631	1726985	WORD	n/a	wordpools/wordpool_categorized_EN.txt	STAPLER	OfficeSupplies	3	16	[0, 0, 0]	n/a	catFR1	0	R1313J
1726.593	0.792	1728616	WORD_OFF	n/a	n/a	STAPLER	OfficeSupplies	3	16	[0, 0, 0]	n/a	catFR1	0	R1313J
1727.385	1.624	1729408	WORD	n/a	wordpools/wordpool_categorized_EN.txt	NOTEBOOK	OfficeSupplies	4	16	[0, 0, 0]	n/a	catFR1	0	R1313J
1729.009	1.13	1731032	WORD_OFF	n/a	n/a	NOTEBOOK	OfficeSupplies	4	16	[0, 0, 0]	n/a	catFR1	0	R1313J
1730.139	1.605	1732162	WORD	n/a	wordpools/wordpool_categorized_EN.txt	BEAR	Zoo	5	16	[0, 0, 0]	n/a	catFR1	0	R1313J
1731.744	0.963	1733767	WORD_OFF	n/a	n/a	BEAR	Zoo	5	16	[0, 0, 0]	n/a	catFR1	0	R1313J
1732.707	1.636	1734730	WORD	n/a	wordpools/wordpool_categorized_EN.txt	GORILLA	Zoo	6	16	[0, 0, 0]	n/a	catFR1	0	R1313J
1734.343	0.791	1736365	WORD_OFF	n/a	n/a	GORILLA	Zoo	6	16	[0, 0, 0]	n/a	catFR1	0	R1313J
1735.134	1.611	1737156	WORD	n/a	wordpools/wordpool_categorized_EN.txt	TAPE	OfficeSupplies	7	16	[0, 0, 0]	n/a	catFR1	0	R1313J
1736.745	1.03	1738767	WORD_OFF	n/a	n/a	TAPE	OfficeSupplies	7	16	[0, 0, 0]	n/a	catFR1	0	R1313J
1737.775	1.636	1739797	WORD	n/a	wordpools/wordpool_categorized_EN.txt	GLUE	OfficeSupplies	8	16	[0, 0, 0]	n/a	catFR1	0	R1313J
1739.411	0.943	1741433	WORD_OFF	n/a	n/a	GLUE	OfficeSupplies	8	16	[0, 0, 0]	n/a	catFR1	0	R1313J
1740.354	1.625	1742376	WORD	n/a	wordpools/wordpool_categorized_EN.txt	MOSQUITO	Insects	9	16	[0, 0, 0]	n/a	catFR1	0	R1313J
1741.979	1.091	1744001	WORD_OFF	n/a	n/a	MOSQUITO	Insects	9	16	[0, 0, 0]	n/a	catFR1	0	R1313J
1743.07	1.626	1745092	WORD	n/a	wordpools/wordpool_categorized_EN.txt	BEETLE	Insects	10	16	[0, 0, 0]	n/a	catFR1	0	R1313J
1744.696	1.128	1746718	WORD_OFF	n/a	n/a	BEETLE	Insects	10	16	[0, 0, 0]	n/a	catFR1	0	R1313J
1745.824	1.623	1747846	WORD	n/a	wordpools/wordpool_categorized_EN.txt	ZEBRA	Zoo	11	16	[0, 0, 0]	n/a	catFR1	0	R1313J
1747.447	0.839	1749469	WORD_OFF	n/a	n/a	ZEBRA	Zoo	11	16	[0, 0, 0]	n/a	catFR1	0	R1313J
1748.286	1.628	1750308	WORD	n/a	wordpools/wordpool_categorized_EN.txt	CHEETAH	Zoo	12	16	[0, 0, 0]	n/a	catFR1	0	R1313J
1749.914	0.0	1751936	WORD_OFF	n/a	n/a	CHEETAH	Zoo	12	16	[0, 0, 0]	n/a	catFR1	0	R1313J
1749.914	0.0	1751936	ENCODING_END	n/a	n/a	n/a	n/a	-999	16	[0, 0, 0]	n/a	catFR1	0	R1313J
1749.914	0.0	1751936	DISTRACT_START	n/a	n/a	n/a	n/a	-999	16	[0, 0, 0]	n/a	catFR1	0	R1313J
1749.914	0.016	1751936	START	n/a	n/a	n/a	n/a	-999	16	[-999, -999, -999]	n/a	catFR1	0	R1313J
1749.93	8.451	1751952	PROB	8.451	n/a	n/a	n/a	-999	16	[9, 8, 8]	25	catFR1	0	R1313J
1758.381	7.285	1760402	PROB	7.285	n/a	n/a	n/a	-999	16	[5, 7, 9]	21	catFR1	0	R1313J
1765.666	4.184	1767687	PROB	4.184	n/a	n/a	n/a	-999	16	[8, 8, 3]	19	catFR1	0	R1313J
1769.85	2.721	1771871	PROB	2.721	n/a	n/a	n/a	-999	16	[1, 2, 6]	9	catFR1	0	R1313J
1772.571	0.013	1774592	STOP	n/a	n/a	n/a	n/a	-999	16	[-999, -999, -999]	n/a	catFR1	0	R1313J
1772.584	0.514	1774605	DISTRACT_END	n/a	n/a	n/a	n/a	-999	16	[0, 0, 0]	n/a	catFR1	0	R1313J
1773.098	1.687	1775119	RETRIEVAL_ORIENT_START	n/a	n/a	n/a	n/a	-999	16	[0, 0, 0]	n/a	catFR1	0	R1313J
1774.785	0.0	1776806	RETRIEVAL_ORIENT_END	n/a	n/a	n/a	n/a	-999	16	[0, 0, 0]	n/a	catFR1	0	R1313J
1774.785	0.0	1776806	REC_START	n/a	n/a	n/a	n/a	-999	16	[0, 0, 0]	n/a	catFR1	0	R1313J
1774.785	1.18	1776806	REC_WORD_VV	1.18	n/a	<>	n/a	-999	16	[0, 0, 0]	n/a	catFR1	0	R1313J
1775.965	0.795	1777986	REC_WORD	0.795	n/a	GORILLA	Zoo	6	16	[0, 0, 0]	n/a	catFR1	0	R1313J
1776.76	0.965	1778781	REC_WORD	0.965	n/a	GLUE	OfficeSupplies	8	16	[0, 0, 0]	n/a	catFR1	0	R1313J
1777.725	0.81	1779746	REC_WORD	0.81	n/a	TAPE	OfficeSupplies	7	16	[0, 0, 0]	n/a	catFR1	0	R1313J
1778.535	4.075	1780556	REC_WORD	4.075	n/a	ZEBRA	Zoo	11	16	[0, 0, 0]	n/a	catFR1	0	R1313J
1782.61	22.188	1784630	REC_WORD	22.188	n/a	BEETLE	Insects	10	16	[0, 0, 0]	n/a	catFR1	0	R1313J
1804.798	0.0	1806818	TRIAL_END	n/a	n/a	n/a	n/a	-999	16	[0, 0, 0]	n/a	catFR1	0	R1313J
1804.798	0.022	1806818	REC_END	n/a	n/a	n/a	n/a	-999	16	[0, 0, 0]	n/a	catFR1	0	R1313J
1804.82	0.0	1806840	TRIAL_START	n/a	n/a	n/a	n/a	-999	17	[0, 0, 0]	n/a	catFR1	0	R1313J
1804.82	0.0	1806840	TRIAL	n/a	n/a	n/a	n/a	-999	17	[0, 0, 0]	n/a	catFR1	0	R1313J
1804.82	1.502	1806840	WAITING_START	n/a	n/a	n/a	n/a	-999	17	[0, 0, 0]	n/a	catFR1	0	R1313J
1806.322	0.001	1808341	WAITING_END	n/a	n/a	n/a	n/a	-999	17	[0, 0, 0]	n/a	catFR1	0	R1313J
1806.323	10.429	1808342	COUNTDOWN_START	n/a	n/a	n/a	n/a	-999	17	[0, 0, 0]	n/a	catFR1	0	R1313J
1816.752	0.0	1818771	COUNTDOWN_END	n/a	n/a	n/a	n/a	-999	17	[0, 0, 0]	n/a	catFR1	0	R1313J
1816.752	1.14	1818771	ORIENT_START	n/a	n/a	n/a	n/a	-999	17	[0, 0, 0]	n/a	catFR1	0	R1313J
1817.892	0.0	1819911	ENCODING_START	n/a	n/a	n/a	n/a	-999	17	[0, 0, 0]	n/a	catFR1	0	R1313J
1817.892	1.051	1819911	ORIENT_END	n/a	n/a	n/a	n/a	-999	17	[0, 0, 0]	n/a	catFR1	0	R1313J
1818.943	1.632	1820962	WORD	n/a	wordpools/wordpool_categorized_EN.txt	FOOT	BodyParts	1	17	[0, 0, 0]	n/a	catFR1	0	R1313J
1820.575	1.124	1822594	WORD_OFF	n/a	n/a	FOOT	BodyParts	1	17	[0, 0, 0]	n/a	catFR1	0	R1313J
1821.699	1.626	1823718	WORD	n/a	wordpools/wordpool_categorized_EN.txt	TOE	BodyParts	2	17	[0, 0, 0]	n/a	catFR1	0	R1313J
1823.325	0.981	1825344	WORD_OFF	n/a	n/a	TOE	BodyParts	2	17	[0, 0, 0]	n/a	catFR1	0	R1313J
1824.306	1.637	1826325	WORD	n/a	wordpools/wordpool_categorized_EN.txt	MOUSSE	Desserts	3	17	[0, 0, 0]	n/a	catFR1	0	R1313J
1825.943	0.757	1827962	WORD_OFF	n/a	n/a	MOUSSE	Desserts	3	17	[0, 0, 0]	n/a	catFR1	0	R1313J
1826.7	1.626	1828719	WORD	n/a	wordpools/wordpool_categorized_EN.txt	PUDDING	Desserts	4	17	[0, 0, 0]	n/a	catFR1	0	R1313J
1828.326	0.808	1830345	WORD_OFF	n/a	n/a	PUDDING	Desserts	4	17	[0, 0, 0]	n/a	catFR1	0	R1313J
1829.134	1.627	1831153	WORD	n/a	wordpools/wordpool_categorized_EN.txt	PEN	OfficeSupplies	5	17	[0, 0, 0]	n/a	catFR1	0	R1313J
1830.761	0.877	1832779	WORD_OFF	n/a	n/a	PEN	OfficeSupplies	5	17	[0, 0, 0]	n/a	catFR1	0	R1313J
1831.638	1.622	1833656	WORD	n/a	wordpools/wordpool_categorized_EN.txt	RULER	OfficeSupplies	6	17	[0, 0, 0]	n/a	catFR1	0	R1313J
1833.26	0.91	1835278	WORD_OFF	n/a	n/a	RULER	OfficeSupplies	6	17	[0, 0, 0]	n/a	catFR1	0	R1313J
1834.17	1.625	1836188	WORD	n/a	wordpools/wordpool_categorized_EN.txt	NOSE	BodyParts	7	17	[0, 0, 0]	n/a	catFR1	0	R1313J
1835.795	0.894	1837813	WORD_OFF	n/a	n/a	NOSE	BodyParts	7	17	[0, 0, 0]	n/a	catFR1	0	R1313J
1836.689	1.622	1838707	WORD	n/a	wordpools/wordpool_categorized_EN.txt	EYE	BodyParts	8	17	[0, 0, 0]	n/a	catFR1	0	R1313J
1838.311	1.129	1840329	WORD_OFF	n/a	n/a	EYE	BodyParts	8	17	[0, 0, 0]	n/a	catFR1	0	R1313J
1839.44	1.638	1841458	WORD	n/a	wordpools/wordpool_categorized_EN.txt	MARKER	OfficeSupplies	9	17	[0, 0, 0]	n/a	catFR1	0	R1313J
1841.078	1.038	1843096	WORD_OFF	n/a	n/a	MARKER	OfficeSupplies	9	17	[0, 0, 0]	n/a	catFR1	0	R1313J
1842.116	1.613	1844134	WORD	n/a	wordpools/wordpool_categorized_EN.txt	ERASER	OfficeSupplies	10	17	[0, 0, 0]	n/a	catFR1	0	R1313J
1843.729	0.777	1845747	WORD_OFF	n/a	n/a	ERASER	OfficeSupplies	10	17	[0, 0, 0]	n/a	catFR1	0	R1313J
1844.506	1.623	1846524	WORD	n/a	wordpools/wordpool_categorized_EN.txt	CAKE	Desserts	11	17	[0, 0, 0]	n/a	catFR1	0	R1313J
1846.129	0.967	1848147	WORD_OFF	n/a	n/a	CAKE	Desserts	11	17	[0, 0, 0]	n/a	catFR1	0	R1313J
1847.096	1.634	1849114	WORD	n/a	wordpools/wordpool_categorized_EN.txt	COBBLER	Desserts	12	17	[0, 0, 0]	n/a	catFR1	0	R1313J
1848.73	0.001	1850748	WORD_OFF	n/a	n/a	COBBLER	Desserts	12	17	[0, 0, 0]	n/a	catFR1	0	R1313J
1848.731	0.0	1850749	ENCODING_END	n/a	n/a	n/a	n/a	-999	17	[0, 0, 0]	n/a	catFR1	0	R1313J
1848.731	0.0	1850749	DISTRACT_START	n/a	n/a	n/a	n/a	-999	17	[0, 0, 0]	n/a	catFR1	0	R1313J
1848.731	0.016	1850749	START	n/a	n/a	n/a	n/a	-999	17	[-999, -999, -999]	n/a	catFR1	0	R1313J
1848.747	4.867	1850765	PROB	4.867	n/a	n/a	n/a	-999	17	[1, 5, 7]	13	catFR1	0	R1313J
1853.614	4.168	1855632	PROB	4.168	n/a	n/a	n/a	-999	17	[9, 7, 7]	23	catFR1	0	R1313J
1857.782	3.867	1859799	PROB	3.867	n/a	n/a	n/a	-999	17	[9, 4, 1]	14	catFR1	0	R1313J
1861.649	4.6	1863666	PROB	4.6	n/a	n/a	n/a	-999	17	[6, 8, 9]	23	catFR1	0	R1313J
1866.249	4.964	1868266	PROB	4.964	n/a	n/a	n/a	-999	17	[2, 7, 6]	15	catFR1	0	R1313J
1871.213	0.02	1873230	STOP	n/a	n/a	n/a	n/a	-999	17	[-999, -999, -999]	n/a	catFR1	0	R1313J
1871.233	0.577	1873250	DISTRACT_END	n/a	n/a	n/a	n/a	-999	17	[0, 0, 0]	n/a	catFR1	0	R1313J
1871.81	1.658	1873827	RETRIEVAL_ORIENT_START	n/a	n/a	n/a	n/a	-999	17	[0, 0, 0]	n/a	catFR1	0	R1313J
1873.468	0.0	1875485	RETRIEVAL_ORIENT_END	n/a	n/a	n/a	n/a	-999	17	[0, 0, 0]	n/a	catFR1	0	R1313J
1873.468	0.895	1875485	REC_START	n/a	n/a	n/a	n/a	-999	17	[0, 0, 0]	n/a	catFR1	0	R1313J
1874.363	4.165	1876380	REC_WORD	4.165	n/a	PEN	OfficeSupplies	5	17	[0, 0, 0]	n/a	catFR1	0	R1313J
1878.528	0.615	1880545	REC_WORD	0.615	n/a	FOOT	BodyParts	1	17	[0, 0, 0]	n/a	catFR1	0	R1313J
1879.143	1.245	1881160	REC_WORD	1.245	n/a	TOE	BodyParts	2	17	[0, 0, 0]	n/a	catFR1	0	R1313J
1880.388	0.554	1882404	REC_WORD	0.554	n/a	EYE	BodyParts	8	17	[0, 0, 0]	n/a	catFR1	0	R1313J
1880.942	22.539	1882958	REC_WORD	22.539	n/a	NOSE	BodyParts	7	17	[0, 0, 0]	n/a	catFR1	0	R1313J
1903.481	0.001	1905497	REC_END	n/a	n/a	n/a	n/a	-999	17	[0, 0, 0]	n/a	catFR1	0	R1313J
1903.482	0.019	1905498	TRIAL_END	n/a	n/a	n/a	n/a	-999	17	[0, 0, 0]	n/a	catFR1	0	R1313J
1903.501	0.001	1905517	TRIAL_START	n/a	n/a	n/a	n/a	-999	18	[0, 0, 0]	n/a	catFR1	0	R1313J
1903.502	0.0	1905518	TRIAL	n/a	n/a	n/a	n/a	-999	18	[0, 0, 0]	n/a	catFR1	0	R1313J
1903.502	1.171	1905518	WAITING_START	n/a	n/a	n/a	n/a	-999	18	[0, 0, 0]	n/a	catFR1	0	R1313J
1904.673	0.0	1906688	WAITING_END	n/a	n/a	n/a	n/a	-999	18	[0, 0, 0]	n/a	catFR1	0	R1313J
1904.673	10.43	1906688	COUNTDOWN_START	n/a	n/a	n/a	n/a	-999	18	[0, 0, 0]	n/a	catFR1	0	R1313J
1915.103	0.0	1917118	COUNTDOWN_END	n/a	n/a	n/a	n/a	-999	18	[0, 0, 0]	n/a	catFR1	0	R1313J
1915.103	1.071	1917118	ORIENT_START	n/a	n/a	n/a	n/a	-999	18	[0, 0, 0]	n/a	catFR1	0	R1313J
1916.174	0.001	1918189	ORIENT_END	n/a	n/a	n/a	n/a	-999	18	[0, 0, 0]	n/a	catFR1	0	R1313J
1916.175	0.797	1918190	ENCODING_START	n/a	n/a	n/a	n/a	-999	18	[0, 0, 0]	n/a	catFR1	0	R1313J
1916.972	1.637	1918987	WORD	n/a	wordpools/wordpool_categorized_EN.txt	BEER	Beverages	1	18	[0, 0, 0]	n/a	catFR1	0	R1313J
1918.609	0.826	1920624	WORD_OFF	n/a	n/a	BEER	Beverages	1	18	[0, 0, 0]	n/a	catFR1	0	R1313J
1919.435	1.623	1921450	WORD	n/a	wordpools/wordpool_categorized_EN.txt	WINE	Beverages	2	18	[0, 0, 0]	n/a	catFR1	0	R1313J
1921.058	0.972	1923073	WORD_OFF	n/a	n/a	WINE	Beverages	2	18	[0, 0, 0]	n/a	catFR1	0	R1313J
1922.03	1.63	1924045	WORD	n/a	wordpools/wordpool_categorized_EN.txt	PLIERS	Tools	3	18	[0, 0, 0]	n/a	catFR1	0	R1313J
1923.66	0.917	1925675	WORD_OFF	n/a	n/a	PLIERS	Tools	3	18	[0, 0, 0]	n/a	catFR1	0	R1313J
1924.577	1.632	1926592	WORD	n/a	wordpools/wordpool_categorized_EN.txt	CROWBAR	Tools	4	18	[0, 0, 0]	n/a	catFR1	0	R1313J
1926.209	1.113	1928224	WORD_OFF	n/a	n/a	CROWBAR	Tools	4	18	[0, 0, 0]	n/a	catFR1	0	R1313J
1927.322	1.639	1929337	WORD	n/a	wordpools/wordpool_categorized_EN.txt	BARBIE	Toys	5	18	[0, 0, 0]	n/a	catFR1	0	R1313J
1928.961	0.767	1930975	WORD_OFF	n/a	n/a	BARBIE	Toys	5	18	[0, 0, 0]	n/a	catFR1	0	R1313J
1929.728	1.632	1931742	WORD	n/a	wordpools/wordpool_categorized_EN.txt	PUZZLE	Toys	6	18	[0, 0, 0]	n/a	catFR1	0	R1313J
1931.36	0.972	1933374	WORD_OFF	n/a	n/a	PUZZLE	Toys	6	18	[0, 0, 0]	n/a	catFR1	0	R1313J
1932.332	1.629	1934346	WORD	n/a	wordpools/wordpool_categorized_EN.txt	HAMMER	Tools	7	18	[0, 0, 0]	n/a	catFR1	0	R1313J
1933.961	0.828	1935975	WORD_OFF	n/a	n/a	HAMMER	Tools	7	18	[0, 0, 0]	n/a	catFR1	0	R1313J
1934.789	1.622	1936803	WORD	n/a	wordpools/wordpool_categorized_EN.txt	AXE	Tools	8	18	[0, 0, 0]	n/a	catFR1	0	R1313J
1936.411	1.124	1938425	WORD_OFF	n/a	n/a	AXE	Tools	8	18	[0, 0, 0]	n/a	catFR1	0	R1313J
1937.535	1.626	1939549	WORD	n/a	wordpools/wordpool_categorized_EN.txt	BALL	Toys	9	18	[0, 0, 0]	n/a	catFR1	0	R1313J
1939.161	1.143	1941175	WORD_OFF	n/a	n/a	BALL	Toys	9	18	[0, 0, 0]	n/a	catFR1	0	R1313J
1940.304	1.609	1942318	WORD	n/a	wordpools/wordpool_categorized_EN.txt	BASEBALL	Toys	10	18	[0, 0, 0]	n/a	catFR1	0	R1313J
1941.913	1.112	1943927	WORD_OFF	n/a	n/a	BASEBALL	Toys	10	18	[0, 0, 0]	n/a	catFR1	0	R1313J
1943.025	1.638	1945039	WORD	n/a	wordpools/wordpool_categorized_EN.txt	SODA	Beverages	11	18	[0, 0, 0]	n/a	catFR1	0	R1313J
1944.663	0.903	1946677	WORD_OFF	n/a	n/a	SODA	Beverages	11	18	[0, 0, 0]	n/a	catFR1	0	R1313J
1945.566	1.63	1947580	WORD	n/a	wordpools/wordpool_categorized_EN.txt	RUM	Beverages	12	18	[0, 0, 0]	n/a	catFR1	0	R1313J
1947.196	0.0	1949210	WORD_OFF	n/a	n/a	RUM	Beverages	12	18	[0, 0, 0]	n/a	catFR1	0	R1313J
1947.196	0.001	1949210	ENCODING_END	n/a	n/a	n/a	n/a	-999	18	[0, 0, 0]	n/a	catFR1	0	R1313J
1947.197	0.0	1949211	DISTRACT_START	n/a	n/a	n/a	n/a	-999	18	[0, 0, 0]	n/a	catFR1	0	R1313J
1947.197	0.016	1949211	START	n/a	n/a	n/a	n/a	-999	18	[-999, -999, -999]	n/a	catFR1	0	R1313J
1947.213	5.435	1949227	PROB	5.435	n/a	n/a	n/a	-999	18	[1, 7, 1]	9	catFR1	0	R1313J
1952.648	2.666	1954661	PROB	2.666	n/a	n/a	n/a	-999	18	[4, 1, 2]	7	catFR1	0	R1313J
1955.314	3.451	1957327	PROB	3.451	n/a	n/a	n/a	-999	18	[9, 7, 3]	19	catFR1	0	R1313J
1958.765	10.067	1960778	PROB	10.067	n/a	n/a	n/a	-999	18	[7, 8, 3]	18	catFR1	0	R1313J
1968.832	0.019	1970845	STOP	n/a	n/a	n/a	n/a	-999	18	[-999, -999, -999]	n/a	catFR1	0	R1313J
1968.851	0.696	1970864	DISTRACT_END	n/a	n/a	n/a	n/a	-999	18	[0, 0, 0]	n/a	catFR1	0	R1313J
1969.547	1.603	1971560	RETRIEVAL_ORIENT_START	n/a	n/a	n/a	n/a	-999	18	[0, 0, 0]	n/a	catFR1	0	R1313J
1971.15	0.0	1973163	REC_WORD	0.0	n/a	EAR	BodyParts	-999	18	[0, 0, 0]	n/a	catFR1	0	R1313J
1971.15	0.0	1973163	RETRIEVAL_ORIENT_END	n/a	n/a	n/a	n/a	-999	18	[0, 0, 0]	n/a	catFR1	0	R1313J
1971.15	0.845	1973163	REC_START	n/a	n/a	n/a	n/a	-999	18	[0, 0, 0]	n/a	catFR1	0	R1313J
1971.995	1.08	1974008	REC_WORD	1.08	n/a	WINE	Beverages	2	18	[0, 0, 0]	n/a	catFR1	0	R1313J
1973.075	1.281	1975088	REC_WORD	1.281	n/a	SODA	Beverages	11	18	[0, 0, 0]	n/a	catFR1	0	R1313J
1974.356	1.254	1976369	REC_WORD	1.254	n/a	RUM	Beverages	12	18	[0, 0, 0]	n/a	catFR1	0	R1313J
1975.61	1.061	1977623	REC_WORD	1.061	n/a	BALL	Toys	9	18	[0, 0, 0]	n/a	catFR1	0	R1313J
1976.671	24.492	1978684	REC_WORD	24.492	n/a	BASEBALL	Toys	10	18	[0, 0, 0]	n/a	catFR1	0	R1313J
2001.163	0.0	2003175	REC_END	n/a	n/a	n/a	n/a	-999	18	[0, 0, 0]	n/a	catFR1	0	R1313J
2001.163	0.023	2003175	TRIAL_END	n/a	n/a	n/a	n/a	-999	18	[0, 0, 0]	n/a	catFR1	0	R1313J
2001.186	0.0	2003198	WAITING_START	n/a	n/a	n/a	n/a	-999	19	[0, 0, 0]	n/a	catFR1	0	R1313J
2001.186	0.0	2003198	TRIAL_START	n/a	n/a	n/a	n/a	-999	19	[0, 0, 0]	n/a	catFR1	0	R1313J
2001.186	31.224	2003198	TRIAL	n/a	n/a	n/a	n/a	-999	19	[0, 0, 0]	n/a	catFR1	0	R1313J
2032.41	0.001	2034420	WAITING_END	n/a	n/a	n/a	n/a	-999	19	[0, 0, 0]	n/a	catFR1	0	R1313J
2032.411	10.429	2034421	COUNTDOWN_START	n/a	n/a	n/a	n/a	-999	19	[0, 0, 0]	n/a	catFR1	0	R1313J
2042.84	0.0	2044850	COUNTDOWN_END	n/a	n/a	n/a	n/a	-999	19	[0, 0, 0]	n/a	catFR1	0	R1313J
2042.84	1.156	2044850	ORIENT_START	n/a	n/a	n/a	n/a	-999	19	[0, 0, 0]	n/a	catFR1	0	R1313J
2043.996	0.0	2046006	ORIENT_END	n/a	n/a	n/a	n/a	-999	19	[0, 0, 0]	n/a	catFR1	0	R1313J
2043.996	0.891	2046006	ENCODING_START	n/a	n/a	n/a	n/a	-999	19	[0, 0, 0]	n/a	catFR1	0	R1313J
2044.887	1.627	2046897	WORD	n/a	wordpools/wordpool_categorized_EN.txt	ARM	BodyParts	1	19	[0, 0, 0]	n/a	catFR1	0	R1313J
2046.514	0.897	2048524	WORD_OFF	n/a	n/a	ARM	BodyParts	1	19	[0, 0, 0]	n/a	catFR1	0	R1313J
2047.411	1.636	2049421	WORD	n/a	wordpools/wordpool_categorized_EN.txt	ELBOW	BodyParts	2	19	[0, 0, 0]	n/a	catFR1	0	R1313J
2049.047	1.112	2051057	WORD_OFF	n/a	n/a	ELBOW	BodyParts	2	19	[0, 0, 0]	n/a	catFR1	0	R1313J
2050.159	1.605	2052168	WORD	n/a	wordpools/wordpool_categorized_EN.txt	RADIO	Electronics	3	19	[0, 0, 0]	n/a	catFR1	0	R1313J
2051.764	0.881	2053773	WORD_OFF	n/a	n/a	RADIO	Electronics	3	19	[0, 0, 0]	n/a	catFR1	0	R1313J
2052.645	1.636	2054654	WORD	n/a	wordpools/wordpool_categorized_EN.txt	TABLET	Electronics	4	19	[0, 0, 0]	n/a	catFR1	0	R1313J
2054.281	0.873	2056290	WORD_OFF	n/a	n/a	TABLET	Electronics	4	19	[0, 0, 0]	n/a	catFR1	0	R1313J
2055.154	1.628	2057163	WORD	n/a	wordpools/wordpool_categorized_EN.txt	LADYBUG	Insects	5	19	[0, 0, 0]	n/a	catFR1	0	R1313J
2056.782	1.047	2058791	WORD_OFF	n/a	n/a	LADYBUG	Insects	5	19	[0, 0, 0]	n/a	catFR1	0	R1313J
2057.829	1.637	2059838	WORD	n/a	wordpools/wordpool_categorized_EN.txt	ANT	Insects	6	19	[0, 0, 0]	n/a	catFR1	0	R1313J
2059.466	1.14	2061475	WORD_OFF	n/a	n/a	ANT	Insects	6	19	[0, 0, 0]	n/a	catFR1	0	R1313J
2060.606	1.626	2062615	WORD	n/a	wordpools/wordpool_categorized_EN.txt	HAND	BodyParts	7	19	[0, 0, 0]	n/a	catFR1	0	R1313J
2062.232	1.063	2064241	WORD_OFF	n/a	n/a	HAND	BodyParts	7	19	[0, 0, 0]	n/a	catFR1	0	R1313J
2063.295	1.622	2065304	WORD	n/a	wordpools/wordpool_categorized_EN.txt	KNEE	BodyParts	8	19	[0, 0, 0]	n/a	catFR1	0	R1313J
2064.917	0.966	2066926	WORD_OFF	n/a	n/a	KNEE	BodyParts	8	19	[0, 0, 0]	n/a	catFR1	0	R1313J
2065.883	1.634	2067892	WORD	n/a	wordpools/wordpool_categorized_EN.txt	TELEVISION	Electronics	9	19	[0, 0, 0]	n/a	catFR1	0	R1313J
2067.517	1.079	2069526	WORD_OFF	n/a	n/a	TELEVISION	Electronics	9	19	[0, 0, 0]	n/a	catFR1	0	R1313J
2068.596	1.621	2070605	WORD	n/a	wordpools/wordpool_categorized_EN.txt	SPEAKER	Electronics	10	19	[0, 0, 0]	n/a	catFR1	0	R1313J
2070.217	0.912	2072226	WORD_OFF	n/a	n/a	SPEAKER	Electronics	10	19	[0, 0, 0]	n/a	catFR1	0	R1313J
2071.129	1.606	2073138	WORD	n/a	wordpools/wordpool_categorized_EN.txt	GNAT	Insects	11	19	[0, 0, 0]	n/a	catFR1	0	R1313J
2072.735	0.976	2074744	WORD_OFF	n/a	n/a	GNAT	Insects	11	19	[0, 0, 0]	n/a	catFR1	0	R1313J
2073.711	1.624	2075720	WORD	n/a	wordpools/wordpool_categorized_EN.txt	BEE	Insects	12	19	[0, 0, 0]	n/a	catFR1	0	R1313J
2075.335	0.0	2077343	WORD_OFF	n/a	n/a	BEE	Insects	12	19	[0, 0, 0]	n/a	catFR1	0	R1313J
2075.335	0.0	2077343	ENCODING_END	n/a	n/a	n/a	n/a	-999	19	[0, 0, 0]	n/a	catFR1	0	R1313J
2075.335	0.0	2077343	DISTRACT_START	n/a	n/a	n/a	n/a	-999	19	[0, 0, 0]	n/a	catFR1	0	R1313J
2075.335	0.016	2077343	START	n/a	n/a	n/a	n/a	-999	19	[-999, -999, -999]	n/a	catFR1	0	R1313J
2075.351	3.867	2077359	PROB	3.867	n/a	n/a	n/a	-999	19	[2, 5, 6]	13	catFR1	0	R1313J
2079.218	3.217	2081226	PROB	3.217	n/a	n/a	n/a	-999	19	[8, 6, 1]	15	catFR1	0	R1313J
2082.435	3.535	2084443	PROB	3.535	n/a	n/a	n/a	-999	19	[4, 4, 2]	10	catFR1	0	R1313J
2085.97	3.784	2087978	PROB	3.784	n/a	n/a	n/a	-999	19	[1, 5, 7]	13	catFR1	0	R1313J
2089.754	2.4	2091762	PROB	2.4	n/a	n/a	n/a	-999	19	[1, 3, 2]	6	catFR1	0	R1313J
2092.154	7.351	2094162	PROB	7.351	n/a	n/a	n/a	-999	19	[7, 4, 5]	16	catFR1	0	R1313J
2099.505	0.018	2101512	STOP	n/a	n/a	n/a	n/a	-999	19	[-999, -999, -999]	n/a	catFR1	0	R1313J
2099.523	0.695	2101530	DISTRACT_END	n/a	n/a	n/a	n/a	-999	19	[0, 0, 0]	n/a	catFR1	0	R1313J
2100.218	1.689	2102225	RETRIEVAL_ORIENT_START	n/a	n/a	n/a	n/a	-999	19	[0, 0, 0]	n/a	catFR1	0	R1313J
2101.907	0.0	2103914	RETRIEVAL_ORIENT_END	n/a	n/a	n/a	n/a	-999	19	[0, 0, 0]	n/a	catFR1	0	R1313J
2101.907	0.525	2103914	REC_START	n/a	n/a	n/a	n/a	-999	19	[0, 0, 0]	n/a	catFR1	0	R1313J
2102.432	0.879	2104439	REC_WORD	0.879	n/a	ARM	BodyParts	1	19	[0, 0, 0]	n/a	catFR1	0	R1313J
2103.311	1.136	2105318	REC_WORD	1.136	n/a	ELBOW	BodyParts	2	19	[0, 0, 0]	n/a	catFR1	0	R1313J
2104.447	1.43	2106454	REC_WORD	1.43	n/a	HEN	FarmAnimals	-999	19	[0, 0, 0]	n/a	catFR1	0	R1313J
2105.877	0.68	2107884	REC_WORD	0.68	n/a	ANT	Insects	6	19	[0, 0, 0]	n/a	catFR1	0	R1313J
2106.557	1.006	2108564	REC_WORD	1.006	n/a	LADYBUG	Insects	5	19	[0, 0, 0]	n/a	catFR1	0	R1313J
2107.563	24.355	2109570	REC_WORD	24.355	n/a	GNAT	Insects	11	19	[0, 0, 0]	n/a	catFR1	0	R1313J
2131.918	0.0	2133924	TRIAL_END	n/a	n/a	n/a	n/a	-999	19	[0, 0, 0]	n/a	catFR1	0	R1313J
2131.918	0.02	2133924	REC_END	n/a	n/a	n/a	n/a	-999	19	[0, 0, 0]	n/a	catFR1	0	R1313J
2131.938	0.0	2133944	TRIAL_START	n/a	n/a	n/a	n/a	-999	20	[0, 0, 0]	n/a	catFR1	0	R1313J
2131.938	0.0	2133944	TRIAL	n/a	n/a	n/a	n/a	-999	20	[0, 0, 0]	n/a	catFR1	0	R1313J
2131.938	13.441	2133944	WAITING_START	n/a	n/a	n/a	n/a	-999	20	[0, 0, 0]	n/a	catFR1	0	R1313J
2145.379	0.001	2147385	WAITING_END	n/a	n/a	n/a	n/a	-999	20	[0, 0, 0]	n/a	catFR1	0	R1313J
2145.38	10.428	2147386	COUNTDOWN_START	n/a	n/a	n/a	n/a	-999	20	[0, 0, 0]	n/a	catFR1	0	R1313J
