onset	duration	sample	trial_type	response_time	stim_file	item_name	category	serialpos	list	test	answer	experiment	session	subject
0.0	28.786	22033	SESS_START	n/a	n/a	n/a	n/a	-999	-999	[0, 0, 0]	n/a	catFR1	0	R1069M
28.786	10.0	36425	COUNTDOWN_START	n/a	n/a	n/a	n/a	-999	-999	[0, 0, 0]	n/a	catFR1	0	R1069M
39.214	3.775	41638	COUNTDOWN_END	n/a	n/a	n/a	n/a	-999	-999	[0, 0, 0]	n/a	catFR1	0	R1069M
42.989	1.6	43526	PRACTICE_WORD	n/a	n/a	IRON	n/a	-999	-999	[0, 0, 0]	n/a	catFR1	0	R1069M
45.389	1.6	44725	PRACTICE_WORD	n/a	n/a	FLOOD	n/a	-999	-999	[0, 0, 0]	n/a	catFR1	0	R1069M
47.79	1.6	45926	PRACTICE_WORD	n/a	n/a	BEAM	n/a	-999	-999	[0, 0, 0]	n/a	catFR1	0	R1069M
50.291	1.6	47176	PRACTICE_WORD	n/a	n/a	CHEST	n/a	-999	-999	[0, 0, 0]	n/a	catFR1	0	R1069M
52.891	1.6	48476	PRACTICE_WORD	n/a	n/a	RING	n/a	-999	-999	[0, 0, 0]	n/a	catFR1	0	R1069M
55.391	1.6	49726	PRACTICE_WORD	n/a	n/a	ATTIC	n/a	-999	-999	[0, 0, 0]	n/a	catFR1	0	R1069M
57.925	1.6	50993	PRACTICE_WORD	n/a	n/a	WAGON	n/a	-999	-999	[0, 0, 0]	n/a	catFR1	0	R1069M
60.326	1.6	52193	PRACTICE_WORD	n/a	n/a	RHINO	n/a	-999	-999	[0, 0, 0]	n/a	catFR1	0	R1069M
62.859	1.6	53460	PRACTICE_WORD	n/a	n/a	CAMEL	n/a	-999	-999	[0, 0, 0]	n/a	catFR1	0	R1069M
65.244	1.6	54652	PRACTICE_WORD	n/a	n/a	COTTON	n/a	-999	-999	[0, 0, 0]	n/a	catFR1	0	R1069M
67.843	1.6	55951	PRACTICE_WORD	n/a	n/a	WATCH	n/a	-999	-999	[0, 0, 0]	n/a	catFR1	0	R1069M
70.427	1.6	57243	PRACTICE_WORD	n/a	n/a	TONGUE	n/a	-999	-999	[0, 0, 0]	n/a	catFR1	0	R1069M
72.028	0.001	58044	PRACTICE_DISTRACT_START	n/a	n/a	n/a	n/a	-999	-999	[0, 0, 0]	n/a	catFR1	0	R1069M
72.029	0.016	58044	START	n/a	n/a	n/a	n/a	-999	-1	[-999, -999, -999]	n/a	catFR1	0	R1069M
72.045	3.767	58052	PROB	3.737	n/a	n/a	n/a	-999	-1	[6, 3, 3]	12.0	catFR1	0	R1069M
75.812	2.717	59936	PROB	2.681	n/a	n/a	n/a	-999	-1	[2, 3, 2]	7.0	catFR1	0	R1069M
78.529	2.934	61294	PROB	2.9	n/a	n/a	n/a	-999	-1	[7, 1, 8]	16.0	catFR1	0	R1069M
81.463	4.917	62761	PROB	4.887	n/a	n/a	n/a	-999	-1	[7, 5, 4]	16.0	catFR1	0	R1069M
86.38	3.201	65219	PROB	3.178	n/a	n/a	n/a	-999	-1	[9, 3, 6]	18.0	catFR1	0	R1069M
89.581	2.88	66820	PROB	2.88	n/a	n/a	n/a	-999	-1	[5, 2, 2]	9.0	catFR1	0	R1069M
92.461	0.004	68259	STOP	n/a	n/a	n/a	n/a	-999	-1	[-999, -999, -999]	n/a	catFR1	0	R1069M
92.465	0.519	68261	PRACTICE_DISTRACT_END	n/a	n/a	n/a	n/a	-999	-999	[0, 0, 0]	n/a	catFR1	0	R1069M
92.984	30.514	68521	PRACTICE_REC_START	n/a	n/a	n/a	n/a	-999	-999	[0, 0, 0]	n/a	catFR1	0	R1069M
123.498	37.513	83777	PRACTICE_REC_END	n/a	n/a	n/a	n/a	-999	-999	[0, 0, 0]	n/a	catFR1	0	R1069M
161.011	10.0	102532	COUNTDOWN_START	n/a	n/a	n/a	n/a	-999	1	[0, 0, 0]	n/a	catFR1	0	R1069M
161.012	10.427	102532	TRIAL	n/a	n/a	n/a	n/a	-999	1	[0, 0, 0]	n/a	catFR1	0	R1069M
171.439	0.008	107745	COUNTDOWN_END	n/a	n/a	n/a	n/a	-999	1	[0, 0, 0]	n/a	catFR1	0	R1069M
171.447	1.6	107749	ORIENT	n/a	n/a	n/a	n/a	-999	1	[0, 0, 0]	n/a	catFR1	0	R1069M
175.198	1.6	109624	WORD	n/a	wordpools/wordpool_categorized_EN.txt	COMPUTER	Electronics	1	1	[0, 0, 0]	n/a	catFR1	0	R1069M
177.581	1.6	110816	WORD	n/a	wordpools/wordpool_categorized_EN.txt	SCANNER	Electronics	2	1	[0, 0, 0]	n/a	catFR1	0	R1069M
180.116	1.6	112083	WORD	n/a	wordpools/wordpool_categorized_EN.txt	SPARROW	Birds	3	1	[0, 0, 0]	n/a	catFR1	0	R1069M
182.699	1.6	113375	WORD	n/a	wordpools/wordpool_categorized_EN.txt	SEAGULL	Birds	4	1	[0, 0, 0]	n/a	catFR1	0	R1069M
185.267	1.6	114659	WORD	n/a	wordpools/wordpool_categorized_EN.txt	STRAINER	KitchenTools	5	1	[0, 0, 0]	n/a	catFR1	0	R1069M
187.833	1.6	115941	WORD	n/a	wordpools/wordpool_categorized_EN.txt	COLANDER	KitchenTools	6	1	[0, 0, 0]	n/a	catFR1	0	R1069M
190.218	1.6	117134	WORD	n/a	wordpools/wordpool_categorized_EN.txt	PRINTER	Electronics	7	1	[0, 0, 0]	n/a	catFR1	0	R1069M
192.668	1.6	118359	WORD	n/a	wordpools/wordpool_categorized_EN.txt	MICROWAVE	Electronics	8	1	[0, 0, 0]	n/a	catFR1	0	R1069M
195.169	1.6	119609	WORD	n/a	wordpools/wordpool_categorized_EN.txt	PEELER	KitchenTools	9	1	[0, 0, 0]	n/a	catFR1	0	R1069M
197.601	1.6	120825	WORD	n/a	wordpools/wordpool_categorized_EN.txt	WHISK	KitchenTools	10	1	[0, 0, 0]	n/a	catFR1	0	R1069M
200.12	1.6	122084	WORD	n/a	wordpools/wordpool_categorized_EN.txt	CARDINAL	Birds	11	1	[0, 0, 0]	n/a	catFR1	0	R1069M
202.519	1.6	123284	WORD	n/a	wordpools/wordpool_categorized_EN.txt	DOVE	Birds	12	1	[0, 0, 0]	n/a	catFR1	0	R1069M
204.12	0.001	124084	DISTRACT_START	n/a	n/a	n/a	n/a	-999	1	[0, 0, 0]	n/a	catFR1	0	R1069M
204.121	0.016	124085	START	n/a	n/a	n/a	n/a	-999	1	[-999, -999, -999]	n/a	catFR1	0	R1069M
204.137	3.833	124093	PROB	3.812	n/a	n/a	n/a	-999	1	[2, 8, 7]	17.0	catFR1	0	R1069M
207.97	7.035	126009	PROB	7.003	n/a	n/a	n/a	-999	1	[5, 1, 8]	14.0	catFR1	0	R1069M
215.005	2.851	129526	PROB	2.817	n/a	n/a	n/a	-999	1	[4, 5, 6]	15.0	catFR1	0	R1069M
217.856	3.584	130952	PROB	3.557	n/a	n/a	n/a	-999	1	[8, 8, 4]	20.0	catFR1	0	R1069M
221.44	3.325	132744	PROB	3.325	n/a	n/a	n/a	-999	1	[1, 3, 3]	7.0	catFR1	0	R1069M
224.765	0.009	134406	STOP	n/a	n/a	n/a	n/a	-999	1	[-999, -999, -999]	n/a	catFR1	0	R1069M
224.774	1.184	134410	DISTRACT_END	n/a	n/a	n/a	n/a	-999	1	[0, 0, 0]	n/a	catFR1	0	R1069M
225.958	0.961	135002	REC_START	n/a	n/a	n/a	n/a	-999	1	[0, 0, 0]	n/a	catFR1	0	R1069M
226.919	1.309	135483	REC_WORD	0.961	n/a	COMPUTER	Electronics	1	1	[0, 0, 0]	n/a	catFR1	0	R1069M
228.228	1.555	136137	REC_WORD	2.27	n/a	SCANNER	Electronics	2	1	[0, 0, 0]	n/a	catFR1	0	R1069M
229.783	1.739	136915	REC_WORD	3.825	n/a	SPARROW	Birds	3	1	[0, 0, 0]	n/a	catFR1	0	R1069M
231.522	1.448	137784	REC_WORD	5.564	n/a	DOVE	Birds	12	1	[0, 0, 0]	n/a	catFR1	0	R1069M
232.97	22.998	138508	REC_WORD	7.012	n/a	WHISK	KitchenTools	10	1	[0, 0, 0]	n/a	catFR1	0	R1069M
255.968	20.499	150006	REC_END	n/a	n/a	n/a	n/a	-999	1	[0, 0, 0]	n/a	catFR1	0	R1069M
276.467	0.0	160255	TRIAL	n/a	n/a	n/a	n/a	-999	2	[0, 0, 0]	n/a	catFR1	0	R1069M
276.467	10.0	160255	COUNTDOWN_START	n/a	n/a	n/a	n/a	-999	2	[0, 0, 0]	n/a	catFR1	0	R1069M
286.895	0.007	165468	COUNTDOWN_END	n/a	n/a	n/a	n/a	-999	2	[0, 0, 0]	n/a	catFR1	0	R1069M
286.902	1.6	165472	ORIENT	n/a	n/a	n/a	n/a	-999	2	[0, 0, 0]	n/a	catFR1	0	R1069M
290.72	1.6	167381	WORD	n/a	wordpools/wordpool_categorized_EN.txt	SUNFLOWER	Flowers	1	2	[0, 0, 0]	n/a	catFR1	0	R1069M
293.104	1.6	168573	WORD	n/a	wordpools/wordpool_categorized_EN.txt	DAISY	Flowers	2	2	[0, 0, 0]	n/a	catFR1	0	R1069M
295.671	1.6	169856	WORD	n/a	wordpools/wordpool_categorized_EN.txt	BED	Furniture	3	2	[0, 0, 0]	n/a	catFR1	0	R1069M
298.139	1.6	171090	WORD	n/a	wordpools/wordpool_categorized_EN.txt	DESK	Furniture	4	2	[0, 0, 0]	n/a	catFR1	0	R1069M
300.605	1.6	172323	WORD	n/a	wordpools/wordpool_categorized_EN.txt	PLANE	Vehicles	5	2	[0, 0, 0]	n/a	catFR1	0	R1069M
303.023	1.6	173532	WORD	n/a	wordpools/wordpool_categorized_EN.txt	TRUCK	Vehicles	6	2	[0, 0, 0]	n/a	catFR1	0	R1069M
305.506	1.6	174773	WORD	n/a	wordpools/wordpool_categorized_EN.txt	SOFA	Furniture	7	2	[0, 0, 0]	n/a	catFR1	0	R1069M
308.091	1.6	176065	WORD	n/a	wordpools/wordpool_categorized_EN.txt	BOOKCASE	Furniture	8	2	[0, 0, 0]	n/a	catFR1	0	R1069M
310.657	1.6	177348	WORD	n/a	wordpools/wordpool_categorized_EN.txt	LILY	Flowers	9	2	[0, 0, 0]	n/a	catFR1	0	R1069M
313.258	1.6	178649	WORD	n/a	wordpools/wordpool_categorized_EN.txt	MARIGOLD	Flowers	10	2	[0, 0, 0]	n/a	catFR1	0	R1069M
315.724	1.6	179882	WORD	n/a	wordpools/wordpool_categorized_EN.txt	MOPED	Vehicles	11	2	[0, 0, 0]	n/a	catFR1	0	R1069M
318.126	1.6	181082	WORD	n/a	wordpools/wordpool_categorized_EN.txt	CAR	Vehicles	12	2	[0, 0, 0]	n/a	catFR1	0	R1069M
319.742	0.001	181890	DISTRACT_START	n/a	n/a	n/a	n/a	-999	2	[0, 0, 0]	n/a	catFR1	0	R1069M
319.743	0.016	181891	START	n/a	n/a	n/a	n/a	-999	2	[-999, -999, -999]	n/a	catFR1	0	R1069M
319.759	4.934	181899	PROB	4.902	n/a	n/a	n/a	-999	2	[9, 2, 7]	18.0	catFR1	0	R1069M
324.693	2.85	184366	PROB	2.824	n/a	n/a	n/a	-999	2	[1, 6, 9]	16.0	catFR1	0	R1069M
327.543	2.868	185791	PROB	2.847	n/a	n/a	n/a	-999	2	[3, 6, 5]	14.0	catFR1	0	R1069M
330.411	2.267	187224	PROB	2.243	n/a	n/a	n/a	-999	2	[8, 2, 3]	13.0	catFR1	0	R1069M
332.678	3.15	188358	PROB	3.119	n/a	n/a	n/a	-999	2	[1, 5, 1]	7.0	catFR1	0	R1069M
335.828	2.718	189933	PROB	2.689	n/a	n/a	n/a	-999	2	[4, 9, 9]	22.0	catFR1	0	R1069M
338.546	2.396	191292	PROB	2.396	n/a	n/a	n/a	-999	2	[3, 2, 6]	11.0	catFR1	0	R1069M
340.942	0.004	192490	STOP	n/a	n/a	n/a	n/a	-999	2	[-999, -999, -999]	n/a	catFR1	0	R1069M
340.946	1.085	192492	DISTRACT_END	n/a	n/a	n/a	n/a	-999	2	[0, 0, 0]	n/a	catFR1	0	R1069M
342.031	1.11	193034	REC_START	n/a	n/a	n/a	n/a	-999	2	[0, 0, 0]	n/a	catFR1	0	R1069M
343.141	1.763	193589	REC_WORD	1.11	n/a	SUNFLOWER	Flowers	1	2	[0, 0, 0]	n/a	catFR1	0	R1069M
344.904	1.451	194470	REC_WORD	2.873	n/a	DAISY	Flowers	2	2	[0, 0, 0]	n/a	catFR1	0	R1069M
346.355	1.681	195196	REC_WORD	4.324	n/a	MARIGOLD	Flowers	10	2	[0, 0, 0]	n/a	catFR1	0	R1069M
348.036	1.679	196036	REC_WORD	6.005	n/a	CAR	Vehicles	12	2	[0, 0, 0]	n/a	catFR1	0	R1069M
349.715	1.867	196876	REC_WORD	7.684	n/a	TRUCK	Vehicles	6	2	[0, 0, 0]	n/a	catFR1	0	R1069M
351.582	3.501	197809	REC_WORD	9.551	n/a	BED	Furniture	3	2	[0, 0, 0]	n/a	catFR1	0	R1069M
355.083	16.962	199559	REC_WORD	13.052	n/a	PLANE	Vehicles	5	2	[0, 0, 0]	n/a	catFR1	0	R1069M
372.045	10.942	208040	REC_END	n/a	n/a	n/a	n/a	-999	2	[0, 0, 0]	n/a	catFR1	0	R1069M
382.987	10.0	213510	COUNTDOWN_START	n/a	n/a	n/a	n/a	-999	3	[0, 0, 0]	n/a	catFR1	0	R1069M
382.988	10.427	213511	TRIAL	n/a	n/a	n/a	n/a	-999	3	[0, 0, 0]	n/a	catFR1	0	R1069M
393.415	0.008	218724	COUNTDOWN_END	n/a	n/a	n/a	n/a	-999	3	[0, 0, 0]	n/a	catFR1	0	R1069M
393.423	1.6	218728	ORIENT	n/a	n/a	n/a	n/a	-999	3	[0, 0, 0]	n/a	catFR1	0	R1069M
396.99	1.6	220511	WORD	n/a	wordpools/wordpool_categorized_EN.txt	LILAC	Flowers	1	3	[0, 0, 0]	n/a	catFR1	0	R1069M
399.607	1.6	221820	WORD	n/a	wordpools/wordpool_categorized_EN.txt	TULIP	Flowers	2	3	[0, 0, 0]	n/a	catFR1	0	R1069M
402.025	1.6	223028	WORD	n/a	wordpools/wordpool_categorized_EN.txt	ROOF	Building	3	3	[0, 0, 0]	n/a	catFR1	0	R1069M
404.442	1.6	224237	WORD	n/a	wordpools/wordpool_categorized_EN.txt	STAIRS	Building	4	3	[0, 0, 0]	n/a	catFR1	0	R1069M
406.909	1.6	225470	WORD	n/a	wordpools/wordpool_categorized_EN.txt	BIRCH	Trees	5	3	[0, 0, 0]	n/a	catFR1	0	R1069M
409.426	1.6	226729	WORD	n/a	wordpools/wordpool_categorized_EN.txt	CYPRESS	Trees	6	3	[0, 0, 0]	n/a	catFR1	0	R1069M
411.976	1.6	228004	WORD	n/a	wordpools/wordpool_categorized_EN.txt	CARNATION	Flowers	7	3	[0, 0, 0]	n/a	catFR1	0	R1069M
414.377	1.6	229204	WORD	n/a	wordpools/wordpool_categorized_EN.txt	PETUNIA	Flowers	8	3	[0, 0, 0]	n/a	catFR1	0	R1069M
416.894	1.6	230462	WORD	n/a	wordpools/wordpool_categorized_EN.txt	OAK	Trees	9	3	[0, 0, 0]	n/a	catFR1	0	R1069M
419.511	1.6	231771	WORD	n/a	wordpools/wordpool_categorized_EN.txt	SPRUCE	Trees	10	3	[0, 0, 0]	n/a	catFR1	0	R1069M
422.129	1.6	233080	WORD	n/a	wordpools/wordpool_categorized_EN.txt	DOOR	Building	11	3	[0, 0, 0]	n/a	catFR1	0	R1069M
424.562	1.6	234296	WORD	n/a	wordpools/wordpool_categorized_EN.txt	HALLWAY	Building	12	3	[0, 0, 0]	n/a	catFR1	0	R1069M
426.163	0.001	235096	DISTRACT_START	n/a	n/a	n/a	n/a	-999	3	[0, 0, 0]	n/a	catFR1	0	R1069M
426.164	0.016	235097	START	n/a	n/a	n/a	n/a	-999	3	[-999, -999, -999]	n/a	catFR1	0	R1069M
426.18	4.767	235105	PROB	4.745	n/a	n/a	n/a	-999	3	[6, 6, 3]	15.0	catFR1	0	R1069M
430.947	7.034	237488	PROB	7.002	n/a	n/a	n/a	-999	3	[9, 7, 7]	23.0	catFR1	0	R1069M
437.981	2.951	241005	PROB	2.92	n/a	n/a	n/a	-999	3	[2, 4, 1]	7.0	catFR1	0	R1069M
440.932	3.001	242480	PROB	2.977	n/a	n/a	n/a	-999	3	[3, 6, 9]	18.0	catFR1	0	R1069M
443.933	3.52	243981	PROB	3.52	n/a	n/a	n/a	-999	3	[9, 4, 7]	20.0	catFR1	0	R1069M
447.453	0.014	245741	STOP	n/a	n/a	n/a	n/a	-999	3	[-999, -999, -999]	n/a	catFR1	0	R1069M
447.467	1.2	245748	DISTRACT_END	n/a	n/a	n/a	n/a	-999	3	[0, 0, 0]	n/a	catFR1	0	R1069M
448.667	1.391	246348	REC_START	n/a	n/a	n/a	n/a	-999	3	[0, 0, 0]	n/a	catFR1	0	R1069M
450.058	2.264	247043	REC_WORD	1.391	n/a	LILAC	Flowers	1	3	[0, 0, 0]	n/a	catFR1	0	R1069M
452.322	8.108	248175	REC_WORD	3.655	n/a	MARIGOLD	n/a	-999	3	[0, 0, 0]	n/a	catFR1	0	R1069M
460.43	5.016	252229	REC_WORD	11.763	n/a	BED	n/a	-999	3	[0, 0, 0]	n/a	catFR1	0	R1069M
465.446	13.237	254736	REC_WORD	16.779	n/a	ROOF	Building	3	3	[0, 0, 0]	n/a	catFR1	0	R1069M
478.683	19.843	261354	REC_END	n/a	n/a	n/a	n/a	-999	3	[0, 0, 0]	n/a	catFR1	0	R1069M
498.526	10.0	271275	COUNTDOWN_START	n/a	n/a	n/a	n/a	-999	4	[0, 0, 0]	n/a	catFR1	0	R1069M
498.527	10.427	271275	TRIAL	n/a	n/a	n/a	n/a	-999	4	[0, 0, 0]	n/a	catFR1	0	R1069M
508.954	0.008	276488	COUNTDOWN_END	n/a	n/a	n/a	n/a	-999	4	[0, 0, 0]	n/a	catFR1	0	R1069M
508.962	1.6	276492	ORIENT	n/a	n/a	n/a	n/a	-999	4	[0, 0, 0]	n/a	catFR1	0	R1069M
512.863	1.6	278443	WORD	n/a	wordpools/wordpool_categorized_EN.txt	SHOVEL	Tools	1	4	[0, 0, 0]	n/a	catFR1	0	R1069M
515.48	1.6	279751	WORD	n/a	wordpools/wordpool_categorized_EN.txt	SAW	Tools	2	4	[0, 0, 0]	n/a	catFR1	0	R1069M
517.897	1.6	280960	WORD	n/a	wordpools/wordpool_categorized_EN.txt	CIDER	Beverages	3	4	[0, 0, 0]	n/a	catFR1	0	R1069M
520.397	1.6	282209	WORD	n/a	wordpools/wordpool_categorized_EN.txt	COLA	Beverages	4	4	[0, 0, 0]	n/a	catFR1	0	R1069M
522.864	1.6	283443	WORD	n/a	wordpools/wordpool_categorized_EN.txt	FINGERS	BodyParts	5	4	[0, 0, 0]	n/a	catFR1	0	R1069M
525.398	1.6	284710	WORD	n/a	wordpools/wordpool_categorized_EN.txt	HEAD	BodyParts	6	4	[0, 0, 0]	n/a	catFR1	0	R1069M
527.815	1.6	285918	WORD	n/a	wordpools/wordpool_categorized_EN.txt	CROWBAR	Tools	7	4	[0, 0, 0]	n/a	catFR1	0	R1069M
530.25	1.6	287136	WORD	n/a	wordpools/wordpool_categorized_EN.txt	PLIERS	Tools	8	4	[0, 0, 0]	n/a	catFR1	0	R1069M
532.8	1.6	288410	WORD	n/a	wordpools/wordpool_categorized_EN.txt	LEG	BodyParts	9	4	[0, 0, 0]	n/a	catFR1	0	R1069M
535.251	1.6	289636	WORD	n/a	wordpools/wordpool_categorized_EN.txt	ELBOW	BodyParts	10	4	[0, 0, 0]	n/a	catFR1	0	R1069M
537.634	1.6	290827	WORD	n/a	wordpools/wordpool_categorized_EN.txt	MILK	Beverages	11	4	[0, 0, 0]	n/a	catFR1	0	R1069M
540.052	1.6	292036	WORD	n/a	wordpools/wordpool_categorized_EN.txt	WINE	Beverages	12	4	[0, 0, 0]	n/a	catFR1	0	R1069M
541.668	0.001	292844	DISTRACT_START	n/a	n/a	n/a	n/a	-999	4	[0, 0, 0]	n/a	catFR1	0	R1069M
541.669	0.016	292845	START	n/a	n/a	n/a	n/a	-999	4	[-999, -999, -999]	n/a	catFR1	0	R1069M
541.685	4.535	292853	PROB	4.505	n/a	n/a	n/a	-999	4	[8, 3, 9]	20.0	catFR1	0	R1069M
546.22	3.133	295120	PROB	3.099	n/a	n/a	n/a	-999	4	[3, 6, 9]	18.0	catFR1	0	R1069M
549.353	2.2	296686	PROB	2.165	n/a	n/a	n/a	-999	4	[8, 2, 1]	11.0	catFR1	0	R1069M
551.553	3.868	297786	PROB	3.836	n/a	n/a	n/a	-999	4	[2, 9, 2]	13.0	catFR1	0	R1069M
555.421	4.635	299720	PROB	4.601	n/a	n/a	n/a	-999	4	[7, 2, 7]	16.0	catFR1	0	R1069M
560.056	2.949	302037	PROB	2.949	n/a	n/a	n/a	-999	4	[5, 2, 2]	9.0	catFR1	0	R1069M
563.005	0.018	303512	STOP	n/a	n/a	n/a	n/a	-999	4	[-999, -999, -999]	n/a	catFR1	0	R1069M
563.023	1.184	303521	DISTRACT_END	n/a	n/a	n/a	n/a	-999	4	[0, 0, 0]	n/a	catFR1	0	R1069M
564.207	1.156	304113	REC_START	n/a	n/a	n/a	n/a	-999	4	[0, 0, 0]	n/a	catFR1	0	R1069M
565.363	1.745	304691	REC_WORD	1.156	n/a	SAW	Tools	2	4	[0, 0, 0]	n/a	catFR1	0	R1069M
567.108	1.898	305563	REC_WORD	2.901	n/a	PLIERS	Tools	8	4	[0, 0, 0]	n/a	catFR1	0	R1069M
569.006	3.197	306512	REC_WORD	4.799	n/a	ELBOW	BodyParts	10	4	[0, 0, 0]	n/a	catFR1	0	R1069M
572.203	2.987	308110	REC_WORD	7.996	n/a	FINGERS	BodyParts	5	4	[0, 0, 0]	n/a	catFR1	0	R1069M
575.19	1.692	309604	REC_WORD	10.983	n/a	COLA	Beverages	4	4	[0, 0, 0]	n/a	catFR1	0	R1069M
576.882	1.534	310450	REC_WORD	12.675	n/a	MILK	Beverages	11	4	[0, 0, 0]	n/a	catFR1	0	R1069M
578.416	8.63	311217	REC_WORD	14.209	n/a	WINE	Beverages	12	4	[0, 0, 0]	n/a	catFR1	0	R1069M
587.046	7.172	315531	REC_WORD	22.839	n/a	CIDER	Beverages	3	4	[0, 0, 0]	n/a	catFR1	0	R1069M
594.218	7.678	319117	REC_END	n/a	n/a	n/a	n/a	-999	4	[0, 0, 0]	n/a	catFR1	0	R1069M
601.896	10.0	322956	COUNTDOWN_START	n/a	n/a	n/a	n/a	-999	5	[0, 0, 0]	n/a	catFR1	0	R1069M
601.897	10.427	322956	TRIAL	n/a	n/a	n/a	n/a	-999	5	[0, 0, 0]	n/a	catFR1	0	R1069M
612.324	0.008	328169	COUNTDOWN_END	n/a	n/a	n/a	n/a	-999	5	[0, 0, 0]	n/a	catFR1	0	R1069M
612.332	1.6	328173	ORIENT	n/a	n/a	n/a	n/a	-999	5	[0, 0, 0]	n/a	catFR1	0	R1069M
616.15	1.6	330082	WORD	n/a	wordpools/wordpool_categorized_EN.txt	LAMB	FarmAnimals	1	5	[0, 0, 0]	n/a	catFR1	0	R1069M
618.75	1.6	331382	WORD	n/a	wordpools/wordpool_categorized_EN.txt	GOAT	FarmAnimals	2	5	[0, 0, 0]	n/a	catFR1	0	R1069M
621.218	1.6	332616	WORD	n/a	wordpools/wordpool_categorized_EN.txt	TOASTER	Appliances	3	5	[0, 0, 0]	n/a	catFR1	0	R1069M
623.667	1.6	333840	WORD	n/a	wordpools/wordpool_categorized_EN.txt	STOVE	Appliances	4	5	[0, 0, 0]	n/a	catFR1	0	R1069M
626.252	1.6	335133	WORD	n/a	wordpools/wordpool_categorized_EN.txt	DRESSER	Furniture	5	5	[0, 0, 0]	n/a	catFR1	0	R1069M
628.752	1.6	336382	WORD	n/a	wordpools/wordpool_categorized_EN.txt	SHELF	Furniture	6	5	[0, 0, 0]	n/a	catFR1	0	R1069M
631.303	1.6	337658	WORD	n/a	wordpools/wordpool_categorized_EN.txt	WASHER	Appliances	7	5	[0, 0, 0]	n/a	catFR1	0	R1069M
633.686	1.6	338849	WORD	n/a	wordpools/wordpool_categorized_EN.txt	MIXER	Appliances	8	5	[0, 0, 0]	n/a	catFR1	0	R1069M
636.187	1.6	340100	WORD	n/a	wordpools/wordpool_categorized_EN.txt	CALF	FarmAnimals	9	5	[0, 0, 0]	n/a	catFR1	0	R1069M
638.737	1.6	341375	WORD	n/a	wordpools/wordpool_categorized_EN.txt	TURKEY	FarmAnimals	10	5	[0, 0, 0]	n/a	catFR1	0	R1069M
641.205	1.6	342608	WORD	n/a	wordpools/wordpool_categorized_EN.txt	CHAIR	Furniture	11	5	[0, 0, 0]	n/a	catFR1	0	R1069M
643.654	1.6	343833	WORD	n/a	wordpools/wordpool_categorized_EN.txt	CABINET	Furniture	12	5	[0, 0, 0]	n/a	catFR1	0	R1069M
645.255	0.001	344633	DISTRACT_START	n/a	n/a	n/a	n/a	-999	5	[0, 0, 0]	n/a	catFR1	0	R1069M
645.256	0.016	344634	START	n/a	n/a	n/a	n/a	-999	5	[-999, -999, -999]	n/a	catFR1	0	R1069M
645.272	4.684	344642	PROB	4.661	n/a	n/a	n/a	-999	5	[9, 5, 7]	21.0	catFR1	0	R1069M
649.956	4.767	346984	PROB	4.746	n/a	n/a	n/a	-999	5	[8, 5, 7]	20.0	catFR1	0	R1069M
654.723	3.784	349367	PROB	3.763	n/a	n/a	n/a	-999	5	[5, 8, 5]	18.0	catFR1	0	R1069M
658.507	3.068	351259	PROB	3.042	n/a	n/a	n/a	-999	5	[9, 3, 2]	14.0	catFR1	0	R1069M
661.575	3.751	352793	PROB	3.751	n/a	n/a	n/a	-999	5	[5, 9, 8]	24.0	catFR1	0	R1069M
665.326	0.016	354668	STOP	n/a	n/a	n/a	n/a	-999	5	[-999, -999, -999]	n/a	catFR1	0	R1069M
665.342	1.084	354676	DISTRACT_END	n/a	n/a	n/a	n/a	-999	5	[0, 0, 0]	n/a	catFR1	0	R1069M
666.426	1.497	355218	REC_START	n/a	n/a	n/a	n/a	-999	5	[0, 0, 0]	n/a	catFR1	0	R1069M
667.923	1.534	355966	REC_WORD	1.497	n/a	LAMB	FarmAnimals	1	5	[0, 0, 0]	n/a	catFR1	0	R1069M
669.457	4.076	356733	REC_WORD	3.031	n/a	GOAT	FarmAnimals	2	5	[0, 0, 0]	n/a	catFR1	0	R1069M
673.533	22.903	358771	REC_WORD	7.107	n/a	TOASTER	Appliances	3	5	[0, 0, 0]	n/a	catFR1	0	R1069M
696.436	16.132	370222	REC_END	n/a	n/a	n/a	n/a	-999	5	[0, 0, 0]	n/a	catFR1	0	R1069M
712.568	10.0	378287	COUNTDOWN_START	n/a	n/a	n/a	n/a	-999	6	[0, 0, 0]	n/a	catFR1	0	R1069M
712.568	10.428	378287	TRIAL	n/a	n/a	n/a	n/a	-999	6	[0, 0, 0]	n/a	catFR1	0	R1069M
722.996	0.007	383500	COUNTDOWN_END	n/a	n/a	n/a	n/a	-999	6	[0, 0, 0]	n/a	catFR1	0	R1069M
723.003	1.6	383504	ORIENT	n/a	n/a	n/a	n/a	-999	6	[0, 0, 0]	n/a	catFR1	0	R1069M
726.637	1.6	385321	WORD	n/a	wordpools/wordpool_categorized_EN.txt	HAND	BodyParts	1	6	[0, 0, 0]	n/a	catFR1	0	R1069M
729.055	1.6	386530	WORD	n/a	wordpools/wordpool_categorized_EN.txt	NOSE	BodyParts	2	6	[0, 0, 0]	n/a	catFR1	0	R1069M
731.538	1.6	387771	WORD	n/a	wordpools/wordpool_categorized_EN.txt	ONION	Vegetables	3	6	[0, 0, 0]	n/a	catFR1	0	R1069M
733.955	1.6	388980	WORD	n/a	wordpools/wordpool_categorized_EN.txt	CORN	Vegetables	4	6	[0, 0, 0]	n/a	catFR1	0	R1069M
736.506	1.6	390255	WORD	n/a	wordpools/wordpool_categorized_EN.txt	DISHWASHER	Appliances	5	6	[0, 0, 0]	n/a	catFR1	0	R1069M
739.057	1.6	391530	WORD	n/a	wordpools/wordpool_categorized_EN.txt	BLENDER	Appliances	6	6	[0, 0, 0]	n/a	catFR1	0	R1069M
741.507	1.6	392755	WORD	n/a	wordpools/wordpool_categorized_EN.txt	KNEE	BodyParts	7	6	[0, 0, 0]	n/a	catFR1	0	R1069M
744.007	1.6	394005	WORD	n/a	wordpools/wordpool_categorized_EN.txt	TOE	BodyParts	8	6	[0, 0, 0]	n/a	catFR1	0	R1069M
746.541	1.6	395272	WORD	n/a	wordpools/wordpool_categorized_EN.txt	REFRIGERATOR	Appliances	9	6	[0, 0, 0]	n/a	catFR1	0	R1069M
748.975	1.6	396489	WORD	n/a	wordpools/wordpool_categorized_EN.txt	OVEN	Appliances	10	6	[0, 0, 0]	n/a	catFR1	0	R1069M
751.442	1.6	397722	WORD	n/a	wordpools/wordpool_categorized_EN.txt	SPINACH	Vegetables	11	6	[0, 0, 0]	n/a	catFR1	0	R1069M
754.009	1.6	399006	WORD	n/a	wordpools/wordpool_categorized_EN.txt	POTATO	Vegetables	12	6	[0, 0, 0]	n/a	catFR1	0	R1069M
755.626	0.001	399814	DISTRACT_START	n/a	n/a	n/a	n/a	-999	6	[0, 0, 0]	n/a	catFR1	0	R1069M
755.627	0.016	399815	START	n/a	n/a	n/a	n/a	-999	6	[-999, -999, -999]	n/a	catFR1	0	R1069M
755.643	5.652	399823	PROB	5.62	n/a	n/a	n/a	-999	6	[7, 5, 1]	13.0	catFR1	0	R1069M
761.295	3.616	402648	PROB	3.591	n/a	n/a	n/a	-999	6	[4, 2, 2]	8.0	catFR1	0	R1069M
764.911	4.818	404456	PROB	4.79	n/a	n/a	n/a	-999	6	[8, 5, 3]	16.0	catFR1	0	R1069M
769.729	2.834	406865	PROB	2.812	n/a	n/a	n/a	-999	6	[9, 6, 8]	23.0	catFR1	0	R1069M
772.563	2.817	408282	PROB	2.795	n/a	n/a	n/a	-999	6	[1, 3, 9]	13.0	catFR1	0	R1069M
775.38	3.842	409690	PROB	3.842	n/a	n/a	n/a	-999	6	[5, 8, 3]	16.0	catFR1	0	R1069M
779.222	0.01	411611	STOP	n/a	n/a	n/a	n/a	-999	6	[-999, -999, -999]	n/a	catFR1	0	R1069M
779.232	1.067	411616	DISTRACT_END	n/a	n/a	n/a	n/a	-999	6	[0, 0, 0]	n/a	catFR1	0	R1069M
780.299	1.258	412150	REC_START	n/a	n/a	n/a	n/a	-999	6	[0, 0, 0]	n/a	catFR1	0	R1069M
781.557	1.702	412779	REC_WORD	1.258	n/a	HAND	BodyParts	1	6	[0, 0, 0]	n/a	catFR1	0	R1069M
783.259	1.744	413629	REC_WORD	2.96	n/a	NOSE	BodyParts	2	6	[0, 0, 0]	n/a	catFR1	0	R1069M
785.003	1.665	414501	REC_WORD	4.704	n/a	TOE	BodyParts	8	6	[0, 0, 0]	n/a	catFR1	0	R1069M
786.668	1.624	415334	REC_WORD	6.369	n/a	ONION	Vegetables	3	6	[0, 0, 0]	n/a	catFR1	0	R1069M
788.292	1.748	416146	REC_WORD	7.993	n/a	POTATO	Vegetables	12	6	[0, 0, 0]	n/a	catFR1	0	R1069M
790.04	14.148	417020	REC_WORD	9.741	n/a	REFRIGERATOR	Appliances	9	6	[0, 0, 0]	n/a	catFR1	0	R1069M
804.188	6.12	424093	REC_WORD	23.889	n/a	KNEE	BodyParts	7	6	[0, 0, 0]	n/a	catFR1	0	R1069M
810.308	10.381	427153	REC_END	n/a	n/a	n/a	n/a	-999	6	[0, 0, 0]	n/a	catFR1	0	R1069M
820.689	0.0	432343	TRIAL	n/a	n/a	n/a	n/a	-999	7	[0, 0, 0]	n/a	catFR1	0	R1069M
820.689	10.0	432343	COUNTDOWN_START	n/a	n/a	n/a	n/a	-999	7	[0, 0, 0]	n/a	catFR1	0	R1069M
831.117	0.008	437556	COUNTDOWN_END	n/a	n/a	n/a	n/a	-999	7	[0, 0, 0]	n/a	catFR1	0	R1069M
831.125	1.6	437560	ORIENT	n/a	n/a	n/a	n/a	-999	7	[0, 0, 0]	n/a	catFR1	0	R1069M
834.891	1.6	439443	WORD	n/a	wordpools/wordpool_categorized_EN.txt	MOSQUITO	Insects	1	7	[0, 0, 0]	n/a	catFR1	0	R1069M
837.392	1.6	440694	WORD	n/a	wordpools/wordpool_categorized_EN.txt	ANT	Insects	2	7	[0, 0, 0]	n/a	catFR1	0	R1069M
839.859	1.6	441927	WORD	n/a	wordpools/wordpool_categorized_EN.txt	BANANA	Fruit	3	7	[0, 0, 0]	n/a	catFR1	0	R1069M
842.459	1.6	443227	WORD	n/a	wordpools/wordpool_categorized_EN.txt	PLUM	Fruit	4	7	[0, 0, 0]	n/a	catFR1	0	R1069M
844.827	1.6	444411	WORD	n/a	wordpools/wordpool_categorized_EN.txt	PIGEON	Birds	5	7	[0, 0, 0]	n/a	catFR1	0	R1069M
847.377	1.6	445686	WORD	n/a	wordpools/wordpool_categorized_EN.txt	ROBIN	Birds	6	7	[0, 0, 0]	n/a	catFR1	0	R1069M
849.944	1.6	446969	WORD	n/a	wordpools/wordpool_categorized_EN.txt	SPIDER	Insects	7	7	[0, 0, 0]	n/a	catFR1	0	R1069M
852.378	1.6	448186	WORD	n/a	wordpools/wordpool_categorized_EN.txt	FLY	Insects	8	7	[0, 0, 0]	n/a	catFR1	0	R1069M
854.912	1.6	449453	WORD	n/a	wordpools/wordpool_categorized_EN.txt	FINCH	Birds	9	7	[0, 0, 0]	n/a	catFR1	0	R1069M
857.479	1.6	450736	WORD	n/a	wordpools/wordpool_categorized_EN.txt	GOOSE	Birds	10	7	[0, 0, 0]	n/a	catFR1	0	R1069M
859.896	1.6	451945	WORD	n/a	wordpools/wordpool_categorized_EN.txt	CHERRY	Fruit	11	7	[0, 0, 0]	n/a	catFR1	0	R1069M
862.413	1.6	453203	WORD	n/a	wordpools/wordpool_categorized_EN.txt	PEACH	Fruit	12	7	[0, 0, 0]	n/a	catFR1	0	R1069M
864.031	0.001	454012	DISTRACT_START	n/a	n/a	n/a	n/a	-999	7	[0, 0, 0]	n/a	catFR1	0	R1069M
864.032	0.016	454013	START	n/a	n/a	n/a	n/a	-999	7	[-999, -999, -999]	n/a	catFR1	0	R1069M
864.048	4.184	454021	PROB	4.158	n/a	n/a	n/a	-999	7	[3, 6, 5]	14.0	catFR1	0	R1069M
868.232	4.017	456112	PROB	3.991	n/a	n/a	n/a	-999	7	[8, 4, 8]	20.0	catFR1	0	R1069M
872.249	3.001	458121	PROB	2.965	n/a	n/a	n/a	-999	7	[2, 3, 3]	8.0	catFR1	0	R1069M
875.25	2.8	459621	PROB	2.773	n/a	n/a	n/a	-999	7	[3, 4, 7]	14.0	catFR1	0	R1069M
878.05	2.4	461021	PROB	2.371	n/a	n/a	n/a	-999	7	[7, 3, 2]	12.0	catFR1	0	R1069M
880.45	4.308	462221	PROB	4.308	n/a	n/a	n/a	-999	7	[3, 6, 7]	16.0	catFR1	0	R1069M
884.758	0.01	464375	STOP	n/a	n/a	n/a	n/a	-999	7	[-999, -999, -999]	n/a	catFR1	0	R1069M
884.768	1.167	464380	DISTRACT_END	n/a	n/a	n/a	n/a	-999	7	[0, 0, 0]	n/a	catFR1	0	R1069M
885.935	1.172	464963	REC_START	n/a	n/a	n/a	n/a	-999	7	[0, 0, 0]	n/a	catFR1	0	R1069M
887.107	1.986	465549	REC_WORD	1.172	n/a	MOSQUITO	Insects	1	7	[0, 0, 0]	n/a	catFR1	0	R1069M
889.093	7.19	466542	REC_WORD	3.158	n/a	ANT	Insects	2	7	[0, 0, 0]	n/a	catFR1	0	R1069M
896.283	1.539	470137	REC_WORD	10.348	n/a	PLUM	Fruit	4	7	[0, 0, 0]	n/a	catFR1	0	R1069M
897.822	18.123	470906	REC_WORD	11.887	n/a	PEACH	Fruit	12	7	[0, 0, 0]	n/a	catFR1	0	R1069M
915.945	5.879	479967	REC_END	n/a	n/a	n/a	n/a	-999	7	[0, 0, 0]	n/a	catFR1	0	R1069M
921.824	10.0	482906	COUNTDOWN_START	n/a	n/a	n/a	n/a	-999	8	[0, 0, 0]	n/a	catFR1	0	R1069M
921.825	10.427	482907	TRIAL	n/a	n/a	n/a	n/a	-999	8	[0, 0, 0]	n/a	catFR1	0	R1069M
932.252	0.009	488120	COUNTDOWN_END	n/a	n/a	n/a	n/a	-999	8	[0, 0, 0]	n/a	catFR1	0	R1069M
932.261	1.6	488124	ORIENT	n/a	n/a	n/a	n/a	-999	8	[0, 0, 0]	n/a	catFR1	0	R1069M
935.877	1.6	489932	WORD	n/a	wordpools/wordpool_categorized_EN.txt	CHIMPANZEE	Zoo	1	8	[0, 0, 0]	n/a	catFR1	0	R1069M
938.378	1.6	491182	WORD	n/a	wordpools/wordpool_categorized_EN.txt	GORILLA	Zoo	2	8	[0, 0, 0]	n/a	catFR1	0	R1069M
940.845	1.6	492416	WORD	n/a	wordpools/wordpool_categorized_EN.txt	CRAB	OceanAnimals	3	8	[0, 0, 0]	n/a	catFR1	0	R1069M
943.313	1.6	493650	WORD	n/a	wordpools/wordpool_categorized_EN.txt	SQUID	OceanAnimals	4	8	[0, 0, 0]	n/a	catFR1	0	R1069M
945.713	1.6	494850	WORD	n/a	wordpools/wordpool_categorized_EN.txt	MOUSSE	Desserts	5	8	[0, 0, 0]	n/a	catFR1	0	R1069M
948.33	1.6	496158	WORD	n/a	wordpools/wordpool_categorized_EN.txt	FUDGE	Desserts	6	8	[0, 0, 0]	n/a	catFR1	0	R1069M
950.78	1.6	497383	WORD	n/a	wordpools/wordpool_categorized_EN.txt	ELEPHANT	Zoo	7	8	[0, 0, 0]	n/a	catFR1	0	R1069M
953.165	1.6	498575	WORD	n/a	wordpools/wordpool_categorized_EN.txt	BEAR	Zoo	8	8	[0, 0, 0]	n/a	catFR1	0	R1069M
955.731	1.6	499858	WORD	n/a	wordpools/wordpool_categorized_EN.txt	PIE	Desserts	9	8	[0, 0, 0]	n/a	catFR1	0	R1069M
958.199	1.6	501092	WORD	n/a	wordpools/wordpool_categorized_EN.txt	JELLO	Desserts	10	8	[0, 0, 0]	n/a	catFR1	0	R1069M
960.766	1.6	502376	WORD	n/a	wordpools/wordpool_categorized_EN.txt	TURTLE	OceanAnimals	11	8	[0, 0, 0]	n/a	catFR1	0	R1069M
963.366	1.6	503675	WORD	n/a	wordpools/wordpool_categorized_EN.txt	OCTOPUS	OceanAnimals	12	8	[0, 0, 0]	n/a	catFR1	0	R1069M
964.983	0.001	504484	DISTRACT_START	n/a	n/a	n/a	n/a	-999	8	[0, 0, 0]	n/a	catFR1	0	R1069M
964.984	0.016	504484	START	n/a	n/a	n/a	n/a	-999	8	[-999, -999, -999]	n/a	catFR1	0	R1069M
965.0	3.767	504492	PROB	3.741	n/a	n/a	n/a	-999	8	[2, 8, 2]	12.0	catFR1	0	R1069M
968.767	3.252	506376	PROB	3.23	n/a	n/a	n/a	-999	8	[6, 6, 9]	21.0	catFR1	0	R1069M
972.019	2.399	508002	PROB	2.37	n/a	n/a	n/a	-999	8	[7, 2, 2]	11.0	catFR1	0	R1069M
974.418	3.167	509201	PROB	3.132	n/a	n/a	n/a	-999	8	[6, 9, 4]	19.0	catFR1	0	R1069M
977.585	3.168	510784	PROB	3.14	n/a	n/a	n/a	-999	8	[8, 3, 6]	17.0	catFR1	0	R1069M
980.753	3.418	512368	PROB	3.382	n/a	n/a	n/a	-999	8	[2, 1, 5]	8.0	catFR1	0	R1069M
984.171	3.044	514077	PROB	3.044	n/a	n/a	n/a	-999	8	[8, 1, 3]	12.0	catFR1	0	R1069M
987.215	0.007	515599	STOP	n/a	n/a	n/a	n/a	-999	8	[-999, -999, -999]	n/a	catFR1	0	R1069M
987.222	1.199	515602	DISTRACT_END	n/a	n/a	n/a	n/a	-999	8	[0, 0, 0]	n/a	catFR1	0	R1069M
988.421	1.153	516202	REC_START	n/a	n/a	n/a	n/a	-999	8	[0, 0, 0]	n/a	catFR1	0	R1069M
989.574	1.567	516778	REC_WORD	1.153	n/a	MOUSSE	Desserts	5	8	[0, 0, 0]	n/a	catFR1	0	R1069M
991.141	2.576	517562	REC_WORD	2.72	n/a	JELLO	Desserts	10	8	[0, 0, 0]	n/a	catFR1	0	R1069M
993.717	2.207	518850	REC_WORD	5.296	n/a	BEAR	Zoo	8	8	[0, 0, 0]	n/a	catFR1	0	R1069M
995.924	2.009	519953	REC_WORD	7.503	n/a	SQUID	OceanAnimals	4	8	[0, 0, 0]	n/a	catFR1	0	R1069M
997.933	3.743	520957	REC_WORD	9.512	n/a	CRAB	OceanAnimals	3	8	[0, 0, 0]	n/a	catFR1	0	R1069M
1001.676	16.755	522829	REC_WORD	13.255	n/a	OCTOPUS	OceanAnimals	12	8	[0, 0, 0]	n/a	catFR1	0	R1069M
1018.431	6.097	531206	REC_END	n/a	n/a	n/a	n/a	-999	8	[0, 0, 0]	n/a	catFR1	0	R1069M
1024.528	0.0	534254	TRIAL	n/a	n/a	n/a	n/a	-999	9	[0, 0, 0]	n/a	catFR1	0	R1069M
1024.528	10.0	534254	COUNTDOWN_START	n/a	n/a	n/a	n/a	-999	9	[0, 0, 0]	n/a	catFR1	0	R1069M
1034.956	0.007	539467	COUNTDOWN_END	n/a	n/a	n/a	n/a	-999	9	[0, 0, 0]	n/a	catFR1	0	R1069M
1034.963	1.6	539471	ORIENT	n/a	n/a	n/a	n/a	-999	9	[0, 0, 0]	n/a	catFR1	0	R1069M
1038.914	1.6	541446	WORD	n/a	wordpools/wordpool_categorized_EN.txt	NIGHTSTAND	Furniture	1	9	[0, 0, 0]	n/a	catFR1	0	R1069M
1041.398	1.6	542688	WORD	n/a	wordpools/wordpool_categorized_EN.txt	COUCH	Furniture	2	9	[0, 0, 0]	n/a	catFR1	0	R1069M
1043.882	1.6	543930	WORD	n/a	wordpools/wordpool_categorized_EN.txt	LADLE	KitchenTools	3	9	[0, 0, 0]	n/a	catFR1	0	R1069M
1046.499	1.6	545238	WORD	n/a	wordpools/wordpool_categorized_EN.txt	CORKSCREW	KitchenTools	4	9	[0, 0, 0]	n/a	catFR1	0	R1069M
1048.933	1.6	546455	WORD	n/a	wordpools/wordpool_categorized_EN.txt	WINDOW	Building	5	9	[0, 0, 0]	n/a	catFR1	0	R1069M
1051.5	1.6	547739	WORD	n/a	wordpools/wordpool_categorized_EN.txt	CEILING	Building	6	9	[0, 0, 0]	n/a	catFR1	0	R1069M
1053.917	1.6	548947	WORD	n/a	wordpools/wordpool_categorized_EN.txt	TONGS	KitchenTools	7	9	[0, 0, 0]	n/a	catFR1	0	R1069M
1056.367	1.6	550172	WORD	n/a	wordpools/wordpool_categorized_EN.txt	GRATER	KitchenTools	8	9	[0, 0, 0]	n/a	catFR1	0	R1069M
1058.801	1.6	551389	WORD	n/a	wordpools/wordpool_categorized_EN.txt	RECLINER	Furniture	9	9	[0, 0, 0]	n/a	catFR1	0	R1069M
1061.335	1.6	552656	WORD	n/a	wordpools/wordpool_categorized_EN.txt	TABLE	Furniture	10	9	[0, 0, 0]	n/a	catFR1	0	R1069M
1063.935	1.6	553956	WORD	n/a	wordpools/wordpool_categorized_EN.txt	FOUNDATION	Building	11	9	[0, 0, 0]	n/a	catFR1	0	R1069M
1066.486	1.6	555231	WORD	n/a	wordpools/wordpool_categorized_EN.txt	ATTIC	Building	12	9	[0, 0, 0]	n/a	catFR1	0	R1069M
1068.087	0.001	556031	DISTRACT_START	n/a	n/a	n/a	n/a	-999	9	[0, 0, 0]	n/a	catFR1	0	R1069M
1068.088	0.016	556032	START	n/a	n/a	n/a	n/a	-999	9	[-999, -999, -999]	n/a	catFR1	0	R1069M
1068.104	5.467	556040	PROB	5.438	n/a	n/a	n/a	-999	9	[3, 6, 6]	15.0	catFR1	0	R1069M
1073.571	3.668	558773	PROB	3.635	n/a	n/a	n/a	-999	9	[2, 8, 8]	18.0	catFR1	0	R1069M
1077.239	3.65	560607	PROB	3.615	n/a	n/a	n/a	-999	9	[6, 1, 6]	13.0	catFR1	0	R1069M
1080.889	2.634	562432	PROB	2.612	n/a	n/a	n/a	-999	9	[2, 8, 6]	16.0	catFR1	0	R1069M
1083.523	2.217	563749	PROB	2.194	n/a	n/a	n/a	-999	9	[1, 9, 2]	12.0	catFR1	0	R1069M
1085.74	2.865	564857	PROB	2.865	n/a	n/a	n/a	-999	9	[9, 4, 2]	15.0	catFR1	0	R1069M
1088.605	0.019	566290	STOP	n/a	n/a	n/a	n/a	-999	9	[-999, -999, -999]	n/a	catFR1	0	R1069M
1088.624	1.184	566299	DISTRACT_END	n/a	n/a	n/a	n/a	-999	9	[0, 0, 0]	n/a	catFR1	0	R1069M
1089.808	0.894	566891	REC_START	n/a	n/a	n/a	n/a	-999	9	[0, 0, 0]	n/a	catFR1	0	R1069M
1090.702	1.691	567338	REC_WORD	0.894	n/a	NIGHTSTAND	Furniture	1	9	[0, 0, 0]	n/a	catFR1	0	R1069M
1092.393	2.062	568183	REC_WORD	2.585	n/a	COUCH	Furniture	2	9	[0, 0, 0]	n/a	catFR1	0	R1069M
1094.455	1.834	569214	REC_WORD	4.647	n/a	GRATER	KitchenTools	8	9	[0, 0, 0]	n/a	catFR1	0	R1069M
1096.289	5.786	570131	REC_WORD	6.481	n/a	CORKSCREW	KitchenTools	4	9	[0, 0, 0]	n/a	catFR1	0	R1069M
1102.075	17.743	573024	REC_WORD	12.267	n/a	FOUNDATION	Building	11	9	[0, 0, 0]	n/a	catFR1	0	R1069M
1119.818	5.862	581895	REC_END	n/a	n/a	n/a	n/a	-999	9	[0, 0, 0]	n/a	catFR1	0	R1069M
1125.68	10.0	584826	COUNTDOWN_START	n/a	n/a	n/a	n/a	-999	10	[0, 0, 0]	n/a	catFR1	0	R1069M
1125.681	10.427	584826	TRIAL	n/a	n/a	n/a	n/a	-999	10	[0, 0, 0]	n/a	catFR1	0	R1069M
1136.108	0.009	590039	COUNTDOWN_END	n/a	n/a	n/a	n/a	-999	10	[0, 0, 0]	n/a	catFR1	0	R1069M
1136.117	1.6	590044	ORIENT	n/a	n/a	n/a	n/a	-999	10	[0, 0, 0]	n/a	catFR1	0	R1069M
1140.068	1.6	592019	WORD	n/a	wordpools/wordpool_categorized_EN.txt	HUMIDITY	Weather	1	10	[0, 0, 0]	n/a	catFR1	0	R1069M
1142.651	1.6	593310	WORD	n/a	wordpools/wordpool_categorized_EN.txt	HURRICANE	Weather	2	10	[0, 0, 0]	n/a	catFR1	0	R1069M
1145.202	1.6	594586	WORD	n/a	wordpools/wordpool_categorized_EN.txt	SHIRT	Clothing	3	10	[0, 0, 0]	n/a	catFR1	0	R1069M
1147.718	1.6	595844	WORD	n/a	wordpools/wordpool_categorized_EN.txt	SHOES	Clothing	4	10	[0, 0, 0]	n/a	catFR1	0	R1069M
1150.27	1.6	597120	WORD	n/a	wordpools/wordpool_categorized_EN.txt	HEN	FarmAnimals	5	10	[0, 0, 0]	n/a	catFR1	0	R1069M
1152.786	1.6	598377	WORD	n/a	wordpools/wordpool_categorized_EN.txt	SHEEP	FarmAnimals	6	10	[0, 0, 0]	n/a	catFR1	0	R1069M
1155.204	1.6	599586	WORD	n/a	wordpools/wordpool_categorized_EN.txt	SOCKS	Clothing	7	10	[0, 0, 0]	n/a	catFR1	0	R1069M
1157.804	1.6	600886	WORD	n/a	wordpools/wordpool_categorized_EN.txt	DRESS	Clothing	8	10	[0, 0, 0]	n/a	catFR1	0	R1069M
1160.388	1.6	602178	WORD	n/a	wordpools/wordpool_categorized_EN.txt	WIND	Weather	9	10	[0, 0, 0]	n/a	catFR1	0	R1069M
1162.821	1.6	603395	WORD	n/a	wordpools/wordpool_categorized_EN.txt	DRIZZLE	Weather	10	10	[0, 0, 0]	n/a	catFR1	0	R1069M
1165.273	1.6	604620	WORD	n/a	wordpools/wordpool_categorized_EN.txt	ROOSTER	FarmAnimals	11	10	[0, 0, 0]	n/a	catFR1	0	R1069M
1167.706	1.6	605837	WORD	n/a	wordpools/wordpool_categorized_EN.txt	HORSE	FarmAnimals	12	10	[0, 0, 0]	n/a	catFR1	0	R1069M
1169.324	0.001	606646	DISTRACT_START	n/a	n/a	n/a	n/a	-999	10	[0, 0, 0]	n/a	catFR1	0	R1069M
1169.325	0.014	606646	START	n/a	n/a	n/a	n/a	-999	10	[-999, -999, -999]	n/a	catFR1	0	R1069M
1169.339	4.034	606653	PROB	4.002	n/a	n/a	n/a	-999	10	[4, 5, 4]	13.0	catFR1	0	R1069M
1173.373	3.351	608670	PROB	3.32	n/a	n/a	n/a	-999	10	[9, 7, 8]	24.0	catFR1	0	R1069M
1176.724	2.817	610345	PROB	2.785	n/a	n/a	n/a	-999	10	[2, 4, 2]	8.0	catFR1	0	R1069M
1179.541	3.168	611754	PROB	3.136	n/a	n/a	n/a	-999	10	[7, 2, 1]	10.0	catFR1	0	R1069M
1182.709	3.501	613338	PROB	3.473	n/a	n/a	n/a	-999	10	[9, 2, 3]	14.0	catFR1	0	R1069M
1186.21	3.219	615088	PROB	3.219	n/a	n/a	n/a	-999	10	[1, 7, 3]	11.0	catFR1	0	R1069M
1189.429	0.014	616697	STOP	n/a	n/a	n/a	n/a	-999	10	[-999, -999, -999]	n/a	catFR1	0	R1069M
1189.443	1.201	616704	DISTRACT_END	n/a	n/a	n/a	n/a	-999	10	[0, 0, 0]	n/a	catFR1	0	R1069M
1190.644	1.104	617305	REC_START	n/a	n/a	n/a	n/a	-999	10	[0, 0, 0]	n/a	catFR1	0	R1069M
1191.748	1.65	617857	REC_WORD	1.104	n/a	HURRICANE	Weather	2	10	[0, 0, 0]	n/a	catFR1	0	R1069M
1193.398	1.617	618682	REC_WORD	2.754	n/a	HUMIDITY	Weather	1	10	[0, 0, 0]	n/a	catFR1	0	R1069M
1195.015	1.729	619490	REC_WORD	4.371	n/a	SHEEP	FarmAnimals	6	10	[0, 0, 0]	n/a	catFR1	0	R1069M
1196.744	1.608	620355	REC_WORD	6.1	n/a	ROOSTER	FarmAnimals	11	10	[0, 0, 0]	n/a	catFR1	0	R1069M
1198.352	4.727	621159	REC_WORD	7.708	n/a	DRIZZLE	Weather	10	10	[0, 0, 0]	n/a	catFR1	0	R1069M
1203.079	1.787	623522	REC_WORD	12.435	n/a	SHOES	Clothing	4	10	[0, 0, 0]	n/a	catFR1	0	R1069M
1204.866	4.273	624415	REC_WORD	14.222	n/a	SOCKS	Clothing	7	10	[0, 0, 0]	n/a	catFR1	0	R1069M
1209.139	11.515	626552	REC_WORD	18.495	n/a	SHIRT	Clothing	3	10	[0, 0, 0]	n/a	catFR1	0	R1069M
1220.654	7.046	632309	REC_END	n/a	n/a	n/a	n/a	-999	10	[0, 0, 0]	n/a	catFR1	0	R1069M
1227.7	10.0	635831	COUNTDOWN_START	n/a	n/a	n/a	n/a	-999	11	[0, 0, 0]	n/a	catFR1	0	R1069M
1227.701	10.427	635832	TRIAL	n/a	n/a	n/a	n/a	-999	11	[0, 0, 0]	n/a	catFR1	0	R1069M
1238.128	0.009	641045	COUNTDOWN_END	n/a	n/a	n/a	n/a	-999	11	[0, 0, 0]	n/a	catFR1	0	R1069M
1238.137	1.6	641049	ORIENT	n/a	n/a	n/a	n/a	-999	11	[0, 0, 0]	n/a	catFR1	0	R1069M
1241.97	1.6	642966	WORD	n/a	wordpools/wordpool_categorized_EN.txt	TROMBONE	Instruments	1	11	[0, 0, 0]	n/a	catFR1	0	R1069M
1244.587	1.6	644274	WORD	n/a	wordpools/wordpool_categorized_EN.txt	CELLO	Instruments	2	11	[0, 0, 0]	n/a	catFR1	0	R1069M
1247.172	1.6	645566	WORD	n/a	wordpools/wordpool_categorized_EN.txt	TABLET	Electronics	3	11	[0, 0, 0]	n/a	catFR1	0	R1069M
1249.705	1.6	646833	WORD	n/a	wordpools/wordpool_categorized_EN.txt	RADIO	Electronics	4	11	[0, 0, 0]	n/a	catFR1	0	R1069M
1252.156	1.6	648058	WORD	n/a	wordpools/wordpool_categorized_EN.txt	BEACH	Landscapes	5	11	[0, 0, 0]	n/a	catFR1	0	R1069M
1254.622	1.6	649291	WORD	n/a	wordpools/wordpool_categorized_EN.txt	ISLAND	Landscapes	6	11	[0, 0, 0]	n/a	catFR1	0	R1069M
1256.989	1.6	650475	WORD	n/a	wordpools/wordpool_categorized_EN.txt	ORGAN	Instruments	7	11	[0, 0, 0]	n/a	catFR1	0	R1069M
1259.49	1.6	651725	WORD	n/a	wordpools/wordpool_categorized_EN.txt	GUITAR	Instruments	8	11	[0, 0, 0]	n/a	catFR1	0	R1069M
1262.075	1.6	653017	WORD	n/a	wordpools/wordpool_categorized_EN.txt	OCEAN	Landscapes	9	11	[0, 0, 0]	n/a	catFR1	0	R1069M
1264.541	1.6	654250	WORD	n/a	wordpools/wordpool_categorized_EN.txt	FOREST	Landscapes	10	11	[0, 0, 0]	n/a	catFR1	0	R1069M
1266.991	1.6	655475	WORD	n/a	wordpools/wordpool_categorized_EN.txt	HEADPHONES	Electronics	11	11	[0, 0, 0]	n/a	catFR1	0	R1069M
1269.425	1.6	656692	WORD	n/a	wordpools/wordpool_categorized_EN.txt	PHONE	Electronics	12	11	[0, 0, 0]	n/a	catFR1	0	R1069M
1271.043	0.001	657501	DISTRACT_START	n/a	n/a	n/a	n/a	-999	11	[0, 0, 0]	n/a	catFR1	0	R1069M
1271.044	0.016	657501	START	n/a	n/a	n/a	n/a	-999	11	[-999, -999, -999]	n/a	catFR1	0	R1069M
1271.06	5.268	657509	PROB	5.234	n/a	n/a	n/a	-999	11	[2, 6, 2]	10.0	catFR1	0	R1069M
1276.328	2.149	660143	PROB	2.125	n/a	n/a	n/a	-999	11	[3, 6, 2]	11.0	catFR1	0	R1069M
1278.477	3.384	661218	PROB	3.36	n/a	n/a	n/a	-999	11	[9, 7, 1]	17.0	catFR1	0	R1069M
1281.861	2.967	662910	PROB	2.936	n/a	n/a	n/a	-999	11	[7, 3, 8]	18.0	catFR1	0	R1069M
1284.828	2.684	664393	PROB	2.65	n/a	n/a	n/a	-999	11	[6, 1, 5]	12.0	catFR1	0	R1069M
1287.512	2.901	665735	PROB	2.877	n/a	n/a	n/a	-999	11	[5, 3, 1]	9.0	catFR1	0	R1069M
1290.413	2.536	667185	PROB	2.536	n/a	n/a	n/a	-999	11	[4, 2, 5]	11.0	catFR1	0	R1069M
1292.949	0.014	668453	STOP	n/a	n/a	n/a	n/a	-999	11	[-999, -999, -999]	n/a	catFR1	0	R1069M
1292.963	1.169	668460	DISTRACT_END	n/a	n/a	n/a	n/a	-999	11	[0, 0, 0]	n/a	catFR1	0	R1069M
1294.132	1.048	669045	REC_START	n/a	n/a	n/a	n/a	-999	11	[0, 0, 0]	n/a	catFR1	0	R1069M
1295.18	1.451	669568	REC_WORD	1.048	n/a	TROMBONE	Instruments	1	11	[0, 0, 0]	n/a	catFR1	0	R1069M
1296.631	1.438	670294	REC_WORD	2.499	n/a	CELLO	Instruments	2	11	[0, 0, 0]	n/a	catFR1	0	R1069M
1298.069	1.905	671013	REC_WORD	3.937	n/a	GUITAR	Instruments	8	11	[0, 0, 0]	n/a	catFR1	0	R1069M
1299.974	7.444	671965	REC_WORD	5.842	n/a	OCEAN	Landscapes	9	11	[0, 0, 0]	n/a	catFR1	0	R1069M
1307.418	15.671	675687	REC_WORD	13.286	n/a	BEACH	Landscapes	5	11	[0, 0, 0]	n/a	catFR1	0	R1069M
1323.089	1.055	683522	REC_WORD	28.957	n/a	ISLAND	Landscapes	6	11	[0, 0, 0]	n/a	catFR1	0	R1069M
1324.144	16.129	684049	REC_END	n/a	n/a	n/a	n/a	-999	11	[0, 0, 0]	n/a	catFR1	0	R1069M
1340.273	10.0	692113	COUNTDOWN_START	n/a	n/a	n/a	n/a	-999	12	[0, 0, 0]	n/a	catFR1	0	R1069M
1340.274	10.427	692114	TRIAL	n/a	n/a	n/a	n/a	-999	12	[0, 0, 0]	n/a	catFR1	0	R1069M
1350.701	0.007	697327	COUNTDOWN_END	n/a	n/a	n/a	n/a	-999	12	[0, 0, 0]	n/a	catFR1	0	R1069M
1350.708	1.6	697330	ORIENT	n/a	n/a	n/a	n/a	-999	12	[0, 0, 0]	n/a	catFR1	0	R1069M
1354.425	1.6	699188	WORD	n/a	wordpools/wordpool_categorized_EN.txt	WALL	Building	1	12	[0, 0, 0]	n/a	catFR1	0	R1069M
1357.026	1.6	700489	WORD	n/a	wordpools/wordpool_categorized_EN.txt	ROOM	Building	2	12	[0, 0, 0]	n/a	catFR1	0	R1069M
1359.476	1.6	701714	WORD	n/a	wordpools/wordpool_categorized_EN.txt	MONKEY	Zoo	3	12	[0, 0, 0]	n/a	catFR1	0	R1069M
1361.843	1.6	702897	WORD	n/a	wordpools/wordpool_categorized_EN.txt	ORANGUTAN	Zoo	4	12	[0, 0, 0]	n/a	catFR1	0	R1069M
1364.245	1.6	704098	WORD	n/a	wordpools/wordpool_categorized_EN.txt	ORANGE	Fruit	5	12	[0, 0, 0]	n/a	catFR1	0	R1069M
1366.727	1.6	705339	WORD	n/a	wordpools/wordpool_categorized_EN.txt	GRAPE	Fruit	6	12	[0, 0, 0]	n/a	catFR1	0	R1069M
1369.295	1.6	706623	WORD	n/a	wordpools/wordpool_categorized_EN.txt	TIGER	Zoo	7	12	[0, 0, 0]	n/a	catFR1	0	R1069M
1371.745	1.6	707848	WORD	n/a	wordpools/wordpool_categorized_EN.txt	LION	Zoo	8	12	[0, 0, 0]	n/a	catFR1	0	R1069M
1374.313	1.6	709132	WORD	n/a	wordpools/wordpool_categorized_EN.txt	BATHROOM	Building	9	12	[0, 0, 0]	n/a	catFR1	0	R1069M
1376.729	1.6	710340	WORD	n/a	wordpools/wordpool_categorized_EN.txt	FLOOR	Building	10	12	[0, 0, 0]	n/a	catFR1	0	R1069M
1379.264	1.6	711607	WORD	n/a	wordpools/wordpool_categorized_EN.txt	LIME	Fruit	11	12	[0, 0, 0]	n/a	catFR1	0	R1069M
1381.797	1.6	712873	WORD	n/a	wordpools/wordpool_categorized_EN.txt	LEMON	Fruit	12	12	[0, 0, 0]	n/a	catFR1	0	R1069M
1383.414	0.001	713682	DISTRACT_START	n/a	n/a	n/a	n/a	-999	12	[0, 0, 0]	n/a	catFR1	0	R1069M
1383.415	0.016	713682	START	n/a	n/a	n/a	n/a	-999	12	[-999, -999, -999]	n/a	catFR1	0	R1069M
1383.431	3.367	713690	PROB	3.335	n/a	n/a	n/a	-999	12	[8, 6, 8]	22.0	catFR1	0	R1069M
1386.798	2.75	715374	PROB	2.727	n/a	n/a	n/a	-999	12	[7, 2, 8]	17.0	catFR1	0	R1069M
1389.548	3.401	716749	PROB	3.377	n/a	n/a	n/a	-999	12	[7, 8, 1]	16.0	catFR1	0	R1069M
1392.949	3.384	718449	PROB	3.353	n/a	n/a	n/a	-999	12	[2, 6, 7]	15.0	catFR1	0	R1069M
1396.333	4.719	720141	PROB	4.69	n/a	n/a	n/a	-999	12	[6, 8, 1]	15.0	catFR1	0	R1069M
1401.052	4.825	722500	PROB	4.825	n/a	n/a	n/a	-999	12	[8, 7, 5]	20.0	catFR1	0	R1069M
1405.877	0.008	724912	STOP	n/a	n/a	n/a	n/a	-999	12	[-999, -999, -999]	n/a	catFR1	0	R1069M
1405.885	1.034	724916	DISTRACT_END	n/a	n/a	n/a	n/a	-999	12	[0, 0, 0]	n/a	catFR1	0	R1069M
1406.919	1.415	725433	REC_START	n/a	n/a	n/a	n/a	-999	12	[0, 0, 0]	n/a	catFR1	0	R1069M
1408.334	1.919	726141	REC_WORD	1.415	n/a	ORANGUTAN	Zoo	4	12	[0, 0, 0]	n/a	catFR1	0	R1069M
1410.253	3.051	727100	REC_WORD	3.334	n/a	MONKEY	Zoo	3	12	[0, 0, 0]	n/a	catFR1	0	R1069M
1413.304	2.883	728626	REC_WORD	6.385	n/a	TIGER	Zoo	7	12	[0, 0, 0]	n/a	catFR1	0	R1069M
1416.187	2.232	730067	REC_WORD	9.268	n/a	LION	Zoo	8	12	[0, 0, 0]	n/a	catFR1	0	R1069M
1418.419	2.035	731183	REC_WORD	11.5	n/a	WALL	Building	1	12	[0, 0, 0]	n/a	catFR1	0	R1069M
1420.454	12.353	732200	REC_WORD	13.535	n/a	ROOM	Building	2	12	[0, 0, 0]	n/a	catFR1	0	R1069M
1432.807	4.106	738376	REC_WORD	25.888	n/a	LEMON	Fruit	12	12	[0, 0, 0]	n/a	catFR1	0	R1069M
1436.913	0.016	740429	REC_WORD	29.994	n/a	LIME	Fruit	11	12	[0, 0, 0]	n/a	catFR1	0	R1069M
1436.929	16.432	740437	REC_END	n/a	n/a	n/a	n/a	-999	12	[0, 0, 0]	n/a	catFR1	0	R1069M
1453.361	0.0	748652	TRIAL	n/a	n/a	n/a	n/a	-999	13	[0, 0, 0]	n/a	catFR1	0	R1069M
1453.361	10.0	748652	COUNTDOWN_START	n/a	n/a	n/a	n/a	-999	13	[0, 0, 0]	n/a	catFR1	0	R1069M
1463.789	0.007	753866	COUNTDOWN_END	n/a	n/a	n/a	n/a	-999	13	[0, 0, 0]	n/a	catFR1	0	R1069M
1463.796	1.6	753869	ORIENT	n/a	n/a	n/a	n/a	-999	13	[0, 0, 0]	n/a	catFR1	0	R1069M
1467.281	1.6	755612	WORD	n/a	wordpools/wordpool_categorized_EN.txt	WOODS	Landscapes	1	13	[0, 0, 0]	n/a	catFR1	0	R1069M
1469.731	1.6	756837	WORD	n/a	wordpools/wordpool_categorized_EN.txt	CREEK	Landscapes	2	13	[0, 0, 0]	n/a	catFR1	0	R1069M
1472.165	1.6	758054	WORD	n/a	wordpools/wordpool_categorized_EN.txt	FOOT	BodyParts	3	13	[0, 0, 0]	n/a	catFR1	0	R1069M
1474.582	1.6	759262	WORD	n/a	wordpools/wordpool_categorized_EN.txt	EAR	BodyParts	4	13	[0, 0, 0]	n/a	catFR1	0	R1069M
1477.1	1.6	760521	WORD	n/a	wordpools/wordpool_categorized_EN.txt	ROACH	Insects	5	13	[0, 0, 0]	n/a	catFR1	0	R1069M
1479.582	1.6	761762	WORD	n/a	wordpools/wordpool_categorized_EN.txt	BEE	Insects	6	13	[0, 0, 0]	n/a	catFR1	0	R1069M
1482.134	1.6	763038	WORD	n/a	wordpools/wordpool_categorized_EN.txt	VALLEY	Landscapes	7	13	[0, 0, 0]	n/a	catFR1	0	R1069M
1484.733	1.6	764337	WORD	n/a	wordpools/wordpool_categorized_EN.txt	MOUNTAIN	Landscapes	8	13	[0, 0, 0]	n/a	catFR1	0	R1069M
1487.185	1.6	765563	WORD	n/a	wordpools/wordpool_categorized_EN.txt	LADYBUG	Insects	9	13	[0, 0, 0]	n/a	catFR1	0	R1069M
1489.634	1.6	766787	WORD	n/a	wordpools/wordpool_categorized_EN.txt	CRICKET	Insects	10	13	[0, 0, 0]	n/a	catFR1	0	R1069M
1492.153	1.6	768047	WORD	n/a	wordpools/wordpool_categorized_EN.txt	ARM	BodyParts	11	13	[0, 0, 0]	n/a	catFR1	0	R1069M
1494.535	1.6	769238	WORD	n/a	wordpools/wordpool_categorized_EN.txt	EYE	BodyParts	12	13	[0, 0, 0]	n/a	catFR1	0	R1069M
1496.136	0.001	770038	DISTRACT_START	n/a	n/a	n/a	n/a	-999	13	[0, 0, 0]	n/a	catFR1	0	R1069M
1496.137	0.016	770039	START	n/a	n/a	n/a	n/a	-999	13	[-999, -999, -999]	n/a	catFR1	0	R1069M
1496.153	4.55	770047	PROB	4.517	n/a	n/a	n/a	-999	13	[6, 3, 3]	12.0	catFR1	0	R1069M
1500.703	4.201	772321	PROB	4.175	n/a	n/a	n/a	-999	13	[3, 5, 6]	14.0	catFR1	0	R1069M
1504.904	3.884	774422	PROB	3.862	n/a	n/a	n/a	-999	13	[6, 5, 9]	20.0	catFR1	0	R1069M
1508.788	3.402	776363	PROB	3.379	n/a	n/a	n/a	-999	13	[5, 2, 9]	16.0	catFR1	0	R1069M
1512.19	2.533	778064	PROB	2.512	n/a	n/a	n/a	-999	13	[2, 1, 1]	4.0	catFR1	0	R1069M
1514.723	4.634	779331	PROB	4.634	n/a	n/a	n/a	-999	13	[4, 4, 6]	14.0	catFR1	0	R1069M
1519.357	0.017	781648	STOP	n/a	n/a	n/a	n/a	-999	13	[-999, -999, -999]	n/a	catFR1	0	R1069M
1519.374	1.067	781656	DISTRACT_END	n/a	n/a	n/a	n/a	-999	13	[0, 0, 0]	n/a	catFR1	0	R1069M
1520.441	1.052	782190	REC_START	n/a	n/a	n/a	n/a	-999	13	[0, 0, 0]	n/a	catFR1	0	R1069M
1521.493	1.204	782715	REC_WORD	1.052	n/a	WOODS	Landscapes	1	13	[0, 0, 0]	n/a	catFR1	0	R1069M
1522.697	1.551	783317	REC_WORD	2.256	n/a	CREEK	Landscapes	2	13	[0, 0, 0]	n/a	catFR1	0	R1069M
1524.248	1.762	784093	REC_WORD	3.807	n/a	FOOT	BodyParts	3	13	[0, 0, 0]	n/a	catFR1	0	R1069M
1526.01	5.723	784974	REC_WORD	5.569	n/a	EAR	BodyParts	4	13	[0, 0, 0]	n/a	catFR1	0	R1069M
1531.733	4.302	787835	REC_WORD	11.292	n/a	ROACH	Insects	5	13	[0, 0, 0]	n/a	catFR1	0	R1069M
1536.035	14.416	789986	REC_WORD	15.594	n/a	BEE	Insects	6	13	[0, 0, 0]	n/a	catFR1	0	R1069M
1550.451	5.831	797193	REC_END	n/a	n/a	n/a	n/a	-999	13	[0, 0, 0]	n/a	catFR1	0	R1069M
1556.282	10.0	800109	COUNTDOWN_START	n/a	n/a	n/a	n/a	-999	14	[0, 0, 0]	n/a	catFR1	0	R1069M
1556.282	10.428	800109	TRIAL	n/a	n/a	n/a	n/a	-999	14	[0, 0, 0]	n/a	catFR1	0	R1069M
1566.71	0.006	805322	COUNTDOWN_END	n/a	n/a	n/a	n/a	-999	14	[0, 0, 0]	n/a	catFR1	0	R1069M
1566.716	1.6	805325	ORIENT	n/a	n/a	n/a	n/a	-999	14	[0, 0, 0]	n/a	catFR1	0	R1069M
1570.467	1.6	807200	WORD	n/a	wordpools/wordpool_categorized_EN.txt	STEREO	Electronics	1	14	[0, 0, 0]	n/a	catFR1	0	R1069M
1572.867	1.6	808400	WORD	n/a	wordpools/wordpool_categorized_EN.txt	TELEVISION	Electronics	2	14	[0, 0, 0]	n/a	catFR1	0	R1069M
1575.285	1.6	809609	WORD	n/a	wordpools/wordpool_categorized_EN.txt	THUNDERSTORM	Weather	3	14	[0, 0, 0]	n/a	catFR1	0	R1069M
1577.868	1.6	810901	WORD	n/a	wordpools/wordpool_categorized_EN.txt	THUNDER	Weather	4	14	[0, 0, 0]	n/a	catFR1	0	R1069M
1580.435	1.6	812184	WORD	n/a	wordpools/wordpool_categorized_EN.txt	BARBIE	Toys	5	14	[0, 0, 0]	n/a	catFR1	0	R1069M
1582.969	1.6	813451	WORD	n/a	wordpools/wordpool_categorized_EN.txt	DOLLHOUSE	Toys	6	14	[0, 0, 0]	n/a	catFR1	0	R1069M
1585.37	1.6	814651	WORD	n/a	wordpools/wordpool_categorized_EN.txt	LIGHTNING	Weather	7	14	[0, 0, 0]	n/a	catFR1	0	R1069M
1587.903	1.6	815918	WORD	n/a	wordpools/wordpool_categorized_EN.txt	FOG	Weather	8	14	[0, 0, 0]	n/a	catFR1	0	R1069M
1590.371	1.6	817152	WORD	n/a	wordpools/wordpool_categorized_EN.txt	SPEAKER	Electronics	9	14	[0, 0, 0]	n/a	catFR1	0	R1069M
1592.904	1.6	818418	WORD	n/a	wordpools/wordpool_categorized_EN.txt	CALCULATOR	Electronics	10	14	[0, 0, 0]	n/a	catFR1	0	R1069M
1595.388	1.6	819660	WORD	n/a	wordpools/wordpool_categorized_EN.txt	FOOTBALL	Toys	11	14	[0, 0, 0]	n/a	catFR1	0	R1069M
1598.005	1.6	820968	WORD	n/a	wordpools/wordpool_categorized_EN.txt	PUZZLE	Toys	12	14	[0, 0, 0]	n/a	catFR1	0	R1069M
1599.622	0.001	821777	DISTRACT_START	n/a	n/a	n/a	n/a	-999	14	[0, 0, 0]	n/a	catFR1	0	R1069M
1599.623	0.016	821777	START	n/a	n/a	n/a	n/a	-999	14	[-999, -999, -999]	n/a	catFR1	0	R1069M
1599.639	5.469	821785	PROB	5.44	n/a	n/a	n/a	-999	14	[6, 2, 9]	17.0	catFR1	0	R1069M
1605.108	2.466	824519	PROB	2.433	n/a	n/a	n/a	-999	14	[3, 3, 5]	11.0	catFR1	0	R1069M
1607.574	5.384	825752	PROB	5.359	n/a	n/a	n/a	-999	14	[8, 9, 4]	21.0	catFR1	0	R1069M
1612.958	3.252	828444	PROB	3.224	n/a	n/a	n/a	-999	14	[3, 2, 7]	12.0	catFR1	0	R1069M
1616.21	1.984	830070	PROB	1.948	n/a	n/a	n/a	-999	14	[1, 3, 7]	11.0	catFR1	0	R1069M
1618.194	3.643	831062	PROB	3.643	n/a	n/a	n/a	-999	14	[8, 7, 9]	24.0	catFR1	0	R1069M
1621.837	0.006	832883	STOP	n/a	n/a	n/a	n/a	-999	14	[-999, -999, -999]	n/a	catFR1	0	R1069M
1621.843	1.134	832886	DISTRACT_END	n/a	n/a	n/a	n/a	-999	14	[0, 0, 0]	n/a	catFR1	0	R1069M
1622.977	2.839	833453	REC_START	n/a	n/a	n/a	n/a	-999	14	[0, 0, 0]	n/a	catFR1	0	R1069M
1625.816	1.178	834873	REC_WORD	2.839	n/a	THUNDER	Weather	4	14	[0, 0, 0]	n/a	catFR1	0	R1069M
1626.994	1.72	835462	REC_WORD	4.017	n/a	THUNDERSTORM	Weather	3	14	[0, 0, 0]	n/a	catFR1	0	R1069M
1628.714	1.768	836321	REC_WORD	5.737	n/a	LIGHTNING	Weather	7	14	[0, 0, 0]	n/a	catFR1	0	R1069M
1630.482	2.285	837205	REC_WORD	7.505	n/a	BARBIE	Toys	5	14	[0, 0, 0]	n/a	catFR1	0	R1069M
1632.767	2.105	838348	REC_WORD	9.79	n/a	DOLLHOUSE	Toys	6	14	[0, 0, 0]	n/a	catFR1	0	R1069M
1634.872	18.119	839400	REC_WORD	11.895	n/a	PUZZLE	Toys	12	14	[0, 0, 0]	n/a	catFR1	0	R1069M
1652.991	18.296	848459	REC_END	n/a	n/a	n/a	n/a	-999	14	[0, 0, 0]	n/a	catFR1	0	R1069M
1671.287	0.0	857606	TRIAL	n/a	n/a	n/a	n/a	-999	15	[0, 0, 0]	n/a	catFR1	0	R1069M
1671.287	10.0	857606	COUNTDOWN_START	n/a	n/a	n/a	n/a	-999	15	[0, 0, 0]	n/a	catFR1	0	R1069M
1681.715	0.007	862820	COUNTDOWN_END	n/a	n/a	n/a	n/a	-999	15	[0, 0, 0]	n/a	catFR1	0	R1069M
1681.722	1.6	862823	ORIENT	n/a	n/a	n/a	n/a	-999	15	[0, 0, 0]	n/a	catFR1	0	R1069M
1685.606	1.6	864765	WORD	n/a	wordpools/wordpool_categorized_EN.txt	JELLYFISH	OceanAnimals	1	15	[0, 0, 0]	n/a	catFR1	0	R1069M
1688.157	1.6	866040	WORD	n/a	wordpools/wordpool_categorized_EN.txt	DOLPHIN	OceanAnimals	2	15	[0, 0, 0]	n/a	catFR1	0	R1069M
1690.707	1.6	867315	WORD	n/a	wordpools/wordpool_categorized_EN.txt	BANJO	Instruments	3	15	[0, 0, 0]	n/a	catFR1	0	R1069M
1693.208	1.6	868566	WORD	n/a	wordpools/wordpool_categorized_EN.txt	TRUMPET	Instruments	4	15	[0, 0, 0]	n/a	catFR1	0	R1069M
1695.824	1.6	869874	WORD	n/a	wordpools/wordpool_categorized_EN.txt	PEAS	Vegetables	5	15	[0, 0, 0]	n/a	catFR1	0	R1069M
1698.209	1.6	871066	WORD	n/a	wordpools/wordpool_categorized_EN.txt	CELERY	Vegetables	6	15	[0, 0, 0]	n/a	catFR1	0	R1069M
1700.742	1.6	872332	WORD	n/a	wordpools/wordpool_categorized_EN.txt	FISH	OceanAnimals	7	15	[0, 0, 0]	n/a	catFR1	0	R1069M
1703.21	1.6	873566	WORD	n/a	wordpools/wordpool_categorized_EN.txt	SHRIMP	OceanAnimals	8	15	[0, 0, 0]	n/a	catFR1	0	R1069M
1705.809	1.6	874866	WORD	n/a	wordpools/wordpool_categorized_EN.txt	BROCCOLI	Vegetables	9	15	[0, 0, 0]	n/a	catFR1	0	R1069M
1708.211	1.6	876067	WORD	n/a	wordpools/wordpool_categorized_EN.txt	CARROT	Vegetables	10	15	[0, 0, 0]	n/a	catFR1	0	R1069M
1710.761	1.6	877342	WORD	n/a	wordpools/wordpool_categorized_EN.txt	PIANO	Instruments	11	15	[0, 0, 0]	n/a	catFR1	0	R1069M
1713.145	1.6	878533	WORD	n/a	wordpools/wordpool_categorized_EN.txt	VIOLIN	Instruments	12	15	[0, 0, 0]	n/a	catFR1	0	R1069M
1714.761	0.001	879341	DISTRACT_START	n/a	n/a	n/a	n/a	-999	15	[0, 0, 0]	n/a	catFR1	0	R1069M
1714.762	0.016	879342	START	n/a	n/a	n/a	n/a	-999	15	[-999, -999, -999]	n/a	catFR1	0	R1069M
1714.778	4.435	879350	PROB	4.413	n/a	n/a	n/a	-999	15	[3, 9, 1]	13.0	catFR1	0	R1069M
1719.213	3.316	881567	PROB	3.288	n/a	n/a	n/a	-999	15	[9, 9, 2]	20.0	catFR1	0	R1069M
1722.529	2.785	883225	PROB	2.749	n/a	n/a	n/a	-999	15	[6, 8, 7]	21.0	catFR1	0	R1069M
1725.314	4.383	884617	PROB	4.347	n/a	n/a	n/a	-999	15	[4, 9, 2]	15.0	catFR1	0	R1069M
1729.697	2.818	886809	PROB	2.796	n/a	n/a	n/a	-999	15	[6, 2, 3]	11.0	catFR1	0	R1069M
1732.515	2.85	888218	PROB	2.85	n/a	n/a	n/a	-999	15	[1, 2, 4]	7.0	catFR1	0	R1069M
1735.365	0.017	889642	STOP	n/a	n/a	n/a	n/a	-999	15	[-999, -999, -999]	n/a	catFR1	0	R1069M
1735.382	1.101	889651	DISTRACT_END	n/a	n/a	n/a	n/a	-999	15	[0, 0, 0]	n/a	catFR1	0	R1069M
1736.483	1.471	890201	REC_START	n/a	n/a	n/a	n/a	-999	15	[0, 0, 0]	n/a	catFR1	0	R1069M
1737.954	1.995	890937	REC_WORD	1.471	n/a	JELLYFISH	OceanAnimals	1	15	[0, 0, 0]	n/a	catFR1	0	R1069M
1739.949	1.836	891934	REC_WORD	3.466	n/a	DOLPHIN	OceanAnimals	2	15	[0, 0, 0]	n/a	catFR1	0	R1069M
1741.785	4.41	892852	REC_WORD	5.302	n/a	FISH	OceanAnimals	7	15	[0, 0, 0]	n/a	catFR1	0	R1069M
1746.195	10.526	895057	REC_WORD	9.712	n/a	VIOLIN	Instruments	12	15	[0, 0, 0]	n/a	catFR1	0	R1069M
1756.721	1.149	900320	REC_WORD	20.238	n/a	CELERY	Vegetables	6	15	[0, 0, 0]	n/a	catFR1	0	R1069M
1757.87	1.364	900894	REC_WORD	21.387	n/a	BROCCOLI	Vegetables	9	15	[0, 0, 0]	n/a	catFR1	0	R1069M
1759.234	4.971	901576	REC_WORD	22.751	n/a	PEAS	Vegetables	5	15	[0, 0, 0]	n/a	catFR1	0	R1069M
1764.205	2.288	904061	REC_WORD	27.722	n/a	CARROT	Vegetables	10	15	[0, 0, 0]	n/a	catFR1	0	R1069M
1766.493	9.513	905205	REC_END	n/a	n/a	n/a	n/a	-999	15	[0, 0, 0]	n/a	catFR1	0	R1069M
1776.006	10.0	909961	COUNTDOWN_START	n/a	n/a	n/a	n/a	-999	16	[0, 0, 0]	n/a	catFR1	0	R1069M
1776.007	10.427	909962	TRIAL	n/a	n/a	n/a	n/a	-999	16	[0, 0, 0]	n/a	catFR1	0	R1069M
1786.434	0.008	915175	COUNTDOWN_END	n/a	n/a	n/a	n/a	-999	16	[0, 0, 0]	n/a	catFR1	0	R1069M
1786.442	1.6	915179	ORIENT	n/a	n/a	n/a	n/a	-999	16	[0, 0, 0]	n/a	catFR1	0	R1069M
1789.976	1.6	916946	WORD	n/a	wordpools/wordpool_categorized_EN.txt	NOTEBOOK	OfficeSupplies	1	16	[0, 0, 0]	n/a	catFR1	0	R1069M
1792.393	1.6	918154	WORD	n/a	wordpools/wordpool_categorized_EN.txt	STAPLER	OfficeSupplies	2	16	[0, 0, 0]	n/a	catFR1	0	R1069M
1794.91	1.6	919412	WORD	n/a	wordpools/wordpool_categorized_EN.txt	CHEESECAKE	Desserts	3	16	[0, 0, 0]	n/a	catFR1	0	R1069M
1797.295	1.6	920605	WORD	n/a	wordpools/wordpool_categorized_EN.txt	PASTRY	Desserts	4	16	[0, 0, 0]	n/a	catFR1	0	R1069M
1799.844	1.6	921879	WORD	n/a	wordpools/wordpool_categorized_EN.txt	SLINKY	Toys	5	16	[0, 0, 0]	n/a	catFR1	0	R1069M
1802.229	1.6	923072	WORD	n/a	wordpools/wordpool_categorized_EN.txt	BLOCKS	Toys	6	16	[0, 0, 0]	n/a	catFR1	0	R1069M
1804.679	1.6	924297	WORD	n/a	wordpools/wordpool_categorized_EN.txt	ERASER	OfficeSupplies	7	16	[0, 0, 0]	n/a	catFR1	0	R1069M
1807.18	1.6	925547	WORD	n/a	wordpools/wordpool_categorized_EN.txt	TAPE	OfficeSupplies	8	16	[0, 0, 0]	n/a	catFR1	0	R1069M
1809.746	1.6	926830	WORD	n/a	wordpools/wordpool_categorized_EN.txt	MARBLES	Toys	9	16	[0, 0, 0]	n/a	catFR1	0	R1069M
1812.314	1.6	928114	WORD	n/a	wordpools/wordpool_categorized_EN.txt	FRISBEE	Toys	10	16	[0, 0, 0]	n/a	catFR1	0	R1069M
1814.747	1.6	929330	WORD	n/a	wordpools/wordpool_categorized_EN.txt	CUPCAKE	Desserts	11	16	[0, 0, 0]	n/a	catFR1	0	R1069M
1817.149	1.6	930531	WORD	n/a	wordpools/wordpool_categorized_EN.txt	COOKIE	Desserts	12	16	[0, 0, 0]	n/a	catFR1	0	R1069M
1818.765	0.001	931339	DISTRACT_START	n/a	n/a	n/a	n/a	-999	16	[0, 0, 0]	n/a	catFR1	0	R1069M
1818.766	0.015	931339	START	n/a	n/a	n/a	n/a	-999	16	[-999, -999, -999]	n/a	catFR1	0	R1069M
1818.781	3.519	931347	PROB	3.489	n/a	n/a	n/a	-999	16	[2, 7, 3]	12.0	catFR1	0	R1069M
1822.3	2.566	933106	PROB	2.529	n/a	n/a	n/a	-999	16	[8, 1, 4]	13.0	catFR1	0	R1069M
1824.866	4.717	934389	PROB	4.684	n/a	n/a	n/a	-999	16	[6, 2, 7]	15.0	catFR1	0	R1069M
1829.583	2.201	936748	PROB	2.167	n/a	n/a	n/a	-999	16	[3, 8, 1]	12.0	catFR1	0	R1069M
1831.784	3.551	937848	PROB	3.526	n/a	n/a	n/a	-999	16	[9, 4, 7]	20.0	catFR1	0	R1069M
1835.335	3.839	939623	PROB	3.839	n/a	n/a	n/a	-999	16	[6, 8, 6]	20.0	catFR1	0	R1069M
1839.174	0.012	941543	STOP	n/a	n/a	n/a	n/a	-999	16	[-999, -999, -999]	n/a	catFR1	0	R1069M
1839.186	1.118	941549	DISTRACT_END	n/a	n/a	n/a	n/a	-999	16	[0, 0, 0]	n/a	catFR1	0	R1069M
1840.304	1.291	942108	REC_START	n/a	n/a	n/a	n/a	-999	16	[0, 0, 0]	n/a	catFR1	0	R1069M
1841.595	2.137	942753	REC_WORD	1.291	n/a	CHEESECAKE	Desserts	3	16	[0, 0, 0]	n/a	catFR1	0	R1069M
1843.732	2.089	943821	REC_WORD	3.428	n/a	PASTRY	Desserts	4	16	[0, 0, 0]	n/a	catFR1	0	R1069M
1845.821	8.188	944866	REC_WORD	5.517	n/a	COOKIE	Desserts	12	16	[0, 0, 0]	n/a	catFR1	0	R1069M
1854.009	1.909	948960	REC_WORD	13.705	n/a	STAPLER	OfficeSupplies	2	16	[0, 0, 0]	n/a	catFR1	0	R1069M
1855.918	2.924	949914	REC_WORD	15.614	n/a	ERASER	OfficeSupplies	7	16	[0, 0, 0]	n/a	catFR1	0	R1069M
1858.842	11.47	951376	REC_WORD	18.538	n/a	TAPE	OfficeSupplies	8	16	[0, 0, 0]	n/a	catFR1	0	R1069M
1870.312	9.999	957110	REC_END	n/a	n/a	n/a	n/a	-999	16	[0, 0, 0]	n/a	catFR1	0	R1069M
1880.311	0.0	962109	TRIAL	n/a	n/a	n/a	n/a	-999	17	[0, 0, 0]	n/a	catFR1	0	R1069M
1880.311	10.0	962109	COUNTDOWN_START	n/a	n/a	n/a	n/a	-999	17	[0, 0, 0]	n/a	catFR1	0	R1069M
1890.739	0.006	967323	COUNTDOWN_END	n/a	n/a	n/a	n/a	-999	17	[0, 0, 0]	n/a	catFR1	0	R1069M
1890.745	1.6	967326	ORIENT	n/a	n/a	n/a	n/a	-999	17	[0, 0, 0]	n/a	catFR1	0	R1069M
1894.613	1.6	969260	WORD	n/a	wordpools/wordpool_categorized_EN.txt	CLOUD	Weather	1	17	[0, 0, 0]	n/a	catFR1	0	R1069M
1897.181	1.6	970544	WORD	n/a	wordpools/wordpool_categorized_EN.txt	RAIN	Weather	2	17	[0, 0, 0]	n/a	catFR1	0	R1069M
1899.78	1.6	971843	WORD	n/a	wordpools/wordpool_categorized_EN.txt	RIVER	Landscapes	3	17	[0, 0, 0]	n/a	catFR1	0	R1069M
1902.364	1.6	973135	WORD	n/a	wordpools/wordpool_categorized_EN.txt	LAKE	Landscapes	4	17	[0, 0, 0]	n/a	catFR1	0	R1069M
1904.848	1.6	974377	WORD	n/a	wordpools/wordpool_categorized_EN.txt	CHEETAH	Zoo	5	17	[0, 0, 0]	n/a	catFR1	0	R1069M
1907.348	1.6	975627	WORD	n/a	wordpools/wordpool_categorized_EN.txt	ZEBRA	Zoo	6	17	[0, 0, 0]	n/a	catFR1	0	R1069M
1909.899	1.6	976902	WORD	n/a	wordpools/wordpool_categorized_EN.txt	TORNADO	Weather	7	17	[0, 0, 0]	n/a	catFR1	0	R1069M
1912.433	1.6	978169	WORD	n/a	wordpools/wordpool_categorized_EN.txt	SNOW	Weather	8	17	[0, 0, 0]	n/a	catFR1	0	R1069M
1914.966	1.6	979435	WORD	n/a	wordpools/wordpool_categorized_EN.txt	PANDA	Zoo	9	17	[0, 0, 0]	n/a	catFR1	0	R1069M
1917.434	1.6	980669	WORD	n/a	wordpools/wordpool_categorized_EN.txt	GIRAFFE	Zoo	10	17	[0, 0, 0]	n/a	catFR1	0	R1069M
1919.968	1.6	981936	WORD	n/a	wordpools/wordpool_categorized_EN.txt	STREAM	Landscapes	11	17	[0, 0, 0]	n/a	catFR1	0	R1069M
1922.518	1.6	983211	WORD	n/a	wordpools/wordpool_categorized_EN.txt	HILLS	Landscapes	12	17	[0, 0, 0]	n/a	catFR1	0	R1069M
1924.119	0.001	984012	DISTRACT_START	n/a	n/a	n/a	n/a	-999	17	[0, 0, 0]	n/a	catFR1	0	R1069M
1924.12	0.016	984012	START	n/a	n/a	n/a	n/a	-999	17	[-999, -999, -999]	n/a	catFR1	0	R1069M
1924.136	5.25	984020	PROB	5.229	n/a	n/a	n/a	-999	17	[4, 5, 9]	18.0	catFR1	0	R1069M
1929.386	4.251	986645	PROB	4.228	n/a	n/a	n/a	-999	17	[1, 7, 9]	17.0	catFR1	0	R1069M
1933.637	5.284	988770	PROB	5.248	n/a	n/a	n/a	-999	17	[3, 5, 5]	13.0	catFR1	0	R1069M
1938.921	2.851	991412	PROB	2.828	n/a	n/a	n/a	-999	17	[5, 6, 2]	13.0	catFR1	0	R1069M
1941.772	3.274	992837	PROB	3.274	n/a	n/a	n/a	-999	17	[6, 9, 6]	21.0	catFR1	0	R1069M
1945.046	0.011	994474	STOP	n/a	n/a	n/a	n/a	-999	17	[-999, -999, -999]	n/a	catFR1	0	R1069M
1945.057	1.217	994480	DISTRACT_END	n/a	n/a	n/a	n/a	-999	17	[0, 0, 0]	n/a	catFR1	0	R1069M
1946.274	1.37	995088	REC_START	n/a	n/a	n/a	n/a	-999	17	[0, 0, 0]	n/a	catFR1	0	R1069M
1947.644	1.435	995773	REC_WORD	1.37	n/a	CLOUD	Weather	1	17	[0, 0, 0]	n/a	catFR1	0	R1069M
1949.079	1.44	996491	REC_WORD	2.805	n/a	RAIN	Weather	2	17	[0, 0, 0]	n/a	catFR1	0	R1069M
1950.519	1.466	997210	REC_WORD	4.245	n/a	RIVER	Landscapes	3	17	[0, 0, 0]	n/a	catFR1	0	R1069M
1951.985	1.373	997943	REC_WORD	5.711	n/a	LAKE	Landscapes	4	17	[0, 0, 0]	n/a	catFR1	0	R1069M
1953.358	1.701	998630	REC_WORD	7.084	n/a	STREAM	Landscapes	11	17	[0, 0, 0]	n/a	catFR1	0	R1069M
1955.059	1.936	999480	REC_WORD	8.785	n/a	GIRAFFE	Zoo	10	17	[0, 0, 0]	n/a	catFR1	0	R1069M
1956.995	19.293	1000448	REC_WORD	10.721	n/a	CHEETAH	Zoo	5	17	[0, 0, 0]	n/a	catFR1	0	R1069M
1976.288	6.692	1010094	REC_END	n/a	n/a	n/a	n/a	-999	17	[0, 0, 0]	n/a	catFR1	0	R1069M
1982.98	0.0	1013440	TRIAL	n/a	n/a	n/a	n/a	-999	18	[0, 0, 0]	n/a	catFR1	0	R1069M
1982.98	10.0	1013440	COUNTDOWN_START	n/a	n/a	n/a	n/a	-999	18	[0, 0, 0]	n/a	catFR1	0	R1069M
1993.408	0.007	1018653	COUNTDOWN_END	n/a	n/a	n/a	n/a	-999	18	[0, 0, 0]	n/a	catFR1	0	R1069M
1993.415	1.6	1018657	ORIENT	n/a	n/a	n/a	n/a	-999	18	[0, 0, 0]	n/a	catFR1	0	R1069M
1997.017	1.6	1020457	WORD	n/a	wordpools/wordpool_categorized_EN.txt	CUCUMBER	Vegetables	1	18	[0, 0, 0]	n/a	catFR1	0	R1069M
1999.616	1.6	1021757	WORD	n/a	wordpools/wordpool_categorized_EN.txt	CABBAGE	Vegetables	2	18	[0, 0, 0]	n/a	catFR1	0	R1069M
2002.101	1.6	1022999	WORD	n/a	wordpools/wordpool_categorized_EN.txt	BALL	Toys	3	18	[0, 0, 0]	n/a	catFR1	0	R1069M
2004.667	1.6	1024282	WORD	n/a	wordpools/wordpool_categorized_EN.txt	DOLL	Toys	4	18	[0, 0, 0]	n/a	catFR1	0	R1069M
2007.152	1.6	1025525	WORD	n/a	wordpools/wordpool_categorized_EN.txt	TRAIN	Vehicles	5	18	[0, 0, 0]	n/a	catFR1	0	R1069M
2009.652	1.6	1026774	WORD	n/a	wordpools/wordpool_categorized_EN.txt	BIKE	Vehicles	6	18	[0, 0, 0]	n/a	catFR1	0	R1069M
2012.07	1.6	1027983	WORD	n/a	wordpools/wordpool_categorized_EN.txt	CAULIFLOWER	Vegetables	7	18	[0, 0, 0]	n/a	catFR1	0	R1069M
2014.519	1.6	1029208	WORD	n/a	wordpools/wordpool_categorized_EN.txt	LETTUCE	Vegetables	8	18	[0, 0, 0]	n/a	catFR1	0	R1069M
2017.121	1.6	1030509	WORD	n/a	wordpools/wordpool_categorized_EN.txt	JEEP	Vehicles	9	18	[0, 0, 0]	n/a	catFR1	0	R1069M
2019.754	1.6	1031825	WORD	n/a	wordpools/wordpool_categorized_EN.txt	BUS	Vehicles	10	18	[0, 0, 0]	n/a	catFR1	0	R1069M
2022.305	1.6	1033100	WORD	n/a	wordpools/wordpool_categorized_EN.txt	BASKETBALL	Toys	11	18	[0, 0, 0]	n/a	catFR1	0	R1069M
2024.688	1.6	1034292	WORD	n/a	wordpools/wordpool_categorized_EN.txt	BASEBALL	Toys	12	18	[0, 0, 0]	n/a	catFR1	0	R1069M
2026.306	0.001	1035101	DISTRACT_START	n/a	n/a	n/a	n/a	-999	18	[0, 0, 0]	n/a	catFR1	0	R1069M
2026.307	0.015	1035101	START	n/a	n/a	n/a	n/a	-999	18	[-999, -999, -999]	n/a	catFR1	0	R1069M
2026.322	4.918	1035109	PROB	4.884	n/a	n/a	n/a	-999	18	[4, 7, 1]	12.0	catFR1	0	R1069M
2031.24	3.316	1037568	PROB	3.294	n/a	n/a	n/a	-999	18	[2, 6, 2]	10.0	catFR1	0	R1069M
2034.556	5.168	1039225	PROB	5.137	n/a	n/a	n/a	-999	18	[8, 6, 5]	19.0	catFR1	0	R1069M
2039.724	2.552	1041809	PROB	2.53	n/a	n/a	n/a	-999	18	[9, 7, 5]	21.0	catFR1	0	R1069M
2042.276	4.114	1043085	PROB	4.114	n/a	n/a	n/a	-999	18	[2, 2, 5]	9.0	catFR1	0	R1069M
2046.39	0.019	1045142	STOP	n/a	n/a	n/a	n/a	-999	18	[-999, -999, -999]	n/a	catFR1	0	R1069M
2046.409	1.167	1045151	DISTRACT_END	n/a	n/a	n/a	n/a	-999	18	[0, 0, 0]	n/a	catFR1	0	R1069M
2047.576	0.858	1045735	REC_START	n/a	n/a	n/a	n/a	-999	18	[0, 0, 0]	n/a	catFR1	0	R1069M
2048.434	1.719	1046164	REC_WORD	0.858	n/a	CUCUMBER	Vegetables	1	18	[0, 0, 0]	n/a	catFR1	0	R1069M
2050.153	1.565	1047023	REC_WORD	2.577	n/a	CABBAGE	Vegetables	2	18	[0, 0, 0]	n/a	catFR1	0	R1069M
2051.718	1.523	1047806	REC_WORD	4.142	n/a	BALL	Toys	3	18	[0, 0, 0]	n/a	catFR1	0	R1069M
2053.241	1.477	1048567	REC_WORD	5.665	n/a	DOLL	Toys	4	18	[0, 0, 0]	n/a	catFR1	0	R1069M
2054.718	1.822	1049306	REC_WORD	7.142	n/a	BASKETBALL	Toys	11	18	[0, 0, 0]	n/a	catFR1	0	R1069M
2056.54	21.048	1050216	REC_WORD	8.964	n/a	BASEBALL	Toys	12	18	[0, 0, 0]	n/a	catFR1	0	R1069M
2077.588	6.562	1060740	REC_END	n/a	n/a	n/a	n/a	-999	18	[0, 0, 0]	n/a	catFR1	0	R1069M
2084.15	10.0	1064020	COUNTDOWN_START	n/a	n/a	n/a	n/a	-999	19	[0, 0, 0]	n/a	catFR1	0	R1069M
2084.151	10.427	1064021	TRIAL	n/a	n/a	n/a	n/a	-999	19	[0, 0, 0]	n/a	catFR1	0	R1069M
2094.578	0.007	1069234	COUNTDOWN_END	n/a	n/a	n/a	n/a	-999	19	[0, 0, 0]	n/a	catFR1	0	R1069M
2094.585	1.6	1069237	ORIENT	n/a	n/a	n/a	n/a	-999	19	[0, 0, 0]	n/a	catFR1	0	R1069M
2098.103	1.6	1070996	WORD	n/a	wordpools/wordpool_categorized_EN.txt	JUICE	Beverages	1	19	[0, 0, 0]	n/a	catFR1	0	R1069M
2100.636	1.6	1072263	WORD	n/a	wordpools/wordpool_categorized_EN.txt	COFFEE	Beverages	2	19	[0, 0, 0]	n/a	catFR1	0	R1069M
2103.171	1.6	1073530	WORD	n/a	wordpools/wordpool_categorized_EN.txt	BUTTERFLY	Insects	3	19	[0, 0, 0]	n/a	catFR1	0	R1069M
2105.704	1.6	1074796	WORD	n/a	wordpools/wordpool_categorized_EN.txt	BEETLE	Insects	4	19	[0, 0, 0]	n/a	catFR1	0	R1069M
2108.122	1.6	1076005	WORD	n/a	wordpools/wordpool_categorized_EN.txt	EVERGREEN	Trees	5	19	[0, 0, 0]	n/a	catFR1	0	R1069M
2110.704	1.6	1077296	WORD	n/a	wordpools/wordpool_categorized_EN.txt	WILLOW	Trees	6	19	[0, 0, 0]	n/a	catFR1	0	R1069M
2113.106	1.6	1078497	WORD	n/a	wordpools/wordpool_categorized_EN.txt	GNAT	Insects	7	19	[0, 0, 0]	n/a	catFR1	0	R1069M
2115.656	1.6	1079772	WORD	n/a	wordpools/wordpool_categorized_EN.txt	MOTH	Insects	8	19	[0, 0, 0]	n/a	catFR1	0	R1069M
2118.157	1.6	1081022	WORD	n/a	wordpools/wordpool_categorized_EN.txt	RUM	Beverages	9	19	[0, 0, 0]	n/a	catFR1	0	R1069M
2120.623	1.6	1082255	WORD	n/a	wordpools/wordpool_categorized_EN.txt	SODA	Beverages	10	19	[0, 0, 0]	n/a	catFR1	0	R1069M
2123.141	1.6	1083514	WORD	n/a	wordpools/wordpool_categorized_EN.txt	CEDAR	Trees	11	19	[0, 0, 0]	n/a	catFR1	0	R1069M
2125.724	1.6	1084806	WORD	n/a	wordpools/wordpool_categorized_EN.txt	WALNUT	Trees	12	19	[0, 0, 0]	n/a	catFR1	0	R1069M
2127.325	0.001	1085606	DISTRACT_START	n/a	n/a	n/a	n/a	-999	19	[0, 0, 0]	n/a	catFR1	0	R1069M
2127.326	0.015	1085607	START	n/a	n/a	n/a	n/a	-999	19	[-999, -999, -999]	n/a	catFR1	0	R1069M
2127.341	3.835	1085614	PROB	3.81	n/a	n/a	n/a	-999	19	[3, 2, 2]	7.0	catFR1	0	R1069M
2131.176	5.885	1087531	PROB	5.855	n/a	n/a	n/a	-999	19	[7, 8, 9]	24.0	catFR1	0	R1069M
2137.061	3.566	1090474	PROB	3.536	n/a	n/a	n/a	-999	19	[8, 4, 4]	16.0	catFR1	0	R1069M
2140.627	4.801	1092256	PROB	4.771	n/a	n/a	n/a	-999	19	[7, 6, 2]	15.0	catFR1	0	R1069M
2145.428	3.114	1094657	PROB	3.114	n/a	n/a	n/a	-999	19	[8, 1, 3]	12.0	catFR1	0	R1069M
2148.542	0.003	1096214	STOP	n/a	n/a	n/a	n/a	-999	19	[-999, -999, -999]	n/a	catFR1	0	R1069M
2148.545	1.134	1096215	DISTRACT_END	n/a	n/a	n/a	n/a	-999	19	[0, 0, 0]	n/a	catFR1	0	R1069M
2149.679	1.45	1096782	REC_START	n/a	n/a	n/a	n/a	-999	19	[0, 0, 0]	n/a	catFR1	0	R1069M
2151.129	1.503	1097507	REC_WORD	1.45	n/a	JUICE	Beverages	1	19	[0, 0, 0]	n/a	catFR1	0	R1069M
2152.632	1.601	1098258	REC_WORD	2.953	n/a	COFFEE	Beverages	2	19	[0, 0, 0]	n/a	catFR1	0	R1069M
2154.233	1.793	1099059	REC_WORD	4.554	n/a	BUTTERFLY	Insects	3	19	[0, 0, 0]	n/a	catFR1	0	R1069M
2156.026	2.31	1099955	REC_WORD	6.347	n/a	BEETLE	Insects	4	19	[0, 0, 0]	n/a	catFR1	0	R1069M
2158.336	1.61	1101110	REC_WORD	8.657	n/a	RUM	Beverages	9	19	[0, 0, 0]	n/a	catFR1	0	R1069M
2159.946	1.75	1101915	REC_WORD	10.267	n/a	WILLOW	Trees	6	19	[0, 0, 0]	n/a	catFR1	0	R1069M
2161.696	13.005	1102790	REC_WORD	12.017	n/a	WALNUT	Trees	12	19	[0, 0, 0]	n/a	catFR1	0	R1069M
2174.701	4.989	1109292	REC_WORD	25.022	n/a	MOTH	Insects	8	19	[0, 0, 0]	n/a	catFR1	0	R1069M
2179.69	6.63	1111786	REC_END	n/a	n/a	n/a	n/a	-999	19	[0, 0, 0]	n/a	catFR1	0	R1069M
2186.32	0.0	1115101	TRIAL	n/a	n/a	n/a	n/a	-999	20	[0, 0, 0]	n/a	catFR1	0	R1069M
2186.32	10.0	1115101	COUNTDOWN_START	n/a	n/a	n/a	n/a	-999	20	[0, 0, 0]	n/a	catFR1	0	R1069M
2196.748	0.023	1120315	COUNTDOWN_END	n/a	n/a	n/a	n/a	-999	20	[0, 0, 0]	n/a	catFR1	0	R1069M
2196.771	1.6	1120326	ORIENT	n/a	n/a	n/a	n/a	-999	20	[0, 0, 0]	n/a	catFR1	0	R1069M
2200.538	1.6	1122209	WORD	n/a	wordpools/wordpool_categorized_EN.txt	PLANKTON	OceanAnimals	1	20	[0, 0, 0]	n/a	catFR1	0	R1069M
2203.073	1.6	1123477	WORD	n/a	wordpools/wordpool_categorized_EN.txt	LOBSTER	OceanAnimals	2	20	[0, 0, 0]	n/a	catFR1	0	R1069M
2205.49	1.6	1124685	WORD	n/a	wordpools/wordpool_categorized_EN.txt	RULER	OfficeSupplies	3	20	[0, 0, 0]	n/a	catFR1	0	R1069M
2207.94	1.6	1125910	WORD	n/a	wordpools/wordpool_categorized_EN.txt	MARKER	OfficeSupplies	4	20	[0, 0, 0]	n/a	catFR1	0	R1069M
2210.474	1.6	1127177	WORD	n/a	wordpools/wordpool_categorized_EN.txt	SHORTS	Clothing	5	20	[0, 0, 0]	n/a	catFR1	0	R1069M
2213.075	1.6	1128477	WORD	n/a	wordpools/wordpool_categorized_EN.txt	BLOUSE	Clothing	6	20	[0, 0, 0]	n/a	catFR1	0	R1069M
2215.541	1.6	1129710	WORD	n/a	wordpools/wordpool_categorized_EN.txt	PENCIL	OfficeSupplies	7	20	[0, 0, 0]	n/a	catFR1	0	R1069M
2218.043	1.6	1130961	WORD	n/a	wordpools/wordpool_categorized_EN.txt	GLUE	OfficeSupplies	8	20	[0, 0, 0]	n/a	catFR1	0	R1069M
2220.626	1.6	1132253	WORD	n/a	wordpools/wordpool_categorized_EN.txt	OYSTER	OceanAnimals	9	20	[0, 0, 0]	n/a	catFR1	0	R1069M
2223.127	1.6	1133503	WORD	n/a	wordpools/wordpool_categorized_EN.txt	WHALE	OceanAnimals	10	20	[0, 0, 0]	n/a	catFR1	0	R1069M
2225.61	1.6	1134744	WORD	n/a	wordpools/wordpool_categorized_EN.txt	SKIRT	Clothing	11	20	[0, 0, 0]	n/a	catFR1	0	R1069M
2228.228	1.6	1136053	WORD	n/a	wordpools/wordpool_categorized_EN.txt	JACKET	Clothing	12	20	[0, 0, 0]	n/a	catFR1	0	R1069M
2229.844	0.001	1136861	DISTRACT_START	n/a	n/a	n/a	n/a	-999	20	[0, 0, 0]	n/a	catFR1	0	R1069M
2229.845	0.016	1136862	START	n/a	n/a	n/a	n/a	-999	20	[-999, -999, -999]	n/a	catFR1	0	R1069M
2229.861	5.868	1136870	PROB	5.84	n/a	n/a	n/a	-999	20	[2, 7, 8]	17.0	catFR1	0	R1069M
2235.729	4.1	1139803	PROB	4.069	n/a	n/a	n/a	-999	20	[5, 9, 4]	18.0	catFR1	0	R1069M
2239.829	3.151	1141853	PROB	3.128	n/a	n/a	n/a	-999	20	[9, 3, 5]	17.0	catFR1	0	R1069M
2242.98	3.068	1143429	PROB	3.042	n/a	n/a	n/a	-999	20	[9, 4, 9]	22.0	catFR1	0	R1069M
2246.048	3.034	1144963	PROB	3.014	n/a	n/a	n/a	-999	20	[3, 7, 7]	17.0	catFR1	0	R1069M
2249.082	3.22	1146479	PROB	3.22	n/a	n/a	n/a	-999	20	[8, 1, 7]	16.0	catFR1	0	R1069M
2252.302	0.014	1148089	STOP	n/a	n/a	n/a	n/a	-999	20	[-999, -999, -999]	n/a	catFR1	0	R1069M
2252.316	1.167	1148096	DISTRACT_END	n/a	n/a	n/a	n/a	-999	20	[0, 0, 0]	n/a	catFR1	0	R1069M
2253.483	1.263	1148680	REC_START	n/a	n/a	n/a	n/a	-999	20	[0, 0, 0]	n/a	catFR1	0	R1069M
2254.746	1.557	1149311	REC_WORD	1.263	n/a	PLANKTON	OceanAnimals	1	20	[0, 0, 0]	n/a	catFR1	0	R1069M
2256.303	1.855	1150090	REC_WORD	2.82	n/a	LOBSTER	OceanAnimals	2	20	[0, 0, 0]	n/a	catFR1	0	R1069M
2258.158	1.901	1151017	REC_WORD	4.675	n/a	OYSTER	OceanAnimals	9	20	[0, 0, 0]	n/a	catFR1	0	R1069M
2260.059	1.615	1151967	REC_WORD	6.576	n/a	WHALE	OceanAnimals	10	20	[0, 0, 0]	n/a	catFR1	0	R1069M
2261.674	2.014	1152775	REC_WORD	8.191	n/a	SKIRT	Clothing	11	20	[0, 0, 0]	n/a	catFR1	0	R1069M
2263.688	19.805	1153782	REC_WORD	10.205	n/a	RULER	OfficeSupplies	3	20	[0, 0, 0]	n/a	catFR1	0	R1069M
2283.493	49.088	1163683	REC_END	n/a	n/a	n/a	n/a	-999	20	[0, 0, 0]	n/a	catFR1	0	R1069M
2332.581	0.0	1188225	TRIAL	n/a	n/a	n/a	n/a	-999	21	[0, 0, 0]	n/a	catFR1	0	R1069M
2332.581	10.0	1188225	COUNTDOWN_START	n/a	n/a	n/a	n/a	-999	21	[0, 0, 0]	n/a	catFR1	0	R1069M
2343.009	0.008	1193439	COUNTDOWN_END	n/a	n/a	n/a	n/a	-999	21	[0, 0, 0]	n/a	catFR1	0	R1069M
2343.017	1.6	1193443	ORIENT	n/a	n/a	n/a	n/a	-999	21	[0, 0, 0]	n/a	catFR1	0	R1069M
2346.883	1.6	1195376	WORD	n/a	wordpools/wordpool_categorized_EN.txt	TUBA	Instruments	1	21	[0, 0, 0]	n/a	catFR1	0	R1069M
2349.318	1.6	1196593	WORD	n/a	wordpools/wordpool_categorized_EN.txt	DRUM	Instruments	2	21	[0, 0, 0]	n/a	catFR1	0	R1069M
2351.701	1.6	1197785	WORD	n/a	wordpools/wordpool_categorized_EN.txt	PIG	FarmAnimals	3	21	[0, 0, 0]	n/a	catFR1	0	R1069M
2354.153	1.6	1199011	WORD	n/a	wordpools/wordpool_categorized_EN.txt	CHICKEN	FarmAnimals	4	21	[0, 0, 0]	n/a	catFR1	0	R1069M
2356.602	1.6	1200235	WORD	n/a	wordpools/wordpool_categorized_EN.txt	CAKE	Desserts	5	21	[0, 0, 0]	n/a	catFR1	0	R1069M
2358.986	1.6	1201427	WORD	n/a	wordpools/wordpool_categorized_EN.txt	PUDDING	Desserts	6	21	[0, 0, 0]	n/a	catFR1	0	R1069M
2361.403	1.6	1202635	WORD	n/a	wordpools/wordpool_categorized_EN.txt	BULL	FarmAnimals	7	21	[0, 0, 0]	n/a	catFR1	0	R1069M
2363.82	1.6	1203844	WORD	n/a	wordpools/wordpool_categorized_EN.txt	COW	FarmAnimals	8	21	[0, 0, 0]	n/a	catFR1	0	R1069M
2366.222	1.6	1205044	WORD	n/a	wordpools/wordpool_categorized_EN.txt	BASS	Instruments	9	21	[0, 0, 0]	n/a	catFR1	0	R1069M
2368.838	1.6	1206352	WORD	n/a	wordpools/wordpool_categorized_EN.txt	FLUTE	Instruments	10	21	[0, 0, 0]	n/a	catFR1	0	R1069M
2371.338	1.6	1207602	WORD	n/a	wordpools/wordpool_categorized_EN.txt	BROWNIES	Desserts	11	21	[0, 0, 0]	n/a	catFR1	0	R1069M
2373.905	1.6	1208886	WORD	n/a	wordpools/wordpool_categorized_EN.txt	COBBLER	Desserts	12	21	[0, 0, 0]	n/a	catFR1	0	R1069M
2375.506	0.001	1209686	DISTRACT_START	n/a	n/a	n/a	n/a	-999	21	[0, 0, 0]	n/a	catFR1	0	R1069M
2375.507	0.015	1209687	START	n/a	n/a	n/a	n/a	-999	21	[-999, -999, -999]	n/a	catFR1	0	R1069M
2375.522	3.619	1209694	PROB	3.589	n/a	n/a	n/a	-999	21	[2, 8, 1]	11.0	catFR1	0	R1069M
2379.141	4.283	1211503	PROB	4.256	n/a	n/a	n/a	-999	21	[7, 7, 5]	19.0	catFR1	0	R1069M
2383.424	4.251	1213645	PROB	4.221	n/a	n/a	n/a	-999	21	[8, 2, 4]	14.0	catFR1	0	R1069M
2387.675	4.101	1215770	PROB	4.075	n/a	n/a	n/a	-999	21	[8, 9, 9]	26.0	catFR1	0	R1069M
2391.776	3.567	1217820	PROB	3.542	n/a	n/a	n/a	-999	21	[7, 8, 5]	20.0	catFR1	0	R1069M
2395.343	3.446	1219604	PROB	3.446	n/a	n/a	n/a	-999	21	[6, 3, 9]	18.0	catFR1	0	R1069M
2398.789	0.004	1221327	STOP	n/a	n/a	n/a	n/a	-999	21	[-999, -999, -999]	n/a	catFR1	0	R1069M
2398.793	1.168	1221329	DISTRACT_END	n/a	n/a	n/a	n/a	-999	21	[0, 0, 0]	n/a	catFR1	0	R1069M
2399.961	1.494	1221913	REC_START	n/a	n/a	n/a	n/a	-999	21	[0, 0, 0]	n/a	catFR1	0	R1069M
2401.455	1.37	1222660	REC_WORD	1.494	n/a	TUBA	Instruments	1	21	[0, 0, 0]	n/a	catFR1	0	R1069M
2402.825	1.436	1223344	REC_WORD	2.864	n/a	DRUM	Instruments	2	21	[0, 0, 0]	n/a	catFR1	0	R1069M
2404.261	1.538	1224062	REC_WORD	4.3	n/a	PIG	FarmAnimals	3	21	[0, 0, 0]	n/a	catFR1	0	R1069M
2405.799	1.757	1224831	REC_WORD	5.838	n/a	CHICKEN	FarmAnimals	4	21	[0, 0, 0]	n/a	catFR1	0	R1069M
2407.556	22.415	1225710	REC_WORD	7.595	n/a	BROWNIES	Desserts	11	21	[0, 0, 0]	n/a	catFR1	0	R1069M
2429.971	5.081	1236916	REC_END	n/a	n/a	n/a	n/a	-999	21	[0, 0, 0]	n/a	catFR1	0	R1069M
2435.052	0.0	1239457	TRIAL	n/a	n/a	n/a	n/a	-999	22	[0, 0, 0]	n/a	catFR1	0	R1069M
2435.052	10.0	1239457	COUNTDOWN_START	n/a	n/a	n/a	n/a	-999	22	[0, 0, 0]	n/a	catFR1	0	R1069M
2445.48	0.006	1244670	COUNTDOWN_END	n/a	n/a	n/a	n/a	-999	22	[0, 0, 0]	n/a	catFR1	0	R1069M
2445.486	1.6	1244673	ORIENT	n/a	n/a	n/a	n/a	-999	22	[0, 0, 0]	n/a	catFR1	0	R1069M
2449.387	1.6	1246624	WORD	n/a	wordpools/wordpool_categorized_EN.txt	LEVEL	Tools	1	22	[0, 0, 0]	n/a	catFR1	0	R1069M
2451.887	1.6	1247873	WORD	n/a	wordpools/wordpool_categorized_EN.txt	SANDER	Tools	2	22	[0, 0, 0]	n/a	catFR1	0	R1069M
2454.438	1.6	1249149	WORD	n/a	wordpools/wordpool_categorized_EN.txt	VIOLET	Flowers	3	22	[0, 0, 0]	n/a	catFR1	0	R1069M
2456.888	1.6	1250374	WORD	n/a	wordpools/wordpool_categorized_EN.txt	ROSE	Flowers	4	22	[0, 0, 0]	n/a	catFR1	0	R1069M
2459.29	1.6	1251575	WORD	n/a	wordpools/wordpool_categorized_EN.txt	FORK	KitchenTools	5	22	[0, 0, 0]	n/a	catFR1	0	R1069M
2461.789	1.6	1252824	WORD	n/a	wordpools/wordpool_categorized_EN.txt	SPOON	KitchenTools	6	22	[0, 0, 0]	n/a	catFR1	0	R1069M
2464.291	1.6	1254075	WORD	n/a	wordpools/wordpool_categorized_EN.txt	ORCHID	Flowers	7	22	[0, 0, 0]	n/a	catFR1	0	R1069M
2466.757	1.6	1255308	WORD	n/a	wordpools/wordpool_categorized_EN.txt	DAFFODIL	Flowers	8	22	[0, 0, 0]	n/a	catFR1	0	R1069M
2469.175	1.6	1256517	WORD	n/a	wordpools/wordpool_categorized_EN.txt	HAMMER	Tools	9	22	[0, 0, 0]	n/a	catFR1	0	R1069M
2471.591	1.6	1257725	WORD	n/a	wordpools/wordpool_categorized_EN.txt	DRILL	Tools	10	22	[0, 0, 0]	n/a	catFR1	0	R1069M
2474.192	1.6	1259025	WORD	n/a	wordpools/wordpool_categorized_EN.txt	KNIFE	KitchenTools	11	22	[0, 0, 0]	n/a	catFR1	0	R1069M
2476.709	1.6	1260283	WORD	n/a	wordpools/wordpool_categorized_EN.txt	SPATULA	KitchenTools	12	22	[0, 0, 0]	n/a	catFR1	0	R1069M
2478.327	0.0	1261092	DISTRACT_START	n/a	n/a	n/a	n/a	-999	22	[0, 0, 0]	n/a	catFR1	0	R1069M
2478.327	0.015	1261092	START	n/a	n/a	n/a	n/a	-999	22	[-999, -999, -999]	n/a	catFR1	0	R1069M
2478.342	4.935	1261100	PROB	4.912	n/a	n/a	n/a	-999	22	[6, 1, 9]	16.0	catFR1	0	R1069M
2483.277	2.901	1263567	PROB	2.865	n/a	n/a	n/a	-999	22	[3, 8, 5]	16.0	catFR1	0	R1069M
2486.178	2.616	1265017	PROB	2.596	n/a	n/a	n/a	-999	22	[8, 2, 4]	14.0	catFR1	0	R1069M
2488.794	3.084	1266325	PROB	3.059	n/a	n/a	n/a	-999	22	[7, 2, 4]	13.0	catFR1	0	R1069M
2491.878	3.402	1267867	PROB	3.368	n/a	n/a	n/a	-999	22	[4, 2, 3]	9.0	catFR1	0	R1069M
2495.28	5.149	1269568	PROB	5.149	n/a	n/a	n/a	-999	22	[3, 9, 6]	18.0	catFR1	0	R1069M
2500.429	0.018	1272142	STOP	n/a	n/a	n/a	n/a	-999	22	[-999, -999, -999]	n/a	catFR1	0	R1069M
2500.447	1.034	1272151	DISTRACT_END	n/a	n/a	n/a	n/a	-999	22	[0, 0, 0]	n/a	catFR1	0	R1069M
2501.481	1.736	1272668	REC_START	n/a	n/a	n/a	n/a	-999	22	[0, 0, 0]	n/a	catFR1	0	R1069M
2503.217	1.902	1273536	REC_WORD	1.736	n/a	LEVEL	Tools	1	22	[0, 0, 0]	n/a	catFR1	0	R1069M
2505.119	1.838	1274487	REC_WORD	3.638	n/a	DRILL	Tools	10	22	[0, 0, 0]	n/a	catFR1	0	R1069M
2506.957	1.63	1275406	REC_WORD	5.476	n/a	GRINDER	n/a	-999	22	[0, 0, 0]	n/a	catFR1	0	R1069M
2508.587	1.9	1276221	REC_WORD	7.106	n/a	ROSE	Flowers	4	22	[0, 0, 0]	n/a	catFR1	0	R1069M
2510.487	4.295	1277171	REC_WORD	9.006	n/a	DAFFODIL	Flowers	8	22	[0, 0, 0]	n/a	catFR1	0	R1069M
2514.782	5.613	1279318	REC_WORD	13.301	n/a	VIOLET	Flowers	3	22	[0, 0, 0]	n/a	catFR1	0	R1069M
2520.395	2.244	1282125	REC_WORD	18.914	n/a	FORK	KitchenTools	5	22	[0, 0, 0]	n/a	catFR1	0	R1069M
2522.639	8.851	1283246	REC_WORD	21.158	n/a	SPOON	KitchenTools	6	22	[0, 0, 0]	n/a	catFR1	0	R1069M
2531.49	19.866	1287672	REC_END	n/a	n/a	n/a	n/a	-999	22	[0, 0, 0]	n/a	catFR1	0	R1069M
2551.356	10.0	1297604	COUNTDOWN_START	n/a	n/a	n/a	n/a	-999	23	[0, 0, 0]	n/a	catFR1	0	R1069M
2551.357	10.427	1297604	TRIAL	n/a	n/a	n/a	n/a	-999	23	[0, 0, 0]	n/a	catFR1	0	R1069M
2561.784	0.008	1302817	COUNTDOWN_END	n/a	n/a	n/a	n/a	-999	23	[0, 0, 0]	n/a	catFR1	0	R1069M
2561.792	1.6	1302821	ORIENT	n/a	n/a	n/a	n/a	-999	23	[0, 0, 0]	n/a	catFR1	0	R1069M
2565.643	1.6	1304747	WORD	n/a	wordpools/wordpool_categorized_EN.txt	JEANS	Clothing	1	23	[0, 0, 0]	n/a	catFR1	0	R1069M
2568.261	1.6	1306056	WORD	n/a	wordpools/wordpool_categorized_EN.txt	UNDERWEAR	Clothing	2	23	[0, 0, 0]	n/a	catFR1	0	R1069M
2570.877	1.6	1307363	WORD	n/a	wordpools/wordpool_categorized_EN.txt	SCREWDRIVER	Tools	3	23	[0, 0, 0]	n/a	catFR1	0	R1069M
2573.262	1.6	1308556	WORD	n/a	wordpools/wordpool_categorized_EN.txt	AXE	Tools	4	23	[0, 0, 0]	n/a	catFR1	0	R1069M
2575.761	1.6	1309805	WORD	n/a	wordpools/wordpool_categorized_EN.txt	DUCK	Birds	5	23	[0, 0, 0]	n/a	catFR1	0	R1069M
2578.246	1.6	1311048	WORD	n/a	wordpools/wordpool_categorized_EN.txt	CROW	Birds	6	23	[0, 0, 0]	n/a	catFR1	0	R1069M
2580.695	1.6	1312272	WORD	n/a	wordpools/wordpool_categorized_EN.txt	WRENCH	Tools	7	23	[0, 0, 0]	n/a	catFR1	0	R1069M
2583.264	1.6	1313556	WORD	n/a	wordpools/wordpool_categorized_EN.txt	RATCHET	Tools	8	23	[0, 0, 0]	n/a	catFR1	0	R1069M
2585.813	1.6	1314831	WORD	n/a	wordpools/wordpool_categorized_EN.txt	PANTS	Clothing	9	23	[0, 0, 0]	n/a	catFR1	0	R1069M
2588.43	1.6	1316139	WORD	n/a	wordpools/wordpool_categorized_EN.txt	COAT	Clothing	10	23	[0, 0, 0]	n/a	catFR1	0	R1069M
2591.032	1.6	1317440	WORD	n/a	wordpools/wordpool_categorized_EN.txt	BLUEBIRD	Birds	11	23	[0, 0, 0]	n/a	catFR1	0	R1069M
2593.415	1.6	1318631	WORD	n/a	wordpools/wordpool_categorized_EN.txt	HAWK	Birds	12	23	[0, 0, 0]	n/a	catFR1	0	R1069M
2595.032	0.001	1319440	DISTRACT_START	n/a	n/a	n/a	n/a	-999	23	[0, 0, 0]	n/a	catFR1	0	R1069M
2595.033	0.016	1319440	START	n/a	n/a	n/a	n/a	-999	23	[-999, -999, -999]	n/a	catFR1	0	R1069M
2595.049	4.383	1319448	PROB	4.349	n/a	n/a	n/a	-999	23	[4, 7, 4]	15.0	catFR1	0	R1069M
2599.432	3.685	1321640	PROB	3.662	n/a	n/a	n/a	-999	23	[9, 3, 5]	17.0	catFR1	0	R1069M
2603.117	5.234	1323482	PROB	5.21	n/a	n/a	n/a	-999	23	[3, 3, 1]	7.0	catFR1	0	R1069M
2608.351	3.334	1326099	PROB	3.302	n/a	n/a	n/a	-999	23	[3, 6, 8]	17.0	catFR1	0	R1069M
2611.685	3.785	1327766	PROB	3.785	n/a	n/a	n/a	-999	23	[8, 4, 7]	19.0	catFR1	0	R1069M
2615.47	0.015	1329658	STOP	n/a	n/a	n/a	n/a	-999	23	[-999, -999, -999]	n/a	catFR1	0	R1069M
2615.485	1.118	1329666	DISTRACT_END	n/a	n/a	n/a	n/a	-999	23	[0, 0, 0]	n/a	catFR1	0	R1069M
2616.603	1.686	1330224	REC_START	n/a	n/a	n/a	n/a	-999	23	[0, 0, 0]	n/a	catFR1	0	R1069M
2618.289	1.564	1331067	REC_WORD	1.686	n/a	JEANS	Clothing	1	23	[0, 0, 0]	n/a	catFR1	0	R1069M
2619.853	2.744	1331849	REC_WORD	3.25	n/a	UNDERWEAR	Clothing	2	23	[0, 0, 0]	n/a	catFR1	0	R1069M
2622.597	2.045	1333221	REC_WORD	5.994	n/a	SCREWDRIVER	Tools	3	23	[0, 0, 0]	n/a	catFR1	0	R1069M
2624.642	6.262	1334244	REC_WORD	8.039	n/a	AXE	Tools	4	23	[0, 0, 0]	n/a	catFR1	0	R1069M
2630.904	15.709	1337374	REC_WORD	14.301	n/a	COAT	Clothing	10	23	[0, 0, 0]	n/a	catFR1	0	R1069M
2646.613	10.465	1345228	REC_END	n/a	n/a	n/a	n/a	-999	23	[0, 0, 0]	n/a	catFR1	0	R1069M
2657.078	0.0	1350460	TRIAL	n/a	n/a	n/a	n/a	-999	24	[0, 0, 0]	n/a	catFR1	0	R1069M
2657.078	10.0	1350460	COUNTDOWN_START	n/a	n/a	n/a	n/a	-999	24	[0, 0, 0]	n/a	catFR1	0	R1069M
2667.506	0.006	1355674	COUNTDOWN_END	n/a	n/a	n/a	n/a	-999	24	[0, 0, 0]	n/a	catFR1	0	R1069M
2667.512	1.6	1355677	ORIENT	n/a	n/a	n/a	n/a	-999	24	[0, 0, 0]	n/a	catFR1	0	R1069M
2671.147	1.6	1357494	WORD	n/a	wordpools/wordpool_categorized_EN.txt	PEAR	Fruit	1	24	[0, 0, 0]	n/a	catFR1	0	R1069M
2673.713	1.6	1358777	WORD	n/a	wordpools/wordpool_categorized_EN.txt	BLUEBERRY	Fruit	2	24	[0, 0, 0]	n/a	catFR1	0	R1069M
2676.115	1.6	1359978	WORD	n/a	wordpools/wordpool_categorized_EN.txt	PINE	Trees	3	24	[0, 0, 0]	n/a	catFR1	0	R1069M
2678.531	1.6	1361186	WORD	n/a	wordpools/wordpool_categorized_EN.txt	ELM	Trees	4	24	[0, 0, 0]	n/a	catFR1	0	R1069M
2681.032	1.6	1362436	WORD	n/a	wordpools/wordpool_categorized_EN.txt	IRON	Appliances	5	24	[0, 0, 0]	n/a	catFR1	0	R1069M
2683.515	1.6	1363678	WORD	n/a	wordpools/wordpool_categorized_EN.txt	DRYER	Appliances	6	24	[0, 0, 0]	n/a	catFR1	0	R1069M
2685.916	1.6	1364878	WORD	n/a	wordpools/wordpool_categorized_EN.txt	HICKORY	Trees	7	24	[0, 0, 0]	n/a	catFR1	0	R1069M
2688.366	1.6	1366103	WORD	n/a	wordpools/wordpool_categorized_EN.txt	MAPLE	Trees	8	24	[0, 0, 0]	n/a	catFR1	0	R1069M
2690.75	1.6	1367295	WORD	n/a	wordpools/wordpool_categorized_EN.txt	APPLE	Fruit	9	24	[0, 0, 0]	n/a	catFR1	0	R1069M
2693.334	1.6	1368587	WORD	n/a	wordpools/wordpool_categorized_EN.txt	STRAWBERRY	Fruit	10	24	[0, 0, 0]	n/a	catFR1	0	R1069M
2695.801	1.6	1369820	WORD	n/a	wordpools/wordpool_categorized_EN.txt	FREEZER	Appliances	11	24	[0, 0, 0]	n/a	catFR1	0	R1069M
2698.186	1.6	1371013	WORD	n/a	wordpools/wordpool_categorized_EN.txt	VACUUM	Appliances	12	24	[0, 0, 0]	n/a	catFR1	0	R1069M
2699.802	0.001	1371820	DISTRACT_START	n/a	n/a	n/a	n/a	-999	24	[0, 0, 0]	n/a	catFR1	0	R1069M
2699.803	0.015	1371821	START	n/a	n/a	n/a	n/a	-999	24	[-999, -999, -999]	n/a	catFR1	0	R1069M
2699.818	4.951	1371828	PROB	4.916	n/a	n/a	n/a	-999	24	[9, 7, 2]	18.0	catFR1	0	R1069M
2704.769	3.134	1374304	PROB	3.108	n/a	n/a	n/a	-999	24	[6, 1, 9]	16.0	catFR1	0	R1069M
2707.903	4.152	1375871	PROB	4.12	n/a	n/a	n/a	-999	24	[4, 9, 3]	16.0	catFR1	0	R1069M
2712.055	3.833	1377946	PROB	3.799	n/a	n/a	n/a	-999	24	[7, 5, 3]	15.0	catFR1	0	R1069M
2715.888	4.638	1379863	PROB	4.638	n/a	n/a	n/a	-999	24	[6, 9, 8]	23.0	catFR1	0	R1069M
2720.526	0.013	1382182	STOP	n/a	n/a	n/a	n/a	-999	24	[-999, -999, -999]	n/a	catFR1	0	R1069M
2720.539	1.184	1382188	DISTRACT_END	n/a	n/a	n/a	n/a	-999	24	[0, 0, 0]	n/a	catFR1	0	R1069M
2721.723	4.939	1382780	REC_START	n/a	n/a	n/a	n/a	-999	24	[0, 0, 0]	n/a	catFR1	0	R1069M
2726.662	1.691	1385249	REC_WORD	4.939	n/a	PINE	Trees	3	24	[0, 0, 0]	n/a	catFR1	0	R1069M
2728.353	23.381	1386095	REC_WORD	6.63	n/a	MAPLE	Trees	8	24	[0, 0, 0]	n/a	catFR1	0	R1069M
2751.734	27.467	1397784	REC_END	n/a	n/a	n/a	n/a	-999	24	[0, 0, 0]	n/a	catFR1	0	R1069M
2779.201	10.0	1411517	COUNTDOWN_START	n/a	n/a	n/a	n/a	-999	25	[0, 0, 0]	n/a	catFR1	0	R1069M
2779.202	10.427	1411517	TRIAL	n/a	n/a	n/a	n/a	-999	25	[0, 0, 0]	n/a	catFR1	0	R1069M
2789.629	0.007	1416730	COUNTDOWN_END	n/a	n/a	n/a	n/a	-999	25	[0, 0, 0]	n/a	catFR1	0	R1069M
2789.636	1.6	1416734	ORIENT	n/a	n/a	n/a	n/a	-999	25	[0, 0, 0]	n/a	catFR1	0	R1069M
2793.188	1.6	1418510	WORD	n/a	wordpools/wordpool_categorized_EN.txt	BINDER	OfficeSupplies	1	25	[0, 0, 0]	n/a	catFR1	0	R1069M
2795.637	1.6	1419734	WORD	n/a	wordpools/wordpool_categorized_EN.txt	FOLDER	OfficeSupplies	2	25	[0, 0, 0]	n/a	catFR1	0	R1069M
2798.172	1.6	1421001	WORD	n/a	wordpools/wordpool_categorized_EN.txt	MOTORCYCLE	Vehicles	3	25	[0, 0, 0]	n/a	catFR1	0	R1069M
2800.588	1.6	1422209	WORD	n/a	wordpools/wordpool_categorized_EN.txt	VAN	Vehicles	4	25	[0, 0, 0]	n/a	catFR1	0	R1069M
2803.089	1.6	1423460	WORD	n/a	wordpools/wordpool_categorized_EN.txt	BEER	Beverages	5	25	[0, 0, 0]	n/a	catFR1	0	R1069M
2805.556	1.6	1424693	WORD	n/a	wordpools/wordpool_categorized_EN.txt	LEMONADE	Beverages	6	25	[0, 0, 0]	n/a	catFR1	0	R1069M
2808.074	1.6	1425952	WORD	n/a	wordpools/wordpool_categorized_EN.txt	SCOOTER	Vehicles	7	25	[0, 0, 0]	n/a	catFR1	0	R1069M
2810.456	1.6	1427143	WORD	n/a	wordpools/wordpool_categorized_EN.txt	BOAT	Vehicles	8	25	[0, 0, 0]	n/a	catFR1	0	R1069M
2813.041	1.6	1428435	WORD	n/a	wordpools/wordpool_categorized_EN.txt	PEN	OfficeSupplies	9	25	[0, 0, 0]	n/a	catFR1	0	R1069M
2815.624	1.6	1429727	WORD	n/a	wordpools/wordpool_categorized_EN.txt	PAPER	OfficeSupplies	10	25	[0, 0, 0]	n/a	catFR1	0	R1069M
2818.159	1.6	1430994	WORD	n/a	wordpools/wordpool_categorized_EN.txt	TEA	Beverages	11	25	[0, 0, 0]	n/a	catFR1	0	R1069M
2820.792	1.6	1432310	WORD	n/a	wordpools/wordpool_categorized_EN.txt	WATER	Beverages	12	25	[0, 0, 0]	n/a	catFR1	0	R1069M
2822.409	0.001	1433119	DISTRACT_START	n/a	n/a	n/a	n/a	-999	25	[0, 0, 0]	n/a	catFR1	0	R1069M
2822.41	0.015	1433119	START	n/a	n/a	n/a	n/a	-999	25	[-999, -999, -999]	n/a	catFR1	0	R1069M
2822.425	5.985	1433127	PROB	5.949	n/a	n/a	n/a	-999	25	[4, 1, 7]	12.0	catFR1	0	R1069M
2828.41	2.835	1436119	PROB	2.804	n/a	n/a	n/a	-999	25	[2, 1, 5]	8.0	catFR1	0	R1069M
2831.245	3.901	1437536	PROB	3.873	n/a	n/a	n/a	-999	25	[5, 9, 2]	16.0	catFR1	0	R1069M
2835.146	2.199	1439487	PROB	2.164	n/a	n/a	n/a	-999	25	[5, 4, 3]	12.0	catFR1	0	R1069M
2837.345	3.051	1440586	PROB	3.02	n/a	n/a	n/a	-999	25	[5, 4, 6]	15.0	catFR1	0	R1069M
2840.396	4.314	1442112	PROB	4.314	n/a	n/a	n/a	-999	25	[1, 5, 3]	9.0	catFR1	0	R1069M
2844.71	0.003	1444268	STOP	n/a	n/a	n/a	n/a	-999	25	[-999, -999, -999]	n/a	catFR1	0	R1069M
2844.713	1.167	1444270	DISTRACT_END	n/a	n/a	n/a	n/a	-999	25	[0, 0, 0]	n/a	catFR1	0	R1069M
2845.88	1.626	1444853	REC_START	n/a	n/a	n/a	n/a	-999	25	[0, 0, 0]	n/a	catFR1	0	R1069M
2847.506	1.346	1445666	REC_WORD	1.626	n/a	BINDER	OfficeSupplies	1	25	[0, 0, 0]	n/a	catFR1	0	R1069M
2848.852	1.59	1446339	REC_WORD	2.972	n/a	FOLDER	OfficeSupplies	2	25	[0, 0, 0]	n/a	catFR1	0	R1069M
2850.442	1.823	1447134	REC_WORD	4.562	n/a	MOTORCYCLE	Vehicles	3	25	[0, 0, 0]	n/a	catFR1	0	R1069M
2852.265	1.876	1448046	REC_WORD	6.385	n/a	VAN	Vehicles	4	25	[0, 0, 0]	n/a	catFR1	0	R1069M
2854.141	1.612	1448984	REC_WORD	8.261	n/a	BEER	Beverages	5	25	[0, 0, 0]	n/a	catFR1	0	R1069M
2855.753	5.21	1449789	REC_WORD	9.873	n/a	WATER	Beverages	12	25	[0, 0, 0]	n/a	catFR1	0	R1069M
2860.963	14.928	1452394	REC_WORD	15.083	n/a	PAPER	OfficeSupplies	10	25	[0, 0, 0]	n/a	catFR1	0	R1069M
2875.891	111.766	1459858	REC_END	n/a	n/a	n/a	n/a	-999	25	[0, 0, 0]	n/a	catFR1	0	R1069M
2987.657	0.0	1515736	SESS_END	n/a	n/a	n/a	n/a	-999	25	[0, 0, 0]	n/a	catFR1	0	R1069M
