onset	duration	sample	trial_type	response_time	stim_file	item_name	category	serialpos	list	test	answer	experiment	session	subject
0.0	1.564	24576	INSTRUCT_START	n/a	n/a	n/a	n/a	-999	-999	[0, 0, 0]	n/a	catFR1	4	R1497T
1.564	31.55	26141	INSTRUCT_END	n/a	n/a	n/a	n/a	-999	-999	[0, 0, 0]	n/a	catFR1	4	R1497T
33.114	10.35	57689	COUNTDOWN_START	n/a	n/a	n/a	n/a	-999	-999	[0, 0, 0]	n/a	catFR1	4	R1497T
43.464	0.0	68042	COUNTDOWN_END	n/a	n/a	n/a	n/a	-999	-999	[0, 0, 0]	n/a	catFR1	4	R1497T
43.464	2.033	68042	ENCODING_START	n/a	n/a	n/a	n/a	-999	-1	[0, 0, 0]	n/a	catFR1	4	R1497T
45.497	1.6	70068	WORD	n/a	n/a	OYSTER	OceanAnimals	1	-1	[0, 0, 0]	n/a	catFR1	4	R1497T
47.097	0.917	71675	WORD_OFF	n/a	n/a	OYSTER	OceanAnimals	1	-1	[0, 0, 0]	n/a	catFR1	4	R1497T
48.014	1.616	72583	WORD	n/a	n/a	SQUID	OceanAnimals	2	-1	[0, 0, 0]	n/a	catFR1	4	R1497T
49.63	0.95	74204	WORD_OFF	n/a	n/a	SQUID	OceanAnimals	2	-1	[0, 0, 0]	n/a	catFR1	4	R1497T
50.58	1.617	75154	WORD	n/a	n/a	SATIN	Fabric	3	-1	[0, 0, 0]	n/a	catFR1	4	R1497T
52.197	0.983	76775	WORD_OFF	n/a	n/a	SATIN	Fabric	3	-1	[0, 0, 0]	n/a	catFR1	4	R1497T
53.18	1.617	77753	WORD	n/a	n/a	FLEECE	Fabric	4	-1	[0, 0, 0]	n/a	catFR1	4	R1497T
54.797	0.817	79373	WORD_OFF	n/a	n/a	FLEECE	Fabric	4	-1	[0, 0, 0]	n/a	catFR1	4	R1497T
55.614	1.616	80184	WORD	n/a	n/a	PIANO	Instruments	5	-1	[0, 0, 0]	n/a	catFR1	4	R1497T
57.23	0.834	81805	WORD_OFF	n/a	n/a	PIANO	Instruments	5	-1	[0, 0, 0]	n/a	catFR1	4	R1497T
58.064	1.615	82643	WORD	n/a	n/a	TRUMPET	Instruments	6	-1	[0, 0, 0]	n/a	catFR1	4	R1497T
59.679	0.818	84250	WORD_OFF	n/a	n/a	TRUMPET	Instruments	6	-1	[0, 0, 0]	n/a	catFR1	4	R1497T
60.497	1.601	85074	WORD	n/a	n/a	WOOL	Fabric	7	-1	[0, 0, 0]	n/a	catFR1	4	R1497T
62.098	0.832	86667	WORD_OFF	n/a	n/a	WOOL	Fabric	7	-1	[0, 0, 0]	n/a	catFR1	4	R1497T
62.93	1.6	87505	WORD	n/a	n/a	SPANDEX	Fabric	8	-1	[0, 0, 0]	n/a	catFR1	4	R1497T
64.53	1.0	89098	WORD_OFF	n/a	n/a	SPANDEX	Fabric	8	-1	[0, 0, 0]	n/a	catFR1	4	R1497T
65.53	1.617	90104	WORD	n/a	n/a	SHRIMP	OceanAnimals	9	-1	[0, 0, 0]	n/a	catFR1	4	R1497T
67.147	0.817	91725	WORD_OFF	n/a	n/a	SHRIMP	OceanAnimals	9	-1	[0, 0, 0]	n/a	catFR1	4	R1497T
67.964	1.6	92535	WORD	n/a	n/a	TURTLE	OceanAnimals	10	-1	[0, 0, 0]	n/a	catFR1	4	R1497T
69.564	1.0	94142	WORD_OFF	n/a	n/a	TURTLE	OceanAnimals	10	-1	[0, 0, 0]	n/a	catFR1	4	R1497T
70.564	1.6	95134	WORD	n/a	n/a	BASS	Instruments	11	-1	[0, 0, 0]	n/a	catFR1	4	R1497T
72.164	0.966	96740	WORD_OFF	n/a	n/a	BASS	Instruments	11	-1	[0, 0, 0]	n/a	catFR1	4	R1497T
73.13	1.618	97704	WORD	n/a	n/a	DRUM	Instruments	12	-1	[0, 0, 0]	n/a	catFR1	4	R1497T
74.748	0.001	99319	PROB	5.083	n/a	n/a	n/a	-999	-1	[6, 1, 8]	15.0	catFR1	4	R1497T
74.749	0.0	99320	START	n/a	n/a	n/a	n/a	-999	-1	[-999, -999, -999]	n/a	catFR1	4	R1497T
74.747	0.002	99325	WORD_OFF	n/a	n/a	DRUM	Instruments	12	-1	[0, 0, 0]	n/a	catFR1	4	R1497T
74.749	0.0	99325	ENCODING_END	n/a	n/a	n/a	n/a	-999	-1	[0, 0, 0]	n/a	catFR1	4	R1497T
74.749	5.099	99325	DISTRACT_START	n/a	n/a	n/a	n/a	-999	-1	[0, 0, 0]	n/a	catFR1	4	R1497T
79.848	5.233	104419	PROB	5.215	n/a	n/a	n/a	-999	-1	[3, 4, 3]	10.0	catFR1	4	R1497T
85.081	5.266	109652	PROB	5.249	n/a	n/a	n/a	-999	-1	[8, 3, 4]	15.0	catFR1	4	R1497T
90.347	3.583	114918	PROB	3.567	n/a	n/a	n/a	-999	-1	[3, 6, 2]	11.0	catFR1	4	R1497T
93.93	3.333	118500	PROB	3.317	n/a	n/a	n/a	-999	-1	[8, 3, 1]	12.0	catFR1	4	R1497T
97.263	0.0	121833	STOP	n/a	n/a	n/a	n/a	-999	-1	[-999, -999, -999]	n/a	catFR1	4	R1497T
97.263	2.167	121834	DISTRACT_END	n/a	n/a	n/a	n/a	-999	-1	[0, 0, 0]	n/a	catFR1	4	R1497T
99.43	1.154	124007	REC_START	n/a	n/a	n/a	n/a	-999	-1	[0, 0, 0]	n/a	catFR1	4	R1497T
100.584	1.719	125154	REC_WORD	1.154	n/a	OYSTER	OceanAnimals	1	-1	[0, 0, 0]	n/a	catFR1	4	R1497T
102.303	1.522	126873	REC_WORD	2.873	n/a	SHRIMP	OceanAnimals	9	-1	[0, 0, 0]	n/a	catFR1	4	R1497T
103.825	2.297	128395	REC_WORD	4.395	n/a	TURTLE	OceanAnimals	10	-1	[0, 0, 0]	n/a	catFR1	4	R1497T
106.122	2.182	130692	REC_WORD	6.692	n/a	DRUM	Instruments	12	-1	[0, 0, 0]	n/a	catFR1	4	R1497T
108.304	0.943	132874	REC_WORD	8.874	n/a	PIANO	Instruments	5	-1	[0, 0, 0]	n/a	catFR1	4	R1497T
109.247	14.949	133817	REC_WORD	9.817	n/a	TRUMPET	Instruments	6	-1	[0, 0, 0]	n/a	catFR1	4	R1497T
124.196	5.441	148765	REC_WORD	24.766	n/a	SPANDEX	Fabric	8	-1	[0, 0, 0]	n/a	catFR1	4	R1497T
129.637	7.043	154206	REC_END	n/a	n/a	n/a	n/a	-999	-1	[0, 0, 0]	n/a	catFR1	4	R1497T
136.68	10.35	161248	COUNTDOWN_START	n/a	n/a	n/a	n/a	-999	1	[0, 0, 0]	n/a	catFR1	4	R1497T
147.03	0.0	171601	COUNTDOWN_END	n/a	n/a	n/a	n/a	-999	1	[0, 0, 0]	n/a	catFR1	4	R1497T
147.03	1.9	171601	ENCODING_START	n/a	n/a	n/a	n/a	-999	1	[0, 0, 0]	n/a	catFR1	4	R1497T
148.93	1.616	173502	WORD	n/a	wordpools/wordpool_categorized_EN.txt	VACUUM	Appliances	1	1	[0, 0, 0]	n/a	catFR1	4	R1497T
150.546	0.884	175108	WORD_OFF	n/a	n/a	VACUUM	Appliances	1	1	[0, 0, 0]	n/a	catFR1	4	R1497T
151.43	1.6	176003	WORD	n/a	wordpools/wordpool_categorized_EN.txt	REFRIGERATOR	Appliances	2	1	[0, 0, 0]	n/a	catFR1	4	R1497T
153.03	0.851	177595	WORD_OFF	n/a	n/a	REFRIGERATOR	Appliances	2	1	[0, 0, 0]	n/a	catFR1	4	R1497T
153.881	1.616	178448	WORD	n/a	wordpools/wordpool_categorized_EN.txt	WALNUT	Trees	3	1	[0, 0, 0]	n/a	catFR1	4	R1497T
155.497	0.783	180068	WORD_OFF	n/a	n/a	WALNUT	Trees	3	1	[0, 0, 0]	n/a	catFR1	4	R1497T
156.28	1.617	180851	WORD	n/a	wordpools/wordpool_categorized_EN.txt	MAPLE	Trees	4	1	[0, 0, 0]	n/a	catFR1	4	R1497T
157.897	0.967	182471	WORD_OFF	n/a	n/a	MAPLE	Trees	4	1	[0, 0, 0]	n/a	catFR1	4	R1497T
158.864	1.6	183436	WORD	n/a	wordpools/wordpool_categorized_EN.txt	ROBIN	Birds	5	1	[0, 0, 0]	n/a	catFR1	4	R1497T
160.464	0.983	185028	WORD_OFF	n/a	n/a	ROBIN	Birds	5	1	[0, 0, 0]	n/a	catFR1	4	R1497T
161.447	1.6	186020	WORD	n/a	wordpools/wordpool_categorized_EN.txt	GOOSE	Birds	6	1	[0, 0, 0]	n/a	catFR1	4	R1497T
163.047	0.983	187613	WORD_OFF	n/a	n/a	GOOSE	Birds	6	1	[0, 0, 0]	n/a	catFR1	4	R1497T
164.03	1.601	188605	WORD	n/a	wordpools/wordpool_categorized_EN.txt	OAK	Trees	7	1	[0, 0, 0]	n/a	catFR1	4	R1497T
165.631	0.966	190198	WORD_OFF	n/a	n/a	OAK	Trees	7	1	[0, 0, 0]	n/a	catFR1	4	R1497T
166.597	1.6	191162	WORD	n/a	wordpools/wordpool_categorized_EN.txt	EVERGREEN	Trees	8	1	[0, 0, 0]	n/a	catFR1	4	R1497T
168.197	0.799	192769	WORD_OFF	n/a	n/a	EVERGREEN	Trees	8	1	[0, 0, 0]	n/a	catFR1	4	R1497T
168.996	1.601	193565	WORD	n/a	wordpools/wordpool_categorized_EN.txt	SEAGULL	Birds	9	1	[0, 0, 0]	n/a	catFR1	4	R1497T
170.597	0.8	195171	WORD_OFF	n/a	n/a	SEAGULL	Birds	9	1	[0, 0, 0]	n/a	catFR1	4	R1497T
171.397	1.616	195968	WORD	n/a	wordpools/wordpool_categorized_EN.txt	DUCK	Birds	10	1	[0, 0, 0]	n/a	catFR1	4	R1497T
173.013	0.767	197575	WORD_OFF	n/a	n/a	DUCK	Birds	10	1	[0, 0, 0]	n/a	catFR1	4	R1497T
173.78	1.6	198343	WORD	n/a	wordpools/wordpool_categorized_EN.txt	DISHWASHER	Appliances	11	1	[0, 0, 0]	n/a	catFR1	4	R1497T
175.38	0.866	199950	WORD_OFF	n/a	n/a	DISHWASHER	Appliances	11	1	[0, 0, 0]	n/a	catFR1	4	R1497T
176.246	1.618	200816	WORD	n/a	wordpools/wordpool_categorized_EN.txt	TOASTER	Appliances	12	1	[0, 0, 0]	n/a	catFR1	4	R1497T
177.864	0.001	202430	PROB	6.549	n/a	n/a	n/a	-999	1	[4, 7, 8]	19.0	catFR1	4	R1497T
177.865	0.0	202431	START	n/a	n/a	n/a	n/a	-999	1	[-999, -999, -999]	n/a	catFR1	4	R1497T
177.864	0.001	202437	WORD_OFF	n/a	n/a	TOASTER	Appliances	12	1	[0, 0, 0]	n/a	catFR1	4	R1497T
177.865	0.0	202437	ENCODING_END	n/a	n/a	n/a	n/a	-999	1	[0, 0, 0]	n/a	catFR1	4	R1497T
177.865	6.566	202437	DISTRACT_START	n/a	n/a	n/a	n/a	-999	1	[0, 0, 0]	n/a	catFR1	4	R1497T
184.431	10.95	208997	PROB	10.932	n/a	n/a	n/a	-999	1	[4, 7, 2]	13.0	catFR1	4	R1497T
195.381	3.499	219946	PROB	3.482	n/a	n/a	n/a	-999	1	[2, 7, 7]	16.0	catFR1	4	R1497T
198.88	0.0	223445	STOP	n/a	n/a	n/a	n/a	-999	1	[-999, -999, -999]	n/a	catFR1	4	R1497T
198.88	2.317	223451	DISTRACT_END	n/a	n/a	n/a	n/a	-999	1	[0, 0, 0]	n/a	catFR1	4	R1497T
201.197	0.216	225764	REC_START	n/a	n/a	n/a	n/a	-999	1	[0, 0, 0]	n/a	catFR1	4	R1497T
201.413	1.275	225978	REC_WORD	0.216	n/a	DISHWASHER	Appliances	11	1	[0, 0, 0]	n/a	catFR1	4	R1497T
202.688	3.807	227253	REC_WORD	1.491	n/a	VACUUM	Appliances	1	1	[0, 0, 0]	n/a	catFR1	4	R1497T
206.495	1.102	231060	REC_WORD_VV	5.298	n/a	<>	n/a	-999	1	[0, 0, 0]	n/a	catFR1	4	R1497T
207.597	1.617	232162	REC_WORD	6.4	n/a	MAPLE	Trees	4	1	[0, 0, 0]	n/a	catFR1	4	R1497T
209.214	1.083	233778	REC_WORD	8.017	n/a	EVERGREEN	Trees	8	1	[0, 0, 0]	n/a	catFR1	4	R1497T
210.297	1.355	234861	REC_WORD	9.1	n/a	SEAGULL	Birds	9	1	[0, 0, 0]	n/a	catFR1	4	R1497T
211.652	1.825	236216	REC_WORD	10.455	n/a	DUCK	Birds	10	1	[0, 0, 0]	n/a	catFR1	4	R1497T
213.477	0.635	238041	REC_WORD_VV	12.28	n/a	<>	n/a	-999	1	[0, 0, 0]	n/a	catFR1	4	R1497T
214.112	0.474	238676	REC_WORD_VV	12.915	n/a	<>	n/a	-999	1	[0, 0, 0]	n/a	catFR1	4	R1497T
214.586	16.872	239150	REC_WORD	13.389	n/a	GOOSE	Birds	6	1	[0, 0, 0]	n/a	catFR1	4	R1497T
231.458	1.689	256019	REC_END	n/a	n/a	n/a	n/a	-999	1	[0, 0, 0]	n/a	catFR1	4	R1497T
233.147	10.35	257710	COUNTDOWN_START	n/a	n/a	n/a	n/a	-999	2	[0, 0, 0]	n/a	catFR1	4	R1497T
243.497	0.0	268063	COUNTDOWN_END	n/a	n/a	n/a	n/a	-999	2	[0, 0, 0]	n/a	catFR1	4	R1497T
243.497	2.033	268063	ENCODING_START	n/a	n/a	n/a	n/a	-999	2	[0, 0, 0]	n/a	catFR1	4	R1497T
245.53	1.6	270089	WORD	n/a	wordpools/wordpool_categorized_EN.txt	FINCH	Birds	1	2	[0, 0, 0]	n/a	catFR1	4	R1497T
247.13	0.784	271696	WORD_OFF	n/a	n/a	FINCH	Birds	1	2	[0, 0, 0]	n/a	catFR1	4	R1497T
247.914	1.616	272478	WORD	n/a	wordpools/wordpool_categorized_EN.txt	HAWK	Birds	2	2	[0, 0, 0]	n/a	catFR1	4	R1497T
249.53	0.833	274099	WORD_OFF	n/a	n/a	HAWK	Birds	2	2	[0, 0, 0]	n/a	catFR1	4	R1497T
250.363	1.601	274923	WORD	n/a	wordpools/wordpool_categorized_EN.txt	HEAD	BodyParts	3	2	[0, 0, 0]	n/a	catFR1	4	R1497T
251.964	0.85	276530	WORD_OFF	n/a	n/a	HEAD	BodyParts	3	2	[0, 0, 0]	n/a	catFR1	4	R1497T
252.814	1.616	277382	WORD	n/a	wordpools/wordpool_categorized_EN.txt	NOSE	BodyParts	4	2	[0, 0, 0]	n/a	catFR1	4	R1497T
254.43	0.784	278989	WORD_OFF	n/a	n/a	NOSE	BodyParts	4	2	[0, 0, 0]	n/a	catFR1	4	R1497T
255.214	1.6	279771	WORD	n/a	wordpools/wordpool_categorized_EN.txt	RATCHET	Tools	5	2	[0, 0, 0]	n/a	catFR1	4	R1497T
256.814	0.983	281378	WORD_OFF	n/a	n/a	RATCHET	Tools	5	2	[0, 0, 0]	n/a	catFR1	4	R1497T
257.797	1.601	282356	WORD	n/a	wordpools/wordpool_categorized_EN.txt	HAMMER	Tools	6	2	[0, 0, 0]	n/a	catFR1	4	R1497T
259.398	0.765	283963	WORD_OFF	n/a	n/a	HAMMER	Tools	6	2	[0, 0, 0]	n/a	catFR1	4	R1497T
260.163	1.618	284731	WORD	n/a	wordpools/wordpool_categorized_EN.txt	LEG	BodyParts	7	2	[0, 0, 0]	n/a	catFR1	4	R1497T
261.781	0.883	286338	WORD_OFF	n/a	n/a	LEG	BodyParts	7	2	[0, 0, 0]	n/a	catFR1	4	R1497T
262.664	1.617	287232	WORD	n/a	wordpools/wordpool_categorized_EN.txt	FOOT	BodyParts	8	2	[0, 0, 0]	n/a	catFR1	4	R1497T
264.281	0.899	288839	WORD_OFF	n/a	n/a	FOOT	BodyParts	8	2	[0, 0, 0]	n/a	catFR1	4	R1497T
265.18	1.601	289747	WORD	n/a	wordpools/wordpool_categorized_EN.txt	AXE	Tools	9	2	[0, 0, 0]	n/a	catFR1	4	R1497T
266.781	0.882	291340	WORD_OFF	n/a	n/a	AXE	Tools	9	2	[0, 0, 0]	n/a	catFR1	4	R1497T
267.663	1.618	292220	WORD	n/a	wordpools/wordpool_categorized_EN.txt	SANDER	Tools	10	2	[0, 0, 0]	n/a	catFR1	4	R1497T
269.281	0.916	293841	WORD_OFF	n/a	n/a	SANDER	Tools	10	2	[0, 0, 0]	n/a	catFR1	4	R1497T
270.197	1.617	294763	WORD	n/a	wordpools/wordpool_categorized_EN.txt	BLUEBIRD	Birds	11	2	[0, 0, 0]	n/a	catFR1	4	R1497T
271.814	0.916	296370	WORD_OFF	n/a	n/a	BLUEBIRD	Birds	11	2	[0, 0, 0]	n/a	catFR1	4	R1497T
272.73	1.601	297292	WORD	n/a	wordpools/wordpool_categorized_EN.txt	CROW	Birds	12	2	[0, 0, 0]	n/a	catFR1	4	R1497T
274.331	0.001	298892	PROB	8.515	n/a	n/a	n/a	-999	2	[3, 8, 5]	16.0	catFR1	4	R1497T
274.332	0.0	298893	START	n/a	n/a	n/a	n/a	-999	2	[-999, -999, -999]	n/a	catFR1	4	R1497T
274.33	0.002	298899	WORD_OFF	n/a	n/a	CROW	Birds	12	2	[0, 0, 0]	n/a	catFR1	4	R1497T
274.332	0.0	298899	ENCODING_END	n/a	n/a	n/a	n/a	-999	2	[0, 0, 0]	n/a	catFR1	4	R1497T
274.332	8.532	298899	DISTRACT_START	n/a	n/a	n/a	n/a	-999	2	[0, 0, 0]	n/a	catFR1	4	R1497T
282.864	4.567	307425	PROB	4.55	n/a	n/a	n/a	-999	2	[6, 3, 3]	12.0	catFR1	4	R1497T
287.431	3.617	311991	PROB	3.6	n/a	n/a	n/a	-999	2	[2, 8, 3]	13.0	catFR1	4	R1497T
291.048	5.615	315608	PROB	5.599	n/a	n/a	n/a	-999	2	[4, 6, 5]	15.0	catFR1	4	R1497T
296.663	0.0	321223	STOP	n/a	n/a	n/a	n/a	-999	2	[-999, -999, -999]	n/a	catFR1	4	R1497T
296.663	2.217	321226	DISTRACT_END	n/a	n/a	n/a	n/a	-999	2	[0, 0, 0]	n/a	catFR1	4	R1497T
298.88	2.334	323441	REC_START	n/a	n/a	n/a	n/a	-999	2	[0, 0, 0]	n/a	catFR1	4	R1497T
301.214	1.972	325774	REC_WORD	2.334	n/a	LEG	BodyParts	7	2	[0, 0, 0]	n/a	catFR1	4	R1497T
303.186	3.606	327746	REC_WORD	4.306	n/a	DOUGH	n/a	-999	2	[0, 0, 0]	n/a	catFR1	4	R1497T
306.792	0.793	331351	REC_WORD	7.912	n/a	HEAD	BodyParts	3	2	[0, 0, 0]	n/a	catFR1	4	R1497T
307.585	2.75	332144	REC_WORD	8.705	n/a	NOSE	BodyParts	4	2	[0, 0, 0]	n/a	catFR1	4	R1497T
310.335	10.932	334894	REC_WORD	11.455	n/a	BLUEBIRD	Birds	11	2	[0, 0, 0]	n/a	catFR1	4	R1497T
321.267	7.846	345826	REC_WORD	22.387	n/a	AXE	Tools	9	2	[0, 0, 0]	n/a	catFR1	4	R1497T
329.113	1.951	353668	REC_END	n/a	n/a	n/a	n/a	-999	2	[0, 0, 0]	n/a	catFR1	4	R1497T
331.064	10.349	355624	COUNTDOWN_START	n/a	n/a	n/a	n/a	-999	3	[0, 0, 0]	n/a	catFR1	4	R1497T
341.413	0.0	365977	COUNTDOWN_END	n/a	n/a	n/a	n/a	-999	3	[0, 0, 0]	n/a	catFR1	4	R1497T
341.413	1.884	365977	ENCODING_START	n/a	n/a	n/a	n/a	-999	3	[0, 0, 0]	n/a	catFR1	4	R1497T
343.297	1.616	367850	WORD	n/a	wordpools/wordpool_categorized_EN.txt	STEREO	Electronics	1	3	[0, 0, 0]	n/a	catFR1	4	R1497T
344.913	0.784	369470	WORD_OFF	n/a	n/a	STEREO	Electronics	1	3	[0, 0, 0]	n/a	catFR1	4	R1497T
345.697	1.6	370253	WORD	n/a	wordpools/wordpool_categorized_EN.txt	SPEAKER	Electronics	2	3	[0, 0, 0]	n/a	catFR1	4	R1497T
347.297	0.8	371859	WORD_OFF	n/a	n/a	SPEAKER	Electronics	2	3	[0, 0, 0]	n/a	catFR1	4	R1497T
348.097	1.617	372656	WORD	n/a	wordpools/wordpool_categorized_EN.txt	SCOOTER	Vehicles	3	3	[0, 0, 0]	n/a	catFR1	4	R1497T
349.714	0.766	374277	WORD_OFF	n/a	n/a	SCOOTER	Vehicles	3	3	[0, 0, 0]	n/a	catFR1	4	R1497T
350.48	1.6	375045	WORD	n/a	wordpools/wordpool_categorized_EN.txt	VAN	Vehicles	4	3	[0, 0, 0]	n/a	catFR1	4	R1497T
352.08	0.95	376638	WORD_OFF	n/a	n/a	VAN	Vehicles	4	3	[0, 0, 0]	n/a	catFR1	4	R1497T
353.03	1.6	377588	WORD	n/a	wordpools/wordpool_categorized_EN.txt	TURKEY	FarmAnimals	5	3	[0, 0, 0]	n/a	catFR1	4	R1497T
354.63	0.867	379195	WORD_OFF	n/a	n/a	TURKEY	FarmAnimals	5	3	[0, 0, 0]	n/a	catFR1	4	R1497T
355.497	1.617	380061	WORD	n/a	wordpools/wordpool_categorized_EN.txt	HORSE	FarmAnimals	6	3	[0, 0, 0]	n/a	catFR1	4	R1497T
357.114	0.883	381668	WORD_OFF	n/a	n/a	HORSE	FarmAnimals	6	3	[0, 0, 0]	n/a	catFR1	4	R1497T
357.997	1.617	382562	WORD	n/a	wordpools/wordpool_categorized_EN.txt	BIKE	Vehicles	7	3	[0, 0, 0]	n/a	catFR1	4	R1497T
359.614	0.933	384169	WORD_OFF	n/a	n/a	BIKE	Vehicles	7	3	[0, 0, 0]	n/a	catFR1	4	R1497T
360.547	1.617	385105	WORD	n/a	wordpools/wordpool_categorized_EN.txt	MOPED	Vehicles	8	3	[0, 0, 0]	n/a	catFR1	4	R1497T
362.164	0.817	386725	WORD_OFF	n/a	n/a	MOPED	Vehicles	8	3	[0, 0, 0]	n/a	catFR1	4	R1497T
362.981	1.599	387536	WORD	n/a	wordpools/wordpool_categorized_EN.txt	TELEVISION	Electronics	9	3	[0, 0, 0]	n/a	catFR1	4	R1497T
364.58	0.95	389143	WORD_OFF	n/a	n/a	TELEVISION	Electronics	9	3	[0, 0, 0]	n/a	catFR1	4	R1497T
365.53	1.6	390093	WORD	n/a	wordpools/wordpool_categorized_EN.txt	PRINTER	Electronics	10	3	[0, 0, 0]	n/a	catFR1	4	R1497T
367.13	0.833	391685	WORD_OFF	n/a	n/a	PRINTER	Electronics	10	3	[0, 0, 0]	n/a	catFR1	4	R1497T
367.963	1.601	392524	WORD	n/a	wordpools/wordpool_categorized_EN.txt	GOAT	FarmAnimals	11	3	[0, 0, 0]	n/a	catFR1	4	R1497T
369.564	0.766	394117	WORD_OFF	n/a	n/a	GOAT	FarmAnimals	11	3	[0, 0, 0]	n/a	catFR1	4	R1497T
370.33	1.617	394885	WORD	n/a	wordpools/wordpool_categorized_EN.txt	CHICKEN	FarmAnimals	12	3	[0, 0, 0]	n/a	catFR1	4	R1497T
371.947	0.001	396503	PROB	3.183	n/a	n/a	n/a	-999	3	[8, 2, 2]	12.0	catFR1	4	R1497T
371.948	0.0	396504	START	n/a	n/a	n/a	n/a	-999	3	[-999, -999, -999]	n/a	catFR1	4	R1497T
371.947	0.001	396506	WORD_OFF	n/a	n/a	CHICKEN	FarmAnimals	12	3	[0, 0, 0]	n/a	catFR1	4	R1497T
371.948	0.0	396506	ENCODING_END	n/a	n/a	n/a	n/a	-999	3	[0, 0, 0]	n/a	catFR1	4	R1497T
371.948	3.199	396506	DISTRACT_START	n/a	n/a	n/a	n/a	-999	3	[0, 0, 0]	n/a	catFR1	4	R1497T
375.147	4.051	399703	PROB	4.033	n/a	n/a	n/a	-999	3	[7, 4, 1]	12.0	catFR1	4	R1497T
379.198	3.3	403754	PROB	3.283	n/a	n/a	n/a	-999	3	[3, 1, 7]	11.0	catFR1	4	R1497T
382.498	3.983	407053	PROB	3.966	n/a	n/a	n/a	-999	3	[7, 3, 8]	18.0	catFR1	4	R1497T
386.481	3.218	411036	PROB	3.2	n/a	n/a	n/a	-999	3	[1, 3, 3]	7.0	catFR1	4	R1497T
389.699	4.13	414254	PROB	4.116	n/a	n/a	n/a	-999	3	[3, 8, 2]	13.0	catFR1	4	R1497T
393.829	0.0	418384	STOP	n/a	n/a	n/a	n/a	-999	3	[-999, -999, -999]	n/a	catFR1	4	R1497T
393.829	2.351	418386	DISTRACT_END	n/a	n/a	n/a	n/a	-999	3	[0, 0, 0]	n/a	catFR1	4	R1497T
396.18	1.066	420741	REC_START	n/a	n/a	n/a	n/a	-999	3	[0, 0, 0]	n/a	catFR1	4	R1497T
397.246	2.486	421801	REC_WORD	1.066	n/a	TURKEY	FarmAnimals	5	3	[0, 0, 0]	n/a	catFR1	4	R1497T
399.732	2.421	424287	REC_WORD	3.552	n/a	VAN	Vehicles	4	3	[0, 0, 0]	n/a	catFR1	4	R1497T
402.153	1.029	426707	REC_WORD	5.973	n/a	MOPED	Vehicles	8	3	[0, 0, 0]	n/a	catFR1	4	R1497T
403.182	23.244	427736	REC_WORD	7.002	n/a	BIKE	Vehicles	7	3	[0, 0, 0]	n/a	catFR1	4	R1497T
426.426	2.021	450982	REC_END	n/a	n/a	n/a	n/a	-999	3	[0, 0, 0]	n/a	catFR1	4	R1497T
428.447	10.35	453008	COUNTDOWN_START	n/a	n/a	n/a	n/a	-999	4	[0, 0, 0]	n/a	catFR1	4	R1497T
438.797	0.0	463347	COUNTDOWN_END	n/a	n/a	n/a	n/a	-999	4	[0, 0, 0]	n/a	catFR1	4	R1497T
438.797	1.967	463361	ENCODING_START	n/a	n/a	n/a	n/a	-999	4	[0, 0, 0]	n/a	catFR1	4	R1497T
440.764	1.616	465317	WORD	n/a	wordpools/wordpool_categorized_EN.txt	CORKSCREW	KitchenTools	1	4	[0, 0, 0]	n/a	catFR1	4	R1497T
442.38	0.933	466938	WORD_OFF	n/a	n/a	CORKSCREW	KitchenTools	1	4	[0, 0, 0]	n/a	catFR1	4	R1497T
443.313	1.6	467860	WORD	n/a	wordpools/wordpool_categorized_EN.txt	FORK	KitchenTools	2	4	[0, 0, 0]	n/a	catFR1	4	R1497T
444.913	0.817	469467	WORD_OFF	n/a	n/a	FORK	KitchenTools	2	4	[0, 0, 0]	n/a	catFR1	4	R1497T
445.73	1.6	470285	WORD	n/a	wordpools/wordpool_categorized_EN.txt	GRAPE	Fruit	3	4	[0, 0, 0]	n/a	catFR1	4	R1497T
447.33	0.867	471884	WORD_OFF	n/a	n/a	GRAPE	Fruit	3	4	[0, 0, 0]	n/a	catFR1	4	R1497T
448.197	1.6	472750	WORD	n/a	wordpools/wordpool_categorized_EN.txt	BLUEBERRY	Fruit	4	4	[0, 0, 0]	n/a	catFR1	4	R1497T
449.797	0.867	474357	WORD_OFF	n/a	n/a	BLUEBERRY	Fruit	4	4	[0, 0, 0]	n/a	catFR1	4	R1497T
450.664	1.615	475223	WORD	n/a	wordpools/wordpool_categorized_EN.txt	BARBIE	Toys	5	4	[0, 0, 0]	n/a	catFR1	4	R1497T
452.279	0.917	476830	WORD_OFF	n/a	n/a	BARBIE	Toys	5	4	[0, 0, 0]	n/a	catFR1	4	R1497T
453.196	1.616	477752	WORD	n/a	wordpools/wordpool_categorized_EN.txt	SLINKY	Toys	6	4	[0, 0, 0]	n/a	catFR1	4	R1497T
454.812	0.967	479359	WORD_OFF	n/a	n/a	SLINKY	Toys	6	4	[0, 0, 0]	n/a	catFR1	4	R1497T
455.779	1.6	480337	WORD	n/a	wordpools/wordpool_categorized_EN.txt	BANANA	Fruit	7	4	[0, 0, 0]	n/a	catFR1	4	R1497T
457.379	0.982	481929	WORD_OFF	n/a	n/a	BANANA	Fruit	7	4	[0, 0, 0]	n/a	catFR1	4	R1497T
458.361	1.602	482907	WORD	n/a	wordpools/wordpool_categorized_EN.txt	CHERRY	Fruit	8	4	[0, 0, 0]	n/a	catFR1	4	R1497T
459.963	0.832	484514	WORD_OFF	n/a	n/a	CHERRY	Fruit	8	4	[0, 0, 0]	n/a	catFR1	4	R1497T
460.795	1.617	485353	WORD	n/a	wordpools/wordpool_categorized_EN.txt	SPATULA	KitchenTools	9	4	[0, 0, 0]	n/a	catFR1	4	R1497T
462.412	0.966	486959	WORD_OFF	n/a	n/a	SPATULA	KitchenTools	9	4	[0, 0, 0]	n/a	catFR1	4	R1497T
463.378	1.617	487937	WORD	n/a	wordpools/wordpool_categorized_EN.txt	TONGS	KitchenTools	10	4	[0, 0, 0]	n/a	catFR1	4	R1497T
464.995	0.884	489544	WORD_OFF	n/a	n/a	TONGS	KitchenTools	10	4	[0, 0, 0]	n/a	catFR1	4	R1497T
465.879	1.616	490438	WORD	n/a	wordpools/wordpool_categorized_EN.txt	BASKETBALL	Toys	11	4	[0, 0, 0]	n/a	catFR1	4	R1497T
467.495	1.001	492045	WORD_OFF	n/a	n/a	BASKETBALL	Toys	11	4	[0, 0, 0]	n/a	catFR1	4	R1497T
468.496	1.616	493051	WORD	n/a	wordpools/wordpool_categorized_EN.txt	MARBLES	Toys	12	4	[0, 0, 0]	n/a	catFR1	4	R1497T
470.112	0.001	494658	WORD_OFF	n/a	n/a	MARBLES	Toys	12	4	[0, 0, 0]	n/a	catFR1	4	R1497T
470.113	0.0	494664	START	n/a	n/a	n/a	n/a	-999	4	[-999, -999, -999]	n/a	catFR1	4	R1497T
470.113	0.0	494664	PROB	2.983	n/a	n/a	n/a	-999	4	[6, 1, 2]	9.0	catFR1	4	R1497T
470.113	0.0	494672	ENCODING_END	n/a	n/a	n/a	n/a	-999	4	[0, 0, 0]	n/a	catFR1	4	R1497T
470.113	3.0	494672	DISTRACT_START	n/a	n/a	n/a	n/a	-999	4	[0, 0, 0]	n/a	catFR1	4	R1497T
473.113	3.62	497664	PROB	3.61	n/a	n/a	n/a	-999	4	[8, 1, 7]	16.0	catFR1	4	R1497T
476.733	3.514	501284	PROB	3.495	n/a	n/a	n/a	-999	4	[8, 7, 1]	16.0	catFR1	4	R1497T
480.247	5.7	504797	PROB	5.683	n/a	n/a	n/a	-999	4	[3, 3, 4]	10.0	catFR1	4	R1497T
485.947	3.834	510497	PROB	3.816	n/a	n/a	n/a	-999	4	[8, 7, 3]	18.0	catFR1	4	R1497T
489.781	3.516	514331	PROB	3.499	n/a	n/a	n/a	-999	4	[3, 1, 2]	6.0	catFR1	4	R1497T
493.297	0.0	517847	STOP	n/a	n/a	n/a	n/a	-999	4	[-999, -999, -999]	n/a	catFR1	4	R1497T
493.297	2.365	517851	DISTRACT_END	n/a	n/a	n/a	n/a	-999	4	[0, 0, 0]	n/a	catFR1	4	R1497T
495.662	0.83	520220	REC_START	n/a	n/a	n/a	n/a	-999	4	[0, 0, 0]	n/a	catFR1	4	R1497T
496.492	1.184	521042	REC_WORD	0.83	n/a	BASKETBALL	Toys	11	4	[0, 0, 0]	n/a	catFR1	4	R1497T
497.676	1.533	522226	REC_WORD	2.014	n/a	BARBIE	Toys	5	4	[0, 0, 0]	n/a	catFR1	4	R1497T
499.209	3.659	523758	REC_WORD	3.547	n/a	SLINKY	Toys	6	4	[0, 0, 0]	n/a	catFR1	4	R1497T
502.868	3.298	527417	REC_WORD_VV	7.206	n/a	<>	n/a	-999	4	[0, 0, 0]	n/a	catFR1	4	R1497T
506.166	5.632	530715	REC_WORD	10.504	n/a	MARBLES	Toys	12	4	[0, 0, 0]	n/a	catFR1	4	R1497T
511.798	1.002	536347	REC_WORD	16.136	n/a	BANANA	Fruit	7	4	[0, 0, 0]	n/a	catFR1	4	R1497T
512.8	0.694	537349	REC_WORD	17.138	n/a	BANANA	Fruit	7	4	[0, 0, 0]	n/a	catFR1	4	R1497T
513.494	1.036	538043	REC_WORD	17.832	n/a	CHERRY	Fruit	8	4	[0, 0, 0]	n/a	catFR1	4	R1497T
514.53	1.375	539079	REC_WORD	18.868	n/a	BLUEBERRY	Fruit	4	4	[0, 0, 0]	n/a	catFR1	4	R1497T
515.905	1.865	540454	REC_WORD	20.243	n/a	GRAPE	Fruit	3	4	[0, 0, 0]	n/a	catFR1	4	R1497T
517.77	1.774	542318	REC_WORD	22.108	n/a	FORK	KitchenTools	2	4	[0, 0, 0]	n/a	catFR1	4	R1497T
519.544	6.34	544092	REC_WORD	23.882	n/a	CORKSCREW	KitchenTools	1	4	[0, 0, 0]	n/a	catFR1	4	R1497T
525.884	2.23	550433	REC_END	n/a	n/a	n/a	n/a	-999	4	[0, 0, 0]	n/a	catFR1	4	R1497T
528.114	10.349	552669	COUNTDOWN_START	n/a	n/a	n/a	n/a	-999	5	[0, 0, 0]	n/a	catFR1	4	R1497T
538.463	0.0	563008	COUNTDOWN_END	n/a	n/a	n/a	n/a	-999	5	[0, 0, 0]	n/a	catFR1	4	R1497T
538.463	1.867	563008	ENCODING_START	n/a	n/a	n/a	n/a	-999	5	[0, 0, 0]	n/a	catFR1	4	R1497T
540.33	1.6	564880	WORD	n/a	wordpools/wordpool_categorized_EN.txt	COLANDER	KitchenTools	1	5	[0, 0, 0]	n/a	catFR1	4	R1497T
541.93	0.8	566473	WORD_OFF	n/a	n/a	COLANDER	KitchenTools	1	5	[0, 0, 0]	n/a	catFR1	4	R1497T
542.73	1.617	567283	WORD	n/a	wordpools/wordpool_categorized_EN.txt	KNIFE	KitchenTools	2	5	[0, 0, 0]	n/a	catFR1	4	R1497T
544.347	0.966	568890	WORD_OFF	n/a	n/a	KNIFE	KitchenTools	2	5	[0, 0, 0]	n/a	catFR1	4	R1497T
545.313	1.617	569868	WORD	n/a	wordpools/wordpool_categorized_EN.txt	WASHER	Appliances	3	5	[0, 0, 0]	n/a	catFR1	4	R1497T
546.93	0.883	571475	WORD_OFF	n/a	n/a	WASHER	Appliances	3	5	[0, 0, 0]	n/a	catFR1	4	R1497T
547.813	1.6	572355	WORD	n/a	wordpools/wordpool_categorized_EN.txt	OVEN	Appliances	4	5	[0, 0, 0]	n/a	catFR1	4	R1497T
549.413	0.783	573962	WORD_OFF	n/a	n/a	OVEN	Appliances	4	5	[0, 0, 0]	n/a	catFR1	4	R1497T
550.196	1.601	574744	WORD	n/a	wordpools/wordpool_categorized_EN.txt	NOTEBOOK	OfficeSupplies	5	5	[0, 0, 0]	n/a	catFR1	4	R1497T
551.797	0.966	576351	WORD_OFF	n/a	n/a	NOTEBOOK	OfficeSupplies	5	5	[0, 0, 0]	n/a	catFR1	4	R1497T
552.763	1.6	577315	WORD	n/a	wordpools/wordpool_categorized_EN.txt	BINDER	OfficeSupplies	6	5	[0, 0, 0]	n/a	catFR1	4	R1497T
554.363	0.967	578908	WORD_OFF	n/a	n/a	BINDER	OfficeSupplies	6	5	[0, 0, 0]	n/a	catFR1	4	R1497T
555.33	1.6	579872	WORD	n/a	wordpools/wordpool_categorized_EN.txt	PEELER	KitchenTools	7	5	[0, 0, 0]	n/a	catFR1	4	R1497T
556.93	0.901	581479	WORD_OFF	n/a	n/a	PEELER	KitchenTools	7	5	[0, 0, 0]	n/a	catFR1	4	R1497T
557.831	1.599	582373	WORD	n/a	wordpools/wordpool_categorized_EN.txt	STRAINER	KitchenTools	8	5	[0, 0, 0]	n/a	catFR1	4	R1497T
559.43	0.884	583980	WORD_OFF	n/a	n/a	STRAINER	KitchenTools	8	5	[0, 0, 0]	n/a	catFR1	4	R1497T
560.314	1.6	584860	WORD	n/a	wordpools/wordpool_categorized_EN.txt	STAPLER	OfficeSupplies	9	5	[0, 0, 0]	n/a	catFR1	4	R1497T
561.914	0.95	586467	WORD_OFF	n/a	n/a	STAPLER	OfficeSupplies	9	5	[0, 0, 0]	n/a	catFR1	4	R1497T
562.864	1.617	587417	WORD	n/a	wordpools/wordpool_categorized_EN.txt	ERASER	OfficeSupplies	10	5	[0, 0, 0]	n/a	catFR1	4	R1497T
564.481	0.866	589023	WORD_OFF	n/a	n/a	ERASER	OfficeSupplies	10	5	[0, 0, 0]	n/a	catFR1	4	R1497T
565.347	1.617	589890	WORD	n/a	wordpools/wordpool_categorized_EN.txt	IRON	Appliances	11	5	[0, 0, 0]	n/a	catFR1	4	R1497T
566.964	0.882	591510	WORD_OFF	n/a	n/a	IRON	Appliances	11	5	[0, 0, 0]	n/a	catFR1	4	R1497T
567.846	1.601	592391	WORD	n/a	wordpools/wordpool_categorized_EN.txt	BLENDER	Appliances	12	5	[0, 0, 0]	n/a	catFR1	4	R1497T
569.447	0.002	593993	PROB	4.083	n/a	n/a	n/a	-999	5	[6, 1, 3]	10.0	catFR1	4	R1497T
569.449	0.0	593995	START	n/a	n/a	n/a	n/a	-999	5	[-999, -999, -999]	n/a	catFR1	4	R1497T
569.447	0.002	593997	WORD_OFF	n/a	n/a	BLENDER	Appliances	12	5	[0, 0, 0]	n/a	catFR1	4	R1497T
569.449	0.0	593997	ENCODING_END	n/a	n/a	n/a	n/a	-999	5	[0, 0, 0]	n/a	catFR1	4	R1497T
569.449	4.098	593997	DISTRACT_START	n/a	n/a	n/a	n/a	-999	5	[0, 0, 0]	n/a	catFR1	4	R1497T
573.547	4.501	598093	PROB	4.482	n/a	n/a	n/a	-999	5	[2, 4, 7]	13.0	catFR1	4	R1497T
578.048	5.082	602593	PROB	5.066	n/a	n/a	n/a	-999	5	[5, 2, 7]	14.0	catFR1	4	R1497T
583.13	4.418	607675	PROB	4.4	n/a	n/a	n/a	-999	5	[2, 1, 2]	5.0	catFR1	4	R1497T
587.548	3.965	612093	PROB	3.949	n/a	n/a	n/a	-999	5	[6, 6, 2]	14.0	catFR1	4	R1497T
591.513	0.0	616058	STOP	n/a	n/a	n/a	n/a	-999	5	[-999, -999, -999]	n/a	catFR1	4	R1497T
591.513	2.3	616059	DISTRACT_END	n/a	n/a	n/a	n/a	-999	5	[0, 0, 0]	n/a	catFR1	4	R1497T
593.813	0.57	618358	REC_START	n/a	n/a	n/a	n/a	-999	5	[0, 0, 0]	n/a	catFR1	4	R1497T
594.383	1.16	618928	REC_WORD	0.57	n/a	IRON	Appliances	11	5	[0, 0, 0]	n/a	catFR1	4	R1497T
595.543	13.299	620087	REC_WORD	1.73	n/a	BLENDER	Appliances	12	5	[0, 0, 0]	n/a	catFR1	4	R1497T
608.842	1.0	633386	REC_WORD	15.029	n/a	NOTEBOOK	OfficeSupplies	5	5	[0, 0, 0]	n/a	catFR1	4	R1497T
609.842	2.168	634386	REC_WORD	16.029	n/a	NOTEBOOK	OfficeSupplies	5	5	[0, 0, 0]	n/a	catFR1	4	R1497T
612.01	1.16	636554	REC_WORD	18.197	n/a	BINDER	OfficeSupplies	6	5	[0, 0, 0]	n/a	catFR1	4	R1497T
613.17	10.865	637714	REC_WORD	19.357	n/a	ERASER	OfficeSupplies	10	5	[0, 0, 0]	n/a	catFR1	4	R1497T
624.035	1.645	648585	REC_END	n/a	n/a	n/a	n/a	-999	5	[0, 0, 0]	n/a	catFR1	4	R1497T
625.68	10.351	650220	COUNTDOWN_START	n/a	n/a	n/a	n/a	-999	6	[0, 0, 0]	n/a	catFR1	4	R1497T
636.031	0.0	660573	COUNTDOWN_END	n/a	n/a	n/a	n/a	-999	6	[0, 0, 0]	n/a	catFR1	4	R1497T
636.031	2.165	660573	ENCODING_START	n/a	n/a	n/a	n/a	-999	6	[0, 0, 0]	n/a	catFR1	4	R1497T
638.196	1.601	662739	WORD	n/a	wordpools/wordpool_categorized_EN.txt	PUDDING	Desserts	1	6	[0, 0, 0]	n/a	catFR1	4	R1497T
639.797	0.85	664345	WORD_OFF	n/a	n/a	PUDDING	Desserts	1	6	[0, 0, 0]	n/a	catFR1	4	R1497T
640.647	1.6	665184	WORD	n/a	wordpools/wordpool_categorized_EN.txt	CAKE	Desserts	2	6	[0, 0, 0]	n/a	catFR1	4	R1497T
642.247	0.85	666791	WORD_OFF	n/a	n/a	CAKE	Desserts	2	6	[0, 0, 0]	n/a	catFR1	4	R1497T
643.097	1.6	667643	WORD	n/a	wordpools/wordpool_categorized_EN.txt	THUNDER	Weather	3	6	[0, 0, 0]	n/a	catFR1	4	R1497T
644.697	0.783	669236	WORD_OFF	n/a	n/a	THUNDER	Weather	3	6	[0, 0, 0]	n/a	catFR1	4	R1497T
645.48	1.601	670018	WORD	n/a	wordpools/wordpool_categorized_EN.txt	HURRICANE	Weather	4	6	[0, 0, 0]	n/a	catFR1	4	R1497T
647.081	0.965	671625	WORD_OFF	n/a	n/a	HURRICANE	Weather	4	6	[0, 0, 0]	n/a	catFR1	4	R1497T
648.046	1.601	672589	WORD	n/a	wordpools/wordpool_categorized_EN.txt	COFFEE	Beverages	5	6	[0, 0, 0]	n/a	catFR1	4	R1497T
649.647	0.917	674196	WORD_OFF	n/a	n/a	COFFEE	Beverages	5	6	[0, 0, 0]	n/a	catFR1	4	R1497T
650.564	1.617	675104	WORD	n/a	wordpools/wordpool_categorized_EN.txt	WINE	Beverages	6	6	[0, 0, 0]	n/a	catFR1	4	R1497T
652.181	0.849	676725	WORD_OFF	n/a	n/a	WINE	Beverages	6	6	[0, 0, 0]	n/a	catFR1	4	R1497T
653.03	1.6	677577	WORD	n/a	wordpools/wordpool_categorized_EN.txt	JELLO	Desserts	7	6	[0, 0, 0]	n/a	catFR1	4	R1497T
654.63	0.883	679170	WORD_OFF	n/a	n/a	JELLO	Desserts	7	6	[0, 0, 0]	n/a	catFR1	4	R1497T
655.513	1.601	680050	WORD	n/a	wordpools/wordpool_categorized_EN.txt	COOKIE	Desserts	8	6	[0, 0, 0]	n/a	catFR1	4	R1497T
657.114	0.85	681657	WORD_OFF	n/a	n/a	COOKIE	Desserts	8	6	[0, 0, 0]	n/a	catFR1	4	R1497T
657.964	1.617	682509	WORD	n/a	wordpools/wordpool_categorized_EN.txt	WIND	Weather	9	6	[0, 0, 0]	n/a	catFR1	4	R1497T
659.581	0.899	684130	WORD_OFF	n/a	n/a	WIND	Weather	9	6	[0, 0, 0]	n/a	catFR1	4	R1497T
660.48	1.601	685024	WORD	n/a	wordpools/wordpool_categorized_EN.txt	LIGHTNING	Weather	10	6	[0, 0, 0]	n/a	catFR1	4	R1497T
662.081	0.866	686617	WORD_OFF	n/a	n/a	LIGHTNING	Weather	10	6	[0, 0, 0]	n/a	catFR1	4	R1497T
662.947	1.6	687483	WORD	n/a	wordpools/wordpool_categorized_EN.txt	WATER	Beverages	11	6	[0, 0, 0]	n/a	catFR1	4	R1497T
664.547	0.883	689090	WORD_OFF	n/a	n/a	WATER	Beverages	11	6	[0, 0, 0]	n/a	catFR1	4	R1497T
665.43	1.617	689970	WORD	n/a	wordpools/wordpool_categorized_EN.txt	MILK	Beverages	12	6	[0, 0, 0]	n/a	catFR1	4	R1497T
667.047	0.001	691588	PROB	8.167	n/a	n/a	n/a	-999	6	[6, 8, 8]	22.0	catFR1	4	R1497T
667.048	0.0	691589	START	n/a	n/a	n/a	n/a	-999	6	[-999, -999, -999]	n/a	catFR1	4	R1497T
667.046	0.002	691591	WORD_OFF	n/a	n/a	MILK	Beverages	12	6	[0, 0, 0]	n/a	catFR1	4	R1497T
667.048	0.0	691591	ENCODING_END	n/a	n/a	n/a	n/a	-999	6	[0, 0, 0]	n/a	catFR1	4	R1497T
667.048	8.183	691591	DISTRACT_START	n/a	n/a	n/a	n/a	-999	6	[0, 0, 0]	n/a	catFR1	4	R1497T
675.231	5.967	699771	PROB	5.95	n/a	n/a	n/a	-999	6	[7, 3, 1]	11.0	catFR1	4	R1497T
681.198	5.483	705738	PROB	5.466	n/a	n/a	n/a	-999	6	[1, 4, 7]	12.0	catFR1	4	R1497T
686.681	2.849	711221	PROB	2.833	n/a	n/a	n/a	-999	6	[1, 3, 5]	9.0	catFR1	4	R1497T
689.53	0.0	714070	STOP	n/a	n/a	n/a	n/a	-999	6	[-999, -999, -999]	n/a	catFR1	4	R1497T
689.53	2.151	714071	DISTRACT_END	n/a	n/a	n/a	n/a	-999	6	[0, 0, 0]	n/a	catFR1	4	R1497T
691.681	2.077	716217	REC_START	n/a	n/a	n/a	n/a	-999	6	[0, 0, 0]	n/a	catFR1	4	R1497T
693.758	3.876	718297	REC_WORD	2.077	n/a	COFFEE	Beverages	5	6	[0, 0, 0]	n/a	catFR1	4	R1497T
697.634	1.072	722173	REC_WORD	5.953	n/a	MILK	Beverages	12	6	[0, 0, 0]	n/a	catFR1	4	R1497T
698.706	0.724	723245	REC_WORD	7.025	n/a	WATER	Beverages	11	6	[0, 0, 0]	n/a	catFR1	4	R1497T
699.43	4.452	723969	REC_WORD	7.749	n/a	WINE	Beverages	6	6	[0, 0, 0]	n/a	catFR1	4	R1497T
703.882	0.968	728421	REC_WORD	12.201	n/a	PUDDING	Desserts	1	6	[0, 0, 0]	n/a	catFR1	4	R1497T
704.85	4.742	729389	REC_WORD	13.169	n/a	CAKE	Desserts	2	6	[0, 0, 0]	n/a	catFR1	4	R1497T
709.592	4.433	734131	REC_WORD	17.911	n/a	HURRICANE	Weather	4	6	[0, 0, 0]	n/a	catFR1	4	R1497T
714.025	0.999	738563	REC_WORD	22.344	n/a	THUNDERSTORM	n/a	-999	6	[0, 0, 0]	n/a	catFR1	4	R1497T
715.024	0.555	739562	REC_WORD	23.343	n/a	THUNDERSTORM	n/a	-999	6	[0, 0, 0]	n/a	catFR1	4	R1497T
715.579	0.671	740117	REC_WORD	23.898	n/a	WIND	Weather	9	6	[0, 0, 0]	n/a	catFR1	4	R1497T
716.25	5.647	740788	REC_WORD	24.569	n/a	LIGHTNING	Weather	10	6	[0, 0, 0]	n/a	catFR1	4	R1497T
721.897	2.083	746430	REC_END	n/a	n/a	n/a	n/a	-999	6	[0, 0, 0]	n/a	catFR1	4	R1497T
723.98	10.351	748526	COUNTDOWN_START	n/a	n/a	n/a	n/a	-999	7	[0, 0, 0]	n/a	catFR1	4	R1497T
734.331	0.0	758865	COUNTDOWN_END	n/a	n/a	n/a	n/a	-999	7	[0, 0, 0]	n/a	catFR1	4	R1497T
734.331	2.199	758865	ENCODING_START	n/a	n/a	n/a	n/a	-999	7	[0, 0, 0]	n/a	catFR1	4	R1497T
736.53	1.616	761072	WORD	n/a	wordpools/wordpool_categorized_EN.txt	STREAM	Landscapes	1	7	[0, 0, 0]	n/a	catFR1	4	R1497T
738.146	0.95	762679	WORD_OFF	n/a	n/a	STREAM	Landscapes	1	7	[0, 0, 0]	n/a	catFR1	4	R1497T
739.096	1.601	763629	WORD	n/a	wordpools/wordpool_categorized_EN.txt	ISLAND	Landscapes	2	7	[0, 0, 0]	n/a	catFR1	4	R1497T
740.697	0.883	765236	WORD_OFF	n/a	n/a	ISLAND	Landscapes	2	7	[0, 0, 0]	n/a	catFR1	4	R1497T
741.58	1.601	766116	WORD	n/a	wordpools/wordpool_categorized_EN.txt	CHEESECAKE	Desserts	3	7	[0, 0, 0]	n/a	catFR1	4	R1497T
743.181	0.866	767723	WORD_OFF	n/a	n/a	CHEESECAKE	Desserts	3	7	[0, 0, 0]	n/a	catFR1	4	R1497T
744.047	1.617	768589	WORD	n/a	wordpools/wordpool_categorized_EN.txt	CUPCAKE	Desserts	4	7	[0, 0, 0]	n/a	catFR1	4	R1497T
745.664	0.783	770196	WORD_OFF	n/a	n/a	CUPCAKE	Desserts	4	7	[0, 0, 0]	n/a	catFR1	4	R1497T
746.447	1.6	770978	WORD	n/a	wordpools/wordpool_categorized_EN.txt	VIOLIN	Instruments	5	7	[0, 0, 0]	n/a	catFR1	4	R1497T
748.047	0.95	772585	WORD_OFF	n/a	n/a	VIOLIN	Instruments	5	7	[0, 0, 0]	n/a	catFR1	4	R1497T
748.997	1.6	773535	WORD	n/a	wordpools/wordpool_categorized_EN.txt	CELLO	Instruments	6	7	[0, 0, 0]	n/a	catFR1	4	R1497T
750.597	0.817	775128	WORD_OFF	n/a	n/a	CELLO	Instruments	6	7	[0, 0, 0]	n/a	catFR1	4	R1497T
751.414	1.6	775952	WORD	n/a	wordpools/wordpool_categorized_EN.txt	VALLEY	Landscapes	7	7	[0, 0, 0]	n/a	catFR1	4	R1497T
753.014	0.966	777545	WORD_OFF	n/a	n/a	VALLEY	Landscapes	7	7	[0, 0, 0]	n/a	catFR1	4	R1497T
753.98	1.601	778523	WORD	n/a	wordpools/wordpool_categorized_EN.txt	BEACH	Landscapes	8	7	[0, 0, 0]	n/a	catFR1	4	R1497T
755.581	0.799	780116	WORD_OFF	n/a	n/a	BEACH	Landscapes	8	7	[0, 0, 0]	n/a	catFR1	4	R1497T
756.38	1.6	780912	WORD	n/a	wordpools/wordpool_categorized_EN.txt	MOUSSE	Desserts	9	7	[0, 0, 0]	n/a	catFR1	4	R1497T
757.98	0.916	782519	WORD_OFF	n/a	n/a	MOUSSE	Desserts	9	7	[0, 0, 0]	n/a	catFR1	4	R1497T
758.896	1.601	783427	WORD	n/a	wordpools/wordpool_categorized_EN.txt	PIE	Desserts	10	7	[0, 0, 0]	n/a	catFR1	4	R1497T
760.497	0.9	785034	WORD_OFF	n/a	n/a	PIE	Desserts	10	7	[0, 0, 0]	n/a	catFR1	4	R1497T
761.397	1.6	785928	WORD	n/a	wordpools/wordpool_categorized_EN.txt	FLUTE	Instruments	11	7	[0, 0, 0]	n/a	catFR1	4	R1497T
762.997	0.9	787535	WORD_OFF	n/a	n/a	FLUTE	Instruments	11	7	[0, 0, 0]	n/a	catFR1	4	R1497T
763.897	1.617	788429	WORD	n/a	wordpools/wordpool_categorized_EN.txt	BANJO	Instruments	12	7	[0, 0, 0]	n/a	catFR1	4	R1497T
765.514	0.001	790050	WORD_OFF	n/a	n/a	BANJO	Instruments	12	7	[0, 0, 0]	n/a	catFR1	4	R1497T
765.515	0.0	790050	ENCODING_END	n/a	n/a	n/a	n/a	-999	7	[0, 0, 0]	n/a	catFR1	4	R1497T
765.515	0.0	790050	DISTRACT_START	n/a	n/a	n/a	n/a	-999	7	[0, 0, 0]	n/a	catFR1	4	R1497T
765.514	0.001	790050	PROB	3.332	n/a	n/a	n/a	-999	7	[1, 5, 5]	11.0	catFR1	4	R1497T
765.515	3.348	790051	START	n/a	n/a	n/a	n/a	-999	7	[-999, -999, -999]	n/a	catFR1	4	R1497T
768.863	3.534	793398	PROB	3.517	n/a	n/a	n/a	-999	7	[2, 8, 4]	14.0	catFR1	4	R1497T
772.397	3.733	796932	PROB	3.717	n/a	n/a	n/a	-999	7	[3, 8, 7]	18.0	catFR1	4	R1497T
776.13	6.633	800665	PROB	6.616	n/a	n/a	n/a	-999	7	[3, 7, 5]	15.0	catFR1	4	R1497T
782.763	4.533	807298	PROB	4.515	n/a	n/a	n/a	-999	7	[6, 6, 2]	14.0	catFR1	4	R1497T
787.296	0.0	811830	STOP	n/a	n/a	n/a	n/a	-999	7	[-999, -999, -999]	n/a	catFR1	4	R1497T
787.296	2.217	811832	DISTRACT_END	n/a	n/a	n/a	n/a	-999	7	[0, 0, 0]	n/a	catFR1	4	R1497T
789.513	0.5	814048	REC_START	n/a	n/a	n/a	n/a	-999	7	[0, 0, 0]	n/a	catFR1	4	R1497T
790.013	1.311	814547	REC_WORD	0.5	n/a	FLUTE	Instruments	11	7	[0, 0, 0]	n/a	catFR1	4	R1497T
791.324	2.261	815858	REC_WORD	1.811	n/a	BANJO	Instruments	12	7	[0, 0, 0]	n/a	catFR1	4	R1497T
793.585	1.221	818119	REC_WORD	4.072	n/a	PIE	Desserts	10	7	[0, 0, 0]	n/a	catFR1	4	R1497T
794.806	2.571	819340	REC_WORD	5.293	n/a	CHEESECAKE	Desserts	3	7	[0, 0, 0]	n/a	catFR1	4	R1497T
797.377	4.327	821911	REC_WORD	7.864	n/a	CAKE	Desserts	-999	7	[0, 0, 0]	n/a	catFR1	4	R1497T
801.704	1.002	826238	REC_WORD	12.191	n/a	VIOLIN	Instruments	5	7	[0, 0, 0]	n/a	catFR1	4	R1497T
802.706	0.505	827240	REC_WORD	13.193	n/a	VIOLIN	Instruments	5	7	[0, 0, 0]	n/a	catFR1	4	R1497T
803.211	16.513	827745	REC_WORD	13.698	n/a	CELLO	Instruments	6	7	[0, 0, 0]	n/a	catFR1	4	R1497T
819.724	1.439	844261	REC_END	n/a	n/a	n/a	n/a	-999	7	[0, 0, 0]	n/a	catFR1	4	R1497T
821.163	10.351	845700	COUNTDOWN_START	n/a	n/a	n/a	n/a	-999	8	[0, 0, 0]	n/a	catFR1	4	R1497T
831.514	0.0	856053	COUNTDOWN_END	n/a	n/a	n/a	n/a	-999	8	[0, 0, 0]	n/a	catFR1	4	R1497T
831.514	1.933	856053	ENCODING_START	n/a	n/a	n/a	n/a	-999	8	[0, 0, 0]	n/a	catFR1	4	R1497T
833.447	1.6	857981	WORD	n/a	wordpools/wordpool_categorized_EN.txt	MOTORCYCLE	Vehicles	1	8	[0, 0, 0]	n/a	catFR1	4	R1497T
835.047	0.967	859574	WORD_OFF	n/a	n/a	MOTORCYCLE	Vehicles	1	8	[0, 0, 0]	n/a	catFR1	4	R1497T
836.014	1.616	860552	WORD	n/a	wordpools/wordpool_categorized_EN.txt	TRUCK	Vehicles	2	8	[0, 0, 0]	n/a	catFR1	4	R1497T
837.63	0.916	862158	WORD_OFF	n/a	n/a	TRUCK	Vehicles	2	8	[0, 0, 0]	n/a	catFR1	4	R1497T
838.546	1.601	863081	WORD	n/a	wordpools/wordpool_categorized_EN.txt	FLOOR	Building	3	8	[0, 0, 0]	n/a	catFR1	4	R1497T
840.147	0.766	864673	WORD_OFF	n/a	n/a	FLOOR	Building	3	8	[0, 0, 0]	n/a	catFR1	4	R1497T
840.913	1.601	865442	WORD	n/a	wordpools/wordpool_categorized_EN.txt	WINDOW	Building	4	8	[0, 0, 0]	n/a	catFR1	4	R1497T
842.514	0.95	867049	WORD_OFF	n/a	n/a	WINDOW	Building	4	8	[0, 0, 0]	n/a	catFR1	4	R1497T
843.464	1.6	867999	WORD	n/a	wordpools/wordpool_categorized_EN.txt	CYPRESS	Trees	5	8	[0, 0, 0]	n/a	catFR1	4	R1497T
845.064	0.899	869592	WORD_OFF	n/a	n/a	CYPRESS	Trees	5	8	[0, 0, 0]	n/a	catFR1	4	R1497T
845.963	1.601	870500	WORD	n/a	wordpools/wordpool_categorized_EN.txt	HICKORY	Trees	6	8	[0, 0, 0]	n/a	catFR1	4	R1497T
847.564	0.982	872092	WORD_OFF	n/a	n/a	HICKORY	Trees	6	8	[0, 0, 0]	n/a	catFR1	4	R1497T
848.546	1.601	873084	WORD	n/a	wordpools/wordpool_categorized_EN.txt	ATTIC	Building	7	8	[0, 0, 0]	n/a	catFR1	4	R1497T
850.147	0.817	874677	WORD_OFF	n/a	n/a	ATTIC	Building	7	8	[0, 0, 0]	n/a	catFR1	4	R1497T
850.964	1.6	875502	WORD	n/a	wordpools/wordpool_categorized_EN.txt	ROOF	Building	8	8	[0, 0, 0]	n/a	catFR1	4	R1497T
852.564	0.849	877094	WORD_OFF	n/a	n/a	ROOF	Building	8	8	[0, 0, 0]	n/a	catFR1	4	R1497T
853.413	1.618	877947	WORD	n/a	wordpools/wordpool_categorized_EN.txt	TRAIN	Vehicles	9	8	[0, 0, 0]	n/a	catFR1	4	R1497T
855.031	0.849	879567	WORD_OFF	n/a	n/a	TRAIN	Vehicles	9	8	[0, 0, 0]	n/a	catFR1	4	R1497T
855.88	1.617	880406	WORD	n/a	wordpools/wordpool_categorized_EN.txt	PLANE	Vehicles	10	8	[0, 0, 0]	n/a	catFR1	4	R1497T
857.497	0.983	882026	WORD_OFF	n/a	n/a	PLANE	Vehicles	10	8	[0, 0, 0]	n/a	catFR1	4	R1497T
858.48	1.6	883018	WORD	n/a	wordpools/wordpool_categorized_EN.txt	SPRUCE	Trees	11	8	[0, 0, 0]	n/a	catFR1	4	R1497T
860.08	0.867	884611	WORD_OFF	n/a	n/a	SPRUCE	Trees	11	8	[0, 0, 0]	n/a	catFR1	4	R1497T
860.947	1.617	885477	WORD	n/a	wordpools/wordpool_categorized_EN.txt	ELM	Trees	12	8	[0, 0, 0]	n/a	catFR1	4	R1497T
862.564	0.001	887095	PROB	2.716	n/a	n/a	n/a	-999	8	[2, 2, 2]	6.0	catFR1	4	R1497T
862.565	0.0	887096	START	n/a	n/a	n/a	n/a	-999	8	[-999, -999, -999]	n/a	catFR1	4	R1497T
862.564	0.001	887098	WORD_OFF	n/a	n/a	ELM	Trees	12	8	[0, 0, 0]	n/a	catFR1	4	R1497T
862.565	0.0	887098	ENCODING_END	n/a	n/a	n/a	n/a	-999	8	[0, 0, 0]	n/a	catFR1	4	R1497T
862.565	2.732	887098	DISTRACT_START	n/a	n/a	n/a	n/a	-999	8	[0, 0, 0]	n/a	catFR1	4	R1497T
865.297	6.3	889827	PROB	6.283	n/a	n/a	n/a	-999	8	[8, 7, 5]	20.0	catFR1	4	R1497T
871.597	5.817	896127	PROB	5.799	n/a	n/a	n/a	-999	8	[3, 4, 8]	15.0	catFR1	4	R1497T
877.414	3.267	901944	PROB	3.249	n/a	n/a	n/a	-999	8	[4, 1, 6]	11.0	catFR1	4	R1497T
880.681	4.149	905211	PROB	4.133	n/a	n/a	n/a	-999	8	[7, 2, 2]	11.0	catFR1	4	R1497T
884.83	0.0	909355	DISTRACT_END	n/a	n/a	n/a	n/a	-999	8	[0, 0, 0]	n/a	catFR1	4	R1497T
884.83	2.333	909359	STOP	n/a	n/a	n/a	n/a	-999	8	[-999, -999, -999]	n/a	catFR1	4	R1497T
887.163	2.736	911697	REC_START	n/a	n/a	n/a	n/a	-999	8	[0, 0, 0]	n/a	catFR1	4	R1497T
889.899	1.003	914428	REC_WORD	2.736	n/a	SPRUCE	Trees	11	8	[0, 0, 0]	n/a	catFR1	4	R1497T
890.902	5.833	915431	REC_WORD	3.739	n/a	SPRUCE	Trees	11	8	[0, 0, 0]	n/a	catFR1	4	R1497T
896.735	3.432	921264	REC_WORD	9.572	n/a	ELM	Trees	12	8	[0, 0, 0]	n/a	catFR1	4	R1497T
900.167	2.971	924696	REC_WORD	13.004	n/a	ATTIC	Building	7	8	[0, 0, 0]	n/a	catFR1	4	R1497T
903.138	1.88	927667	REC_WORD	15.975	n/a	FLOOR	Building	3	8	[0, 0, 0]	n/a	catFR1	4	R1497T
905.018	12.373	929546	REC_WORD	17.855	n/a	WINDOW	Building	4	8	[0, 0, 0]	n/a	catFR1	4	R1497T
917.391	1.939	941924	REC_END	n/a	n/a	n/a	n/a	-999	8	[0, 0, 0]	n/a	catFR1	4	R1497T
919.33	10.35	943866	COUNTDOWN_START	n/a	n/a	n/a	n/a	-999	9	[0, 0, 0]	n/a	catFR1	4	R1497T
929.68	0.0	954205	COUNTDOWN_END	n/a	n/a	n/a	n/a	-999	9	[0, 0, 0]	n/a	catFR1	4	R1497T
929.68	2.267	954205	ENCODING_START	n/a	n/a	n/a	n/a	-999	9	[0, 0, 0]	n/a	catFR1	4	R1497T
931.947	1.6	956482	WORD	n/a	wordpools/wordpool_categorized_EN.txt	BROCCOLI	Vegetables	1	9	[0, 0, 0]	n/a	catFR1	4	R1497T
933.547	0.9	958075	WORD_OFF	n/a	n/a	BROCCOLI	Vegetables	1	9	[0, 0, 0]	n/a	catFR1	4	R1497T
934.447	1.617	958969	WORD	n/a	wordpools/wordpool_categorized_EN.txt	CELERY	Vegetables	2	9	[0, 0, 0]	n/a	catFR1	4	R1497T
936.064	0.816	960590	WORD_OFF	n/a	n/a	CELERY	Vegetables	2	9	[0, 0, 0]	n/a	catFR1	4	R1497T
936.88	1.617	961414	WORD	n/a	wordpools/wordpool_categorized_EN.txt	BUS	Vehicles	3	9	[0, 0, 0]	n/a	catFR1	4	R1497T
938.497	0.883	963021	WORD_OFF	n/a	n/a	BUS	Vehicles	3	9	[0, 0, 0]	n/a	catFR1	4	R1497T
939.38	1.601	963915	WORD	n/a	wordpools/wordpool_categorized_EN.txt	BOAT	Vehicles	4	9	[0, 0, 0]	n/a	catFR1	4	R1497T
940.981	0.849	965508	WORD_OFF	n/a	n/a	BOAT	Vehicles	4	9	[0, 0, 0]	n/a	catFR1	4	R1497T
941.83	1.601	966360	WORD	n/a	wordpools/wordpool_categorized_EN.txt	DOLLHOUSE	Toys	5	9	[0, 0, 0]	n/a	catFR1	4	R1497T
943.431	0.899	967953	WORD_OFF	n/a	n/a	DOLLHOUSE	Toys	5	9	[0, 0, 0]	n/a	catFR1	4	R1497T
944.33	1.6	968861	WORD	n/a	wordpools/wordpool_categorized_EN.txt	FOOTBALL	Toys	6	9	[0, 0, 0]	n/a	catFR1	4	R1497T
945.93	0.85	970454	WORD_OFF	n/a	n/a	FOOTBALL	Toys	6	9	[0, 0, 0]	n/a	catFR1	4	R1497T
946.78	1.6	971306	WORD	n/a	wordpools/wordpool_categorized_EN.txt	CAULIFLOWER	Vegetables	7	9	[0, 0, 0]	n/a	catFR1	4	R1497T
948.38	0.883	972913	WORD_OFF	n/a	n/a	CAULIFLOWER	Vegetables	7	9	[0, 0, 0]	n/a	catFR1	4	R1497T
949.263	1.601	973793	WORD	n/a	wordpools/wordpool_categorized_EN.txt	ONION	Vegetables	8	9	[0, 0, 0]	n/a	catFR1	4	R1497T
950.864	0.783	975386	WORD_OFF	n/a	n/a	ONION	Vegetables	8	9	[0, 0, 0]	n/a	catFR1	4	R1497T
951.647	1.617	976169	WORD	n/a	wordpools/wordpool_categorized_EN.txt	FRISBEE	Toys	9	9	[0, 0, 0]	n/a	catFR1	4	R1497T
953.264	0.833	977789	WORD_OFF	n/a	n/a	FRISBEE	Toys	9	9	[0, 0, 0]	n/a	catFR1	4	R1497T
954.097	1.6	978628	WORD	n/a	wordpools/wordpool_categorized_EN.txt	BALL	Toys	10	9	[0, 0, 0]	n/a	catFR1	4	R1497T
955.697	0.833	980220	WORD_OFF	n/a	n/a	BALL	Toys	10	9	[0, 0, 0]	n/a	catFR1	4	R1497T
956.53	1.6	981059	WORD	n/a	wordpools/wordpool_categorized_EN.txt	CAR	Vehicles	11	9	[0, 0, 0]	n/a	catFR1	4	R1497T
958.13	0.934	982651	WORD_OFF	n/a	n/a	CAR	Vehicles	11	9	[0, 0, 0]	n/a	catFR1	4	R1497T
959.064	1.617	983588	WORD	n/a	wordpools/wordpool_categorized_EN.txt	JEEP	Vehicles	12	9	[0, 0, 0]	n/a	catFR1	4	R1497T
960.681	0.0	985207	PROB	5.233	n/a	n/a	n/a	-999	9	[8, 2, 5]	15.0	catFR1	4	R1497T
960.68	0.002	985208	WORD_OFF	n/a	n/a	JEEP	Vehicles	12	9	[0, 0, 0]	n/a	catFR1	4	R1497T
960.682	0.0	985208	ENCODING_END	n/a	n/a	n/a	n/a	-999	9	[0, 0, 0]	n/a	catFR1	4	R1497T
960.682	0.0	985208	DISTRACT_START	n/a	n/a	n/a	n/a	-999	9	[0, 0, 0]	n/a	catFR1	4	R1497T
960.682	5.249	985208	START	n/a	n/a	n/a	n/a	-999	9	[-999, -999, -999]	n/a	catFR1	4	R1497T
965.931	2.783	990456	PROB	2.766	n/a	n/a	n/a	-999	9	[5, 2, 1]	8.0	catFR1	4	R1497T
968.714	7.217	993239	PROB	7.2	n/a	n/a	n/a	-999	9	[7, 5, 1]	16.0	catFR1	4	R1497T
975.931	4.616	1000456	PROB	4.599	n/a	n/a	n/a	-999	9	[2, 2, 1]	5.0	catFR1	4	R1497T
980.547	4.183	1005071	PROB	4.167	n/a	n/a	n/a	-999	9	[7, 8, 3]	18.0	catFR1	4	R1497T
984.73	0.0	1009254	DISTRACT_END	n/a	n/a	n/a	n/a	-999	9	[0, 0, 0]	n/a	catFR1	4	R1497T
984.73	2.183	1009254	STOP	n/a	n/a	n/a	n/a	-999	9	[-999, -999, -999]	n/a	catFR1	4	R1497T
986.913	1.026	1011441	REC_START	n/a	n/a	n/a	n/a	-999	9	[0, 0, 0]	n/a	catFR1	4	R1497T
987.939	1.168	1012463	REC_WORD	1.026	n/a	BALL	Toys	10	9	[0, 0, 0]	n/a	catFR1	4	R1497T
989.107	1.0	1013631	REC_WORD	2.194	n/a	FRISBEE	Toys	9	9	[0, 0, 0]	n/a	catFR1	4	R1497T
990.107	3.376	1014631	REC_WORD	3.194	n/a	FRISBEE	Toys	9	9	[0, 0, 0]	n/a	catFR1	4	R1497T
993.483	1.0	1018007	REC_WORD	6.57	n/a	DOLLHOUSE	Toys	5	9	[0, 0, 0]	n/a	catFR1	4	R1497T
994.483	3.344	1019007	REC_WORD	7.57	n/a	DOLLHOUSE	Toys	5	9	[0, 0, 0]	n/a	catFR1	4	R1497T
997.827	1.096	1022351	REC_WORD	10.914	n/a	BROCCOLI	Vegetables	1	9	[0, 0, 0]	n/a	catFR1	4	R1497T
998.923	0.916	1023447	REC_WORD	12.01	n/a	ONION	Vegetables	8	9	[0, 0, 0]	n/a	catFR1	4	R1497T
999.839	1.003	1024363	REC_WORD	12.926	n/a	CAULIFLOWER	Vegetables	7	9	[0, 0, 0]	n/a	catFR1	4	R1497T
1000.842	5.826	1025366	REC_WORD	13.929	n/a	CAULIFLOWER	Vegetables	7	9	[0, 0, 0]	n/a	catFR1	4	R1497T
1006.668	4.593	1031191	REC_WORD	19.755	n/a	CELERY	Vegetables	2	9	[0, 0, 0]	n/a	catFR1	4	R1497T
1011.261	5.846	1035784	REC_WORD	24.348	n/a	FOOTBALL	Toys	6	9	[0, 0, 0]	n/a	catFR1	4	R1497T
1017.107	2.057	1041626	REC_END	n/a	n/a	n/a	n/a	-999	9	[0, 0, 0]	n/a	catFR1	4	R1497T
1019.164	10.349	1043694	COUNTDOWN_START	n/a	n/a	n/a	n/a	-999	10	[0, 0, 0]	n/a	catFR1	4	R1497T
1029.513	0.0	1054033	COUNTDOWN_END	n/a	n/a	n/a	n/a	-999	10	[0, 0, 0]	n/a	catFR1	4	R1497T
1029.513	2.3	1054033	ENCODING_START	n/a	n/a	n/a	n/a	-999	10	[0, 0, 0]	n/a	catFR1	4	R1497T
1031.813	1.601	1056339	WORD	n/a	wordpools/wordpool_categorized_EN.txt	SHEEP	FarmAnimals	1	10	[0, 0, 0]	n/a	catFR1	4	R1497T
1033.414	0.883	1057932	WORD_OFF	n/a	n/a	SHEEP	FarmAnimals	1	10	[0, 0, 0]	n/a	catFR1	4	R1497T
1034.297	1.617	1058826	WORD	n/a	wordpools/wordpool_categorized_EN.txt	ROOSTER	FarmAnimals	2	10	[0, 0, 0]	n/a	catFR1	4	R1497T
1035.914	1.091	1060433	WORD_OFF	n/a	n/a	ROOSTER	FarmAnimals	2	10	[0, 0, 0]	n/a	catFR1	4	R1497T
1037.005	1.608	1061522	WORD	n/a	wordpools/wordpool_categorized_EN.txt	ORANGE	Fruit	3	10	[0, 0, 0]	n/a	catFR1	4	R1497T
1038.613	0.9	1063143	WORD_OFF	n/a	n/a	ORANGE	Fruit	3	10	[0, 0, 0]	n/a	catFR1	4	R1497T
1039.513	1.601	1064037	WORD	n/a	wordpools/wordpool_categorized_EN.txt	APPLE	Fruit	4	10	[0, 0, 0]	n/a	catFR1	4	R1497T
1041.114	0.866	1065630	WORD_OFF	n/a	n/a	APPLE	Fruit	4	10	[0, 0, 0]	n/a	catFR1	4	R1497T
1041.98	1.601	1066510	WORD	n/a	wordpools/wordpool_categorized_EN.txt	SNOW	Weather	5	10	[0, 0, 0]	n/a	catFR1	4	R1497T
1043.581	0.85	1068103	WORD_OFF	n/a	n/a	SNOW	Weather	5	10	[0, 0, 0]	n/a	catFR1	4	R1497T
1044.431	1.599	1068955	WORD	n/a	wordpools/wordpool_categorized_EN.txt	HUMIDITY	Weather	6	10	[0, 0, 0]	n/a	catFR1	4	R1497T
1046.03	0.784	1070548	WORD_OFF	n/a	n/a	HUMIDITY	Weather	6	10	[0, 0, 0]	n/a	catFR1	4	R1497T
1046.814	1.6	1071331	WORD	n/a	wordpools/wordpool_categorized_EN.txt	PIG	FarmAnimals	7	10	[0, 0, 0]	n/a	catFR1	4	R1497T
1048.414	1.0	1072937	WORD_OFF	n/a	n/a	PIG	FarmAnimals	7	10	[0, 0, 0]	n/a	catFR1	4	R1497T
1049.414	1.6	1073929	WORD	n/a	wordpools/wordpool_categorized_EN.txt	BULL	FarmAnimals	8	10	[0, 0, 0]	n/a	catFR1	4	R1497T
1051.014	0.933	1075536	WORD_OFF	n/a	n/a	BULL	FarmAnimals	8	10	[0, 0, 0]	n/a	catFR1	4	R1497T
1051.947	1.6	1076472	WORD	n/a	wordpools/wordpool_categorized_EN.txt	RAIN	Weather	9	10	[0, 0, 0]	n/a	catFR1	4	R1497T
1053.547	0.899	1078065	WORD_OFF	n/a	n/a	RAIN	Weather	9	10	[0, 0, 0]	n/a	catFR1	4	R1497T
1054.446	1.601	1078973	WORD	n/a	wordpools/wordpool_categorized_EN.txt	FOG	Weather	10	10	[0, 0, 0]	n/a	catFR1	4	R1497T
1056.047	0.867	1080566	WORD_OFF	n/a	n/a	FOG	Weather	10	10	[0, 0, 0]	n/a	catFR1	4	R1497T
1056.914	1.617	1081432	WORD	n/a	wordpools/wordpool_categorized_EN.txt	PLUM	Fruit	11	10	[0, 0, 0]	n/a	catFR1	4	R1497T
1058.531	0.866	1083053	WORD_OFF	n/a	n/a	PLUM	Fruit	11	10	[0, 0, 0]	n/a	catFR1	4	R1497T
1059.397	1.617	1083919	WORD	n/a	wordpools/wordpool_categorized_EN.txt	LIME	Fruit	12	10	[0, 0, 0]	n/a	catFR1	4	R1497T
1061.014	0.001	1085534	PROB	3.432	n/a	n/a	n/a	-999	10	[5, 6, 1]	12.0	catFR1	4	R1497T
1061.015	0.0	1085535	START	n/a	n/a	n/a	n/a	-999	10	[-999, -999, -999]	n/a	catFR1	4	R1497T
1061.014	0.001	1085540	WORD_OFF	n/a	n/a	LIME	Fruit	12	10	[0, 0, 0]	n/a	catFR1	4	R1497T
1061.015	0.0	1085540	ENCODING_END	n/a	n/a	n/a	n/a	-999	10	[0, 0, 0]	n/a	catFR1	4	R1497T
1061.015	3.45	1085540	DISTRACT_START	n/a	n/a	n/a	n/a	-999	10	[0, 0, 0]	n/a	catFR1	4	R1497T
1064.465	4.698	1088985	PROB	4.682	n/a	n/a	n/a	-999	10	[4, 7, 8]	19.0	catFR1	4	R1497T
1069.163	7.484	1093683	PROB	7.467	n/a	n/a	n/a	-999	10	[7, 8, 6]	21.0	catFR1	4	R1497T
1076.647	4.1	1101167	PROB	4.083	n/a	n/a	n/a	-999	10	[1, 7, 7]	15.0	catFR1	4	R1497T
1080.747	2.667	1105266	PROB	2.65	n/a	n/a	n/a	-999	10	[1, 4, 3]	6.0	catFR1	4	R1497T
1083.414	0.0	1107933	STOP	n/a	n/a	n/a	n/a	-999	10	[-999, -999, -999]	n/a	catFR1	4	R1497T
1083.414	2.066	1107937	DISTRACT_END	n/a	n/a	n/a	n/a	-999	10	[0, 0, 0]	n/a	catFR1	4	R1497T
1085.48	6.12	1109999	REC_START	n/a	n/a	n/a	n/a	-999	10	[0, 0, 0]	n/a	catFR1	4	R1497T
1091.6	2.179	1116119	REC_WORD	6.12	n/a	RAIN	Weather	9	10	[0, 0, 0]	n/a	catFR1	4	R1497T
1093.779	1.065	1118298	REC_WORD	8.299	n/a	SNOW	Weather	5	10	[0, 0, 0]	n/a	catFR1	4	R1497T
1094.844	10.192	1119363	REC_WORD	9.364	n/a	FOG	Weather	10	10	[0, 0, 0]	n/a	catFR1	4	R1497T
1105.036	0.882	1129554	REC_WORD	19.556	n/a	ORANGE	Fruit	3	10	[0, 0, 0]	n/a	catFR1	4	R1497T
1105.918	1.088	1130436	REC_WORD	20.438	n/a	PLUM	Fruit	11	10	[0, 0, 0]	n/a	catFR1	4	R1497T
1107.006	8.684	1131524	REC_WORD	21.526	n/a	LIME	Fruit	12	10	[0, 0, 0]	n/a	catFR1	4	R1497T
1115.69	1.555	1140212	REC_END	n/a	n/a	n/a	n/a	-999	10	[0, 0, 0]	n/a	catFR1	4	R1497T
1117.245	10.351	1141762	COUNTDOWN_START	n/a	n/a	n/a	n/a	-999	11	[0, 0, 0]	n/a	catFR1	4	R1497T
1127.596	0.0	1152116	COUNTDOWN_END	n/a	n/a	n/a	n/a	-999	11	[0, 0, 0]	n/a	catFR1	4	R1497T
1127.596	2.216	1152116	ENCODING_START	n/a	n/a	n/a	n/a	-999	11	[0, 0, 0]	n/a	catFR1	4	R1497T
1129.812	1.6	1154337	WORD	n/a	wordpools/wordpool_categorized_EN.txt	WILLOW	Trees	1	11	[0, 0, 0]	n/a	catFR1	4	R1497T
1131.412	0.8	1155930	WORD_OFF	n/a	n/a	WILLOW	Trees	1	11	[0, 0, 0]	n/a	catFR1	4	R1497T
1132.212	1.6	1156726	WORD	n/a	wordpools/wordpool_categorized_EN.txt	PINE	Trees	2	11	[0, 0, 0]	n/a	catFR1	4	R1497T
1133.812	0.867	1158333	WORD_OFF	n/a	n/a	PINE	Trees	2	11	[0, 0, 0]	n/a	catFR1	4	R1497T
1134.679	1.6	1159199	WORD	n/a	wordpools/wordpool_categorized_EN.txt	CROWBAR	Tools	3	11	[0, 0, 0]	n/a	catFR1	4	R1497T
1136.279	0.866	1160792	WORD_OFF	n/a	n/a	CROWBAR	Tools	3	11	[0, 0, 0]	n/a	catFR1	4	R1497T
1137.145	1.601	1161658	WORD	n/a	wordpools/wordpool_categorized_EN.txt	WRENCH	Tools	4	11	[0, 0, 0]	n/a	catFR1	4	R1497T
1138.746	0.849	1163265	WORD_OFF	n/a	n/a	WRENCH	Tools	4	11	[0, 0, 0]	n/a	catFR1	4	R1497T
1139.595	1.601	1164117	WORD	n/a	wordpools/wordpool_categorized_EN.txt	JACKET	Clothing	5	11	[0, 0, 0]	n/a	catFR1	4	R1497T
1141.196	0.968	1165710	WORD_OFF	n/a	n/a	JACKET	Clothing	5	11	[0, 0, 0]	n/a	catFR1	4	R1497T
1142.164	1.6	1166688	WORD	n/a	wordpools/wordpool_categorized_EN.txt	UNDERWEAR	Clothing	6	11	[0, 0, 0]	n/a	catFR1	4	R1497T
1143.764	0.883	1168281	WORD_OFF	n/a	n/a	UNDERWEAR	Clothing	6	11	[0, 0, 0]	n/a	catFR1	4	R1497T
1144.647	1.617	1169161	WORD	n/a	wordpools/wordpool_categorized_EN.txt	SHOVEL	Tools	7	11	[0, 0, 0]	n/a	catFR1	4	R1497T
1146.264	0.899	1170782	WORD_OFF	n/a	n/a	SHOVEL	Tools	7	11	[0, 0, 0]	n/a	catFR1	4	R1497T
1147.163	1.601	1171676	WORD	n/a	wordpools/wordpool_categorized_EN.txt	SCREWDRIVER	Tools	8	11	[0, 0, 0]	n/a	catFR1	4	R1497T
1148.764	0.95	1173283	WORD_OFF	n/a	n/a	SCREWDRIVER	Tools	8	11	[0, 0, 0]	n/a	catFR1	4	R1497T
1149.714	1.616	1174233	WORD	n/a	wordpools/wordpool_categorized_EN.txt	CEDAR	Trees	9	11	[0, 0, 0]	n/a	catFR1	4	R1497T
1151.33	0.884	1175854	WORD_OFF	n/a	n/a	CEDAR	Trees	9	11	[0, 0, 0]	n/a	catFR1	4	R1497T
1152.214	1.616	1176734	WORD	n/a	wordpools/wordpool_categorized_EN.txt	BIRCH	Trees	10	11	[0, 0, 0]	n/a	catFR1	4	R1497T
1153.83	0.883	1178341	WORD_OFF	n/a	n/a	BIRCH	Trees	10	11	[0, 0, 0]	n/a	catFR1	4	R1497T
1154.713	1.601	1179235	WORD	n/a	wordpools/wordpool_categorized_EN.txt	COAT	Clothing	11	11	[0, 0, 0]	n/a	catFR1	4	R1497T
1156.314	0.983	1180828	WORD_OFF	n/a	n/a	COAT	Clothing	11	11	[0, 0, 0]	n/a	catFR1	4	R1497T
1157.297	1.6	1181820	WORD	n/a	wordpools/wordpool_categorized_EN.txt	BLOUSE	Clothing	12	11	[0, 0, 0]	n/a	catFR1	4	R1497T
1158.897	0.002	1183413	WORD_OFF	n/a	n/a	BLOUSE	Clothing	12	11	[0, 0, 0]	n/a	catFR1	4	R1497T
1158.899	0.0	1183413	ENCODING_END	n/a	n/a	n/a	n/a	-999	11	[0, 0, 0]	n/a	catFR1	4	R1497T
1158.899	0.0	1183413	DISTRACT_START	n/a	n/a	n/a	n/a	-999	11	[0, 0, 0]	n/a	catFR1	4	R1497T
1158.898	0.001	1183413	PROB	3.016	n/a	n/a	n/a	-999	11	[1, 3, 3]	7.0	catFR1	4	R1497T
1158.899	3.032	1183414	START	n/a	n/a	n/a	n/a	-999	11	[-999, -999, -999]	n/a	catFR1	4	R1497T
1161.931	3.75	1186446	PROB	3.732	n/a	n/a	n/a	-999	11	[5, 5, 4]	14.0	catFR1	4	R1497T
1165.681	5.066	1190196	PROB	5.05	n/a	n/a	n/a	-999	11	[6, 7, 7]	20.0	catFR1	4	R1497T
1170.747	4.355	1195262	PROB	4.33	n/a	n/a	n/a	-999	11	[3, 1, 6]	10.0	catFR1	4	R1497T
1175.102	9.328	1199616	PROB	9.311	n/a	n/a	n/a	-999	11	[5, 5, 6]	16.0	catFR1	4	R1497T
1184.43	0.0	1208944	STOP	n/a	n/a	n/a	n/a	-999	11	[-999, -999, -999]	n/a	catFR1	4	R1497T
1184.43	2.1	1208953	DISTRACT_END	n/a	n/a	n/a	n/a	-999	11	[0, 0, 0]	n/a	catFR1	4	R1497T
1186.53	2.051	1211043	REC_START	n/a	n/a	n/a	n/a	-999	11	[0, 0, 0]	n/a	catFR1	4	R1497T
1188.581	1.602	1213095	REC_WORD	2.051	n/a	CEDAR	Trees	9	11	[0, 0, 0]	n/a	catFR1	4	R1497T
1190.183	16.415	1214697	REC_WORD	3.653	n/a	BIRCH	Trees	10	11	[0, 0, 0]	n/a	catFR1	4	R1497T
1206.598	1.079	1231111	REC_WORD	20.068	n/a	JACKET	Clothing	5	11	[0, 0, 0]	n/a	catFR1	4	R1497T
1207.677	1.067	1232190	REC_WORD	21.147	n/a	COAT	Clothing	11	11	[0, 0, 0]	n/a	catFR1	4	R1497T
1208.744	0.783	1233257	REC_WORD	22.214	n/a	BLOUSE	Clothing	12	11	[0, 0, 0]	n/a	catFR1	4	R1497T
1209.527	1.689	1234040	REC_WORD	22.997	n/a	SHOVEL	Tools	7	11	[0, 0, 0]	n/a	catFR1	4	R1497T
1211.216	5.545	1235729	REC_WORD	24.686	n/a	SCREWDRIVER	Tools	8	11	[0, 0, 0]	n/a	catFR1	4	R1497T
1216.761	2.086	1241270	REC_END	n/a	n/a	n/a	n/a	-999	11	[0, 0, 0]	n/a	catFR1	4	R1497T
1218.847	10.349	1243366	COUNTDOWN_START	n/a	n/a	n/a	n/a	-999	12	[0, 0, 0]	n/a	catFR1	4	R1497T
1229.196	0.0	1253705	COUNTDOWN_END	n/a	n/a	n/a	n/a	-999	12	[0, 0, 0]	n/a	catFR1	4	R1497T
1229.196	1.968	1253719	ENCODING_START	n/a	n/a	n/a	n/a	-999	12	[0, 0, 0]	n/a	catFR1	4	R1497T
1231.164	1.6	1255675	WORD	n/a	wordpools/wordpool_categorized_EN.txt	CLOUD	Weather	1	12	[0, 0, 0]	n/a	catFR1	4	R1497T
1232.764	0.9	1257282	WORD_OFF	n/a	n/a	CLOUD	Weather	1	12	[0, 0, 0]	n/a	catFR1	4	R1497T
1233.664	1.616	1258176	WORD	n/a	wordpools/wordpool_categorized_EN.txt	DRIZZLE	Weather	2	12	[0, 0, 0]	n/a	catFR1	4	R1497T
1235.28	0.967	1259796	WORD_OFF	n/a	n/a	DRIZZLE	Weather	2	12	[0, 0, 0]	n/a	catFR1	4	R1497T
1236.247	1.616	1260761	WORD	n/a	wordpools/wordpool_categorized_EN.txt	STAIRS	Building	3	12	[0, 0, 0]	n/a	catFR1	4	R1497T
1237.863	0.934	1262381	WORD_OFF	n/a	n/a	STAIRS	Building	3	12	[0, 0, 0]	n/a	catFR1	4	R1497T
1238.797	1.6	1263317	WORD	n/a	wordpools/wordpool_categorized_EN.txt	DOOR	Building	4	12	[0, 0, 0]	n/a	catFR1	4	R1497T
1240.397	0.917	1264910	WORD_OFF	n/a	n/a	DOOR	Building	4	12	[0, 0, 0]	n/a	catFR1	4	R1497T
1241.314	1.6	1265832	WORD	n/a	wordpools/wordpool_categorized_EN.txt	SAW	Tools	5	12	[0, 0, 0]	n/a	catFR1	4	R1497T
1242.914	0.95	1267425	WORD_OFF	n/a	n/a	SAW	Tools	5	12	[0, 0, 0]	n/a	catFR1	4	R1497T
1243.864	1.6	1268375	WORD	n/a	wordpools/wordpool_categorized_EN.txt	LEVEL	Tools	6	12	[0, 0, 0]	n/a	catFR1	4	R1497T
1245.464	0.8	1269982	WORD_OFF	n/a	n/a	LEVEL	Tools	6	12	[0, 0, 0]	n/a	catFR1	4	R1497T
1246.264	1.616	1270778	WORD	n/a	wordpools/wordpool_categorized_EN.txt	TORNADO	Weather	7	12	[0, 0, 0]	n/a	catFR1	4	R1497T
1247.88	0.984	1272399	WORD_OFF	n/a	n/a	TORNADO	Weather	7	12	[0, 0, 0]	n/a	catFR1	4	R1497T
1248.864	1.616	1273377	WORD	n/a	wordpools/wordpool_categorized_EN.txt	THUNDERSTORM	Weather	8	12	[0, 0, 0]	n/a	catFR1	4	R1497T
1250.48	0.966	1274998	WORD_OFF	n/a	n/a	THUNDERSTORM	Weather	8	12	[0, 0, 0]	n/a	catFR1	4	R1497T
1251.446	1.618	1275962	WORD	n/a	wordpools/wordpool_categorized_EN.txt	CEILING	Building	9	12	[0, 0, 0]	n/a	catFR1	4	R1497T
1253.064	0.866	1277583	WORD_OFF	n/a	n/a	CEILING	Building	9	12	[0, 0, 0]	n/a	catFR1	4	R1497T
1253.93	1.6	1278439	WORD	n/a	wordpools/wordpool_categorized_EN.txt	FOUNDATION	Building	10	12	[0, 0, 0]	n/a	catFR1	4	R1497T
1255.53	0.883	1280042	WORD_OFF	n/a	n/a	FOUNDATION	Building	10	12	[0, 0, 0]	n/a	catFR1	4	R1497T
1256.413	1.601	1280922	WORD	n/a	wordpools/wordpool_categorized_EN.txt	PLIERS	Tools	11	12	[0, 0, 0]	n/a	catFR1	4	R1497T
1258.014	0.883	1282529	WORD_OFF	n/a	n/a	PLIERS	Tools	11	12	[0, 0, 0]	n/a	catFR1	4	R1497T
1258.897	1.6	1283409	WORD	n/a	wordpools/wordpool_categorized_EN.txt	DRILL	Tools	12	12	[0, 0, 0]	n/a	catFR1	4	R1497T
1260.497	0.0	1285002	WORD_OFF	n/a	n/a	DRILL	Tools	12	12	[0, 0, 0]	n/a	catFR1	4	R1497T
1260.497	0.002	1285007	PROB	5.6	n/a	n/a	n/a	-999	12	[7, 8, 7]	22.0	catFR1	4	R1497T
1260.499	0.0	1285009	START	n/a	n/a	n/a	n/a	-999	12	[-999, -999, -999]	n/a	catFR1	4	R1497T
1260.498	0.001	1285016	ENCODING_END	n/a	n/a	n/a	n/a	-999	12	[0, 0, 0]	n/a	catFR1	4	R1497T
1260.499	5.615	1285016	DISTRACT_START	n/a	n/a	n/a	n/a	-999	12	[0, 0, 0]	n/a	catFR1	4	R1497T
1266.114	4.35	1290624	PROB	4.333	n/a	n/a	n/a	-999	12	[4, 6, 4]	14.0	catFR1	4	R1497T
1270.464	4.466	1294973	PROB	4.449	n/a	n/a	n/a	-999	12	[5, 2, 2]	9.0	catFR1	4	R1497T
1274.93	3.917	1299439	PROB	3.9	n/a	n/a	n/a	-999	12	[3, 6, 2]	11.0	catFR1	4	R1497T
1278.847	8.4	1303356	PROB	8.382	n/a	n/a	n/a	-999	12	[6, 3, 8]	17.0	catFR1	4	R1497T
1287.247	0.0	1311756	STOP	n/a	n/a	n/a	n/a	-999	12	[-999, -999, -999]	n/a	catFR1	4	R1497T
1287.247	2.383	1311758	DISTRACT_END	n/a	n/a	n/a	n/a	-999	12	[0, 0, 0]	n/a	catFR1	4	R1497T
1289.63	8.008	1314141	REC_START	n/a	n/a	n/a	n/a	-999	12	[0, 0, 0]	n/a	catFR1	4	R1497T
1297.638	1.0	1322146	REC_WORD	8.008	n/a	PLIERS	Tools	11	12	[0, 0, 0]	n/a	catFR1	4	R1497T
1298.638	2.393	1323146	REC_WORD	9.008	n/a	PLIERS	Tools	11	12	[0, 0, 0]	n/a	catFR1	4	R1497T
1301.031	2.118	1325539	REC_WORD	11.401	n/a	TORNADO	Weather	7	12	[0, 0, 0]	n/a	catFR1	4	R1497T
1303.149	10.234	1327657	REC_WORD	13.519	n/a	THUNDERSTORM	Weather	8	12	[0, 0, 0]	n/a	catFR1	4	R1497T
1313.383	2.358	1337890	REC_WORD	23.753	n/a	CLOUD	Weather	1	12	[0, 0, 0]	n/a	catFR1	4	R1497T
1315.741	1.0	1340248	REC_WORD	26.111	n/a	LEVEL	Tools	6	12	[0, 0, 0]	n/a	catFR1	4	R1497T
1316.741	3.129	1341248	REC_WORD	27.111	n/a	LEVEL	Tools	6	12	[0, 0, 0]	n/a	catFR1	4	R1497T
1319.87	0.0	1344382	REC_END	n/a	n/a	n/a	n/a	-999	12	[0, 0, 0]	n/a	catFR1	4	R1497T
