onset	duration	sample	trial_type	response_time	stim_file	item_name	category	serialpos	list	test	answer	experiment	session	subject
0.0	0.744	27257	INSTRUCT_START	n/a	n/a	n/a	n/a	-999	-999	[0, 0, 0]	n/a	catFR1	2	R1401J
0.744	47.489	27989	INSTRUCT_END	n/a	n/a	n/a	n/a	-999	-999	[0, 0, 0]	n/a	catFR1	2	R1401J
48.233	10.0	75483	COUNTDOWN_START	n/a	n/a	n/a	n/a	-999	-999	[0, 0, 0]	n/a	catFR1	2	R1401J
58.596	0.0	85846	COUNTDOWN_END	n/a	n/a	n/a	n/a	-999	-999	[0, 0, 0]	n/a	catFR1	2	R1401J
58.596	1.804	85846	ENCODING_START	n/a	n/a	n/a	n/a	-999	-1	[0, 0, 0]	n/a	catFR1	2	R1401J
60.4	1.6	87646	WORD	n/a	n/a	BEE	Insects	1	-1	[0, 0, 0]	n/a	catFR1	2	R1401J
62.015	1.001	89264	WORD_OFF	n/a	n/a	BEE	Insects	1	-1	[0, 0, 0]	n/a	catFR1	2	R1401J
63.016	1.6	90256	WORD	n/a	n/a	ROACH	Insects	2	-1	[0, 0, 0]	n/a	catFR1	2	R1401J
64.632	0.834	91874	WORD_OFF	n/a	n/a	ROACH	Insects	2	-1	[0, 0, 0]	n/a	catFR1	2	R1401J
65.466	1.6	92713	WORD	n/a	n/a	CALF	FarmAnimals	3	-1	[0, 0, 0]	n/a	catFR1	2	R1401J
67.082	0.8	94331	WORD_OFF	n/a	n/a	CALF	FarmAnimals	3	-1	[0, 0, 0]	n/a	catFR1	2	R1401J
67.882	1.6	95125	WORD	n/a	n/a	BULL	FarmAnimals	4	-1	[0, 0, 0]	n/a	catFR1	2	R1401J
69.499	0.833	96742	WORD_OFF	n/a	n/a	BULL	FarmAnimals	4	-1	[0, 0, 0]	n/a	catFR1	2	R1401J
70.332	1.6	97582	WORD	n/a	n/a	CHEETAH	Zoo	5	-1	[0, 0, 0]	n/a	catFR1	2	R1401J
71.932	0.899	99184	WORD_OFF	n/a	n/a	CHEETAH	Zoo	5	-1	[0, 0, 0]	n/a	catFR1	2	R1401J
72.831	1.6	100069	WORD	n/a	n/a	CHIMPANZEE	Zoo	6	-1	[0, 0, 0]	n/a	catFR1	2	R1401J
74.432	0.866	101672	WORD_OFF	n/a	n/a	CHIMPANZEE	Zoo	6	-1	[0, 0, 0]	n/a	catFR1	2	R1401J
75.298	1.6	102542	WORD	n/a	n/a	CHICKEN	FarmAnimals	7	-1	[0, 0, 0]	n/a	catFR1	2	R1401J
76.899	0.817	104144	WORD_OFF	n/a	n/a	CHICKEN	FarmAnimals	7	-1	[0, 0, 0]	n/a	catFR1	2	R1401J
77.716	1.6	104953	WORD	n/a	n/a	PIG	FarmAnimals	8	-1	[0, 0, 0]	n/a	catFR1	2	R1401J
79.316	0.866	106556	WORD_OFF	n/a	n/a	PIG	FarmAnimals	8	-1	[0, 0, 0]	n/a	catFR1	2	R1401J
80.182	1.6	107425	WORD	n/a	n/a	MOSQUITO	Insects	9	-1	[0, 0, 0]	n/a	catFR1	2	R1401J
81.782	0.999	109028	WORD_OFF	n/a	n/a	MOSQUITO	Insects	9	-1	[0, 0, 0]	n/a	catFR1	2	R1401J
82.781	1.6	110020	WORD	n/a	n/a	LADYBUG	Insects	10	-1	[0, 0, 0]	n/a	catFR1	2	R1401J
84.382	0.949	111622	WORD_OFF	n/a	n/a	LADYBUG	Insects	10	-1	[0, 0, 0]	n/a	catFR1	2	R1401J
85.331	1.6	112569	WORD	n/a	n/a	TIGER	Zoo	11	-1	[0, 0, 0]	n/a	catFR1	2	R1401J
86.932	0.767	114171	WORD_OFF	n/a	n/a	TIGER	Zoo	11	-1	[0, 0, 0]	n/a	catFR1	2	R1401J
87.699	1.6	114949	WORD	n/a	n/a	LION	Zoo	12	-1	[0, 0, 0]	n/a	catFR1	2	R1401J
89.299	0.001	116537	WORD_OFF	n/a	n/a	LION	Zoo	12	-1	[0, 0, 0]	n/a	catFR1	2	R1401J
89.3	0.0	116543	START	n/a	n/a	n/a	n/a	-999	-1	[-999, -999, -999]	n/a	catFR1	2	R1401J
89.3	0.0	116543	PROB	7.833	n/a	n/a	n/a	-999	-1	[1, 4, 3]	8.0	catFR1	2	R1401J
89.3	0.0	116552	ENCODING_END	n/a	n/a	n/a	n/a	-999	-1	[0, 0, 0]	n/a	catFR1	2	R1401J
89.3	7.849	116552	DISTRACT_START	n/a	n/a	n/a	n/a	-999	-1	[0, 0, 0]	n/a	catFR1	2	R1401J
97.149	5.317	124392	PROB	5.3	n/a	n/a	n/a	-999	-1	[4, 1, 2]	7.0	catFR1	2	R1401J
102.466	9.699	129709	PROB	9.682	n/a	n/a	n/a	-999	-1	[7, 4, 2]	13.0	catFR1	2	R1401J
112.165	0.0	139407	STOP	n/a	n/a	n/a	n/a	-999	-1	[-999, -999, -999]	n/a	catFR1	2	R1401J
112.165	2.034	139414	DISTRACT_END	n/a	n/a	n/a	n/a	-999	-1	[0, 0, 0]	n/a	catFR1	2	R1401J
114.199	0.876	141436	REC_START	n/a	n/a	n/a	n/a	-999	-1	[0, 0, 0]	n/a	catFR1	2	R1401J
115.075	0.941	142317	REC_WORD_VV	0.876	n/a	<>	n/a	-999	-1	[0, 0, 0]	n/a	catFR1	2	R1401J
116.016	0.411	143258	REC_WORD	1.817	n/a	BEE	Insects	1	-1	[0, 0, 0]	n/a	catFR1	2	R1401J
116.427	2.13	143669	REC_WORD	2.228	n/a	ROACH	Insects	2	-1	[0, 0, 0]	n/a	catFR1	2	R1401J
118.557	1.0	145799	REC_WORD	4.358	n/a	MOSQUITO	Insects	9	-1	[0, 0, 0]	n/a	catFR1	2	R1401J
119.557	2.018	146799	REC_WORD_VV	5.358	n/a	<>	n/a	-999	-1	[0, 0, 0]	n/a	catFR1	2	R1401J
121.575	0.637	148817	REC_WORD	7.376	n/a	ROACH	Insects	2	-1	[0, 0, 0]	n/a	catFR1	2	R1401J
122.212	1.772	149454	REC_WORD	8.013	n/a	MOSQUITO	Insects	9	-1	[0, 0, 0]	n/a	catFR1	2	R1401J
123.984	1.574	151226	REC_WORD_VV	9.785	n/a	<>	n/a	-999	-1	[0, 0, 0]	n/a	catFR1	2	R1401J
125.558	1.329	152800	REC_WORD_VV	11.359	n/a	<>	n/a	-999	-1	[0, 0, 0]	n/a	catFR1	2	R1401J
126.887	0.825	154129	REC_WORD	12.688	n/a	CHEETAH	Zoo	5	-1	[0, 0, 0]	n/a	catFR1	2	R1401J
127.712	1.118	154954	REC_WORD	13.513	n/a	TIGER	Zoo	11	-1	[0, 0, 0]	n/a	catFR1	2	R1401J
128.83	1.0	156072	REC_WORD	14.631	n/a	CHIMPANZEE	Zoo	6	-1	[0, 0, 0]	n/a	catFR1	2	R1401J
129.83	2.537	157072	REC_WORD_VV	15.631	n/a	<>	n/a	-999	-1	[0, 0, 0]	n/a	catFR1	2	R1401J
132.367	3.786	159608	REC_WORD_VV	18.168	n/a	<>	n/a	-999	-1	[0, 0, 0]	n/a	catFR1	2	R1401J
136.153	4.238	163394	REC_WORD	21.954	n/a	PIG	FarmAnimals	8	-1	[0, 0, 0]	n/a	catFR1	2	R1401J
140.391	0.32	167632	REC_WORD	26.192	n/a	PIG	FarmAnimals	8	-1	[0, 0, 0]	n/a	catFR1	2	R1401J
140.711	2.133	167952	REC_WORD	26.512	n/a	HEN	n/a	-999	-1	[0, 0, 0]	n/a	catFR1	2	R1401J
142.844	1.577	170085	REC_WORD	28.645	n/a	CALF	FarmAnimals	3	-1	[0, 0, 0]	n/a	catFR1	2	R1401J
144.421	13.16	171661	REC_END	n/a	n/a	n/a	n/a	-999	-1	[0, 0, 0]	n/a	catFR1	2	R1401J
157.581	10.0	184817	COUNTDOWN_START	n/a	n/a	n/a	n/a	-999	1	[0, 0, 0]	n/a	catFR1	2	R1401J
167.948	0.0	195194	COUNTDOWN_END	n/a	n/a	n/a	n/a	-999	1	[0, 0, 0]	n/a	catFR1	2	R1401J
167.948	1.968	195194	ENCODING_START	n/a	n/a	n/a	n/a	-999	1	[0, 0, 0]	n/a	catFR1	2	R1401J
169.916	1.6	197163	WORD	n/a	wordpools/wordpool_categorized_EN.txt	FRISBEE	Toys	1	1	[0, 0, 0]	n/a	catFR1	2	R1401J
171.516	0.933	198750	WORD_OFF	n/a	n/a	FRISBEE	Toys	1	1	[0, 0, 0]	n/a	catFR1	2	R1401J
172.449	1.6	199697	WORD	n/a	wordpools/wordpool_categorized_EN.txt	SLINKY	Toys	2	1	[0, 0, 0]	n/a	catFR1	2	R1401J
174.049	0.95	201284	WORD_OFF	n/a	n/a	SLINKY	Toys	2	1	[0, 0, 0]	n/a	catFR1	2	R1401J
174.999	1.6	202245	WORD	n/a	wordpools/wordpool_categorized_EN.txt	PUDDING	Desserts	3	1	[0, 0, 0]	n/a	catFR1	2	R1401J
176.599	0.884	203832	WORD_OFF	n/a	n/a	PUDDING	Desserts	3	1	[0, 0, 0]	n/a	catFR1	2	R1401J
177.483	1.6	204718	WORD	n/a	wordpools/wordpool_categorized_EN.txt	PIE	Desserts	4	1	[0, 0, 0]	n/a	catFR1	2	R1401J
179.082	0.967	206320	WORD_OFF	n/a	n/a	PIE	Desserts	4	1	[0, 0, 0]	n/a	catFR1	2	R1401J
180.049	1.6	207297	WORD	n/a	wordpools/wordpool_categorized_EN.txt	REFRIGERATOR	Appliances	5	1	[0, 0, 0]	n/a	catFR1	2	R1401J
181.649	0.85	208884	WORD_OFF	n/a	n/a	REFRIGERATOR	Appliances	5	1	[0, 0, 0]	n/a	catFR1	2	R1401J
182.499	1.6	209739	WORD	n/a	wordpools/wordpool_categorized_EN.txt	DRYER	Appliances	6	1	[0, 0, 0]	n/a	catFR1	2	R1401J
184.116	0.766	211356	WORD_OFF	n/a	n/a	DRYER	Appliances	6	1	[0, 0, 0]	n/a	catFR1	2	R1401J
184.882	1.6	212119	WORD	n/a	wordpools/wordpool_categorized_EN.txt	MOUSSE	Desserts	7	1	[0, 0, 0]	n/a	catFR1	2	R1401J
186.483	0.882	213722	WORD_OFF	n/a	n/a	MOUSSE	Desserts	7	1	[0, 0, 0]	n/a	catFR1	2	R1401J
187.365	1.6	214607	WORD	n/a	wordpools/wordpool_categorized_EN.txt	JELLO	Desserts	8	1	[0, 0, 0]	n/a	catFR1	2	R1401J
188.965	0.868	216210	WORD_OFF	n/a	n/a	JELLO	Desserts	8	1	[0, 0, 0]	n/a	catFR1	2	R1401J
189.833	1.6	217079	WORD	n/a	wordpools/wordpool_categorized_EN.txt	BARBIE	Toys	9	1	[0, 0, 0]	n/a	catFR1	2	R1401J
191.432	0.984	218667	WORD_OFF	n/a	n/a	BARBIE	Toys	9	1	[0, 0, 0]	n/a	catFR1	2	R1401J
192.416	1.6	219659	WORD	n/a	wordpools/wordpool_categorized_EN.txt	FOOTBALL	Toys	10	1	[0, 0, 0]	n/a	catFR1	2	R1401J
194.016	0.818	221261	WORD_OFF	n/a	n/a	FOOTBALL	Toys	10	1	[0, 0, 0]	n/a	catFR1	2	R1401J
194.834	1.6	222070	WORD	n/a	wordpools/wordpool_categorized_EN.txt	TOASTER	Appliances	11	1	[0, 0, 0]	n/a	catFR1	2	R1401J
196.433	0.883	223672	WORD_OFF	n/a	n/a	TOASTER	Appliances	11	1	[0, 0, 0]	n/a	catFR1	2	R1401J
197.316	1.6	224558	WORD	n/a	wordpools/wordpool_categorized_EN.txt	WASHER	Appliances	12	1	[0, 0, 0]	n/a	catFR1	2	R1401J
198.916	0.002	226155	PROB	4.799	n/a	n/a	n/a	-999	1	[1, 1, 7]	9.0	catFR1	2	R1401J
198.918	0.0	226157	START	n/a	n/a	n/a	n/a	-999	1	[-999, -999, -999]	n/a	catFR1	2	R1401J
198.916	0.002	226160	WORD_OFF	n/a	n/a	WASHER	Appliances	12	1	[0, 0, 0]	n/a	catFR1	2	R1401J
198.918	0.0	226160	ENCODING_END	n/a	n/a	n/a	n/a	-999	1	[0, 0, 0]	n/a	catFR1	2	R1401J
198.918	4.815	226160	DISTRACT_START	n/a	n/a	n/a	n/a	-999	1	[0, 0, 0]	n/a	catFR1	2	R1401J
203.733	15.316	230971	PROB	15.299	n/a	n/a	n/a	-999	1	[5, 7, 8]	20.0	catFR1	2	R1401J
219.049	0.0	246287	STOP	n/a	n/a	n/a	n/a	-999	1	[-999, -999, -999]	n/a	catFR1	2	R1401J
219.049	2.133	246290	DISTRACT_END	n/a	n/a	n/a	n/a	-999	1	[0, 0, 0]	n/a	catFR1	2	R1401J
221.182	1.737	248419	REC_START	n/a	n/a	n/a	n/a	-999	1	[0, 0, 0]	n/a	catFR1	2	R1401J
222.919	1.086	250157	REC_WORD_VV	1.737	n/a	<>	n/a	-999	1	[0, 0, 0]	n/a	catFR1	2	R1401J
224.005	1.0	251243	REC_WORD	2.823	n/a	FRISBEE	Toys	1	1	[0, 0, 0]	n/a	catFR1	2	R1401J
225.005	4.192	252243	REC_WORD_VV	3.823	n/a	<>	n/a	-999	1	[0, 0, 0]	n/a	catFR1	2	R1401J
229.197	1.0	256434	REC_WORD	8.015	n/a	FRISBEE	Toys	1	1	[0, 0, 0]	n/a	catFR1	2	R1401J
230.197	0.278	257434	REC_WORD_VV	9.015	n/a	<>	n/a	-999	1	[0, 0, 0]	n/a	catFR1	2	R1401J
230.475	3.204	257712	REC_WORD	9.293	n/a	BARBIE	Toys	9	1	[0, 0, 0]	n/a	catFR1	2	R1401J
233.679	2.591	260916	REC_WORD_VV	12.497	n/a	<>	n/a	-999	1	[0, 0, 0]	n/a	catFR1	2	R1401J
236.27	1.878	263507	REC_WORD_VV	15.088	n/a	<>	n/a	-999	1	[0, 0, 0]	n/a	catFR1	2	R1401J
238.148	0.464	265385	REC_WORD	16.966	n/a	PUDDING	Desserts	3	1	[0, 0, 0]	n/a	catFR1	2	R1401J
238.612	1.965	265849	REC_WORD	17.43	n/a	JELLO	Desserts	8	1	[0, 0, 0]	n/a	catFR1	2	R1401J
240.577	10.797	267814	REC_WORD	19.395	n/a	MOUSSE	Desserts	7	1	[0, 0, 0]	n/a	catFR1	2	R1401J
251.374	2.442	278614	REC_END	n/a	n/a	n/a	n/a	-999	1	[0, 0, 0]	n/a	catFR1	2	R1401J
253.816	10.0	281056	COUNTDOWN_START	n/a	n/a	n/a	n/a	-999	2	[0, 0, 0]	n/a	catFR1	2	R1401J
264.183	0.0	291418	COUNTDOWN_END	n/a	n/a	n/a	n/a	-999	2	[0, 0, 0]	n/a	catFR1	2	R1401J
264.183	1.851	291418	ENCODING_START	n/a	n/a	n/a	n/a	-999	2	[0, 0, 0]	n/a	catFR1	2	R1401J
266.034	1.6	293265	WORD	n/a	wordpools/wordpool_categorized_EN.txt	FOG	Weather	1	2	[0, 0, 0]	n/a	catFR1	2	R1401J
267.633	0.783	294867	WORD_OFF	n/a	n/a	FOG	Weather	1	2	[0, 0, 0]	n/a	catFR1	2	R1401J
268.416	1.6	295646	WORD	n/a	wordpools/wordpool_categorized_EN.txt	HUMIDITY	Weather	2	2	[0, 0, 0]	n/a	catFR1	2	R1401J
270.033	0.866	297264	WORD_OFF	n/a	n/a	HUMIDITY	Weather	2	2	[0, 0, 0]	n/a	catFR1	2	R1401J
270.899	1.6	298133	WORD	n/a	wordpools/wordpool_categorized_EN.txt	NYLON	Fabric	3	2	[0, 0, 0]	n/a	catFR1	2	R1401J
272.499	0.884	299736	WORD_OFF	n/a	n/a	NYLON	Fabric	3	2	[0, 0, 0]	n/a	catFR1	2	R1401J
273.383	1.6	300621	WORD	n/a	wordpools/wordpool_categorized_EN.txt	LEATHER	Fabric	4	2	[0, 0, 0]	n/a	catFR1	2	R1401J
274.983	0.85	302223	WORD_OFF	n/a	n/a	LEATHER	Fabric	4	2	[0, 0, 0]	n/a	catFR1	2	R1401J
275.833	1.6	303063	WORD	n/a	wordpools/wordpool_categorized_EN.txt	WATER	Beverages	5	2	[0, 0, 0]	n/a	catFR1	2	R1401J
277.433	0.849	304665	WORD_OFF	n/a	n/a	WATER	Beverages	5	2	[0, 0, 0]	n/a	catFR1	2	R1401J
278.282	1.6	305520	WORD	n/a	wordpools/wordpool_categorized_EN.txt	COLA	Beverages	6	2	[0, 0, 0]	n/a	catFR1	2	R1401J
279.882	0.917	307122	WORD_OFF	n/a	n/a	COLA	Beverages	6	2	[0, 0, 0]	n/a	catFR1	2	R1401J
280.799	1.6	308038	WORD	n/a	wordpools/wordpool_categorized_EN.txt	THUNDERSTORM	Weather	7	2	[0, 0, 0]	n/a	catFR1	2	R1401J
282.399	0.817	309641	WORD_OFF	n/a	n/a	THUNDERSTORM	Weather	7	2	[0, 0, 0]	n/a	catFR1	2	R1401J
283.216	1.6	310449	WORD	n/a	wordpools/wordpool_categorized_EN.txt	RAIN	Weather	8	2	[0, 0, 0]	n/a	catFR1	2	R1401J
284.832	0.833	312067	WORD_OFF	n/a	n/a	RAIN	Weather	8	2	[0, 0, 0]	n/a	catFR1	2	R1401J
285.665	1.6	312907	WORD	n/a	wordpools/wordpool_categorized_EN.txt	SPANDEX	Fabric	9	2	[0, 0, 0]	n/a	catFR1	2	R1401J
287.282	0.866	314524	WORD_OFF	n/a	n/a	SPANDEX	Fabric	9	2	[0, 0, 0]	n/a	catFR1	2	R1401J
288.148	1.6	315379	WORD	n/a	wordpools/wordpool_categorized_EN.txt	DENIM	Fabric	10	2	[0, 0, 0]	n/a	catFR1	2	R1401J
289.749	1.0	316981	WORD_OFF	n/a	n/a	DENIM	Fabric	10	2	[0, 0, 0]	n/a	catFR1	2	R1401J
290.749	1.6	317989	WORD	n/a	wordpools/wordpool_categorized_EN.txt	JUICE	Beverages	11	2	[0, 0, 0]	n/a	catFR1	2	R1401J
292.349	0.767	319591	WORD_OFF	n/a	n/a	JUICE	Beverages	11	2	[0, 0, 0]	n/a	catFR1	2	R1401J
293.116	1.6	320354	WORD	n/a	wordpools/wordpool_categorized_EN.txt	SODA	Beverages	12	2	[0, 0, 0]	n/a	catFR1	2	R1401J
294.717	0.001	321952	PROB	5.716	n/a	n/a	n/a	-999	2	[5, 5, 2]	12.0	catFR1	2	R1401J
294.718	0.0	321953	START	n/a	n/a	n/a	n/a	-999	2	[-999, -999, -999]	n/a	catFR1	2	R1401J
294.716	0.001	321957	WORD_OFF	n/a	n/a	SODA	Beverages	12	2	[0, 0, 0]	n/a	catFR1	2	R1401J
294.717	0.001	321957	ENCODING_END	n/a	n/a	n/a	n/a	-999	2	[0, 0, 0]	n/a	catFR1	2	R1401J
294.718	5.732	321957	DISTRACT_START	n/a	n/a	n/a	n/a	-999	2	[0, 0, 0]	n/a	catFR1	2	R1401J
300.45	13.716	327685	PROB	13.699	n/a	n/a	n/a	-999	2	[5, 4, 7]	16.0	catFR1	2	R1401J
314.166	10.266	341400	PROB	10.249	n/a	n/a	n/a	-999	2	[2, 1, 2]	5.0	catFR1	2	R1401J
324.432	0.0	351663	DISTRACT_END	n/a	n/a	n/a	n/a	-999	2	[0, 0, 0]	n/a	catFR1	2	R1401J
324.432	2.166	351666	STOP	n/a	n/a	n/a	n/a	-999	2	[-999, -999, -999]	n/a	catFR1	2	R1401J
326.598	1.072	353838	REC_START	n/a	n/a	n/a	n/a	-999	2	[0, 0, 0]	n/a	catFR1	2	R1401J
327.67	4.0	354904	REC_WORD_VV	1.072	n/a	<>	n/a	-999	2	[0, 0, 0]	n/a	catFR1	2	R1401J
331.67	0.601	358903	REC_WORD	5.072	n/a	COLA	Beverages	6	2	[0, 0, 0]	n/a	catFR1	2	R1401J
332.271	2.601	359504	REC_WORD	5.673	n/a	SODA	Beverages	12	2	[0, 0, 0]	n/a	catFR1	2	R1401J
334.872	1.846	362105	REC_WORD	8.274	n/a	WATER	Beverages	5	2	[0, 0, 0]	n/a	catFR1	2	R1401J
336.718	1.275	363951	REC_WORD	10.12	n/a	HUMIDITY	Weather	2	2	[0, 0, 0]	n/a	catFR1	2	R1401J
337.993	0.64	365226	REC_WORD	11.395	n/a	RAIN	Weather	8	2	[0, 0, 0]	n/a	catFR1	2	R1401J
338.633	1.0	365866	REC_WORD	12.035	n/a	THUNDERSTORM	Weather	7	2	[0, 0, 0]	n/a	catFR1	2	R1401J
339.633	1.045	366866	REC_WORD_VV	13.035	n/a	<>	n/a	-999	2	[0, 0, 0]	n/a	catFR1	2	R1401J
340.678	0.32	367911	REC_WORD_VV	14.08	n/a	<>	n/a	-999	2	[0, 0, 0]	n/a	catFR1	2	R1401J
340.998	4.76	368231	REC_WORD	14.4	n/a	LIGHTNING	n/a	-999	2	[0, 0, 0]	n/a	catFR1	2	R1401J
345.758	4.562	372991	REC_WORD_VV	19.16	n/a	<>	n/a	-999	2	[0, 0, 0]	n/a	catFR1	2	R1401J
350.32	1.0	377553	REC_WORD	23.722	n/a	SPANDEX	Fabric	9	2	[0, 0, 0]	n/a	catFR1	2	R1401J
351.32	0.025	378553	REC_WORD_VV	24.722	n/a	<>	n/a	-999	2	[0, 0, 0]	n/a	catFR1	2	R1401J
351.345	4.022	378578	REC_WORD	24.747	n/a	DENIM	Fabric	10	2	[0, 0, 0]	n/a	catFR1	2	R1401J
355.367	1.426	382599	REC_WORD	28.769	n/a	NYLON	Fabric	3	2	[0, 0, 0]	n/a	catFR1	2	R1401J
356.793	3.639	384033	REC_END	n/a	n/a	n/a	n/a	-999	2	[0, 0, 0]	n/a	catFR1	2	R1401J
360.432	10.0	387665	COUNTDOWN_START	n/a	n/a	n/a	n/a	-999	3	[0, 0, 0]	n/a	catFR1	2	R1401J
370.8	0.0	398028	COUNTDOWN_END	n/a	n/a	n/a	n/a	-999	3	[0, 0, 0]	n/a	catFR1	2	R1401J
370.8	2.266	398028	ENCODING_START	n/a	n/a	n/a	n/a	-999	3	[0, 0, 0]	n/a	catFR1	2	R1401J
373.066	1.6	400302	WORD	n/a	wordpools/wordpool_categorized_EN.txt	SKIRT	Clothing	1	3	[0, 0, 0]	n/a	catFR1	2	R1401J
374.666	0.85	401904	WORD_OFF	n/a	n/a	SKIRT	Clothing	1	3	[0, 0, 0]	n/a	catFR1	2	R1401J
375.516	1.6	402743	WORD	n/a	wordpools/wordpool_categorized_EN.txt	BLOUSE	Clothing	2	3	[0, 0, 0]	n/a	catFR1	2	R1401J
377.116	0.867	404346	WORD_OFF	n/a	n/a	BLOUSE	Clothing	2	3	[0, 0, 0]	n/a	catFR1	2	R1401J
377.983	1.6	405216	WORD	n/a	wordpools/wordpool_categorized_EN.txt	SPATULA	KitchenTools	3	3	[0, 0, 0]	n/a	catFR1	2	R1401J
379.599	0.882	406834	WORD_OFF	n/a	n/a	SPATULA	KitchenTools	3	3	[0, 0, 0]	n/a	catFR1	2	R1401J
380.481	1.6	407719	WORD	n/a	wordpools/wordpool_categorized_EN.txt	LADLE	KitchenTools	4	3	[0, 0, 0]	n/a	catFR1	2	R1401J
382.082	0.867	409321	WORD_OFF	n/a	n/a	LADLE	KitchenTools	4	3	[0, 0, 0]	n/a	catFR1	2	R1401J
382.949	1.6	410176	WORD	n/a	wordpools/wordpool_categorized_EN.txt	HAND	BodyParts	5	3	[0, 0, 0]	n/a	catFR1	2	R1401J
384.549	0.85	411778	WORD_OFF	n/a	n/a	HAND	BodyParts	5	3	[0, 0, 0]	n/a	catFR1	2	R1401J
385.399	1.6	412633	WORD	n/a	wordpools/wordpool_categorized_EN.txt	EAR	BodyParts	6	3	[0, 0, 0]	n/a	catFR1	2	R1401J
386.999	0.783	414235	WORD_OFF	n/a	n/a	EAR	BodyParts	6	3	[0, 0, 0]	n/a	catFR1	2	R1401J
387.782	1.6	415014	WORD	n/a	wordpools/wordpool_categorized_EN.txt	SPOON	KitchenTools	7	3	[0, 0, 0]	n/a	catFR1	2	R1401J
389.399	0.834	416631	WORD_OFF	n/a	n/a	SPOON	KitchenTools	7	3	[0, 0, 0]	n/a	catFR1	2	R1401J
390.233	1.6	417471	WORD	n/a	wordpools/wordpool_categorized_EN.txt	PEELER	KitchenTools	8	3	[0, 0, 0]	n/a	catFR1	2	R1401J
391.848	0.885	419073	WORD_OFF	n/a	n/a	PEELER	KitchenTools	8	3	[0, 0, 0]	n/a	catFR1	2	R1401J
392.733	1.6	419958	WORD	n/a	wordpools/wordpool_categorized_EN.txt	EYE	BodyParts	9	3	[0, 0, 0]	n/a	catFR1	2	R1401J
394.333	0.816	421561	WORD_OFF	n/a	n/a	EYE	BodyParts	9	3	[0, 0, 0]	n/a	catFR1	2	R1401J
395.149	1.6	422385	WORD	n/a	wordpools/wordpool_categorized_EN.txt	FOOT	BodyParts	10	3	[0, 0, 0]	n/a	catFR1	2	R1401J
396.749	0.934	423987	WORD_OFF	n/a	n/a	FOOT	BodyParts	10	3	[0, 0, 0]	n/a	catFR1	2	R1401J
397.683	1.6	424918	WORD	n/a	wordpools/wordpool_categorized_EN.txt	SHOES	Clothing	11	3	[0, 0, 0]	n/a	catFR1	2	R1401J
399.299	0.783	426536	WORD_OFF	n/a	n/a	SHOES	Clothing	11	3	[0, 0, 0]	n/a	catFR1	2	R1401J
400.082	1.6	427314	WORD	n/a	wordpools/wordpool_categorized_EN.txt	PANTS	Clothing	12	3	[0, 0, 0]	n/a	catFR1	2	R1401J
401.699	0.0	428930	PROB	5.383	n/a	n/a	n/a	-999	3	[1, 4, 4]	9.0	catFR1	2	R1401J
401.699	0.002	428932	WORD_OFF	n/a	n/a	PANTS	Clothing	12	3	[0, 0, 0]	n/a	catFR1	2	R1401J
401.701	0.0	428932	ENCODING_END	n/a	n/a	n/a	n/a	-999	3	[0, 0, 0]	n/a	catFR1	2	R1401J
401.701	0.0	428932	DISTRACT_START	n/a	n/a	n/a	n/a	-999	3	[0, 0, 0]	n/a	catFR1	2	R1401J
401.701	5.398	428932	START	n/a	n/a	n/a	n/a	-999	3	[-999, -999, -999]	n/a	catFR1	2	R1401J
407.099	10.45	434329	PROB	10.433	n/a	n/a	n/a	-999	3	[4, 4, 7]	15.0	catFR1	2	R1401J
417.549	18.149	444779	PROB	18.133	n/a	n/a	n/a	-999	3	[8, 8, 3]	19.0	catFR1	2	R1401J
435.698	0.0	462927	STOP	n/a	n/a	n/a	n/a	-999	3	[-999, -999, -999]	n/a	catFR1	2	R1401J
435.698	2.283	462935	DISTRACT_END	n/a	n/a	n/a	n/a	-999	3	[0, 0, 0]	n/a	catFR1	2	R1401J
437.981	1.453	465217	REC_START	n/a	n/a	n/a	n/a	-999	3	[0, 0, 0]	n/a	catFR1	2	R1401J
439.434	1.069	466663	REC_WORD	1.453	n/a	SPATULA	KitchenTools	3	3	[0, 0, 0]	n/a	catFR1	2	R1401J
440.503	3.944	467732	REC_WORD	2.522	n/a	PEELER	KitchenTools	8	3	[0, 0, 0]	n/a	catFR1	2	R1401J
444.447	0.475	471676	REC_WORD	6.466	n/a	SPATULA	KitchenTools	3	3	[0, 0, 0]	n/a	catFR1	2	R1401J
444.922	6.437	472151	REC_WORD	6.941	n/a	PEELER	KitchenTools	8	3	[0, 0, 0]	n/a	catFR1	2	R1401J
451.359	6.784	478588	REC_WORD	13.378	n/a	BLENDER	n/a	-999	3	[0, 0, 0]	n/a	catFR1	2	R1401J
458.143	0.741	485371	REC_WORD	20.162	n/a	SKIRT	Clothing	1	3	[0, 0, 0]	n/a	catFR1	2	R1401J
458.884	9.297	486112	REC_WORD	20.903	n/a	BLOUSE	Clothing	2	3	[0, 0, 0]	n/a	catFR1	2	R1401J
468.181	4.035	495411	REC_END	n/a	n/a	n/a	n/a	-999	3	[0, 0, 0]	n/a	catFR1	2	R1401J
472.216	10.0	499440	COUNTDOWN_START	n/a	n/a	n/a	n/a	-999	4	[0, 0, 0]	n/a	catFR1	2	R1401J
482.576	0.0	509803	COUNTDOWN_END	n/a	n/a	n/a	n/a	-999	4	[0, 0, 0]	n/a	catFR1	2	R1401J
482.576	2.172	509803	ENCODING_START	n/a	n/a	n/a	n/a	-999	4	[0, 0, 0]	n/a	catFR1	2	R1401J
484.748	1.6	511970	WORD	n/a	wordpools/wordpool_categorized_EN.txt	CEILING	Building	1	4	[0, 0, 0]	n/a	catFR1	2	R1401J
486.348	0.851	513573	WORD_OFF	n/a	n/a	CEILING	Building	1	4	[0, 0, 0]	n/a	catFR1	2	R1401J
487.199	1.6	514427	WORD	n/a	wordpools/wordpool_categorized_EN.txt	FOUNDATION	Building	2	4	[0, 0, 0]	n/a	catFR1	2	R1401J
488.799	0.9	516030	WORD_OFF	n/a	n/a	FOUNDATION	Building	2	4	[0, 0, 0]	n/a	catFR1	2	R1401J
489.699	1.6	516930	WORD	n/a	wordpools/wordpool_categorized_EN.txt	ANT	Insects	3	4	[0, 0, 0]	n/a	catFR1	2	R1401J
491.315	0.784	518548	WORD_OFF	n/a	n/a	ANT	Insects	3	4	[0, 0, 0]	n/a	catFR1	2	R1401J
492.099	1.6	519326	WORD	n/a	wordpools/wordpool_categorized_EN.txt	GNAT	Insects	4	4	[0, 0, 0]	n/a	catFR1	2	R1401J
493.699	0.966	520929	WORD_OFF	n/a	n/a	GNAT	Insects	4	4	[0, 0, 0]	n/a	catFR1	2	R1401J
494.665	1.6	521890	WORD	n/a	wordpools/wordpool_categorized_EN.txt	DOLLHOUSE	Toys	5	4	[0, 0, 0]	n/a	catFR1	2	R1401J
496.282	0.783	523508	WORD_OFF	n/a	n/a	DOLLHOUSE	Toys	5	4	[0, 0, 0]	n/a	catFR1	2	R1401J
497.065	1.6	524286	WORD	n/a	wordpools/wordpool_categorized_EN.txt	MARBLES	Toys	6	4	[0, 0, 0]	n/a	catFR1	2	R1401J
498.682	0.85	525904	WORD_OFF	n/a	n/a	MARBLES	Toys	6	4	[0, 0, 0]	n/a	catFR1	2	R1401J
499.532	1.6	526759	WORD	n/a	wordpools/wordpool_categorized_EN.txt	MOTH	Insects	7	4	[0, 0, 0]	n/a	catFR1	2	R1401J
501.132	0.816	528361	WORD_OFF	n/a	n/a	MOTH	Insects	7	4	[0, 0, 0]	n/a	catFR1	2	R1401J
501.948	1.6	529170	WORD	n/a	wordpools/wordpool_categorized_EN.txt	BUTTERFLY	Insects	8	4	[0, 0, 0]	n/a	catFR1	2	R1401J
503.565	0.784	530788	WORD_OFF	n/a	n/a	BUTTERFLY	Insects	8	4	[0, 0, 0]	n/a	catFR1	2	R1401J
504.349	1.6	531581	WORD	n/a	wordpools/wordpool_categorized_EN.txt	HALLWAY	Building	9	4	[0, 0, 0]	n/a	catFR1	2	R1401J
505.965	0.75	533199	WORD_OFF	n/a	n/a	HALLWAY	Building	9	4	[0, 0, 0]	n/a	catFR1	2	R1401J
506.715	1.6	533947	WORD	n/a	wordpools/wordpool_categorized_EN.txt	BATHROOM	Building	10	4	[0, 0, 0]	n/a	catFR1	2	R1401J
508.332	0.799	535564	WORD_OFF	n/a	n/a	BATHROOM	Building	10	4	[0, 0, 0]	n/a	catFR1	2	R1401J
509.131	1.6	536358	WORD	n/a	wordpools/wordpool_categorized_EN.txt	BASKETBALL	Toys	11	4	[0, 0, 0]	n/a	catFR1	2	R1401J
510.732	0.833	537961	WORD_OFF	n/a	n/a	BASKETBALL	Toys	11	4	[0, 0, 0]	n/a	catFR1	2	R1401J
511.565	1.6	538785	WORD	n/a	wordpools/wordpool_categorized_EN.txt	PUZZLE	Toys	12	4	[0, 0, 0]	n/a	catFR1	2	R1401J
513.182	0.0	540402	WORD_OFF	n/a	n/a	PUZZLE	Toys	12	4	[0, 0, 0]	n/a	catFR1	2	R1401J
513.182	0.001	540408	PROB	14.899	n/a	n/a	n/a	-999	4	[3, 8, 7]	18.0	catFR1	2	R1401J
513.183	0.0	540409	START	n/a	n/a	n/a	n/a	-999	4	[-999, -999, -999]	n/a	catFR1	2	R1401J
513.183	0.0	540418	ENCODING_END	n/a	n/a	n/a	n/a	-999	4	[0, 0, 0]	n/a	catFR1	2	R1401J
513.183	14.916	540418	DISTRACT_START	n/a	n/a	n/a	n/a	-999	4	[0, 0, 0]	n/a	catFR1	2	R1401J
528.099	18.8	555324	PROB	18.783	n/a	n/a	n/a	-999	4	[7, 1, 6]	14.0	catFR1	2	R1401J
546.899	0.0	574124	STOP	n/a	n/a	n/a	n/a	-999	4	[-999, -999, -999]	n/a	catFR1	2	R1401J
546.899	2.233	574130	DISTRACT_END	n/a	n/a	n/a	n/a	-999	4	[0, 0, 0]	n/a	catFR1	2	R1401J
549.132	0.812	576351	REC_START	n/a	n/a	n/a	n/a	-999	4	[0, 0, 0]	n/a	catFR1	2	R1401J
549.944	0.285	577169	REC_WORD_VV	0.812	n/a	<>	n/a	-999	4	[0, 0, 0]	n/a	catFR1	2	R1401J
550.229	0.856	577454	REC_WORD	1.097	n/a	CEILING	Building	1	4	[0, 0, 0]	n/a	catFR1	2	R1401J
551.085	1.0	578310	REC_WORD	1.953	n/a	FOUNDATION	Building	2	4	[0, 0, 0]	n/a	catFR1	2	R1401J
552.085	5.527	579309	REC_WORD_VV	2.953	n/a	<>	n/a	-999	4	[0, 0, 0]	n/a	catFR1	2	R1401J
557.612	0.525	584836	REC_WORD	8.48	n/a	CEILING	Building	1	4	[0, 0, 0]	n/a	catFR1	2	R1401J
558.137	2.18	585361	REC_WORD	9.005	n/a	FOUNDATION	Building	2	4	[0, 0, 0]	n/a	catFR1	2	R1401J
560.317	2.594	587541	REC_WORD	11.185	n/a	ANT	Insects	3	4	[0, 0, 0]	n/a	catFR1	2	R1401J
562.911	3.752	590135	REC_WORD	13.779	n/a	GNAT	Insects	4	4	[0, 0, 0]	n/a	catFR1	2	R1401J
566.663	12.68	593887	REC_WORD	17.531	n/a	MOSQUITO	Insects	-999	4	[0, 0, 0]	n/a	catFR1	2	R1401J
579.343	5.49	606561	REC_END	n/a	n/a	n/a	n/a	-999	4	[0, 0, 0]	n/a	catFR1	2	R1401J
584.833	10.0	612055	COUNTDOWN_START	n/a	n/a	n/a	n/a	-999	5	[0, 0, 0]	n/a	catFR1	2	R1401J
595.193	0.0	622418	COUNTDOWN_END	n/a	n/a	n/a	n/a	-999	5	[0, 0, 0]	n/a	catFR1	2	R1401J
595.193	1.973	622418	ENCODING_START	n/a	n/a	n/a	n/a	-999	5	[0, 0, 0]	n/a	catFR1	2	R1401J
597.166	1.6	624387	WORD	n/a	wordpools/wordpool_categorized_EN.txt	SANDER	Tools	1	5	[0, 0, 0]	n/a	catFR1	2	R1401J
598.782	1.0	626004	WORD_OFF	n/a	n/a	SANDER	Tools	1	5	[0, 0, 0]	n/a	catFR1	2	R1401J
599.782	1.6	627012	WORD	n/a	wordpools/wordpool_categorized_EN.txt	PLIERS	Tools	2	5	[0, 0, 0]	n/a	catFR1	2	R1401J
601.399	0.95	628614	WORD_OFF	n/a	n/a	PLIERS	Tools	2	5	[0, 0, 0]	n/a	catFR1	2	R1401J
602.349	1.6	629575	WORD	n/a	wordpools/wordpool_categorized_EN.txt	PASTRY	Desserts	3	5	[0, 0, 0]	n/a	catFR1	2	R1401J
603.965	0.817	631193	WORD_OFF	n/a	n/a	PASTRY	Desserts	3	5	[0, 0, 0]	n/a	catFR1	2	R1401J
604.782	1.6	632002	WORD	n/a	wordpools/wordpool_categorized_EN.txt	CUPCAKE	Desserts	4	5	[0, 0, 0]	n/a	catFR1	2	R1401J
606.382	0.933	633604	WORD_OFF	n/a	n/a	CUPCAKE	Desserts	4	5	[0, 0, 0]	n/a	catFR1	2	R1401J
607.315	1.6	634535	WORD	n/a	wordpools/wordpool_categorized_EN.txt	LOBSTER	OceanAnimals	5	5	[0, 0, 0]	n/a	catFR1	2	R1401J
608.932	0.884	636153	WORD_OFF	n/a	n/a	LOBSTER	OceanAnimals	5	5	[0, 0, 0]	n/a	catFR1	2	R1401J
609.816	1.6	637038	WORD	n/a	wordpools/wordpool_categorized_EN.txt	TURTLE	OceanAnimals	6	5	[0, 0, 0]	n/a	catFR1	2	R1401J
611.432	0.983	638656	WORD_OFF	n/a	n/a	TURTLE	OceanAnimals	6	5	[0, 0, 0]	n/a	catFR1	2	R1401J
612.415	1.6	639633	WORD	n/a	wordpools/wordpool_categorized_EN.txt	SCREWDRIVER	Tools	7	5	[0, 0, 0]	n/a	catFR1	2	R1401J
614.032	0.933	641251	WORD_OFF	n/a	n/a	SCREWDRIVER	Tools	7	5	[0, 0, 0]	n/a	catFR1	2	R1401J
614.965	1.6	642181	WORD	n/a	wordpools/wordpool_categorized_EN.txt	SAW	Tools	8	5	[0, 0, 0]	n/a	catFR1	2	R1401J
616.582	0.866	643799	WORD_OFF	n/a	n/a	SAW	Tools	8	5	[0, 0, 0]	n/a	catFR1	2	R1401J
617.448	1.6	644669	WORD	n/a	wordpools/wordpool_categorized_EN.txt	CAKE	Desserts	9	5	[0, 0, 0]	n/a	catFR1	2	R1401J
619.048	0.867	646272	WORD_OFF	n/a	n/a	CAKE	Desserts	9	5	[0, 0, 0]	n/a	catFR1	2	R1401J
619.915	1.6	647141	WORD	n/a	wordpools/wordpool_categorized_EN.txt	COOKIE	Desserts	10	5	[0, 0, 0]	n/a	catFR1	2	R1401J
621.515	0.767	648744	WORD_OFF	n/a	n/a	COOKIE	Desserts	10	5	[0, 0, 0]	n/a	catFR1	2	R1401J
622.282	1.6	649507	WORD	n/a	wordpools/wordpool_categorized_EN.txt	SQUID	OceanAnimals	11	5	[0, 0, 0]	n/a	catFR1	2	R1401J
623.881	0.8	651109	WORD_OFF	n/a	n/a	SQUID	OceanAnimals	11	5	[0, 0, 0]	n/a	catFR1	2	R1401J
624.681	1.6	651903	WORD	n/a	wordpools/wordpool_categorized_EN.txt	CRAB	OceanAnimals	12	5	[0, 0, 0]	n/a	catFR1	2	R1401J
626.282	0.001	653503	PROB	10.7	n/a	n/a	n/a	-999	5	[8, 7, 2]	17.0	catFR1	2	R1401J
626.283	0.0	653504	START	n/a	n/a	n/a	n/a	-999	5	[-999, -999, -999]	n/a	catFR1	2	R1401J
626.281	0.002	653506	WORD_OFF	n/a	n/a	CRAB	OceanAnimals	12	5	[0, 0, 0]	n/a	catFR1	2	R1401J
626.283	0.0	653506	ENCODING_END	n/a	n/a	n/a	n/a	-999	5	[0, 0, 0]	n/a	catFR1	2	R1401J
626.283	10.717	653506	DISTRACT_START	n/a	n/a	n/a	n/a	-999	5	[0, 0, 0]	n/a	catFR1	2	R1401J
637.0	8.433	664221	PROB	8.416	n/a	n/a	n/a	-999	5	[8, 2, 2]	12.0	catFR1	2	R1401J
645.433	278.015	672654	PROB	277.998	n/a	n/a	n/a	-999	5	[7, 2, 5]	14.0	catFR1	2	R1401J
923.448	0.0	950657	STOP	n/a	n/a	n/a	n/a	-999	5	[-999, -999, -999]	n/a	catFR1	2	R1401J
923.448	2.3	950663	DISTRACT_END	n/a	n/a	n/a	n/a	-999	5	[0, 0, 0]	n/a	catFR1	2	R1401J
925.748	0.831	952960	REC_START	n/a	n/a	n/a	n/a	-999	5	[0, 0, 0]	n/a	catFR1	2	R1401J
926.579	2.505	953788	REC_WORD_VV	0.831	n/a	<>	n/a	-999	5	[0, 0, 0]	n/a	catFR1	2	R1401J
929.084	0.842	956293	REC_WORD	3.336	n/a	SQUID	OceanAnimals	11	5	[0, 0, 0]	n/a	catFR1	2	R1401J
929.926	5.791	957135	REC_WORD	4.178	n/a	LOBSTER	OceanAnimals	5	5	[0, 0, 0]	n/a	catFR1	2	R1401J
935.717	0.515	962926	REC_WORD	9.969	n/a	SQUID	OceanAnimals	11	5	[0, 0, 0]	n/a	catFR1	2	R1401J
936.232	2.388	963441	REC_WORD	10.484	n/a	LOBSTER	OceanAnimals	5	5	[0, 0, 0]	n/a	catFR1	2	R1401J
938.62	3.033	965829	REC_WORD	12.872	n/a	FISH	n/a	-999	5	[0, 0, 0]	n/a	catFR1	2	R1401J
941.653	1.0	968862	REC_WORD_VV	15.905	n/a	<>	n/a	-999	5	[0, 0, 0]	n/a	catFR1	2	R1401J
942.653	2.987	969862	REC_WORD_VV	16.905	n/a	<>	n/a	-999	5	[0, 0, 0]	n/a	catFR1	2	R1401J
945.64	1.0	972849	REC_WORD	19.892	n/a	SCREWDRIVER	Tools	7	5	[0, 0, 0]	n/a	catFR1	2	R1401J
946.64	5.373	973849	REC_WORD_VV	20.892	n/a	<>	n/a	-999	5	[0, 0, 0]	n/a	catFR1	2	R1401J
952.013	1.343	979221	REC_WORD_VV	26.265	n/a	<>	n/a	-999	5	[0, 0, 0]	n/a	catFR1	2	R1401J
953.356	1.406	980564	REC_WORD_VV	27.608	n/a	<>	n/a	-999	5	[0, 0, 0]	n/a	catFR1	2	R1401J
954.762	0.571	981970	REC_WORD_VV	29.014	n/a	<>	n/a	-999	5	[0, 0, 0]	n/a	catFR1	2	R1401J
955.333	0.593	982541	REC_WORD	29.585	n/a	SCREWDRIVER	Tools	7	5	[0, 0, 0]	n/a	catFR1	2	R1401J
955.926	5.473	983139	REC_END	n/a	n/a	n/a	n/a	-999	5	[0, 0, 0]	n/a	catFR1	2	R1401J
961.399	10.0	988603	COUNTDOWN_START	n/a	n/a	n/a	n/a	-999	6	[0, 0, 0]	n/a	catFR1	2	R1401J
971.759	0.0	998965	COUNTDOWN_END	n/a	n/a	n/a	n/a	-999	6	[0, 0, 0]	n/a	catFR1	2	R1401J
971.759	2.173	998965	ENCODING_START	n/a	n/a	n/a	n/a	-999	6	[0, 0, 0]	n/a	catFR1	2	R1401J
973.932	1.6	1001148	WORD	n/a	wordpools/wordpool_categorized_EN.txt	WHISK	KitchenTools	1	6	[0, 0, 0]	n/a	catFR1	2	R1401J
975.532	0.849	1002735	WORD_OFF	n/a	n/a	WHISK	KitchenTools	1	6	[0, 0, 0]	n/a	catFR1	2	R1401J
976.381	1.6	1003590	WORD	n/a	wordpools/wordpool_categorized_EN.txt	CORKSCREW	KitchenTools	2	6	[0, 0, 0]	n/a	catFR1	2	R1401J
977.982	0.799	1005192	WORD_OFF	n/a	n/a	CORKSCREW	KitchenTools	2	6	[0, 0, 0]	n/a	catFR1	2	R1401J
978.781	1.6	1005986	WORD	n/a	wordpools/wordpool_categorized_EN.txt	DOLL	Toys	3	6	[0, 0, 0]	n/a	catFR1	2	R1401J
980.382	0.9	1007588	WORD_OFF	n/a	n/a	DOLL	Toys	3	6	[0, 0, 0]	n/a	catFR1	2	R1401J
981.282	1.6	1008489	WORD	n/a	wordpools/wordpool_categorized_EN.txt	BLOCKS	Toys	4	6	[0, 0, 0]	n/a	catFR1	2	R1401J
982.882	0.833	1010091	WORD_OFF	n/a	n/a	BLOCKS	Toys	4	6	[0, 0, 0]	n/a	catFR1	2	R1401J
983.715	1.6	1010930	WORD	n/a	wordpools/wordpool_categorized_EN.txt	PETUNIA	Flowers	5	6	[0, 0, 0]	n/a	catFR1	2	R1401J
985.315	0.967	1012518	WORD_OFF	n/a	n/a	PETUNIA	Flowers	5	6	[0, 0, 0]	n/a	catFR1	2	R1401J
986.282	1.6	1013494	WORD	n/a	wordpools/wordpool_categorized_EN.txt	MARIGOLD	Flowers	6	6	[0, 0, 0]	n/a	catFR1	2	R1401J
987.898	0.901	1015112	WORD_OFF	n/a	n/a	MARIGOLD	Flowers	6	6	[0, 0, 0]	n/a	catFR1	2	R1401J
988.799	1.6	1016012	WORD	n/a	wordpools/wordpool_categorized_EN.txt	BASEBALL	Toys	7	6	[0, 0, 0]	n/a	catFR1	2	R1401J
990.399	0.85	1017600	WORD_OFF	n/a	n/a	BASEBALL	Toys	7	6	[0, 0, 0]	n/a	catFR1	2	R1401J
991.249	1.6	1018454	WORD	n/a	wordpools/wordpool_categorized_EN.txt	BALL	Toys	8	6	[0, 0, 0]	n/a	catFR1	2	R1401J
992.865	0.933	1020072	WORD_OFF	n/a	n/a	BALL	Toys	8	6	[0, 0, 0]	n/a	catFR1	2	R1401J
993.798	1.6	1021003	WORD	n/a	wordpools/wordpool_categorized_EN.txt	ORCHID	Flowers	9	6	[0, 0, 0]	n/a	catFR1	2	R1401J
995.398	0.967	1022605	WORD_OFF	n/a	n/a	ORCHID	Flowers	9	6	[0, 0, 0]	n/a	catFR1	2	R1401J
996.365	1.6	1023567	WORD	n/a	wordpools/wordpool_categorized_EN.txt	SUNFLOWER	Flowers	10	6	[0, 0, 0]	n/a	catFR1	2	R1401J
997.982	0.867	1025185	WORD_OFF	n/a	n/a	SUNFLOWER	Flowers	10	6	[0, 0, 0]	n/a	catFR1	2	R1401J
998.849	1.6	1026055	WORD	n/a	wordpools/wordpool_categorized_EN.txt	FORK	KitchenTools	11	6	[0, 0, 0]	n/a	catFR1	2	R1401J
1000.448	0.933	1027657	WORD_OFF	n/a	n/a	FORK	KitchenTools	11	6	[0, 0, 0]	n/a	catFR1	2	R1401J
1001.381	1.6	1028588	WORD	n/a	wordpools/wordpool_categorized_EN.txt	GRATER	KitchenTools	12	6	[0, 0, 0]	n/a	catFR1	2	R1401J
1002.982	0.001	1030188	PROB	12.883	n/a	n/a	n/a	-999	6	[6, 3, 4]	13.0	catFR1	2	R1401J
1002.983	0.0	1030189	START	n/a	n/a	n/a	n/a	-999	6	[-999, -999, -999]	n/a	catFR1	2	R1401J
1002.982	0.001	1030190	WORD_OFF	n/a	n/a	GRATER	KitchenTools	12	6	[0, 0, 0]	n/a	catFR1	2	R1401J
1002.983	0.0	1030190	ENCODING_END	n/a	n/a	n/a	n/a	-999	6	[0, 0, 0]	n/a	catFR1	2	R1401J
1002.983	12.899	1030190	DISTRACT_START	n/a	n/a	n/a	n/a	-999	6	[0, 0, 0]	n/a	catFR1	2	R1401J
1015.882	6.217	1043088	PROB	6.2	n/a	n/a	n/a	-999	6	[2, 1, 7]	10.0	catFR1	2	R1401J
1022.099	7.95	1049304	PROB	7.933	n/a	n/a	n/a	-999	6	[7, 1, 8]	16.0	catFR1	2	R1401J
1030.049	0.0	1057249	DISTRACT_END	n/a	n/a	n/a	n/a	-999	6	[0, 0, 0]	n/a	catFR1	2	R1401J
1030.049	2.05	1057254	STOP	n/a	n/a	n/a	n/a	-999	6	[-999, -999, -999]	n/a	catFR1	2	R1401J
1032.099	0.714	1059302	REC_START	n/a	n/a	n/a	n/a	-999	6	[0, 0, 0]	n/a	catFR1	2	R1401J
1032.813	1.014	1060018	REC_WORD	0.714	n/a	WHISK	KitchenTools	1	6	[0, 0, 0]	n/a	catFR1	2	R1401J
1033.827	1.0	1061032	REC_WORD	1.728	n/a	CORKSCREW	KitchenTools	2	6	[0, 0, 0]	n/a	catFR1	2	R1401J
1034.827	4.635	1062032	REC_WORD_VV	2.728	n/a	<>	n/a	-999	6	[0, 0, 0]	n/a	catFR1	2	R1401J
1039.462	11.063	1066667	REC_WORD	7.363	n/a	LADLE	KitchenTools	-999	6	[0, 0, 0]	n/a	catFR1	2	R1401J
1050.525	2.777	1077729	REC_WORD_VV	18.426	n/a	<>	n/a	-999	6	[0, 0, 0]	n/a	catFR1	2	R1401J
1053.302	0.887	1080506	REC_WORD	21.203	n/a	DOLLHOUSE	Toys	-999	6	[0, 0, 0]	n/a	catFR1	2	R1401J
1054.189	7.769	1081393	REC_WORD	22.09	n/a	DOLL	Toys	3	6	[0, 0, 0]	n/a	catFR1	2	R1401J
1061.958	0.338	1089162	REC_WORD_VV	29.859	n/a	<>	n/a	-999	6	[0, 0, 0]	n/a	catFR1	2	R1401J
1062.296	4.72	1089497	REC_END	n/a	n/a	n/a	n/a	-999	6	[0, 0, 0]	n/a	catFR1	2	R1401J
1067.016	10.0	1094228	COUNTDOWN_START	n/a	n/a	n/a	n/a	-999	7	[0, 0, 0]	n/a	catFR1	2	R1401J
1067.051	0.0	1094258	COUNTDOWN_END	n/a	n/a	n/a	n/a	-999	7	[0, 0, 0]	n/a	catFR1	2	R1401J
1067.051	2.182	1094258	ENCODING_START	n/a	n/a	n/a	n/a	-999	7	[0, 0, 0]	n/a	catFR1	2	R1401J
1069.233	1.6	1096441	WORD	n/a	wordpools/wordpool_categorized_EN.txt	TORNADO	Weather	1	7	[0, 0, 0]	n/a	catFR1	2	R1401J
1070.833	0.8	1098043	WORD_OFF	n/a	n/a	TORNADO	Weather	1	7	[0, 0, 0]	n/a	catFR1	2	R1401J
1071.633	1.6	1098837	WORD	n/a	wordpools/wordpool_categorized_EN.txt	DRIZZLE	Weather	2	7	[0, 0, 0]	n/a	catFR1	2	R1401J
1073.249	1.0	1100454	WORD_OFF	n/a	n/a	DRIZZLE	Weather	2	7	[0, 0, 0]	n/a	catFR1	2	R1401J
1074.249	1.6	1101446	WORD	n/a	wordpools/wordpool_categorized_EN.txt	BOOKCASE	Furniture	3	7	[0, 0, 0]	n/a	catFR1	2	R1401J
1075.849	0.849	1103049	WORD_OFF	n/a	n/a	BOOKCASE	Furniture	3	7	[0, 0, 0]	n/a	catFR1	2	R1401J
1076.698	1.6	1103904	WORD	n/a	wordpools/wordpool_categorized_EN.txt	CHAIR	Furniture	4	7	[0, 0, 0]	n/a	catFR1	2	R1401J
1078.299	0.816	1105506	WORD_OFF	n/a	n/a	CHAIR	Furniture	4	7	[0, 0, 0]	n/a	catFR1	2	R1401J
1079.115	1.6	1106315	WORD	n/a	wordpools/wordpool_categorized_EN.txt	DAISY	Flowers	5	7	[0, 0, 0]	n/a	catFR1	2	R1401J
1080.716	0.883	1107917	WORD_OFF	n/a	n/a	DAISY	Flowers	5	7	[0, 0, 0]	n/a	catFR1	2	R1401J
1081.599	1.6	1108803	WORD	n/a	wordpools/wordpool_categorized_EN.txt	VIOLET	Flowers	6	7	[0, 0, 0]	n/a	catFR1	2	R1401J
1083.199	0.949	1110405	WORD_OFF	n/a	n/a	VIOLET	Flowers	6	7	[0, 0, 0]	n/a	catFR1	2	R1401J
1084.148	1.6	1111351	WORD	n/a	wordpools/wordpool_categorized_EN.txt	SOFA	Furniture	7	7	[0, 0, 0]	n/a	catFR1	2	R1401J
1085.748	0.968	1112954	WORD_OFF	n/a	n/a	SOFA	Furniture	7	7	[0, 0, 0]	n/a	catFR1	2	R1401J
1086.716	1.6	1113915	WORD	n/a	wordpools/wordpool_categorized_EN.txt	COUCH	Furniture	8	7	[0, 0, 0]	n/a	catFR1	2	R1401J
1088.316	0.783	1115518	WORD_OFF	n/a	n/a	COUCH	Furniture	8	7	[0, 0, 0]	n/a	catFR1	2	R1401J
1089.099	1.6	1116296	WORD	n/a	wordpools/wordpool_categorized_EN.txt	ROSE	Flowers	9	7	[0, 0, 0]	n/a	catFR1	2	R1401J
1090.699	0.816	1117898	WORD_OFF	n/a	n/a	ROSE	Flowers	9	7	[0, 0, 0]	n/a	catFR1	2	R1401J
1091.515	1.6	1118723	WORD	n/a	wordpools/wordpool_categorized_EN.txt	LILAC	Flowers	10	7	[0, 0, 0]	n/a	catFR1	2	R1401J
1093.116	0.767	1120325	WORD_OFF	n/a	n/a	LILAC	Flowers	10	7	[0, 0, 0]	n/a	catFR1	2	R1401J
1093.883	1.6	1121088	WORD	n/a	wordpools/wordpool_categorized_EN.txt	LIGHTNING	Weather	11	7	[0, 0, 0]	n/a	catFR1	2	R1401J
1095.483	0.95	1122691	WORD_OFF	n/a	n/a	LIGHTNING	Weather	11	7	[0, 0, 0]	n/a	catFR1	2	R1401J
1096.433	1.6	1123637	WORD	n/a	wordpools/wordpool_categorized_EN.txt	HURRICANE	Weather	12	7	[0, 0, 0]	n/a	catFR1	2	R1401J
1098.051	0.0	1125253	PROB	22.999	n/a	n/a	n/a	-999	7	[7, 8, 1]	16.0	catFR1	2	R1401J
1098.051	0.001	1125254	WORD_OFF	n/a	n/a	HURRICANE	Weather	12	7	[0, 0, 0]	n/a	catFR1	2	R1401J
1098.052	0.0	1125254	ENCODING_END	n/a	n/a	n/a	n/a	-999	7	[0, 0, 0]	n/a	catFR1	2	R1401J
1098.052	0.0	1125254	DISTRACT_START	n/a	n/a	n/a	n/a	-999	7	[0, 0, 0]	n/a	catFR1	2	R1401J
1098.052	23.013	1125254	START	n/a	n/a	n/a	n/a	-999	7	[-999, -999, -999]	n/a	catFR1	2	R1401J
1121.065	0.0	1148266	STOP	n/a	n/a	n/a	n/a	-999	7	[-999, -999, -999]	n/a	catFR1	2	R1401J
1121.065	2.25	1148269	DISTRACT_END	n/a	n/a	n/a	n/a	-999	7	[0, 0, 0]	n/a	catFR1	2	R1401J
1123.315	3.363	1150520	REC_START	n/a	n/a	n/a	n/a	-999	7	[0, 0, 0]	n/a	catFR1	2	R1401J
1126.678	2.352	1153879	REC_WORD	3.363	n/a	ARM	n/a	-999	7	[0, 0, 0]	n/a	catFR1	2	R1401J
1129.03	1.0	1156231	REC_WORD	5.715	n/a	HURRICANE	Weather	12	7	[0, 0, 0]	n/a	catFR1	2	R1401J
1130.03	1.188	1157231	REC_WORD_VV	6.715	n/a	<>	n/a	-999	7	[0, 0, 0]	n/a	catFR1	2	R1401J
1131.218	0.691	1158419	REC_WORD	7.903	n/a	LIGHTNING	Weather	11	7	[0, 0, 0]	n/a	catFR1	2	R1401J
1131.909	1.385	1159110	REC_WORD	8.594	n/a	DRIZZLE	Weather	2	7	[0, 0, 0]	n/a	catFR1	2	R1401J
1133.294	8.772	1160495	REC_WORD	9.979	n/a	TORNADO	Weather	1	7	[0, 0, 0]	n/a	catFR1	2	R1401J
1142.066	0.67	1169267	REC_WORD	18.751	n/a	VIOLET	Flowers	6	7	[0, 0, 0]	n/a	catFR1	2	R1401J
1142.736	10.78	1169937	REC_WORD	19.421	n/a	DAISY	Flowers	5	7	[0, 0, 0]	n/a	catFR1	2	R1401J
1153.516	5.516	1180715	REC_END	n/a	n/a	n/a	n/a	-999	7	[0, 0, 0]	n/a	catFR1	2	R1401J
1159.032	10.0	1186240	COUNTDOWN_START	n/a	n/a	n/a	n/a	-999	8	[0, 0, 0]	n/a	catFR1	2	R1401J
1169.393	0.0	1196587	COUNTDOWN_END	n/a	n/a	n/a	n/a	-999	8	[0, 0, 0]	n/a	catFR1	2	R1401J
1169.393	1.973	1196602	ENCODING_START	n/a	n/a	n/a	n/a	-999	8	[0, 0, 0]	n/a	catFR1	2	R1401J
1171.366	1.6	1198571	WORD	n/a	wordpools/wordpool_categorized_EN.txt	GOOSE	Birds	1	8	[0, 0, 0]	n/a	catFR1	2	R1401J
1172.982	0.884	1200189	WORD_OFF	n/a	n/a	GOOSE	Birds	1	8	[0, 0, 0]	n/a	catFR1	2	R1401J
1173.866	1.6	1201058	WORD	n/a	wordpools/wordpool_categorized_EN.txt	BLUEBIRD	Birds	2	8	[0, 0, 0]	n/a	catFR1	2	R1401J
1175.482	0.8	1202676	WORD_OFF	n/a	n/a	BLUEBIRD	Birds	2	8	[0, 0, 0]	n/a	catFR1	2	R1401J
1176.282	1.6	1203485	WORD	n/a	wordpools/wordpool_categorized_EN.txt	LAMB	FarmAnimals	3	8	[0, 0, 0]	n/a	catFR1	2	R1401J
1177.882	0.817	1205087	WORD_OFF	n/a	n/a	LAMB	FarmAnimals	3	8	[0, 0, 0]	n/a	catFR1	2	R1401J
1178.699	1.6	1205896	WORD	n/a	wordpools/wordpool_categorized_EN.txt	COW	FarmAnimals	4	8	[0, 0, 0]	n/a	catFR1	2	R1401J
1180.316	0.766	1207514	WORD_OFF	n/a	n/a	COW	FarmAnimals	4	8	[0, 0, 0]	n/a	catFR1	2	R1401J
1181.082	1.6	1208277	WORD	n/a	wordpools/wordpool_categorized_EN.txt	CAULIFLOWER	Vegetables	5	8	[0, 0, 0]	n/a	catFR1	2	R1401J
1182.682	0.917	1209880	WORD_OFF	n/a	n/a	CAULIFLOWER	Vegetables	5	8	[0, 0, 0]	n/a	catFR1	2	R1401J
1183.599	1.6	1210795	WORD	n/a	wordpools/wordpool_categorized_EN.txt	ONION	Vegetables	6	8	[0, 0, 0]	n/a	catFR1	2	R1401J
1185.199	0.999	1212398	WORD_OFF	n/a	n/a	ONION	Vegetables	6	8	[0, 0, 0]	n/a	catFR1	2	R1401J
1186.198	1.6	1213390	WORD	n/a	wordpools/wordpool_categorized_EN.txt	HEN	FarmAnimals	7	8	[0, 0, 0]	n/a	catFR1	2	R1401J
1187.798	0.784	1214992	WORD_OFF	n/a	n/a	HEN	FarmAnimals	7	8	[0, 0, 0]	n/a	catFR1	2	R1401J
1188.582	1.6	1215786	WORD	n/a	wordpools/wordpool_categorized_EN.txt	GOAT	FarmAnimals	8	8	[0, 0, 0]	n/a	catFR1	2	R1401J
1190.182	0.8	1217388	WORD_OFF	n/a	n/a	GOAT	FarmAnimals	8	8	[0, 0, 0]	n/a	catFR1	2	R1401J
1190.982	1.6	1218182	WORD	n/a	wordpools/wordpool_categorized_EN.txt	CORN	Vegetables	9	8	[0, 0, 0]	n/a	catFR1	2	R1401J
1192.598	0.95	1219800	WORD_OFF	n/a	n/a	CORN	Vegetables	9	8	[0, 0, 0]	n/a	catFR1	2	R1401J
1193.548	1.6	1220746	WORD	n/a	wordpools/wordpool_categorized_EN.txt	CUCUMBER	Vegetables	10	8	[0, 0, 0]	n/a	catFR1	2	R1401J
1195.149	0.816	1222348	WORD_OFF	n/a	n/a	CUCUMBER	Vegetables	10	8	[0, 0, 0]	n/a	catFR1	2	R1401J
1195.965	1.6	1223157	WORD	n/a	wordpools/wordpool_categorized_EN.txt	HAWK	Birds	11	8	[0, 0, 0]	n/a	catFR1	2	R1401J
1197.565	0.917	1224760	WORD_OFF	n/a	n/a	HAWK	Birds	11	8	[0, 0, 0]	n/a	catFR1	2	R1401J
1198.482	1.6	1225675	WORD	n/a	wordpools/wordpool_categorized_EN.txt	PIGEON	Birds	12	8	[0, 0, 0]	n/a	catFR1	2	R1401J
1200.098	0.002	1227293	WORD_OFF	n/a	n/a	PIGEON	Birds	12	8	[0, 0, 0]	n/a	catFR1	2	R1401J
1200.1	0.0	1227293	ENCODING_END	n/a	n/a	n/a	n/a	-999	8	[0, 0, 0]	n/a	catFR1	2	R1401J
1200.098	0.002	1227296	PROB	11.983	n/a	n/a	n/a	-999	8	[6, 6, 6]	18.0	catFR1	2	R1401J
1200.1	0.0	1227298	START	n/a	n/a	n/a	n/a	-999	8	[-999, -999, -999]	n/a	catFR1	2	R1401J
1200.1	11.999	1227308	DISTRACT_START	n/a	n/a	n/a	n/a	-999	8	[0, 0, 0]	n/a	catFR1	2	R1401J
1212.099	4.766	1239297	PROB	4.75	n/a	n/a	n/a	-999	8	[5, 1, 5]	11.0	catFR1	2	R1401J
1216.865	31.15	1244063	PROB	31.134	n/a	n/a	n/a	-999	8	[7, 4, 1]	12.0	catFR1	2	R1401J
1248.015	0.0	1275211	STOP	n/a	n/a	n/a	n/a	-999	8	[-999, -999, -999]	n/a	catFR1	2	R1401J
1248.015	2.034	1275214	DISTRACT_END	n/a	n/a	n/a	n/a	-999	8	[0, 0, 0]	n/a	catFR1	2	R1401J
1250.049	9.098	1277252	REC_START	n/a	n/a	n/a	n/a	-999	8	[0, 0, 0]	n/a	catFR1	2	R1401J
1259.147	6.697	1286343	REC_WORD_VV	9.098	n/a	<>	n/a	-999	8	[0, 0, 0]	n/a	catFR1	2	R1401J
1265.844	1.13	1293040	REC_WORD_VV	15.795	n/a	<>	n/a	-999	8	[0, 0, 0]	n/a	catFR1	2	R1401J
1266.974	1.0	1294170	REC_WORD_VV	16.925	n/a	<>	n/a	-999	8	[0, 0, 0]	n/a	catFR1	2	R1401J
1267.974	12.278	1295170	REC_WORD_VV	17.925	n/a	<>	n/a	-999	8	[0, 0, 0]	n/a	catFR1	2	R1401J
1280.252	871.513	1307447	REC_END	n/a	n/a	n/a	n/a	-999	8	[0, 0, 0]	n/a	catFR1	2	R1401J
2151.765	10.0	2178925	COUNTDOWN_START	n/a	n/a	n/a	n/a	-999	9	[0, 0, 0]	n/a	catFR1	2	R1401J
2162.142	0.0	2189303	COUNTDOWN_END	n/a	n/a	n/a	n/a	-999	9	[0, 0, 0]	n/a	catFR1	2	R1401J
2162.142	2.29	2189303	ENCODING_START	n/a	n/a	n/a	n/a	-999	9	[0, 0, 0]	n/a	catFR1	2	R1401J
2164.432	1.6	2191592	WORD	n/a	wordpools/wordpool_categorized_EN.txt	TRAIN	Vehicles	1	9	[0, 0, 0]	n/a	catFR1	2	R1401J
2166.049	0.849	2193210	WORD_OFF	n/a	n/a	TRAIN	Vehicles	1	9	[0, 0, 0]	n/a	catFR1	2	R1401J
2166.898	1.6	2194065	WORD	n/a	wordpools/wordpool_categorized_EN.txt	MOTORCYCLE	Vehicles	2	9	[0, 0, 0]	n/a	catFR1	2	R1401J
2168.498	0.933	2195652	WORD_OFF	n/a	n/a	MOTORCYCLE	Vehicles	2	9	[0, 0, 0]	n/a	catFR1	2	R1401J
2169.431	1.6	2196598	WORD	n/a	wordpools/wordpool_categorized_EN.txt	WHALE	OceanAnimals	3	9	[0, 0, 0]	n/a	catFR1	2	R1401J
2171.032	0.833	2198185	WORD_OFF	n/a	n/a	WHALE	OceanAnimals	3	9	[0, 0, 0]	n/a	catFR1	2	R1401J
2171.865	1.6	2199025	WORD	n/a	wordpools/wordpool_categorized_EN.txt	JELLYFISH	OceanAnimals	4	9	[0, 0, 0]	n/a	catFR1	2	R1401J
2173.481	0.934	2200642	WORD_OFF	n/a	n/a	JELLYFISH	OceanAnimals	4	9	[0, 0, 0]	n/a	catFR1	2	R1401J
2174.415	1.6	2201573	WORD	n/a	wordpools/wordpool_categorized_EN.txt	DRESS	Clothing	5	9	[0, 0, 0]	n/a	catFR1	2	R1401J
2176.015	0.9	2203176	WORD_OFF	n/a	n/a	DRESS	Clothing	5	9	[0, 0, 0]	n/a	catFR1	2	R1401J
2176.915	1.6	2204076	WORD	n/a	wordpools/wordpool_categorized_EN.txt	SOCKS	Clothing	6	9	[0, 0, 0]	n/a	catFR1	2	R1401J
2178.531	0.867	2205694	WORD_OFF	n/a	n/a	SOCKS	Clothing	6	9	[0, 0, 0]	n/a	catFR1	2	R1401J
2179.398	1.6	2206564	WORD	n/a	wordpools/wordpool_categorized_EN.txt	BOAT	Vehicles	7	9	[0, 0, 0]	n/a	catFR1	2	R1401J
2180.998	0.934	2208151	WORD_OFF	n/a	n/a	BOAT	Vehicles	7	9	[0, 0, 0]	n/a	catFR1	2	R1401J
2181.932	1.6	2209097	WORD	n/a	wordpools/wordpool_categorized_EN.txt	VAN	Vehicles	8	9	[0, 0, 0]	n/a	catFR1	2	R1401J
2183.549	0.766	2210715	WORD_OFF	n/a	n/a	VAN	Vehicles	8	9	[0, 0, 0]	n/a	catFR1	2	R1401J
2184.315	1.6	2211478	WORD	n/a	wordpools/wordpool_categorized_EN.txt	OCTOPUS	OceanAnimals	9	9	[0, 0, 0]	n/a	catFR1	2	R1401J
2185.916	0.8	2213081	WORD_OFF	n/a	n/a	OCTOPUS	OceanAnimals	9	9	[0, 0, 0]	n/a	catFR1	2	R1401J
2186.716	1.6	2213874	WORD	n/a	wordpools/wordpool_categorized_EN.txt	PLANKTON	OceanAnimals	10	9	[0, 0, 0]	n/a	catFR1	2	R1401J
2188.332	0.799	2215492	WORD_OFF	n/a	n/a	PLANKTON	OceanAnimals	10	9	[0, 0, 0]	n/a	catFR1	2	R1401J
2189.131	1.6	2216285	WORD	n/a	wordpools/wordpool_categorized_EN.txt	SHIRT	Clothing	11	9	[0, 0, 0]	n/a	catFR1	2	R1401J
2190.732	0.999	2217888	WORD_OFF	n/a	n/a	SHIRT	Clothing	11	9	[0, 0, 0]	n/a	catFR1	2	R1401J
2191.731	1.6	2218895	WORD	n/a	wordpools/wordpool_categorized_EN.txt	JACKET	Clothing	12	9	[0, 0, 0]	n/a	catFR1	2	R1401J
2193.332	0.001	2220490	PROB	7.9	n/a	n/a	n/a	-999	9	[6, 3, 1]	10.0	catFR1	2	R1401J
2193.333	0.0	2220491	START	n/a	n/a	n/a	n/a	-999	9	[-999, -999, -999]	n/a	catFR1	2	R1401J
2193.332	0.001	2220498	WORD_OFF	n/a	n/a	JACKET	Clothing	12	9	[0, 0, 0]	n/a	catFR1	2	R1401J
2193.333	0.0	2220498	ENCODING_END	n/a	n/a	n/a	n/a	-999	9	[0, 0, 0]	n/a	catFR1	2	R1401J
2193.333	7.916	2220498	DISTRACT_START	n/a	n/a	n/a	n/a	-999	9	[0, 0, 0]	n/a	catFR1	2	R1401J
2201.249	13.75	2228407	PROB	13.732	n/a	n/a	n/a	-999	9	[5, 5, 4]	14.0	catFR1	2	R1401J
2214.999	0.0	2242154	DISTRACT_END	n/a	n/a	n/a	n/a	-999	9	[0, 0, 0]	n/a	catFR1	2	R1401J
2214.999	2.4	2242156	STOP	n/a	n/a	n/a	n/a	-999	9	[-999, -999, -999]	n/a	catFR1	2	R1401J
2217.399	0.856	2244558	REC_START	n/a	n/a	n/a	n/a	-999	9	[0, 0, 0]	n/a	catFR1	2	R1401J
2218.255	0.599	2245412	REC_WORD	0.856	n/a	TRAIN	Vehicles	1	9	[0, 0, 0]	n/a	catFR1	2	R1401J
2218.854	1.0	2246011	REC_WORD	1.455	n/a	MOTORCYCLE	Vehicles	2	9	[0, 0, 0]	n/a	catFR1	2	R1401J
2219.854	3.92	2247011	REC_WORD_VV	2.455	n/a	<>	n/a	-999	9	[0, 0, 0]	n/a	catFR1	2	R1401J
2223.774	2.053	2250931	REC_WORD_VV	6.375	n/a	<>	n/a	-999	9	[0, 0, 0]	n/a	catFR1	2	R1401J
2225.827	0.353	2252984	REC_WORD	8.428	n/a	TRAIN	Vehicles	1	9	[0, 0, 0]	n/a	catFR1	2	R1401J
2226.18	1.0	2253337	REC_WORD	8.781	n/a	MOTORCYCLE	Vehicles	2	9	[0, 0, 0]	n/a	catFR1	2	R1401J
2227.18	0.836	2254337	REC_WORD_VV	9.781	n/a	<>	n/a	-999	9	[0, 0, 0]	n/a	catFR1	2	R1401J
2228.016	1.0	2255173	REC_WORD	10.617	n/a	JELLYFISH	OceanAnimals	4	9	[0, 0, 0]	n/a	catFR1	2	R1401J
2229.016	6.171	2256173	REC_WORD_VV	11.617	n/a	<>	n/a	-999	9	[0, 0, 0]	n/a	catFR1	2	R1401J
2235.187	0.609	2262344	REC_WORD	17.788	n/a	SHIRT	Clothing	11	9	[0, 0, 0]	n/a	catFR1	2	R1401J
2235.796	1.0	2262953	REC_WORD	18.397	n/a	SOCKS	Clothing	6	9	[0, 0, 0]	n/a	catFR1	2	R1401J
2236.796	1.563	2263953	REC_WORD_VV	19.397	n/a	<>	n/a	-999	9	[0, 0, 0]	n/a	catFR1	2	R1401J
2238.359	9.239	2265515	REC_WORD	20.96	n/a	SKIRT	Clothing	-999	9	[0, 0, 0]	n/a	catFR1	2	R1401J
2247.598	2.118	2274752	REC_END	n/a	n/a	n/a	n/a	-999	9	[0, 0, 0]	n/a	catFR1	2	R1401J
2249.716	10.0	2276874	COUNTDOWN_START	n/a	n/a	n/a	n/a	-999	10	[0, 0, 0]	n/a	catFR1	2	R1401J
2260.079	0.0	2287236	COUNTDOWN_END	n/a	n/a	n/a	n/a	-999	10	[0, 0, 0]	n/a	catFR1	2	R1401J
2260.079	2.069	2287236	ENCODING_START	n/a	n/a	n/a	n/a	-999	10	[0, 0, 0]	n/a	catFR1	2	R1401J
2262.148	1.6	2289297	WORD	n/a	wordpools/wordpool_categorized_EN.txt	COBBLER	Desserts	1	10	[0, 0, 0]	n/a	catFR1	2	R1401J
2263.765	0.9	2290914	WORD_OFF	n/a	n/a	COBBLER	Desserts	1	10	[0, 0, 0]	n/a	catFR1	2	R1401J
2264.665	1.6	2291815	WORD	n/a	wordpools/wordpool_categorized_EN.txt	BROWNIES	Desserts	2	10	[0, 0, 0]	n/a	catFR1	2	R1401J
2266.265	0.866	2293417	WORD_OFF	n/a	n/a	BROWNIES	Desserts	2	10	[0, 0, 0]	n/a	catFR1	2	R1401J
2267.131	1.6	2294287	WORD	n/a	wordpools/wordpool_categorized_EN.txt	CAR	Vehicles	3	10	[0, 0, 0]	n/a	catFR1	2	R1401J
2268.748	0.767	2295905	WORD_OFF	n/a	n/a	CAR	Vehicles	3	10	[0, 0, 0]	n/a	catFR1	2	R1401J
2269.515	1.6	2296668	WORD	n/a	wordpools/wordpool_categorized_EN.txt	TRUCK	Vehicles	4	10	[0, 0, 0]	n/a	catFR1	2	R1401J
2271.131	0.784	2298286	WORD_OFF	n/a	n/a	TRUCK	Vehicles	4	10	[0, 0, 0]	n/a	catFR1	2	R1401J
2271.915	1.6	2299064	WORD	n/a	wordpools/wordpool_categorized_EN.txt	ELM	Trees	5	10	[0, 0, 0]	n/a	catFR1	2	R1401J
2273.531	0.901	2300682	WORD_OFF	n/a	n/a	ELM	Trees	5	10	[0, 0, 0]	n/a	catFR1	2	R1401J
2274.432	1.6	2301582	WORD	n/a	wordpools/wordpool_categorized_EN.txt	CEDAR	Trees	6	10	[0, 0, 0]	n/a	catFR1	2	R1401J
2276.048	0.868	2303200	WORD_OFF	n/a	n/a	CEDAR	Trees	6	10	[0, 0, 0]	n/a	catFR1	2	R1401J
2276.916	1.6	2304070	WORD	n/a	wordpools/wordpool_categorized_EN.txt	JEEP	Vehicles	7	10	[0, 0, 0]	n/a	catFR1	2	R1401J
2278.531	0.852	2305687	WORD_OFF	n/a	n/a	JEEP	Vehicles	7	10	[0, 0, 0]	n/a	catFR1	2	R1401J
2279.383	1.6	2306542	WORD	n/a	wordpools/wordpool_categorized_EN.txt	BUS	Vehicles	8	10	[0, 0, 0]	n/a	catFR1	2	R1401J
2280.998	0.783	2308160	WORD_OFF	n/a	n/a	BUS	Vehicles	8	10	[0, 0, 0]	n/a	catFR1	2	R1401J
2281.781	1.6	2308938	WORD	n/a	wordpools/wordpool_categorized_EN.txt	FUDGE	Desserts	9	10	[0, 0, 0]	n/a	catFR1	2	R1401J
2283.382	0.916	2310541	WORD_OFF	n/a	n/a	FUDGE	Desserts	9	10	[0, 0, 0]	n/a	catFR1	2	R1401J
2284.298	1.6	2311456	WORD	n/a	wordpools/wordpool_categorized_EN.txt	CHEESECAKE	Desserts	10	10	[0, 0, 0]	n/a	catFR1	2	R1401J
2285.899	0.916	2313059	WORD_OFF	n/a	n/a	CHEESECAKE	Desserts	10	10	[0, 0, 0]	n/a	catFR1	2	R1401J
2286.815	1.6	2313974	WORD	n/a	wordpools/wordpool_categorized_EN.txt	EVERGREEN	Trees	11	10	[0, 0, 0]	n/a	catFR1	2	R1401J
2288.416	0.999	2315577	WORD_OFF	n/a	n/a	EVERGREEN	Trees	11	10	[0, 0, 0]	n/a	catFR1	2	R1401J
2289.415	1.6	2316569	WORD	n/a	wordpools/wordpool_categorized_EN.txt	SPRUCE	Trees	12	10	[0, 0, 0]	n/a	catFR1	2	R1401J
2291.032	0.002	2318187	WORD_OFF	n/a	n/a	SPRUCE	Trees	12	10	[0, 0, 0]	n/a	catFR1	2	R1401J
2291.034	0.0	2318187	ENCODING_END	n/a	n/a	n/a	n/a	-999	10	[0, 0, 0]	n/a	catFR1	2	R1401J
2291.034	0.0	2318187	DISTRACT_START	n/a	n/a	n/a	n/a	-999	10	[0, 0, 0]	n/a	catFR1	2	R1401J
2291.033	0.001	2318187	PROB	7.483	n/a	n/a	n/a	-999	10	[1, 4, 6]	11.0	catFR1	2	R1401J
2291.034	7.499	2318188	START	n/a	n/a	n/a	n/a	-999	10	[-999, -999, -999]	n/a	catFR1	2	R1401J
2298.533	10.848	2325687	PROB	10.832	n/a	n/a	n/a	-999	10	[2, 3, 7]	12.0	catFR1	2	R1401J
2309.381	8.934	2336535	PROB	8.917	n/a	n/a	n/a	-999	10	[1, 8, 3]	12.0	catFR1	2	R1401J
2318.315	0.0	2345468	STOP	n/a	n/a	n/a	n/a	-999	10	[-999, -999, -999]	n/a	catFR1	2	R1401J
2318.315	2.217	2345474	DISTRACT_END	n/a	n/a	n/a	n/a	-999	10	[0, 0, 0]	n/a	catFR1	2	R1401J
2320.532	1.529	2347680	REC_START	n/a	n/a	n/a	n/a	-999	10	[0, 0, 0]	n/a	catFR1	2	R1401J
2322.061	1.171	2349214	REC_WORD	1.529	n/a	ELM	Trees	5	10	[0, 0, 0]	n/a	catFR1	2	R1401J
2323.232	0.667	2350385	REC_WORD	2.7	n/a	HICKORY	n/a	-999	10	[0, 0, 0]	n/a	catFR1	2	R1401J
2323.899	1.0	2351052	REC_WORD	3.367	n/a	SPRUCE	Trees	12	10	[0, 0, 0]	n/a	catFR1	2	R1401J
2324.899	0.882	2352052	REC_WORD_VV	4.367	n/a	<>	n/a	-999	10	[0, 0, 0]	n/a	catFR1	2	R1401J
2325.781	5.162	2352934	REC_WORD	5.249	n/a	EVERGREEN	Trees	11	10	[0, 0, 0]	n/a	catFR1	2	R1401J
2330.943	4.168	2358096	REC_WORD	10.411	n/a	COBBLER	Desserts	1	10	[0, 0, 0]	n/a	catFR1	2	R1401J
2335.111	2.847	2362264	REC_WORD	14.579	n/a	BROWNIES	Desserts	2	10	[0, 0, 0]	n/a	catFR1	2	R1401J
2337.958	8.841	2365110	REC_WORD	17.426	n/a	FUDGE	Desserts	9	10	[0, 0, 0]	n/a	catFR1	2	R1401J
2346.799	3.928	2373951	REC_WORD	26.267	n/a	CUPCAKE	Desserts	-999	10	[0, 0, 0]	n/a	catFR1	2	R1401J
2350.727	1.989	2377874	REC_END	n/a	n/a	n/a	n/a	-999	10	[0, 0, 0]	n/a	catFR1	2	R1401J
2352.716	10.0	2379874	COUNTDOWN_START	n/a	n/a	n/a	n/a	-999	11	[0, 0, 0]	n/a	catFR1	2	R1401J
2363.077	0.0	2390236	COUNTDOWN_END	n/a	n/a	n/a	n/a	-999	11	[0, 0, 0]	n/a	catFR1	2	R1401J
2363.077	2.138	2390236	ENCODING_START	n/a	n/a	n/a	n/a	-999	11	[0, 0, 0]	n/a	catFR1	2	R1401J
2365.215	1.6	2392373	WORD	n/a	wordpools/wordpool_categorized_EN.txt	SILK	Fabric	1	11	[0, 0, 0]	n/a	catFR1	2	R1401J
2366.831	0.917	2393975	WORD_OFF	n/a	n/a	SILK	Fabric	1	11	[0, 0, 0]	n/a	catFR1	2	R1401J
2367.748	1.6	2394906	WORD	n/a	wordpools/wordpool_categorized_EN.txt	VELVET	Fabric	2	11	[0, 0, 0]	n/a	catFR1	2	R1401J
2369.365	0.85	2396524	WORD_OFF	n/a	n/a	VELVET	Fabric	2	11	[0, 0, 0]	n/a	catFR1	2	R1401J
2370.215	1.6	2397363	WORD	n/a	wordpools/wordpool_categorized_EN.txt	BANANA	Fruit	3	11	[0, 0, 0]	n/a	catFR1	2	R1401J
2371.815	0.884	2398966	WORD_OFF	n/a	n/a	BANANA	Fruit	3	11	[0, 0, 0]	n/a	catFR1	2	R1401J
2372.699	1.6	2399851	WORD	n/a	wordpools/wordpool_categorized_EN.txt	PEAR	Fruit	4	11	[0, 0, 0]	n/a	catFR1	2	R1401J
2374.299	0.933	2401453	WORD_OFF	n/a	n/a	PEAR	Fruit	4	11	[0, 0, 0]	n/a	catFR1	2	R1401J
2375.232	1.6	2402384	WORD	n/a	wordpools/wordpool_categorized_EN.txt	PINE	Trees	5	11	[0, 0, 0]	n/a	catFR1	2	R1401J
2376.833	0.899	2403987	WORD_OFF	n/a	n/a	PINE	Trees	5	11	[0, 0, 0]	n/a	catFR1	2	R1401J
2377.732	1.6	2404887	WORD	n/a	wordpools/wordpool_categorized_EN.txt	HICKORY	Trees	6	11	[0, 0, 0]	n/a	catFR1	2	R1401J
2379.332	1.0	2406490	WORD_OFF	n/a	n/a	HICKORY	Trees	6	11	[0, 0, 0]	n/a	catFR1	2	R1401J
2380.332	1.6	2407482	WORD	n/a	wordpools/wordpool_categorized_EN.txt	LINEN	Fabric	7	11	[0, 0, 0]	n/a	catFR1	2	R1401J
2381.949	0.983	2409100	WORD_OFF	n/a	n/a	LINEN	Fabric	7	11	[0, 0, 0]	n/a	catFR1	2	R1401J
2382.932	1.6	2410076	WORD	n/a	wordpools/wordpool_categorized_EN.txt	SATIN	Fabric	8	11	[0, 0, 0]	n/a	catFR1	2	R1401J
2384.532	0.9	2411679	WORD_OFF	n/a	n/a	SATIN	Fabric	8	11	[0, 0, 0]	n/a	catFR1	2	R1401J
2385.432	1.6	2412579	WORD	n/a	wordpools/wordpool_categorized_EN.txt	LEMON	Fruit	9	11	[0, 0, 0]	n/a	catFR1	2	R1401J
2387.032	0.784	2414182	WORD_OFF	n/a	n/a	LEMON	Fruit	9	11	[0, 0, 0]	n/a	catFR1	2	R1401J
2387.816	1.6	2414960	WORD	n/a	wordpools/wordpool_categorized_EN.txt	PLUM	Fruit	10	11	[0, 0, 0]	n/a	catFR1	2	R1401J
2389.431	0.935	2416593	WORD_OFF	n/a	n/a	PLUM	Fruit	10	11	[0, 0, 0]	n/a	catFR1	2	R1401J
2390.366	1.6	2417509	WORD	n/a	wordpools/wordpool_categorized_EN.txt	OAK	Trees	11	11	[0, 0, 0]	n/a	catFR1	2	R1401J
2391.966	0.766	2419111	WORD_OFF	n/a	n/a	OAK	Trees	11	11	[0, 0, 0]	n/a	catFR1	2	R1401J
2392.732	1.6	2419889	WORD	n/a	wordpools/wordpool_categorized_EN.txt	WALNUT	Trees	12	11	[0, 0, 0]	n/a	catFR1	2	R1401J
2394.332	0.001	2421477	WORD_OFF	n/a	n/a	WALNUT	Trees	12	11	[0, 0, 0]	n/a	catFR1	2	R1401J
2394.333	0.001	2421483	PROB	11.95	n/a	n/a	n/a	-999	11	[8, 6, 7]	21.0	catFR1	2	R1401J
2394.334	0.0	2421484	START	n/a	n/a	n/a	n/a	-999	11	[-999, -999, -999]	n/a	catFR1	2	R1401J
2394.334	0.0	2421492	ENCODING_END	n/a	n/a	n/a	n/a	-999	11	[0, 0, 0]	n/a	catFR1	2	R1401J
2394.334	11.966	2421492	DISTRACT_START	n/a	n/a	n/a	n/a	-999	11	[0, 0, 0]	n/a	catFR1	2	R1401J
2406.3	42.532	2433450	PROB	42.515	n/a	n/a	n/a	-999	11	[6, 1, 8]	15.0	catFR1	2	R1401J
2448.832	0.0	2475976	DISTRACT_END	n/a	n/a	n/a	n/a	-999	11	[0, 0, 0]	n/a	catFR1	2	R1401J
2448.832	2.166	2475980	STOP	n/a	n/a	n/a	n/a	-999	11	[-999, -999, -999]	n/a	catFR1	2	R1401J
2450.998	6.509	2478151	REC_START	n/a	n/a	n/a	n/a	-999	11	[0, 0, 0]	n/a	catFR1	2	R1401J
2457.507	2.729	2484655	REC_WORD_VV	6.509	n/a	<>	n/a	-999	11	[0, 0, 0]	n/a	catFR1	2	R1401J
2460.236	5.522	2487384	REC_WORD_VV	9.238	n/a	<>	n/a	-999	11	[0, 0, 0]	n/a	catFR1	2	R1401J
2465.758	1.233	2492905	REC_WORD	14.76	n/a	SPRUCE	Trees	-999	11	[0, 0, 0]	n/a	catFR1	2	R1401J
2466.991	9.652	2494138	REC_WORD	15.993	n/a	HICKORY	Trees	6	11	[0, 0, 0]	n/a	catFR1	2	R1401J
2476.643	4.539	2503790	REC_WORD	25.645	n/a	BANANA	Fruit	3	11	[0, 0, 0]	n/a	catFR1	2	R1401J
2481.182	2.4	2508330	REC_END	n/a	n/a	n/a	n/a	-999	11	[0, 0, 0]	n/a	catFR1	2	R1401J
2483.582	10.0	2510726	COUNTDOWN_START	n/a	n/a	n/a	n/a	-999	12	[0, 0, 0]	n/a	catFR1	2	R1401J
2493.943	0.0	2521089	COUNTDOWN_END	n/a	n/a	n/a	n/a	-999	12	[0, 0, 0]	n/a	catFR1	2	R1401J
2493.943	1.939	2521089	ENCODING_START	n/a	n/a	n/a	n/a	-999	12	[0, 0, 0]	n/a	catFR1	2	R1401J
2495.882	1.6	2523027	WORD	n/a	wordpools/wordpool_categorized_EN.txt	LETTUCE	Vegetables	1	12	[0, 0, 0]	n/a	catFR1	2	R1401J
2497.499	1.0	2524644	WORD_OFF	n/a	n/a	LETTUCE	Vegetables	1	12	[0, 0, 0]	n/a	catFR1	2	R1401J
2498.499	1.6	2525652	WORD	n/a	wordpools/wordpool_categorized_EN.txt	CABBAGE	Vegetables	2	12	[0, 0, 0]	n/a	catFR1	2	R1401J
2500.116	1.0	2527254	WORD_OFF	n/a	n/a	CABBAGE	Vegetables	2	12	[0, 0, 0]	n/a	catFR1	2	R1401J
2501.116	1.6	2528261	WORD	n/a	wordpools/wordpool_categorized_EN.txt	FLEECE	Fabric	3	12	[0, 0, 0]	n/a	catFR1	2	R1401J
2502.716	0.95	2529864	WORD_OFF	n/a	n/a	FLEECE	Fabric	3	12	[0, 0, 0]	n/a	catFR1	2	R1401J
2503.666	1.6	2530810	WORD	n/a	wordpools/wordpool_categorized_EN.txt	SUEDE	Fabric	4	12	[0, 0, 0]	n/a	catFR1	2	R1401J
2505.282	0.783	2532428	WORD_OFF	n/a	n/a	SUEDE	Fabric	4	12	[0, 0, 0]	n/a	catFR1	2	R1401J
2506.065	1.6	2533206	WORD	n/a	wordpools/wordpool_categorized_EN.txt	STRAWBERRY	Fruit	5	12	[0, 0, 0]	n/a	catFR1	2	R1401J
2507.666	0.915	2534809	WORD_OFF	n/a	n/a	STRAWBERRY	Fruit	5	12	[0, 0, 0]	n/a	catFR1	2	R1401J
2508.581	1.6	2535724	WORD	n/a	wordpools/wordpool_categorized_EN.txt	LIME	Fruit	6	12	[0, 0, 0]	n/a	catFR1	2	R1401J
2510.181	1.001	2537327	WORD_OFF	n/a	n/a	LIME	Fruit	6	12	[0, 0, 0]	n/a	catFR1	2	R1401J
2511.182	1.6	2538334	WORD	n/a	wordpools/wordpool_categorized_EN.txt	COTTON	Fabric	7	12	[0, 0, 0]	n/a	catFR1	2	R1401J
2512.782	0.967	2539921	WORD_OFF	n/a	n/a	COTTON	Fabric	7	12	[0, 0, 0]	n/a	catFR1	2	R1401J
2513.749	1.6	2540898	WORD	n/a	wordpools/wordpool_categorized_EN.txt	WOOL	Fabric	8	12	[0, 0, 0]	n/a	catFR1	2	R1401J
2515.349	0.8	2542500	WORD_OFF	n/a	n/a	WOOL	Fabric	8	12	[0, 0, 0]	n/a	catFR1	2	R1401J
2516.149	1.6	2543294	WORD	n/a	wordpools/wordpool_categorized_EN.txt	CHERRY	Fruit	9	12	[0, 0, 0]	n/a	catFR1	2	R1401J
2517.766	0.916	2544912	WORD_OFF	n/a	n/a	CHERRY	Fruit	9	12	[0, 0, 0]	n/a	catFR1	2	R1401J
2518.682	1.6	2545828	WORD	n/a	wordpools/wordpool_categorized_EN.txt	APPLE	Fruit	10	12	[0, 0, 0]	n/a	catFR1	2	R1401J
2520.299	0.883	2547445	WORD_OFF	n/a	n/a	APPLE	Fruit	10	12	[0, 0, 0]	n/a	catFR1	2	R1401J
2521.182	1.6	2548330	WORD	n/a	wordpools/wordpool_categorized_EN.txt	SPINACH	Vegetables	11	12	[0, 0, 0]	n/a	catFR1	2	R1401J
2522.782	0.833	2549933	WORD_OFF	n/a	n/a	SPINACH	Vegetables	11	12	[0, 0, 0]	n/a	catFR1	2	R1401J
2523.615	1.6	2550757	WORD	n/a	wordpools/wordpool_categorized_EN.txt	CARROT	Vegetables	12	12	[0, 0, 0]	n/a	catFR1	2	R1401J
2525.232	0.001	2552375	WORD_OFF	n/a	n/a	CARROT	Vegetables	12	12	[0, 0, 0]	n/a	catFR1	2	R1401J
2525.233	0.0	2552375	ENCODING_END	n/a	n/a	n/a	n/a	-999	12	[0, 0, 0]	n/a	catFR1	2	R1401J
2525.233	0.0	2552375	DISTRACT_START	n/a	n/a	n/a	n/a	-999	12	[0, 0, 0]	n/a	catFR1	2	R1401J
2525.233	0.0	2552378	START	n/a	n/a	n/a	n/a	-999	12	[-999, -999, -999]	n/a	catFR1	2	R1401J
2525.233	13.615	2552378	PROB	13.599	n/a	n/a	n/a	-999	12	[4, 2, 3]	9.0	catFR1	2	R1401J
2538.848	12.684	2565992	PROB	12.666	n/a	n/a	n/a	-999	12	[2, 3, 7]	12.0	catFR1	2	R1401J
2551.532	0.0	2578670	DISTRACT_END	n/a	n/a	n/a	n/a	-999	12	[0, 0, 0]	n/a	catFR1	2	R1401J
2551.532	2.399	2578676	STOP	n/a	n/a	n/a	n/a	-999	12	[-999, -999, -999]	n/a	catFR1	2	R1401J
2553.931	1.287	2581074	REC_START	n/a	n/a	n/a	n/a	-999	12	[0, 0, 0]	n/a	catFR1	2	R1401J
2555.218	0.742	2582362	REC_WORD	1.287	n/a	LETTUCE	Vegetables	1	12	[0, 0, 0]	n/a	catFR1	2	R1401J
2555.96	1.0	2583104	REC_WORD	2.029	n/a	CABBAGE	Vegetables	2	12	[0, 0, 0]	n/a	catFR1	2	R1401J
2556.96	4.527	2584104	REC_WORD_VV	3.029	n/a	<>	n/a	-999	12	[0, 0, 0]	n/a	catFR1	2	R1401J
2561.487	0.507	2588630	REC_WORD	7.556	n/a	LETTUCE	Vegetables	1	12	[0, 0, 0]	n/a	catFR1	2	R1401J
2561.994	18.113	2589137	REC_WORD	8.063	n/a	CABBAGE	Vegetables	2	12	[0, 0, 0]	n/a	catFR1	2	R1401J
2580.107	1.966	2607250	REC_WORD_VV	26.176	n/a	<>	n/a	-999	12	[0, 0, 0]	n/a	catFR1	2	R1401J
2582.073	1.0	2609216	REC_WORD_VV	28.142	n/a	<>	n/a	-999	12	[0, 0, 0]	n/a	catFR1	2	R1401J
2583.073	1.043	2610216	REC_WORD_VV	29.142	n/a	<>	n/a	-999	12	[0, 0, 0]	n/a	catFR1	2	R1401J
2584.116	0.0	2611254	REC_END	n/a	n/a	n/a	n/a	-999	12	[0, 0, 0]	n/a	catFR1	2	R1401J
