onset	duration	sample	trial_type	response_time	stim_file	item_name	category	serialpos	list	test	answer	experiment	session	subject
0.0	57.267	662808	INSTRUCT_START	n/a	n/a	n/a	n/a	-999	-999	[0, 0, 0]	n/a	catFR1	4	R1626S
57.267	30.815	720067	INSTRUCT_END	n/a	n/a	n/a	n/a	-999	-999	[0, 0, 0]	n/a	catFR1	4	R1626S
88.082	10.35	750886	COUNTDOWN_START	n/a	n/a	n/a	n/a	-999	-999	[0, 0, 0]	n/a	catFR1	4	R1626S
98.432	0.0	761235	COUNTDOWN_END	n/a	n/a	n/a	n/a	-999	-999	[0, 0, 0]	n/a	catFR1	4	R1626S
98.432	2.217	761235	ENCODING_START	n/a	n/a	n/a	n/a	-999	-1	[0, 0, 0]	n/a	catFR1	4	R1626S
100.649	1.616	763448	WORD	n/a	n/a	CUCUMBER	Vegetables	1	-1	[0, 0, 0]	n/a	catFR1	4	R1626S
102.265	0.934	765070	WORD_OFF	n/a	n/a	CUCUMBER	Vegetables	1	-1	[0, 0, 0]	n/a	catFR1	4	R1626S
103.199	1.616	766004	WORD	n/a	n/a	BROCCOLI	Vegetables	2	-1	[0, 0, 0]	n/a	catFR1	4	R1626S
104.815	0.949	767616	WORD_OFF	n/a	n/a	BROCCOLI	Vegetables	2	-1	[0, 0, 0]	n/a	catFR1	4	R1626S
105.764	1.601	768570	WORD	n/a	n/a	STREAM	Landscapes	3	-1	[0, 0, 0]	n/a	catFR1	4	R1626S
107.365	0.801	770163	WORD_OFF	n/a	n/a	STREAM	Landscapes	3	-1	[0, 0, 0]	n/a	catFR1	4	R1626S
108.166	1.599	770964	WORD	n/a	n/a	RIVER	Landscapes	4	-1	[0, 0, 0]	n/a	catFR1	4	R1626S
109.765	0.817	772567	WORD_OFF	n/a	n/a	RIVER	Landscapes	4	-1	[0, 0, 0]	n/a	catFR1	4	R1626S
110.582	1.617	773387	WORD	n/a	n/a	BROWNIES	Desserts	5	-1	[0, 0, 0]	n/a	catFR1	4	R1626S
112.199	1.0	774999	WORD_OFF	n/a	n/a	BROWNIES	Desserts	5	-1	[0, 0, 0]	n/a	catFR1	4	R1626S
113.199	1.616	776001	WORD	n/a	n/a	FUDGE	Desserts	6	-1	[0, 0, 0]	n/a	catFR1	4	R1626S
114.815	0.884	777622	WORD_OFF	n/a	n/a	FUDGE	Desserts	6	-1	[0, 0, 0]	n/a	catFR1	4	R1626S
115.699	1.616	778509	WORD	n/a	n/a	CELERY	Vegetables	7	-1	[0, 0, 0]	n/a	catFR1	4	R1626S
117.315	0.968	780121	WORD_OFF	n/a	n/a	CELERY	Vegetables	7	-1	[0, 0, 0]	n/a	catFR1	4	R1626S
118.283	1.599	781085	WORD	n/a	n/a	POTATO	Vegetables	8	-1	[0, 0, 0]	n/a	catFR1	4	R1626S
119.882	1.0	782687	WORD_OFF	n/a	n/a	POTATO	Vegetables	8	-1	[0, 0, 0]	n/a	catFR1	4	R1626S
120.882	1.6	783689	WORD	n/a	n/a	COOKIE	Desserts	9	-1	[0, 0, 0]	n/a	catFR1	4	R1626S
122.482	0.983	785281	WORD_OFF	n/a	n/a	COOKIE	Desserts	9	-1	[0, 0, 0]	n/a	catFR1	4	R1626S
123.465	1.617	786264	WORD	n/a	n/a	PUDDING	Desserts	10	-1	[0, 0, 0]	n/a	catFR1	4	R1626S
125.082	0.983	787885	WORD_OFF	n/a	n/a	PUDDING	Desserts	10	-1	[0, 0, 0]	n/a	catFR1	4	R1626S
126.065	1.617	788868	WORD	n/a	n/a	LAKE	Landscapes	11	-1	[0, 0, 0]	n/a	catFR1	4	R1626S
127.682	0.767	790480	WORD_OFF	n/a	n/a	LAKE	Landscapes	11	-1	[0, 0, 0]	n/a	catFR1	4	R1626S
128.449	1.6	791253	WORD	n/a	n/a	FOREST	Landscapes	12	-1	[0, 0, 0]	n/a	catFR1	4	R1626S
130.049	0.001	792845	WORD_OFF	n/a	n/a	FOREST	Landscapes	12	-1	[0, 0, 0]	n/a	catFR1	4	R1626S
130.05	0.0	792849	START	n/a	n/a	n/a	n/a	-999	-1	[-999, -999, -999]	n/a	catFR1	4	R1626S
130.05	0.0	792849	PROB	0.0	n/a	n/a	n/a	-999	-1	[5, 3, 5]	13	catFR1	4	R1626S
130.05	0.0	792855	ENCODING_END	n/a	n/a	n/a	n/a	-999	-1	[0, 0, 0]	n/a	catFR1	4	R1626S
130.05	7.181	792855	DISTRACT_START	n/a	n/a	n/a	n/a	-999	-1	[0, 0, 0]	n/a	catFR1	4	R1626S
137.231	7.768	800029	PROB	7.768	n/a	n/a	n/a	-999	-1	[8, 6, 8]	22	catFR1	4	R1626S
144.999	5.849	807797	PROB	5.849	n/a	n/a	n/a	-999	-1	[1, 7, 8]	16	catFR1	4	R1626S
150.848	0.0	813646	STOP	n/a	n/a	n/a	n/a	-999	-1	[-999, -999, -999]	n/a	catFR1	4	R1626S
150.848	2.284	813649	DISTRACT_END	n/a	n/a	n/a	n/a	-999	-1	[0, 0, 0]	n/a	catFR1	4	R1626S
153.132	2.68	815929	REC_START	n/a	n/a	n/a	n/a	-999	-1	[0, 0, 0]	n/a	catFR1	4	R1626S
155.812	4.881	818610	REC_WORD	4.881	n/a	CUCUMBER	Vegetables	1	-1	[0, 0, 0]	n/a	catFR1	4	R1626S
160.693	2.988	823490	REC_WORD	2.988	n/a	BROCCOLI	Vegetables	2	-1	[0, 0, 0]	n/a	catFR1	4	R1626S
163.681	2.713	826478	REC_WORD	2.713	n/a	RIVER	Landscapes	4	-1	[0, 0, 0]	n/a	catFR1	4	R1626S
166.394	3.703	829191	REC_WORD	3.703	n/a	LAKE	Landscapes	11	-1	[0, 0, 0]	n/a	catFR1	4	R1626S
170.097	2.56	832894	REC_WORD	2.56	n/a	BROWNIES	Desserts	5	-1	[0, 0, 0]	n/a	catFR1	4	R1626S
172.657	10.677	835454	REC_WORD	10.677	n/a	FUDGE	Desserts	6	-1	[0, 0, 0]	n/a	catFR1	4	R1626S
183.334	16.88	846137	REC_END	n/a	n/a	n/a	n/a	-999	-1	[0, 0, 0]	n/a	catFR1	4	R1626S
200.214	10.351	863020	COUNTDOWN_START	n/a	n/a	n/a	n/a	-999	1	[0, 0, 0]	n/a	catFR1	4	R1626S
210.565	0.0	873360	COUNTDOWN_END	n/a	n/a	n/a	n/a	-999	1	[0, 0, 0]	n/a	catFR1	4	R1626S
210.565	1.933	873360	ENCODING_START	n/a	n/a	n/a	n/a	-999	1	[0, 0, 0]	n/a	catFR1	4	R1626S
212.498	1.617	875296	WORD	n/a	wordpools/wordpool_categorized_EN.txt	PLIERS	Tools	1	1	[0, 0, 0]	n/a	catFR1	4	R1626S
214.115	0.95	876908	WORD_OFF	n/a	n/a	PLIERS	Tools	1	1	[0, 0, 0]	n/a	catFR1	4	R1626S
215.065	1.6	877862	WORD	n/a	wordpools/wordpool_categorized_EN.txt	LEVEL	Tools	2	1	[0, 0, 0]	n/a	catFR1	4	R1626S
216.665	0.767	879464	WORD_OFF	n/a	n/a	LEVEL	Tools	2	1	[0, 0, 0]	n/a	catFR1	4	R1626S
217.432	1.616	880227	WORD	n/a	wordpools/wordpool_categorized_EN.txt	LEG	BodyParts	3	1	[0, 0, 0]	n/a	catFR1	4	R1626S
219.048	0.983	881849	WORD_OFF	n/a	n/a	LEG	BodyParts	3	1	[0, 0, 0]	n/a	catFR1	4	R1626S
220.031	1.601	882831	WORD	n/a	wordpools/wordpool_categorized_EN.txt	FOOT	BodyParts	4	1	[0, 0, 0]	n/a	catFR1	4	R1626S
221.632	0.766	884424	WORD_OFF	n/a	n/a	FOOT	BodyParts	4	1	[0, 0, 0]	n/a	catFR1	4	R1626S
222.398	1.6	885197	WORD	n/a	wordpools/wordpool_categorized_EN.txt	BUS	Vehicles	5	1	[0, 0, 0]	n/a	catFR1	4	R1626S
223.998	0.866	886799	WORD_OFF	n/a	n/a	BUS	Vehicles	5	1	[0, 0, 0]	n/a	catFR1	4	R1626S
224.864	1.602	887658	WORD	n/a	wordpools/wordpool_categorized_EN.txt	PLANE	Vehicles	6	1	[0, 0, 0]	n/a	catFR1	4	R1626S
226.466	0.816	889260	WORD_OFF	n/a	n/a	PLANE	Vehicles	6	1	[0, 0, 0]	n/a	catFR1	4	R1626S
227.282	1.6	890081	WORD	n/a	wordpools/wordpool_categorized_EN.txt	ARM	BodyParts	7	1	[0, 0, 0]	n/a	catFR1	4	R1626S
228.882	0.848	891683	WORD_OFF	n/a	n/a	ARM	BodyParts	7	1	[0, 0, 0]	n/a	catFR1	4	R1626S
229.73	1.601	892532	WORD	n/a	wordpools/wordpool_categorized_EN.txt	TOE	BodyParts	8	1	[0, 0, 0]	n/a	catFR1	4	R1626S
231.331	0.9	894125	WORD_OFF	n/a	n/a	TOE	BodyParts	8	1	[0, 0, 0]	n/a	catFR1	4	R1626S
232.231	1.601	895031	WORD	n/a	wordpools/wordpool_categorized_EN.txt	AXE	Tools	9	1	[0, 0, 0]	n/a	catFR1	4	R1626S
233.832	0.966	896624	WORD_OFF	n/a	n/a	AXE	Tools	9	1	[0, 0, 0]	n/a	catFR1	4	R1626S
234.798	1.617	897597	WORD	n/a	wordpools/wordpool_categorized_EN.txt	CROWBAR	Tools	10	1	[0, 0, 0]	n/a	catFR1	4	R1626S
236.415	0.767	899209	WORD_OFF	n/a	n/a	CROWBAR	Tools	10	1	[0, 0, 0]	n/a	catFR1	4	R1626S
237.182	1.616	899981	WORD	n/a	wordpools/wordpool_categorized_EN.txt	SCOOTER	Vehicles	11	1	[0, 0, 0]	n/a	catFR1	4	R1626S
238.798	0.784	901593	WORD_OFF	n/a	n/a	SCOOTER	Vehicles	11	1	[0, 0, 0]	n/a	catFR1	4	R1626S
239.582	1.601	902376	WORD	n/a	wordpools/wordpool_categorized_EN.txt	MOTORCYCLE	Vehicles	12	1	[0, 0, 0]	n/a	catFR1	4	R1626S
241.183	0.0	903977	START	n/a	n/a	n/a	n/a	-999	1	[-999, -999, -999]	n/a	catFR1	4	R1626S
241.183	0.0	903977	PROB	0.0	n/a	n/a	n/a	-999	1	[7, 1, 6]	14	catFR1	4	R1626S
241.182	0.001	903978	WORD_OFF	n/a	n/a	MOTORCYCLE	Vehicles	12	1	[0, 0, 0]	n/a	catFR1	4	R1626S
241.183	0.0	903978	ENCODING_END	n/a	n/a	n/a	n/a	-999	1	[0, 0, 0]	n/a	catFR1	4	R1626S
241.183	7.815	903978	DISTRACT_START	n/a	n/a	n/a	n/a	-999	1	[0, 0, 0]	n/a	catFR1	4	R1626S
248.998	7.418	911791	PROB	7.418	n/a	n/a	n/a	-999	1	[7, 5, 3]	15	catFR1	4	R1626S
256.416	7.149	919209	PROB	7.149	n/a	n/a	n/a	-999	1	[4, 4, 7]	15	catFR1	4	R1626S
263.565	0.0	926358	STOP	n/a	n/a	n/a	n/a	-999	1	[-999, -999, -999]	n/a	catFR1	4	R1626S
263.565	2.367	926365	DISTRACT_END	n/a	n/a	n/a	n/a	-999	1	[0, 0, 0]	n/a	catFR1	4	R1626S
265.932	2.132	928730	REC_START	n/a	n/a	n/a	n/a	-999	1	[0, 0, 0]	n/a	catFR1	4	R1626S
268.064	2.936	930856	REC_WORD	2.936	n/a	PLIERS	Tools	1	1	[0, 0, 0]	n/a	catFR1	4	R1626S
271.0	4.046	933792	REC_WORD	4.046	n/a	LEVEL	Tools	2	1	[0, 0, 0]	n/a	catFR1	4	R1626S
275.046	3.94	937838	REC_WORD	3.94	n/a	CROWBAR	Tools	10	1	[0, 0, 0]	n/a	catFR1	4	R1626S
278.986	2.201	941778	REC_WORD	2.201	n/a	PLANE	Vehicles	6	1	[0, 0, 0]	n/a	catFR1	4	R1626S
281.187	12.813	943979	REC_WORD	12.813	n/a	BUS	Vehicles	5	1	[0, 0, 0]	n/a	catFR1	4	R1626S
294.0	1.206	956791	REC_WORD	1.206	n/a	FOOT	BodyParts	4	1	[0, 0, 0]	n/a	catFR1	4	R1626S
295.206	0.899	957997	REC_WORD	0.899	n/a	LEG	BodyParts	3	1	[0, 0, 0]	n/a	catFR1	4	R1626S
296.105	2.927	958900	REC_END	n/a	n/a	n/a	n/a	-999	1	[0, 0, 0]	n/a	catFR1	4	R1626S
299.032	10.349	961829	COUNTDOWN_START	n/a	n/a	n/a	n/a	-999	2	[0, 0, 0]	n/a	catFR1	4	R1626S
309.381	0.0	972178	COUNTDOWN_END	n/a	n/a	n/a	n/a	-999	2	[0, 0, 0]	n/a	catFR1	4	R1626S
309.381	2.184	972178	ENCODING_START	n/a	n/a	n/a	n/a	-999	2	[0, 0, 0]	n/a	catFR1	4	R1626S
311.565	1.6	974362	WORD	n/a	wordpools/wordpool_categorized_EN.txt	PANTS	Clothing	1	2	[0, 0, 0]	n/a	catFR1	4	R1626S
313.165	0.899	975955	WORD_OFF	n/a	n/a	PANTS	Clothing	1	2	[0, 0, 0]	n/a	catFR1	4	R1626S
314.064	1.6	976861	WORD	n/a	wordpools/wordpool_categorized_EN.txt	COAT	Clothing	2	2	[0, 0, 0]	n/a	catFR1	4	R1626S
315.664	0.901	978454	WORD_OFF	n/a	n/a	COAT	Clothing	2	2	[0, 0, 0]	n/a	catFR1	4	R1626S
316.565	1.6	979360	WORD	n/a	wordpools/wordpool_categorized_EN.txt	OCTOPUS	OceanAnimals	3	2	[0, 0, 0]	n/a	catFR1	4	R1626S
318.165	0.782	980953	WORD_OFF	n/a	n/a	OCTOPUS	OceanAnimals	3	2	[0, 0, 0]	n/a	catFR1	4	R1626S
318.947	1.617	981736	WORD	n/a	wordpools/wordpool_categorized_EN.txt	FISH	OceanAnimals	4	2	[0, 0, 0]	n/a	catFR1	4	R1626S
320.564	0.917	983357	WORD_OFF	n/a	n/a	FISH	OceanAnimals	4	2	[0, 0, 0]	n/a	catFR1	4	R1626S
321.481	1.601	984273	WORD	n/a	wordpools/wordpool_categorized_EN.txt	MOTH	Insects	5	2	[0, 0, 0]	n/a	catFR1	4	R1626S
323.082	0.916	985875	WORD_OFF	n/a	n/a	MOTH	Insects	5	2	[0, 0, 0]	n/a	catFR1	4	R1626S
323.998	1.6	986791	WORD	n/a	wordpools/wordpool_categorized_EN.txt	GNAT	Insects	6	2	[0, 0, 0]	n/a	catFR1	4	R1626S
325.598	0.917	988393	WORD_OFF	n/a	n/a	GNAT	Insects	6	2	[0, 0, 0]	n/a	catFR1	4	R1626S
326.515	1.617	989309	WORD	n/a	wordpools/wordpool_categorized_EN.txt	PLANKTON	OceanAnimals	7	2	[0, 0, 0]	n/a	catFR1	4	R1626S
328.132	0.983	990921	WORD_OFF	n/a	n/a	PLANKTON	OceanAnimals	7	2	[0, 0, 0]	n/a	catFR1	4	R1626S
329.115	1.6	991904	WORD	n/a	wordpools/wordpool_categorized_EN.txt	TURTLE	OceanAnimals	8	2	[0, 0, 0]	n/a	catFR1	4	R1626S
330.715	0.917	993506	WORD_OFF	n/a	n/a	TURTLE	OceanAnimals	8	2	[0, 0, 0]	n/a	catFR1	4	R1626S
331.632	1.616	994422	WORD	n/a	wordpools/wordpool_categorized_EN.txt	LADYBUG	Insects	9	2	[0, 0, 0]	n/a	catFR1	4	R1626S
333.248	0.983	996043	WORD_OFF	n/a	n/a	LADYBUG	Insects	9	2	[0, 0, 0]	n/a	catFR1	4	R1626S
334.231	1.601	997026	WORD	n/a	wordpools/wordpool_categorized_EN.txt	BUTTERFLY	Insects	10	2	[0, 0, 0]	n/a	catFR1	4	R1626S
335.832	0.916	998628	WORD_OFF	n/a	n/a	BUTTERFLY	Insects	10	2	[0, 0, 0]	n/a	catFR1	4	R1626S
336.748	1.617	999544	WORD	n/a	wordpools/wordpool_categorized_EN.txt	DRESS	Clothing	11	2	[0, 0, 0]	n/a	catFR1	4	R1626S
338.365	1.0	1001156	WORD_OFF	n/a	n/a	DRESS	Clothing	11	2	[0, 0, 0]	n/a	catFR1	4	R1626S
339.365	1.617	1002157	WORD	n/a	wordpools/wordpool_categorized_EN.txt	SHORTS	Clothing	12	2	[0, 0, 0]	n/a	catFR1	4	R1626S
340.982	0.0	1003769	WORD_OFF	n/a	n/a	SHORTS	Clothing	12	2	[0, 0, 0]	n/a	catFR1	4	R1626S
340.982	0.001	1003771	PROB	0.001	n/a	n/a	n/a	-999	2	[7, 2, 8]	17	catFR1	4	R1626S
340.983	0.0	1003772	START	n/a	n/a	n/a	n/a	-999	2	[-999, -999, -999]	n/a	catFR1	4	R1626S
340.983	0.0	1003779	ENCODING_END	n/a	n/a	n/a	n/a	-999	2	[0, 0, 0]	n/a	catFR1	4	R1626S
340.983	6.399	1003779	DISTRACT_START	n/a	n/a	n/a	n/a	-999	2	[0, 0, 0]	n/a	catFR1	4	R1626S
347.382	5.317	1010171	PROB	5.317	n/a	n/a	n/a	-999	2	[1, 3, 1]	5	catFR1	4	R1626S
352.699	5.549	1015488	PROB	5.549	n/a	n/a	n/a	-999	2	[6, 2, 6]	14	catFR1	4	R1626S
358.248	5.6	1021036	PROB	5.6	n/a	n/a	n/a	-999	2	[8, 2, 5]	15	catFR1	4	R1626S
363.848	0.0	1026636	STOP	n/a	n/a	n/a	n/a	-999	2	[-999, -999, -999]	n/a	catFR1	4	R1626S
363.848	2.233	1026643	DISTRACT_END	n/a	n/a	n/a	n/a	-999	2	[0, 0, 0]	n/a	catFR1	4	R1626S
366.081	3.195	1028875	REC_START	n/a	n/a	n/a	n/a	-999	2	[0, 0, 0]	n/a	catFR1	4	R1626S
369.276	3.51	1032064	REC_WORD	3.51	n/a	PANTS	Clothing	1	2	[0, 0, 0]	n/a	catFR1	4	R1626S
372.786	3.81	1035574	REC_WORD	3.81	n/a	DRESS	Clothing	11	2	[0, 0, 0]	n/a	catFR1	4	R1626S
376.596	18.164	1039383	REC_WORD	18.164	n/a	OCTOPUS	OceanAnimals	3	2	[0, 0, 0]	n/a	catFR1	4	R1626S
394.76	1.506	1057547	REC_WORD_VV	1.506	n/a	<>	n/a	-999	2	[0, 0, 0]	n/a	catFR1	4	R1626S
396.266	2.732	1059054	REC_END	n/a	n/a	n/a	n/a	-999	2	[0, 0, 0]	n/a	catFR1	4	R1626S
398.998	10.35	1061792	COUNTDOWN_START	n/a	n/a	n/a	n/a	-999	3	[0, 0, 0]	n/a	catFR1	4	R1626S
409.348	0.0	1072141	COUNTDOWN_END	n/a	n/a	n/a	n/a	-999	3	[0, 0, 0]	n/a	catFR1	4	R1626S
409.348	2.1	1072141	ENCODING_START	n/a	n/a	n/a	n/a	-999	3	[0, 0, 0]	n/a	catFR1	4	R1626S
411.448	1.617	1074239	WORD	n/a	wordpools/wordpool_categorized_EN.txt	NOSE	BodyParts	1	3	[0, 0, 0]	n/a	catFR1	4	R1626S
413.065	0.832	1075851	WORD_OFF	n/a	n/a	NOSE	BodyParts	1	3	[0, 0, 0]	n/a	catFR1	4	R1626S
413.897	1.601	1076681	WORD	n/a	wordpools/wordpool_categorized_EN.txt	FINGERS	BodyParts	2	3	[0, 0, 0]	n/a	catFR1	4	R1626S
415.498	0.814	1078284	WORD_OFF	n/a	n/a	FINGERS	BodyParts	2	3	[0, 0, 0]	n/a	catFR1	4	R1626S
416.312	1.602	1079104	WORD	n/a	wordpools/wordpool_categorized_EN.txt	SHELF	Furniture	3	3	[0, 0, 0]	n/a	catFR1	4	R1626S
417.914	0.951	1080697	WORD_OFF	n/a	n/a	SHELF	Furniture	3	3	[0, 0, 0]	n/a	catFR1	4	R1626S
418.865	1.616	1081651	WORD	n/a	wordpools/wordpool_categorized_EN.txt	RECLINER	Furniture	4	3	[0, 0, 0]	n/a	catFR1	4	R1626S
420.481	0.95	1083272	WORD_OFF	n/a	n/a	RECLINER	Furniture	4	3	[0, 0, 0]	n/a	catFR1	4	R1626S
421.431	1.617	1084217	WORD	n/a	wordpools/wordpool_categorized_EN.txt	MOPED	Vehicles	5	3	[0, 0, 0]	n/a	catFR1	4	R1626S
423.048	0.967	1085838	WORD_OFF	n/a	n/a	MOPED	Vehicles	5	3	[0, 0, 0]	n/a	catFR1	4	R1626S
424.015	1.6	1086802	WORD	n/a	wordpools/wordpool_categorized_EN.txt	CAR	Vehicles	6	3	[0, 0, 0]	n/a	catFR1	4	R1626S
425.615	0.783	1088404	WORD_OFF	n/a	n/a	CAR	Vehicles	6	3	[0, 0, 0]	n/a	catFR1	4	R1626S
426.398	1.617	1089186	WORD	n/a	wordpools/wordpool_categorized_EN.txt	HEAD	BodyParts	7	3	[0, 0, 0]	n/a	catFR1	4	R1626S
428.015	0.966	1090798	WORD_OFF	n/a	n/a	HEAD	BodyParts	7	3	[0, 0, 0]	n/a	catFR1	4	R1626S
428.981	1.6	1091771	WORD	n/a	wordpools/wordpool_categorized_EN.txt	ELBOW	BodyParts	8	3	[0, 0, 0]	n/a	catFR1	4	R1626S
430.581	0.784	1093364	WORD_OFF	n/a	n/a	ELBOW	BodyParts	8	3	[0, 0, 0]	n/a	catFR1	4	R1626S
431.365	1.616	1094156	WORD	n/a	wordpools/wordpool_categorized_EN.txt	BED	Furniture	9	3	[0, 0, 0]	n/a	catFR1	4	R1626S
432.981	1.0	1095768	WORD_OFF	n/a	n/a	BED	Furniture	9	3	[0, 0, 0]	n/a	catFR1	4	R1626S
433.981	1.6	1096769	WORD	n/a	wordpools/wordpool_categorized_EN.txt	CHAIR	Furniture	10	3	[0, 0, 0]	n/a	catFR1	4	R1626S
435.581	0.967	1098372	WORD_OFF	n/a	n/a	CHAIR	Furniture	10	3	[0, 0, 0]	n/a	catFR1	4	R1626S
436.548	1.617	1099335	WORD	n/a	wordpools/wordpool_categorized_EN.txt	BIKE	Vehicles	11	3	[0, 0, 0]	n/a	catFR1	4	R1626S
438.165	0.949	1100947	WORD_OFF	n/a	n/a	BIKE	Vehicles	11	3	[0, 0, 0]	n/a	catFR1	4	R1626S
439.114	1.602	1101901	WORD	n/a	wordpools/wordpool_categorized_EN.txt	JEEP	Vehicles	12	3	[0, 0, 0]	n/a	catFR1	4	R1626S
440.716	0.0	1103500	PROB	0.0	n/a	n/a	n/a	-999	3	[6, 2, 7]	15	catFR1	4	R1626S
440.716	0.0	1103500	START	n/a	n/a	n/a	n/a	-999	3	[-999, -999, -999]	n/a	catFR1	4	R1626S
440.715	0.001	1103503	WORD_OFF	n/a	n/a	JEEP	Vehicles	12	3	[0, 0, 0]	n/a	catFR1	4	R1626S
440.716	0.0	1103503	ENCODING_END	n/a	n/a	n/a	n/a	-999	3	[0, 0, 0]	n/a	catFR1	4	R1626S
440.716	6.115	1103503	DISTRACT_START	n/a	n/a	n/a	n/a	-999	3	[0, 0, 0]	n/a	catFR1	4	R1626S
446.831	9.466	1109615	PROB	9.466	n/a	n/a	n/a	-999	3	[8, 5, 1]	14	catFR1	4	R1626S
456.297	4.151	1119081	PROB	4.151	n/a	n/a	n/a	-999	3	[3, 3, 1]	7	catFR1	4	R1626S
460.448	5.352	1123232	PROB	5.352	n/a	n/a	n/a	-999	3	[3, 2, 5]	10	catFR1	4	R1626S
465.8	0.0	1128583	STOP	n/a	n/a	n/a	n/a	-999	3	[-999, -999, -999]	n/a	catFR1	4	R1626S
465.8	2.031	1128590	DISTRACT_END	n/a	n/a	n/a	n/a	-999	3	[0, 0, 0]	n/a	catFR1	4	R1626S
467.831	14.39	1130621	REC_START	n/a	n/a	n/a	n/a	-999	3	[0, 0, 0]	n/a	catFR1	4	R1626S
482.221	14.376	1145004	REC_WORD_VV	14.376	n/a	<>	n/a	-999	3	[0, 0, 0]	n/a	catFR1	4	R1626S
496.597	1.421	1159379	REC_WORD_VV	1.421	n/a	<>	n/a	-999	3	[0, 0, 0]	n/a	catFR1	4	R1626S
498.018	6.948	1160801	REC_END	n/a	n/a	n/a	n/a	-999	3	[0, 0, 0]	n/a	catFR1	4	R1626S
504.966	10.348	1167754	COUNTDOWN_START	n/a	n/a	n/a	n/a	-999	4	[0, 0, 0]	n/a	catFR1	4	R1626S
515.314	0.0	1178094	COUNTDOWN_END	n/a	n/a	n/a	n/a	-999	4	[0, 0, 0]	n/a	catFR1	4	R1626S
515.314	2.083	1178094	ENCODING_START	n/a	n/a	n/a	n/a	-999	4	[0, 0, 0]	n/a	catFR1	4	R1626S
517.397	1.601	1180183	WORD	n/a	wordpools/wordpool_categorized_EN.txt	WINDOW	Building	1	4	[0, 0, 0]	n/a	catFR1	4	R1626S
518.998	0.816	1181786	WORD_OFF	n/a	n/a	WINDOW	Building	1	4	[0, 0, 0]	n/a	catFR1	4	R1626S
519.814	1.616	1182596	WORD	n/a	wordpools/wordpool_categorized_EN.txt	CEILING	Building	2	4	[0, 0, 0]	n/a	catFR1	4	R1626S
521.43	0.784	1184218	WORD_OFF	n/a	n/a	CEILING	Building	2	4	[0, 0, 0]	n/a	catFR1	4	R1626S
522.214	1.6	1185000	WORD	n/a	wordpools/wordpool_categorized_EN.txt	PEAS	Vegetables	3	4	[0, 0, 0]	n/a	catFR1	4	R1626S
523.814	0.9	1186602	WORD_OFF	n/a	n/a	PEAS	Vegetables	3	4	[0, 0, 0]	n/a	catFR1	4	R1626S
524.714	1.617	1187499	WORD	n/a	wordpools/wordpool_categorized_EN.txt	CARROT	Vegetables	4	4	[0, 0, 0]	n/a	catFR1	4	R1626S
526.331	0.784	1189111	WORD_OFF	n/a	n/a	CARROT	Vegetables	4	4	[0, 0, 0]	n/a	catFR1	4	R1626S
527.115	1.616	1189893	WORD	n/a	wordpools/wordpool_categorized_EN.txt	SEAGULL	Birds	5	4	[0, 0, 0]	n/a	catFR1	4	R1626S
528.731	0.867	1191515	WORD_OFF	n/a	n/a	SEAGULL	Birds	5	4	[0, 0, 0]	n/a	catFR1	4	R1626S
529.598	1.615	1192383	WORD	n/a	wordpools/wordpool_categorized_EN.txt	FINCH	Birds	6	4	[0, 0, 0]	n/a	catFR1	4	R1626S
531.213	0.968	1193995	WORD_OFF	n/a	n/a	FINCH	Birds	6	4	[0, 0, 0]	n/a	catFR1	4	R1626S
532.181	1.617	1194968	WORD	n/a	wordpools/wordpool_categorized_EN.txt	CABBAGE	Vegetables	7	4	[0, 0, 0]	n/a	catFR1	4	R1626S
533.798	0.966	1196580	WORD_OFF	n/a	n/a	CABBAGE	Vegetables	7	4	[0, 0, 0]	n/a	catFR1	4	R1626S
534.764	1.616	1197543	WORD	n/a	wordpools/wordpool_categorized_EN.txt	LETTUCE	Vegetables	8	4	[0, 0, 0]	n/a	catFR1	4	R1626S
536.38	0.851	1199165	WORD_OFF	n/a	n/a	LETTUCE	Vegetables	8	4	[0, 0, 0]	n/a	catFR1	4	R1626S
537.231	1.6	1200014	WORD	n/a	wordpools/wordpool_categorized_EN.txt	WALL	Building	9	4	[0, 0, 0]	n/a	catFR1	4	R1626S
538.831	0.833	1201616	WORD_OFF	n/a	n/a	WALL	Building	9	4	[0, 0, 0]	n/a	catFR1	4	R1626S
539.664	1.601	1202446	WORD	n/a	wordpools/wordpool_categorized_EN.txt	DOOR	Building	10	4	[0, 0, 0]	n/a	catFR1	4	R1626S
541.265	1.0	1204048	WORD_OFF	n/a	n/a	DOOR	Building	10	4	[0, 0, 0]	n/a	catFR1	4	R1626S
542.265	1.616	1205050	WORD	n/a	wordpools/wordpool_categorized_EN.txt	CROW	Birds	11	4	[0, 0, 0]	n/a	catFR1	4	R1626S
543.881	0.966	1206662	WORD_OFF	n/a	n/a	CROW	Birds	11	4	[0, 0, 0]	n/a	catFR1	4	R1626S
544.847	1.601	1207625	WORD	n/a	wordpools/wordpool_categorized_EN.txt	SPARROW	Birds	12	4	[0, 0, 0]	n/a	catFR1	4	R1626S
546.448	0.001	1209228	WORD_OFF	n/a	n/a	SPARROW	Birds	12	4	[0, 0, 0]	n/a	catFR1	4	R1626S
546.449	0.0	1209228	ENCODING_END	n/a	n/a	n/a	n/a	-999	4	[0, 0, 0]	n/a	catFR1	4	R1626S
546.448	0.001	1209228	PROB	0.001	n/a	n/a	n/a	-999	4	[4, 8, 8]	20	catFR1	4	R1626S
546.449	0.0	1209229	START	n/a	n/a	n/a	n/a	-999	4	[-999, -999, -999]	n/a	catFR1	4	R1626S
546.449	7.399	1209237	DISTRACT_START	n/a	n/a	n/a	n/a	-999	4	[0, 0, 0]	n/a	catFR1	4	R1626S
553.848	4.15	1216627	PROB	4.15	n/a	n/a	n/a	-999	4	[2, 7, 5]	14	catFR1	4	R1626S
557.998	7.433	1220777	PROB	7.433	n/a	n/a	n/a	-999	4	[3, 8, 5]	16	catFR1	4	R1626S
565.431	4.883	1228210	PROB	4.883	n/a	n/a	n/a	-999	4	[5, 5, 3]	13	catFR1	4	R1626S
570.314	0.0	1233092	STOP	n/a	n/a	n/a	n/a	-999	4	[-999, -999, -999]	n/a	catFR1	4	R1626S
570.314	2.234	1233093	DISTRACT_END	n/a	n/a	n/a	n/a	-999	4	[0, 0, 0]	n/a	catFR1	4	R1626S
572.548	8.294	1235325	REC_START	n/a	n/a	n/a	n/a	-999	4	[0, 0, 0]	n/a	catFR1	4	R1626S
580.842	3.605	1243620	REC_WORD_VV	3.605	n/a	<>	n/a	-999	4	[0, 0, 0]	n/a	catFR1	4	R1626S
584.447	3.162	1247225	REC_WORD	3.162	n/a	WINDOW	Building	1	4	[0, 0, 0]	n/a	catFR1	4	R1626S
587.609	6.845	1250387	REC_WORD	6.845	n/a	CEILING	Building	2	4	[0, 0, 0]	n/a	catFR1	4	R1626S
594.454	8.263	1257231	REC_WORD	8.263	n/a	CROW	Birds	11	4	[0, 0, 0]	n/a	catFR1	4	R1626S
602.717	6.847	1265495	REC_END	n/a	n/a	n/a	n/a	-999	4	[0, 0, 0]	n/a	catFR1	4	R1626S
609.564	10.349	1272344	COUNTDOWN_START	n/a	n/a	n/a	n/a	-999	5	[0, 0, 0]	n/a	catFR1	4	R1626S
619.913	0.001	1282693	COUNTDOWN_END	n/a	n/a	n/a	n/a	-999	5	[0, 0, 0]	n/a	catFR1	4	R1626S
619.914	2.2	1282693	ENCODING_START	n/a	n/a	n/a	n/a	-999	5	[0, 0, 0]	n/a	catFR1	4	R1626S
622.114	1.6	1284896	WORD	n/a	wordpools/wordpool_categorized_EN.txt	STAIRS	Building	1	5	[0, 0, 0]	n/a	catFR1	4	R1626S
623.714	0.834	1286489	WORD_OFF	n/a	n/a	STAIRS	Building	1	5	[0, 0, 0]	n/a	catFR1	4	R1626S
624.548	1.6	1287329	WORD	n/a	wordpools/wordpool_categorized_EN.txt	ATTIC	Building	2	5	[0, 0, 0]	n/a	catFR1	4	R1626S
626.148	0.866	1288922	WORD_OFF	n/a	n/a	ATTIC	Building	2	5	[0, 0, 0]	n/a	catFR1	4	R1626S
627.014	1.617	1289789	WORD	n/a	wordpools/wordpool_categorized_EN.txt	EYE	BodyParts	3	5	[0, 0, 0]	n/a	catFR1	4	R1626S
628.631	0.881	1291411	WORD_OFF	n/a	n/a	EYE	BodyParts	3	5	[0, 0, 0]	n/a	catFR1	4	R1626S
629.512	1.602	1292289	WORD	n/a	wordpools/wordpool_categorized_EN.txt	HAND	BodyParts	4	5	[0, 0, 0]	n/a	catFR1	4	R1626S
631.114	1.0	1293891	WORD_OFF	n/a	n/a	HAND	BodyParts	4	5	[0, 0, 0]	n/a	catFR1	4	R1626S
632.114	1.6	1294893	WORD	n/a	wordpools/wordpool_categorized_EN.txt	TOASTER	Appliances	5	5	[0, 0, 0]	n/a	catFR1	4	R1626S
633.714	0.95	1296495	WORD_OFF	n/a	n/a	TOASTER	Appliances	5	5	[0, 0, 0]	n/a	catFR1	4	R1626S
634.664	1.6	1297439	WORD	n/a	wordpools/wordpool_categorized_EN.txt	BLENDER	Appliances	6	5	[0, 0, 0]	n/a	catFR1	4	R1626S
636.264	1.0	1299042	WORD_OFF	n/a	n/a	BLENDER	Appliances	6	5	[0, 0, 0]	n/a	catFR1	4	R1626S
637.264	1.6	1300043	WORD	n/a	wordpools/wordpool_categorized_EN.txt	EAR	BodyParts	7	5	[0, 0, 0]	n/a	catFR1	4	R1626S
638.864	0.9	1301646	WORD_OFF	n/a	n/a	EAR	BodyParts	7	5	[0, 0, 0]	n/a	catFR1	4	R1626S
639.764	1.6	1302542	WORD	n/a	wordpools/wordpool_categorized_EN.txt	KNEE	BodyParts	8	5	[0, 0, 0]	n/a	catFR1	4	R1626S
641.364	0.8	1304145	WORD_OFF	n/a	n/a	KNEE	BodyParts	8	5	[0, 0, 0]	n/a	catFR1	4	R1626S
642.164	1.6	1304946	WORD	n/a	wordpools/wordpool_categorized_EN.txt	DISHWASHER	Appliances	9	5	[0, 0, 0]	n/a	catFR1	4	R1626S
643.764	0.767	1306539	WORD_OFF	n/a	n/a	DISHWASHER	Appliances	9	5	[0, 0, 0]	n/a	catFR1	4	R1626S
644.531	1.616	1307312	WORD	n/a	wordpools/wordpool_categorized_EN.txt	MIXER	Appliances	10	5	[0, 0, 0]	n/a	catFR1	4	R1626S
646.147	0.984	1308924	WORD_OFF	n/a	n/a	MIXER	Appliances	10	5	[0, 0, 0]	n/a	catFR1	4	R1626S
647.131	1.6	1309906	WORD	n/a	wordpools/wordpool_categorized_EN.txt	HALLWAY	Building	11	5	[0, 0, 0]	n/a	catFR1	4	R1626S
648.731	0.949	1311509	WORD_OFF	n/a	n/a	HALLWAY	Building	11	5	[0, 0, 0]	n/a	catFR1	4	R1626S
649.68	1.601	1312453	WORD	n/a	wordpools/wordpool_categorized_EN.txt	ROOF	Building	12	5	[0, 0, 0]	n/a	catFR1	4	R1626S
651.281	0.001	1314055	WORD_OFF	n/a	n/a	ROOF	Building	12	5	[0, 0, 0]	n/a	catFR1	4	R1626S
651.282	0.0	1314055	ENCODING_END	n/a	n/a	n/a	n/a	-999	5	[0, 0, 0]	n/a	catFR1	4	R1626S
651.281	0.001	1314056	PROB	0.001	n/a	n/a	n/a	-999	5	[8, 8, 1]	17	catFR1	4	R1626S
651.282	0.0	1314057	START	n/a	n/a	n/a	n/a	-999	5	[-999, -999, -999]	n/a	catFR1	4	R1626S
651.282	5.831	1314065	DISTRACT_START	n/a	n/a	n/a	n/a	-999	5	[0, 0, 0]	n/a	catFR1	4	R1626S
657.113	7.017	1319887	PROB	7.017	n/a	n/a	n/a	-999	5	[5, 7, 4]	16	catFR1	4	R1626S
664.13	4.667	1326904	PROB	4.667	n/a	n/a	n/a	-999	5	[4, 7, 4]	15	catFR1	4	R1626S
668.797	4.483	1331571	PROB	4.483	n/a	n/a	n/a	-999	5	[3, 2, 5]	10	catFR1	4	R1626S
673.28	0.0	1336054	STOP	n/a	n/a	n/a	n/a	-999	5	[-999, -999, -999]	n/a	catFR1	4	R1626S
673.28	2.084	1336061	DISTRACT_END	n/a	n/a	n/a	n/a	-999	5	[0, 0, 0]	n/a	catFR1	4	R1626S
675.364	4.963	1338140	REC_START	n/a	n/a	n/a	n/a	-999	5	[0, 0, 0]	n/a	catFR1	4	R1626S
680.327	25.221	1343100	REC_WORD	25.221	n/a	CHAIR	Furniture	-999	5	[0, 0, 0]	n/a	catFR1	4	R1626S
705.548	3.831	1368320	REC_END	n/a	n/a	n/a	n/a	-999	5	[0, 0, 0]	n/a	catFR1	4	R1626S
709.379	10.351	1372154	COUNTDOWN_START	n/a	n/a	n/a	n/a	-999	6	[0, 0, 0]	n/a	catFR1	4	R1626S
719.73	0.0	1382503	COUNTDOWN_END	n/a	n/a	n/a	n/a	-999	6	[0, 0, 0]	n/a	catFR1	4	R1626S
719.73	2.367	1382503	ENCODING_START	n/a	n/a	n/a	n/a	-999	6	[0, 0, 0]	n/a	catFR1	4	R1626S
722.097	1.617	1384869	WORD	n/a	wordpools/wordpool_categorized_EN.txt	NYLON	Fabric	1	6	[0, 0, 0]	n/a	catFR1	4	R1626S
723.714	0.95	1386490	WORD_OFF	n/a	n/a	NYLON	Fabric	1	6	[0, 0, 0]	n/a	catFR1	4	R1626S
724.664	1.6	1387435	WORD	n/a	wordpools/wordpool_categorized_EN.txt	SUEDE	Fabric	2	6	[0, 0, 0]	n/a	catFR1	4	R1626S
726.264	0.933	1389037	WORD_OFF	n/a	n/a	SUEDE	Fabric	2	6	[0, 0, 0]	n/a	catFR1	4	R1626S
727.197	1.601	1389972	WORD	n/a	wordpools/wordpool_categorized_EN.txt	PANDA	Zoo	3	6	[0, 0, 0]	n/a	catFR1	4	R1626S
728.798	0.815	1391574	WORD_OFF	n/a	n/a	PANDA	Zoo	3	6	[0, 0, 0]	n/a	catFR1	4	R1626S
729.613	1.616	1392385	WORD	n/a	wordpools/wordpool_categorized_EN.txt	GORILLA	Zoo	4	6	[0, 0, 0]	n/a	catFR1	4	R1626S
731.229	0.968	1394007	WORD_OFF	n/a	n/a	GORILLA	Zoo	4	6	[0, 0, 0]	n/a	catFR1	4	R1626S
732.197	1.601	1394970	WORD	n/a	wordpools/wordpool_categorized_EN.txt	THUNDER	Weather	5	6	[0, 0, 0]	n/a	catFR1	4	R1626S
733.798	1.0	1396572	WORD_OFF	n/a	n/a	THUNDER	Weather	5	6	[0, 0, 0]	n/a	catFR1	4	R1626S
734.798	1.599	1397574	WORD	n/a	wordpools/wordpool_categorized_EN.txt	DRIZZLE	Weather	6	6	[0, 0, 0]	n/a	catFR1	4	R1626S
736.397	0.966	1399167	WORD_OFF	n/a	n/a	DRIZZLE	Weather	6	6	[0, 0, 0]	n/a	catFR1	4	R1626S
737.363	1.601	1400140	WORD	n/a	wordpools/wordpool_categorized_EN.txt	CHEETAH	Zoo	7	6	[0, 0, 0]	n/a	catFR1	4	R1626S
738.964	0.9	1401733	WORD_OFF	n/a	n/a	CHEETAH	Zoo	7	6	[0, 0, 0]	n/a	catFR1	4	R1626S
739.864	1.6	1402639	WORD	n/a	wordpools/wordpool_categorized_EN.txt	ZEBRA	Zoo	8	6	[0, 0, 0]	n/a	catFR1	4	R1626S
741.464	0.817	1404241	WORD_OFF	n/a	n/a	ZEBRA	Zoo	8	6	[0, 0, 0]	n/a	catFR1	4	R1626S
742.281	1.616	1405052	WORD	n/a	wordpools/wordpool_categorized_EN.txt	SATIN	Fabric	9	6	[0, 0, 0]	n/a	catFR1	4	R1626S
743.897	0.95	1406674	WORD_OFF	n/a	n/a	SATIN	Fabric	9	6	[0, 0, 0]	n/a	catFR1	4	R1626S
744.847	1.6	1407618	WORD	n/a	wordpools/wordpool_categorized_EN.txt	FLEECE	Fabric	10	6	[0, 0, 0]	n/a	catFR1	4	R1626S
746.447	0.9	1409220	WORD_OFF	n/a	n/a	FLEECE	Fabric	10	6	[0, 0, 0]	n/a	catFR1	4	R1626S
747.347	1.617	1410117	WORD	n/a	wordpools/wordpool_categorized_EN.txt	LIGHTNING	Weather	11	6	[0, 0, 0]	n/a	catFR1	4	R1626S
748.964	0.966	1411739	WORD_OFF	n/a	n/a	LIGHTNING	Weather	11	6	[0, 0, 0]	n/a	catFR1	4	R1626S
749.93	1.601	1412702	WORD	n/a	wordpools/wordpool_categorized_EN.txt	THUNDERSTORM	Weather	12	6	[0, 0, 0]	n/a	catFR1	4	R1626S
751.531	0.001	1414301	PROB	0.001	n/a	n/a	n/a	-999	6	[4, 4, 8]	16	catFR1	4	R1626S
751.532	0.0	1414302	START	n/a	n/a	n/a	n/a	-999	6	[-999, -999, -999]	n/a	catFR1	4	R1626S
751.53	0.002	1414304	WORD_OFF	n/a	n/a	THUNDERSTORM	Weather	12	6	[0, 0, 0]	n/a	catFR1	4	R1626S
751.532	0.0	1414304	ENCODING_END	n/a	n/a	n/a	n/a	-999	6	[0, 0, 0]	n/a	catFR1	4	R1626S
751.532	6.081	1414304	DISTRACT_START	n/a	n/a	n/a	n/a	-999	6	[0, 0, 0]	n/a	catFR1	4	R1626S
757.613	13.868	1420383	PROB	13.868	n/a	n/a	n/a	-999	6	[6, 7, 7]	20	catFR1	4	R1626S
771.481	5.699	1434250	PROB	5.699	n/a	n/a	n/a	-999	6	[5, 8, 8]	21	catFR1	4	R1626S
777.18	0.0	1439949	STOP	n/a	n/a	n/a	n/a	-999	6	[-999, -999, -999]	n/a	catFR1	4	R1626S
777.18	2.2	1439953	DISTRACT_END	n/a	n/a	n/a	n/a	-999	6	[0, 0, 0]	n/a	catFR1	4	R1626S
779.38	3.743	1442147	REC_START	n/a	n/a	n/a	n/a	-999	6	[0, 0, 0]	n/a	catFR1	4	R1626S
783.123	3.195	1445892	REC_WORD	3.195	n/a	NYLON	Fabric	1	6	[0, 0, 0]	n/a	catFR1	4	R1626S
786.318	2.865	1449086	REC_WORD	2.865	n/a	FLEECE	Fabric	10	6	[0, 0, 0]	n/a	catFR1	4	R1626S
789.183	9.745	1451951	REC_WORD	9.745	n/a	SATIN	Fabric	9	6	[0, 0, 0]	n/a	catFR1	4	R1626S
798.928	2.425	1461696	REC_WORD	2.425	n/a	PANDA	Zoo	3	6	[0, 0, 0]	n/a	catFR1	4	R1626S
801.353	8.218	1464121	REC_WORD	8.218	n/a	GORILLA	Zoo	4	6	[0, 0, 0]	n/a	catFR1	4	R1626S
809.571	2.208	1472336	REC_END	n/a	n/a	n/a	n/a	-999	6	[0, 0, 0]	n/a	catFR1	4	R1626S
811.779	10.351	1474549	COUNTDOWN_START	n/a	n/a	n/a	n/a	-999	7	[0, 0, 0]	n/a	catFR1	4	R1626S
822.13	0.0	1484899	COUNTDOWN_END	n/a	n/a	n/a	n/a	-999	7	[0, 0, 0]	n/a	catFR1	4	R1626S
822.13	1.867	1484899	ENCODING_START	n/a	n/a	n/a	n/a	-999	7	[0, 0, 0]	n/a	catFR1	4	R1626S
823.997	1.616	1486768	WORD	n/a	wordpools/wordpool_categorized_EN.txt	OAK	Trees	1	7	[0, 0, 0]	n/a	catFR1	4	R1626S
825.613	0.967	1488380	WORD_OFF	n/a	n/a	OAK	Trees	1	7	[0, 0, 0]	n/a	catFR1	4	R1626S
826.58	1.617	1489353	WORD	n/a	wordpools/wordpool_categorized_EN.txt	PINE	Trees	2	7	[0, 0, 0]	n/a	catFR1	4	R1626S
828.197	0.867	1490965	WORD_OFF	n/a	n/a	PINE	Trees	2	7	[0, 0, 0]	n/a	catFR1	4	R1626S
829.064	1.616	1491833	WORD	n/a	wordpools/wordpool_categorized_EN.txt	TROMBONE	Instruments	3	7	[0, 0, 0]	n/a	catFR1	4	R1626S
830.68	0.95	1493445	WORD_OFF	n/a	n/a	TROMBONE	Instruments	3	7	[0, 0, 0]	n/a	catFR1	4	R1626S
831.63	1.617	1494399	WORD	n/a	wordpools/wordpool_categorized_EN.txt	GUITAR	Instruments	4	7	[0, 0, 0]	n/a	catFR1	4	R1626S
833.247	1.0	1496020	WORD_OFF	n/a	n/a	GUITAR	Instruments	4	7	[0, 0, 0]	n/a	catFR1	4	R1626S
834.247	1.6	1497022	WORD	n/a	wordpools/wordpool_categorized_EN.txt	PIG	FarmAnimals	5	7	[0, 0, 0]	n/a	catFR1	4	R1626S
835.847	0.916	1498615	WORD_OFF	n/a	n/a	PIG	FarmAnimals	5	7	[0, 0, 0]	n/a	catFR1	4	R1626S
836.763	1.601	1499531	WORD	n/a	wordpools/wordpool_categorized_EN.txt	COW	FarmAnimals	6	7	[0, 0, 0]	n/a	catFR1	4	R1626S
838.364	0.95	1501133	WORD_OFF	n/a	n/a	COW	FarmAnimals	6	7	[0, 0, 0]	n/a	catFR1	4	R1626S
839.314	1.6	1502077	WORD	n/a	wordpools/wordpool_categorized_EN.txt	WALNUT	Trees	7	7	[0, 0, 0]	n/a	catFR1	4	R1626S
840.914	0.849	1503680	WORD_OFF	n/a	n/a	WALNUT	Trees	7	7	[0, 0, 0]	n/a	catFR1	4	R1626S
841.763	1.616	1504529	WORD	n/a	wordpools/wordpool_categorized_EN.txt	CEDAR	Trees	8	7	[0, 0, 0]	n/a	catFR1	4	R1626S
843.379	0.967	1506150	WORD_OFF	n/a	n/a	CEDAR	Trees	8	7	[0, 0, 0]	n/a	catFR1	4	R1626S
844.346	1.6	1507114	WORD	n/a	wordpools/wordpool_categorized_EN.txt	CELLO	Instruments	9	7	[0, 0, 0]	n/a	catFR1	4	R1626S
845.946	0.901	1508716	WORD_OFF	n/a	n/a	CELLO	Instruments	9	7	[0, 0, 0]	n/a	catFR1	4	R1626S
846.847	1.617	1509613	WORD	n/a	wordpools/wordpool_categorized_EN.txt	BANJO	Instruments	10	7	[0, 0, 0]	n/a	catFR1	4	R1626S
848.464	0.815	1511234	WORD_OFF	n/a	n/a	BANJO	Instruments	10	7	[0, 0, 0]	n/a	catFR1	4	R1626S
849.279	1.601	1512045	WORD	n/a	wordpools/wordpool_categorized_EN.txt	CHICKEN	FarmAnimals	11	7	[0, 0, 0]	n/a	catFR1	4	R1626S
850.88	0.9	1513647	WORD_OFF	n/a	n/a	CHICKEN	FarmAnimals	11	7	[0, 0, 0]	n/a	catFR1	4	R1626S
851.78	1.617	1514544	WORD	n/a	wordpools/wordpool_categorized_EN.txt	CALF	FarmAnimals	12	7	[0, 0, 0]	n/a	catFR1	4	R1626S
853.397	0.001	1516162	PROB	0.001	n/a	n/a	n/a	-999	7	[5, 1, 7]	13	catFR1	4	R1626S
853.398	0.0	1516163	START	n/a	n/a	n/a	n/a	-999	7	[-999, -999, -999]	n/a	catFR1	4	R1626S
853.397	0.001	1516166	WORD_OFF	n/a	n/a	CALF	FarmAnimals	12	7	[0, 0, 0]	n/a	catFR1	4	R1626S
853.398	0.0	1516166	ENCODING_END	n/a	n/a	n/a	n/a	-999	7	[0, 0, 0]	n/a	catFR1	4	R1626S
853.398	8.001	1516166	DISTRACT_START	n/a	n/a	n/a	n/a	-999	7	[0, 0, 0]	n/a	catFR1	4	R1626S
861.399	4.581	1524164	PROB	4.581	n/a	n/a	n/a	-999	7	[4, 1, 4]	9	catFR1	4	R1626S
865.98	10.2	1528745	PROB	10.2	n/a	n/a	n/a	-999	7	[7, 4, 2]	13	catFR1	4	R1626S
876.18	0.0	1538943	DISTRACT_END	n/a	n/a	n/a	n/a	-999	7	[0, 0, 0]	n/a	catFR1	4	R1626S
876.18	2.133	1538944	STOP	n/a	n/a	n/a	n/a	-999	7	[-999, -999, -999]	n/a	catFR1	4	R1626S
878.313	12.534	1541080	REC_START	n/a	n/a	n/a	n/a	-999	7	[0, 0, 0]	n/a	catFR1	4	R1626S
890.847	2.346	1553611	REC_WORD	2.346	n/a	PINE	Trees	2	7	[0, 0, 0]	n/a	catFR1	4	R1626S
893.193	2.815	1555957	REC_WORD	2.815	n/a	OAK	Trees	1	7	[0, 0, 0]	n/a	catFR1	4	R1626S
896.008	6.493	1558771	REC_WORD	6.493	n/a	WALNUT	Trees	7	7	[0, 0, 0]	n/a	catFR1	4	R1626S
902.501	3.27	1565264	REC_WORD	3.27	n/a	CEDAR	Trees	8	7	[0, 0, 0]	n/a	catFR1	4	R1626S
905.771	2.713	1568534	REC_WORD	2.713	n/a	GUITAR	Instruments	4	7	[0, 0, 0]	n/a	catFR1	4	R1626S
908.484	5.33	1571250	REC_END	n/a	n/a	n/a	n/a	-999	7	[0, 0, 0]	n/a	catFR1	4	R1626S
913.814	10.348	1576582	COUNTDOWN_START	n/a	n/a	n/a	n/a	-999	8	[0, 0, 0]	n/a	catFR1	4	R1626S
924.162	0.0	1586931	COUNTDOWN_END	n/a	n/a	n/a	n/a	-999	8	[0, 0, 0]	n/a	catFR1	4	R1626S
924.162	2.067	1586931	ENCODING_START	n/a	n/a	n/a	n/a	-999	8	[0, 0, 0]	n/a	catFR1	4	R1626S
926.229	1.617	1588992	WORD	n/a	wordpools/wordpool_categorized_EN.txt	DRILL	Tools	1	8	[0, 0, 0]	n/a	catFR1	4	R1626S
927.846	0.967	1590613	WORD_OFF	n/a	n/a	DRILL	Tools	1	8	[0, 0, 0]	n/a	catFR1	4	R1626S
928.813	1.617	1591577	WORD	n/a	wordpools/wordpool_categorized_EN.txt	WRENCH	Tools	2	8	[0, 0, 0]	n/a	catFR1	4	R1626S
930.43	0.883	1593198	WORD_OFF	n/a	n/a	WRENCH	Tools	2	8	[0, 0, 0]	n/a	catFR1	4	R1626S
931.313	1.6	1594076	WORD	n/a	wordpools/wordpool_categorized_EN.txt	GOAT	FarmAnimals	3	8	[0, 0, 0]	n/a	catFR1	4	R1626S
932.913	1.0	1595678	WORD_OFF	n/a	n/a	GOAT	FarmAnimals	3	8	[0, 0, 0]	n/a	catFR1	4	R1626S
933.913	1.616	1596680	WORD	n/a	wordpools/wordpool_categorized_EN.txt	TURKEY	FarmAnimals	4	8	[0, 0, 0]	n/a	catFR1	4	R1626S
935.529	0.784	1598292	WORD_OFF	n/a	n/a	TURKEY	FarmAnimals	4	8	[0, 0, 0]	n/a	catFR1	4	R1626S
936.313	1.6	1599074	WORD	n/a	wordpools/wordpool_categorized_EN.txt	FORK	KitchenTools	5	8	[0, 0, 0]	n/a	catFR1	4	R1626S
937.913	0.783	1600676	WORD_OFF	n/a	n/a	FORK	KitchenTools	5	8	[0, 0, 0]	n/a	catFR1	4	R1626S
938.696	1.601	1601459	WORD	n/a	wordpools/wordpool_categorized_EN.txt	LADLE	KitchenTools	6	8	[0, 0, 0]	n/a	catFR1	4	R1626S
940.297	0.95	1603061	WORD_OFF	n/a	n/a	LADLE	KitchenTools	6	8	[0, 0, 0]	n/a	catFR1	4	R1626S
941.247	1.616	1604015	WORD	n/a	wordpools/wordpool_categorized_EN.txt	ROOSTER	FarmAnimals	7	8	[0, 0, 0]	n/a	catFR1	4	R1626S
942.863	0.817	1605627	WORD_OFF	n/a	n/a	ROOSTER	FarmAnimals	7	8	[0, 0, 0]	n/a	catFR1	4	R1626S
943.68	1.616	1606447	WORD	n/a	wordpools/wordpool_categorized_EN.txt	LAMB	FarmAnimals	8	8	[0, 0, 0]	n/a	catFR1	4	R1626S
945.296	0.784	1608059	WORD_OFF	n/a	n/a	LAMB	FarmAnimals	8	8	[0, 0, 0]	n/a	catFR1	4	R1626S
946.08	1.616	1608841	WORD	n/a	wordpools/wordpool_categorized_EN.txt	SAW	Tools	9	8	[0, 0, 0]	n/a	catFR1	4	R1626S
947.696	0.999	1610463	WORD_OFF	n/a	n/a	SAW	Tools	9	8	[0, 0, 0]	n/a	catFR1	4	R1626S
948.695	1.602	1611455	WORD	n/a	wordpools/wordpool_categorized_EN.txt	SCREWDRIVER	Tools	10	8	[0, 0, 0]	n/a	catFR1	4	R1626S
950.297	0.883	1613057	WORD_OFF	n/a	n/a	SCREWDRIVER	Tools	10	8	[0, 0, 0]	n/a	catFR1	4	R1626S
951.18	1.6	1613944	WORD	n/a	wordpools/wordpool_categorized_EN.txt	SPOON	KitchenTools	11	8	[0, 0, 0]	n/a	catFR1	4	R1626S
952.78	0.867	1615547	WORD_OFF	n/a	n/a	SPOON	KitchenTools	11	8	[0, 0, 0]	n/a	catFR1	4	R1626S
953.647	1.617	1616405	WORD	n/a	wordpools/wordpool_categorized_EN.txt	SPATULA	KitchenTools	12	8	[0, 0, 0]	n/a	catFR1	4	R1626S
955.264	0.001	1618025	PROB	0.001	n/a	n/a	n/a	-999	8	[3, 2, 3]	8	catFR1	4	R1626S
955.265	0.0	1618026	START	n/a	n/a	n/a	n/a	-999	8	[-999, -999, -999]	n/a	catFR1	4	R1626S
955.263	0.002	1618027	WORD_OFF	n/a	n/a	SPATULA	KitchenTools	12	8	[0, 0, 0]	n/a	catFR1	4	R1626S
955.265	0.0	1618027	ENCODING_END	n/a	n/a	n/a	n/a	-999	8	[0, 0, 0]	n/a	catFR1	4	R1626S
955.265	6.998	1618027	DISTRACT_START	n/a	n/a	n/a	n/a	-999	8	[0, 0, 0]	n/a	catFR1	4	R1626S
962.263	5.734	1625023	PROB	5.734	n/a	n/a	n/a	-999	8	[3, 1, 8]	12	catFR1	4	R1626S
967.997	6.866	1630757	PROB	6.866	n/a	n/a	n/a	-999	8	[6, 3, 5]	14	catFR1	4	R1626S
974.863	6.183	1637623	PROB	6.183	n/a	n/a	n/a	-999	8	[7, 5, 4]	16	catFR1	4	R1626S
981.046	0.0	1643805	STOP	n/a	n/a	n/a	n/a	-999	8	[-999, -999, -999]	n/a	catFR1	4	R1626S
981.046	2.167	1643809	DISTRACT_END	n/a	n/a	n/a	n/a	-999	8	[0, 0, 0]	n/a	catFR1	4	R1626S
983.213	25.766	1645974	REC_START	n/a	n/a	n/a	n/a	-999	8	[0, 0, 0]	n/a	catFR1	4	R1626S
1008.979	4.43	1671737	REC_WORD_VV	4.43	n/a	<>	n/a	-999	8	[0, 0, 0]	n/a	catFR1	4	R1626S
1013.409	7.718	1676173	REC_END	n/a	n/a	n/a	n/a	-999	8	[0, 0, 0]	n/a	catFR1	4	R1626S
1021.127	10.352	1683890	COUNTDOWN_START	n/a	n/a	n/a	n/a	-999	9	[0, 0, 0]	n/a	catFR1	4	R1626S
1031.479	0.0	1694239	COUNTDOWN_END	n/a	n/a	n/a	n/a	-999	9	[0, 0, 0]	n/a	catFR1	4	R1626S
1031.479	2.351	1694239	ENCODING_START	n/a	n/a	n/a	n/a	-999	9	[0, 0, 0]	n/a	catFR1	4	R1626S
1033.83	1.6	1696586	WORD	n/a	wordpools/wordpool_categorized_EN.txt	WILLOW	Trees	1	9	[0, 0, 0]	n/a	catFR1	4	R1626S
1035.43	0.8	1698188	WORD_OFF	n/a	n/a	WILLOW	Trees	1	9	[0, 0, 0]	n/a	catFR1	4	R1626S
1036.23	1.616	1698989	WORD	n/a	wordpools/wordpool_categorized_EN.txt	ELM	Trees	2	9	[0, 0, 0]	n/a	catFR1	4	R1626S
1037.846	0.767	1700611	WORD_OFF	n/a	n/a	ELM	Trees	2	9	[0, 0, 0]	n/a	catFR1	4	R1626S
1038.613	1.6	1701374	WORD	n/a	wordpools/wordpool_categorized_EN.txt	ERASER	OfficeSupplies	3	9	[0, 0, 0]	n/a	catFR1	4	R1626S
1040.213	0.833	1702976	WORD_OFF	n/a	n/a	ERASER	OfficeSupplies	3	9	[0, 0, 0]	n/a	catFR1	4	R1626S
1041.046	1.617	1703806	WORD	n/a	wordpools/wordpool_categorized_EN.txt	GLUE	OfficeSupplies	4	9	[0, 0, 0]	n/a	catFR1	4	R1626S
1042.663	0.783	1705418	WORD_OFF	n/a	n/a	GLUE	OfficeSupplies	4	9	[0, 0, 0]	n/a	catFR1	4	R1626S
1043.446	1.617	1706203	WORD	n/a	wordpools/wordpool_categorized_EN.txt	SHIRT	Clothing	5	9	[0, 0, 0]	n/a	catFR1	4	R1626S
1045.063	0.783	1707822	WORD_OFF	n/a	n/a	SHIRT	Clothing	5	9	[0, 0, 0]	n/a	catFR1	4	R1626S
1045.846	1.6	1708604	WORD	n/a	wordpools/wordpool_categorized_EN.txt	SHOES	Clothing	6	9	[0, 0, 0]	n/a	catFR1	4	R1626S
1047.446	0.817	1710206	WORD_OFF	n/a	n/a	SHOES	Clothing	6	9	[0, 0, 0]	n/a	catFR1	4	R1626S
1048.263	1.615	1711017	WORD	n/a	wordpools/wordpool_categorized_EN.txt	STAPLER	OfficeSupplies	7	9	[0, 0, 0]	n/a	catFR1	4	R1626S
1049.878	0.968	1712639	WORD_OFF	n/a	n/a	STAPLER	OfficeSupplies	7	9	[0, 0, 0]	n/a	catFR1	4	R1626S
1050.846	1.616	1713602	WORD	n/a	wordpools/wordpool_categorized_EN.txt	PAPER	OfficeSupplies	8	9	[0, 0, 0]	n/a	catFR1	4	R1626S
1052.462	1.001	1715224	WORD_OFF	n/a	n/a	PAPER	OfficeSupplies	8	9	[0, 0, 0]	n/a	catFR1	4	R1626S
1053.463	1.617	1716225	WORD	n/a	wordpools/wordpool_categorized_EN.txt	MAPLE	Trees	9	9	[0, 0, 0]	n/a	catFR1	4	R1626S
1055.08	0.883	1717837	WORD_OFF	n/a	n/a	MAPLE	Trees	9	9	[0, 0, 0]	n/a	catFR1	4	R1626S
1055.963	1.617	1718724	WORD	n/a	wordpools/wordpool_categorized_EN.txt	SPRUCE	Trees	10	9	[0, 0, 0]	n/a	catFR1	4	R1626S
1057.58	0.783	1720336	WORD_OFF	n/a	n/a	SPRUCE	Trees	10	9	[0, 0, 0]	n/a	catFR1	4	R1626S
1058.363	1.6	1721118	WORD	n/a	wordpools/wordpool_categorized_EN.txt	UNDERWEAR	Clothing	11	9	[0, 0, 0]	n/a	catFR1	4	R1626S
1059.963	0.833	1722721	WORD_OFF	n/a	n/a	UNDERWEAR	Clothing	11	9	[0, 0, 0]	n/a	catFR1	4	R1626S
1060.796	1.6	1723551	WORD	n/a	wordpools/wordpool_categorized_EN.txt	BLOUSE	Clothing	12	9	[0, 0, 0]	n/a	catFR1	4	R1626S
1062.396	0.002	1725153	WORD_OFF	n/a	n/a	BLOUSE	Clothing	12	9	[0, 0, 0]	n/a	catFR1	4	R1626S
1062.398	0.0	1725153	ENCODING_END	n/a	n/a	n/a	n/a	-999	9	[0, 0, 0]	n/a	catFR1	4	R1626S
1062.398	0.0	1725153	DISTRACT_START	n/a	n/a	n/a	n/a	-999	9	[0, 0, 0]	n/a	catFR1	4	R1626S
1062.397	0.001	1725153	PROB	0.001	n/a	n/a	n/a	-999	9	[1, 6, 2]	9	catFR1	4	R1626S
1062.398	5.899	1725154	START	n/a	n/a	n/a	n/a	-999	9	[-999, -999, -999]	n/a	catFR1	4	R1626S
1068.297	8.132	1731052	PROB	8.132	n/a	n/a	n/a	-999	9	[1, 6, 8]	15	catFR1	4	R1626S
1076.429	5.368	1739184	PROB	5.368	n/a	n/a	n/a	-999	9	[4, 5, 8]	17	catFR1	4	R1626S
1081.797	4.966	1744552	PROB	4.966	n/a	n/a	n/a	-999	9	[3, 8, 3]	14	catFR1	4	R1626S
1086.763	0.0	1749518	STOP	n/a	n/a	n/a	n/a	-999	9	[-999, -999, -999]	n/a	catFR1	4	R1626S
1086.763	2.167	1749524	DISTRACT_END	n/a	n/a	n/a	n/a	-999	9	[0, 0, 0]	n/a	catFR1	4	R1626S
1088.93	5.958	1751689	REC_START	n/a	n/a	n/a	n/a	-999	9	[0, 0, 0]	n/a	catFR1	4	R1626S
1094.888	7.792	1757642	REC_WORD	7.792	n/a	WILLOW	Trees	1	9	[0, 0, 0]	n/a	catFR1	4	R1626S
1102.68	12.195	1765434	REC_WORD	12.195	n/a	OAK	Trees	-999	9	[0, 0, 0]	n/a	catFR1	4	R1626S
1114.875	4.228	1777628	REC_WORD_VV	4.228	n/a	<>	n/a	-999	9	[0, 0, 0]	n/a	catFR1	4	R1626S
1119.103	2.142	1781859	REC_END	n/a	n/a	n/a	n/a	-999	9	[0, 0, 0]	n/a	catFR1	4	R1626S
1121.245	10.351	1784005	COUNTDOWN_START	n/a	n/a	n/a	n/a	-999	10	[0, 0, 0]	n/a	catFR1	4	R1626S
1131.596	0.0	1794355	COUNTDOWN_END	n/a	n/a	n/a	n/a	-999	10	[0, 0, 0]	n/a	catFR1	4	R1626S
1131.596	1.984	1794355	ENCODING_START	n/a	n/a	n/a	n/a	-999	10	[0, 0, 0]	n/a	catFR1	4	R1626S
1133.58	1.616	1796339	WORD	n/a	wordpools/wordpool_categorized_EN.txt	DRUM	Instruments	1	10	[0, 0, 0]	n/a	catFR1	4	R1626S
1135.196	0.767	1797951	WORD_OFF	n/a	n/a	DRUM	Instruments	1	10	[0, 0, 0]	n/a	catFR1	4	R1626S
1135.963	1.6	1798714	WORD	n/a	wordpools/wordpool_categorized_EN.txt	TUBA	Instruments	2	10	[0, 0, 0]	n/a	catFR1	4	R1626S
1137.563	0.933	1800316	WORD_OFF	n/a	n/a	TUBA	Instruments	2	10	[0, 0, 0]	n/a	catFR1	4	R1626S
1138.496	1.614	1801251	WORD	n/a	wordpools/wordpool_categorized_EN.txt	SODA	Beverages	3	10	[0, 0, 0]	n/a	catFR1	4	R1626S
1140.11	0.87	1802863	WORD_OFF	n/a	n/a	SODA	Beverages	3	10	[0, 0, 0]	n/a	catFR1	4	R1626S
1140.98	1.602	1803731	WORD	n/a	wordpools/wordpool_categorized_EN.txt	COFFEE	Beverages	4	10	[0, 0, 0]	n/a	catFR1	4	R1626S
1142.582	0.864	1805333	WORD_OFF	n/a	n/a	COFFEE	Beverages	4	10	[0, 0, 0]	n/a	catFR1	4	R1626S
1143.446	1.617	1806201	WORD	n/a	wordpools/wordpool_categorized_EN.txt	HICKORY	Trees	5	10	[0, 0, 0]	n/a	catFR1	4	R1626S
1145.063	0.883	1807813	WORD_OFF	n/a	n/a	HICKORY	Trees	5	10	[0, 0, 0]	n/a	catFR1	4	R1626S
1145.946	1.6	1808701	WORD	n/a	wordpools/wordpool_categorized_EN.txt	CYPRESS	Trees	6	10	[0, 0, 0]	n/a	catFR1	4	R1626S
1147.546	0.934	1810303	WORD_OFF	n/a	n/a	CYPRESS	Trees	6	10	[0, 0, 0]	n/a	catFR1	4	R1626S
1148.48	1.599	1811238	WORD	n/a	wordpools/wordpool_categorized_EN.txt	BEER	Beverages	7	10	[0, 0, 0]	n/a	catFR1	4	R1626S
1150.079	0.801	1812831	WORD_OFF	n/a	n/a	BEER	Beverages	7	10	[0, 0, 0]	n/a	catFR1	4	R1626S
1150.88	1.616	1813632	WORD	n/a	wordpools/wordpool_categorized_EN.txt	CIDER	Beverages	8	10	[0, 0, 0]	n/a	catFR1	4	R1626S
1152.496	0.95	1815253	WORD_OFF	n/a	n/a	CIDER	Beverages	8	10	[0, 0, 0]	n/a	catFR1	4	R1626S
1153.446	1.616	1816198	WORD	n/a	wordpools/wordpool_categorized_EN.txt	BASS	Instruments	9	10	[0, 0, 0]	n/a	catFR1	4	R1626S
1155.062	0.966	1817819	WORD_OFF	n/a	n/a	BASS	Instruments	9	10	[0, 0, 0]	n/a	catFR1	4	R1626S
1156.028	1.601	1818783	WORD	n/a	wordpools/wordpool_categorized_EN.txt	FLUTE	Instruments	10	10	[0, 0, 0]	n/a	catFR1	4	R1626S
1157.629	0.817	1820385	WORD_OFF	n/a	n/a	FLUTE	Instruments	10	10	[0, 0, 0]	n/a	catFR1	4	R1626S
1158.446	1.617	1821196	WORD	n/a	wordpools/wordpool_categorized_EN.txt	EVERGREEN	Trees	11	10	[0, 0, 0]	n/a	catFR1	4	R1626S
1160.063	0.932	1822817	WORD_OFF	n/a	n/a	EVERGREEN	Trees	11	10	[0, 0, 0]	n/a	catFR1	4	R1626S
1160.995	1.616	1823752	WORD	n/a	wordpools/wordpool_categorized_EN.txt	BIRCH	Trees	12	10	[0, 0, 0]	n/a	catFR1	4	R1626S
1162.611	0.001	1825362	START	n/a	n/a	n/a	n/a	-999	10	[-999, -999, -999]	n/a	catFR1	4	R1626S
1162.612	0.0	1825363	PROB	0.0	n/a	n/a	n/a	-999	10	[3, 6, 4]	13	catFR1	4	R1626S
1162.61	0.001	1825364	WORD_OFF	n/a	n/a	BIRCH	Trees	12	10	[0, 0, 0]	n/a	catFR1	4	R1626S
1162.611	0.0	1825364	ENCODING_END	n/a	n/a	n/a	n/a	-999	10	[0, 0, 0]	n/a	catFR1	4	R1626S
1162.611	5.869	1825364	DISTRACT_START	n/a	n/a	n/a	n/a	-999	10	[0, 0, 0]	n/a	catFR1	4	R1626S
1168.48	8.433	1831231	PROB	8.433	n/a	n/a	n/a	-999	10	[8, 1, 4]	13	catFR1	4	R1626S
1176.913	4.2	1839663	PROB	4.2	n/a	n/a	n/a	-999	10	[5, 3, 5]	13	catFR1	4	R1626S
1181.113	5.083	1843863	PROB	5.083	n/a	n/a	n/a	-999	10	[4, 5, 2]	11	catFR1	4	R1626S
1186.196	0.0	1848946	STOP	n/a	n/a	n/a	n/a	-999	10	[-999, -999, -999]	n/a	catFR1	4	R1626S
1186.196	2.333	1848953	DISTRACT_END	n/a	n/a	n/a	n/a	-999	10	[0, 0, 0]	n/a	catFR1	4	R1626S
1188.529	5.677	1851280	REC_START	n/a	n/a	n/a	n/a	-999	10	[0, 0, 0]	n/a	catFR1	4	R1626S
1194.206	3.455	1856956	REC_WORD	3.455	n/a	SODA	Beverages	3	10	[0, 0, 0]	n/a	catFR1	4	R1626S
1197.661	3.265	1860410	REC_WORD	3.265	n/a	CIDER	Beverages	8	10	[0, 0, 0]	n/a	catFR1	4	R1626S
1200.926	17.797	1863675	REC_WORD	17.797	n/a	BEER	Beverages	7	10	[0, 0, 0]	n/a	catFR1	4	R1626S
1218.723	2.089	1881479	REC_END	n/a	n/a	n/a	n/a	-999	10	[0, 0, 0]	n/a	catFR1	4	R1626S
1220.812	10.35	1883568	COUNTDOWN_START	n/a	n/a	n/a	n/a	-999	11	[0, 0, 0]	n/a	catFR1	4	R1626S
1231.162	0.0	1893917	COUNTDOWN_END	n/a	n/a	n/a	n/a	-999	11	[0, 0, 0]	n/a	catFR1	4	R1626S
1231.162	2.017	1893917	ENCODING_START	n/a	n/a	n/a	n/a	-999	11	[0, 0, 0]	n/a	catFR1	4	R1626S
1233.179	1.6	1895930	WORD	n/a	wordpools/wordpool_categorized_EN.txt	ONION	Vegetables	1	11	[0, 0, 0]	n/a	catFR1	4	R1626S
1234.779	0.767	1897532	WORD_OFF	n/a	n/a	ONION	Vegetables	1	11	[0, 0, 0]	n/a	catFR1	4	R1626S
1235.546	1.6	1898295	WORD	n/a	wordpools/wordpool_categorized_EN.txt	CORN	Vegetables	2	11	[0, 0, 0]	n/a	catFR1	4	R1626S
1237.146	0.917	1899898	WORD_OFF	n/a	n/a	CORN	Vegetables	2	11	[0, 0, 0]	n/a	catFR1	4	R1626S
1238.063	1.616	1900813	WORD	n/a	wordpools/wordpool_categorized_EN.txt	RULER	OfficeSupplies	3	11	[0, 0, 0]	n/a	catFR1	4	R1626S
1239.679	0.833	1902425	WORD_OFF	n/a	n/a	RULER	OfficeSupplies	3	11	[0, 0, 0]	n/a	catFR1	4	R1626S
1240.512	1.601	1903265	WORD	n/a	wordpools/wordpool_categorized_EN.txt	PEN	OfficeSupplies	4	11	[0, 0, 0]	n/a	catFR1	4	R1626S
1242.113	0.933	1904867	WORD_OFF	n/a	n/a	PEN	OfficeSupplies	4	11	[0, 0, 0]	n/a	catFR1	4	R1626S
1243.046	1.6	1905792	WORD	n/a	wordpools/wordpool_categorized_EN.txt	TORNADO	Weather	5	11	[0, 0, 0]	n/a	catFR1	4	R1626S
1244.646	0.9	1907395	WORD_OFF	n/a	n/a	TORNADO	Weather	5	11	[0, 0, 0]	n/a	catFR1	4	R1626S
1245.546	1.6	1908292	WORD	n/a	wordpools/wordpool_categorized_EN.txt	WIND	Weather	6	11	[0, 0, 0]	n/a	catFR1	4	R1626S
1247.146	0.949	1909894	WORD_OFF	n/a	n/a	WIND	Weather	6	11	[0, 0, 0]	n/a	catFR1	4	R1626S
1248.095	1.601	1910848	WORD	n/a	wordpools/wordpool_categorized_EN.txt	CAULIFLOWER	Vegetables	7	11	[0, 0, 0]	n/a	catFR1	4	R1626S
1249.696	0.833	1912450	WORD_OFF	n/a	n/a	CAULIFLOWER	Vegetables	7	11	[0, 0, 0]	n/a	catFR1	4	R1626S
1250.529	1.617	1913280	WORD	n/a	wordpools/wordpool_categorized_EN.txt	SPINACH	Vegetables	8	11	[0, 0, 0]	n/a	catFR1	4	R1626S
1252.146	0.833	1914892	WORD_OFF	n/a	n/a	SPINACH	Vegetables	8	11	[0, 0, 0]	n/a	catFR1	4	R1626S
1252.979	1.617	1915732	WORD	n/a	wordpools/wordpool_categorized_EN.txt	CLOUD	Weather	9	11	[0, 0, 0]	n/a	catFR1	4	R1626S
1254.596	0.816	1917344	WORD_OFF	n/a	n/a	CLOUD	Weather	9	11	[0, 0, 0]	n/a	catFR1	4	R1626S
1255.412	1.6	1918164	WORD	n/a	wordpools/wordpool_categorized_EN.txt	RAIN	Weather	10	11	[0, 0, 0]	n/a	catFR1	4	R1626S
1257.012	0.934	1919757	WORD_OFF	n/a	n/a	RAIN	Weather	10	11	[0, 0, 0]	n/a	catFR1	4	R1626S
1257.946	1.617	1920692	WORD	n/a	wordpools/wordpool_categorized_EN.txt	TAPE	OfficeSupplies	11	11	[0, 0, 0]	n/a	catFR1	4	R1626S
1259.563	0.983	1922313	WORD_OFF	n/a	n/a	TAPE	OfficeSupplies	11	11	[0, 0, 0]	n/a	catFR1	4	R1626S
1260.546	1.616	1923296	WORD	n/a	wordpools/wordpool_categorized_EN.txt	MARKER	OfficeSupplies	12	11	[0, 0, 0]	n/a	catFR1	4	R1626S
1262.162	0.001	1924908	WORD_OFF	n/a	n/a	MARKER	OfficeSupplies	12	11	[0, 0, 0]	n/a	catFR1	4	R1626S
1262.163	0.001	1924909	PROB	0.001	n/a	n/a	n/a	-999	11	[4, 7, 7]	18	catFR1	4	R1626S
1262.164	0.0	1924910	START	n/a	n/a	n/a	n/a	-999	11	[-999, -999, -999]	n/a	catFR1	4	R1626S
1262.164	0.0	1924917	ENCODING_END	n/a	n/a	n/a	n/a	-999	11	[0, 0, 0]	n/a	catFR1	4	R1626S
1262.164	20.315	1924917	DISTRACT_START	n/a	n/a	n/a	n/a	-999	11	[0, 0, 0]	n/a	catFR1	4	R1626S
1282.479	0.0	1945224	DISTRACT_END	n/a	n/a	n/a	n/a	-999	11	[0, 0, 0]	n/a	catFR1	4	R1626S
1282.479	2.033	1945225	STOP	n/a	n/a	n/a	n/a	-999	11	[-999, -999, -999]	n/a	catFR1	4	R1626S
1284.512	6.714	1947256	REC_START	n/a	n/a	n/a	n/a	-999	11	[0, 0, 0]	n/a	catFR1	4	R1626S
1291.226	3.215	1953971	REC_WORD	3.215	n/a	ONION	Vegetables	1	11	[0, 0, 0]	n/a	catFR1	4	R1626S
1294.441	20.239	1957186	REC_WORD	20.239	n/a	TORNADO	Weather	5	11	[0, 0, 0]	n/a	catFR1	4	R1626S
1314.68	1.899	1977426	REC_END	n/a	n/a	n/a	n/a	-999	11	[0, 0, 0]	n/a	catFR1	4	R1626S
1316.579	10.349	1979324	COUNTDOWN_START	n/a	n/a	n/a	n/a	-999	12	[0, 0, 0]	n/a	catFR1	4	R1626S
1326.928	0.001	1989674	COUNTDOWN_END	n/a	n/a	n/a	n/a	-999	12	[0, 0, 0]	n/a	catFR1	4	R1626S
1326.929	2.083	1989674	ENCODING_START	n/a	n/a	n/a	n/a	-999	12	[0, 0, 0]	n/a	catFR1	4	R1626S
1329.012	1.6	1991763	WORD	n/a	wordpools/wordpool_categorized_EN.txt	ORANGE	Fruit	1	12	[0, 0, 0]	n/a	catFR1	4	R1626S
1330.612	1.0	1993355	WORD_OFF	n/a	n/a	ORANGE	Fruit	1	12	[0, 0, 0]	n/a	catFR1	4	R1626S
1331.612	1.616	1994357	WORD	n/a	wordpools/wordpool_categorized_EN.txt	APPLE	Fruit	2	12	[0, 0, 0]	n/a	catFR1	4	R1626S
1333.228	0.85	1995979	WORD_OFF	n/a	n/a	APPLE	Fruit	2	12	[0, 0, 0]	n/a	catFR1	4	R1626S
1334.078	1.601	1996827	WORD	n/a	wordpools/wordpool_categorized_EN.txt	RATCHET	Tools	3	12	[0, 0, 0]	n/a	catFR1	4	R1626S
1335.679	0.833	1998420	WORD_OFF	n/a	n/a	RATCHET	Tools	3	12	[0, 0, 0]	n/a	catFR1	4	R1626S
1336.512	1.6	1999260	WORD	n/a	wordpools/wordpool_categorized_EN.txt	HAMMER	Tools	4	12	[0, 0, 0]	n/a	catFR1	4	R1626S
1338.112	0.934	2000862	WORD_OFF	n/a	n/a	HAMMER	Tools	4	12	[0, 0, 0]	n/a	catFR1	4	R1626S
1339.046	1.616	2001787	WORD	n/a	wordpools/wordpool_categorized_EN.txt	FOG	Weather	5	12	[0, 0, 0]	n/a	catFR1	4	R1626S
1340.662	0.85	2003409	WORD_OFF	n/a	n/a	FOG	Weather	5	12	[0, 0, 0]	n/a	catFR1	4	R1626S
1341.512	1.617	2004258	WORD	n/a	wordpools/wordpool_categorized_EN.txt	HURRICANE	Weather	6	12	[0, 0, 0]	n/a	catFR1	4	R1626S
1343.129	0.783	2005879	WORD_OFF	n/a	n/a	HURRICANE	Weather	6	12	[0, 0, 0]	n/a	catFR1	4	R1626S
1343.912	1.617	2006662	WORD	n/a	wordpools/wordpool_categorized_EN.txt	SHOVEL	Tools	7	12	[0, 0, 0]	n/a	catFR1	4	R1626S
1345.529	0.933	2008274	WORD_OFF	n/a	n/a	SHOVEL	Tools	7	12	[0, 0, 0]	n/a	catFR1	4	R1626S
1346.462	1.6	2009208	WORD	n/a	wordpools/wordpool_categorized_EN.txt	SANDER	Tools	8	12	[0, 0, 0]	n/a	catFR1	4	R1626S
1348.062	0.9	2010811	WORD_OFF	n/a	n/a	SANDER	Tools	8	12	[0, 0, 0]	n/a	catFR1	4	R1626S
1348.962	1.6	2011707	WORD	n/a	wordpools/wordpool_categorized_EN.txt	HUMIDITY	Weather	9	12	[0, 0, 0]	n/a	catFR1	4	R1626S
1350.562	0.883	2013310	WORD_OFF	n/a	n/a	HUMIDITY	Weather	9	12	[0, 0, 0]	n/a	catFR1	4	R1626S
1351.445	1.617	2014187	WORD	n/a	wordpools/wordpool_categorized_EN.txt	SNOW	Weather	10	12	[0, 0, 0]	n/a	catFR1	4	R1626S
1353.062	0.967	2015809	WORD_OFF	n/a	n/a	SNOW	Weather	10	12	[0, 0, 0]	n/a	catFR1	4	R1626S
1354.029	1.6	2016772	WORD	n/a	wordpools/wordpool_categorized_EN.txt	PEACH	Fruit	11	12	[0, 0, 0]	n/a	catFR1	4	R1626S
1355.629	0.917	2018375	WORD_OFF	n/a	n/a	PEACH	Fruit	11	12	[0, 0, 0]	n/a	catFR1	4	R1626S
1356.546	1.6	2019300	WORD	n/a	wordpools/wordpool_categorized_EN.txt	STRAWBERRY	Fruit	12	12	[0, 0, 0]	n/a	catFR1	4	R1626S
1358.146	0.001	2020888	PROB	0.001	n/a	n/a	n/a	-999	12	[2, 6, 8]	16	catFR1	4	R1626S
1358.147	0.0	2020889	START	n/a	n/a	n/a	n/a	-999	12	[-999, -999, -999]	n/a	catFR1	4	R1626S
1358.146	0.001	2020893	WORD_OFF	n/a	n/a	STRAWBERRY	Fruit	12	12	[0, 0, 0]	n/a	catFR1	4	R1626S
1358.147	0.0	2020893	ENCODING_END	n/a	n/a	n/a	n/a	-999	12	[0, 0, 0]	n/a	catFR1	4	R1626S
1358.147	6.131	2020893	DISTRACT_START	n/a	n/a	n/a	n/a	-999	12	[0, 0, 0]	n/a	catFR1	4	R1626S
1364.278	4.218	2027020	PROB	4.218	n/a	n/a	n/a	-999	12	[7, 7, 1]	15	catFR1	4	R1626S
1368.496	6.832	2031238	PROB	6.832	n/a	n/a	n/a	-999	12	[7, 7, 1]	15	catFR1	4	R1626S
1375.328	8.334	2038069	PROB	8.334	n/a	n/a	n/a	-999	12	[6, 3, 5]	14	catFR1	4	R1626S
1383.662	0.0	2046403	STOP	n/a	n/a	n/a	n/a	-999	12	[-999, -999, -999]	n/a	catFR1	4	R1626S
1383.662	2.4	2046408	DISTRACT_END	n/a	n/a	n/a	n/a	-999	12	[0, 0, 0]	n/a	catFR1	4	R1626S
1386.062	4.395	2048803	REC_START	n/a	n/a	n/a	n/a	-999	12	[0, 0, 0]	n/a	catFR1	4	R1626S
1390.457	3.735	2053198	REC_WORD	3.735	n/a	HURRICANE	Weather	6	12	[0, 0, 0]	n/a	catFR1	4	R1626S
1394.192	21.701	2056932	REC_WORD	21.701	n/a	STRAWBERRY	Fruit	12	12	[0, 0, 0]	n/a	catFR1	4	R1626S
1415.893	0.358	2078632	REC_WORD_VV	0.358	n/a	<>	n/a	-999	12	[0, 0, 0]	n/a	catFR1	4	R1626S
1416.251	0.0	2078992	REC_END	n/a	n/a	n/a	n/a	-999	12	[0, 0, 0]	n/a	catFR1	4	R1626S
