onset	duration	sample	trial_type	response_time	stim_file	item_name	category	serialpos	list	test	answer	experiment	session	subject
0.0	0.0	8146	INSTRUCT_START	n/a	n/a	n/a	n/a	-999	-999	[0, 0, 0]	n/a	catFR1	0	R1190P
0.0	11.089	8146	INSTRUCT_END	n/a	n/a	n/a	n/a	-999	-999	[0, 0, 0]	n/a	catFR1	0	R1190P
11.089	0.0	19235	SESS_START	n/a	n/a	n/a	n/a	-999	-999	[0, 0, 0]	n/a	catFR1	0	R1190P
11.089	262.063	19235	MIC_TEST	n/a	n/a	n/a	n/a	-999	-999	[0, 0, 0]	n/a	catFR1	0	R1190P
273.152	5.484	281284	PRACTICE_TRIAL	n/a	n/a	n/a	n/a	-999	-1	[0, 0, 0]	n/a	catFR1	0	R1190P
278.636	10.0	286768	COUNTDOWN_START	n/a	n/a	n/a	n/a	-999	-1	[0, 0, 0]	n/a	catFR1	0	R1190P
289.064	0.007	297196	COUNTDOWN_END	n/a	n/a	n/a	n/a	-999	-1	[0, 0, 0]	n/a	catFR1	0	R1190P
289.071	1.6	297203	PRACTICE_ORIENT	n/a	n/a	n/a	n/a	-999	-1	[0, 0, 0]	n/a	catFR1	0	R1190P
290.689	2.149	298821	PRACTICE_ORIENT_OFF	n/a	n/a	n/a	n/a	-999	-1	[0, 0, 0]	n/a	catFR1	0	R1190P
292.838	1.6	300969	PRACTICE_WORD	n/a	n/a	RHINO	n/a	-1	-1	[0, 0, 0]	n/a	catFR1	0	R1190P
294.457	0.966	302588	PRACTICE_WORD_OFF	n/a	n/a	RHINO	n/a	-999	-1	[0, 0, 0]	n/a	catFR1	0	R1190P
295.423	1.6	303554	PRACTICE_WORD	n/a	n/a	BEAM	n/a	-1	-1	[0, 0, 0]	n/a	catFR1	0	R1190P
297.039	0.9	305170	PRACTICE_WORD_OFF	n/a	n/a	BEAM	n/a	-999	-1	[0, 0, 0]	n/a	catFR1	0	R1190P
297.939	1.6	306070	PRACTICE_WORD	n/a	n/a	WATCH	n/a	-1	-1	[0, 0, 0]	n/a	catFR1	0	R1190P
299.558	0.916	307689	PRACTICE_WORD_OFF	n/a	n/a	WATCH	n/a	-999	-1	[0, 0, 0]	n/a	catFR1	0	R1190P
300.474	1.6	308605	PRACTICE_WORD	n/a	n/a	TONGUE	n/a	-1	-1	[0, 0, 0]	n/a	catFR1	0	R1190P
302.09	0.884	310221	PRACTICE_WORD_OFF	n/a	n/a	TONGUE	n/a	-999	-1	[0, 0, 0]	n/a	catFR1	0	R1190P
302.974	1.6	311105	PRACTICE_WORD	n/a	n/a	WAGON	n/a	-1	-1	[0, 0, 0]	n/a	catFR1	0	R1190P
304.592	0.916	312723	PRACTICE_WORD_OFF	n/a	n/a	WAGON	n/a	-999	-1	[0, 0, 0]	n/a	catFR1	0	R1190P
305.508	1.6	313639	PRACTICE_WORD	n/a	n/a	ATTIC	n/a	-1	-1	[0, 0, 0]	n/a	catFR1	0	R1190P
307.125	0.8	315256	PRACTICE_WORD_OFF	n/a	n/a	ATTIC	n/a	-999	-1	[0, 0, 0]	n/a	catFR1	0	R1190P
307.925	1.6	316056	PRACTICE_WORD	n/a	n/a	CAMEL	n/a	-1	-1	[0, 0, 0]	n/a	catFR1	0	R1190P
309.543	0.916	317674	PRACTICE_WORD_OFF	n/a	n/a	CAMEL	n/a	-999	-1	[0, 0, 0]	n/a	catFR1	0	R1190P
310.459	1.6	318589	PRACTICE_WORD	n/a	n/a	FLOOD	n/a	-1	-1	[0, 0, 0]	n/a	catFR1	0	R1190P
312.075	1.017	320205	PRACTICE_WORD_OFF	n/a	n/a	FLOOD	n/a	-999	-1	[0, 0, 0]	n/a	catFR1	0	R1190P
313.092	1.6	321222	PRACTICE_WORD	n/a	n/a	COTTON	n/a	-1	-1	[0, 0, 0]	n/a	catFR1	0	R1190P
314.694	0.883	322824	PRACTICE_WORD_OFF	n/a	n/a	COTTON	n/a	-999	-1	[0, 0, 0]	n/a	catFR1	0	R1190P
315.577	1.6	323707	PRACTICE_WORD	n/a	n/a	RING	n/a	-1	-1	[0, 0, 0]	n/a	catFR1	0	R1190P
317.193	0.95	325323	PRACTICE_WORD_OFF	n/a	n/a	RING	n/a	-999	-1	[0, 0, 0]	n/a	catFR1	0	R1190P
318.143	1.6	326273	PRACTICE_WORD	n/a	n/a	IRON	n/a	-1	-1	[0, 0, 0]	n/a	catFR1	0	R1190P
319.76	0.785	327890	PRACTICE_WORD_OFF	n/a	n/a	IRON	n/a	-999	-1	[0, 0, 0]	n/a	catFR1	0	R1190P
320.545	1.6	328675	PRACTICE_WORD	n/a	n/a	CHEST	n/a	-1	-1	[0, 0, 0]	n/a	catFR1	0	R1190P
322.161	0.0	330291	ENCODING_END	n/a	n/a	n/a	n/a	-999	-1	[0, 0, 0]	n/a	catFR1	0	R1190P
322.161	0.0	330291	PRACTICE_WORD_OFF	n/a	n/a	CHEST	n/a	-999	-1	[0, 0, 0]	n/a	catFR1	0	R1190P
322.161	0.0	330291	DISTRACT_START	n/a	n/a	n/a	n/a	-999	-1	[0, 0, 0]	n/a	catFR1	0	R1190P
322.161	0.016	330291	START	n/a	n/a	n/a	n/a	-999	-1	[-999, -999, -999]	n/a	catFR1	0	R1190P
322.177	13.636	330307	PROB	13.611	n/a	n/a	n/a	-999	-1	[6, 5, 7]	17.0	catFR1	0	R1190P
335.813	9.254	343942	PROB	9.254	n/a	n/a	n/a	-999	-1	[2, 5, 2]	9.0	catFR1	0	R1190P
345.067	0.015	353196	STOP	n/a	n/a	n/a	n/a	-999	-1	[-999, -999, -999]	n/a	catFR1	0	R1190P
345.082	0.633	353211	DISTRACT_END	n/a	n/a	n/a	n/a	-999	-1	[0, 0, 0]	n/a	catFR1	0	R1190P
345.715	0.518	353844	RETRIEVAL_ORIENT	n/a	n/a	n/a	n/a	-999	-1	[0, 0, 0]	n/a	catFR1	0	R1190P
346.233	30.012	354362	PRACTICE_REC_START	n/a	n/a	n/a	n/a	-999	-1	[0, 0, 0]	n/a	catFR1	0	R1190P
376.245	20.93	384372	PRACTICE_REC_END	n/a	n/a	n/a	n/a	-999	-1	[0, 0, 0]	n/a	catFR1	0	R1190P
397.175	0.5	405301	TRIAL	n/a	n/a	n/a	n/a	-999	1	[0, 0, 0]	n/a	catFR1	0	R1190P
397.675	10.0	405801	COUNTDOWN_START	n/a	n/a	n/a	n/a	-999	1	[0, 0, 0]	n/a	catFR1	0	R1190P
408.103	0.007	416229	COUNTDOWN_END	n/a	n/a	n/a	n/a	-999	1	[0, 0, 0]	n/a	catFR1	0	R1190P
408.11	1.6	416236	ORIENT	n/a	n/a	n/a	n/a	-999	1	[0, 0, 0]	n/a	catFR1	0	R1190P
409.727	1.885	417852	ORIENT_OFF	n/a	n/a	n/a	n/a	-999	1	[0, 0, 0]	n/a	catFR1	0	R1190P
411.612	1.6	419737	WORD	n/a	wordpools/wordpool_categorized_EN.txt	GOAT	FarmAnimals	1	1	[0, 0, 0]	n/a	catFR1	0	R1190P
413.228	0.867	421353	WORD_OFF	n/a	n/a	GOAT	n/a	1	1	[0, 0, 0]	n/a	catFR1	0	R1190P
414.095	1.6	422220	WORD	n/a	wordpools/wordpool_categorized_EN.txt	PIG	FarmAnimals	2	1	[0, 0, 0]	n/a	catFR1	0	R1190P
415.712	0.834	423837	WORD_OFF	n/a	n/a	PIG	n/a	2	1	[0, 0, 0]	n/a	catFR1	0	R1190P
416.546	1.6	424671	WORD	n/a	wordpools/wordpool_categorized_EN.txt	FRISBEE	Toys	3	1	[0, 0, 0]	n/a	catFR1	0	R1190P
418.162	0.867	426287	WORD_OFF	n/a	n/a	FRISBEE	n/a	3	1	[0, 0, 0]	n/a	catFR1	0	R1190P
419.029	1.6	427154	WORD	n/a	wordpools/wordpool_categorized_EN.txt	FOOTBALL	Toys	4	1	[0, 0, 0]	n/a	catFR1	0	R1190P
420.647	0.884	428772	WORD_OFF	n/a	n/a	FOOTBALL	n/a	4	1	[0, 0, 0]	n/a	catFR1	0	R1190P
421.531	1.6	429656	WORD	n/a	wordpools/wordpool_categorized_EN.txt	PEAR	Fruit	5	1	[0, 0, 0]	n/a	catFR1	0	R1190P
423.146	0.95	431271	WORD_OFF	n/a	n/a	PEAR	n/a	5	1	[0, 0, 0]	n/a	catFR1	0	R1190P
424.096	1.6	432221	WORD	n/a	wordpools/wordpool_categorized_EN.txt	CHERRY	Fruit	6	1	[0, 0, 0]	n/a	catFR1	0	R1190P
425.714	0.934	433839	WORD_OFF	n/a	n/a	CHERRY	n/a	6	1	[0, 0, 0]	n/a	catFR1	0	R1190P
426.648	1.6	434773	WORD	n/a	wordpools/wordpool_categorized_EN.txt	HEN	FarmAnimals	7	1	[0, 0, 0]	n/a	catFR1	0	R1190P
428.265	0.783	436390	WORD_OFF	n/a	n/a	HEN	n/a	7	1	[0, 0, 0]	n/a	catFR1	0	R1190P
429.048	1.6	437172	WORD	n/a	wordpools/wordpool_categorized_EN.txt	COW	FarmAnimals	8	1	[0, 0, 0]	n/a	catFR1	0	R1190P
430.665	0.867	438789	WORD_OFF	n/a	n/a	COW	n/a	8	1	[0, 0, 0]	n/a	catFR1	0	R1190P
431.532	1.6	439656	WORD	n/a	wordpools/wordpool_categorized_EN.txt	PUZZLE	Toys	9	1	[0, 0, 0]	n/a	catFR1	0	R1190P
433.148	0.984	441272	WORD_OFF	n/a	n/a	PUZZLE	n/a	9	1	[0, 0, 0]	n/a	catFR1	0	R1190P
434.132	1.6	442256	WORD	n/a	wordpools/wordpool_categorized_EN.txt	BLOCKS	Toys	10	1	[0, 0, 0]	n/a	catFR1	0	R1190P
435.749	0.834	443873	WORD_OFF	n/a	n/a	BLOCKS	n/a	10	1	[0, 0, 0]	n/a	catFR1	0	R1190P
436.583	1.6	444707	WORD	n/a	wordpools/wordpool_categorized_EN.txt	LIME	Fruit	11	1	[0, 0, 0]	n/a	catFR1	0	R1190P
438.199	0.767	446323	WORD_OFF	n/a	n/a	LIME	n/a	11	1	[0, 0, 0]	n/a	catFR1	0	R1190P
438.966	1.6	447090	WORD	n/a	wordpools/wordpool_categorized_EN.txt	LEMON	Fruit	12	1	[0, 0, 0]	n/a	catFR1	0	R1190P
440.584	0.0	448708	ENCODING_END	n/a	n/a	n/a	n/a	-999	1	[0, 0, 0]	n/a	catFR1	0	R1190P
440.584	0.132	448708	WORD_OFF	n/a	n/a	LEMON	n/a	12	1	[0, 0, 0]	n/a	catFR1	0	R1190P
440.716	0.001	448840	DISTRACT_START	n/a	n/a	n/a	n/a	-999	1	[0, 0, 0]	n/a	catFR1	0	R1190P
440.717	0.016	448841	START	n/a	n/a	n/a	n/a	-999	1	[-999, -999, -999]	n/a	catFR1	0	R1190P
440.733	8.468	448857	PROB	8.43	n/a	n/a	n/a	-999	1	[9, 3, 9]	21.0	catFR1	0	R1190P
449.201	5.851	457324	PROB	5.825	n/a	n/a	n/a	-999	1	[5, 2, 1]	8.0	catFR1	0	R1190P
455.052	7.617	463175	PROB	7.617	n/a	n/a	n/a	-999	1	[4, 7, 4]	15.0	catFR1	0	R1190P
462.669	0.019	470792	STOP	n/a	n/a	n/a	n/a	-999	1	[-999, -999, -999]	n/a	catFR1	0	R1190P
462.688	0.549	470811	DISTRACT_END	n/a	n/a	n/a	n/a	-999	1	[0, 0, 0]	n/a	catFR1	0	R1190P
463.237	0.518	471360	RETRIEVAL_ORIENT	n/a	n/a	n/a	n/a	-999	1	[0, 0, 0]	n/a	catFR1	0	R1190P
463.755	1.236	471878	REC_START	n/a	n/a	n/a	n/a	-999	1	[0, 0, 0]	n/a	catFR1	0	R1190P
464.991	1.451	473114	REC_WORD	1.236	n/a	FRISBEE	Toys	3	1	[0, 0, 0]	n/a	catFR1	0	R1190P
466.442	2.705	474565	REC_WORD	2.687	n/a	GOLF	n/a	-999	1	[0, 0, 0]	n/a	catFR1	0	R1190P
469.147	1.382	477269	REC_WORD_VV	5.392	n/a	<>	n/a	-999	1	[0, 0, 0]	n/a	catFR1	0	R1190P
470.529	0.945	478651	REC_WORD	6.774	n/a	LIME	Fruit	11	1	[0, 0, 0]	n/a	catFR1	0	R1190P
471.474	7.694	479596	REC_WORD	7.719	n/a	LEMON	Fruit	12	1	[0, 0, 0]	n/a	catFR1	0	R1190P
479.168	1.516	487290	REC_WORD_VV	15.413	n/a	<>	n/a	-999	1	[0, 0, 0]	n/a	catFR1	0	R1190P
480.684	0.718	488806	REC_WORD_VV	16.929	n/a	<>	n/a	-999	1	[0, 0, 0]	n/a	catFR1	0	R1190P
481.402	2.968	489524	REC_WORD	17.647	n/a	ACORN	n/a	-999	1	[0, 0, 0]	n/a	catFR1	0	R1190P
484.37	6.854	492492	REC_WORD_VV	20.615	n/a	<>	n/a	-999	1	[0, 0, 0]	n/a	catFR1	0	R1190P
491.224	2.396	499345	REC_WORD_VV	27.469	n/a	<>	n/a	-999	1	[0, 0, 0]	n/a	catFR1	0	R1190P
493.62	0.147	501741	REC_WORD_VV	29.865	n/a	<>	n/a	-999	1	[0, 0, 0]	n/a	catFR1	0	R1190P
493.767	15.312	501888	REC_END	n/a	n/a	n/a	n/a	-999	1	[0, 0, 0]	n/a	catFR1	0	R1190P
509.079	0.5	517199	TRIAL	n/a	n/a	n/a	n/a	-999	2	[0, 0, 0]	n/a	catFR1	0	R1190P
509.579	10.0	517699	COUNTDOWN_START	n/a	n/a	n/a	n/a	-999	2	[0, 0, 0]	n/a	catFR1	0	R1190P
520.007	0.008	528127	COUNTDOWN_END	n/a	n/a	n/a	n/a	-999	2	[0, 0, 0]	n/a	catFR1	0	R1190P
520.015	1.6	528135	ORIENT	n/a	n/a	n/a	n/a	-999	2	[0, 0, 0]	n/a	catFR1	0	R1190P
521.633	1.933	529753	ORIENT_OFF	n/a	n/a	n/a	n/a	-999	2	[0, 0, 0]	n/a	catFR1	0	R1190P
523.566	1.6	531686	WORD	n/a	wordpools/wordpool_categorized_EN.txt	MAPLE	Trees	1	2	[0, 0, 0]	n/a	catFR1	0	R1190P
525.182	0.951	533302	WORD_OFF	n/a	n/a	MAPLE	n/a	1	2	[0, 0, 0]	n/a	catFR1	0	R1190P
526.133	1.6	534253	WORD	n/a	wordpools/wordpool_categorized_EN.txt	CYPRESS	Trees	2	2	[0, 0, 0]	n/a	catFR1	0	R1190P
527.749	0.984	535868	WORD_OFF	n/a	n/a	CYPRESS	n/a	2	2	[0, 0, 0]	n/a	catFR1	0	R1190P
528.733	1.6	536852	WORD	n/a	wordpools/wordpool_categorized_EN.txt	CAR	Vehicles	3	2	[0, 0, 0]	n/a	catFR1	0	R1190P
530.351	0.816	538470	WORD_OFF	n/a	n/a	CAR	n/a	3	2	[0, 0, 0]	n/a	catFR1	0	R1190P
531.167	1.6	539286	WORD	n/a	wordpools/wordpool_categorized_EN.txt	MOTORCYCLE	Vehicles	4	2	[0, 0, 0]	n/a	catFR1	0	R1190P
532.784	0.868	540903	WORD_OFF	n/a	n/a	MOTORCYCLE	n/a	4	2	[0, 0, 0]	n/a	catFR1	0	R1190P
533.652	1.6	541771	WORD	n/a	wordpools/wordpool_categorized_EN.txt	HORSE	FarmAnimals	5	2	[0, 0, 0]	n/a	catFR1	0	R1190P
535.268	0.783	543387	WORD_OFF	n/a	n/a	HORSE	n/a	5	2	[0, 0, 0]	n/a	catFR1	0	R1190P
536.051	1.6	544170	WORD	n/a	wordpools/wordpool_categorized_EN.txt	CHICKEN	FarmAnimals	6	2	[0, 0, 0]	n/a	catFR1	0	R1190P
537.669	0.85	545788	WORD_OFF	n/a	n/a	CHICKEN	n/a	6	2	[0, 0, 0]	n/a	catFR1	0	R1190P
538.519	1.6	546638	WORD	n/a	wordpools/wordpool_categorized_EN.txt	BOAT	Vehicles	7	2	[0, 0, 0]	n/a	catFR1	0	R1190P
540.135	0.917	548254	WORD_OFF	n/a	n/a	BOAT	n/a	7	2	[0, 0, 0]	n/a	catFR1	0	R1190P
541.052	1.6	549171	WORD	n/a	wordpools/wordpool_categorized_EN.txt	PLANE	Vehicles	8	2	[0, 0, 0]	n/a	catFR1	0	R1190P
542.67	0.933	550789	WORD_OFF	n/a	n/a	PLANE	n/a	8	2	[0, 0, 0]	n/a	catFR1	0	R1190P
543.603	1.6	551722	WORD	n/a	wordpools/wordpool_categorized_EN.txt	ELM	Trees	9	2	[0, 0, 0]	n/a	catFR1	0	R1190P
545.219	0.767	553338	WORD_OFF	n/a	n/a	ELM	n/a	9	2	[0, 0, 0]	n/a	catFR1	0	R1190P
545.986	1.6	554105	WORD	n/a	wordpools/wordpool_categorized_EN.txt	PINE	Trees	10	2	[0, 0, 0]	n/a	catFR1	0	R1190P
547.587	0.817	555705	WORD_OFF	n/a	n/a	PINE	n/a	10	2	[0, 0, 0]	n/a	catFR1	0	R1190P
548.404	1.6	556522	WORD	n/a	wordpools/wordpool_categorized_EN.txt	ROOSTER	FarmAnimals	11	2	[0, 0, 0]	n/a	catFR1	0	R1190P
550.02	0.934	558138	WORD_OFF	n/a	n/a	ROOSTER	n/a	11	2	[0, 0, 0]	n/a	catFR1	0	R1190P
550.954	1.6	559072	WORD	n/a	wordpools/wordpool_categorized_EN.txt	LAMB	FarmAnimals	12	2	[0, 0, 0]	n/a	catFR1	0	R1190P
552.572	0.0	560690	ENCODING_END	n/a	n/a	n/a	n/a	-999	2	[0, 0, 0]	n/a	catFR1	0	R1190P
552.572	0.103	560690	WORD_OFF	n/a	n/a	LAMB	n/a	12	2	[0, 0, 0]	n/a	catFR1	0	R1190P
552.675	0.0	560793	DISTRACT_START	n/a	n/a	n/a	n/a	-999	2	[0, 0, 0]	n/a	catFR1	0	R1190P
552.675	0.014	560793	START	n/a	n/a	n/a	n/a	-999	2	[-999, -999, -999]	n/a	catFR1	0	R1190P
552.689	5.801	560807	PROB	5.762	n/a	n/a	n/a	-999	2	[9, 9, 2]	20.0	catFR1	0	R1190P
558.49	7.683	566608	PROB	7.649	n/a	n/a	n/a	-999	2	[8, 1, 6]	15.0	catFR1	0	R1190P
566.173	9.495	574291	PROB	9.495	n/a	n/a	n/a	-999	2	[3, 3, 9]	15.0	catFR1	0	R1190P
575.668	0.008	583785	STOP	n/a	n/a	n/a	n/a	-999	2	[-999, -999, -999]	n/a	catFR1	0	R1190P
575.676	0.7	583793	DISTRACT_END	n/a	n/a	n/a	n/a	-999	2	[0, 0, 0]	n/a	catFR1	0	R1190P
576.376	0.517	584493	RETRIEVAL_ORIENT	n/a	n/a	n/a	n/a	-999	2	[0, 0, 0]	n/a	catFR1	0	R1190P
576.893	1.311	585010	REC_START	n/a	n/a	n/a	n/a	-999	2	[0, 0, 0]	n/a	catFR1	0	R1190P
578.204	1.404	586321	REC_WORD	1.311	n/a	GOLF	n/a	-999	2	[0, 0, 0]	n/a	catFR1	0	R1190P
579.608	0.91	587725	REC_WORD_VV	2.715	n/a	<>	n/a	-999	2	[0, 0, 0]	n/a	catFR1	0	R1190P
580.518	1.0	588635	REC_WORD	3.625	n/a	CYPRESS	Trees	2	2	[0, 0, 0]	n/a	catFR1	0	R1190P
581.518	0.46	589635	REC_WORD_VV	4.625	n/a	<>	n/a	-999	2	[0, 0, 0]	n/a	catFR1	0	R1190P
581.978	3.523	590095	REC_WORD	5.085	n/a	PINE	Trees	10	2	[0, 0, 0]	n/a	catFR1	0	R1190P
585.501	1.056	593618	REC_WORD_VV	8.608	n/a	<>	n/a	-999	2	[0, 0, 0]	n/a	catFR1	0	R1190P
586.557	0.731	594673	REC_WORD_VV	9.664	n/a	<>	n/a	-999	2	[0, 0, 0]	n/a	catFR1	0	R1190P
587.288	2.595	595404	REC_WORD	10.395	n/a	MAPLE	Trees	1	2	[0, 0, 0]	n/a	catFR1	0	R1190P
589.883	2.918	597999	REC_WORD_VV	12.99	n/a	<>	n/a	-999	2	[0, 0, 0]	n/a	catFR1	0	R1190P
592.801	1.0	600917	REC_WORD_VV	15.908	n/a	<>	n/a	-999	2	[0, 0, 0]	n/a	catFR1	0	R1190P
593.801	1.82	601917	REC_WORD_VV	16.908	n/a	<>	n/a	-999	2	[0, 0, 0]	n/a	catFR1	0	R1190P
595.621	5.614	603737	REC_WORD_VV	18.728	n/a	<>	n/a	-999	2	[0, 0, 0]	n/a	catFR1	0	R1190P
601.235	5.671	609351	REC_WORD_VV	24.342	n/a	<>	n/a	-999	2	[0, 0, 0]	n/a	catFR1	0	R1190P
606.906	41.35	615021	REC_END	n/a	n/a	n/a	n/a	-999	2	[0, 0, 0]	n/a	catFR1	0	R1190P
648.256	0.5	656369	TRIAL	n/a	n/a	n/a	n/a	-999	3	[0, 0, 0]	n/a	catFR1	0	R1190P
648.756	10.0	656869	COUNTDOWN_START	n/a	n/a	n/a	n/a	-999	3	[0, 0, 0]	n/a	catFR1	0	R1190P
659.184	0.007	667297	COUNTDOWN_END	n/a	n/a	n/a	n/a	-999	3	[0, 0, 0]	n/a	catFR1	0	R1190P
659.191	1.6	667304	ORIENT	n/a	n/a	n/a	n/a	-999	3	[0, 0, 0]	n/a	catFR1	0	R1190P
660.808	2.167	668921	ORIENT_OFF	n/a	n/a	n/a	n/a	-999	3	[0, 0, 0]	n/a	catFR1	0	R1190P
662.975	1.6	671088	WORD	n/a	wordpools/wordpool_categorized_EN.txt	MOUNTAIN	Landscapes	1	3	[0, 0, 0]	n/a	catFR1	0	R1190P
664.593	0.766	672706	WORD_OFF	n/a	n/a	MOUNTAIN	n/a	1	3	[0, 0, 0]	n/a	catFR1	0	R1190P
665.359	1.6	673471	WORD	n/a	wordpools/wordpool_categorized_EN.txt	RIVER	Landscapes	2	3	[0, 0, 0]	n/a	catFR1	0	R1190P
666.976	0.833	675088	WORD_OFF	n/a	n/a	RIVER	n/a	2	3	[0, 0, 0]	n/a	catFR1	0	R1190P
667.809	1.6	675921	WORD	n/a	wordpools/wordpool_categorized_EN.txt	RAIN	Weather	3	3	[0, 0, 0]	n/a	catFR1	0	R1190P
669.427	0.917	677539	WORD_OFF	n/a	n/a	RAIN	n/a	3	3	[0, 0, 0]	n/a	catFR1	0	R1190P
670.344	1.6	678456	WORD	n/a	wordpools/wordpool_categorized_EN.txt	TORNADO	Weather	4	3	[0, 0, 0]	n/a	catFR1	0	R1190P
671.96	0.933	680072	WORD_OFF	n/a	n/a	TORNADO	n/a	4	3	[0, 0, 0]	n/a	catFR1	0	R1190P
672.893	1.6	681005	WORD	n/a	wordpools/wordpool_categorized_EN.txt	SLINKY	Toys	5	3	[0, 0, 0]	n/a	catFR1	0	R1190P
674.511	0.951	682623	WORD_OFF	n/a	n/a	SLINKY	n/a	5	3	[0, 0, 0]	n/a	catFR1	0	R1190P
675.462	1.6	683574	WORD	n/a	wordpools/wordpool_categorized_EN.txt	BASEBALL	Toys	6	3	[0, 0, 0]	n/a	catFR1	0	R1190P
677.078	0.783	685190	WORD_OFF	n/a	n/a	BASEBALL	n/a	6	3	[0, 0, 0]	n/a	catFR1	0	R1190P
677.861	1.6	685973	WORD	n/a	wordpools/wordpool_categorized_EN.txt	WOODS	Landscapes	7	3	[0, 0, 0]	n/a	catFR1	0	R1190P
679.462	0.817	687574	WORD_OFF	n/a	n/a	WOODS	n/a	7	3	[0, 0, 0]	n/a	catFR1	0	R1190P
680.279	1.6	688391	WORD	n/a	wordpools/wordpool_categorized_EN.txt	ISLAND	Landscapes	8	3	[0, 0, 0]	n/a	catFR1	0	R1190P
681.895	0.884	690007	WORD_OFF	n/a	n/a	ISLAND	n/a	8	3	[0, 0, 0]	n/a	catFR1	0	R1190P
682.779	1.6	690891	WORD	n/a	wordpools/wordpool_categorized_EN.txt	THUNDER	Weather	9	3	[0, 0, 0]	n/a	catFR1	0	R1190P
684.397	0.917	692509	WORD_OFF	n/a	n/a	THUNDER	n/a	9	3	[0, 0, 0]	n/a	catFR1	0	R1190P
685.314	1.6	693425	WORD	n/a	wordpools/wordpool_categorized_EN.txt	SNOW	Weather	10	3	[0, 0, 0]	n/a	catFR1	0	R1190P
686.929	0.917	695040	WORD_OFF	n/a	n/a	SNOW	n/a	10	3	[0, 0, 0]	n/a	catFR1	0	R1190P
687.846	1.6	695957	WORD	n/a	wordpools/wordpool_categorized_EN.txt	MARBLES	Toys	11	3	[0, 0, 0]	n/a	catFR1	0	R1190P
689.464	0.934	697575	WORD_OFF	n/a	n/a	MARBLES	n/a	11	3	[0, 0, 0]	n/a	catFR1	0	R1190P
690.398	1.6	698509	WORD	n/a	wordpools/wordpool_categorized_EN.txt	DOLLHOUSE	Toys	12	3	[0, 0, 0]	n/a	catFR1	0	R1190P
692.014	0.0	700125	WORD_OFF	n/a	n/a	DOLLHOUSE	n/a	12	3	[0, 0, 0]	n/a	catFR1	0	R1190P
692.014	0.103	700125	ENCODING_END	n/a	n/a	n/a	n/a	-999	3	[0, 0, 0]	n/a	catFR1	0	R1190P
692.117	0.001	700228	DISTRACT_START	n/a	n/a	n/a	n/a	-999	3	[0, 0, 0]	n/a	catFR1	0	R1190P
692.118	0.012	700229	START	n/a	n/a	n/a	n/a	-999	3	[-999, -999, -999]	n/a	catFR1	0	R1190P
692.13	12.22	700241	PROB	12.195	n/a	n/a	n/a	-999	3	[8, 7, 7]	22.0	catFR1	0	R1190P
704.35	9.813	712460	PROB	9.813	n/a	n/a	n/a	-999	3	[3, 8, 3]	14.0	catFR1	0	R1190P
714.163	0.022	722273	STOP	n/a	n/a	n/a	n/a	-999	3	[-999, -999, -999]	n/a	catFR1	0	R1190P
714.185	0.516	722295	DISTRACT_END	n/a	n/a	n/a	n/a	-999	3	[0, 0, 0]	n/a	catFR1	0	R1190P
714.701	0.518	722811	RETRIEVAL_ORIENT	n/a	n/a	n/a	n/a	-999	3	[0, 0, 0]	n/a	catFR1	0	R1190P
715.219	3.419	723329	REC_START	n/a	n/a	n/a	n/a	-999	3	[0, 0, 0]	n/a	catFR1	0	R1190P
718.638	0.571	726748	REC_WORD	3.419	n/a	MAPLE	n/a	-999	3	[0, 0, 0]	n/a	catFR1	0	R1190P
719.209	1.0	727319	REC_WORD	3.99	n/a	CYPRESS	n/a	-999	3	[0, 0, 0]	n/a	catFR1	0	R1190P
720.209	1.537	728319	REC_WORD_VV	4.99	n/a	<>	n/a	-999	3	[0, 0, 0]	n/a	catFR1	0	R1190P
721.746	4.204	729856	REC_WORD_VV	6.527	n/a	<>	n/a	-999	3	[0, 0, 0]	n/a	catFR1	0	R1190P
725.95	4.346	734059	REC_WORD	10.731	n/a	THUNDERSTORM	n/a	-999	3	[0, 0, 0]	n/a	catFR1	0	R1190P
730.296	1.316	738405	REC_WORD	15.077	n/a	RAIN	Weather	3	3	[0, 0, 0]	n/a	catFR1	0	R1190P
731.612	1.0	739721	REC_WORD_VV	16.393	n/a	<>	n/a	-999	3	[0, 0, 0]	n/a	catFR1	0	R1190P
732.612	0.649	740721	REC_WORD_VV	17.393	n/a	<>	n/a	-999	3	[0, 0, 0]	n/a	catFR1	0	R1190P
733.261	2.65	741370	REC_WORD_VV	18.042	n/a	<>	n/a	-999	3	[0, 0, 0]	n/a	catFR1	0	R1190P
735.911	9.32	744020	REC_WORD_VV	20.692	n/a	<>	n/a	-999	3	[0, 0, 0]	n/a	catFR1	0	R1190P
745.231	10.945	753339	REC_END	n/a	n/a	n/a	n/a	-999	3	[0, 0, 0]	n/a	catFR1	0	R1190P
756.176	0.5	764284	TRIAL	n/a	n/a	n/a	n/a	-999	4	[0, 0, 0]	n/a	catFR1	0	R1190P
756.676	10.0	764784	COUNTDOWN_START	n/a	n/a	n/a	n/a	-999	4	[0, 0, 0]	n/a	catFR1	0	R1190P
767.104	0.007	775211	COUNTDOWN_END	n/a	n/a	n/a	n/a	-999	4	[0, 0, 0]	n/a	catFR1	0	R1190P
767.111	1.6	775218	ORIENT	n/a	n/a	n/a	n/a	-999	4	[0, 0, 0]	n/a	catFR1	0	R1190P
768.728	1.967	776835	ORIENT_OFF	n/a	n/a	n/a	n/a	-999	4	[0, 0, 0]	n/a	catFR1	0	R1190P
770.695	1.6	778802	WORD	n/a	wordpools/wordpool_categorized_EN.txt	DRESSER	Furniture	1	4	[0, 0, 0]	n/a	catFR1	0	R1190P
772.313	0.783	780420	WORD_OFF	n/a	n/a	DRESSER	n/a	1	4	[0, 0, 0]	n/a	catFR1	0	R1190P
773.096	1.6	781203	WORD	n/a	wordpools/wordpool_categorized_EN.txt	SHELF	Furniture	2	4	[0, 0, 0]	n/a	catFR1	0	R1190P
774.713	0.901	782820	WORD_OFF	n/a	n/a	SHELF	n/a	2	4	[0, 0, 0]	n/a	catFR1	0	R1190P
775.614	1.6	783721	WORD	n/a	wordpools/wordpool_categorized_EN.txt	SPEAKER	Electronics	3	4	[0, 0, 0]	n/a	catFR1	0	R1190P
777.23	0.833	785337	WORD_OFF	n/a	n/a	SPEAKER	n/a	3	4	[0, 0, 0]	n/a	catFR1	0	R1190P
778.063	1.6	786170	WORD	n/a	wordpools/wordpool_categorized_EN.txt	CALCULATOR	Electronics	4	4	[0, 0, 0]	n/a	catFR1	0	R1190P
779.681	0.884	787788	WORD_OFF	n/a	n/a	CALCULATOR	n/a	4	4	[0, 0, 0]	n/a	catFR1	0	R1190P
780.565	1.6	788672	WORD	n/a	wordpools/wordpool_categorized_EN.txt	PLANKTON	OceanAnimals	5	4	[0, 0, 0]	n/a	catFR1	0	R1190P
782.181	0.95	790288	WORD_OFF	n/a	n/a	PLANKTON	n/a	5	4	[0, 0, 0]	n/a	catFR1	0	R1190P
783.131	1.6	791237	WORD	n/a	wordpools/wordpool_categorized_EN.txt	SHRIMP	OceanAnimals	6	4	[0, 0, 0]	n/a	catFR1	0	R1190P
784.748	0.884	792854	WORD_OFF	n/a	n/a	SHRIMP	n/a	6	4	[0, 0, 0]	n/a	catFR1	0	R1190P
785.632	1.6	793738	WORD	n/a	wordpools/wordpool_categorized_EN.txt	SCANNER	Electronics	7	4	[0, 0, 0]	n/a	catFR1	0	R1190P
787.249	1.0	795355	WORD_OFF	n/a	n/a	SCANNER	n/a	7	4	[0, 0, 0]	n/a	catFR1	0	R1190P
788.249	1.6	796355	WORD	n/a	wordpools/wordpool_categorized_EN.txt	RADIO	Electronics	8	4	[0, 0, 0]	n/a	catFR1	0	R1190P
789.865	1.001	797971	WORD_OFF	n/a	n/a	RADIO	n/a	8	4	[0, 0, 0]	n/a	catFR1	0	R1190P
790.866	1.6	798972	WORD	n/a	wordpools/wordpool_categorized_EN.txt	COUCH	Furniture	9	4	[0, 0, 0]	n/a	catFR1	0	R1190P
792.484	1.016	800590	WORD_OFF	n/a	n/a	COUCH	n/a	9	4	[0, 0, 0]	n/a	catFR1	0	R1190P
793.5	1.6	801606	WORD	n/a	wordpools/wordpool_categorized_EN.txt	CABINET	Furniture	10	4	[0, 0, 0]	n/a	catFR1	0	R1190P
795.116	1.0	803222	WORD_OFF	n/a	n/a	CABINET	n/a	10	4	[0, 0, 0]	n/a	catFR1	0	R1190P
796.116	1.6	804222	WORD	n/a	wordpools/wordpool_categorized_EN.txt	JELLYFISH	OceanAnimals	11	4	[0, 0, 0]	n/a	catFR1	0	R1190P
797.734	0.917	805840	WORD_OFF	n/a	n/a	JELLYFISH	n/a	11	4	[0, 0, 0]	n/a	catFR1	0	R1190P
798.651	1.6	806757	WORD	n/a	wordpools/wordpool_categorized_EN.txt	OCTOPUS	OceanAnimals	12	4	[0, 0, 0]	n/a	catFR1	0	R1190P
800.268	0.001	808374	WORD_OFF	n/a	n/a	OCTOPUS	n/a	12	4	[0, 0, 0]	n/a	catFR1	0	R1190P
800.269	0.138	808375	ENCODING_END	n/a	n/a	n/a	n/a	-999	4	[0, 0, 0]	n/a	catFR1	0	R1190P
800.407	0.0	808513	DISTRACT_START	n/a	n/a	n/a	n/a	-999	4	[0, 0, 0]	n/a	catFR1	0	R1190P
800.407	0.011	808513	START	n/a	n/a	n/a	n/a	-999	4	[-999, -999, -999]	n/a	catFR1	0	R1190P
800.418	4.901	808524	PROB	4.866	n/a	n/a	n/a	-999	4	[5, 2, 5]	12.0	catFR1	0	R1190P
805.319	5.101	813424	PROB	5.069	n/a	n/a	n/a	-999	4	[1, 4, 6]	11.0	catFR1	0	R1190P
810.42	6.801	818525	PROB	6.775	n/a	n/a	n/a	-999	4	[9, 8, 1]	18.0	catFR1	0	R1190P
817.221	5.486	825326	PROB	5.486	n/a	n/a	n/a	-999	4	[4, 4, 2]	10.0	catFR1	0	R1190P
822.707	0.015	830811	STOP	n/a	n/a	n/a	n/a	-999	4	[-999, -999, -999]	n/a	catFR1	0	R1190P
822.722	0.534	830826	DISTRACT_END	n/a	n/a	n/a	n/a	-999	4	[0, 0, 0]	n/a	catFR1	0	R1190P
823.256	0.516	831360	RETRIEVAL_ORIENT	n/a	n/a	n/a	n/a	-999	4	[0, 0, 0]	n/a	catFR1	0	R1190P
823.772	2.437	831876	REC_START	n/a	n/a	n/a	n/a	-999	4	[0, 0, 0]	n/a	catFR1	0	R1190P
826.209	2.658	834313	REC_WORD_VV	2.437	n/a	<>	n/a	-999	4	[0, 0, 0]	n/a	catFR1	0	R1190P
828.867	2.533	836971	REC_WORD	5.095	n/a	CYPRESS	n/a	-999	4	[0, 0, 0]	n/a	catFR1	0	R1190P
831.4	1.056	839504	REC_WORD	7.628	n/a	CABIN	n/a	-999	4	[0, 0, 0]	n/a	catFR1	0	R1190P
832.456	1.0	840560	REC_WORD	8.684	n/a	CABINET	Furniture	10	4	[0, 0, 0]	n/a	catFR1	0	R1190P
833.456	1.506	841560	REC_WORD_VV	9.684	n/a	<>	n/a	-999	4	[0, 0, 0]	n/a	catFR1	0	R1190P
834.962	2.192	843066	REC_WORD_VV	11.19	n/a	<>	n/a	-999	4	[0, 0, 0]	n/a	catFR1	0	R1190P
837.154	11.888	845258	REC_WORD_VV	13.382	n/a	<>	n/a	-999	4	[0, 0, 0]	n/a	catFR1	0	R1190P
849.042	4.744	857145	REC_WORD_VV	25.27	n/a	<>	n/a	-999	4	[0, 0, 0]	n/a	catFR1	0	R1190P
853.786	21.547	861889	REC_END	n/a	n/a	n/a	n/a	-999	4	[0, 0, 0]	n/a	catFR1	0	R1190P
875.333	0.5	883435	TRIAL	n/a	n/a	n/a	n/a	-999	5	[0, 0, 0]	n/a	catFR1	0	R1190P
875.833	10.0	883935	COUNTDOWN_START	n/a	n/a	n/a	n/a	-999	5	[0, 0, 0]	n/a	catFR1	0	R1190P
886.261	0.007	894362	COUNTDOWN_END	n/a	n/a	n/a	n/a	-999	5	[0, 0, 0]	n/a	catFR1	0	R1190P
886.268	1.6	894369	ORIENT	n/a	n/a	n/a	n/a	-999	5	[0, 0, 0]	n/a	catFR1	0	R1190P
887.884	1.9	895985	ORIENT_OFF	n/a	n/a	n/a	n/a	-999	5	[0, 0, 0]	n/a	catFR1	0	R1190P
889.784	1.6	897885	WORD	n/a	wordpools/wordpool_categorized_EN.txt	VALLEY	Landscapes	1	5	[0, 0, 0]	n/a	catFR1	0	R1190P
891.402	0.833	899503	WORD_OFF	n/a	n/a	VALLEY	n/a	1	5	[0, 0, 0]	n/a	catFR1	0	R1190P
892.235	1.6	900336	WORD	n/a	wordpools/wordpool_categorized_EN.txt	LAKE	Landscapes	2	5	[0, 0, 0]	n/a	catFR1	0	R1190P
893.852	0.817	901953	WORD_OFF	n/a	n/a	LAKE	n/a	2	5	[0, 0, 0]	n/a	catFR1	0	R1190P
894.669	1.6	902770	WORD	n/a	wordpools/wordpool_categorized_EN.txt	PEAS	Vegetables	3	5	[0, 0, 0]	n/a	catFR1	0	R1190P
896.286	0.9	904387	WORD_OFF	n/a	n/a	PEAS	n/a	3	5	[0, 0, 0]	n/a	catFR1	0	R1190P
897.186	1.6	905287	WORD	n/a	wordpools/wordpool_categorized_EN.txt	LETTUCE	Vegetables	4	5	[0, 0, 0]	n/a	catFR1	0	R1190P
898.803	0.983	906904	WORD_OFF	n/a	n/a	LETTUCE	n/a	4	5	[0, 0, 0]	n/a	catFR1	0	R1190P
899.786	1.6	907887	WORD	n/a	wordpools/wordpool_categorized_EN.txt	GRATER	KitchenTools	5	5	[0, 0, 0]	n/a	catFR1	0	R1190P
901.387	0.917	909487	WORD_OFF	n/a	n/a	GRATER	n/a	5	5	[0, 0, 0]	n/a	catFR1	0	R1190P
902.304	1.6	910404	WORD	n/a	wordpools/wordpool_categorized_EN.txt	LADLE	KitchenTools	6	5	[0, 0, 0]	n/a	catFR1	0	R1190P
903.92	0.884	912020	WORD_OFF	n/a	n/a	LADLE	n/a	6	5	[0, 0, 0]	n/a	catFR1	0	R1190P
904.804	1.6	912904	WORD	n/a	wordpools/wordpool_categorized_EN.txt	BROCCOLI	Vegetables	7	5	[0, 0, 0]	n/a	catFR1	0	R1190P
906.422	0.917	914522	WORD_OFF	n/a	n/a	BROCCOLI	n/a	7	5	[0, 0, 0]	n/a	catFR1	0	R1190P
907.339	1.6	915439	WORD	n/a	wordpools/wordpool_categorized_EN.txt	POTATO	Vegetables	8	5	[0, 0, 0]	n/a	catFR1	0	R1190P
908.955	0.95	917055	WORD_OFF	n/a	n/a	POTATO	n/a	8	5	[0, 0, 0]	n/a	catFR1	0	R1190P
909.905	1.6	918005	WORD	n/a	wordpools/wordpool_categorized_EN.txt	HILLS	Landscapes	9	5	[0, 0, 0]	n/a	catFR1	0	R1190P
911.523	0.9	919623	WORD_OFF	n/a	n/a	HILLS	n/a	9	5	[0, 0, 0]	n/a	catFR1	0	R1190P
912.423	1.6	920523	WORD	n/a	wordpools/wordpool_categorized_EN.txt	CREEK	Landscapes	10	5	[0, 0, 0]	n/a	catFR1	0	R1190P
914.039	0.95	922139	WORD_OFF	n/a	n/a	CREEK	n/a	10	5	[0, 0, 0]	n/a	catFR1	0	R1190P
914.989	1.6	923089	WORD	n/a	wordpools/wordpool_categorized_EN.txt	SPATULA	KitchenTools	11	5	[0, 0, 0]	n/a	catFR1	0	R1190P
916.59	0.8	924690	WORD_OFF	n/a	n/a	SPATULA	n/a	11	5	[0, 0, 0]	n/a	catFR1	0	R1190P
917.39	1.6	925490	WORD	n/a	wordpools/wordpool_categorized_EN.txt	CORKSCREW	KitchenTools	12	5	[0, 0, 0]	n/a	catFR1	0	R1190P
919.006	0.001	927106	WORD_OFF	n/a	n/a	CORKSCREW	n/a	12	5	[0, 0, 0]	n/a	catFR1	0	R1190P
919.007	0.104	927107	ENCODING_END	n/a	n/a	n/a	n/a	-999	5	[0, 0, 0]	n/a	catFR1	0	R1190P
919.111	0.0	927211	DISTRACT_START	n/a	n/a	n/a	n/a	-999	5	[0, 0, 0]	n/a	catFR1	0	R1190P
919.111	0.012	927211	START	n/a	n/a	n/a	n/a	-999	5	[-999, -999, -999]	n/a	catFR1	0	R1190P
919.123	6.885	927223	PROB	6.855	n/a	n/a	n/a	-999	5	[1, 8, 5]	14.0	catFR1	0	R1190P
926.008	9.419	934107	PROB	9.389	n/a	n/a	n/a	-999	5	[4, 7, 4]	15.0	catFR1	0	R1190P
935.427	4.416	943526	PROB	4.416	n/a	n/a	n/a	-999	5	[3, 4, 6]	13.0	catFR1	0	R1190P
939.843	0.017	947942	STOP	n/a	n/a	n/a	n/a	-999	5	[-999, -999, -999]	n/a	catFR1	0	R1190P
939.86	0.585	947959	DISTRACT_END	n/a	n/a	n/a	n/a	-999	5	[0, 0, 0]	n/a	catFR1	0	R1190P
940.445	0.516	948544	RETRIEVAL_ORIENT	n/a	n/a	n/a	n/a	-999	5	[0, 0, 0]	n/a	catFR1	0	R1190P
940.961	1.695	949059	REC_START	n/a	n/a	n/a	n/a	-999	5	[0, 0, 0]	n/a	catFR1	0	R1190P
942.656	1.0	950754	REC_WORD	1.695	n/a	SPATULA	KitchenTools	11	5	[0, 0, 0]	n/a	catFR1	0	R1190P
943.656	1.665	951754	REC_WORD_VV	2.695	n/a	<>	n/a	-999	5	[0, 0, 0]	n/a	catFR1	0	R1190P
945.321	5.849	953419	REC_WORD	4.36	n/a	LADLE	KitchenTools	6	5	[0, 0, 0]	n/a	catFR1	0	R1190P
951.17	4.436	959268	REC_WORD	10.209	n/a	BROCCOLI	Vegetables	7	5	[0, 0, 0]	n/a	catFR1	0	R1190P
955.606	4.623	963704	REC_WORD_VV	14.645	n/a	<>	n/a	-999	5	[0, 0, 0]	n/a	catFR1	0	R1190P
960.229	3.031	968326	REC_WORD_VV	19.268	n/a	<>	n/a	-999	5	[0, 0, 0]	n/a	catFR1	0	R1190P
963.26	7.714	971357	REC_WORD_VV	22.299	n/a	<>	n/a	-999	5	[0, 0, 0]	n/a	catFR1	0	R1190P
970.974	6.378	979071	REC_END	n/a	n/a	n/a	n/a	-999	5	[0, 0, 0]	n/a	catFR1	0	R1190P
977.352	0.5	985449	TRIAL	n/a	n/a	n/a	n/a	-999	6	[0, 0, 0]	n/a	catFR1	0	R1190P
977.852	10.0	985949	COUNTDOWN_START	n/a	n/a	n/a	n/a	-999	6	[0, 0, 0]	n/a	catFR1	0	R1190P
988.28	0.007	996376	COUNTDOWN_END	n/a	n/a	n/a	n/a	-999	6	[0, 0, 0]	n/a	catFR1	0	R1190P
988.287	1.6	996383	ORIENT	n/a	n/a	n/a	n/a	-999	6	[0, 0, 0]	n/a	catFR1	0	R1190P
989.903	2.034	997999	ORIENT_OFF	n/a	n/a	n/a	n/a	-999	6	[0, 0, 0]	n/a	catFR1	0	R1190P
991.937	1.6	1000033	WORD	n/a	wordpools/wordpool_categorized_EN.txt	FISH	OceanAnimals	1	6	[0, 0, 0]	n/a	catFR1	0	R1190P
993.555	0.933	1001651	WORD_OFF	n/a	n/a	FISH	n/a	1	6	[0, 0, 0]	n/a	catFR1	0	R1190P
994.488	1.6	1002584	WORD	n/a	wordpools/wordpool_categorized_EN.txt	OYSTER	OceanAnimals	2	6	[0, 0, 0]	n/a	catFR1	0	R1190P
996.104	0.784	1004200	WORD_OFF	n/a	n/a	OYSTER	n/a	2	6	[0, 0, 0]	n/a	catFR1	0	R1190P
996.888	1.6	1004984	WORD	n/a	wordpools/wordpool_categorized_EN.txt	GIRAFFE	Zoo	3	6	[0, 0, 0]	n/a	catFR1	0	R1190P
998.506	1.0	1006602	WORD_OFF	n/a	n/a	GIRAFFE	n/a	3	6	[0, 0, 0]	n/a	catFR1	0	R1190P
999.506	1.6	1007602	WORD	n/a	wordpools/wordpool_categorized_EN.txt	LION	Zoo	4	6	[0, 0, 0]	n/a	catFR1	0	R1190P
1001.122	0.983	1009217	WORD_OFF	n/a	n/a	LION	n/a	4	6	[0, 0, 0]	n/a	catFR1	0	R1190P
1002.105	1.6	1010200	WORD	n/a	wordpools/wordpool_categorized_EN.txt	TEA	Beverages	5	6	[0, 0, 0]	n/a	catFR1	0	R1190P
1003.722	0.785	1011817	WORD_OFF	n/a	n/a	TEA	n/a	5	6	[0, 0, 0]	n/a	catFR1	0	R1190P
1004.507	1.6	1012602	WORD	n/a	wordpools/wordpool_categorized_EN.txt	COFFEE	Beverages	6	6	[0, 0, 0]	n/a	catFR1	0	R1190P
1006.123	1.0	1014218	WORD_OFF	n/a	n/a	COFFEE	n/a	6	6	[0, 0, 0]	n/a	catFR1	0	R1190P
1007.123	1.6	1015218	WORD	n/a	wordpools/wordpool_categorized_EN.txt	GORILLA	Zoo	7	6	[0, 0, 0]	n/a	catFR1	0	R1190P
1008.74	0.918	1016835	WORD_OFF	n/a	n/a	GORILLA	n/a	7	6	[0, 0, 0]	n/a	catFR1	0	R1190P
1009.658	1.6	1017753	WORD	n/a	wordpools/wordpool_categorized_EN.txt	CHIMPANZEE	Zoo	8	6	[0, 0, 0]	n/a	catFR1	0	R1190P
1011.275	0.983	1019370	WORD_OFF	n/a	n/a	CHIMPANZEE	n/a	8	6	[0, 0, 0]	n/a	catFR1	0	R1190P
1012.258	1.6	1020353	WORD	n/a	wordpools/wordpool_categorized_EN.txt	LOBSTER	OceanAnimals	9	6	[0, 0, 0]	n/a	catFR1	0	R1190P
1013.874	0.967	1021969	WORD_OFF	n/a	n/a	LOBSTER	n/a	9	6	[0, 0, 0]	n/a	catFR1	0	R1190P
1014.841	1.6	1022936	WORD	n/a	wordpools/wordpool_categorized_EN.txt	DOLPHIN	OceanAnimals	10	6	[0, 0, 0]	n/a	catFR1	0	R1190P
1016.442	0.817	1024537	WORD_OFF	n/a	n/a	DOLPHIN	n/a	10	6	[0, 0, 0]	n/a	catFR1	0	R1190P
1017.259	1.6	1025354	WORD	n/a	wordpools/wordpool_categorized_EN.txt	MILK	Beverages	11	6	[0, 0, 0]	n/a	catFR1	0	R1190P
1018.875	1.0	1026970	WORD_OFF	n/a	n/a	MILK	n/a	11	6	[0, 0, 0]	n/a	catFR1	0	R1190P
1019.875	1.6	1027969	WORD	n/a	wordpools/wordpool_categorized_EN.txt	LEMONADE	Beverages	12	6	[0, 0, 0]	n/a	catFR1	0	R1190P
1021.476	0.001	1029570	WORD_OFF	n/a	n/a	LEMONADE	n/a	12	6	[0, 0, 0]	n/a	catFR1	0	R1190P
1021.477	0.105	1029571	ENCODING_END	n/a	n/a	n/a	n/a	-999	6	[0, 0, 0]	n/a	catFR1	0	R1190P
1021.582	0.0	1029676	DISTRACT_START	n/a	n/a	n/a	n/a	-999	6	[0, 0, 0]	n/a	catFR1	0	R1190P
1021.582	0.011	1029676	START	n/a	n/a	n/a	n/a	-999	6	[-999, -999, -999]	n/a	catFR1	0	R1190P
1021.593	7.769	1029687	PROB	7.73	n/a	n/a	n/a	-999	6	[7, 2, 4]	13.0	catFR1	0	R1190P
1029.362	4.917	1037456	PROB	4.891	n/a	n/a	n/a	-999	6	[5, 6, 4]	15.0	catFR1	0	R1190P
1034.279	4.717	1042373	PROB	4.693	n/a	n/a	n/a	-999	6	[5, 4, 6]	15.0	catFR1	0	R1190P
1038.996	11.056	1047089	PROB	11.056	n/a	n/a	n/a	-999	6	[6, 8, 6]	20.0	catFR1	0	R1190P
1050.052	0.013	1058145	STOP	n/a	n/a	n/a	n/a	-999	6	[-999, -999, -999]	n/a	catFR1	0	R1190P
1050.065	0.633	1058158	DISTRACT_END	n/a	n/a	n/a	n/a	-999	6	[0, 0, 0]	n/a	catFR1	0	R1190P
1050.698	0.517	1058791	RETRIEVAL_ORIENT	n/a	n/a	n/a	n/a	-999	6	[0, 0, 0]	n/a	catFR1	0	R1190P
1051.215	1.436	1059308	REC_START	n/a	n/a	n/a	n/a	-999	6	[0, 0, 0]	n/a	catFR1	0	R1190P
1052.651	2.702	1060744	REC_WORD	1.436	n/a	OYSTER	OceanAnimals	2	6	[0, 0, 0]	n/a	catFR1	0	R1190P
1055.353	0.804	1063446	REC_WORD	4.138	n/a	BROCCOLI	n/a	-999	6	[0, 0, 0]	n/a	catFR1	0	R1190P
1056.157	3.199	1064250	REC_WORD	4.942	n/a	FISH	OceanAnimals	1	6	[0, 0, 0]	n/a	catFR1	0	R1190P
1059.356	9.502	1067448	REC_WORD_VV	8.141	n/a	<>	n/a	-999	6	[0, 0, 0]	n/a	catFR1	0	R1190P
1068.858	5.87	1076950	REC_WORD	17.643	n/a	POTATO	n/a	-999	6	[0, 0, 0]	n/a	catFR1	0	R1190P
1074.728	0.825	1082820	REC_WORD	23.513	n/a	LOBSTER	OceanAnimals	9	6	[0, 0, 0]	n/a	catFR1	0	R1190P
1075.553	1.0	1083645	REC_WORD_VV	24.338	n/a	<>	n/a	-999	6	[0, 0, 0]	n/a	catFR1	0	R1190P
1076.553	4.674	1084645	REC_WORD_VV	25.338	n/a	<>	n/a	-999	6	[0, 0, 0]	n/a	catFR1	0	R1190P
1081.227	6.095	1089318	REC_END	n/a	n/a	n/a	n/a	-999	6	[0, 0, 0]	n/a	catFR1	0	R1190P
1087.322	0.5	1095413	TRIAL	n/a	n/a	n/a	n/a	-999	7	[0, 0, 0]	n/a	catFR1	0	R1190P
1087.822	10.0	1095913	COUNTDOWN_START	n/a	n/a	n/a	n/a	-999	7	[0, 0, 0]	n/a	catFR1	0	R1190P
1098.25	0.008	1106340	COUNTDOWN_END	n/a	n/a	n/a	n/a	-999	7	[0, 0, 0]	n/a	catFR1	0	R1190P
1098.258	1.6	1106348	ORIENT	n/a	n/a	n/a	n/a	-999	7	[0, 0, 0]	n/a	catFR1	0	R1190P
1099.874	1.867	1107964	ORIENT_OFF	n/a	n/a	n/a	n/a	-999	7	[0, 0, 0]	n/a	catFR1	0	R1190P
1101.741	1.6	1109831	WORD	n/a	wordpools/wordpool_categorized_EN.txt	FOOT	BodyParts	1	7	[0, 0, 0]	n/a	catFR1	0	R1190P
1103.359	0.832	1111449	WORD_OFF	n/a	n/a	FOOT	n/a	1	7	[0, 0, 0]	n/a	catFR1	0	R1190P
1104.191	1.6	1112281	WORD	n/a	wordpools/wordpool_categorized_EN.txt	NOSE	BodyParts	2	7	[0, 0, 0]	n/a	catFR1	0	R1190P
1105.808	0.9	1113898	WORD_OFF	n/a	n/a	NOSE	n/a	2	7	[0, 0, 0]	n/a	catFR1	0	R1190P
1106.708	1.6	1114798	WORD	n/a	wordpools/wordpool_categorized_EN.txt	CHAIR	Furniture	3	7	[0, 0, 0]	n/a	catFR1	0	R1190P
1108.31	0.983	1116400	WORD_OFF	n/a	n/a	CHAIR	n/a	3	7	[0, 0, 0]	n/a	catFR1	0	R1190P
1109.293	1.6	1117383	WORD	n/a	wordpools/wordpool_categorized_EN.txt	BED	Furniture	4	7	[0, 0, 0]	n/a	catFR1	0	R1190P
1110.909	0.867	1118999	WORD_OFF	n/a	n/a	BED	n/a	4	7	[0, 0, 0]	n/a	catFR1	0	R1190P
1111.776	1.6	1119866	WORD	n/a	wordpools/wordpool_categorized_EN.txt	FORK	KitchenTools	5	7	[0, 0, 0]	n/a	catFR1	0	R1190P
1113.394	0.833	1121484	WORD_OFF	n/a	n/a	FORK	n/a	5	7	[0, 0, 0]	n/a	catFR1	0	R1190P
1114.227	1.6	1122317	WORD	n/a	wordpools/wordpool_categorized_EN.txt	TONGS	KitchenTools	6	7	[0, 0, 0]	n/a	catFR1	0	R1190P
1115.843	0.835	1123933	WORD_OFF	n/a	n/a	TONGS	n/a	6	7	[0, 0, 0]	n/a	catFR1	0	R1190P
1116.678	1.6	1124768	WORD	n/a	wordpools/wordpool_categorized_EN.txt	DESK	Furniture	7	7	[0, 0, 0]	n/a	catFR1	0	R1190P
1118.295	0.967	1126384	WORD_OFF	n/a	n/a	DESK	n/a	7	7	[0, 0, 0]	n/a	catFR1	0	R1190P
1119.262	1.6	1127351	WORD	n/a	wordpools/wordpool_categorized_EN.txt	TABLE	Furniture	8	7	[0, 0, 0]	n/a	catFR1	0	R1190P
1120.878	0.784	1128967	WORD_OFF	n/a	n/a	TABLE	n/a	8	7	[0, 0, 0]	n/a	catFR1	0	R1190P
1121.662	1.6	1129751	WORD	n/a	wordpools/wordpool_categorized_EN.txt	ELBOW	BodyParts	9	7	[0, 0, 0]	n/a	catFR1	0	R1190P
1123.279	0.933	1131368	WORD_OFF	n/a	n/a	ELBOW	n/a	9	7	[0, 0, 0]	n/a	catFR1	0	R1190P
1124.212	1.6	1132301	WORD	n/a	wordpools/wordpool_categorized_EN.txt	TOE	BodyParts	10	7	[0, 0, 0]	n/a	catFR1	0	R1190P
1125.829	0.818	1133918	WORD_OFF	n/a	n/a	TOE	n/a	10	7	[0, 0, 0]	n/a	catFR1	0	R1190P
1126.647	1.6	1134736	WORD	n/a	wordpools/wordpool_categorized_EN.txt	COLANDER	KitchenTools	11	7	[0, 0, 0]	n/a	catFR1	0	R1190P
1128.263	0.816	1136352	WORD_OFF	n/a	n/a	COLANDER	n/a	11	7	[0, 0, 0]	n/a	catFR1	0	R1190P
1129.079	1.6	1137168	WORD	n/a	wordpools/wordpool_categorized_EN.txt	STRAINER	KitchenTools	12	7	[0, 0, 0]	n/a	catFR1	0	R1190P
1130.68	0.001	1138769	WORD_OFF	n/a	n/a	STRAINER	n/a	12	7	[0, 0, 0]	n/a	catFR1	0	R1190P
1130.681	0.137	1138770	ENCODING_END	n/a	n/a	n/a	n/a	-999	7	[0, 0, 0]	n/a	catFR1	0	R1190P
1130.818	0.0	1138907	DISTRACT_START	n/a	n/a	n/a	n/a	-999	7	[0, 0, 0]	n/a	catFR1	0	R1190P
1130.818	0.012	1138907	START	n/a	n/a	n/a	n/a	-999	7	[-999, -999, -999]	n/a	catFR1	0	R1190P
1130.83	5.3	1138919	PROB	5.262	n/a	n/a	n/a	-999	7	[4, 2, 8]	14.0	catFR1	0	R1190P
1136.13	5.269	1144219	PROB	5.242	n/a	n/a	n/a	-999	7	[2, 1, 5]	8.0	catFR1	0	R1190P
1141.399	13.532	1149487	PROB	13.532	n/a	n/a	n/a	-999	7	[8, 8, 9]	25.0	catFR1	0	R1190P
1154.931	0.02	1163019	STOP	n/a	n/a	n/a	n/a	-999	7	[-999, -999, -999]	n/a	catFR1	0	R1190P
1154.951	0.618	1163039	DISTRACT_END	n/a	n/a	n/a	n/a	-999	7	[0, 0, 0]	n/a	catFR1	0	R1190P
1155.569	0.516	1163657	RETRIEVAL_ORIENT	n/a	n/a	n/a	n/a	-999	7	[0, 0, 0]	n/a	catFR1	0	R1190P
1156.085	0.711	1164173	REC_START	n/a	n/a	n/a	n/a	-999	7	[0, 0, 0]	n/a	catFR1	0	R1190P
1156.796	4.793	1164884	REC_WORD_VV	0.711	n/a	<>	n/a	-999	7	[0, 0, 0]	n/a	catFR1	0	R1190P
1161.589	2.453	1169676	REC_WORD_VV	5.504	n/a	<>	n/a	-999	7	[0, 0, 0]	n/a	catFR1	0	R1190P
1164.042	2.028	1172129	REC_WORD	7.957	n/a	TOASTER	n/a	-999	7	[0, 0, 0]	n/a	catFR1	0	R1190P
1166.07	1.267	1174157	REC_WORD	9.985	n/a	FOOT	BodyParts	1	7	[0, 0, 0]	n/a	catFR1	0	R1190P
1167.337	2.472	1175424	REC_WORD	11.252	n/a	NOSE	BodyParts	2	7	[0, 0, 0]	n/a	catFR1	0	R1190P
1169.809	4.523	1177896	REC_WORD	13.724	n/a	TOE	BodyParts	10	7	[0, 0, 0]	n/a	catFR1	0	R1190P
1174.332	2.488	1182419	REC_WORD_VV	18.247	n/a	<>	n/a	-999	7	[0, 0, 0]	n/a	catFR1	0	R1190P
1176.82	0.736	1184906	REC_WORD	20.735	n/a	SCANNER	n/a	-999	7	[0, 0, 0]	n/a	catFR1	0	R1190P
1177.556	1.0	1185642	REC_WORD_VV	21.471	n/a	<>	n/a	-999	7	[0, 0, 0]	n/a	catFR1	0	R1190P
1178.556	2.05	1186642	REC_WORD_VV	22.471	n/a	<>	n/a	-999	7	[0, 0, 0]	n/a	catFR1	0	R1190P
1180.606	5.491	1188692	REC_WORD_VV	24.521	n/a	<>	n/a	-999	7	[0, 0, 0]	n/a	catFR1	0	R1190P
1186.097	5.677	1194183	REC_END	n/a	n/a	n/a	n/a	-999	7	[0, 0, 0]	n/a	catFR1	0	R1190P
1191.774	0.5	1199860	TRIAL	n/a	n/a	n/a	n/a	-999	8	[0, 0, 0]	n/a	catFR1	0	R1190P
1192.274	10.0	1200360	COUNTDOWN_START	n/a	n/a	n/a	n/a	-999	8	[0, 0, 0]	n/a	catFR1	0	R1190P
1202.702	0.008	1210787	COUNTDOWN_END	n/a	n/a	n/a	n/a	-999	8	[0, 0, 0]	n/a	catFR1	0	R1190P
1202.71	1.6	1210795	ORIENT	n/a	n/a	n/a	n/a	-999	8	[0, 0, 0]	n/a	catFR1	0	R1190P
1204.328	1.934	1212413	ORIENT_OFF	n/a	n/a	n/a	n/a	-999	8	[0, 0, 0]	n/a	catFR1	0	R1190P
1206.262	1.6	1214347	WORD	n/a	wordpools/wordpool_categorized_EN.txt	WINE	Beverages	1	8	[0, 0, 0]	n/a	catFR1	0	R1190P
1207.877	1.001	1215962	WORD_OFF	n/a	n/a	WINE	n/a	1	8	[0, 0, 0]	n/a	catFR1	0	R1190P
1208.878	1.6	1216963	WORD	n/a	wordpools/wordpool_categorized_EN.txt	BEER	Beverages	2	8	[0, 0, 0]	n/a	catFR1	0	R1190P
1210.496	0.95	1218581	WORD_OFF	n/a	n/a	BEER	n/a	2	8	[0, 0, 0]	n/a	catFR1	0	R1190P
1211.446	1.6	1219531	WORD	n/a	wordpools/wordpool_categorized_EN.txt	SOFA	Furniture	3	8	[0, 0, 0]	n/a	catFR1	0	R1190P
1213.062	0.967	1221147	WORD_OFF	n/a	n/a	SOFA	n/a	3	8	[0, 0, 0]	n/a	catFR1	0	R1190P
1214.029	1.6	1222114	WORD	n/a	wordpools/wordpool_categorized_EN.txt	BOOKCASE	Furniture	4	8	[0, 0, 0]	n/a	catFR1	0	R1190P
1215.63	0.883	1223715	WORD_OFF	n/a	n/a	BOOKCASE	n/a	4	8	[0, 0, 0]	n/a	catFR1	0	R1190P
1216.513	1.6	1224597	WORD	n/a	wordpools/wordpool_categorized_EN.txt	ERASER	OfficeSupplies	5	8	[0, 0, 0]	n/a	catFR1	0	R1190P
1218.129	0.967	1226213	WORD_OFF	n/a	n/a	ERASER	n/a	5	8	[0, 0, 0]	n/a	catFR1	0	R1190P
1219.096	1.6	1227180	WORD	n/a	wordpools/wordpool_categorized_EN.txt	NOTEBOOK	OfficeSupplies	6	8	[0, 0, 0]	n/a	catFR1	0	R1190P
1220.713	0.968	1228797	WORD_OFF	n/a	n/a	NOTEBOOK	n/a	6	8	[0, 0, 0]	n/a	catFR1	0	R1190P
1221.681	1.6	1229765	WORD	n/a	wordpools/wordpool_categorized_EN.txt	NIGHTSTAND	Furniture	7	8	[0, 0, 0]	n/a	catFR1	0	R1190P
1223.298	0.916	1231382	WORD_OFF	n/a	n/a	NIGHTSTAND	n/a	7	8	[0, 0, 0]	n/a	catFR1	0	R1190P
1224.214	1.6	1232298	WORD	n/a	wordpools/wordpool_categorized_EN.txt	RECLINER	Furniture	8	8	[0, 0, 0]	n/a	catFR1	0	R1190P
1225.831	0.883	1233915	WORD_OFF	n/a	n/a	RECLINER	n/a	8	8	[0, 0, 0]	n/a	catFR1	0	R1190P
1226.714	1.6	1234798	WORD	n/a	wordpools/wordpool_categorized_EN.txt	JUICE	Beverages	9	8	[0, 0, 0]	n/a	catFR1	0	R1190P
1228.315	0.85	1236399	WORD_OFF	n/a	n/a	JUICE	n/a	9	8	[0, 0, 0]	n/a	catFR1	0	R1190P
1229.165	1.6	1237249	WORD	n/a	wordpools/wordpool_categorized_EN.txt	SODA	Beverages	10	8	[0, 0, 0]	n/a	catFR1	0	R1190P
1230.782	0.95	1238866	WORD_OFF	n/a	n/a	SODA	n/a	10	8	[0, 0, 0]	n/a	catFR1	0	R1190P
1231.732	1.6	1239816	WORD	n/a	wordpools/wordpool_categorized_EN.txt	BINDER	OfficeSupplies	11	8	[0, 0, 0]	n/a	catFR1	0	R1190P
1233.333	0.95	1241417	WORD_OFF	n/a	n/a	BINDER	n/a	11	8	[0, 0, 0]	n/a	catFR1	0	R1190P
1234.283	1.6	1242367	WORD	n/a	wordpools/wordpool_categorized_EN.txt	TAPE	OfficeSupplies	12	8	[0, 0, 0]	n/a	catFR1	0	R1190P
1235.899	0.001	1243982	WORD_OFF	n/a	n/a	TAPE	n/a	12	8	[0, 0, 0]	n/a	catFR1	0	R1190P
1235.9	0.102	1243983	ENCODING_END	n/a	n/a	n/a	n/a	-999	8	[0, 0, 0]	n/a	catFR1	0	R1190P
1236.002	0.0	1244085	DISTRACT_START	n/a	n/a	n/a	n/a	-999	8	[0, 0, 0]	n/a	catFR1	0	R1190P
1236.002	0.014	1244085	START	n/a	n/a	n/a	n/a	-999	8	[-999, -999, -999]	n/a	catFR1	0	R1190P
1236.016	4.635	1244099	PROB	4.612	n/a	n/a	n/a	-999	8	[2, 4, 1]	7.0	catFR1	0	R1190P
1240.651	6.701	1248734	PROB	6.673	n/a	n/a	n/a	-999	8	[7, 4, 4]	15.0	catFR1	0	R1190P
1247.352	7.319	1255435	PROB	7.292	n/a	n/a	n/a	-999	8	[6, 1, 3]	10.0	catFR1	0	R1190P
1254.671	4.821	1262754	PROB	4.821	n/a	n/a	n/a	-999	8	[4, 1, 6]	11.0	catFR1	0	R1190P
1259.492	0.013	1267574	STOP	n/a	n/a	n/a	n/a	-999	8	[-999, -999, -999]	n/a	catFR1	0	R1190P
1259.505	0.649	1267587	DISTRACT_END	n/a	n/a	n/a	n/a	-999	8	[0, 0, 0]	n/a	catFR1	0	R1190P
1260.154	0.518	1268236	RETRIEVAL_ORIENT	n/a	n/a	n/a	n/a	-999	8	[0, 0, 0]	n/a	catFR1	0	R1190P
1260.672	1.956	1268754	REC_START	n/a	n/a	n/a	n/a	-999	8	[0, 0, 0]	n/a	catFR1	0	R1190P
1262.628	2.858	1270710	REC_WORD	1.956	n/a	BOOKCASE	Furniture	4	8	[0, 0, 0]	n/a	catFR1	0	R1190P
1265.486	2.071	1273568	REC_WORD_VV	4.814	n/a	<>	n/a	-999	8	[0, 0, 0]	n/a	catFR1	0	R1190P
1267.557	5.45	1275639	REC_WORD	6.885	n/a	SCANNER	n/a	-999	8	[0, 0, 0]	n/a	catFR1	0	R1190P
1273.007	3.382	1281089	REC_WORD	12.335	n/a	DRESSER	n/a	-999	8	[0, 0, 0]	n/a	catFR1	0	R1190P
1276.389	12.74	1284470	REC_WORD_VV	15.717	n/a	<>	n/a	-999	8	[0, 0, 0]	n/a	catFR1	0	R1190P
1289.129	1.556	1297210	REC_WORD_VV	28.457	n/a	<>	n/a	-999	8	[0, 0, 0]	n/a	catFR1	0	R1190P
1290.685	6.376	1298766	REC_END	n/a	n/a	n/a	n/a	-999	8	[0, 0, 0]	n/a	catFR1	0	R1190P
1297.061	0.5	1305141	TRIAL	n/a	n/a	n/a	n/a	-999	9	[0, 0, 0]	n/a	catFR1	0	R1190P
1297.561	10.0	1305641	COUNTDOWN_START	n/a	n/a	n/a	n/a	-999	9	[0, 0, 0]	n/a	catFR1	0	R1190P
1307.989	0.007	1316069	COUNTDOWN_END	n/a	n/a	n/a	n/a	-999	9	[0, 0, 0]	n/a	catFR1	0	R1190P
1307.996	1.6	1316076	ORIENT	n/a	n/a	n/a	n/a	-999	9	[0, 0, 0]	n/a	catFR1	0	R1190P
1309.614	2.216	1317694	ORIENT_OFF	n/a	n/a	n/a	n/a	-999	9	[0, 0, 0]	n/a	catFR1	0	R1190P
1311.83	1.6	1319910	WORD	n/a	wordpools/wordpool_categorized_EN.txt	BANJO	Instruments	1	9	[0, 0, 0]	n/a	catFR1	0	R1190P
1313.431	0.767	1321511	WORD_OFF	n/a	n/a	BANJO	n/a	1	9	[0, 0, 0]	n/a	catFR1	0	R1190P
1314.198	1.6	1322278	WORD	n/a	wordpools/wordpool_categorized_EN.txt	VIOLIN	Instruments	2	9	[0, 0, 0]	n/a	catFR1	0	R1190P
1315.814	0.801	1323893	WORD_OFF	n/a	n/a	VIOLIN	n/a	2	9	[0, 0, 0]	n/a	catFR1	0	R1190P
1316.615	1.6	1324694	WORD	n/a	wordpools/wordpool_categorized_EN.txt	RULER	OfficeSupplies	3	9	[0, 0, 0]	n/a	catFR1	0	R1190P
1318.231	0.834	1326310	WORD_OFF	n/a	n/a	RULER	n/a	3	9	[0, 0, 0]	n/a	catFR1	0	R1190P
1319.065	1.6	1327144	WORD	n/a	wordpools/wordpool_categorized_EN.txt	PAPER	OfficeSupplies	4	9	[0, 0, 0]	n/a	catFR1	0	R1190P
1320.683	0.867	1328762	WORD_OFF	n/a	n/a	PAPER	n/a	4	9	[0, 0, 0]	n/a	catFR1	0	R1190P
1321.55	1.6	1329629	WORD	n/a	wordpools/wordpool_categorized_EN.txt	SQUID	OceanAnimals	5	9	[0, 0, 0]	n/a	catFR1	0	R1190P
1323.166	0.9	1331245	WORD_OFF	n/a	n/a	SQUID	n/a	5	9	[0, 0, 0]	n/a	catFR1	0	R1190P
1324.066	1.6	1332145	WORD	n/a	wordpools/wordpool_categorized_EN.txt	TURTLE	OceanAnimals	6	9	[0, 0, 0]	n/a	catFR1	0	R1190P
1325.684	0.867	1333763	WORD_OFF	n/a	n/a	TURTLE	n/a	6	9	[0, 0, 0]	n/a	catFR1	0	R1190P
1326.551	1.6	1334630	WORD	n/a	wordpools/wordpool_categorized_EN.txt	GLUE	OfficeSupplies	7	9	[0, 0, 0]	n/a	catFR1	0	R1190P
1328.167	0.833	1336246	WORD_OFF	n/a	n/a	GLUE	n/a	7	9	[0, 0, 0]	n/a	catFR1	0	R1190P
1329.0	1.6	1337079	WORD	n/a	wordpools/wordpool_categorized_EN.txt	PEN	OfficeSupplies	8	9	[0, 0, 0]	n/a	catFR1	0	R1190P
1330.618	0.984	1338697	WORD_OFF	n/a	n/a	PEN	n/a	8	9	[0, 0, 0]	n/a	catFR1	0	R1190P
1331.602	1.6	1339681	WORD	n/a	wordpools/wordpool_categorized_EN.txt	PIANO	Instruments	9	9	[0, 0, 0]	n/a	catFR1	0	R1190P
1333.218	0.816	1341297	WORD_OFF	n/a	n/a	PIANO	n/a	9	9	[0, 0, 0]	n/a	catFR1	0	R1190P
1334.034	1.6	1342113	WORD	n/a	wordpools/wordpool_categorized_EN.txt	TRUMPET	Instruments	10	9	[0, 0, 0]	n/a	catFR1	0	R1190P
1335.636	0.933	1343714	WORD_OFF	n/a	n/a	TRUMPET	n/a	10	9	[0, 0, 0]	n/a	catFR1	0	R1190P
1336.569	1.6	1344647	WORD	n/a	wordpools/wordpool_categorized_EN.txt	WHALE	OceanAnimals	11	9	[0, 0, 0]	n/a	catFR1	0	R1190P
1338.185	0.8	1346263	WORD_OFF	n/a	n/a	WHALE	n/a	11	9	[0, 0, 0]	n/a	catFR1	0	R1190P
1338.985	1.6	1347063	WORD	n/a	wordpools/wordpool_categorized_EN.txt	CRAB	OceanAnimals	12	9	[0, 0, 0]	n/a	catFR1	0	R1190P
1340.603	0.001	1348681	WORD_OFF	n/a	n/a	CRAB	n/a	12	9	[0, 0, 0]	n/a	catFR1	0	R1190P
1340.604	0.136	1348682	ENCODING_END	n/a	n/a	n/a	n/a	-999	9	[0, 0, 0]	n/a	catFR1	0	R1190P
1340.74	0.0	1348818	DISTRACT_START	n/a	n/a	n/a	n/a	-999	9	[0, 0, 0]	n/a	catFR1	0	R1190P
1340.74	0.012	1348818	START	n/a	n/a	n/a	n/a	-999	9	[-999, -999, -999]	n/a	catFR1	0	R1190P
1340.752	5.536	1348830	PROB	5.5	n/a	n/a	n/a	-999	9	[6, 4, 4]	14.0	catFR1	0	R1190P
1346.288	16.005	1354366	PROB	16.005	n/a	n/a	n/a	-999	9	[8, 7, 5]	20.0	catFR1	0	R1190P
1362.293	0.015	1370370	STOP	n/a	n/a	n/a	n/a	-999	9	[-999, -999, -999]	n/a	catFR1	0	R1190P
1362.308	0.699	1370385	DISTRACT_END	n/a	n/a	n/a	n/a	-999	9	[0, 0, 0]	n/a	catFR1	0	R1190P
1363.007	0.518	1371084	RETRIEVAL_ORIENT	n/a	n/a	n/a	n/a	-999	9	[0, 0, 0]	n/a	catFR1	0	R1190P
1363.525	3.054	1371602	REC_START	n/a	n/a	n/a	n/a	-999	9	[0, 0, 0]	n/a	catFR1	0	R1190P
1366.579	2.112	1374656	REC_WORD	3.054	n/a	SQUID	OceanAnimals	5	9	[0, 0, 0]	n/a	catFR1	0	R1190P
1368.691	3.122	1376768	REC_WORD_VV	5.166	n/a	<>	n/a	-999	9	[0, 0, 0]	n/a	catFR1	0	R1190P
1371.813	2.188	1379890	REC_WORD	8.288	n/a	CAIRN	n/a	-999	9	[0, 0, 0]	n/a	catFR1	0	R1190P
1374.001	14.459	1382077	REC_WORD_VV	10.476	n/a	<>	n/a	-999	9	[0, 0, 0]	n/a	catFR1	0	R1190P
1388.46	1.0	1396536	REC_WORD_VV	24.935	n/a	<>	n/a	-999	9	[0, 0, 0]	n/a	catFR1	0	R1190P
1389.46	1.0	1397536	REC_WORD_VV	25.935	n/a	<>	n/a	-999	9	[0, 0, 0]	n/a	catFR1	0	R1190P
1390.46	1.0	1398536	REC_WORD_VV	26.935	n/a	<>	n/a	-999	9	[0, 0, 0]	n/a	catFR1	0	R1190P
1391.46	1.0	1399536	REC_WORD_VV	27.935	n/a	<>	n/a	-999	9	[0, 0, 0]	n/a	catFR1	0	R1190P
1392.46	1.0	1400536	REC_WORD_VV	28.935	n/a	<>	n/a	-999	9	[0, 0, 0]	n/a	catFR1	0	R1190P
1393.46	0.078	1401535	REC_WORD_VV	29.935	n/a	<>	n/a	-999	9	[0, 0, 0]	n/a	catFR1	0	R1190P
1393.538	9.76	1401613	REC_END	n/a	n/a	n/a	n/a	-999	9	[0, 0, 0]	n/a	catFR1	0	R1190P
1403.298	0.5	1411373	TRIAL	n/a	n/a	n/a	n/a	-999	10	[0, 0, 0]	n/a	catFR1	0	R1190P
1403.798	10.0	1411873	COUNTDOWN_START	n/a	n/a	n/a	n/a	-999	10	[0, 0, 0]	n/a	catFR1	0	R1190P
1414.226	0.007	1422300	COUNTDOWN_END	n/a	n/a	n/a	n/a	-999	10	[0, 0, 0]	n/a	catFR1	0	R1190P
1414.233	1.6	1422307	ORIENT	n/a	n/a	n/a	n/a	-999	10	[0, 0, 0]	n/a	catFR1	0	R1190P
1415.85	2.067	1423924	ORIENT_OFF	n/a	n/a	n/a	n/a	-999	10	[0, 0, 0]	n/a	catFR1	0	R1190P
1417.917	1.6	1425991	WORD	n/a	wordpools/wordpool_categorized_EN.txt	CAKE	Desserts	1	10	[0, 0, 0]	n/a	catFR1	0	R1190P
1419.535	0.867	1427609	WORD_OFF	n/a	n/a	CAKE	n/a	1	10	[0, 0, 0]	n/a	catFR1	0	R1190P
1420.402	1.6	1428476	WORD	n/a	wordpools/wordpool_categorized_EN.txt	CHEESECAKE	Desserts	2	10	[0, 0, 0]	n/a	catFR1	0	R1190P
1422.018	1.0	1430092	WORD_OFF	n/a	n/a	CHEESECAKE	n/a	2	10	[0, 0, 0]	n/a	catFR1	0	R1190P
1423.018	1.6	1431092	WORD	n/a	wordpools/wordpool_categorized_EN.txt	SPRUCE	Trees	3	10	[0, 0, 0]	n/a	catFR1	0	R1190P
1424.619	0.934	1432693	WORD_OFF	n/a	n/a	SPRUCE	n/a	3	10	[0, 0, 0]	n/a	catFR1	0	R1190P
1425.553	1.6	1433627	WORD	n/a	wordpools/wordpool_categorized_EN.txt	WILLOW	Trees	4	10	[0, 0, 0]	n/a	catFR1	0	R1190P
1427.169	0.766	1435243	WORD_OFF	n/a	n/a	WILLOW	n/a	4	10	[0, 0, 0]	n/a	catFR1	0	R1190P
1427.935	1.6	1436009	WORD	n/a	wordpools/wordpool_categorized_EN.txt	CIDER	Beverages	5	10	[0, 0, 0]	n/a	catFR1	0	R1190P
1429.553	0.984	1437627	WORD_OFF	n/a	n/a	CIDER	n/a	5	10	[0, 0, 0]	n/a	catFR1	0	R1190P
1430.537	1.6	1438611	WORD	n/a	wordpools/wordpool_categorized_EN.txt	RUM	Beverages	6	10	[0, 0, 0]	n/a	catFR1	0	R1190P
1432.153	0.767	1440227	WORD_OFF	n/a	n/a	RUM	n/a	6	10	[0, 0, 0]	n/a	catFR1	0	R1190P
1432.92	1.6	1440993	WORD	n/a	wordpools/wordpool_categorized_EN.txt	OAK	Trees	7	10	[0, 0, 0]	n/a	catFR1	0	R1190P
1434.538	0.95	1442611	WORD_OFF	n/a	n/a	OAK	n/a	7	10	[0, 0, 0]	n/a	catFR1	0	R1190P
1435.488	1.6	1443561	WORD	n/a	wordpools/wordpool_categorized_EN.txt	BIRCH	Trees	8	10	[0, 0, 0]	n/a	catFR1	0	R1190P
1437.104	0.9	1445177	WORD_OFF	n/a	n/a	BIRCH	n/a	8	10	[0, 0, 0]	n/a	catFR1	0	R1190P
1438.004	1.6	1446077	WORD	n/a	wordpools/wordpool_categorized_EN.txt	PIE	Desserts	9	10	[0, 0, 0]	n/a	catFR1	0	R1190P
1439.622	0.817	1447695	WORD_OFF	n/a	n/a	PIE	n/a	9	10	[0, 0, 0]	n/a	catFR1	0	R1190P
1440.439	1.6	1448512	WORD	n/a	wordpools/wordpool_categorized_EN.txt	COBBLER	Desserts	10	10	[0, 0, 0]	n/a	catFR1	0	R1190P
1442.055	0.783	1450128	WORD_OFF	n/a	n/a	COBBLER	n/a	10	10	[0, 0, 0]	n/a	catFR1	0	R1190P
1442.838	1.6	1450911	WORD	n/a	wordpools/wordpool_categorized_EN.txt	COLA	Beverages	11	10	[0, 0, 0]	n/a	catFR1	0	R1190P
1444.439	0.766	1452512	WORD_OFF	n/a	n/a	COLA	n/a	11	10	[0, 0, 0]	n/a	catFR1	0	R1190P
1445.205	1.6	1453278	WORD	n/a	wordpools/wordpool_categorized_EN.txt	WATER	Beverages	12	10	[0, 0, 0]	n/a	catFR1	0	R1190P
1446.822	0.001	1454895	WORD_OFF	n/a	n/a	WATER	n/a	12	10	[0, 0, 0]	n/a	catFR1	0	R1190P
1446.823	0.134	1454896	ENCODING_END	n/a	n/a	n/a	n/a	-999	10	[0, 0, 0]	n/a	catFR1	0	R1190P
1446.957	0.0	1455030	DISTRACT_START	n/a	n/a	n/a	n/a	-999	10	[0, 0, 0]	n/a	catFR1	0	R1190P
1446.957	0.015	1455030	START	n/a	n/a	n/a	n/a	-999	10	[-999, -999, -999]	n/a	catFR1	0	R1190P
1446.972	11.604	1455045	PROB	11.567	n/a	n/a	n/a	-999	10	[7, 1, 5]	13.0	catFR1	0	R1190P
1458.576	9.172	1466648	PROB	9.172	n/a	n/a	n/a	-999	10	[6, 8, 9]	23.0	catFR1	0	R1190P
1467.748	0.012	1475820	STOP	n/a	n/a	n/a	n/a	-999	10	[-999, -999, -999]	n/a	catFR1	0	R1190P
1467.76	0.651	1475832	DISTRACT_END	n/a	n/a	n/a	n/a	-999	10	[0, 0, 0]	n/a	catFR1	0	R1190P
1468.411	0.516	1476483	RETRIEVAL_ORIENT	n/a	n/a	n/a	n/a	-999	10	[0, 0, 0]	n/a	catFR1	0	R1190P
1468.927	0.753	1476999	REC_START	n/a	n/a	n/a	n/a	-999	10	[0, 0, 0]	n/a	catFR1	0	R1190P
1469.68	3.307	1477752	REC_WORD_VV	0.753	n/a	<>	n/a	-999	10	[0, 0, 0]	n/a	catFR1	0	R1190P
1472.987	0.903	1481058	REC_WORD	4.06	n/a	PIE	Desserts	9	10	[0, 0, 0]	n/a	catFR1	0	R1190P
1473.89	3.791	1481961	REC_WORD	4.963	n/a	COBBLER	Desserts	10	10	[0, 0, 0]	n/a	catFR1	0	R1190P
1477.681	2.22	1485752	REC_WORD	8.754	n/a	COLA	Beverages	11	10	[0, 0, 0]	n/a	catFR1	0	R1190P
1479.901	3.191	1487972	REC_WORD	10.974	n/a	WATER	Beverages	12	10	[0, 0, 0]	n/a	catFR1	0	R1190P
1483.092	8.071	1491163	REC_WORD_VV	14.165	n/a	<>	n/a	-999	10	[0, 0, 0]	n/a	catFR1	0	R1190P
1491.163	3.288	1499234	REC_WORD	22.236	n/a	TRUMPET	n/a	-999	10	[0, 0, 0]	n/a	catFR1	0	R1190P
1494.451	3.626	1502521	REC_WORD_VV	25.524	n/a	<>	n/a	-999	10	[0, 0, 0]	n/a	catFR1	0	R1190P
1498.077	0.862	1506147	REC_WORD_VV	29.15	n/a	<>	n/a	-999	10	[0, 0, 0]	n/a	catFR1	0	R1190P
1498.939	7.145	1507009	REC_END	n/a	n/a	n/a	n/a	-999	10	[0, 0, 0]	n/a	catFR1	0	R1190P
1506.084	0.5	1514154	TRIAL	n/a	n/a	n/a	n/a	-999	11	[0, 0, 0]	n/a	catFR1	0	R1190P
1506.584	10.0	1514654	COUNTDOWN_START	n/a	n/a	n/a	n/a	-999	11	[0, 0, 0]	n/a	catFR1	0	R1190P
1517.012	0.007	1525081	COUNTDOWN_END	n/a	n/a	n/a	n/a	-999	11	[0, 0, 0]	n/a	catFR1	0	R1190P
1517.019	1.6	1525088	ORIENT	n/a	n/a	n/a	n/a	-999	11	[0, 0, 0]	n/a	catFR1	0	R1190P
1518.637	2.066	1526706	ORIENT_OFF	n/a	n/a	n/a	n/a	-999	11	[0, 0, 0]	n/a	catFR1	0	R1190P
1520.703	1.6	1528772	WORD	n/a	wordpools/wordpool_categorized_EN.txt	DRUM	Instruments	1	11	[0, 0, 0]	n/a	catFR1	0	R1190P
1522.321	0.882	1530390	WORD_OFF	n/a	n/a	DRUM	n/a	1	11	[0, 0, 0]	n/a	catFR1	0	R1190P
1523.203	1.6	1531272	WORD	n/a	wordpools/wordpool_categorized_EN.txt	TUBA	Instruments	2	11	[0, 0, 0]	n/a	catFR1	0	R1190P
1524.82	0.884	1532889	WORD_OFF	n/a	n/a	TUBA	n/a	2	11	[0, 0, 0]	n/a	catFR1	0	R1190P
1525.704	1.6	1533773	WORD	n/a	wordpools/wordpool_categorized_EN.txt	AXE	Tools	3	11	[0, 0, 0]	n/a	catFR1	0	R1190P
1527.322	1.0	1535391	WORD_OFF	n/a	n/a	AXE	n/a	3	11	[0, 0, 0]	n/a	catFR1	0	R1190P
1528.322	1.6	1536391	WORD	n/a	wordpools/wordpool_categorized_EN.txt	LEVEL	Tools	4	11	[0, 0, 0]	n/a	catFR1	0	R1190P
1529.938	0.833	1538007	WORD_OFF	n/a	n/a	LEVEL	n/a	4	11	[0, 0, 0]	n/a	catFR1	0	R1190P
1530.771	1.6	1538840	WORD	n/a	wordpools/wordpool_categorized_EN.txt	FINGERS	BodyParts	5	11	[0, 0, 0]	n/a	catFR1	0	R1190P
1532.373	1.017	1540441	WORD_OFF	n/a	n/a	FINGERS	n/a	5	11	[0, 0, 0]	n/a	catFR1	0	R1190P
1533.39	1.6	1541458	WORD	n/a	wordpools/wordpool_categorized_EN.txt	HEAD	BodyParts	6	11	[0, 0, 0]	n/a	catFR1	0	R1190P
1535.006	0.9	1543074	WORD_OFF	n/a	n/a	HEAD	n/a	6	11	[0, 0, 0]	n/a	catFR1	0	R1190P
1535.906	1.6	1543974	WORD	n/a	wordpools/wordpool_categorized_EN.txt	CROWBAR	Tools	7	11	[0, 0, 0]	n/a	catFR1	0	R1190P
1537.524	0.783	1545592	WORD_OFF	n/a	n/a	CROWBAR	n/a	7	11	[0, 0, 0]	n/a	catFR1	0	R1190P
1538.307	1.6	1546375	WORD	n/a	wordpools/wordpool_categorized_EN.txt	HAMMER	Tools	8	11	[0, 0, 0]	n/a	catFR1	0	R1190P
1539.923	0.984	1547991	WORD_OFF	n/a	n/a	HAMMER	n/a	8	11	[0, 0, 0]	n/a	catFR1	0	R1190P
1540.907	1.6	1548975	WORD	n/a	wordpools/wordpool_categorized_EN.txt	CELLO	Instruments	9	11	[0, 0, 0]	n/a	catFR1	0	R1190P
1542.508	0.9	1550576	WORD_OFF	n/a	n/a	CELLO	n/a	9	11	[0, 0, 0]	n/a	catFR1	0	R1190P
1543.408	1.6	1551476	WORD	n/a	wordpools/wordpool_categorized_EN.txt	ORGAN	Instruments	10	11	[0, 0, 0]	n/a	catFR1	0	R1190P
1545.024	0.967	1553092	WORD_OFF	n/a	n/a	ORGAN	n/a	10	11	[0, 0, 0]	n/a	catFR1	0	R1190P
1545.991	1.6	1554059	WORD	n/a	wordpools/wordpool_categorized_EN.txt	ARM	BodyParts	11	11	[0, 0, 0]	n/a	catFR1	0	R1190P
1547.592	0.9	1555660	WORD_OFF	n/a	n/a	ARM	n/a	11	11	[0, 0, 0]	n/a	catFR1	0	R1190P
1548.492	1.6	1556560	WORD	n/a	wordpools/wordpool_categorized_EN.txt	EYE	BodyParts	12	11	[0, 0, 0]	n/a	catFR1	0	R1190P
1550.108	0.001	1558176	WORD_OFF	n/a	n/a	EYE	n/a	12	11	[0, 0, 0]	n/a	catFR1	0	R1190P
1550.109	0.103	1558177	ENCODING_END	n/a	n/a	n/a	n/a	-999	11	[0, 0, 0]	n/a	catFR1	0	R1190P
1550.212	0.0	1558280	DISTRACT_START	n/a	n/a	n/a	n/a	-999	11	[0, 0, 0]	n/a	catFR1	0	R1190P
1550.212	0.013	1558280	START	n/a	n/a	n/a	n/a	-999	11	[-999, -999, -999]	n/a	catFR1	0	R1190P
1550.225	6.001	1558293	PROB	5.977	n/a	n/a	n/a	-999	11	[1, 7, 6]	14.0	catFR1	0	R1190P
1556.226	6.885	1564293	PROB	6.858	n/a	n/a	n/a	-999	11	[7, 7, 4]	18.0	catFR1	0	R1190P
1563.111	5.469	1571178	PROB	5.446	n/a	n/a	n/a	-999	11	[1, 6, 5]	12.0	catFR1	0	R1190P
1568.58	4.072	1576647	PROB	4.072	n/a	n/a	n/a	-999	11	[1, 4, 4]	9.0	catFR1	0	R1190P
1572.652	0.012	1580718	STOP	n/a	n/a	n/a	n/a	-999	11	[-999, -999, -999]	n/a	catFR1	0	R1190P
1572.664	0.549	1580730	DISTRACT_END	n/a	n/a	n/a	n/a	-999	11	[0, 0, 0]	n/a	catFR1	0	R1190P
1573.213	0.517	1581279	RETRIEVAL_ORIENT	n/a	n/a	n/a	n/a	-999	11	[0, 0, 0]	n/a	catFR1	0	R1190P
1573.73	1.213	1581796	REC_START	n/a	n/a	n/a	n/a	-999	11	[0, 0, 0]	n/a	catFR1	0	R1190P
1574.943	1.63	1583009	REC_WORD	1.213	n/a	CELLO	Instruments	9	11	[0, 0, 0]	n/a	catFR1	0	R1190P
1576.573	1.128	1584639	REC_WORD	2.843	n/a	AXE	Tools	3	11	[0, 0, 0]	n/a	catFR1	0	R1190P
1577.701	1.0	1585767	REC_WORD	3.971	n/a	CROWBAR	Tools	7	11	[0, 0, 0]	n/a	catFR1	0	R1190P
1578.701	1.472	1586767	REC_WORD_VV	4.971	n/a	<>	n/a	-999	11	[0, 0, 0]	n/a	catFR1	0	R1190P
1580.173	4.925	1588239	REC_WORD_VV	6.443	n/a	<>	n/a	-999	11	[0, 0, 0]	n/a	catFR1	0	R1190P
1585.098	1.0	1593164	REC_WORD_VV	11.368	n/a	<>	n/a	-999	11	[0, 0, 0]	n/a	catFR1	0	R1190P
1586.098	4.959	1594164	REC_WORD_VV	12.368	n/a	<>	n/a	-999	11	[0, 0, 0]	n/a	catFR1	0	R1190P
1591.057	12.685	1599122	REC_WORD_VV	17.327	n/a	<>	n/a	-999	11	[0, 0, 0]	n/a	catFR1	0	R1190P
1603.742	5.562	1611807	REC_END	n/a	n/a	n/a	n/a	-999	11	[0, 0, 0]	n/a	catFR1	0	R1190P
1609.304	0.5	1617369	TRIAL	n/a	n/a	n/a	n/a	-999	12	[0, 0, 0]	n/a	catFR1	0	R1190P
1609.804	10.0	1617869	COUNTDOWN_START	n/a	n/a	n/a	n/a	-999	12	[0, 0, 0]	n/a	catFR1	0	R1190P
1620.232	0.006	1628296	COUNTDOWN_END	n/a	n/a	n/a	n/a	-999	12	[0, 0, 0]	n/a	catFR1	0	R1190P
1620.238	1.6	1628302	ORIENT	n/a	n/a	n/a	n/a	-999	12	[0, 0, 0]	n/a	catFR1	0	R1190P
1621.839	2.133	1629903	ORIENT_OFF	n/a	n/a	n/a	n/a	-999	12	[0, 0, 0]	n/a	catFR1	0	R1190P
1623.972	1.6	1632036	WORD	n/a	wordpools/wordpool_categorized_EN.txt	DOVE	Birds	1	12	[0, 0, 0]	n/a	catFR1	0	R1190P
1625.573	0.984	1633637	WORD_OFF	n/a	n/a	DOVE	n/a	1	12	[0, 0, 0]	n/a	catFR1	0	R1190P
1626.557	1.6	1634621	WORD	n/a	wordpools/wordpool_categorized_EN.txt	HAWK	Birds	2	12	[0, 0, 0]	n/a	catFR1	0	R1190P
1628.173	0.934	1636237	WORD_OFF	n/a	n/a	HAWK	n/a	2	12	[0, 0, 0]	n/a	catFR1	0	R1190P
1629.107	1.6	1637171	WORD	n/a	wordpools/wordpool_categorized_EN.txt	SOCKS	Clothing	3	12	[0, 0, 0]	n/a	catFR1	0	R1190P
1630.724	0.884	1638787	WORD_OFF	n/a	n/a	SOCKS	n/a	3	12	[0, 0, 0]	n/a	catFR1	0	R1190P
1631.608	1.6	1639671	WORD	n/a	wordpools/wordpool_categorized_EN.txt	DRESS	Clothing	4	12	[0, 0, 0]	n/a	catFR1	0	R1190P
1633.224	0.884	1641287	WORD_OFF	n/a	n/a	DRESS	n/a	4	12	[0, 0, 0]	n/a	catFR1	0	R1190P
1634.108	1.6	1642171	WORD	n/a	wordpools/wordpool_categorized_EN.txt	WRENCH	Tools	5	12	[0, 0, 0]	n/a	catFR1	0	R1190P
1635.725	0.834	1643788	WORD_OFF	n/a	n/a	WRENCH	n/a	5	12	[0, 0, 0]	n/a	catFR1	0	R1190P
1636.559	1.6	1644622	WORD	n/a	wordpools/wordpool_categorized_EN.txt	PLIERS	Tools	6	12	[0, 0, 0]	n/a	catFR1	0	R1190P
1638.175	0.8	1646238	WORD_OFF	n/a	n/a	PLIERS	n/a	6	12	[0, 0, 0]	n/a	catFR1	0	R1190P
1638.975	1.6	1647038	WORD	n/a	wordpools/wordpool_categorized_EN.txt	DUCK	Birds	7	12	[0, 0, 0]	n/a	catFR1	0	R1190P
1640.593	0.834	1648656	WORD_OFF	n/a	n/a	DUCK	n/a	7	12	[0, 0, 0]	n/a	catFR1	0	R1190P
1641.427	1.6	1649490	WORD	n/a	wordpools/wordpool_categorized_EN.txt	SEAGULL	Birds	8	12	[0, 0, 0]	n/a	catFR1	0	R1190P
1643.043	0.9	1651106	WORD_OFF	n/a	n/a	SEAGULL	n/a	8	12	[0, 0, 0]	n/a	catFR1	0	R1190P
1643.943	1.6	1652006	WORD	n/a	wordpools/wordpool_categorized_EN.txt	JEANS	Clothing	9	12	[0, 0, 0]	n/a	catFR1	0	R1190P
1645.561	0.8	1653624	WORD_OFF	n/a	n/a	JEANS	n/a	9	12	[0, 0, 0]	n/a	catFR1	0	R1190P
1646.361	1.6	1654424	WORD	n/a	wordpools/wordpool_categorized_EN.txt	SKIRT	Clothing	10	12	[0, 0, 0]	n/a	catFR1	0	R1190P
1647.977	1.0	1656040	WORD_OFF	n/a	n/a	SKIRT	n/a	10	12	[0, 0, 0]	n/a	catFR1	0	R1190P
1648.977	1.6	1657040	WORD	n/a	wordpools/wordpool_categorized_EN.txt	RATCHET	Tools	11	12	[0, 0, 0]	n/a	catFR1	0	R1190P
1650.595	0.817	1658657	WORD_OFF	n/a	n/a	RATCHET	n/a	11	12	[0, 0, 0]	n/a	catFR1	0	R1190P
1651.412	1.6	1659474	WORD	n/a	wordpools/wordpool_categorized_EN.txt	SAW	Tools	12	12	[0, 0, 0]	n/a	catFR1	0	R1190P
1653.028	0.0	1661090	ENCODING_END	n/a	n/a	n/a	n/a	-999	12	[0, 0, 0]	n/a	catFR1	0	R1190P
1653.028	0.143	1661090	WORD_OFF	n/a	n/a	SAW	n/a	12	12	[0, 0, 0]	n/a	catFR1	0	R1190P
1653.171	0.0	1661233	DISTRACT_START	n/a	n/a	n/a	n/a	-999	12	[0, 0, 0]	n/a	catFR1	0	R1190P
1653.171	0.024	1661233	START	n/a	n/a	n/a	n/a	-999	12	[-999, -999, -999]	n/a	catFR1	0	R1190P
1653.195	10.818	1661257	PROB	10.792	n/a	n/a	n/a	-999	12	[6, 8, 7]	21.0	catFR1	0	R1190P
1664.013	12.197	1672075	PROB	12.197	n/a	n/a	n/a	-999	12	[9, 9, 8]	27.0	catFR1	0	R1190P
1676.21	0.006	1684271	STOP	n/a	n/a	n/a	n/a	-999	12	[-999, -999, -999]	n/a	catFR1	0	R1190P
1676.216	0.516	1684277	DISTRACT_END	n/a	n/a	n/a	n/a	-999	12	[0, 0, 0]	n/a	catFR1	0	R1190P
1676.732	0.519	1684793	RETRIEVAL_ORIENT	n/a	n/a	n/a	n/a	-999	12	[0, 0, 0]	n/a	catFR1	0	R1190P
1677.251	2.113	1685312	REC_START	n/a	n/a	n/a	n/a	-999	12	[0, 0, 0]	n/a	catFR1	0	R1190P
1679.364	4.952	1687425	REC_WORD_VV	2.113	n/a	<>	n/a	-999	12	[0, 0, 0]	n/a	catFR1	0	R1190P
1684.316	1.0	1692377	REC_WORD_VV	7.065	n/a	<>	n/a	-999	12	[0, 0, 0]	n/a	catFR1	0	R1190P
1685.316	18.913	1693377	REC_WORD_VV	8.065	n/a	<>	n/a	-999	12	[0, 0, 0]	n/a	catFR1	0	R1190P
1704.229	3.035	1712289	REC_WORD_VV	26.978	n/a	<>	n/a	-999	12	[0, 0, 0]	n/a	catFR1	0	R1190P
1707.264	23.612	1715324	REC_END	n/a	n/a	n/a	n/a	-999	12	[0, 0, 0]	n/a	catFR1	0	R1190P
1730.876	0.5	1738934	TRIAL	n/a	n/a	n/a	n/a	-999	13	[0, 0, 0]	n/a	catFR1	0	R1190P
1731.376	10.0	1739434	COUNTDOWN_START	n/a	n/a	n/a	n/a	-999	13	[0, 0, 0]	n/a	catFR1	0	R1190P
1741.804	0.007	1749862	COUNTDOWN_END	n/a	n/a	n/a	n/a	-999	13	[0, 0, 0]	n/a	catFR1	0	R1190P
1741.811	1.6	1749869	ORIENT	n/a	n/a	n/a	n/a	-999	13	[0, 0, 0]	n/a	catFR1	0	R1190P
1743.429	2.117	1751487	ORIENT_OFF	n/a	n/a	n/a	n/a	-999	13	[0, 0, 0]	n/a	catFR1	0	R1190P
1745.546	1.6	1753604	WORD	n/a	wordpools/wordpool_categorized_EN.txt	SPARROW	Birds	1	13	[0, 0, 0]	n/a	catFR1	0	R1190P
1747.162	0.9	1755220	WORD_OFF	n/a	n/a	SPARROW	n/a	1	13	[0, 0, 0]	n/a	catFR1	0	R1190P
1748.062	1.6	1756119	WORD	n/a	wordpools/wordpool_categorized_EN.txt	CROW	Birds	2	13	[0, 0, 0]	n/a	catFR1	0	R1190P
1749.663	0.951	1757720	WORD_OFF	n/a	n/a	CROW	n/a	2	13	[0, 0, 0]	n/a	catFR1	0	R1190P
1750.614	1.6	1758671	WORD	n/a	wordpools/wordpool_categorized_EN.txt	TIGER	Zoo	3	13	[0, 0, 0]	n/a	catFR1	0	R1190P
1752.23	0.95	1760287	WORD_OFF	n/a	n/a	TIGER	n/a	3	13	[0, 0, 0]	n/a	catFR1	0	R1190P
1753.18	1.6	1761237	WORD	n/a	wordpools/wordpool_categorized_EN.txt	CHEETAH	Zoo	4	13	[0, 0, 0]	n/a	catFR1	0	R1190P
1754.797	0.818	1762854	WORD_OFF	n/a	n/a	CHEETAH	n/a	4	13	[0, 0, 0]	n/a	catFR1	0	R1190P
1755.615	1.6	1763672	WORD	n/a	wordpools/wordpool_categorized_EN.txt	BEETLE	Insects	5	13	[0, 0, 0]	n/a	catFR1	0	R1190P
1757.231	0.883	1765288	WORD_OFF	n/a	n/a	BEETLE	n/a	5	13	[0, 0, 0]	n/a	catFR1	0	R1190P
1758.114	1.6	1766171	WORD	n/a	wordpools/wordpool_categorized_EN.txt	MOTH	Insects	6	13	[0, 0, 0]	n/a	catFR1	0	R1190P
1759.731	0.918	1767788	WORD_OFF	n/a	n/a	MOTH	n/a	6	13	[0, 0, 0]	n/a	catFR1	0	R1190P
1760.649	1.6	1768706	WORD	n/a	wordpools/wordpool_categorized_EN.txt	CARDINAL	Birds	7	13	[0, 0, 0]	n/a	catFR1	0	R1190P
1762.266	0.933	1770323	WORD_OFF	n/a	n/a	CARDINAL	n/a	7	13	[0, 0, 0]	n/a	catFR1	0	R1190P
1763.199	1.6	1771256	WORD	n/a	wordpools/wordpool_categorized_EN.txt	FINCH	Birds	8	13	[0, 0, 0]	n/a	catFR1	0	R1190P
1764.816	1.0	1772873	WORD_OFF	n/a	n/a	FINCH	n/a	8	13	[0, 0, 0]	n/a	catFR1	0	R1190P
1765.816	1.6	1773873	WORD	n/a	wordpools/wordpool_categorized_EN.txt	MONKEY	Zoo	9	13	[0, 0, 0]	n/a	catFR1	0	R1190P
1767.434	0.883	1775490	WORD_OFF	n/a	n/a	MONKEY	n/a	9	13	[0, 0, 0]	n/a	catFR1	0	R1190P
1768.317	1.6	1776373	WORD	n/a	wordpools/wordpool_categorized_EN.txt	PANDA	Zoo	10	13	[0, 0, 0]	n/a	catFR1	0	R1190P
1769.933	0.884	1777989	WORD_OFF	n/a	n/a	PANDA	n/a	10	13	[0, 0, 0]	n/a	catFR1	0	R1190P
1770.817	1.6	1778873	WORD	n/a	wordpools/wordpool_categorized_EN.txt	ROACH	Insects	11	13	[0, 0, 0]	n/a	catFR1	0	R1190P
1772.435	0.9	1780491	WORD_OFF	n/a	n/a	ROACH	n/a	11	13	[0, 0, 0]	n/a	catFR1	0	R1190P
1773.335	1.6	1781391	WORD	n/a	wordpools/wordpool_categorized_EN.txt	CRICKET	Insects	12	13	[0, 0, 0]	n/a	catFR1	0	R1190P
1774.951	0.0	1783007	ENCODING_END	n/a	n/a	n/a	n/a	-999	13	[0, 0, 0]	n/a	catFR1	0	R1190P
1774.951	0.103	1783007	WORD_OFF	n/a	n/a	CRICKET	n/a	12	13	[0, 0, 0]	n/a	catFR1	0	R1190P
1775.054	0.0	1783110	DISTRACT_START	n/a	n/a	n/a	n/a	-999	13	[0, 0, 0]	n/a	catFR1	0	R1190P
1775.054	0.014	1783110	START	n/a	n/a	n/a	n/a	-999	13	[-999, -999, -999]	n/a	catFR1	0	R1190P
1775.068	11.419	1783124	PROB	11.383	n/a	n/a	n/a	-999	13	[9, 6, 6]	21.0	catFR1	0	R1190P
1786.487	4.968	1794543	PROB	4.942	n/a	n/a	n/a	-999	13	[4, 4, 8]	16.0	catFR1	0	R1190P
1791.455	11.853	1799510	PROB	11.853	n/a	n/a	n/a	-999	13	[6, 6, 7]	19.0	catFR1	0	R1190P
1803.308	0.016	1811363	STOP	n/a	n/a	n/a	n/a	-999	13	[-999, -999, -999]	n/a	catFR1	0	R1190P
1803.324	0.582	1811379	DISTRACT_END	n/a	n/a	n/a	n/a	-999	13	[0, 0, 0]	n/a	catFR1	0	R1190P
1803.906	0.502	1811961	RETRIEVAL_ORIENT	n/a	n/a	n/a	n/a	-999	13	[0, 0, 0]	n/a	catFR1	0	R1190P
1804.408	2.904	1812463	REC_START	n/a	n/a	n/a	n/a	-999	13	[0, 0, 0]	n/a	catFR1	0	R1190P
1807.312	3.602	1815366	REC_WORD	2.904	n/a	CARDINAL	Birds	7	13	[0, 0, 0]	n/a	catFR1	0	R1190P
1810.914	1.221	1818968	REC_WORD_VV	6.506	n/a	<>	n/a	-999	13	[0, 0, 0]	n/a	catFR1	0	R1190P
1812.135	7.5	1820189	REC_WORD_VV	7.727	n/a	<>	n/a	-999	13	[0, 0, 0]	n/a	catFR1	0	R1190P
1819.635	3.795	1827689	REC_WORD	15.227	n/a	GULL	n/a	-999	13	[0, 0, 0]	n/a	catFR1	0	R1190P
1823.43	2.437	1831484	REC_WORD_VV	19.022	n/a	<>	n/a	-999	13	[0, 0, 0]	n/a	catFR1	0	R1190P
1825.867	1.2	1833921	REC_WORD	21.459	n/a	MONKEY	Zoo	9	13	[0, 0, 0]	n/a	catFR1	0	R1190P
1827.067	1.0	1835120	REC_WORD	22.659	n/a	CHIMPANZEE	n/a	-999	13	[0, 0, 0]	n/a	catFR1	0	R1190P
1828.067	4.346	1836120	REC_WORD_VV	23.659	n/a	<>	n/a	-999	13	[0, 0, 0]	n/a	catFR1	0	R1190P
1832.413	2.007	1840466	REC_WORD	28.005	n/a	TOAD	n/a	-999	13	[0, 0, 0]	n/a	catFR1	0	R1190P
1834.42	31.698	1842473	REC_END	n/a	n/a	n/a	n/a	-999	13	[0, 0, 0]	n/a	catFR1	0	R1190P
1866.118	0.5	1874169	TRIAL	n/a	n/a	n/a	n/a	-999	14	[0, 0, 0]	n/a	catFR1	0	R1190P
1866.618	10.0	1874669	COUNTDOWN_START	n/a	n/a	n/a	n/a	-999	14	[0, 0, 0]	n/a	catFR1	0	R1190P
1877.046	0.007	1885097	COUNTDOWN_END	n/a	n/a	n/a	n/a	-999	14	[0, 0, 0]	n/a	catFR1	0	R1190P
1877.053	1.6	1885104	ORIENT	n/a	n/a	n/a	n/a	-999	14	[0, 0, 0]	n/a	catFR1	0	R1190P
1878.654	2.05	1886705	ORIENT_OFF	n/a	n/a	n/a	n/a	-999	14	[0, 0, 0]	n/a	catFR1	0	R1190P
1880.704	1.6	1888755	WORD	n/a	wordpools/wordpool_categorized_EN.txt	ORANGUTAN	Zoo	1	14	[0, 0, 0]	n/a	catFR1	0	R1190P
1882.322	0.816	1890373	WORD_OFF	n/a	n/a	ORANGUTAN	n/a	1	14	[0, 0, 0]	n/a	catFR1	0	R1190P
1883.138	1.6	1891189	WORD	n/a	wordpools/wordpool_categorized_EN.txt	ZEBRA	Zoo	2	14	[0, 0, 0]	n/a	catFR1	0	R1190P
1884.755	0.818	1892806	WORD_OFF	n/a	n/a	ZEBRA	n/a	2	14	[0, 0, 0]	n/a	catFR1	0	R1190P
1885.573	1.6	1893623	WORD	n/a	wordpools/wordpool_categorized_EN.txt	PEELER	KitchenTools	3	14	[0, 0, 0]	n/a	catFR1	0	R1190P
1887.189	0.966	1895239	WORD_OFF	n/a	n/a	PEELER	n/a	3	14	[0, 0, 0]	n/a	catFR1	0	R1190P
1888.155	1.6	1896205	WORD	n/a	wordpools/wordpool_categorized_EN.txt	WHISK	KitchenTools	4	14	[0, 0, 0]	n/a	catFR1	0	R1190P
1889.772	1.001	1897822	WORD_OFF	n/a	n/a	WHISK	n/a	4	14	[0, 0, 0]	n/a	catFR1	0	R1190P
1890.773	1.6	1898823	WORD	n/a	wordpools/wordpool_categorized_EN.txt	WASHER	Appliances	5	14	[0, 0, 0]	n/a	catFR1	0	R1190P
1892.391	0.916	1900441	WORD_OFF	n/a	n/a	WASHER	n/a	5	14	[0, 0, 0]	n/a	catFR1	0	R1190P
1893.307	1.6	1901357	WORD	n/a	wordpools/wordpool_categorized_EN.txt	FREEZER	Appliances	6	14	[0, 0, 0]	n/a	catFR1	0	R1190P
1894.923	0.951	1902973	WORD_OFF	n/a	n/a	FREEZER	n/a	6	14	[0, 0, 0]	n/a	catFR1	0	R1190P
1895.874	1.6	1903924	WORD	n/a	wordpools/wordpool_categorized_EN.txt	BEAR	Zoo	7	14	[0, 0, 0]	n/a	catFR1	0	R1190P
1897.491	0.934	1905541	WORD_OFF	n/a	n/a	BEAR	n/a	7	14	[0, 0, 0]	n/a	catFR1	0	R1190P
1898.425	1.6	1906475	WORD	n/a	wordpools/wordpool_categorized_EN.txt	ELEPHANT	Zoo	8	14	[0, 0, 0]	n/a	catFR1	0	R1190P
1900.041	0.817	1908091	WORD_OFF	n/a	n/a	ELEPHANT	n/a	8	14	[0, 0, 0]	n/a	catFR1	0	R1190P
1900.858	1.6	1908908	WORD	n/a	wordpools/wordpool_categorized_EN.txt	SPOON	KitchenTools	9	14	[0, 0, 0]	n/a	catFR1	0	R1190P
1902.476	0.933	1910526	WORD_OFF	n/a	n/a	SPOON	n/a	9	14	[0, 0, 0]	n/a	catFR1	0	R1190P
1903.409	1.6	1911459	WORD	n/a	wordpools/wordpool_categorized_EN.txt	KNIFE	KitchenTools	10	14	[0, 0, 0]	n/a	catFR1	0	R1190P
1905.025	0.9	1913075	WORD_OFF	n/a	n/a	KNIFE	n/a	10	14	[0, 0, 0]	n/a	catFR1	0	R1190P
1905.925	1.6	1913974	WORD	n/a	wordpools/wordpool_categorized_EN.txt	TOASTER	Appliances	11	14	[0, 0, 0]	n/a	catFR1	0	R1190P
1907.543	1.001	1915592	WORD_OFF	n/a	n/a	TOASTER	n/a	11	14	[0, 0, 0]	n/a	catFR1	0	R1190P
1908.544	1.6	1916593	WORD	n/a	wordpools/wordpool_categorized_EN.txt	DRYER	Appliances	12	14	[0, 0, 0]	n/a	catFR1	0	R1190P
1910.16	0.0	1918209	ENCODING_END	n/a	n/a	n/a	n/a	-999	14	[0, 0, 0]	n/a	catFR1	0	R1190P
1910.16	0.103	1918209	WORD_OFF	n/a	n/a	DRYER	n/a	12	14	[0, 0, 0]	n/a	catFR1	0	R1190P
1910.263	0.001	1918312	DISTRACT_START	n/a	n/a	n/a	n/a	-999	14	[0, 0, 0]	n/a	catFR1	0	R1190P
1910.264	0.013	1918313	START	n/a	n/a	n/a	n/a	-999	14	[-999, -999, -999]	n/a	catFR1	0	R1190P
1910.277	10.319	1918326	PROB	10.288	n/a	n/a	n/a	-999	14	[6, 5, 9]	21.0	catFR1	0	R1190P
1920.596	7.651	1928645	PROB	7.622	n/a	n/a	n/a	-999	14	[9, 4, 8]	21.0	catFR1	0	R1190P
1928.247	6.612	1936295	PROB	6.612	n/a	n/a	n/a	-999	14	[7, 9, 3]	19.0	catFR1	0	R1190P
1934.859	0.005	1942907	STOP	n/a	n/a	n/a	n/a	-999	14	[-999, -999, -999]	n/a	catFR1	0	R1190P
1934.864	0.668	1942912	DISTRACT_END	n/a	n/a	n/a	n/a	-999	14	[0, 0, 0]	n/a	catFR1	0	R1190P
1935.532	0.516	1943580	RETRIEVAL_ORIENT	n/a	n/a	n/a	n/a	-999	14	[0, 0, 0]	n/a	catFR1	0	R1190P
1936.048	1.942	1944096	REC_START	n/a	n/a	n/a	n/a	-999	14	[0, 0, 0]	n/a	catFR1	0	R1190P
1937.99	3.001	1946038	REC_WORD_VV	1.942	n/a	<>	n/a	-999	14	[0, 0, 0]	n/a	catFR1	0	R1190P
1940.991	7.473	1949039	REC_WORD_VV	4.943	n/a	<>	n/a	-999	14	[0, 0, 0]	n/a	catFR1	0	R1190P
1948.464	1.0	1956511	REC_WORD_VV	12.416	n/a	<>	n/a	-999	14	[0, 0, 0]	n/a	catFR1	0	R1190P
1949.464	4.433	1957511	REC_WORD_VV	13.416	n/a	<>	n/a	-999	14	[0, 0, 0]	n/a	catFR1	0	R1190P
1953.897	1.152	1961944	REC_WORD	17.849	n/a	CARDINAL	n/a	-999	14	[0, 0, 0]	n/a	catFR1	0	R1190P
1955.049	1.0	1963096	REC_WORD_VV	19.001	n/a	<>	n/a	-999	14	[0, 0, 0]	n/a	catFR1	0	R1190P
1956.049	1.0	1964096	REC_WORD_VV	20.001	n/a	<>	n/a	-999	14	[0, 0, 0]	n/a	catFR1	0	R1190P
1957.049	1.287	1965096	REC_WORD_VV	21.001	n/a	<>	n/a	-999	14	[0, 0, 0]	n/a	catFR1	0	R1190P
1958.336	4.684	1966383	REC_WORD_VV	22.288	n/a	<>	n/a	-999	14	[0, 0, 0]	n/a	catFR1	0	R1190P
1963.02	3.041	1971067	REC_WORD	26.972	n/a	TURTLE	n/a	-999	14	[0, 0, 0]	n/a	catFR1	0	R1190P
1966.061	5.81	1974107	REC_END	n/a	n/a	n/a	n/a	-999	14	[0, 0, 0]	n/a	catFR1	0	R1190P
1971.871	0.5	1979917	TRIAL	n/a	n/a	n/a	n/a	-999	15	[0, 0, 0]	n/a	catFR1	0	R1190P
1972.371	10.0	1980417	COUNTDOWN_START	n/a	n/a	n/a	n/a	-999	15	[0, 0, 0]	n/a	catFR1	0	R1190P
1982.799	0.008	1990845	COUNTDOWN_END	n/a	n/a	n/a	n/a	-999	15	[0, 0, 0]	n/a	catFR1	0	R1190P
1982.807	1.6	1990853	ORIENT	n/a	n/a	n/a	n/a	-999	15	[0, 0, 0]	n/a	catFR1	0	R1190P
1984.425	2.25	1992470	ORIENT_OFF	n/a	n/a	n/a	n/a	-999	15	[0, 0, 0]	n/a	catFR1	0	R1190P
1986.675	1.6	1994720	WORD	n/a	wordpools/wordpool_categorized_EN.txt	WIND	Weather	1	15	[0, 0, 0]	n/a	catFR1	0	R1190P
1988.292	0.799	1996337	WORD_OFF	n/a	n/a	WIND	n/a	1	15	[0, 0, 0]	n/a	catFR1	0	R1190P
1989.091	1.6	1997136	WORD	n/a	wordpools/wordpool_categorized_EN.txt	DRIZZLE	Weather	2	15	[0, 0, 0]	n/a	catFR1	0	R1190P
1990.708	0.934	1998753	WORD_OFF	n/a	n/a	DRIZZLE	n/a	2	15	[0, 0, 0]	n/a	catFR1	0	R1190P
1991.642	1.6	1999687	WORD	n/a	wordpools/wordpool_categorized_EN.txt	MOSQUITO	Insects	3	15	[0, 0, 0]	n/a	catFR1	0	R1190P
1993.26	0.949	2001305	WORD_OFF	n/a	n/a	MOSQUITO	n/a	3	15	[0, 0, 0]	n/a	catFR1	0	R1190P
1994.209	1.6	2002254	WORD	n/a	wordpools/wordpool_categorized_EN.txt	SPIDER	Insects	4	15	[0, 0, 0]	n/a	catFR1	0	R1190P
1995.826	0.784	2003871	WORD_OFF	n/a	n/a	SPIDER	n/a	4	15	[0, 0, 0]	n/a	catFR1	0	R1190P
1996.61	1.6	2004655	WORD	n/a	wordpools/wordpool_categorized_EN.txt	FLUTE	Instruments	5	15	[0, 0, 0]	n/a	catFR1	0	R1190P
1998.226	0.784	2006271	WORD_OFF	n/a	n/a	FLUTE	n/a	5	15	[0, 0, 0]	n/a	catFR1	0	R1190P
1999.01	1.6	2007055	WORD	n/a	wordpools/wordpool_categorized_EN.txt	GUITAR	Instruments	6	15	[0, 0, 0]	n/a	catFR1	0	R1190P
2000.628	0.933	2008673	WORD_OFF	n/a	n/a	GUITAR	n/a	6	15	[0, 0, 0]	n/a	catFR1	0	R1190P
2001.561	1.6	2009606	WORD	n/a	wordpools/wordpool_categorized_EN.txt	THUNDERSTORM	Weather	7	15	[0, 0, 0]	n/a	catFR1	0	R1190P
2003.177	0.867	2011222	WORD_OFF	n/a	n/a	THUNDERSTORM	n/a	7	15	[0, 0, 0]	n/a	catFR1	0	R1190P
2004.044	1.6	2012088	WORD	n/a	wordpools/wordpool_categorized_EN.txt	HURRICANE	Weather	8	15	[0, 0, 0]	n/a	catFR1	0	R1190P
2005.645	0.867	2013689	WORD_OFF	n/a	n/a	HURRICANE	n/a	8	15	[0, 0, 0]	n/a	catFR1	0	R1190P
2006.512	1.6	2014556	WORD	n/a	wordpools/wordpool_categorized_EN.txt	BUTTERFLY	Insects	9	15	[0, 0, 0]	n/a	catFR1	0	R1190P
2008.128	0.834	2016172	WORD_OFF	n/a	n/a	BUTTERFLY	n/a	9	15	[0, 0, 0]	n/a	catFR1	0	R1190P
2008.962	1.6	2017006	WORD	n/a	wordpools/wordpool_categorized_EN.txt	GNAT	Insects	10	15	[0, 0, 0]	n/a	catFR1	0	R1190P
2010.579	0.817	2018623	WORD_OFF	n/a	n/a	GNAT	n/a	10	15	[0, 0, 0]	n/a	catFR1	0	R1190P
2011.396	1.6	2019440	WORD	n/a	wordpools/wordpool_categorized_EN.txt	TROMBONE	Instruments	11	15	[0, 0, 0]	n/a	catFR1	0	R1190P
2013.012	0.85	2021056	WORD_OFF	n/a	n/a	TROMBONE	n/a	11	15	[0, 0, 0]	n/a	catFR1	0	R1190P
2013.862	1.6	2021906	WORD	n/a	wordpools/wordpool_categorized_EN.txt	BASS	Instruments	12	15	[0, 0, 0]	n/a	catFR1	0	R1190P
2015.48	0.001	2023524	WORD_OFF	n/a	n/a	BASS	n/a	12	15	[0, 0, 0]	n/a	catFR1	0	R1190P
2015.481	0.135	2023525	ENCODING_END	n/a	n/a	n/a	n/a	-999	15	[0, 0, 0]	n/a	catFR1	0	R1190P
2015.616	0.001	2023660	DISTRACT_START	n/a	n/a	n/a	n/a	-999	15	[0, 0, 0]	n/a	catFR1	0	R1190P
2015.617	0.013	2023661	START	n/a	n/a	n/a	n/a	-999	15	[-999, -999, -999]	n/a	catFR1	0	R1190P
2015.63	5.668	2023674	PROB	5.63	n/a	n/a	n/a	-999	15	[4, 6, 3]	13.0	catFR1	0	R1190P
2021.298	6.65	2029342	PROB	6.624	n/a	n/a	n/a	-999	15	[7, 6, 1]	14.0	catFR1	0	R1190P
2027.948	4.151	2035991	PROB	4.119	n/a	n/a	n/a	-999	15	[1, 9, 1]	11.0	catFR1	0	R1190P
2032.099	4.442	2040142	PROB	4.442	n/a	n/a	n/a	-999	15	[5, 4, 6]	15.0	catFR1	0	R1190P
2036.541	0.01	2044584	STOP	n/a	n/a	n/a	n/a	-999	15	[-999, -999, -999]	n/a	catFR1	0	R1190P
2036.551	0.666	2044594	DISTRACT_END	n/a	n/a	n/a	n/a	-999	15	[0, 0, 0]	n/a	catFR1	0	R1190P
2037.217	0.517	2045260	RETRIEVAL_ORIENT	n/a	n/a	n/a	n/a	-999	15	[0, 0, 0]	n/a	catFR1	0	R1190P
2037.734	1.357	2045777	REC_START	n/a	n/a	n/a	n/a	-999	15	[0, 0, 0]	n/a	catFR1	0	R1190P
2039.091	2.001	2047134	REC_WORD	1.357	n/a	BASS	Instruments	12	15	[0, 0, 0]	n/a	catFR1	0	R1190P
2041.092	1.455	2049135	REC_WORD	3.358	n/a	GUITAR	Instruments	6	15	[0, 0, 0]	n/a	catFR1	0	R1190P
2042.547	4.723	2050590	REC_WORD	4.813	n/a	TROMBONE	Instruments	11	15	[0, 0, 0]	n/a	catFR1	0	R1190P
2047.27	0.651	2055312	REC_WORD_VV	9.536	n/a	<>	n/a	-999	15	[0, 0, 0]	n/a	catFR1	0	R1190P
2047.921	0.457	2055963	REC_WORD	10.187	n/a	GRIDDLE	n/a	-999	15	[0, 0, 0]	n/a	catFR1	0	R1190P
2048.378	1.497	2056420	REC_WORD_VV	10.644	n/a	<>	n/a	-999	15	[0, 0, 0]	n/a	catFR1	0	R1190P
2049.875	9.181	2057917	REC_WORD_VV	12.141	n/a	<>	n/a	-999	15	[0, 0, 0]	n/a	catFR1	0	R1190P
2059.056	4.122	2067098	REC_WORD_VV	21.322	n/a	<>	n/a	-999	15	[0, 0, 0]	n/a	catFR1	0	R1190P
2063.178	4.57	2071219	REC_WORD	25.444	n/a	GUITAR	Instruments	6	15	[0, 0, 0]	n/a	catFR1	0	R1190P
2067.748	6.359	2075789	REC_END	n/a	n/a	n/a	n/a	-999	15	[0, 0, 0]	n/a	catFR1	0	R1190P
2074.107	0.5	2082148	TRIAL	n/a	n/a	n/a	n/a	-999	16	[0, 0, 0]	n/a	catFR1	0	R1190P
2074.607	10.0	2082648	COUNTDOWN_START	n/a	n/a	n/a	n/a	-999	16	[0, 0, 0]	n/a	catFR1	0	R1190P
2085.035	0.007	2093075	COUNTDOWN_END	n/a	n/a	n/a	n/a	-999	16	[0, 0, 0]	n/a	catFR1	0	R1190P
2085.042	1.6	2093082	ORIENT	n/a	n/a	n/a	n/a	-999	16	[0, 0, 0]	n/a	catFR1	0	R1190P
2086.66	1.884	2094700	ORIENT_OFF	n/a	n/a	n/a	n/a	-999	16	[0, 0, 0]	n/a	catFR1	0	R1190P
2088.544	1.6	2096584	WORD	n/a	wordpools/wordpool_categorized_EN.txt	ANT	Insects	1	16	[0, 0, 0]	n/a	catFR1	0	R1190P
2090.16	0.984	2098200	WORD_OFF	n/a	n/a	ANT	n/a	1	16	[0, 0, 0]	n/a	catFR1	0	R1190P
2091.144	1.6	2099184	WORD	n/a	wordpools/wordpool_categorized_EN.txt	LADYBUG	Insects	2	16	[0, 0, 0]	n/a	catFR1	0	R1190P
2092.761	0.834	2100801	WORD_OFF	n/a	n/a	LADYBUG	n/a	2	16	[0, 0, 0]	n/a	catFR1	0	R1190P
2093.595	1.6	2101635	WORD	n/a	wordpools/wordpool_categorized_EN.txt	FOREST	Landscapes	3	16	[0, 0, 0]	n/a	catFR1	0	R1190P
2095.211	0.834	2103251	WORD_OFF	n/a	n/a	FOREST	n/a	3	16	[0, 0, 0]	n/a	catFR1	0	R1190P
2096.045	1.6	2104085	WORD	n/a	wordpools/wordpool_categorized_EN.txt	STREAM	Landscapes	4	16	[0, 0, 0]	n/a	catFR1	0	R1190P
2097.663	0.983	2105703	WORD_OFF	n/a	n/a	STREAM	n/a	4	16	[0, 0, 0]	n/a	catFR1	0	R1190P
2098.646	1.6	2106686	WORD	n/a	wordpools/wordpool_categorized_EN.txt	LEG	BodyParts	5	16	[0, 0, 0]	n/a	catFR1	0	R1190P
2100.263	0.949	2108303	WORD_OFF	n/a	n/a	LEG	n/a	5	16	[0, 0, 0]	n/a	catFR1	0	R1190P
2101.212	1.6	2109252	WORD	n/a	wordpools/wordpool_categorized_EN.txt	EAR	BodyParts	6	16	[0, 0, 0]	n/a	catFR1	0	R1190P
2102.829	0.967	2110868	WORD_OFF	n/a	n/a	EAR	n/a	6	16	[0, 0, 0]	n/a	catFR1	0	R1190P
2103.796	1.6	2111835	WORD	n/a	wordpools/wordpool_categorized_EN.txt	BEE	Insects	7	16	[0, 0, 0]	n/a	catFR1	0	R1190P
2105.414	0.983	2113453	WORD_OFF	n/a	n/a	BEE	n/a	7	16	[0, 0, 0]	n/a	catFR1	0	R1190P
2106.397	1.6	2114436	WORD	n/a	wordpools/wordpool_categorized_EN.txt	FLY	Insects	8	16	[0, 0, 0]	n/a	catFR1	0	R1190P
2108.014	0.8	2116053	WORD_OFF	n/a	n/a	FLY	n/a	8	16	[0, 0, 0]	n/a	catFR1	0	R1190P
2108.814	1.6	2116853	WORD	n/a	wordpools/wordpool_categorized_EN.txt	BEACH	Landscapes	9	16	[0, 0, 0]	n/a	catFR1	0	R1190P
2110.432	0.816	2118471	WORD_OFF	n/a	n/a	BEACH	n/a	9	16	[0, 0, 0]	n/a	catFR1	0	R1190P
2111.248	1.6	2119287	WORD	n/a	wordpools/wordpool_categorized_EN.txt	OCEAN	Landscapes	10	16	[0, 0, 0]	n/a	catFR1	0	R1190P
2112.864	0.884	2120903	WORD_OFF	n/a	n/a	OCEAN	n/a	10	16	[0, 0, 0]	n/a	catFR1	0	R1190P
2113.748	1.6	2121787	WORD	n/a	wordpools/wordpool_categorized_EN.txt	KNEE	BodyParts	11	16	[0, 0, 0]	n/a	catFR1	0	R1190P
2115.366	0.95	2123405	WORD_OFF	n/a	n/a	KNEE	n/a	11	16	[0, 0, 0]	n/a	catFR1	0	R1190P
2116.316	1.6	2124355	WORD	n/a	wordpools/wordpool_categorized_EN.txt	HAND	BodyParts	12	16	[0, 0, 0]	n/a	catFR1	0	R1190P
2117.932	0.0	2125971	ENCODING_END	n/a	n/a	n/a	n/a	-999	16	[0, 0, 0]	n/a	catFR1	0	R1190P
2117.932	0.106	2125971	WORD_OFF	n/a	n/a	HAND	n/a	12	16	[0, 0, 0]	n/a	catFR1	0	R1190P
2118.038	0.001	2126077	DISTRACT_START	n/a	n/a	n/a	n/a	-999	16	[0, 0, 0]	n/a	catFR1	0	R1190P
2118.039	0.01	2126078	START	n/a	n/a	n/a	n/a	-999	16	[-999, -999, -999]	n/a	catFR1	0	R1190P
2118.049	5.001	2126088	PROB	4.97	n/a	n/a	n/a	-999	16	[1, 9, 9]	19.0	catFR1	0	R1190P
2123.05	5.618	2131088	PROB	5.594	n/a	n/a	n/a	-999	16	[6, 4, 7]	17.0	catFR1	0	R1190P
2128.668	4.284	2136706	PROB	4.254	n/a	n/a	n/a	-999	16	[6, 4, 4]	14.0	catFR1	0	R1190P
2132.952	3.718	2140990	PROB	3.693	n/a	n/a	n/a	-999	16	[4, 4, 4]	12.0	catFR1	0	R1190P
2136.67	4.405	2144708	PROB	4.405	n/a	n/a	n/a	-999	16	[4, 9, 1]	14.0	catFR1	0	R1190P
2141.075	0.012	2149113	STOP	n/a	n/a	n/a	n/a	-999	16	[-999, -999, -999]	n/a	catFR1	0	R1190P
2141.087	0.65	2149125	DISTRACT_END	n/a	n/a	n/a	n/a	-999	16	[0, 0, 0]	n/a	catFR1	0	R1190P
2141.737	0.518	2149774	RETRIEVAL_ORIENT	n/a	n/a	n/a	n/a	-999	16	[0, 0, 0]	n/a	catFR1	0	R1190P
2142.255	1.019	2150292	REC_START	n/a	n/a	n/a	n/a	-999	16	[0, 0, 0]	n/a	catFR1	0	R1190P
2143.274	1.994	2151311	REC_WORD	1.019	n/a	BEACH	Landscapes	9	16	[0, 0, 0]	n/a	catFR1	0	R1190P
2145.268	1.524	2153305	REC_WORD	3.013	n/a	OCEAN	Landscapes	10	16	[0, 0, 0]	n/a	catFR1	0	R1190P
2146.792	2.793	2154829	REC_WORD	4.537	n/a	LADYBUG	Insects	2	16	[0, 0, 0]	n/a	catFR1	0	R1190P
2149.585	22.68	2157622	REC_WORD_VV	7.33	n/a	<>	n/a	-999	16	[0, 0, 0]	n/a	catFR1	0	R1190P
2172.265	6.445	2180301	REC_END	n/a	n/a	n/a	n/a	-999	16	[0, 0, 0]	n/a	catFR1	0	R1190P
2178.71	0.5	2186746	TRIAL	n/a	n/a	n/a	n/a	-999	17	[0, 0, 0]	n/a	catFR1	0	R1190P
2179.21	10.0	2187246	COUNTDOWN_START	n/a	n/a	n/a	n/a	-999	17	[0, 0, 0]	n/a	catFR1	0	R1190P
2189.638	0.009	2197673	COUNTDOWN_END	n/a	n/a	n/a	n/a	-999	17	[0, 0, 0]	n/a	catFR1	0	R1190P
2189.647	1.6	2197682	ORIENT	n/a	n/a	n/a	n/a	-999	17	[0, 0, 0]	n/a	catFR1	0	R1190P
2191.264	2.133	2199299	ORIENT_OFF	n/a	n/a	n/a	n/a	-999	17	[0, 0, 0]	n/a	catFR1	0	R1190P
2193.397	1.6	2201432	WORD	n/a	wordpools/wordpool_categorized_EN.txt	CABBAGE	Vegetables	1	17	[0, 0, 0]	n/a	catFR1	0	R1190P
2195.013	1.0	2203048	WORD_OFF	n/a	n/a	CABBAGE	n/a	1	17	[0, 0, 0]	n/a	catFR1	0	R1190P
2196.013	1.6	2204048	WORD	n/a	wordpools/wordpool_categorized_EN.txt	ONION	Vegetables	2	17	[0, 0, 0]	n/a	catFR1	0	R1190P
2197.614	0.951	2205649	WORD_OFF	n/a	n/a	ONION	n/a	2	17	[0, 0, 0]	n/a	catFR1	0	R1190P
2198.565	1.6	2206600	WORD	n/a	wordpools/wordpool_categorized_EN.txt	TURKEY	FarmAnimals	3	17	[0, 0, 0]	n/a	catFR1	0	R1190P
2200.181	0.867	2208216	WORD_OFF	n/a	n/a	TURKEY	n/a	3	17	[0, 0, 0]	n/a	catFR1	0	R1190P
2201.048	1.6	2209082	WORD	n/a	wordpools/wordpool_categorized_EN.txt	SHEEP	FarmAnimals	4	17	[0, 0, 0]	n/a	catFR1	0	R1190P
2202.666	0.85	2210700	WORD_OFF	n/a	n/a	SHEEP	n/a	4	17	[0, 0, 0]	n/a	catFR1	0	R1190P
2203.516	1.6	2211550	WORD	n/a	wordpools/wordpool_categorized_EN.txt	REFRIGERATOR	Appliances	5	17	[0, 0, 0]	n/a	catFR1	0	R1190P
2205.132	1.0	2213166	WORD_OFF	n/a	n/a	REFRIGERATOR	n/a	5	17	[0, 0, 0]	n/a	catFR1	0	R1190P
2206.132	1.6	2214166	WORD	n/a	wordpools/wordpool_categorized_EN.txt	MIXER	Appliances	6	17	[0, 0, 0]	n/a	catFR1	0	R1190P
2207.749	0.884	2215783	WORD_OFF	n/a	n/a	MIXER	n/a	6	17	[0, 0, 0]	n/a	catFR1	0	R1190P
2208.633	1.6	2216667	WORD	n/a	wordpools/wordpool_categorized_EN.txt	BULL	FarmAnimals	7	17	[0, 0, 0]	n/a	catFR1	0	R1190P
2210.25	0.783	2218284	WORD_OFF	n/a	n/a	BULL	n/a	7	17	[0, 0, 0]	n/a	catFR1	0	R1190P
2211.033	1.6	2219067	WORD	n/a	wordpools/wordpool_categorized_EN.txt	CALF	FarmAnimals	8	17	[0, 0, 0]	n/a	catFR1	0	R1190P
2212.634	1.017	2220668	WORD_OFF	n/a	n/a	CALF	n/a	8	17	[0, 0, 0]	n/a	catFR1	0	R1190P
2213.651	1.6	2221685	WORD	n/a	wordpools/wordpool_categorized_EN.txt	CAULIFLOWER	Vegetables	9	17	[0, 0, 0]	n/a	catFR1	0	R1190P
2215.268	0.933	2223302	WORD_OFF	n/a	n/a	CAULIFLOWER	n/a	9	17	[0, 0, 0]	n/a	catFR1	0	R1190P
2216.201	1.6	2224235	WORD	n/a	wordpools/wordpool_categorized_EN.txt	CORN	Vegetables	10	17	[0, 0, 0]	n/a	catFR1	0	R1190P
2217.817	0.802	2225851	WORD_OFF	n/a	n/a	CORN	n/a	10	17	[0, 0, 0]	n/a	catFR1	0	R1190P
2218.619	1.6	2226653	WORD	n/a	wordpools/wordpool_categorized_EN.txt	STOVE	Appliances	11	17	[0, 0, 0]	n/a	catFR1	0	R1190P
2220.235	0.95	2228268	WORD_OFF	n/a	n/a	STOVE	n/a	11	17	[0, 0, 0]	n/a	catFR1	0	R1190P
2221.185	1.6	2229218	WORD	n/a	wordpools/wordpool_categorized_EN.txt	OVEN	Appliances	12	17	[0, 0, 0]	n/a	catFR1	0	R1190P
2222.802	0.0	2230835	ENCODING_END	n/a	n/a	n/a	n/a	-999	17	[0, 0, 0]	n/a	catFR1	0	R1190P
2222.802	0.102	2230835	WORD_OFF	n/a	n/a	OVEN	n/a	12	17	[0, 0, 0]	n/a	catFR1	0	R1190P
2222.904	0.0	2230937	DISTRACT_START	n/a	n/a	n/a	n/a	-999	17	[0, 0, 0]	n/a	catFR1	0	R1190P
2222.904	0.014	2230937	START	n/a	n/a	n/a	n/a	-999	17	[-999, -999, -999]	n/a	catFR1	0	R1190P
2222.918	5.218	2230951	PROB	5.189	n/a	n/a	n/a	-999	17	[1, 5, 9]	15.0	catFR1	0	R1190P
2228.136	5.951	2236169	PROB	5.916	n/a	n/a	n/a	-999	17	[1, 8, 7]	16.0	catFR1	0	R1190P
2234.087	10.165	2242120	PROB	10.165	n/a	n/a	n/a	-999	17	[8, 6, 6]	20.0	catFR1	0	R1190P
2244.252	0.022	2252284	STOP	n/a	n/a	n/a	n/a	-999	17	[-999, -999, -999]	n/a	catFR1	0	R1190P
2244.274	0.649	2252306	DISTRACT_END	n/a	n/a	n/a	n/a	-999	17	[0, 0, 0]	n/a	catFR1	0	R1190P
2244.923	0.518	2252955	RETRIEVAL_ORIENT	n/a	n/a	n/a	n/a	-999	17	[0, 0, 0]	n/a	catFR1	0	R1190P
2245.441	0.989	2253473	REC_START	n/a	n/a	n/a	n/a	-999	17	[0, 0, 0]	n/a	catFR1	0	R1190P
2246.43	0.848	2254462	REC_WORD	0.989	n/a	CABBAGE	Vegetables	1	17	[0, 0, 0]	n/a	catFR1	0	R1190P
2247.278	2.681	2255310	REC_WORD	1.837	n/a	TURKEY	FarmAnimals	3	17	[0, 0, 0]	n/a	catFR1	0	R1190P
2249.959	9.283	2257991	REC_WORD_VV	4.518	n/a	<>	n/a	-999	17	[0, 0, 0]	n/a	catFR1	0	R1190P
2259.242	7.169	2267274	REC_WORD	13.801	n/a	ONION	Vegetables	2	17	[0, 0, 0]	n/a	catFR1	0	R1190P
2266.411	7.589	2274442	REC_WORD	20.97	n/a	CAULIFLOWER	Vegetables	9	17	[0, 0, 0]	n/a	catFR1	0	R1190P
2274.0	0.434	2282031	REC_WORD_VV	28.559	n/a	<>	n/a	-999	17	[0, 0, 0]	n/a	catFR1	0	R1190P
2274.434	1.02	2282465	REC_WORD	28.993	n/a	WATER	n/a	-999	17	[0, 0, 0]	n/a	catFR1	0	R1190P
2275.454	6.143	2283485	REC_END	n/a	n/a	n/a	n/a	-999	17	[0, 0, 0]	n/a	catFR1	0	R1190P
2281.597	0.5	2289627	TRIAL	n/a	n/a	n/a	n/a	-999	18	[0, 0, 0]	n/a	catFR1	0	R1190P
2282.097	10.0	2290127	COUNTDOWN_START	n/a	n/a	n/a	n/a	-999	18	[0, 0, 0]	n/a	catFR1	0	R1190P
2292.525	0.008	2300555	COUNTDOWN_END	n/a	n/a	n/a	n/a	-999	18	[0, 0, 0]	n/a	catFR1	0	R1190P
2292.533	1.6	2300563	ORIENT	n/a	n/a	n/a	n/a	-999	18	[0, 0, 0]	n/a	catFR1	0	R1190P
2294.149	2.0	2302179	ORIENT_OFF	n/a	n/a	n/a	n/a	-999	18	[0, 0, 0]	n/a	catFR1	0	R1190P
2296.149	1.6	2304179	WORD	n/a	wordpools/wordpool_categorized_EN.txt	BALL	Toys	1	18	[0, 0, 0]	n/a	catFR1	0	R1190P
2297.766	0.851	2305796	WORD_OFF	n/a	n/a	BALL	n/a	1	18	[0, 0, 0]	n/a	catFR1	0	R1190P
2298.617	1.6	2306647	WORD	n/a	wordpools/wordpool_categorized_EN.txt	DOLL	Toys	2	18	[0, 0, 0]	n/a	catFR1	0	R1190P
2300.233	0.917	2308262	WORD_OFF	n/a	n/a	DOLL	n/a	2	18	[0, 0, 0]	n/a	catFR1	0	R1190P
2301.15	1.6	2309179	WORD	n/a	wordpools/wordpool_categorized_EN.txt	HICKORY	Trees	3	18	[0, 0, 0]	n/a	catFR1	0	R1190P
2302.767	0.818	2310796	WORD_OFF	n/a	n/a	HICKORY	n/a	3	18	[0, 0, 0]	n/a	catFR1	0	R1190P
2303.585	1.6	2311614	WORD	n/a	wordpools/wordpool_categorized_EN.txt	CEDAR	Trees	4	18	[0, 0, 0]	n/a	catFR1	0	R1190P
2305.201	0.9	2313230	WORD_OFF	n/a	n/a	CEDAR	n/a	4	18	[0, 0, 0]	n/a	catFR1	0	R1190P
2306.101	1.6	2314130	WORD	n/a	wordpools/wordpool_categorized_EN.txt	DOOR	Building	5	18	[0, 0, 0]	n/a	catFR1	0	R1190P
2307.718	0.868	2315747	WORD_OFF	n/a	n/a	DOOR	n/a	5	18	[0, 0, 0]	n/a	catFR1	0	R1190P
2308.586	1.6	2316615	WORD	n/a	wordpools/wordpool_categorized_EN.txt	HALLWAY	Building	6	18	[0, 0, 0]	n/a	catFR1	0	R1190P
2310.202	0.816	2318231	WORD_OFF	n/a	n/a	HALLWAY	n/a	6	18	[0, 0, 0]	n/a	catFR1	0	R1190P
2311.018	1.6	2319047	WORD	n/a	wordpools/wordpool_categorized_EN.txt	BASKETBALL	Toys	7	18	[0, 0, 0]	n/a	catFR1	0	R1190P
2312.619	0.817	2320648	WORD_OFF	n/a	n/a	BASKETBALL	n/a	7	18	[0, 0, 0]	n/a	catFR1	0	R1190P
2313.436	1.6	2321465	WORD	n/a	wordpools/wordpool_categorized_EN.txt	BARBIE	Toys	8	18	[0, 0, 0]	n/a	catFR1	0	R1190P
2315.053	1.0	2323082	WORD_OFF	n/a	n/a	BARBIE	n/a	8	18	[0, 0, 0]	n/a	catFR1	0	R1190P
2316.053	1.6	2324082	WORD	n/a	wordpools/wordpool_categorized_EN.txt	WALNUT	Trees	9	18	[0, 0, 0]	n/a	catFR1	0	R1190P
2317.671	0.883	2325700	WORD_OFF	n/a	n/a	WALNUT	n/a	9	18	[0, 0, 0]	n/a	catFR1	0	R1190P
2318.554	1.6	2326583	WORD	n/a	wordpools/wordpool_categorized_EN.txt	EVERGREEN	Trees	10	18	[0, 0, 0]	n/a	catFR1	0	R1190P
2320.17	0.8	2328198	WORD_OFF	n/a	n/a	EVERGREEN	n/a	10	18	[0, 0, 0]	n/a	catFR1	0	R1190P
2320.97	1.6	2328998	WORD	n/a	wordpools/wordpool_categorized_EN.txt	STAIRS	Building	11	18	[0, 0, 0]	n/a	catFR1	0	R1190P
2322.588	0.917	2330616	WORD_OFF	n/a	n/a	STAIRS	n/a	11	18	[0, 0, 0]	n/a	catFR1	0	R1190P
2323.505	1.6	2331533	WORD	n/a	wordpools/wordpool_categorized_EN.txt	WINDOW	Building	12	18	[0, 0, 0]	n/a	catFR1	0	R1190P
2325.121	0.0	2333149	ENCODING_END	n/a	n/a	n/a	n/a	-999	18	[0, 0, 0]	n/a	catFR1	0	R1190P
2325.121	0.136	2333149	WORD_OFF	n/a	n/a	WINDOW	n/a	12	18	[0, 0, 0]	n/a	catFR1	0	R1190P
2325.257	0.0	2333285	DISTRACT_START	n/a	n/a	n/a	n/a	-999	18	[0, 0, 0]	n/a	catFR1	0	R1190P
2325.257	0.015	2333285	START	n/a	n/a	n/a	n/a	-999	18	[-999, -999, -999]	n/a	catFR1	0	R1190P
2325.272	4.967	2333300	PROB	4.94	n/a	n/a	n/a	-999	18	[3, 5, 1]	9.0	catFR1	0	R1190P
2330.239	23.645	2338267	PROB	23.645	n/a	n/a	n/a	-999	18	[5, 6, 9]	20.0	catFR1	0	R1190P
2353.884	0.009	2361911	STOP	n/a	n/a	n/a	n/a	-999	18	[-999, -999, -999]	n/a	catFR1	0	R1190P
2353.893	0.701	2361920	DISTRACT_END	n/a	n/a	n/a	n/a	-999	18	[0, 0, 0]	n/a	catFR1	0	R1190P
2354.594	0.517	2362621	RETRIEVAL_ORIENT	n/a	n/a	n/a	n/a	-999	18	[0, 0, 0]	n/a	catFR1	0	R1190P
2355.111	1.189	2363138	REC_START	n/a	n/a	n/a	n/a	-999	18	[0, 0, 0]	n/a	catFR1	0	R1190P
2356.3	1.0	2364327	REC_WORD_VV	1.189	n/a	<>	n/a	-999	18	[0, 0, 0]	n/a	catFR1	0	R1190P
2357.3	1.772	2365327	REC_WORD_VV	2.189	n/a	<>	n/a	-999	18	[0, 0, 0]	n/a	catFR1	0	R1190P
2359.072	1.0	2367098	REC_WORD	3.961	n/a	HALLWAY	Building	6	18	[0, 0, 0]	n/a	catFR1	0	R1190P
2360.072	0.207	2368098	REC_WORD_VV	4.961	n/a	<>	n/a	-999	18	[0, 0, 0]	n/a	catFR1	0	R1190P
2360.279	1.0	2368305	REC_WORD	5.168	n/a	STAIRS	Building	11	18	[0, 0, 0]	n/a	catFR1	0	R1190P
2361.279	1.989	2369305	REC_WORD_VV	6.168	n/a	<>	n/a	-999	18	[0, 0, 0]	n/a	catFR1	0	R1190P
2363.268	6.093	2371294	REC_WORD_VV	8.157	n/a	<>	n/a	-999	18	[0, 0, 0]	n/a	catFR1	0	R1190P
2369.361	11.412	2377387	REC_WORD	14.25	n/a	KITCHEN	n/a	-999	18	[0, 0, 0]	n/a	catFR1	0	R1190P
2380.773	2.536	2388798	REC_WORD	25.662	n/a	DOLL	Toys	2	18	[0, 0, 0]	n/a	catFR1	0	R1190P
2383.309	1.813	2391334	REC_WORD_VV	28.198	n/a	<>	n/a	-999	18	[0, 0, 0]	n/a	catFR1	0	R1190P
2385.122	24.848	2393147	REC_END	n/a	n/a	n/a	n/a	-999	18	[0, 0, 0]	n/a	catFR1	0	R1190P
2409.97	0.5	2417994	TRIAL	n/a	n/a	n/a	n/a	-999	19	[0, 0, 0]	n/a	catFR1	0	R1190P
2410.47	10.0	2418494	COUNTDOWN_START	n/a	n/a	n/a	n/a	-999	19	[0, 0, 0]	n/a	catFR1	0	R1190P
2420.898	0.008	2428921	COUNTDOWN_END	n/a	n/a	n/a	n/a	-999	19	[0, 0, 0]	n/a	catFR1	0	R1190P
2420.906	1.6	2428929	ORIENT	n/a	n/a	n/a	n/a	-999	19	[0, 0, 0]	n/a	catFR1	0	R1190P
2422.524	2.1	2430547	ORIENT_OFF	n/a	n/a	n/a	n/a	-999	19	[0, 0, 0]	n/a	catFR1	0	R1190P
2424.624	1.6	2432647	WORD	n/a	wordpools/wordpool_categorized_EN.txt	FOLDER	OfficeSupplies	1	19	[0, 0, 0]	n/a	catFR1	0	R1190P
2426.241	0.966	2434264	WORD_OFF	n/a	n/a	FOLDER	n/a	1	19	[0, 0, 0]	n/a	catFR1	0	R1190P
2427.207	1.6	2435230	WORD	n/a	wordpools/wordpool_categorized_EN.txt	MARKER	OfficeSupplies	2	19	[0, 0, 0]	n/a	catFR1	0	R1190P
2428.824	0.801	2436847	WORD_OFF	n/a	n/a	MARKER	n/a	2	19	[0, 0, 0]	n/a	catFR1	0	R1190P
2429.625	1.6	2437648	WORD	n/a	wordpools/wordpool_categorized_EN.txt	BLENDER	Appliances	3	19	[0, 0, 0]	n/a	catFR1	0	R1190P
2431.242	0.816	2439265	WORD_OFF	n/a	n/a	BLENDER	n/a	3	19	[0, 0, 0]	n/a	catFR1	0	R1190P
2432.058	1.6	2440081	WORD	n/a	wordpools/wordpool_categorized_EN.txt	VACUUM	Appliances	4	19	[0, 0, 0]	n/a	catFR1	0	R1190P
2433.676	0.833	2441699	WORD_OFF	n/a	n/a	VACUUM	n/a	4	19	[0, 0, 0]	n/a	catFR1	0	R1190P
2434.509	1.6	2442532	WORD	n/a	wordpools/wordpool_categorized_EN.txt	SHIRT	Clothing	5	19	[0, 0, 0]	n/a	catFR1	0	R1190P
2436.125	0.9	2444148	WORD_OFF	n/a	n/a	SHIRT	n/a	5	19	[0, 0, 0]	n/a	catFR1	0	R1190P
2437.025	1.6	2445047	WORD	n/a	wordpools/wordpool_categorized_EN.txt	JACKET	Clothing	6	19	[0, 0, 0]	n/a	catFR1	0	R1190P
2438.643	0.851	2446665	WORD_OFF	n/a	n/a	JACKET	n/a	6	19	[0, 0, 0]	n/a	catFR1	0	R1190P
2439.494	1.6	2447516	WORD	n/a	wordpools/wordpool_categorized_EN.txt	PENCIL	OfficeSupplies	7	19	[0, 0, 0]	n/a	catFR1	0	R1190P
2441.11	0.9	2449132	WORD_OFF	n/a	n/a	PENCIL	n/a	7	19	[0, 0, 0]	n/a	catFR1	0	R1190P
2442.01	1.6	2450032	WORD	n/a	wordpools/wordpool_categorized_EN.txt	STAPLER	OfficeSupplies	8	19	[0, 0, 0]	n/a	catFR1	0	R1190P
2443.628	0.783	2451650	WORD_OFF	n/a	n/a	STAPLER	n/a	8	19	[0, 0, 0]	n/a	catFR1	0	R1190P
2444.411	1.6	2452433	WORD	n/a	wordpools/wordpool_categorized_EN.txt	IRON	Appliances	9	19	[0, 0, 0]	n/a	catFR1	0	R1190P
2446.027	0.817	2454049	WORD_OFF	n/a	n/a	IRON	n/a	9	19	[0, 0, 0]	n/a	catFR1	0	R1190P
2446.844	1.6	2454866	WORD	n/a	wordpools/wordpool_categorized_EN.txt	DISHWASHER	Appliances	10	19	[0, 0, 0]	n/a	catFR1	0	R1190P
2448.462	0.9	2456484	WORD_OFF	n/a	n/a	DISHWASHER	n/a	10	19	[0, 0, 0]	n/a	catFR1	0	R1190P
2449.362	1.6	2457384	WORD	n/a	wordpools/wordpool_categorized_EN.txt	BLOUSE	Clothing	11	19	[0, 0, 0]	n/a	catFR1	0	R1190P
2450.978	0.884	2459000	WORD_OFF	n/a	n/a	BLOUSE	n/a	11	19	[0, 0, 0]	n/a	catFR1	0	R1190P
2451.862	1.6	2459884	WORD	n/a	wordpools/wordpool_categorized_EN.txt	UNDERWEAR	Clothing	12	19	[0, 0, 0]	n/a	catFR1	0	R1190P
2453.479	0.001	2461501	WORD_OFF	n/a	n/a	UNDERWEAR	n/a	12	19	[0, 0, 0]	n/a	catFR1	0	R1190P
2453.48	0.101	2461502	ENCODING_END	n/a	n/a	n/a	n/a	-999	19	[0, 0, 0]	n/a	catFR1	0	R1190P
2453.581	0.0	2461603	DISTRACT_START	n/a	n/a	n/a	n/a	-999	19	[0, 0, 0]	n/a	catFR1	0	R1190P
2453.581	0.015	2461603	START	n/a	n/a	n/a	n/a	-999	19	[-999, -999, -999]	n/a	catFR1	0	R1190P
2453.596	4.417	2461618	PROB	4.383	n/a	n/a	n/a	-999	19	[1, 2, 7]	8.0	catFR1	0	R1190P
2458.013	4.418	2466034	PROB	4.382	n/a	n/a	n/a	-999	19	[8, 9, 6]	9.0	catFR1	0	R1190P
2462.431	1.616	2470452	PROB	1.587	n/a	n/a	n/a	-999	19	[1, 6, 5]	9.0	catFR1	0	R1190P
2464.047	6.968	2472068	PROB	6.941	n/a	n/a	n/a	-999	19	[4, 1, 7]	9.0	catFR1	0	R1190P
2471.015	5.836	2479036	PROB	5.836	n/a	n/a	n/a	-999	19	[5, 9, 3]	2.0	catFR1	0	R1190P
2476.851	0.016	2484871	STOP	n/a	n/a	n/a	n/a	-999	19	[-999, -999, -999]	n/a	catFR1	0	R1190P
2476.867	0.6	2484887	DISTRACT_END	n/a	n/a	n/a	n/a	-999	19	[0, 0, 0]	n/a	catFR1	0	R1190P
2477.467	0.517	2485487	RETRIEVAL_ORIENT	n/a	n/a	n/a	n/a	-999	19	[0, 0, 0]	n/a	catFR1	0	R1190P
2477.984	0.412	2486004	REC_START	n/a	n/a	n/a	n/a	-999	19	[0, 0, 0]	n/a	catFR1	0	R1190P
2478.396	1.0	2486416	REC_WORD_VV	0.412	n/a	<>	n/a	-999	19	[0, 0, 0]	n/a	catFR1	0	R1190P
2479.396	0.836	2487416	REC_WORD_VV	1.412	n/a	<>	n/a	-999	19	[0, 0, 0]	n/a	catFR1	0	R1190P
2480.232	2.26	2488252	REC_WORD_VV	2.248	n/a	<>	n/a	-999	19	[0, 0, 0]	n/a	catFR1	0	R1190P
2482.492	2.984	2490512	REC_WORD_VV	4.508	n/a	<>	n/a	-999	19	[0, 0, 0]	n/a	catFR1	0	R1190P
2485.476	2.282	2493496	REC_WORD_VV	7.492	n/a	<>	n/a	-999	19	[0, 0, 0]	n/a	catFR1	0	R1190P
2487.758	1.0	2495778	REC_WORD_VV	9.774	n/a	<>	n/a	-999	19	[0, 0, 0]	n/a	catFR1	0	R1190P
2488.758	1.0	2496778	REC_WORD_VV	10.774	n/a	<>	n/a	-999	19	[0, 0, 0]	n/a	catFR1	0	R1190P
2489.758	1.0	2497778	REC_WORD_VV	11.774	n/a	<>	n/a	-999	19	[0, 0, 0]	n/a	catFR1	0	R1190P
2490.758	0.998	2498778	REC_WORD_VV	12.774	n/a	<>	n/a	-999	19	[0, 0, 0]	n/a	catFR1	0	R1190P
2491.756	1.0	2499776	REC_WORD_VV	13.772	n/a	<>	n/a	-999	19	[0, 0, 0]	n/a	catFR1	0	R1190P
2492.756	2.067	2500776	REC_WORD_VV	14.772	n/a	<>	n/a	-999	19	[0, 0, 0]	n/a	catFR1	0	R1190P
2494.823	3.411	2502843	REC_WORD_VV	16.839	n/a	<>	n/a	-999	19	[0, 0, 0]	n/a	catFR1	0	R1190P
2498.234	2.257	2506253	REC_WORD_VV	20.25	n/a	<>	n/a	-999	19	[0, 0, 0]	n/a	catFR1	0	R1190P
2500.491	1.0	2508510	REC_WORD_VV	22.507	n/a	<>	n/a	-999	19	[0, 0, 0]	n/a	catFR1	0	R1190P
2501.491	1.0	2509510	REC_WORD_VV	23.507	n/a	<>	n/a	-999	19	[0, 0, 0]	n/a	catFR1	0	R1190P
2502.491	2.326	2510510	REC_WORD_VV	24.507	n/a	<>	n/a	-999	19	[0, 0, 0]	n/a	catFR1	0	R1190P
2504.817	3.18	2512836	REC_WORD_VV	26.833	n/a	<>	n/a	-999	19	[0, 0, 0]	n/a	catFR1	0	R1190P
2507.997	16.028	2516016	REC_END	n/a	n/a	n/a	n/a	-999	19	[0, 0, 0]	n/a	catFR1	0	R1190P
2524.025	0.5	2532043	TRIAL	n/a	n/a	n/a	n/a	-999	20	[0, 0, 0]	n/a	catFR1	0	R1190P
2524.525	10.0	2532543	COUNTDOWN_START	n/a	n/a	n/a	n/a	-999	20	[0, 0, 0]	n/a	catFR1	0	R1190P
2534.953	0.008	2542971	COUNTDOWN_END	n/a	n/a	n/a	n/a	-999	20	[0, 0, 0]	n/a	catFR1	0	R1190P
2534.961	1.6	2542979	ORIENT	n/a	n/a	n/a	n/a	-999	20	[0, 0, 0]	n/a	catFR1	0	R1190P
2536.578	1.851	2544595	ORIENT_OFF	n/a	n/a	n/a	n/a	-999	20	[0, 0, 0]	n/a	catFR1	0	R1190P
2538.429	1.6	2546446	WORD	n/a	wordpools/wordpool_categorized_EN.txt	ORANGE	Fruit	1	20	[0, 0, 0]	n/a	catFR1	0	R1190P
2540.045	0.95	2548062	WORD_OFF	n/a	n/a	ORANGE	n/a	1	20	[0, 0, 0]	n/a	catFR1	0	R1190P
2540.995	1.6	2549012	WORD	n/a	wordpools/wordpool_categorized_EN.txt	BANANA	Fruit	2	20	[0, 0, 0]	n/a	catFR1	0	R1190P
2542.613	0.883	2550630	WORD_OFF	n/a	n/a	BANANA	n/a	2	20	[0, 0, 0]	n/a	catFR1	0	R1190P
2543.496	1.6	2551513	WORD	n/a	wordpools/wordpool_categorized_EN.txt	FOG	Weather	3	20	[0, 0, 0]	n/a	catFR1	0	R1190P
2545.112	0.851	2553129	WORD_OFF	n/a	n/a	FOG	n/a	3	20	[0, 0, 0]	n/a	catFR1	0	R1190P
2545.963	1.6	2553980	WORD	n/a	wordpools/wordpool_categorized_EN.txt	LIGHTNING	Weather	4	20	[0, 0, 0]	n/a	catFR1	0	R1190P
2547.581	0.866	2555598	WORD_OFF	n/a	n/a	LIGHTNING	n/a	4	20	[0, 0, 0]	n/a	catFR1	0	R1190P
2548.447	1.6	2556464	WORD	n/a	wordpools/wordpool_categorized_EN.txt	ROBIN	Birds	5	20	[0, 0, 0]	n/a	catFR1	0	R1190P
2550.063	0.767	2558080	WORD_OFF	n/a	n/a	ROBIN	n/a	5	20	[0, 0, 0]	n/a	catFR1	0	R1190P
2550.83	1.6	2558847	WORD	n/a	wordpools/wordpool_categorized_EN.txt	BLUEBIRD	Birds	6	20	[0, 0, 0]	n/a	catFR1	0	R1190P
2552.431	0.984	2560448	WORD_OFF	n/a	n/a	BLUEBIRD	n/a	6	20	[0, 0, 0]	n/a	catFR1	0	R1190P
2553.415	1.6	2561432	WORD	n/a	wordpools/wordpool_categorized_EN.txt	CLOUD	Weather	7	20	[0, 0, 0]	n/a	catFR1	0	R1190P
2555.031	0.883	2563047	WORD_OFF	n/a	n/a	CLOUD	n/a	7	20	[0, 0, 0]	n/a	catFR1	0	R1190P
2555.914	1.6	2563930	WORD	n/a	wordpools/wordpool_categorized_EN.txt	HUMIDITY	Weather	8	20	[0, 0, 0]	n/a	catFR1	0	R1190P
2557.516	0.833	2565532	WORD_OFF	n/a	n/a	HUMIDITY	n/a	8	20	[0, 0, 0]	n/a	catFR1	0	R1190P
2558.349	1.6	2566365	WORD	n/a	wordpools/wordpool_categorized_EN.txt	BLUEBERRY	Fruit	9	20	[0, 0, 0]	n/a	catFR1	0	R1190P
2559.965	0.9	2567981	WORD_OFF	n/a	n/a	BLUEBERRY	n/a	9	20	[0, 0, 0]	n/a	catFR1	0	R1190P
2560.865	1.6	2568881	WORD	n/a	wordpools/wordpool_categorized_EN.txt	PEACH	Fruit	10	20	[0, 0, 0]	n/a	catFR1	0	R1190P
2562.483	0.901	2570499	WORD_OFF	n/a	n/a	PEACH	n/a	10	20	[0, 0, 0]	n/a	catFR1	0	R1190P
2563.384	1.6	2571400	WORD	n/a	wordpools/wordpool_categorized_EN.txt	GOOSE	Birds	11	20	[0, 0, 0]	n/a	catFR1	0	R1190P
2565.0	0.916	2573016	WORD_OFF	n/a	n/a	GOOSE	n/a	11	20	[0, 0, 0]	n/a	catFR1	0	R1190P
2565.916	1.6	2573932	WORD	n/a	wordpools/wordpool_categorized_EN.txt	PIGEON	Birds	12	20	[0, 0, 0]	n/a	catFR1	0	R1190P
2567.534	0.001	2575550	WORD_OFF	n/a	n/a	PIGEON	n/a	12	20	[0, 0, 0]	n/a	catFR1	0	R1190P
2567.535	0.101	2575551	ENCODING_END	n/a	n/a	n/a	n/a	-999	20	[0, 0, 0]	n/a	catFR1	0	R1190P
2567.636	0.0	2575652	DISTRACT_START	n/a	n/a	n/a	n/a	-999	20	[0, 0, 0]	n/a	catFR1	0	R1190P
2567.636	0.015	2575652	START	n/a	n/a	n/a	n/a	-999	20	[-999, -999, -999]	n/a	catFR1	0	R1190P
2567.651	29.969	2575667	PROB	29.969	n/a	n/a	n/a	-999	20	[1, 4, 4]	4.0	catFR1	0	R1190P
2597.62	0.02	2605634	STOP	n/a	n/a	n/a	n/a	-999	20	[-999, -999, -999]	n/a	catFR1	0	R1190P
2597.64	0.516	2605654	DISTRACT_END	n/a	n/a	n/a	n/a	-999	20	[0, 0, 0]	n/a	catFR1	0	R1190P
2598.156	0.518	2606170	RETRIEVAL_ORIENT	n/a	n/a	n/a	n/a	-999	20	[0, 0, 0]	n/a	catFR1	0	R1190P
2598.674	0.867	2606688	REC_START	n/a	n/a	n/a	n/a	-999	20	[0, 0, 0]	n/a	catFR1	0	R1190P
2599.541	1.0	2607555	REC_WORD_VV	0.867	n/a	<>	n/a	-999	20	[0, 0, 0]	n/a	catFR1	0	R1190P
2600.541	1.0	2608555	REC_WORD_VV	1.867	n/a	<>	n/a	-999	20	[0, 0, 0]	n/a	catFR1	0	R1190P
2601.541	0.376	2609555	REC_WORD_VV	2.867	n/a	<>	n/a	-999	20	[0, 0, 0]	n/a	catFR1	0	R1190P
2601.917	0.607	2609931	REC_WORD	3.243	n/a	PEACH	Fruit	10	20	[0, 0, 0]	n/a	catFR1	0	R1190P
2602.524	1.0	2610538	REC_WORD	3.85	n/a	COBBLER	n/a	-999	20	[0, 0, 0]	n/a	catFR1	0	R1190P
2603.524	0.635	2611538	REC_WORD_VV	4.85	n/a	<>	n/a	-999	20	[0, 0, 0]	n/a	catFR1	0	R1190P
2604.159	2.102	2612173	REC_WORD_VV	5.485	n/a	<>	n/a	-999	20	[0, 0, 0]	n/a	catFR1	0	R1190P
2606.261	1.318	2614275	REC_WORD_VV	7.587	n/a	<>	n/a	-999	20	[0, 0, 0]	n/a	catFR1	0	R1190P
2607.579	1.0	2615593	REC_WORD_VV	8.905	n/a	<>	n/a	-999	20	[0, 0, 0]	n/a	catFR1	0	R1190P
2608.579	0.997	2616593	REC_WORD_VV	9.905	n/a	<>	n/a	-999	20	[0, 0, 0]	n/a	catFR1	0	R1190P
2609.576	1.0	2617590	REC_WORD_VV	10.902	n/a	<>	n/a	-999	20	[0, 0, 0]	n/a	catFR1	0	R1190P
2610.576	1.0	2618590	REC_WORD_VV	11.902	n/a	<>	n/a	-999	20	[0, 0, 0]	n/a	catFR1	0	R1190P
2611.576	1.0	2619590	REC_WORD_VV	12.902	n/a	<>	n/a	-999	20	[0, 0, 0]	n/a	catFR1	0	R1190P
2612.576	1.0	2620590	REC_WORD_VV	13.902	n/a	<>	n/a	-999	20	[0, 0, 0]	n/a	catFR1	0	R1190P
2613.576	1.0	2621590	REC_WORD_VV	14.902	n/a	<>	n/a	-999	20	[0, 0, 0]	n/a	catFR1	0	R1190P
2614.576	1.0	2622589	REC_WORD_VV	15.902	n/a	<>	n/a	-999	20	[0, 0, 0]	n/a	catFR1	0	R1190P
2615.576	0.725	2623589	REC_WORD_VV	16.902	n/a	<>	n/a	-999	20	[0, 0, 0]	n/a	catFR1	0	R1190P
2616.301	3.691	2624314	REC_WORD_VV	17.627	n/a	<>	n/a	-999	20	[0, 0, 0]	n/a	catFR1	0	R1190P
2619.992	1.972	2628005	REC_WORD	21.318	n/a	COBBLER	n/a	-999	20	[0, 0, 0]	n/a	catFR1	0	R1190P
2621.964	2.049	2629977	REC_WORD	23.29	n/a	PEACH	Fruit	10	20	[0, 0, 0]	n/a	catFR1	0	R1190P
2624.013	2.351	2632026	REC_WORD	25.339	n/a	JUICE	n/a	-999	20	[0, 0, 0]	n/a	catFR1	0	R1190P
2626.364	2.323	2634377	REC_WORD	27.69	n/a	PIE	n/a	-999	20	[0, 0, 0]	n/a	catFR1	0	R1190P
2628.687	38.532	2636700	REC_END	n/a	n/a	n/a	n/a	-999	20	[0, 0, 0]	n/a	catFR1	0	R1190P
2667.219	0.5	2675230	TRIAL	n/a	n/a	n/a	n/a	-999	21	[0, 0, 0]	n/a	catFR1	0	R1190P
2667.719	10.0	2675730	COUNTDOWN_START	n/a	n/a	n/a	n/a	-999	21	[0, 0, 0]	n/a	catFR1	0	R1190P
2678.147	0.007	2686157	COUNTDOWN_END	n/a	n/a	n/a	n/a	-999	21	[0, 0, 0]	n/a	catFR1	0	R1190P
2678.154	1.6	2686164	ORIENT	n/a	n/a	n/a	n/a	-999	21	[0, 0, 0]	n/a	catFR1	0	R1190P
2679.771	2.017	2687781	ORIENT_OFF	n/a	n/a	n/a	n/a	-999	21	[0, 0, 0]	n/a	catFR1	0	R1190P
2681.788	1.6	2689798	WORD	n/a	wordpools/wordpool_categorized_EN.txt	COAT	Clothing	1	21	[0, 0, 0]	n/a	catFR1	0	R1190P
2683.406	0.884	2691416	WORD_OFF	n/a	n/a	COAT	n/a	1	21	[0, 0, 0]	n/a	catFR1	0	R1190P
2684.29	1.6	2692300	WORD	n/a	wordpools/wordpool_categorized_EN.txt	PANTS	Clothing	2	21	[0, 0, 0]	n/a	catFR1	0	R1190P
2685.906	0.8	2693916	WORD_OFF	n/a	n/a	PANTS	n/a	2	21	[0, 0, 0]	n/a	catFR1	0	R1190P
2686.706	1.6	2694716	WORD	n/a	wordpools/wordpool_categorized_EN.txt	SUNFLOWER	Flowers	3	21	[0, 0, 0]	n/a	catFR1	0	R1190P
2688.324	0.766	2696334	WORD_OFF	n/a	n/a	SUNFLOWER	n/a	3	21	[0, 0, 0]	n/a	catFR1	0	R1190P
2689.09	1.6	2697100	WORD	n/a	wordpools/wordpool_categorized_EN.txt	DAFFODIL	Flowers	4	21	[0, 0, 0]	n/a	catFR1	0	R1190P
2690.707	0.917	2698717	WORD_OFF	n/a	n/a	DAFFODIL	n/a	4	21	[0, 0, 0]	n/a	catFR1	0	R1190P
2691.624	1.6	2699634	WORD	n/a	wordpools/wordpool_categorized_EN.txt	CARROT	Vegetables	5	21	[0, 0, 0]	n/a	catFR1	0	R1190P
2693.241	0.916	2701250	WORD_OFF	n/a	n/a	CARROT	n/a	5	21	[0, 0, 0]	n/a	catFR1	0	R1190P
2694.157	1.6	2702166	WORD	n/a	wordpools/wordpool_categorized_EN.txt	CUCUMBER	Vegetables	6	21	[0, 0, 0]	n/a	catFR1	0	R1190P
2695.774	0.984	2703783	WORD_OFF	n/a	n/a	CUCUMBER	n/a	6	21	[0, 0, 0]	n/a	catFR1	0	R1190P
2696.758	1.6	2704767	WORD	n/a	wordpools/wordpool_categorized_EN.txt	ORCHID	Flowers	7	21	[0, 0, 0]	n/a	catFR1	0	R1190P
2698.376	0.916	2706385	WORD_OFF	n/a	n/a	ORCHID	n/a	7	21	[0, 0, 0]	n/a	catFR1	0	R1190P
2699.292	1.6	2707301	WORD	n/a	wordpools/wordpool_categorized_EN.txt	LILY	Flowers	8	21	[0, 0, 0]	n/a	catFR1	0	R1190P
