onset	duration	sample	trial_type	response_time	stim_file	item_name	category	serialpos	list	test	answer	experiment	session	subject
0.0	2.226	4532	INSTRUCT_START	n/a	n/a	n/a	n/a	-999	-999	[0, 0, 0]	n/a	catFR1	2	R1375C
2.226	3.034	6751	INSTRUCT_END	n/a	n/a	n/a	n/a	-999	-999	[0, 0, 0]	n/a	catFR1	2	R1375C
5.26	2.534	9796	INSTRUCT_START	n/a	n/a	n/a	n/a	-999	-999	[0, 0, 0]	n/a	catFR1	2	R1375C
7.794	23.216	12317	INSTRUCT_END	n/a	n/a	n/a	n/a	-999	-999	[0, 0, 0]	n/a	catFR1	2	R1375C
31.01	10.0	35546	COUNTDOWN_START	n/a	n/a	n/a	n/a	-999	-999	[0, 0, 0]	n/a	catFR1	2	R1375C
41.377	0.001	45907	COUNTDOWN_END	n/a	n/a	n/a	n/a	-999	-999	[0, 0, 0]	n/a	catFR1	2	R1375C
41.378	2.149	45907	ENCODING_START	n/a	n/a	n/a	n/a	-999	-1	[0, 0, 0]	n/a	catFR1	2	R1375C
43.527	1.6	48056	WORD	n/a	n/a	PLUMBER	Professions	1	-1	[0, 0, 0]	n/a	catFR1	2	R1375C
45.142	0.934	49668	WORD_OFF	n/a	n/a	PLUMBER	Professions	1	-1	[0, 0, 0]	n/a	catFR1	2	R1375C
46.076	1.6	50605	WORD	n/a	n/a	TEACHER	Professions	2	-1	[0, 0, 0]	n/a	catFR1	2	R1375C
47.693	0.817	52217	WORD_OFF	n/a	n/a	TEACHER	Professions	2	-1	[0, 0, 0]	n/a	catFR1	2	R1375C
48.51	1.6	53030	WORD	n/a	n/a	SECOND	Times	3	-1	[0, 0, 0]	n/a	catFR1	2	R1375C
50.125	1.0	54656	WORD_OFF	n/a	n/a	SECOND	Times	3	-1	[0, 0, 0]	n/a	catFR1	2	R1375C
51.125	1.6	55648	WORD	n/a	n/a	DAY	Times	4	-1	[0, 0, 0]	n/a	catFR1	2	R1375C
52.726	0.883	57260	WORD_OFF	n/a	n/a	DAY	Times	4	-1	[0, 0, 0]	n/a	catFR1	2	R1375C
53.609	1.6	58142	WORD	n/a	n/a	DENIM	Materials	5	-1	[0, 0, 0]	n/a	catFR1	2	R1375C
55.209	1.0	59740	WORD_OFF	n/a	n/a	DENIM	Materials	5	-1	[0, 0, 0]	n/a	catFR1	2	R1375C
56.209	1.6	60732	WORD	n/a	n/a	WOOL	Materials	6	-1	[0, 0, 0]	n/a	catFR1	2	R1375C
57.809	0.816	62330	WORD_OFF	n/a	n/a	WOOL	Materials	6	-1	[0, 0, 0]	n/a	catFR1	2	R1375C
58.625	1.6	63157	WORD	n/a	n/a	FARMER	Professions	7	-1	[0, 0, 0]	n/a	catFR1	2	R1375C
60.225	0.817	64755	WORD_OFF	n/a	n/a	FARMER	Professions	7	-1	[0, 0, 0]	n/a	catFR1	2	R1375C
61.042	1.6	65568	WORD	n/a	n/a	FIREMAN	Professions	8	-1	[0, 0, 0]	n/a	catFR1	2	R1375C
62.659	0.933	67180	WORD_OFF	n/a	n/a	FIREMAN	Professions	8	-1	[0, 0, 0]	n/a	catFR1	2	R1375C
63.592	1.6	68117	WORD	n/a	n/a	HOUR	Times	9	-1	[0, 0, 0]	n/a	catFR1	2	R1375C
65.192	0.967	69715	WORD_OFF	n/a	n/a	HOUR	Times	9	-1	[0, 0, 0]	n/a	catFR1	2	R1375C
66.159	1.6	70679	WORD	n/a	n/a	MINUTE	Times	10	-1	[0, 0, 0]	n/a	catFR1	2	R1375C
67.759	0.917	72291	WORD_OFF	n/a	n/a	MINUTE	Times	10	-1	[0, 0, 0]	n/a	catFR1	2	R1375C
68.676	1.6	73201	WORD	n/a	n/a	LEATHER	Materials	11	-1	[0, 0, 0]	n/a	catFR1	2	R1375C
70.276	0.934	74799	WORD_OFF	n/a	n/a	LEATHER	Materials	11	-1	[0, 0, 0]	n/a	catFR1	2	R1375C
71.21	1.6	75736	WORD	n/a	n/a	SILK	Materials	12	-1	[0, 0, 0]	n/a	catFR1	2	R1375C
72.827	0.0	77348	WORD_OFF	n/a	n/a	SILK	Materials	12	-1	[0, 0, 0]	n/a	catFR1	2	R1375C
72.827	0.003	77352	PROB	2.733	n/a	n/a	n/a	-999	-1	[6, 1, 1]	8.0	catFR1	2	R1375C
72.83	0.0	77355	START	n/a	n/a	n/a	n/a	-999	-1	[-999, -999, -999]	n/a	catFR1	2	R1375C
72.829	0.001	77362	ENCODING_END	n/a	n/a	n/a	n/a	-999	-1	[0, 0, 0]	n/a	catFR1	2	R1375C
72.83	2.746	77362	DISTRACT_START	n/a	n/a	n/a	n/a	-999	-1	[0, 0, 0]	n/a	catFR1	2	R1375C
75.576	3.8	80101	PROB	3.782	n/a	n/a	n/a	-999	-1	[3, 4, 6]	13.0	catFR1	2	R1375C
79.376	1.916	83901	PROB	1.9	n/a	n/a	n/a	-999	-1	[4, 6, 7]	17.0	catFR1	2	R1375C
81.292	2.601	85817	PROB	2.584	n/a	n/a	n/a	-999	-1	[7, 3, 7]	17.0	catFR1	2	R1375C
83.893	3.317	88418	PROB	3.3	n/a	n/a	n/a	-999	-1	[1, 7, 6]	14.0	catFR1	2	R1375C
87.21	3.582	91735	PROB	3.565	n/a	n/a	n/a	-999	-1	[4, 6, 6]	16.0	catFR1	2	R1375C
90.792	4.234	95316	PROB	4.217	n/a	n/a	n/a	-999	-1	[3, 6, 1]	10.0	catFR1	2	R1375C
95.026	0.0	99544	DISTRACT_END	n/a	n/a	n/a	n/a	-999	-1	[0, 0, 0]	n/a	catFR1	2	R1375C
95.026	1.167	99550	STOP	n/a	n/a	n/a	n/a	-999	-1	[-999, -999, -999]	n/a	catFR1	2	R1375C
96.193	1.716	100715	REC_START	n/a	n/a	n/a	n/a	-999	-1	[0, 0, 0]	n/a	catFR1	2	R1375C
97.909	0.455	102433	REC_WORD	1.716	n/a	PLUMBER	Professions	1	-1	[0, 0, 0]	n/a	catFR1	2	R1375C
98.364	0.43	102888	REC_WORD	2.171	n/a	TEACHER	Professions	2	-1	[0, 0, 0]	n/a	catFR1	2	R1375C
98.794	2.134	103318	REC_WORD	2.601	n/a	SECOND	Times	3	-1	[0, 0, 0]	n/a	catFR1	2	R1375C
100.928	25.562	105452	REC_WORD_VV	4.735	n/a	<>	n/a	-999	-1	[0, 0, 0]	n/a	catFR1	2	R1375C
126.49	6.386	131012	REC_END	n/a	n/a	n/a	n/a	-999	-1	[0, 0, 0]	n/a	catFR1	2	R1375C
132.876	10.0	137405	COUNTDOWN_START	n/a	n/a	n/a	n/a	-999	1	[0, 0, 0]	n/a	catFR1	2	R1375C
143.243	0.0	147766	COUNTDOWN_END	n/a	n/a	n/a	n/a	-999	1	[0, 0, 0]	n/a	catFR1	2	R1375C
143.243	2.183	147766	ENCODING_START	n/a	n/a	n/a	n/a	-999	1	[0, 0, 0]	n/a	catFR1	2	R1375C
145.426	1.6	149943	WORD	n/a	wordpools/wordpool_categorized_EN.txt	BARBIE	Toys	1	1	[0, 0, 0]	n/a	catFR1	2	R1375C
147.042	0.85	151569	WORD_OFF	n/a	n/a	BARBIE	Toys	1	1	[0, 0, 0]	n/a	catFR1	2	R1375C
147.892	1.6	152409	WORD	n/a	wordpools/wordpool_categorized_EN.txt	FRISBEE	Toys	2	1	[0, 0, 0]	n/a	catFR1	2	R1375C
149.509	0.833	154035	WORD_OFF	n/a	n/a	FRISBEE	Toys	2	1	[0, 0, 0]	n/a	catFR1	2	R1375C
150.342	1.6	154862	WORD	n/a	wordpools/wordpool_categorized_EN.txt	DRILL	Tools	3	1	[0, 0, 0]	n/a	catFR1	2	R1375C
151.959	0.967	156487	WORD_OFF	n/a	n/a	DRILL	Tools	3	1	[0, 0, 0]	n/a	catFR1	2	R1375C
152.926	1.6	157452	WORD	n/a	wordpools/wordpool_categorized_EN.txt	RATCHET	Tools	4	1	[0, 0, 0]	n/a	catFR1	2	R1375C
154.542	0.79	159064	WORD_OFF	n/a	n/a	RATCHET	Tools	4	1	[0, 0, 0]	n/a	catFR1	2	R1375C
155.332	1.6	159849	WORD	n/a	wordpools/wordpool_categorized_EN.txt	ARM	Bodyparts	5	1	[0, 0, 0]	n/a	catFR1	2	R1375C
156.925	0.8	161447	WORD_OFF	n/a	n/a	ARM	Bodyparts	5	1	[0, 0, 0]	n/a	catFR1	2	R1375C
157.725	1.6	162247	WORD	n/a	wordpools/wordpool_categorized_EN.txt	NOSE	Bodyparts	6	1	[0, 0, 0]	n/a	catFR1	2	R1375C
159.325	0.867	163845	WORD_OFF	n/a	n/a	NOSE	Bodyparts	6	1	[0, 0, 0]	n/a	catFR1	2	R1375C
160.192	1.6	164713	WORD	n/a	wordpools/wordpool_categorized_EN.txt	SANDER	Tools	7	1	[0, 0, 0]	n/a	catFR1	2	R1375C
161.792	0.95	166311	WORD_OFF	n/a	n/a	SANDER	Tools	7	1	[0, 0, 0]	n/a	catFR1	2	R1375C
162.742	1.6	167262	WORD	n/a	wordpools/wordpool_categorized_EN.txt	SCREWDRIVER	Tools	8	1	[0, 0, 0]	n/a	catFR1	2	R1375C
164.343	0.833	168860	WORD_OFF	n/a	n/a	SCREWDRIVER	Tools	8	1	[0, 0, 0]	n/a	catFR1	2	R1375C
165.176	1.6	169700	WORD	n/a	wordpools/wordpool_categorized_EN.txt	TOE	Bodyparts	9	1	[0, 0, 0]	n/a	catFR1	2	R1375C
166.776	0.767	171299	WORD_OFF	n/a	n/a	TOE	Bodyparts	9	1	[0, 0, 0]	n/a	catFR1	2	R1375C
167.543	1.6	172070	WORD	n/a	wordpools/wordpool_categorized_EN.txt	EYE	Bodyparts	10	1	[0, 0, 0]	n/a	catFR1	2	R1375C
169.16	0.867	173682	WORD_OFF	n/a	n/a	EYE	Bodyparts	10	1	[0, 0, 0]	n/a	catFR1	2	R1375C
170.027	1.6	174550	WORD	n/a	wordpools/wordpool_categorized_EN.txt	BLOCKS	Toys	11	1	[0, 0, 0]	n/a	catFR1	2	R1375C
171.643	0.917	176162	WORD_OFF	n/a	n/a	BLOCKS	Toys	11	1	[0, 0, 0]	n/a	catFR1	2	R1375C
172.56	1.6	177085	WORD	n/a	wordpools/wordpool_categorized_EN.txt	MARBLES	Toys	12	1	[0, 0, 0]	n/a	catFR1	2	R1375C
174.176	0.0	178696	PROB	4.5	n/a	n/a	n/a	-999	1	[8, 5, 3]	16.0	catFR1	2	R1375C
174.176	0.002	178697	WORD_OFF	n/a	n/a	MARBLES	Toys	12	1	[0, 0, 0]	n/a	catFR1	2	R1375C
174.178	0.0	178697	ENCODING_END	n/a	n/a	n/a	n/a	-999	1	[0, 0, 0]	n/a	catFR1	2	R1375C
174.178	0.0	178697	DISTRACT_START	n/a	n/a	n/a	n/a	-999	1	[0, 0, 0]	n/a	catFR1	2	R1375C
174.178	4.516	178698	START	n/a	n/a	n/a	n/a	-999	1	[-999, -999, -999]	n/a	catFR1	2	R1375C
178.694	4.032	183214	PROB	4.016	n/a	n/a	n/a	-999	1	[8, 8, 6]	22.0	catFR1	2	R1375C
182.726	2.984	187246	PROB	2.967	n/a	n/a	n/a	-999	1	[4, 2, 1]	7.0	catFR1	2	R1375C
185.71	1.7	190230	PROB	1.683	n/a	n/a	n/a	-999	1	[1, 1, 2]	4.0	catFR1	2	R1375C
187.41	2.216	191929	PROB	2.199	n/a	n/a	n/a	-999	1	[4, 6, 1]	11.0	catFR1	2	R1375C
189.626	2.584	194145	PROB	2.567	n/a	n/a	n/a	-999	1	[3, 7, 6]	16.0	catFR1	2	R1375C
192.21	3.849	196729	PROB	3.832	n/a	n/a	n/a	-999	1	[2, 8, 6]	16.0	catFR1	2	R1375C
196.059	0.0	200576	DISTRACT_END	n/a	n/a	n/a	n/a	-999	1	[0, 0, 0]	n/a	catFR1	2	R1375C
196.059	1.117	200578	STOP	n/a	n/a	n/a	n/a	-999	1	[-999, -999, -999]	n/a	catFR1	2	R1375C
197.176	5.656	201692	REC_START	n/a	n/a	n/a	n/a	-999	1	[0, 0, 0]	n/a	catFR1	2	R1375C
202.832	1.809	207351	REC_WORD	5.656	n/a	BARBIE	Toys	1	1	[0, 0, 0]	n/a	catFR1	2	R1375C
204.641	0.46	209160	REC_WORD	7.465	n/a	TOE	Bodyparts	9	1	[0, 0, 0]	n/a	catFR1	2	R1375C
205.101	2.618	209620	REC_WORD	7.925	n/a	EYE	Bodyparts	10	1	[0, 0, 0]	n/a	catFR1	2	R1375C
207.719	2.629	212237	REC_WORD	10.543	n/a	ARM	Bodyparts	5	1	[0, 0, 0]	n/a	catFR1	2	R1375C
210.348	2.569	214866	REC_WORD	13.172	n/a	SANDPAPER	n/a	-999	1	[0, 0, 0]	n/a	catFR1	2	R1375C
212.917	0.539	217435	REC_WORD_VV	15.741	n/a	<>	n/a	-999	1	[0, 0, 0]	n/a	catFR1	2	R1375C
213.456	0.26	217974	REC_WORD_VV	16.28	n/a	<>	n/a	-999	1	[0, 0, 0]	n/a	catFR1	2	R1375C
213.716	1.782	218234	REC_WORD	16.54	n/a	SCREWDRIVER	Tools	8	1	[0, 0, 0]	n/a	catFR1	2	R1375C
215.498	11.943	220016	REC_WORD	18.322	n/a	DRILL	Tools	3	1	[0, 0, 0]	n/a	catFR1	2	R1375C
227.441	2.034	231962	REC_END	n/a	n/a	n/a	n/a	-999	1	[0, 0, 0]	n/a	catFR1	2	R1375C
229.475	10.0	234001	COUNTDOWN_START	n/a	n/a	n/a	n/a	-999	2	[0, 0, 0]	n/a	catFR1	2	R1375C
239.828	0.0	244348	COUNTDOWN_END	n/a	n/a	n/a	n/a	-999	2	[0, 0, 0]	n/a	catFR1	2	R1375C
239.828	2.198	244348	ENCODING_START	n/a	n/a	n/a	n/a	-999	2	[0, 0, 0]	n/a	catFR1	2	R1375C
242.026	1.6	246539	WORD	n/a	wordpools/wordpool_categorized_EN.txt	OYSTER	Oceananimals	1	2	[0, 0, 0]	n/a	catFR1	2	R1375C
243.643	0.932	248165	WORD_OFF	n/a	n/a	OYSTER	Oceananimals	1	2	[0, 0, 0]	n/a	catFR1	2	R1375C
244.575	1.6	249088	WORD	n/a	wordpools/wordpool_categorized_EN.txt	SHRIMP	Oceananimals	2	2	[0, 0, 0]	n/a	catFR1	2	R1375C
246.176	0.967	250700	WORD_OFF	n/a	n/a	SHRIMP	Oceananimals	2	2	[0, 0, 0]	n/a	catFR1	2	R1375C
247.143	1.6	251664	WORD	n/a	wordpools/wordpool_categorized_EN.txt	THUNDER	Weather	3	2	[0, 0, 0]	n/a	catFR1	2	R1375C
248.743	0.967	253262	WORD_OFF	n/a	n/a	THUNDER	Weather	3	2	[0, 0, 0]	n/a	catFR1	2	R1375C
249.71	1.6	254227	WORD	n/a	wordpools/wordpool_categorized_EN.txt	RAIN	Weather	4	2	[0, 0, 0]	n/a	catFR1	2	R1375C
251.327	0.916	255839	WORD_OFF	n/a	n/a	RAIN	Weather	4	2	[0, 0, 0]	n/a	catFR1	2	R1375C
252.243	1.6	256762	WORD	n/a	wordpools/wordpool_categorized_EN.txt	DOLL	Toys	5	2	[0, 0, 0]	n/a	catFR1	2	R1375C
253.86	0.882	258374	WORD_OFF	n/a	n/a	DOLL	Toys	5	2	[0, 0, 0]	n/a	catFR1	2	R1375C
254.742	1.6	259256	WORD	n/a	wordpools/wordpool_categorized_EN.txt	BASKETBALL	Toys	6	2	[0, 0, 0]	n/a	catFR1	2	R1375C
256.342	0.767	260854	WORD_OFF	n/a	n/a	BASKETBALL	Toys	6	2	[0, 0, 0]	n/a	catFR1	2	R1375C
257.109	1.6	261626	WORD	n/a	wordpools/wordpool_categorized_EN.txt	WHALE	Oceananimals	7	2	[0, 0, 0]	n/a	catFR1	2	R1375C
258.709	0.834	263224	WORD_OFF	n/a	n/a	WHALE	Oceananimals	7	2	[0, 0, 0]	n/a	catFR1	2	R1375C
259.543	1.6	264064	WORD	n/a	wordpools/wordpool_categorized_EN.txt	TURTLE	Oceananimals	8	2	[0, 0, 0]	n/a	catFR1	2	R1375C
261.143	0.983	265662	WORD_OFF	n/a	n/a	TURTLE	Oceananimals	8	2	[0, 0, 0]	n/a	catFR1	2	R1375C
262.126	1.6	266641	WORD	n/a	wordpools/wordpool_categorized_EN.txt	LIGHTNING	Weather	9	2	[0, 0, 0]	n/a	catFR1	2	R1375C
263.726	0.949	268239	WORD_OFF	n/a	n/a	LIGHTNING	Weather	9	2	[0, 0, 0]	n/a	catFR1	2	R1375C
264.675	1.6	269190	WORD	n/a	wordpools/wordpool_categorized_EN.txt	FOG	Weather	10	2	[0, 0, 0]	n/a	catFR1	2	R1375C
266.275	0.984	270788	WORD_OFF	n/a	n/a	FOG	Weather	10	2	[0, 0, 0]	n/a	catFR1	2	R1375C
267.259	1.6	271780	WORD	n/a	wordpools/wordpool_categorized_EN.txt	BALL	Toys	11	2	[0, 0, 0]	n/a	catFR1	2	R1375C
268.875	0.967	273392	WORD_OFF	n/a	n/a	BALL	Toys	11	2	[0, 0, 0]	n/a	catFR1	2	R1375C
269.842	1.6	274356	WORD	n/a	wordpools/wordpool_categorized_EN.txt	SLINKY	Toys	12	2	[0, 0, 0]	n/a	catFR1	2	R1375C
271.443	0.0	275954	WORD_OFF	n/a	n/a	SLINKY	Toys	12	2	[0, 0, 0]	n/a	catFR1	2	R1375C
271.443	0.002	275958	PROB	5.783	n/a	n/a	n/a	-999	2	[4, 1, 8]	13.0	catFR1	2	R1375C
271.445	0.0	275960	START	n/a	n/a	n/a	n/a	-999	2	[-999, -999, -999]	n/a	catFR1	2	R1375C
271.445	0.0	275968	ENCODING_END	n/a	n/a	n/a	n/a	-999	2	[0, 0, 0]	n/a	catFR1	2	R1375C
271.445	5.798	275968	DISTRACT_START	n/a	n/a	n/a	n/a	-999	2	[0, 0, 0]	n/a	catFR1	2	R1375C
277.243	4.734	281758	PROB	4.716	n/a	n/a	n/a	-999	2	[7, 1, 6]	14.0	catFR1	2	R1375C
281.977	3.449	286492	PROB	3.433	n/a	n/a	n/a	-999	2	[6, 8, 6]	20.0	catFR1	2	R1375C
285.426	6.316	289940	PROB	6.3	n/a	n/a	n/a	-999	2	[3, 8, 4]	15.0	catFR1	2	R1375C
291.742	0.0	296256	STOP	n/a	n/a	n/a	n/a	-999	2	[-999, -999, -999]	n/a	catFR1	2	R1375C
291.742	1.15	296263	DISTRACT_END	n/a	n/a	n/a	n/a	-999	2	[0, 0, 0]	n/a	catFR1	2	R1375C
292.892	1.323	297406	REC_START	n/a	n/a	n/a	n/a	-999	2	[0, 0, 0]	n/a	catFR1	2	R1375C
294.215	0.278	298729	REC_WORD_VV	1.323	n/a	<>	n/a	-999	2	[0, 0, 0]	n/a	catFR1	2	R1375C
294.493	0.549	299007	REC_WORD	1.601	n/a	OYSTER	Oceananimals	1	2	[0, 0, 0]	n/a	catFR1	2	R1375C
295.042	4.384	299556	REC_WORD	2.15	n/a	SHRIMP	Oceananimals	2	2	[0, 0, 0]	n/a	catFR1	2	R1375C
299.426	3.26	303940	REC_WORD	6.534	n/a	THUNDER	Weather	3	2	[0, 0, 0]	n/a	catFR1	2	R1375C
302.686	20.448	307200	REC_WORD	9.794	n/a	RAIN	Weather	4	2	[0, 0, 0]	n/a	catFR1	2	R1375C
323.134	1.442	327649	REC_END	n/a	n/a	n/a	n/a	-999	2	[0, 0, 0]	n/a	catFR1	2	R1375C
324.576	10.0	329095	COUNTDOWN_START	n/a	n/a	n/a	n/a	-999	3	[0, 0, 0]	n/a	catFR1	2	R1375C
334.927	0.0	339442	COUNTDOWN_END	n/a	n/a	n/a	n/a	-999	3	[0, 0, 0]	n/a	catFR1	2	R1375C
334.927	1.982	339442	ENCODING_START	n/a	n/a	n/a	n/a	-999	3	[0, 0, 0]	n/a	catFR1	2	R1375C
336.909	1.6	341426	WORD	n/a	wordpools/wordpool_categorized_EN.txt	JEANS	Clothing	1	3	[0, 0, 0]	n/a	catFR1	2	R1375C
338.509	0.866	343025	WORD_OFF	n/a	n/a	JEANS	Clothing	1	3	[0, 0, 0]	n/a	catFR1	2	R1375C
339.375	1.6	343893	WORD	n/a	wordpools/wordpool_categorized_EN.txt	SHOES	Clothing	2	3	[0, 0, 0]	n/a	catFR1	2	R1375C
340.976	0.967	345491	WORD_OFF	n/a	n/a	SHOES	Clothing	2	3	[0, 0, 0]	n/a	catFR1	2	R1375C
341.943	1.6	346455	WORD	n/a	wordpools/wordpool_categorized_EN.txt	CARNATION	Flowers	3	3	[0, 0, 0]	n/a	catFR1	2	R1375C
343.559	0.967	348067	WORD_OFF	n/a	n/a	CARNATION	Flowers	3	3	[0, 0, 0]	n/a	catFR1	2	R1375C
344.526	1.6	349032	WORD	n/a	wordpools/wordpool_categorized_EN.txt	ORCHID	Flowers	4	3	[0, 0, 0]	n/a	catFR1	2	R1375C
346.126	0.917	350644	WORD_OFF	n/a	n/a	ORCHID	Flowers	4	3	[0, 0, 0]	n/a	catFR1	2	R1375C
347.043	1.6	351553	WORD	n/a	wordpools/wordpool_categorized_EN.txt	BULL	Farmanimals	5	3	[0, 0, 0]	n/a	catFR1	2	R1375C
348.659	0.885	353165	WORD_OFF	n/a	n/a	BULL	Farmanimals	5	3	[0, 0, 0]	n/a	catFR1	2	R1375C
349.544	1.6	354061	WORD	n/a	wordpools/wordpool_categorized_EN.txt	TURKEY	Farmanimals	6	3	[0, 0, 0]	n/a	catFR1	2	R1375C
351.142	0.884	355659	WORD_OFF	n/a	n/a	TURKEY	Farmanimals	6	3	[0, 0, 0]	n/a	catFR1	2	R1375C
352.026	1.6	356541	WORD	n/a	wordpools/wordpool_categorized_EN.txt	SKIRT	Clothing	7	3	[0, 0, 0]	n/a	catFR1	2	R1375C
353.626	1.0	358139	WORD_OFF	n/a	n/a	SKIRT	Clothing	7	3	[0, 0, 0]	n/a	catFR1	2	R1375C
354.626	1.6	359131	WORD	n/a	wordpools/wordpool_categorized_EN.txt	UNDERWEAR	Clothing	8	3	[0, 0, 0]	n/a	catFR1	2	R1375C
356.225	0.967	360743	WORD_OFF	n/a	n/a	UNDERWEAR	Clothing	8	3	[0, 0, 0]	n/a	catFR1	2	R1375C
357.192	1.6	361707	WORD	n/a	wordpools/wordpool_categorized_EN.txt	DAISY	Flowers	9	3	[0, 0, 0]	n/a	catFR1	2	R1375C
358.792	0.95	363305	WORD_OFF	n/a	n/a	DAISY	Flowers	9	3	[0, 0, 0]	n/a	catFR1	2	R1375C
359.742	1.6	364256	WORD	n/a	wordpools/wordpool_categorized_EN.txt	PETUNIA	Flowers	10	3	[0, 0, 0]	n/a	catFR1	2	R1375C
361.358	0.767	365868	WORD_OFF	n/a	n/a	PETUNIA	Flowers	10	3	[0, 0, 0]	n/a	catFR1	2	R1375C
362.125	1.6	366640	WORD	n/a	wordpools/wordpool_categorized_EN.txt	CALF	Farmanimals	11	3	[0, 0, 0]	n/a	catFR1	2	R1375C
363.742	0.767	368252	WORD_OFF	n/a	n/a	CALF	Farmanimals	11	3	[0, 0, 0]	n/a	catFR1	2	R1375C
364.509	1.6	369023	WORD	n/a	wordpools/wordpool_categorized_EN.txt	HORSE	Farmanimals	12	3	[0, 0, 0]	n/a	catFR1	2	R1375C
366.125	0.002	370635	WORD_OFF	n/a	n/a	HORSE	Farmanimals	12	3	[0, 0, 0]	n/a	catFR1	2	R1375C
366.127	0.0	370635	ENCODING_END	n/a	n/a	n/a	n/a	-999	3	[0, 0, 0]	n/a	catFR1	2	R1375C
366.127	0.0	370635	DISTRACT_START	n/a	n/a	n/a	n/a	-999	3	[0, 0, 0]	n/a	catFR1	2	R1375C
366.126	0.001	370636	PROB	4.0	n/a	n/a	n/a	-999	3	[6, 7, 5]	18.0	catFR1	2	R1375C
366.127	4.016	370637	START	n/a	n/a	n/a	n/a	-999	3	[-999, -999, -999]	n/a	catFR1	2	R1375C
370.143	2.684	374653	PROB	2.667	n/a	n/a	n/a	-999	3	[8, 7, 1]	16.0	catFR1	2	R1375C
372.827	2.167	377337	PROB	2.15	n/a	n/a	n/a	-999	3	[5, 4, 2]	11.0	catFR1	2	R1375C
374.994	7.849	379504	PROB	7.832	n/a	n/a	n/a	-999	3	[6, 6, 4]	16.0	catFR1	2	R1375C
382.843	2.1	387352	PROB	2.083	n/a	n/a	n/a	-999	3	[3, 3, 1]	7.0	catFR1	2	R1375C
384.943	5.167	389452	PROB	5.15	n/a	n/a	n/a	-999	3	[5, 4, 5]	14.0	catFR1	2	R1375C
390.11	0.0	394619	STOP	n/a	n/a	n/a	n/a	-999	3	[-999, -999, -999]	n/a	catFR1	2	R1375C
390.11	1.25	394622	DISTRACT_END	n/a	n/a	n/a	n/a	-999	3	[0, 0, 0]	n/a	catFR1	2	R1375C
391.36	2.265	395871	REC_START	n/a	n/a	n/a	n/a	-999	3	[0, 0, 0]	n/a	catFR1	2	R1375C
393.625	1.794	398134	REC_WORD	2.265	n/a	CALF	Farmanimals	11	3	[0, 0, 0]	n/a	catFR1	2	R1375C
395.419	3.856	399928	REC_WORD_VV	4.059	n/a	<>	n/a	-999	3	[0, 0, 0]	n/a	catFR1	2	R1375C
399.275	22.327	403784	REC_WORD	7.915	n/a	DAISY	Flowers	9	3	[0, 0, 0]	n/a	catFR1	2	R1375C
421.602	1.324	426104	REC_END	n/a	n/a	n/a	n/a	-999	3	[0, 0, 0]	n/a	catFR1	2	R1375C
422.926	10.0	427441	COUNTDOWN_START	n/a	n/a	n/a	n/a	-999	4	[0, 0, 0]	n/a	catFR1	2	R1375C
433.276	0.0	437788	COUNTDOWN_END	n/a	n/a	n/a	n/a	-999	4	[0, 0, 0]	n/a	catFR1	2	R1375C
433.276	2.116	437788	ENCODING_START	n/a	n/a	n/a	n/a	-999	4	[0, 0, 0]	n/a	catFR1	2	R1375C
435.392	1.6	439896	WORD	n/a	wordpools/wordpool_categorized_EN.txt	TUBA	Instruments	1	4	[0, 0, 0]	n/a	catFR1	2	R1375C
436.993	0.916	441494	WORD_OFF	n/a	n/a	TUBA	Instruments	1	4	[0, 0, 0]	n/a	catFR1	2	R1375C
437.909	1.6	442417	WORD	n/a	wordpools/wordpool_categorized_EN.txt	GUITAR	Instruments	2	4	[0, 0, 0]	n/a	catFR1	2	R1375C
439.526	0.983	444029	WORD_OFF	n/a	n/a	GUITAR	Instruments	2	4	[0, 0, 0]	n/a	catFR1	2	R1375C
440.509	1.6	445021	WORD	n/a	wordpools/wordpool_categorized_EN.txt	APPLE	Fruit	3	4	[0, 0, 0]	n/a	catFR1	2	R1375C
442.109	0.934	446620	WORD_OFF	n/a	n/a	APPLE	Fruit	3	4	[0, 0, 0]	n/a	catFR1	2	R1375C
443.043	1.6	447556	WORD	n/a	wordpools/wordpool_categorized_EN.txt	LEMON	Fruit	4	4	[0, 0, 0]	n/a	catFR1	2	R1375C
444.642	0.967	449155	WORD_OFF	n/a	n/a	LEMON	Fruit	4	4	[0, 0, 0]	n/a	catFR1	2	R1375C
445.609	1.6	450119	WORD	n/a	wordpools/wordpool_categorized_EN.txt	PUZZLE	Toys	5	4	[0, 0, 0]	n/a	catFR1	2	R1375C
447.226	0.833	451731	WORD_OFF	n/a	n/a	PUZZLE	Toys	5	4	[0, 0, 0]	n/a	catFR1	2	R1375C
448.059	1.6	452572	WORD	n/a	wordpools/wordpool_categorized_EN.txt	FOOTBALL	Toys	6	4	[0, 0, 0]	n/a	catFR1	2	R1375C
449.676	0.866	454184	WORD_OFF	n/a	n/a	FOOTBALL	Toys	6	4	[0, 0, 0]	n/a	catFR1	2	R1375C
450.542	1.6	455052	WORD	n/a	wordpools/wordpool_categorized_EN.txt	BANANA	Fruit	7	4	[0, 0, 0]	n/a	catFR1	2	R1375C
452.159	0.95	456664	WORD_OFF	n/a	n/a	BANANA	Fruit	7	4	[0, 0, 0]	n/a	catFR1	2	R1375C
453.109	1.6	457614	WORD	n/a	wordpools/wordpool_categorized_EN.txt	PEACH	Fruit	8	4	[0, 0, 0]	n/a	catFR1	2	R1375C
454.726	0.9	459226	WORD_OFF	n/a	n/a	PEACH	Fruit	8	4	[0, 0, 0]	n/a	catFR1	2	R1375C
455.626	1.6	460136	WORD	n/a	wordpools/wordpool_categorized_EN.txt	BASEBALL	Toys	9	4	[0, 0, 0]	n/a	catFR1	2	R1375C
457.226	0.916	461734	WORD_OFF	n/a	n/a	BASEBALL	Toys	9	4	[0, 0, 0]	n/a	catFR1	2	R1375C
458.142	1.6	462643	WORD	n/a	wordpools/wordpool_categorized_EN.txt	DOLLHOUSE	Toys	10	4	[0, 0, 0]	n/a	catFR1	2	R1375C
459.759	0.816	464269	WORD_OFF	n/a	n/a	DOLLHOUSE	Toys	10	4	[0, 0, 0]	n/a	catFR1	2	R1375C
460.575	1.6	465082	WORD	n/a	wordpools/wordpool_categorized_EN.txt	FLUTE	Instruments	11	4	[0, 0, 0]	n/a	catFR1	2	R1375C
462.176	0.982	466680	WORD_OFF	n/a	n/a	FLUTE	Instruments	11	4	[0, 0, 0]	n/a	catFR1	2	R1375C
463.158	1.6	467658	WORD	n/a	wordpools/wordpool_categorized_EN.txt	TROMBONE	Instruments	12	4	[0, 0, 0]	n/a	catFR1	2	R1375C
464.759	0.002	469264	PROB	3.35	n/a	n/a	n/a	-999	4	[3, 1, 6]	10.0	catFR1	2	R1375C
464.761	0.0	469266	START	n/a	n/a	n/a	n/a	-999	4	[-999, -999, -999]	n/a	catFR1	2	R1375C
464.759	0.002	469270	WORD_OFF	n/a	n/a	TROMBONE	Instruments	12	4	[0, 0, 0]	n/a	catFR1	2	R1375C
464.761	0.0	469270	ENCODING_END	n/a	n/a	n/a	n/a	-999	4	[0, 0, 0]	n/a	catFR1	2	R1375C
464.761	3.364	469270	DISTRACT_START	n/a	n/a	n/a	n/a	-999	4	[0, 0, 0]	n/a	catFR1	2	R1375C
468.125	3.185	472630	PROB	3.167	n/a	n/a	n/a	-999	4	[1, 1, 7]	9.0	catFR1	2	R1375C
471.31	3.3	475815	PROB	3.283	n/a	n/a	n/a	-999	4	[4, 4, 2]	10.0	catFR1	2	R1375C
474.61	5.118	479115	PROB	5.1	n/a	n/a	n/a	-999	4	[6, 8, 5]	19.0	catFR1	2	R1375C
479.728	3.099	484232	PROB	3.081	n/a	n/a	n/a	-999	4	[3, 2, 4]	9.0	catFR1	2	R1375C
482.827	7.249	487331	PROB	7.233	n/a	n/a	n/a	-999	4	[2, 8, 7]	17.0	catFR1	2	R1375C
490.076	0.0	494580	DISTRACT_END	n/a	n/a	n/a	n/a	-999	4	[0, 0, 0]	n/a	catFR1	2	R1375C
490.076	1.017	494580	STOP	n/a	n/a	n/a	n/a	-999	4	[-999, -999, -999]	n/a	catFR1	2	R1375C
491.093	2.126	495600	REC_START	n/a	n/a	n/a	n/a	-999	4	[0, 0, 0]	n/a	catFR1	2	R1375C
493.219	0.675	497723	REC_WORD	2.126	n/a	APPLE	Fruit	3	4	[0, 0, 0]	n/a	catFR1	2	R1375C
493.894	0.607	498398	REC_WORD	2.801	n/a	LEMON	Fruit	4	4	[0, 0, 0]	n/a	catFR1	2	R1375C
494.501	0.621	499005	REC_WORD	3.408	n/a	FOOTBALL	Toys	6	4	[0, 0, 0]	n/a	catFR1	2	R1375C
495.122	0.619	499626	REC_WORD	4.029	n/a	BANANA	Fruit	7	4	[0, 0, 0]	n/a	catFR1	2	R1375C
495.741	25.586	500245	REC_WORD	4.648	n/a	PEACH	Fruit	8	4	[0, 0, 0]	n/a	catFR1	2	R1375C
521.327	1.349	525828	REC_END	n/a	n/a	n/a	n/a	-999	4	[0, 0, 0]	n/a	catFR1	2	R1375C
522.676	10.0	527178	COUNTDOWN_START	n/a	n/a	n/a	n/a	-999	5	[0, 0, 0]	n/a	catFR1	2	R1375C
533.027	0.0	537525	COUNTDOWN_END	n/a	n/a	n/a	n/a	-999	5	[0, 0, 0]	n/a	catFR1	2	R1375C
533.027	2.066	537525	ENCODING_START	n/a	n/a	n/a	n/a	-999	5	[0, 0, 0]	n/a	catFR1	2	R1375C
535.093	1.6	539592	WORD	n/a	wordpools/wordpool_categorized_EN.txt	OAK	Trees	1	5	[0, 0, 0]	n/a	catFR1	2	R1375C
536.693	0.932	541190	WORD_OFF	n/a	n/a	OAK	Trees	1	5	[0, 0, 0]	n/a	catFR1	2	R1375C
537.625	1.6	542127	WORD	n/a	wordpools/wordpool_categorized_EN.txt	CYPRESS	Trees	2	5	[0, 0, 0]	n/a	catFR1	2	R1375C
539.225	0.917	543725	WORD_OFF	n/a	n/a	CYPRESS	Trees	2	5	[0, 0, 0]	n/a	catFR1	2	R1375C
540.142	1.6	544648	WORD	n/a	wordpools/wordpool_categorized_EN.txt	CARDINAL	Birds	3	5	[0, 0, 0]	n/a	catFR1	2	R1375C
541.742	0.784	546247	WORD_OFF	n/a	n/a	CARDINAL	Birds	3	5	[0, 0, 0]	n/a	catFR1	2	R1375C
542.526	1.6	547032	WORD	n/a	wordpools/wordpool_categorized_EN.txt	GOOSE	Birds	4	5	[0, 0, 0]	n/a	catFR1	2	R1375C
544.143	0.9	548644	WORD_OFF	n/a	n/a	GOOSE	Birds	4	5	[0, 0, 0]	n/a	catFR1	2	R1375C
545.043	1.6	549539	WORD	n/a	wordpools/wordpool_categorized_EN.txt	GNAT	Insects	5	5	[0, 0, 0]	n/a	catFR1	2	R1375C
546.659	0.983	551165	WORD_OFF	n/a	n/a	GNAT	Insects	5	5	[0, 0, 0]	n/a	catFR1	2	R1375C
547.642	1.6	552143	WORD	n/a	wordpools/wordpool_categorized_EN.txt	LADYBUG	Insects	6	5	[0, 0, 0]	n/a	catFR1	2	R1375C
549.242	0.9	553742	WORD_OFF	n/a	n/a	LADYBUG	Insects	6	5	[0, 0, 0]	n/a	catFR1	2	R1375C
550.142	1.6	554651	WORD	n/a	wordpools/wordpool_categorized_EN.txt	SPRUCE	Trees	7	5	[0, 0, 0]	n/a	catFR1	2	R1375C
551.759	0.917	556263	WORD_OFF	n/a	n/a	SPRUCE	Trees	7	5	[0, 0, 0]	n/a	catFR1	2	R1375C
552.676	1.6	557172	WORD	n/a	wordpools/wordpool_categorized_EN.txt	CEDAR	Trees	8	5	[0, 0, 0]	n/a	catFR1	2	R1375C
554.276	1.0	558771	WORD_OFF	n/a	n/a	CEDAR	Trees	8	5	[0, 0, 0]	n/a	catFR1	2	R1375C
555.276	1.6	559776	WORD	n/a	wordpools/wordpool_categorized_EN.txt	BLUEBIRD	Birds	9	5	[0, 0, 0]	n/a	catFR1	2	R1375C
556.892	0.767	561388	WORD_OFF	n/a	n/a	BLUEBIRD	Birds	9	5	[0, 0, 0]	n/a	catFR1	2	R1375C
557.659	1.6	562160	WORD	n/a	wordpools/wordpool_categorized_EN.txt	SEAGULL	Birds	10	5	[0, 0, 0]	n/a	catFR1	2	R1375C
559.275	0.834	563772	WORD_OFF	n/a	n/a	SEAGULL	Birds	10	5	[0, 0, 0]	n/a	catFR1	2	R1375C
560.109	1.6	564612	WORD	n/a	wordpools/wordpool_categorized_EN.txt	MOSQUITO	Insects	11	5	[0, 0, 0]	n/a	catFR1	2	R1375C
561.709	0.95	566211	WORD_OFF	n/a	n/a	MOSQUITO	Insects	11	5	[0, 0, 0]	n/a	catFR1	2	R1375C
562.659	1.6	567161	WORD	n/a	wordpools/wordpool_categorized_EN.txt	ROACH	Insects	12	5	[0, 0, 0]	n/a	catFR1	2	R1375C
564.275	0.002	568773	WORD_OFF	n/a	n/a	ROACH	Insects	12	5	[0, 0, 0]	n/a	catFR1	2	R1375C
564.277	0.0	568773	ENCODING_END	n/a	n/a	n/a	n/a	-999	5	[0, 0, 0]	n/a	catFR1	2	R1375C
564.276	0.001	568776	PROB	4.716	n/a	n/a	n/a	-999	5	[7, 6, 5]	18.0	catFR1	2	R1375C
564.277	0.0	568777	START	n/a	n/a	n/a	n/a	-999	5	[-999, -999, -999]	n/a	catFR1	2	R1375C
564.277	4.732	568778	DISTRACT_START	n/a	n/a	n/a	n/a	-999	5	[0, 0, 0]	n/a	catFR1	2	R1375C
569.009	3.033	573509	PROB	3.016	n/a	n/a	n/a	-999	5	[6, 7, 4]	17.0	catFR1	2	R1375C
572.042	5.267	576542	PROB	5.25	n/a	n/a	n/a	-999	5	[6, 1, 3]	10.0	catFR1	2	R1375C
577.309	1.985	581808	PROB	1.967	n/a	n/a	n/a	-999	5	[2, 6, 4]	12.0	catFR1	2	R1375C
579.294	1.316	583793	PROB	1.298	n/a	n/a	n/a	-999	5	[5, 4, 1]	11.0	catFR1	2	R1375C
580.61	5.982	585109	PROB	5.966	n/a	n/a	n/a	-999	5	[6, 7, 1]	14.0	catFR1	2	R1375C
586.592	0.0	591091	STOP	n/a	n/a	n/a	n/a	-999	5	[-999, -999, -999]	n/a	catFR1	2	R1375C
586.592	1.134	591093	DISTRACT_END	n/a	n/a	n/a	n/a	-999	5	[0, 0, 0]	n/a	catFR1	2	R1375C
587.726	2.187	592223	REC_START	n/a	n/a	n/a	n/a	-999	5	[0, 0, 0]	n/a	catFR1	2	R1375C
589.913	0.96	594412	REC_WORD	2.187	n/a	OAK	Trees	1	5	[0, 0, 0]	n/a	catFR1	2	R1375C
590.873	1.975	595372	REC_WORD	3.147	n/a	SPRUCE	Trees	7	5	[0, 0, 0]	n/a	catFR1	2	R1375C
592.848	2.671	597347	REC_WORD	5.122	n/a	BLUEBIRD	Birds	9	5	[0, 0, 0]	n/a	catFR1	2	R1375C
595.519	22.46	600017	REC_WORD	7.793	n/a	CYPRESS	Trees	2	5	[0, 0, 0]	n/a	catFR1	2	R1375C
617.979	1.73	622479	REC_END	n/a	n/a	n/a	n/a	-999	5	[0, 0, 0]	n/a	catFR1	2	R1375C
619.709	10.0	624215	COUNTDOWN_START	n/a	n/a	n/a	n/a	-999	6	[0, 0, 0]	n/a	catFR1	2	R1375C
630.059	0.0	634562	COUNTDOWN_END	n/a	n/a	n/a	n/a	-999	6	[0, 0, 0]	n/a	catFR1	2	R1375C
630.059	2.083	634562	ENCODING_START	n/a	n/a	n/a	n/a	-999	6	[0, 0, 0]	n/a	catFR1	2	R1375C
632.142	1.6	636643	WORD	n/a	wordpools/wordpool_categorized_EN.txt	BEACH	Landscapes	1	6	[0, 0, 0]	n/a	catFR1	2	R1375C
633.759	0.801	638255	WORD_OFF	n/a	n/a	BEACH	Landscapes	1	6	[0, 0, 0]	n/a	catFR1	2	R1375C
634.56	1.6	639054	WORD	n/a	wordpools/wordpool_categorized_EN.txt	STREAM	Landscapes	2	6	[0, 0, 0]	n/a	catFR1	2	R1375C
636.16	0.866	640652	WORD_OFF	n/a	n/a	STREAM	Landscapes	2	6	[0, 0, 0]	n/a	catFR1	2	R1375C
637.026	1.6	641520	WORD	n/a	wordpools/wordpool_categorized_EN.txt	SAW	Tools	3	6	[0, 0, 0]	n/a	catFR1	2	R1375C
638.626	0.917	643118	WORD_OFF	n/a	n/a	SAW	Tools	3	6	[0, 0, 0]	n/a	catFR1	2	R1375C
639.543	1.6	644041	WORD	n/a	wordpools/wordpool_categorized_EN.txt	CROWBAR	Tools	4	6	[0, 0, 0]	n/a	catFR1	2	R1375C
641.159	1.0	645653	WORD_OFF	n/a	n/a	CROWBAR	Tools	4	6	[0, 0, 0]	n/a	catFR1	2	R1375C
642.159	1.6	646659	WORD	n/a	wordpools/wordpool_categorized_EN.txt	DOOR	Building	5	6	[0, 0, 0]	n/a	catFR1	2	R1375C
643.776	1.0	648271	WORD_OFF	n/a	n/a	DOOR	Building	5	6	[0, 0, 0]	n/a	catFR1	2	R1375C
644.776	1.6	649277	WORD	n/a	wordpools/wordpool_categorized_EN.txt	ROOM	Building	6	6	[0, 0, 0]	n/a	catFR1	2	R1375C
646.376	0.85	650875	WORD_OFF	n/a	n/a	ROOM	Building	6	6	[0, 0, 0]	n/a	catFR1	2	R1375C
647.226	1.6	651715	WORD	n/a	wordpools/wordpool_categorized_EN.txt	LEVEL	Tools	7	6	[0, 0, 0]	n/a	catFR1	2	R1375C
648.843	0.85	653341	WORD_OFF	n/a	n/a	LEVEL	Tools	7	6	[0, 0, 0]	n/a	catFR1	2	R1375C
649.693	1.6	654195	WORD	n/a	wordpools/wordpool_categorized_EN.txt	AXE	Tools	8	6	[0, 0, 0]	n/a	catFR1	2	R1375C
651.309	0.817	655807	WORD_OFF	n/a	n/a	AXE	Tools	8	6	[0, 0, 0]	n/a	catFR1	2	R1375C
652.126	1.6	656620	WORD	n/a	wordpools/wordpool_categorized_EN.txt	FOUNDATION	Building	9	6	[0, 0, 0]	n/a	catFR1	2	R1375C
653.726	0.833	658219	WORD_OFF	n/a	n/a	FOUNDATION	Building	9	6	[0, 0, 0]	n/a	catFR1	2	R1375C
654.559	1.6	659059	WORD	n/a	wordpools/wordpool_categorized_EN.txt	CEILING	Building	10	6	[0, 0, 0]	n/a	catFR1	2	R1375C
656.159	0.8	660657	WORD_OFF	n/a	n/a	CEILING	Building	10	6	[0, 0, 0]	n/a	catFR1	2	R1375C
656.959	1.6	661456	WORD	n/a	wordpools/wordpool_categorized_EN.txt	WOODS	Landscapes	11	6	[0, 0, 0]	n/a	catFR1	2	R1375C
658.559	0.817	663054	WORD_OFF	n/a	n/a	WOODS	Landscapes	11	6	[0, 0, 0]	n/a	catFR1	2	R1375C
659.376	1.6	663867	WORD	n/a	wordpools/wordpool_categorized_EN.txt	FOREST	Landscapes	12	6	[0, 0, 0]	n/a	catFR1	2	R1375C
660.993	0.001	665488	PROB	4.299	n/a	n/a	n/a	-999	6	[8, 3, 7]	18.0	catFR1	2	R1375C
660.994	0.0	665489	START	n/a	n/a	n/a	n/a	-999	6	[-999, -999, -999]	n/a	catFR1	2	R1375C
660.992	0.002	665493	WORD_OFF	n/a	n/a	FOREST	Landscapes	12	6	[0, 0, 0]	n/a	catFR1	2	R1375C
660.994	0.0	665493	ENCODING_END	n/a	n/a	n/a	n/a	-999	6	[0, 0, 0]	n/a	catFR1	2	R1375C
660.994	4.316	665493	DISTRACT_START	n/a	n/a	n/a	n/a	-999	6	[0, 0, 0]	n/a	catFR1	2	R1375C
665.31	4.216	669805	PROB	4.199	n/a	n/a	n/a	-999	6	[4, 2, 4]	10.0	catFR1	2	R1375C
669.526	6.45	674021	PROB	6.433	n/a	n/a	n/a	-999	6	[8, 5, 1]	16.0	catFR1	2	R1375C
675.976	3.45	680470	PROB	3.433	n/a	n/a	n/a	-999	6	[3, 7, 5]	15.0	catFR1	2	R1375C
679.426	5.101	683920	PROB	5.084	n/a	n/a	n/a	-999	6	[1, 6, 8]	17.0	catFR1	2	R1375C
684.527	0.0	689021	STOP	n/a	n/a	n/a	n/a	-999	6	[-999, -999, -999]	n/a	catFR1	2	R1375C
684.527	1.167	689026	DISTRACT_END	n/a	n/a	n/a	n/a	-999	6	[0, 0, 0]	n/a	catFR1	2	R1375C
685.694	1.631	690183	REC_START	n/a	n/a	n/a	n/a	-999	6	[0, 0, 0]	n/a	catFR1	2	R1375C
687.325	0.58	691819	REC_WORD	1.631	n/a	FOUNDATION	Building	9	6	[0, 0, 0]	n/a	catFR1	2	R1375C
687.905	0.794	692399	REC_WORD	2.211	n/a	CEILING	Building	10	6	[0, 0, 0]	n/a	catFR1	2	R1375C
688.699	27.249	693193	REC_WORD	3.005	n/a	WOODS	Landscapes	11	6	[0, 0, 0]	n/a	catFR1	2	R1375C
715.948	2.978	720439	REC_END	n/a	n/a	n/a	n/a	-999	6	[0, 0, 0]	n/a	catFR1	2	R1375C
718.926	10.0	723415	COUNTDOWN_START	n/a	n/a	n/a	n/a	-999	7	[0, 0, 0]	n/a	catFR1	2	R1375C
729.277	0.0	733776	COUNTDOWN_END	n/a	n/a	n/a	n/a	-999	7	[0, 0, 0]	n/a	catFR1	2	R1375C
729.277	2.049	733776	ENCODING_START	n/a	n/a	n/a	n/a	-999	7	[0, 0, 0]	n/a	catFR1	2	R1375C
731.326	1.6	735815	WORD	n/a	wordpools/wordpool_categorized_EN.txt	PANTS	Clothing	1	7	[0, 0, 0]	n/a	catFR1	2	R1375C
732.942	0.767	737427	WORD_OFF	n/a	n/a	PANTS	Clothing	1	7	[0, 0, 0]	n/a	catFR1	2	R1375C
733.709	1.6	738198	WORD	n/a	wordpools/wordpool_categorized_EN.txt	SOCKS	Clothing	2	7	[0, 0, 0]	n/a	catFR1	2	R1375C
735.309	0.917	739797	WORD_OFF	n/a	n/a	SOCKS	Clothing	2	7	[0, 0, 0]	n/a	catFR1	2	R1375C
736.226	1.6	740720	WORD	n/a	wordpools/wordpool_categorized_EN.txt	ROSE	Flowers	3	7	[0, 0, 0]	n/a	catFR1	2	R1375C
737.826	0.833	742318	WORD_OFF	n/a	n/a	ROSE	Flowers	3	7	[0, 0, 0]	n/a	catFR1	2	R1375C
738.659	1.6	743158	WORD	n/a	wordpools/wordpool_categorized_EN.txt	VIOLET	Flowers	4	7	[0, 0, 0]	n/a	catFR1	2	R1375C
740.259	0.767	744757	WORD_OFF	n/a	n/a	VIOLET	Flowers	4	7	[0, 0, 0]	n/a	catFR1	2	R1375C
741.026	1.6	745514	WORD	n/a	wordpools/wordpool_categorized_EN.txt	HALLWAY	Building	5	7	[0, 0, 0]	n/a	catFR1	2	R1375C
742.626	0.8	747113	WORD_OFF	n/a	n/a	HALLWAY	Building	5	7	[0, 0, 0]	n/a	catFR1	2	R1375C
743.426	1.6	747912	WORD	n/a	wordpools/wordpool_categorized_EN.txt	FLOOR	Building	6	7	[0, 0, 0]	n/a	catFR1	2	R1375C
745.026	0.816	749524	WORD_OFF	n/a	n/a	FLOOR	Building	6	7	[0, 0, 0]	n/a	catFR1	2	R1375C
745.842	1.6	750337	WORD	n/a	wordpools/wordpool_categorized_EN.txt	BLOUSE	Clothing	7	7	[0, 0, 0]	n/a	catFR1	2	R1375C
747.443	0.999	751935	WORD_OFF	n/a	n/a	BLOUSE	Clothing	7	7	[0, 0, 0]	n/a	catFR1	2	R1375C
748.442	1.6	752927	WORD	n/a	wordpools/wordpool_categorized_EN.txt	SHORTS	Clothing	8	7	[0, 0, 0]	n/a	catFR1	2	R1375C
750.043	0.766	754539	WORD_OFF	n/a	n/a	SHORTS	Clothing	8	7	[0, 0, 0]	n/a	catFR1	2	R1375C
750.809	1.6	755297	WORD	n/a	wordpools/wordpool_categorized_EN.txt	TULIP	Flowers	9	7	[0, 0, 0]	n/a	catFR1	2	R1375C
752.426	0.867	756922	WORD_OFF	n/a	n/a	TULIP	Flowers	9	7	[0, 0, 0]	n/a	catFR1	2	R1375C
753.293	1.6	757790	WORD	n/a	wordpools/wordpool_categorized_EN.txt	MARIGOLD	Flowers	10	7	[0, 0, 0]	n/a	catFR1	2	R1375C
754.91	0.832	759402	WORD_OFF	n/a	n/a	MARIGOLD	Flowers	10	7	[0, 0, 0]	n/a	catFR1	2	R1375C
755.742	1.6	760229	WORD	n/a	wordpools/wordpool_categorized_EN.txt	STAIRS	Building	11	7	[0, 0, 0]	n/a	catFR1	2	R1375C
757.342	0.933	761827	WORD_OFF	n/a	n/a	STAIRS	Building	11	7	[0, 0, 0]	n/a	catFR1	2	R1375C
758.275	1.6	762764	WORD	n/a	wordpools/wordpool_categorized_EN.txt	WALL	Building	12	7	[0, 0, 0]	n/a	catFR1	2	R1375C
759.876	0.001	764362	WORD_OFF	n/a	n/a	WALL	Building	12	7	[0, 0, 0]	n/a	catFR1	2	R1375C
759.877	0.0	764362	ENCODING_END	n/a	n/a	n/a	n/a	-999	7	[0, 0, 0]	n/a	catFR1	2	R1375C
759.876	0.002	764366	PROB	8.216	n/a	n/a	n/a	-999	7	[6, 3, 5]	14.0	catFR1	2	R1375C
759.878	0.0	764368	START	n/a	n/a	n/a	n/a	-999	7	[-999, -999, -999]	n/a	catFR1	2	R1375C
759.878	8.232	764376	DISTRACT_START	n/a	n/a	n/a	n/a	-999	7	[0, 0, 0]	n/a	catFR1	2	R1375C
768.11	8.016	772600	PROB	7.999	n/a	n/a	n/a	-999	7	[6, 5, 8]	19.0	catFR1	2	R1375C
776.126	4.466	780615	PROB	4.45	n/a	n/a	n/a	-999	7	[2, 4, 8]	14.0	catFR1	2	R1375C
780.592	0.0	785081	STOP	n/a	n/a	n/a	n/a	-999	7	[-999, -999, -999]	n/a	catFR1	2	R1375C
780.592	1.384	785084	DISTRACT_END	n/a	n/a	n/a	n/a	-999	7	[0, 0, 0]	n/a	catFR1	2	R1375C
781.976	2.545	786462	REC_START	n/a	n/a	n/a	n/a	-999	7	[0, 0, 0]	n/a	catFR1	2	R1375C
784.521	0.627	789010	REC_WORD	2.545	n/a	PANTS	Clothing	1	7	[0, 0, 0]	n/a	catFR1	2	R1375C
785.148	0.788	789637	REC_WORD	3.172	n/a	SOCKS	Clothing	2	7	[0, 0, 0]	n/a	catFR1	2	R1375C
785.936	0.601	790425	REC_WORD	3.96	n/a	ROSE	Flowers	3	7	[0, 0, 0]	n/a	catFR1	2	R1375C
786.537	1.709	791026	REC_WORD	4.561	n/a	VIOLET	Flowers	4	7	[0, 0, 0]	n/a	catFR1	2	R1375C
788.246	23.98	792735	REC_WORD	6.27	n/a	FLOOR	Building	6	7	[0, 0, 0]	n/a	catFR1	2	R1375C
812.226	1.383	816718	REC_END	n/a	n/a	n/a	n/a	-999	7	[0, 0, 0]	n/a	catFR1	2	R1375C
813.609	10.0	818096	COUNTDOWN_START	n/a	n/a	n/a	n/a	-999	8	[0, 0, 0]	n/a	catFR1	2	R1375C
823.96	0.0	828443	COUNTDOWN_END	n/a	n/a	n/a	n/a	-999	8	[0, 0, 0]	n/a	catFR1	2	R1375C
823.96	2.016	828443	ENCODING_START	n/a	n/a	n/a	n/a	-999	8	[0, 0, 0]	n/a	catFR1	2	R1375C
825.976	1.6	830468	WORD	n/a	wordpools/wordpool_categorized_EN.txt	ISLAND	Landscapes	1	8	[0, 0, 0]	n/a	catFR1	2	R1375C
827.593	0.832	832080	WORD_OFF	n/a	n/a	ISLAND	Landscapes	1	8	[0, 0, 0]	n/a	catFR1	2	R1375C
828.425	1.6	832907	WORD	n/a	wordpools/wordpool_categorized_EN.txt	MOUNTAIN	Landscapes	2	8	[0, 0, 0]	n/a	catFR1	2	R1375C
830.043	0.917	834533	WORD_OFF	n/a	n/a	MOUNTAIN	Landscapes	2	8	[0, 0, 0]	n/a	catFR1	2	R1375C
830.96	1.6	835442	WORD	n/a	wordpools/wordpool_categorized_EN.txt	MOTORCYCLE	Vehicles	3	8	[0, 0, 0]	n/a	catFR1	2	R1375C
832.576	0.9	837068	WORD_OFF	n/a	n/a	MOTORCYCLE	Vehicles	3	8	[0, 0, 0]	n/a	catFR1	2	R1375C
833.476	1.6	837963	WORD	n/a	wordpools/wordpool_categorized_EN.txt	BIKE	Vehicles	4	8	[0, 0, 0]	n/a	catFR1	2	R1375C
835.093	0.95	839575	WORD_OFF	n/a	n/a	BIKE	Vehicles	4	8	[0, 0, 0]	n/a	catFR1	2	R1375C
836.043	1.6	840526	WORD	n/a	wordpools/wordpool_categorized_EN.txt	ROBIN	Birds	5	8	[0, 0, 0]	n/a	catFR1	2	R1375C
837.643	0.867	842124	WORD_OFF	n/a	n/a	ROBIN	Birds	5	8	[0, 0, 0]	n/a	catFR1	2	R1375C
838.51	1.6	842992	WORD	n/a	wordpools/wordpool_categorized_EN.txt	HAWK	Birds	6	8	[0, 0, 0]	n/a	catFR1	2	R1375C
840.11	0.949	844590	WORD_OFF	n/a	n/a	HAWK	Birds	6	8	[0, 0, 0]	n/a	catFR1	2	R1375C
841.059	1.6	845541	WORD	n/a	wordpools/wordpool_categorized_EN.txt	TRUCK	Vehicles	7	8	[0, 0, 0]	n/a	catFR1	2	R1375C
842.659	0.834	847139	WORD_OFF	n/a	n/a	TRUCK	Vehicles	7	8	[0, 0, 0]	n/a	catFR1	2	R1375C
843.493	1.6	847980	WORD	n/a	wordpools/wordpool_categorized_EN.txt	BOAT	Vehicles	8	8	[0, 0, 0]	n/a	catFR1	2	R1375C
845.109	0.851	849592	WORD_OFF	n/a	n/a	BOAT	Vehicles	8	8	[0, 0, 0]	n/a	catFR1	2	R1375C
845.96	1.6	850446	WORD	n/a	wordpools/wordpool_categorized_EN.txt	PIGEON	Birds	9	8	[0, 0, 0]	n/a	catFR1	2	R1375C
847.576	0.883	852058	WORD_OFF	n/a	n/a	PIGEON	Birds	9	8	[0, 0, 0]	n/a	catFR1	2	R1375C
848.459	1.6	852940	WORD	n/a	wordpools/wordpool_categorized_EN.txt	SPARROW	Birds	10	8	[0, 0, 0]	n/a	catFR1	2	R1375C
850.076	0.783	854565	WORD_OFF	n/a	n/a	SPARROW	Birds	10	8	[0, 0, 0]	n/a	catFR1	2	R1375C
850.859	1.6	855351	WORD	n/a	wordpools/wordpool_categorized_EN.txt	OCEAN	Landscapes	11	8	[0, 0, 0]	n/a	catFR1	2	R1375C
852.459	0.984	856949	WORD_OFF	n/a	n/a	OCEAN	Landscapes	11	8	[0, 0, 0]	n/a	catFR1	2	R1375C
853.443	1.6	857927	WORD	n/a	wordpools/wordpool_categorized_EN.txt	RIVER	Landscapes	12	8	[0, 0, 0]	n/a	catFR1	2	R1375C
855.059	0.002	859539	WORD_OFF	n/a	n/a	RIVER	Landscapes	12	8	[0, 0, 0]	n/a	catFR1	2	R1375C
855.061	0.001	859546	START	n/a	n/a	n/a	n/a	-999	8	[-999, -999, -999]	n/a	catFR1	2	R1375C
855.062	0.0	859547	PROB	5.066	n/a	n/a	n/a	-999	8	[8, 1, 8]	17.0	catFR1	2	R1375C
855.061	0.0	859553	ENCODING_END	n/a	n/a	n/a	n/a	-999	8	[0, 0, 0]	n/a	catFR1	2	R1375C
855.061	5.082	859553	DISTRACT_START	n/a	n/a	n/a	n/a	-999	8	[0, 0, 0]	n/a	catFR1	2	R1375C
860.143	3.283	864628	PROB	3.266	n/a	n/a	n/a	-999	8	[3, 5, 7]	15.0	catFR1	2	R1375C
863.426	3.75	867911	PROB	3.733	n/a	n/a	n/a	-999	8	[1, 8, 7]	16.0	catFR1	2	R1375C
867.176	8.649	871660	PROB	8.633	n/a	n/a	n/a	-999	8	[3, 3, 5]	11.0	catFR1	2	R1375C
875.825	0.0	880309	STOP	n/a	n/a	n/a	n/a	-999	8	[-999, -999, -999]	n/a	catFR1	2	R1375C
875.825	1.117	880316	DISTRACT_END	n/a	n/a	n/a	n/a	-999	8	[0, 0, 0]	n/a	catFR1	2	R1375C
876.942	2.302	881432	REC_START	n/a	n/a	n/a	n/a	-999	8	[0, 0, 0]	n/a	catFR1	2	R1375C
879.244	2.132	883728	REC_WORD_VV	2.302	n/a	<>	n/a	-999	8	[0, 0, 0]	n/a	catFR1	2	R1375C
881.376	0.917	885860	REC_WORD	4.434	n/a	ISLAND	Landscapes	1	8	[0, 0, 0]	n/a	catFR1	2	R1375C
882.293	3.426	886777	REC_WORD	5.351	n/a	MOUNTAIN	Landscapes	2	8	[0, 0, 0]	n/a	catFR1	2	R1375C
885.719	1.592	890203	REC_WORD	8.777	n/a	MOTORCYCLE	Vehicles	3	8	[0, 0, 0]	n/a	catFR1	2	R1375C
887.311	2.224	891794	REC_WORD	10.369	n/a	BIKE	Vehicles	4	8	[0, 0, 0]	n/a	catFR1	2	R1375C
889.535	17.625	894018	REC_WORD	12.593	n/a	OCEAN	Landscapes	11	8	[0, 0, 0]	n/a	catFR1	2	R1375C
907.16	1.416	911647	REC_END	n/a	n/a	n/a	n/a	-999	8	[0, 0, 0]	n/a	catFR1	2	R1375C
908.576	10.0	913066	COUNTDOWN_START	n/a	n/a	n/a	n/a	-999	9	[0, 0, 0]	n/a	catFR1	2	R1375C
918.927	0.0	923413	COUNTDOWN_END	n/a	n/a	n/a	n/a	-999	9	[0, 0, 0]	n/a	catFR1	2	R1375C
918.927	1.933	923413	ENCODING_START	n/a	n/a	n/a	n/a	-999	9	[0, 0, 0]	n/a	catFR1	2	R1375C
920.86	1.6	925342	WORD	n/a	wordpools/wordpool_categorized_EN.txt	DRYER	Appliances	1	9	[0, 0, 0]	n/a	catFR1	2	R1375C
922.476	0.817	926954	WORD_OFF	n/a	n/a	DRYER	Appliances	1	9	[0, 0, 0]	n/a	catFR1	2	R1375C
923.293	1.6	927780	WORD	n/a	wordpools/wordpool_categorized_EN.txt	TOASTER	Appliances	2	9	[0, 0, 0]	n/a	catFR1	2	R1375C
924.893	0.816	929379	WORD_OFF	n/a	n/a	TOASTER	Appliances	2	9	[0, 0, 0]	n/a	catFR1	2	R1375C
925.709	1.6	930192	WORD	n/a	wordpools/wordpool_categorized_EN.txt	CELLO	Instruments	3	9	[0, 0, 0]	n/a	catFR1	2	R1375C
927.309	0.916	931790	WORD_OFF	n/a	n/a	CELLO	Instruments	3	9	[0, 0, 0]	n/a	catFR1	2	R1375C
928.225	1.6	932713	WORD	n/a	wordpools/wordpool_categorized_EN.txt	ORGAN	Instruments	4	9	[0, 0, 0]	n/a	catFR1	2	R1375C
929.826	0.934	934311	WORD_OFF	n/a	n/a	ORGAN	Instruments	4	9	[0, 0, 0]	n/a	catFR1	2	R1375C
930.76	1.6	935248	WORD	n/a	wordpools/wordpool_categorized_EN.txt	WINDOW	Building	5	9	[0, 0, 0]	n/a	catFR1	2	R1375C
932.36	1.015	936846	WORD_OFF	n/a	n/a	WINDOW	Building	5	9	[0, 0, 0]	n/a	catFR1	2	R1375C
933.375	1.6	937852	WORD	n/a	wordpools/wordpool_categorized_EN.txt	BATHROOM	Building	6	9	[0, 0, 0]	n/a	catFR1	2	R1375C
934.975	0.967	939464	WORD_OFF	n/a	n/a	BATHROOM	Building	6	9	[0, 0, 0]	n/a	catFR1	2	R1375C
935.942	1.6	940428	WORD	n/a	wordpools/wordpool_categorized_EN.txt	VIOLIN	Instruments	7	9	[0, 0, 0]	n/a	catFR1	2	R1375C
937.543	0.866	942027	WORD_OFF	n/a	n/a	VIOLIN	Instruments	7	9	[0, 0, 0]	n/a	catFR1	2	R1375C
938.409	1.6	942895	WORD	n/a	wordpools/wordpool_categorized_EN.txt	BANJO	Instruments	8	9	[0, 0, 0]	n/a	catFR1	2	R1375C
940.025	0.967	944507	WORD_OFF	n/a	n/a	BANJO	Instruments	8	9	[0, 0, 0]	n/a	catFR1	2	R1375C
940.992	1.6	945471	WORD	n/a	wordpools/wordpool_categorized_EN.txt	IRON	Appliances	9	9	[0, 0, 0]	n/a	catFR1	2	R1375C
942.592	0.867	947069	WORD_OFF	n/a	n/a	IRON	Appliances	9	9	[0, 0, 0]	n/a	catFR1	2	R1375C
943.459	1.6	947937	WORD	n/a	wordpools/wordpool_categorized_EN.txt	REFRIGERATOR	Appliances	10	9	[0, 0, 0]	n/a	catFR1	2	R1375C
945.076	0.783	949563	WORD_OFF	n/a	n/a	REFRIGERATOR	Appliances	10	9	[0, 0, 0]	n/a	catFR1	2	R1375C
945.859	1.6	950335	WORD	n/a	wordpools/wordpool_categorized_EN.txt	ROOF	Building	11	9	[0, 0, 0]	n/a	catFR1	2	R1375C
947.459	0.834	951947	WORD_OFF	n/a	n/a	ROOF	Building	11	9	[0, 0, 0]	n/a	catFR1	2	R1375C
948.293	1.6	952773	WORD	n/a	wordpools/wordpool_categorized_EN.txt	ATTIC	Building	12	9	[0, 0, 0]	n/a	catFR1	2	R1375C
949.893	0.002	954372	WORD_OFF	n/a	n/a	ATTIC	Building	12	9	[0, 0, 0]	n/a	catFR1	2	R1375C
949.895	0.0	954372	ENCODING_END	n/a	n/a	n/a	n/a	-999	9	[0, 0, 0]	n/a	catFR1	2	R1375C
949.895	0.0	954372	DISTRACT_START	n/a	n/a	n/a	n/a	-999	9	[0, 0, 0]	n/a	catFR1	2	R1375C
949.895	0.001	954375	START	n/a	n/a	n/a	n/a	-999	9	[-999, -999, -999]	n/a	catFR1	2	R1375C
949.896	7.464	954376	PROB	7.449	n/a	n/a	n/a	-999	9	[6, 2, 3]	11.0	catFR1	2	R1375C
957.36	4.333	961840	PROB	4.316	n/a	n/a	n/a	-999	9	[4, 3, 3]	10.0	catFR1	2	R1375C
961.693	2.036	966173	PROB	2.016	n/a	n/a	n/a	-999	9	[6, 2, 6]	14.0	catFR1	2	R1375C
963.729	4.13	968209	PROB	4.116	n/a	n/a	n/a	-999	9	[6, 8, 5]	19.0	catFR1	2	R1375C
967.859	3.817	972338	PROB	3.799	n/a	n/a	n/a	-999	9	[4, 1, 8]	13.0	catFR1	2	R1375C
971.676	0.0	976154	DISTRACT_END	n/a	n/a	n/a	n/a	-999	9	[0, 0, 0]	n/a	catFR1	2	R1375C
971.676	1.332	976155	STOP	n/a	n/a	n/a	n/a	-999	9	[-999, -999, -999]	n/a	catFR1	2	R1375C
973.008	6.02	977491	REC_START	n/a	n/a	n/a	n/a	-999	9	[0, 0, 0]	n/a	catFR1	2	R1375C
979.028	2.601	983507	REC_WORD	6.02	n/a	VIOLIN	Instruments	7	9	[0, 0, 0]	n/a	catFR1	2	R1375C
981.629	0.839	986108	REC_WORD_VV	8.621	n/a	<>	n/a	-999	9	[0, 0, 0]	n/a	catFR1	2	R1375C
982.468	5.764	986947	REC_WORD	9.46	n/a	CELLO	Instruments	3	9	[0, 0, 0]	n/a	catFR1	2	R1375C
988.232	13.73	992710	REC_WORD	15.224	n/a	TOASTER	Appliances	2	9	[0, 0, 0]	n/a	catFR1	2	R1375C
1001.962	1.275	1006440	REC_WORD	28.954	n/a	ROBIN	Birds	-999	9	[0, 0, 0]	n/a	catFR1	2	R1375C
1003.237	1.223	1007719	REC_END	n/a	n/a	n/a	n/a	-999	9	[0, 0, 0]	n/a	catFR1	2	R1375C
1004.46	10.0	1008945	COUNTDOWN_START	n/a	n/a	n/a	n/a	-999	10	[0, 0, 0]	n/a	catFR1	2	R1375C
1014.81	0.001	1019292	COUNTDOWN_END	n/a	n/a	n/a	n/a	-999	10	[0, 0, 0]	n/a	catFR1	2	R1375C
1014.811	2.015	1019292	ENCODING_START	n/a	n/a	n/a	n/a	-999	10	[0, 0, 0]	n/a	catFR1	2	R1375C
1016.826	1.6	1021304	WORD	n/a	wordpools/wordpool_categorized_EN.txt	FINGERS	Bodyparts	1	10	[0, 0, 0]	n/a	catFR1	2	R1375C
1018.443	0.95	1022916	WORD_OFF	n/a	n/a	FINGERS	Bodyparts	1	10	[0, 0, 0]	n/a	catFR1	2	R1375C
1019.393	1.6	1023867	WORD	n/a	wordpools/wordpool_categorized_EN.txt	KNEE	Bodyparts	2	10	[0, 0, 0]	n/a	catFR1	2	R1375C
1021.009	0.816	1025492	WORD_OFF	n/a	n/a	KNEE	Bodyparts	2	10	[0, 0, 0]	n/a	catFR1	2	R1375C
1021.825	1.6	1026305	WORD	n/a	wordpools/wordpool_categorized_EN.txt	DISHWASHER	Appliances	3	10	[0, 0, 0]	n/a	catFR1	2	R1375C
1023.442	0.967	1027917	WORD_OFF	n/a	n/a	DISHWASHER	Appliances	3	10	[0, 0, 0]	n/a	catFR1	2	R1375C
1024.409	1.6	1028882	WORD	n/a	wordpools/wordpool_categorized_EN.txt	VACUUM	Appliances	4	10	[0, 0, 0]	n/a	catFR1	2	R1375C
1026.009	0.999	1030480	WORD_OFF	n/a	n/a	VACUUM	Appliances	4	10	[0, 0, 0]	n/a	catFR1	2	R1375C
1027.008	1.6	1031486	WORD	n/a	wordpools/wordpool_categorized_EN.txt	PEAS	Vegetables	5	10	[0, 0, 0]	n/a	catFR1	2	R1375C
1028.609	0.783	1033084	WORD_OFF	n/a	n/a	PEAS	Vegetables	5	10	[0, 0, 0]	n/a	catFR1	2	R1375C
1029.392	1.6	1033869	WORD	n/a	wordpools/wordpool_categorized_EN.txt	CABBAGE	Vegetables	6	10	[0, 0, 0]	n/a	catFR1	2	R1375C
1030.992	0.984	1035467	WORD_OFF	n/a	n/a	CABBAGE	Vegetables	6	10	[0, 0, 0]	n/a	catFR1	2	R1375C
1031.976	1.6	1036459	WORD	n/a	wordpools/wordpool_categorized_EN.txt	BLENDER	Appliances	7	10	[0, 0, 0]	n/a	catFR1	2	R1375C
1033.576	0.849	1038058	WORD_OFF	n/a	n/a	BLENDER	Appliances	7	10	[0, 0, 0]	n/a	catFR1	2	R1375C
1034.425	1.6	1038898	WORD	n/a	wordpools/wordpool_categorized_EN.txt	OVEN	Appliances	8	10	[0, 0, 0]	n/a	catFR1	2	R1375C
1036.025	0.835	1040496	WORD_OFF	n/a	n/a	OVEN	Appliances	8	10	[0, 0, 0]	n/a	catFR1	2	R1375C
1036.86	1.6	1041337	WORD	n/a	wordpools/wordpool_categorized_EN.txt	HAND	Bodyparts	9	10	[0, 0, 0]	n/a	catFR1	2	R1375C
1038.46	0.833	1042935	WORD_OFF	n/a	n/a	HAND	Bodyparts	9	10	[0, 0, 0]	n/a	catFR1	2	R1375C
1039.293	1.6	1043775	WORD	n/a	wordpools/wordpool_categorized_EN.txt	ELBOW	Bodyparts	10	10	[0, 0, 0]	n/a	catFR1	2	R1375C
1040.893	0.95	1045374	WORD_OFF	n/a	n/a	ELBOW	Bodyparts	10	10	[0, 0, 0]	n/a	catFR1	2	R1375C
1041.843	1.6	1046324	WORD	n/a	wordpools/wordpool_categorized_EN.txt	LETTUCE	Vegetables	11	10	[0, 0, 0]	n/a	catFR1	2	R1375C
1043.459	0.934	1047936	WORD_OFF	n/a	n/a	LETTUCE	Vegetables	11	10	[0, 0, 0]	n/a	catFR1	2	R1375C
1044.393	1.6	1048873	WORD	n/a	wordpools/wordpool_categorized_EN.txt	POTATO	Vegetables	12	10	[0, 0, 0]	n/a	catFR1	2	R1375C
1045.994	0.001	1050469	PROB	4.432	n/a	n/a	n/a	-999	10	[6, 8, 1]	15.0	catFR1	2	R1375C
1045.995	0.0	1050470	START	n/a	n/a	n/a	n/a	-999	10	[-999, -999, -999]	n/a	catFR1	2	R1375C
1045.993	0.002	1050471	WORD_OFF	n/a	n/a	POTATO	Vegetables	12	10	[0, 0, 0]	n/a	catFR1	2	R1375C
1045.995	0.0	1050471	ENCODING_END	n/a	n/a	n/a	n/a	-999	10	[0, 0, 0]	n/a	catFR1	2	R1375C
1045.995	4.448	1050471	DISTRACT_START	n/a	n/a	n/a	n/a	-999	10	[0, 0, 0]	n/a	catFR1	2	R1375C
1050.443	2.366	1054918	PROB	2.349	n/a	n/a	n/a	-999	10	[5, 7, 7]	19.0	catFR1	2	R1375C
1052.809	7.868	1057284	PROB	7.85	n/a	n/a	n/a	-999	10	[2, 2, 5]	9.0	catFR1	2	R1375C
1060.677	2.882	1065152	PROB	2.866	n/a	n/a	n/a	-999	10	[5, 5, 2]	12.0	catFR1	2	R1375C
1063.559	6.55	1068033	PROB	6.533	n/a	n/a	n/a	-999	10	[7, 7, 8]	22.0	catFR1	2	R1375C
1070.109	0.0	1074583	DISTRACT_END	n/a	n/a	n/a	n/a	-999	10	[0, 0, 0]	n/a	catFR1	2	R1375C
1070.109	1.317	1074583	STOP	n/a	n/a	n/a	n/a	-999	10	[-999, -999, -999]	n/a	catFR1	2	R1375C
1071.426	15.154	1075905	REC_START	n/a	n/a	n/a	n/a	-999	10	[0, 0, 0]	n/a	catFR1	2	R1375C
1086.58	1.0	1091053	REC_WORD_VV	15.154	n/a	<>	n/a	-999	10	[0, 0, 0]	n/a	catFR1	2	R1375C
1087.58	1.0	1092053	REC_WORD_VV	16.154	n/a	<>	n/a	-999	10	[0, 0, 0]	n/a	catFR1	2	R1375C
1088.58	1.0	1093053	REC_WORD_VV	17.154	n/a	<>	n/a	-999	10	[0, 0, 0]	n/a	catFR1	2	R1375C
1089.58	1.0	1094053	REC_WORD_VV	18.154	n/a	<>	n/a	-999	10	[0, 0, 0]	n/a	catFR1	2	R1375C
1090.58	11.093	1095053	REC_WORD_VV	19.154	n/a	<>	n/a	-999	10	[0, 0, 0]	n/a	catFR1	2	R1375C
1101.673	5.97	1106147	REC_END	n/a	n/a	n/a	n/a	-999	10	[0, 0, 0]	n/a	catFR1	2	R1375C
1107.643	10.0	1112113	COUNTDOWN_START	n/a	n/a	n/a	n/a	-999	11	[0, 0, 0]	n/a	catFR1	2	R1375C
1117.994	0.0	1122460	COUNTDOWN_END	n/a	n/a	n/a	n/a	-999	11	[0, 0, 0]	n/a	catFR1	2	R1375C
1117.994	1.965	1122474	ENCODING_START	n/a	n/a	n/a	n/a	-999	11	[0, 0, 0]	n/a	catFR1	2	R1375C
1119.959	1.6	1124431	WORD	n/a	wordpools/wordpool_categorized_EN.txt	BUTTERFLY	Insects	1	11	[0, 0, 0]	n/a	catFR1	2	R1375C
1121.56	0.915	1126029	WORD_OFF	n/a	n/a	BUTTERFLY	Insects	1	11	[0, 0, 0]	n/a	catFR1	2	R1375C
1122.475	1.6	1126952	WORD	n/a	wordpools/wordpool_categorized_EN.txt	BEE	Insects	2	11	[0, 0, 0]	n/a	catFR1	2	R1375C
1124.076	0.934	1128550	WORD_OFF	n/a	n/a	BEE	Insects	2	11	[0, 0, 0]	n/a	catFR1	2	R1375C
1125.01	1.6	1129487	WORD	n/a	wordpools/wordpool_categorized_EN.txt	SOFA	Furniture	3	11	[0, 0, 0]	n/a	catFR1	2	R1375C
1126.626	0.85	1131099	WORD_OFF	n/a	n/a	SOFA	Furniture	3	11	[0, 0, 0]	n/a	catFR1	2	R1375C
1127.476	1.6	1131953	WORD	n/a	wordpools/wordpool_categorized_EN.txt	CHAIR	Furniture	4	11	[0, 0, 0]	n/a	catFR1	2	R1375C
1129.093	0.832	1133565	WORD_OFF	n/a	n/a	CHAIR	Furniture	4	11	[0, 0, 0]	n/a	catFR1	2	R1375C
1129.925	1.6	1134392	WORD	n/a	wordpools/wordpool_categorized_EN.txt	BINDER	Officesupplies	5	11	[0, 0, 0]	n/a	catFR1	2	R1375C
1131.526	0.916	1135992	WORD_OFF	n/a	n/a	BINDER	Officesupplies	5	11	[0, 0, 0]	n/a	catFR1	2	R1375C
1132.442	1.6	1136913	WORD	n/a	wordpools/wordpool_categorized_EN.txt	NOTEBOOK	Officesupplies	6	11	[0, 0, 0]	n/a	catFR1	2	R1375C
1134.043	0.9	1138511	WORD_OFF	n/a	n/a	NOTEBOOK	Officesupplies	6	11	[0, 0, 0]	n/a	catFR1	2	R1375C
1134.943	1.6	1139421	WORD	n/a	wordpools/wordpool_categorized_EN.txt	MOTH	Insects	7	11	[0, 0, 0]	n/a	catFR1	2	R1375C
1136.543	0.967	1141019	WORD_OFF	n/a	n/a	MOTH	Insects	7	11	[0, 0, 0]	n/a	catFR1	2	R1375C
1137.51	1.6	1141983	WORD	n/a	wordpools/wordpool_categorized_EN.txt	BEETLE	Insects	8	11	[0, 0, 0]	n/a	catFR1	2	R1375C
1139.11	0.916	1143582	WORD_OFF	n/a	n/a	BEETLE	Insects	8	11	[0, 0, 0]	n/a	catFR1	2	R1375C
1140.026	1.6	1144491	WORD	n/a	wordpools/wordpool_categorized_EN.txt	GLUE	Officesupplies	9	11	[0, 0, 0]	n/a	catFR1	2	R1375C
1141.626	0.917	1146103	WORD_OFF	n/a	n/a	GLUE	Officesupplies	9	11	[0, 0, 0]	n/a	catFR1	2	R1375C
1142.543	1.6	1147012	WORD	n/a	wordpools/wordpool_categorized_EN.txt	STAPLER	Officesupplies	10	11	[0, 0, 0]	n/a	catFR1	2	R1375C
1144.159	0.834	1148624	WORD_OFF	n/a	n/a	STAPLER	Officesupplies	10	11	[0, 0, 0]	n/a	catFR1	2	R1375C
1144.993	1.6	1149465	WORD	n/a	wordpools/wordpool_categorized_EN.txt	COUCH	Furniture	11	11	[0, 0, 0]	n/a	catFR1	2	R1375C
1146.609	0.951	1151077	WORD_OFF	n/a	n/a	COUCH	Furniture	11	11	[0, 0, 0]	n/a	catFR1	2	R1375C
1147.56	1.6	1152027	WORD	n/a	wordpools/wordpool_categorized_EN.txt	NIGHTSTAND	Furniture	12	11	[0, 0, 0]	n/a	catFR1	2	R1375C
1149.176	0.0	1153639	WORD_OFF	n/a	n/a	NIGHTSTAND	Furniture	12	11	[0, 0, 0]	n/a	catFR1	2	R1375C
1149.176	0.002	1153646	PROB	2.883	n/a	n/a	n/a	-999	11	[3, 4, 3]	10.0	catFR1	2	R1375C
1149.178	0.0	1153648	START	n/a	n/a	n/a	n/a	-999	11	[-999, -999, -999]	n/a	catFR1	2	R1375C
1149.178	0.0	1153653	ENCODING_END	n/a	n/a	n/a	n/a	-999	11	[0, 0, 0]	n/a	catFR1	2	R1375C
1149.178	2.899	1153653	DISTRACT_START	n/a	n/a	n/a	n/a	-999	11	[0, 0, 0]	n/a	catFR1	2	R1375C
1152.077	3.083	1156547	PROB	3.066	n/a	n/a	n/a	-999	11	[7, 4, 3]	14.0	catFR1	2	R1375C
1155.16	15.166	1159630	PROB	15.149	n/a	n/a	n/a	-999	11	[8, 8, 7]	23.0	catFR1	2	R1375C
1170.326	0.0	1174795	STOP	n/a	n/a	n/a	n/a	-999	11	[-999, -999, -999]	n/a	catFR1	2	R1375C
1170.326	1.333	1174802	DISTRACT_END	n/a	n/a	n/a	n/a	-999	11	[0, 0, 0]	n/a	catFR1	2	R1375C
1171.659	1.889	1176125	REC_START	n/a	n/a	n/a	n/a	-999	11	[0, 0, 0]	n/a	catFR1	2	R1375C
1173.548	0.524	1178017	REC_WORD	1.889	n/a	NOTEBOOK	Officesupplies	6	11	[0, 0, 0]	n/a	catFR1	2	R1375C
1174.072	1.558	1178541	REC_WORD	2.413	n/a	STAPLER	Officesupplies	10	11	[0, 0, 0]	n/a	catFR1	2	R1375C
1175.63	0.734	1180099	REC_WORD	3.971	n/a	COUCH	Furniture	11	11	[0, 0, 0]	n/a	catFR1	2	R1375C
1176.364	1.472	1180833	REC_WORD	4.705	n/a	CHAIR	Furniture	4	11	[0, 0, 0]	n/a	catFR1	2	R1375C
1177.836	2.534	1182305	REC_WORD	6.177	n/a	BUTTERFLY	Insects	1	11	[0, 0, 0]	n/a	catFR1	2	R1375C
1180.37	21.51	1184838	REC_WORD	8.711	n/a	BEE	Insects	2	11	[0, 0, 0]	n/a	catFR1	2	R1375C
1201.88	1.145	1206353	REC_END	n/a	n/a	n/a	n/a	-999	11	[0, 0, 0]	n/a	catFR1	2	R1375C
1203.025	10.0	1207497	COUNTDOWN_START	n/a	n/a	n/a	n/a	-999	12	[0, 0, 0]	n/a	catFR1	2	R1375C
1213.376	0.001	1217844	COUNTDOWN_END	n/a	n/a	n/a	n/a	-999	12	[0, 0, 0]	n/a	catFR1	2	R1375C
1213.377	2.117	1217844	ENCODING_START	n/a	n/a	n/a	n/a	-999	12	[0, 0, 0]	n/a	catFR1	2	R1375C
1215.494	1.6	1219966	WORD	n/a	wordpools/wordpool_categorized_EN.txt	TRUMPET	Instruments	1	12	[0, 0, 0]	n/a	catFR1	2	R1375C
1217.093	0.767	1221564	WORD_OFF	n/a	n/a	TRUMPET	Instruments	1	12	[0, 0, 0]	n/a	catFR1	2	R1375C
1217.86	1.6	1222322	WORD	n/a	wordpools/wordpool_categorized_EN.txt	DRUM	Instruments	2	12	[0, 0, 0]	n/a	catFR1	2	R1375C
1219.46	0.815	1223934	WORD_OFF	n/a	n/a	DRUM	Instruments	2	12	[0, 0, 0]	n/a	catFR1	2	R1375C
1220.275	1.6	1224746	WORD	n/a	wordpools/wordpool_categorized_EN.txt	CRICKET	Insects	3	12	[0, 0, 0]	n/a	catFR1	2	R1375C
1221.875	0.934	1226345	WORD_OFF	n/a	n/a	CRICKET	Insects	3	12	[0, 0, 0]	n/a	catFR1	2	R1375C
1222.809	1.6	1227282	WORD	n/a	wordpools/wordpool_categorized_EN.txt	FLY	Insects	4	12	[0, 0, 0]	n/a	catFR1	2	R1375C
1224.409	0.85	1228880	WORD_OFF	n/a	n/a	FLY	Insects	4	12	[0, 0, 0]	n/a	catFR1	2	R1375C
1225.259	1.6	1229720	WORD	n/a	wordpools/wordpool_categorized_EN.txt	CABINET	Furniture	5	12	[0, 0, 0]	n/a	catFR1	2	R1375C
1226.86	0.966	1231332	WORD_OFF	n/a	n/a	CABINET	Furniture	5	12	[0, 0, 0]	n/a	catFR1	2	R1375C
1227.826	1.6	1232297	WORD	n/a	wordpools/wordpool_categorized_EN.txt	BOOKCASE	Furniture	6	12	[0, 0, 0]	n/a	catFR1	2	R1375C
1229.443	0.933	1233909	WORD_OFF	n/a	n/a	BOOKCASE	Furniture	6	12	[0, 0, 0]	n/a	catFR1	2	R1375C
1230.376	1.6	1234846	WORD	n/a	wordpools/wordpool_categorized_EN.txt	BASS	Instruments	7	12	[0, 0, 0]	n/a	catFR1	2	R1375C
1231.976	0.984	1236444	WORD_OFF	n/a	n/a	BASS	Instruments	7	12	[0, 0, 0]	n/a	catFR1	2	R1375C
1232.96	1.6	1237422	WORD	n/a	wordpools/wordpool_categorized_EN.txt	PIANO	Instruments	8	12	[0, 0, 0]	n/a	catFR1	2	R1375C
1234.559	0.766	1239020	WORD_OFF	n/a	n/a	PIANO	Instruments	8	12	[0, 0, 0]	n/a	catFR1	2	R1375C
1235.325	1.6	1239792	WORD	n/a	wordpools/wordpool_categorized_EN.txt	BED	Furniture	9	12	[0, 0, 0]	n/a	catFR1	2	R1375C
1236.926	0.966	1241390	WORD_OFF	n/a	n/a	BED	Furniture	9	12	[0, 0, 0]	n/a	catFR1	2	R1375C
1237.892	1.6	1242354	WORD	n/a	wordpools/wordpool_categorized_EN.txt	DRESSER	Furniture	10	12	[0, 0, 0]	n/a	catFR1	2	R1375C
1239.493	0.783	1243953	WORD_OFF	n/a	n/a	DRESSER	Furniture	10	12	[0, 0, 0]	n/a	catFR1	2	R1375C
1240.276	1.6	1244738	WORD	n/a	wordpools/wordpool_categorized_EN.txt	SPIDER	Insects	11	12	[0, 0, 0]	n/a	catFR1	2	R1375C
1241.876	0.85	1246336	WORD_OFF	n/a	n/a	SPIDER	Insects	11	12	[0, 0, 0]	n/a	catFR1	2	R1375C
1242.726	1.6	1247190	WORD	n/a	wordpools/wordpool_categorized_EN.txt	ANT	Insects	12	12	[0, 0, 0]	n/a	catFR1	2	R1375C
1244.342	0.0	1248802	WORD_OFF	n/a	n/a	ANT	Insects	12	12	[0, 0, 0]	n/a	catFR1	2	R1375C
1244.342	0.002	1248807	PROB	5.9	n/a	n/a	n/a	-999	12	[5, 8, 3]	16.0	catFR1	2	R1375C
1244.344	0.0	1248809	START	n/a	n/a	n/a	n/a	-999	12	[-999, -999, -999]	n/a	catFR1	2	R1375C
1244.344	0.0	1248816	ENCODING_END	n/a	n/a	n/a	n/a	-999	12	[0, 0, 0]	n/a	catFR1	2	R1375C
1244.344	5.916	1248816	DISTRACT_START	n/a	n/a	n/a	n/a	-999	12	[0, 0, 0]	n/a	catFR1	2	R1375C
1250.26	2.734	1254725	PROB	2.716	n/a	n/a	n/a	-999	12	[3, 7, 8]	18.0	catFR1	2	R1375C
1252.994	1.765	1257459	PROB	1.749	n/a	n/a	n/a	-999	12	[6, 7, 4]	17.0	catFR1	2	R1375C
1254.759	2.284	1259224	PROB	2.266	n/a	n/a	n/a	-999	12	[3, 8, 7]	18.0	catFR1	2	R1375C
1257.043	1.617	1261507	PROB	1.599	n/a	n/a	n/a	-999	12	[8, 1, 4]	9.0	catFR1	2	R1375C
1258.66	5.016	1263124	PROB	4.999	n/a	n/a	n/a	-999	12	[5, 8, 2]	15.0	catFR1	2	R1375C
1263.676	2.267	1268140	PROB	2.249	n/a	n/a	n/a	-999	12	[4, 7, 6]	17.0	catFR1	2	R1375C
1265.943	0.0	1270406	DISTRACT_END	n/a	n/a	n/a	n/a	-999	12	[0, 0, 0]	n/a	catFR1	2	R1375C
1265.943	1.2	1270407	STOP	n/a	n/a	n/a	n/a	-999	12	[-999, -999, -999]	n/a	catFR1	2	R1375C
1267.143	1.874	1271605	REC_START	n/a	n/a	n/a	n/a	-999	12	[0, 0, 0]	n/a	catFR1	2	R1375C
1269.017	0.489	1273481	REC_WORD	1.874	n/a	CABINET	Furniture	5	12	[0, 0, 0]	n/a	catFR1	2	R1375C
1269.506	14.259	1273970	REC_WORD	2.363	n/a	DRESSER	Furniture	10	12	[0, 0, 0]	n/a	catFR1	2	R1375C
1283.765	13.616	1288228	REC_WORD	16.622	n/a	SPIDER	Insects	11	12	[0, 0, 0]	n/a	catFR1	2	R1375C
1297.381	0.0	1301847	REC_END	n/a	n/a	n/a	n/a	-999	12	[0, 0, 0]	n/a	catFR1	2	R1375C
