onset	duration	sample	trial_type	response_time	stim_file	item_name	category	serialpos	list	test	answer	experiment	session	subject
0.0	2.833	2738	INSTRUCT_START	n/a	n/a	n/a	n/a	-999	-999	[0, 0, 0]	n/a	catFR1	3	R1497T
2.833	18.916	5574	INSTRUCT_END	n/a	n/a	n/a	n/a	-999	-999	[0, 0, 0]	n/a	catFR1	3	R1497T
21.749	10.35	24492	COUNTDOWN_START	n/a	n/a	n/a	n/a	-999	-999	[0, 0, 0]	n/a	catFR1	3	R1497T
32.099	0.0	34831	COUNTDOWN_END	n/a	n/a	n/a	n/a	-999	-999	[0, 0, 0]	n/a	catFR1	3	R1497T
32.099	1.966	34831	ENCODING_START	n/a	n/a	n/a	n/a	-999	-1	[0, 0, 0]	n/a	catFR1	3	R1497T
34.065	1.6	36801	WORD	n/a	n/a	BED	Furniture	1	-1	[0, 0, 0]	n/a	catFR1	3	R1497T
35.665	0.834	38408	WORD_OFF	n/a	n/a	BED	Furniture	1	-1	[0, 0, 0]	n/a	catFR1	3	R1497T
36.499	1.616	39232	WORD	n/a	n/a	SOFA	Furniture	2	-1	[0, 0, 0]	n/a	catFR1	3	R1497T
38.115	0.917	40853	WORD_OFF	n/a	n/a	SOFA	Furniture	2	-1	[0, 0, 0]	n/a	catFR1	3	R1497T
39.032	1.617	41775	WORD	n/a	n/a	LEMON	Fruit	3	-1	[0, 0, 0]	n/a	catFR1	3	R1497T
40.649	0.916	43382	WORD_OFF	n/a	n/a	LEMON	Fruit	3	-1	[0, 0, 0]	n/a	catFR1	3	R1497T
41.565	1.6	44304	WORD	n/a	n/a	PEACH	Fruit	4	-1	[0, 0, 0]	n/a	catFR1	3	R1497T
43.165	0.916	45897	WORD_OFF	n/a	n/a	PEACH	Fruit	4	-1	[0, 0, 0]	n/a	catFR1	3	R1497T
44.081	1.601	46819	WORD	n/a	n/a	LION	Zoo	5	-1	[0, 0, 0]	n/a	catFR1	3	R1497T
45.682	0.817	48412	WORD_OFF	n/a	n/a	LION	Zoo	5	-1	[0, 0, 0]	n/a	catFR1	3	R1497T
46.499	1.616	49236	WORD	n/a	n/a	PANDA	Zoo	6	-1	[0, 0, 0]	n/a	catFR1	3	R1497T
48.115	1.0	50857	WORD_OFF	n/a	n/a	PANDA	Zoo	6	-1	[0, 0, 0]	n/a	catFR1	3	R1497T
49.115	1.617	51849	WORD	n/a	n/a	DESK	Furniture	7	-1	[0, 0, 0]	n/a	catFR1	3	R1497T
50.732	0.849	53470	WORD_OFF	n/a	n/a	DESK	Furniture	7	-1	[0, 0, 0]	n/a	catFR1	3	R1497T
51.581	1.601	54322	WORD	n/a	n/a	COUCH	Furniture	8	-1	[0, 0, 0]	n/a	catFR1	3	R1497T
53.182	0.834	55915	WORD_OFF	n/a	n/a	COUCH	Furniture	8	-1	[0, 0, 0]	n/a	catFR1	3	R1497T
54.016	1.617	56753	WORD	n/a	n/a	PEAR	Fruit	9	-1	[0, 0, 0]	n/a	catFR1	3	R1497T
55.633	0.783	58374	WORD_OFF	n/a	n/a	PEAR	Fruit	9	-1	[0, 0, 0]	n/a	catFR1	3	R1497T
56.416	1.6	59156	WORD	n/a	n/a	STRAWBERRY	Fruit	10	-1	[0, 0, 0]	n/a	catFR1	3	R1497T
58.016	0.784	60749	WORD_OFF	n/a	n/a	STRAWBERRY	Fruit	10	-1	[0, 0, 0]	n/a	catFR1	3	R1497T
58.8	1.6	61531	WORD	n/a	n/a	ORANGUTAN	Zoo	11	-1	[0, 0, 0]	n/a	catFR1	3	R1497T
60.4	0.849	63138	WORD_OFF	n/a	n/a	ORANGUTAN	Zoo	11	-1	[0, 0, 0]	n/a	catFR1	3	R1497T
61.249	1.601	63990	WORD	n/a	n/a	BEAR	Zoo	12	-1	[0, 0, 0]	n/a	catFR1	3	R1497T
62.85	0.001	65583	WORD_OFF	n/a	n/a	BEAR	Zoo	12	-1	[0, 0, 0]	n/a	catFR1	3	R1497T
62.851	0.0	65583	ENCODING_END	n/a	n/a	n/a	n/a	-999	-1	[0, 0, 0]	n/a	catFR1	3	R1497T
62.851	0.0	65592	START	n/a	n/a	n/a	n/a	-999	-1	[-999, -999, -999]	n/a	catFR1	3	R1497T
62.851	0.0	65592	PROB	5.933	n/a	n/a	n/a	-999	-1	[2, 7, 3]	12.0	catFR1	3	R1497T
62.851	5.949	65597	DISTRACT_START	n/a	n/a	n/a	n/a	-999	-1	[0, 0, 0]	n/a	catFR1	3	R1497T
68.8	8.284	71540	PROB	8.266	n/a	n/a	n/a	-999	-1	[4, 7, 5]	16.0	catFR1	3	R1497T
77.084	4.333	79824	PROB	4.316	n/a	n/a	n/a	-999	-1	[3, 7, 3]	13.0	catFR1	3	R1497T
81.417	5.781	84157	PROB	5.765	n/a	n/a	n/a	-999	-1	[6, 7, 6]	19.0	catFR1	3	R1497T
87.198	0.0	89936	DISTRACT_END	n/a	n/a	n/a	n/a	-999	-1	[0, 0, 0]	n/a	catFR1	3	R1497T
87.198	2.134	89937	STOP	n/a	n/a	n/a	n/a	-999	-1	[-999, -999, -999]	n/a	catFR1	3	R1497T
89.332	2.869	92068	REC_START	n/a	n/a	n/a	n/a	-999	-1	[0, 0, 0]	n/a	catFR1	3	R1497T
92.201	1.652	94940	REC_WORD	2.869	n/a	BED	Furniture	1	-1	[0, 0, 0]	n/a	catFR1	3	R1497T
93.853	2.379	96592	REC_WORD	4.521	n/a	COUCH	Furniture	8	-1	[0, 0, 0]	n/a	catFR1	3	R1497T
96.232	1.127	98971	REC_WORD	6.9	n/a	DESK	Furniture	7	-1	[0, 0, 0]	n/a	catFR1	3	R1497T
97.359	4.44	100098	REC_WORD	8.027	n/a	SOFA	Furniture	2	-1	[0, 0, 0]	n/a	catFR1	3	R1497T
101.799	0.584	104538	REC_WORD_VV	12.467	n/a	<>	n/a	-999	-1	[0, 0, 0]	n/a	catFR1	3	R1497T
102.383	1.002	105122	REC_WORD	13.051	n/a	STRAWBERRY	Fruit	10	-1	[0, 0, 0]	n/a	catFR1	3	R1497T
103.385	3.767	106124	REC_WORD	14.053	n/a	STRAWBERRY	Fruit	10	-1	[0, 0, 0]	n/a	catFR1	3	R1497T
107.152	1.379	109890	REC_WORD	17.82	n/a	ORANGUTAN	Zoo	11	-1	[0, 0, 0]	n/a	catFR1	3	R1497T
108.531	1.089	111269	REC_WORD	19.199	n/a	BEAR	Zoo	12	-1	[0, 0, 0]	n/a	catFR1	3	R1497T
109.62	9.919	112358	REC_WORD	20.288	n/a	LION	Zoo	5	-1	[0, 0, 0]	n/a	catFR1	3	R1497T
119.539	11.044	122267	REC_END	n/a	n/a	n/a	n/a	-999	-1	[0, 0, 0]	n/a	catFR1	3	R1497T
130.583	10.35	133319	COUNTDOWN_START	n/a	n/a	n/a	n/a	-999	1	[0, 0, 0]	n/a	catFR1	3	R1497T
140.933	0.0	143672	COUNTDOWN_END	n/a	n/a	n/a	n/a	-999	1	[0, 0, 0]	n/a	catFR1	3	R1497T
140.933	2.067	143672	ENCODING_START	n/a	n/a	n/a	n/a	-999	1	[0, 0, 0]	n/a	catFR1	3	R1497T
143.0	1.616	145740	WORD	n/a	wordpools/wordpool_categorized_EN.txt	CIDER	Beverages	1	1	[0, 0, 0]	n/a	catFR1	3	R1497T
144.616	0.917	147346	WORD_OFF	n/a	n/a	CIDER	Beverages	1	1	[0, 0, 0]	n/a	catFR1	3	R1497T
145.533	1.617	148268	WORD	n/a	wordpools/wordpool_categorized_EN.txt	LEMONADE	Beverages	2	1	[0, 0, 0]	n/a	catFR1	3	R1497T
147.15	0.766	149875	WORD_OFF	n/a	n/a	LEMONADE	Beverages	2	1	[0, 0, 0]	n/a	catFR1	3	R1497T
147.916	1.6	150644	WORD	n/a	wordpools/wordpool_categorized_EN.txt	CHAIR	Furniture	3	1	[0, 0, 0]	n/a	catFR1	3	R1497T
149.516	0.884	152250	WORD_OFF	n/a	n/a	CHAIR	Furniture	3	1	[0, 0, 0]	n/a	catFR1	3	R1497T
150.4	1.616	153131	WORD	n/a	wordpools/wordpool_categorized_EN.txt	TABLE	Furniture	4	1	[0, 0, 0]	n/a	catFR1	3	R1497T
152.016	0.984	154751	WORD_OFF	n/a	n/a	TABLE	Furniture	4	1	[0, 0, 0]	n/a	catFR1	3	R1497T
153.0	1.6	155729	WORD	n/a	wordpools/wordpool_categorized_EN.txt	ELEPHANT	Zoo	5	1	[0, 0, 0]	n/a	catFR1	3	R1497T
154.6	0.767	157336	WORD_OFF	n/a	n/a	ELEPHANT	Zoo	5	1	[0, 0, 0]	n/a	catFR1	3	R1497T
155.367	1.616	158105	WORD	n/a	wordpools/wordpool_categorized_EN.txt	CHEETAH	Zoo	6	1	[0, 0, 0]	n/a	catFR1	3	R1497T
156.983	0.85	159711	WORD_OFF	n/a	n/a	CHEETAH	Zoo	6	1	[0, 0, 0]	n/a	catFR1	3	R1497T
157.833	1.6	160564	WORD	n/a	wordpools/wordpool_categorized_EN.txt	SHELF	Furniture	7	1	[0, 0, 0]	n/a	catFR1	3	R1497T
159.433	0.966	162170	WORD_OFF	n/a	n/a	SHELF	Furniture	7	1	[0, 0, 0]	n/a	catFR1	3	R1497T
160.399	1.601	163134	WORD	n/a	wordpools/wordpool_categorized_EN.txt	NIGHTSTAND	Furniture	8	1	[0, 0, 0]	n/a	catFR1	3	R1497T
162.0	0.783	164727	WORD_OFF	n/a	n/a	NIGHTSTAND	Furniture	8	1	[0, 0, 0]	n/a	catFR1	3	R1497T
162.783	1.6	165510	WORD	n/a	wordpools/wordpool_categorized_EN.txt	GIRAFFE	Zoo	9	1	[0, 0, 0]	n/a	catFR1	3	R1497T
164.383	0.799	167116	WORD_OFF	n/a	n/a	GIRAFFE	Zoo	9	1	[0, 0, 0]	n/a	catFR1	3	R1497T
165.182	1.601	167913	WORD	n/a	wordpools/wordpool_categorized_EN.txt	ZEBRA	Zoo	10	1	[0, 0, 0]	n/a	catFR1	3	R1497T
166.783	0.767	169520	WORD_OFF	n/a	n/a	ZEBRA	Zoo	10	1	[0, 0, 0]	n/a	catFR1	3	R1497T
167.55	1.616	170274	WORD	n/a	wordpools/wordpool_categorized_EN.txt	COLA	Beverages	11	1	[0, 0, 0]	n/a	catFR1	3	R1497T
169.166	0.984	171895	WORD_OFF	n/a	n/a	COLA	Beverages	11	1	[0, 0, 0]	n/a	catFR1	3	R1497T
170.15	1.616	172887	WORD	n/a	wordpools/wordpool_categorized_EN.txt	TEA	Beverages	12	1	[0, 0, 0]	n/a	catFR1	3	R1497T
171.766	0.002	174494	WORD_OFF	n/a	n/a	TEA	Beverages	12	1	[0, 0, 0]	n/a	catFR1	3	R1497T
171.768	0.0	174494	ENCODING_END	n/a	n/a	n/a	n/a	-999	1	[0, 0, 0]	n/a	catFR1	3	R1497T
171.768	0.0	174494	DISTRACT_START	n/a	n/a	n/a	n/a	-999	1	[0, 0, 0]	n/a	catFR1	3	R1497T
171.767	0.001	174502	PROB	6.065	n/a	n/a	n/a	-999	1	[8, 6, 2]	16.0	catFR1	3	R1497T
171.768	6.081	174503	START	n/a	n/a	n/a	n/a	-999	1	[-999, -999, -999]	n/a	catFR1	3	R1497T
177.849	6.917	180584	PROB	6.898	n/a	n/a	n/a	-999	1	[3, 6, 8]	17.0	catFR1	3	R1497T
184.766	4.433	187500	PROB	4.416	n/a	n/a	n/a	-999	1	[7, 1, 3]	11.0	catFR1	3	R1497T
189.199	3.75	191933	PROB	3.732	n/a	n/a	n/a	-999	1	[6, 2, 3]	11.0	catFR1	3	R1497T
192.949	0.0	195675	DISTRACT_END	n/a	n/a	n/a	n/a	-999	1	[0, 0, 0]	n/a	catFR1	3	R1497T
192.949	2.266	195683	STOP	n/a	n/a	n/a	n/a	-999	1	[-999, -999, -999]	n/a	catFR1	3	R1497T
195.215	11.667	197946	REC_START	n/a	n/a	n/a	n/a	-999	1	[0, 0, 0]	n/a	catFR1	3	R1497T
206.882	4.07	209615	REC_WORD	11.667	n/a	GIRAFFE	Zoo	9	1	[0, 0, 0]	n/a	catFR1	3	R1497T
210.952	1.0	213685	REC_WORD	15.737	n/a	NIGHTSTAND	Furniture	8	1	[0, 0, 0]	n/a	catFR1	3	R1497T
211.952	0.765	214685	REC_WORD	16.737	n/a	NIGHTSTAND	Furniture	8	1	[0, 0, 0]	n/a	catFR1	3	R1497T
212.717	6.116	215450	REC_WORD	17.502	n/a	SHELF	Furniture	7	1	[0, 0, 0]	n/a	catFR1	3	R1497T
218.833	0.951	221566	REC_WORD_VV	23.618	n/a	<>	n/a	-999	1	[0, 0, 0]	n/a	catFR1	3	R1497T
219.784	5.631	222517	REC_WORD	24.569	n/a	TABLE	Furniture	4	1	[0, 0, 0]	n/a	catFR1	3	R1497T
225.415	4.618	228145	REC_END	n/a	n/a	n/a	n/a	-999	1	[0, 0, 0]	n/a	catFR1	3	R1497T
230.033	10.349	232756	COUNTDOWN_START	n/a	n/a	n/a	n/a	-999	2	[0, 0, 0]	n/a	catFR1	3	R1497T
240.382	0.0	243109	COUNTDOWN_END	n/a	n/a	n/a	n/a	-999	2	[0, 0, 0]	n/a	catFR1	3	R1497T
240.382	1.883	243109	ENCODING_START	n/a	n/a	n/a	n/a	-999	2	[0, 0, 0]	n/a	catFR1	3	R1497T
242.265	1.601	244995	WORD	n/a	wordpools/wordpool_categorized_EN.txt	DRESSER	Furniture	1	2	[0, 0, 0]	n/a	catFR1	3	R1497T
243.866	0.767	246588	WORD_OFF	n/a	n/a	DRESSER	Furniture	1	2	[0, 0, 0]	n/a	catFR1	3	R1497T
244.633	1.6	247357	WORD	n/a	wordpools/wordpool_categorized_EN.txt	RECLINER	Furniture	2	2	[0, 0, 0]	n/a	catFR1	3	R1497T
246.233	0.766	248963	WORD_OFF	n/a	n/a	RECLINER	Furniture	2	2	[0, 0, 0]	n/a	catFR1	3	R1497T
246.999	1.601	249732	WORD	n/a	wordpools/wordpool_categorized_EN.txt	STOVE	Appliances	3	2	[0, 0, 0]	n/a	catFR1	3	R1497T
248.6	0.816	251325	WORD_OFF	n/a	n/a	STOVE	Appliances	3	2	[0, 0, 0]	n/a	catFR1	3	R1497T
249.416	1.601	252149	WORD	n/a	wordpools/wordpool_categorized_EN.txt	DRYER	Appliances	4	2	[0, 0, 0]	n/a	catFR1	3	R1497T
251.017	0.983	253742	WORD_OFF	n/a	n/a	DRYER	Appliances	4	2	[0, 0, 0]	n/a	catFR1	3	R1497T
252.0	1.616	254720	WORD	n/a	wordpools/wordpool_categorized_EN.txt	RIVER	Landscapes	5	2	[0, 0, 0]	n/a	catFR1	3	R1497T
253.616	0.884	256340	WORD_OFF	n/a	n/a	RIVER	Landscapes	5	2	[0, 0, 0]	n/a	catFR1	3	R1497T
254.5	1.616	257221	WORD	n/a	wordpools/wordpool_categorized_EN.txt	WOODS	Landscapes	6	2	[0, 0, 0]	n/a	catFR1	3	R1497T
256.116	1.0	258841	WORD_OFF	n/a	n/a	WOODS	Landscapes	6	2	[0, 0, 0]	n/a	catFR1	3	R1497T
257.116	1.617	259847	WORD	n/a	wordpools/wordpool_categorized_EN.txt	CABINET	Furniture	7	2	[0, 0, 0]	n/a	catFR1	3	R1497T
258.733	0.95	261454	WORD_OFF	n/a	n/a	CABINET	Furniture	7	2	[0, 0, 0]	n/a	catFR1	3	R1497T
259.683	1.617	262404	WORD	n/a	wordpools/wordpool_categorized_EN.txt	BOOKCASE	Furniture	8	2	[0, 0, 0]	n/a	catFR1	3	R1497T
261.3	0.833	264025	WORD_OFF	n/a	n/a	BOOKCASE	Furniture	8	2	[0, 0, 0]	n/a	catFR1	3	R1497T
262.133	1.6	264863	WORD	n/a	wordpools/wordpool_categorized_EN.txt	OCEAN	Landscapes	9	2	[0, 0, 0]	n/a	catFR1	3	R1497T
263.733	0.833	266456	WORD_OFF	n/a	n/a	OCEAN	Landscapes	9	2	[0, 0, 0]	n/a	catFR1	3	R1497T
264.566	1.616	267294	WORD	n/a	wordpools/wordpool_categorized_EN.txt	MOUNTAIN	Landscapes	10	2	[0, 0, 0]	n/a	catFR1	3	R1497T
266.182	0.901	268901	WORD_OFF	n/a	n/a	MOUNTAIN	Landscapes	10	2	[0, 0, 0]	n/a	catFR1	3	R1497T
267.083	1.6	269809	WORD	n/a	wordpools/wordpool_categorized_EN.txt	FREEZER	Appliances	11	2	[0, 0, 0]	n/a	catFR1	3	R1497T
268.683	0.801	271402	WORD_OFF	n/a	n/a	FREEZER	Appliances	11	2	[0, 0, 0]	n/a	catFR1	3	R1497T
269.484	1.599	272212	WORD	n/a	wordpools/wordpool_categorized_EN.txt	MIXER	Appliances	12	2	[0, 0, 0]	n/a	catFR1	3	R1497T
271.083	0.001	273805	WORD_OFF	n/a	n/a	MIXER	Appliances	12	2	[0, 0, 0]	n/a	catFR1	3	R1497T
271.084	0.0	273805	ENCODING_END	n/a	n/a	n/a	n/a	-999	2	[0, 0, 0]	n/a	catFR1	3	R1497T
271.084	0.0	273814	START	n/a	n/a	n/a	n/a	-999	2	[-999, -999, -999]	n/a	catFR1	3	R1497T
271.084	0.0	273814	PROB	8.032	n/a	n/a	n/a	-999	2	[8, 4, 5]	17.0	catFR1	3	R1497T
271.084	8.05	273819	DISTRACT_START	n/a	n/a	n/a	n/a	-999	2	[0, 0, 0]	n/a	catFR1	3	R1497T
279.134	6.982	281864	PROB	6.965	n/a	n/a	n/a	-999	2	[5, 7, 8]	17.0	catFR1	3	R1497T
286.116	3.617	288845	PROB	3.6	n/a	n/a	n/a	-999	2	[3, 3, 3]	9.0	catFR1	3	R1497T
289.733	2.752	292462	PROB	2.733	n/a	n/a	n/a	-999	2	[4, 1, 1]	6.0	catFR1	3	R1497T
292.485	0.0	295210	DISTRACT_END	n/a	n/a	n/a	n/a	-999	2	[0, 0, 0]	n/a	catFR1	3	R1497T
292.485	2.014	295214	STOP	n/a	n/a	n/a	n/a	-999	2	[-999, -999, -999]	n/a	catFR1	3	R1497T
294.499	1.622	297216	REC_START	n/a	n/a	n/a	n/a	-999	2	[0, 0, 0]	n/a	catFR1	3	R1497T
296.121	0.923	298850	REC_WORD_VV	1.622	n/a	<>	n/a	-999	2	[0, 0, 0]	n/a	catFR1	3	R1497T
297.044	2.866	299773	REC_WORD	2.545	n/a	DRESSER	Furniture	1	2	[0, 0, 0]	n/a	catFR1	3	R1497T
299.91	1.0	302639	REC_WORD	5.411	n/a	BOOKCASE	Furniture	8	2	[0, 0, 0]	n/a	catFR1	3	R1497T
300.91	3.245	303639	REC_WORD	6.411	n/a	BOOKCASE	Furniture	8	2	[0, 0, 0]	n/a	catFR1	3	R1497T
304.155	1.966	306883	REC_WORD	9.656	n/a	FREEZER	Appliances	11	2	[0, 0, 0]	n/a	catFR1	3	R1497T
306.121	3.047	308849	REC_WORD	11.622	n/a	DRYER	Appliances	4	2	[0, 0, 0]	n/a	catFR1	3	R1497T
309.168	2.196	311896	REC_WORD	14.669	n/a	CABINET	Furniture	7	2	[0, 0, 0]	n/a	catFR1	3	R1497T
311.364	1.349	314092	REC_WORD	16.865	n/a	MOUNTAIN	Landscapes	10	2	[0, 0, 0]	n/a	catFR1	3	R1497T
312.713	11.999	315441	REC_WORD	18.214	n/a	OCEAN	Landscapes	9	2	[0, 0, 0]	n/a	catFR1	3	R1497T
324.712	2.636	327429	REC_END	n/a	n/a	n/a	n/a	-999	2	[0, 0, 0]	n/a	catFR1	3	R1497T
327.348	10.35	330070	COUNTDOWN_START	n/a	n/a	n/a	n/a	-999	3	[0, 0, 0]	n/a	catFR1	3	R1497T
337.698	0.0	340423	COUNTDOWN_END	n/a	n/a	n/a	n/a	-999	3	[0, 0, 0]	n/a	catFR1	3	R1497T
337.698	2.117	340423	ENCODING_START	n/a	n/a	n/a	n/a	-999	3	[0, 0, 0]	n/a	catFR1	3	R1497T
339.815	1.617	342533	WORD	n/a	wordpools/wordpool_categorized_EN.txt	HEADPHONES	Electronics	1	3	[0, 0, 0]	n/a	catFR1	3	R1497T
341.432	0.95	344153	WORD_OFF	n/a	n/a	HEADPHONES	Electronics	1	3	[0, 0, 0]	n/a	catFR1	3	R1497T
342.382	1.616	345103	WORD	n/a	wordpools/wordpool_categorized_EN.txt	MICROWAVE	Electronics	2	3	[0, 0, 0]	n/a	catFR1	3	R1497T
343.998	0.917	346724	WORD_OFF	n/a	n/a	MICROWAVE	Electronics	2	3	[0, 0, 0]	n/a	catFR1	3	R1497T
344.915	1.6	347632	WORD	n/a	wordpools/wordpool_categorized_EN.txt	DOVE	Birds	3	3	[0, 0, 0]	n/a	catFR1	3	R1497T
346.515	1.0	349239	WORD_OFF	n/a	n/a	DOVE	Birds	3	3	[0, 0, 0]	n/a	catFR1	3	R1497T
347.515	1.617	350231	WORD	n/a	wordpools/wordpool_categorized_EN.txt	SPARROW	Birds	4	3	[0, 0, 0]	n/a	catFR1	3	R1497T
349.132	0.8	351852	WORD_OFF	n/a	n/a	SPARROW	Birds	4	3	[0, 0, 0]	n/a	catFR1	3	R1497T
349.932	1.6	352648	WORD	n/a	wordpools/wordpool_categorized_EN.txt	CREEK	Landscapes	5	3	[0, 0, 0]	n/a	catFR1	3	R1497T
351.532	0.85	354255	WORD_OFF	n/a	n/a	CREEK	Landscapes	5	3	[0, 0, 0]	n/a	catFR1	3	R1497T
352.382	1.601	355107	WORD	n/a	wordpools/wordpool_categorized_EN.txt	LAKE	Landscapes	6	3	[0, 0, 0]	n/a	catFR1	3	R1497T
353.983	0.799	356700	WORD_OFF	n/a	n/a	LAKE	Landscapes	6	3	[0, 0, 0]	n/a	catFR1	3	R1497T
354.782	1.601	357496	WORD	n/a	wordpools/wordpool_categorized_EN.txt	CARDINAL	Birds	7	3	[0, 0, 0]	n/a	catFR1	3	R1497T
356.383	0.817	359103	WORD_OFF	n/a	n/a	CARDINAL	Birds	7	3	[0, 0, 0]	n/a	catFR1	3	R1497T
357.2	1.6	359928	WORD	n/a	wordpools/wordpool_categorized_EN.txt	PIGEON	Birds	8	3	[0, 0, 0]	n/a	catFR1	3	R1497T
358.8	0.917	361520	WORD_OFF	n/a	n/a	PIGEON	Birds	8	3	[0, 0, 0]	n/a	catFR1	3	R1497T
359.717	1.599	362442	WORD	n/a	wordpools/wordpool_categorized_EN.txt	FOREST	Landscapes	9	3	[0, 0, 0]	n/a	catFR1	3	R1497T
361.316	0.966	364035	WORD_OFF	n/a	n/a	FOREST	Landscapes	9	3	[0, 0, 0]	n/a	catFR1	3	R1497T
362.282	1.601	364999	WORD	n/a	wordpools/wordpool_categorized_EN.txt	HILLS	Landscapes	10	3	[0, 0, 0]	n/a	catFR1	3	R1497T
363.883	0.967	366606	WORD_OFF	n/a	n/a	HILLS	Landscapes	10	3	[0, 0, 0]	n/a	catFR1	3	R1497T
364.85	1.616	367570	WORD	n/a	wordpools/wordpool_categorized_EN.txt	RADIO	Electronics	11	3	[0, 0, 0]	n/a	catFR1	3	R1497T
366.466	1.001	369191	WORD_OFF	n/a	n/a	RADIO	Electronics	11	3	[0, 0, 0]	n/a	catFR1	3	R1497T
367.467	1.616	370183	WORD	n/a	wordpools/wordpool_categorized_EN.txt	TABLET	Electronics	12	3	[0, 0, 0]	n/a	catFR1	3	R1497T
369.083	0.001	371804	WORD_OFF	n/a	n/a	TABLET	Electronics	12	3	[0, 0, 0]	n/a	catFR1	3	R1497T
369.084	0.0	371804	ENCODING_END	n/a	n/a	n/a	n/a	-999	3	[0, 0, 0]	n/a	catFR1	3	R1497T
369.084	0.0	371804	DISTRACT_START	n/a	n/a	n/a	n/a	-999	3	[0, 0, 0]	n/a	catFR1	3	R1497T
369.084	0.0	371809	PROB	5.766	n/a	n/a	n/a	-999	3	[5, 8, 2]	15.0	catFR1	3	R1497T
369.084	5.783	371809	START	n/a	n/a	n/a	n/a	-999	3	[-999, -999, -999]	n/a	catFR1	3	R1497T
374.867	4.099	377592	PROB	4.082	n/a	n/a	n/a	-999	3	[4, 1, 8]	13.0	catFR1	3	R1497T
378.966	3.267	381691	PROB	3.25	n/a	n/a	n/a	-999	3	[6, 1, 4]	11.0	catFR1	3	R1497T
382.233	3.6	384957	PROB	3.583	n/a	n/a	n/a	-999	3	[5, 1, 7]	13.0	catFR1	3	R1497T
385.833	4.2	388557	PROB	4.183	n/a	n/a	n/a	-999	3	[8, 1, 3]	12.0	catFR1	3	R1497T
390.033	0.0	392747	DISTRACT_END	n/a	n/a	n/a	n/a	-999	3	[0, 0, 0]	n/a	catFR1	3	R1497T
390.033	2.234	392757	STOP	n/a	n/a	n/a	n/a	-999	3	[-999, -999, -999]	n/a	catFR1	3	R1497T
392.267	0.669	394991	REC_START	n/a	n/a	n/a	n/a	-999	3	[0, 0, 0]	n/a	catFR1	3	R1497T
392.936	0.996	395660	REC_WORD	0.669	n/a	FOREST	Landscapes	9	3	[0, 0, 0]	n/a	catFR1	3	R1497T
393.932	0.414	396656	REC_WORD	1.665	n/a	FOREST	Landscapes	9	3	[0, 0, 0]	n/a	catFR1	3	R1497T
394.346	4.2	397070	REC_WORD	2.079	n/a	HILLS	Landscapes	10	3	[0, 0, 0]	n/a	catFR1	3	R1497T
398.546	2.0	401270	REC_WORD_VV	6.279	n/a	<>	n/a	-999	3	[0, 0, 0]	n/a	catFR1	3	R1497T
400.546	1.0	403270	REC_WORD	8.279	n/a	PIGEON	Birds	8	3	[0, 0, 0]	n/a	catFR1	3	R1497T
401.546	17.981	404270	REC_WORD	9.279	n/a	PIGEON	Birds	8	3	[0, 0, 0]	n/a	catFR1	3	R1497T
419.527	2.967	422250	REC_WORD	27.26	n/a	RADIO	Electronics	11	3	[0, 0, 0]	n/a	catFR1	3	R1497T
422.494	4.472	425218	REC_END	n/a	n/a	n/a	n/a	-999	3	[0, 0, 0]	n/a	catFR1	3	R1497T
426.966	10.35	429689	COUNTDOWN_START	n/a	n/a	n/a	n/a	-999	4	[0, 0, 0]	n/a	catFR1	3	R1497T
437.316	0.0	440028	COUNTDOWN_END	n/a	n/a	n/a	n/a	-999	4	[0, 0, 0]	n/a	catFR1	3	R1497T
437.316	1.917	440042	ENCODING_START	n/a	n/a	n/a	n/a	-999	4	[0, 0, 0]	n/a	catFR1	3	R1497T
439.233	1.617	441956	WORD	n/a	wordpools/wordpool_categorized_EN.txt	MARIGOLD	Flowers	1	4	[0, 0, 0]	n/a	catFR1	3	R1497T
440.85	0.95	443563	WORD_OFF	n/a	n/a	MARIGOLD	Flowers	1	4	[0, 0, 0]	n/a	catFR1	3	R1497T
441.8	1.6	444513	WORD	n/a	wordpools/wordpool_categorized_EN.txt	DAFFODIL	Flowers	2	4	[0, 0, 0]	n/a	catFR1	3	R1497T
443.4	0.883	446120	WORD_OFF	n/a	n/a	DAFFODIL	Flowers	2	4	[0, 0, 0]	n/a	catFR1	3	R1497T
444.283	1.6	447000	WORD	n/a	wordpools/wordpool_categorized_EN.txt	DENIM	Fabric	3	4	[0, 0, 0]	n/a	catFR1	3	R1497T
445.883	0.915	448593	WORD_OFF	n/a	n/a	DENIM	Fabric	3	4	[0, 0, 0]	n/a	catFR1	3	R1497T
446.798	1.602	449515	WORD	n/a	wordpools/wordpool_categorized_EN.txt	VELVET	Fabric	4	4	[0, 0, 0]	n/a	catFR1	3	R1497T
448.4	0.966	451122	WORD_OFF	n/a	n/a	VELVET	Fabric	4	4	[0, 0, 0]	n/a	catFR1	3	R1497T
449.366	1.617	452086	WORD	n/a	wordpools/wordpool_categorized_EN.txt	HAND	BodyParts	5	4	[0, 0, 0]	n/a	catFR1	3	R1497T
450.983	1.0	453706	WORD_OFF	n/a	n/a	HAND	BodyParts	5	4	[0, 0, 0]	n/a	catFR1	3	R1497T
451.983	1.617	454698	WORD	n/a	wordpools/wordpool_categorized_EN.txt	TOE	BodyParts	6	4	[0, 0, 0]	n/a	catFR1	3	R1497T
453.6	0.965	456319	WORD_OFF	n/a	n/a	TOE	BodyParts	6	4	[0, 0, 0]	n/a	catFR1	3	R1497T
454.565	1.601	457283	WORD	n/a	wordpools/wordpool_categorized_EN.txt	SUNFLOWER	Flowers	7	4	[0, 0, 0]	n/a	catFR1	3	R1497T
456.166	1.0	458876	WORD_OFF	n/a	n/a	SUNFLOWER	Flowers	7	4	[0, 0, 0]	n/a	catFR1	3	R1497T
457.166	1.617	459882	WORD	n/a	wordpools/wordpool_categorized_EN.txt	CARNATION	Flowers	8	4	[0, 0, 0]	n/a	catFR1	3	R1497T
458.783	0.883	461503	WORD_OFF	n/a	n/a	CARNATION	Flowers	8	4	[0, 0, 0]	n/a	catFR1	3	R1497T
459.666	1.6	462383	WORD	n/a	wordpools/wordpool_categorized_EN.txt	SILK	Fabric	9	4	[0, 0, 0]	n/a	catFR1	3	R1497T
461.266	0.934	463976	WORD_OFF	n/a	n/a	SILK	Fabric	9	4	[0, 0, 0]	n/a	catFR1	3	R1497T
462.2	1.616	464912	WORD	n/a	wordpools/wordpool_categorized_EN.txt	SUEDE	Fabric	10	4	[0, 0, 0]	n/a	catFR1	3	R1497T
463.816	0.85	466533	WORD_OFF	n/a	n/a	SUEDE	Fabric	10	4	[0, 0, 0]	n/a	catFR1	3	R1497T
464.666	1.601	467385	WORD	n/a	wordpools/wordpool_categorized_EN.txt	ARM	BodyParts	11	4	[0, 0, 0]	n/a	catFR1	3	R1497T
466.267	0.965	468978	WORD_OFF	n/a	n/a	ARM	BodyParts	11	4	[0, 0, 0]	n/a	catFR1	3	R1497T
467.232	1.617	469942	WORD	n/a	wordpools/wordpool_categorized_EN.txt	FINGERS	BodyParts	12	4	[0, 0, 0]	n/a	catFR1	3	R1497T
468.849	0.001	471562	WORD_OFF	n/a	n/a	FINGERS	BodyParts	12	4	[0, 0, 0]	n/a	catFR1	3	R1497T
468.85	0.001	471562	ENCODING_END	n/a	n/a	n/a	n/a	-999	4	[0, 0, 0]	n/a	catFR1	3	R1497T
468.851	0.0	471562	DISTRACT_START	n/a	n/a	n/a	n/a	-999	4	[0, 0, 0]	n/a	catFR1	3	R1497T
468.85	0.001	471570	PROB	18.617	n/a	n/a	n/a	-999	4	[8, 6, 6]	20.0	catFR1	3	R1497T
468.851	18.633	471571	START	n/a	n/a	n/a	n/a	-999	4	[-999, -999, -999]	n/a	catFR1	3	R1497T
487.484	5.382	490203	PROB	5.366	n/a	n/a	n/a	-999	4	[7, 4, 1]	12.0	catFR1	3	R1497T
492.866	0.0	495580	DISTRACT_END	n/a	n/a	n/a	n/a	-999	4	[0, 0, 0]	n/a	catFR1	3	R1497T
492.866	2.366	495585	STOP	n/a	n/a	n/a	n/a	-999	4	[-999, -999, -999]	n/a	catFR1	3	R1497T
495.232	1.1	497949	REC_START	n/a	n/a	n/a	n/a	-999	4	[0, 0, 0]	n/a	catFR1	3	R1497T
496.332	2.186	499051	REC_WORD	1.1	n/a	HAND	BodyParts	5	4	[0, 0, 0]	n/a	catFR1	3	R1497T
498.518	1.343	501237	REC_WORD	3.286	n/a	TOE	BodyParts	6	4	[0, 0, 0]	n/a	catFR1	3	R1497T
499.861	0.948	502580	REC_WORD	4.629	n/a	ARM	BodyParts	11	4	[0, 0, 0]	n/a	catFR1	3	R1497T
500.809	1.803	503528	REC_WORD	5.577	n/a	FINGERS	BodyParts	12	4	[0, 0, 0]	n/a	catFR1	3	R1497T
502.612	1.453	505330	REC_WORD	7.38	n/a	MARIGOLD	Flowers	1	4	[0, 0, 0]	n/a	catFR1	3	R1497T
504.065	1.353	506783	REC_WORD	8.833	n/a	SUNFLOWER	Flowers	7	4	[0, 0, 0]	n/a	catFR1	3	R1497T
505.418	3.405	508136	REC_WORD	10.186	n/a	CARNATION	Flowers	8	4	[0, 0, 0]	n/a	catFR1	3	R1497T
508.823	1.365	511541	REC_WORD	13.591	n/a	DENIM	Fabric	3	4	[0, 0, 0]	n/a	catFR1	3	R1497T
510.188	1.645	512906	REC_WORD	14.956	n/a	VELVET	Fabric	4	4	[0, 0, 0]	n/a	catFR1	3	R1497T
511.833	1.994	514551	REC_WORD	16.601	n/a	SILK	Fabric	9	4	[0, 0, 0]	n/a	catFR1	3	R1497T
513.827	11.61	516545	REC_WORD	18.595	n/a	SUEDE	Fabric	10	4	[0, 0, 0]	n/a	catFR1	3	R1497T
525.437	2.963	528148	REC_END	n/a	n/a	n/a	n/a	-999	4	[0, 0, 0]	n/a	catFR1	3	R1497T
528.4	10.348	531110	COUNTDOWN_START	n/a	n/a	n/a	n/a	-999	5	[0, 0, 0]	n/a	catFR1	3	R1497T
538.748	0.0	541463	COUNTDOWN_END	n/a	n/a	n/a	n/a	-999	5	[0, 0, 0]	n/a	catFR1	3	R1497T
538.748	1.835	541463	ENCODING_START	n/a	n/a	n/a	n/a	-999	5	[0, 0, 0]	n/a	catFR1	3	R1497T
540.583	1.617	543294	WORD	n/a	wordpools/wordpool_categorized_EN.txt	KNEE	BodyParts	1	5	[0, 0, 0]	n/a	catFR1	3	R1497T
542.2	0.783	544914	WORD_OFF	n/a	n/a	KNEE	BodyParts	1	5	[0, 0, 0]	n/a	catFR1	3	R1497T
542.983	1.6	545697	WORD	n/a	wordpools/wordpool_categorized_EN.txt	EYE	BodyParts	2	5	[0, 0, 0]	n/a	catFR1	3	R1497T
544.583	1.0	547290	WORD_OFF	n/a	n/a	EYE	BodyParts	2	5	[0, 0, 0]	n/a	catFR1	3	R1497T
545.583	1.6	548296	WORD	n/a	wordpools/wordpool_categorized_EN.txt	GUITAR	Instruments	3	5	[0, 0, 0]	n/a	catFR1	3	R1497T
547.183	0.933	549888	WORD_OFF	n/a	n/a	GUITAR	Instruments	3	5	[0, 0, 0]	n/a	catFR1	3	R1497T
548.116	1.6	550824	WORD	n/a	wordpools/wordpool_categorized_EN.txt	TUBA	Instruments	4	5	[0, 0, 0]	n/a	catFR1	3	R1497T
549.716	0.95	552431	WORD_OFF	n/a	n/a	TUBA	Instruments	4	5	[0, 0, 0]	n/a	catFR1	3	R1497T
550.666	1.6	553381	WORD	n/a	wordpools/wordpool_categorized_EN.txt	TIGER	Zoo	5	5	[0, 0, 0]	n/a	catFR1	3	R1497T
552.266	0.969	554974	WORD_OFF	n/a	n/a	TIGER	Zoo	5	5	[0, 0, 0]	n/a	catFR1	3	R1497T
553.235	1.615	555952	WORD	n/a	wordpools/wordpool_categorized_EN.txt	GORILLA	Zoo	6	5	[0, 0, 0]	n/a	catFR1	3	R1497T
554.85	0.783	557559	WORD_OFF	n/a	n/a	GORILLA	Zoo	6	5	[0, 0, 0]	n/a	catFR1	3	R1497T
555.633	1.616	558341	WORD	n/a	wordpools/wordpool_categorized_EN.txt	EAR	BodyParts	7	5	[0, 0, 0]	n/a	catFR1	3	R1497T
557.249	0.767	559962	WORD_OFF	n/a	n/a	EAR	BodyParts	7	5	[0, 0, 0]	n/a	catFR1	3	R1497T
558.016	1.616	560730	WORD	n/a	wordpools/wordpool_categorized_EN.txt	ELBOW	BodyParts	8	5	[0, 0, 0]	n/a	catFR1	3	R1497T
559.632	1.0	562337	WORD_OFF	n/a	n/a	ELBOW	BodyParts	8	5	[0, 0, 0]	n/a	catFR1	3	R1497T
560.632	1.601	563343	WORD	n/a	wordpools/wordpool_categorized_EN.txt	MONKEY	Zoo	9	5	[0, 0, 0]	n/a	catFR1	3	R1497T
562.233	0.783	564950	WORD_OFF	n/a	n/a	MONKEY	Zoo	9	5	[0, 0, 0]	n/a	catFR1	3	R1497T
563.016	1.617	565732	WORD	n/a	wordpools/wordpool_categorized_EN.txt	CHIMPANZEE	Zoo	10	5	[0, 0, 0]	n/a	catFR1	3	R1497T
564.633	0.817	567339	WORD_OFF	n/a	n/a	CHIMPANZEE	Zoo	10	5	[0, 0, 0]	n/a	catFR1	3	R1497T
565.45	1.6	568164	WORD	n/a	wordpools/wordpool_categorized_EN.txt	TROMBONE	Instruments	11	5	[0, 0, 0]	n/a	catFR1	3	R1497T
567.05	0.816	569756	WORD_OFF	n/a	n/a	TROMBONE	Instruments	11	5	[0, 0, 0]	n/a	catFR1	3	R1497T
567.866	1.616	570581	WORD	n/a	wordpools/wordpool_categorized_EN.txt	ORGAN	Instruments	12	5	[0, 0, 0]	n/a	catFR1	3	R1497T
569.482	0.001	572187	WORD_OFF	n/a	n/a	ORGAN	Instruments	12	5	[0, 0, 0]	n/a	catFR1	3	R1497T
569.483	0.002	572198	PROB	8.417	n/a	n/a	n/a	-999	5	[4, 3, 5]	12.0	catFR1	3	R1497T
569.485	0.0	572200	START	n/a	n/a	n/a	n/a	-999	5	[-999, -999, -999]	n/a	catFR1	3	R1497T
569.485	0.0	572201	ENCODING_END	n/a	n/a	n/a	n/a	-999	5	[0, 0, 0]	n/a	catFR1	3	R1497T
569.485	8.431	572201	DISTRACT_START	n/a	n/a	n/a	n/a	-999	5	[0, 0, 0]	n/a	catFR1	3	R1497T
577.916	6.584	580631	PROB	6.566	n/a	n/a	n/a	-999	5	[8, 7, 7]	22.0	catFR1	3	R1497T
584.5	5.816	587214	PROB	5.798	n/a	n/a	n/a	-999	5	[8, 4, 6]	18.0	catFR1	3	R1497T
590.316	0.0	593019	DISTRACT_END	n/a	n/a	n/a	n/a	-999	5	[0, 0, 0]	n/a	catFR1	3	R1497T
590.316	2.05	593030	STOP	n/a	n/a	n/a	n/a	-999	5	[-999, -999, -999]	n/a	catFR1	3	R1497T
592.366	3.07	595081	REC_START	n/a	n/a	n/a	n/a	-999	5	[0, 0, 0]	n/a	catFR1	3	R1497T
595.436	1.043	598150	REC_WORD	3.07	n/a	KNEE	BodyParts	1	5	[0, 0, 0]	n/a	catFR1	3	R1497T
596.479	1.024	599193	REC_WORD	4.113	n/a	EYE	BodyParts	2	5	[0, 0, 0]	n/a	catFR1	3	R1497T
597.503	3.833	600217	REC_WORD	5.137	n/a	ELBOW	BodyParts	8	5	[0, 0, 0]	n/a	catFR1	3	R1497T
601.336	21.252	604049	REC_WORD	8.97	n/a	GUITAR	Instruments	3	5	[0, 0, 0]	n/a	catFR1	3	R1497T
622.588	2.495	625294	REC_END	n/a	n/a	n/a	n/a	-999	5	[0, 0, 0]	n/a	catFR1	3	R1497T
625.083	10.35	627795	COUNTDOWN_START	n/a	n/a	n/a	n/a	-999	6	[0, 0, 0]	n/a	catFR1	3	R1497T
635.433	0.0	638134	COUNTDOWN_END	n/a	n/a	n/a	n/a	-999	6	[0, 0, 0]	n/a	catFR1	3	R1497T
635.433	2.249	638148	ENCODING_START	n/a	n/a	n/a	n/a	-999	6	[0, 0, 0]	n/a	catFR1	3	R1497T
637.682	1.601	640384	WORD	n/a	wordpools/wordpool_categorized_EN.txt	BEER	Beverages	1	6	[0, 0, 0]	n/a	catFR1	3	R1497T
639.283	0.867	641991	WORD_OFF	n/a	n/a	BEER	Beverages	1	6	[0, 0, 0]	n/a	catFR1	3	R1497T
640.15	1.616	642857	WORD	n/a	wordpools/wordpool_categorized_EN.txt	RUM	Beverages	2	6	[0, 0, 0]	n/a	catFR1	3	R1497T
641.766	0.851	644478	WORD_OFF	n/a	n/a	RUM	Beverages	2	6	[0, 0, 0]	n/a	catFR1	3	R1497T
642.617	1.615	645330	WORD	n/a	wordpools/wordpool_categorized_EN.txt	LADLE	KitchenTools	3	6	[0, 0, 0]	n/a	catFR1	3	R1497T
644.232	0.834	646937	WORD_OFF	n/a	n/a	LADLE	KitchenTools	3	6	[0, 0, 0]	n/a	catFR1	3	R1497T
645.066	1.6	647775	WORD	n/a	wordpools/wordpool_categorized_EN.txt	GRATER	KitchenTools	4	6	[0, 0, 0]	n/a	catFR1	3	R1497T
646.666	0.933	649368	WORD_OFF	n/a	n/a	GRATER	KitchenTools	4	6	[0, 0, 0]	n/a	catFR1	3	R1497T
647.599	1.617	650304	WORD	n/a	wordpools/wordpool_categorized_EN.txt	SCANNER	Electronics	5	6	[0, 0, 0]	n/a	catFR1	3	R1497T
649.216	0.966	651925	WORD_OFF	n/a	n/a	SCANNER	Electronics	5	6	[0, 0, 0]	n/a	catFR1	3	R1497T
650.182	1.617	652889	WORD	n/a	wordpools/wordpool_categorized_EN.txt	CALCULATOR	Electronics	6	6	[0, 0, 0]	n/a	catFR1	3	R1497T
651.799	0.834	654509	WORD_OFF	n/a	n/a	CALCULATOR	Electronics	6	6	[0, 0, 0]	n/a	catFR1	3	R1497T
652.633	1.615	655334	WORD	n/a	wordpools/wordpool_categorized_EN.txt	SODA	Beverages	7	6	[0, 0, 0]	n/a	catFR1	3	R1497T
654.248	0.817	656954	WORD_OFF	n/a	n/a	SODA	Beverages	7	6	[0, 0, 0]	n/a	catFR1	3	R1497T
655.065	1.617	657765	WORD	n/a	wordpools/wordpool_categorized_EN.txt	JUICE	Beverages	8	6	[0, 0, 0]	n/a	catFR1	3	R1497T
656.682	0.899	659386	WORD_OFF	n/a	n/a	JUICE	Beverages	8	6	[0, 0, 0]	n/a	catFR1	3	R1497T
657.581	1.601	660280	WORD	n/a	wordpools/wordpool_categorized_EN.txt	PHONE	Electronics	9	6	[0, 0, 0]	n/a	catFR1	3	R1497T
659.182	0.766	661886	WORD_OFF	n/a	n/a	PHONE	Electronics	9	6	[0, 0, 0]	n/a	catFR1	3	R1497T
659.948	1.616	662655	WORD	n/a	wordpools/wordpool_categorized_EN.txt	COMPUTER	Electronics	10	6	[0, 0, 0]	n/a	catFR1	3	R1497T
661.564	0.818	664276	WORD_OFF	n/a	n/a	COMPUTER	Electronics	10	6	[0, 0, 0]	n/a	catFR1	3	R1497T
662.382	1.616	665086	WORD	n/a	wordpools/wordpool_categorized_EN.txt	SPOON	KitchenTools	11	6	[0, 0, 0]	n/a	catFR1	3	R1497T
663.998	0.917	666707	WORD_OFF	n/a	n/a	SPOON	KitchenTools	11	6	[0, 0, 0]	n/a	catFR1	3	R1497T
664.915	1.617	667615	WORD	n/a	wordpools/wordpool_categorized_EN.txt	WHISK	KitchenTools	12	6	[0, 0, 0]	n/a	catFR1	3	R1497T
666.532	0.001	669236	WORD_OFF	n/a	n/a	WHISK	KitchenTools	12	6	[0, 0, 0]	n/a	catFR1	3	R1497T
666.533	0.0	669236	ENCODING_END	n/a	n/a	n/a	n/a	-999	6	[0, 0, 0]	n/a	catFR1	3	R1497T
666.533	0.0	669236	DISTRACT_START	n/a	n/a	n/a	n/a	-999	6	[0, 0, 0]	n/a	catFR1	3	R1497T
666.532	0.001	669242	PROB	6.45	n/a	n/a	n/a	-999	6	[4, 7, 6]	17.0	catFR1	3	R1497T
666.533	6.467	669243	START	n/a	n/a	n/a	n/a	-999	6	[-999, -999, -999]	n/a	catFR1	3	R1497T
673.0	4.149	675710	PROB	4.132	n/a	n/a	n/a	-999	6	[6, 4, 5]	15.0	catFR1	3	R1497T
677.149	4.417	679859	PROB	4.4	n/a	n/a	n/a	-999	6	[3, 8, 4]	15.0	catFR1	3	R1497T
681.566	5.784	684275	PROB	5.767	n/a	n/a	n/a	-999	6	[3, 5, 3]	11.0	catFR1	3	R1497T
687.35	0.0	690054	DISTRACT_END	n/a	n/a	n/a	n/a	-999	6	[0, 0, 0]	n/a	catFR1	3	R1497T
687.35	2.3	690059	STOP	n/a	n/a	n/a	n/a	-999	6	[-999, -999, -999]	n/a	catFR1	3	R1497T
689.65	1.937	692353	REC_START	n/a	n/a	n/a	n/a	-999	6	[0, 0, 0]	n/a	catFR1	3	R1497T
691.587	1.397	694296	REC_WORD	1.937	n/a	SODA	Beverages	7	6	[0, 0, 0]	n/a	catFR1	3	R1497T
692.984	1.258	695693	REC_WORD	3.334	n/a	JUICE	Beverages	8	6	[0, 0, 0]	n/a	catFR1	3	R1497T
694.242	1.3	696951	REC_WORD	4.592	n/a	BEER	Beverages	1	6	[0, 0, 0]	n/a	catFR1	3	R1497T
695.542	1.458	698251	REC_WORD	5.892	n/a	RUM	Beverages	2	6	[0, 0, 0]	n/a	catFR1	3	R1497T
697.0	2.413	699709	REC_WORD	7.35	n/a	SPOON	KitchenTools	11	6	[0, 0, 0]	n/a	catFR1	3	R1497T
699.413	1.045	702122	REC_WORD	9.763	n/a	LADLE	KitchenTools	3	6	[0, 0, 0]	n/a	catFR1	3	R1497T
700.458	3.133	703166	REC_WORD	10.808	n/a	WHISK	KitchenTools	12	6	[0, 0, 0]	n/a	catFR1	3	R1497T
703.591	0.951	706299	REC_WORD	13.941	n/a	PHONE	Electronics	9	6	[0, 0, 0]	n/a	catFR1	3	R1497T
704.542	15.329	707250	REC_WORD	14.892	n/a	COMPUTER	Electronics	10	6	[0, 0, 0]	n/a	catFR1	3	R1497T
719.871	2.345	722580	REC_END	n/a	n/a	n/a	n/a	-999	6	[0, 0, 0]	n/a	catFR1	3	R1497T
722.216	10.351	724913	COUNTDOWN_START	n/a	n/a	n/a	n/a	-999	7	[0, 0, 0]	n/a	catFR1	3	R1497T
732.567	0.0	735266	COUNTDOWN_END	n/a	n/a	n/a	n/a	-999	7	[0, 0, 0]	n/a	catFR1	3	R1497T
732.567	1.983	735266	ENCODING_START	n/a	n/a	n/a	n/a	-999	7	[0, 0, 0]	n/a	catFR1	3	R1497T
734.55	1.616	737250	WORD	n/a	wordpools/wordpool_categorized_EN.txt	LETTUCE	Vegetables	1	7	[0, 0, 0]	n/a	catFR1	3	R1497T
736.166	0.767	738871	WORD_OFF	n/a	n/a	LETTUCE	Vegetables	1	7	[0, 0, 0]	n/a	catFR1	3	R1497T
736.933	1.616	739640	WORD	n/a	wordpools/wordpool_categorized_EN.txt	CORN	Vegetables	2	7	[0, 0, 0]	n/a	catFR1	3	R1497T
738.549	0.983	741246	WORD_OFF	n/a	n/a	CORN	Vegetables	2	7	[0, 0, 0]	n/a	catFR1	3	R1497T
739.532	1.6	742238	WORD	n/a	wordpools/wordpool_categorized_EN.txt	ROSE	Flowers	3	7	[0, 0, 0]	n/a	catFR1	3	R1497T
741.132	1.0	743831	WORD_OFF	n/a	n/a	ROSE	Flowers	3	7	[0, 0, 0]	n/a	catFR1	3	R1497T
742.132	1.601	744837	WORD	n/a	wordpools/wordpool_categorized_EN.txt	DAISY	Flowers	4	7	[0, 0, 0]	n/a	catFR1	3	R1497T
743.733	0.85	746430	WORD_OFF	n/a	n/a	DAISY	Flowers	4	7	[0, 0, 0]	n/a	catFR1	3	R1497T
744.583	1.6	747282	WORD	n/a	wordpools/wordpool_categorized_EN.txt	MARKER	OfficeSupplies	5	7	[0, 0, 0]	n/a	catFR1	3	R1497T
746.183	0.867	748889	WORD_OFF	n/a	n/a	MARKER	OfficeSupplies	5	7	[0, 0, 0]	n/a	catFR1	3	R1497T
747.05	1.617	749755	WORD	n/a	wordpools/wordpool_categorized_EN.txt	FOLDER	OfficeSupplies	6	7	[0, 0, 0]	n/a	catFR1	3	R1497T
748.667	0.915	751362	WORD_OFF	n/a	n/a	FOLDER	OfficeSupplies	6	7	[0, 0, 0]	n/a	catFR1	3	R1497T
749.582	1.601	752284	WORD	n/a	wordpools/wordpool_categorized_EN.txt	VIOLET	Flowers	7	7	[0, 0, 0]	n/a	catFR1	3	R1497T
751.183	0.95	753891	WORD_OFF	n/a	n/a	VIOLET	Flowers	7	7	[0, 0, 0]	n/a	catFR1	3	R1497T
752.133	1.6	754827	WORD	n/a	wordpools/wordpool_categorized_EN.txt	PETUNIA	Flowers	8	7	[0, 0, 0]	n/a	catFR1	3	R1497T
753.733	0.95	756434	WORD_OFF	n/a	n/a	PETUNIA	Flowers	8	7	[0, 0, 0]	n/a	catFR1	3	R1497T
754.683	1.6	757384	WORD	n/a	wordpools/wordpool_categorized_EN.txt	POTATO	Vegetables	9	7	[0, 0, 0]	n/a	catFR1	3	R1497T
756.283	0.884	758991	WORD_OFF	n/a	n/a	POTATO	Vegetables	9	7	[0, 0, 0]	n/a	catFR1	3	R1497T
757.167	1.616	759871	WORD	n/a	wordpools/wordpool_categorized_EN.txt	CUCUMBER	Vegetables	10	7	[0, 0, 0]	n/a	catFR1	3	R1497T
758.783	0.833	761478	WORD_OFF	n/a	n/a	CUCUMBER	Vegetables	10	7	[0, 0, 0]	n/a	catFR1	3	R1497T
759.616	1.617	762316	WORD	n/a	wordpools/wordpool_categorized_EN.txt	RULER	OfficeSupplies	11	7	[0, 0, 0]	n/a	catFR1	3	R1497T
761.233	1.0	763937	WORD_OFF	n/a	n/a	RULER	OfficeSupplies	11	7	[0, 0, 0]	n/a	catFR1	3	R1497T
762.233	1.617	764929	WORD	n/a	wordpools/wordpool_categorized_EN.txt	GLUE	OfficeSupplies	12	7	[0, 0, 0]	n/a	catFR1	3	R1497T
763.85	0.001	766549	WORD_OFF	n/a	n/a	GLUE	OfficeSupplies	12	7	[0, 0, 0]	n/a	catFR1	3	R1497T
763.851	0.0	766549	ENCODING_END	n/a	n/a	n/a	n/a	-999	7	[0, 0, 0]	n/a	catFR1	3	R1497T
763.851	0.0	766549	DISTRACT_START	n/a	n/a	n/a	n/a	-999	7	[0, 0, 0]	n/a	catFR1	3	R1497T
763.85	0.001	766555	PROB	8.983	n/a	n/a	n/a	-999	7	[5, 4, 7]	16.0	catFR1	3	R1497T
763.851	8.998	766556	START	n/a	n/a	n/a	n/a	-999	7	[-999, -999, -999]	n/a	catFR1	3	R1497T
772.849	4.703	775554	PROB	4.684	n/a	n/a	n/a	-999	7	[4, 4, 7]	15.0	catFR1	3	R1497T
777.552	2.882	780257	PROB	2.866	n/a	n/a	n/a	-999	7	[1, 1, 4]	6.0	catFR1	3	R1497T
780.434	4.416	783138	PROB	4.399	n/a	n/a	n/a	-999	7	[2, 5, 3]	10.0	catFR1	3	R1497T
784.85	0.0	787549	DISTRACT_END	n/a	n/a	n/a	n/a	-999	7	[0, 0, 0]	n/a	catFR1	3	R1497T
784.85	2.35	787554	STOP	n/a	n/a	n/a	n/a	-999	7	[-999, -999, -999]	n/a	catFR1	3	R1497T
787.2	3.494	789904	REC_START	n/a	n/a	n/a	n/a	-999	7	[0, 0, 0]	n/a	catFR1	3	R1497T
790.694	1.276	793398	REC_WORD	3.494	n/a	LETTUCE	Vegetables	1	7	[0, 0, 0]	n/a	catFR1	3	R1497T
791.97	2.003	794674	REC_WORD	4.77	n/a	CORN	Vegetables	2	7	[0, 0, 0]	n/a	catFR1	3	R1497T
793.973	2.263	796677	REC_WORD	6.773	n/a	ROSE	Flowers	3	7	[0, 0, 0]	n/a	catFR1	3	R1497T
796.236	0.999	798940	REC_WORD	9.036	n/a	DAISY	Flowers	4	7	[0, 0, 0]	n/a	catFR1	3	R1497T
797.235	2.642	799939	REC_WORD	10.035	n/a	DAISY	Flowers	4	7	[0, 0, 0]	n/a	catFR1	3	R1497T
799.877	2.007	802580	REC_WORD	12.677	n/a	VIOLET	Flowers	7	7	[0, 0, 0]	n/a	catFR1	3	R1497T
801.884	14.806	804587	REC_WORD	14.684	n/a	PETUNIA	Flowers	8	7	[0, 0, 0]	n/a	catFR1	3	R1497T
816.69	0.747	819393	REC_WORD	29.49	n/a	CUCUMBER	Vegetables	10	7	[0, 0, 0]	n/a	catFR1	3	R1497T
817.437	6.496	820131	REC_END	n/a	n/a	n/a	n/a	-999	7	[0, 0, 0]	n/a	catFR1	3	R1497T
823.933	10.35	826628	COUNTDOWN_START	n/a	n/a	n/a	n/a	-999	8	[0, 0, 0]	n/a	catFR1	3	R1497T
834.283	0.0	836981	COUNTDOWN_END	n/a	n/a	n/a	n/a	-999	8	[0, 0, 0]	n/a	catFR1	3	R1497T
834.283	2.133	836981	ENCODING_START	n/a	n/a	n/a	n/a	-999	8	[0, 0, 0]	n/a	catFR1	3	R1497T
836.416	1.601	839119	WORD	n/a	wordpools/wordpool_categorized_EN.txt	ANT	Insects	1	8	[0, 0, 0]	n/a	catFR1	3	R1497T
838.017	0.966	840712	WORD_OFF	n/a	n/a	ANT	Insects	1	8	[0, 0, 0]	n/a	catFR1	3	R1497T
838.983	1.617	841676	WORD	n/a	wordpools/wordpool_categorized_EN.txt	SPIDER	Insects	2	8	[0, 0, 0]	n/a	catFR1	3	R1497T
840.6	0.933	843297	WORD_OFF	n/a	n/a	SPIDER	Insects	2	8	[0, 0, 0]	n/a	catFR1	3	R1497T
841.533	1.6	844233	WORD	n/a	wordpools/wordpool_categorized_EN.txt	LILY	Flowers	3	8	[0, 0, 0]	n/a	catFR1	3	R1497T
843.133	0.834	845825	WORD_OFF	n/a	n/a	LILY	Flowers	3	8	[0, 0, 0]	n/a	catFR1	3	R1497T
843.967	1.615	846664	WORD	n/a	wordpools/wordpool_categorized_EN.txt	ORCHID	Flowers	4	8	[0, 0, 0]	n/a	catFR1	3	R1497T
845.582	0.984	848284	WORD_OFF	n/a	n/a	ORCHID	Flowers	4	8	[0, 0, 0]	n/a	catFR1	3	R1497T
846.566	1.617	849262	WORD	n/a	wordpools/wordpool_categorized_EN.txt	DOLL	Toys	5	8	[0, 0, 0]	n/a	catFR1	3	R1497T
848.183	0.85	850883	WORD_OFF	n/a	n/a	DOLL	Toys	5	8	[0, 0, 0]	n/a	catFR1	3	R1497T
849.033	1.617	851736	WORD	n/a	wordpools/wordpool_categorized_EN.txt	BLOCKS	Toys	6	8	[0, 0, 0]	n/a	catFR1	3	R1497T
850.65	0.9	853342	WORD_OFF	n/a	n/a	BLOCKS	Toys	6	8	[0, 0, 0]	n/a	catFR1	3	R1497T
851.55	1.6	854250	WORD	n/a	wordpools/wordpool_categorized_EN.txt	LILAC	Flowers	7	8	[0, 0, 0]	n/a	catFR1	3	R1497T
853.15	0.85	855843	WORD_OFF	n/a	n/a	LILAC	Flowers	7	8	[0, 0, 0]	n/a	catFR1	3	R1497T
854.0	1.616	856696	WORD	n/a	wordpools/wordpool_categorized_EN.txt	TULIP	Flowers	8	8	[0, 0, 0]	n/a	catFR1	3	R1497T
855.616	1.0	858316	WORD_OFF	n/a	n/a	TULIP	Flowers	8	8	[0, 0, 0]	n/a	catFR1	3	R1497T
856.616	1.6	859308	WORD	n/a	wordpools/wordpool_categorized_EN.txt	BASEBALL	Toys	9	8	[0, 0, 0]	n/a	catFR1	3	R1497T
858.216	0.917	860915	WORD_OFF	n/a	n/a	BASEBALL	Toys	9	8	[0, 0, 0]	n/a	catFR1	3	R1497T
859.133	1.616	861823	WORD	n/a	wordpools/wordpool_categorized_EN.txt	PUZZLE	Toys	10	8	[0, 0, 0]	n/a	catFR1	3	R1497T
860.749	0.817	863444	WORD_OFF	n/a	n/a	PUZZLE	Toys	10	8	[0, 0, 0]	n/a	catFR1	3	R1497T
861.566	1.617	864268	WORD	n/a	wordpools/wordpool_categorized_EN.txt	LADYBUG	Insects	11	8	[0, 0, 0]	n/a	catFR1	3	R1497T
863.183	0.833	865875	WORD_OFF	n/a	n/a	LADYBUG	Insects	11	8	[0, 0, 0]	n/a	catFR1	3	R1497T
864.016	1.617	866713	WORD	n/a	wordpools/wordpool_categorized_EN.txt	BEE	Insects	12	8	[0, 0, 0]	n/a	catFR1	3	R1497T
865.633	0.001	868334	WORD_OFF	n/a	n/a	BEE	Insects	12	8	[0, 0, 0]	n/a	catFR1	3	R1497T
865.634	0.0	868334	ENCODING_END	n/a	n/a	n/a	n/a	-999	8	[0, 0, 0]	n/a	catFR1	3	R1497T
865.634	0.0	868334	DISTRACT_START	n/a	n/a	n/a	n/a	-999	8	[0, 0, 0]	n/a	catFR1	3	R1497T
865.634	0.0	868334	PROB	11.482	n/a	n/a	n/a	-999	8	[6, 7, 4]	17.0	catFR1	3	R1497T
865.634	11.499	868334	START	n/a	n/a	n/a	n/a	-999	8	[-999, -999, -999]	n/a	catFR1	3	R1497T
877.133	9.866	879833	PROB	9.85	n/a	n/a	n/a	-999	8	[7, 4, 5]	16.0	catFR1	3	R1497T
886.999	0.0	889697	DISTRACT_END	n/a	n/a	n/a	n/a	-999	8	[0, 0, 0]	n/a	catFR1	3	R1497T
886.999	2.334	889698	STOP	n/a	n/a	n/a	n/a	-999	8	[-999, -999, -999]	n/a	catFR1	3	R1497T
889.333	0.666	892024	REC_START	n/a	n/a	n/a	n/a	-999	8	[0, 0, 0]	n/a	catFR1	3	R1497T
889.999	0.764	892698	REC_WORD	0.666	n/a	LILY	Flowers	3	8	[0, 0, 0]	n/a	catFR1	3	R1497T
890.763	0.688	893462	REC_WORD	1.43	n/a	ORCHID	Flowers	4	8	[0, 0, 0]	n/a	catFR1	3	R1497T
891.451	3.324	894150	REC_WORD	2.118	n/a	TULIP	Flowers	8	8	[0, 0, 0]	n/a	catFR1	3	R1497T
894.775	5.721	897474	REC_WORD	5.442	n/a	LILAC	Flowers	7	8	[0, 0, 0]	n/a	catFR1	3	R1497T
900.496	1.169	903194	REC_WORD	11.163	n/a	LADYBUG	Insects	11	8	[0, 0, 0]	n/a	catFR1	3	R1497T
901.665	0.86	904363	REC_WORD	12.332	n/a	BEE	Insects	12	8	[0, 0, 0]	n/a	catFR1	3	R1497T
902.525	0.637	905223	REC_WORD	13.192	n/a	ANT	Insects	1	8	[0, 0, 0]	n/a	catFR1	3	R1497T
903.162	10.003	905860	REC_WORD	13.829	n/a	SPIDER	Insects	2	8	[0, 0, 0]	n/a	catFR1	3	R1497T
913.165	2.782	915863	REC_WORD	23.832	n/a	BLOCKS	Toys	6	8	[0, 0, 0]	n/a	catFR1	3	R1497T
915.947	3.639	918645	REC_WORD	26.614	n/a	PUZZLE	Toys	10	8	[0, 0, 0]	n/a	catFR1	3	R1497T
919.586	2.162	922279	REC_END	n/a	n/a	n/a	n/a	-999	8	[0, 0, 0]	n/a	catFR1	3	R1497T
921.748	10.352	924445	COUNTDOWN_START	n/a	n/a	n/a	n/a	-999	9	[0, 0, 0]	n/a	catFR1	3	R1497T
932.1	0.0	934798	COUNTDOWN_END	n/a	n/a	n/a	n/a	-999	9	[0, 0, 0]	n/a	catFR1	3	R1497T
932.1	2.066	934798	ENCODING_START	n/a	n/a	n/a	n/a	-999	9	[0, 0, 0]	n/a	catFR1	3	R1497T
934.166	1.601	936852	WORD	n/a	wordpools/wordpool_categorized_EN.txt	ROOM	Building	1	9	[0, 0, 0]	n/a	catFR1	3	R1497T
935.767	0.816	938459	WORD_OFF	n/a	n/a	ROOM	Building	1	9	[0, 0, 0]	n/a	catFR1	3	R1497T
936.583	1.617	939269	WORD	n/a	wordpools/wordpool_categorized_EN.txt	BATHROOM	Building	2	9	[0, 0, 0]	n/a	catFR1	3	R1497T
938.2	0.933	940890	WORD_OFF	n/a	n/a	BATHROOM	Building	2	9	[0, 0, 0]	n/a	catFR1	3	R1497T
939.133	1.617	941826	WORD	n/a	wordpools/wordpool_categorized_EN.txt	WHALE	OceanAnimals	3	9	[0, 0, 0]	n/a	catFR1	3	R1497T
940.75	0.767	943447	WORD_OFF	n/a	n/a	WHALE	OceanAnimals	3	9	[0, 0, 0]	n/a	catFR1	3	R1497T
941.517	1.615	944201	WORD	n/a	wordpools/wordpool_categorized_EN.txt	PLANKTON	OceanAnimals	4	9	[0, 0, 0]	n/a	catFR1	3	R1497T
943.132	0.784	945822	WORD_OFF	n/a	n/a	PLANKTON	OceanAnimals	4	9	[0, 0, 0]	n/a	catFR1	3	R1497T
943.916	1.617	946604	WORD	n/a	wordpools/wordpool_categorized_EN.txt	COBBLER	Desserts	5	9	[0, 0, 0]	n/a	catFR1	3	R1497T
945.533	1.0	948225	WORD_OFF	n/a	n/a	COBBLER	Desserts	5	9	[0, 0, 0]	n/a	catFR1	3	R1497T
946.533	1.617	949231	WORD	n/a	wordpools/wordpool_categorized_EN.txt	PASTRY	Desserts	6	9	[0, 0, 0]	n/a	catFR1	3	R1497T
948.15	1.0	950838	WORD_OFF	n/a	n/a	PASTRY	Desserts	6	9	[0, 0, 0]	n/a	catFR1	3	R1497T
949.15	1.6	951844	WORD	n/a	wordpools/wordpool_categorized_EN.txt	LOBSTER	OceanAnimals	7	9	[0, 0, 0]	n/a	catFR1	3	R1497T
950.75	0.832	953436	WORD_OFF	n/a	n/a	LOBSTER	OceanAnimals	7	9	[0, 0, 0]	n/a	catFR1	3	R1497T
951.582	1.601	954275	WORD	n/a	wordpools/wordpool_categorized_EN.txt	JELLYFISH	OceanAnimals	8	9	[0, 0, 0]	n/a	catFR1	3	R1497T
953.183	0.783	955868	WORD_OFF	n/a	n/a	JELLYFISH	OceanAnimals	8	9	[0, 0, 0]	n/a	catFR1	3	R1497T
953.966	1.617	956650	WORD	n/a	wordpools/wordpool_categorized_EN.txt	HALLWAY	Building	9	9	[0, 0, 0]	n/a	catFR1	3	R1497T
955.583	0.866	958271	WORD_OFF	n/a	n/a	HALLWAY	Building	9	9	[0, 0, 0]	n/a	catFR1	3	R1497T
956.449	1.617	959137	WORD	n/a	wordpools/wordpool_categorized_EN.txt	WALL	Building	10	9	[0, 0, 0]	n/a	catFR1	3	R1497T
958.066	0.983	960758	WORD_OFF	n/a	n/a	WALL	Building	10	9	[0, 0, 0]	n/a	catFR1	3	R1497T
959.049	1.6	961736	WORD	n/a	wordpools/wordpool_categorized_EN.txt	FUDGE	Desserts	11	9	[0, 0, 0]	n/a	catFR1	3	R1497T
960.649	1.001	963342	WORD_OFF	n/a	n/a	FUDGE	Desserts	11	9	[0, 0, 0]	n/a	catFR1	3	R1497T
961.65	1.616	964334	WORD	n/a	wordpools/wordpool_categorized_EN.txt	BROWNIES	Desserts	12	9	[0, 0, 0]	n/a	catFR1	3	R1497T
963.266	0.003	965955	WORD_OFF	n/a	n/a	BROWNIES	Desserts	12	9	[0, 0, 0]	n/a	catFR1	3	R1497T
963.269	0.0	965955	ENCODING_END	n/a	n/a	n/a	n/a	-999	9	[0, 0, 0]	n/a	catFR1	3	R1497T
963.269	0.0	965955	DISTRACT_START	n/a	n/a	n/a	n/a	-999	9	[0, 0, 0]	n/a	catFR1	3	R1497T
963.266	0.003	965961	PROB	5.9	n/a	n/a	n/a	-999	9	[7, 4, 2]	13.0	catFR1	3	R1497T
963.269	5.914	965964	START	n/a	n/a	n/a	n/a	-999	9	[-999, -999, -999]	n/a	catFR1	3	R1497T
969.183	9.167	971878	PROB	9.15	n/a	n/a	n/a	-999	9	[7, 5, 2]	14.0	catFR1	3	R1497T
978.35	8.998	981044	PROB	8.982	n/a	n/a	n/a	-999	9	[2, 5, 8]	15.0	catFR1	3	R1497T
987.348	0.0	990042	STOP	n/a	n/a	n/a	n/a	-999	9	[-999, -999, -999]	n/a	catFR1	3	R1497T
987.348	2.267	990043	DISTRACT_END	n/a	n/a	n/a	n/a	-999	9	[0, 0, 0]	n/a	catFR1	3	R1497T
989.615	3.133	992300	REC_START	n/a	n/a	n/a	n/a	-999	9	[0, 0, 0]	n/a	catFR1	3	R1497T
992.748	4.866	995442	REC_WORD	3.133	n/a	JELLYFISH	OceanAnimals	8	9	[0, 0, 0]	n/a	catFR1	3	R1497T
997.614	1.818	1000307	REC_WORD	7.999	n/a	WHALE	OceanAnimals	3	9	[0, 0, 0]	n/a	catFR1	3	R1497T
999.432	1.729	1002125	REC_WORD	9.817	n/a	LOBSTER	OceanAnimals	7	9	[0, 0, 0]	n/a	catFR1	3	R1497T
1001.161	1.163	1003854	REC_WORD	11.546	n/a	ROOM	Building	1	9	[0, 0, 0]	n/a	catFR1	3	R1497T
1002.324	0.857	1005017	REC_WORD	12.709	n/a	BATHROOM	Building	2	9	[0, 0, 0]	n/a	catFR1	3	R1497T
1003.181	11.031	1005874	REC_WORD	13.566	n/a	HALL	n/a	-999	9	[0, 0, 0]	n/a	catFR1	3	R1497T
1014.212	1.1	1016905	REC_WORD	24.597	n/a	FUDGE	Desserts	11	9	[0, 0, 0]	n/a	catFR1	3	R1497T
1015.312	3.838	1018005	REC_WORD	25.697	n/a	BROWNIES	Desserts	12	9	[0, 0, 0]	n/a	catFR1	3	R1497T
1019.15	0.683	1021842	REC_WORD	29.535	n/a	PASTRY	Desserts	6	9	[0, 0, 0]	n/a	catFR1	3	R1497T
1019.833	2.65	1022527	REC_END	n/a	n/a	n/a	n/a	-999	9	[0, 0, 0]	n/a	catFR1	3	R1497T
1022.483	10.349	1025168	COUNTDOWN_START	n/a	n/a	n/a	n/a	-999	10	[0, 0, 0]	n/a	catFR1	3	R1497T
1032.832	0.0	1035521	COUNTDOWN_END	n/a	n/a	n/a	n/a	-999	10	[0, 0, 0]	n/a	catFR1	3	R1497T
1032.832	1.951	1035521	ENCODING_START	n/a	n/a	n/a	n/a	-999	10	[0, 0, 0]	n/a	catFR1	3	R1497T
1034.783	1.617	1037463	WORD	n/a	wordpools/wordpool_categorized_EN.txt	MOTH	Insects	1	10	[0, 0, 0]	n/a	catFR1	3	R1497T
1036.4	0.816	1039084	WORD_OFF	n/a	n/a	MOTH	Insects	1	10	[0, 0, 0]	n/a	catFR1	3	R1497T
1037.216	1.617	1039908	WORD	n/a	wordpools/wordpool_categorized_EN.txt	ROACH	Insects	2	10	[0, 0, 0]	n/a	catFR1	3	R1497T
1038.833	0.8	1041515	WORD_OFF	n/a	n/a	ROACH	Insects	2	10	[0, 0, 0]	n/a	catFR1	3	R1497T
1039.633	1.617	1042325	WORD	n/a	wordpools/wordpool_categorized_EN.txt	OCTOPUS	OceanAnimals	3	10	[0, 0, 0]	n/a	catFR1	3	R1497T
1041.25	0.849	1043932	WORD_OFF	n/a	n/a	OCTOPUS	OceanAnimals	3	10	[0, 0, 0]	n/a	catFR1	3	R1497T
1042.099	1.601	1044784	WORD	n/a	wordpools/wordpool_categorized_EN.txt	DOLPHIN	OceanAnimals	4	10	[0, 0, 0]	n/a	catFR1	3	R1497T
1043.7	0.883	1046391	WORD_OFF	n/a	n/a	DOLPHIN	OceanAnimals	4	10	[0, 0, 0]	n/a	catFR1	3	R1497T
1044.583	1.6	1047271	WORD	n/a	wordpools/wordpool_categorized_EN.txt	CARROT	Vegetables	5	10	[0, 0, 0]	n/a	catFR1	3	R1497T
1046.183	0.767	1048864	WORD_OFF	n/a	n/a	CARROT	Vegetables	5	10	[0, 0, 0]	n/a	catFR1	3	R1497T
1046.95	1.6	1049632	WORD	n/a	wordpools/wordpool_categorized_EN.txt	CABBAGE	Vegetables	6	10	[0, 0, 0]	n/a	catFR1	3	R1497T
1048.55	0.883	1051239	WORD_OFF	n/a	n/a	CABBAGE	Vegetables	6	10	[0, 0, 0]	n/a	catFR1	3	R1497T
1049.433	1.6	1052119	WORD	n/a	wordpools/wordpool_categorized_EN.txt	BEETLE	Insects	7	10	[0, 0, 0]	n/a	catFR1	3	R1497T
1051.033	0.817	1053726	WORD_OFF	n/a	n/a	BEETLE	Insects	7	10	[0, 0, 0]	n/a	catFR1	3	R1497T
1051.85	1.616	1054536	WORD	n/a	wordpools/wordpool_categorized_EN.txt	MOSQUITO	Insects	8	10	[0, 0, 0]	n/a	catFR1	3	R1497T
1053.466	0.817	1056157	WORD_OFF	n/a	n/a	MOSQUITO	Insects	8	10	[0, 0, 0]	n/a	catFR1	3	R1497T
1054.283	1.617	1056968	WORD	n/a	wordpools/wordpool_categorized_EN.txt	FISH	OceanAnimals	9	10	[0, 0, 0]	n/a	catFR1	3	R1497T
1055.9	0.766	1058588	WORD_OFF	n/a	n/a	FISH	OceanAnimals	9	10	[0, 0, 0]	n/a	catFR1	3	R1497T
1056.666	1.617	1059357	WORD	n/a	wordpools/wordpool_categorized_EN.txt	CRAB	OceanAnimals	10	10	[0, 0, 0]	n/a	catFR1	3	R1497T
1058.283	0.85	1060964	WORD_OFF	n/a	n/a	CRAB	OceanAnimals	10	10	[0, 0, 0]	n/a	catFR1	3	R1497T
1059.133	1.617	1061816	WORD	n/a	wordpools/wordpool_categorized_EN.txt	SPINACH	Vegetables	11	10	[0, 0, 0]	n/a	catFR1	3	R1497T
1060.75	0.783	1063437	WORD_OFF	n/a	n/a	SPINACH	Vegetables	11	10	[0, 0, 0]	n/a	catFR1	3	R1497T
1061.533	1.617	1064219	WORD	n/a	wordpools/wordpool_categorized_EN.txt	PEAS	Vegetables	12	10	[0, 0, 0]	n/a	catFR1	3	R1497T
1063.15	0.001	1065840	WORD_OFF	n/a	n/a	PEAS	Vegetables	12	10	[0, 0, 0]	n/a	catFR1	3	R1497T
1063.151	0.0	1065840	ENCODING_END	n/a	n/a	n/a	n/a	-999	10	[0, 0, 0]	n/a	catFR1	3	R1497T
1063.151	0.0	1065840	DISTRACT_START	n/a	n/a	n/a	n/a	-999	10	[0, 0, 0]	n/a	catFR1	3	R1497T
1063.151	0.0	1065841	START	n/a	n/a	n/a	n/a	-999	10	[-999, -999, -999]	n/a	catFR1	3	R1497T
1063.151	3.082	1065841	PROB	3.066	n/a	n/a	n/a	-999	10	[2, 3, 2]	7.0	catFR1	3	R1497T
1066.233	5.85	1068923	PROB	5.833	n/a	n/a	n/a	-999	10	[2, 6, 8]	16.0	catFR1	3	R1497T
1072.083	4.284	1074773	PROB	4.267	n/a	n/a	n/a	-999	10	[3, 4, 1]	8.0	catFR1	3	R1497T
1076.367	3.999	1079056	PROB	3.983	n/a	n/a	n/a	-999	10	[7, 2, 3]	12.0	catFR1	3	R1497T
1080.366	3.0	1083055	PROB	2.984	n/a	n/a	n/a	-999	10	[2, 7, 2]	11.0	catFR1	3	R1497T
1083.366	0.0	1086055	STOP	n/a	n/a	n/a	n/a	-999	10	[-999, -999, -999]	n/a	catFR1	3	R1497T
1083.366	2.384	1086057	DISTRACT_END	n/a	n/a	n/a	n/a	-999	10	[0, 0, 0]	n/a	catFR1	3	R1497T
1085.75	0.276	1088440	REC_START	n/a	n/a	n/a	n/a	-999	10	[0, 0, 0]	n/a	catFR1	3	R1497T
1086.026	0.727	1088715	REC_WORD_VV	0.276	n/a	<>	n/a	-999	10	[0, 0, 0]	n/a	catFR1	3	R1497T
1086.753	0.999	1089442	REC_WORD	1.003	n/a	OCTOPUS	OceanAnimals	3	10	[0, 0, 0]	n/a	catFR1	3	R1497T
1087.752	1.341	1090441	REC_WORD	2.002	n/a	OCTOPUS	OceanAnimals	3	10	[0, 0, 0]	n/a	catFR1	3	R1497T
1089.093	1.17	1091782	REC_WORD	3.343	n/a	CRAB	OceanAnimals	10	10	[0, 0, 0]	n/a	catFR1	3	R1497T
1090.263	1.822	1092952	REC_WORD	4.513	n/a	DOLPHIN	OceanAnimals	4	10	[0, 0, 0]	n/a	catFR1	3	R1497T
1092.085	0.991	1094774	REC_WORD	6.335	n/a	FISH	OceanAnimals	9	10	[0, 0, 0]	n/a	catFR1	3	R1497T
1093.076	1.148	1095765	REC_WORD	7.326	n/a	SPINACH	Vegetables	11	10	[0, 0, 0]	n/a	catFR1	3	R1497T
1094.224	0.907	1096913	REC_WORD	8.474	n/a	PEAS	Vegetables	12	10	[0, 0, 0]	n/a	catFR1	3	R1497T
1095.131	0.959	1097820	REC_WORD	9.381	n/a	CARROT	Vegetables	5	10	[0, 0, 0]	n/a	catFR1	3	R1497T
1096.09	19.915	1098779	REC_WORD	10.34	n/a	CABBAGE	Vegetables	6	10	[0, 0, 0]	n/a	catFR1	3	R1497T
1116.005	2.211	1118681	REC_END	n/a	n/a	n/a	n/a	-999	10	[0, 0, 0]	n/a	catFR1	3	R1497T
1118.216	10.35	1120903	COUNTDOWN_START	n/a	n/a	n/a	n/a	-999	11	[0, 0, 0]	n/a	catFR1	3	R1497T
1128.566	0.0	1131242	COUNTDOWN_END	n/a	n/a	n/a	n/a	-999	11	[0, 0, 0]	n/a	catFR1	3	R1497T
1128.566	2.2	1131256	ENCODING_START	n/a	n/a	n/a	n/a	-999	11	[0, 0, 0]	n/a	catFR1	3	R1497T
1130.766	1.617	1133449	WORD	n/a	wordpools/wordpool_categorized_EN.txt	LEATHER	Fabric	1	11	[0, 0, 0]	n/a	catFR1	3	R1497T
1132.383	0.848	1135070	WORD_OFF	n/a	n/a	LEATHER	Fabric	1	11	[0, 0, 0]	n/a	catFR1	3	R1497T
1133.231	1.602	1135908	WORD	n/a	wordpools/wordpool_categorized_EN.txt	LINEN	Fabric	2	11	[0, 0, 0]	n/a	catFR1	3	R1497T
1134.833	0.783	1137515	WORD_OFF	n/a	n/a	LINEN	Fabric	2	11	[0, 0, 0]	n/a	catFR1	3	R1497T
1135.616	1.616	1138298	WORD	n/a	wordpools/wordpool_categorized_EN.txt	SKIRT	Clothing	3	11	[0, 0, 0]	n/a	catFR1	3	R1497T
1137.232	0.934	1139918	WORD_OFF	n/a	n/a	SKIRT	Clothing	3	11	[0, 0, 0]	n/a	catFR1	3	R1497T
1138.166	1.6	1140854	WORD	n/a	wordpools/wordpool_categorized_EN.txt	SHIRT	Clothing	4	11	[0, 0, 0]	n/a	catFR1	3	R1497T
1139.766	0.901	1142447	WORD_OFF	n/a	n/a	SHIRT	Clothing	4	11	[0, 0, 0]	n/a	catFR1	3	R1497T
1140.667	1.616	1143341	WORD	n/a	wordpools/wordpool_categorized_EN.txt	HEN	FarmAnimals	5	11	[0, 0, 0]	n/a	catFR1	3	R1497T
1142.283	0.883	1144962	WORD_OFF	n/a	n/a	HEN	FarmAnimals	5	11	[0, 0, 0]	n/a	catFR1	3	R1497T
1143.166	1.617	1145842	WORD	n/a	wordpools/wordpool_categorized_EN.txt	LAMB	FarmAnimals	6	11	[0, 0, 0]	n/a	catFR1	3	R1497T
1144.783	0.933	1147463	WORD_OFF	n/a	n/a	LAMB	FarmAnimals	6	11	[0, 0, 0]	n/a	catFR1	3	R1497T
1145.716	1.617	1148399	WORD	n/a	wordpools/wordpool_categorized_EN.txt	PANTS	Clothing	7	11	[0, 0, 0]	n/a	catFR1	3	R1497T
1147.333	0.766	1150020	WORD_OFF	n/a	n/a	PANTS	Clothing	7	11	[0, 0, 0]	n/a	catFR1	3	R1497T
1148.099	1.601	1150774	WORD	n/a	wordpools/wordpool_categorized_EN.txt	SHOES	Clothing	8	11	[0, 0, 0]	n/a	catFR1	3	R1497T
1149.7	0.816	1152381	WORD_OFF	n/a	n/a	SHOES	Clothing	8	11	[0, 0, 0]	n/a	catFR1	3	R1497T
1150.516	1.615	1153205	WORD	n/a	wordpools/wordpool_categorized_EN.txt	CALF	FarmAnimals	9	11	[0, 0, 0]	n/a	catFR1	3	R1497T
1152.131	0.968	1154812	WORD_OFF	n/a	n/a	CALF	FarmAnimals	9	11	[0, 0, 0]	n/a	catFR1	3	R1497T
1153.099	1.6	1155776	WORD	n/a	wordpools/wordpool_categorized_EN.txt	COW	FarmAnimals	10	11	[0, 0, 0]	n/a	catFR1	3	R1497T
1154.699	0.934	1157383	WORD_OFF	n/a	n/a	COW	FarmAnimals	10	11	[0, 0, 0]	n/a	catFR1	3	R1497T
1155.633	1.617	1158319	WORD	n/a	wordpools/wordpool_categorized_EN.txt	COTTON	Fabric	11	11	[0, 0, 0]	n/a	catFR1	3	R1497T
1157.25	0.916	1159926	WORD_OFF	n/a	n/a	COTTON	Fabric	11	11	[0, 0, 0]	n/a	catFR1	3	R1497T
1158.166	1.6	1160848	WORD	n/a	wordpools/wordpool_categorized_EN.txt	NYLON	Fabric	12	11	[0, 0, 0]	n/a	catFR1	3	R1497T
1159.766	0.001	1162441	WORD_OFF	n/a	n/a	NYLON	Fabric	12	11	[0, 0, 0]	n/a	catFR1	3	R1497T
1159.767	0.001	1162452	PROB	3.749	n/a	n/a	n/a	-999	11	[2, 3, 3]	8.0	catFR1	3	R1497T
1159.768	0.0	1162453	START	n/a	n/a	n/a	n/a	-999	11	[-999, -999, -999]	n/a	catFR1	3	R1497T
1159.768	0.0	1162455	ENCODING_END	n/a	n/a	n/a	n/a	-999	11	[0, 0, 0]	n/a	catFR1	3	R1497T
1159.768	3.766	1162455	DISTRACT_START	n/a	n/a	n/a	n/a	-999	11	[0, 0, 0]	n/a	catFR1	3	R1497T
1163.534	3.866	1166219	PROB	3.849	n/a	n/a	n/a	-999	11	[4, 4, 6]	14.0	catFR1	3	R1497T
1167.4	3.433	1170085	PROB	3.416	n/a	n/a	n/a	-999	11	[2, 4, 4]	10.0	catFR1	3	R1497T
1170.833	3.201	1173518	PROB	3.183	n/a	n/a	n/a	-999	11	[3, 8, 2]	13.0	catFR1	3	R1497T
1174.034	4.449	1176719	PROB	4.433	n/a	n/a	n/a	-999	11	[6, 2, 8]	16.0	catFR1	3	R1497T
1178.483	5.233	1181167	PROB	5.216	n/a	n/a	n/a	-999	11	[2, 8, 6]	16.0	catFR1	3	R1497T
1183.716	0.0	1186400	STOP	n/a	n/a	n/a	n/a	-999	11	[-999, -999, -999]	n/a	catFR1	3	R1497T
1183.716	2.067	1186402	DISTRACT_END	n/a	n/a	n/a	n/a	-999	11	[0, 0, 0]	n/a	catFR1	3	R1497T
1185.783	0.792	1188464	REC_START	n/a	n/a	n/a	n/a	-999	11	[0, 0, 0]	n/a	catFR1	3	R1497T
1186.575	1.031	1189259	REC_WORD	0.792	n/a	NYLON	Fabric	12	11	[0, 0, 0]	n/a	catFR1	3	R1497T
1187.606	2.183	1190290	REC_WORD	1.823	n/a	COTTON	Fabric	11	11	[0, 0, 0]	n/a	catFR1	3	R1497T
1189.789	1.522	1192473	REC_WORD	4.006	n/a	LINEN	Fabric	2	11	[0, 0, 0]	n/a	catFR1	3	R1497T
1191.311	1.606	1193995	REC_WORD	5.528	n/a	LEATHER	Fabric	1	11	[0, 0, 0]	n/a	catFR1	3	R1497T
1192.917	3.196	1195601	REC_WORD	7.134	n/a	SKIRT	Clothing	3	11	[0, 0, 0]	n/a	catFR1	3	R1497T
1196.113	1.213	1198796	REC_WORD	10.33	n/a	SHIRT	Clothing	4	11	[0, 0, 0]	n/a	catFR1	3	R1497T
1197.326	1.068	1200009	REC_WORD	11.543	n/a	SHOES	Clothing	8	11	[0, 0, 0]	n/a	catFR1	3	R1497T
1198.394	4.007	1201077	REC_WORD	12.611	n/a	PANTS	Clothing	7	11	[0, 0, 0]	n/a	catFR1	3	R1497T
1202.401	13.623	1205084	REC_WORD	16.618	n/a	COW	FarmAnimals	10	11	[0, 0, 0]	n/a	catFR1	3	R1497T
1216.024	1.959	1218705	REC_END	n/a	n/a	n/a	n/a	-999	11	[0, 0, 0]	n/a	catFR1	3	R1497T
1217.983	10.35	1220661	COUNTDOWN_START	n/a	n/a	n/a	n/a	-999	12	[0, 0, 0]	n/a	catFR1	3	R1497T
1228.333	0.0	1231014	COUNTDOWN_END	n/a	n/a	n/a	n/a	-999	12	[0, 0, 0]	n/a	catFR1	3	R1497T
1228.333	1.967	1231014	ENCODING_START	n/a	n/a	n/a	n/a	-999	12	[0, 0, 0]	n/a	catFR1	3	R1497T
1230.3	1.616	1232971	WORD	n/a	wordpools/wordpool_categorized_EN.txt	PAPER	OfficeSupplies	1	12	[0, 0, 0]	n/a	catFR1	3	R1497T
1231.916	0.767	1234591	WORD_OFF	n/a	n/a	PAPER	OfficeSupplies	1	12	[0, 0, 0]	n/a	catFR1	3	R1497T
1232.683	1.6	1235360	WORD	n/a	wordpools/wordpool_categorized_EN.txt	PENCIL	OfficeSupplies	2	12	[0, 0, 0]	n/a	catFR1	3	R1497T
1234.283	1.028	1236966	WORD_OFF	n/a	n/a	PENCIL	OfficeSupplies	2	12	[0, 0, 0]	n/a	catFR1	3	R1497T
1235.311	1.604	1237986	WORD	n/a	wordpools/wordpool_categorized_EN.txt	SHORTS	Clothing	3	12	[0, 0, 0]	n/a	catFR1	3	R1497T
1236.915	0.985	1239593	WORD_OFF	n/a	n/a	SHORTS	Clothing	3	12	[0, 0, 0]	n/a	catFR1	3	R1497T
1237.9	1.6	1240571	WORD	n/a	wordpools/wordpool_categorized_EN.txt	SOCKS	Clothing	4	12	[0, 0, 0]	n/a	catFR1	3	R1497T
1239.5	0.782	1242178	WORD_OFF	n/a	n/a	SOCKS	Clothing	4	12	[0, 0, 0]	n/a	catFR1	3	R1497T
1240.282	1.601	1242960	WORD	n/a	wordpools/wordpool_categorized_EN.txt	CRICKET	Insects	5	12	[0, 0, 0]	n/a	catFR1	3	R1497T
1241.883	0.767	1244553	WORD_OFF	n/a	n/a	CRICKET	Insects	5	12	[0, 0, 0]	n/a	catFR1	3	R1497T
1242.65	1.616	1245322	WORD	n/a	wordpools/wordpool_categorized_EN.txt	BUTTERFLY	Insects	6	12	[0, 0, 0]	n/a	catFR1	3	R1497T
1244.266	0.967	1246942	WORD_OFF	n/a	n/a	BUTTERFLY	Insects	6	12	[0, 0, 0]	n/a	catFR1	3	R1497T
1245.233	1.6	1247906	WORD	n/a	wordpools/wordpool_categorized_EN.txt	TAPE	OfficeSupplies	7	12	[0, 0, 0]	n/a	catFR1	3	R1497T
1246.833	0.85	1249513	WORD_OFF	n/a	n/a	TAPE	OfficeSupplies	7	12	[0, 0, 0]	n/a	catFR1	3	R1497T
1247.683	1.6	1250365	WORD	n/a	wordpools/wordpool_categorized_EN.txt	PEN	OfficeSupplies	8	12	[0, 0, 0]	n/a	catFR1	3	R1497T
1249.283	0.833	1251958	WORD_OFF	n/a	n/a	PEN	OfficeSupplies	8	12	[0, 0, 0]	n/a	catFR1	3	R1497T
1250.116	1.6	1252797	WORD	n/a	wordpools/wordpool_categorized_EN.txt	DRESS	Clothing	9	12	[0, 0, 0]	n/a	catFR1	3	R1497T
1251.716	0.817	1254389	WORD_OFF	n/a	n/a	DRESS	Clothing	9	12	[0, 0, 0]	n/a	catFR1	3	R1497T
1252.533	1.6	1255214	WORD	n/a	wordpools/wordpool_categorized_EN.txt	JEANS	Clothing	10	12	[0, 0, 0]	n/a	catFR1	3	R1497T
1254.133	0.833	1256806	WORD_OFF	n/a	n/a	JEANS	Clothing	10	12	[0, 0, 0]	n/a	catFR1	3	R1497T
1254.966	1.6	1257645	WORD	n/a	wordpools/wordpool_categorized_EN.txt	GNAT	Insects	11	12	[0, 0, 0]	n/a	catFR1	3	R1497T
1256.566	0.95	1259238	WORD_OFF	n/a	n/a	GNAT	Insects	11	12	[0, 0, 0]	n/a	catFR1	3	R1497T
1257.516	1.617	1260188	WORD	n/a	wordpools/wordpool_categorized_EN.txt	FLY	Insects	12	12	[0, 0, 0]	n/a	catFR1	3	R1497T
1259.133	0.002	1261808	WORD_OFF	n/a	n/a	FLY	Insects	12	12	[0, 0, 0]	n/a	catFR1	3	R1497T
1259.135	0.0	1261808	ENCODING_END	n/a	n/a	n/a	n/a	-999	12	[0, 0, 0]	n/a	catFR1	3	R1497T
1259.135	0.0	1261808	DISTRACT_START	n/a	n/a	n/a	n/a	-999	12	[0, 0, 0]	n/a	catFR1	3	R1497T
1259.134	0.001	1261814	PROB	4.949	n/a	n/a	n/a	-999	12	[7, 5, 7]	19.0	catFR1	3	R1497T
1259.135	4.965	1261815	START	n/a	n/a	n/a	n/a	-999	12	[-999, -999, -999]	n/a	catFR1	3	R1497T
1264.1	4.383	1266780	PROB	4.366	n/a	n/a	n/a	-999	12	[4, 4, 6]	14.0	catFR1	3	R1497T
1268.483	3.084	1271163	PROB	3.066	n/a	n/a	n/a	-999	12	[7, 7, 1]	15.0	catFR1	3	R1497T
1271.567	4.533	1274247	PROB	4.516	n/a	n/a	n/a	-999	12	[8, 5, 5]	18.0	catFR1	3	R1497T
1276.1	9.466	1278779	PROB	9.449	n/a	n/a	n/a	-999	12	[8, 6, 8]	22.0	catFR1	3	R1497T
1285.566	0.0	1288243	DISTRACT_END	n/a	n/a	n/a	n/a	-999	12	[0, 0, 0]	n/a	catFR1	3	R1497T
1285.566	2.099	1288245	STOP	n/a	n/a	n/a	n/a	-999	12	[-999, -999, -999]	n/a	catFR1	3	R1497T
1287.665	2.057	1290333	REC_START	n/a	n/a	n/a	n/a	-999	12	[0, 0, 0]	n/a	catFR1	3	R1497T
1289.722	2.557	1292401	REC_WORD	2.057	n/a	BUTTERFLY	Insects	6	12	[0, 0, 0]	n/a	catFR1	3	R1497T
1292.279	1.232	1294958	REC_WORD	4.614	n/a	JEANS	Clothing	10	12	[0, 0, 0]	n/a	catFR1	3	R1497T
1293.511	5.321	1296190	REC_WORD	5.846	n/a	SHORTS	Clothing	3	12	[0, 0, 0]	n/a	catFR1	3	R1497T
1298.832	2.729	1301510	REC_WORD	11.167	n/a	PENCIL	OfficeSupplies	2	12	[0, 0, 0]	n/a	catFR1	3	R1497T
1301.561	0.673	1304239	REC_WORD	13.896	n/a	PAPER	OfficeSupplies	1	12	[0, 0, 0]	n/a	catFR1	3	R1497T
1302.234	15.67	1304912	REC_WORD	14.569	n/a	TAPE	OfficeSupplies	7	12	[0, 0, 0]	n/a	catFR1	3	R1497T
1317.904	0.0	1320574	REC_END	n/a	n/a	n/a	n/a	-999	12	[0, 0, 0]	n/a	catFR1	3	R1497T
