onset	duration	sample	trial_type	response_time	stim_file	item_name	category	serialpos	list	test	answer	experiment	session	subject
0.0	164.781	268908	INSTRUCT_START	n/a	n/a	n/a	n/a	-999	-999	[0, 0, 0]	n/a	catFR1	0	R1482J
164.781	112.135	433680	INSTRUCT_END	n/a	n/a	n/a	n/a	-999	-999	[0, 0, 0]	n/a	catFR1	0	R1482J
276.916	10.349	545807	COUNTDOWN_START	n/a	n/a	n/a	n/a	-999	-999	[0, 0, 0]	n/a	catFR1	0	R1482J
287.265	0.0	556157	COUNTDOWN_END	n/a	n/a	n/a	n/a	-999	-999	[0, 0, 0]	n/a	catFR1	0	R1482J
287.265	1.868	556157	ENCODING_START	n/a	n/a	n/a	n/a	-999	-1	[0, 0, 0]	n/a	catFR1	0	R1482J
289.133	1.599	558026	WORD	n/a	n/a	ATTIC	Building	1	-1	[0, 0, 0]	n/a	catFR1	0	R1482J
290.732	0.833	559626	WORD_OFF	n/a	n/a	ATTIC	Building	1	-1	[0, 0, 0]	n/a	catFR1	0	R1482J
291.565	1.617	560456	WORD	n/a	n/a	CEILING	Building	2	-1	[0, 0, 0]	n/a	catFR1	0	R1482J
293.182	0.85	562071	WORD_OFF	n/a	n/a	CEILING	Building	2	-1	[0, 0, 0]	n/a	catFR1	0	R1482J
294.032	1.6	562925	WORD	n/a	n/a	TONGS	KitchenTools	3	-1	[0, 0, 0]	n/a	catFR1	0	R1482J
295.632	1.0	564524	WORD_OFF	n/a	n/a	TONGS	KitchenTools	3	-1	[0, 0, 0]	n/a	catFR1	0	R1482J
296.632	1.6	565524	WORD	n/a	n/a	SPOON	KitchenTools	4	-1	[0, 0, 0]	n/a	catFR1	0	R1482J
298.232	0.917	567123	WORD_OFF	n/a	n/a	SPOON	KitchenTools	4	-1	[0, 0, 0]	n/a	catFR1	0	R1482J
299.149	1.617	568038	WORD	n/a	n/a	HILLS	Landscapes	5	-1	[0, 0, 0]	n/a	catFR1	0	R1482J
300.766	0.883	569653	WORD_OFF	n/a	n/a	HILLS	Landscapes	5	-1	[0, 0, 0]	n/a	catFR1	0	R1482J
301.649	1.6	570538	WORD	n/a	n/a	BEACH	Landscapes	6	-1	[0, 0, 0]	n/a	catFR1	0	R1482J
303.249	0.883	572137	WORD_OFF	n/a	n/a	BEACH	Landscapes	6	-1	[0, 0, 0]	n/a	catFR1	0	R1482J
304.132	1.617	573021	WORD	n/a	n/a	COLANDER	KitchenTools	7	-1	[0, 0, 0]	n/a	catFR1	0	R1482J
305.749	0.765	574636	WORD_OFF	n/a	n/a	COLANDER	KitchenTools	7	-1	[0, 0, 0]	n/a	catFR1	0	R1482J
306.514	1.617	575405	WORD	n/a	n/a	WHISK	KitchenTools	8	-1	[0, 0, 0]	n/a	catFR1	0	R1482J
308.131	0.984	577020	WORD_OFF	n/a	n/a	WHISK	KitchenTools	8	-1	[0, 0, 0]	n/a	catFR1	0	R1482J
309.115	1.6	578005	WORD	n/a	n/a	DOOR	Building	9	-1	[0, 0, 0]	n/a	catFR1	0	R1482J
310.715	0.767	579604	WORD_OFF	n/a	n/a	DOOR	Building	9	-1	[0, 0, 0]	n/a	catFR1	0	R1482J
311.482	1.6	580373	WORD	n/a	n/a	FOUNDATION	Building	10	-1	[0, 0, 0]	n/a	catFR1	0	R1482J
313.082	0.883	581973	WORD_OFF	n/a	n/a	FOUNDATION	Building	10	-1	[0, 0, 0]	n/a	catFR1	0	R1482J
313.965	1.617	582857	WORD	n/a	n/a	MOUNTAIN	Landscapes	11	-1	[0, 0, 0]	n/a	catFR1	0	R1482J
315.582	0.85	584472	WORD_OFF	n/a	n/a	MOUNTAIN	Landscapes	11	-1	[0, 0, 0]	n/a	catFR1	0	R1482J
316.432	1.6	585325	WORD	n/a	n/a	WOODS	Landscapes	12	-1	[0, 0, 0]	n/a	catFR1	0	R1482J
318.032	0.003	586925	WORD_OFF	n/a	n/a	WOODS	Landscapes	12	-1	[0, 0, 0]	n/a	catFR1	0	R1482J
318.035	0.001	586925	ENCODING_END	n/a	n/a	n/a	n/a	-999	-1	[0, 0, 0]	n/a	catFR1	0	R1482J
318.036	0.0	586925	DISTRACT_START	n/a	n/a	n/a	n/a	-999	-1	[0, 0, 0]	n/a	catFR1	0	R1482J
318.034	0.002	586927	PROB	0.002	n/a	n/a	n/a	-999	-1	[2, 3, 7]	12	catFR1	0	R1482J
318.036	6.846	586929	START	n/a	n/a	n/a	n/a	-999	-1	[-999, -999, -999]	n/a	catFR1	0	R1482J
324.882	4.668	593775	PROB	4.668	n/a	n/a	n/a	-999	-1	[3, 5, 7]	15	catFR1	0	R1482J
329.55	5.016	598443	PROB	5.016	n/a	n/a	n/a	-999	-1	[2, 4, 1]	7	catFR1	0	R1482J
334.566	5.95	603459	PROB	5.95	n/a	n/a	n/a	-999	-1	[3, 7, 8]	18	catFR1	0	R1482J
340.516	0.0	609402	DISTRACT_END	n/a	n/a	n/a	n/a	-999	-1	[0, 0, 0]	n/a	catFR1	0	R1482J
340.516	1.383	609408	STOP	n/a	n/a	n/a	n/a	-999	-1	[-999, -999, -999]	n/a	catFR1	0	R1482J
341.899	4.03	610787	REC_START	n/a	n/a	n/a	n/a	-999	-1	[0, 0, 0]	n/a	catFR1	0	R1482J
345.929	0.829	614821	REC_WORD	0.829	n/a	ATTIC	Building	1	-1	[0, 0, 0]	n/a	catFR1	0	R1482J
346.758	0.76	615650	REC_WORD	0.76	n/a	CEILING	Building	2	-1	[0, 0, 0]	n/a	catFR1	0	R1482J
347.518	0.474	616410	REC_WORD	0.474	n/a	TONGS	KitchenTools	3	-1	[0, 0, 0]	n/a	catFR1	0	R1482J
347.992	1.932	616884	REC_WORD	1.932	n/a	SPOON	KitchenTools	4	-1	[0, 0, 0]	n/a	catFR1	0	R1482J
349.924	1.743	618816	REC_WORD	1.743	n/a	MOUNTAIN	Landscapes	11	-1	[0, 0, 0]	n/a	catFR1	0	R1482J
351.667	21.415	620559	REC_WORD	21.415	n/a	WHISK	KitchenTools	8	-1	[0, 0, 0]	n/a	catFR1	0	R1482J
373.082	17.315	641969	REC_END	n/a	n/a	n/a	n/a	-999	-1	[0, 0, 0]	n/a	catFR1	0	R1482J
390.397	10.35	659287	COUNTDOWN_START	n/a	n/a	n/a	n/a	-999	1	[0, 0, 0]	n/a	catFR1	0	R1482J
400.747	0.0	669630	COUNTDOWN_END	n/a	n/a	n/a	n/a	-999	1	[0, 0, 0]	n/a	catFR1	0	R1482J
400.747	2.334	669638	ENCODING_START	n/a	n/a	n/a	n/a	-999	1	[0, 0, 0]	n/a	catFR1	0	R1482J
403.081	1.616	671968	WORD	n/a	wordpools/wordpool_categorized_EN.txt	COFFEE	Beverages	1	1	[0, 0, 0]	n/a	catFR1	0	R1482J
404.697	0.901	673583	WORD_OFF	n/a	n/a	COFFEE	Beverages	1	1	[0, 0, 0]	n/a	catFR1	0	R1482J
405.598	1.616	674482	WORD	n/a	wordpools/wordpool_categorized_EN.txt	SODA	Beverages	2	1	[0, 0, 0]	n/a	catFR1	0	R1482J
407.214	0.816	676097	WORD_OFF	n/a	n/a	SODA	Beverages	2	1	[0, 0, 0]	n/a	catFR1	0	R1482J
408.03	1.602	676920	WORD	n/a	wordpools/wordpool_categorized_EN.txt	TULIP	Flowers	3	1	[0, 0, 0]	n/a	catFR1	0	R1482J
409.632	0.898	678519	WORD_OFF	n/a	n/a	TULIP	Flowers	3	1	[0, 0, 0]	n/a	catFR1	0	R1482J
410.53	1.601	679419	WORD	n/a	wordpools/wordpool_categorized_EN.txt	PETUNIA	Flowers	4	1	[0, 0, 0]	n/a	catFR1	0	R1482J
412.131	0.918	681019	WORD_OFF	n/a	n/a	PETUNIA	Flowers	4	1	[0, 0, 0]	n/a	catFR1	0	R1482J
413.049	1.614	681934	WORD	n/a	wordpools/wordpool_categorized_EN.txt	HAMMER	Tools	5	1	[0, 0, 0]	n/a	catFR1	0	R1482J
414.663	0.851	683549	WORD_OFF	n/a	n/a	HAMMER	Tools	5	1	[0, 0, 0]	n/a	catFR1	0	R1482J
415.514	1.601	684402	WORD	n/a	wordpools/wordpool_categorized_EN.txt	SAW	Tools	6	1	[0, 0, 0]	n/a	catFR1	0	R1482J
417.115	0.865	686002	WORD_OFF	n/a	n/a	SAW	Tools	6	1	[0, 0, 0]	n/a	catFR1	0	R1482J
417.98	1.601	686863	WORD	n/a	wordpools/wordpool_categorized_EN.txt	BEER	Beverages	7	1	[0, 0, 0]	n/a	catFR1	0	R1482J
419.581	0.934	688470	WORD_OFF	n/a	n/a	BEER	Beverages	7	1	[0, 0, 0]	n/a	catFR1	0	R1482J
420.515	1.616	689401	WORD	n/a	wordpools/wordpool_categorized_EN.txt	TEA	Beverages	8	1	[0, 0, 0]	n/a	catFR1	0	R1482J
422.131	0.983	691016	WORD_OFF	n/a	n/a	TEA	Beverages	8	1	[0, 0, 0]	n/a	catFR1	0	R1482J
423.114	1.6	692000	WORD	n/a	wordpools/wordpool_categorized_EN.txt	DRILL	Tools	9	1	[0, 0, 0]	n/a	catFR1	0	R1482J
424.714	0.783	693599	WORD_OFF	n/a	n/a	DRILL	Tools	9	1	[0, 0, 0]	n/a	catFR1	0	R1482J
425.497	1.617	694384	WORD	n/a	wordpools/wordpool_categorized_EN.txt	RATCHET	Tools	10	1	[0, 0, 0]	n/a	catFR1	0	R1482J
427.114	0.8	695999	WORD_OFF	n/a	n/a	RATCHET	Tools	10	1	[0, 0, 0]	n/a	catFR1	0	R1482J
427.914	1.6	696798	WORD	n/a	wordpools/wordpool_categorized_EN.txt	ROSE	Flowers	11	1	[0, 0, 0]	n/a	catFR1	0	R1482J
429.514	0.966	698398	WORD_OFF	n/a	n/a	ROSE	Flowers	11	1	[0, 0, 0]	n/a	catFR1	0	R1482J
430.48	1.601	699367	WORD	n/a	wordpools/wordpool_categorized_EN.txt	DAFFODIL	Flowers	12	1	[0, 0, 0]	n/a	catFR1	0	R1482J
432.081	0.001	700966	WORD_OFF	n/a	n/a	DAFFODIL	Flowers	12	1	[0, 0, 0]	n/a	catFR1	0	R1482J
432.082	0.0	700966	ENCODING_END	n/a	n/a	n/a	n/a	-999	1	[0, 0, 0]	n/a	catFR1	0	R1482J
432.081	0.001	700970	PROB	0.001	n/a	n/a	n/a	-999	1	[2, 2, 6]	10	catFR1	0	R1482J
432.082	0.0	700971	START	n/a	n/a	n/a	n/a	-999	1	[-999, -999, -999]	n/a	catFR1	0	R1482J
432.082	7.716	700974	DISTRACT_START	n/a	n/a	n/a	n/a	-999	1	[0, 0, 0]	n/a	catFR1	0	R1482J
439.798	3.365	708686	PROB	3.365	n/a	n/a	n/a	-999	1	[1, 5, 5]	11	catFR1	0	R1482J
443.163	4.068	712051	PROB	4.068	n/a	n/a	n/a	-999	1	[2, 8, 2]	12	catFR1	0	R1482J
447.231	8.049	716119	PROB	8.049	n/a	n/a	n/a	-999	1	[7, 2, 3]	12	catFR1	0	R1482J
455.28	0.0	724167	DISTRACT_END	n/a	n/a	n/a	n/a	-999	1	[0, 0, 0]	n/a	catFR1	0	R1482J
455.28	1.3	724168	STOP	n/a	n/a	n/a	n/a	-999	1	[-999, -999, -999]	n/a	catFR1	0	R1482J
456.58	3.302	725466	REC_START	n/a	n/a	n/a	n/a	-999	1	[0, 0, 0]	n/a	catFR1	0	R1482J
459.882	0.592	728769	REC_WORD	0.592	n/a	COFFEE	Beverages	1	1	[0, 0, 0]	n/a	catFR1	0	R1482J
460.474	2.38	729361	REC_WORD	2.38	n/a	SODA	Beverages	2	1	[0, 0, 0]	n/a	catFR1	0	R1482J
462.854	8.581	731741	REC_WORD	8.581	n/a	RATCHET	Tools	10	1	[0, 0, 0]	n/a	catFR1	0	R1482J
471.435	1.619	740322	REC_WORD	1.619	n/a	TULIP	Flowers	3	1	[0, 0, 0]	n/a	catFR1	0	R1482J
473.054	14.707	741941	REC_WORD	14.707	n/a	DAFFODIL	Flowers	12	1	[0, 0, 0]	n/a	catFR1	0	R1482J
487.761	2.303	756649	REC_END	n/a	n/a	n/a	n/a	-999	1	[0, 0, 0]	n/a	catFR1	0	R1482J
490.064	10.351	758948	COUNTDOWN_START	n/a	n/a	n/a	n/a	-999	1	[0, 0, 0]	n/a	catFR1	0	R1482J
500.415	0.0	769299	COUNTDOWN_END	n/a	n/a	n/a	n/a	-999	1	[0, 0, 0]	n/a	catFR1	0	R1482J
500.415	2.067	769299	ENCODING_START	n/a	n/a	n/a	n/a	-999	2	[0, 0, 0]	n/a	catFR1	0	R1482J
502.482	1.6	771368	WORD	n/a	wordpools/wordpool_categorized_EN.txt	OCEAN	Landscapes	1	2	[0, 0, 0]	n/a	catFR1	0	R1482J
504.082	0.85	772967	WORD_OFF	n/a	n/a	OCEAN	Landscapes	1	2	[0, 0, 0]	n/a	catFR1	0	R1482J
504.932	1.6	773813	WORD	n/a	wordpools/wordpool_categorized_EN.txt	FOREST	Landscapes	2	2	[0, 0, 0]	n/a	catFR1	0	R1482J
506.532	0.9	775412	WORD_OFF	n/a	n/a	FOREST	Landscapes	2	2	[0, 0, 0]	n/a	catFR1	0	R1482J
507.432	1.617	776312	WORD	n/a	wordpools/wordpool_categorized_EN.txt	PIE	Desserts	3	2	[0, 0, 0]	n/a	catFR1	0	R1482J
509.049	0.967	777935	WORD_OFF	n/a	n/a	PIE	Desserts	3	2	[0, 0, 0]	n/a	catFR1	0	R1482J
510.016	1.6	778896	WORD	n/a	wordpools/wordpool_categorized_EN.txt	COOKIE	Desserts	4	2	[0, 0, 0]	n/a	catFR1	0	R1482J
511.616	0.816	780496	WORD_OFF	n/a	n/a	COOKIE	Desserts	4	2	[0, 0, 0]	n/a	catFR1	0	R1482J
512.432	1.617	781318	WORD	n/a	wordpools/wordpool_categorized_EN.txt	PANDA	Zoo	5	2	[0, 0, 0]	n/a	catFR1	0	R1482J
514.049	0.782	782933	WORD_OFF	n/a	n/a	PANDA	Zoo	5	2	[0, 0, 0]	n/a	catFR1	0	R1482J
514.831	1.601	783710	WORD	n/a	wordpools/wordpool_categorized_EN.txt	BEAR	Zoo	6	2	[0, 0, 0]	n/a	catFR1	0	R1482J
516.432	0.767	785317	WORD_OFF	n/a	n/a	BEAR	Zoo	6	2	[0, 0, 0]	n/a	catFR1	0	R1482J
517.199	1.617	786078	WORD	n/a	wordpools/wordpool_categorized_EN.txt	RIVER	Landscapes	7	2	[0, 0, 0]	n/a	catFR1	0	R1482J
518.816	0.916	787701	WORD_OFF	n/a	n/a	RIVER	Landscapes	7	2	[0, 0, 0]	n/a	catFR1	0	R1482J
519.732	1.6	788616	WORD	n/a	wordpools/wordpool_categorized_EN.txt	ISLAND	Landscapes	8	2	[0, 0, 0]	n/a	catFR1	0	R1482J
521.332	0.9	790216	WORD_OFF	n/a	n/a	ISLAND	Landscapes	8	2	[0, 0, 0]	n/a	catFR1	0	R1482J
522.232	1.6	791115	WORD	n/a	wordpools/wordpool_categorized_EN.txt	ORANGUTAN	Zoo	9	2	[0, 0, 0]	n/a	catFR1	0	R1482J
523.832	0.834	792715	WORD_OFF	n/a	n/a	ORANGUTAN	Zoo	9	2	[0, 0, 0]	n/a	catFR1	0	R1482J
524.666	1.616	793545	WORD	n/a	wordpools/wordpool_categorized_EN.txt	ELEPHANT	Zoo	10	2	[0, 0, 0]	n/a	catFR1	0	R1482J
526.282	0.834	795168	WORD_OFF	n/a	n/a	ELEPHANT	Zoo	10	2	[0, 0, 0]	n/a	catFR1	0	R1482J
527.116	1.599	795998	WORD	n/a	wordpools/wordpool_categorized_EN.txt	CHEESECAKE	Desserts	11	2	[0, 0, 0]	n/a	catFR1	0	R1482J
528.715	1.001	797598	WORD_OFF	n/a	n/a	CHEESECAKE	Desserts	11	2	[0, 0, 0]	n/a	catFR1	0	R1482J
529.716	1.616	798598	WORD	n/a	wordpools/wordpool_categorized_EN.txt	JELLO	Desserts	12	2	[0, 0, 0]	n/a	catFR1	0	R1482J
531.332	0.002	800212	WORD_OFF	n/a	n/a	JELLO	Desserts	12	2	[0, 0, 0]	n/a	catFR1	0	R1482J
531.334	0.0	800212	ENCODING_END	n/a	n/a	n/a	n/a	-999	2	[0, 0, 0]	n/a	catFR1	0	R1482J
531.333	0.001	800218	PROB	0.001	n/a	n/a	n/a	-999	2	[4, 1, 3]	8	catFR1	0	R1482J
531.334	0.0	800219	START	n/a	n/a	n/a	n/a	-999	2	[-999, -999, -999]	n/a	catFR1	0	R1482J
531.334	4.632	800220	DISTRACT_START	n/a	n/a	n/a	n/a	-999	2	[0, 0, 0]	n/a	catFR1	0	R1482J
535.966	6.799	804850	PROB	6.799	n/a	n/a	n/a	-999	2	[1, 5, 2]	8	catFR1	0	R1482J
542.765	7.2	811649	PROB	7.2	n/a	n/a	n/a	-999	2	[5, 7, 4]	16	catFR1	0	R1482J
549.965	4.55	818849	PROB	4.55	n/a	n/a	n/a	-999	2	[1, 4, 6]	11	catFR1	0	R1482J
554.515	0.0	823398	DISTRACT_END	n/a	n/a	n/a	n/a	-999	2	[0, 0, 0]	n/a	catFR1	0	R1482J
554.515	1.033	823399	STOP	n/a	n/a	n/a	n/a	-999	2	[-999, -999, -999]	n/a	catFR1	0	R1482J
555.548	2.043	824428	REC_START	n/a	n/a	n/a	n/a	-999	2	[0, 0, 0]	n/a	catFR1	0	R1482J
557.591	1.731	826474	REC_WORD	1.731	n/a	OCEAN	Landscapes	1	2	[0, 0, 0]	n/a	catFR1	0	R1482J
559.322	0.903	828205	REC_WORD	0.903	n/a	ORANGUTAN	Zoo	9	2	[0, 0, 0]	n/a	catFR1	0	R1482J
560.225	15.474	829108	REC_WORD	15.474	n/a	ELEPHANT	Zoo	10	2	[0, 0, 0]	n/a	catFR1	0	R1482J
575.699	8.183	844582	REC_WORD	8.183	n/a	ARMAP	n/a	-999	2	[0, 0, 0]	n/a	catFR1	0	R1482J
583.882	2.869	852764	REC_WORD	2.869	n/a	SAW	Tools	-999	2	[0, 0, 0]	n/a	catFR1	0	R1482J
586.751	3.798	855634	REC_END	n/a	n/a	n/a	n/a	-999	2	[0, 0, 0]	n/a	catFR1	0	R1482J
590.549	10.349	859432	COUNTDOWN_START	n/a	n/a	n/a	n/a	-999	2	[0, 0, 0]	n/a	catFR1	0	R1482J
600.898	0.0	869775	COUNTDOWN_END	n/a	n/a	n/a	n/a	-999	2	[0, 0, 0]	n/a	catFR1	0	R1482J
600.898	2.034	869775	ENCODING_START	n/a	n/a	n/a	n/a	-999	3	[0, 0, 0]	n/a	catFR1	0	R1482J
602.932	1.6	871813	WORD	n/a	wordpools/wordpool_categorized_EN.txt	FOOTBALL	Toys	1	3	[0, 0, 0]	n/a	catFR1	0	R1482J
604.532	0.765	873413	WORD_OFF	n/a	n/a	FOOTBALL	Toys	1	3	[0, 0, 0]	n/a	catFR1	0	R1482J
605.297	1.602	874174	WORD	n/a	wordpools/wordpool_categorized_EN.txt	BASEBALL	Toys	2	3	[0, 0, 0]	n/a	catFR1	0	R1482J
606.899	0.783	875781	WORD_OFF	n/a	n/a	BASEBALL	Toys	2	3	[0, 0, 0]	n/a	catFR1	0	R1482J
607.682	1.6	876558	WORD	n/a	wordpools/wordpool_categorized_EN.txt	WALL	Building	3	3	[0, 0, 0]	n/a	catFR1	0	R1482J
609.282	0.783	878157	WORD_OFF	n/a	n/a	WALL	Building	3	3	[0, 0, 0]	n/a	catFR1	0	R1482J
610.065	1.6	878942	WORD	n/a	wordpools/wordpool_categorized_EN.txt	STAIRS	Building	4	3	[0, 0, 0]	n/a	catFR1	0	R1482J
611.665	0.917	880541	WORD_OFF	n/a	n/a	STAIRS	Building	4	3	[0, 0, 0]	n/a	catFR1	0	R1482J
612.582	1.6	881464	WORD	n/a	wordpools/wordpool_categorized_EN.txt	PLANE	Vehicles	5	3	[0, 0, 0]	n/a	catFR1	0	R1482J
614.182	0.832	883064	WORD_OFF	n/a	n/a	PLANE	Vehicles	5	3	[0, 0, 0]	n/a	catFR1	0	R1482J
615.014	1.602	883894	WORD	n/a	wordpools/wordpool_categorized_EN.txt	BUS	Vehicles	6	3	[0, 0, 0]	n/a	catFR1	0	R1482J
616.616	0.85	885494	WORD_OFF	n/a	n/a	BUS	Vehicles	6	3	[0, 0, 0]	n/a	catFR1	0	R1482J
617.466	1.6	886347	WORD	n/a	wordpools/wordpool_categorized_EN.txt	BARBIE	Toys	7	3	[0, 0, 0]	n/a	catFR1	0	R1482J
619.066	0.816	887947	WORD_OFF	n/a	n/a	BARBIE	Toys	7	3	[0, 0, 0]	n/a	catFR1	0	R1482J
619.882	1.617	888762	WORD	n/a	wordpools/wordpool_categorized_EN.txt	BLOCKS	Toys	8	3	[0, 0, 0]	n/a	catFR1	0	R1482J
621.499	0.883	890377	WORD_OFF	n/a	n/a	BLOCKS	Toys	8	3	[0, 0, 0]	n/a	catFR1	0	R1482J
622.382	1.6	891261	WORD	n/a	wordpools/wordpool_categorized_EN.txt	BATHROOM	Building	9	3	[0, 0, 0]	n/a	catFR1	0	R1482J
623.982	0.982	892861	WORD_OFF	n/a	n/a	BATHROOM	Building	9	3	[0, 0, 0]	n/a	catFR1	0	R1482J
624.964	1.602	893845	WORD	n/a	wordpools/wordpool_categorized_EN.txt	FLOOR	Building	10	3	[0, 0, 0]	n/a	catFR1	0	R1482J
626.566	0.767	895444	WORD_OFF	n/a	n/a	FLOOR	Building	10	3	[0, 0, 0]	n/a	catFR1	0	R1482J
627.333	1.599	896213	WORD	n/a	wordpools/wordpool_categorized_EN.txt	VAN	Vehicles	11	3	[0, 0, 0]	n/a	catFR1	0	R1482J
628.932	0.85	897813	WORD_OFF	n/a	n/a	VAN	Vehicles	11	3	[0, 0, 0]	n/a	catFR1	0	R1482J
629.782	1.6	898659	WORD	n/a	wordpools/wordpool_categorized_EN.txt	TRUCK	Vehicles	12	3	[0, 0, 0]	n/a	catFR1	0	R1482J
631.382	0.001	900258	WORD_OFF	n/a	n/a	TRUCK	Vehicles	12	3	[0, 0, 0]	n/a	catFR1	0	R1482J
631.383	0.0	900258	ENCODING_END	n/a	n/a	n/a	n/a	-999	3	[0, 0, 0]	n/a	catFR1	0	R1482J
631.382	0.001	900262	PROB	0.001	n/a	n/a	n/a	-999	3	[7, 8, 8]	23	catFR1	0	R1482J
631.383	0.0	900263	START	n/a	n/a	n/a	n/a	-999	3	[-999, -999, -999]	n/a	catFR1	0	R1482J
631.383	25.698	900266	DISTRACT_START	n/a	n/a	n/a	n/a	-999	3	[0, 0, 0]	n/a	catFR1	0	R1482J
657.081	0.0	925958	DISTRACT_END	n/a	n/a	n/a	n/a	-999	3	[0, 0, 0]	n/a	catFR1	0	R1482J
657.081	1.067	925960	STOP	n/a	n/a	n/a	n/a	-999	3	[-999, -999, -999]	n/a	catFR1	0	R1482J
658.148	6.31	927027	REC_START	n/a	n/a	n/a	n/a	-999	3	[0, 0, 0]	n/a	catFR1	0	R1482J
664.458	0.735	933337	REC_WORD_VV	0.735	n/a	<>	n/a	-999	3	[0, 0, 0]	n/a	catFR1	0	R1482J
665.193	0.834	934072	REC_WORD	0.834	n/a	BASEBALL	Toys	2	3	[0, 0, 0]	n/a	catFR1	0	R1482J
666.027	2.596	934906	REC_WORD	2.596	n/a	BASKETBALL	n/a	-999	3	[0, 0, 0]	n/a	catFR1	0	R1482J
668.623	2.38	937502	REC_WORD	2.38	n/a	WALL	Building	3	3	[0, 0, 0]	n/a	catFR1	0	R1482J
671.003	18.355	939882	REC_WORD	18.355	n/a	BARBIE	Toys	7	3	[0, 0, 0]	n/a	catFR1	0	R1482J
689.358	1.923	958233	REC_END	n/a	n/a	n/a	n/a	-999	3	[0, 0, 0]	n/a	catFR1	0	R1482J
691.281	10.349	960155	COUNTDOWN_START	n/a	n/a	n/a	n/a	-999	3	[0, 0, 0]	n/a	catFR1	0	R1482J
701.63	0.0	970506	COUNTDOWN_END	n/a	n/a	n/a	n/a	-999	3	[0, 0, 0]	n/a	catFR1	0	R1482J
701.63	1.783	970506	ENCODING_START	n/a	n/a	n/a	n/a	-999	4	[0, 0, 0]	n/a	catFR1	0	R1482J
703.413	1.601	972290	WORD	n/a	wordpools/wordpool_categorized_EN.txt	PEACH	Fruit	1	4	[0, 0, 0]	n/a	catFR1	0	R1482J
705.014	1.0	973889	WORD_OFF	n/a	n/a	PEACH	Fruit	1	4	[0, 0, 0]	n/a	catFR1	0	R1482J
706.014	1.6	974889	WORD	n/a	wordpools/wordpool_categorized_EN.txt	BLUEBERRY	Fruit	2	4	[0, 0, 0]	n/a	catFR1	0	R1482J
707.614	0.85	976488	WORD_OFF	n/a	n/a	BLUEBERRY	Fruit	2	4	[0, 0, 0]	n/a	catFR1	0	R1482J
708.464	1.6	977342	WORD	n/a	wordpools/wordpool_categorized_EN.txt	KNIFE	KitchenTools	3	4	[0, 0, 0]	n/a	catFR1	0	R1482J
710.064	0.968	978942	WORD_OFF	n/a	n/a	KNIFE	KitchenTools	3	4	[0, 0, 0]	n/a	catFR1	0	R1482J
711.032	1.615	979903	WORD	n/a	wordpools/wordpool_categorized_EN.txt	STRAINER	KitchenTools	4	4	[0, 0, 0]	n/a	catFR1	0	R1482J
712.647	0.801	981525	WORD_OFF	n/a	n/a	STRAINER	KitchenTools	4	4	[0, 0, 0]	n/a	catFR1	0	R1482J
713.448	1.616	982325	WORD	n/a	wordpools/wordpool_categorized_EN.txt	SKIRT	Clothing	5	4	[0, 0, 0]	n/a	catFR1	0	R1482J
715.064	0.817	983940	WORD_OFF	n/a	n/a	SKIRT	Clothing	5	4	[0, 0, 0]	n/a	catFR1	0	R1482J
715.881	1.617	984755	WORD	n/a	wordpools/wordpool_categorized_EN.txt	COAT	Clothing	6	4	[0, 0, 0]	n/a	catFR1	0	R1482J
717.498	0.782	986370	WORD_OFF	n/a	n/a	COAT	Clothing	6	4	[0, 0, 0]	n/a	catFR1	0	R1482J
718.28	1.6	987154	WORD	n/a	wordpools/wordpool_categorized_EN.txt	LIME	Fruit	7	4	[0, 0, 0]	n/a	catFR1	0	R1482J
719.88	0.867	988754	WORD_OFF	n/a	n/a	LIME	Fruit	7	4	[0, 0, 0]	n/a	catFR1	0	R1482J
720.747	1.6	989623	WORD	n/a	wordpools/wordpool_categorized_EN.txt	CHERRY	Fruit	8	4	[0, 0, 0]	n/a	catFR1	0	R1482J
722.347	0.933	991222	WORD_OFF	n/a	n/a	CHERRY	Fruit	8	4	[0, 0, 0]	n/a	catFR1	0	R1482J
723.28	1.6	992153	WORD	n/a	wordpools/wordpool_categorized_EN.txt	CORKSCREW	KitchenTools	9	4	[0, 0, 0]	n/a	catFR1	0	R1482J
724.88	0.967	993752	WORD_OFF	n/a	n/a	CORKSCREW	KitchenTools	9	4	[0, 0, 0]	n/a	catFR1	0	R1482J
725.847	1.6	994721	WORD	n/a	wordpools/wordpool_categorized_EN.txt	SPATULA	KitchenTools	10	4	[0, 0, 0]	n/a	catFR1	0	R1482J
727.447	0.8	996321	WORD_OFF	n/a	n/a	SPATULA	KitchenTools	10	4	[0, 0, 0]	n/a	catFR1	0	R1482J
728.247	1.6	997120	WORD	n/a	wordpools/wordpool_categorized_EN.txt	BLOUSE	Clothing	11	4	[0, 0, 0]	n/a	catFR1	0	R1482J
729.847	0.767	998720	WORD_OFF	n/a	n/a	BLOUSE	Clothing	11	4	[0, 0, 0]	n/a	catFR1	0	R1482J
730.614	1.6	999489	WORD	n/a	wordpools/wordpool_categorized_EN.txt	JEANS	Clothing	12	4	[0, 0, 0]	n/a	catFR1	0	R1482J
732.214	0.001	1001088	WORD_OFF	n/a	n/a	JEANS	Clothing	12	4	[0, 0, 0]	n/a	catFR1	0	R1482J
732.215	0.0	1001088	ENCODING_END	n/a	n/a	n/a	n/a	-999	4	[0, 0, 0]	n/a	catFR1	0	R1482J
732.215	0.0	1001088	DISTRACT_START	n/a	n/a	n/a	n/a	-999	4	[0, 0, 0]	n/a	catFR1	0	R1482J
732.214	0.001	1001090	PROB	0.001	n/a	n/a	n/a	-999	4	[4, 2, 4]	8	catFR1	0	R1482J
732.215	4.333	1001091	START	n/a	n/a	n/a	n/a	-999	4	[-999, -999, -999]	n/a	catFR1	0	R1482J
736.548	7.416	1005424	PROB	7.416	n/a	n/a	n/a	-999	4	[2, 6, 7]	15	catFR1	0	R1482J
743.964	6.234	1012840	PROB	6.234	n/a	n/a	n/a	-999	4	[1, 3, 3]	7	catFR1	0	R1482J
750.198	5.35	1019074	PROB	5.35	n/a	n/a	n/a	-999	4	[7, 7, 7]	21	catFR1	0	R1482J
755.548	0.0	1024420	DISTRACT_END	n/a	n/a	n/a	n/a	-999	4	[0, 0, 0]	n/a	catFR1	0	R1482J
755.548	1.166	1024423	STOP	n/a	n/a	n/a	n/a	-999	4	[-999, -999, -999]	n/a	catFR1	0	R1482J
756.714	10.115	1025589	REC_START	n/a	n/a	n/a	n/a	-999	4	[0, 0, 0]	n/a	catFR1	0	R1482J
766.829	0.596	1035704	REC_WORD	0.596	n/a	PEACH	Fruit	1	4	[0, 0, 0]	n/a	catFR1	0	R1482J
767.425	0.735	1036300	REC_WORD	0.735	n/a	SKIRT	Clothing	5	4	[0, 0, 0]	n/a	catFR1	0	R1482J
768.16	14.421	1037035	REC_WORD	14.421	n/a	KNIFE	KitchenTools	3	4	[0, 0, 0]	n/a	catFR1	0	R1482J
782.581	5.354	1051455	REC_WORD	5.354	n/a	SPLINTER	n/a	-999	4	[0, 0, 0]	n/a	catFR1	0	R1482J
787.935	1.964	1056802	REC_END	n/a	n/a	n/a	n/a	-999	4	[0, 0, 0]	n/a	catFR1	0	R1482J
789.899	10.349	1058771	COUNTDOWN_START	n/a	n/a	n/a	n/a	-999	4	[0, 0, 0]	n/a	catFR1	0	R1482J
800.248	0.0	1069121	COUNTDOWN_END	n/a	n/a	n/a	n/a	-999	4	[0, 0, 0]	n/a	catFR1	0	R1482J
800.248	2.118	1069121	ENCODING_START	n/a	n/a	n/a	n/a	-999	5	[0, 0, 0]	n/a	catFR1	0	R1482J
802.366	1.6	1071236	WORD	n/a	wordpools/wordpool_categorized_EN.txt	VIOLET	Flowers	1	5	[0, 0, 0]	n/a	catFR1	0	R1482J
803.966	0.866	1072835	WORD_OFF	n/a	n/a	VIOLET	Flowers	1	5	[0, 0, 0]	n/a	catFR1	0	R1482J
804.832	1.617	1073704	WORD	n/a	wordpools/wordpool_categorized_EN.txt	ORCHID	Flowers	2	5	[0, 0, 0]	n/a	catFR1	0	R1482J
806.449	0.866	1075319	WORD_OFF	n/a	n/a	ORCHID	Flowers	2	5	[0, 0, 0]	n/a	catFR1	0	R1482J
807.315	1.601	1076188	WORD	n/a	wordpools/wordpool_categorized_EN.txt	PASTRY	Desserts	3	5	[0, 0, 0]	n/a	catFR1	0	R1482J
808.916	0.783	1077788	WORD_OFF	n/a	n/a	PASTRY	Desserts	3	5	[0, 0, 0]	n/a	catFR1	0	R1482J
809.699	1.615	1078572	WORD	n/a	wordpools/wordpool_categorized_EN.txt	CAKE	Desserts	4	5	[0, 0, 0]	n/a	catFR1	0	R1482J
811.314	0.801	1080187	WORD_OFF	n/a	n/a	CAKE	Desserts	4	5	[0, 0, 0]	n/a	catFR1	0	R1482J
812.115	1.601	1080987	WORD	n/a	wordpools/wordpool_categorized_EN.txt	SHORTS	Clothing	5	5	[0, 0, 0]	n/a	catFR1	0	R1482J
813.716	0.816	1082586	WORD_OFF	n/a	n/a	SHORTS	Clothing	5	5	[0, 0, 0]	n/a	catFR1	0	R1482J
814.532	1.617	1083401	WORD	n/a	wordpools/wordpool_categorized_EN.txt	SHIRT	Clothing	6	5	[0, 0, 0]	n/a	catFR1	0	R1482J
816.149	0.948	1085016	WORD_OFF	n/a	n/a	SHIRT	Clothing	6	5	[0, 0, 0]	n/a	catFR1	0	R1482J
817.097	1.618	1085970	WORD	n/a	wordpools/wordpool_categorized_EN.txt	DAISY	Flowers	7	5	[0, 0, 0]	n/a	catFR1	0	R1482J
818.715	0.9	1087585	WORD_OFF	n/a	n/a	DAISY	Flowers	7	5	[0, 0, 0]	n/a	catFR1	0	R1482J
819.615	1.601	1088484	WORD	n/a	wordpools/wordpool_categorized_EN.txt	MARIGOLD	Flowers	8	5	[0, 0, 0]	n/a	catFR1	0	R1482J
821.216	0.916	1090084	WORD_OFF	n/a	n/a	MARIGOLD	Flowers	8	5	[0, 0, 0]	n/a	catFR1	0	R1482J
822.132	1.617	1090999	WORD	n/a	wordpools/wordpool_categorized_EN.txt	COBBLER	Desserts	9	5	[0, 0, 0]	n/a	catFR1	0	R1482J
823.749	0.967	1092622	WORD_OFF	n/a	n/a	COBBLER	Desserts	9	5	[0, 0, 0]	n/a	catFR1	0	R1482J
824.716	1.6	1093583	WORD	n/a	wordpools/wordpool_categorized_EN.txt	MOUSSE	Desserts	10	5	[0, 0, 0]	n/a	catFR1	0	R1482J
826.316	0.833	1095182	WORD_OFF	n/a	n/a	MOUSSE	Desserts	10	5	[0, 0, 0]	n/a	catFR1	0	R1482J
827.149	1.6	1096021	WORD	n/a	wordpools/wordpool_categorized_EN.txt	SOCKS	Clothing	11	5	[0, 0, 0]	n/a	catFR1	0	R1482J
828.749	0.817	1097620	WORD_OFF	n/a	n/a	SOCKS	Clothing	11	5	[0, 0, 0]	n/a	catFR1	0	R1482J
829.566	1.616	1098435	WORD	n/a	wordpools/wordpool_categorized_EN.txt	PANTS	Clothing	12	5	[0, 0, 0]	n/a	catFR1	0	R1482J
831.182	0.0	1100050	WORD_OFF	n/a	n/a	PANTS	Clothing	12	5	[0, 0, 0]	n/a	catFR1	0	R1482J
831.182	0.002	1100054	PROB	0.002	n/a	n/a	n/a	-999	5	[4, 5, 2]	11	catFR1	0	R1482J
831.184	0.0	1100056	START	n/a	n/a	n/a	n/a	-999	5	[-999, -999, -999]	n/a	catFR1	0	R1482J
831.184	0.0	1100058	ENCODING_END	n/a	n/a	n/a	n/a	-999	5	[0, 0, 0]	n/a	catFR1	0	R1482J
831.184	4.483	1100058	DISTRACT_START	n/a	n/a	n/a	n/a	-999	5	[0, 0, 0]	n/a	catFR1	0	R1482J
835.667	4.082	1104539	PROB	4.082	n/a	n/a	n/a	-999	5	[8, 2, 1]	11	catFR1	0	R1482J
839.749	3.899	1108621	PROB	3.899	n/a	n/a	n/a	-999	5	[3, 1, 8]	12	catFR1	0	R1482J
843.648	3.384	1112520	PROB	3.384	n/a	n/a	n/a	-999	5	[3, 6, 4]	13	catFR1	0	R1482J
847.032	4.749	1115904	PROB	4.749	n/a	n/a	n/a	-999	5	[2, 7, 7]	16	catFR1	0	R1482J
851.781	0.0	1120651	DISTRACT_END	n/a	n/a	n/a	n/a	-999	5	[0, 0, 0]	n/a	catFR1	0	R1482J
851.781	1.282	1120652	STOP	n/a	n/a	n/a	n/a	-999	5	[-999, -999, -999]	n/a	catFR1	0	R1482J
853.063	3.272	1121928	REC_START	n/a	n/a	n/a	n/a	-999	5	[0, 0, 0]	n/a	catFR1	0	R1482J
856.335	0.703	1125206	REC_WORD	0.703	n/a	VIOLET	Flowers	1	5	[0, 0, 0]	n/a	catFR1	0	R1482J
857.038	0.801	1125909	REC_WORD	0.801	n/a	PASTRY	Desserts	3	5	[0, 0, 0]	n/a	catFR1	0	R1482J
857.839	9.499	1126710	REC_WORD	9.499	n/a	CAKE	Desserts	4	5	[0, 0, 0]	n/a	catFR1	0	R1482J
867.338	1.816	1136209	REC_WORD	1.816	n/a	SHORTS	Clothing	5	5	[0, 0, 0]	n/a	catFR1	0	R1482J
869.154	15.132	1138025	REC_WORD	15.132	n/a	SHIRT	Clothing	6	5	[0, 0, 0]	n/a	catFR1	0	R1482J
884.286	2.112	1153157	REC_END	n/a	n/a	n/a	n/a	-999	5	[0, 0, 0]	n/a	catFR1	0	R1482J
886.398	10.351	1155264	COUNTDOWN_START	n/a	n/a	n/a	n/a	-999	5	[0, 0, 0]	n/a	catFR1	0	R1482J
896.749	0.0	1165614	COUNTDOWN_END	n/a	n/a	n/a	n/a	-999	5	[0, 0, 0]	n/a	catFR1	0	R1482J
896.749	2.249	1165614	ENCODING_START	n/a	n/a	n/a	n/a	-999	6	[0, 0, 0]	n/a	catFR1	0	R1482J
898.998	1.601	1167867	WORD	n/a	wordpools/wordpool_categorized_EN.txt	BANJO	Instruments	1	6	[0, 0, 0]	n/a	catFR1	0	R1482J
900.599	0.849	1169467	WORD_OFF	n/a	n/a	BANJO	Instruments	1	6	[0, 0, 0]	n/a	catFR1	0	R1482J
901.448	1.601	1170313	WORD	n/a	wordpools/wordpool_categorized_EN.txt	TROMBONE	Instruments	2	6	[0, 0, 0]	n/a	catFR1	0	R1482J
903.049	0.849	1171912	WORD_OFF	n/a	n/a	TROMBONE	Instruments	2	6	[0, 0, 0]	n/a	catFR1	0	R1482J
903.898	1.601	1172766	WORD	n/a	wordpools/wordpool_categorized_EN.txt	OCTOPUS	OceanAnimals	3	6	[0, 0, 0]	n/a	catFR1	0	R1482J
905.499	0.833	1174365	WORD_OFF	n/a	n/a	OCTOPUS	OceanAnimals	3	6	[0, 0, 0]	n/a	catFR1	0	R1482J
906.332	1.617	1175196	WORD	n/a	wordpools/wordpool_categorized_EN.txt	JELLYFISH	OceanAnimals	4	6	[0, 0, 0]	n/a	catFR1	0	R1482J
907.949	0.999	1176819	WORD_OFF	n/a	n/a	JELLYFISH	OceanAnimals	4	6	[0, 0, 0]	n/a	catFR1	0	R1482J
908.948	1.601	1177818	WORD	n/a	wordpools/wordpool_categorized_EN.txt	LEMON	Fruit	5	6	[0, 0, 0]	n/a	catFR1	0	R1482J
910.549	0.917	1179418	WORD_OFF	n/a	n/a	LEMON	Fruit	5	6	[0, 0, 0]	n/a	catFR1	0	R1482J
911.466	1.6	1180333	WORD	n/a	wordpools/wordpool_categorized_EN.txt	ORANGE	Fruit	6	6	[0, 0, 0]	n/a	catFR1	0	R1482J
913.066	0.832	1181932	WORD_OFF	n/a	n/a	ORANGE	Fruit	6	6	[0, 0, 0]	n/a	catFR1	0	R1482J
913.898	1.618	1182763	WORD	n/a	wordpools/wordpool_categorized_EN.txt	DRUM	Instruments	7	6	[0, 0, 0]	n/a	catFR1	0	R1482J
915.516	0.983	1184378	WORD_OFF	n/a	n/a	DRUM	Instruments	7	6	[0, 0, 0]	n/a	catFR1	0	R1482J
916.499	1.617	1185362	WORD	n/a	wordpools/wordpool_categorized_EN.txt	GUITAR	Instruments	8	6	[0, 0, 0]	n/a	catFR1	0	R1482J
918.116	0.949	1186985	WORD_OFF	n/a	n/a	GUITAR	Instruments	8	6	[0, 0, 0]	n/a	catFR1	0	R1482J
919.065	1.601	1187930	WORD	n/a	wordpools/wordpool_categorized_EN.txt	STRAWBERRY	Fruit	9	6	[0, 0, 0]	n/a	catFR1	0	R1482J
920.666	0.768	1189530	WORD_OFF	n/a	n/a	STRAWBERRY	Fruit	9	6	[0, 0, 0]	n/a	catFR1	0	R1482J
921.434	1.598	1190299	WORD	n/a	wordpools/wordpool_categorized_EN.txt	GRAPE	Fruit	10	6	[0, 0, 0]	n/a	catFR1	0	R1482J
923.032	0.966	1191898	WORD_OFF	n/a	n/a	GRAPE	Fruit	10	6	[0, 0, 0]	n/a	catFR1	0	R1482J
923.998	1.601	1192867	WORD	n/a	wordpools/wordpool_categorized_EN.txt	PLANKTON	OceanAnimals	11	6	[0, 0, 0]	n/a	catFR1	0	R1482J
925.599	0.782	1194467	WORD_OFF	n/a	n/a	PLANKTON	OceanAnimals	11	6	[0, 0, 0]	n/a	catFR1	0	R1482J
926.381	1.601	1195244	WORD	n/a	wordpools/wordpool_categorized_EN.txt	SQUID	OceanAnimals	12	6	[0, 0, 0]	n/a	catFR1	0	R1482J
927.982	0.004	1196851	WORD_OFF	n/a	n/a	SQUID	OceanAnimals	12	6	[0, 0, 0]	n/a	catFR1	0	R1482J
927.986	0.0	1196851	ENCODING_END	n/a	n/a	n/a	n/a	-999	6	[0, 0, 0]	n/a	catFR1	0	R1482J
927.986	0.0	1196851	DISTRACT_START	n/a	n/a	n/a	n/a	-999	6	[0, 0, 0]	n/a	catFR1	0	R1482J
927.983	0.003	1196851	PROB	0.003	n/a	n/a	n/a	-999	6	[6, 8, 2]	16	catFR1	0	R1482J
927.986	5.23	1196854	START	n/a	n/a	n/a	n/a	-999	6	[-999, -999, -999]	n/a	catFR1	0	R1482J
933.216	5.065	1202084	PROB	5.065	n/a	n/a	n/a	-999	6	[3, 5, 6]	14	catFR1	0	R1482J
938.281	4.617	1207149	PROB	4.617	n/a	n/a	n/a	-999	6	[6, 8, 1]	15	catFR1	0	R1482J
942.898	3.617	1211766	PROB	3.617	n/a	n/a	n/a	-999	6	[1, 3, 4]	8	catFR1	0	R1482J
946.515	4.133	1215383	PROB	4.133	n/a	n/a	n/a	-999	6	[3, 3, 5]	11	catFR1	0	R1482J
950.648	0.0	1219513	DISTRACT_END	n/a	n/a	n/a	n/a	-999	6	[0, 0, 0]	n/a	catFR1	0	R1482J
950.648	1.317	1219515	STOP	n/a	n/a	n/a	n/a	-999	6	[-999, -999, -999]	n/a	catFR1	0	R1482J
951.965	2.62	1220828	REC_START	n/a	n/a	n/a	n/a	-999	6	[0, 0, 0]	n/a	catFR1	0	R1482J
954.585	0.992	1223452	REC_WORD	0.992	n/a	OCTOPUS	OceanAnimals	3	6	[0, 0, 0]	n/a	catFR1	0	R1482J
955.577	1.581	1224444	REC_WORD	1.581	n/a	PLANKTON	OceanAnimals	11	6	[0, 0, 0]	n/a	catFR1	0	R1482J
957.158	9.868	1226025	REC_WORD	9.868	n/a	JELLYFISH	OceanAnimals	4	6	[0, 0, 0]	n/a	catFR1	0	R1482J
967.026	16.178	1235893	REC_WORD	16.178	n/a	SQUID	OceanAnimals	12	6	[0, 0, 0]	n/a	catFR1	0	R1482J
983.204	1.511	1252064	REC_END	n/a	n/a	n/a	n/a	-999	6	[0, 0, 0]	n/a	catFR1	0	R1482J
984.715	10.35	1253579	COUNTDOWN_START	n/a	n/a	n/a	n/a	-999	6	[0, 0, 0]	n/a	catFR1	0	R1482J
995.065	0.0	1263930	COUNTDOWN_END	n/a	n/a	n/a	n/a	-999	6	[0, 0, 0]	n/a	catFR1	0	R1482J
995.065	2.184	1263930	ENCODING_START	n/a	n/a	n/a	n/a	-999	7	[0, 0, 0]	n/a	catFR1	0	R1482J
997.249	1.6	1266114	WORD	n/a	wordpools/wordpool_categorized_EN.txt	COW	FarmAnimals	1	7	[0, 0, 0]	n/a	catFR1	0	R1482J
998.849	0.799	1267713	WORD_OFF	n/a	n/a	COW	FarmAnimals	1	7	[0, 0, 0]	n/a	catFR1	0	R1482J
999.648	1.601	1268513	WORD	n/a	wordpools/wordpool_categorized_EN.txt	LAMB	FarmAnimals	2	7	[0, 0, 0]	n/a	catFR1	0	R1482J
1001.249	0.917	1270113	WORD_OFF	n/a	n/a	LAMB	FarmAnimals	2	7	[0, 0, 0]	n/a	catFR1	0	R1482J
1002.166	1.6	1271028	WORD	n/a	wordpools/wordpool_categorized_EN.txt	OVEN	Appliances	3	7	[0, 0, 0]	n/a	catFR1	0	R1482J
1003.766	0.883	1272627	WORD_OFF	n/a	n/a	OVEN	Appliances	3	7	[0, 0, 0]	n/a	catFR1	0	R1482J
1004.649	1.617	1273512	WORD	n/a	wordpools/wordpool_categorized_EN.txt	DISHWASHER	Appliances	4	7	[0, 0, 0]	n/a	catFR1	0	R1482J
1006.266	0.848	1275126	WORD_OFF	n/a	n/a	DISHWASHER	Appliances	4	7	[0, 0, 0]	n/a	catFR1	0	R1482J
1007.114	1.601	1275980	WORD	n/a	wordpools/wordpool_categorized_EN.txt	SHOVEL	Tools	5	7	[0, 0, 0]	n/a	catFR1	0	R1482J
1008.715	0.784	1277580	WORD_OFF	n/a	n/a	SHOVEL	Tools	5	7	[0, 0, 0]	n/a	catFR1	0	R1482J
1009.499	1.617	1278364	WORD	n/a	wordpools/wordpool_categorized_EN.txt	WRENCH	Tools	6	7	[0, 0, 0]	n/a	catFR1	0	R1482J
1011.116	0.766	1279979	WORD_OFF	n/a	n/a	WRENCH	Tools	6	7	[0, 0, 0]	n/a	catFR1	0	R1482J
1011.882	1.6	1280740	WORD	n/a	wordpools/wordpool_categorized_EN.txt	IRON	Appliances	7	7	[0, 0, 0]	n/a	catFR1	0	R1482J
1013.482	0.982	1282347	WORD_OFF	n/a	n/a	IRON	Appliances	7	7	[0, 0, 0]	n/a	catFR1	0	R1482J
1014.464	1.601	1283324	WORD	n/a	wordpools/wordpool_categorized_EN.txt	BLENDER	Appliances	8	7	[0, 0, 0]	n/a	catFR1	0	R1482J
1016.065	0.934	1284931	WORD_OFF	n/a	n/a	BLENDER	Appliances	8	7	[0, 0, 0]	n/a	catFR1	0	R1482J
1016.999	1.617	1285862	WORD	n/a	wordpools/wordpool_categorized_EN.txt	HEN	FarmAnimals	9	7	[0, 0, 0]	n/a	catFR1	0	R1482J
1018.616	0.85	1287476	WORD_OFF	n/a	n/a	HEN	FarmAnimals	9	7	[0, 0, 0]	n/a	catFR1	0	R1482J
1019.466	1.6	1288330	WORD	n/a	wordpools/wordpool_categorized_EN.txt	PIG	FarmAnimals	10	7	[0, 0, 0]	n/a	catFR1	0	R1482J
1021.066	0.766	1289930	WORD_OFF	n/a	n/a	PIG	FarmAnimals	10	7	[0, 0, 0]	n/a	catFR1	0	R1482J
1021.832	1.6	1290691	WORD	n/a	wordpools/wordpool_categorized_EN.txt	SCREWDRIVER	Tools	11	7	[0, 0, 0]	n/a	catFR1	0	R1482J
1023.432	0.767	1292290	WORD_OFF	n/a	n/a	SCREWDRIVER	Tools	11	7	[0, 0, 0]	n/a	catFR1	0	R1482J
1024.199	1.617	1293059	WORD	n/a	wordpools/wordpool_categorized_EN.txt	LEVEL	Tools	12	7	[0, 0, 0]	n/a	catFR1	0	R1482J
1025.816	0.0	1294674	WORD_OFF	n/a	n/a	LEVEL	Tools	12	7	[0, 0, 0]	n/a	catFR1	0	R1482J
1025.816	0.001	1294680	PROB	0.001	n/a	n/a	n/a	-999	7	[5, 1, 8]	14	catFR1	0	R1482J
1025.817	0.0	1294681	START	n/a	n/a	n/a	n/a	-999	7	[-999, -999, -999]	n/a	catFR1	0	R1482J
1025.817	0.0	1294682	ENCODING_END	n/a	n/a	n/a	n/a	-999	7	[0, 0, 0]	n/a	catFR1	0	R1482J
1025.817	6.348	1294682	DISTRACT_START	n/a	n/a	n/a	n/a	-999	7	[0, 0, 0]	n/a	catFR1	0	R1482J
1032.165	5.851	1301029	PROB	5.851	n/a	n/a	n/a	-999	7	[8, 7, 4]	19	catFR1	0	R1482J
1038.016	6.048	1306880	PROB	6.048	n/a	n/a	n/a	-999	7	[1, 8, 1]	10	catFR1	0	R1482J
1044.064	4.9	1312928	PROB	4.9	n/a	n/a	n/a	-999	7	[2, 3, 1]	6	catFR1	0	R1482J
1048.964	0.0	1317827	STOP	n/a	n/a	n/a	n/a	-999	7	[-999, -999, -999]	n/a	catFR1	0	R1482J
1048.964	1.151	1317829	DISTRACT_END	n/a	n/a	n/a	n/a	-999	7	[0, 0, 0]	n/a	catFR1	0	R1482J
1050.115	2.827	1318974	REC_START	n/a	n/a	n/a	n/a	-999	7	[0, 0, 0]	n/a	catFR1	0	R1482J
1052.942	0.703	1321805	REC_WORD	0.703	n/a	IRON	Appliances	7	7	[0, 0, 0]	n/a	catFR1	0	R1482J
1053.645	6.112	1322508	REC_WORD	6.112	n/a	SCREWDRIVER	Tools	11	7	[0, 0, 0]	n/a	catFR1	0	R1482J
1059.757	2.529	1328620	REC_WORD	2.529	n/a	OVEN	Appliances	3	7	[0, 0, 0]	n/a	catFR1	0	R1482J
1062.286	0.637	1331149	REC_WORD	0.637	n/a	COW	FarmAnimals	1	7	[0, 0, 0]	n/a	catFR1	0	R1482J
1062.923	3.277	1331786	REC_WORD	3.277	n/a	LAMB	FarmAnimals	2	7	[0, 0, 0]	n/a	catFR1	0	R1482J
1066.2	15.113	1335063	REC_WORD	15.113	n/a	DISHWASHER	Appliances	4	7	[0, 0, 0]	n/a	catFR1	0	R1482J
1081.313	1.702	1350172	REC_END	n/a	n/a	n/a	n/a	-999	7	[0, 0, 0]	n/a	catFR1	0	R1482J
1083.015	10.35	1351880	COUNTDOWN_START	n/a	n/a	n/a	n/a	-999	7	[0, 0, 0]	n/a	catFR1	0	R1482J
1093.365	0.0	1362222	COUNTDOWN_END	n/a	n/a	n/a	n/a	-999	7	[0, 0, 0]	n/a	catFR1	0	R1482J
1093.365	1.969	1362222	ENCODING_START	n/a	n/a	n/a	n/a	-999	8	[0, 0, 0]	n/a	catFR1	0	R1482J
1095.334	1.598	1364191	WORD	n/a	wordpools/wordpool_categorized_EN.txt	CREEK	Landscapes	1	8	[0, 0, 0]	n/a	catFR1	0	R1482J
1096.932	0.8	1365791	WORD_OFF	n/a	n/a	CREEK	Landscapes	1	8	[0, 0, 0]	n/a	catFR1	0	R1482J
1097.732	1.617	1366590	WORD	n/a	wordpools/wordpool_categorized_EN.txt	LAKE	Landscapes	2	8	[0, 0, 0]	n/a	catFR1	0	R1482J
1099.349	0.848	1368205	WORD_OFF	n/a	n/a	LAKE	Landscapes	2	8	[0, 0, 0]	n/a	catFR1	0	R1482J
1100.197	1.602	1369051	WORD	n/a	wordpools/wordpool_categorized_EN.txt	SPARROW	Birds	3	8	[0, 0, 0]	n/a	catFR1	0	R1482J
1101.799	0.833	1370658	WORD_OFF	n/a	n/a	SPARROW	Birds	3	8	[0, 0, 0]	n/a	catFR1	0	R1482J
1102.632	1.617	1371489	WORD	n/a	wordpools/wordpool_categorized_EN.txt	ROBIN	Birds	4	8	[0, 0, 0]	n/a	catFR1	0	R1482J
1104.249	0.8	1373111	WORD_OFF	n/a	n/a	ROBIN	Birds	4	8	[0, 0, 0]	n/a	catFR1	0	R1482J
1105.049	1.617	1373903	WORD	n/a	wordpools/wordpool_categorized_EN.txt	GLUE	OfficeSupplies	5	8	[0, 0, 0]	n/a	catFR1	0	R1482J
1106.666	0.999	1375526	WORD_OFF	n/a	n/a	GLUE	OfficeSupplies	5	8	[0, 0, 0]	n/a	catFR1	0	R1482J
1107.665	1.601	1376526	WORD	n/a	wordpools/wordpool_categorized_EN.txt	MARKER	OfficeSupplies	6	8	[0, 0, 0]	n/a	catFR1	0	R1482J
1109.266	0.85	1378125	WORD_OFF	n/a	n/a	MARKER	OfficeSupplies	6	8	[0, 0, 0]	n/a	catFR1	0	R1482J
1110.116	1.6	1378971	WORD	n/a	wordpools/wordpool_categorized_EN.txt	STREAM	Landscapes	7	8	[0, 0, 0]	n/a	catFR1	0	R1482J
1111.716	0.8	1380571	WORD_OFF	n/a	n/a	STREAM	Landscapes	7	8	[0, 0, 0]	n/a	catFR1	0	R1482J
1112.516	1.616	1381370	WORD	n/a	wordpools/wordpool_categorized_EN.txt	VALLEY	Landscapes	8	8	[0, 0, 0]	n/a	catFR1	0	R1482J
1114.132	0.8	1382993	WORD_OFF	n/a	n/a	VALLEY	Landscapes	8	8	[0, 0, 0]	n/a	catFR1	0	R1482J
1114.932	1.617	1383793	WORD	n/a	wordpools/wordpool_categorized_EN.txt	CARDINAL	Birds	9	8	[0, 0, 0]	n/a	catFR1	0	R1482J
1116.549	1.0	1385408	WORD_OFF	n/a	n/a	CARDINAL	Birds	9	8	[0, 0, 0]	n/a	catFR1	0	R1482J
1117.549	1.6	1386407	WORD	n/a	wordpools/wordpool_categorized_EN.txt	DOVE	Birds	10	8	[0, 0, 0]	n/a	catFR1	0	R1482J
1119.149	0.9	1388007	WORD_OFF	n/a	n/a	DOVE	Birds	10	8	[0, 0, 0]	n/a	catFR1	0	R1482J
1120.049	1.615	1388906	WORD	n/a	wordpools/wordpool_categorized_EN.txt	PAPER	OfficeSupplies	11	8	[0, 0, 0]	n/a	catFR1	0	R1482J
1121.664	0.752	1390521	WORD_OFF	n/a	n/a	PAPER	OfficeSupplies	11	8	[0, 0, 0]	n/a	catFR1	0	R1482J
1122.416	1.617	1391275	WORD	n/a	wordpools/wordpool_categorized_EN.txt	FOLDER	OfficeSupplies	12	8	[0, 0, 0]	n/a	catFR1	0	R1482J
1124.033	0.003	1392890	WORD_OFF	n/a	n/a	FOLDER	OfficeSupplies	12	8	[0, 0, 0]	n/a	catFR1	0	R1482J
1124.036	0.0	1392890	ENCODING_END	n/a	n/a	n/a	n/a	-999	8	[0, 0, 0]	n/a	catFR1	0	R1482J
1124.032	0.004	1392892	PROB	0.004	n/a	n/a	n/a	-999	8	[3, 1, 2]	6	catFR1	0	R1482J
1124.036	0.0	1392896	START	n/a	n/a	n/a	n/a	-999	8	[-999, -999, -999]	n/a	catFR1	0	R1482J
1124.036	7.047	1392898	DISTRACT_START	n/a	n/a	n/a	n/a	-999	8	[0, 0, 0]	n/a	catFR1	0	R1482J
1131.083	5.282	1399943	PROB	5.282	n/a	n/a	n/a	-999	8	[5, 2, 4]	11	catFR1	0	R1482J
1136.365	5.867	1405225	PROB	5.867	n/a	n/a	n/a	-999	8	[7, 7, 6]	20	catFR1	0	R1482J
1142.232	4.632	1411092	PROB	4.632	n/a	n/a	n/a	-999	8	[6, 2, 4]	12	catFR1	0	R1482J
1146.864	0.0	1415721	DISTRACT_END	n/a	n/a	n/a	n/a	-999	8	[0, 0, 0]	n/a	catFR1	0	R1482J
1146.864	1.249	1415723	STOP	n/a	n/a	n/a	n/a	-999	8	[-999, -999, -999]	n/a	catFR1	0	R1482J
1148.113	17.251	1416967	REC_START	n/a	n/a	n/a	n/a	-999	8	[0, 0, 0]	n/a	catFR1	0	R1482J
1165.364	13.955	1434223	REC_WORD	13.955	n/a	SPARROW	Birds	3	8	[0, 0, 0]	n/a	catFR1	0	R1482J
1179.319	2.53	1448173	REC_END	n/a	n/a	n/a	n/a	-999	8	[0, 0, 0]	n/a	catFR1	0	R1482J
1181.849	10.349	1450703	COUNTDOWN_START	n/a	n/a	n/a	n/a	-999	8	[0, 0, 0]	n/a	catFR1	0	R1482J
1192.198	0.0	1461053	COUNTDOWN_END	n/a	n/a	n/a	n/a	-999	8	[0, 0, 0]	n/a	catFR1	0	R1482J
1192.198	2.217	1461053	ENCODING_START	n/a	n/a	n/a	n/a	-999	9	[0, 0, 0]	n/a	catFR1	0	R1482J
1194.415	1.601	1463268	WORD	n/a	wordpools/wordpool_categorized_EN.txt	NYLON	Fabric	1	9	[0, 0, 0]	n/a	catFR1	0	R1482J
1196.016	0.999	1464867	WORD_OFF	n/a	n/a	NYLON	Fabric	1	9	[0, 0, 0]	n/a	catFR1	0	R1482J
1197.015	1.601	1465867	WORD	n/a	wordpools/wordpool_categorized_EN.txt	SUEDE	Fabric	2	9	[0, 0, 0]	n/a	catFR1	0	R1482J
1198.616	0.934	1467467	WORD_OFF	n/a	n/a	SUEDE	Fabric	2	9	[0, 0, 0]	n/a	catFR1	0	R1482J
1199.55	1.615	1468405	WORD	n/a	wordpools/wordpool_categorized_EN.txt	APPLE	Fruit	3	9	[0, 0, 0]	n/a	catFR1	0	R1482J
1201.165	0.834	1470020	WORD_OFF	n/a	n/a	APPLE	Fruit	3	9	[0, 0, 0]	n/a	catFR1	0	R1482J
1201.999	1.6	1470850	WORD	n/a	wordpools/wordpool_categorized_EN.txt	PLUM	Fruit	4	9	[0, 0, 0]	n/a	catFR1	0	R1482J
1203.599	0.799	1472450	WORD_OFF	n/a	n/a	PLUM	Fruit	4	9	[0, 0, 0]	n/a	catFR1	0	R1482J
1204.398	1.601	1473249	WORD	n/a	wordpools/wordpool_categorized_EN.txt	LADLE	KitchenTools	5	9	[0, 0, 0]	n/a	catFR1	0	R1482J
1205.999	0.9	1474857	WORD_OFF	n/a	n/a	LADLE	KitchenTools	5	9	[0, 0, 0]	n/a	catFR1	0	R1482J
1206.899	1.616	1475756	WORD	n/a	wordpools/wordpool_categorized_EN.txt	FORK	KitchenTools	6	9	[0, 0, 0]	n/a	catFR1	0	R1482J
1208.515	0.85	1477371	WORD_OFF	n/a	n/a	FORK	KitchenTools	6	9	[0, 0, 0]	n/a	catFR1	0	R1482J
1209.365	1.601	1478217	WORD	n/a	wordpools/wordpool_categorized_EN.txt	VELVET	Fabric	7	9	[0, 0, 0]	n/a	catFR1	0	R1482J
1210.966	0.9	1479817	WORD_OFF	n/a	n/a	VELVET	Fabric	7	9	[0, 0, 0]	n/a	catFR1	0	R1482J
1211.866	1.6	1480716	WORD	n/a	wordpools/wordpool_categorized_EN.txt	COTTON	Fabric	8	9	[0, 0, 0]	n/a	catFR1	0	R1482J
1213.466	0.8	1482316	WORD_OFF	n/a	n/a	COTTON	Fabric	8	9	[0, 0, 0]	n/a	catFR1	0	R1482J
1214.266	1.616	1483123	WORD	n/a	wordpools/wordpool_categorized_EN.txt	BANANA	Fruit	9	9	[0, 0, 0]	n/a	catFR1	0	R1482J
1215.882	0.966	1484738	WORD_OFF	n/a	n/a	BANANA	Fruit	9	9	[0, 0, 0]	n/a	catFR1	0	R1482J
1216.848	1.601	1485699	WORD	n/a	wordpools/wordpool_categorized_EN.txt	PEAR	Fruit	10	9	[0, 0, 0]	n/a	catFR1	0	R1482J
1218.449	0.917	1487299	WORD_OFF	n/a	n/a	PEAR	Fruit	10	9	[0, 0, 0]	n/a	catFR1	0	R1482J
1219.366	1.6	1488222	WORD	n/a	wordpools/wordpool_categorized_EN.txt	GRATER	KitchenTools	11	9	[0, 0, 0]	n/a	catFR1	0	R1482J
1220.966	0.883	1489821	WORD_OFF	n/a	n/a	GRATER	KitchenTools	11	9	[0, 0, 0]	n/a	catFR1	0	R1482J
1221.849	1.616	1490706	WORD	n/a	wordpools/wordpool_categorized_EN.txt	PEELER	KitchenTools	12	9	[0, 0, 0]	n/a	catFR1	0	R1482J
1223.465	0.004	1492320	WORD_OFF	n/a	n/a	PEELER	KitchenTools	12	9	[0, 0, 0]	n/a	catFR1	0	R1482J
1223.469	0.0	1492320	ENCODING_END	n/a	n/a	n/a	n/a	-999	9	[0, 0, 0]	n/a	catFR1	0	R1482J
1223.469	0.0	1492320	DISTRACT_START	n/a	n/a	n/a	n/a	-999	9	[0, 0, 0]	n/a	catFR1	0	R1482J
1223.466	0.003	1492322	PROB	0.003	n/a	n/a	n/a	-999	9	[2, 4, 7]	13	catFR1	0	R1482J
1223.469	4.814	1492325	START	n/a	n/a	n/a	n/a	-999	9	[-999, -999, -999]	n/a	catFR1	0	R1482J
1228.283	5.432	1497139	PROB	5.432	n/a	n/a	n/a	-999	9	[6, 4, 3]	13	catFR1	0	R1482J
1233.715	5.083	1502571	PROB	5.083	n/a	n/a	n/a	-999	9	[2, 4, 5]	11	catFR1	0	R1482J
1238.798	3.101	1507654	PROB	3.101	n/a	n/a	n/a	-999	9	[5, 5, 8]	18	catFR1	0	R1482J
1241.899	9.615	1510754	PROB	9.615	n/a	n/a	n/a	-999	9	[5, 7, 2]	14	catFR1	0	R1482J
1251.514	0.0	1520366	DISTRACT_END	n/a	n/a	n/a	n/a	-999	9	[0, 0, 0]	n/a	catFR1	0	R1482J
1251.514	1.167	1520369	STOP	n/a	n/a	n/a	n/a	-999	9	[-999, -999, -999]	n/a	catFR1	0	R1482J
1252.681	2.899	1521534	REC_START	n/a	n/a	n/a	n/a	-999	9	[0, 0, 0]	n/a	catFR1	0	R1482J
1255.58	1.129	1524435	REC_WORD	1.129	n/a	NYLON	Fabric	1	9	[0, 0, 0]	n/a	catFR1	0	R1482J
1256.709	1.357	1525564	REC_WORD	1.357	n/a	APPLE	Fruit	3	9	[0, 0, 0]	n/a	catFR1	0	R1482J
1258.066	1.589	1526921	REC_WORD	1.589	n/a	PEAR	Fruit	10	9	[0, 0, 0]	n/a	catFR1	0	R1482J
1259.655	24.245	1528510	REC_WORD	24.245	n/a	BANANA	Fruit	9	9	[0, 0, 0]	n/a	catFR1	0	R1482J
1283.9	1.549	1552748	REC_END	n/a	n/a	n/a	n/a	-999	9	[0, 0, 0]	n/a	catFR1	0	R1482J
1285.449	10.35	1554301	COUNTDOWN_START	n/a	n/a	n/a	n/a	-999	9	[0, 0, 0]	n/a	catFR1	0	R1482J
1295.799	0.0	1564652	COUNTDOWN_END	n/a	n/a	n/a	n/a	-999	9	[0, 0, 0]	n/a	catFR1	0	R1482J
1295.799	2.383	1564652	ENCODING_START	n/a	n/a	n/a	n/a	-999	10	[0, 0, 0]	n/a	catFR1	0	R1482J
1298.182	1.617	1567036	WORD	n/a	wordpools/wordpool_categorized_EN.txt	EVERGREEN	Trees	1	10	[0, 0, 0]	n/a	catFR1	0	R1482J
1299.799	0.833	1568651	WORD_OFF	n/a	n/a	EVERGREEN	Trees	1	10	[0, 0, 0]	n/a	catFR1	0	R1482J
1300.632	1.616	1569481	WORD	n/a	wordpools/wordpool_categorized_EN.txt	PINE	Trees	2	10	[0, 0, 0]	n/a	catFR1	0	R1482J
1302.248	0.816	1571096	WORD_OFF	n/a	n/a	PINE	Trees	2	10	[0, 0, 0]	n/a	catFR1	0	R1482J
1303.064	1.601	1571911	WORD	n/a	wordpools/wordpool_categorized_EN.txt	BLUEBIRD	Birds	3	10	[0, 0, 0]	n/a	catFR1	0	R1482J
1304.665	0.784	1573518	WORD_OFF	n/a	n/a	BLUEBIRD	Birds	3	10	[0, 0, 0]	n/a	catFR1	0	R1482J
1305.449	1.6	1574303	WORD	n/a	wordpools/wordpool_categorized_EN.txt	FINCH	Birds	4	10	[0, 0, 0]	n/a	catFR1	0	R1482J
1307.049	0.9	1575902	WORD_OFF	n/a	n/a	FINCH	Birds	4	10	[0, 0, 0]	n/a	catFR1	0	R1482J
1307.949	1.6	1576802	WORD	n/a	wordpools/wordpool_categorized_EN.txt	TABLE	Furniture	5	10	[0, 0, 0]	n/a	catFR1	0	R1482J
1309.549	0.899	1578401	WORD_OFF	n/a	n/a	TABLE	Furniture	5	10	[0, 0, 0]	n/a	catFR1	0	R1482J
1310.448	1.601	1579301	WORD	n/a	wordpools/wordpool_categorized_EN.txt	BOOKCASE	Furniture	6	10	[0, 0, 0]	n/a	catFR1	0	R1482J
1312.049	0.767	1580901	WORD_OFF	n/a	n/a	BOOKCASE	Furniture	6	10	[0, 0, 0]	n/a	catFR1	0	R1482J
1312.816	1.615	1581662	WORD	n/a	wordpools/wordpool_categorized_EN.txt	CEDAR	Trees	7	10	[0, 0, 0]	n/a	catFR1	0	R1482J
1314.431	0.984	1583277	WORD_OFF	n/a	n/a	CEDAR	Trees	7	10	[0, 0, 0]	n/a	catFR1	0	R1482J
1315.415	1.617	1584269	WORD	n/a	wordpools/wordpool_categorized_EN.txt	BIRCH	Trees	8	10	[0, 0, 0]	n/a	catFR1	0	R1482J
1317.032	1.0	1585884	WORD_OFF	n/a	n/a	BIRCH	Trees	8	10	[0, 0, 0]	n/a	catFR1	0	R1482J
1318.032	1.6	1586883	WORD	n/a	wordpools/wordpool_categorized_EN.txt	SEAGULL	Birds	9	10	[0, 0, 0]	n/a	catFR1	0	R1482J
1319.632	0.984	1588483	WORD_OFF	n/a	n/a	SEAGULL	Birds	9	10	[0, 0, 0]	n/a	catFR1	0	R1482J
1320.616	1.616	1589467	WORD	n/a	wordpools/wordpool_categorized_EN.txt	DUCK	Birds	10	10	[0, 0, 0]	n/a	catFR1	0	R1482J
1322.232	1.0	1591082	WORD_OFF	n/a	n/a	DUCK	Birds	10	10	[0, 0, 0]	n/a	catFR1	0	R1482J
1323.232	1.6	1592082	WORD	n/a	wordpools/wordpool_categorized_EN.txt	RECLINER	Furniture	11	10	[0, 0, 0]	n/a	catFR1	0	R1482J
1324.832	0.983	1593681	WORD_OFF	n/a	n/a	RECLINER	Furniture	11	10	[0, 0, 0]	n/a	catFR1	0	R1482J
1325.815	1.6	1594666	WORD	n/a	wordpools/wordpool_categorized_EN.txt	NIGHTSTAND	Furniture	12	10	[0, 0, 0]	n/a	catFR1	0	R1482J
1327.415	0.004	1596265	WORD_OFF	n/a	n/a	NIGHTSTAND	Furniture	12	10	[0, 0, 0]	n/a	catFR1	0	R1482J
1327.419	0.0	1596265	ENCODING_END	n/a	n/a	n/a	n/a	-999	10	[0, 0, 0]	n/a	catFR1	0	R1482J
1327.419	0.0	1596265	DISTRACT_START	n/a	n/a	n/a	n/a	-999	10	[0, 0, 0]	n/a	catFR1	0	R1482J
1327.416	0.003	1596268	PROB	0.003	n/a	n/a	n/a	-999	10	[8, 4, 6]	18	catFR1	0	R1482J
1327.419	5.38	1596271	START	n/a	n/a	n/a	n/a	-999	10	[-999, -999, -999]	n/a	catFR1	0	R1482J
1332.799	10.032	1601651	PROB	10.032	n/a	n/a	n/a	-999	10	[5, 8, 3]	16	catFR1	0	R1482J
1342.831	9.133	1611682	PROB	9.133	n/a	n/a	n/a	-999	10	[6, 1, 6]	13	catFR1	0	R1482J
1351.964	0.0	1620811	DISTRACT_END	n/a	n/a	n/a	n/a	-999	10	[0, 0, 0]	n/a	catFR1	0	R1482J
1351.964	1.317	1620815	STOP	n/a	n/a	n/a	n/a	-999	10	[-999, -999, -999]	n/a	catFR1	0	R1482J
1353.281	3.129	1622126	REC_START	n/a	n/a	n/a	n/a	-999	10	[0, 0, 0]	n/a	catFR1	0	R1482J
1356.41	1.511	1625261	REC_WORD	1.511	n/a	NYLON	Fabric	-999	10	[0, 0, 0]	n/a	catFR1	0	R1482J
1357.921	26.583	1626772	REC_WORD	26.583	n/a	NIGHTSTAND	Furniture	12	10	[0, 0, 0]	n/a	catFR1	0	R1482J
1384.504	1.895	1653347	REC_END	n/a	n/a	n/a	n/a	-999	10	[0, 0, 0]	n/a	catFR1	0	R1482J
1386.399	10.349	1655247	COUNTDOWN_START	n/a	n/a	n/a	n/a	-999	10	[0, 0, 0]	n/a	catFR1	0	R1482J
1396.748	0.0	1665597	COUNTDOWN_END	n/a	n/a	n/a	n/a	-999	10	[0, 0, 0]	n/a	catFR1	0	R1482J
1396.748	2.234	1665597	ENCODING_START	n/a	n/a	n/a	n/a	-999	11	[0, 0, 0]	n/a	catFR1	0	R1482J
1398.982	1.6	1667828	WORD	n/a	wordpools/wordpool_categorized_EN.txt	LILAC	Flowers	1	11	[0, 0, 0]	n/a	catFR1	0	R1482J
1400.582	0.867	1669427	WORD_OFF	n/a	n/a	LILAC	Flowers	1	11	[0, 0, 0]	n/a	catFR1	0	R1482J
1401.449	1.617	1670296	WORD	n/a	wordpools/wordpool_categorized_EN.txt	LILY	Flowers	2	11	[0, 0, 0]	n/a	catFR1	0	R1482J
1403.066	0.982	1671911	WORD_OFF	n/a	n/a	LILY	Flowers	2	11	[0, 0, 0]	n/a	catFR1	0	R1482J
1404.048	1.601	1672895	WORD	n/a	wordpools/wordpool_categorized_EN.txt	SHEEP	FarmAnimals	3	11	[0, 0, 0]	n/a	catFR1	0	R1482J
1405.649	0.982	1674495	WORD_OFF	n/a	n/a	SHEEP	FarmAnimals	3	11	[0, 0, 0]	n/a	catFR1	0	R1482J
1406.631	1.601	1675479	WORD	n/a	wordpools/wordpool_categorized_EN.txt	BULL	FarmAnimals	4	11	[0, 0, 0]	n/a	catFR1	0	R1482J
1408.232	0.933	1677078	WORD_OFF	n/a	n/a	BULL	FarmAnimals	4	11	[0, 0, 0]	n/a	catFR1	0	R1482J
1409.165	1.601	1678009	WORD	n/a	wordpools/wordpool_categorized_EN.txt	MAPLE	Trees	5	11	[0, 0, 0]	n/a	catFR1	0	R1482J
1410.766	0.933	1679608	WORD_OFF	n/a	n/a	MAPLE	Trees	5	11	[0, 0, 0]	n/a	catFR1	0	R1482J
1411.699	1.6	1680547	WORD	n/a	wordpools/wordpool_categorized_EN.txt	CYPRESS	Trees	6	11	[0, 0, 0]	n/a	catFR1	0	R1482J
1413.299	0.866	1682146	WORD_OFF	n/a	n/a	CYPRESS	Trees	6	11	[0, 0, 0]	n/a	catFR1	0	R1482J
1414.165	1.6	1683007	WORD	n/a	wordpools/wordpool_categorized_EN.txt	CARNATION	Flowers	7	11	[0, 0, 0]	n/a	catFR1	0	R1482J
1415.765	0.767	1684607	WORD_OFF	n/a	n/a	CARNATION	Flowers	7	11	[0, 0, 0]	n/a	catFR1	0	R1482J
1416.532	1.6	1685376	WORD	n/a	wordpools/wordpool_categorized_EN.txt	SUNFLOWER	Flowers	8	11	[0, 0, 0]	n/a	catFR1	0	R1482J
1418.132	1.0	1686975	WORD_OFF	n/a	n/a	SUNFLOWER	Flowers	8	11	[0, 0, 0]	n/a	catFR1	0	R1482J
1419.132	1.6	1687975	WORD	n/a	wordpools/wordpool_categorized_EN.txt	TURKEY	FarmAnimals	9	11	[0, 0, 0]	n/a	catFR1	0	R1482J
1420.732	0.766	1689575	WORD_OFF	n/a	n/a	TURKEY	FarmAnimals	9	11	[0, 0, 0]	n/a	catFR1	0	R1482J
1421.498	1.6	1690344	WORD	n/a	wordpools/wordpool_categorized_EN.txt	GOAT	FarmAnimals	10	11	[0, 0, 0]	n/a	catFR1	0	R1482J
1423.098	0.884	1691943	WORD_OFF	n/a	n/a	GOAT	FarmAnimals	10	11	[0, 0, 0]	n/a	catFR1	0	R1482J
1423.982	1.6	1692827	WORD	n/a	wordpools/wordpool_categorized_EN.txt	HICKORY	Trees	11	11	[0, 0, 0]	n/a	catFR1	0	R1482J
1425.582	0.816	1694427	WORD_OFF	n/a	n/a	HICKORY	Trees	11	11	[0, 0, 0]	n/a	catFR1	0	R1482J
1426.398	1.601	1695242	WORD	n/a	wordpools/wordpool_categorized_EN.txt	SPRUCE	Trees	12	11	[0, 0, 0]	n/a	catFR1	0	R1482J
1427.999	0.0	1696842	WORD_OFF	n/a	n/a	SPRUCE	Trees	12	11	[0, 0, 0]	n/a	catFR1	0	R1482J
1427.999	0.001	1696847	PROB	0.001	n/a	n/a	n/a	-999	11	[2, 5, 3]	10	catFR1	0	R1482J
1428.0	0.0	1696848	START	n/a	n/a	n/a	n/a	-999	11	[-999, -999, -999]	n/a	catFR1	0	R1482J
1428.0	0.0	1696849	ENCODING_END	n/a	n/a	n/a	n/a	-999	11	[0, 0, 0]	n/a	catFR1	0	R1482J
1428.0	5.098	1696849	DISTRACT_START	n/a	n/a	n/a	n/a	-999	11	[0, 0, 0]	n/a	catFR1	0	R1482J
1433.098	4.233	1701946	PROB	4.233	n/a	n/a	n/a	-999	11	[7, 6, 4]	17	catFR1	0	R1482J
1437.331	7.35	1706178	PROB	7.35	n/a	n/a	n/a	-999	11	[1, 8, 6]	15	catFR1	0	R1482J
1444.681	5.6	1713528	PROB	5.6	n/a	n/a	n/a	-999	11	[8, 6, 6]	20	catFR1	0	R1482J
1450.281	0.0	1719127	DISTRACT_END	n/a	n/a	n/a	n/a	-999	11	[0, 0, 0]	n/a	catFR1	0	R1482J
1450.281	1.35	1719128	STOP	n/a	n/a	n/a	n/a	-999	11	[-999, -999, -999]	n/a	catFR1	0	R1482J
1451.631	4.248	1720473	REC_START	n/a	n/a	n/a	n/a	-999	11	[0, 0, 0]	n/a	catFR1	0	R1482J
1455.879	1.103	1724726	REC_WORD	1.103	n/a	MAPLE	Trees	5	11	[0, 0, 0]	n/a	catFR1	0	R1482J
1456.982	3.248	1725829	REC_WORD	3.248	n/a	SHEEP	FarmAnimals	3	11	[0, 0, 0]	n/a	catFR1	0	R1482J
1460.23	22.626	1729076	REC_WORD	22.626	n/a	TURKEY	FarmAnimals	9	11	[0, 0, 0]	n/a	catFR1	0	R1482J
1482.856	2.793	1751701	REC_END	n/a	n/a	n/a	n/a	-999	11	[0, 0, 0]	n/a	catFR1	0	R1482J
1485.649	10.35	1754493	COUNTDOWN_START	n/a	n/a	n/a	n/a	-999	11	[0, 0, 0]	n/a	catFR1	0	R1482J
1495.999	0.0	1764844	COUNTDOWN_END	n/a	n/a	n/a	n/a	-999	11	[0, 0, 0]	n/a	catFR1	0	R1482J
1495.999	2.35	1764844	ENCODING_START	n/a	n/a	n/a	n/a	-999	12	[0, 0, 0]	n/a	catFR1	0	R1482J
1498.349	1.6	1767189	WORD	n/a	wordpools/wordpool_categorized_EN.txt	CHICKEN	FarmAnimals	1	12	[0, 0, 0]	n/a	catFR1	0	R1482J
1499.949	0.967	1768788	WORD_OFF	n/a	n/a	CHICKEN	FarmAnimals	1	12	[0, 0, 0]	n/a	catFR1	0	R1482J
1500.916	1.6	1769757	WORD	n/a	wordpools/wordpool_categorized_EN.txt	HORSE	FarmAnimals	2	12	[0, 0, 0]	n/a	catFR1	0	R1482J
1502.516	0.766	1771357	WORD_OFF	n/a	n/a	HORSE	FarmAnimals	2	12	[0, 0, 0]	n/a	catFR1	0	R1482J
1503.282	1.6	1772126	WORD	n/a	wordpools/wordpool_categorized_EN.txt	GOOSE	Birds	3	12	[0, 0, 0]	n/a	catFR1	0	R1482J
1504.882	0.95	1773725	WORD_OFF	n/a	n/a	GOOSE	Birds	3	12	[0, 0, 0]	n/a	catFR1	0	R1482J
1505.832	1.617	1774671	WORD	n/a	wordpools/wordpool_categorized_EN.txt	CROW	Birds	4	12	[0, 0, 0]	n/a	catFR1	0	R1482J
1507.449	0.849	1776294	WORD_OFF	n/a	n/a	CROW	Birds	4	12	[0, 0, 0]	n/a	catFR1	0	R1482J
1508.298	1.601	1777140	WORD	n/a	wordpools/wordpool_categorized_EN.txt	GORILLA	Zoo	5	12	[0, 0, 0]	n/a	catFR1	0	R1482J
1509.899	0.833	1778739	WORD_OFF	n/a	n/a	GORILLA	Zoo	5	12	[0, 0, 0]	n/a	catFR1	0	R1482J
1510.732	1.616	1779577	WORD	n/a	wordpools/wordpool_categorized_EN.txt	LION	Zoo	6	12	[0, 0, 0]	n/a	catFR1	0	R1482J
1512.348	0.984	1781192	WORD_OFF	n/a	n/a	LION	Zoo	6	12	[0, 0, 0]	n/a	catFR1	0	R1482J
1513.332	1.616	1782177	WORD	n/a	wordpools/wordpool_categorized_EN.txt	ROOSTER	FarmAnimals	7	12	[0, 0, 0]	n/a	catFR1	0	R1482J
1514.948	0.884	1783791	WORD_OFF	n/a	n/a	ROOSTER	FarmAnimals	7	12	[0, 0, 0]	n/a	catFR1	0	R1482J
1515.832	1.6	1784676	WORD	n/a	wordpools/wordpool_categorized_EN.txt	CALF	FarmAnimals	8	12	[0, 0, 0]	n/a	catFR1	0	R1482J
1517.432	0.8	1786275	WORD_OFF	n/a	n/a	CALF	FarmAnimals	8	12	[0, 0, 0]	n/a	catFR1	0	R1482J
1518.232	1.6	1787075	WORD	n/a	wordpools/wordpool_categorized_EN.txt	PIGEON	Birds	9	12	[0, 0, 0]	n/a	catFR1	0	R1482J
1519.832	0.833	1788675	WORD_OFF	n/a	n/a	PIGEON	Birds	9	12	[0, 0, 0]	n/a	catFR1	0	R1482J
1520.665	1.6	1789505	WORD	n/a	wordpools/wordpool_categorized_EN.txt	HAWK	Birds	10	12	[0, 0, 0]	n/a	catFR1	0	R1482J
1522.265	0.983	1791105	WORD_OFF	n/a	n/a	HAWK	Birds	10	12	[0, 0, 0]	n/a	catFR1	0	R1482J
1523.248	1.6	1792089	WORD	n/a	wordpools/wordpool_categorized_EN.txt	GIRAFFE	Zoo	11	12	[0, 0, 0]	n/a	catFR1	0	R1482J
1524.848	0.949	1793688	WORD_OFF	n/a	n/a	GIRAFFE	Zoo	11	12	[0, 0, 0]	n/a	catFR1	0	R1482J
1525.797	1.601	1794634	WORD	n/a	wordpools/wordpool_categorized_EN.txt	MONKEY	Zoo	12	12	[0, 0, 0]	n/a	catFR1	0	R1482J
1527.398	0.004	1796241	WORD_OFF	n/a	n/a	MONKEY	Zoo	12	12	[0, 0, 0]	n/a	catFR1	0	R1482J
1527.402	0.0	1796241	ENCODING_END	n/a	n/a	n/a	n/a	-999	12	[0, 0, 0]	n/a	catFR1	0	R1482J
1527.402	0.0	1796241	DISTRACT_START	n/a	n/a	n/a	n/a	-999	12	[0, 0, 0]	n/a	catFR1	0	R1482J
1527.398	0.004	1796242	PROB	0.004	n/a	n/a	n/a	-999	12	[6, 7, 2]	15	catFR1	0	R1482J
1527.402	5.297	1796246	START	n/a	n/a	n/a	n/a	-999	12	[-999, -999, -999]	n/a	catFR1	0	R1482J
1532.699	8.732	1801543	PROB	8.732	n/a	n/a	n/a	-999	12	[1, 4, 3]	8	catFR1	0	R1482J
1541.431	5.15	1810274	PROB	5.15	n/a	n/a	n/a	-999	12	[7, 2, 8]	17	catFR1	0	R1482J
1546.581	6.166	1815424	PROB	6.166	n/a	n/a	n/a	-999	12	[2, 7, 4]	13	catFR1	0	R1482J
1552.747	0.0	1821587	DISTRACT_END	n/a	n/a	n/a	n/a	-999	12	[0, 0, 0]	n/a	catFR1	0	R1482J
1552.747	1.101	1821590	STOP	n/a	n/a	n/a	n/a	-999	12	[-999, -999, -999]	n/a	catFR1	0	R1482J
1553.848	1.942	1822687	REC_START	n/a	n/a	n/a	n/a	-999	12	[0, 0, 0]	n/a	catFR1	0	R1482J
1555.79	0.482	1824633	REC_WORD	0.482	n/a	CHICKEN	FarmAnimals	1	12	[0, 0, 0]	n/a	catFR1	0	R1482J
1556.272	1.299	1825115	REC_WORD	1.299	n/a	HORSE	FarmAnimals	2	12	[0, 0, 0]	n/a	catFR1	0	R1482J
1557.571	0.894	1826414	REC_WORD	0.894	n/a	GIRT	n/a	-999	12	[0, 0, 0]	n/a	catFR1	0	R1482J
1558.465	0.844	1827307	REC_WORD	0.844	n/a	GOOSE	Birds	3	12	[0, 0, 0]	n/a	catFR1	0	R1482J
1559.309	4.705	1828151	REC_WORD	4.705	n/a	CROW	Birds	4	12	[0, 0, 0]	n/a	catFR1	0	R1482J
1564.014	0.786	1832856	REC_WORD	0.786	n/a	LION	Zoo	6	12	[0, 0, 0]	n/a	catFR1	0	R1482J
1564.8	0.727	1833642	REC_WORD	0.727	n/a	MONKEY	Zoo	12	12	[0, 0, 0]	n/a	catFR1	0	R1482J
1565.527	19.546	1834369	REC_WORD	19.546	n/a	MONKEY	Zoo	12	12	[0, 0, 0]	n/a	catFR1	0	R1482J
1585.073	0.0	1853908	REC_END	n/a	n/a	n/a	n/a	-999	12	[0, 0, 0]	n/a	catFR1	0	R1482J
