onset	duration	sample	trial_type	response_time	stim_file	item_name	category	serialpos	list	test	answer	experiment	session	subject
0.0	10.265	129331	INSTRUCT_START	n/a	n/a	n/a	n/a	-999	-999	[0, 0, 0]	n/a	catFR1	2	R1485J
10.265	72.698	139601	INSTRUCT_END	n/a	n/a	n/a	n/a	-999	-999	[0, 0, 0]	n/a	catFR1	2	R1485J
82.963	10.0	212287	COUNTDOWN_START	n/a	n/a	n/a	n/a	-999	-999	[0, 0, 0]	n/a	catFR1	2	R1485J
93.315	0.0	222647	COUNTDOWN_END	n/a	n/a	n/a	n/a	-999	-999	[0, 0, 0]	n/a	catFR1	2	R1485J
93.315	2.385	222647	ENCODING_START	n/a	n/a	n/a	n/a	-999	-1	[0, 0, 0]	n/a	catFR1	2	R1485J
95.7	1.6	225026	WORD	n/a	n/a	SPEAKER	Electronics	1	-1	[0, 0, 0]	n/a	catFR1	2	R1485J
97.313	0.784	226638	WORD_OFF	n/a	n/a	SPEAKER	Electronics	1	-1	[0, 0, 0]	n/a	catFR1	2	R1485J
98.097	1.6	227427	WORD	n/a	n/a	HEADPHONES	Electronics	2	-1	[0, 0, 0]	n/a	catFR1	2	R1485J
99.698	0.767	229027	WORD_OFF	n/a	n/a	HEADPHONES	Electronics	2	-1	[0, 0, 0]	n/a	catFR1	2	R1485J
100.465	1.6	229794	WORD	n/a	n/a	COFFEE	Beverages	3	-1	[0, 0, 0]	n/a	catFR1	2	R1485J
102.065	0.916	231395	WORD_OFF	n/a	n/a	COFFEE	Beverages	3	-1	[0, 0, 0]	n/a	catFR1	2	R1485J
102.981	1.6	232308	WORD	n/a	n/a	LEMONADE	Beverages	4	-1	[0, 0, 0]	n/a	catFR1	2	R1485J
104.581	0.899	233908	WORD_OFF	n/a	n/a	LEMONADE	Beverages	4	-1	[0, 0, 0]	n/a	catFR1	2	R1485J
105.48	1.6	234810	WORD	n/a	n/a	BEAR	Zoo	5	-1	[0, 0, 0]	n/a	catFR1	2	R1485J
107.081	0.967	236411	WORD_OFF	n/a	n/a	BEAR	Zoo	5	-1	[0, 0, 0]	n/a	catFR1	2	R1485J
108.048	1.6	237380	WORD	n/a	n/a	ORANGUTAN	Zoo	6	-1	[0, 0, 0]	n/a	catFR1	2	R1485J
109.665	0.915	238992	WORD_OFF	n/a	n/a	ORANGUTAN	Zoo	6	-1	[0, 0, 0]	n/a	catFR1	2	R1485J
110.58	1.6	239906	WORD	n/a	n/a	TELEVISION	Electronics	7	-1	[0, 0, 0]	n/a	catFR1	2	R1485J
112.18	0.884	241506	WORD_OFF	n/a	n/a	TELEVISION	Electronics	7	-1	[0, 0, 0]	n/a	catFR1	2	R1485J
113.064	1.6	242386	WORD	n/a	n/a	SCANNER	Electronics	8	-1	[0, 0, 0]	n/a	catFR1	2	R1485J
114.681	0.866	244009	WORD_OFF	n/a	n/a	SCANNER	Electronics	8	-1	[0, 0, 0]	n/a	catFR1	2	R1485J
115.547	1.6	244877	WORD	n/a	n/a	ZEBRA	Zoo	9	-1	[0, 0, 0]	n/a	catFR1	2	R1485J
117.148	0.899	246478	WORD_OFF	n/a	n/a	ZEBRA	Zoo	9	-1	[0, 0, 0]	n/a	catFR1	2	R1485J
118.047	1.6	247379	WORD	n/a	n/a	PANDA	Zoo	10	-1	[0, 0, 0]	n/a	catFR1	2	R1485J
119.648	0.832	248980	WORD_OFF	n/a	n/a	PANDA	Zoo	10	-1	[0, 0, 0]	n/a	catFR1	2	R1485J
120.48	1.6	249803	WORD	n/a	n/a	MILK	Beverages	11	-1	[0, 0, 0]	n/a	catFR1	2	R1485J
122.081	0.882	251404	WORD_OFF	n/a	n/a	MILK	Beverages	11	-1	[0, 0, 0]	n/a	catFR1	2	R1485J
122.963	1.6	252294	WORD	n/a	n/a	TEA	Beverages	12	-1	[0, 0, 0]	n/a	catFR1	2	R1485J
124.581	0.001	253906	WORD_OFF	n/a	n/a	TEA	Beverages	12	-1	[0, 0, 0]	n/a	catFR1	2	R1485J
124.582	0.0	253906	ENCODING_END	n/a	n/a	n/a	n/a	-999	-1	[0, 0, 0]	n/a	catFR1	2	R1485J
124.582	0.0	253906	DISTRACT_START	n/a	n/a	n/a	n/a	-999	-1	[0, 0, 0]	n/a	catFR1	2	R1485J
124.582	0.0	253908	START	n/a	n/a	n/a	n/a	-999	-1	[-999, -999, -999]	n/a	catFR1	2	R1485J
124.582	6.134	253908	PROB	6.115	n/a	n/a	n/a	-999	-1	[4, 6, 4]	14.0	catFR1	2	R1485J
130.716	3.214	260041	PROB	3.198	n/a	n/a	n/a	-999	-1	[1, 6, 3]	10.0	catFR1	2	R1485J
133.93	3.751	263255	PROB	3.733	n/a	n/a	n/a	-999	-1	[2, 5, 4]	11.0	catFR1	2	R1485J
137.681	3.85	267006	PROB	3.833	n/a	n/a	n/a	-999	-1	[2, 3, 6]	11.0	catFR1	2	R1485J
141.531	2.917	270856	PROB	2.899	n/a	n/a	n/a	-999	-1	[6, 7, 3]	16.0	catFR1	2	R1485J
144.448	4.749	273773	PROB	4.733	n/a	n/a	n/a	-999	-1	[4, 8, 7]	19.0	catFR1	2	R1485J
149.197	0.0	278522	STOP	n/a	n/a	n/a	n/a	-999	-1	[-999, -999, -999]	n/a	catFR1	2	R1485J
149.197	2.351	278526	DISTRACT_END	n/a	n/a	n/a	n/a	-999	-1	[0, 0, 0]	n/a	catFR1	2	R1485J
151.548	1.672	280879	REC_START	n/a	n/a	n/a	n/a	-999	-1	[0, 0, 0]	n/a	catFR1	2	R1485J
153.22	1.255	282544	REC_WORD	1.672	n/a	BEAR	Zoo	5	-1	[0, 0, 0]	n/a	catFR1	2	R1485J
154.475	1.959	283799	REC_WORD	2.927	n/a	ORANGUTAN	Zoo	6	-1	[0, 0, 0]	n/a	catFR1	2	R1485J
156.434	5.136	285758	REC_WORD	4.886	n/a	ZEBRA	Zoo	9	-1	[0, 0, 0]	n/a	catFR1	2	R1485J
161.57	2.218	290894	REC_WORD	10.022	n/a	HEADPHONES	Electronics	2	-1	[0, 0, 0]	n/a	catFR1	2	R1485J
163.788	17.948	293112	REC_WORD	12.24	n/a	SPEAKER	Electronics	1	-1	[0, 0, 0]	n/a	catFR1	2	R1485J
181.736	19.761	311059	REC_END	n/a	n/a	n/a	n/a	-999	-1	[0, 0, 0]	n/a	catFR1	2	R1485J
201.497	10.0	330820	COUNTDOWN_START	n/a	n/a	n/a	n/a	-999	1	[0, 0, 0]	n/a	catFR1	2	R1485J
211.847	0.0	341168	COUNTDOWN_END	n/a	n/a	n/a	n/a	-999	1	[0, 0, 0]	n/a	catFR1	2	R1485J
211.847	2.201	341168	ENCODING_START	n/a	n/a	n/a	n/a	-999	1	[0, 0, 0]	n/a	catFR1	2	R1485J
214.048	1.6	343367	WORD	n/a	wordpools/wordpool_categorized_EN.txt	HILLS	Landscapes	1	1	[0, 0, 0]	n/a	catFR1	2	R1485J
215.648	0.967	344967	WORD_OFF	n/a	n/a	HILLS	Landscapes	1	1	[0, 0, 0]	n/a	catFR1	2	R1485J
216.615	1.6	345937	WORD	n/a	wordpools/wordpool_categorized_EN.txt	STREAM	Landscapes	2	1	[0, 0, 0]	n/a	catFR1	2	R1485J
218.215	0.884	347537	WORD_OFF	n/a	n/a	STREAM	Landscapes	2	1	[0, 0, 0]	n/a	catFR1	2	R1485J
219.099	1.6	348417	WORD	n/a	wordpools/wordpool_categorized_EN.txt	LIGHTNING	Weather	3	1	[0, 0, 0]	n/a	catFR1	2	R1485J
220.713	0.951	350040	WORD_OFF	n/a	n/a	LIGHTNING	Weather	3	1	[0, 0, 0]	n/a	catFR1	2	R1485J
221.664	1.6	350987	WORD	n/a	wordpools/wordpool_categorized_EN.txt	CLOUD	Weather	4	1	[0, 0, 0]	n/a	catFR1	2	R1485J
223.264	0.933	352588	WORD_OFF	n/a	n/a	CLOUD	Weather	4	1	[0, 0, 0]	n/a	catFR1	2	R1485J
224.197	1.6	353523	WORD	n/a	wordpools/wordpool_categorized_EN.txt	VIOLET	Flowers	5	1	[0, 0, 0]	n/a	catFR1	2	R1485J
225.797	0.834	355124	WORD_OFF	n/a	n/a	VIOLET	Flowers	5	1	[0, 0, 0]	n/a	catFR1	2	R1485J
226.631	1.6	355958	WORD	n/a	wordpools/wordpool_categorized_EN.txt	TULIP	Flowers	6	1	[0, 0, 0]	n/a	catFR1	2	R1485J
228.231	0.834	357553	WORD_OFF	n/a	n/a	TULIP	Flowers	6	1	[0, 0, 0]	n/a	catFR1	2	R1485J
229.065	1.6	358382	WORD	n/a	wordpools/wordpool_categorized_EN.txt	LAKE	Landscapes	7	1	[0, 0, 0]	n/a	catFR1	2	R1485J
230.682	0.982	360005	WORD_OFF	n/a	n/a	LAKE	Landscapes	7	1	[0, 0, 0]	n/a	catFR1	2	R1485J
231.664	1.6	360986	WORD	n/a	wordpools/wordpool_categorized_EN.txt	WOODS	Landscapes	8	1	[0, 0, 0]	n/a	catFR1	2	R1485J
233.281	0.917	362599	WORD_OFF	n/a	n/a	WOODS	Landscapes	8	1	[0, 0, 0]	n/a	catFR1	2	R1485J
234.198	1.6	363522	WORD	n/a	wordpools/wordpool_categorized_EN.txt	ORCHID	Flowers	9	1	[0, 0, 0]	n/a	catFR1	2	R1485J
235.797	0.95	365123	WORD_OFF	n/a	n/a	ORCHID	Flowers	9	1	[0, 0, 0]	n/a	catFR1	2	R1485J
236.747	1.6	366070	WORD	n/a	wordpools/wordpool_categorized_EN.txt	MARIGOLD	Flowers	10	1	[0, 0, 0]	n/a	catFR1	2	R1485J
238.347	0.95	367671	WORD_OFF	n/a	n/a	MARIGOLD	Flowers	10	1	[0, 0, 0]	n/a	catFR1	2	R1485J
239.297	1.6	368617	WORD	n/a	wordpools/wordpool_categorized_EN.txt	SNOW	Weather	11	1	[0, 0, 0]	n/a	catFR1	2	R1485J
240.898	0.967	370218	WORD_OFF	n/a	n/a	SNOW	Weather	11	1	[0, 0, 0]	n/a	catFR1	2	R1485J
241.865	1.6	371188	WORD	n/a	wordpools/wordpool_categorized_EN.txt	RAIN	Weather	12	1	[0, 0, 0]	n/a	catFR1	2	R1485J
243.481	0.0	372800	WORD_OFF	n/a	n/a	RAIN	Weather	12	1	[0, 0, 0]	n/a	catFR1	2	R1485J
243.481	0.0	372800	ENCODING_END	n/a	n/a	n/a	n/a	-999	1	[0, 0, 0]	n/a	catFR1	2	R1485J
243.481	0.001	372802	PROB	5.983	n/a	n/a	n/a	-999	1	[2, 6, 1]	9.0	catFR1	2	R1485J
243.482	0.0	372803	START	n/a	n/a	n/a	n/a	-999	1	[-999, -999, -999]	n/a	catFR1	2	R1485J
243.482	6.0	372811	DISTRACT_START	n/a	n/a	n/a	n/a	-999	1	[0, 0, 0]	n/a	catFR1	2	R1485J
249.482	2.216	378802	PROB	2.199	n/a	n/a	n/a	-999	1	[3, 1, 1]	5.0	catFR1	2	R1485J
251.698	5.0	381018	PROB	4.982	n/a	n/a	n/a	-999	1	[7, 5, 4]	16.0	catFR1	2	R1485J
256.698	2.916	386018	PROB	2.899	n/a	n/a	n/a	-999	1	[5, 1, 1]	7.0	catFR1	2	R1485J
259.614	7.433	388934	PROB	7.416	n/a	n/a	n/a	-999	1	[7, 4, 8]	19.0	catFR1	2	R1485J
267.047	0.0	396367	STOP	n/a	n/a	n/a	n/a	-999	1	[-999, -999, -999]	n/a	catFR1	2	R1485J
267.047	2.183	396371	DISTRACT_END	n/a	n/a	n/a	n/a	-999	1	[0, 0, 0]	n/a	catFR1	2	R1485J
269.23	0.86	398555	REC_START	n/a	n/a	n/a	n/a	-999	1	[0, 0, 0]	n/a	catFR1	2	R1485J
270.09	1.019	399410	REC_WORD	0.86	n/a	TULIP	Flowers	6	1	[0, 0, 0]	n/a	catFR1	2	R1485J
271.109	1.174	400429	REC_WORD	1.879	n/a	MARIGOLD	Flowers	10	1	[0, 0, 0]	n/a	catFR1	2	R1485J
272.283	1.889	401603	REC_WORD	3.053	n/a	VIOLET	Flowers	5	1	[0, 0, 0]	n/a	catFR1	2	R1485J
274.172	1.798	403491	REC_WORD	4.942	n/a	STREAM	Landscapes	2	1	[0, 0, 0]	n/a	catFR1	2	R1485J
275.97	2.085	405289	REC_WORD	6.74	n/a	HILLS	Landscapes	1	1	[0, 0, 0]	n/a	catFR1	2	R1485J
278.055	21.395	407374	REC_WORD	8.825	n/a	CLOUD	Weather	4	1	[0, 0, 0]	n/a	catFR1	2	R1485J
299.45	4.531	428769	REC_END	n/a	n/a	n/a	n/a	-999	1	[0, 0, 0]	n/a	catFR1	2	R1485J
303.981	10.0	433300	COUNTDOWN_START	n/a	n/a	n/a	n/a	-999	2	[0, 0, 0]	n/a	catFR1	2	R1485J
314.333	0.0	443649	COUNTDOWN_END	n/a	n/a	n/a	n/a	-999	2	[0, 0, 0]	n/a	catFR1	2	R1485J
314.333	2.183	443649	ENCODING_START	n/a	n/a	n/a	n/a	-999	2	[0, 0, 0]	n/a	catFR1	2	R1485J
316.516	1.6	445836	WORD	n/a	wordpools/wordpool_categorized_EN.txt	TAPE	OfficeSupplies	1	2	[0, 0, 0]	n/a	catFR1	2	R1485J
318.132	0.851	447448	WORD_OFF	n/a	n/a	TAPE	OfficeSupplies	1	2	[0, 0, 0]	n/a	catFR1	2	R1485J
318.983	1.6	448304	WORD	n/a	wordpools/wordpool_categorized_EN.txt	PAPER	OfficeSupplies	2	2	[0, 0, 0]	n/a	catFR1	2	R1485J
320.599	0.966	449916	WORD_OFF	n/a	n/a	PAPER	OfficeSupplies	2	2	[0, 0, 0]	n/a	catFR1	2	R1485J
321.565	1.6	450886	WORD	n/a	wordpools/wordpool_categorized_EN.txt	TOE	BodyParts	3	2	[0, 0, 0]	n/a	catFR1	2	R1485J
323.166	0.967	452486	WORD_OFF	n/a	n/a	TOE	BodyParts	3	2	[0, 0, 0]	n/a	catFR1	2	R1485J
324.133	1.6	453456	WORD	n/a	wordpools/wordpool_categorized_EN.txt	HAND	BodyParts	4	2	[0, 0, 0]	n/a	catFR1	2	R1485J
325.732	1.0	455045	WORD_OFF	n/a	n/a	HAND	BodyParts	4	2	[0, 0, 0]	n/a	catFR1	2	R1485J
326.732	1.6	456049	WORD	n/a	wordpools/wordpool_categorized_EN.txt	MONKEY	Zoo	5	2	[0, 0, 0]	n/a	catFR1	2	R1485J
328.332	0.9	457649	WORD_OFF	n/a	n/a	MONKEY	Zoo	5	2	[0, 0, 0]	n/a	catFR1	2	R1485J
329.232	1.6	458551	WORD	n/a	wordpools/wordpool_categorized_EN.txt	CHEETAH	Zoo	6	2	[0, 0, 0]	n/a	catFR1	2	R1485J
330.849	0.918	460163	WORD_OFF	n/a	n/a	CHEETAH	Zoo	6	2	[0, 0, 0]	n/a	catFR1	2	R1485J
331.767	1.6	461088	WORD	n/a	wordpools/wordpool_categorized_EN.txt	FOLDER	OfficeSupplies	7	2	[0, 0, 0]	n/a	catFR1	2	R1485J
333.383	0.783	462700	WORD_OFF	n/a	n/a	FOLDER	OfficeSupplies	7	2	[0, 0, 0]	n/a	catFR1	2	R1485J
334.166	1.6	463489	WORD	n/a	wordpools/wordpool_categorized_EN.txt	STAPLER	OfficeSupplies	8	2	[0, 0, 0]	n/a	catFR1	2	R1485J
335.782	0.801	465101	WORD_OFF	n/a	n/a	STAPLER	OfficeSupplies	8	2	[0, 0, 0]	n/a	catFR1	2	R1485J
336.583	1.6	465901	WORD	n/a	wordpools/wordpool_categorized_EN.txt	LION	Zoo	9	2	[0, 0, 0]	n/a	catFR1	2	R1485J
338.182	0.851	467502	WORD_OFF	n/a	n/a	LION	Zoo	9	2	[0, 0, 0]	n/a	catFR1	2	R1485J
339.033	1.6	468347	WORD	n/a	wordpools/wordpool_categorized_EN.txt	ELEPHANT	Zoo	10	2	[0, 0, 0]	n/a	catFR1	2	R1485J
340.649	0.765	469970	WORD_OFF	n/a	n/a	ELEPHANT	Zoo	10	2	[0, 0, 0]	n/a	catFR1	2	R1485J
341.414	1.6	470737	WORD	n/a	wordpools/wordpool_categorized_EN.txt	FINGERS	BodyParts	11	2	[0, 0, 0]	n/a	catFR1	2	R1485J
343.014	0.818	472326	WORD_OFF	n/a	n/a	FINGERS	BodyParts	11	2	[0, 0, 0]	n/a	catFR1	2	R1485J
343.832	1.6	473149	WORD	n/a	wordpools/wordpool_categorized_EN.txt	KNEE	BodyParts	12	2	[0, 0, 0]	n/a	catFR1	2	R1485J
345.433	0.0	474749	PROB	5.031	n/a	n/a	n/a	-999	2	[7, 2, 8]	17.0	catFR1	2	R1485J
345.433	0.001	474750	WORD_OFF	n/a	n/a	KNEE	BodyParts	12	2	[0, 0, 0]	n/a	catFR1	2	R1485J
345.434	0.0	474750	ENCODING_END	n/a	n/a	n/a	n/a	-999	2	[0, 0, 0]	n/a	catFR1	2	R1485J
345.434	0.0	474750	DISTRACT_START	n/a	n/a	n/a	n/a	-999	2	[0, 0, 0]	n/a	catFR1	2	R1485J
345.434	5.049	474750	START	n/a	n/a	n/a	n/a	-999	2	[-999, -999, -999]	n/a	catFR1	2	R1485J
350.483	3.984	479799	PROB	3.966	n/a	n/a	n/a	-999	2	[5, 2, 3]	10.0	catFR1	2	R1485J
354.467	3.314	483783	PROB	3.3	n/a	n/a	n/a	-999	2	[1, 4, 7]	12.0	catFR1	2	R1485J
357.781	7.817	487097	PROB	7.8	n/a	n/a	n/a	-999	2	[4, 8, 8]	20.0	catFR1	2	R1485J
365.598	0.0	494914	STOP	n/a	n/a	n/a	n/a	-999	2	[-999, -999, -999]	n/a	catFR1	2	R1485J
365.598	2.25	494917	DISTRACT_END	n/a	n/a	n/a	n/a	-999	2	[0, 0, 0]	n/a	catFR1	2	R1485J
367.848	1.319	497168	REC_START	n/a	n/a	n/a	n/a	-999	2	[0, 0, 0]	n/a	catFR1	2	R1485J
369.167	1.637	498483	REC_WORD	1.319	n/a	HAND	BodyParts	4	2	[0, 0, 0]	n/a	catFR1	2	R1485J
370.804	1.202	500119	REC_WORD	2.956	n/a	KNEE	BodyParts	12	2	[0, 0, 0]	n/a	catFR1	2	R1485J
372.006	4.458	501321	REC_WORD	4.158	n/a	FINGERS	BodyParts	11	2	[0, 0, 0]	n/a	catFR1	2	R1485J
376.464	1.0	505779	REC_WORD_VV	8.616	n/a	<>	n/a	-999	2	[0, 0, 0]	n/a	catFR1	2	R1485J
377.464	1.0	506779	REC_WORD_VV	9.616	n/a	<>	n/a	-999	2	[0, 0, 0]	n/a	catFR1	2	R1485J
378.464	1.0	507779	REC_WORD_VV	10.616	n/a	<>	n/a	-999	2	[0, 0, 0]	n/a	catFR1	2	R1485J
379.464	1.0	508779	REC_WORD_VV	11.616	n/a	<>	n/a	-999	2	[0, 0, 0]	n/a	catFR1	2	R1485J
380.464	1.0	509779	REC_WORD_VV	12.616	n/a	<>	n/a	-999	2	[0, 0, 0]	n/a	catFR1	2	R1485J
381.464	1.0	510779	REC_WORD_VV	13.616	n/a	<>	n/a	-999	2	[0, 0, 0]	n/a	catFR1	2	R1485J
382.464	1.0	511779	REC_WORD_VV	14.616	n/a	<>	n/a	-999	2	[0, 0, 0]	n/a	catFR1	2	R1485J
383.464	1.0	512779	REC_WORD_VV	15.616	n/a	<>	n/a	-999	2	[0, 0, 0]	n/a	catFR1	2	R1485J
384.464	1.0	513779	REC_WORD_VV	16.616	n/a	<>	n/a	-999	2	[0, 0, 0]	n/a	catFR1	2	R1485J
385.464	1.0	514779	REC_WORD_VV	17.616	n/a	<>	n/a	-999	2	[0, 0, 0]	n/a	catFR1	2	R1485J
386.464	1.0	515779	REC_WORD_VV	18.616	n/a	<>	n/a	-999	2	[0, 0, 0]	n/a	catFR1	2	R1485J
387.464	1.0	516779	REC_WORD_VV	19.616	n/a	<>	n/a	-999	2	[0, 0, 0]	n/a	catFR1	2	R1485J
388.464	7.885	517779	REC_WORD_VV	20.616	n/a	<>	n/a	-999	2	[0, 0, 0]	n/a	catFR1	2	R1485J
396.349	1.0	525663	REC_WORD_VV	28.501	n/a	<>	n/a	-999	2	[0, 0, 0]	n/a	catFR1	2	R1485J
397.349	0.683	526663	REC_WORD_VV	29.501	n/a	<>	n/a	-999	2	[0, 0, 0]	n/a	catFR1	2	R1485J
398.032	3.0	527349	REC_END	n/a	n/a	n/a	n/a	-999	2	[0, 0, 0]	n/a	catFR1	2	R1485J
401.032	10.0	530347	COUNTDOWN_START	n/a	n/a	n/a	n/a	-999	3	[0, 0, 0]	n/a	catFR1	2	R1485J
411.382	0.0	540696	COUNTDOWN_END	n/a	n/a	n/a	n/a	-999	3	[0, 0, 0]	n/a	catFR1	2	R1485J
411.382	2.317	540696	ENCODING_START	n/a	n/a	n/a	n/a	-999	3	[0, 0, 0]	n/a	catFR1	2	R1485J
413.699	1.6	543018	WORD	n/a	wordpools/wordpool_categorized_EN.txt	ISLAND	Landscapes	1	3	[0, 0, 0]	n/a	catFR1	2	R1485J
415.299	0.95	544618	WORD_OFF	n/a	n/a	ISLAND	Landscapes	1	3	[0, 0, 0]	n/a	catFR1	2	R1485J
416.249	1.6	545565	WORD	n/a	wordpools/wordpool_categorized_EN.txt	FOREST	Landscapes	2	3	[0, 0, 0]	n/a	catFR1	2	R1485J
417.849	0.817	547166	WORD_OFF	n/a	n/a	FOREST	Landscapes	2	3	[0, 0, 0]	n/a	catFR1	2	R1485J
418.666	1.6	547978	WORD	n/a	wordpools/wordpool_categorized_EN.txt	SPARROW	Birds	3	3	[0, 0, 0]	n/a	catFR1	2	R1485J
420.282	0.8	549601	WORD_OFF	n/a	n/a	SPARROW	Birds	3	3	[0, 0, 0]	n/a	catFR1	2	R1485J
421.082	1.6	550401	WORD	n/a	wordpools/wordpool_categorized_EN.txt	HAWK	Birds	4	3	[0, 0, 0]	n/a	catFR1	2	R1485J
422.683	0.849	552002	WORD_OFF	n/a	n/a	HAWK	Birds	4	3	[0, 0, 0]	n/a	catFR1	2	R1485J
423.532	1.6	552847	WORD	n/a	wordpools/wordpool_categorized_EN.txt	WINDOW	Building	5	3	[0, 0, 0]	n/a	catFR1	2	R1485J
425.149	0.966	554459	WORD_OFF	n/a	n/a	WINDOW	Building	5	3	[0, 0, 0]	n/a	catFR1	2	R1485J
426.115	1.6	555429	WORD	n/a	wordpools/wordpool_categorized_EN.txt	FLOOR	Building	6	3	[0, 0, 0]	n/a	catFR1	2	R1485J
427.716	0.966	557030	WORD_OFF	n/a	n/a	FLOOR	Building	6	3	[0, 0, 0]	n/a	catFR1	2	R1485J
428.682	1.6	557999	WORD	n/a	wordpools/wordpool_categorized_EN.txt	DUCK	Birds	7	3	[0, 0, 0]	n/a	catFR1	2	R1485J
430.282	0.934	559600	WORD_OFF	n/a	n/a	DUCK	Birds	7	3	[0, 0, 0]	n/a	catFR1	2	R1485J
431.216	1.6	560535	WORD	n/a	wordpools/wordpool_categorized_EN.txt	SEAGULL	Birds	8	3	[0, 0, 0]	n/a	catFR1	2	R1485J
432.832	0.934	562147	WORD_OFF	n/a	n/a	SEAGULL	Birds	8	3	[0, 0, 0]	n/a	catFR1	2	R1485J
433.766	1.6	563083	WORD	n/a	wordpools/wordpool_categorized_EN.txt	RIVER	Landscapes	9	3	[0, 0, 0]	n/a	catFR1	2	R1485J
435.367	0.899	564684	WORD_OFF	n/a	n/a	RIVER	Landscapes	9	3	[0, 0, 0]	n/a	catFR1	2	R1485J
436.266	1.6	565574	WORD	n/a	wordpools/wordpool_categorized_EN.txt	OCEAN	Landscapes	10	3	[0, 0, 0]	n/a	catFR1	2	R1485J
437.882	0.767	567198	WORD_OFF	n/a	n/a	OCEAN	Landscapes	10	3	[0, 0, 0]	n/a	catFR1	2	R1485J
438.649	1.6	567964	WORD	n/a	wordpools/wordpool_categorized_EN.txt	BATHROOM	Building	11	3	[0, 0, 0]	n/a	catFR1	2	R1485J
440.249	0.917	569565	WORD_OFF	n/a	n/a	BATHROOM	Building	11	3	[0, 0, 0]	n/a	catFR1	2	R1485J
441.166	1.6	570478	WORD	n/a	wordpools/wordpool_categorized_EN.txt	ROOF	Building	12	3	[0, 0, 0]	n/a	catFR1	2	R1485J
442.766	0.003	572079	WORD_OFF	n/a	n/a	ROOF	Building	12	3	[0, 0, 0]	n/a	catFR1	2	R1485J
442.769	0.0	572079	ENCODING_END	n/a	n/a	n/a	n/a	-999	3	[0, 0, 0]	n/a	catFR1	2	R1485J
442.769	0.0	572079	DISTRACT_START	n/a	n/a	n/a	n/a	-999	3	[0, 0, 0]	n/a	catFR1	2	R1485J
442.767	0.002	572079	PROB	3.532	n/a	n/a	n/a	-999	3	[6, 5, 1]	12.0	catFR1	2	R1485J
442.769	3.547	572081	START	n/a	n/a	n/a	n/a	-999	3	[-999, -999, -999]	n/a	catFR1	2	R1485J
446.316	4.75	575628	PROB	4.733	n/a	n/a	n/a	-999	3	[7, 7, 3]	17.0	catFR1	2	R1485J
451.066	5.867	580378	PROB	5.848	n/a	n/a	n/a	-999	3	[1, 5, 7]	13.0	catFR1	2	R1485J
456.933	4.55	586245	PROB	4.531	n/a	n/a	n/a	-999	3	[3, 7, 5]	15.0	catFR1	2	R1485J
461.483	5.333	590795	PROB	5.315	n/a	n/a	n/a	-999	3	[7, 2, 5]	14.0	catFR1	2	R1485J
466.816	0.0	596123	DISTRACT_END	n/a	n/a	n/a	n/a	-999	3	[0, 0, 0]	n/a	catFR1	2	R1485J
466.816	2.249	596127	STOP	n/a	n/a	n/a	n/a	-999	3	[-999, -999, -999]	n/a	catFR1	2	R1485J
469.065	1.92	598375	REC_START	n/a	n/a	n/a	n/a	-999	3	[0, 0, 0]	n/a	catFR1	2	R1485J
470.985	1.113	600296	REC_WORD	1.92	n/a	SPARROW	Birds	3	3	[0, 0, 0]	n/a	catFR1	2	R1485J
472.098	1.193	601409	REC_WORD	3.033	n/a	HAWK	Birds	4	3	[0, 0, 0]	n/a	catFR1	2	R1485J
473.291	3.733	602602	REC_WORD	4.226	n/a	WINDOW	Building	5	3	[0, 0, 0]	n/a	catFR1	2	R1485J
477.024	9.149	606335	REC_WORD	7.959	n/a	FLOOR	Building	6	3	[0, 0, 0]	n/a	catFR1	2	R1485J
486.173	13.113	615484	REC_WORD	17.108	n/a	DUCK	Birds	7	3	[0, 0, 0]	n/a	catFR1	2	R1485J
499.286	3.496	628600	REC_END	n/a	n/a	n/a	n/a	-999	3	[0, 0, 0]	n/a	catFR1	2	R1485J
502.782	10.0	632095	COUNTDOWN_START	n/a	n/a	n/a	n/a	-999	4	[0, 0, 0]	n/a	catFR1	2	R1485J
513.132	0.0	642443	COUNTDOWN_END	n/a	n/a	n/a	n/a	-999	4	[0, 0, 0]	n/a	catFR1	2	R1485J
513.132	2.034	642443	ENCODING_START	n/a	n/a	n/a	n/a	-999	4	[0, 0, 0]	n/a	catFR1	2	R1485J
515.166	1.6	644472	WORD	n/a	wordpools/wordpool_categorized_EN.txt	HUMIDITY	Weather	1	4	[0, 0, 0]	n/a	catFR1	2	R1485J
516.766	0.783	646073	WORD_OFF	n/a	n/a	HUMIDITY	Weather	1	4	[0, 0, 0]	n/a	catFR1	2	R1485J
517.549	1.6	646862	WORD	n/a	wordpools/wordpool_categorized_EN.txt	WIND	Weather	2	4	[0, 0, 0]	n/a	catFR1	2	R1485J
519.166	0.816	648474	WORD_OFF	n/a	n/a	WIND	Weather	2	4	[0, 0, 0]	n/a	catFR1	2	R1485J
519.982	1.6	649297	WORD	n/a	wordpools/wordpool_categorized_EN.txt	FLEECE	Fabric	3	4	[0, 0, 0]	n/a	catFR1	2	R1485J
521.599	0.783	650909	WORD_OFF	n/a	n/a	FLEECE	Fabric	3	4	[0, 0, 0]	n/a	catFR1	2	R1485J
522.382	1.6	651687	WORD	n/a	wordpools/wordpool_categorized_EN.txt	SPANDEX	Fabric	4	4	[0, 0, 0]	n/a	catFR1	2	R1485J
523.982	0.95	653287	WORD_OFF	n/a	n/a	SPANDEX	Fabric	4	4	[0, 0, 0]	n/a	catFR1	2	R1485J
524.932	1.6	654246	WORD	n/a	wordpools/wordpool_categorized_EN.txt	GLUE	OfficeSupplies	5	4	[0, 0, 0]	n/a	catFR1	2	R1485J
526.532	0.867	655846	WORD_OFF	n/a	n/a	GLUE	OfficeSupplies	5	4	[0, 0, 0]	n/a	catFR1	2	R1485J
527.399	1.6	656714	WORD	n/a	wordpools/wordpool_categorized_EN.txt	NOTEBOOK	OfficeSupplies	6	4	[0, 0, 0]	n/a	catFR1	2	R1485J
528.999	0.967	658304	WORD_OFF	n/a	n/a	NOTEBOOK	OfficeSupplies	6	4	[0, 0, 0]	n/a	catFR1	2	R1485J
529.966	1.6	659273	WORD	n/a	wordpools/wordpool_categorized_EN.txt	SUEDE	Fabric	7	4	[0, 0, 0]	n/a	catFR1	2	R1485J
531.566	0.8	660874	WORD_OFF	n/a	n/a	SUEDE	Fabric	7	4	[0, 0, 0]	n/a	catFR1	2	R1485J
532.366	1.6	661674	WORD	n/a	wordpools/wordpool_categorized_EN.txt	SILK	Fabric	8	4	[0, 0, 0]	n/a	catFR1	2	R1485J
533.981	0.918	663286	WORD_OFF	n/a	n/a	SILK	Fabric	8	4	[0, 0, 0]	n/a	catFR1	2	R1485J
534.899	1.6	664211	WORD	n/a	wordpools/wordpool_categorized_EN.txt	THUNDER	Weather	9	4	[0, 0, 0]	n/a	catFR1	2	R1485J
536.499	0.984	665811	WORD_OFF	n/a	n/a	THUNDER	Weather	9	4	[0, 0, 0]	n/a	catFR1	2	R1485J
537.483	1.6	666792	WORD	n/a	wordpools/wordpool_categorized_EN.txt	FOG	Weather	10	4	[0, 0, 0]	n/a	catFR1	2	R1485J
539.082	1.001	668393	WORD_OFF	n/a	n/a	FOG	Weather	10	4	[0, 0, 0]	n/a	catFR1	2	R1485J
540.083	1.6	669396	WORD	n/a	wordpools/wordpool_categorized_EN.txt	MARKER	OfficeSupplies	11	4	[0, 0, 0]	n/a	catFR1	2	R1485J
541.699	0.966	671008	WORD_OFF	n/a	n/a	MARKER	OfficeSupplies	11	4	[0, 0, 0]	n/a	catFR1	2	R1485J
542.665	1.6	671978	WORD	n/a	wordpools/wordpool_categorized_EN.txt	PEN	OfficeSupplies	12	4	[0, 0, 0]	n/a	catFR1	2	R1485J
544.266	0.001	673574	PROB	6.499	n/a	n/a	n/a	-999	4	[1, 2, 4]	7.0	catFR1	2	R1485J
544.267	0.0	673575	START	n/a	n/a	n/a	n/a	-999	4	[-999, -999, -999]	n/a	catFR1	2	R1485J
544.266	0.001	673578	WORD_OFF	n/a	n/a	PEN	OfficeSupplies	12	4	[0, 0, 0]	n/a	catFR1	2	R1485J
544.267	0.0	673578	ENCODING_END	n/a	n/a	n/a	n/a	-999	4	[0, 0, 0]	n/a	catFR1	2	R1485J
544.267	6.516	673578	DISTRACT_START	n/a	n/a	n/a	n/a	-999	4	[0, 0, 0]	n/a	catFR1	2	R1485J
550.783	7.599	680091	PROB	7.582	n/a	n/a	n/a	-999	4	[6, 5, 8]	19.0	catFR1	2	R1485J
558.382	7.833	687690	PROB	7.816	n/a	n/a	n/a	-999	4	[5, 6, 6]	17.0	catFR1	2	R1485J
566.215	0.0	695522	STOP	n/a	n/a	n/a	n/a	-999	4	[-999, -999, -999]	n/a	catFR1	2	R1485J
566.215	2.233	695526	DISTRACT_END	n/a	n/a	n/a	n/a	-999	4	[0, 0, 0]	n/a	catFR1	2	R1485J
568.448	0.923	697755	REC_START	n/a	n/a	n/a	n/a	-999	4	[0, 0, 0]	n/a	catFR1	2	R1485J
569.371	0.792	698678	REC_WORD	0.923	n/a	SILK	Fabric	8	4	[0, 0, 0]	n/a	catFR1	2	R1485J
570.163	1.101	699470	REC_WORD	1.715	n/a	SUEDE	Fabric	7	4	[0, 0, 0]	n/a	catFR1	2	R1485J
571.264	10.374	700571	REC_WORD	2.816	n/a	MARKER	OfficeSupplies	11	4	[0, 0, 0]	n/a	catFR1	2	R1485J
581.638	0.582	710945	REC_WORD	13.19	n/a	SILK	Fabric	8	4	[0, 0, 0]	n/a	catFR1	2	R1485J
582.22	1.0	711527	REC_WORD	13.772	n/a	SUEDE	Fabric	7	4	[0, 0, 0]	n/a	catFR1	2	R1485J
583.22	11.25	712527	REC_WORD_VV	14.772	n/a	<>	n/a	-999	4	[0, 0, 0]	n/a	catFR1	2	R1485J
594.47	0.485	723776	REC_WORD_VV	26.022	n/a	<>	n/a	-999	4	[0, 0, 0]	n/a	catFR1	2	R1485J
594.955	3.724	724261	REC_WORD	26.507	n/a	TAPE	OfficeSupplies	-999	4	[0, 0, 0]	n/a	catFR1	2	R1485J
598.679	5.453	727980	REC_END	n/a	n/a	n/a	n/a	-999	4	[0, 0, 0]	n/a	catFR1	2	R1485J
604.132	10.0	733436	COUNTDOWN_START	n/a	n/a	n/a	n/a	-999	5	[0, 0, 0]	n/a	catFR1	2	R1485J
614.482	0.0	743785	COUNTDOWN_END	n/a	n/a	n/a	n/a	-999	5	[0, 0, 0]	n/a	catFR1	2	R1485J
614.482	2.017	743785	ENCODING_START	n/a	n/a	n/a	n/a	-999	5	[0, 0, 0]	n/a	catFR1	2	R1485J
616.499	1.6	745803	WORD	n/a	wordpools/wordpool_categorized_EN.txt	STRAINER	KitchenTools	1	5	[0, 0, 0]	n/a	catFR1	2	R1485J
618.115	0.951	747426	WORD_OFF	n/a	n/a	STRAINER	KitchenTools	1	5	[0, 0, 0]	n/a	catFR1	2	R1485J
619.066	1.6	748373	WORD	n/a	wordpools/wordpool_categorized_EN.txt	WHISK	KitchenTools	2	5	[0, 0, 0]	n/a	catFR1	2	R1485J
620.666	0.883	749974	WORD_OFF	n/a	n/a	WHISK	KitchenTools	2	5	[0, 0, 0]	n/a	catFR1	2	R1485J
621.549	1.6	750853	WORD	n/a	wordpools/wordpool_categorized_EN.txt	PHONE	Electronics	3	5	[0, 0, 0]	n/a	catFR1	2	R1485J
623.165	1.001	752476	WORD_OFF	n/a	n/a	PHONE	Electronics	3	5	[0, 0, 0]	n/a	catFR1	2	R1485J
624.166	1.6	753468	WORD	n/a	wordpools/wordpool_categorized_EN.txt	MICROWAVE	Electronics	4	5	[0, 0, 0]	n/a	catFR1	2	R1485J
625.766	0.882	755069	WORD_OFF	n/a	n/a	MICROWAVE	Electronics	4	5	[0, 0, 0]	n/a	catFR1	2	R1485J
626.648	1.6	755959	WORD	n/a	wordpools/wordpool_categorized_EN.txt	LETTUCE	Vegetables	5	5	[0, 0, 0]	n/a	catFR1	2	R1485J
628.264	0.868	757571	WORD_OFF	n/a	n/a	LETTUCE	Vegetables	5	5	[0, 0, 0]	n/a	catFR1	2	R1485J
629.132	1.6	758439	WORD	n/a	wordpools/wordpool_categorized_EN.txt	CUCUMBER	Vegetables	6	5	[0, 0, 0]	n/a	catFR1	2	R1485J
630.733	0.833	760040	WORD_OFF	n/a	n/a	CUCUMBER	Vegetables	6	5	[0, 0, 0]	n/a	catFR1	2	R1485J
631.566	1.6	760874	WORD	n/a	wordpools/wordpool_categorized_EN.txt	CALCULATOR	Electronics	7	5	[0, 0, 0]	n/a	catFR1	2	R1485J
633.166	0.833	762475	WORD_OFF	n/a	n/a	CALCULATOR	Electronics	7	5	[0, 0, 0]	n/a	catFR1	2	R1485J
633.999	1.6	763309	WORD	n/a	wordpools/wordpool_categorized_EN.txt	RADIO	Electronics	8	5	[0, 0, 0]	n/a	catFR1	2	R1485J
635.599	0.9	764899	WORD_OFF	n/a	n/a	RADIO	Electronics	8	5	[0, 0, 0]	n/a	catFR1	2	R1485J
636.499	1.6	765800	WORD	n/a	wordpools/wordpool_categorized_EN.txt	CAULIFLOWER	Vegetables	9	5	[0, 0, 0]	n/a	catFR1	2	R1485J
638.1	0.783	767401	WORD_OFF	n/a	n/a	CAULIFLOWER	Vegetables	9	5	[0, 0, 0]	n/a	catFR1	2	R1485J
638.883	1.6	768190	WORD	n/a	wordpools/wordpool_categorized_EN.txt	CARROT	Vegetables	10	5	[0, 0, 0]	n/a	catFR1	2	R1485J
640.499	0.783	769802	WORD_OFF	n/a	n/a	CARROT	Vegetables	10	5	[0, 0, 0]	n/a	catFR1	2	R1485J
641.282	1.6	770591	WORD	n/a	wordpools/wordpool_categorized_EN.txt	TONGS	KitchenTools	11	5	[0, 0, 0]	n/a	catFR1	2	R1485J
642.899	0.999	772203	WORD_OFF	n/a	n/a	TONGS	KitchenTools	11	5	[0, 0, 0]	n/a	catFR1	2	R1485J
643.898	1.6	773207	WORD	n/a	wordpools/wordpool_categorized_EN.txt	PEELER	KitchenTools	12	5	[0, 0, 0]	n/a	catFR1	2	R1485J
645.498	0.001	774802	PROB	4.784	n/a	n/a	n/a	-999	5	[7, 2, 5]	14.0	catFR1	2	R1485J
645.499	0.0	774803	START	n/a	n/a	n/a	n/a	-999	5	[-999, -999, -999]	n/a	catFR1	2	R1485J
645.498	0.001	774807	WORD_OFF	n/a	n/a	PEELER	KitchenTools	12	5	[0, 0, 0]	n/a	catFR1	2	R1485J
645.499	0.0	774807	ENCODING_END	n/a	n/a	n/a	n/a	-999	5	[0, 0, 0]	n/a	catFR1	2	R1485J
645.499	4.8	774807	DISTRACT_START	n/a	n/a	n/a	n/a	-999	5	[0, 0, 0]	n/a	catFR1	2	R1485J
650.299	2.734	779603	PROB	2.716	n/a	n/a	n/a	-999	5	[5, 3, 7]	15.0	catFR1	2	R1485J
653.033	4.848	782337	PROB	4.832	n/a	n/a	n/a	-999	5	[8, 2, 4]	14.0	catFR1	2	R1485J
657.881	2.384	787185	PROB	2.366	n/a	n/a	n/a	-999	5	[5, 5, 1]	11.0	catFR1	2	R1485J
660.265	8.099	789568	PROB	8.083	n/a	n/a	n/a	-999	5	[8, 6, 5]	19.0	catFR1	2	R1485J
668.364	0.0	797667	STOP	n/a	n/a	n/a	n/a	-999	5	[-999, -999, -999]	n/a	catFR1	2	R1485J
668.364	2.35	797668	DISTRACT_END	n/a	n/a	n/a	n/a	-999	5	[0, 0, 0]	n/a	catFR1	2	R1485J
670.714	1.272	800021	REC_START	n/a	n/a	n/a	n/a	-999	5	[0, 0, 0]	n/a	catFR1	2	R1485J
671.986	1.721	801289	REC_WORD	1.272	n/a	STRAINER	KitchenTools	1	5	[0, 0, 0]	n/a	catFR1	2	R1485J
673.707	2.818	803010	REC_WORD	2.993	n/a	TONGS	KitchenTools	11	5	[0, 0, 0]	n/a	catFR1	2	R1485J
676.525	0.413	805828	REC_WORD	5.811	n/a	STRAINER	KitchenTools	1	5	[0, 0, 0]	n/a	catFR1	2	R1485J
676.938	0.594	806241	REC_WORD	6.224	n/a	TONGS	KitchenTools	11	5	[0, 0, 0]	n/a	catFR1	2	R1485J
677.532	15.808	806835	REC_WORD	6.818	n/a	WHISK	KitchenTools	2	5	[0, 0, 0]	n/a	catFR1	2	R1485J
693.34	1.186	822642	REC_WORD	22.626	n/a	CAULIFLOWER	Vegetables	9	5	[0, 0, 0]	n/a	catFR1	2	R1485J
694.526	2.97	823828	REC_WORD	23.812	n/a	CUCUMBER	Vegetables	6	5	[0, 0, 0]	n/a	catFR1	2	R1485J
697.496	3.419	826798	REC_WORD	26.782	n/a	MICROWAVE	Electronics	4	5	[0, 0, 0]	n/a	catFR1	2	R1485J
700.915	2.967	830213	REC_END	n/a	n/a	n/a	n/a	-999	5	[0, 0, 0]	n/a	catFR1	2	R1485J
703.882	10.0	833189	COUNTDOWN_START	n/a	n/a	n/a	n/a	-999	6	[0, 0, 0]	n/a	catFR1	2	R1485J
714.232	0.0	843537	COUNTDOWN_END	n/a	n/a	n/a	n/a	-999	6	[0, 0, 0]	n/a	catFR1	2	R1485J
714.232	1.967	843537	ENCODING_START	n/a	n/a	n/a	n/a	-999	6	[0, 0, 0]	n/a	catFR1	2	R1485J
716.199	1.6	845499	WORD	n/a	wordpools/wordpool_categorized_EN.txt	DRYER	Appliances	1	6	[0, 0, 0]	n/a	catFR1	2	R1485J
717.815	0.9	847122	WORD_OFF	n/a	n/a	DRYER	Appliances	1	6	[0, 0, 0]	n/a	catFR1	2	R1485J
718.715	1.6	848012	WORD	n/a	wordpools/wordpool_categorized_EN.txt	DISHWASHER	Appliances	2	6	[0, 0, 0]	n/a	catFR1	2	R1485J
720.316	0.833	849613	WORD_OFF	n/a	n/a	DISHWASHER	Appliances	2	6	[0, 0, 0]	n/a	catFR1	2	R1485J
721.149	1.6	850447	WORD	n/a	wordpools/wordpool_categorized_EN.txt	CORKSCREW	KitchenTools	3	6	[0, 0, 0]	n/a	catFR1	2	R1485J
722.749	0.915	852048	WORD_OFF	n/a	n/a	CORKSCREW	KitchenTools	3	6	[0, 0, 0]	n/a	catFR1	2	R1485J
723.664	1.6	852961	WORD	n/a	wordpools/wordpool_categorized_EN.txt	SPOON	KitchenTools	4	6	[0, 0, 0]	n/a	catFR1	2	R1485J
725.266	0.916	854562	WORD_OFF	n/a	n/a	SPOON	KitchenTools	4	6	[0, 0, 0]	n/a	catFR1	2	R1485J
726.182	1.6	855486	WORD	n/a	wordpools/wordpool_categorized_EN.txt	CABINET	Furniture	5	6	[0, 0, 0]	n/a	catFR1	2	R1485J
727.783	0.949	857087	WORD_OFF	n/a	n/a	CABINET	Furniture	5	6	[0, 0, 0]	n/a	catFR1	2	R1485J
728.732	1.6	858034	WORD	n/a	wordpools/wordpool_categorized_EN.txt	BOOKCASE	Furniture	6	6	[0, 0, 0]	n/a	catFR1	2	R1485J
730.333	0.898	859635	WORD_OFF	n/a	n/a	BOOKCASE	Furniture	6	6	[0, 0, 0]	n/a	catFR1	2	R1485J
731.231	1.6	860536	WORD	n/a	wordpools/wordpool_categorized_EN.txt	GRATER	KitchenTools	7	6	[0, 0, 0]	n/a	catFR1	2	R1485J
732.833	0.799	862137	WORD_OFF	n/a	n/a	GRATER	KitchenTools	7	6	[0, 0, 0]	n/a	catFR1	2	R1485J
733.632	1.6	862937	WORD	n/a	wordpools/wordpool_categorized_EN.txt	KNIFE	KitchenTools	8	6	[0, 0, 0]	n/a	catFR1	2	R1485J
735.248	0.85	864549	WORD_OFF	n/a	n/a	KNIFE	KitchenTools	8	6	[0, 0, 0]	n/a	catFR1	2	R1485J
736.098	1.6	865395	WORD	n/a	wordpools/wordpool_categorized_EN.txt	NIGHTSTAND	Furniture	9	6	[0, 0, 0]	n/a	catFR1	2	R1485J
737.699	0.983	866996	WORD_OFF	n/a	n/a	NIGHTSTAND	Furniture	9	6	[0, 0, 0]	n/a	catFR1	2	R1485J
738.682	1.6	867988	WORD	n/a	wordpools/wordpool_categorized_EN.txt	SOFA	Furniture	10	6	[0, 0, 0]	n/a	catFR1	2	R1485J
740.298	0.866	869600	WORD_OFF	n/a	n/a	SOFA	Furniture	10	6	[0, 0, 0]	n/a	catFR1	2	R1485J
741.164	1.6	870468	WORD	n/a	wordpools/wordpool_categorized_EN.txt	TOASTER	Appliances	11	6	[0, 0, 0]	n/a	catFR1	2	R1485J
742.765	0.999	872068	WORD_OFF	n/a	n/a	TOASTER	Appliances	11	6	[0, 0, 0]	n/a	catFR1	2	R1485J
743.764	1.6	873060	WORD	n/a	wordpools/wordpool_categorized_EN.txt	WASHER	Appliances	12	6	[0, 0, 0]	n/a	catFR1	2	R1485J
745.365	0.001	874661	WORD_OFF	n/a	n/a	WASHER	Appliances	12	6	[0, 0, 0]	n/a	catFR1	2	R1485J
745.366	0.0	874666	START	n/a	n/a	n/a	n/a	-999	6	[-999, -999, -999]	n/a	catFR1	2	R1485J
745.366	0.0	874666	PROB	3.433	n/a	n/a	n/a	-999	6	[1, 3, 4]	8.0	catFR1	2	R1485J
745.366	0.0	874672	ENCODING_END	n/a	n/a	n/a	n/a	-999	6	[0, 0, 0]	n/a	catFR1	2	R1485J
745.366	3.45	874672	DISTRACT_START	n/a	n/a	n/a	n/a	-999	6	[0, 0, 0]	n/a	catFR1	2	R1485J
748.816	6.499	878116	PROB	6.483	n/a	n/a	n/a	-999	6	[6, 7, 4]	17.0	catFR1	2	R1485J
755.315	4.449	884615	PROB	4.433	n/a	n/a	n/a	-999	6	[7, 3, 2]	12.0	catFR1	2	R1485J
759.764	4.867	889063	PROB	4.849	n/a	n/a	n/a	-999	6	[6, 5, 3]	14.0	catFR1	2	R1485J
764.631	5.368	893930	PROB	5.349	n/a	n/a	n/a	-999	6	[4, 7, 1]	12.0	catFR1	2	R1485J
769.999	0.0	899298	STOP	n/a	n/a	n/a	n/a	-999	6	[-999, -999, -999]	n/a	catFR1	2	R1485J
769.999	2.215	899303	DISTRACT_END	n/a	n/a	n/a	n/a	-999	6	[0, 0, 0]	n/a	catFR1	2	R1485J
772.214	17.202	901509	REC_START	n/a	n/a	n/a	n/a	-999	6	[0, 0, 0]	n/a	catFR1	2	R1485J
789.416	13.006	918714	REC_WORD_VV	17.202	n/a	<>	n/a	-999	6	[0, 0, 0]	n/a	catFR1	2	R1485J
802.422	2.276	931724	REC_END	n/a	n/a	n/a	n/a	-999	6	[0, 0, 0]	n/a	catFR1	2	R1485J
804.698	10.0	934001	COUNTDOWN_START	n/a	n/a	n/a	n/a	-999	7	[0, 0, 0]	n/a	catFR1	2	R1485J
815.048	0.0	944349	COUNTDOWN_END	n/a	n/a	n/a	n/a	-999	7	[0, 0, 0]	n/a	catFR1	2	R1485J
815.048	2.317	944349	ENCODING_START	n/a	n/a	n/a	n/a	-999	7	[0, 0, 0]	n/a	catFR1	2	R1485J
817.365	1.6	946660	WORD	n/a	wordpools/wordpool_categorized_EN.txt	CHAIR	Furniture	1	7	[0, 0, 0]	n/a	catFR1	2	R1485J
818.966	0.983	948261	WORD_OFF	n/a	n/a	CHAIR	Furniture	1	7	[0, 0, 0]	n/a	catFR1	2	R1485J
819.949	1.6	949241	WORD	n/a	wordpools/wordpool_categorized_EN.txt	DESK	Furniture	2	7	[0, 0, 0]	n/a	catFR1	2	R1485J
821.549	0.817	950842	WORD_OFF	n/a	n/a	DESK	Furniture	2	7	[0, 0, 0]	n/a	catFR1	2	R1485J
822.366	1.6	951665	WORD	n/a	wordpools/wordpool_categorized_EN.txt	HALLWAY	Building	3	7	[0, 0, 0]	n/a	catFR1	2	R1485J
823.982	0.867	953277	WORD_OFF	n/a	n/a	HALLWAY	Building	3	7	[0, 0, 0]	n/a	catFR1	2	R1485J
824.849	1.6	954145	WORD	n/a	wordpools/wordpool_categorized_EN.txt	STAIRS	Building	4	7	[0, 0, 0]	n/a	catFR1	2	R1485J
826.449	0.8	955746	WORD_OFF	n/a	n/a	STAIRS	Building	4	7	[0, 0, 0]	n/a	catFR1	2	R1485J
827.249	1.6	956546	WORD	n/a	wordpools/wordpool_categorized_EN.txt	SAW	Tools	5	7	[0, 0, 0]	n/a	catFR1	2	R1485J
828.865	0.866	958158	WORD_OFF	n/a	n/a	SAW	Tools	5	7	[0, 0, 0]	n/a	catFR1	2	R1485J
829.731	1.6	959026	WORD	n/a	wordpools/wordpool_categorized_EN.txt	SCREWDRIVER	Tools	6	7	[0, 0, 0]	n/a	catFR1	2	R1485J
831.332	0.766	960627	WORD_OFF	n/a	n/a	SCREWDRIVER	Tools	6	7	[0, 0, 0]	n/a	catFR1	2	R1485J
832.098	1.6	961393	WORD	n/a	wordpools/wordpool_categorized_EN.txt	CEILING	Building	7	7	[0, 0, 0]	n/a	catFR1	2	R1485J
833.699	0.9	962994	WORD_OFF	n/a	n/a	CEILING	Building	7	7	[0, 0, 0]	n/a	catFR1	2	R1485J
834.599	1.6	963896	WORD	n/a	wordpools/wordpool_categorized_EN.txt	FOUNDATION	Building	8	7	[0, 0, 0]	n/a	catFR1	2	R1485J
836.199	1.0	965497	WORD_OFF	n/a	n/a	FOUNDATION	Building	8	7	[0, 0, 0]	n/a	catFR1	2	R1485J
837.199	1.6	966500	WORD	n/a	wordpools/wordpool_categorized_EN.txt	BED	Furniture	9	7	[0, 0, 0]	n/a	catFR1	2	R1485J
838.799	1.0	968101	WORD_OFF	n/a	n/a	BED	Furniture	9	7	[0, 0, 0]	n/a	catFR1	2	R1485J
839.799	1.6	969093	WORD	n/a	wordpools/wordpool_categorized_EN.txt	DRESSER	Furniture	10	7	[0, 0, 0]	n/a	catFR1	2	R1485J
841.415	0.767	970716	WORD_OFF	n/a	n/a	DRESSER	Furniture	10	7	[0, 0, 0]	n/a	catFR1	2	R1485J
842.182	1.6	971482	WORD	n/a	wordpools/wordpool_categorized_EN.txt	SHOVEL	Tools	11	7	[0, 0, 0]	n/a	catFR1	2	R1485J
843.782	0.967	973083	WORD_OFF	n/a	n/a	SHOVEL	Tools	11	7	[0, 0, 0]	n/a	catFR1	2	R1485J
844.749	1.6	974041	WORD	n/a	wordpools/wordpool_categorized_EN.txt	AXE	Tools	12	7	[0, 0, 0]	n/a	catFR1	2	R1485J
846.365	0.001	975661	PROB	5.1	n/a	n/a	n/a	-999	7	[4, 6, 3]	13.0	catFR1	2	R1485J
846.366	0.0	975662	START	n/a	n/a	n/a	n/a	-999	7	[-999, -999, -999]	n/a	catFR1	2	R1485J
846.365	0.0	975665	WORD_OFF	n/a	n/a	AXE	Tools	12	7	[0, 0, 0]	n/a	catFR1	2	R1485J
846.365	0.001	975665	ENCODING_END	n/a	n/a	n/a	n/a	-999	7	[0, 0, 0]	n/a	catFR1	2	R1485J
846.366	5.117	975665	DISTRACT_START	n/a	n/a	n/a	n/a	-999	7	[0, 0, 0]	n/a	catFR1	2	R1485J
851.483	4.8	980779	PROB	4.781	n/a	n/a	n/a	-999	7	[4, 4, 5]	13.0	catFR1	2	R1485J
856.283	4.348	985578	PROB	4.332	n/a	n/a	n/a	-999	7	[1, 4, 4]	9.0	catFR1	2	R1485J
860.631	3.834	989926	PROB	3.817	n/a	n/a	n/a	-999	7	[3, 4, 7]	14.0	catFR1	2	R1485J
864.465	12.266	993760	PROB	12.249	n/a	n/a	n/a	-999	7	[2, 8, 3]	14.0	catFR1	2	R1485J
876.731	0.0	1006022	DISTRACT_END	n/a	n/a	n/a	n/a	-999	7	[0, 0, 0]	n/a	catFR1	2	R1485J
876.731	2.233	1006026	STOP	n/a	n/a	n/a	n/a	-999	7	[-999, -999, -999]	n/a	catFR1	2	R1485J
878.964	3.298	1008262	REC_START	n/a	n/a	n/a	n/a	-999	7	[0, 0, 0]	n/a	catFR1	2	R1485J
882.262	1.127	1011556	REC_WORD	3.298	n/a	DESK	Furniture	2	7	[0, 0, 0]	n/a	catFR1	2	R1485J
883.389	1.452	1012683	REC_WORD	4.425	n/a	SCREWDRIVER	Tools	6	7	[0, 0, 0]	n/a	catFR1	2	R1485J
884.841	24.353	1014135	REC_WORD	5.877	n/a	CEILING	Building	7	7	[0, 0, 0]	n/a	catFR1	2	R1485J
909.194	4.022	1038487	REC_END	n/a	n/a	n/a	n/a	-999	7	[0, 0, 0]	n/a	catFR1	2	R1485J
913.216	10.0	1042512	COUNTDOWN_START	n/a	n/a	n/a	n/a	-999	8	[0, 0, 0]	n/a	catFR1	2	R1485J
923.565	0.0	1052860	COUNTDOWN_END	n/a	n/a	n/a	n/a	-999	8	[0, 0, 0]	n/a	catFR1	2	R1485J
923.565	2.066	1052860	ENCODING_START	n/a	n/a	n/a	n/a	-999	8	[0, 0, 0]	n/a	catFR1	2	R1485J
925.631	1.6	1054923	WORD	n/a	wordpools/wordpool_categorized_EN.txt	ROSE	Flowers	1	8	[0, 0, 0]	n/a	catFR1	2	R1485J
927.232	0.917	1056524	WORD_OFF	n/a	n/a	ROSE	Flowers	1	8	[0, 0, 0]	n/a	catFR1	2	R1485J
928.149	1.6	1057439	WORD	n/a	wordpools/wordpool_categorized_EN.txt	DAFFODIL	Flowers	2	8	[0, 0, 0]	n/a	catFR1	2	R1485J
929.749	0.983	1059038	WORD_OFF	n/a	n/a	DAFFODIL	Flowers	2	8	[0, 0, 0]	n/a	catFR1	2	R1485J
930.732	1.6	1060030	WORD	n/a	wordpools/wordpool_categorized_EN.txt	BIKE	Vehicles	3	8	[0, 0, 0]	n/a	catFR1	2	R1485J
932.349	0.8	1061642	WORD_OFF	n/a	n/a	BIKE	Vehicles	3	8	[0, 0, 0]	n/a	catFR1	2	R1485J
933.149	1.6	1062442	WORD	n/a	wordpools/wordpool_categorized_EN.txt	SCOOTER	Vehicles	4	8	[0, 0, 0]	n/a	catFR1	2	R1485J
934.749	0.866	1064043	WORD_OFF	n/a	n/a	SCOOTER	Vehicles	4	8	[0, 0, 0]	n/a	catFR1	2	R1485J
935.615	1.6	1064911	WORD	n/a	wordpools/wordpool_categorized_EN.txt	GORILLA	Zoo	5	8	[0, 0, 0]	n/a	catFR1	2	R1485J
937.232	0.833	1066523	WORD_OFF	n/a	n/a	GORILLA	Zoo	5	8	[0, 0, 0]	n/a	catFR1	2	R1485J
938.065	1.6	1067357	WORD	n/a	wordpools/wordpool_categorized_EN.txt	GIRAFFE	Zoo	6	8	[0, 0, 0]	n/a	catFR1	2	R1485J
939.666	0.899	1068958	WORD_OFF	n/a	n/a	GIRAFFE	Zoo	6	8	[0, 0, 0]	n/a	catFR1	2	R1485J
940.565	1.6	1069859	WORD	n/a	wordpools/wordpool_categorized_EN.txt	TRUCK	Vehicles	7	8	[0, 0, 0]	n/a	catFR1	2	R1485J
942.18	0.868	1071471	WORD_OFF	n/a	n/a	TRUCK	Vehicles	7	8	[0, 0, 0]	n/a	catFR1	2	R1485J
943.048	1.6	1072339	WORD	n/a	wordpools/wordpool_categorized_EN.txt	TRAIN	Vehicles	8	8	[0, 0, 0]	n/a	catFR1	2	R1485J
944.649	0.966	1073940	WORD_OFF	n/a	n/a	TRAIN	Vehicles	8	8	[0, 0, 0]	n/a	catFR1	2	R1485J
945.615	1.6	1074910	WORD	n/a	wordpools/wordpool_categorized_EN.txt	CARNATION	Flowers	9	8	[0, 0, 0]	n/a	catFR1	2	R1485J
947.231	0.867	1076522	WORD_OFF	n/a	n/a	CARNATION	Flowers	9	8	[0, 0, 0]	n/a	catFR1	2	R1485J
948.098	1.6	1077390	WORD	n/a	wordpools/wordpool_categorized_EN.txt	SUNFLOWER	Flowers	10	8	[0, 0, 0]	n/a	catFR1	2	R1485J
949.698	0.801	1078990	WORD_OFF	n/a	n/a	SUNFLOWER	Flowers	10	8	[0, 0, 0]	n/a	catFR1	2	R1485J
950.499	1.6	1079791	WORD	n/a	wordpools/wordpool_categorized_EN.txt	TIGER	Zoo	11	8	[0, 0, 0]	n/a	catFR1	2	R1485J
952.114	0.768	1081403	WORD_OFF	n/a	n/a	TIGER	Zoo	11	8	[0, 0, 0]	n/a	catFR1	2	R1485J
952.882	1.6	1082169	WORD	n/a	wordpools/wordpool_categorized_EN.txt	CHIMPANZEE	Zoo	12	8	[0, 0, 0]	n/a	catFR1	2	R1485J
954.499	0.0	1083790	PROB	3.516	n/a	n/a	n/a	-999	8	[7, 7, 2]	16.0	catFR1	2	R1485J
954.499	0.0	1083790	START	n/a	n/a	n/a	n/a	-999	8	[-999, -999, -999]	n/a	catFR1	2	R1485J
954.498	0.001	1083793	WORD_OFF	n/a	n/a	CHIMPANZEE	Zoo	12	8	[0, 0, 0]	n/a	catFR1	2	R1485J
954.499	0.0	1083793	ENCODING_END	n/a	n/a	n/a	n/a	-999	8	[0, 0, 0]	n/a	catFR1	2	R1485J
954.499	3.534	1083793	DISTRACT_START	n/a	n/a	n/a	n/a	-999	8	[0, 0, 0]	n/a	catFR1	2	R1485J
958.033	5.398	1087324	PROB	5.382	n/a	n/a	n/a	-999	8	[2, 7, 6]	15.0	catFR1	2	R1485J
963.431	3.75	1092722	PROB	3.733	n/a	n/a	n/a	-999	8	[2, 6, 6]	14.0	catFR1	2	R1485J
967.181	13.1	1096472	PROB	13.082	n/a	n/a	n/a	-999	8	[6, 2, 7]	15.0	catFR1	2	R1485J
980.281	0.0	1109571	STOP	n/a	n/a	n/a	n/a	-999	8	[-999, -999, -999]	n/a	catFR1	2	R1485J
980.281	2.282	1109573	DISTRACT_END	n/a	n/a	n/a	n/a	-999	8	[0, 0, 0]	n/a	catFR1	2	R1485J
982.563	1.622	1111858	REC_START	n/a	n/a	n/a	n/a	-999	8	[0, 0, 0]	n/a	catFR1	2	R1485J
984.185	2.109	1113475	REC_WORD	1.622	n/a	CHIMPANZEE	Zoo	12	8	[0, 0, 0]	n/a	catFR1	2	R1485J
986.294	3.44	1115584	REC_WORD_VV	3.731	n/a	<>	n/a	-999	8	[0, 0, 0]	n/a	catFR1	2	R1485J
989.734	1.553	1119024	REC_WORD_VV	7.171	n/a	<>	n/a	-999	8	[0, 0, 0]	n/a	catFR1	2	R1485J
991.287	2.32	1120577	REC_WORD	8.724	n/a	TRUCK	Vehicles	7	8	[0, 0, 0]	n/a	catFR1	2	R1485J
993.607	7.394	1122897	REC_WORD	11.044	n/a	TRAIN	Vehicles	8	8	[0, 0, 0]	n/a	catFR1	2	R1485J
1001.001	1.406	1130290	REC_WORD	18.438	n/a	GIRAFFE	Zoo	6	8	[0, 0, 0]	n/a	catFR1	2	R1485J
1002.407	10.36	1131696	REC_WORD	19.844	n/a	GRAFFITI	n/a	-999	8	[0, 0, 0]	n/a	catFR1	2	R1485J
1012.767	1.982	1142061	REC_END	n/a	n/a	n/a	n/a	-999	8	[0, 0, 0]	n/a	catFR1	2	R1485J
1014.749	10.0	1144045	COUNTDOWN_START	n/a	n/a	n/a	n/a	-999	9	[0, 0, 0]	n/a	catFR1	2	R1485J
1025.098	0.0	1154382	COUNTDOWN_END	n/a	n/a	n/a	n/a	-999	9	[0, 0, 0]	n/a	catFR1	2	R1485J
1025.098	2.084	1154394	ENCODING_START	n/a	n/a	n/a	n/a	-999	9	[0, 0, 0]	n/a	catFR1	2	R1485J
1027.182	1.6	1156468	WORD	n/a	wordpools/wordpool_categorized_EN.txt	PLANE	Vehicles	1	9	[0, 0, 0]	n/a	catFR1	2	R1485J
1028.798	0.984	1158091	WORD_OFF	n/a	n/a	PLANE	Vehicles	1	9	[0, 0, 0]	n/a	catFR1	2	R1485J
1029.782	1.6	1159072	WORD	n/a	wordpools/wordpool_categorized_EN.txt	BOAT	Vehicles	2	9	[0, 0, 0]	n/a	catFR1	2	R1485J
1031.382	0.917	1160672	WORD_OFF	n/a	n/a	BOAT	Vehicles	2	9	[0, 0, 0]	n/a	catFR1	2	R1485J
1032.299	1.6	1161586	WORD	n/a	wordpools/wordpool_categorized_EN.txt	WHALE	OceanAnimals	3	9	[0, 0, 0]	n/a	catFR1	2	R1485J
1033.899	0.916	1163186	WORD_OFF	n/a	n/a	WHALE	OceanAnimals	3	9	[0, 0, 0]	n/a	catFR1	2	R1485J
1034.815	1.6	1164099	WORD	n/a	wordpools/wordpool_categorized_EN.txt	JELLYFISH	OceanAnimals	4	9	[0, 0, 0]	n/a	catFR1	2	R1485J
1036.431	0.916	1165723	WORD_OFF	n/a	n/a	JELLYFISH	OceanAnimals	4	9	[0, 0, 0]	n/a	catFR1	2	R1485J
1037.347	1.6	1166636	WORD	n/a	wordpools/wordpool_categorized_EN.txt	SKIRT	Clothing	5	9	[0, 0, 0]	n/a	catFR1	2	R1485J
1038.948	0.784	1168236	WORD_OFF	n/a	n/a	SKIRT	Clothing	5	9	[0, 0, 0]	n/a	catFR1	2	R1485J
1039.732	1.6	1169026	WORD	n/a	wordpools/wordpool_categorized_EN.txt	JACKET	Clothing	6	9	[0, 0, 0]	n/a	catFR1	2	R1485J
1041.348	0.783	1170638	WORD_OFF	n/a	n/a	JACKET	Clothing	6	9	[0, 0, 0]	n/a	catFR1	2	R1485J
1042.131	1.6	1171415	WORD	n/a	wordpools/wordpool_categorized_EN.txt	TURTLE	OceanAnimals	7	9	[0, 0, 0]	n/a	catFR1	2	R1485J
1043.747	0.868	1173039	WORD_OFF	n/a	n/a	TURTLE	OceanAnimals	7	9	[0, 0, 0]	n/a	catFR1	2	R1485J
1044.615	1.6	1173907	WORD	n/a	wordpools/wordpool_categorized_EN.txt	CRAB	OceanAnimals	8	9	[0, 0, 0]	n/a	catFR1	2	R1485J
1046.23	0.919	1175519	WORD_OFF	n/a	n/a	CRAB	OceanAnimals	8	9	[0, 0, 0]	n/a	catFR1	2	R1485J
1047.149	1.6	1176432	WORD	n/a	wordpools/wordpool_categorized_EN.txt	VAN	Vehicles	9	9	[0, 0, 0]	n/a	catFR1	2	R1485J
1048.749	0.834	1178032	WORD_OFF	n/a	n/a	VAN	Vehicles	9	9	[0, 0, 0]	n/a	catFR1	2	R1485J
1049.583	1.6	1178867	WORD	n/a	wordpools/wordpool_categorized_EN.txt	CAR	Vehicles	10	9	[0, 0, 0]	n/a	catFR1	2	R1485J
1051.182	0.783	1180467	WORD_OFF	n/a	n/a	CAR	Vehicles	10	9	[0, 0, 0]	n/a	catFR1	2	R1485J
1051.965	1.6	1181256	WORD	n/a	wordpools/wordpool_categorized_EN.txt	SHORTS	Clothing	11	9	[0, 0, 0]	n/a	catFR1	2	R1485J
1053.582	0.967	1182868	WORD_OFF	n/a	n/a	SHORTS	Clothing	11	9	[0, 0, 0]	n/a	catFR1	2	R1485J
1054.549	1.6	1183838	WORD	n/a	wordpools/wordpool_categorized_EN.txt	PANTS	Clothing	12	9	[0, 0, 0]	n/a	catFR1	2	R1485J
1056.164	0.001	1185450	WORD_OFF	n/a	n/a	PANTS	Clothing	12	9	[0, 0, 0]	n/a	catFR1	2	R1485J
1056.165	0.0	1185450	ENCODING_END	n/a	n/a	n/a	n/a	-999	9	[0, 0, 0]	n/a	catFR1	2	R1485J
1056.165	0.0	1185450	DISTRACT_START	n/a	n/a	n/a	n/a	-999	9	[0, 0, 0]	n/a	catFR1	2	R1485J
1056.165	0.0	1185452	START	n/a	n/a	n/a	n/a	-999	9	[-999, -999, -999]	n/a	catFR1	2	R1485J
1056.165	3.766	1185452	PROB	3.749	n/a	n/a	n/a	-999	9	[2, 3, 7]	12.0	catFR1	2	R1485J
1059.931	3.851	1189218	PROB	3.832	n/a	n/a	n/a	-999	9	[2, 1, 6]	9.0	catFR1	2	R1485J
1063.782	5.383	1193069	PROB	5.365	n/a	n/a	n/a	-999	9	[6, 7, 5]	18.0	catFR1	2	R1485J
1069.165	2.95	1198452	PROB	2.933	n/a	n/a	n/a	-999	9	[2, 2, 4]	8.0	catFR1	2	R1485J
1072.115	10.933	1201401	PROB	10.916	n/a	n/a	n/a	-999	9	[8, 4, 7]	19.0	catFR1	2	R1485J
1083.048	0.0	1212334	STOP	n/a	n/a	n/a	n/a	-999	9	[-999, -999, -999]	n/a	catFR1	2	R1485J
1083.048	2.401	1212335	DISTRACT_END	n/a	n/a	n/a	n/a	-999	9	[0, 0, 0]	n/a	catFR1	2	R1485J
1085.449	4.826	1214733	REC_START	n/a	n/a	n/a	n/a	-999	9	[0, 0, 0]	n/a	catFR1	2	R1485J
1090.275	0.668	1219561	REC_WORD	4.826	n/a	BOAT	Vehicles	2	9	[0, 0, 0]	n/a	catFR1	2	R1485J
1090.943	3.316	1220229	REC_WORD	5.494	n/a	WHALE	OceanAnimals	3	9	[0, 0, 0]	n/a	catFR1	2	R1485J
1094.259	2.706	1223545	REC_WORD	8.81	n/a	PLANE	Vehicles	1	9	[0, 0, 0]	n/a	catFR1	2	R1485J
1096.965	18.713	1226250	REC_WORD	11.516	n/a	CRAB	OceanAnimals	8	9	[0, 0, 0]	n/a	catFR1	2	R1485J
1115.678	2.738	1244959	REC_END	n/a	n/a	n/a	n/a	-999	9	[0, 0, 0]	n/a	catFR1	2	R1485J
1118.416	10.0	1247698	COUNTDOWN_START	n/a	n/a	n/a	n/a	-999	10	[0, 0, 0]	n/a	catFR1	2	R1485J
1128.765	0.0	1258046	COUNTDOWN_END	n/a	n/a	n/a	n/a	-999	10	[0, 0, 0]	n/a	catFR1	2	R1485J
1128.765	2.283	1258058	ENCODING_START	n/a	n/a	n/a	n/a	-999	10	[0, 0, 0]	n/a	catFR1	2	R1485J
1131.048	1.6	1260335	WORD	n/a	wordpools/wordpool_categorized_EN.txt	LILAC	Flowers	1	10	[0, 0, 0]	n/a	catFR1	2	R1485J
1132.665	0.834	1261947	WORD_OFF	n/a	n/a	LILAC	Flowers	1	10	[0, 0, 0]	n/a	catFR1	2	R1485J
1133.499	1.6	1262781	WORD	n/a	wordpools/wordpool_categorized_EN.txt	PETUNIA	Flowers	2	10	[0, 0, 0]	n/a	catFR1	2	R1485J
1135.099	0.983	1264381	WORD_OFF	n/a	n/a	PETUNIA	Flowers	2	10	[0, 0, 0]	n/a	catFR1	2	R1485J
1136.082	1.6	1265362	WORD	n/a	wordpools/wordpool_categorized_EN.txt	CROW	Birds	3	10	[0, 0, 0]	n/a	catFR1	2	R1485J
1137.699	0.999	1266985	WORD_OFF	n/a	n/a	CROW	Birds	3	10	[0, 0, 0]	n/a	catFR1	2	R1485J
1138.698	1.6	1267977	WORD	n/a	wordpools/wordpool_categorized_EN.txt	PIGEON	Birds	4	10	[0, 0, 0]	n/a	catFR1	2	R1485J
1140.298	0.85	1269578	WORD_OFF	n/a	n/a	PIGEON	Birds	4	10	[0, 0, 0]	n/a	catFR1	2	R1485J
1141.148	1.6	1270435	WORD	n/a	wordpools/wordpool_categorized_EN.txt	LOBSTER	OceanAnimals	5	10	[0, 0, 0]	n/a	catFR1	2	R1485J
1142.749	0.882	1272036	WORD_OFF	n/a	n/a	LOBSTER	OceanAnimals	5	10	[0, 0, 0]	n/a	catFR1	2	R1485J
1143.631	1.6	1272915	WORD	n/a	wordpools/wordpool_categorized_EN.txt	SHRIMP	OceanAnimals	6	10	[0, 0, 0]	n/a	catFR1	2	R1485J
1145.232	0.915	1274516	WORD_OFF	n/a	n/a	SHRIMP	OceanAnimals	6	10	[0, 0, 0]	n/a	catFR1	2	R1485J
1146.147	1.6	1275429	WORD	n/a	wordpools/wordpool_categorized_EN.txt	DAISY	Flowers	7	10	[0, 0, 0]	n/a	catFR1	2	R1485J
1147.749	0.832	1277029	WORD_OFF	n/a	n/a	DAISY	Flowers	7	10	[0, 0, 0]	n/a	catFR1	2	R1485J
1148.581	1.6	1277864	WORD	n/a	wordpools/wordpool_categorized_EN.txt	LILY	Flowers	8	10	[0, 0, 0]	n/a	catFR1	2	R1485J
1150.182	0.966	1279464	WORD_OFF	n/a	n/a	LILY	Flowers	8	10	[0, 0, 0]	n/a	catFR1	2	R1485J
1151.148	1.6	1280434	WORD	n/a	wordpools/wordpool_categorized_EN.txt	DOVE	Birds	9	10	[0, 0, 0]	n/a	catFR1	2	R1485J
1152.764	0.901	1282046	WORD_OFF	n/a	n/a	DOVE	Birds	9	10	[0, 0, 0]	n/a	catFR1	2	R1485J
1153.665	1.6	1282948	WORD	n/a	wordpools/wordpool_categorized_EN.txt	FINCH	Birds	10	10	[0, 0, 0]	n/a	catFR1	2	R1485J
1155.281	0.917	1284571	WORD_OFF	n/a	n/a	FINCH	Birds	10	10	[0, 0, 0]	n/a	catFR1	2	R1485J
1156.198	1.6	1285484	WORD	n/a	wordpools/wordpool_categorized_EN.txt	OYSTER	OceanAnimals	11	10	[0, 0, 0]	n/a	catFR1	2	R1485J
1157.815	0.866	1287096	WORD_OFF	n/a	n/a	OYSTER	OceanAnimals	11	10	[0, 0, 0]	n/a	catFR1	2	R1485J
1158.681	1.6	1287964	WORD	n/a	wordpools/wordpool_categorized_EN.txt	OCTOPUS	OceanAnimals	12	10	[0, 0, 0]	n/a	catFR1	2	R1485J
1160.298	0.0	1289576	WORD_OFF	n/a	n/a	OCTOPUS	OceanAnimals	12	10	[0, 0, 0]	n/a	catFR1	2	R1485J
1160.298	0.001	1289581	PROB	4.15	n/a	n/a	n/a	-999	10	[4, 3, 5]	12.0	catFR1	2	R1485J
1160.299	0.0	1289582	START	n/a	n/a	n/a	n/a	-999	10	[-999, -999, -999]	n/a	catFR1	2	R1485J
1160.299	0.0	1289587	ENCODING_END	n/a	n/a	n/a	n/a	-999	10	[0, 0, 0]	n/a	catFR1	2	R1485J
1160.299	4.166	1289587	DISTRACT_START	n/a	n/a	n/a	n/a	-999	10	[0, 0, 0]	n/a	catFR1	2	R1485J
1164.465	5.234	1293748	PROB	5.217	n/a	n/a	n/a	-999	10	[6, 6, 3]	15.0	catFR1	2	R1485J
1169.699	4.249	1298981	PROB	4.232	n/a	n/a	n/a	-999	10	[8, 2, 8]	18.0	catFR1	2	R1485J
1173.948	7.566	1303230	PROB	7.549	n/a	n/a	n/a	-999	10	[4, 5, 2]	11.0	catFR1	2	R1485J
1181.514	0.0	1310791	DISTRACT_END	n/a	n/a	n/a	n/a	-999	10	[0, 0, 0]	n/a	catFR1	2	R1485J
1181.514	2.184	1310796	STOP	n/a	n/a	n/a	n/a	-999	10	[-999, -999, -999]	n/a	catFR1	2	R1485J
1183.698	1.632	1312975	REC_START	n/a	n/a	n/a	n/a	-999	10	[0, 0, 0]	n/a	catFR1	2	R1485J
1185.33	1.219	1314612	REC_WORD	1.632	n/a	OCTOPUS	OceanAnimals	12	10	[0, 0, 0]	n/a	catFR1	2	R1485J
1186.549	3.493	1315831	REC_WORD	2.851	n/a	OYSTER	OceanAnimals	11	10	[0, 0, 0]	n/a	catFR1	2	R1485J
1190.042	0.697	1319324	REC_WORD	6.344	n/a	OCTOPUS	OceanAnimals	12	10	[0, 0, 0]	n/a	catFR1	2	R1485J
1190.739	1.0	1320021	REC_WORD	7.041	n/a	OYSTER	OceanAnimals	11	10	[0, 0, 0]	n/a	catFR1	2	R1485J
1191.739	1.0	1321021	REC_WORD_VV	8.041	n/a	<>	n/a	-999	10	[0, 0, 0]	n/a	catFR1	2	R1485J
1192.739	1.0	1322020	REC_WORD_VV	9.041	n/a	<>	n/a	-999	10	[0, 0, 0]	n/a	catFR1	2	R1485J
1193.739	14.123	1323020	REC_WORD_VV	10.041	n/a	<>	n/a	-999	10	[0, 0, 0]	n/a	catFR1	2	R1485J
1207.862	0.902	1337143	REC_WORD	24.164	n/a	DOVE	Birds	9	10	[0, 0, 0]	n/a	catFR1	2	R1485J
1208.764	5.151	1338045	REC_WORD	25.066	n/a	MARIGOLD	Flowers	-999	10	[0, 0, 0]	n/a	catFR1	2	R1485J
1213.915	2.751	1343200	REC_END	n/a	n/a	n/a	n/a	-999	10	[0, 0, 0]	n/a	catFR1	2	R1485J
1216.666	10.0	1345951	COUNTDOWN_START	n/a	n/a	n/a	n/a	-999	11	[0, 0, 0]	n/a	catFR1	2	R1485J
1227.015	0.0	1356299	COUNTDOWN_END	n/a	n/a	n/a	n/a	-999	11	[0, 0, 0]	n/a	catFR1	2	R1485J
1227.015	2.2	1356299	ENCODING_START	n/a	n/a	n/a	n/a	-999	11	[0, 0, 0]	n/a	catFR1	2	R1485J
1229.215	1.6	1358497	WORD	n/a	wordpools/wordpool_categorized_EN.txt	SOCKS	Clothing	1	11	[0, 0, 0]	n/a	catFR1	2	R1485J
1230.815	0.917	1360098	WORD_OFF	n/a	n/a	SOCKS	Clothing	1	11	[0, 0, 0]	n/a	catFR1	2	R1485J
1231.732	1.6	1361011	WORD	n/a	wordpools/wordpool_categorized_EN.txt	SHIRT	Clothing	2	11	[0, 0, 0]	n/a	catFR1	2	R1485J
1233.348	0.8	1362623	WORD_OFF	n/a	n/a	SHIRT	Clothing	2	11	[0, 0, 0]	n/a	catFR1	2	R1485J
1234.148	1.6	1363424	WORD	n/a	wordpools/wordpool_categorized_EN.txt	BLUEBIRD	Birds	3	11	[0, 0, 0]	n/a	catFR1	2	R1485J
1235.748	0.833	1365024	WORD_OFF	n/a	n/a	BLUEBIRD	Birds	3	11	[0, 0, 0]	n/a	catFR1	2	R1485J
1236.581	1.6	1365859	WORD	n/a	wordpools/wordpool_categorized_EN.txt	CARDINAL	Birds	4	11	[0, 0, 0]	n/a	catFR1	2	R1485J
1238.182	0.916	1367459	WORD_OFF	n/a	n/a	CARDINAL	Birds	4	11	[0, 0, 0]	n/a	catFR1	2	R1485J
1239.098	1.6	1368384	WORD	n/a	wordpools/wordpool_categorized_EN.txt	MOUSSE	Desserts	5	11	[0, 0, 0]	n/a	catFR1	2	R1485J
1240.714	0.985	1369996	WORD_OFF	n/a	n/a	MOUSSE	Desserts	5	11	[0, 0, 0]	n/a	catFR1	2	R1485J
1241.699	1.6	1370976	WORD	n/a	wordpools/wordpool_categorized_EN.txt	CUPCAKE	Desserts	6	11	[0, 0, 0]	n/a	catFR1	2	R1485J
1243.315	0.767	1372600	WORD_OFF	n/a	n/a	CUPCAKE	Desserts	6	11	[0, 0, 0]	n/a	catFR1	2	R1485J
1244.082	1.6	1373366	WORD	n/a	wordpools/wordpool_categorized_EN.txt	ROBIN	Birds	7	11	[0, 0, 0]	n/a	catFR1	2	R1485J
1245.697	0.868	1374978	WORD_OFF	n/a	n/a	ROBIN	Birds	7	11	[0, 0, 0]	n/a	catFR1	2	R1485J
1246.565	1.6	1375846	WORD	n/a	wordpools/wordpool_categorized_EN.txt	GOOSE	Birds	8	11	[0, 0, 0]	n/a	catFR1	2	R1485J
1248.18	0.917	1377458	WORD_OFF	n/a	n/a	GOOSE	Birds	8	11	[0, 0, 0]	n/a	catFR1	2	R1485J
1249.097	1.6	1378383	WORD	n/a	wordpools/wordpool_categorized_EN.txt	JELLO	Desserts	9	11	[0, 0, 0]	n/a	catFR1	2	R1485J
1250.698	0.949	1379972	WORD_OFF	n/a	n/a	JELLO	Desserts	9	11	[0, 0, 0]	n/a	catFR1	2	R1485J
1251.647	1.6	1380930	WORD	n/a	wordpools/wordpool_categorized_EN.txt	CHEESECAKE	Desserts	10	11	[0, 0, 0]	n/a	catFR1	2	R1485J
1253.247	0.885	1382531	WORD_OFF	n/a	n/a	CHEESECAKE	Desserts	10	11	[0, 0, 0]	n/a	catFR1	2	R1485J
1254.132	1.6	1383410	WORD	n/a	wordpools/wordpool_categorized_EN.txt	DRESS	Clothing	11	11	[0, 0, 0]	n/a	catFR1	2	R1485J
1255.732	0.866	1385011	WORD_OFF	n/a	n/a	DRESS	Clothing	11	11	[0, 0, 0]	n/a	catFR1	2	R1485J
1256.598	1.6	1385879	WORD	n/a	wordpools/wordpool_categorized_EN.txt	BLOUSE	Clothing	12	11	[0, 0, 0]	n/a	catFR1	2	R1485J
1258.199	0.001	1387478	PROB	3.032	n/a	n/a	n/a	-999	11	[2, 2, 8]	12.0	catFR1	2	R1485J
1258.2	0.0	1387479	START	n/a	n/a	n/a	n/a	-999	11	[-999, -999, -999]	n/a	catFR1	2	R1485J
1258.199	0.001	1387480	WORD_OFF	n/a	n/a	BLOUSE	Clothing	12	11	[0, 0, 0]	n/a	catFR1	2	R1485J
1258.2	0.0	1387480	ENCODING_END	n/a	n/a	n/a	n/a	-999	11	[0, 0, 0]	n/a	catFR1	2	R1485J
1258.2	3.049	1387480	DISTRACT_START	n/a	n/a	n/a	n/a	-999	11	[0, 0, 0]	n/a	catFR1	2	R1485J
1261.249	3.898	1390528	PROB	3.882	n/a	n/a	n/a	-999	11	[8, 2, 8]	18.0	catFR1	2	R1485J
1265.147	4.702	1394425	PROB	4.684	n/a	n/a	n/a	-999	11	[5, 8, 2]	15.0	catFR1	2	R1485J
1269.849	7.383	1399127	PROB	7.365	n/a	n/a	n/a	-999	11	[7, 8, 8]	21.0	catFR1	2	R1485J
1277.232	4.032	1406510	PROB	4.016	n/a	n/a	n/a	-999	11	[3, 1, 6]	10.0	catFR1	2	R1485J
1281.264	0.0	1410542	STOP	n/a	n/a	n/a	n/a	-999	11	[-999, -999, -999]	n/a	catFR1	2	R1485J
1281.264	2.25	1410544	DISTRACT_END	n/a	n/a	n/a	n/a	-999	11	[0, 0, 0]	n/a	catFR1	2	R1485J
1283.514	11.492	1412795	REC_START	n/a	n/a	n/a	n/a	-999	11	[0, 0, 0]	n/a	catFR1	2	R1485J
1295.006	1.5	1424283	REC_WORD_VV	11.492	n/a	<>	n/a	-999	11	[0, 0, 0]	n/a	catFR1	2	R1485J
1296.506	0.725	1425783	REC_WORD_VV	12.992	n/a	<>	n/a	-999	11	[0, 0, 0]	n/a	catFR1	2	R1485J
1297.231	2.677	1426508	REC_WORD	13.717	n/a	BLUEBIRD	Birds	3	11	[0, 0, 0]	n/a	catFR1	2	R1485J
1299.908	13.817	1429185	REC_WORD_VV	16.394	n/a	<>	n/a	-999	11	[0, 0, 0]	n/a	catFR1	2	R1485J
1313.725	2.257	1442998	REC_END	n/a	n/a	n/a	n/a	-999	11	[0, 0, 0]	n/a	catFR1	2	R1485J
1315.982	10.0	1445264	COUNTDOWN_START	n/a	n/a	n/a	n/a	-999	12	[0, 0, 0]	n/a	catFR1	2	R1485J
1326.331	0.0	1455612	COUNTDOWN_END	n/a	n/a	n/a	n/a	-999	12	[0, 0, 0]	n/a	catFR1	2	R1485J
1326.331	2.217	1455612	ENCODING_START	n/a	n/a	n/a	n/a	-999	12	[0, 0, 0]	n/a	catFR1	2	R1485J
1328.548	1.6	1457821	WORD	n/a	wordpools/wordpool_categorized_EN.txt	UNDERWEAR	Clothing	1	12	[0, 0, 0]	n/a	catFR1	2	R1485J
1330.148	0.917	1459422	WORD_OFF	n/a	n/a	UNDERWEAR	Clothing	1	12	[0, 0, 0]	n/a	catFR1	2	R1485J
1331.065	1.6	1460346	WORD	n/a	wordpools/wordpool_categorized_EN.txt	COAT	Clothing	2	12	[0, 0, 0]	n/a	catFR1	2	R1485J
1332.666	0.882	1461947	WORD_OFF	n/a	n/a	COAT	Clothing	2	12	[0, 0, 0]	n/a	catFR1	2	R1485J
1333.548	1.6	1462826	WORD	n/a	wordpools/wordpool_categorized_EN.txt	JEEP	Vehicles	3	12	[0, 0, 0]	n/a	catFR1	2	R1485J
1335.148	0.982	1464427	WORD_OFF	n/a	n/a	JEEP	Vehicles	3	12	[0, 0, 0]	n/a	catFR1	2	R1485J
1336.13	1.6	1465408	WORD	n/a	wordpools/wordpool_categorized_EN.txt	MOPED	Vehicles	4	12	[0, 0, 0]	n/a	catFR1	2	R1485J
1337.731	0.934	1467009	WORD_OFF	n/a	n/a	MOPED	Vehicles	4	12	[0, 0, 0]	n/a	catFR1	2	R1485J
1338.665	1.6	1467944	WORD	n/a	wordpools/wordpool_categorized_EN.txt	PASTRY	Desserts	5	12	[0, 0, 0]	n/a	catFR1	2	R1485J
1340.265	0.916	1469545	WORD_OFF	n/a	n/a	PASTRY	Desserts	5	12	[0, 0, 0]	n/a	catFR1	2	R1485J
1341.181	1.6	1470458	WORD	n/a	wordpools/wordpool_categorized_EN.txt	PIE	Desserts	6	12	[0, 0, 0]	n/a	catFR1	2	R1485J
1342.798	1.0	1472070	WORD_OFF	n/a	n/a	PIE	Desserts	6	12	[0, 0, 0]	n/a	catFR1	2	R1485J
1343.798	1.6	1473073	WORD	n/a	wordpools/wordpool_categorized_EN.txt	BUS	Vehicles	7	12	[0, 0, 0]	n/a	catFR1	2	R1485J
1345.398	0.983	1474674	WORD_OFF	n/a	n/a	BUS	Vehicles	7	12	[0, 0, 0]	n/a	catFR1	2	R1485J
1346.381	1.6	1475655	WORD	n/a	wordpools/wordpool_categorized_EN.txt	MOTORCYCLE	Vehicles	8	12	[0, 0, 0]	n/a	catFR1	2	R1485J
1347.981	0.849	1477256	WORD_OFF	n/a	n/a	MOTORCYCLE	Vehicles	8	12	[0, 0, 0]	n/a	catFR1	2	R1485J
1348.83	1.6	1478112	WORD	n/a	wordpools/wordpool_categorized_EN.txt	JEANS	Clothing	9	12	[0, 0, 0]	n/a	catFR1	2	R1485J
1350.447	0.851	1479724	WORD_OFF	n/a	n/a	JEANS	Clothing	9	12	[0, 0, 0]	n/a	catFR1	2	R1485J
1351.298	1.6	1480570	WORD	n/a	wordpools/wordpool_categorized_EN.txt	SHOES	Clothing	10	12	[0, 0, 0]	n/a	catFR1	2	R1485J
1352.899	0.882	1482170	WORD_OFF	n/a	n/a	SHOES	Clothing	10	12	[0, 0, 0]	n/a	catFR1	2	R1485J
1353.781	1.6	1483061	WORD	n/a	wordpools/wordpool_categorized_EN.txt	COBBLER	Desserts	11	12	[0, 0, 0]	n/a	catFR1	2	R1485J
1355.397	0.784	1484673	WORD_OFF	n/a	n/a	COBBLER	Desserts	11	12	[0, 0, 0]	n/a	catFR1	2	R1485J
1356.181	1.6	1485462	WORD	n/a	wordpools/wordpool_categorized_EN.txt	CAKE	Desserts	12	12	[0, 0, 0]	n/a	catFR1	2	R1485J
1357.797	0.001	1487072	PROB	3.834	n/a	n/a	n/a	-999	12	[6, 2, 6]	14.0	catFR1	2	R1485J
1357.798	0.0	1487073	START	n/a	n/a	n/a	n/a	-999	12	[-999, -999, -999]	n/a	catFR1	2	R1485J
1357.797	0.001	1487074	WORD_OFF	n/a	n/a	CAKE	Desserts	12	12	[0, 0, 0]	n/a	catFR1	2	R1485J
1357.798	0.0	1487074	ENCODING_END	n/a	n/a	n/a	n/a	-999	12	[0, 0, 0]	n/a	catFR1	2	R1485J
1357.798	3.851	1487074	DISTRACT_START	n/a	n/a	n/a	n/a	-999	12	[0, 0, 0]	n/a	catFR1	2	R1485J
1361.649	4.615	1490923	PROB	4.598	n/a	n/a	n/a	-999	12	[1, 5, 4]	10.0	catFR1	2	R1485J
1366.264	2.219	1495538	PROB	2.199	n/a	n/a	n/a	-999	12	[5, 5, 1]	11.0	catFR1	2	R1485J
1368.483	6.581	1497757	PROB	6.567	n/a	n/a	n/a	-999	12	[6, 2, 7]	15.0	catFR1	2	R1485J
1375.064	2.75	1504338	PROB	2.734	n/a	n/a	n/a	-999	12	[2, 8, 4]	14.0	catFR1	2	R1485J
1377.814	0.0	1507088	STOP	n/a	n/a	n/a	n/a	-999	12	[-999, -999, -999]	n/a	catFR1	2	R1485J
1377.814	2.367	1507094	DISTRACT_END	n/a	n/a	n/a	n/a	-999	12	[0, 0, 0]	n/a	catFR1	2	R1485J
1380.181	0.228	1509458	REC_START	n/a	n/a	n/a	n/a	-999	12	[0, 0, 0]	n/a	catFR1	2	R1485J
1380.409	0.849	1509683	REC_WORD	0.228	n/a	COBBLER	Desserts	11	12	[0, 0, 0]	n/a	catFR1	2	R1485J
1381.258	1.948	1510532	REC_WORD	1.077	n/a	CAKE	Desserts	12	12	[0, 0, 0]	n/a	catFR1	2	R1485J
1383.206	1.0	1512480	REC_WORD_VV	3.025	n/a	<>	n/a	-999	12	[0, 0, 0]	n/a	catFR1	2	R1485J
1384.206	1.0	1513480	REC_WORD_VV	4.025	n/a	<>	n/a	-999	12	[0, 0, 0]	n/a	catFR1	2	R1485J
1385.206	5.53	1514480	REC_WORD_VV	5.025	n/a	<>	n/a	-999	12	[0, 0, 0]	n/a	catFR1	2	R1485J
1390.736	5.977	1520009	REC_WORD_VV	10.555	n/a	<>	n/a	-999	12	[0, 0, 0]	n/a	catFR1	2	R1485J
1396.713	1.007	1525986	REC_WORD	16.532	n/a	JEEP	Vehicles	3	12	[0, 0, 0]	n/a	catFR1	2	R1485J
1397.72	1.186	1526993	REC_WORD	17.539	n/a	SHOES	Clothing	10	12	[0, 0, 0]	n/a	catFR1	2	R1485J
1398.906	1.255	1528179	REC_WORD	18.725	n/a	JEANS	Clothing	9	12	[0, 0, 0]	n/a	catFR1	2	R1485J
1400.161	10.251	1529434	REC_WORD	19.98	n/a	MOTORCYCLE	Vehicles	8	12	[0, 0, 0]	n/a	catFR1	2	R1485J
1410.412	0.0	1539684	REC_END	n/a	n/a	n/a	n/a	-999	12	[0, 0, 0]	n/a	catFR1	2	R1485J
