onset	duration	sample	trial_type	response_time	stim_file	item_name	category	serialpos	list	test	answer	experiment	session	subject
0.0	3.767	141226	INSTRUCT_START	n/a	n/a	n/a	n/a	-999	-999	[0, 0, 0]	n/a	catFR1	2	R1406M
3.767	36.466	144984	INSTRUCT_END	n/a	n/a	n/a	n/a	-999	-999	[0, 0, 0]	n/a	catFR1	2	R1406M
40.233	10.384	181459	COUNTDOWN_START	n/a	n/a	n/a	n/a	-999	-999	[0, 0, 0]	n/a	catFR1	2	R1406M
50.617	0.0	191837	COUNTDOWN_END	n/a	n/a	n/a	n/a	-999	-999	[0, 0, 0]	n/a	catFR1	2	R1406M
50.617	2.065	191837	ENCODING_START	n/a	n/a	n/a	n/a	-999	-1	[0, 0, 0]	n/a	catFR1	2	R1406M
52.682	1.601	193897	WORD	n/a	n/a	COAT	Clothing	1	-1	[0, 0, 0]	n/a	catFR1	2	R1406M
54.283	0.95	195500	WORD_OFF	n/a	n/a	COAT	Clothing	1	-1	[0, 0, 0]	n/a	catFR1	2	R1406M
55.233	1.6	196453	WORD	n/a	n/a	SHIRT	Clothing	2	-1	[0, 0, 0]	n/a	catFR1	2	R1406M
56.833	0.784	198056	WORD_OFF	n/a	n/a	SHIRT	Clothing	2	-1	[0, 0, 0]	n/a	catFR1	2	R1406M
57.617	1.616	198838	WORD	n/a	n/a	COFFEE	Beverages	3	-1	[0, 0, 0]	n/a	catFR1	2	R1406M
59.233	0.884	200441	WORD_OFF	n/a	n/a	COFFEE	Beverages	3	-1	[0, 0, 0]	n/a	catFR1	2	R1406M
60.117	1.616	201337	WORD	n/a	n/a	CIDER	Beverages	4	-1	[0, 0, 0]	n/a	catFR1	2	R1406M
61.733	0.833	202940	WORD_OFF	n/a	n/a	CIDER	Beverages	4	-1	[0, 0, 0]	n/a	catFR1	2	R1406M
62.566	1.617	203779	WORD	n/a	n/a	HUMIDITY	Weather	5	-1	[0, 0, 0]	n/a	catFR1	2	R1406M
64.183	0.935	205401	WORD_OFF	n/a	n/a	HUMIDITY	Weather	5	-1	[0, 0, 0]	n/a	catFR1	2	R1406M
65.118	1.615	206335	WORD	n/a	n/a	FOG	Weather	6	-1	[0, 0, 0]	n/a	catFR1	2	R1406M
66.733	0.983	207957	WORD_OFF	n/a	n/a	FOG	Weather	6	-1	[0, 0, 0]	n/a	catFR1	2	R1406M
67.716	1.6	208930	WORD	n/a	n/a	BLOUSE	Clothing	7	-1	[0, 0, 0]	n/a	catFR1	2	R1406M
69.316	0.783	210532	WORD_OFF	n/a	n/a	BLOUSE	Clothing	7	-1	[0, 0, 0]	n/a	catFR1	2	R1406M
70.099	1.6	211314	WORD	n/a	n/a	PANTS	Clothing	8	-1	[0, 0, 0]	n/a	catFR1	2	R1406M
71.699	0.984	212917	WORD_OFF	n/a	n/a	PANTS	Clothing	8	-1	[0, 0, 0]	n/a	catFR1	2	R1406M
72.683	1.616	213890	WORD	n/a	n/a	SODA	Beverages	9	-1	[0, 0, 0]	n/a	catFR1	2	R1406M
74.299	0.883	215511	WORD_OFF	n/a	n/a	SODA	Beverages	9	-1	[0, 0, 0]	n/a	catFR1	2	R1406M
75.182	1.601	216389	WORD	n/a	n/a	WINE	Beverages	10	-1	[0, 0, 0]	n/a	catFR1	2	R1406M
76.783	0.883	217991	WORD_OFF	n/a	n/a	WINE	Beverages	10	-1	[0, 0, 0]	n/a	catFR1	2	R1406M
77.666	1.616	218888	WORD	n/a	n/a	CLOUD	Weather	11	-1	[0, 0, 0]	n/a	catFR1	2	R1406M
79.282	0.934	220490	WORD_OFF	n/a	n/a	CLOUD	Weather	11	-1	[0, 0, 0]	n/a	catFR1	2	R1406M
80.216	1.616	221425	WORD	n/a	n/a	TORNADO	Weather	12	-1	[0, 0, 0]	n/a	catFR1	2	R1406M
81.832	0.002	223047	WORD_OFF	n/a	n/a	TORNADO	Weather	12	-1	[0, 0, 0]	n/a	catFR1	2	R1406M
81.834	0.0	223047	ENCODING_END	n/a	n/a	n/a	n/a	-999	-1	[0, 0, 0]	n/a	catFR1	2	R1406M
81.834	0.0	223047	DISTRACT_START	n/a	n/a	n/a	n/a	-999	-1	[0, 0, 0]	n/a	catFR1	2	R1406M
81.834	0.0	223048	START	n/a	n/a	n/a	n/a	-999	-1	[-999, -999, -999]	n/a	catFR1	2	R1406M
81.834	5.882	223048	PROB	5.882	n/a	n/a	n/a	-999	-1	[5, 7, 6]	18	catFR1	2	R1406M
87.716	6.934	228929	PROB	6.934	n/a	n/a	n/a	-999	-1	[8, 7, 6]	21	catFR1	2	R1406M
94.65	6.869	235863	PROB	6.869	n/a	n/a	n/a	-999	-1	[7, 4, 7]	18	catFR1	2	R1406M
101.519	4.614	242732	PROB	4.614	n/a	n/a	n/a	-999	-1	[5, 7, 2]	13	catFR1	2	R1406M
106.133	0.0	247345	STOP	n/a	n/a	n/a	n/a	-999	-1	[-999, -999, -999]	n/a	catFR1	2	R1406M
106.133	1.283	247351	DISTRACT_END	n/a	n/a	n/a	n/a	-999	-1	[0, 0, 0]	n/a	catFR1	2	R1406M
107.416	1.235	248629	REC_START	n/a	n/a	n/a	n/a	-999	-1	[0, 0, 0]	n/a	catFR1	2	R1406M
108.651	2.243	249863	REC_WORD	2.243	n/a	HUMIDITY	Weather	5	-1	[0, 0, 0]	n/a	catFR1	2	R1406M
110.894	27.773	252106	REC_WORD	27.773	n/a	FOG	Weather	6	-1	[0, 0, 0]	n/a	catFR1	2	R1406M
138.667	9.682	279877	REC_END	n/a	n/a	n/a	n/a	-999	-1	[0, 0, 0]	n/a	catFR1	2	R1406M
148.349	10.351	289568	COUNTDOWN_START	n/a	n/a	n/a	n/a	-999	1	[0, 0, 0]	n/a	catFR1	2	R1406M
158.7	0.001	299908	COUNTDOWN_END	n/a	n/a	n/a	n/a	-999	1	[0, 0, 0]	n/a	catFR1	2	R1406M
158.701	1.882	299908	ENCODING_START	n/a	n/a	n/a	n/a	-999	1	[0, 0, 0]	n/a	catFR1	2	R1406M
160.583	1.616	301796	WORD	n/a	wordpools/wordpool_categorized_EN.txt	WALNUT	Trees	1	1	[0, 0, 0]	n/a	catFR1	2	R1406M
162.199	0.917	303418	WORD_OFF	n/a	n/a	WALNUT	Trees	1	1	[0, 0, 0]	n/a	catFR1	2	R1406M
163.116	1.6	304333	WORD	n/a	wordpools/wordpool_categorized_EN.txt	PINE	Trees	2	1	[0, 0, 0]	n/a	catFR1	2	R1406M
164.716	0.784	305936	WORD_OFF	n/a	n/a	PINE	Trees	2	1	[0, 0, 0]	n/a	catFR1	2	R1406M
165.5	1.6	306718	WORD	n/a	wordpools/wordpool_categorized_EN.txt	COMPUTER	Electronics	3	1	[0, 0, 0]	n/a	catFR1	2	R1406M
167.1	0.799	308320	WORD_OFF	n/a	n/a	COMPUTER	Electronics	3	1	[0, 0, 0]	n/a	catFR1	2	R1406M
167.899	1.601	309103	WORD	n/a	wordpools/wordpool_categorized_EN.txt	SPEAKER	Electronics	4	1	[0, 0, 0]	n/a	catFR1	2	R1406M
169.5	0.8	310705	WORD_OFF	n/a	n/a	SPEAKER	Electronics	4	1	[0, 0, 0]	n/a	catFR1	2	R1406M
170.3	1.601	311506	WORD	n/a	wordpools/wordpool_categorized_EN.txt	LINEN	Fabric	5	1	[0, 0, 0]	n/a	catFR1	2	R1406M
171.901	0.765	313109	WORD_OFF	n/a	n/a	LINEN	Fabric	5	1	[0, 0, 0]	n/a	catFR1	2	R1406M
172.666	1.6	313872	WORD	n/a	wordpools/wordpool_categorized_EN.txt	FLEECE	Fabric	6	1	[0, 0, 0]	n/a	catFR1	2	R1406M
174.266	0.9	315474	WORD_OFF	n/a	n/a	FLEECE	Fabric	6	1	[0, 0, 0]	n/a	catFR1	2	R1406M
175.166	1.6	316371	WORD	n/a	wordpools/wordpool_categorized_EN.txt	MAPLE	Trees	7	1	[0, 0, 0]	n/a	catFR1	2	R1406M
176.766	0.766	317973	WORD_OFF	n/a	n/a	MAPLE	Trees	7	1	[0, 0, 0]	n/a	catFR1	2	R1406M
177.532	1.601	318736	WORD	n/a	wordpools/wordpool_categorized_EN.txt	HICKORY	Trees	8	1	[0, 0, 0]	n/a	catFR1	2	R1406M
179.133	0.767	320339	WORD_OFF	n/a	n/a	HICKORY	Trees	8	1	[0, 0, 0]	n/a	catFR1	2	R1406M
179.9	1.6	321102	WORD	n/a	wordpools/wordpool_categorized_EN.txt	COTTON	Fabric	9	1	[0, 0, 0]	n/a	catFR1	2	R1406M
181.5	0.916	322704	WORD_OFF	n/a	n/a	COTTON	Fabric	9	1	[0, 0, 0]	n/a	catFR1	2	R1406M
182.416	1.6	323620	WORD	n/a	wordpools/wordpool_categorized_EN.txt	LEATHER	Fabric	10	1	[0, 0, 0]	n/a	catFR1	2	R1406M
184.016	0.967	325223	WORD_OFF	n/a	n/a	LEATHER	Fabric	10	1	[0, 0, 0]	n/a	catFR1	2	R1406M
184.983	1.6	326195	WORD	n/a	wordpools/wordpool_categorized_EN.txt	STEREO	Electronics	11	1	[0, 0, 0]	n/a	catFR1	2	R1406M
186.583	0.816	327798	WORD_OFF	n/a	n/a	STEREO	Electronics	11	1	[0, 0, 0]	n/a	catFR1	2	R1406M
187.399	1.601	328599	WORD	n/a	wordpools/wordpool_categorized_EN.txt	RADIO	Electronics	12	1	[0, 0, 0]	n/a	catFR1	2	R1406M
189.0	0.0	330202	WORD_OFF	n/a	n/a	RADIO	Electronics	12	1	[0, 0, 0]	n/a	catFR1	2	R1406M
189.0	0.002	330208	PROB	0.002	n/a	n/a	n/a	-999	1	[6, 6, 3]	15	catFR1	2	R1406M
189.002	0.0	330210	START	n/a	n/a	n/a	n/a	-999	1	[-999, -999, -999]	n/a	catFR1	2	R1406M
189.001	0.001	330221	ENCODING_END	n/a	n/a	n/a	n/a	-999	1	[0, 0, 0]	n/a	catFR1	2	R1406M
189.002	5.131	330221	DISTRACT_START	n/a	n/a	n/a	n/a	-999	1	[0, 0, 0]	n/a	catFR1	2	R1406M
194.133	3.867	335341	PROB	3.867	n/a	n/a	n/a	-999	1	[5, 2, 3]	10	catFR1	2	R1406M
198.0	2.5	339208	PROB	2.5	n/a	n/a	n/a	-999	1	[5, 1, 1]	7	catFR1	2	R1406M
200.5	3.017	341707	PROB	3.017	n/a	n/a	n/a	-999	1	[4, 4, 8]	12	catFR1	2	R1406M
203.517	4.817	344724	PROB	4.817	n/a	n/a	n/a	-999	1	[2, 7, 8]	17	catFR1	2	R1406M
208.334	3.915	349541	PROB	3.915	n/a	n/a	n/a	-999	1	[4, 6, 6]	16	catFR1	2	R1406M
212.249	0.0	353456	DISTRACT_END	n/a	n/a	n/a	n/a	-999	1	[0, 0, 0]	n/a	catFR1	2	R1406M
212.249	1.284	353456	STOP	n/a	n/a	n/a	n/a	-999	1	[-999, -999, -999]	n/a	catFR1	2	R1406M
213.533	24.78	354735	REC_START	n/a	n/a	n/a	n/a	-999	1	[0, 0, 0]	n/a	catFR1	2	R1406M
238.313	1.086	379518	REC_WORD	1.086	n/a	WALNUT	Trees	1	1	[0, 0, 0]	n/a	catFR1	2	R1406M
239.399	5.389	380604	REC_WORD	5.389	n/a	PINE	Trees	2	1	[0, 0, 0]	n/a	catFR1	2	R1406M
244.788	3.129	386002	REC_END	n/a	n/a	n/a	n/a	-999	1	[0, 0, 0]	n/a	catFR1	2	R1406M
247.917	10.35	389130	COUNTDOWN_START	n/a	n/a	n/a	n/a	-999	1	[0, 0, 0]	n/a	catFR1	2	R1406M
258.267	0.0	399470	COUNTDOWN_END	n/a	n/a	n/a	n/a	-999	1	[0, 0, 0]	n/a	catFR1	2	R1406M
258.267	2.232	399470	ENCODING_START	n/a	n/a	n/a	n/a	-999	2	[0, 0, 0]	n/a	catFR1	2	R1406M
260.499	1.6	401702	WORD	n/a	wordpools/wordpool_categorized_EN.txt	CAULIFLOWER	Vegetables	1	2	[0, 0, 0]	n/a	catFR1	2	R1406M
262.099	0.983	403304	WORD_OFF	n/a	n/a	CAULIFLOWER	Vegetables	1	2	[0, 0, 0]	n/a	catFR1	2	R1406M
263.082	1.618	404296	WORD	n/a	wordpools/wordpool_categorized_EN.txt	POTATO	Vegetables	2	2	[0, 0, 0]	n/a	catFR1	2	R1406M
264.7	0.999	405899	WORD_OFF	n/a	n/a	POTATO	Vegetables	2	2	[0, 0, 0]	n/a	catFR1	2	R1406M
265.699	1.601	406910	WORD	n/a	wordpools/wordpool_categorized_EN.txt	HEAD	BodyParts	3	2	[0, 0, 0]	n/a	catFR1	2	R1406M
267.3	0.966	408512	WORD_OFF	n/a	n/a	HEAD	BodyParts	3	2	[0, 0, 0]	n/a	catFR1	2	R1406M
268.266	1.617	409466	WORD	n/a	wordpools/wordpool_categorized_EN.txt	NOSE	BodyParts	4	2	[0, 0, 0]	n/a	catFR1	2	R1406M
269.883	0.767	411088	WORD_OFF	n/a	n/a	NOSE	BodyParts	4	2	[0, 0, 0]	n/a	catFR1	2	R1406M
270.65	1.616	411851	WORD	n/a	wordpools/wordpool_categorized_EN.txt	TRAIN	Vehicles	5	2	[0, 0, 0]	n/a	catFR1	2	R1406M
272.266	0.933	413472	WORD_OFF	n/a	n/a	TRAIN	Vehicles	5	2	[0, 0, 0]	n/a	catFR1	2	R1406M
273.199	1.601	414407	WORD	n/a	wordpools/wordpool_categorized_EN.txt	CAR	Vehicles	6	2	[0, 0, 0]	n/a	catFR1	2	R1406M
274.8	0.916	416010	WORD_OFF	n/a	n/a	CAR	Vehicles	6	2	[0, 0, 0]	n/a	catFR1	2	R1406M
275.716	1.617	416925	WORD	n/a	wordpools/wordpool_categorized_EN.txt	ARM	BodyParts	7	2	[0, 0, 0]	n/a	catFR1	2	R1406M
277.333	0.834	418547	WORD_OFF	n/a	n/a	ARM	BodyParts	7	2	[0, 0, 0]	n/a	catFR1	2	R1406M
278.167	1.615	419367	WORD	n/a	wordpools/wordpool_categorized_EN.txt	KNEE	BodyParts	8	2	[0, 0, 0]	n/a	catFR1	2	R1406M
279.782	0.918	420989	WORD_OFF	n/a	n/a	KNEE	BodyParts	8	2	[0, 0, 0]	n/a	catFR1	2	R1406M
280.7	1.6	421904	WORD	n/a	wordpools/wordpool_categorized_EN.txt	JEEP	Vehicles	9	2	[0, 0, 0]	n/a	catFR1	2	R1406M
282.3	0.818	423507	WORD_OFF	n/a	n/a	JEEP	Vehicles	9	2	[0, 0, 0]	n/a	catFR1	2	R1406M
283.118	1.599	424327	WORD	n/a	wordpools/wordpool_categorized_EN.txt	BOAT	Vehicles	10	2	[0, 0, 0]	n/a	catFR1	2	R1406M
284.717	0.932	425929	WORD_OFF	n/a	n/a	BOAT	Vehicles	10	2	[0, 0, 0]	n/a	catFR1	2	R1406M
285.649	1.6	426845	WORD	n/a	wordpools/wordpool_categorized_EN.txt	CUCUMBER	Vegetables	11	2	[0, 0, 0]	n/a	catFR1	2	R1406M
287.249	0.801	428448	WORD_OFF	n/a	n/a	CUCUMBER	Vegetables	11	2	[0, 0, 0]	n/a	catFR1	2	R1406M
288.05	1.6	429249	WORD	n/a	wordpools/wordpool_categorized_EN.txt	BROCCOLI	Vegetables	12	2	[0, 0, 0]	n/a	catFR1	2	R1406M
289.65	0.002	430851	WORD_OFF	n/a	n/a	BROCCOLI	Vegetables	12	2	[0, 0, 0]	n/a	catFR1	2	R1406M
289.652	0.0	430851	ENCODING_END	n/a	n/a	n/a	n/a	-999	2	[0, 0, 0]	n/a	catFR1	2	R1406M
289.652	0.0	430851	DISTRACT_START	n/a	n/a	n/a	n/a	-999	2	[0, 0, 0]	n/a	catFR1	2	R1406M
289.65	0.002	430853	PROB	0.002	n/a	n/a	n/a	-999	2	[3, 8, 4]	15	catFR1	2	R1406M
289.652	7.798	430855	START	n/a	n/a	n/a	n/a	-999	2	[-999, -999, -999]	n/a	catFR1	2	R1406M
297.45	4.233	438652	PROB	4.233	n/a	n/a	n/a	-999	2	[7, 8, 2]	17	catFR1	2	R1406M
301.683	6.534	442885	PROB	6.534	n/a	n/a	n/a	-999	2	[7, 8, 4]	19	catFR1	2	R1406M
308.217	2.849	449419	PROB	2.849	n/a	n/a	n/a	-999	2	[3, 8, 2]	13	catFR1	2	R1406M
311.066	0.0	452268	STOP	n/a	n/a	n/a	n/a	-999	2	[-999, -999, -999]	n/a	catFR1	2	R1406M
311.066	1.234	452275	DISTRACT_END	n/a	n/a	n/a	n/a	-999	2	[0, 0, 0]	n/a	catFR1	2	R1406M
312.3	8.75	453496	REC_START	n/a	n/a	n/a	n/a	-999	2	[0, 0, 0]	n/a	catFR1	2	R1406M
321.05	1.262	462251	REC_WORD	1.262	n/a	CAULIFLOWER	Vegetables	1	2	[0, 0, 0]	n/a	catFR1	2	R1406M
322.312	1.139	463513	REC_WORD	1.139	n/a	POTATO	Vegetables	2	2	[0, 0, 0]	n/a	catFR1	2	R1406M
323.451	2.186	464652	REC_WORD	2.186	n/a	KNEE	BodyParts	8	2	[0, 0, 0]	n/a	catFR1	2	R1406M
325.637	2.736	466838	REC_WORD	2.736	n/a	HEAD	BodyParts	3	2	[0, 0, 0]	n/a	catFR1	2	R1406M
328.373	15.175	469574	REC_WORD	15.175	n/a	NOSE	BodyParts	4	2	[0, 0, 0]	n/a	catFR1	2	R1406M
343.548	2.918	484744	REC_END	n/a	n/a	n/a	n/a	-999	2	[0, 0, 0]	n/a	catFR1	2	R1406M
346.466	10.351	487662	COUNTDOWN_START	n/a	n/a	n/a	n/a	-999	2	[0, 0, 0]	n/a	catFR1	2	R1406M
356.817	0.001	498021	COUNTDOWN_END	n/a	n/a	n/a	n/a	-999	2	[0, 0, 0]	n/a	catFR1	2	R1406M
356.818	1.847	498021	ENCODING_START	n/a	n/a	n/a	n/a	-999	3	[0, 0, 0]	n/a	catFR1	2	R1406M
358.665	1.6	499872	WORD	n/a	wordpools/wordpool_categorized_EN.txt	CREEK	Landscapes	1	3	[0, 0, 0]	n/a	catFR1	2	R1406M
360.265	0.918	501474	WORD_OFF	n/a	n/a	CREEK	Landscapes	1	3	[0, 0, 0]	n/a	catFR1	2	R1406M
361.183	1.6	502390	WORD	n/a	wordpools/wordpool_categorized_EN.txt	FOREST	Landscapes	2	3	[0, 0, 0]	n/a	catFR1	2	R1406M
362.783	0.766	503992	WORD_OFF	n/a	n/a	FOREST	Landscapes	2	3	[0, 0, 0]	n/a	catFR1	2	R1406M
363.549	1.601	504755	WORD	n/a	wordpools/wordpool_categorized_EN.txt	VIOLIN	Instruments	3	3	[0, 0, 0]	n/a	catFR1	2	R1406M
365.15	0.916	506358	WORD_OFF	n/a	n/a	VIOLIN	Instruments	3	3	[0, 0, 0]	n/a	catFR1	2	R1406M
366.066	1.601	507273	WORD	n/a	wordpools/wordpool_categorized_EN.txt	ORGAN	Instruments	4	3	[0, 0, 0]	n/a	catFR1	2	R1406M
367.667	0.966	508857	WORD_OFF	n/a	n/a	ORGAN	Instruments	4	3	[0, 0, 0]	n/a	catFR1	2	R1406M
368.633	1.617	509830	WORD	n/a	wordpools/wordpool_categorized_EN.txt	FOOT	BodyParts	5	3	[0, 0, 0]	n/a	catFR1	2	R1406M
370.25	0.849	511451	WORD_OFF	n/a	n/a	FOOT	BodyParts	5	3	[0, 0, 0]	n/a	catFR1	2	R1406M
371.099	1.6	512291	WORD	n/a	wordpools/wordpool_categorized_EN.txt	TOE	BodyParts	6	3	[0, 0, 0]	n/a	catFR1	2	R1406M
372.699	0.918	513893	WORD_OFF	n/a	n/a	TOE	BodyParts	6	3	[0, 0, 0]	n/a	catFR1	2	R1406M
373.617	1.6	514809	WORD	n/a	wordpools/wordpool_categorized_EN.txt	FLUTE	Instruments	7	3	[0, 0, 0]	n/a	catFR1	2	R1406M
375.217	0.766	516411	WORD_OFF	n/a	n/a	FLUTE	Instruments	7	3	[0, 0, 0]	n/a	catFR1	2	R1406M
375.983	1.6	517174	WORD	n/a	wordpools/wordpool_categorized_EN.txt	BASS	Instruments	8	3	[0, 0, 0]	n/a	catFR1	2	R1406M
377.583	0.917	518777	WORD_OFF	n/a	n/a	BASS	Instruments	8	3	[0, 0, 0]	n/a	catFR1	2	R1406M
378.5	1.6	519692	WORD	n/a	wordpools/wordpool_categorized_EN.txt	EAR	BodyParts	9	3	[0, 0, 0]	n/a	catFR1	2	R1406M
380.1	0.783	521295	WORD_OFF	n/a	n/a	EAR	BodyParts	9	3	[0, 0, 0]	n/a	catFR1	2	R1406M
380.883	1.6	522077	WORD	n/a	wordpools/wordpool_categorized_EN.txt	HAND	BodyParts	10	3	[0, 0, 0]	n/a	catFR1	2	R1406M
382.483	0.767	523680	WORD_OFF	n/a	n/a	HAND	BodyParts	10	3	[0, 0, 0]	n/a	catFR1	2	R1406M
383.25	1.616	524443	WORD	n/a	wordpools/wordpool_categorized_EN.txt	RIVER	Landscapes	11	3	[0, 0, 0]	n/a	catFR1	2	R1406M
384.866	0.901	526064	WORD_OFF	n/a	n/a	RIVER	Landscapes	11	3	[0, 0, 0]	n/a	catFR1	2	R1406M
385.767	1.616	526961	WORD	n/a	wordpools/wordpool_categorized_EN.txt	BEACH	Landscapes	12	3	[0, 0, 0]	n/a	catFR1	2	R1406M
387.383	0.0	528581	PROB	0.0	n/a	n/a	n/a	-999	3	[8, 3, 4]	16	catFR1	2	R1406M
387.383	0.001	528582	WORD_OFF	n/a	n/a	BEACH	Landscapes	12	3	[0, 0, 0]	n/a	catFR1	2	R1406M
387.384	0.001	528582	ENCODING_END	n/a	n/a	n/a	n/a	-999	3	[0, 0, 0]	n/a	catFR1	2	R1406M
387.385	0.0	528582	DISTRACT_START	n/a	n/a	n/a	n/a	-999	3	[0, 0, 0]	n/a	catFR1	2	R1406M
387.385	6.266	528583	START	n/a	n/a	n/a	n/a	-999	3	[-999, -999, -999]	n/a	catFR1	2	R1406M
393.651	9.565	534848	PROB	9.565	n/a	n/a	n/a	-999	3	[4, 7, 8]	17	catFR1	2	R1406M
403.216	7.25	544413	PROB	7.25	n/a	n/a	n/a	-999	3	[7, 7, 6]	20	catFR1	2	R1406M
410.466	0.0	551663	STOP	n/a	n/a	n/a	n/a	-999	3	[-999, -999, -999]	n/a	catFR1	2	R1406M
410.466	1.4	551665	DISTRACT_END	n/a	n/a	n/a	n/a	-999	3	[0, 0, 0]	n/a	catFR1	2	R1406M
411.866	12.071	553058	REC_START	n/a	n/a	n/a	n/a	-999	3	[0, 0, 0]	n/a	catFR1	2	R1406M
423.937	6.875	565133	REC_WORD	6.875	n/a	TOE	BodyParts	6	3	[0, 0, 0]	n/a	catFR1	2	R1406M
430.812	12.274	572007	REC_WORD	12.274	n/a	ELBOW	n/a	-999	3	[0, 0, 0]	n/a	catFR1	2	R1406M
443.086	7.147	584287	REC_END	n/a	n/a	n/a	n/a	-999	3	[0, 0, 0]	n/a	catFR1	2	R1406M
450.233	10.351	591441	COUNTDOWN_START	n/a	n/a	n/a	n/a	-999	3	[0, 0, 0]	n/a	catFR1	2	R1406M
460.584	0.0	601780	COUNTDOWN_END	n/a	n/a	n/a	n/a	-999	3	[0, 0, 0]	n/a	catFR1	2	R1406M
460.584	2.048	601780	ENCODING_START	n/a	n/a	n/a	n/a	-999	4	[0, 0, 0]	n/a	catFR1	2	R1406M
462.632	1.601	603822	WORD	n/a	wordpools/wordpool_categorized_EN.txt	PRINTER	Electronics	1	4	[0, 0, 0]	n/a	catFR1	2	R1406M
464.233	0.984	605424	WORD_OFF	n/a	n/a	PRINTER	Electronics	1	4	[0, 0, 0]	n/a	catFR1	2	R1406M
465.217	1.6	606416	WORD	n/a	wordpools/wordpool_categorized_EN.txt	MICROWAVE	Electronics	2	4	[0, 0, 0]	n/a	catFR1	2	R1406M
466.817	0.916	608018	WORD_OFF	n/a	n/a	MICROWAVE	Electronics	2	4	[0, 0, 0]	n/a	catFR1	2	R1406M
467.733	1.6	608934	WORD	n/a	wordpools/wordpool_categorized_EN.txt	ROOSTER	FarmAnimals	3	4	[0, 0, 0]	n/a	catFR1	2	R1406M
469.333	0.95	610537	WORD_OFF	n/a	n/a	ROOSTER	FarmAnimals	3	4	[0, 0, 0]	n/a	catFR1	2	R1406M
470.283	1.6	611471	WORD	n/a	wordpools/wordpool_categorized_EN.txt	PIG	FarmAnimals	4	4	[0, 0, 0]	n/a	catFR1	2	R1406M
471.883	0.799	613074	WORD_OFF	n/a	n/a	PIG	FarmAnimals	4	4	[0, 0, 0]	n/a	catFR1	2	R1406M
472.682	1.601	613875	WORD	n/a	wordpools/wordpool_categorized_EN.txt	SILK	Fabric	5	4	[0, 0, 0]	n/a	catFR1	2	R1406M
474.283	0.85	615478	WORD_OFF	n/a	n/a	SILK	Fabric	5	4	[0, 0, 0]	n/a	catFR1	2	R1406M
475.133	1.616	616336	WORD	n/a	wordpools/wordpool_categorized_EN.txt	VELVET	Fabric	6	4	[0, 0, 0]	n/a	catFR1	2	R1406M
476.749	1.001	617938	WORD_OFF	n/a	n/a	VELVET	Fabric	6	4	[0, 0, 0]	n/a	catFR1	2	R1406M
477.75	1.6	618950	WORD	n/a	wordpools/wordpool_categorized_EN.txt	GOAT	FarmAnimals	7	4	[0, 0, 0]	n/a	catFR1	2	R1406M
479.35	0.983	620552	WORD_OFF	n/a	n/a	GOAT	FarmAnimals	7	4	[0, 0, 0]	n/a	catFR1	2	R1406M
480.333	1.6	621525	WORD	n/a	wordpools/wordpool_categorized_EN.txt	HEN	FarmAnimals	8	4	[0, 0, 0]	n/a	catFR1	2	R1406M
481.933	0.9	623127	WORD_OFF	n/a	n/a	HEN	FarmAnimals	8	4	[0, 0, 0]	n/a	catFR1	2	R1406M
482.833	1.6	624024	WORD	n/a	wordpools/wordpool_categorized_EN.txt	SCANNER	Electronics	9	4	[0, 0, 0]	n/a	catFR1	2	R1406M
484.433	0.9	625626	WORD_OFF	n/a	n/a	SCANNER	Electronics	9	4	[0, 0, 0]	n/a	catFR1	2	R1406M
485.333	1.6	626523	WORD	n/a	wordpools/wordpool_categorized_EN.txt	TELEVISION	Electronics	10	4	[0, 0, 0]	n/a	catFR1	2	R1406M
486.933	0.933	628126	WORD_OFF	n/a	n/a	TELEVISION	Electronics	10	4	[0, 0, 0]	n/a	catFR1	2	R1406M
487.866	1.6	629060	WORD	n/a	wordpools/wordpool_categorized_EN.txt	WOOL	Fabric	11	4	[0, 0, 0]	n/a	catFR1	2	R1406M
489.466	0.883	630663	WORD_OFF	n/a	n/a	WOOL	Fabric	11	4	[0, 0, 0]	n/a	catFR1	2	R1406M
490.349	1.601	631540	WORD	n/a	wordpools/wordpool_categorized_EN.txt	DENIM	Fabric	12	4	[0, 0, 0]	n/a	catFR1	2	R1406M
491.95	0.0	633142	PROB	0.0	n/a	n/a	n/a	-999	4	[3, 1, 8]	13	catFR1	2	R1406M
491.949	0.002	633143	WORD_OFF	n/a	n/a	DENIM	Fabric	12	4	[0, 0, 0]	n/a	catFR1	2	R1406M
491.951	0.0	633143	ENCODING_END	n/a	n/a	n/a	n/a	-999	4	[0, 0, 0]	n/a	catFR1	2	R1406M
491.951	0.0	633143	DISTRACT_START	n/a	n/a	n/a	n/a	-999	4	[0, 0, 0]	n/a	catFR1	2	R1406M
491.951	5.665	633143	START	n/a	n/a	n/a	n/a	-999	4	[-999, -999, -999]	n/a	catFR1	2	R1406M
497.616	5.133	638808	PROB	5.133	n/a	n/a	n/a	-999	4	[5, 7, 6]	18	catFR1	2	R1406M
502.749	2.7	643941	PROB	2.7	n/a	n/a	n/a	-999	4	[5, 5, 5]	15	catFR1	2	R1406M
505.449	3.367	646641	PROB	3.367	n/a	n/a	n/a	-999	4	[1, 3, 2]	6	catFR1	2	R1406M
508.816	3.566	650007	PROB	3.566	n/a	n/a	n/a	-999	4	[1, 2, 8]	11	catFR1	2	R1406M
512.382	0.0	653573	STOP	n/a	n/a	n/a	n/a	-999	4	[-999, -999, -999]	n/a	catFR1	2	R1406M
512.382	1.051	653574	DISTRACT_END	n/a	n/a	n/a	n/a	-999	4	[0, 0, 0]	n/a	catFR1	2	R1406M
513.433	15.207	654623	REC_START	n/a	n/a	n/a	n/a	-999	4	[0, 0, 0]	n/a	catFR1	2	R1406M
528.64	9.448	669830	REC_WORD	9.448	n/a	MICROWAVE	Electronics	2	4	[0, 0, 0]	n/a	catFR1	2	R1406M
538.088	6.572	679278	REC_WORD	6.572	n/a	CHICKEN	n/a	-999	4	[0, 0, 0]	n/a	catFR1	2	R1406M
544.66	10.373	685852	REC_END	n/a	n/a	n/a	n/a	-999	4	[0, 0, 0]	n/a	catFR1	2	R1406M
555.033	10.35	696230	COUNTDOWN_START	n/a	n/a	n/a	n/a	-999	4	[0, 0, 0]	n/a	catFR1	2	R1406M
565.383	0.001	706570	COUNTDOWN_END	n/a	n/a	n/a	n/a	-999	4	[0, 0, 0]	n/a	catFR1	2	R1406M
565.384	1.932	706570	ENCODING_START	n/a	n/a	n/a	n/a	-999	5	[0, 0, 0]	n/a	catFR1	2	R1406M
567.316	1.616	708497	WORD	n/a	wordpools/wordpool_categorized_EN.txt	ELEPHANT	Zoo	1	5	[0, 0, 0]	n/a	catFR1	2	R1406M
568.932	0.818	710118	WORD_OFF	n/a	n/a	ELEPHANT	Zoo	1	5	[0, 0, 0]	n/a	catFR1	2	R1406M
569.75	1.616	710938	WORD	n/a	wordpools/wordpool_categorized_EN.txt	CHEETAH	Zoo	2	5	[0, 0, 0]	n/a	catFR1	2	R1406M
571.366	0.834	712560	WORD_OFF	n/a	n/a	CHEETAH	Zoo	2	5	[0, 0, 0]	n/a	catFR1	2	R1406M
572.2	1.616	713380	WORD	n/a	wordpools/wordpool_categorized_EN.txt	WILLOW	Trees	3	5	[0, 0, 0]	n/a	catFR1	2	R1406M
573.816	0.866	715002	WORD_OFF	n/a	n/a	WILLOW	Trees	3	5	[0, 0, 0]	n/a	catFR1	2	R1406M
574.682	1.6	715879	WORD	n/a	wordpools/wordpool_categorized_EN.txt	SPRUCE	Trees	4	5	[0, 0, 0]	n/a	catFR1	2	R1406M
576.282	0.934	717463	WORD_OFF	n/a	n/a	SPRUCE	Trees	4	5	[0, 0, 0]	n/a	catFR1	2	R1406M
577.216	1.617	718397	WORD	n/a	wordpools/wordpool_categorized_EN.txt	MILK	Beverages	5	5	[0, 0, 0]	n/a	catFR1	2	R1406M
578.833	0.816	720019	WORD_OFF	n/a	n/a	MILK	Beverages	5	5	[0, 0, 0]	n/a	catFR1	2	R1406M
579.649	1.602	720839	WORD	n/a	wordpools/wordpool_categorized_EN.txt	BEER	Beverages	6	5	[0, 0, 0]	n/a	catFR1	2	R1406M
581.251	0.815	722442	WORD_OFF	n/a	n/a	BEER	Beverages	6	5	[0, 0, 0]	n/a	catFR1	2	R1406M
582.066	1.616	723262	WORD	n/a	wordpools/wordpool_categorized_EN.txt	OAK	Trees	7	5	[0, 0, 0]	n/a	catFR1	2	R1406M
583.682	0.867	724864	WORD_OFF	n/a	n/a	OAK	Trees	7	5	[0, 0, 0]	n/a	catFR1	2	R1406M
584.549	1.6	725742	WORD	n/a	wordpools/wordpool_categorized_EN.txt	BIRCH	Trees	8	5	[0, 0, 0]	n/a	catFR1	2	R1406M
586.149	0.983	727344	WORD_OFF	n/a	n/a	BIRCH	Trees	8	5	[0, 0, 0]	n/a	catFR1	2	R1406M
587.132	1.6	728317	WORD	n/a	wordpools/wordpool_categorized_EN.txt	COLA	Beverages	9	5	[0, 0, 0]	n/a	catFR1	2	R1406M
588.732	0.767	729920	WORD_OFF	n/a	n/a	COLA	Beverages	9	5	[0, 0, 0]	n/a	catFR1	2	R1406M
589.499	1.6	730683	WORD	n/a	wordpools/wordpool_categorized_EN.txt	WATER	Beverages	10	5	[0, 0, 0]	n/a	catFR1	2	R1406M
591.099	0.783	732285	WORD_OFF	n/a	n/a	WATER	Beverages	10	5	[0, 0, 0]	n/a	catFR1	2	R1406M
591.882	1.6	733068	WORD	n/a	wordpools/wordpool_categorized_EN.txt	GIRAFFE	Zoo	11	5	[0, 0, 0]	n/a	catFR1	2	R1406M
593.482	0.834	734670	WORD_OFF	n/a	n/a	GIRAFFE	Zoo	11	5	[0, 0, 0]	n/a	catFR1	2	R1406M
594.316	1.616	735509	WORD	n/a	wordpools/wordpool_categorized_EN.txt	PANDA	Zoo	12	5	[0, 0, 0]	n/a	catFR1	2	R1406M
595.932	0.002	737112	WORD_OFF	n/a	n/a	PANDA	Zoo	12	5	[0, 0, 0]	n/a	catFR1	2	R1406M
595.934	0.0	737112	ENCODING_END	n/a	n/a	n/a	n/a	-999	5	[0, 0, 0]	n/a	catFR1	2	R1406M
595.933	0.001	737120	PROB	0.001	n/a	n/a	n/a	-999	5	[1, 1, 5]	7	catFR1	2	R1406M
595.934	0.0	737121	START	n/a	n/a	n/a	n/a	-999	5	[-999, -999, -999]	n/a	catFR1	2	R1406M
595.934	3.366	737131	DISTRACT_START	n/a	n/a	n/a	n/a	-999	5	[0, 0, 0]	n/a	catFR1	2	R1406M
599.3	4.184	740487	PROB	4.184	n/a	n/a	n/a	-999	5	[4, 3, 6]	13	catFR1	2	R1406M
603.484	3.982	744671	PROB	3.982	n/a	n/a	n/a	-999	5	[6, 4, 5]	15	catFR1	2	R1406M
607.466	5.768	748652	PROB	5.768	n/a	n/a	n/a	-999	5	[7, 4, 2]	13	catFR1	2	R1406M
613.234	3.182	754420	PROB	3.182	n/a	n/a	n/a	-999	5	[2, 8, 6]	16	catFR1	2	R1406M
616.416	0.0	757600	DISTRACT_END	n/a	n/a	n/a	n/a	-999	5	[0, 0, 0]	n/a	catFR1	2	R1406M
616.416	1.384	757602	STOP	n/a	n/a	n/a	n/a	-999	5	[-999, -999, -999]	n/a	catFR1	2	R1406M
617.8	1.36	758993	REC_START	n/a	n/a	n/a	n/a	-999	5	[0, 0, 0]	n/a	catFR1	2	R1406M
619.16	1.826	760346	REC_WORD	1.826	n/a	CHEETAH	Zoo	2	5	[0, 0, 0]	n/a	catFR1	2	R1406M
620.986	1.777	762172	REC_WORD	1.777	n/a	WILLOW	Trees	3	5	[0, 0, 0]	n/a	catFR1	2	R1406M
622.763	3.607	763949	REC_WORD	3.607	n/a	SPRUCE	Trees	4	5	[0, 0, 0]	n/a	catFR1	2	R1406M
626.37	10.627	767555	REC_WORD	10.627	n/a	ELEPHANT	Zoo	1	5	[0, 0, 0]	n/a	catFR1	2	R1406M
636.997	12.042	778182	REC_WORD	12.042	n/a	CYPRESS	n/a	-999	5	[0, 0, 0]	n/a	catFR1	2	R1406M
649.039	7.494	790222	REC_END	n/a	n/a	n/a	n/a	-999	5	[0, 0, 0]	n/a	catFR1	2	R1406M
656.533	10.351	797719	COUNTDOWN_START	n/a	n/a	n/a	n/a	-999	5	[0, 0, 0]	n/a	catFR1	2	R1406M
666.884	0.0	808059	COUNTDOWN_END	n/a	n/a	n/a	n/a	-999	5	[0, 0, 0]	n/a	catFR1	2	R1406M
666.884	2.232	808078	ENCODING_START	n/a	n/a	n/a	n/a	-999	6	[0, 0, 0]	n/a	catFR1	2	R1406M
669.116	1.6	810291	WORD	n/a	wordpools/wordpool_categorized_EN.txt	SOCKS	Clothing	1	6	[0, 0, 0]	n/a	catFR1	2	R1406M
670.716	0.934	811893	WORD_OFF	n/a	n/a	SOCKS	Clothing	1	6	[0, 0, 0]	n/a	catFR1	2	R1406M
671.65	1.6	812828	WORD	n/a	wordpools/wordpool_categorized_EN.txt	DRESS	Clothing	2	6	[0, 0, 0]	n/a	catFR1	2	R1406M
673.25	0.867	814431	WORD_OFF	n/a	n/a	DRESS	Clothing	2	6	[0, 0, 0]	n/a	catFR1	2	R1406M
674.117	1.599	815308	WORD	n/a	wordpools/wordpool_categorized_EN.txt	ELM	Trees	3	6	[0, 0, 0]	n/a	catFR1	2	R1406M
675.716	0.95	816891	WORD_OFF	n/a	n/a	ELM	Trees	3	6	[0, 0, 0]	n/a	catFR1	2	R1406M
676.666	1.6	817845	WORD	n/a	wordpools/wordpool_categorized_EN.txt	CEDAR	Trees	4	6	[0, 0, 0]	n/a	catFR1	2	R1406M
678.266	0.95	819448	WORD_OFF	n/a	n/a	CEDAR	Trees	4	6	[0, 0, 0]	n/a	catFR1	2	R1406M
679.216	1.6	820402	WORD	n/a	wordpools/wordpool_categorized_EN.txt	DOLLHOUSE	Toys	5	6	[0, 0, 0]	n/a	catFR1	2	R1406M
680.816	0.983	822004	WORD_OFF	n/a	n/a	DOLLHOUSE	Toys	5	6	[0, 0, 0]	n/a	catFR1	2	R1406M
681.799	1.617	822977	WORD	n/a	wordpools/wordpool_categorized_EN.txt	FOOTBALL	Toys	6	6	[0, 0, 0]	n/a	catFR1	2	R1406M
683.416	0.9	824599	WORD_OFF	n/a	n/a	FOOTBALL	Toys	6	6	[0, 0, 0]	n/a	catFR1	2	R1406M
684.316	1.617	825495	WORD	n/a	wordpools/wordpool_categorized_EN.txt	CYPRESS	Trees	7	6	[0, 0, 0]	n/a	catFR1	2	R1406M
685.933	0.949	827117	WORD_OFF	n/a	n/a	CYPRESS	Trees	7	6	[0, 0, 0]	n/a	catFR1	2	R1406M
686.882	1.618	828071	WORD	n/a	wordpools/wordpool_categorized_EN.txt	EVERGREEN	Trees	8	6	[0, 0, 0]	n/a	catFR1	2	R1406M
688.5	0.983	829692	WORD_OFF	n/a	n/a	EVERGREEN	Trees	8	6	[0, 0, 0]	n/a	catFR1	2	R1406M
689.483	1.617	830665	WORD	n/a	wordpools/wordpool_categorized_EN.txt	SHORTS	Clothing	9	6	[0, 0, 0]	n/a	catFR1	2	R1406M
691.1	0.8	832287	WORD_OFF	n/a	n/a	SHORTS	Clothing	9	6	[0, 0, 0]	n/a	catFR1	2	R1406M
691.9	1.6	833088	WORD	n/a	wordpools/wordpool_categorized_EN.txt	UNDERWEAR	Clothing	10	6	[0, 0, 0]	n/a	catFR1	2	R1406M
693.5	0.866	834690	WORD_OFF	n/a	n/a	UNDERWEAR	Clothing	10	6	[0, 0, 0]	n/a	catFR1	2	R1406M
694.366	1.6	835549	WORD	n/a	wordpools/wordpool_categorized_EN.txt	BASEBALL	Toys	11	6	[0, 0, 0]	n/a	catFR1	2	R1406M
695.966	0.784	837151	WORD_OFF	n/a	n/a	BASEBALL	Toys	11	6	[0, 0, 0]	n/a	catFR1	2	R1406M
696.75	1.6	837933	WORD	n/a	wordpools/wordpool_categorized_EN.txt	BLOCKS	Toys	12	6	[0, 0, 0]	n/a	catFR1	2	R1406M
698.35	0.002	839532	PROB	0.002	n/a	n/a	n/a	-999	6	[2, 1, 4]	7	catFR1	2	R1406M
698.352	0.0	839534	START	n/a	n/a	n/a	n/a	-999	6	[-999, -999, -999]	n/a	catFR1	2	R1406M
698.35	0.001	839536	WORD_OFF	n/a	n/a	BLOCKS	Toys	12	6	[0, 0, 0]	n/a	catFR1	2	R1406M
698.351	0.001	839536	ENCODING_END	n/a	n/a	n/a	n/a	-999	6	[0, 0, 0]	n/a	catFR1	2	R1406M
698.352	4.915	839536	DISTRACT_START	n/a	n/a	n/a	n/a	-999	6	[0, 0, 0]	n/a	catFR1	2	R1406M
703.267	11.017	844448	PROB	11.017	n/a	n/a	n/a	-999	6	[5, 7, 8]	20	catFR1	2	R1406M
714.284	5.116	855465	PROB	5.116	n/a	n/a	n/a	-999	6	[4, 8, 2]	14	catFR1	2	R1406M
719.4	0.0	860578	DISTRACT_END	n/a	n/a	n/a	n/a	-999	6	[0, 0, 0]	n/a	catFR1	2	R1406M
719.4	1.2	860581	STOP	n/a	n/a	n/a	n/a	-999	6	[-999, -999, -999]	n/a	catFR1	2	R1406M
720.6	0.798	861779	REC_START	n/a	n/a	n/a	n/a	-999	6	[0, 0, 0]	n/a	catFR1	2	R1406M
721.398	2.031	862578	REC_WORD	2.031	n/a	CYPRESS	Trees	7	6	[0, 0, 0]	n/a	catFR1	2	R1406M
723.429	23.091	864609	REC_WORD	23.091	n/a	EVERGREEN	Trees	8	6	[0, 0, 0]	n/a	catFR1	2	R1406M
746.52	5.303	887699	REC_WORD	5.303	n/a	PANTHER	n/a	-999	6	[0, 0, 0]	n/a	catFR1	2	R1406M
751.823	8.31	893008	REC_END	n/a	n/a	n/a	n/a	-999	6	[0, 0, 0]	n/a	catFR1	2	R1406M
760.133	10.35	901307	COUNTDOWN_START	n/a	n/a	n/a	n/a	-999	6	[0, 0, 0]	n/a	catFR1	2	R1406M
770.483	0.0	911665	COUNTDOWN_END	n/a	n/a	n/a	n/a	-999	6	[0, 0, 0]	n/a	catFR1	2	R1406M
770.483	1.782	911665	ENCODING_START	n/a	n/a	n/a	n/a	-999	7	[0, 0, 0]	n/a	catFR1	2	R1406M
772.265	1.601	913440	WORD	n/a	wordpools/wordpool_categorized_EN.txt	BASKETBALL	Toys	1	7	[0, 0, 0]	n/a	catFR1	2	R1406M
773.866	0.867	915042	WORD_OFF	n/a	n/a	BASKETBALL	Toys	1	7	[0, 0, 0]	n/a	catFR1	2	R1406M
774.733	1.617	915920	WORD	n/a	wordpools/wordpool_categorized_EN.txt	SLINKY	Toys	2	7	[0, 0, 0]	n/a	catFR1	2	R1406M
776.35	0.833	917522	WORD_OFF	n/a	n/a	SLINKY	Toys	2	7	[0, 0, 0]	n/a	catFR1	2	R1406M
777.183	1.6	918361	WORD	n/a	wordpools/wordpool_categorized_EN.txt	KNIFE	KitchenTools	3	7	[0, 0, 0]	n/a	catFR1	2	R1406M
778.783	0.783	919964	WORD_OFF	n/a	n/a	KNIFE	KitchenTools	3	7	[0, 0, 0]	n/a	catFR1	2	R1406M
779.566	1.6	920746	WORD	n/a	wordpools/wordpool_categorized_EN.txt	CORKSCREW	KitchenTools	4	7	[0, 0, 0]	n/a	catFR1	2	R1406M
781.166	0.95	922349	WORD_OFF	n/a	n/a	CORKSCREW	KitchenTools	4	7	[0, 0, 0]	n/a	catFR1	2	R1406M
782.116	1.617	923302	WORD	n/a	wordpools/wordpool_categorized_EN.txt	STAPLER	OfficeSupplies	5	7	[0, 0, 0]	n/a	catFR1	2	R1406M
783.733	0.949	924905	WORD_OFF	n/a	n/a	STAPLER	OfficeSupplies	5	7	[0, 0, 0]	n/a	catFR1	2	R1406M
784.682	1.601	925859	WORD	n/a	wordpools/wordpool_categorized_EN.txt	PEN	OfficeSupplies	6	7	[0, 0, 0]	n/a	catFR1	2	R1406M
786.283	0.799	927461	WORD_OFF	n/a	n/a	PEN	OfficeSupplies	6	7	[0, 0, 0]	n/a	catFR1	2	R1406M
787.082	1.618	928262	WORD	n/a	wordpools/wordpool_categorized_EN.txt	STRAINER	KitchenTools	7	7	[0, 0, 0]	n/a	catFR1	2	R1406M
788.7	1.0	929884	WORD_OFF	n/a	n/a	STRAINER	KitchenTools	7	7	[0, 0, 0]	n/a	catFR1	2	R1406M
789.7	1.6	930876	WORD	n/a	wordpools/wordpool_categorized_EN.txt	COLANDER	KitchenTools	8	7	[0, 0, 0]	n/a	catFR1	2	R1406M
791.3	1.0	932478	WORD_OFF	n/a	n/a	COLANDER	KitchenTools	8	7	[0, 0, 0]	n/a	catFR1	2	R1406M
792.3	1.6	933470	WORD	n/a	wordpools/wordpool_categorized_EN.txt	DOLL	Toys	9	7	[0, 0, 0]	n/a	catFR1	2	R1406M
793.9	0.783	935073	WORD_OFF	n/a	n/a	DOLL	Toys	9	7	[0, 0, 0]	n/a	catFR1	2	R1406M
794.683	1.6	935855	WORD	n/a	wordpools/wordpool_categorized_EN.txt	BALL	Toys	10	7	[0, 0, 0]	n/a	catFR1	2	R1406M
796.283	1.0	937457	WORD_OFF	n/a	n/a	BALL	Toys	10	7	[0, 0, 0]	n/a	catFR1	2	R1406M
797.283	1.6	938469	WORD	n/a	wordpools/wordpool_categorized_EN.txt	BINDER	OfficeSupplies	11	7	[0, 0, 0]	n/a	catFR1	2	R1406M
798.883	0.832	940052	WORD_OFF	n/a	n/a	BINDER	OfficeSupplies	11	7	[0, 0, 0]	n/a	catFR1	2	R1406M
799.715	1.601	940891	WORD	n/a	wordpools/wordpool_categorized_EN.txt	ERASER	OfficeSupplies	12	7	[0, 0, 0]	n/a	catFR1	2	R1406M
801.316	0.0	942492	PROB	0.0	n/a	n/a	n/a	-999	7	[4, 7, 2]	13	catFR1	2	R1406M
801.316	0.002	942494	WORD_OFF	n/a	n/a	ERASER	OfficeSupplies	12	7	[0, 0, 0]	n/a	catFR1	2	R1406M
801.318	0.0	942494	ENCODING_END	n/a	n/a	n/a	n/a	-999	7	[0, 0, 0]	n/a	catFR1	2	R1406M
801.318	0.0	942494	DISTRACT_START	n/a	n/a	n/a	n/a	-999	7	[0, 0, 0]	n/a	catFR1	2	R1406M
801.318	6.632	942494	START	n/a	n/a	n/a	n/a	-999	7	[-999, -999, -999]	n/a	catFR1	2	R1406M
807.95	3.751	949126	PROB	3.751	n/a	n/a	n/a	-999	7	[4, 4, 2]	1	catFR1	2	R1406M
811.701	3.482	952877	PROB	3.482	n/a	n/a	n/a	-999	7	[5, 8, 1]	14	catFR1	2	R1406M
815.183	9.95	956359	PROB	9.95	n/a	n/a	n/a	-999	7	[7, 8, 5]	21	catFR1	2	R1406M
825.133	0.0	966302	DISTRACT_END	n/a	n/a	n/a	n/a	-999	7	[0, 0, 0]	n/a	catFR1	2	R1406M
825.133	1.4	966308	STOP	n/a	n/a	n/a	n/a	-999	7	[-999, -999, -999]	n/a	catFR1	2	R1406M
826.533	29.999	967713	REC_START	n/a	n/a	n/a	n/a	-999	7	[0, 0, 0]	n/a	catFR1	2	R1406M
856.532	1.226	997705	REC_WORD_VV	1.226	n/a	<>	n/a	-999	7	[0, 0, 0]	n/a	catFR1	2	R1406M
857.758	8.474	998923	REC_END	n/a	n/a	n/a	n/a	-999	7	[0, 0, 0]	n/a	catFR1	2	R1406M
866.232	10.352	1007412	COUNTDOWN_START	n/a	n/a	n/a	n/a	-999	7	[0, 0, 0]	n/a	catFR1	2	R1406M
876.584	0.0	1017752	COUNTDOWN_END	n/a	n/a	n/a	n/a	-999	7	[0, 0, 0]	n/a	catFR1	2	R1406M
876.584	2.316	1017752	ENCODING_START	n/a	n/a	n/a	n/a	-999	8	[0, 0, 0]	n/a	catFR1	2	R1406M
878.9	1.617	1020080	WORD	n/a	wordpools/wordpool_categorized_EN.txt	MOSQUITO	Insects	1	8	[0, 0, 0]	n/a	catFR1	2	R1406M
880.517	0.816	1021682	WORD_OFF	n/a	n/a	MOSQUITO	Insects	1	8	[0, 0, 0]	n/a	catFR1	2	R1406M
881.333	1.6	1022502	WORD	n/a	wordpools/wordpool_categorized_EN.txt	LADYBUG	Insects	2	8	[0, 0, 0]	n/a	catFR1	2	R1406M
882.933	0.983	1024105	WORD_OFF	n/a	n/a	LADYBUG	Insects	2	8	[0, 0, 0]	n/a	catFR1	2	R1406M
883.916	1.6	1025097	WORD	n/a	wordpools/wordpool_categorized_EN.txt	SOFA	Furniture	3	8	[0, 0, 0]	n/a	catFR1	2	R1406M
885.516	0.767	1026680	WORD_OFF	n/a	n/a	SOFA	Furniture	3	8	[0, 0, 0]	n/a	catFR1	2	R1406M
886.283	1.617	1027462	WORD	n/a	wordpools/wordpool_categorized_EN.txt	CABINET	Furniture	4	8	[0, 0, 0]	n/a	catFR1	2	R1406M
887.9	0.933	1029084	WORD_OFF	n/a	n/a	CABINET	Furniture	4	8	[0, 0, 0]	n/a	catFR1	2	R1406M
888.833	1.6	1029999	WORD	n/a	wordpools/wordpool_categorized_EN.txt	PUDDING	Desserts	5	8	[0, 0, 0]	n/a	catFR1	2	R1406M
890.433	0.867	1031602	WORD_OFF	n/a	n/a	PUDDING	Desserts	5	8	[0, 0, 0]	n/a	catFR1	2	R1406M
891.3	1.6	1032479	WORD	n/a	wordpools/wordpool_categorized_EN.txt	COOKIE	Desserts	6	8	[0, 0, 0]	n/a	catFR1	2	R1406M
892.9	0.967	1034063	WORD_OFF	n/a	n/a	COOKIE	Desserts	6	8	[0, 0, 0]	n/a	catFR1	2	R1406M
893.867	1.599	1035036	WORD	n/a	wordpools/wordpool_categorized_EN.txt	DRESSER	Furniture	7	8	[0, 0, 0]	n/a	catFR1	2	R1406M
895.466	0.85	1036638	WORD_OFF	n/a	n/a	DRESSER	Furniture	7	8	[0, 0, 0]	n/a	catFR1	2	R1406M
896.316	1.6	1037497	WORD	n/a	wordpools/wordpool_categorized_EN.txt	SHELF	Furniture	8	8	[0, 0, 0]	n/a	catFR1	2	R1406M
897.916	0.917	1039080	WORD_OFF	n/a	n/a	SHELF	Furniture	8	8	[0, 0, 0]	n/a	catFR1	2	R1406M
898.833	1.6	1039996	WORD	n/a	wordpools/wordpool_categorized_EN.txt	BEETLE	Insects	9	8	[0, 0, 0]	n/a	catFR1	2	R1406M
900.433	0.817	1041598	WORD_OFF	n/a	n/a	BEETLE	Insects	9	8	[0, 0, 0]	n/a	catFR1	2	R1406M
901.25	1.616	1042419	WORD	n/a	wordpools/wordpool_categorized_EN.txt	FLY	Insects	10	8	[0, 0, 0]	n/a	catFR1	2	R1406M
902.866	0.917	1044040	WORD_OFF	n/a	n/a	FLY	Insects	10	8	[0, 0, 0]	n/a	catFR1	2	R1406M
903.783	1.6	1044956	WORD	n/a	wordpools/wordpool_categorized_EN.txt	CUPCAKE	Desserts	11	8	[0, 0, 0]	n/a	catFR1	2	R1406M
905.383	0.8	1046558	WORD_OFF	n/a	n/a	CUPCAKE	Desserts	11	8	[0, 0, 0]	n/a	catFR1	2	R1406M
906.183	1.6	1047359	WORD	n/a	wordpools/wordpool_categorized_EN.txt	CAKE	Desserts	12	8	[0, 0, 0]	n/a	catFR1	2	R1406M
907.783	0.002	1048954	PROB	0.002	n/a	n/a	n/a	-999	8	[7, 4, 6]	17	catFR1	2	R1406M
907.785	0.0	1048956	START	n/a	n/a	n/a	n/a	-999	8	[-999, -999, -999]	n/a	catFR1	2	R1406M
907.783	0.001	1048962	WORD_OFF	n/a	n/a	CAKE	Desserts	12	8	[0, 0, 0]	n/a	catFR1	2	R1406M
907.784	0.001	1048962	ENCODING_END	n/a	n/a	n/a	n/a	-999	8	[0, 0, 0]	n/a	catFR1	2	R1406M
907.785	4.481	1048962	DISTRACT_START	n/a	n/a	n/a	n/a	-999	8	[0, 0, 0]	n/a	catFR1	2	R1406M
912.266	4.651	1053437	PROB	4.651	n/a	n/a	n/a	-999	8	[3, 7, 3]	13	catFR1	2	R1406M
916.917	10.233	1058087	PROB	10.233	n/a	n/a	n/a	-999	8	[8, 7, 4]	19	catFR1	2	R1406M
927.15	45.916	1068320	PROB	45.916	n/a	n/a	n/a	-999	8	[6, 1, 4]	11	catFR1	2	R1406M
973.066	0.0	1114233	STOP	n/a	n/a	n/a	n/a	-999	8	[-999, -999, -999]	n/a	catFR1	2	R1406M
973.066	1.017	1114243	DISTRACT_END	n/a	n/a	n/a	n/a	-999	8	[0, 0, 0]	n/a	catFR1	2	R1406M
974.083	29.999	1115254	REC_START	n/a	n/a	n/a	n/a	-999	8	[0, 0, 0]	n/a	catFR1	2	R1406M
1004.082	1.223	1145248	REC_WORD_VV	1.223	n/a	<>	n/a	-999	8	[0, 0, 0]	n/a	catFR1	2	R1406M
1005.305	2.662	1146464	REC_END	n/a	n/a	n/a	n/a	-999	8	[0, 0, 0]	n/a	catFR1	2	R1406M
1007.967	10.349	1149135	COUNTDOWN_START	n/a	n/a	n/a	n/a	-999	8	[0, 0, 0]	n/a	catFR1	2	R1406M
1018.316	0.0	1159474	COUNTDOWN_END	n/a	n/a	n/a	n/a	-999	8	[0, 0, 0]	n/a	catFR1	2	R1406M
1018.316	2.283	1159493	ENCODING_START	n/a	n/a	n/a	n/a	-999	9	[0, 0, 0]	n/a	catFR1	2	R1406M
1020.599	1.617	1161764	WORD	n/a	wordpools/wordpool_categorized_EN.txt	HALLWAY	Building	1	9	[0, 0, 0]	n/a	catFR1	2	R1406M
1022.216	0.967	1163385	WORD_OFF	n/a	n/a	HALLWAY	Building	1	9	[0, 0, 0]	n/a	catFR1	2	R1406M
1023.183	1.6	1164339	WORD	n/a	wordpools/wordpool_categorized_EN.txt	ROOM	Building	2	9	[0, 0, 0]	n/a	catFR1	2	R1406M
1024.783	0.85	1165941	WORD_OFF	n/a	n/a	ROOM	Building	2	9	[0, 0, 0]	n/a	catFR1	2	R1406M
1025.633	1.616	1166800	WORD	n/a	wordpools/wordpool_categorized_EN.txt	RUM	Beverages	3	9	[0, 0, 0]	n/a	catFR1	2	R1406M
1027.249	0.833	1168421	WORD_OFF	n/a	n/a	RUM	Beverages	3	9	[0, 0, 0]	n/a	catFR1	2	R1406M
1028.082	1.601	1169242	WORD	n/a	wordpools/wordpool_categorized_EN.txt	TEA	Beverages	4	9	[0, 0, 0]	n/a	catFR1	2	R1406M
1029.683	0.868	1170844	WORD_OFF	n/a	n/a	TEA	Beverages	4	9	[0, 0, 0]	n/a	catFR1	2	R1406M
1030.551	1.599	1171722	WORD	n/a	wordpools/wordpool_categorized_EN.txt	PEAR	Fruit	5	9	[0, 0, 0]	n/a	catFR1	2	R1406M
1032.15	0.816	1173305	WORD_OFF	n/a	n/a	PEAR	Fruit	5	9	[0, 0, 0]	n/a	catFR1	2	R1406M
1032.966	1.6	1174125	WORD	n/a	wordpools/wordpool_categorized_EN.txt	ORANGE	Fruit	6	9	[0, 0, 0]	n/a	catFR1	2	R1406M
1034.566	0.917	1175728	WORD_OFF	n/a	n/a	ORANGE	Fruit	6	9	[0, 0, 0]	n/a	catFR1	2	R1406M
1035.483	1.6	1176644	WORD	n/a	wordpools/wordpool_categorized_EN.txt	JUICE	Beverages	7	9	[0, 0, 0]	n/a	catFR1	2	R1406M
1037.083	0.767	1178246	WORD_OFF	n/a	n/a	JUICE	Beverages	7	9	[0, 0, 0]	n/a	catFR1	2	R1406M
1037.85	1.6	1179009	WORD	n/a	wordpools/wordpool_categorized_EN.txt	LEMONADE	Beverages	8	9	[0, 0, 0]	n/a	catFR1	2	R1406M
1039.45	0.983	1180612	WORD_OFF	n/a	n/a	LEMONADE	Beverages	8	9	[0, 0, 0]	n/a	catFR1	2	R1406M
1040.433	1.6	1181604	WORD	n/a	wordpools/wordpool_categorized_EN.txt	GRAPE	Fruit	9	9	[0, 0, 0]	n/a	catFR1	2	R1406M
1042.033	0.917	1183206	WORD_OFF	n/a	n/a	GRAPE	Fruit	9	9	[0, 0, 0]	n/a	catFR1	2	R1406M
1042.95	1.6	1184122	WORD	n/a	wordpools/wordpool_categorized_EN.txt	LIME	Fruit	10	9	[0, 0, 0]	n/a	catFR1	2	R1406M
1044.55	0.983	1185724	WORD_OFF	n/a	n/a	LIME	Fruit	10	9	[0, 0, 0]	n/a	catFR1	2	R1406M
1045.533	1.6	1186697	WORD	n/a	wordpools/wordpool_categorized_EN.txt	BATHROOM	Building	11	9	[0, 0, 0]	n/a	catFR1	2	R1406M
1047.133	0.767	1188300	WORD_OFF	n/a	n/a	BATHROOM	Building	11	9	[0, 0, 0]	n/a	catFR1	2	R1406M
1047.9	1.6	1189063	WORD	n/a	wordpools/wordpool_categorized_EN.txt	FOUNDATION	Building	12	9	[0, 0, 0]	n/a	catFR1	2	R1406M
1049.5	0.0	1190664	PROB	0.0	n/a	n/a	n/a	-999	9	[3, 3, 3]	9	catFR1	2	R1406M
1049.5	0.002	1190665	WORD_OFF	n/a	n/a	FOUNDATION	Building	12	9	[0, 0, 0]	n/a	catFR1	2	R1406M
1049.502	0.0	1190665	ENCODING_END	n/a	n/a	n/a	n/a	-999	9	[0, 0, 0]	n/a	catFR1	2	R1406M
1049.502	0.0	1190665	DISTRACT_START	n/a	n/a	n/a	n/a	-999	9	[0, 0, 0]	n/a	catFR1	2	R1406M
1049.502	2.865	1190666	START	n/a	n/a	n/a	n/a	-999	9	[-999, -999, -999]	n/a	catFR1	2	R1406M
1052.367	3.384	1193530	PROB	3.384	n/a	n/a	n/a	-999	9	[5, 4, 2]	11	catFR1	2	R1406M
1055.751	3.632	1196914	PROB	3.632	n/a	n/a	n/a	-999	9	[8, 4, 6]	18	catFR1	2	R1406M
1059.383	4.2	1200546	PROB	4.2	n/a	n/a	n/a	-999	9	[2, 5, 5]	12	catFR1	2	R1406M
1063.583	3.817	1204746	PROB	3.817	n/a	n/a	n/a	-999	9	[4, 1, 4]	9	catFR1	2	R1406M
1067.4	3.833	1208563	PROB	3.833	n/a	n/a	n/a	-999	9	[2, 5, 2]	9	catFR1	2	R1406M
1071.233	0.0	1212394	DISTRACT_END	n/a	n/a	n/a	n/a	-999	9	[0, 0, 0]	n/a	catFR1	2	R1406M
1071.233	1.35	1212395	STOP	n/a	n/a	n/a	n/a	-999	9	[-999, -999, -999]	n/a	catFR1	2	R1406M
1072.583	6.279	1213748	REC_START	n/a	n/a	n/a	n/a	-999	9	[0, 0, 0]	n/a	catFR1	2	R1406M
1078.862	6.904	1220024	REC_WORD	6.904	n/a	HALLWAY	Building	1	9	[0, 0, 0]	n/a	catFR1	2	R1406M
1085.766	3.345	1226928	REC_WORD	3.345	n/a	ORANGE	Fruit	6	9	[0, 0, 0]	n/a	catFR1	2	R1406M
1089.111	2.468	1230272	REC_WORD	2.468	n/a	JUICE	Beverages	7	9	[0, 0, 0]	n/a	catFR1	2	R1406M
1091.579	7.185	1232740	REC_WORD	7.185	n/a	LEMONADE	Beverages	8	9	[0, 0, 0]	n/a	catFR1	2	R1406M
1098.764	5.047	1239925	REC_WORD	5.047	n/a	SOFA	Furniture	-999	9	[0, 0, 0]	n/a	catFR1	2	R1406M
1103.811	7.339	1244977	REC_END	n/a	n/a	n/a	n/a	-999	9	[0, 0, 0]	n/a	catFR1	2	R1406M
1111.15	10.35	1252322	COUNTDOWN_START	n/a	n/a	n/a	n/a	-999	9	[0, 0, 0]	n/a	catFR1	2	R1406M
1121.5	0.001	1262661	COUNTDOWN_END	n/a	n/a	n/a	n/a	-999	9	[0, 0, 0]	n/a	catFR1	2	R1406M
1121.501	2.065	1262661	ENCODING_START	n/a	n/a	n/a	n/a	-999	10	[0, 0, 0]	n/a	catFR1	2	R1406M
1123.566	1.617	1264722	WORD	n/a	wordpools/wordpool_categorized_EN.txt	PEACH	Fruit	1	10	[0, 0, 0]	n/a	catFR1	2	R1406M
1125.183	0.817	1266343	WORD_OFF	n/a	n/a	PEACH	Fruit	1	10	[0, 0, 0]	n/a	catFR1	2	R1406M
1126.0	1.6	1267163	WORD	n/a	wordpools/wordpool_categorized_EN.txt	BLUEBERRY	Fruit	2	10	[0, 0, 0]	n/a	catFR1	2	R1406M
1127.6	0.767	1268766	WORD_OFF	n/a	n/a	BLUEBERRY	Fruit	2	10	[0, 0, 0]	n/a	catFR1	2	R1406M
1128.367	1.599	1269529	WORD	n/a	wordpools/wordpool_categorized_EN.txt	PASTRY	Desserts	3	10	[0, 0, 0]	n/a	catFR1	2	R1406M
1129.966	1.001	1271131	WORD_OFF	n/a	n/a	PASTRY	Desserts	3	10	[0, 0, 0]	n/a	catFR1	2	R1406M
1130.967	1.599	1272123	WORD	n/a	wordpools/wordpool_categorized_EN.txt	JELLO	Desserts	4	10	[0, 0, 0]	n/a	catFR1	2	R1406M
1132.566	0.884	1273726	WORD_OFF	n/a	n/a	JELLO	Desserts	4	10	[0, 0, 0]	n/a	catFR1	2	R1406M
1133.45	1.616	1274603	WORD	n/a	wordpools/wordpool_categorized_EN.txt	CELERY	Vegetables	5	10	[0, 0, 0]	n/a	catFR1	2	R1406M
1135.066	0.766	1276225	WORD_OFF	n/a	n/a	CELERY	Vegetables	5	10	[0, 0, 0]	n/a	catFR1	2	R1406M
1135.832	1.601	1276988	WORD	n/a	wordpools/wordpool_categorized_EN.txt	PEAS	Vegetables	6	10	[0, 0, 0]	n/a	catFR1	2	R1406M
1137.433	0.833	1278591	WORD_OFF	n/a	n/a	PEAS	Vegetables	6	10	[0, 0, 0]	n/a	catFR1	2	R1406M
1138.266	1.617	1279430	WORD	n/a	wordpools/wordpool_categorized_EN.txt	COBBLER	Desserts	7	10	[0, 0, 0]	n/a	catFR1	2	R1406M
1139.883	0.767	1281032	WORD_OFF	n/a	n/a	COBBLER	Desserts	7	10	[0, 0, 0]	n/a	catFR1	2	R1406M
1140.65	1.601	1281815	WORD	n/a	wordpools/wordpool_categorized_EN.txt	MOUSSE	Desserts	8	10	[0, 0, 0]	n/a	catFR1	2	R1406M
1142.251	0.916	1283417	WORD_OFF	n/a	n/a	MOUSSE	Desserts	8	10	[0, 0, 0]	n/a	catFR1	2	R1406M
1143.167	1.616	1284333	WORD	n/a	wordpools/wordpool_categorized_EN.txt	PLUM	Fruit	9	10	[0, 0, 0]	n/a	catFR1	2	R1406M
1144.783	0.834	1285935	WORD_OFF	n/a	n/a	PLUM	Fruit	9	10	[0, 0, 0]	n/a	catFR1	2	R1406M
1145.617	1.616	1286775	WORD	n/a	wordpools/wordpool_categorized_EN.txt	LEMON	Fruit	10	10	[0, 0, 0]	n/a	catFR1	2	R1406M
1147.233	0.95	1288396	WORD_OFF	n/a	n/a	LEMON	Fruit	10	10	[0, 0, 0]	n/a	catFR1	2	R1406M
1148.183	1.617	1289350	WORD	n/a	wordpools/wordpool_categorized_EN.txt	LETTUCE	Vegetables	11	10	[0, 0, 0]	n/a	catFR1	2	R1406M
1149.8	1.0	1290952	WORD_OFF	n/a	n/a	LETTUCE	Vegetables	11	10	[0, 0, 0]	n/a	catFR1	2	R1406M
1150.8	1.617	1291963	WORD	n/a	wordpools/wordpool_categorized_EN.txt	SPINACH	Vegetables	12	10	[0, 0, 0]	n/a	catFR1	2	R1406M
1152.417	0.0	1293566	WORD_OFF	n/a	n/a	SPINACH	Vegetables	12	10	[0, 0, 0]	n/a	catFR1	2	R1406M
1152.417	0.001	1293575	PROB	0.001	n/a	n/a	n/a	-999	10	[8, 5, 7]	21	catFR1	2	R1406M
1152.418	0.0	1293576	START	n/a	n/a	n/a	n/a	-999	10	[-999, -999, -999]	n/a	catFR1	2	R1406M
1152.418	0.0	1293585	ENCODING_END	n/a	n/a	n/a	n/a	-999	10	[0, 0, 0]	n/a	catFR1	2	R1406M
1152.418	10.549	1293585	DISTRACT_START	n/a	n/a	n/a	n/a	-999	10	[0, 0, 0]	n/a	catFR1	2	R1406M
1162.967	5.432	1304125	PROB	5.432	n/a	n/a	n/a	-999	10	[3, 3, 5]	11	catFR1	2	R1406M
1168.399	4.25	1309556	PROB	4.25	n/a	n/a	n/a	-999	10	[3, 7, 7]	17	catFR1	2	R1406M
1172.649	0.0	1313806	STOP	n/a	n/a	n/a	n/a	-999	10	[-999, -999, -999]	n/a	catFR1	2	R1406M
1172.649	1.4	1313807	DISTRACT_END	n/a	n/a	n/a	n/a	-999	10	[0, 0, 0]	n/a	catFR1	2	R1406M
1174.049	8.154	1315199	REC_START	n/a	n/a	n/a	n/a	-999	10	[0, 0, 0]	n/a	catFR1	2	R1406M
1182.203	5.885	1323360	REC_WORD	5.885	n/a	LEMON	Fruit	10	10	[0, 0, 0]	n/a	catFR1	2	R1406M
1188.088	3.36	1329244	REC_WORD	3.36	n/a	COBBLER	Desserts	7	10	[0, 0, 0]	n/a	catFR1	2	R1406M
1191.448	11.004	1332604	REC_WORD	11.004	n/a	PEAS	Vegetables	6	10	[0, 0, 0]	n/a	catFR1	2	R1406M
1202.452	2.816	1343608	REC_WORD	2.816	n/a	LETTUCE	Vegetables	11	10	[0, 0, 0]	n/a	catFR1	2	R1406M
1205.268	4.314	1346428	REC_END	n/a	n/a	n/a	n/a	-999	10	[0, 0, 0]	n/a	catFR1	2	R1406M
1209.582	10.352	1350739	COUNTDOWN_START	n/a	n/a	n/a	n/a	-999	10	[0, 0, 0]	n/a	catFR1	2	R1406M
1219.934	0.0	1361079	COUNTDOWN_END	n/a	n/a	n/a	n/a	-999	10	[0, 0, 0]	n/a	catFR1	2	R1406M
1219.934	2.266	1361098	ENCODING_START	n/a	n/a	n/a	n/a	-999	11	[0, 0, 0]	n/a	catFR1	2	R1406M
1222.2	1.617	1363349	WORD	n/a	wordpools/wordpool_categorized_EN.txt	SCOOTER	Vehicles	1	11	[0, 0, 0]	n/a	catFR1	2	R1406M
1223.817	0.816	1364971	WORD_OFF	n/a	n/a	SCOOTER	Vehicles	1	11	[0, 0, 0]	n/a	catFR1	2	R1406M
1224.633	1.6	1365791	WORD	n/a	wordpools/wordpool_categorized_EN.txt	MOTORCYCLE	Vehicles	2	11	[0, 0, 0]	n/a	catFR1	2	R1406M
1226.233	0.883	1367394	WORD_OFF	n/a	n/a	MOTORCYCLE	Vehicles	2	11	[0, 0, 0]	n/a	catFR1	2	R1406M
1227.116	1.6	1368271	WORD	n/a	wordpools/wordpool_categorized_EN.txt	DISHWASHER	Appliances	3	11	[0, 0, 0]	n/a	catFR1	2	R1406M
1228.716	0.984	1369874	WORD_OFF	n/a	n/a	DISHWASHER	Appliances	3	11	[0, 0, 0]	n/a	catFR1	2	R1406M
1229.7	1.6	1370846	WORD	n/a	wordpools/wordpool_categorized_EN.txt	OVEN	Appliances	4	11	[0, 0, 0]	n/a	catFR1	2	R1406M
1231.3	0.967	1372449	WORD_OFF	n/a	n/a	OVEN	Appliances	4	11	[0, 0, 0]	n/a	catFR1	2	R1406M
1232.267	1.6	1373422	WORD	n/a	wordpools/wordpool_categorized_EN.txt	FLOOR	Building	5	11	[0, 0, 0]	n/a	catFR1	2	R1406M
1233.867	0.866	1375024	WORD_OFF	n/a	n/a	FLOOR	Building	5	11	[0, 0, 0]	n/a	catFR1	2	R1406M
1234.733	1.616	1375883	WORD	n/a	wordpools/wordpool_categorized_EN.txt	ATTIC	Building	6	11	[0, 0, 0]	n/a	catFR1	2	R1406M
1236.349	0.784	1377504	WORD_OFF	n/a	n/a	ATTIC	Building	6	11	[0, 0, 0]	n/a	catFR1	2	R1406M
1237.133	1.617	1378286	WORD	n/a	wordpools/wordpool_categorized_EN.txt	MIXER	Appliances	7	11	[0, 0, 0]	n/a	catFR1	2	R1406M
1238.75	0.883	1379908	WORD_OFF	n/a	n/a	MIXER	Appliances	7	11	[0, 0, 0]	n/a	catFR1	2	R1406M
1239.633	1.617	1380786	WORD	n/a	wordpools/wordpool_categorized_EN.txt	IRON	Appliances	8	11	[0, 0, 0]	n/a	catFR1	2	R1406M
1241.25	0.865	1382407	WORD_OFF	n/a	n/a	IRON	Appliances	8	11	[0, 0, 0]	n/a	catFR1	2	R1406M
1242.115	1.601	1383265	WORD	n/a	wordpools/wordpool_categorized_EN.txt	MOPED	Vehicles	9	11	[0, 0, 0]	n/a	catFR1	2	R1406M
1243.716	0.917	1384868	WORD_OFF	n/a	n/a	MOPED	Vehicles	9	11	[0, 0, 0]	n/a	catFR1	2	R1406M
1244.633	1.616	1385784	WORD	n/a	wordpools/wordpool_categorized_EN.txt	VAN	Vehicles	10	11	[0, 0, 0]	n/a	catFR1	2	R1406M
1246.249	0.934	1387405	WORD_OFF	n/a	n/a	VAN	Vehicles	10	11	[0, 0, 0]	n/a	catFR1	2	R1406M
1247.183	1.6	1388340	WORD	n/a	wordpools/wordpool_categorized_EN.txt	WINDOW	Building	11	11	[0, 0, 0]	n/a	catFR1	2	R1406M
1248.783	0.8	1389942	WORD_OFF	n/a	n/a	WINDOW	Building	11	11	[0, 0, 0]	n/a	catFR1	2	R1406M
1249.583	1.6	1390744	WORD	n/a	wordpools/wordpool_categorized_EN.txt	DOOR	Building	12	11	[0, 0, 0]	n/a	catFR1	2	R1406M
1251.183	0.001	1392327	WORD_OFF	n/a	n/a	DOOR	Building	12	11	[0, 0, 0]	n/a	catFR1	2	R1406M
1251.184	0.001	1392337	PROB	0.001	n/a	n/a	n/a	-999	11	[5, 4, 1]	10	catFR1	2	R1406M
1251.185	0.0	1392338	START	n/a	n/a	n/a	n/a	-999	11	[-999, -999, -999]	n/a	catFR1	2	R1406M
1251.185	0.0	1392346	ENCODING_END	n/a	n/a	n/a	n/a	-999	11	[0, 0, 0]	n/a	catFR1	2	R1406M
1251.185	3.298	1392346	DISTRACT_START	n/a	n/a	n/a	n/a	-999	11	[0, 0, 0]	n/a	catFR1	2	R1406M
1254.483	3.434	1395636	PROB	3.434	n/a	n/a	n/a	-999	11	[7, 1, 2]	10	catFR1	2	R1406M
1257.917	7.799	1399070	PROB	7.799	n/a	n/a	n/a	-999	11	[6, 3, 8]	17	catFR1	2	R1406M
1265.716	5.167	1406868	PROB	5.167	n/a	n/a	n/a	-999	11	[7, 3, 6]	16	catFR1	2	R1406M
1270.883	3.901	1412035	PROB	3.901	n/a	n/a	n/a	-999	11	[3, 2, 5]	10	catFR1	2	R1406M
1274.784	0.0	1415936	STOP	n/a	n/a	n/a	n/a	-999	11	[-999, -999, -999]	n/a	catFR1	2	R1406M
1274.784	1.083	1415944	DISTRACT_END	n/a	n/a	n/a	n/a	-999	11	[0, 0, 0]	n/a	catFR1	2	R1406M
1275.867	13.974	1417013	REC_START	n/a	n/a	n/a	n/a	-999	11	[0, 0, 0]	n/a	catFR1	2	R1406M
1289.841	10.673	1430992	REC_WORD	10.673	n/a	BLUEBERRY	Fruit	-999	11	[0, 0, 0]	n/a	catFR1	2	R1406M
1300.514	6.572	1441665	REC_WORD	6.572	n/a	HALLWAY	Building	-999	11	[0, 0, 0]	n/a	catFR1	2	R1406M
1307.086	4.231	1448241	REC_END	n/a	n/a	n/a	n/a	-999	11	[0, 0, 0]	n/a	catFR1	2	R1406M
1311.317	10.35	1452476	COUNTDOWN_START	n/a	n/a	n/a	n/a	-999	11	[0, 0, 0]	n/a	catFR1	2	R1406M
1321.667	0.0	1462816	COUNTDOWN_END	n/a	n/a	n/a	n/a	-999	11	[0, 0, 0]	n/a	catFR1	2	R1406M
1321.667	2.083	1462816	ENCODING_START	n/a	n/a	n/a	n/a	-999	12	[0, 0, 0]	n/a	catFR1	2	R1406M
1323.75	1.617	1464896	WORD	n/a	wordpools/wordpool_categorized_EN.txt	MONKEY	Zoo	1	12	[0, 0, 0]	n/a	catFR1	2	R1406M
1325.367	0.966	1466517	WORD_OFF	n/a	n/a	MONKEY	Zoo	1	12	[0, 0, 0]	n/a	catFR1	2	R1406M
1326.333	1.6	1467490	WORD	n/a	wordpools/wordpool_categorized_EN.txt	ORANGUTAN	Zoo	2	12	[0, 0, 0]	n/a	catFR1	2	R1406M
1327.933	0.883	1469092	WORD_OFF	n/a	n/a	ORANGUTAN	Zoo	2	12	[0, 0, 0]	n/a	catFR1	2	R1406M
1328.816	1.6	1469970	WORD	n/a	wordpools/wordpool_categorized_EN.txt	BIKE	Vehicles	3	12	[0, 0, 0]	n/a	catFR1	2	R1406M
1330.416	0.967	1471572	WORD_OFF	n/a	n/a	BIKE	Vehicles	3	12	[0, 0, 0]	n/a	catFR1	2	R1406M
1331.383	1.6	1472526	WORD	n/a	wordpools/wordpool_categorized_EN.txt	TRUCK	Vehicles	4	12	[0, 0, 0]	n/a	catFR1	2	R1406M
1332.983	0.834	1474129	WORD_OFF	n/a	n/a	TRUCK	Vehicles	4	12	[0, 0, 0]	n/a	catFR1	2	R1406M
1333.817	1.616	1474968	WORD	n/a	wordpools/wordpool_categorized_EN.txt	WALL	Building	5	12	[0, 0, 0]	n/a	catFR1	2	R1406M
1335.433	0.95	1476590	WORD_OFF	n/a	n/a	WALL	Building	5	12	[0, 0, 0]	n/a	catFR1	2	R1406M
1336.383	1.6	1477524	WORD	n/a	wordpools/wordpool_categorized_EN.txt	CEILING	Building	6	12	[0, 0, 0]	n/a	catFR1	2	R1406M
1337.983	0.816	1479127	WORD_OFF	n/a	n/a	CEILING	Building	6	12	[0, 0, 0]	n/a	catFR1	2	R1406M
1338.799	1.601	1479947	WORD	n/a	wordpools/wordpool_categorized_EN.txt	CHIMPANZEE	Zoo	7	12	[0, 0, 0]	n/a	catFR1	2	R1406M
1340.4	0.9	1481550	WORD_OFF	n/a	n/a	CHIMPANZEE	Zoo	7	12	[0, 0, 0]	n/a	catFR1	2	R1406M
1341.3	1.6	1482446	WORD	n/a	wordpools/wordpool_categorized_EN.txt	GORILLA	Zoo	8	12	[0, 0, 0]	n/a	catFR1	2	R1406M
1342.9	0.95	1484049	WORD_OFF	n/a	n/a	GORILLA	Zoo	8	12	[0, 0, 0]	n/a	catFR1	2	R1406M
1343.85	1.616	1485003	WORD	n/a	wordpools/wordpool_categorized_EN.txt	BUS	Vehicles	9	12	[0, 0, 0]	n/a	catFR1	2	R1406M
1345.466	0.934	1486624	WORD_OFF	n/a	n/a	BUS	Vehicles	9	12	[0, 0, 0]	n/a	catFR1	2	R1406M
1346.4	1.6	1487540	WORD	n/a	wordpools/wordpool_categorized_EN.txt	PLANE	Vehicles	10	12	[0, 0, 0]	n/a	catFR1	2	R1406M
1348.0	0.783	1489142	WORD_OFF	n/a	n/a	PLANE	Vehicles	10	12	[0, 0, 0]	n/a	catFR1	2	R1406M
1348.783	1.616	1489924	WORD	n/a	wordpools/wordpool_categorized_EN.txt	STAIRS	Building	11	12	[0, 0, 0]	n/a	catFR1	2	R1406M
1350.399	0.867	1491546	WORD_OFF	n/a	n/a	STAIRS	Building	11	12	[0, 0, 0]	n/a	catFR1	2	R1406M
1351.266	1.6	1492424	WORD	n/a	wordpools/wordpool_categorized_EN.txt	ROOF	Building	12	12	[0, 0, 0]	n/a	catFR1	2	R1406M
1352.866	0.001	1494007	WORD_OFF	n/a	n/a	ROOF	Building	12	12	[0, 0, 0]	n/a	catFR1	2	R1406M
1352.867	0.0	1494007	ENCODING_END	n/a	n/a	n/a	n/a	-999	12	[0, 0, 0]	n/a	catFR1	2	R1406M
1352.866	0.002	1494014	PROB	0.002	n/a	n/a	n/a	-999	12	[1, 4, 6]	11	catFR1	2	R1406M
1352.868	0.0	1494016	START	n/a	n/a	n/a	n/a	-999	12	[-999, -999, -999]	n/a	catFR1	2	R1406M
1352.868	2.882	1494026	DISTRACT_START	n/a	n/a	n/a	n/a	-999	12	[0, 0, 0]	n/a	catFR1	2	R1406M
1355.75	4.234	1496898	PROB	4.234	n/a	n/a	n/a	-999	12	[3, 6, 6]	9	catFR1	2	R1406M
1359.984	5.083	1501131	PROB	5.083	n/a	n/a	n/a	-999	12	[3, 7, 4]	14	catFR1	2	R1406M
1365.067	3.016	1506214	PROB	3.016	n/a	n/a	n/a	-999	12	[4, 2, 8]	14	catFR1	2	R1406M
1368.083	6.217	1509230	PROB	6.217	n/a	n/a	n/a	-999	12	[8, 3, 4]	15	catFR1	2	R1406M
1374.3	0.0	1515447	STOP	n/a	n/a	n/a	n/a	-999	12	[-999, -999, -999]	n/a	catFR1	2	R1406M
1374.3	1.016	1515449	DISTRACT_END	n/a	n/a	n/a	n/a	-999	12	[0, 0, 0]	n/a	catFR1	2	R1406M
1375.316	4.99	1516460	REC_START	n/a	n/a	n/a	n/a	-999	12	[0, 0, 0]	n/a	catFR1	2	R1406M
1380.306	1.866	1521452	REC_WORD	1.866	n/a	CHIMPANZEE	Zoo	7	12	[0, 0, 0]	n/a	catFR1	2	R1406M
1382.172	2.685	1523318	REC_WORD	2.685	n/a	GORILLA	Zoo	8	12	[0, 0, 0]	n/a	catFR1	2	R1406M
1384.857	3.498	1526003	REC_WORD	3.498	n/a	STAIRS	Building	11	12	[0, 0, 0]	n/a	catFR1	2	R1406M
1388.355	3.752	1529501	REC_WORD	3.752	n/a	WALL	Building	5	12	[0, 0, 0]	n/a	catFR1	2	R1406M
1392.107	9.067	1533253	REC_WORD	9.067	n/a	CEILING	Building	6	12	[0, 0, 0]	n/a	catFR1	2	R1406M
1401.174	5.37	1542319	REC_WORD	5.37	n/a	HALLWAY	Building	-999	12	[0, 0, 0]	n/a	catFR1	2	R1406M
1406.544	0.0	1547689	REC_END	n/a	n/a	n/a	n/a	-999	12	[0, 0, 0]	n/a	catFR1	2	R1406M
