onset	duration	sample	trial_type	response_time	stim_file	item_name	category	serialpos	list	test	answer	experiment	session	subject
0.0	164.848	12334	INSTRUCT_START	n/a	n/a	n/a	n/a	-999	-999	[0, 0, 0]	n/a	catFR1	0	R1652A
164.848	226.448	177173	INSTRUCT_END	n/a	n/a	n/a	n/a	-999	-999	[0, 0, 0]	n/a	catFR1	0	R1652A
391.296	10.35	403624	COUNTDOWN_START	n/a	n/a	n/a	n/a	-999	-999	[0, 0, 0]	n/a	catFR1	0	R1652A
401.646	0.0	413974	COUNTDOWN_END	n/a	n/a	n/a	n/a	-999	-999	[0, 0, 0]	n/a	catFR1	0	R1652A
401.646	1.96	413974	ENCODING_START	n/a	n/a	n/a	n/a	-999	-1	[0, 0, 0]	n/a	catFR1	0	R1652A
403.606	1.606	415934	WORD	n/a	n/a	CHIMPANZEE	Zoo	1	-1	[0, 0, 0]	n/a	catFR1	0	R1652A
405.212	0.858	417536	WORD_OFF	n/a	n/a	CHIMPANZEE	Zoo	1	-1	[0, 0, 0]	n/a	catFR1	0	R1652A
406.07	1.608	418396	WORD	n/a	n/a	ZEBRA	Zoo	2	-1	[0, 0, 0]	n/a	catFR1	0	R1652A
407.678	0.816	419998	WORD_OFF	n/a	n/a	ZEBRA	Zoo	2	-1	[0, 0, 0]	n/a	catFR1	0	R1652A
408.494	1.607	420822	WORD	n/a	n/a	EYE	BodyParts	3	-1	[0, 0, 0]	n/a	catFR1	0	R1652A
410.101	0.908	422424	WORD_OFF	n/a	n/a	EYE	BodyParts	3	-1	[0, 0, 0]	n/a	catFR1	0	R1652A
411.009	1.6	423332	WORD	n/a	n/a	KNEE	BodyParts	4	-1	[0, 0, 0]	n/a	catFR1	0	R1652A
412.609	0.934	424934	WORD_OFF	n/a	n/a	KNEE	BodyParts	4	-1	[0, 0, 0]	n/a	catFR1	0	R1652A
413.543	1.6	425866	WORD	n/a	n/a	TORNADO	Weather	5	-1	[0, 0, 0]	n/a	catFR1	0	R1652A
415.143	0.925	427468	WORD_OFF	n/a	n/a	TORNADO	Weather	5	-1	[0, 0, 0]	n/a	catFR1	0	R1652A
416.068	1.601	428400	WORD	n/a	n/a	CLOUD	Weather	6	-1	[0, 0, 0]	n/a	catFR1	0	R1652A
417.669	0.799	429989	WORD_OFF	n/a	n/a	CLOUD	Weather	6	-1	[0, 0, 0]	n/a	catFR1	0	R1652A
418.468	1.601	430790	WORD	n/a	n/a	BEAR	Zoo	7	-1	[0, 0, 0]	n/a	catFR1	0	R1652A
420.069	0.867	432392	WORD_OFF	n/a	n/a	BEAR	Zoo	7	-1	[0, 0, 0]	n/a	catFR1	0	R1652A
420.936	1.607	433264	WORD	n/a	n/a	GIRAFFE	Zoo	8	-1	[0, 0, 0]	n/a	catFR1	0	R1652A
422.543	0.918	434866	WORD_OFF	n/a	n/a	GIRAFFE	Zoo	8	-1	[0, 0, 0]	n/a	catFR1	0	R1652A
423.461	1.6	435786	WORD	n/a	n/a	THUNDER	Weather	9	-1	[0, 0, 0]	n/a	catFR1	0	R1652A
425.061	0.757	437388	WORD_OFF	n/a	n/a	THUNDER	Weather	9	-1	[0, 0, 0]	n/a	catFR1	0	R1652A
425.818	1.601	438140	WORD	n/a	n/a	DRIZZLE	Weather	10	-1	[0, 0, 0]	n/a	catFR1	0	R1652A
427.419	0.975	439742	WORD_OFF	n/a	n/a	DRIZZLE	Weather	10	-1	[0, 0, 0]	n/a	catFR1	0	R1652A
428.394	1.61	440722	WORD	n/a	n/a	ARM	BodyParts	11	-1	[0, 0, 0]	n/a	catFR1	0	R1652A
430.004	0.947	442336	WORD_OFF	n/a	n/a	ARM	BodyParts	11	-1	[0, 0, 0]	n/a	catFR1	0	R1652A
430.951	1.605	443280	WORD	n/a	n/a	TOE	BodyParts	12	-1	[0, 0, 0]	n/a	catFR1	0	R1652A
432.556	0.0	444882	START	n/a	n/a	n/a	n/a	-999	-1	[-999, -999, -999]	n/a	catFR1	0	R1652A
432.556	0.0	444882	PROB	0.0	n/a	n/a	n/a	-999	-1	[5, 5, 6]	16	catFR1	0	R1652A
432.552	0.004	444893	WORD_OFF	n/a	n/a	TOE	BodyParts	12	-1	[0, 0, 0]	n/a	catFR1	0	R1652A
432.556	0.0	444893	ENCODING_END	n/a	n/a	n/a	n/a	-999	-1	[0, 0, 0]	n/a	catFR1	0	R1652A
432.556	10.547	444905	DISTRACT_START	n/a	n/a	n/a	n/a	-999	-1	[0, 0, 0]	n/a	catFR1	0	R1652A
443.103	6.732	455429	PROB	6.732	n/a	n/a	n/a	-999	-1	[3, 8, 5]	16	catFR1	0	R1652A
449.835	4.227	462161	PROB	4.227	n/a	n/a	n/a	-999	-1	[1, 6, 3]	10	catFR1	0	R1652A
454.062	0.0	466383	DISTRACT_END	n/a	n/a	n/a	n/a	-999	-1	[0, 0, 0]	n/a	catFR1	0	R1652A
454.062	2.158	466388	STOP	n/a	n/a	n/a	n/a	-999	-1	[-999, -999, -999]	n/a	catFR1	0	R1652A
456.22	4.378	468546	REC_START	n/a	n/a	n/a	n/a	-999	-1	[0, 0, 0]	n/a	catFR1	0	R1652A
460.598	3.253	472924	REC_WORD	3.253	n/a	CHIMPANZEE	Zoo	1	-1	[0, 0, 0]	n/a	catFR1	0	R1652A
463.851	1.0	476177	REC_WORD_VV	1.0	n/a	<>	n/a	-999	-1	[0, 0, 0]	n/a	catFR1	0	R1652A
464.851	1.479	477177	REC_WORD_VV	1.479	n/a	<>	n/a	-999	-1	[0, 0, 0]	n/a	catFR1	0	R1652A
466.33	1.058	478656	REC_WORD_VV	1.058	n/a	<>	n/a	-999	-1	[0, 0, 0]	n/a	catFR1	0	R1652A
467.388	3.18	479714	REC_WORD	3.18	n/a	EYE	BodyParts	3	-1	[0, 0, 0]	n/a	catFR1	0	R1652A
470.568	4.962	482894	REC_WORD	4.962	n/a	DIZZY	n/a	-999	-1	[0, 0, 0]	n/a	catFR1	0	R1652A
475.53	1.0	487855	REC_WORD_VV	1.0	n/a	<>	n/a	-999	-1	[0, 0, 0]	n/a	catFR1	0	R1652A
476.53	1.0	488855	REC_WORD_VV	1.0	n/a	<>	n/a	-999	-1	[0, 0, 0]	n/a	catFR1	0	R1652A
477.53	1.0	489855	REC_WORD_VV	1.0	n/a	<>	n/a	-999	-1	[0, 0, 0]	n/a	catFR1	0	R1652A
478.53	1.0	490855	REC_WORD_VV	1.0	n/a	<>	n/a	-999	-1	[0, 0, 0]	n/a	catFR1	0	R1652A
479.53	1.0	491855	REC_WORD_VV	1.0	n/a	<>	n/a	-999	-1	[0, 0, 0]	n/a	catFR1	0	R1652A
480.53	1.795	492855	REC_WORD_VV	1.795	n/a	<>	n/a	-999	-1	[0, 0, 0]	n/a	catFR1	0	R1652A
482.325	1.0	494650	REC_WORD_VV	1.0	n/a	<>	n/a	-999	-1	[0, 0, 0]	n/a	catFR1	0	R1652A
483.325	3.052	495650	REC_WORD_VV	3.052	n/a	<>	n/a	-999	-1	[0, 0, 0]	n/a	catFR1	0	R1652A
486.377	43.991	498700	REC_END	n/a	n/a	n/a	n/a	-999	-1	[0, 0, 0]	n/a	catFR1	0	R1652A
530.368	10.343	542695	COUNTDOWN_START	n/a	n/a	n/a	n/a	-999	1	[0, 0, 0]	n/a	catFR1	0	R1652A
540.711	0.0	553033	COUNTDOWN_END	n/a	n/a	n/a	n/a	-999	1	[0, 0, 0]	n/a	catFR1	0	R1652A
540.711	2.083	553033	ENCODING_START	n/a	n/a	n/a	n/a	-999	1	[0, 0, 0]	n/a	catFR1	0	R1652A
542.794	1.6	555125	WORD	n/a	wordpools/wordpool_categorized_EN.txt	CRAB	OceanAnimals	1	1	[0, 0, 0]	n/a	catFR1	0	R1652A
544.394	0.783	556726	WORD_OFF	n/a	n/a	CRAB	OceanAnimals	1	1	[0, 0, 0]	n/a	catFR1	0	R1652A
545.177	1.6	557503	WORD	n/a	wordpools/wordpool_categorized_EN.txt	LOBSTER	OceanAnimals	2	1	[0, 0, 0]	n/a	catFR1	0	R1652A
546.777	0.834	559105	WORD_OFF	n/a	n/a	LOBSTER	OceanAnimals	2	1	[0, 0, 0]	n/a	catFR1	0	R1652A
547.611	1.6	559941	WORD	n/a	wordpools/wordpool_categorized_EN.txt	HEN	FarmAnimals	3	1	[0, 0, 0]	n/a	catFR1	0	R1652A
549.211	0.992	561531	WORD_OFF	n/a	n/a	HEN	FarmAnimals	3	1	[0, 0, 0]	n/a	catFR1	0	R1652A
550.203	1.608	562523	WORD	n/a	wordpools/wordpool_categorized_EN.txt	LAMB	FarmAnimals	4	1	[0, 0, 0]	n/a	catFR1	0	R1652A
551.811	0.94	564136	WORD_OFF	n/a	n/a	LAMB	FarmAnimals	4	1	[0, 0, 0]	n/a	catFR1	0	R1652A
552.751	1.6	565081	WORD	n/a	wordpools/wordpool_categorized_EN.txt	DRESS	Clothing	5	1	[0, 0, 0]	n/a	catFR1	0	R1652A
554.351	0.908	566673	WORD_OFF	n/a	n/a	DRESS	Clothing	5	1	[0, 0, 0]	n/a	catFR1	0	R1652A
555.259	1.601	567590	WORD	n/a	wordpools/wordpool_categorized_EN.txt	BLOUSE	Clothing	6	1	[0, 0, 0]	n/a	catFR1	0	R1652A
556.86	0.984	569192	WORD_OFF	n/a	n/a	BLOUSE	Clothing	6	1	[0, 0, 0]	n/a	catFR1	0	R1652A
557.844	1.608	570172	WORD	n/a	wordpools/wordpool_categorized_EN.txt	SHEEP	FarmAnimals	7	1	[0, 0, 0]	n/a	catFR1	0	R1652A
559.452	0.85	571774	WORD_OFF	n/a	n/a	SHEEP	FarmAnimals	7	1	[0, 0, 0]	n/a	catFR1	0	R1652A
560.302	1.601	572634	WORD	n/a	wordpools/wordpool_categorized_EN.txt	TURKEY	FarmAnimals	8	1	[0, 0, 0]	n/a	catFR1	0	R1652A
561.903	0.783	574224	WORD_OFF	n/a	n/a	TURKEY	FarmAnimals	8	1	[0, 0, 0]	n/a	catFR1	0	R1652A
562.686	1.608	575012	WORD	n/a	wordpools/wordpool_categorized_EN.txt	SQUID	OceanAnimals	9	1	[0, 0, 0]	n/a	catFR1	0	R1652A
564.294	0.759	576614	WORD_OFF	n/a	n/a	SQUID	OceanAnimals	9	1	[0, 0, 0]	n/a	catFR1	0	R1652A
565.053	1.607	577379	WORD	n/a	wordpools/wordpool_categorized_EN.txt	SHRIMP	OceanAnimals	10	1	[0, 0, 0]	n/a	catFR1	0	R1652A
566.66	0.918	578981	WORD_OFF	n/a	n/a	SHRIMP	OceanAnimals	10	1	[0, 0, 0]	n/a	catFR1	0	R1652A
567.578	1.607	579901	WORD	n/a	wordpools/wordpool_categorized_EN.txt	SKIRT	Clothing	11	1	[0, 0, 0]	n/a	catFR1	0	R1652A
569.185	0.833	581514	WORD_OFF	n/a	n/a	SKIRT	Clothing	11	1	[0, 0, 0]	n/a	catFR1	0	R1652A
570.018	1.61	582339	WORD	n/a	wordpools/wordpool_categorized_EN.txt	JACKET	Clothing	12	1	[0, 0, 0]	n/a	catFR1	0	R1652A
571.628	0.003	583952	WORD_OFF	n/a	n/a	JACKET	Clothing	12	1	[0, 0, 0]	n/a	catFR1	0	R1652A
571.631	0.0	583952	ENCODING_END	n/a	n/a	n/a	n/a	-999	1	[0, 0, 0]	n/a	catFR1	0	R1652A
571.628	0.003	583953	PROB	0.003	n/a	n/a	n/a	-999	1	[8, 8, 7]	24	catFR1	0	R1652A
571.631	0.0	583956	DISTRACT_START	n/a	n/a	n/a	n/a	-999	1	[0, 0, 0]	n/a	catFR1	0	R1652A
571.631	14.987	583956	START	n/a	n/a	n/a	n/a	-999	1	[-999, -999, -999]	n/a	catFR1	0	R1652A
586.618	6.641	598943	PROB	6.641	n/a	n/a	n/a	-999	1	[3, 6, 4]	13	catFR1	0	R1652A
593.259	0.0	605584	STOP	n/a	n/a	n/a	n/a	-999	1	[-999, -999, -999]	n/a	catFR1	0	R1652A
593.259	2.158	605585	DISTRACT_END	n/a	n/a	n/a	n/a	-999	1	[0, 0, 0]	n/a	catFR1	0	R1652A
595.417	4.002	607748	REC_START	n/a	n/a	n/a	n/a	-999	1	[0, 0, 0]	n/a	catFR1	0	R1652A
599.419	3.464	611744	REC_WORD	3.464	n/a	LOBSTER	OceanAnimals	2	1	[0, 0, 0]	n/a	catFR1	0	R1652A
602.883	3.434	615208	REC_WORD	3.434	n/a	HEN	FarmAnimals	3	1	[0, 0, 0]	n/a	catFR1	0	R1652A
606.317	1.814	618642	REC_WORD	1.814	n/a	DRESS	Clothing	5	1	[0, 0, 0]	n/a	catFR1	0	R1652A
608.131	10.733	620456	REC_WORD	10.733	n/a	BLOUSE	Clothing	6	1	[0, 0, 0]	n/a	catFR1	0	R1652A
618.864	1.0	631189	REC_WORD_VV	1.0	n/a	<>	n/a	-999	1	[0, 0, 0]	n/a	catFR1	0	R1652A
619.864	1.0	632189	REC_WORD_VV	1.0	n/a	<>	n/a	-999	1	[0, 0, 0]	n/a	catFR1	0	R1652A
620.864	2.537	633189	REC_WORD_VV	2.537	n/a	<>	n/a	-999	1	[0, 0, 0]	n/a	catFR1	0	R1652A
623.401	2.154	635726	REC_WORD_VV	2.154	n/a	<>	n/a	-999	1	[0, 0, 0]	n/a	catFR1	0	R1652A
625.555	52.321	637879	REC_END	n/a	n/a	n/a	n/a	-999	1	[0, 0, 0]	n/a	catFR1	0	R1652A
677.876	10.35	690204	COUNTDOWN_START	n/a	n/a	n/a	n/a	-999	2	[0, 0, 0]	n/a	catFR1	0	R1652A
688.226	0.0	700554	COUNTDOWN_END	n/a	n/a	n/a	n/a	-999	2	[0, 0, 0]	n/a	catFR1	0	R1652A
688.226	2.301	700554	ENCODING_START	n/a	n/a	n/a	n/a	-999	2	[0, 0, 0]	n/a	catFR1	0	R1652A
690.527	1.6	702849	WORD	n/a	wordpools/wordpool_categorized_EN.txt	PLANKTON	OceanAnimals	1	2	[0, 0, 0]	n/a	catFR1	0	R1652A
692.127	0.79	704450	WORD_OFF	n/a	n/a	PLANKTON	OceanAnimals	1	2	[0, 0, 0]	n/a	catFR1	0	R1652A
692.917	1.6	705239	WORD	n/a	wordpools/wordpool_categorized_EN.txt	WHALE	OceanAnimals	2	2	[0, 0, 0]	n/a	catFR1	0	R1652A
694.517	0.902	706841	WORD_OFF	n/a	n/a	WHALE	OceanAnimals	2	2	[0, 0, 0]	n/a	catFR1	0	R1652A
695.419	1.599	707749	WORD	n/a	wordpools/wordpool_categorized_EN.txt	PIGEON	Birds	3	2	[0, 0, 0]	n/a	catFR1	0	R1652A
697.018	0.992	709339	WORD_OFF	n/a	n/a	PIGEON	Birds	3	2	[0, 0, 0]	n/a	catFR1	0	R1652A
698.01	1.6	710331	WORD	n/a	wordpools/wordpool_categorized_EN.txt	CROW	Birds	4	2	[0, 0, 0]	n/a	catFR1	0	R1652A
699.61	0.849	711932	WORD_OFF	n/a	n/a	CROW	Birds	4	2	[0, 0, 0]	n/a	catFR1	0	R1652A
700.459	1.601	712781	WORD	n/a	wordpools/wordpool_categorized_EN.txt	TUBA	Instruments	5	2	[0, 0, 0]	n/a	catFR1	0	R1652A
702.06	0.815	714382	WORD_OFF	n/a	n/a	TUBA	Instruments	5	2	[0, 0, 0]	n/a	catFR1	0	R1652A
702.875	1.602	715195	WORD	n/a	wordpools/wordpool_categorized_EN.txt	VIOLIN	Instruments	6	2	[0, 0, 0]	n/a	catFR1	0	R1652A
704.477	0.798	716797	WORD_OFF	n/a	n/a	VIOLIN	Instruments	6	2	[0, 0, 0]	n/a	catFR1	0	R1652A
705.275	1.602	717597	WORD	n/a	wordpools/wordpool_categorized_EN.txt	FINCH	Birds	7	2	[0, 0, 0]	n/a	catFR1	0	R1652A
706.877	0.95	719199	WORD_OFF	n/a	n/a	FINCH	Birds	7	2	[0, 0, 0]	n/a	catFR1	0	R1652A
707.827	1.6	720155	WORD	n/a	wordpools/wordpool_categorized_EN.txt	HAWK	Birds	8	2	[0, 0, 0]	n/a	catFR1	0	R1652A
709.427	0.832	721757	WORD_OFF	n/a	n/a	HAWK	Birds	8	2	[0, 0, 0]	n/a	catFR1	0	R1652A
710.259	1.601	722581	WORD	n/a	wordpools/wordpool_categorized_EN.txt	FISH	OceanAnimals	9	2	[0, 0, 0]	n/a	catFR1	0	R1652A
711.86	0.867	724183	WORD_OFF	n/a	n/a	FISH	OceanAnimals	9	2	[0, 0, 0]	n/a	catFR1	0	R1652A
712.727	1.608	725055	WORD	n/a	wordpools/wordpool_categorized_EN.txt	OYSTER	OceanAnimals	10	2	[0, 0, 0]	n/a	catFR1	0	R1652A
714.335	0.875	726657	WORD_OFF	n/a	n/a	OYSTER	OceanAnimals	10	2	[0, 0, 0]	n/a	catFR1	0	R1652A
715.21	1.609	727529	WORD	n/a	wordpools/wordpool_categorized_EN.txt	TRUMPET	Instruments	11	2	[0, 0, 0]	n/a	catFR1	0	R1652A
716.819	0.915	729143	WORD_OFF	n/a	n/a	TRUMPET	Instruments	11	2	[0, 0, 0]	n/a	catFR1	0	R1652A
717.734	1.601	730063	WORD	n/a	wordpools/wordpool_categorized_EN.txt	BASS	Instruments	12	2	[0, 0, 0]	n/a	catFR1	0	R1652A
719.335	0.004	731660	PROB	0.004	n/a	n/a	n/a	-999	2	[3, 5, 6]	14	catFR1	0	R1652A
719.339	0.0	731664	START	n/a	n/a	n/a	n/a	-999	2	[-999, -999, -999]	n/a	catFR1	0	R1652A
719.335	0.004	731665	WORD_OFF	n/a	n/a	BASS	Instruments	12	2	[0, 0, 0]	n/a	catFR1	0	R1652A
719.339	0.0	731665	ENCODING_END	n/a	n/a	n/a	n/a	-999	2	[0, 0, 0]	n/a	catFR1	0	R1652A
719.339	5.655	731665	DISTRACT_START	n/a	n/a	n/a	n/a	-999	2	[0, 0, 0]	n/a	catFR1	0	R1652A
724.994	4.798	737319	PROB	4.798	n/a	n/a	n/a	-999	2	[7, 8, 3]	18	catFR1	0	R1652A
729.792	4.442	742116	PROB	4.442	n/a	n/a	n/a	-999	2	[8, 3, 1]	12	catFR1	0	R1652A
734.234	4.226	746558	PROB	4.226	n/a	n/a	n/a	-999	2	[3, 2, 7]	12	catFR1	0	R1652A
738.46	4.324	750784	PROB	4.324	n/a	n/a	n/a	-999	2	[4, 6, 4]	14	catFR1	0	R1652A
742.784	0.0	755108	STOP	n/a	n/a	n/a	n/a	-999	2	[-999, -999, -999]	n/a	catFR1	0	R1652A
742.784	2.009	755114	DISTRACT_END	n/a	n/a	n/a	n/a	-999	2	[0, 0, 0]	n/a	catFR1	0	R1652A
744.793	3.245	757122	REC_START	n/a	n/a	n/a	n/a	-999	2	[0, 0, 0]	n/a	catFR1	0	R1652A
748.038	2.574	760362	REC_WORD	2.574	n/a	PLANKTON	OceanAnimals	1	2	[0, 0, 0]	n/a	catFR1	0	R1652A
750.612	7.192	762936	REC_WORD	7.192	n/a	TUBA	Instruments	5	2	[0, 0, 0]	n/a	catFR1	0	R1652A
757.804	1.0	770128	REC_WORD_VV	1.0	n/a	<>	n/a	-999	2	[0, 0, 0]	n/a	catFR1	0	R1652A
758.804	1.0	771128	REC_WORD_VV	1.0	n/a	<>	n/a	-999	2	[0, 0, 0]	n/a	catFR1	0	R1652A
759.804	1.0	772128	REC_WORD_VV	1.0	n/a	<>	n/a	-999	2	[0, 0, 0]	n/a	catFR1	0	R1652A
760.804	1.0	773128	REC_WORD_VV	1.0	n/a	<>	n/a	-999	2	[0, 0, 0]	n/a	catFR1	0	R1652A
761.804	1.0	774128	REC_WORD_VV	1.0	n/a	<>	n/a	-999	2	[0, 0, 0]	n/a	catFR1	0	R1652A
762.804	1.0	775128	REC_WORD_VV	1.0	n/a	<>	n/a	-999	2	[0, 0, 0]	n/a	catFR1	0	R1652A
763.804	1.0	776128	REC_WORD_VV	1.0	n/a	<>	n/a	-999	2	[0, 0, 0]	n/a	catFR1	0	R1652A
764.804	1.0	777128	REC_WORD_VV	1.0	n/a	<>	n/a	-999	2	[0, 0, 0]	n/a	catFR1	0	R1652A
765.804	1.0	778128	REC_WORD_VV	1.0	n/a	<>	n/a	-999	2	[0, 0, 0]	n/a	catFR1	0	R1652A
766.804	1.0	779128	REC_WORD_VV	1.0	n/a	<>	n/a	-999	2	[0, 0, 0]	n/a	catFR1	0	R1652A
767.804	1.0	780128	REC_WORD_VV	1.0	n/a	<>	n/a	-999	2	[0, 0, 0]	n/a	catFR1	0	R1652A
768.804	1.0	781128	REC_WORD_VV	1.0	n/a	<>	n/a	-999	2	[0, 0, 0]	n/a	catFR1	0	R1652A
769.804	1.0	782128	REC_WORD_VV	1.0	n/a	<>	n/a	-999	2	[0, 0, 0]	n/a	catFR1	0	R1652A
770.804	1.0	783128	REC_WORD_VV	1.0	n/a	<>	n/a	-999	2	[0, 0, 0]	n/a	catFR1	0	R1652A
771.804	1.0	784128	REC_WORD_VV	1.0	n/a	<>	n/a	-999	2	[0, 0, 0]	n/a	catFR1	0	R1652A
772.804	1.0	785128	REC_WORD_VV	1.0	n/a	<>	n/a	-999	2	[0, 0, 0]	n/a	catFR1	0	R1652A
773.804	0.997	786128	REC_WORD_VV	0.997	n/a	<>	n/a	-999	2	[0, 0, 0]	n/a	catFR1	0	R1652A
774.801	0.136	787125	REC_WORD_VV	0.136	n/a	<>	n/a	-999	2	[0, 0, 0]	n/a	catFR1	0	R1652A
774.937	162.348	787264	REC_END	n/a	n/a	n/a	n/a	-999	2	[0, 0, 0]	n/a	catFR1	0	R1652A
937.285	10.341	949606	COUNTDOWN_START	n/a	n/a	n/a	n/a	-999	3	[0, 0, 0]	n/a	catFR1	0	R1652A
947.626	0.0	959944	COUNTDOWN_END	n/a	n/a	n/a	n/a	-999	3	[0, 0, 0]	n/a	catFR1	0	R1652A
947.626	2.083	959956	ENCODING_START	n/a	n/a	n/a	n/a	-999	3	[0, 0, 0]	n/a	catFR1	0	R1652A
949.709	1.601	962036	WORD	n/a	wordpools/wordpool_categorized_EN.txt	GLUE	OfficeSupplies	1	3	[0, 0, 0]	n/a	catFR1	0	R1652A
951.31	0.974	963637	WORD_OFF	n/a	n/a	GLUE	OfficeSupplies	1	3	[0, 0, 0]	n/a	catFR1	0	R1652A
952.284	1.6	964605	WORD	n/a	wordpools/wordpool_categorized_EN.txt	TAPE	OfficeSupplies	2	3	[0, 0, 0]	n/a	catFR1	0	R1652A
953.884	0.944	966207	WORD_OFF	n/a	n/a	TAPE	OfficeSupplies	2	3	[0, 0, 0]	n/a	catFR1	0	R1652A
954.828	1.6	967151	WORD	n/a	wordpools/wordpool_categorized_EN.txt	CABINET	Furniture	3	3	[0, 0, 0]	n/a	catFR1	0	R1652A
956.428	0.983	968752	WORD_OFF	n/a	n/a	CABINET	Furniture	3	3	[0, 0, 0]	n/a	catFR1	0	R1652A
957.411	1.607	969733	WORD	n/a	wordpools/wordpool_categorized_EN.txt	BOOKCASE	Furniture	4	3	[0, 0, 0]	n/a	catFR1	0	R1652A
959.018	0.783	971346	WORD_OFF	n/a	n/a	BOOKCASE	Furniture	4	3	[0, 0, 0]	n/a	catFR1	0	R1652A
959.801	1.602	972123	WORD	n/a	wordpools/wordpool_categorized_EN.txt	ROOSTER	FarmAnimals	5	3	[0, 0, 0]	n/a	catFR1	0	R1652A
961.403	0.789	973724	WORD_OFF	n/a	n/a	ROOSTER	FarmAnimals	5	3	[0, 0, 0]	n/a	catFR1	0	R1652A
962.192	1.601	974513	WORD	n/a	wordpools/wordpool_categorized_EN.txt	CHICKEN	FarmAnimals	6	3	[0, 0, 0]	n/a	catFR1	0	R1652A
963.793	0.959	976115	WORD_OFF	n/a	n/a	CHICKEN	FarmAnimals	6	3	[0, 0, 0]	n/a	catFR1	0	R1652A
964.752	1.609	977071	WORD	n/a	wordpools/wordpool_categorized_EN.txt	PENCIL	OfficeSupplies	7	3	[0, 0, 0]	n/a	catFR1	0	R1652A
966.361	0.881	978684	WORD_OFF	n/a	n/a	PENCIL	OfficeSupplies	7	3	[0, 0, 0]	n/a	catFR1	0	R1652A
967.242	1.602	979569	WORD	n/a	wordpools/wordpool_categorized_EN.txt	MARKER	OfficeSupplies	8	3	[0, 0, 0]	n/a	catFR1	0	R1652A
968.844	0.842	981170	WORD_OFF	n/a	n/a	MARKER	OfficeSupplies	8	3	[0, 0, 0]	n/a	catFR1	0	R1652A
969.686	1.6	982007	WORD	n/a	wordpools/wordpool_categorized_EN.txt	BULL	FarmAnimals	9	3	[0, 0, 0]	n/a	catFR1	0	R1652A
971.286	0.765	983609	WORD_OFF	n/a	n/a	BULL	FarmAnimals	9	3	[0, 0, 0]	n/a	catFR1	0	R1652A
972.051	1.601	984373	WORD	n/a	wordpools/wordpool_categorized_EN.txt	CALF	FarmAnimals	10	3	[0, 0, 0]	n/a	catFR1	0	R1652A
973.652	0.876	985975	WORD_OFF	n/a	n/a	CALF	FarmAnimals	10	3	[0, 0, 0]	n/a	catFR1	0	R1652A
974.528	1.606	986848	WORD	n/a	wordpools/wordpool_categorized_EN.txt	SOFA	Furniture	11	3	[0, 0, 0]	n/a	catFR1	0	R1652A
976.134	0.935	988461	WORD_OFF	n/a	n/a	SOFA	Furniture	11	3	[0, 0, 0]	n/a	catFR1	0	R1652A
977.069	1.601	989393	WORD	n/a	wordpools/wordpool_categorized_EN.txt	DESK	Furniture	12	3	[0, 0, 0]	n/a	catFR1	0	R1652A
978.67	0.0	990994	PROB	0.0	n/a	n/a	n/a	-999	3	[7, 8, 1]	16	catFR1	0	R1652A
978.669	0.004	990995	WORD_OFF	n/a	n/a	DESK	Furniture	12	3	[0, 0, 0]	n/a	catFR1	0	R1652A
978.673	0.0	990995	ENCODING_END	n/a	n/a	n/a	n/a	-999	3	[0, 0, 0]	n/a	catFR1	0	R1652A
978.673	0.0	990995	DISTRACT_START	n/a	n/a	n/a	n/a	-999	3	[0, 0, 0]	n/a	catFR1	0	R1652A
978.673	5.662	990997	START	n/a	n/a	n/a	n/a	-999	3	[-999, -999, -999]	n/a	catFR1	0	R1652A
984.335	5.693	996658	PROB	5.693	n/a	n/a	n/a	-999	3	[5, 2, 8]	15	catFR1	0	R1652A
990.028	4.59	1002351	PROB	4.59	n/a	n/a	n/a	-999	3	[8, 7, 3]	18	catFR1	0	R1652A
994.618	4.609	1006941	PROB	4.609	n/a	n/a	n/a	-999	3	[5, 8, 1]	14	catFR1	0	R1652A
999.227	0.0	1011550	STOP	n/a	n/a	n/a	n/a	-999	3	[-999, -999, -999]	n/a	catFR1	0	R1652A
999.227	2.251	1011552	DISTRACT_END	n/a	n/a	n/a	n/a	-999	3	[0, 0, 0]	n/a	catFR1	0	R1652A
1001.478	1.069	1013799	REC_START	n/a	n/a	n/a	n/a	-999	3	[0, 0, 0]	n/a	catFR1	0	R1652A
1002.547	2.153	1014870	REC_WORD	2.153	n/a	GLUE	OfficeSupplies	1	3	[0, 0, 0]	n/a	catFR1	0	R1652A
1004.7	2.348	1017023	REC_WORD	2.348	n/a	TAPE	OfficeSupplies	2	3	[0, 0, 0]	n/a	catFR1	0	R1652A
1007.048	3.711	1019371	REC_WORD	3.711	n/a	DESK	Furniture	12	3	[0, 0, 0]	n/a	catFR1	0	R1652A
1010.759	3.383	1023082	REC_WORD	3.383	n/a	CABINET	Furniture	3	3	[0, 0, 0]	n/a	catFR1	0	R1652A
1014.142	11.241	1026465	REC_WORD	11.241	n/a	BOOKCASE	Furniture	4	3	[0, 0, 0]	n/a	catFR1	0	R1652A
1025.383	4.088	1037706	REC_WORD_VV	4.088	n/a	<>	n/a	-999	3	[0, 0, 0]	n/a	catFR1	0	R1652A
1029.471	1.0	1041794	REC_WORD_VV	1.0	n/a	<>	n/a	-999	3	[0, 0, 0]	n/a	catFR1	0	R1652A
1030.471	1.151	1042794	REC_WORD_VV	1.151	n/a	<>	n/a	-999	3	[0, 0, 0]	n/a	catFR1	0	R1652A
1031.622	96.954	1043941	REC_END	n/a	n/a	n/a	n/a	-999	3	[0, 0, 0]	n/a	catFR1	0	R1652A
1128.576	10.342	1140906	COUNTDOWN_START	n/a	n/a	n/a	n/a	-999	4	[0, 0, 0]	n/a	catFR1	0	R1652A
1138.918	0.0	1151244	COUNTDOWN_END	n/a	n/a	n/a	n/a	-999	4	[0, 0, 0]	n/a	catFR1	0	R1652A
1138.918	2.051	1151244	ENCODING_START	n/a	n/a	n/a	n/a	-999	4	[0, 0, 0]	n/a	catFR1	0	R1652A
1140.969	1.607	1153288	WORD	n/a	wordpools/wordpool_categorized_EN.txt	COW	FarmAnimals	1	4	[0, 0, 0]	n/a	catFR1	0	R1652A
1142.576	0.918	1154902	WORD_OFF	n/a	n/a	COW	FarmAnimals	1	4	[0, 0, 0]	n/a	catFR1	0	R1652A
1143.494	1.609	1155822	WORD	n/a	wordpools/wordpool_categorized_EN.txt	PIG	FarmAnimals	2	4	[0, 0, 0]	n/a	catFR1	0	R1652A
1145.103	0.891	1157424	WORD_OFF	n/a	n/a	PIG	FarmAnimals	2	4	[0, 0, 0]	n/a	catFR1	0	R1652A
1145.994	1.6	1158320	WORD	n/a	wordpools/wordpool_categorized_EN.txt	SHIRT	Clothing	3	4	[0, 0, 0]	n/a	catFR1	0	R1652A
1147.594	0.865	1159921	WORD_OFF	n/a	n/a	SHIRT	Clothing	3	4	[0, 0, 0]	n/a	catFR1	0	R1652A
1148.459	1.602	1160782	WORD	n/a	wordpools/wordpool_categorized_EN.txt	PANTS	Clothing	4	4	[0, 0, 0]	n/a	catFR1	0	R1652A
1150.061	0.9	1162384	WORD_OFF	n/a	n/a	PANTS	Clothing	4	4	[0, 0, 0]	n/a	catFR1	0	R1652A
1150.961	1.608	1163280	WORD	n/a	wordpools/wordpool_categorized_EN.txt	DOOR	Building	5	4	[0, 0, 0]	n/a	catFR1	0	R1652A
1152.569	0.765	1164893	WORD_OFF	n/a	n/a	DOOR	Building	5	4	[0, 0, 0]	n/a	catFR1	0	R1652A
1153.334	1.602	1165658	WORD	n/a	wordpools/wordpool_categorized_EN.txt	FOUNDATION	Building	6	4	[0, 0, 0]	n/a	catFR1	0	R1652A
1154.936	0.975	1167260	WORD_OFF	n/a	n/a	FOUNDATION	Building	6	4	[0, 0, 0]	n/a	catFR1	0	R1652A
1155.911	1.609	1168240	WORD	n/a	wordpools/wordpool_categorized_EN.txt	HORSE	FarmAnimals	7	4	[0, 0, 0]	n/a	catFR1	0	R1652A
1157.52	0.791	1169841	WORD_OFF	n/a	n/a	HORSE	FarmAnimals	7	4	[0, 0, 0]	n/a	catFR1	0	R1652A
1158.311	1.611	1170630	WORD	n/a	wordpools/wordpool_categorized_EN.txt	GOAT	FarmAnimals	8	4	[0, 0, 0]	n/a	catFR1	0	R1652A
1159.922	0.789	1172244	WORD_OFF	n/a	n/a	GOAT	FarmAnimals	8	4	[0, 0, 0]	n/a	catFR1	0	R1652A
1160.711	1.608	1173033	WORD	n/a	wordpools/wordpool_categorized_EN.txt	SHORTS	Clothing	9	4	[0, 0, 0]	n/a	catFR1	0	R1652A
1162.319	0.817	1174646	WORD_OFF	n/a	n/a	SHORTS	Clothing	9	4	[0, 0, 0]	n/a	catFR1	0	R1652A
1163.136	1.609	1175459	WORD	n/a	wordpools/wordpool_categorized_EN.txt	JEANS	Clothing	10	4	[0, 0, 0]	n/a	catFR1	0	R1652A
1164.745	0.848	1177072	WORD_OFF	n/a	n/a	JEANS	Clothing	10	4	[0, 0, 0]	n/a	catFR1	0	R1652A
1165.593	1.601	1177921	WORD	n/a	wordpools/wordpool_categorized_EN.txt	ROOM	Building	11	4	[0, 0, 0]	n/a	catFR1	0	R1652A
1167.194	0.965	1179522	WORD_OFF	n/a	n/a	ROOM	Building	11	4	[0, 0, 0]	n/a	catFR1	0	R1652A
1168.159	1.602	1180479	WORD	n/a	wordpools/wordpool_categorized_EN.txt	HALLWAY	Building	12	4	[0, 0, 0]	n/a	catFR1	0	R1652A
1169.761	0.0	1182080	WORD_OFF	n/a	n/a	HALLWAY	Building	12	4	[0, 0, 0]	n/a	catFR1	0	R1652A
1169.761	0.004	1182084	PROB	0.004	n/a	n/a	n/a	-999	4	[1, 7, 5]	13	catFR1	0	R1652A
1169.765	0.0	1182088	START	n/a	n/a	n/a	n/a	-999	4	[-999, -999, -999]	n/a	catFR1	0	R1652A
1169.765	0.0	1182092	ENCODING_END	n/a	n/a	n/a	n/a	-999	4	[0, 0, 0]	n/a	catFR1	0	R1652A
1169.765	6.829	1182092	DISTRACT_START	n/a	n/a	n/a	n/a	-999	4	[0, 0, 0]	n/a	catFR1	0	R1652A
1176.594	5.166	1188917	PROB	5.166	n/a	n/a	n/a	-999	4	[5, 3, 1]	9	catFR1	0	R1652A
1181.76	3.759	1194083	PROB	3.759	n/a	n/a	n/a	-999	4	[8, 1, 2]	11	catFR1	0	R1652A
1185.519	3.658	1197842	PROB	3.658	n/a	n/a	n/a	-999	4	[1, 4, 2]	7	catFR1	0	R1652A
1189.177	5.575	1201500	PROB	5.575	n/a	n/a	n/a	-999	4	[8, 2, 5]	15	catFR1	0	R1652A
1194.752	0.0	1207071	DISTRACT_END	n/a	n/a	n/a	n/a	-999	4	[0, 0, 0]	n/a	catFR1	0	R1652A
1194.752	2.025	1207075	STOP	n/a	n/a	n/a	n/a	-999	4	[-999, -999, -999]	n/a	catFR1	0	R1652A
1196.777	0.512	1209103	REC_START	n/a	n/a	n/a	n/a	-999	4	[0, 0, 0]	n/a	catFR1	0	R1652A
1197.289	1.921	1209612	REC_WORD	1.921	n/a	COW	FarmAnimals	1	4	[0, 0, 0]	n/a	catFR1	0	R1652A
1199.21	1.811	1211533	REC_WORD	1.811	n/a	PIG	FarmAnimals	2	4	[0, 0, 0]	n/a	catFR1	0	R1652A
1201.021	2.299	1213344	REC_WORD	2.299	n/a	HORSE	FarmAnimals	7	4	[0, 0, 0]	n/a	catFR1	0	R1652A
1203.32	3.922	1215643	REC_WORD	3.922	n/a	SHORTS	Clothing	9	4	[0, 0, 0]	n/a	catFR1	0	R1652A
1207.242	4.578	1219565	REC_WORD	4.578	n/a	HALLWAY	Building	12	4	[0, 0, 0]	n/a	catFR1	0	R1652A
1211.82	5.05	1224143	REC_WORD	5.05	n/a	PANTS	Clothing	4	4	[0, 0, 0]	n/a	catFR1	0	R1652A
1216.87	2.587	1229193	REC_WORD	2.587	n/a	DOOR	Building	5	4	[0, 0, 0]	n/a	catFR1	0	R1652A
1219.457	7.458	1231780	REC_WORD	7.458	n/a	GOAT	FarmAnimals	8	4	[0, 0, 0]	n/a	catFR1	0	R1652A
1226.915	19.261	1239234	REC_END	n/a	n/a	n/a	n/a	-999	4	[0, 0, 0]	n/a	catFR1	0	R1652A
1246.176	10.342	1258500	COUNTDOWN_START	n/a	n/a	n/a	n/a	-999	5	[0, 0, 0]	n/a	catFR1	0	R1652A
1256.518	0.0	1268838	COUNTDOWN_END	n/a	n/a	n/a	n/a	-999	5	[0, 0, 0]	n/a	catFR1	0	R1652A
1256.518	2.242	1268838	ENCODING_START	n/a	n/a	n/a	n/a	-999	5	[0, 0, 0]	n/a	catFR1	0	R1652A
1258.76	1.608	1271085	WORD	n/a	wordpools/wordpool_categorized_EN.txt	FOG	Weather	1	5	[0, 0, 0]	n/a	catFR1	0	R1652A
1260.368	0.918	1272687	WORD_OFF	n/a	n/a	FOG	Weather	1	5	[0, 0, 0]	n/a	catFR1	0	R1652A
1261.286	1.608	1273607	WORD	n/a	wordpools/wordpool_categorized_EN.txt	RAIN	Weather	2	5	[0, 0, 0]	n/a	catFR1	0	R1652A
1262.894	0.775	1275220	WORD_OFF	n/a	n/a	RAIN	Weather	2	5	[0, 0, 0]	n/a	catFR1	0	R1652A
1263.669	1.6	1275997	WORD	n/a	wordpools/wordpool_categorized_EN.txt	DAISY	Flowers	3	5	[0, 0, 0]	n/a	catFR1	0	R1652A
1265.269	0.825	1277587	WORD_OFF	n/a	n/a	DAISY	Flowers	3	5	[0, 0, 0]	n/a	catFR1	0	R1652A
1266.094	1.6	1278412	WORD	n/a	wordpools/wordpool_categorized_EN.txt	LILAC	Flowers	4	5	[0, 0, 0]	n/a	catFR1	0	R1652A
1267.694	0.759	1280013	WORD_OFF	n/a	n/a	LILAC	Flowers	4	5	[0, 0, 0]	n/a	catFR1	0	R1652A
1268.453	1.608	1280778	WORD	n/a	wordpools/wordpool_categorized_EN.txt	COLA	Beverages	5	5	[0, 0, 0]	n/a	catFR1	0	R1652A
1270.061	0.95	1282380	WORD_OFF	n/a	n/a	COLA	Beverages	5	5	[0, 0, 0]	n/a	catFR1	0	R1652A
1271.011	1.608	1283336	WORD	n/a	wordpools/wordpool_categorized_EN.txt	LEMONADE	Beverages	6	5	[0, 0, 0]	n/a	catFR1	0	R1652A
1272.619	0.915	1284937	WORD_OFF	n/a	n/a	LEMONADE	Beverages	6	5	[0, 0, 0]	n/a	catFR1	0	R1652A
1273.534	1.602	1285858	WORD	n/a	wordpools/wordpool_categorized_EN.txt	ROSE	Flowers	7	5	[0, 0, 0]	n/a	catFR1	0	R1652A
1275.136	0.981	1287459	WORD_OFF	n/a	n/a	ROSE	Flowers	7	5	[0, 0, 0]	n/a	catFR1	0	R1652A
1276.117	1.602	1288439	WORD	n/a	wordpools/wordpool_categorized_EN.txt	PETUNIA	Flowers	8	5	[0, 0, 0]	n/a	catFR1	0	R1652A
1277.719	0.917	1290041	WORD_OFF	n/a	n/a	PETUNIA	Flowers	8	5	[0, 0, 0]	n/a	catFR1	0	R1652A
1278.636	1.609	1290961	WORD	n/a	wordpools/wordpool_categorized_EN.txt	TEA	Beverages	9	5	[0, 0, 0]	n/a	catFR1	0	R1652A
1280.245	0.79	1292563	WORD_OFF	n/a	n/a	TEA	Beverages	9	5	[0, 0, 0]	n/a	catFR1	0	R1652A
1281.035	1.609	1293363	WORD	n/a	wordpools/wordpool_categorized_EN.txt	WATER	Beverages	10	5	[0, 0, 0]	n/a	catFR1	0	R1652A
1282.644	0.815	1294965	WORD_OFF	n/a	n/a	WATER	Beverages	10	5	[0, 0, 0]	n/a	catFR1	0	R1652A
1283.459	1.611	1295778	WORD	n/a	wordpools/wordpool_categorized_EN.txt	THUNDERSTORM	Weather	11	5	[0, 0, 0]	n/a	catFR1	0	R1652A
1285.07	0.982	1297391	WORD_OFF	n/a	n/a	THUNDERSTORM	Weather	11	5	[0, 0, 0]	n/a	catFR1	0	R1652A
1286.052	1.609	1298371	WORD	n/a	wordpools/wordpool_categorized_EN.txt	HURRICANE	Weather	12	5	[0, 0, 0]	n/a	catFR1	0	R1652A
1287.661	0.0	1299983	PROB	0.0	n/a	n/a	n/a	-999	5	[8, 6, 6]	20	catFR1	0	R1652A
1287.661	0.004	1299985	WORD_OFF	n/a	n/a	HURRICANE	Weather	12	5	[0, 0, 0]	n/a	catFR1	0	R1652A
1287.665	0.0	1299985	ENCODING_END	n/a	n/a	n/a	n/a	-999	5	[0, 0, 0]	n/a	catFR1	0	R1652A
1287.665	0.0	1299985	DISTRACT_START	n/a	n/a	n/a	n/a	-999	5	[0, 0, 0]	n/a	catFR1	0	R1652A
1287.665	5.795	1299987	START	n/a	n/a	n/a	n/a	-999	5	[-999, -999, -999]	n/a	catFR1	0	R1652A
1293.46	3.583	1305782	PROB	3.583	n/a	n/a	n/a	-999	5	[1, 1, 5]	7	catFR1	0	R1652A
1297.043	6.467	1309365	PROB	6.467	n/a	n/a	n/a	-999	5	[4, 5, 6]	16	catFR1	0	R1652A
1303.51	5.774	1315832	PROB	5.774	n/a	n/a	n/a	-999	5	[4, 6, 6]	16	catFR1	0	R1652A
1309.284	0.0	1321605	DISTRACT_END	n/a	n/a	n/a	n/a	-999	5	[0, 0, 0]	n/a	catFR1	0	R1652A
1309.284	2.144	1321606	STOP	n/a	n/a	n/a	n/a	-999	5	[-999, -999, -999]	n/a	catFR1	0	R1652A
1311.428	0.812	1323745	REC_START	n/a	n/a	n/a	n/a	-999	5	[0, 0, 0]	n/a	catFR1	0	R1652A
1312.24	1.742	1324562	REC_WORD	1.742	n/a	FOG	Weather	1	5	[0, 0, 0]	n/a	catFR1	0	R1652A
1313.982	2.226	1326304	REC_WORD	2.226	n/a	RAIN	Weather	2	5	[0, 0, 0]	n/a	catFR1	0	R1652A
1316.208	2.227	1328530	REC_WORD	2.227	n/a	DAISY	Flowers	3	5	[0, 0, 0]	n/a	catFR1	0	R1652A
1318.435	2.531	1330757	REC_WORD	2.531	n/a	PETUNIA	Flowers	8	5	[0, 0, 0]	n/a	catFR1	0	R1652A
1320.966	2.685	1333288	REC_WORD	2.685	n/a	ROSE	Flowers	7	5	[0, 0, 0]	n/a	catFR1	0	R1652A
1323.651	2.814	1335973	REC_WORD	2.814	n/a	THUNDERSTORM	Weather	11	5	[0, 0, 0]	n/a	catFR1	0	R1652A
1326.465	2.256	1338787	REC_WORD	2.256	n/a	COLA	Beverages	5	5	[0, 0, 0]	n/a	catFR1	0	R1652A
1328.721	2.486	1341043	REC_WORD	2.486	n/a	LEMONADE	Beverages	6	5	[0, 0, 0]	n/a	catFR1	0	R1652A
1331.207	2.995	1343529	REC_WORD	2.995	n/a	WATER	Beverages	10	5	[0, 0, 0]	n/a	catFR1	0	R1652A
1334.202	7.372	1346524	REC_WORD	7.372	n/a	HURRICANE	Weather	12	5	[0, 0, 0]	n/a	catFR1	0	R1652A
1341.574	5.527	1353899	REC_END	n/a	n/a	n/a	n/a	-999	5	[0, 0, 0]	n/a	catFR1	0	R1652A
1347.101	10.342	1359421	COUNTDOWN_START	n/a	n/a	n/a	n/a	-999	6	[0, 0, 0]	n/a	catFR1	0	R1652A
1357.443	0.0	1369759	COUNTDOWN_END	n/a	n/a	n/a	n/a	-999	6	[0, 0, 0]	n/a	catFR1	0	R1652A
1357.443	2.185	1369771	ENCODING_START	n/a	n/a	n/a	n/a	-999	6	[0, 0, 0]	n/a	catFR1	0	R1652A
1359.628	1.608	1371946	WORD	n/a	wordpools/wordpool_categorized_EN.txt	DRILL	Tools	1	6	[0, 0, 0]	n/a	catFR1	0	R1652A
1361.236	0.974	1373560	WORD_OFF	n/a	n/a	DRILL	Tools	1	6	[0, 0, 0]	n/a	catFR1	0	R1652A
1362.21	1.6	1374528	WORD	n/a	wordpools/wordpool_categorized_EN.txt	RATCHET	Tools	2	6	[0, 0, 0]	n/a	catFR1	0	R1652A
1363.81	0.992	1376130	WORD_OFF	n/a	n/a	RATCHET	Tools	2	6	[0, 0, 0]	n/a	catFR1	0	R1652A
1364.802	1.608	1377122	WORD	n/a	wordpools/wordpool_categorized_EN.txt	DRUM	Instruments	3	6	[0, 0, 0]	n/a	catFR1	0	R1652A
1366.41	0.984	1378735	WORD_OFF	n/a	n/a	DRUM	Instruments	3	6	[0, 0, 0]	n/a	catFR1	0	R1652A
1367.394	1.609	1379715	WORD	n/a	wordpools/wordpool_categorized_EN.txt	FLUTE	Instruments	4	6	[0, 0, 0]	n/a	catFR1	0	R1652A
1369.003	0.858	1381329	WORD_OFF	n/a	n/a	FLUTE	Instruments	4	6	[0, 0, 0]	n/a	catFR1	0	R1652A
1369.861	1.607	1382188	WORD	n/a	wordpools/wordpool_categorized_EN.txt	ISLAND	Landscapes	5	6	[0, 0, 0]	n/a	catFR1	0	R1652A
1371.468	0.926	1383791	WORD_OFF	n/a	n/a	ISLAND	Landscapes	5	6	[0, 0, 0]	n/a	catFR1	0	R1652A
1372.394	1.607	1384711	WORD	n/a	wordpools/wordpool_categorized_EN.txt	CREEK	Landscapes	6	6	[0, 0, 0]	n/a	catFR1	0	R1652A
1374.001	1.0	1386324	WORD_OFF	n/a	n/a	CREEK	Landscapes	6	6	[0, 0, 0]	n/a	catFR1	0	R1652A
1375.001	1.602	1387328	WORD	n/a	wordpools/wordpool_categorized_EN.txt	BANJO	Instruments	7	6	[0, 0, 0]	n/a	catFR1	0	R1652A
1376.603	0.916	1388930	WORD_OFF	n/a	n/a	BANJO	Instruments	7	6	[0, 0, 0]	n/a	catFR1	0	R1652A
1377.519	1.607	1389838	WORD	n/a	wordpools/wordpool_categorized_EN.txt	CELLO	Instruments	8	6	[0, 0, 0]	n/a	catFR1	0	R1652A
1379.126	0.976	1391452	WORD_OFF	n/a	n/a	CELLO	Instruments	8	6	[0, 0, 0]	n/a	catFR1	0	R1652A
1380.102	1.607	1392420	WORD	n/a	wordpools/wordpool_categorized_EN.txt	SANDER	Tools	9	6	[0, 0, 0]	n/a	catFR1	0	R1652A
1381.709	0.917	1394033	WORD_OFF	n/a	n/a	SANDER	Tools	9	6	[0, 0, 0]	n/a	catFR1	0	R1652A
1382.626	1.6	1394942	WORD	n/a	wordpools/wordpool_categorized_EN.txt	SHOVEL	Tools	10	6	[0, 0, 0]	n/a	catFR1	0	R1652A
1384.226	0.891	1396543	WORD_OFF	n/a	n/a	SHOVEL	Tools	10	6	[0, 0, 0]	n/a	catFR1	0	R1652A
1385.117	1.611	1397440	WORD	n/a	wordpools/wordpool_categorized_EN.txt	VALLEY	Landscapes	11	6	[0, 0, 0]	n/a	catFR1	0	R1652A
1386.728	0.758	1399053	WORD_OFF	n/a	n/a	VALLEY	Landscapes	11	6	[0, 0, 0]	n/a	catFR1	0	R1652A
1387.486	1.6	1399806	WORD	n/a	wordpools/wordpool_categorized_EN.txt	OCEAN	Landscapes	12	6	[0, 0, 0]	n/a	catFR1	0	R1652A
1389.086	0.003	1401408	WORD_OFF	n/a	n/a	OCEAN	Landscapes	12	6	[0, 0, 0]	n/a	catFR1	0	R1652A
1389.089	0.0	1401408	ENCODING_END	n/a	n/a	n/a	n/a	-999	6	[0, 0, 0]	n/a	catFR1	0	R1652A
1389.086	0.003	1401408	PROB	0.003	n/a	n/a	n/a	-999	6	[7, 6, 2]	15	catFR1	0	R1652A
1389.089	0.0	1401411	START	n/a	n/a	n/a	n/a	-999	6	[-999, -999, -999]	n/a	catFR1	0	R1652A
1389.089	5.871	1401420	DISTRACT_START	n/a	n/a	n/a	n/a	-999	6	[0, 0, 0]	n/a	catFR1	0	R1652A
1394.96	3.76	1407282	PROB	3.76	n/a	n/a	n/a	-999	6	[1, 2, 1]	4	catFR1	0	R1652A
1398.72	6.257	1411042	PROB	6.257	n/a	n/a	n/a	-999	6	[7, 6, 5]	18	catFR1	0	R1652A
1404.977	4.641	1417299	PROB	4.641	n/a	n/a	n/a	-999	6	[4, 1, 8]	13	catFR1	0	R1652A
1409.618	0.0	1421940	STOP	n/a	n/a	n/a	n/a	-999	6	[-999, -999, -999]	n/a	catFR1	0	R1652A
1409.618	2.051	1421941	DISTRACT_END	n/a	n/a	n/a	n/a	-999	6	[0, 0, 0]	n/a	catFR1	0	R1652A
1411.669	0.728	1423996	REC_START	n/a	n/a	n/a	n/a	-999	6	[0, 0, 0]	n/a	catFR1	0	R1652A
1412.397	1.919	1424719	REC_WORD	1.919	n/a	DRUM	Instruments	3	6	[0, 0, 0]	n/a	catFR1	0	R1652A
1414.316	2.089	1426638	REC_WORD	2.089	n/a	CELLO	Instruments	8	6	[0, 0, 0]	n/a	catFR1	0	R1652A
1416.405	2.601	1428727	REC_WORD	2.601	n/a	ISLAND	Landscapes	5	6	[0, 0, 0]	n/a	catFR1	0	R1652A
1419.006	22.809	1431328	REC_WORD	22.809	n/a	RATCHET	Tools	2	6	[0, 0, 0]	n/a	catFR1	0	R1652A
1441.815	16.486	1454139	REC_END	n/a	n/a	n/a	n/a	-999	6	[0, 0, 0]	n/a	catFR1	0	R1652A
1458.301	10.342	1470620	COUNTDOWN_START	n/a	n/a	n/a	n/a	-999	7	[0, 0, 0]	n/a	catFR1	0	R1652A
1468.643	0.0	1480959	COUNTDOWN_END	n/a	n/a	n/a	n/a	-999	7	[0, 0, 0]	n/a	catFR1	0	R1652A
1468.643	2.233	1480971	ENCODING_START	n/a	n/a	n/a	n/a	-999	7	[0, 0, 0]	n/a	catFR1	0	R1652A
1470.876	1.6	1483194	WORD	n/a	wordpools/wordpool_categorized_EN.txt	KNIFE	KitchenTools	1	7	[0, 0, 0]	n/a	catFR1	0	R1652A
1472.476	0.985	1484795	WORD_OFF	n/a	n/a	KNIFE	KitchenTools	1	7	[0, 0, 0]	n/a	catFR1	0	R1652A
1473.461	1.599	1485787	WORD	n/a	wordpools/wordpool_categorized_EN.txt	COLANDER	KitchenTools	2	7	[0, 0, 0]	n/a	catFR1	0	R1652A
1475.06	0.984	1487377	WORD_OFF	n/a	n/a	COLANDER	KitchenTools	2	7	[0, 0, 0]	n/a	catFR1	0	R1652A
1476.044	1.609	1488369	WORD	n/a	wordpools/wordpool_categorized_EN.txt	CIDER	Beverages	3	7	[0, 0, 0]	n/a	catFR1	0	R1652A
1477.653	0.932	1489970	WORD_OFF	n/a	n/a	CIDER	Beverages	3	7	[0, 0, 0]	n/a	catFR1	0	R1652A
1478.585	1.609	1490903	WORD	n/a	wordpools/wordpool_categorized_EN.txt	JUICE	Beverages	4	7	[0, 0, 0]	n/a	catFR1	0	R1652A
1480.194	0.792	1492516	WORD_OFF	n/a	n/a	JUICE	Beverages	4	7	[0, 0, 0]	n/a	catFR1	0	R1652A
1480.986	1.607	1493305	WORD	n/a	wordpools/wordpool_categorized_EN.txt	ATTIC	Building	5	7	[0, 0, 0]	n/a	catFR1	0	R1652A
1482.593	0.825	1494918	WORD_OFF	n/a	n/a	ATTIC	Building	5	7	[0, 0, 0]	n/a	catFR1	0	R1652A
1483.418	1.61	1495743	WORD	n/a	wordpools/wordpool_categorized_EN.txt	CEILING	Building	6	7	[0, 0, 0]	n/a	catFR1	0	R1652A
1485.028	0.898	1497345	WORD_OFF	n/a	n/a	CEILING	Building	6	7	[0, 0, 0]	n/a	catFR1	0	R1652A
1485.926	1.61	1498253	WORD	n/a	wordpools/wordpool_categorized_EN.txt	WHISK	KitchenTools	7	7	[0, 0, 0]	n/a	catFR1	0	R1652A
1487.536	0.958	1499855	WORD_OFF	n/a	n/a	WHISK	KitchenTools	7	7	[0, 0, 0]	n/a	catFR1	0	R1652A
1488.494	1.609	1500811	WORD	n/a	wordpools/wordpool_categorized_EN.txt	TONGS	KitchenTools	8	7	[0, 0, 0]	n/a	catFR1	0	R1652A
1490.103	0.915	1502424	WORD_OFF	n/a	n/a	TONGS	KitchenTools	8	7	[0, 0, 0]	n/a	catFR1	0	R1652A
1491.018	1.6	1503344	WORD	n/a	wordpools/wordpool_categorized_EN.txt	RUM	Beverages	9	7	[0, 0, 0]	n/a	catFR1	0	R1652A
1492.618	0.817	1504934	WORD_OFF	n/a	n/a	RUM	Beverages	9	7	[0, 0, 0]	n/a	catFR1	0	R1652A
1493.435	1.609	1505759	WORD	n/a	wordpools/wordpool_categorized_EN.txt	BEER	Beverages	10	7	[0, 0, 0]	n/a	catFR1	0	R1652A
1495.044	0.775	1507360	WORD_OFF	n/a	n/a	BEER	Beverages	10	7	[0, 0, 0]	n/a	catFR1	0	R1652A
1495.819	1.608	1508137	WORD	n/a	wordpools/wordpool_categorized_EN.txt	WINDOW	Building	11	7	[0, 0, 0]	n/a	catFR1	0	R1652A
1497.427	0.899	1509751	WORD_OFF	n/a	n/a	WINDOW	Building	11	7	[0, 0, 0]	n/a	catFR1	0	R1652A
1498.326	1.601	1510647	WORD	n/a	wordpools/wordpool_categorized_EN.txt	ROOF	Building	12	7	[0, 0, 0]	n/a	catFR1	0	R1652A
1499.927	0.0	1512248	PROB	0.0	n/a	n/a	n/a	-999	7	[5, 8, 2]	15	catFR1	0	R1652A
1499.927	0.003	1512249	WORD_OFF	n/a	n/a	ROOF	Building	12	7	[0, 0, 0]	n/a	catFR1	0	R1652A
1499.93	0.0	1512249	ENCODING_END	n/a	n/a	n/a	n/a	-999	7	[0, 0, 0]	n/a	catFR1	0	R1652A
1499.93	0.0	1512249	DISTRACT_START	n/a	n/a	n/a	n/a	-999	7	[0, 0, 0]	n/a	catFR1	0	R1652A
1499.93	4.981	1512251	START	n/a	n/a	n/a	n/a	-999	7	[-999, -999, -999]	n/a	catFR1	0	R1652A
1504.911	4.0	1517232	PROB	4.0	n/a	n/a	n/a	-999	7	[1, 4, 3]	8	catFR1	0	R1652A
1508.911	4.591	1521232	PROB	4.591	n/a	n/a	n/a	-999	7	[1, 7, 6]	14	catFR1	0	R1652A
1513.502	3.891	1525823	PROB	3.891	n/a	n/a	n/a	-999	7	[4, 5, 5]	14	catFR1	0	R1652A
1517.393	7.366	1529714	PROB	7.366	n/a	n/a	n/a	-999	7	[8, 7, 2]	15	catFR1	0	R1652A
1524.759	0.0	1537080	STOP	n/a	n/a	n/a	n/a	-999	7	[-999, -999, -999]	n/a	catFR1	0	R1652A
1524.759	2.177	1537084	DISTRACT_END	n/a	n/a	n/a	n/a	-999	7	[0, 0, 0]	n/a	catFR1	0	R1652A
1526.936	0.534	1539260	REC_START	n/a	n/a	n/a	n/a	-999	7	[0, 0, 0]	n/a	catFR1	0	R1652A
1527.47	1.809	1539791	REC_WORD	1.809	n/a	KNIFE	KitchenTools	1	7	[0, 0, 0]	n/a	catFR1	0	R1652A
1529.279	2.06	1541600	REC_WORD	2.06	n/a	COLANDER	KitchenTools	2	7	[0, 0, 0]	n/a	catFR1	0	R1652A
1531.339	1.811	1543660	REC_WORD	1.811	n/a	WHISK	KitchenTools	7	7	[0, 0, 0]	n/a	catFR1	0	R1652A
1533.15	1.828	1545471	REC_WORD	1.828	n/a	ATTIC	Building	5	7	[0, 0, 0]	n/a	catFR1	0	R1652A
1534.978	2.229	1547299	REC_WORD	2.229	n/a	ROOF	Building	12	7	[0, 0, 0]	n/a	catFR1	0	R1652A
1537.207	2.342	1549528	REC_WORD	2.342	n/a	BEER	Beverages	10	7	[0, 0, 0]	n/a	catFR1	0	R1652A
1539.549	17.533	1551870	REC_WORD	17.533	n/a	RUM	Beverages	9	7	[0, 0, 0]	n/a	catFR1	0	R1652A
1557.082	58.262	1569402	REC_END	n/a	n/a	n/a	n/a	-999	7	[0, 0, 0]	n/a	catFR1	0	R1652A
1615.344	10.341	1627667	COUNTDOWN_START	n/a	n/a	n/a	n/a	-999	8	[0, 0, 0]	n/a	catFR1	0	R1652A
1625.685	0.0	1638005	COUNTDOWN_END	n/a	n/a	n/a	n/a	-999	8	[0, 0, 0]	n/a	catFR1	0	R1652A
1625.685	1.909	1638005	ENCODING_START	n/a	n/a	n/a	n/a	-999	8	[0, 0, 0]	n/a	catFR1	0	R1652A
1627.594	1.609	1639918	WORD	n/a	wordpools/wordpool_categorized_EN.txt	OAK	Trees	1	8	[0, 0, 0]	n/a	catFR1	0	R1652A
1629.203	0.806	1641519	WORD_OFF	n/a	n/a	OAK	Trees	1	8	[0, 0, 0]	n/a	catFR1	0	R1652A
1630.009	1.6	1642332	WORD	n/a	wordpools/wordpool_categorized_EN.txt	WILLOW	Trees	2	8	[0, 0, 0]	n/a	catFR1	0	R1652A
1631.609	0.776	1643933	WORD_OFF	n/a	n/a	WILLOW	Trees	2	8	[0, 0, 0]	n/a	catFR1	0	R1652A
1632.385	1.6	1644710	WORD	n/a	wordpools/wordpool_categorized_EN.txt	NOTEBOOK	OfficeSupplies	3	8	[0, 0, 0]	n/a	catFR1	0	R1652A
1633.985	0.924	1646312	WORD_OFF	n/a	n/a	NOTEBOOK	OfficeSupplies	3	8	[0, 0, 0]	n/a	catFR1	0	R1652A
1634.909	1.601	1647232	WORD	n/a	wordpools/wordpool_categorized_EN.txt	PEN	OfficeSupplies	4	8	[0, 0, 0]	n/a	catFR1	0	R1652A
1636.51	0.893	1648834	WORD_OFF	n/a	n/a	PEN	OfficeSupplies	4	8	[0, 0, 0]	n/a	catFR1	0	R1652A
1637.403	1.608	1649718	WORD	n/a	wordpools/wordpool_categorized_EN.txt	MOUNTAIN	Landscapes	5	8	[0, 0, 0]	n/a	catFR1	0	R1652A
1639.011	0.807	1651332	WORD_OFF	n/a	n/a	MOUNTAIN	Landscapes	5	8	[0, 0, 0]	n/a	catFR1	0	R1652A
1639.818	1.601	1652144	WORD	n/a	wordpools/wordpool_categorized_EN.txt	FOREST	Landscapes	6	8	[0, 0, 0]	n/a	catFR1	0	R1652A
1641.419	0.933	1653746	WORD_OFF	n/a	n/a	FOREST	Landscapes	6	8	[0, 0, 0]	n/a	catFR1	0	R1652A
1642.352	1.609	1654678	WORD	n/a	wordpools/wordpool_categorized_EN.txt	HICKORY	Trees	7	8	[0, 0, 0]	n/a	catFR1	0	R1652A
1643.961	0.926	1656280	WORD_OFF	n/a	n/a	HICKORY	Trees	7	8	[0, 0, 0]	n/a	catFR1	0	R1652A
1644.887	1.607	1657212	WORD	n/a	wordpools/wordpool_categorized_EN.txt	CEDAR	Trees	8	8	[0, 0, 0]	n/a	catFR1	0	R1652A
1646.494	0.809	1658813	WORD_OFF	n/a	n/a	CEDAR	Trees	8	8	[0, 0, 0]	n/a	catFR1	0	R1652A
1647.303	1.608	1659626	WORD	n/a	wordpools/wordpool_categorized_EN.txt	RIVER	Landscapes	9	8	[0, 0, 0]	n/a	catFR1	0	R1652A
1648.911	0.907	1661228	WORD_OFF	n/a	n/a	RIVER	Landscapes	9	8	[0, 0, 0]	n/a	catFR1	0	R1652A
1649.818	1.599	1662136	WORD	n/a	wordpools/wordpool_categorized_EN.txt	HILLS	Landscapes	10	8	[0, 0, 0]	n/a	catFR1	0	R1652A
1651.417	0.944	1663738	WORD_OFF	n/a	n/a	HILLS	Landscapes	10	8	[0, 0, 0]	n/a	catFR1	0	R1652A
1652.361	1.608	1664682	WORD	n/a	wordpools/wordpool_categorized_EN.txt	ERASER	OfficeSupplies	11	8	[0, 0, 0]	n/a	catFR1	0	R1652A
1653.969	0.808	1666295	WORD_OFF	n/a	n/a	ERASER	OfficeSupplies	11	8	[0, 0, 0]	n/a	catFR1	0	R1652A
1654.777	1.6	1667096	WORD	n/a	wordpools/wordpool_categorized_EN.txt	RULER	OfficeSupplies	12	8	[0, 0, 0]	n/a	catFR1	0	R1652A
1656.377	0.004	1668698	WORD_OFF	n/a	n/a	RULER	OfficeSupplies	12	8	[0, 0, 0]	n/a	catFR1	0	R1652A
1656.381	0.0	1668698	ENCODING_END	n/a	n/a	n/a	n/a	-999	8	[0, 0, 0]	n/a	catFR1	0	R1652A
1656.381	0.0	1668698	DISTRACT_START	n/a	n/a	n/a	n/a	-999	8	[0, 0, 0]	n/a	catFR1	0	R1652A
1656.377	0.004	1668698	PROB	0.004	n/a	n/a	n/a	-999	8	[3, 1, 2]	6	catFR1	0	R1652A
1656.381	5.047	1668702	START	n/a	n/a	n/a	n/a	-999	8	[-999, -999, -999]	n/a	catFR1	0	R1652A
1661.428	15.047	1673749	PROB	15.047	n/a	n/a	n/a	-999	8	[8, 7, 6]	19	catFR1	0	R1652A
1676.475	0.0	1688796	STOP	n/a	n/a	n/a	n/a	-999	8	[-999, -999, -999]	n/a	catFR1	0	R1652A
1676.475	2.41	1688800	DISTRACT_END	n/a	n/a	n/a	n/a	-999	8	[0, 0, 0]	n/a	catFR1	0	R1652A
1678.885	3.38	1691203	REC_START	n/a	n/a	n/a	n/a	-999	8	[0, 0, 0]	n/a	catFR1	0	R1652A
1682.265	1.604	1694586	REC_WORD_VV	1.604	n/a	<>	n/a	-999	8	[0, 0, 0]	n/a	catFR1	0	R1652A
1683.869	0.562	1696190	REC_WORD_VV	0.562	n/a	<>	n/a	-999	8	[0, 0, 0]	n/a	catFR1	0	R1652A
1684.431	2.113	1696752	REC_WORD	2.113	n/a	OAK	Trees	1	8	[0, 0, 0]	n/a	catFR1	0	R1652A
1686.544	1.811	1698865	REC_WORD	1.811	n/a	WILLOW	Trees	2	8	[0, 0, 0]	n/a	catFR1	0	R1652A
1688.355	2.717	1700676	REC_WORD	2.717	n/a	MOUNTAIN	Landscapes	5	8	[0, 0, 0]	n/a	catFR1	0	R1652A
1691.072	2.398	1703393	REC_WORD	2.398	n/a	HILLS	Landscapes	10	8	[0, 0, 0]	n/a	catFR1	0	R1652A
1693.47	2.297	1705791	REC_WORD	2.297	n/a	PENCIL	OfficeSupplies	-999	8	[0, 0, 0]	n/a	catFR1	0	R1652A
1695.767	2.462	1708088	REC_WORD	2.462	n/a	ERASER	OfficeSupplies	11	8	[0, 0, 0]	n/a	catFR1	0	R1652A
1698.229	2.786	1710550	REC_WORD	2.786	n/a	NOTEBOOK	OfficeSupplies	3	8	[0, 0, 0]	n/a	catFR1	0	R1652A
1701.015	3.724	1713336	REC_WORD	3.724	n/a	RIVER	Landscapes	9	8	[0, 0, 0]	n/a	catFR1	0	R1652A
1704.739	4.278	1717060	REC_WORD	4.278	n/a	HICKORY	Trees	7	8	[0, 0, 0]	n/a	catFR1	0	R1652A
1709.017	25.486	1721333	REC_END	n/a	n/a	n/a	n/a	-999	8	[0, 0, 0]	n/a	catFR1	0	R1652A
1734.503	10.348	1746826	COUNTDOWN_START	n/a	n/a	n/a	n/a	-999	9	[0, 0, 0]	n/a	catFR1	0	R1652A
1744.851	0.0	1757177	COUNTDOWN_END	n/a	n/a	n/a	n/a	-999	9	[0, 0, 0]	n/a	catFR1	0	R1652A
1744.851	2.291	1757177	ENCODING_START	n/a	n/a	n/a	n/a	-999	9	[0, 0, 0]	n/a	catFR1	0	R1652A
1747.142	1.601	1759460	WORD	n/a	wordpools/wordpool_categorized_EN.txt	SCREWDRIVER	Tools	1	9	[0, 0, 0]	n/a	catFR1	0	R1652A
1748.743	0.775	1761061	WORD_OFF	n/a	n/a	SCREWDRIVER	Tools	1	9	[0, 0, 0]	n/a	catFR1	0	R1652A
1749.518	1.601	1761838	WORD	n/a	wordpools/wordpool_categorized_EN.txt	HAMMER	Tools	2	9	[0, 0, 0]	n/a	catFR1	0	R1652A
1751.119	0.934	1763439	WORD_OFF	n/a	n/a	HAMMER	Tools	2	9	[0, 0, 0]	n/a	catFR1	0	R1652A
1752.053	1.607	1764372	WORD	n/a	wordpools/wordpool_categorized_EN.txt	FOLDER	OfficeSupplies	3	9	[0, 0, 0]	n/a	catFR1	0	R1652A
1753.66	0.991	1765985	WORD_OFF	n/a	n/a	FOLDER	OfficeSupplies	3	9	[0, 0, 0]	n/a	catFR1	0	R1652A
1754.651	1.602	1766965	WORD	n/a	wordpools/wordpool_categorized_EN.txt	STAPLER	OfficeSupplies	4	9	[0, 0, 0]	n/a	catFR1	0	R1652A
1756.253	0.833	1768579	WORD_OFF	n/a	n/a	STAPLER	OfficeSupplies	4	9	[0, 0, 0]	n/a	catFR1	0	R1652A
1757.086	1.609	1769403	WORD	n/a	wordpools/wordpool_categorized_EN.txt	PASTRY	Desserts	5	9	[0, 0, 0]	n/a	catFR1	0	R1652A
1758.695	0.84	1771017	WORD_OFF	n/a	n/a	PASTRY	Desserts	5	9	[0, 0, 0]	n/a	catFR1	0	R1652A
1759.535	1.601	1771854	WORD	n/a	wordpools/wordpool_categorized_EN.txt	COBBLER	Desserts	6	9	[0, 0, 0]	n/a	catFR1	0	R1652A
1761.136	0.992	1773455	WORD_OFF	n/a	n/a	COBBLER	Desserts	6	9	[0, 0, 0]	n/a	catFR1	0	R1652A
1762.128	1.608	1774447	WORD	n/a	wordpools/wordpool_categorized_EN.txt	PAPER	OfficeSupplies	7	9	[0, 0, 0]	n/a	catFR1	0	R1652A
1763.736	0.917	1776061	WORD_OFF	n/a	n/a	PAPER	OfficeSupplies	7	9	[0, 0, 0]	n/a	catFR1	0	R1652A
1764.653	1.606	1776969	WORD	n/a	wordpools/wordpool_categorized_EN.txt	BINDER	OfficeSupplies	8	9	[0, 0, 0]	n/a	catFR1	0	R1652A
1766.259	0.769	1778582	WORD_OFF	n/a	n/a	BINDER	OfficeSupplies	8	9	[0, 0, 0]	n/a	catFR1	0	R1652A
1767.028	1.608	1779347	WORD	n/a	wordpools/wordpool_categorized_EN.txt	PIE	Desserts	9	9	[0, 0, 0]	n/a	catFR1	0	R1652A
1768.636	0.858	1780961	WORD_OFF	n/a	n/a	PIE	Desserts	9	9	[0, 0, 0]	n/a	catFR1	0	R1652A
1769.494	1.607	1781809	WORD	n/a	wordpools/wordpool_categorized_EN.txt	MOUSSE	Desserts	10	9	[0, 0, 0]	n/a	catFR1	0	R1652A
1771.101	0.926	1783423	WORD_OFF	n/a	n/a	MOUSSE	Desserts	10	9	[0, 0, 0]	n/a	catFR1	0	R1652A
1772.027	1.608	1784343	WORD	n/a	wordpools/wordpool_categorized_EN.txt	LEVEL	Tools	11	9	[0, 0, 0]	n/a	catFR1	0	R1652A
1773.635	0.807	1785957	WORD_OFF	n/a	n/a	LEVEL	Tools	11	9	[0, 0, 0]	n/a	catFR1	0	R1652A
1774.442	1.602	1786757	WORD	n/a	wordpools/wordpool_categorized_EN.txt	AXE	Tools	12	9	[0, 0, 0]	n/a	catFR1	0	R1652A
1776.044	0.0	1788359	WORD_OFF	n/a	n/a	AXE	Tools	12	9	[0, 0, 0]	n/a	catFR1	0	R1652A
1776.044	0.004	1788364	PROB	0.004	n/a	n/a	n/a	-999	9	[8, 6, 2]	16	catFR1	0	R1652A
1776.048	0.0	1788368	START	n/a	n/a	n/a	n/a	-999	9	[-999, -999, -999]	n/a	catFR1	0	R1652A
1776.048	0.0	1788371	ENCODING_END	n/a	n/a	n/a	n/a	-999	9	[0, 0, 0]	n/a	catFR1	0	R1652A
1776.048	7.563	1788371	DISTRACT_START	n/a	n/a	n/a	n/a	-999	9	[0, 0, 0]	n/a	catFR1	0	R1652A
1783.611	4.323	1795931	PROB	4.323	n/a	n/a	n/a	-999	9	[1, 4, 8]	13	catFR1	0	R1652A
1787.934	4.068	1800254	PROB	4.068	n/a	n/a	n/a	-999	9	[5, 4, 1]	10	catFR1	0	R1652A
1792.002	7.882	1804322	PROB	7.882	n/a	n/a	n/a	-999	9	[7, 7, 8]	24	catFR1	0	R1652A
1799.884	0.0	1812203	DISTRACT_END	n/a	n/a	n/a	n/a	-999	9	[0, 0, 0]	n/a	catFR1	0	R1652A
1799.884	2.227	1812204	STOP	n/a	n/a	n/a	n/a	-999	9	[-999, -999, -999]	n/a	catFR1	0	R1652A
1802.111	2.312	1814438	REC_START	n/a	n/a	n/a	n/a	-999	9	[0, 0, 0]	n/a	catFR1	0	R1652A
1804.423	0.41	1816743	REC_WORD_VV	0.41	n/a	<>	n/a	-999	9	[0, 0, 0]	n/a	catFR1	0	R1652A
1804.833	2.229	1817153	REC_WORD	2.229	n/a	PASTRY	Desserts	5	9	[0, 0, 0]	n/a	catFR1	0	R1652A
1807.062	2.647	1819382	REC_WORD	2.647	n/a	PIE	Desserts	9	9	[0, 0, 0]	n/a	catFR1	0	R1652A
1809.709	3.135	1822029	REC_WORD	3.135	n/a	SCREWDRIVER	Tools	1	9	[0, 0, 0]	n/a	catFR1	0	R1652A
1812.844	2.786	1825164	REC_WORD	2.786	n/a	HAMMER	Tools	2	9	[0, 0, 0]	n/a	catFR1	0	R1652A
1815.63	2.763	1827950	REC_WORD	2.763	n/a	LEVEL	Tools	11	9	[0, 0, 0]	n/a	catFR1	0	R1652A
1818.393	13.863	1830713	REC_WORD	13.863	n/a	NOTEBOOK	OfficeSupplies	-999	9	[0, 0, 0]	n/a	catFR1	0	R1652A
1832.256	8.262	1844580	REC_END	n/a	n/a	n/a	n/a	-999	9	[0, 0, 0]	n/a	catFR1	0	R1652A
1840.518	10.341	1852839	COUNTDOWN_START	n/a	n/a	n/a	n/a	-999	10	[0, 0, 0]	n/a	catFR1	0	R1652A
1850.859	0.0	1863177	COUNTDOWN_END	n/a	n/a	n/a	n/a	-999	10	[0, 0, 0]	n/a	catFR1	0	R1652A
1850.859	2.075	1863177	ENCODING_START	n/a	n/a	n/a	n/a	-999	10	[0, 0, 0]	n/a	catFR1	0	R1652A
1852.934	1.6	1865257	WORD	n/a	wordpools/wordpool_categorized_EN.txt	TROMBONE	Instruments	1	10	[0, 0, 0]	n/a	catFR1	0	R1652A
1854.534	0.884	1866858	WORD_OFF	n/a	n/a	TROMBONE	Instruments	1	10	[0, 0, 0]	n/a	catFR1	0	R1652A
1855.418	1.601	1867743	WORD	n/a	wordpools/wordpool_categorized_EN.txt	ORGAN	Instruments	2	10	[0, 0, 0]	n/a	catFR1	0	R1652A
1857.019	0.94	1869344	WORD_OFF	n/a	n/a	ORGAN	Instruments	2	10	[0, 0, 0]	n/a	catFR1	0	R1652A
1857.959	1.61	1870277	WORD	n/a	wordpools/wordpool_categorized_EN.txt	BEACH	Landscapes	3	10	[0, 0, 0]	n/a	catFR1	0	R1652A
1859.569	0.774	1871890	WORD_OFF	n/a	n/a	BEACH	Landscapes	3	10	[0, 0, 0]	n/a	catFR1	0	R1652A
1860.343	1.601	1872667	WORD	n/a	wordpools/wordpool_categorized_EN.txt	STREAM	Landscapes	4	10	[0, 0, 0]	n/a	catFR1	0	R1652A
1861.944	0.908	1874268	WORD_OFF	n/a	n/a	STREAM	Landscapes	4	10	[0, 0, 0]	n/a	catFR1	0	R1652A
1862.852	1.607	1875177	WORD	n/a	wordpools/wordpool_categorized_EN.txt	WALL	Building	5	10	[0, 0, 0]	n/a	catFR1	0	R1652A
1864.459	0.919	1876778	WORD_OFF	n/a	n/a	WALL	Building	5	10	[0, 0, 0]	n/a	catFR1	0	R1652A
1865.378	1.609	1877699	WORD	n/a	wordpools/wordpool_categorized_EN.txt	STAIRS	Building	6	10	[0, 0, 0]	n/a	catFR1	0	R1652A
1866.987	0.915	1879312	WORD_OFF	n/a	n/a	STAIRS	Building	6	10	[0, 0, 0]	n/a	catFR1	0	R1652A
1867.902	1.609	1880220	WORD	n/a	wordpools/wordpool_categorized_EN.txt	GUITAR	Instruments	7	10	[0, 0, 0]	n/a	catFR1	0	R1652A
1869.511	0.781	1881834	WORD_OFF	n/a	n/a	GUITAR	Instruments	7	10	[0, 0, 0]	n/a	catFR1	0	R1652A
1870.292	1.602	1882611	WORD	n/a	wordpools/wordpool_categorized_EN.txt	PIANO	Instruments	8	10	[0, 0, 0]	n/a	catFR1	0	R1652A
1871.894	0.89	1884212	WORD_OFF	n/a	n/a	PIANO	Instruments	8	10	[0, 0, 0]	n/a	catFR1	0	R1652A
1872.784	1.602	1885109	WORD	n/a	wordpools/wordpool_categorized_EN.txt	FLOOR	Building	9	10	[0, 0, 0]	n/a	catFR1	0	R1652A
1874.386	0.775	1886710	WORD_OFF	n/a	n/a	FLOOR	Building	9	10	[0, 0, 0]	n/a	catFR1	0	R1652A
1875.161	1.608	1887487	WORD	n/a	wordpools/wordpool_categorized_EN.txt	BATHROOM	Building	10	10	[0, 0, 0]	n/a	catFR1	0	R1652A
1876.769	0.85	1889089	WORD_OFF	n/a	n/a	BATHROOM	Building	10	10	[0, 0, 0]	n/a	catFR1	0	R1652A
1877.619	1.6	1889937	WORD	n/a	wordpools/wordpool_categorized_EN.txt	WOODS	Landscapes	11	10	[0, 0, 0]	n/a	catFR1	0	R1652A
1879.219	0.807	1891539	WORD_OFF	n/a	n/a	WOODS	Landscapes	11	10	[0, 0, 0]	n/a	catFR1	0	R1652A
1880.026	1.601	1892340	WORD	n/a	wordpools/wordpool_categorized_EN.txt	LAKE	Landscapes	12	10	[0, 0, 0]	n/a	catFR1	0	R1652A
1881.627	0.004	1893947	PROB	0.004	n/a	n/a	n/a	-999	10	[3, 4, 2]	9	catFR1	0	R1652A
1881.631	0.0	1893951	START	n/a	n/a	n/a	n/a	-999	10	[-999, -999, -999]	n/a	catFR1	0	R1652A
1881.628	0.003	1893953	WORD_OFF	n/a	n/a	LAKE	Landscapes	12	10	[0, 0, 0]	n/a	catFR1	0	R1652A
1881.631	0.0	1893953	ENCODING_END	n/a	n/a	n/a	n/a	-999	10	[0, 0, 0]	n/a	catFR1	0	R1652A
1881.631	5.295	1893953	DISTRACT_START	n/a	n/a	n/a	n/a	-999	10	[0, 0, 0]	n/a	catFR1	0	R1652A
1886.926	5.643	1899246	PROB	5.643	n/a	n/a	n/a	-999	10	[8, 7, 6]	25	catFR1	0	R1652A
1892.569	4.957	1904889	PROB	4.957	n/a	n/a	n/a	-999	10	[6, 4, 3]	13	catFR1	0	R1652A
1897.526	6.267	1909846	PROB	6.267	n/a	n/a	n/a	-999	10	[2, 2, 3]	7	catFR1	0	R1652A
1903.793	0.0	1916112	DISTRACT_END	n/a	n/a	n/a	n/a	-999	10	[0, 0, 0]	n/a	catFR1	0	R1652A
1903.793	2.309	1916113	STOP	n/a	n/a	n/a	n/a	-999	10	[-999, -999, -999]	n/a	catFR1	0	R1652A
1906.102	1.816	1918418	REC_START	n/a	n/a	n/a	n/a	-999	10	[0, 0, 0]	n/a	catFR1	0	R1652A
1907.918	2.918	1920238	REC_WORD_VV	2.918	n/a	<>	n/a	-999	10	[0, 0, 0]	n/a	catFR1	0	R1652A
1910.836	2.993	1923156	REC_WORD_VV	2.993	n/a	<>	n/a	-999	10	[0, 0, 0]	n/a	catFR1	0	R1652A
1913.829	3.135	1926149	REC_WORD_VV	3.135	n/a	<>	n/a	-999	10	[0, 0, 0]	n/a	catFR1	0	R1652A
1916.964	1.0	1929284	REC_WORD_VV	1.0	n/a	<>	n/a	-999	10	[0, 0, 0]	n/a	catFR1	0	R1652A
1917.964	1.0	1930284	REC_WORD_VV	1.0	n/a	<>	n/a	-999	10	[0, 0, 0]	n/a	catFR1	0	R1652A
1918.964	0.719	1931284	REC_WORD_VV	0.719	n/a	<>	n/a	-999	10	[0, 0, 0]	n/a	catFR1	0	R1652A
1919.683	3.778	1932003	REC_WORD	3.778	n/a	WOODS	Landscapes	11	10	[0, 0, 0]	n/a	catFR1	0	R1652A
1923.461	4.973	1935781	REC_WORD	4.973	n/a	TROMBONE	Instruments	1	10	[0, 0, 0]	n/a	catFR1	0	R1652A
1928.434	1.0	1940754	REC_WORD_VV	1.0	n/a	<>	n/a	-999	10	[0, 0, 0]	n/a	catFR1	0	R1652A
1929.434	2.907	1941754	REC_WORD_VV	2.907	n/a	<>	n/a	-999	10	[0, 0, 0]	n/a	catFR1	0	R1652A
1932.341	3.901	1944661	REC_WORD_VV	3.901	n/a	<>	n/a	-999	10	[0, 0, 0]	n/a	catFR1	0	R1652A
1936.242	54.786	1948561	REC_END	n/a	n/a	n/a	n/a	-999	10	[0, 0, 0]	n/a	catFR1	0	R1652A
1991.028	10.34	2003348	COUNTDOWN_START	n/a	n/a	n/a	n/a	-999	11	[0, 0, 0]	n/a	catFR1	0	R1652A
2001.368	0.0	2013686	COUNTDOWN_END	n/a	n/a	n/a	n/a	-999	11	[0, 0, 0]	n/a	catFR1	0	R1652A
2001.368	1.951	2013686	ENCODING_START	n/a	n/a	n/a	n/a	-999	11	[0, 0, 0]	n/a	catFR1	0	R1652A
2003.319	1.609	2015634	WORD	n/a	wordpools/wordpool_categorized_EN.txt	SPINACH	Vegetables	1	11	[0, 0, 0]	n/a	catFR1	0	R1652A
2004.928	0.815	2017248	WORD_OFF	n/a	n/a	SPINACH	Vegetables	1	11	[0, 0, 0]	n/a	catFR1	0	R1652A
2005.743	1.608	2018061	WORD	n/a	wordpools/wordpool_categorized_EN.txt	CORN	Vegetables	2	11	[0, 0, 0]	n/a	catFR1	0	R1652A
2007.351	0.95	2019674	WORD_OFF	n/a	n/a	CORN	Vegetables	2	11	[0, 0, 0]	n/a	catFR1	0	R1652A
2008.301	1.601	2020618	WORD	n/a	wordpools/wordpool_categorized_EN.txt	WASHER	Appliances	3	11	[0, 0, 0]	n/a	catFR1	0	R1652A
2009.902	0.915	2022220	WORD_OFF	n/a	n/a	WASHER	Appliances	3	11	[0, 0, 0]	n/a	catFR1	0	R1652A
2010.817	1.601	2023140	WORD	n/a	wordpools/wordpool_categorized_EN.txt	BLENDER	Appliances	4	11	[0, 0, 0]	n/a	catFR1	0	R1652A
2012.418	1.001	2024742	WORD_OFF	n/a	n/a	BLENDER	Appliances	4	11	[0, 0, 0]	n/a	catFR1	0	R1652A
2013.419	1.608	2025734	WORD	n/a	wordpools/wordpool_categorized_EN.txt	SPRUCE	Trees	5	11	[0, 0, 0]	n/a	catFR1	0	R1652A
2015.027	0.809	2027347	WORD_OFF	n/a	n/a	SPRUCE	Trees	5	11	[0, 0, 0]	n/a	catFR1	0	R1652A
2015.836	1.607	2028160	WORD	n/a	wordpools/wordpool_categorized_EN.txt	MAPLE	Trees	6	11	[0, 0, 0]	n/a	catFR1	0	R1652A
2017.443	0.835	2029761	WORD_OFF	n/a	n/a	MAPLE	Trees	6	11	[0, 0, 0]	n/a	catFR1	0	R1652A
2018.278	1.606	2030598	WORD	n/a	wordpools/wordpool_categorized_EN.txt	STOVE	Appliances	7	11	[0, 0, 0]	n/a	catFR1	0	R1652A
2019.884	0.794	2032200	WORD_OFF	n/a	n/a	STOVE	Appliances	7	11	[0, 0, 0]	n/a	catFR1	0	R1652A
2020.678	1.607	2033000	WORD	n/a	wordpools/wordpool_categorized_EN.txt	REFRIGERATOR	Appliances	8	11	[0, 0, 0]	n/a	catFR1	0	R1652A
2022.285	0.775	2034602	WORD_OFF	n/a	n/a	REFRIGERATOR	Appliances	8	11	[0, 0, 0]	n/a	catFR1	0	R1652A
2023.06	1.609	2035379	WORD	n/a	wordpools/wordpool_categorized_EN.txt	BIRCH	Trees	9	11	[0, 0, 0]	n/a	catFR1	0	R1652A
2024.669	0.859	2036992	WORD_OFF	n/a	n/a	BIRCH	Trees	9	11	[0, 0, 0]	n/a	catFR1	0	R1652A
2025.528	1.6	2037853	WORD	n/a	wordpools/wordpool_categorized_EN.txt	ELM	Trees	10	11	[0, 0, 0]	n/a	catFR1	0	R1652A
2027.128	0.991	2039442	WORD_OFF	n/a	n/a	ELM	Trees	10	11	[0, 0, 0]	n/a	catFR1	0	R1652A
2028.119	1.608	2040434	WORD	n/a	wordpools/wordpool_categorized_EN.txt	BROCCOLI	Vegetables	11	11	[0, 0, 0]	n/a	catFR1	0	R1652A
2029.727	0.826	2042048	WORD_OFF	n/a	n/a	BROCCOLI	Vegetables	11	11	[0, 0, 0]	n/a	catFR1	0	R1652A
2030.553	1.606	2042872	WORD	n/a	wordpools/wordpool_categorized_EN.txt	CABBAGE	Vegetables	12	11	[0, 0, 0]	n/a	catFR1	0	R1652A
2032.159	0.002	2044474	WORD_OFF	n/a	n/a	CABBAGE	Vegetables	12	11	[0, 0, 0]	n/a	catFR1	0	R1652A
2032.161	0.001	2044480	PROB	0.001	n/a	n/a	n/a	-999	11	[7, 1, 1]	9	catFR1	0	R1652A
2032.162	0.0	2044481	START	n/a	n/a	n/a	n/a	-999	11	[-999, -999, -999]	n/a	catFR1	0	R1652A
2032.162	0.0	2044486	ENCODING_END	n/a	n/a	n/a	n/a	-999	11	[0, 0, 0]	n/a	catFR1	0	R1652A
2032.162	5.831	2044486	DISTRACT_START	n/a	n/a	n/a	n/a	-999	11	[0, 0, 0]	n/a	catFR1	0	R1652A
2037.993	4.41	2050312	PROB	4.41	n/a	n/a	n/a	-999	11	[7, 5, 5]	17	catFR1	0	R1652A
2042.403	4.241	2054722	PROB	4.241	n/a	n/a	n/a	-999	11	[5, 7, 5]	17	catFR1	0	R1652A
2046.644	4.408	2058963	PROB	4.408	n/a	n/a	n/a	-999	11	[5, 1, 4]	10	catFR1	0	R1652A
2051.052	4.066	2063371	PROB	4.066	n/a	n/a	n/a	-999	11	[3, 6, 4]	13	catFR1	0	R1652A
2055.118	0.0	2067433	DISTRACT_END	n/a	n/a	n/a	n/a	-999	11	[0, 0, 0]	n/a	catFR1	0	R1652A
2055.118	2.226	2067437	STOP	n/a	n/a	n/a	n/a	-999	11	[-999, -999, -999]	n/a	catFR1	0	R1652A
2057.344	0.29	2069668	REC_START	n/a	n/a	n/a	n/a	-999	11	[0, 0, 0]	n/a	catFR1	0	R1652A
2057.634	2.139	2069953	REC_WORD	2.139	n/a	SPINACH	Vegetables	1	11	[0, 0, 0]	n/a	catFR1	0	R1652A
2059.773	2.178	2072092	REC_WORD	2.178	n/a	CORN	Vegetables	2	11	[0, 0, 0]	n/a	catFR1	0	R1652A
2061.951	2.461	2074270	REC_WORD	2.461	n/a	BROCCOLI	Vegetables	11	11	[0, 0, 0]	n/a	catFR1	0	R1652A
2064.412	2.161	2076731	REC_WORD	2.161	n/a	WASHER	Appliances	3	11	[0, 0, 0]	n/a	catFR1	0	R1652A
2066.573	2.136	2078892	REC_WORD	2.136	n/a	BLENDER	Appliances	4	11	[0, 0, 0]	n/a	catFR1	0	R1652A
2068.709	18.774	2081028	REC_WORD	18.774	n/a	REFRIGERATOR	Appliances	8	11	[0, 0, 0]	n/a	catFR1	0	R1652A
2087.483	19.593	2099799	REC_END	n/a	n/a	n/a	n/a	-999	11	[0, 0, 0]	n/a	catFR1	0	R1652A
2107.076	10.344	2119400	COUNTDOWN_START	n/a	n/a	n/a	n/a	-999	12	[0, 0, 0]	n/a	catFR1	0	R1652A
2117.42	0.0	2129738	COUNTDOWN_END	n/a	n/a	n/a	n/a	-999	12	[0, 0, 0]	n/a	catFR1	0	R1652A
2117.42	2.258	2129738	ENCODING_START	n/a	n/a	n/a	n/a	-999	12	[0, 0, 0]	n/a	catFR1	0	R1652A
2119.678	1.608	2131997	WORD	n/a	wordpools/wordpool_categorized_EN.txt	GRATER	KitchenTools	1	12	[0, 0, 0]	n/a	catFR1	0	R1652A
2121.286	0.984	2133599	WORD_OFF	n/a	n/a	GRATER	KitchenTools	1	12	[0, 0, 0]	n/a	catFR1	0	R1652A
2122.27	1.606	2134591	WORD	n/a	wordpools/wordpool_categorized_EN.txt	PEELER	KitchenTools	2	12	[0, 0, 0]	n/a	catFR1	0	R1652A
2123.876	0.925	2136192	WORD_OFF	n/a	n/a	PEELER	KitchenTools	2	12	[0, 0, 0]	n/a	catFR1	0	R1652A
2124.801	1.602	2137124	WORD	n/a	wordpools/wordpool_categorized_EN.txt	CROWBAR	Tools	3	12	[0, 0, 0]	n/a	catFR1	0	R1652A
2126.403	0.807	2138726	WORD_OFF	n/a	n/a	CROWBAR	Tools	3	12	[0, 0, 0]	n/a	catFR1	0	R1652A
2127.21	1.6	2139527	WORD	n/a	wordpools/wordpool_categorized_EN.txt	PLIERS	Tools	4	12	[0, 0, 0]	n/a	catFR1	0	R1652A
2128.81	0.943	2141128	WORD_OFF	n/a	n/a	PLIERS	Tools	4	12	[0, 0, 0]	n/a	catFR1	0	R1652A
2129.753	1.608	2142072	WORD	n/a	wordpools/wordpool_categorized_EN.txt	WALNUT	Trees	5	12	[0, 0, 0]	n/a	catFR1	0	R1652A
2131.361	0.89	2143674	WORD_OFF	n/a	n/a	WALNUT	Trees	5	12	[0, 0, 0]	n/a	catFR1	0	R1652A
2132.251	1.601	2144570	WORD	n/a	wordpools/wordpool_categorized_EN.txt	CYPRESS	Trees	6	12	[0, 0, 0]	n/a	catFR1	0	R1652A
2133.852	0.957	2146172	WORD_OFF	n/a	n/a	CYPRESS	Trees	6	12	[0, 0, 0]	n/a	catFR1	0	R1652A
2134.809	1.61	2147128	WORD	n/a	wordpools/wordpool_categorized_EN.txt	SPATULA	KitchenTools	7	12	[0, 0, 0]	n/a	catFR1	0	R1652A
2136.419	0.867	2148742	WORD_OFF	n/a	n/a	SPATULA	KitchenTools	7	12	[0, 0, 0]	n/a	catFR1	0	R1652A
2137.286	1.609	2149602	WORD	n/a	wordpools/wordpool_categorized_EN.txt	CORKSCREW	KitchenTools	8	12	[0, 0, 0]	n/a	catFR1	0	R1652A
2138.895	0.881	2151216	WORD_OFF	n/a	n/a	CORKSCREW	KitchenTools	8	12	[0, 0, 0]	n/a	catFR1	0	R1652A
2139.776	1.602	2152088	WORD	n/a	wordpools/wordpool_categorized_EN.txt	PINE	Trees	9	12	[0, 0, 0]	n/a	catFR1	0	R1652A
2141.378	0.983	2153702	WORD_OFF	n/a	n/a	PINE	Trees	9	12	[0, 0, 0]	n/a	catFR1	0	R1652A
2142.361	1.608	2154682	WORD	n/a	wordpools/wordpool_categorized_EN.txt	EVERGREEN	Trees	10	12	[0, 0, 0]	n/a	catFR1	0	R1652A
2143.969	0.859	2156283	WORD_OFF	n/a	n/a	EVERGREEN	Trees	10	12	[0, 0, 0]	n/a	catFR1	0	R1652A
2144.828	1.608	2157144	WORD	n/a	wordpools/wordpool_categorized_EN.txt	SAW	Tools	11	12	[0, 0, 0]	n/a	catFR1	0	R1652A
2146.436	0.956	2158757	WORD_OFF	n/a	n/a	SAW	Tools	11	12	[0, 0, 0]	n/a	catFR1	0	R1652A
2147.392	1.602	2159713	WORD	n/a	wordpools/wordpool_categorized_EN.txt	WRENCH	Tools	12	12	[0, 0, 0]	n/a	catFR1	0	R1652A
2148.994	0.001	2161313	PROB	0.001	n/a	n/a	n/a	-999	12	[6, 4, 5]	15	catFR1	0	R1652A
2148.995	0.002	2161315	WORD_OFF	n/a	n/a	WRENCH	Tools	12	12	[0, 0, 0]	n/a	catFR1	0	R1652A
2148.997	0.0	2161315	ENCODING_END	n/a	n/a	n/a	n/a	-999	12	[0, 0, 0]	n/a	catFR1	0	R1652A
2148.997	0.0	2161315	DISTRACT_START	n/a	n/a	n/a	n/a	-999	12	[0, 0, 0]	n/a	catFR1	0	R1652A
2148.997	5.497	2161316	START	n/a	n/a	n/a	n/a	-999	12	[-999, -999, -999]	n/a	catFR1	0	R1652A
2154.494	7.342	2166813	PROB	7.342	n/a	n/a	n/a	-999	12	[7, 7, 6]	20	catFR1	0	R1652A
2161.836	4.609	2174155	PROB	4.609	n/a	n/a	n/a	-999	12	[6, 2, 8]	16	catFR1	0	R1652A
2166.445	5.141	2178764	PROB	5.141	n/a	n/a	n/a	-999	12	[6, 6, 1]	13	catFR1	0	R1652A
2171.586	0.0	2183904	DISTRACT_END	n/a	n/a	n/a	n/a	-999	12	[0, 0, 0]	n/a	catFR1	0	R1652A
2171.586	2.283	2183905	STOP	n/a	n/a	n/a	n/a	-999	12	[-999, -999, -999]	n/a	catFR1	0	R1652A
2173.869	0.547	2186186	REC_START	n/a	n/a	n/a	n/a	-999	12	[0, 0, 0]	n/a	catFR1	0	R1652A
2174.416	2.924	2186735	REC_WORD	2.924	n/a	GRATER	KitchenTools	1	12	[0, 0, 0]	n/a	catFR1	0	R1652A
2177.34	2.383	2189659	REC_WORD	2.383	n/a	PEELER	KitchenTools	2	12	[0, 0, 0]	n/a	catFR1	0	R1652A
2179.723	2.379	2192042	REC_WORD	2.379	n/a	PLIERS	Tools	4	12	[0, 0, 0]	n/a	catFR1	0	R1652A
2182.102	4.645	2194421	REC_WORD	4.645	n/a	SAW	Tools	11	12	[0, 0, 0]	n/a	catFR1	0	R1652A
2186.747	4.304	2199066	REC_WORD	4.304	n/a	PINE	Trees	9	12	[0, 0, 0]	n/a	catFR1	0	R1652A
2191.051	12.964	2203370	REC_WORD	12.964	n/a	SPATULA	KitchenTools	7	12	[0, 0, 0]	n/a	catFR1	0	R1652A
2204.015	0.0	2216329	REC_END	n/a	n/a	n/a	n/a	-999	12	[0, 0, 0]	n/a	catFR1	0	R1652A
