onset	duration	sample	trial_type	response_time	stim_file	item_name	category	serialpos	list	test	answer	experiment	session	subject
0.0	164.897	24554	INSTRUCT_START	n/a	n/a	n/a	n/a	-999	-999	[0, 0, 0]	n/a	catFR1	0	R1465D
164.897	36.167	189442	INSTRUCT_END	n/a	n/a	n/a	n/a	-999	-999	[0, 0, 0]	n/a	catFR1	0	R1465D
201.064	10.35	225606	COUNTDOWN_START	n/a	n/a	n/a	n/a	-999	-999	[0, 0, 0]	n/a	catFR1	0	R1465D
211.414	0.0	235958	COUNTDOWN_END	n/a	n/a	n/a	n/a	-999	-999	[0, 0, 0]	n/a	catFR1	0	R1465D
211.414	1.917	235958	ENCODING_START	n/a	n/a	n/a	n/a	-999	-1	[0, 0, 0]	n/a	catFR1	0	R1465D
213.331	1.599	237873	WORD	n/a	n/a	PUZZLE	Toys	1	-1	[0, 0, 0]	n/a	catFR1	0	R1465D
214.93	0.817	239474	WORD_OFF	n/a	n/a	PUZZLE	Toys	1	-1	[0, 0, 0]	n/a	catFR1	0	R1465D
215.747	1.6	240289	WORD	n/a	n/a	DOLL	Toys	2	-1	[0, 0, 0]	n/a	catFR1	0	R1465D
217.347	0.782	241890	WORD_OFF	n/a	n/a	DOLL	Toys	2	-1	[0, 0, 0]	n/a	catFR1	0	R1465D
218.129	1.601	242676	WORD	n/a	n/a	BANANA	Fruit	3	-1	[0, 0, 0]	n/a	catFR1	0	R1465D
219.73	0.783	244277	WORD_OFF	n/a	n/a	BANANA	Fruit	3	-1	[0, 0, 0]	n/a	catFR1	0	R1465D
220.513	1.601	245053	WORD	n/a	n/a	PEAR	Fruit	4	-1	[0, 0, 0]	n/a	catFR1	0	R1465D
222.114	0.966	246654	WORD_OFF	n/a	n/a	PEAR	Fruit	4	-1	[0, 0, 0]	n/a	catFR1	0	R1465D
223.08	1.617	247626	WORD	n/a	n/a	ORGAN	Instruments	5	-1	[0, 0, 0]	n/a	catFR1	0	R1465D
224.697	1.0	249237	WORD_OFF	n/a	n/a	ORGAN	Instruments	5	-1	[0, 0, 0]	n/a	catFR1	0	R1465D
225.697	1.617	250239	WORD	n/a	n/a	FLUTE	Instruments	6	-1	[0, 0, 0]	n/a	catFR1	0	R1465D
227.314	0.95	251859	WORD_OFF	n/a	n/a	FLUTE	Instruments	6	-1	[0, 0, 0]	n/a	catFR1	0	R1465D
228.264	1.616	252802	WORD	n/a	n/a	BALL	Toys	7	-1	[0, 0, 0]	n/a	catFR1	0	R1465D
229.88	0.9	254423	WORD_OFF	n/a	n/a	BALL	Toys	7	-1	[0, 0, 0]	n/a	catFR1	0	R1465D
230.78	1.616	255326	WORD	n/a	n/a	FRISBEE	Toys	8	-1	[0, 0, 0]	n/a	catFR1	0	R1465D
232.396	0.834	256937	WORD_OFF	n/a	n/a	FRISBEE	Toys	8	-1	[0, 0, 0]	n/a	catFR1	0	R1465D
233.23	1.615	257772	WORD	n/a	n/a	CELLO	Instruments	9	-1	[0, 0, 0]	n/a	catFR1	0	R1465D
234.845	1.002	259383	WORD_OFF	n/a	n/a	CELLO	Instruments	9	-1	[0, 0, 0]	n/a	catFR1	0	R1465D
235.847	1.6	260392	WORD	n/a	n/a	BANJO	Instruments	10	-1	[0, 0, 0]	n/a	catFR1	0	R1465D
237.447	0.767	261986	WORD_OFF	n/a	n/a	BANJO	Instruments	10	-1	[0, 0, 0]	n/a	catFR1	0	R1465D
238.214	1.6	262752	WORD	n/a	n/a	STRAWBERRY	Fruit	11	-1	[0, 0, 0]	n/a	catFR1	0	R1465D
239.814	0.866	264353	WORD_OFF	n/a	n/a	STRAWBERRY	Fruit	11	-1	[0, 0, 0]	n/a	catFR1	0	R1465D
240.68	1.6	265217	WORD	n/a	n/a	APPLE	Fruit	12	-1	[0, 0, 0]	n/a	catFR1	0	R1465D
242.28	0.002	266818	WORD_OFF	n/a	n/a	APPLE	Fruit	12	-1	[0, 0, 0]	n/a	catFR1	0	R1465D
242.282	0.0	266822	START	n/a	n/a	n/a	n/a	-999	-1	[-999, -999, -999]	n/a	catFR1	0	R1465D
242.282	0.0	266822	PROB	0.0	n/a	n/a	n/a	-999	-1	[5, 6, 2]	13	catFR1	0	R1465D
242.282	0.0	266828	ENCODING_END	n/a	n/a	n/a	n/a	-999	-1	[0, 0, 0]	n/a	catFR1	0	R1465D
242.282	4.149	266828	DISTRACT_START	n/a	n/a	n/a	n/a	-999	-1	[0, 0, 0]	n/a	catFR1	0	R1465D
246.431	3.283	270971	PROB	3.283	n/a	n/a	n/a	-999	-1	[1, 5, 8]	14	catFR1	0	R1465D
249.714	3.05	274254	PROB	3.05	n/a	n/a	n/a	-999	-1	[3, 8, 1]	12	catFR1	0	R1465D
252.764	2.667	277303	PROB	2.667	n/a	n/a	n/a	-999	-1	[4, 4, 4]	12	catFR1	0	R1465D
255.431	2.517	279970	PROB	2.517	n/a	n/a	n/a	-999	-1	[1, 2, 5]	8	catFR1	0	R1465D
257.948	3.566	282487	PROB	3.566	n/a	n/a	n/a	-999	-1	[8, 7, 2]	17	catFR1	0	R1465D
261.514	3.0	286053	PROB	3.0	n/a	n/a	n/a	-999	-1	[7, 7, 2]	16	catFR1	0	R1465D
264.514	0.0	289053	STOP	n/a	n/a	n/a	n/a	-999	-1	[-999, -999, -999]	n/a	catFR1	0	R1465D
264.514	1.233	289054	DISTRACT_END	n/a	n/a	n/a	n/a	-999	-1	[0, 0, 0]	n/a	catFR1	0	R1465D
265.747	1.224	290292	REC_START	n/a	n/a	n/a	n/a	-999	-1	[0, 0, 0]	n/a	catFR1	0	R1465D
266.971	0.746	291510	REC_WORD	0.746	n/a	DOLL	Toys	2	-1	[0, 0, 0]	n/a	catFR1	0	R1465D
267.717	1.019	292256	REC_WORD	1.019	n/a	BANANA	Fruit	3	-1	[0, 0, 0]	n/a	catFR1	0	R1465D
268.736	0.851	293275	REC_WORD	0.851	n/a	PEAR	Fruit	4	-1	[0, 0, 0]	n/a	catFR1	0	R1465D
269.587	2.279	294126	REC_WORD	2.279	n/a	STRAWBERRY	Fruit	11	-1	[0, 0, 0]	n/a	catFR1	0	R1465D
271.866	2.638	296404	REC_WORD	2.638	n/a	APPLE	Fruit	12	-1	[0, 0, 0]	n/a	catFR1	0	R1465D
274.504	1.103	299042	REC_WORD	1.103	n/a	CELLO	Instruments	9	-1	[0, 0, 0]	n/a	catFR1	0	R1465D
275.607	16.66	300145	REC_WORD	16.66	n/a	BANJO	Instruments	10	-1	[0, 0, 0]	n/a	catFR1	0	R1465D
292.267	1.731	316804	REC_WORD	1.731	n/a	DOOR	n/a	-999	-1	[0, 0, 0]	n/a	catFR1	0	R1465D
293.998	1.0	318535	REC_WORD_VV	1.0	n/a	<>	n/a	-999	-1	[0, 0, 0]	n/a	catFR1	0	R1465D
294.998	1.951	319535	REC_WORD_VV	1.951	n/a	<>	n/a	-999	-1	[0, 0, 0]	n/a	catFR1	0	R1465D
296.949	32.764	321486	REC_END	n/a	n/a	n/a	n/a	-999	-1	[0, 0, 0]	n/a	catFR1	0	R1465D
329.713	10.35	354251	COUNTDOWN_START	n/a	n/a	n/a	n/a	-999	1	[0, 0, 0]	n/a	catFR1	0	R1465D
340.063	0.0	364603	COUNTDOWN_END	n/a	n/a	n/a	n/a	-999	1	[0, 0, 0]	n/a	catFR1	0	R1465D
340.063	2.1	364603	ENCODING_START	n/a	n/a	n/a	n/a	-999	1	[0, 0, 0]	n/a	catFR1	0	R1465D
342.163	1.601	366696	WORD	n/a	wordpools/wordpool_categorized_EN.txt	GUITAR	Instruments	1	1	[0, 0, 0]	n/a	catFR1	0	R1465D
343.764	0.783	368296	WORD_OFF	n/a	n/a	GUITAR	Instruments	1	1	[0, 0, 0]	n/a	catFR1	0	R1465D
344.547	1.6	369082	WORD	n/a	wordpools/wordpool_categorized_EN.txt	TUBA	Instruments	2	1	[0, 0, 0]	n/a	catFR1	0	R1465D
346.147	0.933	370683	WORD_OFF	n/a	n/a	TUBA	Instruments	2	1	[0, 0, 0]	n/a	catFR1	0	R1465D
347.08	1.616	371616	WORD	n/a	wordpools/wordpool_categorized_EN.txt	WILLOW	Trees	3	1	[0, 0, 0]	n/a	catFR1	0	R1465D
348.696	0.85	373237	WORD_OFF	n/a	n/a	WILLOW	Trees	3	1	[0, 0, 0]	n/a	catFR1	0	R1465D
349.546	1.618	374081	WORD	n/a	wordpools/wordpool_categorized_EN.txt	BIRCH	Trees	4	1	[0, 0, 0]	n/a	catFR1	0	R1465D
351.164	0.949	375702	WORD_OFF	n/a	n/a	BIRCH	Trees	4	1	[0, 0, 0]	n/a	catFR1	0	R1465D
352.113	1.6	376645	WORD	n/a	wordpools/wordpool_categorized_EN.txt	SILK	Fabric	5	1	[0, 0, 0]	n/a	catFR1	0	R1465D
353.713	0.85	378246	WORD_OFF	n/a	n/a	SILK	Fabric	5	1	[0, 0, 0]	n/a	catFR1	0	R1465D
354.563	1.617	379100	WORD	n/a	wordpools/wordpool_categorized_EN.txt	LEATHER	Fabric	6	1	[0, 0, 0]	n/a	catFR1	0	R1465D
356.18	0.783	380711	WORD_OFF	n/a	n/a	LEATHER	Fabric	6	1	[0, 0, 0]	n/a	catFR1	0	R1465D
356.963	1.601	381497	WORD	n/a	wordpools/wordpool_categorized_EN.txt	WALNUT	Trees	7	1	[0, 0, 0]	n/a	catFR1	0	R1465D
358.564	0.933	383098	WORD_OFF	n/a	n/a	WALNUT	Trees	7	1	[0, 0, 0]	n/a	catFR1	0	R1465D
359.497	1.6	384031	WORD	n/a	wordpools/wordpool_categorized_EN.txt	EVERGREEN	Trees	8	1	[0, 0, 0]	n/a	catFR1	0	R1465D
361.097	0.849	385632	WORD_OFF	n/a	n/a	EVERGREEN	Trees	8	1	[0, 0, 0]	n/a	catFR1	0	R1465D
361.946	1.601	386480	WORD	n/a	wordpools/wordpool_categorized_EN.txt	TRUMPET	Instruments	9	1	[0, 0, 0]	n/a	catFR1	0	R1465D
363.547	0.95	388078	WORD_OFF	n/a	n/a	TRUMPET	Instruments	9	1	[0, 0, 0]	n/a	catFR1	0	R1465D
364.497	1.617	389030	WORD	n/a	wordpools/wordpool_categorized_EN.txt	TROMBONE	Instruments	10	1	[0, 0, 0]	n/a	catFR1	0	R1465D
366.114	0.883	390651	WORD_OFF	n/a	n/a	TROMBONE	Instruments	10	1	[0, 0, 0]	n/a	catFR1	0	R1465D
366.997	1.617	391535	WORD	n/a	wordpools/wordpool_categorized_EN.txt	NYLON	Fabric	11	1	[0, 0, 0]	n/a	catFR1	0	R1465D
368.614	1.0	393146	WORD_OFF	n/a	n/a	NYLON	Fabric	11	1	[0, 0, 0]	n/a	catFR1	0	R1465D
369.614	1.617	394147	WORD	n/a	wordpools/wordpool_categorized_EN.txt	SPANDEX	Fabric	12	1	[0, 0, 0]	n/a	catFR1	0	R1465D
371.231	0.001	395764	PROB	0.001	n/a	n/a	n/a	-999	1	[8, 5, 4]	17	catFR1	0	R1465D
371.232	0.0	395765	START	n/a	n/a	n/a	n/a	-999	1	[-999, -999, -999]	n/a	catFR1	0	R1465D
371.23	0.002	395768	WORD_OFF	n/a	n/a	SPANDEX	Fabric	12	1	[0, 0, 0]	n/a	catFR1	0	R1465D
371.232	0.0	395768	ENCODING_END	n/a	n/a	n/a	n/a	-999	1	[0, 0, 0]	n/a	catFR1	0	R1465D
371.232	4.049	395768	DISTRACT_START	n/a	n/a	n/a	n/a	-999	1	[0, 0, 0]	n/a	catFR1	0	R1465D
375.281	3.0	399814	PROB	3.0	n/a	n/a	n/a	-999	1	[7, 4, 8]	19	catFR1	0	R1465D
378.281	3.15	402814	PROB	3.15	n/a	n/a	n/a	-999	1	[7, 4, 8]	19	catFR1	0	R1465D
381.431	2.866	405964	PROB	2.866	n/a	n/a	n/a	-999	1	[6, 3, 5]	14	catFR1	0	R1465D
384.297	1.717	408829	PROB	1.717	n/a	n/a	n/a	-999	1	[1, 3, 7]	11	catFR1	0	R1465D
386.014	2.882	410546	PROB	2.882	n/a	n/a	n/a	-999	1	[5, 7, 6]	18	catFR1	0	R1465D
388.896	2.418	413428	PROB	2.418	n/a	n/a	n/a	-999	1	[3, 4, 6]	13	catFR1	0	R1465D
391.314	0.0	415844	DISTRACT_END	n/a	n/a	n/a	n/a	-999	1	[0, 0, 0]	n/a	catFR1	0	R1465D
391.314	1.016	415846	STOP	n/a	n/a	n/a	n/a	-999	1	[-999, -999, -999]	n/a	catFR1	0	R1465D
392.33	3.16	416865	REC_START	n/a	n/a	n/a	n/a	-999	1	[0, 0, 0]	n/a	catFR1	0	R1465D
395.49	1.103	420022	REC_WORD	1.103	n/a	TUBA	Instruments	2	1	[0, 0, 0]	n/a	catFR1	0	R1465D
396.593	1.542	421125	REC_WORD	1.542	n/a	TROMBONE	Instruments	10	1	[0, 0, 0]	n/a	catFR1	0	R1465D
398.135	4.217	422667	REC_WORD	4.217	n/a	GUITAR	Instruments	1	1	[0, 0, 0]	n/a	catFR1	0	R1465D
402.352	1.279	426883	REC_WORD	1.279	n/a	WILLOW	Trees	3	1	[0, 0, 0]	n/a	catFR1	0	R1465D
403.631	15.052	428162	REC_WORD	15.052	n/a	BIRCH	Trees	4	1	[0, 0, 0]	n/a	catFR1	0	R1465D
418.683	4.836	443214	REC_WORD_VV	4.836	n/a	<>	n/a	-999	1	[0, 0, 0]	n/a	catFR1	0	R1465D
423.519	27.328	448049	REC_END	n/a	n/a	n/a	n/a	-999	1	[0, 0, 0]	n/a	catFR1	0	R1465D
450.847	10.349	475383	COUNTDOWN_START	n/a	n/a	n/a	n/a	-999	1	[0, 0, 0]	n/a	catFR1	0	R1465D
461.196	0.0	485726	COUNTDOWN_END	n/a	n/a	n/a	n/a	-999	1	[0, 0, 0]	n/a	catFR1	0	R1465D
461.196	2.15	485726	ENCODING_START	n/a	n/a	n/a	n/a	-999	2	[0, 0, 0]	n/a	catFR1	0	R1465D
463.346	1.601	487877	WORD	n/a	wordpools/wordpool_categorized_EN.txt	LADYBUG	Insects	1	2	[0, 0, 0]	n/a	catFR1	0	R1465D
464.947	0.833	489478	WORD_OFF	n/a	n/a	LADYBUG	Insects	1	2	[0, 0, 0]	n/a	catFR1	0	R1465D
465.78	1.617	490312	WORD	n/a	wordpools/wordpool_categorized_EN.txt	BUTTERFLY	Insects	2	2	[0, 0, 0]	n/a	catFR1	0	R1465D
467.397	0.817	491923	WORD_OFF	n/a	n/a	BUTTERFLY	Insects	2	2	[0, 0, 0]	n/a	catFR1	0	R1465D
468.214	1.615	492748	WORD	n/a	wordpools/wordpool_categorized_EN.txt	ELEPHANT	Zoo	3	2	[0, 0, 0]	n/a	catFR1	0	R1465D
469.829	0.785	494359	WORD_OFF	n/a	n/a	ELEPHANT	Zoo	3	2	[0, 0, 0]	n/a	catFR1	0	R1465D
470.614	1.6	495145	WORD	n/a	wordpools/wordpool_categorized_EN.txt	CHIMPANZEE	Zoo	4	2	[0, 0, 0]	n/a	catFR1	0	R1465D
472.214	0.966	496746	WORD_OFF	n/a	n/a	CHIMPANZEE	Zoo	4	2	[0, 0, 0]	n/a	catFR1	0	R1465D
473.18	1.6	497708	WORD	n/a	wordpools/wordpool_categorized_EN.txt	RECLINER	Furniture	5	2	[0, 0, 0]	n/a	catFR1	0	R1465D
474.78	0.933	499309	WORD_OFF	n/a	n/a	RECLINER	Furniture	5	2	[0, 0, 0]	n/a	catFR1	0	R1465D
475.713	1.617	500242	WORD	n/a	wordpools/wordpool_categorized_EN.txt	SOFA	Furniture	6	2	[0, 0, 0]	n/a	catFR1	0	R1465D
477.33	0.85	501863	WORD_OFF	n/a	n/a	SOFA	Furniture	6	2	[0, 0, 0]	n/a	catFR1	0	R1465D
478.18	1.617	502707	WORD	n/a	wordpools/wordpool_categorized_EN.txt	FLY	Insects	7	2	[0, 0, 0]	n/a	catFR1	0	R1465D
479.797	0.917	504328	WORD_OFF	n/a	n/a	FLY	Insects	7	2	[0, 0, 0]	n/a	catFR1	0	R1465D
480.714	1.6	505241	WORD	n/a	wordpools/wordpool_categorized_EN.txt	ANT	Insects	8	2	[0, 0, 0]	n/a	catFR1	0	R1465D
482.314	0.865	506842	WORD_OFF	n/a	n/a	ANT	Insects	8	2	[0, 0, 0]	n/a	catFR1	0	R1465D
483.179	1.601	507707	WORD	n/a	wordpools/wordpool_categorized_EN.txt	CABINET	Furniture	9	2	[0, 0, 0]	n/a	catFR1	0	R1465D
484.78	0.967	509318	WORD_OFF	n/a	n/a	CABINET	Furniture	9	2	[0, 0, 0]	n/a	catFR1	0	R1465D
485.747	1.6	510270	WORD	n/a	wordpools/wordpool_categorized_EN.txt	DESK	Furniture	10	2	[0, 0, 0]	n/a	catFR1	0	R1465D
487.347	1.0	511871	WORD_OFF	n/a	n/a	DESK	Furniture	10	2	[0, 0, 0]	n/a	catFR1	0	R1465D
488.347	1.6	512873	WORD	n/a	wordpools/wordpool_categorized_EN.txt	TIGER	Zoo	11	2	[0, 0, 0]	n/a	catFR1	0	R1465D
489.947	0.933	514474	WORD_OFF	n/a	n/a	TIGER	Zoo	11	2	[0, 0, 0]	n/a	catFR1	0	R1465D
490.88	1.6	515407	WORD	n/a	wordpools/wordpool_categorized_EN.txt	LION	Zoo	12	2	[0, 0, 0]	n/a	catFR1	0	R1465D
492.48	0.002	517008	WORD_OFF	n/a	n/a	LION	Zoo	12	2	[0, 0, 0]	n/a	catFR1	0	R1465D
492.482	0.0	517008	ENCODING_END	n/a	n/a	n/a	n/a	-999	2	[0, 0, 0]	n/a	catFR1	0	R1465D
492.482	0.0	517008	DISTRACT_START	n/a	n/a	n/a	n/a	-999	2	[0, 0, 0]	n/a	catFR1	0	R1465D
492.481	0.001	517008	PROB	0.001	n/a	n/a	n/a	-999	2	[7, 7, 5]	19	catFR1	0	R1465D
492.482	3.548	517009	START	n/a	n/a	n/a	n/a	-999	2	[-999, -999, -999]	n/a	catFR1	0	R1465D
496.03	2.918	520556	PROB	2.918	n/a	n/a	n/a	-999	2	[8, 7, 5]	20	catFR1	0	R1465D
498.948	2.682	523474	PROB	2.682	n/a	n/a	n/a	-999	2	[5, 6, 3]	14	catFR1	0	R1465D
501.63	2.6	526156	PROB	2.6	n/a	n/a	n/a	-999	2	[3, 6, 7]	16	catFR1	0	R1465D
504.23	2.5	528756	PROB	2.5	n/a	n/a	n/a	-999	2	[8, 1, 3]	12	catFR1	0	R1465D
506.73	2.434	531256	PROB	2.434	n/a	n/a	n/a	-999	2	[4, 8, 6]	18	catFR1	0	R1465D
509.164	2.534	533690	PROB	2.534	n/a	n/a	n/a	-999	2	[6, 3, 1]	10	catFR1	0	R1465D
511.698	1.966	536224	PROB	1.966	n/a	n/a	n/a	-999	2	[2, 2, 6]	10	catFR1	0	R1465D
513.664	0.0	538189	STOP	n/a	n/a	n/a	n/a	-999	2	[-999, -999, -999]	n/a	catFR1	0	R1465D
513.664	1.266	538194	DISTRACT_END	n/a	n/a	n/a	n/a	-999	2	[0, 0, 0]	n/a	catFR1	0	R1465D
514.93	2.247	539461	REC_START	n/a	n/a	n/a	n/a	-999	2	[0, 0, 0]	n/a	catFR1	0	R1465D
517.177	1.184	541702	REC_WORD	1.184	n/a	TIGER	Zoo	11	2	[0, 0, 0]	n/a	catFR1	0	R1465D
518.361	1.326	542886	REC_WORD	1.326	n/a	LION	Zoo	12	2	[0, 0, 0]	n/a	catFR1	0	R1465D
519.687	1.442	544212	REC_WORD	1.442	n/a	ELEPHANT	Zoo	3	2	[0, 0, 0]	n/a	catFR1	0	R1465D
521.129	3.134	545654	REC_WORD	3.134	n/a	ANT	Insects	8	2	[0, 0, 0]	n/a	catFR1	0	R1465D
524.263	1.0	548788	REC_WORD	1.0	n/a	LADYBUG	Insects	1	2	[0, 0, 0]	n/a	catFR1	0	R1465D
525.263	2.683	549788	REC_WORD_VV	2.683	n/a	<>	n/a	-999	2	[0, 0, 0]	n/a	catFR1	0	R1465D
527.946	1.0	552471	REC_WORD	1.0	n/a	FLY	Insects	7	2	[0, 0, 0]	n/a	catFR1	0	R1465D
528.946	0.883	553471	REC_WORD_VV	0.883	n/a	<>	n/a	-999	2	[0, 0, 0]	n/a	catFR1	0	R1465D
529.829	1.0	554354	REC_WORD	1.0	n/a	BUTTERFLY	Insects	2	2	[0, 0, 0]	n/a	catFR1	0	R1465D
530.829	3.648	555354	REC_WORD_VV	3.648	n/a	<>	n/a	-999	2	[0, 0, 0]	n/a	catFR1	0	R1465D
534.477	1.0	559001	REC_WORD_VV	1.0	n/a	<>	n/a	-999	2	[0, 0, 0]	n/a	catFR1	0	R1465D
535.477	1.0	560001	REC_WORD_VV	1.0	n/a	<>	n/a	-999	2	[0, 0, 0]	n/a	catFR1	0	R1465D
536.477	1.811	561001	REC_WORD_VV	1.811	n/a	<>	n/a	-999	2	[0, 0, 0]	n/a	catFR1	0	R1465D
538.288	0.525	562812	REC_WORD	0.525	n/a	JELLO	n/a	-999	2	[0, 0, 0]	n/a	catFR1	0	R1465D
538.813	1.0	563337	REC_WORD	1.0	n/a	GUITAR	Instruments	-999	2	[0, 0, 0]	n/a	catFR1	0	R1465D
539.813	1.0	564337	REC_WORD_VV	1.0	n/a	<>	n/a	-999	2	[0, 0, 0]	n/a	catFR1	0	R1465D
540.813	1.0	565337	REC_WORD_VV	1.0	n/a	<>	n/a	-999	2	[0, 0, 0]	n/a	catFR1	0	R1465D
541.813	1.0	566337	REC_WORD_VV	1.0	n/a	<>	n/a	-999	2	[0, 0, 0]	n/a	catFR1	0	R1465D
542.813	3.341	567337	REC_WORD_VV	3.341	n/a	<>	n/a	-999	2	[0, 0, 0]	n/a	catFR1	0	R1465D
546.154	4.51	570684	REC_END	n/a	n/a	n/a	n/a	-999	2	[0, 0, 0]	n/a	catFR1	0	R1465D
550.664	10.349	575192	COUNTDOWN_START	n/a	n/a	n/a	n/a	-999	2	[0, 0, 0]	n/a	catFR1	0	R1465D
561.013	0.0	585535	COUNTDOWN_END	n/a	n/a	n/a	n/a	-999	2	[0, 0, 0]	n/a	catFR1	0	R1465D
561.013	2.117	585535	ENCODING_START	n/a	n/a	n/a	n/a	-999	3	[0, 0, 0]	n/a	catFR1	0	R1465D
563.13	1.617	587656	WORD	n/a	wordpools/wordpool_categorized_EN.txt	BLENDER	Appliances	1	3	[0, 0, 0]	n/a	catFR1	0	R1465D
564.747	0.833	589267	WORD_OFF	n/a	n/a	BLENDER	Appliances	1	3	[0, 0, 0]	n/a	catFR1	0	R1465D
565.58	1.617	590102	WORD	n/a	wordpools/wordpool_categorized_EN.txt	WASHER	Appliances	2	3	[0, 0, 0]	n/a	catFR1	0	R1465D
567.197	0.967	591722	WORD_OFF	n/a	n/a	WASHER	Appliances	2	3	[0, 0, 0]	n/a	catFR1	0	R1465D
568.164	1.6	592685	WORD	n/a	wordpools/wordpool_categorized_EN.txt	SPRUCE	Trees	3	3	[0, 0, 0]	n/a	catFR1	0	R1465D
569.764	0.816	594286	WORD_OFF	n/a	n/a	SPRUCE	Trees	3	3	[0, 0, 0]	n/a	catFR1	0	R1465D
570.58	1.617	595101	WORD	n/a	wordpools/wordpool_categorized_EN.txt	CYPRESS	Trees	4	3	[0, 0, 0]	n/a	catFR1	0	R1465D
572.197	0.949	596722	WORD_OFF	n/a	n/a	CYPRESS	Trees	4	3	[0, 0, 0]	n/a	catFR1	0	R1465D
573.146	1.601	597674	WORD	n/a	wordpools/wordpool_categorized_EN.txt	CHICKEN	FarmAnimals	5	3	[0, 0, 0]	n/a	catFR1	0	R1465D
574.747	0.933	599275	WORD_OFF	n/a	n/a	CHICKEN	FarmAnimals	5	3	[0, 0, 0]	n/a	catFR1	0	R1465D
575.68	1.617	600208	WORD	n/a	wordpools/wordpool_categorized_EN.txt	GOAT	FarmAnimals	6	3	[0, 0, 0]	n/a	catFR1	0	R1465D
577.297	0.998	601819	WORD_OFF	n/a	n/a	GOAT	FarmAnimals	6	3	[0, 0, 0]	n/a	catFR1	0	R1465D
578.295	1.602	602821	WORD	n/a	wordpools/wordpool_categorized_EN.txt	MAPLE	Trees	7	3	[0, 0, 0]	n/a	catFR1	0	R1465D
579.897	0.934	604422	WORD_OFF	n/a	n/a	MAPLE	Trees	7	3	[0, 0, 0]	n/a	catFR1	0	R1465D
580.831	1.599	605355	WORD	n/a	wordpools/wordpool_categorized_EN.txt	PINE	Trees	8	3	[0, 0, 0]	n/a	catFR1	0	R1465D
582.43	0.784	606956	WORD_OFF	n/a	n/a	PINE	Trees	8	3	[0, 0, 0]	n/a	catFR1	0	R1465D
583.214	1.616	607732	WORD	n/a	wordpools/wordpool_categorized_EN.txt	CALF	FarmAnimals	9	3	[0, 0, 0]	n/a	catFR1	0	R1465D
584.83	0.833	609352	WORD_OFF	n/a	n/a	CALF	FarmAnimals	9	3	[0, 0, 0]	n/a	catFR1	0	R1465D
585.663	1.6	610187	WORD	n/a	wordpools/wordpool_categorized_EN.txt	LAMB	FarmAnimals	10	3	[0, 0, 0]	n/a	catFR1	0	R1465D
587.263	0.984	611788	WORD_OFF	n/a	n/a	LAMB	FarmAnimals	10	3	[0, 0, 0]	n/a	catFR1	0	R1465D
588.247	1.617	612770	WORD	n/a	wordpools/wordpool_categorized_EN.txt	REFRIGERATOR	Appliances	11	3	[0, 0, 0]	n/a	catFR1	0	R1465D
589.864	0.9	614391	WORD_OFF	n/a	n/a	REFRIGERATOR	Appliances	11	3	[0, 0, 0]	n/a	catFR1	0	R1465D
590.764	1.6	615285	WORD	n/a	wordpools/wordpool_categorized_EN.txt	TOASTER	Appliances	12	3	[0, 0, 0]	n/a	catFR1	0	R1465D
592.364	0.0	616885	PROB	0.0	n/a	n/a	n/a	-999	3	[3, 4, 3]	10	catFR1	0	R1465D
592.364	0.001	616886	WORD_OFF	n/a	n/a	TOASTER	Appliances	12	3	[0, 0, 0]	n/a	catFR1	0	R1465D
592.365	0.0	616886	ENCODING_END	n/a	n/a	n/a	n/a	-999	3	[0, 0, 0]	n/a	catFR1	0	R1465D
592.365	0.0	616886	START	n/a	n/a	n/a	n/a	-999	3	[-999, -999, -999]	n/a	catFR1	0	R1465D
592.365	3.515	616895	DISTRACT_START	n/a	n/a	n/a	n/a	-999	3	[0, 0, 0]	n/a	catFR1	0	R1465D
595.88	2.218	620401	PROB	2.218	n/a	n/a	n/a	-999	3	[3, 2, 3]	8	catFR1	0	R1465D
598.098	2.784	622619	PROB	2.784	n/a	n/a	n/a	-999	3	[8, 5, 8]	21	catFR1	0	R1465D
600.882	2.165	625403	PROB	2.165	n/a	n/a	n/a	-999	3	[4, 5, 2]	11	catFR1	0	R1465D
603.047	2.134	627568	PROB	2.134	n/a	n/a	n/a	-999	3	[8, 4, 2]	14	catFR1	0	R1465D
605.181	2.033	629702	PROB	2.033	n/a	n/a	n/a	-999	3	[8, 1, 4]	13	catFR1	0	R1465D
607.214	2.383	631734	PROB	2.383	n/a	n/a	n/a	-999	3	[7, 2, 4]	13	catFR1	0	R1465D
609.597	2.866	634117	PROB	2.866	n/a	n/a	n/a	-999	3	[6, 7, 4]	17	catFR1	0	R1465D
612.463	0.0	636981	DISTRACT_END	n/a	n/a	n/a	n/a	-999	3	[0, 0, 0]	n/a	catFR1	0	R1465D
612.463	1.384	636983	STOP	n/a	n/a	n/a	n/a	-999	3	[-999, -999, -999]	n/a	catFR1	0	R1465D
613.847	1.888	638366	REC_START	n/a	n/a	n/a	n/a	-999	3	[0, 0, 0]	n/a	catFR1	0	R1465D
615.735	1.035	640255	REC_WORD	1.035	n/a	BIRCH	Trees	-999	3	[0, 0, 0]	n/a	catFR1	0	R1465D
616.77	1.0	641290	REC_WORD	1.0	n/a	SPRUCE	Trees	3	3	[0, 0, 0]	n/a	catFR1	0	R1465D
617.77	0.89	642290	REC_WORD_VV	0.89	n/a	<>	n/a	-999	3	[0, 0, 0]	n/a	catFR1	0	R1465D
618.66	1.0	643180	REC_WORD	1.0	n/a	REFRIGERATOR	Appliances	11	3	[0, 0, 0]	n/a	catFR1	0	R1465D
619.66	7.324	644180	REC_WORD_VV	7.324	n/a	<>	n/a	-999	3	[0, 0, 0]	n/a	catFR1	0	R1465D
626.984	1.0	651503	REC_WORD_VV	1.0	n/a	<>	n/a	-999	3	[0, 0, 0]	n/a	catFR1	0	R1465D
627.984	1.0	652503	REC_WORD_VV	1.0	n/a	<>	n/a	-999	3	[0, 0, 0]	n/a	catFR1	0	R1465D
628.984	1.0	653503	REC_WORD_VV	1.0	n/a	<>	n/a	-999	3	[0, 0, 0]	n/a	catFR1	0	R1465D
629.984	1.0	654503	REC_WORD_VV	1.0	n/a	<>	n/a	-999	3	[0, 0, 0]	n/a	catFR1	0	R1465D
630.984	1.0	655503	REC_WORD_VV	1.0	n/a	<>	n/a	-999	3	[0, 0, 0]	n/a	catFR1	0	R1465D
631.984	1.0	656503	REC_WORD_VV	1.0	n/a	<>	n/a	-999	3	[0, 0, 0]	n/a	catFR1	0	R1465D
632.984	1.0	657503	REC_WORD_VV	1.0	n/a	<>	n/a	-999	3	[0, 0, 0]	n/a	catFR1	0	R1465D
633.984	1.0	658503	REC_WORD_VV	1.0	n/a	<>	n/a	-999	3	[0, 0, 0]	n/a	catFR1	0	R1465D
634.984	1.5	659503	REC_WORD_VV	1.5	n/a	<>	n/a	-999	3	[0, 0, 0]	n/a	catFR1	0	R1465D
636.484	1.0	661003	REC_WORD_VV	1.0	n/a	<>	n/a	-999	3	[0, 0, 0]	n/a	catFR1	0	R1465D
637.484	1.0	662003	REC_WORD_VV	1.0	n/a	<>	n/a	-999	3	[0, 0, 0]	n/a	catFR1	0	R1465D
638.484	1.0	663003	REC_WORD_VV	1.0	n/a	<>	n/a	-999	3	[0, 0, 0]	n/a	catFR1	0	R1465D
639.484	1.0	664003	REC_WORD_VV	1.0	n/a	<>	n/a	-999	3	[0, 0, 0]	n/a	catFR1	0	R1465D
640.484	4.599	665003	REC_WORD_VV	4.599	n/a	<>	n/a	-999	3	[0, 0, 0]	n/a	catFR1	0	R1465D
645.083	19.864	669599	REC_END	n/a	n/a	n/a	n/a	-999	3	[0, 0, 0]	n/a	catFR1	0	R1465D
664.947	10.349	689469	COUNTDOWN_START	n/a	n/a	n/a	n/a	-999	3	[0, 0, 0]	n/a	catFR1	0	R1465D
675.296	0.0	699811	COUNTDOWN_END	n/a	n/a	n/a	n/a	-999	3	[0, 0, 0]	n/a	catFR1	0	R1465D
675.296	2.033	699821	ENCODING_START	n/a	n/a	n/a	n/a	-999	4	[0, 0, 0]	n/a	catFR1	0	R1465D
677.329	1.602	701844	WORD	n/a	wordpools/wordpool_categorized_EN.txt	LADLE	KitchenTools	1	4	[0, 0, 0]	n/a	catFR1	0	R1465D
678.931	0.915	703445	WORD_OFF	n/a	n/a	LADLE	KitchenTools	1	4	[0, 0, 0]	n/a	catFR1	0	R1465D
679.846	1.601	704368	WORD	n/a	wordpools/wordpool_categorized_EN.txt	SPOON	KitchenTools	2	4	[0, 0, 0]	n/a	catFR1	0	R1465D
681.447	0.833	705969	WORD_OFF	n/a	n/a	SPOON	KitchenTools	2	4	[0, 0, 0]	n/a	catFR1	0	R1465D
682.28	1.616	706794	WORD	n/a	wordpools/wordpool_categorized_EN.txt	RIVER	Landscapes	3	4	[0, 0, 0]	n/a	catFR1	0	R1465D
683.896	0.801	708415	WORD_OFF	n/a	n/a	RIVER	Landscapes	3	4	[0, 0, 0]	n/a	catFR1	0	R1465D
684.697	1.6	709210	WORD	n/a	wordpools/wordpool_categorized_EN.txt	CREEK	Landscapes	4	4	[0, 0, 0]	n/a	catFR1	0	R1465D
686.297	0.867	710811	WORD_OFF	n/a	n/a	CREEK	Landscapes	4	4	[0, 0, 0]	n/a	catFR1	0	R1465D
687.164	1.616	711685	WORD	n/a	wordpools/wordpool_categorized_EN.txt	TORNADO	Weather	5	4	[0, 0, 0]	n/a	catFR1	0	R1465D
688.78	0.917	713296	WORD_OFF	n/a	n/a	TORNADO	Weather	5	4	[0, 0, 0]	n/a	catFR1	0	R1465D
689.697	1.6	714210	WORD	n/a	wordpools/wordpool_categorized_EN.txt	THUNDERSTORM	Weather	6	4	[0, 0, 0]	n/a	catFR1	0	R1465D
691.297	0.999	715811	WORD_OFF	n/a	n/a	THUNDERSTORM	Weather	6	4	[0, 0, 0]	n/a	catFR1	0	R1465D
692.296	1.601	716812	WORD	n/a	wordpools/wordpool_categorized_EN.txt	FORK	KitchenTools	7	4	[0, 0, 0]	n/a	catFR1	0	R1465D
693.897	0.764	718413	WORD_OFF	n/a	n/a	FORK	KitchenTools	7	4	[0, 0, 0]	n/a	catFR1	0	R1465D
694.661	1.603	719179	WORD	n/a	wordpools/wordpool_categorized_EN.txt	COLANDER	KitchenTools	8	4	[0, 0, 0]	n/a	catFR1	0	R1465D
696.264	0.916	720780	WORD_OFF	n/a	n/a	COLANDER	KitchenTools	8	4	[0, 0, 0]	n/a	catFR1	0	R1465D
697.18	1.6	721694	WORD	n/a	wordpools/wordpool_categorized_EN.txt	FOG	Weather	9	4	[0, 0, 0]	n/a	catFR1	0	R1465D
698.78	0.968	723295	WORD_OFF	n/a	n/a	FOG	Weather	9	4	[0, 0, 0]	n/a	catFR1	0	R1465D
699.748	1.616	724267	WORD	n/a	wordpools/wordpool_categorized_EN.txt	LIGHTNING	Weather	10	4	[0, 0, 0]	n/a	catFR1	0	R1465D
701.364	1.0	725878	WORD_OFF	n/a	n/a	LIGHTNING	Weather	10	4	[0, 0, 0]	n/a	catFR1	0	R1465D
702.364	1.6	726880	WORD	n/a	wordpools/wordpool_categorized_EN.txt	STREAM	Landscapes	11	4	[0, 0, 0]	n/a	catFR1	0	R1465D
703.964	0.915	728481	WORD_OFF	n/a	n/a	STREAM	Landscapes	11	4	[0, 0, 0]	n/a	catFR1	0	R1465D
704.879	1.601	729394	WORD	n/a	wordpools/wordpool_categorized_EN.txt	BEACH	Landscapes	12	4	[0, 0, 0]	n/a	catFR1	0	R1465D
706.48	0.001	730995	WORD_OFF	n/a	n/a	BEACH	Landscapes	12	4	[0, 0, 0]	n/a	catFR1	0	R1465D
706.481	0.003	730996	PROB	0.003	n/a	n/a	n/a	-999	4	[7, 5, 2]	14	catFR1	0	R1465D
706.484	0.0	730999	START	n/a	n/a	n/a	n/a	-999	4	[-999, -999, -999]	n/a	catFR1	0	R1465D
706.484	0.0	731005	ENCODING_END	n/a	n/a	n/a	n/a	-999	4	[0, 0, 0]	n/a	catFR1	0	R1465D
706.484	3.496	731005	DISTRACT_START	n/a	n/a	n/a	n/a	-999	4	[0, 0, 0]	n/a	catFR1	0	R1465D
709.98	1.9	734495	PROB	1.9	n/a	n/a	n/a	-999	4	[4, 1, 6]	11	catFR1	0	R1465D
711.88	2.183	736395	PROB	2.183	n/a	n/a	n/a	-999	4	[1, 8, 7]	16	catFR1	0	R1465D
714.063	1.35	738578	PROB	1.35	n/a	n/a	n/a	-999	4	[8, 2, 1]	11	catFR1	0	R1465D
715.413	2.185	739928	PROB	2.185	n/a	n/a	n/a	-999	4	[6, 6, 5]	17	catFR1	0	R1465D
717.598	2.333	742113	PROB	2.333	n/a	n/a	n/a	-999	4	[2, 1, 5]	8	catFR1	0	R1465D
719.931	2.567	744445	PROB	2.567	n/a	n/a	n/a	-999	4	[4, 8, 4]	16	catFR1	0	R1465D
722.498	1.833	747012	PROB	1.833	n/a	n/a	n/a	-999	4	[7, 4, 3]	14	catFR1	0	R1465D
724.331	1.916	748845	PROB	1.916	n/a	n/a	n/a	-999	4	[2, 5, 8]	15	catFR1	0	R1465D
726.247	2.45	750761	PROB	2.45	n/a	n/a	n/a	-999	4	[1, 6, 2]	9	catFR1	0	R1465D
728.697	0.0	753211	STOP	n/a	n/a	n/a	n/a	-999	4	[-999, -999, -999]	n/a	catFR1	0	R1465D
728.697	1.167	753212	DISTRACT_END	n/a	n/a	n/a	n/a	-999	4	[0, 0, 0]	n/a	catFR1	0	R1465D
729.864	1.096	754381	REC_START	n/a	n/a	n/a	n/a	-999	4	[0, 0, 0]	n/a	catFR1	0	R1465D
730.96	1.0	755474	REC_WORD	1.0	n/a	FOG	Weather	9	4	[0, 0, 0]	n/a	catFR1	0	R1465D
731.96	0.199	756474	REC_WORD_VV	0.199	n/a	<>	n/a	-999	4	[0, 0, 0]	n/a	catFR1	0	R1465D
732.159	0.77	756673	REC_WORD	0.77	n/a	LIGHTNING	Weather	10	4	[0, 0, 0]	n/a	catFR1	0	R1465D
732.929	1.389	757443	REC_WORD	1.389	n/a	THUNDER	n/a	-999	4	[0, 0, 0]	n/a	catFR1	0	R1465D
734.318	1.243	758832	REC_WORD	1.243	n/a	CRADLE	n/a	-999	4	[0, 0, 0]	n/a	catFR1	0	R1465D
735.561	2.067	760075	REC_WORD	2.067	n/a	RIVER	Landscapes	3	4	[0, 0, 0]	n/a	catFR1	0	R1465D
737.628	1.133	762141	REC_WORD	1.133	n/a	LADLE	KitchenTools	1	4	[0, 0, 0]	n/a	catFR1	0	R1465D
738.761	1.0	763274	REC_WORD	1.0	n/a	FORK	KitchenTools	7	4	[0, 0, 0]	n/a	catFR1	0	R1465D
739.761	0.454	764274	REC_WORD_VV	0.454	n/a	<>	n/a	-999	4	[0, 0, 0]	n/a	catFR1	0	R1465D
740.215	6.768	764728	REC_WORD	6.768	n/a	SPOON	KitchenTools	2	4	[0, 0, 0]	n/a	catFR1	0	R1465D
746.983	1.0	771496	REC_WORD_VV	1.0	n/a	<>	n/a	-999	4	[0, 0, 0]	n/a	catFR1	0	R1465D
747.983	1.0	772496	REC_WORD_VV	1.0	n/a	<>	n/a	-999	4	[0, 0, 0]	n/a	catFR1	0	R1465D
748.983	2.219	773496	REC_WORD_VV	2.219	n/a	<>	n/a	-999	4	[0, 0, 0]	n/a	catFR1	0	R1465D
751.202	2.288	775715	REC_WORD	2.288	n/a	RIVER	Landscapes	3	4	[0, 0, 0]	n/a	catFR1	0	R1465D
753.49	0.546	778003	REC_WORD	0.546	n/a	LADLE	KitchenTools	1	4	[0, 0, 0]	n/a	catFR1	0	R1465D
754.036	0.68	778549	REC_WORD	0.68	n/a	THUNDER	n/a	-999	4	[0, 0, 0]	n/a	catFR1	0	R1465D
754.716	2.023	779229	REC_WORD	2.023	n/a	FOG	Weather	9	4	[0, 0, 0]	n/a	catFR1	0	R1465D
756.739	2.21	781251	REC_WORD	2.21	n/a	LIGHTNING	Weather	10	4	[0, 0, 0]	n/a	catFR1	0	R1465D
758.949	2.136	783461	REC_WORD	2.136	n/a	THUNDERSTORM	Weather	6	4	[0, 0, 0]	n/a	catFR1	0	R1465D
761.085	6.395	785594	REC_END	n/a	n/a	n/a	n/a	-999	4	[0, 0, 0]	n/a	catFR1	0	R1465D
767.48	10.35	791998	COUNTDOWN_START	n/a	n/a	n/a	n/a	-999	4	[0, 0, 0]	n/a	catFR1	0	R1465D
777.83	0.0	802340	COUNTDOWN_END	n/a	n/a	n/a	n/a	-999	4	[0, 0, 0]	n/a	catFR1	0	R1465D
777.83	2.099	802340	ENCODING_START	n/a	n/a	n/a	n/a	-999	5	[0, 0, 0]	n/a	catFR1	0	R1465D
779.929	1.601	804442	WORD	n/a	wordpools/wordpool_categorized_EN.txt	FUDGE	Desserts	1	5	[0, 0, 0]	n/a	catFR1	0	R1465D
781.53	0.767	806043	WORD_OFF	n/a	n/a	FUDGE	Desserts	1	5	[0, 0, 0]	n/a	catFR1	0	R1465D
782.297	1.6	806809	WORD	n/a	wordpools/wordpool_categorized_EN.txt	CHEESECAKE	Desserts	2	5	[0, 0, 0]	n/a	catFR1	0	R1465D
783.897	0.983	808410	WORD_OFF	n/a	n/a	CHEESECAKE	Desserts	2	5	[0, 0, 0]	n/a	catFR1	0	R1465D
784.88	1.6	809392	WORD	n/a	wordpools/wordpool_categorized_EN.txt	CEDAR	Trees	3	5	[0, 0, 0]	n/a	catFR1	0	R1465D
786.48	0.801	810993	WORD_OFF	n/a	n/a	CEDAR	Trees	3	5	[0, 0, 0]	n/a	catFR1	0	R1465D
787.281	1.616	811789	WORD	n/a	wordpools/wordpool_categorized_EN.txt	HICKORY	Trees	4	5	[0, 0, 0]	n/a	catFR1	0	R1465D
788.897	0.799	813410	WORD_OFF	n/a	n/a	HICKORY	Trees	4	5	[0, 0, 0]	n/a	catFR1	0	R1465D
789.696	1.601	814205	WORD	n/a	wordpools/wordpool_categorized_EN.txt	FLEECE	Fabric	5	5	[0, 0, 0]	n/a	catFR1	0	R1465D
791.297	0.916	815806	WORD_OFF	n/a	n/a	FLEECE	Fabric	5	5	[0, 0, 0]	n/a	catFR1	0	R1465D
792.213	1.6	816719	WORD	n/a	wordpools/wordpool_categorized_EN.txt	DENIM	Fabric	6	5	[0, 0, 0]	n/a	catFR1	0	R1465D
793.813	0.817	818320	WORD_OFF	n/a	n/a	DENIM	Fabric	6	5	[0, 0, 0]	n/a	catFR1	0	R1465D
794.63	1.617	819145	WORD	n/a	wordpools/wordpool_categorized_EN.txt	ELM	Trees	7	5	[0, 0, 0]	n/a	catFR1	0	R1465D
796.247	0.817	820756	WORD_OFF	n/a	n/a	ELM	Trees	7	5	[0, 0, 0]	n/a	catFR1	0	R1465D
797.064	1.616	821571	WORD	n/a	wordpools/wordpool_categorized_EN.txt	OAK	Trees	8	5	[0, 0, 0]	n/a	catFR1	0	R1465D
798.68	0.867	823192	WORD_OFF	n/a	n/a	OAK	Trees	8	5	[0, 0, 0]	n/a	catFR1	0	R1465D
799.547	1.616	824056	WORD	n/a	wordpools/wordpool_categorized_EN.txt	VELVET	Fabric	9	5	[0, 0, 0]	n/a	catFR1	0	R1465D
801.163	0.917	825677	WORD_OFF	n/a	n/a	VELVET	Fabric	9	5	[0, 0, 0]	n/a	catFR1	0	R1465D
802.08	1.617	826590	WORD	n/a	wordpools/wordpool_categorized_EN.txt	SATIN	Fabric	10	5	[0, 0, 0]	n/a	catFR1	0	R1465D
803.697	0.801	828211	WORD_OFF	n/a	n/a	SATIN	Fabric	10	5	[0, 0, 0]	n/a	catFR1	0	R1465D
804.498	1.615	829007	WORD	n/a	wordpools/wordpool_categorized_EN.txt	BROWNIES	Desserts	11	5	[0, 0, 0]	n/a	catFR1	0	R1465D
806.113	0.767	830627	WORD_OFF	n/a	n/a	BROWNIES	Desserts	11	5	[0, 0, 0]	n/a	catFR1	0	R1465D
806.88	1.617	831393	WORD	n/a	wordpools/wordpool_categorized_EN.txt	COBBLER	Desserts	12	5	[0, 0, 0]	n/a	catFR1	0	R1465D
808.497	0.002	833007	PROB	0.002	n/a	n/a	n/a	-999	5	[2, 3, 5]	10	catFR1	0	R1465D
808.499	0.0	833009	START	n/a	n/a	n/a	n/a	-999	5	[-999, -999, -999]	n/a	catFR1	0	R1465D
808.498	0.001	833014	WORD_OFF	n/a	n/a	COBBLER	Desserts	12	5	[0, 0, 0]	n/a	catFR1	0	R1465D
808.499	0.0	833014	ENCODING_END	n/a	n/a	n/a	n/a	-999	5	[0, 0, 0]	n/a	catFR1	0	R1465D
808.499	3.349	833014	DISTRACT_START	n/a	n/a	n/a	n/a	-999	5	[0, 0, 0]	n/a	catFR1	0	R1465D
811.848	2.567	836358	PROB	2.567	n/a	n/a	n/a	-999	5	[3, 4, 5]	12	catFR1	0	R1465D
814.415	1.933	838924	PROB	1.933	n/a	n/a	n/a	-999	5	[5, 1, 7]	13	catFR1	0	R1465D
816.348	2.234	840857	PROB	2.234	n/a	n/a	n/a	-999	5	[8, 5, 5]	18	catFR1	0	R1465D
818.582	1.532	843091	PROB	1.532	n/a	n/a	n/a	-999	5	[1, 8, 2]	11	catFR1	0	R1465D
820.114	2.499	844623	PROB	2.499	n/a	n/a	n/a	-999	5	[2, 7, 4]	13	catFR1	0	R1465D
822.613	2.75	847122	PROB	2.75	n/a	n/a	n/a	-999	5	[5, 7, 8]	20	catFR1	0	R1465D
825.363	2.485	849872	PROB	2.485	n/a	n/a	n/a	-999	5	[6, 5, 7]	18	catFR1	0	R1465D
827.848	2.166	852357	PROB	2.166	n/a	n/a	n/a	-999	5	[1, 7, 1]	9	catFR1	0	R1465D
830.014	0.0	854523	DISTRACT_END	n/a	n/a	n/a	n/a	-999	5	[0, 0, 0]	n/a	catFR1	0	R1465D
830.014	1.083	854523	STOP	n/a	n/a	n/a	n/a	-999	5	[-999, -999, -999]	n/a	catFR1	0	R1465D
831.097	0.829	855604	REC_START	n/a	n/a	n/a	n/a	-999	5	[0, 0, 0]	n/a	catFR1	0	R1465D
831.926	1.282	856434	REC_WORD	1.282	n/a	FUDGE	Desserts	1	5	[0, 0, 0]	n/a	catFR1	0	R1465D
833.208	1.0	857716	REC_WORD	1.0	n/a	BROWNIES	Desserts	11	5	[0, 0, 0]	n/a	catFR1	0	R1465D
834.208	3.192	858716	REC_WORD_VV	3.192	n/a	<>	n/a	-999	5	[0, 0, 0]	n/a	catFR1	0	R1465D
837.4	2.517	861908	REC_WORD	2.517	n/a	ELM	Trees	7	5	[0, 0, 0]	n/a	catFR1	0	R1465D
839.917	3.472	864425	REC_WORD	3.472	n/a	CEDAR	Trees	3	5	[0, 0, 0]	n/a	catFR1	0	R1465D
843.389	2.455	867897	REC_WORD	2.455	n/a	SATIN	Fabric	10	5	[0, 0, 0]	n/a	catFR1	0	R1465D
845.844	2.207	870352	REC_WORD	2.207	n/a	LEATHER	Fabric	-999	5	[0, 0, 0]	n/a	catFR1	0	R1465D
848.051	3.967	872559	REC_WORD	3.967	n/a	DENIM	Fabric	6	5	[0, 0, 0]	n/a	catFR1	0	R1465D
852.018	5.96	876525	REC_WORD	5.96	n/a	SILK	Fabric	-999	5	[0, 0, 0]	n/a	catFR1	0	R1465D
857.978	1.0	882485	REC_WORD_VV	1.0	n/a	<>	n/a	-999	5	[0, 0, 0]	n/a	catFR1	0	R1465D
858.978	1.0	883485	REC_WORD_VV	1.0	n/a	<>	n/a	-999	5	[0, 0, 0]	n/a	catFR1	0	R1465D
859.978	1.0	884485	REC_WORD_VV	1.0	n/a	<>	n/a	-999	5	[0, 0, 0]	n/a	catFR1	0	R1465D
860.978	1.375	885485	REC_WORD_VV	1.375	n/a	<>	n/a	-999	5	[0, 0, 0]	n/a	catFR1	0	R1465D
862.353	12.577	886857	REC_END	n/a	n/a	n/a	n/a	-999	5	[0, 0, 0]	n/a	catFR1	0	R1465D
874.93	10.351	899438	COUNTDOWN_START	n/a	n/a	n/a	n/a	-999	5	[0, 0, 0]	n/a	catFR1	0	R1465D
885.281	0.0	909791	COUNTDOWN_END	n/a	n/a	n/a	n/a	-999	5	[0, 0, 0]	n/a	catFR1	0	R1465D
885.281	2.133	909791	ENCODING_START	n/a	n/a	n/a	n/a	-999	6	[0, 0, 0]	n/a	catFR1	0	R1465D
887.414	1.6	911922	WORD	n/a	wordpools/wordpool_categorized_EN.txt	CAR	Vehicles	1	6	[0, 0, 0]	n/a	catFR1	0	R1465D
889.014	0.899	913523	WORD_OFF	n/a	n/a	CAR	Vehicles	1	6	[0, 0, 0]	n/a	catFR1	0	R1465D
889.913	1.616	914417	WORD	n/a	wordpools/wordpool_categorized_EN.txt	BOAT	Vehicles	2	6	[0, 0, 0]	n/a	catFR1	0	R1465D
891.529	0.885	916037	WORD_OFF	n/a	n/a	BOAT	Vehicles	2	6	[0, 0, 0]	n/a	catFR1	0	R1465D
892.414	1.615	916921	WORD	n/a	wordpools/wordpool_categorized_EN.txt	BARBIE	Toys	3	6	[0, 0, 0]	n/a	catFR1	0	R1465D
894.029	0.884	918532	WORD_OFF	n/a	n/a	BARBIE	Toys	3	6	[0, 0, 0]	n/a	catFR1	0	R1465D
894.913	1.6	919416	WORD	n/a	wordpools/wordpool_categorized_EN.txt	BLOCKS	Toys	4	6	[0, 0, 0]	n/a	catFR1	0	R1465D
896.513	0.867	921017	WORD_OFF	n/a	n/a	BLOCKS	Toys	4	6	[0, 0, 0]	n/a	catFR1	0	R1465D
897.38	1.601	921881	WORD	n/a	wordpools/wordpool_categorized_EN.txt	TURTLE	OceanAnimals	5	6	[0, 0, 0]	n/a	catFR1	0	R1465D
898.981	0.866	923482	WORD_OFF	n/a	n/a	TURTLE	OceanAnimals	5	6	[0, 0, 0]	n/a	catFR1	0	R1465D
899.847	1.616	924356	WORD	n/a	wordpools/wordpool_categorized_EN.txt	JELLYFISH	OceanAnimals	6	6	[0, 0, 0]	n/a	catFR1	0	R1465D
901.463	0.867	925967	WORD_OFF	n/a	n/a	JELLYFISH	OceanAnimals	6	6	[0, 0, 0]	n/a	catFR1	0	R1465D
902.33	1.616	926831	WORD	n/a	wordpools/wordpool_categorized_EN.txt	BUS	Vehicles	7	6	[0, 0, 0]	n/a	catFR1	0	R1465D
903.946	0.834	928452	WORD_OFF	n/a	n/a	BUS	Vehicles	7	6	[0, 0, 0]	n/a	catFR1	0	R1465D
904.78	1.617	929287	WORD	n/a	wordpools/wordpool_categorized_EN.txt	JEEP	Vehicles	8	6	[0, 0, 0]	n/a	catFR1	0	R1465D
906.397	1.0	930907	WORD_OFF	n/a	n/a	JEEP	Vehicles	8	6	[0, 0, 0]	n/a	catFR1	0	R1465D
907.397	1.617	931899	WORD	n/a	wordpools/wordpool_categorized_EN.txt	DOLLHOUSE	Toys	9	6	[0, 0, 0]	n/a	catFR1	0	R1465D
909.014	0.883	933520	WORD_OFF	n/a	n/a	DOLLHOUSE	Toys	9	6	[0, 0, 0]	n/a	catFR1	0	R1465D
909.897	1.6	934404	WORD	n/a	wordpools/wordpool_categorized_EN.txt	BASEBALL	Toys	10	6	[0, 0, 0]	n/a	catFR1	0	R1465D
911.497	0.866	936005	WORD_OFF	n/a	n/a	BASEBALL	Toys	10	6	[0, 0, 0]	n/a	catFR1	0	R1465D
912.363	1.6	936869	WORD	n/a	wordpools/wordpool_categorized_EN.txt	OCTOPUS	OceanAnimals	11	6	[0, 0, 0]	n/a	catFR1	0	R1465D
913.963	0.899	938470	WORD_OFF	n/a	n/a	OCTOPUS	OceanAnimals	11	6	[0, 0, 0]	n/a	catFR1	0	R1465D
914.862	1.6	939364	WORD	n/a	wordpools/wordpool_categorized_EN.txt	SQUID	OceanAnimals	12	6	[0, 0, 0]	n/a	catFR1	0	R1465D
916.462	0.001	940965	WORD_OFF	n/a	n/a	SQUID	OceanAnimals	12	6	[0, 0, 0]	n/a	catFR1	0	R1465D
916.463	0.0	940965	ENCODING_END	n/a	n/a	n/a	n/a	-999	6	[0, 0, 0]	n/a	catFR1	0	R1465D
916.463	0.0	940967	PROB	0.0	n/a	n/a	n/a	-999	6	[7, 6, 6]	19	catFR1	0	R1465D
916.463	0.0	940967	START	n/a	n/a	n/a	n/a	-999	6	[-999, -999, -999]	n/a	catFR1	0	R1465D
916.463	3.35	940975	DISTRACT_START	n/a	n/a	n/a	n/a	-999	6	[0, 0, 0]	n/a	catFR1	0	R1465D
919.813	1.951	944317	PROB	1.951	n/a	n/a	n/a	-999	6	[4, 4, 3]	11	catFR1	0	R1465D
921.764	2.216	946268	PROB	2.216	n/a	n/a	n/a	-999	6	[4, 5, 4]	13	catFR1	0	R1465D
923.98	2.167	948484	PROB	2.167	n/a	n/a	n/a	-999	6	[3, 3, 6]	12	catFR1	0	R1465D
926.147	3.15	950650	PROB	3.15	n/a	n/a	n/a	-999	6	[5, 3, 1]	9	catFR1	0	R1465D
929.297	1.9	953800	PROB	1.9	n/a	n/a	n/a	-999	6	[4, 6, 2]	12	catFR1	0	R1465D
931.197	1.766	955700	PROB	1.766	n/a	n/a	n/a	-999	6	[1, 8, 4]	13	catFR1	0	R1465D
932.963	2.369	957466	PROB	2.369	n/a	n/a	n/a	-999	6	[8, 4, 8]	20	catFR1	0	R1465D
935.332	1.715	959835	PROB	1.715	n/a	n/a	n/a	-999	6	[7, 1, 7]	15	catFR1	0	R1465D
937.047	0.0	961550	STOP	n/a	n/a	n/a	n/a	-999	6	[-999, -999, -999]	n/a	catFR1	0	R1465D
937.047	1.383	961551	DISTRACT_END	n/a	n/a	n/a	n/a	-999	6	[0, 0, 0]	n/a	catFR1	0	R1465D
938.43	1.276	962936	REC_START	n/a	n/a	n/a	n/a	-999	6	[0, 0, 0]	n/a	catFR1	0	R1465D
939.706	1.0	964209	REC_WORD	1.0	n/a	DOLLHOUSE	Toys	9	6	[0, 0, 0]	n/a	catFR1	0	R1465D
940.706	0.422	965209	REC_WORD_VV	0.422	n/a	<>	n/a	-999	6	[0, 0, 0]	n/a	catFR1	0	R1465D
941.128	1.744	965631	REC_WORD	1.744	n/a	BARBIE	Toys	3	6	[0, 0, 0]	n/a	catFR1	0	R1465D
942.872	1.47	967375	REC_WORD	1.47	n/a	CAR	Vehicles	1	6	[0, 0, 0]	n/a	catFR1	0	R1465D
944.342	7.626	968844	REC_WORD	7.626	n/a	BOAT	Vehicles	2	6	[0, 0, 0]	n/a	catFR1	0	R1465D
951.968	1.0	976470	REC_WORD_VV	1.0	n/a	<>	n/a	-999	6	[0, 0, 0]	n/a	catFR1	0	R1465D
952.968	1.0	977470	REC_WORD_VV	1.0	n/a	<>	n/a	-999	6	[0, 0, 0]	n/a	catFR1	0	R1465D
953.968	1.0	978470	REC_WORD_VV	1.0	n/a	<>	n/a	-999	6	[0, 0, 0]	n/a	catFR1	0	R1465D
954.968	3.403	979470	REC_WORD_VV	3.403	n/a	<>	n/a	-999	6	[0, 0, 0]	n/a	catFR1	0	R1465D
958.371	1.053	982873	REC_WORD	1.053	n/a	DOLLHOUSE	Toys	9	6	[0, 0, 0]	n/a	catFR1	0	R1465D
959.424	1.424	983926	REC_WORD	1.424	n/a	BOAT	Vehicles	2	6	[0, 0, 0]	n/a	catFR1	0	R1465D
960.848	3.126	985350	REC_WORD	3.126	n/a	BARBIE	Toys	3	6	[0, 0, 0]	n/a	catFR1	0	R1465D
963.974	0.76	988475	REC_WORD	0.76	n/a	CAR	Vehicles	1	6	[0, 0, 0]	n/a	catFR1	0	R1465D
964.734	1.918	989235	REC_WORD	1.918	n/a	BOAT	Vehicles	2	6	[0, 0, 0]	n/a	catFR1	0	R1465D
966.652	3.033	991153	REC_WORD	3.033	n/a	TRUCK	n/a	-999	6	[0, 0, 0]	n/a	catFR1	0	R1465D
969.685	18.545	994189	REC_END	n/a	n/a	n/a	n/a	-999	6	[0, 0, 0]	n/a	catFR1	0	R1465D
988.23	10.351	1012733	COUNTDOWN_START	n/a	n/a	n/a	n/a	-999	6	[0, 0, 0]	n/a	catFR1	0	R1465D
998.581	0.0	1023085	COUNTDOWN_END	n/a	n/a	n/a	n/a	-999	6	[0, 0, 0]	n/a	catFR1	0	R1465D
998.581	1.965	1023085	ENCODING_START	n/a	n/a	n/a	n/a	-999	7	[0, 0, 0]	n/a	catFR1	0	R1465D
1000.546	1.601	1025049	WORD	n/a	wordpools/wordpool_categorized_EN.txt	HURRICANE	Weather	1	7	[0, 0, 0]	n/a	catFR1	0	R1465D
1002.147	0.899	1026650	WORD_OFF	n/a	n/a	HURRICANE	Weather	1	7	[0, 0, 0]	n/a	catFR1	0	R1465D
1003.046	1.6	1027544	WORD	n/a	wordpools/wordpool_categorized_EN.txt	DRIZZLE	Weather	2	7	[0, 0, 0]	n/a	catFR1	0	R1465D
1004.646	0.833	1029145	WORD_OFF	n/a	n/a	DRIZZLE	Weather	2	7	[0, 0, 0]	n/a	catFR1	0	R1465D
1005.479	1.601	1029980	WORD	n/a	wordpools/wordpool_categorized_EN.txt	MOTH	Insects	3	7	[0, 0, 0]	n/a	catFR1	0	R1465D
1007.08	0.767	1031581	WORD_OFF	n/a	n/a	MOTH	Insects	3	7	[0, 0, 0]	n/a	catFR1	0	R1465D
1007.847	1.616	1032347	WORD	n/a	wordpools/wordpool_categorized_EN.txt	BEETLE	Insects	4	7	[0, 0, 0]	n/a	catFR1	0	R1465D
1009.463	0.784	1033967	WORD_OFF	n/a	n/a	BEETLE	Insects	4	7	[0, 0, 0]	n/a	catFR1	0	R1465D
1010.247	1.617	1034743	WORD	n/a	wordpools/wordpool_categorized_EN.txt	LEMON	Fruit	5	7	[0, 0, 0]	n/a	catFR1	0	R1465D
1011.864	0.95	1036364	WORD_OFF	n/a	n/a	LEMON	Fruit	5	7	[0, 0, 0]	n/a	catFR1	0	R1465D
1012.814	1.6	1037317	WORD	n/a	wordpools/wordpool_categorized_EN.txt	CHERRY	Fruit	6	7	[0, 0, 0]	n/a	catFR1	0	R1465D
1014.414	0.867	1038917	WORD_OFF	n/a	n/a	CHERRY	Fruit	6	7	[0, 0, 0]	n/a	catFR1	0	R1465D
1015.281	1.616	1039782	WORD	n/a	wordpools/wordpool_categorized_EN.txt	ROACH	Insects	7	7	[0, 0, 0]	n/a	catFR1	0	R1465D
1016.897	0.85	1041393	WORD_OFF	n/a	n/a	ROACH	Insects	7	7	[0, 0, 0]	n/a	catFR1	0	R1465D
1017.747	1.6	1042247	WORD	n/a	wordpools/wordpool_categorized_EN.txt	SPIDER	Insects	8	7	[0, 0, 0]	n/a	catFR1	0	R1465D
1019.347	0.8	1043848	WORD_OFF	n/a	n/a	SPIDER	Insects	8	7	[0, 0, 0]	n/a	catFR1	0	R1465D
1020.147	1.6	1044644	WORD	n/a	wordpools/wordpool_categorized_EN.txt	THUNDER	Weather	9	7	[0, 0, 0]	n/a	catFR1	0	R1465D
1021.747	0.784	1046245	WORD_OFF	n/a	n/a	THUNDER	Weather	9	7	[0, 0, 0]	n/a	catFR1	0	R1465D
1022.531	1.616	1047030	WORD	n/a	wordpools/wordpool_categorized_EN.txt	RAIN	Weather	10	7	[0, 0, 0]	n/a	catFR1	0	R1465D
1024.147	0.784	1048651	WORD_OFF	n/a	n/a	RAIN	Weather	10	7	[0, 0, 0]	n/a	catFR1	0	R1465D
1024.931	1.599	1049427	WORD	n/a	wordpools/wordpool_categorized_EN.txt	ORANGE	Fruit	11	7	[0, 0, 0]	n/a	catFR1	0	R1465D
1026.53	0.95	1051028	WORD_OFF	n/a	n/a	ORANGE	Fruit	11	7	[0, 0, 0]	n/a	catFR1	0	R1465D
1027.48	1.617	1051980	WORD	n/a	wordpools/wordpool_categorized_EN.txt	PLUM	Fruit	12	7	[0, 0, 0]	n/a	catFR1	0	R1465D
1029.097	0.001	1053591	WORD_OFF	n/a	n/a	PLUM	Fruit	12	7	[0, 0, 0]	n/a	catFR1	0	R1465D
1029.098	0.003	1053596	PROB	0.003	n/a	n/a	n/a	-999	7	[6, 6, 7]	19	catFR1	0	R1465D
1029.101	0.0	1053599	START	n/a	n/a	n/a	n/a	-999	7	[-999, -999, -999]	n/a	catFR1	0	R1465D
1029.101	0.0	1053601	ENCODING_END	n/a	n/a	n/a	n/a	-999	7	[0, 0, 0]	n/a	catFR1	0	R1465D
1029.101	3.247	1053601	DISTRACT_START	n/a	n/a	n/a	n/a	-999	7	[0, 0, 0]	n/a	catFR1	0	R1465D
1032.348	1.882	1056846	PROB	1.882	n/a	n/a	n/a	-999	7	[6, 5, 4]	15	catFR1	0	R1465D
1034.23	1.55	1058728	PROB	1.55	n/a	n/a	n/a	-999	7	[1, 1, 6]	8	catFR1	0	R1465D
1035.78	2.034	1060278	PROB	2.034	n/a	n/a	n/a	-999	7	[4, 6, 6]	16	catFR1	0	R1465D
1037.814	2.199	1062311	PROB	2.199	n/a	n/a	n/a	-999	7	[6, 2, 2]	10	catFR1	0	R1465D
1040.013	1.951	1064510	PROB	1.951	n/a	n/a	n/a	-999	7	[7, 4, 2]	13	catFR1	0	R1465D
1041.964	1.884	1066461	PROB	1.884	n/a	n/a	n/a	-999	7	[6, 2, 3]	11	catFR1	0	R1465D
1043.848	1.5	1068345	PROB	1.5	n/a	n/a	n/a	-999	7	[1, 1, 3]	5	catFR1	0	R1465D
1045.348	2.083	1069845	PROB	2.083	n/a	n/a	n/a	-999	7	[4, 5, 6]	15	catFR1	0	R1465D
1047.431	2.416	1071928	PROB	2.416	n/a	n/a	n/a	-999	7	[5, 4, 6]	15	catFR1	0	R1465D
1049.847	0.0	1074344	STOP	n/a	n/a	n/a	n/a	-999	7	[-999, -999, -999]	n/a	catFR1	0	R1465D
1049.847	1.05	1074345	DISTRACT_END	n/a	n/a	n/a	n/a	-999	7	[0, 0, 0]	n/a	catFR1	0	R1465D
1050.897	1.57	1075396	REC_START	n/a	n/a	n/a	n/a	-999	7	[0, 0, 0]	n/a	catFR1	0	R1465D
1052.467	1.247	1076964	REC_WORD	1.247	n/a	PLUM	Fruit	12	7	[0, 0, 0]	n/a	catFR1	0	R1465D
1053.714	3.067	1078211	REC_WORD	3.067	n/a	ORANGE	Fruit	11	7	[0, 0, 0]	n/a	catFR1	0	R1465D
1056.781	3.047	1081277	REC_WORD	3.047	n/a	TURTLE	OceanAnimals	-999	7	[0, 0, 0]	n/a	catFR1	0	R1465D
1059.828	1.24	1084324	REC_WORD	1.24	n/a	THUNDER	Weather	9	7	[0, 0, 0]	n/a	catFR1	0	R1465D
1061.068	1.393	1085564	REC_WORD	1.393	n/a	RAIN	Weather	10	7	[0, 0, 0]	n/a	catFR1	0	R1465D
1062.461	4.434	1086957	REC_WORD	4.434	n/a	DRIZZLE	Weather	2	7	[0, 0, 0]	n/a	catFR1	0	R1465D
1066.895	0.45	1091391	REC_WORD_VV	0.45	n/a	<>	n/a	-999	7	[0, 0, 0]	n/a	catFR1	0	R1465D
1067.345	1.0	1091841	REC_WORD	1.0	n/a	STORM	n/a	-999	7	[0, 0, 0]	n/a	catFR1	0	R1465D
1068.345	1.0	1092841	REC_WORD_VV	1.0	n/a	<>	n/a	-999	7	[0, 0, 0]	n/a	catFR1	0	R1465D
1069.345	1.0	1093841	REC_WORD_VV	1.0	n/a	<>	n/a	-999	7	[0, 0, 0]	n/a	catFR1	0	R1465D
1070.345	1.0	1094841	REC_WORD_VV	1.0	n/a	<>	n/a	-999	7	[0, 0, 0]	n/a	catFR1	0	R1465D
1071.345	0.937	1095841	REC_WORD_VV	0.937	n/a	<>	n/a	-999	7	[0, 0, 0]	n/a	catFR1	0	R1465D
1072.282	1.12	1096778	REC_WORD	1.12	n/a	RAIN	Weather	10	7	[0, 0, 0]	n/a	catFR1	0	R1465D
1073.402	0.986	1097898	REC_WORD	0.986	n/a	THUNDER	Weather	9	7	[0, 0, 0]	n/a	catFR1	0	R1465D
1074.388	5.385	1098883	REC_WORD	5.385	n/a	DRIZZLE	Weather	2	7	[0, 0, 0]	n/a	catFR1	0	R1465D
1079.773	2.375	1104268	REC_WORD	2.375	n/a	BEETLE	Insects	4	7	[0, 0, 0]	n/a	catFR1	0	R1465D
1082.148	5.465	1106648	REC_END	n/a	n/a	n/a	n/a	-999	7	[0, 0, 0]	n/a	catFR1	0	R1465D
1087.613	10.351	1112109	COUNTDOWN_START	n/a	n/a	n/a	n/a	-999	7	[0, 0, 0]	n/a	catFR1	0	R1465D
1097.964	0.0	1122462	COUNTDOWN_END	n/a	n/a	n/a	n/a	-999	7	[0, 0, 0]	n/a	catFR1	0	R1465D
1097.964	2.233	1122462	ENCODING_START	n/a	n/a	n/a	n/a	-999	8	[0, 0, 0]	n/a	catFR1	0	R1465D
1100.197	1.6	1124691	WORD	n/a	wordpools/wordpool_categorized_EN.txt	SNOW	Weather	1	8	[0, 0, 0]	n/a	catFR1	0	R1465D
1101.797	0.783	1126292	WORD_OFF	n/a	n/a	SNOW	Weather	1	8	[0, 0, 0]	n/a	catFR1	0	R1465D
1102.58	1.6	1127078	WORD	n/a	wordpools/wordpool_categorized_EN.txt	CLOUD	Weather	2	8	[0, 0, 0]	n/a	catFR1	0	R1465D
1104.18	0.883	1128679	WORD_OFF	n/a	n/a	CLOUD	Weather	2	8	[0, 0, 0]	n/a	catFR1	0	R1465D
1105.063	1.6	1129563	WORD	n/a	wordpools/wordpool_categorized_EN.txt	NOSE	BodyParts	3	8	[0, 0, 0]	n/a	catFR1	0	R1465D
1106.663	0.951	1131154	WORD_OFF	n/a	n/a	NOSE	BodyParts	3	8	[0, 0, 0]	n/a	catFR1	0	R1465D
1107.614	1.616	1132107	WORD	n/a	wordpools/wordpool_categorized_EN.txt	HEAD	BodyParts	4	8	[0, 0, 0]	n/a	catFR1	0	R1465D
1109.23	0.884	1133727	WORD_OFF	n/a	n/a	HEAD	BodyParts	4	8	[0, 0, 0]	n/a	catFR1	0	R1465D
1110.114	1.6	1134611	WORD	n/a	wordpools/wordpool_categorized_EN.txt	WINE	Beverages	5	8	[0, 0, 0]	n/a	catFR1	0	R1465D
1111.714	0.866	1136212	WORD_OFF	n/a	n/a	WINE	Beverages	5	8	[0, 0, 0]	n/a	catFR1	0	R1465D
1112.58	1.617	1137076	WORD	n/a	wordpools/wordpool_categorized_EN.txt	SODA	Beverages	6	8	[0, 0, 0]	n/a	catFR1	0	R1465D
1114.197	0.817	1138687	WORD_OFF	n/a	n/a	SODA	Beverages	6	8	[0, 0, 0]	n/a	catFR1	0	R1465D
1115.014	1.6	1139512	WORD	n/a	wordpools/wordpool_categorized_EN.txt	HAND	BodyParts	7	8	[0, 0, 0]	n/a	catFR1	0	R1465D
1116.614	1.0	1141103	WORD_OFF	n/a	n/a	HAND	BodyParts	7	8	[0, 0, 0]	n/a	catFR1	0	R1465D
1117.614	1.6	1142105	WORD	n/a	wordpools/wordpool_categorized_EN.txt	EAR	BodyParts	8	8	[0, 0, 0]	n/a	catFR1	0	R1465D
1119.214	0.866	1143706	WORD_OFF	n/a	n/a	EAR	BodyParts	8	8	[0, 0, 0]	n/a	catFR1	0	R1465D
1120.08	1.617	1144570	WORD	n/a	wordpools/wordpool_categorized_EN.txt	WIND	Weather	9	8	[0, 0, 0]	n/a	catFR1	0	R1465D
1121.697	0.883	1146191	WORD_OFF	n/a	n/a	WIND	Weather	9	8	[0, 0, 0]	n/a	catFR1	0	R1465D
1122.58	1.617	1147075	WORD	n/a	wordpools/wordpool_categorized_EN.txt	HUMIDITY	Weather	10	8	[0, 0, 0]	n/a	catFR1	0	R1465D
1124.197	0.883	1148695	WORD_OFF	n/a	n/a	HUMIDITY	Weather	10	8	[0, 0, 0]	n/a	catFR1	0	R1465D
1125.08	1.6	1149579	WORD	n/a	wordpools/wordpool_categorized_EN.txt	LEMONADE	Beverages	11	8	[0, 0, 0]	n/a	catFR1	0	R1465D
1126.68	0.816	1151171	WORD_OFF	n/a	n/a	LEMONADE	Beverages	11	8	[0, 0, 0]	n/a	catFR1	0	R1465D
1127.496	1.601	1151986	WORD	n/a	wordpools/wordpool_categorized_EN.txt	MILK	Beverages	12	8	[0, 0, 0]	n/a	catFR1	0	R1465D
1129.097	0.0	1153587	WORD_OFF	n/a	n/a	MILK	Beverages	12	8	[0, 0, 0]	n/a	catFR1	0	R1465D
1129.097	0.005	1153590	PROB	0.005	n/a	n/a	n/a	-999	8	[1, 6, 4]	11	catFR1	0	R1465D
1129.102	0.0	1153595	START	n/a	n/a	n/a	n/a	-999	8	[-999, -999, -999]	n/a	catFR1	0	R1465D
1129.102	0.0	1153597	ENCODING_END	n/a	n/a	n/a	n/a	-999	8	[0, 0, 0]	n/a	catFR1	0	R1465D
1129.102	2.461	1153597	DISTRACT_START	n/a	n/a	n/a	n/a	-999	8	[0, 0, 0]	n/a	catFR1	0	R1465D
1131.563	1.851	1156055	PROB	1.851	n/a	n/a	n/a	-999	8	[2, 7, 5]	14	catFR1	0	R1465D
1133.414	1.802	1157906	PROB	1.802	n/a	n/a	n/a	-999	8	[1, 4, 8]	13	catFR1	0	R1465D
1135.216	1.948	1159708	PROB	1.948	n/a	n/a	n/a	-999	8	[7, 2, 7]	16	catFR1	0	R1465D
1137.164	1.85	1161656	PROB	1.85	n/a	n/a	n/a	-999	8	[4, 3, 2]	9	catFR1	0	R1465D
1139.014	2.2	1163506	PROB	2.2	n/a	n/a	n/a	-999	8	[5, 3, 4]	12	catFR1	0	R1465D
1141.214	1.65	1165706	PROB	1.65	n/a	n/a	n/a	-999	8	[2, 2, 3]	7	catFR1	0	R1465D
1142.864	1.4	1167356	PROB	1.4	n/a	n/a	n/a	-999	8	[3, 1, 1]	5	catFR1	0	R1465D
1144.264	2.417	1168756	PROB	2.417	n/a	n/a	n/a	-999	8	[8, 7, 5]	20	catFR1	0	R1465D
1146.681	2.349	1171173	PROB	2.349	n/a	n/a	n/a	-999	8	[5, 7, 6]	18	catFR1	0	R1465D
1149.03	2.334	1173521	PROB	2.334	n/a	n/a	n/a	-999	8	[7, 7, 4]	18	catFR1	0	R1465D
1151.364	0.0	1175853	DISTRACT_END	n/a	n/a	n/a	n/a	-999	8	[0, 0, 0]	n/a	catFR1	0	R1465D
1151.364	1.247	1175855	STOP	n/a	n/a	n/a	n/a	-999	8	[-999, -999, -999]	n/a	catFR1	0	R1465D
1152.611	1.209	1177100	REC_START	n/a	n/a	n/a	n/a	-999	8	[0, 0, 0]	n/a	catFR1	0	R1465D
1153.82	1.065	1178311	REC_WORD	1.065	n/a	WINE	Beverages	5	8	[0, 0, 0]	n/a	catFR1	0	R1465D
1154.885	1.484	1179376	REC_WORD	1.484	n/a	SODA	Beverages	6	8	[0, 0, 0]	n/a	catFR1	0	R1465D
1156.369	7.346	1180860	REC_WORD	7.346	n/a	WIND	Weather	9	8	[0, 0, 0]	n/a	catFR1	0	R1465D
1163.715	1.0	1188206	REC_WORD_VV	1.0	n/a	<>	n/a	-999	8	[0, 0, 0]	n/a	catFR1	0	R1465D
1164.715	0.981	1189206	REC_WORD_VV	0.981	n/a	<>	n/a	-999	8	[0, 0, 0]	n/a	catFR1	0	R1465D
1165.696	0.603	1190187	REC_WORD	0.603	n/a	SODA	Beverages	6	8	[0, 0, 0]	n/a	catFR1	0	R1465D
1166.299	1.416	1190790	REC_WORD	1.416	n/a	WINE	Beverages	5	8	[0, 0, 0]	n/a	catFR1	0	R1465D
1167.715	0.733	1192205	REC_WORD	0.733	n/a	WIND	Weather	9	8	[0, 0, 0]	n/a	catFR1	0	R1465D
1168.448	0.95	1192938	REC_WORD	0.95	n/a	WATER	n/a	-999	8	[0, 0, 0]	n/a	catFR1	0	R1465D
1169.398	1.0	1193888	REC_WORD_VV	1.0	n/a	<>	n/a	-999	8	[0, 0, 0]	n/a	catFR1	0	R1465D
1170.398	1.0	1194888	REC_WORD_VV	1.0	n/a	<>	n/a	-999	8	[0, 0, 0]	n/a	catFR1	0	R1465D
1171.398	1.0	1195888	REC_WORD_VV	1.0	n/a	<>	n/a	-999	8	[0, 0, 0]	n/a	catFR1	0	R1465D
1172.398	1.0	1196888	REC_WORD_VV	1.0	n/a	<>	n/a	-999	8	[0, 0, 0]	n/a	catFR1	0	R1465D
1173.398	1.101	1197888	REC_WORD_VV	1.101	n/a	<>	n/a	-999	8	[0, 0, 0]	n/a	catFR1	0	R1465D
1174.499	9.361	1198989	REC_WORD	9.361	n/a	CLOUD	Weather	2	8	[0, 0, 0]	n/a	catFR1	0	R1465D
1183.86	37.154	1208353	REC_END	n/a	n/a	n/a	n/a	-999	8	[0, 0, 0]	n/a	catFR1	0	R1465D
1221.014	10.349	1245509	COUNTDOWN_START	n/a	n/a	n/a	n/a	-999	8	[0, 0, 0]	n/a	catFR1	0	R1465D
1231.363	0.0	1255851	COUNTDOWN_END	n/a	n/a	n/a	n/a	-999	8	[0, 0, 0]	n/a	catFR1	0	R1465D
1231.363	2.184	1255851	ENCODING_START	n/a	n/a	n/a	n/a	-999	9	[0, 0, 0]	n/a	catFR1	0	R1465D
1233.547	1.617	1258032	WORD	n/a	wordpools/wordpool_categorized_EN.txt	PEELER	KitchenTools	1	9	[0, 0, 0]	n/a	catFR1	0	R1465D
1235.164	0.95	1259652	WORD_OFF	n/a	n/a	PEELER	KitchenTools	1	9	[0, 0, 0]	n/a	catFR1	0	R1465D
1236.114	1.6	1260605	WORD	n/a	wordpools/wordpool_categorized_EN.txt	CORKSCREW	KitchenTools	2	9	[0, 0, 0]	n/a	catFR1	0	R1465D
1237.714	0.816	1262206	WORD_OFF	n/a	n/a	CORKSCREW	KitchenTools	2	9	[0, 0, 0]	n/a	catFR1	0	R1465D
1238.53	1.6	1263021	WORD	n/a	wordpools/wordpool_categorized_EN.txt	MOUSSE	Desserts	3	9	[0, 0, 0]	n/a	catFR1	0	R1465D
1240.13	0.934	1264622	WORD_OFF	n/a	n/a	MOUSSE	Desserts	3	9	[0, 0, 0]	n/a	catFR1	0	R1465D
1241.064	1.6	1265555	WORD	n/a	wordpools/wordpool_categorized_EN.txt	CUPCAKE	Desserts	4	9	[0, 0, 0]	n/a	catFR1	0	R1465D
1242.664	0.966	1267156	WORD_OFF	n/a	n/a	CUPCAKE	Desserts	4	9	[0, 0, 0]	n/a	catFR1	0	R1465D
1243.63	1.617	1268118	WORD	n/a	wordpools/wordpool_categorized_EN.txt	LEVEL	Tools	5	9	[0, 0, 0]	n/a	catFR1	0	R1465D
1245.247	0.967	1269739	WORD_OFF	n/a	n/a	LEVEL	Tools	5	9	[0, 0, 0]	n/a	catFR1	0	R1465D
1246.214	1.616	1270702	WORD	n/a	wordpools/wordpool_categorized_EN.txt	WRENCH	Tools	6	9	[0, 0, 0]	n/a	catFR1	0	R1465D
1247.83	0.767	1272322	WORD_OFF	n/a	n/a	WRENCH	Tools	6	9	[0, 0, 0]	n/a	catFR1	0	R1465D
1248.597	1.6	1273088	WORD	n/a	wordpools/wordpool_categorized_EN.txt	TONGS	KitchenTools	7	9	[0, 0, 0]	n/a	catFR1	0	R1465D
1250.197	0.949	1274689	WORD_OFF	n/a	n/a	TONGS	KitchenTools	7	9	[0, 0, 0]	n/a	catFR1	0	R1465D
1251.146	1.618	1275632	WORD	n/a	wordpools/wordpool_categorized_EN.txt	KNIFE	KitchenTools	8	9	[0, 0, 0]	n/a	catFR1	0	R1465D
1252.764	0.899	1277253	WORD_OFF	n/a	n/a	KNIFE	KitchenTools	8	9	[0, 0, 0]	n/a	catFR1	0	R1465D
1253.663	1.616	1278146	WORD	n/a	wordpools/wordpool_categorized_EN.txt	PUDDING	Desserts	9	9	[0, 0, 0]	n/a	catFR1	0	R1465D
1255.279	0.9	1279767	WORD_OFF	n/a	n/a	PUDDING	Desserts	9	9	[0, 0, 0]	n/a	catFR1	0	R1465D
1256.179	1.601	1280671	WORD	n/a	wordpools/wordpool_categorized_EN.txt	PASTRY	Desserts	10	9	[0, 0, 0]	n/a	catFR1	0	R1465D
1257.78	0.85	1282272	WORD_OFF	n/a	n/a	PASTRY	Desserts	10	9	[0, 0, 0]	n/a	catFR1	0	R1465D
1258.63	1.6	1283116	WORD	n/a	wordpools/wordpool_categorized_EN.txt	HAMMER	Tools	11	9	[0, 0, 0]	n/a	catFR1	0	R1465D
1260.23	0.967	1284717	WORD_OFF	n/a	n/a	HAMMER	Tools	11	9	[0, 0, 0]	n/a	catFR1	0	R1465D
1261.197	1.6	1285680	WORD	n/a	wordpools/wordpool_categorized_EN.txt	RATCHET	Tools	12	9	[0, 0, 0]	n/a	catFR1	0	R1465D
1262.797	0.0	1287281	WORD_OFF	n/a	n/a	RATCHET	Tools	12	9	[0, 0, 0]	n/a	catFR1	0	R1465D
1262.797	0.002	1287282	PROB	0.002	n/a	n/a	n/a	-999	9	[6, 6, 8]	20	catFR1	0	R1465D
1262.799	0.0	1287284	START	n/a	n/a	n/a	n/a	-999	9	[-999, -999, -999]	n/a	catFR1	0	R1465D
1262.799	0.0	1287291	ENCODING_END	n/a	n/a	n/a	n/a	-999	9	[0, 0, 0]	n/a	catFR1	0	R1465D
1262.799	3.265	1287291	DISTRACT_START	n/a	n/a	n/a	n/a	-999	9	[0, 0, 0]	n/a	catFR1	0	R1465D
1266.064	1.983	1290549	PROB	1.983	n/a	n/a	n/a	-999	9	[4, 8, 2]	14	catFR1	0	R1465D
1268.047	1.751	1292532	PROB	1.751	n/a	n/a	n/a	-999	9	[7, 8, 1]	16	catFR1	0	R1465D
1269.798	1.948	1294283	PROB	1.948	n/a	n/a	n/a	-999	9	[8, 3, 5]	16	catFR1	0	R1465D
1271.746	1.885	1296231	PROB	1.885	n/a	n/a	n/a	-999	9	[4, 3, 6]	13	catFR1	0	R1465D
1273.631	2.049	1298116	PROB	2.049	n/a	n/a	n/a	-999	9	[1, 6, 8]	15	catFR1	0	R1465D
1275.68	2.0	1300165	PROB	2.0	n/a	n/a	n/a	-999	9	[3, 8, 1]	12	catFR1	0	R1465D
1277.68	1.701	1302165	PROB	1.701	n/a	n/a	n/a	-999	9	[2, 4, 2]	8	catFR1	0	R1465D
1279.381	1.483	1303866	PROB	1.483	n/a	n/a	n/a	-999	9	[2, 2, 1]	5	catFR1	0	R1465D
1280.864	1.7	1305348	PROB	1.7	n/a	n/a	n/a	-999	9	[2, 3, 3]	8	catFR1	0	R1465D
1282.564	2.599	1307048	PROB	2.599	n/a	n/a	n/a	-999	9	[5, 1, 7]	13	catFR1	0	R1465D
1285.163	0.0	1309645	DISTRACT_END	n/a	n/a	n/a	n/a	-999	9	[0, 0, 0]	n/a	catFR1	0	R1465D
1285.163	1.167	1309647	STOP	n/a	n/a	n/a	n/a	-999	9	[-999, -999, -999]	n/a	catFR1	0	R1465D
1286.33	1.594	1310814	REC_START	n/a	n/a	n/a	n/a	-999	9	[0, 0, 0]	n/a	catFR1	0	R1465D
1287.924	0.852	1312408	REC_WORD	0.852	n/a	WRENCH	Tools	6	9	[0, 0, 0]	n/a	catFR1	0	R1465D
1288.776	1.089	1313260	REC_WORD	1.089	n/a	HAMMER	Tools	11	9	[0, 0, 0]	n/a	catFR1	0	R1465D
1289.865	0.953	1314349	REC_WORD	0.953	n/a	LEVEL	Tools	5	9	[0, 0, 0]	n/a	catFR1	0	R1465D
1290.818	5.669	1315302	REC_WORD	5.669	n/a	RATCHET	Tools	12	9	[0, 0, 0]	n/a	catFR1	0	R1465D
1296.487	1.514	1320971	REC_WORD	1.514	n/a	TONGS	KitchenTools	7	9	[0, 0, 0]	n/a	catFR1	0	R1465D
1298.001	1.228	1322485	REC_WORD	1.228	n/a	PEELER	KitchenTools	1	9	[0, 0, 0]	n/a	catFR1	0	R1465D
1299.229	1.0	1323712	REC_WORD_VV	1.0	n/a	<>	n/a	-999	9	[0, 0, 0]	n/a	catFR1	0	R1465D
1300.229	1.0	1324712	REC_WORD_VV	1.0	n/a	<>	n/a	-999	9	[0, 0, 0]	n/a	catFR1	0	R1465D
1301.229	1.0	1325712	REC_WORD_VV	1.0	n/a	<>	n/a	-999	9	[0, 0, 0]	n/a	catFR1	0	R1465D
1302.229	1.0	1326712	REC_WORD_VV	1.0	n/a	<>	n/a	-999	9	[0, 0, 0]	n/a	catFR1	0	R1465D
1303.229	1.0	1327712	REC_WORD_VV	1.0	n/a	<>	n/a	-999	9	[0, 0, 0]	n/a	catFR1	0	R1465D
1304.229	0.522	1328712	REC_WORD_VV	0.522	n/a	<>	n/a	-999	9	[0, 0, 0]	n/a	catFR1	0	R1465D
1304.751	12.823	1329234	REC_WORD	12.823	n/a	KNIFE	KitchenTools	8	9	[0, 0, 0]	n/a	catFR1	0	R1465D
1317.574	27.973	1342057	REC_END	n/a	n/a	n/a	n/a	-999	9	[0, 0, 0]	n/a	catFR1	0	R1465D
1345.547	10.348	1370029	COUNTDOWN_START	n/a	n/a	n/a	n/a	-999	9	[0, 0, 0]	n/a	catFR1	0	R1465D
1355.895	0.0	1380372	COUNTDOWN_END	n/a	n/a	n/a	n/a	-999	9	[0, 0, 0]	n/a	catFR1	0	R1465D
1355.895	2.084	1380381	ENCODING_START	n/a	n/a	n/a	n/a	-999	10	[0, 0, 0]	n/a	catFR1	0	R1465D
1357.979	1.6	1382464	WORD	n/a	wordpools/wordpool_categorized_EN.txt	CROWBAR	Tools	1	10	[0, 0, 0]	n/a	catFR1	0	R1465D
1359.579	0.802	1384064	WORD_OFF	n/a	n/a	CROWBAR	Tools	1	10	[0, 0, 0]	n/a	catFR1	0	R1465D
1360.381	1.616	1384860	WORD	n/a	wordpools/wordpool_categorized_EN.txt	SCREWDRIVER	Tools	2	10	[0, 0, 0]	n/a	catFR1	0	R1465D
1361.997	0.967	1386481	WORD_OFF	n/a	n/a	SCREWDRIVER	Tools	2	10	[0, 0, 0]	n/a	catFR1	0	R1465D
1362.964	1.616	1387443	WORD	n/a	wordpools/wordpool_categorized_EN.txt	OVEN	Appliances	3	10	[0, 0, 0]	n/a	catFR1	0	R1465D
1364.58	0.966	1389064	WORD_OFF	n/a	n/a	OVEN	Appliances	3	10	[0, 0, 0]	n/a	catFR1	0	R1465D
1365.546	1.601	1390026	WORD	n/a	wordpools/wordpool_categorized_EN.txt	MIXER	Appliances	4	10	[0, 0, 0]	n/a	catFR1	0	R1465D
1367.147	0.8	1391627	WORD_OFF	n/a	n/a	MIXER	Appliances	4	10	[0, 0, 0]	n/a	catFR1	0	R1465D
1367.947	1.6	1392423	WORD	n/a	wordpools/wordpool_categorized_EN.txt	BEE	Insects	5	10	[0, 0, 0]	n/a	catFR1	0	R1465D
1369.547	0.817	1394024	WORD_OFF	n/a	n/a	BEE	Insects	5	10	[0, 0, 0]	n/a	catFR1	0	R1465D
1370.364	1.6	1394849	WORD	n/a	wordpools/wordpool_categorized_EN.txt	MOSQUITO	Insects	6	10	[0, 0, 0]	n/a	catFR1	0	R1465D
1371.964	0.933	1396440	WORD_OFF	n/a	n/a	MOSQUITO	Insects	6	10	[0, 0, 0]	n/a	catFR1	0	R1465D
1372.897	1.6	1397373	WORD	n/a	wordpools/wordpool_categorized_EN.txt	SHOVEL	Tools	7	10	[0, 0, 0]	n/a	catFR1	0	R1465D
1374.497	0.967	1398974	WORD_OFF	n/a	n/a	SHOVEL	Tools	7	10	[0, 0, 0]	n/a	catFR1	0	R1465D
1375.464	1.6	1399946	WORD	n/a	wordpools/wordpool_categorized_EN.txt	SAW	Tools	8	10	[0, 0, 0]	n/a	catFR1	0	R1465D
1377.064	1.0	1401547	WORD_OFF	n/a	n/a	SAW	Tools	8	10	[0, 0, 0]	n/a	catFR1	0	R1465D
1378.064	1.6	1402549	WORD	n/a	wordpools/wordpool_categorized_EN.txt	GNAT	Insects	9	10	[0, 0, 0]	n/a	catFR1	0	R1465D
1379.664	0.766	1404140	WORD_OFF	n/a	n/a	GNAT	Insects	9	10	[0, 0, 0]	n/a	catFR1	0	R1465D
1380.43	1.6	1404906	WORD	n/a	wordpools/wordpool_categorized_EN.txt	CRICKET	Insects	10	10	[0, 0, 0]	n/a	catFR1	0	R1465D
1382.03	0.934	1406507	WORD_OFF	n/a	n/a	CRICKET	Insects	10	10	[0, 0, 0]	n/a	catFR1	0	R1465D
1382.964	1.6	1407440	WORD	n/a	wordpools/wordpool_categorized_EN.txt	FREEZER	Appliances	11	10	[0, 0, 0]	n/a	catFR1	0	R1465D
1384.564	1.0	1409041	WORD_OFF	n/a	n/a	FREEZER	Appliances	11	10	[0, 0, 0]	n/a	catFR1	0	R1465D
1385.564	1.6	1410043	WORD	n/a	wordpools/wordpool_categorized_EN.txt	DRYER	Appliances	12	10	[0, 0, 0]	n/a	catFR1	0	R1465D
1387.164	0.0	1411643	PROB	0.0	n/a	n/a	n/a	-999	10	[7, 3, 8]	18	catFR1	0	R1465D
1387.164	0.001	1411644	WORD_OFF	n/a	n/a	DRYER	Appliances	12	10	[0, 0, 0]	n/a	catFR1	0	R1465D
1387.165	0.0	1411644	ENCODING_END	n/a	n/a	n/a	n/a	-999	10	[0, 0, 0]	n/a	catFR1	0	R1465D
1387.165	0.0	1411644	DISTRACT_START	n/a	n/a	n/a	n/a	-999	10	[0, 0, 0]	n/a	catFR1	0	R1465D
1387.165	3.666	1411644	START	n/a	n/a	n/a	n/a	-999	10	[-999, -999, -999]	n/a	catFR1	0	R1465D
1390.831	5.582	1415310	PROB	5.582	n/a	n/a	n/a	-999	10	[4, 7, 4]	15	catFR1	0	R1465D
1396.413	2.868	1420891	PROB	2.868	n/a	n/a	n/a	-999	10	[7, 8, 5]	20	catFR1	0	R1465D
1399.281	1.483	1423759	PROB	1.483	n/a	n/a	n/a	-999	10	[1, 8, 2]	11	catFR1	0	R1465D
1400.764	2.417	1425242	PROB	2.417	n/a	n/a	n/a	-999	10	[8, 3, 8]	19	catFR1	0	R1465D
1403.181	2.433	1427659	PROB	2.433	n/a	n/a	n/a	-999	10	[3, 3, 4]	10	catFR1	0	R1465D
1405.614	2.916	1430092	PROB	2.916	n/a	n/a	n/a	-999	10	[4, 5, 8]	17	catFR1	0	R1465D
1408.53	0.0	1433006	DISTRACT_END	n/a	n/a	n/a	n/a	-999	10	[0, 0, 0]	n/a	catFR1	0	R1465D
1408.53	1.234	1433008	STOP	n/a	n/a	n/a	n/a	-999	10	[-999, -999, -999]	n/a	catFR1	0	R1465D
1409.764	1.057	1434244	REC_START	n/a	n/a	n/a	n/a	-999	10	[0, 0, 0]	n/a	catFR1	0	R1465D
1410.821	1.099	1435298	REC_WORD	1.099	n/a	GNAT	Insects	9	10	[0, 0, 0]	n/a	catFR1	0	R1465D
1411.92	1.571	1436397	REC_WORD	1.571	n/a	MOSQUITO	Insects	6	10	[0, 0, 0]	n/a	catFR1	0	R1465D
1413.491	1.511	1437968	REC_WORD	1.511	n/a	BEE	Insects	5	10	[0, 0, 0]	n/a	catFR1	0	R1465D
1415.002	2.917	1439479	REC_WORD	2.917	n/a	MIXER	Appliances	4	10	[0, 0, 0]	n/a	catFR1	0	R1465D
1417.919	17.298	1442396	REC_WORD	17.298	n/a	OVEN	Appliances	3	10	[0, 0, 0]	n/a	catFR1	0	R1465D
1435.217	5.782	1459693	REC_WORD_VV	5.782	n/a	<>	n/a	-999	10	[0, 0, 0]	n/a	catFR1	0	R1465D
1440.999	6.698	1465477	REC_END	n/a	n/a	n/a	n/a	-999	10	[0, 0, 0]	n/a	catFR1	0	R1465D
1447.697	10.35	1472176	COUNTDOWN_START	n/a	n/a	n/a	n/a	-999	10	[0, 0, 0]	n/a	catFR1	0	R1465D
1458.047	0.0	1482528	COUNTDOWN_END	n/a	n/a	n/a	n/a	-999	10	[0, 0, 0]	n/a	catFR1	0	R1465D
1458.047	2.3	1482528	ENCODING_START	n/a	n/a	n/a	n/a	-999	11	[0, 0, 0]	n/a	catFR1	0	R1465D
1460.347	1.617	1484826	WORD	n/a	wordpools/wordpool_categorized_EN.txt	STAPLER	OfficeSupplies	1	11	[0, 0, 0]	n/a	catFR1	0	R1465D
1461.964	0.866	1486437	WORD_OFF	n/a	n/a	STAPLER	OfficeSupplies	1	11	[0, 0, 0]	n/a	catFR1	0	R1465D
1462.83	1.617	1487311	WORD	n/a	wordpools/wordpool_categorized_EN.txt	NOTEBOOK	OfficeSupplies	2	11	[0, 0, 0]	n/a	catFR1	0	R1465D
1464.447	0.784	1488922	WORD_OFF	n/a	n/a	NOTEBOOK	OfficeSupplies	2	11	[0, 0, 0]	n/a	catFR1	0	R1465D
1465.231	1.599	1489708	WORD	n/a	wordpools/wordpool_categorized_EN.txt	CAKE	Desserts	3	11	[0, 0, 0]	n/a	catFR1	0	R1465D
1466.83	0.817	1491308	WORD_OFF	n/a	n/a	CAKE	Desserts	3	11	[0, 0, 0]	n/a	catFR1	0	R1465D
1467.647	1.6	1492124	WORD	n/a	wordpools/wordpool_categorized_EN.txt	COOKIE	Desserts	4	11	[0, 0, 0]	n/a	catFR1	0	R1465D
1469.247	0.933	1493725	WORD_OFF	n/a	n/a	COOKIE	Desserts	4	11	[0, 0, 0]	n/a	catFR1	0	R1465D
1470.18	1.601	1494658	WORD	n/a	wordpools/wordpool_categorized_EN.txt	BIKE	Vehicles	5	11	[0, 0, 0]	n/a	catFR1	0	R1465D
1471.781	0.999	1496259	WORD_OFF	n/a	n/a	BIKE	Vehicles	5	11	[0, 0, 0]	n/a	catFR1	0	R1465D
1472.78	1.601	1497260	WORD	n/a	wordpools/wordpool_categorized_EN.txt	VAN	Vehicles	6	11	[0, 0, 0]	n/a	catFR1	0	R1465D
1474.381	0.814	1498852	WORD_OFF	n/a	n/a	VAN	Vehicles	6	11	[0, 0, 0]	n/a	catFR1	0	R1465D
1475.195	1.602	1499667	WORD	n/a	wordpools/wordpool_categorized_EN.txt	BINDER	OfficeSupplies	7	11	[0, 0, 0]	n/a	catFR1	0	R1465D
1476.797	0.917	1501268	WORD_OFF	n/a	n/a	BINDER	OfficeSupplies	7	11	[0, 0, 0]	n/a	catFR1	0	R1465D
1477.714	1.616	1502191	WORD	n/a	wordpools/wordpool_categorized_EN.txt	ERASER	OfficeSupplies	8	11	[0, 0, 0]	n/a	catFR1	0	R1465D
1479.33	0.784	1503802	WORD_OFF	n/a	n/a	ERASER	OfficeSupplies	8	11	[0, 0, 0]	n/a	catFR1	0	R1465D
1480.114	1.615	1504588	WORD	n/a	wordpools/wordpool_categorized_EN.txt	TRUCK	Vehicles	9	11	[0, 0, 0]	n/a	catFR1	0	R1465D
1481.729	0.968	1506208	WORD_OFF	n/a	n/a	TRUCK	Vehicles	9	11	[0, 0, 0]	n/a	catFR1	0	R1465D
1482.697	1.617	1507171	WORD	n/a	wordpools/wordpool_categorized_EN.txt	PLANE	Vehicles	10	11	[0, 0, 0]	n/a	catFR1	0	R1465D
1484.314	0.833	1508791	WORD_OFF	n/a	n/a	PLANE	Vehicles	10	11	[0, 0, 0]	n/a	catFR1	0	R1465D
1485.147	1.616	1509626	WORD	n/a	wordpools/wordpool_categorized_EN.txt	JELLO	Desserts	11	11	[0, 0, 0]	n/a	catFR1	0	R1465D
1486.763	0.901	1511237	WORD_OFF	n/a	n/a	JELLO	Desserts	11	11	[0, 0, 0]	n/a	catFR1	0	R1465D
1487.664	1.6	1512140	WORD	n/a	wordpools/wordpool_categorized_EN.txt	PIE	Desserts	12	11	[0, 0, 0]	n/a	catFR1	0	R1465D
1489.264	0.001	1513737	PROB	0.001	n/a	n/a	n/a	-999	11	[2, 8, 1]	11	catFR1	0	R1465D
1489.265	0.0	1513738	START	n/a	n/a	n/a	n/a	-999	11	[-999, -999, -999]	n/a	catFR1	0	R1465D
1489.264	0.001	1513741	WORD_OFF	n/a	n/a	PIE	Desserts	12	11	[0, 0, 0]	n/a	catFR1	0	R1465D
1489.265	0.0	1513741	ENCODING_END	n/a	n/a	n/a	n/a	-999	11	[0, 0, 0]	n/a	catFR1	0	R1465D
1489.265	2.566	1513741	DISTRACT_START	n/a	n/a	n/a	n/a	-999	11	[0, 0, 0]	n/a	catFR1	0	R1465D
1491.831	2.234	1516304	PROB	2.234	n/a	n/a	n/a	-999	11	[1, 1, 7]	9	catFR1	0	R1465D
1494.065	1.999	1518538	PROB	1.999	n/a	n/a	n/a	-999	11	[2, 2, 5]	9	catFR1	0	R1465D
1496.064	1.717	1520537	PROB	1.717	n/a	n/a	n/a	-999	11	[4, 1, 1]	6	catFR1	0	R1465D
1497.781	3.049	1522254	PROB	3.049	n/a	n/a	n/a	-999	11	[2, 6, 2]	10	catFR1	0	R1465D
1500.83	2.017	1525303	PROB	2.017	n/a	n/a	n/a	-999	11	[2, 2, 4]	8	catFR1	0	R1465D
1502.847	1.817	1527320	PROB	1.817	n/a	n/a	n/a	-999	11	[3, 1, 3]	7	catFR1	0	R1465D
1504.664	2.083	1529136	PROB	2.083	n/a	n/a	n/a	-999	11	[3, 4, 2]	9	catFR1	0	R1465D
1506.747	2.316	1531219	PROB	2.316	n/a	n/a	n/a	-999	11	[6, 1, 2]	9	catFR1	0	R1465D
1509.063	2.068	1533535	PROB	2.068	n/a	n/a	n/a	-999	11	[2, 4, 6]	12	catFR1	0	R1465D
1511.131	0.0	1535603	STOP	n/a	n/a	n/a	n/a	-999	11	[-999, -999, -999]	n/a	catFR1	0	R1465D
1511.131	1.38	1535605	DISTRACT_END	n/a	n/a	n/a	n/a	-999	11	[0, 0, 0]	n/a	catFR1	0	R1465D
1512.511	1.614	1536980	REC_START	n/a	n/a	n/a	n/a	-999	11	[0, 0, 0]	n/a	catFR1	0	R1465D
1514.125	1.821	1538597	REC_WORD	1.821	n/a	BIKE	Vehicles	5	11	[0, 0, 0]	n/a	catFR1	0	R1465D
1515.946	1.336	1540418	REC_WORD	1.336	n/a	VAN	Vehicles	6	11	[0, 0, 0]	n/a	catFR1	0	R1465D
1517.282	4.524	1541754	REC_WORD	4.524	n/a	TRUCK	Vehicles	9	11	[0, 0, 0]	n/a	catFR1	0	R1465D
1521.806	1.0	1546278	REC_WORD	1.0	n/a	STAPLER	OfficeSupplies	1	11	[0, 0, 0]	n/a	catFR1	0	R1465D
1522.806	0.882	1547277	REC_WORD_VV	0.882	n/a	<>	n/a	-999	11	[0, 0, 0]	n/a	catFR1	0	R1465D
1523.688	4.593	1548159	REC_WORD	4.593	n/a	NOTEBOOK	OfficeSupplies	2	11	[0, 0, 0]	n/a	catFR1	0	R1465D
1528.281	3.52	1552752	REC_WORD_VV	3.52	n/a	<>	n/a	-999	11	[0, 0, 0]	n/a	catFR1	0	R1465D
1531.801	2.491	1556272	REC_WORD	2.491	n/a	PAD	n/a	-999	11	[0, 0, 0]	n/a	catFR1	0	R1465D
1534.292	9.475	1558763	REC_WORD	9.475	n/a	BINDER	OfficeSupplies	7	11	[0, 0, 0]	n/a	catFR1	0	R1465D
1543.767	9.114	1568242	REC_END	n/a	n/a	n/a	n/a	-999	11	[0, 0, 0]	n/a	catFR1	0	R1465D
1552.881	10.35	1577357	COUNTDOWN_START	n/a	n/a	n/a	n/a	-999	11	[0, 0, 0]	n/a	catFR1	0	R1465D
1563.231	0.0	1587699	COUNTDOWN_END	n/a	n/a	n/a	n/a	-999	11	[0, 0, 0]	n/a	catFR1	0	R1465D
1563.231	1.816	1587699	ENCODING_START	n/a	n/a	n/a	n/a	-999	12	[0, 0, 0]	n/a	catFR1	0	R1465D
1565.047	1.617	1589516	WORD	n/a	wordpools/wordpool_categorized_EN.txt	COUCH	Furniture	1	12	[0, 0, 0]	n/a	catFR1	0	R1465D
1566.664	0.951	1591137	WORD_OFF	n/a	n/a	COUCH	Furniture	1	12	[0, 0, 0]	n/a	catFR1	0	R1465D
1567.615	1.616	1592090	WORD	n/a	wordpools/wordpool_categorized_EN.txt	SHELF	Furniture	2	12	[0, 0, 0]	n/a	catFR1	0	R1465D
1569.231	0.85	1593700	WORD_OFF	n/a	n/a	SHELF	Furniture	2	12	[0, 0, 0]	n/a	catFR1	0	R1465D
1570.081	1.599	1594555	WORD	n/a	wordpools/wordpool_categorized_EN.txt	PLIERS	Tools	3	12	[0, 0, 0]	n/a	catFR1	0	R1465D
1571.68	0.95	1596146	WORD_OFF	n/a	n/a	PLIERS	Tools	3	12	[0, 0, 0]	n/a	catFR1	0	R1465D
1572.63	1.6	1597099	WORD	n/a	wordpools/wordpool_categorized_EN.txt	AXE	Tools	4	12	[0, 0, 0]	n/a	catFR1	0	R1465D
1574.23	0.867	1598700	WORD_OFF	n/a	n/a	AXE	Tools	4	12	[0, 0, 0]	n/a	catFR1	0	R1465D
1575.097	1.6	1599564	WORD	n/a	wordpools/wordpool_categorized_EN.txt	DISHWASHER	Appliances	5	12	[0, 0, 0]	n/a	catFR1	0	R1465D
1576.697	0.95	1601165	WORD_OFF	n/a	n/a	DISHWASHER	Appliances	5	12	[0, 0, 0]	n/a	catFR1	0	R1465D
1577.647	1.617	1602118	WORD	n/a	wordpools/wordpool_categorized_EN.txt	IRON	Appliances	6	12	[0, 0, 0]	n/a	catFR1	0	R1465D
1579.264	0.833	1603738	WORD_OFF	n/a	n/a	IRON	Appliances	6	12	[0, 0, 0]	n/a	catFR1	0	R1465D
1580.097	1.617	1604563	WORD	n/a	wordpools/wordpool_categorized_EN.txt	BOOKCASE	Furniture	7	12	[0, 0, 0]	n/a	catFR1	0	R1465D
1581.714	0.998	1606184	WORD_OFF	n/a	n/a	BOOKCASE	Furniture	7	12	[0, 0, 0]	n/a	catFR1	0	R1465D
1582.712	1.601	1607186	WORD	n/a	wordpools/wordpool_categorized_EN.txt	NIGHTSTAND	Furniture	8	12	[0, 0, 0]	n/a	catFR1	0	R1465D
1584.313	0.884	1608787	WORD_OFF	n/a	n/a	NIGHTSTAND	Furniture	8	12	[0, 0, 0]	n/a	catFR1	0	R1465D
1585.197	1.6	1609671	WORD	n/a	wordpools/wordpool_categorized_EN.txt	SANDER	Tools	9	12	[0, 0, 0]	n/a	catFR1	0	R1465D
1586.797	0.9	1611262	WORD_OFF	n/a	n/a	SANDER	Tools	9	12	[0, 0, 0]	n/a	catFR1	0	R1465D
1587.697	1.6	1612165	WORD	n/a	wordpools/wordpool_categorized_EN.txt	DRILL	Tools	10	12	[0, 0, 0]	n/a	catFR1	0	R1465D
1589.297	0.9	1613766	WORD_OFF	n/a	n/a	DRILL	Tools	10	12	[0, 0, 0]	n/a	catFR1	0	R1465D
1590.197	1.6	1614670	WORD	n/a	wordpools/wordpool_categorized_EN.txt	STOVE	Appliances	11	12	[0, 0, 0]	n/a	catFR1	0	R1465D
1591.797	1.016	1616261	WORD_OFF	n/a	n/a	STOVE	Appliances	11	12	[0, 0, 0]	n/a	catFR1	0	R1465D
1592.813	1.601	1617283	WORD	n/a	wordpools/wordpool_categorized_EN.txt	VACUUM	Appliances	12	12	[0, 0, 0]	n/a	catFR1	0	R1465D
1594.414	0.001	1618882	PROB	0.001	n/a	n/a	n/a	-999	12	[4, 2, 2]	8	catFR1	0	R1465D
1594.415	0.0	1618883	START	n/a	n/a	n/a	n/a	-999	12	[-999, -999, -999]	n/a	catFR1	0	R1465D
1594.414	0.001	1618884	WORD_OFF	n/a	n/a	VACUUM	Appliances	12	12	[0, 0, 0]	n/a	catFR1	0	R1465D
1594.415	0.0	1618884	ENCODING_END	n/a	n/a	n/a	n/a	-999	12	[0, 0, 0]	n/a	catFR1	0	R1465D
1594.415	2.783	1618884	DISTRACT_START	n/a	n/a	n/a	n/a	-999	12	[0, 0, 0]	n/a	catFR1	0	R1465D
1597.198	2.233	1621666	PROB	2.233	n/a	n/a	n/a	-999	12	[5, 8, 6]	19	catFR1	0	R1465D
1599.431	1.733	1623898	PROB	1.733	n/a	n/a	n/a	-999	12	[7, 4, 1]	12	catFR1	0	R1465D
1601.164	2.899	1625631	PROB	2.899	n/a	n/a	n/a	-999	12	[4, 7, 5]	16	catFR1	0	R1465D
1604.063	1.851	1628530	PROB	1.851	n/a	n/a	n/a	-999	12	[1, 5, 7]	13	catFR1	0	R1465D
1605.914	1.783	1630381	PROB	1.783	n/a	n/a	n/a	-999	12	[4, 4, 1]	9	catFR1	0	R1465D
1607.697	2.001	1632164	PROB	2.001	n/a	n/a	n/a	-999	12	[4, 3, 1]	8	catFR1	0	R1465D
1609.698	2.1	1634165	PROB	2.1	n/a	n/a	n/a	-999	12	[5, 6, 6]	17	catFR1	0	R1465D
1611.798	1.632	1636265	PROB	1.632	n/a	n/a	n/a	-999	12	[3, 1, 8]	12	catFR1	0	R1465D
1613.43	2.417	1637897	PROB	2.417	n/a	n/a	n/a	-999	12	[8, 1, 6]	15	catFR1	0	R1465D
1615.847	0.0	1640314	STOP	n/a	n/a	n/a	n/a	-999	12	[-999, -999, -999]	n/a	catFR1	0	R1465D
1615.847	1.216	1640315	DISTRACT_END	n/a	n/a	n/a	n/a	-999	12	[0, 0, 0]	n/a	catFR1	0	R1465D
1617.063	1.718	1641533	REC_START	n/a	n/a	n/a	n/a	-999	12	[0, 0, 0]	n/a	catFR1	0	R1465D
1618.781	1.459	1643247	REC_WORD	1.459	n/a	SHELF	Furniture	2	12	[0, 0, 0]	n/a	catFR1	0	R1465D
1620.24	1.0	1644706	REC_WORD	1.0	n/a	STAND	n/a	-999	12	[0, 0, 0]	n/a	catFR1	0	R1465D
1621.24	1.515	1645706	REC_WORD_VV	1.515	n/a	<>	n/a	-999	12	[0, 0, 0]	n/a	catFR1	0	R1465D
1622.755	2.793	1647221	REC_WORD_VV	2.793	n/a	<>	n/a	-999	12	[0, 0, 0]	n/a	catFR1	0	R1465D
1625.548	1.0	1650014	REC_WORD	1.0	n/a	PLIERS	Tools	3	12	[0, 0, 0]	n/a	catFR1	0	R1465D
1626.548	2.259	1651014	REC_WORD_VV	2.259	n/a	<>	n/a	-999	12	[0, 0, 0]	n/a	catFR1	0	R1465D
1628.807	1.0	1653273	REC_WORD_VV	1.0	n/a	<>	n/a	-999	12	[0, 0, 0]	n/a	catFR1	0	R1465D
1629.807	1.0	1654273	REC_WORD_VV	1.0	n/a	<>	n/a	-999	12	[0, 0, 0]	n/a	catFR1	0	R1465D
1630.807	1.0	1655273	REC_WORD_VV	1.0	n/a	<>	n/a	-999	12	[0, 0, 0]	n/a	catFR1	0	R1465D
1631.807	1.0	1656273	REC_WORD_VV	1.0	n/a	<>	n/a	-999	12	[0, 0, 0]	n/a	catFR1	0	R1465D
1632.807	1.0	1657273	REC_WORD_VV	1.0	n/a	<>	n/a	-999	12	[0, 0, 0]	n/a	catFR1	0	R1465D
1633.807	2.113	1658273	REC_WORD_VV	2.113	n/a	<>	n/a	-999	12	[0, 0, 0]	n/a	catFR1	0	R1465D
1635.92	1.0	1660385	REC_WORD	1.0	n/a	BOOKSHELF	n/a	-999	12	[0, 0, 0]	n/a	catFR1	0	R1465D
1636.92	1.0	1661385	REC_WORD_VV	1.0	n/a	<>	n/a	-999	12	[0, 0, 0]	n/a	catFR1	0	R1465D
1637.92	4.467	1662385	REC_WORD_VV	4.467	n/a	<>	n/a	-999	12	[0, 0, 0]	n/a	catFR1	0	R1465D
1642.387	1.885	1666852	REC_WORD_VV	1.885	n/a	<>	n/a	-999	12	[0, 0, 0]	n/a	catFR1	0	R1465D
1644.272	4.033	1668737	REC_WORD_VV	4.033	n/a	<>	n/a	-999	12	[0, 0, 0]	n/a	catFR1	0	R1465D
1648.305	0.0	1672766	REC_END	n/a	n/a	n/a	n/a	-999	12	[0, 0, 0]	n/a	catFR1	0	R1465D
