onset	duration	sample	trial_type	response_time	stim_file	item_name	category	serialpos	list	test	answer	experiment	session	subject
0.0	0.0	6281	INSTRUCT_START	n/a	n/a	n/a	n/a	-999	-999	[0, 0, 0]	n/a	catFR1	0	R1243T
0.0	11.057	6281	INSTRUCT_END	n/a	n/a	n/a	n/a	-999	-999	[0, 0, 0]	n/a	catFR1	0	R1243T
11.057	0.0	17337	SESS_START	n/a	n/a	n/a	n/a	-999	-999	[0, 0, 0]	n/a	catFR1	0	R1243T
11.057	22.0	17337	MIC_TEST	n/a	n/a	n/a	n/a	-999	-999	[0, 0, 0]	n/a	catFR1	0	R1243T
33.057	38.139	39336	PRACTICE_TRIAL	n/a	n/a	n/a	n/a	-999	-1	[0, 0, 0]	n/a	catFR1	0	R1243T
71.196	10.0	77473	COUNTDOWN_START	n/a	n/a	n/a	n/a	-999	-1	[0, 0, 0]	n/a	catFR1	0	R1243T
81.624	0.007	87900	COUNTDOWN_END	n/a	n/a	n/a	n/a	-999	-1	[0, 0, 0]	n/a	catFR1	0	R1243T
81.631	1.6	87907	PRACTICE_ORIENT	n/a	n/a	n/a	n/a	-999	-1	[0, 0, 0]	n/a	catFR1	0	R1243T
83.247	2.167	89523	PRACTICE_ORIENT_OFF	n/a	n/a	n/a	n/a	-999	-1	[0, 0, 0]	n/a	catFR1	0	R1243T
85.414	1.6	91690	PRACTICE_WORD	n/a	n/a	WAGON	n/a	-1	-1	[0, 0, 0]	n/a	catFR1	0	R1243T
87.016	0.783	93292	PRACTICE_WORD_OFF	n/a	n/a	WAGON	n/a	-999	-1	[0, 0, 0]	n/a	catFR1	0	R1243T
87.799	1.6	94075	PRACTICE_WORD	n/a	n/a	BEAM	n/a	-1	-1	[0, 0, 0]	n/a	catFR1	0	R1243T
89.415	0.8	95691	PRACTICE_WORD_OFF	n/a	n/a	BEAM	n/a	-999	-1	[0, 0, 0]	n/a	catFR1	0	R1243T
90.215	1.6	96491	PRACTICE_WORD	n/a	n/a	RING	n/a	-1	-1	[0, 0, 0]	n/a	catFR1	0	R1243T
91.833	0.917	98108	PRACTICE_WORD_OFF	n/a	n/a	RING	n/a	-999	-1	[0, 0, 0]	n/a	catFR1	0	R1243T
92.75	1.6	99025	PRACTICE_WORD	n/a	n/a	CHEST	n/a	-1	-1	[0, 0, 0]	n/a	catFR1	0	R1243T
94.366	0.817	100641	PRACTICE_WORD_OFF	n/a	n/a	CHEST	n/a	-999	-1	[0, 0, 0]	n/a	catFR1	0	R1243T
95.183	1.6	101458	PRACTICE_WORD	n/a	n/a	IRON	n/a	-1	-1	[0, 0, 0]	n/a	catFR1	0	R1243T
96.801	0.883	103076	PRACTICE_WORD_OFF	n/a	n/a	IRON	n/a	-999	-1	[0, 0, 0]	n/a	catFR1	0	R1243T
97.684	1.6	103959	PRACTICE_WORD	n/a	n/a	COTTON	n/a	-1	-1	[0, 0, 0]	n/a	catFR1	0	R1243T
99.3	1.0	105575	PRACTICE_WORD_OFF	n/a	n/a	COTTON	n/a	-999	-1	[0, 0, 0]	n/a	catFR1	0	R1243T
100.3	1.6	106575	PRACTICE_WORD	n/a	n/a	FLOOD	n/a	-1	-1	[0, 0, 0]	n/a	catFR1	0	R1243T
101.919	0.966	108194	PRACTICE_WORD_OFF	n/a	n/a	FLOOD	n/a	-999	-1	[0, 0, 0]	n/a	catFR1	0	R1243T
102.885	1.6	109160	PRACTICE_WORD	n/a	n/a	TONGUE	n/a	-1	-1	[0, 0, 0]	n/a	catFR1	0	R1243T
104.501	0.834	110776	PRACTICE_WORD_OFF	n/a	n/a	TONGUE	n/a	-999	-1	[0, 0, 0]	n/a	catFR1	0	R1243T
105.335	1.6	111610	PRACTICE_WORD	n/a	n/a	RHINO	n/a	-1	-1	[0, 0, 0]	n/a	catFR1	0	R1243T
106.953	0.867	113228	PRACTICE_WORD_OFF	n/a	n/a	RHINO	n/a	-999	-1	[0, 0, 0]	n/a	catFR1	0	R1243T
107.82	1.6	114094	PRACTICE_WORD	n/a	n/a	WATCH	n/a	-1	-1	[0, 0, 0]	n/a	catFR1	0	R1243T
109.436	0.983	115710	PRACTICE_WORD_OFF	n/a	n/a	WATCH	n/a	-999	-1	[0, 0, 0]	n/a	catFR1	0	R1243T
110.419	1.6	116693	PRACTICE_WORD	n/a	n/a	CAMEL	n/a	-1	-1	[0, 0, 0]	n/a	catFR1	0	R1243T
112.037	0.984	118311	PRACTICE_WORD_OFF	n/a	n/a	CAMEL	n/a	-999	-1	[0, 0, 0]	n/a	catFR1	0	R1243T
113.021	1.6	119295	PRACTICE_WORD	n/a	n/a	ATTIC	n/a	-1	-1	[0, 0, 0]	n/a	catFR1	0	R1243T
114.637	0.001	120911	PRACTICE_WORD_OFF	n/a	n/a	ATTIC	n/a	-999	-1	[0, 0, 0]	n/a	catFR1	0	R1243T
114.638	0.0	120912	ENCODING_END	n/a	n/a	n/a	n/a	-999	-1	[0, 0, 0]	n/a	catFR1	0	R1243T
114.638	0.0	120912	DISTRACT_START	n/a	n/a	n/a	n/a	-999	-1	[0, 0, 0]	n/a	catFR1	0	R1243T
114.638	0.016	120912	START	n/a	n/a	n/a	n/a	-999	-1	[-999, -999, -999]	n/a	catFR1	0	R1243T
114.654	7.985	120928	PROB	7.946	n/a	n/a	n/a	-999	-1	[6, 2, 1]	9.0	catFR1	0	R1243T
122.639	10.985	128913	PROB	10.961	n/a	n/a	n/a	-999	-1	[9, 3, 3]	14.0	catFR1	0	R1243T
133.624	6.816	139897	PROB	6.816	n/a	n/a	n/a	-999	-1	[6, 9, 6]	21.0	catFR1	0	R1243T
140.44	0.018	146712	STOP	n/a	n/a	n/a	n/a	-999	-1	[-999, -999, -999]	n/a	catFR1	0	R1243T
140.458	0.7	146730	DISTRACT_END	n/a	n/a	n/a	n/a	-999	-1	[0, 0, 0]	n/a	catFR1	0	R1243T
141.158	0.518	147430	RETRIEVAL_ORIENT	n/a	n/a	n/a	n/a	-999	-1	[0, 0, 0]	n/a	catFR1	0	R1243T
141.676	30.011	147948	PRACTICE_REC_START	n/a	n/a	n/a	n/a	-999	-1	[0, 0, 0]	n/a	catFR1	0	R1243T
171.687	23.514	177958	PRACTICE_REC_END	n/a	n/a	n/a	n/a	-999	-1	[0, 0, 0]	n/a	catFR1	0	R1243T
195.201	0.5	201470	TRIAL	n/a	n/a	n/a	n/a	-999	1	[0, 0, 0]	n/a	catFR1	0	R1243T
195.701	10.0	201970	COUNTDOWN_START	n/a	n/a	n/a	n/a	-999	1	[0, 0, 0]	n/a	catFR1	0	R1243T
206.129	0.007	212397	COUNTDOWN_END	n/a	n/a	n/a	n/a	-999	1	[0, 0, 0]	n/a	catFR1	0	R1243T
206.136	1.6	212404	ORIENT	n/a	n/a	n/a	n/a	-999	1	[0, 0, 0]	n/a	catFR1	0	R1243T
207.737	2.034	214005	ORIENT_OFF	n/a	n/a	n/a	n/a	-999	1	[0, 0, 0]	n/a	catFR1	0	R1243T
209.771	1.6	216039	WORD	n/a	wordpools/wordpool_categorized_EN.txt	PEAR	Fruit	1	1	[0, 0, 0]	n/a	catFR1	0	R1243T
211.387	0.984	217655	WORD_OFF	n/a	n/a	PEAR	n/a	1	1	[0, 0, 0]	n/a	catFR1	0	R1243T
212.371	1.6	218639	WORD	n/a	wordpools/wordpool_categorized_EN.txt	ORANGE	Fruit	2	1	[0, 0, 0]	n/a	catFR1	0	R1243T
213.989	0.783	220257	WORD_OFF	n/a	n/a	ORANGE	n/a	2	1	[0, 0, 0]	n/a	catFR1	0	R1243T
214.772	1.6	221040	WORD	n/a	wordpools/wordpool_categorized_EN.txt	SHEEP	FarmAnimals	3	1	[0, 0, 0]	n/a	catFR1	0	R1243T
216.388	0.834	222656	WORD_OFF	n/a	n/a	SHEEP	n/a	3	1	[0, 0, 0]	n/a	catFR1	0	R1243T
217.222	1.6	223490	WORD	n/a	wordpools/wordpool_categorized_EN.txt	HORSE	FarmAnimals	4	1	[0, 0, 0]	n/a	catFR1	0	R1243T
218.84	0.967	225108	WORD_OFF	n/a	n/a	HORSE	n/a	4	1	[0, 0, 0]	n/a	catFR1	0	R1243T
219.807	1.6	226075	WORD	n/a	wordpools/wordpool_categorized_EN.txt	BED	Furniture	5	1	[0, 0, 0]	n/a	catFR1	0	R1243T
221.422	0.934	227690	WORD_OFF	n/a	n/a	BED	n/a	5	1	[0, 0, 0]	n/a	catFR1	0	R1243T
222.356	1.6	228623	WORD	n/a	wordpools/wordpool_categorized_EN.txt	SHELF	Furniture	6	1	[0, 0, 0]	n/a	catFR1	0	R1243T
223.957	0.917	230224	WORD_OFF	n/a	n/a	SHELF	n/a	6	1	[0, 0, 0]	n/a	catFR1	0	R1243T
224.874	1.6	231141	WORD	n/a	wordpools/wordpool_categorized_EN.txt	BULL	FarmAnimals	7	1	[0, 0, 0]	n/a	catFR1	0	R1243T
226.49	0.817	232757	WORD_OFF	n/a	n/a	BULL	n/a	7	1	[0, 0, 0]	n/a	catFR1	0	R1243T
227.307	1.6	233574	WORD	n/a	wordpools/wordpool_categorized_EN.txt	HEN	FarmAnimals	8	1	[0, 0, 0]	n/a	catFR1	0	R1243T
228.908	0.934	235175	WORD_OFF	n/a	n/a	HEN	n/a	8	1	[0, 0, 0]	n/a	catFR1	0	R1243T
229.842	1.6	236109	WORD	n/a	wordpools/wordpool_categorized_EN.txt	PEACH	Fruit	9	1	[0, 0, 0]	n/a	catFR1	0	R1243T
231.458	0.85	237725	WORD_OFF	n/a	n/a	PEACH	n/a	9	1	[0, 0, 0]	n/a	catFR1	0	R1243T
232.308	1.6	238575	WORD	n/a	wordpools/wordpool_categorized_EN.txt	GRAPE	Fruit	10	1	[0, 0, 0]	n/a	catFR1	0	R1243T
233.909	0.784	240176	WORD_OFF	n/a	n/a	GRAPE	n/a	10	1	[0, 0, 0]	n/a	catFR1	0	R1243T
234.693	1.6	240960	WORD	n/a	wordpools/wordpool_categorized_EN.txt	RECLINER	Furniture	11	1	[0, 0, 0]	n/a	catFR1	0	R1243T
236.309	1.0	242576	WORD_OFF	n/a	n/a	RECLINER	n/a	11	1	[0, 0, 0]	n/a	catFR1	0	R1243T
237.309	1.6	243576	WORD	n/a	wordpools/wordpool_categorized_EN.txt	TABLE	Furniture	12	1	[0, 0, 0]	n/a	catFR1	0	R1243T
238.927	0.0	245193	ENCODING_END	n/a	n/a	n/a	n/a	-999	1	[0, 0, 0]	n/a	catFR1	0	R1243T
238.927	0.139	245193	WORD_OFF	n/a	n/a	TABLE	n/a	12	1	[0, 0, 0]	n/a	catFR1	0	R1243T
239.066	0.0	245332	DISTRACT_START	n/a	n/a	n/a	n/a	-999	1	[0, 0, 0]	n/a	catFR1	0	R1243T
239.066	0.011	245332	START	n/a	n/a	n/a	n/a	-999	1	[-999, -999, -999]	n/a	catFR1	0	R1243T
239.077	11.035	245343	PROB	11.003	n/a	n/a	n/a	-999	1	[8, 7, 6]	21.0	catFR1	0	R1243T
250.112	7.618	256378	PROB	7.593	n/a	n/a	n/a	-999	1	[6, 4, 6]	16.0	catFR1	0	R1243T
257.73	5.589	263995	PROB	5.589	n/a	n/a	n/a	-999	1	[9, 8, 7]	24.0	catFR1	0	R1243T
263.319	0.011	269584	STOP	n/a	n/a	n/a	n/a	-999	1	[-999, -999, -999]	n/a	catFR1	0	R1243T
263.33	0.601	269595	DISTRACT_END	n/a	n/a	n/a	n/a	-999	1	[0, 0, 0]	n/a	catFR1	0	R1243T
263.931	0.517	270196	RETRIEVAL_ORIENT	n/a	n/a	n/a	n/a	-999	1	[0, 0, 0]	n/a	catFR1	0	R1243T
264.448	11.248	270713	REC_START	n/a	n/a	n/a	n/a	-999	1	[0, 0, 0]	n/a	catFR1	0	R1243T
275.696	2.818	281960	REC_WORD	11.248	n/a	PEAR	Fruit	1	1	[0, 0, 0]	n/a	catFR1	0	R1243T
278.514	2.275	284778	REC_WORD	14.066	n/a	FARM	n/a	-999	1	[0, 0, 0]	n/a	catFR1	0	R1243T
280.789	6.025	287053	REC_WORD	16.341	n/a	PEACH	Fruit	9	1	[0, 0, 0]	n/a	catFR1	0	R1243T
286.814	7.644	293078	REC_WORD	22.366	n/a	TABLE	Furniture	12	1	[0, 0, 0]	n/a	catFR1	0	R1243T
294.458	6.113	300721	REC_END	n/a	n/a	n/a	n/a	-999	1	[0, 0, 0]	n/a	catFR1	0	R1243T
300.571	0.5	306834	TRIAL	n/a	n/a	n/a	n/a	-999	2	[0, 0, 0]	n/a	catFR1	0	R1243T
301.071	10.0	307334	COUNTDOWN_START	n/a	n/a	n/a	n/a	-999	2	[0, 0, 0]	n/a	catFR1	0	R1243T
311.499	0.007	317761	COUNTDOWN_END	n/a	n/a	n/a	n/a	-999	2	[0, 0, 0]	n/a	catFR1	0	R1243T
311.506	1.6	317768	ORIENT	n/a	n/a	n/a	n/a	-999	2	[0, 0, 0]	n/a	catFR1	0	R1243T
313.124	1.9	319386	ORIENT_OFF	n/a	n/a	n/a	n/a	-999	2	[0, 0, 0]	n/a	catFR1	0	R1243T
315.024	1.6	321286	WORD	n/a	wordpools/wordpool_categorized_EN.txt	MICROWAVE	Electronics	1	2	[0, 0, 0]	n/a	catFR1	0	R1243T
316.641	0.799	322903	WORD_OFF	n/a	n/a	MICROWAVE	n/a	1	2	[0, 0, 0]	n/a	catFR1	0	R1243T
317.44	1.6	323702	WORD	n/a	wordpools/wordpool_categorized_EN.txt	TABLET	Electronics	2	2	[0, 0, 0]	n/a	catFR1	0	R1243T
319.058	0.817	325320	WORD_OFF	n/a	n/a	TABLET	n/a	2	2	[0, 0, 0]	n/a	catFR1	0	R1243T
319.875	1.6	326136	WORD	n/a	wordpools/wordpool_categorized_EN.txt	CRICKET	Insects	3	2	[0, 0, 0]	n/a	catFR1	0	R1243T
321.491	0.933	327752	WORD_OFF	n/a	n/a	CRICKET	n/a	3	2	[0, 0, 0]	n/a	catFR1	0	R1243T
322.424	1.6	328685	WORD	n/a	wordpools/wordpool_categorized_EN.txt	BEETLE	Insects	4	2	[0, 0, 0]	n/a	catFR1	0	R1243T
324.042	0.8	330303	WORD_OFF	n/a	n/a	BEETLE	n/a	4	2	[0, 0, 0]	n/a	catFR1	0	R1243T
324.842	1.6	331103	WORD	n/a	wordpools/wordpool_categorized_EN.txt	WALL	Building	5	2	[0, 0, 0]	n/a	catFR1	0	R1243T
326.458	0.984	332719	WORD_OFF	n/a	n/a	WALL	n/a	5	2	[0, 0, 0]	n/a	catFR1	0	R1243T
327.442	1.6	333703	WORD	n/a	wordpools/wordpool_categorized_EN.txt	ROOF	Building	6	2	[0, 0, 0]	n/a	catFR1	0	R1243T
329.06	1.0	335321	WORD_OFF	n/a	n/a	ROOF	n/a	6	2	[0, 0, 0]	n/a	catFR1	0	R1243T
330.06	1.6	336321	WORD	n/a	wordpools/wordpool_categorized_EN.txt	LADYBUG	Insects	7	2	[0, 0, 0]	n/a	catFR1	0	R1243T
331.677	0.9	337938	WORD_OFF	n/a	n/a	LADYBUG	n/a	7	2	[0, 0, 0]	n/a	catFR1	0	R1243T
332.577	1.6	338838	WORD	n/a	wordpools/wordpool_categorized_EN.txt	ROACH	Insects	8	2	[0, 0, 0]	n/a	catFR1	0	R1243T
334.193	1.0	340454	WORD_OFF	n/a	n/a	ROACH	n/a	8	2	[0, 0, 0]	n/a	catFR1	0	R1243T
335.193	1.6	341454	WORD	n/a	wordpools/wordpool_categorized_EN.txt	PRINTER	Electronics	9	2	[0, 0, 0]	n/a	catFR1	0	R1243T
336.794	0.917	343054	WORD_OFF	n/a	n/a	PRINTER	n/a	9	2	[0, 0, 0]	n/a	catFR1	0	R1243T
337.711	1.6	343971	WORD	n/a	wordpools/wordpool_categorized_EN.txt	RADIO	Electronics	10	2	[0, 0, 0]	n/a	catFR1	0	R1243T
339.327	0.8	345587	WORD_OFF	n/a	n/a	RADIO	n/a	10	2	[0, 0, 0]	n/a	catFR1	0	R1243T
340.127	1.6	346387	WORD	n/a	wordpools/wordpool_categorized_EN.txt	BATHROOM	Building	11	2	[0, 0, 0]	n/a	catFR1	0	R1243T
341.729	0.85	347989	WORD_OFF	n/a	n/a	BATHROOM	n/a	11	2	[0, 0, 0]	n/a	catFR1	0	R1243T
342.579	1.6	348839	WORD	n/a	wordpools/wordpool_categorized_EN.txt	DOOR	Building	12	2	[0, 0, 0]	n/a	catFR1	0	R1243T
344.195	0.0	350455	ENCODING_END	n/a	n/a	n/a	n/a	-999	2	[0, 0, 0]	n/a	catFR1	0	R1243T
344.195	0.104	350455	WORD_OFF	n/a	n/a	DOOR	n/a	12	2	[0, 0, 0]	n/a	catFR1	0	R1243T
344.299	0.0	350559	DISTRACT_START	n/a	n/a	n/a	n/a	-999	2	[0, 0, 0]	n/a	catFR1	0	R1243T
344.299	0.013	350559	START	n/a	n/a	n/a	n/a	-999	2	[-999, -999, -999]	n/a	catFR1	0	R1243T
344.312	6.435	350572	PROB	6.409	n/a	n/a	n/a	-999	2	[8, 4, 9]	21.0	catFR1	0	R1243T
350.747	4.001	357007	PROB	3.965	n/a	n/a	n/a	-999	2	[2, 7, 5]	14.0	catFR1	0	R1243T
354.748	5.201	361007	PROB	5.165	n/a	n/a	n/a	-999	2	[1, 6, 8]	15.0	catFR1	0	R1243T
359.949	7.386	366208	PROB	7.386	n/a	n/a	n/a	-999	2	[9, 3, 1]	13.0	catFR1	0	R1243T
367.335	0.014	373594	STOP	n/a	n/a	n/a	n/a	-999	2	[-999, -999, -999]	n/a	catFR1	0	R1243T
367.349	0.568	373608	DISTRACT_END	n/a	n/a	n/a	n/a	-999	2	[0, 0, 0]	n/a	catFR1	0	R1243T
367.917	0.517	374176	RETRIEVAL_ORIENT	n/a	n/a	n/a	n/a	-999	2	[0, 0, 0]	n/a	catFR1	0	R1243T
368.434	5.73	374693	REC_START	n/a	n/a	n/a	n/a	-999	2	[0, 0, 0]	n/a	catFR1	0	R1243T
374.164	6.371	380422	REC_WORD	5.73	n/a	CRICKET	Insects	3	2	[0, 0, 0]	n/a	catFR1	0	R1243T
380.535	4.342	386793	REC_WORD	12.101	n/a	SPIDER	n/a	-999	2	[0, 0, 0]	n/a	catFR1	0	R1243T
384.877	5.724	391135	REC_WORD	16.443	n/a	GRAPE	n/a	-999	2	[0, 0, 0]	n/a	catFR1	0	R1243T
390.601	3.123	396858	REC_WORD	22.167	n/a	DOOR	Building	12	2	[0, 0, 0]	n/a	catFR1	0	R1243T
393.724	4.719	399981	REC_WORD	25.29	n/a	ROOF	Building	6	2	[0, 0, 0]	n/a	catFR1	0	R1243T
398.443	6.547	404700	REC_END	n/a	n/a	n/a	n/a	-999	2	[0, 0, 0]	n/a	catFR1	0	R1243T
404.99	0.5	411246	TRIAL	n/a	n/a	n/a	n/a	-999	3	[0, 0, 0]	n/a	catFR1	0	R1243T
405.49	10.0	411746	COUNTDOWN_START	n/a	n/a	n/a	n/a	-999	3	[0, 0, 0]	n/a	catFR1	0	R1243T
415.918	0.008	422174	COUNTDOWN_END	n/a	n/a	n/a	n/a	-999	3	[0, 0, 0]	n/a	catFR1	0	R1243T
415.926	1.6	422182	ORIENT	n/a	n/a	n/a	n/a	-999	3	[0, 0, 0]	n/a	catFR1	0	R1243T
417.543	2.317	423799	ORIENT_OFF	n/a	n/a	n/a	n/a	-999	3	[0, 0, 0]	n/a	catFR1	0	R1243T
419.86	1.6	426115	WORD	n/a	wordpools/wordpool_categorized_EN.txt	THUNDERSTORM	Weather	1	3	[0, 0, 0]	n/a	catFR1	0	R1243T
421.476	0.783	427731	WORD_OFF	n/a	n/a	THUNDERSTORM	n/a	1	3	[0, 0, 0]	n/a	catFR1	0	R1243T
422.259	1.6	428514	WORD	n/a	wordpools/wordpool_categorized_EN.txt	TORNADO	Weather	2	3	[0, 0, 0]	n/a	catFR1	0	R1243T
423.877	0.833	430132	WORD_OFF	n/a	n/a	TORNADO	n/a	2	3	[0, 0, 0]	n/a	catFR1	0	R1243T
424.71	1.6	430965	WORD	n/a	wordpools/wordpool_categorized_EN.txt	COOKIE	Desserts	3	3	[0, 0, 0]	n/a	catFR1	0	R1243T
426.327	0.866	432582	WORD_OFF	n/a	n/a	COOKIE	n/a	3	3	[0, 0, 0]	n/a	catFR1	0	R1243T
427.193	1.6	433448	WORD	n/a	wordpools/wordpool_categorized_EN.txt	PUDDING	Desserts	4	3	[0, 0, 0]	n/a	catFR1	0	R1243T
428.811	1.0	435066	WORD_OFF	n/a	n/a	PUDDING	n/a	4	3	[0, 0, 0]	n/a	catFR1	0	R1243T
429.811	1.6	436066	WORD	n/a	wordpools/wordpool_categorized_EN.txt	CALCULATOR	Electronics	5	3	[0, 0, 0]	n/a	catFR1	0	R1243T
431.427	0.917	437682	WORD_OFF	n/a	n/a	CALCULATOR	n/a	5	3	[0, 0, 0]	n/a	catFR1	0	R1243T
432.344	1.6	438599	WORD	n/a	wordpools/wordpool_categorized_EN.txt	TELEVISION	Electronics	6	3	[0, 0, 0]	n/a	catFR1	0	R1243T
433.945	0.884	440200	WORD_OFF	n/a	n/a	TELEVISION	n/a	6	3	[0, 0, 0]	n/a	catFR1	0	R1243T
434.829	1.6	441083	WORD	n/a	wordpools/wordpool_categorized_EN.txt	WIND	Weather	7	3	[0, 0, 0]	n/a	catFR1	0	R1243T
436.445	0.783	442699	WORD_OFF	n/a	n/a	WIND	n/a	7	3	[0, 0, 0]	n/a	catFR1	0	R1243T
437.228	1.6	443482	WORD	n/a	wordpools/wordpool_categorized_EN.txt	HURRICANE	Weather	8	3	[0, 0, 0]	n/a	catFR1	0	R1243T
438.846	0.867	445100	WORD_OFF	n/a	n/a	HURRICANE	n/a	8	3	[0, 0, 0]	n/a	catFR1	0	R1243T
439.713	1.6	445967	WORD	n/a	wordpools/wordpool_categorized_EN.txt	COBBLER	Desserts	9	3	[0, 0, 0]	n/a	catFR1	0	R1243T
441.329	0.984	447583	WORD_OFF	n/a	n/a	COBBLER	n/a	9	3	[0, 0, 0]	n/a	catFR1	0	R1243T
442.313	1.6	448567	WORD	n/a	wordpools/wordpool_categorized_EN.txt	BROWNIES	Desserts	10	3	[0, 0, 0]	n/a	catFR1	0	R1243T
443.931	0.85	450185	WORD_OFF	n/a	n/a	BROWNIES	n/a	10	3	[0, 0, 0]	n/a	catFR1	0	R1243T
444.781	1.6	451035	WORD	n/a	wordpools/wordpool_categorized_EN.txt	PHONE	Electronics	11	3	[0, 0, 0]	n/a	catFR1	0	R1243T
446.397	0.9	452651	WORD_OFF	n/a	n/a	PHONE	n/a	11	3	[0, 0, 0]	n/a	catFR1	0	R1243T
447.297	1.6	453551	WORD	n/a	wordpools/wordpool_categorized_EN.txt	STEREO	Electronics	12	3	[0, 0, 0]	n/a	catFR1	0	R1243T
448.915	0.0	455169	ENCODING_END	n/a	n/a	n/a	n/a	-999	3	[0, 0, 0]	n/a	catFR1	0	R1243T
448.915	0.103	455169	WORD_OFF	n/a	n/a	STEREO	n/a	12	3	[0, 0, 0]	n/a	catFR1	0	R1243T
449.018	0.0	455272	DISTRACT_START	n/a	n/a	n/a	n/a	-999	3	[0, 0, 0]	n/a	catFR1	0	R1243T
449.018	0.014	455272	START	n/a	n/a	n/a	n/a	-999	3	[-999, -999, -999]	n/a	catFR1	0	R1243T
449.032	6.333	455286	PROB	6.311	n/a	n/a	n/a	-999	3	[2, 1, 7]	10.0	catFR1	0	R1243T
455.365	4.269	461618	PROB	4.243	n/a	n/a	n/a	-999	3	[6, 1, 4]	11.0	catFR1	0	R1243T
459.634	5.067	465887	PROB	5.031	n/a	n/a	n/a	-999	3	[3, 3, 2]	8.0	catFR1	0	R1243T
464.701	7.076	470954	PROB	7.076	n/a	n/a	n/a	-999	3	[8, 1, 8]	17.0	catFR1	0	R1243T
471.777	0.009	478029	STOP	n/a	n/a	n/a	n/a	-999	3	[-999, -999, -999]	n/a	catFR1	0	R1243T
471.786	0.649	478038	DISTRACT_END	n/a	n/a	n/a	n/a	-999	3	[0, 0, 0]	n/a	catFR1	0	R1243T
472.435	0.518	478687	RETRIEVAL_ORIENT	n/a	n/a	n/a	n/a	-999	3	[0, 0, 0]	n/a	catFR1	0	R1243T
472.953	9.909	479205	REC_START	n/a	n/a	n/a	n/a	-999	3	[0, 0, 0]	n/a	catFR1	0	R1243T
482.862	12.868	489114	REC_WORD	9.909	n/a	COBBLER	Desserts	9	3	[0, 0, 0]	n/a	catFR1	0	R1243T
495.73	7.033	501981	REC_WORD	22.777	n/a	FLOOR	n/a	-999	3	[0, 0, 0]	n/a	catFR1	0	R1243T
502.763	0.2	509013	REC_WORD_VV	29.81	n/a	<>	n/a	-999	3	[0, 0, 0]	n/a	catFR1	0	R1243T
502.963	5.478	509213	REC_END	n/a	n/a	n/a	n/a	-999	3	[0, 0, 0]	n/a	catFR1	0	R1243T
508.441	0.5	514691	TRIAL	n/a	n/a	n/a	n/a	-999	4	[0, 0, 0]	n/a	catFR1	0	R1243T
508.941	10.0	515191	COUNTDOWN_START	n/a	n/a	n/a	n/a	-999	4	[0, 0, 0]	n/a	catFR1	0	R1243T
519.369	0.008	525618	COUNTDOWN_END	n/a	n/a	n/a	n/a	-999	4	[0, 0, 0]	n/a	catFR1	0	R1243T
519.377	1.6	525626	ORIENT	n/a	n/a	n/a	n/a	-999	4	[0, 0, 0]	n/a	catFR1	0	R1243T
520.995	1.95	527244	ORIENT_OFF	n/a	n/a	n/a	n/a	-999	4	[0, 0, 0]	n/a	catFR1	0	R1243T
522.945	1.6	529194	WORD	n/a	wordpools/wordpool_categorized_EN.txt	NIGHTSTAND	Furniture	1	4	[0, 0, 0]	n/a	catFR1	0	R1243T
524.562	0.916	530811	WORD_OFF	n/a	n/a	NIGHTSTAND	n/a	1	4	[0, 0, 0]	n/a	catFR1	0	R1243T
525.478	1.6	531727	WORD	n/a	wordpools/wordpool_categorized_EN.txt	DESK	Furniture	2	4	[0, 0, 0]	n/a	catFR1	0	R1243T
527.096	0.95	533345	WORD_OFF	n/a	n/a	DESK	n/a	2	4	[0, 0, 0]	n/a	catFR1	0	R1243T
528.046	1.6	534295	WORD	n/a	wordpools/wordpool_categorized_EN.txt	OCEAN	Landscapes	3	4	[0, 0, 0]	n/a	catFR1	0	R1243T
529.663	0.933	535912	WORD_OFF	n/a	n/a	OCEAN	n/a	3	4	[0, 0, 0]	n/a	catFR1	0	R1243T
530.596	1.6	536845	WORD	n/a	wordpools/wordpool_categorized_EN.txt	WOODS	Landscapes	4	4	[0, 0, 0]	n/a	catFR1	0	R1243T
532.212	0.851	538461	WORD_OFF	n/a	n/a	WOODS	n/a	4	4	[0, 0, 0]	n/a	catFR1	0	R1243T
533.063	1.6	539311	WORD	n/a	wordpools/wordpool_categorized_EN.txt	ROOM	Building	5	4	[0, 0, 0]	n/a	catFR1	0	R1243T
534.681	0.85	540929	WORD_OFF	n/a	n/a	ROOM	n/a	5	4	[0, 0, 0]	n/a	catFR1	0	R1243T
535.531	1.6	541779	WORD	n/a	wordpools/wordpool_categorized_EN.txt	FOUNDATION	Building	6	4	[0, 0, 0]	n/a	catFR1	0	R1243T
537.147	0.917	543395	WORD_OFF	n/a	n/a	FOUNDATION	n/a	6	4	[0, 0, 0]	n/a	catFR1	0	R1243T
538.064	1.6	544312	WORD	n/a	wordpools/wordpool_categorized_EN.txt	SOFA	Furniture	7	4	[0, 0, 0]	n/a	catFR1	0	R1243T
539.682	0.815	545930	WORD_OFF	n/a	n/a	SOFA	n/a	7	4	[0, 0, 0]	n/a	catFR1	0	R1243T
540.497	1.6	546745	WORD	n/a	wordpools/wordpool_categorized_EN.txt	COUCH	Furniture	8	4	[0, 0, 0]	n/a	catFR1	0	R1243T
542.098	0.834	548346	WORD_OFF	n/a	n/a	COUCH	n/a	8	4	[0, 0, 0]	n/a	catFR1	0	R1243T
542.932	1.6	549180	WORD	n/a	wordpools/wordpool_categorized_EN.txt	ISLAND	Landscapes	9	4	[0, 0, 0]	n/a	catFR1	0	R1243T
544.549	0.916	550797	WORD_OFF	n/a	n/a	ISLAND	n/a	9	4	[0, 0, 0]	n/a	catFR1	0	R1243T
545.465	1.6	551713	WORD	n/a	wordpools/wordpool_categorized_EN.txt	HILLS	Landscapes	10	4	[0, 0, 0]	n/a	catFR1	0	R1243T
547.083	1.017	553331	WORD_OFF	n/a	n/a	HILLS	n/a	10	4	[0, 0, 0]	n/a	catFR1	0	R1243T
548.1	1.6	554348	WORD	n/a	wordpools/wordpool_categorized_EN.txt	ATTIC	Building	11	4	[0, 0, 0]	n/a	catFR1	0	R1243T
549.717	0.8	555964	WORD_OFF	n/a	n/a	ATTIC	n/a	11	4	[0, 0, 0]	n/a	catFR1	0	R1243T
550.517	1.6	556764	WORD	n/a	wordpools/wordpool_categorized_EN.txt	FLOOR	Building	12	4	[0, 0, 0]	n/a	catFR1	0	R1243T
552.133	0.0	558380	ENCODING_END	n/a	n/a	n/a	n/a	-999	4	[0, 0, 0]	n/a	catFR1	0	R1243T
552.133	0.133	558380	WORD_OFF	n/a	n/a	FLOOR	n/a	12	4	[0, 0, 0]	n/a	catFR1	0	R1243T
552.266	0.0	558513	DISTRACT_START	n/a	n/a	n/a	n/a	-999	4	[0, 0, 0]	n/a	catFR1	0	R1243T
552.266	0.017	558513	START	n/a	n/a	n/a	n/a	-999	4	[-999, -999, -999]	n/a	catFR1	0	R1243T
552.283	7.884	558530	PROB	7.852	n/a	n/a	n/a	-999	4	[1, 2, 5]	8.0	catFR1	0	R1243T
560.167	6.786	566414	PROB	6.761	n/a	n/a	n/a	-999	4	[9, 7, 4]	20.0	catFR1	0	R1243T
566.953	7.478	573199	PROB	7.478	n/a	n/a	n/a	-999	4	[7, 5, 4]	16.0	catFR1	0	R1243T
574.431	0.006	580677	STOP	n/a	n/a	n/a	n/a	-999	4	[-999, -999, -999]	n/a	catFR1	0	R1243T
574.437	0.518	580683	DISTRACT_END	n/a	n/a	n/a	n/a	-999	4	[0, 0, 0]	n/a	catFR1	0	R1243T
574.955	0.516	581201	RETRIEVAL_ORIENT	n/a	n/a	n/a	n/a	-999	4	[0, 0, 0]	n/a	catFR1	0	R1243T
575.471	5.829	581717	REC_START	n/a	n/a	n/a	n/a	-999	4	[0, 0, 0]	n/a	catFR1	0	R1243T
581.3	0.592	587546	REC_WORD	5.829	n/a	CEILING	n/a	-999	4	[0, 0, 0]	n/a	catFR1	0	R1243T
581.892	1.807	588137	REC_WORD	6.421	n/a	FLOOR	Building	12	4	[0, 0, 0]	n/a	catFR1	0	R1243T
583.699	7.732	589944	REC_WORD	8.228	n/a	WALL	n/a	-999	4	[0, 0, 0]	n/a	catFR1	0	R1243T
591.431	6.899	597676	REC_WORD	15.96	n/a	BROWNIES	n/a	-999	4	[0, 0, 0]	n/a	catFR1	0	R1243T
598.33	4.757	604574	REC_WORD	22.859	n/a	PUDDING	n/a	-999	4	[0, 0, 0]	n/a	catFR1	0	R1243T
603.087	2.394	609331	REC_WORD	27.616	n/a	DOOR	n/a	-999	4	[0, 0, 0]	n/a	catFR1	0	R1243T
605.481	5.929	611725	REC_END	n/a	n/a	n/a	n/a	-999	4	[0, 0, 0]	n/a	catFR1	0	R1243T
611.41	0.5	617654	TRIAL	n/a	n/a	n/a	n/a	-999	5	[0, 0, 0]	n/a	catFR1	0	R1243T
611.91	10.0	618154	COUNTDOWN_START	n/a	n/a	n/a	n/a	-999	5	[0, 0, 0]	n/a	catFR1	0	R1243T
622.338	0.007	628581	COUNTDOWN_END	n/a	n/a	n/a	n/a	-999	5	[0, 0, 0]	n/a	catFR1	0	R1243T
622.345	1.6	628588	ORIENT	n/a	n/a	n/a	n/a	-999	5	[0, 0, 0]	n/a	catFR1	0	R1243T
623.947	1.983	630190	ORIENT_OFF	n/a	n/a	n/a	n/a	-999	5	[0, 0, 0]	n/a	catFR1	0	R1243T
625.93	1.6	632173	WORD	n/a	wordpools/wordpool_categorized_EN.txt	LEVEL	Tools	1	5	[0, 0, 0]	n/a	catFR1	0	R1243T
627.547	0.833	633790	WORD_OFF	n/a	n/a	LEVEL	n/a	1	5	[0, 0, 0]	n/a	catFR1	0	R1243T
628.38	1.6	634623	WORD	n/a	wordpools/wordpool_categorized_EN.txt	HAMMER	Tools	2	5	[0, 0, 0]	n/a	catFR1	0	R1243T
629.998	0.817	636241	WORD_OFF	n/a	n/a	HAMMER	n/a	2	5	[0, 0, 0]	n/a	catFR1	0	R1243T
630.815	1.6	637057	WORD	n/a	wordpools/wordpool_categorized_EN.txt	CELERY	Vegetables	3	5	[0, 0, 0]	n/a	catFR1	0	R1243T
632.431	0.766	638673	WORD_OFF	n/a	n/a	CELERY	n/a	3	5	[0, 0, 0]	n/a	catFR1	0	R1243T
633.197	1.6	639439	WORD	n/a	wordpools/wordpool_categorized_EN.txt	CUCUMBER	Vegetables	4	5	[0, 0, 0]	n/a	catFR1	0	R1243T
634.799	0.967	641041	WORD_OFF	n/a	n/a	CUCUMBER	n/a	4	5	[0, 0, 0]	n/a	catFR1	0	R1243T
635.766	1.6	642008	WORD	n/a	wordpools/wordpool_categorized_EN.txt	COMPUTER	Electronics	5	5	[0, 0, 0]	n/a	catFR1	0	R1243T
637.382	0.833	643624	WORD_OFF	n/a	n/a	COMPUTER	n/a	5	5	[0, 0, 0]	n/a	catFR1	0	R1243T
638.215	1.6	644457	WORD	n/a	wordpools/wordpool_categorized_EN.txt	SPEAKER	Electronics	6	5	[0, 0, 0]	n/a	catFR1	0	R1243T
639.833	0.95	646075	WORD_OFF	n/a	n/a	SPEAKER	n/a	6	5	[0, 0, 0]	n/a	catFR1	0	R1243T
640.783	1.6	647025	WORD	n/a	wordpools/wordpool_categorized_EN.txt	SPINACH	Vegetables	7	5	[0, 0, 0]	n/a	catFR1	0	R1243T
642.399	0.984	648641	WORD_OFF	n/a	n/a	SPINACH	n/a	7	5	[0, 0, 0]	n/a	catFR1	0	R1243T
643.383	1.6	649625	WORD	n/a	wordpools/wordpool_categorized_EN.txt	CARROT	Vegetables	8	5	[0, 0, 0]	n/a	catFR1	0	R1243T
645.001	1.0	651243	WORD_OFF	n/a	n/a	CARROT	n/a	8	5	[0, 0, 0]	n/a	catFR1	0	R1243T
646.001	1.6	652243	WORD	n/a	wordpools/wordpool_categorized_EN.txt	PLIERS	Tools	9	5	[0, 0, 0]	n/a	catFR1	0	R1243T
647.618	0.782	653859	WORD_OFF	n/a	n/a	PLIERS	n/a	9	5	[0, 0, 0]	n/a	catFR1	0	R1243T
648.4	1.6	654641	WORD	n/a	wordpools/wordpool_categorized_EN.txt	AXE	Tools	10	5	[0, 0, 0]	n/a	catFR1	0	R1243T
650.001	0.801	656242	WORD_OFF	n/a	n/a	AXE	n/a	10	5	[0, 0, 0]	n/a	catFR1	0	R1243T
650.802	1.6	657043	WORD	n/a	wordpools/wordpool_categorized_EN.txt	HEADPHONES	Electronics	11	5	[0, 0, 0]	n/a	catFR1	0	R1243T
652.418	1.017	658659	WORD_OFF	n/a	n/a	HEADPHONES	n/a	11	5	[0, 0, 0]	n/a	catFR1	0	R1243T
653.435	1.6	659676	WORD	n/a	wordpools/wordpool_categorized_EN.txt	SCANNER	Electronics	12	5	[0, 0, 0]	n/a	catFR1	0	R1243T
655.053	0.0	661294	ENCODING_END	n/a	n/a	n/a	n/a	-999	5	[0, 0, 0]	n/a	catFR1	0	R1243T
655.053	0.102	661294	WORD_OFF	n/a	n/a	SCANNER	n/a	12	5	[0, 0, 0]	n/a	catFR1	0	R1243T
655.155	0.0	661396	DISTRACT_START	n/a	n/a	n/a	n/a	-999	5	[0, 0, 0]	n/a	catFR1	0	R1243T
655.155	0.013	661396	START	n/a	n/a	n/a	n/a	-999	5	[-999, -999, -999]	n/a	catFR1	0	R1243T
655.168	6.235	661409	PROB	6.2	n/a	n/a	n/a	-999	5	[1, 9, 3]	13.0	catFR1	0	R1243T
661.403	8.636	667644	PROB	8.605	n/a	n/a	n/a	-999	5	[5, 6, 7]	18.0	catFR1	0	R1243T
670.039	4.416	676279	PROB	4.384	n/a	n/a	n/a	-999	5	[2, 2, 1]	5.0	catFR1	0	R1243T
674.455	6.058	680695	PROB	6.058	n/a	n/a	n/a	-999	5	[6, 7, 1]	14.0	catFR1	0	R1243T
680.513	0.011	686752	STOP	n/a	n/a	n/a	n/a	-999	5	[-999, -999, -999]	n/a	catFR1	0	R1243T
680.524	0.55	686763	DISTRACT_END	n/a	n/a	n/a	n/a	-999	5	[0, 0, 0]	n/a	catFR1	0	R1243T
681.074	0.517	687313	RETRIEVAL_ORIENT	n/a	n/a	n/a	n/a	-999	5	[0, 0, 0]	n/a	catFR1	0	R1243T
681.591	11.386	687830	REC_START	n/a	n/a	n/a	n/a	-999	5	[0, 0, 0]	n/a	catFR1	0	R1243T
692.977	0.889	699216	REC_WORD	11.386	n/a	PLIERS	Tools	9	5	[0, 0, 0]	n/a	catFR1	0	R1243T
693.866	3.083	700105	REC_WORD	12.275	n/a	SAW	n/a	-999	5	[0, 0, 0]	n/a	catFR1	0	R1243T
696.949	11.042	703187	REC_WORD	15.358	n/a	HAMMER	Tools	2	5	[0, 0, 0]	n/a	catFR1	0	R1243T
707.991	1.081	714229	REC_WORD	26.4	n/a	CEILING	n/a	-999	5	[0, 0, 0]	n/a	catFR1	0	R1243T
709.072	2.53	715310	REC_WORD	27.481	n/a	ROOF	n/a	-999	5	[0, 0, 0]	n/a	catFR1	0	R1243T
711.602	5.727	717840	REC_END	n/a	n/a	n/a	n/a	-999	5	[0, 0, 0]	n/a	catFR1	0	R1243T
717.329	0.5	723566	TRIAL	n/a	n/a	n/a	n/a	-999	6	[0, 0, 0]	n/a	catFR1	0	R1243T
717.829	10.0	724066	COUNTDOWN_START	n/a	n/a	n/a	n/a	-999	6	[0, 0, 0]	n/a	catFR1	0	R1243T
728.257	0.008	734494	COUNTDOWN_END	n/a	n/a	n/a	n/a	-999	6	[0, 0, 0]	n/a	catFR1	0	R1243T
728.265	1.6	734502	ORIENT	n/a	n/a	n/a	n/a	-999	6	[0, 0, 0]	n/a	catFR1	0	R1243T
729.883	2.067	736119	ORIENT_OFF	n/a	n/a	n/a	n/a	-999	6	[0, 0, 0]	n/a	catFR1	0	R1243T
731.95	1.6	738186	WORD	n/a	wordpools/wordpool_categorized_EN.txt	VIOLET	Flowers	1	6	[0, 0, 0]	n/a	catFR1	0	R1243T
733.567	0.95	739803	WORD_OFF	n/a	n/a	VIOLET	n/a	1	6	[0, 0, 0]	n/a	catFR1	0	R1243T
734.517	1.6	740753	WORD	n/a	wordpools/wordpool_categorized_EN.txt	CARNATION	Flowers	2	6	[0, 0, 0]	n/a	catFR1	0	R1243T
736.133	1.0	742369	WORD_OFF	n/a	n/a	CARNATION	n/a	2	6	[0, 0, 0]	n/a	catFR1	0	R1243T
737.133	1.6	743369	WORD	n/a	wordpools/wordpool_categorized_EN.txt	LOBSTER	OceanAnimals	3	6	[0, 0, 0]	n/a	catFR1	0	R1243T
738.751	0.85	744987	WORD_OFF	n/a	n/a	LOBSTER	n/a	3	6	[0, 0, 0]	n/a	catFR1	0	R1243T
739.601	1.6	745837	WORD	n/a	wordpools/wordpool_categorized_EN.txt	SQUID	OceanAnimals	4	6	[0, 0, 0]	n/a	catFR1	0	R1243T
741.217	0.885	747453	WORD_OFF	n/a	n/a	SQUID	n/a	4	6	[0, 0, 0]	n/a	catFR1	0	R1243T
742.102	1.6	748338	WORD	n/a	wordpools/wordpool_categorized_EN.txt	CHEESECAKE	Desserts	5	6	[0, 0, 0]	n/a	catFR1	0	R1243T
743.719	0.866	749955	WORD_OFF	n/a	n/a	CHEESECAKE	n/a	5	6	[0, 0, 0]	n/a	catFR1	0	R1243T
744.585	1.6	750821	WORD	n/a	wordpools/wordpool_categorized_EN.txt	MOUSSE	Desserts	6	6	[0, 0, 0]	n/a	catFR1	0	R1243T
746.201	0.868	752436	WORD_OFF	n/a	n/a	MOUSSE	n/a	6	6	[0, 0, 0]	n/a	catFR1	0	R1243T
747.069	1.6	753304	WORD	n/a	wordpools/wordpool_categorized_EN.txt	DOLPHIN	OceanAnimals	7	6	[0, 0, 0]	n/a	catFR1	0	R1243T
748.686	0.984	754921	WORD_OFF	n/a	n/a	DOLPHIN	n/a	7	6	[0, 0, 0]	n/a	catFR1	0	R1243T
749.67	1.6	755905	WORD	n/a	wordpools/wordpool_categorized_EN.txt	PLANKTON	OceanAnimals	8	6	[0, 0, 0]	n/a	catFR1	0	R1243T
751.286	0.784	757521	WORD_OFF	n/a	n/a	PLANKTON	n/a	8	6	[0, 0, 0]	n/a	catFR1	0	R1243T
752.07	1.6	758305	WORD	n/a	wordpools/wordpool_categorized_EN.txt	MARIGOLD	Flowers	9	6	[0, 0, 0]	n/a	catFR1	0	R1243T
753.687	0.917	759922	WORD_OFF	n/a	n/a	MARIGOLD	n/a	9	6	[0, 0, 0]	n/a	catFR1	0	R1243T
754.604	1.6	760839	WORD	n/a	wordpools/wordpool_categorized_EN.txt	TULIP	Flowers	10	6	[0, 0, 0]	n/a	catFR1	0	R1243T
756.22	0.917	762455	WORD_OFF	n/a	n/a	TULIP	n/a	10	6	[0, 0, 0]	n/a	catFR1	0	R1243T
757.137	1.6	763372	WORD	n/a	wordpools/wordpool_categorized_EN.txt	JELLO	Desserts	11	6	[0, 0, 0]	n/a	catFR1	0	R1243T
758.755	0.95	764990	WORD_OFF	n/a	n/a	JELLO	n/a	11	6	[0, 0, 0]	n/a	catFR1	0	R1243T
759.705	1.6	765940	WORD	n/a	wordpools/wordpool_categorized_EN.txt	PASTRY	Desserts	12	6	[0, 0, 0]	n/a	catFR1	0	R1243T
761.321	0.0	767556	WORD_OFF	n/a	n/a	PASTRY	n/a	12	6	[0, 0, 0]	n/a	catFR1	0	R1243T
761.321	0.103	767556	ENCODING_END	n/a	n/a	n/a	n/a	-999	6	[0, 0, 0]	n/a	catFR1	0	R1243T
761.424	0.001	767658	DISTRACT_START	n/a	n/a	n/a	n/a	-999	6	[0, 0, 0]	n/a	catFR1	0	R1243T
761.425	0.012	767659	START	n/a	n/a	n/a	n/a	-999	6	[-999, -999, -999]	n/a	catFR1	0	R1243T
761.437	5.403	767671	PROB	5.379	n/a	n/a	n/a	-999	6	[1, 8, 4]	13.0	catFR1	0	R1243T
766.84	5.784	773074	PROB	5.761	n/a	n/a	n/a	-999	6	[5, 8, 5]	18.0	catFR1	0	R1243T
772.624	4.917	778858	PROB	4.888	n/a	n/a	n/a	-999	6	[7, 1, 1]	9.0	catFR1	0	R1243T
777.541	5.123	783775	PROB	5.123	n/a	n/a	n/a	-999	6	[1, 5, 6]	12.0	catFR1	0	R1243T
782.664	0.012	788897	STOP	n/a	n/a	n/a	n/a	-999	6	[-999, -999, -999]	n/a	catFR1	0	R1243T
782.676	0.549	788909	DISTRACT_END	n/a	n/a	n/a	n/a	-999	6	[0, 0, 0]	n/a	catFR1	0	R1243T
783.225	0.519	789458	RETRIEVAL_ORIENT	n/a	n/a	n/a	n/a	-999	6	[0, 0, 0]	n/a	catFR1	0	R1243T
783.744	4.627	789977	REC_START	n/a	n/a	n/a	n/a	-999	6	[0, 0, 0]	n/a	catFR1	0	R1243T
788.371	1.131	794604	REC_WORD	4.627	n/a	TULIP	Flowers	10	6	[0, 0, 0]	n/a	catFR1	0	R1243T
789.502	0.41	795735	REC_WORD_VV	5.758	n/a	<>	n/a	-999	6	[0, 0, 0]	n/a	catFR1	0	R1243T
789.912	3.163	796145	REC_WORD	6.168	n/a	VIOLET	Flowers	1	6	[0, 0, 0]	n/a	catFR1	0	R1243T
793.075	13.122	799308	REC_WORD	9.331	n/a	SQUID	OceanAnimals	4	6	[0, 0, 0]	n/a	catFR1	0	R1243T
806.197	7.557	812429	REC_WORD	22.453	n/a	LOBSTER	OceanAnimals	3	6	[0, 0, 0]	n/a	catFR1	0	R1243T
813.754	5.527	819985	REC_END	n/a	n/a	n/a	n/a	-999	6	[0, 0, 0]	n/a	catFR1	0	R1243T
819.281	0.5	825512	TRIAL	n/a	n/a	n/a	n/a	-999	7	[0, 0, 0]	n/a	catFR1	0	R1243T
819.781	10.0	826012	COUNTDOWN_START	n/a	n/a	n/a	n/a	-999	7	[0, 0, 0]	n/a	catFR1	0	R1243T
830.209	0.008	836439	COUNTDOWN_END	n/a	n/a	n/a	n/a	-999	7	[0, 0, 0]	n/a	catFR1	0	R1243T
830.217	1.6	836447	ORIENT	n/a	n/a	n/a	n/a	-999	7	[0, 0, 0]	n/a	catFR1	0	R1243T
831.835	1.817	838065	ORIENT_OFF	n/a	n/a	n/a	n/a	-999	7	[0, 0, 0]	n/a	catFR1	0	R1243T
833.652	1.6	839882	WORD	n/a	wordpools/wordpool_categorized_EN.txt	BASS	Instruments	1	7	[0, 0, 0]	n/a	catFR1	0	R1243T
835.268	0.801	841498	WORD_OFF	n/a	n/a	BASS	n/a	1	7	[0, 0, 0]	n/a	catFR1	0	R1243T
836.069	1.6	842299	WORD	n/a	wordpools/wordpool_categorized_EN.txt	TRUMPET	Instruments	2	7	[0, 0, 0]	n/a	catFR1	0	R1243T
837.686	0.983	843916	WORD_OFF	n/a	n/a	TRUMPET	n/a	2	7	[0, 0, 0]	n/a	catFR1	0	R1243T
838.669	1.6	844899	WORD	n/a	wordpools/wordpool_categorized_EN.txt	LAMB	FarmAnimals	3	7	[0, 0, 0]	n/a	catFR1	0	R1243T
840.285	0.917	846515	WORD_OFF	n/a	n/a	LAMB	n/a	3	7	[0, 0, 0]	n/a	catFR1	0	R1243T
841.202	1.6	847432	WORD	n/a	wordpools/wordpool_categorized_EN.txt	COW	FarmAnimals	4	7	[0, 0, 0]	n/a	catFR1	0	R1243T
842.82	0.767	849050	WORD_OFF	n/a	n/a	COW	n/a	4	7	[0, 0, 0]	n/a	catFR1	0	R1243T
843.587	1.6	849816	WORD	n/a	wordpools/wordpool_categorized_EN.txt	BUS	Vehicles	5	7	[0, 0, 0]	n/a	catFR1	0	R1243T
845.203	0.933	851432	WORD_OFF	n/a	n/a	BUS	n/a	5	7	[0, 0, 0]	n/a	catFR1	0	R1243T
846.136	1.6	852365	WORD	n/a	wordpools/wordpool_categorized_EN.txt	CAR	Vehicles	6	7	[0, 0, 0]	n/a	catFR1	0	R1243T
847.737	0.901	853966	WORD_OFF	n/a	n/a	CAR	n/a	6	7	[0, 0, 0]	n/a	catFR1	0	R1243T
848.638	1.6	854867	WORD	n/a	wordpools/wordpool_categorized_EN.txt	ROOSTER	FarmAnimals	7	7	[0, 0, 0]	n/a	catFR1	0	R1243T
850.254	1.0	856483	WORD_OFF	n/a	n/a	ROOSTER	n/a	7	7	[0, 0, 0]	n/a	catFR1	0	R1243T
851.254	1.6	857483	WORD	n/a	wordpools/wordpool_categorized_EN.txt	CALF	FarmAnimals	8	7	[0, 0, 0]	n/a	catFR1	0	R1243T
852.872	0.85	859101	WORD_OFF	n/a	n/a	CALF	n/a	8	7	[0, 0, 0]	n/a	catFR1	0	R1243T
853.722	1.6	859951	WORD	n/a	wordpools/wordpool_categorized_EN.txt	DRUM	Instruments	9	7	[0, 0, 0]	n/a	catFR1	0	R1243T
855.338	0.95	861567	WORD_OFF	n/a	n/a	DRUM	n/a	9	7	[0, 0, 0]	n/a	catFR1	0	R1243T
856.288	1.6	862517	WORD	n/a	wordpools/wordpool_categorized_EN.txt	GUITAR	Instruments	10	7	[0, 0, 0]	n/a	catFR1	0	R1243T
857.906	0.8	864135	WORD_OFF	n/a	n/a	GUITAR	n/a	10	7	[0, 0, 0]	n/a	catFR1	0	R1243T
858.706	1.6	864935	WORD	n/a	wordpools/wordpool_categorized_EN.txt	VAN	Vehicles	11	7	[0, 0, 0]	n/a	catFR1	0	R1243T
860.322	0.934	866550	WORD_OFF	n/a	n/a	VAN	n/a	11	7	[0, 0, 0]	n/a	catFR1	0	R1243T
861.256	1.6	867484	WORD	n/a	wordpools/wordpool_categorized_EN.txt	SCOOTER	Vehicles	12	7	[0, 0, 0]	n/a	catFR1	0	R1243T
862.874	0.0	869102	ENCODING_END	n/a	n/a	n/a	n/a	-999	7	[0, 0, 0]	n/a	catFR1	0	R1243T
862.874	0.132	869102	WORD_OFF	n/a	n/a	SCOOTER	n/a	12	7	[0, 0, 0]	n/a	catFR1	0	R1243T
863.006	0.0	869234	DISTRACT_START	n/a	n/a	n/a	n/a	-999	7	[0, 0, 0]	n/a	catFR1	0	R1243T
863.006	0.018	869234	START	n/a	n/a	n/a	n/a	-999	7	[-999, -999, -999]	n/a	catFR1	0	R1243T
863.024	8.051	869252	PROB	8.016	n/a	n/a	n/a	-999	7	[2, 1, 9]	12.0	catFR1	0	R1243T
871.075	5.283	877303	PROB	5.245	n/a	n/a	n/a	-999	7	[6, 1, 5]	12.0	catFR1	0	R1243T
876.358	4.752	882585	PROB	4.73	n/a	n/a	n/a	-999	7	[6, 3, 5]	14.0	catFR1	0	R1243T
881.11	5.411	887337	PROB	5.411	n/a	n/a	n/a	-999	7	[8, 2, 9]	19.0	catFR1	0	R1243T
886.521	0.007	892748	STOP	n/a	n/a	n/a	n/a	-999	7	[-999, -999, -999]	n/a	catFR1	0	R1243T
886.528	0.649	892755	DISTRACT_END	n/a	n/a	n/a	n/a	-999	7	[0, 0, 0]	n/a	catFR1	0	R1243T
887.177	0.519	893404	RETRIEVAL_ORIENT	n/a	n/a	n/a	n/a	-999	7	[0, 0, 0]	n/a	catFR1	0	R1243T
887.696	5.328	893923	REC_START	n/a	n/a	n/a	n/a	-999	7	[0, 0, 0]	n/a	catFR1	0	R1243T
893.024	7.556	899250	REC_WORD	5.328	n/a	BASS	Instruments	1	7	[0, 0, 0]	n/a	catFR1	0	R1243T
900.58	3.084	906806	REC_WORD	12.884	n/a	ROOSTER	FarmAnimals	7	7	[0, 0, 0]	n/a	catFR1	0	R1243T
903.664	14.042	909890	REC_WORD	15.968	n/a	CALF	FarmAnimals	8	7	[0, 0, 0]	n/a	catFR1	0	R1243T
917.706	5.461	923931	REC_END	n/a	n/a	n/a	n/a	-999	7	[0, 0, 0]	n/a	catFR1	0	R1243T
923.167	0.5	929392	TRIAL	n/a	n/a	n/a	n/a	-999	8	[0, 0, 0]	n/a	catFR1	0	R1243T
923.667	10.0	929892	COUNTDOWN_START	n/a	n/a	n/a	n/a	-999	8	[0, 0, 0]	n/a	catFR1	0	R1243T
934.095	0.008	940319	COUNTDOWN_END	n/a	n/a	n/a	n/a	-999	8	[0, 0, 0]	n/a	catFR1	0	R1243T
934.103	1.6	940327	ORIENT	n/a	n/a	n/a	n/a	-999	8	[0, 0, 0]	n/a	catFR1	0	R1243T
935.72	2.234	941944	ORIENT_OFF	n/a	n/a	n/a	n/a	-999	8	[0, 0, 0]	n/a	catFR1	0	R1243T
937.954	1.6	944178	WORD	n/a	wordpools/wordpool_categorized_EN.txt	BARBIE	Toys	1	8	[0, 0, 0]	n/a	catFR1	0	R1243T
939.571	0.915	945795	WORD_OFF	n/a	n/a	BARBIE	n/a	1	8	[0, 0, 0]	n/a	catFR1	0	R1243T
940.486	1.6	946710	WORD	n/a	wordpools/wordpool_categorized_EN.txt	MARBLES	Toys	2	8	[0, 0, 0]	n/a	catFR1	0	R1243T
942.088	0.85	948311	WORD_OFF	n/a	n/a	MARBLES	n/a	2	8	[0, 0, 0]	n/a	catFR1	0	R1243T
942.938	1.6	949161	WORD	n/a	wordpools/wordpool_categorized_EN.txt	DOVE	Birds	3	8	[0, 0, 0]	n/a	catFR1	0	R1243T
944.555	0.783	950778	WORD_OFF	n/a	n/a	DOVE	n/a	3	8	[0, 0, 0]	n/a	catFR1	0	R1243T
945.338	1.6	951561	WORD	n/a	wordpools/wordpool_categorized_EN.txt	CARDINAL	Birds	4	8	[0, 0, 0]	n/a	catFR1	0	R1243T
946.956	0.85	953179	WORD_OFF	n/a	n/a	CARDINAL	n/a	4	8	[0, 0, 0]	n/a	catFR1	0	R1243T
947.806	1.6	954029	WORD	n/a	wordpools/wordpool_categorized_EN.txt	SPIDER	Insects	5	8	[0, 0, 0]	n/a	catFR1	0	R1243T
949.422	0.817	955645	WORD_OFF	n/a	n/a	SPIDER	n/a	5	8	[0, 0, 0]	n/a	catFR1	0	R1243T
950.239	1.6	956462	WORD	n/a	wordpools/wordpool_categorized_EN.txt	BEE	Insects	6	8	[0, 0, 0]	n/a	catFR1	0	R1243T
951.857	0.783	958080	WORD_OFF	n/a	n/a	BEE	n/a	6	8	[0, 0, 0]	n/a	catFR1	0	R1243T
952.64	1.6	958863	WORD	n/a	wordpools/wordpool_categorized_EN.txt	BLUEBIRD	Birds	7	8	[0, 0, 0]	n/a	catFR1	0	R1243T
954.256	0.917	960479	WORD_OFF	n/a	n/a	BLUEBIRD	n/a	7	8	[0, 0, 0]	n/a	catFR1	0	R1243T
955.173	1.6	961396	WORD	n/a	wordpools/wordpool_categorized_EN.txt	CROW	Birds	8	8	[0, 0, 0]	n/a	catFR1	0	R1243T
956.774	0.784	962997	WORD_OFF	n/a	n/a	CROW	n/a	8	8	[0, 0, 0]	n/a	catFR1	0	R1243T
957.558	1.6	963780	WORD	n/a	wordpools/wordpool_categorized_EN.txt	PUZZLE	Toys	9	8	[0, 0, 0]	n/a	catFR1	0	R1243T
959.173	0.984	965395	WORD_OFF	n/a	n/a	PUZZLE	n/a	9	8	[0, 0, 0]	n/a	catFR1	0	R1243T
960.157	1.6	966379	WORD	n/a	wordpools/wordpool_categorized_EN.txt	BASKETBALL	Toys	10	8	[0, 0, 0]	n/a	catFR1	0	R1243T
961.775	0.85	967997	WORD_OFF	n/a	n/a	BASKETBALL	n/a	10	8	[0, 0, 0]	n/a	catFR1	0	R1243T
962.625	1.6	968847	WORD	n/a	wordpools/wordpool_categorized_EN.txt	ANT	Insects	11	8	[0, 0, 0]	n/a	catFR1	0	R1243T
964.241	0.984	970463	WORD_OFF	n/a	n/a	ANT	n/a	11	8	[0, 0, 0]	n/a	catFR1	0	R1243T
965.225	1.6	971447	WORD	n/a	wordpools/wordpool_categorized_EN.txt	MOSQUITO	Insects	12	8	[0, 0, 0]	n/a	catFR1	0	R1243T
966.842	0.001	973064	WORD_OFF	n/a	n/a	MOSQUITO	n/a	12	8	[0, 0, 0]	n/a	catFR1	0	R1243T
966.843	0.104	973065	ENCODING_END	n/a	n/a	n/a	n/a	-999	8	[0, 0, 0]	n/a	catFR1	0	R1243T
966.947	0.0	973169	DISTRACT_START	n/a	n/a	n/a	n/a	-999	8	[0, 0, 0]	n/a	catFR1	0	R1243T
966.947	0.012	973169	START	n/a	n/a	n/a	n/a	-999	8	[-999, -999, -999]	n/a	catFR1	0	R1243T
966.959	7.2	973181	PROB	7.169	n/a	n/a	n/a	-999	8	[8, 1, 8]	17.0	catFR1	0	R1243T
974.159	5.853	980380	PROB	5.817	n/a	n/a	n/a	-999	8	[6, 3, 6]	15.0	catFR1	0	R1243T
980.012	5.551	986233	PROB	5.525	n/a	n/a	n/a	-999	8	[3, 6, 2]	11.0	catFR1	0	R1243T
985.563	16.357	991784	PROB	16.357	n/a	n/a	n/a	-999	8	[4, 5, 4]	13.0	catFR1	0	R1243T
1001.92	0.012	1008140	STOP	n/a	n/a	n/a	n/a	-999	8	[-999, -999, -999]	n/a	catFR1	0	R1243T
1001.932	0.584	1008152	DISTRACT_END	n/a	n/a	n/a	n/a	-999	8	[0, 0, 0]	n/a	catFR1	0	R1243T
1002.516	0.517	1008736	RETRIEVAL_ORIENT	n/a	n/a	n/a	n/a	-999	8	[0, 0, 0]	n/a	catFR1	0	R1243T
1003.033	29.36	1009253	REC_START	n/a	n/a	n/a	n/a	-999	8	[0, 0, 0]	n/a	catFR1	0	R1243T
1032.393	0.65	1038611	REC_WORD_VV	29.36	n/a	<>	n/a	-999	8	[0, 0, 0]	n/a	catFR1	0	R1243T
1033.043	17.147	1039261	REC_END	n/a	n/a	n/a	n/a	-999	8	[0, 0, 0]	n/a	catFR1	0	R1243T
1050.19	0.5	1056407	TRIAL	n/a	n/a	n/a	n/a	-999	9	[0, 0, 0]	n/a	catFR1	0	R1243T
1050.69	10.0	1056907	COUNTDOWN_START	n/a	n/a	n/a	n/a	-999	9	[0, 0, 0]	n/a	catFR1	0	R1243T
1061.118	0.007	1067334	COUNTDOWN_END	n/a	n/a	n/a	n/a	-999	9	[0, 0, 0]	n/a	catFR1	0	R1243T
1061.125	1.6	1067341	ORIENT	n/a	n/a	n/a	n/a	-999	9	[0, 0, 0]	n/a	catFR1	0	R1243T
1062.743	2.167	1068959	ORIENT_OFF	n/a	n/a	n/a	n/a	-999	9	[0, 0, 0]	n/a	catFR1	0	R1243T
1064.91	1.6	1071126	WORD	n/a	wordpools/wordpool_categorized_EN.txt	APPLE	Fruit	1	9	[0, 0, 0]	n/a	catFR1	0	R1243T
1066.527	0.984	1072743	WORD_OFF	n/a	n/a	APPLE	n/a	1	9	[0, 0, 0]	n/a	catFR1	0	R1243T
1067.511	1.6	1073727	WORD	n/a	wordpools/wordpool_categorized_EN.txt	LEMON	Fruit	2	9	[0, 0, 0]	n/a	catFR1	0	R1243T
1069.127	0.784	1075343	WORD_OFF	n/a	n/a	LEMON	n/a	2	9	[0, 0, 0]	n/a	catFR1	0	R1243T
1069.911	1.6	1076127	WORD	n/a	wordpools/wordpool_categorized_EN.txt	DRYER	Appliances	3	9	[0, 0, 0]	n/a	catFR1	0	R1243T
1071.528	0.816	1077744	WORD_OFF	n/a	n/a	DRYER	n/a	3	9	[0, 0, 0]	n/a	catFR1	0	R1243T
1072.344	1.6	1078559	WORD	n/a	wordpools/wordpool_categorized_EN.txt	VACUUM	Appliances	4	9	[0, 0, 0]	n/a	catFR1	0	R1243T
1073.962	0.867	1080177	WORD_OFF	n/a	n/a	VACUUM	n/a	4	9	[0, 0, 0]	n/a	catFR1	0	R1243T
1074.829	1.6	1081044	WORD	n/a	wordpools/wordpool_categorized_EN.txt	PIANO	Instruments	5	9	[0, 0, 0]	n/a	catFR1	0	R1243T
1076.445	0.917	1082660	WORD_OFF	n/a	n/a	PIANO	n/a	5	9	[0, 0, 0]	n/a	catFR1	0	R1243T
1077.362	1.6	1083577	WORD	n/a	wordpools/wordpool_categorized_EN.txt	TROMBONE	Instruments	6	9	[0, 0, 0]	n/a	catFR1	0	R1243T
1078.98	0.983	1085195	WORD_OFF	n/a	n/a	TROMBONE	n/a	6	9	[0, 0, 0]	n/a	catFR1	0	R1243T
1079.963	1.6	1086178	WORD	n/a	wordpools/wordpool_categorized_EN.txt	TOASTER	Appliances	7	9	[0, 0, 0]	n/a	catFR1	0	R1243T
1081.58	0.934	1087795	WORD_OFF	n/a	n/a	TOASTER	n/a	7	9	[0, 0, 0]	n/a	catFR1	0	R1243T
1082.514	1.6	1088729	WORD	n/a	wordpools/wordpool_categorized_EN.txt	STOVE	Appliances	8	9	[0, 0, 0]	n/a	catFR1	0	R1243T
1084.13	0.917	1090345	WORD_OFF	n/a	n/a	STOVE	n/a	8	9	[0, 0, 0]	n/a	catFR1	0	R1243T
1085.047	1.6	1091262	WORD	n/a	wordpools/wordpool_categorized_EN.txt	CHERRY	Fruit	9	9	[0, 0, 0]	n/a	catFR1	0	R1243T
1086.664	0.95	1092879	WORD_OFF	n/a	n/a	CHERRY	n/a	9	9	[0, 0, 0]	n/a	catFR1	0	R1243T
1087.614	1.6	1093829	WORD	n/a	wordpools/wordpool_categorized_EN.txt	BLUEBERRY	Fruit	10	9	[0, 0, 0]	n/a	catFR1	0	R1243T
1089.231	0.916	1095445	WORD_OFF	n/a	n/a	BLUEBERRY	n/a	10	9	[0, 0, 0]	n/a	catFR1	0	R1243T
1090.147	1.6	1096361	WORD	n/a	wordpools/wordpool_categorized_EN.txt	FLUTE	Instruments	11	9	[0, 0, 0]	n/a	catFR1	0	R1243T
1091.748	0.851	1097962	WORD_OFF	n/a	n/a	FLUTE	n/a	11	9	[0, 0, 0]	n/a	catFR1	0	R1243T
1092.599	1.6	1098813	WORD	n/a	wordpools/wordpool_categorized_EN.txt	VIOLIN	Instruments	12	9	[0, 0, 0]	n/a	catFR1	0	R1243T
1094.215	0.0	1100429	ENCODING_END	n/a	n/a	n/a	n/a	-999	9	[0, 0, 0]	n/a	catFR1	0	R1243T
1094.215	0.142	1100429	WORD_OFF	n/a	n/a	VIOLIN	n/a	12	9	[0, 0, 0]	n/a	catFR1	0	R1243T
1094.357	0.0	1100571	DISTRACT_START	n/a	n/a	n/a	n/a	-999	9	[0, 0, 0]	n/a	catFR1	0	R1243T
1094.357	0.008	1100571	START	n/a	n/a	n/a	n/a	-999	9	[-999, -999, -999]	n/a	catFR1	0	R1243T
1094.365	12.42	1100579	PROB	12.396	n/a	n/a	n/a	-999	9	[9, 6, 1]	16.0	catFR1	0	R1243T
1106.785	6.683	1112998	PROB	6.646	n/a	n/a	n/a	-999	9	[2, 3, 5]	10.0	catFR1	0	R1243T
1113.468	7.788	1119681	PROB	7.788	n/a	n/a	n/a	-999	9	[5, 6, 8]	19.0	catFR1	0	R1243T
1121.256	0.014	1127468	STOP	n/a	n/a	n/a	n/a	-999	9	[-999, -999, -999]	n/a	catFR1	0	R1243T
1121.27	0.667	1127482	DISTRACT_END	n/a	n/a	n/a	n/a	-999	9	[0, 0, 0]	n/a	catFR1	0	R1243T
1121.937	0.517	1128149	RETRIEVAL_ORIENT	n/a	n/a	n/a	n/a	-999	9	[0, 0, 0]	n/a	catFR1	0	R1243T
1122.454	11.52	1128666	REC_START	n/a	n/a	n/a	n/a	-999	9	[0, 0, 0]	n/a	catFR1	0	R1243T
1133.974	3.997	1140186	REC_WORD_VV	11.52	n/a	<>	n/a	-999	9	[0, 0, 0]	n/a	catFR1	0	R1243T
1137.971	1.648	1144182	REC_WORD	15.517	n/a	APPLE	Fruit	1	9	[0, 0, 0]	n/a	catFR1	0	R1243T
1139.619	2.242	1145830	REC_WORD	17.165	n/a	STOVE	Appliances	8	9	[0, 0, 0]	n/a	catFR1	0	R1243T
1141.861	10.603	1148072	REC_WORD	19.407	n/a	CHERRY	Fruit	9	9	[0, 0, 0]	n/a	catFR1	0	R1243T
1152.464	4.862	1158675	REC_END	n/a	n/a	n/a	n/a	-999	9	[0, 0, 0]	n/a	catFR1	0	R1243T
1157.326	0.5	1163536	TRIAL	n/a	n/a	n/a	n/a	-999	10	[0, 0, 0]	n/a	catFR1	0	R1243T
1157.826	10.0	1164036	COUNTDOWN_START	n/a	n/a	n/a	n/a	-999	10	[0, 0, 0]	n/a	catFR1	0	R1243T
1168.254	0.007	1174464	COUNTDOWN_END	n/a	n/a	n/a	n/a	-999	10	[0, 0, 0]	n/a	catFR1	0	R1243T
1168.261	1.6	1174471	ORIENT	n/a	n/a	n/a	n/a	-999	10	[0, 0, 0]	n/a	catFR1	0	R1243T
1169.863	2.05	1176073	ORIENT_OFF	n/a	n/a	n/a	n/a	-999	10	[0, 0, 0]	n/a	catFR1	0	R1243T
1171.913	1.6	1178122	WORD	n/a	wordpools/wordpool_categorized_EN.txt	MOUNTAIN	Landscapes	1	10	[0, 0, 0]	n/a	catFR1	0	R1243T
1173.53	1.0	1179739	WORD_OFF	n/a	n/a	MOUNTAIN	n/a	1	10	[0, 0, 0]	n/a	catFR1	0	R1243T
1174.53	1.6	1180739	WORD	n/a	wordpools/wordpool_categorized_EN.txt	FOREST	Landscapes	2	10	[0, 0, 0]	n/a	catFR1	0	R1243T
1176.146	0.868	1182355	WORD_OFF	n/a	n/a	FOREST	n/a	2	10	[0, 0, 0]	n/a	catFR1	0	R1243T
1177.014	1.6	1183223	WORD	n/a	wordpools/wordpool_categorized_EN.txt	OCTOPUS	OceanAnimals	3	10	[0, 0, 0]	n/a	catFR1	0	R1243T
1178.631	0.816	1184840	WORD_OFF	n/a	n/a	OCTOPUS	n/a	3	10	[0, 0, 0]	n/a	catFR1	0	R1243T
1179.447	1.6	1185656	WORD	n/a	wordpools/wordpool_categorized_EN.txt	SHRIMP	OceanAnimals	4	10	[0, 0, 0]	n/a	catFR1	0	R1243T
1181.065	0.867	1187274	WORD_OFF	n/a	n/a	SHRIMP	n/a	4	10	[0, 0, 0]	n/a	catFR1	0	R1243T
1181.932	1.6	1188141	WORD	n/a	wordpools/wordpool_categorized_EN.txt	GOOSE	Birds	5	10	[0, 0, 0]	n/a	catFR1	0	R1243T
1183.549	0.782	1189758	WORD_OFF	n/a	n/a	GOOSE	n/a	5	10	[0, 0, 0]	n/a	catFR1	0	R1243T
1184.331	1.6	1190540	WORD	n/a	wordpools/wordpool_categorized_EN.txt	SEAGULL	Birds	6	10	[0, 0, 0]	n/a	catFR1	0	R1243T
1185.949	0.8	1192158	WORD_OFF	n/a	n/a	SEAGULL	n/a	6	10	[0, 0, 0]	n/a	catFR1	0	R1243T
1186.749	1.6	1192957	WORD	n/a	wordpools/wordpool_categorized_EN.txt	FISH	OceanAnimals	7	10	[0, 0, 0]	n/a	catFR1	0	R1243T
1188.365	0.8	1194573	WORD_OFF	n/a	n/a	FISH	n/a	7	10	[0, 0, 0]	n/a	catFR1	0	R1243T
1189.165	1.6	1195373	WORD	n/a	wordpools/wordpool_categorized_EN.txt	JELLYFISH	OceanAnimals	8	10	[0, 0, 0]	n/a	catFR1	0	R1243T
1190.766	0.934	1196974	WORD_OFF	n/a	n/a	JELLYFISH	n/a	8	10	[0, 0, 0]	n/a	catFR1	0	R1243T
1191.7	1.6	1197908	WORD	n/a	wordpools/wordpool_categorized_EN.txt	RIVER	Landscapes	9	10	[0, 0, 0]	n/a	catFR1	0	R1243T
1193.316	0.785	1199524	WORD_OFF	n/a	n/a	RIVER	n/a	9	10	[0, 0, 0]	n/a	catFR1	0	R1243T
1194.101	1.6	1200309	WORD	n/a	wordpools/wordpool_categorized_EN.txt	STREAM	Landscapes	10	10	[0, 0, 0]	n/a	catFR1	0	R1243T
1195.717	0.85	1201925	WORD_OFF	n/a	n/a	STREAM	n/a	10	10	[0, 0, 0]	n/a	catFR1	0	R1243T
1196.567	1.6	1202775	WORD	n/a	wordpools/wordpool_categorized_EN.txt	SPARROW	Birds	11	10	[0, 0, 0]	n/a	catFR1	0	R1243T
1198.184	0.934	1204392	WORD_OFF	n/a	n/a	SPARROW	n/a	11	10	[0, 0, 0]	n/a	catFR1	0	R1243T
1199.118	1.6	1205326	WORD	n/a	wordpools/wordpool_categorized_EN.txt	HAWK	Birds	12	10	[0, 0, 0]	n/a	catFR1	0	R1243T
1200.735	0.0	1206943	ENCODING_END	n/a	n/a	n/a	n/a	-999	10	[0, 0, 0]	n/a	catFR1	0	R1243T
1200.735	0.135	1206943	WORD_OFF	n/a	n/a	HAWK	n/a	12	10	[0, 0, 0]	n/a	catFR1	0	R1243T
1200.87	0.0	1207078	DISTRACT_START	n/a	n/a	n/a	n/a	-999	10	[0, 0, 0]	n/a	catFR1	0	R1243T
1200.87	0.015	1207078	START	n/a	n/a	n/a	n/a	-999	10	[-999, -999, -999]	n/a	catFR1	0	R1243T
1200.885	7.168	1207093	PROB	7.132	n/a	n/a	n/a	-999	10	[8, 5, 8]	21.0	catFR1	0	R1243T
1208.053	6.267	1214260	PROB	6.242	n/a	n/a	n/a	-999	10	[3, 5, 2]	10.0	catFR1	0	R1243T
1214.32	4.702	1220527	PROB	4.665	n/a	n/a	n/a	-999	10	[6, 4, 9]	19.0	catFR1	0	R1243T
1219.022	10.506	1225229	PROB	10.506	n/a	n/a	n/a	-999	10	[5, 7, 6]	18.0	catFR1	0	R1243T
1229.528	0.012	1235734	STOP	n/a	n/a	n/a	n/a	-999	10	[-999, -999, -999]	n/a	catFR1	0	R1243T
1229.54	0.584	1235746	DISTRACT_END	n/a	n/a	n/a	n/a	-999	10	[0, 0, 0]	n/a	catFR1	0	R1243T
1230.124	0.517	1236330	RETRIEVAL_ORIENT	n/a	n/a	n/a	n/a	-999	10	[0, 0, 0]	n/a	catFR1	0	R1243T
1230.641	2.598	1236847	REC_START	n/a	n/a	n/a	n/a	-999	10	[0, 0, 0]	n/a	catFR1	0	R1243T
1233.239	3.93	1239445	REC_WORD	2.598	n/a	STREAM	Landscapes	10	10	[0, 0, 0]	n/a	catFR1	0	R1243T
1237.169	3.053	1243374	REC_WORD	6.528	n/a	FISH	OceanAnimals	7	10	[0, 0, 0]	n/a	catFR1	0	R1243T
1240.222	12.66	1246427	REC_WORD	9.581	n/a	HAWK	Birds	12	10	[0, 0, 0]	n/a	catFR1	0	R1243T
1252.882	7.767	1259086	REC_WORD	22.241	n/a	SHRIMP	OceanAnimals	4	10	[0, 0, 0]	n/a	catFR1	0	R1243T
1260.649	7.664	1266853	REC_END	n/a	n/a	n/a	n/a	-999	10	[0, 0, 0]	n/a	catFR1	0	R1243T
1268.313	0.5	1274516	TRIAL	n/a	n/a	n/a	n/a	-999	11	[0, 0, 0]	n/a	catFR1	0	R1243T
1268.813	10.0	1275016	COUNTDOWN_START	n/a	n/a	n/a	n/a	-999	11	[0, 0, 0]	n/a	catFR1	0	R1243T
1279.241	0.007	1285444	COUNTDOWN_END	n/a	n/a	n/a	n/a	-999	11	[0, 0, 0]	n/a	catFR1	0	R1243T
1279.248	1.6	1285451	ORIENT	n/a	n/a	n/a	n/a	-999	11	[0, 0, 0]	n/a	catFR1	0	R1243T
1280.849	2.234	1287052	ORIENT_OFF	n/a	n/a	n/a	n/a	-999	11	[0, 0, 0]	n/a	catFR1	0	R1243T
1283.083	1.6	1289286	WORD	n/a	wordpools/wordpool_categorized_EN.txt	BANJO	Instruments	1	11	[0, 0, 0]	n/a	catFR1	0	R1243T
1284.7	0.766	1290902	WORD_OFF	n/a	n/a	BANJO	n/a	1	11	[0, 0, 0]	n/a	catFR1	0	R1243T
1285.466	1.6	1291668	WORD	n/a	wordpools/wordpool_categorized_EN.txt	CELLO	Instruments	2	11	[0, 0, 0]	n/a	catFR1	0	R1243T
1287.084	0.85	1293286	WORD_OFF	n/a	n/a	CELLO	n/a	2	11	[0, 0, 0]	n/a	catFR1	0	R1243T
1287.934	1.6	1294136	WORD	n/a	wordpools/wordpool_categorized_EN.txt	LILAC	Flowers	3	11	[0, 0, 0]	n/a	catFR1	0	R1243T
1289.551	0.984	1295753	WORD_OFF	n/a	n/a	LILAC	n/a	3	11	[0, 0, 0]	n/a	catFR1	0	R1243T
1290.535	1.6	1296737	WORD	n/a	wordpools/wordpool_categorized_EN.txt	LILY	Flowers	4	11	[0, 0, 0]	n/a	catFR1	0	R1243T
1292.151	0.801	1298353	WORD_OFF	n/a	n/a	LILY	n/a	4	11	[0, 0, 0]	n/a	catFR1	0	R1243T
1292.952	1.6	1299154	WORD	n/a	wordpools/wordpool_categorized_EN.txt	OAK	Trees	5	11	[0, 0, 0]	n/a	catFR1	0	R1243T
1294.569	0.932	1300771	WORD_OFF	n/a	n/a	OAK	n/a	5	11	[0, 0, 0]	n/a	catFR1	0	R1243T
1295.501	1.6	1301703	WORD	n/a	wordpools/wordpool_categorized_EN.txt	WILLOW	Trees	6	11	[0, 0, 0]	n/a	catFR1	0	R1243T
1297.119	1.016	1303321	WORD_OFF	n/a	n/a	WILLOW	n/a	6	11	[0, 0, 0]	n/a	catFR1	0	R1243T
1298.135	1.6	1304337	WORD	n/a	wordpools/wordpool_categorized_EN.txt	TUBA	Instruments	7	11	[0, 0, 0]	n/a	catFR1	0	R1243T
1299.753	0.817	1305955	WORD_OFF	n/a	n/a	TUBA	n/a	7	11	[0, 0, 0]	n/a	catFR1	0	R1243T
1300.57	1.6	1306772	WORD	n/a	wordpools/wordpool_categorized_EN.txt	ORGAN	Instruments	8	11	[0, 0, 0]	n/a	catFR1	0	R1243T
1302.186	1.0	1308387	WORD_OFF	n/a	n/a	ORGAN	n/a	8	11	[0, 0, 0]	n/a	catFR1	0	R1243T
1303.186	1.6	1309387	WORD	n/a	wordpools/wordpool_categorized_EN.txt	ORCHID	Flowers	9	11	[0, 0, 0]	n/a	catFR1	0	R1243T
1304.804	0.917	1311005	WORD_OFF	n/a	n/a	ORCHID	n/a	9	11	[0, 0, 0]	n/a	catFR1	0	R1243T
1305.721	1.6	1311922	WORD	n/a	wordpools/wordpool_categorized_EN.txt	PETUNIA	Flowers	10	11	[0, 0, 0]	n/a	catFR1	0	R1243T
1307.337	0.9	1313538	WORD_OFF	n/a	n/a	PETUNIA	n/a	10	11	[0, 0, 0]	n/a	catFR1	0	R1243T
1308.237	1.6	1314438	WORD	n/a	wordpools/wordpool_categorized_EN.txt	MAPLE	Trees	11	11	[0, 0, 0]	n/a	catFR1	0	R1243T
1309.855	0.933	1316056	WORD_OFF	n/a	n/a	MAPLE	n/a	11	11	[0, 0, 0]	n/a	catFR1	0	R1243T
1310.788	1.6	1316989	WORD	n/a	wordpools/wordpool_categorized_EN.txt	CEDAR	Trees	12	11	[0, 0, 0]	n/a	catFR1	0	R1243T
1312.404	0.001	1318605	WORD_OFF	n/a	n/a	CEDAR	n/a	12	11	[0, 0, 0]	n/a	catFR1	0	R1243T
1312.405	0.102	1318606	ENCODING_END	n/a	n/a	n/a	n/a	-999	11	[0, 0, 0]	n/a	catFR1	0	R1243T
1312.507	0.001	1318708	DISTRACT_START	n/a	n/a	n/a	n/a	-999	11	[0, 0, 0]	n/a	catFR1	0	R1243T
1312.508	0.014	1318709	START	n/a	n/a	n/a	n/a	-999	11	[-999, -999, -999]	n/a	catFR1	0	R1243T
1312.522	9.801	1318723	PROB	9.774	n/a	n/a	n/a	-999	11	[6, 8, 9]	21.0	catFR1	0	R1243T
1322.323	3.867	1328523	PROB	3.836	n/a	n/a	n/a	-999	11	[3, 3, 1]	7.0	catFR1	0	R1243T
1326.19	7.274	1332390	PROB	7.274	n/a	n/a	n/a	-999	11	[3, 6, 1]	8.0	catFR1	0	R1243T
1333.464	0.011	1339664	STOP	n/a	n/a	n/a	n/a	-999	11	[-999, -999, -999]	n/a	catFR1	0	R1243T
1333.475	0.567	1339675	DISTRACT_END	n/a	n/a	n/a	n/a	-999	11	[0, 0, 0]	n/a	catFR1	0	R1243T
1334.042	0.518	1340241	RETRIEVAL_ORIENT	n/a	n/a	n/a	n/a	-999	11	[0, 0, 0]	n/a	catFR1	0	R1243T
1334.56	27.163	1340759	REC_START	n/a	n/a	n/a	n/a	-999	11	[0, 0, 0]	n/a	catFR1	0	R1243T
1361.723	2.847	1367921	REC_WORD_VV	27.163	n/a	<>	n/a	-999	11	[0, 0, 0]	n/a	catFR1	0	R1243T
1364.57	110.831	1370768	REC_END	n/a	n/a	n/a	n/a	-999	11	[0, 0, 0]	n/a	catFR1	0	R1243T
1475.401	0.5	1481592	TRIAL	n/a	n/a	n/a	n/a	-999	12	[0, 0, 0]	n/a	catFR1	0	R1243T
1475.901	10.0	1482092	COUNTDOWN_START	n/a	n/a	n/a	n/a	-999	12	[0, 0, 0]	n/a	catFR1	0	R1243T
1486.329	0.007	1492519	COUNTDOWN_END	n/a	n/a	n/a	n/a	-999	12	[0, 0, 0]	n/a	catFR1	0	R1243T
1486.336	1.6	1492526	ORIENT	n/a	n/a	n/a	n/a	-999	12	[0, 0, 0]	n/a	catFR1	0	R1243T
1487.954	2.084	1494144	ORIENT_OFF	n/a	n/a	n/a	n/a	-999	12	[0, 0, 0]	n/a	catFR1	0	R1243T
1490.038	1.6	1496228	WORD	n/a	wordpools/wordpool_categorized_EN.txt	GOAT	FarmAnimals	1	12	[0, 0, 0]	n/a	catFR1	0	R1243T
1491.655	0.933	1497845	WORD_OFF	n/a	n/a	GOAT	n/a	1	12	[0, 0, 0]	n/a	catFR1	0	R1243T
1492.588	1.6	1498778	WORD	n/a	wordpools/wordpool_categorized_EN.txt	PIG	FarmAnimals	2	12	[0, 0, 0]	n/a	catFR1	0	R1243T
1494.204	0.785	1500394	WORD_OFF	n/a	n/a	PIG	n/a	2	12	[0, 0, 0]	n/a	catFR1	0	R1243T
1494.989	1.6	1501179	WORD	n/a	wordpools/wordpool_categorized_EN.txt	PIGEON	Birds	3	12	[0, 0, 0]	n/a	catFR1	0	R1243T
1496.605	0.866	1502795	WORD_OFF	n/a	n/a	PIGEON	n/a	3	12	[0, 0, 0]	n/a	catFR1	0	R1243T
1497.471	1.6	1503660	WORD	n/a	wordpools/wordpool_categorized_EN.txt	DUCK	Birds	4	12	[0, 0, 0]	n/a	catFR1	0	R1243T
1499.089	0.8	1505278	WORD_OFF	n/a	n/a	DUCK	n/a	4	12	[0, 0, 0]	n/a	catFR1	0	R1243T
1499.889	1.6	1506078	WORD	n/a	wordpools/wordpool_categorized_EN.txt	DRIZZLE	Weather	5	12	[0, 0, 0]	n/a	catFR1	0	R1243T
1501.505	0.801	1507694	WORD_OFF	n/a	n/a	DRIZZLE	n/a	5	12	[0, 0, 0]	n/a	catFR1	0	R1243T
1502.306	1.6	1508495	WORD	n/a	wordpools/wordpool_categorized_EN.txt	THUNDER	Weather	6	12	[0, 0, 0]	n/a	catFR1	0	R1243T
1503.924	0.85	1510113	WORD_OFF	n/a	n/a	THUNDER	n/a	6	12	[0, 0, 0]	n/a	catFR1	0	R1243T
1504.774	1.6	1510963	WORD	n/a	wordpools/wordpool_categorized_EN.txt	TURKEY	FarmAnimals	7	12	[0, 0, 0]	n/a	catFR1	0	R1243T
1506.39	0.966	1512579	WORD_OFF	n/a	n/a	TURKEY	n/a	7	12	[0, 0, 0]	n/a	catFR1	0	R1243T
1507.356	1.6	1513545	WORD	n/a	wordpools/wordpool_categorized_EN.txt	CHICKEN	FarmAnimals	8	12	[0, 0, 0]	n/a	catFR1	0	R1243T
1508.974	0.884	1515163	WORD_OFF	n/a	n/a	CHICKEN	n/a	8	12	[0, 0, 0]	n/a	catFR1	0	R1243T
1509.858	1.6	1516047	WORD	n/a	wordpools/wordpool_categorized_EN.txt	FINCH	Birds	9	12	[0, 0, 0]	n/a	catFR1	0	R1243T
1511.474	0.983	1517663	WORD_OFF	n/a	n/a	FINCH	n/a	9	12	[0, 0, 0]	n/a	catFR1	0	R1243T
1512.457	1.6	1518646	WORD	n/a	wordpools/wordpool_categorized_EN.txt	ROBIN	Birds	10	12	[0, 0, 0]	n/a	catFR1	0	R1243T
1514.075	0.984	1520263	WORD_OFF	n/a	n/a	ROBIN	n/a	10	12	[0, 0, 0]	n/a	catFR1	0	R1243T
1515.059	1.6	1521247	WORD	n/a	wordpools/wordpool_categorized_EN.txt	HUMIDITY	Weather	11	12	[0, 0, 0]	n/a	catFR1	0	R1243T
1516.676	0.867	1522864	WORD_OFF	n/a	n/a	HUMIDITY	n/a	11	12	[0, 0, 0]	n/a	catFR1	0	R1243T
1517.543	1.6	1523731	WORD	n/a	wordpools/wordpool_categorized_EN.txt	CLOUD	Weather	12	12	[0, 0, 0]	n/a	catFR1	0	R1243T
1519.158	0.001	1525346	WORD_OFF	n/a	n/a	CLOUD	n/a	12	12	[0, 0, 0]	n/a	catFR1	0	R1243T
1519.159	0.147	1525347	ENCODING_END	n/a	n/a	n/a	n/a	-999	12	[0, 0, 0]	n/a	catFR1	0	R1243T
1519.306	0.0	1525494	DISTRACT_START	n/a	n/a	n/a	n/a	-999	12	[0, 0, 0]	n/a	catFR1	0	R1243T
1519.306	0.019	1525494	START	n/a	n/a	n/a	n/a	-999	12	[-999, -999, -999]	n/a	catFR1	0	R1243T
1519.325	7.802	1525513	PROB	7.779	n/a	n/a	n/a	-999	12	[4, 8, 8]	20.0	catFR1	0	R1243T
1527.127	11.903	1533315	PROB	11.874	n/a	n/a	n/a	-999	12	[6, 7, 8]	21.0	catFR1	0	R1243T
1539.03	10.083	1545217	PROB	10.083	n/a	n/a	n/a	-999	12	[5, 9, 2]	16.0	catFR1	0	R1243T
1549.113	0.018	1555299	STOP	n/a	n/a	n/a	n/a	-999	12	[-999, -999, -999]	n/a	catFR1	0	R1243T
1549.131	0.634	1555317	DISTRACT_END	n/a	n/a	n/a	n/a	-999	12	[0, 0, 0]	n/a	catFR1	0	R1243T
1549.765	0.517	1555951	RETRIEVAL_ORIENT	n/a	n/a	n/a	n/a	-999	12	[0, 0, 0]	n/a	catFR1	0	R1243T
1550.282	3.04	1556468	REC_START	n/a	n/a	n/a	n/a	-999	12	[0, 0, 0]	n/a	catFR1	0	R1243T
1553.322	0.617	1559508	REC_WORD	3.04	n/a	DUCK	Birds	4	12	[0, 0, 0]	n/a	catFR1	0	R1243T
1553.939	20.545	1560125	REC_WORD	3.657	n/a	TURKEY	FarmAnimals	7	12	[0, 0, 0]	n/a	catFR1	0	R1243T
1574.484	4.894	1580669	REC_WORD	24.202	n/a	TREE	n/a	-999	12	[0, 0, 0]	n/a	catFR1	0	R1243T
1579.378	0.915	1585562	REC_WORD	29.096	n/a	MAZE	n/a	-999	12	[0, 0, 0]	n/a	catFR1	0	R1243T
1580.293	5.479	1586477	REC_END	n/a	n/a	n/a	n/a	-999	12	[0, 0, 0]	n/a	catFR1	0	R1243T
1585.772	0.5	1591956	TRIAL	n/a	n/a	n/a	n/a	-999	13	[0, 0, 0]	n/a	catFR1	0	R1243T
1586.272	10.0	1592456	COUNTDOWN_START	n/a	n/a	n/a	n/a	-999	13	[0, 0, 0]	n/a	catFR1	0	R1243T
1596.7	0.007	1602883	COUNTDOWN_END	n/a	n/a	n/a	n/a	-999	13	[0, 0, 0]	n/a	catFR1	0	R1243T
1596.707	1.6	1602890	ORIENT	n/a	n/a	n/a	n/a	-999	13	[0, 0, 0]	n/a	catFR1	0	R1243T
1598.323	1.9	1604506	ORIENT_OFF	n/a	n/a	n/a	n/a	-999	13	[0, 0, 0]	n/a	catFR1	0	R1243T
1600.223	1.6	1606406	WORD	n/a	wordpools/wordpool_categorized_EN.txt	TONGS	KitchenTools	1	13	[0, 0, 0]	n/a	catFR1	0	R1243T
1601.841	1.0	1608024	WORD_OFF	n/a	n/a	TONGS	n/a	1	13	[0, 0, 0]	n/a	catFR1	0	R1243T
1602.841	1.6	1609024	WORD	n/a	wordpools/wordpool_categorized_EN.txt	WHISK	KitchenTools	2	13	[0, 0, 0]	n/a	catFR1	0	R1243T
1604.457	0.951	1610640	WORD_OFF	n/a	n/a	WHISK	n/a	2	13	[0, 0, 0]	n/a	catFR1	0	R1243T
1605.408	1.6	1611591	WORD	n/a	wordpools/wordpool_categorized_EN.txt	ELEPHANT	Zoo	3	13	[0, 0, 0]	n/a	catFR1	0	R1243T
1607.026	0.816	1613209	WORD_OFF	n/a	n/a	ELEPHANT	n/a	3	13	[0, 0, 0]	n/a	catFR1	0	R1243T
1607.842	1.6	1614025	WORD	n/a	wordpools/wordpool_categorized_EN.txt	CHEETAH	Zoo	4	13	[0, 0, 0]	n/a	catFR1	0	R1243T
1609.458	0.884	1615641	WORD_OFF	n/a	n/a	CHEETAH	n/a	4	13	[0, 0, 0]	n/a	catFR1	0	R1243T
1610.342	1.6	1616525	WORD	n/a	wordpools/wordpool_categorized_EN.txt	RATCHET	Tools	5	13	[0, 0, 0]	n/a	catFR1	0	R1243T
1611.96	0.817	1618142	WORD_OFF	n/a	n/a	RATCHET	n/a	5	13	[0, 0, 0]	n/a	catFR1	0	R1243T
1612.777	1.6	1618959	WORD	n/a	wordpools/wordpool_categorized_EN.txt	CROWBAR	Tools	6	13	[0, 0, 0]	n/a	catFR1	0	R1243T
1614.392	0.951	1620574	WORD_OFF	n/a	n/a	CROWBAR	n/a	6	13	[0, 0, 0]	n/a	catFR1	0	R1243T
1615.343	1.6	1621525	WORD	n/a	wordpools/wordpool_categorized_EN.txt	ORANGUTAN	Zoo	7	13	[0, 0, 0]	n/a	catFR1	0	R1243T
1616.961	0.933	1623143	WORD_OFF	n/a	n/a	ORANGUTAN	n/a	7	13	[0, 0, 0]	n/a	catFR1	0	R1243T
1617.894	1.6	1624076	WORD	n/a	wordpools/wordpool_categorized_EN.txt	MONKEY	Zoo	8	13	[0, 0, 0]	n/a	catFR1	0	R1243T
1619.511	0.816	1625693	WORD_OFF	n/a	n/a	MONKEY	n/a	8	13	[0, 0, 0]	n/a	catFR1	0	R1243T
1620.327	1.6	1626509	WORD	n/a	wordpools/wordpool_categorized_EN.txt	LADLE	KitchenTools	9	13	[0, 0, 0]	n/a	catFR1	0	R1243T
1621.945	0.984	1628127	WORD_OFF	n/a	n/a	LADLE	n/a	9	13	[0, 0, 0]	n/a	catFR1	0	R1243T
1622.929	1.6	1629111	WORD	n/a	wordpools/wordpool_categorized_EN.txt	PEELER	KitchenTools	10	13	[0, 0, 0]	n/a	catFR1	0	R1243T
1624.545	0.866	1630727	WORD_OFF	n/a	n/a	PEELER	n/a	10	13	[0, 0, 0]	n/a	catFR1	0	R1243T
1625.411	1.6	1631593	WORD	n/a	wordpools/wordpool_categorized_EN.txt	SCREWDRIVER	Tools	11	13	[0, 0, 0]	n/a	catFR1	0	R1243T
1627.029	0.984	1633211	WORD_OFF	n/a	n/a	SCREWDRIVER	n/a	11	13	[0, 0, 0]	n/a	catFR1	0	R1243T
1628.013	1.6	1634194	WORD	n/a	wordpools/wordpool_categorized_EN.txt	SANDER	Tools	12	13	[0, 0, 0]	n/a	catFR1	0	R1243T
1629.63	0.0	1635811	WORD_OFF	n/a	n/a	SANDER	n/a	12	13	[0, 0, 0]	n/a	catFR1	0	R1243T
1629.63	0.102	1635811	ENCODING_END	n/a	n/a	n/a	n/a	-999	13	[0, 0, 0]	n/a	catFR1	0	R1243T
1629.732	0.0	1635913	DISTRACT_START	n/a	n/a	n/a	n/a	-999	13	[0, 0, 0]	n/a	catFR1	0	R1243T
1629.732	0.014	1635913	START	n/a	n/a	n/a	n/a	-999	13	[-999, -999, -999]	n/a	catFR1	0	R1243T
1629.746	7.684	1635927	PROB	7.654	n/a	n/a	n/a	-999	13	[6, 4, 9]	19.0	catFR1	0	R1243T
1637.43	5.185	1643611	PROB	5.146	n/a	n/a	n/a	-999	13	[5, 2, 7]	14.0	catFR1	0	R1243T
1642.615	9.002	1648796	PROB	9.002	n/a	n/a	n/a	-999	13	[5, 7, 4]	16.0	catFR1	0	R1243T
1651.617	0.017	1657797	STOP	n/a	n/a	n/a	n/a	-999	13	[-999, -999, -999]	n/a	catFR1	0	R1243T
1651.634	0.532	1657814	DISTRACT_END	n/a	n/a	n/a	n/a	-999	13	[0, 0, 0]	n/a	catFR1	0	R1243T
1652.166	0.519	1658346	RETRIEVAL_ORIENT	n/a	n/a	n/a	n/a	-999	13	[0, 0, 0]	n/a	catFR1	0	R1243T
1652.685	3.283	1658865	REC_START	n/a	n/a	n/a	n/a	-999	13	[0, 0, 0]	n/a	catFR1	0	R1243T
1655.968	2.641	1662148	REC_WORD	3.283	n/a	ELEPHANT	Zoo	3	13	[0, 0, 0]	n/a	catFR1	0	R1243T
1658.609	3.184	1664789	REC_WORD	5.924	n/a	CHEETAH	Zoo	4	13	[0, 0, 0]	n/a	catFR1	0	R1243T
1661.793	20.903	1667972	REC_WORD	9.108	n/a	MONKEY	Zoo	8	13	[0, 0, 0]	n/a	catFR1	0	R1243T
1682.696	5.328	1688874	REC_END	n/a	n/a	n/a	n/a	-999	13	[0, 0, 0]	n/a	catFR1	0	R1243T
1688.024	0.5	1694202	TRIAL	n/a	n/a	n/a	n/a	-999	14	[0, 0, 0]	n/a	catFR1	0	R1243T
1688.524	10.0	1694702	COUNTDOWN_START	n/a	n/a	n/a	n/a	-999	14	[0, 0, 0]	n/a	catFR1	0	R1243T
1698.952	0.007	1705129	COUNTDOWN_END	n/a	n/a	n/a	n/a	-999	14	[0, 0, 0]	n/a	catFR1	0	R1243T
1698.959	1.6	1705136	ORIENT	n/a	n/a	n/a	n/a	-999	14	[0, 0, 0]	n/a	catFR1	0	R1243T
1700.576	2.084	1706753	ORIENT_OFF	n/a	n/a	n/a	n/a	-999	14	[0, 0, 0]	n/a	catFR1	0	R1243T
1702.66	1.6	1708837	WORD	n/a	wordpools/wordpool_categorized_EN.txt	ZEBRA	Zoo	1	14	[0, 0, 0]	n/a	catFR1	0	R1243T
1704.275	1.017	1710452	WORD_OFF	n/a	n/a	ZEBRA	n/a	1	14	[0, 0, 0]	n/a	catFR1	0	R1243T
1705.292	1.6	1711469	WORD	n/a	wordpools/wordpool_categorized_EN.txt	GORILLA	Zoo	2	14	[0, 0, 0]	n/a	catFR1	0	R1243T
1706.894	0.9	1713071	WORD_OFF	n/a	n/a	GORILLA	n/a	2	14	[0, 0, 0]	n/a	catFR1	0	R1243T
1707.794	1.6	1713971	WORD	n/a	wordpools/wordpool_categorized_EN.txt	WALNUT	Trees	3	14	[0, 0, 0]	n/a	catFR1	0	R1243T
1709.41	0.9	1715587	WORD_OFF	n/a	n/a	WALNUT	n/a	3	14	[0, 0, 0]	n/a	catFR1	0	R1243T
1710.31	1.6	1716486	WORD	n/a	wordpools/wordpool_categorized_EN.txt	PINE	Trees	4	14	[0, 0, 0]	n/a	catFR1	0	R1243T
1711.928	0.783	1718104	WORD_OFF	n/a	n/a	PINE	n/a	4	14	[0, 0, 0]	n/a	catFR1	0	R1243T
1712.711	1.6	1718887	WORD	n/a	wordpools/wordpool_categorized_EN.txt	PLUM	Fruit	5	14	[0, 0, 0]	n/a	catFR1	0	R1243T
1714.327	0.95	1720503	WORD_OFF	n/a	n/a	PLUM	n/a	5	14	[0, 0, 0]	n/a	catFR1	0	R1243T
1715.277	1.6	1721453	WORD	n/a	wordpools/wordpool_categorized_EN.txt	BANANA	Fruit	6	14	[0, 0, 0]	n/a	catFR1	0	R1243T
1716.879	0.817	1723055	WORD_OFF	n/a	n/a	BANANA	n/a	6	14	[0, 0, 0]	n/a	catFR1	0	R1243T
1717.696	1.6	1723872	WORD	n/a	wordpools/wordpool_categorized_EN.txt	BEAR	Zoo	7	14	[0, 0, 0]	n/a	catFR1	0	R1243T
1719.312	1.016	1725488	WORD_OFF	n/a	n/a	BEAR	n/a	7	14	[0, 0, 0]	n/a	catFR1	0	R1243T
1720.328	1.6	1726504	WORD	n/a	wordpools/wordpool_categorized_EN.txt	TIGER	Zoo	8	14	[0, 0, 0]	n/a	catFR1	0	R1243T
1721.946	0.767	1728122	WORD_OFF	n/a	n/a	TIGER	n/a	8	14	[0, 0, 0]	n/a	catFR1	0	R1243T
1722.713	1.6	1728889	WORD	n/a	wordpools/wordpool_categorized_EN.txt	SPRUCE	Trees	9	14	[0, 0, 0]	n/a	catFR1	0	R1243T
1724.329	0.817	1730505	WORD_OFF	n/a	n/a	SPRUCE	n/a	9	14	[0, 0, 0]	n/a	catFR1	0	R1243T
1725.146	1.6	1731322	WORD	n/a	wordpools/wordpool_categorized_EN.txt	EVERGREEN	Trees	10	14	[0, 0, 0]	n/a	catFR1	0	R1243T
1726.764	0.95	1732939	WORD_OFF	n/a	n/a	EVERGREEN	n/a	10	14	[0, 0, 0]	n/a	catFR1	0	R1243T
1727.714	1.6	1733889	WORD	n/a	wordpools/wordpool_categorized_EN.txt	LIME	Fruit	11	14	[0, 0, 0]	n/a	catFR1	0	R1243T
1729.33	0.917	1735505	WORD_OFF	n/a	n/a	LIME	n/a	11	14	[0, 0, 0]	n/a	catFR1	0	R1243T
1730.247	1.6	1736422	WORD	n/a	wordpools/wordpool_categorized_EN.txt	STRAWBERRY	Fruit	12	14	[0, 0, 0]	n/a	catFR1	0	R1243T
1731.865	0.0	1738040	ENCODING_END	n/a	n/a	n/a	n/a	-999	14	[0, 0, 0]	n/a	catFR1	0	R1243T
1731.865	0.102	1738040	WORD_OFF	n/a	n/a	STRAWBERRY	n/a	12	14	[0, 0, 0]	n/a	catFR1	0	R1243T
1731.967	0.0	1738142	DISTRACT_START	n/a	n/a	n/a	n/a	-999	14	[0, 0, 0]	n/a	catFR1	0	R1243T
1731.967	0.015	1738142	START	n/a	n/a	n/a	n/a	-999	14	[-999, -999, -999]	n/a	catFR1	0	R1243T
1731.982	11.002	1738157	PROB	10.971	n/a	n/a	n/a	-999	14	[5, 4, 3]	11.0	catFR1	0	R1243T
1742.984	7.25	1749158	PROB	7.224	n/a	n/a	n/a	-999	14	[2, 5, 1]	8.0	catFR1	0	R1243T
1750.234	6.719	1756408	PROB	6.719	n/a	n/a	n/a	-999	14	[2, 3, 2]	7.0	catFR1	0	R1243T
1756.953	0.017	1763127	STOP	n/a	n/a	n/a	n/a	-999	14	[-999, -999, -999]	n/a	catFR1	0	R1243T
1756.97	0.583	1763144	DISTRACT_END	n/a	n/a	n/a	n/a	-999	14	[0, 0, 0]	n/a	catFR1	0	R1243T
1757.553	0.518	1763727	RETRIEVAL_ORIENT	n/a	n/a	n/a	n/a	-999	14	[0, 0, 0]	n/a	catFR1	0	R1243T
1758.071	2.974	1764245	REC_START	n/a	n/a	n/a	n/a	-999	14	[0, 0, 0]	n/a	catFR1	0	R1243T
1761.045	18.42	1767218	REC_WORD	2.974	n/a	ZEBRA	Zoo	1	14	[0, 0, 0]	n/a	catFR1	0	R1243T
1779.465	3.208	1785637	REC_WORD	21.394	n/a	BANANA	Fruit	6	14	[0, 0, 0]	n/a	catFR1	0	R1243T
1782.673	5.409	1788845	REC_WORD	24.602	n/a	GORILLA	Zoo	2	14	[0, 0, 0]	n/a	catFR1	0	R1243T
1788.082	5.861	1794254	REC_END	n/a	n/a	n/a	n/a	-999	14	[0, 0, 0]	n/a	catFR1	0	R1243T
1793.943	0.5	1800114	TRIAL	n/a	n/a	n/a	n/a	-999	15	[0, 0, 0]	n/a	catFR1	0	R1243T
1794.443	10.0	1800614	COUNTDOWN_START	n/a	n/a	n/a	n/a	-999	15	[0, 0, 0]	n/a	catFR1	0	R1243T
1804.871	0.007	1811042	COUNTDOWN_END	n/a	n/a	n/a	n/a	-999	15	[0, 0, 0]	n/a	catFR1	0	R1243T
1804.878	1.6	1811049	ORIENT	n/a	n/a	n/a	n/a	-999	15	[0, 0, 0]	n/a	catFR1	0	R1243T
1806.494	2.301	1812665	ORIENT_OFF	n/a	n/a	n/a	n/a	-999	15	[0, 0, 0]	n/a	catFR1	0	R1243T
1808.795	1.6	1814965	WORD	n/a	wordpools/wordpool_categorized_EN.txt	FOOTBALL	Toys	1	15	[0, 0, 0]	n/a	catFR1	0	R1243T
1810.411	0.801	1816581	WORD_OFF	n/a	n/a	FOOTBALL	n/a	1	15	[0, 0, 0]	n/a	catFR1	0	R1243T
1811.212	1.6	1817382	WORD	n/a	wordpools/wordpool_categorized_EN.txt	BLOCKS	Toys	2	15	[0, 0, 0]	n/a	catFR1	0	R1243T
1812.83	0.9	1819000	WORD_OFF	n/a	n/a	BLOCKS	n/a	2	15	[0, 0, 0]	n/a	catFR1	0	R1243T
1813.73	1.6	1819900	WORD	n/a	wordpools/wordpool_categorized_EN.txt	DRESSER	Furniture	3	15	[0, 0, 0]	n/a	catFR1	0	R1243T
1815.346	0.767	1821516	WORD_OFF	n/a	n/a	DRESSER	n/a	3	15	[0, 0, 0]	n/a	catFR1	0	R1243T
1816.113	1.6	1822283	WORD	n/a	wordpools/wordpool_categorized_EN.txt	CHAIR	Furniture	4	15	[0, 0, 0]	n/a	catFR1	0	R1243T
1817.73	1.001	1823900	WORD_OFF	n/a	n/a	CHAIR	n/a	4	15	[0, 0, 0]	n/a	catFR1	0	R1243T
1818.731	1.6	1824901	WORD	n/a	wordpools/wordpool_categorized_EN.txt	GLUE	OfficeSupplies	5	15	[0, 0, 0]	n/a	catFR1	0	R1243T
1820.347	0.85	1826517	WORD_OFF	n/a	n/a	GLUE	n/a	5	15	[0, 0, 0]	n/a	catFR1	0	R1243T
1821.197	1.6	1827367	WORD	n/a	wordpools/wordpool_categorized_EN.txt	FOLDER	OfficeSupplies	6	15	[0, 0, 0]	n/a	catFR1	0	R1243T
1822.815	0.916	1828985	WORD_OFF	n/a	n/a	FOLDER	n/a	6	15	[0, 0, 0]	n/a	catFR1	0	R1243T
1823.731	1.6	1829901	WORD	n/a	wordpools/wordpool_categorized_EN.txt	DOLL	Toys	7	15	[0, 0, 0]	n/a	catFR1	0	R1243T
1825.347	0.967	1831516	WORD_OFF	n/a	n/a	DOLL	n/a	7	15	[0, 0, 0]	n/a	catFR1	0	R1243T
1826.314	1.6	1832483	WORD	n/a	wordpools/wordpool_categorized_EN.txt	DOLLHOUSE	Toys	8	15	[0, 0, 0]	n/a	catFR1	0	R1243T
1827.932	0.917	1834101	WORD_OFF	n/a	n/a	DOLLHOUSE	n/a	8	15	[0, 0, 0]	n/a	catFR1	0	R1243T
1828.849	1.6	1835018	WORD	n/a	wordpools/wordpool_categorized_EN.txt	CABINET	Furniture	9	15	[0, 0, 0]	n/a	catFR1	0	R1243T
1830.465	0.934	1836634	WORD_OFF	n/a	n/a	CABINET	n/a	9	15	[0, 0, 0]	n/a	catFR1	0	R1243T
1831.399	1.6	1837568	WORD	n/a	wordpools/wordpool_categorized_EN.txt	BOOKCASE	Furniture	10	15	[0, 0, 0]	n/a	catFR1	0	R1243T
1833.017	0.816	1839186	WORD_OFF	n/a	n/a	BOOKCASE	n/a	10	15	[0, 0, 0]	n/a	catFR1	0	R1243T
1833.833	1.6	1840002	WORD	n/a	wordpools/wordpool_categorized_EN.txt	PENCIL	OfficeSupplies	11	15	[0, 0, 0]	n/a	catFR1	0	R1243T
1835.449	1.0	1841618	WORD_OFF	n/a	n/a	PENCIL	n/a	11	15	[0, 0, 0]	n/a	catFR1	0	R1243T
1836.449	1.6	1842618	WORD	n/a	wordpools/wordpool_categorized_EN.txt	MARKER	OfficeSupplies	12	15	[0, 0, 0]	n/a	catFR1	0	R1243T
1838.05	0.001	1844219	WORD_OFF	n/a	n/a	MARKER	n/a	12	15	[0, 0, 0]	n/a	catFR1	0	R1243T
1838.051	0.139	1844220	ENCODING_END	n/a	n/a	n/a	n/a	-999	15	[0, 0, 0]	n/a	catFR1	0	R1243T
1838.19	0.0	1844359	DISTRACT_START	n/a	n/a	n/a	n/a	-999	15	[0, 0, 0]	n/a	catFR1	0	R1243T
1838.19	0.01	1844359	START	n/a	n/a	n/a	n/a	-999	15	[-999, -999, -999]	n/a	catFR1	0	R1243T
1838.2	9.118	1844369	PROB	9.08	n/a	n/a	n/a	-999	15	[5, 2, 9]	16.0	catFR1	0	R1243T
1847.318	8.035	1853486	PROB	8.001	n/a	n/a	n/a	-999	15	[1, 8, 3]	12.0	catFR1	0	R1243T
1855.353	7.215	1861521	PROB	7.215	n/a	n/a	n/a	-999	15	[8, 5, 9]	22.0	catFR1	0	R1243T
1862.568	0.021	1868735	STOP	n/a	n/a	n/a	n/a	-999	15	[-999, -999, -999]	n/a	catFR1	0	R1243T
1862.589	0.533	1868756	DISTRACT_END	n/a	n/a	n/a	n/a	-999	15	[0, 0, 0]	n/a	catFR1	0	R1243T
1863.122	0.518	1869289	RETRIEVAL_ORIENT	n/a	n/a	n/a	n/a	-999	15	[0, 0, 0]	n/a	catFR1	0	R1243T
1863.64	24.856	1869807	REC_START	n/a	n/a	n/a	n/a	-999	15	[0, 0, 0]	n/a	catFR1	0	R1243T
1888.496	5.153	1894662	REC_WORD_VV	24.856	n/a	<>	n/a	-999	15	[0, 0, 0]	n/a	catFR1	0	R1243T
1893.649	25.749	1899814	REC_END	n/a	n/a	n/a	n/a	-999	15	[0, 0, 0]	n/a	catFR1	0	R1243T
1919.398	0.5	1925562	TRIAL	n/a	n/a	n/a	n/a	-999	16	[0, 0, 0]	n/a	catFR1	0	R1243T
1919.898	10.0	1926062	COUNTDOWN_START	n/a	n/a	n/a	n/a	-999	16	[0, 0, 0]	n/a	catFR1	0	R1243T
1930.326	0.007	1936489	COUNTDOWN_END	n/a	n/a	n/a	n/a	-999	16	[0, 0, 0]	n/a	catFR1	0	R1243T
1930.333	1.6	1936496	ORIENT	n/a	n/a	n/a	n/a	-999	16	[0, 0, 0]	n/a	catFR1	0	R1243T
1931.934	2.068	1938097	ORIENT_OFF	n/a	n/a	n/a	n/a	-999	16	[0, 0, 0]	n/a	catFR1	0	R1243T
1934.002	1.6	1940165	WORD	n/a	wordpools/wordpool_categorized_EN.txt	DISHWASHER	Appliances	1	16	[0, 0, 0]	n/a	catFR1	0	R1243T
1935.618	0.934	1941781	WORD_OFF	n/a	n/a	DISHWASHER	n/a	1	16	[0, 0, 0]	n/a	catFR1	0	R1243T
1936.552	1.6	1942715	WORD	n/a	wordpools/wordpool_categorized_EN.txt	FREEZER	Appliances	2	16	[0, 0, 0]	n/a	catFR1	0	R1243T
1938.168	0.851	1944331	WORD_OFF	n/a	n/a	FREEZER	n/a	2	16	[0, 0, 0]	n/a	catFR1	0	R1243T
1939.019	1.6	1945181	WORD	n/a	wordpools/wordpool_categorized_EN.txt	ONION	Vegetables	3	16	[0, 0, 0]	n/a	catFR1	0	R1243T
1940.636	0.917	1946798	WORD_OFF	n/a	n/a	ONION	n/a	3	16	[0, 0, 0]	n/a	catFR1	0	R1243T
1941.553	1.6	1947715	WORD	n/a	wordpools/wordpool_categorized_EN.txt	CORN	Vegetables	4	16	[0, 0, 0]	n/a	catFR1	0	R1243T
1943.169	0.851	1949331	WORD_OFF	n/a	n/a	CORN	n/a	4	16	[0, 0, 0]	n/a	catFR1	0	R1243T
1944.02	1.6	1950182	WORD	n/a	wordpools/wordpool_categorized_EN.txt	GRATER	KitchenTools	5	16	[0, 0, 0]	n/a	catFR1	0	R1243T
1945.637	0.799	1951799	WORD_OFF	n/a	n/a	GRATER	n/a	5	16	[0, 0, 0]	n/a	catFR1	0	R1243T
1946.436	1.6	1952598	WORD	n/a	wordpools/wordpool_categorized_EN.txt	COLANDER	KitchenTools	6	16	[0, 0, 0]	n/a	catFR1	0	R1243T
1948.054	0.984	1954216	WORD_OFF	n/a	n/a	COLANDER	n/a	6	16	[0, 0, 0]	n/a	catFR1	0	R1243T
1949.038	1.6	1955200	WORD	n/a	wordpools/wordpool_categorized_EN.txt	CAULIFLOWER	Vegetables	7	16	[0, 0, 0]	n/a	catFR1	0	R1243T
1950.655	0.799	1956817	WORD_OFF	n/a	n/a	CAULIFLOWER	n/a	7	16	[0, 0, 0]	n/a	catFR1	0	R1243T
1951.454	1.6	1957616	WORD	n/a	wordpools/wordpool_categorized_EN.txt	POTATO	Vegetables	8	16	[0, 0, 0]	n/a	catFR1	0	R1243T
1953.072	0.883	1959234	WORD_OFF	n/a	n/a	POTATO	n/a	8	16	[0, 0, 0]	n/a	catFR1	0	R1243T
1953.955	1.6	1960117	WORD	n/a	wordpools/wordpool_categorized_EN.txt	REFRIGERATOR	Appliances	9	16	[0, 0, 0]	n/a	catFR1	0	R1243T
1955.572	0.967	1961733	WORD_OFF	n/a	n/a	REFRIGERATOR	n/a	9	16	[0, 0, 0]	n/a	catFR1	0	R1243T
1956.539	1.6	1962700	WORD	n/a	wordpools/wordpool_categorized_EN.txt	MIXER	Appliances	10	16	[0, 0, 0]	n/a	catFR1	0	R1243T
1958.155	0.983	1964316	WORD_OFF	n/a	n/a	MIXER	n/a	10	16	[0, 0, 0]	n/a	catFR1	0	R1243T
1959.138	1.6	1965299	WORD	n/a	wordpools/wordpool_categorized_EN.txt	CORKSCREW	KitchenTools	11	16	[0, 0, 0]	n/a	catFR1	0	R1243T
1960.756	0.867	1966917	WORD_OFF	n/a	n/a	CORKSCREW	n/a	11	16	[0, 0, 0]	n/a	catFR1	0	R1243T
1961.623	1.6	1967784	WORD	n/a	wordpools/wordpool_categorized_EN.txt	SPATULA	KitchenTools	12	16	[0, 0, 0]	n/a	catFR1	0	R1243T
1963.239	0.0	1969400	ENCODING_END	n/a	n/a	n/a	n/a	-999	16	[0, 0, 0]	n/a	catFR1	0	R1243T
1963.239	0.104	1969400	WORD_OFF	n/a	n/a	SPATULA	n/a	12	16	[0, 0, 0]	n/a	catFR1	0	R1243T
1963.343	0.0	1969504	DISTRACT_START	n/a	n/a	n/a	n/a	-999	16	[0, 0, 0]	n/a	catFR1	0	R1243T
1963.343	0.013	1969504	START	n/a	n/a	n/a	n/a	-999	16	[-999, -999, -999]	n/a	catFR1	0	R1243T
1963.356	5.984	1969517	PROB	5.955	n/a	n/a	n/a	-999	16	[8, 3, 1]	12.0	catFR1	0	R1243T
1969.34	5.851	1975501	PROB	5.82	n/a	n/a	n/a	-999	16	[4, 4, 8]	16.0	catFR1	0	R1243T
1975.191	4.935	1981351	PROB	4.898	n/a	n/a	n/a	-999	16	[9, 2, 2]	13.0	catFR1	0	R1243T
1980.126	4.786	1986286	PROB	4.786	n/a	n/a	n/a	-999	16	[2, 1, 2]	5.0	catFR1	0	R1243T
1984.912	0.016	1991072	STOP	n/a	n/a	n/a	n/a	-999	16	[-999, -999, -999]	n/a	catFR1	0	R1243T
1984.928	0.583	1991088	DISTRACT_END	n/a	n/a	n/a	n/a	-999	16	[0, 0, 0]	n/a	catFR1	0	R1243T
1985.511	0.518	1991671	RETRIEVAL_ORIENT	n/a	n/a	n/a	n/a	-999	16	[0, 0, 0]	n/a	catFR1	0	R1243T
1986.029	2.476	1992189	REC_START	n/a	n/a	n/a	n/a	-999	16	[0, 0, 0]	n/a	catFR1	0	R1243T
1988.505	1.877	1994664	REC_WORD	2.476	n/a	DISHWASHER	Appliances	1	16	[0, 0, 0]	n/a	catFR1	0	R1243T
1990.382	4.054	1996541	REC_WORD	4.353	n/a	REFRIGERATOR	Appliances	9	16	[0, 0, 0]	n/a	catFR1	0	R1243T
1994.436	14.495	2000595	REC_WORD	8.407	n/a	WASHER	n/a	-999	16	[0, 0, 0]	n/a	catFR1	0	R1243T
2008.931	6.523	2015089	REC_WORD	22.902	n/a	SPATULA	KitchenTools	12	16	[0, 0, 0]	n/a	catFR1	0	R1243T
2015.454	0.585	2021612	REC_WORD	29.425	n/a	CORKSCREW	KitchenTools	11	16	[0, 0, 0]	n/a	catFR1	0	R1243T
2016.039	8.012	2022197	REC_END	n/a	n/a	n/a	n/a	-999	16	[0, 0, 0]	n/a	catFR1	0	R1243T
2024.051	0.5	2030208	TRIAL	n/a	n/a	n/a	n/a	-999	17	[0, 0, 0]	n/a	catFR1	0	R1243T
2024.551	10.0	2030708	COUNTDOWN_START	n/a	n/a	n/a	n/a	-999	17	[0, 0, 0]	n/a	catFR1	0	R1243T
2034.979	0.008	2041136	COUNTDOWN_END	n/a	n/a	n/a	n/a	-999	17	[0, 0, 0]	n/a	catFR1	0	R1243T
2034.987	1.6	2041144	ORIENT	n/a	n/a	n/a	n/a	-999	17	[0, 0, 0]	n/a	catFR1	0	R1243T
2036.604	2.267	2042761	ORIENT_OFF	n/a	n/a	n/a	n/a	-999	17	[0, 0, 0]	n/a	catFR1	0	R1243T
2038.871	1.6	2045027	WORD	n/a	wordpools/wordpool_categorized_EN.txt	SNOW	Weather	1	17	[0, 0, 0]	n/a	catFR1	0	R1243T
2040.487	0.783	2046643	WORD_OFF	n/a	n/a	SNOW	n/a	1	17	[0, 0, 0]	n/a	catFR1	0	R1243T
2041.27	1.6	2047426	WORD	n/a	wordpools/wordpool_categorized_EN.txt	FOG	Weather	2	17	[0, 0, 0]	n/a	catFR1	0	R1243T
2042.871	0.984	2049027	WORD_OFF	n/a	n/a	FOG	n/a	2	17	[0, 0, 0]	n/a	catFR1	0	R1243T
2043.855	1.6	2050011	WORD	n/a	wordpools/wordpool_categorized_EN.txt	IRON	Appliances	3	17	[0, 0, 0]	n/a	catFR1	0	R1243T
2045.471	0.883	2051627	WORD_OFF	n/a	n/a	IRON	n/a	3	17	[0, 0, 0]	n/a	catFR1	0	R1243T
2046.354	1.6	2052510	WORD	n/a	wordpools/wordpool_categorized_EN.txt	WASHER	Appliances	4	17	[0, 0, 0]	n/a	catFR1	0	R1243T
2047.955	0.834	2054111	WORD_OFF	n/a	n/a	WASHER	n/a	4	17	[0, 0, 0]	n/a	catFR1	0	R1243T
2048.789	1.6	2054945	WORD	n/a	wordpools/wordpool_categorized_EN.txt	FRISBEE	Toys	5	17	[0, 0, 0]	n/a	catFR1	0	R1243T
2050.405	0.767	2056561	WORD_OFF	n/a	n/a	FRISBEE	n/a	5	17	[0, 0, 0]	n/a	catFR1	0	R1243T
2051.172	1.6	2057328	WORD	n/a	wordpools/wordpool_categorized_EN.txt	BASEBALL	Toys	6	17	[0, 0, 0]	n/a	catFR1	0	R1243T
2052.79	0.883	2058946	WORD_OFF	n/a	n/a	BASEBALL	n/a	6	17	[0, 0, 0]	n/a	catFR1	0	R1243T
2053.673	1.6	2059828	WORD	n/a	wordpools/wordpool_categorized_EN.txt	BLENDER	Appliances	7	17	[0, 0, 0]	n/a	catFR1	0	R1243T
2055.289	0.768	2061444	WORD_OFF	n/a	n/a	BLENDER	n/a	7	17	[0, 0, 0]	n/a	catFR1	0	R1243T
2056.057	1.6	2062212	WORD	n/a	wordpools/wordpool_categorized_EN.txt	OVEN	Appliances	8	17	[0, 0, 0]	n/a	catFR1	0	R1243T
2057.674	0.967	2063829	WORD_OFF	n/a	n/a	OVEN	n/a	8	17	[0, 0, 0]	n/a	catFR1	0	R1243T
2058.641	1.6	2064796	WORD	n/a	wordpools/wordpool_categorized_EN.txt	RAIN	Weather	9	17	[0, 0, 0]	n/a	catFR1	0	R1243T
2060.257	0.801	2066412	WORD_OFF	n/a	n/a	RAIN	n/a	9	17	[0, 0, 0]	n/a	catFR1	0	R1243T
2061.058	1.6	2067213	WORD	n/a	wordpools/wordpool_categorized_EN.txt	LIGHTNING	Weather	10	17	[0, 0, 0]	n/a	catFR1	0	R1243T
2062.675	1.0	2068830	WORD_OFF	n/a	n/a	LIGHTNING	n/a	10	17	[0, 0, 0]	n/a	catFR1	0	R1243T
2063.675	1.6	2069830	WORD	n/a	wordpools/wordpool_categorized_EN.txt	SLINKY	Toys	11	17	[0, 0, 0]	n/a	catFR1	0	R1243T
2065.291	0.9	2071446	WORD_OFF	n/a	n/a	SLINKY	n/a	11	17	[0, 0, 0]	n/a	catFR1	0	R1243T
2066.191	1.6	2072346	WORD	n/a	wordpools/wordpool_categorized_EN.txt	BALL	Toys	12	17	[0, 0, 0]	n/a	catFR1	0	R1243T
2067.809	0.0	2073964	ENCODING_END	n/a	n/a	n/a	n/a	-999	17	[0, 0, 0]	n/a	catFR1	0	R1243T
2067.809	0.105	2073964	WORD_OFF	n/a	n/a	BALL	n/a	12	17	[0, 0, 0]	n/a	catFR1	0	R1243T
2067.914	0.0	2074069	DISTRACT_START	n/a	n/a	n/a	n/a	-999	17	[0, 0, 0]	n/a	catFR1	0	R1243T
2067.914	0.012	2074069	START	n/a	n/a	n/a	n/a	-999	17	[-999, -999, -999]	n/a	catFR1	0	R1243T
2067.926	7.25	2074081	PROB	7.217	n/a	n/a	n/a	-999	17	[1, 7, 8]	16.0	catFR1	0	R1243T
2075.176	4.719	2081330	PROB	4.689	n/a	n/a	n/a	-999	17	[4, 6, 1]	11.0	catFR1	0	R1243T
2079.895	8.113	2086049	PROB	8.113	n/a	n/a	n/a	-999	17	[6, 6, 9]	21.0	catFR1	0	R1243T
2088.008	0.022	2094161	STOP	n/a	n/a	n/a	n/a	-999	17	[-999, -999, -999]	n/a	catFR1	0	R1243T
2088.03	0.7	2094183	DISTRACT_END	n/a	n/a	n/a	n/a	-999	17	[0, 0, 0]	n/a	catFR1	0	R1243T
2088.73	0.516	2094883	RETRIEVAL_ORIENT	n/a	n/a	n/a	n/a	-999	17	[0, 0, 0]	n/a	catFR1	0	R1243T
2089.246	8.779	2095399	REC_START	n/a	n/a	n/a	n/a	-999	17	[0, 0, 0]	n/a	catFR1	0	R1243T
2098.025	14.635	2104178	REC_WORD	8.779	n/a	WASHER	Appliances	4	17	[0, 0, 0]	n/a	catFR1	0	R1243T
2112.66	6.597	2118812	REC_WORD	23.414	n/a	SLIMY	n/a	-999	17	[0, 0, 0]	n/a	catFR1	0	R1243T
2119.257	6.095	2125408	REC_END	n/a	n/a	n/a	n/a	-999	17	[0, 0, 0]	n/a	catFR1	0	R1243T
2125.352	0.5	2131503	TRIAL	n/a	n/a	n/a	n/a	-999	18	[0, 0, 0]	n/a	catFR1	0	R1243T
2125.852	10.0	2132003	COUNTDOWN_START	n/a	n/a	n/a	n/a	-999	18	[0, 0, 0]	n/a	catFR1	0	R1243T
2136.28	0.007	2142430	COUNTDOWN_END	n/a	n/a	n/a	n/a	-999	18	[0, 0, 0]	n/a	catFR1	0	R1243T
2136.287	1.6	2142437	ORIENT	n/a	n/a	n/a	n/a	-999	18	[0, 0, 0]	n/a	catFR1	0	R1243T
2137.905	2.0	2144055	ORIENT_OFF	n/a	n/a	n/a	n/a	-999	18	[0, 0, 0]	n/a	catFR1	0	R1243T
2139.905	1.6	2146055	WORD	n/a	wordpools/wordpool_categorized_EN.txt	CAKE	Desserts	1	18	[0, 0, 0]	n/a	catFR1	0	R1243T
2141.523	0.948	2147673	WORD_OFF	n/a	n/a	CAKE	n/a	1	18	[0, 0, 0]	n/a	catFR1	0	R1243T
2142.471	1.6	2148621	WORD	n/a	wordpools/wordpool_categorized_EN.txt	PIE	Desserts	2	18	[0, 0, 0]	n/a	catFR1	0	R1243T
2144.073	0.884	2150223	WORD_OFF	n/a	n/a	PIE	n/a	2	18	[0, 0, 0]	n/a	catFR1	0	R1243T
2144.957	1.6	2151107	WORD	n/a	wordpools/wordpool_categorized_EN.txt	JEEP	Vehicles	3	18	[0, 0, 0]	n/a	catFR1	0	R1243T
2146.574	0.915	2152724	WORD_OFF	n/a	n/a	JEEP	n/a	3	18	[0, 0, 0]	n/a	catFR1	0	R1243T
2147.489	1.6	2153639	WORD	n/a	wordpools/wordpool_categorized_EN.txt	TRUCK	Vehicles	4	18	[0, 0, 0]	n/a	catFR1	0	R1243T
2149.091	0.983	2155241	WORD_OFF	n/a	n/a	TRUCK	n/a	4	18	[0, 0, 0]	n/a	catFR1	0	R1243T
2150.074	1.6	2156224	WORD	n/a	wordpools/wordpool_categorized_EN.txt	STRAINER	KitchenTools	5	18	[0, 0, 0]	n/a	catFR1	0	R1243T
2151.691	0.984	2157840	WORD_OFF	n/a	n/a	STRAINER	n/a	5	18	[0, 0, 0]	n/a	catFR1	0	R1243T
2152.675	1.6	2158824	WORD	n/a	wordpools/wordpool_categorized_EN.txt	FORK	KitchenTools	6	18	[0, 0, 0]	n/a	catFR1	0	R1243T
2154.291	0.966	2160440	WORD_OFF	n/a	n/a	FORK	n/a	6	18	[0, 0, 0]	n/a	catFR1	0	R1243T
2155.257	1.6	2161406	WORD	n/a	wordpools/wordpool_categorized_EN.txt	CUPCAKE	Desserts	7	18	[0, 0, 0]	n/a	catFR1	0	R1243T
2156.875	0.867	2163024	WORD_OFF	n/a	n/a	CUPCAKE	n/a	7	18	[0, 0, 0]	n/a	catFR1	0	R1243T
2157.742	1.6	2163891	WORD	n/a	wordpools/wordpool_categorized_EN.txt	FUDGE	Desserts	8	18	[0, 0, 0]	n/a	catFR1	0	R1243T
2159.358	0.834	2165507	WORD_OFF	n/a	n/a	FUDGE	n/a	8	18	[0, 0, 0]	n/a	catFR1	0	R1243T
2160.192	1.6	2166341	WORD	n/a	wordpools/wordpool_categorized_EN.txt	TRAIN	Vehicles	9	18	[0, 0, 0]	n/a	catFR1	0	R1243T
2161.81	0.867	2167959	WORD_OFF	n/a	n/a	TRAIN	n/a	9	18	[0, 0, 0]	n/a	catFR1	0	R1243T
2162.677	1.6	2168826	WORD	n/a	wordpools/wordpool_categorized_EN.txt	BOAT	Vehicles	10	18	[0, 0, 0]	n/a	catFR1	0	R1243T
2164.292	0.867	2170441	WORD_OFF	n/a	n/a	BOAT	n/a	10	18	[0, 0, 0]	n/a	catFR1	0	R1243T
2165.159	1.6	2171308	WORD	n/a	wordpools/wordpool_categorized_EN.txt	SPOON	KitchenTools	11	18	[0, 0, 0]	n/a	catFR1	0	R1243T
2166.76	0.817	2172909	WORD_OFF	n/a	n/a	SPOON	n/a	11	18	[0, 0, 0]	n/a	catFR1	0	R1243T
2167.577	1.6	2173725	WORD	n/a	wordpools/wordpool_categorized_EN.txt	KNIFE	KitchenTools	12	18	[0, 0, 0]	n/a	catFR1	0	R1243T
2169.193	0.001	2175341	WORD_OFF	n/a	n/a	KNIFE	n/a	12	18	[0, 0, 0]	n/a	catFR1	0	R1243T
2169.194	0.14	2175342	ENCODING_END	n/a	n/a	n/a	n/a	-999	18	[0, 0, 0]	n/a	catFR1	0	R1243T
2169.334	0.0	2175482	DISTRACT_START	n/a	n/a	n/a	n/a	-999	18	[0, 0, 0]	n/a	catFR1	0	R1243T
2169.334	0.009	2175482	START	n/a	n/a	n/a	n/a	-999	18	[-999, -999, -999]	n/a	catFR1	0	R1243T
2169.343	9.753	2175491	PROB	9.73	n/a	n/a	n/a	-999	18	[8, 8, 4]	20.0	catFR1	0	R1243T
2179.096	6.334	2185244	PROB	6.311	n/a	n/a	n/a	-999	18	[7, 1, 2]	10.0	catFR1	0	R1243T
2185.43	5.042	2191577	PROB	5.042	n/a	n/a	n/a	-999	18	[3, 6, 8]	12.0	catFR1	0	R1243T
2190.472	0.009	2196619	STOP	n/a	n/a	n/a	n/a	-999	18	[-999, -999, -999]	n/a	catFR1	0	R1243T
2190.481	0.517	2196628	DISTRACT_END	n/a	n/a	n/a	n/a	-999	18	[0, 0, 0]	n/a	catFR1	0	R1243T
2190.998	0.518	2197145	RETRIEVAL_ORIENT	n/a	n/a	n/a	n/a	-999	18	[0, 0, 0]	n/a	catFR1	0	R1243T
2191.516	11.844	2197663	REC_START	n/a	n/a	n/a	n/a	-999	18	[0, 0, 0]	n/a	catFR1	0	R1243T
2203.36	17.377	2209506	REC_WORD_VV	11.844	n/a	<>	n/a	-999	18	[0, 0, 0]	n/a	catFR1	0	R1243T
2220.737	0.789	2226882	REC_WORD	29.221	n/a	CAKE	Desserts	1	18	[0, 0, 0]	n/a	catFR1	0	R1243T
2221.526	6.346	2227671	REC_END	n/a	n/a	n/a	n/a	-999	18	[0, 0, 0]	n/a	catFR1	0	R1243T
2227.872	0.5	2234017	TRIAL	n/a	n/a	n/a	n/a	-999	19	[0, 0, 0]	n/a	catFR1	0	R1243T
2228.372	10.0	2234517	COUNTDOWN_START	n/a	n/a	n/a	n/a	-999	19	[0, 0, 0]	n/a	catFR1	0	R1243T
2238.8	0.007	2244944	COUNTDOWN_END	n/a	n/a	n/a	n/a	-999	19	[0, 0, 0]	n/a	catFR1	0	R1243T
2238.807	1.6	2244951	ORIENT	n/a	n/a	n/a	n/a	-999	19	[0, 0, 0]	n/a	catFR1	0	R1243T
2240.423	2.318	2246567	ORIENT_OFF	n/a	n/a	n/a	n/a	-999	19	[0, 0, 0]	n/a	catFR1	0	R1243T
2242.741	1.6	2248885	WORD	n/a	wordpools/wordpool_categorized_EN.txt	TEA	Beverages	1	19	[0, 0, 0]	n/a	catFR1	0	R1243T
2244.357	0.833	2250501	WORD_OFF	n/a	n/a	TEA	n/a	1	19	[0, 0, 0]	n/a	catFR1	0	R1243T
2245.19	1.6	2251334	WORD	n/a	wordpools/wordpool_categorized_EN.txt	LEMONADE	Beverages	2	19	[0, 0, 0]	n/a	catFR1	0	R1243T
2246.791	0.918	2252935	WORD_OFF	n/a	n/a	LEMONADE	n/a	2	19	[0, 0, 0]	n/a	catFR1	0	R1243T
2247.709	1.6	2253853	WORD	n/a	wordpools/wordpool_categorized_EN.txt	COAT	Clothing	3	19	[0, 0, 0]	n/a	catFR1	0	R1243T
2249.325	0.866	2255468	WORD_OFF	n/a	n/a	COAT	n/a	3	19	[0, 0, 0]	n/a	catFR1	0	R1243T
2250.191	1.6	2256334	WORD	n/a	wordpools/wordpool_categorized_EN.txt	JACKET	Clothing	4	19	[0, 0, 0]	n/a	catFR1	0	R1243T
2251.809	1.017	2257952	WORD_OFF	n/a	n/a	JACKET	n/a	4	19	[0, 0, 0]	n/a	catFR1	0	R1243T
2252.826	1.6	2258969	WORD	n/a	wordpools/wordpool_categorized_EN.txt	CYPRESS	Trees	5	19	[0, 0, 0]	n/a	catFR1	0	R1243T
2254.442	0.95	2260585	WORD_OFF	n/a	n/a	CYPRESS	n/a	5	19	[0, 0, 0]	n/a	catFR1	0	R1243T
2255.392	1.6	2261535	WORD	n/a	wordpools/wordpool_categorized_EN.txt	BIRCH	Trees	6	19	[0, 0, 0]	n/a	catFR1	0	R1243T
2257.01	0.767	2263153	WORD_OFF	n/a	n/a	BIRCH	n/a	6	19	[0, 0, 0]	n/a	catFR1	0	R1243T
2257.777	1.6	2263920	WORD	n/a	wordpools/wordpool_categorized_EN.txt	WINE	Beverages	7	19	[0, 0, 0]	n/a	catFR1	0	R1243T
2259.393	0.934	2265536	WORD_OFF	n/a	n/a	WINE	n/a	7	19	[0, 0, 0]	n/a	catFR1	0	R1243T
2260.327	1.6	2266470	WORD	n/a	wordpools/wordpool_categorized_EN.txt	BEER	Beverages	8	19	[0, 0, 0]	n/a	catFR1	0	R1243T
2261.944	0.951	2268087	WORD_OFF	n/a	n/a	BEER	n/a	8	19	[0, 0, 0]	n/a	catFR1	0	R1243T
2262.895	1.6	2269038	WORD	n/a	wordpools/wordpool_categorized_EN.txt	UNDERWEAR	Clothing	9	19	[0, 0, 0]	n/a	catFR1	0	R1243T
2264.512	0.949	2270655	WORD_OFF	n/a	n/a	UNDERWEAR	n/a	9	19	[0, 0, 0]	n/a	catFR1	0	R1243T
2265.461	1.6	2271604	WORD	n/a	wordpools/wordpool_categorized_EN.txt	SHORTS	Clothing	10	19	[0, 0, 0]	n/a	catFR1	0	R1243T
2267.079	0.933	2273221	WORD_OFF	n/a	n/a	SHORTS	n/a	10	19	[0, 0, 0]	n/a	catFR1	0	R1243T
2268.012	1.6	2274154	WORD	n/a	wordpools/wordpool_categorized_EN.txt	HICKORY	Trees	11	19	[0, 0, 0]	n/a	catFR1	0	R1243T
2269.629	0.816	2275771	WORD_OFF	n/a	n/a	HICKORY	n/a	11	19	[0, 0, 0]	n/a	catFR1	0	R1243T
2270.445	1.6	2276587	WORD	n/a	wordpools/wordpool_categorized_EN.txt	ELM	Trees	12	19	[0, 0, 0]	n/a	catFR1	0	R1243T
2272.063	0.0	2278205	ENCODING_END	n/a	n/a	n/a	n/a	-999	19	[0, 0, 0]	n/a	catFR1	0	R1243T
2272.063	0.105	2278205	WORD_OFF	n/a	n/a	ELM	n/a	12	19	[0, 0, 0]	n/a	catFR1	0	R1243T
2272.168	0.0	2278310	DISTRACT_START	n/a	n/a	n/a	n/a	-999	19	[0, 0, 0]	n/a	catFR1	0	R1243T
2272.168	0.011	2278310	START	n/a	n/a	n/a	n/a	-999	19	[-999, -999, -999]	n/a	catFR1	0	R1243T
2272.179	29.22	2278321	PROB	29.22	n/a	n/a	n/a	-999	19	[8, 9, 8]	25.0	catFR1	0	R1243T
2301.399	0.019	2307539	STOP	n/a	n/a	n/a	n/a	-999	19	[-999, -999, -999]	n/a	catFR1	0	R1243T
2301.418	0.634	2307558	DISTRACT_END	n/a	n/a	n/a	n/a	-999	19	[0, 0, 0]	n/a	catFR1	0	R1243T
2302.052	0.517	2308192	RETRIEVAL_ORIENT	n/a	n/a	n/a	n/a	-999	19	[0, 0, 0]	n/a	catFR1	0	R1243T
2302.569	4.307	2308709	REC_START	n/a	n/a	n/a	n/a	-999	19	[0, 0, 0]	n/a	catFR1	0	R1243T
2306.876	0.518	2313016	REC_WORD	4.307	n/a	WINE	Beverages	7	19	[0, 0, 0]	n/a	catFR1	0	R1243T
2307.394	12.988	2313534	REC_WORD	4.825	n/a	BEER	Beverages	8	19	[0, 0, 0]	n/a	catFR1	0	R1243T
2320.382	12.197	2326521	REC_WORD	17.813	n/a	HARDY	n/a	-999	19	[0, 0, 0]	n/a	catFR1	0	R1243T
2332.579	8.912	2338717	REC_END	n/a	n/a	n/a	n/a	-999	19	[0, 0, 0]	n/a	catFR1	0	R1243T
2341.491	0.5	2347629	TRIAL	n/a	n/a	n/a	n/a	-999	20	[0, 0, 0]	n/a	catFR1	0	R1243T
2341.991	10.0	2348129	COUNTDOWN_START	n/a	n/a	n/a	n/a	-999	20	[0, 0, 0]	n/a	catFR1	0	R1243T
2352.419	0.008	2358556	COUNTDOWN_END	n/a	n/a	n/a	n/a	-999	20	[0, 0, 0]	n/a	catFR1	0	R1243T
2352.427	1.6	2358564	ORIENT	n/a	n/a	n/a	n/a	-999	20	[0, 0, 0]	n/a	catFR1	0	R1243T
2354.045	1.867	2360182	ORIENT_OFF	n/a	n/a	n/a	n/a	-999	20	[0, 0, 0]	n/a	catFR1	0	R1243T
2355.912	1.6	2362049	WORD	n/a	wordpools/wordpool_categorized_EN.txt	STAPLER	OfficeSupplies	1	20	[0, 0, 0]	n/a	catFR1	0	R1243T
2357.529	1.016	2363666	WORD_OFF	n/a	n/a	STAPLER	n/a	1	20	[0, 0, 0]	n/a	catFR1	0	R1243T
2358.545	1.6	2364682	WORD	n/a	wordpools/wordpool_categorized_EN.txt	PEN	OfficeSupplies	2	20	[0, 0, 0]	n/a	catFR1	0	R1243T
2360.161	0.967	2366298	WORD_OFF	n/a	n/a	PEN	n/a	2	20	[0, 0, 0]	n/a	catFR1	0	R1243T
2361.128	1.6	2367265	WORD	n/a	wordpools/wordpool_categorized_EN.txt	GNAT	Insects	3	20	[0, 0, 0]	n/a	catFR1	0	R1243T
2362.746	0.867	2368883	WORD_OFF	n/a	n/a	GNAT	n/a	3	20	[0, 0, 0]	n/a	catFR1	0	R1243T
2363.613	1.6	2369750	WORD	n/a	wordpools/wordpool_categorized_EN.txt	MOTH	Insects	4	20	[0, 0, 0]	n/a	catFR1	0	R1243T
2365.229	0.933	2371365	WORD_OFF	n/a	n/a	MOTH	n/a	4	20	[0, 0, 0]	n/a	catFR1	0	R1243T
2366.162	1.6	2372298	WORD	n/a	wordpools/wordpool_categorized_EN.txt	DRILL	Tools	5	20	[0, 0, 0]	n/a	catFR1	0	R1243T
2367.78	0.867	2373916	WORD_OFF	n/a	n/a	DRILL	n/a	5	20	[0, 0, 0]	n/a	catFR1	0	R1243T
2368.647	1.6	2374783	WORD	n/a	wordpools/wordpool_categorized_EN.txt	SHOVEL	Tools	6	20	[0, 0, 0]	n/a	catFR1	0	R1243T
2370.263	0.967	2376399	WORD_OFF	n/a	n/a	SHOVEL	n/a	6	20	[0, 0, 0]	n/a	catFR1	0	R1243T
2371.23	1.6	2377366	WORD	n/a	wordpools/wordpool_categorized_EN.txt	NOTEBOOK	OfficeSupplies	7	20	[0, 0, 0]	n/a	catFR1	0	R1243T
2372.848	0.767	2378984	WORD_OFF	n/a	n/a	NOTEBOOK	n/a	7	20	[0, 0, 0]	n/a	catFR1	0	R1243T
2373.615	1.6	2379751	WORD	n/a	wordpools/wordpool_categorized_EN.txt	ERASER	OfficeSupplies	8	20	[0, 0, 0]	n/a	catFR1	0	R1243T
2375.231	0.801	2381367	WORD_OFF	n/a	n/a	ERASER	n/a	8	20	[0, 0, 0]	n/a	catFR1	0	R1243T
2376.032	1.6	2382168	WORD	n/a	wordpools/wordpool_categorized_EN.txt	FLY	Insects	9	20	[0, 0, 0]	n/a	catFR1	0	R1243T
2377.649	0.799	2383785	WORD_OFF	n/a	n/a	FLY	n/a	9	20	[0, 0, 0]	n/a	catFR1	0	R1243T
2378.448	1.6	2384584	WORD	n/a	wordpools/wordpool_categorized_EN.txt	BUTTERFLY	Insects	10	20	[0, 0, 0]	n/a	catFR1	0	R1243T
2380.049	0.817	2386185	WORD_OFF	n/a	n/a	BUTTERFLY	n/a	10	20	[0, 0, 0]	n/a	catFR1	0	R1243T
2380.866	1.6	2387001	WORD	n/a	wordpools/wordpool_categorized_EN.txt	SAW	Tools	11	20	[0, 0, 0]	n/a	catFR1	0	R1243T
2382.482	0.867	2388617	WORD_OFF	n/a	n/a	SAW	n/a	11	20	[0, 0, 0]	n/a	catFR1	0	R1243T
2383.349	1.6	2389484	WORD	n/a	wordpools/wordpool_categorized_EN.txt	WRENCH	Tools	12	20	[0, 0, 0]	n/a	catFR1	0	R1243T
2384.967	0.0	2391102	ENCODING_END	n/a	n/a	n/a	n/a	-999	20	[0, 0, 0]	n/a	catFR1	0	R1243T
2384.967	0.103	2391102	WORD_OFF	n/a	n/a	WRENCH	n/a	12	20	[0, 0, 0]	n/a	catFR1	0	R1243T
2385.07	0.001	2391205	DISTRACT_START	n/a	n/a	n/a	n/a	-999	20	[0, 0, 0]	n/a	catFR1	0	R1243T
2385.071	0.013	2391206	START	n/a	n/a	n/a	n/a	-999	20	[-999, -999, -999]	n/a	catFR1	0	R1243T
2385.084	9.05	2391219	PROB	9.028	n/a	n/a	n/a	-999	20	[8, 4, 6]	18.0	catFR1	0	R1243T
2394.134	6.486	2400269	PROB	6.451	n/a	n/a	n/a	-999	20	[3, 6, 7]	16.0	catFR1	0	R1243T
2400.62	8.06	2406754	PROB	8.06	n/a	n/a	n/a	-999	20	[5, 2, 8]	15.0	catFR1	0	R1243T
2408.68	0.008	2414814	STOP	n/a	n/a	n/a	n/a	-999	20	[-999, -999, -999]	n/a	catFR1	0	R1243T
2408.688	0.532	2414822	DISTRACT_END	n/a	n/a	n/a	n/a	-999	20	[0, 0, 0]	n/a	catFR1	0	R1243T
2409.22	0.519	2415354	RETRIEVAL_ORIENT	n/a	n/a	n/a	n/a	-999	20	[0, 0, 0]	n/a	catFR1	0	R1243T
2409.739	10.205	2415873	REC_START	n/a	n/a	n/a	n/a	-999	20	[0, 0, 0]	n/a	catFR1	0	R1243T
2419.944	2.915	2426077	REC_WORD	10.205	n/a	RANCH	n/a	-999	20	[0, 0, 0]	n/a	catFR1	0	R1243T
2422.859	16.891	2428992	REC_WORD	13.12	n/a	SHOVEL	Tools	6	20	[0, 0, 0]	n/a	catFR1	0	R1243T
2439.75	5.527	2445882	REC_END	n/a	n/a	n/a	n/a	-999	20	[0, 0, 0]	n/a	catFR1	0	R1243T
2445.277	0.5	2451409	TRIAL	n/a	n/a	n/a	n/a	-999	21	[0, 0, 0]	n/a	catFR1	0	R1243T
2445.777	10.0	2451908	COUNTDOWN_START	n/a	n/a	n/a	n/a	-999	21	[0, 0, 0]	n/a	catFR1	0	R1243T
2456.205	0.007	2462336	COUNTDOWN_END	n/a	n/a	n/a	n/a	-999	21	[0, 0, 0]	n/a	catFR1	0	R1243T
2456.212	1.6	2462343	ORIENT	n/a	n/a	n/a	n/a	-999	21	[0, 0, 0]	n/a	catFR1	0	R1243T
2457.813	1.851	2463944	ORIENT_OFF	n/a	n/a	n/a	n/a	-999	21	[0, 0, 0]	n/a	catFR1	0	R1243T
2459.664	1.6	2465795	WORD	n/a	wordpools/wordpool_categorized_EN.txt	CABBAGE	Vegetables	1	21	[0, 0, 0]	n/a	catFR1	0	R1243T
2461.28	0.85	2467411	WORD_OFF	n/a	n/a	CABBAGE	n/a	1	21	[0, 0, 0]	n/a	catFR1	0	R1243T
2462.13	1.6	2468260	WORD	n/a	wordpools/wordpool_categorized_EN.txt	BROCCOLI	Vegetables	2	21	[0, 0, 0]	n/a	catFR1	0	R1243T
2463.748	0.783	2469878	WORD_OFF	n/a	n/a	BROCCOLI	n/a	2	21	[0, 0, 0]	n/a	catFR1	0	R1243T
2464.531	1.6	2470661	WORD	n/a	wordpools/wordpool_categorized_EN.txt	RUM	Beverages	3	21	[0, 0, 0]	n/a	catFR1	0	R1243T
2466.147	0.901	2472277	WORD_OFF	n/a	n/a	RUM	n/a	3	21	[0, 0, 0]	n/a	catFR1	0	R1243T
2467.048	1.6	2473178	WORD	n/a	wordpools/wordpool_categorized_EN.txt	COFFEE	Beverages	4	21	[0, 0, 0]	n/a	catFR1	0	R1243T
2468.665	0.816	2474795	WORD_OFF	n/a	n/a	COFFEE	n/a	4	21	[0, 0, 0]	n/a	catFR1	0	R1243T
2469.481	1.6	2475611	WORD	n/a	wordpools/wordpool_categorized_EN.txt	PANDA	Zoo	5	21	[0, 0, 0]	n/a	catFR1	0	R1243T
2471.099	0.934	2477229	WORD_OFF	n/a	n/a	PANDA	n/a	5	21	[0, 0, 0]	n/a	catFR1	0	R1243T
2472.033	1.6	2478163	WORD	n/a	wordpools/wordpool_categorized_EN.txt	GIRAFFE	Zoo	6	21	[0, 0, 0]	n/a	catFR1	0	R1243T
2473.65	0.832	2479780	WORD_OFF	n/a	n/a	GIRAFFE	n/a	6	21	[0, 0, 0]	n/a	catFR1	0	R1243T
2474.482	1.6	2480612	WORD	n/a	wordpools/wordpool_categorized_EN.txt	COLA	Beverages	7	21	[0, 0, 0]	n/a	catFR1	0	R1243T
2476.1	0.817	2482230	WORD_OFF	n/a	n/a	COLA	n/a	7	21	[0, 0, 0]	n/a	catFR1	0	R1243T
2476.917	1.6	2483047	WORD	n/a	wordpools/wordpool_categorized_EN.txt	WATER	Beverages	8	21	[0, 0, 0]	n/a	catFR1	0	R1243T
2478.534	0.866	2484663	WORD_OFF	n/a	n/a	WATER	n/a	8	21	[0, 0, 0]	n/a	catFR1	0	R1243T
2479.4	1.6	2485529	WORD	n/a	wordpools/wordpool_categorized_EN.txt	PEAS	Vegetables	9	21	[0, 0, 0]	n/a	catFR1	0	R1243T
2481.018	0.867	2487147	WORD_OFF	n/a	n/a	PEAS	n/a	9	21	[0, 0, 0]	n/a	catFR1	0	R1243T
2481.885	1.6	2488014	WORD	n/a	wordpools/wordpool_categorized_EN.txt	LETTUCE	Vegetables	10	21	[0, 0, 0]	n/a	catFR1	0	R1243T
2483.5	0.817	2489629	WORD_OFF	n/a	n/a	LETTUCE	n/a	10	21	[0, 0, 0]	n/a	catFR1	0	R1243T
2484.317	1.6	2490446	WORD	n/a	wordpools/wordpool_categorized_EN.txt	LION	Zoo	11	21	[0, 0, 0]	n/a	catFR1	0	R1243T
2485.935	0.9	2492064	WORD_OFF	n/a	n/a	LION	n/a	11	21	[0, 0, 0]	n/a	catFR1	0	R1243T
2486.835	1.6	2492964	WORD	n/a	wordpools/wordpool_categorized_EN.txt	CHIMPANZEE	Zoo	12	21	[0, 0, 0]	n/a	catFR1	0	R1243T
2488.451	0.001	2494580	WORD_OFF	n/a	n/a	CHIMPANZEE	n/a	12	21	[0, 0, 0]	n/a	catFR1	0	R1243T
2488.452	0.134	2494581	ENCODING_END	n/a	n/a	n/a	n/a	-999	21	[0, 0, 0]	n/a	catFR1	0	R1243T
2488.586	0.0	2494715	DISTRACT_START	n/a	n/a	n/a	n/a	-999	21	[0, 0, 0]	n/a	catFR1	0	R1243T
2488.586	0.016	2494715	START	n/a	n/a	n/a	n/a	-999	21	[-999, -999, -999]	n/a	catFR1	0	R1243T
2488.602	13.003	2494731	PROB	12.966	n/a	n/a	n/a	-999	21	[8, 8, 9]	25.0	catFR1	0	R1243T
2501.605	8.115	2507733	PROB	8.115	n/a	n/a	n/a	-999	21	[5, 9, 4]	18.0	catFR1	0	R1243T
2509.72	0.02	2515848	STOP	n/a	n/a	n/a	n/a	-999	21	[-999, -999, -999]	n/a	catFR1	0	R1243T
2509.74	0.682	2515868	DISTRACT_END	n/a	n/a	n/a	n/a	-999	21	[0, 0, 0]	n/a	catFR1	0	R1243T
2510.422	0.518	2516550	RETRIEVAL_ORIENT	n/a	n/a	n/a	n/a	-999	21	[0, 0, 0]	n/a	catFR1	0	R1243T
2510.94	6.396	2517067	REC_START	n/a	n/a	n/a	n/a	-999	21	[0, 0, 0]	n/a	catFR1	0	R1243T
2517.336	1.56	2523463	REC_WORD	6.396	n/a	COFFEE	Beverages	4	21	[0, 0, 0]	n/a	catFR1	0	R1243T
2518.896	3.096	2525023	REC_WORD	7.956	n/a	RUM	Beverages	3	21	[0, 0, 0]	n/a	catFR1	0	R1243T
2521.992	18.958	2528119	REC_WORD	11.052	n/a	CHIMPANZEE	Zoo	12	21	[0, 0, 0]	n/a	catFR1	0	R1243T
2540.95	10.981	2547076	REC_END	n/a	n/a	n/a	n/a	-999	21	[0, 0, 0]	n/a	catFR1	0	R1243T
2551.931	0.5	2558056	TRIAL	n/a	n/a	n/a	n/a	-999	22	[0, 0, 0]	n/a	catFR1	0	R1243T
2552.431	10.0	2558556	COUNTDOWN_START	n/a	n/a	n/a	n/a	-999	22	[0, 0, 0]	n/a	catFR1	0	R1243T
2562.859	0.007	2568983	COUNTDOWN_END	n/a	n/a	n/a	n/a	-999	22	[0, 0, 0]	n/a	catFR1	0	R1243T
2562.866	1.6	2568990	ORIENT	n/a	n/a	n/a	n/a	-999	22	[0, 0, 0]	n/a	catFR1	0	R1243T
2564.482	1.883	2570606	ORIENT_OFF	n/a	n/a	n/a	n/a	-999	22	[0, 0, 0]	n/a	catFR1	0	R1243T
2566.365	1.6	2572489	WORD	n/a	wordpools/wordpool_categorized_EN.txt	DRESS	Clothing	1	22	[0, 0, 0]	n/a	catFR1	0	R1243T
2567.983	0.984	2574107	WORD_OFF	n/a	n/a	DRESS	n/a	1	22	[0, 0, 0]	n/a	catFR1	0	R1243T
2568.967	1.6	2575091	WORD	n/a	wordpools/wordpool_categorized_EN.txt	SKIRT	Clothing	2	22	[0, 0, 0]	n/a	catFR1	0	R1243T
2570.584	0.816	2576708	WORD_OFF	n/a	n/a	SKIRT	n/a	2	22	[0, 0, 0]	n/a	catFR1	0	R1243T
2571.4	1.6	2577524	WORD	n/a	wordpools/wordpool_categorized_EN.txt	WINDOW	Building	3	22	[0, 0, 0]	n/a	catFR1	0	R1243T
2573.018	0.867	2579142	WORD_OFF	n/a	n/a	WINDOW	n/a	3	22	[0, 0, 0]	n/a	catFR1	0	R1243T
2573.885	1.6	2580009	WORD	n/a	wordpools/wordpool_categorized_EN.txt	HALLWAY	Building	4	22	[0, 0, 0]	n/a	catFR1	0	R1243T
2575.501	0.966	2581625	WORD_OFF	n/a	n/a	HALLWAY	n/a	4	22	[0, 0, 0]	n/a	catFR1	0	R1243T
2576.467	1.6	2582590	WORD	n/a	wordpools/wordpool_categorized_EN.txt	BIKE	Vehicles	5	22	[0, 0, 0]	n/a	catFR1	0	R1243T
2578.068	0.867	2584191	WORD_OFF	n/a	n/a	BIKE	n/a	5	22	[0, 0, 0]	n/a	catFR1	0	R1243T
2578.935	1.6	2585058	WORD	n/a	wordpools/wordpool_categorized_EN.txt	MOTORCYCLE	Vehicles	6	22	[0, 0, 0]	n/a	catFR1	0	R1243T
2580.552	0.984	2586675	WORD_OFF	n/a	n/a	MOTORCYCLE	n/a	6	22	[0, 0, 0]	n/a	catFR1	0	R1243T
2581.536	1.6	2587659	WORD	n/a	wordpools/wordpool_categorized_EN.txt	JEANS	Clothing	7	22	[0, 0, 0]	n/a	catFR1	0	R1243T
2583.152	1.017	2589275	WORD_OFF	n/a	n/a	JEANS	n/a	7	22	[0, 0, 0]	n/a	catFR1	0	R1243T
2584.169	1.6	2590292	WORD	n/a	wordpools/wordpool_categorized_EN.txt	SHIRT	Clothing	8	22	[0, 0, 0]	n/a	catFR1	0	R1243T
2585.787	0.85	2591910	WORD_OFF	n/a	n/a	SHIRT	n/a	8	22	[0, 0, 0]	n/a	catFR1	0	R1243T
2586.637	1.6	2592760	WORD	n/a	wordpools/wordpool_categorized_EN.txt	STAIRS	Building	9	22	[0, 0, 0]	n/a	catFR1	0	R1243T
2588.253	0.983	2594376	WORD_OFF	n/a	n/a	STAIRS	n/a	9	22	[0, 0, 0]	n/a	catFR1	0	R1243T
2589.236	1.6	2595359	WORD	n/a	wordpools/wordpool_categorized_EN.txt	CEILING	Building	10	22	[0, 0, 0]	n/a	catFR1	0	R1243T
2590.854	0.917	2596977	WORD_OFF	n/a	n/a	CEILING	n/a	10	22	[0, 0, 0]	n/a	catFR1	0	R1243T
2591.771	1.6	2597894	WORD	n/a	wordpools/wordpool_categorized_EN.txt	MOPED	Vehicles	11	22	[0, 0, 0]	n/a	catFR1	0	R1243T
2593.387	0.867	2599509	WORD_OFF	n/a	n/a	MOPED	n/a	11	22	[0, 0, 0]	n/a	catFR1	0	R1243T
2594.254	1.6	2600376	WORD	n/a	wordpools/wordpool_categorized_EN.txt	PLANE	Vehicles	12	22	[0, 0, 0]	n/a	catFR1	0	R1243T
2595.872	0.0	2601994	ENCODING_END	n/a	n/a	n/a	n/a	-999	22	[0, 0, 0]	n/a	catFR1	0	R1243T
2595.872	0.104	2601994	WORD_OFF	n/a	n/a	PLANE	n/a	12	22	[0, 0, 0]	n/a	catFR1	0	R1243T
2595.976	0.0	2602098	DISTRACT_START	n/a	n/a	n/a	n/a	-999	22	[0, 0, 0]	n/a	catFR1	0	R1243T
2595.976	0.012	2602098	START	n/a	n/a	n/a	n/a	-999	22	[-999, -999, -999]	n/a	catFR1	0	R1243T
2595.988	6.568	2602110	PROB	6.541	n/a	n/a	n/a	-999	22	[3, 5, 7]	15.0	catFR1	0	R1243T
2602.556	5.101	2608678	PROB	5.068	n/a	n/a	n/a	-999	22	[5, 4, 6]	15.0	catFR1	0	R1243T
2607.657	7.318	2613779	PROB	7.28	n/a	n/a	n/a	-999	22	[7, 3, 9]	19.0	catFR1	0	R1243T
2614.975	6.738	2621096	PROB	6.738	n/a	n/a	n/a	-999	22	[1, 6, 7]	14.0	catFR1	0	R1243T
2621.713	0.014	2627834	STOP	n/a	n/a	n/a	n/a	-999	22	[-999, -999, -999]	n/a	catFR1	0	R1243T
2621.727	0.665	2627848	DISTRACT_END	n/a	n/a	n/a	n/a	-999	22	[0, 0, 0]	n/a	catFR1	0	R1243T
2622.392	0.519	2628513	RETRIEVAL_ORIENT	n/a	n/a	n/a	n/a	-999	22	[0, 0, 0]	n/a	catFR1	0	R1243T
2622.911	3.023	2629032	REC_START	n/a	n/a	n/a	n/a	-999	22	[0, 0, 0]	n/a	catFR1	0	R1243T
2625.934	3.237	2632054	REC_WORD	3.023	n/a	PLANE	Vehicles	12	22	[0, 0, 0]	n/a	catFR1	0	R1243T
2629.171	2.143	2635291	REC_WORD	6.26	n/a	BIKE	Vehicles	5	22	[0, 0, 0]	n/a	catFR1	0	R1243T
2631.314	16.377	2637434	REC_WORD	8.403	n/a	MOTORCYCLE	Vehicles	6	22	[0, 0, 0]	n/a	catFR1	0	R1243T
2647.691	5.23	2653810	REC_WORD	24.78	n/a	COLA	n/a	-999	22	[0, 0, 0]	n/a	catFR1	0	R1243T
2652.921	6.662	2659040	REC_END	n/a	n/a	n/a	n/a	-999	22	[0, 0, 0]	n/a	catFR1	0	R1243T
2659.583	0.5	2665701	TRIAL	n/a	n/a	n/a	n/a	-999	23	[0, 0, 0]	n/a	catFR1	0	R1243T
2660.083	10.0	2666201	COUNTDOWN_START	n/a	n/a	n/a	n/a	-999	23	[0, 0, 0]	n/a	catFR1	0	R1243T
2670.511	0.008	2676629	COUNTDOWN_END	n/a	n/a	n/a	n/a	-999	23	[0, 0, 0]	n/a	catFR1	0	R1243T
2670.519	1.6	2676637	ORIENT	n/a	n/a	n/a	n/a	-999	23	[0, 0, 0]	n/a	catFR1	0	R1243T
2672.135	1.968	2678253	ORIENT_OFF	n/a	n/a	n/a	n/a	-999	23	[0, 0, 0]	n/a	catFR1	0	R1243T
2674.103	1.6	2680221	WORD	n/a	wordpools/wordpool_categorized_EN.txt	PAPER	OfficeSupplies	1	23	[0, 0, 0]	n/a	catFR1	0	R1243T
2675.72	1.0	2681837	WORD_OFF	n/a	n/a	PAPER	n/a	1	23	[0, 0, 0]	n/a	catFR1	0	R1243T
2676.72	1.6	2682837	WORD	n/a	wordpools/wordpool_categorized_EN.txt	BINDER	OfficeSupplies	2	23	[0, 0, 0]	n/a	catFR1	0	R1243T
2678.336	0.768	2684453	WORD_OFF	n/a	n/a	BINDER	n/a	2	23	[0, 0, 0]	n/a	catFR1	0	R1243T
2679.104	1.6	2685221	WORD	n/a	wordpools/wordpool_categorized_EN.txt	DAISY	Flowers	3	23	[0, 0, 0]	n/a	catFR1	0	R1243T
2680.721	0.85	2686838	WORD_OFF	n/a	n/a	DAISY	n/a	3	23	[0, 0, 0]	n/a	catFR1	0	R1243T
2681.571	1.6	2687688	WORD	n/a	wordpools/wordpool_categorized_EN.txt	SUNFLOWER	Flowers	4	23	[0, 0, 0]	n/a	catFR1	0	R1243T
2683.187	0.967	2689304	WORD_OFF	n/a	n/a	SUNFLOWER	n/a	4	23	[0, 0, 0]	n/a	catFR1	0	R1243T
2684.154	1.6	2690271	WORD	n/a	wordpools/wordpool_categorized_EN.txt	EYE	BodyParts	5	23	[0, 0, 0]	n/a	catFR1	0	R1243T
2685.771	0.834	2691888	WORD_OFF	n/a	n/a	EYE	n/a	5	23	[0, 0, 0]	n/a	catFR1	0	R1243T
2686.605	1.6	2692722	WORD	n/a	wordpools/wordpool_categorized_EN.txt	HEAD	BodyParts	6	23	[0, 0, 0]	n/a	catFR1	0	R1243T
2688.221	0.818	2694338	WORD_OFF	n/a	n/a	HEAD	n/a	6	23	[0, 0, 0]	n/a	catFR1	0	R1243T
2689.039	1.6	2695156	WORD	n/a	wordpools/wordpool_categorized_EN.txt	RULER	OfficeSupplies	7	23	[0, 0, 0]	n/a	catFR1	0	R1243T
2690.656	0.867	2696773	WORD_OFF	n/a	n/a	RULER	n/a	7	23	[0, 0, 0]	n/a	catFR1	0	R1243T
2691.523	1.6	2697639	WORD	n/a	wordpools/wordpool_categorized_EN.txt	TAPE	OfficeSupplies	8	23	[0, 0, 0]	n/a	catFR1	0	R1243T
2693.139	0.851	2699255	WORD_OFF	n/a	n/a	TAPE	n/a	8	23	[0, 0, 0]	n/a	catFR1	0	R1243T
2693.99	1.6	2700106	WORD	n/a	wordpools/wordpool_categorized_EN.txt	DAFFODIL	Flowers	9	23	[0, 0, 0]	n/a	catFR1	0	R1243T
2695.607	0.983	2701723	WORD_OFF	n/a	n/a	DAFFODIL	n/a	9	23	[0, 0, 0]	n/a	catFR1	0	R1243T
2696.59	1.6	2702706	WORD	n/a	wordpools/wordpool_categorized_EN.txt	ROSE	Flowers	10	23	[0, 0, 0]	n/a	catFR1	0	R1243T
2698.206	1.017	2704322	WORD_OFF	n/a	n/a	ROSE	n/a	10	23	[0, 0, 0]	n/a	catFR1	0	R1243T
2699.223	1.6	2705339	WORD	n/a	wordpools/wordpool_categorized_EN.txt	EAR	BodyParts	11	23	[0, 0, 0]	n/a	catFR1	0	R1243T
2700.841	0.967	2706957	WORD_OFF	n/a	n/a	EAR	n/a	11	23	[0, 0, 0]	n/a	catFR1	0	R1243T
2701.808	1.6	2707924	WORD	n/a	wordpools/wordpool_categorized_EN.txt	ELBOW	BodyParts	12	23	[0, 0, 0]	n/a	catFR1	0	R1243T
2703.424	0.0	2709540	WORD_OFF	n/a	n/a	ELBOW	n/a	12	23	[0, 0, 0]	n/a	catFR1	0	R1243T
2703.424	0.105	2709540	ENCODING_END	n/a	n/a	n/a	n/a	-999	23	[0, 0, 0]	n/a	catFR1	0	R1243T
2703.529	0.0	2709645	DISTRACT_START	n/a	n/a	n/a	n/a	-999	23	[0, 0, 0]	n/a	catFR1	0	R1243T
2703.529	0.012	2709645	START	n/a	n/a	n/a	n/a	-999	23	[-999, -999, -999]	n/a	catFR1	0	R1243T
2703.541	7.617	2709657	PROB	7.595	n/a	n/a	n/a	-999	23	[9, 4, 3]	16.0	catFR1	0	R1243T
2711.158	6.235	2717273	PROB	6.2	n/a	n/a	n/a	-999	23	[9, 2, 8]	19.0	catFR1	0	R1243T
2717.393	6.384	2723508	PROB	6.384	n/a	n/a	n/a	-999	23	[2, 5, 8]	15.0	catFR1	0	R1243T
2723.777	0.018	2729891	STOP	n/a	n/a	n/a	n/a	-999	23	[-999, -999, -999]	n/a	catFR1	0	R1243T
2723.795	0.717	2729909	DISTRACT_END	n/a	n/a	n/a	n/a	-999	23	[0, 0, 0]	n/a	catFR1	0	R1243T
2724.512	0.517	2730626	RETRIEVAL_ORIENT	n/a	n/a	n/a	n/a	-999	23	[0, 0, 0]	n/a	catFR1	0	R1243T
2725.029	17.211	2731143	REC_START	n/a	n/a	n/a	n/a	-999	23	[0, 0, 0]	n/a	catFR1	0	R1243T
2742.24	8.787	2748353	REC_WORD	17.211	n/a	PAPER	OfficeSupplies	1	23	[0, 0, 0]	n/a	catFR1	0	R1243T
2751.027	4.013	2757140	REC_WORD_VV	25.998	n/a	<>	n/a	-999	23	[0, 0, 0]	n/a	catFR1	0	R1243T
2755.04	5.411	2761153	REC_END	n/a	n/a	n/a	n/a	-999	23	[0, 0, 0]	n/a	catFR1	0	R1243T
2760.451	0.5	2766563	TRIAL	n/a	n/a	n/a	n/a	-999	24	[0, 0, 0]	n/a	catFR1	0	R1243T
2760.951	10.0	2767063	COUNTDOWN_START	n/a	n/a	n/a	n/a	-999	24	[0, 0, 0]	n/a	catFR1	0	R1243T
2771.379	0.007	2777491	COUNTDOWN_END	n/a	n/a	n/a	n/a	-999	24	[0, 0, 0]	n/a	catFR1	0	R1243T
2771.386	1.6	2777498	ORIENT	n/a	n/a	n/a	n/a	-999	24	[0, 0, 0]	n/a	catFR1	0	R1243T
2773.004	2.084	2779115	ORIENT_OFF	n/a	n/a	n/a	n/a	-999	24	[0, 0, 0]	n/a	catFR1	0	R1243T
2775.088	1.6	2781199	WORD	n/a	wordpools/wordpool_categorized_EN.txt	SODA	Beverages	1	24	[0, 0, 0]	n/a	catFR1	0	R1243T
2776.705	0.883	2782816	WORD_OFF	n/a	n/a	SODA	n/a	1	24	[0, 0, 0]	n/a	catFR1	0	R1243T
2777.588	1.6	2783699	WORD	n/a	wordpools/wordpool_categorized_EN.txt	JUICE	Beverages	2	24	[0, 0, 0]	n/a	catFR1	0	R1243T
