onset	duration	sample	trial_type	response_time	stim_file	item_name	category	serialpos	list	test	answer	experiment	session	subject
0.0	0.866	43480	INSTRUCT_START	n/a	n/a	n/a	n/a	-999	-999	[0, 0, 0]	n/a	catFR1	0	R1441T
0.866	23.399	44332	INSTRUCT_END	n/a	n/a	n/a	n/a	-999	-999	[0, 0, 0]	n/a	catFR1	0	R1441T
24.265	10.0	67735	COUNTDOWN_START	n/a	n/a	n/a	n/a	-999	-999	[0, 0, 0]	n/a	catFR1	0	R1441T
34.615	0.0	78088	COUNTDOWN_END	n/a	n/a	n/a	n/a	-999	-999	[0, 0, 0]	n/a	catFR1	0	R1441T
34.615	2.168	78088	ENCODING_START	n/a	n/a	n/a	n/a	-999	-1	[0, 0, 0]	n/a	catFR1	0	R1441T
36.783	1.6	80254	WORD	n/a	n/a	BALL	Toys	1	-1	[0, 0, 0]	n/a	catFR1	0	R1441T
38.383	0.933	81860	WORD_OFF	n/a	n/a	BALL	Toys	1	-1	[0, 0, 0]	n/a	catFR1	0	R1441T
39.316	1.6	82783	WORD	n/a	n/a	BASKETBALL	Toys	2	-1	[0, 0, 0]	n/a	catFR1	0	R1441T
40.916	0.782	84389	WORD_OFF	n/a	n/a	BASKETBALL	Toys	2	-1	[0, 0, 0]	n/a	catFR1	0	R1441T
41.698	1.6	85172	WORD	n/a	n/a	RECLINER	Furniture	3	-1	[0, 0, 0]	n/a	catFR1	0	R1441T
43.298	0.801	86765	WORD_OFF	n/a	n/a	RECLINER	Furniture	3	-1	[0, 0, 0]	n/a	catFR1	0	R1441T
44.099	1.6	87575	WORD	n/a	n/a	DESK	Furniture	4	-1	[0, 0, 0]	n/a	catFR1	0	R1441T
45.699	0.948	89168	WORD_OFF	n/a	n/a	DESK	Furniture	4	-1	[0, 0, 0]	n/a	catFR1	0	R1441T
46.647	1.6	90118	WORD	n/a	n/a	WALL	Building	5	-1	[0, 0, 0]	n/a	catFR1	0	R1441T
48.249	0.915	91725	WORD_OFF	n/a	n/a	WALL	Building	5	-1	[0, 0, 0]	n/a	catFR1	0	R1441T
49.164	1.6	92633	WORD	n/a	n/a	DOOR	Building	6	-1	[0, 0, 0]	n/a	catFR1	0	R1441T
50.766	0.949	94239	WORD_OFF	n/a	n/a	DOOR	Building	6	-1	[0, 0, 0]	n/a	catFR1	0	R1441T
51.715	1.6	95190	WORD	n/a	n/a	CHAIR	Furniture	7	-1	[0, 0, 0]	n/a	catFR1	0	R1441T
53.316	0.783	96782	WORD_OFF	n/a	n/a	CHAIR	Furniture	7	-1	[0, 0, 0]	n/a	catFR1	0	R1441T
54.099	1.6	97565	WORD	n/a	n/a	CABINET	Furniture	8	-1	[0, 0, 0]	n/a	catFR1	0	R1441T
55.715	0.868	99185	WORD_OFF	n/a	n/a	CABINET	Furniture	8	-1	[0, 0, 0]	n/a	catFR1	0	R1441T
56.583	1.6	100052	WORD	n/a	n/a	HALLWAY	Building	9	-1	[0, 0, 0]	n/a	catFR1	0	R1441T
58.199	0.784	101672	WORD_OFF	n/a	n/a	HALLWAY	Building	9	-1	[0, 0, 0]	n/a	catFR1	0	R1441T
58.983	1.6	102455	WORD	n/a	n/a	CEILING	Building	10	-1	[0, 0, 0]	n/a	catFR1	0	R1441T
60.583	1.0	104048	WORD_OFF	n/a	n/a	CEILING	Building	10	-1	[0, 0, 0]	n/a	catFR1	0	R1441T
61.583	1.6	105054	WORD	n/a	n/a	DOLLHOUSE	Toys	11	-1	[0, 0, 0]	n/a	catFR1	0	R1441T
63.199	0.867	106674	WORD_OFF	n/a	n/a	DOLLHOUSE	Toys	11	-1	[0, 0, 0]	n/a	catFR1	0	R1441T
64.066	1.6	107541	WORD	n/a	n/a	BLOCKS	Toys	12	-1	[0, 0, 0]	n/a	catFR1	0	R1441T
65.683	0.0	109147	WORD_OFF	n/a	n/a	BLOCKS	Toys	12	-1	[0, 0, 0]	n/a	catFR1	0	R1441T
65.683	0.001	109151	PROB	11.048	n/a	n/a	n/a	-999	-1	[2, 8, 3]	13.0	catFR1	0	R1441T
65.684	0.0	109152	START	n/a	n/a	n/a	n/a	-999	-1	[-999, -999, -999]	n/a	catFR1	0	R1441T
65.684	0.0	109161	ENCODING_END	n/a	n/a	n/a	n/a	-999	-1	[0, 0, 0]	n/a	catFR1	0	R1441T
65.684	11.066	109161	DISTRACT_START	n/a	n/a	n/a	n/a	-999	-1	[0, 0, 0]	n/a	catFR1	0	R1441T
76.75	5.999	120218	PROB	5.983	n/a	n/a	n/a	-999	-1	[7, 3, 1]	11.0	catFR1	0	R1441T
82.749	14.466	126216	PROB	14.45	n/a	n/a	n/a	-999	-1	[4, 7, 5]	16.0	catFR1	0	R1441T
97.215	0.0	140682	DISTRACT_END	n/a	n/a	n/a	n/a	-999	-1	[0, 0, 0]	n/a	catFR1	0	R1441T
97.215	2.151	140682	STOP	n/a	n/a	n/a	n/a	-999	-1	[-999, -999, -999]	n/a	catFR1	0	R1441T
99.366	0.064	142827	REC_START	n/a	n/a	n/a	n/a	-999	-1	[0, 0, 0]	n/a	catFR1	0	R1441T
99.43	0.827	142896	REC_WORD	0.064	n/a	WALL	Building	5	-1	[0, 0, 0]	n/a	catFR1	0	R1441T
100.257	0.467	143723	REC_WORD	0.891	n/a	BALL	Toys	1	-1	[0, 0, 0]	n/a	catFR1	0	R1441T
100.724	0.997	144190	REC_WORD	1.358	n/a	CEILING	Building	10	-1	[0, 0, 0]	n/a	catFR1	0	R1441T
101.721	1.632	145187	REC_WORD	2.355	n/a	BASKETBALL	Toys	2	-1	[0, 0, 0]	n/a	catFR1	0	R1441T
103.353	0.652	146819	REC_WORD	3.987	n/a	DOOR	Building	6	-1	[0, 0, 0]	n/a	catFR1	0	R1441T
104.005	1.063	147471	REC_WORD	4.639	n/a	HALLWAY	Building	9	-1	[0, 0, 0]	n/a	catFR1	0	R1441T
105.068	1.418	148534	REC_WORD	5.702	n/a	RECLINER	Furniture	3	-1	[0, 0, 0]	n/a	catFR1	0	R1441T
106.486	23.103	149952	REC_WORD	7.12	n/a	CHAIR	Furniture	7	-1	[0, 0, 0]	n/a	catFR1	0	R1441T
129.589	10.177	173054	REC_END	n/a	n/a	n/a	n/a	-999	-1	[0, 0, 0]	n/a	catFR1	0	R1441T
139.766	10.0	183240	COUNTDOWN_START	n/a	n/a	n/a	n/a	-999	1	[0, 0, 0]	n/a	catFR1	0	R1441T
150.116	0.0	193579	COUNTDOWN_END	n/a	n/a	n/a	n/a	-999	1	[0, 0, 0]	n/a	catFR1	0	R1441T
150.116	2.317	193579	ENCODING_START	n/a	n/a	n/a	n/a	-999	1	[0, 0, 0]	n/a	catFR1	0	R1441T
152.433	1.6	195898	WORD	n/a	wordpools/wordpool_categorized_EN.txt	REFRIGERATOR	Appliances	1	1	[0, 0, 0]	n/a	catFR1	0	R1441T
154.049	0.933	197519	WORD_OFF	n/a	n/a	REFRIGERATOR	Appliances	1	1	[0, 0, 0]	n/a	catFR1	0	R1441T
154.982	1.6	198441	WORD	n/a	wordpools/wordpool_categorized_EN.txt	OVEN	Appliances	2	1	[0, 0, 0]	n/a	catFR1	0	R1441T
156.583	0.982	200048	WORD_OFF	n/a	n/a	OVEN	Appliances	2	1	[0, 0, 0]	n/a	catFR1	0	R1441T
157.565	1.6	201026	WORD	n/a	wordpools/wordpool_categorized_EN.txt	GRATER	KitchenTools	3	1	[0, 0, 0]	n/a	catFR1	0	R1441T
159.181	0.835	202647	WORD_OFF	n/a	n/a	GRATER	KitchenTools	3	1	[0, 0, 0]	n/a	catFR1	0	R1441T
160.016	1.6	203485	WORD	n/a	wordpools/wordpool_categorized_EN.txt	STRAINER	KitchenTools	4	1	[0, 0, 0]	n/a	catFR1	0	R1441T
161.632	0.983	205092	WORD_OFF	n/a	n/a	STRAINER	KitchenTools	4	1	[0, 0, 0]	n/a	catFR1	0	R1441T
162.615	1.6	206084	WORD	n/a	wordpools/wordpool_categorized_EN.txt	SKIRT	Clothing	5	1	[0, 0, 0]	n/a	catFR1	0	R1441T
164.216	0.932	207677	WORD_OFF	n/a	n/a	SKIRT	Clothing	5	1	[0, 0, 0]	n/a	catFR1	0	R1441T
165.148	1.6	208613	WORD	n/a	wordpools/wordpool_categorized_EN.txt	SHIRT	Clothing	6	1	[0, 0, 0]	n/a	catFR1	0	R1441T
166.749	0.9	210220	WORD_OFF	n/a	n/a	SHIRT	Clothing	6	1	[0, 0, 0]	n/a	catFR1	0	R1441T
167.649	1.6	211114	WORD	n/a	wordpools/wordpool_categorized_EN.txt	LADLE	KitchenTools	7	1	[0, 0, 0]	n/a	catFR1	0	R1441T
169.265	0.851	212734	WORD_OFF	n/a	n/a	LADLE	KitchenTools	7	1	[0, 0, 0]	n/a	catFR1	0	R1441T
170.116	1.6	213587	WORD	n/a	wordpools/wordpool_categorized_EN.txt	WHISK	KitchenTools	8	1	[0, 0, 0]	n/a	catFR1	0	R1441T
171.732	0.932	215193	WORD_OFF	n/a	n/a	WHISK	KitchenTools	8	1	[0, 0, 0]	n/a	catFR1	0	R1441T
172.664	1.6	216130	WORD	n/a	wordpools/wordpool_categorized_EN.txt	SHOES	Clothing	9	1	[0, 0, 0]	n/a	catFR1	0	R1441T
174.265	0.767	217722	WORD_OFF	n/a	n/a	SHOES	Clothing	9	1	[0, 0, 0]	n/a	catFR1	0	R1441T
175.032	1.6	218491	WORD	n/a	wordpools/wordpool_categorized_EN.txt	JEANS	Clothing	10	1	[0, 0, 0]	n/a	catFR1	0	R1441T
176.633	0.916	220098	WORD_OFF	n/a	n/a	JEANS	Clothing	10	1	[0, 0, 0]	n/a	catFR1	0	R1441T
177.549	1.6	221020	WORD	n/a	wordpools/wordpool_categorized_EN.txt	WASHER	Appliances	11	1	[0, 0, 0]	n/a	catFR1	0	R1441T
179.165	0.901	222626	WORD_OFF	n/a	n/a	WASHER	Appliances	11	1	[0, 0, 0]	n/a	catFR1	0	R1441T
180.066	1.6	223535	WORD	n/a	wordpools/wordpool_categorized_EN.txt	FREEZER	Appliances	12	1	[0, 0, 0]	n/a	catFR1	0	R1441T
181.666	0.001	225127	WORD_OFF	n/a	n/a	FREEZER	Appliances	12	1	[0, 0, 0]	n/a	catFR1	0	R1441T
181.667	0.001	225127	ENCODING_END	n/a	n/a	n/a	n/a	-999	1	[0, 0, 0]	n/a	catFR1	0	R1441T
181.668	0.0	225127	DISTRACT_START	n/a	n/a	n/a	n/a	-999	1	[0, 0, 0]	n/a	catFR1	0	R1441T
181.666	0.002	225128	PROB	5.733	n/a	n/a	n/a	-999	1	[7, 3, 7]	17.0	catFR1	0	R1441T
181.668	5.748	225130	START	n/a	n/a	n/a	n/a	-999	1	[-999, -999, -999]	n/a	catFR1	0	R1441T
187.416	7.817	230878	PROB	7.799	n/a	n/a	n/a	-999	1	[6, 5, 6]	17.0	catFR1	0	R1441T
195.233	6.582	238694	PROB	6.566	n/a	n/a	n/a	-999	1	[3, 3, 7]	13.0	catFR1	0	R1441T
201.815	0.0	245275	DISTRACT_END	n/a	n/a	n/a	n/a	-999	1	[0, 0, 0]	n/a	catFR1	0	R1441T
201.815	2.25	245276	STOP	n/a	n/a	n/a	n/a	-999	1	[-999, -999, -999]	n/a	catFR1	0	R1441T
204.065	0.0	247526	REC_WORD	0.0	n/a	REFRIGERATOR	Appliances	1	1	[0, 0, 0]	n/a	catFR1	0	R1441T
204.065	1.008	247532	REC_START	n/a	n/a	n/a	n/a	-999	1	[0, 0, 0]	n/a	catFR1	0	R1441T
205.073	1.003	248534	REC_WORD	1.008	n/a	GRATER	KitchenTools	3	1	[0, 0, 0]	n/a	catFR1	0	R1441T
206.076	0.844	249537	REC_WORD	2.011	n/a	OVEN	Appliances	2	1	[0, 0, 0]	n/a	catFR1	0	R1441T
206.92	1.276	250381	REC_WORD	2.855	n/a	WHISK	KitchenTools	8	1	[0, 0, 0]	n/a	catFR1	0	R1441T
208.196	0.846	251657	REC_WORD	4.131	n/a	SHIRT	Clothing	6	1	[0, 0, 0]	n/a	catFR1	0	R1441T
209.042	1.131	252503	REC_WORD	4.977	n/a	SKIRT	Clothing	5	1	[0, 0, 0]	n/a	catFR1	0	R1441T
210.173	0.735	253634	REC_WORD	6.108	n/a	JEANS	Clothing	10	1	[0, 0, 0]	n/a	catFR1	0	R1441T
210.908	23.339	254369	REC_WORD	6.843	n/a	SHOES	Clothing	9	1	[0, 0, 0]	n/a	catFR1	0	R1441T
234.247	1.069	277703	REC_END	n/a	n/a	n/a	n/a	-999	1	[0, 0, 0]	n/a	catFR1	0	R1441T
235.316	10.0	278779	COUNTDOWN_START	n/a	n/a	n/a	n/a	-999	2	[0, 0, 0]	n/a	catFR1	0	R1441T
245.666	0.0	289132	COUNTDOWN_END	n/a	n/a	n/a	n/a	-999	2	[0, 0, 0]	n/a	catFR1	0	R1441T
245.666	2.132	289132	ENCODING_START	n/a	n/a	n/a	n/a	-999	2	[0, 0, 0]	n/a	catFR1	0	R1441T
247.798	1.6	291256	WORD	n/a	wordpools/wordpool_categorized_EN.txt	SPIDER	Insects	1	2	[0, 0, 0]	n/a	catFR1	0	R1441T
249.399	0.8	292863	WORD_OFF	n/a	n/a	SPIDER	Insects	1	2	[0, 0, 0]	n/a	catFR1	0	R1441T
250.199	1.6	293659	WORD	n/a	wordpools/wordpool_categorized_EN.txt	CRICKET	Insects	2	2	[0, 0, 0]	n/a	catFR1	0	R1441T
251.799	0.783	295266	WORD_OFF	n/a	n/a	CRICKET	Insects	2	2	[0, 0, 0]	n/a	catFR1	0	R1441T
252.582	1.6	296048	WORD	n/a	wordpools/wordpool_categorized_EN.txt	RUM	Beverages	3	2	[0, 0, 0]	n/a	catFR1	0	R1441T
254.182	0.966	297641	WORD_OFF	n/a	n/a	RUM	Beverages	3	2	[0, 0, 0]	n/a	catFR1	0	R1441T
255.148	1.6	298605	WORD	n/a	wordpools/wordpool_categorized_EN.txt	SODA	Beverages	4	2	[0, 0, 0]	n/a	catFR1	0	R1441T
256.75	0.833	300212	WORD_OFF	n/a	n/a	SODA	Beverages	4	2	[0, 0, 0]	n/a	catFR1	0	R1441T
257.583	1.6	301050	WORD	n/a	wordpools/wordpool_categorized_EN.txt	TRAIN	Vehicles	5	2	[0, 0, 0]	n/a	catFR1	0	R1441T
259.183	0.8	302643	WORD_OFF	n/a	n/a	TRAIN	Vehicles	5	2	[0, 0, 0]	n/a	catFR1	0	R1441T
259.983	1.6	303439	WORD	n/a	wordpools/wordpool_categorized_EN.txt	MOTORCYCLE	Vehicles	6	2	[0, 0, 0]	n/a	catFR1	0	R1441T
261.598	0.801	305060	WORD_OFF	n/a	n/a	MOTORCYCLE	Vehicles	6	2	[0, 0, 0]	n/a	catFR1	0	R1441T
262.399	1.6	305857	WORD	n/a	wordpools/wordpool_categorized_EN.txt	BEER	Beverages	7	2	[0, 0, 0]	n/a	catFR1	0	R1441T
263.999	1.0	307463	WORD_OFF	n/a	n/a	BEER	Beverages	7	2	[0, 0, 0]	n/a	catFR1	0	R1441T
264.999	1.6	308455	WORD	n/a	wordpools/wordpool_categorized_EN.txt	LEMONADE	Beverages	8	2	[0, 0, 0]	n/a	catFR1	0	R1441T
266.615	0.833	310076	WORD_OFF	n/a	n/a	LEMONADE	Beverages	8	2	[0, 0, 0]	n/a	catFR1	0	R1441T
267.448	1.6	310914	WORD	n/a	wordpools/wordpool_categorized_EN.txt	BUS	Vehicles	9	2	[0, 0, 0]	n/a	catFR1	0	R1441T
269.049	0.8	312507	WORD_OFF	n/a	n/a	BUS	Vehicles	9	2	[0, 0, 0]	n/a	catFR1	0	R1441T
269.849	1.6	313304	WORD	n/a	wordpools/wordpool_categorized_EN.txt	BOAT	Vehicles	10	2	[0, 0, 0]	n/a	catFR1	0	R1441T
271.449	0.967	314910	WORD_OFF	n/a	n/a	BOAT	Vehicles	10	2	[0, 0, 0]	n/a	catFR1	0	R1441T
272.416	1.6	315874	WORD	n/a	wordpools/wordpool_categorized_EN.txt	ANT	Insects	11	2	[0, 0, 0]	n/a	catFR1	0	R1441T
274.033	0.782	317495	WORD_OFF	n/a	n/a	ANT	Insects	11	2	[0, 0, 0]	n/a	catFR1	0	R1441T
274.815	1.6	318278	WORD	n/a	wordpools/wordpool_categorized_EN.txt	FLY	Insects	12	2	[0, 0, 0]	n/a	catFR1	0	R1441T
276.416	0.002	319870	WORD_OFF	n/a	n/a	FLY	Insects	12	2	[0, 0, 0]	n/a	catFR1	0	R1441T
276.418	0.0	319870	ENCODING_END	n/a	n/a	n/a	n/a	-999	2	[0, 0, 0]	n/a	catFR1	0	R1441T
276.416	0.002	319873	PROB	8.998	n/a	n/a	n/a	-999	2	[5, 1, 4]	10.0	catFR1	0	R1441T
276.418	0.0	319875	START	n/a	n/a	n/a	n/a	-999	2	[-999, -999, -999]	n/a	catFR1	0	R1441T
276.418	9.016	319884	DISTRACT_START	n/a	n/a	n/a	n/a	-999	2	[0, 0, 0]	n/a	catFR1	0	R1441T
285.434	4.966	328891	PROB	4.948	n/a	n/a	n/a	-999	2	[2, 4, 2]	8.0	catFR1	0	R1441T
290.4	6.149	333857	PROB	6.132	n/a	n/a	n/a	-999	2	[2, 7, 2]	11.0	catFR1	0	R1441T
296.549	0.0	340004	DISTRACT_END	n/a	n/a	n/a	n/a	-999	2	[0, 0, 0]	n/a	catFR1	0	R1441T
296.549	2.149	340005	STOP	n/a	n/a	n/a	n/a	-999	2	[-999, -999, -999]	n/a	catFR1	0	R1441T
298.698	0.455	342163	REC_START	n/a	n/a	n/a	n/a	-999	2	[0, 0, 0]	n/a	catFR1	0	R1441T
299.153	0.71	342609	REC_WORD	0.455	n/a	BEER	Beverages	7	2	[0, 0, 0]	n/a	catFR1	0	R1441T
299.863	0.601	343319	REC_WORD	1.165	n/a	BUS	Vehicles	9	2	[0, 0, 0]	n/a	catFR1	0	R1441T
300.464	1.937	343920	REC_WORD	1.766	n/a	MOTORCYCLE	Vehicles	6	2	[0, 0, 0]	n/a	catFR1	0	R1441T
302.401	0.455	345857	REC_WORD	3.703	n/a	ANT	Insects	11	2	[0, 0, 0]	n/a	catFR1	0	R1441T
302.856	5.229	346312	REC_WORD	4.158	n/a	SPIDER	Insects	1	2	[0, 0, 0]	n/a	catFR1	0	R1441T
308.085	20.82	351541	REC_WORD	9.387	n/a	TRAIN	Vehicles	5	2	[0, 0, 0]	n/a	catFR1	0	R1441T
328.905	15.51	372362	REC_END	n/a	n/a	n/a	n/a	-999	2	[0, 0, 0]	n/a	catFR1	0	R1441T
344.415	10.0	387871	COUNTDOWN_START	n/a	n/a	n/a	n/a	-999	3	[0, 0, 0]	n/a	catFR1	0	R1441T
354.766	0.0	398224	COUNTDOWN_END	n/a	n/a	n/a	n/a	-999	3	[0, 0, 0]	n/a	catFR1	0	R1441T
354.766	2.332	398224	ENCODING_START	n/a	n/a	n/a	n/a	-999	3	[0, 0, 0]	n/a	catFR1	0	R1441T
357.098	1.6	400558	WORD	n/a	wordpools/wordpool_categorized_EN.txt	JEEP	Vehicles	1	3	[0, 0, 0]	n/a	catFR1	0	R1441T
358.715	1.0	402164	WORD_OFF	n/a	n/a	JEEP	Vehicles	1	3	[0, 0, 0]	n/a	catFR1	0	R1441T
359.715	1.6	403170	WORD	n/a	wordpools/wordpool_categorized_EN.txt	SCOOTER	Vehicles	2	3	[0, 0, 0]	n/a	catFR1	0	R1441T
361.316	0.817	404777	WORD_OFF	n/a	n/a	SCOOTER	Vehicles	2	3	[0, 0, 0]	n/a	catFR1	0	R1441T
362.133	1.6	405587	WORD	n/a	wordpools/wordpool_categorized_EN.txt	CALCULATOR	Electronics	3	3	[0, 0, 0]	n/a	catFR1	0	R1441T
363.749	0.851	407208	WORD_OFF	n/a	n/a	CALCULATOR	Electronics	3	3	[0, 0, 0]	n/a	catFR1	0	R1441T
364.6	1.6	408060	WORD	n/a	wordpools/wordpool_categorized_EN.txt	COMPUTER	Electronics	4	3	[0, 0, 0]	n/a	catFR1	0	R1441T
366.199	0.9	409653	WORD_OFF	n/a	n/a	COMPUTER	Electronics	4	3	[0, 0, 0]	n/a	catFR1	0	R1441T
367.099	1.6	410547	WORD	n/a	wordpools/wordpool_categorized_EN.txt	WINE	Beverages	5	3	[0, 0, 0]	n/a	catFR1	0	R1441T
368.715	0.783	412168	WORD_OFF	n/a	n/a	WINE	Beverages	5	3	[0, 0, 0]	n/a	catFR1	0	R1441T
369.498	1.6	412951	WORD	n/a	wordpools/wordpool_categorized_EN.txt	MILK	Beverages	6	3	[0, 0, 0]	n/a	catFR1	0	R1441T
371.099	0.867	414557	WORD_OFF	n/a	n/a	MILK	Beverages	6	3	[0, 0, 0]	n/a	catFR1	0	R1441T
371.966	1.6	415424	WORD	n/a	wordpools/wordpool_categorized_EN.txt	TELEVISION	Electronics	7	3	[0, 0, 0]	n/a	catFR1	0	R1441T
373.583	0.832	417044	WORD_OFF	n/a	n/a	TELEVISION	Electronics	7	3	[0, 0, 0]	n/a	catFR1	0	R1441T
374.415	1.6	417869	WORD	n/a	wordpools/wordpool_categorized_EN.txt	SPEAKER	Electronics	8	3	[0, 0, 0]	n/a	catFR1	0	R1441T
376.016	0.783	419475	WORD_OFF	n/a	n/a	SPEAKER	Electronics	8	3	[0, 0, 0]	n/a	catFR1	0	R1441T
376.799	1.6	420258	WORD	n/a	wordpools/wordpool_categorized_EN.txt	VAN	Vehicles	9	3	[0, 0, 0]	n/a	catFR1	0	R1441T
378.399	0.767	421851	WORD_OFF	n/a	n/a	VAN	Vehicles	9	3	[0, 0, 0]	n/a	catFR1	0	R1441T
379.166	1.6	422619	WORD	n/a	wordpools/wordpool_categorized_EN.txt	PLANE	Vehicles	10	3	[0, 0, 0]	n/a	catFR1	0	R1441T
380.765	0.851	424212	WORD_OFF	n/a	n/a	PLANE	Vehicles	10	3	[0, 0, 0]	n/a	catFR1	0	R1441T
381.616	1.6	425064	WORD	n/a	wordpools/wordpool_categorized_EN.txt	COFFEE	Beverages	11	3	[0, 0, 0]	n/a	catFR1	0	R1441T
383.233	0.983	426685	WORD_OFF	n/a	n/a	COFFEE	Beverages	11	3	[0, 0, 0]	n/a	catFR1	0	R1441T
384.216	1.6	427663	WORD	n/a	wordpools/wordpool_categorized_EN.txt	JUICE	Beverages	12	3	[0, 0, 0]	n/a	catFR1	0	R1441T
385.831	0.001	429284	WORD_OFF	n/a	n/a	JUICE	Beverages	12	3	[0, 0, 0]	n/a	catFR1	0	R1441T
385.832	0.0	429284	ENCODING_END	n/a	n/a	n/a	n/a	-999	3	[0, 0, 0]	n/a	catFR1	0	R1441T
385.832	0.0	429284	DISTRACT_START	n/a	n/a	n/a	n/a	-999	3	[0, 0, 0]	n/a	catFR1	0	R1441T
385.832	0.0	429284	START	n/a	n/a	n/a	n/a	-999	3	[-999, -999, -999]	n/a	catFR1	0	R1441T
385.832	5.367	429284	PROB	5.35	n/a	n/a	n/a	-999	3	[3, 4, 4]	11.0	catFR1	0	R1441T
391.199	5.367	434650	PROB	5.348	n/a	n/a	n/a	-999	3	[2, 8, 5]	15.0	catFR1	0	R1441T
396.566	11.867	440017	PROB	11.85	n/a	n/a	n/a	-999	3	[7, 8, 6]	21.0	catFR1	0	R1441T
408.433	0.0	451884	STOP	n/a	n/a	n/a	n/a	-999	3	[-999, -999, -999]	n/a	catFR1	0	R1441T
408.433	2.4	451890	DISTRACT_END	n/a	n/a	n/a	n/a	-999	3	[0, 0, 0]	n/a	catFR1	0	R1441T
410.833	1.04	454287	REC_START	n/a	n/a	n/a	n/a	-999	3	[0, 0, 0]	n/a	catFR1	0	R1441T
411.873	0.384	455323	REC_WORD	1.04	n/a	JEEP	Vehicles	1	3	[0, 0, 0]	n/a	catFR1	0	R1441T
412.257	0.791	455707	REC_WORD	1.424	n/a	SCOOTER	Vehicles	2	3	[0, 0, 0]	n/a	catFR1	0	R1441T
413.048	0.809	456498	REC_WORD	2.215	n/a	CALCULATOR	Electronics	3	3	[0, 0, 0]	n/a	catFR1	0	R1441T
413.857	0.772	457307	REC_WORD	3.024	n/a	VAN	Vehicles	9	3	[0, 0, 0]	n/a	catFR1	0	R1441T
414.629	3.659	458079	REC_WORD	3.796	n/a	JUICE	Beverages	12	3	[0, 0, 0]	n/a	catFR1	0	R1441T
418.288	22.761	461738	REC_WORD	7.455	n/a	MILK	Beverages	6	3	[0, 0, 0]	n/a	catFR1	0	R1441T
441.049	3.383	484500	REC_END	n/a	n/a	n/a	n/a	-999	3	[0, 0, 0]	n/a	catFR1	0	R1441T
444.432	10.0	487881	COUNTDOWN_START	n/a	n/a	n/a	n/a	-999	4	[0, 0, 0]	n/a	catFR1	0	R1441T
454.781	0.0	498235	COUNTDOWN_END	n/a	n/a	n/a	n/a	-999	4	[0, 0, 0]	n/a	catFR1	0	R1441T
454.781	1.918	498235	ENCODING_START	n/a	n/a	n/a	n/a	-999	4	[0, 0, 0]	n/a	catFR1	0	R1441T
456.699	1.6	500149	WORD	n/a	wordpools/wordpool_categorized_EN.txt	STOVE	Appliances	1	4	[0, 0, 0]	n/a	catFR1	0	R1441T
458.315	0.918	501769	WORD_OFF	n/a	n/a	STOVE	Appliances	1	4	[0, 0, 0]	n/a	catFR1	0	R1441T
459.233	1.6	502678	WORD	n/a	wordpools/wordpool_categorized_EN.txt	TOASTER	Appliances	2	4	[0, 0, 0]	n/a	catFR1	0	R1441T
460.849	0.817	504298	WORD_OFF	n/a	n/a	TOASTER	Appliances	2	4	[0, 0, 0]	n/a	catFR1	0	R1441T
461.666	1.6	505109	WORD	n/a	wordpools/wordpool_categorized_EN.txt	BLUEBIRD	Birds	3	4	[0, 0, 0]	n/a	catFR1	0	R1441T
463.281	1.002	506729	WORD_OFF	n/a	n/a	BLUEBIRD	Birds	3	4	[0, 0, 0]	n/a	catFR1	0	R1441T
464.283	1.6	507735	WORD	n/a	wordpools/wordpool_categorized_EN.txt	DUCK	Birds	4	4	[0, 0, 0]	n/a	catFR1	0	R1441T
465.898	0.917	509342	WORD_OFF	n/a	n/a	DUCK	Birds	4	4	[0, 0, 0]	n/a	catFR1	0	R1441T
466.815	1.6	510264	WORD	n/a	wordpools/wordpool_categorized_EN.txt	SHELF	Furniture	5	4	[0, 0, 0]	n/a	catFR1	0	R1441T
468.433	0.866	511885	WORD_OFF	n/a	n/a	SHELF	Furniture	5	4	[0, 0, 0]	n/a	catFR1	0	R1441T
469.299	1.6	512751	WORD	n/a	wordpools/wordpool_categorized_EN.txt	SOFA	Furniture	6	4	[0, 0, 0]	n/a	catFR1	0	R1441T
470.916	0.767	514358	WORD_OFF	n/a	n/a	SOFA	Furniture	6	4	[0, 0, 0]	n/a	catFR1	0	R1441T
471.683	1.6	515126	WORD	n/a	wordpools/wordpool_categorized_EN.txt	VACUUM	Appliances	7	4	[0, 0, 0]	n/a	catFR1	0	R1441T
473.298	0.967	516747	WORD_OFF	n/a	n/a	VACUUM	Appliances	7	4	[0, 0, 0]	n/a	catFR1	0	R1441T
474.265	1.6	517711	WORD	n/a	wordpools/wordpool_categorized_EN.txt	MIXER	Appliances	8	4	[0, 0, 0]	n/a	catFR1	0	R1441T
475.866	0.967	519318	WORD_OFF	n/a	n/a	MIXER	Appliances	8	4	[0, 0, 0]	n/a	catFR1	0	R1441T
476.833	1.6	520282	WORD	n/a	wordpools/wordpool_categorized_EN.txt	DOVE	Birds	9	4	[0, 0, 0]	n/a	catFR1	0	R1441T
478.449	0.867	521903	WORD_OFF	n/a	n/a	DOVE	Birds	9	4	[0, 0, 0]	n/a	catFR1	0	R1441T
479.316	1.6	522769	WORD	n/a	wordpools/wordpool_categorized_EN.txt	SPARROW	Birds	10	4	[0, 0, 0]	n/a	catFR1	0	R1441T
480.932	0.8	524376	WORD_OFF	n/a	n/a	SPARROW	Birds	10	4	[0, 0, 0]	n/a	catFR1	0	R1441T
481.732	1.6	525186	WORD	n/a	wordpools/wordpool_categorized_EN.txt	DRESSER	Furniture	11	4	[0, 0, 0]	n/a	catFR1	0	R1441T
483.333	0.849	526779	WORD_OFF	n/a	n/a	DRESSER	Furniture	11	4	[0, 0, 0]	n/a	catFR1	0	R1441T
484.182	1.6	527631	WORD	n/a	wordpools/wordpool_categorized_EN.txt	TABLE	Furniture	12	4	[0, 0, 0]	n/a	catFR1	0	R1441T
485.783	0.0	529224	WORD_OFF	n/a	n/a	TABLE	Furniture	12	4	[0, 0, 0]	n/a	catFR1	0	R1441T
485.783	0.001	529230	PROB	5.165	n/a	n/a	n/a	-999	4	[2, 1, 8]	11.0	catFR1	0	R1441T
485.784	0.0	529231	START	n/a	n/a	n/a	n/a	-999	4	[-999, -999, -999]	n/a	catFR1	0	R1441T
485.784	0.0	529238	ENCODING_END	n/a	n/a	n/a	n/a	-999	4	[0, 0, 0]	n/a	catFR1	0	R1441T
485.784	5.181	529238	DISTRACT_START	n/a	n/a	n/a	n/a	-999	4	[0, 0, 0]	n/a	catFR1	0	R1441T
490.965	7.483	534411	PROB	7.467	n/a	n/a	n/a	-999	4	[2, 1, 5]	8.0	catFR1	0	R1441T
498.448	10.833	541894	PROB	10.816	n/a	n/a	n/a	-999	4	[4, 4, 5]	13.0	catFR1	0	R1441T
509.281	0.0	552725	DISTRACT_END	n/a	n/a	n/a	n/a	-999	4	[0, 0, 0]	n/a	catFR1	0	R1441T
509.281	2.185	552726	STOP	n/a	n/a	n/a	n/a	-999	4	[-999, -999, -999]	n/a	catFR1	0	R1441T
511.466	0.067	554912	REC_START	n/a	n/a	n/a	n/a	-999	4	[0, 0, 0]	n/a	catFR1	0	R1441T
511.533	0.922	554978	REC_WORD	0.067	n/a	BLUEBIRD	Birds	3	4	[0, 0, 0]	n/a	catFR1	0	R1441T
512.455	0.693	555900	REC_WORD	0.989	n/a	DUCK	Birds	4	4	[0, 0, 0]	n/a	catFR1	0	R1441T
513.148	0.562	556593	REC_WORD	1.682	n/a	DOVE	Birds	9	4	[0, 0, 0]	n/a	catFR1	0	R1441T
513.71	2.44	557155	REC_WORD	2.244	n/a	SPARROW	Birds	10	4	[0, 0, 0]	n/a	catFR1	0	R1441T
516.15	25.527	559595	REC_WORD	4.684	n/a	TOASTER	Appliances	2	4	[0, 0, 0]	n/a	catFR1	0	R1441T
541.677	2.356	585125	REC_END	n/a	n/a	n/a	n/a	-999	4	[0, 0, 0]	n/a	catFR1	0	R1441T
544.033	10.0	587473	COUNTDOWN_START	n/a	n/a	n/a	n/a	-999	5	[0, 0, 0]	n/a	catFR1	0	R1441T
544.165	0.0	587612	COUNTDOWN_END	n/a	n/a	n/a	n/a	-999	5	[0, 0, 0]	n/a	catFR1	0	R1441T
544.165	2.051	587612	ENCODING_START	n/a	n/a	n/a	n/a	-999	5	[0, 0, 0]	n/a	catFR1	0	R1441T
546.216	1.6	589666	WORD	n/a	wordpools/wordpool_categorized_EN.txt	IRON	Appliances	1	5	[0, 0, 0]	n/a	catFR1	0	R1441T
547.832	0.767	591273	WORD_OFF	n/a	n/a	IRON	Appliances	1	5	[0, 0, 0]	n/a	catFR1	0	R1441T
548.599	1.6	592041	WORD	n/a	wordpools/wordpool_categorized_EN.txt	BLENDER	Appliances	2	5	[0, 0, 0]	n/a	catFR1	0	R1441T
550.216	0.783	593662	WORD_OFF	n/a	n/a	BLENDER	Appliances	2	5	[0, 0, 0]	n/a	catFR1	0	R1441T
550.999	1.6	594445	WORD	n/a	wordpools/wordpool_categorized_EN.txt	HEADPHONES	Electronics	3	5	[0, 0, 0]	n/a	catFR1	0	R1441T
552.599	0.85	596051	WORD_OFF	n/a	n/a	HEADPHONES	Electronics	3	5	[0, 0, 0]	n/a	catFR1	0	R1441T
553.449	1.6	596890	WORD	n/a	wordpools/wordpool_categorized_EN.txt	PHONE	Electronics	4	5	[0, 0, 0]	n/a	catFR1	0	R1441T
555.066	0.933	598510	WORD_OFF	n/a	n/a	PHONE	Electronics	4	5	[0, 0, 0]	n/a	catFR1	0	R1441T
555.999	1.6	599446	WORD	n/a	wordpools/wordpool_categorized_EN.txt	FOREST	Landscapes	5	5	[0, 0, 0]	n/a	catFR1	0	R1441T
557.599	0.883	601039	WORD_OFF	n/a	n/a	FOREST	Landscapes	5	5	[0, 0, 0]	n/a	catFR1	0	R1441T
558.482	1.6	601933	WORD	n/a	wordpools/wordpool_categorized_EN.txt	STREAM	Landscapes	6	5	[0, 0, 0]	n/a	catFR1	0	R1441T
560.082	0.899	603526	WORD_OFF	n/a	n/a	STREAM	Landscapes	6	5	[0, 0, 0]	n/a	catFR1	0	R1441T
560.981	1.6	604420	WORD	n/a	wordpools/wordpool_categorized_EN.txt	DRYER	Appliances	7	5	[0, 0, 0]	n/a	catFR1	0	R1441T
562.583	0.833	606027	WORD_OFF	n/a	n/a	DRYER	Appliances	7	5	[0, 0, 0]	n/a	catFR1	0	R1441T
563.416	1.6	606865	WORD	n/a	wordpools/wordpool_categorized_EN.txt	DISHWASHER	Appliances	8	5	[0, 0, 0]	n/a	catFR1	0	R1441T
565.016	0.984	608458	WORD_OFF	n/a	n/a	DISHWASHER	Appliances	8	5	[0, 0, 0]	n/a	catFR1	0	R1441T
566.0	1.6	609450	WORD	n/a	wordpools/wordpool_categorized_EN.txt	SCANNER	Electronics	9	5	[0, 0, 0]	n/a	catFR1	0	R1441T
567.614	0.784	611057	WORD_OFF	n/a	n/a	SCANNER	Electronics	9	5	[0, 0, 0]	n/a	catFR1	0	R1441T
568.398	1.6	611839	WORD	n/a	wordpools/wordpool_categorized_EN.txt	RADIO	Electronics	10	5	[0, 0, 0]	n/a	catFR1	0	R1441T
569.998	0.951	613446	WORD_OFF	n/a	n/a	RADIO	Electronics	10	5	[0, 0, 0]	n/a	catFR1	0	R1441T
570.949	1.6	614396	WORD	n/a	wordpools/wordpool_categorized_EN.txt	WOODS	Landscapes	11	5	[0, 0, 0]	n/a	catFR1	0	R1441T
572.566	0.817	616003	WORD_OFF	n/a	n/a	WOODS	Landscapes	11	5	[0, 0, 0]	n/a	catFR1	0	R1441T
573.383	1.6	616827	WORD	n/a	wordpools/wordpool_categorized_EN.txt	LAKE	Landscapes	12	5	[0, 0, 0]	n/a	catFR1	0	R1441T
574.999	0.001	618441	PROB	8.667	n/a	n/a	n/a	-999	5	[6, 5, 7]	18.0	catFR1	0	R1441T
575.0	0.0	618442	START	n/a	n/a	n/a	n/a	-999	5	[-999, -999, -999]	n/a	catFR1	0	R1441T
574.999	0.001	618448	WORD_OFF	n/a	n/a	LAKE	Landscapes	12	5	[0, 0, 0]	n/a	catFR1	0	R1441T
575.0	0.0	618448	ENCODING_END	n/a	n/a	n/a	n/a	-999	5	[0, 0, 0]	n/a	catFR1	0	R1441T
575.0	8.682	618448	DISTRACT_START	n/a	n/a	n/a	n/a	-999	5	[0, 0, 0]	n/a	catFR1	0	R1441T
583.682	11.332	627124	PROB	11.315	n/a	n/a	n/a	-999	5	[5, 4, 6]	15.0	catFR1	0	R1441T
595.014	0.0	638455	STOP	n/a	n/a	n/a	n/a	-999	5	[-999, -999, -999]	n/a	catFR1	0	R1441T
595.014	2.25	638456	DISTRACT_END	n/a	n/a	n/a	n/a	-999	5	[0, 0, 0]	n/a	catFR1	0	R1441T
597.264	2.034	640713	REC_START	n/a	n/a	n/a	n/a	-999	5	[0, 0, 0]	n/a	catFR1	0	R1441T
599.298	0.716	642739	REC_WORD	2.034	n/a	IRON	Appliances	1	5	[0, 0, 0]	n/a	catFR1	0	R1441T
600.014	0.65	643455	REC_WORD	2.75	n/a	FOREST	Landscapes	5	5	[0, 0, 0]	n/a	catFR1	0	R1441T
600.664	0.631	644105	REC_WORD	3.4	n/a	WOODS	Landscapes	11	5	[0, 0, 0]	n/a	catFR1	0	R1441T
601.295	0.873	644736	REC_WORD	4.031	n/a	STREAM	Landscapes	6	5	[0, 0, 0]	n/a	catFR1	0	R1441T
602.168	1.08	645609	REC_WORD	4.904	n/a	SCANNER	Electronics	9	5	[0, 0, 0]	n/a	catFR1	0	R1441T
603.248	24.235	646689	REC_WORD	5.984	n/a	RADIO	Electronics	10	5	[0, 0, 0]	n/a	catFR1	0	R1441T
627.483	3.366	670926	REC_END	n/a	n/a	n/a	n/a	-999	5	[0, 0, 0]	n/a	catFR1	0	R1441T
630.849	10.0	674293	COUNTDOWN_START	n/a	n/a	n/a	n/a	-999	6	[0, 0, 0]	n/a	catFR1	0	R1441T
641.199	0.0	684633	COUNTDOWN_END	n/a	n/a	n/a	n/a	-999	6	[0, 0, 0]	n/a	catFR1	0	R1441T
641.199	1.966	684647	ENCODING_START	n/a	n/a	n/a	n/a	-999	6	[0, 0, 0]	n/a	catFR1	0	R1441T
643.165	1.6	686603	WORD	n/a	wordpools/wordpool_categorized_EN.txt	ROBIN	Birds	1	6	[0, 0, 0]	n/a	catFR1	0	R1441T
644.766	0.833	688209	WORD_OFF	n/a	n/a	ROBIN	Birds	1	6	[0, 0, 0]	n/a	catFR1	0	R1441T
645.599	1.6	689034	WORD	n/a	wordpools/wordpool_categorized_EN.txt	CARDINAL	Birds	2	6	[0, 0, 0]	n/a	catFR1	0	R1441T
647.216	0.966	690654	WORD_OFF	n/a	n/a	CARDINAL	Birds	2	6	[0, 0, 0]	n/a	catFR1	0	R1441T
648.182	1.6	691618	WORD	n/a	wordpools/wordpool_categorized_EN.txt	MARBLES	Toys	3	6	[0, 0, 0]	n/a	catFR1	0	R1441T
649.783	0.85	693225	WORD_OFF	n/a	n/a	MARBLES	Toys	3	6	[0, 0, 0]	n/a	catFR1	0	R1441T
650.633	1.6	694078	WORD	n/a	wordpools/wordpool_categorized_EN.txt	DOLL	Toys	4	6	[0, 0, 0]	n/a	catFR1	0	R1441T
652.249	0.9	695684	WORD_OFF	n/a	n/a	DOLL	Toys	4	6	[0, 0, 0]	n/a	catFR1	0	R1441T
653.149	1.6	696592	WORD	n/a	wordpools/wordpool_categorized_EN.txt	CAKE	Desserts	5	6	[0, 0, 0]	n/a	catFR1	0	R1441T
654.766	0.767	698199	WORD_OFF	n/a	n/a	CAKE	Desserts	5	6	[0, 0, 0]	n/a	catFR1	0	R1441T
655.533	1.6	698968	WORD	n/a	wordpools/wordpool_categorized_EN.txt	COOKIE	Desserts	6	6	[0, 0, 0]	n/a	catFR1	0	R1441T
657.148	0.885	700588	WORD_OFF	n/a	n/a	COOKIE	Desserts	6	6	[0, 0, 0]	n/a	catFR1	0	R1441T
658.033	1.6	701469	WORD	n/a	wordpools/wordpool_categorized_EN.txt	BARBIE	Toys	7	6	[0, 0, 0]	n/a	catFR1	0	R1441T
659.648	0.882	703089	WORD_OFF	n/a	n/a	BARBIE	Toys	7	6	[0, 0, 0]	n/a	catFR1	0	R1441T
660.53	1.6	703970	WORD	n/a	wordpools/wordpool_categorized_EN.txt	FRISBEE	Toys	8	6	[0, 0, 0]	n/a	catFR1	0	R1441T
662.133	0.95	705576	WORD_OFF	n/a	n/a	FRISBEE	Toys	8	6	[0, 0, 0]	n/a	catFR1	0	R1441T
663.083	1.6	706526	WORD	n/a	wordpools/wordpool_categorized_EN.txt	COBBLER	Desserts	9	6	[0, 0, 0]	n/a	catFR1	0	R1441T
664.699	0.799	708133	WORD_OFF	n/a	n/a	COBBLER	Desserts	9	6	[0, 0, 0]	n/a	catFR1	0	R1441T
665.498	1.6	708944	WORD	n/a	wordpools/wordpool_categorized_EN.txt	BROWNIES	Desserts	10	6	[0, 0, 0]	n/a	catFR1	0	R1441T
667.099	0.767	710536	WORD_OFF	n/a	n/a	BROWNIES	Desserts	10	6	[0, 0, 0]	n/a	catFR1	0	R1441T
667.866	1.6	711305	WORD	n/a	wordpools/wordpool_categorized_EN.txt	PIGEON	Birds	11	6	[0, 0, 0]	n/a	catFR1	0	R1441T
669.466	0.884	712898	WORD_OFF	n/a	n/a	PIGEON	Birds	11	6	[0, 0, 0]	n/a	catFR1	0	R1441T
670.35	1.6	713792	WORD	n/a	wordpools/wordpool_categorized_EN.txt	FINCH	Birds	12	6	[0, 0, 0]	n/a	catFR1	0	R1441T
671.965	0.002	715399	WORD_OFF	n/a	n/a	FINCH	Birds	12	6	[0, 0, 0]	n/a	catFR1	0	R1441T
671.967	0.0	715399	ENCODING_END	n/a	n/a	n/a	n/a	-999	6	[0, 0, 0]	n/a	catFR1	0	R1441T
671.966	0.001	715403	PROB	10.183	n/a	n/a	n/a	-999	6	[7, 7, 5]	19.0	catFR1	0	R1441T
671.967	0.0	715404	START	n/a	n/a	n/a	n/a	-999	6	[-999, -999, -999]	n/a	catFR1	0	R1441T
671.967	10.199	715413	DISTRACT_START	n/a	n/a	n/a	n/a	-999	6	[0, 0, 0]	n/a	catFR1	0	R1441T
682.166	6.767	725603	PROB	6.749	n/a	n/a	n/a	-999	6	[8, 4, 7]	19.0	catFR1	0	R1441T
688.933	9.683	732369	PROB	9.667	n/a	n/a	n/a	-999	6	[5, 5, 3]	13.0	catFR1	0	R1441T
698.616	0.0	742052	STOP	n/a	n/a	n/a	n/a	-999	6	[-999, -999, -999]	n/a	catFR1	0	R1441T
698.616	2.2	742057	DISTRACT_END	n/a	n/a	n/a	n/a	-999	6	[0, 0, 0]	n/a	catFR1	0	R1441T
700.816	0.738	744258	REC_START	n/a	n/a	n/a	n/a	-999	6	[0, 0, 0]	n/a	catFR1	0	R1441T
701.554	0.683	744990	REC_WORD	0.738	n/a	CAKE	Desserts	5	6	[0, 0, 0]	n/a	catFR1	0	R1441T
702.237	0.741	745673	REC_WORD	1.421	n/a	COOKIE	Desserts	6	6	[0, 0, 0]	n/a	catFR1	0	R1441T
702.978	0.745	746414	REC_WORD	2.162	n/a	ROBIN	Birds	1	6	[0, 0, 0]	n/a	catFR1	0	R1441T
703.723	1.443	747159	REC_WORD	2.907	n/a	CARDINAL	Birds	2	6	[0, 0, 0]	n/a	catFR1	0	R1441T
705.166	0.822	748601	REC_WORD	4.35	n/a	BROWNIES	Desserts	10	6	[0, 0, 0]	n/a	catFR1	0	R1441T
705.988	1.994	749423	REC_WORD	5.172	n/a	FINCH	Birds	12	6	[0, 0, 0]	n/a	catFR1	0	R1441T
707.982	0.708	751417	REC_WORD	7.166	n/a	DOLL	Toys	4	6	[0, 0, 0]	n/a	catFR1	0	R1441T
708.69	22.333	752125	REC_WORD	7.874	n/a	BARBIE	Toys	7	6	[0, 0, 0]	n/a	catFR1	0	R1441T
731.023	1.41	774457	REC_END	n/a	n/a	n/a	n/a	-999	6	[0, 0, 0]	n/a	catFR1	0	R1441T
732.433	10.0	775869	COUNTDOWN_START	n/a	n/a	n/a	n/a	-999	7	[0, 0, 0]	n/a	catFR1	0	R1441T
742.783	0.0	786222	COUNTDOWN_END	n/a	n/a	n/a	n/a	-999	7	[0, 0, 0]	n/a	catFR1	0	R1441T
742.783	2.098	786222	ENCODING_START	n/a	n/a	n/a	n/a	-999	7	[0, 0, 0]	n/a	catFR1	0	R1441T
744.881	1.6	788317	WORD	n/a	wordpools/wordpool_categorized_EN.txt	EYE	BodyParts	1	7	[0, 0, 0]	n/a	catFR1	0	R1441T
746.482	0.85	789910	WORD_OFF	n/a	n/a	EYE	BodyParts	1	7	[0, 0, 0]	n/a	catFR1	0	R1441T
747.332	1.6	790762	WORD	n/a	wordpools/wordpool_categorized_EN.txt	LEG	BodyParts	2	7	[0, 0, 0]	n/a	catFR1	0	R1441T
748.948	0.952	792383	WORD_OFF	n/a	n/a	LEG	BodyParts	2	7	[0, 0, 0]	n/a	catFR1	0	R1441T
749.9	1.6	793333	WORD	n/a	wordpools/wordpool_categorized_EN.txt	RATCHET	Tools	3	7	[0, 0, 0]	n/a	catFR1	0	R1441T
751.516	0.949	794954	WORD_OFF	n/a	n/a	RATCHET	Tools	3	7	[0, 0, 0]	n/a	catFR1	0	R1441T
752.465	1.6	795904	WORD	n/a	wordpools/wordpool_categorized_EN.txt	AXE	Tools	4	7	[0, 0, 0]	n/a	catFR1	0	R1441T
754.065	0.917	797497	WORD_OFF	n/a	n/a	AXE	Tools	4	7	[0, 0, 0]	n/a	catFR1	0	R1441T
754.982	1.6	798419	WORD	n/a	wordpools/wordpool_categorized_EN.txt	PEACH	Fruit	5	7	[0, 0, 0]	n/a	catFR1	0	R1441T
756.583	0.983	800012	WORD_OFF	n/a	n/a	PEACH	Fruit	5	7	[0, 0, 0]	n/a	catFR1	0	R1441T
757.566	1.6	801004	WORD	n/a	wordpools/wordpool_categorized_EN.txt	GRAPE	Fruit	6	7	[0, 0, 0]	n/a	catFR1	0	R1441T
759.166	0.899	802597	WORD_OFF	n/a	n/a	GRAPE	Fruit	6	7	[0, 0, 0]	n/a	catFR1	0	R1441T
760.065	1.6	803505	WORD	n/a	wordpools/wordpool_categorized_EN.txt	ELBOW	BodyParts	7	7	[0, 0, 0]	n/a	catFR1	0	R1441T
761.666	0.882	805098	WORD_OFF	n/a	n/a	ELBOW	BodyParts	7	7	[0, 0, 0]	n/a	catFR1	0	R1441T
762.548	1.6	805978	WORD	n/a	wordpools/wordpool_categorized_EN.txt	HAND	BodyParts	8	7	[0, 0, 0]	n/a	catFR1	0	R1441T
764.15	0.983	807585	WORD_OFF	n/a	n/a	HAND	BodyParts	8	7	[0, 0, 0]	n/a	catFR1	0	R1441T
765.133	1.6	808563	WORD	n/a	wordpools/wordpool_categorized_EN.txt	BANANA	Fruit	9	7	[0, 0, 0]	n/a	catFR1	0	R1441T
766.733	0.833	810169	WORD_OFF	n/a	n/a	BANANA	Fruit	9	7	[0, 0, 0]	n/a	catFR1	0	R1441T
767.566	1.6	810994	WORD	n/a	wordpools/wordpool_categorized_EN.txt	LEMON	Fruit	10	7	[0, 0, 0]	n/a	catFR1	0	R1441T
769.166	0.785	812600	WORD_OFF	n/a	n/a	LEMON	Fruit	10	7	[0, 0, 0]	n/a	catFR1	0	R1441T
769.951	1.6	813383	WORD	n/a	wordpools/wordpool_categorized_EN.txt	CROWBAR	Tools	11	7	[0, 0, 0]	n/a	catFR1	0	R1441T
771.566	0.967	815004	WORD_OFF	n/a	n/a	CROWBAR	Tools	11	7	[0, 0, 0]	n/a	catFR1	0	R1441T
772.533	1.6	815968	WORD	n/a	wordpools/wordpool_categorized_EN.txt	SHOVEL	Tools	12	7	[0, 0, 0]	n/a	catFR1	0	R1441T
774.15	0.001	817582	PROB	13.683	n/a	n/a	n/a	-999	7	[8, 2, 3]	13.0	catFR1	0	R1441T
774.151	0.0	817583	START	n/a	n/a	n/a	n/a	-999	7	[-999, -999, -999]	n/a	catFR1	0	R1441T
774.149	0.002	817588	WORD_OFF	n/a	n/a	SHOVEL	Tools	12	7	[0, 0, 0]	n/a	catFR1	0	R1441T
774.151	0.0	817588	ENCODING_END	n/a	n/a	n/a	n/a	-999	7	[0, 0, 0]	n/a	catFR1	0	R1441T
774.151	13.699	817588	DISTRACT_START	n/a	n/a	n/a	n/a	-999	7	[0, 0, 0]	n/a	catFR1	0	R1441T
787.85	14.848	831281	PROB	14.832	n/a	n/a	n/a	-999	7	[5, 7, 1]	13.0	catFR1	0	R1441T
802.698	0.0	846128	STOP	n/a	n/a	n/a	n/a	-999	7	[-999, -999, -999]	n/a	catFR1	0	R1441T
802.698	2.284	846133	DISTRACT_END	n/a	n/a	n/a	n/a	-999	7	[0, 0, 0]	n/a	catFR1	0	R1441T
804.982	0.119	848418	REC_START	n/a	n/a	n/a	n/a	-999	7	[0, 0, 0]	n/a	catFR1	0	R1441T
805.101	0.606	848531	REC_WORD	0.119	n/a	LEG	BodyParts	2	7	[0, 0, 0]	n/a	catFR1	0	R1441T
805.707	0.764	849137	REC_WORD	0.725	n/a	EYE	BodyParts	1	7	[0, 0, 0]	n/a	catFR1	0	R1441T
806.471	0.694	849901	REC_WORD	1.489	n/a	RATCHET	Tools	3	7	[0, 0, 0]	n/a	catFR1	0	R1441T
807.165	0.702	850595	REC_WORD	2.183	n/a	AXE	Tools	4	7	[0, 0, 0]	n/a	catFR1	0	R1441T
807.867	0.778	851297	REC_WORD	2.885	n/a	PEACH	Fruit	5	7	[0, 0, 0]	n/a	catFR1	0	R1441T
808.645	1.407	852075	REC_WORD	3.663	n/a	BANANA	Fruit	9	7	[0, 0, 0]	n/a	catFR1	0	R1441T
810.052	7.893	853482	REC_WORD	5.07	n/a	SHOVEL	Tools	12	7	[0, 0, 0]	n/a	catFR1	0	R1441T
817.945	0.72	861375	REC_WORD	12.963	n/a	HAND	BodyParts	8	7	[0, 0, 0]	n/a	catFR1	0	R1441T
818.665	16.539	862095	REC_WORD	13.683	n/a	ELBOW	BodyParts	7	7	[0, 0, 0]	n/a	catFR1	0	R1441T
835.204	1.362	878631	REC_END	n/a	n/a	n/a	n/a	-999	7	[0, 0, 0]	n/a	catFR1	0	R1441T
836.566	10.0	880001	COUNTDOWN_START	n/a	n/a	n/a	n/a	-999	8	[0, 0, 0]	n/a	catFR1	0	R1441T
846.916	0.0	890340	COUNTDOWN_END	n/a	n/a	n/a	n/a	-999	8	[0, 0, 0]	n/a	catFR1	0	R1441T
846.916	1.999	890354	ENCODING_START	n/a	n/a	n/a	n/a	-999	8	[0, 0, 0]	n/a	catFR1	0	R1441T
848.915	1.6	892338	WORD	n/a	wordpools/wordpool_categorized_EN.txt	DOLPHIN	OceanAnimals	1	8	[0, 0, 0]	n/a	catFR1	0	R1441T
850.515	0.834	893944	WORD_OFF	n/a	n/a	DOLPHIN	OceanAnimals	1	8	[0, 0, 0]	n/a	catFR1	0	R1441T
851.349	1.6	894783	WORD	n/a	wordpools/wordpool_categorized_EN.txt	LOBSTER	OceanAnimals	2	8	[0, 0, 0]	n/a	catFR1	0	R1441T
852.949	0.932	896376	WORD_OFF	n/a	n/a	LOBSTER	OceanAnimals	2	8	[0, 0, 0]	n/a	catFR1	0	R1441T
853.881	1.6	897312	WORD	n/a	wordpools/wordpool_categorized_EN.txt	PIE	Desserts	3	8	[0, 0, 0]	n/a	catFR1	0	R1441T
855.483	0.85	898918	WORD_OFF	n/a	n/a	PIE	Desserts	3	8	[0, 0, 0]	n/a	catFR1	0	R1441T
856.333	1.6	899757	WORD	n/a	wordpools/wordpool_categorized_EN.txt	CUPCAKE	Desserts	4	8	[0, 0, 0]	n/a	catFR1	0	R1441T
857.949	0.984	901377	WORD_OFF	n/a	n/a	CUPCAKE	Desserts	4	8	[0, 0, 0]	n/a	catFR1	0	R1441T
858.933	1.6	902355	WORD	n/a	wordpools/wordpool_categorized_EN.txt	WRENCH	Tools	5	8	[0, 0, 0]	n/a	catFR1	0	R1441T
860.549	0.966	903976	WORD_OFF	n/a	n/a	WRENCH	Tools	5	8	[0, 0, 0]	n/a	catFR1	0	R1441T
861.515	1.6	904940	WORD	n/a	wordpools/wordpool_categorized_EN.txt	PLIERS	Tools	6	8	[0, 0, 0]	n/a	catFR1	0	R1441T
863.116	0.933	906547	WORD_OFF	n/a	n/a	PLIERS	Tools	6	8	[0, 0, 0]	n/a	catFR1	0	R1441T
864.049	1.6	907483	WORD	n/a	wordpools/wordpool_categorized_EN.txt	SQUID	OceanAnimals	7	8	[0, 0, 0]	n/a	catFR1	0	R1441T
865.666	0.766	909090	WORD_OFF	n/a	n/a	SQUID	OceanAnimals	7	8	[0, 0, 0]	n/a	catFR1	0	R1441T
866.432	1.6	909858	WORD	n/a	wordpools/wordpool_categorized_EN.txt	TURTLE	OceanAnimals	8	8	[0, 0, 0]	n/a	catFR1	0	R1441T
868.049	0.8	911479	WORD_OFF	n/a	n/a	TURTLE	OceanAnimals	8	8	[0, 0, 0]	n/a	catFR1	0	R1441T
868.849	1.6	912275	WORD	n/a	wordpools/wordpool_categorized_EN.txt	DRILL	Tools	9	8	[0, 0, 0]	n/a	catFR1	0	R1441T
870.449	0.817	913882	WORD_OFF	n/a	n/a	DRILL	Tools	9	8	[0, 0, 0]	n/a	catFR1	0	R1441T
871.266	1.6	914693	WORD	n/a	wordpools/wordpool_categorized_EN.txt	SAW	Tools	10	8	[0, 0, 0]	n/a	catFR1	0	R1441T
872.881	0.784	916313	WORD_OFF	n/a	n/a	SAW	Tools	10	8	[0, 0, 0]	n/a	catFR1	0	R1441T
873.665	1.6	917096	WORD	n/a	wordpools/wordpool_categorized_EN.txt	JELLO	Desserts	11	8	[0, 0, 0]	n/a	catFR1	0	R1441T
875.265	0.95	918688	WORD_OFF	n/a	n/a	JELLO	Desserts	11	8	[0, 0, 0]	n/a	catFR1	0	R1441T
876.215	1.6	919639	WORD	n/a	wordpools/wordpool_categorized_EN.txt	CHEESECAKE	Desserts	12	8	[0, 0, 0]	n/a	catFR1	0	R1441T
877.816	0.0	921243	START	n/a	n/a	n/a	n/a	-999	8	[-999, -999, -999]	n/a	catFR1	0	R1441T
877.816	0.0	921243	PROB	9.5	n/a	n/a	n/a	-999	8	[7, 2, 1]	10.0	catFR1	0	R1441T
877.815	0.001	921245	WORD_OFF	n/a	n/a	CHEESECAKE	Desserts	12	8	[0, 0, 0]	n/a	catFR1	0	R1441T
877.816	0.0	921245	ENCODING_END	n/a	n/a	n/a	n/a	-999	8	[0, 0, 0]	n/a	catFR1	0	R1441T
877.816	9.516	921245	DISTRACT_START	n/a	n/a	n/a	n/a	-999	8	[0, 0, 0]	n/a	catFR1	0	R1441T
887.332	9.118	930758	PROB	9.101	n/a	n/a	n/a	-999	8	[4, 3, 4]	11.0	catFR1	0	R1441T
896.45	5.149	939876	PROB	5.133	n/a	n/a	n/a	-999	8	[2, 3, 7]	12.0	catFR1	0	R1441T
901.599	0.0	945024	STOP	n/a	n/a	n/a	n/a	-999	8	[-999, -999, -999]	n/a	catFR1	0	R1441T
901.599	2.2	945025	DISTRACT_END	n/a	n/a	n/a	n/a	-999	8	[0, 0, 0]	n/a	catFR1	0	R1441T
903.799	0.29	947227	REC_START	n/a	n/a	n/a	n/a	-999	8	[0, 0, 0]	n/a	catFR1	0	R1441T
904.089	0.587	947514	REC_WORD	0.29	n/a	DOLPHIN	OceanAnimals	1	8	[0, 0, 0]	n/a	catFR1	0	R1441T
904.676	0.636	948101	REC_WORD	0.877	n/a	LOBSTER	OceanAnimals	2	8	[0, 0, 0]	n/a	catFR1	0	R1441T
905.312	0.753	948737	REC_WORD	1.513	n/a	WRENCH	Tools	5	8	[0, 0, 0]	n/a	catFR1	0	R1441T
906.065	0.597	949490	REC_WORD	2.266	n/a	WRENCH	Tools	5	8	[0, 0, 0]	n/a	catFR1	0	R1441T
906.662	2.108	950087	REC_WORD	2.863	n/a	PLIERS	Tools	6	8	[0, 0, 0]	n/a	catFR1	0	R1441T
908.77	2.307	952195	REC_WORD	4.971	n/a	CUPCAKE	Desserts	4	8	[0, 0, 0]	n/a	catFR1	0	R1441T
911.077	22.937	954502	REC_WORD	7.278	n/a	JELLO	Desserts	11	8	[0, 0, 0]	n/a	catFR1	0	R1441T
934.014	1.302	977440	REC_END	n/a	n/a	n/a	n/a	-999	8	[0, 0, 0]	n/a	catFR1	0	R1441T
935.316	10.0	978739	COUNTDOWN_START	n/a	n/a	n/a	n/a	-999	9	[0, 0, 0]	n/a	catFR1	0	R1441T
945.666	0.0	989092	COUNTDOWN_END	n/a	n/a	n/a	n/a	-999	9	[0, 0, 0]	n/a	catFR1	0	R1441T
945.666	1.832	989092	ENCODING_START	n/a	n/a	n/a	n/a	-999	9	[0, 0, 0]	n/a	catFR1	0	R1441T
947.498	1.6	990923	WORD	n/a	wordpools/wordpool_categorized_EN.txt	CEDAR	Trees	1	9	[0, 0, 0]	n/a	catFR1	0	R1441T
949.099	0.9	992530	WORD_OFF	n/a	n/a	CEDAR	Trees	1	9	[0, 0, 0]	n/a	catFR1	0	R1441T
949.999	1.6	993424	WORD	n/a	wordpools/wordpool_categorized_EN.txt	MAPLE	Trees	2	9	[0, 0, 0]	n/a	catFR1	0	R1441T
951.599	0.9	995030	WORD_OFF	n/a	n/a	MAPLE	Trees	2	9	[0, 0, 0]	n/a	catFR1	0	R1441T
952.499	1.6	995925	WORD	n/a	wordpools/wordpool_categorized_EN.txt	SPATULA	KitchenTools	3	9	[0, 0, 0]	n/a	catFR1	0	R1441T
954.099	0.984	997517	WORD_OFF	n/a	n/a	SPATULA	KitchenTools	3	9	[0, 0, 0]	n/a	catFR1	0	R1441T
955.083	1.6	998509	WORD	n/a	wordpools/wordpool_categorized_EN.txt	TONGS	KitchenTools	4	9	[0, 0, 0]	n/a	catFR1	0	R1441T
956.699	0.867	1000130	WORD_OFF	n/a	n/a	TONGS	KitchenTools	4	9	[0, 0, 0]	n/a	catFR1	0	R1441T
957.566	1.6	1000996	WORD	n/a	wordpools/wordpool_categorized_EN.txt	PRINTER	Electronics	5	9	[0, 0, 0]	n/a	catFR1	0	R1441T
959.183	0.933	1002603	WORD_OFF	n/a	n/a	PRINTER	Electronics	5	9	[0, 0, 0]	n/a	catFR1	0	R1441T
960.116	1.6	1003539	WORD	n/a	wordpools/wordpool_categorized_EN.txt	TABLET	Electronics	6	9	[0, 0, 0]	n/a	catFR1	0	R1441T
961.732	1.0	1005160	WORD_OFF	n/a	n/a	TABLET	Electronics	6	9	[0, 0, 0]	n/a	catFR1	0	R1441T
962.732	1.6	1006152	WORD	n/a	wordpools/wordpool_categorized_EN.txt	BIRCH	Trees	7	9	[0, 0, 0]	n/a	catFR1	0	R1441T
964.332	0.901	1007759	WORD_OFF	n/a	n/a	BIRCH	Trees	7	9	[0, 0, 0]	n/a	catFR1	0	R1441T
965.233	1.6	1008653	WORD	n/a	wordpools/wordpool_categorized_EN.txt	SPRUCE	Trees	8	9	[0, 0, 0]	n/a	catFR1	0	R1441T
966.85	0.833	1010274	WORD_OFF	n/a	n/a	SPRUCE	Trees	8	9	[0, 0, 0]	n/a	catFR1	0	R1441T
967.683	1.6	1011112	WORD	n/a	wordpools/wordpool_categorized_EN.txt	MICROWAVE	Electronics	9	9	[0, 0, 0]	n/a	catFR1	0	R1441T
969.299	0.832	1012719	WORD_OFF	n/a	n/a	MICROWAVE	Electronics	9	9	[0, 0, 0]	n/a	catFR1	0	R1441T
970.131	1.6	1013557	WORD	n/a	wordpools/wordpool_categorized_EN.txt	STEREO	Electronics	10	9	[0, 0, 0]	n/a	catFR1	0	R1441T
971.733	0.833	1015150	WORD_OFF	n/a	n/a	STEREO	Electronics	10	9	[0, 0, 0]	n/a	catFR1	0	R1441T
972.566	1.6	1015988	WORD	n/a	wordpools/wordpool_categorized_EN.txt	PEELER	KitchenTools	11	9	[0, 0, 0]	n/a	catFR1	0	R1441T
974.166	0.832	1017595	WORD_OFF	n/a	n/a	PEELER	KitchenTools	11	9	[0, 0, 0]	n/a	catFR1	0	R1441T
974.998	1.6	1018419	WORD	n/a	wordpools/wordpool_categorized_EN.txt	KNIFE	KitchenTools	12	9	[0, 0, 0]	n/a	catFR1	0	R1441T
976.599	0.001	1020020	PROB	9.049	n/a	n/a	n/a	-999	9	[4, 5, 1]	10.0	catFR1	0	R1441T
976.6	0.0	1020021	START	n/a	n/a	n/a	n/a	-999	9	[-999, -999, -999]	n/a	catFR1	0	R1441T
976.599	0.001	1020026	WORD_OFF	n/a	n/a	KNIFE	KitchenTools	12	9	[0, 0, 0]	n/a	catFR1	0	R1441T
976.6	0.0	1020026	ENCODING_END	n/a	n/a	n/a	n/a	-999	9	[0, 0, 0]	n/a	catFR1	0	R1441T
976.6	9.066	1020026	DISTRACT_START	n/a	n/a	n/a	n/a	-999	9	[0, 0, 0]	n/a	catFR1	0	R1441T
985.666	8.351	1029087	PROB	8.332	n/a	n/a	n/a	-999	9	[3, 8, 5]	16.0	catFR1	0	R1441T
994.017	8.365	1037438	PROB	8.35	n/a	n/a	n/a	-999	9	[3, 5, 7]	15.0	catFR1	0	R1441T
1002.382	0.0	1045802	STOP	n/a	n/a	n/a	n/a	-999	9	[-999, -999, -999]	n/a	catFR1	0	R1441T
1002.382	2.401	1045804	DISTRACT_END	n/a	n/a	n/a	n/a	-999	9	[0, 0, 0]	n/a	catFR1	0	R1441T
1004.783	0.529	1048201	REC_START	n/a	n/a	n/a	n/a	-999	9	[0, 0, 0]	n/a	catFR1	0	R1441T
1005.312	0.847	1048732	REC_WORD	0.529	n/a	CEDAR	Trees	1	9	[0, 0, 0]	n/a	catFR1	0	R1441T
1006.159	1.868	1049579	REC_WORD	1.376	n/a	MAPLE	Trees	2	9	[0, 0, 0]	n/a	catFR1	0	R1441T
1008.027	2.298	1051447	REC_WORD_VV	3.244	n/a	<>	n/a	-999	9	[0, 0, 0]	n/a	catFR1	0	R1441T
1010.325	1.164	1053745	REC_WORD	5.542	n/a	SPRUCE	Trees	8	9	[0, 0, 0]	n/a	catFR1	0	R1441T
1011.489	1.856	1054909	REC_WORD	6.706	n/a	BIRCH	Trees	7	9	[0, 0, 0]	n/a	catFR1	0	R1441T
1013.345	0.618	1056765	REC_WORD	8.562	n/a	KNIFE	KitchenTools	12	9	[0, 0, 0]	n/a	catFR1	0	R1441T
1013.963	2.209	1057383	REC_WORD	9.18	n/a	MICROWAVE	Electronics	9	9	[0, 0, 0]	n/a	catFR1	0	R1441T
1016.172	1.585	1059592	REC_WORD	11.389	n/a	SPATULA	KitchenTools	3	9	[0, 0, 0]	n/a	catFR1	0	R1441T
1017.757	17.263	1061176	REC_WORD	12.974	n/a	TONGS	KitchenTools	4	9	[0, 0, 0]	n/a	catFR1	0	R1441T
1035.02	0.595	1078442	REC_END	n/a	n/a	n/a	n/a	-999	9	[0, 0, 0]	n/a	catFR1	0	R1441T
1035.615	10.0	1079043	COUNTDOWN_START	n/a	n/a	n/a	n/a	-999	10	[0, 0, 0]	n/a	catFR1	0	R1441T
1045.966	0.0	1089382	COUNTDOWN_END	n/a	n/a	n/a	n/a	-999	10	[0, 0, 0]	n/a	catFR1	0	R1441T
1045.966	2.267	1089382	ENCODING_START	n/a	n/a	n/a	n/a	-999	10	[0, 0, 0]	n/a	catFR1	0	R1441T
1048.233	1.6	1091646	WORD	n/a	wordpools/wordpool_categorized_EN.txt	SHRIMP	OceanAnimals	1	10	[0, 0, 0]	n/a	catFR1	0	R1441T
1049.849	0.933	1093266	WORD_OFF	n/a	n/a	SHRIMP	OceanAnimals	1	10	[0, 0, 0]	n/a	catFR1	0	R1441T
1050.782	1.6	1094202	WORD	n/a	wordpools/wordpool_categorized_EN.txt	OCTOPUS	OceanAnimals	2	10	[0, 0, 0]	n/a	catFR1	0	R1441T
1052.399	1.0	1095823	WORD_OFF	n/a	n/a	OCTOPUS	OceanAnimals	2	10	[0, 0, 0]	n/a	catFR1	0	R1441T
1053.399	1.6	1096829	WORD	n/a	wordpools/wordpool_categorized_EN.txt	ATTIC	Building	3	10	[0, 0, 0]	n/a	catFR1	0	R1441T
1055.014	0.785	1098436	WORD_OFF	n/a	n/a	ATTIC	Building	3	10	[0, 0, 0]	n/a	catFR1	0	R1441T
1055.799	1.6	1099218	WORD	n/a	wordpools/wordpool_categorized_EN.txt	ROOF	Building	4	10	[0, 0, 0]	n/a	catFR1	0	R1441T
1057.399	0.833	1100825	WORD_OFF	n/a	n/a	ROOF	Building	4	10	[0, 0, 0]	n/a	catFR1	0	R1441T
1058.232	1.6	1101649	WORD	n/a	wordpools/wordpool_categorized_EN.txt	FOOT	BodyParts	5	10	[0, 0, 0]	n/a	catFR1	0	R1441T
1059.849	1.0	1103270	WORD_OFF	n/a	n/a	FOOT	BodyParts	5	10	[0, 0, 0]	n/a	catFR1	0	R1441T
1060.849	1.6	1104262	WORD	n/a	wordpools/wordpool_categorized_EN.txt	KNEE	BodyParts	6	10	[0, 0, 0]	n/a	catFR1	0	R1441T
1062.464	0.885	1105883	WORD_OFF	n/a	n/a	KNEE	BodyParts	6	10	[0, 0, 0]	n/a	catFR1	0	R1441T
1063.349	1.6	1106763	WORD	n/a	wordpools/wordpool_categorized_EN.txt	PLANKTON	OceanAnimals	7	10	[0, 0, 0]	n/a	catFR1	0	R1441T
1064.95	0.798	1108370	WORD_OFF	n/a	n/a	PLANKTON	OceanAnimals	7	10	[0, 0, 0]	n/a	catFR1	0	R1441T
1065.748	1.6	1109166	WORD	n/a	wordpools/wordpool_categorized_EN.txt	JELLYFISH	OceanAnimals	8	10	[0, 0, 0]	n/a	catFR1	0	R1441T
1067.366	0.898	1110787	WORD_OFF	n/a	n/a	JELLYFISH	OceanAnimals	8	10	[0, 0, 0]	n/a	catFR1	0	R1441T
1068.264	1.6	1111681	WORD	n/a	wordpools/wordpool_categorized_EN.txt	TOE	BodyParts	9	10	[0, 0, 0]	n/a	catFR1	0	R1441T
1069.866	0.933	1113288	WORD_OFF	n/a	n/a	TOE	BodyParts	9	10	[0, 0, 0]	n/a	catFR1	0	R1441T
1070.799	1.6	1114216	WORD	n/a	wordpools/wordpool_categorized_EN.txt	ARM	BodyParts	10	10	[0, 0, 0]	n/a	catFR1	0	R1441T
1072.416	0.9	1115831	WORD_OFF	n/a	n/a	ARM	BodyParts	10	10	[0, 0, 0]	n/a	catFR1	0	R1441T
1073.316	1.6	1116739	WORD	n/a	wordpools/wordpool_categorized_EN.txt	BATHROOM	Building	11	10	[0, 0, 0]	n/a	catFR1	0	R1441T
1074.932	0.917	1118346	WORD_OFF	n/a	n/a	BATHROOM	Building	11	10	[0, 0, 0]	n/a	catFR1	0	R1441T
1075.849	1.6	1119268	WORD	n/a	wordpools/wordpool_categorized_EN.txt	STAIRS	Building	12	10	[0, 0, 0]	n/a	catFR1	0	R1441T
1077.45	0.0	1120861	WORD_OFF	n/a	n/a	STAIRS	Building	12	10	[0, 0, 0]	n/a	catFR1	0	R1441T
1077.45	0.001	1120866	PROB	9.799	n/a	n/a	n/a	-999	10	[7, 8, 7]	22.0	catFR1	0	R1441T
1077.451	0.0	1120867	START	n/a	n/a	n/a	n/a	-999	10	[-999, -999, -999]	n/a	catFR1	0	R1441T
1077.451	0.0	1120875	ENCODING_END	n/a	n/a	n/a	n/a	-999	10	[0, 0, 0]	n/a	catFR1	0	R1441T
1077.451	9.815	1120875	DISTRACT_START	n/a	n/a	n/a	n/a	-999	10	[0, 0, 0]	n/a	catFR1	0	R1441T
1087.266	10.199	1130682	PROB	10.182	n/a	n/a	n/a	-999	10	[2, 3, 8]	13.0	catFR1	0	R1441T
1097.465	0.0	1140880	STOP	n/a	n/a	n/a	n/a	-999	10	[-999, -999, -999]	n/a	catFR1	0	R1441T
1097.465	2.301	1140882	DISTRACT_END	n/a	n/a	n/a	n/a	-999	10	[0, 0, 0]	n/a	catFR1	0	R1441T
1099.766	0.922	1143182	REC_START	n/a	n/a	n/a	n/a	-999	10	[0, 0, 0]	n/a	catFR1	0	R1441T
1100.688	0.713	1144103	REC_WORD	0.922	n/a	TOE	BodyParts	9	10	[0, 0, 0]	n/a	catFR1	0	R1441T
1101.401	0.924	1144816	REC_WORD	1.635	n/a	KNEE	BodyParts	6	10	[0, 0, 0]	n/a	catFR1	0	R1441T
1102.325	2.767	1145740	REC_WORD	2.559	n/a	ARM	BodyParts	10	10	[0, 0, 0]	n/a	catFR1	0	R1441T
1105.092	1.354	1148507	REC_WORD	5.326	n/a	SHRIMP	OceanAnimals	1	10	[0, 0, 0]	n/a	catFR1	0	R1441T
1106.446	2.47	1149861	REC_WORD	6.68	n/a	OCTOPUS	OceanAnimals	2	10	[0, 0, 0]	n/a	catFR1	0	R1441T
1108.916	21.054	1152331	REC_WORD	9.15	n/a	SQUID	OceanAnimals	-999	10	[0, 0, 0]	n/a	catFR1	0	R1441T
1129.97	1.597	1173381	REC_END	n/a	n/a	n/a	n/a	-999	10	[0, 0, 0]	n/a	catFR1	0	R1441T
1131.567	10.0	1174988	COUNTDOWN_START	n/a	n/a	n/a	n/a	-999	11	[0, 0, 0]	n/a	catFR1	0	R1441T
1141.915	0.0	1185327	COUNTDOWN_END	n/a	n/a	n/a	n/a	-999	11	[0, 0, 0]	n/a	catFR1	0	R1441T
1141.915	2.351	1185327	ENCODING_START	n/a	n/a	n/a	n/a	-999	11	[0, 0, 0]	n/a	catFR1	0	R1441T
1144.266	1.6	1187674	WORD	n/a	wordpools/wordpool_categorized_EN.txt	WILLOW	Trees	1	11	[0, 0, 0]	n/a	catFR1	0	R1441T
1145.881	0.835	1189295	WORD_OFF	n/a	n/a	WILLOW	Trees	1	11	[0, 0, 0]	n/a	catFR1	0	R1441T
1146.716	1.6	1190133	WORD	n/a	wordpools/wordpool_categorized_EN.txt	PINE	Trees	2	11	[0, 0, 0]	n/a	catFR1	0	R1441T
1148.333	0.983	1191754	WORD_OFF	n/a	n/a	PINE	Trees	2	11	[0, 0, 0]	n/a	catFR1	0	R1441T
1149.316	1.6	1192732	WORD	n/a	wordpools/wordpool_categorized_EN.txt	PUZZLE	Toys	3	11	[0, 0, 0]	n/a	catFR1	0	R1441T
1150.931	0.851	1194352	WORD_OFF	n/a	n/a	PUZZLE	Toys	3	11	[0, 0, 0]	n/a	catFR1	0	R1441T
1151.782	1.6	1195191	WORD	n/a	wordpools/wordpool_categorized_EN.txt	SLINKY	Toys	4	11	[0, 0, 0]	n/a	catFR1	0	R1441T
1153.399	0.833	1196812	WORD_OFF	n/a	n/a	SLINKY	Toys	4	11	[0, 0, 0]	n/a	catFR1	0	R1441T
1154.232	1.6	1197650	WORD	n/a	wordpools/wordpool_categorized_EN.txt	BULL	FarmAnimals	5	11	[0, 0, 0]	n/a	catFR1	0	R1441T
1155.848	0.951	1199257	WORD_OFF	n/a	n/a	BULL	FarmAnimals	5	11	[0, 0, 0]	n/a	catFR1	0	R1441T
1156.799	1.6	1200207	WORD	n/a	wordpools/wordpool_categorized_EN.txt	HEN	FarmAnimals	6	11	[0, 0, 0]	n/a	catFR1	0	R1441T
1158.416	0.816	1201827	WORD_OFF	n/a	n/a	HEN	FarmAnimals	6	11	[0, 0, 0]	n/a	catFR1	0	R1441T
1159.232	1.6	1202652	WORD	n/a	wordpools/wordpool_categorized_EN.txt	WALNUT	Trees	7	11	[0, 0, 0]	n/a	catFR1	0	R1441T
1160.849	1.0	1204258	WORD_OFF	n/a	n/a	WALNUT	Trees	7	11	[0, 0, 0]	n/a	catFR1	0	R1441T
1161.849	1.6	1205264	WORD	n/a	wordpools/wordpool_categorized_EN.txt	EVERGREEN	Trees	8	11	[0, 0, 0]	n/a	catFR1	0	R1441T
1163.449	0.916	1206857	WORD_OFF	n/a	n/a	EVERGREEN	Trees	8	11	[0, 0, 0]	n/a	catFR1	0	R1441T
1164.365	1.6	1207779	WORD	n/a	wordpools/wordpool_categorized_EN.txt	TURKEY	FarmAnimals	9	11	[0, 0, 0]	n/a	catFR1	0	R1441T
1165.966	0.8	1209386	WORD_OFF	n/a	n/a	TURKEY	FarmAnimals	9	11	[0, 0, 0]	n/a	catFR1	0	R1441T
1166.766	1.6	1210182	WORD	n/a	wordpools/wordpool_categorized_EN.txt	SHEEP	FarmAnimals	10	11	[0, 0, 0]	n/a	catFR1	0	R1441T
1168.383	0.817	1211803	WORD_OFF	n/a	n/a	SHEEP	FarmAnimals	10	11	[0, 0, 0]	n/a	catFR1	0	R1441T
1169.2	1.6	1212614	WORD	n/a	wordpools/wordpool_categorized_EN.txt	FOOTBALL	Toys	11	11	[0, 0, 0]	n/a	catFR1	0	R1441T
1170.799	0.765	1214206	WORD_OFF	n/a	n/a	FOOTBALL	Toys	11	11	[0, 0, 0]	n/a	catFR1	0	R1441T
1171.564	1.6	1214975	WORD	n/a	wordpools/wordpool_categorized_EN.txt	BASEBALL	Toys	12	11	[0, 0, 0]	n/a	catFR1	0	R1441T
1173.166	0.001	1216577	PROB	10.667	n/a	n/a	n/a	-999	11	[2, 3, 3]	8.0	catFR1	0	R1441T
1173.167	0.0	1216578	START	n/a	n/a	n/a	n/a	-999	11	[-999, -999, -999]	n/a	catFR1	0	R1441T
1173.165	0.002	1216582	WORD_OFF	n/a	n/a	BASEBALL	Toys	12	11	[0, 0, 0]	n/a	catFR1	0	R1441T
1173.167	0.0	1216582	ENCODING_END	n/a	n/a	n/a	n/a	-999	11	[0, 0, 0]	n/a	catFR1	0	R1441T
1173.167	10.683	1216582	DISTRACT_START	n/a	n/a	n/a	n/a	-999	11	[0, 0, 0]	n/a	catFR1	0	R1441T
1183.85	5.3	1227261	PROB	5.282	n/a	n/a	n/a	-999	11	[1, 5, 8]	14.0	catFR1	0	R1441T
1189.15	7.332	1232561	PROB	7.316	n/a	n/a	n/a	-999	11	[6, 4, 5]	15.0	catFR1	0	R1441T
1196.482	0.0	1239887	DISTRACT_END	n/a	n/a	n/a	n/a	-999	11	[0, 0, 0]	n/a	catFR1	0	R1441T
1196.482	2.034	1239892	STOP	n/a	n/a	n/a	n/a	-999	11	[-999, -999, -999]	n/a	catFR1	0	R1441T
1198.516	0.507	1241934	REC_START	n/a	n/a	n/a	n/a	-999	11	[0, 0, 0]	n/a	catFR1	0	R1441T
1199.023	0.755	1242433	REC_WORD	0.507	n/a	BULL	FarmAnimals	5	11	[0, 0, 0]	n/a	catFR1	0	R1441T
1199.778	0.797	1243188	REC_WORD	1.262	n/a	HEN	FarmAnimals	6	11	[0, 0, 0]	n/a	catFR1	0	R1441T
1200.575	1.382	1243985	REC_WORD	2.059	n/a	PINE	Trees	2	11	[0, 0, 0]	n/a	catFR1	0	R1441T
1201.957	0.798	1245367	REC_WORD	3.441	n/a	WALNUT	Trees	7	11	[0, 0, 0]	n/a	catFR1	0	R1441T
1202.755	1.226	1246165	REC_WORD	4.239	n/a	SHEEP	FarmAnimals	10	11	[0, 0, 0]	n/a	catFR1	0	R1441T
1203.981	5.515	1247391	REC_WORD	5.465	n/a	SLINKY	Toys	4	11	[0, 0, 0]	n/a	catFR1	0	R1441T
1209.496	19.24	1252906	REC_WORD	10.98	n/a	SPRUCE	Trees	-999	11	[0, 0, 0]	n/a	catFR1	0	R1441T
1228.736	1.629	1272148	REC_END	n/a	n/a	n/a	n/a	-999	11	[0, 0, 0]	n/a	catFR1	0	R1441T
1230.365	10.0	1273782	COUNTDOWN_START	n/a	n/a	n/a	n/a	-999	12	[0, 0, 0]	n/a	catFR1	0	R1441T
1240.716	0.0	1284121	COUNTDOWN_END	n/a	n/a	n/a	n/a	-999	12	[0, 0, 0]	n/a	catFR1	0	R1441T
1240.716	2.032	1284121	ENCODING_START	n/a	n/a	n/a	n/a	-999	12	[0, 0, 0]	n/a	catFR1	0	R1441T
1242.748	1.6	1286161	WORD	n/a	wordpools/wordpool_categorized_EN.txt	NOSE	BodyParts	1	12	[0, 0, 0]	n/a	catFR1	0	R1441T
1244.366	0.884	1287782	WORD_OFF	n/a	n/a	NOSE	BodyParts	1	12	[0, 0, 0]	n/a	catFR1	0	R1441T
1245.25	1.6	1288662	WORD	n/a	wordpools/wordpool_categorized_EN.txt	HEAD	BodyParts	2	12	[0, 0, 0]	n/a	catFR1	0	R1441T
1246.865	0.966	1290269	WORD_OFF	n/a	n/a	HEAD	BodyParts	2	12	[0, 0, 0]	n/a	catFR1	0	R1441T
1247.831	1.6	1291247	WORD	n/a	wordpools/wordpool_categorized_EN.txt	FLOOR	Building	3	12	[0, 0, 0]	n/a	catFR1	0	R1441T
1249.432	0.984	1292840	WORD_OFF	n/a	n/a	FLOOR	Building	3	12	[0, 0, 0]	n/a	catFR1	0	R1441T
1250.416	1.6	1293832	WORD	n/a	wordpools/wordpool_categorized_EN.txt	FOUNDATION	Building	4	12	[0, 0, 0]	n/a	catFR1	0	R1441T
1252.016	0.798	1295425	WORD_OFF	n/a	n/a	FOUNDATION	Building	4	12	[0, 0, 0]	n/a	catFR1	0	R1441T
1252.814	1.6	1296221	WORD	n/a	wordpools/wordpool_categorized_EN.txt	FORK	KitchenTools	5	12	[0, 0, 0]	n/a	catFR1	0	R1441T
1254.416	0.933	1297828	WORD_OFF	n/a	n/a	FORK	KitchenTools	5	12	[0, 0, 0]	n/a	catFR1	0	R1441T
1255.349	1.6	1298764	WORD	n/a	wordpools/wordpool_categorized_EN.txt	SPOON	KitchenTools	6	12	[0, 0, 0]	n/a	catFR1	0	R1441T
1256.965	0.867	1300371	WORD_OFF	n/a	n/a	SPOON	KitchenTools	6	12	[0, 0, 0]	n/a	catFR1	0	R1441T
1257.832	1.6	1301237	WORD	n/a	wordpools/wordpool_categorized_EN.txt	WINDOW	Building	7	12	[0, 0, 0]	n/a	catFR1	0	R1441T
1259.45	0.949	1302858	WORD_OFF	n/a	n/a	WINDOW	Building	7	12	[0, 0, 0]	n/a	catFR1	0	R1441T
1260.399	1.6	1303808	WORD	n/a	wordpools/wordpool_categorized_EN.txt	ROOM	Building	8	12	[0, 0, 0]	n/a	catFR1	0	R1441T
1262.015	0.784	1305428	WORD_OFF	n/a	n/a	ROOM	Building	8	12	[0, 0, 0]	n/a	catFR1	0	R1441T
1262.799	1.6	1306211	WORD	n/a	wordpools/wordpool_categorized_EN.txt	CORKSCREW	KitchenTools	9	12	[0, 0, 0]	n/a	catFR1	0	R1441T
1264.399	0.867	1307804	WORD_OFF	n/a	n/a	CORKSCREW	KitchenTools	9	12	[0, 0, 0]	n/a	catFR1	0	R1441T
1265.266	1.6	1308670	WORD	n/a	wordpools/wordpool_categorized_EN.txt	COLANDER	KitchenTools	10	12	[0, 0, 0]	n/a	catFR1	0	R1441T
1266.883	0.95	1310291	WORD_OFF	n/a	n/a	COLANDER	KitchenTools	10	12	[0, 0, 0]	n/a	catFR1	0	R1441T
1267.833	1.6	1311241	WORD	n/a	wordpools/wordpool_categorized_EN.txt	FINGERS	BodyParts	11	12	[0, 0, 0]	n/a	catFR1	0	R1441T
1269.449	0.766	1312861	WORD_OFF	n/a	n/a	FINGERS	BodyParts	11	12	[0, 0, 0]	n/a	catFR1	0	R1441T
1270.215	1.6	1313630	WORD	n/a	wordpools/wordpool_categorized_EN.txt	EAR	BodyParts	12	12	[0, 0, 0]	n/a	catFR1	0	R1441T
1271.816	0.0	1315222	PROB	7.015	n/a	n/a	n/a	-999	12	[7, 1, 4]	12.0	catFR1	0	R1441T
1271.816	0.001	1315223	WORD_OFF	n/a	n/a	EAR	BodyParts	12	12	[0, 0, 0]	n/a	catFR1	0	R1441T
1271.817	0.001	1315223	ENCODING_END	n/a	n/a	n/a	n/a	-999	12	[0, 0, 0]	n/a	catFR1	0	R1441T
1271.818	0.0	1315223	DISTRACT_START	n/a	n/a	n/a	n/a	-999	12	[0, 0, 0]	n/a	catFR1	0	R1441T
1271.818	7.031	1315224	START	n/a	n/a	n/a	n/a	-999	12	[-999, -999, -999]	n/a	catFR1	0	R1441T
1278.849	8.651	1322255	PROB	8.633	n/a	n/a	n/a	-999	12	[2, 1, 8]	11.0	catFR1	0	R1441T
1287.5	6.014	1330906	PROB	5.999	n/a	n/a	n/a	-999	12	[1, 7, 5]	15.0	catFR1	0	R1441T
1293.514	0.0	1336919	STOP	n/a	n/a	n/a	n/a	-999	12	[-999, -999, -999]	n/a	catFR1	0	R1441T
1293.514	2.302	1336921	DISTRACT_END	n/a	n/a	n/a	n/a	-999	12	[0, 0, 0]	n/a	catFR1	0	R1441T
1295.816	0.275	1339220	REC_START	n/a	n/a	n/a	n/a	-999	12	[0, 0, 0]	n/a	catFR1	0	R1441T
1296.091	0.821	1339496	REC_WORD	0.275	n/a	NOSE	BodyParts	1	12	[0, 0, 0]	n/a	catFR1	0	R1441T
1296.912	0.71	1340317	REC_WORD	1.096	n/a	HEAD	BodyParts	2	12	[0, 0, 0]	n/a	catFR1	0	R1441T
1297.622	0.548	1341027	REC_WORD	1.806	n/a	FLOOR	Building	3	12	[0, 0, 0]	n/a	catFR1	0	R1441T
1298.17	1.074	1341575	REC_WORD	2.354	n/a	FOUNDATION	Building	4	12	[0, 0, 0]	n/a	catFR1	0	R1441T
1299.244	1.379	1342649	REC_WORD	3.428	n/a	ROOM	Building	8	12	[0, 0, 0]	n/a	catFR1	0	R1441T
1300.623	25.426	1344028	REC_WORD	4.807	n/a	WINDOW	Building	7	12	[0, 0, 0]	n/a	catFR1	0	R1441T
1326.049	0.0	1369461	REC_END	n/a	n/a	n/a	n/a	-999	12	[0, 0, 0]	n/a	catFR1	0	R1441T
