onset	duration	sample	trial_type	response_time	stim_file	item_name	category	serialpos	list	test	answer	experiment	session	subject
0.0	164.885	109959	INSTRUCT_START	n/a	n/a	n/a	n/a	-999	-999	[0, 0, 0]	n/a	catFR1	0	R1674A
164.885	99.15	274841	INSTRUCT_END	n/a	n/a	n/a	n/a	-999	-999	[0, 0, 0]	n/a	catFR1	0	R1674A
264.035	10.349	373993	COUNTDOWN_START	n/a	n/a	n/a	n/a	-999	-999	[0, 0, 0]	n/a	catFR1	0	R1674A
274.384	0.001	384333	COUNTDOWN_END	n/a	n/a	n/a	n/a	-999	-999	[0, 0, 0]	n/a	catFR1	0	R1674A
274.385	2.303	384342	ENCODING_START	n/a	n/a	n/a	n/a	-999	-1	[0, 0, 0]	n/a	catFR1	0	R1674A
276.688	1.598	386641	WORD	n/a	n/a	CUCUMBER	Vegetables	1	-1	[0, 0, 0]	n/a	catFR1	0	R1674A
278.286	0.806	388243	WORD_OFF	n/a	n/a	CUCUMBER	Vegetables	1	-1	[0, 0, 0]	n/a	catFR1	0	R1674A
279.092	1.601	389045	WORD	n/a	n/a	ONION	Vegetables	2	-1	[0, 0, 0]	n/a	catFR1	0	R1674A
280.693	0.957	390647	WORD_OFF	n/a	n/a	ONION	Vegetables	2	-1	[0, 0, 0]	n/a	catFR1	0	R1674A
281.65	1.604	391601	WORD	n/a	n/a	DENIM	Fabric	3	-1	[0, 0, 0]	n/a	catFR1	0	R1674A
283.254	0.762	393203	WORD_OFF	n/a	n/a	DENIM	Fabric	3	-1	[0, 0, 0]	n/a	catFR1	0	R1674A
284.016	1.601	393966	WORD	n/a	n/a	SILK	Fabric	4	-1	[0, 0, 0]	n/a	catFR1	0	R1674A
285.617	0.901	395569	WORD_OFF	n/a	n/a	SILK	Fabric	4	-1	[0, 0, 0]	n/a	catFR1	0	R1674A
286.518	1.607	396475	WORD	n/a	n/a	ZEBRA	Zoo	5	-1	[0, 0, 0]	n/a	catFR1	0	R1674A
288.125	0.918	398077	WORD_OFF	n/a	n/a	ZEBRA	Zoo	5	-1	[0, 0, 0]	n/a	catFR1	0	R1674A
289.043	1.609	398993	WORD	n/a	n/a	CHEETAH	Zoo	6	-1	[0, 0, 0]	n/a	catFR1	0	R1674A
290.652	0.807	400605	WORD_OFF	n/a	n/a	CHEETAH	Zoo	6	-1	[0, 0, 0]	n/a	catFR1	0	R1674A
291.459	1.599	401406	WORD	n/a	n/a	LETTUCE	Vegetables	7	-1	[0, 0, 0]	n/a	catFR1	0	R1674A
293.058	0.76	403009	WORD_OFF	n/a	n/a	LETTUCE	Vegetables	7	-1	[0, 0, 0]	n/a	catFR1	0	R1674A
293.818	1.607	403772	WORD	n/a	n/a	CARROT	Vegetables	8	-1	[0, 0, 0]	n/a	catFR1	0	R1674A
295.425	0.868	405374	WORD_OFF	n/a	n/a	CARROT	Vegetables	8	-1	[0, 0, 0]	n/a	catFR1	0	R1674A
296.293	1.601	406242	WORD	n/a	n/a	SPANDEX	Fabric	9	-1	[0, 0, 0]	n/a	catFR1	0	R1674A
297.894	0.999	407845	WORD_OFF	n/a	n/a	SPANDEX	Fabric	9	-1	[0, 0, 0]	n/a	catFR1	0	R1674A
298.893	1.608	408846	WORD	n/a	n/a	COTTON	Fabric	10	-1	[0, 0, 0]	n/a	catFR1	0	R1674A
300.501	0.984	410458	WORD_OFF	n/a	n/a	COTTON	Fabric	10	-1	[0, 0, 0]	n/a	catFR1	0	R1674A
301.485	1.609	411441	WORD	n/a	n/a	MONKEY	Zoo	11	-1	[0, 0, 0]	n/a	catFR1	0	R1674A
303.094	0.781	413043	WORD_OFF	n/a	n/a	MONKEY	Zoo	11	-1	[0, 0, 0]	n/a	catFR1	0	R1674A
303.875	1.601	413825	WORD	n/a	n/a	LION	Zoo	12	-1	[0, 0, 0]	n/a	catFR1	0	R1674A
305.476	0.003	415428	WORD_OFF	n/a	n/a	LION	Zoo	12	-1	[0, 0, 0]	n/a	catFR1	0	R1674A
305.479	0.001	415428	ENCODING_END	n/a	n/a	n/a	n/a	-999	-1	[0, 0, 0]	n/a	catFR1	0	R1674A
305.48	0.0	415432	START	n/a	n/a	n/a	n/a	-999	-1	[-999, -999, -999]	n/a	catFR1	0	R1674A
305.48	0.0	415432	PROB	0.0	n/a	n/a	n/a	-999	-1	[5, 6, 6]	17	catFR1	0	R1674A
305.48	11.257	415437	DISTRACT_START	n/a	n/a	n/a	n/a	-999	-1	[0, 0, 0]	n/a	catFR1	0	R1674A
316.737	3.874	426689	PROB	3.874	n/a	n/a	n/a	-999	-1	[5, 6, 3]	14	catFR1	0	R1674A
320.611	3.007	430563	PROB	3.007	n/a	n/a	n/a	-999	-1	[2, 3, 1]	6	catFR1	0	R1674A
323.618	3.65	433570	PROB	3.65	n/a	n/a	n/a	-999	-1	[3, 7, 2]	12	catFR1	0	R1674A
327.268	0.0	437220	STOP	n/a	n/a	n/a	n/a	-999	-1	[-999, -999, -999]	n/a	catFR1	0	R1674A
327.268	2.077	437223	DISTRACT_END	n/a	n/a	n/a	n/a	-999	-1	[0, 0, 0]	n/a	catFR1	0	R1674A
329.345	2.132	439293	REC_START	n/a	n/a	n/a	n/a	-999	-1	[0, 0, 0]	n/a	catFR1	0	R1674A
331.477	1.072	441429	REC_WORD	1.072	n/a	CUCUMBER	Vegetables	1	-1	[0, 0, 0]	n/a	catFR1	0	R1674A
332.549	0.829	442501	REC_WORD	0.829	n/a	ONION	Vegetables	2	-1	[0, 0, 0]	n/a	catFR1	0	R1674A
333.378	0.928	443330	REC_WORD	0.928	n/a	SILK	Fabric	4	-1	[0, 0, 0]	n/a	catFR1	0	R1674A
334.306	1.518	444258	REC_WORD	1.518	n/a	SPANDEX	Fabric	9	-1	[0, 0, 0]	n/a	catFR1	0	R1674A
335.824	1.677	445776	REC_WORD	1.677	n/a	CHEETAH	Zoo	6	-1	[0, 0, 0]	n/a	catFR1	0	R1674A
337.501	7.233	447453	REC_WORD	7.233	n/a	ZEBRA	Zoo	5	-1	[0, 0, 0]	n/a	catFR1	0	R1674A
344.734	1.0	454686	REC_WORD_VV	1.0	n/a	<>	n/a	-999	-1	[0, 0, 0]	n/a	catFR1	0	R1674A
345.734	1.0	455686	REC_WORD_VV	1.0	n/a	<>	n/a	-999	-1	[0, 0, 0]	n/a	catFR1	0	R1674A
346.734	1.0	456686	REC_WORD_VV	1.0	n/a	<>	n/a	-999	-1	[0, 0, 0]	n/a	catFR1	0	R1674A
347.734	1.0	457686	REC_WORD_VV	1.0	n/a	<>	n/a	-999	-1	[0, 0, 0]	n/a	catFR1	0	R1674A
348.734	1.933	458686	REC_WORD_VV	1.933	n/a	<>	n/a	-999	-1	[0, 0, 0]	n/a	catFR1	0	R1674A
350.667	1.0	460619	REC_WORD_VV	1.0	n/a	<>	n/a	-999	-1	[0, 0, 0]	n/a	catFR1	0	R1674A
351.667	1.0	461619	REC_WORD_VV	1.0	n/a	<>	n/a	-999	-1	[0, 0, 0]	n/a	catFR1	0	R1674A
352.667	1.0	462619	REC_WORD_VV	1.0	n/a	<>	n/a	-999	-1	[0, 0, 0]	n/a	catFR1	0	R1674A
353.667	2.552	463619	REC_WORD_VV	2.552	n/a	<>	n/a	-999	-1	[0, 0, 0]	n/a	catFR1	0	R1674A
356.219	0.649	466171	REC_WORD_VV	0.649	n/a	<>	n/a	-999	-1	[0, 0, 0]	n/a	catFR1	0	R1674A
356.868	1.0	466820	REC_WORD	1.0	n/a	LION	Zoo	12	-1	[0, 0, 0]	n/a	catFR1	0	R1674A
357.868	0.151	467820	REC_WORD_VV	0.151	n/a	<>	n/a	-999	-1	[0, 0, 0]	n/a	catFR1	0	R1674A
358.019	0.789	467971	REC_WORD_VV	0.789	n/a	<>	n/a	-999	-1	[0, 0, 0]	n/a	catFR1	0	R1674A
358.808	0.688	468760	REC_WORD_VV	0.688	n/a	<>	n/a	-999	-1	[0, 0, 0]	n/a	catFR1	0	R1674A
359.496	11.206	469444	REC_END	n/a	n/a	n/a	n/a	-999	-1	[0, 0, 0]	n/a	catFR1	0	R1674A
370.702	10.34	480652	COUNTDOWN_START	n/a	n/a	n/a	n/a	-999	1	[0, 0, 0]	n/a	catFR1	0	R1674A
381.042	0.0	490992	COUNTDOWN_END	n/a	n/a	n/a	n/a	-999	1	[0, 0, 0]	n/a	catFR1	0	R1674A
381.042	2.183	490992	ENCODING_START	n/a	n/a	n/a	n/a	-999	1	[0, 0, 0]	n/a	catFR1	0	R1674A
383.225	1.601	493176	WORD	n/a	wordpools/wordpool_categorized_EN.txt	LADYBUG	Insects	1	1	[0, 0, 0]	n/a	catFR1	0	R1674A
384.826	0.959	494778	WORD_OFF	n/a	n/a	LADYBUG	Insects	1	1	[0, 0, 0]	n/a	catFR1	0	R1674A
385.785	1.607	495742	WORD	n/a	wordpools/wordpool_categorized_EN.txt	BEE	Insects	2	1	[0, 0, 0]	n/a	catFR1	0	R1674A
387.392	0.984	497344	WORD_OFF	n/a	n/a	BEE	Insects	2	1	[0, 0, 0]	n/a	catFR1	0	R1674A
388.376	1.609	498327	WORD	n/a	wordpools/wordpool_categorized_EN.txt	SATIN	Fabric	3	1	[0, 0, 0]	n/a	catFR1	0	R1674A
389.985	0.906	499939	WORD_OFF	n/a	n/a	SATIN	Fabric	3	1	[0, 0, 0]	n/a	catFR1	0	R1674A
390.891	1.602	500845	WORD	n/a	wordpools/wordpool_categorized_EN.txt	LINEN	Fabric	4	1	[0, 0, 0]	n/a	catFR1	0	R1674A
392.493	0.873	502447	WORD_OFF	n/a	n/a	LINEN	Fabric	4	1	[0, 0, 0]	n/a	catFR1	0	R1674A
393.366	1.602	503315	WORD	n/a	wordpools/wordpool_categorized_EN.txt	TULIP	Flowers	5	1	[0, 0, 0]	n/a	catFR1	0	R1674A
394.968	0.767	504918	WORD_OFF	n/a	n/a	TULIP	Flowers	5	1	[0, 0, 0]	n/a	catFR1	0	R1674A
395.735	1.6	505690	WORD	n/a	wordpools/wordpool_categorized_EN.txt	ROSE	Flowers	6	1	[0, 0, 0]	n/a	catFR1	0	R1674A
397.335	0.881	507283	WORD_OFF	n/a	n/a	ROSE	Flowers	6	1	[0, 0, 0]	n/a	catFR1	0	R1674A
398.216	1.602	508170	WORD	n/a	wordpools/wordpool_categorized_EN.txt	VELVET	Fabric	7	1	[0, 0, 0]	n/a	catFR1	0	R1674A
399.818	0.916	509773	WORD_OFF	n/a	n/a	VELVET	Fabric	7	1	[0, 0, 0]	n/a	catFR1	0	R1674A
400.734	1.6	510688	WORD	n/a	wordpools/wordpool_categorized_EN.txt	NYLON	Fabric	8	1	[0, 0, 0]	n/a	catFR1	0	R1674A
402.334	0.825	512281	WORD_OFF	n/a	n/a	NYLON	Fabric	8	1	[0, 0, 0]	n/a	catFR1	0	R1674A
403.159	1.6	513111	WORD	n/a	wordpools/wordpool_categorized_EN.txt	DAISY	Flowers	9	1	[0, 0, 0]	n/a	catFR1	0	R1674A
404.759	0.984	514714	WORD_OFF	n/a	n/a	DAISY	Flowers	9	1	[0, 0, 0]	n/a	catFR1	0	R1674A
405.743	1.6	515696	WORD	n/a	wordpools/wordpool_categorized_EN.txt	CARNATION	Flowers	10	1	[0, 0, 0]	n/a	catFR1	0	R1674A
407.343	0.79	517299	WORD_OFF	n/a	n/a	CARNATION	Flowers	10	1	[0, 0, 0]	n/a	catFR1	0	R1674A
408.133	1.6	518081	WORD	n/a	wordpools/wordpool_categorized_EN.txt	BEETLE	Insects	11	1	[0, 0, 0]	n/a	catFR1	0	R1674A
409.733	0.851	519683	WORD_OFF	n/a	n/a	BEETLE	Insects	11	1	[0, 0, 0]	n/a	catFR1	0	R1674A
410.584	1.6	520532	WORD	n/a	wordpools/wordpool_categorized_EN.txt	FLY	Insects	12	1	[0, 0, 0]	n/a	catFR1	0	R1674A
412.184	0.0	522135	WORD_OFF	n/a	n/a	FLY	Insects	12	1	[0, 0, 0]	n/a	catFR1	0	R1674A
412.184	0.004	522136	PROB	0.004	n/a	n/a	n/a	-999	1	[7, 2, 8]	17	catFR1	0	R1674A
412.188	0.0	522140	START	n/a	n/a	n/a	n/a	-999	1	[-999, -999, -999]	n/a	catFR1	0	R1674A
412.188	0.0	522144	ENCODING_END	n/a	n/a	n/a	n/a	-999	1	[0, 0, 0]	n/a	catFR1	0	R1674A
412.188	9.03	522144	DISTRACT_START	n/a	n/a	n/a	n/a	-999	1	[0, 0, 0]	n/a	catFR1	0	R1674A
421.218	5.043	531170	PROB	5.043	n/a	n/a	n/a	-999	1	[4, 4, 5]	13	catFR1	0	R1674A
426.261	2.806	536213	PROB	2.806	n/a	n/a	n/a	-999	1	[4, 8, 1]	13	catFR1	0	R1674A
429.067	2.784	539019	PROB	2.784	n/a	n/a	n/a	-999	1	[4, 1, 2]	7	catFR1	0	R1674A
431.851	3.618	541803	PROB	3.618	n/a	n/a	n/a	-999	1	[8, 1, 6]	15	catFR1	0	R1674A
435.469	0.0	545418	DISTRACT_END	n/a	n/a	n/a	n/a	-999	1	[0, 0, 0]	n/a	catFR1	0	R1674A
435.469	2.25	545421	STOP	n/a	n/a	n/a	n/a	-999	1	[-999, -999, -999]	n/a	catFR1	0	R1674A
437.719	0.868	547669	REC_START	n/a	n/a	n/a	n/a	-999	1	[0, 0, 0]	n/a	catFR1	0	R1674A
438.587	2.321	548539	REC_WORD	2.321	n/a	LADYBUG	Insects	1	1	[0, 0, 0]	n/a	catFR1	0	R1674A
440.908	0.975	550860	REC_WORD_VV	0.975	n/a	<>	n/a	-999	1	[0, 0, 0]	n/a	catFR1	0	R1674A
441.883	0.567	551835	REC_WORD_VV	0.567	n/a	<>	n/a	-999	1	[0, 0, 0]	n/a	catFR1	0	R1674A
442.45	1.743	552402	REC_WORD	1.743	n/a	LINEN	Fabric	4	1	[0, 0, 0]	n/a	catFR1	0	R1674A
444.193	1.899	554145	REC_WORD_VV	1.899	n/a	<>	n/a	-999	1	[0, 0, 0]	n/a	catFR1	0	R1674A
446.092	3.597	556044	REC_WORD_VV	3.597	n/a	<>	n/a	-999	1	[0, 0, 0]	n/a	catFR1	0	R1674A
449.689	0.886	559641	REC_WORD	0.886	n/a	LADYBUG	Insects	1	1	[0, 0, 0]	n/a	catFR1	0	R1674A
450.575	3.181	560527	REC_WORD	3.181	n/a	LINEN	Fabric	4	1	[0, 0, 0]	n/a	catFR1	0	R1674A
453.756	1.0	563708	REC_WORD_VV	1.0	n/a	<>	n/a	-999	1	[0, 0, 0]	n/a	catFR1	0	R1674A
454.756	1.0	564708	REC_WORD_VV	1.0	n/a	<>	n/a	-999	1	[0, 0, 0]	n/a	catFR1	0	R1674A
455.756	2.02	565708	REC_WORD_VV	2.02	n/a	<>	n/a	-999	1	[0, 0, 0]	n/a	catFR1	0	R1674A
457.776	1.992	567728	REC_WORD	1.992	n/a	CARNATION	Flowers	10	1	[0, 0, 0]	n/a	catFR1	0	R1674A
459.768	2.296	569720	REC_WORD_VV	2.296	n/a	<>	n/a	-999	1	[0, 0, 0]	n/a	catFR1	0	R1674A
462.064	5.802	572016	REC_WORD	5.802	n/a	BEETLE	Insects	11	1	[0, 0, 0]	n/a	catFR1	0	R1674A
467.866	2.152	577820	REC_END	n/a	n/a	n/a	n/a	-999	1	[0, 0, 0]	n/a	catFR1	0	R1674A
470.018	10.341	579976	COUNTDOWN_START	n/a	n/a	n/a	n/a	-999	2	[0, 0, 0]	n/a	catFR1	0	R1674A
480.359	0.0	590306	COUNTDOWN_END	n/a	n/a	n/a	n/a	-999	2	[0, 0, 0]	n/a	catFR1	0	R1674A
480.359	2.01	590315	ENCODING_START	n/a	n/a	n/a	n/a	-999	2	[0, 0, 0]	n/a	catFR1	0	R1674A
482.369	1.607	592319	WORD	n/a	wordpools/wordpool_categorized_EN.txt	DRILL	Tools	1	2	[0, 0, 0]	n/a	catFR1	0	R1674A
483.976	0.933	593931	WORD_OFF	n/a	n/a	DRILL	Tools	1	2	[0, 0, 0]	n/a	catFR1	0	R1674A
484.909	1.6	594865	WORD	n/a	wordpools/wordpool_categorized_EN.txt	SANDER	Tools	2	2	[0, 0, 0]	n/a	catFR1	0	R1674A
486.509	0.877	596458	WORD_OFF	n/a	n/a	SANDER	Tools	2	2	[0, 0, 0]	n/a	catFR1	0	R1674A
487.386	1.606	597336	WORD	n/a	wordpools/wordpool_categorized_EN.txt	PIE	Desserts	3	2	[0, 0, 0]	n/a	catFR1	0	R1674A
488.992	0.817	598938	WORD_OFF	n/a	n/a	PIE	Desserts	3	2	[0, 0, 0]	n/a	catFR1	0	R1674A
489.809	1.6	599759	WORD	n/a	wordpools/wordpool_categorized_EN.txt	CAKE	Desserts	4	2	[0, 0, 0]	n/a	catFR1	0	R1674A
491.409	0.908	601361	WORD_OFF	n/a	n/a	CAKE	Desserts	4	2	[0, 0, 0]	n/a	catFR1	0	R1674A
492.317	1.602	602267	WORD	n/a	wordpools/wordpool_categorized_EN.txt	DOOR	Building	5	2	[0, 0, 0]	n/a	catFR1	0	R1674A
493.919	0.799	603870	WORD_OFF	n/a	n/a	DOOR	Building	5	2	[0, 0, 0]	n/a	catFR1	0	R1674A
494.718	1.601	604671	WORD	n/a	wordpools/wordpool_categorized_EN.txt	STAIRS	Building	6	2	[0, 0, 0]	n/a	catFR1	0	R1674A
496.319	0.974	606273	WORD_OFF	n/a	n/a	STAIRS	Building	6	2	[0, 0, 0]	n/a	catFR1	0	R1674A
497.293	1.609	607246	WORD	n/a	wordpools/wordpool_categorized_EN.txt	WRENCH	Tools	7	2	[0, 0, 0]	n/a	catFR1	0	R1674A
498.902	0.902	608858	WORD_OFF	n/a	n/a	WRENCH	Tools	7	2	[0, 0, 0]	n/a	catFR1	0	R1674A
499.804	1.599	609755	WORD	n/a	wordpools/wordpool_categorized_EN.txt	HAMMER	Tools	8	2	[0, 0, 0]	n/a	catFR1	0	R1674A
501.403	0.999	611357	WORD_OFF	n/a	n/a	HAMMER	Tools	8	2	[0, 0, 0]	n/a	catFR1	0	R1674A
502.402	1.608	612349	WORD	n/a	wordpools/wordpool_categorized_EN.txt	FLOOR	Building	9	2	[0, 0, 0]	n/a	catFR1	0	R1674A
504.01	0.849	613961	WORD_OFF	n/a	n/a	FLOOR	Building	9	2	[0, 0, 0]	n/a	catFR1	0	R1674A
504.859	1.601	614810	WORD	n/a	wordpools/wordpool_categorized_EN.txt	CEILING	Building	10	2	[0, 0, 0]	n/a	catFR1	0	R1674A
506.46	0.891	616413	WORD_OFF	n/a	n/a	CEILING	Building	10	2	[0, 0, 0]	n/a	catFR1	0	R1674A
507.351	1.608	617300	WORD	n/a	wordpools/wordpool_categorized_EN.txt	CHEESECAKE	Desserts	11	2	[0, 0, 0]	n/a	catFR1	0	R1674A
508.959	0.818	618912	WORD_OFF	n/a	n/a	CHEESECAKE	Desserts	11	2	[0, 0, 0]	n/a	catFR1	0	R1674A
509.777	1.61	619732	WORD	n/a	wordpools/wordpool_categorized_EN.txt	JELLO	Desserts	12	2	[0, 0, 0]	n/a	catFR1	0	R1674A
511.387	0.0	621335	WORD_OFF	n/a	n/a	JELLO	Desserts	12	2	[0, 0, 0]	n/a	catFR1	0	R1674A
511.384	0.007	621335	PROB	0.007	n/a	n/a	n/a	-999	2	[3, 7, 1]	11	catFR1	0	R1674A
511.391	0.0	621342	START	n/a	n/a	n/a	n/a	-999	2	[-999, -999, -999]	n/a	catFR1	0	R1674A
511.391	0.0	621344	ENCODING_END	n/a	n/a	n/a	n/a	-999	2	[0, 0, 0]	n/a	catFR1	0	R1674A
511.391	8.876	621344	DISTRACT_START	n/a	n/a	n/a	n/a	-999	2	[0, 0, 0]	n/a	catFR1	0	R1674A
520.267	3.125	630218	PROB	3.125	n/a	n/a	n/a	-999	2	[2, 8, 5]	15	catFR1	0	R1674A
523.392	5.05	633343	PROB	5.05	n/a	n/a	n/a	-999	2	[5, 3, 4]	12	catFR1	0	R1674A
528.442	5.4	638393	PROB	5.4	n/a	n/a	n/a	-999	2	[5, 7, 1]	13	catFR1	0	R1674A
533.842	0.0	643788	DISTRACT_END	n/a	n/a	n/a	n/a	-999	2	[0, 0, 0]	n/a	catFR1	0	R1674A
533.842	2.2	643793	STOP	n/a	n/a	n/a	n/a	-999	2	[-999, -999, -999]	n/a	catFR1	0	R1674A
536.042	2.414	645991	REC_START	n/a	n/a	n/a	n/a	-999	2	[0, 0, 0]	n/a	catFR1	0	R1674A
538.456	1.161	648407	REC_WORD_VV	1.161	n/a	<>	n/a	-999	2	[0, 0, 0]	n/a	catFR1	0	R1674A
539.617	0.838	649568	REC_WORD_VV	0.838	n/a	<>	n/a	-999	2	[0, 0, 0]	n/a	catFR1	0	R1674A
540.455	0.542	650406	REC_WORD_VV	0.542	n/a	<>	n/a	-999	2	[0, 0, 0]	n/a	catFR1	0	R1674A
540.997	3.517	650948	REC_WORD	3.517	n/a	DRILL	Tools	1	2	[0, 0, 0]	n/a	catFR1	0	R1674A
544.514	4.775	654465	REC_WORD	4.775	n/a	CHEESECAKE	Desserts	11	2	[0, 0, 0]	n/a	catFR1	0	R1674A
549.289	7.506	659240	REC_WORD_VV	7.506	n/a	<>	n/a	-999	2	[0, 0, 0]	n/a	catFR1	0	R1674A
556.795	0.541	666746	REC_WORD	0.541	n/a	DRILL	Tools	1	2	[0, 0, 0]	n/a	catFR1	0	R1674A
557.336	2.983	667287	REC_WORD	2.983	n/a	CHEESECAKE	Desserts	11	2	[0, 0, 0]	n/a	catFR1	0	R1674A
560.319	1.0	670270	REC_WORD_VV	1.0	n/a	<>	n/a	-999	2	[0, 0, 0]	n/a	catFR1	0	R1674A
561.319	1.0	671270	REC_WORD_VV	1.0	n/a	<>	n/a	-999	2	[0, 0, 0]	n/a	catFR1	0	R1674A
562.319	3.864	672270	REC_WORD_VV	3.864	n/a	<>	n/a	-999	2	[0, 0, 0]	n/a	catFR1	0	R1674A
566.183	2.801	676133	REC_END	n/a	n/a	n/a	n/a	-999	2	[0, 0, 0]	n/a	catFR1	0	R1674A
568.984	10.341	678937	COUNTDOWN_START	n/a	n/a	n/a	n/a	-999	3	[0, 0, 0]	n/a	catFR1	0	R1674A
579.325	0.0	689277	COUNTDOWN_END	n/a	n/a	n/a	n/a	-999	3	[0, 0, 0]	n/a	catFR1	0	R1674A
579.325	1.784	689277	ENCODING_START	n/a	n/a	n/a	n/a	-999	3	[0, 0, 0]	n/a	catFR1	0	R1674A
581.109	1.609	691061	WORD	n/a	wordpools/wordpool_categorized_EN.txt	GOOSE	Birds	1	3	[0, 0, 0]	n/a	catFR1	0	R1674A
582.718	0.925	692673	WORD_OFF	n/a	n/a	GOOSE	Birds	1	3	[0, 0, 0]	n/a	catFR1	0	R1674A
583.643	1.599	693598	WORD	n/a	wordpools/wordpool_categorized_EN.txt	HAWK	Birds	2	3	[0, 0, 0]	n/a	catFR1	0	R1674A
585.242	0.775	695191	WORD_OFF	n/a	n/a	HAWK	Birds	2	3	[0, 0, 0]	n/a	catFR1	0	R1674A
586.017	1.6	695963	WORD	n/a	wordpools/wordpool_categorized_EN.txt	ROOSTER	FarmAnimals	3	3	[0, 0, 0]	n/a	catFR1	0	R1674A
587.617	0.891	697566	WORD_OFF	n/a	n/a	ROOSTER	FarmAnimals	3	3	[0, 0, 0]	n/a	catFR1	0	R1674A
588.508	1.601	698462	WORD	n/a	wordpools/wordpool_categorized_EN.txt	SHEEP	FarmAnimals	4	3	[0, 0, 0]	n/a	catFR1	0	R1674A
590.109	0.759	700055	WORD_OFF	n/a	n/a	SHEEP	FarmAnimals	4	3	[0, 0, 0]	n/a	catFR1	0	R1674A
590.868	1.601	700818	WORD	n/a	wordpools/wordpool_categorized_EN.txt	TOASTER	Appliances	5	3	[0, 0, 0]	n/a	catFR1	0	R1674A
592.469	0.84	702421	WORD_OFF	n/a	n/a	TOASTER	Appliances	5	3	[0, 0, 0]	n/a	catFR1	0	R1674A
593.309	1.599	703260	WORD	n/a	wordpools/wordpool_categorized_EN.txt	BLENDER	Appliances	6	3	[0, 0, 0]	n/a	catFR1	0	R1674A
594.908	0.776	704863	WORD_OFF	n/a	n/a	BLENDER	Appliances	6	3	[0, 0, 0]	n/a	catFR1	0	R1674A
595.684	1.6	705635	WORD	n/a	wordpools/wordpool_categorized_EN.txt	ROBIN	Birds	7	3	[0, 0, 0]	n/a	catFR1	0	R1674A
597.284	0.885	707238	WORD_OFF	n/a	n/a	ROBIN	Birds	7	3	[0, 0, 0]	n/a	catFR1	0	R1674A
598.169	1.6	708125	WORD	n/a	wordpools/wordpool_categorized_EN.txt	PIGEON	Birds	8	3	[0, 0, 0]	n/a	catFR1	0	R1674A
599.769	0.874	709727	WORD_OFF	n/a	n/a	PIGEON	Birds	8	3	[0, 0, 0]	n/a	catFR1	0	R1674A
600.643	1.609	710595	WORD	n/a	wordpools/wordpool_categorized_EN.txt	COW	FarmAnimals	9	3	[0, 0, 0]	n/a	catFR1	0	R1674A
602.252	0.8	712207	WORD_OFF	n/a	n/a	COW	FarmAnimals	9	3	[0, 0, 0]	n/a	catFR1	0	R1674A
603.052	1.608	712999	WORD	n/a	wordpools/wordpool_categorized_EN.txt	CHICKEN	FarmAnimals	10	3	[0, 0, 0]	n/a	catFR1	0	R1674A
604.66	0.992	714611	WORD_OFF	n/a	n/a	CHICKEN	FarmAnimals	10	3	[0, 0, 0]	n/a	catFR1	0	R1674A
605.652	1.6	715603	WORD	n/a	wordpools/wordpool_categorized_EN.txt	REFRIGERATOR	Appliances	11	3	[0, 0, 0]	n/a	catFR1	0	R1674A
607.252	0.909	717206	WORD_OFF	n/a	n/a	REFRIGERATOR	Appliances	11	3	[0, 0, 0]	n/a	catFR1	0	R1674A
608.161	1.608	718112	WORD	n/a	wordpools/wordpool_categorized_EN.txt	WASHER	Appliances	12	3	[0, 0, 0]	n/a	catFR1	0	R1674A
609.769	0.003	719720	PROB	0.003	n/a	n/a	n/a	-999	3	[8, 3, 3]	14	catFR1	0	R1674A
609.772	0.0	719723	START	n/a	n/a	n/a	n/a	-999	3	[-999, -999, -999]	n/a	catFR1	0	R1674A
609.768	0.004	719724	WORD_OFF	n/a	n/a	WASHER	Appliances	12	3	[0, 0, 0]	n/a	catFR1	0	R1674A
609.772	0.0	719724	ENCODING_END	n/a	n/a	n/a	n/a	-999	3	[0, 0, 0]	n/a	catFR1	0	R1674A
609.772	7.405	719724	DISTRACT_START	n/a	n/a	n/a	n/a	-999	3	[0, 0, 0]	n/a	catFR1	0	R1674A
617.177	9.249	727128	PROB	9.249	n/a	n/a	n/a	-999	3	[2, 6, 4]	13	catFR1	0	R1674A
626.426	5.042	736377	PROB	5.042	n/a	n/a	n/a	-999	3	[4, 8, 1]	13	catFR1	0	R1674A
631.468	0.0	741419	STOP	n/a	n/a	n/a	n/a	-999	3	[-999, -999, -999]	n/a	catFR1	0	R1674A
631.468	2.24	741424	DISTRACT_END	n/a	n/a	n/a	n/a	-999	3	[0, 0, 0]	n/a	catFR1	0	R1674A
633.708	0.935	743656	REC_START	n/a	n/a	n/a	n/a	-999	3	[0, 0, 0]	n/a	catFR1	0	R1674A
634.643	4.662	744594	REC_WORD	4.662	n/a	PIGEON	Birds	8	3	[0, 0, 0]	n/a	catFR1	0	R1674A
639.305	1.261	749256	REC_WORD_VV	1.261	n/a	<>	n/a	-999	3	[0, 0, 0]	n/a	catFR1	0	R1674A
640.566	1.463	750517	REC_WORD	1.463	n/a	ROOSTER	FarmAnimals	3	3	[0, 0, 0]	n/a	catFR1	0	R1674A
642.029	7.603	751980	REC_WORD	7.603	n/a	COW	FarmAnimals	9	3	[0, 0, 0]	n/a	catFR1	0	R1674A
649.632	13.57	759583	REC_WORD	13.57	n/a	GOOSE	Birds	1	3	[0, 0, 0]	n/a	catFR1	0	R1674A
663.202	0.641	773153	REC_WORD_VV	0.641	n/a	<>	n/a	-999	3	[0, 0, 0]	n/a	catFR1	0	R1674A
663.843	2.042	773797	REC_END	n/a	n/a	n/a	n/a	-999	3	[0, 0, 0]	n/a	catFR1	0	R1674A
665.885	10.341	775838	COUNTDOWN_START	n/a	n/a	n/a	n/a	-999	4	[0, 0, 0]	n/a	catFR1	0	R1674A
676.226	0.0	786178	COUNTDOWN_END	n/a	n/a	n/a	n/a	-999	4	[0, 0, 0]	n/a	catFR1	0	R1674A
676.226	2.043	786178	ENCODING_START	n/a	n/a	n/a	n/a	-999	4	[0, 0, 0]	n/a	catFR1	0	R1674A
678.269	1.608	788219	WORD	n/a	wordpools/wordpool_categorized_EN.txt	KNIFE	KitchenTools	1	4	[0, 0, 0]	n/a	catFR1	0	R1674A
679.877	0.958	789831	WORD_OFF	n/a	n/a	KNIFE	KitchenTools	1	4	[0, 0, 0]	n/a	catFR1	0	R1674A
680.835	1.609	790785	WORD	n/a	wordpools/wordpool_categorized_EN.txt	TONGS	KitchenTools	2	4	[0, 0, 0]	n/a	catFR1	0	R1674A
682.444	0.8	792397	WORD_OFF	n/a	n/a	TONGS	KitchenTools	2	4	[0, 0, 0]	n/a	catFR1	0	R1674A
683.244	1.608	793198	WORD	n/a	wordpools/wordpool_categorized_EN.txt	CARDINAL	Birds	3	4	[0, 0, 0]	n/a	catFR1	0	R1674A
684.852	0.95	794801	WORD_OFF	n/a	n/a	CARDINAL	Birds	3	4	[0, 0, 0]	n/a	catFR1	0	R1674A
685.802	1.608	795755	WORD	n/a	wordpools/wordpool_categorized_EN.txt	SPARROW	Birds	4	4	[0, 0, 0]	n/a	catFR1	0	R1674A
687.41	0.856	797357	WORD_OFF	n/a	n/a	SPARROW	Birds	4	4	[0, 0, 0]	n/a	catFR1	0	R1674A
688.266	1.602	798216	WORD	n/a	wordpools/wordpool_categorized_EN.txt	CHAIR	Furniture	5	4	[0, 0, 0]	n/a	catFR1	0	R1674A
689.868	0.833	799818	WORD_OFF	n/a	n/a	CHAIR	Furniture	5	4	[0, 0, 0]	n/a	catFR1	0	R1674A
690.701	1.6	800648	WORD	n/a	wordpools/wordpool_categorized_EN.txt	CABINET	Furniture	6	4	[0, 0, 0]	n/a	catFR1	0	R1674A
692.301	0.776	802250	WORD_OFF	n/a	n/a	CABINET	Furniture	6	4	[0, 0, 0]	n/a	catFR1	0	R1674A
693.077	1.607	803023	WORD	n/a	wordpools/wordpool_categorized_EN.txt	PEELER	KitchenTools	7	4	[0, 0, 0]	n/a	catFR1	0	R1674A
694.684	0.894	804635	WORD_OFF	n/a	n/a	PEELER	KitchenTools	7	4	[0, 0, 0]	n/a	catFR1	0	R1674A
695.578	1.607	805532	WORD	n/a	wordpools/wordpool_categorized_EN.txt	FORK	KitchenTools	8	4	[0, 0, 0]	n/a	catFR1	0	R1674A
697.185	0.792	807134	WORD_OFF	n/a	n/a	FORK	KitchenTools	8	4	[0, 0, 0]	n/a	catFR1	0	R1674A
697.977	1.607	807926	WORD	n/a	wordpools/wordpool_categorized_EN.txt	RECLINER	Furniture	9	4	[0, 0, 0]	n/a	catFR1	0	R1674A
699.584	0.992	809538	WORD_OFF	n/a	n/a	RECLINER	Furniture	9	4	[0, 0, 0]	n/a	catFR1	0	R1674A
700.576	1.599	810530	WORD	n/a	wordpools/wordpool_categorized_EN.txt	COUCH	Furniture	10	4	[0, 0, 0]	n/a	catFR1	0	R1674A
702.175	0.935	812123	WORD_OFF	n/a	n/a	COUCH	Furniture	10	4	[0, 0, 0]	n/a	catFR1	0	R1674A
703.11	1.602	813057	WORD	n/a	wordpools/wordpool_categorized_EN.txt	DUCK	Birds	11	4	[0, 0, 0]	n/a	catFR1	0	R1674A
704.712	0.906	814660	WORD_OFF	n/a	n/a	DUCK	Birds	11	4	[0, 0, 0]	n/a	catFR1	0	R1674A
705.618	1.609	815566	WORD	n/a	wordpools/wordpool_categorized_EN.txt	DOVE	Birds	12	4	[0, 0, 0]	n/a	catFR1	0	R1674A
707.227	0.003	817178	WORD_OFF	n/a	n/a	DOVE	Birds	12	4	[0, 0, 0]	n/a	catFR1	0	R1674A
707.23	0.0	817178	ENCODING_END	n/a	n/a	n/a	n/a	-999	4	[0, 0, 0]	n/a	catFR1	0	R1674A
707.23	0.0	817178	DISTRACT_START	n/a	n/a	n/a	n/a	-999	4	[0, 0, 0]	n/a	catFR1	0	R1674A
707.228	0.002	817179	PROB	0.002	n/a	n/a	n/a	-999	4	[3, 6, 1]	10	catFR1	0	R1674A
707.23	3.904	817181	START	n/a	n/a	n/a	n/a	-999	4	[-999, -999, -999]	n/a	catFR1	0	R1674A
711.134	4.384	821085	PROB	4.384	n/a	n/a	n/a	-999	4	[3, 1, 4]	8	catFR1	0	R1674A
715.518	3.983	825469	PROB	3.983	n/a	n/a	n/a	-999	4	[2, 4, 7]	12	catFR1	0	R1674A
719.501	4.467	829452	PROB	4.467	n/a	n/a	n/a	-999	4	[3, 3, 5]	11	catFR1	0	R1674A
723.968	5.009	833919	PROB	5.009	n/a	n/a	n/a	-999	4	[5, 1, 7]	13	catFR1	0	R1674A
728.977	0.0	838926	DISTRACT_END	n/a	n/a	n/a	n/a	-999	4	[0, 0, 0]	n/a	catFR1	0	R1674A
728.977	2.032	838928	STOP	n/a	n/a	n/a	n/a	-999	4	[-999, -999, -999]	n/a	catFR1	0	R1674A
731.009	3.094	840957	REC_START	n/a	n/a	n/a	n/a	-999	4	[0, 0, 0]	n/a	catFR1	0	R1674A
734.103	0.652	844053	REC_WORD	0.652	n/a	CARDINAL	Birds	3	4	[0, 0, 0]	n/a	catFR1	0	R1674A
734.755	1.533	844705	REC_WORD	1.533	n/a	SPARROW	Birds	4	4	[0, 0, 0]	n/a	catFR1	0	R1674A
736.288	2.977	846238	REC_WORD_VV	2.977	n/a	<>	n/a	-999	4	[0, 0, 0]	n/a	catFR1	0	R1674A
739.265	0.348	849215	REC_WORD_VV	0.348	n/a	<>	n/a	-999	4	[0, 0, 0]	n/a	catFR1	0	R1674A
739.613	2.924	849563	REC_WORD	2.924	n/a	KNIFE	KitchenTools	1	4	[0, 0, 0]	n/a	catFR1	0	R1674A
742.537	1.232	852487	REC_WORD_VV	1.232	n/a	<>	n/a	-999	4	[0, 0, 0]	n/a	catFR1	0	R1674A
743.769	2.565	853719	REC_WORD	2.565	n/a	PEELER	KitchenTools	7	4	[0, 0, 0]	n/a	catFR1	0	R1674A
746.334	0.789	856284	REC_WORD_VV	0.789	n/a	<>	n/a	-999	4	[0, 0, 0]	n/a	catFR1	0	R1674A
747.123	0.562	857073	REC_WORD_VV	0.562	n/a	<>	n/a	-999	4	[0, 0, 0]	n/a	catFR1	0	R1674A
747.685	0.855	857635	REC_WORD	0.855	n/a	WRENCH	Tools	-999	4	[0, 0, 0]	n/a	catFR1	0	R1674A
748.54	0.672	858490	REC_WORD_VV	0.672	n/a	<>	n/a	-999	4	[0, 0, 0]	n/a	catFR1	0	R1674A
749.212	11.93	859162	REC_WORD_VV	11.93	n/a	<>	n/a	-999	4	[0, 0, 0]	n/a	catFR1	0	R1674A
761.142	1.792	871089	REC_END	n/a	n/a	n/a	n/a	-999	4	[0, 0, 0]	n/a	catFR1	0	R1674A
762.934	10.344	872883	COUNTDOWN_START	n/a	n/a	n/a	n/a	-999	5	[0, 0, 0]	n/a	catFR1	0	R1674A
773.278	0.0	883232	COUNTDOWN_END	n/a	n/a	n/a	n/a	-999	5	[0, 0, 0]	n/a	catFR1	0	R1674A
773.278	2.124	883232	ENCODING_START	n/a	n/a	n/a	n/a	-999	5	[0, 0, 0]	n/a	catFR1	0	R1674A
775.402	1.608	885349	WORD	n/a	wordpools/wordpool_categorized_EN.txt	STOVE	Appliances	1	5	[0, 0, 0]	n/a	catFR1	0	R1674A
777.01	0.873	886961	WORD_OFF	n/a	n/a	STOVE	Appliances	1	5	[0, 0, 0]	n/a	catFR1	0	R1674A
777.883	1.602	887829	WORD	n/a	wordpools/wordpool_categorized_EN.txt	DISHWASHER	Appliances	2	5	[0, 0, 0]	n/a	catFR1	0	R1674A
779.485	0.883	889432	WORD_OFF	n/a	n/a	DISHWASHER	Appliances	2	5	[0, 0, 0]	n/a	catFR1	0	R1674A
780.368	1.6	890319	WORD	n/a	wordpools/wordpool_categorized_EN.txt	STEREO	Electronics	3	5	[0, 0, 0]	n/a	catFR1	0	R1674A
781.968	0.817	891921	WORD_OFF	n/a	n/a	STEREO	Electronics	3	5	[0, 0, 0]	n/a	catFR1	0	R1674A
782.785	1.607	892732	WORD	n/a	wordpools/wordpool_categorized_EN.txt	HEADPHONES	Electronics	4	5	[0, 0, 0]	n/a	catFR1	0	R1674A
784.392	0.767	894344	WORD_OFF	n/a	n/a	HEADPHONES	Electronics	4	5	[0, 0, 0]	n/a	catFR1	0	R1674A
785.159	1.601	895107	WORD	n/a	wordpools/wordpool_categorized_EN.txt	TRUMPET	Instruments	5	5	[0, 0, 0]	n/a	catFR1	0	R1674A
786.76	0.809	896710	WORD_OFF	n/a	n/a	TRUMPET	Instruments	5	5	[0, 0, 0]	n/a	catFR1	0	R1674A
787.569	1.606	897521	WORD	n/a	wordpools/wordpool_categorized_EN.txt	FLUTE	Instruments	6	5	[0, 0, 0]	n/a	catFR1	0	R1674A
789.175	0.977	899123	WORD_OFF	n/a	n/a	FLUTE	Instruments	6	5	[0, 0, 0]	n/a	catFR1	0	R1674A
790.152	1.607	900105	WORD	n/a	wordpools/wordpool_categorized_EN.txt	VACUUM	Appliances	7	5	[0, 0, 0]	n/a	catFR1	0	R1674A
791.759	0.859	901708	WORD_OFF	n/a	n/a	VACUUM	Appliances	7	5	[0, 0, 0]	n/a	catFR1	0	R1674A
792.618	1.6	902566	WORD	n/a	wordpools/wordpool_categorized_EN.txt	DRYER	Appliances	8	5	[0, 0, 0]	n/a	catFR1	0	R1674A
794.218	0.933	904169	WORD_OFF	n/a	n/a	DRYER	Appliances	8	5	[0, 0, 0]	n/a	catFR1	0	R1674A
795.151	1.607	905104	WORD	n/a	wordpools/wordpool_categorized_EN.txt	DRUM	Instruments	9	5	[0, 0, 0]	n/a	catFR1	0	R1674A
796.758	1.001	906706	WORD_OFF	n/a	n/a	DRUM	Instruments	9	5	[0, 0, 0]	n/a	catFR1	0	R1674A
797.759	1.609	907708	WORD	n/a	wordpools/wordpool_categorized_EN.txt	PIANO	Instruments	10	5	[0, 0, 0]	n/a	catFR1	0	R1674A
799.368	0.833	909320	WORD_OFF	n/a	n/a	PIANO	Instruments	10	5	[0, 0, 0]	n/a	catFR1	0	R1674A
800.201	1.601	910149	WORD	n/a	wordpools/wordpool_categorized_EN.txt	TELEVISION	Electronics	11	5	[0, 0, 0]	n/a	catFR1	0	R1674A
801.802	0.766	911752	WORD_OFF	n/a	n/a	TELEVISION	Electronics	11	5	[0, 0, 0]	n/a	catFR1	0	R1674A
802.568	1.6	912515	WORD	n/a	wordpools/wordpool_categorized_EN.txt	PHONE	Electronics	12	5	[0, 0, 0]	n/a	catFR1	0	R1674A
804.168	0.003	914117	WORD_OFF	n/a	n/a	PHONE	Electronics	12	5	[0, 0, 0]	n/a	catFR1	0	R1674A
804.171	0.0	914117	ENCODING_END	n/a	n/a	n/a	n/a	-999	5	[0, 0, 0]	n/a	catFR1	0	R1674A
804.168	0.003	914118	PROB	0.003	n/a	n/a	n/a	-999	5	[7, 2, 2]	11	catFR1	0	R1674A
804.171	0.0	914121	START	n/a	n/a	n/a	n/a	-999	5	[-999, -999, -999]	n/a	catFR1	0	R1674A
804.171	4.789	914127	DISTRACT_START	n/a	n/a	n/a	n/a	-999	5	[0, 0, 0]	n/a	catFR1	0	R1674A
808.96	3.841	918910	PROB	3.841	n/a	n/a	n/a	-999	5	[6, 8, 1]	15	catFR1	0	R1674A
812.801	3.841	922751	PROB	3.841	n/a	n/a	n/a	-999	5	[7, 1, 7]	15	catFR1	0	R1674A
816.642	3.009	926592	PROB	3.009	n/a	n/a	n/a	-999	5	[7, 2, 8]	17	catFR1	0	R1674A
819.651	3.126	929601	PROB	3.126	n/a	n/a	n/a	-999	5	[6, 8, 1]	15	catFR1	0	R1674A
822.777	6.697	932727	PROB	6.697	n/a	n/a	n/a	-999	5	[4, 3, 6]	13	catFR1	0	R1674A
829.474	0.0	939423	DISTRACT_END	n/a	n/a	n/a	n/a	-999	5	[0, 0, 0]	n/a	catFR1	0	R1674A
829.474	2.402	939424	STOP	n/a	n/a	n/a	n/a	-999	5	[-999, -999, -999]	n/a	catFR1	0	R1674A
831.876	2.084	941827	REC_START	n/a	n/a	n/a	n/a	-999	5	[0, 0, 0]	n/a	catFR1	0	R1674A
833.96	1.417	943910	REC_WORD	1.417	n/a	STOVE	Appliances	1	5	[0, 0, 0]	n/a	catFR1	0	R1674A
835.377	1.778	945327	REC_WORD_VV	1.778	n/a	<>	n/a	-999	5	[0, 0, 0]	n/a	catFR1	0	R1674A
837.155	5.503	947105	REC_WORD_VV	5.503	n/a	<>	n/a	-999	5	[0, 0, 0]	n/a	catFR1	0	R1674A
842.658	0.999	952608	REC_WORD_VV	0.999	n/a	<>	n/a	-999	5	[0, 0, 0]	n/a	catFR1	0	R1674A
843.657	1.0	953607	REC_WORD_VV	1.0	n/a	<>	n/a	-999	5	[0, 0, 0]	n/a	catFR1	0	R1674A
844.657	11.292	954607	REC_WORD_VV	11.292	n/a	<>	n/a	-999	5	[0, 0, 0]	n/a	catFR1	0	R1674A
855.949	1.0	965899	REC_WORD_VV	1.0	n/a	<>	n/a	-999	5	[0, 0, 0]	n/a	catFR1	0	R1674A
856.949	1.0	966899	REC_WORD_VV	1.0	n/a	<>	n/a	-999	5	[0, 0, 0]	n/a	catFR1	0	R1674A
857.949	2.389	967899	REC_WORD_VV	2.389	n/a	<>	n/a	-999	5	[0, 0, 0]	n/a	catFR1	0	R1674A
860.338	1.079	970288	REC_WORD	1.079	n/a	ROBIN	Birds	-999	5	[0, 0, 0]	n/a	catFR1	0	R1674A
861.417	0.592	971367	REC_WORD_VV	0.592	n/a	<>	n/a	-999	5	[0, 0, 0]	n/a	catFR1	0	R1674A
862.009	2.491	971959	REC_END	n/a	n/a	n/a	n/a	-999	5	[0, 0, 0]	n/a	catFR1	0	R1674A
864.5	10.344	974448	COUNTDOWN_START	n/a	n/a	n/a	n/a	-999	6	[0, 0, 0]	n/a	catFR1	0	R1674A
874.844	0.001	984797	COUNTDOWN_END	n/a	n/a	n/a	n/a	-999	6	[0, 0, 0]	n/a	catFR1	0	R1674A
874.845	2.322	984797	ENCODING_START	n/a	n/a	n/a	n/a	-999	6	[0, 0, 0]	n/a	catFR1	0	R1674A
877.167	1.602	987115	WORD	n/a	wordpools/wordpool_categorized_EN.txt	CREEK	Landscapes	1	6	[0, 0, 0]	n/a	catFR1	0	R1674A
878.769	0.906	988718	WORD_OFF	n/a	n/a	CREEK	Landscapes	1	6	[0, 0, 0]	n/a	catFR1	0	R1674A
879.675	1.6	989624	WORD	n/a	wordpools/wordpool_categorized_EN.txt	FOREST	Landscapes	2	6	[0, 0, 0]	n/a	catFR1	0	R1674A
881.275	0.852	991226	WORD_OFF	n/a	n/a	FOREST	Landscapes	2	6	[0, 0, 0]	n/a	catFR1	0	R1674A
882.127	1.608	992075	WORD	n/a	wordpools/wordpool_categorized_EN.txt	ORGAN	Instruments	3	6	[0, 0, 0]	n/a	catFR1	0	R1674A
883.735	0.916	993687	WORD_OFF	n/a	n/a	ORGAN	Instruments	3	6	[0, 0, 0]	n/a	catFR1	0	R1674A
884.651	1.608	994603	WORD	n/a	wordpools/wordpool_categorized_EN.txt	VIOLIN	Instruments	4	6	[0, 0, 0]	n/a	catFR1	0	R1674A
886.259	0.901	996205	WORD_OFF	n/a	n/a	VIOLIN	Instruments	4	6	[0, 0, 0]	n/a	catFR1	0	R1674A
887.16	1.6	997112	WORD	n/a	wordpools/wordpool_categorized_EN.txt	ANT	Insects	5	6	[0, 0, 0]	n/a	catFR1	0	R1674A
888.76	0.89	998704	WORD_OFF	n/a	n/a	ANT	Insects	5	6	[0, 0, 0]	n/a	catFR1	0	R1674A
889.65	1.602	999601	WORD	n/a	wordpools/wordpool_categorized_EN.txt	SPIDER	Insects	6	6	[0, 0, 0]	n/a	catFR1	0	R1674A
891.252	0.966	1001204	WORD_OFF	n/a	n/a	SPIDER	Insects	6	6	[0, 0, 0]	n/a	catFR1	0	R1674A
892.218	1.6	1002167	WORD	n/a	wordpools/wordpool_categorized_EN.txt	STREAM	Landscapes	7	6	[0, 0, 0]	n/a	catFR1	0	R1674A
893.818	0.976	1003769	WORD_OFF	n/a	n/a	STREAM	Landscapes	7	6	[0, 0, 0]	n/a	catFR1	0	R1674A
894.794	1.6	1004742	WORD	n/a	wordpools/wordpool_categorized_EN.txt	ISLAND	Landscapes	8	6	[0, 0, 0]	n/a	catFR1	0	R1674A
896.394	0.983	1006345	WORD_OFF	n/a	n/a	ISLAND	Landscapes	8	6	[0, 0, 0]	n/a	catFR1	0	R1674A
897.377	1.61	1007327	WORD	n/a	wordpools/wordpool_categorized_EN.txt	CRICKET	Insects	9	6	[0, 0, 0]	n/a	catFR1	0	R1674A
898.987	0.831	1008939	WORD_OFF	n/a	n/a	CRICKET	Insects	9	6	[0, 0, 0]	n/a	catFR1	0	R1674A
899.818	1.607	1009769	WORD	n/a	wordpools/wordpool_categorized_EN.txt	ROACH	Insects	10	6	[0, 0, 0]	n/a	catFR1	0	R1674A
901.425	0.884	1011372	WORD_OFF	n/a	n/a	ROACH	Insects	10	6	[0, 0, 0]	n/a	catFR1	0	R1674A
902.309	1.601	1012259	WORD	n/a	wordpools/wordpool_categorized_EN.txt	GUITAR	Instruments	11	6	[0, 0, 0]	n/a	catFR1	0	R1674A
903.91	0.909	1013861	WORD_OFF	n/a	n/a	GUITAR	Instruments	11	6	[0, 0, 0]	n/a	catFR1	0	R1674A
904.819	1.608	1014767	WORD	n/a	wordpools/wordpool_categorized_EN.txt	BANJO	Instruments	12	6	[0, 0, 0]	n/a	catFR1	0	R1674A
906.427	0.001	1016377	PROB	0.001	n/a	n/a	n/a	-999	6	[7, 2, 5]	14	catFR1	0	R1674A
906.428	0.0	1016378	START	n/a	n/a	n/a	n/a	-999	6	[-999, -999, -999]	n/a	catFR1	0	R1674A
906.425	0.003	1016379	WORD_OFF	n/a	n/a	BANJO	Instruments	12	6	[0, 0, 0]	n/a	catFR1	0	R1674A
906.428	0.0	1016379	ENCODING_END	n/a	n/a	n/a	n/a	-999	6	[0, 0, 0]	n/a	catFR1	0	R1674A
906.428	4.507	1016379	DISTRACT_START	n/a	n/a	n/a	n/a	-999	6	[0, 0, 0]	n/a	catFR1	0	R1674A
910.935	3.333	1020885	PROB	3.333	n/a	n/a	n/a	-999	6	[6, 5, 4]	15	catFR1	0	R1674A
914.268	2.649	1024218	PROB	2.649	n/a	n/a	n/a	-999	6	[4, 2, 3]	9	catFR1	0	R1674A
916.917	2.901	1026867	PROB	2.901	n/a	n/a	n/a	-999	6	[4, 3, 6]	13	catFR1	0	R1674A
919.818	3.601	1029768	PROB	3.601	n/a	n/a	n/a	-999	6	[4, 1, 1]	6	catFR1	0	R1674A
923.419	5.064	1033369	PROB	5.064	n/a	n/a	n/a	-999	6	[5, 6, 5]	16	catFR1	0	R1674A
928.483	0.0	1038432	DISTRACT_END	n/a	n/a	n/a	n/a	-999	6	[0, 0, 0]	n/a	catFR1	0	R1674A
928.483	2.351	1038433	STOP	n/a	n/a	n/a	n/a	-999	6	[-999, -999, -999]	n/a	catFR1	0	R1674A
930.834	0.135	1040779	REC_START	n/a	n/a	n/a	n/a	-999	6	[0, 0, 0]	n/a	catFR1	0	R1674A
930.969	1.075	1040919	REC_WORD	1.075	n/a	FOREST	Landscapes	2	6	[0, 0, 0]	n/a	catFR1	0	R1674A
932.044	1.296	1041994	REC_WORD	1.296	n/a	CREEK	Landscapes	1	6	[0, 0, 0]	n/a	catFR1	0	R1674A
933.34	2.046	1043290	REC_WORD	2.046	n/a	STREAM	Landscapes	7	6	[0, 0, 0]	n/a	catFR1	0	R1674A
935.386	3.18	1045336	REC_WORD	3.18	n/a	CRICKET	Insects	9	6	[0, 0, 0]	n/a	catFR1	0	R1674A
938.566	4.018	1048516	REC_WORD	4.018	n/a	ROACH	Insects	10	6	[0, 0, 0]	n/a	catFR1	0	R1674A
942.584	7.607	1052534	REC_WORD	7.607	n/a	ANT	Insects	5	6	[0, 0, 0]	n/a	catFR1	0	R1674A
950.191	10.491	1060141	REC_WORD_VV	10.491	n/a	<>	n/a	-999	6	[0, 0, 0]	n/a	catFR1	0	R1674A
960.682	0.286	1070632	REC_WORD_VV	0.286	n/a	<>	n/a	-999	6	[0, 0, 0]	n/a	catFR1	0	R1674A
960.968	3.507	1070920	REC_END	n/a	n/a	n/a	n/a	-999	6	[0, 0, 0]	n/a	catFR1	0	R1674A
964.475	10.344	1074430	COUNTDOWN_START	n/a	n/a	n/a	n/a	-999	7	[0, 0, 0]	n/a	catFR1	0	R1674A
974.819	0.001	1084770	COUNTDOWN_END	n/a	n/a	n/a	n/a	-999	7	[0, 0, 0]	n/a	catFR1	0	R1674A
974.82	2.065	1084770	ENCODING_START	n/a	n/a	n/a	n/a	-999	7	[0, 0, 0]	n/a	catFR1	0	R1674A
976.885	1.608	1086840	WORD	n/a	wordpools/wordpool_categorized_EN.txt	STRAWBERRY	Fruit	1	7	[0, 0, 0]	n/a	catFR1	0	R1674A
978.493	0.917	1088442	WORD_OFF	n/a	n/a	STRAWBERRY	Fruit	1	7	[0, 0, 0]	n/a	catFR1	0	R1674A
979.41	1.6	1089358	WORD	n/a	wordpools/wordpool_categorized_EN.txt	GRAPE	Fruit	2	7	[0, 0, 0]	n/a	catFR1	0	R1674A
981.01	0.867	1090960	WORD_OFF	n/a	n/a	GRAPE	Fruit	2	7	[0, 0, 0]	n/a	catFR1	0	R1674A
981.877	1.608	1091828	WORD	n/a	wordpools/wordpool_categorized_EN.txt	TUBA	Instruments	3	7	[0, 0, 0]	n/a	catFR1	0	R1674A
983.485	0.85	1093431	WORD_OFF	n/a	n/a	TUBA	Instruments	3	7	[0, 0, 0]	n/a	catFR1	0	R1674A
984.335	1.608	1094289	WORD	n/a	wordpools/wordpool_categorized_EN.txt	CELLO	Instruments	4	7	[0, 0, 0]	n/a	catFR1	0	R1674A
985.943	0.842	1095892	WORD_OFF	n/a	n/a	CELLO	Instruments	4	7	[0, 0, 0]	n/a	catFR1	0	R1674A
986.785	1.6	1096731	WORD	n/a	wordpools/wordpool_categorized_EN.txt	LEVEL	Tools	5	7	[0, 0, 0]	n/a	catFR1	0	R1674A
988.385	0.998	1098334	WORD_OFF	n/a	n/a	LEVEL	Tools	5	7	[0, 0, 0]	n/a	catFR1	0	R1674A
989.383	1.602	1099335	WORD	n/a	wordpools/wordpool_categorized_EN.txt	SAW	Tools	6	7	[0, 0, 0]	n/a	catFR1	0	R1674A
990.985	0.833	1100938	WORD_OFF	n/a	n/a	SAW	Tools	6	7	[0, 0, 0]	n/a	catFR1	0	R1674A
991.818	1.601	1101767	WORD	n/a	wordpools/wordpool_categorized_EN.txt	LIME	Fruit	7	7	[0, 0, 0]	n/a	catFR1	0	R1674A
993.419	0.79	1103370	WORD_OFF	n/a	n/a	LIME	Fruit	7	7	[0, 0, 0]	n/a	catFR1	0	R1674A
994.209	1.6	1104162	WORD	n/a	wordpools/wordpool_categorized_EN.txt	BANANA	Fruit	8	7	[0, 0, 0]	n/a	catFR1	0	R1674A
995.809	1.0	1105755	WORD_OFF	n/a	n/a	BANANA	Fruit	8	7	[0, 0, 0]	n/a	catFR1	0	R1674A
996.809	1.601	1106756	WORD	n/a	wordpools/wordpool_categorized_EN.txt	BASS	Instruments	9	7	[0, 0, 0]	n/a	catFR1	0	R1674A
998.41	0.991	1108359	WORD_OFF	n/a	n/a	BASS	Instruments	9	7	[0, 0, 0]	n/a	catFR1	0	R1674A
999.401	1.6	1109351	WORD	n/a	wordpools/wordpool_categorized_EN.txt	TROMBONE	Instruments	10	7	[0, 0, 0]	n/a	catFR1	0	R1674A
1001.001	0.799	1110953	WORD_OFF	n/a	n/a	TROMBONE	Instruments	10	7	[0, 0, 0]	n/a	catFR1	0	R1674A
1001.8	1.61	1111754	WORD	n/a	wordpools/wordpool_categorized_EN.txt	AXE	Tools	11	7	[0, 0, 0]	n/a	catFR1	0	R1674A
1003.41	0.801	1113357	WORD_OFF	n/a	n/a	AXE	Tools	11	7	[0, 0, 0]	n/a	catFR1	0	R1674A
1004.211	1.607	1114167	WORD	n/a	wordpools/wordpool_categorized_EN.txt	PLIERS	Tools	12	7	[0, 0, 0]	n/a	catFR1	0	R1674A
1005.818	0.0	1115767	PROB	0.0	n/a	n/a	n/a	-999	7	[2, 7, 1]	10	catFR1	0	R1674A
1005.817	0.003	1115770	WORD_OFF	n/a	n/a	PLIERS	Tools	12	7	[0, 0, 0]	n/a	catFR1	0	R1674A
1005.82	0.001	1115770	ENCODING_END	n/a	n/a	n/a	n/a	-999	7	[0, 0, 0]	n/a	catFR1	0	R1674A
1005.821	0.0	1115770	DISTRACT_START	n/a	n/a	n/a	n/a	-999	7	[0, 0, 0]	n/a	catFR1	0	R1674A
1005.821	3.59	1115770	START	n/a	n/a	n/a	n/a	-999	7	[-999, -999, -999]	n/a	catFR1	0	R1674A
1009.411	2.939	1119360	PROB	2.939	n/a	n/a	n/a	-999	7	[5, 7, 3]	15	catFR1	0	R1674A
1012.35	2.635	1122299	PROB	2.635	n/a	n/a	n/a	-999	7	[7, 7, 4]	18	catFR1	0	R1674A
1014.985	5.733	1124934	PROB	5.733	n/a	n/a	n/a	-999	7	[8, 3, 1]	13	catFR1	0	R1674A
1020.718	3.783	1130667	PROB	3.783	n/a	n/a	n/a	-999	7	[6, 1, 2]	9	catFR1	0	R1674A
1024.501	2.749	1134450	PROB	2.749	n/a	n/a	n/a	-999	7	[3, 1, 5]	9	catFR1	0	R1674A
1027.25	0.0	1137199	STOP	n/a	n/a	n/a	n/a	-999	7	[-999, -999, -999]	n/a	catFR1	0	R1674A
1027.25	2.158	1137203	DISTRACT_END	n/a	n/a	n/a	n/a	-999	7	[0, 0, 0]	n/a	catFR1	0	R1674A
1029.408	0.88	1139359	REC_START	n/a	n/a	n/a	n/a	-999	7	[0, 0, 0]	n/a	catFR1	0	R1674A
1030.288	5.623	1140237	REC_WORD	5.623	n/a	STRAWBERRY	Fruit	1	7	[0, 0, 0]	n/a	catFR1	0	R1674A
1035.911	0.743	1145860	REC_WORD_VV	0.743	n/a	<>	n/a	-999	7	[0, 0, 0]	n/a	catFR1	0	R1674A
1036.654	0.382	1146603	REC_WORD	0.382	n/a	ORGAN	Instruments	-999	7	[0, 0, 0]	n/a	catFR1	0	R1674A
1037.036	1.0	1146985	REC_WORD_VV	1.0	n/a	<>	n/a	-999	7	[0, 0, 0]	n/a	catFR1	0	R1674A
1038.036	0.5	1147985	REC_WORD_VV	0.5	n/a	<>	n/a	-999	7	[0, 0, 0]	n/a	catFR1	0	R1674A
1038.536	0.514	1148485	REC_WORD_VV	0.514	n/a	<>	n/a	-999	7	[0, 0, 0]	n/a	catFR1	0	R1674A
1039.05	2.279	1148999	REC_WORD	2.279	n/a	TUBA	Instruments	3	7	[0, 0, 0]	n/a	catFR1	0	R1674A
1041.329	4.891	1151278	REC_WORD	4.891	n/a	TRUMPET	Instruments	-999	7	[0, 0, 0]	n/a	catFR1	0	R1674A
1046.22	3.949	1156169	REC_WORD	3.949	n/a	CELLO	Instruments	4	7	[0, 0, 0]	n/a	catFR1	0	R1674A
1050.169	3.867	1160118	REC_WORD_VV	3.867	n/a	<>	n/a	-999	7	[0, 0, 0]	n/a	catFR1	0	R1674A
1054.036	1.742	1163985	REC_WORD	1.742	n/a	LIME	Fruit	7	7	[0, 0, 0]	n/a	catFR1	0	R1674A
1055.778	3.768	1165727	REC_WORD	3.768	n/a	BANANA	Fruit	8	7	[0, 0, 0]	n/a	catFR1	0	R1674A
1059.546	2.262	1169490	REC_END	n/a	n/a	n/a	n/a	-999	7	[0, 0, 0]	n/a	catFR1	0	R1674A
1061.808	10.342	1171761	COUNTDOWN_START	n/a	n/a	n/a	n/a	-999	8	[0, 0, 0]	n/a	catFR1	0	R1674A
1072.15	0.001	1182100	COUNTDOWN_END	n/a	n/a	n/a	n/a	-999	8	[0, 0, 0]	n/a	catFR1	0	R1674A
1072.151	1.874	1182100	ENCODING_START	n/a	n/a	n/a	n/a	-999	8	[0, 0, 0]	n/a	catFR1	0	R1674A
1074.025	1.601	1183970	WORD	n/a	wordpools/wordpool_categorized_EN.txt	FRISBEE	Toys	1	8	[0, 0, 0]	n/a	catFR1	0	R1674A
1075.626	0.951	1185572	WORD_OFF	n/a	n/a	FRISBEE	Toys	1	8	[0, 0, 0]	n/a	catFR1	0	R1674A
1076.577	1.608	1186526	WORD	n/a	wordpools/wordpool_categorized_EN.txt	DOLL	Toys	2	8	[0, 0, 0]	n/a	catFR1	0	R1674A
1078.185	0.857	1188138	WORD_OFF	n/a	n/a	DOLL	Toys	2	8	[0, 0, 0]	n/a	catFR1	0	R1674A
1079.042	1.601	1188987	WORD	n/a	wordpools/wordpool_categorized_EN.txt	CABBAGE	Vegetables	3	8	[0, 0, 0]	n/a	catFR1	0	R1674A
1080.643	0.85	1190590	WORD_OFF	n/a	n/a	CABBAGE	Vegetables	3	8	[0, 0, 0]	n/a	catFR1	0	R1674A
1081.493	1.608	1191438	WORD	n/a	wordpools/wordpool_categorized_EN.txt	PEAS	Vegetables	4	8	[0, 0, 0]	n/a	catFR1	0	R1674A
1083.101	0.909	1193050	WORD_OFF	n/a	n/a	PEAS	Vegetables	4	8	[0, 0, 0]	n/a	catFR1	0	R1674A
1084.01	1.609	1193957	WORD	n/a	wordpools/wordpool_categorized_EN.txt	PASTRY	Desserts	5	8	[0, 0, 0]	n/a	catFR1	0	R1674A
1085.619	0.923	1195569	WORD_OFF	n/a	n/a	PASTRY	Desserts	5	8	[0, 0, 0]	n/a	catFR1	0	R1674A
1086.542	1.6	1196494	WORD	n/a	wordpools/wordpool_categorized_EN.txt	CUPCAKE	Desserts	6	8	[0, 0, 0]	n/a	catFR1	0	R1674A
1088.142	0.876	1198087	WORD_OFF	n/a	n/a	CUPCAKE	Desserts	6	8	[0, 0, 0]	n/a	catFR1	0	R1674A
1089.018	1.607	1198964	WORD	n/a	wordpools/wordpool_categorized_EN.txt	CORN	Vegetables	7	8	[0, 0, 0]	n/a	catFR1	0	R1674A
1090.625	0.976	1200576	WORD_OFF	n/a	n/a	CORN	Vegetables	7	8	[0, 0, 0]	n/a	catFR1	0	R1674A
1091.601	1.599	1201549	WORD	n/a	wordpools/wordpool_categorized_EN.txt	CAULIFLOWER	Vegetables	8	8	[0, 0, 0]	n/a	catFR1	0	R1674A
1093.2	0.902	1203152	WORD_OFF	n/a	n/a	CAULIFLOWER	Vegetables	8	8	[0, 0, 0]	n/a	catFR1	0	R1674A
1094.102	1.6	1204048	WORD	n/a	wordpools/wordpool_categorized_EN.txt	BASEBALL	Toys	9	8	[0, 0, 0]	n/a	catFR1	0	R1674A
1095.702	0.948	1205651	WORD_OFF	n/a	n/a	BASEBALL	Toys	9	8	[0, 0, 0]	n/a	catFR1	0	R1674A
1096.65	1.601	1206595	WORD	n/a	wordpools/wordpool_categorized_EN.txt	MARBLES	Toys	10	8	[0, 0, 0]	n/a	catFR1	0	R1674A
1098.251	0.908	1208198	WORD_OFF	n/a	n/a	MARBLES	Toys	10	8	[0, 0, 0]	n/a	catFR1	0	R1674A
1099.159	1.609	1209113	WORD	n/a	wordpools/wordpool_categorized_EN.txt	PUDDING	Desserts	11	8	[0, 0, 0]	n/a	catFR1	0	R1674A
1100.768	0.875	1210716	WORD_OFF	n/a	n/a	PUDDING	Desserts	11	8	[0, 0, 0]	n/a	catFR1	0	R1674A
1101.643	1.608	1211593	WORD	n/a	wordpools/wordpool_categorized_EN.txt	MOUSSE	Desserts	12	8	[0, 0, 0]	n/a	catFR1	0	R1674A
1103.251	0.0	1213196	WORD_OFF	n/a	n/a	MOUSSE	Desserts	12	8	[0, 0, 0]	n/a	catFR1	0	R1674A
1103.251	0.003	1213200	PROB	0.003	n/a	n/a	n/a	-999	8	[2, 3, 7]	12	catFR1	0	R1674A
1103.254	0.0	1213203	START	n/a	n/a	n/a	n/a	-999	8	[-999, -999, -999]	n/a	catFR1	0	R1674A
1103.254	0.0	1213205	ENCODING_END	n/a	n/a	n/a	n/a	-999	8	[0, 0, 0]	n/a	catFR1	0	R1674A
1103.254	2.947	1213205	DISTRACT_START	n/a	n/a	n/a	n/a	-999	8	[0, 0, 0]	n/a	catFR1	0	R1674A
1106.201	2.009	1216150	PROB	2.009	n/a	n/a	n/a	-999	8	[3, 3, 3]	9	catFR1	0	R1674A
1108.21	3.258	1218159	PROB	3.258	n/a	n/a	n/a	-999	8	[1, 5, 6]	12	catFR1	0	R1674A
1111.468	4.174	1221417	PROB	4.174	n/a	n/a	n/a	-999	8	[2, 6, 2]	10	catFR1	0	R1674A
1115.642	3.484	1225591	PROB	3.484	n/a	n/a	n/a	-999	8	[2, 2, 3]	7	catFR1	0	R1674A
1119.126	3.059	1229075	PROB	3.059	n/a	n/a	n/a	-999	8	[1, 3, 1]	5	catFR1	0	R1674A
1122.185	9.515	1232134	PROB	9.515	n/a	n/a	n/a	-999	8	[8, 8, 7]	23	catFR1	0	R1674A
1131.7	0.0	1241649	DISTRACT_END	n/a	n/a	n/a	n/a	-999	8	[0, 0, 0]	n/a	catFR1	0	R1674A
1131.7	2.084	1241649	STOP	n/a	n/a	n/a	n/a	-999	8	[-999, -999, -999]	n/a	catFR1	0	R1674A
1133.784	1.55	1243728	REC_START	n/a	n/a	n/a	n/a	-999	8	[0, 0, 0]	n/a	catFR1	0	R1674A
1135.334	0.42	1245283	REC_WORD_VV	0.42	n/a	<>	n/a	-999	8	[0, 0, 0]	n/a	catFR1	0	R1674A
1135.754	1.527	1245703	REC_WORD	1.527	n/a	FRISBEE	Toys	1	8	[0, 0, 0]	n/a	catFR1	0	R1674A
1137.281	1.558	1247230	REC_WORD_VV	1.558	n/a	<>	n/a	-999	8	[0, 0, 0]	n/a	catFR1	0	R1674A
1138.839	1.061	1248788	REC_WORD	1.061	n/a	CABBAGE	Vegetables	3	8	[0, 0, 0]	n/a	catFR1	0	R1674A
1139.9	1.833	1249849	REC_WORD	1.833	n/a	PEAS	Vegetables	4	8	[0, 0, 0]	n/a	catFR1	0	R1674A
1141.733	4.6	1251682	REC_WORD_VV	4.6	n/a	<>	n/a	-999	8	[0, 0, 0]	n/a	catFR1	0	R1674A
1146.333	5.95	1256282	REC_WORD	5.95	n/a	MOUSSE	Desserts	12	8	[0, 0, 0]	n/a	catFR1	0	R1674A
1152.283	11.643	1262232	REC_WORD_VV	11.643	n/a	<>	n/a	-999	8	[0, 0, 0]	n/a	catFR1	0	R1674A
1163.926	1.524	1273870	REC_END	n/a	n/a	n/a	n/a	-999	8	[0, 0, 0]	n/a	catFR1	0	R1674A
1165.45	10.342	1275405	COUNTDOWN_START	n/a	n/a	n/a	n/a	-999	9	[0, 0, 0]	n/a	catFR1	0	R1674A
1175.792	0.0	1285745	COUNTDOWN_END	n/a	n/a	n/a	n/a	-999	9	[0, 0, 0]	n/a	catFR1	0	R1674A
1175.792	2.0	1285745	ENCODING_START	n/a	n/a	n/a	n/a	-999	9	[0, 0, 0]	n/a	catFR1	0	R1674A
1177.792	1.601	1287739	WORD	n/a	wordpools/wordpool_categorized_EN.txt	JACKET	Clothing	1	9	[0, 0, 0]	n/a	catFR1	0	R1674A
1179.393	0.924	1289341	WORD_OFF	n/a	n/a	JACKET	Clothing	1	9	[0, 0, 0]	n/a	catFR1	0	R1674A
1180.317	1.6	1290266	WORD	n/a	wordpools/wordpool_categorized_EN.txt	SHORTS	Clothing	2	9	[0, 0, 0]	n/a	catFR1	0	R1674A
1181.917	0.867	1291869	WORD_OFF	n/a	n/a	SHORTS	Clothing	2	9	[0, 0, 0]	n/a	catFR1	0	R1674A
1182.784	1.6	1292737	WORD	n/a	wordpools/wordpool_categorized_EN.txt	PLUM	Fruit	3	9	[0, 0, 0]	n/a	catFR1	0	R1674A
1184.384	0.816	1294330	WORD_OFF	n/a	n/a	PLUM	Fruit	3	9	[0, 0, 0]	n/a	catFR1	0	R1674A
1185.2	1.602	1295150	WORD	n/a	wordpools/wordpool_categorized_EN.txt	CHERRY	Fruit	4	9	[0, 0, 0]	n/a	catFR1	0	R1674A
1186.802	0.992	1296753	WORD_OFF	n/a	n/a	CHERRY	Fruit	4	9	[0, 0, 0]	n/a	catFR1	0	R1674A
1187.794	1.599	1297745	WORD	n/a	wordpools/wordpool_categorized_EN.txt	BLOCKS	Toys	5	9	[0, 0, 0]	n/a	catFR1	0	R1674A
1189.393	0.992	1299347	WORD_OFF	n/a	n/a	BLOCKS	Toys	5	9	[0, 0, 0]	n/a	catFR1	0	R1674A
1190.385	1.601	1300339	WORD	n/a	wordpools/wordpool_categorized_EN.txt	PUZZLE	Toys	6	9	[0, 0, 0]	n/a	catFR1	0	R1674A
1191.986	0.774	1301932	WORD_OFF	n/a	n/a	PUZZLE	Toys	6	9	[0, 0, 0]	n/a	catFR1	0	R1674A
1192.76	1.6	1302714	WORD	n/a	wordpools/wordpool_categorized_EN.txt	JEANS	Clothing	7	9	[0, 0, 0]	n/a	catFR1	0	R1674A
1194.36	0.941	1304307	WORD_OFF	n/a	n/a	JEANS	Clothing	7	9	[0, 0, 0]	n/a	catFR1	0	R1674A
1195.301	1.601	1305251	WORD	n/a	wordpools/wordpool_categorized_EN.txt	SHIRT	Clothing	8	9	[0, 0, 0]	n/a	catFR1	0	R1674A
1196.902	0.966	1306854	WORD_OFF	n/a	n/a	SHIRT	Clothing	8	9	[0, 0, 0]	n/a	catFR1	0	R1674A
1197.868	1.609	1307817	WORD	n/a	wordpools/wordpool_categorized_EN.txt	LEMON	Fruit	9	9	[0, 0, 0]	n/a	catFR1	0	R1674A
1199.477	0.791	1309429	WORD_OFF	n/a	n/a	LEMON	Fruit	9	9	[0, 0, 0]	n/a	catFR1	0	R1674A
1200.268	1.6	1310221	WORD	n/a	wordpools/wordpool_categorized_EN.txt	APPLE	Fruit	10	9	[0, 0, 0]	n/a	catFR1	0	R1674A
1201.868	0.849	1311814	WORD_OFF	n/a	n/a	APPLE	Fruit	10	9	[0, 0, 0]	n/a	catFR1	0	R1674A
1202.717	1.6	1312663	WORD	n/a	wordpools/wordpool_categorized_EN.txt	BASKETBALL	Toys	11	9	[0, 0, 0]	n/a	catFR1	0	R1674A
1204.317	0.76	1314265	WORD_OFF	n/a	n/a	BASKETBALL	Toys	11	9	[0, 0, 0]	n/a	catFR1	0	R1674A
1205.077	1.599	1315028	WORD	n/a	wordpools/wordpool_categorized_EN.txt	FOOTBALL	Toys	12	9	[0, 0, 0]	n/a	catFR1	0	R1674A
1206.676	0.0	1316621	WORD_OFF	n/a	n/a	FOOTBALL	Toys	12	9	[0, 0, 0]	n/a	catFR1	0	R1674A
1206.676	0.005	1316624	PROB	0.005	n/a	n/a	n/a	-999	9	[4, 1, 8]	13	catFR1	0	R1674A
1206.681	0.0	1316629	START	n/a	n/a	n/a	n/a	-999	9	[-999, -999, -999]	n/a	catFR1	0	R1674A
1206.68	0.001	1316631	ENCODING_END	n/a	n/a	n/a	n/a	-999	9	[0, 0, 0]	n/a	catFR1	0	R1674A
1206.681	3.478	1316631	DISTRACT_START	n/a	n/a	n/a	n/a	-999	9	[0, 0, 0]	n/a	catFR1	0	R1674A
1210.159	5.101	1320107	PROB	5.101	n/a	n/a	n/a	-999	9	[8, 4, 6]	18	catFR1	0	R1674A
1215.26	2.809	1325208	PROB	2.809	n/a	n/a	n/a	-999	9	[1, 3, 3]	7	catFR1	0	R1674A
1218.069	2.949	1328017	PROB	2.949	n/a	n/a	n/a	-999	9	[1, 7, 2]	10	catFR1	0	R1674A
1221.018	2.482	1330966	PROB	2.482	n/a	n/a	n/a	-999	9	[3, 1, 5]	9	catFR1	0	R1674A
1223.5	2.808	1333448	PROB	2.808	n/a	n/a	n/a	-999	9	[4, 3, 6]	13	catFR1	0	R1674A
1226.308	2.21	1336256	PROB	2.21	n/a	n/a	n/a	-999	9	[1, 1, 7]	9	catFR1	0	R1674A
1228.518	0.0	1338464	DISTRACT_END	n/a	n/a	n/a	n/a	-999	9	[0, 0, 0]	n/a	catFR1	0	R1674A
1228.518	2.033	1338466	STOP	n/a	n/a	n/a	n/a	-999	9	[-999, -999, -999]	n/a	catFR1	0	R1674A
1230.551	3.856	1340496	REC_START	n/a	n/a	n/a	n/a	-999	9	[0, 0, 0]	n/a	catFR1	0	R1674A
1234.407	1.114	1344355	REC_WORD	1.114	n/a	BASEBALL	Toys	-999	9	[0, 0, 0]	n/a	catFR1	0	R1674A
1235.521	1.551	1345469	REC_WORD_VV	1.551	n/a	<>	n/a	-999	9	[0, 0, 0]	n/a	catFR1	0	R1674A
1237.072	2.563	1347020	REC_WORD_VV	2.563	n/a	<>	n/a	-999	9	[0, 0, 0]	n/a	catFR1	0	R1674A
1239.635	0.305	1349583	REC_WORD_VV	0.305	n/a	<>	n/a	-999	9	[0, 0, 0]	n/a	catFR1	0	R1674A
1239.94	0.368	1349888	REC_WORD	0.368	n/a	PUDDING	Desserts	-999	9	[0, 0, 0]	n/a	catFR1	0	R1674A
1240.308	1.0	1350256	REC_WORD_VV	1.0	n/a	<>	n/a	-999	9	[0, 0, 0]	n/a	catFR1	0	R1674A
1241.308	0.604	1351256	REC_WORD_VV	0.604	n/a	<>	n/a	-999	9	[0, 0, 0]	n/a	catFR1	0	R1674A
1241.912	4.785	1351860	REC_WORD_VV	4.785	n/a	<>	n/a	-999	9	[0, 0, 0]	n/a	catFR1	0	R1674A
1246.697	1.533	1356645	REC_WORD	1.533	n/a	APPLE	Fruit	10	9	[0, 0, 0]	n/a	catFR1	0	R1674A
1248.23	12.465	1358178	REC_WORD	12.465	n/a	LEMON	Fruit	9	9	[0, 0, 0]	n/a	catFR1	0	R1674A
1260.695	2.774	1370647	REC_END	n/a	n/a	n/a	n/a	-999	9	[0, 0, 0]	n/a	catFR1	0	R1674A
1263.469	10.339	1373423	COUNTDOWN_START	n/a	n/a	n/a	n/a	-999	10	[0, 0, 0]	n/a	catFR1	0	R1674A
1273.808	0.001	1383753	COUNTDOWN_END	n/a	n/a	n/a	n/a	-999	10	[0, 0, 0]	n/a	catFR1	0	R1674A
1273.809	2.324	1383762	ENCODING_START	n/a	n/a	n/a	n/a	-999	10	[0, 0, 0]	n/a	catFR1	0	R1674A
1276.133	1.602	1386080	WORD	n/a	wordpools/wordpool_categorized_EN.txt	SKIRT	Clothing	1	10	[0, 0, 0]	n/a	catFR1	0	R1674A
1277.735	0.89	1387683	WORD_OFF	n/a	n/a	SKIRT	Clothing	1	10	[0, 0, 0]	n/a	catFR1	0	R1674A
1278.625	1.603	1388570	WORD	n/a	wordpools/wordpool_categorized_EN.txt	PANTS	Clothing	2	10	[0, 0, 0]	n/a	catFR1	0	R1674A
1280.228	0.947	1390172	WORD_OFF	n/a	n/a	PANTS	Clothing	2	10	[0, 0, 0]	n/a	catFR1	0	R1674A
1281.175	1.601	1391126	WORD	n/a	wordpools/wordpool_categorized_EN.txt	DOLLHOUSE	Toys	3	10	[0, 0, 0]	n/a	catFR1	0	R1674A
1282.776	0.933	1392728	WORD_OFF	n/a	n/a	DOLLHOUSE	Toys	3	10	[0, 0, 0]	n/a	catFR1	0	R1674A
1283.709	1.6	1393654	WORD	n/a	wordpools/wordpool_categorized_EN.txt	BARBIE	Toys	4	10	[0, 0, 0]	n/a	catFR1	0	R1674A
1285.309	0.825	1395256	WORD_OFF	n/a	n/a	BARBIE	Toys	4	10	[0, 0, 0]	n/a	catFR1	0	R1674A
1286.134	1.609	1396076	WORD	n/a	wordpools/wordpool_categorized_EN.txt	RATCHET	Tools	5	10	[0, 0, 0]	n/a	catFR1	0	R1674A
1287.743	0.917	1397688	WORD_OFF	n/a	n/a	RATCHET	Tools	5	10	[0, 0, 0]	n/a	catFR1	0	R1674A
1288.66	1.607	1398604	WORD	n/a	wordpools/wordpool_categorized_EN.txt	CROWBAR	Tools	6	10	[0, 0, 0]	n/a	catFR1	0	R1674A
1290.267	0.875	1400216	WORD_OFF	n/a	n/a	CROWBAR	Tools	6	10	[0, 0, 0]	n/a	catFR1	0	R1674A
1291.142	1.6	1401094	WORD	n/a	wordpools/wordpool_categorized_EN.txt	BALL	Toys	7	10	[0, 0, 0]	n/a	catFR1	0	R1674A
1292.742	0.941	1402687	WORD_OFF	n/a	n/a	BALL	Toys	7	10	[0, 0, 0]	n/a	catFR1	0	R1674A
1293.683	1.6	1403631	WORD	n/a	wordpools/wordpool_categorized_EN.txt	SLINKY	Toys	8	10	[0, 0, 0]	n/a	catFR1	0	R1674A
1295.283	0.875	1405233	WORD_OFF	n/a	n/a	SLINKY	Toys	8	10	[0, 0, 0]	n/a	catFR1	0	R1674A
1296.158	1.603	1406101	WORD	n/a	wordpools/wordpool_categorized_EN.txt	SCREWDRIVER	Tools	9	10	[0, 0, 0]	n/a	catFR1	0	R1674A
1297.761	0.832	1407713	WORD_OFF	n/a	n/a	SCREWDRIVER	Tools	9	10	[0, 0, 0]	n/a	catFR1	0	R1674A
1298.593	1.6	1408543	WORD	n/a	wordpools/wordpool_categorized_EN.txt	SHOVEL	Tools	10	10	[0, 0, 0]	n/a	catFR1	0	R1674A
1300.193	0.982	1410146	WORD_OFF	n/a	n/a	SHOVEL	Tools	10	10	[0, 0, 0]	n/a	catFR1	0	R1674A
1301.175	1.6	1411119	WORD	n/a	wordpools/wordpool_categorized_EN.txt	SOCKS	Clothing	11	10	[0, 0, 0]	n/a	catFR1	0	R1674A
1302.775	0.759	1412721	WORD_OFF	n/a	n/a	SOCKS	Clothing	11	10	[0, 0, 0]	n/a	catFR1	0	R1674A
1303.534	1.609	1413484	WORD	n/a	wordpools/wordpool_categorized_EN.txt	BLOUSE	Clothing	12	10	[0, 0, 0]	n/a	catFR1	0	R1674A
1305.143	0.0	1415087	WORD_OFF	n/a	n/a	BLOUSE	Clothing	12	10	[0, 0, 0]	n/a	catFR1	0	R1674A
1305.142	0.004	1415090	PROB	0.004	n/a	n/a	n/a	-999	10	[4, 8, 7]	19	catFR1	0	R1674A
1305.146	0.0	1415094	START	n/a	n/a	n/a	n/a	-999	10	[-999, -999, -999]	n/a	catFR1	0	R1674A
1305.146	0.0	1415096	ENCODING_END	n/a	n/a	n/a	n/a	-999	10	[0, 0, 0]	n/a	catFR1	0	R1674A
1305.146	8.447	1415096	DISTRACT_START	n/a	n/a	n/a	n/a	-999	10	[0, 0, 0]	n/a	catFR1	0	R1674A
1313.593	5.843	1423541	PROB	5.843	n/a	n/a	n/a	-999	10	[4, 8, 5]	17	catFR1	0	R1674A
1319.436	7.939	1429384	PROB	7.939	n/a	n/a	n/a	-999	10	[7, 8, 6]	21	catFR1	0	R1674A
1327.375	0.0	1437321	DISTRACT_END	n/a	n/a	n/a	n/a	-999	10	[0, 0, 0]	n/a	catFR1	0	R1674A
1327.375	2.401	1437323	STOP	n/a	n/a	n/a	n/a	-999	10	[-999, -999, -999]	n/a	catFR1	0	R1674A
1329.776	1.126	1439724	REC_START	n/a	n/a	n/a	n/a	-999	10	[0, 0, 0]	n/a	catFR1	0	R1674A
1330.902	1.497	1440850	REC_WORD	1.497	n/a	DOLLHOUSE	Toys	3	10	[0, 0, 0]	n/a	catFR1	0	R1674A
1332.399	1.017	1442347	REC_WORD	1.017	n/a	BARBIE	Toys	4	10	[0, 0, 0]	n/a	catFR1	0	R1674A
1333.416	1.085	1443364	REC_WORD	1.085	n/a	SKIRT	Clothing	1	10	[0, 0, 0]	n/a	catFR1	0	R1674A
1334.501	1.486	1444449	REC_WORD	1.486	n/a	PANTS	Clothing	2	10	[0, 0, 0]	n/a	catFR1	0	R1674A
1335.987	3.227	1445935	REC_WORD	3.227	n/a	BLOUSE	Clothing	12	10	[0, 0, 0]	n/a	catFR1	0	R1674A
1339.214	20.705	1449162	REC_WORD	20.705	n/a	RATCHET	Tools	5	10	[0, 0, 0]	n/a	catFR1	0	R1674A
1359.919	2.056	1469866	REC_END	n/a	n/a	n/a	n/a	-999	10	[0, 0, 0]	n/a	catFR1	0	R1674A
1361.975	10.344	1471926	COUNTDOWN_START	n/a	n/a	n/a	n/a	-999	11	[0, 0, 0]	n/a	catFR1	0	R1674A
1372.319	0.001	1482266	COUNTDOWN_END	n/a	n/a	n/a	n/a	-999	11	[0, 0, 0]	n/a	catFR1	0	R1674A
1372.32	2.165	1482266	ENCODING_START	n/a	n/a	n/a	n/a	-999	11	[0, 0, 0]	n/a	catFR1	0	R1674A
1374.485	1.6	1484431	WORD	n/a	wordpools/wordpool_categorized_EN.txt	VAN	Vehicles	1	11	[0, 0, 0]	n/a	catFR1	0	R1674A
1376.085	0.966	1486034	WORD_OFF	n/a	n/a	VAN	Vehicles	1	11	[0, 0, 0]	n/a	catFR1	0	R1674A
1377.051	1.6	1486997	WORD	n/a	wordpools/wordpool_categorized_EN.txt	MOPED	Vehicles	2	11	[0, 0, 0]	n/a	catFR1	0	R1674A
1378.651	0.934	1488600	WORD_OFF	n/a	n/a	MOPED	Vehicles	2	11	[0, 0, 0]	n/a	catFR1	0	R1674A
1379.585	1.608	1489534	WORD	n/a	wordpools/wordpool_categorized_EN.txt	WATER	Beverages	3	11	[0, 0, 0]	n/a	catFR1	0	R1674A
1381.193	0.959	1491137	WORD_OFF	n/a	n/a	WATER	Beverages	3	11	[0, 0, 0]	n/a	catFR1	0	R1674A
1382.152	1.6	1492100	WORD	n/a	wordpools/wordpool_categorized_EN.txt	MILK	Beverages	4	11	[0, 0, 0]	n/a	catFR1	0	R1674A
1383.752	0.875	1493703	WORD_OFF	n/a	n/a	MILK	Beverages	4	11	[0, 0, 0]	n/a	catFR1	0	R1674A
1384.627	1.608	1494571	WORD	n/a	wordpools/wordpool_categorized_EN.txt	FOG	Weather	5	11	[0, 0, 0]	n/a	catFR1	0	R1674A
1386.235	0.775	1496183	WORD_OFF	n/a	n/a	FOG	Weather	5	11	[0, 0, 0]	n/a	catFR1	0	R1674A
1387.01	1.608	1496955	WORD	n/a	wordpools/wordpool_categorized_EN.txt	THUNDERSTORM	Weather	6	11	[0, 0, 0]	n/a	catFR1	0	R1674A
1388.618	0.916	1498567	WORD_OFF	n/a	n/a	THUNDERSTORM	Weather	6	11	[0, 0, 0]	n/a	catFR1	0	R1674A
1389.534	1.601	1499483	WORD	n/a	wordpools/wordpool_categorized_EN.txt	LEMONADE	Beverages	7	11	[0, 0, 0]	n/a	catFR1	0	R1674A
1391.135	0.824	1501085	WORD_OFF	n/a	n/a	LEMONADE	Beverages	7	11	[0, 0, 0]	n/a	catFR1	0	R1674A
1391.959	1.601	1501906	WORD	n/a	wordpools/wordpool_categorized_EN.txt	JUICE	Beverages	8	11	[0, 0, 0]	n/a	catFR1	0	R1674A
1393.56	0.999	1503508	WORD_OFF	n/a	n/a	JUICE	Beverages	8	11	[0, 0, 0]	n/a	catFR1	0	R1674A
1394.559	1.6	1504510	WORD	n/a	wordpools/wordpool_categorized_EN.txt	BOAT	Vehicles	9	11	[0, 0, 0]	n/a	catFR1	0	R1674A
1396.159	0.799	1506103	WORD_OFF	n/a	n/a	BOAT	Vehicles	9	11	[0, 0, 0]	n/a	catFR1	0	R1674A
1396.958	1.602	1506904	WORD	n/a	wordpools/wordpool_categorized_EN.txt	SCOOTER	Vehicles	10	11	[0, 0, 0]	n/a	catFR1	0	R1674A
1398.56	1.0	1508506	WORD_OFF	n/a	n/a	SCOOTER	Vehicles	10	11	[0, 0, 0]	n/a	catFR1	0	R1674A
1399.56	1.601	1509508	WORD	n/a	wordpools/wordpool_categorized_EN.txt	RAIN	Weather	11	11	[0, 0, 0]	n/a	catFR1	0	R1674A
1401.161	0.998	1511110	WORD_OFF	n/a	n/a	RAIN	Weather	11	11	[0, 0, 0]	n/a	catFR1	0	R1674A
1402.159	1.599	1512102	WORD	n/a	wordpools/wordpool_categorized_EN.txt	HUMIDITY	Weather	12	11	[0, 0, 0]	n/a	catFR1	0	R1674A
1403.758	0.002	1513705	WORD_OFF	n/a	n/a	HUMIDITY	Weather	12	11	[0, 0, 0]	n/a	catFR1	0	R1674A
1403.76	0.0	1513705	ENCODING_END	n/a	n/a	n/a	n/a	-999	11	[0, 0, 0]	n/a	catFR1	0	R1674A
1403.758	0.003	1513706	PROB	0.003	n/a	n/a	n/a	-999	11	[1, 4, 2]	7	catFR1	0	R1674A
1403.761	0.0	1513709	START	n/a	n/a	n/a	n/a	-999	11	[-999, -999, -999]	n/a	catFR1	0	R1674A
1403.761	2.932	1513714	DISTRACT_START	n/a	n/a	n/a	n/a	-999	11	[0, 0, 0]	n/a	catFR1	0	R1674A
1406.693	3.642	1516641	PROB	3.642	n/a	n/a	n/a	-999	11	[2, 6, 3]	11	catFR1	0	R1674A
1410.335	2.417	1520283	PROB	2.417	n/a	n/a	n/a	-999	11	[1, 7, 1]	9	catFR1	0	R1674A
1412.752	2.141	1522700	PROB	2.141	n/a	n/a	n/a	-999	11	[2, 2, 1]	5	catFR1	0	R1674A
1414.893	3.724	1524841	PROB	3.724	n/a	n/a	n/a	-999	11	[7, 5, 6]	18	catFR1	0	R1674A
1418.617	2.577	1528565	PROB	2.577	n/a	n/a	n/a	-999	11	[3, 1, 4]	8	catFR1	0	R1674A
1421.194	8.966	1531142	PROB	8.966	n/a	n/a	n/a	-999	11	[6, 4, 4]	15	catFR1	0	R1674A
1430.16	0.0	1540107	DISTRACT_END	n/a	n/a	n/a	n/a	-999	11	[0, 0, 0]	n/a	catFR1	0	R1674A
1430.16	2.383	1540108	STOP	n/a	n/a	n/a	n/a	-999	11	[-999, -999, -999]	n/a	catFR1	0	R1674A
1432.543	2.413	1542492	REC_START	n/a	n/a	n/a	n/a	-999	11	[0, 0, 0]	n/a	catFR1	0	R1674A
1434.956	0.764	1544903	REC_WORD_VV	0.764	n/a	<>	n/a	-999	11	[0, 0, 0]	n/a	catFR1	0	R1674A
1435.72	0.929	1545667	REC_WORD	0.929	n/a	VAN	Vehicles	1	11	[0, 0, 0]	n/a	catFR1	0	R1674A
1436.649	2.476	1546596	REC_WORD	2.476	n/a	THUNDERSTORM	Weather	6	11	[0, 0, 0]	n/a	catFR1	0	R1674A
1439.125	3.848	1549072	REC_WORD_VV	3.848	n/a	<>	n/a	-999	11	[0, 0, 0]	n/a	catFR1	0	R1674A
1442.973	16.539	1552920	REC_WORD	16.539	n/a	FOG	Weather	5	11	[0, 0, 0]	n/a	catFR1	0	R1674A
1459.512	0.271	1569459	REC_WORD_VV	0.271	n/a	<>	n/a	-999	11	[0, 0, 0]	n/a	catFR1	0	R1674A
1459.783	1.324	1569730	REC_WORD	1.324	n/a	APPLE	Fruit	-999	11	[0, 0, 0]	n/a	catFR1	0	R1674A
1461.107	1.574	1571054	REC_WORD_VV	1.574	n/a	<>	n/a	-999	11	[0, 0, 0]	n/a	catFR1	0	R1674A
1462.681	1.361	1572624	REC_END	n/a	n/a	n/a	n/a	-999	11	[0, 0, 0]	n/a	catFR1	0	R1674A
1464.042	10.341	1573988	COUNTDOWN_START	n/a	n/a	n/a	n/a	-999	12	[0, 0, 0]	n/a	catFR1	0	R1674A
1474.383	0.001	1584327	COUNTDOWN_END	n/a	n/a	n/a	n/a	-999	12	[0, 0, 0]	n/a	catFR1	0	R1674A
1474.384	1.884	1584337	ENCODING_START	n/a	n/a	n/a	n/a	-999	12	[0, 0, 0]	n/a	catFR1	0	R1674A
1476.268	1.601	1586216	WORD	n/a	wordpools/wordpool_categorized_EN.txt	WIND	Weather	1	12	[0, 0, 0]	n/a	catFR1	0	R1674A
1477.869	0.882	1587819	WORD_OFF	n/a	n/a	WIND	Weather	1	12	[0, 0, 0]	n/a	catFR1	0	R1674A
1478.751	1.607	1588696	WORD	n/a	wordpools/wordpool_categorized_EN.txt	CLOUD	Weather	2	12	[0, 0, 0]	n/a	catFR1	0	R1674A
1480.358	0.777	1590308	WORD_OFF	n/a	n/a	CLOUD	Weather	2	12	[0, 0, 0]	n/a	catFR1	0	R1674A
1481.135	1.607	1591081	WORD	n/a	wordpools/wordpool_categorized_EN.txt	SHOES	Clothing	3	12	[0, 0, 0]	n/a	catFR1	0	R1674A
1482.742	0.851	1592693	WORD_OFF	n/a	n/a	SHOES	Clothing	3	12	[0, 0, 0]	n/a	catFR1	0	R1674A
1483.593	1.601	1593542	WORD	n/a	wordpools/wordpool_categorized_EN.txt	UNDERWEAR	Clothing	4	12	[0, 0, 0]	n/a	catFR1	0	R1674A
1485.194	0.931	1595144	WORD_OFF	n/a	n/a	UNDERWEAR	Clothing	4	12	[0, 0, 0]	n/a	catFR1	0	R1674A
1486.125	1.602	1596069	WORD	n/a	wordpools/wordpool_categorized_EN.txt	COLA	Beverages	5	12	[0, 0, 0]	n/a	catFR1	0	R1674A
1487.727	0.966	1597672	WORD_OFF	n/a	n/a	COLA	Beverages	5	12	[0, 0, 0]	n/a	catFR1	0	R1674A
1488.693	1.609	1598635	WORD	n/a	wordpools/wordpool_categorized_EN.txt	BEER	Beverages	6	12	[0, 0, 0]	n/a	catFR1	0	R1674A
1490.302	0.775	1600247	WORD_OFF	n/a	n/a	BEER	Beverages	6	12	[0, 0, 0]	n/a	catFR1	0	R1674A
1491.077	1.606	1601029	WORD	n/a	wordpools/wordpool_categorized_EN.txt	THUNDER	Weather	7	12	[0, 0, 0]	n/a	catFR1	0	R1674A
1492.683	0.859	1602632	WORD_OFF	n/a	n/a	THUNDER	Weather	7	12	[0, 0, 0]	n/a	catFR1	0	R1674A
1493.542	1.601	1603490	WORD	n/a	wordpools/wordpool_categorized_EN.txt	TORNADO	Weather	8	12	[0, 0, 0]	n/a	catFR1	0	R1674A
1495.143	0.99	1605093	WORD_OFF	n/a	n/a	TORNADO	Weather	8	12	[0, 0, 0]	n/a	catFR1	0	R1674A
1496.133	1.6	1606075	WORD	n/a	wordpools/wordpool_categorized_EN.txt	COAT	Clothing	9	12	[0, 0, 0]	n/a	catFR1	0	R1674A
1497.733	0.976	1607678	WORD_OFF	n/a	n/a	COAT	Clothing	9	12	[0, 0, 0]	n/a	catFR1	0	R1674A
1498.709	1.609	1608660	WORD	n/a	wordpools/wordpool_categorized_EN.txt	DRESS	Clothing	10	12	[0, 0, 0]	n/a	catFR1	0	R1674A
1500.318	0.924	1610263	WORD_OFF	n/a	n/a	DRESS	Clothing	10	12	[0, 0, 0]	n/a	catFR1	0	R1674A
1501.242	1.601	1611188	WORD	n/a	wordpools/wordpool_categorized_EN.txt	TEA	Beverages	11	12	[0, 0, 0]	n/a	catFR1	0	R1674A
1502.843	0.984	1612790	WORD_OFF	n/a	n/a	TEA	Beverages	11	12	[0, 0, 0]	n/a	catFR1	0	R1674A
1503.827	1.607	1613773	WORD	n/a	wordpools/wordpool_categorized_EN.txt	COFFEE	Beverages	12	12	[0, 0, 0]	n/a	catFR1	0	R1674A
1505.434	0.0	1615381	PROB	0.0	n/a	n/a	n/a	-999	12	[8, 3, 5]	16	catFR1	0	R1674A
1505.434	0.005	1615385	WORD_OFF	n/a	n/a	COFFEE	Beverages	12	12	[0, 0, 0]	n/a	catFR1	0	R1674A
1505.439	0.0	1615385	ENCODING_END	n/a	n/a	n/a	n/a	-999	12	[0, 0, 0]	n/a	catFR1	0	R1674A
1505.439	0.0	1615385	DISTRACT_START	n/a	n/a	n/a	n/a	-999	12	[0, 0, 0]	n/a	catFR1	0	R1674A
1505.439	4.104	1615386	START	n/a	n/a	n/a	n/a	-999	12	[-999, -999, -999]	n/a	catFR1	0	R1674A
1509.543	3.775	1619490	PROB	3.775	n/a	n/a	n/a	-999	12	[8, 3, 2]	13	catFR1	0	R1674A
1513.318	3.716	1623265	PROB	3.716	n/a	n/a	n/a	-999	12	[8, 5, 4]	17	catFR1	0	R1674A
1517.034	2.584	1626981	PROB	2.584	n/a	n/a	n/a	-999	12	[1, 6, 2]	9	catFR1	0	R1674A
1519.618	3.074	1629565	PROB	3.074	n/a	n/a	n/a	-999	12	[8, 4, 6]	18	catFR1	0	R1674A
1522.692	3.174	1632639	PROB	3.174	n/a	n/a	n/a	-999	12	[8, 5, 6]	19	catFR1	0	R1674A
1525.866	0.0	1635813	STOP	n/a	n/a	n/a	n/a	-999	12	[-999, -999, -999]	n/a	catFR1	0	R1674A
1525.866	2.228	1635816	DISTRACT_END	n/a	n/a	n/a	n/a	-999	12	[0, 0, 0]	n/a	catFR1	0	R1674A
1528.094	1.685	1638038	REC_START	n/a	n/a	n/a	n/a	-999	12	[0, 0, 0]	n/a	catFR1	0	R1674A
1529.779	6.06	1639726	REC_WORD	6.06	n/a	VAN	Vehicles	-999	12	[0, 0, 0]	n/a	catFR1	0	R1674A
1535.839	3.36	1645786	REC_WORD	3.36	n/a	THUNDERSTORM	Weather	-999	12	[0, 0, 0]	n/a	catFR1	0	R1674A
1539.199	1.044	1649146	REC_WORD_VV	1.044	n/a	<>	n/a	-999	12	[0, 0, 0]	n/a	catFR1	0	R1674A
1540.243	13.014	1650190	REC_WORD	13.014	n/a	UNDERWEAR	Clothing	4	12	[0, 0, 0]	n/a	catFR1	0	R1674A
1553.257	1.0	1663204	REC_WORD_VV	1.0	n/a	<>	n/a	-999	12	[0, 0, 0]	n/a	catFR1	0	R1674A
1554.257	1.0	1664204	REC_WORD_VV	1.0	n/a	<>	n/a	-999	12	[0, 0, 0]	n/a	catFR1	0	R1674A
1555.257	1.049	1665204	REC_WORD_VV	1.049	n/a	<>	n/a	-999	12	[0, 0, 0]	n/a	catFR1	0	R1674A
1556.306	0.319	1666253	REC_WORD_VV	0.319	n/a	<>	n/a	-999	12	[0, 0, 0]	n/a	catFR1	0	R1674A
1556.625	0.393	1666572	REC_WORD	0.393	n/a	CLOUD	Weather	2	12	[0, 0, 0]	n/a	catFR1	0	R1674A
1557.018	0.209	1666965	REC_WORD	0.209	n/a	FOG	Weather	-999	12	[0, 0, 0]	n/a	catFR1	0	R1674A
1557.227	1.008	1667174	REC_WORD_VV	1.008	n/a	<>	n/a	-999	12	[0, 0, 0]	n/a	catFR1	0	R1674A
1558.235	0.0	1668180	REC_END	n/a	n/a	n/a	n/a	-999	12	[0, 0, 0]	n/a	catFR1	0	R1674A
