onset	duration	sample	trial_type	response_time	stim_file	item_name	category	serialpos	list	test	answer	experiment	session	subject
0.0	0.667	237741	INSTRUCT_START	n/a	n/a	n/a	n/a	-999	-999	[0, 0, 0]	n/a	catFR1	1	R1482J
0.667	43.782	238402	INSTRUCT_END	n/a	n/a	n/a	n/a	-999	-999	[0, 0, 0]	n/a	catFR1	1	R1482J
44.449	10.35	282189	COUNTDOWN_START	n/a	n/a	n/a	n/a	-999	-999	[0, 0, 0]	n/a	catFR1	1	R1482J
54.799	0.0	292532	COUNTDOWN_END	n/a	n/a	n/a	n/a	-999	-999	[0, 0, 0]	n/a	catFR1	1	R1482J
54.799	2.034	292539	ENCODING_START	n/a	n/a	n/a	n/a	-999	-1	[0, 0, 0]	n/a	catFR1	1	R1482J
56.833	1.615	294570	WORD	n/a	n/a	WATER	Beverages	1	-1	[0, 0, 0]	n/a	catFR1	1	R1482J
58.448	0.766	296184	WORD_OFF	n/a	n/a	WATER	Beverages	1	-1	[0, 0, 0]	n/a	catFR1	1	R1482J
59.214	1.601	296946	WORD	n/a	n/a	MILK	Beverages	2	-1	[0, 0, 0]	n/a	catFR1	1	R1482J
60.815	0.817	298545	WORD_OFF	n/a	n/a	MILK	Beverages	2	-1	[0, 0, 0]	n/a	catFR1	1	R1482J
61.632	1.616	299368	WORD	n/a	n/a	SPINACH	Vegetables	3	-1	[0, 0, 0]	n/a	catFR1	1	R1482J
63.248	0.866	300983	WORD_OFF	n/a	n/a	SPINACH	Vegetables	3	-1	[0, 0, 0]	n/a	catFR1	1	R1482J
64.114	1.6	301844	WORD	n/a	n/a	PEAS	Vegetables	4	-1	[0, 0, 0]	n/a	catFR1	1	R1482J
65.714	0.851	303451	WORD_OFF	n/a	n/a	PEAS	Vegetables	4	-1	[0, 0, 0]	n/a	catFR1	1	R1482J
66.565	1.615	304297	WORD	n/a	n/a	HUMIDITY	Weather	5	-1	[0, 0, 0]	n/a	catFR1	1	R1482J
68.18	0.768	305912	WORD_OFF	n/a	n/a	HUMIDITY	Weather	5	-1	[0, 0, 0]	n/a	catFR1	1	R1482J
68.948	1.616	306681	WORD	n/a	n/a	DRIZZLE	Weather	6	-1	[0, 0, 0]	n/a	catFR1	1	R1482J
70.564	0.85	308296	WORD_OFF	n/a	n/a	DRIZZLE	Weather	6	-1	[0, 0, 0]	n/a	catFR1	1	R1482J
71.414	1.616	309150	WORD	n/a	n/a	CIDER	Beverages	7	-1	[0, 0, 0]	n/a	catFR1	1	R1482J
73.03	0.785	310764	WORD_OFF	n/a	n/a	CIDER	Beverages	7	-1	[0, 0, 0]	n/a	catFR1	1	R1482J
73.815	1.599	311549	WORD	n/a	n/a	LEMONADE	Beverages	8	-1	[0, 0, 0]	n/a	catFR1	1	R1482J
75.414	0.85	313148	WORD_OFF	n/a	n/a	LEMONADE	Beverages	8	-1	[0, 0, 0]	n/a	catFR1	1	R1482J
76.264	1.6	313994	WORD	n/a	n/a	THUNDERSTORM	Weather	9	-1	[0, 0, 0]	n/a	catFR1	1	R1482J
77.864	0.867	315594	WORD_OFF	n/a	n/a	THUNDERSTORM	Weather	9	-1	[0, 0, 0]	n/a	catFR1	1	R1482J
78.731	1.601	316463	WORD	n/a	n/a	FOG	Weather	10	-1	[0, 0, 0]	n/a	catFR1	1	R1482J
80.332	0.899	318062	WORD_OFF	n/a	n/a	FOG	Weather	10	-1	[0, 0, 0]	n/a	catFR1	1	R1482J
81.231	1.6	318962	WORD	n/a	n/a	CABBAGE	Vegetables	11	-1	[0, 0, 0]	n/a	catFR1	1	R1482J
82.831	0.767	320561	WORD_OFF	n/a	n/a	CABBAGE	Vegetables	11	-1	[0, 0, 0]	n/a	catFR1	1	R1482J
83.598	1.616	321330	WORD	n/a	n/a	CORN	Vegetables	12	-1	[0, 0, 0]	n/a	catFR1	1	R1482J
85.214	0.001	322945	WORD_OFF	n/a	n/a	CORN	Vegetables	12	-1	[0, 0, 0]	n/a	catFR1	1	R1482J
85.215	0.0	322945	ENCODING_END	n/a	n/a	n/a	n/a	-999	-1	[0, 0, 0]	n/a	catFR1	1	R1482J
85.215	0.0	322948	START	n/a	n/a	n/a	n/a	-999	-1	[-999, -999, -999]	n/a	catFR1	1	R1482J
85.215	0.0	322948	PROB	0.0	n/a	n/a	n/a	-999	-1	[3, 3, 2]	8	catFR1	1	R1482J
85.215	5.3	322953	DISTRACT_START	n/a	n/a	n/a	n/a	-999	-1	[0, 0, 0]	n/a	catFR1	1	R1482J
90.515	5.633	328248	PROB	5.633	n/a	n/a	n/a	-999	-1	[3, 3, 2]	8	catFR1	1	R1482J
96.148	4.85	333881	PROB	4.85	n/a	n/a	n/a	-999	-1	[6, 6, 3]	15	catFR1	1	R1482J
100.998	4.866	338731	PROB	4.866	n/a	n/a	n/a	-999	-1	[1, 4, 1]	6	catFR1	1	R1482J
105.864	0.0	343593	DISTRACT_END	n/a	n/a	n/a	n/a	-999	-1	[0, 0, 0]	n/a	catFR1	1	R1482J
105.864	1.35	343596	STOP	n/a	n/a	n/a	n/a	-999	-1	[-999, -999, -999]	n/a	catFR1	1	R1482J
107.214	1.776	344946	REC_START	n/a	n/a	n/a	n/a	-999	-1	[0, 0, 0]	n/a	catFR1	1	R1482J
108.99	0.643	346722	REC_WORD	0.643	n/a	DRIZZLE	Weather	6	-1	[0, 0, 0]	n/a	catFR1	1	R1482J
109.633	2.055	347365	REC_WORD	2.055	n/a	LEMONADE	Beverages	8	-1	[0, 0, 0]	n/a	catFR1	1	R1482J
111.688	3.269	349420	REC_WORD	3.269	n/a	THUNDERSTORM	Weather	9	-1	[0, 0, 0]	n/a	catFR1	1	R1482J
114.957	23.46	352689	REC_WORD	23.46	n/a	WATER	Beverages	1	-1	[0, 0, 0]	n/a	catFR1	1	R1482J
138.417	13.165	376144	REC_END	n/a	n/a	n/a	n/a	-999	-1	[0, 0, 0]	n/a	catFR1	1	R1482J
151.582	10.35	389317	COUNTDOWN_START	n/a	n/a	n/a	n/a	-999	1	[0, 0, 0]	n/a	catFR1	1	R1482J
161.932	0.0	399660	COUNTDOWN_END	n/a	n/a	n/a	n/a	-999	1	[0, 0, 0]	n/a	catFR1	1	R1482J
161.932	2.1	399668	ENCODING_START	n/a	n/a	n/a	n/a	-999	1	[0, 0, 0]	n/a	catFR1	1	R1482J
164.032	1.599	401759	WORD	n/a	wordpools/wordpool_categorized_EN.txt	MOSQUITO	Insects	1	1	[0, 0, 0]	n/a	catFR1	1	R1482J
165.631	0.851	403359	WORD_OFF	n/a	n/a	MOSQUITO	Insects	1	1	[0, 0, 0]	n/a	catFR1	1	R1482J
166.482	1.6	404212	WORD	n/a	wordpools/wordpool_categorized_EN.txt	LADYBUG	Insects	2	1	[0, 0, 0]	n/a	catFR1	1	R1482J
168.082	0.884	405812	WORD_OFF	n/a	n/a	LADYBUG	Insects	2	1	[0, 0, 0]	n/a	catFR1	1	R1482J
168.966	1.6	406696	WORD	n/a	wordpools/wordpool_categorized_EN.txt	ELM	Trees	3	1	[0, 0, 0]	n/a	catFR1	1	R1482J
170.566	0.983	408296	WORD_OFF	n/a	n/a	ELM	Trees	3	1	[0, 0, 0]	n/a	catFR1	1	R1482J
171.549	1.6	409280	WORD	n/a	wordpools/wordpool_categorized_EN.txt	WILLOW	Trees	4	1	[0, 0, 0]	n/a	catFR1	1	R1482J
173.149	0.934	410880	WORD_OFF	n/a	n/a	WILLOW	Trees	4	1	[0, 0, 0]	n/a	catFR1	1	R1482J
174.083	1.616	411810	WORD	n/a	wordpools/wordpool_categorized_EN.txt	PLIERS	Tools	5	1	[0, 0, 0]	n/a	catFR1	1	R1482J
175.699	0.867	413425	WORD_OFF	n/a	n/a	PLIERS	Tools	5	1	[0, 0, 0]	n/a	catFR1	1	R1482J
176.566	1.6	414294	WORD	n/a	wordpools/wordpool_categorized_EN.txt	SANDER	Tools	6	1	[0, 0, 0]	n/a	catFR1	1	R1482J
178.166	0.966	415893	WORD_OFF	n/a	n/a	SANDER	Tools	6	1	[0, 0, 0]	n/a	catFR1	1	R1482J
179.132	1.617	416862	WORD	n/a	wordpools/wordpool_categorized_EN.txt	WALNUT	Trees	7	1	[0, 0, 0]	n/a	catFR1	1	R1482J
180.749	0.867	418477	WORD_OFF	n/a	n/a	WALNUT	Trees	7	1	[0, 0, 0]	n/a	catFR1	1	R1482J
181.616	1.617	419346	WORD	n/a	wordpools/wordpool_categorized_EN.txt	OAK	Trees	8	1	[0, 0, 0]	n/a	catFR1	1	R1482J
183.233	0.85	420961	WORD_OFF	n/a	n/a	OAK	Trees	8	1	[0, 0, 0]	n/a	catFR1	1	R1482J
184.083	1.616	421815	WORD	n/a	wordpools/wordpool_categorized_EN.txt	CRICKET	Insects	9	1	[0, 0, 0]	n/a	catFR1	1	R1482J
185.699	0.867	423429	WORD_OFF	n/a	n/a	CRICKET	Insects	9	1	[0, 0, 0]	n/a	catFR1	1	R1482J
186.566	1.6	424291	WORD	n/a	wordpools/wordpool_categorized_EN.txt	FLY	Insects	10	1	[0, 0, 0]	n/a	catFR1	1	R1482J
188.166	0.866	425898	WORD_OFF	n/a	n/a	FLY	Insects	10	1	[0, 0, 0]	n/a	catFR1	1	R1482J
189.032	1.617	426759	WORD	n/a	wordpools/wordpool_categorized_EN.txt	AXE	Tools	11	1	[0, 0, 0]	n/a	catFR1	1	R1482J
190.649	0.816	428374	WORD_OFF	n/a	n/a	AXE	Tools	11	1	[0, 0, 0]	n/a	catFR1	1	R1482J
191.465	1.601	429189	WORD	n/a	wordpools/wordpool_categorized_EN.txt	CROWBAR	Tools	12	1	[0, 0, 0]	n/a	catFR1	1	R1482J
193.066	0.0	430795	PROB	0.0	n/a	n/a	n/a	-999	1	[6, 7, 1]	14	catFR1	1	R1482J
193.066	0.001	430796	WORD_OFF	n/a	n/a	CROWBAR	Tools	12	1	[0, 0, 0]	n/a	catFR1	1	R1482J
193.067	0.0	430796	ENCODING_END	n/a	n/a	n/a	n/a	-999	1	[0, 0, 0]	n/a	catFR1	1	R1482J
193.067	0.0	430796	DISTRACT_START	n/a	n/a	n/a	n/a	-999	1	[0, 0, 0]	n/a	catFR1	1	R1482J
193.067	5.782	430796	START	n/a	n/a	n/a	n/a	-999	1	[-999, -999, -999]	n/a	catFR1	1	R1482J
198.849	8.084	436578	PROB	8.084	n/a	n/a	n/a	-999	1	[5, 1, 4]	10	catFR1	1	R1482J
206.933	3.666	444661	PROB	3.666	n/a	n/a	n/a	-999	1	[1, 1, 2]	4	catFR1	1	R1482J
210.599	3.832	448327	PROB	3.832	n/a	n/a	n/a	-999	1	[2, 1, 5]	8	catFR1	1	R1482J
214.431	0.0	452159	DISTRACT_END	n/a	n/a	n/a	n/a	-999	1	[0, 0, 0]	n/a	catFR1	1	R1482J
214.431	1.268	452159	STOP	n/a	n/a	n/a	n/a	-999	1	[-999, -999, -999]	n/a	catFR1	1	R1482J
215.699	1.703	453428	REC_START	n/a	n/a	n/a	n/a	-999	1	[0, 0, 0]	n/a	catFR1	1	R1482J
217.402	1.143	455130	REC_WORD	1.143	n/a	CRICKET	Insects	9	1	[0, 0, 0]	n/a	catFR1	1	R1482J
218.545	0.663	456273	REC_WORD	0.663	n/a	LADYBUG	Insects	2	1	[0, 0, 0]	n/a	catFR1	1	R1482J
219.208	2.095	456936	REC_WORD	2.095	n/a	MOSQUITO	Insects	1	1	[0, 0, 0]	n/a	catFR1	1	R1482J
221.303	25.596	459031	REC_WORD	25.596	n/a	AXE	Tools	11	1	[0, 0, 0]	n/a	catFR1	1	R1482J
246.899	1.884	484626	REC_END	n/a	n/a	n/a	n/a	-999	1	[0, 0, 0]	n/a	catFR1	1	R1482J
248.783	10.348	486510	COUNTDOWN_START	n/a	n/a	n/a	n/a	-999	1	[0, 0, 0]	n/a	catFR1	1	R1482J
259.131	0.0	496853	COUNTDOWN_END	n/a	n/a	n/a	n/a	-999	1	[0, 0, 0]	n/a	catFR1	1	R1482J
259.131	2.368	496861	ENCODING_START	n/a	n/a	n/a	n/a	-999	2	[0, 0, 0]	n/a	catFR1	1	R1482J
261.499	1.6	499221	WORD	n/a	wordpools/wordpool_categorized_EN.txt	PHONE	Electronics	1	2	[0, 0, 0]	n/a	catFR1	1	R1482J
263.099	0.933	500821	WORD_OFF	n/a	n/a	PHONE	Electronics	1	2	[0, 0, 0]	n/a	catFR1	1	R1482J
264.032	1.617	501759	WORD	n/a	wordpools/wordpool_categorized_EN.txt	COMPUTER	Electronics	2	2	[0, 0, 0]	n/a	catFR1	1	R1482J
265.649	0.884	503374	WORD_OFF	n/a	n/a	COMPUTER	Electronics	2	2	[0, 0, 0]	n/a	catFR1	1	R1482J
266.533	1.615	504258	WORD	n/a	wordpools/wordpool_categorized_EN.txt	THUNDER	Weather	3	2	[0, 0, 0]	n/a	catFR1	1	R1482J
268.148	0.834	505873	WORD_OFF	n/a	n/a	THUNDER	Weather	3	2	[0, 0, 0]	n/a	catFR1	1	R1482J
268.982	1.601	506711	WORD	n/a	wordpools/wordpool_categorized_EN.txt	RAIN	Weather	4	2	[0, 0, 0]	n/a	catFR1	1	R1482J
270.583	0.799	508311	WORD_OFF	n/a	n/a	RAIN	Weather	4	2	[0, 0, 0]	n/a	catFR1	1	R1482J
271.382	1.601	509111	WORD	n/a	wordpools/wordpool_categorized_EN.txt	ROACH	Insects	5	2	[0, 0, 0]	n/a	catFR1	1	R1482J
272.983	0.799	510710	WORD_OFF	n/a	n/a	ROACH	Insects	5	2	[0, 0, 0]	n/a	catFR1	1	R1482J
273.782	1.601	511510	WORD	n/a	wordpools/wordpool_categorized_EN.txt	BEETLE	Insects	6	2	[0, 0, 0]	n/a	catFR1	1	R1482J
275.383	1.0	513109	WORD_OFF	n/a	n/a	BEETLE	Insects	6	2	[0, 0, 0]	n/a	catFR1	1	R1482J
276.383	1.616	514109	WORD	n/a	wordpools/wordpool_categorized_EN.txt	CALCULATOR	Electronics	7	2	[0, 0, 0]	n/a	catFR1	1	R1482J
277.999	0.984	515724	WORD_OFF	n/a	n/a	CALCULATOR	Electronics	7	2	[0, 0, 0]	n/a	catFR1	1	R1482J
278.983	1.616	516708	WORD	n/a	wordpools/wordpool_categorized_EN.txt	TABLET	Electronics	8	2	[0, 0, 0]	n/a	catFR1	1	R1482J
280.599	0.801	518323	WORD_OFF	n/a	n/a	TABLET	Electronics	8	2	[0, 0, 0]	n/a	catFR1	1	R1482J
281.4	1.599	519123	WORD	n/a	wordpools/wordpool_categorized_EN.txt	BEE	Insects	9	2	[0, 0, 0]	n/a	catFR1	1	R1482J
282.999	0.984	520722	WORD_OFF	n/a	n/a	BEE	Insects	9	2	[0, 0, 0]	n/a	catFR1	1	R1482J
283.983	1.616	521707	WORD	n/a	wordpools/wordpool_categorized_EN.txt	SPIDER	Insects	10	2	[0, 0, 0]	n/a	catFR1	1	R1482J
285.599	0.816	523322	WORD_OFF	n/a	n/a	SPIDER	Insects	10	2	[0, 0, 0]	n/a	catFR1	1	R1482J
286.415	1.601	524137	WORD	n/a	wordpools/wordpool_categorized_EN.txt	SNOW	Weather	11	2	[0, 0, 0]	n/a	catFR1	1	R1482J
288.016	0.783	525736	WORD_OFF	n/a	n/a	SNOW	Weather	11	2	[0, 0, 0]	n/a	catFR1	1	R1482J
288.799	1.617	526521	WORD	n/a	wordpools/wordpool_categorized_EN.txt	CLOUD	Weather	12	2	[0, 0, 0]	n/a	catFR1	1	R1482J
290.416	0.001	528141	PROB	0.001	n/a	n/a	n/a	-999	2	[4, 4, 8]	16	catFR1	1	R1482J
290.417	0.0	528142	START	n/a	n/a	n/a	n/a	-999	2	[-999, -999, -999]	n/a	catFR1	1	R1482J
290.416	0.001	528143	WORD_OFF	n/a	n/a	CLOUD	Weather	12	2	[0, 0, 0]	n/a	catFR1	1	R1482J
290.417	0.0	528143	ENCODING_END	n/a	n/a	n/a	n/a	-999	2	[0, 0, 0]	n/a	catFR1	1	R1482J
290.417	7.782	528143	DISTRACT_START	n/a	n/a	n/a	n/a	-999	2	[0, 0, 0]	n/a	catFR1	1	R1482J
298.199	5.366	535923	PROB	5.366	n/a	n/a	n/a	-999	2	[7, 1, 1]	9	catFR1	1	R1482J
303.565	6.467	541289	PROB	6.467	n/a	n/a	n/a	-999	2	[8, 5, 7]	20	catFR1	1	R1482J
310.032	6.949	547756	PROB	6.949	n/a	n/a	n/a	-999	2	[7, 6, 8]	21	catFR1	1	R1482J
316.981	0.0	554704	DISTRACT_END	n/a	n/a	n/a	n/a	-999	2	[0, 0, 0]	n/a	catFR1	1	R1482J
316.981	1.383	554705	STOP	n/a	n/a	n/a	n/a	-999	2	[-999, -999, -999]	n/a	catFR1	1	R1482J
318.364	1.673	556088	REC_START	n/a	n/a	n/a	n/a	-999	2	[0, 0, 0]	n/a	catFR1	1	R1482J
320.037	0.604	557761	REC_WORD	0.604	n/a	PHONE	Electronics	1	2	[0, 0, 0]	n/a	catFR1	1	R1482J
320.641	1.681	558365	REC_WORD	1.681	n/a	COMPUTER	Electronics	2	2	[0, 0, 0]	n/a	catFR1	1	R1482J
322.322	2.317	560045	REC_WORD	2.317	n/a	BEETLE	Insects	6	2	[0, 0, 0]	n/a	catFR1	1	R1482J
324.639	1.0	562362	REC_WORD	1.0	n/a	ROACH	Insects	5	2	[0, 0, 0]	n/a	catFR1	1	R1482J
325.639	6.422	563362	REC_WORD_VV	6.422	n/a	<>	n/a	-999	2	[0, 0, 0]	n/a	catFR1	1	R1482J
332.061	17.502	569784	REC_WORD	17.502	n/a	SPIDER	Insects	10	2	[0, 0, 0]	n/a	catFR1	1	R1482J
349.563	2.453	587286	REC_END	n/a	n/a	n/a	n/a	-999	2	[0, 0, 0]	n/a	catFR1	1	R1482J
352.016	10.35	589739	COUNTDOWN_START	n/a	n/a	n/a	n/a	-999	2	[0, 0, 0]	n/a	catFR1	1	R1482J
362.366	0.0	600090	COUNTDOWN_END	n/a	n/a	n/a	n/a	-999	2	[0, 0, 0]	n/a	catFR1	1	R1482J
362.366	1.95	600090	ENCODING_START	n/a	n/a	n/a	n/a	-999	3	[0, 0, 0]	n/a	catFR1	1	R1482J
364.316	1.617	602036	WORD	n/a	wordpools/wordpool_categorized_EN.txt	JEEP	Vehicles	1	3	[0, 0, 0]	n/a	catFR1	1	R1482J
365.933	0.949	603650	WORD_OFF	n/a	n/a	JEEP	Vehicles	1	3	[0, 0, 0]	n/a	catFR1	1	R1482J
366.882	1.617	604604	WORD	n/a	wordpools/wordpool_categorized_EN.txt	TRAIN	Vehicles	2	3	[0, 0, 0]	n/a	catFR1	1	R1482J
368.499	0.85	606219	WORD_OFF	n/a	n/a	TRAIN	Vehicles	2	3	[0, 0, 0]	n/a	catFR1	1	R1482J
369.349	1.617	607072	WORD	n/a	wordpools/wordpool_categorized_EN.txt	TELEVISION	Electronics	3	3	[0, 0, 0]	n/a	catFR1	1	R1482J
370.966	1.0	608687	WORD_OFF	n/a	n/a	TELEVISION	Electronics	3	3	[0, 0, 0]	n/a	catFR1	1	R1482J
371.966	1.616	609687	WORD	n/a	wordpools/wordpool_categorized_EN.txt	PRINTER	Electronics	4	3	[0, 0, 0]	n/a	catFR1	1	R1482J
373.582	0.901	611302	WORD_OFF	n/a	n/a	PRINTER	Electronics	4	3	[0, 0, 0]	n/a	catFR1	1	R1482J
374.483	1.616	612202	WORD	n/a	wordpools/wordpool_categorized_EN.txt	FISH	OceanAnimals	5	3	[0, 0, 0]	n/a	catFR1	1	R1482J
376.099	0.8	613816	WORD_OFF	n/a	n/a	FISH	OceanAnimals	5	3	[0, 0, 0]	n/a	catFR1	1	R1482J
376.899	1.617	614616	WORD	n/a	wordpools/wordpool_categorized_EN.txt	SHRIMP	OceanAnimals	6	3	[0, 0, 0]	n/a	catFR1	1	R1482J
378.516	0.983	616239	WORD_OFF	n/a	n/a	SHRIMP	OceanAnimals	6	3	[0, 0, 0]	n/a	catFR1	1	R1482J
379.499	1.617	617223	WORD	n/a	wordpools/wordpool_categorized_EN.txt	MOPED	Vehicles	7	3	[0, 0, 0]	n/a	catFR1	1	R1482J
381.116	0.95	618838	WORD_OFF	n/a	n/a	MOPED	Vehicles	7	3	[0, 0, 0]	n/a	catFR1	1	R1482J
382.066	1.6	619784	WORD	n/a	wordpools/wordpool_categorized_EN.txt	BIKE	Vehicles	8	3	[0, 0, 0]	n/a	catFR1	1	R1482J
383.666	1.0	621383	WORD_OFF	n/a	n/a	BIKE	Vehicles	8	3	[0, 0, 0]	n/a	catFR1	1	R1482J
384.666	1.6	622383	WORD	n/a	wordpools/wordpool_categorized_EN.txt	SPEAKER	Electronics	9	3	[0, 0, 0]	n/a	catFR1	1	R1482J
386.266	0.833	623983	WORD_OFF	n/a	n/a	SPEAKER	Electronics	9	3	[0, 0, 0]	n/a	catFR1	1	R1482J
387.099	1.617	624821	WORD	n/a	wordpools/wordpool_categorized_EN.txt	MICROWAVE	Electronics	10	3	[0, 0, 0]	n/a	catFR1	1	R1482J
388.716	0.983	626436	WORD_OFF	n/a	n/a	MICROWAVE	Electronics	10	3	[0, 0, 0]	n/a	catFR1	1	R1482J
389.699	1.617	627420	WORD	n/a	wordpools/wordpool_categorized_EN.txt	TURTLE	OceanAnimals	11	3	[0, 0, 0]	n/a	catFR1	1	R1482J
391.316	0.783	629035	WORD_OFF	n/a	n/a	TURTLE	OceanAnimals	11	3	[0, 0, 0]	n/a	catFR1	1	R1482J
392.099	1.6	629819	WORD	n/a	wordpools/wordpool_categorized_EN.txt	WHALE	OceanAnimals	12	3	[0, 0, 0]	n/a	catFR1	1	R1482J
393.699	0.001	631419	WORD_OFF	n/a	n/a	WHALE	OceanAnimals	12	3	[0, 0, 0]	n/a	catFR1	1	R1482J
393.7	0.003	631421	PROB	0.003	n/a	n/a	n/a	-999	3	[7, 5, 2]	14	catFR1	1	R1482J
393.703	0.0	631424	START	n/a	n/a	n/a	n/a	-999	3	[-999, -999, -999]	n/a	catFR1	1	R1482J
393.703	0.0	631426	ENCODING_END	n/a	n/a	n/a	n/a	-999	3	[0, 0, 0]	n/a	catFR1	1	R1482J
393.703	5.464	631426	DISTRACT_START	n/a	n/a	n/a	n/a	-999	3	[0, 0, 0]	n/a	catFR1	1	R1482J
399.167	4.032	636887	PROB	4.032	n/a	n/a	n/a	-999	3	[7, 5, 7]	19	catFR1	1	R1482J
403.199	3.417	640919	PROB	3.417	n/a	n/a	n/a	-999	3	[1, 8, 1]	10	catFR1	1	R1482J
406.616	4.45	644336	PROB	4.45	n/a	n/a	n/a	-999	3	[8, 6, 1]	15	catFR1	1	R1482J
411.066	3.199	648786	PROB	3.199	n/a	n/a	n/a	-999	3	[2, 2, 5]	9	catFR1	1	R1482J
414.265	0.0	651982	DISTRACT_END	n/a	n/a	n/a	n/a	-999	3	[0, 0, 0]	n/a	catFR1	1	R1482J
414.265	1.084	651985	STOP	n/a	n/a	n/a	n/a	-999	3	[-999, -999, -999]	n/a	catFR1	1	R1482J
415.349	3.279	653066	REC_START	n/a	n/a	n/a	n/a	-999	3	[0, 0, 0]	n/a	catFR1	1	R1482J
418.628	0.849	656348	REC_WORD	0.849	n/a	JEEP	Vehicles	1	3	[0, 0, 0]	n/a	catFR1	1	R1482J
419.477	1.282	657197	REC_WORD	1.282	n/a	BIKE	Vehicles	8	3	[0, 0, 0]	n/a	catFR1	1	R1482J
420.759	5.909	658478	REC_WORD	5.909	n/a	WHALE	OceanAnimals	12	3	[0, 0, 0]	n/a	catFR1	1	R1482J
426.668	1.02	664387	REC_WORD	1.02	n/a	SHRIMP	OceanAnimals	6	3	[0, 0, 0]	n/a	catFR1	1	R1482J
427.688	18.863	665407	REC_WORD	18.863	n/a	FISH	OceanAnimals	5	3	[0, 0, 0]	n/a	catFR1	1	R1482J
446.551	2.332	684272	REC_END	n/a	n/a	n/a	n/a	-999	3	[0, 0, 0]	n/a	catFR1	1	R1482J
448.883	10.349	686602	COUNTDOWN_START	n/a	n/a	n/a	n/a	-999	3	[0, 0, 0]	n/a	catFR1	1	R1482J
459.232	0.0	696952	COUNTDOWN_END	n/a	n/a	n/a	n/a	-999	3	[0, 0, 0]	n/a	catFR1	1	R1482J
459.232	2.084	696952	ENCODING_START	n/a	n/a	n/a	n/a	-999	4	[0, 0, 0]	n/a	catFR1	1	R1482J
461.316	1.6	699036	WORD	n/a	wordpools/wordpool_categorized_EN.txt	SHOES	Clothing	1	4	[0, 0, 0]	n/a	catFR1	1	R1482J
462.916	0.917	700636	WORD_OFF	n/a	n/a	SHOES	Clothing	1	4	[0, 0, 0]	n/a	catFR1	1	R1482J
463.833	1.6	701551	WORD	n/a	wordpools/wordpool_categorized_EN.txt	JACKET	Clothing	2	4	[0, 0, 0]	n/a	catFR1	1	R1482J
465.433	0.949	703150	WORD_OFF	n/a	n/a	JACKET	Clothing	2	4	[0, 0, 0]	n/a	catFR1	1	R1482J
466.382	1.601	704096	WORD	n/a	wordpools/wordpool_categorized_EN.txt	CHEETAH	Zoo	3	4	[0, 0, 0]	n/a	catFR1	1	R1482J
467.983	0.933	705696	WORD_OFF	n/a	n/a	CHEETAH	Zoo	3	4	[0, 0, 0]	n/a	catFR1	1	R1482J
468.916	1.617	706634	WORD	n/a	wordpools/wordpool_categorized_EN.txt	TIGER	Zoo	4	4	[0, 0, 0]	n/a	catFR1	1	R1482J
470.533	0.833	708249	WORD_OFF	n/a	n/a	TIGER	Zoo	4	4	[0, 0, 0]	n/a	catFR1	1	R1482J
471.366	1.6	709079	WORD	n/a	wordpools/wordpool_categorized_EN.txt	LOBSTER	OceanAnimals	5	4	[0, 0, 0]	n/a	catFR1	1	R1482J
472.966	0.916	710686	WORD_OFF	n/a	n/a	LOBSTER	OceanAnimals	5	4	[0, 0, 0]	n/a	catFR1	1	R1482J
473.882	1.616	711602	WORD	n/a	wordpools/wordpool_categorized_EN.txt	DOLPHIN	OceanAnimals	6	4	[0, 0, 0]	n/a	catFR1	1	R1482J
475.498	1.001	713216	WORD_OFF	n/a	n/a	DOLPHIN	OceanAnimals	6	4	[0, 0, 0]	n/a	catFR1	1	R1482J
476.499	1.6	714216	WORD	n/a	wordpools/wordpool_categorized_EN.txt	DRESS	Clothing	7	4	[0, 0, 0]	n/a	catFR1	1	R1482J
478.099	0.9	715816	WORD_OFF	n/a	n/a	DRESS	Clothing	7	4	[0, 0, 0]	n/a	catFR1	1	R1482J
478.999	1.617	716715	WORD	n/a	wordpools/wordpool_categorized_EN.txt	UNDERWEAR	Clothing	8	4	[0, 0, 0]	n/a	catFR1	1	R1482J
480.616	0.95	718330	WORD_OFF	n/a	n/a	UNDERWEAR	Clothing	8	4	[0, 0, 0]	n/a	catFR1	1	R1482J
481.566	1.6	719284	WORD	n/a	wordpools/wordpool_categorized_EN.txt	ZEBRA	Zoo	9	4	[0, 0, 0]	n/a	catFR1	1	R1482J
483.166	1.0	720883	WORD_OFF	n/a	n/a	ZEBRA	Zoo	9	4	[0, 0, 0]	n/a	catFR1	1	R1482J
484.166	1.615	721883	WORD	n/a	wordpools/wordpool_categorized_EN.txt	CHIMPANZEE	Zoo	10	4	[0, 0, 0]	n/a	catFR1	1	R1482J
485.781	0.785	723498	WORD_OFF	n/a	n/a	CHIMPANZEE	Zoo	10	4	[0, 0, 0]	n/a	catFR1	1	R1482J
486.566	1.6	724282	WORD	n/a	wordpools/wordpool_categorized_EN.txt	CRAB	OceanAnimals	11	4	[0, 0, 0]	n/a	catFR1	1	R1482J
488.166	0.9	725882	WORD_OFF	n/a	n/a	CRAB	OceanAnimals	11	4	[0, 0, 0]	n/a	catFR1	1	R1482J
489.066	1.617	726781	WORD	n/a	wordpools/wordpool_categorized_EN.txt	OYSTER	OceanAnimals	12	4	[0, 0, 0]	n/a	catFR1	1	R1482J
490.683	0.001	728396	WORD_OFF	n/a	n/a	OYSTER	OceanAnimals	12	4	[0, 0, 0]	n/a	catFR1	1	R1482J
490.684	0.0	728396	ENCODING_END	n/a	n/a	n/a	n/a	-999	4	[0, 0, 0]	n/a	catFR1	1	R1482J
490.683	0.001	728400	PROB	0.001	n/a	n/a	n/a	-999	4	[1, 5, 2]	8	catFR1	1	R1482J
490.684	0.0	728401	START	n/a	n/a	n/a	n/a	-999	4	[-999, -999, -999]	n/a	catFR1	1	R1482J
490.684	8.382	728404	DISTRACT_START	n/a	n/a	n/a	n/a	-999	4	[0, 0, 0]	n/a	catFR1	1	R1482J
499.066	6.783	736782	PROB	6.783	n/a	n/a	n/a	-999	4	[8, 7, 4]	9	catFR1	1	R1482J
505.849	5.199	743565	PROB	5.199	n/a	n/a	n/a	-999	4	[6, 1, 4]	11	catFR1	1	R1482J
511.048	0.0	748759	DISTRACT_END	n/a	n/a	n/a	n/a	-999	4	[0, 0, 0]	n/a	catFR1	1	R1482J
511.048	1.134	748764	STOP	n/a	n/a	n/a	n/a	-999	4	[-999, -999, -999]	n/a	catFR1	1	R1482J
512.182	3.597	749897	REC_START	n/a	n/a	n/a	n/a	-999	4	[0, 0, 0]	n/a	catFR1	1	R1482J
515.779	19.326	753495	REC_WORD	19.326	n/a	CHIMPANZEE	Zoo	10	4	[0, 0, 0]	n/a	catFR1	1	R1482J
535.105	0.637	772820	REC_WORD	0.637	n/a	SHOES	Clothing	1	4	[0, 0, 0]	n/a	catFR1	1	R1482J
535.742	7.65	773457	REC_WORD	7.65	n/a	DRESS	Clothing	7	4	[0, 0, 0]	n/a	catFR1	1	R1482J
543.392	1.588	781103	REC_END	n/a	n/a	n/a	n/a	-999	4	[0, 0, 0]	n/a	catFR1	1	R1482J
544.98	10.351	782695	COUNTDOWN_START	n/a	n/a	n/a	n/a	-999	4	[0, 0, 0]	n/a	catFR1	1	R1482J
555.331	0.0	793045	COUNTDOWN_END	n/a	n/a	n/a	n/a	-999	4	[0, 0, 0]	n/a	catFR1	1	R1482J
555.331	1.916	793045	ENCODING_START	n/a	n/a	n/a	n/a	-999	5	[0, 0, 0]	n/a	catFR1	1	R1482J
557.247	1.601	794960	WORD	n/a	wordpools/wordpool_categorized_EN.txt	ROOF	Building	1	5	[0, 0, 0]	n/a	catFR1	1	R1482J
558.848	0.817	796560	WORD_OFF	n/a	n/a	ROOF	Building	1	5	[0, 0, 0]	n/a	catFR1	1	R1482J
559.665	1.6	797375	WORD	n/a	wordpools/wordpool_categorized_EN.txt	WINDOW	Building	2	5	[0, 0, 0]	n/a	catFR1	1	R1482J
561.265	0.767	798974	WORD_OFF	n/a	n/a	WINDOW	Building	2	5	[0, 0, 0]	n/a	catFR1	1	R1482J
562.032	1.616	799743	WORD	n/a	wordpools/wordpool_categorized_EN.txt	REFRIGERATOR	Appliances	3	5	[0, 0, 0]	n/a	catFR1	1	R1482J
563.648	0.899	801358	WORD_OFF	n/a	n/a	REFRIGERATOR	Appliances	3	5	[0, 0, 0]	n/a	catFR1	1	R1482J
564.547	1.602	802258	WORD	n/a	wordpools/wordpool_categorized_EN.txt	FREEZER	Appliances	4	5	[0, 0, 0]	n/a	catFR1	1	R1482J
566.149	0.816	803865	WORD_OFF	n/a	n/a	FREEZER	Appliances	4	5	[0, 0, 0]	n/a	catFR1	1	R1482J
566.965	1.616	804680	WORD	n/a	wordpools/wordpool_categorized_EN.txt	RUM	Beverages	5	5	[0, 0, 0]	n/a	catFR1	1	R1482J
568.581	0.917	806295	WORD_OFF	n/a	n/a	RUM	Beverages	5	5	[0, 0, 0]	n/a	catFR1	1	R1482J
569.498	1.616	807210	WORD	n/a	wordpools/wordpool_categorized_EN.txt	WINE	Beverages	6	5	[0, 0, 0]	n/a	catFR1	1	R1482J
571.114	1.0	808825	WORD_OFF	n/a	n/a	WINE	Beverages	6	5	[0, 0, 0]	n/a	catFR1	1	R1482J
572.114	1.601	809825	WORD	n/a	wordpools/wordpool_categorized_EN.txt	STOVE	Appliances	7	5	[0, 0, 0]	n/a	catFR1	1	R1482J
573.715	0.966	811424	WORD_OFF	n/a	n/a	STOVE	Appliances	7	5	[0, 0, 0]	n/a	catFR1	1	R1482J
574.681	1.618	812393	WORD	n/a	wordpools/wordpool_categorized_EN.txt	TOASTER	Appliances	8	5	[0, 0, 0]	n/a	catFR1	1	R1482J
576.299	0.966	814008	WORD_OFF	n/a	n/a	TOASTER	Appliances	8	5	[0, 0, 0]	n/a	catFR1	1	R1482J
577.265	1.616	814977	WORD	n/a	wordpools/wordpool_categorized_EN.txt	JUICE	Beverages	9	5	[0, 0, 0]	n/a	catFR1	1	R1482J
578.881	0.883	816592	WORD_OFF	n/a	n/a	JUICE	Beverages	9	5	[0, 0, 0]	n/a	catFR1	1	R1482J
579.764	1.616	817476	WORD	n/a	wordpools/wordpool_categorized_EN.txt	COLA	Beverages	10	5	[0, 0, 0]	n/a	catFR1	1	R1482J
581.38	0.934	819091	WORD_OFF	n/a	n/a	COLA	Beverages	10	5	[0, 0, 0]	n/a	catFR1	1	R1482J
582.314	1.6	820029	WORD	n/a	wordpools/wordpool_categorized_EN.txt	HALLWAY	Building	11	5	[0, 0, 0]	n/a	catFR1	1	R1482J
583.914	0.933	821629	WORD_OFF	n/a	n/a	HALLWAY	Building	11	5	[0, 0, 0]	n/a	catFR1	1	R1482J
584.847	1.601	822559	WORD	n/a	wordpools/wordpool_categorized_EN.txt	ROOM	Building	12	5	[0, 0, 0]	n/a	catFR1	1	R1482J
586.448	0.001	824159	WORD_OFF	n/a	n/a	ROOM	Building	12	5	[0, 0, 0]	n/a	catFR1	1	R1482J
586.449	0.0	824159	ENCODING_END	n/a	n/a	n/a	n/a	-999	5	[0, 0, 0]	n/a	catFR1	1	R1482J
586.449	0.001	824162	START	n/a	n/a	n/a	n/a	-999	5	[-999, -999, -999]	n/a	catFR1	1	R1482J
586.45	0.0	824163	PROB	0.0	n/a	n/a	n/a	-999	5	[6, 5, 6]	17	catFR1	1	R1482J
586.449	8.017	824167	DISTRACT_START	n/a	n/a	n/a	n/a	-999	5	[0, 0, 0]	n/a	catFR1	1	R1482J
594.466	4.498	832178	PROB	4.498	n/a	n/a	n/a	-999	5	[4, 3, 2]	9	catFR1	1	R1482J
598.964	7.984	836676	PROB	7.984	n/a	n/a	n/a	-999	5	[6, 3, 5]	14	catFR1	1	R1482J
606.948	0.0	844660	DISTRACT_END	n/a	n/a	n/a	n/a	-999	5	[0, 0, 0]	n/a	catFR1	1	R1482J
606.948	1.316	844660	STOP	n/a	n/a	n/a	n/a	-999	5	[-999, -999, -999]	n/a	catFR1	1	R1482J
608.264	5.068	845975	REC_START	n/a	n/a	n/a	n/a	-999	5	[0, 0, 0]	n/a	catFR1	1	R1482J
613.332	0.771	851044	REC_WORD	0.771	n/a	WINDOW	Building	2	5	[0, 0, 0]	n/a	catFR1	1	R1482J
614.103	13.664	851815	REC_WORD	13.664	n/a	ROOF	Building	1	5	[0, 0, 0]	n/a	catFR1	1	R1482J
627.767	11.698	865478	REC_WORD_VV	11.698	n/a	<>	n/a	-999	5	[0, 0, 0]	n/a	catFR1	1	R1482J
639.465	2.083	877173	REC_END	n/a	n/a	n/a	n/a	-999	5	[0, 0, 0]	n/a	catFR1	1	R1482J
641.548	10.351	879257	COUNTDOWN_START	n/a	n/a	n/a	n/a	-999	5	[0, 0, 0]	n/a	catFR1	1	R1482J
651.899	0.001	889608	COUNTDOWN_END	n/a	n/a	n/a	n/a	-999	5	[0, 0, 0]	n/a	catFR1	1	R1482J
651.9	2.132	889608	ENCODING_START	n/a	n/a	n/a	n/a	-999	6	[0, 0, 0]	n/a	catFR1	1	R1482J
654.032	1.601	891738	WORD	n/a	wordpools/wordpool_categorized_EN.txt	MOTORCYCLE	Vehicles	1	6	[0, 0, 0]	n/a	catFR1	1	R1482J
655.633	0.966	893345	WORD_OFF	n/a	n/a	MOTORCYCLE	Vehicles	1	6	[0, 0, 0]	n/a	catFR1	1	R1482J
656.599	1.617	894306	WORD	n/a	wordpools/wordpool_categorized_EN.txt	BOAT	Vehicles	2	6	[0, 0, 0]	n/a	catFR1	1	R1482J
658.216	0.815	895921	WORD_OFF	n/a	n/a	BOAT	Vehicles	2	6	[0, 0, 0]	n/a	catFR1	1	R1482J
659.031	1.602	896736	WORD	n/a	wordpools/wordpool_categorized_EN.txt	FUDGE	Desserts	3	6	[0, 0, 0]	n/a	catFR1	1	R1482J
660.633	0.833	898344	WORD_OFF	n/a	n/a	FUDGE	Desserts	3	6	[0, 0, 0]	n/a	catFR1	1	R1482J
661.466	1.6	899174	WORD	n/a	wordpools/wordpool_categorized_EN.txt	PUDDING	Desserts	4	6	[0, 0, 0]	n/a	catFR1	1	R1482J
663.066	0.883	900774	WORD_OFF	n/a	n/a	PUDDING	Desserts	4	6	[0, 0, 0]	n/a	catFR1	1	R1482J
663.949	1.6	901658	WORD	n/a	wordpools/wordpool_categorized_EN.txt	BALL	Toys	5	6	[0, 0, 0]	n/a	catFR1	1	R1482J
665.549	0.95	903257	WORD_OFF	n/a	n/a	BALL	Toys	5	6	[0, 0, 0]	n/a	catFR1	1	R1482J
666.499	1.617	904211	WORD	n/a	wordpools/wordpool_categorized_EN.txt	FRISBEE	Toys	6	6	[0, 0, 0]	n/a	catFR1	1	R1482J
668.116	0.783	905826	WORD_OFF	n/a	n/a	FRISBEE	Toys	6	6	[0, 0, 0]	n/a	catFR1	1	R1482J
668.899	1.617	906610	WORD	n/a	wordpools/wordpool_categorized_EN.txt	BROWNIES	Desserts	7	6	[0, 0, 0]	n/a	catFR1	1	R1482J
670.516	0.883	908225	WORD_OFF	n/a	n/a	BROWNIES	Desserts	7	6	[0, 0, 0]	n/a	catFR1	1	R1482J
671.399	1.6	909109	WORD	n/a	wordpools/wordpool_categorized_EN.txt	CUPCAKE	Desserts	8	6	[0, 0, 0]	n/a	catFR1	1	R1482J
672.999	0.85	910709	WORD_OFF	n/a	n/a	CUPCAKE	Desserts	8	6	[0, 0, 0]	n/a	catFR1	1	R1482J
673.849	1.615	911555	WORD	n/a	wordpools/wordpool_categorized_EN.txt	PUZZLE	Toys	9	6	[0, 0, 0]	n/a	catFR1	1	R1482J
675.464	0.902	913170	WORD_OFF	n/a	n/a	PUZZLE	Toys	9	6	[0, 0, 0]	n/a	catFR1	1	R1482J
676.366	1.617	914077	WORD	n/a	wordpools/wordpool_categorized_EN.txt	MARBLES	Toys	10	6	[0, 0, 0]	n/a	catFR1	1	R1482J
677.983	0.816	915692	WORD_OFF	n/a	n/a	MARBLES	Toys	10	6	[0, 0, 0]	n/a	catFR1	1	R1482J
678.799	1.6	916507	WORD	n/a	wordpools/wordpool_categorized_EN.txt	CAR	Vehicles	11	6	[0, 0, 0]	n/a	catFR1	1	R1482J
680.399	0.95	918107	WORD_OFF	n/a	n/a	CAR	Vehicles	11	6	[0, 0, 0]	n/a	catFR1	1	R1482J
681.349	1.6	919060	WORD	n/a	wordpools/wordpool_categorized_EN.txt	SCOOTER	Vehicles	12	6	[0, 0, 0]	n/a	catFR1	1	R1482J
682.949	0.0	920658	PROB	0.0	n/a	n/a	n/a	-999	6	[8, 7, 5]	20	catFR1	1	R1482J
682.949	0.002	920660	WORD_OFF	n/a	n/a	SCOOTER	Vehicles	12	6	[0, 0, 0]	n/a	catFR1	1	R1482J
682.951	0.0	920660	ENCODING_END	n/a	n/a	n/a	n/a	-999	6	[0, 0, 0]	n/a	catFR1	1	R1482J
682.951	0.0	920660	DISTRACT_START	n/a	n/a	n/a	n/a	-999	6	[0, 0, 0]	n/a	catFR1	1	R1482J
682.951	6.465	920660	START	n/a	n/a	n/a	n/a	-999	6	[-999, -999, -999]	n/a	catFR1	1	R1482J
689.416	5.849	927124	PROB	5.849	n/a	n/a	n/a	-999	6	[5, 2, 8]	15	catFR1	1	R1482J
695.265	4.784	932973	PROB	4.784	n/a	n/a	n/a	-999	6	[5, 7, 6]	18	catFR1	1	R1482J
700.049	5.032	937757	PROB	5.032	n/a	n/a	n/a	-999	6	[3, 2, 6]	11	catFR1	1	R1482J
705.081	0.0	942789	STOP	n/a	n/a	n/a	n/a	-999	6	[-999, -999, -999]	n/a	catFR1	1	R1482J
705.081	1.384	942791	DISTRACT_END	n/a	n/a	n/a	n/a	-999	6	[0, 0, 0]	n/a	catFR1	1	R1482J
706.465	1.238	944168	REC_START	n/a	n/a	n/a	n/a	-999	6	[0, 0, 0]	n/a	catFR1	1	R1482J
707.703	2.755	945411	REC_WORD	2.755	n/a	MOTORCYCLE	Vehicles	1	6	[0, 0, 0]	n/a	catFR1	1	R1482J
710.458	0.714	948166	REC_WORD	0.714	n/a	FUDGE	Desserts	3	6	[0, 0, 0]	n/a	catFR1	1	R1482J
711.172	26.515	948880	REC_WORD	26.515	n/a	BROWNIES	Desserts	7	6	[0, 0, 0]	n/a	catFR1	1	R1482J
737.687	1.946	975389	REC_END	n/a	n/a	n/a	n/a	-999	6	[0, 0, 0]	n/a	catFR1	1	R1482J
739.633	10.349	977342	COUNTDOWN_START	n/a	n/a	n/a	n/a	-999	6	[0, 0, 0]	n/a	catFR1	1	R1482J
749.982	0.0	987685	COUNTDOWN_END	n/a	n/a	n/a	n/a	-999	6	[0, 0, 0]	n/a	catFR1	1	R1482J
749.982	2.067	987692	ENCODING_START	n/a	n/a	n/a	n/a	-999	7	[0, 0, 0]	n/a	catFR1	1	R1482J
752.049	1.6	989754	WORD	n/a	wordpools/wordpool_categorized_EN.txt	FOOT	BodyParts	1	7	[0, 0, 0]	n/a	catFR1	1	R1482J
753.649	0.934	991353	WORD_OFF	n/a	n/a	FOOT	BodyParts	1	7	[0, 0, 0]	n/a	catFR1	1	R1482J
754.583	1.599	992291	WORD	n/a	wordpools/wordpool_categorized_EN.txt	ARM	BodyParts	2	7	[0, 0, 0]	n/a	catFR1	1	R1482J
756.182	0.933	993891	WORD_OFF	n/a	n/a	ARM	BodyParts	2	7	[0, 0, 0]	n/a	catFR1	1	R1482J
757.115	1.616	994821	WORD	n/a	wordpools/wordpool_categorized_EN.txt	BUTTERFLY	Insects	3	7	[0, 0, 0]	n/a	catFR1	1	R1482J
758.731	0.818	996436	WORD_OFF	n/a	n/a	BUTTERFLY	Insects	3	7	[0, 0, 0]	n/a	catFR1	1	R1482J
759.549	1.6	997251	WORD	n/a	wordpools/wordpool_categorized_EN.txt	GNAT	Insects	4	7	[0, 0, 0]	n/a	catFR1	1	R1482J
761.149	0.9	998851	WORD_OFF	n/a	n/a	GNAT	Insects	4	7	[0, 0, 0]	n/a	catFR1	1	R1482J
762.049	1.6	999758	WORD	n/a	wordpools/wordpool_categorized_EN.txt	TORNADO	Weather	5	7	[0, 0, 0]	n/a	catFR1	1	R1482J
763.649	0.967	1001350	WORD_OFF	n/a	n/a	TORNADO	Weather	5	7	[0, 0, 0]	n/a	catFR1	1	R1482J
764.616	1.6	1002319	WORD	n/a	wordpools/wordpool_categorized_EN.txt	HURRICANE	Weather	6	7	[0, 0, 0]	n/a	catFR1	1	R1482J
766.216	0.767	1003918	WORD_OFF	n/a	n/a	HURRICANE	Weather	6	7	[0, 0, 0]	n/a	catFR1	1	R1482J
766.983	1.616	1004687	WORD	n/a	wordpools/wordpool_categorized_EN.txt	TOE	BodyParts	7	7	[0, 0, 0]	n/a	catFR1	1	R1482J
768.599	0.867	1006302	WORD_OFF	n/a	n/a	TOE	BodyParts	7	7	[0, 0, 0]	n/a	catFR1	1	R1482J
769.466	1.615	1007171	WORD	n/a	wordpools/wordpool_categorized_EN.txt	EAR	BodyParts	8	7	[0, 0, 0]	n/a	catFR1	1	R1482J
771.081	0.883	1008786	WORD_OFF	n/a	n/a	EAR	BodyParts	8	7	[0, 0, 0]	n/a	catFR1	1	R1482J
771.964	1.618	1009670	WORD	n/a	wordpools/wordpool_categorized_EN.txt	ANT	Insects	9	7	[0, 0, 0]	n/a	catFR1	1	R1482J
773.582	1.0	1011285	WORD_OFF	n/a	n/a	ANT	Insects	9	7	[0, 0, 0]	n/a	catFR1	1	R1482J
774.582	1.618	1012285	WORD	n/a	wordpools/wordpool_categorized_EN.txt	MOTH	Insects	10	7	[0, 0, 0]	n/a	catFR1	1	R1482J
776.2	0.949	1013900	WORD_OFF	n/a	n/a	MOTH	Insects	10	7	[0, 0, 0]	n/a	catFR1	1	R1482J
777.149	1.617	1014853	WORD	n/a	wordpools/wordpool_categorized_EN.txt	LIGHTNING	Weather	11	7	[0, 0, 0]	n/a	catFR1	1	R1482J
778.766	0.95	1016468	WORD_OFF	n/a	n/a	LIGHTNING	Weather	11	7	[0, 0, 0]	n/a	catFR1	1	R1482J
779.716	1.616	1017422	WORD	n/a	wordpools/wordpool_categorized_EN.txt	WIND	Weather	12	7	[0, 0, 0]	n/a	catFR1	1	R1482J
781.332	0.002	1019037	WORD_OFF	n/a	n/a	WIND	Weather	12	7	[0, 0, 0]	n/a	catFR1	1	R1482J
781.334	0.0	1019037	ENCODING_END	n/a	n/a	n/a	n/a	-999	7	[0, 0, 0]	n/a	catFR1	1	R1482J
781.333	0.001	1019038	PROB	0.001	n/a	n/a	n/a	-999	7	[8, 4, 8]	20	catFR1	1	R1482J
781.334	0.0	1019039	START	n/a	n/a	n/a	n/a	-999	7	[-999, -999, -999]	n/a	catFR1	1	R1482J
781.334	4.933	1019044	DISTRACT_START	n/a	n/a	n/a	n/a	-999	7	[0, 0, 0]	n/a	catFR1	1	R1482J
786.267	3.732	1023972	PROB	3.732	n/a	n/a	n/a	-999	7	[4, 7, 8]	19	catFR1	1	R1482J
789.999	2.484	1027703	PROB	2.484	n/a	n/a	n/a	-999	7	[1, 3, 7]	11	catFR1	1	R1482J
792.483	4.566	1030187	PROB	4.566	n/a	n/a	n/a	-999	7	[1, 6, 8]	15	catFR1	1	R1482J
797.049	7.482	1034753	PROB	7.482	n/a	n/a	n/a	-999	7	[8, 8, 8]	24	catFR1	1	R1482J
804.531	0.0	1042235	STOP	n/a	n/a	n/a	n/a	-999	7	[-999, -999, -999]	n/a	catFR1	1	R1482J
804.531	1.084	1042237	DISTRACT_END	n/a	n/a	n/a	n/a	-999	7	[0, 0, 0]	n/a	catFR1	1	R1482J
805.615	2.962	1043314	REC_START	n/a	n/a	n/a	n/a	-999	7	[0, 0, 0]	n/a	catFR1	1	R1482J
808.577	0.846	1046281	REC_WORD	0.846	n/a	FOOT	BodyParts	1	7	[0, 0, 0]	n/a	catFR1	1	R1482J
809.423	2.237	1047127	REC_WORD	2.237	n/a	TOE	BodyParts	7	7	[0, 0, 0]	n/a	catFR1	1	R1482J
811.66	25.193	1049363	REC_WORD	25.193	n/a	EAR	BodyParts	8	7	[0, 0, 0]	n/a	catFR1	1	R1482J
836.853	1.762	1074558	REC_END	n/a	n/a	n/a	n/a	-999	7	[0, 0, 0]	n/a	catFR1	1	R1482J
838.615	10.35	1076319	COUNTDOWN_START	n/a	n/a	n/a	n/a	-999	7	[0, 0, 0]	n/a	catFR1	1	R1482J
848.965	0.0	1086670	COUNTDOWN_END	n/a	n/a	n/a	n/a	-999	7	[0, 0, 0]	n/a	catFR1	1	R1482J
848.965	2.018	1086670	ENCODING_START	n/a	n/a	n/a	n/a	-999	8	[0, 0, 0]	n/a	catFR1	1	R1482J
850.983	1.6	1088684	WORD	n/a	wordpools/wordpool_categorized_EN.txt	ELBOW	BodyParts	1	8	[0, 0, 0]	n/a	catFR1	1	R1482J
852.583	0.932	1090284	WORD_OFF	n/a	n/a	ELBOW	BodyParts	1	8	[0, 0, 0]	n/a	catFR1	1	R1482J
853.515	1.601	1091214	WORD	n/a	wordpools/wordpool_categorized_EN.txt	KNEE	BodyParts	2	8	[0, 0, 0]	n/a	catFR1	1	R1482J
855.116	0.867	1092814	WORD_OFF	n/a	n/a	KNEE	BodyParts	2	8	[0, 0, 0]	n/a	catFR1	1	R1482J
855.983	1.6	1093683	WORD	n/a	wordpools/wordpool_categorized_EN.txt	DENIM	Fabric	3	8	[0, 0, 0]	n/a	catFR1	1	R1482J
857.583	0.916	1095282	WORD_OFF	n/a	n/a	DENIM	Fabric	3	8	[0, 0, 0]	n/a	catFR1	1	R1482J
858.499	1.6	1096197	WORD	n/a	wordpools/wordpool_categorized_EN.txt	FLEECE	Fabric	4	8	[0, 0, 0]	n/a	catFR1	1	R1482J
860.099	0.999	1097797	WORD_OFF	n/a	n/a	FLEECE	Fabric	4	8	[0, 0, 0]	n/a	catFR1	1	R1482J
861.098	1.601	1098797	WORD	n/a	wordpools/wordpool_categorized_EN.txt	RADIO	Electronics	5	8	[0, 0, 0]	n/a	catFR1	1	R1482J
862.699	0.916	1100404	WORD_OFF	n/a	n/a	RADIO	Electronics	5	8	[0, 0, 0]	n/a	catFR1	1	R1482J
863.615	1.601	1101319	WORD	n/a	wordpools/wordpool_categorized_EN.txt	STEREO	Electronics	6	8	[0, 0, 0]	n/a	catFR1	1	R1482J
865.216	0.816	1102918	WORD_OFF	n/a	n/a	STEREO	Electronics	6	8	[0, 0, 0]	n/a	catFR1	1	R1482J
866.032	1.617	1103734	WORD	n/a	wordpools/wordpool_categorized_EN.txt	SPANDEX	Fabric	7	8	[0, 0, 0]	n/a	catFR1	1	R1482J
867.649	0.899	1105348	WORD_OFF	n/a	n/a	SPANDEX	Fabric	7	8	[0, 0, 0]	n/a	catFR1	1	R1482J
868.548	1.601	1106248	WORD	n/a	wordpools/wordpool_categorized_EN.txt	LEATHER	Fabric	8	8	[0, 0, 0]	n/a	catFR1	1	R1482J
870.149	0.95	1107848	WORD_OFF	n/a	n/a	LEATHER	Fabric	8	8	[0, 0, 0]	n/a	catFR1	1	R1482J
871.099	1.6	1108801	WORD	n/a	wordpools/wordpool_categorized_EN.txt	HEADPHONES	Electronics	9	8	[0, 0, 0]	n/a	catFR1	1	R1482J
872.699	0.884	1110401	WORD_OFF	n/a	n/a	HEADPHONES	Electronics	9	8	[0, 0, 0]	n/a	catFR1	1	R1482J
873.583	1.599	1111285	WORD	n/a	wordpools/wordpool_categorized_EN.txt	SCANNER	Electronics	10	8	[0, 0, 0]	n/a	catFR1	1	R1482J
875.182	0.95	1112885	WORD_OFF	n/a	n/a	SCANNER	Electronics	10	8	[0, 0, 0]	n/a	catFR1	1	R1482J
876.132	1.616	1113830	WORD	n/a	wordpools/wordpool_categorized_EN.txt	FINGERS	BodyParts	11	8	[0, 0, 0]	n/a	catFR1	1	R1482J
877.748	0.934	1115445	WORD_OFF	n/a	n/a	FINGERS	BodyParts	11	8	[0, 0, 0]	n/a	catFR1	1	R1482J
878.682	1.617	1116383	WORD	n/a	wordpools/wordpool_categorized_EN.txt	HEAD	BodyParts	12	8	[0, 0, 0]	n/a	catFR1	1	R1482J
880.299	0.002	1117998	WORD_OFF	n/a	n/a	HEAD	BodyParts	12	8	[0, 0, 0]	n/a	catFR1	1	R1482J
880.301	0.0	1117998	ENCODING_END	n/a	n/a	n/a	n/a	-999	8	[0, 0, 0]	n/a	catFR1	1	R1482J
880.3	0.001	1118001	PROB	0.001	n/a	n/a	n/a	-999	8	[5, 5, 6]	16	catFR1	1	R1482J
880.301	0.0	1118002	START	n/a	n/a	n/a	n/a	-999	8	[-999, -999, -999]	n/a	catFR1	1	R1482J
880.301	5.882	1118006	DISTRACT_START	n/a	n/a	n/a	n/a	-999	8	[0, 0, 0]	n/a	catFR1	1	R1482J
886.183	6.166	1123883	PROB	6.166	n/a	n/a	n/a	-999	8	[8, 2, 3]	13	catFR1	1	R1482J
892.349	4.584	1130049	PROB	4.584	n/a	n/a	n/a	-999	8	[2, 4, 7]	13	catFR1	1	R1482J
896.933	2.899	1134633	PROB	2.899	n/a	n/a	n/a	-999	8	[4, 6, 3]	13	catFR1	1	R1482J
899.832	7.682	1137532	PROB	7.682	n/a	n/a	n/a	-999	8	[5, 1, 2]	8	catFR1	1	R1482J
907.514	0.0	1145213	DISTRACT_END	n/a	n/a	n/a	n/a	-999	8	[0, 0, 0]	n/a	catFR1	1	R1482J
907.514	1.235	1145214	STOP	n/a	n/a	n/a	n/a	-999	8	[-999, -999, -999]	n/a	catFR1	1	R1482J
908.749	3.816	1146451	REC_START	n/a	n/a	n/a	n/a	-999	8	[0, 0, 0]	n/a	catFR1	1	R1482J
912.565	0.585	1150264	REC_WORD	0.585	n/a	HEAD	BodyParts	12	8	[0, 0, 0]	n/a	catFR1	1	R1482J
913.15	26.818	1150849	REC_WORD	26.818	n/a	FINGERS	BodyParts	11	8	[0, 0, 0]	n/a	catFR1	1	R1482J
939.968	2.448	1177664	REC_END	n/a	n/a	n/a	n/a	-999	8	[0, 0, 0]	n/a	catFR1	1	R1482J
942.416	10.349	1180117	COUNTDOWN_START	n/a	n/a	n/a	n/a	-999	8	[0, 0, 0]	n/a	catFR1	1	R1482J
952.765	0.0	1190460	COUNTDOWN_END	n/a	n/a	n/a	n/a	-999	8	[0, 0, 0]	n/a	catFR1	1	R1482J
952.765	2.068	1190460	ENCODING_START	n/a	n/a	n/a	n/a	-999	9	[0, 0, 0]	n/a	catFR1	1	R1482J
954.833	1.6	1192529	WORD	n/a	wordpools/wordpool_categorized_EN.txt	VIOLIN	Instruments	1	9	[0, 0, 0]	n/a	catFR1	1	R1482J
956.433	0.8	1194129	WORD_OFF	n/a	n/a	VIOLIN	Instruments	1	9	[0, 0, 0]	n/a	catFR1	1	R1482J
957.233	1.616	1194928	WORD	n/a	wordpools/wordpool_categorized_EN.txt	FLUTE	Instruments	2	9	[0, 0, 0]	n/a	catFR1	1	R1482J
958.849	0.85	1196543	WORD_OFF	n/a	n/a	FLUTE	Instruments	2	9	[0, 0, 0]	n/a	catFR1	1	R1482J
959.699	1.601	1197397	WORD	n/a	wordpools/wordpool_categorized_EN.txt	CAULIFLOWER	Vegetables	3	9	[0, 0, 0]	n/a	catFR1	1	R1482J
961.3	0.899	1198996	WORD_OFF	n/a	n/a	CAULIFLOWER	Vegetables	3	9	[0, 0, 0]	n/a	catFR1	1	R1482J
962.199	1.601	1199896	WORD	n/a	wordpools/wordpool_categorized_EN.txt	BROCCOLI	Vegetables	4	9	[0, 0, 0]	n/a	catFR1	1	R1482J
963.8	0.831	1201495	WORD_OFF	n/a	n/a	BROCCOLI	Vegetables	4	9	[0, 0, 0]	n/a	catFR1	1	R1482J
964.631	1.602	1202326	WORD	n/a	wordpools/wordpool_categorized_EN.txt	VACUUM	Appliances	5	9	[0, 0, 0]	n/a	catFR1	1	R1482J
966.233	1.0	1203925	WORD_OFF	n/a	n/a	VACUUM	Appliances	5	9	[0, 0, 0]	n/a	catFR1	1	R1482J
967.233	1.6	1204925	WORD	n/a	wordpools/wordpool_categorized_EN.txt	WASHER	Appliances	6	9	[0, 0, 0]	n/a	catFR1	1	R1482J
968.833	0.883	1206532	WORD_OFF	n/a	n/a	WASHER	Appliances	6	9	[0, 0, 0]	n/a	catFR1	1	R1482J
969.716	1.6	1207409	WORD	n/a	wordpools/wordpool_categorized_EN.txt	LETTUCE	Vegetables	7	9	[0, 0, 0]	n/a	catFR1	1	R1482J
971.316	0.85	1209016	WORD_OFF	n/a	n/a	LETTUCE	Vegetables	7	9	[0, 0, 0]	n/a	catFR1	1	R1482J
972.166	1.617	1209862	WORD	n/a	wordpools/wordpool_categorized_EN.txt	CUCUMBER	Vegetables	8	9	[0, 0, 0]	n/a	catFR1	1	R1482J
973.783	0.866	1211477	WORD_OFF	n/a	n/a	CUCUMBER	Vegetables	8	9	[0, 0, 0]	n/a	catFR1	1	R1482J
974.649	1.6	1212346	WORD	n/a	wordpools/wordpool_categorized_EN.txt	MIXER	Appliances	9	9	[0, 0, 0]	n/a	catFR1	1	R1482J
976.249	0.767	1213945	WORD_OFF	n/a	n/a	MIXER	Appliances	9	9	[0, 0, 0]	n/a	catFR1	1	R1482J
977.016	1.617	1214714	WORD	n/a	wordpools/wordpool_categorized_EN.txt	DRYER	Appliances	10	9	[0, 0, 0]	n/a	catFR1	1	R1482J
978.633	0.966	1216329	WORD_OFF	n/a	n/a	DRYER	Appliances	10	9	[0, 0, 0]	n/a	catFR1	1	R1482J
979.599	1.617	1217298	WORD	n/a	wordpools/wordpool_categorized_EN.txt	BASS	Instruments	11	9	[0, 0, 0]	n/a	catFR1	1	R1482J
981.216	0.966	1218913	WORD_OFF	n/a	n/a	BASS	Instruments	11	9	[0, 0, 0]	n/a	catFR1	1	R1482J
982.182	1.617	1219875	WORD	n/a	wordpools/wordpool_categorized_EN.txt	ORGAN	Instruments	12	9	[0, 0, 0]	n/a	catFR1	1	R1482J
983.799	0.001	1221495	START	n/a	n/a	n/a	n/a	-999	9	[-999, -999, -999]	n/a	catFR1	1	R1482J
983.8	0.0	1221496	PROB	0.0	n/a	n/a	n/a	-999	9	[8, 6, 6]	20	catFR1	1	R1482J
983.798	0.001	1221497	WORD_OFF	n/a	n/a	ORGAN	Instruments	12	9	[0, 0, 0]	n/a	catFR1	1	R1482J
983.799	0.0	1221497	ENCODING_END	n/a	n/a	n/a	n/a	-999	9	[0, 0, 0]	n/a	catFR1	1	R1482J
983.799	5.334	1221497	DISTRACT_START	n/a	n/a	n/a	n/a	-999	9	[0, 0, 0]	n/a	catFR1	1	R1482J
989.133	2.899	1226829	PROB	2.899	n/a	n/a	n/a	-999	9	[4, 1, 7]	12	catFR1	1	R1482J
992.032	4.316	1229728	PROB	4.316	n/a	n/a	n/a	-999	9	[4, 6, 5]	15	catFR1	1	R1482J
996.348	4.65	1234044	PROB	4.65	n/a	n/a	n/a	-999	9	[1, 8, 1]	10	catFR1	1	R1482J
1000.998	4.166	1238694	PROB	4.166	n/a	n/a	n/a	-999	9	[3, 3, 5]	11	catFR1	1	R1482J
1005.164	0.0	1242860	DISTRACT_END	n/a	n/a	n/a	n/a	-999	9	[0, 0, 0]	n/a	catFR1	1	R1482J
1005.164	1.367	1242860	STOP	n/a	n/a	n/a	n/a	-999	9	[-999, -999, -999]	n/a	catFR1	1	R1482J
1006.531	3.065	1244228	REC_START	n/a	n/a	n/a	n/a	-999	9	[0, 0, 0]	n/a	catFR1	1	R1482J
1009.596	28.166	1247291	REC_WORD	28.166	n/a	CAULIFLOWER	Vegetables	3	9	[0, 0, 0]	n/a	catFR1	1	R1482J
1037.762	1.987	1275457	REC_END	n/a	n/a	n/a	n/a	-999	9	[0, 0, 0]	n/a	catFR1	1	R1482J
1039.749	10.349	1277441	COUNTDOWN_START	n/a	n/a	n/a	n/a	-999	9	[0, 0, 0]	n/a	catFR1	1	R1482J
1050.098	0.0	1287792	COUNTDOWN_END	n/a	n/a	n/a	n/a	-999	9	[0, 0, 0]	n/a	catFR1	1	R1482J
1050.098	2.285	1287792	ENCODING_START	n/a	n/a	n/a	n/a	-999	10	[0, 0, 0]	n/a	catFR1	1	R1482J
1052.383	1.6	1290076	WORD	n/a	wordpools/wordpool_categorized_EN.txt	DOLLHOUSE	Toys	1	10	[0, 0, 0]	n/a	catFR1	1	R1482J
1053.983	0.816	1291675	WORD_OFF	n/a	n/a	DOLLHOUSE	Toys	1	10	[0, 0, 0]	n/a	catFR1	1	R1482J
1054.799	1.617	1292490	WORD	n/a	wordpools/wordpool_categorized_EN.txt	DOLL	Toys	2	10	[0, 0, 0]	n/a	catFR1	1	R1482J
1056.416	0.765	1294105	WORD_OFF	n/a	n/a	DOLL	Toys	2	10	[0, 0, 0]	n/a	catFR1	1	R1482J
1057.181	1.601	1294874	WORD	n/a	wordpools/wordpool_categorized_EN.txt	SATIN	Fabric	3	10	[0, 0, 0]	n/a	catFR1	1	R1482J
1058.782	0.833	1296474	WORD_OFF	n/a	n/a	SATIN	Fabric	3	10	[0, 0, 0]	n/a	catFR1	1	R1482J
1059.615	1.601	1297304	WORD	n/a	wordpools/wordpool_categorized_EN.txt	LINEN	Fabric	4	10	[0, 0, 0]	n/a	catFR1	1	R1482J
1061.216	0.833	1298911	WORD_OFF	n/a	n/a	LINEN	Fabric	4	10	[0, 0, 0]	n/a	catFR1	1	R1482J
1062.049	1.617	1299742	WORD	n/a	wordpools/wordpool_categorized_EN.txt	EYE	BodyParts	5	10	[0, 0, 0]	n/a	catFR1	1	R1482J
1063.666	0.867	1301357	WORD_OFF	n/a	n/a	EYE	BodyParts	5	10	[0, 0, 0]	n/a	catFR1	1	R1482J
1064.533	1.616	1302226	WORD	n/a	wordpools/wordpool_categorized_EN.txt	NOSE	BodyParts	6	10	[0, 0, 0]	n/a	catFR1	1	R1482J
1066.149	0.933	1303841	WORD_OFF	n/a	n/a	NOSE	BodyParts	6	10	[0, 0, 0]	n/a	catFR1	1	R1482J
1067.082	1.601	1304771	WORD	n/a	wordpools/wordpool_categorized_EN.txt	BASKETBALL	Toys	7	10	[0, 0, 0]	n/a	catFR1	1	R1482J
1068.683	0.766	1306378	WORD_OFF	n/a	n/a	BASKETBALL	Toys	7	10	[0, 0, 0]	n/a	catFR1	1	R1482J
1069.449	1.6	1307140	WORD	n/a	wordpools/wordpool_categorized_EN.txt	SLINKY	Toys	8	10	[0, 0, 0]	n/a	catFR1	1	R1482J
1071.049	0.982	1308747	WORD_OFF	n/a	n/a	SLINKY	Toys	8	10	[0, 0, 0]	n/a	catFR1	1	R1482J
1072.031	1.6	1309723	WORD	n/a	wordpools/wordpool_categorized_EN.txt	LEG	BodyParts	9	10	[0, 0, 0]	n/a	catFR1	1	R1482J
1073.631	0.935	1311323	WORD_OFF	n/a	n/a	LEG	BodyParts	9	10	[0, 0, 0]	n/a	catFR1	1	R1482J
1074.566	1.617	1312261	WORD	n/a	wordpools/wordpool_categorized_EN.txt	HAND	BodyParts	10	10	[0, 0, 0]	n/a	catFR1	1	R1482J
1076.183	0.983	1313876	WORD_OFF	n/a	n/a	HAND	BodyParts	10	10	[0, 0, 0]	n/a	catFR1	1	R1482J
1077.166	1.616	1314860	WORD	n/a	wordpools/wordpool_categorized_EN.txt	SILK	Fabric	11	10	[0, 0, 0]	n/a	catFR1	1	R1482J
1078.782	0.8	1316475	WORD_OFF	n/a	n/a	SILK	Fabric	11	10	[0, 0, 0]	n/a	catFR1	1	R1482J
1079.582	1.616	1317275	WORD	n/a	wordpools/wordpool_categorized_EN.txt	WOOL	Fabric	12	10	[0, 0, 0]	n/a	catFR1	1	R1482J
1081.198	0.001	1318890	WORD_OFF	n/a	n/a	WOOL	Fabric	12	10	[0, 0, 0]	n/a	catFR1	1	R1482J
1081.199	0.002	1318891	PROB	0.002	n/a	n/a	n/a	-999	10	[6, 2, 1]	9	catFR1	1	R1482J
1081.201	0.0	1318893	START	n/a	n/a	n/a	n/a	-999	10	[-999, -999, -999]	n/a	catFR1	1	R1482J
1081.201	0.0	1318897	ENCODING_END	n/a	n/a	n/a	n/a	-999	10	[0, 0, 0]	n/a	catFR1	1	R1482J
1081.201	4.931	1318897	DISTRACT_START	n/a	n/a	n/a	n/a	-999	10	[0, 0, 0]	n/a	catFR1	1	R1482J
1086.132	5.833	1323824	PROB	5.833	n/a	n/a	n/a	-999	10	[7, 6, 8]	21	catFR1	1	R1482J
1091.965	3.85	1329657	PROB	3.85	n/a	n/a	n/a	-999	10	[2, 2, 5]	9	catFR1	1	R1482J
1095.815	5.433	1333507	PROB	5.433	n/a	n/a	n/a	-999	10	[6, 5, 5]	16	catFR1	1	R1482J
1101.248	0.0	1338937	DISTRACT_END	n/a	n/a	n/a	n/a	-999	10	[0, 0, 0]	n/a	catFR1	1	R1482J
1101.248	1.233	1338940	STOP	n/a	n/a	n/a	n/a	-999	10	[-999, -999, -999]	n/a	catFR1	1	R1482J
1102.481	2.394	1340175	REC_START	n/a	n/a	n/a	n/a	-999	10	[0, 0, 0]	n/a	catFR1	1	R1482J
1104.875	0.606	1342566	REC_WORD	0.606	n/a	DOLL	Toys	2	10	[0, 0, 0]	n/a	catFR1	1	R1482J
1105.481	0.99	1343172	REC_WORD	0.99	n/a	DOLLHOUSE	Toys	1	10	[0, 0, 0]	n/a	catFR1	1	R1482J
1106.471	0.52	1344162	REC_WORD	0.52	n/a	HAIR	n/a	-999	10	[0, 0, 0]	n/a	catFR1	1	R1482J
1106.991	5.236	1344682	REC_WORD	5.236	n/a	HAND	BodyParts	10	10	[0, 0, 0]	n/a	catFR1	1	R1482J
1112.227	1.125	1349918	REC_WORD	1.125	n/a	SLINKY	Toys	8	10	[0, 0, 0]	n/a	catFR1	1	R1482J
1113.352	14.69	1351043	REC_WORD	14.69	n/a	LEG	BodyParts	9	10	[0, 0, 0]	n/a	catFR1	1	R1482J
1128.042	5.655	1365733	REC_WORD	5.655	n/a	SATAN	n/a	-999	10	[0, 0, 0]	n/a	catFR1	1	R1482J
1133.697	4.203	1371389	REC_END	n/a	n/a	n/a	n/a	-999	10	[0, 0, 0]	n/a	catFR1	1	R1482J
1137.9	10.348	1375595	COUNTDOWN_START	n/a	n/a	n/a	n/a	-999	10	[0, 0, 0]	n/a	catFR1	1	R1482J
1148.248	0.001	1385938	COUNTDOWN_END	n/a	n/a	n/a	n/a	-999	10	[0, 0, 0]	n/a	catFR1	1	R1482J
1148.249	2.25	1385938	ENCODING_START	n/a	n/a	n/a	n/a	-999	11	[0, 0, 0]	n/a	catFR1	1	R1482J
1150.499	1.601	1388191	WORD	n/a	wordpools/wordpool_categorized_EN.txt	BED	Furniture	1	11	[0, 0, 0]	n/a	catFR1	1	R1482J
1152.1	0.783	1389791	WORD_OFF	n/a	n/a	BED	Furniture	1	11	[0, 0, 0]	n/a	catFR1	1	R1482J
1152.883	1.616	1390567	WORD	n/a	wordpools/wordpool_categorized_EN.txt	DRESSER	Furniture	2	11	[0, 0, 0]	n/a	catFR1	1	R1482J
1154.499	0.817	1392190	WORD_OFF	n/a	n/a	DRESSER	Furniture	2	11	[0, 0, 0]	n/a	catFR1	1	R1482J
1155.316	1.6	1393005	WORD	n/a	wordpools/wordpool_categorized_EN.txt	PIANO	Instruments	3	11	[0, 0, 0]	n/a	catFR1	1	R1482J
1156.916	0.966	1394605	WORD_OFF	n/a	n/a	PIANO	Instruments	3	11	[0, 0, 0]	n/a	catFR1	1	R1482J
1157.882	1.601	1395574	WORD	n/a	wordpools/wordpool_categorized_EN.txt	TUBA	Instruments	4	11	[0, 0, 0]	n/a	catFR1	1	R1482J
1159.483	0.816	1397173	WORD_OFF	n/a	n/a	TUBA	Instruments	4	11	[0, 0, 0]	n/a	catFR1	1	R1482J
1160.299	1.617	1397988	WORD	n/a	wordpools/wordpool_categorized_EN.txt	ERASER	OfficeSupplies	5	11	[0, 0, 0]	n/a	catFR1	1	R1482J
1161.916	1.0	1399603	WORD_OFF	n/a	n/a	ERASER	OfficeSupplies	5	11	[0, 0, 0]	n/a	catFR1	1	R1482J
1162.916	1.6	1400603	WORD	n/a	wordpools/wordpool_categorized_EN.txt	PENCIL	OfficeSupplies	6	11	[0, 0, 0]	n/a	catFR1	1	R1482J
1164.516	0.833	1402202	WORD_OFF	n/a	n/a	PENCIL	OfficeSupplies	6	11	[0, 0, 0]	n/a	catFR1	1	R1482J
1165.349	1.6	1403041	WORD	n/a	wordpools/wordpool_categorized_EN.txt	DESK	Furniture	7	11	[0, 0, 0]	n/a	catFR1	1	R1482J
1166.949	0.95	1404640	WORD_OFF	n/a	n/a	DESK	Furniture	7	11	[0, 0, 0]	n/a	catFR1	1	R1482J
1167.899	1.6	1405586	WORD	n/a	wordpools/wordpool_categorized_EN.txt	SOFA	Furniture	8	11	[0, 0, 0]	n/a	catFR1	1	R1482J
1169.499	1.0	1407185	WORD_OFF	n/a	n/a	SOFA	Furniture	8	11	[0, 0, 0]	n/a	catFR1	1	R1482J
1170.499	1.6	1408185	WORD	n/a	wordpools/wordpool_categorized_EN.txt	PEN	OfficeSupplies	9	11	[0, 0, 0]	n/a	catFR1	1	R1482J
1172.099	0.934	1409785	WORD_OFF	n/a	n/a	PEN	OfficeSupplies	9	11	[0, 0, 0]	n/a	catFR1	1	R1482J
1173.033	1.616	1410723	WORD	n/a	wordpools/wordpool_categorized_EN.txt	NOTEBOOK	OfficeSupplies	10	11	[0, 0, 0]	n/a	catFR1	1	R1482J
1174.649	0.883	1412338	WORD_OFF	n/a	n/a	NOTEBOOK	OfficeSupplies	10	11	[0, 0, 0]	n/a	catFR1	1	R1482J
1175.532	1.617	1413222	WORD	n/a	wordpools/wordpool_categorized_EN.txt	CELLO	Instruments	11	11	[0, 0, 0]	n/a	catFR1	1	R1482J
1177.149	0.966	1414837	WORD_OFF	n/a	n/a	CELLO	Instruments	11	11	[0, 0, 0]	n/a	catFR1	1	R1482J
1178.115	1.601	1415806	WORD	n/a	wordpools/wordpool_categorized_EN.txt	TRUMPET	Instruments	12	11	[0, 0, 0]	n/a	catFR1	1	R1482J
1179.716	0.0	1417404	PROB	0.0	n/a	n/a	n/a	-999	11	[6, 7, 6]	19	catFR1	1	R1482J
1179.716	0.001	1417405	WORD_OFF	n/a	n/a	TRUMPET	Instruments	12	11	[0, 0, 0]	n/a	catFR1	1	R1482J
1179.717	0.0	1417405	ENCODING_END	n/a	n/a	n/a	n/a	-999	11	[0, 0, 0]	n/a	catFR1	1	R1482J
1179.717	0.0	1417405	DISTRACT_START	n/a	n/a	n/a	n/a	-999	11	[0, 0, 0]	n/a	catFR1	1	R1482J
1179.717	8.382	1417405	START	n/a	n/a	n/a	n/a	-999	11	[-999, -999, -999]	n/a	catFR1	1	R1482J
1188.099	4.433	1425787	PROB	4.433	n/a	n/a	n/a	-999	11	[7, 6, 5]	18	catFR1	1	R1482J
1192.532	3.383	1430220	PROB	3.383	n/a	n/a	n/a	-999	11	[6, 4, 3]	13	catFR1	1	R1482J
1195.915	4.732	1433603	PROB	4.732	n/a	n/a	n/a	-999	11	[8, 6, 6]	20	catFR1	1	R1482J
1200.647	0.0	1438335	STOP	n/a	n/a	n/a	n/a	-999	11	[-999, -999, -999]	n/a	catFR1	1	R1482J
1200.647	1.218	1438337	DISTRACT_END	n/a	n/a	n/a	n/a	-999	11	[0, 0, 0]	n/a	catFR1	1	R1482J
1201.865	9.097	1439552	REC_START	n/a	n/a	n/a	n/a	-999	11	[0, 0, 0]	n/a	catFR1	1	R1482J
1210.962	0.554	1448649	REC_WORD	0.554	n/a	PENCIL	OfficeSupplies	6	11	[0, 0, 0]	n/a	catFR1	1	R1482J
1211.516	0.807	1449203	REC_WORD	0.807	n/a	PEN	OfficeSupplies	9	11	[0, 0, 0]	n/a	catFR1	1	R1482J
1212.323	20.781	1450010	REC_WORD	20.781	n/a	NOTEBOOK	OfficeSupplies	10	11	[0, 0, 0]	n/a	catFR1	1	R1482J
1233.104	1.695	1470789	REC_END	n/a	n/a	n/a	n/a	-999	11	[0, 0, 0]	n/a	catFR1	1	R1482J
1234.799	10.348	1472488	COUNTDOWN_START	n/a	n/a	n/a	n/a	-999	11	[0, 0, 0]	n/a	catFR1	1	R1482J
1245.147	0.0	1482831	COUNTDOWN_END	n/a	n/a	n/a	n/a	-999	11	[0, 0, 0]	n/a	catFR1	1	R1482J
1245.147	1.968	1482831	ENCODING_START	n/a	n/a	n/a	n/a	-999	12	[0, 0, 0]	n/a	catFR1	1	R1482J
1247.115	1.601	1484800	WORD	n/a	wordpools/wordpool_categorized_EN.txt	BINDER	OfficeSupplies	1	12	[0, 0, 0]	n/a	catFR1	1	R1482J
1248.716	0.881	1486399	WORD_OFF	n/a	n/a	BINDER	OfficeSupplies	1	12	[0, 0, 0]	n/a	catFR1	1	R1482J
1249.597	1.602	1487284	WORD	n/a	wordpools/wordpool_categorized_EN.txt	RULER	OfficeSupplies	2	12	[0, 0, 0]	n/a	catFR1	1	R1482J
1251.199	0.9	1488883	WORD_OFF	n/a	n/a	RULER	OfficeSupplies	2	12	[0, 0, 0]	n/a	catFR1	1	R1482J
1252.099	1.615	1489782	WORD	n/a	wordpools/wordpool_categorized_EN.txt	CARROT	Vegetables	3	12	[0, 0, 0]	n/a	catFR1	1	R1482J
1253.714	0.801	1491397	WORD_OFF	n/a	n/a	CARROT	Vegetables	3	12	[0, 0, 0]	n/a	catFR1	1	R1482J
1254.515	1.601	1492197	WORD	n/a	wordpools/wordpool_categorized_EN.txt	POTATO	Vegetables	4	12	[0, 0, 0]	n/a	catFR1	1	R1482J
1256.116	0.983	1493796	WORD_OFF	n/a	n/a	POTATO	Vegetables	4	12	[0, 0, 0]	n/a	catFR1	1	R1482J
1257.099	1.617	1494781	WORD	n/a	wordpools/wordpool_categorized_EN.txt	CHAIR	Furniture	5	12	[0, 0, 0]	n/a	catFR1	1	R1482J
1258.716	0.883	1496403	WORD_OFF	n/a	n/a	CHAIR	Furniture	5	12	[0, 0, 0]	n/a	catFR1	1	R1482J
1259.599	1.6	1497280	WORD	n/a	wordpools/wordpool_categorized_EN.txt	CABINET	Furniture	6	12	[0, 0, 0]	n/a	catFR1	1	R1482J
1261.199	0.867	1498879	WORD_OFF	n/a	n/a	CABINET	Furniture	6	12	[0, 0, 0]	n/a	catFR1	1	R1482J
1262.066	1.617	1499748	WORD	n/a	wordpools/wordpool_categorized_EN.txt	ONION	Vegetables	7	12	[0, 0, 0]	n/a	catFR1	1	R1482J
1263.683	0.933	1501363	WORD_OFF	n/a	n/a	ONION	Vegetables	7	12	[0, 0, 0]	n/a	catFR1	1	R1482J
1264.616	1.6	1502301	WORD	n/a	wordpools/wordpool_categorized_EN.txt	CELERY	Vegetables	8	12	[0, 0, 0]	n/a	catFR1	1	R1482J
1266.216	0.867	1503901	WORD_OFF	n/a	n/a	CELERY	Vegetables	8	12	[0, 0, 0]	n/a	catFR1	1	R1482J
1267.083	1.616	1504762	WORD	n/a	wordpools/wordpool_categorized_EN.txt	TAPE	OfficeSupplies	9	12	[0, 0, 0]	n/a	catFR1	1	R1482J
1268.699	0.966	1506385	WORD_OFF	n/a	n/a	TAPE	OfficeSupplies	9	12	[0, 0, 0]	n/a	catFR1	1	R1482J
1269.665	1.617	1507346	WORD	n/a	wordpools/wordpool_categorized_EN.txt	STAPLER	OfficeSupplies	10	12	[0, 0, 0]	n/a	catFR1	1	R1482J
1271.282	0.833	1508968	WORD_OFF	n/a	n/a	STAPLER	OfficeSupplies	10	12	[0, 0, 0]	n/a	catFR1	1	R1482J
1272.115	1.601	1509799	WORD	n/a	wordpools/wordpool_categorized_EN.txt	COUCH	Furniture	11	12	[0, 0, 0]	n/a	catFR1	1	R1482J
1273.716	0.966	1511398	WORD_OFF	n/a	n/a	COUCH	Furniture	11	12	[0, 0, 0]	n/a	catFR1	1	R1482J
1274.682	1.6	1512367	WORD	n/a	wordpools/wordpool_categorized_EN.txt	SHELF	Furniture	12	12	[0, 0, 0]	n/a	catFR1	1	R1482J
1276.282	0.003	1513967	WORD_OFF	n/a	n/a	SHELF	Furniture	12	12	[0, 0, 0]	n/a	catFR1	1	R1482J
1276.285	0.0	1513967	ENCODING_END	n/a	n/a	n/a	n/a	-999	12	[0, 0, 0]	n/a	catFR1	1	R1482J
1276.285	0.0	1513967	DISTRACT_START	n/a	n/a	n/a	n/a	-999	12	[0, 0, 0]	n/a	catFR1	1	R1482J
1276.283	0.002	1513967	PROB	0.002	n/a	n/a	n/a	-999	12	[8, 3, 8]	19	catFR1	1	R1482J
1276.285	4.797	1513969	START	n/a	n/a	n/a	n/a	-999	12	[-999, -999, -999]	n/a	catFR1	1	R1482J
1281.082	4.033	1518766	PROB	4.033	n/a	n/a	n/a	-999	12	[6, 6, 3]	15	catFR1	1	R1482J
1285.115	6.932	1522799	PROB	6.932	n/a	n/a	n/a	-999	12	[5, 7, 1]	13	catFR1	1	R1482J
1292.047	5.718	1529731	PROB	5.718	n/a	n/a	n/a	-999	12	[4, 4, 2]	10	catFR1	1	R1482J
1297.765	0.0	1535445	DISTRACT_END	n/a	n/a	n/a	n/a	-999	12	[0, 0, 0]	n/a	catFR1	1	R1482J
1297.765	1.366	1535449	STOP	n/a	n/a	n/a	n/a	-999	12	[-999, -999, -999]	n/a	catFR1	1	R1482J
1299.131	2.902	1536814	REC_START	n/a	n/a	n/a	n/a	-999	12	[0, 0, 0]	n/a	catFR1	1	R1482J
1302.033	0.705	1539716	REC_WORD	0.705	n/a	BINDER	OfficeSupplies	1	12	[0, 0, 0]	n/a	catFR1	1	R1482J
1302.738	0.492	1540421	REC_WORD	0.492	n/a	RULER	OfficeSupplies	2	12	[0, 0, 0]	n/a	catFR1	1	R1482J
1303.23	0.844	1540913	REC_WORD	0.844	n/a	TAPE	OfficeSupplies	9	12	[0, 0, 0]	n/a	catFR1	1	R1482J
1304.074	14.536	1541757	REC_WORD	14.536	n/a	COUCH	Furniture	11	12	[0, 0, 0]	n/a	catFR1	1	R1482J
1318.61	0.675	1556293	REC_WORD	0.675	n/a	CARROT	Vegetables	3	12	[0, 0, 0]	n/a	catFR1	1	R1482J
1319.285	11.082	1556968	REC_WORD	11.082	n/a	ONION	Vegetables	7	12	[0, 0, 0]	n/a	catFR1	1	R1482J
1330.367	0.0	1568050	REC_END	n/a	n/a	n/a	n/a	-999	12	[0, 0, 0]	n/a	catFR1	1	R1482J
