onset	duration	sample	trial_type	response_time	stim_file	item_name	category	serialpos	list	test	answer	experiment	session	subject
0.0	0.011	328141	SESS_START	n/a	n/a	n/a	n/a	-999	0	[0, 0, 0]	n/a	catFR1	2	R1635T
0.011	79.732	328152	TRIAL	n/a	n/a	n/a	n/a	-999	-1	[0, 0, 0]	n/a	catFR1	2	R1635T
79.743	10.0	407884	COUNTDOWN	n/a	n/a	n/a	n/a	-999	-1	[0, 0, 0]	n/a	catFR1	2	R1635T
90.11	2.151	418251	ENCODING_START	n/a	n/a	n/a	n/a	-999	-1	[0, 0, 0]	n/a	catFR1	2	R1635T
92.261	1.6	420402	WORD	n/a	n/a	PEACH	Fruit	1	-1	[0, 0, 0]	n/a	catFR1	2	R1635T
94.877	1.6	423018	WORD	n/a	n/a	LEMON	Fruit	2	-1	[0, 0, 0]	n/a	catFR1	2	R1635T
97.31	1.6	425451	WORD	n/a	n/a	CHEESECAKE	Desserts	3	-1	[0, 0, 0]	n/a	catFR1	2	R1635T
99.909	1.6	428050	WORD	n/a	n/a	PIE	Desserts	4	-1	[0, 0, 0]	n/a	catFR1	2	R1635T
102.376	1.6	430517	WORD	n/a	n/a	FOLDER	OfficeSupplies	5	-1	[0, 0, 0]	n/a	catFR1	2	R1635T
104.959	1.6	433100	WORD	n/a	n/a	PEN	OfficeSupplies	6	-1	[0, 0, 0]	n/a	catFR1	2	R1635T
107.425	1.6	435566	WORD	n/a	n/a	CAKE	Desserts	7	-1	[0, 0, 0]	n/a	catFR1	2	R1635T
109.909	1.6	438050	WORD	n/a	n/a	PASTRY	Desserts	8	-1	[0, 0, 0]	n/a	catFR1	2	R1635T
112.292	1.6	440433	WORD	n/a	n/a	PLUM	Fruit	9	-1	[0, 0, 0]	n/a	catFR1	2	R1635T
114.792	1.6	442933	WORD	n/a	n/a	APPLE	Fruit	10	-1	[0, 0, 0]	n/a	catFR1	2	R1635T
117.358	1.6	445499	WORD	n/a	n/a	NOTEBOOK	OfficeSupplies	11	-1	[0, 0, 0]	n/a	catFR1	2	R1635T
119.874	1.6	448015	WORD	n/a	n/a	MARKER	OfficeSupplies	12	-1	[0, 0, 0]	n/a	catFR1	2	R1635T
121.476	0.001	449617	DISTRACT_START	n/a	n/a	n/a	n/a	-999	0	[0, 0, 0]	n/a	catFR1	2	R1635T
121.477	5.531	449618	PROB	5.516	n/a	n/a	n/a	-999	0	[2, 1, 6]	9.0	catFR1	2	R1635T
127.008	4.351	455149	PROB	4.333	n/a	n/a	n/a	-999	0	[3, 1, 2]	6.0	catFR1	2	R1635T
131.359	7.116	459500	PROB	7.098	n/a	n/a	n/a	-999	0	[5, 4, 6]	15.0	catFR1	2	R1635T
138.475	5.984	466616	PROB	3.816	n/a	n/a	n/a	-999	0	[2, 2, 4]	8.0	catFR1	2	R1635T
144.459	4.378	472600	REC_START	n/a	n/a	n/a	n/a	-999	-1	[0, 0, 0]	n/a	catFR1	2	R1635T
148.837	0.922	476978	REC_WORD	4.378	n/a	CHEESE	n/a	-999	-1	[0, 0, 0]	n/a	catFR1	2	R1635T
149.759	3.101	477900	REC_WORD	5.3	n/a	LEMON	Fruit	2	-1	[0, 0, 0]	n/a	catFR1	2	R1635T
152.86	2.146	481001	REC_WORD	8.401	n/a	CHEESECAKE	Desserts	3	-1	[0, 0, 0]	n/a	catFR1	2	R1635T
155.006	1.999	483147	REC_WORD	10.547	n/a	PEACH	Fruit	1	-1	[0, 0, 0]	n/a	catFR1	2	R1635T
157.005	2.634	485146	REC_WORD	12.546	n/a	PIE	Desserts	4	-1	[0, 0, 0]	n/a	catFR1	2	R1635T
159.639	5.867	487780	REC_WORD	15.18	n/a	FOLDER	OfficeSupplies	5	-1	[0, 0, 0]	n/a	catFR1	2	R1635T
165.506	0.618	493647	REC_WORD_VV	21.047	n/a	<>	n/a	-999	-1	[0, 0, 0]	n/a	catFR1	2	R1635T
166.124	6.661	494265	REC_WORD	21.665	n/a	CAKE	Desserts	7	-1	[0, 0, 0]	n/a	catFR1	2	R1635T
172.785	1.839	500926	REC_WORD_VV	28.326	n/a	<>	n/a	-999	-1	[0, 0, 0]	n/a	catFR1	2	R1635T
174.624	30.947	502765	TRIAL	n/a	n/a	n/a	n/a	-999	1	[0, 0, 0]	n/a	catFR1	2	R1635T
205.571	10.0	533712	COUNTDOWN	n/a	n/a	n/a	n/a	-999	1	[0, 0, 0]	n/a	catFR1	2	R1635T
215.921	2.049	544062	ENCODING_START	n/a	n/a	n/a	n/a	-999	1	[0, 0, 0]	n/a	catFR1	2	R1635T
217.97	1.6	546111	WORD	n/a	wordpools/wordpool_categorized_EN.txt	WHALE	OceanAnimals	1	1	[0, 0, 0]	n/a	catFR1	2	R1635T
220.454	1.6	548595	WORD	n/a	wordpools/wordpool_categorized_EN.txt	FISH	OceanAnimals	2	1	[0, 0, 0]	n/a	catFR1	2	R1635T
222.868	1.6	551009	WORD	n/a	wordpools/wordpool_categorized_EN.txt	BASS	Instruments	3	1	[0, 0, 0]	n/a	catFR1	2	R1635T
225.337	1.6	553478	WORD	n/a	wordpools/wordpool_categorized_EN.txt	TRUMPET	Instruments	4	1	[0, 0, 0]	n/a	catFR1	2	R1635T
227.719	1.6	555860	WORD	n/a	wordpools/wordpool_categorized_EN.txt	MILK	Beverages	5	1	[0, 0, 0]	n/a	catFR1	2	R1635T
230.22	1.6	558361	WORD	n/a	wordpools/wordpool_categorized_EN.txt	CIDER	Beverages	6	1	[0, 0, 0]	n/a	catFR1	2	R1635T
232.737	1.6	560878	WORD	n/a	wordpools/wordpool_categorized_EN.txt	DRUM	Instruments	7	1	[0, 0, 0]	n/a	catFR1	2	R1635T
235.32	1.6	563461	WORD	n/a	wordpools/wordpool_categorized_EN.txt	BANJO	Instruments	8	1	[0, 0, 0]	n/a	catFR1	2	R1635T
237.785	1.6	565926	WORD	n/a	wordpools/wordpool_categorized_EN.txt	PLANKTON	OceanAnimals	9	1	[0, 0, 0]	n/a	catFR1	2	R1635T
240.218	1.6	568359	WORD	n/a	wordpools/wordpool_categorized_EN.txt	CRAB	OceanAnimals	10	1	[0, 0, 0]	n/a	catFR1	2	R1635T
242.602	1.6	570743	WORD	n/a	wordpools/wordpool_categorized_EN.txt	COLA	Beverages	11	1	[0, 0, 0]	n/a	catFR1	2	R1635T
245.052	1.6	573193	WORD	n/a	wordpools/wordpool_categorized_EN.txt	BEER	Beverages	12	1	[0, 0, 0]	n/a	catFR1	2	R1635T
246.654	0.0	574795	DISTRACT_START	n/a	n/a	n/a	n/a	-999	1	[0, 0, 0]	n/a	catFR1	2	R1635T
246.654	26.209	574795	PROB	23.915	n/a	n/a	n/a	-999	1	[8, 3, 4]	15.0	catFR1	2	R1635T
272.863	5.648	601004	REC_START	n/a	n/a	n/a	n/a	-999	1	[0, 0, 0]	n/a	catFR1	2	R1635T
278.511	2.652	606652	REC_WORD	5.648	n/a	OYSTER	n/a	-999	1	[0, 0, 0]	n/a	catFR1	2	R1635T
281.163	1.119	609304	REC_WORD_VV	8.3	n/a	<>	n/a	-999	1	[0, 0, 0]	n/a	catFR1	2	R1635T
282.282	6.098	610423	REC_WORD	9.419	n/a	OCEAN	n/a	-999	1	[0, 0, 0]	n/a	catFR1	2	R1635T
288.38	3.302	616521	REC_WORD	15.517	n/a	LUMBER	n/a	-999	1	[0, 0, 0]	n/a	catFR1	2	R1635T
291.682	0.738	619823	REC_WORD	18.819	n/a	MILK	Beverages	5	1	[0, 0, 0]	n/a	catFR1	2	R1635T
292.42	4.979	620561	REC_WORD_VV	19.557	n/a	<>	n/a	-999	1	[0, 0, 0]	n/a	catFR1	2	R1635T
297.399	5.628	625540	REC_WORD	24.536	n/a	CRAB	OceanAnimals	10	1	[0, 0, 0]	n/a	catFR1	2	R1635T
303.027	3.173	631168	TRIAL	n/a	n/a	n/a	n/a	-999	2	[0, 0, 0]	n/a	catFR1	2	R1635T
306.2	10.0	634341	COUNTDOWN	n/a	n/a	n/a	n/a	-999	2	[0, 0, 0]	n/a	catFR1	2	R1635T
316.549	1.9	644690	ENCODING_START	n/a	n/a	n/a	n/a	-999	2	[0, 0, 0]	n/a	catFR1	2	R1635T
318.449	1.6	646590	WORD	n/a	wordpools/wordpool_categorized_EN.txt	ISLAND	Landscapes	1	2	[0, 0, 0]	n/a	catFR1	2	R1635T
320.981	1.6	649122	WORD	n/a	wordpools/wordpool_categorized_EN.txt	STREAM	Landscapes	2	2	[0, 0, 0]	n/a	catFR1	2	R1635T
323.365	1.6	651506	WORD	n/a	wordpools/wordpool_categorized_EN.txt	EAR	BodyParts	3	2	[0, 0, 0]	n/a	catFR1	2	R1635T
325.798	1.6	653939	WORD	n/a	wordpools/wordpool_categorized_EN.txt	FOOT	BodyParts	4	2	[0, 0, 0]	n/a	catFR1	2	R1635T
328.232	1.6	656373	WORD	n/a	wordpools/wordpool_categorized_EN.txt	DOOR	Building	5	2	[0, 0, 0]	n/a	catFR1	2	R1635T
330.665	1.6	658806	WORD	n/a	wordpools/wordpool_categorized_EN.txt	FLOOR	Building	6	2	[0, 0, 0]	n/a	catFR1	2	R1635T
333.198	1.6	661339	WORD	n/a	wordpools/wordpool_categorized_EN.txt	CREEK	Landscapes	7	2	[0, 0, 0]	n/a	catFR1	2	R1635T
335.632	1.6	663773	WORD	n/a	wordpools/wordpool_categorized_EN.txt	LAKE	Landscapes	8	2	[0, 0, 0]	n/a	catFR1	2	R1635T
338.148	1.6	666289	WORD	n/a	wordpools/wordpool_categorized_EN.txt	WINDOW	Building	9	2	[0, 0, 0]	n/a	catFR1	2	R1635T
340.732	1.6	668873	WORD	n/a	wordpools/wordpool_categorized_EN.txt	ROOM	Building	10	2	[0, 0, 0]	n/a	catFR1	2	R1635T
343.114	1.6	671255	WORD	n/a	wordpools/wordpool_categorized_EN.txt	FINGERS	BodyParts	11	2	[0, 0, 0]	n/a	catFR1	2	R1635T
345.665	1.6	673806	WORD	n/a	wordpools/wordpool_categorized_EN.txt	ARM	BodyParts	12	2	[0, 0, 0]	n/a	catFR1	2	R1635T
347.282	0.001	675423	PROB	6.432	n/a	n/a	n/a	-999	2	[8, 5, 7]	20.0	catFR1	2	R1635T
347.283	6.448	675424	DISTRACT_START	n/a	n/a	n/a	n/a	-999	2	[0, 0, 0]	n/a	catFR1	2	R1635T
353.731	7.099	681872	PROB	7.083	n/a	n/a	n/a	-999	2	[6, 5, 8]	19.0	catFR1	2	R1635T
360.83	4.767	688971	PROB	4.75	n/a	n/a	n/a	-999	2	[8, 7, 4]	19.0	catFR1	2	R1635T
365.597	8.513	693738	PROB	6.116	n/a	n/a	n/a	-999	2	[4, 5, 8]	17.0	catFR1	2	R1635T
374.11	2.234	702251	REC_START	n/a	n/a	n/a	n/a	-999	2	[0, 0, 0]	n/a	catFR1	2	R1635T
376.344	12.747	704485	REC_WORD	2.234	n/a	ISLAND	Landscapes	1	2	[0, 0, 0]	n/a	catFR1	2	R1635T
389.091	4.1	717232	REC_WORD	14.981	n/a	OCEAN	n/a	-999	2	[0, 0, 0]	n/a	catFR1	2	R1635T
393.191	1.85	721332	REC_WORD	19.081	n/a	DOOR	Building	5	2	[0, 0, 0]	n/a	catFR1	2	R1635T
395.041	1.277	723182	REC_WORD	20.931	n/a	WINDOW	Building	9	2	[0, 0, 0]	n/a	catFR1	2	R1635T
396.318	7.945	724459	REC_WORD	22.208	n/a	FLOOR	Building	6	2	[0, 0, 0]	n/a	catFR1	2	R1635T
404.263	7.076	732404	TRIAL	n/a	n/a	n/a	n/a	-999	3	[0, 0, 0]	n/a	catFR1	2	R1635T
411.339	10.0	739480	COUNTDOWN	n/a	n/a	n/a	n/a	-999	3	[0, 0, 0]	n/a	catFR1	2	R1635T
421.644	281.871	749785	ENCODING_START	n/a	n/a	n/a	n/a	-999	3	[0, 0, 0]	n/a	catFR1	2	R1635T
703.515	1.6	1031656	WORD	n/a	wordpools/wordpool_categorized_EN.txt	BALL	Toys	1	3	[0, 0, 0]	n/a	catFR1	2	R1635T
705.898	1.6	1034039	WORD	n/a	wordpools/wordpool_categorized_EN.txt	DOLLHOUSE	Toys	2	3	[0, 0, 0]	n/a	catFR1	2	R1635T
708.298	1.6	1036439	WORD	n/a	wordpools/wordpool_categorized_EN.txt	SOFA	Furniture	3	3	[0, 0, 0]	n/a	catFR1	2	R1635T
710.765	1.6	1038906	WORD	n/a	wordpools/wordpool_categorized_EN.txt	BOOKCASE	Furniture	4	3	[0, 0, 0]	n/a	catFR1	2	R1635T
713.348	1.6	1041489	WORD	n/a	wordpools/wordpool_categorized_EN.txt	CEDAR	Trees	5	3	[0, 0, 0]	n/a	catFR1	2	R1635T
715.864	1.6	1044005	WORD	n/a	wordpools/wordpool_categorized_EN.txt	WILLOW	Trees	6	3	[0, 0, 0]	n/a	catFR1	2	R1635T
718.314	1.6	1046455	WORD	n/a	wordpools/wordpool_categorized_EN.txt	RECLINER	Furniture	7	3	[0, 0, 0]	n/a	catFR1	2	R1635T
720.847	1.6	1048988	WORD	n/a	wordpools/wordpool_categorized_EN.txt	COUCH	Furniture	8	3	[0, 0, 0]	n/a	catFR1	2	R1635T
723.464	1.6	1051605	WORD	n/a	wordpools/wordpool_categorized_EN.txt	PINE	Trees	9	3	[0, 0, 0]	n/a	catFR1	2	R1635T
725.93	1.6	1054071	WORD	n/a	wordpools/wordpool_categorized_EN.txt	HICKORY	Trees	10	3	[0, 0, 0]	n/a	catFR1	2	R1635T
728.414	1.6	1056555	WORD	n/a	wordpools/wordpool_categorized_EN.txt	FOOTBALL	Toys	11	3	[0, 0, 0]	n/a	catFR1	2	R1635T
730.813	1.6	1058954	WORD	n/a	wordpools/wordpool_categorized_EN.txt	BLOCKS	Toys	12	3	[0, 0, 0]	n/a	catFR1	2	R1635T
732.414	0.001	1060555	PROB	7.516	n/a	n/a	n/a	-999	3	[6, 5, 7]	18.0	catFR1	2	R1635T
732.415	7.532	1060556	DISTRACT_START	n/a	n/a	n/a	n/a	-999	3	[0, 0, 0]	n/a	catFR1	2	R1635T
739.947	4.933	1068088	PROB	4.915	n/a	n/a	n/a	-999	3	[8, 4, 6]	18.0	catFR1	2	R1635T
744.88	6.598	1073021	PROB	6.583	n/a	n/a	n/a	-999	3	[7, 4, 5]	16.0	catFR1	2	R1635T
751.478	7.734	1079619	PROB	5.384	n/a	n/a	n/a	-999	3	[8, 4, 7]	19.0	catFR1	2	R1635T
759.212	1.407	1087353	REC_START	n/a	n/a	n/a	n/a	-999	3	[0, 0, 0]	n/a	catFR1	2	R1635T
760.619	1.354	1088760	REC_WORD	1.407	n/a	PINE	Trees	9	3	[0, 0, 0]	n/a	catFR1	2	R1635T
761.973	3.128	1090114	REC_WORD	2.761	n/a	HICKORY	Trees	10	3	[0, 0, 0]	n/a	catFR1	2	R1635T
765.101	3.164	1093242	REC_WORD	5.889	n/a	FOOTBALL	Toys	11	3	[0, 0, 0]	n/a	catFR1	2	R1635T
768.265	1.0	1096406	REC_WORD	9.053	n/a	FIREPLACE	n/a	-999	3	[0, 0, 0]	n/a	catFR1	2	R1635T
769.265	3.519	1097406	REC_WORD_VV	10.053	n/a	<>	n/a	-999	3	[0, 0, 0]	n/a	catFR1	2	R1635T
772.784	3.326	1100925	REC_WORD	13.572	n/a	OAK	n/a	-999	3	[0, 0, 0]	n/a	catFR1	2	R1635T
776.11	3.469	1104251	REC_WORD	16.898	n/a	CEDAR	Trees	5	3	[0, 0, 0]	n/a	catFR1	2	R1635T
779.579	8.41	1107720	REC_WORD	20.367	n/a	DOLLHOUSE	Toys	2	3	[0, 0, 0]	n/a	catFR1	2	R1635T
787.989	1.36	1116130	REC_WORD_VV	28.777	n/a	<>	n/a	-999	3	[0, 0, 0]	n/a	catFR1	2	R1635T
789.349	5.111	1117490	TRIAL	n/a	n/a	n/a	n/a	-999	4	[0, 0, 0]	n/a	catFR1	2	R1635T
794.46	10.0	1122601	COUNTDOWN	n/a	n/a	n/a	n/a	-999	4	[0, 0, 0]	n/a	catFR1	2	R1635T
804.828	2.032	1132969	ENCODING_START	n/a	n/a	n/a	n/a	-999	4	[0, 0, 0]	n/a	catFR1	2	R1635T
806.86	1.6	1135001	WORD	n/a	wordpools/wordpool_categorized_EN.txt	DAISY	Flowers	1	4	[0, 0, 0]	n/a	catFR1	2	R1635T
809.243	1.6	1137384	WORD	n/a	wordpools/wordpool_categorized_EN.txt	SUNFLOWER	Flowers	2	4	[0, 0, 0]	n/a	catFR1	2	R1635T
811.626	1.6	1139767	WORD	n/a	wordpools/wordpool_categorized_EN.txt	HAND	BodyParts	3	4	[0, 0, 0]	n/a	catFR1	2	R1635T
814.194	1.6	1142335	WORD	n/a	wordpools/wordpool_categorized_EN.txt	TOE	BodyParts	4	4	[0, 0, 0]	n/a	catFR1	2	R1635T
816.577	1.6	1144718	WORD	n/a	wordpools/wordpool_categorized_EN.txt	JUICE	Beverages	5	4	[0, 0, 0]	n/a	catFR1	2	R1635T
819.092	1.6	1147233	WORD	n/a	wordpools/wordpool_categorized_EN.txt	TEA	Beverages	6	4	[0, 0, 0]	n/a	catFR1	2	R1635T
821.525	1.6	1149666	WORD	n/a	wordpools/wordpool_categorized_EN.txt	NOSE	BodyParts	7	4	[0, 0, 0]	n/a	catFR1	2	R1635T
823.892	1.6	1152033	WORD	n/a	wordpools/wordpool_categorized_EN.txt	EYE	BodyParts	8	4	[0, 0, 0]	n/a	catFR1	2	R1635T
826.309	1.6	1154450	WORD	n/a	wordpools/wordpool_categorized_EN.txt	LEMONADE	Beverages	9	4	[0, 0, 0]	n/a	catFR1	2	R1635T
828.893	1.6	1157034	WORD	n/a	wordpools/wordpool_categorized_EN.txt	SODA	Beverages	10	4	[0, 0, 0]	n/a	catFR1	2	R1635T
831.276	1.6	1159417	WORD	n/a	wordpools/wordpool_categorized_EN.txt	ROSE	Flowers	11	4	[0, 0, 0]	n/a	catFR1	2	R1635T
833.742	1.6	1161883	WORD	n/a	wordpools/wordpool_categorized_EN.txt	LILY	Flowers	12	4	[0, 0, 0]	n/a	catFR1	2	R1635T
835.342	0.001	1163483	PROB	5.632	n/a	n/a	n/a	-999	4	[3, 2, 4]	9.0	catFR1	2	R1635T
835.343	5.649	1163484	DISTRACT_START	n/a	n/a	n/a	n/a	-999	4	[0, 0, 0]	n/a	catFR1	2	R1635T
840.992	6.599	1169133	PROB	6.582	n/a	n/a	n/a	-999	4	[6, 6, 6]	18.0	catFR1	2	R1635T
847.591	5.101	1175732	PROB	5.083	n/a	n/a	n/a	-999	4	[7, 3, 7]	17.0	catFR1	2	R1635T
852.692	6.606	1180833	PROB	4.265	n/a	n/a	n/a	-999	4	[3, 1, 4]	8.0	catFR1	2	R1635T
859.298	2.07	1187439	REC_START	n/a	n/a	n/a	n/a	-999	4	[0, 0, 0]	n/a	catFR1	2	R1635T
861.368	2.997	1189509	REC_WORD	2.07	n/a	LILY	Flowers	12	4	[0, 0, 0]	n/a	catFR1	2	R1635T
864.365	3.307	1192506	REC_WORD	5.067	n/a	SUNFLOWER	Flowers	2	4	[0, 0, 0]	n/a	catFR1	2	R1635T
867.672	1.926	1195813	REC_WORD	8.374	n/a	EYE	BodyParts	8	4	[0, 0, 0]	n/a	catFR1	2	R1635T
869.598	3.622	1197739	REC_WORD	10.3	n/a	NOSE	BodyParts	7	4	[0, 0, 0]	n/a	catFR1	2	R1635T
873.22	4.628	1201361	REC_WORD	13.922	n/a	HAND	BodyParts	3	4	[0, 0, 0]	n/a	catFR1	2	R1635T
877.848	5.432	1205989	REC_WORD	18.55	n/a	FOOT	BodyParts	-999	4	[0, 0, 0]	n/a	catFR1	2	R1635T
883.28	0.974	1211421	REC_WORD_VV	23.982	n/a	<>	n/a	-999	4	[0, 0, 0]	n/a	catFR1	2	R1635T
884.254	5.191	1212395	REC_WORD	24.956	n/a	LEMONADE	Beverages	9	4	[0, 0, 0]	n/a	catFR1	2	R1635T
889.445	4.06	1217586	TRIAL	n/a	n/a	n/a	n/a	-999	5	[0, 0, 0]	n/a	catFR1	2	R1635T
893.505	10.0	1221646	COUNTDOWN	n/a	n/a	n/a	n/a	-999	5	[0, 0, 0]	n/a	catFR1	2	R1635T
903.873	2.032	1232014	ENCODING_START	n/a	n/a	n/a	n/a	-999	5	[0, 0, 0]	n/a	catFR1	2	R1635T
905.905	1.6	1234046	WORD	n/a	wordpools/wordpool_categorized_EN.txt	TORNADO	Weather	1	5	[0, 0, 0]	n/a	catFR1	2	R1635T
908.405	1.6	1236546	WORD	n/a	wordpools/wordpool_categorized_EN.txt	HUMIDITY	Weather	2	5	[0, 0, 0]	n/a	catFR1	2	R1635T
910.988	1.6	1239129	WORD	n/a	wordpools/wordpool_categorized_EN.txt	BEAR	Zoo	3	5	[0, 0, 0]	n/a	catFR1	2	R1635T
913.489	1.6	1241630	WORD	n/a	wordpools/wordpool_categorized_EN.txt	ORANGUTAN	Zoo	4	5	[0, 0, 0]	n/a	catFR1	2	R1635T
916.004	1.6	1244145	WORD	n/a	wordpools/wordpool_categorized_EN.txt	SPARROW	Birds	5	5	[0, 0, 0]	n/a	catFR1	2	R1635T
918.487	1.6	1246628	WORD	n/a	wordpools/wordpool_categorized_EN.txt	CROW	Birds	6	5	[0, 0, 0]	n/a	catFR1	2	R1635T
920.921	1.6	1249062	WORD	n/a	wordpools/wordpool_categorized_EN.txt	THUNDER	Weather	7	5	[0, 0, 0]	n/a	catFR1	2	R1635T
923.488	1.6	1251629	WORD	n/a	wordpools/wordpool_categorized_EN.txt	HURRICANE	Weather	8	5	[0, 0, 0]	n/a	catFR1	2	R1635T
926.071	1.6	1254212	WORD	n/a	wordpools/wordpool_categorized_EN.txt	CHIMPANZEE	Zoo	9	5	[0, 0, 0]	n/a	catFR1	2	R1635T
928.572	1.6	1256713	WORD	n/a	wordpools/wordpool_categorized_EN.txt	MONKEY	Zoo	10	5	[0, 0, 0]	n/a	catFR1	2	R1635T
931.171	1.6	1259312	WORD	n/a	wordpools/wordpool_categorized_EN.txt	HAWK	Birds	11	5	[0, 0, 0]	n/a	catFR1	2	R1635T
933.737	1.6	1261878	WORD	n/a	wordpools/wordpool_categorized_EN.txt	DOVE	Birds	12	5	[0, 0, 0]	n/a	catFR1	2	R1635T
935.339	0.0	1263480	DISTRACT_START	n/a	n/a	n/a	n/a	-999	5	[0, 0, 0]	n/a	catFR1	2	R1635T
935.339	5.065	1263480	PROB	5.049	n/a	n/a	n/a	-999	5	[2, 8, 8]	18.0	catFR1	2	R1635T
940.404	3.7	1268545	PROB	3.683	n/a	n/a	n/a	-999	5	[3, 3, 2]	8.0	catFR1	2	R1635T
944.104	4.301	1272245	PROB	4.283	n/a	n/a	n/a	-999	5	[3, 5, 4]	12.0	catFR1	2	R1635T
948.405	2.831	1276546	PROB	2.816	n/a	n/a	n/a	-999	5	[3, 3, 1]	7.0	catFR1	2	R1635T
951.236	8.51	1279377	PROB	6.034	n/a	n/a	n/a	-999	5	[6, 5, 1]	12.0	catFR1	2	R1635T
959.746	2.098	1287887	REC_START	n/a	n/a	n/a	n/a	-999	5	[0, 0, 0]	n/a	catFR1	2	R1635T
961.844	1.907	1289985	REC_WORD	2.098	n/a	SPARROW	Birds	5	5	[0, 0, 0]	n/a	catFR1	2	R1635T
963.751	2.732	1291892	REC_WORD	4.005	n/a	HAWK	Birds	11	5	[0, 0, 0]	n/a	catFR1	2	R1635T
966.483	2.269	1294624	REC_WORD	6.737	n/a	BEAR	Zoo	3	5	[0, 0, 0]	n/a	catFR1	2	R1635T
968.752	2.913	1296893	REC_WORD	9.006	n/a	TORNADO	Weather	1	5	[0, 0, 0]	n/a	catFR1	2	R1635T
971.665	6.338	1299806	REC_WORD	11.919	n/a	HURRICANE	Weather	8	5	[0, 0, 0]	n/a	catFR1	2	R1635T
978.003	5.921	1306144	REC_WORD	18.257	n/a	HUMIDITY	Weather	2	5	[0, 0, 0]	n/a	catFR1	2	R1635T
983.924	5.958	1312065	REC_WORD	24.178	n/a	ORANGUTAN	Zoo	4	5	[0, 0, 0]	n/a	catFR1	2	R1635T
989.882	4.153	1318023	TRIAL	n/a	n/a	n/a	n/a	-999	6	[0, 0, 0]	n/a	catFR1	2	R1635T
994.035	10.0	1322176	COUNTDOWN	n/a	n/a	n/a	n/a	-999	6	[0, 0, 0]	n/a	catFR1	2	R1635T
1004.402	2.115	1332543	ENCODING_START	n/a	n/a	n/a	n/a	-999	6	[0, 0, 0]	n/a	catFR1	2	R1635T
1006.517	1.6	1334658	WORD	n/a	wordpools/wordpool_categorized_EN.txt	WATER	Beverages	1	6	[0, 0, 0]	n/a	catFR1	2	R1635T
1008.967	1.6	1337108	WORD	n/a	wordpools/wordpool_categorized_EN.txt	COFFEE	Beverages	2	6	[0, 0, 0]	n/a	catFR1	2	R1635T
1011.55	1.6	1339691	WORD	n/a	wordpools/wordpool_categorized_EN.txt	MOTORCYCLE	Vehicles	3	6	[0, 0, 0]	n/a	catFR1	2	R1635T
1013.968	1.6	1342109	WORD	n/a	wordpools/wordpool_categorized_EN.txt	JEEP	Vehicles	4	6	[0, 0, 0]	n/a	catFR1	2	R1635T
1016.551	1.6	1344692	WORD	n/a	wordpools/wordpool_categorized_EN.txt	SATIN	Fabric	5	6	[0, 0, 0]	n/a	catFR1	2	R1635T
1019.05	1.6	1347191	WORD	n/a	wordpools/wordpool_categorized_EN.txt	SILK	Fabric	6	6	[0, 0, 0]	n/a	catFR1	2	R1635T
1021.583	1.6	1349724	WORD	n/a	wordpools/wordpool_categorized_EN.txt	TRUCK	Vehicles	7	6	[0, 0, 0]	n/a	catFR1	2	R1635T
1024.183	1.6	1352324	WORD	n/a	wordpools/wordpool_categorized_EN.txt	VAN	Vehicles	8	6	[0, 0, 0]	n/a	catFR1	2	R1635T
1026.766	1.6	1354907	WORD	n/a	wordpools/wordpool_categorized_EN.txt	LINEN	Fabric	9	6	[0, 0, 0]	n/a	catFR1	2	R1635T
1029.167	1.6	1357308	WORD	n/a	wordpools/wordpool_categorized_EN.txt	WOOL	Fabric	10	6	[0, 0, 0]	n/a	catFR1	2	R1635T
1031.55	1.6	1359691	WORD	n/a	wordpools/wordpool_categorized_EN.txt	WINE	Beverages	11	6	[0, 0, 0]	n/a	catFR1	2	R1635T
1033.966	1.6	1362107	WORD	n/a	wordpools/wordpool_categorized_EN.txt	RUM	Beverages	12	6	[0, 0, 0]	n/a	catFR1	2	R1635T
1035.567	0.001	1363708	PROB	7.532	n/a	n/a	n/a	-999	6	[6, 7, 8]	21.0	catFR1	2	R1635T
1035.568	7.549	1363709	DISTRACT_START	n/a	n/a	n/a	n/a	-999	6	[0, 0, 0]	n/a	catFR1	2	R1635T
1043.117	7.315	1371258	PROB	7.298	n/a	n/a	n/a	-999	6	[5, 7, 7]	19.0	catFR1	2	R1635T
1050.432	4.45	1378573	PROB	4.432	n/a	n/a	n/a	-999	6	[7, 8, 7]	22.0	catFR1	2	R1635T
1054.882	7.164	1383023	PROB	4.782	n/a	n/a	n/a	-999	6	[1, 7, 2]	10.0	catFR1	2	R1635T
1062.046	1.379	1390187	REC_START	n/a	n/a	n/a	n/a	-999	6	[0, 0, 0]	n/a	catFR1	2	R1635T
1063.425	1.757	1391566	REC_WORD	1.379	n/a	MOTORCYCLE	Vehicles	3	6	[0, 0, 0]	n/a	catFR1	2	R1635T
1065.182	1.794	1393323	REC_WORD	3.136	n/a	JEEP	Vehicles	4	6	[0, 0, 0]	n/a	catFR1	2	R1635T
1066.976	6.7	1395117	REC_WORD	4.93	n/a	TRUCK	Vehicles	7	6	[0, 0, 0]	n/a	catFR1	2	R1635T
1073.676	2.886	1401817	REC_WORD_VV	11.63	n/a	<>	n/a	-999	6	[0, 0, 0]	n/a	catFR1	2	R1635T
1076.562	3.846	1404703	REC_WORD	14.516	n/a	SPARROW	Birds	-999	6	[0, 0, 0]	n/a	catFR1	2	R1635T
1080.408	9.141	1408549	REC_WORD	18.362	n/a	HAWK	Birds	-999	6	[0, 0, 0]	n/a	catFR1	2	R1635T
1089.549	2.51	1417690	REC_WORD_VV	27.503	n/a	<>	n/a	-999	6	[0, 0, 0]	n/a	catFR1	2	R1635T
1092.059	0.136	1420200	REC_WORD	30.013	n/a	WINE	Beverages	11	6	[0, 0, 0]	n/a	catFR1	2	R1635T
1092.195	3.751	1420336	TRIAL	n/a	n/a	n/a	n/a	-999	7	[0, 0, 0]	n/a	catFR1	2	R1635T
1095.946	10.0	1424087	COUNTDOWN	n/a	n/a	n/a	n/a	-999	7	[0, 0, 0]	n/a	catFR1	2	R1635T
1106.296	2.201	1434437	ENCODING_START	n/a	n/a	n/a	n/a	-999	7	[0, 0, 0]	n/a	catFR1	2	R1635T
1108.497	1.6	1436638	WORD	n/a	wordpools/wordpool_categorized_EN.txt	DESK	Furniture	1	7	[0, 0, 0]	n/a	catFR1	2	R1635T
1110.863	1.6	1439004	WORD	n/a	wordpools/wordpool_categorized_EN.txt	BED	Furniture	2	7	[0, 0, 0]	n/a	catFR1	2	R1635T
1113.43	1.6	1441571	WORD	n/a	wordpools/wordpool_categorized_EN.txt	LADLE	KitchenTools	3	7	[0, 0, 0]	n/a	catFR1	2	R1635T
1115.896	1.6	1444037	WORD	n/a	wordpools/wordpool_categorized_EN.txt	SPATULA	KitchenTools	4	7	[0, 0, 0]	n/a	catFR1	2	R1635T
1118.446	1.6	1446587	WORD	n/a	wordpools/wordpool_categorized_EN.txt	VALLEY	Landscapes	5	7	[0, 0, 0]	n/a	catFR1	2	R1635T
1121.044	1.6	1449185	WORD	n/a	wordpools/wordpool_categorized_EN.txt	WOODS	Landscapes	6	7	[0, 0, 0]	n/a	catFR1	2	R1635T
1123.463	1.6	1451604	WORD	n/a	wordpools/wordpool_categorized_EN.txt	COLANDER	KitchenTools	7	7	[0, 0, 0]	n/a	catFR1	2	R1635T
1125.929	1.6	1454070	WORD	n/a	wordpools/wordpool_categorized_EN.txt	TONGS	KitchenTools	8	7	[0, 0, 0]	n/a	catFR1	2	R1635T
1128.529	1.6	1456670	WORD	n/a	wordpools/wordpool_categorized_EN.txt	HILLS	Landscapes	9	7	[0, 0, 0]	n/a	catFR1	2	R1635T
1131.045	1.6	1459186	WORD	n/a	wordpools/wordpool_categorized_EN.txt	RIVER	Landscapes	10	7	[0, 0, 0]	n/a	catFR1	2	R1635T
1133.462	1.6	1461603	WORD	n/a	wordpools/wordpool_categorized_EN.txt	CABINET	Furniture	11	7	[0, 0, 0]	n/a	catFR1	2	R1635T
1135.962	1.6	1464103	WORD	n/a	wordpools/wordpool_categorized_EN.txt	CHAIR	Furniture	12	7	[0, 0, 0]	n/a	catFR1	2	R1635T
1137.577	0.001	1465718	PROB	5.216	n/a	n/a	n/a	-999	7	[3, 1, 8]	12.0	catFR1	2	R1635T
1137.578	5.233	1465719	DISTRACT_START	n/a	n/a	n/a	n/a	-999	7	[0, 0, 0]	n/a	catFR1	2	R1635T
1142.811	3.133	1470952	PROB	3.116	n/a	n/a	n/a	-999	7	[1, 3, 2]	6.0	catFR1	2	R1635T
1145.944	4.834	1474085	PROB	4.816	n/a	n/a	n/a	-999	7	[2, 3, 5]	10.0	catFR1	2	R1635T
1150.778	5.1	1478919	PROB	5.083	n/a	n/a	n/a	-999	7	[8, 4, 5]	17.0	catFR1	2	R1635T
1155.878	5.693	1484019	PROB	3.283	n/a	n/a	n/a	-999	7	[2, 2, 1]	5.0	catFR1	2	R1635T
1161.571	1.495	1489712	REC_START	n/a	n/a	n/a	n/a	-999	7	[0, 0, 0]	n/a	catFR1	2	R1635T
1163.066	1.67	1491207	REC_WORD	1.495	n/a	DESK	Furniture	1	7	[0, 0, 0]	n/a	catFR1	2	R1635T
1164.736	3.03	1492877	REC_WORD	3.165	n/a	BED	Furniture	2	7	[0, 0, 0]	n/a	catFR1	2	R1635T
1167.766	2.061	1495907	REC_WORD	6.195	n/a	VALLEY	Landscapes	5	7	[0, 0, 0]	n/a	catFR1	2	R1635T
1169.827	1.837	1497968	REC_WORD	8.256	n/a	HILLS	Landscapes	9	7	[0, 0, 0]	n/a	catFR1	2	R1635T
1171.664	2.83	1499805	REC_WORD	10.093	n/a	SPATULA	KitchenTools	4	7	[0, 0, 0]	n/a	catFR1	2	R1635T
1174.494	2.529	1502635	REC_WORD	12.923	n/a	TONGS	KitchenTools	8	7	[0, 0, 0]	n/a	catFR1	2	R1635T
1177.023	2.942	1505164	REC_WORD	15.452	n/a	LADLE	KitchenTools	3	7	[0, 0, 0]	n/a	catFR1	2	R1635T
1179.965	5.726	1508106	REC_WORD	18.394	n/a	WOODS	Landscapes	6	7	[0, 0, 0]	n/a	catFR1	2	R1635T
1185.691	4.98	1513832	REC_WORD	24.12	n/a	MOUNTAIN	n/a	-999	7	[0, 0, 0]	n/a	catFR1	2	R1635T
1190.671	1.051	1518812	REC_WORD	29.1	n/a	CHAIR	Furniture	12	7	[0, 0, 0]	n/a	catFR1	2	R1635T
1191.722	3.803	1519863	TRIAL	n/a	n/a	n/a	n/a	-999	8	[0, 0, 0]	n/a	catFR1	2	R1635T
1195.525	10.0	1523666	COUNTDOWN	n/a	n/a	n/a	n/a	-999	8	[0, 0, 0]	n/a	catFR1	2	R1635T
1205.891	2.1	1534032	ENCODING_START	n/a	n/a	n/a	n/a	-999	8	[0, 0, 0]	n/a	catFR1	2	R1635T
1207.991	1.6	1536132	WORD	n/a	wordpools/wordpool_categorized_EN.txt	AXE	Tools	1	8	[0, 0, 0]	n/a	catFR1	2	R1635T
1210.525	1.6	1538666	WORD	n/a	wordpools/wordpool_categorized_EN.txt	LEVEL	Tools	2	8	[0, 0, 0]	n/a	catFR1	2	R1635T
1212.94	1.6	1541081	WORD	n/a	wordpools/wordpool_categorized_EN.txt	FINCH	Birds	3	8	[0, 0, 0]	n/a	catFR1	2	R1635T
1215.374	1.6	1543515	WORD	n/a	wordpools/wordpool_categorized_EN.txt	ROBIN	Birds	4	8	[0, 0, 0]	n/a	catFR1	2	R1635T
1217.774	1.6	1545915	WORD	n/a	wordpools/wordpool_categorized_EN.txt	ATTIC	Building	5	8	[0, 0, 0]	n/a	catFR1	2	R1635T
1220.208	1.6	1548349	WORD	n/a	wordpools/wordpool_categorized_EN.txt	ROOF	Building	6	8	[0, 0, 0]	n/a	catFR1	2	R1635T
1222.724	1.6	1550865	WORD	n/a	wordpools/wordpool_categorized_EN.txt	SEAGULL	Birds	7	8	[0, 0, 0]	n/a	catFR1	2	R1635T
1225.24	1.6	1553381	WORD	n/a	wordpools/wordpool_categorized_EN.txt	BLUEBIRD	Birds	8	8	[0, 0, 0]	n/a	catFR1	2	R1635T
1227.74	1.6	1555881	WORD	n/a	wordpools/wordpool_categorized_EN.txt	FOUNDATION	Building	9	8	[0, 0, 0]	n/a	catFR1	2	R1635T
1230.123	1.6	1558264	WORD	n/a	wordpools/wordpool_categorized_EN.txt	CEILING	Building	10	8	[0, 0, 0]	n/a	catFR1	2	R1635T
1232.673	1.6	1560814	WORD	n/a	wordpools/wordpool_categorized_EN.txt	CROWBAR	Tools	11	8	[0, 0, 0]	n/a	catFR1	2	R1635T
1235.256	1.6	1563397	WORD	n/a	wordpools/wordpool_categorized_EN.txt	SANDER	Tools	12	8	[0, 0, 0]	n/a	catFR1	2	R1635T
1236.856	0.001	1564997	PROB	5.75	n/a	n/a	n/a	-999	8	[5, 3, 7]	15.0	catFR1	2	R1635T
1236.857	5.767	1564998	DISTRACT_START	n/a	n/a	n/a	n/a	-999	8	[0, 0, 0]	n/a	catFR1	2	R1635T
1242.624	4.649	1570765	PROB	4.632	n/a	n/a	n/a	-999	8	[3, 7, 5]	15.0	catFR1	2	R1635T
1247.273	4.484	1575414	PROB	4.465	n/a	n/a	n/a	-999	8	[6, 7, 1]	14.0	catFR1	2	R1635T
1251.757	3.899	1579898	PROB	3.882	n/a	n/a	n/a	-999	8	[3, 1, 5]	9.0	catFR1	2	R1635T
1255.656	8.105	1583797	PROB	5.998	n/a	n/a	n/a	-999	8	[2, 4, 7]	13.0	catFR1	2	R1635T
1263.761	1.019	1591902	REC_START	n/a	n/a	n/a	n/a	-999	8	[0, 0, 0]	n/a	catFR1	2	R1635T
1264.78	1.6	1592921	REC_WORD	1.019	n/a	ROOF	Building	6	8	[0, 0, 0]	n/a	catFR1	2	R1635T
1266.38	2.984	1594521	REC_WORD	2.619	n/a	ATTIC	Building	5	8	[0, 0, 0]	n/a	catFR1	2	R1635T
1269.364	4.386	1597505	REC_WORD	5.603	n/a	SANDER	Tools	12	8	[0, 0, 0]	n/a	catFR1	2	R1635T
1273.75	7.824	1601891	REC_WORD	9.989	n/a	TOOLS	n/a	-999	8	[0, 0, 0]	n/a	catFR1	2	R1635T
1281.574	12.334	1609715	REC_WORD	17.813	n/a	HAMMER	n/a	-999	8	[0, 0, 0]	n/a	catFR1	2	R1635T
1293.908	3.662	1622049	TRIAL	n/a	n/a	n/a	n/a	-999	9	[0, 0, 0]	n/a	catFR1	2	R1635T
1297.57	10.0	1625711	COUNTDOWN	n/a	n/a	n/a	n/a	-999	9	[0, 0, 0]	n/a	catFR1	2	R1635T
1307.92	1.951	1636061	ENCODING_START	n/a	n/a	n/a	n/a	-999	9	[0, 0, 0]	n/a	catFR1	2	R1635T
1309.871	1.6	1638012	WORD	n/a	wordpools/wordpool_categorized_EN.txt	TURKEY	FarmAnimals	1	9	[0, 0, 0]	n/a	catFR1	2	R1635T
1312.387	1.6	1640528	WORD	n/a	wordpools/wordpool_categorized_EN.txt	HORSE	FarmAnimals	2	9	[0, 0, 0]	n/a	catFR1	2	R1635T
1314.752	1.6	1642893	WORD	n/a	wordpools/wordpool_categorized_EN.txt	VELVET	Fabric	3	9	[0, 0, 0]	n/a	catFR1	2	R1635T
1317.171	1.6	1645312	WORD	n/a	wordpools/wordpool_categorized_EN.txt	DENIM	Fabric	4	9	[0, 0, 0]	n/a	catFR1	2	R1635T
1319.769	1.6	1647910	WORD	n/a	wordpools/wordpool_categorized_EN.txt	BASKETBALL	Toys	5	9	[0, 0, 0]	n/a	catFR1	2	R1635T
1322.302	1.6	1650443	WORD	n/a	wordpools/wordpool_categorized_EN.txt	BARBIE	Toys	6	9	[0, 0, 0]	n/a	catFR1	2	R1635T
1324.769	1.6	1652910	WORD	n/a	wordpools/wordpool_categorized_EN.txt	SPANDEX	Fabric	7	9	[0, 0, 0]	n/a	catFR1	2	R1635T
1327.352	1.6	1655493	WORD	n/a	wordpools/wordpool_categorized_EN.txt	FLEECE	Fabric	8	9	[0, 0, 0]	n/a	catFR1	2	R1635T
1329.852	1.6	1657993	WORD	n/a	wordpools/wordpool_categorized_EN.txt	DOLL	Toys	9	9	[0, 0, 0]	n/a	catFR1	2	R1635T
1332.386	1.6	1660527	WORD	n/a	wordpools/wordpool_categorized_EN.txt	PUZZLE	Toys	10	9	[0, 0, 0]	n/a	catFR1	2	R1635T
1334.819	1.6	1662960	WORD	n/a	wordpools/wordpool_categorized_EN.txt	GOAT	FarmAnimals	11	9	[0, 0, 0]	n/a	catFR1	2	R1635T
1337.318	1.6	1665459	WORD	n/a	wordpools/wordpool_categorized_EN.txt	HEN	FarmAnimals	12	9	[0, 0, 0]	n/a	catFR1	2	R1635T
1338.919	0.002	1667060	PROB	5.766	n/a	n/a	n/a	-999	9	[5, 2, 6]	13.0	catFR1	2	R1635T
1338.921	5.781	1667062	DISTRACT_START	n/a	n/a	n/a	n/a	-999	9	[0, 0, 0]	n/a	catFR1	2	R1635T
1344.702	4.05	1672843	PROB	4.033	n/a	n/a	n/a	-999	9	[2, 4, 5]	11.0	catFR1	2	R1635T
1348.752	5.317	1676893	PROB	5.298	n/a	n/a	n/a	-999	9	[2, 7, 4]	13.0	catFR1	2	R1635T
1354.069	7.711	1682210	PROB	5.266	n/a	n/a	n/a	-999	9	[7, 7, 8]	22.0	catFR1	2	R1635T
1361.78	2.017	1689921	REC_START	n/a	n/a	n/a	n/a	-999	9	[0, 0, 0]	n/a	catFR1	2	R1635T
1363.797	1.758	1691938	REC_WORD	2.017	n/a	FLEECE	Fabric	8	9	[0, 0, 0]	n/a	catFR1	2	R1635T
1365.555	2.109	1693696	REC_WORD	3.775	n/a	DENIM	Fabric	4	9	[0, 0, 0]	n/a	catFR1	2	R1635T
1367.664	4.554	1695805	REC_WORD	5.884	n/a	VELVET	Fabric	3	9	[0, 0, 0]	n/a	catFR1	2	R1635T
1372.218	2.609	1700359	REC_WORD	10.438	n/a	CHICKEN	n/a	-999	9	[0, 0, 0]	n/a	catFR1	2	R1635T
1374.827	1.79	1702968	REC_WORD	13.047	n/a	GOAT	FarmAnimals	11	9	[0, 0, 0]	n/a	catFR1	2	R1635T
1376.617	2.448	1704758	REC_WORD	14.837	n/a	HEN	FarmAnimals	12	9	[0, 0, 0]	n/a	catFR1	2	R1635T
1379.065	2.252	1707206	REC_WORD	17.285	n/a	BARBIE	Toys	6	9	[0, 0, 0]	n/a	catFR1	2	R1635T
1381.317	7.505	1709458	REC_WORD	19.537	n/a	BASKETBALL	Toys	5	9	[0, 0, 0]	n/a	catFR1	2	R1635T
1388.822	3.117	1716963	REC_WORD	27.042	n/a	LEVEL	Tools	-999	9	[0, 0, 0]	n/a	catFR1	2	R1635T
1391.939	5.444	1720080	TRIAL	n/a	n/a	n/a	n/a	-999	10	[0, 0, 0]	n/a	catFR1	2	R1635T
1397.383	10.0	1725524	COUNTDOWN	n/a	n/a	n/a	n/a	-999	10	[0, 0, 0]	n/a	catFR1	2	R1635T
1407.733	2.0	1735874	ENCODING_START	n/a	n/a	n/a	n/a	-999	10	[0, 0, 0]	n/a	catFR1	2	R1635T
1409.733	1.6	1737874	WORD	n/a	wordpools/wordpool_categorized_EN.txt	STRAINER	KitchenTools	1	10	[0, 0, 0]	n/a	catFR1	2	R1635T
1412.282	1.6	1740423	WORD	n/a	wordpools/wordpool_categorized_EN.txt	GRATER	KitchenTools	2	10	[0, 0, 0]	n/a	catFR1	2	R1635T
1414.865	1.6	1743006	WORD	n/a	wordpools/wordpool_categorized_EN.txt	COOKIE	Desserts	3	10	[0, 0, 0]	n/a	catFR1	2	R1635T
1417.298	1.6	1745439	WORD	n/a	wordpools/wordpool_categorized_EN.txt	COBBLER	Desserts	4	10	[0, 0, 0]	n/a	catFR1	2	R1635T
1419.782	1.6	1747923	WORD	n/a	wordpools/wordpool_categorized_EN.txt	SHEEP	FarmAnimals	5	10	[0, 0, 0]	n/a	catFR1	2	R1635T
1422.216	1.6	1750357	WORD	n/a	wordpools/wordpool_categorized_EN.txt	CHICKEN	FarmAnimals	6	10	[0, 0, 0]	n/a	catFR1	2	R1635T
1424.765	1.6	1752906	WORD	n/a	wordpools/wordpool_categorized_EN.txt	BROWNIES	Desserts	7	10	[0, 0, 0]	n/a	catFR1	2	R1635T
1427.149	1.6	1755290	WORD	n/a	wordpools/wordpool_categorized_EN.txt	FUDGE	Desserts	8	10	[0, 0, 0]	n/a	catFR1	2	R1635T
1429.615	1.6	1757756	WORD	n/a	wordpools/wordpool_categorized_EN.txt	SPOON	KitchenTools	9	10	[0, 0, 0]	n/a	catFR1	2	R1635T
1432.081	1.6	1760222	WORD	n/a	wordpools/wordpool_categorized_EN.txt	KNIFE	KitchenTools	10	10	[0, 0, 0]	n/a	catFR1	2	R1635T
1434.647	1.6	1762788	WORD	n/a	wordpools/wordpool_categorized_EN.txt	PIG	FarmAnimals	11	10	[0, 0, 0]	n/a	catFR1	2	R1635T
1437.165	1.6	1765306	WORD	n/a	wordpools/wordpool_categorized_EN.txt	LAMB	FarmAnimals	12	10	[0, 0, 0]	n/a	catFR1	2	R1635T
1438.78	0.002	1766921	PROB	6.249	n/a	n/a	n/a	-999	10	[5, 4, 4]	13.0	catFR1	2	R1635T
1438.782	6.266	1766923	DISTRACT_START	n/a	n/a	n/a	n/a	-999	10	[0, 0, 0]	n/a	catFR1	2	R1635T
1445.048	4.516	1773189	PROB	4.499	n/a	n/a	n/a	-999	10	[1, 7, 2]	10.0	catFR1	2	R1635T
1449.564	3.567	1777705	PROB	3.549	n/a	n/a	n/a	-999	10	[3, 4, 2]	9.0	catFR1	2	R1635T
1453.131	8.106	1781272	PROB	5.749	n/a	n/a	n/a	-999	10	[4, 2, 7]	13.0	catFR1	2	R1635T
1461.237	1.671	1789378	REC_START	n/a	n/a	n/a	n/a	-999	10	[0, 0, 0]	n/a	catFR1	2	R1635T
1462.908	1.985	1791049	REC_WORD	1.671	n/a	LAMB	FarmAnimals	12	10	[0, 0, 0]	n/a	catFR1	2	R1635T
1464.893	3.673	1793034	REC_WORD	3.656	n/a	TURKEY	FarmAnimals	-999	10	[0, 0, 0]	n/a	catFR1	2	R1635T
1468.566	1.521	1796707	REC_WORD	7.329	n/a	BROWNIES	Desserts	7	10	[0, 0, 0]	n/a	catFR1	2	R1635T
1470.087	2.171	1798228	REC_WORD	8.85	n/a	FUDGE	Desserts	8	10	[0, 0, 0]	n/a	catFR1	2	R1635T
1472.258	1.769	1800399	REC_WORD	11.021	n/a	COOKIE	Desserts	3	10	[0, 0, 0]	n/a	catFR1	2	R1635T
1474.027	8.45	1802168	REC_WORD	12.79	n/a	COBBLER	Desserts	4	10	[0, 0, 0]	n/a	catFR1	2	R1635T
1482.477	7.067	1810618	REC_WORD	21.24	n/a	CHICKEN	FarmAnimals	6	10	[0, 0, 0]	n/a	catFR1	2	R1635T
1489.544	1.863	1817685	REC_WORD	28.307	n/a	FARM	n/a	-999	10	[0, 0, 0]	n/a	catFR1	2	R1635T
1491.407	2.872	1819548	TRIAL	n/a	n/a	n/a	n/a	-999	11	[0, 0, 0]	n/a	catFR1	2	R1635T
1494.279	10.0	1822420	COUNTDOWN	n/a	n/a	n/a	n/a	-999	11	[0, 0, 0]	n/a	catFR1	2	R1635T
1504.627	1.867	1832768	ENCODING_START	n/a	n/a	n/a	n/a	-999	11	[0, 0, 0]	n/a	catFR1	2	R1635T
1506.494	1.6	1834635	WORD	n/a	wordpools/wordpool_categorized_EN.txt	SLINKY	Toys	1	11	[0, 0, 0]	n/a	catFR1	2	R1635T
1508.894	1.6	1837035	WORD	n/a	wordpools/wordpool_categorized_EN.txt	MARBLES	Toys	2	11	[0, 0, 0]	n/a	catFR1	2	R1635T
1511.26	1.6	1839401	WORD	n/a	wordpools/wordpool_categorized_EN.txt	CORKSCREW	KitchenTools	3	11	[0, 0, 0]	n/a	catFR1	2	R1635T
1513.678	1.6	1841819	WORD	n/a	wordpools/wordpool_categorized_EN.txt	FORK	KitchenTools	4	11	[0, 0, 0]	n/a	catFR1	2	R1635T
1516.095	1.6	1844236	WORD	n/a	wordpools/wordpool_categorized_EN.txt	SPEAKER	Electronics	5	11	[0, 0, 0]	n/a	catFR1	2	R1635T
1518.561	1.6	1846702	WORD	n/a	wordpools/wordpool_categorized_EN.txt	SCANNER	Electronics	6	11	[0, 0, 0]	n/a	catFR1	2	R1635T
1520.977	1.6	1849118	WORD	n/a	wordpools/wordpool_categorized_EN.txt	BASEBALL	Toys	7	11	[0, 0, 0]	n/a	catFR1	2	R1635T
1523.461	1.6	1851602	WORD	n/a	wordpools/wordpool_categorized_EN.txt	FRISBEE	Toys	8	11	[0, 0, 0]	n/a	catFR1	2	R1635T
1525.911	1.6	1854052	WORD	n/a	wordpools/wordpool_categorized_EN.txt	WHISK	KitchenTools	9	11	[0, 0, 0]	n/a	catFR1	2	R1635T
1528.511	1.6	1856652	WORD	n/a	wordpools/wordpool_categorized_EN.txt	PEELER	KitchenTools	10	11	[0, 0, 0]	n/a	catFR1	2	R1635T
1530.977	1.6	1859118	WORD	n/a	wordpools/wordpool_categorized_EN.txt	TELEVISION	Electronics	11	11	[0, 0, 0]	n/a	catFR1	2	R1635T
1533.459	1.6	1861600	WORD	n/a	wordpools/wordpool_categorized_EN.txt	PRINTER	Electronics	12	11	[0, 0, 0]	n/a	catFR1	2	R1635T
1535.061	0.0	1863202	DISTRACT_START	n/a	n/a	n/a	n/a	-999	11	[0, 0, 0]	n/a	catFR1	2	R1635T
1535.061	4.932	1863202	PROB	4.916	n/a	n/a	n/a	-999	11	[3, 7, 7]	17.0	catFR1	2	R1635T
1539.993	5.301	1868134	PROB	5.283	n/a	n/a	n/a	-999	11	[3, 8, 5]	16.0	catFR1	2	R1635T
1545.294	4.6	1873435	PROB	4.582	n/a	n/a	n/a	-999	11	[6, 3, 2]	11.0	catFR1	2	R1635T
1549.894	7.881	1878035	PROB	5.731	n/a	n/a	n/a	-999	11	[5, 8, 7]	20.0	catFR1	2	R1635T
1557.775	4.067	1885916	REC_START	n/a	n/a	n/a	n/a	-999	11	[0, 0, 0]	n/a	catFR1	2	R1635T
1561.842	4.857	1889983	REC_WORD	4.067	n/a	PEELER	KitchenTools	10	11	[0, 0, 0]	n/a	catFR1	2	R1635T
1566.699	18.507	1894840	REC_WORD	8.924	n/a	BASEBALL	Toys	7	11	[0, 0, 0]	n/a	catFR1	2	R1635T
1585.206	2.72	1913347	REC_WORD_VV	27.431	n/a	<>	n/a	-999	11	[0, 0, 0]	n/a	catFR1	2	R1635T
1587.926	3.199	1916067	TRIAL	n/a	n/a	n/a	n/a	-999	12	[0, 0, 0]	n/a	catFR1	2	R1635T
1591.125	10.0	1919266	COUNTDOWN	n/a	n/a	n/a	n/a	-999	12	[0, 0, 0]	n/a	catFR1	2	R1635T
1601.474	2.133	1929615	ENCODING_START	n/a	n/a	n/a	n/a	-999	12	[0, 0, 0]	n/a	catFR1	2	R1635T
1603.607	1.6	1931748	WORD	n/a	wordpools/wordpool_categorized_EN.txt	VACUUM	Appliances	1	12	[0, 0, 0]	n/a	catFR1	2	R1635T
1606.14	1.6	1934281	WORD	n/a	wordpools/wordpool_categorized_EN.txt	REFRIGERATOR	Appliances	2	12	[0, 0, 0]	n/a	catFR1	2	R1635T
1608.657	1.6	1936798	WORD	n/a	wordpools/wordpool_categorized_EN.txt	ELBOW	BodyParts	3	12	[0, 0, 0]	n/a	catFR1	2	R1635T
1611.106	1.6	1939247	WORD	n/a	wordpools/wordpool_categorized_EN.txt	HEAD	BodyParts	4	12	[0, 0, 0]	n/a	catFR1	2	R1635T
1613.589	1.6	1941730	WORD	n/a	wordpools/wordpool_categorized_EN.txt	PUDDING	Desserts	5	12	[0, 0, 0]	n/a	catFR1	2	R1635T
1616.107	1.6	1944248	WORD	n/a	wordpools/wordpool_categorized_EN.txt	MOUSSE	Desserts	6	12	[0, 0, 0]	n/a	catFR1	2	R1635T
1618.639	1.6	1946780	WORD	n/a	wordpools/wordpool_categorized_EN.txt	IRON	Appliances	7	12	[0, 0, 0]	n/a	catFR1	2	R1635T
1621.222	1.6	1949363	WORD	n/a	wordpools/wordpool_categorized_EN.txt	OVEN	Appliances	8	12	[0, 0, 0]	n/a	catFR1	2	R1635T
1623.738	1.6	1951879	WORD	n/a	wordpools/wordpool_categorized_EN.txt	KNEE	BodyParts	9	12	[0, 0, 0]	n/a	catFR1	2	R1635T
1626.206	1.6	1954347	WORD	n/a	wordpools/wordpool_categorized_EN.txt	LEG	BodyParts	10	12	[0, 0, 0]	n/a	catFR1	2	R1635T
1628.705	1.6	1956846	WORD	n/a	wordpools/wordpool_categorized_EN.txt	JELLO	Desserts	11	12	[0, 0, 0]	n/a	catFR1	2	R1635T
1631.289	1.6	1959430	WORD	n/a	wordpools/wordpool_categorized_EN.txt	CUPCAKE	Desserts	12	12	[0, 0, 0]	n/a	catFR1	2	R1635T
1632.905	0.002	1961046	PROB	6.282	n/a	n/a	n/a	-999	12	[6, 6, 3]	15.0	catFR1	2	R1635T
1632.907	6.298	1961048	DISTRACT_START	n/a	n/a	n/a	n/a	-999	12	[0, 0, 0]	n/a	catFR1	2	R1635T
1639.205	5.001	1967346	PROB	4.983	n/a	n/a	n/a	-999	12	[8, 7, 4]	19.0	catFR1	2	R1635T
1644.206	3.814	1972347	PROB	3.799	n/a	n/a	n/a	-999	12	[4, 1, 2]	7.0	catFR1	2	R1635T
1648.02	4.801	1976161	PROB	4.784	n/a	n/a	n/a	-999	12	[2, 4, 4]	10.0	catFR1	2	R1635T
1652.821	7.313	1980962	PROB	4.965	n/a	n/a	n/a	-999	12	[7, 5, 5]	17.0	catFR1	2	R1635T
1660.134	5.515	1988275	REC_START	n/a	n/a	n/a	n/a	-999	12	[0, 0, 0]	n/a	catFR1	2	R1635T
1665.649	3.811	1993790	REC_WORD	5.515	n/a	VACUUM	Appliances	1	12	[0, 0, 0]	n/a	catFR1	2	R1635T
1669.46	2.074	1997601	REC_WORD	9.326	n/a	HALL	n/a	-999	12	[0, 0, 0]	n/a	catFR1	2	R1635T
1671.534	1.79	1999675	REC_WORD	11.4	n/a	KNEE	BodyParts	9	12	[0, 0, 0]	n/a	catFR1	2	R1635T
1673.324	2.313	2001465	REC_WORD	13.19	n/a	LEG	BodyParts	10	12	[0, 0, 0]	n/a	catFR1	2	R1635T
1675.637	5.272	2003778	REC_WORD	15.503	n/a	PUDDING	Desserts	5	12	[0, 0, 0]	n/a	catFR1	2	R1635T
1680.909	9.38	2009050	REC_WORD	20.775	n/a	PARFAIT	n/a	-999	12	[0, 0, 0]	n/a	catFR1	2	R1635T
1690.289	0.0	2018430	SESS_END	n/a	n/a	n/a	n/a	-999	12	[0, 0, 0]	n/a	catFR1	2	R1635T
