onset	duration	sample	trial_type	response_time	stim_file	item_name	category	serialpos	list	test	answer	experiment	session	subject
0.0	403.738	-1	INSTRUCT_START	n/a	n/a	n/a	n/a	-999	-999	[0, 0, 0]	n/a	catFR1	0	R1288P
403.738	0.0	-1	INSTRUCT_START	n/a	n/a	n/a	n/a	-999	-999	[0, 0, 0]	n/a	catFR1	0	R1288P
403.738	0.0	-1	INSTRUCT_END	n/a	n/a	n/a	n/a	-999	-999	[0, 0, 0]	n/a	catFR1	0	R1288P
403.738	0.0	-1	SESS_START	n/a	n/a	n/a	n/a	-999	-999	[0, 0, 0]	n/a	catFR1	0	R1288P
403.738	381.689	-1	MIC_TEST	n/a	n/a	n/a	n/a	-999	-999	[0, 0, 0]	n/a	catFR1	0	R1288P
785.427	8.486	343693	PRACTICE_TRIAL	n/a	n/a	n/a	n/a	-999	-1	[0, 0, 0]	n/a	catFR1	0	R1288P
793.913	10.428	352179	COUNTDOWN_START	n/a	n/a	n/a	n/a	-999	-1	[0, 0, 0]	n/a	catFR1	0	R1288P
804.341	0.008	362607	COUNTDOWN_END	n/a	n/a	n/a	n/a	-999	-1	[0, 0, 0]	n/a	catFR1	0	R1288P
804.349	1.617	362615	PRACTICE_ORIENT	n/a	n/a	n/a	n/a	-999	-1	[0, 0, 0]	n/a	catFR1	0	R1288P
805.966	2.267	364232	PRACTICE_ORIENT_OFF	n/a	n/a	n/a	n/a	-999	-1	[0, 0, 0]	n/a	catFR1	0	R1288P
808.233	1.616	366499	PRACTICE_WORD	n/a	n/a	RING	n/a	-1	-1	[0, 0, 0]	n/a	catFR1	0	R1288P
809.849	0.8	368114	PRACTICE_WORD_OFF	n/a	n/a	RING	n/a	-999	-1	[0, 0, 0]	n/a	catFR1	0	R1288P
810.649	1.618	368914	PRACTICE_WORD	n/a	n/a	ALLEY	n/a	-1	-1	[0, 0, 0]	n/a	catFR1	0	R1288P
812.267	0.934	370532	PRACTICE_WORD_OFF	n/a	n/a	ALLEY	n/a	-999	-1	[0, 0, 0]	n/a	catFR1	0	R1288P
813.201	1.616	371466	PRACTICE_WORD	n/a	n/a	FAUCET	n/a	-1	-1	[0, 0, 0]	n/a	catFR1	0	R1288P
814.817	0.917	373082	PRACTICE_WORD_OFF	n/a	n/a	FAUCET	n/a	-999	-1	[0, 0, 0]	n/a	catFR1	0	R1288P
815.734	1.618	373999	PRACTICE_WORD	n/a	n/a	RHINO	n/a	-1	-1	[0, 0, 0]	n/a	catFR1	0	R1288P
817.352	0.783	375617	PRACTICE_WORD_OFF	n/a	n/a	RHINO	n/a	-999	-1	[0, 0, 0]	n/a	catFR1	0	R1288P
818.135	1.616	376400	PRACTICE_WORD	n/a	n/a	TONGUE	n/a	-1	-1	[0, 0, 0]	n/a	catFR1	0	R1288P
819.751	0.95	378016	PRACTICE_WORD_OFF	n/a	n/a	TONGUE	n/a	-999	-1	[0, 0, 0]	n/a	catFR1	0	R1288P
820.701	1.601	378966	PRACTICE_WORD	n/a	n/a	BEAM	n/a	-1	-1	[0, 0, 0]	n/a	catFR1	0	R1288P
822.302	0.834	380567	PRACTICE_WORD_OFF	n/a	n/a	BEAM	n/a	-999	-1	[0, 0, 0]	n/a	catFR1	0	R1288P
823.136	1.616	381401	PRACTICE_WORD	n/a	n/a	CHEST	n/a	-1	-1	[0, 0, 0]	n/a	catFR1	0	R1288P
824.752	0.95	383017	PRACTICE_WORD_OFF	n/a	n/a	CHEST	n/a	-999	-1	[0, 0, 0]	n/a	catFR1	0	R1288P
825.702	1.618	383967	PRACTICE_WORD	n/a	n/a	COTTON	n/a	-1	-1	[0, 0, 0]	n/a	catFR1	0	R1288P
827.32	0.917	385585	PRACTICE_WORD_OFF	n/a	n/a	COTTON	n/a	-999	-1	[0, 0, 0]	n/a	catFR1	0	R1288P
828.237	1.616	386502	PRACTICE_WORD	n/a	n/a	FLOOD	n/a	-1	-1	[0, 0, 0]	n/a	catFR1	0	R1288P
829.853	1.0	388118	PRACTICE_WORD_OFF	n/a	n/a	FLOOD	n/a	-999	-1	[0, 0, 0]	n/a	catFR1	0	R1288P
830.853	1.618	389118	PRACTICE_WORD	n/a	n/a	WAGON	n/a	-1	-1	[0, 0, 0]	n/a	catFR1	0	R1288P
832.471	0.967	390736	PRACTICE_WORD_OFF	n/a	n/a	WAGON	n/a	-999	-1	[0, 0, 0]	n/a	catFR1	0	R1288P
833.438	1.617	391702	PRACTICE_WORD	n/a	n/a	WATCH	n/a	-1	-1	[0, 0, 0]	n/a	catFR1	0	R1288P
835.055	0.816	393319	PRACTICE_WORD_OFF	n/a	n/a	WATCH	n/a	-999	-1	[0, 0, 0]	n/a	catFR1	0	R1288P
835.871	1.601	394135	PRACTICE_WORD	n/a	n/a	CAMEL	n/a	-1	-1	[0, 0, 0]	n/a	catFR1	0	R1288P
837.472	0.0	395736	ENCODING_END	n/a	n/a	n/a	n/a	-999	-1	[0, 0, 0]	n/a	catFR1	0	R1288P
837.472	0.0	395736	PRACTICE_WORD_OFF	n/a	n/a	CAMEL	n/a	-999	-1	[0, 0, 0]	n/a	catFR1	0	R1288P
837.472	0.0	395736	DISTRACT_START	n/a	n/a	n/a	n/a	-999	-1	[0, 0, 0]	n/a	catFR1	0	R1288P
837.472	0.017	395736	START	n/a	n/a	n/a	n/a	-999	-1	[-999, -999, -999]	n/a	catFR1	0	R1288P
837.489	34.516	395753	PROB	34.516	n/a	n/a	n/a	-999	-1	[8, 4, 4]	16.0	catFR1	0	R1288P
872.005	0.025	430268	STOP	n/a	n/a	n/a	n/a	-999	-1	[-999, -999, -999]	n/a	catFR1	0	R1288P
872.03	0.664	430293	DISTRACT_END	n/a	n/a	n/a	n/a	-999	-1	[0, 0, 0]	n/a	catFR1	0	R1288P
872.694	0.523	430957	RETRIEVAL_ORIENT	n/a	n/a	n/a	n/a	-999	-1	[0, 0, 0]	n/a	catFR1	0	R1288P
873.217	30.008	431480	PRACTICE_REC_START	n/a	n/a	n/a	n/a	-999	-1	[0, 0, 0]	n/a	catFR1	0	R1288P
903.225	16.528	461487	PRACTICE_REC_END	n/a	n/a	n/a	n/a	-999	-1	[0, 0, 0]	n/a	catFR1	0	R1288P
919.753	0.0	478014	TRIAL	n/a	n/a	n/a	n/a	-999	1	[0, 0, 0]	n/a	catFR1	0	R1288P
919.753	10.428	478014	COUNTDOWN_START	n/a	n/a	n/a	n/a	-999	1	[0, 0, 0]	n/a	catFR1	0	R1288P
930.181	0.008	488441	COUNTDOWN_END	n/a	n/a	n/a	n/a	-999	1	[0, 0, 0]	n/a	catFR1	0	R1288P
930.189	1.616	488449	ORIENT	n/a	n/a	n/a	n/a	-999	1	[0, 0, 0]	n/a	catFR1	0	R1288P
931.805	1.901	490065	ORIENT_OFF	n/a	n/a	n/a	n/a	-999	1	[0, 0, 0]	n/a	catFR1	0	R1288P
933.706	1.618	491966	WORD	n/a	wordpools/wordpool_categorized_EN.txt	CHERRY	Fruit	1	1	[0, 0, 0]	n/a	catFR1	0	R1288P
935.324	0.933	493584	WORD_OFF	n/a	n/a	CHERRY	n/a	1	1	[0, 0, 0]	n/a	catFR1	0	R1288P
936.257	1.616	494517	WORD	n/a	wordpools/wordpool_categorized_EN.txt	LIME	Fruit	2	1	[0, 0, 0]	n/a	catFR1	0	R1288P
937.873	0.9	496133	WORD_OFF	n/a	n/a	LIME	n/a	2	1	[0, 0, 0]	n/a	catFR1	0	R1288P
938.773	1.618	497033	WORD	n/a	wordpools/wordpool_categorized_EN.txt	REFRIGERATOR	Appliances	3	1	[0, 0, 0]	n/a	catFR1	0	R1288P
940.391	0.984	498651	WORD_OFF	n/a	n/a	REFRIGERATOR	n/a	3	1	[0, 0, 0]	n/a	catFR1	0	R1288P
941.375	1.617	499635	WORD	n/a	wordpools/wordpool_categorized_EN.txt	BLENDER	Appliances	4	1	[0, 0, 0]	n/a	catFR1	0	R1288P
942.992	0.983	501252	WORD_OFF	n/a	n/a	BLENDER	n/a	4	1	[0, 0, 0]	n/a	catFR1	0	R1288P
943.975	1.616	502235	WORD	n/a	wordpools/wordpool_categorized_EN.txt	CUCUMBER	Vegetables	5	1	[0, 0, 0]	n/a	catFR1	0	R1288P
945.591	0.818	503851	WORD_OFF	n/a	n/a	CUCUMBER	n/a	5	1	[0, 0, 0]	n/a	catFR1	0	R1288P
946.409	1.617	504669	WORD	n/a	wordpools/wordpool_categorized_EN.txt	CARROT	Vegetables	6	1	[0, 0, 0]	n/a	catFR1	0	R1288P
948.026	1.017	506286	WORD_OFF	n/a	n/a	CARROT	n/a	6	1	[0, 0, 0]	n/a	catFR1	0	R1288P
949.043	1.616	507303	WORD	n/a	wordpools/wordpool_categorized_EN.txt	BLUEBERRY	Fruit	7	1	[0, 0, 0]	n/a	catFR1	0	R1288P
950.659	0.917	508919	WORD_OFF	n/a	n/a	BLUEBERRY	n/a	7	1	[0, 0, 0]	n/a	catFR1	0	R1288P
951.576	1.618	509835	WORD	n/a	wordpools/wordpool_categorized_EN.txt	APPLE	Fruit	8	1	[0, 0, 0]	n/a	catFR1	0	R1288P
953.194	0.8	511453	WORD_OFF	n/a	n/a	APPLE	n/a	8	1	[0, 0, 0]	n/a	catFR1	0	R1288P
953.994	1.616	512253	WORD	n/a	wordpools/wordpool_categorized_EN.txt	OVEN	Appliances	9	1	[0, 0, 0]	n/a	catFR1	0	R1288P
955.61	0.934	513869	WORD_OFF	n/a	n/a	OVEN	n/a	9	1	[0, 0, 0]	n/a	catFR1	0	R1288P
956.544	1.617	514803	WORD	n/a	wordpools/wordpool_categorized_EN.txt	WASHER	Appliances	10	1	[0, 0, 0]	n/a	catFR1	0	R1288P
958.161	0.901	516420	WORD_OFF	n/a	n/a	WASHER	n/a	10	1	[0, 0, 0]	n/a	catFR1	0	R1288P
959.062	1.616	517321	WORD	n/a	wordpools/wordpool_categorized_EN.txt	SPINACH	Vegetables	11	1	[0, 0, 0]	n/a	catFR1	0	R1288P
960.678	0.767	518937	WORD_OFF	n/a	n/a	SPINACH	n/a	11	1	[0, 0, 0]	n/a	catFR1	0	R1288P
961.445	1.617	519704	WORD	n/a	wordpools/wordpool_categorized_EN.txt	CORN	Vegetables	12	1	[0, 0, 0]	n/a	catFR1	0	R1288P
963.062	0.0	521321	WORD_OFF	n/a	n/a	CORN	n/a	12	1	[0, 0, 0]	n/a	catFR1	0	R1288P
963.062	0.077	521321	ENCODING_END	n/a	n/a	n/a	n/a	-999	1	[0, 0, 0]	n/a	catFR1	0	R1288P
963.139	0.0	521398	DISTRACT_START	n/a	n/a	n/a	n/a	-999	1	[0, 0, 0]	n/a	catFR1	0	R1288P
963.139	0.007	521398	START	n/a	n/a	n/a	n/a	-999	1	[-999, -999, -999]	n/a	catFR1	0	R1288P
963.146	28.374	521405	PROB	28.374	n/a	n/a	n/a	-999	1	[3, 2, 7]	12.0	catFR1	0	R1288P
991.52	0.014	549778	STOP	n/a	n/a	n/a	n/a	-999	1	[-999, -999, -999]	n/a	catFR1	0	R1288P
991.534	0.517	549792	DISTRACT_END	n/a	n/a	n/a	n/a	-999	1	[0, 0, 0]	n/a	catFR1	0	R1288P
992.051	0.517	550309	RETRIEVAL_ORIENT	n/a	n/a	n/a	n/a	-999	1	[0, 0, 0]	n/a	catFR1	0	R1288P
992.568	0.0	550826	REC_START	n/a	n/a	n/a	n/a	-999	1	[0, 0, 0]	n/a	catFR1	0	R1288P
992.568	1.0	550826	REC_WORD_VV	0.0	n/a	<>	n/a	-999	1	[0, 0, 0]	n/a	catFR1	0	R1288P
993.568	1.283	551826	REC_WORD_VV	1.0	n/a	<>	n/a	-999	1	[0, 0, 0]	n/a	catFR1	0	R1288P
994.851	3.204	553109	REC_WORD_VV	2.283	n/a	<>	n/a	-999	1	[0, 0, 0]	n/a	catFR1	0	R1288P
998.055	2.844	556313	REC_WORD_VV	5.487	n/a	<>	n/a	-999	1	[0, 0, 0]	n/a	catFR1	0	R1288P
1000.899	1.946	559156	REC_WORD_VV	8.331	n/a	<>	n/a	-999	1	[0, 0, 0]	n/a	catFR1	0	R1288P
1002.845	1.0	561102	REC_WORD_VV	10.277	n/a	<>	n/a	-999	1	[0, 0, 0]	n/a	catFR1	0	R1288P
1003.845	1.0	562102	REC_WORD_VV	11.277	n/a	<>	n/a	-999	1	[0, 0, 0]	n/a	catFR1	0	R1288P
1004.845	1.0	563102	REC_WORD_VV	12.277	n/a	<>	n/a	-999	1	[0, 0, 0]	n/a	catFR1	0	R1288P
1005.845	0.992	564102	REC_WORD_VV	13.277	n/a	<>	n/a	-999	1	[0, 0, 0]	n/a	catFR1	0	R1288P
1006.837	1.0	565094	REC_WORD_VV	14.269	n/a	<>	n/a	-999	1	[0, 0, 0]	n/a	catFR1	0	R1288P
1007.837	1.0	566094	REC_WORD_VV	15.269	n/a	<>	n/a	-999	1	[0, 0, 0]	n/a	catFR1	0	R1288P
1008.837	1.0	567094	REC_WORD_VV	16.269	n/a	<>	n/a	-999	1	[0, 0, 0]	n/a	catFR1	0	R1288P
1009.837	1.0	568094	REC_WORD_VV	17.269	n/a	<>	n/a	-999	1	[0, 0, 0]	n/a	catFR1	0	R1288P
1010.837	1.314	569094	REC_WORD_VV	18.269	n/a	<>	n/a	-999	1	[0, 0, 0]	n/a	catFR1	0	R1288P
1012.151	0.818	570408	REC_WORD_VV	19.583	n/a	<>	n/a	-999	1	[0, 0, 0]	n/a	catFR1	0	R1288P
1012.969	1.0	571226	REC_WORD_VV	20.401	n/a	<>	n/a	-999	1	[0, 0, 0]	n/a	catFR1	0	R1288P
1013.969	1.0	572226	REC_WORD_VV	21.401	n/a	<>	n/a	-999	1	[0, 0, 0]	n/a	catFR1	0	R1288P
1014.969	1.0	573226	REC_WORD_VV	22.401	n/a	<>	n/a	-999	1	[0, 0, 0]	n/a	catFR1	0	R1288P
1015.969	6.608	574226	REC_WORD_VV	23.401	n/a	<>	n/a	-999	1	[0, 0, 0]	n/a	catFR1	0	R1288P
1022.577	0.597	580833	REC_END	n/a	n/a	n/a	n/a	-999	1	[0, 0, 0]	n/a	catFR1	0	R1288P
1023.174	0.0	581430	TRIAL	n/a	n/a	n/a	n/a	-999	2	[0, 0, 0]	n/a	catFR1	0	R1288P
1023.174	10.428	581430	COUNTDOWN_START	n/a	n/a	n/a	n/a	-999	2	[0, 0, 0]	n/a	catFR1	0	R1288P
1033.602	0.006	591858	COUNTDOWN_END	n/a	n/a	n/a	n/a	-999	2	[0, 0, 0]	n/a	catFR1	0	R1288P
1033.608	1.618	591864	ORIENT	n/a	n/a	n/a	n/a	-999	2	[0, 0, 0]	n/a	catFR1	0	R1288P
1035.226	2.0	593482	ORIENT_OFF	n/a	n/a	n/a	n/a	-999	2	[0, 0, 0]	n/a	catFR1	0	R1288P
1037.226	1.616	595482	WORD	n/a	wordpools/wordpool_categorized_EN.txt	PEACH	Fruit	1	2	[0, 0, 0]	n/a	catFR1	0	R1288P
1038.842	0.85	597098	WORD_OFF	n/a	n/a	PEACH	n/a	1	2	[0, 0, 0]	n/a	catFR1	0	R1288P
1039.692	1.618	597948	WORD	n/a	wordpools/wordpool_categorized_EN.txt	ORANGE	Fruit	2	2	[0, 0, 0]	n/a	catFR1	0	R1288P
1041.31	0.984	599566	WORD_OFF	n/a	n/a	ORANGE	n/a	2	2	[0, 0, 0]	n/a	catFR1	0	R1288P
1042.294	1.616	600550	WORD	n/a	wordpools/wordpool_categorized_EN.txt	PENCIL	OfficeSupplies	3	2	[0, 0, 0]	n/a	catFR1	0	R1288P
1043.91	1.0	602166	WORD_OFF	n/a	n/a	PENCIL	n/a	3	2	[0, 0, 0]	n/a	catFR1	0	R1288P
1044.91	1.618	603166	WORD	n/a	wordpools/wordpool_categorized_EN.txt	PEN	OfficeSupplies	4	2	[0, 0, 0]	n/a	catFR1	0	R1288P
1046.528	0.85	604783	WORD_OFF	n/a	n/a	PEN	n/a	4	2	[0, 0, 0]	n/a	catFR1	0	R1288P
1047.378	1.617	605633	WORD	n/a	wordpools/wordpool_categorized_EN.txt	BIKE	Vehicles	5	2	[0, 0, 0]	n/a	catFR1	0	R1288P
1048.995	0.799	607250	WORD_OFF	n/a	n/a	BIKE	n/a	5	2	[0, 0, 0]	n/a	catFR1	0	R1288P
1049.794	1.602	608049	WORD	n/a	wordpools/wordpool_categorized_EN.txt	CAR	Vehicles	6	2	[0, 0, 0]	n/a	catFR1	0	R1288P
1051.396	0.95	609651	WORD_OFF	n/a	n/a	CAR	n/a	6	2	[0, 0, 0]	n/a	catFR1	0	R1288P
1052.346	1.617	610601	WORD	n/a	wordpools/wordpool_categorized_EN.txt	PLUM	Fruit	7	2	[0, 0, 0]	n/a	catFR1	0	R1288P
1053.963	0.966	612218	WORD_OFF	n/a	n/a	PLUM	n/a	7	2	[0, 0, 0]	n/a	catFR1	0	R1288P
1054.929	1.618	613184	WORD	n/a	wordpools/wordpool_categorized_EN.txt	LEMON	Fruit	8	2	[0, 0, 0]	n/a	catFR1	0	R1288P
1056.547	0.85	614802	WORD_OFF	n/a	n/a	LEMON	n/a	8	2	[0, 0, 0]	n/a	catFR1	0	R1288P
1057.397	1.617	615652	WORD	n/a	wordpools/wordpool_categorized_EN.txt	BINDER	OfficeSupplies	9	2	[0, 0, 0]	n/a	catFR1	0	R1288P
1059.014	0.983	617269	WORD_OFF	n/a	n/a	BINDER	n/a	9	2	[0, 0, 0]	n/a	catFR1	0	R1288P
1059.997	1.616	618252	WORD	n/a	wordpools/wordpool_categorized_EN.txt	ERASER	OfficeSupplies	10	2	[0, 0, 0]	n/a	catFR1	0	R1288P
1061.613	0.885	619868	WORD_OFF	n/a	n/a	ERASER	n/a	10	2	[0, 0, 0]	n/a	catFR1	0	R1288P
1062.498	1.617	620753	WORD	n/a	wordpools/wordpool_categorized_EN.txt	TRAIN	Vehicles	11	2	[0, 0, 0]	n/a	catFR1	0	R1288P
1064.115	0.799	622370	WORD_OFF	n/a	n/a	TRAIN	n/a	11	2	[0, 0, 0]	n/a	catFR1	0	R1288P
1064.914	1.618	623169	WORD	n/a	wordpools/wordpool_categorized_EN.txt	PLANE	Vehicles	12	2	[0, 0, 0]	n/a	catFR1	0	R1288P
1066.532	0.0	624787	ENCODING_END	n/a	n/a	n/a	n/a	-999	2	[0, 0, 0]	n/a	catFR1	0	R1288P
1066.532	0.101	624787	WORD_OFF	n/a	n/a	PLANE	n/a	12	2	[0, 0, 0]	n/a	catFR1	0	R1288P
1066.633	0.0	624888	DISTRACT_START	n/a	n/a	n/a	n/a	-999	2	[0, 0, 0]	n/a	catFR1	0	R1288P
1066.633	0.015	624888	START	n/a	n/a	n/a	n/a	-999	2	[-999, -999, -999]	n/a	catFR1	0	R1288P
1066.648	11.553	624903	PROB	11.519	n/a	n/a	n/a	-999	2	[3, 8, 9]	20.0	catFR1	0	R1288P
1078.201	6.918	636455	PROB	6.888	n/a	n/a	n/a	-999	2	[5, 1, 7]	13.0	catFR1	0	R1288P
1085.119	5.393	643373	PROB	5.393	n/a	n/a	n/a	-999	2	[9, 9, 8]	26.0	catFR1	0	R1288P
1090.512	0.008	648766	STOP	n/a	n/a	n/a	n/a	-999	2	[-999, -999, -999]	n/a	catFR1	0	R1288P
1090.52	0.65	648774	DISTRACT_END	n/a	n/a	n/a	n/a	-999	2	[0, 0, 0]	n/a	catFR1	0	R1288P
1091.17	0.516	649424	RETRIEVAL_ORIENT	n/a	n/a	n/a	n/a	-999	2	[0, 0, 0]	n/a	catFR1	0	R1288P
1091.686	11.834	649940	REC_START	n/a	n/a	n/a	n/a	-999	2	[0, 0, 0]	n/a	catFR1	0	R1288P
1103.52	2.747	661773	REC_WORD_VV	11.834	n/a	<>	n/a	-999	2	[0, 0, 0]	n/a	catFR1	0	R1288P
1106.267	1.0	664520	REC_WORD_VV	14.581	n/a	<>	n/a	-999	2	[0, 0, 0]	n/a	catFR1	0	R1288P
1107.267	1.433	665520	REC_WORD_VV	15.581	n/a	<>	n/a	-999	2	[0, 0, 0]	n/a	catFR1	0	R1288P
1108.7	2.658	666953	REC_WORD_VV	17.014	n/a	<>	n/a	-999	2	[0, 0, 0]	n/a	catFR1	0	R1288P
1111.358	1.341	669611	REC_WORD_VV	19.672	n/a	<>	n/a	-999	2	[0, 0, 0]	n/a	catFR1	0	R1288P
1112.699	1.658	670952	REC_WORD	21.013	n/a	PEACH	Fruit	1	2	[0, 0, 0]	n/a	catFR1	0	R1288P
1114.357	1.339	672610	REC_WORD	22.671	n/a	FINANCE	n/a	-999	2	[0, 0, 0]	n/a	catFR1	0	R1288P
1115.696	1.715	673949	REC_WORD	24.01	n/a	ALLOY	n/a	-999	2	[0, 0, 0]	n/a	catFR1	0	R1288P
1117.411	1.955	675663	REC_WORD	25.725	n/a	STEEL	n/a	-999	2	[0, 0, 0]	n/a	catFR1	0	R1288P
1119.366	2.12	677618	REC_WORD	27.68	n/a	AMERICAN	n/a	-999	2	[0, 0, 0]	n/a	catFR1	0	R1288P
1121.486	0.212	679738	REC_WORD_VV	29.8	n/a	<>	n/a	-999	2	[0, 0, 0]	n/a	catFR1	0	R1288P
1121.698	19.381	679950	REC_END	n/a	n/a	n/a	n/a	-999	2	[0, 0, 0]	n/a	catFR1	0	R1288P
1141.079	0.0	699330	TRIAL	n/a	n/a	n/a	n/a	-999	3	[0, 0, 0]	n/a	catFR1	0	R1288P
1141.079	10.428	699330	COUNTDOWN_START	n/a	n/a	n/a	n/a	-999	3	[0, 0, 0]	n/a	catFR1	0	R1288P
1151.507	0.007	709758	COUNTDOWN_END	n/a	n/a	n/a	n/a	-999	3	[0, 0, 0]	n/a	catFR1	0	R1288P
1151.514	1.618	709765	ORIENT	n/a	n/a	n/a	n/a	-999	3	[0, 0, 0]	n/a	catFR1	0	R1288P
1153.132	2.016	711383	ORIENT_OFF	n/a	n/a	n/a	n/a	-999	3	[0, 0, 0]	n/a	catFR1	0	R1288P
1155.148	1.616	713399	WORD	n/a	wordpools/wordpool_categorized_EN.txt	WRENCH	Tools	1	3	[0, 0, 0]	n/a	catFR1	0	R1288P
1156.764	0.951	715015	WORD_OFF	n/a	n/a	WRENCH	n/a	1	3	[0, 0, 0]	n/a	catFR1	0	R1288P
1157.715	1.618	715966	WORD	n/a	wordpools/wordpool_categorized_EN.txt	CROWBAR	Tools	2	3	[0, 0, 0]	n/a	catFR1	0	R1288P
1159.333	0.783	717584	WORD_OFF	n/a	n/a	CROWBAR	n/a	2	3	[0, 0, 0]	n/a	catFR1	0	R1288P
1160.116	1.616	718367	WORD	n/a	wordpools/wordpool_categorized_EN.txt	KNIFE	KitchenTools	3	3	[0, 0, 0]	n/a	catFR1	0	R1288P
1161.732	0.884	719983	WORD_OFF	n/a	n/a	KNIFE	n/a	3	3	[0, 0, 0]	n/a	catFR1	0	R1288P
1162.616	1.618	720867	WORD	n/a	wordpools/wordpool_categorized_EN.txt	FORK	KitchenTools	4	3	[0, 0, 0]	n/a	catFR1	0	R1288P
1164.234	0.816	722485	WORD_OFF	n/a	n/a	FORK	n/a	4	3	[0, 0, 0]	n/a	catFR1	0	R1288P
1165.05	1.616	723300	WORD	n/a	wordpools/wordpool_categorized_EN.txt	DOLPHIN	OceanAnimals	5	3	[0, 0, 0]	n/a	catFR1	0	R1288P
1166.666	0.801	724916	WORD_OFF	n/a	n/a	DOLPHIN	n/a	5	3	[0, 0, 0]	n/a	catFR1	0	R1288P
1167.467	1.618	725717	WORD	n/a	wordpools/wordpool_categorized_EN.txt	LOBSTER	OceanAnimals	6	3	[0, 0, 0]	n/a	catFR1	0	R1288P
1169.085	0.916	727335	WORD_OFF	n/a	n/a	LOBSTER	n/a	6	3	[0, 0, 0]	n/a	catFR1	0	R1288P
1170.001	1.616	728251	WORD	n/a	wordpools/wordpool_categorized_EN.txt	DRILL	Tools	7	3	[0, 0, 0]	n/a	catFR1	0	R1288P
1171.617	0.885	729867	WORD_OFF	n/a	n/a	DRILL	n/a	7	3	[0, 0, 0]	n/a	catFR1	0	R1288P
1172.502	1.617	730752	WORD	n/a	wordpools/wordpool_categorized_EN.txt	SANDER	Tools	8	3	[0, 0, 0]	n/a	catFR1	0	R1288P
1174.119	0.983	732369	WORD_OFF	n/a	n/a	SANDER	n/a	8	3	[0, 0, 0]	n/a	catFR1	0	R1288P
1175.102	1.616	733352	WORD	n/a	wordpools/wordpool_categorized_EN.txt	LADLE	KitchenTools	9	3	[0, 0, 0]	n/a	catFR1	0	R1288P
1176.718	0.834	734968	WORD_OFF	n/a	n/a	LADLE	n/a	9	3	[0, 0, 0]	n/a	catFR1	0	R1288P
1177.552	1.618	735802	WORD	n/a	wordpools/wordpool_categorized_EN.txt	PEELER	KitchenTools	10	3	[0, 0, 0]	n/a	catFR1	0	R1288P
1179.17	0.883	737420	WORD_OFF	n/a	n/a	PEELER	n/a	10	3	[0, 0, 0]	n/a	catFR1	0	R1288P
1180.053	1.616	738303	WORD	n/a	wordpools/wordpool_categorized_EN.txt	OCTOPUS	OceanAnimals	11	3	[0, 0, 0]	n/a	catFR1	0	R1288P
1181.669	0.967	739919	WORD_OFF	n/a	n/a	OCTOPUS	n/a	11	3	[0, 0, 0]	n/a	catFR1	0	R1288P
1182.636	1.601	740886	WORD	n/a	wordpools/wordpool_categorized_EN.txt	WHALE	OceanAnimals	12	3	[0, 0, 0]	n/a	catFR1	0	R1288P
1184.237	0.0	742487	ENCODING_END	n/a	n/a	n/a	n/a	-999	3	[0, 0, 0]	n/a	catFR1	0	R1288P
1184.237	0.077	742487	WORD_OFF	n/a	n/a	WHALE	n/a	12	3	[0, 0, 0]	n/a	catFR1	0	R1288P
1184.314	0.0	742564	DISTRACT_START	n/a	n/a	n/a	n/a	-999	3	[0, 0, 0]	n/a	catFR1	0	R1288P
1184.314	0.023	742564	START	n/a	n/a	n/a	n/a	-999	3	[-999, -999, -999]	n/a	catFR1	0	R1288P
1184.337	8.935	742587	PROB	8.899	n/a	n/a	n/a	-999	3	[8, 2, 6]	16.0	catFR1	0	R1288P
1193.272	7.601	751521	PROB	7.575	n/a	n/a	n/a	-999	3	[8, 9, 5]	22.0	catFR1	0	R1288P
1200.873	8.191	759122	PROB	8.191	n/a	n/a	n/a	-999	3	[4, 6, 4]	14.0	catFR1	0	R1288P
1209.064	0.011	767313	STOP	n/a	n/a	n/a	n/a	-999	3	[-999, -999, -999]	n/a	catFR1	0	R1288P
1209.075	0.549	767324	DISTRACT_END	n/a	n/a	n/a	n/a	-999	3	[0, 0, 0]	n/a	catFR1	0	R1288P
1209.624	0.519	767873	RETRIEVAL_ORIENT	n/a	n/a	n/a	n/a	-999	3	[0, 0, 0]	n/a	catFR1	0	R1288P
1210.143	10.075	768392	REC_START	n/a	n/a	n/a	n/a	-999	3	[0, 0, 0]	n/a	catFR1	0	R1288P
1220.218	0.812	778466	REC_WORD_VV	10.075	n/a	<>	n/a	-999	3	[0, 0, 0]	n/a	catFR1	0	R1288P
1221.03	1.841	779278	REC_WORD	10.887	n/a	WRENCH	Tools	1	3	[0, 0, 0]	n/a	catFR1	0	R1288P
1222.871	1.421	781119	REC_WORD	12.728	n/a	FINGERS	n/a	-999	3	[0, 0, 0]	n/a	catFR1	0	R1288P
1224.292	3.725	782540	REC_WORD	14.149	n/a	LOBSTER	OceanAnimals	6	3	[0, 0, 0]	n/a	catFR1	0	R1288P
1228.017	7.923	786265	REC_WORD	17.874	n/a	KNIFE	KitchenTools	3	3	[0, 0, 0]	n/a	catFR1	0	R1288P
1235.94	4.214	794187	REC_WORD	25.797	n/a	CEASAR	n/a	-999	3	[0, 0, 0]	n/a	catFR1	0	R1288P
1240.154	3.228	798401	REC_END	n/a	n/a	n/a	n/a	-999	3	[0, 0, 0]	n/a	catFR1	0	R1288P
1243.382	0.0	801629	TRIAL	n/a	n/a	n/a	n/a	-999	4	[0, 0, 0]	n/a	catFR1	0	R1288P
1243.382	10.428	801629	COUNTDOWN_START	n/a	n/a	n/a	n/a	-999	4	[0, 0, 0]	n/a	catFR1	0	R1288P
1253.81	0.006	812057	COUNTDOWN_END	n/a	n/a	n/a	n/a	-999	4	[0, 0, 0]	n/a	catFR1	0	R1288P
1253.816	1.601	812063	ORIENT	n/a	n/a	n/a	n/a	-999	4	[0, 0, 0]	n/a	catFR1	0	R1288P
1255.417	1.984	813664	ORIENT_OFF	n/a	n/a	n/a	n/a	-999	4	[0, 0, 0]	n/a	catFR1	0	R1288P
1257.401	1.617	815648	WORD	n/a	wordpools/wordpool_categorized_EN.txt	BASS	Instruments	1	4	[0, 0, 0]	n/a	catFR1	0	R1288P
1259.018	0.833	817265	WORD_OFF	n/a	n/a	BASS	n/a	1	4	[0, 0, 0]	n/a	catFR1	0	R1288P
1259.851	1.618	818097	WORD	n/a	wordpools/wordpool_categorized_EN.txt	ORGAN	Instruments	2	4	[0, 0, 0]	n/a	catFR1	0	R1288P
1261.469	0.966	819715	WORD_OFF	n/a	n/a	ORGAN	n/a	2	4	[0, 0, 0]	n/a	catFR1	0	R1288P
1262.435	1.617	820681	WORD	n/a	wordpools/wordpool_categorized_EN.txt	PRINTER	Electronics	3	4	[0, 0, 0]	n/a	catFR1	0	R1288P
1264.052	0.816	822298	WORD_OFF	n/a	n/a	PRINTER	n/a	3	4	[0, 0, 0]	n/a	catFR1	0	R1288P
1264.868	1.618	823114	WORD	n/a	wordpools/wordpool_categorized_EN.txt	COMPUTER	Electronics	4	4	[0, 0, 0]	n/a	catFR1	0	R1288P
1266.486	0.85	824732	WORD_OFF	n/a	n/a	COMPUTER	n/a	4	4	[0, 0, 0]	n/a	catFR1	0	R1288P
1267.336	1.616	825582	WORD	n/a	wordpools/wordpool_categorized_EN.txt	FOG	Weather	5	4	[0, 0, 0]	n/a	catFR1	0	R1288P
1268.952	0.884	827198	WORD_OFF	n/a	n/a	FOG	n/a	5	4	[0, 0, 0]	n/a	catFR1	0	R1288P
1269.836	1.618	828082	WORD	n/a	wordpools/wordpool_categorized_EN.txt	HUMIDITY	Weather	6	4	[0, 0, 0]	n/a	catFR1	0	R1288P
1271.454	0.85	829700	WORD_OFF	n/a	n/a	HUMIDITY	n/a	6	4	[0, 0, 0]	n/a	catFR1	0	R1288P
1272.304	1.616	830550	WORD	n/a	wordpools/wordpool_categorized_EN.txt	TROMBONE	Instruments	7	4	[0, 0, 0]	n/a	catFR1	0	R1288P
1273.92	0.767	832166	WORD_OFF	n/a	n/a	TROMBONE	n/a	7	4	[0, 0, 0]	n/a	catFR1	0	R1288P
1274.687	1.618	832933	WORD	n/a	wordpools/wordpool_categorized_EN.txt	DRUM	Instruments	8	4	[0, 0, 0]	n/a	catFR1	0	R1288P
1276.305	1.0	834551	WORD_OFF	n/a	n/a	DRUM	n/a	8	4	[0, 0, 0]	n/a	catFR1	0	R1288P
1277.305	1.616	835551	WORD	n/a	wordpools/wordpool_categorized_EN.txt	PHONE	Electronics	9	4	[0, 0, 0]	n/a	catFR1	0	R1288P
1278.921	0.867	837167	WORD_OFF	n/a	n/a	PHONE	n/a	9	4	[0, 0, 0]	n/a	catFR1	0	R1288P
1279.788	1.601	838034	WORD	n/a	wordpools/wordpool_categorized_EN.txt	STEREO	Electronics	10	4	[0, 0, 0]	n/a	catFR1	0	R1288P
1281.389	0.933	839635	WORD_OFF	n/a	n/a	STEREO	n/a	10	4	[0, 0, 0]	n/a	catFR1	0	R1288P
1282.322	1.616	840568	WORD	n/a	wordpools/wordpool_categorized_EN.txt	TORNADO	Weather	11	4	[0, 0, 0]	n/a	catFR1	0	R1288P
1283.938	0.884	842183	WORD_OFF	n/a	n/a	TORNADO	n/a	11	4	[0, 0, 0]	n/a	catFR1	0	R1288P
1284.822	1.618	843067	WORD	n/a	wordpools/wordpool_categorized_EN.txt	CLOUD	Weather	12	4	[0, 0, 0]	n/a	catFR1	0	R1288P
1286.44	0.0	844685	ENCODING_END	n/a	n/a	n/a	n/a	-999	4	[0, 0, 0]	n/a	catFR1	0	R1288P
1286.44	0.077	844685	WORD_OFF	n/a	n/a	CLOUD	n/a	12	4	[0, 0, 0]	n/a	catFR1	0	R1288P
1286.517	0.0	844762	DISTRACT_START	n/a	n/a	n/a	n/a	-999	4	[0, 0, 0]	n/a	catFR1	0	R1288P
1286.517	0.023	844762	START	n/a	n/a	n/a	n/a	-999	4	[-999, -999, -999]	n/a	catFR1	0	R1288P
1286.54	7.901	844785	PROB	7.872	n/a	n/a	n/a	-999	4	[4, 1, 7]	12.0	catFR1	0	R1288P
1294.441	4.918	852686	PROB	4.89	n/a	n/a	n/a	-999	4	[7, 2, 2]	11.0	catFR1	0	R1288P
1299.359	5.35	857604	PROB	5.316	n/a	n/a	n/a	-999	4	[5, 4, 6]	15.0	catFR1	0	R1288P
1304.709	5.125	862954	PROB	5.125	n/a	n/a	n/a	-999	4	[6, 4, 3]	13.0	catFR1	0	R1288P
1309.834	0.01	868078	STOP	n/a	n/a	n/a	n/a	-999	4	[-999, -999, -999]	n/a	catFR1	0	R1288P
1309.844	0.65	868088	DISTRACT_END	n/a	n/a	n/a	n/a	-999	4	[0, 0, 0]	n/a	catFR1	0	R1288P
1310.494	0.518	868738	RETRIEVAL_ORIENT	n/a	n/a	n/a	n/a	-999	4	[0, 0, 0]	n/a	catFR1	0	R1288P
1311.012	2.137	869256	REC_START	n/a	n/a	n/a	n/a	-999	4	[0, 0, 0]	n/a	catFR1	0	R1288P
1313.149	1.924	871393	REC_WORD	2.137	n/a	WHALE	n/a	-999	4	[0, 0, 0]	n/a	catFR1	0	R1288P
1315.073	5.975	873317	REC_WORD	4.061	n/a	LICENCE	n/a	-999	4	[0, 0, 0]	n/a	catFR1	0	R1288P
1321.048	1.364	879292	REC_WORD	10.036	n/a	BASS	Instruments	1	4	[0, 0, 0]	n/a	catFR1	0	R1288P
1322.412	5.935	880656	REC_WORD	11.4	n/a	GUITAR	n/a	-999	4	[0, 0, 0]	n/a	catFR1	0	R1288P
1328.347	0.964	886591	REC_WORD_VV	17.335	n/a	<>	n/a	-999	4	[0, 0, 0]	n/a	catFR1	0	R1288P
1329.311	1.0	887555	REC_WORD_VV	18.299	n/a	<>	n/a	-999	4	[0, 0, 0]	n/a	catFR1	0	R1288P
1330.311	1.347	888555	REC_WORD_VV	19.299	n/a	<>	n/a	-999	4	[0, 0, 0]	n/a	catFR1	0	R1288P
1331.658	1.635	889901	REC_WORD_VV	20.646	n/a	<>	n/a	-999	4	[0, 0, 0]	n/a	catFR1	0	R1288P
1333.293	2.295	891536	REC_WORD	22.281	n/a	PHOTO	n/a	-999	4	[0, 0, 0]	n/a	catFR1	0	R1288P
1335.588	3.616	893831	REC_WORD	24.576	n/a	PICTURE	n/a	-999	4	[0, 0, 0]	n/a	catFR1	0	R1288P
1339.204	1.818	897447	REC_WORD	28.192	n/a	FINGERS	n/a	-999	4	[0, 0, 0]	n/a	catFR1	0	R1288P
1341.022	3.446	899265	REC_END	n/a	n/a	n/a	n/a	-999	4	[0, 0, 0]	n/a	catFR1	0	R1288P
1344.468	0.0	902711	TRIAL	n/a	n/a	n/a	n/a	-999	5	[0, 0, 0]	n/a	catFR1	0	R1288P
1344.468	10.428	902711	COUNTDOWN_START	n/a	n/a	n/a	n/a	-999	5	[0, 0, 0]	n/a	catFR1	0	R1288P
1354.896	0.006	913138	COUNTDOWN_END	n/a	n/a	n/a	n/a	-999	5	[0, 0, 0]	n/a	catFR1	0	R1288P
1354.902	1.618	913144	ORIENT	n/a	n/a	n/a	n/a	-999	5	[0, 0, 0]	n/a	catFR1	0	R1288P
1356.52	1.9	914762	ORIENT_OFF	n/a	n/a	n/a	n/a	-999	5	[0, 0, 0]	n/a	catFR1	0	R1288P
1358.42	1.617	916662	WORD	n/a	wordpools/wordpool_categorized_EN.txt	HORSE	FarmAnimals	1	5	[0, 0, 0]	n/a	catFR1	0	R1288P
1360.037	0.883	918279	WORD_OFF	n/a	n/a	HORSE	n/a	1	5	[0, 0, 0]	n/a	catFR1	0	R1288P
1360.92	1.618	919162	WORD	n/a	wordpools/wordpool_categorized_EN.txt	ROOSTER	FarmAnimals	2	5	[0, 0, 0]	n/a	catFR1	0	R1288P
1362.538	1.015	920780	WORD_OFF	n/a	n/a	ROOSTER	n/a	2	5	[0, 0, 0]	n/a	catFR1	0	R1288P
1363.553	1.618	921795	WORD	n/a	wordpools/wordpool_categorized_EN.txt	AXE	Tools	3	5	[0, 0, 0]	n/a	catFR1	0	R1288P
1365.171	0.884	923413	WORD_OFF	n/a	n/a	AXE	n/a	3	5	[0, 0, 0]	n/a	catFR1	0	R1288P
1366.055	1.616	924297	WORD	n/a	wordpools/wordpool_categorized_EN.txt	SHOVEL	Tools	4	5	[0, 0, 0]	n/a	catFR1	0	R1288P
1367.671	0.9	925913	WORD_OFF	n/a	n/a	SHOVEL	n/a	4	5	[0, 0, 0]	n/a	catFR1	0	R1288P
1368.571	1.618	926813	WORD	n/a	wordpools/wordpool_categorized_EN.txt	CALCULATOR	Electronics	5	5	[0, 0, 0]	n/a	catFR1	0	R1288P
1370.189	0.9	928431	WORD_OFF	n/a	n/a	CALCULATOR	n/a	5	5	[0, 0, 0]	n/a	catFR1	0	R1288P
1371.089	1.616	929331	WORD	n/a	wordpools/wordpool_categorized_EN.txt	MICROWAVE	Electronics	6	5	[0, 0, 0]	n/a	catFR1	0	R1288P
1372.705	1.0	930947	WORD_OFF	n/a	n/a	MICROWAVE	n/a	6	5	[0, 0, 0]	n/a	catFR1	0	R1288P
1373.705	1.602	931947	WORD	n/a	wordpools/wordpool_categorized_EN.txt	TURKEY	FarmAnimals	7	5	[0, 0, 0]	n/a	catFR1	0	R1288P
1375.307	0.983	933549	WORD_OFF	n/a	n/a	TURKEY	n/a	7	5	[0, 0, 0]	n/a	catFR1	0	R1288P
1376.29	1.616	934532	WORD	n/a	wordpools/wordpool_categorized_EN.txt	CHICKEN	FarmAnimals	8	5	[0, 0, 0]	n/a	catFR1	0	R1288P
1377.906	0.934	936147	WORD_OFF	n/a	n/a	CHICKEN	n/a	8	5	[0, 0, 0]	n/a	catFR1	0	R1288P
1378.84	1.618	937081	WORD	n/a	wordpools/wordpool_categorized_EN.txt	HAMMER	Tools	9	5	[0, 0, 0]	n/a	catFR1	0	R1288P
1380.458	0.8	938699	WORD_OFF	n/a	n/a	HAMMER	n/a	9	5	[0, 0, 0]	n/a	catFR1	0	R1288P
1381.258	1.616	939499	WORD	n/a	wordpools/wordpool_categorized_EN.txt	SAW	Tools	10	5	[0, 0, 0]	n/a	catFR1	0	R1288P
1382.874	0.967	941115	WORD_OFF	n/a	n/a	SAW	n/a	10	5	[0, 0, 0]	n/a	catFR1	0	R1288P
1383.841	1.618	942082	WORD	n/a	wordpools/wordpool_categorized_EN.txt	TELEVISION	Electronics	11	5	[0, 0, 0]	n/a	catFR1	0	R1288P
1385.459	1.0	943700	WORD_OFF	n/a	n/a	TELEVISION	n/a	11	5	[0, 0, 0]	n/a	catFR1	0	R1288P
1386.459	1.617	944700	WORD	n/a	wordpools/wordpool_categorized_EN.txt	TABLET	Electronics	12	5	[0, 0, 0]	n/a	catFR1	0	R1288P
1388.076	0.0	946317	WORD_OFF	n/a	n/a	TABLET	n/a	12	5	[0, 0, 0]	n/a	catFR1	0	R1288P
1388.076	0.1	946317	ENCODING_END	n/a	n/a	n/a	n/a	-999	5	[0, 0, 0]	n/a	catFR1	0	R1288P
1388.176	0.001	946417	DISTRACT_START	n/a	n/a	n/a	n/a	-999	5	[0, 0, 0]	n/a	catFR1	0	R1288P
1388.177	0.015	946418	START	n/a	n/a	n/a	n/a	-999	5	[-999, -999, -999]	n/a	catFR1	0	R1288P
1388.192	7.035	946433	PROB	7.002	n/a	n/a	n/a	-999	5	[4, 2, 7]	13.0	catFR1	0	R1288P
1395.227	5.284	953468	PROB	5.248	n/a	n/a	n/a	-999	5	[4, 2, 4]	10.0	catFR1	0	R1288P
1400.511	4.317	958752	PROB	4.283	n/a	n/a	n/a	-999	5	[4, 2, 6]	12.0	catFR1	0	R1288P
1404.828	4.733	963068	PROB	4.733	n/a	n/a	n/a	-999	5	[2, 5, 8]	15.0	catFR1	0	R1288P
1409.561	0.018	967801	STOP	n/a	n/a	n/a	n/a	-999	5	[-999, -999, -999]	n/a	catFR1	0	R1288P
1409.579	0.634	967819	DISTRACT_END	n/a	n/a	n/a	n/a	-999	5	[0, 0, 0]	n/a	catFR1	0	R1288P
1410.213	0.518	968453	RETRIEVAL_ORIENT	n/a	n/a	n/a	n/a	-999	5	[0, 0, 0]	n/a	catFR1	0	R1288P
1410.731	7.879	968971	REC_START	n/a	n/a	n/a	n/a	-999	5	[0, 0, 0]	n/a	catFR1	0	R1288P
1418.61	0.946	976850	REC_WORD_VV	7.879	n/a	<>	n/a	-999	5	[0, 0, 0]	n/a	catFR1	0	R1288P
1419.556	1.118	977796	REC_WORD	8.825	n/a	HORN	n/a	-999	5	[0, 0, 0]	n/a	catFR1	0	R1288P
1420.674	1.35	978914	REC_WORD	9.943	n/a	FINGERS	n/a	-999	5	[0, 0, 0]	n/a	catFR1	0	R1288P
1422.024	2.671	980264	REC_WORD	11.293	n/a	FRENCH	n/a	-999	5	[0, 0, 0]	n/a	catFR1	0	R1288P
1424.695	2.115	982935	REC_WORD	13.964	n/a	CAR	n/a	-999	5	[0, 0, 0]	n/a	catFR1	0	R1288P
1426.81	3.187	985049	REC_WORD	16.079	n/a	DRILL	n/a	-999	5	[0, 0, 0]	n/a	catFR1	0	R1288P
1429.997	3.763	988236	REC_WORD	19.266	n/a	SAW	Tools	10	5	[0, 0, 0]	n/a	catFR1	0	R1288P
1433.76	6.526	991999	REC_WORD	23.029	n/a	PLATE	n/a	-999	5	[0, 0, 0]	n/a	catFR1	0	R1288P
1440.286	0.455	998525	REC_WORD_VV	29.555	n/a	<>	n/a	-999	5	[0, 0, 0]	n/a	catFR1	0	R1288P
1440.741	4.078	998980	REC_END	n/a	n/a	n/a	n/a	-999	5	[0, 0, 0]	n/a	catFR1	0	R1288P
1444.819	0.0	1003058	TRIAL	n/a	n/a	n/a	n/a	-999	6	[0, 0, 0]	n/a	catFR1	0	R1288P
1444.819	10.428	1003058	COUNTDOWN_START	n/a	n/a	n/a	n/a	-999	6	[0, 0, 0]	n/a	catFR1	0	R1288P
1455.247	0.008	1013485	COUNTDOWN_END	n/a	n/a	n/a	n/a	-999	6	[0, 0, 0]	n/a	catFR1	0	R1288P
1455.255	1.616	1013493	ORIENT	n/a	n/a	n/a	n/a	-999	6	[0, 0, 0]	n/a	catFR1	0	R1288P
1456.871	2.085	1015109	ORIENT_OFF	n/a	n/a	n/a	n/a	-999	6	[0, 0, 0]	n/a	catFR1	0	R1288P
1458.956	1.616	1017194	WORD	n/a	wordpools/wordpool_categorized_EN.txt	RECLINER	Furniture	1	6	[0, 0, 0]	n/a	catFR1	0	R1288P
1460.572	1.0	1018810	WORD_OFF	n/a	n/a	RECLINER	n/a	1	6	[0, 0, 0]	n/a	catFR1	0	R1288P
1461.572	1.618	1019810	WORD	n/a	wordpools/wordpool_categorized_EN.txt	SOFA	Furniture	2	6	[0, 0, 0]	n/a	catFR1	0	R1288P
1463.19	0.783	1021428	WORD_OFF	n/a	n/a	SOFA	n/a	2	6	[0, 0, 0]	n/a	catFR1	0	R1288P
1463.973	1.616	1022211	WORD	n/a	wordpools/wordpool_categorized_EN.txt	PUZZLE	Toys	3	6	[0, 0, 0]	n/a	catFR1	0	R1288P
1465.589	0.785	1023827	WORD_OFF	n/a	n/a	PUZZLE	n/a	3	6	[0, 0, 0]	n/a	catFR1	0	R1288P
1466.374	1.617	1024612	WORD	n/a	wordpools/wordpool_categorized_EN.txt	SLINKY	Toys	4	6	[0, 0, 0]	n/a	catFR1	0	R1288P
1467.991	0.816	1026229	WORD_OFF	n/a	n/a	SLINKY	n/a	4	6	[0, 0, 0]	n/a	catFR1	0	R1288P
1468.807	1.618	1027045	WORD	n/a	wordpools/wordpool_categorized_EN.txt	GOAT	FarmAnimals	5	6	[0, 0, 0]	n/a	catFR1	0	R1288P
1470.425	0.966	1028663	WORD_OFF	n/a	n/a	GOAT	n/a	5	6	[0, 0, 0]	n/a	catFR1	0	R1288P
1471.391	1.617	1029629	WORD	n/a	wordpools/wordpool_categorized_EN.txt	COW	FarmAnimals	6	6	[0, 0, 0]	n/a	catFR1	0	R1288P
1473.008	1.001	1031245	WORD_OFF	n/a	n/a	COW	n/a	6	6	[0, 0, 0]	n/a	catFR1	0	R1288P
1474.009	1.616	1032246	WORD	n/a	wordpools/wordpool_categorized_EN.txt	MARBLES	Toys	7	6	[0, 0, 0]	n/a	catFR1	0	R1288P
1475.625	0.817	1033862	WORD_OFF	n/a	n/a	MARBLES	n/a	7	6	[0, 0, 0]	n/a	catFR1	0	R1288P
1476.442	1.617	1034679	WORD	n/a	wordpools/wordpool_categorized_EN.txt	BASKETBALL	Toys	8	6	[0, 0, 0]	n/a	catFR1	0	R1288P
1478.059	0.85	1036296	WORD_OFF	n/a	n/a	BASKETBALL	n/a	8	6	[0, 0, 0]	n/a	catFR1	0	R1288P
1478.909	1.617	1037146	WORD	n/a	wordpools/wordpool_categorized_EN.txt	TABLE	Furniture	9	6	[0, 0, 0]	n/a	catFR1	0	R1288P
1480.526	0.867	1038763	WORD_OFF	n/a	n/a	TABLE	n/a	9	6	[0, 0, 0]	n/a	catFR1	0	R1288P
1481.393	1.617	1039630	WORD	n/a	wordpools/wordpool_categorized_EN.txt	DRESSER	Furniture	10	6	[0, 0, 0]	n/a	catFR1	0	R1288P
1483.01	0.95	1041247	WORD_OFF	n/a	n/a	DRESSER	n/a	10	6	[0, 0, 0]	n/a	catFR1	0	R1288P
1483.96	1.616	1042197	WORD	n/a	wordpools/wordpool_categorized_EN.txt	CALF	FarmAnimals	11	6	[0, 0, 0]	n/a	catFR1	0	R1288P
1485.576	0.818	1043813	WORD_OFF	n/a	n/a	CALF	n/a	11	6	[0, 0, 0]	n/a	catFR1	0	R1288P
1486.394	1.617	1044631	WORD	n/a	wordpools/wordpool_categorized_EN.txt	PIG	FarmAnimals	12	6	[0, 0, 0]	n/a	catFR1	0	R1288P
1488.011	0.0	1046248	ENCODING_END	n/a	n/a	n/a	n/a	-999	6	[0, 0, 0]	n/a	catFR1	0	R1288P
1488.011	0.076	1046248	WORD_OFF	n/a	n/a	PIG	n/a	12	6	[0, 0, 0]	n/a	catFR1	0	R1288P
1488.087	0.001	1046324	DISTRACT_START	n/a	n/a	n/a	n/a	-999	6	[0, 0, 0]	n/a	catFR1	0	R1288P
1488.088	0.006	1046325	START	n/a	n/a	n/a	n/a	-999	6	[-999, -999, -999]	n/a	catFR1	0	R1288P
1488.094	76.045	1046331	PROB	76.045	n/a	n/a	n/a	-999	6	[7, 8, 6]	21.0	catFR1	0	R1288P
1564.139	0.02	1122373	STOP	n/a	n/a	n/a	n/a	-999	6	[-999, -999, -999]	n/a	catFR1	0	R1288P
1564.159	0.516	1122393	DISTRACT_END	n/a	n/a	n/a	n/a	-999	6	[0, 0, 0]	n/a	catFR1	0	R1288P
1564.675	0.501	1122909	RETRIEVAL_ORIENT	n/a	n/a	n/a	n/a	-999	6	[0, 0, 0]	n/a	catFR1	0	R1288P
1565.176	0.204	1123410	REC_START	n/a	n/a	n/a	n/a	-999	6	[0, 0, 0]	n/a	catFR1	0	R1288P
1565.38	8.177	1123614	REC_WORD_VV	0.204	n/a	<>	n/a	-999	6	[0, 0, 0]	n/a	catFR1	0	R1288P
1573.557	1.078	1131790	REC_WORD	8.381	n/a	PUBLIC	n/a	-999	6	[0, 0, 0]	n/a	catFR1	0	R1288P
1574.635	2.786	1132868	REC_WORD	9.459	n/a	SAND	n/a	-999	6	[0, 0, 0]	n/a	catFR1	0	R1288P
1577.421	3.759	1135654	REC_WORD	12.245	n/a	DONOR	n/a	-999	6	[0, 0, 0]	n/a	catFR1	0	R1288P
1581.18	1.224	1139413	REC_WORD	16.004	n/a	QUICK	n/a	-999	6	[0, 0, 0]	n/a	catFR1	0	R1288P
1582.404	5.174	1140637	REC_WORD	17.228	n/a	GOVERNER	n/a	-999	6	[0, 0, 0]	n/a	catFR1	0	R1288P
1587.578	1.873	1145811	REC_WORD	22.402	n/a	JINGLES	n/a	-999	6	[0, 0, 0]	n/a	catFR1	0	R1288P
1589.451	2.052	1147684	REC_WORD	24.275	n/a	BELL	n/a	-999	6	[0, 0, 0]	n/a	catFR1	0	R1288P
1591.503	3.685	1149735	REC_WORD	26.327	n/a	HOLIDAY	n/a	-999	6	[0, 0, 0]	n/a	catFR1	0	R1288P
1595.188	3.227	1153420	REC_END	n/a	n/a	n/a	n/a	-999	6	[0, 0, 0]	n/a	catFR1	0	R1288P
1598.415	0.0	1156647	COUNTDOWN_START	n/a	n/a	n/a	n/a	-999	7	[0, 0, 0]	n/a	catFR1	0	R1288P
1598.415	10.428	1156647	TRIAL	n/a	n/a	n/a	n/a	-999	7	[0, 0, 0]	n/a	catFR1	0	R1288P
1608.843	0.007	1167075	COUNTDOWN_END	n/a	n/a	n/a	n/a	-999	7	[0, 0, 0]	n/a	catFR1	0	R1288P
1608.85	1.618	1167082	ORIENT	n/a	n/a	n/a	n/a	-999	7	[0, 0, 0]	n/a	catFR1	0	R1288P
1610.468	1.783	1168700	ORIENT_OFF	n/a	n/a	n/a	n/a	-999	7	[0, 0, 0]	n/a	catFR1	0	R1288P
1612.251	1.616	1170483	WORD	n/a	wordpools/wordpool_categorized_EN.txt	SOCKS	Clothing	1	7	[0, 0, 0]	n/a	catFR1	0	R1288P
1613.867	0.984	1172099	WORD_OFF	n/a	n/a	SOCKS	n/a	1	7	[0, 0, 0]	n/a	catFR1	0	R1288P
1614.851	1.618	1173082	WORD	n/a	wordpools/wordpool_categorized_EN.txt	COAT	Clothing	2	7	[0, 0, 0]	n/a	catFR1	0	R1288P
1616.469	0.9	1174700	WORD_OFF	n/a	n/a	COAT	n/a	2	7	[0, 0, 0]	n/a	catFR1	0	R1288P
1617.369	1.617	1175600	WORD	n/a	wordpools/wordpool_categorized_EN.txt	THUNDERSTORM	Weather	3	7	[0, 0, 0]	n/a	catFR1	0	R1288P
1618.986	0.866	1177217	WORD_OFF	n/a	n/a	THUNDERSTORM	n/a	3	7	[0, 0, 0]	n/a	catFR1	0	R1288P
1619.852	1.618	1178083	WORD	n/a	wordpools/wordpool_categorized_EN.txt	RAIN	Weather	4	7	[0, 0, 0]	n/a	catFR1	0	R1288P
1621.47	0.9	1179701	WORD_OFF	n/a	n/a	RAIN	n/a	4	7	[0, 0, 0]	n/a	catFR1	0	R1288P
1622.37	1.617	1180601	WORD	n/a	wordpools/wordpool_categorized_EN.txt	ONION	Vegetables	5	7	[0, 0, 0]	n/a	catFR1	0	R1288P
1623.987	0.949	1182218	WORD_OFF	n/a	n/a	ONION	n/a	5	7	[0, 0, 0]	n/a	catFR1	0	R1288P
1624.936	1.617	1183167	WORD	n/a	wordpools/wordpool_categorized_EN.txt	CELERY	Vegetables	6	7	[0, 0, 0]	n/a	catFR1	0	R1288P
1626.553	0.801	1184784	WORD_OFF	n/a	n/a	CELERY	n/a	6	7	[0, 0, 0]	n/a	catFR1	0	R1288P
1627.354	1.617	1185585	WORD	n/a	wordpools/wordpool_categorized_EN.txt	SNOW	Weather	7	7	[0, 0, 0]	n/a	catFR1	0	R1288P
1628.971	0.783	1187202	WORD_OFF	n/a	n/a	SNOW	n/a	7	7	[0, 0, 0]	n/a	catFR1	0	R1288P
1629.754	1.618	1187985	WORD	n/a	wordpools/wordpool_categorized_EN.txt	DRIZZLE	Weather	8	7	[0, 0, 0]	n/a	catFR1	0	R1288P
1631.372	0.916	1189603	WORD_OFF	n/a	n/a	DRIZZLE	n/a	8	7	[0, 0, 0]	n/a	catFR1	0	R1288P
1632.288	1.616	1190519	WORD	n/a	wordpools/wordpool_categorized_EN.txt	SKIRT	Clothing	9	7	[0, 0, 0]	n/a	catFR1	0	R1288P
1633.904	0.867	1192135	WORD_OFF	n/a	n/a	SKIRT	n/a	9	7	[0, 0, 0]	n/a	catFR1	0	R1288P
1634.771	1.601	1193002	WORD	n/a	wordpools/wordpool_categorized_EN.txt	JACKET	Clothing	10	7	[0, 0, 0]	n/a	catFR1	0	R1288P
1636.372	0.967	1194603	WORD_OFF	n/a	n/a	JACKET	n/a	10	7	[0, 0, 0]	n/a	catFR1	0	R1288P
1637.339	1.617	1195570	WORD	n/a	wordpools/wordpool_categorized_EN.txt	POTATO	Vegetables	11	7	[0, 0, 0]	n/a	catFR1	0	R1288P
1638.956	0.883	1197186	WORD_OFF	n/a	n/a	POTATO	n/a	11	7	[0, 0, 0]	n/a	catFR1	0	R1288P
1639.839	1.618	1198069	WORD	n/a	wordpools/wordpool_categorized_EN.txt	BROCCOLI	Vegetables	12	7	[0, 0, 0]	n/a	catFR1	0	R1288P
1641.457	0.0	1199687	ENCODING_END	n/a	n/a	n/a	n/a	-999	7	[0, 0, 0]	n/a	catFR1	0	R1288P
1641.457	0.075	1199687	WORD_OFF	n/a	n/a	BROCCOLI	n/a	12	7	[0, 0, 0]	n/a	catFR1	0	R1288P
1641.532	0.0	1199762	DISTRACT_START	n/a	n/a	n/a	n/a	-999	7	[0, 0, 0]	n/a	catFR1	0	R1288P
1641.532	0.008	1199762	START	n/a	n/a	n/a	n/a	-999	7	[-999, -999, -999]	n/a	catFR1	0	R1288P
1641.54	5.985	1199770	PROB	5.961	n/a	n/a	n/a	-999	7	[1, 2, 2]	5.0	catFR1	0	R1288P
1647.525	13.301	1205755	PROB	13.264	n/a	n/a	n/a	-999	7	[9, 4, 7]	27.0	catFR1	0	R1288P
1660.826	7.918	1219056	PROB	7.918	n/a	n/a	n/a	-999	7	[8, 1, 6]	14.0	catFR1	0	R1288P
1668.744	0.017	1226973	STOP	n/a	n/a	n/a	n/a	-999	7	[-999, -999, -999]	n/a	catFR1	0	R1288P
1668.761	0.518	1226990	DISTRACT_END	n/a	n/a	n/a	n/a	-999	7	[0, 0, 0]	n/a	catFR1	0	R1288P
1669.279	0.516	1227508	RETRIEVAL_ORIENT	n/a	n/a	n/a	n/a	-999	7	[0, 0, 0]	n/a	catFR1	0	R1288P
1669.795	6.04	1228024	REC_START	n/a	n/a	n/a	n/a	-999	7	[0, 0, 0]	n/a	catFR1	0	R1288P
1675.835	1.895	1234064	REC_WORD	6.04	n/a	CABLE	n/a	-999	7	[0, 0, 0]	n/a	catFR1	0	R1288P
1677.73	1.445	1235959	REC_WORD	7.935	n/a	ROUGH	n/a	-999	7	[0, 0, 0]	n/a	catFR1	0	R1288P
1679.175	1.72	1237404	REC_WORD_VV	9.38	n/a	<>	n/a	-999	7	[0, 0, 0]	n/a	catFR1	0	R1288P
1680.895	9.127	1239124	REC_WORD	11.1	n/a	SINGLE	n/a	-999	7	[0, 0, 0]	n/a	catFR1	0	R1288P
1690.022	3.272	1248250	REC_WORD	20.227	n/a	CUTLER	n/a	-999	7	[0, 0, 0]	n/a	catFR1	0	R1288P
1693.294	1.78	1251522	REC_WORD	23.499	n/a	PANTS	n/a	-999	7	[0, 0, 0]	n/a	catFR1	0	R1288P
1695.074	4.734	1253302	REC_WORD	25.279	n/a	LEG	n/a	-999	7	[0, 0, 0]	n/a	catFR1	0	R1288P
1699.808	2.344	1258036	REC_END	n/a	n/a	n/a	n/a	-999	7	[0, 0, 0]	n/a	catFR1	0	R1288P
1702.152	0.0	1260380	TRIAL	n/a	n/a	n/a	n/a	-999	8	[0, 0, 0]	n/a	catFR1	0	R1288P
1702.152	10.428	1260380	COUNTDOWN_START	n/a	n/a	n/a	n/a	-999	8	[0, 0, 0]	n/a	catFR1	0	R1288P
1712.58	0.006	1270807	COUNTDOWN_END	n/a	n/a	n/a	n/a	-999	8	[0, 0, 0]	n/a	catFR1	0	R1288P
1712.586	1.601	1270813	ORIENT	n/a	n/a	n/a	n/a	-999	8	[0, 0, 0]	n/a	catFR1	0	R1288P
1714.187	2.017	1272414	ORIENT_OFF	n/a	n/a	n/a	n/a	-999	8	[0, 0, 0]	n/a	catFR1	0	R1288P
1716.204	1.616	1274431	WORD	n/a	wordpools/wordpool_categorized_EN.txt	PLANKTON	OceanAnimals	1	8	[0, 0, 0]	n/a	catFR1	0	R1288P
1717.82	0.95	1276047	WORD_OFF	n/a	n/a	PLANKTON	n/a	1	8	[0, 0, 0]	n/a	catFR1	0	R1288P
1718.77	1.601	1276997	WORD	n/a	wordpools/wordpool_categorized_EN.txt	SQUID	OceanAnimals	2	8	[0, 0, 0]	n/a	catFR1	0	R1288P
1720.371	0.784	1278598	WORD_OFF	n/a	n/a	SQUID	n/a	2	8	[0, 0, 0]	n/a	catFR1	0	R1288P
1721.155	1.616	1279382	WORD	n/a	wordpools/wordpool_categorized_EN.txt	LAMB	FarmAnimals	3	8	[0, 0, 0]	n/a	catFR1	0	R1288P
1722.771	0.85	1280998	WORD_OFF	n/a	n/a	LAMB	n/a	3	8	[0, 0, 0]	n/a	catFR1	0	R1288P
1723.621	1.602	1281848	WORD	n/a	wordpools/wordpool_categorized_EN.txt	HEN	FarmAnimals	4	8	[0, 0, 0]	n/a	catFR1	0	R1288P
1725.223	0.833	1283450	WORD_OFF	n/a	n/a	HEN	n/a	4	8	[0, 0, 0]	n/a	catFR1	0	R1288P
1726.056	1.616	1284283	WORD	n/a	wordpools/wordpool_categorized_EN.txt	BLOUSE	Clothing	5	8	[0, 0, 0]	n/a	catFR1	0	R1288P
1727.672	0.917	1285899	WORD_OFF	n/a	n/a	BLOUSE	n/a	5	8	[0, 0, 0]	n/a	catFR1	0	R1288P
1728.589	1.618	1286816	WORD	n/a	wordpools/wordpool_categorized_EN.txt	SHORTS	Clothing	6	8	[0, 0, 0]	n/a	catFR1	0	R1288P
1730.207	1.017	1288434	WORD_OFF	n/a	n/a	SHORTS	n/a	6	8	[0, 0, 0]	n/a	catFR1	0	R1288P
1731.224	1.616	1289451	WORD	n/a	wordpools/wordpool_categorized_EN.txt	JELLYFISH	OceanAnimals	7	8	[0, 0, 0]	n/a	catFR1	0	R1288P
1732.84	0.9	1291067	WORD_OFF	n/a	n/a	JELLYFISH	n/a	7	8	[0, 0, 0]	n/a	catFR1	0	R1288P
1733.74	1.601	1291966	WORD	n/a	wordpools/wordpool_categorized_EN.txt	CRAB	OceanAnimals	8	8	[0, 0, 0]	n/a	catFR1	0	R1288P
1735.341	0.95	1293567	WORD_OFF	n/a	n/a	CRAB	n/a	8	8	[0, 0, 0]	n/a	catFR1	0	R1288P
1736.291	1.616	1294517	WORD	n/a	wordpools/wordpool_categorized_EN.txt	SHEEP	FarmAnimals	9	8	[0, 0, 0]	n/a	catFR1	0	R1288P
1737.907	0.934	1296133	WORD_OFF	n/a	n/a	SHEEP	n/a	9	8	[0, 0, 0]	n/a	catFR1	0	R1288P
1738.841	1.601	1297067	WORD	n/a	wordpools/wordpool_categorized_EN.txt	BULL	FarmAnimals	10	8	[0, 0, 0]	n/a	catFR1	0	R1288P
1740.442	1.0	1298668	WORD_OFF	n/a	n/a	BULL	n/a	10	8	[0, 0, 0]	n/a	catFR1	0	R1288P
1741.442	1.617	1299668	WORD	n/a	wordpools/wordpool_categorized_EN.txt	SHIRT	Clothing	11	8	[0, 0, 0]	n/a	catFR1	0	R1288P
1743.059	0.783	1301285	WORD_OFF	n/a	n/a	SHIRT	n/a	11	8	[0, 0, 0]	n/a	catFR1	0	R1288P
1743.842	1.618	1302068	WORD	n/a	wordpools/wordpool_categorized_EN.txt	PANTS	Clothing	12	8	[0, 0, 0]	n/a	catFR1	0	R1288P
1745.46	0.0	1303686	WORD_OFF	n/a	n/a	PANTS	n/a	12	8	[0, 0, 0]	n/a	catFR1	0	R1288P
1745.46	0.101	1303686	ENCODING_END	n/a	n/a	n/a	n/a	-999	8	[0, 0, 0]	n/a	catFR1	0	R1288P
1745.561	0.0	1303787	DISTRACT_START	n/a	n/a	n/a	n/a	-999	8	[0, 0, 0]	n/a	catFR1	0	R1288P
1745.561	0.015	1303787	START	n/a	n/a	n/a	n/a	-999	8	[-999, -999, -999]	n/a	catFR1	0	R1288P
1745.576	5.984	1303802	PROB	5.953	n/a	n/a	n/a	-999	8	[3, 2, 2]	7.0	catFR1	0	R1288P
1751.56	3.918	1309786	PROB	3.881	n/a	n/a	n/a	-999	8	[1, 4, 2]	7.0	catFR1	0	R1288P
1755.478	6.852	1313704	PROB	6.814	n/a	n/a	n/a	-999	8	[4, 9, 5]	18.0	catFR1	0	R1288P
1762.33	8.213	1320555	PROB	8.213	n/a	n/a	n/a	-999	8	[4, 8, 9]	21.0	catFR1	0	R1288P
1770.543	0.02	1328768	STOP	n/a	n/a	n/a	n/a	-999	8	[-999, -999, -999]	n/a	catFR1	0	R1288P
1770.563	0.618	1328788	DISTRACT_END	n/a	n/a	n/a	n/a	-999	8	[0, 0, 0]	n/a	catFR1	0	R1288P
1771.181	0.518	1329406	RETRIEVAL_ORIENT	n/a	n/a	n/a	n/a	-999	8	[0, 0, 0]	n/a	catFR1	0	R1288P
1771.699	4.708	1329924	REC_START	n/a	n/a	n/a	n/a	-999	8	[0, 0, 0]	n/a	catFR1	0	R1288P
1776.407	1.893	1334632	REC_WORD	4.708	n/a	SKIRT	n/a	-999	8	[0, 0, 0]	n/a	catFR1	0	R1288P
1778.3	0.966	1336525	REC_WORD	6.601	n/a	CUTLER	n/a	-999	8	[0, 0, 0]	n/a	catFR1	0	R1288P
1779.266	1.538	1337491	REC_WORD	7.567	n/a	PANTS	Clothing	12	8	[0, 0, 0]	n/a	catFR1	0	R1288P
1780.804	4.823	1339028	REC_WORD	9.105	n/a	LEG	n/a	-999	8	[0, 0, 0]	n/a	catFR1	0	R1288P
1785.627	1.734	1343851	REC_WORD	13.928	n/a	SHORTS	Clothing	6	8	[0, 0, 0]	n/a	catFR1	0	R1288P
1787.361	7.133	1345585	REC_WORD	15.662	n/a	SLEEVE	n/a	-999	8	[0, 0, 0]	n/a	catFR1	0	R1288P
1794.494	6.436	1352718	REC_WORD	22.795	n/a	SLEEVE	n/a	-999	8	[0, 0, 0]	n/a	catFR1	0	R1288P
1800.93	0.781	1359154	REC_WORD	29.231	n/a	GUEST	n/a	-999	8	[0, 0, 0]	n/a	catFR1	0	R1288P
1801.711	2.743	1359935	REC_END	n/a	n/a	n/a	n/a	-999	8	[0, 0, 0]	n/a	catFR1	0	R1288P
1804.454	0.0	1362677	TRIAL	n/a	n/a	n/a	n/a	-999	9	[0, 0, 0]	n/a	catFR1	0	R1288P
1804.454	10.428	1362677	COUNTDOWN_START	n/a	n/a	n/a	n/a	-999	9	[0, 0, 0]	n/a	catFR1	0	R1288P
1814.882	0.006	1373105	COUNTDOWN_END	n/a	n/a	n/a	n/a	-999	9	[0, 0, 0]	n/a	catFR1	0	R1288P
1814.888	1.618	1373111	ORIENT	n/a	n/a	n/a	n/a	-999	9	[0, 0, 0]	n/a	catFR1	0	R1288P
1816.506	2.167	1374729	ORIENT_OFF	n/a	n/a	n/a	n/a	-999	9	[0, 0, 0]	n/a	catFR1	0	R1288P
1818.673	1.618	1376896	WORD	n/a	wordpools/wordpool_categorized_EN.txt	DRESS	Clothing	1	9	[0, 0, 0]	n/a	catFR1	0	R1288P
1820.291	0.9	1378514	WORD_OFF	n/a	n/a	DRESS	n/a	1	9	[0, 0, 0]	n/a	catFR1	0	R1288P
1821.191	1.616	1379414	WORD	n/a	wordpools/wordpool_categorized_EN.txt	UNDERWEAR	Clothing	2	9	[0, 0, 0]	n/a	catFR1	0	R1288P
1822.807	0.817	1381030	WORD_OFF	n/a	n/a	UNDERWEAR	n/a	2	9	[0, 0, 0]	n/a	catFR1	0	R1288P
1823.624	1.618	1381847	WORD	n/a	wordpools/wordpool_categorized_EN.txt	ROACH	Insects	3	9	[0, 0, 0]	n/a	catFR1	0	R1288P
1825.242	0.983	1383465	WORD_OFF	n/a	n/a	ROACH	n/a	3	9	[0, 0, 0]	n/a	catFR1	0	R1288P
1826.225	1.616	1384448	WORD	n/a	wordpools/wordpool_categorized_EN.txt	LADYBUG	Insects	4	9	[0, 0, 0]	n/a	catFR1	0	R1288P
1827.841	0.767	1386064	WORD_OFF	n/a	n/a	LADYBUG	n/a	4	9	[0, 0, 0]	n/a	catFR1	0	R1288P
1828.608	1.601	1386830	WORD	n/a	wordpools/wordpool_categorized_EN.txt	PEAR	Fruit	5	9	[0, 0, 0]	n/a	catFR1	0	R1288P
1830.209	0.834	1388431	WORD_OFF	n/a	n/a	PEAR	n/a	5	9	[0, 0, 0]	n/a	catFR1	0	R1288P
1831.043	1.616	1389265	WORD	n/a	wordpools/wordpool_categorized_EN.txt	BANANA	Fruit	6	9	[0, 0, 0]	n/a	catFR1	0	R1288P
1832.659	0.767	1390881	WORD_OFF	n/a	n/a	BANANA	n/a	6	9	[0, 0, 0]	n/a	catFR1	0	R1288P
1833.426	1.617	1391648	WORD	n/a	wordpools/wordpool_categorized_EN.txt	JEANS	Clothing	7	9	[0, 0, 0]	n/a	catFR1	0	R1288P
1835.043	0.984	1393265	WORD_OFF	n/a	n/a	JEANS	n/a	7	9	[0, 0, 0]	n/a	catFR1	0	R1288P
1836.027	1.616	1394249	WORD	n/a	wordpools/wordpool_categorized_EN.txt	SHOES	Clothing	8	9	[0, 0, 0]	n/a	catFR1	0	R1288P
1837.643	0.967	1395865	WORD_OFF	n/a	n/a	SHOES	n/a	8	9	[0, 0, 0]	n/a	catFR1	0	R1288P
1838.61	1.618	1396832	WORD	n/a	wordpools/wordpool_categorized_EN.txt	ANT	Insects	9	9	[0, 0, 0]	n/a	catFR1	0	R1288P
1840.228	0.766	1398450	WORD_OFF	n/a	n/a	ANT	n/a	9	9	[0, 0, 0]	n/a	catFR1	0	R1288P
1840.994	1.616	1399216	WORD	n/a	wordpools/wordpool_categorized_EN.txt	BEE	Insects	10	9	[0, 0, 0]	n/a	catFR1	0	R1288P
1842.61	0.818	1400832	WORD_OFF	n/a	n/a	BEE	n/a	10	9	[0, 0, 0]	n/a	catFR1	0	R1288P
1843.428	1.617	1401650	WORD	n/a	wordpools/wordpool_categorized_EN.txt	GRAPE	Fruit	11	9	[0, 0, 0]	n/a	catFR1	0	R1288P
1845.045	0.766	1403267	WORD_OFF	n/a	n/a	GRAPE	n/a	11	9	[0, 0, 0]	n/a	catFR1	0	R1288P
1845.811	1.618	1404033	WORD	n/a	wordpools/wordpool_categorized_EN.txt	STRAWBERRY	Fruit	12	9	[0, 0, 0]	n/a	catFR1	0	R1288P
1847.429	0.0	1405651	ENCODING_END	n/a	n/a	n/a	n/a	-999	9	[0, 0, 0]	n/a	catFR1	0	R1288P
1847.429	0.074	1405651	WORD_OFF	n/a	n/a	STRAWBERRY	n/a	12	9	[0, 0, 0]	n/a	catFR1	0	R1288P
1847.503	0.0	1405725	DISTRACT_START	n/a	n/a	n/a	n/a	-999	9	[0, 0, 0]	n/a	catFR1	0	R1288P
1847.503	0.009	1405725	START	n/a	n/a	n/a	n/a	-999	9	[-999, -999, -999]	n/a	catFR1	0	R1288P
1847.512	8.585	1405734	PROB	8.553	n/a	n/a	n/a	-999	9	[9, 4, 9]	22.0	catFR1	0	R1288P
1856.097	8.118	1414318	PROB	8.092	n/a	n/a	n/a	-999	9	[9, 8, 3]	19.0	catFR1	0	R1288P
1864.215	4.942	1422436	PROB	4.942	n/a	n/a	n/a	-999	9	[1, 9, 8]	18.0	catFR1	0	R1288P
1869.157	0.01	1427378	STOP	n/a	n/a	n/a	n/a	-999	9	[-999, -999, -999]	n/a	catFR1	0	R1288P
1869.167	0.649	1427388	DISTRACT_END	n/a	n/a	n/a	n/a	-999	9	[0, 0, 0]	n/a	catFR1	0	R1288P
1869.816	0.518	1428037	RETRIEVAL_ORIENT	n/a	n/a	n/a	n/a	-999	9	[0, 0, 0]	n/a	catFR1	0	R1288P
1870.334	6.857	1428555	REC_START	n/a	n/a	n/a	n/a	-999	9	[0, 0, 0]	n/a	catFR1	0	R1288P
1877.191	1.21	1435411	REC_WORD	6.857	n/a	PINE	n/a	-999	9	[0, 0, 0]	n/a	catFR1	0	R1288P
1878.401	1.277	1436621	REC_WORD	8.067	n/a	CUTLER	n/a	-999	9	[0, 0, 0]	n/a	catFR1	0	R1288P
1879.678	1.609	1437898	REC_WORD	9.344	n/a	PINE	n/a	-999	9	[0, 0, 0]	n/a	catFR1	0	R1288P
1881.287	3.465	1439507	REC_WORD	10.953	n/a	PINETREE	n/a	-999	9	[0, 0, 0]	n/a	catFR1	0	R1288P
1884.752	3.311	1442972	REC_WORD	14.418	n/a	COLORTREE	n/a	-999	9	[0, 0, 0]	n/a	catFR1	0	R1288P
1888.063	1.33	1446283	REC_WORD	17.729	n/a	PANTS	n/a	-999	9	[0, 0, 0]	n/a	catFR1	0	R1288P
1889.393	0.51	1447613	REC_WORD	19.059	n/a	OAT	n/a	-999	9	[0, 0, 0]	n/a	catFR1	0	R1288P
1889.903	0.406	1448123	REC_WORD_VV	19.569	n/a	<>	n/a	-999	9	[0, 0, 0]	n/a	catFR1	0	R1288P
1890.309	0.953	1448529	REC_WORD	19.975	n/a	ROACH	Insects	3	9	[0, 0, 0]	n/a	catFR1	0	R1288P
1891.262	7.682	1449482	REC_WORD	20.928	n/a	ANT	Insects	9	9	[0, 0, 0]	n/a	catFR1	0	R1288P
1898.944	1.0	1457164	REC_WORD_VV	28.61	n/a	<>	n/a	-999	9	[0, 0, 0]	n/a	catFR1	0	R1288P
1899.944	0.401	1458163	REC_WORD_VV	29.61	n/a	<>	n/a	-999	9	[0, 0, 0]	n/a	catFR1	0	R1288P
1900.345	2.56	1458564	REC_END	n/a	n/a	n/a	n/a	-999	9	[0, 0, 0]	n/a	catFR1	0	R1288P
1902.905	0.0	1461124	TRIAL	n/a	n/a	n/a	n/a	-999	10	[0, 0, 0]	n/a	catFR1	0	R1288P
1902.905	10.428	1461124	COUNTDOWN_START	n/a	n/a	n/a	n/a	-999	10	[0, 0, 0]	n/a	catFR1	0	R1288P
1913.333	0.008	1471552	COUNTDOWN_END	n/a	n/a	n/a	n/a	-999	10	[0, 0, 0]	n/a	catFR1	0	R1288P
1913.341	1.617	1471560	ORIENT	n/a	n/a	n/a	n/a	-999	10	[0, 0, 0]	n/a	catFR1	0	R1288P
1914.958	1.933	1473177	ORIENT_OFF	n/a	n/a	n/a	n/a	-999	10	[0, 0, 0]	n/a	catFR1	0	R1288P
1916.891	1.618	1475110	WORD	n/a	wordpools/wordpool_categorized_EN.txt	TOASTER	Appliances	1	10	[0, 0, 0]	n/a	catFR1	0	R1288P
1918.509	0.934	1476728	WORD_OFF	n/a	n/a	TOASTER	n/a	1	10	[0, 0, 0]	n/a	catFR1	0	R1288P
1919.443	1.617	1477662	WORD	n/a	wordpools/wordpool_categorized_EN.txt	STOVE	Appliances	2	10	[0, 0, 0]	n/a	catFR1	0	R1288P
1921.06	0.765	1479279	WORD_OFF	n/a	n/a	STOVE	n/a	2	10	[0, 0, 0]	n/a	catFR1	0	R1288P
1921.825	1.618	1480044	WORD	n/a	wordpools/wordpool_categorized_EN.txt	MOTORCYCLE	Vehicles	3	10	[0, 0, 0]	n/a	catFR1	0	R1288P
1923.443	0.917	1481661	WORD_OFF	n/a	n/a	MOTORCYCLE	n/a	3	10	[0, 0, 0]	n/a	catFR1	0	R1288P
1924.36	1.617	1482578	WORD	n/a	wordpools/wordpool_categorized_EN.txt	BOAT	Vehicles	4	10	[0, 0, 0]	n/a	catFR1	0	R1288P
1925.977	0.916	1484195	WORD_OFF	n/a	n/a	BOAT	n/a	4	10	[0, 0, 0]	n/a	catFR1	0	R1288P
1926.893	1.618	1485111	WORD	n/a	wordpools/wordpool_categorized_EN.txt	MILK	Beverages	5	10	[0, 0, 0]	n/a	catFR1	0	R1288P
1928.511	0.983	1486729	WORD_OFF	n/a	n/a	MILK	n/a	5	10	[0, 0, 0]	n/a	catFR1	0	R1288P
1929.494	1.617	1487712	WORD	n/a	wordpools/wordpool_categorized_EN.txt	WATER	Beverages	6	10	[0, 0, 0]	n/a	catFR1	0	R1288P
1931.111	0.867	1489329	WORD_OFF	n/a	n/a	WATER	n/a	6	10	[0, 0, 0]	n/a	catFR1	0	R1288P
1931.978	1.616	1490196	WORD	n/a	wordpools/wordpool_categorized_EN.txt	VACUUM	Appliances	7	10	[0, 0, 0]	n/a	catFR1	0	R1288P
1933.594	0.785	1491812	WORD_OFF	n/a	n/a	VACUUM	n/a	7	10	[0, 0, 0]	n/a	catFR1	0	R1288P
1934.379	1.617	1492597	WORD	n/a	wordpools/wordpool_categorized_EN.txt	DISHWASHER	Appliances	8	10	[0, 0, 0]	n/a	catFR1	0	R1288P
1935.996	0.899	1494214	WORD_OFF	n/a	n/a	DISHWASHER	n/a	8	10	[0, 0, 0]	n/a	catFR1	0	R1288P
1936.895	1.618	1495113	WORD	n/a	wordpools/wordpool_categorized_EN.txt	MOPED	Vehicles	9	10	[0, 0, 0]	n/a	catFR1	0	R1288P
1938.513	0.8	1496731	WORD_OFF	n/a	n/a	MOPED	n/a	9	10	[0, 0, 0]	n/a	catFR1	0	R1288P
1939.313	1.616	1497531	WORD	n/a	wordpools/wordpool_categorized_EN.txt	TRUCK	Vehicles	10	10	[0, 0, 0]	n/a	catFR1	0	R1288P
1940.929	0.767	1499147	WORD_OFF	n/a	n/a	TRUCK	n/a	10	10	[0, 0, 0]	n/a	catFR1	0	R1288P
1941.696	1.618	1499914	WORD	n/a	wordpools/wordpool_categorized_EN.txt	TEA	Beverages	11	10	[0, 0, 0]	n/a	catFR1	0	R1288P
1943.314	0.917	1501532	WORD_OFF	n/a	n/a	TEA	n/a	11	10	[0, 0, 0]	n/a	catFR1	0	R1288P
1944.231	1.616	1502449	WORD	n/a	wordpools/wordpool_categorized_EN.txt	COFFEE	Beverages	12	10	[0, 0, 0]	n/a	catFR1	0	R1288P
1945.847	0.0	1504065	WORD_OFF	n/a	n/a	COFFEE	n/a	12	10	[0, 0, 0]	n/a	catFR1	0	R1288P
1945.847	0.101	1504065	ENCODING_END	n/a	n/a	n/a	n/a	-999	10	[0, 0, 0]	n/a	catFR1	0	R1288P
1945.948	0.0	1504166	DISTRACT_START	n/a	n/a	n/a	n/a	-999	10	[0, 0, 0]	n/a	catFR1	0	R1288P
1945.948	0.016	1504166	START	n/a	n/a	n/a	n/a	-999	10	[-999, -999, -999]	n/a	catFR1	0	R1288P
1945.964	6.151	1504182	PROB	6.125	n/a	n/a	n/a	-999	10	[7, 9, 1]	17.0	catFR1	0	R1288P
1952.115	5.201	1510332	PROB	5.166	n/a	n/a	n/a	-999	10	[2, 6, 7]	15.0	catFR1	0	R1288P
1957.316	5.5	1515533	PROB	5.461	n/a	n/a	n/a	-999	10	[2, 3, 5]	10.0	catFR1	0	R1288P
1962.816	3.89	1521033	PROB	3.89	n/a	n/a	n/a	-999	10	[7, 2, 2]	11.0	catFR1	0	R1288P
1966.706	0.011	1524923	STOP	n/a	n/a	n/a	n/a	-999	10	[-999, -999, -999]	n/a	catFR1	0	R1288P
1966.717	0.668	1524934	DISTRACT_END	n/a	n/a	n/a	n/a	-999	10	[0, 0, 0]	n/a	catFR1	0	R1288P
1967.385	0.516	1525602	RETRIEVAL_ORIENT	n/a	n/a	n/a	n/a	-999	10	[0, 0, 0]	n/a	catFR1	0	R1288P
1967.901	5.371	1526118	REC_START	n/a	n/a	n/a	n/a	-999	10	[0, 0, 0]	n/a	catFR1	0	R1288P
1973.272	2.24	1531488	REC_WORD	5.371	n/a	MOPED	Vehicles	9	10	[0, 0, 0]	n/a	catFR1	0	R1288P
1975.512	0.574	1533728	REC_WORD	7.611	n/a	POSTIT	n/a	-999	10	[0, 0, 0]	n/a	catFR1	0	R1288P
1976.086	1.343	1534302	REC_WORD	8.185	n/a	POSTER	n/a	-999	10	[0, 0, 0]	n/a	catFR1	0	R1288P
1977.429	3.499	1535645	REC_WORD	9.528	n/a	COLLAR	n/a	-999	10	[0, 0, 0]	n/a	catFR1	0	R1288P
1980.928	1.058	1539144	REC_WORD	13.027	n/a	PIPE	n/a	-999	10	[0, 0, 0]	n/a	catFR1	0	R1288P
1981.986	9.139	1540202	REC_WORD	14.085	n/a	PAN	n/a	-999	10	[0, 0, 0]	n/a	catFR1	0	R1288P
1991.125	1.455	1549341	REC_WORD	23.224	n/a	COLORFUL	n/a	-999	10	[0, 0, 0]	n/a	catFR1	0	R1288P
1992.58	1.085	1550796	REC_WORD	24.679	n/a	COLLEGE	n/a	-999	10	[0, 0, 0]	n/a	catFR1	0	R1288P
1993.665	1.43	1551881	REC_WORD_VV	25.764	n/a	<>	n/a	-999	10	[0, 0, 0]	n/a	catFR1	0	R1288P
1995.095	1.239	1553310	REC_WORD	27.194	n/a	FLYER	n/a	-999	10	[0, 0, 0]	n/a	catFR1	0	R1288P
1996.334	1.58	1554549	REC_WORD	28.433	n/a	CAULIFLOWER	n/a	-999	10	[0, 0, 0]	n/a	catFR1	0	R1288P
1997.914	7.894	1556129	REC_END	n/a	n/a	n/a	n/a	-999	10	[0, 0, 0]	n/a	catFR1	0	R1288P
2005.808	0.0	1564023	TRIAL	n/a	n/a	n/a	n/a	-999	11	[0, 0, 0]	n/a	catFR1	0	R1288P
2005.808	10.428	1564023	COUNTDOWN_START	n/a	n/a	n/a	n/a	-999	11	[0, 0, 0]	n/a	catFR1	0	R1288P
2016.236	0.008	1574451	COUNTDOWN_END	n/a	n/a	n/a	n/a	-999	11	[0, 0, 0]	n/a	catFR1	0	R1288P
2016.244	1.616	1574459	ORIENT	n/a	n/a	n/a	n/a	-999	11	[0, 0, 0]	n/a	catFR1	0	R1288P
2017.86	1.984	1576074	ORIENT_OFF	n/a	n/a	n/a	n/a	-999	11	[0, 0, 0]	n/a	catFR1	0	R1288P
2019.844	1.618	1578058	WORD	n/a	wordpools/wordpool_categorized_EN.txt	TURTLE	OceanAnimals	1	11	[0, 0, 0]	n/a	catFR1	0	R1288P
2021.462	0.9	1579676	WORD_OFF	n/a	n/a	TURTLE	n/a	1	11	[0, 0, 0]	n/a	catFR1	0	R1288P
2022.362	1.617	1580576	WORD	n/a	wordpools/wordpool_categorized_EN.txt	OYSTER	OceanAnimals	2	11	[0, 0, 0]	n/a	catFR1	0	R1288P
2023.979	1.0	1582193	WORD_OFF	n/a	n/a	OYSTER	n/a	2	11	[0, 0, 0]	n/a	catFR1	0	R1288P
2024.979	1.616	1583193	WORD	n/a	wordpools/wordpool_categorized_EN.txt	CARNATION	Flowers	3	11	[0, 0, 0]	n/a	catFR1	0	R1288P
2026.595	0.834	1584809	WORD_OFF	n/a	n/a	CARNATION	n/a	3	11	[0, 0, 0]	n/a	catFR1	0	R1288P
2027.429	1.617	1585643	WORD	n/a	wordpools/wordpool_categorized_EN.txt	ORCHID	Flowers	4	11	[0, 0, 0]	n/a	catFR1	0	R1288P
2029.046	0.951	1587260	WORD_OFF	n/a	n/a	ORCHID	n/a	4	11	[0, 0, 0]	n/a	catFR1	0	R1288P
2029.997	1.616	1588211	WORD	n/a	wordpools/wordpool_categorized_EN.txt	SPEAKER	Electronics	5	11	[0, 0, 0]	n/a	catFR1	0	R1288P
2031.613	0.934	1589827	WORD_OFF	n/a	n/a	SPEAKER	n/a	5	11	[0, 0, 0]	n/a	catFR1	0	R1288P
2032.547	1.617	1590761	WORD	n/a	wordpools/wordpool_categorized_EN.txt	HEADPHONES	Electronics	6	11	[0, 0, 0]	n/a	catFR1	0	R1288P
2034.164	0.95	1592378	WORD_OFF	n/a	n/a	HEADPHONES	n/a	6	11	[0, 0, 0]	n/a	catFR1	0	R1288P
2035.114	1.616	1593328	WORD	n/a	wordpools/wordpool_categorized_EN.txt	PETUNIA	Flowers	7	11	[0, 0, 0]	n/a	catFR1	0	R1288P
2036.73	0.818	1594944	WORD_OFF	n/a	n/a	PETUNIA	n/a	7	11	[0, 0, 0]	n/a	catFR1	0	R1288P
2037.548	1.617	1595762	WORD	n/a	wordpools/wordpool_categorized_EN.txt	LILY	Flowers	8	11	[0, 0, 0]	n/a	catFR1	0	R1288P
2039.165	0.967	1597379	WORD_OFF	n/a	n/a	LILY	n/a	8	11	[0, 0, 0]	n/a	catFR1	0	R1288P
2040.132	1.616	1598346	WORD	n/a	wordpools/wordpool_categorized_EN.txt	FISH	OceanAnimals	9	11	[0, 0, 0]	n/a	catFR1	0	R1288P
2041.748	0.933	1599961	WORD_OFF	n/a	n/a	FISH	n/a	9	11	[0, 0, 0]	n/a	catFR1	0	R1288P
2042.681	1.618	1600894	WORD	n/a	wordpools/wordpool_categorized_EN.txt	SHRIMP	OceanAnimals	10	11	[0, 0, 0]	n/a	catFR1	0	R1288P
2044.299	0.984	1602512	WORD_OFF	n/a	n/a	SHRIMP	n/a	10	11	[0, 0, 0]	n/a	catFR1	0	R1288P
2045.283	1.616	1603496	WORD	n/a	wordpools/wordpool_categorized_EN.txt	SCANNER	Electronics	11	11	[0, 0, 0]	n/a	catFR1	0	R1288P
2046.899	0.983	1605112	WORD_OFF	n/a	n/a	SCANNER	n/a	11	11	[0, 0, 0]	n/a	catFR1	0	R1288P
2047.882	1.602	1606095	WORD	n/a	wordpools/wordpool_categorized_EN.txt	RADIO	Electronics	12	11	[0, 0, 0]	n/a	catFR1	0	R1288P
2049.484	0.0	1607697	ENCODING_END	n/a	n/a	n/a	n/a	-999	11	[0, 0, 0]	n/a	catFR1	0	R1288P
2049.484	0.078	1607697	WORD_OFF	n/a	n/a	RADIO	n/a	12	11	[0, 0, 0]	n/a	catFR1	0	R1288P
2049.562	0.0	1607775	DISTRACT_START	n/a	n/a	n/a	n/a	-999	11	[0, 0, 0]	n/a	catFR1	0	R1288P
2049.562	0.021	1607775	START	n/a	n/a	n/a	n/a	-999	11	[-999, -999, -999]	n/a	catFR1	0	R1288P
2049.583	5.351	1607796	PROB	5.327	n/a	n/a	n/a	-999	11	[2, 5, 1]	8.0	catFR1	0	R1288P
2054.934	4.552	1613147	PROB	4.515	n/a	n/a	n/a	-999	11	[9, 9, 6]	24.0	catFR1	0	R1288P
2059.486	5.634	1617699	PROB	5.611	n/a	n/a	n/a	-999	11	[3, 9, 8]	20.0	catFR1	0	R1288P
2065.12	6.503	1623332	PROB	6.503	n/a	n/a	n/a	-999	11	[6, 9, 8]	23.0	catFR1	0	R1288P
2071.623	0.014	1629835	STOP	n/a	n/a	n/a	n/a	-999	11	[-999, -999, -999]	n/a	catFR1	0	R1288P
2071.637	0.668	1629849	DISTRACT_END	n/a	n/a	n/a	n/a	-999	11	[0, 0, 0]	n/a	catFR1	0	R1288P
2072.305	0.516	1630517	RETRIEVAL_ORIENT	n/a	n/a	n/a	n/a	-999	11	[0, 0, 0]	n/a	catFR1	0	R1288P
2072.821	2.116	1631033	REC_START	n/a	n/a	n/a	n/a	-999	11	[0, 0, 0]	n/a	catFR1	0	R1288P
2074.937	1.0	1633149	REC_WORD_VV	2.116	n/a	<>	n/a	-999	11	[0, 0, 0]	n/a	catFR1	0	R1288P
2075.937	1.502	1634149	REC_WORD_VV	3.116	n/a	<>	n/a	-999	11	[0, 0, 0]	n/a	catFR1	0	R1288P
2077.439	2.472	1635651	REC_WORD_VV	4.618	n/a	<>	n/a	-999	11	[0, 0, 0]	n/a	catFR1	0	R1288P
2079.911	1.188	1638123	REC_WORD_VV	7.09	n/a	<>	n/a	-999	11	[0, 0, 0]	n/a	catFR1	0	R1288P
2081.099	0.835	1639311	REC_WORD_VV	8.278	n/a	<>	n/a	-999	11	[0, 0, 0]	n/a	catFR1	0	R1288P
2081.934	1.519	1640146	REC_WORD	9.113	n/a	CAULIFLOWER	n/a	-999	11	[0, 0, 0]	n/a	catFR1	0	R1288P
2083.453	0.74	1641665	REC_WORD	10.632	n/a	CALI	n/a	-999	11	[0, 0, 0]	n/a	catFR1	0	R1288P
2084.193	1.73	1642405	REC_WORD_VV	11.372	n/a	<>	n/a	-999	11	[0, 0, 0]	n/a	catFR1	0	R1288P
2085.923	2.64	1644135	REC_WORD	13.102	n/a	CONE	n/a	-999	11	[0, 0, 0]	n/a	catFR1	0	R1288P
2088.563	3.589	1646775	REC_WORD	15.742	n/a	COLORFUL	n/a	-999	11	[0, 0, 0]	n/a	catFR1	0	R1288P
2092.152	2.498	1650363	REC_WORD	19.331	n/a	PINE	n/a	-999	11	[0, 0, 0]	n/a	catFR1	0	R1288P
2094.65	5.467	1652861	REC_WORD	21.829	n/a	ROOSTER	n/a	-999	11	[0, 0, 0]	n/a	catFR1	0	R1288P
2100.117	0.833	1658328	REC_WORD	27.296	n/a	FINE	n/a	-999	11	[0, 0, 0]	n/a	catFR1	0	R1288P
2100.95	0.754	1659161	REC_WORD	28.129	n/a	PINE	n/a	-999	11	[0, 0, 0]	n/a	catFR1	0	R1288P
2101.704	1.127	1659915	REC_WORD	28.883	n/a	PINETREE	n/a	-999	11	[0, 0, 0]	n/a	catFR1	0	R1288P
2102.831	4.23	1661042	REC_END	n/a	n/a	n/a	n/a	-999	11	[0, 0, 0]	n/a	catFR1	0	R1288P
2107.061	0.0	1665272	COUNTDOWN_START	n/a	n/a	n/a	n/a	-999	12	[0, 0, 0]	n/a	catFR1	0	R1288P
2107.061	10.428	1665272	TRIAL	n/a	n/a	n/a	n/a	-999	12	[0, 0, 0]	n/a	catFR1	0	R1288P
2117.489	0.008	1675699	COUNTDOWN_END	n/a	n/a	n/a	n/a	-999	12	[0, 0, 0]	n/a	catFR1	0	R1288P
2117.497	1.617	1675707	ORIENT	n/a	n/a	n/a	n/a	-999	12	[0, 0, 0]	n/a	catFR1	0	R1288P
2119.114	2.133	1677324	ORIENT_OFF	n/a	n/a	n/a	n/a	-999	12	[0, 0, 0]	n/a	catFR1	0	R1288P
2121.247	1.616	1679457	WORD	n/a	wordpools/wordpool_categorized_EN.txt	WIND	Weather	1	12	[0, 0, 0]	n/a	catFR1	0	R1288P
2122.863	0.767	1681073	WORD_OFF	n/a	n/a	WIND	n/a	1	12	[0, 0, 0]	n/a	catFR1	0	R1288P
2123.63	1.618	1681840	WORD	n/a	wordpools/wordpool_categorized_EN.txt	HURRICANE	Weather	2	12	[0, 0, 0]	n/a	catFR1	0	R1288P
2125.248	0.833	1683458	WORD_OFF	n/a	n/a	HURRICANE	n/a	2	12	[0, 0, 0]	n/a	catFR1	0	R1288P
2126.081	1.616	1684291	WORD	n/a	wordpools/wordpool_categorized_EN.txt	WOODS	Landscapes	3	12	[0, 0, 0]	n/a	catFR1	0	R1288P
2127.697	0.884	1685907	WORD_OFF	n/a	n/a	WOODS	n/a	3	12	[0, 0, 0]	n/a	catFR1	0	R1288P
2128.581	1.618	1686791	WORD	n/a	wordpools/wordpool_categorized_EN.txt	VALLEY	Landscapes	4	12	[0, 0, 0]	n/a	catFR1	0	R1288P
2130.199	0.933	1688409	WORD_OFF	n/a	n/a	VALLEY	n/a	4	12	[0, 0, 0]	n/a	catFR1	0	R1288P
2131.132	1.616	1689342	WORD	n/a	wordpools/wordpool_categorized_EN.txt	VAN	Vehicles	5	12	[0, 0, 0]	n/a	catFR1	0	R1288P
2132.748	0.768	1690958	WORD_OFF	n/a	n/a	VAN	n/a	5	12	[0, 0, 0]	n/a	catFR1	0	R1288P
2133.516	1.617	1691726	WORD	n/a	wordpools/wordpool_categorized_EN.txt	JEEP	Vehicles	6	12	[0, 0, 0]	n/a	catFR1	0	R1288P
2135.133	0.917	1693343	WORD_OFF	n/a	n/a	JEEP	n/a	6	12	[0, 0, 0]	n/a	catFR1	0	R1288P
2136.05	1.616	1694260	WORD	n/a	wordpools/wordpool_categorized_EN.txt	LIGHTNING	Weather	7	12	[0, 0, 0]	n/a	catFR1	0	R1288P
2137.666	0.868	1695875	WORD_OFF	n/a	n/a	LIGHTNING	n/a	7	12	[0, 0, 0]	n/a	catFR1	0	R1288P
2138.534	1.617	1696743	WORD	n/a	wordpools/wordpool_categorized_EN.txt	THUNDER	Weather	8	12	[0, 0, 0]	n/a	catFR1	0	R1288P
2140.151	0.799	1698360	WORD_OFF	n/a	n/a	THUNDER	n/a	8	12	[0, 0, 0]	n/a	catFR1	0	R1288P
2140.95	1.601	1699159	WORD	n/a	wordpools/wordpool_categorized_EN.txt	LAKE	Landscapes	9	12	[0, 0, 0]	n/a	catFR1	0	R1288P
2142.551	0.817	1700760	WORD_OFF	n/a	n/a	LAKE	n/a	9	12	[0, 0, 0]	n/a	catFR1	0	R1288P
2143.368	1.617	1701577	WORD	n/a	wordpools/wordpool_categorized_EN.txt	BEACH	Landscapes	10	12	[0, 0, 0]	n/a	catFR1	0	R1288P
2144.985	0.966	1703194	WORD_OFF	n/a	n/a	BEACH	n/a	10	12	[0, 0, 0]	n/a	catFR1	0	R1288P
2145.951	1.617	1704160	WORD	n/a	wordpools/wordpool_categorized_EN.txt	SCOOTER	Vehicles	11	12	[0, 0, 0]	n/a	catFR1	0	R1288P
2147.568	0.901	1705777	WORD_OFF	n/a	n/a	SCOOTER	n/a	11	12	[0, 0, 0]	n/a	catFR1	0	R1288P
2148.469	1.617	1706678	WORD	n/a	wordpools/wordpool_categorized_EN.txt	BUS	Vehicles	12	12	[0, 0, 0]	n/a	catFR1	0	R1288P
2150.086	0.0	1708295	WORD_OFF	n/a	n/a	BUS	n/a	12	12	[0, 0, 0]	n/a	catFR1	0	R1288P
2150.086	0.077	1708295	ENCODING_END	n/a	n/a	n/a	n/a	-999	12	[0, 0, 0]	n/a	catFR1	0	R1288P
2150.163	0.0	1708372	DISTRACT_START	n/a	n/a	n/a	n/a	-999	12	[0, 0, 0]	n/a	catFR1	0	R1288P
2150.163	0.023	1708372	START	n/a	n/a	n/a	n/a	-999	12	[-999, -999, -999]	n/a	catFR1	0	R1288P
2150.186	7.285	1708395	PROB	7.245	n/a	n/a	n/a	-999	12	[6, 8, 3]	17.0	catFR1	0	R1288P
2157.471	4.667	1715680	PROB	4.64	n/a	n/a	n/a	-999	12	[5, 6, 4]	15.0	catFR1	0	R1288P
2162.138	4.101	1720346	PROB	4.062	n/a	n/a	n/a	-999	12	[4, 4, 2]	10.0	catFR1	0	R1288P
2166.239	6.641	1724447	PROB	6.641	n/a	n/a	n/a	-999	12	[7, 8, 3]	18.0	catFR1	0	R1288P
2172.88	0.009	1731088	STOP	n/a	n/a	n/a	n/a	-999	12	[-999, -999, -999]	n/a	catFR1	0	R1288P
2172.889	0.518	1731097	DISTRACT_END	n/a	n/a	n/a	n/a	-999	12	[0, 0, 0]	n/a	catFR1	0	R1288P
2173.407	0.516	1731615	RETRIEVAL_ORIENT	n/a	n/a	n/a	n/a	-999	12	[0, 0, 0]	n/a	catFR1	0	R1288P
2173.923	3.467	1732131	REC_START	n/a	n/a	n/a	n/a	-999	12	[0, 0, 0]	n/a	catFR1	0	R1288P
2177.39	2.101	1735598	REC_WORD	3.467	n/a	ROOSTER	n/a	-999	12	[0, 0, 0]	n/a	catFR1	0	R1288P
2179.491	3.582	1737699	REC_WORD	5.568	n/a	PADDLE	n/a	-999	12	[0, 0, 0]	n/a	catFR1	0	R1288P
2183.073	7.918	1741281	REC_WORD	9.15	n/a	PHONE	n/a	-999	12	[0, 0, 0]	n/a	catFR1	0	R1288P
2190.991	0.405	1749198	REC_WORD	17.068	n/a	PADDLE	n/a	-999	12	[0, 0, 0]	n/a	catFR1	0	R1288P
2191.396	0.937	1749603	REC_WORD	17.473	n/a	BOY	n/a	-999	12	[0, 0, 0]	n/a	catFR1	0	R1288P
2192.333	0.344	1750540	REC_WORD	18.41	n/a	PADDLE	n/a	-999	12	[0, 0, 0]	n/a	catFR1	0	R1288P
2192.677	3.761	1750884	REC_WORD_VV	18.754	n/a	<>	n/a	-999	12	[0, 0, 0]	n/a	catFR1	0	R1288P
2196.438	1.438	1754645	REC_WORD	22.515	n/a	TELEVISION	n/a	-999	12	[0, 0, 0]	n/a	catFR1	0	R1288P
2197.876	1.176	1756083	REC_WORD	23.953	n/a	SANDLER	n/a	-999	12	[0, 0, 0]	n/a	catFR1	0	R1288P
2199.052	1.884	1757259	REC_WORD	25.129	n/a	SADLER	n/a	-999	12	[0, 0, 0]	n/a	catFR1	0	R1288P
2200.936	1.937	1759143	REC_WORD	27.013	n/a	SANDY	n/a	-999	12	[0, 0, 0]	n/a	catFR1	0	R1288P
2202.873	1.063	1761080	REC_WORD	28.95	n/a	BEACH	Landscapes	10	12	[0, 0, 0]	n/a	catFR1	0	R1288P
2203.936	84.959	1762143	REC_END	n/a	n/a	n/a	n/a	-999	12	[0, 0, 0]	n/a	catFR1	0	R1288P
2288.895	0.0	1847098	TRIAL	n/a	n/a	n/a	n/a	-999	13	[0, 0, 0]	n/a	catFR1	0	R1288P
2288.895	10.428	1847098	COUNTDOWN_START	n/a	n/a	n/a	n/a	-999	13	[0, 0, 0]	n/a	catFR1	0	R1288P
2299.323	0.008	1857526	COUNTDOWN_END	n/a	n/a	n/a	n/a	-999	13	[0, 0, 0]	n/a	catFR1	0	R1288P
2299.331	1.616	1857534	ORIENT	n/a	n/a	n/a	n/a	-999	13	[0, 0, 0]	n/a	catFR1	0	R1288P
2300.947	2.334	1859150	ORIENT_OFF	n/a	n/a	n/a	n/a	-999	13	[0, 0, 0]	n/a	catFR1	0	R1288P
2303.281	1.616	1861483	WORD	n/a	wordpools/wordpool_categorized_EN.txt	CHEESECAKE	Desserts	1	13	[0, 0, 0]	n/a	catFR1	0	R1288P
2304.897	0.917	1863099	WORD_OFF	n/a	n/a	CHEESECAKE	n/a	1	13	[0, 0, 0]	n/a	catFR1	0	R1288P
2305.814	1.618	1864016	WORD	n/a	wordpools/wordpool_categorized_EN.txt	CUPCAKE	Desserts	2	13	[0, 0, 0]	n/a	catFR1	0	R1288P
2307.432	0.884	1865634	WORD_OFF	n/a	n/a	CUPCAKE	n/a	2	13	[0, 0, 0]	n/a	catFR1	0	R1288P
2308.316	1.616	1866518	WORD	n/a	wordpools/wordpool_categorized_EN.txt	TRUMPET	Instruments	3	13	[0, 0, 0]	n/a	catFR1	0	R1288P
2309.932	0.917	1868134	WORD_OFF	n/a	n/a	TRUMPET	n/a	3	13	[0, 0, 0]	n/a	catFR1	0	R1288P
2310.849	1.618	1869051	WORD	n/a	wordpools/wordpool_categorized_EN.txt	PIANO	Instruments	4	13	[0, 0, 0]	n/a	catFR1	0	R1288P
2312.467	0.983	1870669	WORD_OFF	n/a	n/a	PIANO	n/a	4	13	[0, 0, 0]	n/a	catFR1	0	R1288P
2313.45	1.617	1871652	WORD	n/a	wordpools/wordpool_categorized_EN.txt	TAPE	OfficeSupplies	5	13	[0, 0, 0]	n/a	catFR1	0	R1288P
2315.067	0.816	1873269	WORD_OFF	n/a	n/a	TAPE	n/a	5	13	[0, 0, 0]	n/a	catFR1	0	R1288P
2315.883	1.618	1874085	WORD	n/a	wordpools/wordpool_categorized_EN.txt	RULER	OfficeSupplies	6	13	[0, 0, 0]	n/a	catFR1	0	R1288P
2317.501	0.933	1875703	WORD_OFF	n/a	n/a	RULER	n/a	6	13	[0, 0, 0]	n/a	catFR1	0	R1288P
2318.434	1.617	1876636	WORD	n/a	wordpools/wordpool_categorized_EN.txt	TUBA	Instruments	7	13	[0, 0, 0]	n/a	catFR1	0	R1288P
2320.051	0.899	1878253	WORD_OFF	n/a	n/a	TUBA	n/a	7	13	[0, 0, 0]	n/a	catFR1	0	R1288P
2320.95	1.602	1879152	WORD	n/a	wordpools/wordpool_categorized_EN.txt	GUITAR	Instruments	8	13	[0, 0, 0]	n/a	catFR1	0	R1288P
2322.552	0.967	1880754	WORD_OFF	n/a	n/a	GUITAR	n/a	8	13	[0, 0, 0]	n/a	catFR1	0	R1288P
2323.519	1.617	1881721	WORD	n/a	wordpools/wordpool_categorized_EN.txt	JELLO	Desserts	9	13	[0, 0, 0]	n/a	catFR1	0	R1288P
2325.136	0.866	1883338	WORD_OFF	n/a	n/a	JELLO	n/a	9	13	[0, 0, 0]	n/a	catFR1	0	R1288P
2326.002	1.617	1884203	WORD	n/a	wordpools/wordpool_categorized_EN.txt	COOKIE	Desserts	10	13	[0, 0, 0]	n/a	catFR1	0	R1288P
2327.619	0.933	1885820	WORD_OFF	n/a	n/a	COOKIE	n/a	10	13	[0, 0, 0]	n/a	catFR1	0	R1288P
2328.552	1.601	1886753	WORD	n/a	wordpools/wordpool_categorized_EN.txt	MARKER	OfficeSupplies	11	13	[0, 0, 0]	n/a	catFR1	0	R1288P
2330.153	0.85	1888354	WORD_OFF	n/a	n/a	MARKER	n/a	11	13	[0, 0, 0]	n/a	catFR1	0	R1288P
2331.003	1.616	1889204	WORD	n/a	wordpools/wordpool_categorized_EN.txt	FOLDER	OfficeSupplies	12	13	[0, 0, 0]	n/a	catFR1	0	R1288P
2332.619	0.001	1890820	WORD_OFF	n/a	n/a	FOLDER	n/a	12	13	[0, 0, 0]	n/a	catFR1	0	R1288P
2332.62	0.105	1890821	ENCODING_END	n/a	n/a	n/a	n/a	-999	13	[0, 0, 0]	n/a	catFR1	0	R1288P
2332.725	0.0	1890926	DISTRACT_START	n/a	n/a	n/a	n/a	-999	13	[0, 0, 0]	n/a	catFR1	0	R1288P
2332.725	0.011	1890926	START	n/a	n/a	n/a	n/a	-999	13	[-999, -999, -999]	n/a	catFR1	0	R1288P
2332.736	5.585	1890937	PROB	5.557	n/a	n/a	n/a	-999	13	[1, 9, 6]	16.0	catFR1	0	R1288P
2338.321	8.351	1896522	PROB	8.316	n/a	n/a	n/a	-999	13	[3, 2, 9]	14.0	catFR1	0	R1288P
2346.672	4.502	1904873	PROB	4.47	n/a	n/a	n/a	-999	13	[6, 6, 4]	14.0	catFR1	0	R1288P
2351.174	6.218	1909374	PROB	6.197	n/a	n/a	n/a	-999	13	[4, 8, 7]	19.0	catFR1	0	R1288P
2357.392	0.65	1915592	DISTRACT_END	n/a	n/a	n/a	n/a	-999	13	[0, 0, 0]	n/a	catFR1	0	R1288P
2358.042	0.516	1916242	RETRIEVAL_ORIENT	n/a	n/a	n/a	n/a	-999	13	[0, 0, 0]	n/a	catFR1	0	R1288P
2358.558	5.773	1916758	REC_START	n/a	n/a	n/a	n/a	-999	13	[0, 0, 0]	n/a	catFR1	0	R1288P
2364.331	1.076	1922531	REC_WORD	5.773	n/a	MOLDER	n/a	-999	13	[0, 0, 0]	n/a	catFR1	0	R1288P
2365.407	1.188	1923607	REC_WORD	6.849	n/a	FINE	n/a	-999	13	[0, 0, 0]	n/a	catFR1	0	R1288P
2366.595	4.377	1924795	REC_WORD	8.037	n/a	FINISH	n/a	-999	13	[0, 0, 0]	n/a	catFR1	0	R1288P
2370.972	3.805	1929172	REC_WORD	12.414	n/a	MIDDLE	n/a	-999	13	[0, 0, 0]	n/a	catFR1	0	R1288P
2374.777	1.829	1932976	REC_WORD	16.219	n/a	FOLLOW	n/a	-999	13	[0, 0, 0]	n/a	catFR1	0	R1288P
2376.606	6.45	1934805	REC_WORD	18.048	n/a	WINE	n/a	-999	13	[0, 0, 0]	n/a	catFR1	0	R1288P
2383.056	5.514	1941255	REC_WORD	24.498	n/a	COMPUTER	n/a	-999	13	[0, 0, 0]	n/a	catFR1	0	R1288P
2388.57	37.435	1946769	REC_END	n/a	n/a	n/a	n/a	-999	13	[0, 0, 0]	n/a	catFR1	0	R1288P
2426.005	0.0	1984202	TRIAL	n/a	n/a	n/a	n/a	-999	14	[0, 0, 0]	n/a	catFR1	0	R1288P
