onset	duration	sample	trial_type	response_time	stim_file	item_name	category	serialpos	list	test	answer	experiment	session	subject
0.0	12.472	1628	INSTRUCT_START	n/a	n/a	n/a	n/a	-999	-999	[0, 0, 0]	n/a	catFR1	3	R1328E
12.472	2.868	14099	INSTRUCT_END	n/a	n/a	n/a	n/a	-999	-999	[0, 0, 0]	n/a	catFR1	3	R1328E
15.34	10.69	16967	MIC TEST_START	n/a	n/a	n/a	n/a	-999	-999	[0, 0, 0]	n/a	catFR1	3	R1328E
26.03	0.019	27657	MIC TEST_END	n/a	n/a	n/a	n/a	-999	-999	[0, 0, 0]	n/a	catFR1	3	R1328E
26.049	0.0	27676	TRIAL_START	n/a	n/a	n/a	n/a	-999	-1	[0, 0, 0]	n/a	catFR1	3	R1328E
26.049	0.001	27676	TRIAL	n/a	n/a	n/a	n/a	-999	-1	[0, 0, 0]	n/a	catFR1	3	R1328E
26.05	1.591	27677	WAITING_START	n/a	n/a	n/a	n/a	-999	-1	[0, 0, 0]	n/a	catFR1	3	R1328E
27.641	0.001	29268	WAITING_END	n/a	n/a	n/a	n/a	-999	-1	[0, 0, 0]	n/a	catFR1	3	R1328E
27.642	10.0	29269	COUNTDOWN_START	n/a	n/a	n/a	n/a	-999	-1	[0, 0, 0]	n/a	catFR1	3	R1328E
38.071	0.001	39698	COUNTDOWN_END	n/a	n/a	n/a	n/a	-999	-1	[0, 0, 0]	n/a	catFR1	3	R1328E
38.072	1.172	39699	ORIENT_START	n/a	n/a	n/a	n/a	-999	-1	[0, 0, 0]	n/a	catFR1	3	R1328E
39.244	0.001	40871	ORIENT_END	n/a	n/a	n/a	n/a	-999	-1	[0, 0, 0]	n/a	catFR1	3	R1328E
39.245	0.899	40872	ENCODING_START	n/a	n/a	n/a	n/a	-999	-1	[0, 0, 0]	n/a	catFR1	3	R1328E
40.144	1.6	41771	WORD	n/a	n/a	TEACHER	n/a	1	-1	[0, 0, 0]	n/a	catFR1	3	R1328E
41.777	0.803	43403	WORD_OFF	n/a	n/a	TEACHER	n/a	1	-1	[0, 0, 0]	n/a	catFR1	3	R1328E
42.58	1.6	44206	WORD	n/a	n/a	HOUR	n/a	2	-1	[0, 0, 0]	n/a	catFR1	3	R1328E
44.212	1.018	45838	WORD_OFF	n/a	n/a	HOUR	n/a	2	-1	[0, 0, 0]	n/a	catFR1	3	R1328E
45.23	1.6	46856	WORD	n/a	n/a	LEATHER	n/a	3	-1	[0, 0, 0]	n/a	catFR1	3	R1328E
46.861	0.896	48487	WORD_OFF	n/a	n/a	LEATHER	n/a	3	-1	[0, 0, 0]	n/a	catFR1	3	R1328E
47.757	1.6	49383	WORD	n/a	n/a	FARMER	n/a	4	-1	[0, 0, 0]	n/a	catFR1	3	R1328E
49.379	0.943	51005	WORD_OFF	n/a	n/a	FARMER	n/a	4	-1	[0, 0, 0]	n/a	catFR1	3	R1328E
50.322	1.6	51948	WORD	n/a	n/a	SILK	n/a	5	-1	[0, 0, 0]	n/a	catFR1	3	R1328E
51.947	0.808	53573	WORD_OFF	n/a	n/a	SILK	n/a	5	-1	[0, 0, 0]	n/a	catFR1	3	R1328E
52.755	1.6	54381	WORD	n/a	n/a	DENIM	n/a	6	-1	[0, 0, 0]	n/a	catFR1	3	R1328E
54.363	0.799	55989	WORD_OFF	n/a	n/a	DENIM	n/a	6	-1	[0, 0, 0]	n/a	catFR1	3	R1328E
55.162	1.6	56788	WORD	n/a	n/a	WOOL	n/a	7	-1	[0, 0, 0]	n/a	catFR1	3	R1328E
56.796	0.75	58422	WORD_OFF	n/a	n/a	WOOL	n/a	7	-1	[0, 0, 0]	n/a	catFR1	3	R1328E
57.546	1.6	59172	WORD	n/a	n/a	MINUTE	n/a	8	-1	[0, 0, 0]	n/a	catFR1	3	R1328E
59.181	0.973	60807	WORD_OFF	n/a	n/a	MINUTE	n/a	8	-1	[0, 0, 0]	n/a	catFR1	3	R1328E
60.154	1.6	61780	WORD	n/a	n/a	SECOND	n/a	9	-1	[0, 0, 0]	n/a	catFR1	3	R1328E
61.781	0.979	63407	WORD_OFF	n/a	n/a	SECOND	n/a	9	-1	[0, 0, 0]	n/a	catFR1	3	R1328E
62.76	1.6	64386	WORD	n/a	n/a	FIREMAN	n/a	10	-1	[0, 0, 0]	n/a	catFR1	3	R1328E
64.365	0.75	65991	WORD_OFF	n/a	n/a	FIREMAN	n/a	10	-1	[0, 0, 0]	n/a	catFR1	3	R1328E
65.115	1.6	66741	WORD	n/a	n/a	PLUMBER	n/a	11	-1	[0, 0, 0]	n/a	catFR1	3	R1328E
66.748	1.02	68374	WORD_OFF	n/a	n/a	PLUMBER	n/a	11	-1	[0, 0, 0]	n/a	catFR1	3	R1328E
67.768	1.6	69394	WORD	n/a	n/a	DAY	n/a	12	-1	[0, 0, 0]	n/a	catFR1	3	R1328E
69.383	0.0	71008	WORD_OFF	n/a	n/a	DAY	n/a	12	-1	[0, 0, 0]	n/a	catFR1	3	R1328E
69.383	0.0	71008	ENCODING_END	n/a	n/a	n/a	n/a	-999	-1	[0, 0, 0]	n/a	catFR1	3	R1328E
69.383	0.001	71008	DISTRACT_START	n/a	n/a	n/a	n/a	-999	-1	[0, 0, 0]	n/a	catFR1	3	R1328E
69.384	0.015	71009	START	n/a	n/a	n/a	n/a	-999	-1	[-999, -999, -999]	n/a	catFR1	3	R1328E
69.399	8.251	71024	PROB	8.219	n/a	n/a	n/a	-999	-1	[7, 2, 7]	16.0	catFR1	3	R1328E
77.65	13.348	79275	PROB	13.348	n/a	n/a	n/a	-999	-1	[7, 6, 9]	22.0	catFR1	3	R1328E
90.998	0.022	92623	STOP	n/a	n/a	n/a	n/a	-999	-1	[-999, -999, -999]	n/a	catFR1	3	R1328E
91.02	0.604	92645	DISTRACT_END	n/a	n/a	n/a	n/a	-999	-1	[0, 0, 0]	n/a	catFR1	3	R1328E
91.624	1.6	93249	RETRIEVAL_ORIENT_START	n/a	n/a	n/a	n/a	-999	-1	[0, 0, 0]	n/a	catFR1	3	R1328E
93.237	0.0	94862	RETRIEVAL_ORIENT_END	n/a	n/a	n/a	n/a	-999	-1	[0, 0, 0]	n/a	catFR1	3	R1328E
93.237	0.136	94862	REC_START	n/a	n/a	n/a	n/a	-999	-1	[0, 0, 0]	n/a	catFR1	3	R1328E
93.373	0.889	94998	REC_WORD	0.136	n/a	WOOL	n/a	7	-1	[0, 0, 0]	n/a	catFR1	3	R1328E
94.262	1.0	95887	REC_WORD	1.025	n/a	SILK	n/a	5	-1	[0, 0, 0]	n/a	catFR1	3	R1328E
95.262	1.546	96887	REC_WORD_VV	2.025	n/a	<>	n/a	-999	-1	[0, 0, 0]	n/a	catFR1	3	R1328E
96.808	1.207	98433	REC_WORD	3.571	n/a	TEACHER	n/a	1	-1	[0, 0, 0]	n/a	catFR1	3	R1328E
98.015	1.989	99639	REC_WORD	4.778	n/a	FIREMAN	n/a	10	-1	[0, 0, 0]	n/a	catFR1	3	R1328E
100.004	0.981	101628	REC_WORD	6.767	n/a	SECOND	n/a	9	-1	[0, 0, 0]	n/a	catFR1	3	R1328E
100.985	1.276	102609	REC_WORD	7.748	n/a	MINUTE	n/a	8	-1	[0, 0, 0]	n/a	catFR1	3	R1328E
102.261	20.987	103885	REC_WORD	9.024	n/a	HOUR	n/a	2	-1	[0, 0, 0]	n/a	catFR1	3	R1328E
123.248	0.0	124872	REC_END	n/a	n/a	n/a	n/a	-999	-1	[0, 0, 0]	n/a	catFR1	3	R1328E
123.248	19.882	124872	PRACTICE_POST_INSTRUCT_START	n/a	n/a	n/a	n/a	-999	-1	[0, 0, 0]	n/a	catFR1	3	R1328E
143.13	0.001	144753	PRACTICE_POST_INSTRUCT_END	n/a	n/a	n/a	n/a	-999	-1	[0, 0, 0]	n/a	catFR1	3	R1328E
143.131	0.028	144754	TRIAL_END	n/a	n/a	n/a	n/a	-999	-1	[0, 0, 0]	n/a	catFR1	3	R1328E
143.159	0.0	144782	TRIAL_START	n/a	n/a	n/a	n/a	-999	1	[0, 0, 0]	n/a	catFR1	3	R1328E
143.159	0.0	144782	TRIAL	n/a	n/a	n/a	n/a	-999	1	[0, 0, 0]	n/a	catFR1	3	R1328E
143.159	9.304	144782	WAITING_START	n/a	n/a	n/a	n/a	-999	1	[0, 0, 0]	n/a	catFR1	3	R1328E
152.463	0.0	154086	WAITING_END	n/a	n/a	n/a	n/a	-999	1	[0, 0, 0]	n/a	catFR1	3	R1328E
152.463	10.0	154086	COUNTDOWN_START	n/a	n/a	n/a	n/a	-999	1	[0, 0, 0]	n/a	catFR1	3	R1328E
162.893	0.001	164515	COUNTDOWN_END	n/a	n/a	n/a	n/a	-999	1	[0, 0, 0]	n/a	catFR1	3	R1328E
162.894	1.089	164516	ORIENT_START	n/a	n/a	n/a	n/a	-999	1	[0, 0, 0]	n/a	catFR1	3	R1328E
163.983	0.0	165605	ORIENT_END	n/a	n/a	n/a	n/a	-999	1	[0, 0, 0]	n/a	catFR1	3	R1328E
163.983	0.935	165605	ENCODING_START	n/a	n/a	n/a	n/a	-999	1	[0, 0, 0]	n/a	catFR1	3	R1328E
164.918	1.6	166540	WORD	n/a	wordpools/wordpool_categorized_EN.txt	SODA	Beverages	1	1	[0, 0, 0]	n/a	catFR1	3	R1328E
166.549	0.833	168171	WORD_OFF	n/a	n/a	SODA	Beverages	1	1	[0, 0, 0]	n/a	catFR1	3	R1328E
167.382	1.6	169004	WORD	n/a	wordpools/wordpool_categorized_EN.txt	TEA	Beverages	2	1	[0, 0, 0]	n/a	catFR1	3	R1328E
169.017	1.056	170639	WORD_OFF	n/a	n/a	TEA	Beverages	2	1	[0, 0, 0]	n/a	catFR1	3	R1328E
170.073	1.6	171695	WORD	n/a	wordpools/wordpool_categorized_EN.txt	PIE	Desserts	3	1	[0, 0, 0]	n/a	catFR1	3	R1328E
171.7	0.953	173322	WORD_OFF	n/a	n/a	PIE	Desserts	3	1	[0, 0, 0]	n/a	catFR1	3	R1328E
172.653	1.6	174275	WORD	n/a	wordpools/wordpool_categorized_EN.txt	BROWNIES	Desserts	4	1	[0, 0, 0]	n/a	catFR1	3	R1328E
174.268	0.827	175890	WORD_OFF	n/a	n/a	BROWNIES	Desserts	4	1	[0, 0, 0]	n/a	catFR1	3	R1328E
175.095	1.6	176717	WORD	n/a	wordpools/wordpool_categorized_EN.txt	ORANGUTAN	Zoo	5	1	[0, 0, 0]	n/a	catFR1	3	R1328E
176.717	1.124	178339	WORD_OFF	n/a	n/a	ORANGUTAN	Zoo	5	1	[0, 0, 0]	n/a	catFR1	3	R1328E
177.841	1.6	179463	WORD	n/a	wordpools/wordpool_categorized_EN.txt	MONKEY	Zoo	6	1	[0, 0, 0]	n/a	catFR1	3	R1328E
179.468	0.923	181090	WORD_OFF	n/a	n/a	MONKEY	Zoo	6	1	[0, 0, 0]	n/a	catFR1	3	R1328E
180.391	1.6	182013	WORD	n/a	wordpools/wordpool_categorized_EN.txt	WATER	Beverages	7	1	[0, 0, 0]	n/a	catFR1	3	R1328E
182.019	0.963	183641	WORD_OFF	n/a	n/a	WATER	Beverages	7	1	[0, 0, 0]	n/a	catFR1	3	R1328E
182.982	1.6	184604	WORD	n/a	wordpools/wordpool_categorized_EN.txt	MILK	Beverages	8	1	[0, 0, 0]	n/a	catFR1	3	R1328E
184.602	0.869	186223	WORD_OFF	n/a	n/a	MILK	Beverages	8	1	[0, 0, 0]	n/a	catFR1	3	R1328E
185.471	1.6	187092	WORD	n/a	wordpools/wordpool_categorized_EN.txt	ZEBRA	Zoo	9	1	[0, 0, 0]	n/a	catFR1	3	R1328E
187.087	0.966	188708	WORD_OFF	n/a	n/a	ZEBRA	Zoo	9	1	[0, 0, 0]	n/a	catFR1	3	R1328E
188.053	1.6	189674	WORD	n/a	wordpools/wordpool_categorized_EN.txt	BEAR	Zoo	10	1	[0, 0, 0]	n/a	catFR1	3	R1328E
189.686	1.04	191307	WORD_OFF	n/a	n/a	BEAR	Zoo	10	1	[0, 0, 0]	n/a	catFR1	3	R1328E
190.726	1.6	192347	WORD	n/a	wordpools/wordpool_categorized_EN.txt	PASTRY	Desserts	11	1	[0, 0, 0]	n/a	catFR1	3	R1328E
192.354	0.967	193975	WORD_OFF	n/a	n/a	PASTRY	Desserts	11	1	[0, 0, 0]	n/a	catFR1	3	R1328E
193.321	1.6	194942	WORD	n/a	wordpools/wordpool_categorized_EN.txt	CAKE	Desserts	12	1	[0, 0, 0]	n/a	catFR1	3	R1328E
194.955	0.0	196576	WORD_OFF	n/a	n/a	CAKE	Desserts	12	1	[0, 0, 0]	n/a	catFR1	3	R1328E
194.955	0.0	196576	ENCODING_END	n/a	n/a	n/a	n/a	-999	1	[0, 0, 0]	n/a	catFR1	3	R1328E
194.955	0.001	196576	DISTRACT_START	n/a	n/a	n/a	n/a	-999	1	[0, 0, 0]	n/a	catFR1	3	R1328E
194.956	0.015	196577	START	n/a	n/a	n/a	n/a	-999	1	[-999, -999, -999]	n/a	catFR1	3	R1328E
194.971	11.252	196592	PROB	11.217	n/a	n/a	n/a	-999	1	[3, 9, 8]	20.0	catFR1	3	R1328E
206.223	6.051	207844	PROB	6.014	n/a	n/a	n/a	-999	1	[8, 7, 1]	16.0	catFR1	3	R1328E
212.274	24.482	213895	PROB	24.482	n/a	n/a	n/a	-999	1	[5, 9, 7]	21.0	catFR1	3	R1328E
236.756	0.022	238376	STOP	n/a	n/a	n/a	n/a	-999	1	[-999, -999, -999]	n/a	catFR1	3	R1328E
236.778	0.591	238398	DISTRACT_END	n/a	n/a	n/a	n/a	-999	1	[0, 0, 0]	n/a	catFR1	3	R1328E
237.369	1.6	238989	RETRIEVAL_ORIENT_START	n/a	n/a	n/a	n/a	-999	1	[0, 0, 0]	n/a	catFR1	3	R1328E
238.963	0.0	240583	RETRIEVAL_ORIENT_END	n/a	n/a	n/a	n/a	-999	1	[0, 0, 0]	n/a	catFR1	3	R1328E
238.963	0.228	240583	REC_START	n/a	n/a	n/a	n/a	-999	1	[0, 0, 0]	n/a	catFR1	3	R1328E
239.191	1.133	240811	REC_WORD	0.228	n/a	BROWNIES	Desserts	4	1	[0, 0, 0]	n/a	catFR1	3	R1328E
240.324	2.4	241944	REC_WORD	1.361	n/a	CAKE	Desserts	12	1	[0, 0, 0]	n/a	catFR1	3	R1328E
242.724	3.324	244343	REC_WORD	3.761	n/a	PASTRY	Desserts	11	1	[0, 0, 0]	n/a	catFR1	3	R1328E
246.048	1.343	247667	REC_WORD	7.085	n/a	ORANGUTAN	Zoo	5	1	[0, 0, 0]	n/a	catFR1	3	R1328E
247.391	0.991	249010	REC_WORD	8.428	n/a	MONKEY	Zoo	6	1	[0, 0, 0]	n/a	catFR1	3	R1328E
248.382	1.955	250001	REC_WORD	9.419	n/a	ZEBRA	Zoo	9	1	[0, 0, 0]	n/a	catFR1	3	R1328E
250.337	13.0	251956	REC_WORD	11.374	n/a	BEAR	Zoo	10	1	[0, 0, 0]	n/a	catFR1	3	R1328E
263.337	5.635	264956	REC_WORD_VV	24.374	n/a	<>	n/a	-999	1	[0, 0, 0]	n/a	catFR1	3	R1328E
268.972	0.0	270591	REC_END	n/a	n/a	n/a	n/a	-999	1	[0, 0, 0]	n/a	catFR1	3	R1328E
268.972	0.027	270591	TRIAL_END	n/a	n/a	n/a	n/a	-999	1	[0, 0, 0]	n/a	catFR1	3	R1328E
268.999	0.0	270618	TRIAL	n/a	n/a	n/a	n/a	-999	2	[0, 0, 0]	n/a	catFR1	3	R1328E
268.999	0.001	270618	TRIAL_START	n/a	n/a	n/a	n/a	-999	2	[0, 0, 0]	n/a	catFR1	3	R1328E
269.0	4.818	270619	WAITING_START	n/a	n/a	n/a	n/a	-999	2	[0, 0, 0]	n/a	catFR1	3	R1328E
273.818	0.0	275436	WAITING_END	n/a	n/a	n/a	n/a	-999	2	[0, 0, 0]	n/a	catFR1	3	R1328E
273.818	10.0	275436	COUNTDOWN_START	n/a	n/a	n/a	n/a	-999	2	[0, 0, 0]	n/a	catFR1	3	R1328E
284.247	0.001	285865	COUNTDOWN_END	n/a	n/a	n/a	n/a	-999	2	[0, 0, 0]	n/a	catFR1	3	R1328E
284.248	1.123	285866	ORIENT_START	n/a	n/a	n/a	n/a	-999	2	[0, 0, 0]	n/a	catFR1	3	R1328E
285.371	0.0	286989	ORIENT_END	n/a	n/a	n/a	n/a	-999	2	[0, 0, 0]	n/a	catFR1	3	R1328E
285.371	1.143	286989	ENCODING_START	n/a	n/a	n/a	n/a	-999	2	[0, 0, 0]	n/a	catFR1	3	R1328E
286.514	1.6	288132	WORD	n/a	wordpools/wordpool_categorized_EN.txt	TOASTER	Appliances	1	2	[0, 0, 0]	n/a	catFR1	3	R1328E
288.138	0.847	289756	WORD_OFF	n/a	n/a	TOASTER	Appliances	1	2	[0, 0, 0]	n/a	catFR1	3	R1328E
288.985	1.6	290603	WORD	n/a	wordpools/wordpool_categorized_EN.txt	DISHWASHER	Appliances	2	2	[0, 0, 0]	n/a	catFR1	3	R1328E
290.621	1.105	292239	WORD_OFF	n/a	n/a	DISHWASHER	Appliances	2	2	[0, 0, 0]	n/a	catFR1	3	R1328E
291.726	1.6	293344	WORD	n/a	wordpools/wordpool_categorized_EN.txt	PHONE	Electronics	3	2	[0, 0, 0]	n/a	catFR1	3	R1328E
293.355	0.982	294973	WORD_OFF	n/a	n/a	PHONE	Electronics	3	2	[0, 0, 0]	n/a	catFR1	3	R1328E
294.337	1.6	295955	WORD	n/a	wordpools/wordpool_categorized_EN.txt	SPEAKER	Electronics	4	2	[0, 0, 0]	n/a	catFR1	3	R1328E
295.973	0.765	297591	WORD_OFF	n/a	n/a	SPEAKER	Electronics	4	2	[0, 0, 0]	n/a	catFR1	3	R1328E
296.738	1.6	298356	WORD	n/a	wordpools/wordpool_categorized_EN.txt	BEACH	Landscapes	5	2	[0, 0, 0]	n/a	catFR1	3	R1328E
298.373	0.969	299991	WORD_OFF	n/a	n/a	BEACH	Landscapes	5	2	[0, 0, 0]	n/a	catFR1	3	R1328E
299.342	1.6	300959	WORD	n/a	wordpools/wordpool_categorized_EN.txt	MOUNTAIN	Landscapes	6	2	[0, 0, 0]	n/a	catFR1	3	R1328E
300.973	1.048	302590	WORD_OFF	n/a	n/a	MOUNTAIN	Landscapes	6	2	[0, 0, 0]	n/a	catFR1	3	R1328E
302.021	1.6	303638	WORD	n/a	wordpools/wordpool_categorized_EN.txt	RADIO	Electronics	7	2	[0, 0, 0]	n/a	catFR1	3	R1328E
303.656	0.894	305273	WORD_OFF	n/a	n/a	RADIO	Electronics	7	2	[0, 0, 0]	n/a	catFR1	3	R1328E
304.55	1.6	306167	WORD	n/a	wordpools/wordpool_categorized_EN.txt	TELEVISION	Electronics	8	2	[0, 0, 0]	n/a	catFR1	3	R1328E
306.174	0.902	307791	WORD_OFF	n/a	n/a	TELEVISION	Electronics	8	2	[0, 0, 0]	n/a	catFR1	3	R1328E
307.076	1.6	308693	WORD	n/a	wordpools/wordpool_categorized_EN.txt	CREEK	Landscapes	9	2	[0, 0, 0]	n/a	catFR1	3	R1328E
308.707	0.987	310324	WORD_OFF	n/a	n/a	CREEK	Landscapes	9	2	[0, 0, 0]	n/a	catFR1	3	R1328E
309.694	1.6	311311	WORD	n/a	wordpools/wordpool_categorized_EN.txt	WOODS	Landscapes	10	2	[0, 0, 0]	n/a	catFR1	3	R1328E
311.308	0.794	312925	WORD_OFF	n/a	n/a	WOODS	Landscapes	10	2	[0, 0, 0]	n/a	catFR1	3	R1328E
312.102	1.6	313719	WORD	n/a	wordpools/wordpool_categorized_EN.txt	STOVE	Appliances	11	2	[0, 0, 0]	n/a	catFR1	3	R1328E
313.725	1.079	315342	WORD_OFF	n/a	n/a	STOVE	Appliances	11	2	[0, 0, 0]	n/a	catFR1	3	R1328E
314.804	1.6	316421	WORD	n/a	wordpools/wordpool_categorized_EN.txt	MIXER	Appliances	12	2	[0, 0, 0]	n/a	catFR1	3	R1328E
316.409	0.001	318026	WORD_OFF	n/a	n/a	MIXER	Appliances	12	2	[0, 0, 0]	n/a	catFR1	3	R1328E
316.41	0.0	318027	ENCODING_END	n/a	n/a	n/a	n/a	-999	2	[0, 0, 0]	n/a	catFR1	3	R1328E
316.41	0.0	318027	DISTRACT_START	n/a	n/a	n/a	n/a	-999	2	[0, 0, 0]	n/a	catFR1	3	R1328E
316.41	0.016	318027	START	n/a	n/a	n/a	n/a	-999	2	[-999, -999, -999]	n/a	catFR1	3	R1328E
316.426	4.4	318043	PROB	4.37	n/a	n/a	n/a	-999	2	[3, 3, 2]	8.0	catFR1	3	R1328E
320.826	4.884	322443	PROB	4.857	n/a	n/a	n/a	-999	2	[1, 1, 7]	9.0	catFR1	3	R1328E
325.71	33.665	327327	PROB	33.665	n/a	n/a	n/a	-999	2	[3, 8, 2]	13.0	catFR1	3	R1328E
359.375	0.009	360990	STOP	n/a	n/a	n/a	n/a	-999	2	[-999, -999, -999]	n/a	catFR1	3	R1328E
359.384	0.631	360999	DISTRACT_END	n/a	n/a	n/a	n/a	-999	2	[0, 0, 0]	n/a	catFR1	3	R1328E
360.015	1.6	361630	RETRIEVAL_ORIENT_START	n/a	n/a	n/a	n/a	-999	2	[0, 0, 0]	n/a	catFR1	3	R1328E
361.566	0.001	363181	RETRIEVAL_ORIENT_END	n/a	n/a	n/a	n/a	-999	2	[0, 0, 0]	n/a	catFR1	3	R1328E
361.567	0.406	363182	REC_START	n/a	n/a	n/a	n/a	-999	2	[0, 0, 0]	n/a	catFR1	3	R1328E
361.973	1.0	363588	REC_WORD	0.406	n/a	MOUNTAIN	Landscapes	6	2	[0, 0, 0]	n/a	catFR1	3	R1328E
362.973	0.572	364588	REC_WORD_VV	1.406	n/a	<>	n/a	-999	2	[0, 0, 0]	n/a	catFR1	3	R1328E
363.545	2.293	365160	REC_WORD	1.978	n/a	WOODS	Landscapes	10	2	[0, 0, 0]	n/a	catFR1	3	R1328E
365.838	17.524	367453	REC_WORD_VV	4.271	n/a	<>	n/a	-999	2	[0, 0, 0]	n/a	catFR1	3	R1328E
383.362	6.286	384977	REC_WORD	21.795	n/a	CREEK	Landscapes	9	2	[0, 0, 0]	n/a	catFR1	3	R1328E
389.648	1.928	391262	REC_WORD	28.081	n/a	BEACH	Landscapes	5	2	[0, 0, 0]	n/a	catFR1	3	R1328E
391.576	0.0	393190	REC_END	n/a	n/a	n/a	n/a	-999	2	[0, 0, 0]	n/a	catFR1	3	R1328E
391.576	0.027	393190	TRIAL_END	n/a	n/a	n/a	n/a	-999	2	[0, 0, 0]	n/a	catFR1	3	R1328E
391.603	0.0	393217	TRIAL	n/a	n/a	n/a	n/a	-999	3	[0, 0, 0]	n/a	catFR1	3	R1328E
391.603	0.001	393217	TRIAL_START	n/a	n/a	n/a	n/a	-999	3	[0, 0, 0]	n/a	catFR1	3	R1328E
391.604	7.102	393218	WAITING_START	n/a	n/a	n/a	n/a	-999	3	[0, 0, 0]	n/a	catFR1	3	R1328E
398.706	0.0	400320	WAITING_END	n/a	n/a	n/a	n/a	-999	3	[0, 0, 0]	n/a	catFR1	3	R1328E
398.706	10.0	400320	COUNTDOWN_START	n/a	n/a	n/a	n/a	-999	3	[0, 0, 0]	n/a	catFR1	3	R1328E
409.135	0.001	410749	COUNTDOWN_END	n/a	n/a	n/a	n/a	-999	3	[0, 0, 0]	n/a	catFR1	3	R1328E
409.136	1.14	410750	ORIENT_START	n/a	n/a	n/a	n/a	-999	3	[0, 0, 0]	n/a	catFR1	3	R1328E
410.276	0.0	411890	ORIENT_END	n/a	n/a	n/a	n/a	-999	3	[0, 0, 0]	n/a	catFR1	3	R1328E
410.276	0.972	411890	ENCODING_START	n/a	n/a	n/a	n/a	-999	3	[0, 0, 0]	n/a	catFR1	3	R1328E
411.248	1.6	412862	WORD	n/a	wordpools/wordpool_categorized_EN.txt	SKIRT	Clothing	1	3	[0, 0, 0]	n/a	catFR1	3	R1328E
412.875	0.883	414489	WORD_OFF	n/a	n/a	SKIRT	Clothing	1	3	[0, 0, 0]	n/a	catFR1	3	R1328E
413.758	1.6	415371	WORD	n/a	wordpools/wordpool_categorized_EN.txt	SHOES	Clothing	2	3	[0, 0, 0]	n/a	catFR1	3	R1328E
415.377	1.149	416990	WORD_OFF	n/a	n/a	SHOES	Clothing	2	3	[0, 0, 0]	n/a	catFR1	3	R1328E
416.526	1.6	418139	WORD	n/a	wordpools/wordpool_categorized_EN.txt	VALLEY	Landscapes	3	3	[0, 0, 0]	n/a	catFR1	3	R1328E
418.144	0.845	419757	WORD_OFF	n/a	n/a	VALLEY	Landscapes	3	3	[0, 0, 0]	n/a	catFR1	3	R1328E
418.989	1.6	420602	WORD	n/a	wordpools/wordpool_categorized_EN.txt	STREAM	Landscapes	4	3	[0, 0, 0]	n/a	catFR1	3	R1328E
420.61	1.144	422223	WORD_OFF	n/a	n/a	STREAM	Landscapes	4	3	[0, 0, 0]	n/a	catFR1	3	R1328E
421.754	1.6	423367	WORD	n/a	wordpools/wordpool_categorized_EN.txt	JELLYFISH	OceanAnimals	5	3	[0, 0, 0]	n/a	catFR1	3	R1328E
423.361	0.808	424974	WORD_OFF	n/a	n/a	JELLYFISH	OceanAnimals	5	3	[0, 0, 0]	n/a	catFR1	3	R1328E
424.169	1.6	425782	WORD	n/a	wordpools/wordpool_categorized_EN.txt	SHRIMP	OceanAnimals	6	3	[0, 0, 0]	n/a	catFR1	3	R1328E
425.794	0.802	427407	WORD_OFF	n/a	n/a	SHRIMP	OceanAnimals	6	3	[0, 0, 0]	n/a	catFR1	3	R1328E
426.596	1.6	428209	WORD	n/a	wordpools/wordpool_categorized_EN.txt	RIVER	Landscapes	7	3	[0, 0, 0]	n/a	catFR1	3	R1328E
428.229	0.8	429842	WORD_OFF	n/a	n/a	RIVER	Landscapes	7	3	[0, 0, 0]	n/a	catFR1	3	R1328E
429.029	1.6	430642	WORD	n/a	wordpools/wordpool_categorized_EN.txt	HILLS	Landscapes	8	3	[0, 0, 0]	n/a	catFR1	3	R1328E
430.662	0.922	432275	WORD_OFF	n/a	n/a	HILLS	Landscapes	8	3	[0, 0, 0]	n/a	catFR1	3	R1328E
431.584	1.6	433197	WORD	n/a	wordpools/wordpool_categorized_EN.txt	COAT	Clothing	9	3	[0, 0, 0]	n/a	catFR1	3	R1328E
433.213	0.99	434826	WORD_OFF	n/a	n/a	COAT	Clothing	9	3	[0, 0, 0]	n/a	catFR1	3	R1328E
434.203	1.6	435816	WORD	n/a	wordpools/wordpool_categorized_EN.txt	DRESS	Clothing	10	3	[0, 0, 0]	n/a	catFR1	3	R1328E
435.829	0.945	437442	WORD_OFF	n/a	n/a	DRESS	Clothing	10	3	[0, 0, 0]	n/a	catFR1	3	R1328E
436.774	1.6	438387	WORD	n/a	wordpools/wordpool_categorized_EN.txt	TURTLE	OceanAnimals	11	3	[0, 0, 0]	n/a	catFR1	3	R1328E
438.38	1.116	439993	WORD_OFF	n/a	n/a	TURTLE	OceanAnimals	11	3	[0, 0, 0]	n/a	catFR1	3	R1328E
439.496	1.6	441109	WORD	n/a	wordpools/wordpool_categorized_EN.txt	PLANKTON	OceanAnimals	12	3	[0, 0, 0]	n/a	catFR1	3	R1328E
441.131	0.001	442744	WORD_OFF	n/a	n/a	PLANKTON	OceanAnimals	12	3	[0, 0, 0]	n/a	catFR1	3	R1328E
441.132	0.0	442745	ENCODING_END	n/a	n/a	n/a	n/a	-999	3	[0, 0, 0]	n/a	catFR1	3	R1328E
441.132	0.0	442745	DISTRACT_START	n/a	n/a	n/a	n/a	-999	3	[0, 0, 0]	n/a	catFR1	3	R1328E
441.132	0.016	442745	START	n/a	n/a	n/a	n/a	-999	3	[-999, -999, -999]	n/a	catFR1	3	R1328E
441.148	32.033	442761	PROB	32.033	n/a	n/a	n/a	-999	3	[2, 9, 6]	17.0	catFR1	3	R1328E
473.181	0.006	474792	STOP	n/a	n/a	n/a	n/a	-999	3	[-999, -999, -999]	n/a	catFR1	3	R1328E
473.187	0.534	474798	DISTRACT_END	n/a	n/a	n/a	n/a	-999	3	[0, 0, 0]	n/a	catFR1	3	R1328E
473.721	1.6	475332	RETRIEVAL_ORIENT_START	n/a	n/a	n/a	n/a	-999	3	[0, 0, 0]	n/a	catFR1	3	R1328E
475.387	0.0	476998	RETRIEVAL_ORIENT_END	n/a	n/a	n/a	n/a	-999	3	[0, 0, 0]	n/a	catFR1	3	R1328E
475.387	0.314	476998	REC_START	n/a	n/a	n/a	n/a	-999	3	[0, 0, 0]	n/a	catFR1	3	R1328E
475.701	1.364	477312	REC_WORD	0.314	n/a	PLANKTON	OceanAnimals	12	3	[0, 0, 0]	n/a	catFR1	3	R1328E
477.065	2.703	478676	REC_WORD	1.678	n/a	SHRIMP	OceanAnimals	6	3	[0, 0, 0]	n/a	catFR1	3	R1328E
479.768	3.145	481379	REC_WORD	4.381	n/a	JELLYFISH	OceanAnimals	5	3	[0, 0, 0]	n/a	catFR1	3	R1328E
482.913	5.873	484524	REC_WORD	7.526	n/a	VALLEY	Landscapes	3	3	[0, 0, 0]	n/a	catFR1	3	R1328E
488.786	12.775	490397	REC_WORD	13.399	n/a	STREAM	Landscapes	4	3	[0, 0, 0]	n/a	catFR1	3	R1328E
501.561	2.171	503171	REC_WORD	26.174	n/a	SKIRT	Clothing	1	3	[0, 0, 0]	n/a	catFR1	3	R1328E
503.732	1.668	505342	REC_WORD	28.345	n/a	DRESS	Clothing	10	3	[0, 0, 0]	n/a	catFR1	3	R1328E
505.4	0.0	507010	TRIAL_END	n/a	n/a	n/a	n/a	-999	3	[0, 0, 0]	n/a	catFR1	3	R1328E
505.4	0.027	507010	REC_END	n/a	n/a	n/a	n/a	-999	3	[0, 0, 0]	n/a	catFR1	3	R1328E
505.427	0.0	507037	TRIAL_START	n/a	n/a	n/a	n/a	-999	4	[0, 0, 0]	n/a	catFR1	3	R1328E
505.427	0.0	507037	TRIAL	n/a	n/a	n/a	n/a	-999	4	[0, 0, 0]	n/a	catFR1	3	R1328E
505.427	3.65	507037	WAITING_START	n/a	n/a	n/a	n/a	-999	4	[0, 0, 0]	n/a	catFR1	3	R1328E
509.077	0.0	510687	WAITING_END	n/a	n/a	n/a	n/a	-999	4	[0, 0, 0]	n/a	catFR1	3	R1328E
509.077	10.0	510687	COUNTDOWN_START	n/a	n/a	n/a	n/a	-999	4	[0, 0, 0]	n/a	catFR1	3	R1328E
519.506	0.001	521116	COUNTDOWN_END	n/a	n/a	n/a	n/a	-999	4	[0, 0, 0]	n/a	catFR1	3	R1328E
519.507	1.22	521117	ORIENT_START	n/a	n/a	n/a	n/a	-999	4	[0, 0, 0]	n/a	catFR1	3	R1328E
520.727	0.001	522337	ORIENT_END	n/a	n/a	n/a	n/a	-999	4	[0, 0, 0]	n/a	catFR1	3	R1328E
520.728	1.08	522338	ENCODING_START	n/a	n/a	n/a	n/a	-999	4	[0, 0, 0]	n/a	catFR1	3	R1328E
521.808	1.6	523418	WORD	n/a	wordpools/wordpool_categorized_EN.txt	COW	FarmAnimals	1	4	[0, 0, 0]	n/a	catFR1	3	R1328E
523.429	0.822	525039	WORD_OFF	n/a	n/a	COW	FarmAnimals	1	4	[0, 0, 0]	n/a	catFR1	3	R1328E
524.251	1.6	525861	WORD	n/a	wordpools/wordpool_categorized_EN.txt	BULL	FarmAnimals	2	4	[0, 0, 0]	n/a	catFR1	3	R1328E
525.878	1.045	527488	WORD_OFF	n/a	n/a	BULL	FarmAnimals	2	4	[0, 0, 0]	n/a	catFR1	3	R1328E
526.923	1.6	528533	WORD	n/a	wordpools/wordpool_categorized_EN.txt	ISLAND	Landscapes	3	4	[0, 0, 0]	n/a	catFR1	3	R1328E
528.546	0.954	530155	WORD_OFF	n/a	n/a	ISLAND	Landscapes	3	4	[0, 0, 0]	n/a	catFR1	3	R1328E
529.5	1.6	531109	WORD	n/a	wordpools/wordpool_categorized_EN.txt	OCEAN	Landscapes	4	4	[0, 0, 0]	n/a	catFR1	3	R1328E
531.13	1.072	532739	WORD_OFF	n/a	n/a	OCEAN	Landscapes	4	4	[0, 0, 0]	n/a	catFR1	3	R1328E
532.202	1.6	533811	WORD	n/a	wordpools/wordpool_categorized_EN.txt	ELEPHANT	Zoo	5	4	[0, 0, 0]	n/a	catFR1	3	R1328E
533.83	0.886	535439	WORD_OFF	n/a	n/a	ELEPHANT	Zoo	5	4	[0, 0, 0]	n/a	catFR1	3	R1328E
534.716	1.6	536325	WORD	n/a	wordpools/wordpool_categorized_EN.txt	GIRAFFE	Zoo	6	4	[0, 0, 0]	n/a	catFR1	3	R1328E
536.348	0.823	537957	WORD_OFF	n/a	n/a	GIRAFFE	Zoo	6	4	[0, 0, 0]	n/a	catFR1	3	R1328E
537.171	1.6	538780	WORD	n/a	wordpools/wordpool_categorized_EN.txt	CALF	FarmAnimals	7	4	[0, 0, 0]	n/a	catFR1	3	R1328E
538.797	0.777	540406	WORD_OFF	n/a	n/a	CALF	FarmAnimals	7	4	[0, 0, 0]	n/a	catFR1	3	R1328E
539.574	1.6	541183	WORD	n/a	wordpools/wordpool_categorized_EN.txt	HORSE	FarmAnimals	8	4	[0, 0, 0]	n/a	catFR1	3	R1328E
541.199	0.761	542808	WORD_OFF	n/a	n/a	HORSE	FarmAnimals	8	4	[0, 0, 0]	n/a	catFR1	3	R1328E
541.96	1.6	543569	WORD	n/a	wordpools/wordpool_categorized_EN.txt	FOREST	Landscapes	9	4	[0, 0, 0]	n/a	catFR1	3	R1328E
543.581	0.994	545190	WORD_OFF	n/a	n/a	FOREST	Landscapes	9	4	[0, 0, 0]	n/a	catFR1	3	R1328E
544.575	1.6	546184	WORD	n/a	wordpools/wordpool_categorized_EN.txt	LAKE	Landscapes	10	4	[0, 0, 0]	n/a	catFR1	3	R1328E
546.2	0.862	547809	WORD_OFF	n/a	n/a	LAKE	Landscapes	10	4	[0, 0, 0]	n/a	catFR1	3	R1328E
547.062	1.6	548671	WORD	n/a	wordpools/wordpool_categorized_EN.txt	TIGER	Zoo	11	4	[0, 0, 0]	n/a	catFR1	3	R1328E
548.682	0.849	550291	WORD_OFF	n/a	n/a	TIGER	Zoo	11	4	[0, 0, 0]	n/a	catFR1	3	R1328E
549.531	1.6	551140	WORD	n/a	wordpools/wordpool_categorized_EN.txt	LION	Zoo	12	4	[0, 0, 0]	n/a	catFR1	3	R1328E
551.15	0.001	552759	WORD_OFF	n/a	n/a	LION	Zoo	12	4	[0, 0, 0]	n/a	catFR1	3	R1328E
551.151	0.0	552760	ENCODING_END	n/a	n/a	n/a	n/a	-999	4	[0, 0, 0]	n/a	catFR1	3	R1328E
551.151	0.0	552760	DISTRACT_START	n/a	n/a	n/a	n/a	-999	4	[0, 0, 0]	n/a	catFR1	3	R1328E
551.151	0.016	552760	START	n/a	n/a	n/a	n/a	-999	4	[-999, -999, -999]	n/a	catFR1	3	R1328E
551.167	15.169	552776	PROB	15.131	n/a	n/a	n/a	-999	4	[1, 1, 5]	7.0	catFR1	3	R1328E
566.336	9.015	567944	PROB	9.015	n/a	n/a	n/a	-999	4	[2, 4, 3]	9.0	catFR1	3	R1328E
575.351	0.02	576959	STOP	n/a	n/a	n/a	n/a	-999	4	[-999, -999, -999]	n/a	catFR1	3	R1328E
575.371	0.643	576979	DISTRACT_END	n/a	n/a	n/a	n/a	-999	4	[0, 0, 0]	n/a	catFR1	3	R1328E
576.014	1.6	577622	RETRIEVAL_ORIENT_START	n/a	n/a	n/a	n/a	-999	4	[0, 0, 0]	n/a	catFR1	3	R1328E
577.654	0.0	579262	RETRIEVAL_ORIENT_END	n/a	n/a	n/a	n/a	-999	4	[0, 0, 0]	n/a	catFR1	3	R1328E
577.654	1.175	579262	REC_START	n/a	n/a	n/a	n/a	-999	4	[0, 0, 0]	n/a	catFR1	3	R1328E
578.829	0.82	580437	REC_WORD	1.175	n/a	GIRAFFE	Zoo	6	4	[0, 0, 0]	n/a	catFR1	3	R1328E
579.649	1.823	581257	REC_WORD	1.995	n/a	ELEPHANT	Zoo	5	4	[0, 0, 0]	n/a	catFR1	3	R1328E
581.472	1.694	583080	REC_WORD	3.818	n/a	COW	FarmAnimals	1	4	[0, 0, 0]	n/a	catFR1	3	R1328E
583.166	1.496	584774	REC_WORD	5.512	n/a	BULL	FarmAnimals	2	4	[0, 0, 0]	n/a	catFR1	3	R1328E
584.662	0.871	586270	REC_WORD	7.008	n/a	CALF	FarmAnimals	7	4	[0, 0, 0]	n/a	catFR1	3	R1328E
585.533	1.695	587141	REC_WORD	7.879	n/a	HORSE	FarmAnimals	8	4	[0, 0, 0]	n/a	catFR1	3	R1328E
587.228	1.224	588835	REC_WORD	9.574	n/a	TIGER	Zoo	11	4	[0, 0, 0]	n/a	catFR1	3	R1328E
588.452	19.212	590059	REC_WORD	10.798	n/a	LION	Zoo	12	4	[0, 0, 0]	n/a	catFR1	3	R1328E
607.664	0.001	609271	REC_END	n/a	n/a	n/a	n/a	-999	4	[0, 0, 0]	n/a	catFR1	3	R1328E
607.665	0.026	609272	TRIAL_END	n/a	n/a	n/a	n/a	-999	4	[0, 0, 0]	n/a	catFR1	3	R1328E
607.691	0.0	609298	TRIAL_START	n/a	n/a	n/a	n/a	-999	5	[0, 0, 0]	n/a	catFR1	3	R1328E
607.691	0.0	609298	TRIAL	n/a	n/a	n/a	n/a	-999	5	[0, 0, 0]	n/a	catFR1	3	R1328E
607.691	3.836	609298	WAITING_START	n/a	n/a	n/a	n/a	-999	5	[0, 0, 0]	n/a	catFR1	3	R1328E
611.527	0.0	613134	WAITING_END	n/a	n/a	n/a	n/a	-999	5	[0, 0, 0]	n/a	catFR1	3	R1328E
611.527	10.0	613134	COUNTDOWN_START	n/a	n/a	n/a	n/a	-999	5	[0, 0, 0]	n/a	catFR1	3	R1328E
621.955	0.001	623561	COUNTDOWN_END	n/a	n/a	n/a	n/a	-999	5	[0, 0, 0]	n/a	catFR1	3	R1328E
621.956	1.04	623562	ORIENT_START	n/a	n/a	n/a	n/a	-999	5	[0, 0, 0]	n/a	catFR1	3	R1328E
622.996	0.001	624602	ORIENT_END	n/a	n/a	n/a	n/a	-999	5	[0, 0, 0]	n/a	catFR1	3	R1328E
622.997	0.946	624603	ENCODING_START	n/a	n/a	n/a	n/a	-999	5	[0, 0, 0]	n/a	catFR1	3	R1328E
623.943	1.6	625549	WORD	n/a	wordpools/wordpool_categorized_EN.txt	SEAGULL	Birds	1	5	[0, 0, 0]	n/a	catFR1	3	R1328E
625.579	0.878	627185	WORD_OFF	n/a	n/a	SEAGULL	Birds	1	5	[0, 0, 0]	n/a	catFR1	3	R1328E
626.457	1.6	628063	WORD	n/a	wordpools/wordpool_categorized_EN.txt	HAWK	Birds	2	5	[0, 0, 0]	n/a	catFR1	3	R1328E
628.064	1.002	629670	WORD_OFF	n/a	n/a	HAWK	Birds	2	5	[0, 0, 0]	n/a	catFR1	3	R1328E
629.066	1.6	630672	WORD	n/a	wordpools/wordpool_categorized_EN.txt	ATTIC	Building	3	5	[0, 0, 0]	n/a	catFR1	3	R1328E
630.697	1.113	632303	WORD_OFF	n/a	n/a	ATTIC	Building	3	5	[0, 0, 0]	n/a	catFR1	3	R1328E
631.81	1.6	633416	WORD	n/a	wordpools/wordpool_categorized_EN.txt	ROOM	Building	4	5	[0, 0, 0]	n/a	catFR1	3	R1328E
633.447	1.06	635053	WORD_OFF	n/a	n/a	ROOM	Building	4	5	[0, 0, 0]	n/a	catFR1	3	R1328E
634.507	1.6	636113	WORD	n/a	wordpools/wordpool_categorized_EN.txt	GLUE	OfficeSupplies	5	5	[0, 0, 0]	n/a	catFR1	3	R1328E
636.132	1.009	637738	WORD_OFF	n/a	n/a	GLUE	OfficeSupplies	5	5	[0, 0, 0]	n/a	catFR1	3	R1328E
637.141	1.6	638747	WORD	n/a	wordpools/wordpool_categorized_EN.txt	ERASER	OfficeSupplies	6	5	[0, 0, 0]	n/a	catFR1	3	R1328E
638.765	0.993	640371	WORD_OFF	n/a	n/a	ERASER	OfficeSupplies	6	5	[0, 0, 0]	n/a	catFR1	3	R1328E
639.758	1.6	641364	WORD	n/a	wordpools/wordpool_categorized_EN.txt	GOOSE	Birds	7	5	[0, 0, 0]	n/a	catFR1	3	R1328E
641.383	1.004	642989	WORD_OFF	n/a	n/a	GOOSE	Birds	7	5	[0, 0, 0]	n/a	catFR1	3	R1328E
642.387	1.6	643993	WORD	n/a	wordpools/wordpool_categorized_EN.txt	CARDINAL	Birds	8	5	[0, 0, 0]	n/a	catFR1	3	R1328E
644.017	0.885	645622	WORD_OFF	n/a	n/a	CARDINAL	Birds	8	5	[0, 0, 0]	n/a	catFR1	3	R1328E
644.902	1.6	646507	WORD	n/a	wordpools/wordpool_categorized_EN.txt	STAIRS	Building	9	5	[0, 0, 0]	n/a	catFR1	3	R1328E
646.533	1.114	648138	WORD_OFF	n/a	n/a	STAIRS	Building	9	5	[0, 0, 0]	n/a	catFR1	3	R1328E
647.647	1.6	649252	WORD	n/a	wordpools/wordpool_categorized_EN.txt	CEILING	Building	10	5	[0, 0, 0]	n/a	catFR1	3	R1328E
649.268	0.859	650873	WORD_OFF	n/a	n/a	CEILING	Building	10	5	[0, 0, 0]	n/a	catFR1	3	R1328E
650.127	1.6	651732	WORD	n/a	wordpools/wordpool_categorized_EN.txt	STAPLER	OfficeSupplies	11	5	[0, 0, 0]	n/a	catFR1	3	R1328E
651.75	0.779	653355	WORD_OFF	n/a	n/a	STAPLER	OfficeSupplies	11	5	[0, 0, 0]	n/a	catFR1	3	R1328E
652.529	1.6	654134	WORD	n/a	wordpools/wordpool_categorized_EN.txt	FOLDER	OfficeSupplies	12	5	[0, 0, 0]	n/a	catFR1	3	R1328E
654.152	0.0	655757	WORD_OFF	n/a	n/a	FOLDER	OfficeSupplies	12	5	[0, 0, 0]	n/a	catFR1	3	R1328E
654.152	0.0	655757	ENCODING_END	n/a	n/a	n/a	n/a	-999	5	[0, 0, 0]	n/a	catFR1	3	R1328E
654.152	0.0	655757	DISTRACT_START	n/a	n/a	n/a	n/a	-999	5	[0, 0, 0]	n/a	catFR1	3	R1328E
654.152	0.016	655757	START	n/a	n/a	n/a	n/a	-999	5	[-999, -999, -999]	n/a	catFR1	3	R1328E
654.168	13.903	655773	PROB	13.875	n/a	n/a	n/a	-999	5	[5, 5, 4]	14.0	catFR1	3	R1328E
668.071	15.024	669676	PROB	15.024	n/a	n/a	n/a	-999	5	[7, 8, 6]	21.0	catFR1	3	R1328E
683.095	0.012	684699	STOP	n/a	n/a	n/a	n/a	-999	5	[-999, -999, -999]	n/a	catFR1	3	R1328E
683.107	0.699	684711	DISTRACT_END	n/a	n/a	n/a	n/a	-999	5	[0, 0, 0]	n/a	catFR1	3	R1328E
683.806	1.6	685410	RETRIEVAL_ORIENT_START	n/a	n/a	n/a	n/a	-999	5	[0, 0, 0]	n/a	catFR1	3	R1328E
685.54	0.0	687144	RETRIEVAL_ORIENT_END	n/a	n/a	n/a	n/a	-999	5	[0, 0, 0]	n/a	catFR1	3	R1328E
685.54	0.411	687144	REC_START	n/a	n/a	n/a	n/a	-999	5	[0, 0, 0]	n/a	catFR1	3	R1328E
685.951	1.086	687555	REC_WORD	0.411	n/a	ATTIC	Building	3	5	[0, 0, 0]	n/a	catFR1	3	R1328E
687.037	1.775	688641	REC_WORD	1.497	n/a	ROOM	Building	4	5	[0, 0, 0]	n/a	catFR1	3	R1328E
688.812	0.948	690416	REC_WORD	3.272	n/a	GLUE	OfficeSupplies	5	5	[0, 0, 0]	n/a	catFR1	3	R1328E
689.76	2.535	691364	REC_WORD	4.22	n/a	ERASER	OfficeSupplies	6	5	[0, 0, 0]	n/a	catFR1	3	R1328E
692.295	0.98	693899	REC_WORD	6.755	n/a	STAIRS	Building	9	5	[0, 0, 0]	n/a	catFR1	3	R1328E
693.275	2.207	694879	REC_WORD	7.735	n/a	CEILING	Building	10	5	[0, 0, 0]	n/a	catFR1	3	R1328E
695.482	0.589	697086	REC_WORD	9.942	n/a	FOLDER	OfficeSupplies	12	5	[0, 0, 0]	n/a	catFR1	3	R1328E
696.071	19.478	697675	REC_WORD	10.531	n/a	STAPLER	OfficeSupplies	11	5	[0, 0, 0]	n/a	catFR1	3	R1328E
715.549	0.001	717152	REC_END	n/a	n/a	n/a	n/a	-999	5	[0, 0, 0]	n/a	catFR1	3	R1328E
715.55	0.026	717153	TRIAL_END	n/a	n/a	n/a	n/a	-999	5	[0, 0, 0]	n/a	catFR1	3	R1328E
715.576	0.0	717179	TRIAL_START	n/a	n/a	n/a	n/a	-999	6	[0, 0, 0]	n/a	catFR1	3	R1328E
715.576	0.001	717179	TRIAL	n/a	n/a	n/a	n/a	-999	6	[0, 0, 0]	n/a	catFR1	3	R1328E
715.577	5.787	717180	WAITING_START	n/a	n/a	n/a	n/a	-999	6	[0, 0, 0]	n/a	catFR1	3	R1328E
721.364	0.0	722967	WAITING_END	n/a	n/a	n/a	n/a	-999	6	[0, 0, 0]	n/a	catFR1	3	R1328E
721.364	10.0	722967	COUNTDOWN_START	n/a	n/a	n/a	n/a	-999	6	[0, 0, 0]	n/a	catFR1	3	R1328E
731.792	0.0	733394	COUNTDOWN_END	n/a	n/a	n/a	n/a	-999	6	[0, 0, 0]	n/a	catFR1	3	R1328E
731.792	1.224	733394	ORIENT_START	n/a	n/a	n/a	n/a	-999	6	[0, 0, 0]	n/a	catFR1	3	R1328E
733.016	0.0	734618	ENCODING_START	n/a	n/a	n/a	n/a	-999	6	[0, 0, 0]	n/a	catFR1	3	R1328E
733.016	1.127	734618	ORIENT_END	n/a	n/a	n/a	n/a	-999	6	[0, 0, 0]	n/a	catFR1	3	R1328E
734.143	1.6	735745	WORD	n/a	wordpools/wordpool_categorized_EN.txt	JUICE	Beverages	1	6	[0, 0, 0]	n/a	catFR1	3	R1328E
735.765	1.079	737367	WORD_OFF	n/a	n/a	JUICE	Beverages	1	6	[0, 0, 0]	n/a	catFR1	3	R1328E
736.844	1.6	738446	WORD	n/a	wordpools/wordpool_categorized_EN.txt	BEER	Beverages	2	6	[0, 0, 0]	n/a	catFR1	3	R1328E
738.466	0.959	740068	WORD_OFF	n/a	n/a	BEER	Beverages	2	6	[0, 0, 0]	n/a	catFR1	3	R1328E
739.425	1.6	741027	WORD	n/a	wordpools/wordpool_categorized_EN.txt	FOOT	BodyParts	3	6	[0, 0, 0]	n/a	catFR1	3	R1328E
741.034	1.036	742636	WORD_OFF	n/a	n/a	FOOT	BodyParts	3	6	[0, 0, 0]	n/a	catFR1	3	R1328E
742.07	1.6	743672	WORD	n/a	wordpools/wordpool_categorized_EN.txt	HAND	BodyParts	4	6	[0, 0, 0]	n/a	catFR1	3	R1328E
743.7	1.058	745302	WORD_OFF	n/a	n/a	HAND	BodyParts	4	6	[0, 0, 0]	n/a	catFR1	3	R1328E
744.758	1.6	746360	WORD	n/a	wordpools/wordpool_categorized_EN.txt	LILY	Flowers	5	6	[0, 0, 0]	n/a	catFR1	3	R1328E
746.385	0.852	747987	WORD_OFF	n/a	n/a	LILY	Flowers	5	6	[0, 0, 0]	n/a	catFR1	3	R1328E
747.237	1.6	748839	WORD	n/a	wordpools/wordpool_categorized_EN.txt	MARIGOLD	Flowers	6	6	[0, 0, 0]	n/a	catFR1	3	R1328E
748.867	0.856	750469	WORD_OFF	n/a	n/a	MARIGOLD	Flowers	6	6	[0, 0, 0]	n/a	catFR1	3	R1328E
749.723	1.6	751325	WORD	n/a	wordpools/wordpool_categorized_EN.txt	EYE	BodyParts	7	6	[0, 0, 0]	n/a	catFR1	3	R1328E
751.352	0.941	752954	WORD_OFF	n/a	n/a	EYE	BodyParts	7	6	[0, 0, 0]	n/a	catFR1	3	R1328E
752.293	1.6	753895	WORD	n/a	wordpools/wordpool_categorized_EN.txt	EAR	BodyParts	8	6	[0, 0, 0]	n/a	catFR1	3	R1328E
753.918	1.142	755520	WORD_OFF	n/a	n/a	EAR	BodyParts	8	6	[0, 0, 0]	n/a	catFR1	3	R1328E
755.06	1.6	756662	WORD	n/a	wordpools/wordpool_categorized_EN.txt	COLA	Beverages	9	6	[0, 0, 0]	n/a	catFR1	3	R1328E
756.686	0.789	758288	WORD_OFF	n/a	n/a	COLA	Beverages	9	6	[0, 0, 0]	n/a	catFR1	3	R1328E
757.475	1.6	759077	WORD	n/a	wordpools/wordpool_categorized_EN.txt	WINE	Beverages	10	6	[0, 0, 0]	n/a	catFR1	3	R1328E
759.087	1.027	760688	WORD_OFF	n/a	n/a	WINE	Beverages	10	6	[0, 0, 0]	n/a	catFR1	3	R1328E
760.114	1.6	761715	WORD	n/a	wordpools/wordpool_categorized_EN.txt	DAISY	Flowers	11	6	[0, 0, 0]	n/a	catFR1	3	R1328E
761.736	0.868	763337	WORD_OFF	n/a	n/a	DAISY	Flowers	11	6	[0, 0, 0]	n/a	catFR1	3	R1328E
762.604	1.6	764205	WORD	n/a	wordpools/wordpool_categorized_EN.txt	ORCHID	Flowers	12	6	[0, 0, 0]	n/a	catFR1	3	R1328E
764.238	0.0	765839	WORD_OFF	n/a	n/a	ORCHID	Flowers	12	6	[0, 0, 0]	n/a	catFR1	3	R1328E
764.238	0.0	765839	ENCODING_END	n/a	n/a	n/a	n/a	-999	6	[0, 0, 0]	n/a	catFR1	3	R1328E
764.238	0.001	765839	DISTRACT_START	n/a	n/a	n/a	n/a	-999	6	[0, 0, 0]	n/a	catFR1	3	R1328E
764.239	0.015	765840	START	n/a	n/a	n/a	n/a	-999	6	[-999, -999, -999]	n/a	catFR1	3	R1328E
764.254	10.484	765855	PROB	10.454	n/a	n/a	n/a	-999	6	[3, 6, 2]	11.0	catFR1	3	R1328E
774.738	7.052	776339	PROB	7.025	n/a	n/a	n/a	-999	6	[8, 1, 3]	12.0	catFR1	3	R1328E
781.79	11.636	783391	PROB	11.636	n/a	n/a	n/a	-999	6	[5, 8, 4]	17.0	catFR1	3	R1328E
793.426	0.016	795026	STOP	n/a	n/a	n/a	n/a	-999	6	[-999, -999, -999]	n/a	catFR1	3	R1328E
793.442	0.681	795042	DISTRACT_END	n/a	n/a	n/a	n/a	-999	6	[0, 0, 0]	n/a	catFR1	3	R1328E
794.123	1.6	795723	RETRIEVAL_ORIENT_START	n/a	n/a	n/a	n/a	-999	6	[0, 0, 0]	n/a	catFR1	3	R1328E
795.642	0.001	797242	RETRIEVAL_ORIENT_END	n/a	n/a	n/a	n/a	-999	6	[0, 0, 0]	n/a	catFR1	3	R1328E
795.643	0.05	797243	REC_START	n/a	n/a	n/a	n/a	-999	6	[0, 0, 0]	n/a	catFR1	3	R1328E
795.693	1.294	797293	REC_WORD	0.05	n/a	MARIGOLD	Flowers	6	6	[0, 0, 0]	n/a	catFR1	3	R1328E
796.987	18.088	798587	REC_WORD	1.344	n/a	ORCHID	Flowers	12	6	[0, 0, 0]	n/a	catFR1	3	R1328E
815.075	6.198	816675	REC_WORD	19.432	n/a	LILY	Flowers	5	6	[0, 0, 0]	n/a	catFR1	3	R1328E
821.273	4.38	822872	REC_WORD	25.63	n/a	DAISY	Flowers	11	6	[0, 0, 0]	n/a	catFR1	3	R1328E
825.653	0.0	827252	REC_END	n/a	n/a	n/a	n/a	-999	6	[0, 0, 0]	n/a	catFR1	3	R1328E
825.653	0.026	827252	TRIAL_END	n/a	n/a	n/a	n/a	-999	6	[0, 0, 0]	n/a	catFR1	3	R1328E
825.679	0.0	827278	TRIAL_START	n/a	n/a	n/a	n/a	-999	7	[0, 0, 0]	n/a	catFR1	3	R1328E
825.679	0.001	827278	TRIAL	n/a	n/a	n/a	n/a	-999	7	[0, 0, 0]	n/a	catFR1	3	R1328E
825.68	7.487	827279	WAITING_START	n/a	n/a	n/a	n/a	-999	7	[0, 0, 0]	n/a	catFR1	3	R1328E
833.167	0.0	834766	WAITING_END	n/a	n/a	n/a	n/a	-999	7	[0, 0, 0]	n/a	catFR1	3	R1328E
833.167	10.0	834766	COUNTDOWN_START	n/a	n/a	n/a	n/a	-999	7	[0, 0, 0]	n/a	catFR1	3	R1328E
843.595	0.0	845194	COUNTDOWN_END	n/a	n/a	n/a	n/a	-999	7	[0, 0, 0]	n/a	catFR1	3	R1328E
843.595	1.089	845194	ORIENT_START	n/a	n/a	n/a	n/a	-999	7	[0, 0, 0]	n/a	catFR1	3	R1328E
844.684	0.001	846282	ORIENT_END	n/a	n/a	n/a	n/a	-999	7	[0, 0, 0]	n/a	catFR1	3	R1328E
844.685	0.867	846283	ENCODING_START	n/a	n/a	n/a	n/a	-999	7	[0, 0, 0]	n/a	catFR1	3	R1328E
845.552	1.6	847150	WORD	n/a	wordpools/wordpool_categorized_EN.txt	PRINTER	Electronics	1	7	[0, 0, 0]	n/a	catFR1	3	R1328E
847.186	1.139	848784	WORD_OFF	n/a	n/a	PRINTER	Electronics	1	7	[0, 0, 0]	n/a	catFR1	3	R1328E
848.325	1.6	849923	WORD	n/a	wordpools/wordpool_categorized_EN.txt	HEADPHONES	Electronics	2	7	[0, 0, 0]	n/a	catFR1	3	R1328E
849.953	1.068	851551	WORD_OFF	n/a	n/a	HEADPHONES	Electronics	2	7	[0, 0, 0]	n/a	catFR1	3	R1328E
851.021	1.6	852619	WORD	n/a	wordpools/wordpool_categorized_EN.txt	CHAIR	Furniture	3	7	[0, 0, 0]	n/a	catFR1	3	R1328E
852.652	0.843	854250	WORD_OFF	n/a	n/a	CHAIR	Furniture	3	7	[0, 0, 0]	n/a	catFR1	3	R1328E
853.495	1.6	855093	WORD	n/a	wordpools/wordpool_categorized_EN.txt	SOFA	Furniture	4	7	[0, 0, 0]	n/a	catFR1	3	R1328E
855.104	1.139	856702	WORD_OFF	n/a	n/a	SOFA	Furniture	4	7	[0, 0, 0]	n/a	catFR1	3	R1328E
856.243	1.6	857841	WORD	n/a	wordpools/wordpool_categorized_EN.txt	WHALE	OceanAnimals	5	7	[0, 0, 0]	n/a	catFR1	3	R1328E
857.87	0.81	859468	WORD_OFF	n/a	n/a	WHALE	OceanAnimals	5	7	[0, 0, 0]	n/a	catFR1	3	R1328E
858.68	1.6	860278	WORD	n/a	wordpools/wordpool_categorized_EN.txt	DOLPHIN	OceanAnimals	6	7	[0, 0, 0]	n/a	catFR1	3	R1328E
860.288	0.982	861886	WORD_OFF	n/a	n/a	DOLPHIN	OceanAnimals	6	7	[0, 0, 0]	n/a	catFR1	3	R1328E
861.27	1.6	862868	WORD	n/a	wordpools/wordpool_categorized_EN.txt	TABLE	Furniture	7	7	[0, 0, 0]	n/a	catFR1	3	R1328E
862.904	1.049	864502	WORD_OFF	n/a	n/a	TABLE	Furniture	7	7	[0, 0, 0]	n/a	catFR1	3	R1328E
863.953	1.6	865551	WORD	n/a	wordpools/wordpool_categorized_EN.txt	BOOKCASE	Furniture	8	7	[0, 0, 0]	n/a	catFR1	3	R1328E
865.588	1.009	867186	WORD_OFF	n/a	n/a	BOOKCASE	Furniture	8	7	[0, 0, 0]	n/a	catFR1	3	R1328E
866.597	1.6	868195	WORD	n/a	wordpools/wordpool_categorized_EN.txt	STEREO	Electronics	9	7	[0, 0, 0]	n/a	catFR1	3	R1328E
868.206	0.993	869804	WORD_OFF	n/a	n/a	STEREO	Electronics	9	7	[0, 0, 0]	n/a	catFR1	3	R1328E
869.199	1.6	870797	WORD	n/a	wordpools/wordpool_categorized_EN.txt	SCANNER	Electronics	10	7	[0, 0, 0]	n/a	catFR1	3	R1328E
870.822	0.914	872420	WORD_OFF	n/a	n/a	SCANNER	Electronics	10	7	[0, 0, 0]	n/a	catFR1	3	R1328E
871.736	1.6	873334	WORD	n/a	wordpools/wordpool_categorized_EN.txt	CRAB	OceanAnimals	11	7	[0, 0, 0]	n/a	catFR1	3	R1328E
873.374	0.774	874971	WORD_OFF	n/a	n/a	CRAB	OceanAnimals	11	7	[0, 0, 0]	n/a	catFR1	3	R1328E
874.148	1.6	875745	WORD	n/a	wordpools/wordpool_categorized_EN.txt	OYSTER	OceanAnimals	12	7	[0, 0, 0]	n/a	catFR1	3	R1328E
875.773	0.0	877370	WORD_OFF	n/a	n/a	OYSTER	OceanAnimals	12	7	[0, 0, 0]	n/a	catFR1	3	R1328E
875.773	0.001	877370	ENCODING_END	n/a	n/a	n/a	n/a	-999	7	[0, 0, 0]	n/a	catFR1	3	R1328E
875.774	0.0	877371	DISTRACT_START	n/a	n/a	n/a	n/a	-999	7	[0, 0, 0]	n/a	catFR1	3	R1328E
875.774	0.015	877371	START	n/a	n/a	n/a	n/a	-999	7	[-999, -999, -999]	n/a	catFR1	3	R1328E
875.789	7.802	877386	PROB	7.78	n/a	n/a	n/a	-999	7	[6, 9, 2]	17.0	catFR1	3	R1328E
883.591	6.918	885188	PROB	6.894	n/a	n/a	n/a	-999	7	[4, 8, 8]	20.0	catFR1	3	R1328E
890.509	34.922	892106	PROB	34.922	n/a	n/a	n/a	-999	7	[6, 9, 5]	20.0	catFR1	3	R1328E
925.431	0.017	927027	STOP	n/a	n/a	n/a	n/a	-999	7	[-999, -999, -999]	n/a	catFR1	3	R1328E
925.448	0.587	927044	DISTRACT_END	n/a	n/a	n/a	n/a	-999	7	[0, 0, 0]	n/a	catFR1	3	R1328E
926.035	1.6	927631	RETRIEVAL_ORIENT_START	n/a	n/a	n/a	n/a	-999	7	[0, 0, 0]	n/a	catFR1	3	R1328E
927.632	0.0	929228	RETRIEVAL_ORIENT_END	n/a	n/a	n/a	n/a	-999	7	[0, 0, 0]	n/a	catFR1	3	R1328E
927.632	29.988	929228	REC_START	n/a	n/a	n/a	n/a	-999	7	[0, 0, 0]	n/a	catFR1	3	R1328E
957.62	0.023	959215	REC_WORD_VV	29.988	n/a	<>	n/a	-999	7	[0, 0, 0]	n/a	catFR1	3	R1328E
957.643	0.0	959238	TRIAL_END	n/a	n/a	n/a	n/a	-999	7	[0, 0, 0]	n/a	catFR1	3	R1328E
957.643	0.027	959238	REC_END	n/a	n/a	n/a	n/a	-999	7	[0, 0, 0]	n/a	catFR1	3	R1328E
957.67	0.0	959265	TRIAL_START	n/a	n/a	n/a	n/a	-999	8	[0, 0, 0]	n/a	catFR1	3	R1328E
957.67	0.001	959265	TRIAL	n/a	n/a	n/a	n/a	-999	8	[0, 0, 0]	n/a	catFR1	3	R1328E
957.671	4.585	959266	WAITING_START	n/a	n/a	n/a	n/a	-999	8	[0, 0, 0]	n/a	catFR1	3	R1328E
962.256	0.0	963850	WAITING_END	n/a	n/a	n/a	n/a	-999	8	[0, 0, 0]	n/a	catFR1	3	R1328E
962.256	10.0	963850	COUNTDOWN_START	n/a	n/a	n/a	n/a	-999	8	[0, 0, 0]	n/a	catFR1	3	R1328E
972.685	0.001	974279	COUNTDOWN_END	n/a	n/a	n/a	n/a	-999	8	[0, 0, 0]	n/a	catFR1	3	R1328E
972.686	1.088	974280	ORIENT_START	n/a	n/a	n/a	n/a	-999	8	[0, 0, 0]	n/a	catFR1	3	R1328E
973.774	0.0	975368	ORIENT_END	n/a	n/a	n/a	n/a	-999	8	[0, 0, 0]	n/a	catFR1	3	R1328E
973.774	0.761	975368	ENCODING_START	n/a	n/a	n/a	n/a	-999	8	[0, 0, 0]	n/a	catFR1	3	R1328E
974.535	1.6	976129	WORD	n/a	wordpools/wordpool_categorized_EN.txt	LEG	BodyParts	1	8	[0, 0, 0]	n/a	catFR1	3	R1328E
976.158	1.014	977752	WORD_OFF	n/a	n/a	LEG	BodyParts	1	8	[0, 0, 0]	n/a	catFR1	3	R1328E
977.172	1.6	978766	WORD	n/a	wordpools/wordpool_categorized_EN.txt	FINGERS	BodyParts	2	8	[0, 0, 0]	n/a	catFR1	3	R1328E
978.808	1.082	980402	WORD_OFF	n/a	n/a	FINGERS	BodyParts	2	8	[0, 0, 0]	n/a	catFR1	3	R1328E
979.89	1.6	981484	WORD	n/a	wordpools/wordpool_categorized_EN.txt	BED	Furniture	3	8	[0, 0, 0]	n/a	catFR1	3	R1328E
981.525	0.779	983119	WORD_OFF	n/a	n/a	BED	Furniture	3	8	[0, 0, 0]	n/a	catFR1	3	R1328E
982.304	1.6	983898	WORD	n/a	wordpools/wordpool_categorized_EN.txt	CABINET	Furniture	4	8	[0, 0, 0]	n/a	catFR1	3	R1328E
983.926	1.059	985520	WORD_OFF	n/a	n/a	CABINET	Furniture	4	8	[0, 0, 0]	n/a	catFR1	3	R1328E
984.985	1.6	986579	WORD	n/a	wordpools/wordpool_categorized_EN.txt	SPATULA	KitchenTools	5	8	[0, 0, 0]	n/a	catFR1	3	R1328E
986.609	0.984	988203	WORD_OFF	n/a	n/a	SPATULA	KitchenTools	5	8	[0, 0, 0]	n/a	catFR1	3	R1328E
987.593	1.6	989186	WORD	n/a	wordpools/wordpool_categorized_EN.txt	WHISK	KitchenTools	6	8	[0, 0, 0]	n/a	catFR1	3	R1328E
989.211	0.846	990804	WORD_OFF	n/a	n/a	WHISK	KitchenTools	6	8	[0, 0, 0]	n/a	catFR1	3	R1328E
990.057	1.6	991650	WORD	n/a	wordpools/wordpool_categorized_EN.txt	SHELF	Furniture	7	8	[0, 0, 0]	n/a	catFR1	3	R1328E
991.677	0.888	993270	WORD_OFF	n/a	n/a	SHELF	Furniture	7	8	[0, 0, 0]	n/a	catFR1	3	R1328E
992.565	1.6	994158	WORD	n/a	wordpools/wordpool_categorized_EN.txt	RECLINER	Furniture	8	8	[0, 0, 0]	n/a	catFR1	3	R1328E
994.195	0.771	995788	WORD_OFF	n/a	n/a	RECLINER	Furniture	8	8	[0, 0, 0]	n/a	catFR1	3	R1328E
994.966	1.6	996559	WORD	n/a	wordpools/wordpool_categorized_EN.txt	NOSE	BodyParts	9	8	[0, 0, 0]	n/a	catFR1	3	R1328E
996.594	0.828	998187	WORD_OFF	n/a	n/a	NOSE	BodyParts	9	8	[0, 0, 0]	n/a	catFR1	3	R1328E
997.422	1.6	999015	WORD	n/a	wordpools/wordpool_categorized_EN.txt	HEAD	BodyParts	10	8	[0, 0, 0]	n/a	catFR1	3	R1328E
999.046	1.005	1000639	WORD_OFF	n/a	n/a	HEAD	BodyParts	10	8	[0, 0, 0]	n/a	catFR1	3	R1328E
1000.051	1.6	1001644	WORD	n/a	wordpools/wordpool_categorized_EN.txt	GRATER	KitchenTools	11	8	[0, 0, 0]	n/a	catFR1	3	R1328E
1001.678	1.115	1003271	WORD_OFF	n/a	n/a	GRATER	KitchenTools	11	8	[0, 0, 0]	n/a	catFR1	3	R1328E
1002.793	1.6	1004386	WORD	n/a	wordpools/wordpool_categorized_EN.txt	PEELER	KitchenTools	12	8	[0, 0, 0]	n/a	catFR1	3	R1328E
1004.429	0.0	1006022	WORD_OFF	n/a	n/a	PEELER	KitchenTools	12	8	[0, 0, 0]	n/a	catFR1	3	R1328E
1004.429	0.001	1006022	ENCODING_END	n/a	n/a	n/a	n/a	-999	8	[0, 0, 0]	n/a	catFR1	3	R1328E
1004.43	0.0	1006023	DISTRACT_START	n/a	n/a	n/a	n/a	-999	8	[0, 0, 0]	n/a	catFR1	3	R1328E
1004.43	0.015	1006023	START	n/a	n/a	n/a	n/a	-999	8	[-999, -999, -999]	n/a	catFR1	3	R1328E
1004.445	18.004	1006038	PROB	17.98	n/a	n/a	n/a	-999	8	[7, 6, 4]	16.0	catFR1	3	R1328E
1022.449	9.082	1024041	PROB	9.082	n/a	n/a	n/a	-999	8	[4, 3, 4]	11.0	catFR1	3	R1328E
1031.531	0.019	1033123	STOP	n/a	n/a	n/a	n/a	-999	8	[-999, -999, -999]	n/a	catFR1	3	R1328E
1031.55	0.536	1033142	DISTRACT_END	n/a	n/a	n/a	n/a	-999	8	[0, 0, 0]	n/a	catFR1	3	R1328E
1032.086	1.6	1033678	RETRIEVAL_ORIENT_START	n/a	n/a	n/a	n/a	-999	8	[0, 0, 0]	n/a	catFR1	3	R1328E
1033.767	0.001	1035359	RETRIEVAL_ORIENT_END	n/a	n/a	n/a	n/a	-999	8	[0, 0, 0]	n/a	catFR1	3	R1328E
1033.768	0.361	1035360	REC_START	n/a	n/a	n/a	n/a	-999	8	[0, 0, 0]	n/a	catFR1	3	R1328E
1034.129	1.05	1035721	REC_WORD	0.361	n/a	GRATER	KitchenTools	11	8	[0, 0, 0]	n/a	catFR1	3	R1328E
1035.179	1.741	1036771	REC_WORD	1.411	n/a	PEELER	KitchenTools	12	8	[0, 0, 0]	n/a	catFR1	3	R1328E
1036.92	0.854	1038512	REC_WORD	3.152	n/a	CABINET	Furniture	4	8	[0, 0, 0]	n/a	catFR1	3	R1328E
1037.774	3.642	1039366	REC_WORD	4.006	n/a	SHELF	Furniture	7	8	[0, 0, 0]	n/a	catFR1	3	R1328E
1041.416	22.361	1043008	REC_WORD	7.648	n/a	WHISK	KitchenTools	6	8	[0, 0, 0]	n/a	catFR1	3	R1328E
1063.777	0.0	1065368	TRIAL_END	n/a	n/a	n/a	n/a	-999	8	[0, 0, 0]	n/a	catFR1	3	R1328E
1063.777	0.029	1065368	REC_END	n/a	n/a	n/a	n/a	-999	8	[0, 0, 0]	n/a	catFR1	3	R1328E
1063.806	0.0	1065397	TRIAL_START	n/a	n/a	n/a	n/a	-999	9	[0, 0, 0]	n/a	catFR1	3	R1328E
1063.806	0.0	1065397	TRIAL	n/a	n/a	n/a	n/a	-999	9	[0, 0, 0]	n/a	catFR1	3	R1328E
1063.806	1.834	1065397	WAITING_START	n/a	n/a	n/a	n/a	-999	9	[0, 0, 0]	n/a	catFR1	3	R1328E
1065.64	0.0	1067231	WAITING_END	n/a	n/a	n/a	n/a	-999	9	[0, 0, 0]	n/a	catFR1	3	R1328E
1065.64	10.0	1067231	COUNTDOWN_START	n/a	n/a	n/a	n/a	-999	9	[0, 0, 0]	n/a	catFR1	3	R1328E
1076.069	0.0	1077659	COUNTDOWN_END	n/a	n/a	n/a	n/a	-999	9	[0, 0, 0]	n/a	catFR1	3	R1328E
1076.069	1.024	1077659	ORIENT_START	n/a	n/a	n/a	n/a	-999	9	[0, 0, 0]	n/a	catFR1	3	R1328E
1077.093	0.0	1078683	ORIENT_END	n/a	n/a	n/a	n/a	-999	9	[0, 0, 0]	n/a	catFR1	3	R1328E
1077.093	0.891	1078683	ENCODING_START	n/a	n/a	n/a	n/a	-999	9	[0, 0, 0]	n/a	catFR1	3	R1328E
1077.984	1.6	1079574	WORD	n/a	wordpools/wordpool_categorized_EN.txt	SHEEP	FarmAnimals	1	9	[0, 0, 0]	n/a	catFR1	3	R1328E
1079.609	1.121	1081199	WORD_OFF	n/a	n/a	SHEEP	FarmAnimals	1	9	[0, 0, 0]	n/a	catFR1	3	R1328E
1080.73	1.6	1082320	WORD	n/a	wordpools/wordpool_categorized_EN.txt	ROOSTER	FarmAnimals	2	9	[0, 0, 0]	n/a	catFR1	3	R1328E
1082.343	1.045	1083933	WORD_OFF	n/a	n/a	ROOSTER	FarmAnimals	2	9	[0, 0, 0]	n/a	catFR1	3	R1328E
1083.388	1.6	1084978	WORD	n/a	wordpools/wordpool_categorized_EN.txt	ANT	Insects	3	9	[0, 0, 0]	n/a	catFR1	3	R1328E
1085.011	0.797	1086601	WORD_OFF	n/a	n/a	ANT	Insects	3	9	[0, 0, 0]	n/a	catFR1	3	R1328E
1085.808	1.6	1087398	WORD	n/a	wordpools/wordpool_categorized_EN.txt	MOSQUITO	Insects	4	9	[0, 0, 0]	n/a	catFR1	3	R1328E
1087.443	0.883	1089033	WORD_OFF	n/a	n/a	MOSQUITO	Insects	4	9	[0, 0, 0]	n/a	catFR1	3	R1328E
1088.326	1.6	1089916	WORD	n/a	wordpools/wordpool_categorized_EN.txt	HUMIDITY	Weather	5	9	[0, 0, 0]	n/a	catFR1	3	R1328E
1089.962	1.048	1091552	WORD_OFF	n/a	n/a	HUMIDITY	Weather	5	9	[0, 0, 0]	n/a	catFR1	3	R1328E
1091.01	1.6	1092600	WORD	n/a	wordpools/wordpool_categorized_EN.txt	DRIZZLE	Weather	6	9	[0, 0, 0]	n/a	catFR1	3	R1328E
1092.644	0.938	1094234	WORD_OFF	n/a	n/a	DRIZZLE	Weather	6	9	[0, 0, 0]	n/a	catFR1	3	R1328E
1093.582	1.6	1095172	WORD	n/a	wordpools/wordpool_categorized_EN.txt	LAMB	FarmAnimals	7	9	[0, 0, 0]	n/a	catFR1	3	R1328E
1095.196	0.757	1096786	WORD_OFF	n/a	n/a	LAMB	FarmAnimals	7	9	[0, 0, 0]	n/a	catFR1	3	R1328E
1095.953	1.6	1097543	WORD	n/a	wordpools/wordpool_categorized_EN.txt	TURKEY	FarmAnimals	8	9	[0, 0, 0]	n/a	catFR1	3	R1328E
1097.579	0.966	1099169	WORD_OFF	n/a	n/a	TURKEY	FarmAnimals	8	9	[0, 0, 0]	n/a	catFR1	3	R1328E
1098.545	1.6	1100135	WORD	n/a	wordpools/wordpool_categorized_EN.txt	BEETLE	Insects	9	9	[0, 0, 0]	n/a	catFR1	3	R1328E
1100.18	1.116	1101770	WORD_OFF	n/a	n/a	BEETLE	Insects	9	9	[0, 0, 0]	n/a	catFR1	3	R1328E
1101.296	1.6	1102886	WORD	n/a	wordpools/wordpool_categorized_EN.txt	BUTTERFLY	Insects	10	9	[0, 0, 0]	n/a	catFR1	3	R1328E
1102.931	0.771	1104520	WORD_OFF	n/a	n/a	BUTTERFLY	Insects	10	9	[0, 0, 0]	n/a	catFR1	3	R1328E
1103.702	1.6	1105291	WORD	n/a	wordpools/wordpool_categorized_EN.txt	RAIN	Weather	11	9	[0, 0, 0]	n/a	catFR1	3	R1328E
1105.331	1.0	1106920	WORD_OFF	n/a	n/a	RAIN	Weather	11	9	[0, 0, 0]	n/a	catFR1	3	R1328E
1106.331	1.6	1107920	WORD	n/a	wordpools/wordpool_categorized_EN.txt	FOG	Weather	12	9	[0, 0, 0]	n/a	catFR1	3	R1328E
1107.965	0.0	1109554	WORD_OFF	n/a	n/a	FOG	Weather	12	9	[0, 0, 0]	n/a	catFR1	3	R1328E
1107.965	0.0	1109554	ENCODING_END	n/a	n/a	n/a	n/a	-999	9	[0, 0, 0]	n/a	catFR1	3	R1328E
1107.965	0.001	1109554	DISTRACT_START	n/a	n/a	n/a	n/a	-999	9	[0, 0, 0]	n/a	catFR1	3	R1328E
1107.966	0.015	1109555	START	n/a	n/a	n/a	n/a	-999	9	[-999, -999, -999]	n/a	catFR1	3	R1328E
1107.981	9.402	1109570	PROB	9.366	n/a	n/a	n/a	-999	9	[1, 8, 4]	13.0	catFR1	3	R1328E
1117.383	7.568	1118972	PROB	7.533	n/a	n/a	n/a	-999	9	[7, 4, 7]	18.0	catFR1	3	R1328E
1124.951	6.078	1126540	PROB	6.078	n/a	n/a	n/a	-999	9	[4, 2, 7]	13.0	catFR1	3	R1328E
1131.029	0.006	1132617	STOP	n/a	n/a	n/a	n/a	-999	9	[-999, -999, -999]	n/a	catFR1	3	R1328E
1131.035	0.521	1132623	DISTRACT_END	n/a	n/a	n/a	n/a	-999	9	[0, 0, 0]	n/a	catFR1	3	R1328E
1131.556	1.6	1133144	RETRIEVAL_ORIENT_START	n/a	n/a	n/a	n/a	-999	9	[0, 0, 0]	n/a	catFR1	3	R1328E
1133.219	0.001	1134807	RETRIEVAL_ORIENT_END	n/a	n/a	n/a	n/a	-999	9	[0, 0, 0]	n/a	catFR1	3	R1328E
1133.22	0.227	1134808	REC_START	n/a	n/a	n/a	n/a	-999	9	[0, 0, 0]	n/a	catFR1	3	R1328E
1133.447	0.637	1135035	REC_WORD	0.227	n/a	DRIZZLE	Weather	6	9	[0, 0, 0]	n/a	catFR1	3	R1328E
1134.084	1.321	1135672	REC_WORD	0.864	n/a	HUMIDITY	Weather	5	9	[0, 0, 0]	n/a	catFR1	3	R1328E
1135.405	1.999	1136993	REC_WORD	2.185	n/a	FOG	Weather	12	9	[0, 0, 0]	n/a	catFR1	3	R1328E
1137.404	2.292	1138992	REC_WORD	4.184	n/a	RAIN	Weather	11	9	[0, 0, 0]	n/a	catFR1	3	R1328E
1139.696	1.763	1141284	REC_WORD	6.476	n/a	SHEEP	FarmAnimals	1	9	[0, 0, 0]	n/a	catFR1	3	R1328E
1141.459	6.014	1143047	REC_WORD	8.239	n/a	TURKEY	FarmAnimals	8	9	[0, 0, 0]	n/a	catFR1	3	R1328E
1147.473	1.145	1149061	REC_WORD	14.253	n/a	MOSQUITO	Insects	4	9	[0, 0, 0]	n/a	catFR1	3	R1328E
1148.618	3.572	1150206	REC_WORD	15.398	n/a	ANT	Insects	3	9	[0, 0, 0]	n/a	catFR1	3	R1328E
1152.19	11.039	1153778	REC_WORD	18.97	n/a	BUTTERFLY	Insects	10	9	[0, 0, 0]	n/a	catFR1	3	R1328E
1163.229	0.001	1164816	REC_END	n/a	n/a	n/a	n/a	-999	9	[0, 0, 0]	n/a	catFR1	3	R1328E
1163.23	0.026	1164817	TRIAL_END	n/a	n/a	n/a	n/a	-999	9	[0, 0, 0]	n/a	catFR1	3	R1328E
1163.256	0.001	1164843	TRIAL_START	n/a	n/a	n/a	n/a	-999	10	[0, 0, 0]	n/a	catFR1	3	R1328E
1163.257	0.0	1164844	TRIAL	n/a	n/a	n/a	n/a	-999	10	[0, 0, 0]	n/a	catFR1	3	R1328E
1163.257	2.685	1164844	WAITING_START	n/a	n/a	n/a	n/a	-999	10	[0, 0, 0]	n/a	catFR1	3	R1328E
1165.942	0.0	1167529	WAITING_END	n/a	n/a	n/a	n/a	-999	10	[0, 0, 0]	n/a	catFR1	3	R1328E
1165.942	10.0	1167529	COUNTDOWN_START	n/a	n/a	n/a	n/a	-999	10	[0, 0, 0]	n/a	catFR1	3	R1328E
1176.371	0.0	1177958	COUNTDOWN_END	n/a	n/a	n/a	n/a	-999	10	[0, 0, 0]	n/a	catFR1	3	R1328E
1176.371	1.238	1177958	ORIENT_START	n/a	n/a	n/a	n/a	-999	10	[0, 0, 0]	n/a	catFR1	3	R1328E
1177.609	0.001	1179196	ORIENT_END	n/a	n/a	n/a	n/a	-999	10	[0, 0, 0]	n/a	catFR1	3	R1328E
1177.61	1.138	1179197	ENCODING_START	n/a	n/a	n/a	n/a	-999	10	[0, 0, 0]	n/a	catFR1	3	R1328E
1178.748	1.6	1180335	WORD	n/a	wordpools/wordpool_categorized_EN.txt	DRYER	Appliances	1	10	[0, 0, 0]	n/a	catFR1	3	R1328E
1180.361	0.761	1181948	WORD_OFF	n/a	n/a	DRYER	Appliances	1	10	[0, 0, 0]	n/a	catFR1	3	R1328E
1181.122	1.6	1182709	WORD	n/a	wordpools/wordpool_categorized_EN.txt	OVEN	Appliances	2	10	[0, 0, 0]	n/a	catFR1	3	R1328E
1182.744	0.785	1184331	WORD_OFF	n/a	n/a	OVEN	Appliances	2	10	[0, 0, 0]	n/a	catFR1	3	R1328E
1183.529	1.6	1185116	WORD	n/a	wordpools/wordpool_categorized_EN.txt	HALLWAY	Building	3	10	[0, 0, 0]	n/a	catFR1	3	R1328E
1185.145	0.817	1186732	WORD_OFF	n/a	n/a	HALLWAY	Building	3	10	[0, 0, 0]	n/a	catFR1	3	R1328E
1185.962	1.6	1187549	WORD	n/a	wordpools/wordpool_categorized_EN.txt	WINDOW	Building	4	10	[0, 0, 0]	n/a	catFR1	3	R1328E
1187.594	0.921	1189181	WORD_OFF	n/a	n/a	WINDOW	Building	4	10	[0, 0, 0]	n/a	catFR1	3	R1328E
1188.515	1.6	1190101	WORD	n/a	wordpools/wordpool_categorized_EN.txt	LOBSTER	OceanAnimals	5	10	[0, 0, 0]	n/a	catFR1	3	R1328E
1190.146	0.889	1191732	WORD_OFF	n/a	n/a	LOBSTER	OceanAnimals	5	10	[0, 0, 0]	n/a	catFR1	3	R1328E
1191.035	1.6	1192621	WORD	n/a	wordpools/wordpool_categorized_EN.txt	FISH	OceanAnimals	6	10	[0, 0, 0]	n/a	catFR1	3	R1328E
1192.662	0.867	1194248	WORD_OFF	n/a	n/a	FISH	OceanAnimals	6	10	[0, 0, 0]	n/a	catFR1	3	R1328E
1193.529	1.6	1195115	WORD	n/a	wordpools/wordpool_categorized_EN.txt	REFRIGERATOR	Appliances	7	10	[0, 0, 0]	n/a	catFR1	3	R1328E
1195.163	0.801	1196749	WORD_OFF	n/a	n/a	REFRIGERATOR	Appliances	7	10	[0, 0, 0]	n/a	catFR1	3	R1328E
1195.964	1.6	1197550	WORD	n/a	wordpools/wordpool_categorized_EN.txt	FREEZER	Appliances	8	10	[0, 0, 0]	n/a	catFR1	3	R1328E
1197.596	0.815	1199182	WORD_OFF	n/a	n/a	FREEZER	Appliances	8	10	[0, 0, 0]	n/a	catFR1	3	R1328E
1198.411	1.6	1199997	WORD	n/a	wordpools/wordpool_categorized_EN.txt	FOUNDATION	Building	9	10	[0, 0, 0]	n/a	catFR1	3	R1328E
1200.031	1.009	1201617	WORD_OFF	n/a	n/a	FOUNDATION	Building	9	10	[0, 0, 0]	n/a	catFR1	3	R1328E
1201.04	1.6	1202626	WORD	n/a	wordpools/wordpool_categorized_EN.txt	DOOR	Building	10	10	[0, 0, 0]	n/a	catFR1	3	R1328E
1202.664	0.84	1204250	WORD_OFF	n/a	n/a	DOOR	Building	10	10	[0, 0, 0]	n/a	catFR1	3	R1328E
1203.504	1.6	1205090	WORD	n/a	wordpools/wordpool_categorized_EN.txt	SQUID	OceanAnimals	11	10	[0, 0, 0]	n/a	catFR1	3	R1328E
1205.132	0.761	1206718	WORD_OFF	n/a	n/a	SQUID	OceanAnimals	11	10	[0, 0, 0]	n/a	catFR1	3	R1328E
1205.893	1.6	1207479	WORD	n/a	wordpools/wordpool_categorized_EN.txt	OCTOPUS	OceanAnimals	12	10	[0, 0, 0]	n/a	catFR1	3	R1328E
1207.515	0.0	1209101	WORD_OFF	n/a	n/a	OCTOPUS	OceanAnimals	12	10	[0, 0, 0]	n/a	catFR1	3	R1328E
1207.515	0.0	1209101	ENCODING_END	n/a	n/a	n/a	n/a	-999	10	[0, 0, 0]	n/a	catFR1	3	R1328E
1207.515	0.0	1209101	DISTRACT_START	n/a	n/a	n/a	n/a	-999	10	[0, 0, 0]	n/a	catFR1	3	R1328E
1207.515	0.016	1209101	START	n/a	n/a	n/a	n/a	-999	10	[-999, -999, -999]	n/a	catFR1	3	R1328E
1207.531	7.268	1209117	PROB	7.233	n/a	n/a	n/a	-999	10	[9, 3, 6]	18.0	catFR1	3	R1328E
1214.799	5.252	1216385	PROB	5.222	n/a	n/a	n/a	-999	10	[5, 4, 5]	14.0	catFR1	3	R1328E
1220.051	9.304	1221636	PROB	9.304	n/a	n/a	n/a	-999	10	[7, 6, 5]	18.0	catFR1	3	R1328E
1229.355	0.014	1230940	STOP	n/a	n/a	n/a	n/a	-999	10	[-999, -999, -999]	n/a	catFR1	3	R1328E
1229.369	0.572	1230954	DISTRACT_END	n/a	n/a	n/a	n/a	-999	10	[0, 0, 0]	n/a	catFR1	3	R1328E
1229.941	1.6	1231526	RETRIEVAL_ORIENT_START	n/a	n/a	n/a	n/a	-999	10	[0, 0, 0]	n/a	catFR1	3	R1328E
1231.652	0.0	1233237	RETRIEVAL_ORIENT_END	n/a	n/a	n/a	n/a	-999	10	[0, 0, 0]	n/a	catFR1	3	R1328E
1231.652	2.462	1233237	REC_START	n/a	n/a	n/a	n/a	-999	10	[0, 0, 0]	n/a	catFR1	3	R1328E
1234.114	1.589	1235699	REC_WORD	2.462	n/a	REFRIGERATOR	Appliances	7	10	[0, 0, 0]	n/a	catFR1	3	R1328E
1235.703	1.544	1237288	REC_WORD	4.051	n/a	FREEZER	Appliances	8	10	[0, 0, 0]	n/a	catFR1	3	R1328E
1237.247	5.274	1238832	REC_WORD	5.595	n/a	STOVE	Appliances	-999	10	[0, 0, 0]	n/a	catFR1	3	R1328E
1242.521	1.444	1244106	REC_WORD	10.869	n/a	OCTOPUS	OceanAnimals	12	10	[0, 0, 0]	n/a	catFR1	3	R1328E
1243.965	1.712	1245550	REC_WORD	12.313	n/a	SQUID	OceanAnimals	11	10	[0, 0, 0]	n/a	catFR1	3	R1328E
1245.677	15.985	1247261	REC_WORD	14.025	n/a	FISH	OceanAnimals	6	10	[0, 0, 0]	n/a	catFR1	3	R1328E
1261.662	0.0	1263246	REC_END	n/a	n/a	n/a	n/a	-999	10	[0, 0, 0]	n/a	catFR1	3	R1328E
1261.662	0.027	1263246	TRIAL_END	n/a	n/a	n/a	n/a	-999	10	[0, 0, 0]	n/a	catFR1	3	R1328E
1261.689	0.0	1263273	TRIAL_START	n/a	n/a	n/a	n/a	-999	11	[0, 0, 0]	n/a	catFR1	3	R1328E
1261.689	0.0	1263273	TRIAL	n/a	n/a	n/a	n/a	-999	11	[0, 0, 0]	n/a	catFR1	3	R1328E
1261.689	2.27	1263273	WAITING_START	n/a	n/a	n/a	n/a	-999	11	[0, 0, 0]	n/a	catFR1	3	R1328E
1263.959	0.0	1265543	WAITING_END	n/a	n/a	n/a	n/a	-999	11	[0, 0, 0]	n/a	catFR1	3	R1328E
1263.959	10.0	1265543	COUNTDOWN_START	n/a	n/a	n/a	n/a	-999	11	[0, 0, 0]	n/a	catFR1	3	R1328E
1274.388	0.0	1275971	COUNTDOWN_END	n/a	n/a	n/a	n/a	-999	11	[0, 0, 0]	n/a	catFR1	3	R1328E
1274.388	1.039	1275971	ORIENT_START	n/a	n/a	n/a	n/a	-999	11	[0, 0, 0]	n/a	catFR1	3	R1328E
1275.427	0.001	1277010	ORIENT_END	n/a	n/a	n/a	n/a	-999	11	[0, 0, 0]	n/a	catFR1	3	R1328E
1275.428	0.914	1277011	ENCODING_START	n/a	n/a	n/a	n/a	-999	11	[0, 0, 0]	n/a	catFR1	3	R1328E
1276.342	1.6	1277925	WORD	n/a	wordpools/wordpool_categorized_EN.txt	NIGHTSTAND	Furniture	1	11	[0, 0, 0]	n/a	catFR1	3	R1328E
1277.978	1.015	1279561	WORD_OFF	n/a	n/a	NIGHTSTAND	Furniture	1	11	[0, 0, 0]	n/a	catFR1	3	R1328E
1278.993	1.6	1280576	WORD	n/a	wordpools/wordpool_categorized_EN.txt	DRESSER	Furniture	2	11	[0, 0, 0]	n/a	catFR1	3	R1328E
1280.627	0.956	1282210	WORD_OFF	n/a	n/a	DRESSER	Furniture	2	11	[0, 0, 0]	n/a	catFR1	3	R1328E
1281.583	1.6	1283166	WORD	n/a	wordpools/wordpool_categorized_EN.txt	CARROT	Vegetables	3	11	[0, 0, 0]	n/a	catFR1	3	R1328E
1283.195	1.005	1284778	WORD_OFF	n/a	n/a	CARROT	Vegetables	3	11	[0, 0, 0]	n/a	catFR1	3	R1328E
1284.2	1.6	1285783	WORD	n/a	wordpools/wordpool_categorized_EN.txt	CORN	Vegetables	4	11	[0, 0, 0]	n/a	catFR1	3	R1328E
1285.828	1.097	1287411	WORD_OFF	n/a	n/a	CORN	Vegetables	4	11	[0, 0, 0]	n/a	catFR1	3	R1328E
1286.925	1.6	1288508	WORD	n/a	wordpools/wordpool_categorized_EN.txt	CLOUD	Weather	5	11	[0, 0, 0]	n/a	catFR1	3	R1328E
1288.545	0.948	1290128	WORD_OFF	n/a	n/a	CLOUD	Weather	5	11	[0, 0, 0]	n/a	catFR1	3	R1328E
1289.493	1.6	1291076	WORD	n/a	wordpools/wordpool_categorized_EN.txt	SNOW	Weather	6	11	[0, 0, 0]	n/a	catFR1	3	R1328E
1291.13	0.972	1292713	WORD_OFF	n/a	n/a	SNOW	Weather	6	11	[0, 0, 0]	n/a	catFR1	3	R1328E
1292.102	1.6	1293685	WORD	n/a	wordpools/wordpool_categorized_EN.txt	CUCUMBER	Vegetables	7	11	[0, 0, 0]	n/a	catFR1	3	R1328E
1293.73	0.761	1295313	WORD_OFF	n/a	n/a	CUCUMBER	Vegetables	7	11	[0, 0, 0]	n/a	catFR1	3	R1328E
1294.491	1.6	1296074	WORD	n/a	wordpools/wordpool_categorized_EN.txt	LETTUCE	Vegetables	8	11	[0, 0, 0]	n/a	catFR1	3	R1328E
1296.098	1.006	1297681	WORD_OFF	n/a	n/a	LETTUCE	Vegetables	8	11	[0, 0, 0]	n/a	catFR1	3	R1328E
1297.104	1.6	1298687	WORD	n/a	wordpools/wordpool_categorized_EN.txt	HURRICANE	Weather	9	11	[0, 0, 0]	n/a	catFR1	3	R1328E
1298.731	1.137	1300314	WORD_OFF	n/a	n/a	HURRICANE	Weather	9	11	[0, 0, 0]	n/a	catFR1	3	R1328E
1299.868	1.6	1301451	WORD	n/a	wordpools/wordpool_categorized_EN.txt	THUNDERSTORM	Weather	10	11	[0, 0, 0]	n/a	catFR1	3	R1328E
1301.498	0.97	1303081	WORD_OFF	n/a	n/a	THUNDERSTORM	Weather	10	11	[0, 0, 0]	n/a	catFR1	3	R1328E
1302.468	1.6	1304051	WORD	n/a	wordpools/wordpool_categorized_EN.txt	DESK	Furniture	11	11	[0, 0, 0]	n/a	catFR1	3	R1328E
1304.099	0.751	1305681	WORD_OFF	n/a	n/a	DESK	Furniture	11	11	[0, 0, 0]	n/a	catFR1	3	R1328E
1304.85	1.6	1306432	WORD	n/a	wordpools/wordpool_categorized_EN.txt	COUCH	Furniture	12	11	[0, 0, 0]	n/a	catFR1	3	R1328E
1306.482	0.0	1308064	WORD_OFF	n/a	n/a	COUCH	Furniture	12	11	[0, 0, 0]	n/a	catFR1	3	R1328E
1306.482	0.001	1308064	ENCODING_END	n/a	n/a	n/a	n/a	-999	11	[0, 0, 0]	n/a	catFR1	3	R1328E
1306.483	0.0	1308065	DISTRACT_START	n/a	n/a	n/a	n/a	-999	11	[0, 0, 0]	n/a	catFR1	3	R1328E
1306.483	0.015	1308065	START	n/a	n/a	n/a	n/a	-999	11	[-999, -999, -999]	n/a	catFR1	3	R1328E
1306.498	9.219	1308080	PROB	9.182	n/a	n/a	n/a	-999	11	[5, 1, 4]	10.0	catFR1	3	R1328E
1315.717	16.014	1317299	PROB	16.014	n/a	n/a	n/a	-999	11	[4, 4, 5]	13.0	catFR1	3	R1328E
1331.731	0.022	1333312	STOP	n/a	n/a	n/a	n/a	-999	11	[-999, -999, -999]	n/a	catFR1	3	R1328E
1331.753	0.668	1333334	DISTRACT_END	n/a	n/a	n/a	n/a	-999	11	[0, 0, 0]	n/a	catFR1	3	R1328E
1332.421	1.6	1334002	RETRIEVAL_ORIENT_START	n/a	n/a	n/a	n/a	-999	11	[0, 0, 0]	n/a	catFR1	3	R1328E
1333.954	0.001	1335535	RETRIEVAL_ORIENT_END	n/a	n/a	n/a	n/a	-999	11	[0, 0, 0]	n/a	catFR1	3	R1328E
1333.955	0.333	1335536	REC_START	n/a	n/a	n/a	n/a	-999	11	[0, 0, 0]	n/a	catFR1	3	R1328E
1334.288	1.792	1335869	REC_WORD	0.333	n/a	THUNDERSTORM	Weather	10	11	[0, 0, 0]	n/a	catFR1	3	R1328E
1336.08	7.56	1337661	REC_WORD	2.125	n/a	HURRICANE	Weather	9	11	[0, 0, 0]	n/a	catFR1	3	R1328E
1343.64	2.842	1345221	REC_WORD	9.685	n/a	CARROT	Vegetables	3	11	[0, 0, 0]	n/a	catFR1	3	R1328E
1346.482	1.046	1348063	REC_WORD	12.527	n/a	CORN	Vegetables	4	11	[0, 0, 0]	n/a	catFR1	3	R1328E
1347.528	3.58	1349109	REC_WORD	13.573	n/a	CUCUMBER	Vegetables	7	11	[0, 0, 0]	n/a	catFR1	3	R1328E
1351.108	12.857	1352689	REC_WORD	17.153	n/a	LETTUCE	Vegetables	8	11	[0, 0, 0]	n/a	catFR1	3	R1328E
1363.965	0.001	1365545	REC_END	n/a	n/a	n/a	n/a	-999	11	[0, 0, 0]	n/a	catFR1	3	R1328E
1363.966	0.026	1365546	TRIAL_END	n/a	n/a	n/a	n/a	-999	11	[0, 0, 0]	n/a	catFR1	3	R1328E
1363.992	0.0	1365572	TRIAL_START	n/a	n/a	n/a	n/a	-999	12	[0, 0, 0]	n/a	catFR1	3	R1328E
1363.992	0.0	1365572	TRIAL	n/a	n/a	n/a	n/a	-999	12	[0, 0, 0]	n/a	catFR1	3	R1328E
1363.992	2.068	1365572	WAITING_START	n/a	n/a	n/a	n/a	-999	12	[0, 0, 0]	n/a	catFR1	3	R1328E
1366.06	0.0	1367640	WAITING_END	n/a	n/a	n/a	n/a	-999	12	[0, 0, 0]	n/a	catFR1	3	R1328E
1366.06	10.0	1367640	COUNTDOWN_START	n/a	n/a	n/a	n/a	-999	12	[0, 0, 0]	n/a	catFR1	3	R1328E
1376.489	0.0	1378069	COUNTDOWN_END	n/a	n/a	n/a	n/a	-999	12	[0, 0, 0]	n/a	catFR1	3	R1328E
1376.489	1.255	1378069	ORIENT_START	n/a	n/a	n/a	n/a	-999	12	[0, 0, 0]	n/a	catFR1	3	R1328E
1377.744	0.001	1379324	ORIENT_END	n/a	n/a	n/a	n/a	-999	12	[0, 0, 0]	n/a	catFR1	3	R1328E
1377.745	0.777	1379325	ENCODING_START	n/a	n/a	n/a	n/a	-999	12	[0, 0, 0]	n/a	catFR1	3	R1328E
1378.522	1.6	1380102	WORD	n/a	wordpools/wordpool_categorized_EN.txt	PIG	FarmAnimals	1	12	[0, 0, 0]	n/a	catFR1	3	R1328E
1380.146	1.049	1381726	WORD_OFF	n/a	n/a	PIG	FarmAnimals	1	12	[0, 0, 0]	n/a	catFR1	3	R1328E
1381.195	1.6	1382775	WORD	n/a	wordpools/wordpool_categorized_EN.txt	GOAT	FarmAnimals	2	12	[0, 0, 0]	n/a	catFR1	3	R1328E
1382.829	1.067	1384409	WORD_OFF	n/a	n/a	GOAT	FarmAnimals	2	12	[0, 0, 0]	n/a	catFR1	3	R1328E
1383.896	1.6	1385476	WORD	n/a	wordpools/wordpool_categorized_EN.txt	LADYBUG	Insects	3	12	[0, 0, 0]	n/a	catFR1	3	R1328E
1385.529	1.001	1387109	WORD_OFF	n/a	n/a	LADYBUG	Insects	3	12	[0, 0, 0]	n/a	catFR1	3	R1328E
1386.53	1.6	1388110	WORD	n/a	wordpools/wordpool_categorized_EN.txt	GNAT	Insects	4	12	[0, 0, 0]	n/a	catFR1	3	R1328E
1388.164	0.816	1389744	WORD_OFF	n/a	n/a	GNAT	Insects	4	12	[0, 0, 0]	n/a	catFR1	3	R1328E
1388.98	1.6	1390559	WORD	n/a	wordpools/wordpool_categorized_EN.txt	WALNUT	Trees	5	12	[0, 0, 0]	n/a	catFR1	3	R1328E
1390.613	0.859	1392192	WORD_OFF	n/a	n/a	WALNUT	Trees	5	12	[0, 0, 0]	n/a	catFR1	3	R1328E
1391.472	1.6	1393051	WORD	n/a	wordpools/wordpool_categorized_EN.txt	MAPLE	Trees	6	12	[0, 0, 0]	n/a	catFR1	3	R1328E
1393.082	0.793	1394661	WORD_OFF	n/a	n/a	MAPLE	Trees	6	12	[0, 0, 0]	n/a	catFR1	3	R1328E
1393.875	1.6	1395454	WORD	n/a	wordpools/wordpool_categorized_EN.txt	HEN	FarmAnimals	7	12	[0, 0, 0]	n/a	catFR1	3	R1328E
1395.498	0.905	1397077	WORD_OFF	n/a	n/a	HEN	FarmAnimals	7	12	[0, 0, 0]	n/a	catFR1	3	R1328E
1396.403	1.6	1397982	WORD	n/a	wordpools/wordpool_categorized_EN.txt	CHICKEN	FarmAnimals	8	12	[0, 0, 0]	n/a	catFR1	3	R1328E
1398.032	1.113	1399611	WORD_OFF	n/a	n/a	CHICKEN	FarmAnimals	8	12	[0, 0, 0]	n/a	catFR1	3	R1328E
1399.145	1.6	1400724	WORD	n/a	wordpools/wordpool_categorized_EN.txt	CYPRESS	Trees	9	12	[0, 0, 0]	n/a	catFR1	3	R1328E
1400.782	1.007	1402361	WORD_OFF	n/a	n/a	CYPRESS	Trees	9	12	[0, 0, 0]	n/a	catFR1	3	R1328E
1401.789	1.6	1403368	WORD	n/a	wordpools/wordpool_categorized_EN.txt	WILLOW	Trees	10	12	[0, 0, 0]	n/a	catFR1	3	R1328E
1403.417	0.85	1404996	WORD_OFF	n/a	n/a	WILLOW	Trees	10	12	[0, 0, 0]	n/a	catFR1	3	R1328E
1404.267	1.6	1405846	WORD	n/a	wordpools/wordpool_categorized_EN.txt	CRICKET	Insects	11	12	[0, 0, 0]	n/a	catFR1	3	R1328E
1405.899	1.125	1407478	WORD_OFF	n/a	n/a	CRICKET	Insects	11	12	[0, 0, 0]	n/a	catFR1	3	R1328E
1407.024	1.6	1408603	WORD	n/a	wordpools/wordpool_categorized_EN.txt	BEE	Insects	12	12	[0, 0, 0]	n/a	catFR1	3	R1328E
1408.65	0.0	1410229	WORD_OFF	n/a	n/a	BEE	Insects	12	12	[0, 0, 0]	n/a	catFR1	3	R1328E
1408.65	0.001	1410229	ENCODING_END	n/a	n/a	n/a	n/a	-999	12	[0, 0, 0]	n/a	catFR1	3	R1328E
1408.651	0.0	1410230	DISTRACT_START	n/a	n/a	n/a	n/a	-999	12	[0, 0, 0]	n/a	catFR1	3	R1328E
1408.651	0.015	1410230	START	n/a	n/a	n/a	n/a	-999	12	[-999, -999, -999]	n/a	catFR1	3	R1328E
1408.666	11.67	1410245	PROB	11.642	n/a	n/a	n/a	-999	12	[6, 4, 9]	19.0	catFR1	3	R1328E
1420.336	27.156	1421914	PROB	27.156	n/a	n/a	n/a	-999	12	[5, 8, 8]	21.0	catFR1	3	R1328E
1447.492	0.015	1449069	STOP	n/a	n/a	n/a	n/a	-999	12	[-999, -999, -999]	n/a	catFR1	3	R1328E
1447.507	0.523	1449084	DISTRACT_END	n/a	n/a	n/a	n/a	-999	12	[0, 0, 0]	n/a	catFR1	3	R1328E
1448.03	1.6	1449607	RETRIEVAL_ORIENT_START	n/a	n/a	n/a	n/a	-999	12	[0, 0, 0]	n/a	catFR1	3	R1328E
1449.74	0.001	1451317	RETRIEVAL_ORIENT_END	n/a	n/a	n/a	n/a	-999	12	[0, 0, 0]	n/a	catFR1	3	R1328E
1449.741	11.012	1451318	REC_START	n/a	n/a	n/a	n/a	-999	12	[0, 0, 0]	n/a	catFR1	3	R1328E
1460.753	1.144	1462330	REC_WORD	11.012	n/a	CYPRESS	Trees	9	12	[0, 0, 0]	n/a	catFR1	3	R1328E
1461.897	3.206	1463474	REC_WORD	12.156	n/a	WILLOW	Trees	10	12	[0, 0, 0]	n/a	catFR1	3	R1328E
1465.103	5.509	1466680	REC_WORD	15.362	n/a	WALNUT	Trees	5	12	[0, 0, 0]	n/a	catFR1	3	R1328E
1470.612	9.139	1472189	REC_WORD	20.871	n/a	OAK	n/a	-999	12	[0, 0, 0]	n/a	catFR1	3	R1328E
1479.751	0.0	1481327	REC_END	n/a	n/a	n/a	n/a	-999	12	[0, 0, 0]	n/a	catFR1	3	R1328E
1479.751	0.026	1481327	TRIAL_END	n/a	n/a	n/a	n/a	-999	12	[0, 0, 0]	n/a	catFR1	3	R1328E
1479.777	0.001	1481353	TRIAL_START	n/a	n/a	n/a	n/a	-999	13	[0, 0, 0]	n/a	catFR1	3	R1328E
1479.778	0.0	1481354	TRIAL	n/a	n/a	n/a	n/a	-999	13	[0, 0, 0]	n/a	catFR1	3	R1328E
1479.778	3.386	1481354	WAITING_START	n/a	n/a	n/a	n/a	-999	13	[0, 0, 0]	n/a	catFR1	3	R1328E
1483.164	0.0	1484740	WAITING_END	n/a	n/a	n/a	n/a	-999	13	[0, 0, 0]	n/a	catFR1	3	R1328E
1483.164	10.0	1484740	COUNTDOWN_START	n/a	n/a	n/a	n/a	-999	13	[0, 0, 0]	n/a	catFR1	3	R1328E
1493.593	0.001	1495169	COUNTDOWN_END	n/a	n/a	n/a	n/a	-999	13	[0, 0, 0]	n/a	catFR1	3	R1328E
1493.594	1.104	1495170	ORIENT_START	n/a	n/a	n/a	n/a	-999	13	[0, 0, 0]	n/a	catFR1	3	R1328E
1494.698	0.001	1496274	ORIENT_END	n/a	n/a	n/a	n/a	-999	13	[0, 0, 0]	n/a	catFR1	3	R1328E
1494.699	1.054	1496275	ENCODING_START	n/a	n/a	n/a	n/a	-999	13	[0, 0, 0]	n/a	catFR1	3	R1328E
1495.753	1.6	1497329	WORD	n/a	wordpools/wordpool_categorized_EN.txt	TOE	BodyParts	1	13	[0, 0, 0]	n/a	catFR1	3	R1328E
1497.383	0.856	1498959	WORD_OFF	n/a	n/a	TOE	BodyParts	1	13	[0, 0, 0]	n/a	catFR1	3	R1328E
1498.239	1.6	1499815	WORD	n/a	wordpools/wordpool_categorized_EN.txt	ARM	BodyParts	2	13	[0, 0, 0]	n/a	catFR1	3	R1328E
1499.866	0.821	1501442	WORD_OFF	n/a	n/a	ARM	BodyParts	2	13	[0, 0, 0]	n/a	catFR1	3	R1328E
1500.687	1.6	1502263	WORD	n/a	wordpools/wordpool_categorized_EN.txt	LILAC	Flowers	3	13	[0, 0, 0]	n/a	catFR1	3	R1328E
1502.3	0.889	1503876	WORD_OFF	n/a	n/a	LILAC	Flowers	3	13	[0, 0, 0]	n/a	catFR1	3	R1328E
1503.189	1.6	1504765	WORD	n/a	wordpools/wordpool_categorized_EN.txt	ROSE	Flowers	4	13	[0, 0, 0]	n/a	catFR1	3	R1328E
1504.817	0.999	1506392	WORD_OFF	n/a	n/a	ROSE	Flowers	4	13	[0, 0, 0]	n/a	catFR1	3	R1328E
1505.816	1.6	1507391	WORD	n/a	wordpools/wordpool_categorized_EN.txt	GRAPE	Fruit	5	13	[0, 0, 0]	n/a	catFR1	3	R1328E
1507.451	0.934	1509026	WORD_OFF	n/a	n/a	GRAPE	Fruit	5	13	[0, 0, 0]	n/a	catFR1	3	R1328E
1508.385	1.6	1509960	WORD	n/a	wordpools/wordpool_categorized_EN.txt	APPLE	Fruit	6	13	[0, 0, 0]	n/a	catFR1	3	R1328E
1510.019	0.936	1511594	WORD_OFF	n/a	n/a	APPLE	Fruit	6	13	[0, 0, 0]	n/a	catFR1	3	R1328E
1510.955	1.6	1512530	WORD	n/a	wordpools/wordpool_categorized_EN.txt	ELBOW	BodyParts	7	13	[0, 0, 0]	n/a	catFR1	3	R1328E
1512.585	0.799	1514160	WORD_OFF	n/a	n/a	ELBOW	BodyParts	7	13	[0, 0, 0]	n/a	catFR1	3	R1328E
1513.384	1.6	1514959	WORD	n/a	wordpools/wordpool_categorized_EN.txt	KNEE	BodyParts	8	13	[0, 0, 0]	n/a	catFR1	3	R1328E
1515.02	1.021	1516595	WORD_OFF	n/a	n/a	KNEE	BodyParts	8	13	[0, 0, 0]	n/a	catFR1	3	R1328E
1516.041	1.6	1517616	WORD	n/a	wordpools/wordpool_categorized_EN.txt	ORANGE	Fruit	9	13	[0, 0, 0]	n/a	catFR1	3	R1328E
1517.669	1.113	1519244	WORD_OFF	n/a	n/a	ORANGE	Fruit	9	13	[0, 0, 0]	n/a	catFR1	3	R1328E
1518.782	1.6	1520357	WORD	n/a	wordpools/wordpool_categorized_EN.txt	CHERRY	Fruit	10	13	[0, 0, 0]	n/a	catFR1	3	R1328E
1520.387	1.092	1521962	WORD_OFF	n/a	n/a	CHERRY	Fruit	10	13	[0, 0, 0]	n/a	catFR1	3	R1328E
1521.479	1.6	1523054	WORD	n/a	wordpools/wordpool_categorized_EN.txt	TULIP	Flowers	11	13	[0, 0, 0]	n/a	catFR1	3	R1328E
1523.087	0.849	1524662	WORD_OFF	n/a	n/a	TULIP	Flowers	11	13	[0, 0, 0]	n/a	catFR1	3	R1328E
1523.936	1.6	1525511	WORD	n/a	wordpools/wordpool_categorized_EN.txt	DAFFODIL	Flowers	12	13	[0, 0, 0]	n/a	catFR1	3	R1328E
1525.57	0.001	1527145	WORD_OFF	n/a	n/a	DAFFODIL	Flowers	12	13	[0, 0, 0]	n/a	catFR1	3	R1328E
1525.571	0.0	1527146	ENCODING_END	n/a	n/a	n/a	n/a	-999	13	[0, 0, 0]	n/a	catFR1	3	R1328E
1525.571	0.0	1527146	DISTRACT_START	n/a	n/a	n/a	n/a	-999	13	[0, 0, 0]	n/a	catFR1	3	R1328E
1525.571	0.016	1527146	START	n/a	n/a	n/a	n/a	-999	13	[-999, -999, -999]	n/a	catFR1	3	R1328E
1525.587	12.969	1527162	PROB	12.931	n/a	n/a	n/a	-999	13	[3, 8, 7]	18.0	catFR1	3	R1328E
1538.556	12.0	1540130	PROB	12.0	n/a	n/a	n/a	-999	13	[4, 4, 5]	13.0	catFR1	3	R1328E
1550.556	0.019	1552130	STOP	n/a	n/a	n/a	n/a	-999	13	[-999, -999, -999]	n/a	catFR1	3	R1328E
1550.575	0.616	1552149	DISTRACT_END	n/a	n/a	n/a	n/a	-999	13	[0, 0, 0]	n/a	catFR1	3	R1328E
1551.191	1.6	1552765	RETRIEVAL_ORIENT_START	n/a	n/a	n/a	n/a	-999	13	[0, 0, 0]	n/a	catFR1	3	R1328E
1552.892	0.0	1554466	RETRIEVAL_ORIENT_END	n/a	n/a	n/a	n/a	-999	13	[0, 0, 0]	n/a	catFR1	3	R1328E
1552.892	4.096	1554466	REC_START	n/a	n/a	n/a	n/a	-999	13	[0, 0, 0]	n/a	catFR1	3	R1328E
1556.988	1.433	1558562	REC_WORD	4.096	n/a	DAFFODIL	Flowers	12	13	[0, 0, 0]	n/a	catFR1	3	R1328E
1558.421	3.515	1559995	REC_WORD	5.529	n/a	TULIP	Flowers	11	13	[0, 0, 0]	n/a	catFR1	3	R1328E
1561.936	1.037	1563509	REC_WORD	9.044	n/a	CHERRY	Fruit	10	13	[0, 0, 0]	n/a	catFR1	3	R1328E
1562.973	9.779	1564546	REC_WORD	10.081	n/a	ORANGE	Fruit	9	13	[0, 0, 0]	n/a	catFR1	3	R1328E
1572.752	1.076	1574325	REC_WORD	19.86	n/a	GRAPE	Fruit	5	13	[0, 0, 0]	n/a	catFR1	3	R1328E
1573.828	9.075	1575401	REC_WORD	20.936	n/a	APPLE	Fruit	6	13	[0, 0, 0]	n/a	catFR1	3	R1328E
1582.903	0.001	1584476	REC_END	n/a	n/a	n/a	n/a	-999	13	[0, 0, 0]	n/a	catFR1	3	R1328E
1582.904	0.027	1584477	TRIAL_END	n/a	n/a	n/a	n/a	-999	13	[0, 0, 0]	n/a	catFR1	3	R1328E
1582.931	0.001	1584504	TRIAL_START	n/a	n/a	n/a	n/a	-999	14	[0, 0, 0]	n/a	catFR1	3	R1328E
1582.932	0.0	1584505	TRIAL	n/a	n/a	n/a	n/a	-999	14	[0, 0, 0]	n/a	catFR1	3	R1328E
1582.932	3.317	1584505	WAITING_START	n/a	n/a	n/a	n/a	-999	14	[0, 0, 0]	n/a	catFR1	3	R1328E
1586.249	0.0	1587822	WAITING_END	n/a	n/a	n/a	n/a	-999	14	[0, 0, 0]	n/a	catFR1	3	R1328E
1586.249	10.0	1587822	COUNTDOWN_START	n/a	n/a	n/a	n/a	-999	14	[0, 0, 0]	n/a	catFR1	3	R1328E
1596.677	0.0	1598249	COUNTDOWN_END	n/a	n/a	n/a	n/a	-999	14	[0, 0, 0]	n/a	catFR1	3	R1328E
1596.677	1.223	1598249	ORIENT_START	n/a	n/a	n/a	n/a	-999	14	[0, 0, 0]	n/a	catFR1	3	R1328E
1597.9	0.0	1599472	ENCODING_START	n/a	n/a	n/a	n/a	-999	14	[0, 0, 0]	n/a	catFR1	3	R1328E
1597.9	0.839	1599472	ORIENT_END	n/a	n/a	n/a	n/a	-999	14	[0, 0, 0]	n/a	catFR1	3	R1328E
1598.739	1.6	1600311	WORD	n/a	wordpools/wordpool_categorized_EN.txt	DOVE	Birds	1	14	[0, 0, 0]	n/a	catFR1	3	R1328E
1600.368	1.07	1601940	WORD_OFF	n/a	n/a	DOVE	Birds	1	14	[0, 0, 0]	n/a	catFR1	3	R1328E
1601.438	1.6	1603010	WORD	n/a	wordpools/wordpool_categorized_EN.txt	PIGEON	Birds	2	14	[0, 0, 0]	n/a	catFR1	3	R1328E
1603.068	1.101	1604640	WORD_OFF	n/a	n/a	PIGEON	Birds	2	14	[0, 0, 0]	n/a	catFR1	3	R1328E
1604.169	1.6	1605741	WORD	n/a	wordpools/wordpool_categorized_EN.txt	CHEESECAKE	Desserts	3	14	[0, 0, 0]	n/a	catFR1	3	R1328E
1605.801	0.795	1607373	WORD_OFF	n/a	n/a	CHEESECAKE	Desserts	3	14	[0, 0, 0]	n/a	catFR1	3	R1328E
1606.596	1.6	1608168	WORD	n/a	wordpools/wordpool_categorized_EN.txt	COOKIE	Desserts	4	14	[0, 0, 0]	n/a	catFR1	3	R1328E
1608.219	1.059	1609791	WORD_OFF	n/a	n/a	COOKIE	Desserts	4	14	[0, 0, 0]	n/a	catFR1	3	R1328E
1609.278	1.6	1610850	WORD	n/a	wordpools/wordpool_categorized_EN.txt	ROACH	Insects	5	14	[0, 0, 0]	n/a	catFR1	3	R1328E
1610.902	0.852	1612474	WORD_OFF	n/a	n/a	ROACH	Insects	5	14	[0, 0, 0]	n/a	catFR1	3	R1328E
1611.754	1.6	1613326	WORD	n/a	wordpools/wordpool_categorized_EN.txt	SPIDER	Insects	6	14	[0, 0, 0]	n/a	catFR1	3	R1328E
1613.37	0.951	1614942	WORD_OFF	n/a	n/a	SPIDER	Insects	6	14	[0, 0, 0]	n/a	catFR1	3	R1328E
1614.321	1.6	1615893	WORD	n/a	wordpools/wordpool_categorized_EN.txt	BLUEBIRD	Birds	7	14	[0, 0, 0]	n/a	catFR1	3	R1328E
1615.954	0.872	1617526	WORD_OFF	n/a	n/a	BLUEBIRD	Birds	7	14	[0, 0, 0]	n/a	catFR1	3	R1328E
1616.826	1.6	1618398	WORD	n/a	wordpools/wordpool_categorized_EN.txt	CROW	Birds	8	14	[0, 0, 0]	n/a	catFR1	3	R1328E
1618.453	1.057	1620024	WORD_OFF	n/a	n/a	CROW	Birds	8	14	[0, 0, 0]	n/a	catFR1	3	R1328E
1619.51	1.6	1621081	WORD	n/a	wordpools/wordpool_categorized_EN.txt	COBBLER	Desserts	9	14	[0, 0, 0]	n/a	catFR1	3	R1328E
1621.122	0.96	1622693	WORD_OFF	n/a	n/a	COBBLER	Desserts	9	14	[0, 0, 0]	n/a	catFR1	3	R1328E
1622.082	1.6	1623653	WORD	n/a	wordpools/wordpool_categorized_EN.txt	PUDDING	Desserts	10	14	[0, 0, 0]	n/a	catFR1	3	R1328E
1623.704	0.923	1625275	WORD_OFF	n/a	n/a	PUDDING	Desserts	10	14	[0, 0, 0]	n/a	catFR1	3	R1328E
1624.627	1.6	1626198	WORD	n/a	wordpools/wordpool_categorized_EN.txt	MOTH	Insects	11	14	[0, 0, 0]	n/a	catFR1	3	R1328E
1626.256	0.921	1627827	WORD_OFF	n/a	n/a	MOTH	Insects	11	14	[0, 0, 0]	n/a	catFR1	3	R1328E
1627.177	1.6	1628748	WORD	n/a	wordpools/wordpool_categorized_EN.txt	FLY	Insects	12	14	[0, 0, 0]	n/a	catFR1	3	R1328E
1628.805	0.001	1630376	WORD_OFF	n/a	n/a	FLY	Insects	12	14	[0, 0, 0]	n/a	catFR1	3	R1328E
1628.806	0.0	1630377	ENCODING_END	n/a	n/a	n/a	n/a	-999	14	[0, 0, 0]	n/a	catFR1	3	R1328E
1628.806	0.0	1630377	DISTRACT_START	n/a	n/a	n/a	n/a	-999	14	[0, 0, 0]	n/a	catFR1	3	R1328E
1628.806	0.016	1630377	START	n/a	n/a	n/a	n/a	-999	14	[-999, -999, -999]	n/a	catFR1	3	R1328E
1628.822	3.767	1630393	PROB	3.73	n/a	n/a	n/a	-999	14	[4, 1, 1]	6.0	catFR1	3	R1328E
1632.589	9.519	1634160	PROB	9.495	n/a	n/a	n/a	-999	14	[9, 7, 7]	23.0	catFR1	3	R1328E
1642.108	8.053	1643679	PROB	8.053	n/a	n/a	n/a	-999	14	[2, 5, 8]	15.0	catFR1	3	R1328E
1650.161	0.016	1651731	STOP	n/a	n/a	n/a	n/a	-999	14	[-999, -999, -999]	n/a	catFR1	3	R1328E
1650.177	0.566	1651747	DISTRACT_END	n/a	n/a	n/a	n/a	-999	14	[0, 0, 0]	n/a	catFR1	3	R1328E
1650.743	1.6	1652313	RETRIEVAL_ORIENT_START	n/a	n/a	n/a	n/a	-999	14	[0, 0, 0]	n/a	catFR1	3	R1328E
1652.277	0.0	1653847	REC_START	n/a	n/a	n/a	n/a	-999	14	[0, 0, 0]	n/a	catFR1	3	R1328E
1652.277	5.368	1653847	RETRIEVAL_ORIENT_END	n/a	n/a	n/a	n/a	-999	14	[0, 0, 0]	n/a	catFR1	3	R1328E
1657.645	0.991	1659215	REC_WORD	5.368	n/a	PIGEON	Birds	2	14	[0, 0, 0]	n/a	catFR1	3	R1328E
1658.636	3.053	1660206	REC_WORD	6.359	n/a	BLUEBIRD	Birds	7	14	[0, 0, 0]	n/a	catFR1	3	R1328E
1661.689	20.598	1663259	REC_WORD	9.412	n/a	CROW	Birds	8	14	[0, 0, 0]	n/a	catFR1	3	R1328E
1682.287	0.001	1683856	REC_END	n/a	n/a	n/a	n/a	-999	14	[0, 0, 0]	n/a	catFR1	3	R1328E
1682.288	0.026	1683857	TRIAL_END	n/a	n/a	n/a	n/a	-999	14	[0, 0, 0]	n/a	catFR1	3	R1328E
1682.314	0.0	1683883	TRIAL_START	n/a	n/a	n/a	n/a	-999	15	[0, 0, 0]	n/a	catFR1	3	R1328E
1682.314	0.0	1683883	TRIAL	n/a	n/a	n/a	n/a	-999	15	[0, 0, 0]	n/a	catFR1	3	R1328E
1682.314	4.853	1683883	WAITING_START	n/a	n/a	n/a	n/a	-999	15	[0, 0, 0]	n/a	catFR1	3	R1328E
1687.167	0.0	1688736	WAITING_END	n/a	n/a	n/a	n/a	-999	15	[0, 0, 0]	n/a	catFR1	3	R1328E
1687.167	10.0	1688736	COUNTDOWN_START	n/a	n/a	n/a	n/a	-999	15	[0, 0, 0]	n/a	catFR1	3	R1328E
1697.596	0.0	1699165	COUNTDOWN_END	n/a	n/a	n/a	n/a	-999	15	[0, 0, 0]	n/a	catFR1	3	R1328E
1697.596	1.222	1699165	ORIENT_START	n/a	n/a	n/a	n/a	-999	15	[0, 0, 0]	n/a	catFR1	3	R1328E
1698.818	0.0	1700387	ORIENT_END	n/a	n/a	n/a	n/a	-999	15	[0, 0, 0]	n/a	catFR1	3	R1328E
1698.818	0.997	1700387	ENCODING_START	n/a	n/a	n/a	n/a	-999	15	[0, 0, 0]	n/a	catFR1	3	R1328E
1699.815	1.6	1701384	WORD	n/a	wordpools/wordpool_categorized_EN.txt	TROMBONE	Instruments	1	15	[0, 0, 0]	n/a	catFR1	3	R1328E
1701.451	1.139	1703020	WORD_OFF	n/a	n/a	TROMBONE	Instruments	1	15	[0, 0, 0]	n/a	catFR1	3	R1328E
1702.59	1.6	1704159	WORD	n/a	wordpools/wordpool_categorized_EN.txt	FLUTE	Instruments	2	15	[0, 0, 0]	n/a	catFR1	3	R1328E
1704.203	1.037	1705772	WORD_OFF	n/a	n/a	FLUTE	Instruments	2	15	[0, 0, 0]	n/a	catFR1	3	R1328E
1705.24	1.6	1706808	WORD	n/a	wordpools/wordpool_categorized_EN.txt	SANDER	Tools	3	15	[0, 0, 0]	n/a	catFR1	3	R1328E
1706.869	0.775	1708437	WORD_OFF	n/a	n/a	SANDER	Tools	3	15	[0, 0, 0]	n/a	catFR1	3	R1328E
1707.644	1.6	1709212	WORD	n/a	wordpools/wordpool_categorized_EN.txt	WRENCH	Tools	4	15	[0, 0, 0]	n/a	catFR1	3	R1328E
1709.27	0.955	1710838	WORD_OFF	n/a	n/a	WRENCH	Tools	4	15	[0, 0, 0]	n/a	catFR1	3	R1328E
1710.225	1.6	1711793	WORD	n/a	wordpools/wordpool_categorized_EN.txt	CHEETAH	Zoo	5	15	[0, 0, 0]	n/a	catFR1	3	R1328E
1711.853	0.863	1713421	WORD_OFF	n/a	n/a	CHEETAH	Zoo	5	15	[0, 0, 0]	n/a	catFR1	3	R1328E
1712.716	1.6	1714284	WORD	n/a	wordpools/wordpool_categorized_EN.txt	GORILLA	Zoo	6	15	[0, 0, 0]	n/a	catFR1	3	R1328E
1714.355	0.949	1715923	WORD_OFF	n/a	n/a	GORILLA	Zoo	6	15	[0, 0, 0]	n/a	catFR1	3	R1328E
1715.304	1.6	1716872	WORD	n/a	wordpools/wordpool_categorized_EN.txt	VIOLIN	Instruments	7	15	[0, 0, 0]	n/a	catFR1	3	R1328E
1716.938	0.799	1718506	WORD_OFF	n/a	n/a	VIOLIN	Instruments	7	15	[0, 0, 0]	n/a	catFR1	3	R1328E
1717.737	1.6	1719305	WORD	n/a	wordpools/wordpool_categorized_EN.txt	TRUMPET	Instruments	8	15	[0, 0, 0]	n/a	catFR1	3	R1328E
1719.355	0.851	1720923	WORD_OFF	n/a	n/a	TRUMPET	Instruments	8	15	[0, 0, 0]	n/a	catFR1	3	R1328E
1720.206	1.6	1721774	WORD	n/a	wordpools/wordpool_categorized_EN.txt	SCREWDRIVER	Tools	9	15	[0, 0, 0]	n/a	catFR1	3	R1328E
1721.838	1.078	1723406	WORD_OFF	n/a	n/a	SCREWDRIVER	Tools	9	15	[0, 0, 0]	n/a	catFR1	3	R1328E
1722.916	1.6	1724484	WORD	n/a	wordpools/wordpool_categorized_EN.txt	PLIERS	Tools	10	15	[0, 0, 0]	n/a	catFR1	3	R1328E
1724.539	1.092	1726107	WORD_OFF	n/a	n/a	PLIERS	Tools	10	15	[0, 0, 0]	n/a	catFR1	3	R1328E
1725.631	1.6	1727199	WORD	n/a	wordpools/wordpool_categorized_EN.txt	CHIMPANZEE	Zoo	11	15	[0, 0, 0]	n/a	catFR1	3	R1328E
1727.257	0.95	1728825	WORD_OFF	n/a	n/a	CHIMPANZEE	Zoo	11	15	[0, 0, 0]	n/a	catFR1	3	R1328E
1728.207	1.6	1729775	WORD	n/a	wordpools/wordpool_categorized_EN.txt	PANDA	Zoo	12	15	[0, 0, 0]	n/a	catFR1	3	R1328E
1729.84	0.0	1731408	WORD_OFF	n/a	n/a	PANDA	Zoo	12	15	[0, 0, 0]	n/a	catFR1	3	R1328E
1729.84	0.0	1731408	ENCODING_END	n/a	n/a	n/a	n/a	-999	15	[0, 0, 0]	n/a	catFR1	3	R1328E
1729.84	0.0	1731408	DISTRACT_START	n/a	n/a	n/a	n/a	-999	15	[0, 0, 0]	n/a	catFR1	3	R1328E
1729.84	0.016	1731408	START	n/a	n/a	n/a	n/a	-999	15	[-999, -999, -999]	n/a	catFR1	3	R1328E
1729.856	12.57	1731424	PROB	12.537	n/a	n/a	n/a	-999	15	[7, 6, 5]	18.0	catFR1	3	R1328E
1742.426	10.168	1743993	PROB	10.168	n/a	n/a	n/a	-999	15	[6, 9, 8]	23.0	catFR1	3	R1328E
1752.594	0.016	1754161	STOP	n/a	n/a	n/a	n/a	-999	15	[-999, -999, -999]	n/a	catFR1	3	R1328E
1752.61	0.596	1754177	DISTRACT_END	n/a	n/a	n/a	n/a	-999	15	[0, 0, 0]	n/a	catFR1	3	R1328E
1753.206	1.6	1754773	RETRIEVAL_ORIENT_START	n/a	n/a	n/a	n/a	-999	15	[0, 0, 0]	n/a	catFR1	3	R1328E
1754.777	0.001	1756344	RETRIEVAL_ORIENT_END	n/a	n/a	n/a	n/a	-999	15	[0, 0, 0]	n/a	catFR1	3	R1328E
1754.778	1.398	1756345	REC_START	n/a	n/a	n/a	n/a	-999	15	[0, 0, 0]	n/a	catFR1	3	R1328E
1756.176	3.862	1757743	REC_WORD	1.398	n/a	TROMBONE	Instruments	1	15	[0, 0, 0]	n/a	catFR1	3	R1328E
1760.038	3.604	1761605	REC_WORD	5.26	n/a	TRUMPET	Instruments	8	15	[0, 0, 0]	n/a	catFR1	3	R1328E
1763.642	21.145	1765208	REC_WORD	8.864	n/a	VIOLIN	Instruments	7	15	[0, 0, 0]	n/a	catFR1	3	R1328E
1784.787	0.0	1786353	REC_END	n/a	n/a	n/a	n/a	-999	15	[0, 0, 0]	n/a	catFR1	3	R1328E
1784.787	0.027	1786353	TRIAL_END	n/a	n/a	n/a	n/a	-999	15	[0, 0, 0]	n/a	catFR1	3	R1328E
1784.814	0.0	1786380	TRIAL_START	n/a	n/a	n/a	n/a	-999	16	[0, 0, 0]	n/a	catFR1	3	R1328E
1784.814	0.0	1786380	TRIAL	n/a	n/a	n/a	n/a	-999	16	[0, 0, 0]	n/a	catFR1	3	R1328E
1784.814	2.52	1786380	WAITING_START	n/a	n/a	n/a	n/a	-999	16	[0, 0, 0]	n/a	catFR1	3	R1328E
1787.334	0.001	1788900	WAITING_END	n/a	n/a	n/a	n/a	-999	16	[0, 0, 0]	n/a	catFR1	3	R1328E
1787.335	10.0	1788901	COUNTDOWN_START	n/a	n/a	n/a	n/a	-999	16	[0, 0, 0]	n/a	catFR1	3	R1328E
1797.764	0.001	1799329	COUNTDOWN_END	n/a	n/a	n/a	n/a	-999	16	[0, 0, 0]	n/a	catFR1	3	R1328E
1797.765	1.07	1799330	ORIENT_START	n/a	n/a	n/a	n/a	-999	16	[0, 0, 0]	n/a	catFR1	3	R1328E
1798.835	0.0	1800400	ORIENT_END	n/a	n/a	n/a	n/a	-999	16	[0, 0, 0]	n/a	catFR1	3	R1328E
1798.835	0.874	1800400	ENCODING_START	n/a	n/a	n/a	n/a	-999	16	[0, 0, 0]	n/a	catFR1	3	R1328E
1799.709	1.6	1801274	WORD	n/a	wordpools/wordpool_categorized_EN.txt	IRON	Appliances	1	16	[0, 0, 0]	n/a	catFR1	3	R1328E
1801.32	1.077	1802885	WORD_OFF	n/a	n/a	IRON	Appliances	1	16	[0, 0, 0]	n/a	catFR1	3	R1328E
1802.397	1.6	1803962	WORD	n/a	wordpools/wordpool_categorized_EN.txt	VACUUM	Appliances	2	16	[0, 0, 0]	n/a	catFR1	3	R1328E
1804.02	1.103	1805585	WORD_OFF	n/a	n/a	VACUUM	Appliances	2	16	[0, 0, 0]	n/a	catFR1	3	R1328E
1805.123	1.6	1806688	WORD	n/a	wordpools/wordpool_categorized_EN.txt	JELLO	Desserts	3	16	[0, 0, 0]	n/a	catFR1	3	R1328E
1806.753	0.907	1808318	WORD_OFF	n/a	n/a	JELLO	Desserts	3	16	[0, 0, 0]	n/a	catFR1	3	R1328E
1807.66	1.6	1809225	WORD	n/a	wordpools/wordpool_categorized_EN.txt	FUDGE	Desserts	4	16	[0, 0, 0]	n/a	catFR1	3	R1328E
1809.288	1.118	1810853	WORD_OFF	n/a	n/a	FUDGE	Desserts	4	16	[0, 0, 0]	n/a	catFR1	3	R1328E
1810.406	1.6	1811971	WORD	n/a	wordpools/wordpool_categorized_EN.txt	DRUM	Instruments	5	16	[0, 0, 0]	n/a	catFR1	3	R1328E
1812.038	1.022	1813603	WORD_OFF	n/a	n/a	DRUM	Instruments	5	16	[0, 0, 0]	n/a	catFR1	3	R1328E
1813.06	1.6	1814625	WORD	n/a	wordpools/wordpool_categorized_EN.txt	TUBA	Instruments	6	16	[0, 0, 0]	n/a	catFR1	3	R1328E
1814.688	0.908	1816253	WORD_OFF	n/a	n/a	TUBA	Instruments	6	16	[0, 0, 0]	n/a	catFR1	3	R1328E
1815.596	1.6	1817161	WORD	n/a	wordpools/wordpool_categorized_EN.txt	WASHER	Appliances	7	16	[0, 0, 0]	n/a	catFR1	3	R1328E
1817.223	1.131	1818788	WORD_OFF	n/a	n/a	WASHER	Appliances	7	16	[0, 0, 0]	n/a	catFR1	3	R1328E
1818.354	1.6	1819919	WORD	n/a	wordpools/wordpool_categorized_EN.txt	BLENDER	Appliances	8	16	[0, 0, 0]	n/a	catFR1	3	R1328E
1819.99	1.086	1821554	WORD_OFF	n/a	n/a	BLENDER	Appliances	8	16	[0, 0, 0]	n/a	catFR1	3	R1328E
1821.076	1.6	1822640	WORD	n/a	wordpools/wordpool_categorized_EN.txt	CUPCAKE	Desserts	9	16	[0, 0, 0]	n/a	catFR1	3	R1328E
1822.706	0.969	1824270	WORD_OFF	n/a	n/a	CUPCAKE	Desserts	9	16	[0, 0, 0]	n/a	catFR1	3	R1328E
1823.675	1.6	1825239	WORD	n/a	wordpools/wordpool_categorized_EN.txt	MOUSSE	Desserts	10	16	[0, 0, 0]	n/a	catFR1	3	R1328E
1825.291	1.083	1826855	WORD_OFF	n/a	n/a	MOUSSE	Desserts	10	16	[0, 0, 0]	n/a	catFR1	3	R1328E
1826.374	1.6	1827938	WORD	n/a	wordpools/wordpool_categorized_EN.txt	GUITAR	Instruments	11	16	[0, 0, 0]	n/a	catFR1	3	R1328E
1828.008	1.119	1829572	WORD_OFF	n/a	n/a	GUITAR	Instruments	11	16	[0, 0, 0]	n/a	catFR1	3	R1328E
1829.127	1.6	1830691	WORD	n/a	wordpools/wordpool_categorized_EN.txt	PIANO	Instruments	12	16	[0, 0, 0]	n/a	catFR1	3	R1328E
1830.757	0.001	1832321	WORD_OFF	n/a	n/a	PIANO	Instruments	12	16	[0, 0, 0]	n/a	catFR1	3	R1328E
1830.758	0.0	1832322	ENCODING_END	n/a	n/a	n/a	n/a	-999	16	[0, 0, 0]	n/a	catFR1	3	R1328E
1830.758	0.0	1832322	DISTRACT_START	n/a	n/a	n/a	n/a	-999	16	[0, 0, 0]	n/a	catFR1	3	R1328E
1830.758	0.016	1832322	START	n/a	n/a	n/a	n/a	-999	16	[-999, -999, -999]	n/a	catFR1	3	R1328E
1830.774	8.386	1832338	PROB	8.356	n/a	n/a	n/a	-999	16	[6, 1, 6]	13.0	catFR1	3	R1328E
1839.16	9.034	1840724	PROB	9.012	n/a	n/a	n/a	-999	16	[2, 9, 2]	13.0	catFR1	3	R1328E
1848.194	23.05	1849757	PROB	23.05	n/a	n/a	n/a	-999	16	[6, 8, 8]	22.0	catFR1	3	R1328E
1871.244	0.022	1872807	STOP	n/a	n/a	n/a	n/a	-999	16	[-999, -999, -999]	n/a	catFR1	3	R1328E
1871.266	0.646	1872829	DISTRACT_END	n/a	n/a	n/a	n/a	-999	16	[0, 0, 0]	n/a	catFR1	3	R1328E
1871.912	1.6	1873475	RETRIEVAL_ORIENT_START	n/a	n/a	n/a	n/a	-999	16	[0, 0, 0]	n/a	catFR1	3	R1328E
1873.632	0.0	1875195	RETRIEVAL_ORIENT_END	n/a	n/a	n/a	n/a	-999	16	[0, 0, 0]	n/a	catFR1	3	R1328E
1873.632	0.238	1875195	REC_START	n/a	n/a	n/a	n/a	-999	16	[0, 0, 0]	n/a	catFR1	3	R1328E
1873.87	1.32	1875433	REC_WORD	0.238	n/a	TUBA	Instruments	6	16	[0, 0, 0]	n/a	catFR1	3	R1328E
1875.19	1.03	1876753	REC_WORD	1.558	n/a	DRUM	Instruments	5	16	[0, 0, 0]	n/a	catFR1	3	R1328E
1876.22	27.421	1877783	REC_WORD	2.588	n/a	PIANO	Instruments	12	16	[0, 0, 0]	n/a	catFR1	3	R1328E
1903.641	0.001	1905203	REC_END	n/a	n/a	n/a	n/a	-999	16	[0, 0, 0]	n/a	catFR1	3	R1328E
1903.642	0.026	1905204	TRIAL_END	n/a	n/a	n/a	n/a	-999	16	[0, 0, 0]	n/a	catFR1	3	R1328E
1903.668	0.0	1905230	TRIAL_START	n/a	n/a	n/a	n/a	-999	17	[0, 0, 0]	n/a	catFR1	3	R1328E
1903.668	0.001	1905230	TRIAL	n/a	n/a	n/a	n/a	-999	17	[0, 0, 0]	n/a	catFR1	3	R1328E
1903.669	6.453	1905231	WAITING_START	n/a	n/a	n/a	n/a	-999	17	[0, 0, 0]	n/a	catFR1	3	R1328E
1910.122	0.001	1911683	WAITING_END	n/a	n/a	n/a	n/a	-999	17	[0, 0, 0]	n/a	catFR1	3	R1328E
1910.123	10.0	1911684	COUNTDOWN_START	n/a	n/a	n/a	n/a	-999	17	[0, 0, 0]	n/a	catFR1	3	R1328E
1920.552	0.0	1922113	COUNTDOWN_END	n/a	n/a	n/a	n/a	-999	17	[0, 0, 0]	n/a	catFR1	3	R1328E
1920.552	1.121	1922113	ORIENT_START	n/a	n/a	n/a	n/a	-999	17	[0, 0, 0]	n/a	catFR1	3	R1328E
1921.673	0.001	1923234	ORIENT_END	n/a	n/a	n/a	n/a	-999	17	[0, 0, 0]	n/a	catFR1	3	R1328E
1921.674	1.08	1923235	ENCODING_START	n/a	n/a	n/a	n/a	-999	17	[0, 0, 0]	n/a	catFR1	3	R1328E
1922.754	1.6	1924315	WORD	n/a	wordpools/wordpool_categorized_EN.txt	LEMONADE	Beverages	1	17	[0, 0, 0]	n/a	catFR1	3	R1328E
1924.391	0.751	1925952	WORD_OFF	n/a	n/a	LEMONADE	Beverages	1	17	[0, 0, 0]	n/a	catFR1	3	R1328E
1925.142	1.6	1926703	WORD	n/a	wordpools/wordpool_categorized_EN.txt	CIDER	Beverages	2	17	[0, 0, 0]	n/a	catFR1	3	R1328E
1926.774	1.141	1928335	WORD_OFF	n/a	n/a	CIDER	Beverages	2	17	[0, 0, 0]	n/a	catFR1	3	R1328E
1927.915	1.6	1929476	WORD	n/a	wordpools/wordpool_categorized_EN.txt	ROBIN	Birds	3	17	[0, 0, 0]	n/a	catFR1	3	R1328E
1929.541	0.935	1931102	WORD_OFF	n/a	n/a	ROBIN	Birds	3	17	[0, 0, 0]	n/a	catFR1	3	R1328E
1930.476	1.6	1932037	WORD	n/a	wordpools/wordpool_categorized_EN.txt	DUCK	Birds	4	17	[0, 0, 0]	n/a	catFR1	3	R1328E
1932.093	1.066	1933654	WORD_OFF	n/a	n/a	DUCK	Birds	4	17	[0, 0, 0]	n/a	catFR1	3	R1328E
1933.159	1.6	1934720	WORD	n/a	wordpools/wordpool_categorized_EN.txt	SOCKS	Clothing	5	17	[0, 0, 0]	n/a	catFR1	3	R1328E
1934.792	1.15	1936352	WORD_OFF	n/a	n/a	SOCKS	Clothing	5	17	[0, 0, 0]	n/a	catFR1	3	R1328E
1935.942	1.6	1937502	WORD	n/a	wordpools/wordpool_categorized_EN.txt	PANTS	Clothing	6	17	[0, 0, 0]	n/a	catFR1	3	R1328E
1937.576	0.962	1939136	WORD_OFF	n/a	n/a	PANTS	Clothing	6	17	[0, 0, 0]	n/a	catFR1	3	R1328E
1938.538	1.6	1940098	WORD	n/a	wordpools/wordpool_categorized_EN.txt	SPARROW	Birds	7	17	[0, 0, 0]	n/a	catFR1	3	R1328E
1940.144	0.785	1941704	WORD_OFF	n/a	n/a	SPARROW	Birds	7	17	[0, 0, 0]	n/a	catFR1	3	R1328E
1940.929	1.6	1942489	WORD	n/a	wordpools/wordpool_categorized_EN.txt	FINCH	Birds	8	17	[0, 0, 0]	n/a	catFR1	3	R1328E
1942.56	0.93	1944120	WORD_OFF	n/a	n/a	FINCH	Birds	8	17	[0, 0, 0]	n/a	catFR1	3	R1328E
1943.49	1.6	1945050	WORD	n/a	wordpools/wordpool_categorized_EN.txt	RUM	Beverages	9	17	[0, 0, 0]	n/a	catFR1	3	R1328E
1945.112	1.131	1946672	WORD_OFF	n/a	n/a	RUM	Beverages	9	17	[0, 0, 0]	n/a	catFR1	3	R1328E
1946.243	1.6	1947803	WORD	n/a	wordpools/wordpool_categorized_EN.txt	COFFEE	Beverages	10	17	[0, 0, 0]	n/a	catFR1	3	R1328E
1947.878	0.804	1949438	WORD_OFF	n/a	n/a	COFFEE	Beverages	10	17	[0, 0, 0]	n/a	catFR1	3	R1328E
1948.682	1.6	1950242	WORD	n/a	wordpools/wordpool_categorized_EN.txt	SHORTS	Clothing	11	17	[0, 0, 0]	n/a	catFR1	3	R1328E
1950.296	0.941	1951856	WORD_OFF	n/a	n/a	SHORTS	Clothing	11	17	[0, 0, 0]	n/a	catFR1	3	R1328E
1951.237	1.6	1952797	WORD	n/a	wordpools/wordpool_categorized_EN.txt	JEANS	Clothing	12	17	[0, 0, 0]	n/a	catFR1	3	R1328E
1952.862	0.001	1954422	WORD_OFF	n/a	n/a	JEANS	Clothing	12	17	[0, 0, 0]	n/a	catFR1	3	R1328E
1952.863	0.0	1954423	ENCODING_END	n/a	n/a	n/a	n/a	-999	17	[0, 0, 0]	n/a	catFR1	3	R1328E
1952.863	0.0	1954423	DISTRACT_START	n/a	n/a	n/a	n/a	-999	17	[0, 0, 0]	n/a	catFR1	3	R1328E
1952.863	0.016	1954423	START	n/a	n/a	n/a	n/a	-999	17	[-999, -999, -999]	n/a	catFR1	3	R1328E
1952.879	21.735	1954439	PROB	21.735	n/a	n/a	n/a	-999	17	[9, 6, 8]	23.0	catFR1	3	R1328E
1974.614	0.019	1976173	STOP	n/a	n/a	n/a	n/a	-999	17	[-999, -999, -999]	n/a	catFR1	3	R1328E
1974.633	0.507	1976192	DISTRACT_END	n/a	n/a	n/a	n/a	-999	17	[0, 0, 0]	n/a	catFR1	3	R1328E
1975.14	1.6	1976699	RETRIEVAL_ORIENT_START	n/a	n/a	n/a	n/a	-999	17	[0, 0, 0]	n/a	catFR1	3	R1328E
1976.816	0.001	1978375	RETRIEVAL_ORIENT_END	n/a	n/a	n/a	n/a	-999	17	[0, 0, 0]	n/a	catFR1	3	R1328E
1976.817	1.58	1978376	REC_START	n/a	n/a	n/a	n/a	-999	17	[0, 0, 0]	n/a	catFR1	3	R1328E
1978.397	1.37	1979956	REC_WORD	1.58	n/a	RUM	Beverages	9	17	[0, 0, 0]	n/a	catFR1	3	R1328E
1979.767	18.889	1981326	REC_WORD	2.95	n/a	COFFEE	Beverages	10	17	[0, 0, 0]	n/a	catFR1	3	R1328E
1998.656	1.058	2000214	REC_WORD	21.839	n/a	ROBIN	Birds	3	17	[0, 0, 0]	n/a	catFR1	3	R1328E
1999.714	7.112	2001272	REC_WORD	22.897	n/a	SPARROW	Birds	7	17	[0, 0, 0]	n/a	catFR1	3	R1328E
2006.826	0.0	2008384	REC_END	n/a	n/a	n/a	n/a	-999	17	[0, 0, 0]	n/a	catFR1	3	R1328E
2006.826	0.027	2008384	TRIAL_END	n/a	n/a	n/a	n/a	-999	17	[0, 0, 0]	n/a	catFR1	3	R1328E
2006.853	0.0	2008411	WAITING_START	n/a	n/a	n/a	n/a	-999	18	[0, 0, 0]	n/a	catFR1	3	R1328E
2006.853	0.0	2008411	TRIAL_START	n/a	n/a	n/a	n/a	-999	18	[0, 0, 0]	n/a	catFR1	3	R1328E
2006.853	4.036	2008411	TRIAL	n/a	n/a	n/a	n/a	-999	18	[0, 0, 0]	n/a	catFR1	3	R1328E
2010.889	0.0	2012447	WAITING_END	n/a	n/a	n/a	n/a	-999	18	[0, 0, 0]	n/a	catFR1	3	R1328E
2010.889	10.0	2012447	COUNTDOWN_START	n/a	n/a	n/a	n/a	-999	18	[0, 0, 0]	n/a	catFR1	3	R1328E
2021.318	0.0	2022875	COUNTDOWN_END	n/a	n/a	n/a	n/a	-999	18	[0, 0, 0]	n/a	catFR1	3	R1328E
2021.318	1.14	2022875	ORIENT_START	n/a	n/a	n/a	n/a	-999	18	[0, 0, 0]	n/a	catFR1	3	R1328E
2022.458	0.0	2024015	ORIENT_END	n/a	n/a	n/a	n/a	-999	18	[0, 0, 0]	n/a	catFR1	3	R1328E
2022.458	0.786	2024015	ENCODING_START	n/a	n/a	n/a	n/a	-999	18	[0, 0, 0]	n/a	catFR1	3	R1328E
2023.244	1.6	2024801	WORD	n/a	wordpools/wordpool_categorized_EN.txt	COMPUTER	Electronics	1	18	[0, 0, 0]	n/a	catFR1	3	R1328E
2024.875	0.859	2026432	WORD_OFF	n/a	n/a	COMPUTER	Electronics	1	18	[0, 0, 0]	n/a	catFR1	3	R1328E
2025.734	1.6	2027291	WORD	n/a	wordpools/wordpool_categorized_EN.txt	CALCULATOR	Electronics	2	18	[0, 0, 0]	n/a	catFR1	3	R1328E
2027.36	0.884	2028917	WORD_OFF	n/a	n/a	CALCULATOR	Electronics	2	18	[0, 0, 0]	n/a	catFR1	3	R1328E
2028.244	1.6	2029801	WORD	n/a	wordpools/wordpool_categorized_EN.txt	HICKORY	Trees	3	18	[0, 0, 0]	n/a	catFR1	3	R1328E
2029.876	1.096	2031433	WORD_OFF	n/a	n/a	HICKORY	Trees	3	18	[0, 0, 0]	n/a	catFR1	3	R1328E
2030.972	1.6	2032529	WORD	n/a	wordpools/wordpool_categorized_EN.txt	ELM	Trees	4	18	[0, 0, 0]	n/a	catFR1	3	R1328E
2032.593	0.824	2034150	WORD_OFF	n/a	n/a	ELM	Trees	4	18	[0, 0, 0]	n/a	catFR1	3	R1328E
2033.417	1.6	2034974	WORD	n/a	wordpools/wordpool_categorized_EN.txt	CAR	Vehicles	5	18	[0, 0, 0]	n/a	catFR1	3	R1328E
2035.044	0.758	2036601	WORD_OFF	n/a	n/a	CAR	Vehicles	5	18	[0, 0, 0]	n/a	catFR1	3	R1328E
2035.802	1.6	2037359	WORD	n/a	wordpools/wordpool_categorized_EN.txt	SCOOTER	Vehicles	6	18	[0, 0, 0]	n/a	catFR1	3	R1328E
2037.428	0.788	2038985	WORD_OFF	n/a	n/a	SCOOTER	Vehicles	6	18	[0, 0, 0]	n/a	catFR1	3	R1328E
2038.216	1.6	2039773	WORD	n/a	wordpools/wordpool_categorized_EN.txt	CEDAR	Trees	7	18	[0, 0, 0]	n/a	catFR1	3	R1328E
2039.844	1.06	2041401	WORD_OFF	n/a	n/a	CEDAR	Trees	7	18	[0, 0, 0]	n/a	catFR1	3	R1328E
2040.904	1.6	2042461	WORD	n/a	wordpools/wordpool_categorized_EN.txt	EVERGREEN	Trees	8	18	[0, 0, 0]	n/a	catFR1	3	R1328E
2042.528	0.866	2044085	WORD_OFF	n/a	n/a	EVERGREEN	Trees	8	18	[0, 0, 0]	n/a	catFR1	3	R1328E
2043.394	1.6	2044951	WORD	n/a	wordpools/wordpool_categorized_EN.txt	TRUCK	Vehicles	9	18	[0, 0, 0]	n/a	catFR1	3	R1328E
2045.029	0.893	2046586	WORD_OFF	n/a	n/a	TRUCK	Vehicles	9	18	[0, 0, 0]	n/a	catFR1	3	R1328E
2045.922	1.6	2047479	WORD	n/a	wordpools/wordpool_categorized_EN.txt	BOAT	Vehicles	10	18	[0, 0, 0]	n/a	catFR1	3	R1328E
2047.545	1.062	2049102	WORD_OFF	n/a	n/a	BOAT	Vehicles	10	18	[0, 0, 0]	n/a	catFR1	3	R1328E
2048.607	1.6	2050164	WORD	n/a	wordpools/wordpool_categorized_EN.txt	MICROWAVE	Electronics	11	18	[0, 0, 0]	n/a	catFR1	3	R1328E
2050.214	0.891	2051770	WORD_OFF	n/a	n/a	MICROWAVE	Electronics	11	18	[0, 0, 0]	n/a	catFR1	3	R1328E
2051.105	1.6	2052661	WORD	n/a	wordpools/wordpool_categorized_EN.txt	TABLET	Electronics	12	18	[0, 0, 0]	n/a	catFR1	3	R1328E
2052.73	0.0	2054286	WORD_OFF	n/a	n/a	TABLET	Electronics	12	18	[0, 0, 0]	n/a	catFR1	3	R1328E
2052.73	0.0	2054286	ENCODING_END	n/a	n/a	n/a	n/a	-999	18	[0, 0, 0]	n/a	catFR1	3	R1328E
2052.73	0.001	2054286	DISTRACT_START	n/a	n/a	n/a	n/a	-999	18	[0, 0, 0]	n/a	catFR1	3	R1328E
2052.731	0.015	2054287	START	n/a	n/a	n/a	n/a	-999	18	[-999, -999, -999]	n/a	catFR1	3	R1328E
2052.746	15.27	2054302	PROB	15.234	n/a	n/a	n/a	-999	18	[3, 8, 9]	20.0	catFR1	3	R1328E
2068.016	5.681	2069572	PROB	5.681	n/a	n/a	n/a	-999	18	[8, 8, 1]	17.0	catFR1	3	R1328E
2073.697	0.02	2075253	STOP	n/a	n/a	n/a	n/a	-999	18	[-999, -999, -999]	n/a	catFR1	3	R1328E
2073.717	0.62	2075273	DISTRACT_END	n/a	n/a	n/a	n/a	-999	18	[0, 0, 0]	n/a	catFR1	3	R1328E
2074.337	1.6	2075893	RETRIEVAL_ORIENT_START	n/a	n/a	n/a	n/a	-999	18	[0, 0, 0]	n/a	catFR1	3	R1328E
2075.985	0.0	2077541	RETRIEVAL_ORIENT_END	n/a	n/a	n/a	n/a	-999	18	[0, 0, 0]	n/a	catFR1	3	R1328E
2075.985	0.776	2077541	REC_START	n/a	n/a	n/a	n/a	-999	18	[0, 0, 0]	n/a	catFR1	3	R1328E
2076.761	1.657	2078317	REC_WORD	0.776	n/a	SCOOTER	Vehicles	6	18	[0, 0, 0]	n/a	catFR1	3	R1328E
2078.418	27.578	2079973	REC_WORD	2.433	n/a	TRUCK	Vehicles	9	18	[0, 0, 0]	n/a	catFR1	3	R1328E
2105.996	0.0	2107551	REC_END	n/a	n/a	n/a	n/a	-999	18	[0, 0, 0]	n/a	catFR1	3	R1328E
2105.996	0.027	2107551	TRIAL_END	n/a	n/a	n/a	n/a	-999	18	[0, 0, 0]	n/a	catFR1	3	R1328E
2106.023	0.0	2107578	TRIAL_START	n/a	n/a	n/a	n/a	-999	19	[0, 0, 0]	n/a	catFR1	3	R1328E
2106.023	0.0	2107578	TRIAL	n/a	n/a	n/a	n/a	-999	19	[0, 0, 0]	n/a	catFR1	3	R1328E
2106.023	4.001	2107578	WAITING_START	n/a	n/a	n/a	n/a	-999	19	[0, 0, 0]	n/a	catFR1	3	R1328E
2110.024	0.001	2111578	WAITING_END	n/a	n/a	n/a	n/a	-999	19	[0, 0, 0]	n/a	catFR1	3	R1328E
2110.025	10.0	2111579	COUNTDOWN_START	n/a	n/a	n/a	n/a	-999	19	[0, 0, 0]	n/a	catFR1	3	R1328E
2120.454	0.001	2122008	COUNTDOWN_END	n/a	n/a	n/a	n/a	-999	19	[0, 0, 0]	n/a	catFR1	3	R1328E
2120.455	1.254	2122009	ORIENT_START	n/a	n/a	n/a	n/a	-999	19	[0, 0, 0]	n/a	catFR1	3	R1328E
2121.709	0.0	2123263	ORIENT_END	n/a	n/a	n/a	n/a	-999	19	[0, 0, 0]	n/a	catFR1	3	R1328E
2121.709	0.984	2123263	ENCODING_START	n/a	n/a	n/a	n/a	-999	19	[0, 0, 0]	n/a	catFR1	3	R1328E
2122.693	1.6	2124247	WORD	n/a	wordpools/wordpool_categorized_EN.txt	JACKET	Clothing	1	19	[0, 0, 0]	n/a	catFR1	3	R1328E
2124.31	0.883	2125864	WORD_OFF	n/a	n/a	JACKET	Clothing	1	19	[0, 0, 0]	n/a	catFR1	3	R1328E
2125.193	1.6	2126747	WORD	n/a	wordpools/wordpool_categorized_EN.txt	BLOUSE	Clothing	2	19	[0, 0, 0]	n/a	catFR1	3	R1328E
2126.826	0.884	2128380	WORD_OFF	n/a	n/a	BLOUSE	Clothing	2	19	[0, 0, 0]	n/a	catFR1	3	R1328E
2127.71	1.6	2129264	WORD	n/a	wordpools/wordpool_categorized_EN.txt	NOTEBOOK	OfficeSupplies	3	19	[0, 0, 0]	n/a	catFR1	3	R1328E
2129.344	1.069	2130898	WORD_OFF	n/a	n/a	NOTEBOOK	OfficeSupplies	3	19	[0, 0, 0]	n/a	catFR1	3	R1328E
2130.413	1.6	2131967	WORD	n/a	wordpools/wordpool_categorized_EN.txt	PEN	OfficeSupplies	4	19	[0, 0, 0]	n/a	catFR1	3	R1328E
2132.045	1.001	2133599	WORD_OFF	n/a	n/a	PEN	OfficeSupplies	4	19	[0, 0, 0]	n/a	catFR1	3	R1328E
2133.046	1.6	2134600	WORD	n/a	wordpools/wordpool_categorized_EN.txt	PLANE	Vehicles	5	19	[0, 0, 0]	n/a	catFR1	3	R1328E
2134.677	0.923	2136231	WORD_OFF	n/a	n/a	PLANE	Vehicles	5	19	[0, 0, 0]	n/a	catFR1	3	R1328E
2135.6	1.6	2137153	WORD	n/a	wordpools/wordpool_categorized_EN.txt	BUS	Vehicles	6	19	[0, 0, 0]	n/a	catFR1	3	R1328E
2137.229	0.992	2138782	WORD_OFF	n/a	n/a	BUS	Vehicles	6	19	[0, 0, 0]	n/a	catFR1	3	R1328E
2138.221	1.6	2139774	WORD	n/a	wordpools/wordpool_categorized_EN.txt	UNDERWEAR	Clothing	7	19	[0, 0, 0]	n/a	catFR1	3	R1328E
2139.845	1.145	2141398	WORD_OFF	n/a	n/a	UNDERWEAR	Clothing	7	19	[0, 0, 0]	n/a	catFR1	3	R1328E
2140.99	1.6	2142543	WORD	n/a	wordpools/wordpool_categorized_EN.txt	SHIRT	Clothing	8	19	[0, 0, 0]	n/a	catFR1	3	R1328E
2142.612	1.099	2144165	WORD_OFF	n/a	n/a	SHIRT	Clothing	8	19	[0, 0, 0]	n/a	catFR1	3	R1328E
2143.711	1.6	2145264	WORD	n/a	wordpools/wordpool_categorized_EN.txt	MARKER	OfficeSupplies	9	19	[0, 0, 0]	n/a	catFR1	3	R1328E
2145.347	0.836	2146900	WORD_OFF	n/a	n/a	MARKER	OfficeSupplies	9	19	[0, 0, 0]	n/a	catFR1	3	R1328E
2146.183	1.6	2147736	WORD	n/a	wordpools/wordpool_categorized_EN.txt	BINDER	OfficeSupplies	10	19	[0, 0, 0]	n/a	catFR1	3	R1328E
2147.813	1.109	2149366	WORD_OFF	n/a	n/a	BINDER	OfficeSupplies	10	19	[0, 0, 0]	n/a	catFR1	3	R1328E
2148.922	1.6	2150475	WORD	n/a	wordpools/wordpool_categorized_EN.txt	JEEP	Vehicles	11	19	[0, 0, 0]	n/a	catFR1	3	R1328E
2150.547	0.88	2152100	WORD_OFF	n/a	n/a	JEEP	Vehicles	11	19	[0, 0, 0]	n/a	catFR1	3	R1328E
2151.427	1.6	2152980	WORD	n/a	wordpools/wordpool_categorized_EN.txt	BIKE	Vehicles	12	19	[0, 0, 0]	n/a	catFR1	3	R1328E
2153.031	0.001	2154584	WORD_OFF	n/a	n/a	BIKE	Vehicles	12	19	[0, 0, 0]	n/a	catFR1	3	R1328E
2153.032	0.0	2154585	DISTRACT_START	n/a	n/a	n/a	n/a	-999	19	[0, 0, 0]	n/a	catFR1	3	R1328E
2153.032	0.0	2154585	ENCODING_END	n/a	n/a	n/a	n/a	-999	19	[0, 0, 0]	n/a	catFR1	3	R1328E
2153.032	0.016	2154585	START	n/a	n/a	n/a	n/a	-999	19	[-999, -999, -999]	n/a	catFR1	3	R1328E
2153.048	6.068	2154601	PROB	6.04	n/a	n/a	n/a	-999	19	[7, 1, 2]	10.0	catFR1	3	R1328E
2159.116	11.819	2160669	PROB	11.784	n/a	n/a	n/a	-999	19	[7, 2, 5]	14.0	catFR1	3	R1328E
2170.935	10.202	2172487	PROB	10.202	n/a	n/a	n/a	-999	19	[4, 7, 3]	14.0	catFR1	3	R1328E
2181.137	0.016	2182689	STOP	n/a	n/a	n/a	n/a	-999	19	[-999, -999, -999]	n/a	catFR1	3	R1328E
2181.153	0.514	2182705	DISTRACT_END	n/a	n/a	n/a	n/a	-999	19	[0, 0, 0]	n/a	catFR1	3	R1328E
2181.667	1.6	2183219	RETRIEVAL_ORIENT_START	n/a	n/a	n/a	n/a	-999	19	[0, 0, 0]	n/a	catFR1	3	R1328E
2183.237	0.0	2184789	RETRIEVAL_ORIENT_END	n/a	n/a	n/a	n/a	-999	19	[0, 0, 0]	n/a	catFR1	3	R1328E
2183.237	0.0	2184789	REC_START	n/a	n/a	n/a	n/a	-999	19	[0, 0, 0]	n/a	catFR1	3	R1328E
2183.237	1.058	2184789	REC_WORD	0.0	n/a	BUS	Vehicles	6	19	[0, 0, 0]	n/a	catFR1	3	R1328E
2184.295	28.952	2185847	REC_WORD	1.058	n/a	AIRPLANE	n/a	-999	19	[0, 0, 0]	n/a	catFR1	3	R1328E
2213.247	0.0	2214798	REC_END	n/a	n/a	n/a	n/a	-999	19	[0, 0, 0]	n/a	catFR1	3	R1328E
2213.247	0.03	2214798	TRIAL_END	n/a	n/a	n/a	n/a	-999	19	[0, 0, 0]	n/a	catFR1	3	R1328E
2213.277	0.0	2214828	TRIAL_START	n/a	n/a	n/a	n/a	-999	20	[0, 0, 0]	n/a	catFR1	3	R1328E
2213.277	0.0	2214828	TRIAL	n/a	n/a	n/a	n/a	-999	20	[0, 0, 0]	n/a	catFR1	3	R1328E
2213.277	5.199	2214828	WAITING_START	n/a	n/a	n/a	n/a	-999	20	[0, 0, 0]	n/a	catFR1	3	R1328E
2218.476	0.0	2220027	WAITING_END	n/a	n/a	n/a	n/a	-999	20	[0, 0, 0]	n/a	catFR1	3	R1328E
2218.476	10.0	2220027	COUNTDOWN_START	n/a	n/a	n/a	n/a	-999	20	[0, 0, 0]	n/a	catFR1	3	R1328E
2228.905	0.0	2230455	ORIENT_START	n/a	n/a	n/a	n/a	-999	20	[0, 0, 0]	n/a	catFR1	3	R1328E
2228.905	1.107	2230455	COUNTDOWN_END	n/a	n/a	n/a	n/a	-999	20	[0, 0, 0]	n/a	catFR1	3	R1328E
2230.012	0.0	2231562	ORIENT_END	n/a	n/a	n/a	n/a	-999	20	[0, 0, 0]	n/a	catFR1	3	R1328E
2230.012	1.075	2231562	ENCODING_START	n/a	n/a	n/a	n/a	-999	20	[0, 0, 0]	n/a	catFR1	3	R1328E
2231.087	1.6	2232637	WORD	n/a	wordpools/wordpool_categorized_EN.txt	PINE	Trees	1	20	[0, 0, 0]	n/a	catFR1	3	R1328E
2232.711	0.849	2234261	WORD_OFF	n/a	n/a	PINE	Trees	1	20	[0, 0, 0]	n/a	catFR1	3	R1328E
2233.56	1.6	2235110	WORD	n/a	wordpools/wordpool_categorized_EN.txt	SPRUCE	Trees	2	20	[0, 0, 0]	n/a	catFR1	3	R1328E
2235.196	1.14	2236746	WORD_OFF	n/a	n/a	SPRUCE	Trees	2	20	[0, 0, 0]	n/a	catFR1	3	R1328E
2236.336	1.6	2237886	WORD	n/a	wordpools/wordpool_categorized_EN.txt	PEAS	Vegetables	3	20	[0, 0, 0]	n/a	catFR1	3	R1328E
2237.963	0.965	2239513	WORD_OFF	n/a	n/a	PEAS	Vegetables	3	20	[0, 0, 0]	n/a	catFR1	3	R1328E
2238.928	1.6	2240478	WORD	n/a	wordpools/wordpool_categorized_EN.txt	SPINACH	Vegetables	4	20	[0, 0, 0]	n/a	catFR1	3	R1328E
2240.563	1.057	2242113	WORD_OFF	n/a	n/a	SPINACH	Vegetables	4	20	[0, 0, 0]	n/a	catFR1	3	R1328E
2241.62	1.6	2243170	WORD	n/a	wordpools/wordpool_categorized_EN.txt	LIGHTNING	Weather	5	20	[0, 0, 0]	n/a	catFR1	3	R1328E
2243.231	0.778	2244781	WORD_OFF	n/a	n/a	LIGHTNING	Weather	5	20	[0, 0, 0]	n/a	catFR1	3	R1328E
2244.009	1.6	2245559	WORD	n/a	wordpools/wordpool_categorized_EN.txt	WIND	Weather	6	20	[0, 0, 0]	n/a	catFR1	3	R1328E
2245.63	0.859	2247180	WORD_OFF	n/a	n/a	WIND	Weather	6	20	[0, 0, 0]	n/a	catFR1	3	R1328E
2246.489	1.6	2248039	WORD	n/a	wordpools/wordpool_categorized_EN.txt	ONION	Vegetables	7	20	[0, 0, 0]	n/a	catFR1	3	R1328E
2248.115	0.769	2249665	WORD_OFF	n/a	n/a	ONION	Vegetables	7	20	[0, 0, 0]	n/a	catFR1	3	R1328E
2248.884	1.6	2250434	WORD	n/a	wordpools/wordpool_categorized_EN.txt	CELERY	Vegetables	8	20	[0, 0, 0]	n/a	catFR1	3	R1328E
2250.515	0.759	2252064	WORD_OFF	n/a	n/a	CELERY	Vegetables	8	20	[0, 0, 0]	n/a	catFR1	3	R1328E
2251.274	1.6	2252823	WORD	n/a	wordpools/wordpool_categorized_EN.txt	OAK	Trees	9	20	[0, 0, 0]	n/a	catFR1	3	R1328E
2252.898	1.151	2254447	WORD_OFF	n/a	n/a	OAK	Trees	9	20	[0, 0, 0]	n/a	catFR1	3	R1328E
2254.049	1.6	2255598	WORD	n/a	wordpools/wordpool_categorized_EN.txt	BIRCH	Trees	10	20	[0, 0, 0]	n/a	catFR1	3	R1328E
2255.682	0.791	2257231	WORD_OFF	n/a	n/a	BIRCH	Trees	10	20	[0, 0, 0]	n/a	catFR1	3	R1328E
2256.473	1.6	2258022	WORD	n/a	wordpools/wordpool_categorized_EN.txt	THUNDER	Weather	11	20	[0, 0, 0]	n/a	catFR1	3	R1328E
2258.083	0.897	2259632	WORD_OFF	n/a	n/a	THUNDER	Weather	11	20	[0, 0, 0]	n/a	catFR1	3	R1328E
