onset	duration	sample	trial_type	response_time	stim_file	item_name	category	serialpos	list	test	answer	experiment	session	subject
0.0	164.95	181726	INSTRUCT_START	n/a	n/a	n/a	n/a	-999	-999	[0, 0, 0]	n/a	catFR1	2	R1626S
164.95	32.134	346665	INSTRUCT_END	n/a	n/a	n/a	n/a	-999	-999	[0, 0, 0]	n/a	catFR1	2	R1626S
197.084	10.349	378800	COUNTDOWN_START	n/a	n/a	n/a	n/a	-999	-999	[0, 0, 0]	n/a	catFR1	2	R1626S
207.433	0.0	389149	COUNTDOWN_END	n/a	n/a	n/a	n/a	-999	-999	[0, 0, 0]	n/a	catFR1	2	R1626S
207.433	2.151	389149	ENCODING_START	n/a	n/a	n/a	n/a	-999	-1	[0, 0, 0]	n/a	catFR1	2	R1626S
209.584	1.616	391305	WORD	n/a	n/a	STREAM	Landscapes	1	-1	[0, 0, 0]	n/a	catFR1	2	R1626S
211.2	0.9	392917	WORD_OFF	n/a	n/a	STREAM	Landscapes	1	-1	[0, 0, 0]	n/a	catFR1	2	R1626S
212.1	1.616	393814	WORD	n/a	n/a	FOREST	Landscapes	2	-1	[0, 0, 0]	n/a	catFR1	2	R1626S
213.716	0.801	395435	WORD_OFF	n/a	n/a	FOREST	Landscapes	2	-1	[0, 0, 0]	n/a	catFR1	2	R1626S
214.517	1.616	396237	WORD	n/a	n/a	ELBOW	BodyParts	3	-1	[0, 0, 0]	n/a	catFR1	2	R1626S
216.133	0.867	397849	WORD_OFF	n/a	n/a	ELBOW	BodyParts	3	-1	[0, 0, 0]	n/a	catFR1	2	R1626S
217.0	1.6	398717	WORD	n/a	n/a	TOE	BodyParts	4	-1	[0, 0, 0]	n/a	catFR1	2	R1626S
218.6	0.849	400319	WORD_OFF	n/a	n/a	TOE	BodyParts	4	-1	[0, 0, 0]	n/a	catFR1	2	R1626S
219.449	1.601	401168	WORD	n/a	n/a	OCTOPUS	OceanAnimals	5	-1	[0, 0, 0]	n/a	catFR1	2	R1626S
221.05	0.783	402770	WORD_OFF	n/a	n/a	OCTOPUS	OceanAnimals	5	-1	[0, 0, 0]	n/a	catFR1	2	R1626S
221.833	1.6	403553	WORD	n/a	n/a	FISH	OceanAnimals	6	-1	[0, 0, 0]	n/a	catFR1	2	R1626S
223.433	0.867	405145	WORD_OFF	n/a	n/a	FISH	OceanAnimals	6	-1	[0, 0, 0]	n/a	catFR1	2	R1626S
224.3	1.6	406013	WORD	n/a	n/a	HAND	BodyParts	7	-1	[0, 0, 0]	n/a	catFR1	2	R1626S
225.9	0.917	407616	WORD_OFF	n/a	n/a	HAND	BodyParts	7	-1	[0, 0, 0]	n/a	catFR1	2	R1626S
226.817	1.6	408532	WORD	n/a	n/a	LEG	BodyParts	8	-1	[0, 0, 0]	n/a	catFR1	2	R1626S
228.417	0.933	410134	WORD_OFF	n/a	n/a	LEG	BodyParts	8	-1	[0, 0, 0]	n/a	catFR1	2	R1626S
229.35	1.6	411069	WORD	n/a	n/a	TURTLE	OceanAnimals	9	-1	[0, 0, 0]	n/a	catFR1	2	R1626S
230.95	0.983	412662	WORD_OFF	n/a	n/a	TURTLE	OceanAnimals	9	-1	[0, 0, 0]	n/a	catFR1	2	R1626S
231.933	1.601	413644	WORD	n/a	n/a	PLANKTON	OceanAnimals	10	-1	[0, 0, 0]	n/a	catFR1	2	R1626S
233.534	0.849	415247	WORD_OFF	n/a	n/a	PLANKTON	OceanAnimals	10	-1	[0, 0, 0]	n/a	catFR1	2	R1626S
234.383	1.617	416096	WORD	n/a	n/a	LAKE	Landscapes	11	-1	[0, 0, 0]	n/a	catFR1	2	R1626S
236.0	0.781	417717	WORD_OFF	n/a	n/a	LAKE	Landscapes	11	-1	[0, 0, 0]	n/a	catFR1	2	R1626S
236.781	1.603	418499	WORD	n/a	n/a	RIVER	Landscapes	12	-1	[0, 0, 0]	n/a	catFR1	2	R1626S
238.384	0.0	420101	PROB	14.366	n/a	n/a	n/a	-999	-1	[7, 4, 3]	14.0	catFR1	2	R1626S
238.383	0.002	420102	WORD_OFF	n/a	n/a	RIVER	Landscapes	12	-1	[0, 0, 0]	n/a	catFR1	2	R1626S
238.385	0.0	420102	ENCODING_END	n/a	n/a	n/a	n/a	-999	-1	[0, 0, 0]	n/a	catFR1	2	R1626S
238.385	0.0	420102	DISTRACT_START	n/a	n/a	n/a	n/a	-999	-1	[0, 0, 0]	n/a	catFR1	2	R1626S
238.385	14.381	420102	START	n/a	n/a	n/a	n/a	-999	-1	[-999, -999, -999]	n/a	catFR1	2	R1626S
252.766	33.9	434482	PROB	33.883	n/a	n/a	n/a	-999	-1	[7, 6, 5]	18.0	catFR1	2	R1626S
286.666	0.0	468376	DISTRACT_END	n/a	n/a	n/a	n/a	-999	-1	[0, 0, 0]	n/a	catFR1	2	R1626S
286.666	2.15	468381	STOP	n/a	n/a	n/a	n/a	-999	-1	[-999, -999, -999]	n/a	catFR1	2	R1626S
288.816	4.593	470532	REC_START	n/a	n/a	n/a	n/a	-999	-1	[0, 0, 0]	n/a	catFR1	2	R1626S
293.409	1.441	475123	REC_WORD	4.593	n/a	OCTOPUS	OceanAnimals	5	-1	[0, 0, 0]	n/a	catFR1	2	R1626S
294.85	1.438	476564	REC_WORD	6.034	n/a	LAKE	Landscapes	11	-1	[0, 0, 0]	n/a	catFR1	2	R1626S
296.288	1.887	478002	REC_WORD	7.472	n/a	FISH	OceanAnimals	6	-1	[0, 0, 0]	n/a	catFR1	2	R1626S
298.175	8.57	479889	REC_WORD	9.359	n/a	TURTLE	OceanAnimals	9	-1	[0, 0, 0]	n/a	catFR1	2	R1626S
306.745	9.474	488459	REC_WORD_VV	17.929	n/a	<>	n/a	-999	-1	[0, 0, 0]	n/a	catFR1	2	R1626S
316.219	2.801	497932	REC_WORD_VV	27.403	n/a	<>	n/a	-999	-1	[0, 0, 0]	n/a	catFR1	2	R1626S
319.02	14.53	500730	REC_END	n/a	n/a	n/a	n/a	-999	-1	[0, 0, 0]	n/a	catFR1	2	R1626S
333.55	10.349	515257	COUNTDOWN_START	n/a	n/a	n/a	n/a	-999	1	[0, 0, 0]	n/a	catFR1	2	R1626S
343.899	0.0	525607	COUNTDOWN_END	n/a	n/a	n/a	n/a	-999	1	[0, 0, 0]	n/a	catFR1	2	R1626S
343.899	2.066	525607	ENCODING_START	n/a	n/a	n/a	n/a	-999	1	[0, 0, 0]	n/a	catFR1	2	R1626S
345.965	1.617	527676	WORD	n/a	wordpools/wordpool_categorized_EN.txt	KNEE	BodyParts	1	1	[0, 0, 0]	n/a	catFR1	2	R1626S
347.582	0.801	529288	WORD_OFF	n/a	n/a	KNEE	BodyParts	1	1	[0, 0, 0]	n/a	catFR1	2	R1626S
348.383	1.617	530090	WORD	n/a	wordpools/wordpool_categorized_EN.txt	FINGERS	BodyParts	2	1	[0, 0, 0]	n/a	catFR1	2	R1626S
350.0	0.982	531711	WORD_OFF	n/a	n/a	FINGERS	BodyParts	2	1	[0, 0, 0]	n/a	catFR1	2	R1626S
350.982	1.601	532694	WORD	n/a	wordpools/wordpool_categorized_EN.txt	TROMBONE	Instruments	3	1	[0, 0, 0]	n/a	catFR1	2	R1626S
352.583	0.883	534296	WORD_OFF	n/a	n/a	TROMBONE	Instruments	3	1	[0, 0, 0]	n/a	catFR1	2	R1626S
353.466	1.6	535174	WORD	n/a	wordpools/wordpool_categorized_EN.txt	BANJO	Instruments	4	1	[0, 0, 0]	n/a	catFR1	2	R1626S
355.066	0.916	536776	WORD_OFF	n/a	n/a	BANJO	Instruments	4	1	[0, 0, 0]	n/a	catFR1	2	R1626S
355.982	1.601	537692	WORD	n/a	wordpools/wordpool_categorized_EN.txt	SPOON	KitchenTools	5	1	[0, 0, 0]	n/a	catFR1	2	R1626S
357.583	0.899	539294	WORD_OFF	n/a	n/a	SPOON	KitchenTools	5	1	[0, 0, 0]	n/a	catFR1	2	R1626S
358.482	1.6	540191	WORD	n/a	wordpools/wordpool_categorized_EN.txt	SPATULA	KitchenTools	6	1	[0, 0, 0]	n/a	catFR1	2	R1626S
360.082	0.933	541793	WORD_OFF	n/a	n/a	SPATULA	KitchenTools	6	1	[0, 0, 0]	n/a	catFR1	2	R1626S
361.015	1.601	542728	WORD	n/a	wordpools/wordpool_categorized_EN.txt	DRUM	Instruments	7	1	[0, 0, 0]	n/a	catFR1	2	R1626S
362.616	0.933	544321	WORD_OFF	n/a	n/a	DRUM	Instruments	7	1	[0, 0, 0]	n/a	catFR1	2	R1626S
363.549	1.601	545256	WORD	n/a	wordpools/wordpool_categorized_EN.txt	FLUTE	Instruments	8	1	[0, 0, 0]	n/a	catFR1	2	R1626S
365.15	0.833	546858	WORD_OFF	n/a	n/a	FLUTE	Instruments	8	1	[0, 0, 0]	n/a	catFR1	2	R1626S
365.983	1.616	547688	WORD	n/a	wordpools/wordpool_categorized_EN.txt	NOSE	BodyParts	9	1	[0, 0, 0]	n/a	catFR1	2	R1626S
367.599	0.967	549310	WORD_OFF	n/a	n/a	NOSE	BodyParts	9	1	[0, 0, 0]	n/a	catFR1	2	R1626S
368.566	1.6	550273	WORD	n/a	wordpools/wordpool_categorized_EN.txt	ARM	BodyParts	10	1	[0, 0, 0]	n/a	catFR1	2	R1626S
370.166	0.917	551875	WORD_OFF	n/a	n/a	ARM	BodyParts	10	1	[0, 0, 0]	n/a	catFR1	2	R1626S
371.083	1.6	552791	WORD	n/a	wordpools/wordpool_categorized_EN.txt	FORK	KitchenTools	11	1	[0, 0, 0]	n/a	catFR1	2	R1626S
372.683	0.867	554394	WORD_OFF	n/a	n/a	FORK	KitchenTools	11	1	[0, 0, 0]	n/a	catFR1	2	R1626S
373.55	1.616	555262	WORD	n/a	wordpools/wordpool_categorized_EN.txt	LADLE	KitchenTools	12	1	[0, 0, 0]	n/a	catFR1	2	R1626S
375.166	0.001	556874	WORD_OFF	n/a	n/a	LADLE	KitchenTools	12	1	[0, 0, 0]	n/a	catFR1	2	R1626S
375.167	0.001	556874	ENCODING_END	n/a	n/a	n/a	n/a	-999	1	[0, 0, 0]	n/a	catFR1	2	R1626S
375.168	0.0	556874	DISTRACT_START	n/a	n/a	n/a	n/a	-999	1	[0, 0, 0]	n/a	catFR1	2	R1626S
375.167	0.001	556878	PROB	11.815	n/a	n/a	n/a	-999	1	[8, 6, 5]	19.0	catFR1	2	R1626S
375.168	11.832	556879	START	n/a	n/a	n/a	n/a	-999	1	[-999, -999, -999]	n/a	catFR1	2	R1626S
387.0	14.466	568710	PROB	14.449	n/a	n/a	n/a	-999	1	[6, 2, 5]	13.0	catFR1	2	R1626S
401.466	0.0	583171	DISTRACT_END	n/a	n/a	n/a	n/a	-999	1	[0, 0, 0]	n/a	catFR1	2	R1626S
401.466	2.233	583175	STOP	n/a	n/a	n/a	n/a	-999	1	[-999, -999, -999]	n/a	catFR1	2	R1626S
403.699	4.832	585403	REC_START	n/a	n/a	n/a	n/a	-999	1	[0, 0, 0]	n/a	catFR1	2	R1626S
408.531	2.126	590240	REC_WORD	4.832	n/a	KNEE	BodyParts	1	1	[0, 0, 0]	n/a	catFR1	2	R1626S
410.657	5.04	592366	REC_WORD	6.958	n/a	ARM	BodyParts	10	1	[0, 0, 0]	n/a	catFR1	2	R1626S
415.697	18.183	597406	REC_WORD	11.998	n/a	TROMBONE	Instruments	3	1	[0, 0, 0]	n/a	catFR1	2	R1626S
433.88	4.769	615583	REC_END	n/a	n/a	n/a	n/a	-999	1	[0, 0, 0]	n/a	catFR1	2	R1626S
438.649	10.35	620353	COUNTDOWN_START	n/a	n/a	n/a	n/a	-999	2	[0, 0, 0]	n/a	catFR1	2	R1626S
448.999	0.0	630701	COUNTDOWN_END	n/a	n/a	n/a	n/a	-999	2	[0, 0, 0]	n/a	catFR1	2	R1626S
448.999	2.066	630701	ENCODING_START	n/a	n/a	n/a	n/a	-999	2	[0, 0, 0]	n/a	catFR1	2	R1626S
451.065	1.601	632771	WORD	n/a	wordpools/wordpool_categorized_EN.txt	CHAIR	Furniture	1	2	[0, 0, 0]	n/a	catFR1	2	R1626S
452.666	0.766	634374	WORD_OFF	n/a	n/a	CHAIR	Furniture	1	2	[0, 0, 0]	n/a	catFR1	2	R1626S
453.432	1.601	635137	WORD	n/a	wordpools/wordpool_categorized_EN.txt	RECLINER	Furniture	2	2	[0, 0, 0]	n/a	catFR1	2	R1626S
455.033	0.933	636739	WORD_OFF	n/a	n/a	RECLINER	Furniture	2	2	[0, 0, 0]	n/a	catFR1	2	R1626S
455.966	1.6	637674	WORD	n/a	wordpools/wordpool_categorized_EN.txt	FUDGE	Desserts	3	2	[0, 0, 0]	n/a	catFR1	2	R1626S
457.566	0.783	639267	WORD_OFF	n/a	n/a	FUDGE	Desserts	3	2	[0, 0, 0]	n/a	catFR1	2	R1626S
458.349	1.617	640059	WORD	n/a	wordpools/wordpool_categorized_EN.txt	PUDDING	Desserts	4	2	[0, 0, 0]	n/a	catFR1	2	R1626S
459.966	0.85	641671	WORD_OFF	n/a	n/a	PUDDING	Desserts	4	2	[0, 0, 0]	n/a	catFR1	2	R1626S
460.816	1.6	642519	WORD	n/a	wordpools/wordpool_categorized_EN.txt	SHOES	Clothing	5	2	[0, 0, 0]	n/a	catFR1	2	R1626S
462.416	0.983	644122	WORD_OFF	n/a	n/a	SHOES	Clothing	5	2	[0, 0, 0]	n/a	catFR1	2	R1626S
463.399	1.6	645104	WORD	n/a	wordpools/wordpool_categorized_EN.txt	SHORTS	Clothing	6	2	[0, 0, 0]	n/a	catFR1	2	R1626S
464.999	0.816	646707	WORD_OFF	n/a	n/a	SHORTS	Clothing	6	2	[0, 0, 0]	n/a	catFR1	2	R1626S
465.815	1.601	647518	WORD	n/a	wordpools/wordpool_categorized_EN.txt	COOKIE	Desserts	7	2	[0, 0, 0]	n/a	catFR1	2	R1626S
467.416	0.949	649120	WORD_OFF	n/a	n/a	COOKIE	Desserts	7	2	[0, 0, 0]	n/a	catFR1	2	R1626S
468.365	1.601	650074	WORD	n/a	wordpools/wordpool_categorized_EN.txt	BROWNIES	Desserts	8	2	[0, 0, 0]	n/a	catFR1	2	R1626S
469.966	0.95	651667	WORD_OFF	n/a	n/a	BROWNIES	Desserts	8	2	[0, 0, 0]	n/a	catFR1	2	R1626S
470.916	1.617	652621	WORD	n/a	wordpools/wordpool_categorized_EN.txt	SHELF	Furniture	9	2	[0, 0, 0]	n/a	catFR1	2	R1626S
472.533	0.783	654233	WORD_OFF	n/a	n/a	SHELF	Furniture	9	2	[0, 0, 0]	n/a	catFR1	2	R1626S
473.316	1.617	655024	WORD	n/a	wordpools/wordpool_categorized_EN.txt	BED	Furniture	10	2	[0, 0, 0]	n/a	catFR1	2	R1626S
474.933	0.933	656636	WORD_OFF	n/a	n/a	BED	Furniture	10	2	[0, 0, 0]	n/a	catFR1	2	R1626S
475.866	1.617	657571	WORD	n/a	wordpools/wordpool_categorized_EN.txt	DRESS	Clothing	11	2	[0, 0, 0]	n/a	catFR1	2	R1626S
477.483	0.782	659183	WORD_OFF	n/a	n/a	DRESS	Clothing	11	2	[0, 0, 0]	n/a	catFR1	2	R1626S
478.265	1.601	659965	WORD	n/a	wordpools/wordpool_categorized_EN.txt	PANTS	Clothing	12	2	[0, 0, 0]	n/a	catFR1	2	R1626S
479.866	0.001	661568	WORD_OFF	n/a	n/a	PANTS	Clothing	12	2	[0, 0, 0]	n/a	catFR1	2	R1626S
479.867	0.0	661568	ENCODING_END	n/a	n/a	n/a	n/a	-999	2	[0, 0, 0]	n/a	catFR1	2	R1626S
479.866	0.001	661572	PROB	10.649	n/a	n/a	n/a	-999	2	[5, 3, 4]	12.0	catFR1	2	R1626S
479.867	0.0	661573	START	n/a	n/a	n/a	n/a	-999	2	[-999, -999, -999]	n/a	catFR1	2	R1626S
479.867	10.666	661577	DISTRACT_START	n/a	n/a	n/a	n/a	-999	2	[0, 0, 0]	n/a	catFR1	2	R1626S
490.533	17.433	672238	PROB	17.415	n/a	n/a	n/a	-999	2	[7, 5, 3]	15.0	catFR1	2	R1626S
507.966	0.0	689668	DISTRACT_END	n/a	n/a	n/a	n/a	-999	2	[0, 0, 0]	n/a	catFR1	2	R1626S
507.966	2.1	689671	STOP	n/a	n/a	n/a	n/a	-999	2	[-999, -999, -999]	n/a	catFR1	2	R1626S
510.066	14.201	691766	REC_START	n/a	n/a	n/a	n/a	-999	2	[0, 0, 0]	n/a	catFR1	2	R1626S
524.267	0.955	705971	REC_WORD_VV	14.201	n/a	<>	n/a	-999	2	[0, 0, 0]	n/a	catFR1	2	R1626S
525.222	6.077	706926	REC_WORD	15.156	n/a	CHAIR	Furniture	1	2	[0, 0, 0]	n/a	catFR1	2	R1626S
531.299	2.685	713003	REC_WORD	21.233	n/a	LOOP	n/a	-999	2	[0, 0, 0]	n/a	catFR1	2	R1626S
533.984	1.0	715687	REC_WORD_VV	23.918	n/a	<>	n/a	-999	2	[0, 0, 0]	n/a	catFR1	2	R1626S
534.984	5.272	716687	REC_WORD_VV	24.918	n/a	<>	n/a	-999	2	[0, 0, 0]	n/a	catFR1	2	R1626S
540.256	19.31	721956	REC_END	n/a	n/a	n/a	n/a	-999	2	[0, 0, 0]	n/a	catFR1	2	R1626S
559.566	10.351	741271	COUNTDOWN_START	n/a	n/a	n/a	n/a	-999	3	[0, 0, 0]	n/a	catFR1	2	R1626S
569.917	0.0	751620	COUNTDOWN_END	n/a	n/a	n/a	n/a	-999	3	[0, 0, 0]	n/a	catFR1	2	R1626S
569.917	2.266	751620	ENCODING_START	n/a	n/a	n/a	n/a	-999	3	[0, 0, 0]	n/a	catFR1	2	R1626S
572.183	1.616	753881	WORD	n/a	wordpools/wordpool_categorized_EN.txt	APPLE	Fruit	1	3	[0, 0, 0]	n/a	catFR1	2	R1626S
573.799	0.833	755502	WORD_OFF	n/a	n/a	APPLE	Fruit	1	3	[0, 0, 0]	n/a	catFR1	2	R1626S
574.632	1.6	756332	WORD	n/a	wordpools/wordpool_categorized_EN.txt	PEACH	Fruit	2	3	[0, 0, 0]	n/a	catFR1	2	R1626S
576.232	0.934	757935	WORD_OFF	n/a	n/a	PEACH	Fruit	2	3	[0, 0, 0]	n/a	catFR1	2	R1626S
577.166	1.6	758870	WORD	n/a	wordpools/wordpool_categorized_EN.txt	CALF	FarmAnimals	3	3	[0, 0, 0]	n/a	catFR1	2	R1626S
578.766	0.783	760462	WORD_OFF	n/a	n/a	CALF	FarmAnimals	3	3	[0, 0, 0]	n/a	catFR1	2	R1626S
579.549	1.6	761245	WORD	n/a	wordpools/wordpool_categorized_EN.txt	PIG	FarmAnimals	4	3	[0, 0, 0]	n/a	catFR1	2	R1626S
581.149	0.767	762847	WORD_OFF	n/a	n/a	PIG	FarmAnimals	4	3	[0, 0, 0]	n/a	catFR1	2	R1626S
581.916	1.616	763610	WORD	n/a	wordpools/wordpool_categorized_EN.txt	PEN	OfficeSupplies	5	3	[0, 0, 0]	n/a	catFR1	2	R1626S
583.532	0.901	765232	WORD_OFF	n/a	n/a	PEN	OfficeSupplies	5	3	[0, 0, 0]	n/a	catFR1	2	R1626S
584.433	1.616	766128	WORD	n/a	wordpools/wordpool_categorized_EN.txt	GLUE	OfficeSupplies	6	3	[0, 0, 0]	n/a	catFR1	2	R1626S
586.049	0.767	767750	WORD_OFF	n/a	n/a	GLUE	OfficeSupplies	6	3	[0, 0, 0]	n/a	catFR1	2	R1626S
586.816	1.616	768513	WORD	n/a	wordpools/wordpool_categorized_EN.txt	ROOSTER	FarmAnimals	7	3	[0, 0, 0]	n/a	catFR1	2	R1626S
588.432	0.817	770134	WORD_OFF	n/a	n/a	ROOSTER	FarmAnimals	7	3	[0, 0, 0]	n/a	catFR1	2	R1626S
589.249	1.617	770945	WORD	n/a	wordpools/wordpool_categorized_EN.txt	GOAT	FarmAnimals	8	3	[0, 0, 0]	n/a	catFR1	2	R1626S
590.866	0.95	772567	WORD_OFF	n/a	n/a	GOAT	FarmAnimals	8	3	[0, 0, 0]	n/a	catFR1	2	R1626S
591.816	1.6	773511	WORD	n/a	wordpools/wordpool_categorized_EN.txt	STRAWBERRY	Fruit	9	3	[0, 0, 0]	n/a	catFR1	2	R1626S
593.416	1.0	775114	WORD_OFF	n/a	n/a	STRAWBERRY	Fruit	9	3	[0, 0, 0]	n/a	catFR1	2	R1626S
594.416	1.6	776115	WORD	n/a	wordpools/wordpool_categorized_EN.txt	ORANGE	Fruit	10	3	[0, 0, 0]	n/a	catFR1	2	R1626S
596.016	0.983	777718	WORD_OFF	n/a	n/a	ORANGE	Fruit	10	3	[0, 0, 0]	n/a	catFR1	2	R1626S
596.999	1.616	778700	WORD	n/a	wordpools/wordpool_categorized_EN.txt	ERASER	OfficeSupplies	11	3	[0, 0, 0]	n/a	catFR1	2	R1626S
598.615	0.917	780312	WORD_OFF	n/a	n/a	ERASER	OfficeSupplies	11	3	[0, 0, 0]	n/a	catFR1	2	R1626S
599.532	1.6	781228	WORD	n/a	wordpools/wordpool_categorized_EN.txt	MARKER	OfficeSupplies	12	3	[0, 0, 0]	n/a	catFR1	2	R1626S
601.132	0.001	782830	WORD_OFF	n/a	n/a	MARKER	OfficeSupplies	12	3	[0, 0, 0]	n/a	catFR1	2	R1626S
601.133	0.0	782830	ENCODING_END	n/a	n/a	n/a	n/a	-999	3	[0, 0, 0]	n/a	catFR1	2	R1626S
601.133	0.0	782830	DISTRACT_START	n/a	n/a	n/a	n/a	-999	3	[0, 0, 0]	n/a	catFR1	2	R1626S
601.133	0.0	782833	START	n/a	n/a	n/a	n/a	-999	3	[-999, -999, -999]	n/a	catFR1	2	R1626S
601.133	9.699	782833	PROB	9.683	n/a	n/a	n/a	-999	3	[5, 7, 7]	19.0	catFR1	2	R1626S
610.832	6.434	792532	PROB	6.416	n/a	n/a	n/a	-999	3	[5, 5, 5]	15.0	catFR1	2	R1626S
617.266	4.915	798966	PROB	4.898	n/a	n/a	n/a	-999	3	[5, 2, 1]	8.0	catFR1	2	R1626S
622.181	0.0	803880	STOP	n/a	n/a	n/a	n/a	-999	3	[-999, -999, -999]	n/a	catFR1	2	R1626S
622.181	2.284	803881	DISTRACT_END	n/a	n/a	n/a	n/a	-999	3	[0, 0, 0]	n/a	catFR1	2	R1626S
624.465	1.934	806161	REC_START	n/a	n/a	n/a	n/a	-999	3	[0, 0, 0]	n/a	catFR1	2	R1626S
626.399	3.215	808098	REC_WORD	1.934	n/a	STRAWBERRY	Fruit	9	3	[0, 0, 0]	n/a	catFR1	2	R1626S
629.614	2.61	811313	REC_WORD	5.149	n/a	GLUE	OfficeSupplies	6	3	[0, 0, 0]	n/a	catFR1	2	R1626S
632.224	15.888	813923	REC_WORD	7.759	n/a	PEN	OfficeSupplies	5	3	[0, 0, 0]	n/a	catFR1	2	R1626S
648.112	6.53	829810	REC_WORD_VV	23.647	n/a	<>	n/a	-999	3	[0, 0, 0]	n/a	catFR1	2	R1626S
654.642	3.005	836341	REC_END	n/a	n/a	n/a	n/a	-999	3	[0, 0, 0]	n/a	catFR1	2	R1626S
657.647	10.351	839345	COUNTDOWN_START	n/a	n/a	n/a	n/a	-999	4	[0, 0, 0]	n/a	catFR1	2	R1626S
667.998	0.0	849695	COUNTDOWN_END	n/a	n/a	n/a	n/a	-999	4	[0, 0, 0]	n/a	catFR1	2	R1626S
667.998	2.068	849695	ENCODING_START	n/a	n/a	n/a	n/a	-999	4	[0, 0, 0]	n/a	catFR1	2	R1626S
670.066	1.616	851765	WORD	n/a	wordpools/wordpool_categorized_EN.txt	CELERY	Vegetables	1	4	[0, 0, 0]	n/a	catFR1	2	R1626S
671.682	0.867	853377	WORD_OFF	n/a	n/a	CELERY	Vegetables	1	4	[0, 0, 0]	n/a	catFR1	2	R1626S
672.549	1.616	854245	WORD	n/a	wordpools/wordpool_categorized_EN.txt	CABBAGE	Vegetables	2	4	[0, 0, 0]	n/a	catFR1	2	R1626S
674.165	0.766	855857	WORD_OFF	n/a	n/a	CABBAGE	Vegetables	2	4	[0, 0, 0]	n/a	catFR1	2	R1626S
674.931	1.601	856629	WORD	n/a	wordpools/wordpool_categorized_EN.txt	SPARROW	Birds	3	4	[0, 0, 0]	n/a	catFR1	2	R1626S
676.532	0.783	858222	WORD_OFF	n/a	n/a	SPARROW	Birds	3	4	[0, 0, 0]	n/a	catFR1	2	R1626S
677.315	1.601	859014	WORD	n/a	wordpools/wordpool_categorized_EN.txt	SEAGULL	Birds	4	4	[0, 0, 0]	n/a	catFR1	2	R1626S
678.916	0.866	860607	WORD_OFF	n/a	n/a	SEAGULL	Birds	4	4	[0, 0, 0]	n/a	catFR1	2	R1626S
679.782	1.617	861475	WORD	n/a	wordpools/wordpool_categorized_EN.txt	BUTTERFLY	Insects	5	4	[0, 0, 0]	n/a	catFR1	2	R1626S
681.399	0.849	863096	WORD_OFF	n/a	n/a	BUTTERFLY	Insects	5	4	[0, 0, 0]	n/a	catFR1	2	R1626S
682.248	1.617	863945	WORD	n/a	wordpools/wordpool_categorized_EN.txt	LADYBUG	Insects	6	4	[0, 0, 0]	n/a	catFR1	2	R1626S
683.865	0.917	865557	WORD_OFF	n/a	n/a	LADYBUG	Insects	6	4	[0, 0, 0]	n/a	catFR1	2	R1626S
684.782	1.601	866473	WORD	n/a	wordpools/wordpool_categorized_EN.txt	POTATO	Vegetables	7	4	[0, 0, 0]	n/a	catFR1	2	R1626S
686.383	0.93	868075	WORD_OFF	n/a	n/a	POTATO	Vegetables	7	4	[0, 0, 0]	n/a	catFR1	2	R1626S
687.313	1.602	869010	WORD	n/a	wordpools/wordpool_categorized_EN.txt	SPINACH	Vegetables	8	4	[0, 0, 0]	n/a	catFR1	2	R1626S
688.915	0.884	870613	WORD_OFF	n/a	n/a	SPINACH	Vegetables	8	4	[0, 0, 0]	n/a	catFR1	2	R1626S
689.799	1.6	871490	WORD	n/a	wordpools/wordpool_categorized_EN.txt	CROW	Birds	9	4	[0, 0, 0]	n/a	catFR1	2	R1626S
691.399	0.999	873093	WORD_OFF	n/a	n/a	CROW	Birds	9	4	[0, 0, 0]	n/a	catFR1	2	R1626S
692.398	1.615	874094	WORD	n/a	wordpools/wordpool_categorized_EN.txt	FINCH	Birds	10	4	[0, 0, 0]	n/a	catFR1	2	R1626S
694.013	0.983	875706	WORD_OFF	n/a	n/a	FINCH	Birds	10	4	[0, 0, 0]	n/a	catFR1	2	R1626S
694.996	1.617	876689	WORD	n/a	wordpools/wordpool_categorized_EN.txt	MOTH	Insects	11	4	[0, 0, 0]	n/a	catFR1	2	R1626S
696.613	0.868	878310	WORD_OFF	n/a	n/a	MOTH	Insects	11	4	[0, 0, 0]	n/a	catFR1	2	R1626S
697.481	1.617	879178	WORD	n/a	wordpools/wordpool_categorized_EN.txt	GNAT	Insects	12	4	[0, 0, 0]	n/a	catFR1	2	R1626S
699.098	0.001	880790	WORD_OFF	n/a	n/a	GNAT	Insects	12	4	[0, 0, 0]	n/a	catFR1	2	R1626S
699.099	0.0	880790	ENCODING_END	n/a	n/a	n/a	n/a	-999	4	[0, 0, 0]	n/a	catFR1	2	R1626S
699.099	0.0	880790	DISTRACT_START	n/a	n/a	n/a	n/a	-999	4	[0, 0, 0]	n/a	catFR1	2	R1626S
699.098	0.001	880794	PROB	7.098	n/a	n/a	n/a	-999	4	[7, 1, 6]	14.0	catFR1	2	R1626S
699.099	7.115	880795	START	n/a	n/a	n/a	n/a	-999	4	[-999, -999, -999]	n/a	catFR1	2	R1626S
706.214	12.401	887909	PROB	12.385	n/a	n/a	n/a	-999	4	[6, 3, 8]	17.0	catFR1	2	R1626S
718.615	5.615	900310	PROB	5.599	n/a	n/a	n/a	-999	4	[2, 1, 4]	7.0	catFR1	2	R1626S
724.23	0.0	905924	DISTRACT_END	n/a	n/a	n/a	n/a	-999	4	[0, 0, 0]	n/a	catFR1	2	R1626S
724.23	2.132	905925	STOP	n/a	n/a	n/a	n/a	-999	4	[-999, -999, -999]	n/a	catFR1	2	R1626S
726.362	5.738	908051	REC_START	n/a	n/a	n/a	n/a	-999	4	[0, 0, 0]	n/a	catFR1	2	R1626S
732.1	5.795	913794	REC_WORD	5.738	n/a	CELERY	Vegetables	1	4	[0, 0, 0]	n/a	catFR1	2	R1626S
737.895	4.626	919589	REC_WORD	11.533	n/a	SPARROW	Birds	3	4	[0, 0, 0]	n/a	catFR1	2	R1626S
742.521	5.545	924215	REC_WORD	16.159	n/a	GNAT	Insects	12	4	[0, 0, 0]	n/a	catFR1	2	R1626S
748.066	6.825	929760	REC_WORD	21.704	n/a	LETTUCE	n/a	-999	4	[0, 0, 0]	n/a	catFR1	2	R1626S
754.891	1.652	936584	REC_WORD	28.529	n/a	BUTTERFLY	Insects	5	4	[0, 0, 0]	n/a	catFR1	2	R1626S
756.543	4.569	938231	REC_END	n/a	n/a	n/a	n/a	-999	4	[0, 0, 0]	n/a	catFR1	2	R1626S
761.112	10.354	942809	COUNTDOWN_START	n/a	n/a	n/a	n/a	-999	5	[0, 0, 0]	n/a	catFR1	2	R1626S
771.466	0.0	953158	COUNTDOWN_END	n/a	n/a	n/a	n/a	-999	5	[0, 0, 0]	n/a	catFR1	2	R1626S
771.466	2.116	953158	ENCODING_START	n/a	n/a	n/a	n/a	-999	5	[0, 0, 0]	n/a	catFR1	2	R1626S
773.582	1.616	955276	WORD	n/a	wordpools/wordpool_categorized_EN.txt	RULER	OfficeSupplies	1	5	[0, 0, 0]	n/a	catFR1	2	R1626S
775.198	0.95	956888	WORD_OFF	n/a	n/a	RULER	OfficeSupplies	1	5	[0, 0, 0]	n/a	catFR1	2	R1626S
776.148	1.6	957842	WORD	n/a	wordpools/wordpool_categorized_EN.txt	PAPER	OfficeSupplies	2	5	[0, 0, 0]	n/a	catFR1	2	R1626S
777.748	0.967	959435	WORD_OFF	n/a	n/a	PAPER	OfficeSupplies	2	5	[0, 0, 0]	n/a	catFR1	2	R1626S
778.715	1.6	960408	WORD	n/a	wordpools/wordpool_categorized_EN.txt	COW	FarmAnimals	3	5	[0, 0, 0]	n/a	catFR1	2	R1626S
780.315	1.0	962000	WORD_OFF	n/a	n/a	COW	FarmAnimals	3	5	[0, 0, 0]	n/a	catFR1	2	R1626S
781.315	1.617	963002	WORD	n/a	wordpools/wordpool_categorized_EN.txt	LAMB	FarmAnimals	4	5	[0, 0, 0]	n/a	catFR1	2	R1626S
782.932	0.833	964624	WORD_OFF	n/a	n/a	LAMB	FarmAnimals	4	5	[0, 0, 0]	n/a	catFR1	2	R1626S
783.765	1.617	965453	WORD	n/a	wordpools/wordpool_categorized_EN.txt	CELLO	Instruments	5	5	[0, 0, 0]	n/a	catFR1	2	R1626S
785.382	0.8	967075	WORD_OFF	n/a	n/a	CELLO	Instruments	5	5	[0, 0, 0]	n/a	catFR1	2	R1626S
786.182	1.6	967876	WORD	n/a	wordpools/wordpool_categorized_EN.txt	GUITAR	Instruments	6	5	[0, 0, 0]	n/a	catFR1	2	R1626S
787.782	0.966	969469	WORD_OFF	n/a	n/a	GUITAR	Instruments	6	5	[0, 0, 0]	n/a	catFR1	2	R1626S
788.748	1.617	970442	WORD	n/a	wordpools/wordpool_categorized_EN.txt	CHICKEN	FarmAnimals	7	5	[0, 0, 0]	n/a	catFR1	2	R1626S
790.365	0.967	972054	WORD_OFF	n/a	n/a	CHICKEN	FarmAnimals	7	5	[0, 0, 0]	n/a	catFR1	2	R1626S
791.332	1.6	973017	WORD	n/a	wordpools/wordpool_categorized_EN.txt	TURKEY	FarmAnimals	8	5	[0, 0, 0]	n/a	catFR1	2	R1626S
792.932	0.899	974620	WORD_OFF	n/a	n/a	TURKEY	FarmAnimals	8	5	[0, 0, 0]	n/a	catFR1	2	R1626S
793.831	1.6	975516	WORD	n/a	wordpools/wordpool_categorized_EN.txt	TUBA	Instruments	9	5	[0, 0, 0]	n/a	catFR1	2	R1626S
795.431	0.9	977119	WORD_OFF	n/a	n/a	TUBA	Instruments	9	5	[0, 0, 0]	n/a	catFR1	2	R1626S
796.331	1.617	978016	WORD	n/a	wordpools/wordpool_categorized_EN.txt	BASS	Instruments	10	5	[0, 0, 0]	n/a	catFR1	2	R1626S
797.948	0.833	979637	WORD_OFF	n/a	n/a	BASS	Instruments	10	5	[0, 0, 0]	n/a	catFR1	2	R1626S
798.781	1.617	980467	WORD	n/a	wordpools/wordpool_categorized_EN.txt	STAPLER	OfficeSupplies	11	5	[0, 0, 0]	n/a	catFR1	2	R1626S
800.398	0.883	982088	WORD_OFF	n/a	n/a	STAPLER	OfficeSupplies	11	5	[0, 0, 0]	n/a	catFR1	2	R1626S
801.281	1.6	982966	WORD	n/a	wordpools/wordpool_categorized_EN.txt	TAPE	OfficeSupplies	12	5	[0, 0, 0]	n/a	catFR1	2	R1626S
802.881	0.002	984568	WORD_OFF	n/a	n/a	TAPE	OfficeSupplies	12	5	[0, 0, 0]	n/a	catFR1	2	R1626S
802.883	0.0	984568	ENCODING_END	n/a	n/a	n/a	n/a	-999	5	[0, 0, 0]	n/a	catFR1	2	R1626S
802.882	0.001	984573	PROB	7.9	n/a	n/a	n/a	-999	5	[4, 1, 2]	7.0	catFR1	2	R1626S
802.883	0.0	984574	START	n/a	n/a	n/a	n/a	-999	5	[-999, -999, -999]	n/a	catFR1	2	R1626S
802.883	7.916	984578	DISTRACT_START	n/a	n/a	n/a	n/a	-999	5	[0, 0, 0]	n/a	catFR1	2	R1626S
810.799	8.417	992490	PROB	8.399	n/a	n/a	n/a	-999	5	[3, 5, 6]	14.0	catFR1	2	R1626S
819.216	6.582	1000906	PROB	6.566	n/a	n/a	n/a	-999	5	[1, 7, 2]	10.0	catFR1	2	R1626S
825.798	0.0	1007488	STOP	n/a	n/a	n/a	n/a	-999	5	[-999, -999, -999]	n/a	catFR1	2	R1626S
825.798	2.151	1007489	DISTRACT_END	n/a	n/a	n/a	n/a	-999	5	[0, 0, 0]	n/a	catFR1	2	R1626S
827.949	7.633	1009636	REC_START	n/a	n/a	n/a	n/a	-999	5	[0, 0, 0]	n/a	catFR1	2	R1626S
835.582	5.105	1017272	REC_WORD	7.633	n/a	RULER	OfficeSupplies	1	5	[0, 0, 0]	n/a	catFR1	2	R1626S
840.687	3.607	1022376	REC_WORD	12.738	n/a	BASS	Instruments	10	5	[0, 0, 0]	n/a	catFR1	2	R1626S
844.294	6.209	1025983	REC_WORD	16.345	n/a	CELLO	Instruments	5	5	[0, 0, 0]	n/a	catFR1	2	R1626S
850.503	7.644	1032192	REC_WORD	22.554	n/a	GUITAR	Instruments	6	5	[0, 0, 0]	n/a	catFR1	2	R1626S
858.147	6.652	1039834	REC_END	n/a	n/a	n/a	n/a	-999	5	[0, 0, 0]	n/a	catFR1	2	R1626S
864.799	10.348	1046483	COUNTDOWN_START	n/a	n/a	n/a	n/a	-999	6	[0, 0, 0]	n/a	catFR1	2	R1626S
875.147	0.0	1056832	COUNTDOWN_END	n/a	n/a	n/a	n/a	-999	6	[0, 0, 0]	n/a	catFR1	2	R1626S
875.147	2.251	1056832	ENCODING_START	n/a	n/a	n/a	n/a	-999	6	[0, 0, 0]	n/a	catFR1	2	R1626S
877.398	1.6	1059083	WORD	n/a	wordpools/wordpool_categorized_EN.txt	SHIRT	Clothing	1	6	[0, 0, 0]	n/a	catFR1	2	R1626S
878.998	0.849	1060685	WORD_OFF	n/a	n/a	SHIRT	Clothing	1	6	[0, 0, 0]	n/a	catFR1	2	R1626S
879.847	1.601	1061534	WORD	n/a	wordpools/wordpool_categorized_EN.txt	UNDERWEAR	Clothing	2	6	[0, 0, 0]	n/a	catFR1	2	R1626S
881.448	0.8	1063137	WORD_OFF	n/a	n/a	UNDERWEAR	Clothing	2	6	[0, 0, 0]	n/a	catFR1	2	R1626S
882.248	1.6	1063928	WORD	n/a	wordpools/wordpool_categorized_EN.txt	RAIN	Weather	3	6	[0, 0, 0]	n/a	catFR1	2	R1626S
883.848	0.966	1065531	WORD_OFF	n/a	n/a	RAIN	Weather	3	6	[0, 0, 0]	n/a	catFR1	2	R1626S
884.814	1.601	1066504	WORD	n/a	wordpools/wordpool_categorized_EN.txt	THUNDERSTORM	Weather	4	6	[0, 0, 0]	n/a	catFR1	2	R1626S
886.415	0.899	1068097	WORD_OFF	n/a	n/a	THUNDERSTORM	Weather	4	6	[0, 0, 0]	n/a	catFR1	2	R1626S
887.314	1.6	1069003	WORD	n/a	wordpools/wordpool_categorized_EN.txt	CAULIFLOWER	Vegetables	5	6	[0, 0, 0]	n/a	catFR1	2	R1626S
888.914	0.95	1070596	WORD_OFF	n/a	n/a	CAULIFLOWER	Vegetables	5	6	[0, 0, 0]	n/a	catFR1	2	R1626S
889.864	1.6	1071550	WORD	n/a	wordpools/wordpool_categorized_EN.txt	PEAS	Vegetables	6	6	[0, 0, 0]	n/a	catFR1	2	R1626S
891.464	0.967	1073152	WORD_OFF	n/a	n/a	PEAS	Vegetables	6	6	[0, 0, 0]	n/a	catFR1	2	R1626S
892.431	1.6	1074115	WORD	n/a	wordpools/wordpool_categorized_EN.txt	LIGHTNING	Weather	7	6	[0, 0, 0]	n/a	catFR1	2	R1626S
894.031	0.967	1075718	WORD_OFF	n/a	n/a	LIGHTNING	Weather	7	6	[0, 0, 0]	n/a	catFR1	2	R1626S
894.998	1.6	1076681	WORD	n/a	wordpools/wordpool_categorized_EN.txt	TORNADO	Weather	8	6	[0, 0, 0]	n/a	catFR1	2	R1626S
896.598	0.933	1078284	WORD_OFF	n/a	n/a	TORNADO	Weather	8	6	[0, 0, 0]	n/a	catFR1	2	R1626S
897.531	1.601	1079219	WORD	n/a	wordpools/wordpool_categorized_EN.txt	CARROT	Vegetables	9	6	[0, 0, 0]	n/a	catFR1	2	R1626S
899.132	0.983	1080811	WORD_OFF	n/a	n/a	CARROT	Vegetables	9	6	[0, 0, 0]	n/a	catFR1	2	R1626S
900.115	1.618	1081803	WORD	n/a	wordpools/wordpool_categorized_EN.txt	CORN	Vegetables	10	6	[0, 0, 0]	n/a	catFR1	2	R1626S
901.733	0.965	1083415	WORD_OFF	n/a	n/a	CORN	Vegetables	10	6	[0, 0, 0]	n/a	catFR1	2	R1626S
902.698	1.616	1084379	WORD	n/a	wordpools/wordpool_categorized_EN.txt	BLOUSE	Clothing	11	6	[0, 0, 0]	n/a	catFR1	2	R1626S
904.314	0.933	1086000	WORD_OFF	n/a	n/a	BLOUSE	Clothing	11	6	[0, 0, 0]	n/a	catFR1	2	R1626S
905.247	1.601	1086935	WORD	n/a	wordpools/wordpool_categorized_EN.txt	COAT	Clothing	12	6	[0, 0, 0]	n/a	catFR1	2	R1626S
906.848	0.0	1088528	WORD_OFF	n/a	n/a	COAT	Clothing	12	6	[0, 0, 0]	n/a	catFR1	2	R1626S
906.848	0.001	1088534	PROB	8.117	n/a	n/a	n/a	-999	6	[1, 7, 8]	16.0	catFR1	2	R1626S
906.849	0.0	1088535	START	n/a	n/a	n/a	n/a	-999	6	[-999, -999, -999]	n/a	catFR1	2	R1626S
906.849	0.0	1088538	ENCODING_END	n/a	n/a	n/a	n/a	-999	6	[0, 0, 0]	n/a	catFR1	2	R1626S
906.849	8.133	1088538	DISTRACT_START	n/a	n/a	n/a	n/a	-999	6	[0, 0, 0]	n/a	catFR1	2	R1626S
914.982	5.801	1096668	PROB	5.783	n/a	n/a	n/a	-999	6	[5, 5, 7]	17.0	catFR1	2	R1626S
920.783	10.965	1102469	PROB	10.95	n/a	n/a	n/a	-999	6	[5, 6, 3]	14.0	catFR1	2	R1626S
931.748	0.0	1113433	DISTRACT_END	n/a	n/a	n/a	n/a	-999	6	[0, 0, 0]	n/a	catFR1	2	R1626S
931.748	2.384	1113433	STOP	n/a	n/a	n/a	n/a	-999	6	[-999, -999, -999]	n/a	catFR1	2	R1626S
934.132	4.206	1115818	REC_START	n/a	n/a	n/a	n/a	-999	6	[0, 0, 0]	n/a	catFR1	2	R1626S
938.338	3.405	1120023	REC_WORD	4.206	n/a	TORNADO	Weather	8	6	[0, 0, 0]	n/a	catFR1	2	R1626S
941.743	2.915	1123428	REC_WORD	7.611	n/a	THUNDERSTORM	Weather	4	6	[0, 0, 0]	n/a	catFR1	2	R1626S
944.658	19.649	1126343	REC_WORD	10.526	n/a	RAIN	Weather	3	6	[0, 0, 0]	n/a	catFR1	2	R1626S
964.307	3.574	1145988	REC_END	n/a	n/a	n/a	n/a	-999	6	[0, 0, 0]	n/a	catFR1	2	R1626S
967.881	10.35	1149565	COUNTDOWN_START	n/a	n/a	n/a	n/a	-999	7	[0, 0, 0]	n/a	catFR1	2	R1626S
978.231	0.0	1159914	COUNTDOWN_END	n/a	n/a	n/a	n/a	-999	7	[0, 0, 0]	n/a	catFR1	2	R1626S
978.231	1.883	1159914	ENCODING_START	n/a	n/a	n/a	n/a	-999	7	[0, 0, 0]	n/a	catFR1	2	R1626S
980.114	1.6	1161793	WORD	n/a	wordpools/wordpool_categorized_EN.txt	THUNDER	Weather	1	7	[0, 0, 0]	n/a	catFR1	2	R1626S
981.714	0.784	1163395	WORD_OFF	n/a	n/a	THUNDER	Weather	1	7	[0, 0, 0]	n/a	catFR1	2	R1626S
982.498	1.6	1164178	WORD	n/a	wordpools/wordpool_categorized_EN.txt	HURRICANE	Weather	2	7	[0, 0, 0]	n/a	catFR1	2	R1626S
984.098	0.917	1165780	WORD_OFF	n/a	n/a	HURRICANE	Weather	2	7	[0, 0, 0]	n/a	catFR1	2	R1626S
985.015	1.6	1166696	WORD	n/a	wordpools/wordpool_categorized_EN.txt	AXE	Tools	3	7	[0, 0, 0]	n/a	catFR1	2	R1626S
986.615	0.8	1168298	WORD_OFF	n/a	n/a	AXE	Tools	3	7	[0, 0, 0]	n/a	catFR1	2	R1626S
987.415	1.616	1169099	WORD	n/a	wordpools/wordpool_categorized_EN.txt	WRENCH	Tools	4	7	[0, 0, 0]	n/a	catFR1	2	R1626S
989.031	0.833	1170711	WORD_OFF	n/a	n/a	WRENCH	Tools	4	7	[0, 0, 0]	n/a	catFR1	2	R1626S
989.864	1.617	1171541	WORD	n/a	wordpools/wordpool_categorized_EN.txt	GORILLA	Zoo	5	7	[0, 0, 0]	n/a	catFR1	2	R1626S
991.481	0.865	1173163	WORD_OFF	n/a	n/a	GORILLA	Zoo	5	7	[0, 0, 0]	n/a	catFR1	2	R1626S
992.346	1.601	1174021	WORD	n/a	wordpools/wordpool_categorized_EN.txt	PANDA	Zoo	6	7	[0, 0, 0]	n/a	catFR1	2	R1626S
993.947	0.983	1175624	WORD_OFF	n/a	n/a	PANDA	Zoo	6	7	[0, 0, 0]	n/a	catFR1	2	R1626S
994.93	1.601	1176606	WORD	n/a	wordpools/wordpool_categorized_EN.txt	HUMIDITY	Weather	7	7	[0, 0, 0]	n/a	catFR1	2	R1626S
996.531	0.766	1178209	WORD_OFF	n/a	n/a	HUMIDITY	Weather	7	7	[0, 0, 0]	n/a	catFR1	2	R1626S
997.297	1.601	1178981	WORD	n/a	wordpools/wordpool_categorized_EN.txt	SNOW	Weather	8	7	[0, 0, 0]	n/a	catFR1	2	R1626S
998.898	0.817	1180574	WORD_OFF	n/a	n/a	SNOW	Weather	8	7	[0, 0, 0]	n/a	catFR1	2	R1626S
999.715	1.616	1181394	WORD	n/a	wordpools/wordpool_categorized_EN.txt	ZEBRA	Zoo	9	7	[0, 0, 0]	n/a	catFR1	2	R1626S
1001.331	0.9	1183016	WORD_OFF	n/a	n/a	ZEBRA	Zoo	9	7	[0, 0, 0]	n/a	catFR1	2	R1626S
1002.231	1.6	1183913	WORD	n/a	wordpools/wordpool_categorized_EN.txt	CHEETAH	Zoo	10	7	[0, 0, 0]	n/a	catFR1	2	R1626S
1003.831	0.949	1185515	WORD_OFF	n/a	n/a	CHEETAH	Zoo	10	7	[0, 0, 0]	n/a	catFR1	2	R1626S
1004.78	1.601	1186459	WORD	n/a	wordpools/wordpool_categorized_EN.txt	SHOVEL	Tools	11	7	[0, 0, 0]	n/a	catFR1	2	R1626S
1006.381	0.917	1188062	WORD_OFF	n/a	n/a	SHOVEL	Tools	11	7	[0, 0, 0]	n/a	catFR1	2	R1626S
1007.298	1.6	1188978	WORD	n/a	wordpools/wordpool_categorized_EN.txt	SAW	Tools	12	7	[0, 0, 0]	n/a	catFR1	2	R1626S
1008.898	0.002	1190580	WORD_OFF	n/a	n/a	SAW	Tools	12	7	[0, 0, 0]	n/a	catFR1	2	R1626S
1008.9	0.0	1190580	ENCODING_END	n/a	n/a	n/a	n/a	-999	7	[0, 0, 0]	n/a	catFR1	2	R1626S
1008.9	0.0	1190580	DISTRACT_START	n/a	n/a	n/a	n/a	-999	7	[0, 0, 0]	n/a	catFR1	2	R1626S
1008.898	0.002	1190580	PROB	16.332	n/a	n/a	n/a	-999	7	[5, 7, 4]	16.0	catFR1	2	R1626S
1008.9	16.349	1190582	START	n/a	n/a	n/a	n/a	-999	7	[-999, -999, -999]	n/a	catFR1	2	R1626S
1025.249	8.082	1206930	PROB	8.065	n/a	n/a	n/a	-999	7	[2, 7, 4]	13.0	catFR1	2	R1626S
1033.331	0.0	1215008	DISTRACT_END	n/a	n/a	n/a	n/a	-999	7	[0, 0, 0]	n/a	catFR1	2	R1626S
1033.331	2.333	1215012	STOP	n/a	n/a	n/a	n/a	-999	7	[-999, -999, -999]	n/a	catFR1	2	R1626S
1035.664	4.563	1217345	REC_START	n/a	n/a	n/a	n/a	-999	7	[0, 0, 0]	n/a	catFR1	2	R1626S
1040.227	9.535	1221907	REC_WORD	4.563	n/a	HURRICANE	Weather	2	7	[0, 0, 0]	n/a	catFR1	2	R1626S
1049.762	3.21	1231442	REC_WORD	14.098	n/a	PANDA	Zoo	6	7	[0, 0, 0]	n/a	catFR1	2	R1626S
1052.972	9.315	1234652	REC_WORD	17.308	n/a	CHEETAH	Zoo	10	7	[0, 0, 0]	n/a	catFR1	2	R1626S
1062.287	3.56	1243966	REC_WORD	26.623	n/a	AXE	Tools	3	7	[0, 0, 0]	n/a	catFR1	2	R1626S
1065.847	3.467	1247525	REC_END	n/a	n/a	n/a	n/a	-999	7	[0, 0, 0]	n/a	catFR1	2	R1626S
1069.314	10.35	1250997	COUNTDOWN_START	n/a	n/a	n/a	n/a	-999	8	[0, 0, 0]	n/a	catFR1	2	R1626S
1079.664	0.0	1261336	COUNTDOWN_END	n/a	n/a	n/a	n/a	-999	8	[0, 0, 0]	n/a	catFR1	2	R1626S
1079.664	2.117	1261346	ENCODING_START	n/a	n/a	n/a	n/a	-999	8	[0, 0, 0]	n/a	catFR1	2	R1626S
1081.781	1.6	1263454	WORD	n/a	wordpools/wordpool_categorized_EN.txt	WINDOW	Building	1	8	[0, 0, 0]	n/a	catFR1	2	R1626S
1083.381	0.766	1265056	WORD_OFF	n/a	n/a	WINDOW	Building	1	8	[0, 0, 0]	n/a	catFR1	2	R1626S
1084.147	1.601	1265819	WORD	n/a	wordpools/wordpool_categorized_EN.txt	HALLWAY	Building	2	8	[0, 0, 0]	n/a	catFR1	2	R1626S
1085.748	0.767	1267422	WORD_OFF	n/a	n/a	HALLWAY	Building	2	8	[0, 0, 0]	n/a	catFR1	2	R1626S
1086.515	1.6	1268194	WORD	n/a	wordpools/wordpool_categorized_EN.txt	ONION	Vegetables	3	8	[0, 0, 0]	n/a	catFR1	2	R1626S
1088.115	0.933	1269787	WORD_OFF	n/a	n/a	ONION	Vegetables	3	8	[0, 0, 0]	n/a	catFR1	2	R1626S
1089.048	1.616	1270722	WORD	n/a	wordpools/wordpool_categorized_EN.txt	LETTUCE	Vegetables	4	8	[0, 0, 0]	n/a	catFR1	2	R1626S
1090.664	1.0	1272344	WORD_OFF	n/a	n/a	LETTUCE	Vegetables	4	8	[0, 0, 0]	n/a	catFR1	2	R1626S
1091.664	1.6	1273336	WORD	n/a	wordpools/wordpool_categorized_EN.txt	SCREWDRIVER	Tools	5	8	[0, 0, 0]	n/a	catFR1	2	R1626S
1093.264	0.884	1274938	WORD_OFF	n/a	n/a	SCREWDRIVER	Tools	5	8	[0, 0, 0]	n/a	catFR1	2	R1626S
1094.148	1.6	1275825	WORD	n/a	wordpools/wordpool_categorized_EN.txt	HAMMER	Tools	6	8	[0, 0, 0]	n/a	catFR1	2	R1626S
1095.748	0.833	1277418	WORD_OFF	n/a	n/a	HAMMER	Tools	6	8	[0, 0, 0]	n/a	catFR1	2	R1626S
1096.581	1.6	1278257	WORD	n/a	wordpools/wordpool_categorized_EN.txt	CUCUMBER	Vegetables	7	8	[0, 0, 0]	n/a	catFR1	2	R1626S
1098.181	0.767	1279860	WORD_OFF	n/a	n/a	CUCUMBER	Vegetables	7	8	[0, 0, 0]	n/a	catFR1	2	R1626S
1098.948	1.6	1280623	WORD	n/a	wordpools/wordpool_categorized_EN.txt	BROCCOLI	Vegetables	8	8	[0, 0, 0]	n/a	catFR1	2	R1626S
1100.548	0.832	1282225	WORD_OFF	n/a	n/a	BROCCOLI	Vegetables	8	8	[0, 0, 0]	n/a	catFR1	2	R1626S
1101.38	1.601	1283055	WORD	n/a	wordpools/wordpool_categorized_EN.txt	ATTIC	Building	9	8	[0, 0, 0]	n/a	catFR1	2	R1626S
1102.981	0.999	1284658	WORD_OFF	n/a	n/a	ATTIC	Building	9	8	[0, 0, 0]	n/a	catFR1	2	R1626S
1103.98	1.601	1285659	WORD	n/a	wordpools/wordpool_categorized_EN.txt	CEILING	Building	10	8	[0, 0, 0]	n/a	catFR1	2	R1626S
1105.581	0.916	1287252	WORD_OFF	n/a	n/a	CEILING	Building	10	8	[0, 0, 0]	n/a	catFR1	2	R1626S
1106.497	1.601	1288168	WORD	n/a	wordpools/wordpool_categorized_EN.txt	RATCHET	Tools	11	8	[0, 0, 0]	n/a	catFR1	2	R1626S
1108.098	0.999	1289770	WORD_OFF	n/a	n/a	RATCHET	Tools	11	8	[0, 0, 0]	n/a	catFR1	2	R1626S
1109.097	1.601	1290772	WORD	n/a	wordpools/wordpool_categorized_EN.txt	LEVEL	Tools	12	8	[0, 0, 0]	n/a	catFR1	2	R1626S
1110.698	0.001	1292374	WORD_OFF	n/a	n/a	LEVEL	Tools	12	8	[0, 0, 0]	n/a	catFR1	2	R1626S
1110.699	0.0	1292374	ENCODING_END	n/a	n/a	n/a	n/a	-999	8	[0, 0, 0]	n/a	catFR1	2	R1626S
1110.699	0.0	1292374	DISTRACT_START	n/a	n/a	n/a	n/a	-999	8	[0, 0, 0]	n/a	catFR1	2	R1626S
1110.699	0.0	1292376	START	n/a	n/a	n/a	n/a	-999	8	[-999, -999, -999]	n/a	catFR1	2	R1626S
1110.699	7.899	1292376	PROB	7.881	n/a	n/a	n/a	-999	8	[1, 6, 8]	15.0	catFR1	2	R1626S
1118.598	6.35	1300275	PROB	6.333	n/a	n/a	n/a	-999	8	[4, 2, 2]	8.0	catFR1	2	R1626S
1124.948	16.066	1306624	PROB	16.05	n/a	n/a	n/a	-999	8	[6, 8, 3]	17.0	catFR1	2	R1626S
1141.014	0.0	1322688	DISTRACT_END	n/a	n/a	n/a	n/a	-999	8	[0, 0, 0]	n/a	catFR1	2	R1626S
1141.014	2.233	1322690	STOP	n/a	n/a	n/a	n/a	-999	8	[-999, -999, -999]	n/a	catFR1	2	R1626S
1143.247	7.039	1324920	REC_START	n/a	n/a	n/a	n/a	-999	8	[0, 0, 0]	n/a	catFR1	2	R1626S
1150.286	4.058	1331961	REC_WORD	7.039	n/a	ONION	Vegetables	3	8	[0, 0, 0]	n/a	catFR1	2	R1626S
1154.344	4.505	1336019	REC_WORD	11.097	n/a	SCREWDRIVER	Tools	5	8	[0, 0, 0]	n/a	catFR1	2	R1626S
1158.849	14.581	1340524	REC_WORD	15.602	n/a	LETTUCE	Vegetables	4	8	[0, 0, 0]	n/a	catFR1	2	R1626S
1173.43	3.302	1355099	REC_END	n/a	n/a	n/a	n/a	-999	8	[0, 0, 0]	n/a	catFR1	2	R1626S
1176.732	10.349	1358409	COUNTDOWN_START	n/a	n/a	n/a	n/a	-999	9	[0, 0, 0]	n/a	catFR1	2	R1626S
1187.081	0.0	1368749	COUNTDOWN_END	n/a	n/a	n/a	n/a	-999	9	[0, 0, 0]	n/a	catFR1	2	R1626S
1187.081	2.266	1368758	ENCODING_START	n/a	n/a	n/a	n/a	-999	9	[0, 0, 0]	n/a	catFR1	2	R1626S
1189.347	1.617	1371019	WORD	n/a	wordpools/wordpool_categorized_EN.txt	FOOT	BodyParts	1	9	[0, 0, 0]	n/a	catFR1	2	R1626S
1190.964	0.783	1372631	WORD_OFF	n/a	n/a	FOOT	BodyParts	1	9	[0, 0, 0]	n/a	catFR1	2	R1626S
1191.747	1.617	1373423	WORD	n/a	wordpools/wordpool_categorized_EN.txt	EYE	BodyParts	2	9	[0, 0, 0]	n/a	catFR1	2	R1626S
1193.364	0.883	1375035	WORD_OFF	n/a	n/a	EYE	BodyParts	2	9	[0, 0, 0]	n/a	catFR1	2	R1626S
1194.247	1.617	1375922	WORD	n/a	wordpools/wordpool_categorized_EN.txt	NYLON	Fabric	3	9	[0, 0, 0]	n/a	catFR1	2	R1626S
1195.864	0.85	1377534	WORD_OFF	n/a	n/a	NYLON	Fabric	3	9	[0, 0, 0]	n/a	catFR1	2	R1626S
1196.714	1.615	1378383	WORD	n/a	wordpools/wordpool_categorized_EN.txt	FLEECE	Fabric	4	9	[0, 0, 0]	n/a	catFR1	2	R1626S
1198.329	0.985	1380004	WORD_OFF	n/a	n/a	FLEECE	Fabric	4	9	[0, 0, 0]	n/a	catFR1	2	R1626S
1199.314	1.617	1380987	WORD	n/a	wordpools/wordpool_categorized_EN.txt	ROOF	Building	5	9	[0, 0, 0]	n/a	catFR1	2	R1626S
1200.931	0.9	1382599	WORD_OFF	n/a	n/a	ROOF	Building	5	9	[0, 0, 0]	n/a	catFR1	2	R1626S
1201.831	1.616	1383505	WORD	n/a	wordpools/wordpool_categorized_EN.txt	DOOR	Building	6	9	[0, 0, 0]	n/a	catFR1	2	R1626S
1203.447	0.984	1385117	WORD_OFF	n/a	n/a	DOOR	Building	6	9	[0, 0, 0]	n/a	catFR1	2	R1626S
1204.431	1.6	1386099	WORD	n/a	wordpools/wordpool_categorized_EN.txt	EAR	BodyParts	7	9	[0, 0, 0]	n/a	catFR1	2	R1626S
1206.031	0.85	1387702	WORD_OFF	n/a	n/a	EAR	BodyParts	7	9	[0, 0, 0]	n/a	catFR1	2	R1626S
1206.881	1.6	1388551	WORD	n/a	wordpools/wordpool_categorized_EN.txt	HEAD	BodyParts	8	9	[0, 0, 0]	n/a	catFR1	2	R1626S
1208.481	0.85	1390153	WORD_OFF	n/a	n/a	HEAD	BodyParts	8	9	[0, 0, 0]	n/a	catFR1	2	R1626S
1209.331	1.616	1391002	WORD	n/a	wordpools/wordpool_categorized_EN.txt	SATIN	Fabric	9	9	[0, 0, 0]	n/a	catFR1	2	R1626S
1210.947	0.817	1392614	WORD_OFF	n/a	n/a	SATIN	Fabric	9	9	[0, 0, 0]	n/a	catFR1	2	R1626S
1211.764	1.617	1393434	WORD	n/a	wordpools/wordpool_categorized_EN.txt	SUEDE	Fabric	10	9	[0, 0, 0]	n/a	catFR1	2	R1626S
1213.381	0.966	1395046	WORD_OFF	n/a	n/a	SUEDE	Fabric	10	9	[0, 0, 0]	n/a	catFR1	2	R1626S
1214.347	1.617	1396019	WORD	n/a	wordpools/wordpool_categorized_EN.txt	STAIRS	Building	11	9	[0, 0, 0]	n/a	catFR1	2	R1626S
1215.964	0.867	1397631	WORD_OFF	n/a	n/a	STAIRS	Building	11	9	[0, 0, 0]	n/a	catFR1	2	R1626S
1216.831	1.617	1398499	WORD	n/a	wordpools/wordpool_categorized_EN.txt	WALL	Building	12	9	[0, 0, 0]	n/a	catFR1	2	R1626S
1218.448	0.0	1400120	PROB	7.482	n/a	n/a	n/a	-999	9	[3, 2, 3]	8.0	catFR1	2	R1626S
1218.447	0.002	1400121	WORD_OFF	n/a	n/a	WALL	Building	12	9	[0, 0, 0]	n/a	catFR1	2	R1626S
1218.449	0.0	1400121	ENCODING_END	n/a	n/a	n/a	n/a	-999	9	[0, 0, 0]	n/a	catFR1	2	R1626S
1218.449	0.0	1400121	DISTRACT_START	n/a	n/a	n/a	n/a	-999	9	[0, 0, 0]	n/a	catFR1	2	R1626S
1218.449	7.498	1400121	START	n/a	n/a	n/a	n/a	-999	9	[-999, -999, -999]	n/a	catFR1	2	R1626S
1225.947	8.017	1407619	PROB	8.0	n/a	n/a	n/a	-999	9	[2, 7, 7]	16.0	catFR1	2	R1626S
1233.964	7.699	1415635	PROB	7.683	n/a	n/a	n/a	-999	9	[7, 3, 4]	14.0	catFR1	2	R1626S
1241.663	0.0	1423328	DISTRACT_END	n/a	n/a	n/a	n/a	-999	9	[0, 0, 0]	n/a	catFR1	2	R1626S
1241.663	2.069	1423334	STOP	n/a	n/a	n/a	n/a	-999	9	[-999, -999, -999]	n/a	catFR1	2	R1626S
1243.732	4.675	1425398	REC_START	n/a	n/a	n/a	n/a	-999	9	[0, 0, 0]	n/a	catFR1	2	R1626S
1248.407	3.621	1430078	REC_WORD	4.675	n/a	FOOT	BodyParts	1	9	[0, 0, 0]	n/a	catFR1	2	R1626S
1252.028	13.206	1433698	REC_WORD	8.296	n/a	NYLON	Fabric	3	9	[0, 0, 0]	n/a	catFR1	2	R1626S
1265.234	8.668	1446904	REC_WORD	21.502	n/a	EYE	BodyParts	2	9	[0, 0, 0]	n/a	catFR1	2	R1626S
1273.902	1.795	1455568	REC_END	n/a	n/a	n/a	n/a	-999	9	[0, 0, 0]	n/a	catFR1	2	R1626S
1275.697	10.35	1457371	COUNTDOWN_START	n/a	n/a	n/a	n/a	-999	10	[0, 0, 0]	n/a	catFR1	2	R1626S
1286.047	0.0	1467710	COUNTDOWN_END	n/a	n/a	n/a	n/a	-999	10	[0, 0, 0]	n/a	catFR1	2	R1626S
1286.047	2.217	1467710	ENCODING_START	n/a	n/a	n/a	n/a	-999	10	[0, 0, 0]	n/a	catFR1	2	R1626S
1288.264	1.617	1469933	WORD	n/a	wordpools/wordpool_categorized_EN.txt	FOG	Weather	1	10	[0, 0, 0]	n/a	catFR1	2	R1626S
1289.881	0.982	1471545	WORD_OFF	n/a	n/a	FOG	Weather	1	10	[0, 0, 0]	n/a	catFR1	2	R1626S
1290.863	1.601	1472527	WORD	n/a	wordpools/wordpool_categorized_EN.txt	CLOUD	Weather	2	10	[0, 0, 0]	n/a	catFR1	2	R1626S
1292.464	0.783	1474130	WORD_OFF	n/a	n/a	CLOUD	Weather	2	10	[0, 0, 0]	n/a	catFR1	2	R1626S
1293.247	1.617	1474912	WORD	n/a	wordpools/wordpool_categorized_EN.txt	ELM	Trees	3	10	[0, 0, 0]	n/a	catFR1	2	R1626S
1294.864	0.816	1476533	WORD_OFF	n/a	n/a	ELM	Trees	3	10	[0, 0, 0]	n/a	catFR1	2	R1626S
1295.68	1.617	1477344	WORD	n/a	wordpools/wordpool_categorized_EN.txt	WILLOW	Trees	4	10	[0, 0, 0]	n/a	catFR1	2	R1626S
1297.297	0.9	1478966	WORD_OFF	n/a	n/a	WILLOW	Trees	4	10	[0, 0, 0]	n/a	catFR1	2	R1626S
1298.197	1.614	1479862	WORD	n/a	wordpools/wordpool_categorized_EN.txt	CAR	Vehicles	5	10	[0, 0, 0]	n/a	catFR1	2	R1626S
1299.811	0.819	1481474	WORD_OFF	n/a	n/a	CAR	Vehicles	5	10	[0, 0, 0]	n/a	catFR1	2	R1626S
1300.63	1.601	1482295	WORD	n/a	wordpools/wordpool_categorized_EN.txt	JEEP	Vehicles	6	10	[0, 0, 0]	n/a	catFR1	2	R1626S
1302.231	0.766	1483897	WORD_OFF	n/a	n/a	JEEP	Vehicles	6	10	[0, 0, 0]	n/a	catFR1	2	R1626S
1302.997	1.617	1484660	WORD	n/a	wordpools/wordpool_categorized_EN.txt	WIND	Weather	7	10	[0, 0, 0]	n/a	catFR1	2	R1626S
1304.614	0.784	1486282	WORD_OFF	n/a	n/a	WIND	Weather	7	10	[0, 0, 0]	n/a	catFR1	2	R1626S
1305.398	1.599	1487064	WORD	n/a	wordpools/wordpool_categorized_EN.txt	DRIZZLE	Weather	8	10	[0, 0, 0]	n/a	catFR1	2	R1626S
1306.997	0.867	1488666	WORD_OFF	n/a	n/a	DRIZZLE	Weather	8	10	[0, 0, 0]	n/a	catFR1	2	R1626S
1307.864	1.6	1489525	WORD	n/a	wordpools/wordpool_categorized_EN.txt	BIKE	Vehicles	9	10	[0, 0, 0]	n/a	catFR1	2	R1626S
1309.464	0.866	1491127	WORD_OFF	n/a	n/a	BIKE	Vehicles	9	10	[0, 0, 0]	n/a	catFR1	2	R1626S
1310.33	1.6	1491995	WORD	n/a	wordpools/wordpool_categorized_EN.txt	PLANE	Vehicles	10	10	[0, 0, 0]	n/a	catFR1	2	R1626S
1311.93	0.767	1493598	WORD_OFF	n/a	n/a	PLANE	Vehicles	10	10	[0, 0, 0]	n/a	catFR1	2	R1626S
1312.697	1.6	1494361	WORD	n/a	wordpools/wordpool_categorized_EN.txt	CEDAR	Trees	11	10	[0, 0, 0]	n/a	catFR1	2	R1626S
1314.297	0.933	1495963	WORD_OFF	n/a	n/a	CEDAR	Trees	11	10	[0, 0, 0]	n/a	catFR1	2	R1626S
1315.23	1.601	1496898	WORD	n/a	wordpools/wordpool_categorized_EN.txt	PINE	Trees	12	10	[0, 0, 0]	n/a	catFR1	2	R1626S
1316.831	0.0	1498499	PROB	7.199	n/a	n/a	n/a	-999	10	[7, 4, 3]	14.0	catFR1	2	R1626S
1316.831	0.004	1498500	WORD_OFF	n/a	n/a	PINE	Trees	12	10	[0, 0, 0]	n/a	catFR1	2	R1626S
1316.835	0.0	1498500	ENCODING_END	n/a	n/a	n/a	n/a	-999	10	[0, 0, 0]	n/a	catFR1	2	R1626S
1316.835	0.0	1498500	DISTRACT_START	n/a	n/a	n/a	n/a	-999	10	[0, 0, 0]	n/a	catFR1	2	R1626S
1316.835	7.212	1498503	START	n/a	n/a	n/a	n/a	-999	10	[-999, -999, -999]	n/a	catFR1	2	R1626S
1324.047	6.417	1505714	PROB	6.4	n/a	n/a	n/a	-999	10	[1, 6, 3]	10.0	catFR1	2	R1626S
1330.464	6.566	1512131	PROB	6.55	n/a	n/a	n/a	-999	10	[3, 5, 5]	13.0	catFR1	2	R1626S
1337.03	0.0	1518693	DISTRACT_END	n/a	n/a	n/a	n/a	-999	10	[0, 0, 0]	n/a	catFR1	2	R1626S
1337.03	2.267	1518697	STOP	n/a	n/a	n/a	n/a	-999	10	[-999, -999, -999]	n/a	catFR1	2	R1626S
1339.297	2.37	1520963	REC_START	n/a	n/a	n/a	n/a	-999	10	[0, 0, 0]	n/a	catFR1	2	R1626S
1341.667	3.178	1523333	REC_WORD	2.37	n/a	FOG	Weather	1	10	[0, 0, 0]	n/a	catFR1	2	R1626S
1344.845	4.295	1526511	REC_WORD	5.548	n/a	PLANE	Vehicles	10	10	[0, 0, 0]	n/a	catFR1	2	R1626S
1349.14	3.016	1530806	REC_WORD	9.843	n/a	ELM	Trees	3	10	[0, 0, 0]	n/a	catFR1	2	R1626S
1352.156	9.675	1533822	REC_WORD	12.859	n/a	CEDAR	Trees	11	10	[0, 0, 0]	n/a	catFR1	2	R1626S
1361.831	7.63	1543496	REC_WORD	22.534	n/a	WILLOW	Trees	4	10	[0, 0, 0]	n/a	catFR1	2	R1626S
1369.461	3.5	1551124	REC_END	n/a	n/a	n/a	n/a	-999	10	[0, 0, 0]	n/a	catFR1	2	R1626S
1372.961	10.353	1554625	COUNTDOWN_START	n/a	n/a	n/a	n/a	-999	11	[0, 0, 0]	n/a	catFR1	2	R1626S
1383.314	0.0	1564974	COUNTDOWN_END	n/a	n/a	n/a	n/a	-999	11	[0, 0, 0]	n/a	catFR1	2	R1626S
1383.314	2.099	1564974	ENCODING_START	n/a	n/a	n/a	n/a	-999	11	[0, 0, 0]	n/a	catFR1	2	R1626S
1385.413	1.601	1567072	WORD	n/a	wordpools/wordpool_categorized_EN.txt	TOASTER	Appliances	1	11	[0, 0, 0]	n/a	catFR1	2	R1626S
1387.014	0.866	1568675	WORD_OFF	n/a	n/a	TOASTER	Appliances	1	11	[0, 0, 0]	n/a	catFR1	2	R1626S
1387.88	1.617	1569543	WORD	n/a	wordpools/wordpool_categorized_EN.txt	DISHWASHER	Appliances	2	11	[0, 0, 0]	n/a	catFR1	2	R1626S
1389.497	0.833	1571155	WORD_OFF	n/a	n/a	DISHWASHER	Appliances	2	11	[0, 0, 0]	n/a	catFR1	2	R1626S
1390.33	1.617	1571994	WORD	n/a	wordpools/wordpool_categorized_EN.txt	MAPLE	Trees	3	11	[0, 0, 0]	n/a	catFR1	2	R1626S
1391.947	0.851	1573606	WORD_OFF	n/a	n/a	MAPLE	Trees	3	11	[0, 0, 0]	n/a	catFR1	2	R1626S
1392.798	1.616	1574455	WORD	n/a	wordpools/wordpool_categorized_EN.txt	SPRUCE	Trees	4	11	[0, 0, 0]	n/a	catFR1	2	R1626S
1394.414	0.983	1576077	WORD_OFF	n/a	n/a	SPRUCE	Trees	4	11	[0, 0, 0]	n/a	catFR1	2	R1626S
1395.397	1.6	1577059	WORD	n/a	wordpools/wordpool_categorized_EN.txt	CROWBAR	Tools	5	11	[0, 0, 0]	n/a	catFR1	2	R1626S
1396.997	0.9	1578662	WORD_OFF	n/a	n/a	CROWBAR	Tools	5	11	[0, 0, 0]	n/a	catFR1	2	R1626S
1397.897	1.6	1579558	WORD	n/a	wordpools/wordpool_categorized_EN.txt	SANDER	Tools	6	11	[0, 0, 0]	n/a	catFR1	2	R1626S
1399.497	0.933	1581161	WORD_OFF	n/a	n/a	SANDER	Tools	6	11	[0, 0, 0]	n/a	catFR1	2	R1626S
1400.43	1.617	1582095	WORD	n/a	wordpools/wordpool_categorized_EN.txt	BIRCH	Trees	7	11	[0, 0, 0]	n/a	catFR1	2	R1626S
1402.047	0.767	1583707	WORD_OFF	n/a	n/a	BIRCH	Trees	7	11	[0, 0, 0]	n/a	catFR1	2	R1626S
1402.814	1.6	1584471	WORD	n/a	wordpools/wordpool_categorized_EN.txt	HICKORY	Trees	8	11	[0, 0, 0]	n/a	catFR1	2	R1626S
1404.414	0.933	1586073	WORD_OFF	n/a	n/a	HICKORY	Trees	8	11	[0, 0, 0]	n/a	catFR1	2	R1626S
1405.347	1.6	1587008	WORD	n/a	wordpools/wordpool_categorized_EN.txt	DRILL	Tools	9	11	[0, 0, 0]	n/a	catFR1	2	R1626S
1406.947	0.883	1588610	WORD_OFF	n/a	n/a	DRILL	Tools	9	11	[0, 0, 0]	n/a	catFR1	2	R1626S
1407.83	1.6	1589488	WORD	n/a	wordpools/wordpool_categorized_EN.txt	PLIERS	Tools	10	11	[0, 0, 0]	n/a	catFR1	2	R1626S
1409.43	0.95	1591090	WORD_OFF	n/a	n/a	PLIERS	Tools	10	11	[0, 0, 0]	n/a	catFR1	2	R1626S
1410.38	1.616	1592044	WORD	n/a	wordpools/wordpool_categorized_EN.txt	MIXER	Appliances	11	11	[0, 0, 0]	n/a	catFR1	2	R1626S
1411.996	0.867	1593656	WORD_OFF	n/a	n/a	MIXER	Appliances	11	11	[0, 0, 0]	n/a	catFR1	2	R1626S
1412.863	1.616	1594524	WORD	n/a	wordpools/wordpool_categorized_EN.txt	BLENDER	Appliances	12	11	[0, 0, 0]	n/a	catFR1	2	R1626S
1414.479	0.0	1596136	WORD_OFF	n/a	n/a	BLENDER	Appliances	12	11	[0, 0, 0]	n/a	catFR1	2	R1626S
1414.479	0.001	1596142	PROB	14.334	n/a	n/a	n/a	-999	11	[5, 8, 8]	21.0	catFR1	2	R1626S
1414.48	0.0	1596143	START	n/a	n/a	n/a	n/a	-999	11	[-999, -999, -999]	n/a	catFR1	2	R1626S
1414.48	0.0	1596146	ENCODING_END	n/a	n/a	n/a	n/a	-999	11	[0, 0, 0]	n/a	catFR1	2	R1626S
1414.48	14.353	1596146	DISTRACT_START	n/a	n/a	n/a	n/a	-999	11	[0, 0, 0]	n/a	catFR1	2	R1626S
1428.833	6.746	1610495	PROB	6.732	n/a	n/a	n/a	-999	11	[7, 3, 4]	14.0	catFR1	2	R1626S
1435.579	0.0	1617235	DISTRACT_END	n/a	n/a	n/a	n/a	-999	11	[0, 0, 0]	n/a	catFR1	2	R1626S
1435.579	2.401	1617241	STOP	n/a	n/a	n/a	n/a	-999	11	[-999, -999, -999]	n/a	catFR1	2	R1626S
1437.98	5.37	1619639	REC_START	n/a	n/a	n/a	n/a	-999	11	[0, 0, 0]	n/a	catFR1	2	R1626S
1443.35	3.49	1625012	REC_WORD	5.37	n/a	PLIERS	Tools	10	11	[0, 0, 0]	n/a	catFR1	2	R1626S
1446.84	7.333	1628502	REC_WORD	8.86	n/a	DRILL	Tools	9	11	[0, 0, 0]	n/a	catFR1	2	R1626S
1454.173	3.186	1635834	REC_WORD	16.193	n/a	HICKORY	Trees	8	11	[0, 0, 0]	n/a	catFR1	2	R1626S
1457.359	10.808	1639020	REC_WORD	19.379	n/a	BIRCH	Trees	7	11	[0, 0, 0]	n/a	catFR1	2	R1626S
1468.167	4.129	1649828	REC_END	n/a	n/a	n/a	n/a	-999	11	[0, 0, 0]	n/a	catFR1	2	R1626S
1472.296	10.35	1653958	COUNTDOWN_START	n/a	n/a	n/a	n/a	-999	12	[0, 0, 0]	n/a	catFR1	2	R1626S
1482.646	0.0	1664307	COUNTDOWN_END	n/a	n/a	n/a	n/a	-999	12	[0, 0, 0]	n/a	catFR1	2	R1626S
1482.646	2.167	1664307	ENCODING_START	n/a	n/a	n/a	n/a	-999	12	[0, 0, 0]	n/a	catFR1	2	R1626S
1484.813	1.6	1666473	WORD	n/a	wordpools/wordpool_categorized_EN.txt	SODA	Beverages	1	12	[0, 0, 0]	n/a	catFR1	2	R1626S
1486.413	0.9	1668075	WORD_OFF	n/a	n/a	SODA	Beverages	1	12	[0, 0, 0]	n/a	catFR1	2	R1626S
1487.313	1.6	1668972	WORD	n/a	wordpools/wordpool_categorized_EN.txt	COFFEE	Beverages	2	12	[0, 0, 0]	n/a	catFR1	2	R1626S
1488.913	0.917	1670574	WORD_OFF	n/a	n/a	COFFEE	Beverages	2	12	[0, 0, 0]	n/a	catFR1	2	R1626S
1489.83	1.617	1671490	WORD	n/a	wordpools/wordpool_categorized_EN.txt	WALNUT	Trees	3	12	[0, 0, 0]	n/a	catFR1	2	R1626S
1491.447	0.966	1673102	WORD_OFF	n/a	n/a	WALNUT	Trees	3	12	[0, 0, 0]	n/a	catFR1	2	R1626S
1492.413	1.6	1674075	WORD	n/a	wordpools/wordpool_categorized_EN.txt	CYPRESS	Trees	4	12	[0, 0, 0]	n/a	catFR1	2	R1626S
1494.013	0.85	1675668	WORD_OFF	n/a	n/a	CYPRESS	Trees	4	12	[0, 0, 0]	n/a	catFR1	2	R1626S
1494.863	1.6	1676517	WORD	n/a	wordpools/wordpool_categorized_EN.txt	BUS	Vehicles	5	12	[0, 0, 0]	n/a	catFR1	2	R1626S
1496.463	0.932	1678119	WORD_OFF	n/a	n/a	BUS	Vehicles	5	12	[0, 0, 0]	n/a	catFR1	2	R1626S
1497.395	1.601	1679054	WORD	n/a	wordpools/wordpool_categorized_EN.txt	MOPED	Vehicles	6	12	[0, 0, 0]	n/a	catFR1	2	R1626S
1498.996	0.8	1680656	WORD_OFF	n/a	n/a	MOPED	Vehicles	6	12	[0, 0, 0]	n/a	catFR1	2	R1626S
1499.796	1.6	1681458	WORD	n/a	wordpools/wordpool_categorized_EN.txt	BEER	Beverages	7	12	[0, 0, 0]	n/a	catFR1	2	R1626S
1501.396	0.866	1683050	WORD_OFF	n/a	n/a	BEER	Beverages	7	12	[0, 0, 0]	n/a	catFR1	2	R1626S
1502.262	1.601	1683918	WORD	n/a	wordpools/wordpool_categorized_EN.txt	CIDER	Beverages	8	12	[0, 0, 0]	n/a	catFR1	2	R1626S
1503.863	0.783	1685521	WORD_OFF	n/a	n/a	CIDER	Beverages	8	12	[0, 0, 0]	n/a	catFR1	2	R1626S
1504.646	1.6	1686303	WORD	n/a	wordpools/wordpool_categorized_EN.txt	SCOOTER	Vehicles	9	12	[0, 0, 0]	n/a	catFR1	2	R1626S
1506.246	0.817	1687906	WORD_OFF	n/a	n/a	SCOOTER	Vehicles	9	12	[0, 0, 0]	n/a	catFR1	2	R1626S
1507.063	1.6	1688716	WORD	n/a	wordpools/wordpool_categorized_EN.txt	MOTORCYCLE	Vehicles	10	12	[0, 0, 0]	n/a	catFR1	2	R1626S
1508.663	0.816	1690319	WORD_OFF	n/a	n/a	MOTORCYCLE	Vehicles	10	12	[0, 0, 0]	n/a	catFR1	2	R1626S
1509.479	1.618	1691139	WORD	n/a	wordpools/wordpool_categorized_EN.txt	OAK	Trees	11	12	[0, 0, 0]	n/a	catFR1	2	R1626S
1511.097	0.933	1692751	WORD_OFF	n/a	n/a	OAK	Trees	11	12	[0, 0, 0]	n/a	catFR1	2	R1626S
1512.03	1.6	1693686	WORD	n/a	wordpools/wordpool_categorized_EN.txt	EVERGREEN	Trees	12	12	[0, 0, 0]	n/a	catFR1	2	R1626S
1513.63	0.001	1695288	WORD_OFF	n/a	n/a	EVERGREEN	Trees	12	12	[0, 0, 0]	n/a	catFR1	2	R1626S
1513.631	0.0	1695288	ENCODING_END	n/a	n/a	n/a	n/a	-999	12	[0, 0, 0]	n/a	catFR1	2	R1626S
1513.631	0.0	1695288	DISTRACT_START	n/a	n/a	n/a	n/a	-999	12	[0, 0, 0]	n/a	catFR1	2	R1626S
1513.631	0.0	1695289	START	n/a	n/a	n/a	n/a	-999	12	[-999, -999, -999]	n/a	catFR1	2	R1626S
1513.631	11.483	1695289	PROB	11.465	n/a	n/a	n/a	-999	12	[3, 5, 4]	12.0	catFR1	2	R1626S
1525.114	5.934	1706772	PROB	5.916	n/a	n/a	n/a	-999	12	[1, 1, 8]	10.0	catFR1	2	R1626S
1531.048	9.565	1712706	PROB	9.549	n/a	n/a	n/a	-999	12	[7, 8, 4]	19.0	catFR1	2	R1626S
1540.613	0.0	1722263	DISTRACT_END	n/a	n/a	n/a	n/a	-999	12	[0, 0, 0]	n/a	catFR1	2	R1626S
1540.613	2.35	1722270	STOP	n/a	n/a	n/a	n/a	-999	12	[-999, -999, -999]	n/a	catFR1	2	R1626S
1542.963	6.242	1724619	REC_START	n/a	n/a	n/a	n/a	-999	12	[0, 0, 0]	n/a	catFR1	2	R1626S
1549.205	11.135	1730862	REC_WORD	6.242	n/a	MOTORCYCLE	Vehicles	10	12	[0, 0, 0]	n/a	catFR1	2	R1626S
1560.34	2.81	1741996	REC_WORD	17.377	n/a	BEER	Beverages	7	12	[0, 0, 0]	n/a	catFR1	2	R1626S
1563.15	10.002	1744806	REC_WORD	20.187	n/a	CIDER	Beverages	8	12	[0, 0, 0]	n/a	catFR1	2	R1626S
1573.152	0.0	1754808	REC_END	n/a	n/a	n/a	n/a	-999	12	[0, 0, 0]	n/a	catFR1	2	R1626S
