onset	duration	sample	trial_type	response_time	stim_file	item_name	category	serialpos	list	test	answer	experiment	session	subject
0.0	0.009	67565	SESS_START	n/a	n/a	n/a	n/a	-999	0	[0, 0, 0]	n/a	catFR1	4	R1672T
0.009	26.486	67574	TRIAL	n/a	n/a	n/a	n/a	-999	-1	[0, 0, 0]	n/a	catFR1	4	R1672T
26.495	10.365	94060	COUNTDOWN	n/a	n/a	n/a	n/a	-999	-1	[0, 0, 0]	n/a	catFR1	4	R1672T
36.86	2.084	104425	ENCODING_START	n/a	n/a	n/a	n/a	-999	-1	[0, 0, 0]	n/a	catFR1	4	R1672T
38.944	2.434	106509	WORD	n/a	n/a	TRUMPET	Instruments	1	-1	[0, 0, 0]	n/a	catFR1	4	R1672T
41.378	2.383	108943	WORD	n/a	n/a	FLUTE	Instruments	2	-1	[0, 0, 0]	n/a	catFR1	4	R1672T
43.761	2.516	111326	WORD	n/a	n/a	PIGEON	Birds	3	-1	[0, 0, 0]	n/a	catFR1	4	R1672T
46.277	2.582	113842	WORD	n/a	n/a	DOVE	Birds	4	-1	[0, 0, 0]	n/a	catFR1	4	R1672T
48.859	2.402	116424	WORD	n/a	n/a	COOKIE	Desserts	5	-1	[0, 0, 0]	n/a	catFR1	4	R1672T
51.261	2.55	118826	WORD	n/a	n/a	COBBLER	Desserts	6	-1	[0, 0, 0]	n/a	catFR1	4	R1672T
53.811	2.499	121376	WORD	n/a	n/a	TROMBONE	Instruments	7	-1	[0, 0, 0]	n/a	catFR1	4	R1672T
56.31	2.6	123875	WORD	n/a	n/a	TUBA	Instruments	8	-1	[0, 0, 0]	n/a	catFR1	4	R1672T
58.91	2.599	126475	WORD	n/a	n/a	SEAGULL	Birds	9	-1	[0, 0, 0]	n/a	catFR1	4	R1672T
61.509	2.367	129074	WORD	n/a	n/a	HAWK	Birds	10	-1	[0, 0, 0]	n/a	catFR1	4	R1672T
63.876	2.384	131441	WORD	n/a	n/a	MOUSSE	Desserts	11	-1	[0, 0, 0]	n/a	catFR1	4	R1672T
66.26	1.616	133825	WORD	n/a	n/a	FUDGE	Desserts	12	-1	[0, 0, 0]	n/a	catFR1	4	R1672T
67.876	0.001	135441	PROB	0.001	n/a	n/a	n/a	-999	0	[2, 8, 5]	15	catFR1	4	R1672T
67.877	5.448	135442	DISTRACT_START	n/a	n/a	n/a	n/a	-999	0	[0, 0, 0]	n/a	catFR1	4	R1672T
73.325	6.084	140890	PROB	6.084	n/a	n/a	n/a	-999	0	[7, 2, 5]	14	catFR1	4	R1672T
79.409	2.833	146974	PROB	2.833	n/a	n/a	n/a	-999	0	[4, 1, 3]	8	catFR1	4	R1672T
82.242	4.433	149807	PROB	4.433	n/a	n/a	n/a	-999	0	[2, 7, 1]	10	catFR1	4	R1672T
86.675	8.532	154240	PROB	8.532	n/a	n/a	n/a	-999	0	[8, 3, 3]	14	catFR1	4	R1672T
95.207	0.94	162772	REC_START	n/a	n/a	n/a	n/a	-999	-1	[0, 0, 0]	n/a	catFR1	4	R1672T
96.147	1.95	163712	REC_WORD	1.95	n/a	SEAGULL	Birds	9	-1	[0, 0, 0]	n/a	catFR1	4	R1672T
98.097	3.265	165662	REC_WORD	3.265	n/a	MOUSSE	Desserts	11	-1	[0, 0, 0]	n/a	catFR1	4	R1672T
101.362	1.0	168927	REC_WORD_VV	1.0	n/a	<>	n/a	-999	-1	[0, 0, 0]	n/a	catFR1	4	R1672T
102.362	3.952	169927	REC_WORD_VV	3.952	n/a	<>	n/a	-999	-1	[0, 0, 0]	n/a	catFR1	4	R1672T
106.314	1.699	173879	REC_WORD	1.699	n/a	BANJO	n/a	-999	-1	[0, 0, 0]	n/a	catFR1	4	R1672T
108.013	0.727	175578	REC_WORD	0.727	n/a	TRUMPET	Instruments	1	-1	[0, 0, 0]	n/a	catFR1	4	R1672T
108.74	0.895	176305	REC_WORD	0.895	n/a	FLUTE	Instruments	2	-1	[0, 0, 0]	n/a	catFR1	4	R1672T
109.635	2.741	177200	REC_WORD	2.741	n/a	TUBA	Instruments	8	-1	[0, 0, 0]	n/a	catFR1	4	R1672T
112.376	1.0	179941	REC_WORD_VV	1.0	n/a	<>	n/a	-999	-1	[0, 0, 0]	n/a	catFR1	4	R1672T
113.376	1.0	180941	REC_WORD_VV	1.0	n/a	<>	n/a	-999	-1	[0, 0, 0]	n/a	catFR1	4	R1672T
114.376	10.985	181941	REC_WORD_VV	10.985	n/a	<>	n/a	-999	-1	[0, 0, 0]	n/a	catFR1	4	R1672T
125.361	15.845	192926	TRIAL	n/a	n/a	n/a	n/a	-999	1	[0, 0, 0]	n/a	catFR1	4	R1672T
141.206	10.366	208771	COUNTDOWN	n/a	n/a	n/a	n/a	-999	1	[0, 0, 0]	n/a	catFR1	4	R1672T
151.572	2.149	219137	ENCODING_START	n/a	n/a	n/a	n/a	-999	1	[0, 0, 0]	n/a	catFR1	4	R1672T
153.721	2.416	221286	WORD	n/a	wordpools/wordpool_categorized_EN.txt	SPIDER	Insects	1	1	[0, 0, 0]	n/a	catFR1	4	R1672T
156.137	2.568	223702	WORD	n/a	wordpools/wordpool_categorized_EN.txt	CRICKET	Insects	2	1	[0, 0, 0]	n/a	catFR1	4	R1672T
158.705	2.433	226270	WORD	n/a	wordpools/wordpool_categorized_EN.txt	RAIN	Weather	3	1	[0, 0, 0]	n/a	catFR1	4	R1672T
161.138	2.55	228703	WORD	n/a	wordpools/wordpool_categorized_EN.txt	WIND	Weather	4	1	[0, 0, 0]	n/a	catFR1	4	R1672T
163.688	2.5	231253	WORD	n/a	wordpools/wordpool_categorized_EN.txt	DRYER	Appliances	5	1	[0, 0, 0]	n/a	catFR1	4	R1672T
166.188	2.484	233753	WORD	n/a	wordpools/wordpool_categorized_EN.txt	FREEZER	Appliances	6	1	[0, 0, 0]	n/a	catFR1	4	R1672T
168.672	2.566	236237	WORD	n/a	wordpools/wordpool_categorized_EN.txt	HURRICANE	Weather	7	1	[0, 0, 0]	n/a	catFR1	4	R1672T
171.238	2.55	238803	WORD	n/a	wordpools/wordpool_categorized_EN.txt	THUNDER	Weather	8	1	[0, 0, 0]	n/a	catFR1	4	R1672T
173.788	2.399	241353	WORD	n/a	wordpools/wordpool_categorized_EN.txt	STOVE	Appliances	9	1	[0, 0, 0]	n/a	catFR1	4	R1672T
176.187	2.568	243752	WORD	n/a	wordpools/wordpool_categorized_EN.txt	TOASTER	Appliances	10	1	[0, 0, 0]	n/a	catFR1	4	R1672T
178.755	2.533	246320	WORD	n/a	wordpools/wordpool_categorized_EN.txt	BEE	Insects	11	1	[0, 0, 0]	n/a	catFR1	4	R1672T
181.288	1.617	248853	WORD	n/a	wordpools/wordpool_categorized_EN.txt	BEETLE	Insects	12	1	[0, 0, 0]	n/a	catFR1	4	R1672T
182.905	0.0	250470	DISTRACT_START	n/a	n/a	n/a	n/a	-999	1	[0, 0, 0]	n/a	catFR1	4	R1672T
182.905	7.866	250470	PROB	7.866	n/a	n/a	n/a	-999	1	[5, 6, 4]	15	catFR1	4	R1672T
190.771	3.765	258336	PROB	3.765	n/a	n/a	n/a	-999	1	[5, 2, 2]	9	catFR1	4	R1672T
194.536	4.101	262101	PROB	4.101	n/a	n/a	n/a	-999	1	[6, 7, 1]	14	catFR1	4	R1672T
198.637	6.718	266202	PROB	6.718	n/a	n/a	n/a	-999	1	[1, 2, 7]	10	catFR1	4	R1672T
205.355	0.847	272920	REC_START	n/a	n/a	n/a	n/a	-999	1	[0, 0, 0]	n/a	catFR1	4	R1672T
206.202	1.201	273767	REC_WORD	1.201	n/a	RAIN	Weather	3	1	[0, 0, 0]	n/a	catFR1	4	R1672T
207.403	1.79	274968	REC_WORD	1.79	n/a	WIND	Weather	4	1	[0, 0, 0]	n/a	catFR1	4	R1672T
209.193	1.354	276758	REC_WORD	1.354	n/a	HURRICANE	Weather	7	1	[0, 0, 0]	n/a	catFR1	4	R1672T
210.547	2.153	278112	REC_WORD	2.153	n/a	THUNDER	Weather	8	1	[0, 0, 0]	n/a	catFR1	4	R1672T
212.7	12.627	280265	REC_WORD	12.627	n/a	BEETLE	Insects	12	1	[0, 0, 0]	n/a	catFR1	4	R1672T
225.327	1.0	292892	REC_WORD_VV	1.0	n/a	<>	n/a	-999	1	[0, 0, 0]	n/a	catFR1	4	R1672T
226.327	1.0	293892	REC_WORD_VV	1.0	n/a	<>	n/a	-999	1	[0, 0, 0]	n/a	catFR1	4	R1672T
227.327	1.0	294892	REC_WORD_VV	1.0	n/a	<>	n/a	-999	1	[0, 0, 0]	n/a	catFR1	4	R1672T
228.327	1.0	295892	REC_WORD_VV	1.0	n/a	<>	n/a	-999	1	[0, 0, 0]	n/a	catFR1	4	R1672T
229.327	1.0	296892	REC_WORD_VV	1.0	n/a	<>	n/a	-999	1	[0, 0, 0]	n/a	catFR1	4	R1672T
230.327	1.0	297892	REC_WORD_VV	1.0	n/a	<>	n/a	-999	1	[0, 0, 0]	n/a	catFR1	4	R1672T
231.327	2.872	298892	REC_WORD_VV	2.872	n/a	<>	n/a	-999	1	[0, 0, 0]	n/a	catFR1	4	R1672T
234.199	1.305	301764	REC_WORD_VV	1.305	n/a	<>	n/a	-999	1	[0, 0, 0]	n/a	catFR1	4	R1672T
235.504	3.847	303069	TRIAL	n/a	n/a	n/a	n/a	-999	2	[0, 0, 0]	n/a	catFR1	4	R1672T
239.351	10.35	306916	COUNTDOWN	n/a	n/a	n/a	n/a	-999	2	[0, 0, 0]	n/a	catFR1	4	R1672T
249.701	2.132	317266	ENCODING_START	n/a	n/a	n/a	n/a	-999	2	[0, 0, 0]	n/a	catFR1	4	R1672T
251.833	2.484	319398	WORD	n/a	wordpools/wordpool_categorized_EN.txt	DRESS	Clothing	1	2	[0, 0, 0]	n/a	catFR1	4	R1672T
254.317	2.583	321882	WORD	n/a	wordpools/wordpool_categorized_EN.txt	SHORTS	Clothing	2	2	[0, 0, 0]	n/a	catFR1	4	R1672T
256.9	2.434	324465	WORD	n/a	wordpools/wordpool_categorized_EN.txt	LINEN	Fabric	3	2	[0, 0, 0]	n/a	catFR1	4	R1672T
259.334	2.466	326899	WORD	n/a	wordpools/wordpool_categorized_EN.txt	LEATHER	Fabric	4	2	[0, 0, 0]	n/a	catFR1	4	R1672T
261.8	2.5	329365	WORD	n/a	wordpools/wordpool_categorized_EN.txt	POTATO	Vegetables	5	2	[0, 0, 0]	n/a	catFR1	4	R1672T
264.3	2.517	331865	WORD	n/a	wordpools/wordpool_categorized_EN.txt	LETTUCE	Vegetables	6	2	[0, 0, 0]	n/a	catFR1	4	R1672T
266.817	2.514	334382	WORD	n/a	wordpools/wordpool_categorized_EN.txt	BLOUSE	Clothing	7	2	[0, 0, 0]	n/a	catFR1	4	R1672T
269.331	2.603	336896	WORD	n/a	wordpools/wordpool_categorized_EN.txt	SOCKS	Clothing	8	2	[0, 0, 0]	n/a	catFR1	4	R1672T
271.934	2.383	339499	WORD	n/a	wordpools/wordpool_categorized_EN.txt	COTTON	Fabric	9	2	[0, 0, 0]	n/a	catFR1	4	R1672T
274.317	2.466	341882	WORD	n/a	wordpools/wordpool_categorized_EN.txt	SUEDE	Fabric	10	2	[0, 0, 0]	n/a	catFR1	4	R1672T
276.783	2.549	344348	WORD	n/a	wordpools/wordpool_categorized_EN.txt	CUCUMBER	Vegetables	11	2	[0, 0, 0]	n/a	catFR1	4	R1672T
279.332	1.601	346897	WORD	n/a	wordpools/wordpool_categorized_EN.txt	CARROT	Vegetables	12	2	[0, 0, 0]	n/a	catFR1	4	R1672T
280.933	0.001	348498	PROB	0.001	n/a	n/a	n/a	-999	2	[1, 6, 5]	12	catFR1	4	R1672T
280.934	5.815	348499	DISTRACT_START	n/a	n/a	n/a	n/a	-999	2	[0, 0, 0]	n/a	catFR1	4	R1672T
286.749	3.2	354314	PROB	3.2	n/a	n/a	n/a	-999	2	[3, 2, 3]	8	catFR1	4	R1672T
289.949	5.384	357514	PROB	5.384	n/a	n/a	n/a	-999	2	[4, 2, 5]	11	catFR1	4	R1672T
295.333	4.8	362898	PROB	4.8	n/a	n/a	n/a	-999	2	[4, 2, 3]	9	catFR1	4	R1672T
300.133	5.021	367698	PROB	5.021	n/a	n/a	n/a	-999	2	[1, 1, 5]	7	catFR1	4	R1672T
305.154	0.751	372719	REC_START	n/a	n/a	n/a	n/a	-999	2	[0, 0, 0]	n/a	catFR1	4	R1672T
305.905	3.093	373470	REC_WORD_VV	3.093	n/a	<>	n/a	-999	2	[0, 0, 0]	n/a	catFR1	4	R1672T
308.998	1.041	376563	REC_WORD	1.041	n/a	BLOUSE	Clothing	7	2	[0, 0, 0]	n/a	catFR1	4	R1672T
310.039	1.784	377604	REC_WORD	1.784	n/a	SUEDE	Fabric	10	2	[0, 0, 0]	n/a	catFR1	4	R1672T
311.823	0.684	379388	REC_WORD	0.684	n/a	COTTON	Fabric	9	2	[0, 0, 0]	n/a	catFR1	4	R1672T
312.507	1.809	380072	REC_WORD	1.809	n/a	DENIM	n/a	-999	2	[0, 0, 0]	n/a	catFR1	4	R1672T
314.316	3.621	381881	REC_WORD	3.621	n/a	SOCKS	Clothing	8	2	[0, 0, 0]	n/a	catFR1	4	R1672T
317.937	5.702	385502	REC_WORD_VV	5.702	n/a	<>	n/a	-999	2	[0, 0, 0]	n/a	catFR1	4	R1672T
323.639	11.653	391204	REC_WORD_VV	11.653	n/a	<>	n/a	-999	2	[0, 0, 0]	n/a	catFR1	4	R1672T
335.292	2.054	402857	TRIAL	n/a	n/a	n/a	n/a	-999	3	[0, 0, 0]	n/a	catFR1	4	R1672T
337.346	10.35	404911	COUNTDOWN	n/a	n/a	n/a	n/a	-999	3	[0, 0, 0]	n/a	catFR1	4	R1672T
347.696	2.05	415261	ENCODING_START	n/a	n/a	n/a	n/a	-999	3	[0, 0, 0]	n/a	catFR1	4	R1672T
349.746	2.466	417311	WORD	n/a	wordpools/wordpool_categorized_EN.txt	FRISBEE	Toys	1	3	[0, 0, 0]	n/a	catFR1	4	R1672T
352.212	2.401	419777	WORD	n/a	wordpools/wordpool_categorized_EN.txt	BLOCKS	Toys	2	3	[0, 0, 0]	n/a	catFR1	4	R1672T
354.613	2.549	422178	WORD	n/a	wordpools/wordpool_categorized_EN.txt	PLANKTON	OceanAnimals	3	3	[0, 0, 0]	n/a	catFR1	4	R1672T
357.162	2.401	424727	WORD	n/a	wordpools/wordpool_categorized_EN.txt	SQUID	OceanAnimals	4	3	[0, 0, 0]	n/a	catFR1	4	R1672T
359.563	2.483	427128	WORD	n/a	wordpools/wordpool_categorized_EN.txt	SHIRT	Clothing	5	3	[0, 0, 0]	n/a	catFR1	4	R1672T
362.046	2.433	429611	WORD	n/a	wordpools/wordpool_categorized_EN.txt	COAT	Clothing	6	3	[0, 0, 0]	n/a	catFR1	4	R1672T
364.479	2.482	432044	WORD	n/a	wordpools/wordpool_categorized_EN.txt	DOLLHOUSE	Toys	7	3	[0, 0, 0]	n/a	catFR1	4	R1672T
366.961	2.501	434526	WORD	n/a	wordpools/wordpool_categorized_EN.txt	BALL	Toys	8	3	[0, 0, 0]	n/a	catFR1	4	R1672T
369.462	2.517	437027	WORD	n/a	wordpools/wordpool_categorized_EN.txt	SKIRT	Clothing	9	3	[0, 0, 0]	n/a	catFR1	4	R1672T
371.979	2.448	439544	WORD	n/a	wordpools/wordpool_categorized_EN.txt	PANTS	Clothing	10	3	[0, 0, 0]	n/a	catFR1	4	R1672T
374.427	2.384	441992	WORD	n/a	wordpools/wordpool_categorized_EN.txt	TURTLE	OceanAnimals	11	3	[0, 0, 0]	n/a	catFR1	4	R1672T
376.811	1.618	444376	WORD	n/a	wordpools/wordpool_categorized_EN.txt	DOLPHIN	OceanAnimals	12	3	[0, 0, 0]	n/a	catFR1	4	R1672T
378.429	0.002	445994	PROB	0.002	n/a	n/a	n/a	-999	3	[5, 1, 6]	12	catFR1	4	R1672T
378.431	6.815	445996	DISTRACT_START	n/a	n/a	n/a	n/a	-999	3	[0, 0, 0]	n/a	catFR1	4	R1672T
385.246	2.633	452811	PROB	2.633	n/a	n/a	n/a	-999	3	[1, 1, 1]	3	catFR1	4	R1672T
387.879	5.165	455444	PROB	5.165	n/a	n/a	n/a	-999	3	[7, 7, 5]	19	catFR1	4	R1672T
393.044	5.267	460609	PROB	5.267	n/a	n/a	n/a	-999	3	[4, 1, 3]	9	catFR1	4	R1672T
398.311	7.448	465876	PROB	7.448	n/a	n/a	n/a	-999	3	[8, 7, 3]	18	catFR1	4	R1672T
405.759	4.968	473324	REC_START	n/a	n/a	n/a	n/a	-999	3	[0, 0, 0]	n/a	catFR1	4	R1672T
410.727	1.0	478292	REC_WORD_VV	1.0	n/a	<>	n/a	-999	3	[0, 0, 0]	n/a	catFR1	4	R1672T
411.727	13.972	479292	REC_WORD_VV	13.972	n/a	<>	n/a	-999	3	[0, 0, 0]	n/a	catFR1	4	R1672T
425.699	1.0	493264	REC_WORD_VV	1.0	n/a	<>	n/a	-999	3	[0, 0, 0]	n/a	catFR1	4	R1672T
426.699	3.43	494264	REC_WORD_VV	3.43	n/a	<>	n/a	-999	3	[0, 0, 0]	n/a	catFR1	4	R1672T
430.129	1.0	497694	REC_WORD_VV	1.0	n/a	<>	n/a	-999	3	[0, 0, 0]	n/a	catFR1	4	R1672T
431.129	1.0	498694	REC_WORD_VV	1.0	n/a	<>	n/a	-999	3	[0, 0, 0]	n/a	catFR1	4	R1672T
432.129	1.944	499694	REC_WORD_VV	1.944	n/a	<>	n/a	-999	3	[0, 0, 0]	n/a	catFR1	4	R1672T
434.073	1.0	501638	REC_WORD_VV	1.0	n/a	<>	n/a	-999	3	[0, 0, 0]	n/a	catFR1	4	R1672T
435.073	0.827	502638	REC_WORD_VV	0.827	n/a	<>	n/a	-999	3	[0, 0, 0]	n/a	catFR1	4	R1672T
435.9	3.392	503465	TRIAL	n/a	n/a	n/a	n/a	-999	4	[0, 0, 0]	n/a	catFR1	4	R1672T
439.292	10.366	506857	COUNTDOWN	n/a	n/a	n/a	n/a	-999	4	[0, 0, 0]	n/a	catFR1	4	R1672T
449.658	2.084	517223	ENCODING_START	n/a	n/a	n/a	n/a	-999	4	[0, 0, 0]	n/a	catFR1	4	R1672T
451.742	2.433	519307	WORD	n/a	wordpools/wordpool_categorized_EN.txt	NIGHTSTAND	Furniture	1	4	[0, 0, 0]	n/a	catFR1	4	R1672T
454.175	2.615	521740	WORD	n/a	wordpools/wordpool_categorized_EN.txt	BED	Furniture	2	4	[0, 0, 0]	n/a	catFR1	4	R1672T
456.79	2.618	524355	WORD	n/a	wordpools/wordpool_categorized_EN.txt	CORKSCREW	KitchenTools	3	4	[0, 0, 0]	n/a	catFR1	4	R1672T
459.408	2.549	526973	WORD	n/a	wordpools/wordpool_categorized_EN.txt	GRATER	KitchenTools	4	4	[0, 0, 0]	n/a	catFR1	4	R1672T
461.957	2.518	529522	WORD	n/a	wordpools/wordpool_categorized_EN.txt	ISLAND	Landscapes	5	4	[0, 0, 0]	n/a	catFR1	4	R1672T
464.475	2.599	532040	WORD	n/a	wordpools/wordpool_categorized_EN.txt	STREAM	Landscapes	6	4	[0, 0, 0]	n/a	catFR1	4	R1672T
467.074	2.517	534639	WORD	n/a	wordpools/wordpool_categorized_EN.txt	WHISK	KitchenTools	7	4	[0, 0, 0]	n/a	catFR1	4	R1672T
469.591	2.533	537156	WORD	n/a	wordpools/wordpool_categorized_EN.txt	PEELER	KitchenTools	8	4	[0, 0, 0]	n/a	catFR1	4	R1672T
472.124	2.434	539689	WORD	n/a	wordpools/wordpool_categorized_EN.txt	SOFA	Furniture	9	4	[0, 0, 0]	n/a	catFR1	4	R1672T
474.558	2.516	542123	WORD	n/a	wordpools/wordpool_categorized_EN.txt	TABLE	Furniture	10	4	[0, 0, 0]	n/a	catFR1	4	R1672T
477.074	2.4	544639	WORD	n/a	wordpools/wordpool_categorized_EN.txt	WOODS	Landscapes	11	4	[0, 0, 0]	n/a	catFR1	4	R1672T
479.474	1.6	547039	WORD	n/a	wordpools/wordpool_categorized_EN.txt	MOUNTAIN	Landscapes	12	4	[0, 0, 0]	n/a	catFR1	4	R1672T
481.074	0.0	548639	DISTRACT_START	n/a	n/a	n/a	n/a	-999	4	[0, 0, 0]	n/a	catFR1	4	R1672T
481.074	8.532	548639	PROB	8.532	n/a	n/a	n/a	-999	4	[7, 6, 1]	14	catFR1	4	R1672T
489.606	3.784	557171	PROB	3.784	n/a	n/a	n/a	-999	4	[4, 4, 2]	10	catFR1	4	R1672T
493.39	4.184	560955	PROB	4.184	n/a	n/a	n/a	-999	4	[3, 8, 4]	15	catFR1	4	R1672T
497.574	6.145	565139	PROB	6.145	n/a	n/a	n/a	-999	4	[6, 2, 5]	13	catFR1	4	R1672T
503.719	0.025	571284	REC_START	n/a	n/a	n/a	n/a	-999	4	[0, 0, 0]	n/a	catFR1	4	R1672T
503.744	1.349	571309	REC_WORD	1.349	n/a	NIGHTSTAND	Furniture	1	4	[0, 0, 0]	n/a	catFR1	4	R1672T
505.093	1.484	572658	REC_WORD	1.484	n/a	WHISK	KitchenTools	7	4	[0, 0, 0]	n/a	catFR1	4	R1672T
506.577	2.533	574142	REC_WORD	2.533	n/a	STEAM	n/a	-999	4	[0, 0, 0]	n/a	catFR1	4	R1672T
509.11	2.249	576675	REC_WORD	2.249	n/a	PEELER	KitchenTools	8	4	[0, 0, 0]	n/a	catFR1	4	R1672T
511.359	2.548	578924	REC_WORD	2.548	n/a	GRATER	KitchenTools	4	4	[0, 0, 0]	n/a	catFR1	4	R1672T
513.907	3.458	581472	REC_WORD_VV	3.458	n/a	<>	n/a	-999	4	[0, 0, 0]	n/a	catFR1	4	R1672T
517.365	1.0	584930	REC_WORD_VV	1.0	n/a	<>	n/a	-999	4	[0, 0, 0]	n/a	catFR1	4	R1672T
518.365	1.804	585930	REC_WORD_VV	1.804	n/a	<>	n/a	-999	4	[0, 0, 0]	n/a	catFR1	4	R1672T
520.169	1.0	587734	REC_WORD_VV	1.0	n/a	<>	n/a	-999	4	[0, 0, 0]	n/a	catFR1	4	R1672T
521.169	11.115	588734	REC_WORD_VV	11.115	n/a	<>	n/a	-999	4	[0, 0, 0]	n/a	catFR1	4	R1672T
532.284	1.575	599849	REC_WORD_VV	1.575	n/a	<>	n/a	-999	4	[0, 0, 0]	n/a	catFR1	4	R1672T
533.859	1.745	601424	TRIAL	n/a	n/a	n/a	n/a	-999	5	[0, 0, 0]	n/a	catFR1	4	R1672T
535.604	10.35	603169	COUNTDOWN	n/a	n/a	n/a	n/a	-999	5	[0, 0, 0]	n/a	catFR1	4	R1672T
545.954	2.267	613519	ENCODING_START	n/a	n/a	n/a	n/a	-999	5	[0, 0, 0]	n/a	catFR1	4	R1672T
548.221	2.4	615786	WORD	n/a	wordpools/wordpool_categorized_EN.txt	FOG	Weather	1	5	[0, 0, 0]	n/a	catFR1	4	R1672T
550.621	2.416	618186	WORD	n/a	wordpools/wordpool_categorized_EN.txt	SNOW	Weather	2	5	[0, 0, 0]	n/a	catFR1	4	R1672T
553.037	2.433	620602	WORD	n/a	wordpools/wordpool_categorized_EN.txt	CHEESECAKE	Desserts	3	5	[0, 0, 0]	n/a	catFR1	4	R1672T
555.47	2.583	623035	WORD	n/a	wordpools/wordpool_categorized_EN.txt	CAKE	Desserts	4	5	[0, 0, 0]	n/a	catFR1	4	R1672T
558.053	2.434	625618	WORD	n/a	wordpools/wordpool_categorized_EN.txt	COMPUTER	Electronics	5	5	[0, 0, 0]	n/a	catFR1	4	R1672T
560.487	2.55	628052	WORD	n/a	wordpools/wordpool_categorized_EN.txt	PHONE	Electronics	6	5	[0, 0, 0]	n/a	catFR1	4	R1672T
563.037	2.583	630602	WORD	n/a	wordpools/wordpool_categorized_EN.txt	PIE	Desserts	7	5	[0, 0, 0]	n/a	catFR1	4	R1672T
565.62	2.416	633185	WORD	n/a	wordpools/wordpool_categorized_EN.txt	PUDDING	Desserts	8	5	[0, 0, 0]	n/a	catFR1	4	R1672T
568.036	2.566	635601	WORD	n/a	wordpools/wordpool_categorized_EN.txt	THUNDERSTORM	Weather	9	5	[0, 0, 0]	n/a	catFR1	4	R1672T
570.602	2.518	638167	WORD	n/a	wordpools/wordpool_categorized_EN.txt	LIGHTNING	Weather	10	5	[0, 0, 0]	n/a	catFR1	4	R1672T
573.12	2.482	640685	WORD	n/a	wordpools/wordpool_categorized_EN.txt	MICROWAVE	Electronics	11	5	[0, 0, 0]	n/a	catFR1	4	R1672T
575.602	1.601	643167	WORD	n/a	wordpools/wordpool_categorized_EN.txt	SPEAKER	Electronics	12	5	[0, 0, 0]	n/a	catFR1	4	R1672T
577.203	0.0	644768	DISTRACT_START	n/a	n/a	n/a	n/a	-999	5	[0, 0, 0]	n/a	catFR1	4	R1672T
577.203	7.916	644768	PROB	7.916	n/a	n/a	n/a	-999	5	[2, 8, 6]	16	catFR1	4	R1672T
585.119	8.982	652684	PROB	8.982	n/a	n/a	n/a	-999	5	[6, 6, 8]	20	catFR1	4	R1672T
594.101	7.094	661666	PROB	7.094	n/a	n/a	n/a	-999	5	[8, 4, 2]	14	catFR1	4	R1672T
601.195	0.583	668760	REC_START	n/a	n/a	n/a	n/a	-999	5	[0, 0, 0]	n/a	catFR1	4	R1672T
601.778	1.804	669343	REC_WORD	1.804	n/a	CHEESECAKE	Desserts	3	5	[0, 0, 0]	n/a	catFR1	4	R1672T
603.582	1.273	671147	REC_WORD	1.273	n/a	CAKE	Desserts	4	5	[0, 0, 0]	n/a	catFR1	4	R1672T
604.855	1.479	672420	REC_WORD	1.479	n/a	PIE	Desserts	7	5	[0, 0, 0]	n/a	catFR1	4	R1672T
606.334	1.934	673899	REC_WORD	1.934	n/a	PUDDING	Desserts	8	5	[0, 0, 0]	n/a	catFR1	4	R1672T
608.268	3.474	675833	REC_WORD	3.474	n/a	THUNDERSTORM	Weather	9	5	[0, 0, 0]	n/a	catFR1	4	R1672T
611.742	7.072	679307	REC_WORD	7.072	n/a	RAIN	Weather	-999	5	[0, 0, 0]	n/a	catFR1	4	R1672T
618.814	2.788	686379	REC_WORD_VV	2.788	n/a	<>	n/a	-999	5	[0, 0, 0]	n/a	catFR1	4	R1672T
621.602	6.651	689167	REC_WORD	6.651	n/a	MICROWAVE	Electronics	11	5	[0, 0, 0]	n/a	catFR1	4	R1672T
628.253	3.083	695818	REC_WORD_VV	3.083	n/a	<>	n/a	-999	5	[0, 0, 0]	n/a	catFR1	4	R1672T
631.336	0.947	698901	TRIAL	n/a	n/a	n/a	n/a	-999	6	[0, 0, 0]	n/a	catFR1	4	R1672T
632.283	10.349	699848	COUNTDOWN	n/a	n/a	n/a	n/a	-999	6	[0, 0, 0]	n/a	catFR1	4	R1672T
642.632	2.268	710197	ENCODING_START	n/a	n/a	n/a	n/a	-999	6	[0, 0, 0]	n/a	catFR1	4	R1672T
644.9	2.581	712465	WORD	n/a	wordpools/wordpool_categorized_EN.txt	LION	Zoo	1	6	[0, 0, 0]	n/a	catFR1	4	R1672T
647.481	2.534	715046	WORD	n/a	wordpools/wordpool_categorized_EN.txt	MONKEY	Zoo	2	6	[0, 0, 0]	n/a	catFR1	4	R1672T
650.015	2.368	717580	WORD	n/a	wordpools/wordpool_categorized_EN.txt	KNIFE	KitchenTools	3	6	[0, 0, 0]	n/a	catFR1	4	R1672T
652.383	2.449	719948	WORD	n/a	wordpools/wordpool_categorized_EN.txt	SPOON	KitchenTools	4	6	[0, 0, 0]	n/a	catFR1	4	R1672T
654.832	2.433	722397	WORD	n/a	wordpools/wordpool_categorized_EN.txt	FINGERS	BodyParts	5	6	[0, 0, 0]	n/a	catFR1	4	R1672T
657.265	2.55	724830	WORD	n/a	wordpools/wordpool_categorized_EN.txt	NOSE	BodyParts	6	6	[0, 0, 0]	n/a	catFR1	4	R1672T
659.815	2.433	727380	WORD	n/a	wordpools/wordpool_categorized_EN.txt	ORANGUTAN	Zoo	7	6	[0, 0, 0]	n/a	catFR1	4	R1672T
662.248	2.601	729813	WORD	n/a	wordpools/wordpool_categorized_EN.txt	TIGER	Zoo	8	6	[0, 0, 0]	n/a	catFR1	4	R1672T
664.849	2.466	732414	WORD	n/a	wordpools/wordpool_categorized_EN.txt	HEAD	BodyParts	9	6	[0, 0, 0]	n/a	catFR1	4	R1672T
667.315	2.482	734880	WORD	n/a	wordpools/wordpool_categorized_EN.txt	EYE	BodyParts	10	6	[0, 0, 0]	n/a	catFR1	4	R1672T
669.797	2.601	737362	WORD	n/a	wordpools/wordpool_categorized_EN.txt	LADLE	KitchenTools	11	6	[0, 0, 0]	n/a	catFR1	4	R1672T
672.398	1.618	739963	WORD	n/a	wordpools/wordpool_categorized_EN.txt	STRAINER	KitchenTools	12	6	[0, 0, 0]	n/a	catFR1	4	R1672T
674.016	0.0	741581	DISTRACT_START	n/a	n/a	n/a	n/a	-999	6	[0, 0, 0]	n/a	catFR1	4	R1672T
674.016	7.448	741581	PROB	7.448	n/a	n/a	n/a	-999	6	[4, 7, 3]	14	catFR1	4	R1672T
681.464	3.484	749029	PROB	3.484	n/a	n/a	n/a	-999	6	[1, 2, 1]	4	catFR1	4	R1672T
684.948	4.766	752513	PROB	4.766	n/a	n/a	n/a	-999	6	[7, 4, 7]	18	catFR1	4	R1672T
689.714	6.98	757279	PROB	6.98	n/a	n/a	n/a	-999	6	[2, 1, 1]	4	catFR1	4	R1672T
696.694	0.009	764259	REC_START	n/a	n/a	n/a	n/a	-999	6	[0, 0, 0]	n/a	catFR1	4	R1672T
696.703	1.111	764268	REC_WORD	1.111	n/a	LION	Zoo	1	6	[0, 0, 0]	n/a	catFR1	4	R1672T
697.814	1.276	765379	REC_WORD	1.276	n/a	MONKEY	Zoo	2	6	[0, 0, 0]	n/a	catFR1	4	R1672T
699.09	1.665	766655	REC_WORD	1.665	n/a	ORANGUTAN	Zoo	7	6	[0, 0, 0]	n/a	catFR1	4	R1672T
700.755	1.958	768320	REC_WORD	1.958	n/a	TIGER	Zoo	8	6	[0, 0, 0]	n/a	catFR1	4	R1672T
702.713	6.741	770278	REC_WORD	6.741	n/a	KNIFE	KitchenTools	3	6	[0, 0, 0]	n/a	catFR1	4	R1672T
709.454	9.755	777019	REC_WORD_VV	9.755	n/a	<>	n/a	-999	6	[0, 0, 0]	n/a	catFR1	4	R1672T
719.209	1.0	786774	REC_WORD_VV	1.0	n/a	<>	n/a	-999	6	[0, 0, 0]	n/a	catFR1	4	R1672T
720.209	6.629	787774	REC_WORD_VV	6.629	n/a	<>	n/a	-999	6	[0, 0, 0]	n/a	catFR1	4	R1672T
726.838	1.007	794403	TRIAL	n/a	n/a	n/a	n/a	-999	7	[0, 0, 0]	n/a	catFR1	4	R1672T
727.845	10.35	795410	COUNTDOWN	n/a	n/a	n/a	n/a	-999	7	[0, 0, 0]	n/a	catFR1	4	R1672T
738.195	2.3	805760	ENCODING_START	n/a	n/a	n/a	n/a	-999	7	[0, 0, 0]	n/a	catFR1	4	R1672T
740.495	2.432	808060	WORD	n/a	wordpools/wordpool_categorized_EN.txt	TABLET	Electronics	1	7	[0, 0, 0]	n/a	catFR1	4	R1672T
742.927	2.568	810492	WORD	n/a	wordpools/wordpool_categorized_EN.txt	RADIO	Electronics	2	7	[0, 0, 0]	n/a	catFR1	4	R1672T
745.495	2.433	813060	WORD	n/a	wordpools/wordpool_categorized_EN.txt	WATER	Beverages	3	7	[0, 0, 0]	n/a	catFR1	4	R1672T
747.928	2.383	815493	WORD	n/a	wordpools/wordpool_categorized_EN.txt	WINE	Beverages	4	7	[0, 0, 0]	n/a	catFR1	4	R1672T
750.311	2.6	817876	WORD	n/a	wordpools/wordpool_categorized_EN.txt	PINE	Trees	5	7	[0, 0, 0]	n/a	catFR1	4	R1672T
752.911	2.483	820476	WORD	n/a	wordpools/wordpool_categorized_EN.txt	WILLOW	Trees	6	7	[0, 0, 0]	n/a	catFR1	4	R1672T
755.394	2.584	822959	WORD	n/a	wordpools/wordpool_categorized_EN.txt	STEREO	Electronics	7	7	[0, 0, 0]	n/a	catFR1	4	R1672T
757.978	2.483	825543	WORD	n/a	wordpools/wordpool_categorized_EN.txt	CALCULATOR	Electronics	8	7	[0, 0, 0]	n/a	catFR1	4	R1672T
760.461	2.6	828026	WORD	n/a	wordpools/wordpool_categorized_EN.txt	CIDER	Beverages	9	7	[0, 0, 0]	n/a	catFR1	4	R1672T
763.061	2.566	830626	WORD	n/a	wordpools/wordpool_categorized_EN.txt	LEMONADE	Beverages	10	7	[0, 0, 0]	n/a	catFR1	4	R1672T
765.627	2.583	833192	WORD	n/a	wordpools/wordpool_categorized_EN.txt	CYPRESS	Trees	11	7	[0, 0, 0]	n/a	catFR1	4	R1672T
768.21	1.601	835775	WORD	n/a	wordpools/wordpool_categorized_EN.txt	ELM	Trees	12	7	[0, 0, 0]	n/a	catFR1	4	R1672T
769.811	0.001	837376	PROB	0.001	n/a	n/a	n/a	-999	7	[1, 7, 2]	10	catFR1	4	R1672T
769.812	10.615	837377	DISTRACT_START	n/a	n/a	n/a	n/a	-999	7	[0, 0, 0]	n/a	catFR1	4	R1672T
780.427	4.65	847992	PROB	4.65	n/a	n/a	n/a	-999	7	[6, 7, 1]	14	catFR1	4	R1672T
785.077	10.372	852642	PROB	10.372	n/a	n/a	n/a	-999	7	[6, 3, 5]	14	catFR1	4	R1672T
795.449	0.489	863014	REC_START	n/a	n/a	n/a	n/a	-999	7	[0, 0, 0]	n/a	catFR1	4	R1672T
795.938	1.377	863503	REC_WORD	1.377	n/a	WATER	Beverages	3	7	[0, 0, 0]	n/a	catFR1	4	R1672T
797.315	1.429	864880	REC_WORD	1.429	n/a	WINE	Beverages	4	7	[0, 0, 0]	n/a	catFR1	4	R1672T
798.744	1.86	866309	REC_WORD	1.86	n/a	WILLOW	Trees	6	7	[0, 0, 0]	n/a	catFR1	4	R1672T
800.604	1.857	868169	REC_WORD	1.857	n/a	CYPRESS	Trees	11	7	[0, 0, 0]	n/a	catFR1	4	R1672T
802.461	1.411	870026	REC_WORD	1.411	n/a	CEDAR	n/a	-999	7	[0, 0, 0]	n/a	catFR1	4	R1672T
803.872	1.892	871437	REC_WORD	1.892	n/a	ELM	Trees	12	7	[0, 0, 0]	n/a	catFR1	4	R1672T
805.764	19.829	873329	REC_WORD	19.829	n/a	SPRUCE	n/a	-999	7	[0, 0, 0]	n/a	catFR1	4	R1672T
825.593	1.381	893158	TRIAL	n/a	n/a	n/a	n/a	-999	8	[0, 0, 0]	n/a	catFR1	4	R1672T
826.974	10.367	894539	COUNTDOWN	n/a	n/a	n/a	n/a	-999	8	[0, 0, 0]	n/a	catFR1	4	R1672T
837.341	1.949	904906	ENCODING_START	n/a	n/a	n/a	n/a	-999	8	[0, 0, 0]	n/a	catFR1	4	R1672T
839.29	2.55	906855	WORD	n/a	wordpools/wordpool_categorized_EN.txt	OAK	Trees	1	8	[0, 0, 0]	n/a	catFR1	4	R1672T
841.84	2.501	909405	WORD	n/a	wordpools/wordpool_categorized_EN.txt	HICKORY	Trees	2	8	[0, 0, 0]	n/a	catFR1	4	R1672T
844.341	2.399	911906	WORD	n/a	wordpools/wordpool_categorized_EN.txt	WRENCH	Tools	3	8	[0, 0, 0]	n/a	catFR1	4	R1672T
846.74	2.517	914305	WORD	n/a	wordpools/wordpool_categorized_EN.txt	PLIERS	Tools	4	8	[0, 0, 0]	n/a	catFR1	4	R1672T
849.257	2.416	916822	WORD	n/a	wordpools/wordpool_categorized_EN.txt	FOOTBALL	Toys	5	8	[0, 0, 0]	n/a	catFR1	4	R1672T
851.673	2.484	919238	WORD	n/a	wordpools/wordpool_categorized_EN.txt	BASEBALL	Toys	6	8	[0, 0, 0]	n/a	catFR1	4	R1672T
854.157	2.516	921722	WORD	n/a	wordpools/wordpool_categorized_EN.txt	EVERGREEN	Trees	7	8	[0, 0, 0]	n/a	catFR1	4	R1672T
856.673	2.467	924238	WORD	n/a	wordpools/wordpool_categorized_EN.txt	WALNUT	Trees	8	8	[0, 0, 0]	n/a	catFR1	4	R1672T
859.14	2.499	926705	WORD	n/a	wordpools/wordpool_categorized_EN.txt	SAW	Tools	9	8	[0, 0, 0]	n/a	catFR1	4	R1672T
861.639	2.567	929204	WORD	n/a	wordpools/wordpool_categorized_EN.txt	SANDER	Tools	10	8	[0, 0, 0]	n/a	catFR1	4	R1672T
864.206	2.516	931771	WORD	n/a	wordpools/wordpool_categorized_EN.txt	DOLL	Toys	11	8	[0, 0, 0]	n/a	catFR1	4	R1672T
866.722	1.601	934287	WORD	n/a	wordpools/wordpool_categorized_EN.txt	SLINKY	Toys	12	8	[0, 0, 0]	n/a	catFR1	4	R1672T
868.323	0.001	935888	PROB	0.001	n/a	n/a	n/a	-999	8	[5, 5, 7]	17	catFR1	4	R1672T
868.324	9.731	935889	DISTRACT_START	n/a	n/a	n/a	n/a	-999	8	[0, 0, 0]	n/a	catFR1	4	R1672T
878.055	6.216	945620	PROB	6.216	n/a	n/a	n/a	-999	8	[5, 1, 2]	8	catFR1	4	R1672T
884.271	8.051	951836	PROB	8.051	n/a	n/a	n/a	-999	8	[1, 4, 7]	12	catFR1	4	R1672T
892.322	0.619	959887	REC_START	n/a	n/a	n/a	n/a	-999	8	[0, 0, 0]	n/a	catFR1	4	R1672T
892.941	1.291	960506	REC_WORD	1.291	n/a	OAK	Trees	1	8	[0, 0, 0]	n/a	catFR1	4	R1672T
894.232	1.809	961797	REC_WORD	1.809	n/a	EVERGREEN	Trees	7	8	[0, 0, 0]	n/a	catFR1	4	R1672T
896.041	2.023	963606	REC_WORD	2.023	n/a	WALNUT	Trees	8	8	[0, 0, 0]	n/a	catFR1	4	R1672T
898.064	1.746	965629	REC_WORD	1.746	n/a	SAW	Tools	9	8	[0, 0, 0]	n/a	catFR1	4	R1672T
899.81	1.481	967375	REC_WORD	1.481	n/a	SANDER	Tools	10	8	[0, 0, 0]	n/a	catFR1	4	R1672T
901.291	21.174	968856	REC_WORD	21.174	n/a	SLINKY	Toys	12	8	[0, 0, 0]	n/a	catFR1	4	R1672T
922.465	1.338	990030	TRIAL	n/a	n/a	n/a	n/a	-999	9	[0, 0, 0]	n/a	catFR1	4	R1672T
923.803	10.35	991368	COUNTDOWN	n/a	n/a	n/a	n/a	-999	9	[0, 0, 0]	n/a	catFR1	4	R1672T
934.153	2.016	1001718	ENCODING_START	n/a	n/a	n/a	n/a	-999	9	[0, 0, 0]	n/a	catFR1	4	R1672T
936.169	2.433	1003734	WORD	n/a	wordpools/wordpool_categorized_EN.txt	TOE	BodyParts	1	9	[0, 0, 0]	n/a	catFR1	4	R1672T
938.602	2.401	1006167	WORD	n/a	wordpools/wordpool_categorized_EN.txt	ARM	BodyParts	2	9	[0, 0, 0]	n/a	catFR1	4	R1672T
941.003	2.449	1008568	WORD	n/a	wordpools/wordpool_categorized_EN.txt	ELEPHANT	Zoo	3	9	[0, 0, 0]	n/a	catFR1	4	R1672T
943.452	2.484	1011017	WORD	n/a	wordpools/wordpool_categorized_EN.txt	GORILLA	Zoo	4	9	[0, 0, 0]	n/a	catFR1	4	R1672T
945.936	2.566	1013501	WORD	n/a	wordpools/wordpool_categorized_EN.txt	WINDOW	Building	5	9	[0, 0, 0]	n/a	catFR1	4	R1672T
948.502	2.401	1016067	WORD	n/a	wordpools/wordpool_categorized_EN.txt	ROOM	Building	6	9	[0, 0, 0]	n/a	catFR1	4	R1672T
950.903	2.482	1018468	WORD	n/a	wordpools/wordpool_categorized_EN.txt	HAND	BodyParts	7	9	[0, 0, 0]	n/a	catFR1	4	R1672T
953.385	2.432	1020950	WORD	n/a	wordpools/wordpool_categorized_EN.txt	FOOT	BodyParts	8	9	[0, 0, 0]	n/a	catFR1	4	R1672T
955.817	2.418	1023382	WORD	n/a	wordpools/wordpool_categorized_EN.txt	CHEETAH	Zoo	9	9	[0, 0, 0]	n/a	catFR1	4	R1672T
958.235	2.399	1025800	WORD	n/a	wordpools/wordpool_categorized_EN.txt	CHIMPANZEE	Zoo	10	9	[0, 0, 0]	n/a	catFR1	4	R1672T
960.634	2.418	1028199	WORD	n/a	wordpools/wordpool_categorized_EN.txt	STAIRS	Building	11	9	[0, 0, 0]	n/a	catFR1	4	R1672T
963.052	1.617	1030617	WORD	n/a	wordpools/wordpool_categorized_EN.txt	CEILING	Building	12	9	[0, 0, 0]	n/a	catFR1	4	R1672T
964.669	0.0	1032234	DISTRACT_START	n/a	n/a	n/a	n/a	-999	9	[0, 0, 0]	n/a	catFR1	4	R1672T
964.669	11.247	1032234	PROB	11.247	n/a	n/a	n/a	-999	9	[5, 8, 2]	15	catFR1	4	R1672T
975.916	3.301	1043481	PROB	3.301	n/a	n/a	n/a	-999	9	[5, 1, 2]	8	catFR1	4	R1672T
979.217	5.217	1046782	PROB	5.217	n/a	n/a	n/a	-999	9	[8, 3, 4]	15	catFR1	4	R1672T
984.434	11.692	1051999	PROB	11.692	n/a	n/a	n/a	-999	9	[5, 1, 8]	14	catFR1	4	R1672T
996.126	0.381	1063691	REC_START	n/a	n/a	n/a	n/a	-999	9	[0, 0, 0]	n/a	catFR1	4	R1672T
996.507	1.023	1064072	REC_WORD	1.023	n/a	ARM	BodyParts	2	9	[0, 0, 0]	n/a	catFR1	4	R1672T
997.53	1.493	1065095	REC_WORD	1.493	n/a	HAND	BodyParts	7	9	[0, 0, 0]	n/a	catFR1	4	R1672T
999.023	1.288	1066588	REC_WORD	1.288	n/a	FOOT	BodyParts	8	9	[0, 0, 0]	n/a	catFR1	4	R1672T
1000.311	2.494	1067876	REC_WORD	2.494	n/a	TOE	BodyParts	1	9	[0, 0, 0]	n/a	catFR1	4	R1672T
1002.805	2.497	1070370	REC_WORD	2.497	n/a	CHEETAH	Zoo	9	9	[0, 0, 0]	n/a	catFR1	4	R1672T
1005.302	4.674	1072867	REC_WORD	4.674	n/a	CHIMPANZEE	Zoo	10	9	[0, 0, 0]	n/a	catFR1	4	R1672T
1009.976	1.0	1077541	REC_WORD_VV	1.0	n/a	<>	n/a	-999	9	[0, 0, 0]	n/a	catFR1	4	R1672T
1010.976	1.0	1078541	REC_WORD_VV	1.0	n/a	<>	n/a	-999	9	[0, 0, 0]	n/a	catFR1	4	R1672T
1011.976	10.418	1079541	REC_WORD_VV	10.418	n/a	<>	n/a	-999	9	[0, 0, 0]	n/a	catFR1	4	R1672T
1022.394	0.578	1089959	REC_WORD	0.578	n/a	GORILLA	Zoo	4	9	[0, 0, 0]	n/a	catFR1	4	R1672T
1022.972	0.381	1090537	REC_WORD_VV	0.381	n/a	<>	n/a	-999	9	[0, 0, 0]	n/a	catFR1	4	R1672T
1023.353	2.013	1090918	REC_WORD	2.013	n/a	GORILLA	Zoo	4	9	[0, 0, 0]	n/a	catFR1	4	R1672T
1025.366	0.262	1092931	REC_WORD	0.262	n/a	ARM	BodyParts	2	9	[0, 0, 0]	n/a	catFR1	4	R1672T
1025.628	0.384	1093193	REC_WORD	0.384	n/a	HAND	BodyParts	7	9	[0, 0, 0]	n/a	catFR1	4	R1672T
1026.012	0.262	1093577	REC_WORD	0.262	n/a	FOOT	BodyParts	8	9	[0, 0, 0]	n/a	catFR1	4	R1672T
1026.274	11.274	1093839	TRIAL	n/a	n/a	n/a	n/a	-999	10	[0, 0, 0]	n/a	catFR1	4	R1672T
1037.548	10.349	1105113	COUNTDOWN	n/a	n/a	n/a	n/a	-999	10	[0, 0, 0]	n/a	catFR1	4	R1672T
1047.897	2.101	1115462	ENCODING_START	n/a	n/a	n/a	n/a	-999	10	[0, 0, 0]	n/a	catFR1	4	R1672T
1049.998	2.465	1117563	WORD	n/a	wordpools/wordpool_categorized_EN.txt	MIXER	Appliances	1	10	[0, 0, 0]	n/a	catFR1	4	R1672T
1052.463	2.567	1120028	WORD	n/a	wordpools/wordpool_categorized_EN.txt	BLENDER	Appliances	2	10	[0, 0, 0]	n/a	catFR1	4	R1672T
1055.03	2.616	1122595	WORD	n/a	wordpools/wordpool_categorized_EN.txt	COUCH	Furniture	3	10	[0, 0, 0]	n/a	catFR1	4	R1672T
1057.646	2.535	1125211	WORD	n/a	wordpools/wordpool_categorized_EN.txt	CHAIR	Furniture	4	10	[0, 0, 0]	n/a	catFR1	4	R1672T
1060.181	2.599	1127746	WORD	n/a	wordpools/wordpool_categorized_EN.txt	SHEEP	FarmAnimals	5	10	[0, 0, 0]	n/a	catFR1	4	R1672T
1062.78	2.599	1130345	WORD	n/a	wordpools/wordpool_categorized_EN.txt	TURKEY	FarmAnimals	6	10	[0, 0, 0]	n/a	catFR1	4	R1672T
1065.379	2.501	1132944	WORD	n/a	wordpools/wordpool_categorized_EN.txt	IRON	Appliances	7	10	[0, 0, 0]	n/a	catFR1	4	R1672T
1067.88	2.615	1135445	WORD	n/a	wordpools/wordpool_categorized_EN.txt	OVEN	Appliances	8	10	[0, 0, 0]	n/a	catFR1	4	R1672T
1070.495	2.468	1138060	WORD	n/a	wordpools/wordpool_categorized_EN.txt	PIG	FarmAnimals	9	10	[0, 0, 0]	n/a	catFR1	4	R1672T
1072.963	2.6	1140528	WORD	n/a	wordpools/wordpool_categorized_EN.txt	GOAT	FarmAnimals	10	10	[0, 0, 0]	n/a	catFR1	4	R1672T
1075.563	2.5	1143128	WORD	n/a	wordpools/wordpool_categorized_EN.txt	RECLINER	Furniture	11	10	[0, 0, 0]	n/a	catFR1	4	R1672T
1078.063	1.617	1145628	WORD	n/a	wordpools/wordpool_categorized_EN.txt	DRESSER	Furniture	12	10	[0, 0, 0]	n/a	catFR1	4	R1672T
1079.68	0.0	1147245	DISTRACT_START	n/a	n/a	n/a	n/a	-999	10	[0, 0, 0]	n/a	catFR1	4	R1672T
1079.68	8.183	1147245	PROB	8.183	n/a	n/a	n/a	-999	10	[7, 1, 4]	12	catFR1	4	R1672T
1087.863	5.733	1155428	PROB	5.733	n/a	n/a	n/a	-999	10	[2, 5, 8]	15	catFR1	4	R1672T
1093.596	3.883	1161161	PROB	3.883	n/a	n/a	n/a	-999	10	[5, 2, 2]	9	catFR1	4	R1672T
1097.479	9.095	1165044	PROB	9.095	n/a	n/a	n/a	-999	10	[4, 8, 1]	13	catFR1	4	R1672T
1106.574	0.0	1174139	REC_START	n/a	n/a	n/a	n/a	-999	10	[0, 0, 0]	n/a	catFR1	4	R1672T
1106.574	1.502	1174139	REC_WORD	1.502	n/a	MIXER	Appliances	1	10	[0, 0, 0]	n/a	catFR1	4	R1672T
1108.076	1.356	1175641	REC_WORD	1.356	n/a	BLENDER	Appliances	2	10	[0, 0, 0]	n/a	catFR1	4	R1672T
1109.432	1.555	1176997	REC_WORD	1.555	n/a	COUCH	Furniture	3	10	[0, 0, 0]	n/a	catFR1	4	R1672T
1110.987	3.591	1178552	REC_WORD	3.591	n/a	OVEN	Appliances	8	10	[0, 0, 0]	n/a	catFR1	4	R1672T
1114.578	1.523	1182143	REC_WORD_VV	1.523	n/a	<>	n/a	-999	10	[0, 0, 0]	n/a	catFR1	4	R1672T
1116.101	12.068	1183666	REC_WORD	12.068	n/a	DRESSER	Furniture	12	10	[0, 0, 0]	n/a	catFR1	4	R1672T
1128.169	8.547	1195734	REC_WORD	8.547	n/a	IRON	Appliances	7	10	[0, 0, 0]	n/a	catFR1	4	R1672T
1136.716	2.361	1204281	TRIAL	n/a	n/a	n/a	n/a	-999	11	[0, 0, 0]	n/a	catFR1	4	R1672T
1139.077	10.349	1206642	COUNTDOWN	n/a	n/a	n/a	n/a	-999	11	[0, 0, 0]	n/a	catFR1	4	R1672T
1149.426	1.982	1216991	ENCODING_START	n/a	n/a	n/a	n/a	-999	11	[0, 0, 0]	n/a	catFR1	4	R1672T
1151.408	2.518	1218973	WORD	n/a	wordpools/wordpool_categorized_EN.txt	FOREST	Landscapes	1	11	[0, 0, 0]	n/a	catFR1	4	R1672T
1153.926	2.55	1221491	WORD	n/a	wordpools/wordpool_categorized_EN.txt	VALLEY	Landscapes	2	11	[0, 0, 0]	n/a	catFR1	4	R1672T
1156.476	2.516	1224041	WORD	n/a	wordpools/wordpool_categorized_EN.txt	VACUUM	Appliances	3	11	[0, 0, 0]	n/a	catFR1	4	R1672T
1158.992	2.534	1226557	WORD	n/a	wordpools/wordpool_categorized_EN.txt	WASHER	Appliances	4	11	[0, 0, 0]	n/a	catFR1	4	R1672T
1161.526	2.516	1229091	WORD	n/a	wordpools/wordpool_categorized_EN.txt	BOOKCASE	Furniture	5	11	[0, 0, 0]	n/a	catFR1	4	R1672T
1164.042	2.499	1231607	WORD	n/a	wordpools/wordpool_categorized_EN.txt	CABINET	Furniture	6	11	[0, 0, 0]	n/a	catFR1	4	R1672T
1166.541	2.385	1234106	WORD	n/a	wordpools/wordpool_categorized_EN.txt	BEACH	Landscapes	7	11	[0, 0, 0]	n/a	catFR1	4	R1672T
1168.926	2.5	1236491	WORD	n/a	wordpools/wordpool_categorized_EN.txt	CREEK	Landscapes	8	11	[0, 0, 0]	n/a	catFR1	4	R1672T
1171.426	2.566	1238991	WORD	n/a	wordpools/wordpool_categorized_EN.txt	DESK	Furniture	9	11	[0, 0, 0]	n/a	catFR1	4	R1672T
1173.992	2.516	1241557	WORD	n/a	wordpools/wordpool_categorized_EN.txt	SHELF	Furniture	10	11	[0, 0, 0]	n/a	catFR1	4	R1672T
1176.508	2.482	1244073	WORD	n/a	wordpools/wordpool_categorized_EN.txt	REFRIGERATOR	Appliances	11	11	[0, 0, 0]	n/a	catFR1	4	R1672T
1178.99	1.619	1246555	WORD	n/a	wordpools/wordpool_categorized_EN.txt	DISHWASHER	Appliances	12	11	[0, 0, 0]	n/a	catFR1	4	R1672T
1180.609	0.001	1248174	PROB	0.001	n/a	n/a	n/a	-999	11	[6, 8, 3]	17	catFR1	4	R1672T
1180.61	8.464	1248175	DISTRACT_START	n/a	n/a	n/a	n/a	-999	11	[0, 0, 0]	n/a	catFR1	4	R1672T
1189.074	7.217	1256639	PROB	7.217	n/a	n/a	n/a	-999	11	[1, 7, 5]	13	catFR1	4	R1672T
1196.291	7.988	1263856	PROB	7.988	n/a	n/a	n/a	-999	11	[4, 4, 2]	10	catFR1	4	R1672T
1204.279	0.0	1271844	REC_WORD_VV	0.0	n/a	<>	n/a	-999	11	[0, 0, 0]	n/a	catFR1	4	R1672T
1204.279	1.0	1271844	REC_START	n/a	n/a	n/a	n/a	-999	11	[0, 0, 0]	n/a	catFR1	4	R1672T
1205.279	0.219	1272844	REC_WORD_VV	0.219	n/a	<>	n/a	-999	11	[0, 0, 0]	n/a	catFR1	4	R1672T
1205.498	1.076	1273063	REC_WORD	1.076	n/a	REFRIGERATOR	Appliances	11	11	[0, 0, 0]	n/a	catFR1	4	R1672T
1206.574	0.33	1274139	REC_WORD_VV	0.33	n/a	<>	n/a	-999	11	[0, 0, 0]	n/a	catFR1	4	R1672T
1206.904	1.989	1274469	REC_WORD	1.989	n/a	DISHWASHER	Appliances	12	11	[0, 0, 0]	n/a	catFR1	4	R1672T
1208.893	1.0	1276458	REC_WORD_VV	1.0	n/a	<>	n/a	-999	11	[0, 0, 0]	n/a	catFR1	4	R1672T
1209.893	1.0	1277458	REC_WORD_VV	1.0	n/a	<>	n/a	-999	11	[0, 0, 0]	n/a	catFR1	4	R1672T
1210.893	1.0	1278458	REC_WORD_VV	1.0	n/a	<>	n/a	-999	11	[0, 0, 0]	n/a	catFR1	4	R1672T
1211.893	1.0	1279458	REC_WORD_VV	1.0	n/a	<>	n/a	-999	11	[0, 0, 0]	n/a	catFR1	4	R1672T
1212.893	1.0	1280458	REC_WORD_VV	1.0	n/a	<>	n/a	-999	11	[0, 0, 0]	n/a	catFR1	4	R1672T
1213.893	1.0	1281458	REC_WORD_VV	1.0	n/a	<>	n/a	-999	11	[0, 0, 0]	n/a	catFR1	4	R1672T
1214.893	1.0	1282458	REC_WORD_VV	1.0	n/a	<>	n/a	-999	11	[0, 0, 0]	n/a	catFR1	4	R1672T
1215.893	1.0	1283458	REC_WORD_VV	1.0	n/a	<>	n/a	-999	11	[0, 0, 0]	n/a	catFR1	4	R1672T
1216.893	17.522	1284458	REC_WORD_VV	17.522	n/a	<>	n/a	-999	11	[0, 0, 0]	n/a	catFR1	4	R1672T
1234.415	0.857	1301980	TRIAL	n/a	n/a	n/a	n/a	-999	12	[0, 0, 0]	n/a	catFR1	4	R1672T
1235.272	10.349	1302837	COUNTDOWN	n/a	n/a	n/a	n/a	-999	12	[0, 0, 0]	n/a	catFR1	4	R1672T
1245.621	1.966	1313186	ENCODING_START	n/a	n/a	n/a	n/a	-999	12	[0, 0, 0]	n/a	catFR1	4	R1672T
1247.587	2.518	1315152	WORD	n/a	wordpools/wordpool_categorized_EN.txt	HUMIDITY	Weather	1	12	[0, 0, 0]	n/a	catFR1	4	R1672T
1250.105	2.483	1317670	WORD	n/a	wordpools/wordpool_categorized_EN.txt	DRIZZLE	Weather	2	12	[0, 0, 0]	n/a	catFR1	4	R1672T
1252.588	2.467	1320153	WORD	n/a	wordpools/wordpool_categorized_EN.txt	BULL	FarmAnimals	3	12	[0, 0, 0]	n/a	catFR1	4	R1672T
1255.055	2.483	1322620	WORD	n/a	wordpools/wordpool_categorized_EN.txt	CHICKEN	FarmAnimals	4	12	[0, 0, 0]	n/a	catFR1	4	R1672T
1257.538	2.5	1325103	WORD	n/a	wordpools/wordpool_categorized_EN.txt	KNEE	BodyParts	5	12	[0, 0, 0]	n/a	catFR1	4	R1672T
1260.038	2.534	1327603	WORD	n/a	wordpools/wordpool_categorized_EN.txt	LEG	BodyParts	6	12	[0, 0, 0]	n/a	catFR1	4	R1672T
1262.572	2.6	1330137	WORD	n/a	wordpools/wordpool_categorized_EN.txt	COW	FarmAnimals	7	12	[0, 0, 0]	n/a	catFR1	4	R1672T
1265.172	2.532	1332737	WORD	n/a	wordpools/wordpool_categorized_EN.txt	CALF	FarmAnimals	8	12	[0, 0, 0]	n/a	catFR1	4	R1672T
1267.704	2.433	1335269	WORD	n/a	wordpools/wordpool_categorized_EN.txt	CLOUD	Weather	9	12	[0, 0, 0]	n/a	catFR1	4	R1672T
1270.137	2.466	1337702	WORD	n/a	wordpools/wordpool_categorized_EN.txt	TORNADO	Weather	10	12	[0, 0, 0]	n/a	catFR1	4	R1672T
1272.603	2.568	1340168	WORD	n/a	wordpools/wordpool_categorized_EN.txt	ELBOW	BodyParts	11	12	[0, 0, 0]	n/a	catFR1	4	R1672T
1275.171	1.6	1342736	WORD	n/a	wordpools/wordpool_categorized_EN.txt	EAR	BodyParts	12	12	[0, 0, 0]	n/a	catFR1	4	R1672T
1276.771	0.001	1344336	PROB	0.001	n/a	n/a	n/a	-999	12	[4, 7, 3]	14	catFR1	4	R1672T
1276.772	8.832	1344337	DISTRACT_START	n/a	n/a	n/a	n/a	-999	12	[0, 0, 0]	n/a	catFR1	4	R1672T
1285.604	6.867	1353169	PROB	6.867	n/a	n/a	n/a	-999	12	[5, 1, 7]	13	catFR1	4	R1672T
1292.471	7.351	1360036	PROB	7.351	n/a	n/a	n/a	-999	12	[5, 6, 3]	13	catFR1	4	R1672T
1299.822	0.449	1367387	REC_START	n/a	n/a	n/a	n/a	-999	12	[0, 0, 0]	n/a	catFR1	4	R1672T
1300.271	0.987	1367836	REC_WORD	0.987	n/a	BULL	FarmAnimals	3	12	[0, 0, 0]	n/a	catFR1	4	R1672T
1301.258	1.238	1368823	REC_WORD	1.238	n/a	CHICKEN	FarmAnimals	4	12	[0, 0, 0]	n/a	catFR1	4	R1672T
1302.496	1.408	1370061	REC_WORD	1.408	n/a	KNEE	BodyParts	5	12	[0, 0, 0]	n/a	catFR1	4	R1672T
1303.904	1.672	1371469	REC_WORD	1.672	n/a	LEG	BodyParts	6	12	[0, 0, 0]	n/a	catFR1	4	R1672T
1305.576	1.31	1373141	REC_WORD	1.31	n/a	CALF	FarmAnimals	8	12	[0, 0, 0]	n/a	catFR1	4	R1672T
1306.886	0.857	1374451	REC_WORD	0.857	n/a	ELBOW	BodyParts	11	12	[0, 0, 0]	n/a	catFR1	4	R1672T
1307.743	0.25	1375308	REC_WORD_VV	0.25	n/a	<>	n/a	-999	12	[0, 0, 0]	n/a	catFR1	4	R1672T
1307.993	3.541	1375558	REC_WORD	3.541	n/a	EAR	BodyParts	12	12	[0, 0, 0]	n/a	catFR1	4	R1672T
1311.534	1.0	1379099	REC_WORD_VV	1.0	n/a	<>	n/a	-999	12	[0, 0, 0]	n/a	catFR1	4	R1672T
1312.534	1.0	1380099	REC_WORD_VV	1.0	n/a	<>	n/a	-999	12	[0, 0, 0]	n/a	catFR1	4	R1672T
1313.534	0.977	1381099	REC_WORD_VV	0.977	n/a	<>	n/a	-999	12	[0, 0, 0]	n/a	catFR1	4	R1672T
1314.511	0.32	1382076	REC_WORD	0.32	n/a	BULL	FarmAnimals	3	12	[0, 0, 0]	n/a	catFR1	4	R1672T
1314.831	0.449	1382396	REC_WORD	0.449	n/a	CHICKEN	FarmAnimals	4	12	[0, 0, 0]	n/a	catFR1	4	R1672T
1315.28	0.38	1382845	REC_WORD	0.38	n/a	KNEE	BodyParts	5	12	[0, 0, 0]	n/a	catFR1	4	R1672T
1315.66	0.426	1383225	REC_WORD	0.426	n/a	LEG	BodyParts	6	12	[0, 0, 0]	n/a	catFR1	4	R1672T
1316.086	0.475	1383651	REC_WORD	0.475	n/a	CALF	FarmAnimals	8	12	[0, 0, 0]	n/a	catFR1	4	R1672T
1316.561	0.401	1384126	REC_WORD	0.401	n/a	ELBOW	BodyParts	11	12	[0, 0, 0]	n/a	catFR1	4	R1672T
1316.962	0.843	1384527	REC_WORD	0.843	n/a	EAR	BodyParts	12	12	[0, 0, 0]	n/a	catFR1	4	R1672T
1317.805	0.307	1385370	REC_WORD	0.307	n/a	BULL	FarmAnimals	3	12	[0, 0, 0]	n/a	catFR1	4	R1672T
1318.112	0.416	1385677	REC_WORD	0.416	n/a	CHICKEN	FarmAnimals	4	12	[0, 0, 0]	n/a	catFR1	4	R1672T
1318.528	0.258	1386093	REC_WORD	0.258	n/a	KNEE	BodyParts	5	12	[0, 0, 0]	n/a	catFR1	4	R1672T
1318.786	0.324	1386351	REC_WORD	0.324	n/a	LEG	BodyParts	6	12	[0, 0, 0]	n/a	catFR1	4	R1672T
1319.11	1.0	1386675	REC_WORD_VV	1.0	n/a	<>	n/a	-999	12	[0, 0, 0]	n/a	catFR1	4	R1672T
1320.11	1.0	1387675	REC_WORD_VV	1.0	n/a	<>	n/a	-999	12	[0, 0, 0]	n/a	catFR1	4	R1672T
1321.11	8.853	1388675	REC_WORD_VV	8.853	n/a	<>	n/a	-999	12	[0, 0, 0]	n/a	catFR1	4	R1672T
1329.963	0.0	1397528	SESS_END	n/a	n/a	n/a	n/a	-999	12	[0, 0, 0]	n/a	catFR1	4	R1672T
