onset	duration	sample	trial_type	response_time	stim_file	item_name	category	serialpos	list	test	answer	experiment	session	subject
0.0	19.97	51226	SESS_START	n/a	n/a	n/a	n/a	-999	-999	[0, 0, 0]	n/a	catFR1	1	R1065J
19.97	10.428	71196	COUNTDOWN_START	n/a	n/a	n/a	n/a	-999	-999	[0, 0, 0]	n/a	catFR1	1	R1065J
30.398	3.741	81624	COUNTDOWN_END	n/a	n/a	n/a	n/a	-999	-999	[0, 0, 0]	n/a	catFR1	1	R1065J
34.139	2.484	85365	PRACTICE_WORD	n/a	n/a	WAGON	n/a	-999	-999	[0, 0, 0]	n/a	catFR1	1	R1065J
36.623	2.55	87849	PRACTICE_WORD	n/a	n/a	CHEST	n/a	-999	-999	[0, 0, 0]	n/a	catFR1	1	R1065J
39.173	2.5	90399	PRACTICE_WORD	n/a	n/a	IRON	n/a	-999	-999	[0, 0, 0]	n/a	catFR1	1	R1065J
41.673	2.401	92899	PRACTICE_WORD	n/a	n/a	COTTON	n/a	-999	-999	[0, 0, 0]	n/a	catFR1	1	R1065J
44.074	2.399	95300	PRACTICE_WORD	n/a	n/a	FLOOD	n/a	-999	-999	[0, 0, 0]	n/a	catFR1	1	R1065J
46.473	2.435	97699	PRACTICE_WORD	n/a	n/a	BEAM	n/a	-999	-999	[0, 0, 0]	n/a	catFR1	1	R1065J
48.908	2.56	100134	PRACTICE_WORD	n/a	n/a	CAMEL	n/a	-999	-999	[0, 0, 0]	n/a	catFR1	1	R1065J
51.468	2.452	102694	PRACTICE_WORD	n/a	n/a	RING	n/a	-999	-999	[0, 0, 0]	n/a	catFR1	1	R1065J
53.92	2.434	105146	PRACTICE_WORD	n/a	n/a	ATTIC	n/a	-999	-999	[0, 0, 0]	n/a	catFR1	1	R1065J
56.354	2.583	107580	PRACTICE_WORD	n/a	n/a	TONGUE	n/a	-999	-999	[0, 0, 0]	n/a	catFR1	1	R1065J
58.937	2.433	110163	PRACTICE_WORD	n/a	n/a	RHINO	n/a	-999	-999	[0, 0, 0]	n/a	catFR1	1	R1065J
61.37	1.618	112596	PRACTICE_WORD	n/a	n/a	WATCH	n/a	-999	-999	[0, 0, 0]	n/a	catFR1	1	R1065J
62.988	0.0	114214	PRACTICE_DISTRACT_START	n/a	n/a	n/a	n/a	-999	-999	[0, 0, 0]	n/a	catFR1	1	R1065J
62.988	0.017	114214	START	n/a	n/a	n/a	n/a	-999	-1	[-999, -999, -999]	n/a	catFR1	1	R1065J
63.005	2.499	114231	PROB	2.473	n/a	n/a	n/a	-999	-1	[3, 1, 7]	11.0	catFR1	1	R1065J
65.504	1.535	116730	PROB	1.503	n/a	n/a	n/a	-999	-1	[1, 4, 1]	6.0	catFR1	1	R1065J
67.039	1.666	118265	PROB	1.64	n/a	n/a	n/a	-999	-1	[6, 6, 8]	20.0	catFR1	1	R1065J
68.705	2.284	119931	PROB	2.261	n/a	n/a	n/a	-999	-1	[6, 3, 8]	17.0	catFR1	1	R1065J
70.989	1.65	122215	PROB	1.618	n/a	n/a	n/a	-999	-1	[3, 6, 2]	11.0	catFR1	1	R1065J
72.639	2.001	123865	PROB	1.976	n/a	n/a	n/a	-999	-1	[8, 3, 7]	18.0	catFR1	1	R1065J
74.64	2.167	125866	PROB	2.143	n/a	n/a	n/a	-999	-1	[6, 7, 6]	19.0	catFR1	1	R1065J
76.807	1.884	128033	PROB	1.856	n/a	n/a	n/a	-999	-1	[5, 3, 7]	15.0	catFR1	1	R1065J
78.691	1.883	129917	PROB	1.85	n/a	n/a	n/a	-999	-1	[6, 8, 1]	15.0	catFR1	1	R1065J
80.574	2.417	131800	PROB	2.392	n/a	n/a	n/a	-999	-1	[1, 2, 5]	8.0	catFR1	1	R1065J
82.991	2.128	134217	PROB	2.128	n/a	n/a	n/a	-999	-1	[6, 2, 1]	9.0	catFR1	1	R1065J
85.119	0.006	136345	STOP	n/a	n/a	n/a	n/a	-999	-1	[-999, -999, -999]	n/a	catFR1	1	R1065J
85.125	0.552	136351	PRACTICE_DISTRACT_END	n/a	n/a	n/a	n/a	-999	-999	[0, 0, 0]	n/a	catFR1	1	R1065J
85.677	30.515	136903	PRACTICE_REC_START	n/a	n/a	n/a	n/a	-999	-999	[0, 0, 0]	n/a	catFR1	1	R1065J
116.192	3.32	167418	PRACTICE_REC_END	n/a	n/a	n/a	n/a	-999	-999	[0, 0, 0]	n/a	catFR1	1	R1065J
119.512	0.0	170738	COUNTDOWN_START	n/a	n/a	n/a	n/a	-999	1	[0, 0, 0]	n/a	catFR1	1	R1065J
119.512	10.428	170738	TRIAL	n/a	n/a	n/a	n/a	-999	1	[0, 0, 0]	n/a	catFR1	1	R1065J
129.94	0.008	181167	COUNTDOWN_END	n/a	n/a	n/a	n/a	-999	1	[0, 0, 0]	n/a	catFR1	1	R1065J
129.948	3.917	181175	ORIENT	n/a	n/a	n/a	n/a	-999	1	[0, 0, 0]	n/a	catFR1	1	R1065J
133.865	2.566	185092	WORD	n/a	wordpools/wordpool_categorized_EN.txt	DESK	Furniture	1	1	[0, 0, 0]	n/a	catFR1	1	R1065J
136.431	2.385	187658	WORD	n/a	wordpools/wordpool_categorized_EN.txt	SOFA	Furniture	2	1	[0, 0, 0]	n/a	catFR1	1	R1065J
138.816	2.549	190043	WORD	n/a	wordpools/wordpool_categorized_EN.txt	TURTLE	OceanAnimals	3	1	[0, 0, 0]	n/a	catFR1	1	R1065J
141.365	2.518	192592	WORD	n/a	wordpools/wordpool_categorized_EN.txt	DOLPHIN	OceanAnimals	4	1	[0, 0, 0]	n/a	catFR1	1	R1065J
143.883	2.483	195110	WORD	n/a	wordpools/wordpool_categorized_EN.txt	HILLS	Landscapes	5	1	[0, 0, 0]	n/a	catFR1	1	R1065J
146.366	2.468	197593	WORD	n/a	wordpools/wordpool_categorized_EN.txt	BEACH	Landscapes	6	1	[0, 0, 0]	n/a	catFR1	1	R1065J
148.834	2.45	200061	WORD	n/a	wordpools/wordpool_categorized_EN.txt	FISH	OceanAnimals	7	1	[0, 0, 0]	n/a	catFR1	1	R1065J
151.284	2.584	202511	WORD	n/a	wordpools/wordpool_categorized_EN.txt	SHRIMP	OceanAnimals	8	1	[0, 0, 0]	n/a	catFR1	1	R1065J
153.868	2.516	205095	WORD	n/a	wordpools/wordpool_categorized_EN.txt	RECLINER	Furniture	9	1	[0, 0, 0]	n/a	catFR1	1	R1065J
156.384	2.435	207611	WORD	n/a	wordpools/wordpool_categorized_EN.txt	NIGHTSTAND	Furniture	10	1	[0, 0, 0]	n/a	catFR1	1	R1065J
158.819	2.45	210046	WORD	n/a	wordpools/wordpool_categorized_EN.txt	WOODS	Landscapes	11	1	[0, 0, 0]	n/a	catFR1	1	R1065J
161.269	1.617	212496	WORD	n/a	wordpools/wordpool_categorized_EN.txt	STREAM	Landscapes	12	1	[0, 0, 0]	n/a	catFR1	1	R1065J
162.886	0.001	214113	DISTRACT_START	n/a	n/a	n/a	n/a	-999	1	[0, 0, 0]	n/a	catFR1	1	R1065J
162.887	0.016	214114	START	n/a	n/a	n/a	n/a	-999	1	[-999, -999, -999]	n/a	catFR1	1	R1065J
162.903	2.549	214130	PROB	2.524	n/a	n/a	n/a	-999	1	[1, 9, 7]	17.0	catFR1	1	R1065J
165.452	1.934	216679	PROB	1.904	n/a	n/a	n/a	-999	1	[8, 3, 6]	17.0	catFR1	1	R1065J
167.386	1.934	218613	PROB	1.907	n/a	n/a	n/a	-999	1	[3, 3, 8]	14.0	catFR1	1	R1065J
169.32	2.017	220547	PROB	1.988	n/a	n/a	n/a	-999	1	[8, 9, 1]	18.0	catFR1	1	R1065J
171.337	1.767	222564	PROB	1.731	n/a	n/a	n/a	-999	1	[2, 3, 7]	12.0	catFR1	1	R1065J
173.104	1.55	224331	PROB	1.525	n/a	n/a	n/a	-999	1	[1, 1, 7]	9.0	catFR1	1	R1065J
174.654	1.833	225881	PROB	1.797	n/a	n/a	n/a	-999	1	[6, 2, 4]	12.0	catFR1	1	R1065J
176.487	3.05	227714	PROB	3.02	n/a	n/a	n/a	-999	1	[6, 9, 1]	16.0	catFR1	1	R1065J
179.537	1.802	230764	PROB	1.771	n/a	n/a	n/a	-999	1	[6, 5, 7]	18.0	catFR1	1	R1065J
181.339	4.585	232566	PROB	4.585	n/a	n/a	n/a	-999	1	[5, 9, 1]	15.0	catFR1	1	R1065J
185.924	0.015	237151	STOP	n/a	n/a	n/a	n/a	-999	1	[-999, -999, -999]	n/a	catFR1	1	R1065J
185.939	1.134	237166	DISTRACT_END	n/a	n/a	n/a	n/a	-999	1	[0, 0, 0]	n/a	catFR1	1	R1065J
187.073	1.737	238300	REC_START	n/a	n/a	n/a	n/a	-999	1	[0, 0, 0]	n/a	catFR1	1	R1065J
188.81	1.599	240037	REC_WORD	1.737	n/a	SHRIMP	OceanAnimals	8	1	[0, 0, 0]	n/a	catFR1	1	R1065J
190.409	1.539	241636	REC_WORD	3.336	n/a	BEACH	Landscapes	6	1	[0, 0, 0]	n/a	catFR1	1	R1065J
191.948	1.573	243175	REC_WORD	4.875	n/a	HILLS	Landscapes	5	1	[0, 0, 0]	n/a	catFR1	1	R1065J
193.521	1.82	244748	REC_WORD	6.448	n/a	NIGHTSTAND	Furniture	10	1	[0, 0, 0]	n/a	catFR1	1	R1065J
195.341	2.127	246568	REC_WORD	8.268	n/a	SOFA	Furniture	2	1	[0, 0, 0]	n/a	catFR1	1	R1065J
197.468	19.619	248695	REC_WORD	10.395	n/a	RECLINER	Furniture	9	1	[0, 0, 0]	n/a	catFR1	1	R1065J
217.087	1.807	268314	REC_END	n/a	n/a	n/a	n/a	-999	1	[0, 0, 0]	n/a	catFR1	1	R1065J
218.894	0.0	270121	TRIAL	n/a	n/a	n/a	n/a	-999	2	[0, 0, 0]	n/a	catFR1	1	R1065J
218.894	10.428	270121	COUNTDOWN_START	n/a	n/a	n/a	n/a	-999	2	[0, 0, 0]	n/a	catFR1	1	R1065J
229.322	0.007	280549	COUNTDOWN_END	n/a	n/a	n/a	n/a	-999	2	[0, 0, 0]	n/a	catFR1	1	R1065J
229.329	3.917	280556	ORIENT	n/a	n/a	n/a	n/a	-999	2	[0, 0, 0]	n/a	catFR1	1	R1065J
233.246	2.584	284473	WORD	n/a	wordpools/wordpool_categorized_EN.txt	CALCULATOR	Electronics	1	2	[0, 0, 0]	n/a	catFR1	1	R1065J
235.83	2.616	287057	WORD	n/a	wordpools/wordpool_categorized_EN.txt	MICROWAVE	Electronics	2	2	[0, 0, 0]	n/a	catFR1	1	R1065J
238.446	2.384	289673	WORD	n/a	wordpools/wordpool_categorized_EN.txt	CABBAGE	Vegetables	3	2	[0, 0, 0]	n/a	catFR1	1	R1065J
240.83	2.384	292057	WORD	n/a	wordpools/wordpool_categorized_EN.txt	CAULIFLOWER	Vegetables	4	2	[0, 0, 0]	n/a	catFR1	1	R1065J
243.214	2.434	294441	WORD	n/a	wordpools/wordpool_categorized_EN.txt	TEA	Beverages	5	2	[0, 0, 0]	n/a	catFR1	1	R1065J
245.648	2.6	296875	WORD	n/a	wordpools/wordpool_categorized_EN.txt	BEER	Beverages	6	2	[0, 0, 0]	n/a	catFR1	1	R1065J
248.248	2.584	299475	WORD	n/a	wordpools/wordpool_categorized_EN.txt	STEREO	Electronics	7	2	[0, 0, 0]	n/a	catFR1	1	R1065J
250.832	2.484	302059	WORD	n/a	wordpools/wordpool_categorized_EN.txt	COMPUTER	Electronics	8	2	[0, 0, 0]	n/a	catFR1	1	R1065J
253.316	2.484	304543	WORD	n/a	wordpools/wordpool_categorized_EN.txt	COFFEE	Beverages	9	2	[0, 0, 0]	n/a	catFR1	1	R1065J
255.8	2.467	307027	WORD	n/a	wordpools/wordpool_categorized_EN.txt	LEMONADE	Beverages	10	2	[0, 0, 0]	n/a	catFR1	1	R1065J
258.267	2.583	309494	WORD	n/a	wordpools/wordpool_categorized_EN.txt	PEAS	Vegetables	11	2	[0, 0, 0]	n/a	catFR1	1	R1065J
260.85	1.616	312077	WORD	n/a	wordpools/wordpool_categorized_EN.txt	CUCUMBER	Vegetables	12	2	[0, 0, 0]	n/a	catFR1	1	R1065J
262.466	0.001	313693	DISTRACT_START	n/a	n/a	n/a	n/a	-999	2	[0, 0, 0]	n/a	catFR1	1	R1065J
262.467	0.016	313694	START	n/a	n/a	n/a	n/a	-999	2	[-999, -999, -999]	n/a	catFR1	1	R1065J
262.483	2.268	313710	PROB	2.231	n/a	n/a	n/a	-999	2	[4, 4, 4]	12.0	catFR1	1	R1065J
264.751	2.05	315978	PROB	2.027	n/a	n/a	n/a	-999	2	[5, 6, 4]	15.0	catFR1	1	R1065J
266.801	3.984	318028	PROB	3.953	n/a	n/a	n/a	-999	2	[5, 6, 9]	20.0	catFR1	1	R1065J
270.785	1.817	322012	PROB	1.793	n/a	n/a	n/a	-999	2	[5, 7, 3]	15.0	catFR1	1	R1065J
272.602	4.034	323829	PROB	4.008	n/a	n/a	n/a	-999	2	[9, 7, 9]	25.0	catFR1	1	R1065J
276.636	2.167	327863	PROB	2.134	n/a	n/a	n/a	-999	2	[5, 6, 9]	19.0	catFR1	1	R1065J
278.803	2.233	330030	PROB	2.199	n/a	n/a	n/a	-999	2	[2, 6, 5]	13.0	catFR1	1	R1065J
281.036	2.038	332263	PROB	2.038	n/a	n/a	n/a	-999	2	[2, 7, 9]	18.0	catFR1	1	R1065J
283.074	0.013	334301	STOP	n/a	n/a	n/a	n/a	-999	2	[-999, -999, -999]	n/a	catFR1	1	R1065J
283.087	1.117	334314	DISTRACT_END	n/a	n/a	n/a	n/a	-999	2	[0, 0, 0]	n/a	catFR1	1	R1065J
284.204	1.323	335431	REC_START	n/a	n/a	n/a	n/a	-999	2	[0, 0, 0]	n/a	catFR1	1	R1065J
285.527	1.207	336754	REC_WORD	1.323	n/a	CABBAGE	Vegetables	3	2	[0, 0, 0]	n/a	catFR1	1	R1065J
286.734	1.441	337961	REC_WORD	2.53	n/a	CAULIFLOWER	Vegetables	4	2	[0, 0, 0]	n/a	catFR1	1	R1065J
288.175	0.146	339402	REC_WORD_VV	3.971	n/a	<>	n/a	-999	2	[0, 0, 0]	n/a	catFR1	1	R1065J
288.321	2.448	339548	REC_WORD	4.117	n/a	PEAS	Vegetables	11	2	[0, 0, 0]	n/a	catFR1	1	R1065J
290.769	1.894	341996	REC_WORD	6.565	n/a	MICROWAVE	Electronics	2	2	[0, 0, 0]	n/a	catFR1	1	R1065J
292.663	2.969	343890	REC_WORD	8.459	n/a	COMPUTER	Electronics	8	2	[0, 0, 0]	n/a	catFR1	1	R1065J
295.632	1.164	346859	REC_WORD	11.428	n/a	TEA	Beverages	5	2	[0, 0, 0]	n/a	catFR1	1	R1065J
296.796	4.057	348023	REC_WORD	12.592	n/a	COFFEE	Beverages	9	2	[0, 0, 0]	n/a	catFR1	1	R1065J
300.853	0.166	352080	REC_WORD_VV	16.649	n/a	<>	n/a	-999	2	[0, 0, 0]	n/a	catFR1	1	R1065J
301.019	13.197	352246	REC_WORD	16.815	n/a	BEER	Beverages	6	2	[0, 0, 0]	n/a	catFR1	1	R1065J
314.216	1.642	365443	REC_END	n/a	n/a	n/a	n/a	-999	2	[0, 0, 0]	n/a	catFR1	1	R1065J
315.858	0.001	367085	COUNTDOWN_START	n/a	n/a	n/a	n/a	-999	3	[0, 0, 0]	n/a	catFR1	1	R1065J
315.859	10.427	367086	TRIAL	n/a	n/a	n/a	n/a	-999	3	[0, 0, 0]	n/a	catFR1	1	R1065J
326.286	0.007	377513	COUNTDOWN_END	n/a	n/a	n/a	n/a	-999	3	[0, 0, 0]	n/a	catFR1	1	R1065J
326.293	3.651	377520	ORIENT	n/a	n/a	n/a	n/a	-999	3	[0, 0, 0]	n/a	catFR1	1	R1065J
329.944	2.4	381171	WORD	n/a	wordpools/wordpool_categorized_EN.txt	SPARROW	Birds	1	3	[0, 0, 0]	n/a	catFR1	1	R1065J
332.344	2.534	383571	WORD	n/a	wordpools/wordpool_categorized_EN.txt	DOVE	Birds	2	3	[0, 0, 0]	n/a	catFR1	1	R1065J
334.878	2.434	386105	WORD	n/a	wordpools/wordpool_categorized_EN.txt	BARBIE	Toys	3	3	[0, 0, 0]	n/a	catFR1	1	R1065J
337.312	2.45	388539	WORD	n/a	wordpools/wordpool_categorized_EN.txt	FRISBEE	Toys	4	3	[0, 0, 0]	n/a	catFR1	1	R1065J
339.762	2.383	390989	WORD	n/a	wordpools/wordpool_categorized_EN.txt	LETTUCE	Vegetables	5	3	[0, 0, 0]	n/a	catFR1	1	R1065J
342.145	2.484	393372	WORD	n/a	wordpools/wordpool_categorized_EN.txt	POTATO	Vegetables	6	3	[0, 0, 0]	n/a	catFR1	1	R1065J
344.629	2.434	395856	WORD	n/a	wordpools/wordpool_categorized_EN.txt	CARDINAL	Birds	7	3	[0, 0, 0]	n/a	catFR1	1	R1065J
347.063	2.416	398290	WORD	n/a	wordpools/wordpool_categorized_EN.txt	ROBIN	Birds	8	3	[0, 0, 0]	n/a	catFR1	1	R1065J
349.479	2.501	400706	WORD	n/a	wordpools/wordpool_categorized_EN.txt	BROCCOLI	Vegetables	9	3	[0, 0, 0]	n/a	catFR1	1	R1065J
351.98	2.533	403207	WORD	n/a	wordpools/wordpool_categorized_EN.txt	SPINACH	Vegetables	10	3	[0, 0, 0]	n/a	catFR1	1	R1065J
354.513	2.385	405740	WORD	n/a	wordpools/wordpool_categorized_EN.txt	DOLLHOUSE	Toys	11	3	[0, 0, 0]	n/a	catFR1	1	R1065J
356.898	1.615	408125	WORD	n/a	wordpools/wordpool_categorized_EN.txt	BASEBALL	Toys	12	3	[0, 0, 0]	n/a	catFR1	1	R1065J
358.513	0.002	409740	DISTRACT_START	n/a	n/a	n/a	n/a	-999	3	[0, 0, 0]	n/a	catFR1	1	R1065J
358.515	0.015	409742	START	n/a	n/a	n/a	n/a	-999	3	[-999, -999, -999]	n/a	catFR1	1	R1065J
358.53	2.468	409757	PROB	2.446	n/a	n/a	n/a	-999	3	[9, 9, 5]	23.0	catFR1	1	R1065J
360.998	2.234	412225	PROB	2.21	n/a	n/a	n/a	-999	3	[9, 7, 3]	19.0	catFR1	1	R1065J
363.232	4.1	414459	PROB	4.08	n/a	n/a	n/a	-999	3	[5, 9, 6]	20.0	catFR1	1	R1065J
367.332	1.667	418559	PROB	1.644	n/a	n/a	n/a	-999	3	[1, 5, 1]	7.0	catFR1	1	R1065J
368.999	1.884	420226	PROB	1.857	n/a	n/a	n/a	-999	3	[4, 3, 3]	10.0	catFR1	1	R1065J
370.883	2.034	422110	PROB	2.013	n/a	n/a	n/a	-999	3	[3, 7, 5]	15.0	catFR1	1	R1065J
372.917	1.683	424144	PROB	1.651	n/a	n/a	n/a	-999	3	[8, 1, 1]	10.0	catFR1	1	R1065J
374.6	2.184	425827	PROB	2.16	n/a	n/a	n/a	-999	3	[8, 7, 3]	18.0	catFR1	1	R1065J
376.784	1.88	428011	PROB	1.88	n/a	n/a	n/a	-999	3	[6, 9, 6]	21.0	catFR1	1	R1065J
378.664	0.003	429891	STOP	n/a	n/a	n/a	n/a	-999	3	[-999, -999, -999]	n/a	catFR1	1	R1065J
378.667	1.218	429894	DISTRACT_END	n/a	n/a	n/a	n/a	-999	3	[0, 0, 0]	n/a	catFR1	1	R1065J
379.885	1.694	431112	REC_START	n/a	n/a	n/a	n/a	-999	3	[0, 0, 0]	n/a	catFR1	1	R1065J
381.579	1.304	432806	REC_WORD	1.694	n/a	BARBIE	Toys	3	3	[0, 0, 0]	n/a	catFR1	1	R1065J
382.883	1.804	434110	REC_WORD	2.998	n/a	DOLLHOUSE	Toys	11	3	[0, 0, 0]	n/a	catFR1	1	R1065J
384.687	9.772	435914	REC_WORD	4.802	n/a	FRISBEE	Toys	4	3	[0, 0, 0]	n/a	catFR1	1	R1065J
394.459	9.27	445686	REC_WORD_VV	14.574	n/a	<>	n/a	-999	3	[0, 0, 0]	n/a	catFR1	1	R1065J
403.729	1.273	454956	REC_WORD	23.844	n/a	POTATO	Vegetables	6	3	[0, 0, 0]	n/a	catFR1	1	R1065J
405.002	1.582	456229	REC_WORD	25.117	n/a	SPINACH	Vegetables	10	3	[0, 0, 0]	n/a	catFR1	1	R1065J
406.584	3.312	457811	REC_WORD	26.699	n/a	BROCCOLI	Vegetables	9	3	[0, 0, 0]	n/a	catFR1	1	R1065J
409.896	2.109	461123	REC_END	n/a	n/a	n/a	n/a	-999	3	[0, 0, 0]	n/a	catFR1	1	R1065J
412.005	0.001	463232	COUNTDOWN_START	n/a	n/a	n/a	n/a	-999	4	[0, 0, 0]	n/a	catFR1	1	R1065J
412.006	10.427	463233	TRIAL	n/a	n/a	n/a	n/a	-999	4	[0, 0, 0]	n/a	catFR1	1	R1065J
422.433	0.006	473660	COUNTDOWN_END	n/a	n/a	n/a	n/a	-999	4	[0, 0, 0]	n/a	catFR1	1	R1065J
422.439	3.652	473666	ORIENT	n/a	n/a	n/a	n/a	-999	4	[0, 0, 0]	n/a	catFR1	1	R1065J
426.091	2.5	477318	WORD	n/a	wordpools/wordpool_categorized_EN.txt	DRUM	Instruments	1	4	[0, 0, 0]	n/a	catFR1	1	R1065J
428.591	2.484	479818	WORD	n/a	wordpools/wordpool_categorized_EN.txt	FLUTE	Instruments	2	4	[0, 0, 0]	n/a	catFR1	1	R1065J
431.075	2.584	482302	WORD	n/a	wordpools/wordpool_categorized_EN.txt	FINGERS	BodyParts	3	4	[0, 0, 0]	n/a	catFR1	1	R1065J
433.659	2.484	484886	WORD	n/a	wordpools/wordpool_categorized_EN.txt	FOOT	BodyParts	4	4	[0, 0, 0]	n/a	catFR1	1	R1065J
436.143	2.6	487371	WORD	n/a	wordpools/wordpool_categorized_EN.txt	LION	Zoo	5	4	[0, 0, 0]	n/a	catFR1	1	R1065J
438.743	2.45	489971	WORD	n/a	wordpools/wordpool_categorized_EN.txt	GORILLA	Zoo	6	4	[0, 0, 0]	n/a	catFR1	1	R1065J
441.193	2.567	492421	WORD	n/a	wordpools/wordpool_categorized_EN.txt	ARM	BodyParts	7	4	[0, 0, 0]	n/a	catFR1	1	R1065J
443.76	2.584	494988	WORD	n/a	wordpools/wordpool_categorized_EN.txt	ELBOW	BodyParts	8	4	[0, 0, 0]	n/a	catFR1	1	R1065J
446.344	2.434	497572	WORD	n/a	wordpools/wordpool_categorized_EN.txt	TUBA	Instruments	9	4	[0, 0, 0]	n/a	catFR1	1	R1065J
448.778	2.5	500006	WORD	n/a	wordpools/wordpool_categorized_EN.txt	CELLO	Instruments	10	4	[0, 0, 0]	n/a	catFR1	1	R1065J
451.278	2.384	502506	WORD	n/a	wordpools/wordpool_categorized_EN.txt	CHEETAH	Zoo	11	4	[0, 0, 0]	n/a	catFR1	1	R1065J
453.662	1.617	504890	WORD	n/a	wordpools/wordpool_categorized_EN.txt	PANDA	Zoo	12	4	[0, 0, 0]	n/a	catFR1	1	R1065J
455.279	0.001	506507	DISTRACT_START	n/a	n/a	n/a	n/a	-999	4	[0, 0, 0]	n/a	catFR1	1	R1065J
455.28	0.015	506508	START	n/a	n/a	n/a	n/a	-999	4	[-999, -999, -999]	n/a	catFR1	1	R1065J
455.295	2.451	506523	PROB	2.415	n/a	n/a	n/a	-999	4	[1, 3, 2]	6.0	catFR1	1	R1065J
457.746	1.933	508974	PROB	1.908	n/a	n/a	n/a	-999	4	[2, 3, 3]	8.0	catFR1	1	R1065J
459.679	1.866	510907	PROB	1.838	n/a	n/a	n/a	-999	4	[6, 5, 6]	17.0	catFR1	1	R1065J
461.545	2.618	512773	PROB	2.597	n/a	n/a	n/a	-999	4	[8, 6, 3]	17.0	catFR1	1	R1065J
464.163	2.867	515391	PROB	2.835	n/a	n/a	n/a	-999	4	[9, 5, 3]	17.0	catFR1	1	R1065J
467.03	1.817	518258	PROB	1.784	n/a	n/a	n/a	-999	4	[3, 8, 7]	18.0	catFR1	1	R1065J
468.847	2.851	520075	PROB	2.815	n/a	n/a	n/a	-999	4	[9, 8, 1]	18.0	catFR1	1	R1065J
471.698	1.716	522926	PROB	1.69	n/a	n/a	n/a	-999	4	[4, 1, 8]	13.0	catFR1	1	R1065J
473.414	1.999	524642	PROB	1.999	n/a	n/a	n/a	-999	4	[9, 2, 3]	14.0	catFR1	1	R1065J
475.413	0.018	526641	STOP	n/a	n/a	n/a	n/a	-999	4	[-999, -999, -999]	n/a	catFR1	1	R1065J
475.431	1.05	526659	DISTRACT_END	n/a	n/a	n/a	n/a	-999	4	[0, 0, 0]	n/a	catFR1	1	R1065J
476.481	2.922	527709	REC_START	n/a	n/a	n/a	n/a	-999	4	[0, 0, 0]	n/a	catFR1	1	R1065J
479.403	1.141	530631	REC_WORD	2.922	n/a	LION	Zoo	5	4	[0, 0, 0]	n/a	catFR1	1	R1065J
480.544	2.286	531772	REC_WORD	4.063	n/a	PANDA	Zoo	12	4	[0, 0, 0]	n/a	catFR1	1	R1065J
482.83	1.22	534058	REC_WORD	6.349	n/a	ARM	BodyParts	7	4	[0, 0, 0]	n/a	catFR1	1	R1065J
484.05	1.413	535278	REC_WORD	7.569	n/a	FOOT	BodyParts	4	4	[0, 0, 0]	n/a	catFR1	1	R1065J
485.463	1.967	536691	REC_WORD	8.982	n/a	FINGERS	BodyParts	3	4	[0, 0, 0]	n/a	catFR1	1	R1065J
487.43	1.645	538658	REC_WORD	10.949	n/a	DRUM	Instruments	1	4	[0, 0, 0]	n/a	catFR1	1	R1065J
489.075	2.409	540303	REC_WORD	12.594	n/a	FLUTE	Instruments	2	4	[0, 0, 0]	n/a	catFR1	1	R1065J
491.484	4.192	542712	REC_WORD	15.003	n/a	CELLO	Instruments	10	4	[0, 0, 0]	n/a	catFR1	1	R1065J
495.676	10.817	546904	REC_WORD	19.195	n/a	ELBOW	BodyParts	8	4	[0, 0, 0]	n/a	catFR1	1	R1065J
506.493	1.543	557721	REC_END	n/a	n/a	n/a	n/a	-999	4	[0, 0, 0]	n/a	catFR1	1	R1065J
508.036	0.001	559264	COUNTDOWN_START	n/a	n/a	n/a	n/a	-999	5	[0, 0, 0]	n/a	catFR1	1	R1065J
508.037	10.427	559265	TRIAL	n/a	n/a	n/a	n/a	-999	5	[0, 0, 0]	n/a	catFR1	1	R1065J
518.464	0.006	569692	COUNTDOWN_END	n/a	n/a	n/a	n/a	-999	5	[0, 0, 0]	n/a	catFR1	1	R1065J
518.47	3.702	569698	ORIENT	n/a	n/a	n/a	n/a	-999	5	[0, 0, 0]	n/a	catFR1	1	R1065J
522.172	2.4	573400	WORD	n/a	wordpools/wordpool_categorized_EN.txt	JUICE	Beverages	1	5	[0, 0, 0]	n/a	catFR1	1	R1065J
524.572	2.567	575800	WORD	n/a	wordpools/wordpool_categorized_EN.txt	RUM	Beverages	2	5	[0, 0, 0]	n/a	catFR1	1	R1065J
527.139	2.416	578367	WORD	n/a	wordpools/wordpool_categorized_EN.txt	PUDDING	Desserts	3	5	[0, 0, 0]	n/a	catFR1	1	R1065J
529.555	2.435	580783	WORD	n/a	wordpools/wordpool_categorized_EN.txt	COOKIE	Desserts	4	5	[0, 0, 0]	n/a	catFR1	1	R1065J
531.99	2.466	583218	WORD	n/a	wordpools/wordpool_categorized_EN.txt	TONGS	KitchenTools	5	5	[0, 0, 0]	n/a	catFR1	1	R1065J
534.456	2.501	585684	WORD	n/a	wordpools/wordpool_categorized_EN.txt	CORKSCREW	KitchenTools	6	5	[0, 0, 0]	n/a	catFR1	1	R1065J
536.957	2.45	588185	WORD	n/a	wordpools/wordpool_categorized_EN.txt	WINE	Beverages	7	5	[0, 0, 0]	n/a	catFR1	1	R1065J
539.407	2.567	590635	WORD	n/a	wordpools/wordpool_categorized_EN.txt	WATER	Beverages	8	5	[0, 0, 0]	n/a	catFR1	1	R1065J
541.974	2.433	593202	WORD	n/a	wordpools/wordpool_categorized_EN.txt	GRATER	KitchenTools	9	5	[0, 0, 0]	n/a	catFR1	1	R1065J
544.407	2.435	595635	WORD	n/a	wordpools/wordpool_categorized_EN.txt	SPATULA	KitchenTools	10	5	[0, 0, 0]	n/a	catFR1	1	R1065J
546.842	2.533	598070	WORD	n/a	wordpools/wordpool_categorized_EN.txt	FUDGE	Desserts	11	5	[0, 0, 0]	n/a	catFR1	1	R1065J
549.375	1.618	600603	WORD	n/a	wordpools/wordpool_categorized_EN.txt	PIE	Desserts	12	5	[0, 0, 0]	n/a	catFR1	1	R1065J
550.993	0.001	602221	DISTRACT_START	n/a	n/a	n/a	n/a	-999	5	[0, 0, 0]	n/a	catFR1	1	R1065J
550.994	0.015	602222	START	n/a	n/a	n/a	n/a	-999	5	[-999, -999, -999]	n/a	catFR1	1	R1065J
551.009	2.533	602237	PROB	2.498	n/a	n/a	n/a	-999	5	[8, 8, 2]	18.0	catFR1	1	R1065J
553.542	1.718	604770	PROB	1.686	n/a	n/a	n/a	-999	5	[1, 7, 5]	13.0	catFR1	1	R1065J
555.26	2.116	606488	PROB	2.088	n/a	n/a	n/a	-999	5	[8, 7, 3]	18.0	catFR1	1	R1065J
557.376	1.701	608604	PROB	1.676	n/a	n/a	n/a	-999	5	[7, 7, 4]	18.0	catFR1	1	R1065J
559.077	1.784	610305	PROB	1.751	n/a	n/a	n/a	-999	5	[9, 1, 1]	11.0	catFR1	1	R1065J
560.861	1.7	612089	PROB	1.67	n/a	n/a	n/a	-999	5	[3, 3, 6]	12.0	catFR1	1	R1065J
562.561	1.75	613789	PROB	1.723	n/a	n/a	n/a	-999	5	[8, 1, 1]	10.0	catFR1	1	R1065J
564.311	1.834	615539	PROB	1.805	n/a	n/a	n/a	-999	5	[7, 1, 8]	16.0	catFR1	1	R1065J
566.145	1.917	617373	PROB	1.883	n/a	n/a	n/a	-999	5	[9, 8, 6]	23.0	catFR1	1	R1065J
568.062	1.65	619290	PROB	1.614	n/a	n/a	n/a	-999	5	[3, 5, 1]	9.0	catFR1	1	R1065J
569.712	3.532	620940	PROB	3.532	n/a	n/a	n/a	-999	5	[5, 4, 4]	13.0	catFR1	1	R1065J
573.244	0.019	624472	STOP	n/a	n/a	n/a	n/a	-999	5	[-999, -999, -999]	n/a	catFR1	1	R1065J
573.263	1.1	624491	DISTRACT_END	n/a	n/a	n/a	n/a	-999	5	[0, 0, 0]	n/a	catFR1	1	R1065J
574.363	1.267	625591	REC_START	n/a	n/a	n/a	n/a	-999	5	[0, 0, 0]	n/a	catFR1	1	R1065J
575.63	1.625	626858	REC_WORD	1.267	n/a	CORKSCREW	KitchenTools	6	5	[0, 0, 0]	n/a	catFR1	1	R1065J
577.255	2.186	628483	REC_WORD	2.892	n/a	TONGS	KitchenTools	5	5	[0, 0, 0]	n/a	catFR1	1	R1065J
579.441	1.382	630669	REC_WORD	5.078	n/a	PUDDING	Desserts	3	5	[0, 0, 0]	n/a	catFR1	1	R1065J
580.823	1.695	632051	REC_WORD	6.46	n/a	COOKIE	Desserts	4	5	[0, 0, 0]	n/a	catFR1	1	R1065J
582.518	1.953	633746	REC_WORD	8.155	n/a	FUDGE	Desserts	11	5	[0, 0, 0]	n/a	catFR1	1	R1065J
584.471	3.447	635699	REC_WORD	10.108	n/a	PIE	Desserts	12	5	[0, 0, 0]	n/a	catFR1	1	R1065J
587.918	1.884	639146	REC_WORD	13.555	n/a	WINE	Beverages	7	5	[0, 0, 0]	n/a	catFR1	1	R1065J
589.802	14.575	641030	REC_WORD	15.439	n/a	WATER	Beverages	8	5	[0, 0, 0]	n/a	catFR1	1	R1065J
604.377	1.457	655605	REC_END	n/a	n/a	n/a	n/a	-999	5	[0, 0, 0]	n/a	catFR1	1	R1065J
605.834	0.0	657062	TRIAL	n/a	n/a	n/a	n/a	-999	6	[0, 0, 0]	n/a	catFR1	1	R1065J
605.834	10.428	657062	COUNTDOWN_START	n/a	n/a	n/a	n/a	-999	6	[0, 0, 0]	n/a	catFR1	1	R1065J
616.262	0.007	667490	COUNTDOWN_END	n/a	n/a	n/a	n/a	-999	6	[0, 0, 0]	n/a	catFR1	1	R1065J
616.269	3.867	667497	ORIENT	n/a	n/a	n/a	n/a	-999	6	[0, 0, 0]	n/a	catFR1	1	R1065J
620.136	2.383	671364	WORD	n/a	wordpools/wordpool_categorized_EN.txt	SANDER	Tools	1	6	[0, 0, 0]	n/a	catFR1	1	R1065J
622.519	2.468	673747	WORD	n/a	wordpools/wordpool_categorized_EN.txt	PLIERS	Tools	2	6	[0, 0, 0]	n/a	catFR1	1	R1065J
624.987	2.416	676215	WORD	n/a	wordpools/wordpool_categorized_EN.txt	DOOR	Building	3	6	[0, 0, 0]	n/a	catFR1	1	R1065J
627.403	2.601	678631	WORD	n/a	wordpools/wordpool_categorized_EN.txt	WALL	Building	4	6	[0, 0, 0]	n/a	catFR1	1	R1065J
630.004	2.399	681232	WORD	n/a	wordpools/wordpool_categorized_EN.txt	PLANKTON	OceanAnimals	5	6	[0, 0, 0]	n/a	catFR1	1	R1065J
632.403	2.369	683631	WORD	n/a	wordpools/wordpool_categorized_EN.txt	OCTOPUS	OceanAnimals	6	6	[0, 0, 0]	n/a	catFR1	1	R1065J
634.772	2.599	686000	WORD	n/a	wordpools/wordpool_categorized_EN.txt	STAIRS	Building	7	6	[0, 0, 0]	n/a	catFR1	1	R1065J
637.371	2.551	688599	WORD	n/a	wordpools/wordpool_categorized_EN.txt	FOUNDATION	Building	8	6	[0, 0, 0]	n/a	catFR1	1	R1065J
639.922	2.5	691150	WORD	n/a	wordpools/wordpool_categorized_EN.txt	CROWBAR	Tools	9	6	[0, 0, 0]	n/a	catFR1	1	R1065J
642.422	2.584	693650	WORD	n/a	wordpools/wordpool_categorized_EN.txt	LEVEL	Tools	10	6	[0, 0, 0]	n/a	catFR1	1	R1065J
645.006	2.533	696234	WORD	n/a	wordpools/wordpool_categorized_EN.txt	WHALE	OceanAnimals	11	6	[0, 0, 0]	n/a	catFR1	1	R1065J
647.539	1.601	698767	WORD	n/a	wordpools/wordpool_categorized_EN.txt	LOBSTER	OceanAnimals	12	6	[0, 0, 0]	n/a	catFR1	1	R1065J
649.14	0.001	700368	DISTRACT_START	n/a	n/a	n/a	n/a	-999	6	[0, 0, 0]	n/a	catFR1	1	R1065J
649.141	0.016	700369	START	n/a	n/a	n/a	n/a	-999	6	[-999, -999, -999]	n/a	catFR1	1	R1065J
649.157	2.299	700385	PROB	2.267	n/a	n/a	n/a	-999	6	[2, 3, 8]	13.0	catFR1	1	R1065J
651.456	1.967	702684	PROB	1.945	n/a	n/a	n/a	-999	6	[9, 6, 8]	23.0	catFR1	1	R1065J
653.423	1.635	704651	PROB	1.611	n/a	n/a	n/a	-999	6	[6, 4, 5]	15.0	catFR1	1	R1065J
655.058	1.6	706286	PROB	1.575	n/a	n/a	n/a	-999	6	[4, 2, 6]	12.0	catFR1	1	R1065J
656.658	1.849	707886	PROB	1.822	n/a	n/a	n/a	-999	6	[4, 7, 7]	18.0	catFR1	1	R1065J
658.507	1.735	709735	PROB	1.703	n/a	n/a	n/a	-999	6	[7, 8, 3]	18.0	catFR1	1	R1065J
660.242	1.717	711470	PROB	1.687	n/a	n/a	n/a	-999	6	[8, 2, 3]	13.0	catFR1	1	R1065J
661.959	1.733	713187	PROB	1.698	n/a	n/a	n/a	-999	6	[9, 1, 7]	17.0	catFR1	1	R1065J
663.692	2.067	714920	PROB	2.037	n/a	n/a	n/a	-999	6	[1, 3, 7]	11.0	catFR1	1	R1065J
665.759	1.783	716987	PROB	1.753	n/a	n/a	n/a	-999	6	[8, 1, 9]	18.0	catFR1	1	R1065J
667.542	4.132	718770	PROB	4.132	n/a	n/a	n/a	-999	6	[9, 7, 8]	24.0	catFR1	1	R1065J
671.674	0.02	722902	STOP	n/a	n/a	n/a	n/a	-999	6	[-999, -999, -999]	n/a	catFR1	1	R1065J
671.694	1.134	722922	DISTRACT_END	n/a	n/a	n/a	n/a	-999	6	[0, 0, 0]	n/a	catFR1	1	R1065J
672.828	1.283	724056	REC_START	n/a	n/a	n/a	n/a	-999	6	[0, 0, 0]	n/a	catFR1	1	R1065J
674.111	1.546	725339	REC_WORD	1.283	n/a	OCTOPUS	OceanAnimals	6	6	[0, 0, 0]	n/a	catFR1	1	R1065J
675.657	1.403	726885	REC_WORD	2.829	n/a	WHALE	OceanAnimals	11	6	[0, 0, 0]	n/a	catFR1	1	R1065J
677.06	1.91	728288	REC_WORD	4.232	n/a	PLANKTON	OceanAnimals	5	6	[0, 0, 0]	n/a	catFR1	1	R1065J
678.97	1.701	730198	REC_WORD	6.142	n/a	LOBSTER	OceanAnimals	12	6	[0, 0, 0]	n/a	catFR1	1	R1065J
680.671	1.224	731899	REC_WORD	7.843	n/a	WALL	Building	4	6	[0, 0, 0]	n/a	catFR1	1	R1065J
681.895	1.499	733123	REC_WORD	9.067	n/a	DOOR	Building	3	6	[0, 0, 0]	n/a	catFR1	1	R1065J
683.394	2.017	734622	REC_WORD	10.566	n/a	STAIRS	Building	7	6	[0, 0, 0]	n/a	catFR1	1	R1065J
685.411	2.74	736639	REC_WORD	12.583	n/a	FOUNDATION	Building	8	6	[0, 0, 0]	n/a	catFR1	1	R1065J
688.151	3.689	739379	REC_WORD	15.323	n/a	LEVEL	Tools	10	6	[0, 0, 0]	n/a	catFR1	1	R1065J
691.84	10.997	743068	REC_WORD	19.012	n/a	PLIERS	Tools	2	6	[0, 0, 0]	n/a	catFR1	1	R1065J
702.837	1.945	754065	REC_END	n/a	n/a	n/a	n/a	-999	6	[0, 0, 0]	n/a	catFR1	1	R1065J
704.782	0.0	756010	TRIAL	n/a	n/a	n/a	n/a	-999	7	[0, 0, 0]	n/a	catFR1	1	R1065J
704.782	10.428	756010	COUNTDOWN_START	n/a	n/a	n/a	n/a	-999	7	[0, 0, 0]	n/a	catFR1	1	R1065J
715.21	0.007	766438	COUNTDOWN_END	n/a	n/a	n/a	n/a	-999	7	[0, 0, 0]	n/a	catFR1	1	R1065J
715.217	3.9	766445	ORIENT	n/a	n/a	n/a	n/a	-999	7	[0, 0, 0]	n/a	catFR1	1	R1065J
719.117	2.534	770345	WORD	n/a	wordpools/wordpool_categorized_EN.txt	ELM	Trees	1	7	[0, 0, 0]	n/a	catFR1	1	R1065J
721.651	2.5	772879	WORD	n/a	wordpools/wordpool_categorized_EN.txt	BIRCH	Trees	2	7	[0, 0, 0]	n/a	catFR1	1	R1065J
724.151	2.501	775379	WORD	n/a	wordpools/wordpool_categorized_EN.txt	COLANDER	KitchenTools	3	7	[0, 0, 0]	n/a	catFR1	1	R1065J
726.652	2.617	777880	WORD	n/a	wordpools/wordpool_categorized_EN.txt	SPOON	KitchenTools	4	7	[0, 0, 0]	n/a	catFR1	1	R1065J
729.269	2.517	780497	WORD	n/a	wordpools/wordpool_categorized_EN.txt	DRESS	Clothing	5	7	[0, 0, 0]	n/a	catFR1	1	R1065J
731.786	2.567	783014	WORD	n/a	wordpools/wordpool_categorized_EN.txt	SHIRT	Clothing	6	7	[0, 0, 0]	n/a	catFR1	1	R1065J
734.353	2.617	785581	WORD	n/a	wordpools/wordpool_categorized_EN.txt	WALNUT	Trees	7	7	[0, 0, 0]	n/a	catFR1	1	R1065J
736.97	2.549	788198	WORD	n/a	wordpools/wordpool_categorized_EN.txt	SPRUCE	Trees	8	7	[0, 0, 0]	n/a	catFR1	1	R1065J
739.519	2.435	790747	WORD	n/a	wordpools/wordpool_categorized_EN.txt	JEANS	Clothing	9	7	[0, 0, 0]	n/a	catFR1	1	R1065J
741.954	2.384	793183	WORD	n/a	wordpools/wordpool_categorized_EN.txt	SHORTS	Clothing	10	7	[0, 0, 0]	n/a	catFR1	1	R1065J
744.338	2.567	795567	WORD	n/a	wordpools/wordpool_categorized_EN.txt	STRAINER	KitchenTools	11	7	[0, 0, 0]	n/a	catFR1	1	R1065J
746.905	1.616	798134	WORD	n/a	wordpools/wordpool_categorized_EN.txt	PEELER	KitchenTools	12	7	[0, 0, 0]	n/a	catFR1	1	R1065J
748.521	0.001	799750	DISTRACT_START	n/a	n/a	n/a	n/a	-999	7	[0, 0, 0]	n/a	catFR1	1	R1065J
748.522	0.015	799751	START	n/a	n/a	n/a	n/a	-999	7	[-999, -999, -999]	n/a	catFR1	1	R1065J
748.537	2.618	799766	PROB	2.591	n/a	n/a	n/a	-999	7	[7, 6, 4]	17.0	catFR1	1	R1065J
751.155	2.184	802384	PROB	2.148	n/a	n/a	n/a	-999	7	[2, 9, 1]	12.0	catFR1	1	R1065J
753.339	1.7	804568	PROB	1.669	n/a	n/a	n/a	-999	7	[4, 5, 3]	12.0	catFR1	1	R1065J
755.039	2.1	806268	PROB	2.073	n/a	n/a	n/a	-999	7	[5, 9, 2]	16.0	catFR1	1	R1065J
757.139	1.951	808368	PROB	1.924	n/a	n/a	n/a	-999	7	[8, 3, 3]	14.0	catFR1	1	R1065J
759.09	1.783	810319	PROB	1.749	n/a	n/a	n/a	-999	7	[5, 4, 7]	16.0	catFR1	1	R1065J
760.873	1.834	812102	PROB	1.806	n/a	n/a	n/a	-999	7	[5, 4, 8]	17.0	catFR1	1	R1065J
762.707	2.699	813936	PROB	2.667	n/a	n/a	n/a	-999	7	[4, 5, 4]	13.0	catFR1	1	R1065J
765.406	2.034	816635	PROB	2.008	n/a	n/a	n/a	-999	7	[5, 6, 8]	19.0	catFR1	1	R1065J
767.44	2.455	818669	PROB	2.455	n/a	n/a	n/a	-999	7	[6, 9, 3]	18.0	catFR1	1	R1065J
769.895	0.013	821124	STOP	n/a	n/a	n/a	n/a	-999	7	[-999, -999, -999]	n/a	catFR1	1	R1065J
769.908	1.151	821137	DISTRACT_END	n/a	n/a	n/a	n/a	-999	7	[0, 0, 0]	n/a	catFR1	1	R1065J
771.059	1.124	822288	REC_START	n/a	n/a	n/a	n/a	-999	7	[0, 0, 0]	n/a	catFR1	1	R1065J
772.183	1.486	823412	REC_WORD	1.124	n/a	COLANDER	KitchenTools	3	7	[0, 0, 0]	n/a	catFR1	1	R1065J
773.669	1.821	824898	REC_WORD	2.61	n/a	STRAINER	KitchenTools	11	7	[0, 0, 0]	n/a	catFR1	1	R1065J
775.49	3.775	826719	REC_WORD	4.431	n/a	PEELER	KitchenTools	12	7	[0, 0, 0]	n/a	catFR1	1	R1065J
779.265	1.163	830494	REC_WORD	8.206	n/a	ELM	Trees	1	7	[0, 0, 0]	n/a	catFR1	1	R1065J
780.428	1.523	831657	REC_WORD	9.369	n/a	BIRCH	Trees	2	7	[0, 0, 0]	n/a	catFR1	1	R1065J
781.951	1.314	833180	REC_WORD	10.892	n/a	WALNUT	Trees	7	7	[0, 0, 0]	n/a	catFR1	1	R1065J
783.265	1.837	834494	REC_WORD	12.206	n/a	SPRUCE	Trees	8	7	[0, 0, 0]	n/a	catFR1	1	R1065J
785.102	1.039	836331	REC_WORD	14.043	n/a	DRESS	Clothing	5	7	[0, 0, 0]	n/a	catFR1	1	R1065J
786.141	1.548	837370	REC_WORD	15.082	n/a	SHIRT	Clothing	6	7	[0, 0, 0]	n/a	catFR1	1	R1065J
787.689	13.381	838918	REC_WORD	16.63	n/a	PANTS	n/a	-999	7	[0, 0, 0]	n/a	catFR1	1	R1065J
801.07	1.793	852299	REC_END	n/a	n/a	n/a	n/a	-999	7	[0, 0, 0]	n/a	catFR1	1	R1065J
802.863	0.0	854092	TRIAL	n/a	n/a	n/a	n/a	-999	8	[0, 0, 0]	n/a	catFR1	1	R1065J
802.863	10.428	854092	COUNTDOWN_START	n/a	n/a	n/a	n/a	-999	8	[0, 0, 0]	n/a	catFR1	1	R1065J
813.291	0.007	864520	COUNTDOWN_END	n/a	n/a	n/a	n/a	-999	8	[0, 0, 0]	n/a	catFR1	1	R1065J
813.298	3.8	864527	ORIENT	n/a	n/a	n/a	n/a	-999	8	[0, 0, 0]	n/a	catFR1	1	R1065J
817.098	2.534	868327	WORD	n/a	wordpools/wordpool_categorized_EN.txt	FOOTBALL	Toys	1	8	[0, 0, 0]	n/a	catFR1	1	R1065J
819.632	2.5	870861	WORD	n/a	wordpools/wordpool_categorized_EN.txt	BASKETBALL	Toys	2	8	[0, 0, 0]	n/a	catFR1	1	R1065J
822.132	2.584	873361	WORD	n/a	wordpools/wordpool_categorized_EN.txt	CYPRESS	Trees	3	8	[0, 0, 0]	n/a	catFR1	1	R1065J
824.716	2.584	875945	WORD	n/a	wordpools/wordpool_categorized_EN.txt	MAPLE	Trees	4	8	[0, 0, 0]	n/a	catFR1	1	R1065J
827.3	2.617	878529	WORD	n/a	wordpools/wordpool_categorized_EN.txt	MARIGOLD	Flowers	5	8	[0, 0, 0]	n/a	catFR1	1	R1065J
829.917	2.383	881146	WORD	n/a	wordpools/wordpool_categorized_EN.txt	LILAC	Flowers	6	8	[0, 0, 0]	n/a	catFR1	1	R1065J
832.3	2.584	883529	WORD	n/a	wordpools/wordpool_categorized_EN.txt	WILLOW	Trees	7	8	[0, 0, 0]	n/a	catFR1	1	R1065J
834.884	2.549	886113	WORD	n/a	wordpools/wordpool_categorized_EN.txt	PINE	Trees	8	8	[0, 0, 0]	n/a	catFR1	1	R1065J
837.433	2.552	888662	WORD	n/a	wordpools/wordpool_categorized_EN.txt	BALL	Toys	9	8	[0, 0, 0]	n/a	catFR1	1	R1065J
839.985	2.617	891214	WORD	n/a	wordpools/wordpool_categorized_EN.txt	MARBLES	Toys	10	8	[0, 0, 0]	n/a	catFR1	1	R1065J
842.602	2.583	893831	WORD	n/a	wordpools/wordpool_categorized_EN.txt	ROSE	Flowers	11	8	[0, 0, 0]	n/a	catFR1	1	R1065J
845.185	1.617	896414	WORD	n/a	wordpools/wordpool_categorized_EN.txt	SUNFLOWER	Flowers	12	8	[0, 0, 0]	n/a	catFR1	1	R1065J
846.802	0.002	898031	DISTRACT_START	n/a	n/a	n/a	n/a	-999	8	[0, 0, 0]	n/a	catFR1	1	R1065J
846.804	0.015	898033	START	n/a	n/a	n/a	n/a	-999	8	[-999, -999, -999]	n/a	catFR1	1	R1065J
846.819	2.267	898048	PROB	2.242	n/a	n/a	n/a	-999	8	[4, 8, 9]	21.0	catFR1	1	R1065J
849.086	1.817	900315	PROB	1.791	n/a	n/a	n/a	-999	8	[2, 2, 6]	10.0	catFR1	1	R1065J
850.903	4.784	902132	PROB	4.759	n/a	n/a	n/a	-999	8	[3, 9, 8]	20.0	catFR1	1	R1065J
855.687	2.251	906916	PROB	2.231	n/a	n/a	n/a	-999	8	[9, 3, 4]	16.0	catFR1	1	R1065J
857.938	1.516	909167	PROB	1.482	n/a	n/a	n/a	-999	8	[3, 3, 6]	12.0	catFR1	1	R1065J
859.454	2.134	910683	PROB	2.102	n/a	n/a	n/a	-999	8	[1, 7, 2]	10.0	catFR1	1	R1065J
861.588	1.75	912817	PROB	1.729	n/a	n/a	n/a	-999	8	[8, 5, 8]	18.0	catFR1	1	R1065J
863.338	2.234	914567	PROB	2.21	n/a	n/a	n/a	-999	8	[9, 6, 7]	22.0	catFR1	1	R1065J
865.572	1.505	916801	PROB	1.505	n/a	n/a	n/a	-999	8	[3, 5, 1]	9.0	catFR1	1	R1065J
867.077	0.012	918306	STOP	n/a	n/a	n/a	n/a	-999	8	[-999, -999, -999]	n/a	catFR1	1	R1065J
867.089	1.034	918318	DISTRACT_END	n/a	n/a	n/a	n/a	-999	8	[0, 0, 0]	n/a	catFR1	1	R1065J
868.123	0.961	919352	REC_START	n/a	n/a	n/a	n/a	-999	8	[0, 0, 0]	n/a	catFR1	1	R1065J
869.084	1.092	920313	REC_WORD	0.961	n/a	LILAC	Flowers	6	8	[0, 0, 0]	n/a	catFR1	1	R1065J
870.176	1.934	921405	REC_WORD	2.053	n/a	MARIGOLD	Flowers	5	8	[0, 0, 0]	n/a	catFR1	1	R1065J
872.11	22.204	923339	REC_WORD	3.987	n/a	SUNFLOWER	Flowers	12	8	[0, 0, 0]	n/a	catFR1	1	R1065J
894.314	3.82	945543	REC_WORD	26.191	n/a	SPRUCE	n/a	-999	8	[0, 0, 0]	n/a	catFR1	1	R1065J
898.134	2.593	949363	REC_END	n/a	n/a	n/a	n/a	-999	8	[0, 0, 0]	n/a	catFR1	1	R1065J
900.727	0.0	951956	TRIAL	n/a	n/a	n/a	n/a	-999	9	[0, 0, 0]	n/a	catFR1	1	R1065J
900.727	10.428	951956	COUNTDOWN_START	n/a	n/a	n/a	n/a	-999	9	[0, 0, 0]	n/a	catFR1	1	R1065J
911.155	0.007	962384	COUNTDOWN_END	n/a	n/a	n/a	n/a	-999	9	[0, 0, 0]	n/a	catFR1	1	R1065J
911.162	3.817	962391	ORIENT	n/a	n/a	n/a	n/a	-999	9	[0, 0, 0]	n/a	catFR1	1	R1065J
914.979	2.5	966208	WORD	n/a	wordpools/wordpool_categorized_EN.txt	PLUM	Fruit	1	9	[0, 0, 0]	n/a	catFR1	1	R1065J
917.479	2.518	968708	WORD	n/a	wordpools/wordpool_categorized_EN.txt	PEAR	Fruit	2	9	[0, 0, 0]	n/a	catFR1	1	R1065J
919.997	2.432	971226	WORD	n/a	wordpools/wordpool_categorized_EN.txt	DRESSER	Furniture	3	9	[0, 0, 0]	n/a	catFR1	1	R1065J
922.429	2.602	973658	WORD	n/a	wordpools/wordpool_categorized_EN.txt	BOOKCASE	Furniture	4	9	[0, 0, 0]	n/a	catFR1	1	R1065J
925.031	2.617	976260	WORD	n/a	wordpools/wordpool_categorized_EN.txt	HEN	FarmAnimals	5	9	[0, 0, 0]	n/a	catFR1	1	R1065J
927.648	2.4	978877	WORD	n/a	wordpools/wordpool_categorized_EN.txt	ROOSTER	FarmAnimals	6	9	[0, 0, 0]	n/a	catFR1	1	R1065J
930.048	2.499	981277	WORD	n/a	wordpools/wordpool_categorized_EN.txt	CABINET	Furniture	7	9	[0, 0, 0]	n/a	catFR1	1	R1065J
932.547	2.402	983776	WORD	n/a	wordpools/wordpool_categorized_EN.txt	TABLE	Furniture	8	9	[0, 0, 0]	n/a	catFR1	1	R1065J
934.949	2.566	986178	WORD	n/a	wordpools/wordpool_categorized_EN.txt	BANANA	Fruit	9	9	[0, 0, 0]	n/a	catFR1	1	R1065J
937.515	2.501	988744	WORD	n/a	wordpools/wordpool_categorized_EN.txt	PEACH	Fruit	10	9	[0, 0, 0]	n/a	catFR1	1	R1065J
940.016	2.499	991245	WORD	n/a	wordpools/wordpool_categorized_EN.txt	CALF	FarmAnimals	11	9	[0, 0, 0]	n/a	catFR1	1	R1065J
942.515	1.601	993744	WORD	n/a	wordpools/wordpool_categorized_EN.txt	COW	FarmAnimals	12	9	[0, 0, 0]	n/a	catFR1	1	R1065J
944.116	0.001	995345	DISTRACT_START	n/a	n/a	n/a	n/a	-999	9	[0, 0, 0]	n/a	catFR1	1	R1065J
944.117	0.016	995346	START	n/a	n/a	n/a	n/a	-999	9	[-999, -999, -999]	n/a	catFR1	1	R1065J
944.133	2.383	995362	PROB	2.357	n/a	n/a	n/a	-999	9	[6, 6, 1]	13.0	catFR1	1	R1065J
946.516	1.735	997745	PROB	1.703	n/a	n/a	n/a	-999	9	[2, 9, 2]	13.0	catFR1	1	R1065J
948.251	1.733	999480	PROB	1.704	n/a	n/a	n/a	-999	9	[7, 2, 3]	12.0	catFR1	1	R1065J
949.984	1.85	1001213	PROB	1.819	n/a	n/a	n/a	-999	9	[5, 7, 8]	20.0	catFR1	1	R1065J
951.834	1.616	1003063	PROB	1.584	n/a	n/a	n/a	-999	9	[7, 7, 2]	16.0	catFR1	1	R1065J
953.45	1.685	1004679	PROB	1.649	n/a	n/a	n/a	-999	9	[9, 1, 2]	12.0	catFR1	1	R1065J
955.135	1.534	1006364	PROB	1.508	n/a	n/a	n/a	-999	9	[3, 3, 6]	12.0	catFR1	1	R1065J
956.669	2.517	1007898	PROB	2.486	n/a	n/a	n/a	-999	9	[1, 1, 1]	3.0	catFR1	1	R1065J
959.186	1.9	1010415	PROB	1.873	n/a	n/a	n/a	-999	9	[8, 2, 1]	11.0	catFR1	1	R1065J
961.086	2.033	1012315	PROB	2.004	n/a	n/a	n/a	-999	9	[7, 2, 6]	15.0	catFR1	1	R1065J
963.119	1.835	1014348	PROB	1.835	n/a	n/a	n/a	-999	9	[3, 5, 2]	10.0	catFR1	1	R1065J
964.954	0.016	1016183	STOP	n/a	n/a	n/a	n/a	-999	9	[-999, -999, -999]	n/a	catFR1	1	R1065J
964.97	1.184	1016199	DISTRACT_END	n/a	n/a	n/a	n/a	-999	9	[0, 0, 0]	n/a	catFR1	1	R1065J
966.154	1.615	1017383	REC_START	n/a	n/a	n/a	n/a	-999	9	[0, 0, 0]	n/a	catFR1	1	R1065J
967.769	1.953	1018998	REC_WORD	1.615	n/a	PLUM	Fruit	1	9	[0, 0, 0]	n/a	catFR1	1	R1065J
969.722	5.271	1020951	REC_WORD	3.568	n/a	PEACH	Fruit	10	9	[0, 0, 0]	n/a	catFR1	1	R1065J
974.993	5.125	1026222	REC_WORD	8.839	n/a	PEAR	Fruit	2	9	[0, 0, 0]	n/a	catFR1	1	R1065J
980.118	1.198	1031347	REC_WORD	13.964	n/a	BOOKCASE	Furniture	4	9	[0, 0, 0]	n/a	catFR1	1	R1065J
981.316	1.422	1032545	REC_WORD	15.162	n/a	DRESSER	Furniture	3	9	[0, 0, 0]	n/a	catFR1	1	R1065J
982.738	1.496	1033967	REC_WORD	16.584	n/a	CABINET	Furniture	7	9	[0, 0, 0]	n/a	catFR1	1	R1065J
984.234	11.931	1035463	REC_WORD	18.08	n/a	TABLE	Furniture	8	9	[0, 0, 0]	n/a	catFR1	1	R1065J
996.165	1.71	1047394	REC_END	n/a	n/a	n/a	n/a	-999	9	[0, 0, 0]	n/a	catFR1	1	R1065J
997.875	0.0	1049104	TRIAL	n/a	n/a	n/a	n/a	-999	10	[0, 0, 0]	n/a	catFR1	1	R1065J
997.875	10.428	1049104	COUNTDOWN_START	n/a	n/a	n/a	n/a	-999	10	[0, 0, 0]	n/a	catFR1	1	R1065J
1008.303	0.007	1059532	COUNTDOWN_END	n/a	n/a	n/a	n/a	-999	10	[0, 0, 0]	n/a	catFR1	1	R1065J
1008.31	3.717	1059539	ORIENT	n/a	n/a	n/a	n/a	-999	10	[0, 0, 0]	n/a	catFR1	1	R1065J
1012.027	2.583	1063256	WORD	n/a	wordpools/wordpool_categorized_EN.txt	EVERGREEN	Trees	1	10	[0, 0, 0]	n/a	catFR1	1	R1065J
1014.61	2.617	1065839	WORD	n/a	wordpools/wordpool_categorized_EN.txt	HICKORY	Trees	2	10	[0, 0, 0]	n/a	catFR1	1	R1065J
1017.227	2.601	1068456	WORD	n/a	wordpools/wordpool_categorized_EN.txt	MIXER	Appliances	3	10	[0, 0, 0]	n/a	catFR1	1	R1065J
1019.828	2.5	1071057	WORD	n/a	wordpools/wordpool_categorized_EN.txt	STOVE	Appliances	4	10	[0, 0, 0]	n/a	catFR1	1	R1065J
1022.328	2.617	1073557	WORD	n/a	wordpools/wordpool_categorized_EN.txt	COBBLER	Desserts	5	10	[0, 0, 0]	n/a	catFR1	1	R1065J
1024.945	2.483	1076174	WORD	n/a	wordpools/wordpool_categorized_EN.txt	CAKE	Desserts	6	10	[0, 0, 0]	n/a	catFR1	1	R1065J
1027.428	2.518	1078657	WORD	n/a	wordpools/wordpool_categorized_EN.txt	OVEN	Appliances	7	10	[0, 0, 0]	n/a	catFR1	1	R1065J
1029.946	2.566	1081175	WORD	n/a	wordpools/wordpool_categorized_EN.txt	REFRIGERATOR	Appliances	8	10	[0, 0, 0]	n/a	catFR1	1	R1065J
1032.512	2.485	1083741	WORD	n/a	wordpools/wordpool_categorized_EN.txt	CEDAR	Trees	9	10	[0, 0, 0]	n/a	catFR1	1	R1065J
1034.997	2.533	1086226	WORD	n/a	wordpools/wordpool_categorized_EN.txt	OAK	Trees	10	10	[0, 0, 0]	n/a	catFR1	1	R1065J
1037.53	2.501	1088759	WORD	n/a	wordpools/wordpool_categorized_EN.txt	PASTRY	Desserts	11	10	[0, 0, 0]	n/a	catFR1	1	R1065J
1040.031	1.617	1091260	WORD	n/a	wordpools/wordpool_categorized_EN.txt	JELLO	Desserts	12	10	[0, 0, 0]	n/a	catFR1	1	R1065J
1041.648	0.0	1092877	DISTRACT_START	n/a	n/a	n/a	n/a	-999	10	[0, 0, 0]	n/a	catFR1	1	R1065J
1041.648	0.016	1092877	START	n/a	n/a	n/a	n/a	-999	10	[-999, -999, -999]	n/a	catFR1	1	R1065J
1041.664	3.301	1092893	PROB	3.281	n/a	n/a	n/a	-999	10	[2, 7, 5]	14.0	catFR1	1	R1065J
1044.965	1.767	1096194	PROB	1.732	n/a	n/a	n/a	-999	10	[3, 2, 3]	8.0	catFR1	1	R1065J
1046.732	1.749	1097962	PROB	1.716	n/a	n/a	n/a	-999	10	[9, 1, 4]	14.0	catFR1	1	R1065J
1048.481	1.635	1099711	PROB	1.6	n/a	n/a	n/a	-999	10	[6, 6, 1]	13.0	catFR1	1	R1065J
1050.116	2.299	1101346	PROB	2.268	n/a	n/a	n/a	-999	10	[6, 1, 9]	16.0	catFR1	1	R1065J
1052.415	1.785	1103645	PROB	1.754	n/a	n/a	n/a	-999	10	[4, 8, 4]	16.0	catFR1	1	R1065J
1054.2	1.666	1105430	PROB	1.633	n/a	n/a	n/a	-999	10	[1, 6, 5]	12.0	catFR1	1	R1065J
1055.866	2.184	1107096	PROB	2.159	n/a	n/a	n/a	-999	10	[5, 6, 8]	19.0	catFR1	1	R1065J
1058.05	1.934	1109280	PROB	1.911	n/a	n/a	n/a	-999	10	[4, 9, 5]	18.0	catFR1	1	R1065J
1059.984	2.056	1111214	PROB	2.056	n/a	n/a	n/a	-999	10	[3, 2, 9]	14.0	catFR1	1	R1065J
1062.04	0.011	1113270	STOP	n/a	n/a	n/a	n/a	-999	10	[-999, -999, -999]	n/a	catFR1	1	R1065J
1062.051	1.05	1113281	DISTRACT_END	n/a	n/a	n/a	n/a	-999	10	[0, 0, 0]	n/a	catFR1	1	R1065J
1063.101	1.512	1114331	REC_START	n/a	n/a	n/a	n/a	-999	10	[0, 0, 0]	n/a	catFR1	1	R1065J
1064.613	1.5	1115843	REC_WORD	1.512	n/a	STOVE	Appliances	4	10	[0, 0, 0]	n/a	catFR1	1	R1065J
1066.113	0.919	1117343	REC_WORD	3.012	n/a	OVEN	Appliances	7	10	[0, 0, 0]	n/a	catFR1	1	R1065J
1067.032	1.081	1118262	REC_WORD	3.931	n/a	MIXER	Appliances	3	10	[0, 0, 0]	n/a	catFR1	1	R1065J
1068.113	1.977	1119343	REC_WORD	5.012	n/a	REFRIGERATOR	Appliances	8	10	[0, 0, 0]	n/a	catFR1	1	R1065J
1070.09	1.732	1121320	REC_WORD	6.989	n/a	COBBLER	Desserts	5	10	[0, 0, 0]	n/a	catFR1	1	R1065J
1071.822	2.697	1123052	REC_WORD	8.721	n/a	CAKE	Desserts	6	10	[0, 0, 0]	n/a	catFR1	1	R1065J
1074.519	18.597	1125749	REC_WORD	11.418	n/a	PASTRY	Desserts	11	10	[0, 0, 0]	n/a	catFR1	1	R1065J
1093.116	3.306	1144346	REC_END	n/a	n/a	n/a	n/a	-999	10	[0, 0, 0]	n/a	catFR1	1	R1065J
1096.422	0.0	1147652	TRIAL	n/a	n/a	n/a	n/a	-999	11	[0, 0, 0]	n/a	catFR1	1	R1065J
1096.422	10.428	1147652	COUNTDOWN_START	n/a	n/a	n/a	n/a	-999	11	[0, 0, 0]	n/a	catFR1	1	R1065J
1106.85	0.007	1158080	COUNTDOWN_END	n/a	n/a	n/a	n/a	-999	11	[0, 0, 0]	n/a	catFR1	1	R1065J
1106.857	3.834	1158087	ORIENT	n/a	n/a	n/a	n/a	-999	11	[0, 0, 0]	n/a	catFR1	1	R1065J
1110.691	2.434	1161921	WORD	n/a	wordpools/wordpool_categorized_EN.txt	COUCH	Furniture	1	11	[0, 0, 0]	n/a	catFR1	1	R1065J
1113.125	2.399	1164355	WORD	n/a	wordpools/wordpool_categorized_EN.txt	CHAIR	Furniture	2	11	[0, 0, 0]	n/a	catFR1	1	R1065J
1115.524	2.385	1166754	WORD	n/a	wordpools/wordpool_categorized_EN.txt	SODA	Beverages	3	11	[0, 0, 0]	n/a	catFR1	1	R1065J
1117.909	2.417	1169139	WORD	n/a	wordpools/wordpool_categorized_EN.txt	CIDER	Beverages	4	11	[0, 0, 0]	n/a	catFR1	1	R1065J
1120.326	2.55	1171556	WORD	n/a	wordpools/wordpool_categorized_EN.txt	PEN	OfficeSupplies	5	11	[0, 0, 0]	n/a	catFR1	1	R1065J
1122.876	2.5	1174106	WORD	n/a	wordpools/wordpool_categorized_EN.txt	BINDER	OfficeSupplies	6	11	[0, 0, 0]	n/a	catFR1	1	R1065J
1125.376	2.601	1176606	WORD	n/a	wordpools/wordpool_categorized_EN.txt	SHELF	Furniture	7	11	[0, 0, 0]	n/a	catFR1	1	R1065J
1127.977	2.416	1179207	WORD	n/a	wordpools/wordpool_categorized_EN.txt	BED	Furniture	8	11	[0, 0, 0]	n/a	catFR1	1	R1065J
1130.393	2.518	1181623	WORD	n/a	wordpools/wordpool_categorized_EN.txt	PAPER	OfficeSupplies	9	11	[0, 0, 0]	n/a	catFR1	1	R1065J
1132.911	2.4	1184141	WORD	n/a	wordpools/wordpool_categorized_EN.txt	NOTEBOOK	OfficeSupplies	10	11	[0, 0, 0]	n/a	catFR1	1	R1065J
1135.311	2.417	1186541	WORD	n/a	wordpools/wordpool_categorized_EN.txt	COLA	Beverages	11	11	[0, 0, 0]	n/a	catFR1	1	R1065J
1137.728	1.617	1188958	WORD	n/a	wordpools/wordpool_categorized_EN.txt	MILK	Beverages	12	11	[0, 0, 0]	n/a	catFR1	1	R1065J
1139.345	0.001	1190575	DISTRACT_START	n/a	n/a	n/a	n/a	-999	11	[0, 0, 0]	n/a	catFR1	1	R1065J
1139.346	0.016	1190576	START	n/a	n/a	n/a	n/a	-999	11	[-999, -999, -999]	n/a	catFR1	1	R1065J
1139.362	2.467	1190592	PROB	2.445	n/a	n/a	n/a	-999	11	[1, 8, 9]	18.0	catFR1	1	R1065J
1141.829	1.666	1193059	PROB	1.633	n/a	n/a	n/a	-999	11	[4, 6, 2]	12.0	catFR1	1	R1065J
1143.495	1.851	1194725	PROB	1.824	n/a	n/a	n/a	-999	11	[4, 8, 3]	15.0	catFR1	1	R1065J
1145.346	1.817	1196576	PROB	1.788	n/a	n/a	n/a	-999	11	[5, 6, 2]	13.0	catFR1	1	R1065J
1147.163	1.817	1198393	PROB	1.796	n/a	n/a	n/a	-999	11	[7, 9, 7]	23.0	catFR1	1	R1065J
1148.98	1.9	1200210	PROB	1.875	n/a	n/a	n/a	-999	11	[3, 9, 4]	16.0	catFR1	1	R1065J
1150.88	2.5	1202110	PROB	2.479	n/a	n/a	n/a	-999	11	[6, 9, 7]	22.0	catFR1	1	R1065J
1153.38	1.584	1204610	PROB	1.563	n/a	n/a	n/a	-999	11	[4, 4, 4]	12.0	catFR1	1	R1065J
1154.964	2.017	1206194	PROB	1.995	n/a	n/a	n/a	-999	11	[1, 3, 2]	6.0	catFR1	1	R1065J
1156.981	2.456	1208211	PROB	2.456	n/a	n/a	n/a	-999	11	[1, 6, 3]	10.0	catFR1	1	R1065J
1159.437	0.01	1210667	STOP	n/a	n/a	n/a	n/a	-999	11	[-999, -999, -999]	n/a	catFR1	1	R1065J
1159.447	1.084	1210677	DISTRACT_END	n/a	n/a	n/a	n/a	-999	11	[0, 0, 0]	n/a	catFR1	1	R1065J
1160.531	1.174	1211761	REC_START	n/a	n/a	n/a	n/a	-999	11	[0, 0, 0]	n/a	catFR1	1	R1065J
1161.705	1.376	1212935	REC_WORD	1.174	n/a	SODA	Beverages	3	11	[0, 0, 0]	n/a	catFR1	1	R1065J
1163.081	1.357	1214311	REC_WORD	2.55	n/a	COLA	Beverages	11	11	[0, 0, 0]	n/a	catFR1	1	R1065J
1164.438	1.659	1215668	REC_WORD	3.907	n/a	MILK	Beverages	12	11	[0, 0, 0]	n/a	catFR1	1	R1065J
1166.097	1.53	1217327	REC_WORD	5.566	n/a	CHAIR	Furniture	2	11	[0, 0, 0]	n/a	catFR1	1	R1065J
1167.627	2.531	1218857	REC_WORD	7.096	n/a	SOFA	n/a	-999	11	[0, 0, 0]	n/a	catFR1	1	R1065J
1170.158	20.388	1221388	REC_WORD	9.627	n/a	BED	Furniture	8	11	[0, 0, 0]	n/a	catFR1	1	R1065J
1190.546	1.989	1241776	REC_END	n/a	n/a	n/a	n/a	-999	11	[0, 0, 0]	n/a	catFR1	1	R1065J
1192.535	0.001	1243765	COUNTDOWN_START	n/a	n/a	n/a	n/a	-999	12	[0, 0, 0]	n/a	catFR1	1	R1065J
1192.536	10.427	1243766	TRIAL	n/a	n/a	n/a	n/a	-999	12	[0, 0, 0]	n/a	catFR1	1	R1065J
1202.963	0.008	1254193	COUNTDOWN_END	n/a	n/a	n/a	n/a	-999	12	[0, 0, 0]	n/a	catFR1	1	R1065J
1202.971	3.601	1254201	ORIENT	n/a	n/a	n/a	n/a	-999	12	[0, 0, 0]	n/a	catFR1	1	R1065J
1206.572	2.567	1257802	WORD	n/a	wordpools/wordpool_categorized_EN.txt	TAPE	OfficeSupplies	1	12	[0, 0, 0]	n/a	catFR1	1	R1065J
1209.139	2.534	1260369	WORD	n/a	wordpools/wordpool_categorized_EN.txt	PENCIL	OfficeSupplies	2	12	[0, 0, 0]	n/a	catFR1	1	R1065J
1211.673	2.567	1262903	WORD	n/a	wordpools/wordpool_categorized_EN.txt	ZEBRA	Zoo	3	12	[0, 0, 0]	n/a	catFR1	1	R1065J
1214.24	2.467	1265470	WORD	n/a	wordpools/wordpool_categorized_EN.txt	ELEPHANT	Zoo	4	12	[0, 0, 0]	n/a	catFR1	1	R1065J
1216.707	2.6	1267937	WORD	n/a	wordpools/wordpool_categorized_EN.txt	CUPCAKE	Desserts	5	12	[0, 0, 0]	n/a	catFR1	1	R1065J
1219.307	2.4	1270537	WORD	n/a	wordpools/wordpool_categorized_EN.txt	BROWNIES	Desserts	6	12	[0, 0, 0]	n/a	catFR1	1	R1065J
1221.707	2.551	1272937	WORD	n/a	wordpools/wordpool_categorized_EN.txt	FOLDER	OfficeSupplies	7	12	[0, 0, 0]	n/a	catFR1	1	R1065J
1224.258	2.383	1275488	WORD	n/a	wordpools/wordpool_categorized_EN.txt	STAPLER	OfficeSupplies	8	12	[0, 0, 0]	n/a	catFR1	1	R1065J
1226.641	2.584	1277871	WORD	n/a	wordpools/wordpool_categorized_EN.txt	CHEESECAKE	Desserts	9	12	[0, 0, 0]	n/a	catFR1	1	R1065J
1229.225	2.584	1280455	WORD	n/a	wordpools/wordpool_categorized_EN.txt	MOUSSE	Desserts	10	12	[0, 0, 0]	n/a	catFR1	1	R1065J
1231.809	2.4	1283039	WORD	n/a	wordpools/wordpool_categorized_EN.txt	ORANGUTAN	Zoo	11	12	[0, 0, 0]	n/a	catFR1	1	R1065J
1234.209	1.617	1285439	WORD	n/a	wordpools/wordpool_categorized_EN.txt	BEAR	Zoo	12	12	[0, 0, 0]	n/a	catFR1	1	R1065J
1235.826	0.001	1287056	DISTRACT_START	n/a	n/a	n/a	n/a	-999	12	[0, 0, 0]	n/a	catFR1	1	R1065J
1235.827	0.016	1287057	START	n/a	n/a	n/a	n/a	-999	12	[-999, -999, -999]	n/a	catFR1	1	R1065J
1235.843	2.582	1287073	PROB	2.552	n/a	n/a	n/a	-999	12	[9, 9, 4]	22.0	catFR1	1	R1065J
1238.425	2.101	1289655	PROB	2.066	n/a	n/a	n/a	-999	12	[6, 8, 6]	20.0	catFR1	1	R1065J
1240.526	1.85	1291756	PROB	1.831	n/a	n/a	n/a	-999	12	[1, 6, 6]	13.0	catFR1	1	R1065J
1242.376	2.468	1293606	PROB	2.436	n/a	n/a	n/a	-999	12	[2, 9, 8]	19.0	catFR1	1	R1065J
1244.844	1.599	1296074	PROB	1.568	n/a	n/a	n/a	-999	12	[2, 1, 2]	5.0	catFR1	1	R1065J
1246.443	1.852	1297673	PROB	1.818	n/a	n/a	n/a	-999	12	[6, 9, 4]	19.0	catFR1	1	R1065J
1248.295	1.667	1299525	PROB	1.637	n/a	n/a	n/a	-999	12	[3, 2, 8]	13.0	catFR1	1	R1065J
1249.962	3.617	1301192	PROB	3.593	n/a	n/a	n/a	-999	12	[9, 9, 8]	26.0	catFR1	1	R1065J
1253.579	2.25	1304809	PROB	2.217	n/a	n/a	n/a	-999	12	[2, 9, 3]	14.0	catFR1	1	R1065J
1255.829	2.151	1307059	PROB	2.151	n/a	n/a	n/a	-999	12	[4, 7, 2]	13.0	catFR1	1	R1065J
1257.98	0.016	1309210	STOP	n/a	n/a	n/a	n/a	-999	12	[-999, -999, -999]	n/a	catFR1	1	R1065J
1257.996	1.052	1309226	DISTRACT_END	n/a	n/a	n/a	n/a	-999	12	[0, 0, 0]	n/a	catFR1	1	R1065J
1259.048	1.406	1310278	REC_START	n/a	n/a	n/a	n/a	-999	12	[0, 0, 0]	n/a	catFR1	1	R1065J
1260.454	1.414	1311684	REC_WORD	1.406	n/a	ORANGUTAN	Zoo	11	12	[0, 0, 0]	n/a	catFR1	1	R1065J
1261.868	1.579	1313098	REC_WORD	2.82	n/a	ZEBRA	Zoo	3	12	[0, 0, 0]	n/a	catFR1	1	R1065J
1263.447	1.413	1314677	REC_WORD	4.399	n/a	BEAR	Zoo	12	12	[0, 0, 0]	n/a	catFR1	1	R1065J
1264.86	1.778	1316090	REC_WORD	5.812	n/a	BROWNIES	Desserts	6	12	[0, 0, 0]	n/a	catFR1	1	R1065J
1266.638	2.846	1317868	REC_WORD	7.59	n/a	CHEESECAKE	Desserts	9	12	[0, 0, 0]	n/a	catFR1	1	R1065J
1269.484	3.055	1320714	REC_WORD	10.436	n/a	CUPCAKE	Desserts	5	12	[0, 0, 0]	n/a	catFR1	1	R1065J
1272.539	2.415	1323769	REC_WORD	13.491	n/a	PENCIL	OfficeSupplies	2	12	[0, 0, 0]	n/a	catFR1	1	R1065J
1274.954	1.524	1326184	REC_WORD	15.906	n/a	PAPER	n/a	-999	12	[0, 0, 0]	n/a	catFR1	1	R1065J
1276.478	12.58	1327708	REC_WORD	17.43	n/a	TAPE	OfficeSupplies	1	12	[0, 0, 0]	n/a	catFR1	1	R1065J
1289.058	1.743	1340288	REC_END	n/a	n/a	n/a	n/a	-999	12	[0, 0, 0]	n/a	catFR1	1	R1065J
1290.801	0.0	1342031	TRIAL	n/a	n/a	n/a	n/a	-999	13	[0, 0, 0]	n/a	catFR1	1	R1065J
1290.801	10.428	1342031	COUNTDOWN_START	n/a	n/a	n/a	n/a	-999	13	[0, 0, 0]	n/a	catFR1	1	R1065J
1301.229	0.006	1352459	COUNTDOWN_END	n/a	n/a	n/a	n/a	-999	13	[0, 0, 0]	n/a	catFR1	1	R1065J
1301.235	3.701	1352465	ORIENT	n/a	n/a	n/a	n/a	-999	13	[0, 0, 0]	n/a	catFR1	1	R1065J
1304.936	2.616	1356166	WORD	n/a	wordpools/wordpool_categorized_EN.txt	TELEVISION	Electronics	1	13	[0, 0, 0]	n/a	catFR1	1	R1065J
1307.552	2.485	1358782	WORD	n/a	wordpools/wordpool_categorized_EN.txt	HEADPHONES	Electronics	2	13	[0, 0, 0]	n/a	catFR1	1	R1065J
1310.037	2.466	1361267	WORD	n/a	wordpools/wordpool_categorized_EN.txt	MOTORCYCLE	Vehicles	3	13	[0, 0, 0]	n/a	catFR1	1	R1065J
1312.503	2.435	1363733	WORD	n/a	wordpools/wordpool_categorized_EN.txt	BIKE	Vehicles	4	13	[0, 0, 0]	n/a	catFR1	1	R1065J
1314.938	2.582	1366168	WORD	n/a	wordpools/wordpool_categorized_EN.txt	JACKET	Clothing	5	13	[0, 0, 0]	n/a	catFR1	1	R1065J
1317.52	2.402	1368750	WORD	n/a	wordpools/wordpool_categorized_EN.txt	SKIRT	Clothing	6	13	[0, 0, 0]	n/a	catFR1	1	R1065J
1319.922	2.449	1371152	WORD	n/a	wordpools/wordpool_categorized_EN.txt	BUS	Vehicles	7	13	[0, 0, 0]	n/a	catFR1	1	R1065J
1322.371	2.468	1373601	WORD	n/a	wordpools/wordpool_categorized_EN.txt	JEEP	Vehicles	8	13	[0, 0, 0]	n/a	catFR1	1	R1065J
1324.839	2.484	1376069	WORD	n/a	wordpools/wordpool_categorized_EN.txt	TABLET	Electronics	9	13	[0, 0, 0]	n/a	catFR1	1	R1065J
1327.323	2.383	1378553	WORD	n/a	wordpools/wordpool_categorized_EN.txt	PRINTER	Electronics	10	13	[0, 0, 0]	n/a	catFR1	1	R1065J
1329.706	2.584	1380936	WORD	n/a	wordpools/wordpool_categorized_EN.txt	PANTS	Clothing	11	13	[0, 0, 0]	n/a	catFR1	1	R1065J
1332.29	1.617	1383520	WORD	n/a	wordpools/wordpool_categorized_EN.txt	BLOUSE	Clothing	12	13	[0, 0, 0]	n/a	catFR1	1	R1065J
1333.907	0.001	1385137	DISTRACT_START	n/a	n/a	n/a	n/a	-999	13	[0, 0, 0]	n/a	catFR1	1	R1065J
1333.908	0.016	1385138	START	n/a	n/a	n/a	n/a	-999	13	[-999, -999, -999]	n/a	catFR1	1	R1065J
1333.924	2.35	1385154	PROB	2.327	n/a	n/a	n/a	-999	13	[4, 4, 6]	14.0	catFR1	1	R1065J
1336.274	4.651	1387504	PROB	4.624	n/a	n/a	n/a	-999	13	[9, 6, 8]	23.0	catFR1	1	R1065J
1340.925	2.0	1392155	PROB	1.965	n/a	n/a	n/a	-999	13	[6, 6, 8]	20.0	catFR1	1	R1065J
1342.925	2.15	1394155	PROB	2.125	n/a	n/a	n/a	-999	13	[9, 8, 1]	18.0	catFR1	1	R1065J
1345.075	1.767	1396305	PROB	1.744	n/a	n/a	n/a	-999	13	[5, 4, 9]	18.0	catFR1	1	R1065J
1346.842	1.834	1398072	PROB	1.809	n/a	n/a	n/a	-999	13	[1, 3, 7]	11.0	catFR1	1	R1065J
1348.676	1.799	1399906	PROB	1.773	n/a	n/a	n/a	-999	13	[3, 4, 6]	13.0	catFR1	1	R1065J
1350.475	2.368	1401705	PROB	2.343	n/a	n/a	n/a	-999	13	[9, 9, 2]	20.0	catFR1	1	R1065J
1352.843	2.519	1404074	PROB	2.519	n/a	n/a	n/a	-999	13	[5, 9, 3]	17.0	catFR1	1	R1065J
1355.362	0.014	1406593	STOP	n/a	n/a	n/a	n/a	-999	13	[-999, -999, -999]	n/a	catFR1	1	R1065J
1355.376	1.235	1406607	DISTRACT_END	n/a	n/a	n/a	n/a	-999	13	[0, 0, 0]	n/a	catFR1	1	R1065J
1356.611	1.101	1407842	REC_START	n/a	n/a	n/a	n/a	-999	13	[0, 0, 0]	n/a	catFR1	1	R1065J
1357.712	1.765	1408943	REC_WORD	1.101	n/a	MOTORCYCLE	Vehicles	3	13	[0, 0, 0]	n/a	catFR1	1	R1065J
1359.477	1.227	1410708	REC_WORD	2.866	n/a	JACKET	Clothing	5	13	[0, 0, 0]	n/a	catFR1	1	R1065J
1360.704	2.233	1411935	REC_WORD	4.093	n/a	PANTS	Clothing	11	13	[0, 0, 0]	n/a	catFR1	1	R1065J
1362.937	1.535	1414168	REC_WORD	6.326	n/a	BUS	Vehicles	7	13	[0, 0, 0]	n/a	catFR1	1	R1065J
1364.472	3.443	1415703	REC_WORD	7.861	n/a	JEEP	Vehicles	8	13	[0, 0, 0]	n/a	catFR1	1	R1065J
1367.915	18.708	1419146	REC_WORD	11.304	n/a	TELEVISION	Electronics	1	13	[0, 0, 0]	n/a	catFR1	1	R1065J
1386.623	1.542	1437854	REC_END	n/a	n/a	n/a	n/a	-999	13	[0, 0, 0]	n/a	catFR1	1	R1065J
1388.165	0.0	1439396	TRIAL	n/a	n/a	n/a	n/a	-999	14	[0, 0, 0]	n/a	catFR1	1	R1065J
1388.165	10.428	1439396	COUNTDOWN_START	n/a	n/a	n/a	n/a	-999	14	[0, 0, 0]	n/a	catFR1	1	R1065J
1398.593	0.007	1449824	COUNTDOWN_END	n/a	n/a	n/a	n/a	-999	14	[0, 0, 0]	n/a	catFR1	1	R1065J
1398.6	3.65	1449831	ORIENT	n/a	n/a	n/a	n/a	-999	14	[0, 0, 0]	n/a	catFR1	1	R1065J
1402.25	2.418	1453481	WORD	n/a	wordpools/wordpool_categorized_EN.txt	WHISK	KitchenTools	1	14	[0, 0, 0]	n/a	catFR1	1	R1065J
1404.668	2.483	1455899	WORD	n/a	wordpools/wordpool_categorized_EN.txt	KNIFE	KitchenTools	2	14	[0, 0, 0]	n/a	catFR1	1	R1065J
1407.151	2.4	1458382	WORD	n/a	wordpools/wordpool_categorized_EN.txt	LAMB	FarmAnimals	3	14	[0, 0, 0]	n/a	catFR1	1	R1065J
1409.551	2.434	1460782	WORD	n/a	wordpools/wordpool_categorized_EN.txt	CHICKEN	FarmAnimals	4	14	[0, 0, 0]	n/a	catFR1	1	R1065J
1411.985	2.45	1463216	WORD	n/a	wordpools/wordpool_categorized_EN.txt	WINDOW	Building	5	14	[0, 0, 0]	n/a	catFR1	1	R1065J
1414.435	2.618	1465666	WORD	n/a	wordpools/wordpool_categorized_EN.txt	ROOM	Building	6	14	[0, 0, 0]	n/a	catFR1	1	R1065J
1417.053	2.583	1468284	WORD	n/a	wordpools/wordpool_categorized_EN.txt	LADLE	KitchenTools	7	14	[0, 0, 0]	n/a	catFR1	1	R1065J
1419.636	2.417	1470867	WORD	n/a	wordpools/wordpool_categorized_EN.txt	FORK	KitchenTools	8	14	[0, 0, 0]	n/a	catFR1	1	R1065J
1422.053	2.534	1473284	WORD	n/a	wordpools/wordpool_categorized_EN.txt	ROOF	Building	9	14	[0, 0, 0]	n/a	catFR1	1	R1065J
1424.587	2.434	1475818	WORD	n/a	wordpools/wordpool_categorized_EN.txt	CEILING	Building	10	14	[0, 0, 0]	n/a	catFR1	1	R1065J
1427.021	2.482	1478252	WORD	n/a	wordpools/wordpool_categorized_EN.txt	GOAT	FarmAnimals	11	14	[0, 0, 0]	n/a	catFR1	1	R1065J
1429.503	1.601	1480734	WORD	n/a	wordpools/wordpool_categorized_EN.txt	HORSE	FarmAnimals	12	14	[0, 0, 0]	n/a	catFR1	1	R1065J
1431.104	0.001	1482335	DISTRACT_START	n/a	n/a	n/a	n/a	-999	14	[0, 0, 0]	n/a	catFR1	1	R1065J
1431.105	0.016	1482336	START	n/a	n/a	n/a	n/a	-999	14	[-999, -999, -999]	n/a	catFR1	1	R1065J
1431.121	2.517	1482352	PROB	2.495	n/a	n/a	n/a	-999	14	[8, 2, 7]	17.0	catFR1	1	R1065J
1433.638	2.417	1484869	PROB	2.386	n/a	n/a	n/a	-999	14	[9, 8, 4]	23.0	catFR1	1	R1065J
1436.055	2.151	1487286	PROB	2.129	n/a	n/a	n/a	-999	14	[7, 1, 2]	10.0	catFR1	1	R1065J
1438.206	1.883	1489437	PROB	1.85	n/a	n/a	n/a	-999	14	[7, 9, 3]	19.0	catFR1	1	R1065J
1440.089	1.734	1491320	PROB	1.703	n/a	n/a	n/a	-999	14	[1, 5, 8]	14.0	catFR1	1	R1065J
1441.823	1.85	1493054	PROB	1.817	n/a	n/a	n/a	-999	14	[4, 4, 2]	10.0	catFR1	1	R1065J
1443.673	3.567	1494904	PROB	3.543	n/a	n/a	n/a	-999	14	[7, 9, 9]	25.0	catFR1	1	R1065J
1447.24	2.266	1498471	PROB	2.239	n/a	n/a	n/a	-999	14	[5, 4, 8]	17.0	catFR1	1	R1065J
1449.506	1.79	1500737	PROB	1.79	n/a	n/a	n/a	-999	14	[1, 3, 8]	12.0	catFR1	1	R1065J
1451.296	0.012	1502527	STOP	n/a	n/a	n/a	n/a	-999	14	[-999, -999, -999]	n/a	catFR1	1	R1065J
1451.308	1.099	1502539	DISTRACT_END	n/a	n/a	n/a	n/a	-999	14	[0, 0, 0]	n/a	catFR1	1	R1065J
1452.407	1.22	1503638	REC_START	n/a	n/a	n/a	n/a	-999	14	[0, 0, 0]	n/a	catFR1	1	R1065J
1453.627	1.218	1504858	REC_WORD	1.22	n/a	HORSE	FarmAnimals	12	14	[0, 0, 0]	n/a	catFR1	1	R1065J
1454.845	1.273	1506076	REC_WORD	2.438	n/a	GOAT	FarmAnimals	11	14	[0, 0, 0]	n/a	catFR1	1	R1065J
1456.118	1.317	1507349	REC_WORD	3.711	n/a	LAMB	FarmAnimals	3	14	[0, 0, 0]	n/a	catFR1	1	R1065J
1457.435	2.681	1508666	REC_WORD	5.028	n/a	CHICKEN	FarmAnimals	4	14	[0, 0, 0]	n/a	catFR1	1	R1065J
1460.116	2.146	1511347	REC_WORD	7.709	n/a	WINDOW	Building	5	14	[0, 0, 0]	n/a	catFR1	1	R1065J
1462.262	9.424	1513493	REC_WORD	9.855	n/a	ROOM	Building	6	14	[0, 0, 0]	n/a	catFR1	1	R1065J
1471.686	1.449	1522917	REC_WORD	19.279	n/a	FORK	KitchenTools	8	14	[0, 0, 0]	n/a	catFR1	1	R1065J
1473.135	1.499	1524366	REC_WORD	20.728	n/a	WHISK	KitchenTools	1	14	[0, 0, 0]	n/a	catFR1	1	R1065J
1474.634	7.788	1525865	REC_WORD	22.227	n/a	LADLE	KitchenTools	7	14	[0, 0, 0]	n/a	catFR1	1	R1065J
1482.422	1.757	1533653	REC_END	n/a	n/a	n/a	n/a	-999	14	[0, 0, 0]	n/a	catFR1	1	R1065J
1484.179	0.0	1535410	TRIAL	n/a	n/a	n/a	n/a	-999	15	[0, 0, 0]	n/a	catFR1	1	R1065J
1484.179	10.428	1535410	COUNTDOWN_START	n/a	n/a	n/a	n/a	-999	15	[0, 0, 0]	n/a	catFR1	1	R1065J
1494.607	0.007	1545838	COUNTDOWN_END	n/a	n/a	n/a	n/a	-999	15	[0, 0, 0]	n/a	catFR1	1	R1065J
1494.614	3.617	1545845	ORIENT	n/a	n/a	n/a	n/a	-999	15	[0, 0, 0]	n/a	catFR1	1	R1065J
1498.231	2.467	1549462	WORD	n/a	wordpools/wordpool_categorized_EN.txt	CRAB	OceanAnimals	1	15	[0, 0, 0]	n/a	catFR1	1	R1065J
1500.698	2.55	1551929	WORD	n/a	wordpools/wordpool_categorized_EN.txt	OYSTER	OceanAnimals	2	15	[0, 0, 0]	n/a	catFR1	1	R1065J
1503.248	2.451	1554479	WORD	n/a	wordpools/wordpool_categorized_EN.txt	GRAPE	Fruit	3	15	[0, 0, 0]	n/a	catFR1	1	R1065J
1505.699	2.434	1556930	WORD	n/a	wordpools/wordpool_categorized_EN.txt	CHERRY	Fruit	4	15	[0, 0, 0]	n/a	catFR1	1	R1065J
1508.133	2.45	1559364	WORD	n/a	wordpools/wordpool_categorized_EN.txt	LEG	BodyParts	5	15	[0, 0, 0]	n/a	catFR1	1	R1065J
1510.583	2.417	1561814	WORD	n/a	wordpools/wordpool_categorized_EN.txt	EAR	BodyParts	6	15	[0, 0, 0]	n/a	catFR1	1	R1065J
1513.0	2.499	1564231	WORD	n/a	wordpools/wordpool_categorized_EN.txt	STRAWBERRY	Fruit	7	15	[0, 0, 0]	n/a	catFR1	1	R1065J
1515.499	2.469	1566730	WORD	n/a	wordpools/wordpool_categorized_EN.txt	LIME	Fruit	8	15	[0, 0, 0]	n/a	catFR1	1	R1065J
1517.968	2.565	1569199	WORD	n/a	wordpools/wordpool_categorized_EN.txt	JELLYFISH	OceanAnimals	9	15	[0, 0, 0]	n/a	catFR1	1	R1065J
1520.533	2.468	1571764	WORD	n/a	wordpools/wordpool_categorized_EN.txt	SQUID	OceanAnimals	10	15	[0, 0, 0]	n/a	catFR1	1	R1065J
1523.001	2.584	1574232	WORD	n/a	wordpools/wordpool_categorized_EN.txt	HAND	BodyParts	11	15	[0, 0, 0]	n/a	catFR1	1	R1065J
1525.585	1.617	1576816	WORD	n/a	wordpools/wordpool_categorized_EN.txt	NOSE	BodyParts	12	15	[0, 0, 0]	n/a	catFR1	1	R1065J
1527.202	0.001	1578433	DISTRACT_START	n/a	n/a	n/a	n/a	-999	15	[0, 0, 0]	n/a	catFR1	1	R1065J
1527.203	0.016	1578434	START	n/a	n/a	n/a	n/a	-999	15	[-999, -999, -999]	n/a	catFR1	1	R1065J
1527.219	2.984	1578450	PROB	2.955	n/a	n/a	n/a	-999	15	[9, 7, 7]	23.0	catFR1	1	R1065J
1530.203	2.6	1581434	PROB	2.579	n/a	n/a	n/a	-999	15	[3, 8, 4]	15.0	catFR1	1	R1065J
1532.803	1.8	1584034	PROB	1.779	n/a	n/a	n/a	-999	15	[7, 6, 5]	18.0	catFR1	1	R1065J
1534.603	2.201	1585834	PROB	2.171	n/a	n/a	n/a	-999	15	[8, 9, 6]	24.0	catFR1	1	R1065J
1536.804	2.216	1588035	PROB	2.186	n/a	n/a	n/a	-999	15	[8, 8, 6]	22.0	catFR1	1	R1065J
1539.02	1.784	1590251	PROB	1.762	n/a	n/a	n/a	-999	15	[4, 6, 9]	19.0	catFR1	1	R1065J
1540.804	2.15	1592035	PROB	2.122	n/a	n/a	n/a	-999	15	[5, 4, 5]	14.0	catFR1	1	R1065J
1542.954	2.017	1594185	PROB	1.988	n/a	n/a	n/a	-999	15	[4, 2, 1]	7.0	catFR1	1	R1065J
1544.971	2.084	1596202	PROB	2.059	n/a	n/a	n/a	-999	15	[7, 9, 1]	17.0	catFR1	1	R1065J
1547.055	1.823	1598286	PROB	1.823	n/a	n/a	n/a	-999	15	[3, 1, 5]	9.0	catFR1	1	R1065J
1548.878	0.011	1600109	STOP	n/a	n/a	n/a	n/a	-999	15	[-999, -999, -999]	n/a	catFR1	1	R1065J
1548.889	1.134	1600120	DISTRACT_END	n/a	n/a	n/a	n/a	-999	15	[0, 0, 0]	n/a	catFR1	1	R1065J
1550.023	1.718	1601254	REC_START	n/a	n/a	n/a	n/a	-999	15	[0, 0, 0]	n/a	catFR1	1	R1065J
1551.741	2.461	1602972	REC_WORD	1.718	n/a	CRAB	OceanAnimals	1	15	[0, 0, 0]	n/a	catFR1	1	R1065J
1554.202	3.045	1605433	REC_WORD	4.179	n/a	JELLYFISH	OceanAnimals	9	15	[0, 0, 0]	n/a	catFR1	1	R1065J
1557.247	3.742	1608478	REC_WORD	7.224	n/a	SQUID	OceanAnimals	10	15	[0, 0, 0]	n/a	catFR1	1	R1065J
1560.989	1.861	1612220	REC_WORD	10.966	n/a	LEG	BodyParts	5	15	[0, 0, 0]	n/a	catFR1	1	R1065J
1562.85	2.959	1614081	REC_WORD	12.827	n/a	HAND	BodyParts	11	15	[0, 0, 0]	n/a	catFR1	1	R1065J
1565.809	14.225	1617040	REC_WORD	15.786	n/a	NOSE	BodyParts	12	15	[0, 0, 0]	n/a	catFR1	1	R1065J
1580.034	1.826	1631265	REC_END	n/a	n/a	n/a	n/a	-999	15	[0, 0, 0]	n/a	catFR1	1	R1065J
1581.86	0.0	1633091	TRIAL	n/a	n/a	n/a	n/a	-999	16	[0, 0, 0]	n/a	catFR1	1	R1065J
1581.86	10.428	1633091	COUNTDOWN_START	n/a	n/a	n/a	n/a	-999	16	[0, 0, 0]	n/a	catFR1	1	R1065J
1592.288	0.007	1643519	COUNTDOWN_END	n/a	n/a	n/a	n/a	-999	16	[0, 0, 0]	n/a	catFR1	1	R1065J
1592.295	3.95	1643526	ORIENT	n/a	n/a	n/a	n/a	-999	16	[0, 0, 0]	n/a	catFR1	1	R1065J
1596.245	2.518	1647476	WORD	n/a	wordpools/wordpool_categorized_EN.txt	TROMBONE	Instruments	1	16	[0, 0, 0]	n/a	catFR1	1	R1065J
1598.763	2.566	1649994	WORD	n/a	wordpools/wordpool_categorized_EN.txt	PIANO	Instruments	2	16	[0, 0, 0]	n/a	catFR1	1	R1065J
1601.329	2.451	1652560	WORD	n/a	wordpools/wordpool_categorized_EN.txt	ERASER	OfficeSupplies	3	16	[0, 0, 0]	n/a	catFR1	1	R1065J
1603.78	2.417	1655011	WORD	n/a	wordpools/wordpool_categorized_EN.txt	RULER	OfficeSupplies	4	16	[0, 0, 0]	n/a	catFR1	1	R1065J
1606.197	2.6	1657428	WORD	n/a	wordpools/wordpool_categorized_EN.txt	PIGEON	Birds	5	16	[0, 0, 0]	n/a	catFR1	1	R1065J
1608.797	2.567	1660028	WORD	n/a	wordpools/wordpool_categorized_EN.txt	GOOSE	Birds	6	16	[0, 0, 0]	n/a	catFR1	1	R1065J
1611.364	2.467	1662595	WORD	n/a	wordpools/wordpool_categorized_EN.txt	TRUMPET	Instruments	7	16	[0, 0, 0]	n/a	catFR1	1	R1065J
1613.831	2.534	1665062	WORD	n/a	wordpools/wordpool_categorized_EN.txt	BASS	Instruments	8	16	[0, 0, 0]	n/a	catFR1	1	R1065J
1616.365	2.467	1667596	WORD	n/a	wordpools/wordpool_categorized_EN.txt	SEAGULL	Birds	9	16	[0, 0, 0]	n/a	catFR1	1	R1065J
1618.832	2.583	1670063	WORD	n/a	wordpools/wordpool_categorized_EN.txt	HAWK	Birds	10	16	[0, 0, 0]	n/a	catFR1	1	R1065J
1621.415	2.434	1672646	WORD	n/a	wordpools/wordpool_categorized_EN.txt	MARKER	OfficeSupplies	11	16	[0, 0, 0]	n/a	catFR1	1	R1065J
1623.849	1.616	1675080	WORD	n/a	wordpools/wordpool_categorized_EN.txt	GLUE	OfficeSupplies	12	16	[0, 0, 0]	n/a	catFR1	1	R1065J
1625.465	0.001	1676696	DISTRACT_START	n/a	n/a	n/a	n/a	-999	16	[0, 0, 0]	n/a	catFR1	1	R1065J
1625.466	0.016	1676697	START	n/a	n/a	n/a	n/a	-999	16	[-999, -999, -999]	n/a	catFR1	1	R1065J
1625.482	2.451	1676713	PROB	2.418	n/a	n/a	n/a	-999	16	[8, 2, 3]	13.0	catFR1	1	R1065J
1627.933	1.917	1679164	PROB	1.895	n/a	n/a	n/a	-999	16	[6, 5, 3]	14.0	catFR1	1	R1065J
1629.85	1.65	1681081	PROB	1.617	n/a	n/a	n/a	-999	16	[5, 1, 6]	12.0	catFR1	1	R1065J
1631.5	2.05	1682731	PROB	2.015	n/a	n/a	n/a	-999	16	[3, 3, 9]	15.0	catFR1	1	R1065J
1633.55	2.135	1684781	PROB	2.11	n/a	n/a	n/a	-999	16	[7, 6, 4]	17.0	catFR1	1	R1065J
1635.685	1.967	1686916	PROB	1.943	n/a	n/a	n/a	-999	16	[3, 2, 3]	8.0	catFR1	1	R1065J
1637.652	1.716	1688883	PROB	1.696	n/a	n/a	n/a	-999	16	[9, 7, 1]	17.0	catFR1	1	R1065J
1639.368	1.701	1690599	PROB	1.668	n/a	n/a	n/a	-999	16	[3, 5, 4]	12.0	catFR1	1	R1065J
1641.069	1.95	1692300	PROB	1.927	n/a	n/a	n/a	-999	16	[3, 8, 8]	19.0	catFR1	1	R1065J
1643.019	1.967	1694250	PROB	1.937	n/a	n/a	n/a	-999	16	[4, 5, 2]	11.0	catFR1	1	R1065J
1644.986	3.162	1696217	PROB	3.162	n/a	n/a	n/a	-999	16	[4, 4, 5]	13.0	catFR1	1	R1065J
1648.148	0.005	1699379	STOP	n/a	n/a	n/a	n/a	-999	16	[-999, -999, -999]	n/a	catFR1	1	R1065J
1648.153	1.134	1699384	DISTRACT_END	n/a	n/a	n/a	n/a	-999	16	[0, 0, 0]	n/a	catFR1	1	R1065J
1649.287	1.004	1700518	REC_START	n/a	n/a	n/a	n/a	-999	16	[0, 0, 0]	n/a	catFR1	1	R1065J
1650.291	1.271	1701522	REC_WORD	1.004	n/a	HAWK	Birds	10	16	[0, 0, 0]	n/a	catFR1	1	R1065J
1651.562	1.794	1702793	REC_WORD	2.275	n/a	SEAGULL	Birds	9	16	[0, 0, 0]	n/a	catFR1	1	R1065J
1653.356	2.611	1704587	REC_WORD	4.069	n/a	PIGEON	Birds	5	16	[0, 0, 0]	n/a	catFR1	1	R1065J
1655.967	23.335	1707198	REC_WORD	6.68	n/a	GLUE	OfficeSupplies	12	16	[0, 0, 0]	n/a	catFR1	1	R1065J
1679.302	1.889	1730534	REC_END	n/a	n/a	n/a	n/a	-999	16	[0, 0, 0]	n/a	catFR1	1	R1065J
1681.191	0.0	1732423	COUNTDOWN_START	n/a	n/a	n/a	n/a	-999	17	[0, 0, 0]	n/a	catFR1	1	R1065J
1681.191	10.428	1732423	TRIAL	n/a	n/a	n/a	n/a	-999	17	[0, 0, 0]	n/a	catFR1	1	R1065J
1691.619	0.007	1742851	COUNTDOWN_END	n/a	n/a	n/a	n/a	-999	17	[0, 0, 0]	n/a	catFR1	1	R1065J
1691.626	3.434	1742858	ORIENT	n/a	n/a	n/a	n/a	-999	17	[0, 0, 0]	n/a	catFR1	1	R1065J
1695.06	2.517	1746292	WORD	n/a	wordpools/wordpool_categorized_EN.txt	BLUEBERRY	Fruit	1	17	[0, 0, 0]	n/a	catFR1	1	R1065J
1697.577	2.467	1748809	WORD	n/a	wordpools/wordpool_categorized_EN.txt	ORANGE	Fruit	2	17	[0, 0, 0]	n/a	catFR1	1	R1065J
1700.044	2.416	1751276	WORD	n/a	wordpools/wordpool_categorized_EN.txt	VIOLIN	Instruments	3	17	[0, 0, 0]	n/a	catFR1	1	R1065J
1702.46	2.435	1753692	WORD	n/a	wordpools/wordpool_categorized_EN.txt	BANJO	Instruments	4	17	[0, 0, 0]	n/a	catFR1	1	R1065J
1704.895	2.549	1756127	WORD	n/a	wordpools/wordpool_categorized_EN.txt	HURRICANE	Weather	5	17	[0, 0, 0]	n/a	catFR1	1	R1065J
1707.444	2.418	1758676	WORD	n/a	wordpools/wordpool_categorized_EN.txt	FOG	Weather	6	17	[0, 0, 0]	n/a	catFR1	1	R1065J
1709.862	2.516	1761094	WORD	n/a	wordpools/wordpool_categorized_EN.txt	LEMON	Fruit	7	17	[0, 0, 0]	n/a	catFR1	1	R1065J
1712.378	2.501	1763610	WORD	n/a	wordpools/wordpool_categorized_EN.txt	APPLE	Fruit	8	17	[0, 0, 0]	n/a	catFR1	1	R1065J
1714.879	2.484	1766111	WORD	n/a	wordpools/wordpool_categorized_EN.txt	RAIN	Weather	9	17	[0, 0, 0]	n/a	catFR1	1	R1065J
1717.363	2.567	1768595	WORD	n/a	wordpools/wordpool_categorized_EN.txt	TORNADO	Weather	10	17	[0, 0, 0]	n/a	catFR1	1	R1065J
1719.93	2.549	1771162	WORD	n/a	wordpools/wordpool_categorized_EN.txt	GUITAR	Instruments	11	17	[0, 0, 0]	n/a	catFR1	1	R1065J
1722.479	1.601	1773711	WORD	n/a	wordpools/wordpool_categorized_EN.txt	ORGAN	Instruments	12	17	[0, 0, 0]	n/a	catFR1	1	R1065J
1724.08	0.001	1775312	DISTRACT_START	n/a	n/a	n/a	n/a	-999	17	[0, 0, 0]	n/a	catFR1	1	R1065J
1724.081	0.016	1775313	START	n/a	n/a	n/a	n/a	-999	17	[-999, -999, -999]	n/a	catFR1	1	R1065J
1724.097	2.4	1775329	PROB	2.368	n/a	n/a	n/a	-999	17	[1, 7, 4]	12.0	catFR1	1	R1065J
1726.497	1.618	1777729	PROB	1.585	n/a	n/a	n/a	-999	17	[6, 6, 9]	21.0	catFR1	1	R1065J
1728.115	1.533	1779347	PROB	1.511	n/a	n/a	n/a	-999	17	[7, 3, 1]	11.0	catFR1	1	R1065J
1729.648	1.684	1780880	PROB	1.649	n/a	n/a	n/a	-999	17	[4, 4, 2]	10.0	catFR1	1	R1065J
1731.332	1.7	1782564	PROB	1.677	n/a	n/a	n/a	-999	17	[8, 8, 3]	19.0	catFR1	1	R1065J
1733.032	1.834	1784264	PROB	1.809	n/a	n/a	n/a	-999	17	[1, 8, 8]	17.0	catFR1	1	R1065J
1734.866	2.283	1786098	PROB	2.248	n/a	n/a	n/a	-999	17	[2, 6, 7]	14.0	catFR1	1	R1065J
1737.149	1.584	1788381	PROB	1.556	n/a	n/a	n/a	-999	17	[6, 1, 1]	8.0	catFR1	1	R1065J
1738.733	1.967	1789965	PROB	1.94	n/a	n/a	n/a	-999	17	[5, 3, 3]	11.0	catFR1	1	R1065J
1740.7	2.333	1791932	PROB	2.309	n/a	n/a	n/a	-999	17	[5, 1, 2]	8.0	catFR1	1	R1065J
1743.033	2.952	1794265	PROB	2.952	n/a	n/a	n/a	-999	17	[4, 6, 5]	15.0	catFR1	1	R1065J
1745.985	0.015	1797217	STOP	n/a	n/a	n/a	n/a	-999	17	[-999, -999, -999]	n/a	catFR1	1	R1065J
1746.0	1.085	1797232	DISTRACT_END	n/a	n/a	n/a	n/a	-999	17	[0, 0, 0]	n/a	catFR1	1	R1065J
1747.085	0.929	1798317	REC_START	n/a	n/a	n/a	n/a	-999	17	[0, 0, 0]	n/a	catFR1	1	R1065J
1748.014	1.32	1799246	REC_WORD	0.929	n/a	HURRICANE	Weather	5	17	[0, 0, 0]	n/a	catFR1	1	R1065J
1749.334	1.523	1800566	REC_WORD	2.249	n/a	TORNADO	Weather	10	17	[0, 0, 0]	n/a	catFR1	1	R1065J
1750.857	1.442	1802089	REC_WORD	3.772	n/a	FOG	Weather	6	17	[0, 0, 0]	n/a	catFR1	1	R1065J
1752.299	4.326	1803531	REC_WORD	5.214	n/a	RAIN	Weather	9	17	[0, 0, 0]	n/a	catFR1	1	R1065J
1756.625	1.616	1807857	REC_WORD	9.54	n/a	BLUEBERRY	Fruit	1	17	[0, 0, 0]	n/a	catFR1	1	R1065J
1758.241	1.688	1809473	REC_WORD	11.156	n/a	ORANGE	Fruit	2	17	[0, 0, 0]	n/a	catFR1	1	R1065J
1759.929	6.807	1811161	REC_WORD	12.844	n/a	LEMON	Fruit	7	17	[0, 0, 0]	n/a	catFR1	1	R1065J
1766.736	10.359	1817968	REC_WORD	19.651	n/a	GUITAR	Instruments	11	17	[0, 0, 0]	n/a	catFR1	1	R1065J
1777.095	1.727	1828327	REC_END	n/a	n/a	n/a	n/a	-999	17	[0, 0, 0]	n/a	catFR1	1	R1065J
1778.822	0.0	1830054	TRIAL	n/a	n/a	n/a	n/a	-999	18	[0, 0, 0]	n/a	catFR1	1	R1065J
1778.822	10.428	1830054	COUNTDOWN_START	n/a	n/a	n/a	n/a	-999	18	[0, 0, 0]	n/a	catFR1	1	R1065J
1789.25	0.007	1840482	COUNTDOWN_END	n/a	n/a	n/a	n/a	-999	18	[0, 0, 0]	n/a	catFR1	1	R1065J
1789.257	3.517	1840489	ORIENT	n/a	n/a	n/a	n/a	-999	18	[0, 0, 0]	n/a	catFR1	1	R1065J
1792.774	2.599	1844006	WORD	n/a	wordpools/wordpool_categorized_EN.txt	LIGHTNING	Weather	1	18	[0, 0, 0]	n/a	catFR1	1	R1065J
1795.373	2.385	1846605	WORD	n/a	wordpools/wordpool_categorized_EN.txt	WIND	Weather	2	18	[0, 0, 0]	n/a	catFR1	1	R1065J
1797.758	2.417	1848990	WORD	n/a	wordpools/wordpool_categorized_EN.txt	MOTH	Insects	3	18	[0, 0, 0]	n/a	catFR1	1	R1065J
1800.175	2.534	1851407	WORD	n/a	wordpools/wordpool_categorized_EN.txt	GNAT	Insects	4	18	[0, 0, 0]	n/a	catFR1	1	R1065J
1802.709	2.4	1853941	WORD	n/a	wordpools/wordpool_categorized_EN.txt	VIOLET	Flowers	5	18	[0, 0, 0]	n/a	catFR1	1	R1065J
1805.109	2.399	1856341	WORD	n/a	wordpools/wordpool_categorized_EN.txt	LILY	Flowers	6	18	[0, 0, 0]	n/a	catFR1	1	R1065J
1807.508	2.419	1858740	WORD	n/a	wordpools/wordpool_categorized_EN.txt	SNOW	Weather	7	18	[0, 0, 0]	n/a	catFR1	1	R1065J
1809.927	2.616	1861159	WORD	n/a	wordpools/wordpool_categorized_EN.txt	CLOUD	Weather	8	18	[0, 0, 0]	n/a	catFR1	1	R1065J
1812.543	2.418	1863775	WORD	n/a	wordpools/wordpool_categorized_EN.txt	CARNATION	Flowers	9	18	[0, 0, 0]	n/a	catFR1	1	R1065J
1814.961	2.566	1866193	WORD	n/a	wordpools/wordpool_categorized_EN.txt	PETUNIA	Flowers	10	18	[0, 0, 0]	n/a	catFR1	1	R1065J
1817.527	2.518	1868759	WORD	n/a	wordpools/wordpool_categorized_EN.txt	BEE	Insects	11	18	[0, 0, 0]	n/a	catFR1	1	R1065J
1820.045	1.617	1871277	WORD	n/a	wordpools/wordpool_categorized_EN.txt	SPIDER	Insects	12	18	[0, 0, 0]	n/a	catFR1	1	R1065J
1821.662	0.001	1872894	DISTRACT_START	n/a	n/a	n/a	n/a	-999	18	[0, 0, 0]	n/a	catFR1	1	R1065J
1821.663	0.015	1872895	START	n/a	n/a	n/a	n/a	-999	18	[-999, -999, -999]	n/a	catFR1	1	R1065J
1821.678	2.401	1872910	PROB	2.378	n/a	n/a	n/a	-999	18	[2, 7, 2]	11.0	catFR1	1	R1065J
1824.079	1.767	1875311	PROB	1.737	n/a	n/a	n/a	-999	18	[5, 5, 9]	19.0	catFR1	1	R1065J
1825.846	1.817	1877078	PROB	1.786	n/a	n/a	n/a	-999	18	[2, 5, 9]	16.0	catFR1	1	R1065J
1827.663	1.866	1878895	PROB	1.831	n/a	n/a	n/a	-999	18	[1, 3, 3]	7.0	catFR1	1	R1065J
1829.529	1.651	1880761	PROB	1.63	n/a	n/a	n/a	-999	18	[1, 1, 4]	6.0	catFR1	1	R1065J
1831.18	2.083	1882412	PROB	2.059	n/a	n/a	n/a	-999	18	[2, 6, 7]	15.0	catFR1	1	R1065J
1833.263	2.051	1884495	PROB	2.016	n/a	n/a	n/a	-999	18	[8, 3, 5]	16.0	catFR1	1	R1065J
1835.314	2.082	1886546	PROB	2.061	n/a	n/a	n/a	-999	18	[4, 4, 3]	11.0	catFR1	1	R1065J
1837.396	1.818	1888628	PROB	1.787	n/a	n/a	n/a	-999	18	[2, 4, 3]	9.0	catFR1	1	R1065J
1839.214	1.917	1890446	PROB	1.897	n/a	n/a	n/a	-999	18	[9, 4, 5]	18.0	catFR1	1	R1065J
1841.131	1.828	1892363	PROB	1.828	n/a	n/a	n/a	-999	18	[2, 1, 9]	12.0	catFR1	1	R1065J
1842.959	0.006	1894191	STOP	n/a	n/a	n/a	n/a	-999	18	[-999, -999, -999]	n/a	catFR1	1	R1065J
1842.965	1.034	1894197	DISTRACT_END	n/a	n/a	n/a	n/a	-999	18	[0, 0, 0]	n/a	catFR1	1	R1065J
1843.999	1.701	1895231	REC_START	n/a	n/a	n/a	n/a	-999	18	[0, 0, 0]	n/a	catFR1	1	R1065J
1845.7	1.337	1896932	REC_WORD	1.701	n/a	MOTH	Insects	3	18	[0, 0, 0]	n/a	catFR1	1	R1065J
1847.037	1.542	1898269	REC_WORD	3.038	n/a	GNAT	Insects	4	18	[0, 0, 0]	n/a	catFR1	1	R1065J
1848.579	2.08	1899811	REC_WORD	4.58	n/a	BEE	Insects	11	18	[0, 0, 0]	n/a	catFR1	1	R1065J
1850.659	23.349	1901891	REC_WORD	6.66	n/a	SPIDER	Insects	12	18	[0, 0, 0]	n/a	catFR1	1	R1065J
1874.008	3.494	1925240	REC_END	n/a	n/a	n/a	n/a	-999	18	[0, 0, 0]	n/a	catFR1	1	R1065J
1877.502	0.001	1928734	COUNTDOWN_START	n/a	n/a	n/a	n/a	-999	19	[0, 0, 0]	n/a	catFR1	1	R1065J
1877.503	10.427	1928735	TRIAL	n/a	n/a	n/a	n/a	-999	19	[0, 0, 0]	n/a	catFR1	1	R1065J
1887.93	0.008	1939162	COUNTDOWN_END	n/a	n/a	n/a	n/a	-999	19	[0, 0, 0]	n/a	catFR1	1	R1065J
1887.938	3.667	1939170	ORIENT	n/a	n/a	n/a	n/a	-999	19	[0, 0, 0]	n/a	catFR1	1	R1065J
1891.605	2.601	1942837	WORD	n/a	wordpools/wordpool_categorized_EN.txt	EYE	BodyParts	1	19	[0, 0, 0]	n/a	catFR1	1	R1065J
1894.206	2.383	1945438	WORD	n/a	wordpools/wordpool_categorized_EN.txt	HEAD	BodyParts	2	19	[0, 0, 0]	n/a	catFR1	1	R1065J
1896.589	2.467	1947821	WORD	n/a	wordpools/wordpool_categorized_EN.txt	SOCKS	Clothing	3	19	[0, 0, 0]	n/a	catFR1	1	R1065J
1899.056	2.551	1950288	WORD	n/a	wordpools/wordpool_categorized_EN.txt	UNDERWEAR	Clothing	4	19	[0, 0, 0]	n/a	catFR1	1	R1065J
1901.607	2.467	1952839	WORD	n/a	wordpools/wordpool_categorized_EN.txt	ATTIC	Building	5	19	[0, 0, 0]	n/a	catFR1	1	R1065J
1904.074	2.483	1955306	WORD	n/a	wordpools/wordpool_categorized_EN.txt	BATHROOM	Building	6	19	[0, 0, 0]	n/a	catFR1	1	R1065J
1906.557	2.551	1957789	WORD	n/a	wordpools/wordpool_categorized_EN.txt	SHOES	Clothing	7	19	[0, 0, 0]	n/a	catFR1	1	R1065J
1909.108	2.583	1960340	WORD	n/a	wordpools/wordpool_categorized_EN.txt	COAT	Clothing	8	19	[0, 0, 0]	n/a	catFR1	1	R1065J
1911.691	2.534	1962923	WORD	n/a	wordpools/wordpool_categorized_EN.txt	KNEE	BodyParts	9	19	[0, 0, 0]	n/a	catFR1	1	R1065J
1914.225	2.601	1965457	WORD	n/a	wordpools/wordpool_categorized_EN.txt	TOE	BodyParts	10	19	[0, 0, 0]	n/a	catFR1	1	R1065J
1916.826	2.599	1968058	WORD	n/a	wordpools/wordpool_categorized_EN.txt	HALLWAY	Building	11	19	[0, 0, 0]	n/a	catFR1	1	R1065J
1919.425	1.618	1970657	WORD	n/a	wordpools/wordpool_categorized_EN.txt	FLOOR	Building	12	19	[0, 0, 0]	n/a	catFR1	1	R1065J
1921.043	0.001	1972275	DISTRACT_START	n/a	n/a	n/a	n/a	-999	19	[0, 0, 0]	n/a	catFR1	1	R1065J
1921.044	0.015	1972276	START	n/a	n/a	n/a	n/a	-999	19	[-999, -999, -999]	n/a	catFR1	1	R1065J
1921.059	2.767	1972291	PROB	2.739	n/a	n/a	n/a	-999	19	[6, 3, 1]	10.0	catFR1	1	R1065J
1923.826	2.001	1975058	PROB	1.979	n/a	n/a	n/a	-999	19	[6, 4, 8]	18.0	catFR1	1	R1065J
1925.827	1.566	1977059	PROB	1.545	n/a	n/a	n/a	-999	19	[1, 1, 2]	4.0	catFR1	1	R1065J
1927.393	1.784	1978625	PROB	1.764	n/a	n/a	n/a	-999	19	[5, 7, 9]	21.0	catFR1	1	R1065J
1929.177	1.717	1980409	PROB	1.692	n/a	n/a	n/a	-999	19	[8, 4, 1]	13.0	catFR1	1	R1065J
1930.894	3.5	1982126	PROB	3.478	n/a	n/a	n/a	-999	19	[7, 8, 7]	26.0	catFR1	1	R1065J
1934.394	1.584	1985626	PROB	1.563	n/a	n/a	n/a	-999	19	[1, 7, 1]	9.0	catFR1	1	R1065J
1935.978	1.801	1987210	PROB	1.771	n/a	n/a	n/a	-999	19	[1, 1, 8]	10.0	catFR1	1	R1065J
1937.779	1.917	1989011	PROB	1.89	n/a	n/a	n/a	-999	19	[6, 9, 3]	18.0	catFR1	1	R1065J
1939.696	1.852	1990928	PROB	1.852	n/a	n/a	n/a	-999	19	[2, 1, 3]	6.0	catFR1	1	R1065J
1941.548	0.015	1992780	STOP	n/a	n/a	n/a	n/a	-999	19	[-999, -999, -999]	n/a	catFR1	1	R1065J
1941.563	1.117	1992795	DISTRACT_END	n/a	n/a	n/a	n/a	-999	19	[0, 0, 0]	n/a	catFR1	1	R1065J
1942.68	1.661	1993912	REC_START	n/a	n/a	n/a	n/a	-999	19	[0, 0, 0]	n/a	catFR1	1	R1065J
1944.341	1.141	1995573	REC_WORD	1.661	n/a	SOCKS	Clothing	3	19	[0, 0, 0]	n/a	catFR1	1	R1065J
1945.482	1.456	1996714	REC_WORD	2.802	n/a	SHOES	Clothing	7	19	[0, 0, 0]	n/a	catFR1	1	R1065J
1946.938	1.705	1998170	REC_WORD	4.258	n/a	UNDERWEAR	Clothing	4	19	[0, 0, 0]	n/a	catFR1	1	R1065J
1948.643	2.484	1999875	REC_WORD	5.963	n/a	COAT	Clothing	8	19	[0, 0, 0]	n/a	catFR1	1	R1065J
1951.127	3.062	2002359	REC_WORD	8.447	n/a	BATHROOM	Building	6	19	[0, 0, 0]	n/a	catFR1	1	R1065J
1954.189	2.186	2005421	REC_WORD	11.509	n/a	EYE	BodyParts	1	19	[0, 0, 0]	n/a	catFR1	1	R1065J
1956.375	16.316	2007607	REC_WORD	13.695	n/a	HEAD	BodyParts	2	19	[0, 0, 0]	n/a	catFR1	1	R1065J
1972.691	1.825	2023924	REC_END	n/a	n/a	n/a	n/a	-999	19	[0, 0, 0]	n/a	catFR1	1	R1065J
1974.516	0.0	2025749	TRIAL	n/a	n/a	n/a	n/a	-999	20	[0, 0, 0]	n/a	catFR1	1	R1065J
1974.516	10.428	2025749	COUNTDOWN_START	n/a	n/a	n/a	n/a	-999	20	[0, 0, 0]	n/a	catFR1	1	R1065J
1984.944	0.008	2036177	COUNTDOWN_END	n/a	n/a	n/a	n/a	-999	20	[0, 0, 0]	n/a	catFR1	1	R1065J
1984.952	3.717	2036185	ORIENT	n/a	n/a	n/a	n/a	-999	20	[0, 0, 0]	n/a	catFR1	1	R1065J
1988.669	2.534	2039902	WORD	n/a	wordpools/wordpool_categorized_EN.txt	BLENDER	Appliances	1	20	[0, 0, 0]	n/a	catFR1	1	R1065J
1991.203	2.484	2042436	WORD	n/a	wordpools/wordpool_categorized_EN.txt	IRON	Appliances	2	20	[0, 0, 0]	n/a	catFR1	1	R1065J
1993.687	2.384	2044920	WORD	n/a	wordpools/wordpool_categorized_EN.txt	DAISY	Flowers	3	20	[0, 0, 0]	n/a	catFR1	1	R1065J
1996.071	2.449	2047304	WORD	n/a	wordpools/wordpool_categorized_EN.txt	TULIP	Flowers	4	20	[0, 0, 0]	n/a	catFR1	1	R1065J
1998.52	2.418	2049753	WORD	n/a	wordpools/wordpool_categorized_EN.txt	SHOVEL	Tools	5	20	[0, 0, 0]	n/a	catFR1	1	R1065J
2000.938	2.516	2052171	WORD	n/a	wordpools/wordpool_categorized_EN.txt	RATCHET	Tools	6	20	[0, 0, 0]	n/a	catFR1	1	R1065J
2003.454	2.568	2054687	WORD	n/a	wordpools/wordpool_categorized_EN.txt	DAFFODIL	Flowers	7	20	[0, 0, 0]	n/a	catFR1	1	R1065J
2006.022	2.466	2057255	WORD	n/a	wordpools/wordpool_categorized_EN.txt	ORCHID	Flowers	8	20	[0, 0, 0]	n/a	catFR1	1	R1065J
2008.488	2.468	2059721	WORD	n/a	wordpools/wordpool_categorized_EN.txt	DISHWASHER	Appliances	9	20	[0, 0, 0]	n/a	catFR1	1	R1065J
2010.956	2.416	2062189	WORD	n/a	wordpools/wordpool_categorized_EN.txt	TOASTER	Appliances	10	20	[0, 0, 0]	n/a	catFR1	1	R1065J
2013.372	2.401	2064605	WORD	n/a	wordpools/wordpool_categorized_EN.txt	DRILL	Tools	11	20	[0, 0, 0]	n/a	catFR1	1	R1065J
2015.773	1.616	2067006	WORD	n/a	wordpools/wordpool_categorized_EN.txt	SCREWDRIVER	Tools	12	20	[0, 0, 0]	n/a	catFR1	1	R1065J
2017.389	0.001	2068622	DISTRACT_START	n/a	n/a	n/a	n/a	-999	20	[0, 0, 0]	n/a	catFR1	1	R1065J
2017.39	0.016	2068623	START	n/a	n/a	n/a	n/a	-999	20	[-999, -999, -999]	n/a	catFR1	1	R1065J
2017.406	3.735	2068639	PROB	3.701	n/a	n/a	n/a	-999	20	[2, 7, 1]	10.0	catFR1	1	R1065J
2021.141	2.2	2072374	PROB	2.174	n/a	n/a	n/a	-999	20	[2, 3, 8]	13.0	catFR1	1	R1065J
2023.341	1.584	2074574	PROB	1.558	n/a	n/a	n/a	-999	20	[6, 4, 2]	12.0	catFR1	1	R1065J
2024.925	2.033	2076158	PROB	2.006	n/a	n/a	n/a	-999	20	[6, 4, 7]	19.0	catFR1	1	R1065J
2026.958	2.516	2078191	PROB	2.492	n/a	n/a	n/a	-999	20	[3, 6, 8]	17.0	catFR1	1	R1065J
2029.474	2.034	2080707	PROB	2.0	n/a	n/a	n/a	-999	20	[5, 9, 2]	16.0	catFR1	1	R1065J
2031.508	2.884	2082741	PROB	2.855	n/a	n/a	n/a	-999	20	[5, 8, 3]	16.0	catFR1	1	R1065J
2034.392	2.301	2085625	PROB	2.267	n/a	n/a	n/a	-999	20	[9, 6, 3]	18.0	catFR1	1	R1065J
2036.693	1.845	2087926	PROB	1.845	n/a	n/a	n/a	-999	20	[5, 6, 7]	18.0	catFR1	1	R1065J
2038.538	0.004	2089771	STOP	n/a	n/a	n/a	n/a	-999	20	[-999, -999, -999]	n/a	catFR1	1	R1065J
2038.542	1.202	2089775	DISTRACT_END	n/a	n/a	n/a	n/a	-999	20	[0, 0, 0]	n/a	catFR1	1	R1065J
2039.744	1.217	2090977	REC_START	n/a	n/a	n/a	n/a	-999	20	[0, 0, 0]	n/a	catFR1	1	R1065J
2040.961	2.02	2092194	REC_WORD	1.217	n/a	DISHWASHER	Appliances	9	20	[0, 0, 0]	n/a	catFR1	1	R1065J
2042.981	1.489	2094214	REC_WORD	3.237	n/a	ORCHID	Flowers	8	20	[0, 0, 0]	n/a	catFR1	1	R1065J
2044.47	1.788	2095703	REC_WORD	4.726	n/a	DAISY	Flowers	3	20	[0, 0, 0]	n/a	catFR1	1	R1065J
2046.258	1.99	2097491	REC_WORD	6.514	n/a	RATCHET	Tools	6	20	[0, 0, 0]	n/a	catFR1	1	R1065J
2048.248	13.075	2099481	REC_WORD	8.504	n/a	SHOVEL	Tools	5	20	[0, 0, 0]	n/a	catFR1	1	R1065J
2061.323	8.44	2112556	REC_WORD	21.579	n/a	SCREWDRIVER	Tools	12	20	[0, 0, 0]	n/a	catFR1	1	R1065J
2069.763	1.852	2120996	REC_END	n/a	n/a	n/a	n/a	-999	20	[0, 0, 0]	n/a	catFR1	1	R1065J
2071.615	0.0	2122848	TRIAL	n/a	n/a	n/a	n/a	-999	21	[0, 0, 0]	n/a	catFR1	1	R1065J
2071.615	10.428	2122848	COUNTDOWN_START	n/a	n/a	n/a	n/a	-999	21	[0, 0, 0]	n/a	catFR1	1	R1065J
2082.043	0.007	2133276	COUNTDOWN_END	n/a	n/a	n/a	n/a	-999	21	[0, 0, 0]	n/a	catFR1	1	R1065J
2082.05	3.684	2133283	ORIENT	n/a	n/a	n/a	n/a	-999	21	[0, 0, 0]	n/a	catFR1	1	R1065J
2085.734	2.517	2136967	WORD	n/a	wordpools/wordpool_categorized_EN.txt	DOLL	Toys	1	21	[0, 0, 0]	n/a	catFR1	1	R1065J
2088.251	2.5	2139484	WORD	n/a	wordpools/wordpool_categorized_EN.txt	PUZZLE	Toys	2	21	[0, 0, 0]	n/a	catFR1	1	R1065J
2090.751	2.567	2141984	WORD	n/a	wordpools/wordpool_categorized_EN.txt	SCANNER	Electronics	3	21	[0, 0, 0]	n/a	catFR1	1	R1065J
2093.318	2.5	2144551	WORD	n/a	wordpools/wordpool_categorized_EN.txt	RADIO	Electronics	4	21	[0, 0, 0]	n/a	catFR1	1	R1065J
2095.818	2.567	2147051	WORD	n/a	wordpools/wordpool_categorized_EN.txt	ANT	Insects	5	21	[0, 0, 0]	n/a	catFR1	1	R1065J
2098.385	2.384	2149618	WORD	n/a	wordpools/wordpool_categorized_EN.txt	LADYBUG	Insects	6	21	[0, 0, 0]	n/a	catFR1	1	R1065J
2100.769	2.599	2152002	WORD	n/a	wordpools/wordpool_categorized_EN.txt	BLOCKS	Toys	7	21	[0, 0, 0]	n/a	catFR1	1	R1065J
2103.368	2.502	2154601	WORD	n/a	wordpools/wordpool_categorized_EN.txt	SLINKY	Toys	8	21	[0, 0, 0]	n/a	catFR1	1	R1065J
2105.87	2.4	2157103	WORD	n/a	wordpools/wordpool_categorized_EN.txt	MOSQUITO	Insects	9	21	[0, 0, 0]	n/a	catFR1	1	R1065J
2108.27	2.401	2159503	WORD	n/a	wordpools/wordpool_categorized_EN.txt	BUTTERFLY	Insects	10	21	[0, 0, 0]	n/a	catFR1	1	R1065J
2110.671	2.55	2161904	WORD	n/a	wordpools/wordpool_categorized_EN.txt	SPEAKER	Electronics	11	21	[0, 0, 0]	n/a	catFR1	1	R1065J
2113.221	1.617	2164454	WORD	n/a	wordpools/wordpool_categorized_EN.txt	PHONE	Electronics	12	21	[0, 0, 0]	n/a	catFR1	1	R1065J
2114.838	0.001	2166071	DISTRACT_START	n/a	n/a	n/a	n/a	-999	21	[0, 0, 0]	n/a	catFR1	1	R1065J
2114.839	0.016	2166072	START	n/a	n/a	n/a	n/a	-999	21	[-999, -999, -999]	n/a	catFR1	1	R1065J
2114.855	2.917	2166088	PROB	2.89	n/a	n/a	n/a	-999	21	[8, 1, 2]	11.0	catFR1	1	R1065J
2117.772	2.033	2169005	PROB	2.005	n/a	n/a	n/a	-999	21	[1, 4, 2]	7.0	catFR1	1	R1065J
2119.805	2.167	2171038	PROB	2.14	n/a	n/a	n/a	-999	21	[2, 7, 8]	17.0	catFR1	1	R1065J
2121.972	1.901	2173205	PROB	1.877	n/a	n/a	n/a	-999	21	[1, 7, 9]	17.0	catFR1	1	R1065J
2123.873	2.783	2175106	PROB	2.76	n/a	n/a	n/a	-999	21	[6, 8, 4]	18.0	catFR1	1	R1065J
2126.656	1.967	2177889	PROB	1.937	n/a	n/a	n/a	-999	21	[3, 1, 3]	7.0	catFR1	1	R1065J
2128.623	1.849	2179856	PROB	1.817	n/a	n/a	n/a	-999	21	[6, 1, 2]	9.0	catFR1	1	R1065J
2130.472	2.318	2181705	PROB	2.297	n/a	n/a	n/a	-999	21	[5, 8, 2]	15.0	catFR1	1	R1065J
2132.79	1.801	2184023	PROB	1.779	n/a	n/a	n/a	-999	21	[2, 3, 1]	6.0	catFR1	1	R1065J
2134.591	2.714	2185824	PROB	2.714	n/a	n/a	n/a	-999	21	[7, 5, 4]	16.0	catFR1	1	R1065J
2137.305	0.02	2188538	STOP	n/a	n/a	n/a	n/a	-999	21	[-999, -999, -999]	n/a	catFR1	1	R1065J
2137.325	1.099	2188558	DISTRACT_END	n/a	n/a	n/a	n/a	-999	21	[0, 0, 0]	n/a	catFR1	1	R1065J
2138.424	1.094	2189657	REC_START	n/a	n/a	n/a	n/a	-999	21	[0, 0, 0]	n/a	catFR1	1	R1065J
2139.518	1.476	2190751	REC_WORD	1.094	n/a	SPEAKER	Electronics	11	21	[0, 0, 0]	n/a	catFR1	1	R1065J
2140.994	2.169	2192227	REC_WORD	2.57	n/a	SCANNER	Electronics	3	21	[0, 0, 0]	n/a	catFR1	1	R1065J
2143.163	1.725	2194396	REC_WORD	4.739	n/a	ANT	Insects	5	21	[0, 0, 0]	n/a	catFR1	1	R1065J
2144.888	22.659	2196121	REC_WORD	6.464	n/a	LADYBUG	Insects	6	21	[0, 0, 0]	n/a	catFR1	1	R1065J
2167.547	0.893	2218780	REC_WORD	29.123	n/a	PUZZLE	Toys	2	21	[0, 0, 0]	n/a	catFR1	1	R1065J
2168.44	2.339	2219673	REC_END	n/a	n/a	n/a	n/a	-999	21	[0, 0, 0]	n/a	catFR1	1	R1065J
2170.779	0.001	2222012	COUNTDOWN_START	n/a	n/a	n/a	n/a	-999	22	[0, 0, 0]	n/a	catFR1	1	R1065J
2170.78	10.427	2222013	TRIAL	n/a	n/a	n/a	n/a	-999	22	[0, 0, 0]	n/a	catFR1	1	R1065J
2181.207	0.007	2232440	COUNTDOWN_END	n/a	n/a	n/a	n/a	-999	22	[0, 0, 0]	n/a	catFR1	1	R1065J
2181.214	3.851	2232447	ORIENT	n/a	n/a	n/a	n/a	-999	22	[0, 0, 0]	n/a	catFR1	1	R1065J
2185.065	2.399	2236298	WORD	n/a	wordpools/wordpool_categorized_EN.txt	MONKEY	Zoo	1	22	[0, 0, 0]	n/a	catFR1	1	R1065J
2187.464	2.418	2238697	WORD	n/a	wordpools/wordpool_categorized_EN.txt	TIGER	Zoo	2	22	[0, 0, 0]	n/a	catFR1	1	R1065J
2189.882	2.533	2241115	WORD	n/a	wordpools/wordpool_categorized_EN.txt	DRIZZLE	Weather	3	22	[0, 0, 0]	n/a	catFR1	1	R1065J
2192.415	2.551	2243648	WORD	n/a	wordpools/wordpool_categorized_EN.txt	THUNDER	Weather	4	22	[0, 0, 0]	n/a	catFR1	1	R1065J
2194.966	2.384	2246199	WORD	n/a	wordpools/wordpool_categorized_EN.txt	FREEZER	Appliances	5	22	[0, 0, 0]	n/a	catFR1	1	R1065J
2197.35	2.484	2248583	WORD	n/a	wordpools/wordpool_categorized_EN.txt	WASHER	Appliances	6	22	[0, 0, 0]	n/a	catFR1	1	R1065J
2199.834	2.532	2251067	WORD	n/a	wordpools/wordpool_categorized_EN.txt	THUNDERSTORM	Weather	7	22	[0, 0, 0]	n/a	catFR1	1	R1065J
2202.366	2.468	2253599	WORD	n/a	wordpools/wordpool_categorized_EN.txt	HUMIDITY	Weather	8	22	[0, 0, 0]	n/a	catFR1	1	R1065J
2204.834	2.6	2256067	WORD	n/a	wordpools/wordpool_categorized_EN.txt	CHIMPANZEE	Zoo	9	22	[0, 0, 0]	n/a	catFR1	1	R1065J
2207.434	2.535	2258667	WORD	n/a	wordpools/wordpool_categorized_EN.txt	GIRAFFE	Zoo	10	22	[0, 0, 0]	n/a	catFR1	1	R1065J
2209.969	2.482	2261202	WORD	n/a	wordpools/wordpool_categorized_EN.txt	VACUUM	Appliances	11	22	[0, 0, 0]	n/a	catFR1	1	R1065J
2212.451	1.601	2263684	WORD	n/a	wordpools/wordpool_categorized_EN.txt	DRYER	Appliances	12	22	[0, 0, 0]	n/a	catFR1	1	R1065J
2214.052	0.001	2265285	DISTRACT_START	n/a	n/a	n/a	n/a	-999	22	[0, 0, 0]	n/a	catFR1	1	R1065J
2214.053	0.016	2265286	START	n/a	n/a	n/a	n/a	-999	22	[-999, -999, -999]	n/a	catFR1	1	R1065J
2214.069	2.684	2265302	PROB	2.658	n/a	n/a	n/a	-999	22	[1, 2, 4]	7.0	catFR1	1	R1065J
2216.753	1.765	2267986	PROB	1.741	n/a	n/a	n/a	-999	22	[8, 1, 4]	13.0	catFR1	1	R1065J
2218.518	1.735	2269751	PROB	1.705	n/a	n/a	n/a	-999	22	[6, 3, 1]	10.0	catFR1	1	R1065J
2220.253	1.734	2271486	PROB	1.698	n/a	n/a	n/a	-999	22	[4, 7, 7]	18.0	catFR1	1	R1065J
2221.987	1.85	2273220	PROB	1.828	n/a	n/a	n/a	-999	22	[6, 9, 7]	22.0	catFR1	1	R1065J
2223.837	2.484	2275070	PROB	2.449	n/a	n/a	n/a	-999	22	[2, 3, 5]	10.0	catFR1	1	R1065J
2226.321	2.584	2277554	PROB	2.55	n/a	n/a	n/a	-999	22	[6, 8, 9]	23.0	catFR1	1	R1065J
2228.905	2.283	2280138	PROB	2.253	n/a	n/a	n/a	-999	22	[3, 9, 9]	21.0	catFR1	1	R1065J
2231.188	2.333	2282421	PROB	2.298	n/a	n/a	n/a	-999	22	[5, 7, 8]	20.0	catFR1	1	R1065J
2233.521	1.925	2284754	PROB	1.925	n/a	n/a	n/a	-999	22	[6, 9, 4]	19.0	catFR1	1	R1065J
2235.446	0.008	2286679	STOP	n/a	n/a	n/a	n/a	-999	22	[-999, -999, -999]	n/a	catFR1	1	R1065J
2235.454	1.051	2286687	DISTRACT_END	n/a	n/a	n/a	n/a	-999	22	[0, 0, 0]	n/a	catFR1	1	R1065J
2236.505	0.835	2287738	REC_START	n/a	n/a	n/a	n/a	-999	22	[0, 0, 0]	n/a	catFR1	1	R1065J
2237.34	1.112	2288573	REC_WORD	0.835	n/a	FREEZER	Appliances	5	22	[0, 0, 0]	n/a	catFR1	1	R1065J
2238.452	1.416	2289685	REC_WORD	1.947	n/a	WASHER	Appliances	6	22	[0, 0, 0]	n/a	catFR1	1	R1065J
2239.868	1.629	2291101	REC_WORD	3.363	n/a	DRYER	Appliances	12	22	[0, 0, 0]	n/a	catFR1	1	R1065J
2241.497	1.403	2292730	REC_WORD	4.992	n/a	MONKEY	Zoo	1	22	[0, 0, 0]	n/a	catFR1	1	R1065J
2242.9	3.626	2294133	REC_WORD	6.395	n/a	CHIMPANZEE	Zoo	9	22	[0, 0, 0]	n/a	catFR1	1	R1065J
2246.526	2.65	2297759	REC_WORD	10.021	n/a	THUNDERSTORM	Weather	7	22	[0, 0, 0]	n/a	catFR1	1	R1065J
2249.176	7.242	2300409	REC_WORD	12.671	n/a	DRIZZLE	Weather	3	22	[0, 0, 0]	n/a	catFR1	1	R1065J
2256.418	0.165	2307651	REC_WORD_VV	19.913	n/a	<>	n/a	-999	22	[0, 0, 0]	n/a	catFR1	1	R1065J
2256.583	5.956	2307816	REC_WORD	20.078	n/a	TIGER	Zoo	2	22	[0, 0, 0]	n/a	catFR1	1	R1065J
2262.539	3.976	2313772	REC_WORD	26.034	n/a	GIRAFFE	Zoo	10	22	[0, 0, 0]	n/a	catFR1	1	R1065J
2266.515	2.446	2317748	REC_END	n/a	n/a	n/a	n/a	-999	22	[0, 0, 0]	n/a	catFR1	1	R1065J
2268.961	0.0	2320195	TRIAL	n/a	n/a	n/a	n/a	-999	23	[0, 0, 0]	n/a	catFR1	1	R1065J
2268.961	10.428	2320195	COUNTDOWN_START	n/a	n/a	n/a	n/a	-999	23	[0, 0, 0]	n/a	catFR1	1	R1065J
2279.389	0.005	2330623	COUNTDOWN_END	n/a	n/a	n/a	n/a	-999	23	[0, 0, 0]	n/a	catFR1	1	R1065J
2279.394	3.685	2330628	ORIENT	n/a	n/a	n/a	n/a	-999	23	[0, 0, 0]	n/a	catFR1	1	R1065J
2283.079	2.449	2334313	WORD	n/a	wordpools/wordpool_categorized_EN.txt	CORN	Vegetables	1	23	[0, 0, 0]	n/a	catFR1	1	R1065J
2285.528	2.485	2336762	WORD	n/a	wordpools/wordpool_categorized_EN.txt	CELERY	Vegetables	2	23	[0, 0, 0]	n/a	catFR1	1	R1065J
2288.013	2.483	2339247	WORD	n/a	wordpools/wordpool_categorized_EN.txt	CREEK	Landscapes	3	23	[0, 0, 0]	n/a	catFR1	1	R1065J
2290.496	2.468	2341730	WORD	n/a	wordpools/wordpool_categorized_EN.txt	FOREST	Landscapes	4	23	[0, 0, 0]	n/a	catFR1	1	R1065J
2292.964	2.516	2344198	WORD	n/a	wordpools/wordpool_categorized_EN.txt	TURKEY	FarmAnimals	5	23	[0, 0, 0]	n/a	catFR1	1	R1065J
2295.48	2.418	2346714	WORD	n/a	wordpools/wordpool_categorized_EN.txt	BULL	FarmAnimals	6	23	[0, 0, 0]	n/a	catFR1	1	R1065J
2297.898	2.401	2349132	WORD	n/a	wordpools/wordpool_categorized_EN.txt	CARROT	Vegetables	7	23	[0, 0, 0]	n/a	catFR1	1	R1065J
2300.299	2.416	2351533	WORD	n/a	wordpools/wordpool_categorized_EN.txt	ONION	Vegetables	8	23	[0, 0, 0]	n/a	catFR1	1	R1065J
2302.715	2.551	2353949	WORD	n/a	wordpools/wordpool_categorized_EN.txt	PIG	FarmAnimals	9	23	[0, 0, 0]	n/a	catFR1	1	R1065J
2305.266	2.55	2356500	WORD	n/a	wordpools/wordpool_categorized_EN.txt	SHEEP	FarmAnimals	10	23	[0, 0, 0]	n/a	catFR1	1	R1065J
2307.816	2.384	2359050	WORD	n/a	wordpools/wordpool_categorized_EN.txt	MOUNTAIN	Landscapes	11	23	[0, 0, 0]	n/a	catFR1	1	R1065J
2310.2	1.617	2361434	WORD	n/a	wordpools/wordpool_categorized_EN.txt	ISLAND	Landscapes	12	23	[0, 0, 0]	n/a	catFR1	1	R1065J
2311.817	0.001	2363051	DISTRACT_START	n/a	n/a	n/a	n/a	-999	23	[0, 0, 0]	n/a	catFR1	1	R1065J
2311.818	0.015	2363052	START	n/a	n/a	n/a	n/a	-999	23	[-999, -999, -999]	n/a	catFR1	1	R1065J
2311.833	3.401	2363067	PROB	3.38	n/a	n/a	n/a	-999	23	[5, 9, 2]	16.0	catFR1	1	R1065J
2315.234	2.133	2366468	PROB	2.106	n/a	n/a	n/a	-999	23	[6, 1, 3]	10.0	catFR1	1	R1065J
2317.367	2.117	2368601	PROB	2.084	n/a	n/a	n/a	-999	23	[6, 1, 2]	9.0	catFR1	1	R1065J
2319.484	2.066	2370718	PROB	2.039	n/a	n/a	n/a	-999	23	[6, 5, 1]	12.0	catFR1	1	R1065J
2321.55	2.152	2372784	PROB	2.126	n/a	n/a	n/a	-999	23	[5, 2, 9]	16.0	catFR1	1	R1065J
2323.702	1.732	2374936	PROB	1.701	n/a	n/a	n/a	-999	23	[4, 5, 2]	11.0	catFR1	1	R1065J
2325.434	2.218	2376668	PROB	2.195	n/a	n/a	n/a	-999	23	[2, 6, 2]	10.0	catFR1	1	R1065J
2327.652	1.951	2378886	PROB	1.928	n/a	n/a	n/a	-999	23	[5, 9, 1]	15.0	catFR1	1	R1065J
2329.603	1.915	2380837	PROB	1.88	n/a	n/a	n/a	-999	23	[6, 3, 4]	13.0	catFR1	1	R1065J
2331.518	1.838	2382752	PROB	1.838	n/a	n/a	n/a	-999	23	[4, 3, 9]	16.0	catFR1	1	R1065J
2333.356	0.013	2384590	STOP	n/a	n/a	n/a	n/a	-999	23	[-999, -999, -999]	n/a	catFR1	1	R1065J
2333.369	1.101	2384603	DISTRACT_END	n/a	n/a	n/a	n/a	-999	23	[0, 0, 0]	n/a	catFR1	1	R1065J
2334.47	1.124	2385704	REC_START	n/a	n/a	n/a	n/a	-999	23	[0, 0, 0]	n/a	catFR1	1	R1065J
2335.594	1.467	2386828	REC_WORD	1.124	n/a	MOUNTAIN	Landscapes	11	23	[0, 0, 0]	n/a	catFR1	1	R1065J
2337.061	2.14	2388295	REC_WORD	2.591	n/a	ISLAND	Landscapes	12	23	[0, 0, 0]	n/a	catFR1	1	R1065J
2339.201	1.539	2390435	REC_WORD	4.731	n/a	CORN	Vegetables	1	23	[0, 0, 0]	n/a	catFR1	1	R1065J
2340.74	1.214	2391974	REC_WORD	6.27	n/a	CELERY	Vegetables	2	23	[0, 0, 0]	n/a	catFR1	1	R1065J
2341.954	1.294	2393188	REC_WORD	7.484	n/a	ONION	Vegetables	8	23	[0, 0, 0]	n/a	catFR1	1	R1065J
2343.248	2.7	2394482	REC_WORD	8.778	n/a	CARROT	Vegetables	7	23	[0, 0, 0]	n/a	catFR1	1	R1065J
2345.948	1.977	2397182	REC_WORD	11.478	n/a	TURKEY	FarmAnimals	5	23	[0, 0, 0]	n/a	catFR1	1	R1065J
2347.925	16.556	2399159	REC_WORD	13.455	n/a	PIG	FarmAnimals	9	23	[0, 0, 0]	n/a	catFR1	1	R1065J
2364.481	1.976	2415715	REC_END	n/a	n/a	n/a	n/a	-999	23	[0, 0, 0]	n/a	catFR1	1	R1065J
2366.457	0.001	2417691	COUNTDOWN_START	n/a	n/a	n/a	n/a	-999	24	[0, 0, 0]	n/a	catFR1	1	R1065J
2366.458	10.427	2417692	TRIAL	n/a	n/a	n/a	n/a	-999	24	[0, 0, 0]	n/a	catFR1	1	R1065J
2376.885	0.008	2428119	COUNTDOWN_END	n/a	n/a	n/a	n/a	-999	24	[0, 0, 0]	n/a	catFR1	1	R1065J
2376.893	3.734	2428127	ORIENT	n/a	n/a	n/a	n/a	-999	24	[0, 0, 0]	n/a	catFR1	1	R1065J
2380.627	2.583	2431861	WORD	n/a	wordpools/wordpool_categorized_EN.txt	FLY	Insects	1	24	[0, 0, 0]	n/a	catFR1	1	R1065J
2383.21	2.401	2434444	WORD	n/a	wordpools/wordpool_categorized_EN.txt	ROACH	Insects	2	24	[0, 0, 0]	n/a	catFR1	1	R1065J
2385.611	2.384	2436845	WORD	n/a	wordpools/wordpool_categorized_EN.txt	BLUEBIRD	Birds	3	24	[0, 0, 0]	n/a	catFR1	1	R1065J
2387.995	2.382	2439229	WORD	n/a	wordpools/wordpool_categorized_EN.txt	FINCH	Birds	4	24	[0, 0, 0]	n/a	catFR1	1	R1065J
2390.377	2.552	2441611	WORD	n/a	wordpools/wordpool_categorized_EN.txt	VAN	Vehicles	5	24	[0, 0, 0]	n/a	catFR1	1	R1065J
2392.929	2.499	2444163	WORD	n/a	wordpools/wordpool_categorized_EN.txt	CAR	Vehicles	6	24	[0, 0, 0]	n/a	catFR1	1	R1065J
2395.428	2.435	2446662	WORD	n/a	wordpools/wordpool_categorized_EN.txt	CRICKET	Insects	7	24	[0, 0, 0]	n/a	catFR1	1	R1065J
2397.863	2.565	2449097	WORD	n/a	wordpools/wordpool_categorized_EN.txt	BEETLE	Insects	8	24	[0, 0, 0]	n/a	catFR1	1	R1065J
2400.428	2.452	2451662	WORD	n/a	wordpools/wordpool_categorized_EN.txt	PLANE	Vehicles	9	24	[0, 0, 0]	n/a	catFR1	1	R1065J
2402.88	2.533	2454114	WORD	n/a	wordpools/wordpool_categorized_EN.txt	MOPED	Vehicles	10	24	[0, 0, 0]	n/a	catFR1	1	R1065J
2405.413	2.551	2456647	WORD	n/a	wordpools/wordpool_categorized_EN.txt	DUCK	Birds	11	24	[0, 0, 0]	n/a	catFR1	1	R1065J
2407.964	1.617	2459198	WORD	n/a	wordpools/wordpool_categorized_EN.txt	CROW	Birds	12	24	[0, 0, 0]	n/a	catFR1	1	R1065J
2409.581	0.001	2460815	DISTRACT_START	n/a	n/a	n/a	n/a	-999	24	[0, 0, 0]	n/a	catFR1	1	R1065J
2409.582	0.016	2460816	START	n/a	n/a	n/a	n/a	-999	24	[-999, -999, -999]	n/a	catFR1	1	R1065J
2409.598	2.717	2460832	PROB	2.692	n/a	n/a	n/a	-999	24	[4, 8, 8]	20.0	catFR1	1	R1065J
2412.315	2.55	2463549	PROB	2.519	n/a	n/a	n/a	-999	24	[5, 7, 9]	21.0	catFR1	1	R1065J
2414.865	2.151	2466099	PROB	2.121	n/a	n/a	n/a	-999	24	[3, 2, 9]	14.0	catFR1	1	R1065J
2417.016	2.083	2468250	PROB	2.058	n/a	n/a	n/a	-999	24	[6, 9, 1]	16.0	catFR1	1	R1065J
2419.099	1.917	2470333	PROB	1.895	n/a	n/a	n/a	-999	24	[4, 4, 8]	16.0	catFR1	1	R1065J
2421.016	2.334	2472250	PROB	2.306	n/a	n/a	n/a	-999	24	[9, 9, 9]	27.0	catFR1	1	R1065J
2423.35	3.4	2474584	PROB	3.38	n/a	n/a	n/a	-999	24	[1, 7, 4]	12.0	catFR1	1	R1065J
2426.75	2.8	2477984	PROB	2.763	n/a	n/a	n/a	-999	24	[5, 1, 7]	13.0	catFR1	1	R1065J
2429.55	3.38	2480784	PROB	3.38	n/a	n/a	n/a	-999	24	[4, 8, 9]	22.0	catFR1	1	R1065J
2432.93	0.004	2484164	STOP	n/a	n/a	n/a	n/a	-999	24	[-999, -999, -999]	n/a	catFR1	1	R1065J
2432.934	1.085	2484168	DISTRACT_END	n/a	n/a	n/a	n/a	-999	24	[0, 0, 0]	n/a	catFR1	1	R1065J
2434.019	1.986	2485253	REC_START	n/a	n/a	n/a	n/a	-999	24	[0, 0, 0]	n/a	catFR1	1	R1065J
2436.005	1.43	2487239	REC_WORD	1.986	n/a	DUCK	Birds	11	24	[0, 0, 0]	n/a	catFR1	1	R1065J
2437.435	1.712	2488669	REC_WORD	3.416	n/a	BLUEBIRD	Birds	3	24	[0, 0, 0]	n/a	catFR1	1	R1065J
2439.147	2.358	2490381	REC_WORD	5.128	n/a	FLY	Insects	1	24	[0, 0, 0]	n/a	catFR1	1	R1065J
2441.505	2.657	2492739	REC_WORD	7.486	n/a	ROACH	Insects	2	24	[0, 0, 0]	n/a	catFR1	1	R1065J
2444.162	6.974	2495396	REC_WORD	10.143	n/a	MOPED	Vehicles	10	24	[0, 0, 0]	n/a	catFR1	1	R1065J
2451.136	12.894	2502370	REC_WORD	17.117	n/a	CRICKET	Insects	7	24	[0, 0, 0]	n/a	catFR1	1	R1065J
2464.03	2.743	2515264	REC_END	n/a	n/a	n/a	n/a	-999	24	[0, 0, 0]	n/a	catFR1	1	R1065J
2466.773	0.0	2518007	TRIAL	n/a	n/a	n/a	n/a	-999	25	[0, 0, 0]	n/a	catFR1	1	R1065J
2466.773	10.428	2518007	COUNTDOWN_START	n/a	n/a	n/a	n/a	-999	25	[0, 0, 0]	n/a	catFR1	1	R1065J
2477.201	0.007	2528435	COUNTDOWN_END	n/a	n/a	n/a	n/a	-999	25	[0, 0, 0]	n/a	catFR1	1	R1065J
2477.208	3.8	2528442	ORIENT	n/a	n/a	n/a	n/a	-999	25	[0, 0, 0]	n/a	catFR1	1	R1065J
2481.008	2.5	2532242	WORD	n/a	wordpools/wordpool_categorized_EN.txt	LAKE	Landscapes	1	25	[0, 0, 0]	n/a	catFR1	1	R1065J
2483.508	2.434	2534742	WORD	n/a	wordpools/wordpool_categorized_EN.txt	RIVER	Landscapes	2	25	[0, 0, 0]	n/a	catFR1	1	R1065J
2485.942	2.466	2537176	WORD	n/a	wordpools/wordpool_categorized_EN.txt	WRENCH	Tools	3	25	[0, 0, 0]	n/a	catFR1	1	R1065J
2488.408	2.368	2539642	WORD	n/a	wordpools/wordpool_categorized_EN.txt	SAW	Tools	4	25	[0, 0, 0]	n/a	catFR1	1	R1065J
2490.776	2.434	2542010	WORD	n/a	wordpools/wordpool_categorized_EN.txt	SCOOTER	Vehicles	5	25	[0, 0, 0]	n/a	catFR1	1	R1065J
2493.21	2.5	2544444	WORD	n/a	wordpools/wordpool_categorized_EN.txt	BOAT	Vehicles	6	25	[0, 0, 0]	n/a	catFR1	1	R1065J
2495.71	2.617	2546944	WORD	n/a	wordpools/wordpool_categorized_EN.txt	HAMMER	Tools	7	25	[0, 0, 0]	n/a	catFR1	1	R1065J
2498.327	2.417	2549561	WORD	n/a	wordpools/wordpool_categorized_EN.txt	AXE	Tools	8	25	[0, 0, 0]	n/a	catFR1	1	R1065J
2500.744	2.601	2551978	WORD	n/a	wordpools/wordpool_categorized_EN.txt	OCEAN	Landscapes	9	25	[0, 0, 0]	n/a	catFR1	1	R1065J
2503.345	2.55	2554579	WORD	n/a	wordpools/wordpool_categorized_EN.txt	VALLEY	Landscapes	10	25	[0, 0, 0]	n/a	catFR1	1	R1065J
2505.895	2.4	2557129	WORD	n/a	wordpools/wordpool_categorized_EN.txt	TRUCK	Vehicles	11	25	[0, 0, 0]	n/a	catFR1	1	R1065J
2508.295	1.617	2559529	WORD	n/a	wordpools/wordpool_categorized_EN.txt	TRAIN	Vehicles	12	25	[0, 0, 0]	n/a	catFR1	1	R1065J
2509.912	0.001	2561146	DISTRACT_START	n/a	n/a	n/a	n/a	-999	25	[0, 0, 0]	n/a	catFR1	1	R1065J
2509.913	0.016	2561147	START	n/a	n/a	n/a	n/a	-999	25	[-999, -999, -999]	n/a	catFR1	1	R1065J
2509.929	2.984	2561163	PROB	2.959	n/a	n/a	n/a	-999	25	[3, 9, 8]	20.0	catFR1	1	R1065J
2512.913	2.05	2564147	PROB	2.023	n/a	n/a	n/a	-999	25	[8, 2, 1]	11.0	catFR1	1	R1065J
2514.963	2.433	2566197	PROB	2.404	n/a	n/a	n/a	-999	25	[8, 9, 4]	21.0	catFR1	1	R1065J
2517.396	2.435	2568630	PROB	2.404	n/a	n/a	n/a	-999	25	[3, 2, 2]	7.0	catFR1	1	R1065J
2519.831	1.883	2571065	PROB	1.849	n/a	n/a	n/a	-999	25	[1, 5, 9]	15.0	catFR1	1	R1065J
2521.714	3.217	2572948	PROB	3.19	n/a	n/a	n/a	-999	25	[9, 1, 6]	16.0	catFR1	1	R1065J
2524.931	2.151	2576165	PROB	2.125	n/a	n/a	n/a	-999	25	[4, 1, 5]	10.0	catFR1	1	R1065J
2527.082	2.75	2578316	PROB	2.726	n/a	n/a	n/a	-999	25	[9, 8, 7]	24.0	catFR1	1	R1065J
2529.832	2.056	2581066	PROB	2.056	n/a	n/a	n/a	-999	25	[3, 5, 3]	11.0	catFR1	1	R1065J
2531.888	0.011	2583122	STOP	n/a	n/a	n/a	n/a	-999	25	[-999, -999, -999]	n/a	catFR1	1	R1065J
2531.899	1.217	2583133	DISTRACT_END	n/a	n/a	n/a	n/a	-999	25	[0, 0, 0]	n/a	catFR1	1	R1065J
2533.116	1.389	2584350	REC_START	n/a	n/a	n/a	n/a	-999	25	[0, 0, 0]	n/a	catFR1	1	R1065J
2534.505	1.347	2585739	REC_WORD	1.389	n/a	RIVER	Landscapes	2	25	[0, 0, 0]	n/a	catFR1	1	R1065J
2535.852	1.456	2587086	REC_WORD	2.736	n/a	LAKE	Landscapes	1	25	[0, 0, 0]	n/a	catFR1	1	R1065J
2537.308	1.745	2588542	REC_WORD	4.192	n/a	TRUCK	Vehicles	11	25	[0, 0, 0]	n/a	catFR1	1	R1065J
2539.053	1.903	2590287	REC_WORD	5.937	n/a	BOAT	Vehicles	6	25	[0, 0, 0]	n/a	catFR1	1	R1065J
2540.956	1.812	2592190	REC_WORD	7.84	n/a	WRENCH	Tools	3	25	[0, 0, 0]	n/a	catFR1	1	R1065J
2542.768	2.03	2594002	REC_WORD	9.652	n/a	AXE	Tools	8	25	[0, 0, 0]	n/a	catFR1	1	R1065J
2544.798	18.333	2596032	REC_WORD	11.682	n/a	SAW	Tools	4	25	[0, 0, 0]	n/a	catFR1	1	R1065J
2563.131	11.257	2614365	REC_END	n/a	n/a	n/a	n/a	-999	25	[0, 0, 0]	n/a	catFR1	1	R1065J
2574.388	0.0	2625623	SESS_END	n/a	n/a	n/a	n/a	-999	25	[0, 0, 0]	n/a	catFR1	1	R1065J
