onset	duration	sample	trial_type	response_time	stim_file	item_name	category	serialpos	list	test	answer	experiment	session	subject
0.0	6.767	153703	INSTRUCT_START	n/a	n/a	n/a	n/a	-999	-999	[0, 0, 0]	n/a	catFR1	2	R1658S
6.767	22.747	160478	INSTRUCT_END	n/a	n/a	n/a	n/a	-999	-999	[0, 0, 0]	n/a	catFR1	2	R1658S
29.514	10.352	183226	COUNTDOWN_START	n/a	n/a	n/a	n/a	-999	-999	[0, 0, 0]	n/a	catFR1	2	R1658S
39.866	0.0	193575	COUNTDOWN_END	n/a	n/a	n/a	n/a	-999	-999	[0, 0, 0]	n/a	catFR1	2	R1658S
39.866	2.036	193575	ENCODING_START	n/a	n/a	n/a	n/a	-999	-1	[0, 0, 0]	n/a	catFR1	2	R1658S
41.902	1.596	195604	WORD	n/a	n/a	DRILL	Tools	1	-1	[0, 0, 0]	n/a	catFR1	2	R1658S
43.498	0.757	197204	WORD_OFF	n/a	n/a	DRILL	Tools	1	-1	[0, 0, 0]	n/a	catFR1	2	R1658S
44.255	1.61	197960	WORD	n/a	n/a	PLIERS	Tools	2	-1	[0, 0, 0]	n/a	catFR1	2	R1658S
45.865	0.932	199572	WORD_OFF	n/a	n/a	PLIERS	Tools	2	-1	[0, 0, 0]	n/a	catFR1	2	R1658S
46.797	1.6	200507	WORD	n/a	n/a	PEELER	KitchenTools	3	-1	[0, 0, 0]	n/a	catFR1	2	R1658S
48.397	0.817	202108	WORD_OFF	n/a	n/a	PEELER	KitchenTools	3	-1	[0, 0, 0]	n/a	catFR1	2	R1658S
49.214	1.608	202920	WORD	n/a	n/a	SPOON	KitchenTools	4	-1	[0, 0, 0]	n/a	catFR1	2	R1658S
50.822	0.91	204532	WORD_OFF	n/a	n/a	SPOON	KitchenTools	4	-1	[0, 0, 0]	n/a	catFR1	2	R1658S
51.732	1.608	205445	WORD	n/a	n/a	PASTRY	Desserts	5	-1	[0, 0, 0]	n/a	catFR1	2	R1658S
53.34	0.874	207046	WORD_OFF	n/a	n/a	PASTRY	Desserts	5	-1	[0, 0, 0]	n/a	catFR1	2	R1658S
54.214	1.6	207925	WORD	n/a	n/a	CAKE	Desserts	6	-1	[0, 0, 0]	n/a	catFR1	2	R1658S
55.814	0.758	209514	WORD_OFF	n/a	n/a	CAKE	Desserts	6	-1	[0, 0, 0]	n/a	catFR1	2	R1658S
56.572	1.61	210281	WORD	n/a	n/a	HAMMER	Tools	7	-1	[0, 0, 0]	n/a	catFR1	2	R1658S
58.182	0.856	211893	WORD_OFF	n/a	n/a	HAMMER	Tools	7	-1	[0, 0, 0]	n/a	catFR1	2	R1658S
59.038	1.608	212750	WORD	n/a	n/a	CROWBAR	Tools	8	-1	[0, 0, 0]	n/a	catFR1	2	R1658S
60.646	0.835	214350	WORD_OFF	n/a	n/a	CROWBAR	Tools	8	-1	[0, 0, 0]	n/a	catFR1	2	R1658S
61.481	1.606	215184	WORD	n/a	n/a	CORKSCREW	KitchenTools	9	-1	[0, 0, 0]	n/a	catFR1	2	R1658S
63.087	0.984	216796	WORD_OFF	n/a	n/a	CORKSCREW	KitchenTools	9	-1	[0, 0, 0]	n/a	catFR1	2	R1658S
64.071	1.608	217777	WORD	n/a	n/a	KNIFE	KitchenTools	10	-1	[0, 0, 0]	n/a	catFR1	2	R1658S
65.679	0.859	219389	WORD_OFF	n/a	n/a	KNIFE	KitchenTools	10	-1	[0, 0, 0]	n/a	catFR1	2	R1658S
66.538	1.6	220246	WORD	n/a	n/a	JELLO	Desserts	11	-1	[0, 0, 0]	n/a	catFR1	2	R1658S
68.138	0.927	221847	WORD_OFF	n/a	n/a	JELLO	Desserts	11	-1	[0, 0, 0]	n/a	catFR1	2	R1658S
69.065	1.61	222771	WORD	n/a	n/a	PUDDING	Desserts	12	-1	[0, 0, 0]	n/a	catFR1	2	R1658S
70.675	0.001	224378	START	n/a	n/a	n/a	n/a	-999	-1	[-999, -999, -999]	n/a	catFR1	2	R1658S
70.676	0.0	224379	PROB	0.0	n/a	n/a	n/a	-999	-1	[5, 5, 1]	11	catFR1	2	R1658S
70.671	0.004	224383	WORD_OFF	n/a	n/a	PUDDING	Desserts	12	-1	[0, 0, 0]	n/a	catFR1	2	R1658S
70.675	0.0	224383	ENCODING_END	n/a	n/a	n/a	n/a	-999	-1	[0, 0, 0]	n/a	catFR1	2	R1658S
70.675	5.88	224383	DISTRACT_START	n/a	n/a	n/a	n/a	-999	-1	[0, 0, 0]	n/a	catFR1	2	R1658S
76.555	5.191	230258	PROB	5.191	n/a	n/a	n/a	-999	-1	[5, 3, 2]	10	catFR1	2	R1658S
81.746	7.334	235449	PROB	7.334	n/a	n/a	n/a	-999	-1	[1, 3, 4]	8	catFR1	2	R1658S
89.08	5.582	242783	PROB	5.582	n/a	n/a	n/a	-999	-1	[4, 2, 8]	16	catFR1	2	R1658S
94.662	0.0	248365	STOP	n/a	n/a	n/a	n/a	-999	-1	[-999, -999, -999]	n/a	catFR1	2	R1658S
94.662	2.36	248371	DISTRACT_END	n/a	n/a	n/a	n/a	-999	-1	[0, 0, 0]	n/a	catFR1	2	R1658S
97.022	0.174	250727	REC_START	n/a	n/a	n/a	n/a	-999	-1	[0, 0, 0]	n/a	catFR1	2	R1658S
97.196	1.116	250899	REC_WORD	1.116	n/a	CORKSCREW	KitchenTools	9	-1	[0, 0, 0]	n/a	catFR1	2	R1658S
98.312	1.28	252015	REC_WORD	1.28	n/a	HAMMER	Tools	7	-1	[0, 0, 0]	n/a	catFR1	2	R1658S
99.592	1.284	253295	REC_WORD	1.284	n/a	PUDDING	Desserts	12	-1	[0, 0, 0]	n/a	catFR1	2	R1658S
100.876	10.672	254579	REC_WORD	10.672	n/a	JELLO	Desserts	11	-1	[0, 0, 0]	n/a	catFR1	2	R1658S
111.548	1.692	265252	REC_WORD	1.692	n/a	MUSIC	n/a	-999	-1	[0, 0, 0]	n/a	catFR1	2	R1658S
113.24	4.33	266944	REC_WORD	4.33	n/a	INSTRUMENT	n/a	-999	-1	[0, 0, 0]	n/a	catFR1	2	R1658S
117.57	9.607	271274	REC_WORD_VV	9.607	n/a	<>	n/a	-999	-1	[0, 0, 0]	n/a	catFR1	2	R1658S
127.177	9.109	280882	REC_END	n/a	n/a	n/a	n/a	-999	-1	[0, 0, 0]	n/a	catFR1	2	R1658S
136.286	10.341	290002	COUNTDOWN_START	n/a	n/a	n/a	n/a	-999	1	[0, 0, 0]	n/a	catFR1	2	R1658S
146.627	0.0	300339	COUNTDOWN_END	n/a	n/a	n/a	n/a	-999	1	[0, 0, 0]	n/a	catFR1	2	R1658S
146.627	2.21	300339	ENCODING_START	n/a	n/a	n/a	n/a	-999	1	[0, 0, 0]	n/a	catFR1	2	R1658S
148.837	1.609	302548	WORD	n/a	wordpools/wordpool_categorized_EN.txt	BUTTERFLY	Insects	1	1	[0, 0, 0]	n/a	catFR1	2	R1658S
150.446	0.915	304149	WORD_OFF	n/a	n/a	BUTTERFLY	Insects	1	1	[0, 0, 0]	n/a	catFR1	2	R1658S
151.361	1.609	305073	WORD	n/a	wordpools/wordpool_categorized_EN.txt	BEE	Insects	2	1	[0, 0, 0]	n/a	catFR1	2	R1658S
152.97	0.891	306674	WORD_OFF	n/a	n/a	BEE	Insects	2	1	[0, 0, 0]	n/a	catFR1	2	R1658S
153.861	1.609	307576	WORD	n/a	wordpools/wordpool_categorized_EN.txt	FLEECE	Fabric	3	1	[0, 0, 0]	n/a	catFR1	2	R1658S
155.47	0.8	309176	WORD_OFF	n/a	n/a	FLEECE	Fabric	3	1	[0, 0, 0]	n/a	catFR1	2	R1658S
156.27	1.608	309977	WORD	n/a	wordpools/wordpool_categorized_EN.txt	LINEN	Fabric	4	1	[0, 0, 0]	n/a	catFR1	2	R1658S
157.878	0.941	311589	WORD_OFF	n/a	n/a	LINEN	Fabric	4	1	[0, 0, 0]	n/a	catFR1	2	R1658S
158.819	1.601	312524	WORD	n/a	wordpools/wordpool_categorized_EN.txt	MILK	Beverages	5	1	[0, 0, 0]	n/a	catFR1	2	R1658S
160.42	0.892	314125	WORD_OFF	n/a	n/a	MILK	Beverages	5	1	[0, 0, 0]	n/a	catFR1	2	R1658S
161.312	1.607	315027	WORD	n/a	wordpools/wordpool_categorized_EN.txt	COFFEE	Beverages	6	1	[0, 0, 0]	n/a	catFR1	2	R1658S
162.919	0.9	316628	WORD_OFF	n/a	n/a	COFFEE	Beverages	6	1	[0, 0, 0]	n/a	catFR1	2	R1658S
163.819	1.602	317529	WORD	n/a	wordpools/wordpool_categorized_EN.txt	SPANDEX	Fabric	7	1	[0, 0, 0]	n/a	catFR1	2	R1658S
165.421	0.833	319141	WORD_OFF	n/a	n/a	SPANDEX	Fabric	7	1	[0, 0, 0]	n/a	catFR1	2	R1658S
166.254	1.6	319964	WORD	n/a	wordpools/wordpool_categorized_EN.txt	DENIM	Fabric	8	1	[0, 0, 0]	n/a	catFR1	2	R1658S
167.854	0.981	321565	WORD_OFF	n/a	n/a	DENIM	Fabric	8	1	[0, 0, 0]	n/a	catFR1	2	R1658S
168.835	1.61	322546	WORD	n/a	wordpools/wordpool_categorized_EN.txt	WINE	Beverages	9	1	[0, 0, 0]	n/a	catFR1	2	R1658S
170.445	0.916	324158	WORD_OFF	n/a	n/a	WINE	Beverages	9	1	[0, 0, 0]	n/a	catFR1	2	R1658S
171.361	1.608	325071	WORD	n/a	wordpools/wordpool_categorized_EN.txt	WATER	Beverages	10	1	[0, 0, 0]	n/a	catFR1	2	R1658S
172.969	0.794	326683	WORD_OFF	n/a	n/a	WATER	Beverages	10	1	[0, 0, 0]	n/a	catFR1	2	R1658S
173.763	1.605	327472	WORD	n/a	wordpools/wordpool_categorized_EN.txt	MOTH	Insects	11	1	[0, 0, 0]	n/a	catFR1	2	R1658S
175.368	0.809	329073	WORD_OFF	n/a	n/a	MOTH	Insects	11	1	[0, 0, 0]	n/a	catFR1	2	R1658S
176.177	1.609	329884	WORD	n/a	wordpools/wordpool_categorized_EN.txt	MOSQUITO	Insects	12	1	[0, 0, 0]	n/a	catFR1	2	R1658S
177.786	0.004	331491	PROB	0.004	n/a	n/a	n/a	-999	1	[2, 5, 5]	12	catFR1	2	R1658S
177.79	0.0	331495	START	n/a	n/a	n/a	n/a	-999	1	[-999, -999, -999]	n/a	catFR1	2	R1658S
177.787	0.003	331496	WORD_OFF	n/a	n/a	MOSQUITO	Insects	12	1	[0, 0, 0]	n/a	catFR1	2	R1658S
177.79	0.0	331496	ENCODING_END	n/a	n/a	n/a	n/a	-999	1	[0, 0, 0]	n/a	catFR1	2	R1658S
177.79	5.554	331496	DISTRACT_START	n/a	n/a	n/a	n/a	-999	1	[0, 0, 0]	n/a	catFR1	2	R1658S
183.344	6.059	337049	PROB	6.059	n/a	n/a	n/a	-999	1	[8, 5, 3]	16	catFR1	2	R1658S
189.403	4.951	343108	PROB	4.951	n/a	n/a	n/a	-999	1	[5, 4, 3]	12	catFR1	2	R1658S
194.354	4.614	348059	PROB	4.614	n/a	n/a	n/a	-999	1	[5, 5, 1]	11	catFR1	2	R1658S
198.968	0.0	352673	STOP	n/a	n/a	n/a	n/a	-999	1	[-999, -999, -999]	n/a	catFR1	2	R1658S
198.968	2.051	352678	DISTRACT_END	n/a	n/a	n/a	n/a	-999	1	[0, 0, 0]	n/a	catFR1	2	R1658S
201.019	0.17	354729	REC_START	n/a	n/a	n/a	n/a	-999	1	[0, 0, 0]	n/a	catFR1	2	R1658S
201.189	1.168	354894	REC_WORD	1.168	n/a	BUTTERFLY	Insects	1	1	[0, 0, 0]	n/a	catFR1	2	R1658S
202.357	1.387	356062	REC_WORD	1.387	n/a	BEE	Insects	2	1	[0, 0, 0]	n/a	catFR1	2	R1658S
203.744	4.769	357449	REC_WORD	4.769	n/a	MOTH	Insects	11	1	[0, 0, 0]	n/a	catFR1	2	R1658S
208.513	7.693	362218	REC_WORD	7.693	n/a	COFFEE	Beverages	6	1	[0, 0, 0]	n/a	catFR1	2	R1658S
216.206	14.105	369911	REC_WORD	14.105	n/a	HAMMER	Tools	-999	1	[0, 0, 0]	n/a	catFR1	2	R1658S
230.311	0.858	384017	REC_WORD_VV	0.858	n/a	<>	n/a	-999	1	[0, 0, 0]	n/a	catFR1	2	R1658S
231.169	4.599	384884	REC_END	n/a	n/a	n/a	n/a	-999	1	[0, 0, 0]	n/a	catFR1	2	R1658S
235.768	10.341	389483	COUNTDOWN_START	n/a	n/a	n/a	n/a	-999	1	[0, 0, 0]	n/a	catFR1	2	R1658S
246.109	0.0	399820	COUNTDOWN_END	n/a	n/a	n/a	n/a	-999	1	[0, 0, 0]	n/a	catFR1	2	R1658S
246.109	1.918	399820	ENCODING_START	n/a	n/a	n/a	n/a	-999	2	[0, 0, 0]	n/a	catFR1	2	R1658S
248.027	1.608	401737	WORD	n/a	wordpools/wordpool_categorized_EN.txt	BLENDER	Appliances	1	2	[0, 0, 0]	n/a	catFR1	2	R1658S
249.635	0.982	403349	WORD_OFF	n/a	n/a	BLENDER	Appliances	1	2	[0, 0, 0]	n/a	catFR1	2	R1658S
250.617	1.601	404329	WORD	n/a	wordpools/wordpool_categorized_EN.txt	MIXER	Appliances	2	2	[0, 0, 0]	n/a	catFR1	2	R1658S
252.218	0.967	405930	WORD_OFF	n/a	n/a	MIXER	Appliances	2	2	[0, 0, 0]	n/a	catFR1	2	R1658S
253.185	1.601	406900	WORD	n/a	wordpools/wordpool_categorized_EN.txt	EYE	BodyParts	3	2	[0, 0, 0]	n/a	catFR1	2	R1658S
254.786	0.932	408500	WORD_OFF	n/a	n/a	EYE	BodyParts	3	2	[0, 0, 0]	n/a	catFR1	2	R1658S
255.718	1.609	409436	WORD	n/a	wordpools/wordpool_categorized_EN.txt	FOOT	BodyParts	4	2	[0, 0, 0]	n/a	catFR1	2	R1658S
257.327	0.916	411037	WORD_OFF	n/a	n/a	FOOT	BodyParts	4	2	[0, 0, 0]	n/a	catFR1	2	R1658S
258.243	1.609	411950	WORD	n/a	wordpools/wordpool_categorized_EN.txt	PETUNIA	Flowers	5	2	[0, 0, 0]	n/a	catFR1	2	R1658S
259.852	0.865	413562	WORD_OFF	n/a	n/a	PETUNIA	Flowers	5	2	[0, 0, 0]	n/a	catFR1	2	R1658S
260.717	1.601	414430	WORD	n/a	wordpools/wordpool_categorized_EN.txt	LILAC	Flowers	6	2	[0, 0, 0]	n/a	catFR1	2	R1658S
262.318	0.848	416031	WORD_OFF	n/a	n/a	LILAC	Flowers	6	2	[0, 0, 0]	n/a	catFR1	2	R1658S
263.166	1.602	416876	WORD	n/a	wordpools/wordpool_categorized_EN.txt	LEG	BodyParts	7	2	[0, 0, 0]	n/a	catFR1	2	R1658S
264.768	0.85	418477	WORD_OFF	n/a	n/a	LEG	BodyParts	7	2	[0, 0, 0]	n/a	catFR1	2	R1658S
265.618	1.607	419333	WORD	n/a	wordpools/wordpool_categorized_EN.txt	FINGERS	BodyParts	8	2	[0, 0, 0]	n/a	catFR1	2	R1658S
267.225	0.918	420934	WORD_OFF	n/a	n/a	FINGERS	BodyParts	8	2	[0, 0, 0]	n/a	catFR1	2	R1658S
268.143	1.607	421858	WORD	n/a	wordpools/wordpool_categorized_EN.txt	OVEN	Appliances	9	2	[0, 0, 0]	n/a	catFR1	2	R1658S
269.75	0.818	423459	WORD_OFF	n/a	n/a	OVEN	Appliances	9	2	[0, 0, 0]	n/a	catFR1	2	R1658S
270.568	1.608	424282	WORD	n/a	wordpools/wordpool_categorized_EN.txt	WASHER	Appliances	10	2	[0, 0, 0]	n/a	catFR1	2	R1658S
272.176	0.991	425883	WORD_OFF	n/a	n/a	WASHER	Appliances	10	2	[0, 0, 0]	n/a	catFR1	2	R1658S
273.167	1.61	426875	WORD	n/a	wordpools/wordpool_categorized_EN.txt	CARNATION	Flowers	11	2	[0, 0, 0]	n/a	catFR1	2	R1658S
274.777	0.866	428487	WORD_OFF	n/a	n/a	CARNATION	Flowers	11	2	[0, 0, 0]	n/a	catFR1	2	R1658S
275.643	1.607	429355	WORD	n/a	wordpools/wordpool_categorized_EN.txt	DAISY	Flowers	12	2	[0, 0, 0]	n/a	catFR1	2	R1658S
277.25	0.0	430956	WORD_OFF	n/a	n/a	DAISY	Flowers	12	2	[0, 0, 0]	n/a	catFR1	2	R1658S
277.25	0.003	430957	PROB	0.003	n/a	n/a	n/a	-999	2	[3, 5, 5]	13	catFR1	2	R1658S
277.253	0.0	430960	START	n/a	n/a	n/a	n/a	-999	2	[-999, -999, -999]	n/a	catFR1	2	R1658S
277.253	0.0	430967	ENCODING_END	n/a	n/a	n/a	n/a	-999	2	[0, 0, 0]	n/a	catFR1	2	R1658S
277.253	17.672	430967	DISTRACT_START	n/a	n/a	n/a	n/a	-999	2	[0, 0, 0]	n/a	catFR1	2	R1658S
294.925	7.835	448632	PROB	7.835	n/a	n/a	n/a	-999	2	[6, 3, 3]	12	catFR1	2	R1658S
302.76	0.0	456467	STOP	n/a	n/a	n/a	n/a	-999	2	[-999, -999, -999]	n/a	catFR1	2	R1658S
302.76	2.265	456477	DISTRACT_END	n/a	n/a	n/a	n/a	-999	2	[0, 0, 0]	n/a	catFR1	2	R1658S
305.025	2.161	458732	REC_START	n/a	n/a	n/a	n/a	-999	2	[0, 0, 0]	n/a	catFR1	2	R1658S
307.186	15.247	460893	REC_WORD_VV	15.247	n/a	<>	n/a	-999	2	[0, 0, 0]	n/a	catFR1	2	R1658S
322.433	1.0	476140	REC_WORD_VV	1.0	n/a	<>	n/a	-999	2	[0, 0, 0]	n/a	catFR1	2	R1658S
323.433	11.738	477140	REC_WORD_VV	11.738	n/a	<>	n/a	-999	2	[0, 0, 0]	n/a	catFR1	2	R1658S
335.171	3.171	488886	REC_END	n/a	n/a	n/a	n/a	-999	2	[0, 0, 0]	n/a	catFR1	2	R1658S
338.342	10.34	492054	COUNTDOWN_START	n/a	n/a	n/a	n/a	-999	2	[0, 0, 0]	n/a	catFR1	2	R1658S
348.682	0.0	502391	COUNTDOWN_END	n/a	n/a	n/a	n/a	-999	2	[0, 0, 0]	n/a	catFR1	2	R1658S
348.682	2.15	502402	ENCODING_START	n/a	n/a	n/a	n/a	-999	3	[0, 0, 0]	n/a	catFR1	2	R1658S
350.832	1.6	504544	WORD	n/a	wordpools/wordpool_categorized_EN.txt	DOLLHOUSE	Toys	1	3	[0, 0, 0]	n/a	catFR1	2	R1658S
352.432	0.925	506145	WORD_OFF	n/a	n/a	DOLLHOUSE	Toys	1	3	[0, 0, 0]	n/a	catFR1	2	R1658S
353.357	1.601	507069	WORD	n/a	wordpools/wordpool_categorized_EN.txt	MARBLES	Toys	2	3	[0, 0, 0]	n/a	catFR1	2	R1658S
354.958	0.826	508670	WORD_OFF	n/a	n/a	MARBLES	Toys	2	3	[0, 0, 0]	n/a	catFR1	2	R1658S
355.784	1.607	509504	WORD	n/a	wordpools/wordpool_categorized_EN.txt	TRUMPET	Instruments	3	3	[0, 0, 0]	n/a	catFR1	2	R1658S
357.391	0.851	511105	WORD_OFF	n/a	n/a	TRUMPET	Instruments	3	3	[0, 0, 0]	n/a	catFR1	2	R1658S
358.242	1.599	511961	WORD	n/a	wordpools/wordpool_categorized_EN.txt	TUBA	Instruments	4	3	[0, 0, 0]	n/a	catFR1	2	R1658S
359.841	0.799	513551	WORD_OFF	n/a	n/a	TUBA	Instruments	4	3	[0, 0, 0]	n/a	catFR1	2	R1658S
360.64	1.609	514351	WORD	n/a	wordpools/wordpool_categorized_EN.txt	FLOOR	Building	5	3	[0, 0, 0]	n/a	catFR1	2	R1658S
362.249	0.784	515963	WORD_OFF	n/a	n/a	FLOOR	Building	5	3	[0, 0, 0]	n/a	catFR1	2	R1658S
363.033	1.608	516752	WORD	n/a	wordpools/wordpool_categorized_EN.txt	ROOM	Building	6	3	[0, 0, 0]	n/a	catFR1	2	R1658S
364.641	0.917	518353	WORD_OFF	n/a	n/a	ROOM	Building	6	3	[0, 0, 0]	n/a	catFR1	2	R1658S
365.558	1.599	519266	WORD	n/a	wordpools/wordpool_categorized_EN.txt	CELLO	Instruments	7	3	[0, 0, 0]	n/a	catFR1	2	R1658S
367.157	0.9	520867	WORD_OFF	n/a	n/a	CELLO	Instruments	7	3	[0, 0, 0]	n/a	catFR1	2	R1658S
368.057	1.609	521769	WORD	n/a	wordpools/wordpool_categorized_EN.txt	PIANO	Instruments	8	3	[0, 0, 0]	n/a	catFR1	2	R1658S
369.666	0.841	523381	WORD_OFF	n/a	n/a	PIANO	Instruments	8	3	[0, 0, 0]	n/a	catFR1	2	R1658S
370.507	1.601	524215	WORD	n/a	wordpools/wordpool_categorized_EN.txt	BASEBALL	Toys	9	3	[0, 0, 0]	n/a	catFR1	2	R1658S
372.108	0.94	525816	WORD_OFF	n/a	n/a	BASEBALL	Toys	9	3	[0, 0, 0]	n/a	catFR1	2	R1658S
373.048	1.601	526762	WORD	n/a	wordpools/wordpool_categorized_EN.txt	FRISBEE	Toys	10	3	[0, 0, 0]	n/a	catFR1	2	R1658S
374.649	0.875	528363	WORD_OFF	n/a	n/a	FRISBEE	Toys	10	3	[0, 0, 0]	n/a	catFR1	2	R1658S
375.524	1.608	529242	WORD	n/a	wordpools/wordpool_categorized_EN.txt	ROOF	Building	11	3	[0, 0, 0]	n/a	catFR1	2	R1658S
377.132	0.858	530843	WORD_OFF	n/a	n/a	ROOF	Building	11	3	[0, 0, 0]	n/a	catFR1	2	R1658S
377.99	1.6	531700	WORD	n/a	wordpools/wordpool_categorized_EN.txt	BATHROOM	Building	12	3	[0, 0, 0]	n/a	catFR1	2	R1658S
379.59	0.001	533298	PROB	0.001	n/a	n/a	n/a	-999	3	[1, 2, 5]	8	catFR1	2	R1658S
379.591	0.003	533301	WORD_OFF	n/a	n/a	BATHROOM	Building	12	3	[0, 0, 0]	n/a	catFR1	2	R1658S
379.594	0.0	533302	START	n/a	n/a	n/a	n/a	-999	3	[-999, -999, -999]	n/a	catFR1	2	R1658S
379.594	0.0	533312	ENCODING_END	n/a	n/a	n/a	n/a	-999	3	[0, 0, 0]	n/a	catFR1	2	R1658S
379.594	10.788	533312	DISTRACT_START	n/a	n/a	n/a	n/a	-999	3	[0, 0, 0]	n/a	catFR1	2	R1658S
390.382	11.974	544091	PROB	11.974	n/a	n/a	n/a	-999	3	[1, 2, 2]	5	catFR1	2	R1658S
402.356	0.0	556065	STOP	n/a	n/a	n/a	n/a	-999	3	[-999, -999, -999]	n/a	catFR1	2	R1658S
402.356	2.125	556071	DISTRACT_END	n/a	n/a	n/a	n/a	-999	3	[0, 0, 0]	n/a	catFR1	2	R1658S
404.481	1.621	558191	REC_START	n/a	n/a	n/a	n/a	-999	3	[0, 0, 0]	n/a	catFR1	2	R1658S
406.102	3.786	559811	REC_WORD	3.786	n/a	VIOLIN	n/a	-999	3	[0, 0, 0]	n/a	catFR1	2	R1658S
409.888	4.383	563597	REC_WORD	4.383	n/a	MOTH	Insects	-999	3	[0, 0, 0]	n/a	catFR1	2	R1658S
414.271	8.309	567980	REC_WORD	8.309	n/a	BATHROOM	Building	12	3	[0, 0, 0]	n/a	catFR1	2	R1658S
422.58	5.855	576289	REC_WORD	5.855	n/a	PIANO	Instruments	8	3	[0, 0, 0]	n/a	catFR1	2	R1658S
428.435	6.192	582144	REC_WORD_VV	6.192	n/a	<>	n/a	-999	3	[0, 0, 0]	n/a	catFR1	2	R1658S
434.627	15.945	588345	REC_END	n/a	n/a	n/a	n/a	-999	3	[0, 0, 0]	n/a	catFR1	2	R1658S
450.572	10.341	604285	COUNTDOWN_START	n/a	n/a	n/a	n/a	-999	3	[0, 0, 0]	n/a	catFR1	2	R1658S
460.913	0.001	614633	COUNTDOWN_END	n/a	n/a	n/a	n/a	-999	3	[0, 0, 0]	n/a	catFR1	2	R1658S
460.914	2.115	614633	ENCODING_START	n/a	n/a	n/a	n/a	-999	4	[0, 0, 0]	n/a	catFR1	2	R1658S
463.029	1.603	616741	WORD	n/a	wordpools/wordpool_categorized_EN.txt	NOTEBOOK	OfficeSupplies	1	4	[0, 0, 0]	n/a	catFR1	2	R1658S
464.632	0.774	618342	WORD_OFF	n/a	n/a	NOTEBOOK	OfficeSupplies	1	4	[0, 0, 0]	n/a	catFR1	2	R1658S
465.406	1.6	619120	WORD	n/a	wordpools/wordpool_categorized_EN.txt	PAPER	OfficeSupplies	2	4	[0, 0, 0]	n/a	catFR1	2	R1658S
467.006	0.852	620721	WORD_OFF	n/a	n/a	PAPER	OfficeSupplies	2	4	[0, 0, 0]	n/a	catFR1	2	R1658S
467.858	1.598	621577	WORD	n/a	wordpools/wordpool_categorized_EN.txt	DRUM	Instruments	3	4	[0, 0, 0]	n/a	catFR1	2	R1658S
469.456	0.919	623167	WORD_OFF	n/a	n/a	DRUM	Instruments	3	4	[0, 0, 0]	n/a	catFR1	2	R1658S
470.375	1.606	624091	WORD	n/a	wordpools/wordpool_categorized_EN.txt	GUITAR	Instruments	4	4	[0, 0, 0]	n/a	catFR1	2	R1658S
471.981	0.907	625692	WORD_OFF	n/a	n/a	GUITAR	Instruments	4	4	[0, 0, 0]	n/a	catFR1	2	R1658S
472.888	1.6	626605	WORD	n/a	wordpools/wordpool_categorized_EN.txt	TOASTER	Appliances	5	4	[0, 0, 0]	n/a	catFR1	2	R1658S
474.488	0.827	628206	WORD_OFF	n/a	n/a	TOASTER	Appliances	5	4	[0, 0, 0]	n/a	catFR1	2	R1658S
475.315	1.608	629029	WORD	n/a	wordpools/wordpool_categorized_EN.txt	FREEZER	Appliances	6	4	[0, 0, 0]	n/a	catFR1	2	R1658S
476.923	0.842	630641	WORD_OFF	n/a	n/a	FREEZER	Appliances	6	4	[0, 0, 0]	n/a	catFR1	2	R1658S
477.765	1.599	631475	WORD	n/a	wordpools/wordpool_categorized_EN.txt	TAPE	OfficeSupplies	7	4	[0, 0, 0]	n/a	catFR1	2	R1658S
479.364	0.859	633075	WORD_OFF	n/a	n/a	TAPE	OfficeSupplies	7	4	[0, 0, 0]	n/a	catFR1	2	R1658S
480.223	1.6	633932	WORD	n/a	wordpools/wordpool_categorized_EN.txt	GLUE	OfficeSupplies	8	4	[0, 0, 0]	n/a	catFR1	2	R1658S
481.823	0.982	635544	WORD_OFF	n/a	n/a	GLUE	OfficeSupplies	8	4	[0, 0, 0]	n/a	catFR1	2	R1658S
482.805	1.599	636525	WORD	n/a	wordpools/wordpool_categorized_EN.txt	DISHWASHER	Appliances	9	4	[0, 0, 0]	n/a	catFR1	2	R1658S
484.404	0.917	638114	WORD_OFF	n/a	n/a	DISHWASHER	Appliances	9	4	[0, 0, 0]	n/a	catFR1	2	R1658S
485.321	1.601	639039	WORD	n/a	wordpools/wordpool_categorized_EN.txt	REFRIGERATOR	Appliances	10	4	[0, 0, 0]	n/a	catFR1	2	R1658S
486.922	0.892	640639	WORD_OFF	n/a	n/a	REFRIGERATOR	Appliances	10	4	[0, 0, 0]	n/a	catFR1	2	R1658S
487.814	1.607	641530	WORD	n/a	wordpools/wordpool_categorized_EN.txt	BASS	Instruments	11	4	[0, 0, 0]	n/a	catFR1	2	R1658S
489.421	0.883	643131	WORD_OFF	n/a	n/a	BASS	Instruments	11	4	[0, 0, 0]	n/a	catFR1	2	R1658S
490.304	1.601	644033	WORD	n/a	wordpools/wordpool_categorized_EN.txt	VIOLIN	Instruments	12	4	[0, 0, 0]	n/a	catFR1	2	R1658S
491.905	0.003	645615	PROB	0.003	n/a	n/a	n/a	-999	4	[2, 5, 1]	8	catFR1	2	R1658S
491.908	0.0	645618	START	n/a	n/a	n/a	n/a	-999	4	[-999, -999, -999]	n/a	catFR1	2	R1658S
491.904	0.004	645622	WORD_OFF	n/a	n/a	VIOLIN	Instruments	12	4	[0, 0, 0]	n/a	catFR1	2	R1658S
491.908	0.0	645622	ENCODING_END	n/a	n/a	n/a	n/a	-999	4	[0, 0, 0]	n/a	catFR1	2	R1658S
491.908	10.981	645622	DISTRACT_START	n/a	n/a	n/a	n/a	-999	4	[0, 0, 0]	n/a	catFR1	2	R1658S
502.889	22.764	656600	PROB	22.764	n/a	n/a	n/a	-999	4	[4, 8, 2]	14	catFR1	2	R1658S
525.653	0.0	679364	STOP	n/a	n/a	n/a	n/a	-999	4	[-999, -999, -999]	n/a	catFR1	2	R1658S
525.653	2.035	679372	DISTRACT_END	n/a	n/a	n/a	n/a	-999	4	[0, 0, 0]	n/a	catFR1	2	R1658S
527.688	0.689	681402	REC_START	n/a	n/a	n/a	n/a	-999	4	[0, 0, 0]	n/a	catFR1	2	R1658S
528.377	0.991	682088	REC_WORD	0.991	n/a	TAPE	OfficeSupplies	7	4	[0, 0, 0]	n/a	catFR1	2	R1658S
529.368	1.404	683079	REC_WORD_VV	1.404	n/a	<>	n/a	-999	4	[0, 0, 0]	n/a	catFR1	2	R1658S
530.772	1.774	684483	REC_WORD	1.774	n/a	NOTEBOOK	OfficeSupplies	1	4	[0, 0, 0]	n/a	catFR1	2	R1658S
532.546	1.823	686257	REC_WORD	1.823	n/a	NOTEBOOK	OfficeSupplies	1	4	[0, 0, 0]	n/a	catFR1	2	R1658S
534.369	2.527	688080	REC_WORD	2.527	n/a	PAPER	OfficeSupplies	2	4	[0, 0, 0]	n/a	catFR1	2	R1658S
536.896	2.437	690607	REC_WORD	2.437	n/a	VIOLIN	Instruments	12	4	[0, 0, 0]	n/a	catFR1	2	R1658S
539.333	4.243	693044	REC_WORD	4.243	n/a	DRUM	Instruments	3	4	[0, 0, 0]	n/a	catFR1	2	R1658S
543.576	14.252	697287	REC_WORD_VV	14.252	n/a	<>	n/a	-999	4	[0, 0, 0]	n/a	catFR1	2	R1658S
557.828	4.167	711545	REC_END	n/a	n/a	n/a	n/a	-999	4	[0, 0, 0]	n/a	catFR1	2	R1658S
561.995	10.341	715716	COUNTDOWN_START	n/a	n/a	n/a	n/a	-999	4	[0, 0, 0]	n/a	catFR1	2	R1658S
572.336	0.0	726053	COUNTDOWN_END	n/a	n/a	n/a	n/a	-999	4	[0, 0, 0]	n/a	catFR1	2	R1658S
572.336	2.258	726053	ENCODING_START	n/a	n/a	n/a	n/a	-999	5	[0, 0, 0]	n/a	catFR1	2	R1658S
574.594	1.6	728307	WORD	n/a	wordpools/wordpool_categorized_EN.txt	CAR	Vehicles	1	5	[0, 0, 0]	n/a	catFR1	2	R1658S
576.194	0.926	729908	WORD_OFF	n/a	n/a	CAR	Vehicles	1	5	[0, 0, 0]	n/a	catFR1	2	R1658S
577.12	1.608	730844	WORD	n/a	wordpools/wordpool_categorized_EN.txt	SCOOTER	Vehicles	2	5	[0, 0, 0]	n/a	catFR1	2	R1658S
578.728	0.94	732444	WORD_OFF	n/a	n/a	SCOOTER	Vehicles	2	5	[0, 0, 0]	n/a	catFR1	2	R1658S
579.668	1.608	733391	WORD	n/a	wordpools/wordpool_categorized_EN.txt	MOUSSE	Desserts	3	5	[0, 0, 0]	n/a	catFR1	2	R1658S
581.276	0.794	734992	WORD_OFF	n/a	n/a	MOUSSE	Desserts	3	5	[0, 0, 0]	n/a	catFR1	2	R1658S
582.07	1.617	735792	WORD	n/a	wordpools/wordpool_categorized_EN.txt	COOKIE	Desserts	4	5	[0, 0, 0]	n/a	catFR1	2	R1658S
583.687	0.815	737404	WORD_OFF	n/a	n/a	COOKIE	Desserts	4	5	[0, 0, 0]	n/a	catFR1	2	R1658S
584.502	1.6	738216	WORD	n/a	wordpools/wordpool_categorized_EN.txt	FINCH	Birds	5	5	[0, 0, 0]	n/a	catFR1	2	R1658S
586.102	0.81	739817	WORD_OFF	n/a	n/a	FINCH	Birds	5	5	[0, 0, 0]	n/a	catFR1	2	R1658S
586.912	1.606	740628	WORD	n/a	wordpools/wordpool_categorized_EN.txt	CROW	Birds	6	5	[0, 0, 0]	n/a	catFR1	2	R1658S
588.518	0.902	742240	WORD_OFF	n/a	n/a	CROW	Birds	6	5	[0, 0, 0]	n/a	catFR1	2	R1658S
589.42	1.608	743142	WORD	n/a	wordpools/wordpool_categorized_EN.txt	TRUCK	Vehicles	7	5	[0, 0, 0]	n/a	catFR1	2	R1658S
591.028	0.975	744743	WORD_OFF	n/a	n/a	TRUCK	Vehicles	7	5	[0, 0, 0]	n/a	catFR1	2	R1658S
592.003	1.608	745724	WORD	n/a	wordpools/wordpool_categorized_EN.txt	MOTORCYCLE	Vehicles	8	5	[0, 0, 0]	n/a	catFR1	2	R1658S
593.611	0.867	747324	WORD_OFF	n/a	n/a	MOTORCYCLE	Vehicles	8	5	[0, 0, 0]	n/a	catFR1	2	R1658S
594.478	1.6	748192	WORD	n/a	wordpools/wordpool_categorized_EN.txt	FUDGE	Desserts	9	5	[0, 0, 0]	n/a	catFR1	2	R1658S
596.078	0.824	749793	WORD_OFF	n/a	n/a	FUDGE	Desserts	9	5	[0, 0, 0]	n/a	catFR1	2	R1658S
596.902	1.601	750616	WORD	n/a	wordpools/wordpool_categorized_EN.txt	PIE	Desserts	10	5	[0, 0, 0]	n/a	catFR1	2	R1658S
598.503	0.867	752217	WORD_OFF	n/a	n/a	PIE	Desserts	10	5	[0, 0, 0]	n/a	catFR1	2	R1658S
599.37	1.6	753085	WORD	n/a	wordpools/wordpool_categorized_EN.txt	SEAGULL	Birds	11	5	[0, 0, 0]	n/a	catFR1	2	R1658S
600.97	0.941	754697	WORD_OFF	n/a	n/a	SEAGULL	Birds	11	5	[0, 0, 0]	n/a	catFR1	2	R1658S
601.911	1.602	755632	WORD	n/a	wordpools/wordpool_categorized_EN.txt	PIGEON	Birds	12	5	[0, 0, 0]	n/a	catFR1	2	R1658S
603.513	0.002	757226	PROB	0.002	n/a	n/a	n/a	-999	5	[5, 5, 5]	15	catFR1	2	R1658S
603.515	0.0	757228	START	n/a	n/a	n/a	n/a	-999	5	[-999, -999, -999]	n/a	catFR1	2	R1658S
603.512	0.003	757233	WORD_OFF	n/a	n/a	PIGEON	Birds	12	5	[0, 0, 0]	n/a	catFR1	2	R1658S
603.515	0.0	757233	ENCODING_END	n/a	n/a	n/a	n/a	-999	5	[0, 0, 0]	n/a	catFR1	2	R1658S
603.515	7.747	757233	DISTRACT_START	n/a	n/a	n/a	n/a	-999	5	[0, 0, 0]	n/a	catFR1	2	R1658S
611.262	15.148	764975	PROB	15.148	n/a	n/a	n/a	-999	5	[7, 5, 7]	19	catFR1	2	R1658S
626.41	0.0	780123	STOP	n/a	n/a	n/a	n/a	-999	5	[-999, -999, -999]	n/a	catFR1	2	R1658S
626.41	2.1	780128	DISTRACT_END	n/a	n/a	n/a	n/a	-999	5	[0, 0, 0]	n/a	catFR1	2	R1658S
628.51	1.504	782225	REC_START	n/a	n/a	n/a	n/a	-999	5	[0, 0, 0]	n/a	catFR1	2	R1658S
630.014	3.283	783727	REC_WORD	3.283	n/a	PIGEON	Birds	12	5	[0, 0, 0]	n/a	catFR1	2	R1658S
633.297	4.935	787010	REC_WORD	4.935	n/a	DUCK	n/a	-999	5	[0, 0, 0]	n/a	catFR1	2	R1658S
638.232	20.421	791945	REC_WORD	20.421	n/a	BIRD	n/a	-999	5	[0, 0, 0]	n/a	catFR1	2	R1658S
658.653	2.964	812368	REC_END	n/a	n/a	n/a	n/a	-999	5	[0, 0, 0]	n/a	catFR1	2	R1658S
661.617	10.334	815333	COUNTDOWN_START	n/a	n/a	n/a	n/a	-999	5	[0, 0, 0]	n/a	catFR1	2	R1658S
671.951	0.0	825670	COUNTDOWN_END	n/a	n/a	n/a	n/a	-999	5	[0, 0, 0]	n/a	catFR1	2	R1658S
671.951	2.209	825670	ENCODING_START	n/a	n/a	n/a	n/a	-999	6	[0, 0, 0]	n/a	catFR1	2	R1658S
674.16	1.609	827879	WORD	n/a	wordpools/wordpool_categorized_EN.txt	HICKORY	Trees	1	6	[0, 0, 0]	n/a	catFR1	2	R1658S
675.769	0.774	829491	WORD_OFF	n/a	n/a	HICKORY	Trees	1	6	[0, 0, 0]	n/a	catFR1	2	R1658S
676.543	1.6	830258	WORD	n/a	wordpools/wordpool_categorized_EN.txt	EVERGREEN	Trees	2	6	[0, 0, 0]	n/a	catFR1	2	R1658S
678.143	0.858	831859	WORD_OFF	n/a	n/a	EVERGREEN	Trees	2	6	[0, 0, 0]	n/a	catFR1	2	R1658S
679.001	1.61	832715	WORD	n/a	wordpools/wordpool_categorized_EN.txt	APPLE	Fruit	3	6	[0, 0, 0]	n/a	catFR1	2	R1658S
680.611	0.983	834327	WORD_OFF	n/a	n/a	APPLE	Fruit	3	6	[0, 0, 0]	n/a	catFR1	2	R1658S
681.594	1.607	835319	WORD	n/a	wordpools/wordpool_categorized_EN.txt	CHERRY	Fruit	4	6	[0, 0, 0]	n/a	catFR1	2	R1658S
683.201	0.858	836920	WORD_OFF	n/a	n/a	CHERRY	Fruit	4	6	[0, 0, 0]	n/a	catFR1	2	R1658S
684.059	1.6	837777	WORD	n/a	wordpools/wordpool_categorized_EN.txt	KNEE	BodyParts	5	6	[0, 0, 0]	n/a	catFR1	2	R1658S
685.659	0.792	839377	WORD_OFF	n/a	n/a	KNEE	BodyParts	5	6	[0, 0, 0]	n/a	catFR1	2	R1658S
686.451	1.601	840167	WORD	n/a	wordpools/wordpool_categorized_EN.txt	EAR	BodyParts	6	6	[0, 0, 0]	n/a	catFR1	2	R1658S
688.052	0.916	841779	WORD_OFF	n/a	n/a	EAR	BodyParts	6	6	[0, 0, 0]	n/a	catFR1	2	R1658S
688.968	1.608	842692	WORD	n/a	wordpools/wordpool_categorized_EN.txt	SPRUCE	Trees	7	6	[0, 0, 0]	n/a	catFR1	2	R1658S
690.576	0.917	844292	WORD_OFF	n/a	n/a	SPRUCE	Trees	7	6	[0, 0, 0]	n/a	catFR1	2	R1658S
691.493	1.6	845217	WORD	n/a	wordpools/wordpool_categorized_EN.txt	PINE	Trees	8	6	[0, 0, 0]	n/a	catFR1	2	R1658S
693.093	0.908	846817	WORD_OFF	n/a	n/a	PINE	Trees	8	6	[0, 0, 0]	n/a	catFR1	2	R1658S
694.001	1.599	847719	WORD	n/a	wordpools/wordpool_categorized_EN.txt	PEACH	Fruit	9	6	[0, 0, 0]	n/a	catFR1	2	R1658S
695.6	0.917	849320	WORD_OFF	n/a	n/a	PEACH	Fruit	9	6	[0, 0, 0]	n/a	catFR1	2	R1658S
696.517	1.6	850233	WORD	n/a	wordpools/wordpool_categorized_EN.txt	GRAPE	Fruit	10	6	[0, 0, 0]	n/a	catFR1	2	R1658S
698.117	0.9	851834	WORD_OFF	n/a	n/a	GRAPE	Fruit	10	6	[0, 0, 0]	n/a	catFR1	2	R1658S
699.017	1.608	852736	WORD	n/a	wordpools/wordpool_categorized_EN.txt	ARM	BodyParts	11	6	[0, 0, 0]	n/a	catFR1	2	R1658S
700.625	0.843	854348	WORD_OFF	n/a	n/a	ARM	BodyParts	11	6	[0, 0, 0]	n/a	catFR1	2	R1658S
701.468	1.616	855193	WORD	n/a	wordpools/wordpool_categorized_EN.txt	NOSE	BodyParts	12	6	[0, 0, 0]	n/a	catFR1	2	R1658S
703.084	0.005	856798	PROB	0.005	n/a	n/a	n/a	-999	6	[4, 1, 4]	9	catFR1	2	R1658S
703.089	0.0	856803	START	n/a	n/a	n/a	n/a	-999	6	[-999, -999, -999]	n/a	catFR1	2	R1658S
703.085	0.004	856805	WORD_OFF	n/a	n/a	NOSE	BodyParts	12	6	[0, 0, 0]	n/a	catFR1	2	R1658S
703.089	0.0	856805	ENCODING_END	n/a	n/a	n/a	n/a	-999	6	[0, 0, 0]	n/a	catFR1	2	R1658S
703.089	8.853	856805	DISTRACT_START	n/a	n/a	n/a	n/a	-999	6	[0, 0, 0]	n/a	catFR1	2	R1658S
711.942	6.041	865656	PROB	6.041	n/a	n/a	n/a	-999	6	[5, 3, 5]	13	catFR1	2	R1658S
717.983	4.068	871698	PROB	4.068	n/a	n/a	n/a	-999	6	[5, 5, 6]	16	catFR1	2	R1658S
722.051	9.015	875766	PROB	9.015	n/a	n/a	n/a	-999	6	[4, 5, 8]	17	catFR1	2	R1658S
731.066	0.0	884781	STOP	n/a	n/a	n/a	n/a	-999	6	[-999, -999, -999]	n/a	catFR1	2	R1658S
731.066	2.385	884784	DISTRACT_END	n/a	n/a	n/a	n/a	-999	6	[0, 0, 0]	n/a	catFR1	2	R1658S
733.451	0.074	887174	REC_START	n/a	n/a	n/a	n/a	-999	6	[0, 0, 0]	n/a	catFR1	2	R1658S
733.525	0.99	887240	REC_WORD	0.99	n/a	APPLE	Fruit	3	6	[0, 0, 0]	n/a	catFR1	2	R1658S
734.515	1.17	888230	REC_WORD	1.17	n/a	GRAPE	Fruit	10	6	[0, 0, 0]	n/a	catFR1	2	R1658S
735.685	10.147	889400	REC_WORD	10.147	n/a	CHERRY	Fruit	4	6	[0, 0, 0]	n/a	catFR1	2	R1658S
745.832	17.759	899547	REC_WORD	17.759	n/a	EVERGREEN	Trees	2	6	[0, 0, 0]	n/a	catFR1	2	R1658S
763.591	3.833	917306	REC_END	n/a	n/a	n/a	n/a	-999	6	[0, 0, 0]	n/a	catFR1	2	R1658S
767.424	10.341	921150	COUNTDOWN_START	n/a	n/a	n/a	n/a	-999	6	[0, 0, 0]	n/a	catFR1	2	R1658S
777.765	0.0	931487	COUNTDOWN_END	n/a	n/a	n/a	n/a	-999	6	[0, 0, 0]	n/a	catFR1	2	R1658S
777.765	2.043	931487	ENCODING_START	n/a	n/a	n/a	n/a	-999	7	[0, 0, 0]	n/a	catFR1	2	R1658S
779.808	1.608	933527	WORD	n/a	wordpools/wordpool_categorized_EN.txt	SKIRT	Clothing	1	7	[0, 0, 0]	n/a	catFR1	2	R1658S
781.416	0.909	935139	WORD_OFF	n/a	n/a	SKIRT	Clothing	1	7	[0, 0, 0]	n/a	catFR1	2	R1658S
782.325	1.608	936041	WORD	n/a	wordpools/wordpool_categorized_EN.txt	UNDERWEAR	Clothing	2	7	[0, 0, 0]	n/a	catFR1	2	R1658S
783.933	0.858	937653	WORD_OFF	n/a	n/a	UNDERWEAR	Clothing	2	7	[0, 0, 0]	n/a	catFR1	2	R1658S
784.791	1.601	938510	WORD	n/a	wordpools/wordpool_categorized_EN.txt	CHAIR	Furniture	3	7	[0, 0, 0]	n/a	catFR1	2	R1658S
786.392	0.865	940110	WORD_OFF	n/a	n/a	CHAIR	Furniture	3	7	[0, 0, 0]	n/a	catFR1	2	R1658S
787.257	1.602	940978	WORD	n/a	wordpools/wordpool_categorized_EN.txt	NIGHTSTAND	Furniture	4	7	[0, 0, 0]	n/a	catFR1	2	R1658S
788.859	0.94	942579	WORD_OFF	n/a	n/a	NIGHTSTAND	Furniture	4	7	[0, 0, 0]	n/a	catFR1	2	R1658S
789.799	1.608	943515	WORD	n/a	wordpools/wordpool_categorized_EN.txt	BASKETBALL	Toys	5	7	[0, 0, 0]	n/a	catFR1	2	R1658S
791.407	0.885	945127	WORD_OFF	n/a	n/a	BASKETBALL	Toys	5	7	[0, 0, 0]	n/a	catFR1	2	R1658S
792.292	1.607	946017	WORD	n/a	wordpools/wordpool_categorized_EN.txt	BALL	Toys	6	7	[0, 0, 0]	n/a	catFR1	2	R1658S
793.899	0.8	947618	WORD_OFF	n/a	n/a	BALL	Toys	6	7	[0, 0, 0]	n/a	catFR1	2	R1658S
794.699	1.609	948418	WORD	n/a	wordpools/wordpool_categorized_EN.txt	BOOKCASE	Furniture	7	7	[0, 0, 0]	n/a	catFR1	2	R1658S
796.308	0.94	950030	WORD_OFF	n/a	n/a	BOOKCASE	Furniture	7	7	[0, 0, 0]	n/a	catFR1	2	R1658S
797.248	1.602	950966	WORD	n/a	wordpools/wordpool_categorized_EN.txt	COUCH	Furniture	8	7	[0, 0, 0]	n/a	catFR1	2	R1658S
798.85	0.999	952567	WORD_OFF	n/a	n/a	COUCH	Furniture	8	7	[0, 0, 0]	n/a	catFR1	2	R1658S
799.849	1.609	953570	WORD	n/a	wordpools/wordpool_categorized_EN.txt	SHOES	Clothing	9	7	[0, 0, 0]	n/a	catFR1	2	R1658S
801.458	0.824	955182	WORD_OFF	n/a	n/a	SHOES	Clothing	9	7	[0, 0, 0]	n/a	catFR1	2	R1658S
802.282	1.609	956005	WORD	n/a	wordpools/wordpool_categorized_EN.txt	SHORTS	Clothing	10	7	[0, 0, 0]	n/a	catFR1	2	R1658S
803.891	1.0	957617	WORD_OFF	n/a	n/a	SHORTS	Clothing	10	7	[0, 0, 0]	n/a	catFR1	2	R1658S
804.891	1.6	958609	WORD	n/a	wordpools/wordpool_categorized_EN.txt	FOOTBALL	Toys	11	7	[0, 0, 0]	n/a	catFR1	2	R1658S
806.491	0.791	960221	WORD_OFF	n/a	n/a	FOOTBALL	Toys	11	7	[0, 0, 0]	n/a	catFR1	2	R1658S
807.282	1.599	961010	WORD	n/a	wordpools/wordpool_categorized_EN.txt	SLINKY	Toys	12	7	[0, 0, 0]	n/a	catFR1	2	R1658S
808.881	0.001	962597	PROB	0.001	n/a	n/a	n/a	-999	7	[1, 2, 1]	4	catFR1	2	R1658S
808.882	0.003	962600	WORD_OFF	n/a	n/a	SLINKY	Toys	12	7	[0, 0, 0]	n/a	catFR1	2	R1658S
808.885	0.0	962601	START	n/a	n/a	n/a	n/a	-999	7	[-999, -999, -999]	n/a	catFR1	2	R1658S
808.885	0.0	962611	ENCODING_END	n/a	n/a	n/a	n/a	-999	7	[0, 0, 0]	n/a	catFR1	2	R1658S
808.885	8.273	962611	DISTRACT_START	n/a	n/a	n/a	n/a	-999	7	[0, 0, 0]	n/a	catFR1	2	R1658S
817.158	3.773	970874	PROB	3.773	n/a	n/a	n/a	-999	7	[5, 5, 1]	11	catFR1	2	R1658S
820.931	16.341	974647	PROB	16.341	n/a	n/a	n/a	-999	7	[7, 5, 5]	17	catFR1	2	R1658S
837.272	0.0	990989	STOP	n/a	n/a	n/a	n/a	-999	7	[-999, -999, -999]	n/a	catFR1	2	R1658S
837.272	2.27	990996	DISTRACT_END	n/a	n/a	n/a	n/a	-999	7	[0, 0, 0]	n/a	catFR1	2	R1658S
839.542	0.792	993261	REC_START	n/a	n/a	n/a	n/a	-999	7	[0, 0, 0]	n/a	catFR1	2	R1658S
840.334	2.611	994051	REC_WORD	2.611	n/a	CLOTHES	n/a	-999	7	[0, 0, 0]	n/a	catFR1	2	R1658S
842.945	9.205	996662	REC_WORD	9.205	n/a	SHOES	Clothing	9	7	[0, 0, 0]	n/a	catFR1	2	R1658S
852.15	1.122	1005867	REC_WORD	1.122	n/a	VEGETABLES	n/a	-999	7	[0, 0, 0]	n/a	catFR1	2	R1658S
853.272	16.411	1006989	REC_WORD	16.411	n/a	BROCCOLI	n/a	-999	7	[0, 0, 0]	n/a	catFR1	2	R1658S
869.683	4.038	1023405	REC_END	n/a	n/a	n/a	n/a	-999	7	[0, 0, 0]	n/a	catFR1	2	R1658S
873.721	10.343	1027451	COUNTDOWN_START	n/a	n/a	n/a	n/a	-999	7	[0, 0, 0]	n/a	catFR1	2	R1658S
884.064	0.0	1037789	COUNTDOWN_END	n/a	n/a	n/a	n/a	-999	7	[0, 0, 0]	n/a	catFR1	2	R1658S
884.064	2.032	1037789	ENCODING_START	n/a	n/a	n/a	n/a	-999	8	[0, 0, 0]	n/a	catFR1	2	R1658S
886.096	1.603	1039818	WORD	n/a	wordpools/wordpool_categorized_EN.txt	POTATO	Vegetables	1	8	[0, 0, 0]	n/a	catFR1	2	R1658S
887.699	0.797	1041418	WORD_OFF	n/a	n/a	POTATO	Vegetables	1	8	[0, 0, 0]	n/a	catFR1	2	R1658S
888.496	1.601	1042219	WORD	n/a	wordpools/wordpool_categorized_EN.txt	CABBAGE	Vegetables	2	8	[0, 0, 0]	n/a	catFR1	2	R1658S
890.097	0.884	1043819	WORD_OFF	n/a	n/a	CABBAGE	Vegetables	2	8	[0, 0, 0]	n/a	catFR1	2	R1658S
890.981	1.607	1044710	WORD	n/a	wordpools/wordpool_categorized_EN.txt	COAT	Clothing	3	8	[0, 0, 0]	n/a	catFR1	2	R1658S
892.588	0.918	1046311	WORD_OFF	n/a	n/a	COAT	Clothing	3	8	[0, 0, 0]	n/a	catFR1	2	R1658S
893.506	1.599	1047224	WORD	n/a	wordpools/wordpool_categorized_EN.txt	PANTS	Clothing	4	8	[0, 0, 0]	n/a	catFR1	2	R1658S
895.105	0.85	1048825	WORD_OFF	n/a	n/a	PANTS	Clothing	4	8	[0, 0, 0]	n/a	catFR1	2	R1658S
895.955	1.6	1049681	WORD	n/a	wordpools/wordpool_categorized_EN.txt	VAN	Vehicles	5	8	[0, 0, 0]	n/a	catFR1	2	R1658S
897.555	0.985	1051282	WORD_OFF	n/a	n/a	VAN	Vehicles	5	8	[0, 0, 0]	n/a	catFR1	2	R1658S
898.54	1.6	1052263	WORD	n/a	wordpools/wordpool_categorized_EN.txt	BUS	Vehicles	6	8	[0, 0, 0]	n/a	catFR1	2	R1658S
900.14	0.981	1053863	WORD_OFF	n/a	n/a	BUS	Vehicles	6	8	[0, 0, 0]	n/a	catFR1	2	R1658S
901.121	1.6	1054844	WORD	n/a	wordpools/wordpool_categorized_EN.txt	DRESS	Clothing	7	8	[0, 0, 0]	n/a	catFR1	2	R1658S
902.721	0.919	1056445	WORD_OFF	n/a	n/a	DRESS	Clothing	7	8	[0, 0, 0]	n/a	catFR1	2	R1658S
903.64	1.599	1057369	WORD	n/a	wordpools/wordpool_categorized_EN.txt	SHIRT	Clothing	8	8	[0, 0, 0]	n/a	catFR1	2	R1658S
905.239	0.934	1058959	WORD_OFF	n/a	n/a	SHIRT	Clothing	8	8	[0, 0, 0]	n/a	catFR1	2	R1658S
906.173	1.607	1059894	WORD	n/a	wordpools/wordpool_categorized_EN.txt	BIKE	Vehicles	9	8	[0, 0, 0]	n/a	catFR1	2	R1658S
907.78	0.944	1061506	WORD_OFF	n/a	n/a	BIKE	Vehicles	9	8	[0, 0, 0]	n/a	catFR1	2	R1658S
908.724	1.605	1062453	WORD	n/a	wordpools/wordpool_categorized_EN.txt	JEEP	Vehicles	10	8	[0, 0, 0]	n/a	catFR1	2	R1658S
910.329	0.827	1064054	WORD_OFF	n/a	n/a	JEEP	Vehicles	10	8	[0, 0, 0]	n/a	catFR1	2	R1658S
911.156	1.6	1064877	WORD	n/a	wordpools/wordpool_categorized_EN.txt	SPINACH	Vegetables	11	8	[0, 0, 0]	n/a	catFR1	2	R1658S
912.756	0.961	1066478	WORD_OFF	n/a	n/a	SPINACH	Vegetables	11	8	[0, 0, 0]	n/a	catFR1	2	R1658S
913.717	1.598	1067437	WORD	n/a	wordpools/wordpool_categorized_EN.txt	BROCCOLI	Vegetables	12	8	[0, 0, 0]	n/a	catFR1	2	R1658S
915.315	0.002	1069033	PROB	0.002	n/a	n/a	n/a	-999	8	[2, 3, 8]	13	catFR1	2	R1658S
915.317	0.0	1069035	START	n/a	n/a	n/a	n/a	-999	8	[-999, -999, -999]	n/a	catFR1	2	R1658S
915.314	0.003	1069037	WORD_OFF	n/a	n/a	BROCCOLI	Vegetables	12	8	[0, 0, 0]	n/a	catFR1	2	R1658S
915.317	0.0	1069037	ENCODING_END	n/a	n/a	n/a	n/a	-999	8	[0, 0, 0]	n/a	catFR1	2	R1658S
915.317	11.421	1069037	DISTRACT_START	n/a	n/a	n/a	n/a	-999	8	[0, 0, 0]	n/a	catFR1	2	R1658S
926.738	6.675	1080456	PROB	6.675	n/a	n/a	n/a	-999	8	[7, 8, 1]	16	catFR1	2	R1658S
933.413	11.29	1087132	PROB	11.29	n/a	n/a	n/a	-999	8	[7, 1, 2]	10	catFR1	2	R1658S
944.703	0.0	1098422	STOP	n/a	n/a	n/a	n/a	-999	8	[-999, -999, -999]	n/a	catFR1	2	R1658S
944.703	2.225	1098425	DISTRACT_END	n/a	n/a	n/a	n/a	-999	8	[0, 0, 0]	n/a	catFR1	2	R1658S
946.928	1.436	1100657	REC_START	n/a	n/a	n/a	n/a	-999	8	[0, 0, 0]	n/a	catFR1	2	R1658S
948.364	1.0	1102083	REC_WORD_VV	1.0	n/a	<>	n/a	-999	8	[0, 0, 0]	n/a	catFR1	2	R1658S
949.364	1.0	1103083	REC_WORD_VV	1.0	n/a	<>	n/a	-999	8	[0, 0, 0]	n/a	catFR1	2	R1658S
950.364	26.708	1104083	REC_WORD_VV	26.708	n/a	<>	n/a	-999	8	[0, 0, 0]	n/a	catFR1	2	R1658S
977.072	3.014	1130800	REC_END	n/a	n/a	n/a	n/a	-999	8	[0, 0, 0]	n/a	catFR1	2	R1658S
980.086	10.342	1133810	COUNTDOWN_START	n/a	n/a	n/a	n/a	-999	8	[0, 0, 0]	n/a	catFR1	2	R1658S
990.428	0.0	1144158	COUNTDOWN_END	n/a	n/a	n/a	n/a	-999	8	[0, 0, 0]	n/a	catFR1	2	R1658S
990.428	1.893	1144158	ENCODING_START	n/a	n/a	n/a	n/a	-999	9	[0, 0, 0]	n/a	catFR1	2	R1658S
992.321	1.608	1146040	WORD	n/a	wordpools/wordpool_categorized_EN.txt	BOAT	Vehicles	1	9	[0, 0, 0]	n/a	catFR1	2	R1658S
993.929	0.982	1147652	WORD_OFF	n/a	n/a	BOAT	Vehicles	1	9	[0, 0, 0]	n/a	catFR1	2	R1658S
994.911	1.601	1148633	WORD	n/a	wordpools/wordpool_categorized_EN.txt	PLANE	Vehicles	2	9	[0, 0, 0]	n/a	catFR1	2	R1658S
996.512	0.917	1150234	WORD_OFF	n/a	n/a	PLANE	Vehicles	2	9	[0, 0, 0]	n/a	catFR1	2	R1658S
997.429	1.608	1151158	WORD	n/a	wordpools/wordpool_categorized_EN.txt	GORILLA	Zoo	3	9	[0, 0, 0]	n/a	catFR1	2	R1658S
999.037	0.933	1152759	WORD_OFF	n/a	n/a	GORILLA	Zoo	3	9	[0, 0, 0]	n/a	catFR1	2	R1658S
999.97	1.6	1153695	WORD	n/a	wordpools/wordpool_categorized_EN.txt	ELEPHANT	Zoo	4	9	[0, 0, 0]	n/a	catFR1	2	R1658S
1001.57	1.0	1155295	WORD_OFF	n/a	n/a	ELEPHANT	Zoo	4	9	[0, 0, 0]	n/a	catFR1	2	R1658S
1002.57	1.61	1156299	WORD	n/a	wordpools/wordpool_categorized_EN.txt	TROMBONE	Instruments	5	9	[0, 0, 0]	n/a	catFR1	2	R1658S
1004.18	0.815	1157911	WORD_OFF	n/a	n/a	TROMBONE	Instruments	5	9	[0, 0, 0]	n/a	catFR1	2	R1658S
1004.995	1.601	1158722	WORD	n/a	wordpools/wordpool_categorized_EN.txt	BANJO	Instruments	6	9	[0, 0, 0]	n/a	catFR1	2	R1658S
1006.596	0.916	1160323	WORD_OFF	n/a	n/a	BANJO	Instruments	6	9	[0, 0, 0]	n/a	catFR1	2	R1658S
1007.512	1.608	1161236	WORD	n/a	wordpools/wordpool_categorized_EN.txt	TRAIN	Vehicles	7	9	[0, 0, 0]	n/a	catFR1	2	R1658S
1009.12	0.982	1162848	WORD_OFF	n/a	n/a	TRAIN	Vehicles	7	9	[0, 0, 0]	n/a	catFR1	2	R1658S
1010.102	1.601	1163829	WORD	n/a	wordpools/wordpool_categorized_EN.txt	MOPED	Vehicles	8	9	[0, 0, 0]	n/a	catFR1	2	R1658S
1011.703	0.868	1165430	WORD_OFF	n/a	n/a	MOPED	Vehicles	8	9	[0, 0, 0]	n/a	catFR1	2	R1658S
1012.571	1.6	1166298	WORD	n/a	wordpools/wordpool_categorized_EN.txt	PANDA	Zoo	9	9	[0, 0, 0]	n/a	catFR1	2	R1658S
1014.171	0.865	1167898	WORD_OFF	n/a	n/a	PANDA	Zoo	9	9	[0, 0, 0]	n/a	catFR1	2	R1658S
1015.036	1.601	1168766	WORD	n/a	wordpools/wordpool_categorized_EN.txt	CHIMPANZEE	Zoo	10	9	[0, 0, 0]	n/a	catFR1	2	R1658S
1016.637	0.917	1170367	WORD_OFF	n/a	n/a	CHIMPANZEE	Zoo	10	9	[0, 0, 0]	n/a	catFR1	2	R1658S
1017.554	1.601	1171280	WORD	n/a	wordpools/wordpool_categorized_EN.txt	ORGAN	Instruments	11	9	[0, 0, 0]	n/a	catFR1	2	R1658S
1019.155	0.875	1172881	WORD_OFF	n/a	n/a	ORGAN	Instruments	11	9	[0, 0, 0]	n/a	catFR1	2	R1658S
1020.03	1.598	1173760	WORD	n/a	wordpools/wordpool_categorized_EN.txt	FLUTE	Instruments	12	9	[0, 0, 0]	n/a	catFR1	2	R1658S
1021.628	0.005	1175348	PROB	0.005	n/a	n/a	n/a	-999	9	[5, 6, 7]	18	catFR1	2	R1658S
1021.633	0.0	1175353	START	n/a	n/a	n/a	n/a	-999	9	[-999, -999, -999]	n/a	catFR1	2	R1658S
1021.629	0.004	1175361	WORD_OFF	n/a	n/a	FLUTE	Instruments	12	9	[0, 0, 0]	n/a	catFR1	2	R1658S
1021.633	0.0	1175361	ENCODING_END	n/a	n/a	n/a	n/a	-999	9	[0, 0, 0]	n/a	catFR1	2	R1658S
1021.633	13.719	1175361	DISTRACT_START	n/a	n/a	n/a	n/a	-999	9	[0, 0, 0]	n/a	catFR1	2	R1658S
1035.352	6.457	1189072	PROB	6.457	n/a	n/a	n/a	-999	9	[6, 4, 1]	11	catFR1	2	R1658S
1041.809	0.0	1195530	STOP	n/a	n/a	n/a	n/a	-999	9	[-999, -999, -999]	n/a	catFR1	2	R1658S
1041.809	2.036	1195539	DISTRACT_END	n/a	n/a	n/a	n/a	-999	9	[0, 0, 0]	n/a	catFR1	2	R1658S
1043.845	30.007	1197568	REC_START	n/a	n/a	n/a	n/a	-999	9	[0, 0, 0]	n/a	catFR1	2	R1658S
1073.852	0.137	1227573	REC_WORD_VV	0.137	n/a	<>	n/a	-999	9	[0, 0, 0]	n/a	catFR1	2	R1658S
1073.989	88.28	1227711	REC_END	n/a	n/a	n/a	n/a	-999	9	[0, 0, 0]	n/a	catFR1	2	R1658S
1162.269	10.339	1315999	COUNTDOWN_START	n/a	n/a	n/a	n/a	-999	9	[0, 0, 0]	n/a	catFR1	2	R1658S
1172.608	0.0	1326336	COUNTDOWN_END	n/a	n/a	n/a	n/a	-999	9	[0, 0, 0]	n/a	catFR1	2	R1658S
1172.608	2.142	1326336	ENCODING_START	n/a	n/a	n/a	n/a	-999	10	[0, 0, 0]	n/a	catFR1	2	R1658S
1174.75	1.6	1328478	WORD	n/a	wordpools/wordpool_categorized_EN.txt	SHELF	Furniture	1	10	[0, 0, 0]	n/a	catFR1	2	R1658S
1176.35	0.949	1330079	WORD_OFF	n/a	n/a	SHELF	Furniture	1	10	[0, 0, 0]	n/a	catFR1	2	R1658S
1177.299	1.6	1331026	WORD	n/a	wordpools/wordpool_categorized_EN.txt	DRESSER	Furniture	2	10	[0, 0, 0]	n/a	catFR1	2	R1658S
1178.899	0.85	1332627	WORD_OFF	n/a	n/a	DRESSER	Furniture	2	10	[0, 0, 0]	n/a	catFR1	2	R1658S
1179.749	1.601	1333472	WORD	n/a	wordpools/wordpool_categorized_EN.txt	VACUUM	Appliances	3	10	[0, 0, 0]	n/a	catFR1	2	R1658S
1181.35	0.891	1335084	WORD_OFF	n/a	n/a	VACUUM	Appliances	3	10	[0, 0, 0]	n/a	catFR1	2	R1658S
1182.241	1.599	1335963	WORD	n/a	wordpools/wordpool_categorized_EN.txt	STOVE	Appliances	4	10	[0, 0, 0]	n/a	catFR1	2	R1658S
1183.84	0.859	1337564	WORD_OFF	n/a	n/a	STOVE	Appliances	4	10	[0, 0, 0]	n/a	catFR1	2	R1658S
1184.699	1.601	1338421	WORD	n/a	wordpools/wordpool_categorized_EN.txt	BEAR	Zoo	5	10	[0, 0, 0]	n/a	catFR1	2	R1658S
1186.3	0.9	1340033	WORD_OFF	n/a	n/a	BEAR	Zoo	5	10	[0, 0, 0]	n/a	catFR1	2	R1658S
1187.2	1.603	1340935	WORD	n/a	wordpools/wordpool_categorized_EN.txt	CHEETAH	Zoo	6	10	[0, 0, 0]	n/a	catFR1	2	R1658S
1188.803	0.79	1342535	WORD_OFF	n/a	n/a	CHEETAH	Zoo	6	10	[0, 0, 0]	n/a	catFR1	2	R1658S
1189.593	1.606	1343324	WORD	n/a	wordpools/wordpool_categorized_EN.txt	IRON	Appliances	7	10	[0, 0, 0]	n/a	catFR1	2	R1658S
1191.199	0.934	1344925	WORD_OFF	n/a	n/a	IRON	Appliances	7	10	[0, 0, 0]	n/a	catFR1	2	R1658S
1192.133	1.617	1345861	WORD	n/a	wordpools/wordpool_categorized_EN.txt	DRYER	Appliances	8	10	[0, 0, 0]	n/a	catFR1	2	R1658S
1193.75	1.0	1347484	WORD_OFF	n/a	n/a	DRYER	Appliances	8	10	[0, 0, 0]	n/a	catFR1	2	R1658S
1194.75	1.607	1348476	WORD	n/a	wordpools/wordpool_categorized_EN.txt	TIGER	Zoo	9	10	[0, 0, 0]	n/a	catFR1	2	R1658S
1196.357	0.918	1350088	WORD_OFF	n/a	n/a	TIGER	Zoo	9	10	[0, 0, 0]	n/a	catFR1	2	R1658S
1197.275	1.607	1351001	WORD	n/a	wordpools/wordpool_categorized_EN.txt	LION	Zoo	10	10	[0, 0, 0]	n/a	catFR1	2	R1658S
1198.882	1.0	1352613	WORD_OFF	n/a	n/a	LION	Zoo	10	10	[0, 0, 0]	n/a	catFR1	2	R1658S
1199.882	1.6	1353605	WORD	n/a	wordpools/wordpool_categorized_EN.txt	RECLINER	Furniture	11	10	[0, 0, 0]	n/a	catFR1	2	R1658S
1201.482	0.809	1355206	WORD_OFF	n/a	n/a	RECLINER	Furniture	11	10	[0, 0, 0]	n/a	catFR1	2	R1658S
1202.291	1.6	1356017	WORD	n/a	wordpools/wordpool_categorized_EN.txt	CABINET	Furniture	12	10	[0, 0, 0]	n/a	catFR1	2	R1658S
1203.891	0.0	1357615	PROB	0.0	n/a	n/a	n/a	-999	10	[6, 4, 6]	16	catFR1	2	R1658S
1203.891	0.003	1357618	WORD_OFF	n/a	n/a	CABINET	Furniture	12	10	[0, 0, 0]	n/a	catFR1	2	R1658S
1203.894	0.0	1357618	ENCODING_END	n/a	n/a	n/a	n/a	-999	10	[0, 0, 0]	n/a	catFR1	2	R1658S
1203.894	0.0	1357618	START	n/a	n/a	n/a	n/a	-999	10	[-999, -999, -999]	n/a	catFR1	2	R1658S
1203.894	6.405	1357629	DISTRACT_START	n/a	n/a	n/a	n/a	-999	10	[0, 0, 0]	n/a	catFR1	2	R1658S
1210.299	7.876	1364023	PROB	7.876	n/a	n/a	n/a	-999	10	[3, 2, 6]	11	catFR1	2	R1658S
1218.175	5.79	1371899	PROB	5.79	n/a	n/a	n/a	-999	10	[5, 6, 4]	15	catFR1	2	R1658S
1223.965	0.0	1377689	STOP	n/a	n/a	n/a	n/a	-999	10	[-999, -999, -999]	n/a	catFR1	2	R1658S
1223.965	2.259	1377695	DISTRACT_END	n/a	n/a	n/a	n/a	-999	10	[0, 0, 0]	n/a	catFR1	2	R1658S
1226.224	0.582	1379949	REC_START	n/a	n/a	n/a	n/a	-999	10	[0, 0, 0]	n/a	catFR1	2	R1658S
1226.806	1.949	1380530	REC_WORD	1.949	n/a	REFRIGERATOR	Appliances	-999	10	[0, 0, 0]	n/a	catFR1	2	R1658S
1228.755	2.77	1382479	REC_WORD	2.77	n/a	RECLINER	Furniture	11	10	[0, 0, 0]	n/a	catFR1	2	R1658S
1231.525	24.843	1385249	REC_WORD	24.843	n/a	CHAIR	Furniture	-999	10	[0, 0, 0]	n/a	catFR1	2	R1658S
1256.368	5.788	1410093	REC_END	n/a	n/a	n/a	n/a	-999	10	[0, 0, 0]	n/a	catFR1	2	R1658S
1262.156	10.341	1415887	COUNTDOWN_START	n/a	n/a	n/a	n/a	-999	10	[0, 0, 0]	n/a	catFR1	2	R1658S
1272.497	0.0	1426224	COUNTDOWN_END	n/a	n/a	n/a	n/a	-999	10	[0, 0, 0]	n/a	catFR1	2	R1658S
1272.497	2.109	1426224	ENCODING_START	n/a	n/a	n/a	n/a	-999	11	[0, 0, 0]	n/a	catFR1	2	R1658S
1274.606	1.601	1428332	WORD	n/a	wordpools/wordpool_categorized_EN.txt	HILLS	Landscapes	1	11	[0, 0, 0]	n/a	catFR1	2	R1658S
1276.207	0.875	1429933	WORD_OFF	n/a	n/a	HILLS	Landscapes	1	11	[0, 0, 0]	n/a	catFR1	2	R1658S
1277.082	1.608	1430812	WORD	n/a	wordpools/wordpool_categorized_EN.txt	BEACH	Landscapes	2	11	[0, 0, 0]	n/a	catFR1	2	R1658S
1278.69	0.875	1432424	WORD_OFF	n/a	n/a	BEACH	Landscapes	2	11	[0, 0, 0]	n/a	catFR1	2	R1658S
1279.565	1.601	1433292	WORD	n/a	wordpools/wordpool_categorized_EN.txt	RULER	OfficeSupplies	3	11	[0, 0, 0]	n/a	catFR1	2	R1658S
1281.166	0.966	1434893	WORD_OFF	n/a	n/a	RULER	OfficeSupplies	3	11	[0, 0, 0]	n/a	catFR1	2	R1658S
1282.132	1.602	1435862	WORD	n/a	wordpools/wordpool_categorized_EN.txt	MARKER	OfficeSupplies	4	11	[0, 0, 0]	n/a	catFR1	2	R1658S
1283.734	0.956	1437463	WORD_OFF	n/a	n/a	MARKER	OfficeSupplies	4	11	[0, 0, 0]	n/a	catFR1	2	R1658S
1284.69	1.617	1438421	WORD	n/a	wordpools/wordpool_categorized_EN.txt	DESK	Furniture	5	11	[0, 0, 0]	n/a	catFR1	2	R1658S
1286.307	0.999	1440033	WORD_OFF	n/a	n/a	DESK	Furniture	5	11	[0, 0, 0]	n/a	catFR1	2	R1658S
1287.306	1.6	1441036	WORD	n/a	wordpools/wordpool_categorized_EN.txt	BED	Furniture	6	11	[0, 0, 0]	n/a	catFR1	2	R1658S
1288.906	0.9	1442637	WORD_OFF	n/a	n/a	BED	Furniture	6	11	[0, 0, 0]	n/a	catFR1	2	R1658S
1289.806	1.599	1443539	WORD	n/a	wordpools/wordpool_categorized_EN.txt	FOLDER	OfficeSupplies	7	11	[0, 0, 0]	n/a	catFR1	2	R1658S
1291.405	0.769	1445140	WORD_OFF	n/a	n/a	FOLDER	OfficeSupplies	7	11	[0, 0, 0]	n/a	catFR1	2	R1658S
1292.174	1.599	1445906	WORD	n/a	wordpools/wordpool_categorized_EN.txt	PENCIL	OfficeSupplies	8	11	[0, 0, 0]	n/a	catFR1	2	R1658S
1293.773	0.942	1447507	WORD_OFF	n/a	n/a	PENCIL	OfficeSupplies	8	11	[0, 0, 0]	n/a	catFR1	2	R1658S
1294.715	1.617	1448442	WORD	n/a	wordpools/wordpool_categorized_EN.txt	CREEK	Landscapes	9	11	[0, 0, 0]	n/a	catFR1	2	R1658S
1296.332	0.808	1450066	WORD_OFF	n/a	n/a	CREEK	Landscapes	9	11	[0, 0, 0]	n/a	catFR1	2	R1658S
1297.14	1.599	1450866	WORD	n/a	wordpools/wordpool_categorized_EN.txt	OCEAN	Landscapes	10	11	[0, 0, 0]	n/a	catFR1	2	R1658S
1298.739	0.768	1452467	WORD_OFF	n/a	n/a	OCEAN	Landscapes	10	11	[0, 0, 0]	n/a	catFR1	2	R1658S
1299.507	1.608	1453233	WORD	n/a	wordpools/wordpool_categorized_EN.txt	TABLE	Furniture	11	11	[0, 0, 0]	n/a	catFR1	2	R1658S
1301.115	0.891	1454845	WORD_OFF	n/a	n/a	TABLE	Furniture	11	11	[0, 0, 0]	n/a	catFR1	2	R1658S
1302.006	1.608	1455736	WORD	n/a	wordpools/wordpool_categorized_EN.txt	SOFA	Furniture	12	11	[0, 0, 0]	n/a	catFR1	2	R1658S
1303.614	0.005	1457339	PROB	0.005	n/a	n/a	n/a	-999	11	[1, 8, 6]	15	catFR1	2	R1658S
1303.619	0.0	1457344	START	n/a	n/a	n/a	n/a	-999	11	[-999, -999, -999]	n/a	catFR1	2	R1658S
1303.615	0.003	1457348	WORD_OFF	n/a	n/a	SOFA	Furniture	12	11	[0, 0, 0]	n/a	catFR1	2	R1658S
1303.618	0.001	1457348	ENCODING_END	n/a	n/a	n/a	n/a	-999	11	[0, 0, 0]	n/a	catFR1	2	R1658S
1303.619	5.12	1457348	DISTRACT_START	n/a	n/a	n/a	n/a	-999	11	[0, 0, 0]	n/a	catFR1	2	R1658S
1308.739	5.277	1462464	PROB	5.277	n/a	n/a	n/a	-999	11	[3, 6, 2]	11	catFR1	2	R1658S
1314.016	7.739	1467742	PROB	7.739	n/a	n/a	n/a	-999	11	[7, 5, 1]	13	catFR1	2	R1658S
1321.755	7.191	1475481	PROB	7.191	n/a	n/a	n/a	-999	11	[4, 1, 7]	12	catFR1	2	R1658S
1328.946	0.0	1482672	STOP	n/a	n/a	n/a	n/a	-999	11	[-999, -999, -999]	n/a	catFR1	2	R1658S
1328.946	2.26	1482678	DISTRACT_END	n/a	n/a	n/a	n/a	-999	11	[0, 0, 0]	n/a	catFR1	2	R1658S
1331.206	0.268	1484932	REC_START	n/a	n/a	n/a	n/a	-999	11	[0, 0, 0]	n/a	catFR1	2	R1658S
1331.474	1.249	1485200	REC_WORD	1.249	n/a	PENCIL	OfficeSupplies	8	11	[0, 0, 0]	n/a	catFR1	2	R1658S
1332.723	28.628	1486449	REC_WORD	28.628	n/a	MARKER	OfficeSupplies	4	11	[0, 0, 0]	n/a	catFR1	2	R1658S
1361.351	8.403	1515087	REC_END	n/a	n/a	n/a	n/a	-999	11	[0, 0, 0]	n/a	catFR1	2	R1658S
1369.754	10.35	1523485	COUNTDOWN_START	n/a	n/a	n/a	n/a	-999	11	[0, 0, 0]	n/a	catFR1	2	R1658S
1380.104	0.001	1533833	COUNTDOWN_END	n/a	n/a	n/a	n/a	-999	11	[0, 0, 0]	n/a	catFR1	2	R1658S
1380.105	2.235	1533833	ENCODING_START	n/a	n/a	n/a	n/a	-999	12	[0, 0, 0]	n/a	catFR1	2	R1658S
1382.34	1.606	1536075	WORD	n/a	wordpools/wordpool_categorized_EN.txt	WOODS	Landscapes	1	12	[0, 0, 0]	n/a	catFR1	2	R1658S
1383.946	0.918	1537677	WORD_OFF	n/a	n/a	WOODS	Landscapes	1	12	[0, 0, 0]	n/a	catFR1	2	R1658S
1384.864	1.61	1538590	WORD	n/a	wordpools/wordpool_categorized_EN.txt	LAKE	Landscapes	2	12	[0, 0, 0]	n/a	catFR1	2	R1658S
1386.474	0.914	1540202	WORD_OFF	n/a	n/a	LAKE	Landscapes	2	12	[0, 0, 0]	n/a	catFR1	2	R1658S
1387.388	1.6	1541127	WORD	n/a	wordpools/wordpool_categorized_EN.txt	WRENCH	Tools	3	12	[0, 0, 0]	n/a	catFR1	2	R1658S
1388.988	0.957	1542716	WORD_OFF	n/a	n/a	WRENCH	Tools	3	12	[0, 0, 0]	n/a	catFR1	2	R1658S
1389.945	1.601	1543674	WORD	n/a	wordpools/wordpool_categorized_EN.txt	RATCHET	Tools	4	12	[0, 0, 0]	n/a	catFR1	2	R1658S
1391.546	0.9	1545275	WORD_OFF	n/a	n/a	RATCHET	Tools	4	12	[0, 0, 0]	n/a	catFR1	2	R1658S
1392.446	1.6	1546177	WORD	n/a	wordpools/wordpool_categorized_EN.txt	SOCKS	Clothing	5	12	[0, 0, 0]	n/a	catFR1	2	R1658S
1394.046	0.833	1547778	WORD_OFF	n/a	n/a	SOCKS	Clothing	5	12	[0, 0, 0]	n/a	catFR1	2	R1658S
1394.879	1.6	1548612	WORD	n/a	wordpools/wordpool_categorized_EN.txt	JEANS	Clothing	6	12	[0, 0, 0]	n/a	catFR1	2	R1658S
1396.479	0.767	1550213	WORD_OFF	n/a	n/a	JEANS	Clothing	6	12	[0, 0, 0]	n/a	catFR1	2	R1658S
1397.246	1.608	1550979	WORD	n/a	wordpools/wordpool_categorized_EN.txt	FOREST	Landscapes	7	12	[0, 0, 0]	n/a	catFR1	2	R1658S
1398.854	0.917	1552591	WORD_OFF	n/a	n/a	FOREST	Landscapes	7	12	[0, 0, 0]	n/a	catFR1	2	R1658S
1399.771	1.601	1553504	WORD	n/a	wordpools/wordpool_categorized_EN.txt	STREAM	Landscapes	8	12	[0, 0, 0]	n/a	catFR1	2	R1658S
1401.372	0.764	1555105	WORD_OFF	n/a	n/a	STREAM	Landscapes	8	12	[0, 0, 0]	n/a	catFR1	2	R1658S
1402.136	1.601	1555871	WORD	n/a	wordpools/wordpool_categorized_EN.txt	SHOVEL	Tools	9	12	[0, 0, 0]	n/a	catFR1	2	R1658S
1403.737	0.874	1557472	WORD_OFF	n/a	n/a	SHOVEL	Tools	9	12	[0, 0, 0]	n/a	catFR1	2	R1658S
1404.611	1.617	1558340	WORD	n/a	wordpools/wordpool_categorized_EN.txt	AXE	Tools	10	12	[0, 0, 0]	n/a	catFR1	2	R1658S
1406.228	0.867	1559963	WORD_OFF	n/a	n/a	AXE	Tools	10	12	[0, 0, 0]	n/a	catFR1	2	R1658S
1407.095	1.602	1560831	WORD	n/a	wordpools/wordpool_categorized_EN.txt	JACKET	Clothing	11	12	[0, 0, 0]	n/a	catFR1	2	R1658S
1408.697	0.974	1562432	WORD_OFF	n/a	n/a	JACKET	Clothing	11	12	[0, 0, 0]	n/a	catFR1	2	R1658S
1409.671	1.599	1563402	WORD	n/a	wordpools/wordpool_categorized_EN.txt	BLOUSE	Clothing	12	12	[0, 0, 0]	n/a	catFR1	2	R1658S
1411.27	0.001	1564997	PROB	0.001	n/a	n/a	n/a	-999	12	[4, 8, 8]	22	catFR1	2	R1658S
1411.271	0.003	1565002	WORD_OFF	n/a	n/a	BLOUSE	Clothing	12	12	[0, 0, 0]	n/a	catFR1	2	R1658S
1411.274	0.001	1565002	ENCODING_END	n/a	n/a	n/a	n/a	-999	12	[0, 0, 0]	n/a	catFR1	2	R1658S
1411.275	0.0	1565002	DISTRACT_START	n/a	n/a	n/a	n/a	-999	12	[0, 0, 0]	n/a	catFR1	2	R1658S
1411.275	12.53	1565002	START	n/a	n/a	n/a	n/a	-999	12	[-999, -999, -999]	n/a	catFR1	2	R1658S
1423.805	10.04	1577533	PROB	10.04	n/a	n/a	n/a	-999	12	[6, 6, 4]	16	catFR1	2	R1658S
1433.845	0.0	1587573	STOP	n/a	n/a	n/a	n/a	-999	12	[-999, -999, -999]	n/a	catFR1	2	R1658S
1433.845	2.1	1587582	DISTRACT_END	n/a	n/a	n/a	n/a	-999	12	[0, 0, 0]	n/a	catFR1	2	R1658S
1435.945	1.778	1589678	REC_START	n/a	n/a	n/a	n/a	-999	12	[0, 0, 0]	n/a	catFR1	2	R1658S
1437.723	1.955	1591451	REC_WORD	1.955	n/a	BLOUSE	Clothing	12	12	[0, 0, 0]	n/a	catFR1	2	R1658S
1439.678	4.494	1593406	REC_WORD	4.494	n/a	JACKET	Clothing	11	12	[0, 0, 0]	n/a	catFR1	2	R1658S
1444.172	7.596	1597900	REC_WORD	7.596	n/a	LAKE	Landscapes	2	12	[0, 0, 0]	n/a	catFR1	2	R1658S
1451.768	4.086	1605496	REC_WORD	4.086	n/a	LION	Zoo	-999	12	[0, 0, 0]	n/a	catFR1	2	R1658S
1455.854	10.239	1609582	REC_WORD	10.239	n/a	BEAR	Zoo	-999	12	[0, 0, 0]	n/a	catFR1	2	R1658S
1466.093	0.0	1619822	REC_END	n/a	n/a	n/a	n/a	-999	12	[0, 0, 0]	n/a	catFR1	2	R1658S
