onset	duration	sample	trial_type	response_time	stim_file	item_name	category	serialpos	list	test	answer	experiment	session	subject
0.0	76900.879	-1	INSTRUCT_START	n/a	n/a	n/a	n/a	-999	-999	[0, 0, 0]	n/a	catFR1	1	R1310J
76900.879	2163.1	-1	INSTRUCT_START	n/a	n/a	n/a	n/a	-999	-999	[0, 0, 0]	n/a	catFR1	1	R1310J
79063.979	1973.431	-1	INSTRUCT_START	n/a	n/a	n/a	n/a	-999	-999	[0, 0, 0]	n/a	catFR1	1	R1310J
81037.41	975.099	900	INSTRUCT_START	n/a	n/a	n/a	n/a	-999	-999	[0, 0, 0]	n/a	catFR1	1	R1310J
82012.509	6.318	975959	INSTRUCT_END	n/a	n/a	n/a	n/a	-999	-999	[0, 0, 0]	n/a	catFR1	1	R1310J
82018.827	20.725	982276	MIC TEST_START	n/a	n/a	n/a	n/a	-999	-999	[0, 0, 0]	n/a	catFR1	1	R1310J
82039.552	0.018	1003001	MIC TEST_END	n/a	n/a	n/a	n/a	-999	-999	[0, 0, 0]	n/a	catFR1	1	R1310J
82039.57	0.0	1003019	TRIAL	n/a	n/a	n/a	n/a	-999	-1	[0, 0, 0]	n/a	catFR1	1	R1310J
82039.57	0.0	1003019	WAITING_START	n/a	n/a	n/a	n/a	-999	-1	[0, 0, 0]	n/a	catFR1	1	R1310J
82039.57	5.977	1003019	TRIAL_START	n/a	n/a	n/a	n/a	-999	-1	[0, 0, 0]	n/a	catFR1	1	R1310J
82045.547	0.0	1008995	WAITING_END	n/a	n/a	n/a	n/a	-999	-1	[0, 0, 0]	n/a	catFR1	1	R1310J
82045.547	10.429	1008995	COUNTDOWN_START	n/a	n/a	n/a	n/a	-999	-1	[0, 0, 0]	n/a	catFR1	1	R1310J
82055.976	0.0	1019424	COUNTDOWN_END	n/a	n/a	n/a	n/a	-999	-1	[0, 0, 0]	n/a	catFR1	1	R1310J
82055.976	1.09	1019424	ORIENT_START	n/a	n/a	n/a	n/a	-999	-1	[0, 0, 0]	n/a	catFR1	1	R1310J
82057.066	0.001	1020514	ORIENT_END	n/a	n/a	n/a	n/a	-999	-1	[0, 0, 0]	n/a	catFR1	1	R1310J
82057.067	0.922	1020515	ENCODING_START	n/a	n/a	n/a	n/a	-999	-1	[0, 0, 0]	n/a	catFR1	1	R1310J
82057.989	1.627	1021437	WORD	n/a	n/a	FIREMAN	n/a	1	-1	[0, 0, 0]	n/a	catFR1	1	R1310J
82059.616	0.876	1023064	WORD_OFF	n/a	n/a	FIREMAN	n/a	1	-1	[0, 0, 0]	n/a	catFR1	1	R1310J
82060.492	1.608	1023940	WORD	n/a	n/a	SILK	n/a	2	-1	[0, 0, 0]	n/a	catFR1	1	R1310J
82062.1	1.037	1025548	WORD_OFF	n/a	n/a	SILK	n/a	2	-1	[0, 0, 0]	n/a	catFR1	1	R1310J
82063.137	1.631	1026585	WORD	n/a	n/a	PLUMBER	n/a	3	-1	[0, 0, 0]	n/a	catFR1	1	R1310J
82064.768	0.858	1028216	WORD_OFF	n/a	n/a	PLUMBER	n/a	3	-1	[0, 0, 0]	n/a	catFR1	1	R1310J
82065.626	1.625	1029073	WORD	n/a	n/a	TEACHER	n/a	4	-1	[0, 0, 0]	n/a	catFR1	1	R1310J
82067.251	0.756	1030698	WORD_OFF	n/a	n/a	TEACHER	n/a	4	-1	[0, 0, 0]	n/a	catFR1	1	R1310J
82068.007	1.627	1031454	WORD	n/a	n/a	DAY	n/a	5	-1	[0, 0, 0]	n/a	catFR1	1	R1310J
82069.634	0.976	1033081	WORD_OFF	n/a	n/a	DAY	n/a	5	-1	[0, 0, 0]	n/a	catFR1	1	R1310J
82070.61	1.625	1034057	WORD	n/a	n/a	WOOL	n/a	6	-1	[0, 0, 0]	n/a	catFR1	1	R1310J
82072.235	0.917	1035682	WORD_OFF	n/a	n/a	WOOL	n/a	6	-1	[0, 0, 0]	n/a	catFR1	1	R1310J
82073.152	1.634	1036599	WORD	n/a	n/a	FARMER	n/a	7	-1	[0, 0, 0]	n/a	catFR1	1	R1310J
82074.786	0.991	1038233	WORD_OFF	n/a	n/a	FARMER	n/a	7	-1	[0, 0, 0]	n/a	catFR1	1	R1310J
82075.777	1.625	1039224	WORD	n/a	n/a	HOUR	n/a	8	-1	[0, 0, 0]	n/a	catFR1	1	R1310J
82077.402	0.762	1040849	WORD_OFF	n/a	n/a	HOUR	n/a	8	-1	[0, 0, 0]	n/a	catFR1	1	R1310J
82078.164	1.623	1041611	WORD	n/a	n/a	DENIM	n/a	9	-1	[0, 0, 0]	n/a	catFR1	1	R1310J
82079.787	0.851	1043234	WORD_OFF	n/a	n/a	DENIM	n/a	9	-1	[0, 0, 0]	n/a	catFR1	1	R1310J
82080.638	1.632	1044085	WORD	n/a	n/a	SECOND	n/a	10	-1	[0, 0, 0]	n/a	catFR1	1	R1310J
82082.27	1.035	1045717	WORD_OFF	n/a	n/a	SECOND	n/a	10	-1	[0, 0, 0]	n/a	catFR1	1	R1310J
82083.305	1.633	1046752	WORD	n/a	n/a	LEATHER	n/a	11	-1	[0, 0, 0]	n/a	catFR1	1	R1310J
82084.938	0.777	1048385	WORD_OFF	n/a	n/a	LEATHER	n/a	11	-1	[0, 0, 0]	n/a	catFR1	1	R1310J
82085.715	1.622	1049162	WORD	n/a	n/a	MINUTE	n/a	12	-1	[0, 0, 0]	n/a	catFR1	1	R1310J
82087.337	0.001	1050784	WORD_OFF	n/a	n/a	MINUTE	n/a	12	-1	[0, 0, 0]	n/a	catFR1	1	R1310J
82087.338	0.0	1050785	ENCODING_END	n/a	n/a	n/a	n/a	-999	-1	[0, 0, 0]	n/a	catFR1	1	R1310J
82087.338	0.0	1050785	DISTRACT_START	n/a	n/a	n/a	n/a	-999	-1	[0, 0, 0]	n/a	catFR1	1	R1310J
82087.338	0.016	1050785	START	n/a	n/a	n/a	n/a	-999	-1	[-999, -999, -999]	n/a	catFR1	1	R1310J
82087.354	5.318	1050801	PROB	5.318	n/a	n/a	n/a	-999	-1	[6, 9, 5]	20	catFR1	1	R1310J
82092.672	3.084	1056118	PROB	3.084	n/a	n/a	n/a	-999	-1	[3, 3, 1]	7	catFR1	1	R1310J
82095.756	4.667	1059202	PROB	4.667	n/a	n/a	n/a	-999	-1	[3, 5, 4]	12	catFR1	1	R1310J
82100.423	3.067	1063869	PROB	3.067	n/a	n/a	n/a	-999	-1	[4, 5, 2]	11	catFR1	1	R1310J
82103.49	6.697	1066936	PROB	6.697	n/a	n/a	n/a	-999	-1	[1, 6, 6]	13	catFR1	1	R1310J
82110.187	0.021	1073633	STOP	n/a	n/a	n/a	n/a	-999	-1	[-999, -999, -999]	n/a	catFR1	1	R1310J
82110.208	0.563	1073654	DISTRACT_END	n/a	n/a	n/a	n/a	-999	-1	[0, 0, 0]	n/a	catFR1	1	R1310J
82110.771	1.604	1074217	RETRIEVAL_ORIENT_START	n/a	n/a	n/a	n/a	-999	-1	[0, 0, 0]	n/a	catFR1	1	R1310J
82112.375	0.0	1075821	RETRIEVAL_ORIENT_END	n/a	n/a	n/a	n/a	-999	-1	[0, 0, 0]	n/a	catFR1	1	R1310J
82112.375	0.239	1075821	REC_START	n/a	n/a	n/a	n/a	-999	-1	[0, 0, 0]	n/a	catFR1	1	R1310J
82112.614	1.05	1076060	REC_WORD	1.05	n/a	FIREMAN	n/a	1	-1	[0, 0, 0]	n/a	catFR1	1	R1310J
82113.664	1.005	1077109	REC_WORD	1.005	n/a	SILK	n/a	2	-1	[0, 0, 0]	n/a	catFR1	1	R1310J
82114.669	1.73	1078114	REC_WORD	1.73	n/a	PLUMBER	n/a	3	-1	[0, 0, 0]	n/a	catFR1	1	R1310J
82116.399	0.901	1079844	REC_WORD	0.901	n/a	TEACHER	n/a	4	-1	[0, 0, 0]	n/a	catFR1	1	R1310J
82117.3	6.439	1080745	REC_WORD	6.439	n/a	DENIM	n/a	9	-1	[0, 0, 0]	n/a	catFR1	1	R1310J
82123.739	18.647	1087184	REC_WORD	18.647	n/a	SAND	n/a	-999	-1	[0, 0, 0]	n/a	catFR1	1	R1310J
82142.386	0.001	1105830	REC_END	n/a	n/a	n/a	n/a	-999	-1	[0, 0, 0]	n/a	catFR1	1	R1310J
82142.387	11.447	1105831	PRACTICE_POST_INSTRUCT_START	n/a	n/a	n/a	n/a	-999	-1	[0, 0, 0]	n/a	catFR1	1	R1310J
82153.834	0.001	1117278	PRACTICE_POST_INSTRUCT_END	n/a	n/a	n/a	n/a	-999	-1	[0, 0, 0]	n/a	catFR1	1	R1310J
82153.835	0.024	1117279	TRIAL_END	n/a	n/a	n/a	n/a	-999	-1	[0, 0, 0]	n/a	catFR1	1	R1310J
82153.859	0.0	1117303	TRIAL_START	n/a	n/a	n/a	n/a	-999	1	[0, 0, 0]	n/a	catFR1	1	R1310J
82153.859	0.001	1117303	TRIAL	n/a	n/a	n/a	n/a	-999	1	[0, 0, 0]	n/a	catFR1	1	R1310J
82153.86	3.107	1117304	WAITING_START	n/a	n/a	n/a	n/a	-999	1	[0, 0, 0]	n/a	catFR1	1	R1310J
82156.967	0.0	1120411	COUNTDOWN_START	n/a	n/a	n/a	n/a	-999	1	[0, 0, 0]	n/a	catFR1	1	R1310J
82156.967	10.43	1120411	WAITING_END	n/a	n/a	n/a	n/a	-999	1	[0, 0, 0]	n/a	catFR1	1	R1310J
82167.397	0.001	1130840	COUNTDOWN_END	n/a	n/a	n/a	n/a	-999	1	[0, 0, 0]	n/a	catFR1	1	R1310J
82167.398	1.236	1130841	ORIENT_START	n/a	n/a	n/a	n/a	-999	1	[0, 0, 0]	n/a	catFR1	1	R1310J
82168.634	0.001	1132077	ORIENT_END	n/a	n/a	n/a	n/a	-999	1	[0, 0, 0]	n/a	catFR1	1	R1310J
82168.635	1.03	1132078	ENCODING_START	n/a	n/a	n/a	n/a	-999	1	[0, 0, 0]	n/a	catFR1	1	R1310J
82169.665	1.637	1133108	WORD	n/a	wordpools/wordpool_categorized_EN.txt	REFRIGERATOR	Appliances	1	1	[0, 0, 0]	n/a	catFR1	1	R1310J
82171.302	0.88	1134745	WORD_OFF	n/a	n/a	REFRIGERATOR	Appliances	1	1	[0, 0, 0]	n/a	catFR1	1	R1310J
82172.182	1.638	1135625	WORD	n/a	wordpools/wordpool_categorized_EN.txt	DRYER	Appliances	2	1	[0, 0, 0]	n/a	catFR1	1	R1310J
82173.82	1.101	1137263	WORD_OFF	n/a	n/a	DRYER	Appliances	2	1	[0, 0, 0]	n/a	catFR1	1	R1310J
82174.921	1.632	1138364	WORD	n/a	wordpools/wordpool_categorized_EN.txt	CROW	Birds	3	1	[0, 0, 0]	n/a	catFR1	1	R1310J
82176.553	1.135	1139996	WORD_OFF	n/a	n/a	CROW	Birds	3	1	[0, 0, 0]	n/a	catFR1	1	R1310J
82177.688	1.632	1141131	WORD	n/a	wordpools/wordpool_categorized_EN.txt	ROBIN	Birds	4	1	[0, 0, 0]	n/a	catFR1	1	R1310J
82179.32	0.778	1142763	WORD_OFF	n/a	n/a	ROBIN	Birds	4	1	[0, 0, 0]	n/a	catFR1	1	R1310J
82180.098	1.623	1143541	WORD	n/a	wordpools/wordpool_categorized_EN.txt	STRAWBERRY	Fruit	5	1	[0, 0, 0]	n/a	catFR1	1	R1310J
82181.721	0.962	1145164	WORD_OFF	n/a	n/a	STRAWBERRY	Fruit	5	1	[0, 0, 0]	n/a	catFR1	1	R1310J
82182.683	1.621	1146126	WORD	n/a	wordpools/wordpool_categorized_EN.txt	PLUM	Fruit	6	1	[0, 0, 0]	n/a	catFR1	1	R1310J
82184.304	0.83	1147747	WORD_OFF	n/a	n/a	PLUM	Fruit	6	1	[0, 0, 0]	n/a	catFR1	1	R1310J
82185.134	1.638	1148577	WORD	n/a	wordpools/wordpool_categorized_EN.txt	FREEZER	Appliances	7	1	[0, 0, 0]	n/a	catFR1	1	R1310J
82186.772	1.001	1150214	WORD_OFF	n/a	n/a	FREEZER	Appliances	7	1	[0, 0, 0]	n/a	catFR1	1	R1310J
82187.773	1.632	1151215	WORD	n/a	wordpools/wordpool_categorized_EN.txt	IRON	Appliances	8	1	[0, 0, 0]	n/a	catFR1	1	R1310J
82189.405	0.771	1152847	WORD_OFF	n/a	n/a	IRON	Appliances	8	1	[0, 0, 0]	n/a	catFR1	1	R1310J
82190.176	1.63	1153618	WORD	n/a	wordpools/wordpool_categorized_EN.txt	FINCH	Birds	9	1	[0, 0, 0]	n/a	catFR1	1	R1310J
82191.806	1.072	1155248	WORD_OFF	n/a	n/a	FINCH	Birds	9	1	[0, 0, 0]	n/a	catFR1	1	R1310J
82192.878	1.628	1156320	WORD	n/a	wordpools/wordpool_categorized_EN.txt	CARDINAL	Birds	10	1	[0, 0, 0]	n/a	catFR1	1	R1310J
82194.506	0.941	1157948	WORD_OFF	n/a	n/a	CARDINAL	Birds	10	1	[0, 0, 0]	n/a	catFR1	1	R1310J
82195.447	1.627	1158889	WORD	n/a	wordpools/wordpool_categorized_EN.txt	APPLE	Fruit	11	1	[0, 0, 0]	n/a	catFR1	1	R1310J
82197.074	1.001	1160516	WORD_OFF	n/a	n/a	APPLE	Fruit	11	1	[0, 0, 0]	n/a	catFR1	1	R1310J
82198.075	1.632	1161517	WORD	n/a	wordpools/wordpool_categorized_EN.txt	CHERRY	Fruit	12	1	[0, 0, 0]	n/a	catFR1	1	R1310J
82199.707	0.001	1163149	WORD_OFF	n/a	n/a	CHERRY	Fruit	12	1	[0, 0, 0]	n/a	catFR1	1	R1310J
82199.708	0.0	1163150	DISTRACT_START	n/a	n/a	n/a	n/a	-999	1	[0, 0, 0]	n/a	catFR1	1	R1310J
82199.708	0.001	1163150	ENCODING_END	n/a	n/a	n/a	n/a	-999	1	[0, 0, 0]	n/a	catFR1	1	R1310J
82199.709	0.015	1163151	START	n/a	n/a	n/a	n/a	-999	1	[-999, -999, -999]	n/a	catFR1	1	R1310J
82199.724	5.6	1163166	PROB	5.6	n/a	n/a	n/a	-999	1	[4, 3, 6]	13	catFR1	1	R1310J
82205.324	4.868	1168766	PROB	4.868	n/a	n/a	n/a	-999	1	[9, 3, 1]	13	catFR1	1	R1310J
82210.192	3.501	1173633	PROB	3.501	n/a	n/a	n/a	-999	1	[1, 7, 4]	12	catFR1	1	R1310J
82213.693	4.666	1177134	PROB	4.666	n/a	n/a	n/a	-999	1	[6, 4, 8]	18	catFR1	1	R1310J
82218.359	4.274	1181800	PROB	4.274	n/a	n/a	n/a	-999	1	[3, 6, 1]	10	catFR1	1	R1310J
82222.633	0.01	1186074	STOP	n/a	n/a	n/a	n/a	-999	1	[-999, -999, -999]	n/a	catFR1	1	R1310J
82222.643	0.617	1186084	DISTRACT_END	n/a	n/a	n/a	n/a	-999	1	[0, 0, 0]	n/a	catFR1	1	R1310J
82223.26	1.668	1186701	RETRIEVAL_ORIENT_START	n/a	n/a	n/a	n/a	-999	1	[0, 0, 0]	n/a	catFR1	1	R1310J
82224.928	0.001	1188369	RETRIEVAL_ORIENT_END	n/a	n/a	n/a	n/a	-999	1	[0, 0, 0]	n/a	catFR1	1	R1310J
82224.929	0.335	1188370	REC_START	n/a	n/a	n/a	n/a	-999	1	[0, 0, 0]	n/a	catFR1	1	R1310J
82225.264	0.98	1188705	REC_WORD	0.98	n/a	STRAWBERRY	Fruit	5	1	[0, 0, 0]	n/a	catFR1	1	R1310J
82226.244	1.835	1189685	REC_WORD	1.835	n/a	APPLE	Fruit	11	1	[0, 0, 0]	n/a	catFR1	1	R1310J
82228.079	0.91	1191520	REC_WORD	0.91	n/a	CHERRY	Fruit	12	1	[0, 0, 0]	n/a	catFR1	1	R1310J
82228.989	0.714	1192430	REC_WORD	0.714	n/a	FINCH	Birds	9	1	[0, 0, 0]	n/a	catFR1	1	R1310J
82229.703	0.936	1193144	REC_WORD	0.936	n/a	REFRIGERATOR	Appliances	1	1	[0, 0, 0]	n/a	catFR1	1	R1310J
82230.639	24.299	1194080	REC_WORD	24.299	n/a	FREEZER	Appliances	7	1	[0, 0, 0]	n/a	catFR1	1	R1310J
82254.938	0.0	1218378	REC_END	n/a	n/a	n/a	n/a	-999	1	[0, 0, 0]	n/a	catFR1	1	R1310J
82254.938	0.024	1218378	TRIAL_END	n/a	n/a	n/a	n/a	-999	1	[0, 0, 0]	n/a	catFR1	1	R1310J
82254.962	0.0	1218402	TRIAL_START	n/a	n/a	n/a	n/a	-999	2	[0, 0, 0]	n/a	catFR1	1	R1310J
82254.962	0.0	1218402	TRIAL	n/a	n/a	n/a	n/a	-999	2	[0, 0, 0]	n/a	catFR1	1	R1310J
82254.962	3.005	1218402	WAITING_START	n/a	n/a	n/a	n/a	-999	2	[0, 0, 0]	n/a	catFR1	1	R1310J
82257.967	0.001	1221406	WAITING_END	n/a	n/a	n/a	n/a	-999	2	[0, 0, 0]	n/a	catFR1	1	R1310J
82257.968	10.429	1221407	COUNTDOWN_START	n/a	n/a	n/a	n/a	-999	2	[0, 0, 0]	n/a	catFR1	1	R1310J
82268.397	0.001	1231836	COUNTDOWN_END	n/a	n/a	n/a	n/a	-999	2	[0, 0, 0]	n/a	catFR1	1	R1310J
82268.398	1.104	1231837	ORIENT_START	n/a	n/a	n/a	n/a	-999	2	[0, 0, 0]	n/a	catFR1	1	R1310J
82269.502	0.0	1232941	ORIENT_END	n/a	n/a	n/a	n/a	-999	2	[0, 0, 0]	n/a	catFR1	1	R1310J
82269.502	0.85	1232941	ENCODING_START	n/a	n/a	n/a	n/a	-999	2	[0, 0, 0]	n/a	catFR1	1	R1310J
82270.352	1.618	1233791	WORD	n/a	wordpools/wordpool_categorized_EN.txt	SEAGULL	Birds	1	2	[0, 0, 0]	n/a	catFR1	1	R1310J
82271.97	0.756	1235409	WORD_OFF	n/a	n/a	SEAGULL	Birds	1	2	[0, 0, 0]	n/a	catFR1	1	R1310J
82272.726	1.626	1236165	WORD	n/a	wordpools/wordpool_categorized_EN.txt	HAWK	Birds	2	2	[0, 0, 0]	n/a	catFR1	1	R1310J
82274.352	0.936	1237791	WORD_OFF	n/a	n/a	HAWK	Birds	2	2	[0, 0, 0]	n/a	catFR1	1	R1310J
82275.288	1.632	1238727	WORD	n/a	wordpools/wordpool_categorized_EN.txt	GOAT	FarmAnimals	3	2	[0, 0, 0]	n/a	catFR1	1	R1310J
82276.92	0.819	1240359	WORD_OFF	n/a	n/a	GOAT	FarmAnimals	3	2	[0, 0, 0]	n/a	catFR1	1	R1310J
82277.739	1.631	1241178	WORD	n/a	wordpools/wordpool_categorized_EN.txt	HEN	FarmAnimals	4	2	[0, 0, 0]	n/a	catFR1	1	R1310J
82279.37	0.996	1242809	WORD_OFF	n/a	n/a	HEN	FarmAnimals	4	2	[0, 0, 0]	n/a	catFR1	1	R1310J
82280.366	1.622	1243805	WORD	n/a	wordpools/wordpool_categorized_EN.txt	GLUE	OfficeSupplies	5	2	[0, 0, 0]	n/a	catFR1	1	R1310J
82281.988	0.973	1245427	WORD_OFF	n/a	n/a	GLUE	OfficeSupplies	5	2	[0, 0, 0]	n/a	catFR1	1	R1310J
82282.961	1.626	1246399	WORD	n/a	wordpools/wordpool_categorized_EN.txt	BINDER	OfficeSupplies	6	2	[0, 0, 0]	n/a	catFR1	1	R1310J
82284.587	0.961	1248025	WORD_OFF	n/a	n/a	BINDER	OfficeSupplies	6	2	[0, 0, 0]	n/a	catFR1	1	R1310J
82285.548	1.607	1248986	WORD	n/a	wordpools/wordpool_categorized_EN.txt	LAMB	FarmAnimals	7	2	[0, 0, 0]	n/a	catFR1	1	R1310J
82287.155	1.073	1250593	WORD_OFF	n/a	n/a	LAMB	FarmAnimals	7	2	[0, 0, 0]	n/a	catFR1	1	R1310J
82288.228	1.628	1251666	WORD	n/a	wordpools/wordpool_categorized_EN.txt	ROOSTER	FarmAnimals	8	2	[0, 0, 0]	n/a	catFR1	1	R1310J
82289.856	1.017	1253294	WORD_OFF	n/a	n/a	ROOSTER	FarmAnimals	8	2	[0, 0, 0]	n/a	catFR1	1	R1310J
82290.873	1.632	1254311	WORD	n/a	wordpools/wordpool_categorized_EN.txt	FOLDER	OfficeSupplies	9	2	[0, 0, 0]	n/a	catFR1	1	R1310J
82292.505	0.915	1255943	WORD_OFF	n/a	n/a	FOLDER	OfficeSupplies	9	2	[0, 0, 0]	n/a	catFR1	1	R1310J
82293.42	1.637	1256858	WORD	n/a	wordpools/wordpool_categorized_EN.txt	TAPE	OfficeSupplies	10	2	[0, 0, 0]	n/a	catFR1	1	R1310J
82295.057	0.837	1258495	WORD_OFF	n/a	n/a	TAPE	OfficeSupplies	10	2	[0, 0, 0]	n/a	catFR1	1	R1310J
82295.894	1.629	1259332	WORD	n/a	wordpools/wordpool_categorized_EN.txt	DUCK	Birds	11	2	[0, 0, 0]	n/a	catFR1	1	R1310J
82297.523	0.989	1260961	WORD_OFF	n/a	n/a	DUCK	Birds	11	2	[0, 0, 0]	n/a	catFR1	1	R1310J
82298.512	1.629	1261950	WORD	n/a	wordpools/wordpool_categorized_EN.txt	PIGEON	Birds	12	2	[0, 0, 0]	n/a	catFR1	1	R1310J
82300.141	0.001	1263579	WORD_OFF	n/a	n/a	PIGEON	Birds	12	2	[0, 0, 0]	n/a	catFR1	1	R1310J
82300.142	0.0	1263580	ENCODING_END	n/a	n/a	n/a	n/a	-999	2	[0, 0, 0]	n/a	catFR1	1	R1310J
82300.142	0.0	1263580	DISTRACT_START	n/a	n/a	n/a	n/a	-999	2	[0, 0, 0]	n/a	catFR1	1	R1310J
82300.142	0.016	1263580	START	n/a	n/a	n/a	n/a	-999	2	[-999, -999, -999]	n/a	catFR1	1	R1310J
82300.158	6.233	1263596	PROB	6.233	n/a	n/a	n/a	-999	2	[5, 8, 4]	17	catFR1	1	R1310J
82306.391	4.084	1269828	PROB	4.084	n/a	n/a	n/a	-999	2	[4, 7, 7]	16	catFR1	1	R1310J
82310.475	8.818	1273912	PROB	8.818	n/a	n/a	n/a	-999	2	[5, 8, 4]	17	catFR1	1	R1310J
82319.293	5.237	1282730	PROB	5.237	n/a	n/a	n/a	-999	2	[1, 8, 3]	12	catFR1	1	R1310J
82324.53	0.014	1287967	STOP	n/a	n/a	n/a	n/a	-999	2	[-999, -999, -999]	n/a	catFR1	1	R1310J
82324.544	0.701	1287981	DISTRACT_END	n/a	n/a	n/a	n/a	-999	2	[0, 0, 0]	n/a	catFR1	1	R1310J
82325.245	1.601	1288682	RETRIEVAL_ORIENT_START	n/a	n/a	n/a	n/a	-999	2	[0, 0, 0]	n/a	catFR1	1	R1310J
82326.846	0.0	1290283	RETRIEVAL_ORIENT_END	n/a	n/a	n/a	n/a	-999	2	[0, 0, 0]	n/a	catFR1	1	R1310J
82326.846	0.074	1290283	REC_START	n/a	n/a	n/a	n/a	-999	2	[0, 0, 0]	n/a	catFR1	1	R1310J
82326.92	0.396	1290357	REC_WORD_VV	0.396	n/a	<>	n/a	-999	2	[0, 0, 0]	n/a	catFR1	1	R1310J
82327.316	1.179	1290753	REC_WORD	1.179	n/a	SEAGULL	Birds	1	2	[0, 0, 0]	n/a	catFR1	1	R1310J
82328.495	0.985	1291932	REC_WORD	0.985	n/a	HAWK	Birds	2	2	[0, 0, 0]	n/a	catFR1	1	R1310J
82329.48	1.35	1292917	REC_WORD	1.35	n/a	PIGEON	Birds	12	2	[0, 0, 0]	n/a	catFR1	1	R1310J
82330.83	0.66	1294266	REC_WORD	0.66	n/a	BINDER	OfficeSupplies	6	2	[0, 0, 0]	n/a	catFR1	1	R1310J
82331.49	0.5	1294926	REC_WORD	0.5	n/a	GLUE	OfficeSupplies	5	2	[0, 0, 0]	n/a	catFR1	1	R1310J
82331.99	7.225	1295426	REC_WORD	7.225	n/a	TAPE	OfficeSupplies	10	2	[0, 0, 0]	n/a	catFR1	1	R1310J
82339.215	1.0	1302651	REC_WORD_VV	1.0	n/a	<>	n/a	-999	2	[0, 0, 0]	n/a	catFR1	1	R1310J
82340.215	13.46	1303651	REC_WORD_VV	13.46	n/a	<>	n/a	-999	2	[0, 0, 0]	n/a	catFR1	1	R1310J
82353.675	3.18	1317111	REC_WORD	3.18	n/a	ROOSTER	FarmAnimals	8	2	[0, 0, 0]	n/a	catFR1	1	R1310J
82356.855	0.0	1320290	REC_END	n/a	n/a	n/a	n/a	-999	2	[0, 0, 0]	n/a	catFR1	1	R1310J
82356.855	0.024	1320290	TRIAL_END	n/a	n/a	n/a	n/a	-999	2	[0, 0, 0]	n/a	catFR1	1	R1310J
82356.879	0.0	1320314	TRIAL_START	n/a	n/a	n/a	n/a	-999	3	[0, 0, 0]	n/a	catFR1	1	R1310J
82356.879	0.0	1320314	TRIAL	n/a	n/a	n/a	n/a	-999	3	[0, 0, 0]	n/a	catFR1	1	R1310J
82356.879	4.006	1320314	WAITING_START	n/a	n/a	n/a	n/a	-999	3	[0, 0, 0]	n/a	catFR1	1	R1310J
82360.885	0.0	1324320	WAITING_END	n/a	n/a	n/a	n/a	-999	3	[0, 0, 0]	n/a	catFR1	1	R1310J
82360.885	10.429	1324320	COUNTDOWN_START	n/a	n/a	n/a	n/a	-999	3	[0, 0, 0]	n/a	catFR1	1	R1310J
82371.314	0.0	1334749	ORIENT_START	n/a	n/a	n/a	n/a	-999	3	[0, 0, 0]	n/a	catFR1	1	R1310J
82371.314	1.172	1334749	COUNTDOWN_END	n/a	n/a	n/a	n/a	-999	3	[0, 0, 0]	n/a	catFR1	1	R1310J
82372.486	0.0	1335921	ORIENT_END	n/a	n/a	n/a	n/a	-999	3	[0, 0, 0]	n/a	catFR1	1	R1310J
82372.486	0.826	1335921	ENCODING_START	n/a	n/a	n/a	n/a	-999	3	[0, 0, 0]	n/a	catFR1	1	R1310J
82373.312	1.608	1336747	WORD	n/a	wordpools/wordpool_categorized_EN.txt	FOREST	Landscapes	1	3	[0, 0, 0]	n/a	catFR1	1	R1310J
82374.92	1.098	1338355	WORD_OFF	n/a	n/a	FOREST	Landscapes	1	3	[0, 0, 0]	n/a	catFR1	1	R1310J
82376.018	1.635	1339453	WORD	n/a	wordpools/wordpool_categorized_EN.txt	HILLS	Landscapes	2	3	[0, 0, 0]	n/a	catFR1	1	R1310J
82377.653	0.866	1341088	WORD_OFF	n/a	n/a	HILLS	Landscapes	2	3	[0, 0, 0]	n/a	catFR1	1	R1310J
82378.519	1.619	1341954	WORD	n/a	wordpools/wordpool_categorized_EN.txt	SLINKY	Toys	3	3	[0, 0, 0]	n/a	catFR1	1	R1310J
82380.138	0.93	1343572	WORD_OFF	n/a	n/a	SLINKY	Toys	3	3	[0, 0, 0]	n/a	catFR1	1	R1310J
82381.068	1.62	1344502	WORD	n/a	wordpools/wordpool_categorized_EN.txt	DOLL	Toys	4	3	[0, 0, 0]	n/a	catFR1	1	R1310J
82382.688	0.991	1346122	WORD_OFF	n/a	n/a	DOLL	Toys	4	3	[0, 0, 0]	n/a	catFR1	1	R1310J
82383.679	1.626	1347113	WORD	n/a	wordpools/wordpool_categorized_EN.txt	MONKEY	Zoo	5	3	[0, 0, 0]	n/a	catFR1	1	R1310J
82385.305	0.967	1348739	WORD_OFF	n/a	n/a	MONKEY	Zoo	5	3	[0, 0, 0]	n/a	catFR1	1	R1310J
82386.272	1.634	1349706	WORD	n/a	wordpools/wordpool_categorized_EN.txt	PANDA	Zoo	6	3	[0, 0, 0]	n/a	catFR1	1	R1310J
82387.906	0.789	1351340	WORD_OFF	n/a	n/a	PANDA	Zoo	6	3	[0, 0, 0]	n/a	catFR1	1	R1310J
82388.695	1.627	1352129	WORD	n/a	wordpools/wordpool_categorized_EN.txt	DOLLHOUSE	Toys	7	3	[0, 0, 0]	n/a	catFR1	1	R1310J
82390.322	0.878	1353756	WORD_OFF	n/a	n/a	DOLLHOUSE	Toys	7	3	[0, 0, 0]	n/a	catFR1	1	R1310J
82391.2	1.623	1354634	WORD	n/a	wordpools/wordpool_categorized_EN.txt	BALL	Toys	8	3	[0, 0, 0]	n/a	catFR1	1	R1310J
82392.823	0.869	1356257	WORD_OFF	n/a	n/a	BALL	Toys	8	3	[0, 0, 0]	n/a	catFR1	1	R1310J
82393.692	1.631	1357126	WORD	n/a	wordpools/wordpool_categorized_EN.txt	BEAR	Zoo	9	3	[0, 0, 0]	n/a	catFR1	1	R1310J
82395.323	1.136	1358757	WORD_OFF	n/a	n/a	BEAR	Zoo	9	3	[0, 0, 0]	n/a	catFR1	1	R1310J
82396.459	1.632	1359893	WORD	n/a	wordpools/wordpool_categorized_EN.txt	CHEETAH	Zoo	10	3	[0, 0, 0]	n/a	catFR1	1	R1310J
82398.091	1.139	1361525	WORD_OFF	n/a	n/a	CHEETAH	Zoo	10	3	[0, 0, 0]	n/a	catFR1	1	R1310J
82399.23	1.611	1362664	WORD	n/a	wordpools/wordpool_categorized_EN.txt	LAKE	Landscapes	11	3	[0, 0, 0]	n/a	catFR1	1	R1310J
82400.841	0.815	1364275	WORD_OFF	n/a	n/a	LAKE	Landscapes	11	3	[0, 0, 0]	n/a	catFR1	1	R1310J
82401.656	1.635	1365090	WORD	n/a	wordpools/wordpool_categorized_EN.txt	OCEAN	Landscapes	12	3	[0, 0, 0]	n/a	catFR1	1	R1310J
82403.291	0.0	1366724	WORD_OFF	n/a	n/a	OCEAN	Landscapes	12	3	[0, 0, 0]	n/a	catFR1	1	R1310J
82403.291	0.0	1366724	ENCODING_END	n/a	n/a	n/a	n/a	-999	3	[0, 0, 0]	n/a	catFR1	1	R1310J
82403.291	0.001	1366724	DISTRACT_START	n/a	n/a	n/a	n/a	-999	3	[0, 0, 0]	n/a	catFR1	1	R1310J
82403.292	0.015	1366725	START	n/a	n/a	n/a	n/a	-999	3	[-999, -999, -999]	n/a	catFR1	1	R1310J
82403.307	4.118	1366740	PROB	4.118	n/a	n/a	n/a	-999	3	[9, 1, 5]	15	catFR1	1	R1310J
82407.425	4.435	1370858	PROB	4.435	n/a	n/a	n/a	-999	3	[3, 8, 1]	12	catFR1	1	R1310J
82411.86	4.084	1375293	PROB	4.084	n/a	n/a	n/a	-999	3	[3, 4, 5]	12	catFR1	1	R1310J
82415.944	3.017	1379377	PROB	3.017	n/a	n/a	n/a	-999	3	[8, 2, 3]	13	catFR1	1	R1310J
82418.961	4.415	1382394	PROB	4.415	n/a	n/a	n/a	-999	3	[1, 7, 5]	13	catFR1	1	R1310J
82423.376	0.018	1386809	STOP	n/a	n/a	n/a	n/a	-999	3	[-999, -999, -999]	n/a	catFR1	1	R1310J
82423.394	0.539	1386827	DISTRACT_END	n/a	n/a	n/a	n/a	-999	3	[0, 0, 0]	n/a	catFR1	1	R1310J
82423.933	1.712	1387366	RETRIEVAL_ORIENT_START	n/a	n/a	n/a	n/a	-999	3	[0, 0, 0]	n/a	catFR1	1	R1310J
82425.645	0.0	1389078	RETRIEVAL_ORIENT_END	n/a	n/a	n/a	n/a	-999	3	[0, 0, 0]	n/a	catFR1	1	R1310J
82425.645	0.685	1389078	REC_START	n/a	n/a	n/a	n/a	-999	3	[0, 0, 0]	n/a	catFR1	1	R1310J
82426.33	0.56	1389763	REC_WORD_VV	0.56	n/a	<>	n/a	-999	3	[0, 0, 0]	n/a	catFR1	1	R1310J
82426.89	0.555	1390322	REC_WORD	0.555	n/a	BEAR	Zoo	9	3	[0, 0, 0]	n/a	catFR1	1	R1310J
82427.445	0.795	1390877	REC_WORD	0.795	n/a	CHEETAH	Zoo	10	3	[0, 0, 0]	n/a	catFR1	1	R1310J
82428.24	1.905	1391672	REC_WORD	1.905	n/a	MONKEY	Zoo	5	3	[0, 0, 0]	n/a	catFR1	1	R1310J
82430.145	0.535	1393577	REC_WORD	0.535	n/a	DOLL	Toys	4	3	[0, 0, 0]	n/a	catFR1	1	R1310J
82430.68	1.455	1394112	REC_WORD	1.455	n/a	DOLLHOUSE	Toys	7	3	[0, 0, 0]	n/a	catFR1	1	R1310J
82432.135	2.64	1395567	REC_WORD	2.64	n/a	SLINKY	Toys	3	3	[0, 0, 0]	n/a	catFR1	1	R1310J
82434.775	3.17	1398207	REC_WORD_VV	3.17	n/a	<>	n/a	-999	3	[0, 0, 0]	n/a	catFR1	1	R1310J
82437.945	1.39	1401377	REC_WORD	1.39	n/a	HILLS	Landscapes	2	3	[0, 0, 0]	n/a	catFR1	1	R1310J
82439.335	1.57	1402767	REC_WORD	1.57	n/a	HILLS	Landscapes	2	3	[0, 0, 0]	n/a	catFR1	1	R1310J
82440.905	0.405	1404337	REC_WORD_VV	0.405	n/a	<>	n/a	-999	3	[0, 0, 0]	n/a	catFR1	1	R1310J
82441.31	3.65	1404742	REC_WORD	3.65	n/a	FOREST	Landscapes	1	3	[0, 0, 0]	n/a	catFR1	1	R1310J
82444.96	10.694	1408392	REC_WORD	10.694	n/a	OCEAN	Landscapes	12	3	[0, 0, 0]	n/a	catFR1	1	R1310J
82455.654	0.0	1419085	REC_END	n/a	n/a	n/a	n/a	-999	3	[0, 0, 0]	n/a	catFR1	1	R1310J
82455.654	0.025	1419085	TRIAL_END	n/a	n/a	n/a	n/a	-999	3	[0, 0, 0]	n/a	catFR1	1	R1310J
82455.679	0.0	1419110	WAITING_START	n/a	n/a	n/a	n/a	-999	4	[0, 0, 0]	n/a	catFR1	1	R1310J
82455.679	0.0	1419110	TRIAL	n/a	n/a	n/a	n/a	-999	4	[0, 0, 0]	n/a	catFR1	1	R1310J
82455.679	5.739	1419110	TRIAL_START	n/a	n/a	n/a	n/a	-999	4	[0, 0, 0]	n/a	catFR1	1	R1310J
82461.418	0.0	1424849	WAITING_END	n/a	n/a	n/a	n/a	-999	4	[0, 0, 0]	n/a	catFR1	1	R1310J
82461.418	10.429	1424849	COUNTDOWN_START	n/a	n/a	n/a	n/a	-999	4	[0, 0, 0]	n/a	catFR1	1	R1310J
82471.847	0.0	1435278	COUNTDOWN_END	n/a	n/a	n/a	n/a	-999	4	[0, 0, 0]	n/a	catFR1	1	R1310J
82471.847	1.14	1435278	ORIENT_START	n/a	n/a	n/a	n/a	-999	4	[0, 0, 0]	n/a	catFR1	1	R1310J
82472.987	0.001	1436418	ORIENT_END	n/a	n/a	n/a	n/a	-999	4	[0, 0, 0]	n/a	catFR1	1	R1310J
82472.988	1.078	1436419	ENCODING_START	n/a	n/a	n/a	n/a	-999	4	[0, 0, 0]	n/a	catFR1	1	R1310J
82474.066	1.638	1437497	WORD	n/a	wordpools/wordpool_categorized_EN.txt	BLENDER	Appliances	1	4	[0, 0, 0]	n/a	catFR1	1	R1310J
82475.704	1.097	1439134	WORD_OFF	n/a	n/a	BLENDER	Appliances	1	4	[0, 0, 0]	n/a	catFR1	1	R1310J
82476.801	1.636	1440231	WORD	n/a	wordpools/wordpool_categorized_EN.txt	STOVE	Appliances	2	4	[0, 0, 0]	n/a	catFR1	1	R1310J
82478.437	0.911	1441867	WORD_OFF	n/a	n/a	STOVE	Appliances	2	4	[0, 0, 0]	n/a	catFR1	1	R1310J
82479.348	1.624	1442778	WORD	n/a	wordpools/wordpool_categorized_EN.txt	SPEAKER	Electronics	3	4	[0, 0, 0]	n/a	catFR1	1	R1310J
82480.972	0.797	1444402	WORD_OFF	n/a	n/a	SPEAKER	Electronics	3	4	[0, 0, 0]	n/a	catFR1	1	R1310J
82481.769	1.636	1445199	WORD	n/a	wordpools/wordpool_categorized_EN.txt	SCANNER	Electronics	4	4	[0, 0, 0]	n/a	catFR1	1	R1310J
82483.405	0.82	1446835	WORD_OFF	n/a	n/a	SCANNER	Electronics	4	4	[0, 0, 0]	n/a	catFR1	1	R1310J
82484.225	1.631	1447655	WORD	n/a	wordpools/wordpool_categorized_EN.txt	SPATULA	KitchenTools	5	4	[0, 0, 0]	n/a	catFR1	1	R1310J
82485.856	0.75	1449286	WORD_OFF	n/a	n/a	SPATULA	KitchenTools	5	4	[0, 0, 0]	n/a	catFR1	1	R1310J
82486.606	1.633	1450036	WORD	n/a	wordpools/wordpool_categorized_EN.txt	STRAINER	KitchenTools	6	4	[0, 0, 0]	n/a	catFR1	1	R1310J
82488.239	0.834	1451669	WORD_OFF	n/a	n/a	STRAINER	KitchenTools	6	4	[0, 0, 0]	n/a	catFR1	1	R1310J
82489.073	1.634	1452503	WORD	n/a	wordpools/wordpool_categorized_EN.txt	OVEN	Appliances	7	4	[0, 0, 0]	n/a	catFR1	1	R1310J
82490.707	1.042	1454137	WORD_OFF	n/a	n/a	OVEN	Appliances	7	4	[0, 0, 0]	n/a	catFR1	1	R1310J
82491.749	1.624	1455179	WORD	n/a	wordpools/wordpool_categorized_EN.txt	VACUUM	Appliances	8	4	[0, 0, 0]	n/a	catFR1	1	R1310J
82493.373	0.96	1456803	WORD_OFF	n/a	n/a	VACUUM	Appliances	8	4	[0, 0, 0]	n/a	catFR1	1	R1310J
82494.333	1.608	1457763	WORD	n/a	wordpools/wordpool_categorized_EN.txt	PHONE	Electronics	9	4	[0, 0, 0]	n/a	catFR1	1	R1310J
82495.941	0.765	1459371	WORD_OFF	n/a	n/a	PHONE	Electronics	9	4	[0, 0, 0]	n/a	catFR1	1	R1310J
82496.706	1.634	1460136	WORD	n/a	wordpools/wordpool_categorized_EN.txt	CALCULATOR	Electronics	10	4	[0, 0, 0]	n/a	catFR1	1	R1310J
82498.34	0.8	1461770	WORD_OFF	n/a	n/a	CALCULATOR	Electronics	10	4	[0, 0, 0]	n/a	catFR1	1	R1310J
82499.14	1.635	1462570	WORD	n/a	wordpools/wordpool_categorized_EN.txt	SPOON	KitchenTools	11	4	[0, 0, 0]	n/a	catFR1	1	R1310J
82500.775	1.124	1464204	WORD_OFF	n/a	n/a	SPOON	KitchenTools	11	4	[0, 0, 0]	n/a	catFR1	1	R1310J
82501.899	1.626	1465328	WORD	n/a	wordpools/wordpool_categorized_EN.txt	TONGS	KitchenTools	12	4	[0, 0, 0]	n/a	catFR1	1	R1310J
82503.525	0.0	1466954	WORD_OFF	n/a	n/a	TONGS	KitchenTools	12	4	[0, 0, 0]	n/a	catFR1	1	R1310J
82503.525	0.0	1466954	ENCODING_END	n/a	n/a	n/a	n/a	-999	4	[0, 0, 0]	n/a	catFR1	1	R1310J
82503.525	0.001	1466954	DISTRACT_START	n/a	n/a	n/a	n/a	-999	4	[0, 0, 0]	n/a	catFR1	1	R1310J
82503.526	0.015	1466955	START	n/a	n/a	n/a	n/a	-999	4	[-999, -999, -999]	n/a	catFR1	1	R1310J
82503.541	3.1	1466970	PROB	3.1	n/a	n/a	n/a	-999	4	[1, 9, 1]	11	catFR1	1	R1310J
82506.641	6.219	1470070	PROB	6.219	n/a	n/a	n/a	-999	4	[2, 8, 6]	16	catFR1	1	R1310J
82512.86	4.251	1476289	PROB	4.251	n/a	n/a	n/a	-999	4	[7, 6, 7]	20	catFR1	1	R1310J
82517.111	4.767	1480540	PROB	4.767	n/a	n/a	n/a	-999	4	[4, 5, 3]	12	catFR1	1	R1310J
82521.878	4.866	1485307	PROB	4.866	n/a	n/a	n/a	-999	4	[4, 7, 7]	18	catFR1	1	R1310J
82526.744	0.019	1490172	STOP	n/a	n/a	n/a	n/a	-999	4	[-999, -999, -999]	n/a	catFR1	1	R1310J
82526.763	0.637	1490191	DISTRACT_END	n/a	n/a	n/a	n/a	-999	4	[0, 0, 0]	n/a	catFR1	1	R1310J
82527.4	1.597	1490828	RETRIEVAL_ORIENT_START	n/a	n/a	n/a	n/a	-999	4	[0, 0, 0]	n/a	catFR1	1	R1310J
82528.997	0.0	1492425	RETRIEVAL_ORIENT_END	n/a	n/a	n/a	n/a	-999	4	[0, 0, 0]	n/a	catFR1	1	R1310J
82528.997	1.109	1492425	REC_START	n/a	n/a	n/a	n/a	-999	4	[0, 0, 0]	n/a	catFR1	1	R1310J
82530.106	1.865	1493534	REC_WORD	1.865	n/a	TONGS	KitchenTools	12	4	[0, 0, 0]	n/a	catFR1	1	R1310J
82531.971	1.325	1495399	REC_WORD	1.325	n/a	VACUUM	Appliances	8	4	[0, 0, 0]	n/a	catFR1	1	R1310J
82533.296	0.906	1496724	REC_WORD	0.906	n/a	OVEN	Appliances	7	4	[0, 0, 0]	n/a	catFR1	1	R1310J
82534.202	3.525	1497630	REC_WORD	3.525	n/a	BLENDER	Appliances	1	4	[0, 0, 0]	n/a	catFR1	1	R1310J
82537.727	1.0	1501155	REC_WORD_VV	1.0	n/a	<>	n/a	-999	4	[0, 0, 0]	n/a	catFR1	1	R1310J
82538.727	4.934	1502155	REC_WORD_VV	4.934	n/a	<>	n/a	-999	4	[0, 0, 0]	n/a	catFR1	1	R1310J
82543.661	15.345	1507089	REC_WORD	15.345	n/a	PHONE	Electronics	9	4	[0, 0, 0]	n/a	catFR1	1	R1310J
82559.006	0.0	1522433	REC_END	n/a	n/a	n/a	n/a	-999	4	[0, 0, 0]	n/a	catFR1	1	R1310J
82559.006	0.021	1522433	TRIAL_END	n/a	n/a	n/a	n/a	-999	4	[0, 0, 0]	n/a	catFR1	1	R1310J
82559.027	0.0	1522454	TRIAL_START	n/a	n/a	n/a	n/a	-999	5	[0, 0, 0]	n/a	catFR1	1	R1310J
82559.027	0.0	1522454	TRIAL	n/a	n/a	n/a	n/a	-999	5	[0, 0, 0]	n/a	catFR1	1	R1310J
82559.027	4.842	1522454	WAITING_START	n/a	n/a	n/a	n/a	-999	5	[0, 0, 0]	n/a	catFR1	1	R1310J
82563.869	0.001	1527296	WAITING_END	n/a	n/a	n/a	n/a	-999	5	[0, 0, 0]	n/a	catFR1	1	R1310J
82563.87	10.429	1527297	COUNTDOWN_START	n/a	n/a	n/a	n/a	-999	5	[0, 0, 0]	n/a	catFR1	1	R1310J
82574.299	0.0	1537725	COUNTDOWN_END	n/a	n/a	n/a	n/a	-999	5	[0, 0, 0]	n/a	catFR1	1	R1310J
82574.299	1.138	1537725	ORIENT_START	n/a	n/a	n/a	n/a	-999	5	[0, 0, 0]	n/a	catFR1	1	R1310J
82575.437	0.0	1538863	ORIENT_END	n/a	n/a	n/a	n/a	-999	5	[0, 0, 0]	n/a	catFR1	1	R1310J
82575.437	0.997	1538863	ENCODING_START	n/a	n/a	n/a	n/a	-999	5	[0, 0, 0]	n/a	catFR1	1	R1310J
82576.434	1.621	1539860	WORD	n/a	wordpools/wordpool_categorized_EN.txt	LILAC	Flowers	1	5	[0, 0, 0]	n/a	catFR1	1	R1310J
82578.055	0.948	1541481	WORD_OFF	n/a	n/a	LILAC	Flowers	1	5	[0, 0, 0]	n/a	catFR1	1	R1310J
82579.003	1.635	1542429	WORD	n/a	wordpools/wordpool_categorized_EN.txt	CARNATION	Flowers	2	5	[0, 0, 0]	n/a	catFR1	1	R1310J
82580.638	1.034	1544064	WORD_OFF	n/a	n/a	CARNATION	Flowers	2	5	[0, 0, 0]	n/a	catFR1	1	R1310J
82581.672	1.633	1545098	WORD	n/a	wordpools/wordpool_categorized_EN.txt	MARKER	OfficeSupplies	3	5	[0, 0, 0]	n/a	catFR1	1	R1310J
82583.305	1.117	1546731	WORD_OFF	n/a	n/a	MARKER	OfficeSupplies	3	5	[0, 0, 0]	n/a	catFR1	1	R1310J
82584.422	1.634	1547848	WORD	n/a	wordpools/wordpool_categorized_EN.txt	STAPLER	OfficeSupplies	4	5	[0, 0, 0]	n/a	catFR1	1	R1310J
82586.056	0.857	1549482	WORD_OFF	n/a	n/a	STAPLER	OfficeSupplies	4	5	[0, 0, 0]	n/a	catFR1	1	R1310J
82586.913	1.626	1550339	WORD	n/a	wordpools/wordpool_categorized_EN.txt	PLIERS	Tools	5	5	[0, 0, 0]	n/a	catFR1	1	R1310J
82588.539	1.053	1551965	WORD_OFF	n/a	n/a	PLIERS	Tools	5	5	[0, 0, 0]	n/a	catFR1	1	R1310J
82589.592	1.631	1553018	WORD	n/a	wordpools/wordpool_categorized_EN.txt	WRENCH	Tools	6	5	[0, 0, 0]	n/a	catFR1	1	R1310J
82591.223	0.849	1554649	WORD_OFF	n/a	n/a	WRENCH	Tools	6	5	[0, 0, 0]	n/a	catFR1	1	R1310J
82592.072	1.635	1555498	WORD	n/a	wordpools/wordpool_categorized_EN.txt	ERASER	OfficeSupplies	7	5	[0, 0, 0]	n/a	catFR1	1	R1310J
82593.707	0.835	1557133	WORD_OFF	n/a	n/a	ERASER	OfficeSupplies	7	5	[0, 0, 0]	n/a	catFR1	1	R1310J
82594.542	1.616	1557968	WORD	n/a	wordpools/wordpool_categorized_EN.txt	PENCIL	OfficeSupplies	8	5	[0, 0, 0]	n/a	catFR1	1	R1310J
82596.158	0.92	1559583	WORD_OFF	n/a	n/a	PENCIL	OfficeSupplies	8	5	[0, 0, 0]	n/a	catFR1	1	R1310J
82597.078	1.63	1560503	WORD	n/a	wordpools/wordpool_categorized_EN.txt	VIOLET	Flowers	9	5	[0, 0, 0]	n/a	catFR1	1	R1310J
82598.708	0.991	1562133	WORD_OFF	n/a	n/a	VIOLET	Flowers	9	5	[0, 0, 0]	n/a	catFR1	1	R1310J
82599.699	1.625	1563124	WORD	n/a	wordpools/wordpool_categorized_EN.txt	MARIGOLD	Flowers	10	5	[0, 0, 0]	n/a	catFR1	1	R1310J
82601.324	0.818	1564749	WORD_OFF	n/a	n/a	MARIGOLD	Flowers	10	5	[0, 0, 0]	n/a	catFR1	1	R1310J
82602.142	1.634	1565567	WORD	n/a	wordpools/wordpool_categorized_EN.txt	SAW	Tools	11	5	[0, 0, 0]	n/a	catFR1	1	R1310J
82603.776	0.982	1567201	WORD_OFF	n/a	n/a	SAW	Tools	11	5	[0, 0, 0]	n/a	catFR1	1	R1310J
82604.758	1.634	1568183	WORD	n/a	wordpools/wordpool_categorized_EN.txt	SHOVEL	Tools	12	5	[0, 0, 0]	n/a	catFR1	1	R1310J
82606.392	0.0	1569817	ENCODING_END	n/a	n/a	n/a	n/a	-999	5	[0, 0, 0]	n/a	catFR1	1	R1310J
82606.392	0.001	1569817	WORD_OFF	n/a	n/a	SHOVEL	Tools	12	5	[0, 0, 0]	n/a	catFR1	1	R1310J
82606.393	0.0	1569818	DISTRACT_START	n/a	n/a	n/a	n/a	-999	5	[0, 0, 0]	n/a	catFR1	1	R1310J
82606.393	0.015	1569818	START	n/a	n/a	n/a	n/a	-999	5	[-999, -999, -999]	n/a	catFR1	1	R1310J
82606.408	5.552	1569833	PROB	5.552	n/a	n/a	n/a	-999	5	[4, 2, 3]	9	catFR1	1	R1310J
82611.96	3.433	1575385	PROB	3.433	n/a	n/a	n/a	-999	5	[2, 6, 2]	10	catFR1	1	R1310J
82615.393	4.151	1578818	PROB	4.151	n/a	n/a	n/a	-999	5	[7, 4, 7]	18	catFR1	1	R1310J
82619.544	4.867	1582969	PROB	4.867	n/a	n/a	n/a	-999	5	[3, 9, 9]	21	catFR1	1	R1310J
82624.411	4.1	1587835	PROB	4.1	n/a	n/a	n/a	-999	5	[9, 2, 4]	15	catFR1	1	R1310J
82628.511	0.018	1591935	STOP	n/a	n/a	n/a	n/a	-999	5	[-999, -999, -999]	n/a	catFR1	1	R1310J
82628.529	0.604	1591953	DISTRACT_END	n/a	n/a	n/a	n/a	-999	5	[0, 0, 0]	n/a	catFR1	1	R1310J
82629.133	1.631	1592557	RETRIEVAL_ORIENT_START	n/a	n/a	n/a	n/a	-999	5	[0, 0, 0]	n/a	catFR1	1	R1310J
82630.764	0.0	1594188	RETRIEVAL_ORIENT_END	n/a	n/a	n/a	n/a	-999	5	[0, 0, 0]	n/a	catFR1	1	R1310J
82630.764	0.175	1594188	REC_START	n/a	n/a	n/a	n/a	-999	5	[0, 0, 0]	n/a	catFR1	1	R1310J
82630.939	0.805	1594363	REC_WORD_VV	0.805	n/a	<>	n/a	-999	5	[0, 0, 0]	n/a	catFR1	1	R1310J
82631.744	1.285	1595168	REC_WORD	1.285	n/a	LILAC	Flowers	1	5	[0, 0, 0]	n/a	catFR1	1	R1310J
82633.029	2.055	1596453	REC_WORD	2.055	n/a	MARIGOLD	Flowers	10	5	[0, 0, 0]	n/a	catFR1	1	R1310J
82635.084	2.09	1598508	REC_WORD	2.09	n/a	STAPLER	OfficeSupplies	4	5	[0, 0, 0]	n/a	catFR1	1	R1310J
82637.174	0.535	1600598	REC_WORD_VV	0.535	n/a	<>	n/a	-999	5	[0, 0, 0]	n/a	catFR1	1	R1310J
82637.709	2.62	1601133	REC_WORD	2.62	n/a	MARKER	OfficeSupplies	3	5	[0, 0, 0]	n/a	catFR1	1	R1310J
82640.329	0.345	1603753	REC_WORD_VV	0.345	n/a	<>	n/a	-999	5	[0, 0, 0]	n/a	catFR1	1	R1310J
82640.674	1.545	1604098	REC_WORD	1.545	n/a	CARNATION	Flowers	2	5	[0, 0, 0]	n/a	catFR1	1	R1310J
82642.219	5.305	1605643	REC_WORD_VV	5.305	n/a	<>	n/a	-999	5	[0, 0, 0]	n/a	catFR1	1	R1310J
82647.524	13.252	1610947	REC_WORD_VV	13.252	n/a	<>	n/a	-999	5	[0, 0, 0]	n/a	catFR1	1	R1310J
82660.776	0.0	1624199	REC_END	n/a	n/a	n/a	n/a	-999	5	[0, 0, 0]	n/a	catFR1	1	R1310J
82660.776	0.019	1624199	TRIAL_END	n/a	n/a	n/a	n/a	-999	5	[0, 0, 0]	n/a	catFR1	1	R1310J
82660.795	0.001	1624218	TRIAL_START	n/a	n/a	n/a	n/a	-999	6	[0, 0, 0]	n/a	catFR1	1	R1310J
82660.796	0.0	1624219	WAITING_START	n/a	n/a	n/a	n/a	-999	6	[0, 0, 0]	n/a	catFR1	1	R1310J
82660.796	2.639	1624219	TRIAL	n/a	n/a	n/a	n/a	-999	6	[0, 0, 0]	n/a	catFR1	1	R1310J
82663.435	0.0	1626858	WAITING_END	n/a	n/a	n/a	n/a	-999	6	[0, 0, 0]	n/a	catFR1	1	R1310J
82663.435	10.429	1626858	COUNTDOWN_START	n/a	n/a	n/a	n/a	-999	6	[0, 0, 0]	n/a	catFR1	1	R1310J
82673.864	0.0	1637286	COUNTDOWN_END	n/a	n/a	n/a	n/a	-999	6	[0, 0, 0]	n/a	catFR1	1	R1310J
82673.864	1.241	1637286	ORIENT_START	n/a	n/a	n/a	n/a	-999	6	[0, 0, 0]	n/a	catFR1	1	R1310J
82675.105	0.0	1638527	ORIENT_END	n/a	n/a	n/a	n/a	-999	6	[0, 0, 0]	n/a	catFR1	1	R1310J
82675.105	0.75	1638527	ENCODING_START	n/a	n/a	n/a	n/a	-999	6	[0, 0, 0]	n/a	catFR1	1	R1310J
82675.855	1.632	1639277	WORD	n/a	wordpools/wordpool_categorized_EN.txt	MIXER	Appliances	1	6	[0, 0, 0]	n/a	catFR1	1	R1310J
82677.487	1.015	1640909	WORD_OFF	n/a	n/a	MIXER	Appliances	1	6	[0, 0, 0]	n/a	catFR1	1	R1310J
82678.502	1.637	1641924	WORD	n/a	wordpools/wordpool_categorized_EN.txt	DISHWASHER	Appliances	2	6	[0, 0, 0]	n/a	catFR1	1	R1310J
82680.139	1.092	1643561	WORD_OFF	n/a	n/a	DISHWASHER	Appliances	2	6	[0, 0, 0]	n/a	catFR1	1	R1310J
82681.231	1.625	1644653	WORD	n/a	wordpools/wordpool_categorized_EN.txt	BASKETBALL	Toys	3	6	[0, 0, 0]	n/a	catFR1	1	R1310J
82682.856	1.117	1646278	WORD_OFF	n/a	n/a	BASKETBALL	Toys	3	6	[0, 0, 0]	n/a	catFR1	1	R1310J
82683.973	1.632	1647395	WORD	n/a	wordpools/wordpool_categorized_EN.txt	BLOCKS	Toys	4	6	[0, 0, 0]	n/a	catFR1	1	R1310J
82685.605	1.093	1649027	WORD_OFF	n/a	n/a	BLOCKS	Toys	4	6	[0, 0, 0]	n/a	catFR1	1	R1310J
82686.698	1.624	1650120	WORD	n/a	wordpools/wordpool_categorized_EN.txt	CABBAGE	Vegetables	5	6	[0, 0, 0]	n/a	catFR1	1	R1310J
82688.322	0.823	1651744	WORD_OFF	n/a	n/a	CABBAGE	Vegetables	5	6	[0, 0, 0]	n/a	catFR1	1	R1310J
82689.145	1.629	1652567	WORD	n/a	wordpools/wordpool_categorized_EN.txt	CELERY	Vegetables	6	6	[0, 0, 0]	n/a	catFR1	1	R1310J
82690.774	0.992	1654196	WORD_OFF	n/a	n/a	CELERY	Vegetables	6	6	[0, 0, 0]	n/a	catFR1	1	R1310J
82691.766	1.624	1655188	WORD	n/a	wordpools/wordpool_categorized_EN.txt	WASHER	Appliances	7	6	[0, 0, 0]	n/a	catFR1	1	R1310J
82693.39	0.812	1656811	WORD_OFF	n/a	n/a	WASHER	Appliances	7	6	[0, 0, 0]	n/a	catFR1	1	R1310J
82694.202	1.623	1657623	WORD	n/a	wordpools/wordpool_categorized_EN.txt	TOASTER	Appliances	8	6	[0, 0, 0]	n/a	catFR1	1	R1310J
82695.825	1.019	1659246	WORD_OFF	n/a	n/a	TOASTER	Appliances	8	6	[0, 0, 0]	n/a	catFR1	1	R1310J
82696.844	1.63	1660265	WORD	n/a	wordpools/wordpool_categorized_EN.txt	LETTUCE	Vegetables	9	6	[0, 0, 0]	n/a	catFR1	1	R1310J
82698.474	0.853	1661895	WORD_OFF	n/a	n/a	LETTUCE	Vegetables	9	6	[0, 0, 0]	n/a	catFR1	1	R1310J
82699.327	1.632	1662748	WORD	n/a	wordpools/wordpool_categorized_EN.txt	PEAS	Vegetables	10	6	[0, 0, 0]	n/a	catFR1	1	R1310J
82700.959	0.889	1664380	WORD_OFF	n/a	n/a	PEAS	Vegetables	10	6	[0, 0, 0]	n/a	catFR1	1	R1310J
82701.848	1.627	1665269	WORD	n/a	wordpools/wordpool_categorized_EN.txt	BASEBALL	Toys	11	6	[0, 0, 0]	n/a	catFR1	1	R1310J
82703.475	0.833	1666896	WORD_OFF	n/a	n/a	BASEBALL	Toys	11	6	[0, 0, 0]	n/a	catFR1	1	R1310J
82704.308	1.635	1667729	WORD	n/a	wordpools/wordpool_categorized_EN.txt	FRISBEE	Toys	12	6	[0, 0, 0]	n/a	catFR1	1	R1310J
82705.943	0.0	1669364	WORD_OFF	n/a	n/a	FRISBEE	Toys	12	6	[0, 0, 0]	n/a	catFR1	1	R1310J
82705.943	0.001	1669364	ENCODING_END	n/a	n/a	n/a	n/a	-999	6	[0, 0, 0]	n/a	catFR1	1	R1310J
82705.944	0.0	1669365	DISTRACT_START	n/a	n/a	n/a	n/a	-999	6	[0, 0, 0]	n/a	catFR1	1	R1310J
82705.944	0.016	1669365	START	n/a	n/a	n/a	n/a	-999	6	[-999, -999, -999]	n/a	catFR1	1	R1310J
82705.96	4.067	1669381	PROB	4.067	n/a	n/a	n/a	-999	6	[6, 9, 3]	18	catFR1	1	R1310J
82710.027	3.134	1673448	PROB	3.134	n/a	n/a	n/a	-999	6	[9, 4, 6]	19	catFR1	1	R1310J
82713.161	3.567	1676582	PROB	3.567	n/a	n/a	n/a	-999	6	[5, 3, 8]	16	catFR1	1	R1310J
82716.728	3.034	1680148	PROB	3.034	n/a	n/a	n/a	-999	6	[8, 1, 9]	18	catFR1	1	R1310J
82719.762	3.816	1683182	PROB	3.816	n/a	n/a	n/a	-999	6	[1, 1, 7]	9	catFR1	1	R1310J
82723.578	4.702	1686998	PROB	4.702	n/a	n/a	n/a	-999	6	[2, 3, 7]	10	catFR1	1	R1310J
82728.28	0.016	1691700	STOP	n/a	n/a	n/a	n/a	-999	6	[-999, -999, -999]	n/a	catFR1	1	R1310J
82728.296	0.618	1691716	DISTRACT_END	n/a	n/a	n/a	n/a	-999	6	[0, 0, 0]	n/a	catFR1	1	R1310J
82728.914	1.716	1692334	RETRIEVAL_ORIENT_START	n/a	n/a	n/a	n/a	-999	6	[0, 0, 0]	n/a	catFR1	1	R1310J
82730.63	0.0	1694050	RETRIEVAL_ORIENT_END	n/a	n/a	n/a	n/a	-999	6	[0, 0, 0]	n/a	catFR1	1	R1310J
82730.63	0.4	1694050	REC_START	n/a	n/a	n/a	n/a	-999	6	[0, 0, 0]	n/a	catFR1	1	R1310J
82731.03	0.955	1694450	REC_WORD_VV	0.955	n/a	<>	n/a	-999	6	[0, 0, 0]	n/a	catFR1	1	R1310J
82731.985	1.25	1695405	REC_WORD	1.25	n/a	FRISBEE	Toys	12	6	[0, 0, 0]	n/a	catFR1	1	R1310J
82733.235	0.725	1696655	REC_WORD	0.725	n/a	BASKETBALL	Toys	3	6	[0, 0, 0]	n/a	catFR1	1	R1310J
82733.96	1.575	1697380	REC_WORD	1.575	n/a	BASEBALL	Toys	11	6	[0, 0, 0]	n/a	catFR1	1	R1310J
82735.535	1.72	1698955	REC_WORD	1.72	n/a	BLOCKS	Toys	4	6	[0, 0, 0]	n/a	catFR1	1	R1310J
82737.255	0.685	1700675	REC_WORD	0.685	n/a	LETTUCE	Vegetables	9	6	[0, 0, 0]	n/a	catFR1	1	R1310J
82737.94	4.28	1701360	REC_WORD	4.28	n/a	CABBAGE	Vegetables	5	6	[0, 0, 0]	n/a	catFR1	1	R1310J
82742.22	6.726	1705639	REC_WORD_VV	6.726	n/a	<>	n/a	-999	6	[0, 0, 0]	n/a	catFR1	1	R1310J
82748.946	11.694	1712365	REC_WORD	11.694	n/a	MIXER	Appliances	1	6	[0, 0, 0]	n/a	catFR1	1	R1310J
82760.64	0.0	1724059	REC_END	n/a	n/a	n/a	n/a	-999	6	[0, 0, 0]	n/a	catFR1	1	R1310J
82760.64	0.02	1724059	TRIAL_END	n/a	n/a	n/a	n/a	-999	6	[0, 0, 0]	n/a	catFR1	1	R1310J
82760.66	0.0	1724079	TRIAL	n/a	n/a	n/a	n/a	-999	7	[0, 0, 0]	n/a	catFR1	1	R1310J
82760.66	0.0	1724079	WAITING_START	n/a	n/a	n/a	n/a	-999	7	[0, 0, 0]	n/a	catFR1	1	R1310J
82760.66	2.493	1724079	TRIAL_START	n/a	n/a	n/a	n/a	-999	7	[0, 0, 0]	n/a	catFR1	1	R1310J
82763.153	0.0	1726572	WAITING_END	n/a	n/a	n/a	n/a	-999	7	[0, 0, 0]	n/a	catFR1	1	R1310J
82763.153	10.429	1726572	COUNTDOWN_START	n/a	n/a	n/a	n/a	-999	7	[0, 0, 0]	n/a	catFR1	1	R1310J
82773.582	0.001	1737000	COUNTDOWN_END	n/a	n/a	n/a	n/a	-999	7	[0, 0, 0]	n/a	catFR1	1	R1310J
82773.583	1.155	1737001	ORIENT_START	n/a	n/a	n/a	n/a	-999	7	[0, 0, 0]	n/a	catFR1	1	R1310J
82774.738	0.001	1738156	ORIENT_END	n/a	n/a	n/a	n/a	-999	7	[0, 0, 0]	n/a	catFR1	1	R1310J
82774.739	1.114	1738157	ENCODING_START	n/a	n/a	n/a	n/a	-999	7	[0, 0, 0]	n/a	catFR1	1	R1310J
82775.853	1.635	1739271	WORD	n/a	wordpools/wordpool_categorized_EN.txt	BLUEBIRD	Birds	1	7	[0, 0, 0]	n/a	catFR1	1	R1310J
82777.488	0.957	1740906	WORD_OFF	n/a	n/a	BLUEBIRD	Birds	1	7	[0, 0, 0]	n/a	catFR1	1	R1310J
82778.445	1.627	1741863	WORD	n/a	wordpools/wordpool_categorized_EN.txt	SPARROW	Birds	2	7	[0, 0, 0]	n/a	catFR1	1	R1310J
82780.072	1.03	1743490	WORD_OFF	n/a	n/a	SPARROW	Birds	2	7	[0, 0, 0]	n/a	catFR1	1	R1310J
82781.102	1.637	1744520	WORD	n/a	wordpools/wordpool_categorized_EN.txt	ELBOW	BodyParts	3	7	[0, 0, 0]	n/a	catFR1	1	R1310J
82782.739	0.871	1746157	WORD_OFF	n/a	n/a	ELBOW	BodyParts	3	7	[0, 0, 0]	n/a	catFR1	1	R1310J
82783.61	1.629	1747028	WORD	n/a	wordpools/wordpool_categorized_EN.txt	TOE	BodyParts	4	7	[0, 0, 0]	n/a	catFR1	1	R1310J
82785.239	1.05	1748657	WORD_OFF	n/a	n/a	TOE	BodyParts	4	7	[0, 0, 0]	n/a	catFR1	1	R1310J
82786.289	1.635	1749707	WORD	n/a	wordpools/wordpool_categorized_EN.txt	CUCUMBER	Vegetables	5	7	[0, 0, 0]	n/a	catFR1	1	R1310J
82787.924	0.837	1751342	WORD_OFF	n/a	n/a	CUCUMBER	Vegetables	5	7	[0, 0, 0]	n/a	catFR1	1	R1310J
82788.761	1.629	1752178	WORD	n/a	wordpools/wordpool_categorized_EN.txt	CAULIFLOWER	Vegetables	6	7	[0, 0, 0]	n/a	catFR1	1	R1310J
82790.39	0.985	1753807	WORD_OFF	n/a	n/a	CAULIFLOWER	Vegetables	6	7	[0, 0, 0]	n/a	catFR1	1	R1310J
82791.375	1.633	1754792	WORD	n/a	wordpools/wordpool_categorized_EN.txt	FINGERS	BodyParts	7	7	[0, 0, 0]	n/a	catFR1	1	R1310J
82793.008	0.797	1756425	WORD_OFF	n/a	n/a	FINGERS	BodyParts	7	7	[0, 0, 0]	n/a	catFR1	1	R1310J
82793.805	1.636	1757222	WORD	n/a	wordpools/wordpool_categorized_EN.txt	HAND	BodyParts	8	7	[0, 0, 0]	n/a	catFR1	1	R1310J
82795.441	1.089	1758858	WORD_OFF	n/a	n/a	HAND	BodyParts	8	7	[0, 0, 0]	n/a	catFR1	1	R1310J
82796.53	1.629	1759947	WORD	n/a	wordpools/wordpool_categorized_EN.txt	POTATO	Vegetables	9	7	[0, 0, 0]	n/a	catFR1	1	R1310J
82798.159	0.834	1761576	WORD_OFF	n/a	n/a	POTATO	Vegetables	9	7	[0, 0, 0]	n/a	catFR1	1	R1310J
82798.993	1.632	1762410	WORD	n/a	wordpools/wordpool_categorized_EN.txt	BROCCOLI	Vegetables	10	7	[0, 0, 0]	n/a	catFR1	1	R1310J
82800.625	0.879	1764042	WORD_OFF	n/a	n/a	BROCCOLI	Vegetables	10	7	[0, 0, 0]	n/a	catFR1	1	R1310J
82801.504	1.605	1764921	WORD	n/a	wordpools/wordpool_categorized_EN.txt	DOVE	Birds	11	7	[0, 0, 0]	n/a	catFR1	1	R1310J
82803.109	1.006	1766526	WORD_OFF	n/a	n/a	DOVE	Birds	11	7	[0, 0, 0]	n/a	catFR1	1	R1310J
82804.115	1.629	1767532	WORD	n/a	wordpools/wordpool_categorized_EN.txt	GOOSE	Birds	12	7	[0, 0, 0]	n/a	catFR1	1	R1310J
82805.744	0.0	1769161	WORD_OFF	n/a	n/a	GOOSE	Birds	12	7	[0, 0, 0]	n/a	catFR1	1	R1310J
82805.744	0.0	1769161	ENCODING_END	n/a	n/a	n/a	n/a	-999	7	[0, 0, 0]	n/a	catFR1	1	R1310J
82805.744	0.001	1769161	DISTRACT_START	n/a	n/a	n/a	n/a	-999	7	[0, 0, 0]	n/a	catFR1	1	R1310J
82805.745	0.015	1769162	START	n/a	n/a	n/a	n/a	-999	7	[-999, -999, -999]	n/a	catFR1	1	R1310J
82805.76	3.384	1769177	PROB	3.384	n/a	n/a	n/a	-999	7	[7, 3, 8]	18	catFR1	1	R1310J
82809.144	3.784	1772561	PROB	3.784	n/a	n/a	n/a	-999	7	[2, 7, 8]	17	catFR1	1	R1310J
82812.928	3.15	1776344	PROB	3.15	n/a	n/a	n/a	-999	7	[1, 2, 6]	9	catFR1	1	R1310J
82816.078	4.333	1779494	PROB	4.333	n/a	n/a	n/a	-999	7	[2, 7, 4]	13	catFR1	1	R1310J
82820.411	2.951	1783827	PROB	2.951	n/a	n/a	n/a	-999	7	[7, 7, 7]	21	catFR1	1	R1310J
82823.362	3.628	1786778	PROB	3.628	n/a	n/a	n/a	-999	7	[9, 4, 9]	22	catFR1	1	R1310J
82826.99	0.007	1790406	STOP	n/a	n/a	n/a	n/a	-999	7	[-999, -999, -999]	n/a	catFR1	1	R1310J
82826.997	0.631	1790413	DISTRACT_END	n/a	n/a	n/a	n/a	-999	7	[0, 0, 0]	n/a	catFR1	1	R1310J
82827.628	1.553	1791044	RETRIEVAL_ORIENT_START	n/a	n/a	n/a	n/a	-999	7	[0, 0, 0]	n/a	catFR1	1	R1310J
82829.181	0.0	1792597	RETRIEVAL_ORIENT_END	n/a	n/a	n/a	n/a	-999	7	[0, 0, 0]	n/a	catFR1	1	R1310J
82829.181	1.725	1792597	REC_START	n/a	n/a	n/a	n/a	-999	7	[0, 0, 0]	n/a	catFR1	1	R1310J
82830.906	0.89	1794322	REC_WORD_VV	0.89	n/a	<>	n/a	-999	7	[0, 0, 0]	n/a	catFR1	1	R1310J
82831.796	1.01	1795212	REC_WORD	1.01	n/a	ELBOW	BodyParts	3	7	[0, 0, 0]	n/a	catFR1	1	R1310J
82832.806	2.54	1796222	REC_WORD	2.54	n/a	TOE	BodyParts	4	7	[0, 0, 0]	n/a	catFR1	1	R1310J
82835.346	1.85	1798762	REC_WORD_VV	1.85	n/a	<>	n/a	-999	7	[0, 0, 0]	n/a	catFR1	1	R1310J
82837.196	0.72	1800611	REC_WORD	0.72	n/a	POTATO	Vegetables	9	7	[0, 0, 0]	n/a	catFR1	1	R1310J
82837.916	1.505	1801331	REC_WORD	1.505	n/a	CAULIFLOWER	Vegetables	6	7	[0, 0, 0]	n/a	catFR1	1	R1310J
82839.421	7.03	1802836	REC_WORD_VV	7.03	n/a	<>	n/a	-999	7	[0, 0, 0]	n/a	catFR1	1	R1310J
82846.451	1.449	1809866	REC_WORD	1.449	n/a	FINGERS	BodyParts	7	7	[0, 0, 0]	n/a	catFR1	1	R1310J
82847.9	4.395	1811315	REC_WORD_VV	4.395	n/a	<>	n/a	-999	7	[0, 0, 0]	n/a	catFR1	1	R1310J
82852.295	6.896	1815710	REC_WORD	6.896	n/a	CELERY	Vegetables	-999	7	[0, 0, 0]	n/a	catFR1	1	R1310J
82859.191	0.001	1822606	REC_END	n/a	n/a	n/a	n/a	-999	7	[0, 0, 0]	n/a	catFR1	1	R1310J
82859.192	0.019	1822607	TRIAL_END	n/a	n/a	n/a	n/a	-999	7	[0, 0, 0]	n/a	catFR1	1	R1310J
82859.211	0.0	1822626	WAITING_START	n/a	n/a	n/a	n/a	-999	8	[0, 0, 0]	n/a	catFR1	1	R1310J
82859.211	0.0	1822626	TRIAL	n/a	n/a	n/a	n/a	-999	8	[0, 0, 0]	n/a	catFR1	1	R1310J
82859.211	8.626	1822626	TRIAL_START	n/a	n/a	n/a	n/a	-999	8	[0, 0, 0]	n/a	catFR1	1	R1310J
82867.837	0.001	1831251	WAITING_END	n/a	n/a	n/a	n/a	-999	8	[0, 0, 0]	n/a	catFR1	1	R1310J
82867.838	10.429	1831252	COUNTDOWN_START	n/a	n/a	n/a	n/a	-999	8	[0, 0, 0]	n/a	catFR1	1	R1310J
82878.267	0.0	1841681	COUNTDOWN_END	n/a	n/a	n/a	n/a	-999	8	[0, 0, 0]	n/a	catFR1	1	R1310J
82878.267	1.171	1841681	ORIENT_START	n/a	n/a	n/a	n/a	-999	8	[0, 0, 0]	n/a	catFR1	1	R1310J
82879.438	0.001	1842852	ORIENT_END	n/a	n/a	n/a	n/a	-999	8	[0, 0, 0]	n/a	catFR1	1	R1310J
82879.439	1.008	1842853	ENCODING_START	n/a	n/a	n/a	n/a	-999	8	[0, 0, 0]	n/a	catFR1	1	R1310J
82880.447	1.626	1843861	WORD	n/a	wordpools/wordpool_categorized_EN.txt	TURKEY	FarmAnimals	1	8	[0, 0, 0]	n/a	catFR1	1	R1310J
82882.073	1.07	1845487	WORD_OFF	n/a	n/a	TURKEY	FarmAnimals	1	8	[0, 0, 0]	n/a	catFR1	1	R1310J
82883.143	1.63	1846557	WORD	n/a	wordpools/wordpool_categorized_EN.txt	HORSE	FarmAnimals	2	8	[0, 0, 0]	n/a	catFR1	1	R1310J
82884.773	1.098	1848187	WORD_OFF	n/a	n/a	HORSE	FarmAnimals	2	8	[0, 0, 0]	n/a	catFR1	1	R1310J
82885.871	1.635	1849284	WORD	n/a	wordpools/wordpool_categorized_EN.txt	DAFFODIL	Flowers	3	8	[0, 0, 0]	n/a	catFR1	1	R1310J
82887.506	0.758	1850919	WORD_OFF	n/a	n/a	DAFFODIL	Flowers	3	8	[0, 0, 0]	n/a	catFR1	1	R1310J
82888.264	1.61	1851677	WORD	n/a	wordpools/wordpool_categorized_EN.txt	SUNFLOWER	Flowers	4	8	[0, 0, 0]	n/a	catFR1	1	R1310J
82889.874	0.821	1853287	WORD_OFF	n/a	n/a	SUNFLOWER	Flowers	4	8	[0, 0, 0]	n/a	catFR1	1	R1310J
82890.695	1.629	1854108	WORD	n/a	wordpools/wordpool_categorized_EN.txt	TABLE	Furniture	5	8	[0, 0, 0]	n/a	catFR1	1	R1310J
82892.324	1.022	1855737	WORD_OFF	n/a	n/a	TABLE	Furniture	5	8	[0, 0, 0]	n/a	catFR1	1	R1310J
82893.346	1.612	1856759	WORD	n/a	wordpools/wordpool_categorized_EN.txt	BED	Furniture	6	8	[0, 0, 0]	n/a	catFR1	1	R1310J
82894.958	1.053	1858371	WORD_OFF	n/a	n/a	BED	Furniture	6	8	[0, 0, 0]	n/a	catFR1	1	R1310J
82896.011	1.63	1859424	WORD	n/a	wordpools/wordpool_categorized_EN.txt	LILY	Flowers	7	8	[0, 0, 0]	n/a	catFR1	1	R1310J
82897.641	0.902	1861054	WORD_OFF	n/a	n/a	LILY	Flowers	7	8	[0, 0, 0]	n/a	catFR1	1	R1310J
82898.543	1.633	1861956	WORD	n/a	wordpools/wordpool_categorized_EN.txt	ROSE	Flowers	8	8	[0, 0, 0]	n/a	catFR1	1	R1310J
82900.176	1.012	1863589	WORD_OFF	n/a	n/a	ROSE	Flowers	8	8	[0, 0, 0]	n/a	catFR1	1	R1310J
82901.188	1.621	1864601	WORD	n/a	wordpools/wordpool_categorized_EN.txt	PIG	FarmAnimals	9	8	[0, 0, 0]	n/a	catFR1	1	R1310J
82902.809	1.108	1866222	WORD_OFF	n/a	n/a	PIG	FarmAnimals	9	8	[0, 0, 0]	n/a	catFR1	1	R1310J
82903.917	1.626	1867330	WORD	n/a	wordpools/wordpool_categorized_EN.txt	COW	FarmAnimals	10	8	[0, 0, 0]	n/a	catFR1	1	R1310J
82905.543	0.946	1868956	WORD_OFF	n/a	n/a	COW	FarmAnimals	10	8	[0, 0, 0]	n/a	catFR1	1	R1310J
82906.489	1.622	1869902	WORD	n/a	wordpools/wordpool_categorized_EN.txt	SOFA	Furniture	11	8	[0, 0, 0]	n/a	catFR1	1	R1310J
82908.111	0.946	1871524	WORD_OFF	n/a	n/a	SOFA	Furniture	11	8	[0, 0, 0]	n/a	catFR1	1	R1310J
82909.057	1.621	1872470	WORD	n/a	wordpools/wordpool_categorized_EN.txt	CHAIR	Furniture	12	8	[0, 0, 0]	n/a	catFR1	1	R1310J
82910.678	0.0	1874090	WORD_OFF	n/a	n/a	CHAIR	Furniture	12	8	[0, 0, 0]	n/a	catFR1	1	R1310J
82910.678	0.001	1874090	ENCODING_END	n/a	n/a	n/a	n/a	-999	8	[0, 0, 0]	n/a	catFR1	1	R1310J
82910.679	0.0	1874091	DISTRACT_START	n/a	n/a	n/a	n/a	-999	8	[0, 0, 0]	n/a	catFR1	1	R1310J
82910.679	0.015	1874091	START	n/a	n/a	n/a	n/a	-999	8	[-999, -999, -999]	n/a	catFR1	1	R1310J
82910.694	3.75	1874106	PROB	3.75	n/a	n/a	n/a	-999	8	[1, 8, 3]	12	catFR1	1	R1310J
82914.444	4.552	1877856	PROB	4.552	n/a	n/a	n/a	-999	8	[9, 3, 7]	17	catFR1	1	R1310J
82918.996	6.101	1882408	PROB	6.101	n/a	n/a	n/a	-999	8	[2, 1, 9]	12	catFR1	1	R1310J
82925.097	3.634	1888509	PROB	3.634	n/a	n/a	n/a	-999	8	[7, 1, 4]	12	catFR1	1	R1310J
82928.731	3.778	1892143	PROB	3.778	n/a	n/a	n/a	-999	8	[1, 1, 2]	4	catFR1	1	R1310J
82932.509	0.022	1895921	STOP	n/a	n/a	n/a	n/a	-999	8	[-999, -999, -999]	n/a	catFR1	1	R1310J
82932.531	0.663	1895943	DISTRACT_END	n/a	n/a	n/a	n/a	-999	8	[0, 0, 0]	n/a	catFR1	1	R1310J
82933.194	1.721	1896606	RETRIEVAL_ORIENT_START	n/a	n/a	n/a	n/a	-999	8	[0, 0, 0]	n/a	catFR1	1	R1310J
82934.915	0.001	1898326	RETRIEVAL_ORIENT_END	n/a	n/a	n/a	n/a	-999	8	[0, 0, 0]	n/a	catFR1	1	R1310J
82934.916	0.499	1898327	REC_START	n/a	n/a	n/a	n/a	-999	8	[0, 0, 0]	n/a	catFR1	1	R1310J
82935.415	0.51	1898826	REC_WORD_VV	0.51	n/a	<>	n/a	-999	8	[0, 0, 0]	n/a	catFR1	1	R1310J
82935.925	0.715	1899336	REC_WORD	0.715	n/a	TURKEY	FarmAnimals	1	8	[0, 0, 0]	n/a	catFR1	1	R1310J
82936.64	1.0	1900051	REC_WORD	1.0	n/a	HORSE	FarmAnimals	2	8	[0, 0, 0]	n/a	catFR1	1	R1310J
82937.64	1.235	1901051	REC_WORD_VV	1.235	n/a	<>	n/a	-999	8	[0, 0, 0]	n/a	catFR1	1	R1310J
82938.875	0.485	1902286	REC_WORD_VV	0.485	n/a	<>	n/a	-999	8	[0, 0, 0]	n/a	catFR1	1	R1310J
82939.36	2.185	1902771	REC_WORD	2.185	n/a	DAFFODIL	Flowers	3	8	[0, 0, 0]	n/a	catFR1	1	R1310J
82941.545	0.73	1904956	REC_WORD_VV	0.73	n/a	<>	n/a	-999	8	[0, 0, 0]	n/a	catFR1	1	R1310J
82942.275	11.29	1905686	REC_WORD	11.29	n/a	SOFA	Furniture	11	8	[0, 0, 0]	n/a	catFR1	1	R1310J
82953.565	11.359	1916976	REC_WORD	11.359	n/a	BED	Furniture	6	8	[0, 0, 0]	n/a	catFR1	1	R1310J
82964.924	0.001	1928334	REC_END	n/a	n/a	n/a	n/a	-999	8	[0, 0, 0]	n/a	catFR1	1	R1310J
82964.925	0.023	1928335	TRIAL_END	n/a	n/a	n/a	n/a	-999	8	[0, 0, 0]	n/a	catFR1	1	R1310J
82964.948	0.0	1928358	TRIAL	n/a	n/a	n/a	n/a	-999	9	[0, 0, 0]	n/a	catFR1	1	R1310J
82964.948	0.001	1928358	TRIAL_START	n/a	n/a	n/a	n/a	-999	9	[0, 0, 0]	n/a	catFR1	1	R1310J
82964.949	2.588	1928359	WAITING_START	n/a	n/a	n/a	n/a	-999	9	[0, 0, 0]	n/a	catFR1	1	R1310J
82967.537	0.0	1930947	WAITING_END	n/a	n/a	n/a	n/a	-999	9	[0, 0, 0]	n/a	catFR1	1	R1310J
82967.537	10.428	1930947	COUNTDOWN_START	n/a	n/a	n/a	n/a	-999	9	[0, 0, 0]	n/a	catFR1	1	R1310J
82977.965	0.001	1941375	COUNTDOWN_END	n/a	n/a	n/a	n/a	-999	9	[0, 0, 0]	n/a	catFR1	1	R1310J
82977.966	1.157	1941376	ORIENT_START	n/a	n/a	n/a	n/a	-999	9	[0, 0, 0]	n/a	catFR1	1	R1310J
82979.123	0.0	1942533	ORIENT_END	n/a	n/a	n/a	n/a	-999	9	[0, 0, 0]	n/a	catFR1	1	R1310J
82979.123	0.996	1942533	ENCODING_START	n/a	n/a	n/a	n/a	-999	9	[0, 0, 0]	n/a	catFR1	1	R1310J
82980.119	1.638	1943529	WORD	n/a	wordpools/wordpool_categorized_EN.txt	ANT	Insects	1	9	[0, 0, 0]	n/a	catFR1	1	R1310J
82981.757	1.136	1945166	WORD_OFF	n/a	n/a	ANT	Insects	1	9	[0, 0, 0]	n/a	catFR1	1	R1310J
82982.893	1.63	1946302	WORD	n/a	wordpools/wordpool_categorized_EN.txt	GNAT	Insects	2	9	[0, 0, 0]	n/a	catFR1	1	R1310J
82984.523	0.868	1947932	WORD_OFF	n/a	n/a	GNAT	Insects	2	9	[0, 0, 0]	n/a	catFR1	1	R1310J
82985.391	1.633	1948800	WORD	n/a	wordpools/wordpool_categorized_EN.txt	VALLEY	Landscapes	3	9	[0, 0, 0]	n/a	catFR1	1	R1310J
82987.024	0.9	1950433	WORD_OFF	n/a	n/a	VALLEY	Landscapes	3	9	[0, 0, 0]	n/a	catFR1	1	R1310J
82987.924	1.633	1951333	WORD	n/a	wordpools/wordpool_categorized_EN.txt	MOUNTAIN	Landscapes	4	9	[0, 0, 0]	n/a	catFR1	1	R1310J
82989.557	1.112	1952966	WORD_OFF	n/a	n/a	MOUNTAIN	Landscapes	4	9	[0, 0, 0]	n/a	catFR1	1	R1310J
82990.669	1.622	1954078	WORD	n/a	wordpools/wordpool_categorized_EN.txt	CORN	Vegetables	5	9	[0, 0, 0]	n/a	catFR1	1	R1310J
82992.291	1.144	1955700	WORD_OFF	n/a	n/a	CORN	Vegetables	5	9	[0, 0, 0]	n/a	catFR1	1	R1310J
82993.435	1.624	1956844	WORD	n/a	wordpools/wordpool_categorized_EN.txt	ONION	Vegetables	6	9	[0, 0, 0]	n/a	catFR1	1	R1310J
82995.059	0.946	1958468	WORD_OFF	n/a	n/a	ONION	Vegetables	6	9	[0, 0, 0]	n/a	catFR1	1	R1310J
82996.005	1.62	1959414	WORD	n/a	wordpools/wordpool_categorized_EN.txt	RIVER	Landscapes	7	9	[0, 0, 0]	n/a	catFR1	1	R1310J
82997.625	0.98	1961034	WORD_OFF	n/a	n/a	RIVER	Landscapes	7	9	[0, 0, 0]	n/a	catFR1	1	R1310J
82998.605	1.637	1962014	WORD	n/a	wordpools/wordpool_categorized_EN.txt	WOODS	Landscapes	8	9	[0, 0, 0]	n/a	catFR1	1	R1310J
83000.242	1.145	1963651	WORD_OFF	n/a	n/a	WOODS	Landscapes	8	9	[0, 0, 0]	n/a	catFR1	1	R1310J
83001.387	1.64	1964796	WORD	n/a	wordpools/wordpool_categorized_EN.txt	SPINACH	Vegetables	9	9	[0, 0, 0]	n/a	catFR1	1	R1310J
83003.027	1.127	1966436	WORD_OFF	n/a	n/a	SPINACH	Vegetables	9	9	[0, 0, 0]	n/a	catFR1	1	R1310J
83004.154	1.623	1967563	WORD	n/a	wordpools/wordpool_categorized_EN.txt	CARROT	Vegetables	10	9	[0, 0, 0]	n/a	catFR1	1	R1310J
83005.777	1.068	1969185	WORD_OFF	n/a	n/a	CARROT	Vegetables	10	9	[0, 0, 0]	n/a	catFR1	1	R1310J
83006.845	1.632	1970253	WORD	n/a	wordpools/wordpool_categorized_EN.txt	MOSQUITO	Insects	11	9	[0, 0, 0]	n/a	catFR1	1	R1310J
83008.477	0.855	1971885	WORD_OFF	n/a	n/a	MOSQUITO	Insects	11	9	[0, 0, 0]	n/a	catFR1	1	R1310J
83009.332	1.613	1972740	WORD	n/a	wordpools/wordpool_categorized_EN.txt	BEE	Insects	12	9	[0, 0, 0]	n/a	catFR1	1	R1310J
83010.945	0.0	1974353	WORD_OFF	n/a	n/a	BEE	Insects	12	9	[0, 0, 0]	n/a	catFR1	1	R1310J
83010.945	0.0	1974353	ENCODING_END	n/a	n/a	n/a	n/a	-999	9	[0, 0, 0]	n/a	catFR1	1	R1310J
83010.945	0.0	1974353	DISTRACT_START	n/a	n/a	n/a	n/a	-999	9	[0, 0, 0]	n/a	catFR1	1	R1310J
83010.945	0.016	1974353	START	n/a	n/a	n/a	n/a	-999	9	[-999, -999, -999]	n/a	catFR1	1	R1310J
83010.961	3.934	1974369	PROB	3.934	n/a	n/a	n/a	-999	9	[7, 3, 7]	17	catFR1	1	R1310J
83014.895	3.633	1978303	PROB	3.633	n/a	n/a	n/a	-999	9	[8, 8, 4]	20	catFR1	1	R1310J
83018.528	3.418	1981936	PROB	3.418	n/a	n/a	n/a	-999	9	[1, 9, 7]	17	catFR1	1	R1310J
83021.946	7.085	1985354	PROB	7.085	n/a	n/a	n/a	-999	9	[3, 9, 8]	20	catFR1	1	R1310J
83029.031	3.797	1992439	PROB	3.797	n/a	n/a	n/a	-999	9	[9, 7, 4]	20	catFR1	1	R1310J
83032.828	0.02	1996235	STOP	n/a	n/a	n/a	n/a	-999	9	[-999, -999, -999]	n/a	catFR1	1	R1310J
83032.848	0.555	1996255	DISTRACT_END	n/a	n/a	n/a	n/a	-999	9	[0, 0, 0]	n/a	catFR1	1	R1310J
83033.403	1.629	1996810	RETRIEVAL_ORIENT_START	n/a	n/a	n/a	n/a	-999	9	[0, 0, 0]	n/a	catFR1	1	R1310J
83035.032	0.0	1998439	RETRIEVAL_ORIENT_END	n/a	n/a	n/a	n/a	-999	9	[0, 0, 0]	n/a	catFR1	1	R1310J
83035.032	0.0	1998439	REC_START	n/a	n/a	n/a	n/a	-999	9	[0, 0, 0]	n/a	catFR1	1	R1310J
83035.032	0.664	1998439	REC_WORD_VV	0.664	n/a	<>	n/a	-999	9	[0, 0, 0]	n/a	catFR1	1	R1310J
83035.696	0.476	1999103	REC_WORD	0.476	n/a	ANT	Insects	1	9	[0, 0, 0]	n/a	catFR1	1	R1310J
83036.172	0.515	1999579	REC_WORD	0.515	n/a	GNAT	Insects	2	9	[0, 0, 0]	n/a	catFR1	1	R1310J
83036.687	1.245	2000094	REC_WORD	1.245	n/a	MOSQUITO	Insects	11	9	[0, 0, 0]	n/a	catFR1	1	R1310J
83037.932	2.335	2001339	REC_WORD	2.335	n/a	BEE	Insects	12	9	[0, 0, 0]	n/a	catFR1	1	R1310J
83040.267	1.89	2003674	REC_WORD	1.89	n/a	MOUNTAIN	Landscapes	4	9	[0, 0, 0]	n/a	catFR1	1	R1310J
83042.157	3.295	2005564	REC_WORD	3.295	n/a	VALLEY	Landscapes	3	9	[0, 0, 0]	n/a	catFR1	1	R1310J
83045.452	19.59	2008859	REC_WORD_VV	19.59	n/a	<>	n/a	-999	9	[0, 0, 0]	n/a	catFR1	1	R1310J
83065.042	0.001	2028448	REC_END	n/a	n/a	n/a	n/a	-999	9	[0, 0, 0]	n/a	catFR1	1	R1310J
83065.043	0.047	2028449	TRIAL_END	n/a	n/a	n/a	n/a	-999	9	[0, 0, 0]	n/a	catFR1	1	R1310J
83065.09	0.0	2028496	TRIAL_START	n/a	n/a	n/a	n/a	-999	10	[0, 0, 0]	n/a	catFR1	1	R1310J
83065.09	0.001	2028496	TRIAL	n/a	n/a	n/a	n/a	-999	10	[0, 0, 0]	n/a	catFR1	1	R1310J
83065.091	2.179	2028497	WAITING_START	n/a	n/a	n/a	n/a	-999	10	[0, 0, 0]	n/a	catFR1	1	R1310J
83067.27	0.0	2030676	WAITING_END	n/a	n/a	n/a	n/a	-999	10	[0, 0, 0]	n/a	catFR1	1	R1310J
83067.27	10.43	2030676	COUNTDOWN_START	n/a	n/a	n/a	n/a	-999	10	[0, 0, 0]	n/a	catFR1	1	R1310J
83077.7	0.0	2041106	COUNTDOWN_END	n/a	n/a	n/a	n/a	-999	10	[0, 0, 0]	n/a	catFR1	1	R1310J
83077.7	1.156	2041106	ORIENT_START	n/a	n/a	n/a	n/a	-999	10	[0, 0, 0]	n/a	catFR1	1	R1310J
83078.856	0.001	2042261	ORIENT_END	n/a	n/a	n/a	n/a	-999	10	[0, 0, 0]	n/a	catFR1	1	R1310J
83078.857	1.104	2042262	ENCODING_START	n/a	n/a	n/a	n/a	-999	10	[0, 0, 0]	n/a	catFR1	1	R1310J
83079.961	1.628	2043366	WORD	n/a	wordpools/wordpool_categorized_EN.txt	MOUSSE	Desserts	1	10	[0, 0, 0]	n/a	catFR1	1	R1310J
83081.589	0.837	2044994	WORD_OFF	n/a	n/a	MOUSSE	Desserts	1	10	[0, 0, 0]	n/a	catFR1	1	R1310J
83082.426	1.631	2045831	WORD	n/a	wordpools/wordpool_categorized_EN.txt	FUDGE	Desserts	2	10	[0, 0, 0]	n/a	catFR1	1	R1310J
83084.057	0.832	2047462	WORD_OFF	n/a	n/a	FUDGE	Desserts	2	10	[0, 0, 0]	n/a	catFR1	1	R1310J
83084.889	1.634	2048294	WORD	n/a	wordpools/wordpool_categorized_EN.txt	DESK	Furniture	3	10	[0, 0, 0]	n/a	catFR1	1	R1310J
83086.523	1.073	2049928	WORD_OFF	n/a	n/a	DESK	Furniture	3	10	[0, 0, 0]	n/a	catFR1	1	R1310J
83087.596	1.628	2051001	WORD	n/a	wordpools/wordpool_categorized_EN.txt	NIGHTSTAND	Furniture	4	10	[0, 0, 0]	n/a	catFR1	1	R1310J
83089.224	1.035	2052629	WORD_OFF	n/a	n/a	NIGHTSTAND	Furniture	4	10	[0, 0, 0]	n/a	catFR1	1	R1310J
83090.259	1.616	2053664	WORD	n/a	wordpools/wordpool_categorized_EN.txt	TRUMPET	Instruments	5	10	[0, 0, 0]	n/a	catFR1	1	R1310J
83091.875	0.879	2055280	WORD_OFF	n/a	n/a	TRUMPET	Instruments	5	10	[0, 0, 0]	n/a	catFR1	1	R1310J
83092.754	1.637	2056159	WORD	n/a	wordpools/wordpool_categorized_EN.txt	FLUTE	Instruments	6	10	[0, 0, 0]	n/a	catFR1	1	R1310J
83094.391	1.065	2057796	WORD_OFF	n/a	n/a	FLUTE	Instruments	6	10	[0, 0, 0]	n/a	catFR1	1	R1310J
83095.456	1.637	2058861	WORD	n/a	wordpools/wordpool_categorized_EN.txt	RECLINER	Furniture	7	10	[0, 0, 0]	n/a	catFR1	1	R1310J
83097.093	1.066	2060498	WORD_OFF	n/a	n/a	RECLINER	Furniture	7	10	[0, 0, 0]	n/a	catFR1	1	R1310J
83098.159	1.634	2061564	WORD	n/a	wordpools/wordpool_categorized_EN.txt	SHELF	Furniture	8	10	[0, 0, 0]	n/a	catFR1	1	R1310J
83099.793	0.81	2063198	WORD_OFF	n/a	n/a	SHELF	Furniture	8	10	[0, 0, 0]	n/a	catFR1	1	R1310J
83100.603	1.623	2064008	WORD	n/a	wordpools/wordpool_categorized_EN.txt	BANJO	Instruments	9	10	[0, 0, 0]	n/a	catFR1	1	R1310J
83102.226	1.133	2065630	WORD_OFF	n/a	n/a	BANJO	Instruments	9	10	[0, 0, 0]	n/a	catFR1	1	R1310J
83103.359	1.635	2066763	WORD	n/a	wordpools/wordpool_categorized_EN.txt	BASS	Instruments	10	10	[0, 0, 0]	n/a	catFR1	1	R1310J
83104.994	1.132	2068398	WORD_OFF	n/a	n/a	BASS	Instruments	10	10	[0, 0, 0]	n/a	catFR1	1	R1310J
83106.126	1.635	2069530	WORD	n/a	wordpools/wordpool_categorized_EN.txt	COOKIE	Desserts	11	10	[0, 0, 0]	n/a	catFR1	1	R1310J
83107.761	0.989	2071165	WORD_OFF	n/a	n/a	COOKIE	Desserts	11	10	[0, 0, 0]	n/a	catFR1	1	R1310J
83108.75	1.627	2072154	WORD	n/a	wordpools/wordpool_categorized_EN.txt	CUPCAKE	Desserts	12	10	[0, 0, 0]	n/a	catFR1	1	R1310J
83110.377	0.001	2073781	WORD_OFF	n/a	n/a	CUPCAKE	Desserts	12	10	[0, 0, 0]	n/a	catFR1	1	R1310J
83110.378	0.0	2073782	ENCODING_END	n/a	n/a	n/a	n/a	-999	10	[0, 0, 0]	n/a	catFR1	1	R1310J
83110.378	0.0	2073782	DISTRACT_START	n/a	n/a	n/a	n/a	-999	10	[0, 0, 0]	n/a	catFR1	1	R1310J
83110.378	0.016	2073782	START	n/a	n/a	n/a	n/a	-999	10	[-999, -999, -999]	n/a	catFR1	1	R1310J
83110.394	3.668	2073798	PROB	3.668	n/a	n/a	n/a	-999	10	[1, 6, 8]	15	catFR1	1	R1310J
83114.062	3.166	2077466	PROB	3.166	n/a	n/a	n/a	-999	10	[6, 4, 5]	15	catFR1	1	R1310J
83117.228	5.351	2080632	PROB	5.351	n/a	n/a	n/a	-999	10	[9, 8, 8]	25	catFR1	1	R1310J
83122.579	3.585	2085983	PROB	3.585	n/a	n/a	n/a	-999	10	[7, 7, 5]	19	catFR1	1	R1310J
83126.164	3.017	2089568	PROB	3.017	n/a	n/a	n/a	-999	10	[2, 3, 6]	11	catFR1	1	R1310J
83129.181	4.028	2092584	PROB	4.028	n/a	n/a	n/a	-999	10	[5, 4, 3]	12	catFR1	1	R1310J
83133.209	0.005	2096612	STOP	n/a	n/a	n/a	n/a	-999	10	[-999, -999, -999]	n/a	catFR1	1	R1310J
83133.214	0.701	2096617	DISTRACT_END	n/a	n/a	n/a	n/a	-999	10	[0, 0, 0]	n/a	catFR1	1	R1310J
83133.915	1.7	2097318	RETRIEVAL_ORIENT_START	n/a	n/a	n/a	n/a	-999	10	[0, 0, 0]	n/a	catFR1	1	R1310J
83135.615	0.0	2099018	RETRIEVAL_ORIENT_END	n/a	n/a	n/a	n/a	-999	10	[0, 0, 0]	n/a	catFR1	1	R1310J
83135.615	0.689	2099018	REC_START	n/a	n/a	n/a	n/a	-999	10	[0, 0, 0]	n/a	catFR1	1	R1310J
83136.304	0.495	2099707	REC_WORD_VV	0.495	n/a	<>	n/a	-999	10	[0, 0, 0]	n/a	catFR1	1	R1310J
83136.799	0.795	2100202	REC_WORD	0.795	n/a	COOKIE	Desserts	11	10	[0, 0, 0]	n/a	catFR1	1	R1310J
83137.594	1.625	2100997	REC_WORD	1.625	n/a	CUPCAKE	Desserts	12	10	[0, 0, 0]	n/a	catFR1	1	R1310J
83139.219	0.925	2102622	REC_WORD	0.925	n/a	MOUSSE	Desserts	1	10	[0, 0, 0]	n/a	catFR1	1	R1310J
83140.144	1.805	2103547	REC_WORD	1.805	n/a	FUDGE	Desserts	2	10	[0, 0, 0]	n/a	catFR1	1	R1310J
83141.949	1.0	2105352	REC_WORD	1.0	n/a	NIGHTSTAND	Furniture	4	10	[0, 0, 0]	n/a	catFR1	1	R1310J
83142.949	0.851	2106352	REC_WORD_VV	0.851	n/a	<>	n/a	-999	10	[0, 0, 0]	n/a	catFR1	1	R1310J
83143.8	21.825	2107203	REC_WORD	21.825	n/a	RECLINER	Furniture	7	10	[0, 0, 0]	n/a	catFR1	1	R1310J
83165.625	0.001	2129027	REC_END	n/a	n/a	n/a	n/a	-999	10	[0, 0, 0]	n/a	catFR1	1	R1310J
83165.626	0.02	2129028	TRIAL_END	n/a	n/a	n/a	n/a	-999	10	[0, 0, 0]	n/a	catFR1	1	R1310J
83165.646	0.0	2129048	TRIAL_START	n/a	n/a	n/a	n/a	-999	11	[0, 0, 0]	n/a	catFR1	1	R1310J
83165.646	0.0	2129048	TRIAL	n/a	n/a	n/a	n/a	-999	11	[0, 0, 0]	n/a	catFR1	1	R1310J
83165.646	2.159	2129048	WAITING_START	n/a	n/a	n/a	n/a	-999	11	[0, 0, 0]	n/a	catFR1	1	R1310J
83167.805	0.0	2131207	COUNTDOWN_START	n/a	n/a	n/a	n/a	-999	11	[0, 0, 0]	n/a	catFR1	1	R1310J
83167.805	10.428	2131207	WAITING_END	n/a	n/a	n/a	n/a	-999	11	[0, 0, 0]	n/a	catFR1	1	R1310J
83178.233	0.001	2141634	COUNTDOWN_END	n/a	n/a	n/a	n/a	-999	11	[0, 0, 0]	n/a	catFR1	1	R1310J
83178.234	1.172	2141635	ORIENT_START	n/a	n/a	n/a	n/a	-999	11	[0, 0, 0]	n/a	catFR1	1	R1310J
83179.406	0.0	2142807	ORIENT_END	n/a	n/a	n/a	n/a	-999	11	[0, 0, 0]	n/a	catFR1	1	R1310J
83179.406	0.886	2142807	ENCODING_START	n/a	n/a	n/a	n/a	-999	11	[0, 0, 0]	n/a	catFR1	1	R1310J
83180.292	1.632	2143693	WORD	n/a	wordpools/wordpool_categorized_EN.txt	DRESS	Clothing	1	11	[0, 0, 0]	n/a	catFR1	1	R1310J
83181.924	1.085	2145325	WORD_OFF	n/a	n/a	DRESS	Clothing	1	11	[0, 0, 0]	n/a	catFR1	1	R1310J
83183.009	1.631	2146410	WORD	n/a	wordpools/wordpool_categorized_EN.txt	PANTS	Clothing	2	11	[0, 0, 0]	n/a	catFR1	1	R1310J
83184.64	0.991	2148041	WORD_OFF	n/a	n/a	PANTS	Clothing	2	11	[0, 0, 0]	n/a	catFR1	1	R1310J
83185.631	1.626	2149032	WORD	n/a	wordpools/wordpool_categorized_EN.txt	CORKSCREW	KitchenTools	3	11	[0, 0, 0]	n/a	catFR1	1	R1310J
83187.257	1.105	2150658	WORD_OFF	n/a	n/a	CORKSCREW	KitchenTools	3	11	[0, 0, 0]	n/a	catFR1	1	R1310J
83188.362	1.63	2151763	WORD	n/a	wordpools/wordpool_categorized_EN.txt	PEELER	KitchenTools	4	11	[0, 0, 0]	n/a	catFR1	1	R1310J
83189.992	1.117	2153393	WORD_OFF	n/a	n/a	PEELER	KitchenTools	4	11	[0, 0, 0]	n/a	catFR1	1	R1310J
83191.109	1.633	2154510	WORD	n/a	wordpools/wordpool_categorized_EN.txt	ELEPHANT	Zoo	5	11	[0, 0, 0]	n/a	catFR1	1	R1310J
83192.742	0.934	2156143	WORD_OFF	n/a	n/a	ELEPHANT	Zoo	5	11	[0, 0, 0]	n/a	catFR1	1	R1310J
83193.676	1.632	2157077	WORD	n/a	wordpools/wordpool_categorized_EN.txt	CHIMPANZEE	Zoo	6	11	[0, 0, 0]	n/a	catFR1	1	R1310J
83195.308	1.148	2158709	WORD_OFF	n/a	n/a	CHIMPANZEE	Zoo	6	11	[0, 0, 0]	n/a	catFR1	1	R1310J
83196.456	1.637	2159857	WORD	n/a	wordpools/wordpool_categorized_EN.txt	FORK	KitchenTools	7	11	[0, 0, 0]	n/a	catFR1	1	R1310J
83198.093	0.862	2161494	WORD_OFF	n/a	n/a	FORK	KitchenTools	7	11	[0, 0, 0]	n/a	catFR1	1	R1310J
83198.955	1.621	2162355	WORD	n/a	wordpools/wordpool_categorized_EN.txt	KNIFE	KitchenTools	8	11	[0, 0, 0]	n/a	catFR1	1	R1310J
83200.576	1.047	2163976	WORD_OFF	n/a	n/a	KNIFE	KitchenTools	8	11	[0, 0, 0]	n/a	catFR1	1	R1310J
83201.623	1.637	2165023	WORD	n/a	wordpools/wordpool_categorized_EN.txt	JACKET	Clothing	9	11	[0, 0, 0]	n/a	catFR1	1	R1310J
83203.26	0.88	2166660	WORD_OFF	n/a	n/a	JACKET	Clothing	9	11	[0, 0, 0]	n/a	catFR1	1	R1310J
83204.14	1.621	2167540	WORD	n/a	wordpools/wordpool_categorized_EN.txt	SKIRT	Clothing	10	11	[0, 0, 0]	n/a	catFR1	1	R1310J
83205.761	0.811	2169161	WORD_OFF	n/a	n/a	SKIRT	Clothing	10	11	[0, 0, 0]	n/a	catFR1	1	R1310J
83206.572	1.623	2169972	WORD	n/a	wordpools/wordpool_categorized_EN.txt	GORILLA	Zoo	11	11	[0, 0, 0]	n/a	catFR1	1	R1310J
83208.195	1.09	2171595	WORD_OFF	n/a	n/a	GORILLA	Zoo	11	11	[0, 0, 0]	n/a	catFR1	1	R1310J
83209.285	1.61	2172685	WORD	n/a	wordpools/wordpool_categorized_EN.txt	ZEBRA	Zoo	12	11	[0, 0, 0]	n/a	catFR1	1	R1310J
83210.895	0.0	2174295	ENCODING_END	n/a	n/a	n/a	n/a	-999	11	[0, 0, 0]	n/a	catFR1	1	R1310J
83210.895	0.001	2174295	WORD_OFF	n/a	n/a	ZEBRA	Zoo	12	11	[0, 0, 0]	n/a	catFR1	1	R1310J
83210.896	0.0	2174296	DISTRACT_START	n/a	n/a	n/a	n/a	-999	11	[0, 0, 0]	n/a	catFR1	1	R1310J
83210.896	0.016	2174296	START	n/a	n/a	n/a	n/a	-999	11	[-999, -999, -999]	n/a	catFR1	1	R1310J
83210.912	4.449	2174312	PROB	4.449	n/a	n/a	n/a	-999	11	[6, 6, 3]	15	catFR1	1	R1310J
83215.361	4.436	2178761	PROB	4.436	n/a	n/a	n/a	-999	11	[8, 1, 8]	17	catFR1	1	R1310J
83219.797	4.284	2183197	PROB	4.284	n/a	n/a	n/a	-999	11	[2, 7, 6]	15	catFR1	1	R1310J
83224.081	4.349	2187480	PROB	4.349	n/a	n/a	n/a	-999	11	[5, 2, 4]	11	catFR1	1	R1310J
83228.43	3.811	2191829	PROB	3.811	n/a	n/a	n/a	-999	11	[9, 9, 1]	19	catFR1	1	R1310J
83232.241	0.007	2195640	STOP	n/a	n/a	n/a	n/a	-999	11	[-999, -999, -999]	n/a	catFR1	1	R1310J
83232.248	0.538	2195647	DISTRACT_END	n/a	n/a	n/a	n/a	-999	11	[0, 0, 0]	n/a	catFR1	1	R1310J
83232.786	1.712	2196185	RETRIEVAL_ORIENT_START	n/a	n/a	n/a	n/a	-999	11	[0, 0, 0]	n/a	catFR1	1	R1310J
83234.498	0.001	2197897	RETRIEVAL_ORIENT_END	n/a	n/a	n/a	n/a	-999	11	[0, 0, 0]	n/a	catFR1	1	R1310J
83234.499	2.254	2197898	REC_START	n/a	n/a	n/a	n/a	-999	11	[0, 0, 0]	n/a	catFR1	1	R1310J
83236.753	1.08	2200152	REC_WORD_VV	1.08	n/a	<>	n/a	-999	11	[0, 0, 0]	n/a	catFR1	1	R1310J
83237.833	1.205	2201232	REC_WORD	1.205	n/a	DRESS	Clothing	1	11	[0, 0, 0]	n/a	catFR1	1	R1310J
83239.038	2.161	2202437	REC_WORD	2.161	n/a	GORILLA	Zoo	11	11	[0, 0, 0]	n/a	catFR1	1	R1310J
83241.199	2.169	2204598	REC_WORD_VV	2.169	n/a	<>	n/a	-999	11	[0, 0, 0]	n/a	catFR1	1	R1310J
83243.368	1.665	2206767	REC_WORD	1.665	n/a	CORKSCREW	KitchenTools	3	11	[0, 0, 0]	n/a	catFR1	1	R1310J
83245.033	19.475	2208432	REC_WORD	19.475	n/a	PEELER	KitchenTools	4	11	[0, 0, 0]	n/a	catFR1	1	R1310J
83264.508	0.001	2227906	REC_END	n/a	n/a	n/a	n/a	-999	11	[0, 0, 0]	n/a	catFR1	1	R1310J
83264.509	0.02	2227907	TRIAL_END	n/a	n/a	n/a	n/a	-999	11	[0, 0, 0]	n/a	catFR1	1	R1310J
83264.529	0.0	2227927	TRIAL_START	n/a	n/a	n/a	n/a	-999	12	[0, 0, 0]	n/a	catFR1	1	R1310J
83264.529	0.0	2227927	TRIAL	n/a	n/a	n/a	n/a	-999	12	[0, 0, 0]	n/a	catFR1	1	R1310J
83264.529	2.159	2227927	WAITING_START	n/a	n/a	n/a	n/a	-999	12	[0, 0, 0]	n/a	catFR1	1	R1310J
83266.688	0.0	2230086	WAITING_END	n/a	n/a	n/a	n/a	-999	12	[0, 0, 0]	n/a	catFR1	1	R1310J
83266.688	10.43	2230086	COUNTDOWN_START	n/a	n/a	n/a	n/a	-999	12	[0, 0, 0]	n/a	catFR1	1	R1310J
83277.118	0.0	2240515	ORIENT_START	n/a	n/a	n/a	n/a	-999	12	[0, 0, 0]	n/a	catFR1	1	R1310J
83277.118	1.088	2240515	COUNTDOWN_END	n/a	n/a	n/a	n/a	-999	12	[0, 0, 0]	n/a	catFR1	1	R1310J
83278.206	0.0	2241603	ORIENT_END	n/a	n/a	n/a	n/a	-999	12	[0, 0, 0]	n/a	catFR1	1	R1310J
83278.206	0.77	2241603	ENCODING_START	n/a	n/a	n/a	n/a	-999	12	[0, 0, 0]	n/a	catFR1	1	R1310J
83278.976	1.63	2242373	WORD	n/a	wordpools/wordpool_categorized_EN.txt	COBBLER	Desserts	1	12	[0, 0, 0]	n/a	catFR1	1	R1310J
83280.606	0.83	2244003	WORD_OFF	n/a	n/a	COBBLER	Desserts	1	12	[0, 0, 0]	n/a	catFR1	1	R1310J
83281.436	1.621	2244833	WORD	n/a	wordpools/wordpool_categorized_EN.txt	PUDDING	Desserts	2	12	[0, 0, 0]	n/a	catFR1	1	R1310J
83283.057	0.772	2246454	WORD_OFF	n/a	n/a	PUDDING	Desserts	2	12	[0, 0, 0]	n/a	catFR1	1	R1310J
83283.829	1.628	2247226	WORD	n/a	wordpools/wordpool_categorized_EN.txt	OCTOPUS	OceanAnimals	3	12	[0, 0, 0]	n/a	catFR1	1	R1310J
83285.457	0.783	2248854	WORD_OFF	n/a	n/a	OCTOPUS	OceanAnimals	3	12	[0, 0, 0]	n/a	catFR1	1	R1310J
83286.24	1.618	2249637	WORD	n/a	wordpools/wordpool_categorized_EN.txt	CRAB	OceanAnimals	4	12	[0, 0, 0]	n/a	catFR1	1	R1310J
83287.858	0.838	2251255	WORD_OFF	n/a	n/a	CRAB	OceanAnimals	4	12	[0, 0, 0]	n/a	catFR1	1	R1310J
83288.696	1.628	2252093	WORD	n/a	wordpools/wordpool_categorized_EN.txt	PAPER	OfficeSupplies	5	12	[0, 0, 0]	n/a	catFR1	1	R1310J
83290.324	1.149	2253721	WORD_OFF	n/a	n/a	PAPER	OfficeSupplies	5	12	[0, 0, 0]	n/a	catFR1	1	R1310J
83291.473	1.636	2254870	WORD	n/a	wordpools/wordpool_categorized_EN.txt	RULER	OfficeSupplies	6	12	[0, 0, 0]	n/a	catFR1	1	R1310J
83293.109	0.849	2256506	WORD_OFF	n/a	n/a	RULER	OfficeSupplies	6	12	[0, 0, 0]	n/a	catFR1	1	R1310J
83293.958	1.634	2257355	WORD	n/a	wordpools/wordpool_categorized_EN.txt	OYSTER	OceanAnimals	7	12	[0, 0, 0]	n/a	catFR1	1	R1310J
83295.592	1.141	2258988	WORD_OFF	n/a	n/a	OYSTER	OceanAnimals	7	12	[0, 0, 0]	n/a	catFR1	1	R1310J
83296.733	1.626	2260129	WORD	n/a	wordpools/wordpool_categorized_EN.txt	LOBSTER	OceanAnimals	8	12	[0, 0, 0]	n/a	catFR1	1	R1310J
83298.359	0.873	2261755	WORD_OFF	n/a	n/a	LOBSTER	OceanAnimals	8	12	[0, 0, 0]	n/a	catFR1	1	R1310J
83299.232	1.612	2262628	WORD	n/a	wordpools/wordpool_categorized_EN.txt	CAKE	Desserts	9	12	[0, 0, 0]	n/a	catFR1	1	R1310J
83300.844	1.058	2264240	WORD_OFF	n/a	n/a	CAKE	Desserts	9	12	[0, 0, 0]	n/a	catFR1	1	R1310J
83301.902	1.625	2265298	WORD	n/a	wordpools/wordpool_categorized_EN.txt	PASTRY	Desserts	10	12	[0, 0, 0]	n/a	catFR1	1	R1310J
83303.527	0.868	2266923	WORD_OFF	n/a	n/a	PASTRY	Desserts	10	12	[0, 0, 0]	n/a	catFR1	1	R1310J
83304.395	1.633	2267791	WORD	n/a	wordpools/wordpool_categorized_EN.txt	PEN	OfficeSupplies	11	12	[0, 0, 0]	n/a	catFR1	1	R1310J
83306.028	1.132	2269424	WORD_OFF	n/a	n/a	PEN	OfficeSupplies	11	12	[0, 0, 0]	n/a	catFR1	1	R1310J
83307.16	1.635	2270556	WORD	n/a	wordpools/wordpool_categorized_EN.txt	NOTEBOOK	OfficeSupplies	12	12	[0, 0, 0]	n/a	catFR1	1	R1310J
83308.795	0.001	2272191	WORD_OFF	n/a	n/a	NOTEBOOK	OfficeSupplies	12	12	[0, 0, 0]	n/a	catFR1	1	R1310J
83308.796	0.0	2272192	ENCODING_END	n/a	n/a	n/a	n/a	-999	12	[0, 0, 0]	n/a	catFR1	1	R1310J
83308.796	0.0	2272192	DISTRACT_START	n/a	n/a	n/a	n/a	-999	12	[0, 0, 0]	n/a	catFR1	1	R1310J
83308.796	0.016	2272192	START	n/a	n/a	n/a	n/a	-999	12	[-999, -999, -999]	n/a	catFR1	1	R1310J
83308.812	3.117	2272208	PROB	3.117	n/a	n/a	n/a	-999	12	[6, 5, 9]	20	catFR1	1	R1310J
83311.929	4.483	2275325	PROB	4.483	n/a	n/a	n/a	-999	12	[7, 2, 5]	14	catFR1	1	R1310J
83316.412	5.452	2279808	PROB	5.452	n/a	n/a	n/a	-999	12	[5, 8, 6]	19	catFR1	1	R1310J
83321.864	6.617	2285259	PROB	6.617	n/a	n/a	n/a	-999	12	[3, 6, 8]	17	catFR1	1	R1310J
83328.481	3.309	2291876	PROB	3.309	n/a	n/a	n/a	-999	12	[2, 1, 7]	10	catFR1	1	R1310J
83331.79	0.009	2295185	STOP	n/a	n/a	n/a	n/a	-999	12	[-999, -999, -999]	n/a	catFR1	1	R1310J
83331.799	0.625	2295194	DISTRACT_END	n/a	n/a	n/a	n/a	-999	12	[0, 0, 0]	n/a	catFR1	1	R1310J
83332.424	1.642	2295819	RETRIEVAL_ORIENT_START	n/a	n/a	n/a	n/a	-999	12	[0, 0, 0]	n/a	catFR1	1	R1310J
83334.066	0.0	2297461	RETRIEVAL_ORIENT_END	n/a	n/a	n/a	n/a	-999	12	[0, 0, 0]	n/a	catFR1	1	R1310J
83334.066	0.0	2297461	REC_START	n/a	n/a	n/a	n/a	-999	12	[0, 0, 0]	n/a	catFR1	1	R1310J
83334.066	0.765	2297461	REC_WORD_VV	0.765	n/a	<>	n/a	-999	12	[0, 0, 0]	n/a	catFR1	1	R1310J
83334.831	1.144	2298226	REC_WORD	1.144	n/a	COBBLER	Desserts	1	12	[0, 0, 0]	n/a	catFR1	1	R1310J
83335.975	1.0	2299370	REC_WORD	1.0	n/a	OCTOPUS	OceanAnimals	3	12	[0, 0, 0]	n/a	catFR1	1	R1310J
83336.975	0.296	2300370	REC_WORD_VV	0.296	n/a	<>	n/a	-999	12	[0, 0, 0]	n/a	catFR1	1	R1310J
83337.271	5.149	2300666	REC_WORD	5.149	n/a	LOBSTER	OceanAnimals	8	12	[0, 0, 0]	n/a	catFR1	1	R1310J
83342.42	0.44	2305815	REC_WORD	0.44	n/a	PEN	OfficeSupplies	11	12	[0, 0, 0]	n/a	catFR1	1	R1310J
83342.86	21.216	2306255	REC_WORD	21.216	n/a	NOTEBOOK	OfficeSupplies	12	12	[0, 0, 0]	n/a	catFR1	1	R1310J
83364.076	0.0	2327470	REC_END	n/a	n/a	n/a	n/a	-999	12	[0, 0, 0]	n/a	catFR1	1	R1310J
83364.076	0.02	2327470	TRIAL_END	n/a	n/a	n/a	n/a	-999	12	[0, 0, 0]	n/a	catFR1	1	R1310J
83364.096	0.001	2327490	TRIAL_START	n/a	n/a	n/a	n/a	-999	13	[0, 0, 0]	n/a	catFR1	1	R1310J
83364.097	0.0	2327491	TRIAL	n/a	n/a	n/a	n/a	-999	13	[0, 0, 0]	n/a	catFR1	1	R1310J
83364.097	2.307	2327491	WAITING_START	n/a	n/a	n/a	n/a	-999	13	[0, 0, 0]	n/a	catFR1	1	R1310J
83366.404	0.001	2329798	WAITING_END	n/a	n/a	n/a	n/a	-999	13	[0, 0, 0]	n/a	catFR1	1	R1310J
83366.405	10.429	2329799	COUNTDOWN_START	n/a	n/a	n/a	n/a	-999	13	[0, 0, 0]	n/a	catFR1	1	R1310J
83376.834	0.0	2340227	COUNTDOWN_END	n/a	n/a	n/a	n/a	-999	13	[0, 0, 0]	n/a	catFR1	1	R1310J
83376.834	1.123	2340227	ORIENT_START	n/a	n/a	n/a	n/a	-999	13	[0, 0, 0]	n/a	catFR1	1	R1310J
83377.957	0.0	2341350	ENCODING_START	n/a	n/a	n/a	n/a	-999	13	[0, 0, 0]	n/a	catFR1	1	R1310J
83377.957	0.826	2341350	ORIENT_END	n/a	n/a	n/a	n/a	-999	13	[0, 0, 0]	n/a	catFR1	1	R1310J
83378.783	1.623	2342176	WORD	n/a	wordpools/wordpool_categorized_EN.txt	SHEEP	FarmAnimals	1	13	[0, 0, 0]	n/a	catFR1	1	R1310J
83380.406	0.782	2343799	WORD_OFF	n/a	n/a	SHEEP	FarmAnimals	1	13	[0, 0, 0]	n/a	catFR1	1	R1310J
83381.188	1.62	2344581	WORD	n/a	wordpools/wordpool_categorized_EN.txt	CHICKEN	FarmAnimals	2	13	[0, 0, 0]	n/a	catFR1	1	R1310J
83382.808	0.797	2346201	WORD_OFF	n/a	n/a	CHICKEN	FarmAnimals	2	13	[0, 0, 0]	n/a	catFR1	1	R1310J
83383.605	1.635	2346998	WORD	n/a	wordpools/wordpool_categorized_EN.txt	SQUID	OceanAnimals	3	13	[0, 0, 0]	n/a	catFR1	1	R1310J
83385.24	0.99	2348633	WORD_OFF	n/a	n/a	SQUID	OceanAnimals	3	13	[0, 0, 0]	n/a	catFR1	1	R1310J
83386.23	1.612	2349623	WORD	n/a	wordpools/wordpool_categorized_EN.txt	SHRIMP	OceanAnimals	4	13	[0, 0, 0]	n/a	catFR1	1	R1310J
83387.842	1.023	2351235	WORD_OFF	n/a	n/a	SHRIMP	OceanAnimals	4	13	[0, 0, 0]	n/a	catFR1	1	R1310J
83388.865	1.627	2352258	WORD	n/a	wordpools/wordpool_categorized_EN.txt	CROWBAR	Tools	5	13	[0, 0, 0]	n/a	catFR1	1	R1310J
83390.492	0.974	2353885	WORD_OFF	n/a	n/a	CROWBAR	Tools	5	13	[0, 0, 0]	n/a	catFR1	1	R1310J
83391.466	1.627	2354859	WORD	n/a	wordpools/wordpool_categorized_EN.txt	DRILL	Tools	6	13	[0, 0, 0]	n/a	catFR1	1	R1310J
83393.093	1.049	2356485	WORD_OFF	n/a	n/a	DRILL	Tools	6	13	[0, 0, 0]	n/a	catFR1	1	R1310J
83394.142	1.635	2357534	WORD	n/a	wordpools/wordpool_categorized_EN.txt	JELLYFISH	OceanAnimals	7	13	[0, 0, 0]	n/a	catFR1	1	R1310J
83395.777	0.936	2359169	WORD_OFF	n/a	n/a	JELLYFISH	OceanAnimals	7	13	[0, 0, 0]	n/a	catFR1	1	R1310J
83396.713	1.63	2360105	WORD	n/a	wordpools/wordpool_categorized_EN.txt	WHALE	OceanAnimals	8	13	[0, 0, 0]	n/a	catFR1	1	R1310J
83398.343	0.758	2361735	WORD_OFF	n/a	n/a	WHALE	OceanAnimals	8	13	[0, 0, 0]	n/a	catFR1	1	R1310J
83399.101	1.627	2362493	WORD	n/a	wordpools/wordpool_categorized_EN.txt	CALF	FarmAnimals	9	13	[0, 0, 0]	n/a	catFR1	1	R1310J
83400.728	1.058	2364120	WORD_OFF	n/a	n/a	CALF	FarmAnimals	9	13	[0, 0, 0]	n/a	catFR1	1	R1310J
83401.786	1.624	2365178	WORD	n/a	wordpools/wordpool_categorized_EN.txt	BULL	FarmAnimals	10	13	[0, 0, 0]	n/a	catFR1	1	R1310J
83403.41	0.845	2366802	WORD_OFF	n/a	n/a	BULL	FarmAnimals	10	13	[0, 0, 0]	n/a	catFR1	1	R1310J
83404.255	1.607	2367647	WORD	n/a	wordpools/wordpool_categorized_EN.txt	RATCHET	Tools	11	13	[0, 0, 0]	n/a	catFR1	1	R1310J
83405.862	0.79	2369254	WORD_OFF	n/a	n/a	RATCHET	Tools	11	13	[0, 0, 0]	n/a	catFR1	1	R1310J
83406.652	1.626	2370044	WORD	n/a	wordpools/wordpool_categorized_EN.txt	SCREWDRIVER	Tools	12	13	[0, 0, 0]	n/a	catFR1	1	R1310J
83408.278	0.0	2371670	WORD_OFF	n/a	n/a	SCREWDRIVER	Tools	12	13	[0, 0, 0]	n/a	catFR1	1	R1310J
83408.278	0.0	2371670	ENCODING_END	n/a	n/a	n/a	n/a	-999	13	[0, 0, 0]	n/a	catFR1	1	R1310J
83408.278	0.0	2371670	DISTRACT_START	n/a	n/a	n/a	n/a	-999	13	[0, 0, 0]	n/a	catFR1	1	R1310J
83408.278	0.016	2371670	START	n/a	n/a	n/a	n/a	-999	13	[-999, -999, -999]	n/a	catFR1	1	R1310J
83408.294	4.552	2371686	PROB	4.552	n/a	n/a	n/a	-999	13	[3, 5, 9]	17	catFR1	1	R1310J
83412.846	4.051	2376238	PROB	4.051	n/a	n/a	n/a	-999	13	[6, 9, 2]	17	catFR1	1	R1310J
83416.897	2.616	2380288	PROB	2.616	n/a	n/a	n/a	-999	13	[7, 3, 1]	11	catFR1	1	R1310J
83419.513	3.418	2382904	PROB	3.418	n/a	n/a	n/a	-999	13	[5, 4, 1]	10	catFR1	1	R1310J
83422.931	3.333	2386322	PROB	3.333	n/a	n/a	n/a	-999	13	[5, 4, 2]	11	catFR1	1	R1310J
83426.264	2.869	2389655	PROB	2.869	n/a	n/a	n/a	-999	13	[3, 5, 3]	11	catFR1	1	R1310J
83429.133	0.016	2392524	STOP	n/a	n/a	n/a	n/a	-999	13	[-999, -999, -999]	n/a	catFR1	1	R1310J
83429.149	0.695	2392540	DISTRACT_END	n/a	n/a	n/a	n/a	-999	13	[0, 0, 0]	n/a	catFR1	1	R1310J
83429.844	1.571	2393235	RETRIEVAL_ORIENT_START	n/a	n/a	n/a	n/a	-999	13	[0, 0, 0]	n/a	catFR1	1	R1310J
83431.415	0.0	2394806	REC_START	n/a	n/a	n/a	n/a	-999	13	[0, 0, 0]	n/a	catFR1	1	R1310J
83431.415	0.975	2394806	RETRIEVAL_ORIENT_END	n/a	n/a	n/a	n/a	-999	13	[0, 0, 0]	n/a	catFR1	1	R1310J
83432.39	0.365	2395781	REC_WORD_VV	0.365	n/a	<>	n/a	-999	13	[0, 0, 0]	n/a	catFR1	1	R1310J
83432.755	0.895	2396146	REC_WORD	0.895	n/a	SHEEP	FarmAnimals	1	13	[0, 0, 0]	n/a	catFR1	1	R1310J
83433.65	0.505	2397041	REC_WORD	0.505	n/a	CALF	FarmAnimals	9	13	[0, 0, 0]	n/a	catFR1	1	R1310J
83434.155	2.905	2397546	REC_WORD	2.905	n/a	SCREWDRIVER	Tools	12	13	[0, 0, 0]	n/a	catFR1	1	R1310J
83437.06	2.195	2400451	REC_WORD_VV	2.195	n/a	<>	n/a	-999	13	[0, 0, 0]	n/a	catFR1	1	R1310J
83439.255	2.065	2402646	REC_WORD_VV	2.065	n/a	<>	n/a	-999	13	[0, 0, 0]	n/a	catFR1	1	R1310J
83441.32	4.96	2404710	REC_WORD	4.96	n/a	SQUID	OceanAnimals	3	13	[0, 0, 0]	n/a	catFR1	1	R1310J
83446.28	15.146	2409670	REC_WORD	15.146	n/a	BULL	FarmAnimals	10	13	[0, 0, 0]	n/a	catFR1	1	R1310J
83461.426	0.0	2424816	TRIAL_END	n/a	n/a	n/a	n/a	-999	13	[0, 0, 0]	n/a	catFR1	1	R1310J
83461.426	0.023	2424816	REC_END	n/a	n/a	n/a	n/a	-999	13	[0, 0, 0]	n/a	catFR1	1	R1310J
83461.449	0.0	2424839	TRIAL_START	n/a	n/a	n/a	n/a	-999	14	[0, 0, 0]	n/a	catFR1	1	R1310J
83461.449	0.0	2424839	TRIAL	n/a	n/a	n/a	n/a	-999	14	[0, 0, 0]	n/a	catFR1	1	R1310J
83461.449	2.038	2424839	WAITING_START	n/a	n/a	n/a	n/a	-999	14	[0, 0, 0]	n/a	catFR1	1	R1310J
83463.487	0.001	2426877	WAITING_END	n/a	n/a	n/a	n/a	-999	14	[0, 0, 0]	n/a	catFR1	1	R1310J
83463.488	10.429	2426878	COUNTDOWN_START	n/a	n/a	n/a	n/a	-999	14	[0, 0, 0]	n/a	catFR1	1	R1310J
83473.917	0.001	2437306	COUNTDOWN_END	n/a	n/a	n/a	n/a	-999	14	[0, 0, 0]	n/a	catFR1	1	R1310J
83473.918	1.155	2437307	ORIENT_START	n/a	n/a	n/a	n/a	-999	14	[0, 0, 0]	n/a	catFR1	1	R1310J
83475.073	0.001	2438462	ORIENT_END	n/a	n/a	n/a	n/a	-999	14	[0, 0, 0]	n/a	catFR1	1	R1310J
83475.074	0.847	2438463	ENCODING_START	n/a	n/a	n/a	n/a	-999	14	[0, 0, 0]	n/a	catFR1	1	R1310J
83475.921	1.635	2439310	WORD	n/a	wordpools/wordpool_categorized_EN.txt	CHEESECAKE	Desserts	1	14	[0, 0, 0]	n/a	catFR1	1	R1310J
83477.556	1.123	2440945	WORD_OFF	n/a	n/a	CHEESECAKE	Desserts	1	14	[0, 0, 0]	n/a	catFR1	1	R1310J
83478.679	1.628	2442068	WORD	n/a	wordpools/wordpool_categorized_EN.txt	PIE	Desserts	2	14	[0, 0, 0]	n/a	catFR1	1	R1310J
83480.307	0.828	2443696	WORD_OFF	n/a	n/a	PIE	Desserts	2	14	[0, 0, 0]	n/a	catFR1	1	R1310J
83481.135	1.623	2444524	WORD	n/a	wordpools/wordpool_categorized_EN.txt	LEMON	Fruit	3	14	[0, 0, 0]	n/a	catFR1	1	R1310J
83482.758	0.895	2446147	WORD_OFF	n/a	n/a	LEMON	Fruit	3	14	[0, 0, 0]	n/a	catFR1	1	R1310J
83483.653	1.638	2447042	WORD	n/a	wordpools/wordpool_categorized_EN.txt	BLUEBERRY	Fruit	4	14	[0, 0, 0]	n/a	catFR1	1	R1310J
83485.291	1.082	2448680	WORD_OFF	n/a	n/a	BLUEBERRY	Fruit	4	14	[0, 0, 0]	n/a	catFR1	1	R1310J
83486.373	1.636	2449762	WORD	n/a	wordpools/wordpool_categorized_EN.txt	STREAM	Landscapes	5	14	[0, 0, 0]	n/a	catFR1	1	R1310J
83488.009	0.775	2451398	WORD_OFF	n/a	n/a	STREAM	Landscapes	5	14	[0, 0, 0]	n/a	catFR1	1	R1310J
83488.784	1.624	2452172	WORD	n/a	wordpools/wordpool_categorized_EN.txt	ISLAND	Landscapes	6	14	[0, 0, 0]	n/a	catFR1	1	R1310J
83490.408	1.03	2453796	WORD_OFF	n/a	n/a	ISLAND	Landscapes	6	14	[0, 0, 0]	n/a	catFR1	1	R1310J
83491.438	1.622	2454826	WORD	n/a	wordpools/wordpool_categorized_EN.txt	BROWNIES	Desserts	7	14	[0, 0, 0]	n/a	catFR1	1	R1310J
83493.06	0.906	2456448	WORD_OFF	n/a	n/a	BROWNIES	Desserts	7	14	[0, 0, 0]	n/a	catFR1	1	R1310J
83493.966	1.626	2457354	WORD	n/a	wordpools/wordpool_categorized_EN.txt	JELLO	Desserts	8	14	[0, 0, 0]	n/a	catFR1	1	R1310J
83495.592	1.13	2458980	WORD_OFF	n/a	n/a	JELLO	Desserts	8	14	[0, 0, 0]	n/a	catFR1	1	R1310J
83496.722	1.621	2460110	WORD	n/a	wordpools/wordpool_categorized_EN.txt	BEACH	Landscapes	9	14	[0, 0, 0]	n/a	catFR1	1	R1310J
83498.343	0.955	2461731	WORD_OFF	n/a	n/a	BEACH	Landscapes	9	14	[0, 0, 0]	n/a	catFR1	1	R1310J
83499.298	1.63	2462686	WORD	n/a	wordpools/wordpool_categorized_EN.txt	CREEK	Landscapes	10	14	[0, 0, 0]	n/a	catFR1	1	R1310J
83500.928	1.003	2464316	WORD_OFF	n/a	n/a	CREEK	Landscapes	10	14	[0, 0, 0]	n/a	catFR1	1	R1310J
83501.931	1.63	2465319	WORD	n/a	wordpools/wordpool_categorized_EN.txt	BANANA	Fruit	11	14	[0, 0, 0]	n/a	catFR1	1	R1310J
83503.561	0.898	2466949	WORD_OFF	n/a	n/a	BANANA	Fruit	11	14	[0, 0, 0]	n/a	catFR1	1	R1310J
83504.459	1.62	2467847	WORD	n/a	wordpools/wordpool_categorized_EN.txt	ORANGE	Fruit	12	14	[0, 0, 0]	n/a	catFR1	1	R1310J
83506.079	0.0	2469467	WORD_OFF	n/a	n/a	ORANGE	Fruit	12	14	[0, 0, 0]	n/a	catFR1	1	R1310J
83506.079	0.0	2469467	ENCODING_END	n/a	n/a	n/a	n/a	-999	14	[0, 0, 0]	n/a	catFR1	1	R1310J
83506.079	0.001	2469467	DISTRACT_START	n/a	n/a	n/a	n/a	-999	14	[0, 0, 0]	n/a	catFR1	1	R1310J
83506.08	0.015	2469468	START	n/a	n/a	n/a	n/a	-999	14	[-999, -999, -999]	n/a	catFR1	1	R1310J
83506.095	4.15	2469483	PROB	4.15	n/a	n/a	n/a	-999	14	[2, 3, 4]	9	catFR1	1	R1310J
83510.245	2.701	2473633	PROB	2.701	n/a	n/a	n/a	-999	14	[5, 2, 2]	9	catFR1	1	R1310J
83512.946	4.317	2476333	PROB	4.317	n/a	n/a	n/a	-999	14	[2, 5, 9]	16	catFR1	1	R1310J
83517.263	7.585	2480650	PROB	7.585	n/a	n/a	n/a	-999	14	[6, 6, 9]	21	catFR1	1	R1310J
83524.848	3.742	2488235	PROB	3.742	n/a	n/a	n/a	-999	14	[6, 4, 6]	16	catFR1	1	R1310J
83528.59	0.008	2491977	STOP	n/a	n/a	n/a	n/a	-999	14	[-999, -999, -999]	n/a	catFR1	1	R1310J
83528.598	0.692	2491985	DISTRACT_END	n/a	n/a	n/a	n/a	-999	14	[0, 0, 0]	n/a	catFR1	1	R1310J
83529.29	1.676	2492677	RETRIEVAL_ORIENT_START	n/a	n/a	n/a	n/a	-999	14	[0, 0, 0]	n/a	catFR1	1	R1310J
83530.966	0.001	2494353	RETRIEVAL_ORIENT_END	n/a	n/a	n/a	n/a	-999	14	[0, 0, 0]	n/a	catFR1	1	R1310J
83530.967	4.509	2494354	REC_START	n/a	n/a	n/a	n/a	-999	14	[0, 0, 0]	n/a	catFR1	1	R1310J
83535.476	0.565	2498863	REC_WORD_VV	0.565	n/a	<>	n/a	-999	14	[0, 0, 0]	n/a	catFR1	1	R1310J
83536.041	3.36	2499428	REC_WORD	3.36	n/a	LEMON	Fruit	3	14	[0, 0, 0]	n/a	catFR1	1	R1310J
83539.401	1.725	2502787	REC_WORD	1.725	n/a	CHEESECAKE	Desserts	1	14	[0, 0, 0]	n/a	catFR1	1	R1310J
83541.126	19.851	2504512	REC_WORD_VV	19.851	n/a	<>	n/a	-999	14	[0, 0, 0]	n/a	catFR1	1	R1310J
83560.977	0.0	2524362	REC_END	n/a	n/a	n/a	n/a	-999	14	[0, 0, 0]	n/a	catFR1	1	R1310J
83560.977	0.02	2524362	TRIAL_END	n/a	n/a	n/a	n/a	-999	14	[0, 0, 0]	n/a	catFR1	1	R1310J
83560.997	0.0	2524382	TRIAL_START	n/a	n/a	n/a	n/a	-999	15	[0, 0, 0]	n/a	catFR1	1	R1310J
83560.997	0.0	2524382	TRIAL	n/a	n/a	n/a	n/a	-999	15	[0, 0, 0]	n/a	catFR1	1	R1310J
83560.997	3.591	2524382	WAITING_START	n/a	n/a	n/a	n/a	-999	15	[0, 0, 0]	n/a	catFR1	1	R1310J
83564.588	0.0	2527973	COUNTDOWN_START	n/a	n/a	n/a	n/a	-999	15	[0, 0, 0]	n/a	catFR1	1	R1310J
83564.588	10.429	2527973	WAITING_END	n/a	n/a	n/a	n/a	-999	15	[0, 0, 0]	n/a	catFR1	1	R1310J
83575.017	0.0	2538402	COUNTDOWN_END	n/a	n/a	n/a	n/a	-999	15	[0, 0, 0]	n/a	catFR1	1	R1310J
83575.017	1.206	2538402	ORIENT_START	n/a	n/a	n/a	n/a	-999	15	[0, 0, 0]	n/a	catFR1	1	R1310J
83576.223	0.0	2539608	ORIENT_END	n/a	n/a	n/a	n/a	-999	15	[0, 0, 0]	n/a	catFR1	1	R1310J
83576.223	1.023	2539608	ENCODING_START	n/a	n/a	n/a	n/a	-999	15	[0, 0, 0]	n/a	catFR1	1	R1310J
83577.246	1.612	2540631	WORD	n/a	wordpools/wordpool_categorized_EN.txt	UNDERWEAR	Clothing	1	15	[0, 0, 0]	n/a	catFR1	1	R1310J
83578.858	0.833	2542243	WORD_OFF	n/a	n/a	UNDERWEAR	Clothing	1	15	[0, 0, 0]	n/a	catFR1	1	R1310J
83579.691	1.633	2543076	WORD	n/a	wordpools/wordpool_categorized_EN.txt	SHORTS	Clothing	2	15	[0, 0, 0]	n/a	catFR1	1	R1310J
83581.324	0.813	2544709	WORD_OFF	n/a	n/a	SHORTS	Clothing	2	15	[0, 0, 0]	n/a	catFR1	1	R1310J
83582.137	1.621	2545522	WORD	n/a	wordpools/wordpool_categorized_EN.txt	BIRCH	Trees	3	15	[0, 0, 0]	n/a	catFR1	1	R1310J
83583.758	0.881	2547143	WORD_OFF	n/a	n/a	BIRCH	Trees	3	15	[0, 0, 0]	n/a	catFR1	1	R1310J
83584.639	1.636	2548024	WORD	n/a	wordpools/wordpool_categorized_EN.txt	WILLOW	Trees	4	15	[0, 0, 0]	n/a	catFR1	1	R1310J
83586.275	0.973	2549659	WORD_OFF	n/a	n/a	WILLOW	Trees	4	15	[0, 0, 0]	n/a	catFR1	1	R1310J
83587.248	1.628	2550632	WORD	n/a	wordpools/wordpool_categorized_EN.txt	TIGER	Zoo	5	15	[0, 0, 0]	n/a	catFR1	1	R1310J
83588.876	1.087	2552260	WORD_OFF	n/a	n/a	TIGER	Zoo	5	15	[0, 0, 0]	n/a	catFR1	1	R1310J
83589.963	1.629	2553347	WORD	n/a	wordpools/wordpool_categorized_EN.txt	ORANGUTAN	Zoo	6	15	[0, 0, 0]	n/a	catFR1	1	R1310J
83591.592	0.899	2554976	WORD_OFF	n/a	n/a	ORANGUTAN	Zoo	6	15	[0, 0, 0]	n/a	catFR1	1	R1310J
83592.491	1.636	2555875	WORD	n/a	wordpools/wordpool_categorized_EN.txt	HICKORY	Trees	7	15	[0, 0, 0]	n/a	catFR1	1	R1310J
83594.127	0.753	2557511	WORD_OFF	n/a	n/a	HICKORY	Trees	7	15	[0, 0, 0]	n/a	catFR1	1	R1310J
83594.88	1.63	2558264	WORD	n/a	wordpools/wordpool_categorized_EN.txt	MAPLE	Trees	8	15	[0, 0, 0]	n/a	catFR1	1	R1310J
83596.51	1.064	2559894	WORD_OFF	n/a	n/a	MAPLE	Trees	8	15	[0, 0, 0]	n/a	catFR1	1	R1310J
83597.574	1.62	2560958	WORD	n/a	wordpools/wordpool_categorized_EN.txt	JEANS	Clothing	9	15	[0, 0, 0]	n/a	catFR1	1	R1310J
83599.194	0.997	2562578	WORD_OFF	n/a	n/a	JEANS	Clothing	9	15	[0, 0, 0]	n/a	catFR1	1	R1310J
83600.191	1.637	2563575	WORD	n/a	wordpools/wordpool_categorized_EN.txt	SOCKS	Clothing	10	15	[0, 0, 0]	n/a	catFR1	1	R1310J
83601.828	0.856	2565212	WORD_OFF	n/a	n/a	SOCKS	Clothing	10	15	[0, 0, 0]	n/a	catFR1	1	R1310J
83602.684	1.627	2566068	WORD	n/a	wordpools/wordpool_categorized_EN.txt	LION	Zoo	11	15	[0, 0, 0]	n/a	catFR1	1	R1310J
83604.311	1.14	2567695	WORD_OFF	n/a	n/a	LION	Zoo	11	15	[0, 0, 0]	n/a	catFR1	1	R1310J
83605.451	1.628	2568835	WORD	n/a	wordpools/wordpool_categorized_EN.txt	GIRAFFE	Zoo	12	15	[0, 0, 0]	n/a	catFR1	1	R1310J
83607.079	0.001	2570463	WORD_OFF	n/a	n/a	GIRAFFE	Zoo	12	15	[0, 0, 0]	n/a	catFR1	1	R1310J
83607.08	0.0	2570464	DISTRACT_START	n/a	n/a	n/a	n/a	-999	15	[0, 0, 0]	n/a	catFR1	1	R1310J
83607.08	0.0	2570464	ENCODING_END	n/a	n/a	n/a	n/a	-999	15	[0, 0, 0]	n/a	catFR1	1	R1310J
83607.08	0.016	2570464	START	n/a	n/a	n/a	n/a	-999	15	[-999, -999, -999]	n/a	catFR1	1	R1310J
83607.096	3.9	2570480	PROB	3.9	n/a	n/a	n/a	-999	15	[5, 2, 6]	13	catFR1	1	R1310J
83610.996	3.366	2574379	PROB	3.366	n/a	n/a	n/a	-999	15	[7, 9, 9]	25	catFR1	1	R1310J
83614.362	3.452	2577745	PROB	3.452	n/a	n/a	n/a	-999	15	[1, 9, 3]	13	catFR1	1	R1310J
83617.814	2.967	2581197	PROB	2.967	n/a	n/a	n/a	-999	15	[1, 5, 6]	12	catFR1	1	R1310J
83620.781	6.251	2584164	PROB	6.251	n/a	n/a	n/a	-999	15	[8, 3, 5]	16	catFR1	1	R1310J
83627.032	4.764	2590415	PROB	4.764	n/a	n/a	n/a	-999	15	[7, 6, 7]	20	catFR1	1	R1310J
83631.796	0.021	2595179	STOP	n/a	n/a	n/a	n/a	-999	15	[-999, -999, -999]	n/a	catFR1	1	R1310J
83631.817	0.546	2595200	DISTRACT_END	n/a	n/a	n/a	n/a	-999	15	[0, 0, 0]	n/a	catFR1	1	R1310J
83632.363	1.587	2595746	RETRIEVAL_ORIENT_START	n/a	n/a	n/a	n/a	-999	15	[0, 0, 0]	n/a	catFR1	1	R1310J
83633.95	0.001	2597332	RETRIEVAL_ORIENT_END	n/a	n/a	n/a	n/a	-999	15	[0, 0, 0]	n/a	catFR1	1	R1310J
83633.951	0.724	2597333	REC_START	n/a	n/a	n/a	n/a	-999	15	[0, 0, 0]	n/a	catFR1	1	R1310J
83634.675	0.746	2598057	REC_WORD_VV	0.746	n/a	<>	n/a	-999	15	[0, 0, 0]	n/a	catFR1	1	R1310J
83635.421	1.415	2598803	REC_WORD	1.415	n/a	ORANGUTAN	Zoo	6	15	[0, 0, 0]	n/a	catFR1	1	R1310J
83636.836	3.195	2600218	REC_WORD	3.195	n/a	SOCKS	Clothing	10	15	[0, 0, 0]	n/a	catFR1	1	R1310J
83640.031	0.685	2603413	REC_WORD_VV	0.685	n/a	<>	n/a	-999	15	[0, 0, 0]	n/a	catFR1	1	R1310J
83640.716	1.4	2604098	REC_WORD	1.4	n/a	UNDERWEAR	Clothing	1	15	[0, 0, 0]	n/a	catFR1	1	R1310J
83642.116	10.9	2605498	REC_WORD_VV	10.9	n/a	<>	n/a	-999	15	[0, 0, 0]	n/a	catFR1	1	R1310J
83653.016	0.805	2616398	REC_WORD	0.805	n/a	WILLOW	Trees	4	15	[0, 0, 0]	n/a	catFR1	1	R1310J
83653.821	10.139	2617203	REC_WORD	10.139	n/a	MAPLE	Trees	8	15	[0, 0, 0]	n/a	catFR1	1	R1310J
83663.96	0.0	2627341	REC_END	n/a	n/a	n/a	n/a	-999	15	[0, 0, 0]	n/a	catFR1	1	R1310J
83663.96	0.02	2627341	TRIAL_END	n/a	n/a	n/a	n/a	-999	15	[0, 0, 0]	n/a	catFR1	1	R1310J
83663.98	0.0	2627361	TRIAL_START	n/a	n/a	n/a	n/a	-999	16	[0, 0, 0]	n/a	catFR1	1	R1310J
83663.98	0.0	2627361	TRIAL	n/a	n/a	n/a	n/a	-999	16	[0, 0, 0]	n/a	catFR1	1	R1310J
83663.98	1.976	2627361	WAITING_START	n/a	n/a	n/a	n/a	-999	16	[0, 0, 0]	n/a	catFR1	1	R1310J
83665.956	0.0	2629337	COUNTDOWN_START	n/a	n/a	n/a	n/a	-999	16	[0, 0, 0]	n/a	catFR1	1	R1310J
83665.956	10.429	2629337	WAITING_END	n/a	n/a	n/a	n/a	-999	16	[0, 0, 0]	n/a	catFR1	1	R1310J
83676.385	0.0	2639766	ORIENT_START	n/a	n/a	n/a	n/a	-999	16	[0, 0, 0]	n/a	catFR1	1	R1310J
83676.385	1.205	2639766	COUNTDOWN_END	n/a	n/a	n/a	n/a	-999	16	[0, 0, 0]	n/a	catFR1	1	R1310J
83677.59	0.001	2640971	ORIENT_END	n/a	n/a	n/a	n/a	-999	16	[0, 0, 0]	n/a	catFR1	1	R1310J
83677.591	1.136	2640972	ENCODING_START	n/a	n/a	n/a	n/a	-999	16	[0, 0, 0]	n/a	catFR1	1	R1310J
83678.727	1.63	2642108	WORD	n/a	wordpools/wordpool_categorized_EN.txt	TABLET	Electronics	1	16	[0, 0, 0]	n/a	catFR1	1	R1310J
83680.357	0.796	2643738	WORD_OFF	n/a	n/a	TABLET	Electronics	1	16	[0, 0, 0]	n/a	catFR1	1	R1310J
83681.153	1.639	2644533	WORD	n/a	wordpools/wordpool_categorized_EN.txt	STEREO	Electronics	2	16	[0, 0, 0]	n/a	catFR1	1	R1310J
83682.792	1.021	2646172	WORD_OFF	n/a	n/a	STEREO	Electronics	2	16	[0, 0, 0]	n/a	catFR1	1	R1310J
83683.813	1.628	2647193	WORD	n/a	wordpools/wordpool_categorized_EN.txt	DRESSER	Furniture	3	16	[0, 0, 0]	n/a	catFR1	1	R1310J
83685.441	0.958	2648821	WORD_OFF	n/a	n/a	DRESSER	Furniture	3	16	[0, 0, 0]	n/a	catFR1	1	R1310J
83686.399	1.627	2649779	WORD	n/a	wordpools/wordpool_categorized_EN.txt	COUCH	Furniture	4	16	[0, 0, 0]	n/a	catFR1	1	R1310J
83688.026	1.149	2651406	WORD_OFF	n/a	n/a	COUCH	Furniture	4	16	[0, 0, 0]	n/a	catFR1	1	R1310J
83689.175	1.635	2652555	WORD	n/a	wordpools/wordpool_categorized_EN.txt	SPRUCE	Trees	5	16	[0, 0, 0]	n/a	catFR1	1	R1310J
83690.81	0.76	2654190	WORD_OFF	n/a	n/a	SPRUCE	Trees	5	16	[0, 0, 0]	n/a	catFR1	1	R1310J
83691.57	1.624	2654950	WORD	n/a	wordpools/wordpool_categorized_EN.txt	WALNUT	Trees	6	16	[0, 0, 0]	n/a	catFR1	1	R1310J
83693.194	1.069	2656574	WORD_OFF	n/a	n/a	WALNUT	Trees	6	16	[0, 0, 0]	n/a	catFR1	1	R1310J
83694.263	1.631	2657643	WORD	n/a	wordpools/wordpool_categorized_EN.txt	CABINET	Furniture	7	16	[0, 0, 0]	n/a	catFR1	1	R1310J
83695.894	1.09	2659274	WORD_OFF	n/a	n/a	CABINET	Furniture	7	16	[0, 0, 0]	n/a	catFR1	1	R1310J
83696.984	1.626	2660364	WORD	n/a	wordpools/wordpool_categorized_EN.txt	BOOKCASE	Furniture	8	16	[0, 0, 0]	n/a	catFR1	1	R1310J
83698.61	1.066	2661990	WORD_OFF	n/a	n/a	BOOKCASE	Furniture	8	16	[0, 0, 0]	n/a	catFR1	1	R1310J
83699.676	1.635	2663056	WORD	n/a	wordpools/wordpool_categorized_EN.txt	COMPUTER	Electronics	9	16	[0, 0, 0]	n/a	catFR1	1	R1310J
83701.311	0.801	2664691	WORD_OFF	n/a	n/a	COMPUTER	Electronics	9	16	[0, 0, 0]	n/a	catFR1	1	R1310J
83702.112	1.634	2665492	WORD	n/a	wordpools/wordpool_categorized_EN.txt	MICROWAVE	Electronics	10	16	[0, 0, 0]	n/a	catFR1	1	R1310J
83703.746	1.134	2667126	WORD_OFF	n/a	n/a	MICROWAVE	Electronics	10	16	[0, 0, 0]	n/a	catFR1	1	R1310J
83704.88	1.632	2668260	WORD	n/a	wordpools/wordpool_categorized_EN.txt	CYPRESS	Trees	11	16	[0, 0, 0]	n/a	catFR1	1	R1310J
83706.512	1.095	2669891	WORD_OFF	n/a	n/a	CYPRESS	Trees	11	16	[0, 0, 0]	n/a	catFR1	1	R1310J
83707.607	1.622	2670986	WORD	n/a	wordpools/wordpool_categorized_EN.txt	PINE	Trees	12	16	[0, 0, 0]	n/a	catFR1	1	R1310J
83709.229	0.0	2672608	WORD_OFF	n/a	n/a	PINE	Trees	12	16	[0, 0, 0]	n/a	catFR1	1	R1310J
83709.229	0.0	2672608	ENCODING_END	n/a	n/a	n/a	n/a	-999	16	[0, 0, 0]	n/a	catFR1	1	R1310J
83709.229	0.0	2672608	DISTRACT_START	n/a	n/a	n/a	n/a	-999	16	[0, 0, 0]	n/a	catFR1	1	R1310J
83709.229	0.016	2672608	START	n/a	n/a	n/a	n/a	-999	16	[-999, -999, -999]	n/a	catFR1	1	R1310J
83709.245	4.018	2672624	PROB	4.018	n/a	n/a	n/a	-999	16	[9, 5, 1]	15	catFR1	1	R1310J
83713.263	3.167	2676642	PROB	3.167	n/a	n/a	n/a	-999	16	[7, 5, 6]	18	catFR1	1	R1310J
83716.43	4.635	2679809	PROB	4.635	n/a	n/a	n/a	-999	16	[2, 1, 2]	5	catFR1	1	R1310J
83721.065	5.55	2684444	PROB	5.55	n/a	n/a	n/a	-999	16	[5, 8, 4]	17	catFR1	1	R1310J
83726.615	4.131	2689994	PROB	4.131	n/a	n/a	n/a	-999	16	[8, 4, 4]	16	catFR1	1	R1310J
83730.746	0.021	2694124	STOP	n/a	n/a	n/a	n/a	-999	16	[-999, -999, -999]	n/a	catFR1	1	R1310J
83730.767	0.536	2694145	DISTRACT_END	n/a	n/a	n/a	n/a	-999	16	[0, 0, 0]	n/a	catFR1	1	R1310J
83731.303	1.564	2694681	RETRIEVAL_ORIENT_START	n/a	n/a	n/a	n/a	-999	16	[0, 0, 0]	n/a	catFR1	1	R1310J
83732.867	0.0	2696245	RETRIEVAL_ORIENT_END	n/a	n/a	n/a	n/a	-999	16	[0, 0, 0]	n/a	catFR1	1	R1310J
83732.867	0.749	2696245	REC_START	n/a	n/a	n/a	n/a	-999	16	[0, 0, 0]	n/a	catFR1	1	R1310J
83733.616	3.105	2696994	REC_WORD_VV	3.105	n/a	<>	n/a	-999	16	[0, 0, 0]	n/a	catFR1	1	R1310J
83736.721	2.59	2700099	REC_WORD	2.59	n/a	TABLET	Electronics	1	16	[0, 0, 0]	n/a	catFR1	1	R1310J
83739.311	2.3	2702689	REC_WORD	2.3	n/a	STEREO	Electronics	2	16	[0, 0, 0]	n/a	catFR1	1	R1310J
83741.611	0.26	2704989	REC_WORD_VV	0.26	n/a	<>	n/a	-999	16	[0, 0, 0]	n/a	catFR1	1	R1310J
83741.871	1.555	2705249	REC_WORD	1.555	n/a	SPRUCE	Trees	5	16	[0, 0, 0]	n/a	catFR1	1	R1310J
83743.426	2.61	2706804	REC_WORD	2.61	n/a	PINE	Trees	12	16	[0, 0, 0]	n/a	catFR1	1	R1310J
83746.036	16.843	2709414	REC_WORD_VV	16.843	n/a	<>	n/a	-999	16	[0, 0, 0]	n/a	catFR1	1	R1310J
83762.879	0.0	2726256	TRIAL_END	n/a	n/a	n/a	n/a	-999	16	[0, 0, 0]	n/a	catFR1	1	R1310J
83762.879	0.02	2726256	REC_END	n/a	n/a	n/a	n/a	-999	16	[0, 0, 0]	n/a	catFR1	1	R1310J
83762.899	0.0	2726276	TRIAL_START	n/a	n/a	n/a	n/a	-999	17	[0, 0, 0]	n/a	catFR1	1	R1310J
83762.899	0.0	2726276	TRIAL	n/a	n/a	n/a	n/a	-999	17	[0, 0, 0]	n/a	catFR1	1	R1310J
83762.899	4.941	2726276	WAITING_START	n/a	n/a	n/a	n/a	-999	17	[0, 0, 0]	n/a	catFR1	1	R1310J
83767.84	0.0	2731217	WAITING_END	n/a	n/a	n/a	n/a	-999	17	[0, 0, 0]	n/a	catFR1	1	R1310J
83767.84	10.428	2731217	COUNTDOWN_START	n/a	n/a	n/a	n/a	-999	17	[0, 0, 0]	n/a	catFR1	1	R1310J
83778.268	0.001	2741644	COUNTDOWN_END	n/a	n/a	n/a	n/a	-999	17	[0, 0, 0]	n/a	catFR1	1	R1310J
83778.269	1.022	2741645	ORIENT_START	n/a	n/a	n/a	n/a	-999	17	[0, 0, 0]	n/a	catFR1	1	R1310J
83779.291	0.0	2742667	ENCODING_START	n/a	n/a	n/a	n/a	-999	17	[0, 0, 0]	n/a	catFR1	1	R1310J
83779.291	0.777	2742667	ORIENT_END	n/a	n/a	n/a	n/a	-999	17	[0, 0, 0]	n/a	catFR1	1	R1310J
83780.068	1.624	2743444	WORD	n/a	wordpools/wordpool_categorized_EN.txt	ROOM	Building	1	17	[0, 0, 0]	n/a	catFR1	1	R1310J
83781.692	0.783	2745068	WORD_OFF	n/a	n/a	ROOM	Building	1	17	[0, 0, 0]	n/a	catFR1	1	R1310J
83782.475	1.617	2745851	WORD	n/a	wordpools/wordpool_categorized_EN.txt	STAIRS	Building	2	17	[0, 0, 0]	n/a	catFR1	1	R1310J
83784.092	0.853	2747468	WORD_OFF	n/a	n/a	STAIRS	Building	2	17	[0, 0, 0]	n/a	catFR1	1	R1310J
83784.945	1.63	2748321	WORD	n/a	wordpools/wordpool_categorized_EN.txt	EVERGREEN	Trees	3	17	[0, 0, 0]	n/a	catFR1	1	R1310J
83786.575	0.998	2749951	WORD_OFF	n/a	n/a	EVERGREEN	Trees	3	17	[0, 0, 0]	n/a	catFR1	1	R1310J
83787.573	1.621	2750949	WORD	n/a	wordpools/wordpool_categorized_EN.txt	ELM	Trees	4	17	[0, 0, 0]	n/a	catFR1	1	R1310J
83789.194	0.905	2752570	WORD_OFF	n/a	n/a	ELM	Trees	4	17	[0, 0, 0]	n/a	catFR1	1	R1310J
83790.099	1.628	2753475	WORD	n/a	wordpools/wordpool_categorized_EN.txt	TRUCK	Vehicles	5	17	[0, 0, 0]	n/a	catFR1	1	R1310J
83791.727	0.872	2755103	WORD_OFF	n/a	n/a	TRUCK	Vehicles	5	17	[0, 0, 0]	n/a	catFR1	1	R1310J
83792.599	1.628	2755975	WORD	n/a	wordpools/wordpool_categorized_EN.txt	SCOOTER	Vehicles	6	17	[0, 0, 0]	n/a	catFR1	1	R1310J
83794.227	0.952	2757603	WORD_OFF	n/a	n/a	SCOOTER	Vehicles	6	17	[0, 0, 0]	n/a	catFR1	1	R1310J
83795.179	1.632	2758555	WORD	n/a	wordpools/wordpool_categorized_EN.txt	CEDAR	Trees	7	17	[0, 0, 0]	n/a	catFR1	1	R1310J
83796.811	0.761	2760187	WORD_OFF	n/a	n/a	CEDAR	Trees	7	17	[0, 0, 0]	n/a	catFR1	1	R1310J
83797.572	1.606	2760948	WORD	n/a	wordpools/wordpool_categorized_EN.txt	OAK	Trees	8	17	[0, 0, 0]	n/a	catFR1	1	R1310J
83799.178	1.123	2762554	WORD_OFF	n/a	n/a	OAK	Trees	8	17	[0, 0, 0]	n/a	catFR1	1	R1310J
83800.301	1.628	2763677	WORD	n/a	wordpools/wordpool_categorized_EN.txt	CAR	Vehicles	9	17	[0, 0, 0]	n/a	catFR1	1	R1310J
83801.929	1.036	2765304	WORD_OFF	n/a	n/a	CAR	Vehicles	9	17	[0, 0, 0]	n/a	catFR1	1	R1310J
83802.965	1.63	2766340	WORD	n/a	wordpools/wordpool_categorized_EN.txt	BIKE	Vehicles	10	17	[0, 0, 0]	n/a	catFR1	1	R1310J
83804.595	0.954	2767970	WORD_OFF	n/a	n/a	BIKE	Vehicles	10	17	[0, 0, 0]	n/a	catFR1	1	R1310J
83805.549	1.631	2768924	WORD	n/a	wordpools/wordpool_categorized_EN.txt	FLOOR	Building	11	17	[0, 0, 0]	n/a	catFR1	1	R1310J
83807.18	1.135	2770555	WORD_OFF	n/a	n/a	FLOOR	Building	11	17	[0, 0, 0]	n/a	catFR1	1	R1310J
83808.315	1.632	2771690	WORD	n/a	wordpools/wordpool_categorized_EN.txt	HALLWAY	Building	12	17	[0, 0, 0]	n/a	catFR1	1	R1310J
83809.947	0.0	2773322	WORD_OFF	n/a	n/a	HALLWAY	Building	12	17	[0, 0, 0]	n/a	catFR1	1	R1310J
83809.947	0.0	2773322	ENCODING_END	n/a	n/a	n/a	n/a	-999	17	[0, 0, 0]	n/a	catFR1	1	R1310J
83809.947	0.001	2773322	DISTRACT_START	n/a	n/a	n/a	n/a	-999	17	[0, 0, 0]	n/a	catFR1	1	R1310J
83809.948	0.015	2773323	START	n/a	n/a	n/a	n/a	-999	17	[-999, -999, -999]	n/a	catFR1	1	R1310J
83809.963	3.517	2773338	PROB	3.517	n/a	n/a	n/a	-999	17	[4, 3, 6]	13	catFR1	1	R1310J
83813.48	2.534	2776855	PROB	2.534	n/a	n/a	n/a	-999	17	[1, 6, 3]	10	catFR1	1	R1310J
83816.014	3.818	2779389	PROB	3.818	n/a	n/a	n/a	-999	17	[4, 4, 2]	10	catFR1	1	R1310J
83819.832	3.816	2783207	PROB	3.816	n/a	n/a	n/a	-999	17	[5, 8, 2]	15	catFR1	1	R1310J
83823.648	3.502	2787023	PROB	3.502	n/a	n/a	n/a	-999	17	[7, 2, 7]	16	catFR1	1	R1310J
83827.15	2.166	2790524	PROB	2.166	n/a	n/a	n/a	-999	17	[1, 4, 6]	11	catFR1	1	R1310J
83829.316	3.878	2792690	PROB	3.878	n/a	n/a	n/a	-999	17	[9, 5, 4]	18	catFR1	1	R1310J
83833.194	0.006	2796568	STOP	n/a	n/a	n/a	n/a	-999	17	[-999, -999, -999]	n/a	catFR1	1	R1310J
83833.2	0.547	2796574	DISTRACT_END	n/a	n/a	n/a	n/a	-999	17	[0, 0, 0]	n/a	catFR1	1	R1310J
83833.747	1.703	2797121	RETRIEVAL_ORIENT_START	n/a	n/a	n/a	n/a	-999	17	[0, 0, 0]	n/a	catFR1	1	R1310J
83835.45	0.0	2798824	REC_WORD_VV	0.0	n/a	<>	n/a	-999	17	[0, 0, 0]	n/a	catFR1	1	R1310J
83835.45	0.0	2798824	RETRIEVAL_ORIENT_END	n/a	n/a	n/a	n/a	-999	17	[0, 0, 0]	n/a	catFR1	1	R1310J
83835.45	0.5	2798824	REC_START	n/a	n/a	n/a	n/a	-999	17	[0, 0, 0]	n/a	catFR1	1	R1310J
83835.95	1.304	2799324	REC_WORD	1.304	n/a	FLOOR	Building	11	17	[0, 0, 0]	n/a	catFR1	1	R1310J
83837.254	1.775	2800628	REC_WORD	1.775	n/a	HALLWAY	Building	12	17	[0, 0, 0]	n/a	catFR1	1	R1310J
83839.029	3.365	2802403	REC_WORD	3.365	n/a	SCOOTER	Vehicles	6	17	[0, 0, 0]	n/a	catFR1	1	R1310J
83842.394	4.554	2805768	REC_WORD	4.554	n/a	CAR	Vehicles	9	17	[0, 0, 0]	n/a	catFR1	1	R1310J
83846.948	12.405	2810322	REC_WORD_VV	12.405	n/a	<>	n/a	-999	17	[0, 0, 0]	n/a	catFR1	1	R1310J
83859.353	6.108	2822726	REC_WORD	6.108	n/a	CEDAR	Trees	7	17	[0, 0, 0]	n/a	catFR1	1	R1310J
83865.461	0.0	2828834	TRIAL_END	n/a	n/a	n/a	n/a	-999	17	[0, 0, 0]	n/a	catFR1	1	R1310J
83865.461	0.023	2828834	REC_END	n/a	n/a	n/a	n/a	-999	17	[0, 0, 0]	n/a	catFR1	1	R1310J
83865.484	0.0	2828857	TRIAL_START	n/a	n/a	n/a	n/a	-999	18	[0, 0, 0]	n/a	catFR1	1	R1310J
83865.484	0.0	2828857	TRIAL	n/a	n/a	n/a	n/a	-999	18	[0, 0, 0]	n/a	catFR1	1	R1310J
83865.484	1.938	2828857	WAITING_START	n/a	n/a	n/a	n/a	-999	18	[0, 0, 0]	n/a	catFR1	1	R1310J
83867.422	0.001	2830795	WAITING_END	n/a	n/a	n/a	n/a	-999	18	[0, 0, 0]	n/a	catFR1	1	R1310J
83867.423	10.429	2830796	COUNTDOWN_START	n/a	n/a	n/a	n/a	-999	18	[0, 0, 0]	n/a	catFR1	1	R1310J
83877.852	0.0	2841224	COUNTDOWN_END	n/a	n/a	n/a	n/a	-999	18	[0, 0, 0]	n/a	catFR1	1	R1310J
83877.852	1.156	2841224	ORIENT_START	n/a	n/a	n/a	n/a	-999	18	[0, 0, 0]	n/a	catFR1	1	R1310J
83879.008	0.001	2842380	ORIENT_END	n/a	n/a	n/a	n/a	-999	18	[0, 0, 0]	n/a	catFR1	1	R1310J
83879.009	0.802	2842381	ENCODING_START	n/a	n/a	n/a	n/a	-999	18	[0, 0, 0]	n/a	catFR1	1	R1310J
83879.811	1.63	2843183	WORD	n/a	wordpools/wordpool_categorized_EN.txt	CIDER	Beverages	1	18	[0, 0, 0]	n/a	catFR1	1	R1310J
83881.441	1.148	2844813	WORD_OFF	n/a	n/a	CIDER	Beverages	1	18	[0, 0, 0]	n/a	catFR1	1	R1310J
83882.589	1.636	2845961	WORD	n/a	wordpools/wordpool_categorized_EN.txt	WINE	Beverages	2	18	[0, 0, 0]	n/a	catFR1	1	R1310J
83884.225	0.867	2847597	WORD_OFF	n/a	n/a	WINE	Beverages	2	18	[0, 0, 0]	n/a	catFR1	1	R1310J
83885.092	1.634	2848464	WORD	n/a	wordpools/wordpool_categorized_EN.txt	TULIP	Flowers	3	18	[0, 0, 0]	n/a	catFR1	1	R1310J
83886.726	0.855	2850098	WORD_OFF	n/a	n/a	TULIP	Flowers	3	18	[0, 0, 0]	n/a	catFR1	1	R1310J
