onset	duration	sample	trial_type	response_time	stim_file	item_name	category	serialpos	list	test	answer	experiment	session	subject
0.0	13.282	56351	INSTRUCT_START	n/a	n/a	n/a	n/a	-999	-999	[0, 0, 0]	n/a	catFR1	0	R1467M
13.282	31.615	69632	INSTRUCT_END	n/a	n/a	n/a	n/a	-999	-999	[0, 0, 0]	n/a	catFR1	0	R1467M
44.897	10.0	101252	COUNTDOWN_START	n/a	n/a	n/a	n/a	-999	-999	[0, 0, 0]	n/a	catFR1	0	R1467M
55.298	0.0	111641	COUNTDOWN_END	n/a	n/a	n/a	n/a	-999	-999	[0, 0, 0]	n/a	catFR1	0	R1467M
55.298	2.25	111655	ENCODING_START	n/a	n/a	n/a	n/a	-999	-1	[0, 0, 0]	n/a	catFR1	0	R1467M
57.548	1.6	113900	WORD	n/a	n/a	FISH	OceanAnimals	1	-1	[0, 0, 0]	n/a	catFR1	0	R1467M
59.164	0.85	115512	WORD_OFF	n/a	n/a	FISH	OceanAnimals	1	-1	[0, 0, 0]	n/a	catFR1	0	R1467M
60.014	1.6	116367	WORD	n/a	n/a	DOLPHIN	OceanAnimals	2	-1	[0, 0, 0]	n/a	catFR1	0	R1467M
61.63	0.8	117979	WORD_OFF	n/a	n/a	DOLPHIN	OceanAnimals	2	-1	[0, 0, 0]	n/a	catFR1	0	R1467M
62.43	1.6	118778	WORD	n/a	n/a	TROMBONE	Instruments	3	-1	[0, 0, 0]	n/a	catFR1	0	R1467M
64.047	0.85	120403	WORD_OFF	n/a	n/a	TROMBONE	Instruments	3	-1	[0, 0, 0]	n/a	catFR1	0	R1467M
64.897	1.6	121244	WORD	n/a	n/a	TUBA	Instruments	4	-1	[0, 0, 0]	n/a	catFR1	0	R1467M
66.514	0.8	122856	WORD_OFF	n/a	n/a	TUBA	Instruments	4	-1	[0, 0, 0]	n/a	catFR1	0	R1467M
67.314	1.6	123669	WORD	n/a	n/a	VIOLET	Flowers	5	-1	[0, 0, 0]	n/a	catFR1	0	R1467M
68.931	0.933	125281	WORD_OFF	n/a	n/a	VIOLET	Flowers	5	-1	[0, 0, 0]	n/a	catFR1	0	R1467M
69.864	1.6	126218	WORD	n/a	n/a	DAFFODIL	Flowers	6	-1	[0, 0, 0]	n/a	catFR1	0	R1467M
71.48	0.784	127830	WORD_OFF	n/a	n/a	DAFFODIL	Flowers	6	-1	[0, 0, 0]	n/a	catFR1	0	R1467M
72.264	1.6	128615	WORD	n/a	n/a	VIOLIN	Instruments	7	-1	[0, 0, 0]	n/a	catFR1	0	R1467M
73.881	0.8	130227	WORD_OFF	n/a	n/a	VIOLIN	Instruments	7	-1	[0, 0, 0]	n/a	catFR1	0	R1467M
74.681	1.6	131026	WORD	n/a	n/a	ORGAN	Instruments	8	-1	[0, 0, 0]	n/a	catFR1	0	R1467M
76.297	0.866	132652	WORD_OFF	n/a	n/a	ORGAN	Instruments	8	-1	[0, 0, 0]	n/a	catFR1	0	R1467M
77.163	1.6	133506	WORD	n/a	n/a	DAISY	Flowers	9	-1	[0, 0, 0]	n/a	catFR1	0	R1467M
78.764	0.849	135118	WORD_OFF	n/a	n/a	DAISY	Flowers	9	-1	[0, 0, 0]	n/a	catFR1	0	R1467M
79.613	1.6	135959	WORD	n/a	n/a	CARNATION	Flowers	10	-1	[0, 0, 0]	n/a	catFR1	0	R1467M
81.214	0.817	137557	WORD_OFF	n/a	n/a	CARNATION	Flowers	10	-1	[0, 0, 0]	n/a	catFR1	0	R1467M
82.031	1.6	138383	WORD	n/a	n/a	WHALE	OceanAnimals	11	-1	[0, 0, 0]	n/a	catFR1	0	R1467M
83.647	0.934	139995	WORD_OFF	n/a	n/a	WHALE	OceanAnimals	11	-1	[0, 0, 0]	n/a	catFR1	0	R1467M
84.581	1.6	140932	WORD	n/a	n/a	PLANKTON	OceanAnimals	12	-1	[0, 0, 0]	n/a	catFR1	0	R1467M
86.197	0.001	142544	WORD_OFF	n/a	n/a	PLANKTON	OceanAnimals	12	-1	[0, 0, 0]	n/a	catFR1	0	R1467M
86.198	0.0	142544	ENCODING_END	n/a	n/a	n/a	n/a	-999	-1	[0, 0, 0]	n/a	catFR1	0	R1467M
86.198	0.0	142544	DISTRACT_START	n/a	n/a	n/a	n/a	-999	-1	[0, 0, 0]	n/a	catFR1	0	R1467M
86.198	0.001	142545	START	n/a	n/a	n/a	n/a	-999	-1	[-999, -999, -999]	n/a	catFR1	0	R1467M
86.199	3.199	142546	PROB	3.183	n/a	n/a	n/a	-999	-1	[1, 1, 6]	8.0	catFR1	0	R1467M
89.398	2.783	145745	PROB	2.765	n/a	n/a	n/a	-999	-1	[2, 4, 1]	7.0	catFR1	0	R1467M
92.181	4.25	148528	PROB	4.232	n/a	n/a	n/a	-999	-1	[7, 7, 5]	19.0	catFR1	0	R1467M
96.431	4.383	152778	PROB	4.366	n/a	n/a	n/a	-999	-1	[3, 5, 3]	11.0	catFR1	0	R1467M
100.814	4.902	157161	PROB	4.883	n/a	n/a	n/a	-999	-1	[2, 1, 3]	6.0	catFR1	0	R1467M
105.716	3.397	162062	PROB	3.383	n/a	n/a	n/a	-999	-1	[5, 2, 5]	12.0	catFR1	0	R1467M
109.113	0.0	165457	DISTRACT_END	n/a	n/a	n/a	n/a	-999	-1	[0, 0, 0]	n/a	catFR1	0	R1467M
109.113	2.15	165459	STOP	n/a	n/a	n/a	n/a	-999	-1	[-999, -999, -999]	n/a	catFR1	0	R1467M
111.263	3.219	167614	REC_START	n/a	n/a	n/a	n/a	-999	-1	[0, 0, 0]	n/a	catFR1	0	R1467M
114.482	1.074	170828	REC_WORD	3.219	n/a	WHALE	OceanAnimals	11	-1	[0, 0, 0]	n/a	catFR1	0	R1467M
115.556	5.251	171902	REC_WORD	4.293	n/a	DOLPHIN	OceanAnimals	2	-1	[0, 0, 0]	n/a	catFR1	0	R1467M
120.807	20.704	177153	REC_WORD	9.544	n/a	TUBA	Instruments	4	-1	[0, 0, 0]	n/a	catFR1	0	R1467M
141.511	17.52	197862	REC_END	n/a	n/a	n/a	n/a	-999	-1	[0, 0, 0]	n/a	catFR1	0	R1467M
159.031	10.0	215374	COUNTDOWN_START	n/a	n/a	n/a	n/a	-999	1	[0, 0, 0]	n/a	catFR1	0	R1467M
169.382	0.0	225721	COUNTDOWN_END	n/a	n/a	n/a	n/a	-999	1	[0, 0, 0]	n/a	catFR1	0	R1467M
169.382	2.115	225734	ENCODING_START	n/a	n/a	n/a	n/a	-999	1	[0, 0, 0]	n/a	catFR1	0	R1467M
171.497	1.6	227842	WORD	n/a	wordpools/wordpool_categorized_EN.txt	SCOOTER	Vehicles	1	1	[0, 0, 0]	n/a	catFR1	0	R1467M
173.114	0.949	229454	WORD_OFF	n/a	n/a	SCOOTER	Vehicles	1	1	[0, 0, 0]	n/a	catFR1	0	R1467M
174.063	1.6	230405	WORD	n/a	wordpools/wordpool_categorized_EN.txt	TRAIN	Vehicles	2	1	[0, 0, 0]	n/a	catFR1	0	R1467M
175.68	0.784	232017	WORD_OFF	n/a	n/a	TRAIN	Vehicles	2	1	[0, 0, 0]	n/a	catFR1	0	R1467M
176.464	1.6	232802	WORD	n/a	wordpools/wordpool_categorized_EN.txt	HEAD	BodyParts	3	1	[0, 0, 0]	n/a	catFR1	0	R1467M
178.081	0.782	234428	WORD_OFF	n/a	n/a	HEAD	BodyParts	3	1	[0, 0, 0]	n/a	catFR1	0	R1467M
178.863	1.6	235200	WORD	n/a	wordpools/wordpool_categorized_EN.txt	EAR	BodyParts	4	1	[0, 0, 0]	n/a	catFR1	0	R1467M
180.464	0.934	236812	WORD_OFF	n/a	n/a	EAR	BodyParts	4	1	[0, 0, 0]	n/a	catFR1	0	R1467M
181.398	1.6	237735	WORD	n/a	wordpools/wordpool_categorized_EN.txt	CLOUD	Weather	5	1	[0, 0, 0]	n/a	catFR1	0	R1467M
183.013	0.984	239361	WORD_OFF	n/a	n/a	CLOUD	Weather	5	1	[0, 0, 0]	n/a	catFR1	0	R1467M
183.997	1.6	240339	WORD	n/a	wordpools/wordpool_categorized_EN.txt	WIND	Weather	6	1	[0, 0, 0]	n/a	catFR1	0	R1467M
185.597	0.8	241937	WORD_OFF	n/a	n/a	WIND	Weather	6	1	[0, 0, 0]	n/a	catFR1	0	R1467M
186.397	1.6	242736	WORD	n/a	wordpools/wordpool_categorized_EN.txt	EYE	BodyParts	7	1	[0, 0, 0]	n/a	catFR1	0	R1467M
187.997	1.0	244334	WORD_OFF	n/a	n/a	EYE	BodyParts	7	1	[0, 0, 0]	n/a	catFR1	0	R1467M
188.997	1.6	245340	WORD	n/a	wordpools/wordpool_categorized_EN.txt	TOE	BodyParts	8	1	[0, 0, 0]	n/a	catFR1	0	R1467M
190.614	0.966	246952	WORD_OFF	n/a	n/a	TOE	BodyParts	8	1	[0, 0, 0]	n/a	catFR1	0	R1467M
191.58	1.6	247917	WORD	n/a	wordpools/wordpool_categorized_EN.txt	BUS	Vehicles	9	1	[0, 0, 0]	n/a	catFR1	0	R1467M
193.181	0.899	249529	WORD_OFF	n/a	n/a	BUS	Vehicles	9	1	[0, 0, 0]	n/a	catFR1	0	R1467M
194.08	1.6	250424	WORD	n/a	wordpools/wordpool_categorized_EN.txt	BIKE	Vehicles	10	1	[0, 0, 0]	n/a	catFR1	0	R1467M
195.68	0.767	252022	WORD_OFF	n/a	n/a	BIKE	Vehicles	10	1	[0, 0, 0]	n/a	catFR1	0	R1467M
196.447	1.6	252794	WORD	n/a	wordpools/wordpool_categorized_EN.txt	THUNDERSTORM	Weather	11	1	[0, 0, 0]	n/a	catFR1	0	R1467M
198.064	1.0	254406	WORD_OFF	n/a	n/a	THUNDERSTORM	Weather	11	1	[0, 0, 0]	n/a	catFR1	0	R1467M
199.064	1.6	255412	WORD	n/a	wordpools/wordpool_categorized_EN.txt	FOG	Weather	12	1	[0, 0, 0]	n/a	catFR1	0	R1467M
200.681	0.0	257023	PROB	4.616	n/a	n/a	n/a	-999	1	[8, 2, 8]	18.0	catFR1	0	R1467M
200.68	0.002	257024	WORD_OFF	n/a	n/a	FOG	Weather	12	1	[0, 0, 0]	n/a	catFR1	0	R1467M
200.682	0.0	257024	ENCODING_END	n/a	n/a	n/a	n/a	-999	1	[0, 0, 0]	n/a	catFR1	0	R1467M
200.682	0.0	257024	DISTRACT_START	n/a	n/a	n/a	n/a	-999	1	[0, 0, 0]	n/a	catFR1	0	R1467M
200.682	4.632	257024	START	n/a	n/a	n/a	n/a	-999	1	[-999, -999, -999]	n/a	catFR1	0	R1467M
205.314	3.684	261656	PROB	3.666	n/a	n/a	n/a	-999	1	[2, 2, 3]	6.0	catFR1	0	R1467M
208.998	10.415	265340	PROB	10.399	n/a	n/a	n/a	-999	1	[8, 8, 4]	20.0	catFR1	0	R1467M
219.413	2.967	275754	PROB	2.95	n/a	n/a	n/a	-999	1	[3, 5, 5]	13.0	catFR1	0	R1467M
222.38	0.0	278721	STOP	n/a	n/a	n/a	n/a	-999	1	[-999, -999, -999]	n/a	catFR1	0	R1467M
222.38	2.133	278724	DISTRACT_END	n/a	n/a	n/a	n/a	-999	1	[0, 0, 0]	n/a	catFR1	0	R1467M
224.513	0.799	280854	REC_START	n/a	n/a	n/a	n/a	-999	1	[0, 0, 0]	n/a	catFR1	0	R1467M
225.312	0.904	281653	REC_WORD	0.799	n/a	WIND	Weather	6	1	[0, 0, 0]	n/a	catFR1	0	R1467M
226.216	1.544	282557	REC_WORD	1.703	n/a	CLOUD	Weather	5	1	[0, 0, 0]	n/a	catFR1	0	R1467M
227.76	1.0	284101	REC_WORD	3.247	n/a	THUNDERSTORM	Weather	11	1	[0, 0, 0]	n/a	catFR1	0	R1467M
228.76	2.267	285101	REC_WORD_VV	4.247	n/a	<>	n/a	-999	1	[0, 0, 0]	n/a	catFR1	0	R1467M
231.027	1.736	287368	REC_WORD	6.514	n/a	SCOOTER	Vehicles	1	1	[0, 0, 0]	n/a	catFR1	0	R1467M
232.763	1.319	289103	REC_WORD	8.25	n/a	TRAIN	Vehicles	2	1	[0, 0, 0]	n/a	catFR1	0	R1467M
234.082	6.348	290422	REC_WORD	9.569	n/a	BUS	Vehicles	9	1	[0, 0, 0]	n/a	catFR1	0	R1467M
240.43	1.141	296770	REC_WORD	15.917	n/a	TOE	BodyParts	8	1	[0, 0, 0]	n/a	catFR1	0	R1467M
241.571	0.637	297911	REC_WORD	17.058	n/a	EAR	BodyParts	4	1	[0, 0, 0]	n/a	catFR1	0	R1467M
242.208	12.514	298548	REC_WORD	17.695	n/a	HEAD	BodyParts	3	1	[0, 0, 0]	n/a	catFR1	0	R1467M
254.722	3.025	311060	REC_END	n/a	n/a	n/a	n/a	-999	1	[0, 0, 0]	n/a	catFR1	0	R1467M
257.747	10.0	314091	COUNTDOWN_START	n/a	n/a	n/a	n/a	-999	2	[0, 0, 0]	n/a	catFR1	0	R1467M
268.098	0.0	324438	COUNTDOWN_END	n/a	n/a	n/a	n/a	-999	2	[0, 0, 0]	n/a	catFR1	0	R1467M
268.098	2.283	324438	ENCODING_START	n/a	n/a	n/a	n/a	-999	2	[0, 0, 0]	n/a	catFR1	0	R1467M
270.381	1.6	326725	WORD	n/a	wordpools/wordpool_categorized_EN.txt	SOCKS	Clothing	1	2	[0, 0, 0]	n/a	catFR1	0	R1467M
271.997	0.884	328337	WORD_OFF	n/a	n/a	SOCKS	Clothing	1	2	[0, 0, 0]	n/a	catFR1	0	R1467M
272.881	1.6	329219	WORD	n/a	wordpools/wordpool_categorized_EN.txt	DRESS	Clothing	2	2	[0, 0, 0]	n/a	catFR1	0	R1467M
274.497	0.817	330831	WORD_OFF	n/a	n/a	DRESS	Clothing	2	2	[0, 0, 0]	n/a	catFR1	0	R1467M
275.314	1.6	331658	WORD	n/a	wordpools/wordpool_categorized_EN.txt	TURTLE	OceanAnimals	3	2	[0, 0, 0]	n/a	catFR1	0	R1467M
276.931	0.966	333270	WORD_OFF	n/a	n/a	TURTLE	OceanAnimals	3	2	[0, 0, 0]	n/a	catFR1	0	R1467M
277.897	1.6	334234	WORD	n/a	wordpools/wordpool_categorized_EN.txt	SQUID	OceanAnimals	4	2	[0, 0, 0]	n/a	catFR1	0	R1467M
279.497	0.783	335833	WORD_OFF	n/a	n/a	SQUID	OceanAnimals	4	2	[0, 0, 0]	n/a	catFR1	0	R1467M
280.28	1.6	336618	WORD	n/a	wordpools/wordpool_categorized_EN.txt	PEELER	KitchenTools	5	2	[0, 0, 0]	n/a	catFR1	0	R1467M
281.881	0.883	338216	WORD_OFF	n/a	n/a	PEELER	KitchenTools	5	2	[0, 0, 0]	n/a	catFR1	0	R1467M
282.764	1.6	339098	WORD	n/a	wordpools/wordpool_categorized_EN.txt	GRATER	KitchenTools	6	2	[0, 0, 0]	n/a	catFR1	0	R1467M
284.381	0.966	340724	WORD_OFF	n/a	n/a	GRATER	KitchenTools	6	2	[0, 0, 0]	n/a	catFR1	0	R1467M
285.347	1.6	341688	WORD	n/a	wordpools/wordpool_categorized_EN.txt	COAT	Clothing	7	2	[0, 0, 0]	n/a	catFR1	0	R1467M
286.964	0.783	343300	WORD_OFF	n/a	n/a	COAT	Clothing	7	2	[0, 0, 0]	n/a	catFR1	0	R1467M
287.747	1.6	344085	WORD	n/a	wordpools/wordpool_categorized_EN.txt	SHIRT	Clothing	8	2	[0, 0, 0]	n/a	catFR1	0	R1467M
289.364	0.95	345697	WORD_OFF	n/a	n/a	SHIRT	Clothing	8	2	[0, 0, 0]	n/a	catFR1	0	R1467M
290.314	1.6	346648	WORD	n/a	wordpools/wordpool_categorized_EN.txt	LADLE	KitchenTools	9	2	[0, 0, 0]	n/a	catFR1	0	R1467M
291.931	0.883	348274	WORD_OFF	n/a	n/a	LADLE	KitchenTools	9	2	[0, 0, 0]	n/a	catFR1	0	R1467M
292.814	1.6	349156	WORD	n/a	wordpools/wordpool_categorized_EN.txt	TONGS	KitchenTools	10	2	[0, 0, 0]	n/a	catFR1	0	R1467M
294.43	0.784	350768	WORD_OFF	n/a	n/a	TONGS	KitchenTools	10	2	[0, 0, 0]	n/a	catFR1	0	R1467M
295.214	1.6	351553	WORD	n/a	wordpools/wordpool_categorized_EN.txt	OCTOPUS	OceanAnimals	11	2	[0, 0, 0]	n/a	catFR1	0	R1467M
296.83	0.951	353165	WORD_OFF	n/a	n/a	OCTOPUS	OceanAnimals	11	2	[0, 0, 0]	n/a	catFR1	0	R1467M
297.781	1.6	354116	WORD	n/a	wordpools/wordpool_categorized_EN.txt	CRAB	OceanAnimals	12	2	[0, 0, 0]	n/a	catFR1	0	R1467M
299.397	0.002	355734	PROB	4.883	n/a	n/a	n/a	-999	2	[8, 6, 6]	20.0	catFR1	0	R1467M
299.399	0.0	355736	START	n/a	n/a	n/a	n/a	-999	2	[-999, -999, -999]	n/a	catFR1	0	R1467M
299.397	0.002	355741	WORD_OFF	n/a	n/a	CRAB	OceanAnimals	12	2	[0, 0, 0]	n/a	catFR1	0	R1467M
299.399	0.0	355741	ENCODING_END	n/a	n/a	n/a	n/a	-999	2	[0, 0, 0]	n/a	catFR1	0	R1467M
299.399	4.898	355741	DISTRACT_START	n/a	n/a	n/a	n/a	-999	2	[0, 0, 0]	n/a	catFR1	0	R1467M
304.297	3.45	360634	PROB	3.433	n/a	n/a	n/a	-999	2	[5, 5, 7]	17.0	catFR1	0	R1467M
307.747	3.434	364084	PROB	3.416	n/a	n/a	n/a	-999	2	[2, 4, 2]	8.0	catFR1	0	R1467M
311.181	2.6	367518	PROB	2.582	n/a	n/a	n/a	-999	2	[6, 6, 2]	14.0	catFR1	0	R1467M
313.781	4.883	370118	PROB	4.866	n/a	n/a	n/a	-999	2	[4, 2, 8]	14.0	catFR1	0	R1467M
318.664	4.233	375000	PROB	4.216	n/a	n/a	n/a	-999	2	[6, 8, 1]	15.0	catFR1	0	R1467M
322.897	0.0	379233	DISTRACT_END	n/a	n/a	n/a	n/a	-999	2	[0, 0, 0]	n/a	catFR1	0	R1467M
322.897	2.183	379233	STOP	n/a	n/a	n/a	n/a	-999	2	[-999, -999, -999]	n/a	catFR1	0	R1467M
325.08	1.613	381417	REC_START	n/a	n/a	n/a	n/a	-999	2	[0, 0, 0]	n/a	catFR1	0	R1467M
326.693	1.987	383029	REC_WORD	1.613	n/a	SQUID	OceanAnimals	4	2	[0, 0, 0]	n/a	catFR1	0	R1467M
328.68	2.397	385016	REC_WORD	3.6	n/a	SOCKS	Clothing	1	2	[0, 0, 0]	n/a	catFR1	0	R1467M
331.077	2.038	387413	REC_WORD_VV	5.997	n/a	<>	n/a	-999	2	[0, 0, 0]	n/a	catFR1	0	R1467M
333.115	1.037	389451	REC_WORD	8.035	n/a	DRESS	Clothing	2	2	[0, 0, 0]	n/a	catFR1	0	R1467M
334.152	2.338	390488	REC_WORD	9.072	n/a	SHIRT	Clothing	8	2	[0, 0, 0]	n/a	catFR1	0	R1467M
336.49	3.47	392826	REC_WORD	11.41	n/a	PEELER	KitchenTools	5	2	[0, 0, 0]	n/a	catFR1	0	R1467M
339.96	15.381	396295	REC_WORD	14.88	n/a	GRATER	KitchenTools	6	2	[0, 0, 0]	n/a	catFR1	0	R1467M
355.341	34.856	411679	REC_END	n/a	n/a	n/a	n/a	-999	2	[0, 0, 0]	n/a	catFR1	0	R1467M
390.197	10.0	446537	COUNTDOWN_START	n/a	n/a	n/a	n/a	-999	3	[0, 0, 0]	n/a	catFR1	0	R1467M
400.548	0.0	456884	COUNTDOWN_END	n/a	n/a	n/a	n/a	-999	3	[0, 0, 0]	n/a	catFR1	0	R1467M
400.548	1.816	456884	ENCODING_START	n/a	n/a	n/a	n/a	-999	3	[0, 0, 0]	n/a	catFR1	0	R1467M
402.364	1.6	458703	WORD	n/a	wordpools/wordpool_categorized_EN.txt	FOOTBALL	Toys	1	3	[0, 0, 0]	n/a	catFR1	0	R1467M
403.964	0.766	460301	WORD_OFF	n/a	n/a	FOOTBALL	Toys	1	3	[0, 0, 0]	n/a	catFR1	0	R1467M
404.73	1.6	461059	WORD	n/a	wordpools/wordpool_categorized_EN.txt	BASKETBALL	Toys	2	3	[0, 0, 0]	n/a	catFR1	0	R1467M
406.347	0.883	462684	WORD_OFF	n/a	n/a	BASKETBALL	Toys	2	3	[0, 0, 0]	n/a	catFR1	0	R1467M
407.23	1.6	463566	WORD	n/a	wordpools/wordpool_categorized_EN.txt	GLUE	OfficeSupplies	3	3	[0, 0, 0]	n/a	catFR1	0	R1467M
408.847	0.933	465178	WORD_OFF	n/a	n/a	GLUE	OfficeSupplies	3	3	[0, 0, 0]	n/a	catFR1	0	R1467M
409.78	1.6	466115	WORD	n/a	wordpools/wordpool_categorized_EN.txt	PENCIL	OfficeSupplies	4	3	[0, 0, 0]	n/a	catFR1	0	R1467M
411.397	0.983	467727	WORD_OFF	n/a	n/a	PENCIL	OfficeSupplies	4	3	[0, 0, 0]	n/a	catFR1	0	R1467M
412.38	1.6	468719	WORD	n/a	wordpools/wordpool_categorized_EN.txt	TURKEY	FarmAnimals	5	3	[0, 0, 0]	n/a	catFR1	0	R1467M
413.98	0.883	470317	WORD_OFF	n/a	n/a	TURKEY	FarmAnimals	5	3	[0, 0, 0]	n/a	catFR1	0	R1467M
414.863	1.6	471199	WORD	n/a	wordpools/wordpool_categorized_EN.txt	GOAT	FarmAnimals	6	3	[0, 0, 0]	n/a	catFR1	0	R1467M
416.463	0.934	472797	WORD_OFF	n/a	n/a	GOAT	FarmAnimals	6	3	[0, 0, 0]	n/a	catFR1	0	R1467M
417.397	1.6	473734	WORD	n/a	wordpools/wordpool_categorized_EN.txt	DOLLHOUSE	Toys	7	3	[0, 0, 0]	n/a	catFR1	0	R1467M
419.013	0.9	475346	WORD_OFF	n/a	n/a	DOLLHOUSE	Toys	7	3	[0, 0, 0]	n/a	catFR1	0	R1467M
419.913	1.6	476242	WORD	n/a	wordpools/wordpool_categorized_EN.txt	FRISBEE	Toys	8	3	[0, 0, 0]	n/a	catFR1	0	R1467M
421.513	0.801	477840	WORD_OFF	n/a	n/a	FRISBEE	Toys	8	3	[0, 0, 0]	n/a	catFR1	0	R1467M
422.314	1.6	478639	WORD	n/a	wordpools/wordpool_categorized_EN.txt	RULER	OfficeSupplies	9	3	[0, 0, 0]	n/a	catFR1	0	R1467M
423.93	0.933	480265	WORD_OFF	n/a	n/a	RULER	OfficeSupplies	9	3	[0, 0, 0]	n/a	catFR1	0	R1467M
424.863	1.6	481202	WORD	n/a	wordpools/wordpool_categorized_EN.txt	BINDER	OfficeSupplies	10	3	[0, 0, 0]	n/a	catFR1	0	R1467M
426.48	0.883	482814	WORD_OFF	n/a	n/a	BINDER	OfficeSupplies	10	3	[0, 0, 0]	n/a	catFR1	0	R1467M
427.363	1.6	483696	WORD	n/a	wordpools/wordpool_categorized_EN.txt	SHEEP	FarmAnimals	11	3	[0, 0, 0]	n/a	catFR1	0	R1467M
428.963	0.767	485294	WORD_OFF	n/a	n/a	SHEEP	FarmAnimals	11	3	[0, 0, 0]	n/a	catFR1	0	R1467M
429.73	1.6	486065	WORD	n/a	wordpools/wordpool_categorized_EN.txt	ROOSTER	FarmAnimals	12	3	[0, 0, 0]	n/a	catFR1	0	R1467M
431.331	0.0	487662	PROB	4.766	n/a	n/a	n/a	-999	3	[7, 3, 1]	11.0	catFR1	0	R1467M
431.331	0.0	487662	START	n/a	n/a	n/a	n/a	-999	3	[-999, -999, -999]	n/a	catFR1	0	R1467M
431.33	0.001	487664	WORD_OFF	n/a	n/a	ROOSTER	FarmAnimals	12	3	[0, 0, 0]	n/a	catFR1	0	R1467M
431.331	0.0	487664	ENCODING_END	n/a	n/a	n/a	n/a	-999	3	[0, 0, 0]	n/a	catFR1	0	R1467M
431.331	4.783	487664	DISTRACT_START	n/a	n/a	n/a	n/a	-999	3	[0, 0, 0]	n/a	catFR1	0	R1467M
436.114	3.8	492445	PROB	3.783	n/a	n/a	n/a	-999	3	[7, 4, 1]	12.0	catFR1	0	R1467M
439.914	3.334	496245	PROB	3.317	n/a	n/a	n/a	-999	3	[7, 4, 4]	11.0	catFR1	0	R1467M
443.248	4.416	499579	PROB	4.399	n/a	n/a	n/a	-999	3	[6, 2, 3]	11.0	catFR1	0	R1467M
447.664	3.067	503994	PROB	3.05	n/a	n/a	n/a	-999	3	[5, 6, 1]	12.0	catFR1	0	R1467M
450.731	4.116	507061	PROB	4.1	n/a	n/a	n/a	-999	3	[8, 8, 6]	22.0	catFR1	0	R1467M
454.847	0.0	511177	STOP	n/a	n/a	n/a	n/a	-999	3	[-999, -999, -999]	n/a	catFR1	0	R1467M
454.847	2.184	511182	DISTRACT_END	n/a	n/a	n/a	n/a	-999	3	[0, 0, 0]	n/a	catFR1	0	R1467M
457.031	1.045	513367	REC_START	n/a	n/a	n/a	n/a	-999	3	[0, 0, 0]	n/a	catFR1	0	R1467M
458.076	1.017	514406	REC_WORD	1.045	n/a	FOOTBALL	Toys	1	3	[0, 0, 0]	n/a	catFR1	0	R1467M
459.093	2.082	515423	REC_WORD	2.062	n/a	BASKETBALL	Toys	2	3	[0, 0, 0]	n/a	catFR1	0	R1467M
461.175	1.136	517505	REC_WORD	4.144	n/a	RULER	OfficeSupplies	9	3	[0, 0, 0]	n/a	catFR1	0	R1467M
462.311	1.924	518641	REC_WORD	5.28	n/a	BINDER	OfficeSupplies	10	3	[0, 0, 0]	n/a	catFR1	0	R1467M
464.235	0.988	520565	REC_WORD	7.204	n/a	GLUE	OfficeSupplies	3	3	[0, 0, 0]	n/a	catFR1	0	R1467M
465.223	12.92	521553	REC_WORD	8.192	n/a	PENCIL	OfficeSupplies	4	3	[0, 0, 0]	n/a	catFR1	0	R1467M
478.143	0.981	534472	REC_WORD	21.112	n/a	TURKEY	FarmAnimals	5	3	[0, 0, 0]	n/a	catFR1	0	R1467M
479.124	8.187	535453	REC_WORD	22.093	n/a	GOAT	FarmAnimals	6	3	[0, 0, 0]	n/a	catFR1	0	R1467M
487.311	1.803	543643	REC_END	n/a	n/a	n/a	n/a	-999	3	[0, 0, 0]	n/a	catFR1	0	R1467M
489.114	10.0	545447	COUNTDOWN_START	n/a	n/a	n/a	n/a	-999	4	[0, 0, 0]	n/a	catFR1	0	R1467M
499.464	0.0	555795	COUNTDOWN_END	n/a	n/a	n/a	n/a	-999	4	[0, 0, 0]	n/a	catFR1	0	R1467M
499.464	1.95	555795	ENCODING_START	n/a	n/a	n/a	n/a	-999	4	[0, 0, 0]	n/a	catFR1	0	R1467M
501.414	1.6	557737	WORD	n/a	wordpools/wordpool_categorized_EN.txt	VAN	Vehicles	1	4	[0, 0, 0]	n/a	catFR1	0	R1467M
503.014	1.0	559335	WORD_OFF	n/a	n/a	VAN	Vehicles	1	4	[0, 0, 0]	n/a	catFR1	0	R1467M
504.014	1.6	560341	WORD	n/a	wordpools/wordpool_categorized_EN.txt	MOTORCYCLE	Vehicles	2	4	[0, 0, 0]	n/a	catFR1	0	R1467M
505.614	0.766	561939	WORD_OFF	n/a	n/a	MOTORCYCLE	Vehicles	2	4	[0, 0, 0]	n/a	catFR1	0	R1467M
506.38	1.6	562711	WORD	n/a	wordpools/wordpool_categorized_EN.txt	ROBIN	Birds	3	4	[0, 0, 0]	n/a	catFR1	0	R1467M
507.998	0.916	564337	WORD_OFF	n/a	n/a	ROBIN	Birds	3	4	[0, 0, 0]	n/a	catFR1	0	R1467M
508.914	1.6	565246	WORD	n/a	wordpools/wordpool_categorized_EN.txt	GOOSE	Birds	4	4	[0, 0, 0]	n/a	catFR1	0	R1467M
510.514	0.916	566844	WORD_OFF	n/a	n/a	GOOSE	Birds	4	4	[0, 0, 0]	n/a	catFR1	0	R1467M
511.43	1.6	567754	WORD	n/a	wordpools/wordpool_categorized_EN.txt	DOLL	Toys	5	4	[0, 0, 0]	n/a	catFR1	0	R1467M
513.047	0.917	569379	WORD_OFF	n/a	n/a	DOLL	Toys	5	4	[0, 0, 0]	n/a	catFR1	0	R1467M
513.964	1.6	570289	WORD	n/a	wordpools/wordpool_categorized_EN.txt	BARBIE	Toys	6	4	[0, 0, 0]	n/a	catFR1	0	R1467M
515.564	0.766	571887	WORD_OFF	n/a	n/a	BARBIE	Toys	6	4	[0, 0, 0]	n/a	catFR1	0	R1467M
516.33	1.6	572659	WORD	n/a	wordpools/wordpool_categorized_EN.txt	JEEP	Vehicles	7	4	[0, 0, 0]	n/a	catFR1	0	R1467M
517.946	0.868	574271	WORD_OFF	n/a	n/a	JEEP	Vehicles	7	4	[0, 0, 0]	n/a	catFR1	0	R1467M
518.814	1.6	575139	WORD	n/a	wordpools/wordpool_categorized_EN.txt	BOAT	Vehicles	8	4	[0, 0, 0]	n/a	catFR1	0	R1467M
520.413	0.884	576737	WORD_OFF	n/a	n/a	BOAT	Vehicles	8	4	[0, 0, 0]	n/a	catFR1	0	R1467M
521.297	1.6	577619	WORD	n/a	wordpools/wordpool_categorized_EN.txt	BALL	Toys	9	4	[0, 0, 0]	n/a	catFR1	0	R1467M
522.913	0.834	579244	WORD_OFF	n/a	n/a	BALL	Toys	9	4	[0, 0, 0]	n/a	catFR1	0	R1467M
523.747	1.6	580071	WORD	n/a	wordpools/wordpool_categorized_EN.txt	MARBLES	Toys	10	4	[0, 0, 0]	n/a	catFR1	0	R1467M
525.347	0.8	581669	WORD_OFF	n/a	n/a	MARBLES	Toys	10	4	[0, 0, 0]	n/a	catFR1	0	R1467M
526.147	1.6	582468	WORD	n/a	wordpools/wordpool_categorized_EN.txt	SEAGULL	Birds	11	4	[0, 0, 0]	n/a	catFR1	0	R1467M
527.763	0.967	584094	WORD_OFF	n/a	n/a	SEAGULL	Birds	11	4	[0, 0, 0]	n/a	catFR1	0	R1467M
528.73	1.6	585059	WORD	n/a	wordpools/wordpool_categorized_EN.txt	DUCK	Birds	12	4	[0, 0, 0]	n/a	catFR1	0	R1467M
530.33	0.001	586657	WORD_OFF	n/a	n/a	DUCK	Birds	12	4	[0, 0, 0]	n/a	catFR1	0	R1467M
530.331	0.0	586657	ENCODING_END	n/a	n/a	n/a	n/a	-999	4	[0, 0, 0]	n/a	catFR1	0	R1467M
530.331	0.0	586657	DISTRACT_START	n/a	n/a	n/a	n/a	-999	4	[0, 0, 0]	n/a	catFR1	0	R1467M
530.33	0.001	586657	PROB	3.3	n/a	n/a	n/a	-999	4	[1, 4, 5]	10.0	catFR1	0	R1467M
530.331	3.316	586658	START	n/a	n/a	n/a	n/a	-999	4	[-999, -999, -999]	n/a	catFR1	0	R1467M
533.647	2.916	589973	PROB	2.9	n/a	n/a	n/a	-999	4	[6, 2, 4]	12.0	catFR1	0	R1467M
536.563	4.918	592889	PROB	4.9	n/a	n/a	n/a	-999	4	[2, 7, 4]	13.0	catFR1	0	R1467M
541.481	4.05	597807	PROB	4.033	n/a	n/a	n/a	-999	4	[1, 7, 5]	12.0	catFR1	0	R1467M
545.531	3.968	601857	PROB	3.95	n/a	n/a	n/a	-999	4	[2, 3, 8]	13.0	catFR1	0	R1467M
549.499	2.748	605825	PROB	2.732	n/a	n/a	n/a	-999	4	[1, 3, 8]	12.0	catFR1	0	R1467M
552.247	0.0	608573	STOP	n/a	n/a	n/a	n/a	-999	4	[-999, -999, -999]	n/a	catFR1	0	R1467M
552.247	2.234	608577	DISTRACT_END	n/a	n/a	n/a	n/a	-999	4	[0, 0, 0]	n/a	catFR1	0	R1467M
554.481	1.19	610803	REC_START	n/a	n/a	n/a	n/a	-999	4	[0, 0, 0]	n/a	catFR1	0	R1467M
555.671	1.155	611996	REC_WORD	1.19	n/a	VAN	Vehicles	1	4	[0, 0, 0]	n/a	catFR1	0	R1467M
556.826	1.063	613151	REC_WORD	2.345	n/a	GOOSE	Birds	4	4	[0, 0, 0]	n/a	catFR1	0	R1467M
557.889	2.991	614214	REC_WORD	3.408	n/a	DUCK	Birds	12	4	[0, 0, 0]	n/a	catFR1	0	R1467M
560.88	1.026	617205	REC_WORD	6.399	n/a	JEEP	Vehicles	7	4	[0, 0, 0]	n/a	catFR1	0	R1467M
561.906	1.146	618231	REC_WORD	7.425	n/a	BARBIE	Toys	6	4	[0, 0, 0]	n/a	catFR1	0	R1467M
563.052	5.699	619377	REC_WORD	8.571	n/a	DOLL	Toys	5	4	[0, 0, 0]	n/a	catFR1	0	R1467M
568.751	0.48	625076	REC_WORD_VV	14.27	n/a	<>	n/a	-999	4	[0, 0, 0]	n/a	catFR1	0	R1467M
569.231	1.0	625556	REC_WORD	14.75	n/a	MOTORCYCLE	Vehicles	2	4	[0, 0, 0]	n/a	catFR1	0	R1467M
570.231	2.4	626556	REC_WORD_VV	15.75	n/a	<>	n/a	-999	4	[0, 0, 0]	n/a	catFR1	0	R1467M
572.631	9.962	628956	REC_WORD	18.15	n/a	GOAT	FarmAnimals	-999	4	[0, 0, 0]	n/a	catFR1	0	R1467M
582.593	2.172	638917	REC_WORD	28.112	n/a	SEAGULL	Birds	11	4	[0, 0, 0]	n/a	catFR1	0	R1467M
584.765	2.766	641093	REC_END	n/a	n/a	n/a	n/a	-999	4	[0, 0, 0]	n/a	catFR1	0	R1467M
587.531	10.0	643862	COUNTDOWN_START	n/a	n/a	n/a	n/a	-999	5	[0, 0, 0]	n/a	catFR1	0	R1467M
597.881	0.0	654209	COUNTDOWN_END	n/a	n/a	n/a	n/a	-999	5	[0, 0, 0]	n/a	catFR1	0	R1467M
597.881	2.3	654209	ENCODING_START	n/a	n/a	n/a	n/a	-999	5	[0, 0, 0]	n/a	catFR1	0	R1467M
600.181	1.6	656510	WORD	n/a	wordpools/wordpool_categorized_EN.txt	ISLAND	Landscapes	1	5	[0, 0, 0]	n/a	catFR1	0	R1467M
601.796	0.867	658122	WORD_OFF	n/a	n/a	ISLAND	Landscapes	1	5	[0, 0, 0]	n/a	catFR1	0	R1467M
602.663	1.6	658990	WORD	n/a	wordpools/wordpool_categorized_EN.txt	BEACH	Landscapes	2	5	[0, 0, 0]	n/a	catFR1	0	R1467M
604.264	1.0	660588	WORD_OFF	n/a	n/a	BEACH	Landscapes	2	5	[0, 0, 0]	n/a	catFR1	0	R1467M
605.264	1.6	661594	WORD	n/a	wordpools/wordpool_categorized_EN.txt	KNEE	BodyParts	3	5	[0, 0, 0]	n/a	catFR1	0	R1467M
606.864	0.983	663192	WORD_OFF	n/a	n/a	KNEE	BodyParts	3	5	[0, 0, 0]	n/a	catFR1	0	R1467M
607.847	1.6	664170	WORD	n/a	wordpools/wordpool_categorized_EN.txt	HAND	BodyParts	4	5	[0, 0, 0]	n/a	catFR1	0	R1467M
609.464	0.85	665782	WORD_OFF	n/a	n/a	HAND	BodyParts	4	5	[0, 0, 0]	n/a	catFR1	0	R1467M
610.314	1.6	666637	WORD	n/a	wordpools/wordpool_categorized_EN.txt	SUEDE	Fabric	5	5	[0, 0, 0]	n/a	catFR1	0	R1467M
611.93	0.784	668249	WORD_OFF	n/a	n/a	SUEDE	Fabric	5	5	[0, 0, 0]	n/a	catFR1	0	R1467M
612.714	1.6	669034	WORD	n/a	wordpools/wordpool_categorized_EN.txt	SILK	Fabric	6	5	[0, 0, 0]	n/a	catFR1	0	R1467M
614.33	0.933	670660	WORD_OFF	n/a	n/a	SILK	Fabric	6	5	[0, 0, 0]	n/a	catFR1	0	R1467M
615.263	1.6	671583	WORD	n/a	wordpools/wordpool_categorized_EN.txt	ELBOW	BodyParts	7	5	[0, 0, 0]	n/a	catFR1	0	R1467M
616.864	0.866	673181	WORD_OFF	n/a	n/a	ELBOW	BodyParts	7	5	[0, 0, 0]	n/a	catFR1	0	R1467M
617.73	1.6	674049	WORD	n/a	wordpools/wordpool_categorized_EN.txt	FINGERS	BodyParts	8	5	[0, 0, 0]	n/a	catFR1	0	R1467M
619.347	0.817	675675	WORD_OFF	n/a	n/a	FINGERS	BodyParts	8	5	[0, 0, 0]	n/a	catFR1	0	R1467M
620.164	1.6	676488	WORD	n/a	wordpools/wordpool_categorized_EN.txt	FLEECE	Fabric	9	5	[0, 0, 0]	n/a	catFR1	0	R1467M
621.765	0.915	678086	WORD_OFF	n/a	n/a	FLEECE	Fabric	9	5	[0, 0, 0]	n/a	catFR1	0	R1467M
622.68	1.6	679009	WORD	n/a	wordpools/wordpool_categorized_EN.txt	NYLON	Fabric	10	5	[0, 0, 0]	n/a	catFR1	0	R1467M
624.297	0.799	680621	WORD_OFF	n/a	n/a	NYLON	Fabric	10	5	[0, 0, 0]	n/a	catFR1	0	R1467M
625.096	1.6	681420	WORD	n/a	wordpools/wordpool_categorized_EN.txt	LAKE	Landscapes	11	5	[0, 0, 0]	n/a	catFR1	0	R1467M
626.697	1.0	683018	WORD_OFF	n/a	n/a	LAKE	Landscapes	11	5	[0, 0, 0]	n/a	catFR1	0	R1467M
627.697	1.6	684024	WORD	n/a	wordpools/wordpool_categorized_EN.txt	FOREST	Landscapes	12	5	[0, 0, 0]	n/a	catFR1	0	R1467M
629.298	0.0	685620	START	n/a	n/a	n/a	n/a	-999	5	[-999, -999, -999]	n/a	catFR1	0	R1467M
629.298	0.0	685620	PROB	4.332	n/a	n/a	n/a	-999	5	[4, 3, 3]	12.0	catFR1	0	R1467M
629.297	0.001	685622	WORD_OFF	n/a	n/a	FOREST	Landscapes	12	5	[0, 0, 0]	n/a	catFR1	0	R1467M
629.298	0.0	685622	ENCODING_END	n/a	n/a	n/a	n/a	-999	5	[0, 0, 0]	n/a	catFR1	0	R1467M
629.298	4.349	685622	DISTRACT_START	n/a	n/a	n/a	n/a	-999	5	[0, 0, 0]	n/a	catFR1	0	R1467M
633.647	4.333	689969	PROB	4.316	n/a	n/a	n/a	-999	5	[5, 3, 4]	12.0	catFR1	0	R1467M
637.98	5.017	694302	PROB	4.999	n/a	n/a	n/a	-999	5	[7, 5, 8]	19.0	catFR1	0	R1467M
642.997	4.417	699318	PROB	4.4	n/a	n/a	n/a	-999	5	[6, 4, 1]	11.0	catFR1	0	R1467M
647.414	2.784	703735	PROB	2.767	n/a	n/a	n/a	-999	5	[8, 1, 8]	17.0	catFR1	0	R1467M
650.198	0.0	706519	STOP	n/a	n/a	n/a	n/a	-999	5	[-999, -999, -999]	n/a	catFR1	0	R1467M
650.198	2.35	706523	DISTRACT_END	n/a	n/a	n/a	n/a	-999	5	[0, 0, 0]	n/a	catFR1	0	R1467M
652.548	0.682	708874	REC_START	n/a	n/a	n/a	n/a	-999	5	[0, 0, 0]	n/a	catFR1	0	R1467M
653.23	1.006	709551	REC_WORD	0.682	n/a	BEACH	Landscapes	2	5	[0, 0, 0]	n/a	catFR1	0	R1467M
654.236	1.426	710557	REC_WORD_VV	1.688	n/a	<>	n/a	-999	5	[0, 0, 0]	n/a	catFR1	0	R1467M
655.662	3.797	711983	REC_WORD	3.114	n/a	LAKE	Landscapes	11	5	[0, 0, 0]	n/a	catFR1	0	R1467M
659.459	2.681	715780	REC_WORD	6.911	n/a	OAR	n/a	-999	5	[0, 0, 0]	n/a	catFR1	0	R1467M
662.14	0.742	718460	REC_WORD	9.592	n/a	ELBOW	BodyParts	7	5	[0, 0, 0]	n/a	catFR1	0	R1467M
662.882	5.377	719202	REC_WORD	10.334	n/a	FINGERS	BodyParts	8	5	[0, 0, 0]	n/a	catFR1	0	R1467M
668.259	1.028	724579	REC_WORD	15.711	n/a	SUEDE	Fabric	5	5	[0, 0, 0]	n/a	catFR1	0	R1467M
669.287	1.085	725607	REC_WORD	16.739	n/a	NYLON	Fabric	10	5	[0, 0, 0]	n/a	catFR1	0	R1467M
670.372	1.128	726692	REC_WORD	17.824	n/a	FLEECE	Fabric	9	5	[0, 0, 0]	n/a	catFR1	0	R1467M
671.5	11.339	727820	REC_WORD_VV	18.952	n/a	<>	n/a	-999	5	[0, 0, 0]	n/a	catFR1	0	R1467M
682.839	1.608	739163	REC_END	n/a	n/a	n/a	n/a	-999	5	[0, 0, 0]	n/a	catFR1	0	R1467M
684.447	10.0	740775	COUNTDOWN_START	n/a	n/a	n/a	n/a	-999	6	[0, 0, 0]	n/a	catFR1	0	R1467M
694.798	0.0	751122	COUNTDOWN_END	n/a	n/a	n/a	n/a	-999	6	[0, 0, 0]	n/a	catFR1	0	R1467M
694.798	2.216	751122	ENCODING_START	n/a	n/a	n/a	n/a	-999	6	[0, 0, 0]	n/a	catFR1	0	R1467M
697.014	1.6	753340	WORD	n/a	wordpools/wordpool_categorized_EN.txt	HICKORY	Trees	1	6	[0, 0, 0]	n/a	catFR1	0	R1467M
698.631	0.8	754952	WORD_OFF	n/a	n/a	HICKORY	Trees	1	6	[0, 0, 0]	n/a	catFR1	0	R1467M
699.431	1.6	755751	WORD	n/a	wordpools/wordpool_categorized_EN.txt	CEDAR	Trees	2	6	[0, 0, 0]	n/a	catFR1	0	R1467M
701.031	0.766	757350	WORD_OFF	n/a	n/a	CEDAR	Trees	2	6	[0, 0, 0]	n/a	catFR1	0	R1467M
701.797	1.6	758121	WORD	n/a	wordpools/wordpool_categorized_EN.txt	LIME	Fruit	3	6	[0, 0, 0]	n/a	catFR1	0	R1467M
703.414	1.0	759733	WORD_OFF	n/a	n/a	LIME	Fruit	3	6	[0, 0, 0]	n/a	catFR1	0	R1467M
704.414	1.6	760739	WORD	n/a	wordpools/wordpool_categorized_EN.txt	GRAPE	Fruit	4	6	[0, 0, 0]	n/a	catFR1	0	R1467M
706.014	1.0	762337	WORD_OFF	n/a	n/a	GRAPE	Fruit	4	6	[0, 0, 0]	n/a	catFR1	0	R1467M
707.014	1.6	763329	WORD	n/a	wordpools/wordpool_categorized_EN.txt	NOTEBOOK	OfficeSupplies	5	6	[0, 0, 0]	n/a	catFR1	0	R1467M
708.63	0.916	764955	WORD_OFF	n/a	n/a	NOTEBOOK	OfficeSupplies	5	6	[0, 0, 0]	n/a	catFR1	0	R1467M
709.546	1.6	765864	WORD	n/a	wordpools/wordpool_categorized_EN.txt	ERASER	OfficeSupplies	6	6	[0, 0, 0]	n/a	catFR1	0	R1467M
711.147	0.817	767462	WORD_OFF	n/a	n/a	ERASER	OfficeSupplies	6	6	[0, 0, 0]	n/a	catFR1	0	R1467M
711.964	1.6	768289	WORD	n/a	wordpools/wordpool_categorized_EN.txt	SPRUCE	Trees	7	6	[0, 0, 0]	n/a	catFR1	0	R1467M
713.582	0.948	769901	WORD_OFF	n/a	n/a	SPRUCE	Trees	7	6	[0, 0, 0]	n/a	catFR1	0	R1467M
714.53	1.6	770852	WORD	n/a	wordpools/wordpool_categorized_EN.txt	ELM	Trees	8	6	[0, 0, 0]	n/a	catFR1	0	R1467M
716.147	0.967	772464	WORD_OFF	n/a	n/a	ELM	Trees	8	6	[0, 0, 0]	n/a	catFR1	0	R1467M
717.114	1.6	773428	WORD	n/a	wordpools/wordpool_categorized_EN.txt	APPLE	Fruit	9	6	[0, 0, 0]	n/a	catFR1	0	R1467M
718.714	0.85	775026	WORD_OFF	n/a	n/a	APPLE	Fruit	9	6	[0, 0, 0]	n/a	catFR1	0	R1467M
719.564	1.6	775881	WORD	n/a	wordpools/wordpool_categorized_EN.txt	CHERRY	Fruit	10	6	[0, 0, 0]	n/a	catFR1	0	R1467M
721.164	0.816	777479	WORD_OFF	n/a	n/a	CHERRY	Fruit	10	6	[0, 0, 0]	n/a	catFR1	0	R1467M
721.98	1.6	778306	WORD	n/a	wordpools/wordpool_categorized_EN.txt	PAPER	OfficeSupplies	11	6	[0, 0, 0]	n/a	catFR1	0	R1467M
723.581	0.949	779904	WORD_OFF	n/a	n/a	PAPER	OfficeSupplies	11	6	[0, 0, 0]	n/a	catFR1	0	R1467M
724.53	1.6	780854	WORD	n/a	wordpools/wordpool_categorized_EN.txt	TAPE	OfficeSupplies	12	6	[0, 0, 0]	n/a	catFR1	0	R1467M
726.147	0.0	782464	PROB	7.133	n/a	n/a	n/a	-999	6	[1, 5, 7]	13.0	catFR1	0	R1467M
726.147	0.001	782466	WORD_OFF	n/a	n/a	TAPE	OfficeSupplies	12	6	[0, 0, 0]	n/a	catFR1	0	R1467M
726.148	0.001	782466	ENCODING_END	n/a	n/a	n/a	n/a	-999	6	[0, 0, 0]	n/a	catFR1	0	R1467M
726.149	0.0	782466	DISTRACT_START	n/a	n/a	n/a	n/a	-999	6	[0, 0, 0]	n/a	catFR1	0	R1467M
726.149	7.148	782466	START	n/a	n/a	n/a	n/a	-999	6	[-999, -999, -999]	n/a	catFR1	0	R1467M
733.297	2.517	789614	PROB	2.499	n/a	n/a	n/a	-999	6	[2, 8, 2]	12.0	catFR1	0	R1467M
735.814	2.95	792131	PROB	2.933	n/a	n/a	n/a	-999	6	[4, 4, 1]	9.0	catFR1	0	R1467M
738.764	2.783	795081	PROB	2.766	n/a	n/a	n/a	-999	6	[8, 1, 1]	10.0	catFR1	0	R1467M
741.547	2.95	797864	PROB	2.933	n/a	n/a	n/a	-999	6	[3, 1, 8]	12.0	catFR1	0	R1467M
744.497	4.384	800814	PROB	4.366	n/a	n/a	n/a	-999	6	[7, 1, 8]	15.0	catFR1	0	R1467M
748.881	0.0	805197	STOP	n/a	n/a	n/a	n/a	-999	6	[-999, -999, -999]	n/a	catFR1	0	R1467M
748.881	2.117	805200	DISTRACT_END	n/a	n/a	n/a	n/a	-999	6	[0, 0, 0]	n/a	catFR1	0	R1467M
750.998	0.372	807316	REC_START	n/a	n/a	n/a	n/a	-999	6	[0, 0, 0]	n/a	catFR1	0	R1467M
751.37	1.0	807686	REC_WORD	0.372	n/a	CEDAR	Trees	2	6	[0, 0, 0]	n/a	catFR1	0	R1467M
752.37	1.067	808686	REC_WORD_VV	1.372	n/a	<>	n/a	-999	6	[0, 0, 0]	n/a	catFR1	0	R1467M
753.437	1.213	809753	REC_WORD	2.439	n/a	CHERRY	Fruit	10	6	[0, 0, 0]	n/a	catFR1	0	R1467M
754.65	1.973	810966	REC_WORD	3.652	n/a	GRAPE	Fruit	4	6	[0, 0, 0]	n/a	catFR1	0	R1467M
756.623	2.04	812939	REC_WORD	5.625	n/a	APPLE	Fruit	9	6	[0, 0, 0]	n/a	catFR1	0	R1467M
758.663	4.83	814979	REC_WORD	7.665	n/a	HICKORY	Trees	1	6	[0, 0, 0]	n/a	catFR1	0	R1467M
763.493	17.808	819809	REC_WORD	12.495	n/a	BINE	n/a	-999	6	[0, 0, 0]	n/a	catFR1	0	R1467M
781.301	1.548	837619	REC_END	n/a	n/a	n/a	n/a	-999	6	[0, 0, 0]	n/a	catFR1	0	R1467M
782.849	10.0	839162	COUNTDOWN_START	n/a	n/a	n/a	n/a	-999	7	[0, 0, 0]	n/a	catFR1	0	R1467M
793.197	0.001	849509	COUNTDOWN_END	n/a	n/a	n/a	n/a	-999	7	[0, 0, 0]	n/a	catFR1	0	R1467M
793.198	2.283	849509	ENCODING_START	n/a	n/a	n/a	n/a	-999	7	[0, 0, 0]	n/a	catFR1	0	R1467M
795.481	1.6	851796	WORD	n/a	wordpools/wordpool_categorized_EN.txt	TELEVISION	Electronics	1	7	[0, 0, 0]	n/a	catFR1	0	R1467M
797.081	0.983	853394	WORD_OFF	n/a	n/a	TELEVISION	Electronics	1	7	[0, 0, 0]	n/a	catFR1	0	R1467M
798.064	1.6	854373	WORD	n/a	wordpools/wordpool_categorized_EN.txt	HEADPHONES	Electronics	2	7	[0, 0, 0]	n/a	catFR1	0	R1467M
799.664	0.95	855985	WORD_OFF	n/a	n/a	HEADPHONES	Electronics	2	7	[0, 0, 0]	n/a	catFR1	0	R1467M
800.614	1.6	856921	WORD	n/a	wordpools/wordpool_categorized_EN.txt	SATIN	Fabric	3	7	[0, 0, 0]	n/a	catFR1	0	R1467M
802.214	0.833	858533	WORD_OFF	n/a	n/a	SATIN	Fabric	3	7	[0, 0, 0]	n/a	catFR1	0	R1467M
803.047	1.6	859360	WORD	n/a	wordpools/wordpool_categorized_EN.txt	LEATHER	Fabric	4	7	[0, 0, 0]	n/a	catFR1	0	R1467M
804.664	0.85	860972	WORD_OFF	n/a	n/a	LEATHER	Fabric	4	7	[0, 0, 0]	n/a	catFR1	0	R1467M
805.514	1.6	861826	WORD	n/a	wordpools/wordpool_categorized_EN.txt	LEG	BodyParts	5	7	[0, 0, 0]	n/a	catFR1	0	R1467M
807.13	0.884	863438	WORD_OFF	n/a	n/a	LEG	BodyParts	5	7	[0, 0, 0]	n/a	catFR1	0	R1467M
808.014	1.6	864334	WORD	n/a	wordpools/wordpool_categorized_EN.txt	ARM	BodyParts	6	7	[0, 0, 0]	n/a	catFR1	0	R1467M
809.631	0.833	865946	WORD_OFF	n/a	n/a	ARM	BodyParts	6	7	[0, 0, 0]	n/a	catFR1	0	R1467M
810.464	1.6	866773	WORD	n/a	wordpools/wordpool_categorized_EN.txt	STEREO	Electronics	7	7	[0, 0, 0]	n/a	catFR1	0	R1467M
812.08	0.934	868398	WORD_OFF	n/a	n/a	STEREO	Electronics	7	7	[0, 0, 0]	n/a	catFR1	0	R1467M
813.014	1.6	869321	WORD	n/a	wordpools/wordpool_categorized_EN.txt	PHONE	Electronics	8	7	[0, 0, 0]	n/a	catFR1	0	R1467M
814.614	0.816	870933	WORD_OFF	n/a	n/a	PHONE	Electronics	8	7	[0, 0, 0]	n/a	catFR1	0	R1467M
815.43	1.6	871746	WORD	n/a	wordpools/wordpool_categorized_EN.txt	LINEN	Fabric	9	7	[0, 0, 0]	n/a	catFR1	0	R1467M
817.03	0.8	873345	WORD_OFF	n/a	n/a	LINEN	Fabric	9	7	[0, 0, 0]	n/a	catFR1	0	R1467M
817.83	1.6	874144	WORD	n/a	wordpools/wordpool_categorized_EN.txt	SPANDEX	Fabric	10	7	[0, 0, 0]	n/a	catFR1	0	R1467M
819.447	0.95	875756	WORD_OFF	n/a	n/a	SPANDEX	Fabric	10	7	[0, 0, 0]	n/a	catFR1	0	R1467M
820.397	1.6	876706	WORD	n/a	wordpools/wordpool_categorized_EN.txt	FOOT	BodyParts	11	7	[0, 0, 0]	n/a	catFR1	0	R1467M
821.997	0.851	878305	WORD_OFF	n/a	n/a	FOOT	BodyParts	11	7	[0, 0, 0]	n/a	catFR1	0	R1467M
822.848	1.6	879159	WORD	n/a	wordpools/wordpool_categorized_EN.txt	NOSE	BodyParts	12	7	[0, 0, 0]	n/a	catFR1	0	R1467M
824.463	0.001	880771	WORD_OFF	n/a	n/a	NOSE	BodyParts	12	7	[0, 0, 0]	n/a	catFR1	0	R1467M
824.464	0.001	880777	PROB	3.716	n/a	n/a	n/a	-999	7	[2, 3, 1]	6.0	catFR1	0	R1467M
824.465	0.0	880778	START	n/a	n/a	n/a	n/a	-999	7	[-999, -999, -999]	n/a	catFR1	0	R1467M
824.465	0.0	880785	ENCODING_END	n/a	n/a	n/a	n/a	-999	7	[0, 0, 0]	n/a	catFR1	0	R1467M
824.465	3.732	880785	DISTRACT_START	n/a	n/a	n/a	n/a	-999	7	[0, 0, 0]	n/a	catFR1	0	R1467M
828.197	3.4	884510	PROB	3.383	n/a	n/a	n/a	-999	7	[6, 6, 6]	18.0	catFR1	0	R1467M
831.597	9.034	887910	PROB	9.016	n/a	n/a	n/a	-999	7	[8, 4, 8]	20.0	catFR1	0	R1467M
840.631	6.316	896943	PROB	6.299	n/a	n/a	n/a	-999	7	[8, 5, 3]	16.0	catFR1	0	R1467M
846.947	0.0	903256	DISTRACT_END	n/a	n/a	n/a	n/a	-999	7	[0, 0, 0]	n/a	catFR1	0	R1467M
846.947	2.266	903259	STOP	n/a	n/a	n/a	n/a	-999	7	[-999, -999, -999]	n/a	catFR1	0	R1467M
849.213	4.186	905524	REC_START	n/a	n/a	n/a	n/a	-999	7	[0, 0, 0]	n/a	catFR1	0	R1467M
853.399	1.0	909711	REC_WORD_VV	4.186	n/a	<>	n/a	-999	7	[0, 0, 0]	n/a	catFR1	0	R1467M
854.399	1.576	910711	REC_WORD_VV	5.186	n/a	<>	n/a	-999	7	[0, 0, 0]	n/a	catFR1	0	R1467M
855.975	1.843	912286	REC_WORD	6.762	n/a	FLEECE	Fabric	-999	7	[0, 0, 0]	n/a	catFR1	0	R1467M
857.818	1.489	914129	REC_WORD	8.605	n/a	SATIN	Fabric	3	7	[0, 0, 0]	n/a	catFR1	0	R1467M
859.307	1.262	915618	REC_WORD	10.094	n/a	LEATHER	Fabric	4	7	[0, 0, 0]	n/a	catFR1	0	R1467M
860.569	1.679	916880	REC_WORD	11.356	n/a	LEG	BodyParts	5	7	[0, 0, 0]	n/a	catFR1	0	R1467M
862.248	1.679	918559	REC_WORD	13.035	n/a	ARM	BodyParts	6	7	[0, 0, 0]	n/a	catFR1	0	R1467M
863.927	0.91	920238	REC_WORD	14.714	n/a	TELEVISION	Electronics	1	7	[0, 0, 0]	n/a	catFR1	0	R1467M
864.837	1.279	921148	REC_WORD	15.624	n/a	HEADPHONES	Electronics	2	7	[0, 0, 0]	n/a	catFR1	0	R1467M
866.116	1.364	922427	REC_WORD	16.903	n/a	PHONE	Electronics	8	7	[0, 0, 0]	n/a	catFR1	0	R1467M
867.48	12.013	923791	REC_WORD	18.267	n/a	STEREO	Electronics	7	7	[0, 0, 0]	n/a	catFR1	0	R1467M
879.493	1.737	935799	REC_END	n/a	n/a	n/a	n/a	-999	7	[0, 0, 0]	n/a	catFR1	0	R1467M
881.23	10.0	937536	COUNTDOWN_START	n/a	n/a	n/a	n/a	-999	8	[0, 0, 0]	n/a	catFR1	0	R1467M
891.58	0.001	947896	COUNTDOWN_END	n/a	n/a	n/a	n/a	-999	8	[0, 0, 0]	n/a	catFR1	0	R1467M
891.581	2.05	947896	ENCODING_START	n/a	n/a	n/a	n/a	-999	8	[0, 0, 0]	n/a	catFR1	0	R1467M
893.631	1.6	949935	WORD	n/a	wordpools/wordpool_categorized_EN.txt	HALLWAY	Building	1	8	[0, 0, 0]	n/a	catFR1	0	R1467M
895.231	1.0	951547	WORD_OFF	n/a	n/a	HALLWAY	Building	1	8	[0, 0, 0]	n/a	catFR1	0	R1467M
896.231	1.6	952539	WORD	n/a	wordpools/wordpool_categorized_EN.txt	WINDOW	Building	2	8	[0, 0, 0]	n/a	catFR1	0	R1467M
897.831	0.933	954137	WORD_OFF	n/a	n/a	WINDOW	Building	2	8	[0, 0, 0]	n/a	catFR1	0	R1467M
898.764	1.6	955074	WORD	n/a	wordpools/wordpool_categorized_EN.txt	WATER	Beverages	3	8	[0, 0, 0]	n/a	catFR1	0	R1467M
900.364	0.95	956686	WORD_OFF	n/a	n/a	WATER	Beverages	3	8	[0, 0, 0]	n/a	catFR1	0	R1467M
901.314	1.6	957623	WORD	n/a	wordpools/wordpool_categorized_EN.txt	COFFEE	Beverages	4	8	[0, 0, 0]	n/a	catFR1	0	R1467M
902.931	0.866	959235	WORD_OFF	n/a	n/a	COFFEE	Beverages	4	8	[0, 0, 0]	n/a	catFR1	0	R1467M
903.797	1.6	960103	WORD	n/a	wordpools/wordpool_categorized_EN.txt	PRINTER	Electronics	5	8	[0, 0, 0]	n/a	catFR1	0	R1467M
905.414	0.883	961729	WORD_OFF	n/a	n/a	PRINTER	Electronics	5	8	[0, 0, 0]	n/a	catFR1	0	R1467M
906.297	1.6	962611	WORD	n/a	wordpools/wordpool_categorized_EN.txt	TABLET	Electronics	6	8	[0, 0, 0]	n/a	catFR1	0	R1467M
907.897	0.95	964209	WORD_OFF	n/a	n/a	TABLET	Electronics	6	8	[0, 0, 0]	n/a	catFR1	0	R1467M
908.847	1.6	965160	WORD	n/a	wordpools/wordpool_categorized_EN.txt	CEILING	Building	7	8	[0, 0, 0]	n/a	catFR1	0	R1467M
910.464	1.0	966772	WORD_OFF	n/a	n/a	CEILING	Building	7	8	[0, 0, 0]	n/a	catFR1	0	R1467M
911.464	1.6	967777	WORD	n/a	wordpools/wordpool_categorized_EN.txt	FLOOR	Building	8	8	[0, 0, 0]	n/a	catFR1	0	R1467M
913.064	0.983	969376	WORD_OFF	n/a	n/a	FLOOR	Building	8	8	[0, 0, 0]	n/a	catFR1	0	R1467M
914.047	1.6	970354	WORD	n/a	wordpools/wordpool_categorized_EN.txt	SODA	Beverages	9	8	[0, 0, 0]	n/a	catFR1	0	R1467M
915.647	0.783	971952	WORD_OFF	n/a	n/a	SODA	Beverages	9	8	[0, 0, 0]	n/a	catFR1	0	R1467M
916.43	1.6	972737	WORD	n/a	wordpools/wordpool_categorized_EN.txt	BEER	Beverages	10	8	[0, 0, 0]	n/a	catFR1	0	R1467M
918.03	0.85	974349	WORD_OFF	n/a	n/a	BEER	Beverages	10	8	[0, 0, 0]	n/a	catFR1	0	R1467M
918.88	1.6	975190	WORD	n/a	wordpools/wordpool_categorized_EN.txt	SCANNER	Electronics	11	8	[0, 0, 0]	n/a	catFR1	0	R1467M
920.48	0.833	976788	WORD_OFF	n/a	n/a	SCANNER	Electronics	11	8	[0, 0, 0]	n/a	catFR1	0	R1467M
921.313	1.6	977628	WORD	n/a	wordpools/wordpool_categorized_EN.txt	MICROWAVE	Electronics	12	8	[0, 0, 0]	n/a	catFR1	0	R1467M
922.915	0.0	979223	START	n/a	n/a	n/a	n/a	-999	8	[-999, -999, -999]	n/a	catFR1	0	R1467M
922.915	0.0	979223	PROB	2.949	n/a	n/a	n/a	-999	8	[5, 1, 6]	12.0	catFR1	0	R1467M
922.914	0.001	979227	WORD_OFF	n/a	n/a	MICROWAVE	Electronics	12	8	[0, 0, 0]	n/a	catFR1	0	R1467M
922.915	0.0	979227	ENCODING_END	n/a	n/a	n/a	n/a	-999	8	[0, 0, 0]	n/a	catFR1	0	R1467M
922.915	2.966	979227	DISTRACT_START	n/a	n/a	n/a	n/a	-999	8	[0, 0, 0]	n/a	catFR1	0	R1467M
925.881	4.615	982189	PROB	4.599	n/a	n/a	n/a	-999	8	[1, 2, 4]	9.0	catFR1	0	R1467M
930.496	4.884	986804	PROB	4.867	n/a	n/a	n/a	-999	8	[5, 7, 7]	19.0	catFR1	0	R1467M
935.38	6.05	991688	PROB	6.033	n/a	n/a	n/a	-999	8	[6, 4, 5]	14.0	catFR1	0	R1467M
941.43	6.883	997737	PROB	6.866	n/a	n/a	n/a	-999	8	[3, 8, 3]	13.0	catFR1	0	R1467M
948.313	0.0	1004619	DISTRACT_END	n/a	n/a	n/a	n/a	-999	8	[0, 0, 0]	n/a	catFR1	0	R1467M
948.313	2.067	1004620	STOP	n/a	n/a	n/a	n/a	-999	8	[-999, -999, -999]	n/a	catFR1	0	R1467M
950.38	3.225	1006680	REC_START	n/a	n/a	n/a	n/a	-999	8	[0, 0, 0]	n/a	catFR1	0	R1467M
953.605	1.363	1009912	REC_WORD	3.225	n/a	HALLWAY	Building	1	8	[0, 0, 0]	n/a	catFR1	0	R1467M
954.968	2.978	1011275	REC_WORD	4.588	n/a	WINDOW	Building	2	8	[0, 0, 0]	n/a	catFR1	0	R1467M
957.946	1.006	1014253	REC_WORD	7.566	n/a	PRINTER	Electronics	5	8	[0, 0, 0]	n/a	catFR1	0	R1467M
958.952	5.156	1015259	REC_WORD	8.572	n/a	SCANNER	Electronics	11	8	[0, 0, 0]	n/a	catFR1	0	R1467M
964.108	0.899	1020414	REC_WORD	13.728	n/a	SODA	Beverages	9	8	[0, 0, 0]	n/a	catFR1	0	R1467M
965.007	2.026	1021313	REC_WORD	14.627	n/a	WATER	Beverages	3	8	[0, 0, 0]	n/a	catFR1	0	R1467M
967.033	1.439	1023339	REC_WORD	16.653	n/a	JUICE	n/a	-999	8	[0, 0, 0]	n/a	catFR1	0	R1467M
968.472	12.194	1024778	REC_WORD	18.092	n/a	BEER	Beverages	10	8	[0, 0, 0]	n/a	catFR1	0	R1467M
980.666	1.948	1036969	REC_END	n/a	n/a	n/a	n/a	-999	8	[0, 0, 0]	n/a	catFR1	0	R1467M
982.614	10.0	1038926	COUNTDOWN_START	n/a	n/a	n/a	n/a	-999	9	[0, 0, 0]	n/a	catFR1	0	R1467M
992.964	0.0	1049273	COUNTDOWN_END	n/a	n/a	n/a	n/a	-999	9	[0, 0, 0]	n/a	catFR1	0	R1467M
992.964	2.183	1049273	ENCODING_START	n/a	n/a	n/a	n/a	-999	9	[0, 0, 0]	n/a	catFR1	0	R1467M
995.147	1.6	1051450	WORD	n/a	wordpools/wordpool_categorized_EN.txt	BANJO	Instruments	1	9	[0, 0, 0]	n/a	catFR1	0	R1467M
996.764	0.933	1053075	WORD_OFF	n/a	n/a	BANJO	Instruments	1	9	[0, 0, 0]	n/a	catFR1	0	R1467M
997.697	1.6	1053999	WORD	n/a	wordpools/wordpool_categorized_EN.txt	FLUTE	Instruments	2	9	[0, 0, 0]	n/a	catFR1	0	R1467M
999.314	0.917	1055624	WORD_OFF	n/a	n/a	FLUTE	Instruments	2	9	[0, 0, 0]	n/a	catFR1	0	R1467M
1000.231	1.6	1056534	WORD	n/a	wordpools/wordpool_categorized_EN.txt	RADIO	Electronics	3	9	[0, 0, 0]	n/a	catFR1	0	R1467M
1001.847	0.867	1058159	WORD_OFF	n/a	n/a	RADIO	Electronics	3	9	[0, 0, 0]	n/a	catFR1	0	R1467M
1002.714	1.6	1059014	WORD	n/a	wordpools/wordpool_categorized_EN.txt	SPEAKER	Electronics	4	9	[0, 0, 0]	n/a	catFR1	0	R1467M
1004.331	0.816	1060639	WORD_OFF	n/a	n/a	SPEAKER	Electronics	4	9	[0, 0, 0]	n/a	catFR1	0	R1467M
1005.147	1.6	1061452	WORD	n/a	wordpools/wordpool_categorized_EN.txt	PIG	FarmAnimals	5	9	[0, 0, 0]	n/a	catFR1	0	R1467M
1006.747	0.783	1063051	WORD_OFF	n/a	n/a	PIG	FarmAnimals	5	9	[0, 0, 0]	n/a	catFR1	0	R1467M
1007.53	1.6	1063836	WORD	n/a	wordpools/wordpool_categorized_EN.txt	HEN	FarmAnimals	6	9	[0, 0, 0]	n/a	catFR1	0	R1467M
1009.131	0.882	1065434	WORD_OFF	n/a	n/a	HEN	FarmAnimals	6	9	[0, 0, 0]	n/a	catFR1	0	R1467M
1010.013	1.6	1066316	WORD	n/a	wordpools/wordpool_categorized_EN.txt	TRUMPET	Instruments	7	9	[0, 0, 0]	n/a	catFR1	0	R1467M
1011.614	0.917	1067914	WORD_OFF	n/a	n/a	TRUMPET	Instruments	7	9	[0, 0, 0]	n/a	catFR1	0	R1467M
1012.531	1.6	1068837	WORD	n/a	wordpools/wordpool_categorized_EN.txt	BASS	Instruments	8	9	[0, 0, 0]	n/a	catFR1	0	R1467M
1014.131	0.883	1070435	WORD_OFF	n/a	n/a	BASS	Instruments	8	9	[0, 0, 0]	n/a	catFR1	0	R1467M
1015.014	1.6	1071317	WORD	n/a	wordpools/wordpool_categorized_EN.txt	COMPUTER	Electronics	9	9	[0, 0, 0]	n/a	catFR1	0	R1467M
1016.614	0.799	1072915	WORD_OFF	n/a	n/a	COMPUTER	Electronics	9	9	[0, 0, 0]	n/a	catFR1	0	R1467M
1017.413	1.6	1073715	WORD	n/a	wordpools/wordpool_categorized_EN.txt	CALCULATOR	Electronics	10	9	[0, 0, 0]	n/a	catFR1	0	R1467M
1019.013	0.968	1075313	WORD_OFF	n/a	n/a	CALCULATOR	Electronics	10	9	[0, 0, 0]	n/a	catFR1	0	R1467M
1019.981	1.6	1076291	WORD	n/a	wordpools/wordpool_categorized_EN.txt	CALF	FarmAnimals	11	9	[0, 0, 0]	n/a	catFR1	0	R1467M
1021.58	0.867	1077889	WORD_OFF	n/a	n/a	CALF	FarmAnimals	11	9	[0, 0, 0]	n/a	catFR1	0	R1467M
1022.447	1.6	1078757	WORD	n/a	wordpools/wordpool_categorized_EN.txt	HORSE	FarmAnimals	12	9	[0, 0, 0]	n/a	catFR1	0	R1467M
1024.064	0.0	1080368	PROB	8.266	n/a	n/a	n/a	-999	9	[1, 4, 7]	12.0	catFR1	0	R1467M
1024.064	0.001	1080369	WORD_OFF	n/a	n/a	HORSE	FarmAnimals	12	9	[0, 0, 0]	n/a	catFR1	0	R1467M
1024.065	0.0	1080369	ENCODING_END	n/a	n/a	n/a	n/a	-999	9	[0, 0, 0]	n/a	catFR1	0	R1467M
1024.065	0.0	1080369	DISTRACT_START	n/a	n/a	n/a	n/a	-999	9	[0, 0, 0]	n/a	catFR1	0	R1467M
1024.065	8.282	1080369	START	n/a	n/a	n/a	n/a	-999	9	[-999, -999, -999]	n/a	catFR1	0	R1467M
1032.347	6.35	1088650	PROB	6.333	n/a	n/a	n/a	-999	9	[3, 6, 7]	16.0	catFR1	0	R1467M
1038.697	7.7	1095000	PROB	7.683	n/a	n/a	n/a	-999	9	[4, 7, 6]	17.0	catFR1	0	R1467M
1046.397	0.0	1102700	STOP	n/a	n/a	n/a	n/a	-999	9	[-999, -999, -999]	n/a	catFR1	0	R1467M
1046.397	2.233	1102703	DISTRACT_END	n/a	n/a	n/a	n/a	-999	9	[0, 0, 0]	n/a	catFR1	0	R1467M
1048.63	3.225	1104929	REC_START	n/a	n/a	n/a	n/a	-999	9	[0, 0, 0]	n/a	catFR1	0	R1467M
1051.855	1.389	1108157	REC_WORD_VV	3.225	n/a	<>	n/a	-999	9	[0, 0, 0]	n/a	catFR1	0	R1467M
1053.244	1.562	1109546	REC_WORD	4.614	n/a	HEN	FarmAnimals	6	9	[0, 0, 0]	n/a	catFR1	0	R1467M
1054.806	1.391	1111108	REC_WORD	6.176	n/a	PIG	FarmAnimals	5	9	[0, 0, 0]	n/a	catFR1	0	R1467M
1056.197	0.926	1112499	REC_WORD	7.567	n/a	HORSE	FarmAnimals	12	9	[0, 0, 0]	n/a	catFR1	0	R1467M
1057.123	1.295	1113425	REC_WORD	8.493	n/a	CALF	FarmAnimals	11	9	[0, 0, 0]	n/a	catFR1	0	R1467M
1058.418	0.699	1114720	REC_WORD	9.788	n/a	RADIO	Electronics	3	9	[0, 0, 0]	n/a	catFR1	0	R1467M
1059.117	19.78	1115419	REC_WORD	10.487	n/a	SPEAKER	Electronics	4	9	[0, 0, 0]	n/a	catFR1	0	R1467M
1078.897	1.484	1135191	REC_END	n/a	n/a	n/a	n/a	-999	9	[0, 0, 0]	n/a	catFR1	0	R1467M
1080.381	10.0	1136679	COUNTDOWN_START	n/a	n/a	n/a	n/a	-999	10	[0, 0, 0]	n/a	catFR1	0	R1467M
1090.731	0.0	1147026	COUNTDOWN_END	n/a	n/a	n/a	n/a	-999	10	[0, 0, 0]	n/a	catFR1	0	R1467M
1090.731	2.133	1147040	ENCODING_START	n/a	n/a	n/a	n/a	-999	10	[0, 0, 0]	n/a	catFR1	0	R1467M
1092.864	1.6	1149162	WORD	n/a	wordpools/wordpool_categorized_EN.txt	HAMMER	Tools	1	10	[0, 0, 0]	n/a	catFR1	0	R1467M
1094.464	0.767	1150760	WORD_OFF	n/a	n/a	HAMMER	Tools	1	10	[0, 0, 0]	n/a	catFR1	0	R1467M
1095.231	1.6	1151531	WORD	n/a	wordpools/wordpool_categorized_EN.txt	SHOVEL	Tools	2	10	[0, 0, 0]	n/a	catFR1	0	R1467M
1096.831	0.9	1153130	WORD_OFF	n/a	n/a	SHOVEL	Tools	2	10	[0, 0, 0]	n/a	catFR1	0	R1467M
1097.731	1.6	1154025	WORD	n/a	wordpools/wordpool_categorized_EN.txt	HILLS	Landscapes	3	10	[0, 0, 0]	n/a	catFR1	0	R1467M
1099.347	0.799	1155651	WORD_OFF	n/a	n/a	HILLS	Landscapes	3	10	[0, 0, 0]	n/a	catFR1	0	R1467M
1100.146	1.6	1156450	WORD	n/a	wordpools/wordpool_categorized_EN.txt	VALLEY	Landscapes	4	10	[0, 0, 0]	n/a	catFR1	0	R1467M
1101.747	0.816	1158048	WORD_OFF	n/a	n/a	VALLEY	Landscapes	4	10	[0, 0, 0]	n/a	catFR1	0	R1467M
1102.563	1.6	1158861	WORD	n/a	wordpools/wordpool_categorized_EN.txt	DOVE	Birds	5	10	[0, 0, 0]	n/a	catFR1	0	R1467M
1104.163	0.901	1160459	WORD_OFF	n/a	n/a	DOVE	Birds	5	10	[0, 0, 0]	n/a	catFR1	0	R1467M
1105.064	1.6	1161369	WORD	n/a	wordpools/wordpool_categorized_EN.txt	CARDINAL	Birds	6	10	[0, 0, 0]	n/a	catFR1	0	R1467M
1106.664	0.949	1162967	WORD_OFF	n/a	n/a	CARDINAL	Birds	6	10	[0, 0, 0]	n/a	catFR1	0	R1467M
1107.613	1.6	1163918	WORD	n/a	wordpools/wordpool_categorized_EN.txt	OCEAN	Landscapes	7	10	[0, 0, 0]	n/a	catFR1	0	R1467M
1109.213	0.901	1165516	WORD_OFF	n/a	n/a	OCEAN	Landscapes	7	10	[0, 0, 0]	n/a	catFR1	0	R1467M
1110.114	1.6	1166411	WORD	n/a	wordpools/wordpool_categorized_EN.txt	RIVER	Landscapes	8	10	[0, 0, 0]	n/a	catFR1	0	R1467M
1111.714	0.932	1168010	WORD_OFF	n/a	n/a	RIVER	Landscapes	8	10	[0, 0, 0]	n/a	catFR1	0	R1467M
1112.646	1.6	1168946	WORD	n/a	wordpools/wordpool_categorized_EN.txt	BLUEBIRD	Birds	9	10	[0, 0, 0]	n/a	catFR1	0	R1467M
1114.264	0.783	1170558	WORD_OFF	n/a	n/a	BLUEBIRD	Birds	9	10	[0, 0, 0]	n/a	catFR1	0	R1467M
1115.047	1.6	1171344	WORD	n/a	wordpools/wordpool_categorized_EN.txt	SPARROW	Birds	10	10	[0, 0, 0]	n/a	catFR1	0	R1467M
1116.663	0.934	1172956	WORD_OFF	n/a	n/a	SPARROW	Birds	10	10	[0, 0, 0]	n/a	catFR1	0	R1467M
1117.597	1.6	1173893	WORD	n/a	wordpools/wordpool_categorized_EN.txt	RATCHET	Tools	11	10	[0, 0, 0]	n/a	catFR1	0	R1467M
1119.197	1.0	1175491	WORD_OFF	n/a	n/a	RATCHET	Tools	11	10	[0, 0, 0]	n/a	catFR1	0	R1467M
1120.197	1.6	1176497	WORD	n/a	wordpools/wordpool_categorized_EN.txt	CROWBAR	Tools	12	10	[0, 0, 0]	n/a	catFR1	0	R1467M
1121.797	0.002	1178095	WORD_OFF	n/a	n/a	CROWBAR	Tools	12	10	[0, 0, 0]	n/a	catFR1	0	R1467M
1121.799	0.0	1178095	ENCODING_END	n/a	n/a	n/a	n/a	-999	10	[0, 0, 0]	n/a	catFR1	0	R1467M
1121.799	0.0	1178095	DISTRACT_START	n/a	n/a	n/a	n/a	-999	10	[0, 0, 0]	n/a	catFR1	0	R1467M
1121.798	0.001	1178097	PROB	5.349	n/a	n/a	n/a	-999	10	[7, 4, 8]	19.0	catFR1	0	R1467M
1121.799	5.366	1178098	START	n/a	n/a	n/a	n/a	-999	10	[-999, -999, -999]	n/a	catFR1	0	R1467M
1127.165	4.866	1183464	PROB	4.849	n/a	n/a	n/a	-999	10	[5, 7, 4]	16.0	catFR1	0	R1467M
1132.031	2.366	1188330	PROB	2.349	n/a	n/a	n/a	-999	10	[5, 4, 5]	14.0	catFR1	0	R1467M
1134.397	4.633	1190695	PROB	4.616	n/a	n/a	n/a	-999	10	[7, 2, 5]	14.0	catFR1	0	R1467M
1139.03	5.25	1195328	PROB	5.233	n/a	n/a	n/a	-999	10	[8, 5, 2]	15.0	catFR1	0	R1467M
1144.28	0.0	1200578	STOP	n/a	n/a	n/a	n/a	-999	10	[-999, -999, -999]	n/a	catFR1	0	R1467M
1144.28	2.25	1200580	DISTRACT_END	n/a	n/a	n/a	n/a	-999	10	[0, 0, 0]	n/a	catFR1	0	R1467M
1146.53	0.698	1202834	REC_START	n/a	n/a	n/a	n/a	-999	10	[0, 0, 0]	n/a	catFR1	0	R1467M
1147.228	1.0	1203526	REC_WORD	0.698	n/a	SHOVEL	Tools	2	10	[0, 0, 0]	n/a	catFR1	0	R1467M
1148.228	1.6	1204526	REC_WORD_VV	1.698	n/a	<>	n/a	-999	10	[0, 0, 0]	n/a	catFR1	0	R1467M
1149.828	1.0	1206126	REC_WORD	3.298	n/a	CROWBAR	Tools	12	10	[0, 0, 0]	n/a	catFR1	0	R1467M
1150.828	2.943	1207126	REC_WORD_VV	4.298	n/a	<>	n/a	-999	10	[0, 0, 0]	n/a	catFR1	0	R1467M
1153.771	0.988	1210069	REC_WORD	7.241	n/a	RATCHET	Tools	11	10	[0, 0, 0]	n/a	catFR1	0	R1467M
1154.759	6.952	1211057	REC_WORD	8.229	n/a	HILLS	Landscapes	3	10	[0, 0, 0]	n/a	catFR1	0	R1467M
1161.711	3.421	1218008	REC_WORD	15.181	n/a	HAMMER	Tools	1	10	[0, 0, 0]	n/a	catFR1	0	R1467M
1165.132	0.704	1221429	REC_WORD	18.602	n/a	BLUEBIRD	Birds	9	10	[0, 0, 0]	n/a	catFR1	0	R1467M
1165.836	0.678	1222133	REC_WORD	19.306	n/a	CARDINAL	Birds	6	10	[0, 0, 0]	n/a	catFR1	0	R1467M
1166.514	10.297	1222811	REC_WORD	19.984	n/a	SPARROW	Birds	10	10	[0, 0, 0]	n/a	catFR1	0	R1467M
1176.811	1.403	1233110	REC_END	n/a	n/a	n/a	n/a	-999	10	[0, 0, 0]	n/a	catFR1	0	R1467M
1178.214	10.0	1234515	COUNTDOWN_START	n/a	n/a	n/a	n/a	-999	11	[0, 0, 0]	n/a	catFR1	0	R1467M
1188.564	0.001	1244862	COUNTDOWN_END	n/a	n/a	n/a	n/a	-999	11	[0, 0, 0]	n/a	catFR1	0	R1467M
1188.565	2.266	1244862	ENCODING_START	n/a	n/a	n/a	n/a	-999	11	[0, 0, 0]	n/a	catFR1	0	R1467M
1190.831	1.6	1247122	WORD	n/a	wordpools/wordpool_categorized_EN.txt	PLIERS	Tools	1	11	[0, 0, 0]	n/a	catFR1	0	R1467M
1192.447	0.766	1248747	WORD_OFF	n/a	n/a	PLIERS	Tools	1	11	[0, 0, 0]	n/a	catFR1	0	R1467M
1193.213	1.6	1249505	WORD	n/a	wordpools/wordpool_categorized_EN.txt	AXE	Tools	2	11	[0, 0, 0]	n/a	catFR1	0	R1467M
1194.814	1.0	1251103	WORD_OFF	n/a	n/a	AXE	Tools	2	11	[0, 0, 0]	n/a	catFR1	0	R1467M
1195.814	1.6	1252109	WORD	n/a	wordpools/wordpool_categorized_EN.txt	DRUM	Instruments	3	11	[0, 0, 0]	n/a	catFR1	0	R1467M
1197.414	0.983	1253721	WORD_OFF	n/a	n/a	DRUM	Instruments	3	11	[0, 0, 0]	n/a	catFR1	0	R1467M
1198.397	1.6	1254699	WORD	n/a	wordpools/wordpool_categorized_EN.txt	GUITAR	Instruments	4	11	[0, 0, 0]	n/a	catFR1	0	R1467M
1200.013	0.768	1256311	WORD_OFF	n/a	n/a	GUITAR	Instruments	4	11	[0, 0, 0]	n/a	catFR1	0	R1467M
1200.781	1.6	1257083	WORD	n/a	wordpools/wordpool_categorized_EN.txt	ROOM	Building	5	11	[0, 0, 0]	n/a	catFR1	0	R1467M
1202.397	0.934	1258695	WORD_OFF	n/a	n/a	ROOM	Building	5	11	[0, 0, 0]	n/a	catFR1	0	R1467M
1203.331	1.6	1259632	WORD	n/a	wordpools/wordpool_categorized_EN.txt	STAIRS	Building	6	11	[0, 0, 0]	n/a	catFR1	0	R1467M
1204.947	0.967	1261244	WORD_OFF	n/a	n/a	STAIRS	Building	6	11	[0, 0, 0]	n/a	catFR1	0	R1467M
1205.914	1.6	1262208	WORD	n/a	wordpools/wordpool_categorized_EN.txt	SAW	Tools	7	11	[0, 0, 0]	n/a	catFR1	0	R1467M
1207.514	0.867	1263806	WORD_OFF	n/a	n/a	SAW	Tools	7	11	[0, 0, 0]	n/a	catFR1	0	R1467M
1208.381	1.6	1264674	WORD	n/a	wordpools/wordpool_categorized_EN.txt	WRENCH	Tools	8	11	[0, 0, 0]	n/a	catFR1	0	R1467M
1209.997	0.884	1266286	WORD_OFF	n/a	n/a	WRENCH	Tools	8	11	[0, 0, 0]	n/a	catFR1	0	R1467M
1210.881	1.6	1267182	WORD	n/a	wordpools/wordpool_categorized_EN.txt	ATTIC	Building	9	11	[0, 0, 0]	n/a	catFR1	0	R1467M
1212.497	0.817	1268794	WORD_OFF	n/a	n/a	ATTIC	Building	9	11	[0, 0, 0]	n/a	catFR1	0	R1467M
1213.314	1.6	1269607	WORD	n/a	wordpools/wordpool_categorized_EN.txt	ROOF	Building	10	11	[0, 0, 0]	n/a	catFR1	0	R1467M
1214.914	0.8	1271205	WORD_OFF	n/a	n/a	ROOF	Building	10	11	[0, 0, 0]	n/a	catFR1	0	R1467M
1215.714	1.6	1272004	WORD	n/a	wordpools/wordpool_categorized_EN.txt	CELLO	Instruments	11	11	[0, 0, 0]	n/a	catFR1	0	R1467M
1217.314	0.966	1273602	WORD_OFF	n/a	n/a	CELLO	Instruments	11	11	[0, 0, 0]	n/a	catFR1	0	R1467M
1218.28	1.6	1274581	WORD	n/a	wordpools/wordpool_categorized_EN.txt	PIANO	Instruments	12	11	[0, 0, 0]	n/a	catFR1	0	R1467M
1219.881	0.001	1276175	PROB	3.199	n/a	n/a	n/a	-999	11	[5, 3, 5]	13.0	catFR1	0	R1467M
1219.882	0.0	1276176	START	n/a	n/a	n/a	n/a	-999	11	[-999, -999, -999]	n/a	catFR1	0	R1467M
1219.881	0.001	1276179	WORD_OFF	n/a	n/a	PIANO	Instruments	12	11	[0, 0, 0]	n/a	catFR1	0	R1467M
1219.882	0.0	1276179	ENCODING_END	n/a	n/a	n/a	n/a	-999	11	[0, 0, 0]	n/a	catFR1	0	R1467M
1219.882	3.215	1276179	DISTRACT_START	n/a	n/a	n/a	n/a	-999	11	[0, 0, 0]	n/a	catFR1	0	R1467M
1223.097	3.984	1279391	PROB	3.967	n/a	n/a	n/a	-999	11	[7, 2, 2]	11.0	catFR1	0	R1467M
1227.081	4.567	1283375	PROB	4.55	n/a	n/a	n/a	-999	11	[8, 6, 1]	15.0	catFR1	0	R1467M
1231.648	4.616	1287942	PROB	4.599	n/a	n/a	n/a	-999	11	[6, 3, 1]	10.0	catFR1	0	R1467M
1236.264	3.783	1292558	PROB	3.766	n/a	n/a	n/a	-999	11	[7, 5, 1]	13.0	catFR1	0	R1467M
1240.047	0.0	1296336	DISTRACT_END	n/a	n/a	n/a	n/a	-999	11	[0, 0, 0]	n/a	catFR1	0	R1467M
1240.047	2.249	1296341	STOP	n/a	n/a	n/a	n/a	-999	11	[-999, -999, -999]	n/a	catFR1	0	R1467M
1242.296	1.618	1298589	REC_START	n/a	n/a	n/a	n/a	-999	11	[0, 0, 0]	n/a	catFR1	0	R1467M
1243.914	1.032	1300207	REC_WORD	1.618	n/a	PLIERS	Tools	1	11	[0, 0, 0]	n/a	catFR1	0	R1467M
1244.946	3.596	1301239	REC_WORD	2.65	n/a	AXE	Tools	2	11	[0, 0, 0]	n/a	catFR1	0	R1467M
1248.542	1.915	1304835	REC_WORD	6.246	n/a	ROOF	Building	10	11	[0, 0, 0]	n/a	catFR1	0	R1467M
1250.457	12.39	1306750	REC_WORD	8.161	n/a	CIELING	n/a	-999	11	[0, 0, 0]	n/a	catFR1	0	R1467M
1262.847	0.734	1319140	REC_WORD	20.551	n/a	DRUM	Instruments	3	11	[0, 0, 0]	n/a	catFR1	0	R1467M
1263.581	8.983	1319873	REC_WORD	21.285	n/a	GUITAR	Instruments	4	11	[0, 0, 0]	n/a	catFR1	0	R1467M
1272.564	1.767	1328851	REC_END	n/a	n/a	n/a	n/a	-999	11	[0, 0, 0]	n/a	catFR1	0	R1467M
1274.331	10.0	1330629	COUNTDOWN_START	n/a	n/a	n/a	n/a	-999	12	[0, 0, 0]	n/a	catFR1	0	R1467M
1284.681	0.0	1340976	COUNTDOWN_END	n/a	n/a	n/a	n/a	-999	12	[0, 0, 0]	n/a	catFR1	0	R1467M
1284.681	2.1	1340976	ENCODING_START	n/a	n/a	n/a	n/a	-999	12	[0, 0, 0]	n/a	catFR1	0	R1467M
1286.781	1.6	1343070	WORD	n/a	wordpools/wordpool_categorized_EN.txt	PLANE	Vehicles	1	12	[0, 0, 0]	n/a	catFR1	0	R1467M
1288.397	0.967	1344682	WORD_OFF	n/a	n/a	PLANE	Vehicles	1	12	[0, 0, 0]	n/a	catFR1	0	R1467M
1289.364	1.6	1345660	WORD	n/a	wordpools/wordpool_categorized_EN.txt	TRUCK	Vehicles	2	12	[0, 0, 0]	n/a	catFR1	0	R1467M
1290.98	0.801	1347272	WORD_OFF	n/a	n/a	TRUCK	Vehicles	2	12	[0, 0, 0]	n/a	catFR1	0	R1467M
1291.781	1.6	1348071	WORD	n/a	wordpools/wordpool_categorized_EN.txt	WOOL	Fabric	3	12	[0, 0, 0]	n/a	catFR1	0	R1467M
1293.381	0.866	1349669	WORD_OFF	n/a	n/a	WOOL	Fabric	3	12	[0, 0, 0]	n/a	catFR1	0	R1467M
1294.247	1.6	1350537	WORD	n/a	wordpools/wordpool_categorized_EN.txt	DENIM	Fabric	4	12	[0, 0, 0]	n/a	catFR1	0	R1467M
1295.847	0.967	1352136	WORD_OFF	n/a	n/a	DENIM	Fabric	4	12	[0, 0, 0]	n/a	catFR1	0	R1467M
1296.814	1.6	1353100	WORD	n/a	wordpools/wordpool_categorized_EN.txt	PASTRY	Desserts	5	12	[0, 0, 0]	n/a	catFR1	0	R1467M
1298.414	0.932	1354698	WORD_OFF	n/a	n/a	PASTRY	Desserts	5	12	[0, 0, 0]	n/a	catFR1	0	R1467M
1299.346	1.6	1355635	WORD	n/a	wordpools/wordpool_categorized_EN.txt	JELLO	Desserts	6	12	[0, 0, 0]	n/a	catFR1	0	R1467M
1300.948	0.966	1357233	WORD_OFF	n/a	n/a	JELLO	Desserts	6	12	[0, 0, 0]	n/a	catFR1	0	R1467M
1301.914	1.6	1358198	WORD	n/a	wordpools/wordpool_categorized_EN.txt	COTTON	Fabric	7	12	[0, 0, 0]	n/a	catFR1	0	R1467M
1303.531	0.933	1359824	WORD_OFF	n/a	n/a	COTTON	Fabric	7	12	[0, 0, 0]	n/a	catFR1	0	R1467M
1304.464	1.6	1360761	WORD	n/a	wordpools/wordpool_categorized_EN.txt	VELVET	Fabric	8	12	[0, 0, 0]	n/a	catFR1	0	R1467M
1306.08	0.766	1362373	WORD_OFF	n/a	n/a	VELVET	Fabric	8	12	[0, 0, 0]	n/a	catFR1	0	R1467M
1306.846	1.6	1363144	WORD	n/a	wordpools/wordpool_categorized_EN.txt	COBBLER	Desserts	9	12	[0, 0, 0]	n/a	catFR1	0	R1467M
1308.447	0.917	1364742	WORD_OFF	n/a	n/a	COBBLER	Desserts	9	12	[0, 0, 0]	n/a	catFR1	0	R1467M
1309.364	1.6	1365652	WORD	n/a	wordpools/wordpool_categorized_EN.txt	PIE	Desserts	10	12	[0, 0, 0]	n/a	catFR1	0	R1467M
1310.964	0.833	1367250	WORD_OFF	n/a	n/a	PIE	Desserts	10	12	[0, 0, 0]	n/a	catFR1	0	R1467M
1311.797	1.6	1368090	WORD	n/a	wordpools/wordpool_categorized_EN.txt	MOPED	Vehicles	11	12	[0, 0, 0]	n/a	catFR1	0	R1467M
1313.397	0.866	1369689	WORD_OFF	n/a	n/a	MOPED	Vehicles	11	12	[0, 0, 0]	n/a	catFR1	0	R1467M
1314.263	1.6	1370557	WORD	n/a	wordpools/wordpool_categorized_EN.txt	CAR	Vehicles	12	12	[0, 0, 0]	n/a	catFR1	0	R1467M
1315.864	0.002	1372155	WORD_OFF	n/a	n/a	CAR	Vehicles	12	12	[0, 0, 0]	n/a	catFR1	0	R1467M
1315.866	0.0	1372155	ENCODING_END	n/a	n/a	n/a	n/a	-999	12	[0, 0, 0]	n/a	catFR1	0	R1467M
1315.866	0.0	1372155	DISTRACT_START	n/a	n/a	n/a	n/a	-999	12	[0, 0, 0]	n/a	catFR1	0	R1467M
1315.865	0.001	1372155	PROB	2.632	n/a	n/a	n/a	-999	12	[3, 5, 5]	13.0	catFR1	0	R1467M
1315.866	2.648	1372156	START	n/a	n/a	n/a	n/a	-999	12	[-999, -999, -999]	n/a	catFR1	0	R1467M
1318.514	3.817	1374804	PROB	3.8	n/a	n/a	n/a	-999	12	[8, 5, 4]	11.0	catFR1	0	R1467M
1322.331	4.867	1378621	PROB	4.849	n/a	n/a	n/a	-999	12	[5, 7, 1]	13.0	catFR1	0	R1467M
1327.198	5.619	1383487	PROB	5.599	n/a	n/a	n/a	-999	12	[4, 5, 3]	12.0	catFR1	0	R1467M
1332.817	2.23	1389106	PROB	2.216	n/a	n/a	n/a	-999	12	[8, 4, 8]	12.0	catFR1	0	R1467M
1335.047	7.849	1391336	PROB	7.833	n/a	n/a	n/a	-999	12	[4, 5, 3]	12.0	catFR1	0	R1467M
1342.896	0.0	1399185	STOP	n/a	n/a	n/a	n/a	-999	12	[-999, -999, -999]	n/a	catFR1	0	R1467M
1342.896	2.267	1399187	DISTRACT_END	n/a	n/a	n/a	n/a	-999	12	[0, 0, 0]	n/a	catFR1	0	R1467M
1345.163	1.138	1401454	REC_START	n/a	n/a	n/a	n/a	-999	12	[0, 0, 0]	n/a	catFR1	0	R1467M
1346.301	1.094	1402590	REC_WORD	1.138	n/a	PLANE	Vehicles	1	12	[0, 0, 0]	n/a	catFR1	0	R1467M
1347.395	1.534	1403684	REC_WORD	2.232	n/a	TRUCK	Vehicles	2	12	[0, 0, 0]	n/a	catFR1	0	R1467M
1348.929	1.481	1405218	REC_WORD	3.766	n/a	COTTON	Fabric	7	12	[0, 0, 0]	n/a	catFR1	0	R1467M
1350.41	1.87	1406698	REC_WORD	5.247	n/a	VELVET	Fabric	8	12	[0, 0, 0]	n/a	catFR1	0	R1467M
1352.28	0.957	1408568	REC_WORD	7.117	n/a	COBBLER	Desserts	9	12	[0, 0, 0]	n/a	catFR1	0	R1467M
1353.237	22.223	1409525	REC_WORD	8.074	n/a	PIE	Desserts	10	12	[0, 0, 0]	n/a	catFR1	0	R1467M
1375.46	0.0	1431744	REC_END	n/a	n/a	n/a	n/a	-999	12	[0, 0, 0]	n/a	catFR1	0	R1467M
