onset	duration	sample	trial_type	response_time	stim_file	item_name	category	serialpos	list	test	answer	experiment	session	subject
0.0	18.277	118602	SESS_START	n/a	n/a	n/a	n/a	-999	-999	[0, 0, 0]	n/a	catFR1	0	R1102P
18.277	10.428	127740	COUNTDOWN_START	n/a	n/a	n/a	n/a	-999	-999	[0, 0, 0]	n/a	catFR1	0	R1102P
28.705	3.908	132954	COUNTDOWN_END	n/a	n/a	n/a	n/a	-999	-999	[0, 0, 0]	n/a	catFR1	0	R1102P
32.613	2.601	134908	PRACTICE_WORD	n/a	n/a	CAMEL	n/a	-999	-999	[0, 0, 0]	n/a	catFR1	0	R1102P
35.214	2.584	136208	PRACTICE_WORD	n/a	n/a	BEAM	n/a	-999	-999	[0, 0, 0]	n/a	catFR1	0	R1102P
37.798	2.567	137500	PRACTICE_WORD	n/a	n/a	WATCH	n/a	-999	-999	[0, 0, 0]	n/a	catFR1	0	R1102P
40.365	2.451	138783	PRACTICE_WORD	n/a	n/a	IRON	n/a	-999	-999	[0, 0, 0]	n/a	catFR1	0	R1102P
42.816	2.617	140009	PRACTICE_WORD	n/a	n/a	RHINO	n/a	-999	-999	[0, 0, 0]	n/a	catFR1	0	R1102P
45.433	2.55	141317	PRACTICE_WORD	n/a	n/a	ATTIC	n/a	-999	-999	[0, 0, 0]	n/a	catFR1	0	R1102P
47.983	2.401	142592	PRACTICE_WORD	n/a	n/a	RING	n/a	-999	-999	[0, 0, 0]	n/a	catFR1	0	R1102P
50.384	2.4	143793	PRACTICE_WORD	n/a	n/a	TONGUE	n/a	-999	-999	[0, 0, 0]	n/a	catFR1	0	R1102P
52.784	2.617	144993	PRACTICE_WORD	n/a	n/a	WAGON	n/a	-999	-999	[0, 0, 0]	n/a	catFR1	0	R1102P
55.401	2.451	146301	PRACTICE_WORD	n/a	n/a	CHEST	n/a	-999	-999	[0, 0, 0]	n/a	catFR1	0	R1102P
57.852	2.383	147526	PRACTICE_WORD	n/a	n/a	COTTON	n/a	-999	-999	[0, 0, 0]	n/a	catFR1	0	R1102P
60.235	1.617	148718	PRACTICE_WORD	n/a	n/a	FLOOD	n/a	-999	-999	[0, 0, 0]	n/a	catFR1	0	R1102P
61.852	0.001	149526	PRACTICE_DISTRACT_START	n/a	n/a	n/a	n/a	-999	-999	[0, 0, 0]	n/a	catFR1	0	R1102P
61.853	0.016	149527	START	n/a	n/a	n/a	n/a	-999	-1	[-999, -999, -999]	n/a	catFR1	0	R1102P
61.869	7.651	149535	PROB	7.651	n/a	n/a	n/a	-999	-1	[2, 5, 9]	16	catFR1	0	R1102P
69.52	5.585	153360	PROB	5.585	n/a	n/a	n/a	-999	-1	[6, 7, 1]	14	catFR1	0	R1102P
75.105	5.034	156152	PROB	5.034	n/a	n/a	n/a	-999	-1	[9, 3, 2]	14	catFR1	0	R1102P
80.139	6.825	158669	PROB	6.825	n/a	n/a	n/a	-999	-1	[4, 7, 2]	15	catFR1	0	R1102P
86.964	0.01	162082	STOP	n/a	n/a	n/a	n/a	-999	-1	[-999, -999, -999]	n/a	catFR1	0	R1102P
86.974	0.569	162087	PRACTICE_DISTRACT_END	n/a	n/a	n/a	n/a	-999	-999	[0, 0, 0]	n/a	catFR1	0	R1102P
87.543	30.514	162371	PRACTICE_REC_START	n/a	n/a	n/a	n/a	-999	-999	[0, 0, 0]	n/a	catFR1	0	R1102P
118.057	12.676	177627	PRACTICE_REC_END	n/a	n/a	n/a	n/a	-999	-999	[0, 0, 0]	n/a	catFR1	0	R1102P
130.733	0.0	183965	TRIAL	n/a	n/a	n/a	n/a	-999	1	[0, 0, 0]	n/a	catFR1	0	R1102P
130.733	10.428	183965	COUNTDOWN_START	n/a	n/a	n/a	n/a	-999	1	[0, 0, 0]	n/a	catFR1	0	R1102P
141.161	0.006	189179	COUNTDOWN_END	n/a	n/a	n/a	n/a	-999	1	[0, 0, 0]	n/a	catFR1	0	R1102P
141.167	3.868	189182	ORIENT	n/a	n/a	n/a	n/a	-999	1	[0, 0, 0]	n/a	catFR1	0	R1102P
145.035	2.584	191116	WORD	n/a	wordpools/wordpool_categorized_EN.txt	MONKEY	Zoo	1	1	[0, 0, 0]	n/a	catFR1	0	R1102P
147.619	2.483	192408	WORD	n/a	wordpools/wordpool_categorized_EN.txt	PANDA	Zoo	2	1	[0, 0, 0]	n/a	catFR1	0	R1102P
150.102	2.534	193649	WORD	n/a	wordpools/wordpool_categorized_EN.txt	DRIZZLE	Weather	3	1	[0, 0, 0]	n/a	catFR1	0	R1102P
152.636	2.617	194916	WORD	n/a	wordpools/wordpool_categorized_EN.txt	LIGHTNING	Weather	4	1	[0, 0, 0]	n/a	catFR1	0	R1102P
155.253	2.502	196224	WORD	n/a	wordpools/wordpool_categorized_EN.txt	LILY	Flowers	5	1	[0, 0, 0]	n/a	catFR1	0	R1102P
157.755	2.583	197475	WORD	n/a	wordpools/wordpool_categorized_EN.txt	CARNATION	Flowers	6	1	[0, 0, 0]	n/a	catFR1	0	R1102P
160.338	2.467	198767	WORD	n/a	wordpools/wordpool_categorized_EN.txt	CHEETAH	Zoo	7	1	[0, 0, 0]	n/a	catFR1	0	R1102P
162.805	2.5	200000	WORD	n/a	wordpools/wordpool_categorized_EN.txt	CHIMPANZEE	Zoo	8	1	[0, 0, 0]	n/a	catFR1	0	R1102P
165.305	2.617	201250	WORD	n/a	wordpools/wordpool_categorized_EN.txt	ORCHID	Flowers	9	1	[0, 0, 0]	n/a	catFR1	0	R1102P
167.922	2.451	202559	WORD	n/a	wordpools/wordpool_categorized_EN.txt	SUNFLOWER	Flowers	10	1	[0, 0, 0]	n/a	catFR1	0	R1102P
170.373	2.417	203784	WORD	n/a	wordpools/wordpool_categorized_EN.txt	TORNADO	Weather	11	1	[0, 0, 0]	n/a	catFR1	0	R1102P
172.79	1.617	204992	WORD	n/a	wordpools/wordpool_categorized_EN.txt	CLOUD	Weather	12	1	[0, 0, 0]	n/a	catFR1	0	R1102P
174.407	0.001	205801	DISTRACT_START	n/a	n/a	n/a	n/a	-999	1	[0, 0, 0]	n/a	catFR1	0	R1102P
174.408	0.016	205801	START	n/a	n/a	n/a	n/a	-999	1	[-999, -999, -999]	n/a	catFR1	0	R1102P
174.424	6.717	205809	PROB	6.717	n/a	n/a	n/a	-999	1	[7, 5, 5]	17	catFR1	0	R1102P
181.141	6.619	209168	PROB	6.619	n/a	n/a	n/a	-999	1	[8, 7, 1]	16	catFR1	0	R1102P
187.76	7.989	212477	PROB	7.989	n/a	n/a	n/a	-999	1	[4, 4, 2]	10	catFR1	0	R1102P
195.749	0.012	216471	STOP	n/a	n/a	n/a	n/a	-999	1	[-999, -999, -999]	n/a	catFR1	0	R1102P
195.761	1.168	216477	DISTRACT_END	n/a	n/a	n/a	n/a	-999	1	[0, 0, 0]	n/a	catFR1	0	R1102P
196.929	3.609	217061	REC_START	n/a	n/a	n/a	n/a	-999	1	[0, 0, 0]	n/a	catFR1	0	R1102P
200.538	2.226	218866	REC_WORD_VV	2.226	n/a	<>	n/a	-999	1	[0, 0, 0]	n/a	catFR1	0	R1102P
202.764	1.715	219979	REC_WORD	1.715	n/a	MONKEY	Zoo	1	1	[0, 0, 0]	n/a	catFR1	0	R1102P
204.479	3.836	220836	REC_WORD	3.836	n/a	PANDA	Zoo	2	1	[0, 0, 0]	n/a	catFR1	0	R1102P
208.315	4.916	222754	REC_WORD	4.916	n/a	LILY	Flowers	5	1	[0, 0, 0]	n/a	catFR1	0	R1102P
213.231	1.057	225212	REC_WORD	1.057	n/a	CARNATION	Flowers	6	1	[0, 0, 0]	n/a	catFR1	0	R1102P
214.288	12.652	225740	REC_WORD	12.652	n/a	CHIMPANZEE	Zoo	8	1	[0, 0, 0]	n/a	catFR1	0	R1102P
226.94	2.561	232066	REC_END	n/a	n/a	n/a	n/a	-999	1	[0, 0, 0]	n/a	catFR1	0	R1102P
229.501	0.0	233346	TRIAL	n/a	n/a	n/a	n/a	-999	2	[0, 0, 0]	n/a	catFR1	0	R1102P
229.501	10.428	233346	COUNTDOWN_START	n/a	n/a	n/a	n/a	-999	2	[0, 0, 0]	n/a	catFR1	0	R1102P
239.929	0.007	238560	COUNTDOWN_END	n/a	n/a	n/a	n/a	-999	2	[0, 0, 0]	n/a	catFR1	0	R1102P
239.936	3.517	238564	ORIENT	n/a	n/a	n/a	n/a	-999	2	[0, 0, 0]	n/a	catFR1	0	R1102P
243.453	2.501	240322	WORD	n/a	wordpools/wordpool_categorized_EN.txt	ORGAN	Instruments	1	2	[0, 0, 0]	n/a	catFR1	0	R1102P
245.954	2.417	241572	WORD	n/a	wordpools/wordpool_categorized_EN.txt	TRUMPET	Instruments	2	2	[0, 0, 0]	n/a	catFR1	0	R1102P
248.371	2.517	242781	WORD	n/a	wordpools/wordpool_categorized_EN.txt	WHISK	KitchenTools	3	2	[0, 0, 0]	n/a	catFR1	0	R1102P
250.888	2.517	244039	WORD	n/a	wordpools/wordpool_categorized_EN.txt	CORKSCREW	KitchenTools	4	2	[0, 0, 0]	n/a	catFR1	0	R1102P
253.405	2.384	245298	WORD	n/a	wordpools/wordpool_categorized_EN.txt	SPEAKER	Electronics	5	2	[0, 0, 0]	n/a	catFR1	0	R1102P
255.789	2.567	246490	WORD	n/a	wordpools/wordpool_categorized_EN.txt	PRINTER	Electronics	6	2	[0, 0, 0]	n/a	catFR1	0	R1102P
258.356	2.55	247773	WORD	n/a	wordpools/wordpool_categorized_EN.txt	STRAINER	KitchenTools	7	2	[0, 0, 0]	n/a	catFR1	0	R1102P
260.906	2.534	249048	WORD	n/a	wordpools/wordpool_categorized_EN.txt	SPOON	KitchenTools	8	2	[0, 0, 0]	n/a	catFR1	0	R1102P
263.44	2.601	250315	WORD	n/a	wordpools/wordpool_categorized_EN.txt	TROMBONE	Instruments	9	2	[0, 0, 0]	n/a	catFR1	0	R1102P
266.041	2.467	251615	WORD	n/a	wordpools/wordpool_categorized_EN.txt	CELLO	Instruments	10	2	[0, 0, 0]	n/a	catFR1	0	R1102P
268.508	2.484	252849	WORD	n/a	wordpools/wordpool_categorized_EN.txt	SCANNER	Electronics	11	2	[0, 0, 0]	n/a	catFR1	0	R1102P
270.992	1.617	254091	WORD	n/a	wordpools/wordpool_categorized_EN.txt	STEREO	Electronics	12	2	[0, 0, 0]	n/a	catFR1	0	R1102P
272.609	0.001	254899	DISTRACT_START	n/a	n/a	n/a	n/a	-999	2	[0, 0, 0]	n/a	catFR1	0	R1102P
272.61	0.015	254900	START	n/a	n/a	n/a	n/a	-999	2	[-999, -999, -999]	n/a	catFR1	0	R1102P
272.625	6.952	254907	PROB	6.952	n/a	n/a	n/a	-999	2	[4, 2, 4]	10	catFR1	0	R1102P
279.577	3.534	258383	PROB	3.534	n/a	n/a	n/a	-999	2	[2, 8, 1]	11	catFR1	0	R1102P
283.111	4.167	260150	PROB	4.167	n/a	n/a	n/a	-999	2	[9, 1, 7]	17	catFR1	0	R1102P
287.278	6.95	262233	PROB	6.95	n/a	n/a	n/a	-999	2	[2, 9, 3]	14	catFR1	0	R1102P
294.228	0.018	265708	STOP	n/a	n/a	n/a	n/a	-999	2	[-999, -999, -999]	n/a	catFR1	0	R1102P
294.246	1.051	265717	DISTRACT_END	n/a	n/a	n/a	n/a	-999	2	[0, 0, 0]	n/a	catFR1	0	R1102P
295.297	4.317	266243	REC_START	n/a	n/a	n/a	n/a	-999	2	[0, 0, 0]	n/a	catFR1	0	R1102P
299.614	0.463	268401	REC_WORD_VV	0.463	n/a	<>	n/a	-999	2	[0, 0, 0]	n/a	catFR1	0	R1102P
300.077	1.774	268632	REC_WORD	1.774	n/a	ORGAN	Instruments	1	2	[0, 0, 0]	n/a	catFR1	0	R1102P
301.851	2.062	269519	REC_WORD	2.062	n/a	SPEAKER	Electronics	5	2	[0, 0, 0]	n/a	catFR1	0	R1102P
303.913	1.115	270550	REC_WORD	1.115	n/a	TRUMPET	Instruments	2	2	[0, 0, 0]	n/a	catFR1	0	R1102P
305.028	1.0	271108	REC_WORD	1.0	n/a	CORKSCREW	KitchenTools	4	2	[0, 0, 0]	n/a	catFR1	0	R1102P
306.028	14.069	271608	REC_WORD_VV	14.069	n/a	<>	n/a	-999	2	[0, 0, 0]	n/a	catFR1	0	R1102P
320.097	5.212	278642	REC_WORD	5.212	n/a	PRINTER	Electronics	6	2	[0, 0, 0]	n/a	catFR1	0	R1102P
325.309	3.877	281248	REC_END	n/a	n/a	n/a	n/a	-999	2	[0, 0, 0]	n/a	catFR1	0	R1102P
329.186	0.0	283186	TRIAL	n/a	n/a	n/a	n/a	-999	3	[0, 0, 0]	n/a	catFR1	0	R1102P
329.186	10.428	283186	COUNTDOWN_START	n/a	n/a	n/a	n/a	-999	3	[0, 0, 0]	n/a	catFR1	0	R1102P
339.614	0.007	288400	COUNTDOWN_END	n/a	n/a	n/a	n/a	-999	3	[0, 0, 0]	n/a	catFR1	0	R1102P
339.621	3.901	288403	ORIENT	n/a	n/a	n/a	n/a	-999	3	[0, 0, 0]	n/a	catFR1	0	R1102P
343.522	2.567	290354	WORD	n/a	wordpools/wordpool_categorized_EN.txt	LEMON	Fruit	1	3	[0, 0, 0]	n/a	catFR1	0	R1102P
346.089	2.534	291637	WORD	n/a	wordpools/wordpool_categorized_EN.txt	PLUM	Fruit	2	3	[0, 0, 0]	n/a	catFR1	0	R1102P
348.623	2.517	292904	WORD	n/a	wordpools/wordpool_categorized_EN.txt	BARBIE	Toys	3	3	[0, 0, 0]	n/a	catFR1	0	R1102P
351.14	2.534	294163	WORD	n/a	wordpools/wordpool_categorized_EN.txt	DOLL	Toys	4	3	[0, 0, 0]	n/a	catFR1	0	R1102P
353.674	2.467	295430	WORD	n/a	wordpools/wordpool_categorized_EN.txt	CEDAR	Trees	5	3	[0, 0, 0]	n/a	catFR1	0	R1102P
356.141	2.5	296663	WORD	n/a	wordpools/wordpool_categorized_EN.txt	ELM	Trees	6	3	[0, 0, 0]	n/a	catFR1	0	R1102P
358.641	2.384	297913	WORD	n/a	wordpools/wordpool_categorized_EN.txt	BANANA	Fruit	7	3	[0, 0, 0]	n/a	catFR1	0	R1102P
361.025	2.601	299105	WORD	n/a	wordpools/wordpool_categorized_EN.txt	CHERRY	Fruit	8	3	[0, 0, 0]	n/a	catFR1	0	R1102P
363.626	2.384	300405	WORD	n/a	wordpools/wordpool_categorized_EN.txt	SPRUCE	Trees	9	3	[0, 0, 0]	n/a	catFR1	0	R1102P
366.01	2.45	301597	WORD	n/a	wordpools/wordpool_categorized_EN.txt	OAK	Trees	10	3	[0, 0, 0]	n/a	catFR1	0	R1102P
368.46	2.45	302822	WORD	n/a	wordpools/wordpool_categorized_EN.txt	FRISBEE	Toys	11	3	[0, 0, 0]	n/a	catFR1	0	R1102P
370.91	1.617	304047	WORD	n/a	wordpools/wordpool_categorized_EN.txt	BASEBALL	Toys	12	3	[0, 0, 0]	n/a	catFR1	0	R1102P
372.527	0.001	304856	DISTRACT_START	n/a	n/a	n/a	n/a	-999	3	[0, 0, 0]	n/a	catFR1	0	R1102P
372.528	0.016	304856	START	n/a	n/a	n/a	n/a	-999	3	[-999, -999, -999]	n/a	catFR1	0	R1102P
372.544	6.701	304864	PROB	6.701	n/a	n/a	n/a	-999	3	[6, 8, 1]	15	catFR1	0	R1102P
379.245	4.101	308214	PROB	4.101	n/a	n/a	n/a	-999	3	[3, 7, 8]	18	catFR1	0	R1102P
383.346	4.484	310265	PROB	4.484	n/a	n/a	n/a	-999	3	[6, 6, 9]	21	catFR1	0	R1102P
387.83	3.868	312507	PROB	3.868	n/a	n/a	n/a	-999	3	[6, 5, 1]	12	catFR1	0	R1102P
391.698	4.674	314441	PROB	4.674	n/a	n/a	n/a	-999	3	[1, 7, 3]	11	catFR1	0	R1102P
396.372	0.01	316777	STOP	n/a	n/a	n/a	n/a	-999	3	[-999, -999, -999]	n/a	catFR1	0	R1102P
396.382	1.168	316782	DISTRACT_END	n/a	n/a	n/a	n/a	-999	3	[0, 0, 0]	n/a	catFR1	0	R1102P
397.55	4.807	317366	REC_START	n/a	n/a	n/a	n/a	-999	3	[0, 0, 0]	n/a	catFR1	0	R1102P
402.357	1.001	319770	REC_WORD	1.001	n/a	LEMON	Fruit	1	3	[0, 0, 0]	n/a	catFR1	0	R1102P
403.358	3.473	320270	REC_WORD	3.473	n/a	PLUM	Fruit	2	3	[0, 0, 0]	n/a	catFR1	0	R1102P
406.831	2.441	322007	REC_WORD	2.441	n/a	CEDAR	Trees	5	3	[0, 0, 0]	n/a	catFR1	0	R1102P
409.272	1.196	323227	REC_WORD	1.196	n/a	BARBIE	Toys	3	3	[0, 0, 0]	n/a	catFR1	0	R1102P
410.468	17.093	323825	REC_WORD	17.093	n/a	DOLL	Toys	4	3	[0, 0, 0]	n/a	catFR1	0	R1102P
427.561	2.294	332371	REC_END	n/a	n/a	n/a	n/a	-999	3	[0, 0, 0]	n/a	catFR1	0	R1102P
429.855	0.0	333518	TRIAL	n/a	n/a	n/a	n/a	-999	4	[0, 0, 0]	n/a	catFR1	0	R1102P
429.855	10.428	333518	COUNTDOWN_START	n/a	n/a	n/a	n/a	-999	4	[0, 0, 0]	n/a	catFR1	0	R1102P
440.283	0.007	338732	COUNTDOWN_END	n/a	n/a	n/a	n/a	-999	4	[0, 0, 0]	n/a	catFR1	0	R1102P
440.29	3.734	338735	ORIENT	n/a	n/a	n/a	n/a	-999	4	[0, 0, 0]	n/a	catFR1	0	R1102P
444.024	2.534	340602	WORD	n/a	wordpools/wordpool_categorized_EN.txt	KNEE	BodyParts	1	4	[0, 0, 0]	n/a	catFR1	0	R1102P
446.558	2.567	341869	WORD	n/a	wordpools/wordpool_categorized_EN.txt	NOSE	BodyParts	2	4	[0, 0, 0]	n/a	catFR1	0	R1102P
449.125	2.417	343153	WORD	n/a	wordpools/wordpool_categorized_EN.txt	TIGER	Zoo	3	4	[0, 0, 0]	n/a	catFR1	0	R1102P
451.542	2.434	344361	WORD	n/a	wordpools/wordpool_categorized_EN.txt	ZEBRA	Zoo	4	4	[0, 0, 0]	n/a	catFR1	0	R1102P
453.976	2.634	345578	WORD	n/a	wordpools/wordpool_categorized_EN.txt	RADIO	Electronics	5	4	[0, 0, 0]	n/a	catFR1	0	R1102P
456.61	2.383	346895	WORD	n/a	wordpools/wordpool_categorized_EN.txt	CALCULATOR	Electronics	6	4	[0, 0, 0]	n/a	catFR1	0	R1102P
458.993	2.484	348086	WORD	n/a	wordpools/wordpool_categorized_EN.txt	HEAD	BodyParts	7	4	[0, 0, 0]	n/a	catFR1	0	R1102P
461.477	2.484	349328	WORD	n/a	wordpools/wordpool_categorized_EN.txt	EYE	BodyParts	8	4	[0, 0, 0]	n/a	catFR1	0	R1102P
463.961	2.517	350570	WORD	n/a	wordpools/wordpool_categorized_EN.txt	PHONE	Electronics	9	4	[0, 0, 0]	n/a	catFR1	0	R1102P
466.478	2.5	351829	WORD	n/a	wordpools/wordpool_categorized_EN.txt	COMPUTER	Electronics	10	4	[0, 0, 0]	n/a	catFR1	0	R1102P
468.978	2.468	353078	WORD	n/a	wordpools/wordpool_categorized_EN.txt	BEAR	Zoo	11	4	[0, 0, 0]	n/a	catFR1	0	R1102P
471.446	1.617	354312	WORD	n/a	wordpools/wordpool_categorized_EN.txt	LION	Zoo	12	4	[0, 0, 0]	n/a	catFR1	0	R1102P
473.063	0.001	355121	DISTRACT_START	n/a	n/a	n/a	n/a	-999	4	[0, 0, 0]	n/a	catFR1	0	R1102P
473.064	0.015	355121	START	n/a	n/a	n/a	n/a	-999	4	[-999, -999, -999]	n/a	catFR1	0	R1102P
473.079	8.585	355129	PROB	8.585	n/a	n/a	n/a	-999	4	[7, 6, 5]	18	catFR1	0	R1102P
481.664	4.751	359421	PROB	4.751	n/a	n/a	n/a	-999	4	[5, 5, 8]	18	catFR1	0	R1102P
486.415	6.001	361797	PROB	6.001	n/a	n/a	n/a	-999	4	[6, 8, 7]	21	catFR1	0	R1102P
492.416	5.844	364797	PROB	5.844	n/a	n/a	n/a	-999	4	[2, 5, 2]	9	catFR1	0	R1102P
498.26	0.008	367719	STOP	n/a	n/a	n/a	n/a	-999	4	[-999, -999, -999]	n/a	catFR1	0	R1102P
498.268	1.1	367723	DISTRACT_END	n/a	n/a	n/a	n/a	-999	4	[0, 0, 0]	n/a	catFR1	0	R1102P
499.368	7.069	368273	REC_START	n/a	n/a	n/a	n/a	-999	4	[0, 0, 0]	n/a	catFR1	0	R1102P
506.437	0.733	371807	REC_WORD	0.733	n/a	KNEE	BodyParts	1	4	[0, 0, 0]	n/a	catFR1	0	R1102P
507.17	2.59	372173	REC_WORD	2.59	n/a	NOSE	BodyParts	2	4	[0, 0, 0]	n/a	catFR1	0	R1102P
509.76	2.22	373468	REC_WORD	2.22	n/a	TIGER	Zoo	3	4	[0, 0, 0]	n/a	catFR1	0	R1102P
511.98	2.762	374578	REC_WORD	2.762	n/a	ZEBRA	Zoo	4	4	[0, 0, 0]	n/a	catFR1	0	R1102P
514.742	7.786	375959	REC_WORD	7.786	n/a	EYE	BodyParts	8	4	[0, 0, 0]	n/a	catFR1	0	R1102P
522.528	1.038	379852	REC_WORD_VV	1.038	n/a	<>	n/a	-999	4	[0, 0, 0]	n/a	catFR1	0	R1102P
523.566	5.814	380371	REC_WORD	5.814	n/a	EAR	n/a	-999	4	[0, 0, 0]	n/a	catFR1	0	R1102P
529.38	4.277	383278	REC_END	n/a	n/a	n/a	n/a	-999	4	[0, 0, 0]	n/a	catFR1	0	R1102P
533.657	0.001	385416	COUNTDOWN_START	n/a	n/a	n/a	n/a	-999	5	[0, 0, 0]	n/a	catFR1	0	R1102P
533.658	10.427	385417	TRIAL	n/a	n/a	n/a	n/a	-999	5	[0, 0, 0]	n/a	catFR1	0	R1102P
544.085	0.008	390630	COUNTDOWN_END	n/a	n/a	n/a	n/a	-999	5	[0, 0, 0]	n/a	catFR1	0	R1102P
544.093	3.734	390634	ORIENT	n/a	n/a	n/a	n/a	-999	5	[0, 0, 0]	n/a	catFR1	0	R1102P
547.827	2.4	392501	WORD	n/a	wordpools/wordpool_categorized_EN.txt	PINE	Trees	1	5	[0, 0, 0]	n/a	catFR1	0	R1102P
550.227	2.434	393701	WORD	n/a	wordpools/wordpool_categorized_EN.txt	MAPLE	Trees	2	5	[0, 0, 0]	n/a	catFR1	0	R1102P
552.661	2.617	394918	WORD	n/a	wordpools/wordpool_categorized_EN.txt	SANDER	Tools	3	5	[0, 0, 0]	n/a	catFR1	0	R1102P
555.278	2.435	396226	WORD	n/a	wordpools/wordpool_categorized_EN.txt	SHOVEL	Tools	4	5	[0, 0, 0]	n/a	catFR1	0	R1102P
557.713	2.533	397444	WORD	n/a	wordpools/wordpool_categorized_EN.txt	NOTEBOOK	OfficeSupplies	5	5	[0, 0, 0]	n/a	catFR1	0	R1102P
560.246	2.485	398710	WORD	n/a	wordpools/wordpool_categorized_EN.txt	RULER	OfficeSupplies	6	5	[0, 0, 0]	n/a	catFR1	0	R1102P
562.731	2.516	399952	WORD	n/a	wordpools/wordpool_categorized_EN.txt	HICKORY	Trees	7	5	[0, 0, 0]	n/a	catFR1	0	R1102P
565.247	2.501	401210	WORD	n/a	wordpools/wordpool_categorized_EN.txt	EVERGREEN	Trees	8	5	[0, 0, 0]	n/a	catFR1	0	R1102P
567.748	2.45	402461	WORD	n/a	wordpools/wordpool_categorized_EN.txt	BINDER	OfficeSupplies	9	5	[0, 0, 0]	n/a	catFR1	0	R1102P
570.198	2.583	403686	WORD	n/a	wordpools/wordpool_categorized_EN.txt	STAPLER	OfficeSupplies	10	5	[0, 0, 0]	n/a	catFR1	0	R1102P
572.781	2.518	404977	WORD	n/a	wordpools/wordpool_categorized_EN.txt	RATCHET	Tools	11	5	[0, 0, 0]	n/a	catFR1	0	R1102P
575.299	1.617	406236	WORD	n/a	wordpools/wordpool_categorized_EN.txt	HAMMER	Tools	12	5	[0, 0, 0]	n/a	catFR1	0	R1102P
576.916	0.0	407045	DISTRACT_START	n/a	n/a	n/a	n/a	-999	5	[0, 0, 0]	n/a	catFR1	0	R1102P
576.916	0.016	407045	START	n/a	n/a	n/a	n/a	-999	5	[-999, -999, -999]	n/a	catFR1	0	R1102P
576.932	6.935	407053	PROB	6.935	n/a	n/a	n/a	-999	5	[6, 3, 1]	10	catFR1	0	R1102P
583.867	4.651	410520	PROB	4.651	n/a	n/a	n/a	-999	5	[9, 1, 6]	16	catFR1	0	R1102P
588.518	4.901	412845	PROB	4.901	n/a	n/a	n/a	-999	5	[6, 1, 6]	13	catFR1	0	R1102P
593.419	5.729	415296	PROB	5.729	n/a	n/a	n/a	-999	5	[6, 5, 6]	17	catFR1	0	R1102P
599.148	0.005	418160	STOP	n/a	n/a	n/a	n/a	-999	5	[-999, -999, -999]	n/a	catFR1	0	R1102P
599.153	1.104	418163	DISTRACT_END	n/a	n/a	n/a	n/a	-999	5	[0, 0, 0]	n/a	catFR1	0	R1102P
600.257	7.627	418714	REC_START	n/a	n/a	n/a	n/a	-999	5	[0, 0, 0]	n/a	catFR1	0	R1102P
607.884	1.351	422528	REC_WORD	1.351	n/a	HICKORY	Trees	7	5	[0, 0, 0]	n/a	catFR1	0	R1102P
609.235	2.874	423203	REC_WORD	2.874	n/a	EVERGREEN	Trees	8	5	[0, 0, 0]	n/a	catFR1	0	R1102P
612.109	18.157	424640	REC_WORD	18.157	n/a	STAPLER	OfficeSupplies	10	5	[0, 0, 0]	n/a	catFR1	0	R1102P
630.266	2.693	433718	REC_END	n/a	n/a	n/a	n/a	-999	5	[0, 0, 0]	n/a	catFR1	0	R1102P
632.959	0.001	435065	COUNTDOWN_START	n/a	n/a	n/a	n/a	-999	6	[0, 0, 0]	n/a	catFR1	0	R1102P
632.96	10.427	435065	TRIAL	n/a	n/a	n/a	n/a	-999	6	[0, 0, 0]	n/a	catFR1	0	R1102P
643.387	0.008	440278	COUNTDOWN_END	n/a	n/a	n/a	n/a	-999	6	[0, 0, 0]	n/a	catFR1	0	R1102P
643.395	3.984	440282	ORIENT	n/a	n/a	n/a	n/a	-999	6	[0, 0, 0]	n/a	catFR1	0	R1102P
647.379	2.534	442274	WORD	n/a	wordpools/wordpool_categorized_EN.txt	PEAS	Vegetables	1	6	[0, 0, 0]	n/a	catFR1	0	R1102P
649.913	2.583	443541	WORD	n/a	wordpools/wordpool_categorized_EN.txt	CUCUMBER	Vegetables	2	6	[0, 0, 0]	n/a	catFR1	0	R1102P
652.496	2.534	444833	WORD	n/a	wordpools/wordpool_categorized_EN.txt	CYPRESS	Trees	3	6	[0, 0, 0]	n/a	catFR1	0	R1102P
655.03	2.584	446100	WORD	n/a	wordpools/wordpool_categorized_EN.txt	WILLOW	Trees	4	6	[0, 0, 0]	n/a	catFR1	0	R1102P
657.614	2.467	447391	WORD	n/a	wordpools/wordpool_categorized_EN.txt	BLUEBIRD	Birds	5	6	[0, 0, 0]	n/a	catFR1	0	R1102P
660.081	2.467	448625	WORD	n/a	wordpools/wordpool_categorized_EN.txt	HAWK	Birds	6	6	[0, 0, 0]	n/a	catFR1	0	R1102P
662.548	2.484	449858	WORD	n/a	wordpools/wordpool_categorized_EN.txt	POTATO	Vegetables	7	6	[0, 0, 0]	n/a	catFR1	0	R1102P
665.032	2.617	451100	WORD	n/a	wordpools/wordpool_categorized_EN.txt	ONION	Vegetables	8	6	[0, 0, 0]	n/a	catFR1	0	R1102P
667.649	2.534	452409	WORD	n/a	wordpools/wordpool_categorized_EN.txt	FINCH	Birds	9	6	[0, 0, 0]	n/a	catFR1	0	R1102P
670.183	2.584	453676	WORD	n/a	wordpools/wordpool_categorized_EN.txt	DOVE	Birds	10	6	[0, 0, 0]	n/a	catFR1	0	R1102P
672.767	2.534	454968	WORD	n/a	wordpools/wordpool_categorized_EN.txt	BIRCH	Trees	11	6	[0, 0, 0]	n/a	catFR1	0	R1102P
675.301	1.617	456234	WORD	n/a	wordpools/wordpool_categorized_EN.txt	WALNUT	Trees	12	6	[0, 0, 0]	n/a	catFR1	0	R1102P
676.918	0.001	457043	DISTRACT_START	n/a	n/a	n/a	n/a	-999	6	[0, 0, 0]	n/a	catFR1	0	R1102P
676.919	0.015	457043	START	n/a	n/a	n/a	n/a	-999	6	[-999, -999, -999]	n/a	catFR1	0	R1102P
676.934	5.718	457051	PROB	5.718	n/a	n/a	n/a	-999	6	[3, 9, 1]	13	catFR1	0	R1102P
682.652	4.068	459910	PROB	4.068	n/a	n/a	n/a	-999	6	[4, 9, 1]	14	catFR1	0	R1102P
686.72	4.2	461944	PROB	4.2	n/a	n/a	n/a	-999	6	[3, 4, 7]	14	catFR1	0	R1102P
690.92	3.819	464044	PROB	3.819	n/a	n/a	n/a	-999	6	[7, 3, 6]	16	catFR1	0	R1102P
694.739	5.873	465953	PROB	5.873	n/a	n/a	n/a	-999	6	[9, 9, 2]	20	catFR1	0	R1102P
700.612	0.01	468889	STOP	n/a	n/a	n/a	n/a	-999	6	[-999, -999, -999]	n/a	catFR1	0	R1102P
700.622	1.034	468894	DISTRACT_END	n/a	n/a	n/a	n/a	-999	6	[0, 0, 0]	n/a	catFR1	0	R1102P
701.656	4.972	469411	REC_START	n/a	n/a	n/a	n/a	-999	6	[0, 0, 0]	n/a	catFR1	0	R1102P
706.628	2.475	471897	REC_WORD	2.475	n/a	PEAS	Vegetables	1	6	[0, 0, 0]	n/a	catFR1	0	R1102P
709.103	0.55	473135	REC_WORD_VV	0.55	n/a	<>	n/a	-999	6	[0, 0, 0]	n/a	catFR1	0	R1102P
709.653	4.651	473410	REC_WORD	4.651	n/a	DOVE	Birds	10	6	[0, 0, 0]	n/a	catFR1	0	R1102P
714.304	1.008	475735	REC_WORD_VV	1.008	n/a	<>	n/a	-999	6	[0, 0, 0]	n/a	catFR1	0	R1102P
715.312	16.356	476239	REC_WORD	16.356	n/a	EVERGREEN	n/a	-999	6	[0, 0, 0]	n/a	catFR1	0	R1102P
731.668	3.144	484416	REC_END	n/a	n/a	n/a	n/a	-999	6	[0, 0, 0]	n/a	catFR1	0	R1102P
734.812	0.0	485988	TRIAL	n/a	n/a	n/a	n/a	-999	7	[0, 0, 0]	n/a	catFR1	0	R1102P
734.812	10.428	485988	COUNTDOWN_START	n/a	n/a	n/a	n/a	-999	7	[0, 0, 0]	n/a	catFR1	0	R1102P
745.24	0.007	491202	COUNTDOWN_END	n/a	n/a	n/a	n/a	-999	7	[0, 0, 0]	n/a	catFR1	0	R1102P
745.247	3.517	491206	ORIENT	n/a	n/a	n/a	n/a	-999	7	[0, 0, 0]	n/a	catFR1	0	R1102P
748.764	2.484	492964	WORD	n/a	wordpools/wordpool_categorized_EN.txt	SCREWDRIVER	Tools	1	7	[0, 0, 0]	n/a	catFR1	0	R1102P
751.248	2.584	494206	WORD	n/a	wordpools/wordpool_categorized_EN.txt	DRILL	Tools	2	7	[0, 0, 0]	n/a	catFR1	0	R1102P
753.832	2.434	495498	WORD	n/a	wordpools/wordpool_categorized_EN.txt	CROW	Birds	3	7	[0, 0, 0]	n/a	catFR1	0	R1102P
756.266	2.55	496715	WORD	n/a	wordpools/wordpool_categorized_EN.txt	GOOSE	Birds	4	7	[0, 0, 0]	n/a	catFR1	0	R1102P
758.816	2.401	497990	WORD	n/a	wordpools/wordpool_categorized_EN.txt	FOG	Weather	5	7	[0, 0, 0]	n/a	catFR1	0	R1102P
761.217	2.584	499190	WORD	n/a	wordpools/wordpool_categorized_EN.txt	THUNDERSTORM	Weather	6	7	[0, 0, 0]	n/a	catFR1	0	R1102P
763.801	2.4	500482	WORD	n/a	wordpools/wordpool_categorized_EN.txt	SAW	Tools	7	7	[0, 0, 0]	n/a	catFR1	0	R1102P
766.201	2.4	501682	WORD	n/a	wordpools/wordpool_categorized_EN.txt	AXE	Tools	8	7	[0, 0, 0]	n/a	catFR1	0	R1102P
768.601	2.401	502882	WORD	n/a	wordpools/wordpool_categorized_EN.txt	SNOW	Weather	9	7	[0, 0, 0]	n/a	catFR1	0	R1102P
771.002	2.384	504082	WORD	n/a	wordpools/wordpool_categorized_EN.txt	HUMIDITY	Weather	10	7	[0, 0, 0]	n/a	catFR1	0	R1102P
773.386	2.633	505274	WORD	n/a	wordpools/wordpool_categorized_EN.txt	CARDINAL	Birds	11	7	[0, 0, 0]	n/a	catFR1	0	R1102P
776.019	1.617	506591	WORD	n/a	wordpools/wordpool_categorized_EN.txt	SPARROW	Birds	12	7	[0, 0, 0]	n/a	catFR1	0	R1102P
777.636	0.002	507399	DISTRACT_START	n/a	n/a	n/a	n/a	-999	7	[0, 0, 0]	n/a	catFR1	0	R1102P
777.638	0.015	507400	START	n/a	n/a	n/a	n/a	-999	7	[-999, -999, -999]	n/a	catFR1	0	R1102P
777.653	6.168	507408	PROB	6.168	n/a	n/a	n/a	-999	7	[7, 8, 8]	23	catFR1	0	R1102P
783.821	5.118	510492	PROB	5.118	n/a	n/a	n/a	-999	7	[9, 1, 8]	18	catFR1	0	R1102P
788.939	4.801	513050	PROB	4.801	n/a	n/a	n/a	-999	7	[5, 4, 8]	17	catFR1	0	R1102P
793.74	4.504	515451	PROB	4.504	n/a	n/a	n/a	-999	7	[2, 6, 2]	10	catFR1	0	R1102P
798.244	0.013	517703	STOP	n/a	n/a	n/a	n/a	-999	7	[-999, -999, -999]	n/a	catFR1	0	R1102P
798.257	1.102	517709	DISTRACT_END	n/a	n/a	n/a	n/a	-999	7	[0, 0, 0]	n/a	catFR1	0	R1102P
799.359	3.812	518260	REC_START	n/a	n/a	n/a	n/a	-999	7	[0, 0, 0]	n/a	catFR1	0	R1102P
803.171	1.0	520166	REC_WORD	1.0	n/a	SCREWDRIVER	Tools	1	7	[0, 0, 0]	n/a	catFR1	0	R1102P
804.171	1.015	520666	REC_WORD_VV	1.015	n/a	<>	n/a	-999	7	[0, 0, 0]	n/a	catFR1	0	R1102P
805.186	1.771	521174	REC_WORD	1.771	n/a	DRILL	Tools	2	7	[0, 0, 0]	n/a	catFR1	0	R1102P
806.957	1.043	522059	REC_WORD	1.043	n/a	SAW	Tools	7	7	[0, 0, 0]	n/a	catFR1	0	R1102P
808.0	3.963	522580	REC_WORD	3.963	n/a	AXE	Tools	8	7	[0, 0, 0]	n/a	catFR1	0	R1102P
811.963	17.406	524562	REC_WORD	17.406	n/a	SNOW	Weather	9	7	[0, 0, 0]	n/a	catFR1	0	R1102P
829.369	2.894	533264	REC_END	n/a	n/a	n/a	n/a	-999	7	[0, 0, 0]	n/a	catFR1	0	R1102P
832.263	0.0	534711	TRIAL	n/a	n/a	n/a	n/a	-999	8	[0, 0, 0]	n/a	catFR1	0	R1102P
832.263	10.428	534711	COUNTDOWN_START	n/a	n/a	n/a	n/a	-999	8	[0, 0, 0]	n/a	catFR1	0	R1102P
842.691	0.008	539925	COUNTDOWN_END	n/a	n/a	n/a	n/a	-999	8	[0, 0, 0]	n/a	catFR1	0	R1102P
842.699	3.65	539929	ORIENT	n/a	n/a	n/a	n/a	-999	8	[0, 0, 0]	n/a	catFR1	0	R1102P
846.349	2.467	541754	WORD	n/a	wordpools/wordpool_categorized_EN.txt	CHAIR	Furniture	1	8	[0, 0, 0]	n/a	catFR1	0	R1102P
848.816	2.501	542987	WORD	n/a	wordpools/wordpool_categorized_EN.txt	DRESSER	Furniture	2	8	[0, 0, 0]	n/a	catFR1	0	R1102P
851.317	2.484	544238	WORD	n/a	wordpools/wordpool_categorized_EN.txt	FOLDER	OfficeSupplies	3	8	[0, 0, 0]	n/a	catFR1	0	R1102P
853.801	2.617	545480	WORD	n/a	wordpools/wordpool_categorized_EN.txt	PENCIL	OfficeSupplies	4	8	[0, 0, 0]	n/a	catFR1	0	R1102P
856.418	2.4	546788	WORD	n/a	wordpools/wordpool_categorized_EN.txt	SLINKY	Toys	5	8	[0, 0, 0]	n/a	catFR1	0	R1102P
858.818	2.384	547988	WORD	n/a	wordpools/wordpool_categorized_EN.txt	BALL	Toys	6	8	[0, 0, 0]	n/a	catFR1	0	R1102P
861.202	2.617	549180	WORD	n/a	wordpools/wordpool_categorized_EN.txt	PEN	OfficeSupplies	7	8	[0, 0, 0]	n/a	catFR1	0	R1102P
863.819	2.384	550488	WORD	n/a	wordpools/wordpool_categorized_EN.txt	ERASER	OfficeSupplies	8	8	[0, 0, 0]	n/a	catFR1	0	R1102P
866.203	2.45	551680	WORD	n/a	wordpools/wordpool_categorized_EN.txt	NIGHTSTAND	Furniture	9	8	[0, 0, 0]	n/a	catFR1	0	R1102P
868.653	2.618	552905	WORD	n/a	wordpools/wordpool_categorized_EN.txt	RECLINER	Furniture	10	8	[0, 0, 0]	n/a	catFR1	0	R1102P
871.271	2.517	554214	WORD	n/a	wordpools/wordpool_categorized_EN.txt	MARBLES	Toys	11	8	[0, 0, 0]	n/a	catFR1	0	R1102P
873.788	1.617	555473	WORD	n/a	wordpools/wordpool_categorized_EN.txt	BLOCKS	Toys	12	8	[0, 0, 0]	n/a	catFR1	0	R1102P
875.405	0.001	556281	DISTRACT_START	n/a	n/a	n/a	n/a	-999	8	[0, 0, 0]	n/a	catFR1	0	R1102P
875.406	0.015	556282	START	n/a	n/a	n/a	n/a	-999	8	[-999, -999, -999]	n/a	catFR1	0	R1102P
875.421	8.352	556289	PROB	8.352	n/a	n/a	n/a	-999	8	[9, 2, 5]	16	catFR1	0	R1102P
883.773	5.118	560465	PROB	5.118	n/a	n/a	n/a	-999	8	[6, 6, 4]	16	catFR1	0	R1102P
888.891	5.651	563024	PROB	5.651	n/a	n/a	n/a	-999	8	[8, 8, 6]	22	catFR1	0	R1102P
894.542	4.358	565849	PROB	4.358	n/a	n/a	n/a	-999	8	[5, 2, 7]	14	catFR1	0	R1102P
898.9	0.009	568028	STOP	n/a	n/a	n/a	n/a	-999	8	[-999, -999, -999]	n/a	catFR1	0	R1102P
898.909	1.175	568033	DISTRACT_END	n/a	n/a	n/a	n/a	-999	8	[0, 0, 0]	n/a	catFR1	0	R1102P
900.084	4.091	568620	REC_START	n/a	n/a	n/a	n/a	-999	8	[0, 0, 0]	n/a	catFR1	0	R1102P
904.175	0.965	570665	REC_WORD	0.965	n/a	DRESSER	Furniture	2	8	[0, 0, 0]	n/a	catFR1	0	R1102P
905.14	1.014	571148	REC_WORD	1.014	n/a	FOLDER	OfficeSupplies	3	8	[0, 0, 0]	n/a	catFR1	0	R1102P
906.154	2.158	571655	REC_WORD	2.158	n/a	ERASER	OfficeSupplies	8	8	[0, 0, 0]	n/a	catFR1	0	R1102P
908.312	21.776	572734	REC_WORD	21.776	n/a	RECLINER	Furniture	10	8	[0, 0, 0]	n/a	catFR1	0	R1102P
930.088	2.777	583621	REC_END	n/a	n/a	n/a	n/a	-999	8	[0, 0, 0]	n/a	catFR1	0	R1102P
932.865	0.001	585010	COUNTDOWN_START	n/a	n/a	n/a	n/a	-999	9	[0, 0, 0]	n/a	catFR1	0	R1102P
932.866	10.427	585010	TRIAL	n/a	n/a	n/a	n/a	-999	9	[0, 0, 0]	n/a	catFR1	0	R1102P
943.293	0.008	590223	COUNTDOWN_END	n/a	n/a	n/a	n/a	-999	9	[0, 0, 0]	n/a	catFR1	0	R1102P
943.301	3.667	590227	ORIENT	n/a	n/a	n/a	n/a	-999	9	[0, 0, 0]	n/a	catFR1	0	R1102P
946.968	2.601	592061	WORD	n/a	wordpools/wordpool_categorized_EN.txt	FUDGE	Desserts	1	9	[0, 0, 0]	n/a	catFR1	0	R1102P
949.569	2.55	593361	WORD	n/a	wordpools/wordpool_categorized_EN.txt	CHEESECAKE	Desserts	2	9	[0, 0, 0]	n/a	catFR1	0	R1102P
952.119	2.551	594636	WORD	n/a	wordpools/wordpool_categorized_EN.txt	BOAT	Vehicles	3	9	[0, 0, 0]	n/a	catFR1	0	R1102P
954.67	2.417	595912	WORD	n/a	wordpools/wordpool_categorized_EN.txt	PLANE	Vehicles	4	9	[0, 0, 0]	n/a	catFR1	0	R1102P
957.087	2.417	597120	WORD	n/a	wordpools/wordpool_categorized_EN.txt	GORILLA	Zoo	5	9	[0, 0, 0]	n/a	catFR1	0	R1102P
959.504	2.567	598328	WORD	n/a	wordpools/wordpool_categorized_EN.txt	GIRAFFE	Zoo	6	9	[0, 0, 0]	n/a	catFR1	0	R1102P
962.071	2.484	599612	WORD	n/a	wordpools/wordpool_categorized_EN.txt	PASTRY	Desserts	7	9	[0, 0, 0]	n/a	catFR1	0	R1102P
964.555	2.417	600854	WORD	n/a	wordpools/wordpool_categorized_EN.txt	CUPCAKE	Desserts	8	9	[0, 0, 0]	n/a	catFR1	0	R1102P
966.972	2.584	602062	WORD	n/a	wordpools/wordpool_categorized_EN.txt	ELEPHANT	Zoo	9	9	[0, 0, 0]	n/a	catFR1	0	R1102P
969.556	2.467	603354	WORD	n/a	wordpools/wordpool_categorized_EN.txt	ORANGUTAN	Zoo	10	9	[0, 0, 0]	n/a	catFR1	0	R1102P
972.023	2.4	604588	WORD	n/a	wordpools/wordpool_categorized_EN.txt	TRAIN	Vehicles	11	9	[0, 0, 0]	n/a	catFR1	0	R1102P
974.423	1.617	605788	WORD	n/a	wordpools/wordpool_categorized_EN.txt	MOTORCYCLE	Vehicles	12	9	[0, 0, 0]	n/a	catFR1	0	R1102P
976.04	0.001	606596	DISTRACT_START	n/a	n/a	n/a	n/a	-999	9	[0, 0, 0]	n/a	catFR1	0	R1102P
976.041	0.016	606596	START	n/a	n/a	n/a	n/a	-999	9	[-999, -999, -999]	n/a	catFR1	0	R1102P
976.057	6.568	606604	PROB	6.568	n/a	n/a	n/a	-999	9	[6, 6, 3]	15	catFR1	0	R1102P
982.625	5.667	609888	PROB	5.667	n/a	n/a	n/a	-999	9	[8, 6, 6]	20	catFR1	0	R1102P
988.292	4.685	612722	PROB	4.685	n/a	n/a	n/a	-999	9	[4, 5, 4]	13	catFR1	0	R1102P
992.977	4.811	615064	PROB	4.811	n/a	n/a	n/a	-999	9	[7, 2, 7]	16	catFR1	0	R1102P
997.788	0.006	617469	STOP	n/a	n/a	n/a	n/a	-999	9	[-999, -999, -999]	n/a	catFR1	0	R1102P
997.794	1.051	617472	DISTRACT_END	n/a	n/a	n/a	n/a	-999	9	[0, 0, 0]	n/a	catFR1	0	R1102P
998.845	4.787	617998	REC_START	n/a	n/a	n/a	n/a	-999	9	[0, 0, 0]	n/a	catFR1	0	R1102P
1003.632	2.048	620391	REC_WORD	2.048	n/a	GORILLA	Zoo	5	9	[0, 0, 0]	n/a	catFR1	0	R1102P
1005.68	3.397	621415	REC_WORD	3.397	n/a	GIRAFFE	Zoo	6	9	[0, 0, 0]	n/a	catFR1	0	R1102P
1009.077	2.356	623114	REC_WORD	2.356	n/a	ELEPHANT	Zoo	9	9	[0, 0, 0]	n/a	catFR1	0	R1102P
1011.433	3.02	624292	REC_WORD	3.02	n/a	ORANGUTAN	Zoo	10	9	[0, 0, 0]	n/a	catFR1	0	R1102P
1014.453	0.602	625801	REC_WORD_VV	0.602	n/a	<>	n/a	-999	9	[0, 0, 0]	n/a	catFR1	0	R1102P
1015.055	1.0	626102	REC_WORD	1.0	n/a	CHEESECAKE	Desserts	2	9	[0, 0, 0]	n/a	catFR1	0	R1102P
1016.055	12.801	626602	REC_WORD_VV	12.801	n/a	<>	n/a	-999	9	[0, 0, 0]	n/a	catFR1	0	R1102P
1028.856	3.495	633003	REC_END	n/a	n/a	n/a	n/a	-999	9	[0, 0, 0]	n/a	catFR1	0	R1102P
1032.351	0.0	634750	TRIAL	n/a	n/a	n/a	n/a	-999	10	[0, 0, 0]	n/a	catFR1	0	R1102P
1032.351	10.428	634750	COUNTDOWN_START	n/a	n/a	n/a	n/a	-999	10	[0, 0, 0]	n/a	catFR1	0	R1102P
1042.779	0.007	639964	COUNTDOWN_END	n/a	n/a	n/a	n/a	-999	10	[0, 0, 0]	n/a	catFR1	0	R1102P
1042.786	3.667	639967	ORIENT	n/a	n/a	n/a	n/a	-999	10	[0, 0, 0]	n/a	catFR1	0	R1102P
1046.453	2.418	641801	WORD	n/a	wordpools/wordpool_categorized_EN.txt	BEACH	Landscapes	1	10	[0, 0, 0]	n/a	catFR1	0	R1102P
1048.871	2.383	643010	WORD	n/a	wordpools/wordpool_categorized_EN.txt	ISLAND	Landscapes	2	10	[0, 0, 0]	n/a	catFR1	0	R1102P
1051.254	2.452	644201	WORD	n/a	wordpools/wordpool_categorized_EN.txt	ANT	Insects	3	10	[0, 0, 0]	n/a	catFR1	0	R1102P
1053.706	2.483	645427	WORD	n/a	wordpools/wordpool_categorized_EN.txt	GNAT	Insects	4	10	[0, 0, 0]	n/a	catFR1	0	R1102P
1056.189	2.45	646668	WORD	n/a	wordpools/wordpool_categorized_EN.txt	BOOKCASE	Furniture	5	10	[0, 0, 0]	n/a	catFR1	0	R1102P
1058.639	2.567	647893	WORD	n/a	wordpools/wordpool_categorized_EN.txt	SOFA	Furniture	6	10	[0, 0, 0]	n/a	catFR1	0	R1102P
1061.206	2.467	649177	WORD	n/a	wordpools/wordpool_categorized_EN.txt	LADYBUG	Insects	7	10	[0, 0, 0]	n/a	catFR1	0	R1102P
1063.673	2.434	650410	WORD	n/a	wordpools/wordpool_categorized_EN.txt	CRICKET	Insects	8	10	[0, 0, 0]	n/a	catFR1	0	R1102P
1066.107	2.367	651627	WORD	n/a	wordpools/wordpool_categorized_EN.txt	VALLEY	Landscapes	9	10	[0, 0, 0]	n/a	catFR1	0	R1102P
1068.474	2.517	652811	WORD	n/a	wordpools/wordpool_categorized_EN.txt	WOODS	Landscapes	10	10	[0, 0, 0]	n/a	catFR1	0	R1102P
1070.991	2.617	654069	WORD	n/a	wordpools/wordpool_categorized_EN.txt	COUCH	Furniture	11	10	[0, 0, 0]	n/a	catFR1	0	R1102P
1073.608	1.617	655377	WORD	n/a	wordpools/wordpool_categorized_EN.txt	CABINET	Furniture	12	10	[0, 0, 0]	n/a	catFR1	0	R1102P
1075.225	0.001	656186	DISTRACT_START	n/a	n/a	n/a	n/a	-999	10	[0, 0, 0]	n/a	catFR1	0	R1102P
1075.226	0.016	656186	START	n/a	n/a	n/a	n/a	-999	10	[-999, -999, -999]	n/a	catFR1	0	R1102P
1075.242	6.901	656194	PROB	6.901	n/a	n/a	n/a	-999	10	[3, 5, 2]	10	catFR1	0	R1102P
1082.143	4.951	659645	PROB	4.951	n/a	n/a	n/a	-999	10	[3, 9, 4]	16	catFR1	0	R1102P
1087.094	3.684	662120	PROB	3.684	n/a	n/a	n/a	-999	10	[4, 3, 1]	8	catFR1	0	R1102P
1090.778	4.218	663962	PROB	4.218	n/a	n/a	n/a	-999	10	[5, 2, 6]	13	catFR1	0	R1102P
1094.996	4.808	666071	PROB	4.808	n/a	n/a	n/a	-999	10	[3, 5, 9]	17	catFR1	0	R1102P
1099.804	0.009	668475	STOP	n/a	n/a	n/a	n/a	-999	10	[-999, -999, -999]	n/a	catFR1	0	R1102P
1099.813	1.184	668479	DISTRACT_END	n/a	n/a	n/a	n/a	-999	10	[0, 0, 0]	n/a	catFR1	0	R1102P
1100.997	3.719	669071	REC_START	n/a	n/a	n/a	n/a	-999	10	[0, 0, 0]	n/a	catFR1	0	R1102P
1104.716	1.515	670931	REC_WORD	1.515	n/a	ANT	Insects	3	10	[0, 0, 0]	n/a	catFR1	0	R1102P
1106.231	2.057	671688	REC_WORD	2.057	n/a	GNAT	Insects	4	10	[0, 0, 0]	n/a	catFR1	0	R1102P
1108.288	0.792	672716	REC_WORD	0.792	n/a	LADYBUG	Insects	7	10	[0, 0, 0]	n/a	catFR1	0	R1102P
1109.08	21.932	673112	REC_WORD	21.932	n/a	CRICKET	Insects	8	10	[0, 0, 0]	n/a	catFR1	0	R1102P
1131.012	6.392	684078	REC_END	n/a	n/a	n/a	n/a	-999	10	[0, 0, 0]	n/a	catFR1	0	R1102P
1137.404	0.0	687274	COUNTDOWN_START	n/a	n/a	n/a	n/a	-999	11	[0, 0, 0]	n/a	catFR1	0	R1102P
1137.404	10.428	687274	TRIAL	n/a	n/a	n/a	n/a	-999	11	[0, 0, 0]	n/a	catFR1	0	R1102P
1147.832	0.007	692487	COUNTDOWN_END	n/a	n/a	n/a	n/a	-999	11	[0, 0, 0]	n/a	catFR1	0	R1102P
1147.839	3.717	692491	ORIENT	n/a	n/a	n/a	n/a	-999	11	[0, 0, 0]	n/a	catFR1	0	R1102P
1151.556	2.501	694349	WORD	n/a	wordpools/wordpool_categorized_EN.txt	ARM	BodyParts	1	11	[0, 0, 0]	n/a	catFR1	0	R1102P
1154.057	2.484	695600	WORD	n/a	wordpools/wordpool_categorized_EN.txt	TOE	BodyParts	2	11	[0, 0, 0]	n/a	catFR1	0	R1102P
1156.541	2.466	696842	WORD	n/a	wordpools/wordpool_categorized_EN.txt	BEER	Beverages	3	11	[0, 0, 0]	n/a	catFR1	0	R1102P
1159.007	2.568	698075	WORD	n/a	wordpools/wordpool_categorized_EN.txt	RUM	Beverages	4	11	[0, 0, 0]	n/a	catFR1	0	R1102P
1161.575	2.567	699359	WORD	n/a	wordpools/wordpool_categorized_EN.txt	FISH	OceanAnimals	5	11	[0, 0, 0]	n/a	catFR1	0	R1102P
1164.142	2.417	700642	WORD	n/a	wordpools/wordpool_categorized_EN.txt	LOBSTER	OceanAnimals	6	11	[0, 0, 0]	n/a	catFR1	0	R1102P
1166.559	2.451	701850	WORD	n/a	wordpools/wordpool_categorized_EN.txt	LEMONADE	Beverages	7	11	[0, 0, 0]	n/a	catFR1	0	R1102P
1169.01	2.4	703076	WORD	n/a	wordpools/wordpool_categorized_EN.txt	TEA	Beverages	8	11	[0, 0, 0]	n/a	catFR1	0	R1102P
1171.41	2.45	704276	WORD	n/a	wordpools/wordpool_categorized_EN.txt	FINGERS	BodyParts	9	11	[0, 0, 0]	n/a	catFR1	0	R1102P
1173.86	2.418	705501	WORD	n/a	wordpools/wordpool_categorized_EN.txt	EAR	BodyParts	10	11	[0, 0, 0]	n/a	catFR1	0	R1102P
1176.278	2.55	706710	WORD	n/a	wordpools/wordpool_categorized_EN.txt	WHALE	OceanAnimals	11	11	[0, 0, 0]	n/a	catFR1	0	R1102P
1178.828	1.617	707985	WORD	n/a	wordpools/wordpool_categorized_EN.txt	OYSTER	OceanAnimals	12	11	[0, 0, 0]	n/a	catFR1	0	R1102P
1180.445	0.001	708793	DISTRACT_START	n/a	n/a	n/a	n/a	-999	11	[0, 0, 0]	n/a	catFR1	0	R1102P
1180.446	0.016	708794	START	n/a	n/a	n/a	n/a	-999	11	[-999, -999, -999]	n/a	catFR1	0	R1102P
1180.462	8.185	708802	PROB	8.185	n/a	n/a	n/a	-999	11	[9, 2, 4]	15	catFR1	0	R1102P
1188.647	5.967	712894	PROB	5.967	n/a	n/a	n/a	-999	11	[5, 9, 5]	19	catFR1	0	R1102P
1194.614	5.701	715877	PROB	5.701	n/a	n/a	n/a	-999	11	[7, 8, 5]	20	catFR1	0	R1102P
1200.315	6.105	718727	PROB	6.105	n/a	n/a	n/a	-999	11	[8, 7, 6]	21	catFR1	0	R1102P
1206.42	0.013	721780	STOP	n/a	n/a	n/a	n/a	-999	11	[-999, -999, -999]	n/a	catFR1	0	R1102P
1206.433	1.034	721786	DISTRACT_END	n/a	n/a	n/a	n/a	-999	11	[0, 0, 0]	n/a	catFR1	0	R1102P
1207.467	4.629	722303	REC_START	n/a	n/a	n/a	n/a	-999	11	[0, 0, 0]	n/a	catFR1	0	R1102P
1212.096	1.495	724618	REC_WORD	1.495	n/a	ARM	BodyParts	1	11	[0, 0, 0]	n/a	catFR1	0	R1102P
1213.591	1.797	725365	REC_WORD	1.797	n/a	TOE	BodyParts	2	11	[0, 0, 0]	n/a	catFR1	0	R1102P
1215.388	0.819	726264	REC_WORD	0.819	n/a	TEA	Beverages	8	11	[0, 0, 0]	n/a	catFR1	0	R1102P
1216.207	2.929	726673	REC_WORD	2.929	n/a	FINGERS	BodyParts	9	11	[0, 0, 0]	n/a	catFR1	0	R1102P
1219.136	18.343	728137	REC_WORD	18.343	n/a	EAR	BodyParts	10	11	[0, 0, 0]	n/a	catFR1	0	R1102P
1237.479	4.577	737309	REC_END	n/a	n/a	n/a	n/a	-999	11	[0, 0, 0]	n/a	catFR1	0	R1102P
1242.056	0.001	739597	COUNTDOWN_START	n/a	n/a	n/a	n/a	-999	12	[0, 0, 0]	n/a	catFR1	0	R1102P
1242.057	10.427	739597	TRIAL	n/a	n/a	n/a	n/a	-999	12	[0, 0, 0]	n/a	catFR1	0	R1102P
1252.484	0.008	744811	COUNTDOWN_END	n/a	n/a	n/a	n/a	-999	12	[0, 0, 0]	n/a	catFR1	0	R1102P
1252.492	3.651	744815	ORIENT	n/a	n/a	n/a	n/a	-999	12	[0, 0, 0]	n/a	catFR1	0	R1102P
1256.143	2.533	746640	WORD	n/a	wordpools/wordpool_categorized_EN.txt	CAR	Vehicles	1	12	[0, 0, 0]	n/a	catFR1	0	R1102P
1258.676	2.484	747906	WORD	n/a	wordpools/wordpool_categorized_EN.txt	VAN	Vehicles	2	12	[0, 0, 0]	n/a	catFR1	0	R1102P
1261.16	2.484	749148	WORD	n/a	wordpools/wordpool_categorized_EN.txt	TUBA	Instruments	3	12	[0, 0, 0]	n/a	catFR1	0	R1102P
1263.644	2.5	750390	WORD	n/a	wordpools/wordpool_categorized_EN.txt	FLUTE	Instruments	4	12	[0, 0, 0]	n/a	catFR1	0	R1102P
1266.144	2.569	751640	WORD	n/a	wordpools/wordpool_categorized_EN.txt	MARKER	OfficeSupplies	5	12	[0, 0, 0]	n/a	catFR1	0	R1102P
1268.713	2.399	752925	WORD	n/a	wordpools/wordpool_categorized_EN.txt	TAPE	OfficeSupplies	6	12	[0, 0, 0]	n/a	catFR1	0	R1102P
1271.112	2.501	754124	WORD	n/a	wordpools/wordpool_categorized_EN.txt	GUITAR	Instruments	7	12	[0, 0, 0]	n/a	catFR1	0	R1102P
1273.613	2.433	755375	WORD	n/a	wordpools/wordpool_categorized_EN.txt	BANJO	Instruments	8	12	[0, 0, 0]	n/a	catFR1	0	R1102P
1276.046	2.617	756591	WORD	n/a	wordpools/wordpool_categorized_EN.txt	SCOOTER	Vehicles	9	12	[0, 0, 0]	n/a	catFR1	0	R1102P
1278.663	2.384	757899	WORD	n/a	wordpools/wordpool_categorized_EN.txt	JEEP	Vehicles	10	12	[0, 0, 0]	n/a	catFR1	0	R1102P
1281.047	2.484	759091	WORD	n/a	wordpools/wordpool_categorized_EN.txt	GLUE	OfficeSupplies	11	12	[0, 0, 0]	n/a	catFR1	0	R1102P
1283.531	1.617	760333	WORD	n/a	wordpools/wordpool_categorized_EN.txt	PAPER	OfficeSupplies	12	12	[0, 0, 0]	n/a	catFR1	0	R1102P
1285.148	0.001	761142	DISTRACT_START	n/a	n/a	n/a	n/a	-999	12	[0, 0, 0]	n/a	catFR1	0	R1102P
1285.149	0.016	761142	START	n/a	n/a	n/a	n/a	-999	12	[-999, -999, -999]	n/a	catFR1	0	R1102P
1285.165	7.101	761150	PROB	7.101	n/a	n/a	n/a	-999	12	[9, 8, 4]	21	catFR1	0	R1102P
1292.266	5.084	764701	PROB	5.084	n/a	n/a	n/a	-999	12	[1, 7, 7]	15	catFR1	0	R1102P
1297.35	4.485	767242	PROB	4.485	n/a	n/a	n/a	-999	12	[8, 7, 9]	24	catFR1	0	R1102P
1301.835	4.801	769485	PROB	4.801	n/a	n/a	n/a	-999	12	[6, 8, 6]	20	catFR1	0	R1102P
1306.636	0.016	771885	STOP	n/a	n/a	n/a	n/a	-999	12	[-999, -999, -999]	n/a	catFR1	0	R1102P
1306.652	1.201	771893	DISTRACT_END	n/a	n/a	n/a	n/a	-999	12	[0, 0, 0]	n/a	catFR1	0	R1102P
1307.853	4.116	772494	REC_START	n/a	n/a	n/a	n/a	-999	12	[0, 0, 0]	n/a	catFR1	0	R1102P
1311.969	1.212	774552	REC_WORD	1.212	n/a	CAR	Vehicles	1	12	[0, 0, 0]	n/a	catFR1	0	R1102P
1313.181	2.051	775157	REC_WORD	2.051	n/a	VAN	Vehicles	2	12	[0, 0, 0]	n/a	catFR1	0	R1102P
1315.232	1.052	776183	REC_WORD	1.052	n/a	GUITAR	Instruments	7	12	[0, 0, 0]	n/a	catFR1	0	R1102P
1316.284	21.58	776709	REC_WORD	21.58	n/a	BANJO	Instruments	8	12	[0, 0, 0]	n/a	catFR1	0	R1102P
1337.864	3.494	787498	REC_END	n/a	n/a	n/a	n/a	-999	12	[0, 0, 0]	n/a	catFR1	0	R1102P
1341.358	0.001	789245	COUNTDOWN_START	n/a	n/a	n/a	n/a	-999	13	[0, 0, 0]	n/a	catFR1	0	R1102P
1341.359	10.427	789246	TRIAL	n/a	n/a	n/a	n/a	-999	13	[0, 0, 0]	n/a	catFR1	0	R1102P
1351.786	0.008	794459	COUNTDOWN_END	n/a	n/a	n/a	n/a	-999	13	[0, 0, 0]	n/a	catFR1	0	R1102P
1351.794	3.717	794463	ORIENT	n/a	n/a	n/a	n/a	-999	13	[0, 0, 0]	n/a	catFR1	0	R1102P
1355.511	2.617	796321	WORD	n/a	wordpools/wordpool_categorized_EN.txt	COLANDER	KitchenTools	1	13	[0, 0, 0]	n/a	catFR1	0	R1102P
1358.128	2.551	797630	WORD	n/a	wordpools/wordpool_categorized_EN.txt	PEELER	KitchenTools	2	13	[0, 0, 0]	n/a	catFR1	0	R1102P
1360.679	2.484	798905	WORD	n/a	wordpools/wordpool_categorized_EN.txt	CARROT	Vegetables	3	13	[0, 0, 0]	n/a	catFR1	0	R1102P
1363.163	2.533	800147	WORD	n/a	wordpools/wordpool_categorized_EN.txt	CELERY	Vegetables	4	13	[0, 0, 0]	n/a	catFR1	0	R1102P
1365.696	2.568	801414	WORD	n/a	wordpools/wordpool_categorized_EN.txt	TURTLE	OceanAnimals	5	13	[0, 0, 0]	n/a	catFR1	0	R1102P
1368.264	2.451	802698	WORD	n/a	wordpools/wordpool_categorized_EN.txt	CRAB	OceanAnimals	6	13	[0, 0, 0]	n/a	catFR1	0	R1102P
1370.715	2.516	803923	WORD	n/a	wordpools/wordpool_categorized_EN.txt	FORK	KitchenTools	7	13	[0, 0, 0]	n/a	catFR1	0	R1102P
1373.231	2.485	805181	WORD	n/a	wordpools/wordpool_categorized_EN.txt	LADLE	KitchenTools	8	13	[0, 0, 0]	n/a	catFR1	0	R1102P
1375.716	2.466	806423	WORD	n/a	wordpools/wordpool_categorized_EN.txt	DOLPHIN	OceanAnimals	9	13	[0, 0, 0]	n/a	catFR1	0	R1102P
1378.182	2.467	807656	WORD	n/a	wordpools/wordpool_categorized_EN.txt	SHRIMP	OceanAnimals	10	13	[0, 0, 0]	n/a	catFR1	0	R1102P
1380.649	2.501	808890	WORD	n/a	wordpools/wordpool_categorized_EN.txt	SPINACH	Vegetables	11	13	[0, 0, 0]	n/a	catFR1	0	R1102P
1383.15	1.617	810140	WORD	n/a	wordpools/wordpool_categorized_EN.txt	BROCCOLI	Vegetables	12	13	[0, 0, 0]	n/a	catFR1	0	R1102P
1384.767	0.001	810949	DISTRACT_START	n/a	n/a	n/a	n/a	-999	13	[0, 0, 0]	n/a	catFR1	0	R1102P
1384.768	0.015	810949	START	n/a	n/a	n/a	n/a	-999	13	[-999, -999, -999]	n/a	catFR1	0	R1102P
1384.783	11.419	810957	PROB	11.419	n/a	n/a	n/a	-999	13	[2, 2, 9]	13	catFR1	0	R1102P
1396.202	6.935	816666	PROB	6.935	n/a	n/a	n/a	-999	13	[8, 3, 3]	14	catFR1	0	R1102P
1403.137	4.427	820133	PROB	4.427	n/a	n/a	n/a	-999	13	[3, 3, 2]	8	catFR1	0	R1102P
1407.564	0.007	822346	STOP	n/a	n/a	n/a	n/a	-999	13	[-999, -999, -999]	n/a	catFR1	0	R1102P
1407.571	1.051	822350	DISTRACT_END	n/a	n/a	n/a	n/a	-999	13	[0, 0, 0]	n/a	catFR1	0	R1102P
1408.622	2.54	822875	REC_START	n/a	n/a	n/a	n/a	-999	13	[0, 0, 0]	n/a	catFR1	0	R1102P
1411.162	1.373	824145	REC_WORD_VV	1.373	n/a	<>	n/a	-999	13	[0, 0, 0]	n/a	catFR1	0	R1102P
1412.535	1.378	824832	REC_WORD	1.378	n/a	TURTLE	OceanAnimals	5	13	[0, 0, 0]	n/a	catFR1	0	R1102P
1413.913	1.842	825521	REC_WORD	1.842	n/a	CRAB	OceanAnimals	6	13	[0, 0, 0]	n/a	catFR1	0	R1102P
1415.755	0.592	826442	REC_WORD	0.592	n/a	DOLPHIN	OceanAnimals	9	13	[0, 0, 0]	n/a	catFR1	0	R1102P
1416.347	22.287	826738	REC_WORD	22.287	n/a	SHRIMP	OceanAnimals	10	13	[0, 0, 0]	n/a	catFR1	0	R1102P
1438.634	32.465	837881	REC_END	n/a	n/a	n/a	n/a	-999	13	[0, 0, 0]	n/a	catFR1	0	R1102P
1471.099	0.0	854112	TRIAL	n/a	n/a	n/a	n/a	-999	14	[0, 0, 0]	n/a	catFR1	0	R1102P
1471.099	10.428	854112	COUNTDOWN_START	n/a	n/a	n/a	n/a	-999	14	[0, 0, 0]	n/a	catFR1	0	R1102P
1481.527	0.008	859326	COUNTDOWN_END	n/a	n/a	n/a	n/a	-999	14	[0, 0, 0]	n/a	catFR1	0	R1102P
1481.535	3.65	859330	ORIENT	n/a	n/a	n/a	n/a	-999	14	[0, 0, 0]	n/a	catFR1	0	R1102P
1485.185	2.384	861155	WORD	n/a	wordpools/wordpool_categorized_EN.txt	FOOTBALL	Toys	1	14	[0, 0, 0]	n/a	catFR1	0	R1102P
1487.569	2.584	862347	WORD	n/a	wordpools/wordpool_categorized_EN.txt	DOLLHOUSE	Toys	2	14	[0, 0, 0]	n/a	catFR1	0	R1102P
1490.153	2.534	863639	WORD	n/a	wordpools/wordpool_categorized_EN.txt	FREEZER	Appliances	3	14	[0, 0, 0]	n/a	catFR1	0	R1102P
1492.687	2.417	864906	WORD	n/a	wordpools/wordpool_categorized_EN.txt	VACUUM	Appliances	4	14	[0, 0, 0]	n/a	catFR1	0	R1102P
1495.104	2.517	866114	WORD	n/a	wordpools/wordpool_categorized_EN.txt	TULIP	Flowers	5	14	[0, 0, 0]	n/a	catFR1	0	R1102P
1497.621	2.617	867373	WORD	n/a	wordpools/wordpool_categorized_EN.txt	ROSE	Flowers	6	14	[0, 0, 0]	n/a	catFR1	0	R1102P
1500.238	2.501	868681	WORD	n/a	wordpools/wordpool_categorized_EN.txt	WASHER	Appliances	7	14	[0, 0, 0]	n/a	catFR1	0	R1102P
1502.739	2.5	869931	WORD	n/a	wordpools/wordpool_categorized_EN.txt	MIXER	Appliances	8	14	[0, 0, 0]	n/a	catFR1	0	R1102P
1505.239	2.417	871181	WORD	n/a	wordpools/wordpool_categorized_EN.txt	PUZZLE	Toys	9	14	[0, 0, 0]	n/a	catFR1	0	R1102P
1507.656	2.534	872390	WORD	n/a	wordpools/wordpool_categorized_EN.txt	BASKETBALL	Toys	10	14	[0, 0, 0]	n/a	catFR1	0	R1102P
1510.19	2.484	873657	WORD	n/a	wordpools/wordpool_categorized_EN.txt	VIOLET	Flowers	11	14	[0, 0, 0]	n/a	catFR1	0	R1102P
1512.674	1.617	874899	WORD	n/a	wordpools/wordpool_categorized_EN.txt	MARIGOLD	Flowers	12	14	[0, 0, 0]	n/a	catFR1	0	R1102P
1514.291	0.0	875707	DISTRACT_START	n/a	n/a	n/a	n/a	-999	14	[0, 0, 0]	n/a	catFR1	0	R1102P
1514.291	0.016	875707	START	n/a	n/a	n/a	n/a	-999	14	[-999, -999, -999]	n/a	catFR1	0	R1102P
1514.307	6.668	875715	PROB	6.668	n/a	n/a	n/a	-999	14	[9, 5, 6]	20	catFR1	0	R1102P
1520.975	6.568	879049	PROB	6.568	n/a	n/a	n/a	-999	14	[5, 9, 8]	22	catFR1	0	R1102P
1527.543	6.318	882333	PROB	6.318	n/a	n/a	n/a	-999	14	[2, 6, 9]	17	catFR1	0	R1102P
1533.861	4.047	885492	PROB	4.047	n/a	n/a	n/a	-999	14	[4, 2, 3]	9	catFR1	0	R1102P
1537.908	0.004	887515	STOP	n/a	n/a	n/a	n/a	-999	14	[-999, -999, -999]	n/a	catFR1	0	R1102P
1537.912	1.034	887517	DISTRACT_END	n/a	n/a	n/a	n/a	-999	14	[0, 0, 0]	n/a	catFR1	0	R1102P
1538.946	2.896	888034	REC_START	n/a	n/a	n/a	n/a	-999	14	[0, 0, 0]	n/a	catFR1	0	R1102P
1541.842	1.161	889482	REC_WORD	1.161	n/a	FOOTBALL	Toys	1	14	[0, 0, 0]	n/a	catFR1	0	R1102P
1543.003	2.169	890062	REC_WORD	2.169	n/a	BASKETBALL	Toys	10	14	[0, 0, 0]	n/a	catFR1	0	R1102P
1545.172	2.603	891147	REC_WORD	2.603	n/a	FREEZER	Appliances	3	14	[0, 0, 0]	n/a	catFR1	0	R1102P
1547.775	21.182	892448	REC_WORD	21.182	n/a	WASHER	Appliances	7	14	[0, 0, 0]	n/a	catFR1	0	R1102P
1568.957	2.895	903039	REC_END	n/a	n/a	n/a	n/a	-999	14	[0, 0, 0]	n/a	catFR1	0	R1102P
1571.852	0.0	904486	TRIAL	n/a	n/a	n/a	n/a	-999	15	[0, 0, 0]	n/a	catFR1	0	R1102P
1571.852	10.428	904486	COUNTDOWN_START	n/a	n/a	n/a	n/a	-999	15	[0, 0, 0]	n/a	catFR1	0	R1102P
1582.28	0.007	909700	COUNTDOWN_END	n/a	n/a	n/a	n/a	-999	15	[0, 0, 0]	n/a	catFR1	0	R1102P
1582.287	3.901	909703	ORIENT	n/a	n/a	n/a	n/a	-999	15	[0, 0, 0]	n/a	catFR1	0	R1102P
1586.188	2.433	911654	WORD	n/a	wordpools/wordpool_categorized_EN.txt	TONGS	KitchenTools	1	15	[0, 0, 0]	n/a	catFR1	0	R1102P
1588.621	2.618	912870	WORD	n/a	wordpools/wordpool_categorized_EN.txt	GRATER	KitchenTools	2	15	[0, 0, 0]	n/a	catFR1	0	R1102P
1591.239	2.484	914179	WORD	n/a	wordpools/wordpool_categorized_EN.txt	CAKE	Desserts	3	15	[0, 0, 0]	n/a	catFR1	0	R1102P
1593.723	2.466	915421	WORD	n/a	wordpools/wordpool_categorized_EN.txt	JELLO	Desserts	4	15	[0, 0, 0]	n/a	catFR1	0	R1102P
1596.189	2.601	916654	WORD	n/a	wordpools/wordpool_categorized_EN.txt	REFRIGERATOR	Appliances	5	15	[0, 0, 0]	n/a	catFR1	0	R1102P
1598.79	2.5	917954	WORD	n/a	wordpools/wordpool_categorized_EN.txt	STOVE	Appliances	6	15	[0, 0, 0]	n/a	catFR1	0	R1102P
1601.29	2.534	919204	WORD	n/a	wordpools/wordpool_categorized_EN.txt	COOKIE	Desserts	7	15	[0, 0, 0]	n/a	catFR1	0	R1102P
1603.824	2.434	920471	WORD	n/a	wordpools/wordpool_categorized_EN.txt	MOUSSE	Desserts	8	15	[0, 0, 0]	n/a	catFR1	0	R1102P
1606.258	2.634	921688	WORD	n/a	wordpools/wordpool_categorized_EN.txt	KNIFE	KitchenTools	9	15	[0, 0, 0]	n/a	catFR1	0	R1102P
1608.892	2.434	923005	WORD	n/a	wordpools/wordpool_categorized_EN.txt	SPATULA	KitchenTools	10	15	[0, 0, 0]	n/a	catFR1	0	R1102P
1611.326	2.418	924222	WORD	n/a	wordpools/wordpool_categorized_EN.txt	OVEN	Appliances	11	15	[0, 0, 0]	n/a	catFR1	0	R1102P
1613.744	1.616	925431	WORD	n/a	wordpools/wordpool_categorized_EN.txt	DISHWASHER	Appliances	12	15	[0, 0, 0]	n/a	catFR1	0	R1102P
1615.36	0.001	926239	DISTRACT_START	n/a	n/a	n/a	n/a	-999	15	[0, 0, 0]	n/a	catFR1	0	R1102P
1615.361	0.015	926239	START	n/a	n/a	n/a	n/a	-999	15	[-999, -999, -999]	n/a	catFR1	0	R1102P
1615.376	8.252	926247	PROB	8.252	n/a	n/a	n/a	-999	15	[7, 1, 4]	12	catFR1	0	R1102P
1623.628	5.668	930373	PROB	5.668	n/a	n/a	n/a	-999	15	[4, 1, 3]	8	catFR1	0	R1102P
1629.296	4.367	933207	PROB	4.367	n/a	n/a	n/a	-999	15	[5, 5, 5]	15	catFR1	0	R1102P
1633.663	5.189	935390	PROB	5.189	n/a	n/a	n/a	-999	15	[4, 1, 2]	7	catFR1	0	R1102P
1638.852	0.012	937984	STOP	n/a	n/a	n/a	n/a	-999	15	[-999, -999, -999]	n/a	catFR1	0	R1102P
1638.864	1.118	937990	DISTRACT_END	n/a	n/a	n/a	n/a	-999	15	[0, 0, 0]	n/a	catFR1	0	R1102P
1639.982	3.795	938549	REC_START	n/a	n/a	n/a	n/a	-999	15	[0, 0, 0]	n/a	catFR1	0	R1102P
1643.777	0.42	940447	REC_WORD_VV	0.42	n/a	<>	n/a	-999	15	[0, 0, 0]	n/a	catFR1	0	R1102P
1644.197	1.338	940657	REC_WORD	1.338	n/a	GRATER	KitchenTools	2	15	[0, 0, 0]	n/a	catFR1	0	R1102P
1645.535	6.328	941326	REC_WORD	6.328	n/a	REFRIGERATOR	Appliances	5	15	[0, 0, 0]	n/a	catFR1	0	R1102P
1651.863	16.286	944489	REC_WORD_VV	16.286	n/a	<>	n/a	-999	15	[0, 0, 0]	n/a	catFR1	0	R1102P
1668.149	1.845	952632	REC_WORD	1.845	n/a	TONGS	KitchenTools	1	15	[0, 0, 0]	n/a	catFR1	0	R1102P
1669.994	4.827	953554	REC_END	n/a	n/a	n/a	n/a	-999	15	[0, 0, 0]	n/a	catFR1	0	R1102P
1674.821	0.0	955968	TRIAL	n/a	n/a	n/a	n/a	-999	16	[0, 0, 0]	n/a	catFR1	0	R1102P
1674.821	10.428	955968	COUNTDOWN_START	n/a	n/a	n/a	n/a	-999	16	[0, 0, 0]	n/a	catFR1	0	R1102P
1685.249	0.007	961182	COUNTDOWN_END	n/a	n/a	n/a	n/a	-999	16	[0, 0, 0]	n/a	catFR1	0	R1102P
1685.256	3.784	961185	ORIENT	n/a	n/a	n/a	n/a	-999	16	[0, 0, 0]	n/a	catFR1	0	R1102P
1689.04	2.584	963077	WORD	n/a	wordpools/wordpool_categorized_EN.txt	PIGEON	Birds	1	16	[0, 0, 0]	n/a	catFR1	0	R1102P
1691.624	2.634	964369	WORD	n/a	wordpools/wordpool_categorized_EN.txt	DUCK	Birds	2	16	[0, 0, 0]	n/a	catFR1	0	R1102P
1694.258	2.501	965686	WORD	n/a	wordpools/wordpool_categorized_EN.txt	HORSE	FarmAnimals	3	16	[0, 0, 0]	n/a	catFR1	0	R1102P
1696.759	2.6	966936	WORD	n/a	wordpools/wordpool_categorized_EN.txt	GOAT	FarmAnimals	4	16	[0, 0, 0]	n/a	catFR1	0	R1102P
1699.359	2.434	968236	WORD	n/a	wordpools/wordpool_categorized_EN.txt	SHORTS	Clothing	5	16	[0, 0, 0]	n/a	catFR1	0	R1102P
1701.793	2.517	969453	WORD	n/a	wordpools/wordpool_categorized_EN.txt	UNDERWEAR	Clothing	6	16	[0, 0, 0]	n/a	catFR1	0	R1102P
1704.31	2.418	970712	WORD	n/a	wordpools/wordpool_categorized_EN.txt	SEAGULL	Birds	7	16	[0, 0, 0]	n/a	catFR1	0	R1102P
1706.728	2.449	971920	WORD	n/a	wordpools/wordpool_categorized_EN.txt	ROBIN	Birds	8	16	[0, 0, 0]	n/a	catFR1	0	R1102P
1709.177	2.451	973145	WORD	n/a	wordpools/wordpool_categorized_EN.txt	SKIRT	Clothing	9	16	[0, 0, 0]	n/a	catFR1	0	R1102P
1711.628	2.45	974370	WORD	n/a	wordpools/wordpool_categorized_EN.txt	COAT	Clothing	10	16	[0, 0, 0]	n/a	catFR1	0	R1102P
1714.078	2.534	975595	WORD	n/a	wordpools/wordpool_categorized_EN.txt	SHEEP	FarmAnimals	11	16	[0, 0, 0]	n/a	catFR1	0	R1102P
1716.612	1.617	976862	WORD	n/a	wordpools/wordpool_categorized_EN.txt	BULL	FarmAnimals	12	16	[0, 0, 0]	n/a	catFR1	0	R1102P
1718.229	0.001	977671	DISTRACT_START	n/a	n/a	n/a	n/a	-999	16	[0, 0, 0]	n/a	catFR1	0	R1102P
1718.23	0.016	977671	START	n/a	n/a	n/a	n/a	-999	16	[-999, -999, -999]	n/a	catFR1	0	R1102P
1718.246	7.434	977679	PROB	7.434	n/a	n/a	n/a	-999	16	[9, 8, 3]	20	catFR1	0	R1102P
1725.68	8.069	981396	PROB	8.069	n/a	n/a	n/a	-999	16	[8, 6, 7]	21	catFR1	0	R1102P
1733.749	5.616	985430	PROB	5.616	n/a	n/a	n/a	-999	16	[1, 7, 2]	10	catFR1	0	R1102P
1739.365	0.018	988238	STOP	n/a	n/a	n/a	n/a	-999	16	[-999, -999, -999]	n/a	catFR1	0	R1102P
1739.383	1.067	988247	DISTRACT_END	n/a	n/a	n/a	n/a	-999	16	[0, 0, 0]	n/a	catFR1	0	R1102P
1740.45	3.589	988781	REC_START	n/a	n/a	n/a	n/a	-999	16	[0, 0, 0]	n/a	catFR1	0	R1102P
1744.039	1.579	990575	REC_WORD	1.579	n/a	PIGEON	Birds	1	16	[0, 0, 0]	n/a	catFR1	0	R1102P
1745.618	2.147	991364	REC_WORD	2.147	n/a	DUCK	Birds	2	16	[0, 0, 0]	n/a	catFR1	0	R1102P
1747.765	2.39	992438	REC_WORD	2.39	n/a	SEAGULL	Birds	7	16	[0, 0, 0]	n/a	catFR1	0	R1102P
1750.155	13.578	993633	REC_WORD	13.578	n/a	SHEEP	FarmAnimals	11	16	[0, 0, 0]	n/a	catFR1	0	R1102P
1763.733	2.407	1000421	REC_WORD_VV	2.407	n/a	<>	n/a	-999	16	[0, 0, 0]	n/a	catFR1	0	R1102P
1766.14	4.326	1001625	REC_WORD	4.326	n/a	OVEN	n/a	-999	16	[0, 0, 0]	n/a	catFR1	0	R1102P
1770.466	2.906	1003788	REC_END	n/a	n/a	n/a	n/a	-999	16	[0, 0, 0]	n/a	catFR1	0	R1102P
1773.372	0.001	1005241	COUNTDOWN_START	n/a	n/a	n/a	n/a	-999	17	[0, 0, 0]	n/a	catFR1	0	R1102P
1773.373	10.427	1005241	TRIAL	n/a	n/a	n/a	n/a	-999	17	[0, 0, 0]	n/a	catFR1	0	R1102P
1783.8	0.008	1010454	COUNTDOWN_END	n/a	n/a	n/a	n/a	-999	17	[0, 0, 0]	n/a	catFR1	0	R1102P
1783.808	3.634	1010458	ORIENT	n/a	n/a	n/a	n/a	-999	17	[0, 0, 0]	n/a	catFR1	0	R1102P
1787.442	2.434	1012275	WORD	n/a	wordpools/wordpool_categorized_EN.txt	CEILING	Building	1	17	[0, 0, 0]	n/a	catFR1	0	R1102P
1789.876	2.433	1013492	WORD	n/a	wordpools/wordpool_categorized_EN.txt	HALLWAY	Building	2	17	[0, 0, 0]	n/a	catFR1	0	R1102P
1792.309	2.601	1014709	WORD	n/a	wordpools/wordpool_categorized_EN.txt	TABLET	Electronics	3	17	[0, 0, 0]	n/a	catFR1	0	R1102P
1794.91	2.6	1016009	WORD	n/a	wordpools/wordpool_categorized_EN.txt	MICROWAVE	Electronics	4	17	[0, 0, 0]	n/a	catFR1	0	R1102P
1797.51	2.484	1017309	WORD	n/a	wordpools/wordpool_categorized_EN.txt	CROWBAR	Tools	5	17	[0, 0, 0]	n/a	catFR1	0	R1102P
1799.994	2.484	1018551	WORD	n/a	wordpools/wordpool_categorized_EN.txt	WRENCH	Tools	6	17	[0, 0, 0]	n/a	catFR1	0	R1102P
1802.478	2.434	1019793	WORD	n/a	wordpools/wordpool_categorized_EN.txt	BATHROOM	Building	7	17	[0, 0, 0]	n/a	catFR1	0	R1102P
1804.912	2.467	1021010	WORD	n/a	wordpools/wordpool_categorized_EN.txt	WINDOW	Building	8	17	[0, 0, 0]	n/a	catFR1	0	R1102P
1807.379	2.517	1022243	WORD	n/a	wordpools/wordpool_categorized_EN.txt	PLIERS	Tools	9	17	[0, 0, 0]	n/a	catFR1	0	R1102P
1809.896	2.467	1023502	WORD	n/a	wordpools/wordpool_categorized_EN.txt	LEVEL	Tools	10	17	[0, 0, 0]	n/a	catFR1	0	R1102P
1812.363	2.501	1024735	WORD	n/a	wordpools/wordpool_categorized_EN.txt	HEADPHONES	Electronics	11	17	[0, 0, 0]	n/a	catFR1	0	R1102P
1814.864	1.617	1025986	WORD	n/a	wordpools/wordpool_categorized_EN.txt	TELEVISION	Electronics	12	17	[0, 0, 0]	n/a	catFR1	0	R1102P
1816.481	0.001	1026794	DISTRACT_START	n/a	n/a	n/a	n/a	-999	17	[0, 0, 0]	n/a	catFR1	0	R1102P
1816.482	0.015	1026795	START	n/a	n/a	n/a	n/a	-999	17	[-999, -999, -999]	n/a	catFR1	0	R1102P
1816.497	7.885	1026802	PROB	7.885	n/a	n/a	n/a	-999	17	[6, 7, 2]	15	catFR1	0	R1102P
1824.382	7.685	1030744	PROB	7.685	n/a	n/a	n/a	-999	17	[9, 5, 4]	18	catFR1	0	R1102P
1832.067	6.137	1034587	PROB	6.137	n/a	n/a	n/a	-999	17	[3, 5, 5]	13	catFR1	0	R1102P
1838.204	0.014	1037655	STOP	n/a	n/a	n/a	n/a	-999	17	[-999, -999, -999]	n/a	catFR1	0	R1102P
1838.218	1.084	1037662	DISTRACT_END	n/a	n/a	n/a	n/a	-999	17	[0, 0, 0]	n/a	catFR1	0	R1102P
1839.302	4.657	1038204	REC_START	n/a	n/a	n/a	n/a	-999	17	[0, 0, 0]	n/a	catFR1	0	R1102P
1843.959	2.74	1040532	REC_WORD	2.74	n/a	CROWBAR	Tools	5	17	[0, 0, 0]	n/a	catFR1	0	R1102P
1846.699	3.218	1041902	REC_WORD	3.218	n/a	PLIERS	Tools	9	17	[0, 0, 0]	n/a	catFR1	0	R1102P
1849.917	19.396	1043511	REC_WORD	19.396	n/a	WRENCH	Tools	6	17	[0, 0, 0]	n/a	catFR1	0	R1102P
1869.313	3.695	1053209	REC_END	n/a	n/a	n/a	n/a	-999	17	[0, 0, 0]	n/a	catFR1	0	R1102P
1873.008	0.0	1055056	TRIAL	n/a	n/a	n/a	n/a	-999	18	[0, 0, 0]	n/a	catFR1	0	R1102P
1873.008	10.428	1055056	COUNTDOWN_START	n/a	n/a	n/a	n/a	-999	18	[0, 0, 0]	n/a	catFR1	0	R1102P
1883.436	0.007	1060270	COUNTDOWN_END	n/a	n/a	n/a	n/a	-999	18	[0, 0, 0]	n/a	catFR1	0	R1102P
1883.443	3.817	1060273	ORIENT	n/a	n/a	n/a	n/a	-999	18	[0, 0, 0]	n/a	catFR1	0	R1102P
1887.26	2.584	1062182	WORD	n/a	wordpools/wordpool_categorized_EN.txt	WINE	Beverages	1	18	[0, 0, 0]	n/a	catFR1	0	R1102P
1889.844	2.401	1063474	WORD	n/a	wordpools/wordpool_categorized_EN.txt	COFFEE	Beverages	2	18	[0, 0, 0]	n/a	catFR1	0	R1102P
1892.245	2.434	1064674	WORD	n/a	wordpools/wordpool_categorized_EN.txt	OCEAN	Landscapes	3	18	[0, 0, 0]	n/a	catFR1	0	R1102P
1894.679	2.4	1065891	WORD	n/a	wordpools/wordpool_categorized_EN.txt	STREAM	Landscapes	4	18	[0, 0, 0]	n/a	catFR1	0	R1102P
1897.079	2.567	1067091	WORD	n/a	wordpools/wordpool_categorized_EN.txt	BIKE	Vehicles	5	18	[0, 0, 0]	n/a	catFR1	0	R1102P
1899.646	2.517	1068374	WORD	n/a	wordpools/wordpool_categorized_EN.txt	BUS	Vehicles	6	18	[0, 0, 0]	n/a	catFR1	0	R1102P
1902.163	2.451	1069633	WORD	n/a	wordpools/wordpool_categorized_EN.txt	LAKE	Landscapes	7	18	[0, 0, 0]	n/a	catFR1	0	R1102P
1904.614	2.617	1070858	WORD	n/a	wordpools/wordpool_categorized_EN.txt	CREEK	Landscapes	8	18	[0, 0, 0]	n/a	catFR1	0	R1102P
1907.231	2.417	1072167	WORD	n/a	wordpools/wordpool_categorized_EN.txt	COLA	Beverages	9	18	[0, 0, 0]	n/a	catFR1	0	R1102P
1909.648	2.467	1073375	WORD	n/a	wordpools/wordpool_categorized_EN.txt	WATER	Beverages	10	18	[0, 0, 0]	n/a	catFR1	0	R1102P
1912.115	2.567	1074609	WORD	n/a	wordpools/wordpool_categorized_EN.txt	MOPED	Vehicles	11	18	[0, 0, 0]	n/a	catFR1	0	R1102P
1914.682	1.617	1075892	WORD	n/a	wordpools/wordpool_categorized_EN.txt	TRUCK	Vehicles	12	18	[0, 0, 0]	n/a	catFR1	0	R1102P
1916.299	0.001	1076700	DISTRACT_START	n/a	n/a	n/a	n/a	-999	18	[0, 0, 0]	n/a	catFR1	0	R1102P
1916.3	0.016	1076701	START	n/a	n/a	n/a	n/a	-999	18	[-999, -999, -999]	n/a	catFR1	0	R1102P
1916.316	6.168	1076709	PROB	6.168	n/a	n/a	n/a	-999	18	[7, 7, 4]	18	catFR1	0	R1102P
1922.484	6.184	1079793	PROB	6.184	n/a	n/a	n/a	-999	18	[5, 9, 2]	16	catFR1	0	R1102P
1928.668	5.086	1082885	PROB	5.086	n/a	n/a	n/a	-999	18	[5, 4, 8]	17	catFR1	0	R1102P
1933.754	5.042	1085427	PROB	5.042	n/a	n/a	n/a	-999	18	[8, 4, 5]	17	catFR1	0	R1102P
1938.796	0.007	1087948	STOP	n/a	n/a	n/a	n/a	-999	18	[-999, -999, -999]	n/a	catFR1	0	R1102P
1938.803	1.118	1087952	DISTRACT_END	n/a	n/a	n/a	n/a	-999	18	[0, 0, 0]	n/a	catFR1	0	R1102P
1939.921	3.602	1088511	REC_START	n/a	n/a	n/a	n/a	-999	18	[0, 0, 0]	n/a	catFR1	0	R1102P
1943.523	0.922	1090312	REC_WORD	0.922	n/a	WINE	Beverages	1	18	[0, 0, 0]	n/a	catFR1	0	R1102P
1944.445	3.114	1090773	REC_WORD	3.114	n/a	COFFEE	Beverages	2	18	[0, 0, 0]	n/a	catFR1	0	R1102P
1947.559	2.784	1092330	REC_WORD	2.784	n/a	COLA	Beverages	9	18	[0, 0, 0]	n/a	catFR1	0	R1102P
1950.343	1.0	1093721	REC_WORD	1.0	n/a	STREAM	Landscapes	4	18	[0, 0, 0]	n/a	catFR1	0	R1102P
1951.343	1.981	1094221	REC_WORD_VV	1.981	n/a	<>	n/a	-999	18	[0, 0, 0]	n/a	catFR1	0	R1102P
1953.324	16.607	1095212	REC_WORD	16.607	n/a	WATER	Beverages	10	18	[0, 0, 0]	n/a	catFR1	0	R1102P
1969.931	2.813	1103515	REC_END	n/a	n/a	n/a	n/a	-999	18	[0, 0, 0]	n/a	catFR1	0	R1102P
1972.744	0.0	1104921	TRIAL	n/a	n/a	n/a	n/a	-999	19	[0, 0, 0]	n/a	catFR1	0	R1102P
1972.744	10.428	1104921	COUNTDOWN_START	n/a	n/a	n/a	n/a	-999	19	[0, 0, 0]	n/a	catFR1	0	R1102P
1983.172	0.006	1110135	COUNTDOWN_END	n/a	n/a	n/a	n/a	-999	19	[0, 0, 0]	n/a	catFR1	0	R1102P
1983.178	3.734	1110138	ORIENT	n/a	n/a	n/a	n/a	-999	19	[0, 0, 0]	n/a	catFR1	0	R1102P
1986.912	2.518	1112005	WORD	n/a	wordpools/wordpool_categorized_EN.txt	BROWNIES	Desserts	1	19	[0, 0, 0]	n/a	catFR1	0	R1102P
1989.43	2.583	1113264	WORD	n/a	wordpools/wordpool_categorized_EN.txt	PUDDING	Desserts	2	19	[0, 0, 0]	n/a	catFR1	0	R1102P
1992.013	2.434	1114555	WORD	n/a	wordpools/wordpool_categorized_EN.txt	STAIRS	Building	3	19	[0, 0, 0]	n/a	catFR1	0	R1102P
1994.447	2.417	1115772	WORD	n/a	wordpools/wordpool_categorized_EN.txt	ROOM	Building	4	19	[0, 0, 0]	n/a	catFR1	0	R1102P
1996.864	2.434	1116981	WORD	n/a	wordpools/wordpool_categorized_EN.txt	MOTH	Insects	5	19	[0, 0, 0]	n/a	catFR1	0	R1102P
1999.298	2.534	1118198	WORD	n/a	wordpools/wordpool_categorized_EN.txt	FLY	Insects	6	19	[0, 0, 0]	n/a	catFR1	0	R1102P
2001.832	2.55	1119465	WORD	n/a	wordpools/wordpool_categorized_EN.txt	WALL	Building	7	19	[0, 0, 0]	n/a	catFR1	0	R1102P
2004.382	2.467	1120740	WORD	n/a	wordpools/wordpool_categorized_EN.txt	FLOOR	Building	8	19	[0, 0, 0]	n/a	catFR1	0	R1102P
2006.849	2.401	1121973	WORD	n/a	wordpools/wordpool_categorized_EN.txt	COBBLER	Desserts	9	19	[0, 0, 0]	n/a	catFR1	0	R1102P
2009.25	2.583	1123173	WORD	n/a	wordpools/wordpool_categorized_EN.txt	PIE	Desserts	10	19	[0, 0, 0]	n/a	catFR1	0	R1102P
2011.833	2.585	1124465	WORD	n/a	wordpools/wordpool_categorized_EN.txt	SPIDER	Insects	11	19	[0, 0, 0]	n/a	catFR1	0	R1102P
2014.418	1.617	1125757	WORD	n/a	wordpools/wordpool_categorized_EN.txt	BEE	Insects	12	19	[0, 0, 0]	n/a	catFR1	0	R1102P
2016.035	0.001	1126566	DISTRACT_START	n/a	n/a	n/a	n/a	-999	19	[0, 0, 0]	n/a	catFR1	0	R1102P
2016.036	0.015	1126566	START	n/a	n/a	n/a	n/a	-999	19	[-999, -999, -999]	n/a	catFR1	0	R1102P
2016.051	7.052	1126574	PROB	7.052	n/a	n/a	n/a	-999	19	[8, 8, 5]	21	catFR1	0	R1102P
2023.103	7.084	1130100	PROB	7.084	n/a	n/a	n/a	-999	19	[3, 3, 8]	14	catFR1	0	R1102P
2030.187	7.185	1133641	PROB	7.185	n/a	n/a	n/a	-999	19	[6, 5, 7]	18	catFR1	0	R1102P
2037.372	0.017	1137234	STOP	n/a	n/a	n/a	n/a	-999	19	[-999, -999, -999]	n/a	catFR1	0	R1102P
2037.389	1.033	1137242	DISTRACT_END	n/a	n/a	n/a	n/a	-999	19	[0, 0, 0]	n/a	catFR1	0	R1102P
2038.422	6.706	1137759	REC_START	n/a	n/a	n/a	n/a	-999	19	[0, 0, 0]	n/a	catFR1	0	R1102P
2045.128	1.065	1141111	REC_WORD	1.065	n/a	FLY	Insects	6	19	[0, 0, 0]	n/a	catFR1	0	R1102P
2046.193	22.241	1141644	REC_WORD	22.241	n/a	FLOOR	Building	8	19	[0, 0, 0]	n/a	catFR1	0	R1102P
2068.434	2.661	1152764	REC_END	n/a	n/a	n/a	n/a	-999	19	[0, 0, 0]	n/a	catFR1	0	R1102P
2071.095	0.0	1154094	TRIAL	n/a	n/a	n/a	n/a	-999	20	[0, 0, 0]	n/a	catFR1	0	R1102P
2071.095	10.428	1154094	COUNTDOWN_START	n/a	n/a	n/a	n/a	-999	20	[0, 0, 0]	n/a	catFR1	0	R1102P
2081.523	0.007	1159308	COUNTDOWN_END	n/a	n/a	n/a	n/a	-999	20	[0, 0, 0]	n/a	catFR1	0	R1102P
2081.53	3.534	1159311	ORIENT	n/a	n/a	n/a	n/a	-999	20	[0, 0, 0]	n/a	catFR1	0	R1102P
2085.064	2.484	1161078	WORD	n/a	wordpools/wordpool_categorized_EN.txt	MILK	Beverages	1	20	[0, 0, 0]	n/a	catFR1	0	R1102P
2087.548	2.4	1162320	WORD	n/a	wordpools/wordpool_categorized_EN.txt	SODA	Beverages	2	20	[0, 0, 0]	n/a	catFR1	0	R1102P
2089.948	2.384	1163520	WORD	n/a	wordpools/wordpool_categorized_EN.txt	LIME	Fruit	3	20	[0, 0, 0]	n/a	catFR1	0	R1102P
2092.332	2.601	1164712	WORD	n/a	wordpools/wordpool_categorized_EN.txt	PEACH	Fruit	4	20	[0, 0, 0]	n/a	catFR1	0	R1102P
2094.933	2.584	1166013	WORD	n/a	wordpools/wordpool_categorized_EN.txt	ATTIC	Building	5	20	[0, 0, 0]	n/a	catFR1	0	R1102P
2097.517	2.416	1167305	WORD	n/a	wordpools/wordpool_categorized_EN.txt	DOOR	Building	6	20	[0, 0, 0]	n/a	catFR1	0	R1102P
2099.933	2.418	1168513	WORD	n/a	wordpools/wordpool_categorized_EN.txt	JUICE	Beverages	7	20	[0, 0, 0]	n/a	catFR1	0	R1102P
2102.351	2.6	1169721	WORD	n/a	wordpools/wordpool_categorized_EN.txt	CIDER	Beverages	8	20	[0, 0, 0]	n/a	catFR1	0	R1102P
2104.951	2.384	1171021	WORD	n/a	wordpools/wordpool_categorized_EN.txt	FOUNDATION	Building	9	20	[0, 0, 0]	n/a	catFR1	0	R1102P
2107.335	2.418	1172213	WORD	n/a	wordpools/wordpool_categorized_EN.txt	ROOF	Building	10	20	[0, 0, 0]	n/a	catFR1	0	R1102P
2109.753	2.6	1173422	WORD	n/a	wordpools/wordpool_categorized_EN.txt	ORANGE	Fruit	11	20	[0, 0, 0]	n/a	catFR1	0	R1102P
2112.353	1.617	1174722	WORD	n/a	wordpools/wordpool_categorized_EN.txt	PEAR	Fruit	12	20	[0, 0, 0]	n/a	catFR1	0	R1102P
2113.97	0.001	1175531	DISTRACT_START	n/a	n/a	n/a	n/a	-999	20	[0, 0, 0]	n/a	catFR1	0	R1102P
2113.971	0.015	1175531	START	n/a	n/a	n/a	n/a	-999	20	[-999, -999, -999]	n/a	catFR1	0	R1102P
2113.986	6.468	1175539	PROB	6.468	n/a	n/a	n/a	-999	20	[1, 4, 7]	12	catFR1	0	R1102P
2120.454	5.234	1178772	PROB	5.234	n/a	n/a	n/a	-999	20	[7, 6, 2]	15	catFR1	0	R1102P
2125.688	5.551	1181389	PROB	5.551	n/a	n/a	n/a	-999	20	[5, 7, 1]	13	catFR1	0	R1102P
2131.239	3.925	1184165	PROB	3.925	n/a	n/a	n/a	-999	20	[2, 8, 5]	15	catFR1	0	R1102P
2135.164	0.009	1186127	STOP	n/a	n/a	n/a	n/a	-999	20	[-999, -999, -999]	n/a	catFR1	0	R1102P
2135.173	1.118	1186132	DISTRACT_END	n/a	n/a	n/a	n/a	-999	20	[0, 0, 0]	n/a	catFR1	0	R1102P
2136.291	4.166	1186691	REC_START	n/a	n/a	n/a	n/a	-999	20	[0, 0, 0]	n/a	catFR1	0	R1102P
2140.457	0.835	1188773	REC_WORD	0.835	n/a	CHAIR	n/a	-999	20	[0, 0, 0]	n/a	catFR1	0	R1102P
2141.292	2.016	1189191	REC_WORD	2.016	n/a	PEACH	Fruit	4	20	[0, 0, 0]	n/a	catFR1	0	R1102P
2143.308	22.995	1190199	REC_WORD	22.995	n/a	ORANGE	Fruit	11	20	[0, 0, 0]	n/a	catFR1	0	R1102P
2166.303	14.929	1201696	REC_END	n/a	n/a	n/a	n/a	-999	20	[0, 0, 0]	n/a	catFR1	0	R1102P
2181.232	0.0	1209160	TRIAL	n/a	n/a	n/a	n/a	-999	21	[0, 0, 0]	n/a	catFR1	0	R1102P
2181.232	0.0	1209160	COUNTDOWN_START	n/a	n/a	n/a	n/a	-999	21	[0, 0, 0]	n/a	catFR1	0	R1102P
