onset	duration	sample	trial_type	response_time	stim_file	item_name	category	serialpos	list	test	answer	experiment	session	subject
0.0	49.945	1840	INSTRUCT_START	n/a	n/a	n/a	n/a	-999	-999	[0, 0, 0]	n/a	catFR1	0	R1368T
49.945	39.507	51835	INSTRUCT_END	n/a	n/a	n/a	n/a	-999	-999	[0, 0, 0]	n/a	catFR1	0	R1368T
89.452	10.428	91347	COUNTDOWN_START	n/a	n/a	n/a	n/a	-999	-999	[0, 0, 0]	n/a	catFR1	0	R1368T
99.88	1.024	101742	COUNTDOWN_END	n/a	n/a	n/a	n/a	-999	-999	[0, 0, 0]	n/a	catFR1	0	R1368T
100.904	1.063	102762	ENCODING_START	n/a	n/a	n/a	n/a	-999	-1	[0, 0, 0]	n/a	catFR1	0	R1368T
101.967	1.637	103852	WORD	n/a	n/a	TEACHER	n/a	1	-1	[0, 0, 0]	n/a	catFR1	0	R1368T
103.604	1.01	105459	WORD_OFF	n/a	n/a	TEACHER	n/a	1	-1	[0, 0, 0]	n/a	catFR1	0	R1368T
104.614	1.624	106479	WORD	n/a	n/a	DAY	n/a	2	-1	[0, 0, 0]	n/a	catFR1	0	R1368T
106.238	0.761	108100	WORD_OFF	n/a	n/a	DAY	n/a	2	-1	[0, 0, 0]	n/a	catFR1	0	R1368T
106.999	1.622	108868	WORD	n/a	n/a	FIREMAN	n/a	3	-1	[0, 0, 0]	n/a	catFR1	0	R1368T
108.621	1.104	110489	WORD_OFF	n/a	n/a	FIREMAN	n/a	3	-1	[0, 0, 0]	n/a	catFR1	0	R1368T
109.725	1.63	111592	WORD	n/a	n/a	SILK	n/a	4	-1	[0, 0, 0]	n/a	catFR1	0	R1368T
111.355	0.953	113213	WORD_OFF	n/a	n/a	SILK	n/a	4	-1	[0, 0, 0]	n/a	catFR1	0	R1368T
112.308	1.631	114177	WORD	n/a	n/a	HOUR	n/a	5	-1	[0, 0, 0]	n/a	catFR1	0	R1368T
113.939	1.123	115798	WORD_OFF	n/a	n/a	HOUR	n/a	5	-1	[0, 0, 0]	n/a	catFR1	0	R1368T
115.062	1.628	116930	WORD	n/a	n/a	MINUTE	n/a	6	-1	[0, 0, 0]	n/a	catFR1	0	R1368T
116.69	0.755	118550	WORD_OFF	n/a	n/a	MINUTE	n/a	6	-1	[0, 0, 0]	n/a	catFR1	0	R1368T
117.445	1.628	119319	WORD	n/a	n/a	FARMER	n/a	7	-1	[0, 0, 0]	n/a	catFR1	0	R1368T
119.073	0.847	120940	WORD_OFF	n/a	n/a	FARMER	n/a	7	-1	[0, 0, 0]	n/a	catFR1	0	R1368T
119.92	1.638	121806	WORD	n/a	n/a	PLUMBER	n/a	8	-1	[0, 0, 0]	n/a	catFR1	0	R1368T
121.558	0.764	123413	WORD_OFF	n/a	n/a	PLUMBER	n/a	8	-1	[0, 0, 0]	n/a	catFR1	0	R1368T
122.322	1.636	124195	WORD	n/a	n/a	WOOL	n/a	9	-1	[0, 0, 0]	n/a	catFR1	0	R1368T
123.958	0.895	125816	WORD_OFF	n/a	n/a	WOOL	n/a	9	-1	[0, 0, 0]	n/a	catFR1	0	R1368T
124.853	1.622	126724	WORD	n/a	n/a	SECOND	n/a	10	-1	[0, 0, 0]	n/a	catFR1	0	R1368T
126.475	0.984	128331	WORD_OFF	n/a	n/a	SECOND	n/a	10	-1	[0, 0, 0]	n/a	catFR1	0	R1368T
127.459	1.634	129337	WORD	n/a	n/a	DENIM	n/a	11	-1	[0, 0, 0]	n/a	catFR1	0	R1368T
129.093	1.021	130957	WORD_OFF	n/a	n/a	DENIM	n/a	11	-1	[0, 0, 0]	n/a	catFR1	0	R1368T
130.114	1.628	131977	WORD	n/a	n/a	LEATHER	n/a	12	-1	[0, 0, 0]	n/a	catFR1	0	R1368T
131.742	0.001	133612	WORD_OFF	n/a	n/a	LEATHER	n/a	12	-1	[0, 0, 0]	n/a	catFR1	0	R1368T
131.743	0.0	133617	START	n/a	n/a	n/a	n/a	-999	-1	[-999, -999, -999]	n/a	catFR1	0	R1368T
131.743	0.0	133626	ENCODING_END	n/a	n/a	n/a	n/a	-999	-1	[0, 0, 0]	n/a	catFR1	0	R1368T
131.743	0.016	133626	DISTRACT_START	n/a	n/a	n/a	n/a	-999	-1	[0, 0, 0]	n/a	catFR1	0	R1368T
131.759	42.337	133633	PROB	42.337	n/a	n/a	n/a	-999	-1	[2, 7, 8]	17	catFR1	0	R1368T
174.096	0.021	175968	STOP	n/a	n/a	n/a	n/a	-999	-1	[-999, -999, -999]	n/a	catFR1	0	R1368T
174.117	2.234	175975	DISTRACT_END	n/a	n/a	n/a	n/a	-999	-1	[0, 0, 0]	n/a	catFR1	0	R1368T
176.351	3.573	178224	REC_START	n/a	n/a	n/a	n/a	-999	-1	[0, 0, 0]	n/a	catFR1	0	R1368T
179.924	1.791	181796	REC_WORD	1.791	n/a	TEACHER	n/a	1	-1	[0, 0, 0]	n/a	catFR1	0	R1368T
181.715	3.689	183587	REC_WORD	3.689	n/a	FIREMAN	n/a	3	-1	[0, 0, 0]	n/a	catFR1	0	R1368T
185.404	8.706	187275	REC_WORD	8.706	n/a	WORKER	n/a	-999	-1	[0, 0, 0]	n/a	catFR1	0	R1368T
194.11	4.19	195981	REC_WORD_VV	4.19	n/a	<>	n/a	-999	-1	[0, 0, 0]	n/a	catFR1	0	R1368T
198.3	3.419	200171	REC_WORD_VV	3.419	n/a	<>	n/a	-999	-1	[0, 0, 0]	n/a	catFR1	0	R1368T
201.719	4.643	203589	REC_WORD_VV	4.643	n/a	<>	n/a	-999	-1	[0, 0, 0]	n/a	catFR1	0	R1368T
206.362	11.08	208249	REC_END	n/a	n/a	n/a	n/a	-999	-1	[0, 0, 0]	n/a	catFR1	0	R1368T
217.442	10.429	219329	COUNTDOWN_START	n/a	n/a	n/a	n/a	-999	1	[0, 0, 0]	n/a	catFR1	0	R1368T
227.871	1.023	229724	COUNTDOWN_END	n/a	n/a	n/a	n/a	-999	1	[0, 0, 0]	n/a	catFR1	0	R1368T
228.894	0.787	230744	ENCODING_START	n/a	n/a	n/a	n/a	-999	1	[0, 0, 0]	n/a	catFR1	0	R1368T
229.681	1.629	231541	WORD	n/a	wordpools/wordpool_categorized_EN.txt	FINGERS	BodyParts	1	1	[0, 0, 0]	n/a	catFR1	0	R1368T
231.31	0.768	233161	WORD_OFF	n/a	n/a	FINGERS	BodyParts	1	1	[0, 0, 0]	n/a	catFR1	0	R1368T
232.078	1.633	233944	WORD	n/a	wordpools/wordpool_categorized_EN.txt	ARM	BodyParts	2	1	[0, 0, 0]	n/a	catFR1	0	R1368T
233.711	0.772	235564	WORD_OFF	n/a	n/a	ARM	BodyParts	2	1	[0, 0, 0]	n/a	catFR1	0	R1368T
234.483	1.628	236347	WORD	n/a	wordpools/wordpool_categorized_EN.txt	BUTTERFLY	Insects	3	1	[0, 0, 0]	n/a	catFR1	0	R1368T
236.111	1.04	237968	WORD_OFF	n/a	n/a	BUTTERFLY	Insects	3	1	[0, 0, 0]	n/a	catFR1	0	R1368T
237.151	1.627	239015	WORD	n/a	wordpools/wordpool_categorized_EN.txt	FLY	Insects	4	1	[0, 0, 0]	n/a	catFR1	0	R1368T
238.778	0.981	240636	WORD_OFF	n/a	n/a	FLY	Insects	4	1	[0, 0, 0]	n/a	catFR1	0	R1368T
239.759	1.636	241628	WORD	n/a	wordpools/wordpool_categorized_EN.txt	ELEPHANT	Zoo	5	1	[0, 0, 0]	n/a	catFR1	0	R1368T
241.395	0.788	243249	WORD_OFF	n/a	n/a	ELEPHANT	Zoo	5	1	[0, 0, 0]	n/a	catFR1	0	R1368T
242.183	1.63	244045	WORD	n/a	wordpools/wordpool_categorized_EN.txt	TIGER	Zoo	6	1	[0, 0, 0]	n/a	catFR1	0	R1368T
243.813	0.778	245666	WORD_OFF	n/a	n/a	TIGER	Zoo	6	1	[0, 0, 0]	n/a	catFR1	0	R1368T
244.591	1.622	246448	WORD	n/a	wordpools/wordpool_categorized_EN.txt	CRICKET	Insects	7	1	[0, 0, 0]	n/a	catFR1	0	R1368T
246.213	0.841	248069	WORD_OFF	n/a	n/a	CRICKET	Insects	7	1	[0, 0, 0]	n/a	catFR1	0	R1368T
247.054	1.626	248921	WORD	n/a	wordpools/wordpool_categorized_EN.txt	BEETLE	Insects	8	1	[0, 0, 0]	n/a	catFR1	0	R1368T
248.68	0.841	250528	WORD_OFF	n/a	n/a	BEETLE	Insects	8	1	[0, 0, 0]	n/a	catFR1	0	R1368T
249.521	1.626	251380	WORD	n/a	wordpools/wordpool_categorized_EN.txt	NOSE	BodyParts	9	1	[0, 0, 0]	n/a	catFR1	0	R1368T
251.147	1.072	253001	WORD_OFF	n/a	n/a	NOSE	BodyParts	9	1	[0, 0, 0]	n/a	catFR1	0	R1368T
252.219	1.629	254077	WORD	n/a	wordpools/wordpool_categorized_EN.txt	LEG	BodyParts	10	1	[0, 0, 0]	n/a	catFR1	0	R1368T
253.848	0.905	255698	WORD_OFF	n/a	n/a	LEG	BodyParts	10	1	[0, 0, 0]	n/a	catFR1	0	R1368T
254.753	1.629	256620	WORD	n/a	wordpools/wordpool_categorized_EN.txt	GORILLA	Zoo	11	1	[0, 0, 0]	n/a	catFR1	0	R1368T
256.382	0.757	258241	WORD_OFF	n/a	n/a	GORILLA	Zoo	11	1	[0, 0, 0]	n/a	catFR1	0	R1368T
257.139	1.626	258995	WORD	n/a	wordpools/wordpool_categorized_EN.txt	ORANGUTAN	Zoo	12	1	[0, 0, 0]	n/a	catFR1	0	R1368T
258.765	0.001	260630	WORD_OFF	n/a	n/a	ORANGUTAN	Zoo	12	1	[0, 0, 0]	n/a	catFR1	0	R1368T
258.766	0.0	260630	ENCODING_END	n/a	n/a	n/a	n/a	-999	1	[0, 0, 0]	n/a	catFR1	0	R1368T
258.766	0.0	260630	DISTRACT_START	n/a	n/a	n/a	n/a	-999	1	[0, 0, 0]	n/a	catFR1	0	R1368T
258.766	0.016	260633	START	n/a	n/a	n/a	n/a	-999	1	[-999, -999, -999]	n/a	catFR1	0	R1368T
258.782	14.102	260649	PROB	14.102	n/a	n/a	n/a	-999	1	[7, 4, 1]	12	catFR1	0	R1368T
272.884	15.85	274751	PROB	15.85	n/a	n/a	n/a	-999	1	[7, 3, 4]	14	catFR1	0	R1368T
288.734	0.02	290600	STOP	n/a	n/a	n/a	n/a	-999	1	[-999, -999, -999]	n/a	catFR1	0	R1368T
288.754	2.168	290613	DISTRACT_END	n/a	n/a	n/a	n/a	-999	1	[0, 0, 0]	n/a	catFR1	0	R1368T
290.922	5.086	292779	REC_START	n/a	n/a	n/a	n/a	-999	1	[0, 0, 0]	n/a	catFR1	0	R1368T
296.008	0.754	297874	REC_WORD	0.754	n/a	APE	n/a	-999	1	[0, 0, 0]	n/a	catFR1	0	R1368T
296.762	2.594	298627	REC_WORD	2.594	n/a	ORANGUTAN	Zoo	12	1	[0, 0, 0]	n/a	catFR1	0	R1368T
299.356	0.701	301221	REC_WORD_VV	0.701	n/a	<>	n/a	-999	1	[0, 0, 0]	n/a	catFR1	0	R1368T
300.057	4.734	301922	REC_WORD	4.734	n/a	ZEBRA	n/a	-999	1	[0, 0, 0]	n/a	catFR1	0	R1368T
304.791	2.149	306656	REC_WORD	2.149	n/a	TICK	n/a	-999	1	[0, 0, 0]	n/a	catFR1	0	R1368T
306.94	3.571	308805	REC_WORD	3.571	n/a	BEETLE	Insects	8	1	[0, 0, 0]	n/a	catFR1	0	R1368T
310.511	6.811	312376	REC_WORD	6.811	n/a	FLEA	n/a	-999	1	[0, 0, 0]	n/a	catFR1	0	R1368T
317.322	3.611	319186	REC_WORD_VV	3.611	n/a	<>	n/a	-999	1	[0, 0, 0]	n/a	catFR1	0	R1368T
320.933	6.779	322804	REC_END	n/a	n/a	n/a	n/a	-999	1	[0, 0, 0]	n/a	catFR1	0	R1368T
327.712	10.428	329595	COUNTDOWN_START	n/a	n/a	n/a	n/a	-999	2	[0, 0, 0]	n/a	catFR1	0	R1368T
338.14	1.024	339990	COUNTDOWN_END	n/a	n/a	n/a	n/a	-999	2	[0, 0, 0]	n/a	catFR1	0	R1368T
339.164	1.147	341010	ENCODING_START	n/a	n/a	n/a	n/a	-999	2	[0, 0, 0]	n/a	catFR1	0	R1368T
340.311	1.636	342183	WORD	n/a	wordpools/wordpool_categorized_EN.txt	DISHWASHER	Appliances	1	2	[0, 0, 0]	n/a	catFR1	0	R1368T
341.947	0.926	343790	WORD_OFF	n/a	n/a	DISHWASHER	Appliances	1	2	[0, 0, 0]	n/a	catFR1	0	R1368T
342.873	1.626	344726	WORD	n/a	wordpools/wordpool_categorized_EN.txt	BLENDER	Appliances	2	2	[0, 0, 0]	n/a	catFR1	0	R1368T
344.499	0.949	346347	WORD_OFF	n/a	n/a	BLENDER	Appliances	2	2	[0, 0, 0]	n/a	catFR1	0	R1368T
345.448	1.633	347311	WORD	n/a	wordpools/wordpool_categorized_EN.txt	BASEBALL	Toys	3	2	[0, 0, 0]	n/a	catFR1	0	R1368T
347.081	1.081	348932	WORD_OFF	n/a	n/a	BASEBALL	Toys	3	2	[0, 0, 0]	n/a	catFR1	0	R1368T
348.162	1.636	350036	WORD	n/a	wordpools/wordpool_categorized_EN.txt	FRISBEE	Toys	4	2	[0, 0, 0]	n/a	catFR1	0	R1368T
349.798	1.099	351642	WORD_OFF	n/a	n/a	FRISBEE	Toys	4	2	[0, 0, 0]	n/a	catFR1	0	R1368T
350.897	1.636	352760	WORD	n/a	wordpools/wordpool_categorized_EN.txt	FOG	Weather	5	2	[0, 0, 0]	n/a	catFR1	0	R1368T
352.533	0.775	354381	WORD_OFF	n/a	n/a	FOG	Weather	5	2	[0, 0, 0]	n/a	catFR1	0	R1368T
353.308	1.625	355163	WORD	n/a	wordpools/wordpool_categorized_EN.txt	LIGHTNING	Weather	6	2	[0, 0, 0]	n/a	catFR1	0	R1368T
354.933	0.793	356784	WORD_OFF	n/a	n/a	LIGHTNING	Weather	6	2	[0, 0, 0]	n/a	catFR1	0	R1368T
355.726	1.624	357580	WORD	n/a	wordpools/wordpool_categorized_EN.txt	BLOCKS	Toys	7	2	[0, 0, 0]	n/a	catFR1	0	R1368T
357.35	1.071	359201	WORD_OFF	n/a	n/a	BLOCKS	Toys	7	2	[0, 0, 0]	n/a	catFR1	0	R1368T
358.421	1.629	360277	WORD	n/a	wordpools/wordpool_categorized_EN.txt	PUZZLE	Toys	8	2	[0, 0, 0]	n/a	catFR1	0	R1368T
360.05	0.754	361898	WORD_OFF	n/a	n/a	PUZZLE	Toys	8	2	[0, 0, 0]	n/a	catFR1	0	R1368T
360.804	1.63	362666	WORD	n/a	wordpools/wordpool_categorized_EN.txt	WIND	Weather	9	2	[0, 0, 0]	n/a	catFR1	0	R1368T
362.434	1.148	364287	WORD_OFF	n/a	n/a	WIND	Weather	9	2	[0, 0, 0]	n/a	catFR1	0	R1368T
363.582	1.636	365446	WORD	n/a	wordpools/wordpool_categorized_EN.txt	HUMIDITY	Weather	10	2	[0, 0, 0]	n/a	catFR1	0	R1368T
365.218	1.13	367067	WORD_OFF	n/a	n/a	HUMIDITY	Weather	10	2	[0, 0, 0]	n/a	catFR1	0	R1368T
366.348	1.637	368213	WORD	n/a	wordpools/wordpool_categorized_EN.txt	DRYER	Appliances	11	2	[0, 0, 0]	n/a	catFR1	0	R1368T
367.985	1.023	369834	WORD_OFF	n/a	n/a	DRYER	Appliances	11	2	[0, 0, 0]	n/a	catFR1	0	R1368T
369.008	1.628	370867	WORD	n/a	wordpools/wordpool_categorized_EN.txt	TOASTER	Appliances	12	2	[0, 0, 0]	n/a	catFR1	0	R1368T
370.636	0.0	372498	START	n/a	n/a	n/a	n/a	-999	2	[-999, -999, -999]	n/a	catFR1	0	R1368T
370.636	0.0	372502	WORD_OFF	n/a	n/a	TOASTER	Appliances	12	2	[0, 0, 0]	n/a	catFR1	0	R1368T
370.636	0.0	372502	ENCODING_END	n/a	n/a	n/a	n/a	-999	2	[0, 0, 0]	n/a	catFR1	0	R1368T
370.636	0.016	372502	DISTRACT_START	n/a	n/a	n/a	n/a	-999	2	[0, 0, 0]	n/a	catFR1	0	R1368T
370.652	19.07	372514	PROB	19.07	n/a	n/a	n/a	-999	2	[4, 2, 1]	7	catFR1	0	R1368T
389.722	30.154	391583	PROB	30.154	n/a	n/a	n/a	-999	2	[9, 6, 3]	18	catFR1	0	R1368T
419.876	0.019	421735	STOP	n/a	n/a	n/a	n/a	-999	2	[-999, -999, -999]	n/a	catFR1	0	R1368T
419.895	2.267	421739	DISTRACT_END	n/a	n/a	n/a	n/a	-999	2	[0, 0, 0]	n/a	catFR1	0	R1368T
422.162	24.097	424016	REC_START	n/a	n/a	n/a	n/a	-999	2	[0, 0, 0]	n/a	catFR1	0	R1368T
446.259	1.0	448117	REC_WORD_VV	1.0	n/a	<>	n/a	-999	2	[0, 0, 0]	n/a	catFR1	0	R1368T
447.259	4.914	449117	REC_WORD_VV	4.914	n/a	<>	n/a	-999	2	[0, 0, 0]	n/a	catFR1	0	R1368T
452.173	3.512	454042	REC_END	n/a	n/a	n/a	n/a	-999	2	[0, 0, 0]	n/a	catFR1	0	R1368T
455.685	10.429	457563	COUNTDOWN_START	n/a	n/a	n/a	n/a	-999	3	[0, 0, 0]	n/a	catFR1	0	R1368T
466.114	1.256	467958	COUNTDOWN_END	n/a	n/a	n/a	n/a	-999	3	[0, 0, 0]	n/a	catFR1	0	R1368T
467.37	1.109	469215	ENCODING_START	n/a	n/a	n/a	n/a	-999	3	[0, 0, 0]	n/a	catFR1	0	R1368T
468.479	1.625	470333	WORD	n/a	wordpools/wordpool_categorized_EN.txt	FREEZER	Appliances	1	3	[0, 0, 0]	n/a	catFR1	0	R1368T
470.104	0.91	471940	WORD_OFF	n/a	n/a	FREEZER	Appliances	1	3	[0, 0, 0]	n/a	catFR1	0	R1368T
471.014	1.623	472862	WORD	n/a	wordpools/wordpool_categorized_EN.txt	REFRIGERATOR	Appliances	2	3	[0, 0, 0]	n/a	catFR1	0	R1368T
472.637	1.094	474482	WORD_OFF	n/a	n/a	REFRIGERATOR	Appliances	2	3	[0, 0, 0]	n/a	catFR1	0	R1368T
473.731	1.624	475572	WORD	n/a	wordpools/wordpool_categorized_EN.txt	SOCKS	Clothing	3	3	[0, 0, 0]	n/a	catFR1	0	R1368T
475.355	0.842	477193	WORD_OFF	n/a	n/a	SOCKS	Clothing	3	3	[0, 0, 0]	n/a	catFR1	0	R1368T
476.197	1.625	478045	WORD	n/a	wordpools/wordpool_categorized_EN.txt	SHOES	Clothing	4	3	[0, 0, 0]	n/a	catFR1	0	R1368T
477.822	0.957	479666	WORD_OFF	n/a	n/a	SHOES	Clothing	4	3	[0, 0, 0]	n/a	catFR1	0	R1368T
478.779	1.626	480630	WORD	n/a	wordpools/wordpool_categorized_EN.txt	DRUM	Instruments	5	3	[0, 0, 0]	n/a	catFR1	0	R1368T
480.405	1.059	482251	WORD_OFF	n/a	n/a	DRUM	Instruments	5	3	[0, 0, 0]	n/a	catFR1	0	R1368T
481.464	1.625	483313	WORD	n/a	wordpools/wordpool_categorized_EN.txt	TRUMPET	Instruments	6	3	[0, 0, 0]	n/a	catFR1	0	R1368T
483.089	0.765	484933	WORD_OFF	n/a	n/a	TRUMPET	Instruments	6	3	[0, 0, 0]	n/a	catFR1	0	R1368T
483.854	1.637	485716	WORD	n/a	wordpools/wordpool_categorized_EN.txt	OVEN	Appliances	7	3	[0, 0, 0]	n/a	catFR1	0	R1368T
485.491	1.03	487323	WORD_OFF	n/a	n/a	OVEN	Appliances	7	3	[0, 0, 0]	n/a	catFR1	0	R1368T
486.521	1.636	488384	WORD	n/a	wordpools/wordpool_categorized_EN.txt	VACUUM	Appliances	8	3	[0, 0, 0]	n/a	catFR1	0	R1368T
488.157	0.919	489991	WORD_OFF	n/a	n/a	VACUUM	Appliances	8	3	[0, 0, 0]	n/a	catFR1	0	R1368T
489.076	1.631	490927	WORD	n/a	wordpools/wordpool_categorized_EN.txt	COAT	Clothing	9	3	[0, 0, 0]	n/a	catFR1	0	R1368T
490.707	0.763	492548	WORD_OFF	n/a	n/a	COAT	Clothing	9	3	[0, 0, 0]	n/a	catFR1	0	R1368T
491.47	1.638	493330	WORD	n/a	wordpools/wordpool_categorized_EN.txt	UNDERWEAR	Clothing	10	3	[0, 0, 0]	n/a	catFR1	0	R1368T
493.108	0.929	494951	WORD_OFF	n/a	n/a	UNDERWEAR	Clothing	10	3	[0, 0, 0]	n/a	catFR1	0	R1368T
494.037	1.638	495901	WORD	n/a	wordpools/wordpool_categorized_EN.txt	PIANO	Instruments	11	3	[0, 0, 0]	n/a	catFR1	0	R1368T
495.675	0.99	497508	WORD_OFF	n/a	n/a	PIANO	Instruments	11	3	[0, 0, 0]	n/a	catFR1	0	R1368T
496.665	1.628	498514	WORD	n/a	wordpools/wordpool_categorized_EN.txt	ORGAN	Instruments	12	3	[0, 0, 0]	n/a	catFR1	0	R1368T
498.293	0.0	500148	START	n/a	n/a	n/a	n/a	-999	3	[-999, -999, -999]	n/a	catFR1	0	R1368T
498.292	0.001	500149	WORD_OFF	n/a	n/a	ORGAN	Instruments	12	3	[0, 0, 0]	n/a	catFR1	0	R1368T
498.293	0.0	500149	ENCODING_END	n/a	n/a	n/a	n/a	-999	3	[0, 0, 0]	n/a	catFR1	0	R1368T
498.293	0.016	500149	DISTRACT_START	n/a	n/a	n/a	n/a	-999	3	[0, 0, 0]	n/a	catFR1	0	R1368T
498.309	38.356	500164	PROB	38.356	n/a	n/a	n/a	-999	3	[4, 9, 7]	20	catFR1	0	R1368T
536.665	0.0	538501	DISTRACT_END	n/a	n/a	n/a	n/a	-999	3	[0, 0, 0]	n/a	catFR1	0	R1368T
536.659	2.141	538512	STOP	n/a	n/a	n/a	n/a	-999	3	[-999, -999, -999]	n/a	catFR1	0	R1368T
538.8	4.958	540653	REC_START	n/a	n/a	n/a	n/a	-999	3	[0, 0, 0]	n/a	catFR1	0	R1368T
543.758	1.808	545611	REC_WORD	1.808	n/a	FREEZER	Appliances	1	3	[0, 0, 0]	n/a	catFR1	0	R1368T
545.566	2.207	547418	REC_WORD	2.207	n/a	REFRIGERATOR	Appliances	2	3	[0, 0, 0]	n/a	catFR1	0	R1368T
547.773	2.72	549625	REC_WORD	2.72	n/a	IRON	n/a	-999	3	[0, 0, 0]	n/a	catFR1	0	R1368T
550.493	13.834	552345	REC_WORD	13.834	n/a	TOASTER	Appliances	-999	3	[0, 0, 0]	n/a	catFR1	0	R1368T
564.327	1.354	566178	REC_WORD	1.354	n/a	OVEN	Appliances	7	3	[0, 0, 0]	n/a	catFR1	0	R1368T
565.681	2.142	567532	REC_WORD_VV	2.142	n/a	<>	n/a	-999	3	[0, 0, 0]	n/a	catFR1	0	R1368T
567.823	0.991	569674	REC_WORD_VV	0.991	n/a	<>	n/a	-999	3	[0, 0, 0]	n/a	catFR1	0	R1368T
568.814	6.276	570678	REC_END	n/a	n/a	n/a	n/a	-999	3	[0, 0, 0]	n/a	catFR1	0	R1368T
575.09	10.428	576966	COUNTDOWN_START	n/a	n/a	n/a	n/a	-999	4	[0, 0, 0]	n/a	catFR1	0	R1368T
585.518	1.208	587361	COUNTDOWN_END	n/a	n/a	n/a	n/a	-999	4	[0, 0, 0]	n/a	catFR1	0	R1368T
586.726	0.794	588562	ENCODING_START	n/a	n/a	n/a	n/a	-999	4	[0, 0, 0]	n/a	catFR1	0	R1368T
587.52	1.622	589359	WORD	n/a	wordpools/wordpool_categorized_EN.txt	FOOT	BodyParts	1	4	[0, 0, 0]	n/a	catFR1	0	R1368T
589.142	1.035	590980	WORD_OFF	n/a	n/a	FOOT	BodyParts	1	4	[0, 0, 0]	n/a	catFR1	0	R1368T
590.177	1.632	592027	WORD	n/a	wordpools/wordpool_categorized_EN.txt	ELBOW	BodyParts	2	4	[0, 0, 0]	n/a	catFR1	0	R1368T
591.809	0.959	593648	WORD_OFF	n/a	n/a	ELBOW	BodyParts	2	4	[0, 0, 0]	n/a	catFR1	0	R1368T
592.768	1.625	594612	WORD	n/a	wordpools/wordpool_categorized_EN.txt	SHORTS	Clothing	3	4	[0, 0, 0]	n/a	catFR1	0	R1368T
594.393	1.076	596233	WORD_OFF	n/a	n/a	SHORTS	Clothing	3	4	[0, 0, 0]	n/a	catFR1	0	R1368T
595.469	1.624	597309	WORD	n/a	wordpools/wordpool_categorized_EN.txt	JACKET	Clothing	4	4	[0, 0, 0]	n/a	catFR1	0	R1368T
597.093	0.95	598929	WORD_OFF	n/a	n/a	JACKET	Clothing	4	4	[0, 0, 0]	n/a	catFR1	0	R1368T
598.043	1.634	599894	WORD	n/a	wordpools/wordpool_categorized_EN.txt	TORNADO	Weather	5	4	[0, 0, 0]	n/a	catFR1	0	R1368T
599.677	0.792	601514	WORD_OFF	n/a	n/a	TORNADO	Weather	5	4	[0, 0, 0]	n/a	catFR1	0	R1368T
600.469	1.625	602311	WORD	n/a	wordpools/wordpool_categorized_EN.txt	RAIN	Weather	6	4	[0, 0, 0]	n/a	catFR1	0	R1368T
602.094	0.759	603931	WORD_OFF	n/a	n/a	RAIN	Weather	6	4	[0, 0, 0]	n/a	catFR1	0	R1368T
602.853	1.625	604700	WORD	n/a	wordpools/wordpool_categorized_EN.txt	KNEE	BodyParts	7	4	[0, 0, 0]	n/a	catFR1	0	R1368T
604.478	1.011	606307	WORD_OFF	n/a	n/a	KNEE	BodyParts	7	4	[0, 0, 0]	n/a	catFR1	0	R1368T
605.489	1.623	607326	WORD	n/a	wordpools/wordpool_categorized_EN.txt	HAND	BodyParts	8	4	[0, 0, 0]	n/a	catFR1	0	R1368T
607.112	0.975	608947	WORD_OFF	n/a	n/a	HAND	BodyParts	8	4	[0, 0, 0]	n/a	catFR1	0	R1368T
608.087	1.625	609925	WORD	n/a	wordpools/wordpool_categorized_EN.txt	SHIRT	Clothing	9	4	[0, 0, 0]	n/a	catFR1	0	R1368T
609.712	0.988	611546	WORD_OFF	n/a	n/a	SHIRT	Clothing	9	4	[0, 0, 0]	n/a	catFR1	0	R1368T
610.7	1.629	612552	WORD	n/a	wordpools/wordpool_categorized_EN.txt	DRESS	Clothing	10	4	[0, 0, 0]	n/a	catFR1	0	R1368T
612.329	0.885	614159	WORD_OFF	n/a	n/a	DRESS	Clothing	10	4	[0, 0, 0]	n/a	catFR1	0	R1368T
613.214	1.633	615067	WORD	n/a	wordpools/wordpool_categorized_EN.txt	SNOW	Weather	11	4	[0, 0, 0]	n/a	catFR1	0	R1368T
614.847	0.808	616674	WORD_OFF	n/a	n/a	SNOW	Weather	11	4	[0, 0, 0]	n/a	catFR1	0	R1368T
615.655	1.626	617498	WORD	n/a	wordpools/wordpool_categorized_EN.txt	THUNDERSTORM	Weather	12	4	[0, 0, 0]	n/a	catFR1	0	R1368T
617.281	0.0	619130	START	n/a	n/a	n/a	n/a	-999	4	[-999, -999, -999]	n/a	catFR1	0	R1368T
617.28	0.001	619133	WORD_OFF	n/a	n/a	THUNDERSTORM	Weather	12	4	[0, 0, 0]	n/a	catFR1	0	R1368T
617.281	0.0	619133	ENCODING_END	n/a	n/a	n/a	n/a	-999	4	[0, 0, 0]	n/a	catFR1	0	R1368T
617.281	0.016	619133	DISTRACT_START	n/a	n/a	n/a	n/a	-999	4	[0, 0, 0]	n/a	catFR1	0	R1368T
617.297	23.585	619146	PROB	23.585	n/a	n/a	n/a	-999	4	[9, 6, 4]	19	catFR1	0	R1368T
640.882	0.019	642729	STOP	n/a	n/a	n/a	n/a	-999	4	[-999, -999, -999]	n/a	catFR1	0	R1368T
640.901	2.118	642731	DISTRACT_END	n/a	n/a	n/a	n/a	-999	4	[0, 0, 0]	n/a	catFR1	0	R1368T
643.019	1.579	644855	REC_START	n/a	n/a	n/a	n/a	-999	4	[0, 0, 0]	n/a	catFR1	0	R1368T
644.598	3.941	646445	REC_WORD_VV	3.941	n/a	<>	n/a	-999	4	[0, 0, 0]	n/a	catFR1	0	R1368T
648.539	2.02	650386	REC_WORD	2.02	n/a	FOOT	BodyParts	1	4	[0, 0, 0]	n/a	catFR1	0	R1368T
650.559	1.531	652406	REC_WORD	1.531	n/a	KNEE	BodyParts	7	4	[0, 0, 0]	n/a	catFR1	0	R1368T
652.09	1.739	653937	REC_WORD	1.739	n/a	ELBOW	BodyParts	2	4	[0, 0, 0]	n/a	catFR1	0	R1368T
653.829	7.042	655676	REC_WORD	7.042	n/a	FINGER	n/a	-999	4	[0, 0, 0]	n/a	catFR1	0	R1368T
660.871	2.361	662717	REC_WORD	2.361	n/a	THUNDERSTORM	Weather	12	4	[0, 0, 0]	n/a	catFR1	0	R1368T
663.232	9.8	665078	REC_WORD	9.8	n/a	LIGHTNING	Weather	-999	4	[0, 0, 0]	n/a	catFR1	0	R1368T
673.032	5.16	674894	REC_END	n/a	n/a	n/a	n/a	-999	4	[0, 0, 0]	n/a	catFR1	0	R1368T
678.192	10.428	680050	COUNTDOWN_START	n/a	n/a	n/a	n/a	-999	5	[0, 0, 0]	n/a	catFR1	0	R1368T
688.62	1.108	690459	COUNTDOWN_END	n/a	n/a	n/a	n/a	-999	5	[0, 0, 0]	n/a	catFR1	0	R1368T
689.728	0.9	691563	ENCODING_START	n/a	n/a	n/a	n/a	-999	5	[0, 0, 0]	n/a	catFR1	0	R1368T
690.628	1.633	692471	WORD	n/a	wordpools/wordpool_categorized_EN.txt	IRON	Appliances	1	5	[0, 0, 0]	n/a	catFR1	0	R1368T
692.261	0.911	694092	WORD_OFF	n/a	n/a	IRON	Appliances	1	5	[0, 0, 0]	n/a	catFR1	0	R1368T
693.172	1.622	695014	WORD	n/a	wordpools/wordpool_categorized_EN.txt	MIXER	Appliances	2	5	[0, 0, 0]	n/a	catFR1	0	R1368T
694.794	0.793	696620	WORD_OFF	n/a	n/a	MIXER	Appliances	2	5	[0, 0, 0]	n/a	catFR1	0	R1368T
695.587	1.625	697417	WORD	n/a	wordpools/wordpool_categorized_EN.txt	JEANS	Clothing	3	5	[0, 0, 0]	n/a	catFR1	0	R1368T
697.212	0.997	699038	WORD_OFF	n/a	n/a	JEANS	Clothing	3	5	[0, 0, 0]	n/a	catFR1	0	R1368T
698.209	1.636	700057	WORD	n/a	wordpools/wordpool_categorized_EN.txt	SKIRT	Clothing	4	5	[0, 0, 0]	n/a	catFR1	0	R1368T
699.845	0.981	701678	WORD_OFF	n/a	n/a	SKIRT	Clothing	4	5	[0, 0, 0]	n/a	catFR1	0	R1368T
700.826	1.636	702670	WORD	n/a	wordpools/wordpool_categorized_EN.txt	MOSQUITO	Insects	5	5	[0, 0, 0]	n/a	catFR1	0	R1368T
702.462	0.854	704291	WORD_OFF	n/a	n/a	MOSQUITO	Insects	5	5	[0, 0, 0]	n/a	catFR1	0	R1368T
703.316	1.63	705157	WORD	n/a	wordpools/wordpool_categorized_EN.txt	GNAT	Insects	6	5	[0, 0, 0]	n/a	catFR1	0	R1368T
704.946	1.083	706778	WORD_OFF	n/a	n/a	GNAT	Insects	6	5	[0, 0, 0]	n/a	catFR1	0	R1368T
706.029	1.634	707868	WORD	n/a	wordpools/wordpool_categorized_EN.txt	BLOUSE	Clothing	7	5	[0, 0, 0]	n/a	catFR1	0	R1368T
707.663	0.972	709488	WORD_OFF	n/a	n/a	BLOUSE	Clothing	7	5	[0, 0, 0]	n/a	catFR1	0	R1368T
708.635	1.629	710480	WORD	n/a	wordpools/wordpool_categorized_EN.txt	PANTS	Clothing	8	5	[0, 0, 0]	n/a	catFR1	0	R1368T
710.264	0.797	712087	WORD_OFF	n/a	n/a	PANTS	Clothing	8	5	[0, 0, 0]	n/a	catFR1	0	R1368T
711.061	1.637	712912	WORD	n/a	wordpools/wordpool_categorized_EN.txt	LADYBUG	Insects	9	5	[0, 0, 0]	n/a	catFR1	0	R1368T
712.698	1.069	714532	WORD_OFF	n/a	n/a	LADYBUG	Insects	9	5	[0, 0, 0]	n/a	catFR1	0	R1368T
713.767	1.631	715608	WORD	n/a	wordpools/wordpool_categorized_EN.txt	ROACH	Insects	10	5	[0, 0, 0]	n/a	catFR1	0	R1368T
715.398	0.764	717229	WORD_OFF	n/a	n/a	ROACH	Insects	10	5	[0, 0, 0]	n/a	catFR1	0	R1368T
716.162	1.637	718011	WORD	n/a	wordpools/wordpool_categorized_EN.txt	WASHER	Appliances	11	5	[0, 0, 0]	n/a	catFR1	0	R1368T
717.799	1.046	719632	WORD_OFF	n/a	n/a	WASHER	Appliances	11	5	[0, 0, 0]	n/a	catFR1	0	R1368T
718.845	1.64	720694	WORD	n/a	wordpools/wordpool_categorized_EN.txt	STOVE	Appliances	12	5	[0, 0, 0]	n/a	catFR1	0	R1368T
720.485	0.0	722328	START	n/a	n/a	n/a	n/a	-999	5	[-999, -999, -999]	n/a	catFR1	0	R1368T
720.483	0.001	722329	WORD_OFF	n/a	n/a	STOVE	Appliances	12	5	[0, 0, 0]	n/a	catFR1	0	R1368T
720.484	0.001	722329	ENCODING_END	n/a	n/a	n/a	n/a	-999	5	[0, 0, 0]	n/a	catFR1	0	R1368T
720.485	0.015	722329	DISTRACT_START	n/a	n/a	n/a	n/a	-999	5	[0, 0, 0]	n/a	catFR1	0	R1368T
720.5	12.184	722343	PROB	12.184	n/a	n/a	n/a	-999	5	[1, 1, 2]	4	catFR1	0	R1368T
732.684	15.647	734527	PROB	15.647	n/a	n/a	n/a	-999	5	[7, 6, 6]	19	catFR1	0	R1368T
748.331	0.023	750173	STOP	n/a	n/a	n/a	n/a	-999	5	[-999, -999, -999]	n/a	catFR1	0	R1368T
748.354	2.218	750188	DISTRACT_END	n/a	n/a	n/a	n/a	-999	5	[0, 0, 0]	n/a	catFR1	0	R1368T
750.572	9.278	752410	REC_START	n/a	n/a	n/a	n/a	-999	5	[0, 0, 0]	n/a	catFR1	0	R1368T
759.85	1.796	761691	REC_WORD_VV	1.796	n/a	<>	n/a	-999	5	[0, 0, 0]	n/a	catFR1	0	R1368T
761.646	1.011	763487	REC_WORD	1.011	n/a	LADYBUG	Insects	9	5	[0, 0, 0]	n/a	catFR1	0	R1368T
762.657	1.298	764498	REC_WORD	1.298	n/a	GNAT	Insects	6	5	[0, 0, 0]	n/a	catFR1	0	R1368T
763.955	9.977	765796	REC_WORD	9.977	n/a	FLEA	n/a	-999	5	[0, 0, 0]	n/a	catFR1	0	R1368T
773.932	3.949	775773	REC_WORD	3.949	n/a	DRAGONFLY	n/a	-999	5	[0, 0, 0]	n/a	catFR1	0	R1368T
777.881	1.0	779721	REC_WORD_VV	1.0	n/a	<>	n/a	-999	5	[0, 0, 0]	n/a	catFR1	0	R1368T
778.881	1.702	780721	REC_WORD_VV	1.702	n/a	<>	n/a	-999	5	[0, 0, 0]	n/a	catFR1	0	R1368T
780.583	5.895	782435	REC_END	n/a	n/a	n/a	n/a	-999	5	[0, 0, 0]	n/a	catFR1	0	R1368T
786.478	10.429	788331	COUNTDOWN_START	n/a	n/a	n/a	n/a	-999	6	[0, 0, 0]	n/a	catFR1	0	R1368T
796.907	1.04	798740	COUNTDOWN_END	n/a	n/a	n/a	n/a	-999	6	[0, 0, 0]	n/a	catFR1	0	R1368T
797.947	0.936	799774	ENCODING_START	n/a	n/a	n/a	n/a	-999	6	[0, 0, 0]	n/a	catFR1	0	R1368T
798.883	1.632	800724	WORD	n/a	wordpools/wordpool_categorized_EN.txt	SHEEP	FarmAnimals	1	6	[0, 0, 0]	n/a	catFR1	0	R1368T
800.515	1.147	802345	WORD_OFF	n/a	n/a	SHEEP	FarmAnimals	1	6	[0, 0, 0]	n/a	catFR1	0	R1368T
801.662	1.635	803505	WORD	n/a	wordpools/wordpool_categorized_EN.txt	GOAT	FarmAnimals	2	6	[0, 0, 0]	n/a	catFR1	0	R1368T
803.297	1.031	805126	WORD_OFF	n/a	n/a	GOAT	FarmAnimals	2	6	[0, 0, 0]	n/a	catFR1	0	R1368T
804.328	1.636	806173	WORD	n/a	wordpools/wordpool_categorized_EN.txt	DOLPHIN	OceanAnimals	3	6	[0, 0, 0]	n/a	catFR1	0	R1368T
805.964	0.812	807794	WORD_OFF	n/a	n/a	DOLPHIN	OceanAnimals	3	6	[0, 0, 0]	n/a	catFR1	0	R1368T
806.776	1.622	808605	WORD	n/a	wordpools/wordpool_categorized_EN.txt	FISH	OceanAnimals	4	6	[0, 0, 0]	n/a	catFR1	0	R1368T
808.398	0.773	810225	WORD_OFF	n/a	n/a	FISH	OceanAnimals	4	6	[0, 0, 0]	n/a	catFR1	0	R1368T
809.171	1.628	811008	WORD	n/a	wordpools/wordpool_categorized_EN.txt	DRIZZLE	Weather	5	6	[0, 0, 0]	n/a	catFR1	0	R1368T
810.799	0.906	812628	WORD_OFF	n/a	n/a	DRIZZLE	Weather	5	6	[0, 0, 0]	n/a	catFR1	0	R1368T
811.705	1.628	813537	WORD	n/a	wordpools/wordpool_categorized_EN.txt	HURRICANE	Weather	6	6	[0, 0, 0]	n/a	catFR1	0	R1368T
813.333	1.031	815157	WORD_OFF	n/a	n/a	HURRICANE	Weather	6	6	[0, 0, 0]	n/a	catFR1	0	R1368T
814.364	1.636	816205	WORD	n/a	wordpools/wordpool_categorized_EN.txt	LOBSTER	OceanAnimals	7	6	[0, 0, 0]	n/a	catFR1	0	R1368T
816.0	0.981	817826	WORD_OFF	n/a	n/a	LOBSTER	OceanAnimals	7	6	[0, 0, 0]	n/a	catFR1	0	R1368T
816.981	1.636	818818	WORD	n/a	wordpools/wordpool_categorized_EN.txt	CRAB	OceanAnimals	8	6	[0, 0, 0]	n/a	catFR1	0	R1368T
818.617	0.769	820439	WORD_OFF	n/a	n/a	CRAB	OceanAnimals	8	6	[0, 0, 0]	n/a	catFR1	0	R1368T
819.386	1.631	821221	WORD	n/a	wordpools/wordpool_categorized_EN.txt	CLOUD	Weather	9	6	[0, 0, 0]	n/a	catFR1	0	R1368T
821.017	0.934	822842	WORD_OFF	n/a	n/a	CLOUD	Weather	9	6	[0, 0, 0]	n/a	catFR1	0	R1368T
821.951	1.633	823792	WORD	n/a	wordpools/wordpool_categorized_EN.txt	THUNDER	Weather	10	6	[0, 0, 0]	n/a	catFR1	0	R1368T
823.584	1.067	825413	WORD_OFF	n/a	n/a	THUNDER	Weather	10	6	[0, 0, 0]	n/a	catFR1	0	R1368T
824.651	1.634	826488	WORD	n/a	wordpools/wordpool_categorized_EN.txt	CHICKEN	FarmAnimals	11	6	[0, 0, 0]	n/a	catFR1	0	R1368T
826.285	0.785	828109	WORD_OFF	n/a	n/a	CHICKEN	FarmAnimals	11	6	[0, 0, 0]	n/a	catFR1	0	R1368T
827.07	1.632	828906	WORD	n/a	wordpools/wordpool_categorized_EN.txt	HEN	FarmAnimals	12	6	[0, 0, 0]	n/a	catFR1	0	R1368T
828.702	0.001	830540	WORD_OFF	n/a	n/a	HEN	FarmAnimals	12	6	[0, 0, 0]	n/a	catFR1	0	R1368T
828.703	0.0	830540	ENCODING_END	n/a	n/a	n/a	n/a	-999	6	[0, 0, 0]	n/a	catFR1	0	R1368T
828.703	0.0	830540	DISTRACT_START	n/a	n/a	n/a	n/a	-999	6	[0, 0, 0]	n/a	catFR1	0	R1368T
828.703	0.016	830541	START	n/a	n/a	n/a	n/a	-999	6	[-999, -999, -999]	n/a	catFR1	0	R1368T
828.719	20.784	830557	PROB	20.784	n/a	n/a	n/a	-999	6	[1, 2, 1]	4	catFR1	0	R1368T
849.503	0.02	851340	STOP	n/a	n/a	n/a	n/a	-999	6	[-999, -999, -999]	n/a	catFR1	0	R1368T
849.523	2.267	851344	DISTRACT_END	n/a	n/a	n/a	n/a	-999	6	[0, 0, 0]	n/a	catFR1	0	R1368T
851.79	12.154	853622	REC_START	n/a	n/a	n/a	n/a	-999	6	[0, 0, 0]	n/a	catFR1	0	R1368T
863.944	1.0	865780	REC_WORD_VV	1.0	n/a	<>	n/a	-999	6	[0, 0, 0]	n/a	catFR1	0	R1368T
864.944	13.287	866780	REC_WORD_VV	13.287	n/a	<>	n/a	-999	6	[0, 0, 0]	n/a	catFR1	0	R1368T
878.231	3.572	880066	REC_WORD_VV	3.572	n/a	<>	n/a	-999	6	[0, 0, 0]	n/a	catFR1	0	R1368T
881.803	4.377	883647	REC_END	n/a	n/a	n/a	n/a	-999	6	[0, 0, 0]	n/a	catFR1	0	R1368T
886.18	10.428	888034	COUNTDOWN_START	n/a	n/a	n/a	n/a	-999	7	[0, 0, 0]	n/a	catFR1	0	R1368T
896.608	1.224	898429	COUNTDOWN_END	n/a	n/a	n/a	n/a	-999	7	[0, 0, 0]	n/a	catFR1	0	R1368T
897.832	0.785	899659	ENCODING_START	n/a	n/a	n/a	n/a	-999	7	[0, 0, 0]	n/a	catFR1	0	R1368T
898.617	1.631	900455	WORD	n/a	wordpools/wordpool_categorized_EN.txt	GRAPE	Fruit	1	7	[0, 0, 0]	n/a	catFR1	0	R1368T
900.248	0.978	902062	WORD_OFF	n/a	n/a	GRAPE	Fruit	1	7	[0, 0, 0]	n/a	catFR1	0	R1368T
901.226	1.623	903054	WORD	n/a	wordpools/wordpool_categorized_EN.txt	CHERRY	Fruit	2	7	[0, 0, 0]	n/a	catFR1	0	R1368T
902.849	0.783	904661	WORD_OFF	n/a	n/a	CHERRY	Fruit	2	7	[0, 0, 0]	n/a	catFR1	0	R1368T
903.632	1.634	905471	WORD	n/a	wordpools/wordpool_categorized_EN.txt	VIOLIN	Instruments	3	7	[0, 0, 0]	n/a	catFR1	0	R1368T
905.266	1.012	907078	WORD_OFF	n/a	n/a	VIOLIN	Instruments	3	7	[0, 0, 0]	n/a	catFR1	0	R1368T
906.278	1.622	908098	WORD	n/a	wordpools/wordpool_categorized_EN.txt	BANJO	Instruments	4	7	[0, 0, 0]	n/a	catFR1	0	R1368T
907.9	1.089	909719	WORD_OFF	n/a	n/a	BANJO	Instruments	4	7	[0, 0, 0]	n/a	catFR1	0	R1368T
908.989	1.628	910822	WORD	n/a	wordpools/wordpool_categorized_EN.txt	CREEK	Landscapes	5	7	[0, 0, 0]	n/a	catFR1	0	R1368T
910.617	0.982	912429	WORD_OFF	n/a	n/a	CREEK	Landscapes	5	7	[0, 0, 0]	n/a	catFR1	0	R1368T
911.599	1.635	913435	WORD	n/a	wordpools/wordpool_categorized_EN.txt	BEACH	Landscapes	6	7	[0, 0, 0]	n/a	catFR1	0	R1368T
913.234	0.928	915056	WORD_OFF	n/a	n/a	BEACH	Landscapes	6	7	[0, 0, 0]	n/a	catFR1	0	R1368T
914.162	1.622	915992	WORD	n/a	wordpools/wordpool_categorized_EN.txt	BASS	Instruments	7	7	[0, 0, 0]	n/a	catFR1	0	R1368T
915.784	0.756	917599	WORD_OFF	n/a	n/a	BASS	Instruments	7	7	[0, 0, 0]	n/a	catFR1	0	R1368T
916.54	1.628	918367	WORD	n/a	wordpools/wordpool_categorized_EN.txt	FLUTE	Instruments	8	7	[0, 0, 0]	n/a	catFR1	0	R1368T
918.168	1.102	919989	WORD_OFF	n/a	n/a	FLUTE	Instruments	8	7	[0, 0, 0]	n/a	catFR1	0	R1368T
919.27	1.632	921106	WORD	n/a	wordpools/wordpool_categorized_EN.txt	LIME	Fruit	9	7	[0, 0, 0]	n/a	catFR1	0	R1368T
920.902	1.106	922726	WORD_OFF	n/a	n/a	LIME	Fruit	9	7	[0, 0, 0]	n/a	catFR1	0	R1368T
922.008	1.628	923830	WORD	n/a	wordpools/wordpool_categorized_EN.txt	PEAR	Fruit	10	7	[0, 0, 0]	n/a	catFR1	0	R1368T
923.636	1.066	925451	WORD_OFF	n/a	n/a	PEAR	Fruit	10	7	[0, 0, 0]	n/a	catFR1	0	R1368T
924.702	1.634	926541	WORD	n/a	wordpools/wordpool_categorized_EN.txt	MOUNTAIN	Landscapes	11	7	[0, 0, 0]	n/a	catFR1	0	R1368T
926.336	0.933	928155	WORD_OFF	n/a	n/a	MOUNTAIN	Landscapes	11	7	[0, 0, 0]	n/a	catFR1	0	R1368T
927.269	1.634	929097	WORD	n/a	wordpools/wordpool_categorized_EN.txt	OCEAN	Landscapes	12	7	[0, 0, 0]	n/a	catFR1	0	R1368T
928.903	0.002	930732	WORD_OFF	n/a	n/a	OCEAN	Landscapes	12	7	[0, 0, 0]	n/a	catFR1	0	R1368T
928.905	0.0	930737	START	n/a	n/a	n/a	n/a	-999	7	[-999, -999, -999]	n/a	catFR1	0	R1368T
928.904	0.001	930746	ENCODING_END	n/a	n/a	n/a	n/a	-999	7	[0, 0, 0]	n/a	catFR1	0	R1368T
928.905	0.015	930746	DISTRACT_START	n/a	n/a	n/a	n/a	-999	7	[0, 0, 0]	n/a	catFR1	0	R1368T
928.92	19.02	930752	PROB	19.02	n/a	n/a	n/a	-999	7	[5, 6, 4]	15	catFR1	0	R1368T
947.94	17.256	949771	PROB	17.256	n/a	n/a	n/a	-999	7	[4, 8, 7]	19	catFR1	0	R1368T
965.196	0.014	967026	STOP	n/a	n/a	n/a	n/a	-999	7	[-999, -999, -999]	n/a	catFR1	0	R1368T
965.21	2.335	967031	DISTRACT_END	n/a	n/a	n/a	n/a	-999	7	[0, 0, 0]	n/a	catFR1	0	R1368T
967.545	27.314	969378	REC_START	n/a	n/a	n/a	n/a	-999	7	[0, 0, 0]	n/a	catFR1	0	R1368T
994.859	2.699	996688	REC_WORD_VV	2.699	n/a	<>	n/a	-999	7	[0, 0, 0]	n/a	catFR1	0	R1368T
997.558	732.158	999404	REC_END	n/a	n/a	n/a	n/a	-999	7	[0, 0, 0]	n/a	catFR1	0	R1368T
1729.716	10.429	1731527	COUNTDOWN_START	n/a	n/a	n/a	n/a	-999	8	[0, 0, 0]	n/a	catFR1	0	R1368T
1740.145	1.106	1741922	COUNTDOWN_END	n/a	n/a	n/a	n/a	-999	8	[0, 0, 0]	n/a	catFR1	0	R1368T
1741.251	0.897	1743026	ENCODING_START	n/a	n/a	n/a	n/a	-999	8	[0, 0, 0]	n/a	catFR1	0	R1368T
1742.148	1.636	1743948	WORD	n/a	wordpools/wordpool_categorized_EN.txt	LAMB	FarmAnimals	1	8	[0, 0, 0]	n/a	catFR1	0	R1368T
1743.784	0.774	1745555	WORD_OFF	n/a	n/a	LAMB	FarmAnimals	1	8	[0, 0, 0]	n/a	catFR1	0	R1368T
1744.558	1.627	1746337	WORD	n/a	wordpools/wordpool_categorized_EN.txt	COW	FarmAnimals	2	8	[0, 0, 0]	n/a	catFR1	0	R1368T
1746.185	0.842	1747958	WORD_OFF	n/a	n/a	COW	FarmAnimals	2	8	[0, 0, 0]	n/a	catFR1	0	R1368T
1747.027	1.625	1748810	WORD	n/a	wordpools/wordpool_categorized_EN.txt	PEACH	Fruit	3	8	[0, 0, 0]	n/a	catFR1	0	R1368T
1748.652	0.899	1750431	WORD_OFF	n/a	n/a	PEACH	Fruit	3	8	[0, 0, 0]	n/a	catFR1	0	R1368T
1749.551	1.635	1751339	WORD	n/a	wordpools/wordpool_categorized_EN.txt	STRAWBERRY	Fruit	4	8	[0, 0, 0]	n/a	catFR1	0	R1368T
1751.186	0.962	1752960	WORD_OFF	n/a	n/a	STRAWBERRY	Fruit	4	8	[0, 0, 0]	n/a	catFR1	0	R1368T
1752.148	1.638	1753938	WORD	n/a	wordpools/wordpool_categorized_EN.txt	FOLDER	OfficeSupplies	5	8	[0, 0, 0]	n/a	catFR1	0	R1368T
1753.786	0.775	1755558	WORD_OFF	n/a	n/a	FOLDER	OfficeSupplies	5	8	[0, 0, 0]	n/a	catFR1	0	R1368T
1754.561	1.626	1756341	WORD	n/a	wordpools/wordpool_categorized_EN.txt	RULER	OfficeSupplies	6	8	[0, 0, 0]	n/a	catFR1	0	R1368T
1756.187	0.79	1757962	WORD_OFF	n/a	n/a	RULER	OfficeSupplies	6	8	[0, 0, 0]	n/a	catFR1	0	R1368T
1756.977	1.627	1758758	WORD	n/a	wordpools/wordpool_categorized_EN.txt	BLUEBERRY	Fruit	7	8	[0, 0, 0]	n/a	catFR1	0	R1368T
1758.604	0.785	1760379	WORD_OFF	n/a	n/a	BLUEBERRY	Fruit	7	8	[0, 0, 0]	n/a	catFR1	0	R1368T
1759.389	1.632	1761175	WORD	n/a	wordpools/wordpool_categorized_EN.txt	ORANGE	Fruit	8	8	[0, 0, 0]	n/a	catFR1	0	R1368T
1761.021	0.812	1762796	WORD_OFF	n/a	n/a	ORANGE	Fruit	8	8	[0, 0, 0]	n/a	catFR1	0	R1368T
1761.833	1.622	1763606	WORD	n/a	wordpools/wordpool_categorized_EN.txt	TURKEY	FarmAnimals	9	8	[0, 0, 0]	n/a	catFR1	0	R1368T
1763.455	1.062	1765227	WORD_OFF	n/a	n/a	TURKEY	FarmAnimals	9	8	[0, 0, 0]	n/a	catFR1	0	R1368T
1764.517	1.622	1766289	WORD	n/a	wordpools/wordpool_categorized_EN.txt	HORSE	FarmAnimals	10	8	[0, 0, 0]	n/a	catFR1	0	R1368T
1766.139	0.855	1767910	WORD_OFF	n/a	n/a	HORSE	FarmAnimals	10	8	[0, 0, 0]	n/a	catFR1	0	R1368T
1766.994	1.628	1768776	WORD	n/a	wordpools/wordpool_categorized_EN.txt	BINDER	OfficeSupplies	11	8	[0, 0, 0]	n/a	catFR1	0	R1368T
1768.622	0.82	1770397	WORD_OFF	n/a	n/a	BINDER	OfficeSupplies	11	8	[0, 0, 0]	n/a	catFR1	0	R1368T
1769.442	1.631	1771235	WORD	n/a	wordpools/wordpool_categorized_EN.txt	NOTEBOOK	OfficeSupplies	12	8	[0, 0, 0]	n/a	catFR1	0	R1368T
1771.073	0.001	1772856	WORD_OFF	n/a	n/a	NOTEBOOK	OfficeSupplies	12	8	[0, 0, 0]	n/a	catFR1	0	R1368T
1771.074	0.0	1772862	START	n/a	n/a	n/a	n/a	-999	8	[-999, -999, -999]	n/a	catFR1	0	R1368T
1771.073	0.001	1772870	ENCODING_END	n/a	n/a	n/a	n/a	-999	8	[0, 0, 0]	n/a	catFR1	0	R1368T
1771.074	0.015	1772870	DISTRACT_START	n/a	n/a	n/a	n/a	-999	8	[0, 0, 0]	n/a	catFR1	0	R1368T
1771.089	15.47	1772877	PROB	15.47	n/a	n/a	n/a	-999	8	[6, 6, 4]	14	catFR1	0	R1368T
1786.559	11.181	1788346	PROB	11.181	n/a	n/a	n/a	-999	8	[4, 1, 9]	14	catFR1	0	R1368T
1797.74	0.021	1799527	STOP	n/a	n/a	n/a	n/a	-999	8	[-999, -999, -999]	n/a	catFR1	0	R1368T
1797.761	2.251	1799542	DISTRACT_END	n/a	n/a	n/a	n/a	-999	8	[0, 0, 0]	n/a	catFR1	0	R1368T
1800.012	3.978	1801791	REC_START	n/a	n/a	n/a	n/a	-999	8	[0, 0, 0]	n/a	catFR1	0	R1368T
1803.99	1.322	1805777	REC_WORD	1.322	n/a	LAMB	FarmAnimals	1	8	[0, 0, 0]	n/a	catFR1	0	R1368T
1805.312	2.785	1807099	REC_WORD	2.785	n/a	COW	FarmAnimals	2	8	[0, 0, 0]	n/a	catFR1	0	R1368T
1808.097	1.003	1809883	REC_WORD	1.003	n/a	PEACH	Fruit	3	8	[0, 0, 0]	n/a	catFR1	0	R1368T
1809.1	1.373	1810886	REC_WORD	1.373	n/a	STRAWBERRY	Fruit	4	8	[0, 0, 0]	n/a	catFR1	0	R1368T
1810.473	7.075	1812259	REC_WORD	7.075	n/a	BLUEBERRY	Fruit	7	8	[0, 0, 0]	n/a	catFR1	0	R1368T
1817.548	6.479	1819334	REC_WORD_VV	6.479	n/a	<>	n/a	-999	8	[0, 0, 0]	n/a	catFR1	0	R1368T
1824.027	5.013	1825813	REC_WORD_VV	5.013	n/a	<>	n/a	-999	8	[0, 0, 0]	n/a	catFR1	0	R1368T
1829.04	0.983	1830825	REC_WORD	0.983	n/a	ORANGE	Fruit	8	8	[0, 0, 0]	n/a	catFR1	0	R1368T
1830.023	6.48	1831817	REC_END	n/a	n/a	n/a	n/a	-999	8	[0, 0, 0]	n/a	catFR1	0	R1368T
1836.503	10.428	1838300	COUNTDOWN_START	n/a	n/a	n/a	n/a	-999	9	[0, 0, 0]	n/a	catFR1	0	R1368T
1846.931	1.023	1848709	COUNTDOWN_END	n/a	n/a	n/a	n/a	-999	9	[0, 0, 0]	n/a	catFR1	0	R1368T
1847.954	0.765	1849729	ENCODING_START	n/a	n/a	n/a	n/a	-999	9	[0, 0, 0]	n/a	catFR1	0	R1368T
1848.719	1.635	1850511	WORD	n/a	wordpools/wordpool_categorized_EN.txt	TONGS	KitchenTools	1	9	[0, 0, 0]	n/a	catFR1	0	R1368T
1850.354	1.077	1852118	WORD_OFF	n/a	n/a	TONGS	KitchenTools	1	9	[0, 0, 0]	n/a	catFR1	0	R1368T
1851.431	1.623	1853208	WORD	n/a	wordpools/wordpool_categorized_EN.txt	FORK	KitchenTools	2	9	[0, 0, 0]	n/a	catFR1	0	R1368T
1853.054	0.836	1854828	WORD_OFF	n/a	n/a	FORK	KitchenTools	2	9	[0, 0, 0]	n/a	catFR1	0	R1368T
1853.89	1.632	1855667	WORD	n/a	wordpools/wordpool_categorized_EN.txt	SAW	Tools	3	9	[0, 0, 0]	n/a	catFR1	0	R1368T
1855.522	1.097	1857287	WORD_OFF	n/a	n/a	SAW	Tools	3	9	[0, 0, 0]	n/a	catFR1	0	R1368T
1856.619	1.636	1858405	WORD	n/a	wordpools/wordpool_categorized_EN.txt	CROWBAR	Tools	4	9	[0, 0, 0]	n/a	catFR1	0	R1368T
1858.255	1.128	1860026	WORD_OFF	n/a	n/a	CROWBAR	Tools	4	9	[0, 0, 0]	n/a	catFR1	0	R1368T
1859.383	1.623	1861157	WORD	n/a	wordpools/wordpool_categorized_EN.txt	CABBAGE	Vegetables	5	9	[0, 0, 0]	n/a	catFR1	0	R1368T
1861.006	0.974	1862778	WORD_OFF	n/a	n/a	CABBAGE	Vegetables	5	9	[0, 0, 0]	n/a	catFR1	0	R1368T
1861.98	1.626	1863756	WORD	n/a	wordpools/wordpool_categorized_EN.txt	PEAS	Vegetables	6	9	[0, 0, 0]	n/a	catFR1	0	R1368T
1863.606	0.755	1865377	WORD_OFF	n/a	n/a	PEAS	Vegetables	6	9	[0, 0, 0]	n/a	catFR1	0	R1368T
1864.361	1.629	1866145	WORD	n/a	wordpools/wordpool_categorized_EN.txt	WHISK	KitchenTools	7	9	[0, 0, 0]	n/a	catFR1	0	R1368T
1865.99	0.84	1867752	WORD_OFF	n/a	n/a	WHISK	KitchenTools	7	9	[0, 0, 0]	n/a	catFR1	0	R1368T
1866.83	1.627	1868604	WORD	n/a	wordpools/wordpool_categorized_EN.txt	SPOON	KitchenTools	8	9	[0, 0, 0]	n/a	catFR1	0	R1368T
1868.457	0.845	1870225	WORD_OFF	n/a	n/a	SPOON	KitchenTools	8	9	[0, 0, 0]	n/a	catFR1	0	R1368T
1869.302	1.622	1871077	WORD	n/a	wordpools/wordpool_categorized_EN.txt	PLIERS	Tools	9	9	[0, 0, 0]	n/a	catFR1	0	R1368T
1870.924	0.753	1872698	WORD_OFF	n/a	n/a	PLIERS	Tools	9	9	[0, 0, 0]	n/a	catFR1	0	R1368T
1871.677	1.631	1873453	WORD	n/a	wordpools/wordpool_categorized_EN.txt	SANDER	Tools	10	9	[0, 0, 0]	n/a	catFR1	0	R1368T
1873.308	1.102	1875073	WORD_OFF	n/a	n/a	SANDER	Tools	10	9	[0, 0, 0]	n/a	catFR1	0	R1368T
1874.41	1.632	1876191	WORD	n/a	wordpools/wordpool_categorized_EN.txt	CARROT	Vegetables	11	9	[0, 0, 0]	n/a	catFR1	0	R1368T
1876.042	0.889	1877812	WORD_OFF	n/a	n/a	CARROT	Vegetables	11	9	[0, 0, 0]	n/a	catFR1	0	R1368T
1876.931	1.628	1878706	WORD	n/a	wordpools/wordpool_categorized_EN.txt	ONION	Vegetables	12	9	[0, 0, 0]	n/a	catFR1	0	R1368T
1878.559	0.0	1880341	WORD_OFF	n/a	n/a	ONION	Vegetables	12	9	[0, 0, 0]	n/a	catFR1	0	R1368T
1878.559	0.001	1880341	ENCODING_END	n/a	n/a	n/a	n/a	-999	9	[0, 0, 0]	n/a	catFR1	0	R1368T
1878.56	0.0	1880341	DISTRACT_START	n/a	n/a	n/a	n/a	-999	9	[0, 0, 0]	n/a	catFR1	0	R1368T
1878.56	0.015	1880343	START	n/a	n/a	n/a	n/a	-999	9	[-999, -999, -999]	n/a	catFR1	0	R1368T
1878.575	22.033	1880358	PROB	22.033	n/a	n/a	n/a	-999	9	[3, 5, 4]	12	catFR1	0	R1368T
1900.608	0.021	1902390	STOP	n/a	n/a	n/a	n/a	-999	9	[-999, -999, -999]	n/a	catFR1	0	R1368T
1900.629	2.135	1902402	DISTRACT_END	n/a	n/a	n/a	n/a	-999	9	[0, 0, 0]	n/a	catFR1	0	R1368T
1902.764	5.9	1904540	REC_START	n/a	n/a	n/a	n/a	-999	9	[0, 0, 0]	n/a	catFR1	0	R1368T
1908.664	1.161	1910445	REC_WORD	1.161	n/a	PEAS	Vegetables	6	9	[0, 0, 0]	n/a	catFR1	0	R1368T
1909.825	1.478	1911606	REC_WORD	1.478	n/a	CARROTS	n/a	-999	9	[0, 0, 0]	n/a	catFR1	0	R1368T
1911.303	11.805	1913084	REC_WORD	11.805	n/a	CABBAGE	Vegetables	5	9	[0, 0, 0]	n/a	catFR1	0	R1368T
1923.108	9.668	1924888	REC_WORD	9.668	n/a	SQUASH	n/a	-999	9	[0, 0, 0]	n/a	catFR1	0	R1368T
1932.776	12.913	1934565	REC_END	n/a	n/a	n/a	n/a	-999	9	[0, 0, 0]	n/a	catFR1	0	R1368T
1945.689	10.428	1947489	COUNTDOWN_START	n/a	n/a	n/a	n/a	-999	10	[0, 0, 0]	n/a	catFR1	0	R1368T
1956.117	1.257	1957884	COUNTDOWN_END	n/a	n/a	n/a	n/a	-999	10	[0, 0, 0]	n/a	catFR1	0	R1368T
1957.374	1.063	1959142	ENCODING_START	n/a	n/a	n/a	n/a	-999	10	[0, 0, 0]	n/a	catFR1	0	R1368T
1958.437	1.637	1960218	WORD	n/a	wordpools/wordpool_categorized_EN.txt	BROWNIES	Desserts	1	10	[0, 0, 0]	n/a	catFR1	0	R1368T
1960.074	1.127	1961838	WORD_OFF	n/a	n/a	BROWNIES	Desserts	1	10	[0, 0, 0]	n/a	catFR1	0	R1368T
1961.201	1.623	1962970	WORD	n/a	wordpools/wordpool_categorized_EN.txt	PIE	Desserts	2	10	[0, 0, 0]	n/a	catFR1	0	R1368T
1962.824	1.117	1964591	WORD_OFF	n/a	n/a	PIE	Desserts	2	10	[0, 0, 0]	n/a	catFR1	0	R1368T
1963.941	1.634	1965723	WORD	n/a	wordpools/wordpool_categorized_EN.txt	BULL	FarmAnimals	3	10	[0, 0, 0]	n/a	catFR1	0	R1368T
1965.575	0.908	1967343	WORD_OFF	n/a	n/a	BULL	FarmAnimals	3	10	[0, 0, 0]	n/a	catFR1	0	R1368T
1966.483	1.625	1968251	WORD	n/a	wordpools/wordpool_categorized_EN.txt	ROOSTER	FarmAnimals	4	10	[0, 0, 0]	n/a	catFR1	0	R1368T
1968.108	0.814	1969872	WORD_OFF	n/a	n/a	ROOSTER	FarmAnimals	4	10	[0, 0, 0]	n/a	catFR1	0	R1368T
1968.922	1.637	1970710	WORD	n/a	wordpools/wordpool_categorized_EN.txt	PLANKTON	OceanAnimals	5	10	[0, 0, 0]	n/a	catFR1	0	R1368T
1970.559	0.92	1972317	WORD_OFF	n/a	n/a	PLANKTON	OceanAnimals	5	10	[0, 0, 0]	n/a	catFR1	0	R1368T
1971.479	1.63	1973253	WORD	n/a	wordpools/wordpool_categorized_EN.txt	JELLYFISH	OceanAnimals	6	10	[0, 0, 0]	n/a	catFR1	0	R1368T
1973.109	1.151	1974874	WORD_OFF	n/a	n/a	JELLYFISH	OceanAnimals	6	10	[0, 0, 0]	n/a	catFR1	0	R1368T
1974.26	1.633	1976034	WORD	n/a	wordpools/wordpool_categorized_EN.txt	COOKIE	Desserts	7	10	[0, 0, 0]	n/a	catFR1	0	R1368T
1975.893	0.801	1977654	WORD_OFF	n/a	n/a	COOKIE	Desserts	7	10	[0, 0, 0]	n/a	catFR1	0	R1368T
1976.694	1.633	1978465	WORD	n/a	wordpools/wordpool_categorized_EN.txt	FUDGE	Desserts	8	10	[0, 0, 0]	n/a	catFR1	0	R1368T
1978.327	1.113	1980086	WORD_OFF	n/a	n/a	FUDGE	Desserts	8	10	[0, 0, 0]	n/a	catFR1	0	R1368T
1979.44	1.621	1981203	WORD	n/a	wordpools/wordpool_categorized_EN.txt	PIG	FarmAnimals	9	10	[0, 0, 0]	n/a	catFR1	0	R1368T
1981.061	0.846	1982824	WORD_OFF	n/a	n/a	PIG	FarmAnimals	9	10	[0, 0, 0]	n/a	catFR1	0	R1368T
1981.907	1.622	1983676	WORD	n/a	wordpools/wordpool_categorized_EN.txt	CALF	FarmAnimals	10	10	[0, 0, 0]	n/a	catFR1	0	R1368T
1983.529	1.104	1985297	WORD_OFF	n/a	n/a	CALF	FarmAnimals	10	10	[0, 0, 0]	n/a	catFR1	0	R1368T
1984.633	1.629	1986401	WORD	n/a	wordpools/wordpool_categorized_EN.txt	OCTOPUS	OceanAnimals	11	10	[0, 0, 0]	n/a	catFR1	0	R1368T
1986.262	1.114	1988022	WORD_OFF	n/a	n/a	OCTOPUS	OceanAnimals	11	10	[0, 0, 0]	n/a	catFR1	0	R1368T
1987.376	1.636	1989153	WORD	n/a	wordpools/wordpool_categorized_EN.txt	TURTLE	OceanAnimals	12	10	[0, 0, 0]	n/a	catFR1	0	R1368T
1989.012	0.001	1990788	WORD_OFF	n/a	n/a	TURTLE	OceanAnimals	12	10	[0, 0, 0]	n/a	catFR1	0	R1368T
1989.013	0.0	1990788	ENCODING_END	n/a	n/a	n/a	n/a	-999	10	[0, 0, 0]	n/a	catFR1	0	R1368T
1989.013	0.0	1990788	DISTRACT_START	n/a	n/a	n/a	n/a	-999	10	[0, 0, 0]	n/a	catFR1	0	R1368T
1989.013	0.016	1990790	START	n/a	n/a	n/a	n/a	-999	10	[-999, -999, -999]	n/a	catFR1	0	R1368T
1989.029	25.671	1990806	PROB	25.671	n/a	n/a	n/a	-999	10	[9, 1, 8]	18	catFR1	0	R1368T
2014.7	0.0	2016468	DISTRACT_END	n/a	n/a	n/a	n/a	-999	10	[0, 0, 0]	n/a	catFR1	0	R1368T
2014.694	2.19	2016470	STOP	n/a	n/a	n/a	n/a	-999	10	[-999, -999, -999]	n/a	catFR1	0	R1368T
2016.884	5.424	2018662	REC_START	n/a	n/a	n/a	n/a	-999	10	[0, 0, 0]	n/a	catFR1	0	R1368T
2022.308	1.979	2024083	REC_WORD	1.979	n/a	ROOSTER	FarmAnimals	4	10	[0, 0, 0]	n/a	catFR1	0	R1368T
2024.287	3.684	2026062	REC_WORD	3.684	n/a	BULL	FarmAnimals	3	10	[0, 0, 0]	n/a	catFR1	0	R1368T
2027.971	2.649	2029746	REC_WORD	2.649	n/a	GOAT	FarmAnimals	-999	10	[0, 0, 0]	n/a	catFR1	0	R1368T
2030.62	4.16	2032395	REC_WORD	4.16	n/a	CALF	FarmAnimals	10	10	[0, 0, 0]	n/a	catFR1	0	R1368T
2034.78	3.833	2036554	REC_WORD_VV	3.833	n/a	<>	n/a	-999	10	[0, 0, 0]	n/a	catFR1	0	R1368T
2038.613	1.0	2040387	REC_WORD_VV	1.0	n/a	<>	n/a	-999	10	[0, 0, 0]	n/a	catFR1	0	R1368T
2039.613	7.283	2041387	REC_WORD_VV	7.283	n/a	<>	n/a	-999	10	[0, 0, 0]	n/a	catFR1	0	R1368T
2046.896	5.912	2048687	REC_END	n/a	n/a	n/a	n/a	-999	10	[0, 0, 0]	n/a	catFR1	0	R1368T
2052.808	10.428	2054597	COUNTDOWN_START	n/a	n/a	n/a	n/a	-999	11	[0, 0, 0]	n/a	catFR1	0	R1368T
2063.236	1.207	2065006	COUNTDOWN_END	n/a	n/a	n/a	n/a	-999	11	[0, 0, 0]	n/a	catFR1	0	R1368T
2064.443	0.914	2066208	ENCODING_START	n/a	n/a	n/a	n/a	-999	11	[0, 0, 0]	n/a	catFR1	0	R1368T
2065.357	1.636	2067130	WORD	n/a	wordpools/wordpool_categorized_EN.txt	DESK	Furniture	1	11	[0, 0, 0]	n/a	catFR1	0	R1368T
2066.993	1.1	2068751	WORD_OFF	n/a	n/a	DESK	Furniture	1	11	[0, 0, 0]	n/a	catFR1	0	R1368T
2068.093	1.634	2069868	WORD	n/a	wordpools/wordpool_categorized_EN.txt	CABINET	Furniture	2	11	[0, 0, 0]	n/a	catFR1	0	R1368T
2069.727	1.073	2071489	WORD_OFF	n/a	n/a	CABINET	Furniture	2	11	[0, 0, 0]	n/a	catFR1	0	R1368T
2070.8	1.627	2072565	WORD	n/a	wordpools/wordpool_categorized_EN.txt	COLANDER	KitchenTools	3	11	[0, 0, 0]	n/a	catFR1	0	R1368T
2072.427	0.825	2074186	WORD_OFF	n/a	n/a	COLANDER	KitchenTools	3	11	[0, 0, 0]	n/a	catFR1	0	R1368T
2073.252	1.626	2075024	WORD	n/a	wordpools/wordpool_categorized_EN.txt	STRAINER	KitchenTools	4	11	[0, 0, 0]	n/a	catFR1	0	R1368T
2074.878	0.901	2076631	WORD_OFF	n/a	n/a	STRAINER	KitchenTools	4	11	[0, 0, 0]	n/a	catFR1	0	R1368T
2075.779	1.633	2077553	WORD	n/a	wordpools/wordpool_categorized_EN.txt	PINE	Trees	5	11	[0, 0, 0]	n/a	catFR1	0	R1368T
2077.412	0.927	2079174	WORD_OFF	n/a	n/a	PINE	Trees	5	11	[0, 0, 0]	n/a	catFR1	0	R1368T
2078.339	1.64	2080124	WORD	n/a	wordpools/wordpool_categorized_EN.txt	EVERGREEN	Trees	6	11	[0, 0, 0]	n/a	catFR1	0	R1368T
2079.979	1.151	2081731	WORD_OFF	n/a	n/a	EVERGREEN	Trees	6	11	[0, 0, 0]	n/a	catFR1	0	R1368T
2081.13	1.633	2082904	WORD	n/a	wordpools/wordpool_categorized_EN.txt	KNIFE	KitchenTools	7	11	[0, 0, 0]	n/a	catFR1	0	R1368T
2082.763	1.051	2084525	WORD_OFF	n/a	n/a	KNIFE	KitchenTools	7	11	[0, 0, 0]	n/a	catFR1	0	R1368T
2083.814	1.632	2085587	WORD	n/a	wordpools/wordpool_categorized_EN.txt	GRATER	KitchenTools	8	11	[0, 0, 0]	n/a	catFR1	0	R1368T
2085.446	1.096	2087208	WORD_OFF	n/a	n/a	GRATER	KitchenTools	8	11	[0, 0, 0]	n/a	catFR1	0	R1368T
2086.542	1.622	2088297	WORD	n/a	wordpools/wordpool_categorized_EN.txt	WALNUT	Trees	9	11	[0, 0, 0]	n/a	catFR1	0	R1368T
2088.164	0.977	2089918	WORD_OFF	n/a	n/a	WALNUT	Trees	9	11	[0, 0, 0]	n/a	catFR1	0	R1368T
2089.141	1.623	2090910	WORD	n/a	wordpools/wordpool_categorized_EN.txt	WILLOW	Trees	10	11	[0, 0, 0]	n/a	catFR1	0	R1368T
2090.764	1.099	2092517	WORD_OFF	n/a	n/a	WILLOW	Trees	10	11	[0, 0, 0]	n/a	catFR1	0	R1368T
2091.863	1.636	2093635	WORD	n/a	wordpools/wordpool_categorized_EN.txt	SOFA	Furniture	11	11	[0, 0, 0]	n/a	catFR1	0	R1368T
2093.499	0.941	2095255	WORD_OFF	n/a	n/a	SOFA	Furniture	11	11	[0, 0, 0]	n/a	catFR1	0	R1368T
2094.44	1.626	2096205	WORD	n/a	wordpools/wordpool_categorized_EN.txt	BED	Furniture	12	11	[0, 0, 0]	n/a	catFR1	0	R1368T
2096.066	0.0	2097837	START	n/a	n/a	n/a	n/a	-999	11	[-999, -999, -999]	n/a	catFR1	0	R1368T
2096.065	0.0	2097840	WORD_OFF	n/a	n/a	BED	Furniture	12	11	[0, 0, 0]	n/a	catFR1	0	R1368T
2096.065	0.001	2097840	ENCODING_END	n/a	n/a	n/a	n/a	-999	11	[0, 0, 0]	n/a	catFR1	0	R1368T
2096.066	0.015	2097840	DISTRACT_START	n/a	n/a	n/a	n/a	-999	11	[0, 0, 0]	n/a	catFR1	0	R1368T
2096.081	16.804	2097852	PROB	16.804	n/a	n/a	n/a	-999	11	[3, 4, 9]	16	catFR1	0	R1368T
2112.885	19.501	2114655	PROB	19.501	n/a	n/a	n/a	-999	11	[4, 3, 8]	15	catFR1	0	R1368T
2132.386	0.019	2134155	STOP	n/a	n/a	n/a	n/a	-999	11	[-999, -999, -999]	n/a	catFR1	0	R1368T
2132.405	2.184	2134167	DISTRACT_END	n/a	n/a	n/a	n/a	-999	11	[0, 0, 0]	n/a	catFR1	0	R1368T
2134.589	6.63	2136360	REC_START	n/a	n/a	n/a	n/a	-999	11	[0, 0, 0]	n/a	catFR1	0	R1368T
2141.219	2.014	2142988	REC_WORD	2.014	n/a	STRAINER	KitchenTools	4	11	[0, 0, 0]	n/a	catFR1	0	R1368T
2143.233	3.66	2145002	REC_WORD	3.66	n/a	COLANDER	KitchenTools	3	11	[0, 0, 0]	n/a	catFR1	0	R1368T
2146.893	1.429	2148662	REC_WORD_VV	1.429	n/a	<>	n/a	-999	11	[0, 0, 0]	n/a	catFR1	0	R1368T
2148.322	5.56	2150091	REC_WORD	5.56	n/a	GRATE	n/a	-999	11	[0, 0, 0]	n/a	catFR1	0	R1368T
2153.882	10.719	2155650	REC_WORD_VV	10.719	n/a	<>	n/a	-999	11	[0, 0, 0]	n/a	catFR1	0	R1368T
2164.601	4.311	2166386	REC_END	n/a	n/a	n/a	n/a	-999	11	[0, 0, 0]	n/a	catFR1	0	R1368T
2168.912	10.428	2170703	COUNTDOWN_START	n/a	n/a	n/a	n/a	-999	12	[0, 0, 0]	n/a	catFR1	0	R1368T
2179.34	1.175	2181098	COUNTDOWN_END	n/a	n/a	n/a	n/a	-999	12	[0, 0, 0]	n/a	catFR1	0	R1368T
2180.515	1.147	2182272	ENCODING_START	n/a	n/a	n/a	n/a	-999	12	[0, 0, 0]	n/a	catFR1	0	R1368T
2181.662	1.635	2183431	WORD	n/a	wordpools/wordpool_categorized_EN.txt	BEE	Insects	1	12	[0, 0, 0]	n/a	catFR1	0	R1368T
2183.297	1.128	2185052	WORD_OFF	n/a	n/a	BEE	Insects	1	12	[0, 0, 0]	n/a	catFR1	0	R1368T
2184.425	1.623	2186184	WORD	n/a	wordpools/wordpool_categorized_EN.txt	SPIDER	Insects	2	12	[0, 0, 0]	n/a	catFR1	0	R1368T
2186.048	0.909	2187805	WORD_OFF	n/a	n/a	SPIDER	Insects	2	12	[0, 0, 0]	n/a	catFR1	0	R1368T
2186.957	1.625	2188713	WORD	n/a	wordpools/wordpool_categorized_EN.txt	TAPE	OfficeSupplies	3	12	[0, 0, 0]	n/a	catFR1	0	R1368T
2188.582	0.809	2190333	WORD_OFF	n/a	n/a	TAPE	OfficeSupplies	3	12	[0, 0, 0]	n/a	catFR1	0	R1368T
2189.391	1.624	2191144	WORD	n/a	wordpools/wordpool_categorized_EN.txt	PENCIL	OfficeSupplies	4	12	[0, 0, 0]	n/a	catFR1	0	R1368T
2191.015	0.95	2192765	WORD_OFF	n/a	n/a	PENCIL	OfficeSupplies	4	12	[0, 0, 0]	n/a	catFR1	0	R1368T
2191.965	1.634	2193729	WORD	n/a	wordpools/wordpool_categorized_EN.txt	FOOTBALL	Toys	5	12	[0, 0, 0]	n/a	catFR1	0	R1368T
2193.599	0.953	2195349	WORD_OFF	n/a	n/a	FOOTBALL	Toys	5	12	[0, 0, 0]	n/a	catFR1	0	R1368T
2194.552	1.631	2196313	WORD	n/a	wordpools/wordpool_categorized_EN.txt	BASKETBALL	Toys	6	12	[0, 0, 0]	n/a	catFR1	0	R1368T
2196.183	0.808	2197934	WORD_OFF	n/a	n/a	BASKETBALL	Toys	6	12	[0, 0, 0]	n/a	catFR1	0	R1368T
2196.991	1.626	2198745	WORD	n/a	wordpools/wordpool_categorized_EN.txt	ANT	Insects	7	12	[0, 0, 0]	n/a	catFR1	0	R1368T
2198.617	0.834	2200365	WORD_OFF	n/a	n/a	ANT	Insects	7	12	[0, 0, 0]	n/a	catFR1	0	R1368T
2199.451	1.633	2201218	WORD	n/a	wordpools/wordpool_categorized_EN.txt	MOTH	Insects	8	12	[0, 0, 0]	n/a	catFR1	0	R1368T
2201.084	0.798	2202838	WORD_OFF	n/a	n/a	MOTH	Insects	8	12	[0, 0, 0]	n/a	catFR1	0	R1368T
2201.882	1.637	2203649	WORD	n/a	wordpools/wordpool_categorized_EN.txt	PEN	OfficeSupplies	9	12	[0, 0, 0]	n/a	catFR1	0	R1368T
2203.519	0.755	2205269	WORD_OFF	n/a	n/a	PEN	OfficeSupplies	9	12	[0, 0, 0]	n/a	catFR1	0	R1368T
2204.274	1.628	2206038	WORD	n/a	wordpools/wordpool_categorized_EN.txt	GLUE	OfficeSupplies	10	12	[0, 0, 0]	n/a	catFR1	0	R1368T
2205.902	0.835	2207653	WORD_OFF	n/a	n/a	GLUE	OfficeSupplies	10	12	[0, 0, 0]	n/a	catFR1	0	R1368T
2206.737	1.632	2208505	WORD	n/a	wordpools/wordpool_categorized_EN.txt	MARBLES	Toys	11	12	[0, 0, 0]	n/a	catFR1	0	R1368T
2208.369	0.848	2210112	WORD_OFF	n/a	n/a	MARBLES	Toys	11	12	[0, 0, 0]	n/a	catFR1	0	R1368T
2209.217	1.635	2210992	WORD	n/a	wordpools/wordpool_categorized_EN.txt	BALL	Toys	12	12	[0, 0, 0]	n/a	catFR1	0	R1368T
2210.852	0.001	2212613	WORD_OFF	n/a	n/a	BALL	Toys	12	12	[0, 0, 0]	n/a	catFR1	0	R1368T
2210.853	0.0	2212618	START	n/a	n/a	n/a	n/a	-999	12	[-999, -999, -999]	n/a	catFR1	0	R1368T
2210.853	0.0	2212627	ENCODING_END	n/a	n/a	n/a	n/a	-999	12	[0, 0, 0]	n/a	catFR1	0	R1368T
2210.853	0.016	2212627	DISTRACT_START	n/a	n/a	n/a	n/a	-999	12	[0, 0, 0]	n/a	catFR1	0	R1368T
2210.869	28.605	2212634	PROB	28.605	n/a	n/a	n/a	-999	12	[7, 6, 6]	19	catFR1	0	R1368T
2239.474	0.0	2241227	DISTRACT_END	n/a	n/a	n/a	n/a	-999	12	[0, 0, 0]	n/a	catFR1	0	R1368T
2239.467	2.108	2241231	STOP	n/a	n/a	n/a	n/a	-999	12	[-999, -999, -999]	n/a	catFR1	0	R1368T
2241.575	21.539	2243337	REC_START	n/a	n/a	n/a	n/a	-999	12	[0, 0, 0]	n/a	catFR1	0	R1368T
2263.114	8.473	2264877	REC_WORD_VV	8.473	n/a	<>	n/a	-999	12	[0, 0, 0]	n/a	catFR1	0	R1368T
2271.587	3.761	2273362	REC_END	n/a	n/a	n/a	n/a	-999	12	[0, 0, 0]	n/a	catFR1	0	R1368T
2275.348	10.428	2277134	COUNTDOWN_START	n/a	n/a	n/a	n/a	-999	13	[0, 0, 0]	n/a	catFR1	0	R1368T
2285.776	1.108	2287529	COUNTDOWN_END	n/a	n/a	n/a	n/a	-999	13	[0, 0, 0]	n/a	catFR1	0	R1368T
2286.884	1.018	2288633	ENCODING_START	n/a	n/a	n/a	n/a	-999	13	[0, 0, 0]	n/a	catFR1	0	R1368T
2287.902	1.632	2289667	WORD	n/a	wordpools/wordpool_categorized_EN.txt	WINE	Beverages	1	13	[0, 0, 0]	n/a	catFR1	0	R1368T
2289.534	0.848	2291274	WORD_OFF	n/a	n/a	WINE	Beverages	1	13	[0, 0, 0]	n/a	catFR1	0	R1368T
2290.382	1.635	2292140	WORD	n/a	wordpools/wordpool_categorized_EN.txt	MILK	Beverages	2	13	[0, 0, 0]	n/a	catFR1	0	R1368T
2292.017	0.76	2293761	WORD_OFF	n/a	n/a	MILK	Beverages	2	13	[0, 0, 0]	n/a	catFR1	0	R1368T
2292.777	1.624	2294529	WORD	n/a	wordpools/wordpool_categorized_EN.txt	CROW	Birds	3	13	[0, 0, 0]	n/a	catFR1	0	R1368T
2294.401	1.113	2296150	WORD_OFF	n/a	n/a	CROW	Birds	3	13	[0, 0, 0]	n/a	catFR1	0	R1368T
2295.514	1.621	2297268	WORD	n/a	wordpools/wordpool_categorized_EN.txt	FINCH	Birds	4	13	[0, 0, 0]	n/a	catFR1	0	R1368T
2297.135	0.787	2298875	WORD_OFF	n/a	n/a	FINCH	Birds	4	13	[0, 0, 0]	n/a	catFR1	0	R1368T
2297.922	1.631	2299685	WORD	n/a	wordpools/wordpool_categorized_EN.txt	BANANA	Fruit	5	13	[0, 0, 0]	n/a	catFR1	0	R1368T
2299.553	0.997	2301292	WORD_OFF	n/a	n/a	BANANA	Fruit	5	13	[0, 0, 0]	n/a	catFR1	0	R1368T
2300.55	1.636	2302312	WORD	n/a	wordpools/wordpool_categorized_EN.txt	APPLE	Fruit	6	13	[0, 0, 0]	n/a	catFR1	0	R1368T
2302.186	0.994	2303932	WORD_OFF	n/a	n/a	APPLE	Fruit	6	13	[0, 0, 0]	n/a	catFR1	0	R1368T
2303.18	1.623	2304924	WORD	n/a	wordpools/wordpool_categorized_EN.txt	HAWK	Birds	7	13	[0, 0, 0]	n/a	catFR1	0	R1368T
2304.803	0.844	2306545	WORD_OFF	n/a	n/a	HAWK	Birds	7	13	[0, 0, 0]	n/a	catFR1	0	R1368T
2305.647	1.623	2307397	WORD	n/a	wordpools/wordpool_categorized_EN.txt	ROBIN	Birds	8	13	[0, 0, 0]	n/a	catFR1	0	R1368T
2307.27	1.068	2309018	WORD_OFF	n/a	n/a	ROBIN	Birds	8	13	[0, 0, 0]	n/a	catFR1	0	R1368T
2308.338	1.632	2310094	WORD	n/a	wordpools/wordpool_categorized_EN.txt	PLUM	Fruit	9	13	[0, 0, 0]	n/a	catFR1	0	R1368T
2309.97	0.768	2311715	WORD_OFF	n/a	n/a	PLUM	Fruit	9	13	[0, 0, 0]	n/a	catFR1	0	R1368T
2310.738	1.633	2312497	WORD	n/a	wordpools/wordpool_categorized_EN.txt	LEMON	Fruit	10	13	[0, 0, 0]	n/a	catFR1	0	R1368T
2312.371	1.063	2314118	WORD_OFF	n/a	n/a	LEMON	Fruit	10	13	[0, 0, 0]	n/a	catFR1	0	R1368T
2313.434	1.637	2315194	WORD	n/a	wordpools/wordpool_categorized_EN.txt	LEMONADE	Beverages	11	13	[0, 0, 0]	n/a	catFR1	0	R1368T
2315.071	1.034	2316814	WORD_OFF	n/a	n/a	LEMONADE	Beverages	11	13	[0, 0, 0]	n/a	catFR1	0	R1368T
2316.105	1.634	2317862	WORD	n/a	wordpools/wordpool_categorized_EN.txt	COFFEE	Beverages	12	13	[0, 0, 0]	n/a	catFR1	0	R1368T
2317.739	0.0	2319497	WORD_OFF	n/a	n/a	COFFEE	Beverages	12	13	[0, 0, 0]	n/a	catFR1	0	R1368T
2317.739	0.0	2319497	ENCODING_END	n/a	n/a	n/a	n/a	-999	13	[0, 0, 0]	n/a	catFR1	0	R1368T
2317.739	0.0	2319497	DISTRACT_START	n/a	n/a	n/a	n/a	-999	13	[0, 0, 0]	n/a	catFR1	0	R1368T
2317.739	0.016	2319499	START	n/a	n/a	n/a	n/a	-999	13	[-999, -999, -999]	n/a	catFR1	0	R1368T
2317.755	24.4	2319515	PROB	24.4	n/a	n/a	n/a	-999	13	[7, 7, 5]	19	catFR1	0	R1368T
2342.155	0.021	2343913	STOP	n/a	n/a	n/a	n/a	-999	13	[-999, -999, -999]	n/a	catFR1	0	R1368T
2342.176	2.284	2343920	DISTRACT_END	n/a	n/a	n/a	n/a	-999	13	[0, 0, 0]	n/a	catFR1	0	R1368T
2344.46	10.348	2346211	REC_START	n/a	n/a	n/a	n/a	-999	13	[0, 0, 0]	n/a	catFR1	0	R1368T
2354.808	1.0	2356566	REC_WORD_VV	1.0	n/a	<>	n/a	-999	13	[0, 0, 0]	n/a	catFR1	0	R1368T
2355.808	18.666	2357566	REC_WORD_VV	18.666	n/a	<>	n/a	-999	13	[0, 0, 0]	n/a	catFR1	0	R1368T
2374.474	127.182	2376237	REC_END	n/a	n/a	n/a	n/a	-999	13	[0, 0, 0]	n/a	catFR1	0	R1368T
2501.656	10.428	2503422	COUNTDOWN_START	n/a	n/a	n/a	n/a	-999	14	[0, 0, 0]	n/a	catFR1	0	R1368T
2512.084	1.207	2513831	COUNTDOWN_END	n/a	n/a	n/a	n/a	-999	14	[0, 0, 0]	n/a	catFR1	0	R1368T
2513.291	0.976	2515033	ENCODING_START	n/a	n/a	n/a	n/a	-999	14	[0, 0, 0]	n/a	catFR1	0	R1368T
2514.267	1.624	2516011	WORD	n/a	wordpools/wordpool_categorized_EN.txt	ROOF	Building	1	14	[0, 0, 0]	n/a	catFR1	0	R1368T
2515.891	1.116	2517631	WORD_OFF	n/a	n/a	ROOF	Building	1	14	[0, 0, 0]	n/a	catFR1	0	R1368T
2517.007	1.635	2518763	WORD	n/a	wordpools/wordpool_categorized_EN.txt	WINDOW	Building	2	14	[0, 0, 0]	n/a	catFR1	0	R1368T
2518.642	0.924	2520370	WORD_OFF	n/a	n/a	WINDOW	Building	2	14	[0, 0, 0]	n/a	catFR1	0	R1368T
2519.566	1.626	2521306	WORD	n/a	wordpools/wordpool_categorized_EN.txt	TABLE	Furniture	3	14	[0, 0, 0]	n/a	catFR1	0	R1368T
2521.192	0.776	2522927	WORD_OFF	n/a	n/a	TABLE	Furniture	3	14	[0, 0, 0]	n/a	catFR1	0	R1368T
2521.968	1.624	2523709	WORD	n/a	wordpools/wordpool_categorized_EN.txt	RECLINER	Furniture	4	14	[0, 0, 0]	n/a	catFR1	0	R1368T
2523.592	1.13	2525330	WORD_OFF	n/a	n/a	RECLINER	Furniture	4	14	[0, 0, 0]	n/a	catFR1	0	R1368T
2524.722	1.621	2526462	WORD	n/a	wordpools/wordpool_categorized_EN.txt	HILLS	Landscapes	5	14	[0, 0, 0]	n/a	catFR1	0	R1368T
2526.343	0.869	2528082	WORD_OFF	n/a	n/a	HILLS	Landscapes	5	14	[0, 0, 0]	n/a	catFR1	0	R1368T
2527.212	1.632	2528962	WORD	n/a	wordpools/wordpool_categorized_EN.txt	ISLAND	Landscapes	6	14	[0, 0, 0]	n/a	catFR1	0	R1368T
2528.844	0.926	2530583	WORD_OFF	n/a	n/a	ISLAND	Landscapes	6	14	[0, 0, 0]	n/a	catFR1	0	R1368T
2529.77	1.624	2531505	WORD	n/a	wordpools/wordpool_categorized_EN.txt	COUCH	Furniture	7	14	[0, 0, 0]	n/a	catFR1	0	R1368T
2531.394	0.962	2533126	WORD_OFF	n/a	n/a	COUCH	Furniture	7	14	[0, 0, 0]	n/a	catFR1	0	R1368T
2532.356	1.638	2534104	WORD	n/a	wordpools/wordpool_categorized_EN.txt	NIGHTSTAND	Furniture	8	14	[0, 0, 0]	n/a	catFR1	0	R1368T
2533.994	1.083	2535725	WORD_OFF	n/a	n/a	NIGHTSTAND	Furniture	8	14	[0, 0, 0]	n/a	catFR1	0	R1368T
2535.077	1.635	2536829	WORD	n/a	wordpools/wordpool_categorized_EN.txt	VALLEY	Landscapes	9	14	[0, 0, 0]	n/a	catFR1	0	R1368T
2536.712	0.844	2538449	WORD_OFF	n/a	n/a	VALLEY	Landscapes	9	14	[0, 0, 0]	n/a	catFR1	0	R1368T
2537.556	1.623	2539288	WORD	n/a	wordpools/wordpool_categorized_EN.txt	FOREST	Landscapes	10	14	[0, 0, 0]	n/a	catFR1	0	R1368T
2539.179	0.956	2540908	WORD_OFF	n/a	n/a	FOREST	Landscapes	10	14	[0, 0, 0]	n/a	catFR1	0	R1368T
2540.135	1.627	2541872	WORD	n/a	wordpools/wordpool_categorized_EN.txt	WALL	Building	11	14	[0, 0, 0]	n/a	catFR1	0	R1368T
2541.762	0.797	2543493	WORD_OFF	n/a	n/a	WALL	Building	11	14	[0, 0, 0]	n/a	catFR1	0	R1368T
2542.559	1.638	2544318	WORD	n/a	wordpools/wordpool_categorized_EN.txt	BATHROOM	Building	12	14	[0, 0, 0]	n/a	catFR1	0	R1368T
2544.197	0.0	2545945	START	n/a	n/a	n/a	n/a	-999	14	[-999, -999, -999]	n/a	catFR1	0	R1368T
2544.196	0.001	2545952	WORD_OFF	n/a	n/a	BATHROOM	Building	12	14	[0, 0, 0]	n/a	catFR1	0	R1368T
2544.197	0.0	2545952	ENCODING_END	n/a	n/a	n/a	n/a	-999	14	[0, 0, 0]	n/a	catFR1	0	R1368T
2544.197	0.016	2545952	DISTRACT_START	n/a	n/a	n/a	n/a	-999	14	[0, 0, 0]	n/a	catFR1	0	R1368T
2544.213	29.688	2545961	PROB	29.688	n/a	n/a	n/a	-999	14	[2, 7, 6]	15	catFR1	0	R1368T
2573.901	0.0	2575628	DISTRACT_END	n/a	n/a	n/a	n/a	-999	14	[0, 0, 0]	n/a	catFR1	0	R1368T
2573.896	2.407	2575642	STOP	n/a	n/a	n/a	n/a	-999	14	[-999, -999, -999]	n/a	catFR1	0	R1368T
2576.303	11.137	2578046	REC_START	n/a	n/a	n/a	n/a	-999	14	[0, 0, 0]	n/a	catFR1	0	R1368T
2587.44	1.862	2589186	REC_WORD	1.862	n/a	COUCH	Furniture	7	14	[0, 0, 0]	n/a	catFR1	0	R1368T
2589.302	2.783	2591047	REC_WORD	2.783	n/a	SOFA	Furniture	-999	14	[0, 0, 0]	n/a	catFR1	0	R1368T
2592.085	14.229	2593830	REC_WORD	14.229	n/a	CABLE	n/a	-999	14	[0, 0, 0]	n/a	catFR1	0	R1368T
2606.314	4.045	2608071	REC_END	n/a	n/a	n/a	n/a	-999	14	[0, 0, 0]	n/a	catFR1	0	R1368T
2610.359	10.429	2612123	COUNTDOWN_START	n/a	n/a	n/a	n/a	-999	15	[0, 0, 0]	n/a	catFR1	0	R1368T
2620.788	1.24	2622518	COUNTDOWN_END	n/a	n/a	n/a	n/a	-999	15	[0, 0, 0]	n/a	catFR1	0	R1368T
2622.028	1.032	2623761	ENCODING_START	n/a	n/a	n/a	n/a	-999	15	[0, 0, 0]	n/a	catFR1	0	R1368T
2623.06	1.634	2624809	WORD	n/a	wordpools/wordpool_categorized_EN.txt	SODA	Beverages	1	15	[0, 0, 0]	n/a	catFR1	0	R1368T
2624.694	0.92	2626416	WORD_OFF	n/a	n/a	SODA	Beverages	1	15	[0, 0, 0]	n/a	catFR1	0	R1368T
2625.614	1.631	2627352	WORD	n/a	wordpools/wordpool_categorized_EN.txt	WATER	Beverages	2	15	[0, 0, 0]	n/a	catFR1	0	R1368T
2627.245	0.801	2628973	WORD_OFF	n/a	n/a	WATER	Beverages	2	15	[0, 0, 0]	n/a	catFR1	0	R1368T
2628.046	1.633	2629783	WORD	n/a	wordpools/wordpool_categorized_EN.txt	WOODS	Landscapes	3	15	[0, 0, 0]	n/a	catFR1	0	R1368T
2629.679	0.839	2631404	WORD_OFF	n/a	n/a	WOODS	Landscapes	3	15	[0, 0, 0]	n/a	catFR1	0	R1368T
2630.518	1.628	2632256	WORD	n/a	wordpools/wordpool_categorized_EN.txt	RIVER	Landscapes	4	15	[0, 0, 0]	n/a	catFR1	0	R1368T
2632.146	0.873	2633877	WORD_OFF	n/a	n/a	RIVER	Landscapes	4	15	[0, 0, 0]	n/a	catFR1	0	R1368T
2633.019	1.627	2634757	WORD	n/a	wordpools/wordpool_categorized_EN.txt	LETTUCE	Vegetables	5	15	[0, 0, 0]	n/a	catFR1	0	R1368T
2634.646	0.892	2636378	WORD_OFF	n/a	n/a	LETTUCE	Vegetables	5	15	[0, 0, 0]	n/a	catFR1	0	R1368T
2635.538	1.625	2637272	WORD	n/a	wordpools/wordpool_categorized_EN.txt	BROCCOLI	Vegetables	6	15	[0, 0, 0]	n/a	catFR1	0	R1368T
2637.163	1.137	2638893	WORD_OFF	n/a	n/a	BROCCOLI	Vegetables	6	15	[0, 0, 0]	n/a	catFR1	0	R1368T
2638.3	1.63	2640038	WORD	n/a	wordpools/wordpool_categorized_EN.txt	LAKE	Landscapes	7	15	[0, 0, 0]	n/a	catFR1	0	R1368T
2639.93	1.124	2641659	WORD_OFF	n/a	n/a	LAKE	Landscapes	7	15	[0, 0, 0]	n/a	catFR1	0	R1368T
2641.054	1.627	2642791	WORD	n/a	wordpools/wordpool_categorized_EN.txt	STREAM	Landscapes	8	15	[0, 0, 0]	n/a	catFR1	0	R1368T
2642.681	0.979	2644412	WORD_OFF	n/a	n/a	STREAM	Landscapes	8	15	[0, 0, 0]	n/a	catFR1	0	R1368T
2643.66	1.638	2645404	WORD	n/a	wordpools/wordpool_categorized_EN.txt	POTATO	Vegetables	9	15	[0, 0, 0]	n/a	catFR1	0	R1368T
2645.298	1.02	2647024	WORD_OFF	n/a	n/a	POTATO	Vegetables	9	15	[0, 0, 0]	n/a	catFR1	0	R1368T
2646.318	1.63	2648058	WORD	n/a	wordpools/wordpool_categorized_EN.txt	CUCUMBER	Vegetables	10	15	[0, 0, 0]	n/a	catFR1	0	R1368T
2647.948	0.8	2649679	WORD_OFF	n/a	n/a	CUCUMBER	Vegetables	10	15	[0, 0, 0]	n/a	catFR1	0	R1368T
2648.748	1.634	2650489	WORD	n/a	wordpools/wordpool_categorized_EN.txt	COLA	Beverages	11	15	[0, 0, 0]	n/a	catFR1	0	R1368T
2650.382	1.005	2652110	WORD_OFF	n/a	n/a	COLA	Beverages	11	15	[0, 0, 0]	n/a	catFR1	0	R1368T
2651.387	1.63	2653130	WORD	n/a	wordpools/wordpool_categorized_EN.txt	CIDER	Beverages	12	15	[0, 0, 0]	n/a	catFR1	0	R1368T
2653.017	0.0	2654759	START	n/a	n/a	n/a	n/a	-999	15	[-999, -999, -999]	n/a	catFR1	0	R1368T
2653.016	0.001	2654765	WORD_OFF	n/a	n/a	CIDER	Beverages	12	15	[0, 0, 0]	n/a	catFR1	0	R1368T
2653.017	0.0	2654765	ENCODING_END	n/a	n/a	n/a	n/a	-999	15	[0, 0, 0]	n/a	catFR1	0	R1368T
2653.017	0.016	2654765	DISTRACT_START	n/a	n/a	n/a	n/a	-999	15	[0, 0, 0]	n/a	catFR1	0	R1368T
2653.033	46.225	2654775	PROB	46.225	n/a	n/a	n/a	-999	15	[6, 9, 3]	18	catFR1	0	R1368T
2699.258	0.0	2700984	DISTRACT_END	n/a	n/a	n/a	n/a	-999	15	[0, 0, 0]	n/a	catFR1	0	R1368T
2699.252	2.258	2700992	STOP	n/a	n/a	n/a	n/a	-999	15	[-999, -999, -999]	n/a	catFR1	0	R1368T
2701.51	5.785	2703247	REC_START	n/a	n/a	n/a	n/a	-999	15	[0, 0, 0]	n/a	catFR1	0	R1368T
2707.295	4.305	2709034	REC_WORD_VV	4.305	n/a	<>	n/a	-999	15	[0, 0, 0]	n/a	catFR1	0	R1368T
2711.6	19.922	2713339	REC_WORD_VV	19.922	n/a	<>	n/a	-999	15	[0, 0, 0]	n/a	catFR1	0	R1368T
2731.522	3.409	2733272	REC_END	n/a	n/a	n/a	n/a	-999	15	[0, 0, 0]	n/a	catFR1	0	R1368T
2734.931	10.429	2736682	COUNTDOWN_START	n/a	n/a	n/a	n/a	-999	16	[0, 0, 0]	n/a	catFR1	0	R1368T
2745.36	1.207	2747091	COUNTDOWN_END	n/a	n/a	n/a	n/a	-999	16	[0, 0, 0]	n/a	catFR1	0	R1368T
2746.567	1.006	2748292	ENCODING_START	n/a	n/a	n/a	n/a	-999	16	[0, 0, 0]	n/a	catFR1	0	R1368T
2747.573	1.627	2749312	WORD	n/a	wordpools/wordpool_categorized_EN.txt	HEAD	BodyParts	1	16	[0, 0, 0]	n/a	catFR1	0	R1368T
2749.2	0.941	2750919	WORD_OFF	n/a	n/a	HEAD	BodyParts	1	16	[0, 0, 0]	n/a	catFR1	0	R1368T
2750.141	1.626	2751869	WORD	n/a	wordpools/wordpool_categorized_EN.txt	EYE	BodyParts	2	16	[0, 0, 0]	n/a	catFR1	0	R1368T
2751.767	1.08	2753490	WORD_OFF	n/a	n/a	EYE	BodyParts	2	16	[0, 0, 0]	n/a	catFR1	0	R1368T
2752.847	1.638	2754593	WORD	n/a	wordpools/wordpool_categorized_EN.txt	WHALE	OceanAnimals	3	16	[0, 0, 0]	n/a	catFR1	0	R1368T
2754.485	1.047	2756200	WORD_OFF	n/a	n/a	WHALE	OceanAnimals	3	16	[0, 0, 0]	n/a	catFR1	0	R1368T
2755.532	1.636	2757276	WORD	n/a	wordpools/wordpool_categorized_EN.txt	SHRIMP	OceanAnimals	4	16	[0, 0, 0]	n/a	catFR1	0	R1368T
2757.168	1.11	2758883	WORD_OFF	n/a	n/a	SHRIMP	OceanAnimals	4	16	[0, 0, 0]	n/a	catFR1	0	R1368T
2758.278	1.624	2760001	WORD	n/a	wordpools/wordpool_categorized_EN.txt	CHIMPANZEE	Zoo	5	16	[0, 0, 0]	n/a	catFR1	0	R1368T
2759.902	1.097	2761621	WORD_OFF	n/a	n/a	CHIMPANZEE	Zoo	5	16	[0, 0, 0]	n/a	catFR1	0	R1368T
2760.999	1.637	2762739	WORD	n/a	wordpools/wordpool_categorized_EN.txt	LION	Zoo	6	16	[0, 0, 0]	n/a	catFR1	0	R1368T
2762.636	1.096	2764360	WORD_OFF	n/a	n/a	LION	Zoo	6	16	[0, 0, 0]	n/a	catFR1	0	R1368T
2763.732	1.638	2765477	WORD	n/a	wordpools/wordpool_categorized_EN.txt	OYSTER	OceanAnimals	7	16	[0, 0, 0]	n/a	catFR1	0	R1368T
2765.37	0.96	2767098	WORD_OFF	n/a	n/a	OYSTER	OceanAnimals	7	16	[0, 0, 0]	n/a	catFR1	0	R1368T
2766.33	1.624	2768062	WORD	n/a	wordpools/wordpool_categorized_EN.txt	SQUID	OceanAnimals	8	16	[0, 0, 0]	n/a	catFR1	0	R1368T
2767.954	1.0	2769669	WORD_OFF	n/a	n/a	SQUID	OceanAnimals	8	16	[0, 0, 0]	n/a	catFR1	0	R1368T
2768.954	1.633	2770689	WORD	n/a	wordpools/wordpool_categorized_EN.txt	CHEETAH	Zoo	9	16	[0, 0, 0]	n/a	catFR1	0	R1368T
2770.587	0.931	2772310	WORD_OFF	n/a	n/a	CHEETAH	Zoo	9	16	[0, 0, 0]	n/a	catFR1	0	R1368T
2771.518	1.62	2773246	WORD	n/a	wordpools/wordpool_categorized_EN.txt	BEAR	Zoo	10	16	[0, 0, 0]	n/a	catFR1	0	R1368T
2773.138	1.108	2774853	WORD_OFF	n/a	n/a	BEAR	Zoo	10	16	[0, 0, 0]	n/a	catFR1	0	R1368T
2774.246	1.626	2775970	WORD	n/a	wordpools/wordpool_categorized_EN.txt	EAR	BodyParts	11	16	[0, 0, 0]	n/a	catFR1	0	R1368T
2775.872	0.902	2777591	WORD_OFF	n/a	n/a	EAR	BodyParts	11	16	[0, 0, 0]	n/a	catFR1	0	R1368T
2776.774	1.632	2778513	WORD	n/a	wordpools/wordpool_categorized_EN.txt	TOE	BodyParts	12	16	[0, 0, 0]	n/a	catFR1	0	R1368T
2778.406	0.0	2780142	START	n/a	n/a	n/a	n/a	-999	16	[-999, -999, -999]	n/a	catFR1	0	R1368T
2778.405	0.001	2780148	WORD_OFF	n/a	n/a	TOE	BodyParts	12	16	[0, 0, 0]	n/a	catFR1	0	R1368T
2778.406	0.0	2780148	ENCODING_END	n/a	n/a	n/a	n/a	-999	16	[0, 0, 0]	n/a	catFR1	0	R1368T
2778.406	0.016	2780148	DISTRACT_START	n/a	n/a	n/a	n/a	-999	16	[0, 0, 0]	n/a	catFR1	0	R1368T
2778.422	42.27	2780158	PROB	42.27	n/a	n/a	n/a	-999	16	[7, 2, 4]	13	catFR1	0	R1368T
2820.692	0.021	2822425	STOP	n/a	n/a	n/a	n/a	-999	16	[-999, -999, -999]	n/a	catFR1	0	R1368T
2820.713	2.234	2822427	DISTRACT_END	n/a	n/a	n/a	n/a	-999	16	[0, 0, 0]	n/a	catFR1	0	R1368T
2822.947	10.82	2824676	REC_START	n/a	n/a	n/a	n/a	-999	16	[0, 0, 0]	n/a	catFR1	0	R1368T
2833.767	1.025	2835500	REC_WORD_VV	1.025	n/a	<>	n/a	-999	16	[0, 0, 0]	n/a	catFR1	0	R1368T
2834.792	6.944	2836525	REC_WORD	6.944	n/a	HEAD	BodyParts	1	16	[0, 0, 0]	n/a	catFR1	0	R1368T
2841.736	10.549	2843468	REC_WORD	10.549	n/a	CHEEK	n/a	-999	16	[0, 0, 0]	n/a	catFR1	0	R1368T
2852.285	0.676	2854017	REC_WORD	0.676	n/a	ARM	BodyParts	-999	16	[0, 0, 0]	n/a	catFR1	0	R1368T
2852.961	9.31	2854701	REC_END	n/a	n/a	n/a	n/a	-999	16	[0, 0, 0]	n/a	catFR1	0	R1368T
2862.271	10.428	2864021	COUNTDOWN_START	n/a	n/a	n/a	n/a	-999	17	[0, 0, 0]	n/a	catFR1	0	R1368T
2872.699	1.208	2874416	COUNTDOWN_END	n/a	n/a	n/a	n/a	-999	17	[0, 0, 0]	n/a	catFR1	0	R1368T
2873.907	0.828	2875617	ENCODING_START	n/a	n/a	n/a	n/a	-999	17	[0, 0, 0]	n/a	catFR1	0	R1368T
2874.735	1.638	2876470	WORD	n/a	wordpools/wordpool_categorized_EN.txt	CARDINAL	Birds	1	17	[0, 0, 0]	n/a	catFR1	0	R1368T
2876.373	0.998	2878090	WORD_OFF	n/a	n/a	CARDINAL	Birds	1	17	[0, 0, 0]	n/a	catFR1	0	R1368T
2877.371	1.636	2879110	WORD	n/a	wordpools/wordpool_categorized_EN.txt	GOOSE	Birds	2	17	[0, 0, 0]	n/a	catFR1	0	R1368T
2879.007	0.804	2880717	WORD_OFF	n/a	n/a	GOOSE	Birds	2	17	[0, 0, 0]	n/a	catFR1	0	R1368T
2879.811	1.63	2881541	WORD	n/a	wordpools/wordpool_categorized_EN.txt	TROMBONE	Instruments	3	17	[0, 0, 0]	n/a	catFR1	0	R1368T
2881.441	0.839	2883162	WORD_OFF	n/a	n/a	TROMBONE	Instruments	3	17	[0, 0, 0]	n/a	catFR1	0	R1368T
2882.28	1.628	2884000	WORD	n/a	wordpools/wordpool_categorized_EN.txt	TUBA	Instruments	4	17	[0, 0, 0]	n/a	catFR1	0	R1368T
2883.908	0.958	2885621	WORD_OFF	n/a	n/a	TUBA	Instruments	4	17	[0, 0, 0]	n/a	catFR1	0	R1368T
2884.866	1.627	2886585	WORD	n/a	wordpools/wordpool_categorized_EN.txt	ERASER	OfficeSupplies	5	17	[0, 0, 0]	n/a	catFR1	0	R1368T
2886.493	0.878	2888206	WORD_OFF	n/a	n/a	ERASER	OfficeSupplies	5	17	[0, 0, 0]	n/a	catFR1	0	R1368T
2887.371	1.638	2889100	WORD	n/a	wordpools/wordpool_categorized_EN.txt	STAPLER	OfficeSupplies	6	17	[0, 0, 0]	n/a	catFR1	0	R1368T
2889.009	1.03	2890721	WORD_OFF	n/a	n/a	STAPLER	OfficeSupplies	6	17	[0, 0, 0]	n/a	catFR1	0	R1368T
2890.039	1.637	2891769	WORD	n/a	wordpools/wordpool_categorized_EN.txt	DUCK	Birds	7	17	[0, 0, 0]	n/a	catFR1	0	R1368T
2891.676	0.903	2893389	WORD_OFF	n/a	n/a	DUCK	Birds	7	17	[0, 0, 0]	n/a	catFR1	0	R1368T
2892.579	1.631	2894312	WORD	n/a	wordpools/wordpool_categorized_EN.txt	PIGEON	Birds	8	17	[0, 0, 0]	n/a	catFR1	0	R1368T
2894.21	1.072	2895918	WORD_OFF	n/a	n/a	PIGEON	Birds	8	17	[0, 0, 0]	n/a	catFR1	0	R1368T
2895.282	1.628	2897008	WORD	n/a	wordpools/wordpool_categorized_EN.txt	PAPER	OfficeSupplies	9	17	[0, 0, 0]	n/a	catFR1	0	R1368T
2896.91	1.053	2898629	WORD_OFF	n/a	n/a	PAPER	OfficeSupplies	9	17	[0, 0, 0]	n/a	catFR1	0	R1368T
2897.963	1.631	2899691	WORD	n/a	wordpools/wordpool_categorized_EN.txt	MARKER	OfficeSupplies	10	17	[0, 0, 0]	n/a	catFR1	0	R1368T
2899.594	0.964	2901311	WORD_OFF	n/a	n/a	MARKER	OfficeSupplies	10	17	[0, 0, 0]	n/a	catFR1	0	R1368T
2900.558	1.637	2902289	WORD	n/a	wordpools/wordpool_categorized_EN.txt	GUITAR	Instruments	11	17	[0, 0, 0]	n/a	catFR1	0	R1368T
2902.195	0.914	2903910	WORD_OFF	n/a	n/a	GUITAR	Instruments	11	17	[0, 0, 0]	n/a	catFR1	0	R1368T
2903.109	1.637	2904846	WORD	n/a	wordpools/wordpool_categorized_EN.txt	CELLO	Instruments	12	17	[0, 0, 0]	n/a	catFR1	0	R1368T
2904.746	0.0	2906475	START	n/a	n/a	n/a	n/a	-999	17	[-999, -999, -999]	n/a	catFR1	0	R1368T
2904.745	0.001	2906481	WORD_OFF	n/a	n/a	CELLO	Instruments	12	17	[0, 0, 0]	n/a	catFR1	0	R1368T
2904.746	0.0	2906481	ENCODING_END	n/a	n/a	n/a	n/a	-999	17	[0, 0, 0]	n/a	catFR1	0	R1368T
2904.746	0.016	2906481	DISTRACT_START	n/a	n/a	n/a	n/a	-999	17	[0, 0, 0]	n/a	catFR1	0	R1368T
2904.762	22.772	2906491	PROB	22.772	n/a	n/a	n/a	-999	17	[2, 7, 6]	15	catFR1	0	R1368T
2927.534	0.0	2929241	DISTRACT_END	n/a	n/a	n/a	n/a	-999	17	[0, 0, 0]	n/a	catFR1	0	R1368T
2927.522	2.211	2929250	STOP	n/a	n/a	n/a	n/a	-999	17	[-999, -999, -999]	n/a	catFR1	0	R1368T
2929.733	5.192	2931463	REC_START	n/a	n/a	n/a	n/a	-999	17	[0, 0, 0]	n/a	catFR1	0	R1368T
2934.925	1.0	2936652	REC_WORD_VV	1.0	n/a	<>	n/a	-999	17	[0, 0, 0]	n/a	catFR1	0	R1368T
2935.925	18.492	2937652	REC_WORD_VV	18.492	n/a	<>	n/a	-999	17	[0, 0, 0]	n/a	catFR1	0	R1368T
2954.417	3.464	2956143	REC_WORD_VV	3.464	n/a	<>	n/a	-999	17	[0, 0, 0]	n/a	catFR1	0	R1368T
2957.881	1.0	2959607	REC_WORD_VV	1.0	n/a	<>	n/a	-999	17	[0, 0, 0]	n/a	catFR1	0	R1368T
2958.881	0.864	2960607	REC_WORD_VV	0.864	n/a	<>	n/a	-999	17	[0, 0, 0]	n/a	catFR1	0	R1368T
2959.745	0.0	2961474	REC_END	n/a	n/a	n/a	n/a	-999	17	[0, 0, 0]	n/a	catFR1	0	R1368T
