onset	duration	sample	trial_type	response_time	stim_file	item_name	category	serialpos	list	test	answer	experiment	session	subject
0.0	0.516	312509	INSTRUCT_START	n/a	n/a	n/a	n/a	-999	-999	[0, 0, 0]	n/a	catFR1	1	R1486J
0.516	163.115	313020	INSTRUCT_END	n/a	n/a	n/a	n/a	-999	-999	[0, 0, 0]	n/a	catFR1	1	R1486J
163.631	10.0	476137	COUNTDOWN_START	n/a	n/a	n/a	n/a	-999	-999	[0, 0, 0]	n/a	catFR1	1	R1486J
173.983	0.0	486485	COUNTDOWN_END	n/a	n/a	n/a	n/a	-999	-999	[0, 0, 0]	n/a	catFR1	1	R1486J
173.983	2.064	486485	ENCODING_START	n/a	n/a	n/a	n/a	-999	-1	[0, 0, 0]	n/a	catFR1	1	R1486J
176.047	1.6	488544	WORD	n/a	n/a	POTATO	Vegetables	1	-1	[0, 0, 0]	n/a	catFR1	1	R1486J
177.649	0.833	490152	WORD_OFF	n/a	n/a	POTATO	Vegetables	1	-1	[0, 0, 0]	n/a	catFR1	1	R1486J
178.482	1.6	490979	WORD	n/a	n/a	CUCUMBER	Vegetables	2	-1	[0, 0, 0]	n/a	catFR1	1	R1486J
180.098	0.867	492602	WORD_OFF	n/a	n/a	CUCUMBER	Vegetables	2	-1	[0, 0, 0]	n/a	catFR1	1	R1486J
180.965	1.6	493467	WORD	n/a	n/a	JELLYFISH	OceanAnimals	3	-1	[0, 0, 0]	n/a	catFR1	1	R1486J
182.581	0.967	495082	WORD_OFF	n/a	n/a	JELLYFISH	OceanAnimals	3	-1	[0, 0, 0]	n/a	catFR1	1	R1486J
183.548	1.6	496044	WORD	n/a	n/a	PLANKTON	OceanAnimals	4	-1	[0, 0, 0]	n/a	catFR1	1	R1486J
185.163	0.785	497660	WORD_OFF	n/a	n/a	PLANKTON	OceanAnimals	4	-1	[0, 0, 0]	n/a	catFR1	1	R1486J
185.948	1.6	498449	WORD	n/a	n/a	CROWBAR	Tools	5	-1	[0, 0, 0]	n/a	catFR1	1	R1486J
187.548	0.817	500050	WORD_OFF	n/a	n/a	CROWBAR	Tools	5	-1	[0, 0, 0]	n/a	catFR1	1	R1486J
188.365	1.6	500862	WORD	n/a	n/a	AXE	Tools	6	-1	[0, 0, 0]	n/a	catFR1	1	R1486J
189.98	0.884	502477	WORD_OFF	n/a	n/a	AXE	Tools	6	-1	[0, 0, 0]	n/a	catFR1	1	R1486J
190.864	1.6	503364	WORD	n/a	n/a	SQUID	OceanAnimals	7	-1	[0, 0, 0]	n/a	catFR1	1	R1486J
192.465	0.798	504965	WORD_OFF	n/a	n/a	SQUID	OceanAnimals	7	-1	[0, 0, 0]	n/a	catFR1	1	R1486J
193.263	1.6	505761	WORD	n/a	n/a	CRAB	OceanAnimals	8	-1	[0, 0, 0]	n/a	catFR1	1	R1486J
194.864	0.883	507362	WORD_OFF	n/a	n/a	CRAB	OceanAnimals	8	-1	[0, 0, 0]	n/a	catFR1	1	R1486J
195.747	1.6	508249	WORD	n/a	n/a	HAMMER	Tools	9	-1	[0, 0, 0]	n/a	catFR1	1	R1486J
197.348	0.833	509850	WORD_OFF	n/a	n/a	HAMMER	Tools	9	-1	[0, 0, 0]	n/a	catFR1	1	R1486J
198.181	1.6	510684	WORD	n/a	n/a	SHOVEL	Tools	10	-1	[0, 0, 0]	n/a	catFR1	1	R1486J
199.798	0.817	512300	WORD_OFF	n/a	n/a	SHOVEL	Tools	10	-1	[0, 0, 0]	n/a	catFR1	1	R1486J
200.615	1.6	513111	WORD	n/a	n/a	PEAS	Vegetables	11	-1	[0, 0, 0]	n/a	catFR1	1	R1486J
202.231	0.884	514727	WORD_OFF	n/a	n/a	PEAS	Vegetables	11	-1	[0, 0, 0]	n/a	catFR1	1	R1486J
203.115	1.6	515614	WORD	n/a	n/a	CELERY	Vegetables	12	-1	[0, 0, 0]	n/a	catFR1	1	R1486J
204.717	0.0	517213	PROB	5.099	n/a	n/a	n/a	-999	-1	[6, 2, 3]	11.0	catFR1	1	R1486J
204.715	0.004	517215	WORD_OFF	n/a	n/a	CELERY	Vegetables	12	-1	[0, 0, 0]	n/a	catFR1	1	R1486J
204.719	0.0	517215	ENCODING_END	n/a	n/a	n/a	n/a	-999	-1	[0, 0, 0]	n/a	catFR1	1	R1486J
204.719	0.0	517215	START	n/a	n/a	n/a	n/a	-999	-1	[-999, -999, -999]	n/a	catFR1	1	R1486J
204.719	5.113	517222	DISTRACT_START	n/a	n/a	n/a	n/a	-999	-1	[0, 0, 0]	n/a	catFR1	1	R1486J
209.832	4.216	522327	PROB	4.199	n/a	n/a	n/a	-999	-1	[8, 3, 1]	12.0	catFR1	1	R1486J
214.048	3.067	526543	PROB	3.049	n/a	n/a	n/a	-999	-1	[1, 8, 8]	17.0	catFR1	1	R1486J
217.115	2.583	529610	PROB	2.567	n/a	n/a	n/a	-999	-1	[3, 3, 6]	12.0	catFR1	1	R1486J
219.698	3.7	532193	PROB	3.683	n/a	n/a	n/a	-999	-1	[7, 5, 6]	18.0	catFR1	1	R1486J
223.398	4.049	535893	PROB	4.033	n/a	n/a	n/a	-999	-1	[8, 3, 6]	17.0	catFR1	1	R1486J
227.447	0.0	539942	STOP	n/a	n/a	n/a	n/a	-999	-1	[-999, -999, -999]	n/a	catFR1	1	R1486J
227.447	2.134	539948	DISTRACT_END	n/a	n/a	n/a	n/a	-999	-1	[0, 0, 0]	n/a	catFR1	1	R1486J
229.581	0.19	542075	REC_START	n/a	n/a	n/a	n/a	-999	-1	[0, 0, 0]	n/a	catFR1	1	R1486J
229.771	0.944	542266	REC_WORD	0.19	n/a	CROWBAR	Tools	5	-1	[0, 0, 0]	n/a	catFR1	1	R1486J
230.715	0.366	543210	REC_WORD	1.134	n/a	AXE	Tools	6	-1	[0, 0, 0]	n/a	catFR1	1	R1486J
231.081	0.975	543576	REC_WORD	1.5	n/a	SHOVEL	Tools	10	-1	[0, 0, 0]	n/a	catFR1	1	R1486J
232.056	0.723	544551	REC_WORD	2.475	n/a	HAMMER	Tools	9	-1	[0, 0, 0]	n/a	catFR1	1	R1486J
232.779	0.86	545273	REC_WORD	3.198	n/a	SQUID	OceanAnimals	7	-1	[0, 0, 0]	n/a	catFR1	1	R1486J
233.639	2.14	546133	REC_WORD	4.058	n/a	JELLYFISH	OceanAnimals	3	-1	[0, 0, 0]	n/a	catFR1	1	R1486J
235.779	1.856	548273	REC_WORD_VV	6.198	n/a	<>	n/a	-999	-1	[0, 0, 0]	n/a	catFR1	1	R1486J
237.635	2.522	550129	REC_WORD	8.054	n/a	PLANKTON	OceanAnimals	4	-1	[0, 0, 0]	n/a	catFR1	1	R1486J
240.157	0.365	552651	REC_WORD_VV	10.576	n/a	<>	n/a	-999	-1	[0, 0, 0]	n/a	catFR1	1	R1486J
240.522	3.544	553016	REC_WORD	10.941	n/a	CUCUMBER	Vegetables	2	-1	[0, 0, 0]	n/a	catFR1	1	R1486J
244.066	3.447	556560	REC_WORD_VV	14.485	n/a	<>	n/a	-999	-1	[0, 0, 0]	n/a	catFR1	1	R1486J
247.513	7.874	560007	REC_WORD	17.932	n/a	POTATO	Vegetables	1	-1	[0, 0, 0]	n/a	catFR1	1	R1486J
255.387	4.383	567881	REC_WORD_VV	25.806	n/a	<>	n/a	-999	-1	[0, 0, 0]	n/a	catFR1	1	R1486J
259.77	50.96	572263	REC_END	n/a	n/a	n/a	n/a	-999	-1	[0, 0, 0]	n/a	catFR1	1	R1486J
310.73	10.0	623231	COUNTDOWN_START	n/a	n/a	n/a	n/a	-999	1	[0, 0, 0]	n/a	catFR1	1	R1486J
321.081	0.0	633572	COUNTDOWN_END	n/a	n/a	n/a	n/a	-999	1	[0, 0, 0]	n/a	catFR1	1	R1486J
321.081	2.184	633579	ENCODING_START	n/a	n/a	n/a	n/a	-999	1	[0, 0, 0]	n/a	catFR1	1	R1486J
323.265	1.6	635758	WORD	n/a	wordpools/wordpool_categorized_EN.txt	CARROT	Vegetables	1	1	[0, 0, 0]	n/a	catFR1	1	R1486J
324.881	0.982	637374	WORD_OFF	n/a	n/a	CARROT	Vegetables	1	1	[0, 0, 0]	n/a	catFR1	1	R1486J
325.863	1.6	638359	WORD	n/a	wordpools/wordpool_categorized_EN.txt	CORN	Vegetables	2	1	[0, 0, 0]	n/a	catFR1	1	R1486J
327.464	0.8	639959	WORD_OFF	n/a	n/a	CORN	Vegetables	2	1	[0, 0, 0]	n/a	catFR1	1	R1486J
328.264	1.6	640756	WORD	n/a	wordpools/wordpool_categorized_EN.txt	PETUNIA	Flowers	3	1	[0, 0, 0]	n/a	catFR1	1	R1486J
329.864	0.851	642357	WORD_OFF	n/a	n/a	PETUNIA	Flowers	3	1	[0, 0, 0]	n/a	catFR1	1	R1486J
330.715	1.6	643206	WORD	n/a	wordpools/wordpool_categorized_EN.txt	LILAC	Flowers	4	1	[0, 0, 0]	n/a	catFR1	1	R1486J
332.33	0.817	644822	WORD_OFF	n/a	n/a	LILAC	Flowers	4	1	[0, 0, 0]	n/a	catFR1	1	R1486J
333.147	1.6	645641	WORD	n/a	wordpools/wordpool_categorized_EN.txt	GUITAR	Instruments	5	1	[0, 0, 0]	n/a	catFR1	1	R1486J
334.747	0.883	647242	WORD_OFF	n/a	n/a	GUITAR	Instruments	5	1	[0, 0, 0]	n/a	catFR1	1	R1486J
335.63	1.6	648121	WORD	n/a	wordpools/wordpool_categorized_EN.txt	TROMBONE	Instruments	6	1	[0, 0, 0]	n/a	catFR1	1	R1486J
337.231	0.967	649722	WORD_OFF	n/a	n/a	TROMBONE	Instruments	6	1	[0, 0, 0]	n/a	catFR1	1	R1486J
338.198	1.6	650691	WORD	n/a	wordpools/wordpool_categorized_EN.txt	ORCHID	Flowers	7	1	[0, 0, 0]	n/a	catFR1	1	R1486J
339.814	0.816	652307	WORD_OFF	n/a	n/a	ORCHID	Flowers	7	1	[0, 0, 0]	n/a	catFR1	1	R1486J
340.63	1.6	653126	WORD	n/a	wordpools/wordpool_categorized_EN.txt	TULIP	Flowers	8	1	[0, 0, 0]	n/a	catFR1	1	R1486J
342.247	0.951	654742	WORD_OFF	n/a	n/a	TULIP	Flowers	8	1	[0, 0, 0]	n/a	catFR1	1	R1486J
343.198	1.6	655689	WORD	n/a	wordpools/wordpool_categorized_EN.txt	BANJO	Instruments	9	1	[0, 0, 0]	n/a	catFR1	1	R1486J
344.813	0.784	657304	WORD_OFF	n/a	n/a	BANJO	Instruments	9	1	[0, 0, 0]	n/a	catFR1	1	R1486J
345.597	1.6	658094	WORD	n/a	wordpools/wordpool_categorized_EN.txt	TUBA	Instruments	10	1	[0, 0, 0]	n/a	catFR1	1	R1486J
347.197	0.917	659687	WORD_OFF	n/a	n/a	TUBA	Instruments	10	1	[0, 0, 0]	n/a	catFR1	1	R1486J
348.114	1.6	660611	WORD	n/a	wordpools/wordpool_categorized_EN.txt	CABBAGE	Vegetables	11	1	[0, 0, 0]	n/a	catFR1	1	R1486J
349.715	0.9	662212	WORD_OFF	n/a	n/a	CABBAGE	Vegetables	11	1	[0, 0, 0]	n/a	catFR1	1	R1486J
350.615	1.6	663106	WORD	n/a	wordpools/wordpool_categorized_EN.txt	SPINACH	Vegetables	12	1	[0, 0, 0]	n/a	catFR1	1	R1486J
352.232	0.001	664722	WORD_OFF	n/a	n/a	SPINACH	Vegetables	12	1	[0, 0, 0]	n/a	catFR1	1	R1486J
352.233	0.0	664722	START	n/a	n/a	n/a	n/a	-999	1	[-999, -999, -999]	n/a	catFR1	1	R1486J
352.233	0.0	664722	PROB	3.966	n/a	n/a	n/a	-999	1	[2, 1, 4]	7.0	catFR1	1	R1486J
352.233	0.0	664729	ENCODING_END	n/a	n/a	n/a	n/a	-999	1	[0, 0, 0]	n/a	catFR1	1	R1486J
352.233	3.982	664729	DISTRACT_START	n/a	n/a	n/a	n/a	-999	1	[0, 0, 0]	n/a	catFR1	1	R1486J
356.215	3.282	668704	PROB	3.265	n/a	n/a	n/a	-999	1	[1, 5, 4]	10.0	catFR1	1	R1486J
359.497	3.268	671986	PROB	3.251	n/a	n/a	n/a	-999	1	[6, 2, 3]	11.0	catFR1	1	R1486J
362.765	3.149	675254	PROB	3.133	n/a	n/a	n/a	-999	1	[8, 7, 2]	17.0	catFR1	1	R1486J
365.914	2.502	678403	PROB	2.483	n/a	n/a	n/a	-999	1	[2, 2, 1]	5.0	catFR1	1	R1486J
368.416	2.498	680905	PROB	2.482	n/a	n/a	n/a	-999	1	[6, 3, 3]	12.0	catFR1	1	R1486J
370.914	3.235	683403	PROB	3.217	n/a	n/a	n/a	-999	1	[6, 8, 3]	17.0	catFR1	1	R1486J
374.149	0.0	686638	STOP	n/a	n/a	n/a	n/a	-999	1	[-999, -999, -999]	n/a	catFR1	1	R1486J
374.149	2.2	686644	DISTRACT_END	n/a	n/a	n/a	n/a	-999	1	[0, 0, 0]	n/a	catFR1	1	R1486J
376.349	0.176	688838	REC_START	n/a	n/a	n/a	n/a	-999	1	[0, 0, 0]	n/a	catFR1	1	R1486J
376.525	0.744	689014	REC_WORD	0.176	n/a	GUITAR	Instruments	5	1	[0, 0, 0]	n/a	catFR1	1	R1486J
377.269	2.191	689757	REC_WORD	0.92	n/a	TROMBONE	Instruments	6	1	[0, 0, 0]	n/a	catFR1	1	R1486J
379.46	0.35	691948	REC_WORD_VV	3.111	n/a	<>	n/a	-999	1	[0, 0, 0]	n/a	catFR1	1	R1486J
379.81	0.826	692298	REC_WORD	3.461	n/a	LILY	n/a	-999	1	[0, 0, 0]	n/a	catFR1	1	R1486J
380.636	1.606	693124	REC_WORD	4.287	n/a	ORCHID	Flowers	7	1	[0, 0, 0]	n/a	catFR1	1	R1486J
382.242	1.409	694730	REC_WORD_VV	5.893	n/a	<>	n/a	-999	1	[0, 0, 0]	n/a	catFR1	1	R1486J
383.651	1.0	696139	REC_WORD_VV	7.302	n/a	<>	n/a	-999	1	[0, 0, 0]	n/a	catFR1	1	R1486J
384.651	2.02	697139	REC_WORD_VV	8.302	n/a	<>	n/a	-999	1	[0, 0, 0]	n/a	catFR1	1	R1486J
386.671	3.269	699159	REC_WORD	10.322	n/a	PETUNIA	Flowers	3	1	[0, 0, 0]	n/a	catFR1	1	R1486J
389.94	2.544	702428	REC_WORD_VV	13.591	n/a	<>	n/a	-999	1	[0, 0, 0]	n/a	catFR1	1	R1486J
392.484	5.513	704972	REC_WORD	16.135	n/a	CARROT	Vegetables	1	1	[0, 0, 0]	n/a	catFR1	1	R1486J
397.997	7.35	710485	REC_WORD	21.648	n/a	CORN	Vegetables	2	1	[0, 0, 0]	n/a	catFR1	1	R1486J
405.347	1.21	717834	REC_WORD_VV	28.998	n/a	<>	n/a	-999	1	[0, 0, 0]	n/a	catFR1	1	R1486J
406.557	3.642	719049	REC_END	n/a	n/a	n/a	n/a	-999	1	[0, 0, 0]	n/a	catFR1	1	R1486J
410.199	10.0	722694	COUNTDOWN_START	n/a	n/a	n/a	n/a	-999	2	[0, 0, 0]	n/a	catFR1	1	R1486J
420.549	0.0	733042	COUNTDOWN_END	n/a	n/a	n/a	n/a	-999	2	[0, 0, 0]	n/a	catFR1	1	R1486J
420.549	2.015	733042	ENCODING_START	n/a	n/a	n/a	n/a	-999	2	[0, 0, 0]	n/a	catFR1	1	R1486J
422.564	1.6	735056	WORD	n/a	wordpools/wordpool_categorized_EN.txt	DRESS	Clothing	1	2	[0, 0, 0]	n/a	catFR1	1	R1486J
424.166	0.849	736657	WORD_OFF	n/a	n/a	DRESS	Clothing	1	2	[0, 0, 0]	n/a	catFR1	1	R1486J
425.015	1.6	737506	WORD	n/a	wordpools/wordpool_categorized_EN.txt	SHOES	Clothing	2	2	[0, 0, 0]	n/a	catFR1	1	R1486J
426.616	0.816	739107	WORD_OFF	n/a	n/a	SHOES	Clothing	2	2	[0, 0, 0]	n/a	catFR1	1	R1486J
427.432	1.6	739918	WORD	n/a	wordpools/wordpool_categorized_EN.txt	OYSTER	OceanAnimals	3	2	[0, 0, 0]	n/a	catFR1	1	R1486J
429.048	0.934	741534	WORD_OFF	n/a	n/a	OYSTER	OceanAnimals	3	2	[0, 0, 0]	n/a	catFR1	1	R1486J
429.982	1.6	742474	WORD	n/a	wordpools/wordpool_categorized_EN.txt	LOBSTER	OceanAnimals	4	2	[0, 0, 0]	n/a	catFR1	1	R1486J
431.582	0.767	744074	WORD_OFF	n/a	n/a	LOBSTER	OceanAnimals	4	2	[0, 0, 0]	n/a	catFR1	1	R1486J
432.349	1.6	744841	WORD	n/a	wordpools/wordpool_categorized_EN.txt	FOUNDATION	Building	5	2	[0, 0, 0]	n/a	catFR1	1	R1486J
433.965	0.917	746457	WORD_OFF	n/a	n/a	FOUNDATION	Building	5	2	[0, 0, 0]	n/a	catFR1	1	R1486J
434.882	1.6	747373	WORD	n/a	wordpools/wordpool_categorized_EN.txt	ATTIC	Building	6	2	[0, 0, 0]	n/a	catFR1	1	R1486J
436.482	0.933	748974	WORD_OFF	n/a	n/a	ATTIC	Building	6	2	[0, 0, 0]	n/a	catFR1	1	R1486J
437.415	1.6	749906	WORD	n/a	wordpools/wordpool_categorized_EN.txt	SOCKS	Clothing	7	2	[0, 0, 0]	n/a	catFR1	1	R1486J
439.031	0.918	751522	WORD_OFF	n/a	n/a	SOCKS	Clothing	7	2	[0, 0, 0]	n/a	catFR1	1	R1486J
439.949	1.6	752439	WORD	n/a	wordpools/wordpool_categorized_EN.txt	BLOUSE	Clothing	8	2	[0, 0, 0]	n/a	catFR1	1	R1486J
441.565	0.833	754054	WORD_OFF	n/a	n/a	BLOUSE	Clothing	8	2	[0, 0, 0]	n/a	catFR1	1	R1486J
442.398	1.6	754889	WORD	n/a	wordpools/wordpool_categorized_EN.txt	FISH	OceanAnimals	9	2	[0, 0, 0]	n/a	catFR1	1	R1486J
443.999	0.866	756489	WORD_OFF	n/a	n/a	FISH	OceanAnimals	9	2	[0, 0, 0]	n/a	catFR1	1	R1486J
444.865	1.6	757354	WORD	n/a	wordpools/wordpool_categorized_EN.txt	SHRIMP	OceanAnimals	10	2	[0, 0, 0]	n/a	catFR1	1	R1486J
446.465	0.917	758954	WORD_OFF	n/a	n/a	SHRIMP	OceanAnimals	10	2	[0, 0, 0]	n/a	catFR1	1	R1486J
447.382	1.6	759871	WORD	n/a	wordpools/wordpool_categorized_EN.txt	WALL	Building	11	2	[0, 0, 0]	n/a	catFR1	1	R1486J
448.997	0.885	761487	WORD_OFF	n/a	n/a	WALL	Building	11	2	[0, 0, 0]	n/a	catFR1	1	R1486J
449.882	1.6	762374	WORD	n/a	wordpools/wordpool_categorized_EN.txt	STAIRS	Building	12	2	[0, 0, 0]	n/a	catFR1	1	R1486J
451.498	0.001	763983	PROB	3.65	n/a	n/a	n/a	-999	2	[5, 5, 4]	14.0	catFR1	1	R1486J
451.499	0.0	763984	START	n/a	n/a	n/a	n/a	-999	2	[-999, -999, -999]	n/a	catFR1	1	R1486J
451.498	0.001	763989	WORD_OFF	n/a	n/a	STAIRS	Building	12	2	[0, 0, 0]	n/a	catFR1	1	R1486J
451.499	0.0	763989	ENCODING_END	n/a	n/a	n/a	n/a	-999	2	[0, 0, 0]	n/a	catFR1	1	R1486J
451.499	3.667	763989	DISTRACT_START	n/a	n/a	n/a	n/a	-999	2	[0, 0, 0]	n/a	catFR1	1	R1486J
455.166	3.381	767651	PROB	3.365	n/a	n/a	n/a	-999	2	[1, 8, 8]	17.0	catFR1	1	R1486J
458.547	4.702	771032	PROB	4.684	n/a	n/a	n/a	-999	2	[4, 8, 7]	19.0	catFR1	1	R1486J
463.249	2.683	775734	PROB	2.666	n/a	n/a	n/a	-999	2	[3, 7, 5]	15.0	catFR1	1	R1486J
465.932	3.034	778417	PROB	3.016	n/a	n/a	n/a	-999	2	[8, 5, 4]	17.0	catFR1	1	R1486J
468.966	3.666	781451	PROB	3.649	n/a	n/a	n/a	-999	2	[3, 1, 6]	13.0	catFR1	1	R1486J
472.632	0.0	785116	STOP	n/a	n/a	n/a	n/a	-999	2	[-999, -999, -999]	n/a	catFR1	1	R1486J
472.632	2.299	785122	DISTRACT_END	n/a	n/a	n/a	n/a	-999	2	[0, 0, 0]	n/a	catFR1	1	R1486J
474.931	0.297	787422	REC_START	n/a	n/a	n/a	n/a	-999	2	[0, 0, 0]	n/a	catFR1	1	R1486J
475.228	0.629	787712	REC_WORD	0.297	n/a	WALL	Building	11	2	[0, 0, 0]	n/a	catFR1	1	R1486J
475.857	1.174	788341	REC_WORD	0.926	n/a	STAIRS	Building	12	2	[0, 0, 0]	n/a	catFR1	1	R1486J
477.031	1.412	789515	REC_WORD	2.1	n/a	ATTIC	Building	6	2	[0, 0, 0]	n/a	catFR1	1	R1486J
478.443	1.04	790927	REC_WORD	3.512	n/a	FOUNDATION	Building	5	2	[0, 0, 0]	n/a	catFR1	1	R1486J
479.483	2.352	791967	REC_WORD	4.552	n/a	SHRIMP	OceanAnimals	10	2	[0, 0, 0]	n/a	catFR1	1	R1486J
481.835	1.142	794319	REC_WORD	6.904	n/a	LOBSTER	OceanAnimals	4	2	[0, 0, 0]	n/a	catFR1	1	R1486J
482.977	5.881	795461	REC_WORD	8.046	n/a	OYSTER	OceanAnimals	3	2	[0, 0, 0]	n/a	catFR1	1	R1486J
488.858	1.529	801342	REC_WORD_VV	13.927	n/a	<>	n/a	-999	2	[0, 0, 0]	n/a	catFR1	1	R1486J
490.387	1.021	802871	REC_WORD	15.456	n/a	DRESS	Clothing	1	2	[0, 0, 0]	n/a	catFR1	1	R1486J
491.408	1.722	803892	REC_WORD	16.477	n/a	SHOES	Clothing	2	2	[0, 0, 0]	n/a	catFR1	1	R1486J
493.13	2.957	805614	REC_WORD	18.199	n/a	BLOUSE	Clothing	8	2	[0, 0, 0]	n/a	catFR1	1	R1486J
496.087	0.474	808571	REC_WORD_VV	21.156	n/a	<>	n/a	-999	2	[0, 0, 0]	n/a	catFR1	1	R1486J
496.561	8.587	809045	REC_WORD	21.63	n/a	SOCKS	Clothing	7	2	[0, 0, 0]	n/a	catFR1	1	R1486J
505.148	5.268	817633	REC_END	n/a	n/a	n/a	n/a	-999	2	[0, 0, 0]	n/a	catFR1	1	R1486J
510.416	10.0	822908	COUNTDOWN_START	n/a	n/a	n/a	n/a	-999	3	[0, 0, 0]	n/a	catFR1	1	R1486J
520.766	0.0	833249	COUNTDOWN_END	n/a	n/a	n/a	n/a	-999	3	[0, 0, 0]	n/a	catFR1	1	R1486J
520.766	2.266	833257	ENCODING_START	n/a	n/a	n/a	n/a	-999	3	[0, 0, 0]	n/a	catFR1	1	R1486J
523.032	1.6	835519	WORD	n/a	wordpools/wordpool_categorized_EN.txt	DOVE	Birds	1	3	[0, 0, 0]	n/a	catFR1	1	R1486J
524.649	0.866	837134	WORD_OFF	n/a	n/a	DOVE	Birds	1	3	[0, 0, 0]	n/a	catFR1	1	R1486J
525.515	1.6	837999	WORD	n/a	wordpools/wordpool_categorized_EN.txt	BLUEBIRD	Birds	2	3	[0, 0, 0]	n/a	catFR1	1	R1486J
527.115	0.834	839599	WORD_OFF	n/a	n/a	BLUEBIRD	Birds	2	3	[0, 0, 0]	n/a	catFR1	1	R1486J
527.949	1.6	840434	WORD	n/a	wordpools/wordpool_categorized_EN.txt	GNAT	Insects	3	3	[0, 0, 0]	n/a	catFR1	1	R1486J
529.549	0.965	842034	WORD_OFF	n/a	n/a	GNAT	Insects	3	3	[0, 0, 0]	n/a	catFR1	1	R1486J
530.514	1.6	842996	WORD	n/a	wordpools/wordpool_categorized_EN.txt	BEETLE	Insects	4	3	[0, 0, 0]	n/a	catFR1	1	R1486J
532.115	0.834	844604	WORD_OFF	n/a	n/a	BEETLE	Insects	4	3	[0, 0, 0]	n/a	catFR1	1	R1486J
532.949	1.6	845431	WORD	n/a	wordpools/wordpool_categorized_EN.txt	TAPE	OfficeSupplies	5	3	[0, 0, 0]	n/a	catFR1	1	R1486J
534.549	0.949	847032	WORD_OFF	n/a	n/a	TAPE	OfficeSupplies	5	3	[0, 0, 0]	n/a	catFR1	1	R1486J
535.498	1.6	847986	WORD	n/a	wordpools/wordpool_categorized_EN.txt	NOTEBOOK	OfficeSupplies	6	3	[0, 0, 0]	n/a	catFR1	1	R1486J
537.099	0.784	849587	WORD_OFF	n/a	n/a	NOTEBOOK	OfficeSupplies	6	3	[0, 0, 0]	n/a	catFR1	1	R1486J
537.883	1.6	850369	WORD	n/a	wordpools/wordpool_categorized_EN.txt	SEAGULL	Birds	7	3	[0, 0, 0]	n/a	catFR1	1	R1486J
539.498	0.818	851984	WORD_OFF	n/a	n/a	SEAGULL	Birds	7	3	[0, 0, 0]	n/a	catFR1	1	R1486J
540.316	1.6	852803	WORD	n/a	wordpools/wordpool_categorized_EN.txt	DUCK	Birds	8	3	[0, 0, 0]	n/a	catFR1	1	R1486J
541.931	0.967	854419	WORD_OFF	n/a	n/a	DUCK	Birds	8	3	[0, 0, 0]	n/a	catFR1	1	R1486J
542.898	1.6	855381	WORD	n/a	wordpools/wordpool_categorized_EN.txt	STAPLER	OfficeSupplies	9	3	[0, 0, 0]	n/a	catFR1	1	R1486J
544.513	0.817	856997	WORD_OFF	n/a	n/a	STAPLER	OfficeSupplies	9	3	[0, 0, 0]	n/a	catFR1	1	R1486J
545.33	1.6	857816	WORD	n/a	wordpools/wordpool_categorized_EN.txt	MARKER	OfficeSupplies	10	3	[0, 0, 0]	n/a	catFR1	1	R1486J
546.931	0.868	859417	WORD_OFF	n/a	n/a	MARKER	OfficeSupplies	10	3	[0, 0, 0]	n/a	catFR1	1	R1486J
547.799	1.6	860281	WORD	n/a	wordpools/wordpool_categorized_EN.txt	LADYBUG	Insects	11	3	[0, 0, 0]	n/a	catFR1	1	R1486J
549.414	0.917	861897	WORD_OFF	n/a	n/a	LADYBUG	Insects	11	3	[0, 0, 0]	n/a	catFR1	1	R1486J
550.331	1.6	862814	WORD	n/a	wordpools/wordpool_categorized_EN.txt	BUTTERFLY	Insects	12	3	[0, 0, 0]	n/a	catFR1	1	R1486J
551.931	0.001	864412	PROB	3.583	n/a	n/a	n/a	-999	3	[6, 3, 1]	10.0	catFR1	1	R1486J
551.932	0.0	864413	START	n/a	n/a	n/a	n/a	-999	3	[-999, -999, -999]	n/a	catFR1	1	R1486J
551.931	0.001	864414	WORD_OFF	n/a	n/a	BUTTERFLY	Insects	12	3	[0, 0, 0]	n/a	catFR1	1	R1486J
551.932	0.0	864422	ENCODING_END	n/a	n/a	n/a	n/a	-999	3	[0, 0, 0]	n/a	catFR1	1	R1486J
551.932	3.6	864422	DISTRACT_START	n/a	n/a	n/a	n/a	-999	3	[0, 0, 0]	n/a	catFR1	1	R1486J
555.532	7.167	868013	PROB	7.148	n/a	n/a	n/a	-999	3	[8, 1, 5]	14.0	catFR1	1	R1486J
562.699	4.199	875180	PROB	4.182	n/a	n/a	n/a	-999	3	[7, 4, 4]	15.0	catFR1	1	R1486J
566.898	3.2	879379	PROB	3.183	n/a	n/a	n/a	-999	3	[4, 6, 5]	15.0	catFR1	1	R1486J
570.098	4.415	882578	PROB	4.4	n/a	n/a	n/a	-999	3	[1, 7, 5]	13.0	catFR1	1	R1486J
574.513	0.0	886993	STOP	n/a	n/a	n/a	n/a	-999	3	[-999, -999, -999]	n/a	catFR1	1	R1486J
574.513	2.268	886997	DISTRACT_END	n/a	n/a	n/a	n/a	-999	3	[0, 0, 0]	n/a	catFR1	1	R1486J
576.781	0.238	889267	REC_START	n/a	n/a	n/a	n/a	-999	3	[0, 0, 0]	n/a	catFR1	1	R1486J
577.019	1.026	889499	REC_WORD	0.238	n/a	GNAT	Insects	3	3	[0, 0, 0]	n/a	catFR1	1	R1486J
578.045	1.818	890525	REC_WORD	1.264	n/a	BEETLE	Insects	4	3	[0, 0, 0]	n/a	catFR1	1	R1486J
579.863	0.5	892343	REC_WORD_VV	3.082	n/a	<>	n/a	-999	3	[0, 0, 0]	n/a	catFR1	1	R1486J
580.363	5.414	892843	REC_WORD	3.582	n/a	DOVE	Birds	1	3	[0, 0, 0]	n/a	catFR1	1	R1486J
585.777	0.42	898257	REC_WORD_VV	8.996	n/a	<>	n/a	-999	3	[0, 0, 0]	n/a	catFR1	1	R1486J
586.197	9.097	898677	REC_WORD	9.416	n/a	SEAGULL	Birds	7	3	[0, 0, 0]	n/a	catFR1	1	R1486J
595.294	0.998	907773	REC_WORD_VV	18.513	n/a	<>	n/a	-999	3	[0, 0, 0]	n/a	catFR1	1	R1486J
596.292	7.574	908771	REC_WORD_VV	19.511	n/a	<>	n/a	-999	3	[0, 0, 0]	n/a	catFR1	1	R1486J
603.866	3.135	916345	REC_WORD_VV	27.085	n/a	<>	n/a	-999	3	[0, 0, 0]	n/a	catFR1	1	R1486J
607.001	5.832	919485	REC_END	n/a	n/a	n/a	n/a	-999	3	[0, 0, 0]	n/a	catFR1	1	R1486J
612.833	10.0	925317	COUNTDOWN_START	n/a	n/a	n/a	n/a	-999	4	[0, 0, 0]	n/a	catFR1	1	R1486J
623.182	0.0	935665	COUNTDOWN_END	n/a	n/a	n/a	n/a	-999	4	[0, 0, 0]	n/a	catFR1	1	R1486J
623.182	2.083	935665	ENCODING_START	n/a	n/a	n/a	n/a	-999	4	[0, 0, 0]	n/a	catFR1	1	R1486J
625.265	1.6	937747	WORD	n/a	wordpools/wordpool_categorized_EN.txt	FLY	Insects	1	4	[0, 0, 0]	n/a	catFR1	1	R1486J
626.865	0.9	939348	WORD_OFF	n/a	n/a	FLY	Insects	1	4	[0, 0, 0]	n/a	catFR1	1	R1486J
627.765	1.6	940250	WORD	n/a	wordpools/wordpool_categorized_EN.txt	SPIDER	Insects	2	4	[0, 0, 0]	n/a	catFR1	1	R1486J
629.365	0.817	941850	WORD_OFF	n/a	n/a	SPIDER	Insects	2	4	[0, 0, 0]	n/a	catFR1	1	R1486J
630.182	1.6	942662	WORD	n/a	wordpools/wordpool_categorized_EN.txt	MAPLE	Trees	3	4	[0, 0, 0]	n/a	catFR1	1	R1486J
631.798	0.834	944278	WORD_OFF	n/a	n/a	MAPLE	Trees	3	4	[0, 0, 0]	n/a	catFR1	1	R1486J
632.632	1.6	945112	WORD	n/a	wordpools/wordpool_categorized_EN.txt	PINE	Trees	4	4	[0, 0, 0]	n/a	catFR1	1	R1486J
634.232	0.799	946713	WORD_OFF	n/a	n/a	PINE	Trees	4	4	[0, 0, 0]	n/a	catFR1	1	R1486J
635.031	1.6	947509	WORD	n/a	wordpools/wordpool_categorized_EN.txt	BULL	FarmAnimals	5	4	[0, 0, 0]	n/a	catFR1	1	R1486J
636.632	0.848	949110	WORD_OFF	n/a	n/a	BULL	FarmAnimals	5	4	[0, 0, 0]	n/a	catFR1	1	R1486J
637.48	1.6	949959	WORD	n/a	wordpools/wordpool_categorized_EN.txt	TURKEY	FarmAnimals	6	4	[0, 0, 0]	n/a	catFR1	1	R1486J
639.081	0.85	951560	WORD_OFF	n/a	n/a	TURKEY	FarmAnimals	6	4	[0, 0, 0]	n/a	catFR1	1	R1486J
639.931	1.6	952409	WORD	n/a	wordpools/wordpool_categorized_EN.txt	HICKORY	Trees	7	4	[0, 0, 0]	n/a	catFR1	1	R1486J
641.531	0.833	954010	WORD_OFF	n/a	n/a	HICKORY	Trees	7	4	[0, 0, 0]	n/a	catFR1	1	R1486J
642.364	1.6	954844	WORD	n/a	wordpools/wordpool_categorized_EN.txt	WALNUT	Trees	8	4	[0, 0, 0]	n/a	catFR1	1	R1486J
643.965	0.899	956445	WORD_OFF	n/a	n/a	WALNUT	Trees	8	4	[0, 0, 0]	n/a	catFR1	1	R1486J
644.864	1.6	957347	WORD	n/a	wordpools/wordpool_categorized_EN.txt	HEN	FarmAnimals	9	4	[0, 0, 0]	n/a	catFR1	1	R1486J
646.464	0.833	958947	WORD_OFF	n/a	n/a	HEN	FarmAnimals	9	4	[0, 0, 0]	n/a	catFR1	1	R1486J
647.297	1.6	959774	WORD	n/a	wordpools/wordpool_categorized_EN.txt	GOAT	FarmAnimals	10	4	[0, 0, 0]	n/a	catFR1	1	R1486J
648.898	0.816	961375	WORD_OFF	n/a	n/a	GOAT	FarmAnimals	10	4	[0, 0, 0]	n/a	catFR1	1	R1486J
649.714	1.6	962194	WORD	n/a	wordpools/wordpool_categorized_EN.txt	CRICKET	Insects	11	4	[0, 0, 0]	n/a	catFR1	1	R1486J
651.315	0.816	963795	WORD_OFF	n/a	n/a	CRICKET	Insects	11	4	[0, 0, 0]	n/a	catFR1	1	R1486J
652.131	1.6	964614	WORD	n/a	wordpools/wordpool_categorized_EN.txt	MOSQUITO	Insects	12	4	[0, 0, 0]	n/a	catFR1	1	R1486J
653.749	0.001	966226	PROB	4.883	n/a	n/a	n/a	-999	4	[4, 7, 8]	19.0	catFR1	1	R1486J
653.75	0.0	966227	START	n/a	n/a	n/a	n/a	-999	4	[-999, -999, -999]	n/a	catFR1	1	R1486J
653.748	0.002	966230	WORD_OFF	n/a	n/a	MOSQUITO	Insects	12	4	[0, 0, 0]	n/a	catFR1	1	R1486J
653.75	0.0	966230	ENCODING_END	n/a	n/a	n/a	n/a	-999	4	[0, 0, 0]	n/a	catFR1	1	R1486J
653.75	4.899	966230	DISTRACT_START	n/a	n/a	n/a	n/a	-999	4	[0, 0, 0]	n/a	catFR1	1	R1486J
658.649	3.733	971126	PROB	3.716	n/a	n/a	n/a	-999	4	[2, 8, 7]	17.0	catFR1	1	R1486J
662.382	3.566	974859	PROB	3.549	n/a	n/a	n/a	-999	4	[3, 1, 8]	12.0	catFR1	1	R1486J
665.948	2.583	978424	PROB	2.566	n/a	n/a	n/a	-999	4	[2, 6, 6]	14.0	catFR1	1	R1486J
668.531	5.001	981007	PROB	4.983	n/a	n/a	n/a	-999	4	[3, 8, 4]	15.0	catFR1	1	R1486J
673.532	3.082	986008	PROB	3.065	n/a	n/a	n/a	-999	4	[6, 2, 7]	15.0	catFR1	1	R1486J
676.614	0.0	989090	STOP	n/a	n/a	n/a	n/a	-999	4	[-999, -999, -999]	n/a	catFR1	1	R1486J
676.614	2.267	989091	DISTRACT_END	n/a	n/a	n/a	n/a	-999	4	[0, 0, 0]	n/a	catFR1	1	R1486J
678.881	0.525	991361	REC_START	n/a	n/a	n/a	n/a	-999	4	[0, 0, 0]	n/a	catFR1	1	R1486J
679.406	3.448	991882	REC_WORD_VV	0.525	n/a	<>	n/a	-999	4	[0, 0, 0]	n/a	catFR1	1	R1486J
682.854	1.47	995330	REC_WORD	3.973	n/a	GNAT	Insects	-999	4	[0, 0, 0]	n/a	catFR1	1	R1486J
684.324	8.766	996800	REC_WORD_VV	5.443	n/a	<>	n/a	-999	4	[0, 0, 0]	n/a	catFR1	1	R1486J
693.09	6.373	1005565	REC_WORD_VV	14.209	n/a	<>	n/a	-999	4	[0, 0, 0]	n/a	catFR1	1	R1486J
699.463	9.213	1011938	REC_WORD_VV	20.582	n/a	<>	n/a	-999	4	[0, 0, 0]	n/a	catFR1	1	R1486J
708.676	0.421	1021151	REC_WORD_VV	29.795	n/a	<>	n/a	-999	4	[0, 0, 0]	n/a	catFR1	1	R1486J
709.097	35.801	1021571	REC_END	n/a	n/a	n/a	n/a	-999	4	[0, 0, 0]	n/a	catFR1	1	R1486J
744.898	10.0	1057373	COUNTDOWN_START	n/a	n/a	n/a	n/a	-999	5	[0, 0, 0]	n/a	catFR1	1	R1486J
755.248	0.0	1067722	COUNTDOWN_END	n/a	n/a	n/a	n/a	-999	5	[0, 0, 0]	n/a	catFR1	1	R1486J
755.248	2.117	1067729	ENCODING_START	n/a	n/a	n/a	n/a	-999	5	[0, 0, 0]	n/a	catFR1	1	R1486J
757.365	1.6	1069841	WORD	n/a	wordpools/wordpool_categorized_EN.txt	DOLL	Toys	1	5	[0, 0, 0]	n/a	catFR1	1	R1486J
758.981	1.001	1071457	WORD_OFF	n/a	n/a	DOLL	Toys	1	5	[0, 0, 0]	n/a	catFR1	1	R1486J
759.982	1.6	1072456	WORD	n/a	wordpools/wordpool_categorized_EN.txt	BASKETBALL	Toys	2	5	[0, 0, 0]	n/a	catFR1	1	R1486J
761.598	0.933	1074079	WORD_OFF	n/a	n/a	BASKETBALL	Toys	2	5	[0, 0, 0]	n/a	catFR1	1	R1486J
762.531	1.6	1075004	WORD	n/a	wordpools/wordpool_categorized_EN.txt	TRAIN	Vehicles	3	5	[0, 0, 0]	n/a	catFR1	1	R1486J
764.148	0.882	1076627	WORD_OFF	n/a	n/a	TRAIN	Vehicles	3	5	[0, 0, 0]	n/a	catFR1	1	R1486J
765.03	1.6	1077506	WORD	n/a	wordpools/wordpool_categorized_EN.txt	JEEP	Vehicles	4	5	[0, 0, 0]	n/a	catFR1	1	R1486J
766.631	0.967	1079107	WORD_OFF	n/a	n/a	JEEP	Vehicles	4	5	[0, 0, 0]	n/a	catFR1	1	R1486J
767.598	1.6	1080077	WORD	n/a	wordpools/wordpool_categorized_EN.txt	MOUNTAIN	Landscapes	5	5	[0, 0, 0]	n/a	catFR1	1	R1486J
769.214	0.95	1081692	WORD_OFF	n/a	n/a	MOUNTAIN	Landscapes	5	5	[0, 0, 0]	n/a	catFR1	1	R1486J
770.164	1.6	1082639	WORD	n/a	wordpools/wordpool_categorized_EN.txt	HILLS	Landscapes	6	5	[0, 0, 0]	n/a	catFR1	1	R1486J
771.765	0.999	1084240	WORD_OFF	n/a	n/a	HILLS	Landscapes	6	5	[0, 0, 0]	n/a	catFR1	1	R1486J
772.764	1.6	1085239	WORD	n/a	wordpools/wordpool_categorized_EN.txt	BASEBALL	Toys	7	5	[0, 0, 0]	n/a	catFR1	1	R1486J
774.381	0.9	1086855	WORD_OFF	n/a	n/a	BASEBALL	Toys	7	5	[0, 0, 0]	n/a	catFR1	1	R1486J
775.281	1.6	1087757	WORD	n/a	wordpools/wordpool_categorized_EN.txt	BALL	Toys	8	5	[0, 0, 0]	n/a	catFR1	1	R1486J
776.881	0.999	1089358	WORD_OFF	n/a	n/a	BALL	Toys	8	5	[0, 0, 0]	n/a	catFR1	1	R1486J
777.88	1.6	1090357	WORD	n/a	wordpools/wordpool_categorized_EN.txt	CAR	Vehicles	9	5	[0, 0, 0]	n/a	catFR1	1	R1486J
779.481	0.849	1091958	WORD_OFF	n/a	n/a	CAR	Vehicles	9	5	[0, 0, 0]	n/a	catFR1	1	R1486J
780.33	1.6	1092807	WORD	n/a	wordpools/wordpool_categorized_EN.txt	SCOOTER	Vehicles	10	5	[0, 0, 0]	n/a	catFR1	1	R1486J
781.931	0.783	1094408	WORD_OFF	n/a	n/a	SCOOTER	Vehicles	10	5	[0, 0, 0]	n/a	catFR1	1	R1486J
782.714	1.6	1095190	WORD	n/a	wordpools/wordpool_categorized_EN.txt	RIVER	Landscapes	11	5	[0, 0, 0]	n/a	catFR1	1	R1486J
784.316	0.765	1096790	WORD_OFF	n/a	n/a	RIVER	Landscapes	11	5	[0, 0, 0]	n/a	catFR1	1	R1486J
785.081	1.6	1097557	WORD	n/a	wordpools/wordpool_categorized_EN.txt	STREAM	Landscapes	12	5	[0, 0, 0]	n/a	catFR1	1	R1486J
786.698	0.002	1099169	PROB	4.3	n/a	n/a	n/a	-999	5	[5, 4, 8]	17.0	catFR1	1	R1486J
786.7	0.0	1099171	START	n/a	n/a	n/a	n/a	-999	5	[-999, -999, -999]	n/a	catFR1	1	R1486J
786.698	0.001	1099173	WORD_OFF	n/a	n/a	STREAM	Landscapes	12	5	[0, 0, 0]	n/a	catFR1	1	R1486J
786.699	0.001	1099173	ENCODING_END	n/a	n/a	n/a	n/a	-999	5	[0, 0, 0]	n/a	catFR1	1	R1486J
786.7	4.314	1099173	DISTRACT_START	n/a	n/a	n/a	n/a	-999	5	[0, 0, 0]	n/a	catFR1	1	R1486J
791.014	4.701	1103485	PROB	4.683	n/a	n/a	n/a	-999	5	[3, 7, 6]	15.0	catFR1	1	R1486J
795.715	5.8	1108186	PROB	5.783	n/a	n/a	n/a	-999	5	[8, 8, 3]	19.0	catFR1	1	R1486J
801.515	5.183	1113986	PROB	5.166	n/a	n/a	n/a	-999	5	[3, 3, 8]	14.0	catFR1	1	R1486J
806.698	2.833	1119169	PROB	2.816	n/a	n/a	n/a	-999	5	[8, 7, 2]	17.0	catFR1	1	R1486J
809.531	0.0	1122001	STOP	n/a	n/a	n/a	n/a	-999	5	[-999, -999, -999]	n/a	catFR1	1	R1486J
809.531	2.049	1122004	DISTRACT_END	n/a	n/a	n/a	n/a	-999	5	[0, 0, 0]	n/a	catFR1	1	R1486J
811.58	1.818	1124056	REC_START	n/a	n/a	n/a	n/a	-999	5	[0, 0, 0]	n/a	catFR1	1	R1486J
813.398	0.721	1125868	REC_WORD	1.818	n/a	TRAIN	Vehicles	3	5	[0, 0, 0]	n/a	catFR1	1	R1486J
814.119	0.718	1126589	REC_WORD	2.539	n/a	JEEP	Vehicles	4	5	[0, 0, 0]	n/a	catFR1	1	R1486J
814.837	0.799	1127307	REC_WORD	3.257	n/a	MOUNTAIN	Landscapes	5	5	[0, 0, 0]	n/a	catFR1	1	R1486J
815.636	1.732	1128106	REC_WORD	4.056	n/a	HILLS	Landscapes	6	5	[0, 0, 0]	n/a	catFR1	1	R1486J
817.368	0.849	1129838	REC_WORD_VV	5.788	n/a	<>	n/a	-999	5	[0, 0, 0]	n/a	catFR1	1	R1486J
818.217	2.569	1130687	REC_WORD	6.637	n/a	FOOTBALL	n/a	-999	5	[0, 0, 0]	n/a	catFR1	1	R1486J
820.786	0.755	1133256	REC_WORD_VV	9.206	n/a	<>	n/a	-999	5	[0, 0, 0]	n/a	catFR1	1	R1486J
821.541	2.939	1134011	REC_WORD	9.961	n/a	BASEBALL	Toys	7	5	[0, 0, 0]	n/a	catFR1	1	R1486J
824.48	2.381	1136950	REC_WORD_VV	12.9	n/a	<>	n/a	-999	5	[0, 0, 0]	n/a	catFR1	1	R1486J
826.861	0.422	1139331	REC_WORD_VV	15.281	n/a	<>	n/a	-999	5	[0, 0, 0]	n/a	catFR1	1	R1486J
827.283	2.173	1139753	REC_WORD	15.703	n/a	HILLS	Landscapes	6	5	[0, 0, 0]	n/a	catFR1	1	R1486J
829.456	0.554	1141926	REC_WORD	17.876	n/a	VAN	n/a	-999	5	[0, 0, 0]	n/a	catFR1	1	R1486J
830.01	3.89	1142480	REC_WORD	18.43	n/a	JEEP	Vehicles	4	5	[0, 0, 0]	n/a	catFR1	1	R1486J
833.9	1.004	1146369	REC_WORD_VV	22.32	n/a	<>	n/a	-999	5	[0, 0, 0]	n/a	catFR1	1	R1486J
834.904	0.952	1147373	REC_WORD_VV	23.324	n/a	<>	n/a	-999	5	[0, 0, 0]	n/a	catFR1	1	R1486J
835.856	5.938	1148325	REC_WORD_VV	24.276	n/a	<>	n/a	-999	5	[0, 0, 0]	n/a	catFR1	1	R1486J
841.794	4.469	1154266	REC_END	n/a	n/a	n/a	n/a	-999	5	[0, 0, 0]	n/a	catFR1	1	R1486J
846.263	10.0	1158738	COUNTDOWN_START	n/a	n/a	n/a	n/a	-999	6	[0, 0, 0]	n/a	catFR1	1	R1486J
856.615	0.0	1169086	COUNTDOWN_END	n/a	n/a	n/a	n/a	-999	6	[0, 0, 0]	n/a	catFR1	1	R1486J
856.615	2.033	1169086	ENCODING_START	n/a	n/a	n/a	n/a	-999	6	[0, 0, 0]	n/a	catFR1	1	R1486J
858.648	1.6	1171123	WORD	n/a	wordpools/wordpool_categorized_EN.txt	COAT	Clothing	1	6	[0, 0, 0]	n/a	catFR1	1	R1486J
860.264	0.967	1172738	WORD_OFF	n/a	n/a	COAT	Clothing	1	6	[0, 0, 0]	n/a	catFR1	1	R1486J
861.231	1.6	1173700	WORD	n/a	wordpools/wordpool_categorized_EN.txt	PANTS	Clothing	2	6	[0, 0, 0]	n/a	catFR1	1	R1486J
862.831	0.768	1175301	WORD_OFF	n/a	n/a	PANTS	Clothing	2	6	[0, 0, 0]	n/a	catFR1	1	R1486J
863.599	1.6	1176068	WORD	n/a	wordpools/wordpool_categorized_EN.txt	CREEK	Landscapes	3	6	[0, 0, 0]	n/a	catFR1	1	R1486J
865.215	0.766	1177683	WORD_OFF	n/a	n/a	CREEK	Landscapes	3	6	[0, 0, 0]	n/a	catFR1	1	R1486J
865.981	1.6	1178450	WORD	n/a	wordpools/wordpool_categorized_EN.txt	BEACH	Landscapes	4	6	[0, 0, 0]	n/a	catFR1	1	R1486J
867.597	0.833	1180066	WORD_OFF	n/a	n/a	BEACH	Landscapes	4	6	[0, 0, 0]	n/a	catFR1	1	R1486J
868.43	1.6	1180900	WORD	n/a	wordpools/wordpool_categorized_EN.txt	LEVEL	Tools	5	6	[0, 0, 0]	n/a	catFR1	1	R1486J
870.047	0.934	1182516	WORD_OFF	n/a	n/a	LEVEL	Tools	5	6	[0, 0, 0]	n/a	catFR1	1	R1486J
870.981	1.6	1183455	WORD	n/a	wordpools/wordpool_categorized_EN.txt	SANDER	Tools	6	6	[0, 0, 0]	n/a	catFR1	1	R1486J
872.583	0.831	1185056	WORD_OFF	n/a	n/a	SANDER	Tools	6	6	[0, 0, 0]	n/a	catFR1	1	R1486J
873.414	1.6	1185882	WORD	n/a	wordpools/wordpool_categorized_EN.txt	UNDERWEAR	Clothing	7	6	[0, 0, 0]	n/a	catFR1	1	R1486J
875.015	0.816	1187483	WORD_OFF	n/a	n/a	UNDERWEAR	Clothing	7	6	[0, 0, 0]	n/a	catFR1	1	R1486J
875.831	1.6	1188302	WORD	n/a	wordpools/wordpool_categorized_EN.txt	SHIRT	Clothing	8	6	[0, 0, 0]	n/a	catFR1	1	R1486J
877.448	0.966	1189918	WORD_OFF	n/a	n/a	SHIRT	Clothing	8	6	[0, 0, 0]	n/a	catFR1	1	R1486J
878.414	1.6	1190887	WORD	n/a	wordpools/wordpool_categorized_EN.txt	WOODS	Landscapes	9	6	[0, 0, 0]	n/a	catFR1	1	R1486J
880.014	0.767	1192488	WORD_OFF	n/a	n/a	WOODS	Landscapes	9	6	[0, 0, 0]	n/a	catFR1	1	R1486J
880.781	1.6	1193255	WORD	n/a	wordpools/wordpool_categorized_EN.txt	LAKE	Landscapes	10	6	[0, 0, 0]	n/a	catFR1	1	R1486J
882.397	0.784	1194870	WORD_OFF	n/a	n/a	LAKE	Landscapes	10	6	[0, 0, 0]	n/a	catFR1	1	R1486J
883.181	1.6	1195652	WORD	n/a	wordpools/wordpool_categorized_EN.txt	SAW	Tools	11	6	[0, 0, 0]	n/a	catFR1	1	R1486J
884.782	0.882	1197253	WORD_OFF	n/a	n/a	SAW	Tools	11	6	[0, 0, 0]	n/a	catFR1	1	R1486J
885.664	1.6	1198132	WORD	n/a	wordpools/wordpool_categorized_EN.txt	PLIERS	Tools	12	6	[0, 0, 0]	n/a	catFR1	1	R1486J
887.281	0.001	1199748	WORD_OFF	n/a	n/a	PLIERS	Tools	12	6	[0, 0, 0]	n/a	catFR1	1	R1486J
887.282	0.001	1199749	PROB	10.616	n/a	n/a	n/a	-999	6	[6, 2, 1]	9.0	catFR1	1	R1486J
887.283	0.0	1199750	START	n/a	n/a	n/a	n/a	-999	6	[-999, -999, -999]	n/a	catFR1	1	R1486J
887.283	0.0	1199755	ENCODING_END	n/a	n/a	n/a	n/a	-999	6	[0, 0, 0]	n/a	catFR1	1	R1486J
887.283	10.631	1199755	DISTRACT_START	n/a	n/a	n/a	n/a	-999	6	[0, 0, 0]	n/a	catFR1	1	R1486J
897.914	5.133	1210381	PROB	5.117	n/a	n/a	n/a	-999	6	[4, 3, 6]	13.0	catFR1	1	R1486J
903.047	3.668	1215514	PROB	3.65	n/a	n/a	n/a	-999	6	[6, 6, 7]	18.0	catFR1	1	R1486J
906.715	3.832	1219181	PROB	3.816	n/a	n/a	n/a	-999	6	[3, 8, 7]	18.0	catFR1	1	R1486J
910.547	0.0	1223013	STOP	n/a	n/a	n/a	n/a	-999	6	[-999, -999, -999]	n/a	catFR1	1	R1486J
910.547	2.4	1223015	DISTRACT_END	n/a	n/a	n/a	n/a	-999	6	[0, 0, 0]	n/a	catFR1	1	R1486J
912.947	0.242	1225420	REC_START	n/a	n/a	n/a	n/a	-999	6	[0, 0, 0]	n/a	catFR1	1	R1486J
913.189	0.846	1225655	REC_WORD	0.242	n/a	COAT	Clothing	1	6	[0, 0, 0]	n/a	catFR1	1	R1486J
914.035	2.041	1226501	REC_WORD	1.088	n/a	PANTS	Clothing	2	6	[0, 0, 0]	n/a	catFR1	1	R1486J
916.076	0.211	1228542	REC_WORD_VV	3.129	n/a	<>	n/a	-999	6	[0, 0, 0]	n/a	catFR1	1	R1486J
916.287	2.505	1228753	REC_WORD	3.34	n/a	UNDERWEAR	Clothing	7	6	[0, 0, 0]	n/a	catFR1	1	R1486J
918.792	0.371	1231258	REC_WORD_VV	5.845	n/a	<>	n/a	-999	6	[0, 0, 0]	n/a	catFR1	1	R1486J
919.163	1.372	1231629	REC_WORD	6.216	n/a	SAW	Tools	11	6	[0, 0, 0]	n/a	catFR1	1	R1486J
920.535	2.394	1233001	REC_WORD	7.588	n/a	PLIERS	Tools	12	6	[0, 0, 0]	n/a	catFR1	1	R1486J
922.929	6.157	1235395	REC_WORD_VV	9.982	n/a	<>	n/a	-999	6	[0, 0, 0]	n/a	catFR1	1	R1486J
929.086	2.716	1241552	REC_WORD_VV	16.139	n/a	<>	n/a	-999	6	[0, 0, 0]	n/a	catFR1	1	R1486J
931.802	2.179	1244267	REC_WORD_VV	18.855	n/a	<>	n/a	-999	6	[0, 0, 0]	n/a	catFR1	1	R1486J
933.981	1.103	1246446	REC_WORD	21.034	n/a	STREAM	Landscapes	-999	6	[0, 0, 0]	n/a	catFR1	1	R1486J
935.084	8.101	1247549	REC_WORD	22.137	n/a	RIVER	Landscapes	-999	6	[0, 0, 0]	n/a	catFR1	1	R1486J
943.185	4.88	1255653	REC_END	n/a	n/a	n/a	n/a	-999	6	[0, 0, 0]	n/a	catFR1	1	R1486J
948.065	10.0	1260538	COUNTDOWN_START	n/a	n/a	n/a	n/a	-999	7	[0, 0, 0]	n/a	catFR1	1	R1486J
958.416	0.0	1270886	COUNTDOWN_END	n/a	n/a	n/a	n/a	-999	7	[0, 0, 0]	n/a	catFR1	1	R1486J
958.416	2.066	1270886	ENCODING_START	n/a	n/a	n/a	n/a	-999	7	[0, 0, 0]	n/a	catFR1	1	R1486J
960.482	1.6	1272953	WORD	n/a	wordpools/wordpool_categorized_EN.txt	DRESSER	Furniture	1	7	[0, 0, 0]	n/a	catFR1	1	R1486J
962.098	0.901	1274569	WORD_OFF	n/a	n/a	DRESSER	Furniture	1	7	[0, 0, 0]	n/a	catFR1	1	R1486J
962.999	1.6	1275463	WORD	n/a	wordpools/wordpool_categorized_EN.txt	SOFA	Furniture	2	7	[0, 0, 0]	n/a	catFR1	1	R1486J
964.616	0.865	1277086	WORD_OFF	n/a	n/a	SOFA	Furniture	2	7	[0, 0, 0]	n/a	catFR1	1	R1486J
965.481	1.6	1277950	WORD	n/a	wordpools/wordpool_categorized_EN.txt	LINEN	Fabric	3	7	[0, 0, 0]	n/a	catFR1	1	R1486J
967.082	0.917	1279551	WORD_OFF	n/a	n/a	LINEN	Fabric	3	7	[0, 0, 0]	n/a	catFR1	1	R1486J
967.999	1.6	1280468	WORD	n/a	wordpools/wordpool_categorized_EN.txt	WOOL	Fabric	4	7	[0, 0, 0]	n/a	catFR1	1	R1486J
969.599	0.966	1282069	WORD_OFF	n/a	n/a	WOOL	Fabric	4	7	[0, 0, 0]	n/a	catFR1	1	R1486J
970.565	1.6	1283031	WORD	n/a	wordpools/wordpool_categorized_EN.txt	CEILING	Building	5	7	[0, 0, 0]	n/a	catFR1	1	R1486J
972.166	0.933	1284631	WORD_OFF	n/a	n/a	CEILING	Building	5	7	[0, 0, 0]	n/a	catFR1	1	R1486J
973.099	1.6	1285563	WORD	n/a	wordpools/wordpool_categorized_EN.txt	ROOM	Building	6	7	[0, 0, 0]	n/a	catFR1	1	R1486J
974.699	0.767	1287164	WORD_OFF	n/a	n/a	ROOM	Building	6	7	[0, 0, 0]	n/a	catFR1	1	R1486J
975.466	1.6	1287931	WORD	n/a	wordpools/wordpool_categorized_EN.txt	FLEECE	Fabric	7	7	[0, 0, 0]	n/a	catFR1	1	R1486J
977.083	0.766	1289546	WORD_OFF	n/a	n/a	FLEECE	Fabric	7	7	[0, 0, 0]	n/a	catFR1	1	R1486J
977.849	1.6	1290313	WORD	n/a	wordpools/wordpool_categorized_EN.txt	SATIN	Fabric	8	7	[0, 0, 0]	n/a	catFR1	1	R1486J
979.449	0.95	1291914	WORD_OFF	n/a	n/a	SATIN	Fabric	8	7	[0, 0, 0]	n/a	catFR1	1	R1486J
980.399	1.6	1292868	WORD	n/a	wordpools/wordpool_categorized_EN.txt	FLOOR	Building	9	7	[0, 0, 0]	n/a	catFR1	1	R1486J
982.014	0.968	1294484	WORD_OFF	n/a	n/a	FLOOR	Building	9	7	[0, 0, 0]	n/a	catFR1	1	R1486J
982.982	1.6	1295446	WORD	n/a	wordpools/wordpool_categorized_EN.txt	DOOR	Building	10	7	[0, 0, 0]	n/a	catFR1	1	R1486J
984.583	0.95	1297046	WORD_OFF	n/a	n/a	DOOR	Building	10	7	[0, 0, 0]	n/a	catFR1	1	R1486J
985.533	1.6	1298001	WORD	n/a	wordpools/wordpool_categorized_EN.txt	DESK	Furniture	11	7	[0, 0, 0]	n/a	catFR1	1	R1486J
987.149	0.917	1299617	WORD_OFF	n/a	n/a	DESK	Furniture	11	7	[0, 0, 0]	n/a	catFR1	1	R1486J
988.066	1.6	1300533	WORD	n/a	wordpools/wordpool_categorized_EN.txt	RECLINER	Furniture	12	7	[0, 0, 0]	n/a	catFR1	1	R1486J
989.667	0.001	1302130	PROB	3.916	n/a	n/a	n/a	-999	7	[2, 6, 6]	14.0	catFR1	1	R1486J
989.668	0.0	1302131	START	n/a	n/a	n/a	n/a	-999	7	[-999, -999, -999]	n/a	catFR1	1	R1486J
989.665	0.003	1302134	WORD_OFF	n/a	n/a	RECLINER	Furniture	12	7	[0, 0, 0]	n/a	catFR1	1	R1486J
989.668	0.0	1302134	ENCODING_END	n/a	n/a	n/a	n/a	-999	7	[0, 0, 0]	n/a	catFR1	1	R1486J
989.668	3.932	1302134	DISTRACT_START	n/a	n/a	n/a	n/a	-999	7	[0, 0, 0]	n/a	catFR1	1	R1486J
993.6	2.433	1306063	PROB	2.416	n/a	n/a	n/a	-999	7	[8, 1, 2]	11.0	catFR1	1	R1486J
996.033	5.399	1308496	PROB	5.383	n/a	n/a	n/a	-999	7	[3, 3, 5]	11.0	catFR1	1	R1486J
1001.432	3.784	1313894	PROB	3.767	n/a	n/a	n/a	-999	7	[5, 8, 8]	21.0	catFR1	1	R1486J
1005.216	3.966	1317678	PROB	3.95	n/a	n/a	n/a	-999	7	[8, 4, 6]	18.0	catFR1	1	R1486J
1009.182	2.783	1321644	PROB	2.766	n/a	n/a	n/a	-999	7	[1, 2, 6]	9.0	catFR1	1	R1486J
1011.965	0.0	1324427	STOP	n/a	n/a	n/a	n/a	-999	7	[-999, -999, -999]	n/a	catFR1	1	R1486J
1011.965	2.184	1324432	DISTRACT_END	n/a	n/a	n/a	n/a	-999	7	[0, 0, 0]	n/a	catFR1	1	R1486J
1014.149	0.044	1326611	REC_START	n/a	n/a	n/a	n/a	-999	7	[0, 0, 0]	n/a	catFR1	1	R1486J
1014.193	0.853	1326655	REC_WORD	0.044	n/a	RECLINER	Furniture	12	7	[0, 0, 0]	n/a	catFR1	1	R1486J
1015.046	1.571	1327508	REC_WORD	0.897	n/a	DRESSER	Furniture	1	7	[0, 0, 0]	n/a	catFR1	1	R1486J
1016.617	0.632	1329079	REC_WORD	2.468	n/a	CEILING	Building	5	7	[0, 0, 0]	n/a	catFR1	1	R1486J
1017.249	1.913	1329711	REC_WORD	3.1	n/a	FLOOR	Building	9	7	[0, 0, 0]	n/a	catFR1	1	R1486J
1019.162	0.391	1331624	REC_WORD_VV	5.013	n/a	<>	n/a	-999	7	[0, 0, 0]	n/a	catFR1	1	R1486J
1019.553	3.022	1332015	REC_WORD	5.404	n/a	LINEN	Fabric	3	7	[0, 0, 0]	n/a	catFR1	1	R1486J
1022.575	3.048	1335037	REC_WORD	8.426	n/a	WOOL	Fabric	4	7	[0, 0, 0]	n/a	catFR1	1	R1486J
1025.623	8.36	1338085	REC_WORD_VV	11.474	n/a	<>	n/a	-999	7	[0, 0, 0]	n/a	catFR1	1	R1486J
1033.983	5.802	1346444	REC_WORD_VV	19.834	n/a	<>	n/a	-999	7	[0, 0, 0]	n/a	catFR1	1	R1486J
1039.785	4.082	1352246	REC_WORD	25.636	n/a	FLEECE	Fabric	7	7	[0, 0, 0]	n/a	catFR1	1	R1486J
1043.867	0.516	1356328	REC_WORD_VV	29.718	n/a	<>	n/a	-999	7	[0, 0, 0]	n/a	catFR1	1	R1486J
1044.383	4.266	1356844	REC_END	n/a	n/a	n/a	n/a	-999	7	[0, 0, 0]	n/a	catFR1	1	R1486J
1048.649	10.0	1361113	COUNTDOWN_START	n/a	n/a	n/a	n/a	-999	8	[0, 0, 0]	n/a	catFR1	1	R1486J
1058.999	0.0	1371461	COUNTDOWN_END	n/a	n/a	n/a	n/a	-999	8	[0, 0, 0]	n/a	catFR1	1	R1486J
1058.999	2.167	1371461	ENCODING_START	n/a	n/a	n/a	n/a	-999	8	[0, 0, 0]	n/a	catFR1	1	R1486J
1061.166	1.6	1373633	WORD	n/a	wordpools/wordpool_categorized_EN.txt	SUNFLOWER	Flowers	1	8	[0, 0, 0]	n/a	catFR1	1	R1486J
1062.766	0.866	1375226	WORD_OFF	n/a	n/a	SUNFLOWER	Flowers	1	8	[0, 0, 0]	n/a	catFR1	1	R1486J
1063.632	1.6	1376098	WORD	n/a	wordpools/wordpool_categorized_EN.txt	DAFFODIL	Flowers	2	8	[0, 0, 0]	n/a	catFR1	1	R1486J
1065.232	0.867	1377699	WORD_OFF	n/a	n/a	DAFFODIL	Flowers	2	8	[0, 0, 0]	n/a	catFR1	1	R1486J
1066.099	1.6	1378563	WORD	n/a	wordpools/wordpool_categorized_EN.txt	NYLON	Fabric	3	8	[0, 0, 0]	n/a	catFR1	1	R1486J
1067.716	0.783	1380179	WORD_OFF	n/a	n/a	NYLON	Fabric	3	8	[0, 0, 0]	n/a	catFR1	1	R1486J
1068.499	1.6	1380961	WORD	n/a	wordpools/wordpool_categorized_EN.txt	VELVET	Fabric	4	8	[0, 0, 0]	n/a	catFR1	1	R1486J
1070.099	0.834	1382561	WORD_OFF	n/a	n/a	VELVET	Fabric	4	8	[0, 0, 0]	n/a	catFR1	1	R1486J
1070.933	1.6	1383395	WORD	n/a	wordpools/wordpool_categorized_EN.txt	PLUM	Fruit	5	8	[0, 0, 0]	n/a	catFR1	1	R1486J
1072.548	0.868	1385011	WORD_OFF	n/a	n/a	PLUM	Fruit	5	8	[0, 0, 0]	n/a	catFR1	1	R1486J
1073.416	1.6	1385875	WORD	n/a	wordpools/wordpool_categorized_EN.txt	ORANGE	Fruit	6	8	[0, 0, 0]	n/a	catFR1	1	R1486J
1075.016	0.95	1387476	WORD_OFF	n/a	n/a	ORANGE	Fruit	6	8	[0, 0, 0]	n/a	catFR1	1	R1486J
1075.966	1.6	1388431	WORD	n/a	wordpools/wordpool_categorized_EN.txt	CARNATION	Flowers	7	8	[0, 0, 0]	n/a	catFR1	1	R1486J
1077.582	0.984	1390046	WORD_OFF	n/a	n/a	CARNATION	Flowers	7	8	[0, 0, 0]	n/a	catFR1	1	R1486J
1078.566	1.6	1391031	WORD	n/a	wordpools/wordpool_categorized_EN.txt	VIOLET	Flowers	8	8	[0, 0, 0]	n/a	catFR1	1	R1486J
1080.166	0.983	1392632	WORD_OFF	n/a	n/a	VIOLET	Flowers	8	8	[0, 0, 0]	n/a	catFR1	1	R1486J
1081.149	1.6	1393609	WORD	n/a	wordpools/wordpool_categorized_EN.txt	SUEDE	Fabric	9	8	[0, 0, 0]	n/a	catFR1	1	R1486J
1082.749	0.817	1395209	WORD_OFF	n/a	n/a	SUEDE	Fabric	9	8	[0, 0, 0]	n/a	catFR1	1	R1486J
1083.566	1.6	1396028	WORD	n/a	wordpools/wordpool_categorized_EN.txt	LEATHER	Fabric	10	8	[0, 0, 0]	n/a	catFR1	1	R1486J
1085.166	0.915	1397629	WORD_OFF	n/a	n/a	LEATHER	Fabric	10	8	[0, 0, 0]	n/a	catFR1	1	R1486J
1086.081	1.6	1398546	WORD	n/a	wordpools/wordpool_categorized_EN.txt	PEAR	Fruit	11	8	[0, 0, 0]	n/a	catFR1	1	R1486J
1087.682	0.951	1400147	WORD_OFF	n/a	n/a	PEAR	Fruit	11	8	[0, 0, 0]	n/a	catFR1	1	R1486J
1088.633	1.6	1401094	WORD	n/a	wordpools/wordpool_categorized_EN.txt	STRAWBERRY	Fruit	12	8	[0, 0, 0]	n/a	catFR1	1	R1486J
1090.233	0.0	1402692	PROB	5.9	n/a	n/a	n/a	-999	8	[1, 1, 7]	9.0	catFR1	1	R1486J
1090.232	0.004	1402694	WORD_OFF	n/a	n/a	STRAWBERRY	Fruit	12	8	[0, 0, 0]	n/a	catFR1	1	R1486J
1090.236	0.0	1402694	ENCODING_END	n/a	n/a	n/a	n/a	-999	8	[0, 0, 0]	n/a	catFR1	1	R1486J
1090.236	0.0	1402695	START	n/a	n/a	n/a	n/a	-999	8	[-999, -999, -999]	n/a	catFR1	1	R1486J
1090.236	5.914	1402702	DISTRACT_START	n/a	n/a	n/a	n/a	-999	8	[0, 0, 0]	n/a	catFR1	1	R1486J
1096.15	3.433	1408609	PROB	3.416	n/a	n/a	n/a	-999	8	[2, 3, 8]	13.0	catFR1	1	R1486J
1099.583	2.417	1412041	PROB	2.399	n/a	n/a	n/a	-999	8	[8, 2, 1]	11.0	catFR1	1	R1486J
1102.0	9.481	1414458	PROB	9.465	n/a	n/a	n/a	-999	8	[5, 7, 7]	19.0	catFR1	1	R1486J
1111.481	0.0	1423939	STOP	n/a	n/a	n/a	n/a	-999	8	[-999, -999, -999]	n/a	catFR1	1	R1486J
1111.481	2.2	1423940	DISTRACT_END	n/a	n/a	n/a	n/a	-999	8	[0, 0, 0]	n/a	catFR1	1	R1486J
1113.681	0.135	1426142	REC_START	n/a	n/a	n/a	n/a	-999	8	[0, 0, 0]	n/a	catFR1	1	R1486J
1113.816	2.271	1426274	REC_WORD	0.135	n/a	DAFFODIL	Flowers	2	8	[0, 0, 0]	n/a	catFR1	1	R1486J
1116.087	1.718	1428545	REC_WORD_VV	2.406	n/a	<>	n/a	-999	8	[0, 0, 0]	n/a	catFR1	1	R1486J
1117.805	26.073	1430263	REC_WORD	4.124	n/a	LILY	n/a	-999	8	[0, 0, 0]	n/a	catFR1	1	R1486J
1143.878	4.155	1456337	REC_END	n/a	n/a	n/a	n/a	-999	8	[0, 0, 0]	n/a	catFR1	1	R1486J
1148.033	10.0	1460493	COUNTDOWN_START	n/a	n/a	n/a	n/a	-999	9	[0, 0, 0]	n/a	catFR1	1	R1486J
1158.382	0.0	1470842	COUNTDOWN_END	n/a	n/a	n/a	n/a	-999	9	[0, 0, 0]	n/a	catFR1	1	R1486J
1158.382	1.951	1470842	ENCODING_START	n/a	n/a	n/a	n/a	-999	9	[0, 0, 0]	n/a	catFR1	1	R1486J
1160.333	1.6	1472788	WORD	n/a	wordpools/wordpool_categorized_EN.txt	THUNDERSTORM	Weather	1	9	[0, 0, 0]	n/a	catFR1	1	R1486J
1161.949	0.883	1474411	WORD_OFF	n/a	n/a	THUNDERSTORM	Weather	1	9	[0, 0, 0]	n/a	catFR1	1	R1486J
1162.832	1.6	1475291	WORD	n/a	wordpools/wordpool_categorized_EN.txt	FOG	Weather	2	9	[0, 0, 0]	n/a	catFR1	1	R1486J
1164.449	0.767	1476906	WORD_OFF	n/a	n/a	FOG	Weather	2	9	[0, 0, 0]	n/a	catFR1	1	R1486J
1165.216	1.6	1477673	WORD	n/a	wordpools/wordpool_categorized_EN.txt	SCREWDRIVER	Tools	3	9	[0, 0, 0]	n/a	catFR1	1	R1486J
1166.832	0.784	1479289	WORD_OFF	n/a	n/a	SCREWDRIVER	Tools	3	9	[0, 0, 0]	n/a	catFR1	1	R1486J
1167.616	1.6	1480078	WORD	n/a	wordpools/wordpool_categorized_EN.txt	WRENCH	Tools	4	9	[0, 0, 0]	n/a	catFR1	1	R1486J
1169.233	0.983	1481694	WORD_OFF	n/a	n/a	WRENCH	Tools	4	9	[0, 0, 0]	n/a	catFR1	1	R1486J
1170.216	1.6	1482678	WORD	n/a	wordpools/wordpool_categorized_EN.txt	PIE	Desserts	5	9	[0, 0, 0]	n/a	catFR1	1	R1486J
1171.816	0.95	1484271	WORD_OFF	n/a	n/a	PIE	Desserts	5	9	[0, 0, 0]	n/a	catFR1	1	R1486J
1172.766	1.6	1485226	WORD	n/a	wordpools/wordpool_categorized_EN.txt	MOUSSE	Desserts	6	9	[0, 0, 0]	n/a	catFR1	1	R1486J
1174.383	0.966	1486841	WORD_OFF	n/a	n/a	MOUSSE	Desserts	6	9	[0, 0, 0]	n/a	catFR1	1	R1486J
1175.349	1.6	1487811	WORD	n/a	wordpools/wordpool_categorized_EN.txt	THUNDER	Weather	7	9	[0, 0, 0]	n/a	catFR1	1	R1486J
1176.949	0.834	1489404	WORD_OFF	n/a	n/a	THUNDER	Weather	7	9	[0, 0, 0]	n/a	catFR1	1	R1486J
1177.783	1.6	1490238	WORD	n/a	wordpools/wordpool_categorized_EN.txt	WIND	Weather	8	9	[0, 0, 0]	n/a	catFR1	1	R1486J
1179.399	0.817	1491854	WORD_OFF	n/a	n/a	WIND	Weather	8	9	[0, 0, 0]	n/a	catFR1	1	R1486J
1180.216	1.6	1492673	WORD	n/a	wordpools/wordpool_categorized_EN.txt	COOKIE	Desserts	9	9	[0, 0, 0]	n/a	catFR1	1	R1486J
1181.832	0.801	1494289	WORD_OFF	n/a	n/a	COOKIE	Desserts	9	9	[0, 0, 0]	n/a	catFR1	1	R1486J
1182.633	1.6	1495093	WORD	n/a	wordpools/wordpool_categorized_EN.txt	PASTRY	Desserts	10	9	[0, 0, 0]	n/a	catFR1	1	R1486J
1184.249	0.883	1496709	WORD_OFF	n/a	n/a	PASTRY	Desserts	10	9	[0, 0, 0]	n/a	catFR1	1	R1486J
1185.132	1.6	1497588	WORD	n/a	wordpools/wordpool_categorized_EN.txt	DRILL	Tools	11	9	[0, 0, 0]	n/a	catFR1	1	R1486J
1186.733	0.9	1499189	WORD_OFF	n/a	n/a	DRILL	Tools	11	9	[0, 0, 0]	n/a	catFR1	1	R1486J
1187.633	1.6	1500091	WORD	n/a	wordpools/wordpool_categorized_EN.txt	RATCHET	Tools	12	9	[0, 0, 0]	n/a	catFR1	1	R1486J
1189.233	0.001	1501688	PROB	5.249	n/a	n/a	n/a	-999	9	[1, 6, 7]	14.0	catFR1	1	R1486J
1189.234	0.0	1501689	START	n/a	n/a	n/a	n/a	-999	9	[-999, -999, -999]	n/a	catFR1	1	R1486J
1189.232	0.002	1501691	WORD_OFF	n/a	n/a	RATCHET	Tools	12	9	[0, 0, 0]	n/a	catFR1	1	R1486J
1189.234	0.0	1501691	ENCODING_END	n/a	n/a	n/a	n/a	-999	9	[0, 0, 0]	n/a	catFR1	1	R1486J
1189.234	5.265	1501699	DISTRACT_START	n/a	n/a	n/a	n/a	-999	9	[0, 0, 0]	n/a	catFR1	1	R1486J
1194.499	3.1	1506953	PROB	3.082	n/a	n/a	n/a	-999	9	[3, 4, 1]	8.0	catFR1	1	R1486J
1197.599	2.184	1510053	PROB	2.166	n/a	n/a	n/a	-999	9	[1, 5, 5]	11.0	catFR1	1	R1486J
1199.783	3.05	1512237	PROB	3.033	n/a	n/a	n/a	-999	9	[7, 3, 7]	17.0	catFR1	1	R1486J
1202.833	10.616	1515287	PROB	10.599	n/a	n/a	n/a	-999	9	[1, 2, 3]	6.0	catFR1	1	R1486J
1213.449	0.0	1525903	STOP	n/a	n/a	n/a	n/a	-999	9	[-999, -999, -999]	n/a	catFR1	1	R1486J
1213.449	2.232	1525905	DISTRACT_END	n/a	n/a	n/a	n/a	-999	9	[0, 0, 0]	n/a	catFR1	1	R1486J
1215.681	0.0	1528135	REC_WORD	0.0	n/a	THUNDERSTORM	Weather	1	9	[0, 0, 0]	n/a	catFR1	1	R1486J
1215.681	1.227	1528138	REC_START	n/a	n/a	n/a	n/a	-999	9	[0, 0, 0]	n/a	catFR1	1	R1486J
1216.908	1.376	1529362	REC_WORD	1.227	n/a	CLOUD	n/a	-999	9	[0, 0, 0]	n/a	catFR1	1	R1486J
1218.284	2.048	1530738	REC_WORD	2.603	n/a	WIND	Weather	8	9	[0, 0, 0]	n/a	catFR1	1	R1486J
1220.332	2.47	1532785	REC_WORD_VV	4.651	n/a	<>	n/a	-999	9	[0, 0, 0]	n/a	catFR1	1	R1486J
1222.802	0.846	1535255	REC_WORD	7.121	n/a	DRILL	Tools	11	9	[0, 0, 0]	n/a	catFR1	1	R1486J
1223.648	2.45	1536101	REC_WORD	7.967	n/a	SCREWDRIVER	Tools	3	9	[0, 0, 0]	n/a	catFR1	1	R1486J
1226.098	1.909	1538551	REC_WORD	10.417	n/a	MOUSSE	Desserts	6	9	[0, 0, 0]	n/a	catFR1	1	R1486J
1228.007	0.608	1540460	REC_WORD_VV	12.326	n/a	<>	n/a	-999	9	[0, 0, 0]	n/a	catFR1	1	R1486J
1228.615	5.0	1541068	REC_WORD	12.934	n/a	MOUSSE	Desserts	6	9	[0, 0, 0]	n/a	catFR1	1	R1486J
1233.615	8.503	1546068	REC_WORD_VV	17.934	n/a	<>	n/a	-999	9	[0, 0, 0]	n/a	catFR1	1	R1486J
1242.118	3.781	1554571	REC_WORD	26.437	n/a	MOUSSE	Desserts	6	9	[0, 0, 0]	n/a	catFR1	1	R1486J
1245.899	39.132	1558356	REC_END	n/a	n/a	n/a	n/a	-999	9	[0, 0, 0]	n/a	catFR1	1	R1486J
1285.031	10.0	1597487	COUNTDOWN_START	n/a	n/a	n/a	n/a	-999	10	[0, 0, 0]	n/a	catFR1	1	R1486J
1295.382	0.0	1607835	COUNTDOWN_END	n/a	n/a	n/a	n/a	-999	10	[0, 0, 0]	n/a	catFR1	1	R1486J
1295.382	2.184	1607835	ENCODING_START	n/a	n/a	n/a	n/a	-999	10	[0, 0, 0]	n/a	catFR1	1	R1486J
1297.566	1.6	1610022	WORD	n/a	wordpools/wordpool_categorized_EN.txt	WILLOW	Trees	1	10	[0, 0, 0]	n/a	catFR1	1	R1486J
1299.166	0.815	1611623	WORD_OFF	n/a	n/a	WILLOW	Trees	1	10	[0, 0, 0]	n/a	catFR1	1	R1486J
1299.981	1.6	1612435	WORD	n/a	wordpools/wordpool_categorized_EN.txt	CYPRESS	Trees	2	10	[0, 0, 0]	n/a	catFR1	1	R1486J
1301.582	0.9	1614035	WORD_OFF	n/a	n/a	CYPRESS	Trees	2	10	[0, 0, 0]	n/a	catFR1	1	R1486J
1302.482	1.6	1614937	WORD	n/a	wordpools/wordpool_categorized_EN.txt	SILK	Fabric	3	10	[0, 0, 0]	n/a	catFR1	1	R1486J
1304.082	0.801	1616538	WORD_OFF	n/a	n/a	SILK	Fabric	3	10	[0, 0, 0]	n/a	catFR1	1	R1486J
1304.883	1.6	1617334	WORD	n/a	wordpools/wordpool_categorized_EN.txt	COTTON	Fabric	4	10	[0, 0, 0]	n/a	catFR1	1	R1486J
1306.499	0.882	1618950	WORD_OFF	n/a	n/a	COTTON	Fabric	4	10	[0, 0, 0]	n/a	catFR1	1	R1486J
1307.381	1.6	1619837	WORD	n/a	wordpools/wordpool_categorized_EN.txt	SLINKY	Toys	5	10	[0, 0, 0]	n/a	catFR1	1	R1486J
1308.982	0.982	1621438	WORD_OFF	n/a	n/a	SLINKY	Toys	5	10	[0, 0, 0]	n/a	catFR1	1	R1486J
1309.964	1.6	1622415	WORD	n/a	wordpools/wordpool_categorized_EN.txt	DOLLHOUSE	Toys	6	10	[0, 0, 0]	n/a	catFR1	1	R1486J
1311.565	0.8	1624015	WORD_OFF	n/a	n/a	DOLLHOUSE	Toys	6	10	[0, 0, 0]	n/a	catFR1	1	R1486J
1312.365	1.6	1624820	WORD	n/a	wordpools/wordpool_categorized_EN.txt	OAK	Trees	7	10	[0, 0, 0]	n/a	catFR1	1	R1486J
1313.965	0.883	1626420	WORD_OFF	n/a	n/a	OAK	Trees	7	10	[0, 0, 0]	n/a	catFR1	1	R1486J
1314.848	1.6	1627300	WORD	n/a	wordpools/wordpool_categorized_EN.txt	SPRUCE	Trees	8	10	[0, 0, 0]	n/a	catFR1	1	R1486J
1316.449	0.899	1628900	WORD_OFF	n/a	n/a	SPRUCE	Trees	8	10	[0, 0, 0]	n/a	catFR1	1	R1486J
1317.348	1.6	1629802	WORD	n/a	wordpools/wordpool_categorized_EN.txt	SPANDEX	Fabric	9	10	[0, 0, 0]	n/a	catFR1	1	R1486J
1318.948	0.816	1631403	WORD_OFF	n/a	n/a	SPANDEX	Fabric	9	10	[0, 0, 0]	n/a	catFR1	1	R1486J
1319.764	1.6	1632214	WORD	n/a	wordpools/wordpool_categorized_EN.txt	DENIM	Fabric	10	10	[0, 0, 0]	n/a	catFR1	1	R1486J
1321.364	0.917	1633815	WORD_OFF	n/a	n/a	DENIM	Fabric	10	10	[0, 0, 0]	n/a	catFR1	1	R1486J
1322.281	1.6	1634732	WORD	n/a	wordpools/wordpool_categorized_EN.txt	MARBLES	Toys	11	10	[0, 0, 0]	n/a	catFR1	1	R1486J
1323.881	0.85	1636333	WORD_OFF	n/a	n/a	MARBLES	Toys	11	10	[0, 0, 0]	n/a	catFR1	1	R1486J
1324.731	1.6	1637182	WORD	n/a	wordpools/wordpool_categorized_EN.txt	BARBIE	Toys	12	10	[0, 0, 0]	n/a	catFR1	1	R1486J
1326.347	0.0	1638796	PROB	6.733	n/a	n/a	n/a	-999	10	[3, 5, 2]	10.0	catFR1	1	R1486J
1326.347	0.002	1638798	WORD_OFF	n/a	n/a	BARBIE	Toys	12	10	[0, 0, 0]	n/a	catFR1	1	R1486J
1326.349	0.0	1638798	ENCODING_END	n/a	n/a	n/a	n/a	-999	10	[0, 0, 0]	n/a	catFR1	1	R1486J
1326.349	0.0	1638798	START	n/a	n/a	n/a	n/a	-999	10	[-999, -999, -999]	n/a	catFR1	1	R1486J
1326.349	6.751	1638805	DISTRACT_START	n/a	n/a	n/a	n/a	-999	10	[0, 0, 0]	n/a	catFR1	1	R1486J
1333.1	3.682	1645549	PROB	3.666	n/a	n/a	n/a	-999	10	[4, 5, 7]	16.0	catFR1	1	R1486J
1336.782	2.948	1649231	PROB	2.932	n/a	n/a	n/a	-999	10	[7, 4, 1]	12.0	catFR1	1	R1486J
1339.73	3.417	1652178	PROB	3.401	n/a	n/a	n/a	-999	10	[8, 3, 1]	12.0	catFR1	1	R1486J
1343.147	1.885	1655595	PROB	1.867	n/a	n/a	n/a	-999	10	[1, 1, 1]	3.0	catFR1	1	R1486J
1345.032	4.966	1657480	PROB	4.949	n/a	n/a	n/a	-999	10	[7, 8, 8]	23.0	catFR1	1	R1486J
1349.998	0.0	1662446	STOP	n/a	n/a	n/a	n/a	-999	10	[-999, -999, -999]	n/a	catFR1	1	R1486J
1349.998	2.183	1662448	DISTRACT_END	n/a	n/a	n/a	n/a	-999	10	[0, 0, 0]	n/a	catFR1	1	R1486J
1352.181	0.775	1664635	REC_START	n/a	n/a	n/a	n/a	-999	10	[0, 0, 0]	n/a	catFR1	1	R1486J
1352.956	0.65	1665404	REC_WORD	0.775	n/a	OAK	Trees	7	10	[0, 0, 0]	n/a	catFR1	1	R1486J
1353.606	2.608	1666054	REC_WORD	1.425	n/a	SPRUCE	Trees	8	10	[0, 0, 0]	n/a	catFR1	1	R1486J
1356.214	2.219	1668662	REC_WORD_VV	4.033	n/a	<>	n/a	-999	10	[0, 0, 0]	n/a	catFR1	1	R1486J
1358.433	0.771	1670881	REC_WORD	6.252	n/a	SILK	Fabric	3	10	[0, 0, 0]	n/a	catFR1	1	R1486J
1359.204	9.887	1671652	REC_WORD	7.023	n/a	SLINKY	Toys	5	10	[0, 0, 0]	n/a	catFR1	1	R1486J
1369.091	3.367	1681538	REC_WORD	16.91	n/a	WOOL	Fabric	-999	10	[0, 0, 0]	n/a	catFR1	1	R1486J
1372.458	7.485	1684905	REC_WORD_VV	20.277	n/a	<>	n/a	-999	10	[0, 0, 0]	n/a	catFR1	1	R1486J
1379.943	0.52	1692390	REC_WORD_VV	27.762	n/a	<>	n/a	-999	10	[0, 0, 0]	n/a	catFR1	1	R1486J
1380.463	1.943	1692910	REC_WORD_VV	28.282	n/a	<>	n/a	-999	10	[0, 0, 0]	n/a	catFR1	1	R1486J
1382.406	9.127	1694853	REC_END	n/a	n/a	n/a	n/a	-999	10	[0, 0, 0]	n/a	catFR1	1	R1486J
1391.533	10.0	1703984	COUNTDOWN_START	n/a	n/a	n/a	n/a	-999	11	[0, 0, 0]	n/a	catFR1	1	R1486J
1401.881	0.0	1714332	COUNTDOWN_END	n/a	n/a	n/a	n/a	-999	11	[0, 0, 0]	n/a	catFR1	1	R1486J
1401.881	2.283	1714332	ENCODING_START	n/a	n/a	n/a	n/a	-999	11	[0, 0, 0]	n/a	catFR1	1	R1486J
1404.164	1.6	1716617	WORD	n/a	wordpools/wordpool_categorized_EN.txt	PIG	FarmAnimals	1	11	[0, 0, 0]	n/a	catFR1	1	R1486J
1405.765	0.799	1718210	WORD_OFF	n/a	n/a	PIG	FarmAnimals	1	11	[0, 0, 0]	n/a	catFR1	1	R1486J
1406.564	1.6	1719014	WORD	n/a	wordpools/wordpool_categorized_EN.txt	SHEEP	FarmAnimals	2	11	[0, 0, 0]	n/a	catFR1	1	R1486J
1408.165	0.884	1720615	WORD_OFF	n/a	n/a	SHEEP	FarmAnimals	2	11	[0, 0, 0]	n/a	catFR1	1	R1486J
1409.049	1.6	1721494	WORD	n/a	wordpools/wordpool_categorized_EN.txt	HALLWAY	Building	3	11	[0, 0, 0]	n/a	catFR1	1	R1486J
1410.665	0.816	1723118	WORD_OFF	n/a	n/a	HALLWAY	Building	3	11	[0, 0, 0]	n/a	catFR1	1	R1486J
1411.481	1.6	1723929	WORD	n/a	wordpools/wordpool_categorized_EN.txt	ROOF	Building	4	11	[0, 0, 0]	n/a	catFR1	1	R1486J
1413.081	1.0	1725530	WORD_OFF	n/a	n/a	ROOF	Building	4	11	[0, 0, 0]	n/a	catFR1	1	R1486J
1414.081	1.6	1726530	WORD	n/a	wordpools/wordpool_categorized_EN.txt	BOOKCASE	Furniture	5	11	[0, 0, 0]	n/a	catFR1	1	R1486J
1415.698	0.949	1728145	WORD_OFF	n/a	n/a	BOOKCASE	Furniture	5	11	[0, 0, 0]	n/a	catFR1	1	R1486J
1416.647	1.6	1729092	WORD	n/a	wordpools/wordpool_categorized_EN.txt	BED	Furniture	6	11	[0, 0, 0]	n/a	catFR1	1	R1486J
1418.248	0.817	1730700	WORD_OFF	n/a	n/a	BED	Furniture	6	11	[0, 0, 0]	n/a	catFR1	1	R1486J
1419.065	1.6	1731512	WORD	n/a	wordpools/wordpool_categorized_EN.txt	WINDOW	Building	7	11	[0, 0, 0]	n/a	catFR1	1	R1486J
1420.681	0.833	1733128	WORD_OFF	n/a	n/a	WINDOW	Building	7	11	[0, 0, 0]	n/a	catFR1	1	R1486J
1421.514	1.6	1733962	WORD	n/a	wordpools/wordpool_categorized_EN.txt	BATHROOM	Building	8	11	[0, 0, 0]	n/a	catFR1	1	R1486J
1423.114	0.767	1735563	WORD_OFF	n/a	n/a	BATHROOM	Building	8	11	[0, 0, 0]	n/a	catFR1	1	R1486J
1423.881	1.6	1736329	WORD	n/a	wordpools/wordpool_categorized_EN.txt	CABINET	Furniture	9	11	[0, 0, 0]	n/a	catFR1	1	R1486J
1425.482	0.883	1737930	WORD_OFF	n/a	n/a	CABINET	Furniture	9	11	[0, 0, 0]	n/a	catFR1	1	R1486J
1426.365	1.6	1738809	WORD	n/a	wordpools/wordpool_categorized_EN.txt	NIGHTSTAND	Furniture	10	11	[0, 0, 0]	n/a	catFR1	1	R1486J
1427.965	0.783	1740410	WORD_OFF	n/a	n/a	NIGHTSTAND	Furniture	10	11	[0, 0, 0]	n/a	catFR1	1	R1486J
1428.748	1.6	1741199	WORD	n/a	wordpools/wordpool_categorized_EN.txt	LAMB	FarmAnimals	11	11	[0, 0, 0]	n/a	catFR1	1	R1486J
1430.348	0.984	1742800	WORD_OFF	n/a	n/a	LAMB	FarmAnimals	11	11	[0, 0, 0]	n/a	catFR1	1	R1486J
1431.332	1.6	1743784	WORD	n/a	wordpools/wordpool_categorized_EN.txt	HORSE	FarmAnimals	12	11	[0, 0, 0]	n/a	catFR1	1	R1486J
1432.948	0.002	1745393	PROB	4.716	n/a	n/a	n/a	-999	11	[5, 3, 6]	14.0	catFR1	1	R1486J
1432.95	0.0	1745395	START	n/a	n/a	n/a	n/a	-999	11	[-999, -999, -999]	n/a	catFR1	1	R1486J
1432.949	0.001	1745400	WORD_OFF	n/a	n/a	HORSE	FarmAnimals	12	11	[0, 0, 0]	n/a	catFR1	1	R1486J
1432.95	0.0	1745400	ENCODING_END	n/a	n/a	n/a	n/a	-999	11	[0, 0, 0]	n/a	catFR1	1	R1486J
1432.95	4.731	1745400	DISTRACT_START	n/a	n/a	n/a	n/a	-999	11	[0, 0, 0]	n/a	catFR1	1	R1486J
1437.681	3.617	1750125	PROB	3.6	n/a	n/a	n/a	-999	11	[8, 8, 4]	20.0	catFR1	1	R1486J
1441.298	3.3	1753742	PROB	3.283	n/a	n/a	n/a	-999	11	[3, 8, 7]	18.0	catFR1	1	R1486J
1444.598	3.45	1757042	PROB	3.432	n/a	n/a	n/a	-999	11	[5, 8, 3]	16.0	catFR1	1	R1486J
1448.048	4.1	1760492	PROB	4.084	n/a	n/a	n/a	-999	11	[4, 7, 5]	16.0	catFR1	1	R1486J
1452.148	3.033	1764592	PROB	3.017	n/a	n/a	n/a	-999	11	[1, 5, 7]	13.0	catFR1	1	R1486J
1455.181	0.0	1767625	STOP	n/a	n/a	n/a	n/a	-999	11	[-999, -999, -999]	n/a	catFR1	1	R1486J
1455.181	2.099	1767630	DISTRACT_END	n/a	n/a	n/a	n/a	-999	11	[0, 0, 0]	n/a	catFR1	1	R1486J
1457.28	0.426	1769727	REC_START	n/a	n/a	n/a	n/a	-999	11	[0, 0, 0]	n/a	catFR1	1	R1486J
1457.706	0.638	1770150	REC_WORD	0.426	n/a	BATHROOM	Building	8	11	[0, 0, 0]	n/a	catFR1	1	R1486J
1458.344	1.995	1770788	REC_WORD	1.064	n/a	WINDOW	Building	7	11	[0, 0, 0]	n/a	catFR1	1	R1486J
1460.339	8.862	1772782	REC_WORD_VV	3.059	n/a	<>	n/a	-999	11	[0, 0, 0]	n/a	catFR1	1	R1486J
1469.201	5.078	1781644	REC_WORD_VV	11.921	n/a	<>	n/a	-999	11	[0, 0, 0]	n/a	catFR1	1	R1486J
1474.279	3.795	1786722	REC_WORD	16.999	n/a	PIG	FarmAnimals	1	11	[0, 0, 0]	n/a	catFR1	1	R1486J
1478.074	6.209	1790517	REC_WORD	20.794	n/a	MOOSE	n/a	-999	11	[0, 0, 0]	n/a	catFR1	1	R1486J
1484.283	3.21	1796725	REC_WORD	27.003	n/a	CABINET	Furniture	9	11	[0, 0, 0]	n/a	catFR1	1	R1486J
1487.493	4.173	1799938	REC_END	n/a	n/a	n/a	n/a	-999	11	[0, 0, 0]	n/a	catFR1	1	R1486J
1491.666	10.0	1804116	COUNTDOWN_START	n/a	n/a	n/a	n/a	-999	12	[0, 0, 0]	n/a	catFR1	1	R1486J
1502.014	0.0	1814457	COUNTDOWN_END	n/a	n/a	n/a	n/a	-999	12	[0, 0, 0]	n/a	catFR1	1	R1486J
1502.014	1.968	1814464	ENCODING_START	n/a	n/a	n/a	n/a	-999	12	[0, 0, 0]	n/a	catFR1	1	R1486J
1503.982	1.6	1816426	WORD	n/a	wordpools/wordpool_categorized_EN.txt	COW	FarmAnimals	1	12	[0, 0, 0]	n/a	catFR1	1	R1486J
1505.597	0.934	1818042	WORD_OFF	n/a	n/a	COW	FarmAnimals	1	12	[0, 0, 0]	n/a	catFR1	1	R1486J
1506.531	1.6	1818973	WORD	n/a	wordpools/wordpool_categorized_EN.txt	CHICKEN	FarmAnimals	2	12	[0, 0, 0]	n/a	catFR1	1	R1486J
1508.131	0.868	1820574	WORD_OFF	n/a	n/a	CHICKEN	FarmAnimals	2	12	[0, 0, 0]	n/a	catFR1	1	R1486J
1508.999	1.6	1821446	WORD	n/a	wordpools/wordpool_categorized_EN.txt	TABLE	Furniture	3	12	[0, 0, 0]	n/a	catFR1	1	R1486J
1510.615	0.967	1823062	WORD_OFF	n/a	n/a	TABLE	Furniture	3	12	[0, 0, 0]	n/a	catFR1	1	R1486J
1511.582	1.6	1824024	WORD	n/a	wordpools/wordpool_categorized_EN.txt	CHAIR	Furniture	4	12	[0, 0, 0]	n/a	catFR1	1	R1486J
1513.198	0.883	1825639	WORD_OFF	n/a	n/a	CHAIR	Furniture	4	12	[0, 0, 0]	n/a	catFR1	1	R1486J
1514.081	1.6	1826526	WORD	n/a	wordpools/wordpool_categorized_EN.txt	HURRICANE	Weather	5	12	[0, 0, 0]	n/a	catFR1	1	R1486J
1515.681	0.917	1828127	WORD_OFF	n/a	n/a	HURRICANE	Weather	5	12	[0, 0, 0]	n/a	catFR1	1	R1486J
1516.598	1.6	1829044	WORD	n/a	wordpools/wordpool_categorized_EN.txt	DRIZZLE	Weather	6	12	[0, 0, 0]	n/a	catFR1	1	R1486J
1518.198	1.0	1830644	WORD_OFF	n/a	n/a	DRIZZLE	Weather	6	12	[0, 0, 0]	n/a	catFR1	1	R1486J
1519.198	1.6	1831644	WORD	n/a	wordpools/wordpool_categorized_EN.txt	ROOSTER	FarmAnimals	7	12	[0, 0, 0]	n/a	catFR1	1	R1486J
1520.799	0.799	1833245	WORD_OFF	n/a	n/a	ROOSTER	FarmAnimals	7	12	[0, 0, 0]	n/a	catFR1	1	R1486J
1521.598	1.6	1834041	WORD	n/a	wordpools/wordpool_categorized_EN.txt	CALF	FarmAnimals	8	12	[0, 0, 0]	n/a	catFR1	1	R1486J
1523.199	0.765	1835642	WORD_OFF	n/a	n/a	CALF	FarmAnimals	8	12	[0, 0, 0]	n/a	catFR1	1	R1486J
1523.964	1.6	1836409	WORD	n/a	wordpools/wordpool_categorized_EN.txt	COUCH	Furniture	9	12	[0, 0, 0]	n/a	catFR1	1	R1486J
1525.582	0.766	1838024	WORD_OFF	n/a	n/a	COUCH	Furniture	9	12	[0, 0, 0]	n/a	catFR1	1	R1486J
1526.348	1.6	1838791	WORD	n/a	wordpools/wordpool_categorized_EN.txt	SHELF	Furniture	10	12	[0, 0, 0]	n/a	catFR1	1	R1486J
1527.949	0.833	1840392	WORD_OFF	n/a	n/a	SHELF	Furniture	10	12	[0, 0, 0]	n/a	catFR1	1	R1486J
1528.782	1.6	1841226	WORD	n/a	wordpools/wordpool_categorized_EN.txt	RAIN	Weather	11	12	[0, 0, 0]	n/a	catFR1	1	R1486J
1530.399	0.815	1842842	WORD_OFF	n/a	n/a	RAIN	Weather	11	12	[0, 0, 0]	n/a	catFR1	1	R1486J
1531.214	1.6	1843661	WORD	n/a	wordpools/wordpool_categorized_EN.txt	TORNADO	Weather	12	12	[0, 0, 0]	n/a	catFR1	1	R1486J
1532.814	0.002	1845254	PROB	37.283	n/a	n/a	n/a	-999	12	[8, 5, 1]	14.0	catFR1	1	R1486J
1532.816	0.0	1845256	START	n/a	n/a	n/a	n/a	-999	12	[-999, -999, -999]	n/a	catFR1	1	R1486J
1532.814	0.002	1845261	WORD_OFF	n/a	n/a	TORNADO	Weather	12	12	[0, 0, 0]	n/a	catFR1	1	R1486J
1532.816	0.0	1845261	ENCODING_END	n/a	n/a	n/a	n/a	-999	12	[0, 0, 0]	n/a	catFR1	1	R1486J
1532.816	37.299	1845261	DISTRACT_START	n/a	n/a	n/a	n/a	-999	12	[0, 0, 0]	n/a	catFR1	1	R1486J
1570.115	0.0	1882554	STOP	n/a	n/a	n/a	n/a	-999	12	[-999, -999, -999]	n/a	catFR1	1	R1486J
1570.115	2.032	1882559	DISTRACT_END	n/a	n/a	n/a	n/a	-999	12	[0, 0, 0]	n/a	catFR1	1	R1486J
1572.147	2.897	1884589	REC_START	n/a	n/a	n/a	n/a	-999	12	[0, 0, 0]	n/a	catFR1	1	R1486J
1575.044	1.832	1887483	REC_WORD	2.897	n/a	COW	FarmAnimals	1	12	[0, 0, 0]	n/a	catFR1	1	R1486J
1576.876	2.138	1889315	REC_WORD_VV	4.729	n/a	<>	n/a	-999	12	[0, 0, 0]	n/a	catFR1	1	R1486J
1579.014	3.206	1891453	REC_WORD	6.867	n/a	CHICKEN	FarmAnimals	2	12	[0, 0, 0]	n/a	catFR1	1	R1486J
1582.22	2.352	1894658	REC_WORD_VV	10.073	n/a	<>	n/a	-999	12	[0, 0, 0]	n/a	catFR1	1	R1486J
1584.572	4.826	1897010	REC_WORD_VV	12.425	n/a	<>	n/a	-999	12	[0, 0, 0]	n/a	catFR1	1	R1486J
1589.398	1.059	1901836	REC_WORD	17.251	n/a	RAIN	Weather	11	12	[0, 0, 0]	n/a	catFR1	1	R1486J
1590.457	0.986	1902895	REC_WORD	18.31	n/a	DRIZZLE	Weather	6	12	[0, 0, 0]	n/a	catFR1	1	R1486J
1591.443	1.205	1903881	REC_WORD	19.296	n/a	THUNDERSTORM	Weather	-999	12	[0, 0, 0]	n/a	catFR1	1	R1486J
1592.648	2.397	1905086	REC_WORD	20.501	n/a	THUNDERSTORM	Weather	-999	12	[0, 0, 0]	n/a	catFR1	1	R1486J
1595.045	3.434	1907483	REC_WORD	22.898	n/a	HURRICANE	Weather	5	12	[0, 0, 0]	n/a	catFR1	1	R1486J
1598.479	3.892	1910917	REC_WORD_VV	26.332	n/a	<>	n/a	-999	12	[0, 0, 0]	n/a	catFR1	1	R1486J
1602.371	0.0	1914814	REC_END	n/a	n/a	n/a	n/a	-999	12	[0, 0, 0]	n/a	catFR1	1	R1486J
