onset	duration	sample	trial_type	response_time	stim_file	item_name	category	serialpos	list	test	answer	experiment	session	subject
0.0	0.881	80034	INSTRUCT_START	n/a	n/a	n/a	n/a	-999	-999	[0, 0, 0]	n/a	catFR1	1	R1495J
0.881	23.335	80924	INSTRUCT_END	n/a	n/a	n/a	n/a	-999	-999	[0, 0, 0]	n/a	catFR1	1	R1495J
24.216	10.348	104248	COUNTDOWN_START	n/a	n/a	n/a	n/a	-999	-999	[0, 0, 0]	n/a	catFR1	1	R1495J
34.564	0.0	114601	COUNTDOWN_END	n/a	n/a	n/a	n/a	-999	-999	[0, 0, 0]	n/a	catFR1	1	R1495J
34.564	1.968	114601	ENCODING_START	n/a	n/a	n/a	n/a	-999	-1	[0, 0, 0]	n/a	catFR1	1	R1495J
36.532	1.599	116572	WORD	n/a	n/a	WOOL	Fabric	1	-1	[0, 0, 0]	n/a	catFR1	1	R1495J
38.131	0.767	118162	WORD_OFF	n/a	n/a	WOOL	Fabric	1	-1	[0, 0, 0]	n/a	catFR1	1	R1495J
38.898	1.616	118938	WORD	n/a	n/a	LEATHER	Fabric	2	-1	[0, 0, 0]	n/a	catFR1	1	R1495J
40.514	0.95	120553	WORD_OFF	n/a	n/a	LEATHER	Fabric	2	-1	[0, 0, 0]	n/a	catFR1	1	R1495J
41.464	1.601	121494	WORD	n/a	n/a	FORK	KitchenTools	3	-1	[0, 0, 0]	n/a	catFR1	1	R1495J
43.065	0.915	123096	WORD_OFF	n/a	n/a	FORK	KitchenTools	3	-1	[0, 0, 0]	n/a	catFR1	1	R1495J
43.98	1.618	124012	WORD	n/a	n/a	CORKSCREW	KitchenTools	4	-1	[0, 0, 0]	n/a	catFR1	1	R1495J
45.598	0.801	125627	WORD_OFF	n/a	n/a	CORKSCREW	KitchenTools	4	-1	[0, 0, 0]	n/a	catFR1	1	R1495J
46.399	1.615	126429	WORD	n/a	n/a	BUS	Vehicles	5	-1	[0, 0, 0]	n/a	catFR1	1	R1495J
48.014	0.917	128044	WORD_OFF	n/a	n/a	BUS	Vehicles	5	-1	[0, 0, 0]	n/a	catFR1	1	R1495J
48.931	1.617	128972	WORD	n/a	n/a	PLANE	Vehicles	6	-1	[0, 0, 0]	n/a	catFR1	1	R1495J
50.548	0.8	130587	WORD_OFF	n/a	n/a	PLANE	Vehicles	6	-1	[0, 0, 0]	n/a	catFR1	1	R1495J
51.348	1.6	131376	WORD	n/a	n/a	COTTON	Fabric	7	-1	[0, 0, 0]	n/a	catFR1	1	R1495J
52.948	0.866	132978	WORD_OFF	n/a	n/a	COTTON	Fabric	7	-1	[0, 0, 0]	n/a	catFR1	1	R1495J
53.814	1.601	133843	WORD	n/a	n/a	FLEECE	Fabric	8	-1	[0, 0, 0]	n/a	catFR1	1	R1495J
55.415	0.983	135446	WORD_OFF	n/a	n/a	FLEECE	Fabric	8	-1	[0, 0, 0]	n/a	catFR1	1	R1495J
56.398	1.6	136438	WORD	n/a	n/a	TRAIN	Vehicles	9	-1	[0, 0, 0]	n/a	catFR1	1	R1495J
57.998	1.0	138027	WORD_OFF	n/a	n/a	TRAIN	Vehicles	9	-1	[0, 0, 0]	n/a	catFR1	1	R1495J
58.998	1.601	139032	WORD	n/a	n/a	TRUCK	Vehicles	10	-1	[0, 0, 0]	n/a	catFR1	1	R1495J
60.599	0.964	140634	WORD_OFF	n/a	n/a	TRUCK	Vehicles	10	-1	[0, 0, 0]	n/a	catFR1	1	R1495J
61.563	1.601	141601	WORD	n/a	n/a	KNIFE	KitchenTools	11	-1	[0, 0, 0]	n/a	catFR1	1	R1495J
63.164	0.951	143204	WORD_OFF	n/a	n/a	KNIFE	KitchenTools	11	-1	[0, 0, 0]	n/a	catFR1	1	R1495J
64.115	1.616	144145	WORD	n/a	n/a	TONGS	KitchenTools	12	-1	[0, 0, 0]	n/a	catFR1	1	R1495J
65.731	0.001	145760	WORD_OFF	n/a	n/a	TONGS	KitchenTools	12	-1	[0, 0, 0]	n/a	catFR1	1	R1495J
65.732	0.0	145761	START	n/a	n/a	n/a	n/a	-999	-1	[-999, -999, -999]	n/a	catFR1	1	R1495J
65.732	0.0	145761	PROB	0.0	n/a	n/a	n/a	-999	-1	[2, 3, 6]	11	catFR1	1	R1495J
65.732	0.0	145773	ENCODING_END	n/a	n/a	n/a	n/a	-999	-1	[0, 0, 0]	n/a	catFR1	1	R1495J
65.732	3.765	145773	DISTRACT_START	n/a	n/a	n/a	n/a	-999	-1	[0, 0, 0]	n/a	catFR1	1	R1495J
69.497	4.735	149526	PROB	4.735	n/a	n/a	n/a	-999	-1	[4, 7, 6]	17	catFR1	1	R1495J
74.232	3.716	154261	PROB	3.716	n/a	n/a	n/a	-999	-1	[4, 5, 7]	16	catFR1	1	R1495J
77.948	4.601	157976	PROB	4.601	n/a	n/a	n/a	-999	-1	[8, 7, 6]	21	catFR1	1	R1495J
82.549	2.917	162577	PROB	2.917	n/a	n/a	n/a	-999	-1	[3, 3, 7]	13	catFR1	1	R1495J
85.466	2.431	165494	PROB	2.431	n/a	n/a	n/a	-999	-1	[6, 4, 1]	11	catFR1	1	R1495J
87.897	0.0	167925	STOP	n/a	n/a	n/a	n/a	-999	-1	[-999, -999, -999]	n/a	catFR1	1	R1495J
87.897	1.201	167927	DISTRACT_END	n/a	n/a	n/a	n/a	-999	-1	[0, 0, 0]	n/a	catFR1	1	R1495J
89.098	0.827	169135	REC_START	n/a	n/a	n/a	n/a	-999	-1	[0, 0, 0]	n/a	catFR1	1	R1495J
89.925	0.403	169953	REC_WORD	0.403	n/a	WOOL	Fabric	1	-1	[0, 0, 0]	n/a	catFR1	1	R1495J
90.328	1.201	170356	REC_WORD	1.201	n/a	FORK	KitchenTools	3	-1	[0, 0, 0]	n/a	catFR1	1	R1495J
91.529	1.451	171557	REC_WORD	1.451	n/a	CORKSCREW	KitchenTools	4	-1	[0, 0, 0]	n/a	catFR1	1	R1495J
92.98	0.516	173008	REC_WORD	0.516	n/a	SPOON	n/a	-999	-1	[0, 0, 0]	n/a	catFR1	1	R1495J
93.496	5.135	173524	REC_WORD	5.135	n/a	KNIFE	KitchenTools	11	-1	[0, 0, 0]	n/a	catFR1	1	R1495J
98.631	21.666	178659	REC_WORD	21.666	n/a	TRUCK	Vehicles	10	-1	[0, 0, 0]	n/a	catFR1	1	R1495J
120.297	11.886	200332	REC_END	n/a	n/a	n/a	n/a	-999	-1	[0, 0, 0]	n/a	catFR1	1	R1495J
132.183	10.35	212211	COUNTDOWN_START	n/a	n/a	n/a	n/a	-999	1	[0, 0, 0]	n/a	catFR1	1	R1495J
142.533	0.0	222563	COUNTDOWN_END	n/a	n/a	n/a	n/a	-999	1	[0, 0, 0]	n/a	catFR1	1	R1495J
142.533	2.066	222563	ENCODING_START	n/a	n/a	n/a	n/a	-999	1	[0, 0, 0]	n/a	catFR1	1	R1495J
144.599	1.6	224624	WORD	n/a	wordpools/wordpool_categorized_EN.txt	SNOW	Weather	1	1	[0, 0, 0]	n/a	catFR1	1	R1495J
146.199	0.933	226226	WORD_OFF	n/a	n/a	SNOW	Weather	1	1	[0, 0, 0]	n/a	catFR1	1	R1495J
147.132	1.601	227167	WORD	n/a	wordpools/wordpool_categorized_EN.txt	TORNADO	Weather	2	1	[0, 0, 0]	n/a	catFR1	1	R1495J
148.733	0.932	228770	WORD_OFF	n/a	n/a	TORNADO	Weather	2	1	[0, 0, 0]	n/a	catFR1	1	R1495J
149.665	1.617	229698	WORD	n/a	wordpools/wordpool_categorized_EN.txt	DOLL	Toys	3	1	[0, 0, 0]	n/a	catFR1	1	R1495J
151.282	0.934	231313	WORD_OFF	n/a	n/a	DOLL	Toys	3	1	[0, 0, 0]	n/a	catFR1	1	R1495J
152.216	1.616	232242	WORD	n/a	wordpools/wordpool_categorized_EN.txt	BASEBALL	Toys	4	1	[0, 0, 0]	n/a	catFR1	1	R1495J
153.832	0.883	233857	WORD_OFF	n/a	n/a	BASEBALL	Toys	4	1	[0, 0, 0]	n/a	catFR1	1	R1495J
154.715	1.601	234747	WORD	n/a	wordpools/wordpool_categorized_EN.txt	MOPED	Vehicles	5	1	[0, 0, 0]	n/a	catFR1	1	R1495J
156.316	0.767	236350	WORD_OFF	n/a	n/a	MOPED	Vehicles	5	1	[0, 0, 0]	n/a	catFR1	1	R1495J
157.083	1.6	237113	WORD	n/a	wordpools/wordpool_categorized_EN.txt	MOTORCYCLE	Vehicles	6	1	[0, 0, 0]	n/a	catFR1	1	R1495J
158.683	0.983	238715	WORD_OFF	n/a	n/a	MOTORCYCLE	Vehicles	6	1	[0, 0, 0]	n/a	catFR1	1	R1495J
159.666	1.6	239695	WORD	n/a	wordpools/wordpool_categorized_EN.txt	HUMIDITY	Weather	7	1	[0, 0, 0]	n/a	catFR1	1	R1495J
161.266	1.0	241297	WORD_OFF	n/a	n/a	HUMIDITY	Weather	7	1	[0, 0, 0]	n/a	catFR1	1	R1495J
162.266	1.617	242302	WORD	n/a	wordpools/wordpool_categorized_EN.txt	DRIZZLE	Weather	8	1	[0, 0, 0]	n/a	catFR1	1	R1495J
163.883	0.932	243917	WORD_OFF	n/a	n/a	DRIZZLE	Weather	8	1	[0, 0, 0]	n/a	catFR1	1	R1495J
164.815	1.601	244845	WORD	n/a	wordpools/wordpool_categorized_EN.txt	BASKETBALL	Toys	9	1	[0, 0, 0]	n/a	catFR1	1	R1495J
166.416	0.866	246448	WORD_OFF	n/a	n/a	BASKETBALL	Toys	9	1	[0, 0, 0]	n/a	catFR1	1	R1495J
167.282	1.601	247313	WORD	n/a	wordpools/wordpool_categorized_EN.txt	FOOTBALL	Toys	10	1	[0, 0, 0]	n/a	catFR1	1	R1495J
168.883	0.999	248915	WORD_OFF	n/a	n/a	FOOTBALL	Toys	10	1	[0, 0, 0]	n/a	catFR1	1	R1495J
169.882	1.617	249907	WORD	n/a	wordpools/wordpool_categorized_EN.txt	SCOOTER	Vehicles	11	1	[0, 0, 0]	n/a	catFR1	1	R1495J
171.499	0.85	251535	WORD_OFF	n/a	n/a	SCOOTER	Vehicles	11	1	[0, 0, 0]	n/a	catFR1	1	R1495J
172.349	1.601	252374	WORD	n/a	wordpools/wordpool_categorized_EN.txt	BOAT	Vehicles	12	1	[0, 0, 0]	n/a	catFR1	1	R1495J
173.95	0.002	253974	PROB	0.002	n/a	n/a	n/a	-999	1	[3, 4, 7]	14	catFR1	1	R1495J
173.952	0.0	253976	START	n/a	n/a	n/a	n/a	-999	1	[-999, -999, -999]	n/a	catFR1	1	R1495J
173.949	0.003	253977	WORD_OFF	n/a	n/a	BOAT	Vehicles	12	1	[0, 0, 0]	n/a	catFR1	1	R1495J
173.952	0.0	253977	ENCODING_END	n/a	n/a	n/a	n/a	-999	1	[0, 0, 0]	n/a	catFR1	1	R1495J
173.952	3.381	253989	DISTRACT_START	n/a	n/a	n/a	n/a	-999	1	[0, 0, 0]	n/a	catFR1	1	R1495J
177.333	5.749	257357	PROB	5.749	n/a	n/a	n/a	-999	1	[3, 8, 6]	17	catFR1	1	R1495J
183.082	2.384	263106	PROB	2.384	n/a	n/a	n/a	-999	1	[2, 6, 4]	12	catFR1	1	R1495J
185.466	2.732	265490	PROB	2.732	n/a	n/a	n/a	-999	1	[3, 1, 7]	11	catFR1	1	R1495J
188.198	2.617	268222	PROB	2.617	n/a	n/a	n/a	-999	1	[1, 7, 3]	11	catFR1	1	R1495J
190.815	3.949	270839	PROB	3.949	n/a	n/a	n/a	-999	1	[6, 1, 6]	13	catFR1	1	R1495J
194.764	0.0	274788	STOP	n/a	n/a	n/a	n/a	-999	1	[-999, -999, -999]	n/a	catFR1	1	R1495J
194.764	1.15	274796	DISTRACT_END	n/a	n/a	n/a	n/a	-999	1	[0, 0, 0]	n/a	catFR1	1	R1495J
195.914	2.114	275941	REC_START	n/a	n/a	n/a	n/a	-999	1	[0, 0, 0]	n/a	catFR1	1	R1495J
198.028	0.667	278051	REC_WORD	0.667	n/a	BASKETBALL	Toys	9	1	[0, 0, 0]	n/a	catFR1	1	R1495J
198.695	0.618	278718	REC_WORD	0.618	n/a	BASEBALL	Toys	4	1	[0, 0, 0]	n/a	catFR1	1	R1495J
199.313	1.47	279336	REC_WORD	1.47	n/a	SOCCER	n/a	-999	1	[0, 0, 0]	n/a	catFR1	1	R1495J
200.783	26.332	280806	REC_WORD	26.332	n/a	FOOTBALL	Toys	10	1	[0, 0, 0]	n/a	catFR1	1	R1495J
227.115	1.617	307138	REC_END	n/a	n/a	n/a	n/a	-999	1	[0, 0, 0]	n/a	catFR1	1	R1495J
228.732	10.351	308766	COUNTDOWN_START	n/a	n/a	n/a	n/a	-999	1	[0, 0, 0]	n/a	catFR1	1	R1495J
239.083	0.0	319105	COUNTDOWN_END	n/a	n/a	n/a	n/a	-999	1	[0, 0, 0]	n/a	catFR1	1	R1495J
239.083	2.166	319118	ENCODING_START	n/a	n/a	n/a	n/a	-999	2	[0, 0, 0]	n/a	catFR1	1	R1495J
241.249	1.617	321280	WORD	n/a	wordpools/wordpool_categorized_EN.txt	BALL	Toys	1	2	[0, 0, 0]	n/a	catFR1	1	R1495J
242.866	0.883	322895	WORD_OFF	n/a	n/a	BALL	Toys	1	2	[0, 0, 0]	n/a	catFR1	1	R1495J
243.749	1.616	323773	WORD	n/a	wordpools/wordpool_categorized_EN.txt	MARBLES	Toys	2	2	[0, 0, 0]	n/a	catFR1	1	R1495J
245.365	0.818	325388	WORD_OFF	n/a	n/a	MARBLES	Toys	2	2	[0, 0, 0]	n/a	catFR1	1	R1495J
246.183	1.616	326215	WORD	n/a	wordpools/wordpool_categorized_EN.txt	SUEDE	Fabric	3	2	[0, 0, 0]	n/a	catFR1	1	R1495J
247.799	0.983	327830	WORD_OFF	n/a	n/a	SUEDE	Fabric	3	2	[0, 0, 0]	n/a	catFR1	1	R1495J
248.782	1.601	328809	WORD	n/a	wordpools/wordpool_categorized_EN.txt	DENIM	Fabric	4	2	[0, 0, 0]	n/a	catFR1	1	R1495J
250.383	0.799	330412	WORD_OFF	n/a	n/a	DENIM	Fabric	4	2	[0, 0, 0]	n/a	catFR1	1	R1495J
251.182	1.601	331213	WORD	n/a	wordpools/wordpool_categorized_EN.txt	CHEETAH	Zoo	5	2	[0, 0, 0]	n/a	catFR1	1	R1495J
252.783	0.816	332815	WORD_OFF	n/a	n/a	CHEETAH	Zoo	5	2	[0, 0, 0]	n/a	catFR1	1	R1495J
253.599	1.617	333629	WORD	n/a	wordpools/wordpool_categorized_EN.txt	BEAR	Zoo	6	2	[0, 0, 0]	n/a	catFR1	1	R1495J
255.216	0.816	335244	WORD_OFF	n/a	n/a	BEAR	Zoo	6	2	[0, 0, 0]	n/a	catFR1	1	R1495J
256.032	1.601	336058	WORD	n/a	wordpools/wordpool_categorized_EN.txt	LINEN	Fabric	7	2	[0, 0, 0]	n/a	catFR1	1	R1495J
257.633	0.966	337661	WORD_OFF	n/a	n/a	LINEN	Fabric	7	2	[0, 0, 0]	n/a	catFR1	1	R1495J
258.599	1.616	338627	WORD	n/a	wordpools/wordpool_categorized_EN.txt	SATIN	Fabric	8	2	[0, 0, 0]	n/a	catFR1	1	R1495J
260.215	0.784	340243	WORD_OFF	n/a	n/a	SATIN	Fabric	8	2	[0, 0, 0]	n/a	catFR1	1	R1495J
260.999	1.617	341031	WORD	n/a	wordpools/wordpool_categorized_EN.txt	SLINKY	Toys	9	2	[0, 0, 0]	n/a	catFR1	1	R1495J
262.616	0.767	342646	WORD_OFF	n/a	n/a	SLINKY	Toys	9	2	[0, 0, 0]	n/a	catFR1	1	R1495J
263.383	1.616	343409	WORD	n/a	wordpools/wordpool_categorized_EN.txt	FRISBEE	Toys	10	2	[0, 0, 0]	n/a	catFR1	1	R1495J
264.999	0.9	345024	WORD_OFF	n/a	n/a	FRISBEE	Toys	10	2	[0, 0, 0]	n/a	catFR1	1	R1495J
265.899	1.6	345927	WORD	n/a	wordpools/wordpool_categorized_EN.txt	ELEPHANT	Zoo	11	2	[0, 0, 0]	n/a	catFR1	1	R1495J
267.499	0.834	347530	WORD_OFF	n/a	n/a	ELEPHANT	Zoo	11	2	[0, 0, 0]	n/a	catFR1	1	R1495J
268.333	1.616	348357	WORD	n/a	wordpools/wordpool_categorized_EN.txt	PANDA	Zoo	12	2	[0, 0, 0]	n/a	catFR1	1	R1495J
269.949	0.002	349969	PROB	0.002	n/a	n/a	n/a	-999	2	[6, 5, 6]	17	catFR1	1	R1495J
269.951	0.0	349971	START	n/a	n/a	n/a	n/a	-999	2	[-999, -999, -999]	n/a	catFR1	1	R1495J
269.949	0.002	349972	WORD_OFF	n/a	n/a	PANDA	Zoo	12	2	[0, 0, 0]	n/a	catFR1	1	R1495J
269.951	0.0	349972	ENCODING_END	n/a	n/a	n/a	n/a	-999	2	[0, 0, 0]	n/a	catFR1	1	R1495J
269.951	5.248	349984	DISTRACT_START	n/a	n/a	n/a	n/a	-999	2	[0, 0, 0]	n/a	catFR1	1	R1495J
275.199	3.017	355219	PROB	3.017	n/a	n/a	n/a	-999	2	[2, 3, 1]	6	catFR1	1	R1495J
278.216	4.65	358236	PROB	4.65	n/a	n/a	n/a	-999	2	[7, 2, 4]	13	catFR1	1	R1495J
282.866	3.083	362886	PROB	3.083	n/a	n/a	n/a	-999	2	[8, 2, 6]	16	catFR1	1	R1495J
285.949	4.415	365969	PROB	4.415	n/a	n/a	n/a	-999	2	[7, 5, 4]	16	catFR1	1	R1495J
290.364	0.0	370384	DISTRACT_END	n/a	n/a	n/a	n/a	-999	2	[0, 0, 0]	n/a	catFR1	1	R1495J
290.364	1.233	370384	STOP	n/a	n/a	n/a	n/a	-999	2	[-999, -999, -999]	n/a	catFR1	1	R1495J
291.597	1.965	371618	REC_START	n/a	n/a	n/a	n/a	-999	2	[0, 0, 0]	n/a	catFR1	1	R1495J
293.562	1.281	373581	REC_WORD	1.281	n/a	PANDA	Zoo	12	2	[0, 0, 0]	n/a	catFR1	1	R1495J
294.843	2.277	374862	REC_WORD	2.277	n/a	ELEPHANT	Zoo	11	2	[0, 0, 0]	n/a	catFR1	1	R1495J
297.12	2.967	377139	REC_WORD	2.967	n/a	SCOOTER	Vehicles	-999	2	[0, 0, 0]	n/a	catFR1	1	R1495J
300.087	0.321	380106	REC_WORD	0.321	n/a	TRUCK	Vehicles	-999	2	[0, 0, 0]	n/a	catFR1	1	R1495J
300.408	0.13	380427	REC_WORD_VV	0.13	n/a	<>	n/a	-999	2	[0, 0, 0]	n/a	catFR1	1	R1495J
300.538	22.267	380557	REC_WORD	22.267	n/a	DOLL	Toys	-999	2	[0, 0, 0]	n/a	catFR1	1	R1495J
322.805	1.361	402828	REC_END	n/a	n/a	n/a	n/a	-999	2	[0, 0, 0]	n/a	catFR1	1	R1495J
324.166	10.348	404188	COUNTDOWN_START	n/a	n/a	n/a	n/a	-999	2	[0, 0, 0]	n/a	catFR1	1	R1495J
334.514	0.0	414541	COUNTDOWN_END	n/a	n/a	n/a	n/a	-999	2	[0, 0, 0]	n/a	catFR1	1	R1495J
334.514	1.935	414541	ENCODING_START	n/a	n/a	n/a	n/a	-999	3	[0, 0, 0]	n/a	catFR1	1	R1495J
336.449	1.617	416474	WORD	n/a	wordpools/wordpool_categorized_EN.txt	FUDGE	Desserts	1	3	[0, 0, 0]	n/a	catFR1	1	R1495J
338.066	0.917	418089	WORD_OFF	n/a	n/a	FUDGE	Desserts	1	3	[0, 0, 0]	n/a	catFR1	1	R1495J
338.983	1.616	419005	WORD	n/a	wordpools/wordpool_categorized_EN.txt	COOKIE	Desserts	2	3	[0, 0, 0]	n/a	catFR1	1	R1495J
340.599	0.783	420620	WORD_OFF	n/a	n/a	COOKIE	Desserts	2	3	[0, 0, 0]	n/a	catFR1	1	R1495J
341.382	1.617	421408	WORD	n/a	wordpools/wordpool_categorized_EN.txt	CARROT	Vegetables	3	3	[0, 0, 0]	n/a	catFR1	1	R1495J
342.999	0.767	423024	WORD_OFF	n/a	n/a	CARROT	Vegetables	3	3	[0, 0, 0]	n/a	catFR1	1	R1495J
343.766	1.617	423787	WORD	n/a	wordpools/wordpool_categorized_EN.txt	POTATO	Vegetables	4	3	[0, 0, 0]	n/a	catFR1	1	R1495J
345.383	0.899	425402	WORD_OFF	n/a	n/a	POTATO	Vegetables	4	3	[0, 0, 0]	n/a	catFR1	1	R1495J
346.282	1.617	426305	WORD	n/a	wordpools/wordpool_categorized_EN.txt	COW	FarmAnimals	5	3	[0, 0, 0]	n/a	catFR1	1	R1495J
347.899	0.834	427920	WORD_OFF	n/a	n/a	COW	FarmAnimals	5	3	[0, 0, 0]	n/a	catFR1	1	R1495J
348.733	1.616	428759	WORD	n/a	wordpools/wordpool_categorized_EN.txt	SHEEP	FarmAnimals	6	3	[0, 0, 0]	n/a	catFR1	1	R1495J
350.349	0.85	430375	WORD_OFF	n/a	n/a	SHEEP	FarmAnimals	6	3	[0, 0, 0]	n/a	catFR1	1	R1495J
351.199	1.6	431227	WORD	n/a	wordpools/wordpool_categorized_EN.txt	CHEESECAKE	Desserts	7	3	[0, 0, 0]	n/a	catFR1	1	R1495J
352.799	0.8	432816	WORD_OFF	n/a	n/a	CHEESECAKE	Desserts	7	3	[0, 0, 0]	n/a	catFR1	1	R1495J
353.599	1.6	433618	WORD	n/a	wordpools/wordpool_categorized_EN.txt	COBBLER	Desserts	8	3	[0, 0, 0]	n/a	catFR1	1	R1495J
355.199	0.866	435220	WORD_OFF	n/a	n/a	COBBLER	Desserts	8	3	[0, 0, 0]	n/a	catFR1	1	R1495J
356.065	1.601	436085	WORD	n/a	wordpools/wordpool_categorized_EN.txt	CALF	FarmAnimals	9	3	[0, 0, 0]	n/a	catFR1	1	R1495J
357.666	0.833	437687	WORD_OFF	n/a	n/a	CALF	FarmAnimals	9	3	[0, 0, 0]	n/a	catFR1	1	R1495J
358.499	1.6	438527	WORD	n/a	wordpools/wordpool_categorized_EN.txt	HORSE	FarmAnimals	10	3	[0, 0, 0]	n/a	catFR1	1	R1495J
360.099	0.9	440116	WORD_OFF	n/a	n/a	HORSE	FarmAnimals	10	3	[0, 0, 0]	n/a	catFR1	1	R1495J
360.999	1.617	441019	WORD	n/a	wordpools/wordpool_categorized_EN.txt	LETTUCE	Vegetables	11	3	[0, 0, 0]	n/a	catFR1	1	R1495J
362.616	0.967	442635	WORD_OFF	n/a	n/a	LETTUCE	Vegetables	11	3	[0, 0, 0]	n/a	catFR1	1	R1495J
363.583	1.6	443601	WORD	n/a	wordpools/wordpool_categorized_EN.txt	CABBAGE	Vegetables	12	3	[0, 0, 0]	n/a	catFR1	1	R1495J
365.183	0.001	445200	PROB	0.001	n/a	n/a	n/a	-999	3	[1, 3, 5]	9	catFR1	1	R1495J
365.184	0.0	445201	START	n/a	n/a	n/a	n/a	-999	3	[-999, -999, -999]	n/a	catFR1	1	R1495J
365.183	0.001	445204	WORD_OFF	n/a	n/a	CABBAGE	Vegetables	12	3	[0, 0, 0]	n/a	catFR1	1	R1495J
365.184	0.0	445204	ENCODING_END	n/a	n/a	n/a	n/a	-999	3	[0, 0, 0]	n/a	catFR1	1	R1495J
365.184	3.548	445204	DISTRACT_START	n/a	n/a	n/a	n/a	-999	3	[0, 0, 0]	n/a	catFR1	1	R1495J
368.732	5.551	448748	PROB	5.551	n/a	n/a	n/a	-999	3	[3, 8, 1]	12	catFR1	1	R1495J
374.283	3.25	454299	PROB	3.25	n/a	n/a	n/a	-999	3	[5, 2, 4]	11	catFR1	1	R1495J
377.533	4.349	457549	PROB	4.349	n/a	n/a	n/a	-999	3	[8, 3, 6]	17	catFR1	1	R1495J
381.882	2.85	461898	PROB	2.85	n/a	n/a	n/a	-999	3	[8, 7, 2]	17	catFR1	1	R1495J
384.732	4.9	464748	PROB	4.9	n/a	n/a	n/a	-999	3	[4, 7, 1]	12	catFR1	1	R1495J
389.632	0.0	469647	STOP	n/a	n/a	n/a	n/a	-999	3	[-999, -999, -999]	n/a	catFR1	1	R1495J
389.632	1.233	469648	DISTRACT_END	n/a	n/a	n/a	n/a	-999	3	[0, 0, 0]	n/a	catFR1	1	R1495J
390.865	1.494	470881	REC_START	n/a	n/a	n/a	n/a	-999	3	[0, 0, 0]	n/a	catFR1	1	R1495J
392.359	5.145	472374	REC_WORD	5.145	n/a	CHEESECAKE	Desserts	7	3	[0, 0, 0]	n/a	catFR1	1	R1495J
397.504	5.593	477519	REC_WORD	5.593	n/a	STOOL	n/a	-999	3	[0, 0, 0]	n/a	catFR1	1	R1495J
403.097	8.94	483112	REC_WORD	8.94	n/a	WOOL	Fabric	-999	3	[0, 0, 0]	n/a	catFR1	1	R1495J
412.037	7.617	492052	REC_WORD	7.617	n/a	ELEPHANT	Zoo	-999	3	[0, 0, 0]	n/a	catFR1	1	R1495J
419.654	2.415	499668	REC_WORD	2.415	n/a	CAKE	n/a	-999	3	[0, 0, 0]	n/a	catFR1	1	R1495J
422.069	1.763	502091	REC_END	n/a	n/a	n/a	n/a	-999	3	[0, 0, 0]	n/a	catFR1	1	R1495J
423.832	10.351	503846	COUNTDOWN_START	n/a	n/a	n/a	n/a	-999	3	[0, 0, 0]	n/a	catFR1	1	R1495J
434.183	0.0	514198	COUNTDOWN_END	n/a	n/a	n/a	n/a	-999	3	[0, 0, 0]	n/a	catFR1	1	R1495J
434.183	2.25	514198	ENCODING_START	n/a	n/a	n/a	n/a	-999	4	[0, 0, 0]	n/a	catFR1	1	R1495J
436.433	1.599	516450	WORD	n/a	wordpools/wordpool_categorized_EN.txt	GRAPE	Fruit	1	4	[0, 0, 0]	n/a	catFR1	1	R1495J
438.032	0.85	518052	WORD_OFF	n/a	n/a	GRAPE	Fruit	1	4	[0, 0, 0]	n/a	catFR1	1	R1495J
438.882	1.617	518904	WORD	n/a	wordpools/wordpool_categorized_EN.txt	LEMON	Fruit	2	4	[0, 0, 0]	n/a	catFR1	1	R1495J
440.499	0.866	520519	WORD_OFF	n/a	n/a	LEMON	Fruit	2	4	[0, 0, 0]	n/a	catFR1	1	R1495J
441.365	1.601	521384	WORD	n/a	wordpools/wordpool_categorized_EN.txt	PINE	Trees	3	4	[0, 0, 0]	n/a	catFR1	1	R1495J
442.966	0.933	522987	WORD_OFF	n/a	n/a	PINE	Trees	3	4	[0, 0, 0]	n/a	catFR1	1	R1495J
443.899	1.617	523915	WORD	n/a	wordpools/wordpool_categorized_EN.txt	WALNUT	Trees	4	4	[0, 0, 0]	n/a	catFR1	1	R1495J
445.516	0.933	525530	WORD_OFF	n/a	n/a	WALNUT	Trees	4	4	[0, 0, 0]	n/a	catFR1	1	R1495J
446.449	1.6	526471	WORD	n/a	wordpools/wordpool_categorized_EN.txt	TURKEY	FarmAnimals	5	4	[0, 0, 0]	n/a	catFR1	1	R1495J
448.049	0.9	528061	WORD_OFF	n/a	n/a	TURKEY	FarmAnimals	5	4	[0, 0, 0]	n/a	catFR1	1	R1495J
448.949	1.6	528964	WORD	n/a	wordpools/wordpool_categorized_EN.txt	HEN	FarmAnimals	6	4	[0, 0, 0]	n/a	catFR1	1	R1495J
450.549	0.817	530566	WORD_OFF	n/a	n/a	HEN	FarmAnimals	6	4	[0, 0, 0]	n/a	catFR1	1	R1495J
451.366	1.6	531380	WORD	n/a	wordpools/wordpool_categorized_EN.txt	WILLOW	Trees	7	4	[0, 0, 0]	n/a	catFR1	1	R1495J
452.966	0.933	532983	WORD_OFF	n/a	n/a	WILLOW	Trees	7	4	[0, 0, 0]	n/a	catFR1	1	R1495J
453.899	1.617	533911	WORD	n/a	wordpools/wordpool_categorized_EN.txt	HICKORY	Trees	8	4	[0, 0, 0]	n/a	catFR1	1	R1495J
455.516	1.015	535539	WORD_OFF	n/a	n/a	HICKORY	Trees	8	4	[0, 0, 0]	n/a	catFR1	1	R1495J
456.531	1.602	536544	WORD	n/a	wordpools/wordpool_categorized_EN.txt	ORANGE	Fruit	9	4	[0, 0, 0]	n/a	catFR1	1	R1495J
458.133	0.783	538146	WORD_OFF	n/a	n/a	ORANGE	Fruit	9	4	[0, 0, 0]	n/a	catFR1	1	R1495J
458.916	1.6	538935	WORD	n/a	wordpools/wordpool_categorized_EN.txt	STRAWBERRY	Fruit	10	4	[0, 0, 0]	n/a	catFR1	1	R1495J
460.516	1.0	540537	WORD_OFF	n/a	n/a	STRAWBERRY	Fruit	10	4	[0, 0, 0]	n/a	catFR1	1	R1495J
461.516	1.6	541529	WORD	n/a	wordpools/wordpool_categorized_EN.txt	GOAT	FarmAnimals	11	4	[0, 0, 0]	n/a	catFR1	1	R1495J
463.116	0.783	543132	WORD_OFF	n/a	n/a	GOAT	FarmAnimals	11	4	[0, 0, 0]	n/a	catFR1	1	R1495J
463.899	1.601	543920	WORD	n/a	wordpools/wordpool_categorized_EN.txt	BULL	FarmAnimals	12	4	[0, 0, 0]	n/a	catFR1	1	R1495J
465.5	0.001	545512	PROB	0.001	n/a	n/a	n/a	-999	4	[6, 3, 7]	16	catFR1	1	R1495J
465.501	0.0	545513	START	n/a	n/a	n/a	n/a	-999	4	[-999, -999, -999]	n/a	catFR1	1	R1495J
465.499	0.002	545523	WORD_OFF	n/a	n/a	BULL	FarmAnimals	12	4	[0, 0, 0]	n/a	catFR1	1	R1495J
465.501	0.0	545523	ENCODING_END	n/a	n/a	n/a	n/a	-999	4	[0, 0, 0]	n/a	catFR1	1	R1495J
465.501	4.882	545523	DISTRACT_START	n/a	n/a	n/a	n/a	-999	4	[0, 0, 0]	n/a	catFR1	1	R1495J
470.383	4.617	550395	PROB	4.617	n/a	n/a	n/a	-999	4	[4, 5, 4]	13	catFR1	1	R1495J
475.0	3.449	555012	PROB	3.449	n/a	n/a	n/a	-999	4	[2, 3, 4]	9	catFR1	1	R1495J
478.449	4.267	558461	PROB	4.267	n/a	n/a	n/a	-999	4	[5, 8, 7]	20	catFR1	1	R1495J
482.716	4.499	562728	PROB	4.499	n/a	n/a	n/a	-999	4	[4, 5, 8]	17	catFR1	1	R1495J
487.215	0.0	567226	STOP	n/a	n/a	n/a	n/a	-999	4	[-999, -999, -999]	n/a	catFR1	1	R1495J
487.215	1.149	567232	DISTRACT_END	n/a	n/a	n/a	n/a	-999	4	[0, 0, 0]	n/a	catFR1	1	R1495J
488.364	1.274	568377	REC_START	n/a	n/a	n/a	n/a	-999	4	[0, 0, 0]	n/a	catFR1	1	R1495J
489.638	4.982	569649	REC_WORD	4.982	n/a	STRAWBERRY	Fruit	10	4	[0, 0, 0]	n/a	catFR1	1	R1495J
494.62	3.941	574631	REC_WORD	3.941	n/a	PINE	Trees	3	4	[0, 0, 0]	n/a	catFR1	1	R1495J
498.561	3.557	578572	REC_WORD	3.557	n/a	HICKORY	Trees	8	4	[0, 0, 0]	n/a	catFR1	1	R1495J
502.118	3.885	582129	REC_WORD	3.885	n/a	HEN	FarmAnimals	6	4	[0, 0, 0]	n/a	catFR1	1	R1495J
506.003	13.581	586014	REC_WORD	13.581	n/a	GOAT	FarmAnimals	11	4	[0, 0, 0]	n/a	catFR1	1	R1495J
519.584	1.299	599599	REC_END	n/a	n/a	n/a	n/a	-999	4	[0, 0, 0]	n/a	catFR1	1	R1495J
520.883	10.35	600897	COUNTDOWN_START	n/a	n/a	n/a	n/a	-999	4	[0, 0, 0]	n/a	catFR1	1	R1495J
531.233	0.0	611249	COUNTDOWN_END	n/a	n/a	n/a	n/a	-999	4	[0, 0, 0]	n/a	catFR1	1	R1495J
531.233	1.866	611249	ENCODING_START	n/a	n/a	n/a	n/a	-999	5	[0, 0, 0]	n/a	catFR1	1	R1495J
533.099	1.6	613119	WORD	n/a	wordpools/wordpool_categorized_EN.txt	CUPCAKE	Desserts	1	5	[0, 0, 0]	n/a	catFR1	1	R1495J
534.699	0.782	614708	WORD_OFF	n/a	n/a	CUPCAKE	Desserts	1	5	[0, 0, 0]	n/a	catFR1	1	R1495J
535.481	1.602	615497	WORD	n/a	wordpools/wordpool_categorized_EN.txt	MOUSSE	Desserts	2	5	[0, 0, 0]	n/a	catFR1	1	R1495J
537.083	1.0	617099	WORD_OFF	n/a	n/a	MOUSSE	Desserts	2	5	[0, 0, 0]	n/a	catFR1	1	R1495J
538.083	1.6	618091	WORD	n/a	wordpools/wordpool_categorized_EN.txt	GIRAFFE	Zoo	3	5	[0, 0, 0]	n/a	catFR1	1	R1495J
539.683	0.933	619694	WORD_OFF	n/a	n/a	GIRAFFE	Zoo	3	5	[0, 0, 0]	n/a	catFR1	1	R1495J
540.616	1.616	620635	WORD	n/a	wordpools/wordpool_categorized_EN.txt	ZEBRA	Zoo	4	5	[0, 0, 0]	n/a	catFR1	1	R1495J
542.232	0.766	622250	WORD_OFF	n/a	n/a	ZEBRA	Zoo	4	5	[0, 0, 0]	n/a	catFR1	1	R1495J
542.998	1.601	623013	WORD	n/a	wordpools/wordpool_categorized_EN.txt	BLOCKS	Toys	5	5	[0, 0, 0]	n/a	catFR1	1	R1495J
544.599	0.949	624616	WORD_OFF	n/a	n/a	BLOCKS	Toys	5	5	[0, 0, 0]	n/a	catFR1	1	R1495J
545.548	1.601	625557	WORD	n/a	wordpools/wordpool_categorized_EN.txt	PUZZLE	Toys	6	5	[0, 0, 0]	n/a	catFR1	1	R1495J
547.149	0.834	627159	WORD_OFF	n/a	n/a	PUZZLE	Toys	6	5	[0, 0, 0]	n/a	catFR1	1	R1495J
547.983	1.616	627999	WORD	n/a	wordpools/wordpool_categorized_EN.txt	BROWNIES	Desserts	7	5	[0, 0, 0]	n/a	catFR1	1	R1495J
549.599	0.834	629614	WORD_OFF	n/a	n/a	BROWNIES	Desserts	7	5	[0, 0, 0]	n/a	catFR1	1	R1495J
550.433	1.599	630440	WORD	n/a	wordpools/wordpool_categorized_EN.txt	PUDDING	Desserts	8	5	[0, 0, 0]	n/a	catFR1	1	R1495J
552.032	0.951	632043	WORD_OFF	n/a	n/a	PUDDING	Desserts	8	5	[0, 0, 0]	n/a	catFR1	1	R1495J
552.983	1.6	632997	WORD	n/a	wordpools/wordpool_categorized_EN.txt	DOLLHOUSE	Toys	9	5	[0, 0, 0]	n/a	catFR1	1	R1495J
554.583	1.0	634599	WORD_OFF	n/a	n/a	DOLLHOUSE	Toys	9	5	[0, 0, 0]	n/a	catFR1	1	R1495J
555.583	1.616	635591	WORD	n/a	wordpools/wordpool_categorized_EN.txt	BARBIE	Toys	10	5	[0, 0, 0]	n/a	catFR1	1	R1495J
557.199	0.985	637219	WORD_OFF	n/a	n/a	BARBIE	Toys	10	5	[0, 0, 0]	n/a	catFR1	1	R1495J
558.184	1.615	638198	WORD	n/a	wordpools/wordpool_categorized_EN.txt	TIGER	Zoo	11	5	[0, 0, 0]	n/a	catFR1	1	R1495J
559.799	0.8	639814	WORD_OFF	n/a	n/a	TIGER	Zoo	11	5	[0, 0, 0]	n/a	catFR1	1	R1495J
560.599	1.616	640615	WORD	n/a	wordpools/wordpool_categorized_EN.txt	ORANGUTAN	Zoo	12	5	[0, 0, 0]	n/a	catFR1	1	R1495J
562.215	0.001	642223	PROB	0.001	n/a	n/a	n/a	-999	5	[7, 6, 1]	14	catFR1	1	R1495J
562.216	0.0	642224	START	n/a	n/a	n/a	n/a	-999	5	[-999, -999, -999]	n/a	catFR1	1	R1495J
562.215	0.001	642230	WORD_OFF	n/a	n/a	ORANGUTAN	Zoo	12	5	[0, 0, 0]	n/a	catFR1	1	R1495J
562.216	0.0	642230	ENCODING_END	n/a	n/a	n/a	n/a	-999	5	[0, 0, 0]	n/a	catFR1	1	R1495J
562.216	4.7	642230	DISTRACT_START	n/a	n/a	n/a	n/a	-999	5	[0, 0, 0]	n/a	catFR1	1	R1495J
566.916	3.017	646924	PROB	3.017	n/a	n/a	n/a	-999	5	[4, 3, 1]	8	catFR1	1	R1495J
569.933	3.183	649941	PROB	3.183	n/a	n/a	n/a	-999	5	[4, 2, 8]	14	catFR1	1	R1495J
573.116	3.25	653124	PROB	3.25	n/a	n/a	n/a	-999	5	[2, 8, 8]	18	catFR1	1	R1495J
576.366	3.867	656374	PROB	3.867	n/a	n/a	n/a	-999	5	[3, 4, 8]	15	catFR1	1	R1495J
580.233	3.965	660241	PROB	3.965	n/a	n/a	n/a	-999	5	[6, 5, 7]	18	catFR1	1	R1495J
584.198	0.0	664205	STOP	n/a	n/a	n/a	n/a	-999	5	[-999, -999, -999]	n/a	catFR1	1	R1495J
584.198	1.217	664207	DISTRACT_END	n/a	n/a	n/a	n/a	-999	5	[0, 0, 0]	n/a	catFR1	1	R1495J
585.415	0.747	665427	REC_START	n/a	n/a	n/a	n/a	-999	5	[0, 0, 0]	n/a	catFR1	1	R1495J
586.162	6.093	666169	REC_WORD	6.093	n/a	DOLLHOUSE	Toys	9	5	[0, 0, 0]	n/a	catFR1	1	R1495J
592.255	5.856	672262	REC_WORD	5.856	n/a	PINE	Trees	-999	5	[0, 0, 0]	n/a	catFR1	1	R1495J
598.111	18.545	678118	REC_WORD	18.545	n/a	GRAPE	Fruit	-999	5	[0, 0, 0]	n/a	catFR1	1	R1495J
616.656	1.443	696663	REC_END	n/a	n/a	n/a	n/a	-999	5	[0, 0, 0]	n/a	catFR1	1	R1495J
618.099	10.348	698113	COUNTDOWN_START	n/a	n/a	n/a	n/a	-999	5	[0, 0, 0]	n/a	catFR1	1	R1495J
628.447	0.001	708452	COUNTDOWN_END	n/a	n/a	n/a	n/a	-999	5	[0, 0, 0]	n/a	catFR1	1	R1495J
628.448	2.151	708465	ENCODING_START	n/a	n/a	n/a	n/a	-999	6	[0, 0, 0]	n/a	catFR1	1	R1495J
630.599	1.6	710614	WORD	n/a	wordpools/wordpool_categorized_EN.txt	LIME	Fruit	1	6	[0, 0, 0]	n/a	catFR1	1	R1495J
632.199	0.966	712204	WORD_OFF	n/a	n/a	LIME	Fruit	1	6	[0, 0, 0]	n/a	catFR1	1	R1495J
633.165	1.601	713171	WORD	n/a	wordpools/wordpool_categorized_EN.txt	PEACH	Fruit	2	6	[0, 0, 0]	n/a	catFR1	1	R1495J
634.766	0.766	714773	WORD_OFF	n/a	n/a	PEACH	Fruit	2	6	[0, 0, 0]	n/a	catFR1	1	R1495J
635.532	1.616	715549	WORD	n/a	wordpools/wordpool_categorized_EN.txt	CORN	Vegetables	3	6	[0, 0, 0]	n/a	catFR1	1	R1495J
637.148	1.001	717164	WORD_OFF	n/a	n/a	CORN	Vegetables	3	6	[0, 0, 0]	n/a	catFR1	1	R1495J
638.149	1.617	718156	WORD	n/a	wordpools/wordpool_categorized_EN.txt	CELERY	Vegetables	4	6	[0, 0, 0]	n/a	catFR1	1	R1495J
639.766	0.964	719771	WORD_OFF	n/a	n/a	CELERY	Vegetables	4	6	[0, 0, 0]	n/a	catFR1	1	R1495J
640.73	1.603	720738	WORD	n/a	wordpools/wordpool_categorized_EN.txt	STREAM	Landscapes	5	6	[0, 0, 0]	n/a	catFR1	1	R1495J
642.333	0.999	722340	WORD_OFF	n/a	n/a	STREAM	Landscapes	5	6	[0, 0, 0]	n/a	catFR1	1	R1495J
643.332	1.601	723345	WORD	n/a	wordpools/wordpool_categorized_EN.txt	HILLS	Landscapes	6	6	[0, 0, 0]	n/a	catFR1	1	R1495J
644.933	0.916	724947	WORD_OFF	n/a	n/a	HILLS	Landscapes	6	6	[0, 0, 0]	n/a	catFR1	1	R1495J
645.849	1.616	725863	WORD	n/a	wordpools/wordpool_categorized_EN.txt	BROCCOLI	Vegetables	7	6	[0, 0, 0]	n/a	catFR1	1	R1495J
647.465	0.85	727478	WORD_OFF	n/a	n/a	BROCCOLI	Vegetables	7	6	[0, 0, 0]	n/a	catFR1	1	R1495J
648.315	1.601	728330	WORD	n/a	wordpools/wordpool_categorized_EN.txt	ONION	Vegetables	8	6	[0, 0, 0]	n/a	catFR1	1	R1495J
649.916	0.9	729920	WORD_OFF	n/a	n/a	ONION	Vegetables	8	6	[0, 0, 0]	n/a	catFR1	1	R1495J
650.816	1.617	730823	WORD	n/a	wordpools/wordpool_categorized_EN.txt	PEAR	Fruit	9	6	[0, 0, 0]	n/a	catFR1	1	R1495J
652.433	0.95	732438	WORD_OFF	n/a	n/a	PEAR	Fruit	9	6	[0, 0, 0]	n/a	catFR1	1	R1495J
653.383	1.6	733392	WORD	n/a	wordpools/wordpool_categorized_EN.txt	BLUEBERRY	Fruit	10	6	[0, 0, 0]	n/a	catFR1	1	R1495J
654.983	0.9	734995	WORD_OFF	n/a	n/a	BLUEBERRY	Fruit	10	6	[0, 0, 0]	n/a	catFR1	1	R1495J
655.883	1.6	735898	WORD	n/a	wordpools/wordpool_categorized_EN.txt	VALLEY	Landscapes	11	6	[0, 0, 0]	n/a	catFR1	1	R1495J
657.483	0.999	737487	WORD_OFF	n/a	n/a	VALLEY	Landscapes	11	6	[0, 0, 0]	n/a	catFR1	1	R1495J
658.482	1.601	738492	WORD	n/a	wordpools/wordpool_categorized_EN.txt	MOUNTAIN	Landscapes	12	6	[0, 0, 0]	n/a	catFR1	1	R1495J
660.083	0.001	740087	PROB	0.001	n/a	n/a	n/a	-999	6	[5, 8, 4]	17	catFR1	1	R1495J
660.084	0.0	740088	START	n/a	n/a	n/a	n/a	-999	6	[-999, -999, -999]	n/a	catFR1	1	R1495J
660.083	0.001	740094	WORD_OFF	n/a	n/a	MOUNTAIN	Landscapes	12	6	[0, 0, 0]	n/a	catFR1	1	R1495J
660.084	0.0	740094	ENCODING_END	n/a	n/a	n/a	n/a	-999	6	[0, 0, 0]	n/a	catFR1	1	R1495J
660.084	3.748	740094	DISTRACT_START	n/a	n/a	n/a	n/a	-999	6	[0, 0, 0]	n/a	catFR1	1	R1495J
663.832	5.75	743836	PROB	5.75	n/a	n/a	n/a	-999	6	[3, 6, 8]	17	catFR1	1	R1495J
669.582	2.3	749586	PROB	2.3	n/a	n/a	n/a	-999	6	[8, 2, 1]	11	catFR1	1	R1495J
671.882	4.784	751886	PROB	4.784	n/a	n/a	n/a	-999	6	[7, 1, 8]	16	catFR1	1	R1495J
676.666	4.149	756670	PROB	4.149	n/a	n/a	n/a	-999	6	[4, 3, 6]	13	catFR1	1	R1495J
680.815	0.0	760818	STOP	n/a	n/a	n/a	n/a	-999	6	[-999, -999, -999]	n/a	catFR1	1	R1495J
680.815	1.384	760825	DISTRACT_END	n/a	n/a	n/a	n/a	-999	6	[0, 0, 0]	n/a	catFR1	1	R1495J
682.199	1.989	762211	REC_START	n/a	n/a	n/a	n/a	-999	6	[0, 0, 0]	n/a	catFR1	1	R1495J
684.188	0.729	764191	REC_WORD	0.729	n/a	HILLS	Landscapes	6	6	[0, 0, 0]	n/a	catFR1	1	R1495J
684.917	1.863	764920	REC_WORD	1.863	n/a	PINE	Trees	-999	6	[0, 0, 0]	n/a	catFR1	1	R1495J
686.78	8.692	766783	REC_WORD	8.692	n/a	VALLEY	Landscapes	11	6	[0, 0, 0]	n/a	catFR1	1	R1495J
695.472	3.606	775475	REC_WORD	3.606	n/a	STREAM	Landscapes	5	6	[0, 0, 0]	n/a	catFR1	1	R1495J
699.078	1.611	779081	REC_WORD	1.611	n/a	BROCCOLI	Vegetables	7	6	[0, 0, 0]	n/a	catFR1	1	R1495J
700.689	12.744	780692	REC_WORD	12.744	n/a	CELERY	Vegetables	4	6	[0, 0, 0]	n/a	catFR1	1	R1495J
713.433	1.333	793446	REC_END	n/a	n/a	n/a	n/a	-999	6	[0, 0, 0]	n/a	catFR1	1	R1495J
714.766	10.35	794769	COUNTDOWN_START	n/a	n/a	n/a	n/a	-999	6	[0, 0, 0]	n/a	catFR1	1	R1495J
725.116	0.0	805121	COUNTDOWN_END	n/a	n/a	n/a	n/a	-999	6	[0, 0, 0]	n/a	catFR1	1	R1495J
725.116	1.816	805121	ENCODING_START	n/a	n/a	n/a	n/a	-999	7	[0, 0, 0]	n/a	catFR1	1	R1495J
726.932	1.601	806940	WORD	n/a	wordpools/wordpool_categorized_EN.txt	DRYER	Appliances	1	7	[0, 0, 0]	n/a	catFR1	1	R1495J
728.533	0.915	808542	WORD_OFF	n/a	n/a	DRYER	Appliances	1	7	[0, 0, 0]	n/a	catFR1	1	R1495J
729.448	1.601	809458	WORD	n/a	wordpools/wordpool_categorized_EN.txt	WASHER	Appliances	2	7	[0, 0, 0]	n/a	catFR1	1	R1495J
731.049	0.967	811061	WORD_OFF	n/a	n/a	WASHER	Appliances	2	7	[0, 0, 0]	n/a	catFR1	1	R1495J
732.016	1.6	812027	WORD	n/a	wordpools/wordpool_categorized_EN.txt	ROOSTER	FarmAnimals	3	7	[0, 0, 0]	n/a	catFR1	1	R1495J
733.616	0.882	813617	WORD_OFF	n/a	n/a	ROOSTER	FarmAnimals	3	7	[0, 0, 0]	n/a	catFR1	1	R1495J
734.498	1.601	814507	WORD	n/a	wordpools/wordpool_categorized_EN.txt	CHICKEN	FarmAnimals	4	7	[0, 0, 0]	n/a	catFR1	1	R1495J
736.099	0.817	816110	WORD_OFF	n/a	n/a	CHICKEN	FarmAnimals	4	7	[0, 0, 0]	n/a	catFR1	1	R1495J
736.916	1.617	816924	WORD	n/a	wordpools/wordpool_categorized_EN.txt	THUNDER	Weather	5	7	[0, 0, 0]	n/a	catFR1	1	R1495J
738.533	0.766	818539	WORD_OFF	n/a	n/a	THUNDER	Weather	5	7	[0, 0, 0]	n/a	catFR1	1	R1495J
739.299	1.6	819302	WORD	n/a	wordpools/wordpool_categorized_EN.txt	FOG	Weather	6	7	[0, 0, 0]	n/a	catFR1	1	R1495J
740.899	0.9	820904	WORD_OFF	n/a	n/a	FOG	Weather	6	7	[0, 0, 0]	n/a	catFR1	1	R1495J
741.799	1.617	821807	WORD	n/a	wordpools/wordpool_categorized_EN.txt	LAMB	FarmAnimals	7	7	[0, 0, 0]	n/a	catFR1	1	R1495J
743.416	0.817	823422	WORD_OFF	n/a	n/a	LAMB	FarmAnimals	7	7	[0, 0, 0]	n/a	catFR1	1	R1495J
744.233	1.615	824236	WORD	n/a	wordpools/wordpool_categorized_EN.txt	PIG	FarmAnimals	8	7	[0, 0, 0]	n/a	catFR1	1	R1495J
745.848	0.985	825852	WORD_OFF	n/a	n/a	PIG	FarmAnimals	8	7	[0, 0, 0]	n/a	catFR1	1	R1495J
746.833	1.615	826844	WORD	n/a	wordpools/wordpool_categorized_EN.txt	CLOUD	Weather	9	7	[0, 0, 0]	n/a	catFR1	1	R1495J
748.448	0.935	828459	WORD_OFF	n/a	n/a	CLOUD	Weather	9	7	[0, 0, 0]	n/a	catFR1	1	R1495J
749.383	1.615	829387	WORD	n/a	wordpools/wordpool_categorized_EN.txt	HURRICANE	Weather	10	7	[0, 0, 0]	n/a	catFR1	1	R1495J
750.998	0.901	831002	WORD_OFF	n/a	n/a	HURRICANE	Weather	10	7	[0, 0, 0]	n/a	catFR1	1	R1495J
751.899	1.617	831905	WORD	n/a	wordpools/wordpool_categorized_EN.txt	TOASTER	Appliances	11	7	[0, 0, 0]	n/a	catFR1	1	R1495J
753.516	0.95	833520	WORD_OFF	n/a	n/a	TOASTER	Appliances	11	7	[0, 0, 0]	n/a	catFR1	1	R1495J
754.466	1.616	834474	WORD	n/a	wordpools/wordpool_categorized_EN.txt	DISHWASHER	Appliances	12	7	[0, 0, 0]	n/a	catFR1	1	R1495J
756.082	0.005	836082	PROB	0.005	n/a	n/a	n/a	-999	7	[2, 7, 7]	16	catFR1	1	R1495J
756.087	0.0	836087	START	n/a	n/a	n/a	n/a	-999	7	[-999, -999, -999]	n/a	catFR1	1	R1495J
756.086	0.001	836090	WORD_OFF	n/a	n/a	DISHWASHER	Appliances	12	7	[0, 0, 0]	n/a	catFR1	1	R1495J
756.087	0.0	836090	ENCODING_END	n/a	n/a	n/a	n/a	-999	7	[0, 0, 0]	n/a	catFR1	1	R1495J
756.087	3.395	836090	DISTRACT_START	n/a	n/a	n/a	n/a	-999	7	[0, 0, 0]	n/a	catFR1	1	R1495J
759.482	2.984	839482	PROB	2.984	n/a	n/a	n/a	-999	7	[3, 8, 1]	12	catFR1	1	R1495J
762.466	3.6	842466	PROB	3.6	n/a	n/a	n/a	-999	7	[8, 4, 3]	15	catFR1	1	R1495J
766.066	2.467	846066	PROB	2.467	n/a	n/a	n/a	-999	7	[4, 1, 6]	11	catFR1	1	R1495J
768.533	2.433	848533	PROB	2.433	n/a	n/a	n/a	-999	7	[5, 3, 3]	11	catFR1	1	R1495J
770.966	3.05	850966	PROB	3.05	n/a	n/a	n/a	-999	7	[3, 4, 5]	12	catFR1	1	R1495J
774.016	3.015	854016	PROB	3.015	n/a	n/a	n/a	-999	7	[8, 1, 8]	17	catFR1	1	R1495J
777.031	0.0	857030	STOP	n/a	n/a	n/a	n/a	-999	7	[-999, -999, -999]	n/a	catFR1	1	R1495J
777.031	1.233	857036	DISTRACT_END	n/a	n/a	n/a	n/a	-999	7	[0, 0, 0]	n/a	catFR1	1	R1495J
778.264	0.459	858270	REC_START	n/a	n/a	n/a	n/a	-999	7	[0, 0, 0]	n/a	catFR1	1	R1495J
778.723	0.589	858722	REC_WORD	0.589	n/a	FOG	Weather	6	7	[0, 0, 0]	n/a	catFR1	1	R1495J
779.312	1.828	859311	REC_WORD	1.828	n/a	THUNDERSTORM	n/a	-999	7	[0, 0, 0]	n/a	catFR1	1	R1495J
781.14	28.344	861139	REC_WORD	28.344	n/a	HURRICANE	Weather	10	7	[0, 0, 0]	n/a	catFR1	1	R1495J
809.484	1.464	889492	REC_END	n/a	n/a	n/a	n/a	-999	7	[0, 0, 0]	n/a	catFR1	1	R1495J
810.948	10.351	890955	COUNTDOWN_START	n/a	n/a	n/a	n/a	-999	7	[0, 0, 0]	n/a	catFR1	1	R1495J
821.299	0.001	901307	COUNTDOWN_END	n/a	n/a	n/a	n/a	-999	7	[0, 0, 0]	n/a	catFR1	1	R1495J
821.3	1.984	901307	ENCODING_START	n/a	n/a	n/a	n/a	-999	8	[0, 0, 0]	n/a	catFR1	1	R1495J
823.284	1.599	903291	WORD	n/a	wordpools/wordpool_categorized_EN.txt	PRINTER	Electronics	1	8	[0, 0, 0]	n/a	catFR1	1	R1495J
824.883	0.766	904881	WORD_OFF	n/a	n/a	PRINTER	Electronics	1	8	[0, 0, 0]	n/a	catFR1	1	R1495J
825.649	1.617	905657	WORD	n/a	wordpools/wordpool_categorized_EN.txt	HEADPHONES	Electronics	2	8	[0, 0, 0]	n/a	catFR1	1	R1495J
827.266	0.884	907272	WORD_OFF	n/a	n/a	HEADPHONES	Electronics	2	8	[0, 0, 0]	n/a	catFR1	1	R1495J
828.15	1.615	908149	WORD	n/a	wordpools/wordpool_categorized_EN.txt	BEE	Insects	3	8	[0, 0, 0]	n/a	catFR1	1	R1495J
829.765	0.834	909764	WORD_OFF	n/a	n/a	BEE	Insects	3	8	[0, 0, 0]	n/a	catFR1	1	R1495J
830.599	1.6	910604	WORD	n/a	wordpools/wordpool_categorized_EN.txt	GNAT	Insects	4	8	[0, 0, 0]	n/a	catFR1	1	R1495J
832.199	0.85	912206	WORD_OFF	n/a	n/a	GNAT	Insects	4	8	[0, 0, 0]	n/a	catFR1	1	R1495J
833.049	1.616	913046	WORD	n/a	wordpools/wordpool_categorized_EN.txt	DESK	Furniture	5	8	[0, 0, 0]	n/a	catFR1	1	R1495J
834.665	0.918	914661	WORD_OFF	n/a	n/a	DESK	Furniture	5	8	[0, 0, 0]	n/a	catFR1	1	R1495J
835.583	1.615	915589	WORD	n/a	wordpools/wordpool_categorized_EN.txt	RECLINER	Furniture	6	8	[0, 0, 0]	n/a	catFR1	1	R1495J
837.198	0.818	917204	WORD_OFF	n/a	n/a	RECLINER	Furniture	6	8	[0, 0, 0]	n/a	catFR1	1	R1495J
838.016	1.6	918018	WORD	n/a	wordpools/wordpool_categorized_EN.txt	SCANNER	Electronics	7	8	[0, 0, 0]	n/a	catFR1	1	R1495J
839.616	0.85	919621	WORD_OFF	n/a	n/a	SCANNER	Electronics	7	8	[0, 0, 0]	n/a	catFR1	1	R1495J
840.466	1.6	920473	WORD	n/a	wordpools/wordpool_categorized_EN.txt	TABLET	Electronics	8	8	[0, 0, 0]	n/a	catFR1	1	R1495J
842.066	0.783	922063	WORD_OFF	n/a	n/a	TABLET	Electronics	8	8	[0, 0, 0]	n/a	catFR1	1	R1495J
842.849	1.6	922851	WORD	n/a	wordpools/wordpool_categorized_EN.txt	BED	Furniture	9	8	[0, 0, 0]	n/a	catFR1	1	R1495J
844.449	0.884	924454	WORD_OFF	n/a	n/a	BED	Furniture	9	8	[0, 0, 0]	n/a	catFR1	1	R1495J
845.333	1.6	925331	WORD	n/a	wordpools/wordpool_categorized_EN.txt	NIGHTSTAND	Furniture	10	8	[0, 0, 0]	n/a	catFR1	1	R1495J
846.933	0.95	926934	WORD_OFF	n/a	n/a	NIGHTSTAND	Furniture	10	8	[0, 0, 0]	n/a	catFR1	1	R1495J
847.883	1.616	927888	WORD	n/a	wordpools/wordpool_categorized_EN.txt	MOSQUITO	Insects	11	8	[0, 0, 0]	n/a	catFR1	1	R1495J
849.499	0.785	929503	WORD_OFF	n/a	n/a	MOSQUITO	Insects	11	8	[0, 0, 0]	n/a	catFR1	1	R1495J
850.284	1.615	930291	WORD	n/a	wordpools/wordpool_categorized_EN.txt	MOTH	Insects	12	8	[0, 0, 0]	n/a	catFR1	1	R1495J
851.899	0.002	931895	PROB	0.002	n/a	n/a	n/a	-999	8	[8, 6, 5]	19	catFR1	1	R1495J
851.901	0.0	931897	START	n/a	n/a	n/a	n/a	-999	8	[-999, -999, -999]	n/a	catFR1	1	R1495J
851.899	0.002	931906	WORD_OFF	n/a	n/a	MOTH	Insects	12	8	[0, 0, 0]	n/a	catFR1	1	R1495J
851.901	0.0	931906	ENCODING_END	n/a	n/a	n/a	n/a	-999	8	[0, 0, 0]	n/a	catFR1	1	R1495J
851.901	4.415	931906	DISTRACT_START	n/a	n/a	n/a	n/a	-999	8	[0, 0, 0]	n/a	catFR1	1	R1495J
856.316	3.284	936312	PROB	3.284	n/a	n/a	n/a	-999	8	[4, 1, 3]	8	catFR1	1	R1495J
859.6	4.782	939596	PROB	4.782	n/a	n/a	n/a	-999	8	[4, 7, 8]	19	catFR1	1	R1495J
864.382	3.384	944378	PROB	3.384	n/a	n/a	n/a	-999	8	[8, 8, 4]	16	catFR1	1	R1495J
867.766	4.499	947762	PROB	4.499	n/a	n/a	n/a	-999	8	[2, 3, 6]	11	catFR1	1	R1495J
872.265	0.0	952261	STOP	n/a	n/a	n/a	n/a	-999	8	[-999, -999, -999]	n/a	catFR1	1	R1495J
872.265	1.051	952268	DISTRACT_END	n/a	n/a	n/a	n/a	-999	8	[0, 0, 0]	n/a	catFR1	1	R1495J
873.316	4.383	953311	REC_START	n/a	n/a	n/a	n/a	-999	8	[0, 0, 0]	n/a	catFR1	1	R1495J
877.699	0.629	957694	REC_WORD	0.629	n/a	TABLE	n/a	-999	8	[0, 0, 0]	n/a	catFR1	1	R1495J
878.328	16.035	958323	REC_WORD	16.035	n/a	TABLECLOTH	n/a	-999	8	[0, 0, 0]	n/a	catFR1	1	R1495J
894.363	4.548	974358	REC_WORD	4.548	n/a	MOTH	Insects	12	8	[0, 0, 0]	n/a	catFR1	1	R1495J
898.911	5.634	978905	REC_WORD	5.634	n/a	MOSQUITO	Insects	11	8	[0, 0, 0]	n/a	catFR1	1	R1495J
904.545	1.438	984546	REC_END	n/a	n/a	n/a	n/a	-999	8	[0, 0, 0]	n/a	catFR1	1	R1495J
905.983	10.35	985983	COUNTDOWN_START	n/a	n/a	n/a	n/a	-999	8	[0, 0, 0]	n/a	catFR1	1	R1495J
916.333	0.0	996336	COUNTDOWN_END	n/a	n/a	n/a	n/a	-999	8	[0, 0, 0]	n/a	catFR1	1	R1495J
916.333	1.981	996336	ENCODING_START	n/a	n/a	n/a	n/a	-999	9	[0, 0, 0]	n/a	catFR1	1	R1495J
918.314	1.601	998315	WORD	n/a	wordpools/wordpool_categorized_EN.txt	BUTTERFLY	Insects	1	9	[0, 0, 0]	n/a	catFR1	1	R1495J
919.915	1.001	999909	WORD_OFF	n/a	n/a	BUTTERFLY	Insects	1	9	[0, 0, 0]	n/a	catFR1	1	R1495J
920.916	1.6	1000914	WORD	n/a	wordpools/wordpool_categorized_EN.txt	CRICKET	Insects	2	9	[0, 0, 0]	n/a	catFR1	1	R1495J
922.516	0.966	1002516	WORD_OFF	n/a	n/a	CRICKET	Insects	2	9	[0, 0, 0]	n/a	catFR1	1	R1495J
923.482	1.601	1003483	WORD	n/a	wordpools/wordpool_categorized_EN.txt	LEVEL	Tools	3	9	[0, 0, 0]	n/a	catFR1	1	R1495J
925.083	0.849	1005085	WORD_OFF	n/a	n/a	LEVEL	Tools	3	9	[0, 0, 0]	n/a	catFR1	1	R1495J
925.932	1.616	1005925	WORD	n/a	wordpools/wordpool_categorized_EN.txt	WRENCH	Tools	4	9	[0, 0, 0]	n/a	catFR1	1	R1495J
927.548	0.968	1007540	WORD_OFF	n/a	n/a	WRENCH	Tools	4	9	[0, 0, 0]	n/a	catFR1	1	R1495J
928.516	1.616	1008519	WORD	n/a	wordpools/wordpool_categorized_EN.txt	LIGHTNING	Weather	5	9	[0, 0, 0]	n/a	catFR1	1	R1495J
930.132	1.001	1010134	WORD_OFF	n/a	n/a	LIGHTNING	Weather	5	9	[0, 0, 0]	n/a	catFR1	1	R1495J
931.133	1.599	1011126	WORD	n/a	wordpools/wordpool_categorized_EN.txt	WIND	Weather	6	9	[0, 0, 0]	n/a	catFR1	1	R1495J
932.732	1.0	1012729	WORD_OFF	n/a	n/a	WIND	Weather	6	9	[0, 0, 0]	n/a	catFR1	1	R1495J
933.732	1.601	1013734	WORD	n/a	wordpools/wordpool_categorized_EN.txt	SAW	Tools	7	9	[0, 0, 0]	n/a	catFR1	1	R1495J
935.333	0.899	1015336	WORD_OFF	n/a	n/a	SAW	Tools	7	9	[0, 0, 0]	n/a	catFR1	1	R1495J
936.232	1.6	1016226	WORD	n/a	wordpools/wordpool_categorized_EN.txt	PLIERS	Tools	8	9	[0, 0, 0]	n/a	catFR1	1	R1495J
937.832	0.934	1017829	WORD_OFF	n/a	n/a	PLIERS	Tools	8	9	[0, 0, 0]	n/a	catFR1	1	R1495J
938.766	1.6	1018770	WORD	n/a	wordpools/wordpool_categorized_EN.txt	SPIDER	Insects	9	9	[0, 0, 0]	n/a	catFR1	1	R1495J
940.366	0.982	1020360	WORD_OFF	n/a	n/a	SPIDER	Insects	9	9	[0, 0, 0]	n/a	catFR1	1	R1495J
941.348	1.601	1021352	WORD	n/a	wordpools/wordpool_categorized_EN.txt	LADYBUG	Insects	10	9	[0, 0, 0]	n/a	catFR1	1	R1495J
942.949	0.9	1022941	WORD_OFF	n/a	n/a	LADYBUG	Insects	10	9	[0, 0, 0]	n/a	catFR1	1	R1495J
943.849	1.6	1023844	WORD	n/a	wordpools/wordpool_categorized_EN.txt	RAIN	Weather	11	9	[0, 0, 0]	n/a	catFR1	1	R1495J
945.449	0.965	1025447	WORD_OFF	n/a	n/a	RAIN	Weather	11	9	[0, 0, 0]	n/a	catFR1	1	R1495J
946.414	1.602	1026413	WORD	n/a	wordpools/wordpool_categorized_EN.txt	THUNDERSTORM	Weather	12	9	[0, 0, 0]	n/a	catFR1	1	R1495J
948.016	0.002	1028008	PROB	0.002	n/a	n/a	n/a	-999	9	[7, 2, 6]	15	catFR1	1	R1495J
948.018	0.0	1028010	START	n/a	n/a	n/a	n/a	-999	9	[-999, -999, -999]	n/a	catFR1	1	R1495J
948.016	0.002	1028016	WORD_OFF	n/a	n/a	THUNDERSTORM	Weather	12	9	[0, 0, 0]	n/a	catFR1	1	R1495J
948.018	0.0	1028016	ENCODING_END	n/a	n/a	n/a	n/a	-999	9	[0, 0, 0]	n/a	catFR1	1	R1495J
948.018	3.849	1028016	DISTRACT_START	n/a	n/a	n/a	n/a	-999	9	[0, 0, 0]	n/a	catFR1	1	R1495J
951.867	2.733	1031859	PROB	2.733	n/a	n/a	n/a	-999	9	[7, 2, 1]	10	catFR1	1	R1495J
954.6	2.616	1034592	PROB	2.616	n/a	n/a	n/a	-999	9	[6, 1, 3]	10	catFR1	1	R1495J
957.216	5.033	1037208	PROB	5.033	n/a	n/a	n/a	-999	9	[8, 8, 7]	23	catFR1	1	R1495J
962.249	4.55	1042241	PROB	4.55	n/a	n/a	n/a	-999	9	[7, 4, 2]	13	catFR1	1	R1495J
966.799	2.8	1046791	PROB	2.8	n/a	n/a	n/a	-999	9	[4, 2, 5]	11	catFR1	1	R1495J
969.599	0.0	1049590	STOP	n/a	n/a	n/a	n/a	-999	9	[-999, -999, -999]	n/a	catFR1	1	R1495J
969.599	1.1	1049598	DISTRACT_END	n/a	n/a	n/a	n/a	-999	9	[0, 0, 0]	n/a	catFR1	1	R1495J
970.699	1.882	1050692	REC_START	n/a	n/a	n/a	n/a	-999	9	[0, 0, 0]	n/a	catFR1	1	R1495J
972.581	3.213	1052572	REC_WORD	3.213	n/a	THUNDERSTORM	Weather	12	9	[0, 0, 0]	n/a	catFR1	1	R1495J
975.794	26.146	1055785	REC_WORD	26.146	n/a	TABLE	n/a	-999	9	[0, 0, 0]	n/a	catFR1	1	R1495J
1001.94	1.442	1081940	REC_END	n/a	n/a	n/a	n/a	-999	9	[0, 0, 0]	n/a	catFR1	1	R1495J
1003.382	10.351	1083377	COUNTDOWN_START	n/a	n/a	n/a	n/a	-999	9	[0, 0, 0]	n/a	catFR1	1	R1495J
1013.733	0.0	1093729	COUNTDOWN_END	n/a	n/a	n/a	n/a	-999	9	[0, 0, 0]	n/a	catFR1	1	R1495J
1013.733	1.899	1093729	ENCODING_START	n/a	n/a	n/a	n/a	-999	10	[0, 0, 0]	n/a	catFR1	1	R1495J
1015.632	1.617	1095624	WORD	n/a	wordpools/wordpool_categorized_EN.txt	KNEE	BodyParts	1	10	[0, 0, 0]	n/a	catFR1	1	R1495J
1017.249	0.8	1097240	WORD_OFF	n/a	n/a	KNEE	BodyParts	1	10	[0, 0, 0]	n/a	catFR1	1	R1495J
1018.049	1.615	1098041	WORD	n/a	wordpools/wordpool_categorized_EN.txt	ARM	BodyParts	2	10	[0, 0, 0]	n/a	catFR1	1	R1495J
1019.664	0.901	1099656	WORD_OFF	n/a	n/a	ARM	BodyParts	2	10	[0, 0, 0]	n/a	catFR1	1	R1495J
1020.565	1.616	1100559	WORD	n/a	wordpools/wordpool_categorized_EN.txt	IRON	Appliances	3	10	[0, 0, 0]	n/a	catFR1	1	R1495J
1022.181	0.933	1102174	WORD_OFF	n/a	n/a	IRON	Appliances	3	10	[0, 0, 0]	n/a	catFR1	1	R1495J
1023.114	1.6	1103103	WORD	n/a	wordpools/wordpool_categorized_EN.txt	OVEN	Appliances	4	10	[0, 0, 0]	n/a	catFR1	1	R1495J
1024.714	0.984	1104705	WORD_OFF	n/a	n/a	OVEN	Appliances	4	10	[0, 0, 0]	n/a	catFR1	1	R1495J
1025.698	1.601	1105697	WORD	n/a	wordpools/wordpool_categorized_EN.txt	FLOOR	Building	5	10	[0, 0, 0]	n/a	catFR1	1	R1495J
1027.299	0.817	1107287	WORD_OFF	n/a	n/a	FLOOR	Building	5	10	[0, 0, 0]	n/a	catFR1	1	R1495J
1028.116	1.6	1108113	WORD	n/a	wordpools/wordpool_categorized_EN.txt	ATTIC	Building	6	10	[0, 0, 0]	n/a	catFR1	1	R1495J
1029.716	0.917	1109703	WORD_OFF	n/a	n/a	ATTIC	Building	6	10	[0, 0, 0]	n/a	catFR1	1	R1495J
1030.633	1.6	1110632	WORD	n/a	wordpools/wordpool_categorized_EN.txt	BLENDER	Appliances	7	10	[0, 0, 0]	n/a	catFR1	1	R1495J
1032.233	0.783	1112221	WORD_OFF	n/a	n/a	BLENDER	Appliances	7	10	[0, 0, 0]	n/a	catFR1	1	R1495J
1033.016	1.616	1113010	WORD	n/a	wordpools/wordpool_categorized_EN.txt	VACUUM	Appliances	8	10	[0, 0, 0]	n/a	catFR1	1	R1495J
1034.632	0.967	1114625	WORD_OFF	n/a	n/a	VACUUM	Appliances	8	10	[0, 0, 0]	n/a	catFR1	1	R1495J
1035.599	1.601	1115592	WORD	n/a	wordpools/wordpool_categorized_EN.txt	HAND	BodyParts	9	10	[0, 0, 0]	n/a	catFR1	1	R1495J
1037.2	0.899	1117194	WORD_OFF	n/a	n/a	HAND	BodyParts	9	10	[0, 0, 0]	n/a	catFR1	1	R1495J
1038.099	1.617	1118097	WORD	n/a	wordpools/wordpool_categorized_EN.txt	FINGERS	BodyParts	10	10	[0, 0, 0]	n/a	catFR1	1	R1495J
1039.716	0.766	1119712	WORD_OFF	n/a	n/a	FINGERS	BodyParts	10	10	[0, 0, 0]	n/a	catFR1	1	R1495J
1040.482	1.6	1120475	WORD	n/a	wordpools/wordpool_categorized_EN.txt	FOUNDATION	Building	11	10	[0, 0, 0]	n/a	catFR1	1	R1495J
1042.082	0.783	1122078	WORD_OFF	n/a	n/a	FOUNDATION	Building	11	10	[0, 0, 0]	n/a	catFR1	1	R1495J
1042.865	1.602	1122854	WORD	n/a	wordpools/wordpool_categorized_EN.txt	CEILING	Building	12	10	[0, 0, 0]	n/a	catFR1	1	R1495J
1044.467	0.0	1124455	START	n/a	n/a	n/a	n/a	-999	10	[-999, -999, -999]	n/a	catFR1	1	R1495J
1044.467	0.0	1124455	PROB	0.0	n/a	n/a	n/a	-999	10	[1, 2, 2]	5	catFR1	1	R1495J
1044.466	0.001	1124456	WORD_OFF	n/a	n/a	CEILING	Building	12	10	[0, 0, 0]	n/a	catFR1	1	R1495J
1044.467	0.0	1124456	ENCODING_END	n/a	n/a	n/a	n/a	-999	10	[0, 0, 0]	n/a	catFR1	1	R1495J
1044.467	2.816	1124469	DISTRACT_START	n/a	n/a	n/a	n/a	-999	10	[0, 0, 0]	n/a	catFR1	1	R1495J
1047.283	2.865	1127271	PROB	2.865	n/a	n/a	n/a	-999	10	[8, 1, 8]	17	catFR1	1	R1495J
1050.148	5.751	1130136	PROB	5.751	n/a	n/a	n/a	-999	10	[6, 8, 8]	24	catFR1	1	R1495J
1055.899	3.118	1135887	PROB	3.118	n/a	n/a	n/a	-999	10	[4, 4, 6]	14	catFR1	1	R1495J
1059.017	3.198	1139005	PROB	3.198	n/a	n/a	n/a	-999	10	[1, 4, 8]	13	catFR1	1	R1495J
1062.215	6.433	1142203	PROB	6.433	n/a	n/a	n/a	-999	10	[8, 4, 8]	20	catFR1	1	R1495J
1068.648	0.0	1148635	STOP	n/a	n/a	n/a	n/a	-999	10	[-999, -999, -999]	n/a	catFR1	1	R1495J
1068.648	1.25	1148646	DISTRACT_END	n/a	n/a	n/a	n/a	-999	10	[0, 0, 0]	n/a	catFR1	1	R1495J
1069.898	1.83	1149892	REC_START	n/a	n/a	n/a	n/a	-999	10	[0, 0, 0]	n/a	catFR1	1	R1495J
1071.728	0.81	1151715	REC_WORD	0.81	n/a	KNEE	BodyParts	1	10	[0, 0, 0]	n/a	catFR1	1	R1495J
1072.538	3.461	1152525	REC_WORD	3.461	n/a	ARM	BodyParts	2	10	[0, 0, 0]	n/a	catFR1	1	R1495J
1075.999	9.754	1155986	REC_WORD	9.754	n/a	LEG	n/a	-999	10	[0, 0, 0]	n/a	catFR1	1	R1495J
1085.753	1.382	1165740	REC_WORD	1.382	n/a	ATTIC	Building	6	10	[0, 0, 0]	n/a	catFR1	1	R1495J
1087.135	5.68	1167122	REC_WORD	5.68	n/a	FLOOR	Building	5	10	[0, 0, 0]	n/a	catFR1	1	R1495J
1092.815	3.879	1172801	REC_WORD	3.879	n/a	IRON	Appliances	3	10	[0, 0, 0]	n/a	catFR1	1	R1495J
1096.694	4.436	1176680	REC_WORD	4.436	n/a	CEILING	Building	12	10	[0, 0, 0]	n/a	catFR1	1	R1495J
1101.13	1.486	1181127	REC_END	n/a	n/a	n/a	n/a	-999	10	[0, 0, 0]	n/a	catFR1	1	R1495J
1102.616	10.349	1182615	COUNTDOWN_START	n/a	n/a	n/a	n/a	-999	10	[0, 0, 0]	n/a	catFR1	1	R1495J
1112.965	0.0	1192955	COUNTDOWN_END	n/a	n/a	n/a	n/a	-999	10	[0, 0, 0]	n/a	catFR1	1	R1495J
1112.965	2.118	1192955	ENCODING_START	n/a	n/a	n/a	n/a	-999	11	[0, 0, 0]	n/a	catFR1	1	R1495J
1115.083	1.616	1195079	WORD	n/a	wordpools/wordpool_categorized_EN.txt	FOOT	BodyParts	1	11	[0, 0, 0]	n/a	catFR1	1	R1495J
1116.699	0.766	1196694	WORD_OFF	n/a	n/a	FOOT	BodyParts	1	11	[0, 0, 0]	n/a	catFR1	1	R1495J
1117.465	1.601	1197457	WORD	n/a	wordpools/wordpool_categorized_EN.txt	EYE	BodyParts	2	11	[0, 0, 0]	n/a	catFR1	1	R1495J
1119.066	0.933	1199059	WORD_OFF	n/a	n/a	EYE	BodyParts	2	11	[0, 0, 0]	n/a	catFR1	1	R1495J
1119.999	1.617	1199988	WORD	n/a	wordpools/wordpool_categorized_EN.txt	DOLPHIN	OceanAnimals	3	11	[0, 0, 0]	n/a	catFR1	1	R1495J
1121.616	0.966	1201603	WORD_OFF	n/a	n/a	DOLPHIN	OceanAnimals	3	11	[0, 0, 0]	n/a	catFR1	1	R1495J
1122.582	1.616	1202570	WORD	n/a	wordpools/wordpool_categorized_EN.txt	SHRIMP	OceanAnimals	4	11	[0, 0, 0]	n/a	catFR1	1	R1495J
1124.198	0.801	1204185	WORD_OFF	n/a	n/a	SHRIMP	OceanAnimals	4	11	[0, 0, 0]	n/a	catFR1	1	R1495J
1124.999	1.617	1204986	WORD	n/a	wordpools/wordpool_categorized_EN.txt	WINDOW	Building	5	11	[0, 0, 0]	n/a	catFR1	1	R1495J
1126.616	0.967	1206601	WORD_OFF	n/a	n/a	WINDOW	Building	5	11	[0, 0, 0]	n/a	catFR1	1	R1495J
1127.583	1.616	1207568	WORD	n/a	wordpools/wordpool_categorized_EN.txt	ROOF	Building	6	11	[0, 0, 0]	n/a	catFR1	1	R1495J
1129.199	1.0	1209184	WORD_OFF	n/a	n/a	ROOF	Building	6	11	[0, 0, 0]	n/a	catFR1	1	R1495J
1130.199	1.616	1210188	WORD	n/a	wordpools/wordpool_categorized_EN.txt	EAR	BodyParts	7	11	[0, 0, 0]	n/a	catFR1	1	R1495J
1131.815	0.784	1211803	WORD_OFF	n/a	n/a	EAR	BodyParts	7	11	[0, 0, 0]	n/a	catFR1	1	R1495J
1132.599	1.617	1212591	WORD	n/a	wordpools/wordpool_categorized_EN.txt	HEAD	BodyParts	8	11	[0, 0, 0]	n/a	catFR1	1	R1495J
1134.216	0.817	1214206	WORD_OFF	n/a	n/a	HEAD	BodyParts	8	11	[0, 0, 0]	n/a	catFR1	1	R1495J
1135.033	1.6	1215020	WORD	n/a	wordpools/wordpool_categorized_EN.txt	ROOM	Building	9	11	[0, 0, 0]	n/a	catFR1	1	R1495J
1136.633	0.883	1216623	WORD_OFF	n/a	n/a	ROOM	Building	9	11	[0, 0, 0]	n/a	catFR1	1	R1495J
1137.516	1.615	1217500	WORD	n/a	wordpools/wordpool_categorized_EN.txt	STAIRS	Building	10	11	[0, 0, 0]	n/a	catFR1	1	R1495J
1139.131	0.802	1219116	WORD_OFF	n/a	n/a	STAIRS	Building	10	11	[0, 0, 0]	n/a	catFR1	1	R1495J
1139.933	1.599	1219917	WORD	n/a	wordpools/wordpool_categorized_EN.txt	WHALE	OceanAnimals	11	11	[0, 0, 0]	n/a	catFR1	1	R1495J
1141.532	0.917	1221519	WORD_OFF	n/a	n/a	WHALE	OceanAnimals	11	11	[0, 0, 0]	n/a	catFR1	1	R1495J
1142.449	1.601	1222435	WORD	n/a	wordpools/wordpool_categorized_EN.txt	TURTLE	OceanAnimals	12	11	[0, 0, 0]	n/a	catFR1	1	R1495J
1144.05	0.002	1224034	PROB	0.002	n/a	n/a	n/a	-999	11	[2, 4, 7]	13	catFR1	1	R1495J
1144.052	0.0	1224036	START	n/a	n/a	n/a	n/a	-999	11	[-999, -999, -999]	n/a	catFR1	1	R1495J
1144.049	0.003	1224037	WORD_OFF	n/a	n/a	TURTLE	OceanAnimals	12	11	[0, 0, 0]	n/a	catFR1	1	R1495J
1144.052	0.0	1224037	ENCODING_END	n/a	n/a	n/a	n/a	-999	11	[0, 0, 0]	n/a	catFR1	1	R1495J
1144.052	4.947	1224037	DISTRACT_START	n/a	n/a	n/a	n/a	-999	11	[0, 0, 0]	n/a	catFR1	1	R1495J
1148.999	2.732	1228983	PROB	2.732	n/a	n/a	n/a	-999	11	[2, 5, 4]	11	catFR1	1	R1495J
1151.731	2.618	1231715	PROB	2.618	n/a	n/a	n/a	-999	11	[4, 1, 1]	6	catFR1	1	R1495J
1154.349	2.55	1234333	PROB	2.55	n/a	n/a	n/a	-999	11	[2, 7, 2]	11	catFR1	1	R1495J
1156.899	2.599	1236883	PROB	2.599	n/a	n/a	n/a	-999	11	[1, 1, 8]	10	catFR1	1	R1495J
1159.498	3.034	1239482	PROB	3.034	n/a	n/a	n/a	-999	11	[4, 1, 5]	10	catFR1	1	R1495J
1162.532	4.199	1242515	PROB	4.199	n/a	n/a	n/a	-999	11	[4, 8, 6]	18	catFR1	1	R1495J
1166.731	0.0	1246714	STOP	n/a	n/a	n/a	n/a	-999	11	[-999, -999, -999]	n/a	catFR1	1	R1495J
1166.731	1.034	1246726	DISTRACT_END	n/a	n/a	n/a	n/a	-999	11	[0, 0, 0]	n/a	catFR1	1	R1495J
1167.765	1.468	1247756	REC_START	n/a	n/a	n/a	n/a	-999	11	[0, 0, 0]	n/a	catFR1	1	R1495J
1169.233	1.346	1249216	REC_WORD	1.346	n/a	FLOOR	Building	-999	11	[0, 0, 0]	n/a	catFR1	1	R1495J
1170.579	2.489	1250562	REC_WORD	2.489	n/a	WHALE	OceanAnimals	11	11	[0, 0, 0]	n/a	catFR1	1	R1495J
1173.068	25.927	1253051	REC_WORD	25.927	n/a	CEILING	Building	-999	11	[0, 0, 0]	n/a	catFR1	1	R1495J
1198.995	1.621	1278979	REC_END	n/a	n/a	n/a	n/a	-999	11	[0, 0, 0]	n/a	catFR1	1	R1495J
1200.616	10.349	1280607	COUNTDOWN_START	n/a	n/a	n/a	n/a	-999	11	[0, 0, 0]	n/a	catFR1	1	R1495J
1210.965	0.0	1290947	COUNTDOWN_END	n/a	n/a	n/a	n/a	-999	11	[0, 0, 0]	n/a	catFR1	1	R1495J
1210.965	2.284	1290959	ENCODING_START	n/a	n/a	n/a	n/a	-999	12	[0, 0, 0]	n/a	catFR1	1	R1495J
1213.249	1.6	1293236	WORD	n/a	wordpools/wordpool_categorized_EN.txt	HAMMER	Tools	1	12	[0, 0, 0]	n/a	catFR1	1	R1495J
1214.849	0.85	1294838	WORD_OFF	n/a	n/a	HAMMER	Tools	1	12	[0, 0, 0]	n/a	catFR1	1	R1495J
1215.699	1.6	1295690	WORD	n/a	wordpools/wordpool_categorized_EN.txt	CROWBAR	Tools	2	12	[0, 0, 0]	n/a	catFR1	1	R1495J
1217.299	0.934	1297293	WORD_OFF	n/a	n/a	CROWBAR	Tools	2	12	[0, 0, 0]	n/a	catFR1	1	R1495J
1218.233	1.615	1298221	WORD	n/a	wordpools/wordpool_categorized_EN.txt	RIVER	Landscapes	3	12	[0, 0, 0]	n/a	catFR1	1	R1495J
1219.848	1.001	1299836	WORD_OFF	n/a	n/a	RIVER	Landscapes	3	12	[0, 0, 0]	n/a	catFR1	1	R1495J
1220.849	1.616	1300841	WORD	n/a	wordpools/wordpool_categorized_EN.txt	ISLAND	Landscapes	4	12	[0, 0, 0]	n/a	catFR1	1	R1495J
1222.465	0.834	1302456	WORD_OFF	n/a	n/a	ISLAND	Landscapes	4	12	[0, 0, 0]	n/a	catFR1	1	R1495J
1223.299	1.617	1303283	WORD	n/a	wordpools/wordpool_categorized_EN.txt	WALL	Building	5	12	[0, 0, 0]	n/a	catFR1	1	R1495J
1224.916	0.8	1304898	WORD_OFF	n/a	n/a	WALL	Building	5	12	[0, 0, 0]	n/a	catFR1	1	R1495J
1225.716	1.616	1305699	WORD	n/a	wordpools/wordpool_categorized_EN.txt	HALLWAY	Building	6	12	[0, 0, 0]	n/a	catFR1	1	R1495J
1227.332	0.802	1307315	WORD_OFF	n/a	n/a	HALLWAY	Building	6	12	[0, 0, 0]	n/a	catFR1	1	R1495J
1228.134	1.599	1308116	WORD	n/a	wordpools/wordpool_categorized_EN.txt	AXE	Tools	7	12	[0, 0, 0]	n/a	catFR1	1	R1495J
1229.733	1.0	1309718	WORD_OFF	n/a	n/a	AXE	Tools	7	12	[0, 0, 0]	n/a	catFR1	1	R1495J
1230.733	1.616	1310723	WORD	n/a	wordpools/wordpool_categorized_EN.txt	SANDER	Tools	8	12	[0, 0, 0]	n/a	catFR1	1	R1495J
1232.349	0.984	1312338	WORD_OFF	n/a	n/a	SANDER	Tools	8	12	[0, 0, 0]	n/a	catFR1	1	R1495J
1233.333	1.616	1313317	WORD	n/a	wordpools/wordpool_categorized_EN.txt	DOOR	Building	9	12	[0, 0, 0]	n/a	catFR1	1	R1495J
1234.949	0.884	1314933	WORD_OFF	n/a	n/a	DOOR	Building	9	12	[0, 0, 0]	n/a	catFR1	1	R1495J
1235.833	1.616	1315823	WORD	n/a	wordpools/wordpool_categorized_EN.txt	BATHROOM	Building	10	12	[0, 0, 0]	n/a	catFR1	1	R1495J
1237.449	0.967	1317438	WORD_OFF	n/a	n/a	BATHROOM	Building	10	12	[0, 0, 0]	n/a	catFR1	1	R1495J
1238.416	1.616	1318405	WORD	n/a	wordpools/wordpool_categorized_EN.txt	LAKE	Landscapes	11	12	[0, 0, 0]	n/a	catFR1	1	R1495J
1240.032	0.884	1320020	WORD_OFF	n/a	n/a	LAKE	Landscapes	11	12	[0, 0, 0]	n/a	catFR1	1	R1495J
1240.916	1.601	1320897	WORD	n/a	wordpools/wordpool_categorized_EN.txt	BEACH	Landscapes	12	12	[0, 0, 0]	n/a	catFR1	1	R1495J
1242.517	0.002	1322497	PROB	0.002	n/a	n/a	n/a	-999	12	[1, 2, 4]	7	catFR1	1	R1495J
1242.519	0.0	1322499	START	n/a	n/a	n/a	n/a	-999	12	[-999, -999, -999]	n/a	catFR1	1	R1495J
1242.516	0.003	1322500	WORD_OFF	n/a	n/a	BEACH	Landscapes	12	12	[0, 0, 0]	n/a	catFR1	1	R1495J
1242.519	0.0	1322500	ENCODING_END	n/a	n/a	n/a	n/a	-999	12	[0, 0, 0]	n/a	catFR1	1	R1495J
1242.519	3.547	1322512	DISTRACT_START	n/a	n/a	n/a	n/a	-999	12	[0, 0, 0]	n/a	catFR1	1	R1495J
1246.066	4.4	1326046	PROB	4.4	n/a	n/a	n/a	-999	12	[5, 6, 7]	18	catFR1	1	R1495J
1250.466	3.616	1330446	PROB	3.616	n/a	n/a	n/a	-999	12	[4, 7, 6]	17	catFR1	1	R1495J
1254.082	3.917	1334062	PROB	3.917	n/a	n/a	n/a	-999	12	[7, 8, 5]	20	catFR1	1	R1495J
1257.999	4.916	1337979	PROB	4.916	n/a	n/a	n/a	-999	12	[7, 1, 6]	14	catFR1	1	R1495J
1262.915	0.0	1342894	STOP	n/a	n/a	n/a	n/a	-999	12	[-999, -999, -999]	n/a	catFR1	1	R1495J
1262.915	1.399	1342899	DISTRACT_END	n/a	n/a	n/a	n/a	-999	12	[0, 0, 0]	n/a	catFR1	1	R1495J
1264.314	1.373	1344298	REC_START	n/a	n/a	n/a	n/a	-999	12	[0, 0, 0]	n/a	catFR1	1	R1495J
1265.687	1.163	1345666	REC_WORD	1.163	n/a	AXE	Tools	7	12	[0, 0, 0]	n/a	catFR1	1	R1495J
1266.85	2.168	1346829	REC_WORD	2.168	n/a	HAMMER	Tools	1	12	[0, 0, 0]	n/a	catFR1	1	R1495J
1269.018	3.582	1348997	REC_WORD	3.582	n/a	SANDER	Tools	8	12	[0, 0, 0]	n/a	catFR1	1	R1495J
1272.6	22.946	1352579	REC_WORD	22.946	n/a	FLOOR	Building	-999	12	[0, 0, 0]	n/a	catFR1	1	R1495J
1295.546	0.0	1375534	REC_END	n/a	n/a	n/a	n/a	-999	12	[0, 0, 0]	n/a	catFR1	1	R1495J
