onset	duration	sample	trial_type	response_time	stim_file	item_name	category	serialpos	list	test	answer	experiment	session	subject
0.0	4.65	113749	INSTRUCT_START	n/a	n/a	n/a	n/a	-999	-999	[0, 0, 0]	n/a	catFR1	0	R1412M
4.65	38.632	118392	INSTRUCT_END	n/a	n/a	n/a	n/a	-999	-999	[0, 0, 0]	n/a	catFR1	0	R1412M
43.282	10.384	157025	COUNTDOWN_START	n/a	n/a	n/a	n/a	-999	-999	[0, 0, 0]	n/a	catFR1	0	R1412M
53.666	0.0	167413	COUNTDOWN_END	n/a	n/a	n/a	n/a	-999	-999	[0, 0, 0]	n/a	catFR1	0	R1412M
53.666	2.116	167413	ENCODING_START	n/a	n/a	n/a	n/a	-999	-1	[0, 0, 0]	n/a	catFR1	0	R1412M
55.782	1.617	169535	WORD	n/a	n/a	BLOUSE	Clothing	1	-1	[0, 0, 0]	n/a	catFR1	0	R1412M
57.399	0.782	171147	WORD_OFF	n/a	n/a	BLOUSE	Clothing	1	-1	[0, 0, 0]	n/a	catFR1	0	R1412M
58.181	1.6	171932	WORD	n/a	n/a	SOCKS	Clothing	2	-1	[0, 0, 0]	n/a	catFR1	0	R1412M
59.781	0.951	173531	WORD_OFF	n/a	n/a	SOCKS	Clothing	2	-1	[0, 0, 0]	n/a	catFR1	0	R1412M
60.732	1.6	174481	WORD	n/a	n/a	PAPER	OfficeSupplies	3	-1	[0, 0, 0]	n/a	catFR1	0	R1412M
62.332	0.784	176079	WORD_OFF	n/a	n/a	PAPER	OfficeSupplies	3	-1	[0, 0, 0]	n/a	catFR1	0	R1412M
63.116	1.6	176865	WORD	n/a	n/a	FOLDER	OfficeSupplies	4	-1	[0, 0, 0]	n/a	catFR1	0	R1412M
64.716	0.849	178463	WORD_OFF	n/a	n/a	FOLDER	OfficeSupplies	4	-1	[0, 0, 0]	n/a	catFR1	0	R1412M
65.565	1.617	179317	WORD	n/a	n/a	ROOF	Building	5	-1	[0, 0, 0]	n/a	catFR1	0	R1412M
67.182	0.984	180929	WORD_OFF	n/a	n/a	ROOF	Building	5	-1	[0, 0, 0]	n/a	catFR1	0	R1412M
68.166	1.615	181907	WORD	n/a	n/a	WINDOW	Building	6	-1	[0, 0, 0]	n/a	catFR1	0	R1412M
69.781	0.9	183533	WORD_OFF	n/a	n/a	WINDOW	Building	6	-1	[0, 0, 0]	n/a	catFR1	0	R1412M
70.681	1.6	184429	WORD	n/a	n/a	PEN	OfficeSupplies	7	-1	[0, 0, 0]	n/a	catFR1	0	R1412M
72.281	0.918	186027	WORD_OFF	n/a	n/a	PEN	OfficeSupplies	7	-1	[0, 0, 0]	n/a	catFR1	0	R1412M
73.199	1.616	186950	WORD	n/a	n/a	RULER	OfficeSupplies	8	-1	[0, 0, 0]	n/a	catFR1	0	R1412M
74.815	0.95	188562	WORD_OFF	n/a	n/a	RULER	OfficeSupplies	8	-1	[0, 0, 0]	n/a	catFR1	0	R1412M
75.765	1.617	189513	WORD	n/a	n/a	SHOES	Clothing	9	-1	[0, 0, 0]	n/a	catFR1	0	R1412M
77.382	0.933	191125	WORD_OFF	n/a	n/a	SHOES	Clothing	9	-1	[0, 0, 0]	n/a	catFR1	0	R1412M
78.315	1.617	192062	WORD	n/a	n/a	UNDERWEAR	Clothing	10	-1	[0, 0, 0]	n/a	catFR1	0	R1412M
79.932	0.9	193674	WORD_OFF	n/a	n/a	UNDERWEAR	Clothing	10	-1	[0, 0, 0]	n/a	catFR1	0	R1412M
80.832	1.617	194583	WORD	n/a	n/a	DOOR	Building	11	-1	[0, 0, 0]	n/a	catFR1	0	R1412M
82.449	0.799	196195	WORD_OFF	n/a	n/a	DOOR	Building	11	-1	[0, 0, 0]	n/a	catFR1	0	R1412M
83.248	1.6	196994	WORD	n/a	n/a	WALL	Building	12	-1	[0, 0, 0]	n/a	catFR1	0	R1412M
84.848	0.002	198592	WORD_OFF	n/a	n/a	WALL	Building	12	-1	[0, 0, 0]	n/a	catFR1	0	R1412M
84.85	0.0	198592	ENCODING_END	n/a	n/a	n/a	n/a	-999	-1	[0, 0, 0]	n/a	catFR1	0	R1412M
84.85	0.0	198592	DISTRACT_START	n/a	n/a	n/a	n/a	-999	-1	[0, 0, 0]	n/a	catFR1	0	R1412M
84.85	0.0	198594	START	n/a	n/a	n/a	n/a	-999	-1	[-999, -999, -999]	n/a	catFR1	0	R1412M
84.85	6.532	198594	PROB	6.516	n/a	n/a	n/a	-999	-1	[1, 6, 3]	10.0	catFR1	0	R1412M
91.382	3.85	205126	PROB	3.833	n/a	n/a	n/a	-999	-1	[4, 4, 1]	9.0	catFR1	0	R1412M
95.232	9.333	208975	PROB	9.316	n/a	n/a	n/a	-999	-1	[8, 8, 3]	19.0	catFR1	0	R1412M
104.565	4.85	218308	PROB	4.833	n/a	n/a	n/a	-999	-1	[3, 4, 7]	14.0	catFR1	0	R1412M
109.415	0.0	223158	DISTRACT_END	n/a	n/a	n/a	n/a	-999	-1	[0, 0, 0]	n/a	catFR1	0	R1412M
109.415	2.083	223158	STOP	n/a	n/a	n/a	n/a	-999	-1	[-999, -999, -999]	n/a	catFR1	0	R1412M
111.498	0.714	225246	REC_START	n/a	n/a	n/a	n/a	-999	-1	[0, 0, 0]	n/a	catFR1	0	R1412M
112.212	2.018	225955	REC_WORD	0.714	n/a	BLOUSE	Clothing	1	-1	[0, 0, 0]	n/a	catFR1	0	R1412M
114.23	0.782	227973	REC_WORD	2.732	n/a	NOSE	n/a	-999	-1	[0, 0, 0]	n/a	catFR1	0	R1412M
115.012	2.606	228754	REC_WORD	3.514	n/a	HOUSE	n/a	-999	-1	[0, 0, 0]	n/a	catFR1	0	R1412M
117.618	1.946	231360	REC_WORD	6.12	n/a	SOCKS	Clothing	2	-1	[0, 0, 0]	n/a	catFR1	0	R1412M
119.564	2.817	233306	REC_WORD	8.066	n/a	RED	n/a	-999	-1	[0, 0, 0]	n/a	catFR1	0	R1412M
122.381	19.336	236123	REC_WORD	10.883	n/a	UNDERWEAR	Clothing	10	-1	[0, 0, 0]	n/a	catFR1	0	R1412M
141.717	15.132	255453	REC_END	n/a	n/a	n/a	n/a	-999	-1	[0, 0, 0]	n/a	catFR1	0	R1412M
156.849	10.351	270595	COUNTDOWN_START	n/a	n/a	n/a	n/a	-999	1	[0, 0, 0]	n/a	catFR1	0	R1412M
167.2	0.0	280942	COUNTDOWN_END	n/a	n/a	n/a	n/a	-999	1	[0, 0, 0]	n/a	catFR1	0	R1412M
167.2	2.132	280942	ENCODING_START	n/a	n/a	n/a	n/a	-999	1	[0, 0, 0]	n/a	catFR1	0	R1412M
169.332	1.6	283078	WORD	n/a	wordpools/wordpool_categorized_EN.txt	SHOVEL	Tools	1	1	[0, 0, 0]	n/a	catFR1	0	R1412M
170.932	0.885	284676	WORD_OFF	n/a	n/a	SHOVEL	Tools	1	1	[0, 0, 0]	n/a	catFR1	0	R1412M
171.817	1.598	285558	WORD	n/a	wordpools/wordpool_categorized_EN.txt	SANDER	Tools	2	1	[0, 0, 0]	n/a	catFR1	0	R1412M
173.415	0.85	287156	WORD_OFF	n/a	n/a	SANDER	Tools	2	1	[0, 0, 0]	n/a	catFR1	0	R1412M
174.265	1.617	288010	WORD	n/a	wordpools/wordpool_categorized_EN.txt	ROOM	Building	3	1	[0, 0, 0]	n/a	catFR1	0	R1412M
175.882	0.949	289622	WORD_OFF	n/a	n/a	ROOM	Building	3	1	[0, 0, 0]	n/a	catFR1	0	R1412M
176.831	1.601	290573	WORD	n/a	wordpools/wordpool_categorized_EN.txt	FOUNDATION	Building	4	1	[0, 0, 0]	n/a	catFR1	0	R1412M
178.432	0.817	292171	WORD_OFF	n/a	n/a	FOUNDATION	Building	4	1	[0, 0, 0]	n/a	catFR1	0	R1412M
179.249	1.616	292984	WORD	n/a	wordpools/wordpool_categorized_EN.txt	THUNDERSTORM	Weather	5	1	[0, 0, 0]	n/a	catFR1	0	R1412M
180.865	0.884	294610	WORD_OFF	n/a	n/a	THUNDERSTORM	Weather	5	1	[0, 0, 0]	n/a	catFR1	0	R1412M
181.749	1.6	295491	WORD	n/a	wordpools/wordpool_categorized_EN.txt	WIND	Weather	6	1	[0, 0, 0]	n/a	catFR1	0	R1412M
183.349	0.782	297090	WORD_OFF	n/a	n/a	WIND	Weather	6	1	[0, 0, 0]	n/a	catFR1	0	R1412M
184.131	1.601	297875	WORD	n/a	wordpools/wordpool_categorized_EN.txt	CEILING	Building	7	1	[0, 0, 0]	n/a	catFR1	0	R1412M
185.732	0.883	299473	WORD_OFF	n/a	n/a	CEILING	Building	7	1	[0, 0, 0]	n/a	catFR1	0	R1412M
186.615	1.6	300355	WORD	n/a	wordpools/wordpool_categorized_EN.txt	STAIRS	Building	8	1	[0, 0, 0]	n/a	catFR1	0	R1412M
188.215	0.85	301953	WORD_OFF	n/a	n/a	STAIRS	Building	8	1	[0, 0, 0]	n/a	catFR1	0	R1412M
189.065	1.617	302807	WORD	n/a	wordpools/wordpool_categorized_EN.txt	DRILL	Tools	9	1	[0, 0, 0]	n/a	catFR1	0	R1412M
190.682	0.866	304419	WORD_OFF	n/a	n/a	DRILL	Tools	9	1	[0, 0, 0]	n/a	catFR1	0	R1412M
191.548	1.617	305287	WORD	n/a	wordpools/wordpool_categorized_EN.txt	HAMMER	Tools	10	1	[0, 0, 0]	n/a	catFR1	0	R1412M
193.165	0.933	306899	WORD_OFF	n/a	n/a	HAMMER	Tools	10	1	[0, 0, 0]	n/a	catFR1	0	R1412M
194.098	1.6	307836	WORD	n/a	wordpools/wordpool_categorized_EN.txt	HURRICANE	Weather	11	1	[0, 0, 0]	n/a	catFR1	0	R1412M
195.698	0.85	309434	WORD_OFF	n/a	n/a	HURRICANE	Weather	11	1	[0, 0, 0]	n/a	catFR1	0	R1412M
196.548	1.617	310289	WORD	n/a	wordpools/wordpool_categorized_EN.txt	RAIN	Weather	12	1	[0, 0, 0]	n/a	catFR1	0	R1412M
198.165	0.001	311901	WORD_OFF	n/a	n/a	RAIN	Weather	12	1	[0, 0, 0]	n/a	catFR1	0	R1412M
198.166	0.001	311901	ENCODING_END	n/a	n/a	n/a	n/a	-999	1	[0, 0, 0]	n/a	catFR1	0	R1412M
198.167	0.0	311901	DISTRACT_START	n/a	n/a	n/a	n/a	-999	1	[0, 0, 0]	n/a	catFR1	0	R1412M
198.166	0.001	311904	PROB	4.966	n/a	n/a	n/a	-999	1	[3, 7, 6]	16.0	catFR1	0	R1412M
198.167	4.981	311905	START	n/a	n/a	n/a	n/a	-999	1	[-999, -999, -999]	n/a	catFR1	0	R1412M
203.148	7.617	316886	PROB	7.6	n/a	n/a	n/a	-999	1	[6, 4, 2]	12.0	catFR1	0	R1412M
210.765	8.801	324503	PROB	8.784	n/a	n/a	n/a	-999	1	[2, 5, 2]	9.0	catFR1	0	R1412M
219.566	0.0	333297	DISTRACT_END	n/a	n/a	n/a	n/a	-999	1	[0, 0, 0]	n/a	catFR1	0	R1412M
219.566	2.017	333303	STOP	n/a	n/a	n/a	n/a	-999	1	[-999, -999, -999]	n/a	catFR1	0	R1412M
221.583	0.628	335317	REC_START	n/a	n/a	n/a	n/a	-999	1	[0, 0, 0]	n/a	catFR1	0	R1412M
222.211	0.868	335948	REC_WORD	0.628	n/a	FOUNDATION	Building	4	1	[0, 0, 0]	n/a	catFR1	0	R1412M
223.079	2.795	336816	REC_WORD	1.496	n/a	THUNDERSTORM	Weather	5	1	[0, 0, 0]	n/a	catFR1	0	R1412M
225.874	1.009	339611	REC_WORD_VV	4.291	n/a	<>	n/a	-999	1	[0, 0, 0]	n/a	catFR1	0	R1412M
226.883	1.194	340620	REC_WORD	5.3	n/a	STAIRS	Building	8	1	[0, 0, 0]	n/a	catFR1	0	R1412M
228.077	2.074	341814	REC_WORD	6.494	n/a	CEILING	Building	7	1	[0, 0, 0]	n/a	catFR1	0	R1412M
230.151	21.67	343888	REC_WORD	8.568	n/a	WALL	Building	-999	1	[0, 0, 0]	n/a	catFR1	0	R1412M
251.821	17.978	365551	REC_END	n/a	n/a	n/a	n/a	-999	1	[0, 0, 0]	n/a	catFR1	0	R1412M
269.799	10.35	383531	COUNTDOWN_START	n/a	n/a	n/a	n/a	-999	2	[0, 0, 0]	n/a	catFR1	0	R1412M
280.149	0.0	393878	COUNTDOWN_END	n/a	n/a	n/a	n/a	-999	2	[0, 0, 0]	n/a	catFR1	0	R1412M
280.149	2.05	393892	ENCODING_START	n/a	n/a	n/a	n/a	-999	2	[0, 0, 0]	n/a	catFR1	0	R1412M
282.199	1.6	395931	WORD	n/a	wordpools/wordpool_categorized_EN.txt	SQUID	OceanAnimals	1	2	[0, 0, 0]	n/a	catFR1	0	R1412M
283.799	0.8	397529	WORD_OFF	n/a	n/a	SQUID	OceanAnimals	1	2	[0, 0, 0]	n/a	catFR1	0	R1412M
284.599	1.6	398329	WORD	n/a	wordpools/wordpool_categorized_EN.txt	FISH	OceanAnimals	2	2	[0, 0, 0]	n/a	catFR1	0	R1412M
286.199	0.833	399927	WORD_OFF	n/a	n/a	FISH	OceanAnimals	2	2	[0, 0, 0]	n/a	catFR1	0	R1412M
287.032	1.616	400767	WORD	n/a	wordpools/wordpool_categorized_EN.txt	BEE	Insects	3	2	[0, 0, 0]	n/a	catFR1	0	R1412M
288.648	0.984	402379	WORD_OFF	n/a	n/a	BEE	Insects	3	2	[0, 0, 0]	n/a	catFR1	0	R1412M
289.632	1.6	403371	WORD	n/a	wordpools/wordpool_categorized_EN.txt	FLY	Insects	4	2	[0, 0, 0]	n/a	catFR1	0	R1412M
291.232	0.816	404969	WORD_OFF	n/a	n/a	FLY	Insects	4	2	[0, 0, 0]	n/a	catFR1	0	R1412M
292.048	1.6	405782	WORD	n/a	wordpools/wordpool_categorized_EN.txt	ELEPHANT	Zoo	5	2	[0, 0, 0]	n/a	catFR1	0	R1412M
293.648	0.817	407381	WORD_OFF	n/a	n/a	ELEPHANT	Zoo	5	2	[0, 0, 0]	n/a	catFR1	0	R1412M
294.465	1.6	408193	WORD	n/a	wordpools/wordpool_categorized_EN.txt	GIRAFFE	Zoo	6	2	[0, 0, 0]	n/a	catFR1	0	R1412M
296.065	0.9	409805	WORD_OFF	n/a	n/a	GIRAFFE	Zoo	6	2	[0, 0, 0]	n/a	catFR1	0	R1412M
296.965	1.617	410701	WORD	n/a	wordpools/wordpool_categorized_EN.txt	ANT	Insects	7	2	[0, 0, 0]	n/a	catFR1	0	R1412M
298.582	0.816	412313	WORD_OFF	n/a	n/a	ANT	Insects	7	2	[0, 0, 0]	n/a	catFR1	0	R1412M
299.398	1.6	413126	WORD	n/a	wordpools/wordpool_categorized_EN.txt	LADYBUG	Insects	8	2	[0, 0, 0]	n/a	catFR1	0	R1412M
300.998	1.0	414738	WORD_OFF	n/a	n/a	LADYBUG	Insects	8	2	[0, 0, 0]	n/a	catFR1	0	R1412M
301.998	1.617	415730	WORD	n/a	wordpools/wordpool_categorized_EN.txt	PANDA	Zoo	9	2	[0, 0, 0]	n/a	catFR1	0	R1412M
303.615	0.901	417342	WORD_OFF	n/a	n/a	PANDA	Zoo	9	2	[0, 0, 0]	n/a	catFR1	0	R1412M
304.516	1.599	418251	WORD	n/a	wordpools/wordpool_categorized_EN.txt	ZEBRA	Zoo	10	2	[0, 0, 0]	n/a	catFR1	0	R1412M
306.115	0.916	419849	WORD_OFF	n/a	n/a	ZEBRA	Zoo	10	2	[0, 0, 0]	n/a	catFR1	0	R1412M
307.031	1.617	420759	WORD	n/a	wordpools/wordpool_categorized_EN.txt	LOBSTER	OceanAnimals	11	2	[0, 0, 0]	n/a	catFR1	0	R1412M
308.648	0.967	422384	WORD_OFF	n/a	n/a	LOBSTER	OceanAnimals	11	2	[0, 0, 0]	n/a	catFR1	0	R1412M
309.615	1.616	423349	WORD	n/a	wordpools/wordpool_categorized_EN.txt	JELLYFISH	OceanAnimals	12	2	[0, 0, 0]	n/a	catFR1	0	R1412M
311.231	0.002	424961	WORD_OFF	n/a	n/a	JELLYFISH	OceanAnimals	12	2	[0, 0, 0]	n/a	catFR1	0	R1412M
311.233	0.0	424961	ENCODING_END	n/a	n/a	n/a	n/a	-999	2	[0, 0, 0]	n/a	catFR1	0	R1412M
311.231	0.002	424964	PROB	8.384	n/a	n/a	n/a	-999	2	[1, 5, 7]	13.0	catFR1	0	R1412M
311.233	0.0	424966	START	n/a	n/a	n/a	n/a	-999	2	[-999, -999, -999]	n/a	catFR1	0	R1412M
311.233	8.4	424975	DISTRACT_START	n/a	n/a	n/a	n/a	-999	2	[0, 0, 0]	n/a	catFR1	0	R1412M
319.633	4.667	433366	PROB	4.65	n/a	n/a	n/a	-999	2	[1, 7, 8]	16.0	catFR1	0	R1412M
324.3	6.999	438032	PROB	6.982	n/a	n/a	n/a	-999	2	[8, 7, 5]	20.0	catFR1	0	R1412M
331.299	0.0	445031	STOP	n/a	n/a	n/a	n/a	-999	2	[-999, -999, -999]	n/a	catFR1	0	R1412M
331.299	2.199	445035	DISTRACT_END	n/a	n/a	n/a	n/a	-999	2	[0, 0, 0]	n/a	catFR1	0	R1412M
333.498	0.315	447234	REC_START	n/a	n/a	n/a	n/a	-999	2	[0, 0, 0]	n/a	catFR1	0	R1412M
333.813	1.213	447545	REC_WORD	0.315	n/a	JELLYFISH	OceanAnimals	12	2	[0, 0, 0]	n/a	catFR1	0	R1412M
335.026	0.871	448758	REC_WORD	1.528	n/a	FISH	OceanAnimals	2	2	[0, 0, 0]	n/a	catFR1	0	R1412M
335.897	2.147	449629	REC_WORD	2.399	n/a	SQUID	OceanAnimals	1	2	[0, 0, 0]	n/a	catFR1	0	R1412M
338.044	1.291	451776	REC_WORD	4.546	n/a	LOBSTER	OceanAnimals	11	2	[0, 0, 0]	n/a	catFR1	0	R1412M
339.335	17.574	453067	REC_WORD	5.837	n/a	GIRAFFE	Zoo	6	2	[0, 0, 0]	n/a	catFR1	0	R1412M
356.909	1.088	470640	REC_WORD	23.411	n/a	FLY	Insects	4	2	[0, 0, 0]	n/a	catFR1	0	R1412M
357.997	5.723	471728	REC_WORD	24.499	n/a	BEE	Insects	3	2	[0, 0, 0]	n/a	catFR1	0	R1412M
363.72	9.246	477454	REC_END	n/a	n/a	n/a	n/a	-999	2	[0, 0, 0]	n/a	catFR1	0	R1412M
372.966	10.35	486699	COUNTDOWN_START	n/a	n/a	n/a	n/a	-999	3	[0, 0, 0]	n/a	catFR1	0	R1412M
383.316	0.0	497046	COUNTDOWN_END	n/a	n/a	n/a	n/a	-999	3	[0, 0, 0]	n/a	catFR1	0	R1412M
383.316	2.032	497046	ENCODING_START	n/a	n/a	n/a	n/a	-999	3	[0, 0, 0]	n/a	catFR1	0	R1412M
385.348	1.617	499085	WORD	n/a	wordpools/wordpool_categorized_EN.txt	TELEVISION	Electronics	1	3	[0, 0, 0]	n/a	catFR1	0	R1412M
386.965	1.0	500697	WORD_OFF	n/a	n/a	TELEVISION	Electronics	1	3	[0, 0, 0]	n/a	catFR1	0	R1412M
387.965	1.616	501689	WORD	n/a	wordpools/wordpool_categorized_EN.txt	HEADPHONES	Electronics	2	3	[0, 0, 0]	n/a	catFR1	0	R1412M
389.581	0.901	503315	WORD_OFF	n/a	n/a	HEADPHONES	Electronics	2	3	[0, 0, 0]	n/a	catFR1	0	R1412M
390.482	1.616	504211	WORD	n/a	wordpools/wordpool_categorized_EN.txt	TABLE	Furniture	3	3	[0, 0, 0]	n/a	catFR1	0	R1412M
392.098	0.984	505823	WORD_OFF	n/a	n/a	TABLE	Furniture	3	3	[0, 0, 0]	n/a	catFR1	0	R1412M
393.082	1.616	506815	WORD	n/a	wordpools/wordpool_categorized_EN.txt	SHELF	Furniture	4	3	[0, 0, 0]	n/a	catFR1	0	R1412M
394.698	0.85	508427	WORD_OFF	n/a	n/a	SHELF	Furniture	4	3	[0, 0, 0]	n/a	catFR1	0	R1412M
395.548	1.6	509281	WORD	n/a	wordpools/wordpool_categorized_EN.txt	WILLOW	Trees	5	3	[0, 0, 0]	n/a	catFR1	0	R1412M
397.148	0.783	510879	WORD_OFF	n/a	n/a	WILLOW	Trees	5	3	[0, 0, 0]	n/a	catFR1	0	R1412M
397.931	1.601	511664	WORD	n/a	wordpools/wordpool_categorized_EN.txt	OAK	Trees	6	3	[0, 0, 0]	n/a	catFR1	0	R1412M
399.532	0.866	513263	WORD_OFF	n/a	n/a	OAK	Trees	6	3	[0, 0, 0]	n/a	catFR1	0	R1412M
400.398	1.617	514131	WORD	n/a	wordpools/wordpool_categorized_EN.txt	PRINTER	Electronics	7	3	[0, 0, 0]	n/a	catFR1	0	R1412M
402.015	0.883	515743	WORD_OFF	n/a	n/a	PRINTER	Electronics	7	3	[0, 0, 0]	n/a	catFR1	0	R1412M
402.898	1.6	516624	WORD	n/a	wordpools/wordpool_categorized_EN.txt	SPEAKER	Electronics	8	3	[0, 0, 0]	n/a	catFR1	0	R1412M
404.498	0.8	518223	WORD_OFF	n/a	n/a	SPEAKER	Electronics	8	3	[0, 0, 0]	n/a	catFR1	0	R1412M
405.298	1.6	519022	WORD	n/a	wordpools/wordpool_categorized_EN.txt	MAPLE	Trees	9	3	[0, 0, 0]	n/a	catFR1	0	R1412M
406.898	0.818	520620	WORD_OFF	n/a	n/a	MAPLE	Trees	9	3	[0, 0, 0]	n/a	catFR1	0	R1412M
407.716	1.615	521447	WORD	n/a	wordpools/wordpool_categorized_EN.txt	EVERGREEN	Trees	10	3	[0, 0, 0]	n/a	catFR1	0	R1412M
409.331	0.884	523059	WORD_OFF	n/a	n/a	EVERGREEN	Trees	10	3	[0, 0, 0]	n/a	catFR1	0	R1412M
410.215	1.6	523940	WORD	n/a	wordpools/wordpool_categorized_EN.txt	BOOKCASE	Furniture	11	3	[0, 0, 0]	n/a	catFR1	0	R1412M
411.815	0.85	525539	WORD_OFF	n/a	n/a	BOOKCASE	Furniture	11	3	[0, 0, 0]	n/a	catFR1	0	R1412M
412.665	1.616	526393	WORD	n/a	wordpools/wordpool_categorized_EN.txt	CABINET	Furniture	12	3	[0, 0, 0]	n/a	catFR1	0	R1412M
414.281	0.001	528005	WORD_OFF	n/a	n/a	CABINET	Furniture	12	3	[0, 0, 0]	n/a	catFR1	0	R1412M
414.282	0.001	528010	PROB	5.117	n/a	n/a	n/a	-999	3	[8, 1, 1]	10.0	catFR1	0	R1412M
414.283	0.0	528011	START	n/a	n/a	n/a	n/a	-999	3	[-999, -999, -999]	n/a	catFR1	0	R1412M
414.283	0.0	528019	ENCODING_END	n/a	n/a	n/a	n/a	-999	3	[0, 0, 0]	n/a	catFR1	0	R1412M
414.283	5.132	528019	DISTRACT_START	n/a	n/a	n/a	n/a	-999	3	[0, 0, 0]	n/a	catFR1	0	R1412M
419.415	8.467	533143	PROB	8.45	n/a	n/a	n/a	-999	3	[3, 6, 7]	16.0	catFR1	0	R1412M
427.882	11.416	541609	PROB	11.4	n/a	n/a	n/a	-999	3	[4, 7, 8]	20.0	catFR1	0	R1412M
439.298	0.0	553025	DISTRACT_END	n/a	n/a	n/a	n/a	-999	3	[0, 0, 0]	n/a	catFR1	0	R1412M
439.298	2.301	553025	STOP	n/a	n/a	n/a	n/a	-999	3	[-999, -999, -999]	n/a	catFR1	0	R1412M
441.599	1.127	555320	REC_START	n/a	n/a	n/a	n/a	-999	3	[0, 0, 0]	n/a	catFR1	0	R1412M
442.726	1.209	556453	REC_WORD	1.127	n/a	WILLOW	Trees	5	3	[0, 0, 0]	n/a	catFR1	0	R1412M
443.935	7.029	557662	REC_WORD	2.336	n/a	OAK	Trees	6	3	[0, 0, 0]	n/a	catFR1	0	R1412M
450.964	20.855	564690	REC_WORD	9.365	n/a	TABLE	Furniture	3	3	[0, 0, 0]	n/a	catFR1	0	R1412M
471.819	8.896	585541	REC_END	n/a	n/a	n/a	n/a	-999	3	[0, 0, 0]	n/a	catFR1	0	R1412M
480.715	10.351	594441	COUNTDOWN_START	n/a	n/a	n/a	n/a	-999	4	[0, 0, 0]	n/a	catFR1	0	R1412M
491.066	0.0	604788	COUNTDOWN_END	n/a	n/a	n/a	n/a	-999	4	[0, 0, 0]	n/a	catFR1	0	R1412M
491.066	2.116	604788	ENCODING_START	n/a	n/a	n/a	n/a	-999	4	[0, 0, 0]	n/a	catFR1	0	R1412M
493.182	1.616	606910	WORD	n/a	wordpools/wordpool_categorized_EN.txt	LEATHER	Fabric	1	4	[0, 0, 0]	n/a	catFR1	0	R1412M
494.798	0.817	608522	WORD_OFF	n/a	n/a	LEATHER	Fabric	1	4	[0, 0, 0]	n/a	catFR1	0	R1412M
495.615	1.616	609335	WORD	n/a	wordpools/wordpool_categorized_EN.txt	LINEN	Fabric	2	4	[0, 0, 0]	n/a	catFR1	0	R1412M
497.231	0.901	610961	WORD_OFF	n/a	n/a	LINEN	Fabric	2	4	[0, 0, 0]	n/a	catFR1	0	R1412M
498.132	1.6	611856	WORD	n/a	wordpools/wordpool_categorized_EN.txt	CHERRY	Fruit	3	4	[0, 0, 0]	n/a	catFR1	0	R1412M
499.732	0.833	613455	WORD_OFF	n/a	n/a	CHERRY	Fruit	3	4	[0, 0, 0]	n/a	catFR1	0	R1412M
500.565	1.6	614295	WORD	n/a	wordpools/wordpool_categorized_EN.txt	PLUM	Fruit	4	4	[0, 0, 0]	n/a	catFR1	0	R1412M
502.165	0.867	615893	WORD_OFF	n/a	n/a	PLUM	Fruit	4	4	[0, 0, 0]	n/a	catFR1	0	R1412M
503.032	1.616	616761	WORD	n/a	wordpools/wordpool_categorized_EN.txt	BARBIE	Toys	5	4	[0, 0, 0]	n/a	catFR1	0	R1412M
504.648	0.984	618373	WORD_OFF	n/a	n/a	BARBIE	Toys	5	4	[0, 0, 0]	n/a	catFR1	0	R1412M
505.632	1.6	619351	WORD	n/a	wordpools/wordpool_categorized_EN.txt	DOLLHOUSE	Toys	6	4	[0, 0, 0]	n/a	catFR1	0	R1412M
507.232	0.916	620950	WORD_OFF	n/a	n/a	DOLLHOUSE	Toys	6	4	[0, 0, 0]	n/a	catFR1	0	R1412M
508.148	1.6	621873	WORD	n/a	wordpools/wordpool_categorized_EN.txt	GRAPE	Fruit	7	4	[0, 0, 0]	n/a	catFR1	0	R1412M
509.748	0.983	623471	WORD_OFF	n/a	n/a	GRAPE	Fruit	7	4	[0, 0, 0]	n/a	catFR1	0	R1412M
510.731	1.617	624449	WORD	n/a	wordpools/wordpool_categorized_EN.txt	PEACH	Fruit	8	4	[0, 0, 0]	n/a	catFR1	0	R1412M
512.348	0.817	626075	WORD_OFF	n/a	n/a	PEACH	Fruit	8	4	[0, 0, 0]	n/a	catFR1	0	R1412M
513.165	1.6	626888	WORD	n/a	wordpools/wordpool_categorized_EN.txt	BASEBALL	Toys	9	4	[0, 0, 0]	n/a	catFR1	0	R1412M
514.765	1.0	628486	WORD_OFF	n/a	n/a	BASEBALL	Toys	9	4	[0, 0, 0]	n/a	catFR1	0	R1412M
515.765	1.616	629492	WORD	n/a	wordpools/wordpool_categorized_EN.txt	BALL	Toys	10	4	[0, 0, 0]	n/a	catFR1	0	R1412M
517.381	0.934	631104	WORD_OFF	n/a	n/a	BALL	Toys	10	4	[0, 0, 0]	n/a	catFR1	0	R1412M
518.315	1.6	632041	WORD	n/a	wordpools/wordpool_categorized_EN.txt	DENIM	Fabric	11	4	[0, 0, 0]	n/a	catFR1	0	R1412M
519.915	0.833	633639	WORD_OFF	n/a	n/a	DENIM	Fabric	11	4	[0, 0, 0]	n/a	catFR1	0	R1412M
520.748	1.602	634479	WORD	n/a	wordpools/wordpool_categorized_EN.txt	SUEDE	Fabric	12	4	[0, 0, 0]	n/a	catFR1	0	R1412M
522.35	0.0	636073	START	n/a	n/a	n/a	n/a	-999	4	[-999, -999, -999]	n/a	catFR1	0	R1412M
522.35	0.0	636073	PROB	6.483	n/a	n/a	n/a	-999	4	[6, 3, 8]	17.0	catFR1	0	R1412M
522.349	0.001	636078	WORD_OFF	n/a	n/a	SUEDE	Fabric	12	4	[0, 0, 0]	n/a	catFR1	0	R1412M
522.35	0.0	636078	ENCODING_END	n/a	n/a	n/a	n/a	-999	4	[0, 0, 0]	n/a	catFR1	0	R1412M
522.35	6.5	636078	DISTRACT_START	n/a	n/a	n/a	n/a	-999	4	[0, 0, 0]	n/a	catFR1	0	R1412M
528.85	4.932	642573	PROB	4.916	n/a	n/a	n/a	-999	4	[5, 4, 1]	10.0	catFR1	0	R1412M
533.782	4.734	647504	PROB	4.717	n/a	n/a	n/a	-999	4	[4, 4, 1]	9.0	catFR1	0	R1412M
538.516	4.099	652238	PROB	4.083	n/a	n/a	n/a	-999	4	[4, 4, 1]	9.0	catFR1	0	R1412M
542.615	0.0	656331	DISTRACT_END	n/a	n/a	n/a	n/a	-999	4	[0, 0, 0]	n/a	catFR1	0	R1412M
542.615	2.217	656337	STOP	n/a	n/a	n/a	n/a	-999	4	[-999, -999, -999]	n/a	catFR1	0	R1412M
544.832	0.926	658557	REC_START	n/a	n/a	n/a	n/a	-999	4	[0, 0, 0]	n/a	catFR1	0	R1412M
545.758	0.707	659480	REC_WORD	0.926	n/a	PLUM	Fruit	4	4	[0, 0, 0]	n/a	catFR1	0	R1412M
546.465	0.718	660187	REC_WORD	1.633	n/a	PEACH	Fruit	8	4	[0, 0, 0]	n/a	catFR1	0	R1412M
547.183	2.569	660905	REC_WORD	2.351	n/a	CHERRY	Fruit	3	4	[0, 0, 0]	n/a	catFR1	0	R1412M
549.752	5.098	663474	REC_WORD	4.92	n/a	BASEBALL	Toys	9	4	[0, 0, 0]	n/a	catFR1	0	R1412M
554.85	8.534	668571	REC_WORD	10.018	n/a	BALL	Toys	10	4	[0, 0, 0]	n/a	catFR1	0	R1412M
563.384	11.683	677105	REC_WORD	18.552	n/a	DENIM	Fabric	11	4	[0, 0, 0]	n/a	catFR1	0	R1412M
575.067	7.132	688791	REC_END	n/a	n/a	n/a	n/a	-999	4	[0, 0, 0]	n/a	catFR1	0	R1412M
582.199	10.35	695928	COUNTDOWN_START	n/a	n/a	n/a	n/a	-999	5	[0, 0, 0]	n/a	catFR1	0	R1412M
592.549	0.001	706275	COUNTDOWN_END	n/a	n/a	n/a	n/a	-999	5	[0, 0, 0]	n/a	catFR1	0	R1412M
592.55	2.148	706275	ENCODING_START	n/a	n/a	n/a	n/a	-999	5	[0, 0, 0]	n/a	catFR1	0	R1412M
594.698	1.601	708425	WORD	n/a	wordpools/wordpool_categorized_EN.txt	MOTORCYCLE	Vehicles	1	5	[0, 0, 0]	n/a	catFR1	0	R1412M
596.299	0.835	710023	WORD_OFF	n/a	n/a	MOTORCYCLE	Vehicles	1	5	[0, 0, 0]	n/a	catFR1	0	R1412M
597.134	1.615	710850	WORD	n/a	wordpools/wordpool_categorized_EN.txt	JEEP	Vehicles	2	5	[0, 0, 0]	n/a	catFR1	0	R1412M
598.749	0.884	712475	WORD_OFF	n/a	n/a	JEEP	Vehicles	2	5	[0, 0, 0]	n/a	catFR1	0	R1412M
599.633	1.616	713357	WORD	n/a	wordpools/wordpool_categorized_EN.txt	SPIDER	Insects	3	5	[0, 0, 0]	n/a	catFR1	0	R1412M
601.249	0.867	714969	WORD_OFF	n/a	n/a	SPIDER	Insects	3	5	[0, 0, 0]	n/a	catFR1	0	R1412M
602.116	1.6	715837	WORD	n/a	wordpools/wordpool_categorized_EN.txt	MOSQUITO	Insects	4	5	[0, 0, 0]	n/a	catFR1	0	R1412M
603.716	0.983	717435	WORD_OFF	n/a	n/a	MOSQUITO	Insects	4	5	[0, 0, 0]	n/a	catFR1	0	R1412M
604.699	1.616	718414	WORD	n/a	wordpools/wordpool_categorized_EN.txt	BED	Furniture	5	5	[0, 0, 0]	n/a	catFR1	0	R1412M
606.315	0.901	720039	WORD_OFF	n/a	n/a	BED	Furniture	5	5	[0, 0, 0]	n/a	catFR1	0	R1412M
607.216	1.616	720935	WORD	n/a	wordpools/wordpool_categorized_EN.txt	DRESSER	Furniture	6	5	[0, 0, 0]	n/a	catFR1	0	R1412M
608.832	0.849	722547	WORD_OFF	n/a	n/a	DRESSER	Furniture	6	5	[0, 0, 0]	n/a	catFR1	0	R1412M
609.681	1.601	723401	WORD	n/a	wordpools/wordpool_categorized_EN.txt	ROACH	Insects	7	5	[0, 0, 0]	n/a	catFR1	0	R1412M
611.282	0.917	724999	WORD_OFF	n/a	n/a	ROACH	Insects	7	5	[0, 0, 0]	n/a	catFR1	0	R1412M
612.199	1.6	725922	WORD	n/a	wordpools/wordpool_categorized_EN.txt	BUTTERFLY	Insects	8	5	[0, 0, 0]	n/a	catFR1	0	R1412M
613.799	0.9	727521	WORD_OFF	n/a	n/a	BUTTERFLY	Insects	8	5	[0, 0, 0]	n/a	catFR1	0	R1412M
614.699	1.616	728416	WORD	n/a	wordpools/wordpool_categorized_EN.txt	MOPED	Vehicles	9	5	[0, 0, 0]	n/a	catFR1	0	R1412M
616.315	0.784	730028	WORD_OFF	n/a	n/a	MOPED	Vehicles	9	5	[0, 0, 0]	n/a	catFR1	0	R1412M
617.099	1.6	730814	WORD	n/a	wordpools/wordpool_categorized_EN.txt	CAR	Vehicles	10	5	[0, 0, 0]	n/a	catFR1	0	R1412M
618.699	0.832	732412	WORD_OFF	n/a	n/a	CAR	Vehicles	10	5	[0, 0, 0]	n/a	catFR1	0	R1412M
619.531	1.601	733252	WORD	n/a	wordpools/wordpool_categorized_EN.txt	SOFA	Furniture	11	5	[0, 0, 0]	n/a	catFR1	0	R1412M
621.132	0.834	734850	WORD_OFF	n/a	n/a	SOFA	Furniture	11	5	[0, 0, 0]	n/a	catFR1	0	R1412M
621.966	1.616	735691	WORD	n/a	wordpools/wordpool_categorized_EN.txt	NIGHTSTAND	Furniture	12	5	[0, 0, 0]	n/a	catFR1	0	R1412M
623.582	0.001	737300	PROB	5.766	n/a	n/a	n/a	-999	5	[6, 6, 2]	14.0	catFR1	0	R1412M
623.583	0.0	737301	START	n/a	n/a	n/a	n/a	-999	5	[-999, -999, -999]	n/a	catFR1	0	R1412M
623.581	0.002	737303	WORD_OFF	n/a	n/a	NIGHTSTAND	Furniture	12	5	[0, 0, 0]	n/a	catFR1	0	R1412M
623.583	0.0	737303	ENCODING_END	n/a	n/a	n/a	n/a	-999	5	[0, 0, 0]	n/a	catFR1	0	R1412M
623.583	5.783	737303	DISTRACT_START	n/a	n/a	n/a	n/a	-999	5	[0, 0, 0]	n/a	catFR1	0	R1412M
629.366	18.116	743084	PROB	18.1	n/a	n/a	n/a	-999	5	[4, 2, 3]	9.0	catFR1	0	R1412M
647.482	0.0	761194	DISTRACT_END	n/a	n/a	n/a	n/a	-999	5	[0, 0, 0]	n/a	catFR1	0	R1412M
647.482	2.317	761199	STOP	n/a	n/a	n/a	n/a	-999	5	[-999, -999, -999]	n/a	catFR1	0	R1412M
649.799	1.024	763516	REC_START	n/a	n/a	n/a	n/a	-999	5	[0, 0, 0]	n/a	catFR1	0	R1412M
650.823	25.999	764540	REC_WORD	1.024	n/a	MOSQUITO	Insects	4	5	[0, 0, 0]	n/a	catFR1	0	R1412M
676.822	3.205	790538	REC_WORD	27.023	n/a	MOTORCYCLE	Vehicles	1	5	[0, 0, 0]	n/a	catFR1	0	R1412M
680.027	9.605	793737	REC_END	n/a	n/a	n/a	n/a	-999	5	[0, 0, 0]	n/a	catFR1	0	R1412M
689.632	10.35	803353	COUNTDOWN_START	n/a	n/a	n/a	n/a	-999	6	[0, 0, 0]	n/a	catFR1	0	R1412M
699.982	0.001	813701	COUNTDOWN_END	n/a	n/a	n/a	n/a	-999	6	[0, 0, 0]	n/a	catFR1	0	R1412M
699.983	1.982	813701	ENCODING_START	n/a	n/a	n/a	n/a	-999	6	[0, 0, 0]	n/a	catFR1	0	R1412M
701.965	1.617	815685	WORD	n/a	wordpools/wordpool_categorized_EN.txt	LEG	BodyParts	1	6	[0, 0, 0]	n/a	catFR1	0	R1412M
703.582	0.999	817297	WORD_OFF	n/a	n/a	LEG	BodyParts	1	6	[0, 0, 0]	n/a	catFR1	0	R1412M
704.581	1.601	818302	WORD	n/a	wordpools/wordpool_categorized_EN.txt	ELBOW	BodyParts	2	6	[0, 0, 0]	n/a	catFR1	0	R1412M
706.182	0.966	819901	WORD_OFF	n/a	n/a	ELBOW	BodyParts	2	6	[0, 0, 0]	n/a	catFR1	0	R1412M
707.148	1.617	820865	WORD	n/a	wordpools/wordpool_categorized_EN.txt	DOLL	Toys	3	6	[0, 0, 0]	n/a	catFR1	0	R1412M
708.765	0.833	822477	WORD_OFF	n/a	n/a	DOLL	Toys	3	6	[0, 0, 0]	n/a	catFR1	0	R1412M
709.598	1.6	823317	WORD	n/a	wordpools/wordpool_categorized_EN.txt	PUZZLE	Toys	4	6	[0, 0, 0]	n/a	catFR1	0	R1412M
711.198	0.834	824916	WORD_OFF	n/a	n/a	PUZZLE	Toys	4	6	[0, 0, 0]	n/a	catFR1	0	R1412M
712.032	1.616	825742	WORD	n/a	wordpools/wordpool_categorized_EN.txt	PIANO	Instruments	5	6	[0, 0, 0]	n/a	catFR1	0	R1412M
713.648	0.934	827368	WORD_OFF	n/a	n/a	PIANO	Instruments	5	6	[0, 0, 0]	n/a	catFR1	0	R1412M
714.582	1.616	828291	WORD	n/a	wordpools/wordpool_categorized_EN.txt	CELLO	Instruments	6	6	[0, 0, 0]	n/a	catFR1	0	R1412M
716.198	0.9	829917	WORD_OFF	n/a	n/a	CELLO	Instruments	6	6	[0, 0, 0]	n/a	catFR1	0	R1412M
717.098	1.6	830813	WORD	n/a	wordpools/wordpool_categorized_EN.txt	FRISBEE	Toys	7	6	[0, 0, 0]	n/a	catFR1	0	R1412M
718.698	0.85	832411	WORD_OFF	n/a	n/a	FRISBEE	Toys	7	6	[0, 0, 0]	n/a	catFR1	0	R1412M
719.548	1.6	833265	WORD	n/a	wordpools/wordpool_categorized_EN.txt	BLOCKS	Toys	8	6	[0, 0, 0]	n/a	catFR1	0	R1412M
721.148	0.934	834863	WORD_OFF	n/a	n/a	BLOCKS	Toys	8	6	[0, 0, 0]	n/a	catFR1	0	R1412M
722.082	1.599	835800	WORD	n/a	wordpools/wordpool_categorized_EN.txt	DRUM	Instruments	9	6	[0, 0, 0]	n/a	catFR1	0	R1412M
723.681	1.001	837398	WORD_OFF	n/a	n/a	DRUM	Instruments	9	6	[0, 0, 0]	n/a	catFR1	0	R1412M
724.682	1.6	838390	WORD	n/a	wordpools/wordpool_categorized_EN.txt	FLUTE	Instruments	10	6	[0, 0, 0]	n/a	catFR1	0	R1412M
726.282	0.8	840002	WORD_OFF	n/a	n/a	FLUTE	Instruments	10	6	[0, 0, 0]	n/a	catFR1	0	R1412M
727.082	1.604	840801	WORD	n/a	wordpools/wordpool_categorized_EN.txt	FOOT	BodyParts	11	6	[0, 0, 0]	n/a	catFR1	0	R1412M
728.686	0.963	842400	WORD_OFF	n/a	n/a	FOOT	BodyParts	11	6	[0, 0, 0]	n/a	catFR1	0	R1412M
729.649	1.6	843364	WORD	n/a	wordpools/wordpool_categorized_EN.txt	HEAD	BodyParts	12	6	[0, 0, 0]	n/a	catFR1	0	R1412M
731.249	0.002	844962	WORD_OFF	n/a	n/a	HEAD	BodyParts	12	6	[0, 0, 0]	n/a	catFR1	0	R1412M
731.251	0.0	844962	ENCODING_END	n/a	n/a	n/a	n/a	-999	6	[0, 0, 0]	n/a	catFR1	0	R1412M
731.251	0.0	844962	DISTRACT_START	n/a	n/a	n/a	n/a	-999	6	[0, 0, 0]	n/a	catFR1	0	R1412M
731.25	0.001	844963	PROB	5.366	n/a	n/a	n/a	-999	6	[2, 7, 2]	11.0	catFR1	0	R1412M
731.251	5.382	844964	START	n/a	n/a	n/a	n/a	-999	6	[-999, -999, -999]	n/a	catFR1	0	R1412M
736.633	7.498	850346	PROB	7.481	n/a	n/a	n/a	-999	6	[2, 5, 7]	14.0	catFR1	0	R1412M
744.131	7.251	857843	PROB	7.234	n/a	n/a	n/a	-999	6	[6, 7, 1]	14.0	catFR1	0	R1412M
751.382	0.0	865092	DISTRACT_END	n/a	n/a	n/a	n/a	-999	6	[0, 0, 0]	n/a	catFR1	0	R1412M
751.382	2.034	865094	STOP	n/a	n/a	n/a	n/a	-999	6	[-999, -999, -999]	n/a	catFR1	0	R1412M
753.416	2.076	867125	REC_START	n/a	n/a	n/a	n/a	-999	6	[0, 0, 0]	n/a	catFR1	0	R1412M
755.492	22.688	869204	REC_WORD	2.076	n/a	ELBOW	BodyParts	2	6	[0, 0, 0]	n/a	catFR1	0	R1412M
778.18	5.474	891891	REC_WORD	24.764	n/a	LEG	BodyParts	1	6	[0, 0, 0]	n/a	catFR1	0	R1412M
783.654	19.245	897359	REC_END	n/a	n/a	n/a	n/a	-999	6	[0, 0, 0]	n/a	catFR1	0	R1412M
802.899	10.35	916607	COUNTDOWN_START	n/a	n/a	n/a	n/a	-999	7	[0, 0, 0]	n/a	catFR1	0	R1412M
813.249	0.001	926954	COUNTDOWN_END	n/a	n/a	n/a	n/a	-999	7	[0, 0, 0]	n/a	catFR1	0	R1412M
813.25	2.216	926954	ENCODING_START	n/a	n/a	n/a	n/a	-999	7	[0, 0, 0]	n/a	catFR1	0	R1412M
815.466	1.6	929172	WORD	n/a	wordpools/wordpool_categorized_EN.txt	SPRUCE	Trees	1	7	[0, 0, 0]	n/a	catFR1	0	R1412M
817.066	0.782	930770	WORD_OFF	n/a	n/a	SPRUCE	Trees	1	7	[0, 0, 0]	n/a	catFR1	0	R1412M
817.848	1.601	931556	WORD	n/a	wordpools/wordpool_categorized_EN.txt	HICKORY	Trees	2	7	[0, 0, 0]	n/a	catFR1	0	R1412M
819.449	0.85	933154	WORD_OFF	n/a	n/a	HICKORY	Trees	2	7	[0, 0, 0]	n/a	catFR1	0	R1412M
820.299	1.6	934008	WORD	n/a	wordpools/wordpool_categorized_EN.txt	DAFFODIL	Flowers	3	7	[0, 0, 0]	n/a	catFR1	0	R1412M
821.899	0.967	935606	WORD_OFF	n/a	n/a	DAFFODIL	Flowers	3	7	[0, 0, 0]	n/a	catFR1	0	R1412M
822.866	1.6	936571	WORD	n/a	wordpools/wordpool_categorized_EN.txt	LILAC	Flowers	4	7	[0, 0, 0]	n/a	catFR1	0	R1412M
824.466	0.765	938169	WORD_OFF	n/a	n/a	LILAC	Flowers	4	7	[0, 0, 0]	n/a	catFR1	0	R1412M
825.231	1.601	938940	WORD	n/a	wordpools/wordpool_categorized_EN.txt	MARBLES	Toys	5	7	[0, 0, 0]	n/a	catFR1	0	R1412M
826.832	0.95	940539	WORD_OFF	n/a	n/a	MARBLES	Toys	5	7	[0, 0, 0]	n/a	catFR1	0	R1412M
827.782	1.616	941489	WORD	n/a	wordpools/wordpool_categorized_EN.txt	FOOTBALL	Toys	6	7	[0, 0, 0]	n/a	catFR1	0	R1412M
829.398	0.9	943101	WORD_OFF	n/a	n/a	FOOTBALL	Toys	6	7	[0, 0, 0]	n/a	catFR1	0	R1412M
830.298	1.6	944011	WORD	n/a	wordpools/wordpool_categorized_EN.txt	BIRCH	Trees	7	7	[0, 0, 0]	n/a	catFR1	0	R1412M
831.898	0.867	945609	WORD_OFF	n/a	n/a	BIRCH	Trees	7	7	[0, 0, 0]	n/a	catFR1	0	R1412M
832.765	1.617	946477	WORD	n/a	wordpools/wordpool_categorized_EN.txt	WALNUT	Trees	8	7	[0, 0, 0]	n/a	catFR1	0	R1412M
834.382	0.967	948089	WORD_OFF	n/a	n/a	WALNUT	Trees	8	7	[0, 0, 0]	n/a	catFR1	0	R1412M
835.349	1.616	949053	WORD	n/a	wordpools/wordpool_categorized_EN.txt	PETUNIA	Flowers	9	7	[0, 0, 0]	n/a	catFR1	0	R1412M
836.965	1.0	950679	WORD_OFF	n/a	n/a	PETUNIA	Flowers	9	7	[0, 0, 0]	n/a	catFR1	0	R1412M
837.965	1.601	951671	WORD	n/a	wordpools/wordpool_categorized_EN.txt	DAISY	Flowers	10	7	[0, 0, 0]	n/a	catFR1	0	R1412M
839.566	0.766	953269	WORD_OFF	n/a	n/a	DAISY	Flowers	10	7	[0, 0, 0]	n/a	catFR1	0	R1412M
840.332	1.6	954041	WORD	n/a	wordpools/wordpool_categorized_EN.txt	BASKETBALL	Toys	11	7	[0, 0, 0]	n/a	catFR1	0	R1412M
841.932	0.867	955639	WORD_OFF	n/a	n/a	BASKETBALL	Toys	11	7	[0, 0, 0]	n/a	catFR1	0	R1412M
842.799	1.6	956507	WORD	n/a	wordpools/wordpool_categorized_EN.txt	SLINKY	Toys	12	7	[0, 0, 0]	n/a	catFR1	0	R1412M
844.399	0.002	958105	WORD_OFF	n/a	n/a	SLINKY	Toys	12	7	[0, 0, 0]	n/a	catFR1	0	R1412M
844.401	0.0	958105	ENCODING_END	n/a	n/a	n/a	n/a	-999	7	[0, 0, 0]	n/a	catFR1	0	R1412M
844.401	0.0	958105	DISTRACT_START	n/a	n/a	n/a	n/a	-999	7	[0, 0, 0]	n/a	catFR1	0	R1412M
844.4	0.001	958107	PROB	4.166	n/a	n/a	n/a	-999	7	[1, 1, 7]	9.0	catFR1	0	R1412M
844.401	4.182	958108	START	n/a	n/a	n/a	n/a	-999	7	[-999, -999, -999]	n/a	catFR1	0	R1412M
848.583	5.783	962290	PROB	5.766	n/a	n/a	n/a	-999	7	[8, 4, 4]	16.0	catFR1	0	R1412M
854.366	8.35	968073	PROB	8.333	n/a	n/a	n/a	-999	7	[8, 5, 7]	20.0	catFR1	0	R1412M
862.716	8.799	976423	PROB	8.783	n/a	n/a	n/a	-999	7	[6, 1, 8]	15.0	catFR1	0	R1412M
871.515	0.0	985220	DISTRACT_END	n/a	n/a	n/a	n/a	-999	7	[0, 0, 0]	n/a	catFR1	0	R1412M
871.515	2.367	985221	STOP	n/a	n/a	n/a	n/a	-999	7	[-999, -999, -999]	n/a	catFR1	0	R1412M
873.882	1.708	987584	REC_START	n/a	n/a	n/a	n/a	-999	7	[0, 0, 0]	n/a	catFR1	0	R1412M
875.59	2.347	989296	REC_WORD	1.708	n/a	FOOTBALL	Toys	6	7	[0, 0, 0]	n/a	catFR1	0	R1412M
877.937	1.479	991643	REC_WORD	4.055	n/a	BASKETBALL	Toys	11	7	[0, 0, 0]	n/a	catFR1	0	R1412M
879.416	14.815	993122	REC_WORD	5.534	n/a	MARBLES	Toys	5	7	[0, 0, 0]	n/a	catFR1	0	R1412M
894.231	9.873	1007936	REC_WORD	20.349	n/a	WALNUT	Trees	8	7	[0, 0, 0]	n/a	catFR1	0	R1412M
904.104	11.294	1017804	REC_END	n/a	n/a	n/a	n/a	-999	7	[0, 0, 0]	n/a	catFR1	0	R1412M
915.398	10.351	1029102	COUNTDOWN_START	n/a	n/a	n/a	n/a	-999	8	[0, 0, 0]	n/a	catFR1	0	R1412M
925.749	0.001	1039449	COUNTDOWN_END	n/a	n/a	n/a	n/a	-999	8	[0, 0, 0]	n/a	catFR1	0	R1412M
925.75	2.265	1039463	ENCODING_START	n/a	n/a	n/a	n/a	-999	8	[0, 0, 0]	n/a	catFR1	0	R1412M
928.015	1.601	1041723	WORD	n/a	wordpools/wordpool_categorized_EN.txt	MARIGOLD	Flowers	1	8	[0, 0, 0]	n/a	catFR1	0	R1412M
929.616	0.8	1043321	WORD_OFF	n/a	n/a	MARIGOLD	Flowers	1	8	[0, 0, 0]	n/a	catFR1	0	R1412M
930.416	1.615	1044120	WORD	n/a	wordpools/wordpool_categorized_EN.txt	ROSE	Flowers	2	8	[0, 0, 0]	n/a	catFR1	0	R1412M
932.031	0.951	1045732	WORD_OFF	n/a	n/a	ROSE	Flowers	2	8	[0, 0, 0]	n/a	catFR1	0	R1412M
932.982	1.6	1046683	WORD	n/a	wordpools/wordpool_categorized_EN.txt	COAT	Clothing	3	8	[0, 0, 0]	n/a	catFR1	0	R1412M
934.582	0.966	1048281	WORD_OFF	n/a	n/a	COAT	Clothing	3	8	[0, 0, 0]	n/a	catFR1	0	R1412M
935.548	1.617	1049245	WORD	n/a	wordpools/wordpool_categorized_EN.txt	PANTS	Clothing	4	8	[0, 0, 0]	n/a	catFR1	0	R1412M
937.165	0.933	1050871	WORD_OFF	n/a	n/a	PANTS	Clothing	4	8	[0, 0, 0]	n/a	catFR1	0	R1412M
938.098	1.601	1051808	WORD	n/a	wordpools/wordpool_categorized_EN.txt	DOVE	Birds	5	8	[0, 0, 0]	n/a	catFR1	0	R1412M
939.699	0.883	1053406	WORD_OFF	n/a	n/a	DOVE	Birds	5	8	[0, 0, 0]	n/a	catFR1	0	R1412M
940.582	1.6	1054288	WORD	n/a	wordpools/wordpool_categorized_EN.txt	CARDINAL	Birds	6	8	[0, 0, 0]	n/a	catFR1	0	R1412M
942.182	0.867	1055886	WORD_OFF	n/a	n/a	CARDINAL	Birds	6	8	[0, 0, 0]	n/a	catFR1	0	R1412M
943.049	1.6	1056754	WORD	n/a	wordpools/wordpool_categorized_EN.txt	CARNATION	Flowers	7	8	[0, 0, 0]	n/a	catFR1	0	R1412M
944.649	0.767	1058352	WORD_OFF	n/a	n/a	CARNATION	Flowers	7	8	[0, 0, 0]	n/a	catFR1	0	R1412M
945.416	1.616	1059124	WORD	n/a	wordpools/wordpool_categorized_EN.txt	TULIP	Flowers	8	8	[0, 0, 0]	n/a	catFR1	0	R1412M
947.032	0.9	1060736	WORD_OFF	n/a	n/a	TULIP	Flowers	8	8	[0, 0, 0]	n/a	catFR1	0	R1412M
947.932	1.617	1061631	WORD	n/a	wordpools/wordpool_categorized_EN.txt	CROW	Birds	9	8	[0, 0, 0]	n/a	catFR1	0	R1412M
949.549	0.866	1063257	WORD_OFF	n/a	n/a	CROW	Birds	9	8	[0, 0, 0]	n/a	catFR1	0	R1412M
950.415	1.617	1064125	WORD	n/a	wordpools/wordpool_categorized_EN.txt	DUCK	Birds	10	8	[0, 0, 0]	n/a	catFR1	0	R1412M
952.032	0.9	1065737	WORD_OFF	n/a	n/a	DUCK	Birds	10	8	[0, 0, 0]	n/a	catFR1	0	R1412M
952.932	1.6	1066633	WORD	n/a	wordpools/wordpool_categorized_EN.txt	JEANS	Clothing	11	8	[0, 0, 0]	n/a	catFR1	0	R1412M
954.532	0.934	1068231	WORD_OFF	n/a	n/a	JEANS	Clothing	11	8	[0, 0, 0]	n/a	catFR1	0	R1412M
955.466	1.6	1069168	WORD	n/a	wordpools/wordpool_categorized_EN.txt	JACKET	Clothing	12	8	[0, 0, 0]	n/a	catFR1	0	R1412M
957.066	0.001	1070766	WORD_OFF	n/a	n/a	JACKET	Clothing	12	8	[0, 0, 0]	n/a	catFR1	0	R1412M
957.067	0.0	1070766	ENCODING_END	n/a	n/a	n/a	n/a	-999	8	[0, 0, 0]	n/a	catFR1	0	R1412M
957.067	0.0	1070766	DISTRACT_START	n/a	n/a	n/a	n/a	-999	8	[0, 0, 0]	n/a	catFR1	0	R1412M
957.066	0.001	1070768	PROB	5.75	n/a	n/a	n/a	-999	8	[2, 4, 3]	9.0	catFR1	0	R1412M
957.067	5.766	1070769	START	n/a	n/a	n/a	n/a	-999	8	[-999, -999, -999]	n/a	catFR1	0	R1412M
962.833	5.2	1076535	PROB	5.183	n/a	n/a	n/a	-999	8	[8, 4, 1]	13.0	catFR1	0	R1412M
968.033	4.183	1081735	PROB	4.166	n/a	n/a	n/a	-999	8	[7, 3, 7]	17.0	catFR1	0	R1412M
972.216	8.983	1085917	PROB	8.966	n/a	n/a	n/a	-999	8	[3, 6, 4]	13.0	catFR1	0	R1412M
981.199	0.0	1094900	STOP	n/a	n/a	n/a	n/a	-999	8	[-999, -999, -999]	n/a	catFR1	0	R1412M
981.199	2.3	1094905	DISTRACT_END	n/a	n/a	n/a	n/a	-999	8	[0, 0, 0]	n/a	catFR1	0	R1412M
983.499	0.53	1097200	REC_START	n/a	n/a	n/a	n/a	-999	8	[0, 0, 0]	n/a	catFR1	0	R1412M
984.029	0.902	1097730	REC_WORD	0.53	n/a	JEANS	Clothing	11	8	[0, 0, 0]	n/a	catFR1	0	R1412M
984.931	0.623	1098632	REC_WORD	1.432	n/a	JEANS	Clothing	11	8	[0, 0, 0]	n/a	catFR1	0	R1412M
985.554	1.318	1099255	REC_WORD	2.055	n/a	JACKET	Clothing	12	8	[0, 0, 0]	n/a	catFR1	0	R1412M
986.872	0.957	1100573	REC_WORD	3.373	n/a	MARIGOLD	Flowers	1	8	[0, 0, 0]	n/a	catFR1	0	R1412M
987.829	0.863	1101530	REC_WORD	4.33	n/a	ROSE	Flowers	2	8	[0, 0, 0]	n/a	catFR1	0	R1412M
988.692	25.049	1102393	REC_WORD	5.193	n/a	TULIP	Flowers	8	8	[0, 0, 0]	n/a	catFR1	0	R1412M
1013.741	8.658	1127448	REC_END	n/a	n/a	n/a	n/a	-999	8	[0, 0, 0]	n/a	catFR1	0	R1412M
1022.399	10.35	1136100	COUNTDOWN_START	n/a	n/a	n/a	n/a	-999	9	[0, 0, 0]	n/a	catFR1	0	R1412M
1032.749	0.0	1146447	COUNTDOWN_END	n/a	n/a	n/a	n/a	-999	9	[0, 0, 0]	n/a	catFR1	0	R1412M
1032.749	2.183	1146447	ENCODING_START	n/a	n/a	n/a	n/a	-999	9	[0, 0, 0]	n/a	catFR1	0	R1412M
1034.932	1.599	1148624	WORD	n/a	wordpools/wordpool_categorized_EN.txt	NOTEBOOK	OfficeSupplies	1	9	[0, 0, 0]	n/a	catFR1	0	R1412M
1036.531	0.901	1150236	WORD_OFF	n/a	n/a	NOTEBOOK	OfficeSupplies	1	9	[0, 0, 0]	n/a	catFR1	0	R1412M
1037.432	1.616	1151132	WORD	n/a	wordpools/wordpool_categorized_EN.txt	GLUE	OfficeSupplies	2	9	[0, 0, 0]	n/a	catFR1	0	R1412M
1039.048	0.9	1152744	WORD_OFF	n/a	n/a	GLUE	OfficeSupplies	2	9	[0, 0, 0]	n/a	catFR1	0	R1412M
1039.948	1.617	1153653	WORD	n/a	wordpools/wordpool_categorized_EN.txt	CHAIR	Furniture	3	9	[0, 0, 0]	n/a	catFR1	0	R1412M
1041.565	0.867	1155265	WORD_OFF	n/a	n/a	CHAIR	Furniture	3	9	[0, 0, 0]	n/a	catFR1	0	R1412M
1042.432	1.6	1156133	WORD	n/a	wordpools/wordpool_categorized_EN.txt	DESK	Furniture	4	9	[0, 0, 0]	n/a	catFR1	0	R1412M
1044.032	1.0	1157731	WORD_OFF	n/a	n/a	DESK	Furniture	4	9	[0, 0, 0]	n/a	catFR1	0	R1412M
1045.032	1.617	1158737	WORD	n/a	wordpools/wordpool_categorized_EN.txt	WASHER	Appliances	5	9	[0, 0, 0]	n/a	catFR1	0	R1412M
1046.649	0.767	1160349	WORD_OFF	n/a	n/a	WASHER	Appliances	5	9	[0, 0, 0]	n/a	catFR1	0	R1412M
1047.416	1.616	1161121	WORD	n/a	wordpools/wordpool_categorized_EN.txt	STOVE	Appliances	6	9	[0, 0, 0]	n/a	catFR1	0	R1412M
1049.032	0.767	1162733	WORD_OFF	n/a	n/a	STOVE	Appliances	6	9	[0, 0, 0]	n/a	catFR1	0	R1412M
1049.799	1.6	1163500	WORD	n/a	wordpools/wordpool_categorized_EN.txt	MARKER	OfficeSupplies	7	9	[0, 0, 0]	n/a	catFR1	0	R1412M
1051.399	0.933	1165102	WORD_OFF	n/a	n/a	MARKER	OfficeSupplies	7	9	[0, 0, 0]	n/a	catFR1	0	R1412M
1052.332	1.601	1166026	WORD	n/a	wordpools/wordpool_categorized_EN.txt	TAPE	OfficeSupplies	8	9	[0, 0, 0]	n/a	catFR1	0	R1412M
1053.933	0.915	1167624	WORD_OFF	n/a	n/a	TAPE	OfficeSupplies	8	9	[0, 0, 0]	n/a	catFR1	0	R1412M
1054.848	1.601	1168547	WORD	n/a	wordpools/wordpool_categorized_EN.txt	REFRIGERATOR	Appliances	9	9	[0, 0, 0]	n/a	catFR1	0	R1412M
1056.449	0.95	1170145	WORD_OFF	n/a	n/a	REFRIGERATOR	Appliances	9	9	[0, 0, 0]	n/a	catFR1	0	R1412M
1057.399	1.6	1171096	WORD	n/a	wordpools/wordpool_categorized_EN.txt	OVEN	Appliances	10	9	[0, 0, 0]	n/a	catFR1	0	R1412M
1058.999	0.799	1172694	WORD_OFF	n/a	n/a	OVEN	Appliances	10	9	[0, 0, 0]	n/a	catFR1	0	R1412M
1059.798	1.601	1173493	WORD	n/a	wordpools/wordpool_categorized_EN.txt	RECLINER	Furniture	11	9	[0, 0, 0]	n/a	catFR1	0	R1412M
1061.399	0.883	1175091	WORD_OFF	n/a	n/a	RECLINER	Furniture	11	9	[0, 0, 0]	n/a	catFR1	0	R1412M
1062.282	1.601	1175973	WORD	n/a	wordpools/wordpool_categorized_EN.txt	COUCH	Furniture	12	9	[0, 0, 0]	n/a	catFR1	0	R1412M
1063.883	0.001	1177580	PROB	4.216	n/a	n/a	n/a	-999	9	[5, 5, 1]	11.0	catFR1	0	R1412M
1063.884	0.0	1177581	START	n/a	n/a	n/a	n/a	-999	9	[-999, -999, -999]	n/a	catFR1	0	R1412M
1063.882	0.002	1177585	WORD_OFF	n/a	n/a	COUCH	Furniture	12	9	[0, 0, 0]	n/a	catFR1	0	R1412M
1063.884	0.0	1177585	ENCODING_END	n/a	n/a	n/a	n/a	-999	9	[0, 0, 0]	n/a	catFR1	0	R1412M
1063.884	4.232	1177585	DISTRACT_START	n/a	n/a	n/a	n/a	-999	9	[0, 0, 0]	n/a	catFR1	0	R1412M
1068.116	3.767	1181813	PROB	3.75	n/a	n/a	n/a	-999	9	[3, 1, 7]	11.0	catFR1	0	R1412M
1071.883	7.483	1185580	PROB	7.466	n/a	n/a	n/a	-999	9	[5, 6, 2]	13.0	catFR1	0	R1412M
1079.366	7.466	1193062	PROB	7.449	n/a	n/a	n/a	-999	9	[1, 4, 3]	8.0	catFR1	0	R1412M
1086.832	0.0	1200525	DISTRACT_END	n/a	n/a	n/a	n/a	-999	9	[0, 0, 0]	n/a	catFR1	0	R1412M
1086.832	2.383	1200528	STOP	n/a	n/a	n/a	n/a	-999	9	[-999, -999, -999]	n/a	catFR1	0	R1412M
1089.215	1.733	1202917	REC_START	n/a	n/a	n/a	n/a	-999	9	[0, 0, 0]	n/a	catFR1	0	R1412M
1090.948	8.607	1204644	REC_WORD	1.733	n/a	MARBLES	Toys	-999	9	[0, 0, 0]	n/a	catFR1	0	R1412M
1099.555	0.91	1213250	REC_WORD	10.34	n/a	COUCH	Furniture	12	9	[0, 0, 0]	n/a	catFR1	0	R1412M
1100.465	1.498	1214160	REC_WORD	11.25	n/a	DESK	Furniture	4	9	[0, 0, 0]	n/a	catFR1	0	R1412M
1101.963	17.488	1215658	REC_WORD	12.748	n/a	CHAIR	Furniture	3	9	[0, 0, 0]	n/a	catFR1	0	R1412M
1119.451	18.364	1233151	REC_END	n/a	n/a	n/a	n/a	-999	9	[0, 0, 0]	n/a	catFR1	0	R1412M
1137.815	10.351	1251503	COUNTDOWN_START	n/a	n/a	n/a	n/a	-999	10	[0, 0, 0]	n/a	catFR1	0	R1412M
1148.166	0.0	1261864	COUNTDOWN_END	n/a	n/a	n/a	n/a	-999	10	[0, 0, 0]	n/a	catFR1	0	R1412M
1148.166	2.2	1261864	ENCODING_START	n/a	n/a	n/a	n/a	-999	10	[0, 0, 0]	n/a	catFR1	0	R1412M
1150.366	1.6	1264054	WORD	n/a	wordpools/wordpool_categorized_EN.txt	PIGEON	Birds	1	10	[0, 0, 0]	n/a	catFR1	0	R1412M
1151.966	0.95	1265653	WORD_OFF	n/a	n/a	PIGEON	Birds	1	10	[0, 0, 0]	n/a	catFR1	0	R1412M
1152.916	1.615	1266603	WORD	n/a	wordpools/wordpool_categorized_EN.txt	SEAGULL	Birds	2	10	[0, 0, 0]	n/a	catFR1	0	R1412M
1154.531	0.901	1268229	WORD_OFF	n/a	n/a	SEAGULL	Birds	2	10	[0, 0, 0]	n/a	catFR1	0	R1412M
1155.432	1.616	1269125	WORD	n/a	wordpools/wordpool_categorized_EN.txt	ERASER	OfficeSupplies	3	10	[0, 0, 0]	n/a	catFR1	0	R1412M
1157.048	0.816	1270737	WORD_OFF	n/a	n/a	ERASER	OfficeSupplies	3	10	[0, 0, 0]	n/a	catFR1	0	R1412M
1157.864	1.601	1271563	WORD	n/a	wordpools/wordpool_categorized_EN.txt	BINDER	OfficeSupplies	4	10	[0, 0, 0]	n/a	catFR1	0	R1412M
1159.465	0.884	1273161	WORD_OFF	n/a	n/a	BINDER	OfficeSupplies	4	10	[0, 0, 0]	n/a	catFR1	0	R1412M
1160.349	1.6	1274043	WORD	n/a	wordpools/wordpool_categorized_EN.txt	CAKE	Desserts	5	10	[0, 0, 0]	n/a	catFR1	0	R1412M
1161.949	0.867	1275641	WORD_OFF	n/a	n/a	CAKE	Desserts	5	10	[0, 0, 0]	n/a	catFR1	0	R1412M
1162.816	1.615	1276509	WORD	n/a	wordpools/wordpool_categorized_EN.txt	PASTRY	Desserts	6	10	[0, 0, 0]	n/a	catFR1	0	R1412M
1164.431	0.885	1278121	WORD_OFF	n/a	n/a	PASTRY	Desserts	6	10	[0, 0, 0]	n/a	catFR1	0	R1412M
1165.316	1.6	1279003	WORD	n/a	wordpools/wordpool_categorized_EN.txt	STAPLER	OfficeSupplies	7	10	[0, 0, 0]	n/a	catFR1	0	R1412M
1166.916	0.933	1280615	WORD_OFF	n/a	n/a	STAPLER	OfficeSupplies	7	10	[0, 0, 0]	n/a	catFR1	0	R1412M
1167.849	1.6	1281538	WORD	n/a	wordpools/wordpool_categorized_EN.txt	PENCIL	OfficeSupplies	8	10	[0, 0, 0]	n/a	catFR1	0	R1412M
1169.449	0.967	1283137	WORD_OFF	n/a	n/a	PENCIL	OfficeSupplies	8	10	[0, 0, 0]	n/a	catFR1	0	R1412M
1170.416	1.616	1284101	WORD	n/a	wordpools/wordpool_categorized_EN.txt	CUPCAKE	Desserts	9	10	[0, 0, 0]	n/a	catFR1	0	R1412M
1172.032	0.817	1285727	WORD_OFF	n/a	n/a	CUPCAKE	Desserts	9	10	[0, 0, 0]	n/a	catFR1	0	R1412M
1172.849	1.6	1286540	WORD	n/a	wordpools/wordpool_categorized_EN.txt	FUDGE	Desserts	10	10	[0, 0, 0]	n/a	catFR1	0	R1412M
1174.449	0.966	1288138	WORD_OFF	n/a	n/a	FUDGE	Desserts	10	10	[0, 0, 0]	n/a	catFR1	0	R1412M
1175.415	1.601	1289102	WORD	n/a	wordpools/wordpool_categorized_EN.txt	HAWK	Birds	11	10	[0, 0, 0]	n/a	catFR1	0	R1412M
1177.016	0.983	1290714	WORD_OFF	n/a	n/a	HAWK	Birds	11	10	[0, 0, 0]	n/a	catFR1	0	R1412M
1177.999	1.6	1291693	WORD	n/a	wordpools/wordpool_categorized_EN.txt	GOOSE	Birds	12	10	[0, 0, 0]	n/a	catFR1	0	R1412M
1179.599	0.002	1293291	WORD_OFF	n/a	n/a	GOOSE	Birds	12	10	[0, 0, 0]	n/a	catFR1	0	R1412M
1179.601	0.007	1293292	PROB	4.049	n/a	n/a	n/a	-999	10	[7, 3, 1]	11.0	catFR1	0	R1412M
1179.608	0.0	1293299	START	n/a	n/a	n/a	n/a	-999	10	[-999, -999, -999]	n/a	catFR1	0	R1412M
1179.608	0.0	1293305	ENCODING_END	n/a	n/a	n/a	n/a	-999	10	[0, 0, 0]	n/a	catFR1	0	R1412M
1179.608	4.058	1293305	DISTRACT_START	n/a	n/a	n/a	n/a	-999	10	[0, 0, 0]	n/a	catFR1	0	R1412M
1183.666	3.7	1297357	PROB	3.683	n/a	n/a	n/a	-999	10	[7, 7, 7]	21.0	catFR1	0	R1412M
1187.366	4.4	1301057	PROB	4.383	n/a	n/a	n/a	-999	10	[6, 4, 4]	14.0	catFR1	0	R1412M
1191.766	9.283	1305457	PROB	9.266	n/a	n/a	n/a	-999	10	[5, 6, 8]	19.0	catFR1	0	R1412M
1201.049	0.0	1314739	STOP	n/a	n/a	n/a	n/a	-999	10	[-999, -999, -999]	n/a	catFR1	0	R1412M
1201.049	2.116	1314743	DISTRACT_END	n/a	n/a	n/a	n/a	-999	10	[0, 0, 0]	n/a	catFR1	0	R1412M
1203.165	0.426	1316859	REC_START	n/a	n/a	n/a	n/a	-999	10	[0, 0, 0]	n/a	catFR1	0	R1412M
1203.591	0.734	1317281	REC_WORD	0.426	n/a	HAWK	Birds	11	10	[0, 0, 0]	n/a	catFR1	0	R1412M
1204.325	0.947	1318015	REC_WORD	1.16	n/a	SEAGULL	Birds	2	10	[0, 0, 0]	n/a	catFR1	0	R1412M
1205.272	0.935	1318962	REC_WORD	2.107	n/a	PIGEON	Birds	1	10	[0, 0, 0]	n/a	catFR1	0	R1412M
1206.207	0.765	1319897	REC_WORD	3.042	n/a	CAKE	Desserts	5	10	[0, 0, 0]	n/a	catFR1	0	R1412M
1206.972	16.184	1320662	REC_WORD	3.807	n/a	CUPCAKE	Desserts	9	10	[0, 0, 0]	n/a	catFR1	0	R1412M
1223.156	10.25	1336845	REC_WORD	19.991	n/a	GOOSE	Birds	12	10	[0, 0, 0]	n/a	catFR1	0	R1412M
1233.406	7.025	1347093	REC_END	n/a	n/a	n/a	n/a	-999	10	[0, 0, 0]	n/a	catFR1	0	R1412M
1240.431	10.352	1354120	COUNTDOWN_START	n/a	n/a	n/a	n/a	-999	11	[0, 0, 0]	n/a	catFR1	0	R1412M
1250.783	0.0	1364467	COUNTDOWN_END	n/a	n/a	n/a	n/a	-999	11	[0, 0, 0]	n/a	catFR1	0	R1412M
1250.783	2.033	1364467	ENCODING_START	n/a	n/a	n/a	n/a	-999	11	[0, 0, 0]	n/a	catFR1	0	R1412M
1252.816	1.6	1366506	WORD	n/a	wordpools/wordpool_categorized_EN.txt	TROMBONE	Instruments	1	11	[0, 0, 0]	n/a	catFR1	0	R1412M
1254.416	0.899	1368104	WORD_OFF	n/a	n/a	TROMBONE	Instruments	1	11	[0, 0, 0]	n/a	catFR1	0	R1412M
1255.315	1.601	1369000	WORD	n/a	wordpools/wordpool_categorized_EN.txt	TRUMPET	Instruments	2	11	[0, 0, 0]	n/a	catFR1	0	R1412M
1256.916	0.999	1370598	WORD_OFF	n/a	n/a	TRUMPET	Instruments	2	11	[0, 0, 0]	n/a	catFR1	0	R1412M
1257.915	1.601	1371604	WORD	n/a	wordpools/wordpool_categorized_EN.txt	CAULIFLOWER	Vegetables	3	11	[0, 0, 0]	n/a	catFR1	0	R1412M
1259.516	0.966	1373202	WORD_OFF	n/a	n/a	CAULIFLOWER	Vegetables	3	11	[0, 0, 0]	n/a	catFR1	0	R1412M
1260.482	1.617	1374166	WORD	n/a	wordpools/wordpool_categorized_EN.txt	SPINACH	Vegetables	4	11	[0, 0, 0]	n/a	catFR1	0	R1412M
1262.099	0.783	1375792	WORD_OFF	n/a	n/a	SPINACH	Vegetables	4	11	[0, 0, 0]	n/a	catFR1	0	R1412M
1262.882	1.6	1376564	WORD	n/a	wordpools/wordpool_categorized_EN.txt	MOUSSE	Desserts	5	11	[0, 0, 0]	n/a	catFR1	0	R1412M
1264.482	0.933	1378176	WORD_OFF	n/a	n/a	MOUSSE	Desserts	5	11	[0, 0, 0]	n/a	catFR1	0	R1412M
1265.415	1.601	1379099	WORD	n/a	wordpools/wordpool_categorized_EN.txt	JELLO	Desserts	6	11	[0, 0, 0]	n/a	catFR1	0	R1412M
1267.016	0.8	1380697	WORD_OFF	n/a	n/a	JELLO	Desserts	6	11	[0, 0, 0]	n/a	catFR1	0	R1412M
1267.816	1.616	1381510	WORD	n/a	wordpools/wordpool_categorized_EN.txt	ORGAN	Instruments	7	11	[0, 0, 0]	n/a	catFR1	0	R1412M
1269.432	0.934	1383122	WORD_OFF	n/a	n/a	ORGAN	Instruments	7	11	[0, 0, 0]	n/a	catFR1	0	R1412M
1270.366	1.6	1384059	WORD	n/a	wordpools/wordpool_categorized_EN.txt	GUITAR	Instruments	8	11	[0, 0, 0]	n/a	catFR1	0	R1412M
1271.966	1.0	1385657	WORD_OFF	n/a	n/a	GUITAR	Instruments	8	11	[0, 0, 0]	n/a	catFR1	0	R1412M
1272.966	1.6	1386649	WORD	n/a	wordpools/wordpool_categorized_EN.txt	BROWNIES	Desserts	9	11	[0, 0, 0]	n/a	catFR1	0	R1412M
1274.566	0.883	1388247	WORD_OFF	n/a	n/a	BROWNIES	Desserts	9	11	[0, 0, 0]	n/a	catFR1	0	R1412M
1275.449	1.616	1389143	WORD	n/a	wordpools/wordpool_categorized_EN.txt	PIE	Desserts	10	11	[0, 0, 0]	n/a	catFR1	0	R1412M
1277.065	0.984	1390755	WORD_OFF	n/a	n/a	PIE	Desserts	10	11	[0, 0, 0]	n/a	catFR1	0	R1412M
1278.049	1.6	1391733	WORD	n/a	wordpools/wordpool_categorized_EN.txt	CABBAGE	Vegetables	11	11	[0, 0, 0]	n/a	catFR1	0	R1412M
1279.649	0.883	1393331	WORD_OFF	n/a	n/a	CABBAGE	Vegetables	11	11	[0, 0, 0]	n/a	catFR1	0	R1412M
1280.532	1.601	1394213	WORD	n/a	wordpools/wordpool_categorized_EN.txt	CARROT	Vegetables	12	11	[0, 0, 0]	n/a	catFR1	0	R1412M
1282.133	0.001	1395819	PROB	7.849	n/a	n/a	n/a	-999	11	[1, 5, 3]	9.0	catFR1	0	R1412M
1282.134	0.0	1395820	START	n/a	n/a	n/a	n/a	-999	11	[-999, -999, -999]	n/a	catFR1	0	R1412M
1282.132	0.002	1395825	WORD_OFF	n/a	n/a	CARROT	Vegetables	12	11	[0, 0, 0]	n/a	catFR1	0	R1412M
1282.134	0.0	1395825	ENCODING_END	n/a	n/a	n/a	n/a	-999	11	[0, 0, 0]	n/a	catFR1	0	R1412M
1282.134	7.865	1395825	DISTRACT_START	n/a	n/a	n/a	n/a	-999	11	[0, 0, 0]	n/a	catFR1	0	R1412M
1289.999	12.499	1403685	PROB	12.483	n/a	n/a	n/a	-999	11	[7, 6, 8]	22.0	catFR1	0	R1412M
1302.498	0.0	1416184	STOP	n/a	n/a	n/a	n/a	-999	11	[-999, -999, -999]	n/a	catFR1	0	R1412M
1302.498	2.017	1416188	DISTRACT_END	n/a	n/a	n/a	n/a	-999	11	[0, 0, 0]	n/a	catFR1	0	R1412M
1304.515	2.512	1418208	REC_START	n/a	n/a	n/a	n/a	-999	11	[0, 0, 0]	n/a	catFR1	0	R1412M
1307.027	12.332	1420712	REC_WORD	2.512	n/a	BROWNIES	Desserts	9	11	[0, 0, 0]	n/a	catFR1	0	R1412M
1319.359	15.396	1433044	REC_WORD	14.844	n/a	JELLO	Desserts	6	11	[0, 0, 0]	n/a	catFR1	0	R1412M
1334.755	14.444	1448442	REC_END	n/a	n/a	n/a	n/a	-999	11	[0, 0, 0]	n/a	catFR1	0	R1412M
1349.199	10.351	1462881	COUNTDOWN_START	n/a	n/a	n/a	n/a	-999	12	[0, 0, 0]	n/a	catFR1	0	R1412M
1359.55	0.0	1473228	COUNTDOWN_END	n/a	n/a	n/a	n/a	-999	12	[0, 0, 0]	n/a	catFR1	0	R1412M
1359.55	2.249	1473228	ENCODING_START	n/a	n/a	n/a	n/a	-999	12	[0, 0, 0]	n/a	catFR1	0	R1412M
1361.799	1.6	1475488	WORD	n/a	wordpools/wordpool_categorized_EN.txt	ROBIN	Birds	1	12	[0, 0, 0]	n/a	catFR1	0	R1412M
1363.399	0.883	1477086	WORD_OFF	n/a	n/a	ROBIN	Birds	1	12	[0, 0, 0]	n/a	catFR1	0	R1412M
1364.282	1.6	1477968	WORD	n/a	wordpools/wordpool_categorized_EN.txt	SPARROW	Birds	2	12	[0, 0, 0]	n/a	catFR1	0	R1412M
1365.882	0.817	1479566	WORD_OFF	n/a	n/a	SPARROW	Birds	2	12	[0, 0, 0]	n/a	catFR1	0	R1412M
1366.699	1.617	1480379	WORD	n/a	wordpools/wordpool_categorized_EN.txt	BEETLE	Insects	3	12	[0, 0, 0]	n/a	catFR1	0	R1412M
1368.316	0.866	1482005	WORD_OFF	n/a	n/a	BEETLE	Insects	3	12	[0, 0, 0]	n/a	catFR1	0	R1412M
1369.182	1.6	1482859	WORD	n/a	wordpools/wordpool_categorized_EN.txt	CRICKET	Insects	4	12	[0, 0, 0]	n/a	catFR1	0	R1412M
1370.782	0.833	1484471	WORD_OFF	n/a	n/a	CRICKET	Insects	4	12	[0, 0, 0]	n/a	catFR1	0	R1412M
1371.615	1.601	1485298	WORD	n/a	wordpools/wordpool_categorized_EN.txt	COMPUTER	Electronics	5	12	[0, 0, 0]	n/a	catFR1	0	R1412M
1373.216	0.833	1486896	WORD_OFF	n/a	n/a	COMPUTER	Electronics	5	12	[0, 0, 0]	n/a	catFR1	0	R1412M
1374.049	1.6	1487736	WORD	n/a	wordpools/wordpool_categorized_EN.txt	MICROWAVE	Electronics	6	12	[0, 0, 0]	n/a	catFR1	0	R1412M
1375.649	0.917	1489335	WORD_OFF	n/a	n/a	MICROWAVE	Electronics	6	12	[0, 0, 0]	n/a	catFR1	0	R1412M
1376.566	1.616	1490244	WORD	n/a	wordpools/wordpool_categorized_EN.txt	GNAT	Insects	7	12	[0, 0, 0]	n/a	catFR1	0	R1412M
1378.182	0.9	1491870	WORD_OFF	n/a	n/a	GNAT	Insects	7	12	[0, 0, 0]	n/a	catFR1	0	R1412M
1379.082	1.617	1492765	WORD	n/a	wordpools/wordpool_categorized_EN.txt	MOTH	Insects	8	12	[0, 0, 0]	n/a	catFR1	0	R1412M
1380.699	0.932	1494377	WORD_OFF	n/a	n/a	MOTH	Insects	8	12	[0, 0, 0]	n/a	catFR1	0	R1412M
1381.631	1.601	1495314	WORD	n/a	wordpools/wordpool_categorized_EN.txt	FINCH	Birds	9	12	[0, 0, 0]	n/a	catFR1	0	R1412M
1383.232	0.817	1496912	WORD_OFF	n/a	n/a	FINCH	Birds	9	12	[0, 0, 0]	n/a	catFR1	0	R1412M
1384.049	1.617	1497725	WORD	n/a	wordpools/wordpool_categorized_EN.txt	BLUEBIRD	Birds	10	12	[0, 0, 0]	n/a	catFR1	0	R1412M
1385.666	0.816	1499351	WORD_OFF	n/a	n/a	BLUEBIRD	Birds	10	12	[0, 0, 0]	n/a	catFR1	0	R1412M
1386.482	1.616	1500164	WORD	n/a	wordpools/wordpool_categorized_EN.txt	PHONE	Electronics	11	12	[0, 0, 0]	n/a	catFR1	0	R1412M
1388.098	0.901	1501776	WORD_OFF	n/a	n/a	PHONE	Electronics	11	12	[0, 0, 0]	n/a	catFR1	0	R1412M
1388.999	1.617	1502685	WORD	n/a	wordpools/wordpool_categorized_EN.txt	SCANNER	Electronics	12	12	[0, 0, 0]	n/a	catFR1	0	R1412M
1390.616	0.001	1504297	WORD_OFF	n/a	n/a	SCANNER	Electronics	12	12	[0, 0, 0]	n/a	catFR1	0	R1412M
1390.617	0.0	1504297	ENCODING_END	n/a	n/a	n/a	n/a	-999	12	[0, 0, 0]	n/a	catFR1	0	R1412M
1390.617	0.0	1504297	DISTRACT_START	n/a	n/a	n/a	n/a	-999	12	[0, 0, 0]	n/a	catFR1	0	R1412M
1390.616	0.001	1504297	PROB	6.7	n/a	n/a	n/a	-999	12	[8, 5, 1]	14.0	catFR1	0	R1412M
1390.617	6.716	1504298	START	n/a	n/a	n/a	n/a	-999	12	[-999, -999, -999]	n/a	catFR1	0	R1412M
1397.333	7.017	1511014	PROB	6.999	n/a	n/a	n/a	-999	12	[8, 8, 8]	24.0	catFR1	0	R1412M
1404.35	4.816	1518031	PROB	4.799	n/a	n/a	n/a	-999	12	[4, 5, 2]	11.0	catFR1	0	R1412M
1409.166	5.083	1522846	PROB	5.066	n/a	n/a	n/a	-999	12	[2, 8, 3]	13.0	catFR1	0	R1412M
1414.249	0.0	1527926	DISTRACT_END	n/a	n/a	n/a	n/a	-999	12	[0, 0, 0]	n/a	catFR1	0	R1412M
1414.249	2.266	1527929	STOP	n/a	n/a	n/a	n/a	-999	12	[-999, -999, -999]	n/a	catFR1	0	R1412M
1416.515	1.068	1530194	REC_START	n/a	n/a	n/a	n/a	-999	12	[0, 0, 0]	n/a	catFR1	0	R1412M
1417.583	4.42	1531263	REC_WORD	1.068	n/a	MICROWAVE	Electronics	6	12	[0, 0, 0]	n/a	catFR1	0	R1412M
1422.003	24.759	1535683	REC_WORD	5.488	n/a	BEETLE	Insects	3	12	[0, 0, 0]	n/a	catFR1	0	R1412M
1446.762	0.0	1560442	REC_END	n/a	n/a	n/a	n/a	-999	12	[0, 0, 0]	n/a	catFR1	0	R1412M
