onset	duration	sample	trial_type	response_time	stim_file	item_name	category	serialpos	list	test	answer	experiment	session	subject
0.0	1.761	9203	INSTRUCT_START	n/a	n/a	n/a	n/a	-999	-999	[0, 0, 0]	n/a	catFR1	4	R1375C
1.761	39.898	10953	INSTRUCT_END	n/a	n/a	n/a	n/a	-999	-999	[0, 0, 0]	n/a	catFR1	4	R1375C
41.659	10.0	50853	COUNTDOWN_START	n/a	n/a	n/a	n/a	-999	-999	[0, 0, 0]	n/a	catFR1	4	R1375C
52.026	0.001	61228	COUNTDOWN_END	n/a	n/a	n/a	n/a	-999	-999	[0, 0, 0]	n/a	catFR1	4	R1375C
52.027	2.115	61228	ENCODING_START	n/a	n/a	n/a	n/a	-999	-1	[0, 0, 0]	n/a	catFR1	4	R1375C
54.142	1.6	63336	WORD	n/a	n/a	LEATHER	Materials	1	-1	[0, 0, 0]	n/a	catFR1	4	R1375C
55.758	0.85	64948	WORD_OFF	n/a	n/a	LEATHER	Materials	1	-1	[0, 0, 0]	n/a	catFR1	4	R1375C
56.608	1.6	65802	WORD	n/a	n/a	DENIM	Materials	2	-1	[0, 0, 0]	n/a	catFR1	4	R1375C
58.208	1.0	67400	WORD_OFF	n/a	n/a	DENIM	Materials	2	-1	[0, 0, 0]	n/a	catFR1	4	R1375C
59.208	1.6	68406	WORD	n/a	n/a	FARMER	Professions	3	-1	[0, 0, 0]	n/a	catFR1	4	R1375C
60.824	0.834	70018	WORD_OFF	n/a	n/a	FARMER	Professions	3	-1	[0, 0, 0]	n/a	catFR1	4	R1375C
61.658	1.6	70859	WORD	n/a	n/a	TEACHER	Professions	4	-1	[0, 0, 0]	n/a	catFR1	4	R1375C
63.258	0.901	72457	WORD_OFF	n/a	n/a	TEACHER	Professions	4	-1	[0, 0, 0]	n/a	catFR1	4	R1375C
64.159	1.6	73352	WORD	n/a	n/a	SECOND	Times	5	-1	[0, 0, 0]	n/a	catFR1	4	R1375C
65.775	0.95	74964	WORD_OFF	n/a	n/a	SECOND	Times	5	-1	[0, 0, 0]	n/a	catFR1	4	R1375C
66.725	1.6	75915	WORD	n/a	n/a	HOUR	Times	6	-1	[0, 0, 0]	n/a	catFR1	4	R1375C
68.325	0.866	77513	WORD_OFF	n/a	n/a	HOUR	Times	6	-1	[0, 0, 0]	n/a	catFR1	4	R1375C
69.191	1.6	78381	WORD	n/a	n/a	FIREMAN	Professions	7	-1	[0, 0, 0]	n/a	catFR1	4	R1375C
70.791	0.967	79979	WORD_OFF	n/a	n/a	FIREMAN	Professions	7	-1	[0, 0, 0]	n/a	catFR1	4	R1375C
71.758	1.6	80958	WORD	n/a	n/a	PLUMBER	Professions	8	-1	[0, 0, 0]	n/a	catFR1	4	R1375C
73.358	0.967	82556	WORD_OFF	n/a	n/a	PLUMBER	Professions	8	-1	[0, 0, 0]	n/a	catFR1	4	R1375C
74.325	1.6	83520	WORD	n/a	n/a	DAY	Times	9	-1	[0, 0, 0]	n/a	catFR1	4	R1375C
75.925	0.967	85119	WORD_OFF	n/a	n/a	DAY	Times	9	-1	[0, 0, 0]	n/a	catFR1	4	R1375C
76.892	1.6	86083	WORD	n/a	n/a	MINUTE	Times	10	-1	[0, 0, 0]	n/a	catFR1	4	R1375C
78.508	1.0	87709	WORD_OFF	n/a	n/a	MINUTE	Times	10	-1	[0, 0, 0]	n/a	catFR1	4	R1375C
79.508	1.6	88701	WORD	n/a	n/a	SILK	Materials	11	-1	[0, 0, 0]	n/a	catFR1	4	R1375C
81.125	1.0	90313	WORD_OFF	n/a	n/a	SILK	Materials	11	-1	[0, 0, 0]	n/a	catFR1	4	R1375C
82.125	1.6	91319	WORD	n/a	n/a	WOOL	Materials	12	-1	[0, 0, 0]	n/a	catFR1	4	R1375C
83.742	0.001	92931	WORD_OFF	n/a	n/a	WOOL	Materials	12	-1	[0, 0, 0]	n/a	catFR1	4	R1375C
83.743	0.0	92931	ENCODING_END	n/a	n/a	n/a	n/a	-999	-1	[0, 0, 0]	n/a	catFR1	4	R1375C
83.743	0.002	92935	PROB	3.316	n/a	n/a	n/a	-999	-1	[2, 1, 1]	4.0	catFR1	4	R1375C
83.745	0.0	92937	START	n/a	n/a	n/a	n/a	-999	-1	[-999, -999, -999]	n/a	catFR1	4	R1375C
83.745	3.33	92944	DISTRACT_START	n/a	n/a	n/a	n/a	-999	-1	[0, 0, 0]	n/a	catFR1	4	R1375C
87.075	7.417	96267	PROB	7.4	n/a	n/a	n/a	-999	-1	[2, 6, 3]	11.0	catFR1	4	R1375C
94.492	8.866	103684	PROB	8.849	n/a	n/a	n/a	-999	-1	[4, 7, 8]	19.0	catFR1	4	R1375C
103.358	3.683	112549	PROB	3.666	n/a	n/a	n/a	-999	-1	[7, 7, 7]	21.0	catFR1	4	R1375C
107.041	0.0	116229	DISTRACT_END	n/a	n/a	n/a	n/a	-999	-1	[0, 0, 0]	n/a	catFR1	4	R1375C
107.041	1.018	116232	STOP	n/a	n/a	n/a	n/a	-999	-1	[-999, -999, -999]	n/a	catFR1	4	R1375C
108.059	2.38	117248	REC_START	n/a	n/a	n/a	n/a	-999	-1	[0, 0, 0]	n/a	catFR1	4	R1375C
110.439	0.532	119630	REC_WORD_VV	2.38	n/a	<>	n/a	-999	-1	[0, 0, 0]	n/a	catFR1	4	R1375C
110.971	1.368	120162	REC_WORD_VV	2.912	n/a	<>	n/a	-999	-1	[0, 0, 0]	n/a	catFR1	4	R1375C
112.339	0.513	121530	REC_WORD_VV	4.28	n/a	<>	n/a	-999	-1	[0, 0, 0]	n/a	catFR1	4	R1375C
112.852	0.359	122043	REC_WORD_VV	4.793	n/a	<>	n/a	-999	-1	[0, 0, 0]	n/a	catFR1	4	R1375C
113.211	0.788	122402	REC_WORD_VV	5.152	n/a	<>	n/a	-999	-1	[0, 0, 0]	n/a	catFR1	4	R1375C
113.999	0.268	123190	REC_WORD_VV	5.94	n/a	<>	n/a	-999	-1	[0, 0, 0]	n/a	catFR1	4	R1375C
114.267	0.512	123458	REC_WORD_VV	6.208	n/a	<>	n/a	-999	-1	[0, 0, 0]	n/a	catFR1	4	R1375C
114.779	2.092	123970	REC_WORD_VV	6.72	n/a	<>	n/a	-999	-1	[0, 0, 0]	n/a	catFR1	4	R1375C
116.871	11.297	126062	REC_WORD_VV	8.812	n/a	<>	n/a	-999	-1	[0, 0, 0]	n/a	catFR1	4	R1375C
128.168	5.522	137358	REC_WORD_VV	20.109	n/a	<>	n/a	-999	-1	[0, 0, 0]	n/a	catFR1	4	R1375C
133.69	4.674	142880	REC_WORD_VV	25.631	n/a	<>	n/a	-999	-1	[0, 0, 0]	n/a	catFR1	4	R1375C
138.364	8.278	147559	REC_END	n/a	n/a	n/a	n/a	-999	-1	[0, 0, 0]	n/a	catFR1	4	R1375C
146.642	10.0	155840	COUNTDOWN_START	n/a	n/a	n/a	n/a	-999	1	[0, 0, 0]	n/a	catFR1	4	R1375C
156.992	0.0	166187	COUNTDOWN_END	n/a	n/a	n/a	n/a	-999	1	[0, 0, 0]	n/a	catFR1	4	R1375C
156.992	2.016	166187	ENCODING_START	n/a	n/a	n/a	n/a	-999	1	[0, 0, 0]	n/a	catFR1	4	R1375C
159.008	1.6	168199	WORD	n/a	wordpools/wordpool_categorized_EN.txt	IRON	Appliances	1	1	[0, 0, 0]	n/a	catFR1	4	R1375C
160.608	0.85	169797	WORD_OFF	n/a	n/a	IRON	Appliances	1	1	[0, 0, 0]	n/a	catFR1	4	R1375C
161.458	1.6	170651	WORD	n/a	wordpools/wordpool_categorized_EN.txt	REFRIGERATOR	Appliances	2	1	[0, 0, 0]	n/a	catFR1	4	R1375C
163.058	0.984	172249	WORD_OFF	n/a	n/a	REFRIGERATOR	Appliances	2	1	[0, 0, 0]	n/a	catFR1	4	R1375C
164.042	1.6	173227	WORD	n/a	wordpools/wordpool_categorized_EN.txt	GLUE	Officesupplies	3	1	[0, 0, 0]	n/a	catFR1	4	R1375C
165.642	0.833	174826	WORD_OFF	n/a	n/a	GLUE	Officesupplies	3	1	[0, 0, 0]	n/a	catFR1	4	R1375C
166.475	1.6	175666	WORD	n/a	wordpools/wordpool_categorized_EN.txt	NOTEBOOK	Officesupplies	4	1	[0, 0, 0]	n/a	catFR1	4	R1375C
168.091	0.817	177278	WORD_OFF	n/a	n/a	NOTEBOOK	Officesupplies	4	1	[0, 0, 0]	n/a	catFR1	4	R1375C
168.908	1.6	178092	WORD	n/a	wordpools/wordpool_categorized_EN.txt	SPRUCE	Trees	5	1	[0, 0, 0]	n/a	catFR1	4	R1375C
170.508	0.983	179703	WORD_OFF	n/a	n/a	SPRUCE	Trees	5	1	[0, 0, 0]	n/a	catFR1	4	R1375C
171.491	1.6	180681	WORD	n/a	wordpools/wordpool_categorized_EN.txt	OAK	Trees	6	1	[0, 0, 0]	n/a	catFR1	4	R1375C
173.108	1.0	182293	WORD_OFF	n/a	n/a	OAK	Trees	6	1	[0, 0, 0]	n/a	catFR1	4	R1375C
174.108	1.6	183299	WORD	n/a	wordpools/wordpool_categorized_EN.txt	STAPLER	Officesupplies	7	1	[0, 0, 0]	n/a	catFR1	4	R1375C
175.724	0.901	184911	WORD_OFF	n/a	n/a	STAPLER	Officesupplies	7	1	[0, 0, 0]	n/a	catFR1	4	R1375C
176.625	1.6	185820	WORD	n/a	wordpools/wordpool_categorized_EN.txt	BINDER	Officesupplies	8	1	[0, 0, 0]	n/a	catFR1	4	R1375C
178.241	0.967	187432	WORD_OFF	n/a	n/a	BINDER	Officesupplies	8	1	[0, 0, 0]	n/a	catFR1	4	R1375C
179.208	1.6	188397	WORD	n/a	wordpools/wordpool_categorized_EN.txt	CEDAR	Trees	9	1	[0, 0, 0]	n/a	catFR1	4	R1375C
180.825	0.883	190009	WORD_OFF	n/a	n/a	CEDAR	Trees	9	1	[0, 0, 0]	n/a	catFR1	4	R1375C
181.708	1.6	190890	WORD	n/a	wordpools/wordpool_categorized_EN.txt	CYPRESS	Trees	10	1	[0, 0, 0]	n/a	catFR1	4	R1375C
183.324	0.934	192516	WORD_OFF	n/a	n/a	CYPRESS	Trees	10	1	[0, 0, 0]	n/a	catFR1	4	R1375C
184.258	1.6	193453	WORD	n/a	wordpools/wordpool_categorized_EN.txt	BLENDER	Appliances	11	1	[0, 0, 0]	n/a	catFR1	4	R1375C
185.858	0.916	195051	WORD_OFF	n/a	n/a	BLENDER	Appliances	11	1	[0, 0, 0]	n/a	catFR1	4	R1375C
186.774	1.6	195961	WORD	n/a	wordpools/wordpool_categorized_EN.txt	DRYER	Appliances	12	1	[0, 0, 0]	n/a	catFR1	4	R1375C
188.391	0.002	197578	PROB	2.867	n/a	n/a	n/a	-999	1	[5, 3, 4]	11.0	catFR1	4	R1375C
188.393	0.0	197580	START	n/a	n/a	n/a	n/a	-999	1	[-999, -999, -999]	n/a	catFR1	4	R1375C
188.391	0.002	197582	WORD_OFF	n/a	n/a	DRYER	Appliances	12	1	[0, 0, 0]	n/a	catFR1	4	R1375C
188.393	0.0	197586	ENCODING_END	n/a	n/a	n/a	n/a	-999	1	[0, 0, 0]	n/a	catFR1	4	R1375C
188.393	2.882	197586	DISTRACT_START	n/a	n/a	n/a	n/a	-999	1	[0, 0, 0]	n/a	catFR1	4	R1375C
191.275	2.75	200462	PROB	2.733	n/a	n/a	n/a	-999	1	[1, 1, 3]	5.0	catFR1	4	R1375C
194.025	1.517	203212	PROB	1.5	n/a	n/a	n/a	-999	1	[1, 1, 2]	4.0	catFR1	4	R1375C
195.542	5.833	204729	PROB	5.816	n/a	n/a	n/a	-999	1	[4, 8, 7]	19.0	catFR1	4	R1375C
201.375	3.251	210561	PROB	3.233	n/a	n/a	n/a	-999	1	[1, 3, 6]	10.0	catFR1	4	R1375C
204.626	4.849	213812	PROB	4.832	n/a	n/a	n/a	-999	1	[7, 7, 8]	22.0	catFR1	4	R1375C
209.475	0.0	218661	STOP	n/a	n/a	n/a	n/a	-999	1	[-999, -999, -999]	n/a	catFR1	4	R1375C
209.475	1.1	218666	DISTRACT_END	n/a	n/a	n/a	n/a	-999	1	[0, 0, 0]	n/a	catFR1	4	R1375C
210.575	2.056	219769	REC_START	n/a	n/a	n/a	n/a	-999	1	[0, 0, 0]	n/a	catFR1	4	R1375C
212.631	3.952	221817	REC_WORD_VV	2.056	n/a	<>	n/a	-999	1	[0, 0, 0]	n/a	catFR1	4	R1375C
216.583	1.066	225769	REC_WORD	6.008	n/a	SPRUCE	Trees	5	1	[0, 0, 0]	n/a	catFR1	4	R1375C
217.649	3.233	226835	REC_WORD_VV	7.074	n/a	<>	n/a	-999	1	[0, 0, 0]	n/a	catFR1	4	R1375C
220.882	0.815	230067	REC_WORD	10.307	n/a	OAK	Trees	6	1	[0, 0, 0]	n/a	catFR1	4	R1375C
221.697	2.523	230882	REC_WORD	11.122	n/a	CYPRESS	Trees	10	1	[0, 0, 0]	n/a	catFR1	4	R1375C
224.22	4.367	233405	REC_WORD	13.645	n/a	BINDER	Officesupplies	8	1	[0, 0, 0]	n/a	catFR1	4	R1375C
228.587	12.284	237772	REC_WORD_VV	18.012	n/a	<>	n/a	-999	1	[0, 0, 0]	n/a	catFR1	4	R1375C
240.871	295.67	250052	REC_END	n/a	n/a	n/a	n/a	-999	1	[0, 0, 0]	n/a	catFR1	4	R1375C
536.541	10.0	545709	COUNTDOWN_START	n/a	n/a	n/a	n/a	-999	2	[0, 0, 0]	n/a	catFR1	4	R1375C
546.893	0.0	556056	COUNTDOWN_END	n/a	n/a	n/a	n/a	-999	2	[0, 0, 0]	n/a	catFR1	4	R1375C
546.893	1.965	556070	ENCODING_START	n/a	n/a	n/a	n/a	-999	2	[0, 0, 0]	n/a	catFR1	4	R1375C
548.858	1.6	558027	WORD	n/a	wordpools/wordpool_categorized_EN.txt	OCEAN	Landscapes	1	2	[0, 0, 0]	n/a	catFR1	4	R1375C
550.459	0.883	559625	WORD_OFF	n/a	n/a	OCEAN	Landscapes	1	2	[0, 0, 0]	n/a	catFR1	4	R1375C
551.342	1.6	560507	WORD	n/a	wordpools/wordpool_categorized_EN.txt	WOODS	Landscapes	2	2	[0, 0, 0]	n/a	catFR1	4	R1375C
552.958	0.85	562132	WORD_OFF	n/a	n/a	WOODS	Landscapes	2	2	[0, 0, 0]	n/a	catFR1	4	R1375C
553.808	1.6	562973	WORD	n/a	wordpools/wordpool_categorized_EN.txt	BOAT	Vehicles	3	2	[0, 0, 0]	n/a	catFR1	4	R1375C
555.408	0.867	564585	WORD_OFF	n/a	n/a	BOAT	Vehicles	3	2	[0, 0, 0]	n/a	catFR1	4	R1375C
556.275	1.6	565439	WORD	n/a	wordpools/wordpool_categorized_EN.txt	BIKE	Vehicles	4	2	[0, 0, 0]	n/a	catFR1	4	R1375C
557.875	0.834	567051	WORD_OFF	n/a	n/a	BIKE	Vehicles	4	2	[0, 0, 0]	n/a	catFR1	4	R1375C
558.709	1.6	567878	WORD	n/a	wordpools/wordpool_categorized_EN.txt	ATTIC	Building	5	2	[0, 0, 0]	n/a	catFR1	4	R1375C
560.325	0.85	569490	WORD_OFF	n/a	n/a	ATTIC	Building	5	2	[0, 0, 0]	n/a	catFR1	4	R1375C
561.175	1.6	570344	WORD	n/a	wordpools/wordpool_categorized_EN.txt	DOOR	Building	6	2	[0, 0, 0]	n/a	catFR1	4	R1375C
562.775	0.767	571942	WORD_OFF	n/a	n/a	DOOR	Building	6	2	[0, 0, 0]	n/a	catFR1	4	R1375C
563.542	1.6	572714	WORD	n/a	wordpools/wordpool_categorized_EN.txt	TRUCK	Vehicles	7	2	[0, 0, 0]	n/a	catFR1	4	R1375C
565.142	0.783	574312	WORD_OFF	n/a	n/a	TRUCK	Vehicles	7	2	[0, 0, 0]	n/a	catFR1	4	R1375C
565.925	1.6	575097	WORD	n/a	wordpools/wordpool_categorized_EN.txt	MOTORCYCLE	Vehicles	8	2	[0, 0, 0]	n/a	catFR1	4	R1375C
567.525	0.767	576695	WORD_OFF	n/a	n/a	MOTORCYCLE	Vehicles	8	2	[0, 0, 0]	n/a	catFR1	4	R1375C
568.292	1.6	577467	WORD	n/a	wordpools/wordpool_categorized_EN.txt	STREAM	Landscapes	9	2	[0, 0, 0]	n/a	catFR1	4	R1375C
569.908	1.0	579079	WORD_OFF	n/a	n/a	STREAM	Landscapes	9	2	[0, 0, 0]	n/a	catFR1	4	R1375C
570.908	1.6	580071	WORD	n/a	wordpools/wordpool_categorized_EN.txt	FOREST	Landscapes	10	2	[0, 0, 0]	n/a	catFR1	4	R1375C
572.525	0.783	581697	WORD_OFF	n/a	n/a	FOREST	Landscapes	10	2	[0, 0, 0]	n/a	catFR1	4	R1375C
573.308	1.6	582482	WORD	n/a	wordpools/wordpool_categorized_EN.txt	WALL	Building	11	2	[0, 0, 0]	n/a	catFR1	4	R1375C
574.908	0.833	584080	WORD_OFF	n/a	n/a	WALL	Building	11	2	[0, 0, 0]	n/a	catFR1	4	R1375C
575.741	1.6	584907	WORD	n/a	wordpools/wordpool_categorized_EN.txt	ROOM	Building	12	2	[0, 0, 0]	n/a	catFR1	4	R1375C
577.342	0.001	586505	WORD_OFF	n/a	n/a	ROOM	Building	12	2	[0, 0, 0]	n/a	catFR1	4	R1375C
577.343	0.001	586510	PROB	2.366	n/a	n/a	n/a	-999	2	[1, 5, 1]	7.0	catFR1	4	R1375C
577.344	0.0	586511	START	n/a	n/a	n/a	n/a	-999	2	[-999, -999, -999]	n/a	catFR1	4	R1375C
577.344	0.0	586519	ENCODING_END	n/a	n/a	n/a	n/a	-999	2	[0, 0, 0]	n/a	catFR1	4	R1375C
577.344	2.382	586519	DISTRACT_START	n/a	n/a	n/a	n/a	-999	2	[0, 0, 0]	n/a	catFR1	4	R1375C
579.726	2.816	588893	PROB	2.799	n/a	n/a	n/a	-999	2	[4, 8, 5]	17.0	catFR1	4	R1375C
582.542	2.751	591709	PROB	2.733	n/a	n/a	n/a	-999	2	[8, 8, 3]	19.0	catFR1	4	R1375C
585.293	8.266	594460	PROB	8.249	n/a	n/a	n/a	-999	2	[6, 8, 7]	21.0	catFR1	4	R1375C
593.559	4.549	602726	PROB	4.532	n/a	n/a	n/a	-999	2	[5, 6, 1]	12.0	catFR1	4	R1375C
598.108	0.0	607274	STOP	n/a	n/a	n/a	n/a	-999	2	[-999, -999, -999]	n/a	catFR1	4	R1375C
598.108	1.15	607282	DISTRACT_END	n/a	n/a	n/a	n/a	-999	2	[0, 0, 0]	n/a	catFR1	4	R1375C
599.258	1.971	608426	REC_START	n/a	n/a	n/a	n/a	-999	2	[0, 0, 0]	n/a	catFR1	4	R1375C
601.229	2.298	610395	REC_WORD	1.971	n/a	OCEAN	Landscapes	1	2	[0, 0, 0]	n/a	catFR1	4	R1375C
603.527	2.769	612693	REC_WORD	4.269	n/a	WOODS	Landscapes	2	2	[0, 0, 0]	n/a	catFR1	4	R1375C
606.296	3.256	615462	REC_WORD	7.038	n/a	ATTIC	Building	5	2	[0, 0, 0]	n/a	catFR1	4	R1375C
609.552	6.916	618718	REC_WORD	10.294	n/a	FOREST	Landscapes	10	2	[0, 0, 0]	n/a	catFR1	4	R1375C
616.468	8.314	625633	REC_WORD	17.21	n/a	DOOR	Building	6	2	[0, 0, 0]	n/a	catFR1	4	R1375C
624.782	4.778	633947	REC_WORD	25.524	n/a	BOAT	Vehicles	3	2	[0, 0, 0]	n/a	catFR1	4	R1375C
629.56	1.448	638723	REC_END	n/a	n/a	n/a	n/a	-999	2	[0, 0, 0]	n/a	catFR1	4	R1375C
631.008	10.0	640170	COUNTDOWN_START	n/a	n/a	n/a	n/a	-999	3	[0, 0, 0]	n/a	catFR1	4	R1375C
641.359	0.0	650531	COUNTDOWN_END	n/a	n/a	n/a	n/a	-999	3	[0, 0, 0]	n/a	catFR1	4	R1375C
641.359	2.183	650531	ENCODING_START	n/a	n/a	n/a	n/a	-999	3	[0, 0, 0]	n/a	catFR1	4	R1375C
643.542	1.6	652707	WORD	n/a	wordpools/wordpool_categorized_EN.txt	HAND	Bodyparts	1	3	[0, 0, 0]	n/a	catFR1	4	R1375C
645.142	0.917	654306	WORD_OFF	n/a	n/a	HAND	Bodyparts	1	3	[0, 0, 0]	n/a	catFR1	4	R1375C
646.059	1.6	655229	WORD	n/a	wordpools/wordpool_categorized_EN.txt	NOSE	Bodyparts	2	3	[0, 0, 0]	n/a	catFR1	4	R1375C
647.675	0.9	656841	WORD_OFF	n/a	n/a	NOSE	Bodyparts	2	3	[0, 0, 0]	n/a	catFR1	4	R1375C
648.575	1.6	657736	WORD	n/a	wordpools/wordpool_categorized_EN.txt	RIVER	Landscapes	3	3	[0, 0, 0]	n/a	catFR1	4	R1375C
650.175	0.984	659335	WORD_OFF	n/a	n/a	RIVER	Landscapes	3	3	[0, 0, 0]	n/a	catFR1	4	R1375C
651.159	1.6	660327	WORD	n/a	wordpools/wordpool_categorized_EN.txt	ISLAND	Landscapes	4	3	[0, 0, 0]	n/a	catFR1	4	R1375C
652.758	0.951	661925	WORD_OFF	n/a	n/a	ISLAND	Landscapes	4	3	[0, 0, 0]	n/a	catFR1	4	R1375C
653.709	1.6	662875	WORD	n/a	wordpools/wordpool_categorized_EN.txt	ORGAN	Instruments	5	3	[0, 0, 0]	n/a	catFR1	4	R1375C
655.308	0.901	664474	WORD_OFF	n/a	n/a	ORGAN	Instruments	5	3	[0, 0, 0]	n/a	catFR1	4	R1375C
656.209	1.6	665369	WORD	n/a	wordpools/wordpool_categorized_EN.txt	TUBA	Instruments	6	3	[0, 0, 0]	n/a	catFR1	4	R1375C
657.808	0.767	666967	WORD_OFF	n/a	n/a	TUBA	Instruments	6	3	[0, 0, 0]	n/a	catFR1	4	R1375C
658.575	1.6	667739	WORD	n/a	wordpools/wordpool_categorized_EN.txt	MOUNTAIN	Landscapes	7	3	[0, 0, 0]	n/a	catFR1	4	R1375C
660.175	0.949	669337	WORD_OFF	n/a	n/a	MOUNTAIN	Landscapes	7	3	[0, 0, 0]	n/a	catFR1	4	R1375C
661.124	1.6	670288	WORD	n/a	wordpools/wordpool_categorized_EN.txt	BEACH	Landscapes	8	3	[0, 0, 0]	n/a	catFR1	4	R1375C
662.724	0.867	671886	WORD_OFF	n/a	n/a	BEACH	Landscapes	8	3	[0, 0, 0]	n/a	catFR1	4	R1375C
663.591	1.6	672754	WORD	n/a	wordpools/wordpool_categorized_EN.txt	KNEE	Bodyparts	9	3	[0, 0, 0]	n/a	catFR1	4	R1375C
665.192	0.783	674352	WORD_OFF	n/a	n/a	KNEE	Bodyparts	9	3	[0, 0, 0]	n/a	catFR1	4	R1375C
665.975	1.6	675138	WORD	n/a	wordpools/wordpool_categorized_EN.txt	FINGERS	Bodyparts	10	3	[0, 0, 0]	n/a	catFR1	4	R1375C
667.575	0.85	676736	WORD_OFF	n/a	n/a	FINGERS	Bodyparts	10	3	[0, 0, 0]	n/a	catFR1	4	R1375C
668.425	1.6	677590	WORD	n/a	wordpools/wordpool_categorized_EN.txt	CELLO	Instruments	11	3	[0, 0, 0]	n/a	catFR1	4	R1375C
670.025	0.833	679188	WORD_OFF	n/a	n/a	CELLO	Instruments	11	3	[0, 0, 0]	n/a	catFR1	4	R1375C
670.858	1.6	680029	WORD	n/a	wordpools/wordpool_categorized_EN.txt	PIANO	Instruments	12	3	[0, 0, 0]	n/a	catFR1	4	R1375C
672.475	0.002	681638	PROB	6.366	n/a	n/a	n/a	-999	3	[5, 8, 8]	21.0	catFR1	4	R1375C
672.477	0.0	681640	START	n/a	n/a	n/a	n/a	-999	3	[-999, -999, -999]	n/a	catFR1	4	R1375C
672.475	0.002	681641	WORD_OFF	n/a	n/a	PIANO	Instruments	12	3	[0, 0, 0]	n/a	catFR1	4	R1375C
672.477	0.0	681641	ENCODING_END	n/a	n/a	n/a	n/a	-999	3	[0, 0, 0]	n/a	catFR1	4	R1375C
672.477	6.382	681641	DISTRACT_START	n/a	n/a	n/a	n/a	-999	3	[0, 0, 0]	n/a	catFR1	4	R1375C
678.859	2.483	688021	PROB	2.466	n/a	n/a	n/a	-999	3	[2, 4, 1]	7.0	catFR1	4	R1375C
681.342	3.749	690504	PROB	3.732	n/a	n/a	n/a	-999	3	[5, 8, 8]	21.0	catFR1	4	R1375C
685.091	3.417	694253	PROB	3.4	n/a	n/a	n/a	-999	3	[3, 8, 5]	16.0	catFR1	4	R1375C
688.508	2.718	697670	PROB	2.699	n/a	n/a	n/a	-999	3	[5, 6, 4]	15.0	catFR1	4	R1375C
691.226	3.382	700388	PROB	3.365	n/a	n/a	n/a	-999	3	[3, 5, 4]	12.0	catFR1	4	R1375C
694.608	0.0	703768	DISTRACT_END	n/a	n/a	n/a	n/a	-999	3	[0, 0, 0]	n/a	catFR1	4	R1375C
694.608	1.283	703770	STOP	n/a	n/a	n/a	n/a	-999	3	[-999, -999, -999]	n/a	catFR1	4	R1375C
695.891	2.12	705049	REC_START	n/a	n/a	n/a	n/a	-999	3	[0, 0, 0]	n/a	catFR1	4	R1375C
698.011	0.69	707172	REC_WORD	2.12	n/a	TUBA	Instruments	6	3	[0, 0, 0]	n/a	catFR1	4	R1375C
698.701	0.862	707862	REC_WORD	2.81	n/a	ORGAN	Instruments	5	3	[0, 0, 0]	n/a	catFR1	4	R1375C
699.563	2.434	708724	REC_WORD	3.672	n/a	HAND	Bodyparts	1	3	[0, 0, 0]	n/a	catFR1	4	R1375C
701.997	0.705	711158	REC_WORD	6.106	n/a	NOSE	Bodyparts	2	3	[0, 0, 0]	n/a	catFR1	4	R1375C
702.702	23.454	711863	REC_WORD	6.811	n/a	FINGERS	Bodyparts	10	3	[0, 0, 0]	n/a	catFR1	4	R1375C
726.156	0.935	735319	REC_END	n/a	n/a	n/a	n/a	-999	3	[0, 0, 0]	n/a	catFR1	4	R1375C
727.091	10.0	736256	COUNTDOWN_START	n/a	n/a	n/a	n/a	-999	4	[0, 0, 0]	n/a	catFR1	4	R1375C
737.443	0.0	746603	COUNTDOWN_END	n/a	n/a	n/a	n/a	-999	4	[0, 0, 0]	n/a	catFR1	4	R1375C
737.443	2.165	746603	ENCODING_START	n/a	n/a	n/a	n/a	-999	4	[0, 0, 0]	n/a	catFR1	4	R1375C
739.608	1.6	748766	WORD	n/a	wordpools/wordpool_categorized_EN.txt	LETTUCE	Vegetables	1	4	[0, 0, 0]	n/a	catFR1	4	R1375C
741.208	0.767	750364	WORD_OFF	n/a	n/a	LETTUCE	Vegetables	1	4	[0, 0, 0]	n/a	catFR1	4	R1375C
741.975	1.6	751136	WORD	n/a	wordpools/wordpool_categorized_EN.txt	CABBAGE	Vegetables	2	4	[0, 0, 0]	n/a	catFR1	4	R1375C
743.575	0.867	752734	WORD_OFF	n/a	n/a	CABBAGE	Vegetables	2	4	[0, 0, 0]	n/a	catFR1	4	R1375C
744.442	1.6	753602	WORD	n/a	wordpools/wordpool_categorized_EN.txt	SOCKS	Clothing	3	4	[0, 0, 0]	n/a	catFR1	4	R1375C
746.042	0.85	755200	WORD_OFF	n/a	n/a	SOCKS	Clothing	3	4	[0, 0, 0]	n/a	catFR1	4	R1375C
746.892	1.6	756054	WORD	n/a	wordpools/wordpool_categorized_EN.txt	PANTS	Clothing	4	4	[0, 0, 0]	n/a	catFR1	4	R1375C
748.492	0.832	757653	WORD_OFF	n/a	n/a	PANTS	Clothing	4	4	[0, 0, 0]	n/a	catFR1	4	R1375C
749.324	1.6	758479	WORD	n/a	wordpools/wordpool_categorized_EN.txt	GNAT	Insects	5	4	[0, 0, 0]	n/a	catFR1	4	R1375C
750.924	0.817	760078	WORD_OFF	n/a	n/a	GNAT	Insects	5	4	[0, 0, 0]	n/a	catFR1	4	R1375C
751.741	1.6	760904	WORD	n/a	wordpools/wordpool_categorized_EN.txt	SPIDER	Insects	6	4	[0, 0, 0]	n/a	catFR1	4	R1375C
753.342	0.866	762502	WORD_OFF	n/a	n/a	SPIDER	Insects	6	4	[0, 0, 0]	n/a	catFR1	4	R1375C
754.208	1.6	763370	WORD	n/a	wordpools/wordpool_categorized_EN.txt	PEAS	Vegetables	7	4	[0, 0, 0]	n/a	catFR1	4	R1375C
755.809	0.85	764969	WORD_OFF	n/a	n/a	PEAS	Vegetables	7	4	[0, 0, 0]	n/a	catFR1	4	R1375C
756.659	1.6	765823	WORD	n/a	wordpools/wordpool_categorized_EN.txt	POTATO	Vegetables	8	4	[0, 0, 0]	n/a	catFR1	4	R1375C
758.258	0.816	767421	WORD_OFF	n/a	n/a	POTATO	Vegetables	8	4	[0, 0, 0]	n/a	catFR1	4	R1375C
759.074	1.6	768234	WORD	n/a	wordpools/wordpool_categorized_EN.txt	LADYBUG	Insects	9	4	[0, 0, 0]	n/a	catFR1	4	R1375C
760.675	0.767	769832	WORD_OFF	n/a	n/a	LADYBUG	Insects	9	4	[0, 0, 0]	n/a	catFR1	4	R1375C
761.442	1.6	770604	WORD	n/a	wordpools/wordpool_categorized_EN.txt	ROACH	Insects	10	4	[0, 0, 0]	n/a	catFR1	4	R1375C
763.058	0.899	772216	WORD_OFF	n/a	n/a	ROACH	Insects	10	4	[0, 0, 0]	n/a	catFR1	4	R1375C
763.957	1.6	773111	WORD	n/a	wordpools/wordpool_categorized_EN.txt	SHOES	Clothing	11	4	[0, 0, 0]	n/a	catFR1	4	R1375C
765.558	0.934	774723	WORD_OFF	n/a	n/a	SHOES	Clothing	11	4	[0, 0, 0]	n/a	catFR1	4	R1375C
766.492	1.6	775646	WORD	n/a	wordpools/wordpool_categorized_EN.txt	SKIRT	Clothing	12	4	[0, 0, 0]	n/a	catFR1	4	R1375C
768.109	0.001	777267	PROB	2.866	n/a	n/a	n/a	-999	4	[8, 1, 3]	12.0	catFR1	4	R1375C
768.11	0.0	777268	START	n/a	n/a	n/a	n/a	-999	4	[-999, -999, -999]	n/a	catFR1	4	R1375C
768.108	0.002	777272	WORD_OFF	n/a	n/a	SKIRT	Clothing	12	4	[0, 0, 0]	n/a	catFR1	4	R1375C
768.11	0.0	777272	ENCODING_END	n/a	n/a	n/a	n/a	-999	4	[0, 0, 0]	n/a	catFR1	4	R1375C
768.11	2.882	777272	DISTRACT_START	n/a	n/a	n/a	n/a	-999	4	[0, 0, 0]	n/a	catFR1	4	R1375C
770.992	1.751	780150	PROB	1.732	n/a	n/a	n/a	-999	4	[5, 4, 3]	12.0	catFR1	4	R1375C
772.743	5.066	781901	PROB	5.049	n/a	n/a	n/a	-999	4	[1, 3, 8]	12.0	catFR1	4	R1375C
777.809	5.617	786966	PROB	5.599	n/a	n/a	n/a	-999	4	[3, 5, 6]	14.0	catFR1	4	R1375C
783.426	5.265	792583	PROB	5.249	n/a	n/a	n/a	-999	4	[5, 2, 6]	13.0	catFR1	4	R1375C
788.691	0.0	797848	STOP	n/a	n/a	n/a	n/a	-999	4	[-999, -999, -999]	n/a	catFR1	4	R1375C
788.691	1.266	797856	DISTRACT_END	n/a	n/a	n/a	n/a	-999	4	[0, 0, 0]	n/a	catFR1	4	R1375C
789.957	1.556	799110	REC_START	n/a	n/a	n/a	n/a	-999	4	[0, 0, 0]	n/a	catFR1	4	R1375C
791.513	1.044	800670	REC_WORD	1.556	n/a	LETTUCE	Vegetables	1	4	[0, 0, 0]	n/a	catFR1	4	R1375C
792.557	1.62	801714	REC_WORD	2.6	n/a	CABBAGE	Vegetables	2	4	[0, 0, 0]	n/a	catFR1	4	R1375C
794.177	8.659	803334	REC_WORD	4.22	n/a	PEAS	Vegetables	7	4	[0, 0, 0]	n/a	catFR1	4	R1375C
802.836	2.868	811992	REC_WORD_VV	12.879	n/a	<>	n/a	-999	4	[0, 0, 0]	n/a	catFR1	4	R1375C
805.704	14.497	814860	REC_WORD_VV	15.747	n/a	<>	n/a	-999	4	[0, 0, 0]	n/a	catFR1	4	R1375C
820.201	1.141	829352	REC_END	n/a	n/a	n/a	n/a	-999	4	[0, 0, 0]	n/a	catFR1	4	R1375C
821.342	10.0	830496	COUNTDOWN_START	n/a	n/a	n/a	n/a	-999	5	[0, 0, 0]	n/a	catFR1	4	R1375C
831.709	0.0	840870	COUNTDOWN_END	n/a	n/a	n/a	n/a	-999	5	[0, 0, 0]	n/a	catFR1	4	R1375C
831.709	2.216	840870	ENCODING_START	n/a	n/a	n/a	n/a	-999	5	[0, 0, 0]	n/a	catFR1	4	R1375C
833.925	1.6	843075	WORD	n/a	wordpools/wordpool_categorized_EN.txt	ANT	Insects	1	5	[0, 0, 0]	n/a	catFR1	4	R1375C
835.525	0.949	844687	WORD_OFF	n/a	n/a	ANT	Insects	1	5	[0, 0, 0]	n/a	catFR1	4	R1375C
836.474	1.6	845624	WORD	n/a	wordpools/wordpool_categorized_EN.txt	BEE	Insects	2	5	[0, 0, 0]	n/a	catFR1	4	R1375C
838.074	0.834	847236	WORD_OFF	n/a	n/a	BEE	Insects	2	5	[0, 0, 0]	n/a	catFR1	4	R1375C
838.908	1.6	848062	WORD	n/a	wordpools/wordpool_categorized_EN.txt	TOASTER	Appliances	3	5	[0, 0, 0]	n/a	catFR1	4	R1375C
840.508	0.967	849661	WORD_OFF	n/a	n/a	TOASTER	Appliances	3	5	[0, 0, 0]	n/a	catFR1	4	R1375C
841.475	1.6	850625	WORD	n/a	wordpools/wordpool_categorized_EN.txt	OVEN	Appliances	4	5	[0, 0, 0]	n/a	catFR1	4	R1375C
843.092	0.965	852251	WORD_OFF	n/a	n/a	OVEN	Appliances	4	5	[0, 0, 0]	n/a	catFR1	4	R1375C
844.057	1.6	853215	WORD	n/a	wordpools/wordpool_categorized_EN.txt	OYSTER	Oceananimals	5	5	[0, 0, 0]	n/a	catFR1	4	R1375C
845.659	0.899	854813	WORD_OFF	n/a	n/a	OYSTER	Oceananimals	5	5	[0, 0, 0]	n/a	catFR1	4	R1375C
846.558	1.6	855709	WORD	n/a	wordpools/wordpool_categorized_EN.txt	SHRIMP	Oceananimals	6	5	[0, 0, 0]	n/a	catFR1	4	R1375C
848.159	0.799	857307	WORD_OFF	n/a	n/a	SHRIMP	Oceananimals	6	5	[0, 0, 0]	n/a	catFR1	4	R1375C
848.958	1.6	858120	WORD	n/a	wordpools/wordpool_categorized_EN.txt	BEETLE	Insects	7	5	[0, 0, 0]	n/a	catFR1	4	R1375C
850.574	0.783	859732	WORD_OFF	n/a	n/a	BEETLE	Insects	7	5	[0, 0, 0]	n/a	catFR1	4	R1375C
851.357	1.6	860517	WORD	n/a	wordpools/wordpool_categorized_EN.txt	BUTTERFLY	Insects	8	5	[0, 0, 0]	n/a	catFR1	4	R1375C
852.958	0.933	862116	WORD_OFF	n/a	n/a	BUTTERFLY	Insects	8	5	[0, 0, 0]	n/a	catFR1	4	R1375C
853.891	1.6	863053	WORD	n/a	wordpools/wordpool_categorized_EN.txt	DISHWASHER	Appliances	9	5	[0, 0, 0]	n/a	catFR1	4	R1375C
855.492	0.983	864651	WORD_OFF	n/a	n/a	DISHWASHER	Appliances	9	5	[0, 0, 0]	n/a	catFR1	4	R1375C
856.475	1.6	865629	WORD	n/a	wordpools/wordpool_categorized_EN.txt	VACUUM	Appliances	10	5	[0, 0, 0]	n/a	catFR1	4	R1375C
858.092	0.95	867241	WORD_OFF	n/a	n/a	VACUUM	Appliances	10	5	[0, 0, 0]	n/a	catFR1	4	R1375C
859.042	1.6	868192	WORD	n/a	wordpools/wordpool_categorized_EN.txt	TURTLE	Oceananimals	11	5	[0, 0, 0]	n/a	catFR1	4	R1375C
860.657	0.984	869817	WORD_OFF	n/a	n/a	TURTLE	Oceananimals	11	5	[0, 0, 0]	n/a	catFR1	4	R1375C
861.641	1.6	870796	WORD	n/a	wordpools/wordpool_categorized_EN.txt	WHALE	Oceananimals	12	5	[0, 0, 0]	n/a	catFR1	4	R1375C
863.242	0.002	872394	WORD_OFF	n/a	n/a	WHALE	Oceananimals	12	5	[0, 0, 0]	n/a	catFR1	4	R1375C
863.244	0.0	872394	ENCODING_END	n/a	n/a	n/a	n/a	-999	5	[0, 0, 0]	n/a	catFR1	4	R1375C
863.243	0.001	872396	PROB	2.599	n/a	n/a	n/a	-999	5	[1, 1, 7]	9.0	catFR1	4	R1375C
863.244	0.0	872397	START	n/a	n/a	n/a	n/a	-999	5	[-999, -999, -999]	n/a	catFR1	4	R1375C
863.244	2.615	872408	DISTRACT_START	n/a	n/a	n/a	n/a	-999	5	[0, 0, 0]	n/a	catFR1	4	R1375C
865.859	2.35	875012	PROB	2.333	n/a	n/a	n/a	-999	5	[1, 3, 7]	11.0	catFR1	4	R1375C
868.209	2.3	877362	PROB	2.283	n/a	n/a	n/a	-999	5	[2, 8, 2]	12.0	catFR1	4	R1375C
870.509	2.133	879662	PROB	2.116	n/a	n/a	n/a	-999	5	[6, 6, 3]	15.0	catFR1	4	R1375C
872.642	3.167	881795	PROB	3.149	n/a	n/a	n/a	-999	5	[4, 1, 1]	6.0	catFR1	4	R1375C
875.809	5.217	884961	PROB	5.199	n/a	n/a	n/a	-999	5	[8, 7, 5]	20.0	catFR1	4	R1375C
881.026	3.549	890178	PROB	3.532	n/a	n/a	n/a	-999	5	[3, 1, 8]	12.0	catFR1	4	R1375C
884.575	0.0	893722	DISTRACT_END	n/a	n/a	n/a	n/a	-999	5	[0, 0, 0]	n/a	catFR1	4	R1375C
884.575	1.383	893727	STOP	n/a	n/a	n/a	n/a	-999	5	[-999, -999, -999]	n/a	catFR1	4	R1375C
885.958	2.502	895113	REC_START	n/a	n/a	n/a	n/a	-999	5	[0, 0, 0]	n/a	catFR1	4	R1375C
888.46	0.303	897612	REC_WORD_VV	2.502	n/a	<>	n/a	-999	5	[0, 0, 0]	n/a	catFR1	4	R1375C
888.763	6.523	897915	REC_WORD_VV	2.805	n/a	<>	n/a	-999	5	[0, 0, 0]	n/a	catFR1	4	R1375C
895.286	7.186	904437	REC_WORD	9.328	n/a	BUTTERFLY	Insects	8	5	[0, 0, 0]	n/a	catFR1	4	R1375C
902.472	5.153	911623	REC_WORD	16.514	n/a	BEETLE	Insects	7	5	[0, 0, 0]	n/a	catFR1	4	R1375C
907.625	3.573	916776	REC_WORD	21.667	n/a	DISHWASHER	Appliances	9	5	[0, 0, 0]	n/a	catFR1	4	R1375C
911.198	5.006	920349	REC_WORD	25.24	n/a	VACUUM	Appliances	10	5	[0, 0, 0]	n/a	catFR1	4	R1375C
916.204	1.171	925356	REC_END	n/a	n/a	n/a	n/a	-999	5	[0, 0, 0]	n/a	catFR1	4	R1375C
917.375	10.0	926527	COUNTDOWN_START	n/a	n/a	n/a	n/a	-999	6	[0, 0, 0]	n/a	catFR1	4	R1375C
927.726	0.0	936874	COUNTDOWN_END	n/a	n/a	n/a	n/a	-999	6	[0, 0, 0]	n/a	catFR1	4	R1375C
927.726	2.182	936874	ENCODING_START	n/a	n/a	n/a	n/a	-999	6	[0, 0, 0]	n/a	catFR1	4	R1375C
929.908	1.6	939064	WORD	n/a	wordpools/wordpool_categorized_EN.txt	FOOTBALL	Toys	1	6	[0, 0, 0]	n/a	catFR1	4	R1375C
931.508	0.784	940663	WORD_OFF	n/a	n/a	FOOTBALL	Toys	1	6	[0, 0, 0]	n/a	catFR1	4	R1375C
932.292	1.6	941448	WORD	n/a	wordpools/wordpool_categorized_EN.txt	DOLL	Toys	2	6	[0, 0, 0]	n/a	catFR1	4	R1375C
933.892	0.917	943046	WORD_OFF	n/a	n/a	DOLL	Toys	2	6	[0, 0, 0]	n/a	catFR1	4	R1375C
934.809	1.6	943956	WORD	n/a	wordpools/wordpool_categorized_EN.txt	SHORTS	Clothing	3	6	[0, 0, 0]	n/a	catFR1	4	R1375C
936.408	0.817	945554	WORD_OFF	n/a	n/a	SHORTS	Clothing	3	6	[0, 0, 0]	n/a	catFR1	4	R1375C
937.225	1.6	946380	WORD	n/a	wordpools/wordpool_categorized_EN.txt	JEANS	Clothing	4	6	[0, 0, 0]	n/a	catFR1	4	R1375C
938.841	0.866	947992	WORD_OFF	n/a	n/a	JEANS	Clothing	4	6	[0, 0, 0]	n/a	catFR1	4	R1375C
939.707	1.6	948860	WORD	n/a	wordpools/wordpool_categorized_EN.txt	CRICKET	Insects	5	6	[0, 0, 0]	n/a	catFR1	4	R1375C
941.308	0.817	950459	WORD_OFF	n/a	n/a	CRICKET	Insects	5	6	[0, 0, 0]	n/a	catFR1	4	R1375C
942.125	1.6	951272	WORD	n/a	wordpools/wordpool_categorized_EN.txt	FLY	Insects	6	6	[0, 0, 0]	n/a	catFR1	4	R1375C
943.725	0.867	952870	WORD_OFF	n/a	n/a	FLY	Insects	6	6	[0, 0, 0]	n/a	catFR1	4	R1375C
944.592	1.6	953738	WORD	n/a	wordpools/wordpool_categorized_EN.txt	BALL	Toys	7	6	[0, 0, 0]	n/a	catFR1	4	R1375C
946.192	0.95	955336	WORD_OFF	n/a	n/a	BALL	Toys	7	6	[0, 0, 0]	n/a	catFR1	4	R1375C
947.142	1.6	956287	WORD	n/a	wordpools/wordpool_categorized_EN.txt	MARBLES	Toys	8	6	[0, 0, 0]	n/a	catFR1	4	R1375C
948.758	0.966	957912	WORD_OFF	n/a	n/a	MARBLES	Toys	8	6	[0, 0, 0]	n/a	catFR1	4	R1375C
949.724	1.6	958877	WORD	n/a	wordpools/wordpool_categorized_EN.txt	MOTH	Insects	9	6	[0, 0, 0]	n/a	catFR1	4	R1375C
951.325	0.866	960475	WORD_OFF	n/a	n/a	MOTH	Insects	9	6	[0, 0, 0]	n/a	catFR1	4	R1375C
952.191	1.6	961343	WORD	n/a	wordpools/wordpool_categorized_EN.txt	MOSQUITO	Insects	10	6	[0, 0, 0]	n/a	catFR1	4	R1375C
953.792	0.916	962941	WORD_OFF	n/a	n/a	MOSQUITO	Insects	10	6	[0, 0, 0]	n/a	catFR1	4	R1375C
954.708	1.6	963864	WORD	n/a	wordpools/wordpool_categorized_EN.txt	BLOUSE	Clothing	11	6	[0, 0, 0]	n/a	catFR1	4	R1375C
956.325	0.867	965476	WORD_OFF	n/a	n/a	BLOUSE	Clothing	11	6	[0, 0, 0]	n/a	catFR1	4	R1375C
957.192	1.6	966344	WORD	n/a	wordpools/wordpool_categorized_EN.txt	UNDERWEAR	Clothing	12	6	[0, 0, 0]	n/a	catFR1	4	R1375C
958.808	0.002	967956	WORD_OFF	n/a	n/a	UNDERWEAR	Clothing	12	6	[0, 0, 0]	n/a	catFR1	4	R1375C
958.81	0.0	967956	ENCODING_END	n/a	n/a	n/a	n/a	-999	6	[0, 0, 0]	n/a	catFR1	4	R1375C
958.81	0.0	967956	DISTRACT_START	n/a	n/a	n/a	n/a	-999	6	[0, 0, 0]	n/a	catFR1	4	R1375C
958.809	0.001	967957	PROB	2.766	n/a	n/a	n/a	-999	6	[7, 6, 1]	14.0	catFR1	4	R1375C
958.81	2.782	967958	START	n/a	n/a	n/a	n/a	-999	6	[-999, -999, -999]	n/a	catFR1	4	R1375C
961.592	3.35	970740	PROB	3.333	n/a	n/a	n/a	-999	6	[1, 2, 8]	11.0	catFR1	4	R1375C
964.942	2.533	974090	PROB	2.516	n/a	n/a	n/a	-999	6	[1, 2, 7]	10.0	catFR1	4	R1375C
967.475	3.249	976623	PROB	3.233	n/a	n/a	n/a	-999	6	[1, 5, 4]	6.0	catFR1	4	R1375C
970.724	5.017	979872	PROB	5.0	n/a	n/a	n/a	-999	6	[3, 4, 4]	11.0	catFR1	4	R1375C
975.741	2.767	984888	PROB	2.75	n/a	n/a	n/a	-999	6	[5, 4, 4]	13.0	catFR1	4	R1375C
978.508	4.116	987655	PROB	4.1	n/a	n/a	n/a	-999	6	[3, 8, 5]	16.0	catFR1	4	R1375C
982.624	0.0	991771	STOP	n/a	n/a	n/a	n/a	-999	6	[-999, -999, -999]	n/a	catFR1	4	R1375C
982.624	1.284	991778	DISTRACT_END	n/a	n/a	n/a	n/a	-999	6	[0, 0, 0]	n/a	catFR1	4	R1375C
983.908	1.907	993060	REC_START	n/a	n/a	n/a	n/a	-999	6	[0, 0, 0]	n/a	catFR1	4	R1375C
985.815	0.506	994962	REC_WORD_VV	1.907	n/a	<>	n/a	-999	6	[0, 0, 0]	n/a	catFR1	4	R1375C
986.321	2.985	995468	REC_WORD	2.413	n/a	BLOUSE	Clothing	11	6	[0, 0, 0]	n/a	catFR1	4	R1375C
989.306	3.292	998453	REC_WORD	5.398	n/a	MOTH	Insects	9	6	[0, 0, 0]	n/a	catFR1	4	R1375C
992.598	16.859	1001745	REC_WORD	8.69	n/a	CRICKET	Insects	5	6	[0, 0, 0]	n/a	catFR1	4	R1375C
1009.457	4.719	1018603	REC_WORD_VV	25.549	n/a	<>	n/a	-999	6	[0, 0, 0]	n/a	catFR1	4	R1375C
1014.176	1.382	1023329	REC_END	n/a	n/a	n/a	n/a	-999	6	[0, 0, 0]	n/a	catFR1	4	R1375C
1015.558	10.0	1024707	COUNTDOWN_START	n/a	n/a	n/a	n/a	-999	7	[0, 0, 0]	n/a	catFR1	4	R1375C
1025.909	0.0	1035054	COUNTDOWN_END	n/a	n/a	n/a	n/a	-999	7	[0, 0, 0]	n/a	catFR1	4	R1375C
1025.909	2.049	1035054	ENCODING_START	n/a	n/a	n/a	n/a	-999	7	[0, 0, 0]	n/a	catFR1	4	R1375C
1027.958	1.6	1037107	WORD	n/a	wordpools/wordpool_categorized_EN.txt	MARIGOLD	Flowers	1	7	[0, 0, 0]	n/a	catFR1	4	R1375C
1029.558	0.767	1038705	WORD_OFF	n/a	n/a	MARIGOLD	Flowers	1	7	[0, 0, 0]	n/a	catFR1	4	R1375C
1030.325	1.6	1039477	WORD	n/a	wordpools/wordpool_categorized_EN.txt	DAISY	Flowers	2	7	[0, 0, 0]	n/a	catFR1	4	R1375C
1031.925	0.866	1041075	WORD_OFF	n/a	n/a	DAISY	Flowers	2	7	[0, 0, 0]	n/a	catFR1	4	R1375C
1032.791	1.6	1041943	WORD	n/a	wordpools/wordpool_categorized_EN.txt	CABINET	Furniture	3	7	[0, 0, 0]	n/a	catFR1	4	R1375C
1034.392	0.8	1043541	WORD_OFF	n/a	n/a	CABINET	Furniture	3	7	[0, 0, 0]	n/a	catFR1	4	R1375C
1035.192	1.6	1044340	WORD	n/a	wordpools/wordpool_categorized_EN.txt	DRESSER	Furniture	4	7	[0, 0, 0]	n/a	catFR1	4	R1375C
1036.808	0.816	1045952	WORD_OFF	n/a	n/a	DRESSER	Furniture	4	7	[0, 0, 0]	n/a	catFR1	4	R1375C
1037.624	1.6	1046765	WORD	n/a	wordpools/wordpool_categorized_EN.txt	CEILING	Building	5	7	[0, 0, 0]	n/a	catFR1	4	R1375C
1039.225	0.833	1048377	WORD_OFF	n/a	n/a	CEILING	Building	5	7	[0, 0, 0]	n/a	catFR1	4	R1375C
1040.058	1.6	1049204	WORD	n/a	wordpools/wordpool_categorized_EN.txt	STAIRS	Building	6	7	[0, 0, 0]	n/a	catFR1	4	R1375C
1041.658	0.9	1050802	WORD_OFF	n/a	n/a	STAIRS	Building	6	7	[0, 0, 0]	n/a	catFR1	4	R1375C
1042.558	1.6	1051698	WORD	n/a	wordpools/wordpool_categorized_EN.txt	CHAIR	Furniture	7	7	[0, 0, 0]	n/a	catFR1	4	R1375C
1044.175	0.917	1053323	WORD_OFF	n/a	n/a	CHAIR	Furniture	7	7	[0, 0, 0]	n/a	catFR1	4	R1375C
1045.092	1.6	1054233	WORD	n/a	wordpools/wordpool_categorized_EN.txt	COUCH	Furniture	8	7	[0, 0, 0]	n/a	catFR1	4	R1375C
1046.708	0.917	1055859	WORD_OFF	n/a	n/a	COUCH	Furniture	8	7	[0, 0, 0]	n/a	catFR1	4	R1375C
1047.625	1.6	1056768	WORD	n/a	wordpools/wordpool_categorized_EN.txt	CARNATION	Flowers	9	7	[0, 0, 0]	n/a	catFR1	4	R1375C
1049.225	0.933	1058366	WORD_OFF	n/a	n/a	CARNATION	Flowers	9	7	[0, 0, 0]	n/a	catFR1	4	R1375C
1050.158	1.6	1059303	WORD	n/a	wordpools/wordpool_categorized_EN.txt	VIOLET	Flowers	10	7	[0, 0, 0]	n/a	catFR1	4	R1375C
1051.758	0.867	1060901	WORD_OFF	n/a	n/a	VIOLET	Flowers	10	7	[0, 0, 0]	n/a	catFR1	4	R1375C
1052.625	1.6	1061769	WORD	n/a	wordpools/wordpool_categorized_EN.txt	FOUNDATION	Building	11	7	[0, 0, 0]	n/a	catFR1	4	R1375C
1054.225	0.9	1063367	WORD_OFF	n/a	n/a	FOUNDATION	Building	11	7	[0, 0, 0]	n/a	catFR1	4	R1375C
1055.125	1.6	1064263	WORD	n/a	wordpools/wordpool_categorized_EN.txt	HALLWAY	Building	12	7	[0, 0, 0]	n/a	catFR1	4	R1375C
1056.725	0.002	1065868	PROB	7.299	n/a	n/a	n/a	-999	7	[7, 6, 5]	18.0	catFR1	4	R1375C
1056.727	0.0	1065870	START	n/a	n/a	n/a	n/a	-999	7	[-999, -999, -999]	n/a	catFR1	4	R1375C
1056.725	0.002	1065875	WORD_OFF	n/a	n/a	HALLWAY	Building	12	7	[0, 0, 0]	n/a	catFR1	4	R1375C
1056.727	0.0	1065875	ENCODING_END	n/a	n/a	n/a	n/a	-999	7	[0, 0, 0]	n/a	catFR1	4	R1375C
1056.727	7.315	1065889	DISTRACT_START	n/a	n/a	n/a	n/a	-999	7	[0, 0, 0]	n/a	catFR1	4	R1375C
1064.042	2.733	1073185	PROB	2.716	n/a	n/a	n/a	-999	7	[6, 5, 2]	13.0	catFR1	4	R1375C
1066.775	2.133	1075918	PROB	2.116	n/a	n/a	n/a	-999	7	[1, 6, 7]	14.0	catFR1	4	R1375C
1068.908	1.933	1078051	PROB	1.916	n/a	n/a	n/a	-999	7	[4, 3, 7]	14.0	catFR1	4	R1375C
1070.841	2.917	1079984	PROB	2.9	n/a	n/a	n/a	-999	7	[4, 5, 8]	17.0	catFR1	4	R1375C
1073.758	2.817	1082900	PROB	2.8	n/a	n/a	n/a	-999	7	[4, 8, 8]	20.0	catFR1	4	R1375C
1076.575	3.883	1085717	PROB	3.866	n/a	n/a	n/a	-999	7	[2, 2, 3]	7.0	catFR1	4	R1375C
1080.458	0.0	1089600	DISTRACT_END	n/a	n/a	n/a	n/a	-999	7	[0, 0, 0]	n/a	catFR1	4	R1375C
1080.458	1.284	1089600	STOP	n/a	n/a	n/a	n/a	-999	7	[-999, -999, -999]	n/a	catFR1	4	R1375C
1081.742	2.437	1090882	REC_START	n/a	n/a	n/a	n/a	-999	7	[0, 0, 0]	n/a	catFR1	4	R1375C
1084.179	0.628	1093321	REC_WORD	2.437	n/a	VIOLET	Flowers	10	7	[0, 0, 0]	n/a	catFR1	4	R1375C
1084.807	12.744	1093949	REC_WORD	3.065	n/a	CARNATION	Flowers	9	7	[0, 0, 0]	n/a	catFR1	4	R1375C
1097.551	0.76	1106692	REC_WORD	15.809	n/a	CEILING	Building	5	7	[0, 0, 0]	n/a	catFR1	4	R1375C
1098.311	13.708	1107452	REC_WORD	16.569	n/a	STAIRS	Building	6	7	[0, 0, 0]	n/a	catFR1	4	R1375C
1112.019	2.072	1121165	REC_END	n/a	n/a	n/a	n/a	-999	7	[0, 0, 0]	n/a	catFR1	4	R1375C
1114.091	10.0	1123232	COUNTDOWN_START	n/a	n/a	n/a	n/a	-999	8	[0, 0, 0]	n/a	catFR1	4	R1375C
1124.442	0.0	1133579	COUNTDOWN_END	n/a	n/a	n/a	n/a	-999	8	[0, 0, 0]	n/a	catFR1	4	R1375C
1124.442	1.9	1133579	ENCODING_START	n/a	n/a	n/a	n/a	-999	8	[0, 0, 0]	n/a	catFR1	4	R1375C
1126.342	1.6	1135480	WORD	n/a	wordpools/wordpool_categorized_EN.txt	THUNDER	Weather	1	8	[0, 0, 0]	n/a	catFR1	4	R1375C
1127.958	0.95	1137101	WORD_OFF	n/a	n/a	THUNDER	Weather	1	8	[0, 0, 0]	n/a	catFR1	4	R1375C
1128.908	1.6	1138043	WORD	n/a	wordpools/wordpool_categorized_EN.txt	FOG	Weather	2	8	[0, 0, 0]	n/a	catFR1	4	R1375C
1130.508	0.767	1139655	WORD_OFF	n/a	n/a	FOG	Weather	2	8	[0, 0, 0]	n/a	catFR1	4	R1375C
1131.275	1.6	1140413	WORD	n/a	wordpools/wordpool_categorized_EN.txt	GOOSE	Birds	3	8	[0, 0, 0]	n/a	catFR1	4	R1375C
1132.892	0.799	1142038	WORD_OFF	n/a	n/a	GOOSE	Birds	3	8	[0, 0, 0]	n/a	catFR1	4	R1375C
1133.691	1.6	1142838	WORD	n/a	wordpools/wordpool_categorized_EN.txt	BLUEBIRD	Birds	4	8	[0, 0, 0]	n/a	catFR1	4	R1375C
1135.292	0.899	1144436	WORD_OFF	n/a	n/a	BLUEBIRD	Birds	4	8	[0, 0, 0]	n/a	catFR1	4	R1375C
1136.191	1.6	1145331	WORD	n/a	wordpools/wordpool_categorized_EN.txt	SOFA	Furniture	5	8	[0, 0, 0]	n/a	catFR1	4	R1375C
1137.808	0.866	1146943	WORD_OFF	n/a	n/a	SOFA	Furniture	5	8	[0, 0, 0]	n/a	catFR1	4	R1375C
1138.674	1.6	1147811	WORD	n/a	wordpools/wordpool_categorized_EN.txt	BED	Furniture	6	8	[0, 0, 0]	n/a	catFR1	4	R1375C
1140.275	0.916	1149410	WORD_OFF	n/a	n/a	BED	Furniture	6	8	[0, 0, 0]	n/a	catFR1	4	R1375C
1141.191	1.6	1150333	WORD	n/a	wordpools/wordpool_categorized_EN.txt	RAIN	Weather	7	8	[0, 0, 0]	n/a	catFR1	4	R1375C
1142.791	0.967	1151931	WORD_OFF	n/a	n/a	RAIN	Weather	7	8	[0, 0, 0]	n/a	catFR1	4	R1375C
1143.758	1.6	1152895	WORD	n/a	wordpools/wordpool_categorized_EN.txt	LIGHTNING	Weather	8	8	[0, 0, 0]	n/a	catFR1	4	R1375C
1145.375	0.966	1154521	WORD_OFF	n/a	n/a	LIGHTNING	Weather	8	8	[0, 0, 0]	n/a	catFR1	4	R1375C
1146.341	1.6	1155486	WORD	n/a	wordpools/wordpool_categorized_EN.txt	ROBIN	Birds	9	8	[0, 0, 0]	n/a	catFR1	4	R1375C
1147.957	0.784	1157098	WORD_OFF	n/a	n/a	ROBIN	Birds	9	8	[0, 0, 0]	n/a	catFR1	4	R1375C
1148.741	1.6	1157883	WORD	n/a	wordpools/wordpool_categorized_EN.txt	CARDINAL	Birds	10	8	[0, 0, 0]	n/a	catFR1	4	R1375C
1150.341	0.817	1159481	WORD_OFF	n/a	n/a	CARDINAL	Birds	10	8	[0, 0, 0]	n/a	catFR1	4	R1375C
1151.158	1.6	1160294	WORD	n/a	wordpools/wordpool_categorized_EN.txt	BOOKCASE	Furniture	11	8	[0, 0, 0]	n/a	catFR1	4	R1375C
1152.758	0.999	1161892	WORD_OFF	n/a	n/a	BOOKCASE	Furniture	11	8	[0, 0, 0]	n/a	catFR1	4	R1375C
1153.757	1.6	1162898	WORD	n/a	wordpools/wordpool_categorized_EN.txt	NIGHTSTAND	Furniture	12	8	[0, 0, 0]	n/a	catFR1	4	R1375C
1155.357	0.002	1164496	WORD_OFF	n/a	n/a	NIGHTSTAND	Furniture	12	8	[0, 0, 0]	n/a	catFR1	4	R1375C
1155.359	0.0	1164496	ENCODING_END	n/a	n/a	n/a	n/a	-999	8	[0, 0, 0]	n/a	catFR1	4	R1375C
1155.359	0.0	1164496	DISTRACT_START	n/a	n/a	n/a	n/a	-999	8	[0, 0, 0]	n/a	catFR1	4	R1375C
1155.358	0.001	1164496	PROB	2.533	n/a	n/a	n/a	-999	8	[3, 1, 5]	9.0	catFR1	4	R1375C
1155.359	2.549	1164497	START	n/a	n/a	n/a	n/a	-999	8	[-999, -999, -999]	n/a	catFR1	4	R1375C
1157.908	2.517	1167046	PROB	2.5	n/a	n/a	n/a	-999	8	[8, 6, 6]	20.0	catFR1	4	R1375C
1160.425	2.349	1169563	PROB	2.333	n/a	n/a	n/a	-999	8	[2, 2, 7]	11.0	catFR1	4	R1375C
1162.774	1.918	1171912	PROB	1.901	n/a	n/a	n/a	-999	8	[3, 3, 6]	12.0	catFR1	4	R1375C
1164.692	2.116	1173830	PROB	2.099	n/a	n/a	n/a	-999	8	[1, 8, 1]	10.0	catFR1	4	R1375C
1166.808	1.668	1175946	PROB	1.65	n/a	n/a	n/a	-999	8	[8, 5, 2]	15.0	catFR1	4	R1375C
1168.476	1.833	1177614	PROB	1.816	n/a	n/a	n/a	-999	8	[2, 7, 7]	16.0	catFR1	4	R1375C
1170.309	2.484	1179447	PROB	2.466	n/a	n/a	n/a	-999	8	[1, 6, 5]	12.0	catFR1	4	R1375C
1172.793	3.432	1181930	PROB	3.416	n/a	n/a	n/a	-999	8	[7, 5, 1]	15.0	catFR1	4	R1375C
1176.225	0.0	1185357	DISTRACT_END	n/a	n/a	n/a	n/a	-999	8	[0, 0, 0]	n/a	catFR1	4	R1375C
1176.225	1.117	1185362	STOP	n/a	n/a	n/a	n/a	-999	8	[-999, -999, -999]	n/a	catFR1	4	R1375C
1177.342	3.086	1186486	REC_START	n/a	n/a	n/a	n/a	-999	8	[0, 0, 0]	n/a	catFR1	4	R1375C
1180.428	0.914	1189565	REC_WORD	3.086	n/a	CARDINAL	Birds	10	8	[0, 0, 0]	n/a	catFR1	4	R1375C
1181.342	2.587	1190479	REC_WORD	4.0	n/a	ROBIN	Birds	9	8	[0, 0, 0]	n/a	catFR1	4	R1375C
1183.929	5.304	1193066	REC_WORD_VV	6.587	n/a	<>	n/a	-999	8	[0, 0, 0]	n/a	catFR1	4	R1375C
1189.233	0.508	1198370	REC_WORD	11.891	n/a	THUNDER	Weather	1	8	[0, 0, 0]	n/a	catFR1	4	R1375C
1189.741	1.33	1198878	REC_WORD	12.399	n/a	RAIN	Weather	7	8	[0, 0, 0]	n/a	catFR1	4	R1375C
1191.071	16.538	1200208	REC_WORD	13.729	n/a	LIGHTNING	Weather	8	8	[0, 0, 0]	n/a	catFR1	4	R1375C
1207.609	1.75	1216742	REC_END	n/a	n/a	n/a	n/a	-999	8	[0, 0, 0]	n/a	catFR1	4	R1375C
1209.359	10.0	1218491	COUNTDOWN_START	n/a	n/a	n/a	n/a	-999	9	[0, 0, 0]	n/a	catFR1	4	R1375C
1219.709	0.001	1228852	COUNTDOWN_END	n/a	n/a	n/a	n/a	-999	9	[0, 0, 0]	n/a	catFR1	4	R1375C
1219.71	2.016	1228852	ENCODING_START	n/a	n/a	n/a	n/a	-999	9	[0, 0, 0]	n/a	catFR1	4	R1375C
1221.726	1.6	1230864	WORD	n/a	wordpools/wordpool_categorized_EN.txt	TRUMPET	Instruments	1	9	[0, 0, 0]	n/a	catFR1	4	R1375C
1223.342	0.949	1232476	WORD_OFF	n/a	n/a	TRUMPET	Instruments	1	9	[0, 0, 0]	n/a	catFR1	4	R1375C
1224.291	1.6	1233426	WORD	n/a	wordpools/wordpool_categorized_EN.txt	DRUM	Instruments	2	9	[0, 0, 0]	n/a	catFR1	4	R1375C
1225.892	0.765	1235025	WORD_OFF	n/a	n/a	DRUM	Instruments	2	9	[0, 0, 0]	n/a	catFR1	4	R1375C
1226.657	1.6	1235796	WORD	n/a	wordpools/wordpool_categorized_EN.txt	PUZZLE	Toys	3	9	[0, 0, 0]	n/a	catFR1	4	R1375C
1228.258	0.95	1237394	WORD_OFF	n/a	n/a	PUZZLE	Toys	3	9	[0, 0, 0]	n/a	catFR1	4	R1375C
1229.208	1.6	1238345	WORD	n/a	wordpools/wordpool_categorized_EN.txt	BASKETBALL	Toys	4	9	[0, 0, 0]	n/a	catFR1	4	R1375C
1230.825	0.967	1239957	WORD_OFF	n/a	n/a	BASKETBALL	Toys	4	9	[0, 0, 0]	n/a	catFR1	4	R1375C
1231.792	1.6	1240922	WORD	n/a	wordpools/wordpool_categorized_EN.txt	RATCHET	Tools	5	9	[0, 0, 0]	n/a	catFR1	4	R1375C
1233.392	0.899	1242534	WORD_OFF	n/a	n/a	RATCHET	Tools	5	9	[0, 0, 0]	n/a	catFR1	4	R1375C
1234.291	1.6	1243429	WORD	n/a	wordpools/wordpool_categorized_EN.txt	SAW	Tools	6	9	[0, 0, 0]	n/a	catFR1	4	R1375C
1235.892	0.783	1245027	WORD_OFF	n/a	n/a	SAW	Tools	6	9	[0, 0, 0]	n/a	catFR1	4	R1375C
1236.675	1.6	1245813	WORD	n/a	wordpools/wordpool_categorized_EN.txt	BASS	Instruments	7	9	[0, 0, 0]	n/a	catFR1	4	R1375C
1238.275	0.767	1247411	WORD_OFF	n/a	n/a	BASS	Instruments	7	9	[0, 0, 0]	n/a	catFR1	4	R1375C
1239.042	1.6	1248182	WORD	n/a	wordpools/wordpool_categorized_EN.txt	TROMBONE	Instruments	8	9	[0, 0, 0]	n/a	catFR1	4	R1375C
1240.642	0.982	1249781	WORD_OFF	n/a	n/a	TROMBONE	Instruments	8	9	[0, 0, 0]	n/a	catFR1	4	R1375C
1241.624	1.6	1250759	WORD	n/a	wordpools/wordpool_categorized_EN.txt	DRILL	Tools	9	9	[0, 0, 0]	n/a	catFR1	4	R1375C
1243.225	0.916	1252357	WORD_OFF	n/a	n/a	DRILL	Tools	9	9	[0, 0, 0]	n/a	catFR1	4	R1375C
1244.141	1.6	1253280	WORD	n/a	wordpools/wordpool_categorized_EN.txt	LEVEL	Tools	10	9	[0, 0, 0]	n/a	catFR1	4	R1375C
1245.741	0.833	1254878	WORD_OFF	n/a	n/a	LEVEL	Tools	10	9	[0, 0, 0]	n/a	catFR1	4	R1375C
1246.574	1.6	1255705	WORD	n/a	wordpools/wordpool_categorized_EN.txt	DOLLHOUSE	Toys	11	9	[0, 0, 0]	n/a	catFR1	4	R1375C
1248.175	0.783	1257303	WORD_OFF	n/a	n/a	DOLLHOUSE	Toys	11	9	[0, 0, 0]	n/a	catFR1	4	R1375C
1248.958	1.6	1258089	WORD	n/a	wordpools/wordpool_categorized_EN.txt	FRISBEE	Toys	12	9	[0, 0, 0]	n/a	catFR1	4	R1375C
1250.558	0.001	1259687	WORD_OFF	n/a	n/a	FRISBEE	Toys	12	9	[0, 0, 0]	n/a	catFR1	4	R1375C
1250.559	0.001	1259693	PROB	2.382	n/a	n/a	n/a	-999	9	[4, 4, 3]	11.0	catFR1	4	R1375C
1250.56	0.0	1259694	START	n/a	n/a	n/a	n/a	-999	9	[-999, -999, -999]	n/a	catFR1	4	R1375C
1250.56	0.0	1259701	ENCODING_END	n/a	n/a	n/a	n/a	-999	9	[0, 0, 0]	n/a	catFR1	4	R1375C
1250.56	2.399	1259701	DISTRACT_START	n/a	n/a	n/a	n/a	-999	9	[0, 0, 0]	n/a	catFR1	4	R1375C
1252.959	3.95	1262092	PROB	3.933	n/a	n/a	n/a	-999	9	[1, 8, 5]	14.0	catFR1	4	R1375C
1256.909	3.449	1266042	PROB	3.433	n/a	n/a	n/a	-999	9	[2, 6, 5]	13.0	catFR1	4	R1375C
1260.358	2.785	1269491	PROB	2.767	n/a	n/a	n/a	-999	9	[2, 6, 6]	14.0	catFR1	4	R1375C
1263.143	2.816	1272276	PROB	2.799	n/a	n/a	n/a	-999	9	[2, 4, 6]	12.0	catFR1	4	R1375C
1265.959	3.65	1275092	PROB	3.633	n/a	n/a	n/a	-999	9	[2, 6, 2]	10.0	catFR1	4	R1375C
1269.609	2.649	1278742	PROB	2.633	n/a	n/a	n/a	-999	9	[4, 3, 1]	8.0	catFR1	4	R1375C
1272.258	0.0	1281387	DISTRACT_END	n/a	n/a	n/a	n/a	-999	9	[0, 0, 0]	n/a	catFR1	4	R1375C
1272.258	1.034	1281390	STOP	n/a	n/a	n/a	n/a	-999	9	[-999, -999, -999]	n/a	catFR1	4	R1375C
1273.292	2.861	1282420	REC_START	n/a	n/a	n/a	n/a	-999	9	[0, 0, 0]	n/a	catFR1	4	R1375C
1276.153	6.553	1285285	REC_WORD_VV	2.861	n/a	<>	n/a	-999	9	[0, 0, 0]	n/a	catFR1	4	R1375C
1282.706	1.047	1291838	REC_WORD_VV	9.414	n/a	<>	n/a	-999	9	[0, 0, 0]	n/a	catFR1	4	R1375C
1283.753	9.697	1292885	REC_WORD_VV	10.461	n/a	<>	n/a	-999	9	[0, 0, 0]	n/a	catFR1	4	R1375C
1293.45	3.214	1302581	REC_WORD_VV	20.158	n/a	<>	n/a	-999	9	[0, 0, 0]	n/a	catFR1	4	R1375C
1296.664	0.282	1305795	REC_WORD_VV	23.372	n/a	<>	n/a	-999	9	[0, 0, 0]	n/a	catFR1	4	R1375C
1296.946	0.653	1306077	REC_WORD	23.654	n/a	DRUM	Instruments	2	9	[0, 0, 0]	n/a	catFR1	4	R1375C
1297.599	0.944	1306730	REC_WORD	24.307	n/a	TRUMPET	Instruments	1	9	[0, 0, 0]	n/a	catFR1	4	R1375C
1298.543	3.709	1307674	REC_WORD	25.251	n/a	BASS	Instruments	7	9	[0, 0, 0]	n/a	catFR1	4	R1375C
1302.252	1.321	1311383	REC_WORD_VV	28.96	n/a	<>	n/a	-999	9	[0, 0, 0]	n/a	catFR1	4	R1375C
1303.573	1.602	1312704	REC_END	n/a	n/a	n/a	n/a	-999	9	[0, 0, 0]	n/a	catFR1	4	R1375C
1305.175	10.0	1314302	COUNTDOWN_START	n/a	n/a	n/a	n/a	-999	10	[0, 0, 0]	n/a	catFR1	4	R1375C
1315.525	0.001	1324663	COUNTDOWN_END	n/a	n/a	n/a	n/a	-999	10	[0, 0, 0]	n/a	catFR1	4	R1375C
1315.526	1.999	1324663	ENCODING_START	n/a	n/a	n/a	n/a	-999	10	[0, 0, 0]	n/a	catFR1	4	R1375C
1317.525	1.6	1326661	WORD	n/a	wordpools/wordpool_categorized_EN.txt	BANJO	Instruments	1	10	[0, 0, 0]	n/a	catFR1	4	R1375C
1319.125	0.834	1328259	WORD_OFF	n/a	n/a	BANJO	Instruments	1	10	[0, 0, 0]	n/a	catFR1	4	R1375C
1319.959	1.6	1329085	WORD	n/a	wordpools/wordpool_categorized_EN.txt	VIOLIN	Instruments	2	10	[0, 0, 0]	n/a	catFR1	4	R1375C
1321.558	0.833	1330684	WORD_OFF	n/a	n/a	VIOLIN	Instruments	2	10	[0, 0, 0]	n/a	catFR1	4	R1375C
1322.391	1.6	1331524	WORD	n/a	wordpools/wordpool_categorized_EN.txt	EYE	Bodyparts	3	10	[0, 0, 0]	n/a	catFR1	4	R1375C
1324.007	1.001	1333136	WORD_OFF	n/a	n/a	EYE	Bodyparts	3	10	[0, 0, 0]	n/a	catFR1	4	R1375C
1325.008	1.6	1334142	WORD	n/a	wordpools/wordpool_categorized_EN.txt	TOE	Bodyparts	4	10	[0, 0, 0]	n/a	catFR1	4	R1375C
1326.624	1.0	1335754	WORD_OFF	n/a	n/a	TOE	Bodyparts	4	10	[0, 0, 0]	n/a	catFR1	4	R1375C
1327.624	1.6	1336760	WORD	n/a	wordpools/wordpool_categorized_EN.txt	SPARROW	Birds	5	10	[0, 0, 0]	n/a	catFR1	4	R1375C
1329.241	0.766	1338372	WORD_OFF	n/a	n/a	SPARROW	Birds	5	10	[0, 0, 0]	n/a	catFR1	4	R1375C
1330.007	1.6	1339143	WORD	n/a	wordpools/wordpool_categorized_EN.txt	PIGEON	Birds	6	10	[0, 0, 0]	n/a	catFR1	4	R1375C
1331.624	0.884	1340755	WORD_OFF	n/a	n/a	PIGEON	Birds	6	10	[0, 0, 0]	n/a	catFR1	4	R1375C
1332.508	1.6	1341637	WORD	n/a	wordpools/wordpool_categorized_EN.txt	ARM	Bodyparts	7	10	[0, 0, 0]	n/a	catFR1	4	R1375C
1334.108	0.799	1343235	WORD_OFF	n/a	n/a	ARM	Bodyparts	7	10	[0, 0, 0]	n/a	catFR1	4	R1375C
1334.907	1.6	1344034	WORD	n/a	wordpools/wordpool_categorized_EN.txt	ELBOW	Bodyparts	8	10	[0, 0, 0]	n/a	catFR1	4	R1375C
1336.508	0.933	1345633	WORD_OFF	n/a	n/a	ELBOW	Bodyparts	8	10	[0, 0, 0]	n/a	catFR1	4	R1375C
1337.441	1.6	1346569	WORD	n/a	wordpools/wordpool_categorized_EN.txt	HAWK	Birds	9	10	[0, 0, 0]	n/a	catFR1	4	R1375C
1339.042	0.766	1348168	WORD_OFF	n/a	n/a	HAWK	Birds	9	10	[0, 0, 0]	n/a	catFR1	4	R1375C
1339.808	1.6	1348939	WORD	n/a	wordpools/wordpool_categorized_EN.txt	SEAGULL	Birds	10	10	[0, 0, 0]	n/a	catFR1	4	R1375C
1341.424	0.817	1350551	WORD_OFF	n/a	n/a	SEAGULL	Birds	10	10	[0, 0, 0]	n/a	catFR1	4	R1375C
1342.241	1.6	1351378	WORD	n/a	wordpools/wordpool_categorized_EN.txt	FLUTE	Instruments	11	10	[0, 0, 0]	n/a	catFR1	4	R1375C
1343.842	0.816	1352976	WORD_OFF	n/a	n/a	FLUTE	Instruments	11	10	[0, 0, 0]	n/a	catFR1	4	R1375C
1344.658	1.6	1353789	WORD	n/a	wordpools/wordpool_categorized_EN.txt	GUITAR	Instruments	12	10	[0, 0, 0]	n/a	catFR1	4	R1375C
1346.258	0.003	1355387	WORD_OFF	n/a	n/a	GUITAR	Instruments	12	10	[0, 0, 0]	n/a	catFR1	4	R1375C
1346.261	0.0	1355387	ENCODING_END	n/a	n/a	n/a	n/a	-999	10	[0, 0, 0]	n/a	catFR1	4	R1375C
1346.261	0.0	1355387	DISTRACT_START	n/a	n/a	n/a	n/a	-999	10	[0, 0, 0]	n/a	catFR1	4	R1375C
1346.259	0.002	1355388	PROB	2.766	n/a	n/a	n/a	-999	10	[5, 7, 7]	19.0	catFR1	4	R1375C
1346.261	2.781	1355390	START	n/a	n/a	n/a	n/a	-999	10	[-999, -999, -999]	n/a	catFR1	4	R1375C
1349.042	1.65	1358171	PROB	1.633	n/a	n/a	n/a	-999	10	[1, 7, 1]	9.0	catFR1	4	R1375C
1350.692	6.317	1359820	PROB	6.3	n/a	n/a	n/a	-999	10	[6, 7, 5]	18.0	catFR1	4	R1375C
1357.009	2.1	1366137	PROB	2.083	n/a	n/a	n/a	-999	10	[7, 5, 7]	19.0	catFR1	4	R1375C
1359.109	3.733	1368237	PROB	3.715	n/a	n/a	n/a	-999	10	[4, 8, 7]	19.0	catFR1	4	R1375C
1362.842	7.533	1371970	PROB	7.517	n/a	n/a	n/a	-999	10	[3, 7, 8]	18.0	catFR1	4	R1375C
1370.375	0.0	1379498	DISTRACT_END	n/a	n/a	n/a	n/a	-999	10	[0, 0, 0]	n/a	catFR1	4	R1375C
1370.375	1.35	1379502	STOP	n/a	n/a	n/a	n/a	-999	10	[-999, -999, -999]	n/a	catFR1	4	R1375C
1371.725	1.751	1380849	REC_START	n/a	n/a	n/a	n/a	-999	10	[0, 0, 0]	n/a	catFR1	4	R1375C
1373.476	0.348	1382603	REC_WORD	1.751	n/a	ARM	Bodyparts	7	10	[0, 0, 0]	n/a	catFR1	4	R1375C
1373.824	5.598	1382951	REC_WORD	2.099	n/a	ELBOW	Bodyparts	8	10	[0, 0, 0]	n/a	catFR1	4	R1375C
1379.422	4.327	1388549	REC_WORD_VV	7.697	n/a	<>	n/a	-999	10	[0, 0, 0]	n/a	catFR1	4	R1375C
1383.749	6.163	1392876	REC_WORD	12.024	n/a	EYE	Bodyparts	3	10	[0, 0, 0]	n/a	catFR1	4	R1375C
1389.912	6.472	1399038	REC_WORD	18.187	n/a	TOE	Bodyparts	4	10	[0, 0, 0]	n/a	catFR1	4	R1375C
1396.384	5.607	1405510	REC_WORD_VV	24.659	n/a	<>	n/a	-999	10	[0, 0, 0]	n/a	catFR1	4	R1375C
1401.991	1.467	1411118	REC_END	n/a	n/a	n/a	n/a	-999	10	[0, 0, 0]	n/a	catFR1	4	R1375C
1403.458	10.0	1412592	COUNTDOWN_START	n/a	n/a	n/a	n/a	-999	11	[0, 0, 0]	n/a	catFR1	4	R1375C
1413.808	0.0	1422940	COUNTDOWN_END	n/a	n/a	n/a	n/a	-999	11	[0, 0, 0]	n/a	catFR1	4	R1375C
1413.808	2.133	1422940	ENCODING_START	n/a	n/a	n/a	n/a	-999	11	[0, 0, 0]	n/a	catFR1	4	R1375C
1415.941	1.6	1425061	WORD	n/a	wordpools/wordpool_categorized_EN.txt	PETUNIA	Flowers	1	11	[0, 0, 0]	n/a	catFR1	4	R1375C
1417.541	0.95	1426673	WORD_OFF	n/a	n/a	PETUNIA	Flowers	1	11	[0, 0, 0]	n/a	catFR1	4	R1375C
1418.491	1.6	1427624	WORD	n/a	wordpools/wordpool_categorized_EN.txt	TULIP	Flowers	2	11	[0, 0, 0]	n/a	catFR1	4	R1375C
1420.091	0.783	1429222	WORD_OFF	n/a	n/a	TULIP	Flowers	2	11	[0, 0, 0]	n/a	catFR1	4	R1375C
1420.874	1.6	1429994	WORD	n/a	wordpools/wordpool_categorized_EN.txt	CALF	Farmanimals	3	11	[0, 0, 0]	n/a	catFR1	4	R1375C
1422.474	0.834	1431606	WORD_OFF	n/a	n/a	CALF	Farmanimals	3	11	[0, 0, 0]	n/a	catFR1	4	R1375C
1423.308	1.6	1432432	WORD	n/a	wordpools/wordpool_categorized_EN.txt	HORSE	Farmanimals	4	11	[0, 0, 0]	n/a	catFR1	4	R1375C
1424.908	0.784	1434031	WORD_OFF	n/a	n/a	HORSE	Farmanimals	4	11	[0, 0, 0]	n/a	catFR1	4	R1375C
1425.692	1.6	1434816	WORD	n/a	wordpools/wordpool_categorized_EN.txt	CROWBAR	Tools	5	11	[0, 0, 0]	n/a	catFR1	4	R1375C
1427.309	0.915	1436428	WORD_OFF	n/a	n/a	CROWBAR	Tools	5	11	[0, 0, 0]	n/a	catFR1	4	R1375C
1428.224	1.6	1437351	WORD	n/a	wordpools/wordpool_categorized_EN.txt	SCREWDRIVER	Tools	6	11	[0, 0, 0]	n/a	catFR1	4	R1375C
1429.824	0.767	1438949	WORD_OFF	n/a	n/a	SCREWDRIVER	Tools	6	11	[0, 0, 0]	n/a	catFR1	4	R1375C
1430.591	1.6	1439721	WORD	n/a	wordpools/wordpool_categorized_EN.txt	ROSE	Flowers	7	11	[0, 0, 0]	n/a	catFR1	4	R1375C
1432.192	0.916	1441319	WORD_OFF	n/a	n/a	ROSE	Flowers	7	11	[0, 0, 0]	n/a	catFR1	4	R1375C
1433.108	1.6	1442228	WORD	n/a	wordpools/wordpool_categorized_EN.txt	ORCHID	Flowers	8	11	[0, 0, 0]	n/a	catFR1	4	R1375C
1434.709	0.832	1443840	WORD_OFF	n/a	n/a	ORCHID	Flowers	8	11	[0, 0, 0]	n/a	catFR1	4	R1375C
1435.541	1.6	1444667	WORD	n/a	wordpools/wordpool_categorized_EN.txt	SANDER	Tools	9	11	[0, 0, 0]	n/a	catFR1	4	R1375C
1437.142	0.866	1446265	WORD_OFF	n/a	n/a	SANDER	Tools	9	11	[0, 0, 0]	n/a	catFR1	4	R1375C
1438.008	1.6	1447133	WORD	n/a	wordpools/wordpool_categorized_EN.txt	AXE	Tools	10	11	[0, 0, 0]	n/a	catFR1	4	R1375C
1439.608	0.801	1448732	WORD_OFF	n/a	n/a	AXE	Tools	10	11	[0, 0, 0]	n/a	catFR1	4	R1375C
1440.409	1.6	1449531	WORD	n/a	wordpools/wordpool_categorized_EN.txt	TURKEY	Farmanimals	11	11	[0, 0, 0]	n/a	catFR1	4	R1375C
1442.009	0.833	1451129	WORD_OFF	n/a	n/a	TURKEY	Farmanimals	11	11	[0, 0, 0]	n/a	catFR1	4	R1375C
1442.842	1.6	1451969	WORD	n/a	wordpools/wordpool_categorized_EN.txt	BULL	Farmanimals	12	11	[0, 0, 0]	n/a	catFR1	4	R1375C
1444.458	0.001	1453581	WORD_OFF	n/a	n/a	BULL	Farmanimals	12	11	[0, 0, 0]	n/a	catFR1	4	R1375C
1444.459	0.001	1453581	ENCODING_END	n/a	n/a	n/a	n/a	-999	11	[0, 0, 0]	n/a	catFR1	4	R1375C
1444.46	0.0	1453581	DISTRACT_START	n/a	n/a	n/a	n/a	-999	11	[0, 0, 0]	n/a	catFR1	4	R1375C
1444.458	0.002	1453582	PROB	2.617	n/a	n/a	n/a	-999	11	[7, 6, 7]	20.0	catFR1	4	R1375C
1444.46	2.632	1453584	START	n/a	n/a	n/a	n/a	-999	11	[-999, -999, -999]	n/a	catFR1	4	R1375C
1447.092	2.517	1456216	PROB	2.5	n/a	n/a	n/a	-999	11	[1, 2, 5]	8.0	catFR1	4	R1375C
1449.609	2.749	1458732	PROB	2.732	n/a	n/a	n/a	-999	11	[5, 1, 8]	14.0	catFR1	4	R1375C
1452.358	4.602	1461481	PROB	4.584	n/a	n/a	n/a	-999	11	[8, 3, 3]	14.0	catFR1	4	R1375C
1456.96	6.719	1466083	PROB	6.699	n/a	n/a	n/a	-999	11	[1, 6, 5]	12.0	catFR1	4	R1375C
1463.679	3.045	1472802	PROB	3.032	n/a	n/a	n/a	-999	11	[2, 5, 7]	14.0	catFR1	4	R1375C
1466.724	0.0	1475846	DISTRACT_END	n/a	n/a	n/a	n/a	-999	11	[0, 0, 0]	n/a	catFR1	4	R1375C
1466.724	1.217	1475847	STOP	n/a	n/a	n/a	n/a	-999	11	[-999, -999, -999]	n/a	catFR1	4	R1375C
1467.941	2.218	1477059	REC_START	n/a	n/a	n/a	n/a	-999	11	[0, 0, 0]	n/a	catFR1	4	R1375C
1470.159	0.911	1479281	REC_WORD	2.218	n/a	CALF	Farmanimals	3	11	[0, 0, 0]	n/a	catFR1	4	R1375C
1471.07	5.84	1480192	REC_WORD	3.129	n/a	HORSE	Farmanimals	4	11	[0, 0, 0]	n/a	catFR1	4	R1375C
1476.91	1.824	1486032	REC_WORD	8.969	n/a	TULIP	Flowers	2	11	[0, 0, 0]	n/a	catFR1	4	R1375C
1478.734	2.141	1487856	REC_WORD_VV	10.793	n/a	<>	n/a	-999	11	[0, 0, 0]	n/a	catFR1	4	R1375C
1480.875	2.148	1489997	REC_WORD_VV	12.934	n/a	<>	n/a	-999	11	[0, 0, 0]	n/a	catFR1	4	R1375C
1483.023	3.608	1492145	REC_WORD_VV	15.082	n/a	<>	n/a	-999	11	[0, 0, 0]	n/a	catFR1	4	R1375C
1486.631	1.237	1495753	REC_WORD	18.69	n/a	ORCHID	Flowers	8	11	[0, 0, 0]	n/a	catFR1	4	R1375C
1487.868	10.343	1496990	REC_WORD	19.927	n/a	ROSE	Flowers	7	11	[0, 0, 0]	n/a	catFR1	4	R1375C
1498.211	1.08	1507328	REC_END	n/a	n/a	n/a	n/a	-999	11	[0, 0, 0]	n/a	catFR1	4	R1375C
1499.291	10.0	1508417	COUNTDOWN_START	n/a	n/a	n/a	n/a	-999	12	[0, 0, 0]	n/a	catFR1	4	R1375C
1509.642	0.0	1518764	COUNTDOWN_END	n/a	n/a	n/a	n/a	-999	12	[0, 0, 0]	n/a	catFR1	4	R1375C
1509.642	2.333	1518764	ENCODING_START	n/a	n/a	n/a	n/a	-999	12	[0, 0, 0]	n/a	catFR1	4	R1375C
1511.975	1.6	1521092	WORD	n/a	wordpools/wordpool_categorized_EN.txt	FLOOR	Building	1	12	[0, 0, 0]	n/a	catFR1	4	R1375C
1513.575	0.984	1522691	WORD_OFF	n/a	n/a	FLOOR	Building	1	12	[0, 0, 0]	n/a	catFR1	4	R1375C
1514.559	1.6	1523683	WORD	n/a	wordpools/wordpool_categorized_EN.txt	ROOF	Building	2	12	[0, 0, 0]	n/a	catFR1	4	R1375C
1516.174	0.9	1525295	WORD_OFF	n/a	n/a	ROOF	Building	2	12	[0, 0, 0]	n/a	catFR1	4	R1375C
1517.074	1.6	1526190	WORD	n/a	wordpools/wordpool_categorized_EN.txt	BARBIE	Toys	3	12	[0, 0, 0]	n/a	catFR1	4	R1375C
1518.675	0.899	1527802	WORD_OFF	n/a	n/a	BARBIE	Toys	3	12	[0, 0, 0]	n/a	catFR1	4	R1375C
1519.574	1.6	1528698	WORD	n/a	wordpools/wordpool_categorized_EN.txt	BASEBALL	Toys	4	12	[0, 0, 0]	n/a	catFR1	4	R1375C
1521.175	0.834	1530296	WORD_OFF	n/a	n/a	BASEBALL	Toys	4	12	[0, 0, 0]	n/a	catFR1	4	R1375C
1522.009	1.6	1531136	WORD	n/a	wordpools/wordpool_categorized_EN.txt	APPLE	Fruit	5	12	[0, 0, 0]	n/a	catFR1	4	R1375C
1523.625	0.867	1532748	WORD_OFF	n/a	n/a	APPLE	Fruit	5	12	[0, 0, 0]	n/a	catFR1	4	R1375C
1524.492	1.6	1533616	WORD	n/a	wordpools/wordpool_categorized_EN.txt	LEMON	Fruit	6	12	[0, 0, 0]	n/a	catFR1	4	R1375C
1526.092	0.883	1535215	WORD_OFF	n/a	n/a	LEMON	Fruit	6	12	[0, 0, 0]	n/a	catFR1	4	R1375C
1526.975	1.6	1536096	WORD	n/a	wordpools/wordpool_categorized_EN.txt	BLOCKS	Toys	7	12	[0, 0, 0]	n/a	catFR1	4	R1375C
1528.575	0.984	1537695	WORD_OFF	n/a	n/a	BLOCKS	Toys	7	12	[0, 0, 0]	n/a	catFR1	4	R1375C
1529.559	1.6	1538673	WORD	n/a	wordpools/wordpool_categorized_EN.txt	SLINKY	Toys	8	12	[0, 0, 0]	n/a	catFR1	4	R1375C
1531.175	0.884	1540299	WORD_OFF	n/a	n/a	SLINKY	Toys	8	12	[0, 0, 0]	n/a	catFR1	4	R1375C
1532.059	1.6	1541180	WORD	n/a	wordpools/wordpool_categorized_EN.txt	BANANA	Fruit	9	12	[0, 0, 0]	n/a	catFR1	4	R1375C
1533.659	0.782	1542779	WORD_OFF	n/a	n/a	BANANA	Fruit	9	12	[0, 0, 0]	n/a	catFR1	4	R1375C
1534.441	1.6	1543564	WORD	n/a	wordpools/wordpool_categorized_EN.txt	PEACH	Fruit	10	12	[0, 0, 0]	n/a	catFR1	4	R1375C
1536.042	0.85	1545162	WORD_OFF	n/a	n/a	PEACH	Fruit	10	12	[0, 0, 0]	n/a	catFR1	4	R1375C
1536.892	1.6	1546016	WORD	n/a	wordpools/wordpool_categorized_EN.txt	BATHROOM	Building	11	12	[0, 0, 0]	n/a	catFR1	4	R1375C
1538.507	0.984	1547628	WORD_OFF	n/a	n/a	BATHROOM	Building	11	12	[0, 0, 0]	n/a	catFR1	4	R1375C
1539.491	1.6	1548607	WORD	n/a	wordpools/wordpool_categorized_EN.txt	WINDOW	Building	12	12	[0, 0, 0]	n/a	catFR1	4	R1375C
1541.092	0.001	1550205	WORD_OFF	n/a	n/a	WINDOW	Building	12	12	[0, 0, 0]	n/a	catFR1	4	R1375C
1541.093	0.001	1550212	PROB	2.149	n/a	n/a	n/a	-999	12	[1, 1, 4]	6.0	catFR1	4	R1375C
1541.094	0.0	1550213	START	n/a	n/a	n/a	n/a	-999	12	[-999, -999, -999]	n/a	catFR1	4	R1375C
1541.094	0.0	1550219	ENCODING_END	n/a	n/a	n/a	n/a	-999	12	[0, 0, 0]	n/a	catFR1	4	R1375C
1541.094	2.165	1550219	DISTRACT_START	n/a	n/a	n/a	n/a	-999	12	[0, 0, 0]	n/a	catFR1	4	R1375C
1543.259	2.167	1552378	PROB	2.149	n/a	n/a	n/a	-999	12	[4, 6, 8]	18.0	catFR1	4	R1375C
1545.426	2.633	1554545	PROB	2.616	n/a	n/a	n/a	-999	12	[3, 5, 8]	16.0	catFR1	4	R1375C
1548.059	2.767	1557178	PROB	2.75	n/a	n/a	n/a	-999	12	[7, 7, 5]	19.0	catFR1	4	R1375C
1550.826	2.132	1559944	PROB	2.115	n/a	n/a	n/a	-999	12	[5, 1, 6]	13.0	catFR1	4	R1375C
1552.958	3.301	1562076	PROB	3.283	n/a	n/a	n/a	-999	12	[1, 7, 8]	16.0	catFR1	4	R1375C
1556.259	3.117	1565377	PROB	3.1	n/a	n/a	n/a	-999	12	[3, 6, 3]	12.0	catFR1	4	R1375C
1559.376	2.731	1568494	PROB	2.715	n/a	n/a	n/a	-999	12	[4, 3, 1]	8.0	catFR1	4	R1375C
1562.107	0.0	1571225	STOP	n/a	n/a	n/a	n/a	-999	12	[-999, -999, -999]	n/a	catFR1	4	R1375C
1562.107	1.167	1571230	DISTRACT_END	n/a	n/a	n/a	n/a	-999	12	[0, 0, 0]	n/a	catFR1	4	R1375C
1563.274	2.686	1572387	REC_START	n/a	n/a	n/a	n/a	-999	12	[0, 0, 0]	n/a	catFR1	4	R1375C
1565.96	0.306	1575078	REC_WORD	2.686	n/a	PEACH	Fruit	10	12	[0, 0, 0]	n/a	catFR1	4	R1375C
1566.266	2.074	1575384	REC_WORD	2.992	n/a	BANANA	Fruit	9	12	[0, 0, 0]	n/a	catFR1	4	R1375C
1568.34	5.154	1577458	REC_WORD_VV	5.066	n/a	<>	n/a	-999	12	[0, 0, 0]	n/a	catFR1	4	R1375C
1573.494	20.045	1582611	REC_WORD	10.22	n/a	LEMON	Fruit	6	12	[0, 0, 0]	n/a	catFR1	4	R1375C
1593.539	0.0	1602657	REC_END	n/a	n/a	n/a	n/a	-999	12	[0, 0, 0]	n/a	catFR1	4	R1375C
