onset	duration	sample	trial_type	response_time	stim_file	item_name	category	serialpos	list	test	answer	experiment	session	subject
0.0	4.033	98571	INSTRUCT_START	n/a	n/a	n/a	n/a	-999	-999	[0, 0, 0]	n/a	catFR1	6	R1617S
4.033	38.113	102598	INSTRUCT_END	n/a	n/a	n/a	n/a	-999	-999	[0, 0, 0]	n/a	catFR1	6	R1617S
42.146	10.352	140716	COUNTDOWN_START	n/a	n/a	n/a	n/a	-999	-999	[0, 0, 0]	n/a	catFR1	6	R1617S
52.498	0.0	151068	COUNTDOWN_END	n/a	n/a	n/a	n/a	-999	-999	[0, 0, 0]	n/a	catFR1	6	R1617S
52.498	2.25	151068	ENCODING_START	n/a	n/a	n/a	n/a	-999	-1	[0, 0, 0]	n/a	catFR1	6	R1617S
54.748	1.616	153317	WORD	n/a	n/a	SHELF	Furniture	1	-1	[0, 0, 0]	n/a	catFR1	6	R1617S
56.364	0.867	154928	WORD_OFF	n/a	n/a	SHELF	Furniture	1	-1	[0, 0, 0]	n/a	catFR1	6	R1617S
57.231	1.6	155793	WORD	n/a	n/a	RECLINER	Furniture	2	-1	[0, 0, 0]	n/a	catFR1	6	R1617S
58.831	0.966	157393	WORD_OFF	n/a	n/a	RECLINER	Furniture	2	-1	[0, 0, 0]	n/a	catFR1	6	R1617S
59.797	1.601	158366	WORD	n/a	n/a	JELLYFISH	OceanAnimals	3	-1	[0, 0, 0]	n/a	catFR1	6	R1617S
61.398	0.933	159967	WORD_OFF	n/a	n/a	JELLYFISH	OceanAnimals	3	-1	[0, 0, 0]	n/a	catFR1	6	R1617S
62.331	1.6	160900	WORD	n/a	n/a	SQUID	OceanAnimals	4	-1	[0, 0, 0]	n/a	catFR1	6	R1617S
63.931	0.984	162501	WORD_OFF	n/a	n/a	SQUID	OceanAnimals	4	-1	[0, 0, 0]	n/a	catFR1	6	R1617S
64.915	1.616	163483	WORD	n/a	n/a	DOLLHOUSE	Toys	5	-1	[0, 0, 0]	n/a	catFR1	6	R1617S
66.531	0.917	165094	WORD_OFF	n/a	n/a	DOLLHOUSE	Toys	5	-1	[0, 0, 0]	n/a	catFR1	6	R1617S
67.448	1.617	166017	WORD	n/a	n/a	SLINKY	Toys	6	-1	[0, 0, 0]	n/a	catFR1	6	R1617S
69.065	0.799	167628	WORD_OFF	n/a	n/a	SLINKY	Toys	6	-1	[0, 0, 0]	n/a	catFR1	6	R1617S
69.864	1.601	168433	WORD	n/a	n/a	SHRIMP	OceanAnimals	7	-1	[0, 0, 0]	n/a	catFR1	6	R1617S
71.465	0.9	170034	WORD_OFF	n/a	n/a	SHRIMP	OceanAnimals	7	-1	[0, 0, 0]	n/a	catFR1	6	R1617S
72.365	1.616	170928	WORD	n/a	n/a	OCTOPUS	OceanAnimals	8	-1	[0, 0, 0]	n/a	catFR1	6	R1617S
73.981	0.849	172548	WORD_OFF	n/a	n/a	OCTOPUS	OceanAnimals	8	-1	[0, 0, 0]	n/a	catFR1	6	R1617S
74.83	1.6	173393	WORD	n/a	n/a	DESK	Furniture	9	-1	[0, 0, 0]	n/a	catFR1	6	R1617S
76.43	0.767	174994	WORD_OFF	n/a	n/a	DESK	Furniture	9	-1	[0, 0, 0]	n/a	catFR1	6	R1617S
77.197	1.617	175760	WORD	n/a	n/a	BOOKCASE	Furniture	10	-1	[0, 0, 0]	n/a	catFR1	6	R1617S
78.814	0.984	177381	WORD_OFF	n/a	n/a	BOOKCASE	Furniture	10	-1	[0, 0, 0]	n/a	catFR1	6	R1617S
79.798	1.617	178363	WORD	n/a	n/a	BLOCKS	Toys	11	-1	[0, 0, 0]	n/a	catFR1	6	R1617S
81.415	0.932	179984	WORD_OFF	n/a	n/a	BLOCKS	Toys	11	-1	[0, 0, 0]	n/a	catFR1	6	R1617S
82.347	1.615	180907	WORD	n/a	n/a	BARBIE	Toys	12	-1	[0, 0, 0]	n/a	catFR1	6	R1617S
83.962	0.003	182527	WORD_OFF	n/a	n/a	BARBIE	Toys	12	-1	[0, 0, 0]	n/a	catFR1	6	R1617S
83.965	0.0	182527	ENCODING_END	n/a	n/a	n/a	n/a	-999	-1	[0, 0, 0]	n/a	catFR1	6	R1617S
83.965	0.0	182530	START	n/a	n/a	n/a	n/a	-999	-1	[-999, -999, -999]	n/a	catFR1	6	R1617S
83.965	0.0	182530	PROB	4.301	n/a	n/a	n/a	-999	-1	[8, 1, 1]	10.0	catFR1	6	R1617S
83.965	4.316	182537	DISTRACT_START	n/a	n/a	n/a	n/a	-999	-1	[0, 0, 0]	n/a	catFR1	6	R1617S
88.281	5.534	186846	PROB	5.516	n/a	n/a	n/a	-999	-1	[8, 8, 1]	17.0	catFR1	6	R1617S
93.815	3.434	192379	PROB	3.416	n/a	n/a	n/a	-999	-1	[6, 3, 2]	11.0	catFR1	6	R1617S
97.249	9.249	195813	PROB	9.233	n/a	n/a	n/a	-999	-1	[5, 6, 2]	13.0	catFR1	6	R1617S
106.498	0.0	205059	DISTRACT_END	n/a	n/a	n/a	n/a	-999	-1	[0, 0, 0]	n/a	catFR1	6	R1617S
106.498	2.367	205062	STOP	n/a	n/a	n/a	n/a	-999	-1	[-999, -999, -999]	n/a	catFR1	6	R1617S
108.865	2.047	207424	REC_START	n/a	n/a	n/a	n/a	-999	-1	[0, 0, 0]	n/a	catFR1	6	R1617S
110.912	1.133	209476	REC_WORD	2.047	n/a	DESK	Furniture	9	-1	[0, 0, 0]	n/a	catFR1	6	R1617S
112.045	1.836	210608	REC_WORD	3.18	n/a	DOLL	n/a	-999	-1	[0, 0, 0]	n/a	catFR1	6	R1617S
113.881	3.685	212444	REC_WORD	5.016	n/a	BARBIE	Toys	12	-1	[0, 0, 0]	n/a	catFR1	6	R1617S
117.566	2.309	216129	REC_WORD_VV	8.701	n/a	<>	n/a	-999	-1	[0, 0, 0]	n/a	catFR1	6	R1617S
119.875	5.874	218438	REC_WORD_VV	11.01	n/a	<>	n/a	-999	-1	[0, 0, 0]	n/a	catFR1	6	R1617S
125.749	7.41	224312	REC_WORD	16.884	n/a	TRUCK	n/a	-999	-1	[0, 0, 0]	n/a	catFR1	6	R1617S
133.159	3.576	231721	REC_WORD_VV	24.294	n/a	<>	n/a	-999	-1	[0, 0, 0]	n/a	catFR1	6	R1617S
136.735	2.348	235297	REC_WORD_VV	27.87	n/a	<>	n/a	-999	-1	[0, 0, 0]	n/a	catFR1	6	R1617S
139.083	20.165	237647	REC_END	n/a	n/a	n/a	n/a	-999	-1	[0, 0, 0]	n/a	catFR1	6	R1617S
159.248	10.349	257811	COUNTDOWN_START	n/a	n/a	n/a	n/a	-999	1	[0, 0, 0]	n/a	catFR1	6	R1617S
169.597	0.0	268154	COUNTDOWN_END	n/a	n/a	n/a	n/a	-999	1	[0, 0, 0]	n/a	catFR1	6	R1617S
169.597	2.051	268163	ENCODING_START	n/a	n/a	n/a	n/a	-999	1	[0, 0, 0]	n/a	catFR1	6	R1617S
171.648	1.6	270206	WORD	n/a	wordpools/wordpool_categorized_EN.txt	GRAPE	Fruit	1	1	[0, 0, 0]	n/a	catFR1	6	R1617S
173.248	0.8	271807	WORD_OFF	n/a	n/a	GRAPE	Fruit	1	1	[0, 0, 0]	n/a	catFR1	6	R1617S
174.048	1.617	272603	WORD	n/a	wordpools/wordpool_categorized_EN.txt	BLUEBERRY	Fruit	2	1	[0, 0, 0]	n/a	catFR1	6	R1617S
175.665	0.782	274224	WORD_OFF	n/a	n/a	BLUEBERRY	Fruit	2	1	[0, 0, 0]	n/a	catFR1	6	R1617S
176.447	1.601	275009	WORD	n/a	wordpools/wordpool_categorized_EN.txt	CUCUMBER	Vegetables	3	1	[0, 0, 0]	n/a	catFR1	6	R1617S
178.048	1.0	276610	WORD_OFF	n/a	n/a	CUCUMBER	Vegetables	3	1	[0, 0, 0]	n/a	catFR1	6	R1617S
179.048	1.616	277612	WORD	n/a	wordpools/wordpool_categorized_EN.txt	CAULIFLOWER	Vegetables	4	1	[0, 0, 0]	n/a	catFR1	6	R1617S
180.664	0.767	279223	WORD_OFF	n/a	n/a	CAULIFLOWER	Vegetables	4	1	[0, 0, 0]	n/a	catFR1	6	R1617S
181.431	1.6	279989	WORD	n/a	wordpools/wordpool_categorized_EN.txt	FLY	Insects	5	1	[0, 0, 0]	n/a	catFR1	6	R1617S
183.031	0.983	281590	WORD_OFF	n/a	n/a	FLY	Insects	5	1	[0, 0, 0]	n/a	catFR1	6	R1617S
184.014	1.601	282572	WORD	n/a	wordpools/wordpool_categorized_EN.txt	BEE	Insects	6	1	[0, 0, 0]	n/a	catFR1	6	R1617S
185.615	0.781	284173	WORD_OFF	n/a	n/a	BEE	Insects	6	1	[0, 0, 0]	n/a	catFR1	6	R1617S
186.396	1.602	284959	WORD	n/a	wordpools/wordpool_categorized_EN.txt	ORANGE	Fruit	7	1	[0, 0, 0]	n/a	catFR1	6	R1617S
187.998	0.933	286560	WORD_OFF	n/a	n/a	ORANGE	Fruit	7	1	[0, 0, 0]	n/a	catFR1	6	R1617S
188.931	1.617	287493	WORD	n/a	wordpools/wordpool_categorized_EN.txt	LEMON	Fruit	8	1	[0, 0, 0]	n/a	catFR1	6	R1617S
190.548	0.883	289104	WORD_OFF	n/a	n/a	LEMON	Fruit	8	1	[0, 0, 0]	n/a	catFR1	6	R1617S
191.431	1.617	289987	WORD	n/a	wordpools/wordpool_categorized_EN.txt	CABBAGE	Vegetables	9	1	[0, 0, 0]	n/a	catFR1	6	R1617S
193.048	0.783	291608	WORD_OFF	n/a	n/a	CABBAGE	Vegetables	9	1	[0, 0, 0]	n/a	catFR1	6	R1617S
193.831	1.617	292394	WORD	n/a	wordpools/wordpool_categorized_EN.txt	PEAS	Vegetables	10	1	[0, 0, 0]	n/a	catFR1	6	R1617S
195.448	0.833	294005	WORD_OFF	n/a	n/a	PEAS	Vegetables	10	1	[0, 0, 0]	n/a	catFR1	6	R1617S
196.281	1.617	294839	WORD	n/a	wordpools/wordpool_categorized_EN.txt	CRICKET	Insects	11	1	[0, 0, 0]	n/a	catFR1	6	R1617S
197.898	0.95	296460	WORD_OFF	n/a	n/a	CRICKET	Insects	11	1	[0, 0, 0]	n/a	catFR1	6	R1617S
198.848	1.616	297403	WORD	n/a	wordpools/wordpool_categorized_EN.txt	ROACH	Insects	12	1	[0, 0, 0]	n/a	catFR1	6	R1617S
200.464	0.002	299024	WORD_OFF	n/a	n/a	ROACH	Insects	12	1	[0, 0, 0]	n/a	catFR1	6	R1617S
200.466	0.0	299024	ENCODING_END	n/a	n/a	n/a	n/a	-999	1	[0, 0, 0]	n/a	catFR1	6	R1617S
200.466	0.0	299024	DISTRACT_START	n/a	n/a	n/a	n/a	-999	1	[0, 0, 0]	n/a	catFR1	6	R1617S
200.465	0.001	299024	PROB	6.833	n/a	n/a	n/a	-999	1	[6, 4, 5]	15.0	catFR1	6	R1617S
200.466	6.849	299025	START	n/a	n/a	n/a	n/a	-999	1	[-999, -999, -999]	n/a	catFR1	6	R1617S
207.315	7.433	305874	PROB	7.416	n/a	n/a	n/a	-999	1	[6, 3, 5]	14.0	catFR1	6	R1617S
214.748	8.966	313306	PROB	8.949	n/a	n/a	n/a	-999	1	[1, 4, 1]	6.0	catFR1	6	R1617S
223.714	0.0	322272	DISTRACT_END	n/a	n/a	n/a	n/a	-999	1	[0, 0, 0]	n/a	catFR1	6	R1617S
223.714	2.101	322272	STOP	n/a	n/a	n/a	n/a	-999	1	[-999, -999, -999]	n/a	catFR1	6	R1617S
225.815	1.877	324372	REC_START	n/a	n/a	n/a	n/a	-999	1	[0, 0, 0]	n/a	catFR1	6	R1617S
227.692	2.316	326250	REC_WORD	1.877	n/a	GRAPE	Fruit	1	1	[0, 0, 0]	n/a	catFR1	6	R1617S
230.008	2.342	328566	REC_WORD	4.193	n/a	BLUEBERRY	Fruit	2	1	[0, 0, 0]	n/a	catFR1	6	R1617S
232.35	2.375	330908	REC_WORD	6.535	n/a	LEMON	Fruit	8	1	[0, 0, 0]	n/a	catFR1	6	R1617S
234.725	2.73	333283	REC_WORD	8.91	n/a	FLEA	n/a	-999	1	[0, 0, 0]	n/a	catFR1	6	R1617S
237.455	2.941	336012	REC_WORD	11.64	n/a	CRICKET	Insects	11	1	[0, 0, 0]	n/a	catFR1	6	R1617S
240.396	4.183	338953	REC_WORD	14.581	n/a	ORANGE	Fruit	7	1	[0, 0, 0]	n/a	catFR1	6	R1617S
244.579	6.955	343136	REC_WORD_VV	18.764	n/a	<>	n/a	-999	1	[0, 0, 0]	n/a	catFR1	6	R1617S
251.534	4.509	350091	REC_WORD_VV	25.719	n/a	<>	n/a	-999	1	[0, 0, 0]	n/a	catFR1	6	R1617S
256.043	12.455	354595	REC_END	n/a	n/a	n/a	n/a	-999	1	[0, 0, 0]	n/a	catFR1	6	R1617S
268.498	10.349	367059	COUNTDOWN_START	n/a	n/a	n/a	n/a	-999	2	[0, 0, 0]	n/a	catFR1	6	R1617S
278.847	0.0	377401	COUNTDOWN_END	n/a	n/a	n/a	n/a	-999	2	[0, 0, 0]	n/a	catFR1	6	R1617S
278.847	2.151	377401	ENCODING_START	n/a	n/a	n/a	n/a	-999	2	[0, 0, 0]	n/a	catFR1	6	R1617S
280.998	1.6	379552	WORD	n/a	wordpools/wordpool_categorized_EN.txt	BOAT	Vehicles	1	2	[0, 0, 0]	n/a	catFR1	6	R1617S
282.598	0.85	381153	WORD_OFF	n/a	n/a	BOAT	Vehicles	1	2	[0, 0, 0]	n/a	catFR1	6	R1617S
283.448	1.617	381998	WORD	n/a	wordpools/wordpool_categorized_EN.txt	PLANE	Vehicles	2	2	[0, 0, 0]	n/a	catFR1	6	R1617S
285.065	0.783	383618	WORD_OFF	n/a	n/a	PLANE	Vehicles	2	2	[0, 0, 0]	n/a	catFR1	6	R1617S
285.848	1.616	384404	WORD	n/a	wordpools/wordpool_categorized_EN.txt	STOVE	Appliances	3	2	[0, 0, 0]	n/a	catFR1	6	R1617S
287.464	0.882	386015	WORD_OFF	n/a	n/a	STOVE	Appliances	3	2	[0, 0, 0]	n/a	catFR1	6	R1617S
288.346	1.602	386899	WORD	n/a	wordpools/wordpool_categorized_EN.txt	TOASTER	Appliances	4	2	[0, 0, 0]	n/a	catFR1	6	R1617S
289.948	0.867	388500	WORD_OFF	n/a	n/a	TOASTER	Appliances	4	2	[0, 0, 0]	n/a	catFR1	6	R1617S
290.815	1.616	389364	WORD	n/a	wordpools/wordpool_categorized_EN.txt	BASS	Instruments	5	2	[0, 0, 0]	n/a	catFR1	6	R1617S
292.431	0.967	390985	WORD_OFF	n/a	n/a	BASS	Instruments	5	2	[0, 0, 0]	n/a	catFR1	6	R1617S
293.398	1.617	391957	WORD	n/a	wordpools/wordpool_categorized_EN.txt	FLUTE	Instruments	6	2	[0, 0, 0]	n/a	catFR1	6	R1617S
295.015	0.9	393568	WORD_OFF	n/a	n/a	FLUTE	Instruments	6	2	[0, 0, 0]	n/a	catFR1	6	R1617S
295.915	1.6	394472	WORD	n/a	wordpools/wordpool_categorized_EN.txt	BUS	Vehicles	7	2	[0, 0, 0]	n/a	catFR1	6	R1617S
297.515	0.916	396072	WORD_OFF	n/a	n/a	BUS	Vehicles	7	2	[0, 0, 0]	n/a	catFR1	6	R1617S
298.431	1.617	396986	WORD	n/a	wordpools/wordpool_categorized_EN.txt	TRUCK	Vehicles	8	2	[0, 0, 0]	n/a	catFR1	6	R1617S
300.048	0.833	398606	WORD_OFF	n/a	n/a	TRUCK	Vehicles	8	2	[0, 0, 0]	n/a	catFR1	6	R1617S
300.881	1.617	399432	WORD	n/a	wordpools/wordpool_categorized_EN.txt	IRON	Appliances	9	2	[0, 0, 0]	n/a	catFR1	6	R1617S
302.498	0.883	401052	WORD_OFF	n/a	n/a	IRON	Appliances	9	2	[0, 0, 0]	n/a	catFR1	6	R1617S
303.381	1.617	401936	WORD	n/a	wordpools/wordpool_categorized_EN.txt	OVEN	Appliances	10	2	[0, 0, 0]	n/a	catFR1	6	R1617S
304.998	0.85	403547	WORD_OFF	n/a	n/a	OVEN	Appliances	10	2	[0, 0, 0]	n/a	catFR1	6	R1617S
305.848	1.617	404401	WORD	n/a	wordpools/wordpool_categorized_EN.txt	TUBA	Instruments	11	2	[0, 0, 0]	n/a	catFR1	6	R1617S
307.465	0.899	406022	WORD_OFF	n/a	n/a	TUBA	Instruments	11	2	[0, 0, 0]	n/a	catFR1	6	R1617S
308.364	1.6	406916	WORD	n/a	wordpools/wordpool_categorized_EN.txt	BANJO	Instruments	12	2	[0, 0, 0]	n/a	catFR1	6	R1617S
309.964	0.002	408517	WORD_OFF	n/a	n/a	BANJO	Instruments	12	2	[0, 0, 0]	n/a	catFR1	6	R1617S
309.966	0.0	408517	ENCODING_END	n/a	n/a	n/a	n/a	-999	2	[0, 0, 0]	n/a	catFR1	6	R1617S
309.966	0.0	408517	DISTRACT_START	n/a	n/a	n/a	n/a	-999	2	[0, 0, 0]	n/a	catFR1	6	R1617S
309.965	0.001	408519	PROB	4.599	n/a	n/a	n/a	-999	2	[5, 2, 5]	12.0	catFR1	6	R1617S
309.966	4.616	408520	START	n/a	n/a	n/a	n/a	-999	2	[-999, -999, -999]	n/a	catFR1	6	R1617S
314.582	5.983	413136	PROB	5.966	n/a	n/a	n/a	-999	2	[5, 8, 2]	15.0	catFR1	6	R1617S
320.565	7.95	419118	PROB	7.933	n/a	n/a	n/a	-999	2	[8, 4, 8]	20.0	catFR1	6	R1617S
328.515	3.516	427068	PROB	3.5	n/a	n/a	n/a	-999	2	[6, 1, 4]	11.0	catFR1	6	R1617S
332.031	0.0	430584	STOP	n/a	n/a	n/a	n/a	-999	2	[-999, -999, -999]	n/a	catFR1	6	R1617S
332.031	2.184	430586	DISTRACT_END	n/a	n/a	n/a	n/a	-999	2	[0, 0, 0]	n/a	catFR1	6	R1617S
334.215	2.422	432765	REC_START	n/a	n/a	n/a	n/a	-999	2	[0, 0, 0]	n/a	catFR1	6	R1617S
336.637	0.448	435190	REC_WORD_VV	2.422	n/a	<>	n/a	-999	2	[0, 0, 0]	n/a	catFR1	6	R1617S
337.085	1.425	435638	REC_WORD	2.87	n/a	BANJO	Instruments	12	2	[0, 0, 0]	n/a	catFR1	6	R1617S
338.51	3.067	437063	REC_WORD	4.295	n/a	TRUMPET	n/a	-999	2	[0, 0, 0]	n/a	catFR1	6	R1617S
341.577	3.976	440129	REC_WORD_VV	7.362	n/a	<>	n/a	-999	2	[0, 0, 0]	n/a	catFR1	6	R1617S
345.553	1.242	444105	REC_WORD_VV	11.338	n/a	<>	n/a	-999	2	[0, 0, 0]	n/a	catFR1	6	R1617S
346.795	2.435	445347	REC_WORD_VV	12.58	n/a	<>	n/a	-999	2	[0, 0, 0]	n/a	catFR1	6	R1617S
349.23	2.082	447782	REC_WORD_VV	15.015	n/a	<>	n/a	-999	2	[0, 0, 0]	n/a	catFR1	6	R1617S
351.312	1.386	449864	REC_WORD_VV	17.097	n/a	<>	n/a	-999	2	[0, 0, 0]	n/a	catFR1	6	R1617S
352.698	4.788	451250	REC_WORD	18.483	n/a	FLUTE	Instruments	6	2	[0, 0, 0]	n/a	catFR1	6	R1617S
357.486	6.978	456038	REC_WORD	23.271	n/a	DRUM	n/a	-999	2	[0, 0, 0]	n/a	catFR1	6	R1617S
364.464	11.483	463018	REC_END	n/a	n/a	n/a	n/a	-999	2	[0, 0, 0]	n/a	catFR1	6	R1617S
375.947	10.35	474499	COUNTDOWN_START	n/a	n/a	n/a	n/a	-999	3	[0, 0, 0]	n/a	catFR1	6	R1617S
386.297	0.0	484851	COUNTDOWN_END	n/a	n/a	n/a	n/a	-999	3	[0, 0, 0]	n/a	catFR1	6	R1617S
386.297	1.951	484851	ENCODING_START	n/a	n/a	n/a	n/a	-999	3	[0, 0, 0]	n/a	catFR1	6	R1617S
388.248	1.616	486796	WORD	n/a	wordpools/wordpool_categorized_EN.txt	PASTRY	Desserts	1	3	[0, 0, 0]	n/a	catFR1	6	R1617S
389.864	0.917	488417	WORD_OFF	n/a	n/a	PASTRY	Desserts	1	3	[0, 0, 0]	n/a	catFR1	6	R1617S
390.781	1.6	489330	WORD	n/a	wordpools/wordpool_categorized_EN.txt	CHEESECAKE	Desserts	2	3	[0, 0, 0]	n/a	catFR1	6	R1617S
392.381	0.967	490931	WORD_OFF	n/a	n/a	CHEESECAKE	Desserts	2	3	[0, 0, 0]	n/a	catFR1	6	R1617S
393.348	1.6	491894	WORD	n/a	wordpools/wordpool_categorized_EN.txt	LION	Zoo	3	3	[0, 0, 0]	n/a	catFR1	6	R1617S
394.948	0.767	493495	WORD_OFF	n/a	n/a	LION	Zoo	3	3	[0, 0, 0]	n/a	catFR1	6	R1617S
395.715	1.616	494261	WORD	n/a	wordpools/wordpool_categorized_EN.txt	BEAR	Zoo	4	3	[0, 0, 0]	n/a	catFR1	6	R1617S
397.331	0.933	495881	WORD_OFF	n/a	n/a	BEAR	Zoo	4	3	[0, 0, 0]	n/a	catFR1	6	R1617S
398.264	1.6	496814	WORD	n/a	wordpools/wordpool_categorized_EN.txt	PENCIL	OfficeSupplies	5	3	[0, 0, 0]	n/a	catFR1	6	R1617S
399.864	0.999	498415	WORD_OFF	n/a	n/a	PENCIL	OfficeSupplies	5	3	[0, 0, 0]	n/a	catFR1	6	R1617S
400.863	1.616	499417	WORD	n/a	wordpools/wordpool_categorized_EN.txt	PEN	OfficeSupplies	6	3	[0, 0, 0]	n/a	catFR1	6	R1617S
402.479	1.003	501028	WORD_OFF	n/a	n/a	PEN	OfficeSupplies	6	3	[0, 0, 0]	n/a	catFR1	6	R1617S
403.482	1.599	502030	WORD	n/a	wordpools/wordpool_categorized_EN.txt	GORILLA	Zoo	7	3	[0, 0, 0]	n/a	catFR1	6	R1617S
405.081	1.001	503631	WORD_OFF	n/a	n/a	GORILLA	Zoo	7	3	[0, 0, 0]	n/a	catFR1	6	R1617S
406.082	1.616	504633	WORD	n/a	wordpools/wordpool_categorized_EN.txt	GIRAFFE	Zoo	8	3	[0, 0, 0]	n/a	catFR1	6	R1617S
407.698	0.966	506243	WORD_OFF	n/a	n/a	GIRAFFE	Zoo	8	3	[0, 0, 0]	n/a	catFR1	6	R1617S
408.664	1.617	507216	WORD	n/a	wordpools/wordpool_categorized_EN.txt	TAPE	OfficeSupplies	9	3	[0, 0, 0]	n/a	catFR1	6	R1617S
410.281	0.983	508826	WORD_OFF	n/a	n/a	TAPE	OfficeSupplies	9	3	[0, 0, 0]	n/a	catFR1	6	R1617S
411.264	1.617	509809	WORD	n/a	wordpools/wordpool_categorized_EN.txt	BINDER	OfficeSupplies	10	3	[0, 0, 0]	n/a	catFR1	6	R1617S
412.881	0.8	511429	WORD_OFF	n/a	n/a	BINDER	OfficeSupplies	10	3	[0, 0, 0]	n/a	catFR1	6	R1617S
413.681	1.6	512225	WORD	n/a	wordpools/wordpool_categorized_EN.txt	FUDGE	Desserts	11	3	[0, 0, 0]	n/a	catFR1	6	R1617S
415.281	0.983	513826	WORD_OFF	n/a	n/a	FUDGE	Desserts	11	3	[0, 0, 0]	n/a	catFR1	6	R1617S
416.264	1.6	514808	WORD	n/a	wordpools/wordpool_categorized_EN.txt	COOKIE	Desserts	12	3	[0, 0, 0]	n/a	catFR1	6	R1617S
417.864	0.001	516409	WORD_OFF	n/a	n/a	COOKIE	Desserts	12	3	[0, 0, 0]	n/a	catFR1	6	R1617S
417.865	0.003	516414	PROB	10.199	n/a	n/a	n/a	-999	3	[1, 7, 5]	13.0	catFR1	6	R1617S
417.868	0.0	516417	START	n/a	n/a	n/a	n/a	-999	3	[-999, -999, -999]	n/a	catFR1	6	R1617S
417.868	0.0	516419	ENCODING_END	n/a	n/a	n/a	n/a	-999	3	[0, 0, 0]	n/a	catFR1	6	R1617S
417.868	10.213	516419	DISTRACT_START	n/a	n/a	n/a	n/a	-999	3	[0, 0, 0]	n/a	catFR1	6	R1617S
428.081	8.884	526629	PROB	8.867	n/a	n/a	n/a	-999	3	[2, 3, 1]	6.0	catFR1	6	R1617S
436.965	7.616	535513	PROB	7.599	n/a	n/a	n/a	-999	3	[2, 6, 2]	10.0	catFR1	6	R1617S
444.581	0.0	543124	DISTRACT_END	n/a	n/a	n/a	n/a	-999	3	[0, 0, 0]	n/a	catFR1	6	R1617S
444.581	2.117	543128	STOP	n/a	n/a	n/a	n/a	-999	3	[-999, -999, -999]	n/a	catFR1	6	R1617S
446.698	1.893	545244	REC_START	n/a	n/a	n/a	n/a	-999	3	[0, 0, 0]	n/a	catFR1	6	R1617S
448.591	2.603	547138	REC_WORD	1.893	n/a	CHEESECAKE	Desserts	2	3	[0, 0, 0]	n/a	catFR1	6	R1617S
451.194	1.189	549741	REC_WORD_VV	4.496	n/a	<>	n/a	-999	3	[0, 0, 0]	n/a	catFR1	6	R1617S
452.383	3.47	550930	REC_WORD	5.685	n/a	PASTRY	Desserts	1	3	[0, 0, 0]	n/a	catFR1	6	R1617S
455.853	3.214	554400	REC_WORD	9.155	n/a	LION	Zoo	3	3	[0, 0, 0]	n/a	catFR1	6	R1617S
459.067	2.213	557614	REC_WORD_VV	12.369	n/a	<>	n/a	-999	3	[0, 0, 0]	n/a	catFR1	6	R1617S
461.28	4.961	559827	REC_WORD	14.582	n/a	GORILLA	Zoo	7	3	[0, 0, 0]	n/a	catFR1	6	R1617S
466.241	3.186	564787	REC_WORD_VV	19.543	n/a	<>	n/a	-999	3	[0, 0, 0]	n/a	catFR1	6	R1617S
469.427	5.193	567973	REC_WORD_VV	22.729	n/a	<>	n/a	-999	3	[0, 0, 0]	n/a	catFR1	6	R1617S
474.62	2.324	573166	REC_WORD	27.922	n/a	PIE	n/a	-999	3	[0, 0, 0]	n/a	catFR1	6	R1617S
476.944	19.87	575487	REC_END	n/a	n/a	n/a	n/a	-999	3	[0, 0, 0]	n/a	catFR1	6	R1617S
496.814	10.351	595356	COUNTDOWN_START	n/a	n/a	n/a	n/a	-999	4	[0, 0, 0]	n/a	catFR1	6	R1617S
507.165	0.0	605708	COUNTDOWN_END	n/a	n/a	n/a	n/a	-999	4	[0, 0, 0]	n/a	catFR1	6	R1617S
507.165	2.083	605708	ENCODING_START	n/a	n/a	n/a	n/a	-999	4	[0, 0, 0]	n/a	catFR1	6	R1617S
509.248	1.6	607791	WORD	n/a	wordpools/wordpool_categorized_EN.txt	WHISK	KitchenTools	1	4	[0, 0, 0]	n/a	catFR1	6	R1617S
510.848	0.817	609392	WORD_OFF	n/a	n/a	WHISK	KitchenTools	1	4	[0, 0, 0]	n/a	catFR1	6	R1617S
511.665	1.616	610207	WORD	n/a	wordpools/wordpool_categorized_EN.txt	KNIFE	KitchenTools	2	4	[0, 0, 0]	n/a	catFR1	6	R1617S
513.281	0.851	611827	WORD_OFF	n/a	n/a	KNIFE	KitchenTools	2	4	[0, 0, 0]	n/a	catFR1	6	R1617S
514.132	1.615	612672	WORD	n/a	wordpools/wordpool_categorized_EN.txt	LAKE	Landscapes	3	4	[0, 0, 0]	n/a	catFR1	6	R1617S
515.747	0.95	614293	WORD_OFF	n/a	n/a	LAKE	Landscapes	3	4	[0, 0, 0]	n/a	catFR1	6	R1617S
516.697	1.6	615236	WORD	n/a	wordpools/wordpool_categorized_EN.txt	HILLS	Landscapes	4	4	[0, 0, 0]	n/a	catFR1	6	R1617S
518.297	0.8	616836	WORD_OFF	n/a	n/a	HILLS	Landscapes	4	4	[0, 0, 0]	n/a	catFR1	6	R1617S
519.097	1.601	617642	WORD	n/a	wordpools/wordpool_categorized_EN.txt	VAN	Vehicles	5	4	[0, 0, 0]	n/a	catFR1	6	R1617S
520.698	0.917	619243	WORD_OFF	n/a	n/a	VAN	Vehicles	5	4	[0, 0, 0]	n/a	catFR1	6	R1617S
521.615	1.6	620156	WORD	n/a	wordpools/wordpool_categorized_EN.txt	CAR	Vehicles	6	4	[0, 0, 0]	n/a	catFR1	6	R1617S
523.215	0.949	621757	WORD_OFF	n/a	n/a	CAR	Vehicles	6	4	[0, 0, 0]	n/a	catFR1	6	R1617S
524.164	1.601	622710	WORD	n/a	wordpools/wordpool_categorized_EN.txt	PEELER	KitchenTools	7	4	[0, 0, 0]	n/a	catFR1	6	R1617S
525.765	0.833	624311	WORD_OFF	n/a	n/a	PEELER	KitchenTools	7	4	[0, 0, 0]	n/a	catFR1	6	R1617S
526.598	1.617	625146	WORD	n/a	wordpools/wordpool_categorized_EN.txt	SPOON	KitchenTools	8	4	[0, 0, 0]	n/a	catFR1	6	R1617S
528.215	0.9	626756	WORD_OFF	n/a	n/a	SPOON	KitchenTools	8	4	[0, 0, 0]	n/a	catFR1	6	R1617S
529.115	1.616	627660	WORD	n/a	wordpools/wordpool_categorized_EN.txt	BIKE	Vehicles	9	4	[0, 0, 0]	n/a	catFR1	6	R1617S
530.731	0.967	629271	WORD_OFF	n/a	n/a	BIKE	Vehicles	9	4	[0, 0, 0]	n/a	catFR1	6	R1617S
531.698	1.617	630243	WORD	n/a	wordpools/wordpool_categorized_EN.txt	TRAIN	Vehicles	10	4	[0, 0, 0]	n/a	catFR1	6	R1617S
533.315	0.833	631854	WORD_OFF	n/a	n/a	TRAIN	Vehicles	10	4	[0, 0, 0]	n/a	catFR1	6	R1617S
534.148	1.6	632689	WORD	n/a	wordpools/wordpool_categorized_EN.txt	WOODS	Landscapes	11	4	[0, 0, 0]	n/a	catFR1	6	R1617S
535.748	0.817	634290	WORD_OFF	n/a	n/a	WOODS	Landscapes	11	4	[0, 0, 0]	n/a	catFR1	6	R1617S
536.565	1.617	635105	WORD	n/a	wordpools/wordpool_categorized_EN.txt	OCEAN	Landscapes	12	4	[0, 0, 0]	n/a	catFR1	6	R1617S
538.182	0.0	636725	START	n/a	n/a	n/a	n/a	-999	4	[-999, -999, -999]	n/a	catFR1	6	R1617S
538.182	0.0	636725	PROB	7.45	n/a	n/a	n/a	-999	4	[5, 1, 3]	9.0	catFR1	6	R1617S
538.181	0.001	636726	WORD_OFF	n/a	n/a	OCEAN	Landscapes	12	4	[0, 0, 0]	n/a	catFR1	6	R1617S
538.182	0.0	636726	ENCODING_END	n/a	n/a	n/a	n/a	-999	4	[0, 0, 0]	n/a	catFR1	6	R1617S
538.182	7.467	636726	DISTRACT_START	n/a	n/a	n/a	n/a	-999	4	[0, 0, 0]	n/a	catFR1	6	R1617S
545.649	4.766	644192	PROB	4.749	n/a	n/a	n/a	-999	4	[2, 2, 6]	10.0	catFR1	6	R1617S
550.415	4.05	648957	PROB	4.033	n/a	n/a	n/a	-999	4	[5, 6, 4]	15.0	catFR1	6	R1617S
554.465	6.382	653007	PROB	6.366	n/a	n/a	n/a	-999	4	[6, 8, 2]	16.0	catFR1	6	R1617S
560.847	0.0	659384	DISTRACT_END	n/a	n/a	n/a	n/a	-999	4	[0, 0, 0]	n/a	catFR1	6	R1617S
560.847	2.118	659389	STOP	n/a	n/a	n/a	n/a	-999	4	[-999, -999, -999]	n/a	catFR1	6	R1617S
562.965	2.008	661504	REC_START	n/a	n/a	n/a	n/a	-999	4	[0, 0, 0]	n/a	catFR1	6	R1617S
564.973	0.767	663515	REC_WORD_VV	2.008	n/a	<>	n/a	-999	4	[0, 0, 0]	n/a	catFR1	6	R1617S
565.74	1.675	664282	REC_WORD	2.775	n/a	PEELER	KitchenTools	7	4	[0, 0, 0]	n/a	catFR1	6	R1617S
567.415	2.086	665957	REC_WORD	4.45	n/a	VAN	Vehicles	5	4	[0, 0, 0]	n/a	catFR1	6	R1617S
569.501	2.5	668043	REC_WORD	6.536	n/a	TRAIN	Vehicles	10	4	[0, 0, 0]	n/a	catFR1	6	R1617S
572.001	4.008	670542	REC_WORD	9.036	n/a	BUS	Vehicles	-999	4	[0, 0, 0]	n/a	catFR1	6	R1617S
576.009	1.458	674550	REC_WORD_VV	13.044	n/a	<>	n/a	-999	4	[0, 0, 0]	n/a	catFR1	6	R1617S
577.467	2.33	676008	REC_WORD	14.502	n/a	MOUNTAIN	n/a	-999	4	[0, 0, 0]	n/a	catFR1	6	R1617S
579.797	6.648	678338	REC_WORD	16.832	n/a	SPOON	KitchenTools	8	4	[0, 0, 0]	n/a	catFR1	6	R1617S
586.445	6.768	684986	REC_WORD_VV	23.48	n/a	<>	n/a	-999	4	[0, 0, 0]	n/a	catFR1	6	R1617S
593.213	31.302	691757	REC_END	n/a	n/a	n/a	n/a	-999	4	[0, 0, 0]	n/a	catFR1	6	R1617S
624.515	10.349	723059	COUNTDOWN_START	n/a	n/a	n/a	n/a	-999	5	[0, 0, 0]	n/a	catFR1	6	R1617S
634.864	0.0	733401	COUNTDOWN_END	n/a	n/a	n/a	n/a	-999	5	[0, 0, 0]	n/a	catFR1	6	R1617S
634.864	2.151	733401	ENCODING_START	n/a	n/a	n/a	n/a	-999	5	[0, 0, 0]	n/a	catFR1	6	R1617S
637.015	1.615	735552	WORD	n/a	wordpools/wordpool_categorized_EN.txt	BATHROOM	Building	1	5	[0, 0, 0]	n/a	catFR1	6	R1617S
638.63	0.785	737168	WORD_OFF	n/a	n/a	BATHROOM	Building	1	5	[0, 0, 0]	n/a	catFR1	6	R1617S
639.415	1.616	737949	WORD	n/a	wordpools/wordpool_categorized_EN.txt	STAIRS	Building	2	5	[0, 0, 0]	n/a	catFR1	6	R1617S
641.031	0.917	739569	WORD_OFF	n/a	n/a	STAIRS	Building	2	5	[0, 0, 0]	n/a	catFR1	6	R1617S
641.948	1.6	740483	WORD	n/a	wordpools/wordpool_categorized_EN.txt	DUCK	Birds	3	5	[0, 0, 0]	n/a	catFR1	6	R1617S
643.548	0.833	742084	WORD_OFF	n/a	n/a	DUCK	Birds	3	5	[0, 0, 0]	n/a	catFR1	6	R1617S
644.381	1.617	742919	WORD	n/a	wordpools/wordpool_categorized_EN.txt	FINCH	Birds	4	5	[0, 0, 0]	n/a	catFR1	6	R1617S
645.998	1.0	744539	WORD_OFF	n/a	n/a	FINCH	Birds	4	5	[0, 0, 0]	n/a	catFR1	6	R1617S
646.998	1.601	745531	WORD	n/a	wordpools/wordpool_categorized_EN.txt	SHEEP	FarmAnimals	5	5	[0, 0, 0]	n/a	catFR1	6	R1617S
648.599	0.949	747132	WORD_OFF	n/a	n/a	SHEEP	FarmAnimals	5	5	[0, 0, 0]	n/a	catFR1	6	R1617S
649.548	1.617	748085	WORD	n/a	wordpools/wordpool_categorized_EN.txt	HEN	FarmAnimals	6	5	[0, 0, 0]	n/a	catFR1	6	R1617S
651.165	0.816	749705	WORD_OFF	n/a	n/a	HEN	FarmAnimals	6	5	[0, 0, 0]	n/a	catFR1	6	R1617S
651.981	1.6	750521	WORD	n/a	wordpools/wordpool_categorized_EN.txt	HAWK	Birds	7	5	[0, 0, 0]	n/a	catFR1	6	R1617S
653.581	0.817	752122	WORD_OFF	n/a	n/a	HAWK	Birds	7	5	[0, 0, 0]	n/a	catFR1	6	R1617S
654.398	1.6	752937	WORD	n/a	wordpools/wordpool_categorized_EN.txt	DOVE	Birds	8	5	[0, 0, 0]	n/a	catFR1	6	R1617S
655.998	0.999	754538	WORD_OFF	n/a	n/a	DOVE	Birds	8	5	[0, 0, 0]	n/a	catFR1	6	R1617S
656.997	1.601	755530	WORD	n/a	wordpools/wordpool_categorized_EN.txt	PIG	FarmAnimals	9	5	[0, 0, 0]	n/a	catFR1	6	R1617S
658.598	0.833	757131	WORD_OFF	n/a	n/a	PIG	FarmAnimals	9	5	[0, 0, 0]	n/a	catFR1	6	R1617S
659.431	1.6	757966	WORD	n/a	wordpools/wordpool_categorized_EN.txt	HORSE	FarmAnimals	10	5	[0, 0, 0]	n/a	catFR1	6	R1617S
661.031	0.8	759567	WORD_OFF	n/a	n/a	HORSE	FarmAnimals	10	5	[0, 0, 0]	n/a	catFR1	6	R1617S
661.831	1.601	760372	WORD	n/a	wordpools/wordpool_categorized_EN.txt	WINDOW	Building	11	5	[0, 0, 0]	n/a	catFR1	6	R1617S
663.432	0.983	761963	WORD_OFF	n/a	n/a	WINDOW	Building	11	5	[0, 0, 0]	n/a	catFR1	6	R1617S
664.415	1.616	762955	WORD	n/a	wordpools/wordpool_categorized_EN.txt	ROOM	Building	12	5	[0, 0, 0]	n/a	catFR1	6	R1617S
666.031	0.004	764566	WORD_OFF	n/a	n/a	ROOM	Building	12	5	[0, 0, 0]	n/a	catFR1	6	R1617S
666.035	0.0	764566	ENCODING_END	n/a	n/a	n/a	n/a	-999	5	[0, 0, 0]	n/a	catFR1	6	R1617S
666.032	0.003	764569	PROB	9.732	n/a	n/a	n/a	-999	5	[1, 5, 8]	14.0	catFR1	6	R1617S
666.035	0.0	764572	START	n/a	n/a	n/a	n/a	-999	5	[-999, -999, -999]	n/a	catFR1	6	R1617S
666.035	9.747	764576	DISTRACT_START	n/a	n/a	n/a	n/a	-999	5	[0, 0, 0]	n/a	catFR1	6	R1617S
675.782	7.15	774318	PROB	7.132	n/a	n/a	n/a	-999	5	[3, 3, 1]	7.0	catFR1	6	R1617S
682.932	5.05	781468	PROB	5.033	n/a	n/a	n/a	-999	5	[8, 4, 6]	18.0	catFR1	6	R1617S
687.982	0.0	786517	DISTRACT_END	n/a	n/a	n/a	n/a	-999	5	[0, 0, 0]	n/a	catFR1	6	R1617S
687.982	2.133	786518	STOP	n/a	n/a	n/a	n/a	-999	5	[-999, -999, -999]	n/a	catFR1	6	R1617S
690.115	2.033	788647	REC_START	n/a	n/a	n/a	n/a	-999	5	[0, 0, 0]	n/a	catFR1	6	R1617S
692.148	1.067	790684	REC_WORD_VV	2.033	n/a	<>	n/a	-999	5	[0, 0, 0]	n/a	catFR1	6	R1617S
693.215	2.972	791751	REC_WORD	3.1	n/a	HEN	FarmAnimals	6	5	[0, 0, 0]	n/a	catFR1	6	R1617S
696.187	2.267	794722	REC_WORD	6.072	n/a	FINCH	Birds	4	5	[0, 0, 0]	n/a	catFR1	6	R1617S
698.454	3.498	796989	REC_WORD	8.339	n/a	SHEEP	FarmAnimals	5	5	[0, 0, 0]	n/a	catFR1	6	R1617S
701.952	15.582	800487	REC_WORD	11.837	n/a	HAWK	Birds	7	5	[0, 0, 0]	n/a	catFR1	6	R1617S
717.534	2.822	816068	REC_WORD_VV	27.419	n/a	<>	n/a	-999	5	[0, 0, 0]	n/a	catFR1	6	R1617S
720.356	11.31	818890	REC_END	n/a	n/a	n/a	n/a	-999	5	[0, 0, 0]	n/a	catFR1	6	R1617S
731.666	10.349	830205	COUNTDOWN_START	n/a	n/a	n/a	n/a	-999	6	[0, 0, 0]	n/a	catFR1	6	R1617S
742.015	0.0	840547	COUNTDOWN_END	n/a	n/a	n/a	n/a	-999	6	[0, 0, 0]	n/a	catFR1	6	R1617S
742.015	1.966	840547	ENCODING_START	n/a	n/a	n/a	n/a	-999	6	[0, 0, 0]	n/a	catFR1	6	R1617S
743.981	1.617	842511	WORD	n/a	wordpools/wordpool_categorized_EN.txt	SEAGULL	Birds	1	6	[0, 0, 0]	n/a	catFR1	6	R1617S
745.598	0.883	844132	WORD_OFF	n/a	n/a	SEAGULL	Birds	1	6	[0, 0, 0]	n/a	catFR1	6	R1617S
746.481	1.617	845016	WORD	n/a	wordpools/wordpool_categorized_EN.txt	ROBIN	Birds	2	6	[0, 0, 0]	n/a	catFR1	6	R1617S
748.098	1.0	846627	WORD_OFF	n/a	n/a	ROBIN	Birds	2	6	[0, 0, 0]	n/a	catFR1	6	R1617S
749.098	1.617	847638	WORD	n/a	wordpools/wordpool_categorized_EN.txt	HAMMER	Tools	3	6	[0, 0, 0]	n/a	catFR1	6	R1617S
750.715	0.933	849249	WORD_OFF	n/a	n/a	HAMMER	Tools	3	6	[0, 0, 0]	n/a	catFR1	6	R1617S
751.648	1.617	850182	WORD	n/a	wordpools/wordpool_categorized_EN.txt	AXE	Tools	4	6	[0, 0, 0]	n/a	catFR1	6	R1617S
753.265	0.85	851793	WORD_OFF	n/a	n/a	AXE	Tools	4	6	[0, 0, 0]	n/a	catFR1	6	R1617S
754.115	1.616	852648	WORD	n/a	wordpools/wordpool_categorized_EN.txt	CALF	FarmAnimals	5	6	[0, 0, 0]	n/a	catFR1	6	R1617S
755.731	1.001	854268	WORD_OFF	n/a	n/a	CALF	FarmAnimals	5	6	[0, 0, 0]	n/a	catFR1	6	R1617S
756.732	1.615	855260	WORD	n/a	wordpools/wordpool_categorized_EN.txt	CHICKEN	FarmAnimals	6	6	[0, 0, 0]	n/a	catFR1	6	R1617S
758.347	0.767	856881	WORD_OFF	n/a	n/a	CHICKEN	FarmAnimals	6	6	[0, 0, 0]	n/a	catFR1	6	R1617S
759.114	1.6	857647	WORD	n/a	wordpools/wordpool_categorized_EN.txt	BLUEBIRD	Birds	7	6	[0, 0, 0]	n/a	catFR1	6	R1617S
760.714	0.917	859248	WORD_OFF	n/a	n/a	BLUEBIRD	Birds	7	6	[0, 0, 0]	n/a	catFR1	6	R1617S
761.631	1.6	860161	WORD	n/a	wordpools/wordpool_categorized_EN.txt	CROW	Birds	8	6	[0, 0, 0]	n/a	catFR1	6	R1617S
763.231	0.849	861762	WORD_OFF	n/a	n/a	CROW	Birds	8	6	[0, 0, 0]	n/a	catFR1	6	R1617S
764.08	1.601	862607	WORD	n/a	wordpools/wordpool_categorized_EN.txt	SANDER	Tools	9	6	[0, 0, 0]	n/a	catFR1	6	R1617S
765.681	0.967	864208	WORD_OFF	n/a	n/a	SANDER	Tools	9	6	[0, 0, 0]	n/a	catFR1	6	R1617S
766.648	1.617	865180	WORD	n/a	wordpools/wordpool_categorized_EN.txt	SAW	Tools	10	6	[0, 0, 0]	n/a	catFR1	6	R1617S
768.265	0.799	866801	WORD_OFF	n/a	n/a	SAW	Tools	10	6	[0, 0, 0]	n/a	catFR1	6	R1617S
769.064	1.601	867596	WORD	n/a	wordpools/wordpool_categorized_EN.txt	ROOSTER	FarmAnimals	11	6	[0, 0, 0]	n/a	catFR1	6	R1617S
770.665	0.817	869197	WORD_OFF	n/a	n/a	ROOSTER	FarmAnimals	11	6	[0, 0, 0]	n/a	catFR1	6	R1617S
771.482	1.616	870012	WORD	n/a	wordpools/wordpool_categorized_EN.txt	GOAT	FarmAnimals	12	6	[0, 0, 0]	n/a	catFR1	6	R1617S
773.098	0.0	871630	PROB	5.9	n/a	n/a	n/a	-999	6	[3, 2, 3]	8.0	catFR1	6	R1617S
773.097	0.004	871633	WORD_OFF	n/a	n/a	GOAT	FarmAnimals	12	6	[0, 0, 0]	n/a	catFR1	6	R1617S
773.101	0.0	871633	ENCODING_END	n/a	n/a	n/a	n/a	-999	6	[0, 0, 0]	n/a	catFR1	6	R1617S
773.101	0.0	871633	DISTRACT_START	n/a	n/a	n/a	n/a	-999	6	[0, 0, 0]	n/a	catFR1	6	R1617S
773.101	5.914	871633	START	n/a	n/a	n/a	n/a	-999	6	[-999, -999, -999]	n/a	catFR1	6	R1617S
779.015	5.033	877546	PROB	5.016	n/a	n/a	n/a	-999	6	[2, 1, 5]	8.0	catFR1	6	R1617S
784.048	6.983	882579	PROB	6.966	n/a	n/a	n/a	-999	6	[3, 2, 8]	13.0	catFR1	6	R1617S
791.031	5.433	889562	PROB	5.417	n/a	n/a	n/a	-999	6	[3, 3, 1]	7.0	catFR1	6	R1617S
796.464	0.0	894989	DISTRACT_END	n/a	n/a	n/a	n/a	-999	6	[0, 0, 0]	n/a	catFR1	6	R1617S
796.464	2.167	894995	STOP	n/a	n/a	n/a	n/a	-999	6	[-999, -999, -999]	n/a	catFR1	6	R1617S
798.631	1.884	897158	REC_START	n/a	n/a	n/a	n/a	-999	6	[0, 0, 0]	n/a	catFR1	6	R1617S
800.515	2.234	899045	REC_WORD_VV	1.884	n/a	<>	n/a	-999	6	[0, 0, 0]	n/a	catFR1	6	R1617S
802.749	1.585	901279	REC_WORD	4.118	n/a	SANDER	Tools	9	6	[0, 0, 0]	n/a	catFR1	6	R1617S
804.334	3.399	902864	REC_WORD	5.703	n/a	SAW	Tools	10	6	[0, 0, 0]	n/a	catFR1	6	R1617S
807.733	3.333	906263	REC_WORD_VV	9.102	n/a	<>	n/a	-999	6	[0, 0, 0]	n/a	catFR1	6	R1617S
811.066	5.923	909596	REC_WORD	12.435	n/a	AXE	Tools	4	6	[0, 0, 0]	n/a	catFR1	6	R1617S
816.989	10.259	915519	REC_WORD_VV	18.358	n/a	<>	n/a	-999	6	[0, 0, 0]	n/a	catFR1	6	R1617S
827.248	1.598	925777	REC_WORD	28.617	n/a	BLUEBERRY	Fruit	-999	6	[0, 0, 0]	n/a	catFR1	6	R1617S
828.846	24.818	927372	REC_END	n/a	n/a	n/a	n/a	-999	6	[0, 0, 0]	n/a	catFR1	6	R1617S
853.664	10.35	952191	COUNTDOWN_START	n/a	n/a	n/a	n/a	-999	7	[0, 0, 0]	n/a	catFR1	6	R1617S
864.014	0.0	962543	COUNTDOWN_END	n/a	n/a	n/a	n/a	-999	7	[0, 0, 0]	n/a	catFR1	6	R1617S
864.014	2.151	962543	ENCODING_START	n/a	n/a	n/a	n/a	-999	7	[0, 0, 0]	n/a	catFR1	6	R1617S
866.165	1.615	964694	WORD	n/a	wordpools/wordpool_categorized_EN.txt	HURRICANE	Weather	1	7	[0, 0, 0]	n/a	catFR1	6	R1617S
867.78	0.801	966305	WORD_OFF	n/a	n/a	HURRICANE	Weather	1	7	[0, 0, 0]	n/a	catFR1	6	R1617S
868.581	1.616	967110	WORD	n/a	wordpools/wordpool_categorized_EN.txt	LIGHTNING	Weather	2	7	[0, 0, 0]	n/a	catFR1	6	R1617S
870.197	0.967	968721	WORD_OFF	n/a	n/a	LIGHTNING	Weather	2	7	[0, 0, 0]	n/a	catFR1	6	R1617S
871.164	1.601	969694	WORD	n/a	wordpools/wordpool_categorized_EN.txt	WRENCH	Tools	3	7	[0, 0, 0]	n/a	catFR1	6	R1617S
872.765	0.783	971295	WORD_OFF	n/a	n/a	WRENCH	Tools	3	7	[0, 0, 0]	n/a	catFR1	6	R1617S
873.548	1.6	972070	WORD	n/a	wordpools/wordpool_categorized_EN.txt	CROWBAR	Tools	4	7	[0, 0, 0]	n/a	catFR1	6	R1617S
875.148	0.9	973671	WORD_OFF	n/a	n/a	CROWBAR	Tools	4	7	[0, 0, 0]	n/a	catFR1	6	R1617S
876.048	1.616	974575	WORD	n/a	wordpools/wordpool_categorized_EN.txt	JEANS	Clothing	5	7	[0, 0, 0]	n/a	catFR1	6	R1617S
877.664	0.901	976186	WORD_OFF	n/a	n/a	JEANS	Clothing	5	7	[0, 0, 0]	n/a	catFR1	6	R1617S
878.565	1.616	977089	WORD	n/a	wordpools/wordpool_categorized_EN.txt	UNDERWEAR	Clothing	6	7	[0, 0, 0]	n/a	catFR1	6	R1617S
880.181	0.983	978710	WORD_OFF	n/a	n/a	UNDERWEAR	Clothing	6	7	[0, 0, 0]	n/a	catFR1	6	R1617S
881.164	1.6	979692	WORD	n/a	wordpools/wordpool_categorized_EN.txt	TORNADO	Weather	7	7	[0, 0, 0]	n/a	catFR1	6	R1617S
882.764	0.767	981293	WORD_OFF	n/a	n/a	TORNADO	Weather	7	7	[0, 0, 0]	n/a	catFR1	6	R1617S
883.531	1.601	982059	WORD	n/a	wordpools/wordpool_categorized_EN.txt	RAIN	Weather	8	7	[0, 0, 0]	n/a	catFR1	6	R1617S
885.132	0.982	983660	WORD_OFF	n/a	n/a	RAIN	Weather	8	7	[0, 0, 0]	n/a	catFR1	6	R1617S
886.114	1.601	984642	WORD	n/a	wordpools/wordpool_categorized_EN.txt	SKIRT	Clothing	9	7	[0, 0, 0]	n/a	catFR1	6	R1617S
887.715	0.967	986243	WORD_OFF	n/a	n/a	SKIRT	Clothing	9	7	[0, 0, 0]	n/a	catFR1	6	R1617S
888.682	1.6	987206	WORD	n/a	wordpools/wordpool_categorized_EN.txt	JACKET	Clothing	10	7	[0, 0, 0]	n/a	catFR1	6	R1617S
890.282	0.783	988807	WORD_OFF	n/a	n/a	JACKET	Clothing	10	7	[0, 0, 0]	n/a	catFR1	6	R1617S
891.065	1.616	989593	WORD	n/a	wordpools/wordpool_categorized_EN.txt	SCREWDRIVER	Tools	11	7	[0, 0, 0]	n/a	catFR1	6	R1617S
892.681	0.783	991203	WORD_OFF	n/a	n/a	SCREWDRIVER	Tools	11	7	[0, 0, 0]	n/a	catFR1	6	R1617S
893.464	1.601	991989	WORD	n/a	wordpools/wordpool_categorized_EN.txt	PLIERS	Tools	12	7	[0, 0, 0]	n/a	catFR1	6	R1617S
895.065	0.001	993590	WORD_OFF	n/a	n/a	PLIERS	Tools	12	7	[0, 0, 0]	n/a	catFR1	6	R1617S
895.066	0.0	993590	ENCODING_END	n/a	n/a	n/a	n/a	-999	7	[0, 0, 0]	n/a	catFR1	6	R1617S
895.066	0.0	993590	DISTRACT_START	n/a	n/a	n/a	n/a	-999	7	[0, 0, 0]	n/a	catFR1	6	R1617S
895.065	0.001	993591	PROB	10.782	n/a	n/a	n/a	-999	7	[8, 8, 3]	18.0	catFR1	6	R1617S
895.066	10.799	993592	START	n/a	n/a	n/a	n/a	-999	7	[-999, -999, -999]	n/a	catFR1	6	R1617S
905.865	7.733	1004390	PROB	7.716	n/a	n/a	n/a	-999	7	[4, 6, 7]	17.0	catFR1	6	R1617S
913.598	13.767	1012123	PROB	13.749	n/a	n/a	n/a	-999	7	[8, 6, 6]	21.0	catFR1	6	R1617S
927.365	0.0	1025884	DISTRACT_END	n/a	n/a	n/a	n/a	-999	7	[0, 0, 0]	n/a	catFR1	6	R1617S
927.365	2.382	1025889	STOP	n/a	n/a	n/a	n/a	-999	7	[-999, -999, -999]	n/a	catFR1	6	R1617S
929.747	2.338	1028269	REC_START	n/a	n/a	n/a	n/a	-999	7	[0, 0, 0]	n/a	catFR1	6	R1617S
932.085	2.949	1030609	REC_WORD	2.338	n/a	JEANS	Clothing	5	7	[0, 0, 0]	n/a	catFR1	6	R1617S
935.034	1.89	1033558	REC_WORD_VV	5.287	n/a	<>	n/a	-999	7	[0, 0, 0]	n/a	catFR1	6	R1617S
936.924	2.994	1035448	REC_WORD	7.177	n/a	HURRICANE	Weather	1	7	[0, 0, 0]	n/a	catFR1	6	R1617S
939.918	4.48	1038442	REC_WORD	10.171	n/a	THUNDERSTORM	n/a	-999	7	[0, 0, 0]	n/a	catFR1	6	R1617S
944.398	9.786	1042922	REC_WORD_VV	14.651	n/a	<>	n/a	-999	7	[0, 0, 0]	n/a	catFR1	6	R1617S
954.184	5.784	1052707	REC_WORD_VV	24.437	n/a	<>	n/a	-999	7	[0, 0, 0]	n/a	catFR1	6	R1617S
959.968	28.613	1058492	REC_END	n/a	n/a	n/a	n/a	-999	7	[0, 0, 0]	n/a	catFR1	6	R1617S
988.581	10.35	1087103	COUNTDOWN_START	n/a	n/a	n/a	n/a	-999	8	[0, 0, 0]	n/a	catFR1	6	R1617S
998.931	0.0	1097455	COUNTDOWN_END	n/a	n/a	n/a	n/a	-999	8	[0, 0, 0]	n/a	catFR1	6	R1617S
998.931	1.917	1097455	ENCODING_START	n/a	n/a	n/a	n/a	-999	8	[0, 0, 0]	n/a	catFR1	6	R1617S
1000.848	1.616	1099371	WORD	n/a	wordpools/wordpool_categorized_EN.txt	COW	FarmAnimals	1	8	[0, 0, 0]	n/a	catFR1	6	R1617S
1002.464	0.851	1100991	WORD_OFF	n/a	n/a	COW	FarmAnimals	1	8	[0, 0, 0]	n/a	catFR1	6	R1617S
1003.315	1.6	1101836	WORD	n/a	wordpools/wordpool_categorized_EN.txt	LAMB	FarmAnimals	2	8	[0, 0, 0]	n/a	catFR1	6	R1617S
1004.915	0.766	1103437	WORD_OFF	n/a	n/a	LAMB	FarmAnimals	2	8	[0, 0, 0]	n/a	catFR1	6	R1617S
1005.681	1.6	1104203	WORD	n/a	wordpools/wordpool_categorized_EN.txt	LINEN	Fabric	3	8	[0, 0, 0]	n/a	catFR1	6	R1617S
1007.281	0.95	1105804	WORD_OFF	n/a	n/a	LINEN	Fabric	3	8	[0, 0, 0]	n/a	catFR1	6	R1617S
1008.231	1.6	1106747	WORD	n/a	wordpools/wordpool_categorized_EN.txt	DENIM	Fabric	4	8	[0, 0, 0]	n/a	catFR1	6	R1617S
1009.831	0.9	1108348	WORD_OFF	n/a	n/a	DENIM	Fabric	4	8	[0, 0, 0]	n/a	catFR1	6	R1617S
1010.731	1.6	1109251	WORD	n/a	wordpools/wordpool_categorized_EN.txt	STREAM	Landscapes	5	8	[0, 0, 0]	n/a	catFR1	6	R1617S
1012.331	0.917	1110852	WORD_OFF	n/a	n/a	STREAM	Landscapes	5	8	[0, 0, 0]	n/a	catFR1	6	R1617S
1013.248	1.617	1111766	WORD	n/a	wordpools/wordpool_categorized_EN.txt	CREEK	Landscapes	6	8	[0, 0, 0]	n/a	catFR1	6	R1617S
1014.865	0.949	1113386	WORD_OFF	n/a	n/a	CREEK	Landscapes	6	8	[0, 0, 0]	n/a	catFR1	6	R1617S
1015.814	1.601	1114339	WORD	n/a	wordpools/wordpool_categorized_EN.txt	SATIN	Fabric	7	8	[0, 0, 0]	n/a	catFR1	6	R1617S
1017.415	0.783	1115940	WORD_OFF	n/a	n/a	SATIN	Fabric	7	8	[0, 0, 0]	n/a	catFR1	6	R1617S
1018.198	1.6	1116716	WORD	n/a	wordpools/wordpool_categorized_EN.txt	NYLON	Fabric	8	8	[0, 0, 0]	n/a	catFR1	6	R1617S
1019.798	0.95	1118317	WORD_OFF	n/a	n/a	NYLON	Fabric	8	8	[0, 0, 0]	n/a	catFR1	6	R1617S
1020.748	1.617	1119269	WORD	n/a	wordpools/wordpool_categorized_EN.txt	RIVER	Landscapes	9	8	[0, 0, 0]	n/a	catFR1	6	R1617S
1022.365	0.866	1120880	WORD_OFF	n/a	n/a	RIVER	Landscapes	9	8	[0, 0, 0]	n/a	catFR1	6	R1617S
1023.231	1.6	1121754	WORD	n/a	wordpools/wordpool_categorized_EN.txt	ISLAND	Landscapes	10	8	[0, 0, 0]	n/a	catFR1	6	R1617S
1024.831	0.999	1123345	WORD_OFF	n/a	n/a	ISLAND	Landscapes	10	8	[0, 0, 0]	n/a	catFR1	6	R1617S
1025.83	1.601	1124347	WORD	n/a	wordpools/wordpool_categorized_EN.txt	BULL	FarmAnimals	11	8	[0, 0, 0]	n/a	catFR1	6	R1617S
1027.431	0.95	1125948	WORD_OFF	n/a	n/a	BULL	FarmAnimals	11	8	[0, 0, 0]	n/a	catFR1	6	R1617S
1028.381	1.614	1126901	WORD	n/a	wordpools/wordpool_categorized_EN.txt	TURKEY	FarmAnimals	12	8	[0, 0, 0]	n/a	catFR1	6	R1617S
1029.995	0.001	1128512	WORD_OFF	n/a	n/a	TURKEY	FarmAnimals	12	8	[0, 0, 0]	n/a	catFR1	6	R1617S
1029.996	0.0	1128512	ENCODING_END	n/a	n/a	n/a	n/a	-999	8	[0, 0, 0]	n/a	catFR1	6	R1617S
1029.996	0.0	1128512	DISTRACT_START	n/a	n/a	n/a	n/a	-999	8	[0, 0, 0]	n/a	catFR1	6	R1617S
1029.996	0.001	1128515	START	n/a	n/a	n/a	n/a	-999	8	[-999, -999, -999]	n/a	catFR1	6	R1617S
1029.997	9.085	1128516	PROB	9.068	n/a	n/a	n/a	-999	8	[8, 4, 1]	13.0	catFR1	6	R1617S
1039.082	5.382	1137601	PROB	5.365	n/a	n/a	n/a	-999	8	[5, 5, 8]	18.0	catFR1	6	R1617S
1044.464	5.184	1142983	PROB	5.167	n/a	n/a	n/a	-999	8	[1, 1, 8]	10.0	catFR1	6	R1617S
1049.648	7.55	1148166	PROB	7.533	n/a	n/a	n/a	-999	8	[8, 2, 5]	15.0	catFR1	6	R1617S
1057.198	0.0	1155716	STOP	n/a	n/a	n/a	n/a	-999	8	[-999, -999, -999]	n/a	catFR1	6	R1617S
1057.198	2.016	1155718	DISTRACT_END	n/a	n/a	n/a	n/a	-999	8	[0, 0, 0]	n/a	catFR1	6	R1617S
1059.214	1.079	1157730	REC_START	n/a	n/a	n/a	n/a	-999	8	[0, 0, 0]	n/a	catFR1	6	R1617S
1060.293	1.103	1158811	REC_WORD_VV	1.079	n/a	<>	n/a	-999	8	[0, 0, 0]	n/a	catFR1	6	R1617S
1061.396	1.03	1159914	REC_WORD	2.182	n/a	BULL	FarmAnimals	11	8	[0, 0, 0]	n/a	catFR1	6	R1617S
1062.426	1.598	1160944	REC_WORD	3.212	n/a	TURKEY	FarmAnimals	12	8	[0, 0, 0]	n/a	catFR1	6	R1617S
1064.024	1.322	1162542	REC_WORD	4.81	n/a	SHEEP	FarmAnimals	-999	8	[0, 0, 0]	n/a	catFR1	6	R1617S
1065.346	2.424	1163864	REC_WORD	6.132	n/a	NYLON	Fabric	8	8	[0, 0, 0]	n/a	catFR1	6	R1617S
1067.77	4.527	1166288	REC_WORD	8.556	n/a	LINEN	Fabric	3	8	[0, 0, 0]	n/a	catFR1	6	R1617S
1072.297	0.96	1170814	REC_WORD_VV	13.083	n/a	<>	n/a	-999	8	[0, 0, 0]	n/a	catFR1	6	R1617S
1073.257	16.184	1171774	REC_WORD	14.043	n/a	DENIM	Fabric	4	8	[0, 0, 0]	n/a	catFR1	6	R1617S
1089.441	16.757	1187953	REC_END	n/a	n/a	n/a	n/a	-999	8	[0, 0, 0]	n/a	catFR1	6	R1617S
1106.198	10.349	1204719	COUNTDOWN_START	n/a	n/a	n/a	n/a	-999	9	[0, 0, 0]	n/a	catFR1	6	R1617S
1116.547	0.001	1215061	COUNTDOWN_END	n/a	n/a	n/a	n/a	-999	9	[0, 0, 0]	n/a	catFR1	6	R1617S
1116.548	2.383	1215061	ENCODING_START	n/a	n/a	n/a	n/a	-999	9	[0, 0, 0]	n/a	catFR1	6	R1617S
1118.931	1.601	1217448	WORD	n/a	wordpools/wordpool_categorized_EN.txt	ZEBRA	Zoo	1	9	[0, 0, 0]	n/a	catFR1	6	R1617S
1120.532	0.883	1219049	WORD_OFF	n/a	n/a	ZEBRA	Zoo	1	9	[0, 0, 0]	n/a	catFR1	6	R1617S
1121.415	1.6	1219933	WORD	n/a	wordpools/wordpool_categorized_EN.txt	PANDA	Zoo	2	9	[0, 0, 0]	n/a	catFR1	6	R1617S
1123.015	0.966	1221524	WORD_OFF	n/a	n/a	PANDA	Zoo	2	9	[0, 0, 0]	n/a	catFR1	6	R1617S
1123.981	1.6	1222496	WORD	n/a	wordpools/wordpool_categorized_EN.txt	SCOOTER	Vehicles	3	9	[0, 0, 0]	n/a	catFR1	6	R1617S
1125.581	0.984	1224097	WORD_OFF	n/a	n/a	SCOOTER	Vehicles	3	9	[0, 0, 0]	n/a	catFR1	6	R1617S
1126.565	1.6	1225079	WORD	n/a	wordpools/wordpool_categorized_EN.txt	MOPED	Vehicles	4	9	[0, 0, 0]	n/a	catFR1	6	R1617S
1128.165	0.816	1226680	WORD_OFF	n/a	n/a	MOPED	Vehicles	4	9	[0, 0, 0]	n/a	catFR1	6	R1617S
1128.981	1.617	1227496	WORD	n/a	wordpools/wordpool_categorized_EN.txt	GOOSE	Birds	5	9	[0, 0, 0]	n/a	catFR1	6	R1617S
1130.598	0.899	1229116	WORD_OFF	n/a	n/a	GOOSE	Birds	5	9	[0, 0, 0]	n/a	catFR1	6	R1617S
1131.497	1.6	1230010	WORD	n/a	wordpools/wordpool_categorized_EN.txt	SPARROW	Birds	6	9	[0, 0, 0]	n/a	catFR1	6	R1617S
1133.097	0.867	1231611	WORD_OFF	n/a	n/a	SPARROW	Birds	6	9	[0, 0, 0]	n/a	catFR1	6	R1617S
1133.964	1.601	1232475	WORD	n/a	wordpools/wordpool_categorized_EN.txt	TIGER	Zoo	7	9	[0, 0, 0]	n/a	catFR1	6	R1617S
1135.565	0.866	1234076	WORD_OFF	n/a	n/a	TIGER	Zoo	7	9	[0, 0, 0]	n/a	catFR1	6	R1617S
1136.431	1.6	1234940	WORD	n/a	wordpools/wordpool_categorized_EN.txt	MONKEY	Zoo	8	9	[0, 0, 0]	n/a	catFR1	6	R1617S
1138.031	0.867	1236541	WORD_OFF	n/a	n/a	MONKEY	Zoo	8	9	[0, 0, 0]	n/a	catFR1	6	R1617S
1138.898	1.6	1237416	WORD	n/a	wordpools/wordpool_categorized_EN.txt	JEEP	Vehicles	9	9	[0, 0, 0]	n/a	catFR1	6	R1617S
1140.498	0.783	1239007	WORD_OFF	n/a	n/a	JEEP	Vehicles	9	9	[0, 0, 0]	n/a	catFR1	6	R1617S
1141.281	1.6	1239792	WORD	n/a	wordpools/wordpool_categorized_EN.txt	MOTORCYCLE	Vehicles	10	9	[0, 0, 0]	n/a	catFR1	6	R1617S
1142.881	0.917	1241393	WORD_OFF	n/a	n/a	MOTORCYCLE	Vehicles	10	9	[0, 0, 0]	n/a	catFR1	6	R1617S
1143.798	1.6	1242307	WORD	n/a	wordpools/wordpool_categorized_EN.txt	PIGEON	Birds	11	9	[0, 0, 0]	n/a	catFR1	6	R1617S
1145.398	0.849	1243908	WORD_OFF	n/a	n/a	PIGEON	Birds	11	9	[0, 0, 0]	n/a	catFR1	6	R1617S
1146.247	1.601	1244762	WORD	n/a	wordpools/wordpool_categorized_EN.txt	CARDINAL	Birds	12	9	[0, 0, 0]	n/a	catFR1	6	R1617S
1147.848	0.0	1246362	PROB	4.484	n/a	n/a	n/a	-999	9	[1, 7, 1]	9.0	catFR1	6	R1617S
1147.847	0.002	1246363	WORD_OFF	n/a	n/a	CARDINAL	Birds	12	9	[0, 0, 0]	n/a	catFR1	6	R1617S
1147.849	0.0	1246363	ENCODING_END	n/a	n/a	n/a	n/a	-999	9	[0, 0, 0]	n/a	catFR1	6	R1617S
1147.849	0.0	1246363	DISTRACT_START	n/a	n/a	n/a	n/a	-999	9	[0, 0, 0]	n/a	catFR1	6	R1617S
1147.849	4.5	1246363	START	n/a	n/a	n/a	n/a	-999	9	[-999, -999, -999]	n/a	catFR1	6	R1617S
1152.349	5.384	1250862	PROB	5.366	n/a	n/a	n/a	-999	9	[6, 3, 8]	17.0	catFR1	6	R1617S
1157.733	5.098	1256246	PROB	5.083	n/a	n/a	n/a	-999	9	[4, 2, 7]	13.0	catFR1	6	R1617S
1162.831	4.984	1261344	PROB	4.966	n/a	n/a	n/a	-999	9	[3, 3, 5]	13.0	catFR1	6	R1617S
1167.815	11.566	1266328	PROB	11.55	n/a	n/a	n/a	-999	9	[8, 8, 7]	32.0	catFR1	6	R1617S
1179.381	0.0	1277891	DISTRACT_END	n/a	n/a	n/a	n/a	-999	9	[0, 0, 0]	n/a	catFR1	6	R1617S
1179.381	2.05	1277893	STOP	n/a	n/a	n/a	n/a	-999	9	[-999, -999, -999]	n/a	catFR1	6	R1617S
1181.431	1.133	1279942	REC_START	n/a	n/a	n/a	n/a	-999	9	[0, 0, 0]	n/a	catFR1	6	R1617S
1182.564	2.369	1281076	REC_WORD_VV	1.133	n/a	<>	n/a	-999	9	[0, 0, 0]	n/a	catFR1	6	R1617S
1184.933	2.79	1283445	REC_WORD	3.502	n/a	PANDA	Zoo	2	9	[0, 0, 0]	n/a	catFR1	6	R1617S
1187.723	0.798	1286235	REC_WORD_VV	6.292	n/a	<>	n/a	-999	9	[0, 0, 0]	n/a	catFR1	6	R1617S
1188.521	4.112	1287033	REC_WORD	7.09	n/a	ZEBRA	Zoo	1	9	[0, 0, 0]	n/a	catFR1	6	R1617S
1192.633	10.473	1291145	REC_WORD_VV	11.202	n/a	<>	n/a	-999	9	[0, 0, 0]	n/a	catFR1	6	R1617S
1203.106	8.585	1301617	REC_WORD	21.675	n/a	ZEBRA	Zoo	1	9	[0, 0, 0]	n/a	catFR1	6	R1617S
1211.691	6.357	1310205	REC_END	n/a	n/a	n/a	n/a	-999	9	[0, 0, 0]	n/a	catFR1	6	R1617S
1218.048	10.349	1316559	COUNTDOWN_START	n/a	n/a	n/a	n/a	-999	10	[0, 0, 0]	n/a	catFR1	6	R1617S
1228.397	0.0	1326902	COUNTDOWN_END	n/a	n/a	n/a	n/a	-999	10	[0, 0, 0]	n/a	catFR1	6	R1617S
1228.397	2.017	1326912	ENCODING_START	n/a	n/a	n/a	n/a	-999	10	[0, 0, 0]	n/a	catFR1	6	R1617S
1230.414	1.6	1328925	WORD	n/a	wordpools/wordpool_categorized_EN.txt	ORGAN	Instruments	1	10	[0, 0, 0]	n/a	catFR1	6	R1617S
1232.014	0.967	1330526	WORD_OFF	n/a	n/a	ORGAN	Instruments	1	10	[0, 0, 0]	n/a	catFR1	6	R1617S
1232.981	1.617	1331489	WORD	n/a	wordpools/wordpool_categorized_EN.txt	CELLO	Instruments	2	10	[0, 0, 0]	n/a	catFR1	6	R1617S
1234.598	0.967	1333109	WORD_OFF	n/a	n/a	CELLO	Instruments	2	10	[0, 0, 0]	n/a	catFR1	6	R1617S
1235.565	1.616	1334072	WORD	n/a	wordpools/wordpool_categorized_EN.txt	ELEPHANT	Zoo	3	10	[0, 0, 0]	n/a	catFR1	6	R1617S
1237.181	1.0	1335692	WORD_OFF	n/a	n/a	ELEPHANT	Zoo	3	10	[0, 0, 0]	n/a	catFR1	6	R1617S
1238.181	1.616	1336694	WORD	n/a	wordpools/wordpool_categorized_EN.txt	ORANGUTAN	Zoo	4	10	[0, 0, 0]	n/a	catFR1	6	R1617S
1239.797	0.785	1338305	WORD_OFF	n/a	n/a	ORANGUTAN	Zoo	4	10	[0, 0, 0]	n/a	catFR1	6	R1617S
1240.582	1.616	1339091	WORD	n/a	wordpools/wordpool_categorized_EN.txt	FOUNDATION	Building	5	10	[0, 0, 0]	n/a	catFR1	6	R1617S
1242.198	0.967	1340701	WORD_OFF	n/a	n/a	FOUNDATION	Building	5	10	[0, 0, 0]	n/a	catFR1	6	R1617S
1243.165	1.616	1341674	WORD	n/a	wordpools/wordpool_categorized_EN.txt	FLOOR	Building	6	10	[0, 0, 0]	n/a	catFR1	6	R1617S
1244.781	0.917	1343284	WORD_OFF	n/a	n/a	FLOOR	Building	6	10	[0, 0, 0]	n/a	catFR1	6	R1617S
1245.698	1.6	1344208	WORD	n/a	wordpools/wordpool_categorized_EN.txt	CHEETAH	Zoo	7	10	[0, 0, 0]	n/a	catFR1	6	R1617S
1247.298	0.767	1345809	WORD_OFF	n/a	n/a	CHEETAH	Zoo	7	10	[0, 0, 0]	n/a	catFR1	6	R1617S
1248.065	1.6	1346575	WORD	n/a	wordpools/wordpool_categorized_EN.txt	CHIMPANZEE	Zoo	8	10	[0, 0, 0]	n/a	catFR1	6	R1617S
1249.665	0.833	1348176	WORD_OFF	n/a	n/a	CHIMPANZEE	Zoo	8	10	[0, 0, 0]	n/a	catFR1	6	R1617S
1250.498	1.616	1349001	WORD	n/a	wordpools/wordpool_categorized_EN.txt	WALL	Building	9	10	[0, 0, 0]	n/a	catFR1	6	R1617S
1252.114	0.9	1350621	WORD_OFF	n/a	n/a	WALL	Building	9	10	[0, 0, 0]	n/a	catFR1	6	R1617S
1253.014	1.601	1351525	WORD	n/a	wordpools/wordpool_categorized_EN.txt	HALLWAY	Building	10	10	[0, 0, 0]	n/a	catFR1	6	R1617S
1254.615	0.766	1353126	WORD_OFF	n/a	n/a	HALLWAY	Building	10	10	[0, 0, 0]	n/a	catFR1	6	R1617S
1255.381	1.617	1353892	WORD	n/a	wordpools/wordpool_categorized_EN.txt	PIANO	Instruments	11	10	[0, 0, 0]	n/a	catFR1	6	R1617S
1256.998	0.95	1355503	WORD_OFF	n/a	n/a	PIANO	Instruments	11	10	[0, 0, 0]	n/a	catFR1	6	R1617S
1257.948	1.6	1356456	WORD	n/a	wordpools/wordpool_categorized_EN.txt	DRUM	Instruments	12	10	[0, 0, 0]	n/a	catFR1	6	R1617S
1259.548	0.003	1358056	WORD_OFF	n/a	n/a	DRUM	Instruments	12	10	[0, 0, 0]	n/a	catFR1	6	R1617S
1259.551	0.0	1358056	ENCODING_END	n/a	n/a	n/a	n/a	-999	10	[0, 0, 0]	n/a	catFR1	6	R1617S
1259.551	0.0	1358056	DISTRACT_START	n/a	n/a	n/a	n/a	-999	10	[0, 0, 0]	n/a	catFR1	6	R1617S
1259.548	0.003	1358056	PROB	7.2	n/a	n/a	n/a	-999	10	[2, 8, 5]	15.0	catFR1	6	R1617S
1259.551	7.213	1358059	START	n/a	n/a	n/a	n/a	-999	10	[-999, -999, -999]	n/a	catFR1	6	R1617S
1266.764	11.701	1365272	PROB	11.684	n/a	n/a	n/a	-999	10	[4, 5, 6]	15.0	catFR1	6	R1617S
1278.465	7.7	1376972	PROB	7.683	n/a	n/a	n/a	-999	10	[3, 2, 2]	7.0	catFR1	6	R1617S
1286.165	0.0	1384672	STOP	n/a	n/a	n/a	n/a	-999	10	[-999, -999, -999]	n/a	catFR1	6	R1617S
1286.165	2.065	1384673	DISTRACT_END	n/a	n/a	n/a	n/a	-999	10	[0, 0, 0]	n/a	catFR1	6	R1617S
1288.23	2.659	1386734	REC_START	n/a	n/a	n/a	n/a	-999	10	[0, 0, 0]	n/a	catFR1	6	R1617S
1290.889	3.053	1389396	REC_WORD	2.659	n/a	CHIMPANZEE	Zoo	8	10	[0, 0, 0]	n/a	catFR1	6	R1617S
1293.942	3.976	1392449	REC_WORD_VV	5.712	n/a	<>	n/a	-999	10	[0, 0, 0]	n/a	catFR1	6	R1617S
1297.918	4.564	1396425	REC_WORD_VV	9.688	n/a	<>	n/a	-999	10	[0, 0, 0]	n/a	catFR1	6	R1617S
1302.482	10.273	1400988	REC_WORD	14.252	n/a	GORILLA	Zoo	-999	10	[0, 0, 0]	n/a	catFR1	6	R1617S
1312.755	2.192	1411261	REC_WORD_VV	24.525	n/a	<>	n/a	-999	10	[0, 0, 0]	n/a	catFR1	6	R1617S
1314.947	2.267	1413453	REC_WORD_VV	26.717	n/a	<>	n/a	-999	10	[0, 0, 0]	n/a	catFR1	6	R1617S
1317.214	1.245	1415720	REC_WORD_VV	28.984	n/a	<>	n/a	-999	10	[0, 0, 0]	n/a	catFR1	6	R1617S
1318.459	25.573	1416967	REC_END	n/a	n/a	n/a	n/a	-999	10	[0, 0, 0]	n/a	catFR1	6	R1617S
1344.032	10.35	1442534	COUNTDOWN_START	n/a	n/a	n/a	n/a	-999	11	[0, 0, 0]	n/a	catFR1	6	R1617S
1354.382	0.0	1452886	COUNTDOWN_END	n/a	n/a	n/a	n/a	-999	11	[0, 0, 0]	n/a	catFR1	6	R1617S
1354.382	2.1	1452886	ENCODING_START	n/a	n/a	n/a	n/a	-999	11	[0, 0, 0]	n/a	catFR1	6	R1617S
1356.482	1.616	1454988	WORD	n/a	wordpools/wordpool_categorized_EN.txt	SPANDEX	Fabric	1	11	[0, 0, 0]	n/a	catFR1	6	R1617S
1358.098	0.9	1456598	WORD_OFF	n/a	n/a	SPANDEX	Fabric	1	11	[0, 0, 0]	n/a	catFR1	6	R1617S
1358.998	1.6	1457502	WORD	n/a	wordpools/wordpool_categorized_EN.txt	SILK	Fabric	2	11	[0, 0, 0]	n/a	catFR1	6	R1617S
1360.598	0.883	1459103	WORD_OFF	n/a	n/a	SILK	Fabric	2	11	[0, 0, 0]	n/a	catFR1	6	R1617S
1361.481	1.6	1459987	WORD	n/a	wordpools/wordpool_categorized_EN.txt	ROOF	Building	3	11	[0, 0, 0]	n/a	catFR1	6	R1617S
1363.081	0.934	1461588	WORD_OFF	n/a	n/a	ROOF	Building	3	11	[0, 0, 0]	n/a	catFR1	6	R1617S
1364.015	1.615	1462521	WORD	n/a	wordpools/wordpool_categorized_EN.txt	CEILING	Building	4	11	[0, 0, 0]	n/a	catFR1	6	R1617S
1365.63	0.784	1464132	WORD_OFF	n/a	n/a	CEILING	Building	4	11	[0, 0, 0]	n/a	catFR1	6	R1617S
1366.414	1.601	1464917	WORD	n/a	wordpools/wordpool_categorized_EN.txt	SCANNER	Electronics	5	11	[0, 0, 0]	n/a	catFR1	6	R1617S
1368.015	0.783	1466518	WORD_OFF	n/a	n/a	SCANNER	Electronics	5	11	[0, 0, 0]	n/a	catFR1	6	R1617S
1368.798	1.617	1467304	WORD	n/a	wordpools/wordpool_categorized_EN.txt	TABLET	Electronics	6	11	[0, 0, 0]	n/a	catFR1	6	R1617S
1370.415	0.9	1468915	WORD_OFF	n/a	n/a	TABLET	Electronics	6	11	[0, 0, 0]	n/a	catFR1	6	R1617S
1371.315	1.616	1469818	WORD	n/a	wordpools/wordpool_categorized_EN.txt	ATTIC	Building	7	11	[0, 0, 0]	n/a	catFR1	6	R1617S
1372.931	0.934	1471429	WORD_OFF	n/a	n/a	ATTIC	Building	7	11	[0, 0, 0]	n/a	catFR1	6	R1617S
1373.865	1.615	1472362	WORD	n/a	wordpools/wordpool_categorized_EN.txt	DOOR	Building	8	11	[0, 0, 0]	n/a	catFR1	6	R1617S
1375.48	0.768	1473983	WORD_OFF	n/a	n/a	DOOR	Building	8	11	[0, 0, 0]	n/a	catFR1	6	R1617S
1376.248	1.599	1474749	WORD	n/a	wordpools/wordpool_categorized_EN.txt	FLEECE	Fabric	9	11	[0, 0, 0]	n/a	catFR1	6	R1617S
1377.847	0.918	1476350	WORD_OFF	n/a	n/a	FLEECE	Fabric	9	11	[0, 0, 0]	n/a	catFR1	6	R1617S
1378.765	1.616	1477263	WORD	n/a	wordpools/wordpool_categorized_EN.txt	WOOL	Fabric	10	11	[0, 0, 0]	n/a	catFR1	6	R1617S
1380.381	0.934	1478884	WORD_OFF	n/a	n/a	WOOL	Fabric	10	11	[0, 0, 0]	n/a	catFR1	6	R1617S
1381.315	1.6	1479817	WORD	n/a	wordpools/wordpool_categorized_EN.txt	HEADPHONES	Electronics	11	11	[0, 0, 0]	n/a	catFR1	6	R1617S
1382.915	0.816	1481418	WORD_OFF	n/a	n/a	HEADPHONES	Electronics	11	11	[0, 0, 0]	n/a	catFR1	6	R1617S
1383.731	1.616	1482233	WORD	n/a	wordpools/wordpool_categorized_EN.txt	MICROWAVE	Electronics	12	11	[0, 0, 0]	n/a	catFR1	6	R1617S
1385.347	0.001	1483844	WORD_OFF	n/a	n/a	MICROWAVE	Electronics	12	11	[0, 0, 0]	n/a	catFR1	6	R1617S
1385.348	0.001	1483850	PROB	7.35	n/a	n/a	n/a	-999	11	[1, 1, 5]	7.0	catFR1	6	R1617S
1385.349	0.0	1483851	START	n/a	n/a	n/a	n/a	-999	11	[-999, -999, -999]	n/a	catFR1	6	R1617S
1385.349	0.0	1483854	ENCODING_END	n/a	n/a	n/a	n/a	-999	11	[0, 0, 0]	n/a	catFR1	6	R1617S
1385.349	7.366	1483854	DISTRACT_START	n/a	n/a	n/a	n/a	-999	11	[0, 0, 0]	n/a	catFR1	6	R1617S
1392.715	9.183	1491217	PROB	9.165	n/a	n/a	n/a	-999	11	[7, 5, 7]	21.0	catFR1	6	R1617S
1401.898	11.682	1500400	PROB	11.666	n/a	n/a	n/a	-999	11	[3, 6, 7]	6.0	catFR1	6	R1617S
1413.58	0.0	1512081	STOP	n/a	n/a	n/a	n/a	-999	11	[-999, -999, -999]	n/a	catFR1	6	R1617S
1413.58	2.367	1512082	DISTRACT_END	n/a	n/a	n/a	n/a	-999	11	[0, 0, 0]	n/a	catFR1	6	R1617S
1415.947	0.55	1514447	REC_START	n/a	n/a	n/a	n/a	-999	11	[0, 0, 0]	n/a	catFR1	6	R1617S
1416.497	2.64	1514998	REC_WORD_VV	0.55	n/a	<>	n/a	-999	11	[0, 0, 0]	n/a	catFR1	6	R1617S
1419.137	27.036	1517638	REC_WORD_VV	3.19	n/a	<>	n/a	-999	11	[0, 0, 0]	n/a	catFR1	6	R1617S
1446.173	14.958	1544670	REC_END	n/a	n/a	n/a	n/a	-999	11	[0, 0, 0]	n/a	catFR1	6	R1617S
1461.131	10.35	1559629	COUNTDOWN_START	n/a	n/a	n/a	n/a	-999	12	[0, 0, 0]	n/a	catFR1	6	R1617S
1471.481	0.0	1569981	COUNTDOWN_END	n/a	n/a	n/a	n/a	-999	12	[0, 0, 0]	n/a	catFR1	6	R1617S
1471.481	2.215	1569981	ENCODING_START	n/a	n/a	n/a	n/a	-999	12	[0, 0, 0]	n/a	catFR1	6	R1617S
1473.696	1.602	1572191	WORD	n/a	wordpools/wordpool_categorized_EN.txt	GUITAR	Instruments	1	12	[0, 0, 0]	n/a	catFR1	6	R1617S
1475.298	0.833	1573792	WORD_OFF	n/a	n/a	GUITAR	Instruments	1	12	[0, 0, 0]	n/a	catFR1	6	R1617S
1476.131	1.6	1574627	WORD	n/a	wordpools/wordpool_categorized_EN.txt	TROMBONE	Instruments	2	12	[0, 0, 0]	n/a	catFR1	6	R1617S
1477.731	0.967	1576228	WORD_OFF	n/a	n/a	TROMBONE	Instruments	2	12	[0, 0, 0]	n/a	catFR1	6	R1617S
1478.698	1.616	1577200	WORD	n/a	wordpools/wordpool_categorized_EN.txt	JUICE	Beverages	3	12	[0, 0, 0]	n/a	catFR1	6	R1617S
1480.314	0.951	1578811	WORD_OFF	n/a	n/a	JUICE	Beverages	3	12	[0, 0, 0]	n/a	catFR1	6	R1617S
1481.265	1.616	1579763	WORD	n/a	wordpools/wordpool_categorized_EN.txt	WINE	Beverages	4	12	[0, 0, 0]	n/a	catFR1	6	R1617S
1482.881	0.783	1581374	WORD_OFF	n/a	n/a	WINE	Beverages	4	12	[0, 0, 0]	n/a	catFR1	6	R1617S
1483.664	1.6	1582160	WORD	n/a	wordpools/wordpool_categorized_EN.txt	DRIZZLE	Weather	5	12	[0, 0, 0]	n/a	catFR1	6	R1617S
1485.264	0.9	1583761	WORD_OFF	n/a	n/a	DRIZZLE	Weather	5	12	[0, 0, 0]	n/a	catFR1	6	R1617S
1486.164	1.601	1584664	WORD	n/a	wordpools/wordpool_categorized_EN.txt	CLOUD	Weather	6	12	[0, 0, 0]	n/a	catFR1	6	R1617S
1487.765	0.966	1586265	WORD_OFF	n/a	n/a	CLOUD	Weather	6	12	[0, 0, 0]	n/a	catFR1	6	R1617S
1488.731	1.6	1587228	WORD	n/a	wordpools/wordpool_categorized_EN.txt	VIOLIN	Instruments	7	12	[0, 0, 0]	n/a	catFR1	6	R1617S
1490.331	1.0	1588829	WORD_OFF	n/a	n/a	VIOLIN	Instruments	7	12	[0, 0, 0]	n/a	catFR1	6	R1617S
1491.331	1.6	1589831	WORD	n/a	wordpools/wordpool_categorized_EN.txt	TRUMPET	Instruments	8	12	[0, 0, 0]	n/a	catFR1	6	R1617S
1492.931	0.784	1591432	WORD_OFF	n/a	n/a	TRUMPET	Instruments	8	12	[0, 0, 0]	n/a	catFR1	6	R1617S
1493.715	1.615	1592208	WORD	n/a	wordpools/wordpool_categorized_EN.txt	LEMONADE	Beverages	9	12	[0, 0, 0]	n/a	catFR1	6	R1617S
1495.33	0.785	1593828	WORD_OFF	n/a	n/a	LEMONADE	Beverages	9	12	[0, 0, 0]	n/a	catFR1	6	R1617S
1496.115	1.616	1594614	WORD	n/a	wordpools/wordpool_categorized_EN.txt	TEA	Beverages	10	12	[0, 0, 0]	n/a	catFR1	6	R1617S
1497.731	0.9	1596225	WORD_OFF	n/a	n/a	TEA	Beverages	10	12	[0, 0, 0]	n/a	catFR1	6	R1617S
1498.631	1.6	1597128	WORD	n/a	wordpools/wordpool_categorized_EN.txt	WIND	Weather	11	12	[0, 0, 0]	n/a	catFR1	6	R1617S
1500.231	0.867	1598729	WORD_OFF	n/a	n/a	WIND	Weather	11	12	[0, 0, 0]	n/a	catFR1	6	R1617S
1501.098	1.617	1599594	WORD	n/a	wordpools/wordpool_categorized_EN.txt	THUNDER	Weather	12	12	[0, 0, 0]	n/a	catFR1	6	R1617S
1502.715	0.0	1601212	PROB	11.467	n/a	n/a	n/a	-999	12	[3, 1, 2]	6.0	catFR1	6	R1617S
1502.714	0.003	1601214	WORD_OFF	n/a	n/a	THUNDER	Weather	12	12	[0, 0, 0]	n/a	catFR1	6	R1617S
1502.717	0.0	1601214	ENCODING_END	n/a	n/a	n/a	n/a	-999	12	[0, 0, 0]	n/a	catFR1	6	R1617S
1502.717	0.0	1601214	START	n/a	n/a	n/a	n/a	-999	12	[-999, -999, -999]	n/a	catFR1	6	R1617S
1502.717	11.481	1601224	DISTRACT_START	n/a	n/a	n/a	n/a	-999	12	[0, 0, 0]	n/a	catFR1	6	R1617S
1514.198	7.983	1612694	PROB	7.966	n/a	n/a	n/a	-999	12	[1, 2, 3]	6.0	catFR1	6	R1617S
1522.181	4.834	1620677	PROB	4.817	n/a	n/a	n/a	-999	12	[6, 5, 1]	12.0	catFR1	6	R1617S
1527.015	0.0	1625510	STOP	n/a	n/a	n/a	n/a	-999	12	[-999, -999, -999]	n/a	catFR1	6	R1617S
1527.015	2.383	1625513	DISTRACT_END	n/a	n/a	n/a	n/a	-999	12	[0, 0, 0]	n/a	catFR1	6	R1617S
1529.398	0.084	1627888	REC_START	n/a	n/a	n/a	n/a	-999	12	[0, 0, 0]	n/a	catFR1	6	R1617S
1529.482	1.184	1627977	REC_WORD_VV	0.084	n/a	<>	n/a	-999	12	[0, 0, 0]	n/a	catFR1	6	R1617S
1530.666	1.048	1629161	REC_WORD	1.268	n/a	GUITAR	Instruments	1	12	[0, 0, 0]	n/a	catFR1	6	R1617S
1531.714	3.381	1630209	REC_WORD	2.316	n/a	TROMBONE	Instruments	2	12	[0, 0, 0]	n/a	catFR1	6	R1617S
1535.095	2.002	1633590	REC_WORD_VV	5.697	n/a	<>	n/a	-999	12	[0, 0, 0]	n/a	catFR1	6	R1617S
1537.097	6.021	1635592	REC_WORD_VV	7.699	n/a	<>	n/a	-999	12	[0, 0, 0]	n/a	catFR1	6	R1617S
1543.118	2.077	1641613	REC_WORD_VV	13.72	n/a	<>	n/a	-999	12	[0, 0, 0]	n/a	catFR1	6	R1617S
1545.195	0.368	1643690	REC_WORD_VV	15.797	n/a	<>	n/a	-999	12	[0, 0, 0]	n/a	catFR1	6	R1617S
1545.563	1.761	1644058	REC_WORD	16.165	n/a	RAIN	Weather	-999	12	[0, 0, 0]	n/a	catFR1	6	R1617S
1547.324	6.878	1645819	REC_WORD	17.926	n/a	THUNDERSTORM	n/a	-999	12	[0, 0, 0]	n/a	catFR1	6	R1617S
1554.202	5.421	1652696	REC_WORD_VV	24.804	n/a	<>	n/a	-999	12	[0, 0, 0]	n/a	catFR1	6	R1617S
1559.623	0.0	1658112	REC_END	n/a	n/a	n/a	n/a	-999	12	[0, 0, 0]	n/a	catFR1	6	R1617S
