onset	duration	sample	trial_type	response_time	stim_file	item_name	category	serialpos	list	test	answer	experiment	session	subject
0.0	161.726	550344	INSTRUCT_START	n/a	n/a	n/a	n/a	-999	-999	[0, 0, 0]	n/a	catFR1	0	R1398J
161.726	210.524	712057	INSTRUCT_END	n/a	n/a	n/a	n/a	-999	-999	[0, 0, 0]	n/a	catFR1	0	R1398J
372.25	10.362	922576	COUNTDOWN_START	n/a	n/a	n/a	n/a	-999	-999	[0, 0, 0]	n/a	catFR1	0	R1398J
382.612	0.0	932934	COUNTDOWN_END	n/a	n/a	n/a	n/a	-999	-999	[0, 0, 0]	n/a	catFR1	0	R1398J
382.612	2.354	932942	ENCODING_START	n/a	n/a	n/a	n/a	-999	-1	[0, 0, 0]	n/a	catFR1	0	R1398J
384.966	1.6	935290	WORD	n/a	n/a	JELLYFISH	OceanAnimals	1	-1	[0, 0, 0]	n/a	catFR1	0	R1398J
386.566	0.95	936893	WORD_OFF	n/a	n/a	JELLYFISH	OceanAnimals	1	-1	[0, 0, 0]	n/a	catFR1	0	R1398J
387.516	1.599	937836	WORD	n/a	n/a	DOLPHIN	OceanAnimals	2	-1	[0, 0, 0]	n/a	catFR1	0	R1398J
389.115	0.984	939440	WORD_OFF	n/a	n/a	DOLPHIN	OceanAnimals	2	-1	[0, 0, 0]	n/a	catFR1	0	R1398J
390.099	1.6	940423	WORD	n/a	n/a	AXE	Tools	3	-1	[0, 0, 0]	n/a	catFR1	0	R1398J
391.699	0.866	942019	WORD_OFF	n/a	n/a	AXE	Tools	3	-1	[0, 0, 0]	n/a	catFR1	0	R1398J
392.565	1.6	942887	WORD	n/a	n/a	WRENCH	Tools	4	-1	[0, 0, 0]	n/a	catFR1	0	R1398J
394.165	0.934	944490	WORD_OFF	n/a	n/a	WRENCH	Tools	4	-1	[0, 0, 0]	n/a	catFR1	0	R1398J
395.099	1.6	945425	WORD	n/a	n/a	CHAIR	Furniture	5	-1	[0, 0, 0]	n/a	catFR1	0	R1398J
396.699	0.783	947020	WORD_OFF	n/a	n/a	CHAIR	Furniture	5	-1	[0, 0, 0]	n/a	catFR1	0	R1398J
397.482	1.617	947805	WORD	n/a	n/a	NIGHTSTAND	Furniture	6	-1	[0, 0, 0]	n/a	catFR1	0	R1398J
399.099	0.9	949426	WORD_OFF	n/a	n/a	NIGHTSTAND	Furniture	6	-1	[0, 0, 0]	n/a	catFR1	0	R1398J
399.999	1.617	950318	WORD	n/a	n/a	OCTOPUS	OceanAnimals	7	-1	[0, 0, 0]	n/a	catFR1	0	R1398J
401.616	0.933	951939	WORD_OFF	n/a	n/a	OCTOPUS	OceanAnimals	7	-1	[0, 0, 0]	n/a	catFR1	0	R1398J
402.549	1.601	952873	WORD	n/a	n/a	SQUID	OceanAnimals	8	-1	[0, 0, 0]	n/a	catFR1	0	R1398J
404.15	0.982	954468	WORD_OFF	n/a	n/a	SQUID	OceanAnimals	8	-1	[0, 0, 0]	n/a	catFR1	0	R1398J
405.132	1.601	955452	WORD	n/a	n/a	SANDER	Tools	9	-1	[0, 0, 0]	n/a	catFR1	0	R1398J
406.733	0.949	957056	WORD_OFF	n/a	n/a	SANDER	Tools	9	-1	[0, 0, 0]	n/a	catFR1	0	R1398J
407.682	1.601	958006	WORD	n/a	n/a	CROWBAR	Tools	10	-1	[0, 0, 0]	n/a	catFR1	0	R1398J
409.283	0.867	959602	WORD_OFF	n/a	n/a	CROWBAR	Tools	10	-1	[0, 0, 0]	n/a	catFR1	0	R1398J
410.15	1.6	960470	WORD	n/a	n/a	CABINET	Furniture	11	-1	[0, 0, 0]	n/a	catFR1	0	R1398J
411.75	1.0	962074	WORD_OFF	n/a	n/a	CABINET	Furniture	11	-1	[0, 0, 0]	n/a	catFR1	0	R1398J
412.75	1.616	963074	WORD	n/a	n/a	BOOKCASE	Furniture	12	-1	[0, 0, 0]	n/a	catFR1	0	R1398J
414.366	0.002	964686	WORD_OFF	n/a	n/a	BOOKCASE	Furniture	12	-1	[0, 0, 0]	n/a	catFR1	0	R1398J
414.368	0.0	964690	START	n/a	n/a	n/a	n/a	-999	-1	[-999, -999, -999]	n/a	catFR1	0	R1398J
414.368	0.0	964690	PROB	17.815	n/a	n/a	n/a	-999	-1	[3, 6, 8]	17.0	catFR1	0	R1398J
414.368	0.0	964694	ENCODING_END	n/a	n/a	n/a	n/a	-999	-1	[0, 0, 0]	n/a	catFR1	0	R1398J
414.368	17.832	964694	DISTRACT_START	n/a	n/a	n/a	n/a	-999	-1	[0, 0, 0]	n/a	catFR1	0	R1398J
432.2	5.183	982521	PROB	5.166	n/a	n/a	n/a	-999	-1	[3, 4, 7]	14.0	catFR1	0	R1398J
437.383	0.0	987700	DISTRACT_END	n/a	n/a	n/a	n/a	-999	-1	[0, 0, 0]	n/a	catFR1	0	R1398J
437.383	2.35	987704	STOP	n/a	n/a	n/a	n/a	-999	-1	[-999, -999, -999]	n/a	catFR1	0	R1398J
439.733	0.47	990056	REC_START	n/a	n/a	n/a	n/a	-999	-1	[0, 0, 0]	n/a	catFR1	0	R1398J
440.203	1.451	990524	REC_WORD_VV	0.47	n/a	<>	n/a	-999	-1	[0, 0, 0]	n/a	catFR1	0	R1398J
441.654	1.629	991975	REC_WORD	1.921	n/a	JELLYFISH	OceanAnimals	1	-1	[0, 0, 0]	n/a	catFR1	0	R1398J
443.283	0.707	993604	REC_WORD	3.55	n/a	OCTOPUS	OceanAnimals	7	-1	[0, 0, 0]	n/a	catFR1	0	R1398J
443.99	1.674	994311	REC_WORD	4.257	n/a	SQUID	OceanAnimals	8	-1	[0, 0, 0]	n/a	catFR1	0	R1398J
445.664	0.762	995985	REC_WORD_VV	5.931	n/a	<>	n/a	-999	-1	[0, 0, 0]	n/a	catFR1	0	R1398J
446.426	2.06	996747	REC_WORD	6.693	n/a	AXE	Tools	3	-1	[0, 0, 0]	n/a	catFR1	0	R1398J
448.486	0.907	998807	REC_WORD	8.753	n/a	CABINET	Furniture	11	-1	[0, 0, 0]	n/a	catFR1	0	R1398J
449.393	3.7	999714	REC_WORD_VV	9.66	n/a	<>	n/a	-999	-1	[0, 0, 0]	n/a	catFR1	0	R1398J
453.093	3.564	1003413	REC_WORD_VV	13.36	n/a	<>	n/a	-999	-1	[0, 0, 0]	n/a	catFR1	0	R1398J
456.657	1.312	1006977	REC_WORD	16.924	n/a	CROWBAR	Tools	10	-1	[0, 0, 0]	n/a	catFR1	0	R1398J
457.969	8.936	1008289	REC_WORD_VV	18.236	n/a	<>	n/a	-999	-1	[0, 0, 0]	n/a	catFR1	0	R1398J
466.905	3.067	1017225	REC_WORD_VV	27.172	n/a	<>	n/a	-999	-1	[0, 0, 0]	n/a	catFR1	0	R1398J
469.972	20.994	1020296	REC_END	n/a	n/a	n/a	n/a	-999	-1	[0, 0, 0]	n/a	catFR1	0	R1398J
490.966	10.363	1041285	COUNTDOWN_START	n/a	n/a	n/a	n/a	-999	1	[0, 0, 0]	n/a	catFR1	0	R1398J
501.329	0.001	1051651	COUNTDOWN_END	n/a	n/a	n/a	n/a	-999	1	[0, 0, 0]	n/a	catFR1	0	R1398J
501.33	2.269	1051651	ENCODING_START	n/a	n/a	n/a	n/a	-999	1	[0, 0, 0]	n/a	catFR1	0	R1398J
503.599	1.6	1053916	WORD	n/a	wordpools/wordpool_categorized_EN.txt	POTATO	Vegetables	1	1	[0, 0, 0]	n/a	catFR1	0	R1398J
505.199	0.967	1055520	WORD_OFF	n/a	n/a	POTATO	Vegetables	1	1	[0, 0, 0]	n/a	catFR1	0	R1398J
506.166	1.617	1056487	WORD	n/a	wordpools/wordpool_categorized_EN.txt	BROCCOLI	Vegetables	2	1	[0, 0, 0]	n/a	catFR1	0	R1398J
507.783	0.766	1058099	WORD_OFF	n/a	n/a	BROCCOLI	Vegetables	2	1	[0, 0, 0]	n/a	catFR1	0	R1398J
508.549	1.617	1058868	WORD	n/a	wordpools/wordpool_categorized_EN.txt	PLIERS	Tools	3	1	[0, 0, 0]	n/a	catFR1	0	R1398J
510.166	0.917	1060488	WORD_OFF	n/a	n/a	PLIERS	Tools	3	1	[0, 0, 0]	n/a	catFR1	0	R1398J
511.083	1.615	1061398	WORD	n/a	wordpools/wordpool_categorized_EN.txt	SCREWDRIVER	Tools	4	1	[0, 0, 0]	n/a	catFR1	0	R1398J
512.698	0.917	1063018	WORD_OFF	n/a	n/a	SCREWDRIVER	Tools	4	1	[0, 0, 0]	n/a	catFR1	0	R1398J
513.615	1.601	1063935	WORD	n/a	wordpools/wordpool_categorized_EN.txt	GOAT	FarmAnimals	5	1	[0, 0, 0]	n/a	catFR1	0	R1398J
515.216	0.785	1065539	WORD_OFF	n/a	n/a	GOAT	FarmAnimals	5	1	[0, 0, 0]	n/a	catFR1	0	R1398J
516.001	1.615	1066316	WORD	n/a	wordpools/wordpool_categorized_EN.txt	SHEEP	FarmAnimals	6	1	[0, 0, 0]	n/a	catFR1	0	R1398J
517.616	0.784	1067937	WORD_OFF	n/a	n/a	SHEEP	FarmAnimals	6	1	[0, 0, 0]	n/a	catFR1	0	R1398J
518.4	1.616	1068722	WORD	n/a	wordpools/wordpool_categorized_EN.txt	LETTUCE	Vegetables	7	1	[0, 0, 0]	n/a	catFR1	0	R1398J
520.016	0.917	1070334	WORD_OFF	n/a	n/a	LETTUCE	Vegetables	7	1	[0, 0, 0]	n/a	catFR1	0	R1398J
520.933	1.616	1071251	WORD	n/a	wordpools/wordpool_categorized_EN.txt	PEAS	Vegetables	8	1	[0, 0, 0]	n/a	catFR1	0	R1398J
522.549	0.984	1072872	WORD_OFF	n/a	n/a	PEAS	Vegetables	8	1	[0, 0, 0]	n/a	catFR1	0	R1398J
523.533	1.6	1073847	WORD	n/a	wordpools/wordpool_categorized_EN.txt	DRILL	Tools	9	1	[0, 0, 0]	n/a	catFR1	0	R1398J
525.133	0.767	1075451	WORD_OFF	n/a	n/a	DRILL	Tools	9	1	[0, 0, 0]	n/a	catFR1	0	R1398J
525.9	1.615	1076220	WORD	n/a	wordpools/wordpool_categorized_EN.txt	SAW	Tools	10	1	[0, 0, 0]	n/a	catFR1	0	R1398J
527.515	0.885	1077832	WORD_OFF	n/a	n/a	SAW	Tools	10	1	[0, 0, 0]	n/a	catFR1	0	R1398J
528.4	1.616	1078716	WORD	n/a	wordpools/wordpool_categorized_EN.txt	BULL	FarmAnimals	11	1	[0, 0, 0]	n/a	catFR1	0	R1398J
530.016	0.8	1080337	WORD_OFF	n/a	n/a	BULL	FarmAnimals	11	1	[0, 0, 0]	n/a	catFR1	0	R1398J
530.816	1.6	1081138	WORD	n/a	wordpools/wordpool_categorized_EN.txt	LAMB	FarmAnimals	12	1	[0, 0, 0]	n/a	catFR1	0	R1398J
532.416	0.0	1082733	PROB	6.683	n/a	n/a	n/a	-999	1	[8, 4, 6]	18.0	catFR1	0	R1398J
532.416	0.002	1082734	WORD_OFF	n/a	n/a	LAMB	FarmAnimals	12	1	[0, 0, 0]	n/a	catFR1	0	R1398J
532.418	0.0	1082734	ENCODING_END	n/a	n/a	n/a	n/a	-999	1	[0, 0, 0]	n/a	catFR1	0	R1398J
532.418	0.0	1082735	START	n/a	n/a	n/a	n/a	-999	1	[-999, -999, -999]	n/a	catFR1	0	R1398J
532.418	6.698	1082742	DISTRACT_START	n/a	n/a	n/a	n/a	-999	1	[0, 0, 0]	n/a	catFR1	0	R1398J
539.116	3.717	1089433	PROB	3.7	n/a	n/a	n/a	-999	1	[4, 8, 2]	14.0	catFR1	0	R1398J
542.833	6.9	1093150	PROB	6.883	n/a	n/a	n/a	-999	1	[8, 1, 3]	12.0	catFR1	0	R1398J
549.733	6.049	1100049	PROB	6.033	n/a	n/a	n/a	-999	1	[4, 7, 7]	18.0	catFR1	0	R1398J
555.782	0.0	1106095	DISTRACT_END	n/a	n/a	n/a	n/a	-999	1	[0, 0, 0]	n/a	catFR1	0	R1398J
555.782	2.151	1106098	STOP	n/a	n/a	n/a	n/a	-999	1	[-999, -999, -999]	n/a	catFR1	0	R1398J
557.933	0.71	1108253	REC_START	n/a	n/a	n/a	n/a	-999	1	[0, 0, 0]	n/a	catFR1	0	R1398J
558.643	0.435	1108959	REC_WORD_VV	0.71	n/a	<>	n/a	-999	1	[0, 0, 0]	n/a	catFR1	0	R1398J
559.078	1.214	1109394	REC_WORD	1.145	n/a	POTATO	Vegetables	1	1	[0, 0, 0]	n/a	catFR1	0	R1398J
560.292	1.129	1110608	REC_WORD	2.359	n/a	BROCCOLI	Vegetables	2	1	[0, 0, 0]	n/a	catFR1	0	R1398J
561.421	6.235	1111737	REC_WORD_VV	3.488	n/a	<>	n/a	-999	1	[0, 0, 0]	n/a	catFR1	0	R1398J
567.656	2.103	1117972	REC_WORD	9.723	n/a	SANDER	Tools	-999	1	[0, 0, 0]	n/a	catFR1	0	R1398J
569.759	3.028	1120075	REC_WORD_VV	11.826	n/a	<>	n/a	-999	1	[0, 0, 0]	n/a	catFR1	0	R1398J
572.787	1.49	1123103	REC_WORD_VV	14.854	n/a	<>	n/a	-999	1	[0, 0, 0]	n/a	catFR1	0	R1398J
574.277	2.01	1124593	REC_WORD	16.344	n/a	LAMB	FarmAnimals	12	1	[0, 0, 0]	n/a	catFR1	0	R1398J
576.287	11.879	1126602	REC_WORD_VV	18.354	n/a	<>	n/a	-999	1	[0, 0, 0]	n/a	catFR1	0	R1398J
588.166	3.5	1138484	REC_END	n/a	n/a	n/a	n/a	-999	1	[0, 0, 0]	n/a	catFR1	0	R1398J
591.666	10.361	1141981	COUNTDOWN_START	n/a	n/a	n/a	n/a	-999	2	[0, 0, 0]	n/a	catFR1	0	R1398J
602.027	0.0	1152339	COUNTDOWN_END	n/a	n/a	n/a	n/a	-999	2	[0, 0, 0]	n/a	catFR1	0	R1398J
602.027	2.106	1152347	ENCODING_START	n/a	n/a	n/a	n/a	-999	2	[0, 0, 0]	n/a	catFR1	0	R1398J
604.133	1.6	1154447	WORD	n/a	wordpools/wordpool_categorized_EN.txt	VACUUM	Appliances	1	2	[0, 0, 0]	n/a	catFR1	0	R1398J
605.733	0.916	1156051	WORD_OFF	n/a	n/a	VACUUM	Appliances	1	2	[0, 0, 0]	n/a	catFR1	0	R1398J
606.649	1.6	1156960	WORD	n/a	wordpools/wordpool_categorized_EN.txt	STOVE	Appliances	2	2	[0, 0, 0]	n/a	catFR1	0	R1398J
608.249	0.983	1158564	WORD_OFF	n/a	n/a	STOVE	Appliances	2	2	[0, 0, 0]	n/a	catFR1	0	R1398J
609.232	1.601	1159548	WORD	n/a	wordpools/wordpool_categorized_EN.txt	SPATULA	KitchenTools	3	2	[0, 0, 0]	n/a	catFR1	0	R1398J
610.833	0.833	1161150	WORD_OFF	n/a	n/a	SPATULA	KitchenTools	3	2	[0, 0, 0]	n/a	catFR1	0	R1398J
611.666	1.6	1161978	WORD	n/a	wordpools/wordpool_categorized_EN.txt	WHISK	KitchenTools	4	2	[0, 0, 0]	n/a	catFR1	0	R1398J
613.266	0.983	1163582	WORD_OFF	n/a	n/a	WHISK	KitchenTools	4	2	[0, 0, 0]	n/a	catFR1	0	R1398J
614.249	1.616	1164566	WORD	n/a	wordpools/wordpool_categorized_EN.txt	COAT	Clothing	5	2	[0, 0, 0]	n/a	catFR1	0	R1398J
615.865	0.967	1166178	WORD_OFF	n/a	n/a	COAT	Clothing	5	2	[0, 0, 0]	n/a	catFR1	0	R1398J
616.832	1.601	1167145	WORD	n/a	wordpools/wordpool_categorized_EN.txt	SHOES	Clothing	6	2	[0, 0, 0]	n/a	catFR1	0	R1398J
618.433	0.85	1168748	WORD_OFF	n/a	n/a	SHOES	Clothing	6	2	[0, 0, 0]	n/a	catFR1	0	R1398J
619.283	1.616	1169600	WORD	n/a	wordpools/wordpool_categorized_EN.txt	GRATER	KitchenTools	7	2	[0, 0, 0]	n/a	catFR1	0	R1398J
620.899	0.934	1171212	WORD_OFF	n/a	n/a	GRATER	KitchenTools	7	2	[0, 0, 0]	n/a	catFR1	0	R1398J
621.833	1.6	1172146	WORD	n/a	wordpools/wordpool_categorized_EN.txt	PEELER	KitchenTools	8	2	[0, 0, 0]	n/a	catFR1	0	R1398J
623.433	0.833	1173750	WORD_OFF	n/a	n/a	PEELER	KitchenTools	8	2	[0, 0, 0]	n/a	catFR1	0	R1398J
624.266	1.6	1174576	WORD	n/a	wordpools/wordpool_categorized_EN.txt	UNDERWEAR	Clothing	9	2	[0, 0, 0]	n/a	catFR1	0	R1398J
625.866	0.916	1176180	WORD_OFF	n/a	n/a	UNDERWEAR	Clothing	9	2	[0, 0, 0]	n/a	catFR1	0	R1398J
626.782	1.601	1177098	WORD	n/a	wordpools/wordpool_categorized_EN.txt	DRESS	Clothing	10	2	[0, 0, 0]	n/a	catFR1	0	R1398J
628.383	0.817	1178693	WORD_OFF	n/a	n/a	DRESS	Clothing	10	2	[0, 0, 0]	n/a	catFR1	0	R1398J
629.2	1.615	1179512	WORD	n/a	wordpools/wordpool_categorized_EN.txt	WASHER	Appliances	11	2	[0, 0, 0]	n/a	catFR1	0	R1398J
630.815	0.951	1181132	WORD_OFF	n/a	n/a	WASHER	Appliances	11	2	[0, 0, 0]	n/a	catFR1	0	R1398J
631.766	1.6	1182083	WORD	n/a	wordpools/wordpool_categorized_EN.txt	DRYER	Appliances	12	2	[0, 0, 0]	n/a	catFR1	0	R1398J
633.366	0.002	1183678	WORD_OFF	n/a	n/a	DRYER	Appliances	12	2	[0, 0, 0]	n/a	catFR1	0	R1398J
633.368	0.0	1183678	ENCODING_END	n/a	n/a	n/a	n/a	-999	2	[0, 0, 0]	n/a	catFR1	0	R1398J
633.367	0.001	1183680	PROB	7.966	n/a	n/a	n/a	-999	2	[4, 6, 7]	17.0	catFR1	0	R1398J
633.368	0.0	1183681	START	n/a	n/a	n/a	n/a	-999	2	[-999, -999, -999]	n/a	catFR1	0	R1398J
633.368	7.982	1183686	DISTRACT_START	n/a	n/a	n/a	n/a	-999	2	[0, 0, 0]	n/a	catFR1	0	R1398J
641.35	3.966	1191663	PROB	3.949	n/a	n/a	n/a	-999	2	[3, 7, 6]	16.0	catFR1	0	R1398J
645.316	4.234	1195629	PROB	4.216	n/a	n/a	n/a	-999	2	[8, 4, 6]	18.0	catFR1	0	R1398J
649.55	3.432	1199862	PROB	3.416	n/a	n/a	n/a	-999	2	[8, 5, 4]	17.0	catFR1	0	R1398J
652.982	4.2	1203294	PROB	4.184	n/a	n/a	n/a	-999	2	[6, 7, 2]	15.0	catFR1	0	R1398J
657.182	0.0	1207494	DISTRACT_END	n/a	n/a	n/a	n/a	-999	2	[0, 0, 0]	n/a	catFR1	0	R1398J
657.182	2.351	1207494	STOP	n/a	n/a	n/a	n/a	-999	2	[-999, -999, -999]	n/a	catFR1	0	R1398J
659.533	1.275	1209842	REC_START	n/a	n/a	n/a	n/a	-999	2	[0, 0, 0]	n/a	catFR1	0	R1398J
660.808	0.303	1211120	REC_WORD_VV	1.275	n/a	<>	n/a	-999	2	[0, 0, 0]	n/a	catFR1	0	R1398J
661.111	0.922	1211423	REC_WORD	1.578	n/a	VACUUM	Appliances	1	2	[0, 0, 0]	n/a	catFR1	0	R1398J
662.033	1.0	1212345	REC_WORD	2.5	n/a	SHOES	Clothing	6	2	[0, 0, 0]	n/a	catFR1	0	R1398J
663.033	0.589	1213345	REC_WORD_VV	3.5	n/a	<>	n/a	-999	2	[0, 0, 0]	n/a	catFR1	0	R1398J
663.622	2.049	1213934	REC_WORD	4.089	n/a	UNDERWEAR	Clothing	9	2	[0, 0, 0]	n/a	catFR1	0	R1398J
665.671	1.614	1215983	REC_WORD_VV	6.138	n/a	<>	n/a	-999	2	[0, 0, 0]	n/a	catFR1	0	R1398J
667.285	1.244	1217597	REC_WORD	7.752	n/a	DRYER	Appliances	12	2	[0, 0, 0]	n/a	catFR1	0	R1398J
668.529	2.916	1218841	REC_WORD_VV	8.996	n/a	<>	n/a	-999	2	[0, 0, 0]	n/a	catFR1	0	R1398J
671.445	1.156	1221757	REC_WORD	11.912	n/a	WASHER	Appliances	11	2	[0, 0, 0]	n/a	catFR1	0	R1398J
672.601	5.629	1222913	REC_WORD_VV	13.068	n/a	<>	n/a	-999	2	[0, 0, 0]	n/a	catFR1	0	R1398J
678.23	1.013	1228541	REC_WORD	18.697	n/a	COAT	Clothing	5	2	[0, 0, 0]	n/a	catFR1	0	R1398J
679.243	5.464	1229554	REC_WORD_VV	19.71	n/a	<>	n/a	-999	2	[0, 0, 0]	n/a	catFR1	0	R1398J
684.707	0.326	1235018	REC_WORD_VV	25.174	n/a	<>	n/a	-999	2	[0, 0, 0]	n/a	catFR1	0	R1398J
685.033	3.538	1235344	REC_WORD	25.5	n/a	TOOLS	n/a	-999	2	[0, 0, 0]	n/a	catFR1	0	R1398J
688.571	1.176	1238882	REC_WORD	29.038	n/a	SAW	Tools	-999	2	[0, 0, 0]	n/a	catFR1	0	R1398J
689.747	2.935	1240057	REC_END	n/a	n/a	n/a	n/a	-999	2	[0, 0, 0]	n/a	catFR1	0	R1398J
692.682	10.366	1242991	COUNTDOWN_START	n/a	n/a	n/a	n/a	-999	3	[0, 0, 0]	n/a	catFR1	0	R1398J
703.048	0.0	1253358	COUNTDOWN_END	n/a	n/a	n/a	n/a	-999	3	[0, 0, 0]	n/a	catFR1	0	R1398J
703.048	2.102	1253358	ENCODING_START	n/a	n/a	n/a	n/a	-999	3	[0, 0, 0]	n/a	catFR1	0	R1398J
705.15	1.6	1255458	WORD	n/a	wordpools/wordpool_categorized_EN.txt	BED	Furniture	1	3	[0, 0, 0]	n/a	catFR1	0	R1398J
706.75	0.783	1257061	WORD_OFF	n/a	n/a	BED	Furniture	1	3	[0, 0, 0]	n/a	catFR1	0	R1398J
707.533	1.6	1257847	WORD	n/a	wordpools/wordpool_categorized_EN.txt	RECLINER	Furniture	2	3	[0, 0, 0]	n/a	catFR1	0	R1398J
709.133	0.85	1259442	WORD_OFF	n/a	n/a	RECLINER	Furniture	2	3	[0, 0, 0]	n/a	catFR1	0	R1398J
709.983	1.6	1260294	WORD	n/a	wordpools/wordpool_categorized_EN.txt	FLUTE	Instruments	3	3	[0, 0, 0]	n/a	catFR1	0	R1398J
711.583	0.8	1261897	WORD_OFF	n/a	n/a	FLUTE	Instruments	3	3	[0, 0, 0]	n/a	catFR1	0	R1398J
712.383	1.617	1262691	WORD	n/a	wordpools/wordpool_categorized_EN.txt	TUBA	Instruments	4	3	[0, 0, 0]	n/a	catFR1	0	R1398J
714.0	0.883	1264311	WORD_OFF	n/a	n/a	TUBA	Instruments	4	3	[0, 0, 0]	n/a	catFR1	0	R1398J
714.883	1.6	1265196	WORD	n/a	wordpools/wordpool_categorized_EN.txt	HORSE	FarmAnimals	5	3	[0, 0, 0]	n/a	catFR1	0	R1398J
716.483	0.85	1266791	WORD_OFF	n/a	n/a	HORSE	FarmAnimals	5	3	[0, 0, 0]	n/a	catFR1	0	R1398J
717.333	1.6	1267643	WORD	n/a	wordpools/wordpool_categorized_EN.txt	ROOSTER	FarmAnimals	6	3	[0, 0, 0]	n/a	catFR1	0	R1398J
718.933	0.833	1269246	WORD_OFF	n/a	n/a	ROOSTER	FarmAnimals	6	3	[0, 0, 0]	n/a	catFR1	0	R1398J
719.766	1.6	1270073	WORD	n/a	wordpools/wordpool_categorized_EN.txt	TRUMPET	Instruments	7	3	[0, 0, 0]	n/a	catFR1	0	R1398J
721.366	0.867	1271677	WORD_OFF	n/a	n/a	TRUMPET	Instruments	7	3	[0, 0, 0]	n/a	catFR1	0	R1398J
722.233	1.6	1272545	WORD	n/a	wordpools/wordpool_categorized_EN.txt	GUITAR	Instruments	8	3	[0, 0, 0]	n/a	catFR1	0	R1398J
723.833	0.85	1274140	WORD_OFF	n/a	n/a	GUITAR	Instruments	8	3	[0, 0, 0]	n/a	catFR1	0	R1398J
724.683	1.6	1274992	WORD	n/a	wordpools/wordpool_categorized_EN.txt	CALF	FarmAnimals	9	3	[0, 0, 0]	n/a	catFR1	0	R1398J
726.283	0.816	1276595	WORD_OFF	n/a	n/a	CALF	FarmAnimals	9	3	[0, 0, 0]	n/a	catFR1	0	R1398J
727.099	1.601	1277405	WORD	n/a	wordpools/wordpool_categorized_EN.txt	COW	FarmAnimals	10	3	[0, 0, 0]	n/a	catFR1	0	R1398J
728.7	0.783	1279009	WORD_OFF	n/a	n/a	COW	FarmAnimals	10	3	[0, 0, 0]	n/a	catFR1	0	R1398J
729.483	1.616	1279795	WORD	n/a	wordpools/wordpool_categorized_EN.txt	SOFA	Furniture	11	3	[0, 0, 0]	n/a	catFR1	0	R1398J
731.099	0.933	1281407	WORD_OFF	n/a	n/a	SOFA	Furniture	11	3	[0, 0, 0]	n/a	catFR1	0	R1398J
732.032	1.601	1282341	WORD	n/a	wordpools/wordpool_categorized_EN.txt	SHELF	Furniture	12	3	[0, 0, 0]	n/a	catFR1	0	R1398J
733.633	0.0	1283942	PROB	5.583	n/a	n/a	n/a	-999	3	[5, 4, 3]	12.0	catFR1	0	R1398J
733.633	0.002	1283944	WORD_OFF	n/a	n/a	SHELF	Furniture	12	3	[0, 0, 0]	n/a	catFR1	0	R1398J
733.635	0.0	1283944	ENCODING_END	n/a	n/a	n/a	n/a	-999	3	[0, 0, 0]	n/a	catFR1	0	R1398J
733.635	0.0	1283944	DISTRACT_START	n/a	n/a	n/a	n/a	-999	3	[0, 0, 0]	n/a	catFR1	0	R1398J
733.635	5.598	1283944	START	n/a	n/a	n/a	n/a	-999	3	[-999, -999, -999]	n/a	catFR1	0	R1398J
739.233	3.9	1289542	PROB	3.883	n/a	n/a	n/a	-999	3	[6, 6, 4]	16.0	catFR1	0	R1398J
743.133	3.851	1293442	PROB	3.833	n/a	n/a	n/a	-999	3	[7, 8, 7]	22.0	catFR1	0	R1398J
746.984	3.816	1297292	PROB	3.799	n/a	n/a	n/a	-999	3	[7, 6, 1]	14.0	catFR1	0	R1398J
750.8	3.949	1301108	PROB	3.933	n/a	n/a	n/a	-999	3	[6, 3, 1]	10.0	catFR1	0	R1398J
754.749	0.0	1305057	DISTRACT_END	n/a	n/a	n/a	n/a	-999	3	[0, 0, 0]	n/a	catFR1	0	R1398J
754.749	2.35	1305057	STOP	n/a	n/a	n/a	n/a	-999	3	[-999, -999, -999]	n/a	catFR1	0	R1398J
757.099	0.42	1307405	REC_START	n/a	n/a	n/a	n/a	-999	3	[0, 0, 0]	n/a	catFR1	0	R1398J
757.519	0.681	1307827	REC_WORD_VV	0.42	n/a	<>	n/a	-999	3	[0, 0, 0]	n/a	catFR1	0	R1398J
758.2	1.312	1308508	REC_WORD	1.101	n/a	BED	Furniture	1	3	[0, 0, 0]	n/a	catFR1	0	R1398J
759.512	2.301	1309820	REC_WORD	2.413	n/a	RECLINER	Furniture	2	3	[0, 0, 0]	n/a	catFR1	0	R1398J
761.813	3.239	1312121	REC_WORD_VV	4.714	n/a	<>	n/a	-999	3	[0, 0, 0]	n/a	catFR1	0	R1398J
765.052	1.506	1315360	REC_WORD	7.953	n/a	FLUTE	Instruments	3	3	[0, 0, 0]	n/a	catFR1	0	R1398J
766.558	2.301	1316866	REC_WORD	9.459	n/a	TUBA	Instruments	4	3	[0, 0, 0]	n/a	catFR1	0	R1398J
768.859	3.614	1319167	REC_WORD_VV	11.76	n/a	<>	n/a	-999	3	[0, 0, 0]	n/a	catFR1	0	R1398J
772.473	1.553	1322780	REC_WORD_VV	15.374	n/a	<>	n/a	-999	3	[0, 0, 0]	n/a	catFR1	0	R1398J
774.026	9.971	1324333	REC_WORD_VV	16.927	n/a	<>	n/a	-999	3	[0, 0, 0]	n/a	catFR1	0	R1398J
783.997	1.639	1334304	REC_WORD	26.898	n/a	SOFA	Furniture	11	3	[0, 0, 0]	n/a	catFR1	0	R1398J
785.636	1.704	1335943	REC_WORD_VV	28.537	n/a	<>	n/a	-999	3	[0, 0, 0]	n/a	catFR1	0	R1398J
787.34	2.143	1337645	REC_END	n/a	n/a	n/a	n/a	-999	3	[0, 0, 0]	n/a	catFR1	0	R1398J
789.483	10.364	1339794	COUNTDOWN_START	n/a	n/a	n/a	n/a	-999	4	[0, 0, 0]	n/a	catFR1	0	R1398J
799.847	0.001	1350152	COUNTDOWN_END	n/a	n/a	n/a	n/a	-999	4	[0, 0, 0]	n/a	catFR1	0	R1398J
799.848	1.918	1350152	ENCODING_START	n/a	n/a	n/a	n/a	-999	4	[0, 0, 0]	n/a	catFR1	0	R1398J
801.766	1.617	1352070	WORD	n/a	wordpools/wordpool_categorized_EN.txt	SHOVEL	Tools	1	4	[0, 0, 0]	n/a	catFR1	0	R1398J
803.383	0.982	1353690	WORD_OFF	n/a	n/a	SHOVEL	Tools	1	4	[0, 0, 0]	n/a	catFR1	0	R1398J
804.365	1.601	1354674	WORD	n/a	wordpools/wordpool_categorized_EN.txt	RATCHET	Tools	2	4	[0, 0, 0]	n/a	catFR1	0	R1398J
805.966	0.784	1356269	WORD_OFF	n/a	n/a	RATCHET	Tools	2	4	[0, 0, 0]	n/a	catFR1	0	R1398J
806.75	1.615	1357055	WORD	n/a	wordpools/wordpool_categorized_EN.txt	PANDA	Zoo	3	4	[0, 0, 0]	n/a	catFR1	0	R1398J
808.365	0.885	1358675	WORD_OFF	n/a	n/a	PANDA	Zoo	3	4	[0, 0, 0]	n/a	catFR1	0	R1398J
809.25	1.599	1359560	WORD	n/a	wordpools/wordpool_categorized_EN.txt	LION	Zoo	4	4	[0, 0, 0]	n/a	catFR1	0	R1398J
810.849	0.801	1361155	WORD_OFF	n/a	n/a	LION	Zoo	4	4	[0, 0, 0]	n/a	catFR1	0	R1398J
811.65	1.616	1361957	WORD	n/a	wordpools/wordpool_categorized_EN.txt	THUNDERSTORM	Weather	5	4	[0, 0, 0]	n/a	catFR1	0	R1398J
813.266	0.85	1363569	WORD_OFF	n/a	n/a	THUNDERSTORM	Weather	5	4	[0, 0, 0]	n/a	catFR1	0	R1398J
814.116	1.617	1364420	WORD	n/a	wordpools/wordpool_categorized_EN.txt	CLOUD	Weather	6	4	[0, 0, 0]	n/a	catFR1	0	R1398J
815.733	0.867	1366041	WORD_OFF	n/a	n/a	CLOUD	Weather	6	4	[0, 0, 0]	n/a	catFR1	0	R1398J
816.6	1.6	1366909	WORD	n/a	wordpools/wordpool_categorized_EN.txt	GIRAFFE	Zoo	7	4	[0, 0, 0]	n/a	catFR1	0	R1398J
818.2	0.815	1368504	WORD_OFF	n/a	n/a	GIRAFFE	Zoo	7	4	[0, 0, 0]	n/a	catFR1	0	R1398J
819.015	1.601	1369323	WORD	n/a	wordpools/wordpool_categorized_EN.txt	ELEPHANT	Zoo	8	4	[0, 0, 0]	n/a	catFR1	0	R1398J
820.616	0.933	1370918	WORD_OFF	n/a	n/a	ELEPHANT	Zoo	8	4	[0, 0, 0]	n/a	catFR1	0	R1398J
821.549	1.601	1371852	WORD	n/a	wordpools/wordpool_categorized_EN.txt	HAMMER	Tools	9	4	[0, 0, 0]	n/a	catFR1	0	R1398J
823.15	0.966	1373456	WORD_OFF	n/a	n/a	HAMMER	Tools	9	4	[0, 0, 0]	n/a	catFR1	0	R1398J
824.116	1.6	1374423	WORD	n/a	wordpools/wordpool_categorized_EN.txt	LEVEL	Tools	10	4	[0, 0, 0]	n/a	catFR1	0	R1398J
825.716	0.766	1376019	WORD_OFF	n/a	n/a	LEVEL	Tools	10	4	[0, 0, 0]	n/a	catFR1	0	R1398J
826.482	1.6	1376787	WORD	n/a	wordpools/wordpool_categorized_EN.txt	RAIN	Weather	11	4	[0, 0, 0]	n/a	catFR1	0	R1398J
828.082	0.883	1378391	WORD_OFF	n/a	n/a	RAIN	Weather	11	4	[0, 0, 0]	n/a	catFR1	0	R1398J
828.965	1.601	1379267	WORD	n/a	wordpools/wordpool_categorized_EN.txt	TORNADO	Weather	12	4	[0, 0, 0]	n/a	catFR1	0	R1398J
830.566	0.002	1380871	WORD_OFF	n/a	n/a	TORNADO	Weather	12	4	[0, 0, 0]	n/a	catFR1	0	R1398J
830.568	0.0	1380871	ENCODING_END	n/a	n/a	n/a	n/a	-999	4	[0, 0, 0]	n/a	catFR1	0	R1398J
830.567	0.001	1380872	PROB	13.299	n/a	n/a	n/a	-999	4	[7, 8, 6]	21.0	catFR1	0	R1398J
830.568	0.0	1380873	START	n/a	n/a	n/a	n/a	-999	4	[-999, -999, -999]	n/a	catFR1	0	R1398J
830.568	13.315	1380879	DISTRACT_START	n/a	n/a	n/a	n/a	-999	4	[0, 0, 0]	n/a	catFR1	0	R1398J
843.883	3.866	1394188	PROB	3.85	n/a	n/a	n/a	-999	4	[7, 3, 4]	14.0	catFR1	0	R1398J
847.749	3.133	1398053	PROB	3.117	n/a	n/a	n/a	-999	4	[6, 7, 3]	16.0	catFR1	0	R1398J
850.882	0.0	1401186	STOP	n/a	n/a	n/a	n/a	-999	4	[-999, -999, -999]	n/a	catFR1	0	R1398J
850.882	2.083	1401190	DISTRACT_END	n/a	n/a	n/a	n/a	-999	4	[0, 0, 0]	n/a	catFR1	0	R1398J
852.965	0.76	1403273	REC_START	n/a	n/a	n/a	n/a	-999	4	[0, 0, 0]	n/a	catFR1	0	R1398J
853.725	0.921	1404029	REC_WORD_VV	0.76	n/a	<>	n/a	-999	4	[0, 0, 0]	n/a	catFR1	0	R1398J
854.646	0.954	1404950	REC_WORD	1.681	n/a	THUNDER	n/a	-999	4	[0, 0, 0]	n/a	catFR1	0	R1398J
855.6	2.217	1405904	REC_WORD	2.635	n/a	RAIN	Weather	11	4	[0, 0, 0]	n/a	catFR1	0	R1398J
857.817	5.212	1408121	REC_WORD_VV	4.852	n/a	<>	n/a	-999	4	[0, 0, 0]	n/a	catFR1	0	R1398J
863.029	0.393	1413333	REC_WORD	10.064	n/a	THUNDER	n/a	-999	4	[0, 0, 0]	n/a	catFR1	0	R1398J
863.422	1.002	1413726	REC_WORD	10.457	n/a	RAIN	Weather	11	4	[0, 0, 0]	n/a	catFR1	0	R1398J
864.424	0.203	1414728	REC_WORD_VV	11.459	n/a	<>	n/a	-999	4	[0, 0, 0]	n/a	catFR1	0	R1398J
864.627	1.393	1414931	REC_WORD	11.662	n/a	RATCHET	Tools	2	4	[0, 0, 0]	n/a	catFR1	0	R1398J
866.02	6.3	1416324	REC_WORD_VV	13.055	n/a	<>	n/a	-999	4	[0, 0, 0]	n/a	catFR1	0	R1398J
872.32	1.0	1422623	REC_WORD_VV	19.355	n/a	<>	n/a	-999	4	[0, 0, 0]	n/a	catFR1	0	R1398J
873.32	9.876	1423623	REC_WORD_VV	20.355	n/a	<>	n/a	-999	4	[0, 0, 0]	n/a	catFR1	0	R1398J
883.196	2.37	1433497	REC_END	n/a	n/a	n/a	n/a	-999	4	[0, 0, 0]	n/a	catFR1	0	R1398J
885.566	10.365	1435869	COUNTDOWN_START	n/a	n/a	n/a	n/a	-999	5	[0, 0, 0]	n/a	catFR1	0	R1398J
895.931	0.0	1446236	COUNTDOWN_END	n/a	n/a	n/a	n/a	-999	5	[0, 0, 0]	n/a	catFR1	0	R1398J
895.931	1.886	1446236	ENCODING_START	n/a	n/a	n/a	n/a	-999	5	[0, 0, 0]	n/a	catFR1	0	R1398J
897.817	1.599	1448120	WORD	n/a	wordpools/wordpool_categorized_EN.txt	BASKETBALL	Toys	1	5	[0, 0, 0]	n/a	catFR1	0	R1398J
899.416	0.984	1449716	WORD_OFF	n/a	n/a	BASKETBALL	Toys	1	5	[0, 0, 0]	n/a	catFR1	0	R1398J
900.4	1.616	1450700	WORD	n/a	wordpools/wordpool_categorized_EN.txt	BALL	Toys	2	5	[0, 0, 0]	n/a	catFR1	0	R1398J
902.016	0.834	1452320	WORD_OFF	n/a	n/a	BALL	Toys	2	5	[0, 0, 0]	n/a	catFR1	0	R1398J
902.85	1.6	1453155	WORD	n/a	wordpools/wordpool_categorized_EN.txt	DRIZZLE	Weather	3	5	[0, 0, 0]	n/a	catFR1	0	R1398J
904.45	0.9	1454750	WORD_OFF	n/a	n/a	DRIZZLE	Weather	3	5	[0, 0, 0]	n/a	catFR1	0	R1398J
905.35	1.616	1455651	WORD	n/a	wordpools/wordpool_categorized_EN.txt	LIGHTNING	Weather	4	5	[0, 0, 0]	n/a	catFR1	0	R1398J
906.966	0.999	1457272	WORD_OFF	n/a	n/a	LIGHTNING	Weather	4	5	[0, 0, 0]	n/a	catFR1	0	R1398J
907.965	1.601	1458272	WORD	n/a	wordpools/wordpool_categorized_EN.txt	LINEN	Fabric	5	5	[0, 0, 0]	n/a	catFR1	0	R1398J
909.566	0.834	1459867	WORD_OFF	n/a	n/a	LINEN	Fabric	5	5	[0, 0, 0]	n/a	catFR1	0	R1398J
910.4	1.6	1460702	WORD	n/a	wordpools/wordpool_categorized_EN.txt	SPANDEX	Fabric	6	5	[0, 0, 0]	n/a	catFR1	0	R1398J
912.0	0.966	1462298	WORD_OFF	n/a	n/a	SPANDEX	Fabric	6	5	[0, 0, 0]	n/a	catFR1	0	R1398J
912.966	1.6	1463265	WORD	n/a	wordpools/wordpool_categorized_EN.txt	MARBLES	Toys	7	5	[0, 0, 0]	n/a	catFR1	0	R1398J
914.566	0.833	1464869	WORD_OFF	n/a	n/a	MARBLES	Toys	7	5	[0, 0, 0]	n/a	catFR1	0	R1398J
915.399	1.601	1465704	WORD	n/a	wordpools/wordpool_categorized_EN.txt	SLINKY	Toys	8	5	[0, 0, 0]	n/a	catFR1	0	R1398J
917.0	0.867	1467299	WORD_OFF	n/a	n/a	SLINKY	Toys	8	5	[0, 0, 0]	n/a	catFR1	0	R1398J
917.867	1.599	1468167	WORD	n/a	wordpools/wordpool_categorized_EN.txt	HURRICANE	Weather	9	5	[0, 0, 0]	n/a	catFR1	0	R1398J
919.466	0.817	1469771	WORD_OFF	n/a	n/a	HURRICANE	Weather	9	5	[0, 0, 0]	n/a	catFR1	0	R1398J
920.283	1.6	1470581	WORD	n/a	wordpools/wordpool_categorized_EN.txt	FOG	Weather	10	5	[0, 0, 0]	n/a	catFR1	0	R1398J
921.883	0.816	1472185	WORD_OFF	n/a	n/a	FOG	Weather	10	5	[0, 0, 0]	n/a	catFR1	0	R1398J
922.699	1.601	1473003	WORD	n/a	wordpools/wordpool_categorized_EN.txt	COTTON	Fabric	11	5	[0, 0, 0]	n/a	catFR1	0	R1398J
924.3	0.766	1474598	WORD_OFF	n/a	n/a	COTTON	Fabric	11	5	[0, 0, 0]	n/a	catFR1	0	R1398J
925.066	1.601	1475367	WORD	n/a	wordpools/wordpool_categorized_EN.txt	FLEECE	Fabric	12	5	[0, 0, 0]	n/a	catFR1	0	R1398J
926.667	0.001	1476968	PROB	5.032	n/a	n/a	n/a	-999	5	[5, 7, 6]	18.0	catFR1	0	R1398J
926.668	0.0	1476969	START	n/a	n/a	n/a	n/a	-999	5	[-999, -999, -999]	n/a	catFR1	0	R1398J
926.667	0.001	1476971	WORD_OFF	n/a	n/a	FLEECE	Fabric	12	5	[0, 0, 0]	n/a	catFR1	0	R1398J
926.668	0.0	1476971	ENCODING_END	n/a	n/a	n/a	n/a	-999	5	[0, 0, 0]	n/a	catFR1	0	R1398J
926.668	5.049	1476971	DISTRACT_START	n/a	n/a	n/a	n/a	-999	5	[0, 0, 0]	n/a	catFR1	0	R1398J
931.717	4.316	1482018	PROB	4.299	n/a	n/a	n/a	-999	5	[4, 4, 4]	12.0	catFR1	0	R1398J
936.033	5.734	1486334	PROB	5.717	n/a	n/a	n/a	-999	5	[6, 8, 6]	20.0	catFR1	0	R1398J
941.767	3.749	1492068	PROB	3.732	n/a	n/a	n/a	-999	5	[3, 4, 7]	14.0	catFR1	0	R1398J
945.516	3.2	1495816	PROB	3.184	n/a	n/a	n/a	-999	5	[2, 7, 2]	11.0	catFR1	0	R1398J
948.716	0.0	1499016	STOP	n/a	n/a	n/a	n/a	-999	5	[-999, -999, -999]	n/a	catFR1	0	R1398J
948.716	2.034	1499018	DISTRACT_END	n/a	n/a	n/a	n/a	-999	5	[0, 0, 0]	n/a	catFR1	0	R1398J
950.75	0.552	1501052	REC_START	n/a	n/a	n/a	n/a	-999	5	[0, 0, 0]	n/a	catFR1	0	R1398J
951.302	0.513	1501602	REC_WORD_VV	0.552	n/a	<>	n/a	-999	5	[0, 0, 0]	n/a	catFR1	0	R1398J
951.815	1.0	1502115	REC_WORD	1.065	n/a	FOG	Weather	10	5	[0, 0, 0]	n/a	catFR1	0	R1398J
952.815	1.222	1503115	REC_WORD_VV	2.065	n/a	<>	n/a	-999	5	[0, 0, 0]	n/a	catFR1	0	R1398J
954.037	7.569	1504337	REC_WORD_VV	3.287	n/a	<>	n/a	-999	5	[0, 0, 0]	n/a	catFR1	0	R1398J
961.606	3.436	1511906	REC_WORD_VV	10.856	n/a	<>	n/a	-999	5	[0, 0, 0]	n/a	catFR1	0	R1398J
965.042	1.133	1515342	REC_WORD	14.292	n/a	LINEN	Fabric	5	5	[0, 0, 0]	n/a	catFR1	0	R1398J
966.175	1.761	1516475	REC_WORD	15.425	n/a	FLEECE	Fabric	12	5	[0, 0, 0]	n/a	catFR1	0	R1398J
967.936	0.725	1518236	REC_WORD_VV	17.186	n/a	<>	n/a	-999	5	[0, 0, 0]	n/a	catFR1	0	R1398J
968.661	2.318	1518960	REC_WORD	17.911	n/a	COTTON	Fabric	11	5	[0, 0, 0]	n/a	catFR1	0	R1398J
970.979	1.461	1521278	REC_WORD_VV	20.229	n/a	<>	n/a	-999	5	[0, 0, 0]	n/a	catFR1	0	R1398J
972.44	0.783	1522739	REC_WORD	21.69	n/a	LATEX	n/a	-999	5	[0, 0, 0]	n/a	catFR1	0	R1398J
973.223	1.803	1523522	REC_WORD	22.473	n/a	SPANDEX	Fabric	6	5	[0, 0, 0]	n/a	catFR1	0	R1398J
975.026	0.454	1525325	REC_WORD_VV	24.276	n/a	<>	n/a	-999	5	[0, 0, 0]	n/a	catFR1	0	R1398J
975.48	0.98	1525779	REC_WORD	24.73	n/a	LINEN	Fabric	5	5	[0, 0, 0]	n/a	catFR1	0	R1398J
976.46	1.38	1526759	REC_WORD_VV	25.71	n/a	<>	n/a	-999	5	[0, 0, 0]	n/a	catFR1	0	R1398J
977.84	3.144	1528139	REC_WORD_VV	27.09	n/a	<>	n/a	-999	5	[0, 0, 0]	n/a	catFR1	0	R1398J
980.984	2.299	1531283	REC_END	n/a	n/a	n/a	n/a	-999	5	[0, 0, 0]	n/a	catFR1	0	R1398J
983.283	10.36	1533581	COUNTDOWN_START	n/a	n/a	n/a	n/a	-999	6	[0, 0, 0]	n/a	catFR1	0	R1398J
993.643	0.0	1543939	COUNTDOWN_END	n/a	n/a	n/a	n/a	-999	6	[0, 0, 0]	n/a	catFR1	0	R1398J
993.643	2.09	1543947	ENCODING_START	n/a	n/a	n/a	n/a	-999	6	[0, 0, 0]	n/a	catFR1	0	R1398J
995.733	1.616	1546031	WORD	n/a	wordpools/wordpool_categorized_EN.txt	BLUEBIRD	Birds	1	6	[0, 0, 0]	n/a	catFR1	0	R1398J
997.349	0.834	1547651	WORD_OFF	n/a	n/a	BLUEBIRD	Birds	1	6	[0, 0, 0]	n/a	catFR1	0	R1398J
998.183	1.615	1548478	WORD	n/a	wordpools/wordpool_categorized_EN.txt	HAWK	Birds	2	6	[0, 0, 0]	n/a	catFR1	0	R1398J
999.798	0.951	1550098	WORD_OFF	n/a	n/a	HAWK	Birds	2	6	[0, 0, 0]	n/a	catFR1	0	R1398J
1000.749	1.617	1551049	WORD	n/a	wordpools/wordpool_categorized_EN.txt	CUPCAKE	Desserts	3	6	[0, 0, 0]	n/a	catFR1	0	R1398J
1002.366	0.8	1552669	WORD_OFF	n/a	n/a	CUPCAKE	Desserts	3	6	[0, 0, 0]	n/a	catFR1	0	R1398J
1003.166	1.6	1553462	WORD	n/a	wordpools/wordpool_categorized_EN.txt	BROWNIES	Desserts	4	6	[0, 0, 0]	n/a	catFR1	0	R1398J
1004.766	1.0	1555066	WORD_OFF	n/a	n/a	BROWNIES	Desserts	4	6	[0, 0, 0]	n/a	catFR1	0	R1398J
1005.766	1.617	1556066	WORD	n/a	wordpools/wordpool_categorized_EN.txt	CYPRESS	Trees	5	6	[0, 0, 0]	n/a	catFR1	0	R1398J
1007.383	0.883	1557678	WORD_OFF	n/a	n/a	CYPRESS	Trees	5	6	[0, 0, 0]	n/a	catFR1	0	R1398J
1008.266	1.617	1558563	WORD	n/a	wordpools/wordpool_categorized_EN.txt	ELM	Trees	6	6	[0, 0, 0]	n/a	catFR1	0	R1398J
1009.883	0.783	1560183	WORD_OFF	n/a	n/a	ELM	Trees	6	6	[0, 0, 0]	n/a	catFR1	0	R1398J
1010.666	1.6	1560960	WORD	n/a	wordpools/wordpool_categorized_EN.txt	ROBIN	Birds	7	6	[0, 0, 0]	n/a	catFR1	0	R1398J
1012.266	0.949	1562564	WORD_OFF	n/a	n/a	ROBIN	Birds	7	6	[0, 0, 0]	n/a	catFR1	0	R1398J
1013.215	1.601	1563515	WORD	n/a	wordpools/wordpool_categorized_EN.txt	SEAGULL	Birds	8	6	[0, 0, 0]	n/a	catFR1	0	R1398J
1014.816	0.984	1565118	WORD_OFF	n/a	n/a	SEAGULL	Birds	8	6	[0, 0, 0]	n/a	catFR1	0	R1398J
1015.8	1.616	1566094	WORD	n/a	wordpools/wordpool_categorized_EN.txt	MAPLE	Trees	9	6	[0, 0, 0]	n/a	catFR1	0	R1398J
1017.416	0.916	1567714	WORD_OFF	n/a	n/a	MAPLE	Trees	9	6	[0, 0, 0]	n/a	catFR1	0	R1398J
1018.332	1.601	1568632	WORD	n/a	wordpools/wordpool_categorized_EN.txt	EVERGREEN	Trees	10	6	[0, 0, 0]	n/a	catFR1	0	R1398J
1019.933	0.783	1570227	WORD_OFF	n/a	n/a	EVERGREEN	Trees	10	6	[0, 0, 0]	n/a	catFR1	0	R1398J
1020.716	1.6	1571013	WORD	n/a	wordpools/wordpool_categorized_EN.txt	CHEESECAKE	Desserts	11	6	[0, 0, 0]	n/a	catFR1	0	R1398J
1022.316	0.783	1572616	WORD_OFF	n/a	n/a	CHEESECAKE	Desserts	11	6	[0, 0, 0]	n/a	catFR1	0	R1398J
1023.099	1.6	1573393	WORD	n/a	wordpools/wordpool_categorized_EN.txt	MOUSSE	Desserts	12	6	[0, 0, 0]	n/a	catFR1	0	R1398J
1024.699	0.0	1574996	PROB	4.517	n/a	n/a	n/a	-999	6	[6, 7, 3]	16.0	catFR1	0	R1398J
1024.699	0.001	1574997	WORD_OFF	n/a	n/a	MOUSSE	Desserts	12	6	[0, 0, 0]	n/a	catFR1	0	R1398J
1024.7	0.0	1574997	ENCODING_END	n/a	n/a	n/a	n/a	-999	6	[0, 0, 0]	n/a	catFR1	0	R1398J
1024.7	0.0	1574997	DISTRACT_START	n/a	n/a	n/a	n/a	-999	6	[0, 0, 0]	n/a	catFR1	0	R1398J
1024.7	4.532	1574997	START	n/a	n/a	n/a	n/a	-999	6	[-999, -999, -999]	n/a	catFR1	0	R1398J
1029.232	4.766	1579529	PROB	4.75	n/a	n/a	n/a	-999	6	[4, 2, 3]	9.0	catFR1	0	R1398J
1033.998	4.019	1584295	PROB	4.0	n/a	n/a	n/a	-999	6	[5, 8, 7]	20.0	catFR1	0	R1398J
1038.017	3.833	1588314	PROB	3.815	n/a	n/a	n/a	-999	6	[2, 2, 8]	12.0	catFR1	0	R1398J
1041.85	3.483	1592146	PROB	3.465	n/a	n/a	n/a	-999	6	[3, 2, 7]	12.0	catFR1	0	R1398J
1045.333	0.0	1595629	STOP	n/a	n/a	n/a	n/a	-999	6	[-999, -999, -999]	n/a	catFR1	0	R1398J
1045.333	2.365	1595631	DISTRACT_END	n/a	n/a	n/a	n/a	-999	6	[0, 0, 0]	n/a	catFR1	0	R1398J
1047.698	0.74	1597995	REC_START	n/a	n/a	n/a	n/a	-999	6	[0, 0, 0]	n/a	catFR1	0	R1398J
1048.438	1.0	1598734	REC_WORD	0.74	n/a	CYPRESS	Trees	5	6	[0, 0, 0]	n/a	catFR1	0	R1398J
1049.438	0.424	1599734	REC_WORD_VV	1.74	n/a	<>	n/a	-999	6	[0, 0, 0]	n/a	catFR1	0	R1398J
1049.862	2.549	1600158	REC_WORD_VV	2.164	n/a	<>	n/a	-999	6	[0, 0, 0]	n/a	catFR1	0	R1398J
1052.411	1.413	1602707	REC_WORD	4.713	n/a	MAPLE	Trees	9	6	[0, 0, 0]	n/a	catFR1	0	R1398J
1053.824	1.757	1604120	REC_WORD_VV	6.126	n/a	<>	n/a	-999	6	[0, 0, 0]	n/a	catFR1	0	R1398J
1055.581	2.341	1605877	REC_WORD	7.883	n/a	EVERGREEN	Trees	10	6	[0, 0, 0]	n/a	catFR1	0	R1398J
1057.922	3.409	1608218	REC_WORD_VV	10.224	n/a	<>	n/a	-999	6	[0, 0, 0]	n/a	catFR1	0	R1398J
1061.331	1.93	1611627	REC_WORD	13.633	n/a	CAKE	n/a	-999	6	[0, 0, 0]	n/a	catFR1	0	R1398J
1063.261	0.922	1613557	REC_WORD_VV	15.563	n/a	<>	n/a	-999	6	[0, 0, 0]	n/a	catFR1	0	R1398J
1064.183	2.19	1614479	REC_WORD	16.485	n/a	BROWNIES	Desserts	4	6	[0, 0, 0]	n/a	catFR1	0	R1398J
1066.373	2.19	1616668	REC_WORD_VV	18.675	n/a	<>	n/a	-999	6	[0, 0, 0]	n/a	catFR1	0	R1398J
1068.563	1.695	1618858	REC_WORD	20.865	n/a	MOUSSE	Desserts	12	6	[0, 0, 0]	n/a	catFR1	0	R1398J
1070.258	2.984	1620553	REC_WORD_VV	22.56	n/a	<>	n/a	-999	6	[0, 0, 0]	n/a	catFR1	0	R1398J
1073.242	2.292	1623537	REC_WORD	25.544	n/a	BLUEBIRD	Birds	1	6	[0, 0, 0]	n/a	catFR1	0	R1398J
1075.534	2.399	1625829	REC_WORD_VV	27.836	n/a	<>	n/a	-999	6	[0, 0, 0]	n/a	catFR1	0	R1398J
1077.933	2.3	1628226	REC_END	n/a	n/a	n/a	n/a	-999	6	[0, 0, 0]	n/a	catFR1	0	R1398J
1080.233	10.361	1630532	COUNTDOWN_START	n/a	n/a	n/a	n/a	-999	7	[0, 0, 0]	n/a	catFR1	0	R1398J
1090.594	0.0	1640891	COUNTDOWN_END	n/a	n/a	n/a	n/a	-999	7	[0, 0, 0]	n/a	catFR1	0	R1398J
1090.594	2.005	1640891	ENCODING_START	n/a	n/a	n/a	n/a	-999	7	[0, 0, 0]	n/a	catFR1	0	R1398J
1092.599	1.616	1642891	WORD	n/a	wordpools/wordpool_categorized_EN.txt	BEE	Insects	1	7	[0, 0, 0]	n/a	catFR1	0	R1398J
1094.215	0.801	1644511	WORD_OFF	n/a	n/a	BEE	Insects	1	7	[0, 0, 0]	n/a	catFR1	0	R1398J
1095.016	1.6	1645313	WORD	n/a	wordpools/wordpool_categorized_EN.txt	LADYBUG	Insects	2	7	[0, 0, 0]	n/a	catFR1	0	R1398J
1096.616	0.832	1646909	WORD_OFF	n/a	n/a	LADYBUG	Insects	2	7	[0, 0, 0]	n/a	catFR1	0	R1398J
1097.448	1.602	1647744	WORD	n/a	wordpools/wordpool_categorized_EN.txt	MOTORCYCLE	Vehicles	3	7	[0, 0, 0]	n/a	catFR1	0	R1398J
1099.05	0.882	1649347	WORD_OFF	n/a	n/a	MOTORCYCLE	Vehicles	3	7	[0, 0, 0]	n/a	catFR1	0	R1398J
1099.932	1.601	1650224	WORD	n/a	wordpools/wordpool_categorized_EN.txt	TRUCK	Vehicles	4	7	[0, 0, 0]	n/a	catFR1	0	R1398J
1101.533	0.933	1651827	WORD_OFF	n/a	n/a	TRUCK	Vehicles	4	7	[0, 0, 0]	n/a	catFR1	0	R1398J
1102.466	1.6	1652762	WORD	n/a	wordpools/wordpool_categorized_EN.txt	STEREO	Electronics	5	7	[0, 0, 0]	n/a	catFR1	0	R1398J
1104.066	0.983	1654357	WORD_OFF	n/a	n/a	STEREO	Electronics	5	7	[0, 0, 0]	n/a	catFR1	0	R1398J
1105.049	1.6	1655341	WORD	n/a	wordpools/wordpool_categorized_EN.txt	PRINTER	Electronics	6	7	[0, 0, 0]	n/a	catFR1	0	R1398J
1106.649	0.934	1656944	WORD_OFF	n/a	n/a	PRINTER	Electronics	6	7	[0, 0, 0]	n/a	catFR1	0	R1398J
1107.583	1.6	1657879	WORD	n/a	wordpools/wordpool_categorized_EN.txt	BIKE	Vehicles	7	7	[0, 0, 0]	n/a	catFR1	0	R1398J
1109.183	0.783	1659474	WORD_OFF	n/a	n/a	BIKE	Vehicles	7	7	[0, 0, 0]	n/a	catFR1	0	R1398J
1109.966	1.6	1660259	WORD	n/a	wordpools/wordpool_categorized_EN.txt	BUS	Vehicles	8	7	[0, 0, 0]	n/a	catFR1	0	R1398J
1111.566	0.799	1661863	WORD_OFF	n/a	n/a	BUS	Vehicles	8	7	[0, 0, 0]	n/a	catFR1	0	R1398J
1112.365	1.601	1662657	WORD	n/a	wordpools/wordpool_categorized_EN.txt	SCANNER	Electronics	9	7	[0, 0, 0]	n/a	catFR1	0	R1398J
1113.966	0.916	1664260	WORD_OFF	n/a	n/a	SCANNER	Electronics	9	7	[0, 0, 0]	n/a	catFR1	0	R1398J
1114.882	1.601	1665178	WORD	n/a	wordpools/wordpool_categorized_EN.txt	PHONE	Electronics	10	7	[0, 0, 0]	n/a	catFR1	0	R1398J
1116.483	0.849	1666774	WORD_OFF	n/a	n/a	PHONE	Electronics	10	7	[0, 0, 0]	n/a	catFR1	0	R1398J
1117.332	1.601	1667625	WORD	n/a	wordpools/wordpool_categorized_EN.txt	BUTTERFLY	Insects	11	7	[0, 0, 0]	n/a	catFR1	0	R1398J
1118.933	0.933	1669229	WORD_OFF	n/a	n/a	BUTTERFLY	Insects	11	7	[0, 0, 0]	n/a	catFR1	0	R1398J
1119.866	1.616	1670163	WORD	n/a	wordpools/wordpool_categorized_EN.txt	FLY	Insects	12	7	[0, 0, 0]	n/a	catFR1	0	R1398J
1121.482	0.001	1671775	WORD_OFF	n/a	n/a	FLY	Insects	12	7	[0, 0, 0]	n/a	catFR1	0	R1398J
1121.483	0.0	1671775	ENCODING_END	n/a	n/a	n/a	n/a	-999	7	[0, 0, 0]	n/a	catFR1	0	R1398J
1121.482	0.001	1671775	PROB	3.867	n/a	n/a	n/a	-999	7	[8, 5, 1]	14.0	catFR1	0	R1398J
1121.483	0.0	1671776	START	n/a	n/a	n/a	n/a	-999	7	[-999, -999, -999]	n/a	catFR1	0	R1398J
1121.483	3.883	1671783	DISTRACT_START	n/a	n/a	n/a	n/a	-999	7	[0, 0, 0]	n/a	catFR1	0	R1398J
1125.366	3.567	1675659	PROB	3.55	n/a	n/a	n/a	-999	7	[5, 7, 8]	20.0	catFR1	0	R1398J
1128.933	3.851	1679226	PROB	3.833	n/a	n/a	n/a	-999	7	[2, 3, 8]	13.0	catFR1	0	R1398J
1132.784	3.132	1683077	PROB	3.115	n/a	n/a	n/a	-999	7	[5, 5, 4]	14.0	catFR1	0	R1398J
1135.916	3.1	1686209	PROB	3.083	n/a	n/a	n/a	-999	7	[1, 6, 5]	12.0	catFR1	0	R1398J
1139.016	3.033	1689308	PROB	3.017	n/a	n/a	n/a	-999	7	[6, 8, 2]	16.0	catFR1	0	R1398J
1142.049	0.0	1692341	STOP	n/a	n/a	n/a	n/a	-999	7	[-999, -999, -999]	n/a	catFR1	0	R1398J
1142.049	2.283	1692342	DISTRACT_END	n/a	n/a	n/a	n/a	-999	7	[0, 0, 0]	n/a	catFR1	0	R1398J
1144.332	0.415	1694624	REC_START	n/a	n/a	n/a	n/a	-999	7	[0, 0, 0]	n/a	catFR1	0	R1398J
1144.747	1.64	1695039	REC_WORD_VV	0.415	n/a	<>	n/a	-999	7	[0, 0, 0]	n/a	catFR1	0	R1398J
1146.387	1.225	1696679	REC_WORD	2.055	n/a	BEE	Insects	1	7	[0, 0, 0]	n/a	catFR1	0	R1398J
1147.612	5.634	1697904	REC_WORD_VV	3.28	n/a	<>	n/a	-999	7	[0, 0, 0]	n/a	catFR1	0	R1398J
1153.246	0.422	1703538	REC_WORD	8.914	n/a	PHONE	Electronics	10	7	[0, 0, 0]	n/a	catFR1	0	R1398J
1153.668	1.894	1703960	REC_WORD	9.336	n/a	SCANNER	Electronics	9	7	[0, 0, 0]	n/a	catFR1	0	R1398J
1155.562	10.673	1705854	REC_WORD_VV	11.23	n/a	<>	n/a	-999	7	[0, 0, 0]	n/a	catFR1	0	R1398J
1166.235	5.668	1716526	REC_WORD_VV	21.903	n/a	<>	n/a	-999	7	[0, 0, 0]	n/a	catFR1	0	R1398J
1171.903	0.458	1722194	REC_WORD	27.571	n/a	WRENCH	Tools	-999	7	[0, 0, 0]	n/a	catFR1	0	R1398J
1172.361	1.134	1722652	REC_WORD_VV	28.029	n/a	<>	n/a	-999	7	[0, 0, 0]	n/a	catFR1	0	R1398J
1173.495	1.073	1723786	REC_WORD_VV	29.163	n/a	<>	n/a	-999	7	[0, 0, 0]	n/a	catFR1	0	R1398J
1174.568	1.814	1724855	REC_END	n/a	n/a	n/a	n/a	-999	7	[0, 0, 0]	n/a	catFR1	0	R1398J
1176.382	10.362	1726674	COUNTDOWN_START	n/a	n/a	n/a	n/a	-999	8	[0, 0, 0]	n/a	catFR1	0	R1398J
1186.744	0.0	1737032	COUNTDOWN_END	n/a	n/a	n/a	n/a	-999	8	[0, 0, 0]	n/a	catFR1	0	R1398J
1186.744	2.071	1737040	ENCODING_START	n/a	n/a	n/a	n/a	-999	8	[0, 0, 0]	n/a	catFR1	0	R1398J
1188.815	1.601	1739107	WORD	n/a	wordpools/wordpool_categorized_EN.txt	SUEDE	Fabric	1	8	[0, 0, 0]	n/a	catFR1	0	R1398J
1190.416	0.983	1740711	WORD_OFF	n/a	n/a	SUEDE	Fabric	1	8	[0, 0, 0]	n/a	catFR1	0	R1398J
1191.399	1.617	1741694	WORD	n/a	wordpools/wordpool_categorized_EN.txt	LEATHER	Fabric	2	8	[0, 0, 0]	n/a	catFR1	0	R1398J
1193.016	0.966	1743306	WORD_OFF	n/a	n/a	LEATHER	Fabric	2	8	[0, 0, 0]	n/a	catFR1	0	R1398J
1193.982	1.617	1744273	WORD	n/a	wordpools/wordpool_categorized_EN.txt	FOOT	BodyParts	3	8	[0, 0, 0]	n/a	catFR1	0	R1398J
1195.599	0.984	1745894	WORD_OFF	n/a	n/a	FOOT	BodyParts	3	8	[0, 0, 0]	n/a	catFR1	0	R1398J
1196.583	1.616	1746877	WORD	n/a	wordpools/wordpool_categorized_EN.txt	NOSE	BodyParts	4	8	[0, 0, 0]	n/a	catFR1	0	R1398J
1198.199	0.833	1748489	WORD_OFF	n/a	n/a	NOSE	BodyParts	4	8	[0, 0, 0]	n/a	catFR1	0	R1398J
1199.032	1.601	1749324	WORD	n/a	wordpools/wordpool_categorized_EN.txt	MOPED	Vehicles	5	8	[0, 0, 0]	n/a	catFR1	0	R1398J
1200.633	0.866	1750920	WORD_OFF	n/a	n/a	MOPED	Vehicles	5	8	[0, 0, 0]	n/a	catFR1	0	R1398J
1201.499	1.617	1751788	WORD	n/a	wordpools/wordpool_categorized_EN.txt	BOAT	Vehicles	6	8	[0, 0, 0]	n/a	catFR1	0	R1398J
1203.116	0.833	1753408	WORD_OFF	n/a	n/a	BOAT	Vehicles	6	8	[0, 0, 0]	n/a	catFR1	0	R1398J
1203.949	1.6	1754243	WORD	n/a	wordpools/wordpool_categorized_EN.txt	TOE	BodyParts	7	8	[0, 0, 0]	n/a	catFR1	0	R1398J
1205.549	0.9	1755839	WORD_OFF	n/a	n/a	TOE	BodyParts	7	8	[0, 0, 0]	n/a	catFR1	0	R1398J
1206.449	1.6	1756740	WORD	n/a	wordpools/wordpool_categorized_EN.txt	EYE	BodyParts	8	8	[0, 0, 0]	n/a	catFR1	0	R1398J
1208.049	0.9	1758343	WORD_OFF	n/a	n/a	EYE	BodyParts	8	8	[0, 0, 0]	n/a	catFR1	0	R1398J
1208.949	1.6	1759236	WORD	n/a	wordpools/wordpool_categorized_EN.txt	SILK	Fabric	9	8	[0, 0, 0]	n/a	catFR1	0	R1398J
1210.549	0.917	1760840	WORD_OFF	n/a	n/a	SILK	Fabric	9	8	[0, 0, 0]	n/a	catFR1	0	R1398J
1211.466	1.617	1761757	WORD	n/a	wordpools/wordpool_categorized_EN.txt	VELVET	Fabric	10	8	[0, 0, 0]	n/a	catFR1	0	R1398J
1213.083	0.783	1763369	WORD_OFF	n/a	n/a	VELVET	Fabric	10	8	[0, 0, 0]	n/a	catFR1	0	R1398J
1213.866	1.616	1764155	WORD	n/a	wordpools/wordpool_categorized_EN.txt	VAN	Vehicles	11	8	[0, 0, 0]	n/a	catFR1	0	R1398J
1215.482	0.983	1765775	WORD_OFF	n/a	n/a	VAN	Vehicles	11	8	[0, 0, 0]	n/a	catFR1	0	R1398J
1216.465	1.6	1766751	WORD	n/a	wordpools/wordpool_categorized_EN.txt	PLANE	Vehicles	12	8	[0, 0, 0]	n/a	catFR1	0	R1398J
1218.065	0.001	1768354	WORD_OFF	n/a	n/a	PLANE	Vehicles	12	8	[0, 0, 0]	n/a	catFR1	0	R1398J
1218.066	0.0	1768354	ENCODING_END	n/a	n/a	n/a	n/a	-999	8	[0, 0, 0]	n/a	catFR1	0	R1398J
1218.066	0.0	1768355	START	n/a	n/a	n/a	n/a	-999	8	[-999, -999, -999]	n/a	catFR1	0	R1398J
1218.066	0.0	1768355	PROB	6.617	n/a	n/a	n/a	-999	8	[4, 8, 3]	15.0	catFR1	0	R1398J
1218.066	6.633	1768363	DISTRACT_START	n/a	n/a	n/a	n/a	-999	8	[0, 0, 0]	n/a	catFR1	0	R1398J
1224.699	4.068	1774988	PROB	4.05	n/a	n/a	n/a	-999	8	[2, 8, 7]	17.0	catFR1	0	R1398J
1228.767	3.182	1779056	PROB	3.166	n/a	n/a	n/a	-999	8	[7, 1, 6]	14.0	catFR1	0	R1398J
1231.949	3.518	1782238	PROB	3.499	n/a	n/a	n/a	-999	8	[7, 2, 2]	11.0	catFR1	0	R1398J
1235.467	3.132	1785756	PROB	3.115	n/a	n/a	n/a	-999	8	[8, 8, 3]	19.0	catFR1	0	R1398J
1238.599	0.0	1788887	STOP	n/a	n/a	n/a	n/a	-999	8	[-999, -999, -999]	n/a	catFR1	0	R1398J
1238.599	2.234	1788889	DISTRACT_END	n/a	n/a	n/a	n/a	-999	8	[0, 0, 0]	n/a	catFR1	0	R1398J
1240.833	0.957	1791120	REC_START	n/a	n/a	n/a	n/a	-999	8	[0, 0, 0]	n/a	catFR1	0	R1398J
1241.79	0.212	1792078	REC_WORD_VV	0.957	n/a	<>	n/a	-999	8	[0, 0, 0]	n/a	catFR1	0	R1398J
1242.002	0.687	1792290	REC_WORD	1.169	n/a	SUEDE	Fabric	1	8	[0, 0, 0]	n/a	catFR1	0	R1398J
1242.689	0.754	1792977	REC_WORD	1.856	n/a	LEATHER	Fabric	2	8	[0, 0, 0]	n/a	catFR1	0	R1398J
1243.443	1.658	1793731	REC_WORD	2.61	n/a	SHOES	Clothing	-999	8	[0, 0, 0]	n/a	catFR1	0	R1398J
1245.101	1.0	1795389	REC_WORD	4.268	n/a	NOSE	BodyParts	4	8	[0, 0, 0]	n/a	catFR1	0	R1398J
1246.101	0.618	1796389	REC_WORD_VV	5.268	n/a	<>	n/a	-999	8	[0, 0, 0]	n/a	catFR1	0	R1398J
1246.719	2.044	1797007	REC_WORD	5.886	n/a	EYE	BodyParts	8	8	[0, 0, 0]	n/a	catFR1	0	R1398J
1248.763	2.826	1799051	REC_WORD_VV	7.93	n/a	<>	n/a	-999	8	[0, 0, 0]	n/a	catFR1	0	R1398J
1251.589	3.925	1801877	REC_WORD_VV	10.756	n/a	<>	n/a	-999	8	[0, 0, 0]	n/a	catFR1	0	R1398J
1255.514	5.895	1805802	REC_WORD_VV	14.681	n/a	<>	n/a	-999	8	[0, 0, 0]	n/a	catFR1	0	R1398J
1261.409	0.14	1811697	REC_WORD_VV	20.576	n/a	<>	n/a	-999	8	[0, 0, 0]	n/a	catFR1	0	R1398J
1261.549	2.99	1811837	REC_WORD	20.716	n/a	FABRIC	n/a	-999	8	[0, 0, 0]	n/a	catFR1	0	R1398J
1264.539	0.283	1814826	REC_WORD	23.706	n/a	VAN	Vehicles	11	8	[0, 0, 0]	n/a	catFR1	0	R1398J
1264.822	3.801	1815109	REC_WORD_VV	23.989	n/a	<>	n/a	-999	8	[0, 0, 0]	n/a	catFR1	0	R1398J
1268.623	2.438	1818910	REC_WORD_VV	27.79	n/a	<>	n/a	-999	8	[0, 0, 0]	n/a	catFR1	0	R1398J
1271.061	1.755	1821344	REC_END	n/a	n/a	n/a	n/a	-999	8	[0, 0, 0]	n/a	catFR1	0	R1398J
1272.816	10.365	1823104	COUNTDOWN_START	n/a	n/a	n/a	n/a	-999	9	[0, 0, 0]	n/a	catFR1	0	R1398J
1283.181	0.0	1833471	COUNTDOWN_END	n/a	n/a	n/a	n/a	-999	9	[0, 0, 0]	n/a	catFR1	0	R1398J
1283.181	2.068	1833471	ENCODING_START	n/a	n/a	n/a	n/a	-999	9	[0, 0, 0]	n/a	catFR1	0	R1398J
1285.249	1.6	1835537	WORD	n/a	wordpools/wordpool_categorized_EN.txt	ROOM	Building	1	9	[0, 0, 0]	n/a	catFR1	0	R1398J
1286.849	0.916	1837133	WORD_OFF	n/a	n/a	ROOM	Building	1	9	[0, 0, 0]	n/a	catFR1	0	R1398J
1287.765	1.601	1838051	WORD	n/a	wordpools/wordpool_categorized_EN.txt	FLOOR	Building	2	9	[0, 0, 0]	n/a	catFR1	0	R1398J
1289.366	0.9	1839654	WORD_OFF	n/a	n/a	FLOOR	Building	2	9	[0, 0, 0]	n/a	catFR1	0	R1398J
1290.266	1.617	1840555	WORD	n/a	wordpools/wordpool_categorized_EN.txt	CARDINAL	Birds	3	9	[0, 0, 0]	n/a	catFR1	0	R1398J
1291.883	0.832	1842167	WORD_OFF	n/a	n/a	CARDINAL	Birds	3	9	[0, 0, 0]	n/a	catFR1	0	R1398J
1292.715	1.601	1843002	WORD	n/a	wordpools/wordpool_categorized_EN.txt	PIGEON	Birds	4	9	[0, 0, 0]	n/a	catFR1	0	R1398J
1294.316	0.851	1844606	WORD_OFF	n/a	n/a	PIGEON	Birds	4	9	[0, 0, 0]	n/a	catFR1	0	R1398J
1295.167	1.615	1845457	WORD	n/a	wordpools/wordpool_categorized_EN.txt	BLOCKS	Toys	5	9	[0, 0, 0]	n/a	catFR1	0	R1398J
1296.782	0.966	1847069	WORD_OFF	n/a	n/a	BLOCKS	Toys	5	9	[0, 0, 0]	n/a	catFR1	0	R1398J
1297.748	1.601	1848037	WORD	n/a	wordpools/wordpool_categorized_EN.txt	FOOTBALL	Toys	6	9	[0, 0, 0]	n/a	catFR1	0	R1398J
1299.349	0.818	1849632	WORD_OFF	n/a	n/a	FOOTBALL	Toys	6	9	[0, 0, 0]	n/a	catFR1	0	R1398J
1300.167	1.599	1850451	WORD	n/a	wordpools/wordpool_categorized_EN.txt	HALLWAY	Building	7	9	[0, 0, 0]	n/a	catFR1	0	R1398J
1301.766	0.917	1852054	WORD_OFF	n/a	n/a	HALLWAY	Building	7	9	[0, 0, 0]	n/a	catFR1	0	R1398J
1302.683	1.6	1852972	WORD	n/a	wordpools/wordpool_categorized_EN.txt	WALL	Building	8	9	[0, 0, 0]	n/a	catFR1	0	R1398J
1304.283	0.884	1854567	WORD_OFF	n/a	n/a	WALL	Building	8	9	[0, 0, 0]	n/a	catFR1	0	R1398J
1305.167	1.599	1855452	WORD	n/a	wordpools/wordpool_categorized_EN.txt	SPARROW	Birds	9	9	[0, 0, 0]	n/a	catFR1	0	R1398J
1306.766	0.817	1857056	WORD_OFF	n/a	n/a	SPARROW	Birds	9	9	[0, 0, 0]	n/a	catFR1	0	R1398J
1307.583	1.6	1857866	WORD	n/a	wordpools/wordpool_categorized_EN.txt	FINCH	Birds	10	9	[0, 0, 0]	n/a	catFR1	0	R1398J
1309.183	0.967	1859469	WORD_OFF	n/a	n/a	FINCH	Birds	10	9	[0, 0, 0]	n/a	catFR1	0	R1398J
1310.15	1.616	1860437	WORD	n/a	wordpools/wordpool_categorized_EN.txt	FRISBEE	Toys	11	9	[0, 0, 0]	n/a	catFR1	0	R1398J
1311.766	0.916	1862049	WORD_OFF	n/a	n/a	FRISBEE	Toys	11	9	[0, 0, 0]	n/a	catFR1	0	R1398J
1312.682	1.6	1862966	WORD	n/a	wordpools/wordpool_categorized_EN.txt	BASEBALL	Toys	12	9	[0, 0, 0]	n/a	catFR1	0	R1398J
1314.282	0.001	1864567	PROB	4.05	n/a	n/a	n/a	-999	9	[5, 3, 7]	15.0	catFR1	0	R1398J
1314.283	0.0	1864568	START	n/a	n/a	n/a	n/a	-999	9	[-999, -999, -999]	n/a	catFR1	0	R1398J
1314.282	0.001	1864570	WORD_OFF	n/a	n/a	BASEBALL	Toys	12	9	[0, 0, 0]	n/a	catFR1	0	R1398J
1314.283	0.0	1864570	ENCODING_END	n/a	n/a	n/a	n/a	-999	9	[0, 0, 0]	n/a	catFR1	0	R1398J
1314.283	4.066	1864570	DISTRACT_START	n/a	n/a	n/a	n/a	-999	9	[0, 0, 0]	n/a	catFR1	0	R1398J
1318.349	5.018	1868634	PROB	5.0	n/a	n/a	n/a	-999	9	[4, 6, 6]	16.0	catFR1	0	R1398J
1323.367	3.632	1873652	PROB	3.616	n/a	n/a	n/a	-999	9	[4, 3, 2]	9.0	catFR1	0	R1398J
1326.999	4.001	1877284	PROB	3.984	n/a	n/a	n/a	-999	9	[8, 5, 6]	19.0	catFR1	0	R1398J
1331.0	3.582	1881285	PROB	3.566	n/a	n/a	n/a	-999	9	[8, 4, 3]	15.0	catFR1	0	R1398J
1334.582	0.0	1884865	DISTRACT_END	n/a	n/a	n/a	n/a	-999	9	[0, 0, 0]	n/a	catFR1	0	R1398J
1334.582	2.367	1884867	STOP	n/a	n/a	n/a	n/a	-999	9	[-999, -999, -999]	n/a	catFR1	0	R1398J
1336.949	1.457	1887237	REC_START	n/a	n/a	n/a	n/a	-999	9	[0, 0, 0]	n/a	catFR1	0	R1398J
1338.406	0.697	1888690	REC_WORD_VV	1.457	n/a	<>	n/a	-999	9	[0, 0, 0]	n/a	catFR1	0	R1398J
1339.103	1.195	1889387	REC_WORD	2.154	n/a	CARDINAL	Birds	3	9	[0, 0, 0]	n/a	catFR1	0	R1398J
1340.298	1.809	1890582	REC_WORD	3.349	n/a	FINCH	Birds	10	9	[0, 0, 0]	n/a	catFR1	0	R1398J
1342.107	4.934	1892391	REC_WORD_VV	5.158	n/a	<>	n/a	-999	9	[0, 0, 0]	n/a	catFR1	0	R1398J
1347.041	1.126	1897325	REC_WORD_VV	10.092	n/a	<>	n/a	-999	9	[0, 0, 0]	n/a	catFR1	0	R1398J
1348.167	1.735	1898451	REC_WORD	11.218	n/a	ROOM	Building	1	9	[0, 0, 0]	n/a	catFR1	0	R1398J
1349.902	1.997	1900186	REC_WORD	12.953	n/a	WALL	Building	8	9	[0, 0, 0]	n/a	catFR1	0	R1398J
1351.899	14.904	1902183	REC_WORD_VV	14.95	n/a	<>	n/a	-999	9	[0, 0, 0]	n/a	catFR1	0	R1398J
1366.803	0.391	1917086	REC_WORD_VV	29.854	n/a	<>	n/a	-999	9	[0, 0, 0]	n/a	catFR1	0	R1398J
1367.194	2.706	1917477	REC_END	n/a	n/a	n/a	n/a	-999	9	[0, 0, 0]	n/a	catFR1	0	R1398J
1369.9	10.364	1920180	COUNTDOWN_START	n/a	n/a	n/a	n/a	-999	10	[0, 0, 0]	n/a	catFR1	0	R1398J
1380.264	0.001	1930546	COUNTDOWN_END	n/a	n/a	n/a	n/a	-999	10	[0, 0, 0]	n/a	catFR1	0	R1398J
1380.265	2.135	1930546	ENCODING_START	n/a	n/a	n/a	n/a	-999	10	[0, 0, 0]	n/a	catFR1	0	R1398J
1382.4	1.6	1932679	WORD	n/a	wordpools/wordpool_categorized_EN.txt	DOVE	Birds	1	10	[0, 0, 0]	n/a	catFR1	0	R1398J
1384.0	0.999	1934283	WORD_OFF	n/a	n/a	DOVE	Birds	1	10	[0, 0, 0]	n/a	catFR1	0	R1398J
1384.999	1.617	1935283	WORD	n/a	wordpools/wordpool_categorized_EN.txt	GOOSE	Birds	2	10	[0, 0, 0]	n/a	catFR1	0	R1398J
1386.616	0.85	1936895	WORD_OFF	n/a	n/a	GOOSE	Birds	2	10	[0, 0, 0]	n/a	catFR1	0	R1398J
1387.466	1.617	1937746	WORD	n/a	wordpools/wordpool_categorized_EN.txt	SPRUCE	Trees	3	10	[0, 0, 0]	n/a	catFR1	0	R1398J
1389.083	1.0	1939367	WORD_OFF	n/a	n/a	SPRUCE	Trees	3	10	[0, 0, 0]	n/a	catFR1	0	R1398J
1390.083	1.6	1940367	WORD	n/a	wordpools/wordpool_categorized_EN.txt	OAK	Trees	4	10	[0, 0, 0]	n/a	catFR1	0	R1398J
1391.683	0.883	1941962	WORD_OFF	n/a	n/a	OAK	Trees	4	10	[0, 0, 0]	n/a	catFR1	0	R1398J
1392.566	1.601	1942847	WORD	n/a	wordpools/wordpool_categorized_EN.txt	LIME	Fruit	5	10	[0, 0, 0]	n/a	catFR1	0	R1398J
1394.167	0.999	1944451	WORD_OFF	n/a	n/a	LIME	Fruit	5	10	[0, 0, 0]	n/a	catFR1	0	R1398J
1395.166	1.617	1945451	WORD	n/a	wordpools/wordpool_categorized_EN.txt	BLUEBERRY	Fruit	6	10	[0, 0, 0]	n/a	catFR1	0	R1398J
1396.783	0.9	1947063	WORD_OFF	n/a	n/a	BLUEBERRY	Fruit	6	10	[0, 0, 0]	n/a	catFR1	0	R1398J
1397.683	1.617	1947964	WORD	n/a	wordpools/wordpool_categorized_EN.txt	WILLOW	Trees	7	10	[0, 0, 0]	n/a	catFR1	0	R1398J
1399.3	0.866	1949584	WORD_OFF	n/a	n/a	WILLOW	Trees	7	10	[0, 0, 0]	n/a	catFR1	0	R1398J
1400.166	1.6	1950452	WORD	n/a	wordpools/wordpool_categorized_EN.txt	CEDAR	Trees	8	10	[0, 0, 0]	n/a	catFR1	0	R1398J
1401.766	0.934	1952048	WORD_OFF	n/a	n/a	CEDAR	Trees	8	10	[0, 0, 0]	n/a	catFR1	0	R1398J
1402.7	1.6	1952982	WORD	n/a	wordpools/wordpool_categorized_EN.txt	CHERRY	Fruit	9	10	[0, 0, 0]	n/a	catFR1	0	R1398J
1404.3	0.866	1954586	WORD_OFF	n/a	n/a	CHERRY	Fruit	9	10	[0, 0, 0]	n/a	catFR1	0	R1398J
1405.166	1.6	1955445	WORD	n/a	wordpools/wordpool_categorized_EN.txt	LEMON	Fruit	10	10	[0, 0, 0]	n/a	catFR1	0	R1398J
1406.766	1.0	1957049	WORD_OFF	n/a	n/a	LEMON	Fruit	10	10	[0, 0, 0]	n/a	catFR1	0	R1398J
1407.766	1.601	1958049	WORD	n/a	wordpools/wordpool_categorized_EN.txt	DUCK	Birds	11	10	[0, 0, 0]	n/a	catFR1	0	R1398J
1409.367	0.816	1959645	WORD_OFF	n/a	n/a	DUCK	Birds	11	10	[0, 0, 0]	n/a	catFR1	0	R1398J
1410.183	1.617	1960463	WORD	n/a	wordpools/wordpool_categorized_EN.txt	CROW	Birds	12	10	[0, 0, 0]	n/a	catFR1	0	R1398J
1411.8	0.001	1962081	PROB	5.115	n/a	n/a	n/a	-999	10	[8, 6, 3]	17.0	catFR1	0	R1398J
1411.801	0.0	1962082	START	n/a	n/a	n/a	n/a	-999	10	[-999, -999, -999]	n/a	catFR1	0	R1398J
1411.8	0.001	1962084	WORD_OFF	n/a	n/a	CROW	Birds	12	10	[0, 0, 0]	n/a	catFR1	0	R1398J
1411.801	0.0	1962084	ENCODING_END	n/a	n/a	n/a	n/a	-999	10	[0, 0, 0]	n/a	catFR1	0	R1398J
1411.801	5.133	1962084	DISTRACT_START	n/a	n/a	n/a	n/a	-999	10	[0, 0, 0]	n/a	catFR1	0	R1398J
1416.934	3.449	1967215	PROB	3.433	n/a	n/a	n/a	-999	10	[4, 1, 7]	12.0	catFR1	0	R1398J
1420.383	2.667	1970664	PROB	2.65	n/a	n/a	n/a	-999	10	[1, 2, 8]	11.0	catFR1	0	R1398J
1423.05	3.417	1973331	PROB	3.4	n/a	n/a	n/a	-999	10	[5, 8, 7]	20.0	catFR1	0	R1398J
1426.467	3.033	1976748	PROB	3.016	n/a	n/a	n/a	-999	10	[7, 7, 8]	22.0	catFR1	0	R1398J
1429.5	3.282	1979781	PROB	3.265	n/a	n/a	n/a	-999	10	[2, 4, 8]	14.0	catFR1	0	R1398J
1432.782	0.0	1983063	STOP	n/a	n/a	n/a	n/a	-999	10	[-999, -999, -999]	n/a	catFR1	0	R1398J
1432.782	2.084	1983064	DISTRACT_END	n/a	n/a	n/a	n/a	-999	10	[0, 0, 0]	n/a	catFR1	0	R1398J
1434.866	0.896	1985147	REC_START	n/a	n/a	n/a	n/a	-999	10	[0, 0, 0]	n/a	catFR1	0	R1398J
1435.762	6.591	1986042	REC_WORD_VV	0.896	n/a	<>	n/a	-999	10	[0, 0, 0]	n/a	catFR1	0	R1398J
1442.353	1.0	1992633	REC_WORD	7.487	n/a	CYPRESS	Trees	-999	10	[0, 0, 0]	n/a	catFR1	0	R1398J
1443.353	0.976	1993633	REC_WORD_VV	8.487	n/a	<>	n/a	-999	10	[0, 0, 0]	n/a	catFR1	0	R1398J
1444.329	1.155	1994609	REC_WORD_VV	9.463	n/a	<>	n/a	-999	10	[0, 0, 0]	n/a	catFR1	0	R1398J
1445.484	1.673	1995764	REC_WORD	10.618	n/a	CHERRY	Fruit	9	10	[0, 0, 0]	n/a	catFR1	0	R1398J
1447.157	1.613	1997437	REC_WORD_VV	12.291	n/a	<>	n/a	-999	10	[0, 0, 0]	n/a	catFR1	0	R1398J
1448.77	2.591	1999050	REC_WORD	13.904	n/a	SPRUCE	Trees	3	10	[0, 0, 0]	n/a	catFR1	0	R1398J
1451.361	6.13	2001641	REC_WORD_VV	16.495	n/a	<>	n/a	-999	10	[0, 0, 0]	n/a	catFR1	0	R1398J
1457.491	2.006	2007771	REC_WORD	22.625	n/a	DOVE	Birds	1	10	[0, 0, 0]	n/a	catFR1	0	R1398J
1459.497	5.605	2009776	REC_WORD_VV	24.631	n/a	<>	n/a	-999	10	[0, 0, 0]	n/a	catFR1	0	R1398J
1465.102	3.447	2015379	REC_END	n/a	n/a	n/a	n/a	-999	10	[0, 0, 0]	n/a	catFR1	0	R1398J
1468.549	10.362	2018826	COUNTDOWN_START	n/a	n/a	n/a	n/a	-999	11	[0, 0, 0]	n/a	catFR1	0	R1398J
1478.911	0.0	2029192	COUNTDOWN_END	n/a	n/a	n/a	n/a	-999	11	[0, 0, 0]	n/a	catFR1	0	R1398J
1478.911	2.072	2029192	ENCODING_START	n/a	n/a	n/a	n/a	-999	11	[0, 0, 0]	n/a	catFR1	0	R1398J
1480.983	1.6	2031259	WORD	n/a	wordpools/wordpool_categorized_EN.txt	PUDDING	Desserts	1	11	[0, 0, 0]	n/a	catFR1	0	R1398J
1482.583	0.983	2032863	WORD_OFF	n/a	n/a	PUDDING	Desserts	1	11	[0, 0, 0]	n/a	catFR1	0	R1398J
1483.566	1.617	2033846	WORD	n/a	wordpools/wordpool_categorized_EN.txt	CAKE	Desserts	2	11	[0, 0, 0]	n/a	catFR1	0	R1398J
1485.183	0.783	2035458	WORD_OFF	n/a	n/a	CAKE	Desserts	2	11	[0, 0, 0]	n/a	catFR1	0	R1398J
1485.966	1.616	2036244	WORD	n/a	wordpools/wordpool_categorized_EN.txt	DOLL	Toys	3	11	[0, 0, 0]	n/a	catFR1	0	R1398J
1487.582	0.867	2037864	WORD_OFF	n/a	n/a	DOLL	Toys	3	11	[0, 0, 0]	n/a	catFR1	0	R1398J
1488.449	1.6	2038724	WORD	n/a	wordpools/wordpool_categorized_EN.txt	DOLLHOUSE	Toys	4	11	[0, 0, 0]	n/a	catFR1	0	R1398J
1490.049	0.984	2040327	WORD_OFF	n/a	n/a	DOLLHOUSE	Toys	4	11	[0, 0, 0]	n/a	catFR1	0	R1398J
1491.033	1.616	2041311	WORD	n/a	wordpools/wordpool_categorized_EN.txt	CEILING	Building	5	11	[0, 0, 0]	n/a	catFR1	0	R1398J
1492.649	0.983	2042923	WORD_OFF	n/a	n/a	CEILING	Building	5	11	[0, 0, 0]	n/a	catFR1	0	R1398J
1493.632	1.601	2043907	WORD	n/a	wordpools/wordpool_categorized_EN.txt	DOOR	Building	6	11	[0, 0, 0]	n/a	catFR1	0	R1398J
1495.233	0.999	2045511	WORD_OFF	n/a	n/a	DOOR	Building	6	11	[0, 0, 0]	n/a	catFR1	0	R1398J
1496.232	1.601	2046511	WORD	n/a	wordpools/wordpool_categorized_EN.txt	COOKIE	Desserts	7	11	[0, 0, 0]	n/a	catFR1	0	R1398J
1497.833	0.85	2048106	WORD_OFF	n/a	n/a	COOKIE	Desserts	7	11	[0, 0, 0]	n/a	catFR1	0	R1398J
1498.683	1.617	2048958	WORD	n/a	wordpools/wordpool_categorized_EN.txt	PASTRY	Desserts	8	11	[0, 0, 0]	n/a	catFR1	0	R1398J
1500.3	0.9	2050578	WORD_OFF	n/a	n/a	PASTRY	Desserts	8	11	[0, 0, 0]	n/a	catFR1	0	R1398J
1501.2	1.599	2051479	WORD	n/a	wordpools/wordpool_categorized_EN.txt	PUZZLE	Toys	9	11	[0, 0, 0]	n/a	catFR1	0	R1398J
1502.799	0.9	2053075	WORD_OFF	n/a	n/a	PUZZLE	Toys	9	11	[0, 0, 0]	n/a	catFR1	0	R1398J
1503.699	1.6	2053976	WORD	n/a	wordpools/wordpool_categorized_EN.txt	BARBIE	Toys	10	11	[0, 0, 0]	n/a	catFR1	0	R1398J
1505.299	0.767	2055579	WORD_OFF	n/a	n/a	BARBIE	Toys	10	11	[0, 0, 0]	n/a	catFR1	0	R1398J
1506.066	1.616	2056340	WORD	n/a	wordpools/wordpool_categorized_EN.txt	BATHROOM	Building	11	11	[0, 0, 0]	n/a	catFR1	0	R1398J
1507.682	0.801	2057960	WORD_OFF	n/a	n/a	BATHROOM	Building	11	11	[0, 0, 0]	n/a	catFR1	0	R1398J
1508.483	1.617	2058762	WORD	n/a	wordpools/wordpool_categorized_EN.txt	FOUNDATION	Building	12	11	[0, 0, 0]	n/a	catFR1	0	R1398J
1510.1	0.0	2060374	WORD_OFF	n/a	n/a	FOUNDATION	Building	12	11	[0, 0, 0]	n/a	catFR1	0	R1398J
1510.1	0.001	2060377	PROB	6.483	n/a	n/a	n/a	-999	11	[5, 1, 8]	14.0	catFR1	0	R1398J
1510.101	0.0	2060378	START	n/a	n/a	n/a	n/a	-999	11	[-999, -999, -999]	n/a	catFR1	0	R1398J
1510.101	0.0	2060382	ENCODING_END	n/a	n/a	n/a	n/a	-999	11	[0, 0, 0]	n/a	catFR1	0	R1398J
1510.101	6.499	2060382	DISTRACT_START	n/a	n/a	n/a	n/a	-999	11	[0, 0, 0]	n/a	catFR1	0	R1398J
1516.6	2.966	2066877	PROB	2.949	n/a	n/a	n/a	-999	11	[5, 4, 3]	12.0	catFR1	0	R1398J
1519.566	3.268	2069843	PROB	3.249	n/a	n/a	n/a	-999	11	[4, 8, 5]	17.0	catFR1	0	R1398J
1522.834	3.282	2073111	PROB	3.266	n/a	n/a	n/a	-999	11	[1, 6, 7]	14.0	catFR1	0	R1398J
1526.116	3.15	2076393	PROB	3.132	n/a	n/a	n/a	-999	11	[1, 3, 3]	7.0	catFR1	0	R1398J
1529.266	5.416	2079543	PROB	5.4	n/a	n/a	n/a	-999	11	[6, 8, 7]	21.0	catFR1	0	R1398J
1534.682	0.0	2084958	STOP	n/a	n/a	n/a	n/a	-999	11	[-999, -999, -999]	n/a	catFR1	0	R1398J
1534.682	2.034	2084959	DISTRACT_END	n/a	n/a	n/a	n/a	-999	11	[0, 0, 0]	n/a	catFR1	0	R1398J
1536.716	1.562	2086993	REC_START	n/a	n/a	n/a	n/a	-999	11	[0, 0, 0]	n/a	catFR1	0	R1398J
1538.278	0.585	2088554	REC_WORD	1.562	n/a	DOLL	Toys	3	11	[0, 0, 0]	n/a	catFR1	0	R1398J
1538.863	1.172	2089139	REC_WORD	2.147	n/a	DOLLHOUSE	Toys	4	11	[0, 0, 0]	n/a	catFR1	0	R1398J
1540.035	0.797	2090311	REC_WORD	3.319	n/a	BARBIE	Toys	10	11	[0, 0, 0]	n/a	catFR1	0	R1398J
1540.832	1.182	2091108	REC_WORD	4.116	n/a	CEILING	Building	5	11	[0, 0, 0]	n/a	catFR1	0	R1398J
1542.014	1.668	2092290	REC_WORD	5.298	n/a	DOOR	Building	6	11	[0, 0, 0]	n/a	catFR1	0	R1398J
1543.682	0.586	2093958	REC_WORD_VV	6.966	n/a	<>	n/a	-999	11	[0, 0, 0]	n/a	catFR1	0	R1398J
1544.268	1.822	2094544	REC_WORD	7.552	n/a	COOKIE	Desserts	7	11	[0, 0, 0]	n/a	catFR1	0	R1398J
1546.09	2.086	2096366	REC_WORD	9.374	n/a	PASTRY	Desserts	8	11	[0, 0, 0]	n/a	catFR1	0	R1398J
1548.176	2.58	2098452	REC_WORD_VV	11.46	n/a	<>	n/a	-999	11	[0, 0, 0]	n/a	catFR1	0	R1398J
1550.756	1.35	2101032	REC_WORD	14.04	n/a	PUZZLE	Toys	9	11	[0, 0, 0]	n/a	catFR1	0	R1398J
1552.106	12.562	2102382	REC_WORD_VV	15.39	n/a	<>	n/a	-999	11	[0, 0, 0]	n/a	catFR1	0	R1398J
1564.668	1.0	2114943	REC_WORD_VV	27.952	n/a	<>	n/a	-999	11	[0, 0, 0]	n/a	catFR1	0	R1398J
1565.668	1.281	2115943	REC_WORD_VV	28.952	n/a	<>	n/a	-999	11	[0, 0, 0]	n/a	catFR1	0	R1398J
1566.949	1.668	2117224	REC_END	n/a	n/a	n/a	n/a	-999	11	[0, 0, 0]	n/a	catFR1	0	R1398J
1568.617	10.359	2118894	COUNTDOWN_START	n/a	n/a	n/a	n/a	-999	12	[0, 0, 0]	n/a	catFR1	0	R1398J
1578.976	0.0	2129252	COUNTDOWN_END	n/a	n/a	n/a	n/a	-999	12	[0, 0, 0]	n/a	catFR1	0	R1398J
1578.976	2.14	2129252	ENCODING_START	n/a	n/a	n/a	n/a	-999	12	[0, 0, 0]	n/a	catFR1	0	R1398J
1581.116	1.617	2131393	WORD	n/a	wordpools/wordpool_categorized_EN.txt	ORANGE	Fruit	1	12	[0, 0, 0]	n/a	catFR1	0	R1398J
1582.733	0.783	2133005	WORD_OFF	n/a	n/a	ORANGE	Fruit	1	12	[0, 0, 0]	n/a	catFR1	0	R1398J
1583.516	1.617	2133790	WORD	n/a	wordpools/wordpool_categorized_EN.txt	BANANA	Fruit	2	12	[0, 0, 0]	n/a	catFR1	0	R1398J
1585.133	0.817	2135411	WORD_OFF	n/a	n/a	BANANA	Fruit	2	12	[0, 0, 0]	n/a	catFR1	0	R1398J
1585.95	1.616	2136221	WORD	n/a	wordpools/wordpool_categorized_EN.txt	ATTIC	Building	3	12	[0, 0, 0]	n/a	catFR1	0	R1398J
1587.566	0.833	2137841	WORD_OFF	n/a	n/a	ATTIC	Building	3	12	[0, 0, 0]	n/a	catFR1	0	R1398J
1588.399	1.599	2138676	WORD	n/a	wordpools/wordpool_categorized_EN.txt	WINDOW	Building	4	12	[0, 0, 0]	n/a	catFR1	0	R1398J
1589.998	0.851	2140271	WORD_OFF	n/a	n/a	WINDOW	Building	4	12	[0, 0, 0]	n/a	catFR1	0	R1398J
1590.849	1.617	2141131	WORD	n/a	wordpools/wordpool_categorized_EN.txt	HICKORY	Trees	5	12	[0, 0, 0]	n/a	catFR1	0	R1398J
1592.466	0.95	2142743	WORD_OFF	n/a	n/a	HICKORY	Trees	5	12	[0, 0, 0]	n/a	catFR1	0	R1398J
1593.416	1.617	2143686	WORD	n/a	wordpools/wordpool_categorized_EN.txt	PINE	Trees	6	12	[0, 0, 0]	n/a	catFR1	0	R1398J
1595.033	0.85	2145306	WORD_OFF	n/a	n/a	PINE	Trees	6	12	[0, 0, 0]	n/a	catFR1	0	R1398J
1595.883	1.6	2146157	WORD	n/a	wordpools/wordpool_categorized_EN.txt	PEACH	Fruit	7	12	[0, 0, 0]	n/a	catFR1	0	R1398J
1597.483	0.967	2147753	WORD_OFF	n/a	n/a	PEACH	Fruit	7	12	[0, 0, 0]	n/a	catFR1	0	R1398J
1598.45	1.599	2148720	WORD	n/a	wordpools/wordpool_categorized_EN.txt	STRAWBERRY	Fruit	8	12	[0, 0, 0]	n/a	catFR1	0	R1398J
1600.049	0.966	2150324	WORD_OFF	n/a	n/a	STRAWBERRY	Fruit	8	12	[0, 0, 0]	n/a	catFR1	0	R1398J
1601.015	1.6	2151291	WORD	n/a	wordpools/wordpool_categorized_EN.txt	ROOF	Building	9	12	[0, 0, 0]	n/a	catFR1	0	R1398J
1602.615	0.834	2152886	WORD_OFF	n/a	n/a	ROOF	Building	9	12	[0, 0, 0]	n/a	catFR1	0	R1398J
1603.449	1.617	2153721	WORD	n/a	wordpools/wordpool_categorized_EN.txt	STAIRS	Building	10	12	[0, 0, 0]	n/a	catFR1	0	R1398J
1605.066	0.767	2155342	WORD_OFF	n/a	n/a	STAIRS	Building	10	12	[0, 0, 0]	n/a	catFR1	0	R1398J
1605.833	1.616	2156110	WORD	n/a	wordpools/wordpool_categorized_EN.txt	BIRCH	Trees	11	12	[0, 0, 0]	n/a	catFR1	0	R1398J
1607.449	0.85	2157722	WORD_OFF	n/a	n/a	BIRCH	Trees	11	12	[0, 0, 0]	n/a	catFR1	0	R1398J
1608.299	1.601	2158574	WORD	n/a	wordpools/wordpool_categorized_EN.txt	WALNUT	Trees	12	12	[0, 0, 0]	n/a	catFR1	0	R1398J
1609.9	0.0	2160169	WORD_OFF	n/a	n/a	WALNUT	Trees	12	12	[0, 0, 0]	n/a	catFR1	0	R1398J
1609.9	0.001	2160173	PROB	3.816	n/a	n/a	n/a	-999	12	[3, 6, 8]	17.0	catFR1	0	R1398J
1609.901	0.0	2160174	START	n/a	n/a	n/a	n/a	-999	12	[-999, -999, -999]	n/a	catFR1	0	R1398J
1609.901	0.0	2160178	ENCODING_END	n/a	n/a	n/a	n/a	-999	12	[0, 0, 0]	n/a	catFR1	0	R1398J
1609.901	3.832	2160178	DISTRACT_START	n/a	n/a	n/a	n/a	-999	12	[0, 0, 0]	n/a	catFR1	0	R1398J
1613.733	4.267	2164006	PROB	4.25	n/a	n/a	n/a	-999	12	[2, 4, 1]	7.0	catFR1	0	R1398J
1618.0	3.55	2168273	PROB	3.532	n/a	n/a	n/a	-999	12	[6, 6, 4]	16.0	catFR1	0	R1398J
1621.55	4.1	2171823	PROB	4.083	n/a	n/a	n/a	-999	12	[5, 5, 4]	14.0	catFR1	0	R1398J
1625.65	3.066	2175923	PROB	3.049	n/a	n/a	n/a	-999	12	[4, 6, 4]	14.0	catFR1	0	R1398J
1628.716	3.482	2178989	PROB	3.466	n/a	n/a	n/a	-999	12	[5, 4, 5]	14.0	catFR1	0	R1398J
1632.198	0.0	2182470	STOP	n/a	n/a	n/a	n/a	-999	12	[-999, -999, -999]	n/a	catFR1	0	R1398J
1632.198	2.168	2182473	DISTRACT_END	n/a	n/a	n/a	n/a	-999	12	[0, 0, 0]	n/a	catFR1	0	R1398J
1634.366	0.88	2184638	REC_START	n/a	n/a	n/a	n/a	-999	12	[0, 0, 0]	n/a	catFR1	0	R1398J
1635.246	1.116	2185518	REC_WORD_VV	0.88	n/a	<>	n/a	-999	12	[0, 0, 0]	n/a	catFR1	0	R1398J
1636.362	3.529	2186634	REC_WORD	1.996	n/a	BIRCH	Trees	11	12	[0, 0, 0]	n/a	catFR1	0	R1398J
1639.891	2.653	2190163	REC_WORD	5.525	n/a	HICKORY	Trees	5	12	[0, 0, 0]	n/a	catFR1	0	R1398J
1642.544	1.624	2192816	REC_WORD	8.178	n/a	MAPLE	Trees	-999	12	[0, 0, 0]	n/a	catFR1	0	R1398J
1644.168	1.005	2194440	REC_WORD	9.802	n/a	CHERRY	Fruit	-999	12	[0, 0, 0]	n/a	catFR1	0	R1398J
1645.173	0.687	2195445	REC_WORD	10.807	n/a	BANANA	Fruit	2	12	[0, 0, 0]	n/a	catFR1	0	R1398J
1645.86	1.876	2196132	REC_WORD	11.494	n/a	ORANGE	Fruit	1	12	[0, 0, 0]	n/a	catFR1	0	R1398J
1647.736	0.914	2198008	REC_WORD_VV	13.37	n/a	<>	n/a	-999	12	[0, 0, 0]	n/a	catFR1	0	R1398J
1648.65	2.156	2198922	REC_WORD	14.284	n/a	ATTIC	Building	3	12	[0, 0, 0]	n/a	catFR1	0	R1398J
1650.806	2.577	2201078	REC_WORD	16.44	n/a	WINDOW	Building	4	12	[0, 0, 0]	n/a	catFR1	0	R1398J
1653.383	7.921	2203655	REC_WORD_VV	19.017	n/a	<>	n/a	-999	12	[0, 0, 0]	n/a	catFR1	0	R1398J
1661.304	0.495	2211575	REC_WORD	26.938	n/a	CEILING	Building	-999	12	[0, 0, 0]	n/a	catFR1	0	R1398J
1661.799	1.312	2212070	REC_WORD	27.433	n/a	ROOF	Building	9	12	[0, 0, 0]	n/a	catFR1	0	R1398J
1663.111	1.463	2213382	REC_WORD_VV	28.745	n/a	<>	n/a	-999	12	[0, 0, 0]	n/a	catFR1	0	R1398J
1664.574	0.0	2214845	REC_END	n/a	n/a	n/a	n/a	-999	12	[0, 0, 0]	n/a	catFR1	0	R1398J
