onset	duration	sample	trial_type	response_time	stim_file	item_name	category	serialpos	list	test	answer	experiment	session	subject
0.0	0.0	13663	INSTRUCT_START	n/a	n/a	n/a	n/a	-999	-999	[0, 0, 0]	n/a	catFR1	1	R1273D
0.0	10.975	13663	INSTRUCT_END	n/a	n/a	n/a	n/a	-999	-999	[0, 0, 0]	n/a	catFR1	1	R1273D
10.975	0.0	24638	SESS_START	n/a	n/a	n/a	n/a	-999	-999	[0, 0, 0]	n/a	catFR1	1	R1273D
10.975	35.001	24638	MIC_TEST	n/a	n/a	n/a	n/a	-999	-999	[0, 0, 0]	n/a	catFR1	1	R1273D
45.976	54.592	59637	PRACTICE_TRIAL	n/a	n/a	n/a	n/a	-999	-1	[0, 0, 0]	n/a	catFR1	1	R1273D
100.568	10.428	114226	COUNTDOWN_START	n/a	n/a	n/a	n/a	-999	-1	[0, 0, 0]	n/a	catFR1	1	R1273D
110.996	0.008	124653	COUNTDOWN_END	n/a	n/a	n/a	n/a	-999	-1	[0, 0, 0]	n/a	catFR1	1	R1273D
111.004	1.617	124661	PRACTICE_ORIENT	n/a	n/a	n/a	n/a	-999	-1	[0, 0, 0]	n/a	catFR1	1	R1273D
112.621	2.333	126278	PRACTICE_ORIENT_OFF	n/a	n/a	n/a	n/a	-999	-1	[0, 0, 0]	n/a	catFR1	1	R1273D
114.954	1.617	128611	PRACTICE_WORD	n/a	n/a	TONGUE	n/a	-1	-1	[0, 0, 0]	n/a	catFR1	1	R1273D
116.571	0.817	130228	PRACTICE_WORD_OFF	n/a	n/a	TONGUE	n/a	-999	-1	[0, 0, 0]	n/a	catFR1	1	R1273D
117.388	1.617	131045	PRACTICE_WORD	n/a	n/a	WATCH	n/a	-1	-1	[0, 0, 0]	n/a	catFR1	1	R1273D
119.005	0.95	132662	PRACTICE_WORD_OFF	n/a	n/a	WATCH	n/a	-999	-1	[0, 0, 0]	n/a	catFR1	1	R1273D
119.955	1.617	133612	PRACTICE_WORD	n/a	n/a	WAGON	n/a	-1	-1	[0, 0, 0]	n/a	catFR1	1	R1273D
121.572	0.817	135229	PRACTICE_WORD_OFF	n/a	n/a	WAGON	n/a	-999	-1	[0, 0, 0]	n/a	catFR1	1	R1273D
122.389	1.617	136046	PRACTICE_WORD	n/a	n/a	COTTON	n/a	-1	-1	[0, 0, 0]	n/a	catFR1	1	R1273D
124.006	0.884	137662	PRACTICE_WORD_OFF	n/a	n/a	COTTON	n/a	-999	-1	[0, 0, 0]	n/a	catFR1	1	R1273D
124.89	1.617	138546	PRACTICE_WORD	n/a	n/a	BEAM	n/a	-1	-1	[0, 0, 0]	n/a	catFR1	1	R1273D
126.507	0.817	140163	PRACTICE_WORD_OFF	n/a	n/a	BEAM	n/a	-999	-1	[0, 0, 0]	n/a	catFR1	1	R1273D
127.324	1.616	140980	PRACTICE_WORD	n/a	n/a	FLOOD	n/a	-1	-1	[0, 0, 0]	n/a	catFR1	1	R1273D
128.94	1.017	142596	PRACTICE_WORD_OFF	n/a	n/a	FLOOD	n/a	-999	-1	[0, 0, 0]	n/a	catFR1	1	R1273D
129.957	1.617	143613	PRACTICE_WORD	n/a	n/a	ATTIC	n/a	-1	-1	[0, 0, 0]	n/a	catFR1	1	R1273D
131.574	0.785	145230	PRACTICE_WORD_OFF	n/a	n/a	ATTIC	n/a	-999	-1	[0, 0, 0]	n/a	catFR1	1	R1273D
132.359	1.616	146015	PRACTICE_WORD	n/a	n/a	IRON	n/a	-1	-1	[0, 0, 0]	n/a	catFR1	1	R1273D
133.975	0.833	147631	PRACTICE_WORD_OFF	n/a	n/a	IRON	n/a	-999	-1	[0, 0, 0]	n/a	catFR1	1	R1273D
134.808	1.617	148464	PRACTICE_WORD	n/a	n/a	CHEST	n/a	-1	-1	[0, 0, 0]	n/a	catFR1	1	R1273D
136.425	0.783	150081	PRACTICE_WORD_OFF	n/a	n/a	CHEST	n/a	-999	-1	[0, 0, 0]	n/a	catFR1	1	R1273D
137.208	1.617	150864	PRACTICE_WORD	n/a	n/a	RHINO	n/a	-1	-1	[0, 0, 0]	n/a	catFR1	1	R1273D
138.825	0.967	152481	PRACTICE_WORD_OFF	n/a	n/a	RHINO	n/a	-999	-1	[0, 0, 0]	n/a	catFR1	1	R1273D
139.792	1.617	153448	PRACTICE_WORD	n/a	n/a	CAMEL	n/a	-1	-1	[0, 0, 0]	n/a	catFR1	1	R1273D
141.409	0.884	155064	PRACTICE_WORD_OFF	n/a	n/a	CAMEL	n/a	-999	-1	[0, 0, 0]	n/a	catFR1	1	R1273D
142.293	1.617	155948	PRACTICE_WORD	n/a	n/a	RING	n/a	-1	-1	[0, 0, 0]	n/a	catFR1	1	R1273D
143.91	0.0	157565	DISTRACT_START	n/a	n/a	n/a	n/a	-999	-1	[0, 0, 0]	n/a	catFR1	1	R1273D
143.91	0.0	157565	PRACTICE_WORD_OFF	n/a	n/a	RING	n/a	-999	-1	[0, 0, 0]	n/a	catFR1	1	R1273D
143.91	0.0	157565	ENCODING_END	n/a	n/a	n/a	n/a	-999	-1	[0, 0, 0]	n/a	catFR1	1	R1273D
143.91	0.016	157565	START	n/a	n/a	n/a	n/a	-999	-1	[-999, -999, -999]	n/a	catFR1	1	R1273D
143.926	6.285	157581	PROB	6.285	n/a	n/a	n/a	-999	-1	[5, 5, 4]	14	catFR1	1	R1273D
150.211	7.835	163866	PROB	7.835	n/a	n/a	n/a	-999	-1	[1, 5, 9]	15	catFR1	1	R1273D
158.046	17.252	171701	PROB	17.252	n/a	n/a	n/a	-999	-1	[3, 9, 4]	16	catFR1	1	R1273D
175.298	0.019	188952	STOP	n/a	n/a	n/a	n/a	-999	-1	[-999, -999, -999]	n/a	catFR1	1	R1273D
175.317	0.699	188971	DISTRACT_END	n/a	n/a	n/a	n/a	-999	-1	[0, 0, 0]	n/a	catFR1	1	R1273D
176.016	0.517	189670	RETRIEVAL_ORIENT	n/a	n/a	n/a	n/a	-999	-1	[0, 0, 0]	n/a	catFR1	1	R1273D
176.533	30.011	190187	PRACTICE_REC_START	n/a	n/a	n/a	n/a	-999	-1	[0, 0, 0]	n/a	catFR1	1	R1273D
206.544	27.666	220196	PRACTICE_REC_END	n/a	n/a	n/a	n/a	-999	-1	[0, 0, 0]	n/a	catFR1	1	R1273D
234.21	0.5	247860	TRIAL	n/a	n/a	n/a	n/a	-999	1	[0, 0, 0]	n/a	catFR1	1	R1273D
234.71	10.428	248360	COUNTDOWN_START	n/a	n/a	n/a	n/a	-999	1	[0, 0, 0]	n/a	catFR1	1	R1273D
245.138	0.007	258788	COUNTDOWN_END	n/a	n/a	n/a	n/a	-999	1	[0, 0, 0]	n/a	catFR1	1	R1273D
245.145	1.617	258795	ORIENT	n/a	n/a	n/a	n/a	-999	1	[0, 0, 0]	n/a	catFR1	1	R1273D
246.762	1.817	260412	ORIENT_OFF	n/a	n/a	n/a	n/a	-999	1	[0, 0, 0]	n/a	catFR1	1	R1273D
248.579	1.617	262228	WORD	n/a	wordpools/wordpool_categorized_EN.txt	KNEE	BodyParts	1	1	[0, 0, 0]	n/a	catFR1	1	R1273D
250.196	0.916	263845	WORD_OFF	n/a	n/a	KNEE	n/a	1	1	[0, 0, 0]	n/a	catFR1	1	R1273D
251.112	1.617	264761	WORD	n/a	wordpools/wordpool_categorized_EN.txt	EYE	BodyParts	2	1	[0, 0, 0]	n/a	catFR1	1	R1273D
252.729	0.951	266378	WORD_OFF	n/a	n/a	EYE	n/a	2	1	[0, 0, 0]	n/a	catFR1	1	R1273D
253.68	1.617	267329	WORD	n/a	wordpools/wordpool_categorized_EN.txt	BEE	Insects	3	1	[0, 0, 0]	n/a	catFR1	1	R1273D
255.297	0.933	268946	WORD_OFF	n/a	n/a	BEE	n/a	3	1	[0, 0, 0]	n/a	catFR1	1	R1273D
256.23	1.617	269879	WORD	n/a	wordpools/wordpool_categorized_EN.txt	MOSQUITO	Insects	4	1	[0, 0, 0]	n/a	catFR1	1	R1273D
257.847	0.967	271496	WORD_OFF	n/a	n/a	MOSQUITO	n/a	4	1	[0, 0, 0]	n/a	catFR1	1	R1273D
258.814	1.617	272463	WORD	n/a	wordpools/wordpool_categorized_EN.txt	FISH	OceanAnimals	5	1	[0, 0, 0]	n/a	catFR1	1	R1273D
260.431	0.834	274080	WORD_OFF	n/a	n/a	FISH	n/a	5	1	[0, 0, 0]	n/a	catFR1	1	R1273D
261.265	1.616	274914	WORD	n/a	wordpools/wordpool_categorized_EN.txt	LOBSTER	OceanAnimals	6	1	[0, 0, 0]	n/a	catFR1	1	R1273D
262.881	1.017	276530	WORD_OFF	n/a	n/a	LOBSTER	n/a	6	1	[0, 0, 0]	n/a	catFR1	1	R1273D
263.898	1.617	277547	WORD	n/a	wordpools/wordpool_categorized_EN.txt	ROACH	Insects	7	1	[0, 0, 0]	n/a	catFR1	1	R1273D
265.515	0.818	279164	WORD_OFF	n/a	n/a	ROACH	n/a	7	1	[0, 0, 0]	n/a	catFR1	1	R1273D
266.333	1.616	279982	WORD	n/a	wordpools/wordpool_categorized_EN.txt	FLY	Insects	8	1	[0, 0, 0]	n/a	catFR1	1	R1273D
267.949	0.883	281597	WORD_OFF	n/a	n/a	FLY	n/a	8	1	[0, 0, 0]	n/a	catFR1	1	R1273D
268.832	1.617	282480	WORD	n/a	wordpools/wordpool_categorized_EN.txt	ARM	BodyParts	9	1	[0, 0, 0]	n/a	catFR1	1	R1273D
270.449	0.951	284097	WORD_OFF	n/a	n/a	ARM	n/a	9	1	[0, 0, 0]	n/a	catFR1	1	R1273D
271.4	1.617	285048	WORD	n/a	wordpools/wordpool_categorized_EN.txt	EAR	BodyParts	10	1	[0, 0, 0]	n/a	catFR1	1	R1273D
273.017	0.95	286665	WORD_OFF	n/a	n/a	EAR	n/a	10	1	[0, 0, 0]	n/a	catFR1	1	R1273D
273.967	1.617	287615	WORD	n/a	wordpools/wordpool_categorized_EN.txt	OCTOPUS	OceanAnimals	11	1	[0, 0, 0]	n/a	catFR1	1	R1273D
275.584	0.967	289232	WORD_OFF	n/a	n/a	OCTOPUS	n/a	11	1	[0, 0, 0]	n/a	catFR1	1	R1273D
276.551	1.617	290199	WORD	n/a	wordpools/wordpool_categorized_EN.txt	CRAB	OceanAnimals	12	1	[0, 0, 0]	n/a	catFR1	1	R1273D
278.168	0.0	291816	WORD_OFF	n/a	n/a	CRAB	n/a	12	1	[0, 0, 0]	n/a	catFR1	1	R1273D
278.168	0.131	291816	ENCODING_END	n/a	n/a	n/a	n/a	-999	1	[0, 0, 0]	n/a	catFR1	1	R1273D
278.299	0.0	291947	DISTRACT_START	n/a	n/a	n/a	n/a	-999	1	[0, 0, 0]	n/a	catFR1	1	R1273D
278.299	0.02	291947	START	n/a	n/a	n/a	n/a	-999	1	[-999, -999, -999]	n/a	catFR1	1	R1273D
278.319	9.567	291967	PROB	9.567	n/a	n/a	n/a	-999	1	[5, 2, 4]	11	catFR1	1	R1273D
287.886	15.717	301533	PROB	15.717	n/a	n/a	n/a	-999	1	[5, 3, 7]	15	catFR1	1	R1273D
303.603	0.019	317249	STOP	n/a	n/a	n/a	n/a	-999	1	[-999, -999, -999]	n/a	catFR1	1	R1273D
303.622	0.6	317268	DISTRACT_END	n/a	n/a	n/a	n/a	-999	1	[0, 0, 0]	n/a	catFR1	1	R1273D
304.222	0.518	317868	RETRIEVAL_ORIENT	n/a	n/a	n/a	n/a	-999	1	[0, 0, 0]	n/a	catFR1	1	R1273D
304.74	0.797	318386	REC_START	n/a	n/a	n/a	n/a	-999	1	[0, 0, 0]	n/a	catFR1	1	R1273D
305.537	5.546	319183	REC_WORD_VV	5.546	n/a	<>	n/a	-999	1	[0, 0, 0]	n/a	catFR1	1	R1273D
311.083	23.666	324729	REC_WORD_VV	23.666	n/a	<>	n/a	-999	1	[0, 0, 0]	n/a	catFR1	1	R1273D
334.749	11.248	348394	REC_END	n/a	n/a	n/a	n/a	-999	1	[0, 0, 0]	n/a	catFR1	1	R1273D
345.997	0.5	359641	TRIAL	n/a	n/a	n/a	n/a	-999	2	[0, 0, 0]	n/a	catFR1	1	R1273D
346.497	10.428	360141	COUNTDOWN_START	n/a	n/a	n/a	n/a	-999	2	[0, 0, 0]	n/a	catFR1	1	R1273D
356.925	0.007	370568	COUNTDOWN_END	n/a	n/a	n/a	n/a	-999	2	[0, 0, 0]	n/a	catFR1	1	R1273D
356.932	1.617	370575	ORIENT	n/a	n/a	n/a	n/a	-999	2	[0, 0, 0]	n/a	catFR1	1	R1273D
358.549	2.084	372192	ORIENT_OFF	n/a	n/a	n/a	n/a	-999	2	[0, 0, 0]	n/a	catFR1	1	R1273D
360.633	1.616	374276	WORD	n/a	wordpools/wordpool_categorized_EN.txt	NOTEBOOK	OfficeSupplies	1	2	[0, 0, 0]	n/a	catFR1	1	R1273D
362.249	0.984	375892	WORD_OFF	n/a	n/a	NOTEBOOK	n/a	1	2	[0, 0, 0]	n/a	catFR1	1	R1273D
363.233	1.617	376876	WORD	n/a	wordpools/wordpool_categorized_EN.txt	GLUE	OfficeSupplies	2	2	[0, 0, 0]	n/a	catFR1	1	R1273D
364.85	0.833	378493	WORD_OFF	n/a	n/a	GLUE	n/a	2	2	[0, 0, 0]	n/a	catFR1	1	R1273D
365.683	1.617	379326	WORD	n/a	wordpools/wordpool_categorized_EN.txt	BLUEBERRY	Fruit	3	2	[0, 0, 0]	n/a	catFR1	1	R1273D
367.3	0.934	380943	WORD_OFF	n/a	n/a	BLUEBERRY	n/a	3	2	[0, 0, 0]	n/a	catFR1	1	R1273D
368.234	1.617	381877	WORD	n/a	wordpools/wordpool_categorized_EN.txt	GRAPE	Fruit	4	2	[0, 0, 0]	n/a	catFR1	1	R1273D
369.851	0.833	383494	WORD_OFF	n/a	n/a	GRAPE	n/a	4	2	[0, 0, 0]	n/a	catFR1	1	R1273D
370.684	1.617	384327	WORD	n/a	wordpools/wordpool_categorized_EN.txt	BEETLE	Insects	5	2	[0, 0, 0]	n/a	catFR1	1	R1273D
372.301	0.867	385944	WORD_OFF	n/a	n/a	BEETLE	n/a	5	2	[0, 0, 0]	n/a	catFR1	1	R1273D
373.168	1.617	386811	WORD	n/a	wordpools/wordpool_categorized_EN.txt	CRICKET	Insects	6	2	[0, 0, 0]	n/a	catFR1	1	R1273D
374.785	0.934	388427	WORD_OFF	n/a	n/a	CRICKET	n/a	6	2	[0, 0, 0]	n/a	catFR1	1	R1273D
375.719	1.618	389361	WORD	n/a	wordpools/wordpool_categorized_EN.txt	APPLE	Fruit	7	2	[0, 0, 0]	n/a	catFR1	1	R1273D
377.337	0.882	390979	WORD_OFF	n/a	n/a	APPLE	n/a	7	2	[0, 0, 0]	n/a	catFR1	1	R1273D
378.219	1.617	391861	WORD	n/a	wordpools/wordpool_categorized_EN.txt	LEMON	Fruit	8	2	[0, 0, 0]	n/a	catFR1	1	R1273D
379.836	0.917	393478	WORD_OFF	n/a	n/a	LEMON	n/a	8	2	[0, 0, 0]	n/a	catFR1	1	R1273D
380.753	1.601	394395	WORD	n/a	wordpools/wordpool_categorized_EN.txt	BINDER	OfficeSupplies	9	2	[0, 0, 0]	n/a	catFR1	1	R1273D
382.354	0.95	395996	WORD_OFF	n/a	n/a	BINDER	n/a	9	2	[0, 0, 0]	n/a	catFR1	1	R1273D
383.304	1.616	396946	WORD	n/a	wordpools/wordpool_categorized_EN.txt	PAPER	OfficeSupplies	10	2	[0, 0, 0]	n/a	catFR1	1	R1273D
384.92	0.784	398562	WORD_OFF	n/a	n/a	PAPER	n/a	10	2	[0, 0, 0]	n/a	catFR1	1	R1273D
385.704	1.618	399346	WORD	n/a	wordpools/wordpool_categorized_EN.txt	BUTTERFLY	Insects	11	2	[0, 0, 0]	n/a	catFR1	1	R1273D
387.322	0.899	400964	WORD_OFF	n/a	n/a	BUTTERFLY	n/a	11	2	[0, 0, 0]	n/a	catFR1	1	R1273D
388.221	1.617	401863	WORD	n/a	wordpools/wordpool_categorized_EN.txt	MOTH	Insects	12	2	[0, 0, 0]	n/a	catFR1	1	R1273D
389.838	0.0	403480	ENCODING_END	n/a	n/a	n/a	n/a	-999	2	[0, 0, 0]	n/a	catFR1	1	R1273D
389.838	0.104	403480	WORD_OFF	n/a	n/a	MOTH	n/a	12	2	[0, 0, 0]	n/a	catFR1	1	R1273D
389.942	0.0	403584	DISTRACT_START	n/a	n/a	n/a	n/a	-999	2	[0, 0, 0]	n/a	catFR1	1	R1273D
389.942	0.013	403584	START	n/a	n/a	n/a	n/a	-999	2	[-999, -999, -999]	n/a	catFR1	1	R1273D
389.955	9.018	403597	PROB	9.018	n/a	n/a	n/a	-999	2	[8, 5, 6]	19	catFR1	1	R1273D
398.973	4.385	412614	PROB	4.385	n/a	n/a	n/a	-999	2	[4, 4, 2]	10	catFR1	1	R1273D
403.358	7.532	416999	PROB	7.532	n/a	n/a	n/a	-999	2	[8, 6, 2]	16	catFR1	1	R1273D
410.89	0.019	424530	STOP	n/a	n/a	n/a	n/a	-999	2	[-999, -999, -999]	n/a	catFR1	1	R1273D
410.909	0.616	424549	DISTRACT_END	n/a	n/a	n/a	n/a	-999	2	[0, 0, 0]	n/a	catFR1	1	R1273D
411.525	0.517	425165	RETRIEVAL_ORIENT	n/a	n/a	n/a	n/a	-999	2	[0, 0, 0]	n/a	catFR1	1	R1273D
412.042	0.0	425682	REC_START	n/a	n/a	n/a	n/a	-999	2	[0, 0, 0]	n/a	catFR1	1	R1273D
412.042	30.011	425682	REC_WORD_VV	30.011	n/a	<>	n/a	-999	2	[0, 0, 0]	n/a	catFR1	1	R1273D
442.053	8.096	455692	REC_END	n/a	n/a	n/a	n/a	-999	2	[0, 0, 0]	n/a	catFR1	1	R1273D
450.149	0.5	463787	TRIAL	n/a	n/a	n/a	n/a	-999	3	[0, 0, 0]	n/a	catFR1	1	R1273D
450.649	10.428	464287	COUNTDOWN_START	n/a	n/a	n/a	n/a	-999	3	[0, 0, 0]	n/a	catFR1	1	R1273D
461.077	0.007	474715	COUNTDOWN_END	n/a	n/a	n/a	n/a	-999	3	[0, 0, 0]	n/a	catFR1	1	R1273D
461.084	1.617	474722	ORIENT	n/a	n/a	n/a	n/a	-999	3	[0, 0, 0]	n/a	catFR1	1	R1273D
462.701	2.3	476339	ORIENT_OFF	n/a	n/a	n/a	n/a	-999	3	[0, 0, 0]	n/a	catFR1	1	R1273D
465.001	1.618	478638	WORD	n/a	wordpools/wordpool_categorized_EN.txt	BOOKCASE	Furniture	1	3	[0, 0, 0]	n/a	catFR1	1	R1273D
466.619	0.966	480256	WORD_OFF	n/a	n/a	BOOKCASE	n/a	1	3	[0, 0, 0]	n/a	catFR1	1	R1273D
467.585	1.617	481222	WORD	n/a	wordpools/wordpool_categorized_EN.txt	NIGHTSTAND	Furniture	2	3	[0, 0, 0]	n/a	catFR1	1	R1273D
469.202	0.951	482839	WORD_OFF	n/a	n/a	NIGHTSTAND	n/a	2	3	[0, 0, 0]	n/a	catFR1	1	R1273D
470.153	1.617	483790	WORD	n/a	wordpools/wordpool_categorized_EN.txt	FOOT	BodyParts	3	3	[0, 0, 0]	n/a	catFR1	1	R1273D
471.77	0.983	485407	WORD_OFF	n/a	n/a	FOOT	n/a	3	3	[0, 0, 0]	n/a	catFR1	1	R1273D
472.753	1.617	486390	WORD	n/a	wordpools/wordpool_categorized_EN.txt	HAND	BodyParts	4	3	[0, 0, 0]	n/a	catFR1	1	R1273D
474.37	0.917	488007	WORD_OFF	n/a	n/a	HAND	n/a	4	3	[0, 0, 0]	n/a	catFR1	1	R1273D
475.287	1.617	488924	WORD	n/a	wordpools/wordpool_categorized_EN.txt	CIDER	Beverages	5	3	[0, 0, 0]	n/a	catFR1	1	R1273D
476.904	0.883	490541	WORD_OFF	n/a	n/a	CIDER	n/a	5	3	[0, 0, 0]	n/a	catFR1	1	R1273D
477.787	1.617	491424	WORD	n/a	wordpools/wordpool_categorized_EN.txt	LEMONADE	Beverages	6	3	[0, 0, 0]	n/a	catFR1	1	R1273D
479.404	0.967	493041	WORD_OFF	n/a	n/a	LEMONADE	n/a	6	3	[0, 0, 0]	n/a	catFR1	1	R1273D
480.371	1.617	494008	WORD	n/a	wordpools/wordpool_categorized_EN.txt	LEG	BodyParts	7	3	[0, 0, 0]	n/a	catFR1	1	R1273D
481.988	0.934	495624	WORD_OFF	n/a	n/a	LEG	n/a	7	3	[0, 0, 0]	n/a	catFR1	1	R1273D
482.922	1.617	496558	WORD	n/a	wordpools/wordpool_categorized_EN.txt	FINGERS	BodyParts	8	3	[0, 0, 0]	n/a	catFR1	1	R1273D
484.539	0.801	498175	WORD_OFF	n/a	n/a	FINGERS	n/a	8	3	[0, 0, 0]	n/a	catFR1	1	R1273D
485.34	1.616	498976	WORD	n/a	wordpools/wordpool_categorized_EN.txt	CHAIR	Furniture	9	3	[0, 0, 0]	n/a	catFR1	1	R1273D
486.956	0.983	500592	WORD_OFF	n/a	n/a	CHAIR	n/a	9	3	[0, 0, 0]	n/a	catFR1	1	R1273D
487.939	1.617	501575	WORD	n/a	wordpools/wordpool_categorized_EN.txt	DRESSER	Furniture	10	3	[0, 0, 0]	n/a	catFR1	1	R1273D
489.556	0.967	503192	WORD_OFF	n/a	n/a	DRESSER	n/a	10	3	[0, 0, 0]	n/a	catFR1	1	R1273D
490.523	1.617	504159	WORD	n/a	wordpools/wordpool_categorized_EN.txt	WATER	Beverages	11	3	[0, 0, 0]	n/a	catFR1	1	R1273D
492.14	1.0	505776	WORD_OFF	n/a	n/a	WATER	n/a	11	3	[0, 0, 0]	n/a	catFR1	1	R1273D
493.14	1.617	506776	WORD	n/a	wordpools/wordpool_categorized_EN.txt	COLA	Beverages	12	3	[0, 0, 0]	n/a	catFR1	1	R1273D
494.757	0.0	508393	ENCODING_END	n/a	n/a	n/a	n/a	-999	3	[0, 0, 0]	n/a	catFR1	1	R1273D
494.757	0.102	508393	WORD_OFF	n/a	n/a	COLA	n/a	12	3	[0, 0, 0]	n/a	catFR1	1	R1273D
494.859	0.0	508495	DISTRACT_START	n/a	n/a	n/a	n/a	-999	3	[0, 0, 0]	n/a	catFR1	1	R1273D
494.859	0.015	508495	START	n/a	n/a	n/a	n/a	-999	3	[-999, -999, -999]	n/a	catFR1	1	R1273D
494.874	9.085	508510	PROB	9.085	n/a	n/a	n/a	-999	3	[5, 6, 4]	16	catFR1	1	R1273D
503.959	13.404	517594	PROB	13.404	n/a	n/a	n/a	-999	3	[7, 6, 6]	21	catFR1	1	R1273D
517.363	0.015	530998	STOP	n/a	n/a	n/a	n/a	-999	3	[-999, -999, -999]	n/a	catFR1	1	R1273D
517.378	0.633	531013	DISTRACT_END	n/a	n/a	n/a	n/a	-999	3	[0, 0, 0]	n/a	catFR1	1	R1273D
518.011	0.518	531645	RETRIEVAL_ORIENT	n/a	n/a	n/a	n/a	-999	3	[0, 0, 0]	n/a	catFR1	1	R1273D
518.529	0.971	532163	REC_START	n/a	n/a	n/a	n/a	-999	3	[0, 0, 0]	n/a	catFR1	1	R1273D
519.5	7.613	533134	REC_WORD_VV	7.613	n/a	<>	n/a	-999	3	[0, 0, 0]	n/a	catFR1	1	R1273D
527.113	0.781	540747	REC_WORD_VV	0.781	n/a	<>	n/a	-999	3	[0, 0, 0]	n/a	catFR1	1	R1273D
527.894	0.817	541528	REC_WORD	0.817	n/a	BOOKSHELF	n/a	-999	3	[0, 0, 0]	n/a	catFR1	1	R1273D
528.711	0.4	542345	REC_WORD_VV	0.4	n/a	<>	n/a	-999	3	[0, 0, 0]	n/a	catFR1	1	R1273D
529.111	1.015	542745	REC_WORD	1.015	n/a	WATER	Beverages	11	3	[0, 0, 0]	n/a	catFR1	1	R1273D
530.126	1.62	543760	REC_WORD_VV	1.62	n/a	<>	n/a	-999	3	[0, 0, 0]	n/a	catFR1	1	R1273D
531.746	3.543	545380	REC_WORD	3.543	n/a	LEG	BodyParts	7	3	[0, 0, 0]	n/a	catFR1	1	R1273D
535.289	2.811	548923	REC_WORD	2.811	n/a	ENDTABLE	n/a	-999	3	[0, 0, 0]	n/a	catFR1	1	R1273D
538.1	0.575	551733	REC_WORD_VV	0.575	n/a	<>	n/a	-999	3	[0, 0, 0]	n/a	catFR1	1	R1273D
538.675	3.835	552308	REC_WORD	3.835	n/a	LEMON	n/a	-999	3	[0, 0, 0]	n/a	catFR1	1	R1273D
542.51	6.028	556143	REC_WORD_VV	6.028	n/a	<>	n/a	-999	3	[0, 0, 0]	n/a	catFR1	1	R1273D
548.538	8.28	562171	REC_END	n/a	n/a	n/a	n/a	-999	3	[0, 0, 0]	n/a	catFR1	1	R1273D
556.818	0.5	570450	TRIAL	n/a	n/a	n/a	n/a	-999	4	[0, 0, 0]	n/a	catFR1	1	R1273D
557.318	10.428	570950	COUNTDOWN_START	n/a	n/a	n/a	n/a	-999	4	[0, 0, 0]	n/a	catFR1	1	R1273D
567.746	0.008	581378	COUNTDOWN_END	n/a	n/a	n/a	n/a	-999	4	[0, 0, 0]	n/a	catFR1	1	R1273D
567.754	1.617	581386	ORIENT	n/a	n/a	n/a	n/a	-999	4	[0, 0, 0]	n/a	catFR1	1	R1273D
569.371	2.067	583003	ORIENT_OFF	n/a	n/a	n/a	n/a	-999	4	[0, 0, 0]	n/a	catFR1	1	R1273D
571.438	1.617	585070	WORD	n/a	wordpools/wordpool_categorized_EN.txt	TUBA	Instruments	1	4	[0, 0, 0]	n/a	catFR1	1	R1273D
573.055	0.9	586686	WORD_OFF	n/a	n/a	TUBA	n/a	1	4	[0, 0, 0]	n/a	catFR1	1	R1273D
573.955	1.617	587586	WORD	n/a	wordpools/wordpool_categorized_EN.txt	PIANO	Instruments	2	4	[0, 0, 0]	n/a	catFR1	1	R1273D
575.572	0.933	589203	WORD_OFF	n/a	n/a	PIANO	n/a	2	4	[0, 0, 0]	n/a	catFR1	1	R1273D
576.505	1.617	590136	WORD	n/a	wordpools/wordpool_categorized_EN.txt	STOVE	Appliances	3	4	[0, 0, 0]	n/a	catFR1	1	R1273D
578.122	0.95	591753	WORD_OFF	n/a	n/a	STOVE	n/a	3	4	[0, 0, 0]	n/a	catFR1	1	R1273D
579.072	1.617	592703	WORD	n/a	wordpools/wordpool_categorized_EN.txt	OVEN	Appliances	4	4	[0, 0, 0]	n/a	catFR1	1	R1273D
580.689	0.784	594320	WORD_OFF	n/a	n/a	OVEN	n/a	4	4	[0, 0, 0]	n/a	catFR1	1	R1273D
581.473	1.617	595104	WORD	n/a	wordpools/wordpool_categorized_EN.txt	SHOES	Clothing	5	4	[0, 0, 0]	n/a	catFR1	1	R1273D
583.09	0.883	596721	WORD_OFF	n/a	n/a	SHOES	n/a	5	4	[0, 0, 0]	n/a	catFR1	1	R1273D
583.973	1.617	597604	WORD	n/a	wordpools/wordpool_categorized_EN.txt	SHIRT	Clothing	6	4	[0, 0, 0]	n/a	catFR1	1	R1273D
585.59	0.817	599221	WORD_OFF	n/a	n/a	SHIRT	n/a	6	4	[0, 0, 0]	n/a	catFR1	1	R1273D
586.407	1.617	600038	WORD	n/a	wordpools/wordpool_categorized_EN.txt	REFRIGERATOR	Appliances	7	4	[0, 0, 0]	n/a	catFR1	1	R1273D
588.024	1.0	601655	WORD_OFF	n/a	n/a	REFRIGERATOR	n/a	7	4	[0, 0, 0]	n/a	catFR1	1	R1273D
589.024	1.617	602655	WORD	n/a	wordpools/wordpool_categorized_EN.txt	VACUUM	Appliances	8	4	[0, 0, 0]	n/a	catFR1	1	R1273D
590.641	0.9	604271	WORD_OFF	n/a	n/a	VACUUM	n/a	8	4	[0, 0, 0]	n/a	catFR1	1	R1273D
591.541	1.617	605171	WORD	n/a	wordpools/wordpool_categorized_EN.txt	GUITAR	Instruments	9	4	[0, 0, 0]	n/a	catFR1	1	R1273D
593.158	0.8	606788	WORD_OFF	n/a	n/a	GUITAR	n/a	9	4	[0, 0, 0]	n/a	catFR1	1	R1273D
593.958	1.618	607588	WORD	n/a	wordpools/wordpool_categorized_EN.txt	ORGAN	Instruments	10	4	[0, 0, 0]	n/a	catFR1	1	R1273D
595.576	0.816	609206	WORD_OFF	n/a	n/a	ORGAN	n/a	10	4	[0, 0, 0]	n/a	catFR1	1	R1273D
596.392	1.617	610022	WORD	n/a	wordpools/wordpool_categorized_EN.txt	SHORTS	Clothing	11	4	[0, 0, 0]	n/a	catFR1	1	R1273D
598.009	0.967	611639	WORD_OFF	n/a	n/a	SHORTS	n/a	11	4	[0, 0, 0]	n/a	catFR1	1	R1273D
598.976	1.617	612606	WORD	n/a	wordpools/wordpool_categorized_EN.txt	JACKET	Clothing	12	4	[0, 0, 0]	n/a	catFR1	1	R1273D
600.593	0.0	614223	WORD_OFF	n/a	n/a	JACKET	n/a	12	4	[0, 0, 0]	n/a	catFR1	1	R1273D
600.593	0.132	614223	ENCODING_END	n/a	n/a	n/a	n/a	-999	4	[0, 0, 0]	n/a	catFR1	1	R1273D
600.725	0.0	614355	DISTRACT_START	n/a	n/a	n/a	n/a	-999	4	[0, 0, 0]	n/a	catFR1	1	R1273D
600.725	0.018	614355	START	n/a	n/a	n/a	n/a	-999	4	[-999, -999, -999]	n/a	catFR1	1	R1273D
600.743	19.47	614373	PROB	19.47	n/a	n/a	n/a	-999	4	[8, 4, 7]	19	catFR1	1	R1273D
620.213	6.726	633842	PROB	6.726	n/a	n/a	n/a	-999	4	[8, 3, 7]	18	catFR1	1	R1273D
626.939	0.009	640567	STOP	n/a	n/a	n/a	n/a	-999	4	[-999, -999, -999]	n/a	catFR1	1	R1273D
626.948	0.567	640576	DISTRACT_END	n/a	n/a	n/a	n/a	-999	4	[0, 0, 0]	n/a	catFR1	1	R1273D
627.515	0.517	641143	RETRIEVAL_ORIENT	n/a	n/a	n/a	n/a	-999	4	[0, 0, 0]	n/a	catFR1	1	R1273D
628.032	4.428	641660	REC_START	n/a	n/a	n/a	n/a	-999	4	[0, 0, 0]	n/a	catFR1	1	R1273D
632.46	2.43	646088	REC_WORD	2.43	n/a	TUBA	Instruments	1	4	[0, 0, 0]	n/a	catFR1	1	R1273D
634.89	1.997	648518	REC_WORD	1.997	n/a	LEMON	n/a	-999	4	[0, 0, 0]	n/a	catFR1	1	R1273D
636.887	1.765	650515	REC_WORD	1.765	n/a	REFRIGERATOR	Appliances	7	4	[0, 0, 0]	n/a	catFR1	1	R1273D
638.652	0.482	652280	REC_WORD	0.482	n/a	STOVE	Appliances	3	4	[0, 0, 0]	n/a	catFR1	1	R1273D
639.134	0.212	652762	REC_WORD_VV	0.212	n/a	<>	n/a	-999	4	[0, 0, 0]	n/a	catFR1	1	R1273D
639.346	1.619	652974	REC_WORD	1.619	n/a	OVEN	Appliances	4	4	[0, 0, 0]	n/a	catFR1	1	R1273D
640.965	1.292	654593	REC_WORD_VV	1.292	n/a	<>	n/a	-999	4	[0, 0, 0]	n/a	catFR1	1	R1273D
642.257	0.211	655885	REC_WORD	0.211	n/a	TUBA	Instruments	1	4	[0, 0, 0]	n/a	catFR1	1	R1273D
642.468	0.246	656096	REC_WORD_VV	0.246	n/a	<>	n/a	-999	4	[0, 0, 0]	n/a	catFR1	1	R1273D
642.714	3.594	656342	REC_WORD	3.594	n/a	OVEN	Appliances	4	4	[0, 0, 0]	n/a	catFR1	1	R1273D
646.308	11.736	659935	REC_WORD_VV	11.736	n/a	<>	n/a	-999	4	[0, 0, 0]	n/a	catFR1	1	R1273D
658.044	9.078	671671	REC_END	n/a	n/a	n/a	n/a	-999	4	[0, 0, 0]	n/a	catFR1	1	R1273D
667.122	0.5	680748	TRIAL	n/a	n/a	n/a	n/a	-999	5	[0, 0, 0]	n/a	catFR1	1	R1273D
667.622	10.428	681248	COUNTDOWN_START	n/a	n/a	n/a	n/a	-999	5	[0, 0, 0]	n/a	catFR1	1	R1273D
678.05	0.007	691676	COUNTDOWN_END	n/a	n/a	n/a	n/a	-999	5	[0, 0, 0]	n/a	catFR1	1	R1273D
678.057	1.617	691683	ORIENT	n/a	n/a	n/a	n/a	-999	5	[0, 0, 0]	n/a	catFR1	1	R1273D
679.674	2.117	693299	ORIENT_OFF	n/a	n/a	n/a	n/a	-999	5	[0, 0, 0]	n/a	catFR1	1	R1273D
681.791	1.617	695416	WORD	n/a	wordpools/wordpool_categorized_EN.txt	FUDGE	Desserts	1	5	[0, 0, 0]	n/a	catFR1	1	R1273D
683.408	0.967	697033	WORD_OFF	n/a	n/a	FUDGE	n/a	1	5	[0, 0, 0]	n/a	catFR1	1	R1273D
684.375	1.617	698000	WORD	n/a	wordpools/wordpool_categorized_EN.txt	CUPCAKE	Desserts	2	5	[0, 0, 0]	n/a	catFR1	1	R1273D
685.992	0.817	699617	WORD_OFF	n/a	n/a	CUPCAKE	n/a	2	5	[0, 0, 0]	n/a	catFR1	1	R1273D
686.809	1.617	700434	WORD	n/a	wordpools/wordpool_categorized_EN.txt	UNDERWEAR	Clothing	3	5	[0, 0, 0]	n/a	catFR1	1	R1273D
688.426	0.901	702051	WORD_OFF	n/a	n/a	UNDERWEAR	n/a	3	5	[0, 0, 0]	n/a	catFR1	1	R1273D
689.327	1.616	702952	WORD	n/a	wordpools/wordpool_categorized_EN.txt	SOCKS	Clothing	4	5	[0, 0, 0]	n/a	catFR1	1	R1273D
690.943	0.95	704568	WORD_OFF	n/a	n/a	SOCKS	n/a	4	5	[0, 0, 0]	n/a	catFR1	1	R1273D
691.893	1.617	705518	WORD	n/a	wordpools/wordpool_categorized_EN.txt	LILAC	Flowers	5	5	[0, 0, 0]	n/a	catFR1	1	R1273D
693.51	0.967	707135	WORD_OFF	n/a	n/a	LILAC	n/a	5	5	[0, 0, 0]	n/a	catFR1	1	R1273D
694.477	1.617	708102	WORD	n/a	wordpools/wordpool_categorized_EN.txt	MARIGOLD	Flowers	6	5	[0, 0, 0]	n/a	catFR1	1	R1273D
696.094	0.967	709719	WORD_OFF	n/a	n/a	MARIGOLD	n/a	6	5	[0, 0, 0]	n/a	catFR1	1	R1273D
697.061	1.617	710686	WORD	n/a	wordpools/wordpool_categorized_EN.txt	PANTS	Clothing	7	5	[0, 0, 0]	n/a	catFR1	1	R1273D
698.678	0.85	712302	WORD_OFF	n/a	n/a	PANTS	n/a	7	5	[0, 0, 0]	n/a	catFR1	1	R1273D
699.528	1.617	713152	WORD	n/a	wordpools/wordpool_categorized_EN.txt	DRESS	Clothing	8	5	[0, 0, 0]	n/a	catFR1	1	R1273D
701.145	0.85	714769	WORD_OFF	n/a	n/a	DRESS	n/a	8	5	[0, 0, 0]	n/a	catFR1	1	R1273D
701.995	1.617	715619	WORD	n/a	wordpools/wordpool_categorized_EN.txt	JELLO	Desserts	9	5	[0, 0, 0]	n/a	catFR1	1	R1273D
703.612	0.817	717236	WORD_OFF	n/a	n/a	JELLO	n/a	9	5	[0, 0, 0]	n/a	catFR1	1	R1273D
704.429	1.617	718053	WORD	n/a	wordpools/wordpool_categorized_EN.txt	MOUSSE	Desserts	10	5	[0, 0, 0]	n/a	catFR1	1	R1273D
706.046	0.95	719670	WORD_OFF	n/a	n/a	MOUSSE	n/a	10	5	[0, 0, 0]	n/a	catFR1	1	R1273D
706.996	1.617	720620	WORD	n/a	wordpools/wordpool_categorized_EN.txt	VIOLET	Flowers	11	5	[0, 0, 0]	n/a	catFR1	1	R1273D
708.613	0.817	722237	WORD_OFF	n/a	n/a	VIOLET	n/a	11	5	[0, 0, 0]	n/a	catFR1	1	R1273D
709.43	1.617	723054	WORD	n/a	wordpools/wordpool_categorized_EN.txt	DAISY	Flowers	12	5	[0, 0, 0]	n/a	catFR1	1	R1273D
711.047	0.0	724671	ENCODING_END	n/a	n/a	n/a	n/a	-999	5	[0, 0, 0]	n/a	catFR1	1	R1273D
711.047	0.102	724671	WORD_OFF	n/a	n/a	DAISY	n/a	12	5	[0, 0, 0]	n/a	catFR1	1	R1273D
711.149	0.0	724773	DISTRACT_START	n/a	n/a	n/a	n/a	-999	5	[0, 0, 0]	n/a	catFR1	1	R1273D
711.149	0.014	724773	START	n/a	n/a	n/a	n/a	-999	5	[-999, -999, -999]	n/a	catFR1	1	R1273D
711.163	6.518	724787	PROB	6.518	n/a	n/a	n/a	-999	5	[9, 5, 2]	16	catFR1	1	R1273D
717.681	6.551	731304	PROB	6.551	n/a	n/a	n/a	-999	5	[4, 3, 7]	14	catFR1	1	R1273D
724.232	6.368	737855	PROB	6.368	n/a	n/a	n/a	-999	5	[3, 7, 6]	17	catFR1	1	R1273D
730.6	7.762	744223	PROB	7.762	n/a	n/a	n/a	-999	5	[9, 5, 6]	20	catFR1	1	R1273D
738.362	0.007	751984	STOP	n/a	n/a	n/a	n/a	-999	5	[-999, -999, -999]	n/a	catFR1	1	R1273D
738.369	0.683	751991	DISTRACT_END	n/a	n/a	n/a	n/a	-999	5	[0, 0, 0]	n/a	catFR1	1	R1273D
739.052	0.517	752674	RETRIEVAL_ORIENT	n/a	n/a	n/a	n/a	-999	5	[0, 0, 0]	n/a	catFR1	1	R1273D
739.569	3.892	753191	REC_START	n/a	n/a	n/a	n/a	-999	5	[0, 0, 0]	n/a	catFR1	1	R1273D
743.461	8.13	757083	REC_WORD_VV	8.13	n/a	<>	n/a	-999	5	[0, 0, 0]	n/a	catFR1	1	R1273D
751.591	3.573	765212	REC_WORD_VV	3.573	n/a	<>	n/a	-999	5	[0, 0, 0]	n/a	catFR1	1	R1273D
755.164	2.465	768785	REC_WORD	2.465	n/a	UNDERWEAR	Clothing	3	5	[0, 0, 0]	n/a	catFR1	1	R1273D
757.629	11.949	771250	REC_WORD_VV	11.949	n/a	<>	n/a	-999	5	[0, 0, 0]	n/a	catFR1	1	R1273D
769.578	5.748	783198	REC_END	n/a	n/a	n/a	n/a	-999	5	[0, 0, 0]	n/a	catFR1	1	R1273D
775.326	0.5	788946	TRIAL	n/a	n/a	n/a	n/a	-999	6	[0, 0, 0]	n/a	catFR1	1	R1273D
775.826	10.428	789446	COUNTDOWN_START	n/a	n/a	n/a	n/a	-999	6	[0, 0, 0]	n/a	catFR1	1	R1273D
786.254	0.006	799874	COUNTDOWN_END	n/a	n/a	n/a	n/a	-999	6	[0, 0, 0]	n/a	catFR1	1	R1273D
786.26	1.617	799880	ORIENT	n/a	n/a	n/a	n/a	-999	6	[0, 0, 0]	n/a	catFR1	1	R1273D
787.877	2.101	801496	ORIENT_OFF	n/a	n/a	n/a	n/a	-999	6	[0, 0, 0]	n/a	catFR1	1	R1273D
789.978	1.617	803597	WORD	n/a	wordpools/wordpool_categorized_EN.txt	ANT	Insects	1	6	[0, 0, 0]	n/a	catFR1	1	R1273D
791.595	1.0	805214	WORD_OFF	n/a	n/a	ANT	n/a	1	6	[0, 0, 0]	n/a	catFR1	1	R1273D
792.595	1.617	806214	WORD	n/a	wordpools/wordpool_categorized_EN.txt	GNAT	Insects	2	6	[0, 0, 0]	n/a	catFR1	1	R1273D
794.212	1.0	807831	WORD_OFF	n/a	n/a	GNAT	n/a	2	6	[0, 0, 0]	n/a	catFR1	1	R1273D
795.212	1.617	808831	WORD	n/a	wordpools/wordpool_categorized_EN.txt	DAFFODIL	Flowers	3	6	[0, 0, 0]	n/a	catFR1	1	R1273D
796.829	0.967	810448	WORD_OFF	n/a	n/a	DAFFODIL	n/a	3	6	[0, 0, 0]	n/a	catFR1	1	R1273D
797.796	1.617	811415	WORD	n/a	wordpools/wordpool_categorized_EN.txt	ORCHID	Flowers	4	6	[0, 0, 0]	n/a	catFR1	1	R1273D
799.413	0.817	813032	WORD_OFF	n/a	n/a	ORCHID	n/a	4	6	[0, 0, 0]	n/a	catFR1	1	R1273D
800.23	1.617	813849	WORD	n/a	wordpools/wordpool_categorized_EN.txt	JUICE	Beverages	5	6	[0, 0, 0]	n/a	catFR1	1	R1273D
801.847	0.916	815466	WORD_OFF	n/a	n/a	JUICE	n/a	5	6	[0, 0, 0]	n/a	catFR1	1	R1273D
802.763	1.617	816382	WORD	n/a	wordpools/wordpool_categorized_EN.txt	COFFEE	Beverages	6	6	[0, 0, 0]	n/a	catFR1	1	R1273D
804.38	1.001	817999	WORD_OFF	n/a	n/a	COFFEE	n/a	6	6	[0, 0, 0]	n/a	catFR1	1	R1273D
805.381	1.616	818999	WORD	n/a	wordpools/wordpool_categorized_EN.txt	LILY	Flowers	7	6	[0, 0, 0]	n/a	catFR1	1	R1273D
806.997	0.884	820615	WORD_OFF	n/a	n/a	LILY	n/a	7	6	[0, 0, 0]	n/a	catFR1	1	R1273D
807.881	1.617	821499	WORD	n/a	wordpools/wordpool_categorized_EN.txt	SUNFLOWER	Flowers	8	6	[0, 0, 0]	n/a	catFR1	1	R1273D
809.498	0.95	823116	WORD_OFF	n/a	n/a	SUNFLOWER	n/a	8	6	[0, 0, 0]	n/a	catFR1	1	R1273D
810.448	1.617	824066	WORD	n/a	wordpools/wordpool_categorized_EN.txt	LADYBUG	Insects	9	6	[0, 0, 0]	n/a	catFR1	1	R1273D
812.065	0.884	825683	WORD_OFF	n/a	n/a	LADYBUG	n/a	9	6	[0, 0, 0]	n/a	catFR1	1	R1273D
812.949	1.616	826567	WORD	n/a	wordpools/wordpool_categorized_EN.txt	SPIDER	Insects	10	6	[0, 0, 0]	n/a	catFR1	1	R1273D
814.565	0.867	828183	WORD_OFF	n/a	n/a	SPIDER	n/a	10	6	[0, 0, 0]	n/a	catFR1	1	R1273D
815.432	1.617	829050	WORD	n/a	wordpools/wordpool_categorized_EN.txt	WINE	Beverages	11	6	[0, 0, 0]	n/a	catFR1	1	R1273D
817.049	0.817	830667	WORD_OFF	n/a	n/a	WINE	n/a	11	6	[0, 0, 0]	n/a	catFR1	1	R1273D
817.866	1.617	831484	WORD	n/a	wordpools/wordpool_categorized_EN.txt	RUM	Beverages	12	6	[0, 0, 0]	n/a	catFR1	1	R1273D
819.483	0.0	833101	ENCODING_END	n/a	n/a	n/a	n/a	-999	6	[0, 0, 0]	n/a	catFR1	1	R1273D
819.483	0.135	833101	WORD_OFF	n/a	n/a	RUM	n/a	12	6	[0, 0, 0]	n/a	catFR1	1	R1273D
819.618	0.0	833236	DISTRACT_START	n/a	n/a	n/a	n/a	-999	6	[0, 0, 0]	n/a	catFR1	1	R1273D
819.618	0.015	833236	START	n/a	n/a	n/a	n/a	-999	6	[-999, -999, -999]	n/a	catFR1	1	R1273D
819.633	16.353	833251	PROB	16.353	n/a	n/a	n/a	-999	6	[9, 5, 7]	21	catFR1	1	R1273D
835.986	13.208	849603	PROB	13.208	n/a	n/a	n/a	-999	6	[7, 6, 9]	23	catFR1	1	R1273D
849.194	0.012	862810	STOP	n/a	n/a	n/a	n/a	-999	6	[-999, -999, -999]	n/a	catFR1	1	R1273D
849.206	0.666	862822	DISTRACT_END	n/a	n/a	n/a	n/a	-999	6	[0, 0, 0]	n/a	catFR1	1	R1273D
849.872	0.517	863488	RETRIEVAL_ORIENT	n/a	n/a	n/a	n/a	-999	6	[0, 0, 0]	n/a	catFR1	1	R1273D
850.389	6.382	864005	REC_START	n/a	n/a	n/a	n/a	-999	6	[0, 0, 0]	n/a	catFR1	1	R1273D
856.771	8.3	870387	REC_WORD_VV	8.3	n/a	<>	n/a	-999	6	[0, 0, 0]	n/a	catFR1	1	R1273D
865.071	0.403	878686	REC_WORD	0.403	n/a	ANT	Insects	1	6	[0, 0, 0]	n/a	catFR1	1	R1273D
865.474	0.493	879089	REC_WORD	0.493	n/a	GNAT	Insects	2	6	[0, 0, 0]	n/a	catFR1	1	R1273D
865.967	1.255	879582	REC_WORD	1.255	n/a	FLY	n/a	-999	6	[0, 0, 0]	n/a	catFR1	1	R1273D
867.222	3.615	880837	REC_WORD	3.615	n/a	FLOWER	n/a	-999	6	[0, 0, 0]	n/a	catFR1	1	R1273D
870.837	2.373	884452	REC_WORD	2.373	n/a	LILY	Flowers	7	6	[0, 0, 0]	n/a	catFR1	1	R1273D
873.21	7.19	886825	REC_WORD_VV	7.19	n/a	<>	n/a	-999	6	[0, 0, 0]	n/a	catFR1	1	R1273D
880.4	6.128	894014	REC_END	n/a	n/a	n/a	n/a	-999	6	[0, 0, 0]	n/a	catFR1	1	R1273D
886.528	0.5	900142	TRIAL	n/a	n/a	n/a	n/a	-999	7	[0, 0, 0]	n/a	catFR1	1	R1273D
887.028	10.428	900642	COUNTDOWN_START	n/a	n/a	n/a	n/a	-999	7	[0, 0, 0]	n/a	catFR1	1	R1273D
897.456	0.008	911069	COUNTDOWN_END	n/a	n/a	n/a	n/a	-999	7	[0, 0, 0]	n/a	catFR1	1	R1273D
897.464	1.617	911077	ORIENT	n/a	n/a	n/a	n/a	-999	7	[0, 0, 0]	n/a	catFR1	1	R1273D
899.081	1.984	912694	ORIENT_OFF	n/a	n/a	n/a	n/a	-999	7	[0, 0, 0]	n/a	catFR1	1	R1273D
901.065	1.617	914678	WORD	n/a	wordpools/wordpool_categorized_EN.txt	SHRIMP	OceanAnimals	1	7	[0, 0, 0]	n/a	catFR1	1	R1273D
902.682	0.866	916295	WORD_OFF	n/a	n/a	SHRIMP	n/a	1	7	[0, 0, 0]	n/a	catFR1	1	R1273D
903.548	1.617	917161	WORD	n/a	wordpools/wordpool_categorized_EN.txt	PLANKTON	OceanAnimals	2	7	[0, 0, 0]	n/a	catFR1	1	R1273D
905.165	0.834	918778	WORD_OFF	n/a	n/a	PLANKTON	n/a	2	7	[0, 0, 0]	n/a	catFR1	1	R1273D
905.999	1.617	919612	WORD	n/a	wordpools/wordpool_categorized_EN.txt	RATCHET	Tools	3	7	[0, 0, 0]	n/a	catFR1	1	R1273D
907.616	0.9	921229	WORD_OFF	n/a	n/a	RATCHET	n/a	3	7	[0, 0, 0]	n/a	catFR1	1	R1273D
908.516	1.617	922129	WORD	n/a	wordpools/wordpool_categorized_EN.txt	SANDER	Tools	4	7	[0, 0, 0]	n/a	catFR1	1	R1273D
910.133	0.85	923746	WORD_OFF	n/a	n/a	SANDER	n/a	4	7	[0, 0, 0]	n/a	catFR1	1	R1273D
910.983	1.617	924596	WORD	n/a	wordpools/wordpool_categorized_EN.txt	COAT	Clothing	5	7	[0, 0, 0]	n/a	catFR1	1	R1273D
912.6	0.967	926212	WORD_OFF	n/a	n/a	COAT	n/a	5	7	[0, 0, 0]	n/a	catFR1	1	R1273D
913.567	1.617	927179	WORD	n/a	wordpools/wordpool_categorized_EN.txt	BLOUSE	Clothing	6	7	[0, 0, 0]	n/a	catFR1	1	R1273D
915.184	0.933	928796	WORD_OFF	n/a	n/a	BLOUSE	n/a	6	7	[0, 0, 0]	n/a	catFR1	1	R1273D
916.117	1.617	929729	WORD	n/a	wordpools/wordpool_categorized_EN.txt	TURTLE	OceanAnimals	7	7	[0, 0, 0]	n/a	catFR1	1	R1273D
917.734	0.784	931346	WORD_OFF	n/a	n/a	TURTLE	n/a	7	7	[0, 0, 0]	n/a	catFR1	1	R1273D
918.518	1.617	932130	WORD	n/a	wordpools/wordpool_categorized_EN.txt	DOLPHIN	OceanAnimals	8	7	[0, 0, 0]	n/a	catFR1	1	R1273D
920.135	0.933	933747	WORD_OFF	n/a	n/a	DOLPHIN	n/a	8	7	[0, 0, 0]	n/a	catFR1	1	R1273D
921.068	1.617	934680	WORD	n/a	wordpools/wordpool_categorized_EN.txt	SAW	Tools	9	7	[0, 0, 0]	n/a	catFR1	1	R1273D
922.685	0.817	936297	WORD_OFF	n/a	n/a	SAW	n/a	9	7	[0, 0, 0]	n/a	catFR1	1	R1273D
923.502	1.617	937114	WORD	n/a	wordpools/wordpool_categorized_EN.txt	PLIERS	Tools	10	7	[0, 0, 0]	n/a	catFR1	1	R1273D
925.119	0.967	938731	WORD_OFF	n/a	n/a	PLIERS	n/a	10	7	[0, 0, 0]	n/a	catFR1	1	R1273D
926.086	1.617	939698	WORD	n/a	wordpools/wordpool_categorized_EN.txt	JEANS	Clothing	11	7	[0, 0, 0]	n/a	catFR1	1	R1273D
927.703	0.967	941315	WORD_OFF	n/a	n/a	JEANS	n/a	11	7	[0, 0, 0]	n/a	catFR1	1	R1273D
928.67	1.617	942282	WORD	n/a	wordpools/wordpool_categorized_EN.txt	SKIRT	Clothing	12	7	[0, 0, 0]	n/a	catFR1	1	R1273D
930.287	0.0	943899	ENCODING_END	n/a	n/a	n/a	n/a	-999	7	[0, 0, 0]	n/a	catFR1	1	R1273D
930.287	0.131	943899	WORD_OFF	n/a	n/a	SKIRT	n/a	12	7	[0, 0, 0]	n/a	catFR1	1	R1273D
930.418	0.0	944030	DISTRACT_START	n/a	n/a	n/a	n/a	-999	7	[0, 0, 0]	n/a	catFR1	1	R1273D
930.418	0.019	944030	START	n/a	n/a	n/a	n/a	-999	7	[-999, -999, -999]	n/a	catFR1	1	R1273D
930.437	12.835	944049	PROB	12.835	n/a	n/a	n/a	-999	7	[4, 5, 7]	16	catFR1	1	R1273D
943.272	10.426	956883	PROB	10.426	n/a	n/a	n/a	-999	7	[4, 7, 8]	19	catFR1	1	R1273D
953.698	0.01	967308	STOP	n/a	n/a	n/a	n/a	-999	7	[-999, -999, -999]	n/a	catFR1	1	R1273D
953.708	0.634	967318	DISTRACT_END	n/a	n/a	n/a	n/a	-999	7	[0, 0, 0]	n/a	catFR1	1	R1273D
954.342	0.517	967952	RETRIEVAL_ORIENT	n/a	n/a	n/a	n/a	-999	7	[0, 0, 0]	n/a	catFR1	1	R1273D
954.859	5.109	968469	REC_START	n/a	n/a	n/a	n/a	-999	7	[0, 0, 0]	n/a	catFR1	1	R1273D
959.968	1.697	973578	REC_WORD	1.697	n/a	SHRIMP	OceanAnimals	1	7	[0, 0, 0]	n/a	catFR1	1	R1273D
961.665	4.414	975275	REC_WORD_VV	4.414	n/a	<>	n/a	-999	7	[0, 0, 0]	n/a	catFR1	1	R1273D
966.079	0.926	979689	REC_WORD	0.926	n/a	BLOUSE	Clothing	6	7	[0, 0, 0]	n/a	catFR1	1	R1273D
967.005	17.862	980614	REC_WORD	17.862	n/a	SKIRT	Clothing	12	7	[0, 0, 0]	n/a	catFR1	1	R1273D
984.867	6.181	998475	REC_END	n/a	n/a	n/a	n/a	-999	7	[0, 0, 0]	n/a	catFR1	1	R1273D
991.048	0.5	1004656	TRIAL	n/a	n/a	n/a	n/a	-999	8	[0, 0, 0]	n/a	catFR1	1	R1273D
991.548	10.428	1005156	COUNTDOWN_START	n/a	n/a	n/a	n/a	-999	8	[0, 0, 0]	n/a	catFR1	1	R1273D
1001.976	0.007	1015584	COUNTDOWN_END	n/a	n/a	n/a	n/a	-999	8	[0, 0, 0]	n/a	catFR1	1	R1273D
1001.983	1.617	1015591	ORIENT	n/a	n/a	n/a	n/a	-999	8	[0, 0, 0]	n/a	catFR1	1	R1273D
1003.6	2.134	1017207	ORIENT_OFF	n/a	n/a	n/a	n/a	-999	8	[0, 0, 0]	n/a	catFR1	1	R1273D
1005.734	1.618	1019341	WORD	n/a	wordpools/wordpool_categorized_EN.txt	WHALE	OceanAnimals	1	8	[0, 0, 0]	n/a	catFR1	1	R1273D
1007.352	0.816	1020959	WORD_OFF	n/a	n/a	WHALE	n/a	1	8	[0, 0, 0]	n/a	catFR1	1	R1273D
1008.168	1.617	1021775	WORD	n/a	wordpools/wordpool_categorized_EN.txt	SQUID	OceanAnimals	2	8	[0, 0, 0]	n/a	catFR1	1	R1273D
1009.785	0.816	1023392	WORD_OFF	n/a	n/a	SQUID	n/a	2	8	[0, 0, 0]	n/a	catFR1	1	R1273D
1010.601	1.617	1024208	WORD	n/a	wordpools/wordpool_categorized_EN.txt	CABINET	Furniture	3	8	[0, 0, 0]	n/a	catFR1	1	R1273D
1012.218	0.817	1025825	WORD_OFF	n/a	n/a	CABINET	n/a	3	8	[0, 0, 0]	n/a	catFR1	1	R1273D
1013.035	1.617	1026642	WORD	n/a	wordpools/wordpool_categorized_EN.txt	BED	Furniture	4	8	[0, 0, 0]	n/a	catFR1	1	R1273D
1014.652	0.85	1028259	WORD_OFF	n/a	n/a	BED	n/a	4	8	[0, 0, 0]	n/a	catFR1	1	R1273D
1015.502	1.617	1029109	WORD	n/a	wordpools/wordpool_categorized_EN.txt	MAPLE	Trees	5	8	[0, 0, 0]	n/a	catFR1	1	R1273D
1017.119	0.95	1030726	WORD_OFF	n/a	n/a	MAPLE	n/a	5	8	[0, 0, 0]	n/a	catFR1	1	R1273D
1018.069	1.617	1031676	WORD	n/a	wordpools/wordpool_categorized_EN.txt	WALNUT	Trees	6	8	[0, 0, 0]	n/a	catFR1	1	R1273D
1019.686	0.834	1033293	WORD_OFF	n/a	n/a	WALNUT	n/a	6	8	[0, 0, 0]	n/a	catFR1	1	R1273D
1020.52	1.617	1034126	WORD	n/a	wordpools/wordpool_categorized_EN.txt	DESK	Furniture	7	8	[0, 0, 0]	n/a	catFR1	1	R1273D
1022.137	0.917	1035743	WORD_OFF	n/a	n/a	DESK	n/a	7	8	[0, 0, 0]	n/a	catFR1	1	R1273D
1023.054	1.617	1036660	WORD	n/a	wordpools/wordpool_categorized_EN.txt	SOFA	Furniture	8	8	[0, 0, 0]	n/a	catFR1	1	R1273D
1024.671	0.9	1038277	WORD_OFF	n/a	n/a	SOFA	n/a	8	8	[0, 0, 0]	n/a	catFR1	1	R1273D
1025.571	1.617	1039177	WORD	n/a	wordpools/wordpool_categorized_EN.txt	OYSTER	OceanAnimals	9	8	[0, 0, 0]	n/a	catFR1	1	R1273D
1027.188	0.85	1040794	WORD_OFF	n/a	n/a	OYSTER	n/a	9	8	[0, 0, 0]	n/a	catFR1	1	R1273D
1028.038	1.617	1041644	WORD	n/a	wordpools/wordpool_categorized_EN.txt	JELLYFISH	OceanAnimals	10	8	[0, 0, 0]	n/a	catFR1	1	R1273D
1029.655	0.9	1043261	WORD_OFF	n/a	n/a	JELLYFISH	n/a	10	8	[0, 0, 0]	n/a	catFR1	1	R1273D
1030.555	1.617	1044161	WORD	n/a	wordpools/wordpool_categorized_EN.txt	WILLOW	Trees	11	8	[0, 0, 0]	n/a	catFR1	1	R1273D
1032.172	0.867	1045778	WORD_OFF	n/a	n/a	WILLOW	n/a	11	8	[0, 0, 0]	n/a	catFR1	1	R1273D
1033.039	1.617	1046645	WORD	n/a	wordpools/wordpool_categorized_EN.txt	SPRUCE	Trees	12	8	[0, 0, 0]	n/a	catFR1	1	R1273D
1034.656	0.0	1048262	ENCODING_END	n/a	n/a	n/a	n/a	-999	8	[0, 0, 0]	n/a	catFR1	1	R1273D
1034.656	0.101	1048262	WORD_OFF	n/a	n/a	SPRUCE	n/a	12	8	[0, 0, 0]	n/a	catFR1	1	R1273D
1034.757	0.0	1048363	DISTRACT_START	n/a	n/a	n/a	n/a	-999	8	[0, 0, 0]	n/a	catFR1	1	R1273D
1034.757	0.015	1048363	START	n/a	n/a	n/a	n/a	-999	8	[-999, -999, -999]	n/a	catFR1	1	R1273D
1034.772	13.853	1048378	PROB	13.853	n/a	n/a	n/a	-999	8	[3, 9, 6]	18	catFR1	1	R1273D
1048.625	13.585	1062230	PROB	13.585	n/a	n/a	n/a	-999	8	[8, 5, 8]	21	catFR1	1	R1273D
1062.21	0.018	1075814	STOP	n/a	n/a	n/a	n/a	-999	8	[-999, -999, -999]	n/a	catFR1	1	R1273D
1062.228	0.6	1075832	DISTRACT_END	n/a	n/a	n/a	n/a	-999	8	[0, 0, 0]	n/a	catFR1	1	R1273D
1062.828	0.518	1076432	RETRIEVAL_ORIENT	n/a	n/a	n/a	n/a	-999	8	[0, 0, 0]	n/a	catFR1	1	R1273D
1063.346	6.036	1076950	REC_START	n/a	n/a	n/a	n/a	-999	8	[0, 0, 0]	n/a	catFR1	1	R1273D
1069.382	0.494	1082986	REC_WORD	0.494	n/a	DOLPHIN	n/a	-999	8	[0, 0, 0]	n/a	catFR1	1	R1273D
1069.876	1.84	1083480	REC_WORD	1.84	n/a	SQUID	OceanAnimals	2	8	[0, 0, 0]	n/a	catFR1	1	R1273D
1071.716	2.737	1085320	REC_WORD	2.737	n/a	SOFA	Furniture	8	8	[0, 0, 0]	n/a	catFR1	1	R1273D
1074.453	2.044	1088056	REC_WORD_VV	2.044	n/a	<>	n/a	-999	8	[0, 0, 0]	n/a	catFR1	1	R1273D
1076.497	0.507	1090100	REC_WORD	0.507	n/a	WILLOW	Trees	11	8	[0, 0, 0]	n/a	catFR1	1	R1273D
1077.004	8.992	1090607	REC_WORD	8.992	n/a	SPRUCE	Trees	12	8	[0, 0, 0]	n/a	catFR1	1	R1273D
1085.996	7.359	1099599	REC_WORD_VV	7.359	n/a	<>	n/a	-999	8	[0, 0, 0]	n/a	catFR1	1	R1273D
1093.355	6.463	1106957	REC_END	n/a	n/a	n/a	n/a	-999	8	[0, 0, 0]	n/a	catFR1	1	R1273D
1099.818	0.5	1113420	TRIAL	n/a	n/a	n/a	n/a	-999	9	[0, 0, 0]	n/a	catFR1	1	R1273D
1100.318	10.428	1113920	COUNTDOWN_START	n/a	n/a	n/a	n/a	-999	9	[0, 0, 0]	n/a	catFR1	1	R1273D
1110.746	0.007	1124347	COUNTDOWN_END	n/a	n/a	n/a	n/a	-999	9	[0, 0, 0]	n/a	catFR1	1	R1273D
1110.753	1.617	1124354	ORIENT	n/a	n/a	n/a	n/a	-999	9	[0, 0, 0]	n/a	catFR1	1	R1273D
1112.37	2.084	1125971	ORIENT_OFF	n/a	n/a	n/a	n/a	-999	9	[0, 0, 0]	n/a	catFR1	1	R1273D
1114.454	1.617	1128055	WORD	n/a	wordpools/wordpool_categorized_EN.txt	BIKE	Vehicles	1	9	[0, 0, 0]	n/a	catFR1	1	R1273D
1116.071	1.0	1129672	WORD_OFF	n/a	n/a	BIKE	n/a	1	9	[0, 0, 0]	n/a	catFR1	1	R1273D
1117.071	1.617	1130672	WORD	n/a	wordpools/wordpool_categorized_EN.txt	CAR	Vehicles	2	9	[0, 0, 0]	n/a	catFR1	1	R1273D
1118.688	0.85	1132289	WORD_OFF	n/a	n/a	CAR	n/a	2	9	[0, 0, 0]	n/a	catFR1	1	R1273D
1119.538	1.617	1133139	WORD	n/a	wordpools/wordpool_categorized_EN.txt	PHONE	Electronics	3	9	[0, 0, 0]	n/a	catFR1	1	R1273D
1121.155	0.866	1134756	WORD_OFF	n/a	n/a	PHONE	n/a	3	9	[0, 0, 0]	n/a	catFR1	1	R1273D
1122.021	1.618	1135622	WORD	n/a	wordpools/wordpool_categorized_EN.txt	STEREO	Electronics	4	9	[0, 0, 0]	n/a	catFR1	1	R1273D
1123.639	0.983	1137240	WORD_OFF	n/a	n/a	STEREO	n/a	4	9	[0, 0, 0]	n/a	catFR1	1	R1273D
1124.622	1.617	1138223	WORD	n/a	wordpools/wordpool_categorized_EN.txt	TAPE	OfficeSupplies	5	9	[0, 0, 0]	n/a	catFR1	1	R1273D
1126.239	0.767	1139840	WORD_OFF	n/a	n/a	TAPE	n/a	5	9	[0, 0, 0]	n/a	catFR1	1	R1273D
1127.006	1.617	1140607	WORD	n/a	wordpools/wordpool_categorized_EN.txt	RULER	OfficeSupplies	6	9	[0, 0, 0]	n/a	catFR1	1	R1273D
1128.623	0.783	1142223	WORD_OFF	n/a	n/a	RULER	n/a	6	9	[0, 0, 0]	n/a	catFR1	1	R1273D
1129.406	1.617	1143006	WORD	n/a	wordpools/wordpool_categorized_EN.txt	SCOOTER	Vehicles	7	9	[0, 0, 0]	n/a	catFR1	1	R1273D
1131.023	0.984	1144623	WORD_OFF	n/a	n/a	SCOOTER	n/a	7	9	[0, 0, 0]	n/a	catFR1	1	R1273D
1132.007	1.617	1145607	WORD	n/a	wordpools/wordpool_categorized_EN.txt	BOAT	Vehicles	8	9	[0, 0, 0]	n/a	catFR1	1	R1273D
1133.624	0.817	1147224	WORD_OFF	n/a	n/a	BOAT	n/a	8	9	[0, 0, 0]	n/a	catFR1	1	R1273D
1134.441	1.617	1148041	WORD	n/a	wordpools/wordpool_categorized_EN.txt	SPEAKER	Electronics	9	9	[0, 0, 0]	n/a	catFR1	1	R1273D
1136.058	0.866	1149658	WORD_OFF	n/a	n/a	SPEAKER	n/a	9	9	[0, 0, 0]	n/a	catFR1	1	R1273D
1136.924	1.617	1150524	WORD	n/a	wordpools/wordpool_categorized_EN.txt	MICROWAVE	Electronics	10	9	[0, 0, 0]	n/a	catFR1	1	R1273D
1138.541	0.785	1152141	WORD_OFF	n/a	n/a	MICROWAVE	n/a	10	9	[0, 0, 0]	n/a	catFR1	1	R1273D
1139.326	1.616	1152926	WORD	n/a	wordpools/wordpool_categorized_EN.txt	PENCIL	OfficeSupplies	11	9	[0, 0, 0]	n/a	catFR1	1	R1273D
1140.942	0.983	1154542	WORD_OFF	n/a	n/a	PENCIL	n/a	11	9	[0, 0, 0]	n/a	catFR1	1	R1273D
1141.925	1.617	1155525	WORD	n/a	wordpools/wordpool_categorized_EN.txt	FOLDER	OfficeSupplies	12	9	[0, 0, 0]	n/a	catFR1	1	R1273D
1143.542	0.001	1157142	WORD_OFF	n/a	n/a	FOLDER	n/a	12	9	[0, 0, 0]	n/a	catFR1	1	R1273D
1143.543	0.134	1157143	ENCODING_END	n/a	n/a	n/a	n/a	-999	9	[0, 0, 0]	n/a	catFR1	1	R1273D
1143.677	0.0	1157277	DISTRACT_START	n/a	n/a	n/a	n/a	-999	9	[0, 0, 0]	n/a	catFR1	1	R1273D
1143.677	0.015	1157277	START	n/a	n/a	n/a	n/a	-999	9	[-999, -999, -999]	n/a	catFR1	1	R1273D
1143.692	7.868	1157292	PROB	7.868	n/a	n/a	n/a	-999	9	[6, 3, 5]	14	catFR1	1	R1273D
1151.56	4.235	1165159	PROB	4.235	n/a	n/a	n/a	-999	9	[2, 1, 8]	11	catFR1	1	R1273D
1155.795	7.552	1169394	PROB	7.552	n/a	n/a	n/a	-999	9	[7, 2, 9]	18	catFR1	1	R1273D
1163.347	8.806	1176946	PROB	8.806	n/a	n/a	n/a	-999	9	[4, 7, 2]	13	catFR1	1	R1273D
1172.153	0.011	1185751	STOP	n/a	n/a	n/a	n/a	-999	9	[-999, -999, -999]	n/a	catFR1	1	R1273D
1172.164	0.667	1185762	DISTRACT_END	n/a	n/a	n/a	n/a	-999	9	[0, 0, 0]	n/a	catFR1	1	R1273D
1172.831	0.519	1186429	RETRIEVAL_ORIENT	n/a	n/a	n/a	n/a	-999	9	[0, 0, 0]	n/a	catFR1	1	R1273D
1173.35	8.472	1186948	REC_START	n/a	n/a	n/a	n/a	-999	9	[0, 0, 0]	n/a	catFR1	1	R1273D
1181.822	0.748	1195419	REC_WORD	0.748	n/a	MICROWAVE	Electronics	10	9	[0, 0, 0]	n/a	catFR1	1	R1273D
1182.57	2.934	1196167	REC_WORD_VV	2.934	n/a	<>	n/a	-999	9	[0, 0, 0]	n/a	catFR1	1	R1273D
1185.504	6.362	1199101	REC_WORD	6.362	n/a	PAPER	n/a	-999	9	[0, 0, 0]	n/a	catFR1	1	R1273D
1191.866	0.668	1205463	REC_WORD_VV	0.668	n/a	<>	n/a	-999	9	[0, 0, 0]	n/a	catFR1	1	R1273D
1192.534	0.981	1206131	REC_WORD	0.981	n/a	SQUID	n/a	-999	9	[0, 0, 0]	n/a	catFR1	1	R1273D
1193.515	0.303	1207112	REC_WORD_VV	0.303	n/a	<>	n/a	-999	9	[0, 0, 0]	n/a	catFR1	1	R1273D
1193.818	9.542	1207415	REC_WORD	9.542	n/a	DOLPHIN	n/a	-999	9	[0, 0, 0]	n/a	catFR1	1	R1273D
1203.36	8.878	1216956	REC_END	n/a	n/a	n/a	n/a	-999	9	[0, 0, 0]	n/a	catFR1	1	R1273D
1212.238	0.5	1225834	TRIAL	n/a	n/a	n/a	n/a	-999	10	[0, 0, 0]	n/a	catFR1	1	R1273D
1212.738	10.428	1226334	COUNTDOWN_START	n/a	n/a	n/a	n/a	-999	10	[0, 0, 0]	n/a	catFR1	1	R1273D
1223.166	0.008	1236761	COUNTDOWN_END	n/a	n/a	n/a	n/a	-999	10	[0, 0, 0]	n/a	catFR1	1	R1273D
1223.174	1.617	1236769	ORIENT	n/a	n/a	n/a	n/a	-999	10	[0, 0, 0]	n/a	catFR1	1	R1273D
1224.791	2.183	1238386	ORIENT_OFF	n/a	n/a	n/a	n/a	-999	10	[0, 0, 0]	n/a	catFR1	1	R1273D
1226.974	1.617	1240569	WORD	n/a	wordpools/wordpool_categorized_EN.txt	FOUNDATION	Building	1	10	[0, 0, 0]	n/a	catFR1	1	R1273D
1228.591	0.984	1242186	WORD_OFF	n/a	n/a	FOUNDATION	n/a	1	10	[0, 0, 0]	n/a	catFR1	1	R1273D
1229.575	1.617	1243170	WORD	n/a	wordpools/wordpool_categorized_EN.txt	FLOOR	Building	2	10	[0, 0, 0]	n/a	catFR1	1	R1273D
1231.192	0.85	1244787	WORD_OFF	n/a	n/a	FLOOR	n/a	2	10	[0, 0, 0]	n/a	catFR1	1	R1273D
1232.042	1.617	1245637	WORD	n/a	wordpools/wordpool_categorized_EN.txt	TOE	BodyParts	3	10	[0, 0, 0]	n/a	catFR1	1	R1273D
1233.659	0.783	1247254	WORD_OFF	n/a	n/a	TOE	n/a	3	10	[0, 0, 0]	n/a	catFR1	1	R1273D
1234.442	1.617	1248037	WORD	n/a	wordpools/wordpool_categorized_EN.txt	HEAD	BodyParts	4	10	[0, 0, 0]	n/a	catFR1	1	R1273D
1236.059	0.867	1249653	WORD_OFF	n/a	n/a	HEAD	n/a	4	10	[0, 0, 0]	n/a	catFR1	1	R1273D
1236.926	1.617	1250520	WORD	n/a	wordpools/wordpool_categorized_EN.txt	COMPUTER	Electronics	5	10	[0, 0, 0]	n/a	catFR1	1	R1273D
1238.543	0.801	1252137	WORD_OFF	n/a	n/a	COMPUTER	n/a	5	10	[0, 0, 0]	n/a	catFR1	1	R1273D
1239.344	1.616	1252938	WORD	n/a	wordpools/wordpool_categorized_EN.txt	HEADPHONES	Electronics	6	10	[0, 0, 0]	n/a	catFR1	1	R1273D
1240.96	0.9	1254554	WORD_OFF	n/a	n/a	HEADPHONES	n/a	6	10	[0, 0, 0]	n/a	catFR1	1	R1273D
1241.86	1.617	1255454	WORD	n/a	wordpools/wordpool_categorized_EN.txt	NOSE	BodyParts	7	10	[0, 0, 0]	n/a	catFR1	1	R1273D
1243.477	1.0	1257071	WORD_OFF	n/a	n/a	NOSE	n/a	7	10	[0, 0, 0]	n/a	catFR1	1	R1273D
1244.477	1.617	1258071	WORD	n/a	wordpools/wordpool_categorized_EN.txt	ELBOW	BodyParts	8	10	[0, 0, 0]	n/a	catFR1	1	R1273D
1246.094	0.967	1259688	WORD_OFF	n/a	n/a	ELBOW	n/a	8	10	[0, 0, 0]	n/a	catFR1	1	R1273D
1247.061	1.617	1260655	WORD	n/a	wordpools/wordpool_categorized_EN.txt	BATHROOM	Building	9	10	[0, 0, 0]	n/a	catFR1	1	R1273D
1248.678	1.0	1262272	WORD_OFF	n/a	n/a	BATHROOM	n/a	9	10	[0, 0, 0]	n/a	catFR1	1	R1273D
1249.678	1.617	1263272	WORD	n/a	wordpools/wordpool_categorized_EN.txt	WALL	Building	10	10	[0, 0, 0]	n/a	catFR1	1	R1273D
1251.295	0.951	1264889	WORD_OFF	n/a	n/a	WALL	n/a	10	10	[0, 0, 0]	n/a	catFR1	1	R1273D
1252.246	1.616	1265840	WORD	n/a	wordpools/wordpool_categorized_EN.txt	TABLET	Electronics	11	10	[0, 0, 0]	n/a	catFR1	1	R1273D
1253.862	0.834	1267455	WORD_OFF	n/a	n/a	TABLET	n/a	11	10	[0, 0, 0]	n/a	catFR1	1	R1273D
1254.696	1.618	1268289	WORD	n/a	wordpools/wordpool_categorized_EN.txt	PRINTER	Electronics	12	10	[0, 0, 0]	n/a	catFR1	1	R1273D
1256.314	0.0	1269907	ENCODING_END	n/a	n/a	n/a	n/a	-999	10	[0, 0, 0]	n/a	catFR1	1	R1273D
1256.314	0.101	1269907	WORD_OFF	n/a	n/a	PRINTER	n/a	12	10	[0, 0, 0]	n/a	catFR1	1	R1273D
1256.415	0.0	1270008	DISTRACT_START	n/a	n/a	n/a	n/a	-999	10	[0, 0, 0]	n/a	catFR1	1	R1273D
1256.415	0.015	1270008	START	n/a	n/a	n/a	n/a	-999	10	[-999, -999, -999]	n/a	catFR1	1	R1273D
1256.43	5.867	1270023	PROB	5.867	n/a	n/a	n/a	-999	10	[4, 6, 1]	11	catFR1	1	R1273D
1262.297	6.985	1275890	PROB	6.985	n/a	n/a	n/a	-999	10	[9, 5, 6]	20	catFR1	1	R1273D
1269.282	4.617	1282875	PROB	4.617	n/a	n/a	n/a	-999	10	[9, 6, 5]	20	catFR1	1	R1273D
1273.899	3.575	1287491	PROB	3.575	n/a	n/a	n/a	-999	10	[8, 2, 1]	11	catFR1	1	R1273D
1277.474	0.01	1291066	STOP	n/a	n/a	n/a	n/a	-999	10	[-999, -999, -999]	n/a	catFR1	1	R1273D
1277.484	0.683	1291076	DISTRACT_END	n/a	n/a	n/a	n/a	-999	10	[0, 0, 0]	n/a	catFR1	1	R1273D
1278.167	0.517	1291759	RETRIEVAL_ORIENT	n/a	n/a	n/a	n/a	-999	10	[0, 0, 0]	n/a	catFR1	1	R1273D
1278.684	13.005	1292276	REC_START	n/a	n/a	n/a	n/a	-999	10	[0, 0, 0]	n/a	catFR1	1	R1273D
1291.689	3.667	1305280	REC_WORD_VV	3.667	n/a	<>	n/a	-999	10	[0, 0, 0]	n/a	catFR1	1	R1273D
1295.356	0.855	1308947	REC_WORD_VV	0.855	n/a	<>	n/a	-999	10	[0, 0, 0]	n/a	catFR1	1	R1273D
1296.211	1.889	1309802	REC_WORD	1.889	n/a	PAPER	n/a	-999	10	[0, 0, 0]	n/a	catFR1	1	R1273D
1298.1	1.174	1311691	REC_WORD_VV	1.174	n/a	<>	n/a	-999	10	[0, 0, 0]	n/a	catFR1	1	R1273D
1299.274	1.681	1312865	REC_WORD	1.681	n/a	WALL	Building	10	10	[0, 0, 0]	n/a	catFR1	1	R1273D
1300.955	4.886	1314546	REC_WORD	4.886	n/a	TABLET	Electronics	11	10	[0, 0, 0]	n/a	catFR1	1	R1273D
1305.841	2.854	1319432	REC_WORD_VV	2.854	n/a	<>	n/a	-999	10	[0, 0, 0]	n/a	catFR1	1	R1273D
1308.695	6.412	1322285	REC_END	n/a	n/a	n/a	n/a	-999	10	[0, 0, 0]	n/a	catFR1	1	R1273D
1315.107	0.5	1328697	TRIAL	n/a	n/a	n/a	n/a	-999	11	[0, 0, 0]	n/a	catFR1	1	R1273D
1315.607	10.428	1329197	COUNTDOWN_START	n/a	n/a	n/a	n/a	-999	11	[0, 0, 0]	n/a	catFR1	1	R1273D
1326.035	0.007	1339624	COUNTDOWN_END	n/a	n/a	n/a	n/a	-999	11	[0, 0, 0]	n/a	catFR1	1	R1273D
1326.042	1.617	1339631	ORIENT	n/a	n/a	n/a	n/a	-999	11	[0, 0, 0]	n/a	catFR1	1	R1273D
1327.659	2.067	1341248	ORIENT_OFF	n/a	n/a	n/a	n/a	-999	11	[0, 0, 0]	n/a	catFR1	1	R1273D
1329.726	1.601	1343315	WORD	n/a	wordpools/wordpool_categorized_EN.txt	TROMBONE	Instruments	1	11	[0, 0, 0]	n/a	catFR1	1	R1273D
1331.327	0.984	1344916	WORD_OFF	n/a	n/a	TROMBONE	n/a	1	11	[0, 0, 0]	n/a	catFR1	1	R1273D
1332.311	1.616	1345900	WORD	n/a	wordpools/wordpool_categorized_EN.txt	VIOLIN	Instruments	2	11	[0, 0, 0]	n/a	catFR1	1	R1273D
1333.927	0.95	1347516	WORD_OFF	n/a	n/a	VIOLIN	n/a	2	11	[0, 0, 0]	n/a	catFR1	1	R1273D
1334.877	1.617	1348466	WORD	n/a	wordpools/wordpool_categorized_EN.txt	HALLWAY	Building	3	11	[0, 0, 0]	n/a	catFR1	1	R1273D
1336.494	0.868	1350083	WORD_OFF	n/a	n/a	HALLWAY	n/a	3	11	[0, 0, 0]	n/a	catFR1	1	R1273D
1337.362	1.616	1350951	WORD	n/a	wordpools/wordpool_categorized_EN.txt	DOOR	Building	4	11	[0, 0, 0]	n/a	catFR1	1	R1273D
1338.978	0.983	1352567	WORD_OFF	n/a	n/a	DOOR	n/a	4	11	[0, 0, 0]	n/a	catFR1	1	R1273D
1339.961	1.618	1353550	WORD	n/a	wordpools/wordpool_categorized_EN.txt	HORSE	FarmAnimals	5	11	[0, 0, 0]	n/a	catFR1	1	R1273D
1341.579	0.816	1355168	WORD_OFF	n/a	n/a	HORSE	n/a	5	11	[0, 0, 0]	n/a	catFR1	1	R1273D
1342.395	1.617	1355984	WORD	n/a	wordpools/wordpool_categorized_EN.txt	ROOSTER	FarmAnimals	6	11	[0, 0, 0]	n/a	catFR1	1	R1273D
1344.012	0.867	1357600	WORD_OFF	n/a	n/a	ROOSTER	n/a	6	11	[0, 0, 0]	n/a	catFR1	1	R1273D
1344.879	1.617	1358467	WORD	n/a	wordpools/wordpool_categorized_EN.txt	WINDOW	Building	7	11	[0, 0, 0]	n/a	catFR1	1	R1273D
1346.496	0.8	1360084	WORD_OFF	n/a	n/a	WINDOW	n/a	7	11	[0, 0, 0]	n/a	catFR1	1	R1273D
1347.296	1.617	1360884	WORD	n/a	wordpools/wordpool_categorized_EN.txt	ATTIC	Building	8	11	[0, 0, 0]	n/a	catFR1	1	R1273D
1348.913	0.917	1362501	WORD_OFF	n/a	n/a	ATTIC	n/a	8	11	[0, 0, 0]	n/a	catFR1	1	R1273D
1349.83	1.617	1363418	WORD	n/a	wordpools/wordpool_categorized_EN.txt	CELLO	Instruments	9	11	[0, 0, 0]	n/a	catFR1	1	R1273D
1351.447	0.984	1365035	WORD_OFF	n/a	n/a	CELLO	n/a	9	11	[0, 0, 0]	n/a	catFR1	1	R1273D
1352.431	1.617	1366019	WORD	n/a	wordpools/wordpool_categorized_EN.txt	TRUMPET	Instruments	10	11	[0, 0, 0]	n/a	catFR1	1	R1273D
1354.048	0.883	1367636	WORD_OFF	n/a	n/a	TRUMPET	n/a	10	11	[0, 0, 0]	n/a	catFR1	1	R1273D
1354.931	1.617	1368519	WORD	n/a	wordpools/wordpool_categorized_EN.txt	BULL	FarmAnimals	11	11	[0, 0, 0]	n/a	catFR1	1	R1273D
1356.548	0.785	1370136	WORD_OFF	n/a	n/a	BULL	n/a	11	11	[0, 0, 0]	n/a	catFR1	1	R1273D
1357.333	1.615	1370921	WORD	n/a	wordpools/wordpool_categorized_EN.txt	CHICKEN	FarmAnimals	12	11	[0, 0, 0]	n/a	catFR1	1	R1273D
1358.948	0.001	1372536	WORD_OFF	n/a	n/a	CHICKEN	n/a	12	11	[0, 0, 0]	n/a	catFR1	1	R1273D
1358.949	0.102	1372537	ENCODING_END	n/a	n/a	n/a	n/a	-999	11	[0, 0, 0]	n/a	catFR1	1	R1273D
1359.051	0.001	1372639	DISTRACT_START	n/a	n/a	n/a	n/a	-999	11	[0, 0, 0]	n/a	catFR1	1	R1273D
1359.052	0.013	1372640	START	n/a	n/a	n/a	n/a	-999	11	[-999, -999, -999]	n/a	catFR1	1	R1273D
1359.065	8.202	1372653	PROB	8.202	n/a	n/a	n/a	-999	11	[4, 7, 1]	12	catFR1	1	R1273D
1367.267	3.15	1380854	PROB	3.15	n/a	n/a	n/a	-999	11	[8, 2, 6]	16	catFR1	1	R1273D
1370.417	7.068	1384004	PROB	7.068	n/a	n/a	n/a	-999	11	[3, 7, 3]	10	catFR1	1	R1273D
1377.485	3.525	1391072	PROB	3.525	n/a	n/a	n/a	-999	11	[6, 1, 6]	13	catFR1	1	R1273D
1381.01	0.009	1394596	STOP	n/a	n/a	n/a	n/a	-999	11	[-999, -999, -999]	n/a	catFR1	1	R1273D
1381.019	0.55	1394605	DISTRACT_END	n/a	n/a	n/a	n/a	-999	11	[0, 0, 0]	n/a	catFR1	1	R1273D
1381.569	0.517	1395155	RETRIEVAL_ORIENT	n/a	n/a	n/a	n/a	-999	11	[0, 0, 0]	n/a	catFR1	1	R1273D
1382.086	16.622	1395672	REC_START	n/a	n/a	n/a	n/a	-999	11	[0, 0, 0]	n/a	catFR1	1	R1273D
1398.708	3.445	1412293	REC_WORD_VV	3.445	n/a	<>	n/a	-999	11	[0, 0, 0]	n/a	catFR1	1	R1273D
1402.153	1.569	1415738	REC_WORD	1.569	n/a	CELLO	Instruments	9	11	[0, 0, 0]	n/a	catFR1	1	R1273D
1403.722	0.125	1417307	REC_WORD_VV	0.125	n/a	<>	n/a	-999	11	[0, 0, 0]	n/a	catFR1	1	R1273D
1403.847	0.858	1417432	REC_WORD	0.858	n/a	HORSE	FarmAnimals	5	11	[0, 0, 0]	n/a	catFR1	1	R1273D
1404.705	0.122	1418290	REC_WORD_VV	0.122	n/a	<>	n/a	-999	11	[0, 0, 0]	n/a	catFR1	1	R1273D
1404.827	2.565	1418412	REC_WORD	2.565	n/a	CHICKEN	FarmAnimals	12	11	[0, 0, 0]	n/a	catFR1	1	R1273D
1407.392	2.04	1420977	REC_WORD	2.04	n/a	CELLO	Instruments	9	11	[0, 0, 0]	n/a	catFR1	1	R1273D
1409.432	0.525	1423017	REC_WORD	0.525	n/a	TRUMPET	Instruments	10	11	[0, 0, 0]	n/a	catFR1	1	R1273D
1409.957	2.139	1423542	REC_WORD	2.139	n/a	TROMBONE	Instruments	1	11	[0, 0, 0]	n/a	catFR1	1	R1273D
1412.096	11.614	1425681	REC_END	n/a	n/a	n/a	n/a	-999	11	[0, 0, 0]	n/a	catFR1	1	R1273D
1423.71	0.5	1437294	TRIAL	n/a	n/a	n/a	n/a	-999	12	[0, 0, 0]	n/a	catFR1	1	R1273D
1424.21	10.428	1437794	COUNTDOWN_START	n/a	n/a	n/a	n/a	-999	12	[0, 0, 0]	n/a	catFR1	1	R1273D
1434.638	0.008	1448221	COUNTDOWN_END	n/a	n/a	n/a	n/a	-999	12	[0, 0, 0]	n/a	catFR1	1	R1273D
1434.646	1.617	1448229	ORIENT	n/a	n/a	n/a	n/a	-999	12	[0, 0, 0]	n/a	catFR1	1	R1273D
1436.263	1.983	1449846	ORIENT_OFF	n/a	n/a	n/a	n/a	-999	12	[0, 0, 0]	n/a	catFR1	1	R1273D
1438.246	1.617	1451829	WORD	n/a	wordpools/wordpool_categorized_EN.txt	MOTORCYCLE	Vehicles	1	12	[0, 0, 0]	n/a	catFR1	1	R1273D
1439.863	0.984	1453446	WORD_OFF	n/a	n/a	MOTORCYCLE	n/a	1	12	[0, 0, 0]	n/a	catFR1	1	R1273D
1440.847	1.617	1454430	WORD	n/a	wordpools/wordpool_categorized_EN.txt	MOPED	Vehicles	2	12	[0, 0, 0]	n/a	catFR1	1	R1273D
1442.464	0.95	1456047	WORD_OFF	n/a	n/a	MOPED	n/a	2	12	[0, 0, 0]	n/a	catFR1	1	R1273D
1443.414	1.617	1456997	WORD	n/a	wordpools/wordpool_categorized_EN.txt	TURKEY	FarmAnimals	3	12	[0, 0, 0]	n/a	catFR1	1	R1273D
1445.031	0.817	1458614	WORD_OFF	n/a	n/a	TURKEY	n/a	3	12	[0, 0, 0]	n/a	catFR1	1	R1273D
1445.848	1.616	1459431	WORD	n/a	wordpools/wordpool_categorized_EN.txt	LAMB	FarmAnimals	4	12	[0, 0, 0]	n/a	catFR1	1	R1273D
1447.464	0.817	1461047	WORD_OFF	n/a	n/a	LAMB	n/a	4	12	[0, 0, 0]	n/a	catFR1	1	R1273D
1448.281	1.617	1461864	WORD	n/a	wordpools/wordpool_categorized_EN.txt	TORNADO	Weather	5	12	[0, 0, 0]	n/a	catFR1	1	R1273D
1449.898	0.767	1463481	WORD_OFF	n/a	n/a	TORNADO	n/a	5	12	[0, 0, 0]	n/a	catFR1	1	R1273D
1450.665	1.617	1464248	WORD	n/a	wordpools/wordpool_categorized_EN.txt	LIGHTNING	Weather	6	12	[0, 0, 0]	n/a	catFR1	1	R1273D
1452.282	0.8	1465864	WORD_OFF	n/a	n/a	LIGHTNING	n/a	6	12	[0, 0, 0]	n/a	catFR1	1	R1273D
1453.082	1.617	1466664	WORD	n/a	wordpools/wordpool_categorized_EN.txt	JEEP	Vehicles	7	12	[0, 0, 0]	n/a	catFR1	1	R1273D
1454.699	0.984	1468281	WORD_OFF	n/a	n/a	JEEP	n/a	7	12	[0, 0, 0]	n/a	catFR1	1	R1273D
1455.683	1.617	1469265	WORD	n/a	wordpools/wordpool_categorized_EN.txt	TRAIN	Vehicles	8	12	[0, 0, 0]	n/a	catFR1	1	R1273D
1457.3	0.967	1470882	WORD_OFF	n/a	n/a	TRAIN	n/a	8	12	[0, 0, 0]	n/a	catFR1	1	R1273D
1458.267	1.617	1471849	WORD	n/a	wordpools/wordpool_categorized_EN.txt	SHEEP	FarmAnimals	9	12	[0, 0, 0]	n/a	catFR1	1	R1273D
1459.884	0.916	1473466	WORD_OFF	n/a	n/a	SHEEP	n/a	9	12	[0, 0, 0]	n/a	catFR1	1	R1273D
1460.8	1.617	1474382	WORD	n/a	wordpools/wordpool_categorized_EN.txt	COW	FarmAnimals	10	12	[0, 0, 0]	n/a	catFR1	1	R1273D
1462.417	0.85	1475999	WORD_OFF	n/a	n/a	COW	n/a	10	12	[0, 0, 0]	n/a	catFR1	1	R1273D
1463.267	1.617	1476849	WORD	n/a	wordpools/wordpool_categorized_EN.txt	FOG	Weather	11	12	[0, 0, 0]	n/a	catFR1	1	R1273D
1464.884	0.901	1478466	WORD_OFF	n/a	n/a	FOG	n/a	11	12	[0, 0, 0]	n/a	catFR1	1	R1273D
1465.785	1.616	1479367	WORD	n/a	wordpools/wordpool_categorized_EN.txt	SNOW	Weather	12	12	[0, 0, 0]	n/a	catFR1	1	R1273D
1467.401	0.001	1480983	WORD_OFF	n/a	n/a	SNOW	n/a	12	12	[0, 0, 0]	n/a	catFR1	1	R1273D
1467.402	0.133	1480984	ENCODING_END	n/a	n/a	n/a	n/a	-999	12	[0, 0, 0]	n/a	catFR1	1	R1273D
1467.535	0.0	1481117	DISTRACT_START	n/a	n/a	n/a	n/a	-999	12	[0, 0, 0]	n/a	catFR1	1	R1273D
1467.535	0.017	1481117	START	n/a	n/a	n/a	n/a	-999	12	[-999, -999, -999]	n/a	catFR1	1	R1273D
1467.552	20.538	1481134	PROB	20.538	n/a	n/a	n/a	-999	12	[6, 7, 8]	22	catFR1	1	R1273D
1488.09	0.016	1501670	STOP	n/a	n/a	n/a	n/a	-999	12	[-999, -999, -999]	n/a	catFR1	1	R1273D
1488.106	0.699	1501686	DISTRACT_END	n/a	n/a	n/a	n/a	-999	12	[0, 0, 0]	n/a	catFR1	1	R1273D
1488.805	0.519	1502385	RETRIEVAL_ORIENT	n/a	n/a	n/a	n/a	-999	12	[0, 0, 0]	n/a	catFR1	1	R1273D
1489.324	0.257	1502904	REC_START	n/a	n/a	n/a	n/a	-999	12	[0, 0, 0]	n/a	catFR1	1	R1273D
1489.581	28.18	1503161	REC_WORD_VV	28.18	n/a	<>	n/a	-999	12	[0, 0, 0]	n/a	catFR1	1	R1273D
1517.761	1.573	1531340	REC_WORD_VV	1.573	n/a	<>	n/a	-999	12	[0, 0, 0]	n/a	catFR1	1	R1273D
1519.334	14.446	1532913	REC_END	n/a	n/a	n/a	n/a	-999	12	[0, 0, 0]	n/a	catFR1	1	R1273D
1533.78	0.5	1547358	TRIAL	n/a	n/a	n/a	n/a	-999	13	[0, 0, 0]	n/a	catFR1	1	R1273D
1534.28	10.428	1547858	COUNTDOWN_START	n/a	n/a	n/a	n/a	-999	13	[0, 0, 0]	n/a	catFR1	1	R1273D
1544.708	0.008	1558285	COUNTDOWN_END	n/a	n/a	n/a	n/a	-999	13	[0, 0, 0]	n/a	catFR1	1	R1273D
1544.716	1.618	1558293	ORIENT	n/a	n/a	n/a	n/a	-999	13	[0, 0, 0]	n/a	catFR1	1	R1273D
1546.334	2.149	1559911	ORIENT_OFF	n/a	n/a	n/a	n/a	-999	13	[0, 0, 0]	n/a	catFR1	1	R1273D
1548.483	1.617	1562060	WORD	n/a	wordpools/wordpool_categorized_EN.txt	PASTRY	Desserts	1	13	[0, 0, 0]	n/a	catFR1	1	R1273D
1550.1	0.917	1563677	WORD_OFF	n/a	n/a	PASTRY	n/a	1	13	[0, 0, 0]	n/a	catFR1	1	R1273D
1551.017	1.617	1564594	WORD	n/a	wordpools/wordpool_categorized_EN.txt	PIE	Desserts	2	13	[0, 0, 0]	n/a	catFR1	1	R1273D
1552.634	0.817	1566211	WORD_OFF	n/a	n/a	PIE	n/a	2	13	[0, 0, 0]	n/a	catFR1	1	R1273D
1553.451	1.617	1567028	WORD	n/a	wordpools/wordpool_categorized_EN.txt	PEAS	Vegetables	3	13	[0, 0, 0]	n/a	catFR1	1	R1273D
1555.068	0.833	1568645	WORD_OFF	n/a	n/a	PEAS	n/a	3	13	[0, 0, 0]	n/a	catFR1	1	R1273D
1555.901	1.617	1569478	WORD	n/a	wordpools/wordpool_categorized_EN.txt	CABBAGE	Vegetables	4	13	[0, 0, 0]	n/a	catFR1	1	R1273D
1557.518	0.967	1571095	WORD_OFF	n/a	n/a	CABBAGE	n/a	4	13	[0, 0, 0]	n/a	catFR1	1	R1273D
1558.485	1.617	1572062	WORD	n/a	wordpools/wordpool_categorized_EN.txt	ISLAND	Landscapes	5	13	[0, 0, 0]	n/a	catFR1	1	R1273D
1560.102	0.883	1573678	WORD_OFF	n/a	n/a	ISLAND	n/a	5	13	[0, 0, 0]	n/a	catFR1	1	R1273D
1560.985	1.617	1574561	WORD	n/a	wordpools/wordpool_categorized_EN.txt	OCEAN	Landscapes	6	13	[0, 0, 0]	n/a	catFR1	1	R1273D
1562.602	0.967	1576178	WORD_OFF	n/a	n/a	OCEAN	n/a	6	13	[0, 0, 0]	n/a	catFR1	1	R1273D
1563.569	1.617	1577145	WORD	n/a	wordpools/wordpool_categorized_EN.txt	PUDDING	Desserts	7	13	[0, 0, 0]	n/a	catFR1	1	R1273D
1565.186	0.934	1578762	WORD_OFF	n/a	n/a	PUDDING	n/a	7	13	[0, 0, 0]	n/a	catFR1	1	R1273D
1566.12	1.617	1579696	WORD	n/a	wordpools/wordpool_categorized_EN.txt	CAKE	Desserts	8	13	[0, 0, 0]	n/a	catFR1	1	R1273D
1567.737	0.933	1581313	WORD_OFF	n/a	n/a	CAKE	n/a	8	13	[0, 0, 0]	n/a	catFR1	1	R1273D
1568.67	1.617	1582246	WORD	n/a	wordpools/wordpool_categorized_EN.txt	CARROT	Vegetables	9	13	[0, 0, 0]	n/a	catFR1	1	R1273D
1570.287	1.0	1583863	WORD_OFF	n/a	n/a	CARROT	n/a	9	13	[0, 0, 0]	n/a	catFR1	1	R1273D
1571.287	1.617	1584863	WORD	n/a	wordpools/wordpool_categorized_EN.txt	CELERY	Vegetables	10	13	[0, 0, 0]	n/a	catFR1	1	R1273D
1572.904	0.8	1586480	WORD_OFF	n/a	n/a	CELERY	n/a	10	13	[0, 0, 0]	n/a	catFR1	1	R1273D
1573.704	1.601	1587280	WORD	n/a	wordpools/wordpool_categorized_EN.txt	VALLEY	Landscapes	11	13	[0, 0, 0]	n/a	catFR1	1	R1273D
1575.305	0.833	1588881	WORD_OFF	n/a	n/a	VALLEY	n/a	11	13	[0, 0, 0]	n/a	catFR1	1	R1273D
1576.138	1.617	1589714	WORD	n/a	wordpools/wordpool_categorized_EN.txt	RIVER	Landscapes	12	13	[0, 0, 0]	n/a	catFR1	1	R1273D
1577.755	0.0	1591330	WORD_OFF	n/a	n/a	RIVER	n/a	12	13	[0, 0, 0]	n/a	catFR1	1	R1273D
1577.755	0.102	1591330	ENCODING_END	n/a	n/a	n/a	n/a	-999	13	[0, 0, 0]	n/a	catFR1	1	R1273D
1577.857	0.0	1591432	DISTRACT_START	n/a	n/a	n/a	n/a	-999	13	[0, 0, 0]	n/a	catFR1	1	R1273D
1577.857	0.015	1591432	START	n/a	n/a	n/a	n/a	-999	13	[-999, -999, -999]	n/a	catFR1	1	R1273D
1577.872	8.134	1591447	PROB	8.134	n/a	n/a	n/a	-999	13	[7, 8, 6]	22	catFR1	1	R1273D
1586.006	2.551	1599581	PROB	2.551	n/a	n/a	n/a	-999	13	[2, 2, 1]	5	catFR1	1	R1273D
1588.557	3.351	1602132	PROB	3.351	n/a	n/a	n/a	-999	13	[1, 4, 4]	9	catFR1	1	R1273D
1591.908	7.039	1605483	PROB	7.039	n/a	n/a	n/a	-999	13	[4, 3, 7]	14	catFR1	1	R1273D
1598.947	0.012	1612521	STOP	n/a	n/a	n/a	n/a	-999	13	[-999, -999, -999]	n/a	catFR1	1	R1273D
1598.959	0.633	1612533	DISTRACT_END	n/a	n/a	n/a	n/a	-999	13	[0, 0, 0]	n/a	catFR1	1	R1273D
1599.592	0.518	1613166	RETRIEVAL_ORIENT	n/a	n/a	n/a	n/a	-999	13	[0, 0, 0]	n/a	catFR1	1	R1273D
1600.11	3.65	1613684	REC_START	n/a	n/a	n/a	n/a	-999	13	[0, 0, 0]	n/a	catFR1	1	R1273D
1603.76	0.396	1617334	REC_WORD	0.396	n/a	RIVER	Landscapes	12	13	[0, 0, 0]	n/a	catFR1	1	R1273D
1604.156	0.607	1617730	REC_WORD	0.607	n/a	VALLEY	Landscapes	11	13	[0, 0, 0]	n/a	catFR1	1	R1273D
1604.763	4.246	1618337	REC_WORD	4.246	n/a	OCEAN	Landscapes	6	13	[0, 0, 0]	n/a	catFR1	1	R1273D
1609.009	0.87	1622583	REC_WORD_VV	0.87	n/a	<>	n/a	-999	13	[0, 0, 0]	n/a	catFR1	1	R1273D
1609.879	5.182	1623453	REC_WORD_VV	5.182	n/a	<>	n/a	-999	13	[0, 0, 0]	n/a	catFR1	1	R1273D
1615.061	2.031	1628634	REC_WORD_VV	2.031	n/a	<>	n/a	-999	13	[0, 0, 0]	n/a	catFR1	1	R1273D
1617.092	0.475	1630665	REC_WORD_VV	0.475	n/a	<>	n/a	-999	13	[0, 0, 0]	n/a	catFR1	1	R1273D
1617.567	3.18	1631140	REC_WORD	3.18	n/a	BROWNIES	n/a	-999	13	[0, 0, 0]	n/a	catFR1	1	R1273D
1620.747	2.394	1634320	REC_WORD_VV	2.394	n/a	<>	n/a	-999	13	[0, 0, 0]	n/a	catFR1	1	R1273D
1623.141	0.786	1636714	REC_WORD	0.786	n/a	CAKE	Desserts	8	13	[0, 0, 0]	n/a	catFR1	1	R1273D
1623.927	0.251	1637500	REC_WORD	0.251	n/a	CARROT	Vegetables	9	13	[0, 0, 0]	n/a	catFR1	1	R1273D
1624.178	1.672	1637751	REC_WORD	1.672	n/a	CAKE	Desserts	8	13	[0, 0, 0]	n/a	catFR1	1	R1273D
1625.85	1.92	1639423	REC_WORD_VV	1.92	n/a	<>	n/a	-999	13	[0, 0, 0]	n/a	catFR1	1	R1273D
1627.77	2.35	1641343	REC_WORD_VV	2.35	n/a	<>	n/a	-999	13	[0, 0, 0]	n/a	catFR1	1	R1273D
1630.12	5.962	1643693	REC_END	n/a	n/a	n/a	n/a	-999	13	[0, 0, 0]	n/a	catFR1	1	R1273D
1636.082	0.5	1649654	TRIAL	n/a	n/a	n/a	n/a	-999	14	[0, 0, 0]	n/a	catFR1	1	R1273D
1636.582	10.428	1650154	COUNTDOWN_START	n/a	n/a	n/a	n/a	-999	14	[0, 0, 0]	n/a	catFR1	1	R1273D
1647.01	0.008	1660582	COUNTDOWN_END	n/a	n/a	n/a	n/a	-999	14	[0, 0, 0]	n/a	catFR1	1	R1273D
1647.018	1.617	1660590	ORIENT	n/a	n/a	n/a	n/a	-999	14	[0, 0, 0]	n/a	catFR1	1	R1273D
1648.635	2.117	1662206	ORIENT_OFF	n/a	n/a	n/a	n/a	-999	14	[0, 0, 0]	n/a	catFR1	1	R1273D
1650.752	1.618	1664323	WORD	n/a	wordpools/wordpool_categorized_EN.txt	STAIRS	Building	1	14	[0, 0, 0]	n/a	catFR1	1	R1273D
1652.37	0.798	1665941	WORD_OFF	n/a	n/a	STAIRS	n/a	1	14	[0, 0, 0]	n/a	catFR1	1	R1273D
1653.168	1.618	1666739	WORD	n/a	wordpools/wordpool_categorized_EN.txt	CEILING	Building	2	14	[0, 0, 0]	n/a	catFR1	1	R1273D
1654.786	0.867	1668357	WORD_OFF	n/a	n/a	CEILING	n/a	2	14	[0, 0, 0]	n/a	catFR1	1	R1273D
1655.653	1.617	1669224	WORD	n/a	wordpools/wordpool_categorized_EN.txt	PETUNIA	Flowers	3	14	[0, 0, 0]	n/a	catFR1	1	R1273D
1657.27	0.95	1670841	WORD_OFF	n/a	n/a	PETUNIA	n/a	3	14	[0, 0, 0]	n/a	catFR1	1	R1273D
1658.22	1.617	1671791	WORD	n/a	wordpools/wordpool_categorized_EN.txt	CARNATION	Flowers	4	14	[0, 0, 0]	n/a	catFR1	1	R1273D
1659.837	0.917	1673408	WORD_OFF	n/a	n/a	CARNATION	n/a	4	14	[0, 0, 0]	n/a	catFR1	1	R1273D
1660.754	1.616	1674325	WORD	n/a	wordpools/wordpool_categorized_EN.txt	COUCH	Furniture	5	14	[0, 0, 0]	n/a	catFR1	1	R1273D
1662.37	0.884	1675941	WORD_OFF	n/a	n/a	COUCH	n/a	5	14	[0, 0, 0]	n/a	catFR1	1	R1273D
1663.254	1.617	1676825	WORD	n/a	wordpools/wordpool_categorized_EN.txt	RECLINER	Furniture	6	14	[0, 0, 0]	n/a	catFR1	1	R1273D
1664.871	0.967	1678442	WORD_OFF	n/a	n/a	RECLINER	n/a	6	14	[0, 0, 0]	n/a	catFR1	1	R1273D
1665.838	1.617	1679409	WORD	n/a	wordpools/wordpool_categorized_EN.txt	ROOF	Building	7	14	[0, 0, 0]	n/a	catFR1	1	R1273D
1667.455	0.817	1681025	WORD_OFF	n/a	n/a	ROOF	n/a	7	14	[0, 0, 0]	n/a	catFR1	1	R1273D
1668.272	1.616	1681842	WORD	n/a	wordpools/wordpool_categorized_EN.txt	ROOM	Building	8	14	[0, 0, 0]	n/a	catFR1	1	R1273D
1669.888	0.984	1683458	WORD_OFF	n/a	n/a	ROOM	n/a	8	14	[0, 0, 0]	n/a	catFR1	1	R1273D
1670.872	1.617	1684442	WORD	n/a	wordpools/wordpool_categorized_EN.txt	ROSE	Flowers	9	14	[0, 0, 0]	n/a	catFR1	1	R1273D
1672.489	0.818	1686059	WORD_OFF	n/a	n/a	ROSE	n/a	9	14	[0, 0, 0]	n/a	catFR1	1	R1273D
1673.307	1.616	1686877	WORD	n/a	wordpools/wordpool_categorized_EN.txt	TULIP	Flowers	10	14	[0, 0, 0]	n/a	catFR1	1	R1273D
1674.923	0.783	1688493	WORD_OFF	n/a	n/a	TULIP	n/a	10	14	[0, 0, 0]	n/a	catFR1	1	R1273D
1675.706	1.601	1689276	WORD	n/a	wordpools/wordpool_categorized_EN.txt	SHELF	Furniture	11	14	[0, 0, 0]	n/a	catFR1	1	R1273D
1677.307	0.949	1690877	WORD_OFF	n/a	n/a	SHELF	n/a	11	14	[0, 0, 0]	n/a	catFR1	1	R1273D
1678.256	1.618	1691826	WORD	n/a	wordpools/wordpool_categorized_EN.txt	TABLE	Furniture	12	14	[0, 0, 0]	n/a	catFR1	1	R1273D
1679.874	0.0	1693444	ENCODING_END	n/a	n/a	n/a	n/a	-999	14	[0, 0, 0]	n/a	catFR1	1	R1273D
1679.874	0.103	1693444	WORD_OFF	n/a	n/a	TABLE	n/a	12	14	[0, 0, 0]	n/a	catFR1	1	R1273D
1679.977	0.0	1693547	DISTRACT_START	n/a	n/a	n/a	n/a	-999	14	[0, 0, 0]	n/a	catFR1	1	R1273D
1679.977	0.013	1693547	START	n/a	n/a	n/a	n/a	-999	14	[-999, -999, -999]	n/a	catFR1	1	R1273D
1679.99	6.235	1693560	PROB	6.235	n/a	n/a	n/a	-999	14	[5, 5, 3]	13	catFR1	1	R1273D
1686.225	5.085	1699794	PROB	5.085	n/a	n/a	n/a	-999	14	[6, 4, 1]	11	catFR1	1	R1273D
1691.31	5.6	1704879	PROB	5.6	n/a	n/a	n/a	-999	14	[3, 1, 7]	12	catFR1	1	R1273D
1696.91	45.259	1710479	PROB	45.259	n/a	n/a	n/a	-999	14	[7, 3, 1]	11	catFR1	1	R1273D
1742.169	0.016	1755735	STOP	n/a	n/a	n/a	n/a	-999	14	[-999, -999, -999]	n/a	catFR1	1	R1273D
1742.185	0.667	1755751	DISTRACT_END	n/a	n/a	n/a	n/a	-999	14	[0, 0, 0]	n/a	catFR1	1	R1273D
1742.852	0.518	1756418	RETRIEVAL_ORIENT	n/a	n/a	n/a	n/a	-999	14	[0, 0, 0]	n/a	catFR1	1	R1273D
1743.37	1.05	1756936	REC_START	n/a	n/a	n/a	n/a	-999	14	[0, 0, 0]	n/a	catFR1	1	R1273D
1744.42	28.964	1757986	REC_WORD_VV	28.964	n/a	<>	n/a	-999	14	[0, 0, 0]	n/a	catFR1	1	R1273D
1773.384	5.391	1786949	REC_END	n/a	n/a	n/a	n/a	-999	14	[0, 0, 0]	n/a	catFR1	1	R1273D
1778.775	0.5	1792339	TRIAL	n/a	n/a	n/a	n/a	-999	15	[0, 0, 0]	n/a	catFR1	1	R1273D
1779.275	10.428	1792839	COUNTDOWN_START	n/a	n/a	n/a	n/a	-999	15	[0, 0, 0]	n/a	catFR1	1	R1273D
1789.703	0.007	1803267	COUNTDOWN_END	n/a	n/a	n/a	n/a	-999	15	[0, 0, 0]	n/a	catFR1	1	R1273D
1789.71	1.602	1803274	ORIENT	n/a	n/a	n/a	n/a	-999	15	[0, 0, 0]	n/a	catFR1	1	R1273D
1791.312	2.116	1804876	ORIENT_OFF	n/a	n/a	n/a	n/a	-999	15	[0, 0, 0]	n/a	catFR1	1	R1273D
1793.428	1.617	1806991	WORD	n/a	wordpools/wordpool_categorized_EN.txt	SCREWDRIVER	Tools	1	15	[0, 0, 0]	n/a	catFR1	1	R1273D
1795.045	0.833	1808608	WORD_OFF	n/a	n/a	SCREWDRIVER	n/a	1	15	[0, 0, 0]	n/a	catFR1	1	R1273D
1795.878	1.617	1809441	WORD	n/a	wordpools/wordpool_categorized_EN.txt	DRILL	Tools	2	15	[0, 0, 0]	n/a	catFR1	1	R1273D
1797.495	0.9	1811058	WORD_OFF	n/a	n/a	DRILL	n/a	2	15	[0, 0, 0]	n/a	catFR1	1	R1273D
1798.395	1.617	1811958	WORD	n/a	wordpools/wordpool_categorized_EN.txt	SPATULA	KitchenTools	3	15	[0, 0, 0]	n/a	catFR1	1	R1273D
1800.012	0.834	1813575	WORD_OFF	n/a	n/a	SPATULA	n/a	3	15	[0, 0, 0]	n/a	catFR1	1	R1273D
1800.846	1.617	1814409	WORD	n/a	wordpools/wordpool_categorized_EN.txt	SPOON	KitchenTools	4	15	[0, 0, 0]	n/a	catFR1	1	R1273D
1802.463	0.901	1816026	WORD_OFF	n/a	n/a	SPOON	n/a	4	15	[0, 0, 0]	n/a	catFR1	1	R1273D
1803.364	1.616	1816927	WORD	n/a	wordpools/wordpool_categorized_EN.txt	TEA	Beverages	5	15	[0, 0, 0]	n/a	catFR1	1	R1273D
1804.98	0.767	1818543	WORD_OFF	n/a	n/a	TEA	n/a	5	15	[0, 0, 0]	n/a	catFR1	1	R1273D
1805.747	1.618	1819310	WORD	n/a	wordpools/wordpool_categorized_EN.txt	MILK	Beverages	6	15	[0, 0, 0]	n/a	catFR1	1	R1273D
1807.365	0.95	1820928	WORD_OFF	n/a	n/a	MILK	n/a	6	15	[0, 0, 0]	n/a	catFR1	1	R1273D
1808.315	1.616	1821878	WORD	n/a	wordpools/wordpool_categorized_EN.txt	COLANDER	KitchenTools	7	15	[0, 0, 0]	n/a	catFR1	1	R1273D
1809.931	1.017	1823493	WORD_OFF	n/a	n/a	COLANDER	n/a	7	15	[0, 0, 0]	n/a	catFR1	1	R1273D
1810.948	1.617	1824510	WORD	n/a	wordpools/wordpool_categorized_EN.txt	LADLE	KitchenTools	8	15	[0, 0, 0]	n/a	catFR1	1	R1273D
1812.565	0.983	1826127	WORD_OFF	n/a	n/a	LADLE	n/a	8	15	[0, 0, 0]	n/a	catFR1	1	R1273D
1813.548	1.617	1827110	WORD	n/a	wordpools/wordpool_categorized_EN.txt	WRENCH	Tools	9	15	[0, 0, 0]	n/a	catFR1	1	R1273D
1815.165	0.934	1828727	WORD_OFF	n/a	n/a	WRENCH	n/a	9	15	[0, 0, 0]	n/a	catFR1	1	R1273D
1816.099	1.617	1829661	WORD	n/a	wordpools/wordpool_categorized_EN.txt	LEVEL	Tools	10	15	[0, 0, 0]	n/a	catFR1	1	R1273D
1817.716	0.899	1831278	WORD_OFF	n/a	n/a	LEVEL	n/a	10	15	[0, 0, 0]	n/a	catFR1	1	R1273D
1818.615	1.618	1832177	WORD	n/a	wordpools/wordpool_categorized_EN.txt	BEER	Beverages	11	15	[0, 0, 0]	n/a	catFR1	1	R1273D
1820.233	0.866	1833795	WORD_OFF	n/a	n/a	BEER	n/a	11	15	[0, 0, 0]	n/a	catFR1	1	R1273D
1821.099	1.617	1834661	WORD	n/a	wordpools/wordpool_categorized_EN.txt	SODA	Beverages	12	15	[0, 0, 0]	n/a	catFR1	1	R1273D
1822.716	0.001	1836278	WORD_OFF	n/a	n/a	SODA	n/a	12	15	[0, 0, 0]	n/a	catFR1	1	R1273D
1822.717	0.131	1836279	ENCODING_END	n/a	n/a	n/a	n/a	-999	15	[0, 0, 0]	n/a	catFR1	1	R1273D
1822.848	0.0	1836410	DISTRACT_START	n/a	n/a	n/a	n/a	-999	15	[0, 0, 0]	n/a	catFR1	1	R1273D
1822.848	0.018	1836410	START	n/a	n/a	n/a	n/a	-999	15	[-999, -999, -999]	n/a	catFR1	1	R1273D
1822.866	6.868	1836428	PROB	6.868	n/a	n/a	n/a	-999	15	[8, 2, 9]	19	catFR1	1	R1273D
1829.734	45.877	1843295	PROB	45.877	n/a	n/a	n/a	-999	15	[6, 2, 4]	12	catFR1	1	R1273D
1875.611	0.015	1889170	STOP	n/a	n/a	n/a	n/a	-999	15	[-999, -999, -999]	n/a	catFR1	1	R1273D
1875.626	0.567	1889185	DISTRACT_END	n/a	n/a	n/a	n/a	-999	15	[0, 0, 0]	n/a	catFR1	1	R1273D
1876.193	0.517	1889752	RETRIEVAL_ORIENT	n/a	n/a	n/a	n/a	-999	15	[0, 0, 0]	n/a	catFR1	1	R1273D
1876.71	0.009	1890269	REC_START	n/a	n/a	n/a	n/a	-999	15	[0, 0, 0]	n/a	catFR1	1	R1273D
1876.719	30.0	1890278	REC_WORD_VV	30.0	n/a	<>	n/a	-999	15	[0, 0, 0]	n/a	catFR1	1	R1273D
1906.719	9.464	1920276	REC_END	n/a	n/a	n/a	n/a	-999	15	[0, 0, 0]	n/a	catFR1	1	R1273D
1916.183	0.5	1929740	TRIAL	n/a	n/a	n/a	n/a	-999	16	[0, 0, 0]	n/a	catFR1	1	R1273D
1916.683	10.428	1930240	COUNTDOWN_START	n/a	n/a	n/a	n/a	-999	16	[0, 0, 0]	n/a	catFR1	1	R1273D
1927.111	0.008	1940667	COUNTDOWN_END	n/a	n/a	n/a	n/a	-999	16	[0, 0, 0]	n/a	catFR1	1	R1273D
1927.119	1.617	1940675	ORIENT	n/a	n/a	n/a	n/a	-999	16	[0, 0, 0]	n/a	catFR1	1	R1273D
1928.736	2.317	1942292	ORIENT_OFF	n/a	n/a	n/a	n/a	-999	16	[0, 0, 0]	n/a	catFR1	1	R1273D
1931.053	1.617	1944609	WORD	n/a	wordpools/wordpool_categorized_EN.txt	SHOVEL	Tools	1	16	[0, 0, 0]	n/a	catFR1	1	R1273D
1932.67	0.767	1946226	WORD_OFF	n/a	n/a	SHOVEL	n/a	1	16	[0, 0, 0]	n/a	catFR1	1	R1273D
1933.437	1.617	1946993	WORD	n/a	wordpools/wordpool_categorized_EN.txt	CROWBAR	Tools	2	16	[0, 0, 0]	n/a	catFR1	1	R1273D
1935.054	1.0	1948610	WORD_OFF	n/a	n/a	CROWBAR	n/a	2	16	[0, 0, 0]	n/a	catFR1	1	R1273D
1936.054	1.617	1949609	WORD	n/a	wordpools/wordpool_categorized_EN.txt	ZEBRA	Zoo	3	16	[0, 0, 0]	n/a	catFR1	1	R1273D
1937.671	0.95	1951226	WORD_OFF	n/a	n/a	ZEBRA	n/a	3	16	[0, 0, 0]	n/a	catFR1	1	R1273D
1938.621	1.617	1952176	WORD	n/a	wordpools/wordpool_categorized_EN.txt	GORILLA	Zoo	4	16	[0, 0, 0]	n/a	catFR1	1	R1273D
1940.238	0.867	1953793	WORD_OFF	n/a	n/a	GORILLA	n/a	4	16	[0, 0, 0]	n/a	catFR1	1	R1273D
1941.105	1.617	1954660	WORD	n/a	wordpools/wordpool_categorized_EN.txt	BALL	Toys	5	16	[0, 0, 0]	n/a	catFR1	1	R1273D
1942.722	0.867	1956277	WORD_OFF	n/a	n/a	BALL	n/a	5	16	[0, 0, 0]	n/a	catFR1	1	R1273D
1943.589	1.616	1957144	WORD	n/a	wordpools/wordpool_categorized_EN.txt	BASKETBALL	Toys	6	16	[0, 0, 0]	n/a	catFR1	1	R1273D
1945.205	0.817	1958760	WORD_OFF	n/a	n/a	BASKETBALL	n/a	6	16	[0, 0, 0]	n/a	catFR1	1	R1273D
1946.022	1.617	1959577	WORD	n/a	wordpools/wordpool_categorized_EN.txt	HAMMER	Tools	7	16	[0, 0, 0]	n/a	catFR1	1	R1273D
1947.639	1.0	1961194	WORD_OFF	n/a	n/a	HAMMER	n/a	7	16	[0, 0, 0]	n/a	catFR1	1	R1273D
1948.639	1.617	1962194	WORD	n/a	wordpools/wordpool_categorized_EN.txt	AXE	Tools	8	16	[0, 0, 0]	n/a	catFR1	1	R1273D
1950.256	0.951	1963811	WORD_OFF	n/a	n/a	AXE	n/a	8	16	[0, 0, 0]	n/a	catFR1	1	R1273D
1951.207	1.617	1964762	WORD	n/a	wordpools/wordpool_categorized_EN.txt	ORANGUTAN	Zoo	9	16	[0, 0, 0]	n/a	catFR1	1	R1273D
1952.824	1.016	1966379	WORD_OFF	n/a	n/a	ORANGUTAN	n/a	9	16	[0, 0, 0]	n/a	catFR1	1	R1273D
1953.84	1.617	1967394	WORD	n/a	wordpools/wordpool_categorized_EN.txt	TIGER	Zoo	10	16	[0, 0, 0]	n/a	catFR1	1	R1273D
1955.457	0.852	1969011	WORD_OFF	n/a	n/a	TIGER	n/a	10	16	[0, 0, 0]	n/a	catFR1	1	R1273D
1956.309	1.616	1969863	WORD	n/a	wordpools/wordpool_categorized_EN.txt	BASEBALL	Toys	11	16	[0, 0, 0]	n/a	catFR1	1	R1273D
1957.925	1.0	1971479	WORD_OFF	n/a	n/a	BASEBALL	n/a	11	16	[0, 0, 0]	n/a	catFR1	1	R1273D
1958.925	1.617	1972479	WORD	n/a	wordpools/wordpool_categorized_EN.txt	BARBIE	Toys	12	16	[0, 0, 0]	n/a	catFR1	1	R1273D
1960.542	0.0	1974096	ENCODING_END	n/a	n/a	n/a	n/a	-999	16	[0, 0, 0]	n/a	catFR1	1	R1273D
1960.542	0.1	1974096	WORD_OFF	n/a	n/a	BARBIE	n/a	12	16	[0, 0, 0]	n/a	catFR1	1	R1273D
1960.642	0.001	1974196	DISTRACT_START	n/a	n/a	n/a	n/a	-999	16	[0, 0, 0]	n/a	catFR1	1	R1273D
1960.643	0.015	1974197	START	n/a	n/a	n/a	n/a	-999	16	[-999, -999, -999]	n/a	catFR1	1	R1273D
1960.658	32.68	1974212	PROB	32.68	n/a	n/a	n/a	-999	16	[1, 6, 4]	11	catFR1	1	R1273D
1993.338	0.011	2006890	STOP	n/a	n/a	n/a	n/a	-999	16	[-999, -999, -999]	n/a	catFR1	1	R1273D
1993.349	0.665	2006901	DISTRACT_END	n/a	n/a	n/a	n/a	-999	16	[0, 0, 0]	n/a	catFR1	1	R1273D
1994.014	0.518	2007566	RETRIEVAL_ORIENT	n/a	n/a	n/a	n/a	-999	16	[0, 0, 0]	n/a	catFR1	1	R1273D
1994.532	0.482	2008084	REC_START	n/a	n/a	n/a	n/a	-999	16	[0, 0, 0]	n/a	catFR1	1	R1273D
1995.014	2.372	2008566	REC_WORD_VV	2.372	n/a	<>	n/a	-999	16	[0, 0, 0]	n/a	catFR1	1	R1273D
1997.386	0.478	2010938	REC_WORD	0.478	n/a	GORILLA	Zoo	4	16	[0, 0, 0]	n/a	catFR1	1	R1273D
1997.864	0.88	2011416	REC_WORD	0.88	n/a	ORANGUTAN	Zoo	9	16	[0, 0, 0]	n/a	catFR1	1	R1273D
1998.744	1.356	2012296	REC_WORD	1.356	n/a	MONKEY	n/a	-999	16	[0, 0, 0]	n/a	catFR1	1	R1273D
2000.1	0.475	2013652	REC_WORD_VV	0.475	n/a	<>	n/a	-999	16	[0, 0, 0]	n/a	catFR1	1	R1273D
2000.575	0.419	2014127	REC_WORD	0.419	n/a	BALL	Toys	5	16	[0, 0, 0]	n/a	catFR1	1	R1273D
2000.994	0.345	2014546	REC_WORD_VV	0.345	n/a	<>	n/a	-999	16	[0, 0, 0]	n/a	catFR1	1	R1273D
2001.339	3.422	2014891	REC_WORD	3.422	n/a	BASKETBALL	Toys	6	16	[0, 0, 0]	n/a	catFR1	1	R1273D
2004.761	2.237	2018313	REC_WORD_VV	2.237	n/a	<>	n/a	-999	16	[0, 0, 0]	n/a	catFR1	1	R1273D
2006.998	0.835	2020550	REC_WORD_VV	0.835	n/a	<>	n/a	-999	16	[0, 0, 0]	n/a	catFR1	1	R1273D
2007.833	0.309	2021384	REC_WORD	0.309	n/a	BARBIE	Toys	12	16	[0, 0, 0]	n/a	catFR1	1	R1273D
2008.142	16.401	2021693	REC_WORD_VV	16.401	n/a	<>	n/a	-999	16	[0, 0, 0]	n/a	catFR1	1	R1273D
2024.543	6.745	2038094	REC_END	n/a	n/a	n/a	n/a	-999	16	[0, 0, 0]	n/a	catFR1	1	R1273D
2031.288	0.5	2044838	TRIAL	n/a	n/a	n/a	n/a	-999	17	[0, 0, 0]	n/a	catFR1	1	R1273D
2031.788	10.428	2045338	COUNTDOWN_START	n/a	n/a	n/a	n/a	-999	17	[0, 0, 0]	n/a	catFR1	1	R1273D
2042.216	0.007	2055766	COUNTDOWN_END	n/a	n/a	n/a	n/a	-999	17	[0, 0, 0]	n/a	catFR1	1	R1273D
2042.223	1.617	2055773	ORIENT	n/a	n/a	n/a	n/a	-999	17	[0, 0, 0]	n/a	catFR1	1	R1273D
2043.84	1.867	2057389	ORIENT_OFF	n/a	n/a	n/a	n/a	-999	17	[0, 0, 0]	n/a	catFR1	1	R1273D
2045.707	1.618	2059256	WORD	n/a	wordpools/wordpool_categorized_EN.txt	PIGEON	Birds	1	17	[0, 0, 0]	n/a	catFR1	1	R1273D
2047.325	0.799	2060874	WORD_OFF	n/a	n/a	PIGEON	n/a	1	17	[0, 0, 0]	n/a	catFR1	1	R1273D
2048.124	1.617	2061673	WORD	n/a	wordpools/wordpool_categorized_EN.txt	ROBIN	Birds	2	17	[0, 0, 0]	n/a	catFR1	1	R1273D
2049.741	0.934	2063290	WORD_OFF	n/a	n/a	ROBIN	n/a	2	17	[0, 0, 0]	n/a	catFR1	1	R1273D
2050.675	1.617	2064224	WORD	n/a	wordpools/wordpool_categorized_EN.txt	DRUM	Instruments	3	17	[0, 0, 0]	n/a	catFR1	1	R1273D
2052.292	0.8	2065841	WORD_OFF	n/a	n/a	DRUM	n/a	3	17	[0, 0, 0]	n/a	catFR1	1	R1273D
2053.092	1.617	2066641	WORD	n/a	wordpools/wordpool_categorized_EN.txt	BANJO	Instruments	4	17	[0, 0, 0]	n/a	catFR1	1	R1273D
2054.709	0.8	2068258	WORD_OFF	n/a	n/a	BANJO	n/a	4	17	[0, 0, 0]	n/a	catFR1	1	R1273D
2055.509	1.617	2069058	WORD	n/a	wordpools/wordpool_categorized_EN.txt	SCANNER	Electronics	5	17	[0, 0, 0]	n/a	catFR1	1	R1273D
2057.126	0.917	2070675	WORD_OFF	n/a	n/a	SCANNER	n/a	5	17	[0, 0, 0]	n/a	catFR1	1	R1273D
2058.043	1.617	2071592	WORD	n/a	wordpools/wordpool_categorized_EN.txt	TELEVISION	Electronics	6	17	[0, 0, 0]	n/a	catFR1	1	R1273D
2059.66	0.917	2073209	WORD_OFF	n/a	n/a	TELEVISION	n/a	6	17	[0, 0, 0]	n/a	catFR1	1	R1273D
2060.577	1.617	2074126	WORD	n/a	wordpools/wordpool_categorized_EN.txt	DUCK	Birds	7	17	[0, 0, 0]	n/a	catFR1	1	R1273D
2062.194	0.9	2075742	WORD_OFF	n/a	n/a	DUCK	n/a	7	17	[0, 0, 0]	n/a	catFR1	1	R1273D
2063.094	1.617	2076642	WORD	n/a	wordpools/wordpool_categorized_EN.txt	BLUEBIRD	Birds	8	17	[0, 0, 0]	n/a	catFR1	1	R1273D
2064.711	1.0	2078259	WORD_OFF	n/a	n/a	BLUEBIRD	n/a	8	17	[0, 0, 0]	n/a	catFR1	1	R1273D
2065.711	1.618	2079259	WORD	n/a	wordpools/wordpool_categorized_EN.txt	BASS	Instruments	9	17	[0, 0, 0]	n/a	catFR1	1	R1273D
2067.329	0.866	2080877	WORD_OFF	n/a	n/a	BASS	n/a	9	17	[0, 0, 0]	n/a	catFR1	1	R1273D
2068.195	1.617	2081743	WORD	n/a	wordpools/wordpool_categorized_EN.txt	FLUTE	Instruments	10	17	[0, 0, 0]	n/a	catFR1	1	R1273D
2069.812	0.816	2083360	WORD_OFF	n/a	n/a	FLUTE	n/a	10	17	[0, 0, 0]	n/a	catFR1	1	R1273D
2070.628	1.617	2084176	WORD	n/a	wordpools/wordpool_categorized_EN.txt	CALCULATOR	Electronics	11	17	[0, 0, 0]	n/a	catFR1	1	R1273D
2072.245	0.984	2085793	WORD_OFF	n/a	n/a	CALCULATOR	n/a	11	17	[0, 0, 0]	n/a	catFR1	1	R1273D
2073.229	1.617	2086777	WORD	n/a	wordpools/wordpool_categorized_EN.txt	RADIO	Electronics	12	17	[0, 0, 0]	n/a	catFR1	1	R1273D
2074.846	0.0	2088394	ENCODING_END	n/a	n/a	n/a	n/a	-999	17	[0, 0, 0]	n/a	catFR1	1	R1273D
2074.846	0.1	2088394	WORD_OFF	n/a	n/a	RADIO	n/a	12	17	[0, 0, 0]	n/a	catFR1	1	R1273D
2074.946	0.0	2088494	DISTRACT_START	n/a	n/a	n/a	n/a	-999	17	[0, 0, 0]	n/a	catFR1	1	R1273D
2074.946	0.017	2088494	START	n/a	n/a	n/a	n/a	-999	17	[-999, -999, -999]	n/a	catFR1	1	R1273D
2074.963	6.951	2088511	PROB	6.951	n/a	n/a	n/a	-999	17	[8, 5, 8]	21	catFR1	1	R1273D
2081.914	35.008	2095461	PROB	35.008	n/a	n/a	n/a	-999	17	[2, 1, 8]	11	catFR1	1	R1273D
2116.922	0.015	2130467	STOP	n/a	n/a	n/a	n/a	-999	17	[-999, -999, -999]	n/a	catFR1	1	R1273D
2116.937	0.583	2130482	DISTRACT_END	n/a	n/a	n/a	n/a	-999	17	[0, 0, 0]	n/a	catFR1	1	R1273D
2117.52	0.518	2131065	RETRIEVAL_ORIENT	n/a	n/a	n/a	n/a	-999	17	[0, 0, 0]	n/a	catFR1	1	R1273D
2118.038	0.958	2131583	REC_START	n/a	n/a	n/a	n/a	-999	17	[0, 0, 0]	n/a	catFR1	1	R1273D
2118.996	29.052	2132541	REC_WORD_VV	29.052	n/a	<>	n/a	-999	17	[0, 0, 0]	n/a	catFR1	1	R1273D
2148.048	6.963	2161592	REC_END	n/a	n/a	n/a	n/a	-999	17	[0, 0, 0]	n/a	catFR1	1	R1273D
2155.011	0.5	2168554	TRIAL	n/a	n/a	n/a	n/a	-999	18	[0, 0, 0]	n/a	catFR1	1	R1273D
2155.511	10.428	2169054	COUNTDOWN_START	n/a	n/a	n/a	n/a	-999	18	[0, 0, 0]	n/a	catFR1	1	R1273D
2165.939	0.007	2179482	COUNTDOWN_END	n/a	n/a	n/a	n/a	-999	18	[0, 0, 0]	n/a	catFR1	1	R1273D
2165.946	1.617	2179489	ORIENT	n/a	n/a	n/a	n/a	-999	18	[0, 0, 0]	n/a	catFR1	1	R1273D
2167.563	1.85	2181106	ORIENT_OFF	n/a	n/a	n/a	n/a	-999	18	[0, 0, 0]	n/a	catFR1	1	R1273D
2169.413	1.617	2182955	WORD	n/a	wordpools/wordpool_categorized_EN.txt	CROW	Birds	1	18	[0, 0, 0]	n/a	catFR1	1	R1273D
2171.03	0.85	2184572	WORD_OFF	n/a	n/a	CROW	n/a	1	18	[0, 0, 0]	n/a	catFR1	1	R1273D
2171.88	1.617	2185422	WORD	n/a	wordpools/wordpool_categorized_EN.txt	SEAGULL	Birds	2	18	[0, 0, 0]	n/a	catFR1	1	R1273D
2173.497	0.967	2187039	WORD_OFF	n/a	n/a	SEAGULL	n/a	2	18	[0, 0, 0]	n/a	catFR1	1	R1273D
2174.464	1.617	2188006	WORD	n/a	wordpools/wordpool_categorized_EN.txt	IRON	Appliances	3	18	[0, 0, 0]	n/a	catFR1	1	R1273D
2176.081	0.917	2189623	WORD_OFF	n/a	n/a	IRON	n/a	3	18	[0, 0, 0]	n/a	catFR1	1	R1273D
2176.998	1.617	2190540	WORD	n/a	wordpools/wordpool_categorized_EN.txt	DRYER	Appliances	4	18	[0, 0, 0]	n/a	catFR1	1	R1273D
2178.615	0.8	2192157	WORD_OFF	n/a	n/a	DRYER	n/a	4	18	[0, 0, 0]	n/a	catFR1	1	R1273D
2179.415	1.617	2192957	WORD	n/a	wordpools/wordpool_categorized_EN.txt	CHEESECAKE	Desserts	5	18	[0, 0, 0]	n/a	catFR1	1	R1273D
2181.032	0.934	2194574	WORD_OFF	n/a	n/a	CHEESECAKE	n/a	5	18	[0, 0, 0]	n/a	catFR1	1	R1273D
2181.966	1.616	2195508	WORD	n/a	wordpools/wordpool_categorized_EN.txt	COOKIE	Desserts	6	18	[0, 0, 0]	n/a	catFR1	1	R1273D
2183.582	0.834	2197124	WORD_OFF	n/a	n/a	COOKIE	n/a	6	18	[0, 0, 0]	n/a	catFR1	1	R1273D
2184.416	1.617	2197958	WORD	n/a	wordpools/wordpool_categorized_EN.txt	SPARROW	Birds	7	18	[0, 0, 0]	n/a	catFR1	1	R1273D
2186.033	0.9	2199575	WORD_OFF	n/a	n/a	SPARROW	n/a	7	18	[0, 0, 0]	n/a	catFR1	1	R1273D
2186.933	1.617	2200474	WORD	n/a	wordpools/wordpool_categorized_EN.txt	CARDINAL	Birds	8	18	[0, 0, 0]	n/a	catFR1	1	R1273D
2188.55	0.934	2202091	WORD_OFF	n/a	n/a	CARDINAL	n/a	8	18	[0, 0, 0]	n/a	catFR1	1	R1273D
2189.484	1.616	2203025	WORD	n/a	wordpools/wordpool_categorized_EN.txt	MIXER	Appliances	9	18	[0, 0, 0]	n/a	catFR1	1	R1273D
2191.1	0.884	2204641	WORD_OFF	n/a	n/a	MIXER	n/a	9	18	[0, 0, 0]	n/a	catFR1	1	R1273D
2191.984	1.617	2205525	WORD	n/a	wordpools/wordpool_categorized_EN.txt	WASHER	Appliances	10	18	[0, 0, 0]	n/a	catFR1	1	R1273D
2193.601	1.0	2207142	WORD_OFF	n/a	n/a	WASHER	n/a	10	18	[0, 0, 0]	n/a	catFR1	1	R1273D
2194.601	1.617	2208142	WORD	n/a	wordpools/wordpool_categorized_EN.txt	COBBLER	Desserts	11	18	[0, 0, 0]	n/a	catFR1	1	R1273D
2196.218	0.8	2209759	WORD_OFF	n/a	n/a	COBBLER	n/a	11	18	[0, 0, 0]	n/a	catFR1	1	R1273D
2197.018	1.617	2210559	WORD	n/a	wordpools/wordpool_categorized_EN.txt	BROWNIES	Desserts	12	18	[0, 0, 0]	n/a	catFR1	1	R1273D
2198.635	0.0	2212176	WORD_OFF	n/a	n/a	BROWNIES	n/a	12	18	[0, 0, 0]	n/a	catFR1	1	R1273D
2198.635	0.133	2212176	ENCODING_END	n/a	n/a	n/a	n/a	-999	18	[0, 0, 0]	n/a	catFR1	1	R1273D
2198.768	0.0	2212309	DISTRACT_START	n/a	n/a	n/a	n/a	-999	18	[0, 0, 0]	n/a	catFR1	1	R1273D
2198.768	0.017	2212309	START	n/a	n/a	n/a	n/a	-999	18	[-999, -999, -999]	n/a	catFR1	1	R1273D
2198.785	7.785	2212326	PROB	7.785	n/a	n/a	n/a	-999	18	[9, 2, 7]	18	catFR1	1	R1273D
2206.57	6.968	2220110	PROB	6.968	n/a	n/a	n/a	-999	18	[6, 8, 6]	20	catFR1	1	R1273D
2213.538	37.055	2227078	PROB	37.055	n/a	n/a	n/a	-999	18	[3, 4, 2]	9	catFR1	1	R1273D
2250.593	0.019	2264131	STOP	n/a	n/a	n/a	n/a	-999	18	[-999, -999, -999]	n/a	catFR1	1	R1273D
2250.612	0.65	2264150	DISTRACT_END	n/a	n/a	n/a	n/a	-999	18	[0, 0, 0]	n/a	catFR1	1	R1273D
2251.262	0.517	2264800	RETRIEVAL_ORIENT	n/a	n/a	n/a	n/a	-999	18	[0, 0, 0]	n/a	catFR1	1	R1273D
2251.779	0.0	2265317	REC_START	n/a	n/a	n/a	n/a	-999	18	[0, 0, 0]	n/a	catFR1	1	R1273D
2251.779	14.253	2265317	REC_WORD_VV	14.253	n/a	<>	n/a	-999	18	[0, 0, 0]	n/a	catFR1	1	R1273D
2266.032	0.25	2279569	REC_WORD_VV	0.25	n/a	<>	n/a	-999	18	[0, 0, 0]	n/a	catFR1	1	R1273D
2266.282	0.404	2279819	REC_WORD	0.404	n/a	CROW	Birds	1	18	[0, 0, 0]	n/a	catFR1	1	R1273D
2266.686	0.166	2280223	REC_WORD_VV	0.166	n/a	<>	n/a	-999	18	[0, 0, 0]	n/a	catFR1	1	R1273D
2266.852	1.164	2280389	REC_WORD	1.164	n/a	SEAGULL	Birds	2	18	[0, 0, 0]	n/a	catFR1	1	R1273D
2268.016	3.912	2281553	REC_WORD_VV	3.912	n/a	<>	n/a	-999	18	[0, 0, 0]	n/a	catFR1	1	R1273D
2271.928	0.762	2285465	REC_WORD	0.762	n/a	BROWNIES	Desserts	12	18	[0, 0, 0]	n/a	catFR1	1	R1273D
2272.69	1.862	2286227	REC_WORD_VV	1.862	n/a	<>	n/a	-999	18	[0, 0, 0]	n/a	catFR1	1	R1273D
2274.552	6.317	2288089	REC_WORD_VV	6.317	n/a	<>	n/a	-999	18	[0, 0, 0]	n/a	catFR1	1	R1273D
2280.869	0.05	2294405	REC_WORD_VV	0.05	n/a	<>	n/a	-999	18	[0, 0, 0]	n/a	catFR1	1	R1273D
2280.919	0.87	2294455	REC_WORD	0.87	n/a	FLUTE	n/a	-999	18	[0, 0, 0]	n/a	catFR1	1	R1273D
2281.789	5.563	2295325	REC_END	n/a	n/a	n/a	n/a	-999	18	[0, 0, 0]	n/a	catFR1	1	R1273D
2287.352	0.5	2300888	TRIAL	n/a	n/a	n/a	n/a	-999	19	[0, 0, 0]	n/a	catFR1	1	R1273D
2287.852	10.428	2301388	COUNTDOWN_START	n/a	n/a	n/a	n/a	-999	19	[0, 0, 0]	n/a	catFR1	1	R1273D
2298.28	0.007	2311815	COUNTDOWN_END	n/a	n/a	n/a	n/a	-999	19	[0, 0, 0]	n/a	catFR1	1	R1273D
2298.287	1.617	2311822	ORIENT	n/a	n/a	n/a	n/a	-999	19	[0, 0, 0]	n/a	catFR1	1	R1273D
2299.904	2.0	2313439	ORIENT_OFF	n/a	n/a	n/a	n/a	-999	19	[0, 0, 0]	n/a	catFR1	1	R1273D
2301.904	1.617	2315439	WORD	n/a	wordpools/wordpool_categorized_EN.txt	SPINACH	Vegetables	1	19	[0, 0, 0]	n/a	catFR1	1	R1273D
2303.521	0.818	2317056	WORD_OFF	n/a	n/a	SPINACH	n/a	1	19	[0, 0, 0]	n/a	catFR1	1	R1273D
2304.339	1.616	2317874	WORD	n/a	wordpools/wordpool_categorized_EN.txt	CUCUMBER	Vegetables	2	19	[0, 0, 0]	n/a	catFR1	1	R1273D
2305.955	0.967	2319490	WORD_OFF	n/a	n/a	CUCUMBER	n/a	2	19	[0, 0, 0]	n/a	catFR1	1	R1273D
2306.922	1.617	2320457	WORD	n/a	wordpools/wordpool_categorized_EN.txt	MONKEY	Zoo	3	19	[0, 0, 0]	n/a	catFR1	1	R1273D
2308.539	0.933	2322074	WORD_OFF	n/a	n/a	MONKEY	n/a	3	19	[0, 0, 0]	n/a	catFR1	1	R1273D
2309.472	1.617	2323007	WORD	n/a	wordpools/wordpool_categorized_EN.txt	ELEPHANT	Zoo	4	19	[0, 0, 0]	n/a	catFR1	1	R1273D
2311.089	0.784	2324624	WORD_OFF	n/a	n/a	ELEPHANT	n/a	4	19	[0, 0, 0]	n/a	catFR1	1	R1273D
2311.873	1.617	2325408	WORD	n/a	wordpools/wordpool_categorized_EN.txt	STRAWBERRY	Fruit	5	19	[0, 0, 0]	n/a	catFR1	1	R1273D
2313.49	0.916	2327024	WORD_OFF	n/a	n/a	STRAWBERRY	n/a	5	19	[0, 0, 0]	n/a	catFR1	1	R1273D
2314.406	1.617	2327940	WORD	n/a	wordpools/wordpool_categorized_EN.txt	PLUM	Fruit	6	19	[0, 0, 0]	n/a	catFR1	1	R1273D
2316.023	0.9	2329557	WORD_OFF	n/a	n/a	PLUM	n/a	6	19	[0, 0, 0]	n/a	catFR1	1	R1273D
2316.923	1.618	2330457	WORD	n/a	wordpools/wordpool_categorized_EN.txt	GIRAFFE	Zoo	7	19	[0, 0, 0]	n/a	catFR1	1	R1273D
2318.541	0.95	2332075	WORD_OFF	n/a	n/a	GIRAFFE	n/a	7	19	[0, 0, 0]	n/a	catFR1	1	R1273D
2319.491	1.617	2333025	WORD	n/a	wordpools/wordpool_categorized_EN.txt	BEAR	Zoo	8	19	[0, 0, 0]	n/a	catFR1	1	R1273D
2321.108	0.933	2334642	WORD_OFF	n/a	n/a	BEAR	n/a	8	19	[0, 0, 0]	n/a	catFR1	1	R1273D
2322.041	1.617	2335575	WORD	n/a	wordpools/wordpool_categorized_EN.txt	BROCCOLI	Vegetables	9	19	[0, 0, 0]	n/a	catFR1	1	R1273D
2323.658	0.784	2337192	WORD_OFF	n/a	n/a	BROCCOLI	n/a	9	19	[0, 0, 0]	n/a	catFR1	1	R1273D
2324.442	1.617	2337976	WORD	n/a	wordpools/wordpool_categorized_EN.txt	POTATO	Vegetables	10	19	[0, 0, 0]	n/a	catFR1	1	R1273D
2326.059	0.816	2339593	WORD_OFF	n/a	n/a	POTATO	n/a	10	19	[0, 0, 0]	n/a	catFR1	1	R1273D
2326.875	1.617	2340409	WORD	n/a	wordpools/wordpool_categorized_EN.txt	PEACH	Fruit	11	19	[0, 0, 0]	n/a	catFR1	1	R1273D
2328.492	1.017	2342026	WORD_OFF	n/a	n/a	PEACH	n/a	11	19	[0, 0, 0]	n/a	catFR1	1	R1273D
2329.509	1.617	2343043	WORD	n/a	wordpools/wordpool_categorized_EN.txt	CHERRY	Fruit	12	19	[0, 0, 0]	n/a	catFR1	1	R1273D
2331.126	0.0	2344659	ENCODING_END	n/a	n/a	n/a	n/a	-999	19	[0, 0, 0]	n/a	catFR1	1	R1273D
2331.126	0.104	2344659	WORD_OFF	n/a	n/a	CHERRY	n/a	12	19	[0, 0, 0]	n/a	catFR1	1	R1273D
2331.23	0.001	2344763	DISTRACT_START	n/a	n/a	n/a	n/a	-999	19	[0, 0, 0]	n/a	catFR1	1	R1273D
2331.231	0.012	2344764	START	n/a	n/a	n/a	n/a	-999	19	[-999, -999, -999]	n/a	catFR1	1	R1273D
2331.243	7.401	2344776	PROB	7.401	n/a	n/a	n/a	-999	19	[4, 8, 1]	13	catFR1	1	R1273D
2338.644	5.751	2352177	PROB	5.751	n/a	n/a	n/a	-999	19	[5, 7, 3]	15	catFR1	1	R1273D
2344.395	3.984	2357928	PROB	3.984	n/a	n/a	n/a	-999	19	[8, 7, 2]	17	catFR1	1	R1273D
2348.379	9.815	2361911	PROB	9.815	n/a	n/a	n/a	-999	19	[7, 8, 9]	25	catFR1	1	R1273D
2358.194	0.021	2371726	STOP	n/a	n/a	n/a	n/a	-999	19	[-999, -999, -999]	n/a	catFR1	1	R1273D
2358.215	0.616	2371747	DISTRACT_END	n/a	n/a	n/a	n/a	-999	19	[0, 0, 0]	n/a	catFR1	1	R1273D
2358.831	0.518	2372363	RETRIEVAL_ORIENT	n/a	n/a	n/a	n/a	-999	19	[0, 0, 0]	n/a	catFR1	1	R1273D
2359.349	0.271	2372881	REC_START	n/a	n/a	n/a	n/a	-999	19	[0, 0, 0]	n/a	catFR1	1	R1273D
2359.62	6.243	2373152	REC_WORD_VV	6.243	n/a	<>	n/a	-999	19	[0, 0, 0]	n/a	catFR1	1	R1273D
2365.863	1.399	2379395	REC_WORD_VV	1.399	n/a	<>	n/a	-999	19	[0, 0, 0]	n/a	catFR1	1	R1273D
2367.262	1.074	2380793	REC_WORD	1.074	n/a	BANANA	n/a	-999	19	[0, 0, 0]	n/a	catFR1	1	R1273D
2368.336	0.271	2381867	REC_WORD_VV	0.271	n/a	<>	n/a	-999	19	[0, 0, 0]	n/a	catFR1	1	R1273D
2368.607	1.589	2382138	REC_WORD	1.589	n/a	STRAWBERRY	Fruit	5	19	[0, 0, 0]	n/a	catFR1	1	R1273D
2370.196	1.304	2383727	REC_WORD	1.304	n/a	CUCUMBER	Vegetables	2	19	[0, 0, 0]	n/a	catFR1	1	R1273D
2371.5	3.042	2385031	REC_WORD	3.042	n/a	BROCCOLI	Vegetables	9	19	[0, 0, 0]	n/a	catFR1	1	R1273D
2374.542	5.863	2388073	REC_WORD_VV	5.863	n/a	<>	n/a	-999	19	[0, 0, 0]	n/a	catFR1	1	R1273D
2380.405	0.126	2393936	REC_WORD_VV	0.126	n/a	<>	n/a	-999	19	[0, 0, 0]	n/a	catFR1	1	R1273D
2380.531	0.532	2394062	REC_WORD	0.532	n/a	MONKEY	Zoo	3	19	[0, 0, 0]	n/a	catFR1	1	R1273D
2381.063	0.457	2394594	REC_WORD_VV	0.457	n/a	<>	n/a	-999	19	[0, 0, 0]	n/a	catFR1	1	R1273D
2381.52	4.691	2395051	REC_WORD	4.691	n/a	BANANA	n/a	-999	19	[0, 0, 0]	n/a	catFR1	1	R1273D
2386.211	0.462	2399741	REC_WORD_VV	0.462	n/a	<>	n/a	-999	19	[0, 0, 0]	n/a	catFR1	1	R1273D
2386.673	0.678	2400203	REC_WORD	0.678	n/a	GIRAFFE	Zoo	7	19	[0, 0, 0]	n/a	catFR1	1	R1273D
2387.351	1.677	2400881	REC_WORD_VV	1.677	n/a	<>	n/a	-999	19	[0, 0, 0]	n/a	catFR1	1	R1273D
2389.028	0.332	2402558	REC_WORD	0.332	n/a	CUCUMBER	Vegetables	2	19	[0, 0, 0]	n/a	catFR1	1	R1273D
2389.36	46.019	2402890	REC_END	n/a	n/a	n/a	n/a	-999	19	[0, 0, 0]	n/a	catFR1	1	R1273D
2435.379	0.5	2448907	TRIAL	n/a	n/a	n/a	n/a	-999	20	[0, 0, 0]	n/a	catFR1	1	R1273D
2435.879	10.428	2449407	COUNTDOWN_START	n/a	n/a	n/a	n/a	-999	20	[0, 0, 0]	n/a	catFR1	1	R1273D
2446.307	0.008	2459834	COUNTDOWN_END	n/a	n/a	n/a	n/a	-999	20	[0, 0, 0]	n/a	catFR1	1	R1273D
2446.315	1.616	2459842	ORIENT	n/a	n/a	n/a	n/a	-999	20	[0, 0, 0]	n/a	catFR1	1	R1273D
2447.931	2.317	2461458	ORIENT_OFF	n/a	n/a	n/a	n/a	-999	20	[0, 0, 0]	n/a	catFR1	1	R1273D
2450.248	1.617	2463775	WORD	n/a	wordpools/wordpool_categorized_EN.txt	PEN	OfficeSupplies	1	20	[0, 0, 0]	n/a	catFR1	1	R1273D
2451.865	0.967	2465392	WORD_OFF	n/a	n/a	PEN	n/a	1	20	[0, 0, 0]	n/a	catFR1	1	R1273D
2452.832	1.617	2466359	WORD	n/a	wordpools/wordpool_categorized_EN.txt	STAPLER	OfficeSupplies	2	20	[0, 0, 0]	n/a	catFR1	1	R1273D
2454.449	0.867	2467976	WORD_OFF	n/a	n/a	STAPLER	n/a	2	20	[0, 0, 0]	n/a	catFR1	1	R1273D
2455.316	1.616	2468843	WORD	n/a	wordpools/wordpool_categorized_EN.txt	CHIMPANZEE	Zoo	3	20	[0, 0, 0]	n/a	catFR1	1	R1273D
2456.932	0.967	2470458	WORD_OFF	n/a	n/a	CHIMPANZEE	n/a	3	20	[0, 0, 0]	n/a	catFR1	1	R1273D
2457.899	1.617	2471425	WORD	n/a	wordpools/wordpool_categorized_EN.txt	PANDA	Zoo	4	20	[0, 0, 0]	n/a	catFR1	1	R1273D
2459.516	0.867	2473042	WORD_OFF	n/a	n/a	PANDA	n/a	4	20	[0, 0, 0]	n/a	catFR1	1	R1273D
2460.383	1.617	2473909	WORD	n/a	wordpools/wordpool_categorized_EN.txt	BLENDER	Appliances	5	20	[0, 0, 0]	n/a	catFR1	1	R1273D
2462.0	0.884	2475526	WORD_OFF	n/a	n/a	BLENDER	n/a	5	20	[0, 0, 0]	n/a	catFR1	1	R1273D
2462.884	1.617	2476410	WORD	n/a	wordpools/wordpool_categorized_EN.txt	TOASTER	Appliances	6	20	[0, 0, 0]	n/a	catFR1	1	R1273D
2464.501	0.883	2478027	WORD_OFF	n/a	n/a	TOASTER	n/a	6	20	[0, 0, 0]	n/a	catFR1	1	R1273D
2465.384	1.617	2478910	WORD	n/a	wordpools/wordpool_categorized_EN.txt	MARKER	OfficeSupplies	7	20	[0, 0, 0]	n/a	catFR1	1	R1273D
2467.001	0.783	2480527	WORD_OFF	n/a	n/a	MARKER	n/a	7	20	[0, 0, 0]	n/a	catFR1	1	R1273D
2467.784	1.618	2481310	WORD	n/a	wordpools/wordpool_categorized_EN.txt	ERASER	OfficeSupplies	8	20	[0, 0, 0]	n/a	catFR1	1	R1273D
2469.402	0.917	2482928	WORD_OFF	n/a	n/a	ERASER	n/a	8	20	[0, 0, 0]	n/a	catFR1	1	R1273D
2470.319	1.616	2483845	WORD	n/a	wordpools/wordpool_categorized_EN.txt	LION	Zoo	9	20	[0, 0, 0]	n/a	catFR1	1	R1273D
2471.935	0.817	2485461	WORD_OFF	n/a	n/a	LION	n/a	9	20	[0, 0, 0]	n/a	catFR1	1	R1273D
2472.752	1.618	2486278	WORD	n/a	wordpools/wordpool_categorized_EN.txt	CHEETAH	Zoo	10	20	[0, 0, 0]	n/a	catFR1	1	R1273D
2474.37	0.782	2487895	WORD_OFF	n/a	n/a	CHEETAH	n/a	10	20	[0, 0, 0]	n/a	catFR1	1	R1273D
2475.152	1.617	2488677	WORD	n/a	wordpools/wordpool_categorized_EN.txt	DISHWASHER	Appliances	11	20	[0, 0, 0]	n/a	catFR1	1	R1273D
2476.769	0.951	2490294	WORD_OFF	n/a	n/a	DISHWASHER	n/a	11	20	[0, 0, 0]	n/a	catFR1	1	R1273D
2477.72	1.618	2491245	WORD	n/a	wordpools/wordpool_categorized_EN.txt	FREEZER	Appliances	12	20	[0, 0, 0]	n/a	catFR1	1	R1273D
2479.338	0.0	2492863	ENCODING_END	n/a	n/a	n/a	n/a	-999	20	[0, 0, 0]	n/a	catFR1	1	R1273D
2479.338	0.133	2492863	WORD_OFF	n/a	n/a	FREEZER	n/a	12	20	[0, 0, 0]	n/a	catFR1	1	R1273D
2479.471	0.0	2492996	DISTRACT_START	n/a	n/a	n/a	n/a	-999	20	[0, 0, 0]	n/a	catFR1	1	R1273D
2479.471	0.016	2492996	START	n/a	n/a	n/a	n/a	-999	20	[-999, -999, -999]	n/a	catFR1	1	R1273D
2479.487	9.085	2493012	PROB	9.085	n/a	n/a	n/a	-999	20	[5, 7, 8]	21	catFR1	1	R1273D
2488.572	3.8	2502097	PROB	3.8	n/a	n/a	n/a	-999	20	[6, 8, 2]	16	catFR1	1	R1273D
2492.372	5.001	2505896	PROB	5.001	n/a	n/a	n/a	-999	20	[6, 2, 2]	10	catFR1	1	R1273D
2497.373	9.134	2510897	PROB	9.134	n/a	n/a	n/a	-999	20	[8, 6, 5]	19	catFR1	1	R1273D
2506.507	0.018	2520031	STOP	n/a	n/a	n/a	n/a	-999	20	[-999, -999, -999]	n/a	catFR1	1	R1273D
2506.525	0.55	2520049	DISTRACT_END	n/a	n/a	n/a	n/a	-999	20	[0, 0, 0]	n/a	catFR1	1	R1273D
2507.075	0.517	2520599	RETRIEVAL_ORIENT	n/a	n/a	n/a	n/a	-999	20	[0, 0, 0]	n/a	catFR1	1	R1273D
2507.592	1.859	2521116	REC_START	n/a	n/a	n/a	n/a	-999	20	[0, 0, 0]	n/a	catFR1	1	R1273D
2509.451	1.184	2522975	REC_WORD_VV	1.184	n/a	<>	n/a	-999	20	[0, 0, 0]	n/a	catFR1	1	R1273D
2510.635	2.306	2524158	REC_WORD	2.306	n/a	RHINO	n/a	-999	20	[0, 0, 0]	n/a	catFR1	1	R1273D
2512.941	0.161	2526464	REC_WORD_VV	0.161	n/a	<>	n/a	-999	20	[0, 0, 0]	n/a	catFR1	1	R1273D
2513.102	9.267	2526625	REC_WORD	9.267	n/a	DISHWASHER	Appliances	11	20	[0, 0, 0]	n/a	catFR1	1	R1273D
2522.369	7.314	2535892	REC_WORD_VV	7.314	n/a	<>	n/a	-999	20	[0, 0, 0]	n/a	catFR1	1	R1273D
2529.683	0.747	2543205	REC_WORD_VV	0.747	n/a	<>	n/a	-999	20	[0, 0, 0]	n/a	catFR1	1	R1273D
2530.43	1.982	2543952	REC_WORD	1.982	n/a	CHEETAH	Zoo	10	20	[0, 0, 0]	n/a	catFR1	1	R1273D
2532.412	0.357	2545934	REC_WORD_VV	0.357	n/a	<>	n/a	-999	20	[0, 0, 0]	n/a	catFR1	1	R1273D
2532.769	1.394	2546291	REC_WORD	1.394	n/a	MONKEY	n/a	-999	20	[0, 0, 0]	n/a	catFR1	1	R1273D
2534.163	0.538	2547685	REC_WORD_VV	0.538	n/a	<>	n/a	-999	20	[0, 0, 0]	n/a	catFR1	1	R1273D
2534.701	0.576	2548223	REC_WORD	0.576	n/a	MONKEY	n/a	-999	20	[0, 0, 0]	n/a	catFR1	1	R1273D
2535.277	1.498	2548799	REC_WORD_VV	1.498	n/a	<>	n/a	-999	20	[0, 0, 0]	n/a	catFR1	1	R1273D
2536.775	0.828	2550297	REC_WORD	0.828	n/a	BANANA	n/a	-999	20	[0, 0, 0]	n/a	catFR1	1	R1273D
2537.603	9.346	2551125	REC_END	n/a	n/a	n/a	n/a	-999	20	[0, 0, 0]	n/a	catFR1	1	R1273D
2546.949	0.5	2560470	TRIAL	n/a	n/a	n/a	n/a	-999	21	[0, 0, 0]	n/a	catFR1	1	R1273D
2547.449	10.428	2560970	COUNTDOWN_START	n/a	n/a	n/a	n/a	-999	21	[0, 0, 0]	n/a	catFR1	1	R1273D
2557.877	0.007	2571398	COUNTDOWN_END	n/a	n/a	n/a	n/a	-999	21	[0, 0, 0]	n/a	catFR1	1	R1273D
2557.884	1.617	2571405	ORIENT	n/a	n/a	n/a	n/a	-999	21	[0, 0, 0]	n/a	catFR1	1	R1273D
2559.501	2.101	2573022	ORIENT_OFF	n/a	n/a	n/a	n/a	-999	21	[0, 0, 0]	n/a	catFR1	1	R1273D
2561.602	1.617	2575123	WORD	n/a	wordpools/wordpool_categorized_EN.txt	HILLS	Landscapes	1	21	[0, 0, 0]	n/a	catFR1	1	R1273D
2563.219	0.816	2576740	WORD_OFF	n/a	n/a	HILLS	n/a	1	21	[0, 0, 0]	n/a	catFR1	1	R1273D
2564.035	1.617	2577555	WORD	n/a	wordpools/wordpool_categorized_EN.txt	CREEK	Landscapes	2	21	[0, 0, 0]	n/a	catFR1	1	R1273D
2565.652	0.784	2579172	WORD_OFF	n/a	n/a	CREEK	n/a	2	21	[0, 0, 0]	n/a	catFR1	1	R1273D
2566.436	1.617	2579956	WORD	n/a	wordpools/wordpool_categorized_EN.txt	BUS	Vehicles	3	21	[0, 0, 0]	n/a	catFR1	1	R1273D
2568.053	0.8	2581573	WORD_OFF	n/a	n/a	BUS	n/a	3	21	[0, 0, 0]	n/a	catFR1	1	R1273D
2568.853	1.617	2582373	WORD	n/a	wordpools/wordpool_categorized_EN.txt	TRUCK	Vehicles	4	21	[0, 0, 0]	n/a	catFR1	1	R1273D
2570.47	0.834	2583990	WORD_OFF	n/a	n/a	TRUCK	n/a	4	21	[0, 0, 0]	n/a	catFR1	1	R1273D
2571.304	1.616	2584824	WORD	n/a	wordpools/wordpool_categorized_EN.txt	EVERGREEN	Trees	5	21	[0, 0, 0]	n/a	catFR1	1	R1273D
2572.92	0.8	2586440	WORD_OFF	n/a	n/a	EVERGREEN	n/a	5	21	[0, 0, 0]	n/a	catFR1	1	R1273D
2573.72	1.618	2587240	WORD	n/a	wordpools/wordpool_categorized_EN.txt	PINE	Trees	6	21	[0, 0, 0]	n/a	catFR1	1	R1273D
2575.338	0.866	2588858	WORD_OFF	n/a	n/a	PINE	n/a	6	21	[0, 0, 0]	n/a	catFR1	1	R1273D
2576.204	1.617	2589724	WORD	n/a	wordpools/wordpool_categorized_EN.txt	VAN	Vehicles	7	21	[0, 0, 0]	n/a	catFR1	1	R1273D
2577.821	0.967	2591341	WORD_OFF	n/a	n/a	VAN	n/a	7	21	[0, 0, 0]	n/a	catFR1	1	R1273D
2578.788	1.617	2592308	WORD	n/a	wordpools/wordpool_categorized_EN.txt	PLANE	Vehicles	8	21	[0, 0, 0]	n/a	catFR1	1	R1273D
2580.405	0.783	2593925	WORD_OFF	n/a	n/a	PLANE	n/a	8	21	[0, 0, 0]	n/a	catFR1	1	R1273D
2581.188	1.618	2594708	WORD	n/a	wordpools/wordpool_categorized_EN.txt	LAKE	Landscapes	9	21	[0, 0, 0]	n/a	catFR1	1	R1273D
2582.806	0.966	2596325	WORD_OFF	n/a	n/a	LAKE	n/a	9	21	[0, 0, 0]	n/a	catFR1	1	R1273D
2583.772	1.617	2597291	WORD	n/a	wordpools/wordpool_categorized_EN.txt	STREAM	Landscapes	10	21	[0, 0, 0]	n/a	catFR1	1	R1273D
2585.389	0.834	2598908	WORD_OFF	n/a	n/a	STREAM	n/a	10	21	[0, 0, 0]	n/a	catFR1	1	R1273D
2586.223	1.617	2599742	WORD	n/a	wordpools/wordpool_categorized_EN.txt	BIRCH	Trees	11	21	[0, 0, 0]	n/a	catFR1	1	R1273D
2587.84	0.933	2601359	WORD_OFF	n/a	n/a	BIRCH	n/a	11	21	[0, 0, 0]	n/a	catFR1	1	R1273D
2588.773	1.617	2602292	WORD	n/a	wordpools/wordpool_categorized_EN.txt	ELM	Trees	12	21	[0, 0, 0]	n/a	catFR1	1	R1273D
2590.39	0.0	2603909	ENCODING_END	n/a	n/a	n/a	n/a	-999	21	[0, 0, 0]	n/a	catFR1	1	R1273D
2590.39	0.134	2603909	WORD_OFF	n/a	n/a	ELM	n/a	12	21	[0, 0, 0]	n/a	catFR1	1	R1273D
2590.524	0.0	2604043	DISTRACT_START	n/a	n/a	n/a	n/a	-999	21	[0, 0, 0]	n/a	catFR1	1	R1273D
2590.524	0.016	2604043	START	n/a	n/a	n/a	n/a	-999	21	[-999, -999, -999]	n/a	catFR1	1	R1273D
2590.54	8.969	2604059	PROB	8.969	n/a	n/a	n/a	-999	21	[8, 5, 3]	16	catFR1	1	R1273D
2599.509	3.384	2613027	PROB	3.384	n/a	n/a	n/a	-999	21	[4, 1, 2]	7	catFR1	1	R1273D
2602.893	9.805	2616411	PROB	9.805	n/a	n/a	n/a	-999	21	[6, 7, 9]	27	catFR1	1	R1273D
2612.698	0.013	2626216	STOP	n/a	n/a	n/a	n/a	-999	21	[-999, -999, -999]	n/a	catFR1	1	R1273D
2612.711	0.651	2626229	DISTRACT_END	n/a	n/a	n/a	n/a	-999	21	[0, 0, 0]	n/a	catFR1	1	R1273D
2613.362	0.516	2626880	RETRIEVAL_ORIENT	n/a	n/a	n/a	n/a	-999	21	[0, 0, 0]	n/a	catFR1	1	R1273D
2613.878	3.022	2627396	REC_START	n/a	n/a	n/a	n/a	-999	21	[0, 0, 0]	n/a	catFR1	1	R1273D
2616.9	0.594	2630418	REC_WORD_VV	0.594	n/a	<>	n/a	-999	21	[0, 0, 0]	n/a	catFR1	1	R1273D
2617.494	1.336	2631011	REC_WORD	1.336	n/a	BIRCH	Trees	11	21	[0, 0, 0]	n/a	catFR1	1	R1273D
2618.83	0.24	2632347	REC_WORD_VV	0.24	n/a	<>	n/a	-999	21	[0, 0, 0]	n/a	catFR1	1	R1273D
2619.07	0.944	2632587	REC_WORD	0.944	n/a	ELM	Trees	12	21	[0, 0, 0]	n/a	catFR1	1	R1273D
2620.014	2.569	2633531	REC_WORD_VV	2.569	n/a	<>	n/a	-999	21	[0, 0, 0]	n/a	catFR1	1	R1273D
2622.583	0.488	2636100	REC_WORD_VV	0.488	n/a	<>	n/a	-999	21	[0, 0, 0]	n/a	catFR1	1	R1273D
2623.071	1.66	2636588	REC_WORD	1.66	n/a	STREAM	Landscapes	10	21	[0, 0, 0]	n/a	catFR1	1	R1273D
2624.731	0.392	2638248	REC_WORD_VV	0.392	n/a	<>	n/a	-999	21	[0, 0, 0]	n/a	catFR1	1	R1273D
2625.123	3.064	2638640	REC_WORD	3.064	n/a	HILLS	Landscapes	1	21	[0, 0, 0]	n/a	catFR1	1	R1273D
2628.187	2.506	2641704	REC_WORD_VV	2.506	n/a	<>	n/a	-999	21	[0, 0, 0]	n/a	catFR1	1	R1273D
2630.693	0.415	2644210	REC_WORD_VV	0.415	n/a	<>	n/a	-999	21	[0, 0, 0]	n/a	catFR1	1	R1273D
2631.108	4.09	2644625	REC_WORD	4.09	n/a	TRUCK	Vehicles	4	21	[0, 0, 0]	n/a	catFR1	1	R1273D
2635.198	2.487	2648715	REC_WORD_VV	2.487	n/a	<>	n/a	-999	21	[0, 0, 0]	n/a	catFR1	1	R1273D
2637.685	6.203	2651201	REC_WORD	6.203	n/a	BOAT	n/a	-999	21	[0, 0, 0]	n/a	catFR1	1	R1273D
2643.888	143.605	2657404	REC_END	n/a	n/a	n/a	n/a	-999	21	[0, 0, 0]	n/a	catFR1	1	R1273D
2787.493	0.5	2801001	TRIAL	n/a	n/a	n/a	n/a	-999	22	[0, 0, 0]	n/a	catFR1	1	R1273D
2787.993	10.428	2801501	COUNTDOWN_START	n/a	n/a	n/a	n/a	-999	22	[0, 0, 0]	n/a	catFR1	1	R1273D
2798.421	0.007	2811928	COUNTDOWN_END	n/a	n/a	n/a	n/a	-999	22	[0, 0, 0]	n/a	catFR1	1	R1273D
2798.428	1.617	2811935	ORIENT	n/a	n/a	n/a	n/a	-999	22	[0, 0, 0]	n/a	catFR1	1	R1273D
2800.045	2.15	2813552	ORIENT_OFF	n/a	n/a	n/a	n/a	-999	22	[0, 0, 0]	n/a	catFR1	1	R1273D
2802.195	1.618	2815702	WORD	n/a	wordpools/wordpool_categorized_EN.txt	DOLLHOUSE	Toys	1	22	[0, 0, 0]	n/a	catFR1	1	R1273D
2803.813	0.883	2817320	WORD_OFF	n/a	n/a	DOLLHOUSE	n/a	1	22	[0, 0, 0]	n/a	catFR1	1	R1273D
2804.696	1.618	2818203	WORD	n/a	wordpools/wordpool_categorized_EN.txt	BLOCKS	Toys	2	22	[0, 0, 0]	n/a	catFR1	1	R1273D
2806.314	0.832	2819821	WORD_OFF	n/a	n/a	BLOCKS	n/a	2	22	[0, 0, 0]	n/a	catFR1	1	R1273D
2807.146	1.618	2820653	WORD	n/a	wordpools/wordpool_categorized_EN.txt	PIG	FarmAnimals	3	22	[0, 0, 0]	n/a	catFR1	1	R1273D
2808.764	0.983	2822271	WORD_OFF	n/a	n/a	PIG	n/a	3	22	[0, 0, 0]	n/a	catFR1	1	R1273D
2809.747	1.618	2823254	WORD	n/a	wordpools/wordpool_categorized_EN.txt	CALF	FarmAnimals	4	22	[0, 0, 0]	n/a	catFR1	1	R1273D
2811.365	0.967	2824872	WORD_OFF	n/a	n/a	CALF	n/a	4	22	[0, 0, 0]	n/a	catFR1	1	R1273D
2812.332	1.616	2825839	WORD	n/a	wordpools/wordpool_categorized_EN.txt	MOUNTAIN	Landscapes	5	22	[0, 0, 0]	n/a	catFR1	1	R1273D
2813.948	0.767	2827455	WORD_OFF	n/a	n/a	MOUNTAIN	n/a	5	22	[0, 0, 0]	n/a	catFR1	1	R1273D
