onset	duration	sample	trial_type	response_time	stim_file	item_name	category	serialpos	list	test	answer	experiment	session	subject
0.0	10.383	17535	COUNTDOWN_START	n/a	n/a	n/a	n/a	-999	9	[0, 0, 0]	n/a	catFR1	2	R1525J
10.383	0.0	27917	COUNTDOWN_END	n/a	n/a	n/a	n/a	-999	9	[0, 0, 0]	n/a	catFR1	2	R1525J
10.383	1.9	27917	ENCODING_START	n/a	n/a	n/a	n/a	-999	10	[0, 0, 0]	n/a	catFR1	2	R1525J
12.283	1.601	29819	WORD	n/a	wordpools/wordpool_categorized_EN.txt	GOOSE	Birds	1	10	[0, 0, 0]	n/a	catFR1	2	R1525J
13.884	0.914	31415	WORD_OFF	n/a	n/a	GOOSE	Birds	1	10	[0, 0, 0]	n/a	catFR1	2	R1525J
14.798	1.617	32333	WORD	n/a	wordpools/wordpool_categorized_EN.txt	CARDINAL	Birds	2	10	[0, 0, 0]	n/a	catFR1	2	R1525J
16.415	0.884	33944	WORD_OFF	n/a	n/a	CARDINAL	Birds	2	10	[0, 0, 0]	n/a	catFR1	2	R1525J
17.299	1.617	34831	WORD	n/a	wordpools/wordpool_categorized_EN.txt	FRISBEE	Toys	3	10	[0, 0, 0]	n/a	catFR1	2	R1525J
18.916	0.9	36450	WORD_OFF	n/a	n/a	FRISBEE	Toys	3	10	[0, 0, 0]	n/a	catFR1	2	R1525J
19.816	1.6	37345	WORD	n/a	wordpools/wordpool_categorized_EN.txt	DOLLHOUSE	Toys	4	10	[0, 0, 0]	n/a	catFR1	2	R1525J
21.416	0.949	38949	WORD_OFF	n/a	n/a	DOLLHOUSE	Toys	4	10	[0, 0, 0]	n/a	catFR1	2	R1525J
22.365	1.617	39896	WORD	n/a	wordpools/wordpool_categorized_EN.txt	CUPCAKE	Desserts	5	10	[0, 0, 0]	n/a	catFR1	2	R1525J
23.982	0.784	41514	WORD_OFF	n/a	n/a	CUPCAKE	Desserts	5	10	[0, 0, 0]	n/a	catFR1	2	R1525J
24.766	1.617	42297	WORD	n/a	wordpools/wordpool_categorized_EN.txt	PIE	Desserts	6	10	[0, 0, 0]	n/a	catFR1	2	R1525J
26.383	0.816	43916	WORD_OFF	n/a	n/a	PIE	Desserts	6	10	[0, 0, 0]	n/a	catFR1	2	R1525J
27.199	1.6	44729	WORD	n/a	wordpools/wordpool_categorized_EN.txt	MARBLES	Toys	7	10	[0, 0, 0]	n/a	catFR1	2	R1525J
28.799	0.967	46333	WORD_OFF	n/a	n/a	MARBLES	Toys	7	10	[0, 0, 0]	n/a	catFR1	2	R1525J
29.766	1.601	47295	WORD	n/a	wordpools/wordpool_categorized_EN.txt	BASEBALL	Toys	8	10	[0, 0, 0]	n/a	catFR1	2	R1525J
31.367	0.815	48898	WORD_OFF	n/a	n/a	BASEBALL	Toys	8	10	[0, 0, 0]	n/a	catFR1	2	R1525J
32.182	1.6	49711	WORD	n/a	wordpools/wordpool_categorized_EN.txt	PIGEON	Birds	9	10	[0, 0, 0]	n/a	catFR1	2	R1525J
33.782	0.95	51315	WORD_OFF	n/a	n/a	PIGEON	Birds	9	10	[0, 0, 0]	n/a	catFR1	2	R1525J
34.732	1.617	52262	WORD	n/a	wordpools/wordpool_categorized_EN.txt	ROBIN	Birds	10	10	[0, 0, 0]	n/a	catFR1	2	R1525J
36.349	0.95	53881	WORD_OFF	n/a	n/a	ROBIN	Birds	10	10	[0, 0, 0]	n/a	catFR1	2	R1525J
37.299	1.616	54828	WORD	n/a	wordpools/wordpool_categorized_EN.txt	CAKE	Desserts	11	10	[0, 0, 0]	n/a	catFR1	2	R1525J
38.915	0.851	56447	WORD_OFF	n/a	n/a	CAKE	Desserts	11	10	[0, 0, 0]	n/a	catFR1	2	R1525J
39.766	1.601	57297	WORD	n/a	wordpools/wordpool_categorized_EN.txt	COBBLER	Desserts	12	10	[0, 0, 0]	n/a	catFR1	2	R1525J
41.367	0.0	58897	START	n/a	n/a	n/a	n/a	-999	10	[-999, -999, -999]	n/a	catFR1	2	R1525J
41.367	0.0	58897	PROB	0.0	n/a	n/a	n/a	-999	10	[6, 7, 4]	17	catFR1	2	R1525J
41.366	0.001	58900	WORD_OFF	n/a	n/a	COBBLER	Desserts	12	10	[0, 0, 0]	n/a	catFR1	2	R1525J
41.367	0.0	58900	ENCODING_END	n/a	n/a	n/a	n/a	-999	10	[0, 0, 0]	n/a	catFR1	2	R1525J
41.367	7.181	58900	DISTRACT_START	n/a	n/a	n/a	n/a	-999	10	[0, 0, 0]	n/a	catFR1	2	R1525J
48.548	3.235	66078	PROB	3.235	n/a	n/a	n/a	-999	10	[1, 2, 2]	5	catFR1	2	R1525J
51.783	8.716	69313	PROB	8.716	n/a	n/a	n/a	-999	10	[8, 7, 6]	21	catFR1	2	R1525J
60.499	5.867	78028	PROB	5.867	n/a	n/a	n/a	-999	10	[8, 6, 6]	20	catFR1	2	R1525J
66.366	0.0	83894	DISTRACT_END	n/a	n/a	n/a	n/a	-999	10	[0, 0, 0]	n/a	catFR1	2	R1525J
66.366	1.816	83895	STOP	n/a	n/a	n/a	n/a	-999	10	[-999, -999, -999]	n/a	catFR1	2	R1525J
68.182	2.015	85714	REC_START	n/a	n/a	n/a	n/a	-999	10	[0, 0, 0]	n/a	catFR1	2	R1525J
70.197	1.972	87726	REC_WORD	1.972	n/a	GOOSE	Birds	1	10	[0, 0, 0]	n/a	catFR1	2	R1525J
72.169	1.0	89698	REC_WORD	1.0	n/a	DOLLHOUSE	Toys	4	10	[0, 0, 0]	n/a	catFR1	2	R1525J
73.169	1.938	90698	REC_WORD_VV	1.938	n/a	<>	n/a	-999	10	[0, 0, 0]	n/a	catFR1	2	R1525J
75.107	1.611	92636	REC_WORD	1.611	n/a	PIE	Desserts	6	10	[0, 0, 0]	n/a	catFR1	2	R1525J
76.718	3.214	94247	REC_WORD	3.214	n/a	COBBLER	Desserts	12	10	[0, 0, 0]	n/a	catFR1	2	R1525J
79.932	0.644	97461	REC_WORD_VV	0.644	n/a	<>	n/a	-999	10	[0, 0, 0]	n/a	catFR1	2	R1525J
80.576	1.0	98105	REC_WORD	1.0	n/a	PIGEON	Birds	9	10	[0, 0, 0]	n/a	catFR1	2	R1525J
81.576	3.624	99105	REC_WORD_VV	3.624	n/a	<>	n/a	-999	10	[0, 0, 0]	n/a	catFR1	2	R1525J
85.2	2.534	102728	REC_WORD_VV	2.534	n/a	<>	n/a	-999	10	[0, 0, 0]	n/a	catFR1	2	R1525J
87.734	0.41	105262	REC_WORD_VV	0.41	n/a	<>	n/a	-999	10	[0, 0, 0]	n/a	catFR1	2	R1525J
88.144	0.555	105672	REC_WORD	0.555	n/a	MOUSSE	Desserts	-999	10	[0, 0, 0]	n/a	catFR1	2	R1525J
88.699	3.326	106227	REC_WORD_VV	3.326	n/a	<>	n/a	-999	10	[0, 0, 0]	n/a	catFR1	2	R1525J
92.025	2.773	109553	REC_WORD_VV	2.773	n/a	<>	n/a	-999	10	[0, 0, 0]	n/a	catFR1	2	R1525J
94.798	3.6	112326	REC_WORD	3.6	n/a	DOLL	Toys	-999	10	[0, 0, 0]	n/a	catFR1	2	R1525J
98.398	3.136	115929	REC_END	n/a	n/a	n/a	n/a	-999	10	[0, 0, 0]	n/a	catFR1	2	R1525J
101.534	10.351	119062	COUNTDOWN_START	n/a	n/a	n/a	n/a	-999	10	[0, 0, 0]	n/a	catFR1	2	R1525J
111.885	0.0	129414	COUNTDOWN_END	n/a	n/a	n/a	n/a	-999	10	[0, 0, 0]	n/a	catFR1	2	R1525J
111.885	2.016	129414	ENCODING_START	n/a	n/a	n/a	n/a	-999	11	[0, 0, 0]	n/a	catFR1	2	R1525J
113.901	1.6	131428	WORD	n/a	wordpools/wordpool_categorized_EN.txt	PIANO	Instruments	1	11	[0, 0, 0]	n/a	catFR1	2	R1525J
115.501	0.798	133032	WORD_OFF	n/a	n/a	PIANO	Instruments	1	11	[0, 0, 0]	n/a	catFR1	2	R1525J
116.299	1.602	133830	WORD	n/a	wordpools/wordpool_categorized_EN.txt	DRUM	Instruments	2	11	[0, 0, 0]	n/a	catFR1	2	R1525J
117.901	0.965	135426	WORD_OFF	n/a	n/a	DRUM	Instruments	2	11	[0, 0, 0]	n/a	catFR1	2	R1525J
118.866	1.601	136396	WORD	n/a	wordpools/wordpool_categorized_EN.txt	BLOCKS	Toys	3	11	[0, 0, 0]	n/a	catFR1	2	R1525J
120.467	0.867	137999	WORD_OFF	n/a	n/a	BLOCKS	Toys	3	11	[0, 0, 0]	n/a	catFR1	2	R1525J
121.334	1.6	138865	WORD	n/a	wordpools/wordpool_categorized_EN.txt	BALL	Toys	4	11	[0, 0, 0]	n/a	catFR1	2	R1525J
122.934	0.783	140461	WORD_OFF	n/a	n/a	BALL	Toys	4	11	[0, 0, 0]	n/a	catFR1	2	R1525J
123.717	1.617	141244	WORD	n/a	wordpools/wordpool_categorized_EN.txt	NOSE	BodyParts	5	11	[0, 0, 0]	n/a	catFR1	2	R1525J
125.334	0.832	142862	WORD_OFF	n/a	n/a	NOSE	BodyParts	5	11	[0, 0, 0]	n/a	catFR1	2	R1525J
126.166	1.601	143698	WORD	n/a	wordpools/wordpool_categorized_EN.txt	EYE	BodyParts	6	11	[0, 0, 0]	n/a	catFR1	2	R1525J
127.767	0.766	145294	WORD_OFF	n/a	n/a	EYE	BodyParts	6	11	[0, 0, 0]	n/a	catFR1	2	R1525J
128.533	1.601	146062	WORD	n/a	wordpools/wordpool_categorized_EN.txt	TROMBONE	Instruments	7	11	[0, 0, 0]	n/a	catFR1	2	R1525J
130.134	0.883	147658	WORD_OFF	n/a	n/a	TROMBONE	Instruments	7	11	[0, 0, 0]	n/a	catFR1	2	R1525J
131.017	1.617	148546	WORD	n/a	wordpools/wordpool_categorized_EN.txt	FLUTE	Instruments	8	11	[0, 0, 0]	n/a	catFR1	2	R1525J
132.634	0.917	150164	WORD_OFF	n/a	n/a	FLUTE	Instruments	8	11	[0, 0, 0]	n/a	catFR1	2	R1525J
133.551	1.6	151079	WORD	n/a	wordpools/wordpool_categorized_EN.txt	BARBIE	Toys	9	11	[0, 0, 0]	n/a	catFR1	2	R1525J
135.151	0.866	152678	WORD_OFF	n/a	n/a	BARBIE	Toys	9	11	[0, 0, 0]	n/a	catFR1	2	R1525J
136.017	1.617	153543	WORD	n/a	wordpools/wordpool_categorized_EN.txt	DOLL	Toys	10	11	[0, 0, 0]	n/a	catFR1	2	R1525J
137.634	0.9	155162	WORD_OFF	n/a	n/a	DOLL	Toys	10	11	[0, 0, 0]	n/a	catFR1	2	R1525J
138.534	1.618	156064	WORD	n/a	wordpools/wordpool_categorized_EN.txt	ARM	BodyParts	11	11	[0, 0, 0]	n/a	catFR1	2	R1525J
140.152	0.849	157679	WORD_OFF	n/a	n/a	ARM	BodyParts	11	11	[0, 0, 0]	n/a	catFR1	2	R1525J
141.001	1.601	158526	WORD	n/a	wordpools/wordpool_categorized_EN.txt	HAND	BodyParts	12	11	[0, 0, 0]	n/a	catFR1	2	R1525J
142.602	0.0	160128	START	n/a	n/a	n/a	n/a	-999	11	[-999, -999, -999]	n/a	catFR1	2	R1525J
142.602	0.0	160128	PROB	0.0	n/a	n/a	n/a	-999	11	[5, 8, 2]	15	catFR1	2	R1525J
142.601	0.001	160129	WORD_OFF	n/a	n/a	HAND	BodyParts	12	11	[0, 0, 0]	n/a	catFR1	2	R1525J
142.602	0.0	160129	ENCODING_END	n/a	n/a	n/a	n/a	-999	11	[0, 0, 0]	n/a	catFR1	2	R1525J
142.602	7.864	160129	DISTRACT_START	n/a	n/a	n/a	n/a	-999	11	[0, 0, 0]	n/a	catFR1	2	R1525J
150.466	3.268	167991	PROB	3.268	n/a	n/a	n/a	-999	11	[6, 2, 1]	9	catFR1	2	R1525J
153.734	3.484	171259	PROB	3.484	n/a	n/a	n/a	-999	11	[2, 1, 8]	11	catFR1	2	R1525J
157.218	2.882	174743	PROB	2.882	n/a	n/a	n/a	-999	11	[7, 5, 2]	14	catFR1	2	R1525J
160.1	4.433	177625	PROB	4.433	n/a	n/a	n/a	-999	11	[4, 5, 6]	13	catFR1	2	R1525J
164.533	0.0	182058	DISTRACT_END	n/a	n/a	n/a	n/a	-999	11	[0, 0, 0]	n/a	catFR1	2	R1525J
164.533	1.617	182058	STOP	n/a	n/a	n/a	n/a	-999	11	[-999, -999, -999]	n/a	catFR1	2	R1525J
166.15	2.193	183676	REC_START	n/a	n/a	n/a	n/a	-999	11	[0, 0, 0]	n/a	catFR1	2	R1525J
168.343	1.0	185868	REC_WORD	1.0	n/a	TROMBONE	Instruments	7	11	[0, 0, 0]	n/a	catFR1	2	R1525J
169.343	1.35	186868	REC_WORD_VV	1.35	n/a	<>	n/a	-999	11	[0, 0, 0]	n/a	catFR1	2	R1525J
170.693	1.661	188218	REC_WORD	1.661	n/a	DRUM	Instruments	2	11	[0, 0, 0]	n/a	catFR1	2	R1525J
172.354	1.0	189879	REC_WORD	1.0	n/a	GUITAR	Instruments	-999	11	[0, 0, 0]	n/a	catFR1	2	R1525J
173.354	3.489	190879	REC_WORD_VV	3.489	n/a	<>	n/a	-999	11	[0, 0, 0]	n/a	catFR1	2	R1525J
176.843	1.363	194367	REC_WORD	1.363	n/a	EYE	BodyParts	6	11	[0, 0, 0]	n/a	catFR1	2	R1525J
178.206	2.016	195730	REC_WORD	2.016	n/a	ARM	BodyParts	11	11	[0, 0, 0]	n/a	catFR1	2	R1525J
180.222	2.475	197746	REC_WORD	2.475	n/a	LEG	BodyParts	-999	11	[0, 0, 0]	n/a	catFR1	2	R1525J
182.697	1.273	200221	REC_WORD	1.273	n/a	MOUSSE	Desserts	-999	11	[0, 0, 0]	n/a	catFR1	2	R1525J
183.97	1.0	201494	REC_WORD	1.0	n/a	DOLLHOUSE	Toys	-999	11	[0, 0, 0]	n/a	catFR1	2	R1525J
184.97	0.287	202494	REC_WORD_VV	0.287	n/a	<>	n/a	-999	11	[0, 0, 0]	n/a	catFR1	2	R1525J
185.257	4.969	202781	REC_WORD	4.969	n/a	DOLL	Toys	10	11	[0, 0, 0]	n/a	catFR1	2	R1525J
190.226	2.703	207750	REC_WORD	2.703	n/a	FLUTE	Instruments	8	11	[0, 0, 0]	n/a	catFR1	2	R1525J
192.929	0.265	210453	REC_WORD_VV	0.265	n/a	<>	n/a	-999	11	[0, 0, 0]	n/a	catFR1	2	R1525J
193.194	0.727	210718	REC_WORD	0.727	n/a	VIOLIN	Instruments	-999	11	[0, 0, 0]	n/a	catFR1	2	R1525J
193.921	2.448	211445	REC_WORD_VV	2.448	n/a	<>	n/a	-999	11	[0, 0, 0]	n/a	catFR1	2	R1525J
196.369	2.465	213891	REC_END	n/a	n/a	n/a	n/a	-999	11	[0, 0, 0]	n/a	catFR1	2	R1525J
198.834	10.35	216360	COUNTDOWN_START	n/a	n/a	n/a	n/a	-999	11	[0, 0, 0]	n/a	catFR1	2	R1525J
209.184	0.0	226709	COUNTDOWN_END	n/a	n/a	n/a	n/a	-999	11	[0, 0, 0]	n/a	catFR1	2	R1525J
209.184	1.95	226712	ENCODING_START	n/a	n/a	n/a	n/a	-999	12	[0, 0, 0]	n/a	catFR1	2	R1525J
211.134	1.616	228659	WORD	n/a	wordpools/wordpool_categorized_EN.txt	LILAC	Flowers	1	12	[0, 0, 0]	n/a	catFR1	2	R1525J
212.75	0.866	230278	WORD_OFF	n/a	n/a	LILAC	Flowers	1	12	[0, 0, 0]	n/a	catFR1	2	R1525J
213.616	1.601	231143	WORD	n/a	wordpools/wordpool_categorized_EN.txt	SUNFLOWER	Flowers	2	12	[0, 0, 0]	n/a	catFR1	2	R1525J
215.217	0.884	232739	WORD_OFF	n/a	n/a	SUNFLOWER	Flowers	2	12	[0, 0, 0]	n/a	catFR1	2	R1525J
216.101	1.6	233627	WORD	n/a	wordpools/wordpool_categorized_EN.txt	CROW	Birds	3	12	[0, 0, 0]	n/a	catFR1	2	R1525J
217.701	0.966	235223	WORD_OFF	n/a	n/a	CROW	Birds	3	12	[0, 0, 0]	n/a	catFR1	2	R1525J
218.667	1.6	236192	WORD	n/a	wordpools/wordpool_categorized_EN.txt	DUCK	Birds	4	12	[0, 0, 0]	n/a	catFR1	2	R1525J
220.267	0.783	237789	WORD_OFF	n/a	n/a	DUCK	Birds	4	12	[0, 0, 0]	n/a	catFR1	2	R1525J
221.05	1.601	238572	WORD	n/a	wordpools/wordpool_categorized_EN.txt	WOODS	Landscapes	5	12	[0, 0, 0]	n/a	catFR1	2	R1525J
222.651	0.95	240183	WORD_OFF	n/a	n/a	WOODS	Landscapes	5	12	[0, 0, 0]	n/a	catFR1	2	R1525J
223.601	1.616	241123	WORD	n/a	wordpools/wordpool_categorized_EN.txt	FOREST	Landscapes	6	12	[0, 0, 0]	n/a	catFR1	2	R1525J
225.217	0.917	242741	WORD_OFF	n/a	n/a	FOREST	Landscapes	6	12	[0, 0, 0]	n/a	catFR1	2	R1525J
226.134	1.616	243658	WORD	n/a	wordpools/wordpool_categorized_EN.txt	SPARROW	Birds	7	12	[0, 0, 0]	n/a	catFR1	2	R1525J
227.75	0.801	245271	WORD_OFF	n/a	n/a	SPARROW	Birds	7	12	[0, 0, 0]	n/a	catFR1	2	R1525J
228.551	1.6	246075	WORD	n/a	wordpools/wordpool_categorized_EN.txt	DOVE	Birds	8	12	[0, 0, 0]	n/a	catFR1	2	R1525J
230.151	0.999	247679	WORD_OFF	n/a	n/a	DOVE	Birds	8	12	[0, 0, 0]	n/a	catFR1	2	R1525J
231.15	1.601	248671	WORD	n/a	wordpools/wordpool_categorized_EN.txt	ROSE	Flowers	9	12	[0, 0, 0]	n/a	catFR1	2	R1525J
232.751	0.898	250274	WORD_OFF	n/a	n/a	ROSE	Flowers	9	12	[0, 0, 0]	n/a	catFR1	2	R1525J
233.649	1.602	251169	WORD	n/a	wordpools/wordpool_categorized_EN.txt	TULIP	Flowers	10	12	[0, 0, 0]	n/a	catFR1	2	R1525J
235.251	0.833	252773	WORD_OFF	n/a	n/a	TULIP	Flowers	10	12	[0, 0, 0]	n/a	catFR1	2	R1525J
236.084	1.6	253608	WORD	n/a	wordpools/wordpool_categorized_EN.txt	STREAM	Landscapes	11	12	[0, 0, 0]	n/a	catFR1	2	R1525J
237.684	0.867	255204	WORD_OFF	n/a	n/a	STREAM	Landscapes	11	12	[0, 0, 0]	n/a	catFR1	2	R1525J
238.551	1.616	256077	WORD	n/a	wordpools/wordpool_categorized_EN.txt	LAKE	Landscapes	12	12	[0, 0, 0]	n/a	catFR1	2	R1525J
240.167	0.0	257688	WORD_OFF	n/a	n/a	LAKE	Landscapes	12	12	[0, 0, 0]	n/a	catFR1	2	R1525J
240.167	0.003	257689	PROB	0.003	n/a	n/a	n/a	-999	12	[4, 5, 5]	14	catFR1	2	R1525J
240.17	0.0	257692	START	n/a	n/a	n/a	n/a	-999	12	[-999, -999, -999]	n/a	catFR1	2	R1525J
240.17	0.0	257696	ENCODING_END	n/a	n/a	n/a	n/a	-999	12	[0, 0, 0]	n/a	catFR1	2	R1525J
240.17	4.065	257696	DISTRACT_START	n/a	n/a	n/a	n/a	-999	12	[0, 0, 0]	n/a	catFR1	2	R1525J
244.235	3.182	261756	PROB	3.182	n/a	n/a	n/a	-999	12	[2, 6, 3]	11	catFR1	2	R1525J
247.417	0.0	264938	PROB	0.0	n/a	n/a	n/a	-999	12	[8, 7, 2]	15	catFR1	2	R1525J
-1520.755	1773.422	265639	INSTRUCT_START	n/a	n/a	n/a	n/a	-999	-999	[0, 0, 0]	n/a	catFR1	2	R1525J
252.667	5.134	270188	PROB	5.134	n/a	n/a	n/a	-999	12	[5, 4, 6]	15	catFR1	2	R1525J
257.801	0.0	275322	PROB	0.0	n/a	n/a	n/a	-999	12	[4, 7, 8]	20	catFR1	2	R1525J
-1510.655	1783.053	275738	INSTRUCT_END	n/a	n/a	n/a	n/a	-999	-999	[0, 0, 0]	n/a	catFR1	2	R1525J
272.398	0.0	289917	DISTRACT_END	n/a	n/a	n/a	n/a	-999	12	[0, 0, 0]	n/a	catFR1	2	R1525J
272.398	1.534	289918	STOP	n/a	n/a	n/a	n/a	-999	12	[-999, -999, -999]	n/a	catFR1	2	R1525J
273.932	1.074	291453	REC_START	n/a	n/a	n/a	n/a	-999	12	[0, 0, 0]	n/a	catFR1	2	R1525J
275.006	1.045	292526	REC_WORD_VV	1.045	n/a	<>	n/a	-999	12	[0, 0, 0]	n/a	catFR1	2	R1525J
276.051	1.146	293571	REC_WORD	1.146	n/a	LAKE	Landscapes	12	12	[0, 0, 0]	n/a	catFR1	2	R1525J
277.197	3.0	294717	REC_WORD	3.0	n/a	STREAM	Landscapes	11	12	[0, 0, 0]	n/a	catFR1	2	R1525J
280.197	2.79	297717	REC_WORD_VV	2.79	n/a	<>	n/a	-999	12	[0, 0, 0]	n/a	catFR1	2	R1525J
282.987	3.541	300507	REC_WORD	3.541	n/a	TROMBONE	Instruments	-999	12	[0, 0, 0]	n/a	catFR1	2	R1525J
286.528	2.041	304048	REC_WORD	2.041	n/a	VIOLIN	Instruments	-999	12	[0, 0, 0]	n/a	catFR1	2	R1525J
288.569	0.667	306088	REC_WORD	0.667	n/a	DOLL	Toys	-999	12	[0, 0, 0]	n/a	catFR1	2	R1525J
289.236	0.691	306755	REC_WORD	0.691	n/a	DOLLHOUSE	Toys	-999	12	[0, 0, 0]	n/a	catFR1	2	R1525J
289.927	0.916	307446	REC_WORD	0.916	n/a	CYPRESS	Trees	-999	12	[0, 0, 0]	n/a	catFR1	2	R1525J
290.843	2.597	308362	REC_WORD	2.597	n/a	WOODS	Landscapes	5	12	[0, 0, 0]	n/a	catFR1	2	R1525J
293.44	1.58	310959	REC_WORD	1.58	n/a	SPARROW	Birds	7	12	[0, 0, 0]	n/a	catFR1	2	R1525J
295.02	0.0	312539	REC_WORD	0.0	n/a	TULIP	Flowers	10	12	[0, 0, 0]	n/a	catFR1	2	R1525J
-1473.654	1770.237	312740	COUNTDOWN_START	n/a	n/a	n/a	n/a	-999	-999	[0, 0, 0]	n/a	catFR1	2	R1525J
296.583	2.746	314102	REC_WORD	2.746	n/a	LILAC	Flowers	1	12	[0, 0, 0]	n/a	catFR1	2	R1525J
299.329	1.323	316848	REC_WORD_VV	1.323	n/a	<>	n/a	-999	12	[0, 0, 0]	n/a	catFR1	2	R1525J
300.652	1.788	318171	REC_WORD	1.788	n/a	CROW	Birds	3	12	[0, 0, 0]	n/a	catFR1	2	R1525J
302.44	1.0	319959	REC_WORD	1.0	n/a	SUNFLOWER	Flowers	2	12	[0, 0, 0]	n/a	catFR1	2	R1525J
303.44	0.695	320959	REC_WORD_VV	0.695	n/a	<>	n/a	-999	12	[0, 0, 0]	n/a	catFR1	2	R1525J
304.135	0.0	321653	REC_END	n/a	n/a	n/a	n/a	-999	12	[0, 0, 0]	n/a	catFR1	2	R1525J
-1463.306	0.0	323086	COUNTDOWN_END	n/a	n/a	n/a	n/a	-999	-999	[0, 0, 0]	n/a	catFR1	2	R1525J
-1463.306	1.95	323086	ENCODING_START	n/a	n/a	n/a	n/a	-999	-1	[0, 0, 0]	n/a	catFR1	2	R1525J
-1461.356	1.599	325040	WORD	n/a	n/a	PAPER	OfficeSupplies	1	-1	[0, 0, 0]	n/a	catFR1	2	R1525J
-1459.757	0.818	326636	WORD_OFF	n/a	n/a	PAPER	OfficeSupplies	1	-1	[0, 0, 0]	n/a	catFR1	2	R1525J
-1458.939	1.617	327456	WORD	n/a	n/a	GLUE	OfficeSupplies	2	-1	[0, 0, 0]	n/a	catFR1	2	R1525J
-1457.322	0.999	329067	WORD_OFF	n/a	n/a	GLUE	OfficeSupplies	2	-1	[0, 0, 0]	n/a	catFR1	2	R1525J
-1456.323	1.616	330067	WORD	n/a	n/a	GOAT	FarmAnimals	3	-1	[0, 0, 0]	n/a	catFR1	2	R1525J
-1454.707	0.919	331685	WORD_OFF	n/a	n/a	GOAT	FarmAnimals	3	-1	[0, 0, 0]	n/a	catFR1	2	R1525J
-1453.788	1.616	332603	WORD	n/a	n/a	LAMB	FarmAnimals	4	-1	[0, 0, 0]	n/a	catFR1	2	R1525J
-1452.172	0.816	334221	WORD_OFF	n/a	n/a	LAMB	FarmAnimals	4	-1	[0, 0, 0]	n/a	catFR1	2	R1525J
-1451.356	1.601	335034	WORD	n/a	n/a	CARNATION	Flowers	5	-1	[0, 0, 0]	n/a	catFR1	2	R1525J
-1449.755	0.982	336638	WORD_OFF	n/a	n/a	CARNATION	Flowers	5	-1	[0, 0, 0]	n/a	catFR1	2	R1525J
-1448.773	1.6	337622	WORD	n/a	n/a	MARIGOLD	Flowers	6	-1	[0, 0, 0]	n/a	catFR1	2	R1525J
-1447.173	0.983	339219	WORD_OFF	n/a	n/a	MARIGOLD	Flowers	6	-1	[0, 0, 0]	n/a	catFR1	2	R1525J
-1446.19	1.617	340203	WORD	n/a	n/a	NOTEBOOK	OfficeSupplies	7	-1	[0, 0, 0]	n/a	catFR1	2	R1525J
-1444.573	0.766	341822	WORD_OFF	n/a	n/a	NOTEBOOK	OfficeSupplies	7	-1	[0, 0, 0]	n/a	catFR1	2	R1525J
-1443.807	1.6	342582	WORD	n/a	n/a	TAPE	OfficeSupplies	8	-1	[0, 0, 0]	n/a	catFR1	2	R1525J
-1442.207	0.967	344186	WORD_OFF	n/a	n/a	TAPE	OfficeSupplies	8	-1	[0, 0, 0]	n/a	catFR1	2	R1525J
-1441.24	1.6	345148	WORD	n/a	n/a	TULIP	Flowers	9	-1	[0, 0, 0]	n/a	catFR1	2	R1525J
-1439.64	0.95	346752	WORD_OFF	n/a	n/a	TULIP	Flowers	9	-1	[0, 0, 0]	n/a	catFR1	2	R1525J
-1438.69	1.601	347699	WORD	n/a	n/a	PETUNIA	Flowers	10	-1	[0, 0, 0]	n/a	catFR1	2	R1525J
-1437.089	0.983	349303	WORD_OFF	n/a	n/a	PETUNIA	Flowers	10	-1	[0, 0, 0]	n/a	catFR1	2	R1525J
-1436.106	1.6	350287	WORD	n/a	n/a	CALF	FarmAnimals	11	-1	[0, 0, 0]	n/a	catFR1	2	R1525J
-1434.506	0.933	351883	WORD_OFF	n/a	n/a	CALF	FarmAnimals	11	-1	[0, 0, 0]	n/a	catFR1	2	R1525J
-1433.573	1.617	352816	WORD	n/a	n/a	BULL	FarmAnimals	12	-1	[0, 0, 0]	n/a	catFR1	2	R1525J
-1431.956	0.001	354431	PROB	0.001	n/a	n/a	n/a	-999	-1	[8, 6, 5]	19	catFR1	2	R1525J
-1431.955	0.0	354432	START	n/a	n/a	n/a	n/a	-999	-1	[-999, -999, -999]	n/a	catFR1	2	R1525J
-1431.956	0.001	354434	WORD_OFF	n/a	n/a	BULL	FarmAnimals	12	-1	[0, 0, 0]	n/a	catFR1	2	R1525J
-1431.955	0.0	354434	ENCODING_END	n/a	n/a	n/a	n/a	-999	-1	[0, 0, 0]	n/a	catFR1	2	R1525J
-1431.955	8.949	354442	DISTRACT_START	n/a	n/a	n/a	n/a	-999	-1	[0, 0, 0]	n/a	catFR1	2	R1525J
-1423.006	5.434	363381	PROB	5.434	n/a	n/a	n/a	-999	-1	[7, 4, 2]	13	catFR1	2	R1525J
-1417.572	4.399	368814	PROB	4.399	n/a	n/a	n/a	-999	-1	[1, 8, 3]	12	catFR1	2	R1525J
-1413.173	3.999	373213	PROB	3.999	n/a	n/a	n/a	-999	-1	[2, 2, 5]	9	catFR1	2	R1525J
-1409.174	0.0	377212	STOP	n/a	n/a	n/a	n/a	-999	-1	[-999, -999, -999]	n/a	catFR1	2	R1525J
-1409.174	1.85	377220	DISTRACT_END	n/a	n/a	n/a	n/a	-999	-1	[0, 0, 0]	n/a	catFR1	2	R1525J
-1407.324	3.479	379070	REC_START	n/a	n/a	n/a	n/a	-999	-1	[0, 0, 0]	n/a	catFR1	2	R1525J
-1403.845	1.42	382541	REC_WORD	1.42	n/a	PAPER	OfficeSupplies	1	-1	[0, 0, 0]	n/a	catFR1	2	R1525J
-1402.425	1.6	383961	REC_WORD	1.6	n/a	NOTEBOOK	OfficeSupplies	7	-1	[0, 0, 0]	n/a	catFR1	2	R1525J
-1400.825	1.673	385561	REC_WORD	1.673	n/a	GLUE	OfficeSupplies	2	-1	[0, 0, 0]	n/a	catFR1	2	R1525J
-1399.152	1.883	387234	REC_WORD	1.883	n/a	MARIGOLD	Flowers	6	-1	[0, 0, 0]	n/a	catFR1	2	R1525J
-1397.269	1.493	389117	REC_WORD	1.493	n/a	TULIP	Flowers	9	-1	[0, 0, 0]	n/a	catFR1	2	R1525J
-1395.776	1.0	390609	REC_WORD	1.0	n/a	CARNATION	Flowers	5	-1	[0, 0, 0]	n/a	catFR1	2	R1525J
-1394.776	2.89	391609	REC_WORD_VV	2.89	n/a	<>	n/a	-999	-1	[0, 0, 0]	n/a	catFR1	2	R1525J
-1391.886	1.149	394499	REC_WORD	1.149	n/a	BULL	FarmAnimals	12	-1	[0, 0, 0]	n/a	catFR1	2	R1525J
-1390.737	1.669	395648	REC_WORD	1.669	n/a	CALF	FarmAnimals	11	-1	[0, 0, 0]	n/a	catFR1	2	R1525J
-1389.068	3.376	397317	REC_WORD	3.376	n/a	LAMB	FarmAnimals	4	-1	[0, 0, 0]	n/a	catFR1	2	R1525J
-1385.692	1.843	400693	REC_WORD_VV	1.843	n/a	<>	n/a	-999	-1	[0, 0, 0]	n/a	catFR1	2	R1525J
-1383.849	0.504	402536	REC_WORD_VV	0.504	n/a	<>	n/a	-999	-1	[0, 0, 0]	n/a	catFR1	2	R1525J
-1383.345	1.0	403040	REC_WORD	1.0	n/a	PETUNIA	Flowers	10	-1	[0, 0, 0]	n/a	catFR1	2	R1525J
-1382.345	2.418	404040	REC_WORD_VV	2.418	n/a	<>	n/a	-999	-1	[0, 0, 0]	n/a	catFR1	2	R1525J
-1379.927	1.0	406458	REC_WORD_VV	1.0	n/a	<>	n/a	-999	-1	[0, 0, 0]	n/a	catFR1	2	R1525J
-1378.927	1.449	407458	REC_WORD_VV	1.449	n/a	<>	n/a	-999	-1	[0, 0, 0]	n/a	catFR1	2	R1525J
-1377.478	0.332	408907	REC_WORD	0.332	n/a	GOAT	FarmAnimals	3	-1	[0, 0, 0]	n/a	catFR1	2	R1525J
-1377.146	21.49	409240	REC_END	n/a	n/a	n/a	n/a	-999	-1	[0, 0, 0]	n/a	catFR1	2	R1525J
-1355.656	10.35	430736	COUNTDOWN_START	n/a	n/a	n/a	n/a	-999	1	[0, 0, 0]	n/a	catFR1	2	R1525J
-1345.306	0.0	441081	COUNTDOWN_END	n/a	n/a	n/a	n/a	-999	1	[0, 0, 0]	n/a	catFR1	2	R1525J
-1345.306	1.95	441081	ENCODING_START	n/a	n/a	n/a	n/a	-999	1	[0, 0, 0]	n/a	catFR1	2	R1525J
-1343.356	1.6	443035	WORD	n/a	wordpools/wordpool_categorized_EN.txt	ZEBRA	Zoo	1	1	[0, 0, 0]	n/a	catFR1	2	R1525J
-1341.756	0.949	444632	WORD_OFF	n/a	n/a	ZEBRA	Zoo	1	1	[0, 0, 0]	n/a	catFR1	2	R1525J
-1340.807	1.617	445579	WORD	n/a	wordpools/wordpool_categorized_EN.txt	GIRAFFE	Zoo	2	1	[0, 0, 0]	n/a	catFR1	2	R1525J
-1339.19	0.834	447197	WORD_OFF	n/a	n/a	GIRAFFE	Zoo	2	1	[0, 0, 0]	n/a	catFR1	2	R1525J
-1338.356	1.6	448033	WORD	n/a	wordpools/wordpool_categorized_EN.txt	PLANE	Vehicles	3	1	[0, 0, 0]	n/a	catFR1	2	R1525J
-1336.756	0.966	449629	WORD_OFF	n/a	n/a	PLANE	Vehicles	3	1	[0, 0, 0]	n/a	catFR1	2	R1525J
-1335.79	1.618	450599	WORD	n/a	wordpools/wordpool_categorized_EN.txt	SCOOTER	Vehicles	4	1	[0, 0, 0]	n/a	catFR1	2	R1525J
-1334.172	0.983	452217	WORD_OFF	n/a	n/a	SCOOTER	Vehicles	4	1	[0, 0, 0]	n/a	catFR1	2	R1525J
-1333.189	1.6	453202	WORD	n/a	wordpools/wordpool_categorized_EN.txt	BEE	Insects	5	1	[0, 0, 0]	n/a	catFR1	2	R1525J
-1331.589	0.95	454798	WORD_OFF	n/a	n/a	BEE	Insects	5	1	[0, 0, 0]	n/a	catFR1	2	R1525J
-1330.639	1.616	455745	WORD	n/a	wordpools/wordpool_categorized_EN.txt	CRICKET	Insects	6	1	[0, 0, 0]	n/a	catFR1	2	R1525J
-1329.023	0.95	457364	WORD_OFF	n/a	n/a	CRICKET	Insects	6	1	[0, 0, 0]	n/a	catFR1	2	R1525J
-1328.073	1.616	458318	WORD	n/a	wordpools/wordpool_categorized_EN.txt	CHIMPANZEE	Zoo	7	1	[0, 0, 0]	n/a	catFR1	2	R1525J
-1326.457	0.951	459929	WORD_OFF	n/a	n/a	CHIMPANZEE	Zoo	7	1	[0, 0, 0]	n/a	catFR1	2	R1525J
-1325.506	1.6	460884	WORD	n/a	wordpools/wordpool_categorized_EN.txt	ORANGUTAN	Zoo	8	1	[0, 0, 0]	n/a	catFR1	2	R1525J
-1323.906	0.966	462480	WORD_OFF	n/a	n/a	ORANGUTAN	Zoo	8	1	[0, 0, 0]	n/a	catFR1	2	R1525J
-1322.94	1.601	463450	WORD	n/a	wordpools/wordpool_categorized_EN.txt	CAR	Vehicles	9	1	[0, 0, 0]	n/a	catFR1	2	R1525J
-1321.339	0.816	465046	WORD_OFF	n/a	n/a	CAR	Vehicles	9	1	[0, 0, 0]	n/a	catFR1	2	R1525J
-1320.523	1.616	465866	WORD	n/a	wordpools/wordpool_categorized_EN.txt	BUS	Vehicles	10	1	[0, 0, 0]	n/a	catFR1	2	R1525J
-1318.907	0.8	467477	WORD_OFF	n/a	n/a	BUS	Vehicles	10	1	[0, 0, 0]	n/a	catFR1	2	R1525J
-1318.107	1.6	468283	WORD	n/a	wordpools/wordpool_categorized_EN.txt	GNAT	Insects	11	1	[0, 0, 0]	n/a	catFR1	2	R1525J
-1316.507	0.783	469879	WORD_OFF	n/a	n/a	GNAT	Insects	11	1	[0, 0, 0]	n/a	catFR1	2	R1525J
-1315.724	1.618	470662	WORD	n/a	wordpools/wordpool_categorized_EN.txt	SPIDER	Insects	12	1	[0, 0, 0]	n/a	catFR1	2	R1525J
-1314.106	0.0	472276	START	n/a	n/a	n/a	n/a	-999	1	[-999, -999, -999]	n/a	catFR1	2	R1525J
-1314.106	0.0	472276	PROB	0.0	n/a	n/a	n/a	-999	1	[7, 5, 4]	16	catFR1	2	R1525J
-1314.107	0.001	472281	WORD_OFF	n/a	n/a	SPIDER	Insects	12	1	[0, 0, 0]	n/a	catFR1	2	R1525J
-1314.106	0.0	472281	ENCODING_END	n/a	n/a	n/a	n/a	-999	1	[0, 0, 0]	n/a	catFR1	2	R1525J
-1314.106	6.517	472281	DISTRACT_START	n/a	n/a	n/a	n/a	-999	1	[0, 0, 0]	n/a	catFR1	2	R1525J
-1307.589	3.851	478793	PROB	3.851	n/a	n/a	n/a	-999	1	[2, 3, 6]	11	catFR1	2	R1525J
-1303.738	7.665	482644	PROB	7.665	n/a	n/a	n/a	-999	1	[1, 7, 6]	13	catFR1	2	R1525J
-1296.073	4.618	490308	PROB	4.618	n/a	n/a	n/a	-999	1	[4, 2, 2]	8	catFR1	2	R1525J
-1291.455	0.0	494926	STOP	n/a	n/a	n/a	n/a	-999	1	[-999, -999, -999]	n/a	catFR1	2	R1525J
-1291.455	1.765	494933	DISTRACT_END	n/a	n/a	n/a	n/a	-999	1	[0, 0, 0]	n/a	catFR1	2	R1525J
-1289.69	3.601	496693	REC_START	n/a	n/a	n/a	n/a	-999	1	[0, 0, 0]	n/a	catFR1	2	R1525J
-1286.089	1.0	500292	REC_WORD_VV	1.0	n/a	<>	n/a	-999	1	[0, 0, 0]	n/a	catFR1	2	R1525J
-1285.089	1.0	501292	REC_WORD_VV	1.0	n/a	<>	n/a	-999	1	[0, 0, 0]	n/a	catFR1	2	R1525J
-1284.089	1.0	502292	REC_WORD_VV	1.0	n/a	<>	n/a	-999	1	[0, 0, 0]	n/a	catFR1	2	R1525J
-1283.089	1.0	503292	REC_WORD_VV	1.0	n/a	<>	n/a	-999	1	[0, 0, 0]	n/a	catFR1	2	R1525J
-1282.089	2.916	504292	REC_WORD_VV	2.916	n/a	<>	n/a	-999	1	[0, 0, 0]	n/a	catFR1	2	R1525J
-1279.173	1.403	507208	REC_WORD_VV	1.403	n/a	<>	n/a	-999	1	[0, 0, 0]	n/a	catFR1	2	R1525J
-1277.77	1.68	508611	REC_WORD	1.68	n/a	PLANE	Vehicles	3	1	[0, 0, 0]	n/a	catFR1	2	R1525J
-1276.09	1.449	510291	REC_WORD	1.449	n/a	CAR	Vehicles	9	1	[0, 0, 0]	n/a	catFR1	2	R1525J
-1274.641	1.0	511740	REC_WORD	1.0	n/a	CHIMPANZEE	Zoo	7	1	[0, 0, 0]	n/a	catFR1	2	R1525J
-1273.641	0.383	512740	REC_WORD_VV	0.383	n/a	<>	n/a	-999	1	[0, 0, 0]	n/a	catFR1	2	R1525J
-1273.258	1.479	513123	REC_WORD	1.479	n/a	ZEBRA	Zoo	1	1	[0, 0, 0]	n/a	catFR1	2	R1525J
-1271.779	1.0	514601	REC_WORD	1.0	n/a	GIRAFFE	Zoo	2	1	[0, 0, 0]	n/a	catFR1	2	R1525J
-1270.779	1.345	515601	REC_WORD_VV	1.345	n/a	<>	n/a	-999	1	[0, 0, 0]	n/a	catFR1	2	R1525J
-1269.434	2.935	516946	REC_WORD_VV	2.935	n/a	<>	n/a	-999	1	[0, 0, 0]	n/a	catFR1	2	R1525J
-1266.499	1.0	519881	REC_WORD_VV	1.0	n/a	<>	n/a	-999	1	[0, 0, 0]	n/a	catFR1	2	R1525J
-1265.499	1.0	520881	REC_WORD_VV	1.0	n/a	<>	n/a	-999	1	[0, 0, 0]	n/a	catFR1	2	R1525J
-1264.499	1.18	521881	REC_WORD_VV	1.18	n/a	<>	n/a	-999	1	[0, 0, 0]	n/a	catFR1	2	R1525J
-1263.319	3.249	523061	REC_WORD_VV	3.249	n/a	<>	n/a	-999	1	[0, 0, 0]	n/a	catFR1	2	R1525J
-1260.07	0.545	526310	REC_WORD_VV	0.545	n/a	<>	n/a	-999	1	[0, 0, 0]	n/a	catFR1	2	R1525J
-1259.525	2.386	526863	REC_END	n/a	n/a	n/a	n/a	-999	1	[0, 0, 0]	n/a	catFR1	2	R1525J
-1257.139	10.351	529250	COUNTDOWN_START	n/a	n/a	n/a	n/a	-999	1	[0, 0, 0]	n/a	catFR1	2	R1525J
-1246.788	0.0	539595	COUNTDOWN_END	n/a	n/a	n/a	n/a	-999	1	[0, 0, 0]	n/a	catFR1	2	R1525J
-1246.788	2.1	539595	ENCODING_START	n/a	n/a	n/a	n/a	-999	2	[0, 0, 0]	n/a	catFR1	2	R1525J
-1244.688	1.617	541698	WORD	n/a	wordpools/wordpool_categorized_EN.txt	MOUSSE	Desserts	1	2	[0, 0, 0]	n/a	catFR1	2	R1525J
-1243.071	0.866	543309	WORD_OFF	n/a	n/a	MOUSSE	Desserts	1	2	[0, 0, 0]	n/a	catFR1	2	R1525J
-1242.205	1.6	544182	WORD	n/a	wordpools/wordpool_categorized_EN.txt	CUPCAKE	Desserts	2	2	[0, 0, 0]	n/a	catFR1	2	R1525J
-1240.605	0.95	545778	WORD_OFF	n/a	n/a	CUPCAKE	Desserts	2	2	[0, 0, 0]	n/a	catFR1	2	R1525J
-1239.655	1.617	546725	WORD	n/a	wordpools/wordpool_categorized_EN.txt	SPRUCE	Trees	3	2	[0, 0, 0]	n/a	catFR1	2	R1525J
-1238.038	0.85	548344	WORD_OFF	n/a	n/a	SPRUCE	Trees	3	2	[0, 0, 0]	n/a	catFR1	2	R1525J
-1237.188	1.599	549194	WORD	n/a	wordpools/wordpool_categorized_EN.txt	CYPRESS	Trees	4	2	[0, 0, 0]	n/a	catFR1	2	R1525J
-1235.589	0.934	550798	WORD_OFF	n/a	n/a	CYPRESS	Trees	4	2	[0, 0, 0]	n/a	catFR1	2	R1525J
-1234.655	1.6	551730	WORD	n/a	wordpools/wordpool_categorized_EN.txt	STREAM	Landscapes	5	2	[0, 0, 0]	n/a	catFR1	2	R1525J
-1233.055	0.834	553326	WORD_OFF	n/a	n/a	STREAM	Landscapes	5	2	[0, 0, 0]	n/a	catFR1	2	R1525J
-1232.221	1.6	554162	WORD	n/a	wordpools/wordpool_categorized_EN.txt	WOODS	Landscapes	6	2	[0, 0, 0]	n/a	catFR1	2	R1525J
-1230.621	0.833	555765	WORD_OFF	n/a	n/a	WOODS	Landscapes	6	2	[0, 0, 0]	n/a	catFR1	2	R1525J
-1229.788	1.615	556593	WORD	n/a	wordpools/wordpool_categorized_EN.txt	WILLOW	Trees	7	2	[0, 0, 0]	n/a	catFR1	2	R1525J
-1228.173	1.001	558212	WORD_OFF	n/a	n/a	WILLOW	Trees	7	2	[0, 0, 0]	n/a	catFR1	2	R1525J
-1227.172	1.617	559211	WORD	n/a	wordpools/wordpool_categorized_EN.txt	HICKORY	Trees	8	2	[0, 0, 0]	n/a	catFR1	2	R1525J
-1225.555	0.982	560830	WORD_OFF	n/a	n/a	HICKORY	Trees	8	2	[0, 0, 0]	n/a	catFR1	2	R1525J
-1224.573	1.618	561814	WORD	n/a	wordpools/wordpool_categorized_EN.txt	PASTRY	Desserts	9	2	[0, 0, 0]	n/a	catFR1	2	R1525J
-1222.955	0.8	563425	WORD_OFF	n/a	n/a	PASTRY	Desserts	9	2	[0, 0, 0]	n/a	catFR1	2	R1525J
-1222.155	1.617	564231	WORD	n/a	wordpools/wordpool_categorized_EN.txt	COBBLER	Desserts	10	2	[0, 0, 0]	n/a	catFR1	2	R1525J
-1220.538	0.816	565842	WORD_OFF	n/a	n/a	COBBLER	Desserts	10	2	[0, 0, 0]	n/a	catFR1	2	R1525J
-1219.722	1.617	566662	WORD	n/a	wordpools/wordpool_categorized_EN.txt	LAKE	Landscapes	11	2	[0, 0, 0]	n/a	catFR1	2	R1525J
-1218.105	0.915	568281	WORD_OFF	n/a	n/a	LAKE	Landscapes	11	2	[0, 0, 0]	n/a	catFR1	2	R1525J
-1217.19	1.602	569191	WORD	n/a	wordpools/wordpool_categorized_EN.txt	FOREST	Landscapes	12	2	[0, 0, 0]	n/a	catFR1	2	R1525J
-1215.588	0.001	570790	PROB	0.001	n/a	n/a	n/a	-999	2	[8, 7, 6]	21	catFR1	2	R1525J
-1215.587	0.0	570791	START	n/a	n/a	n/a	n/a	-999	2	[-999, -999, -999]	n/a	catFR1	2	R1525J
-1215.589	0.002	570795	WORD_OFF	n/a	n/a	FOREST	Landscapes	12	2	[0, 0, 0]	n/a	catFR1	2	R1525J
-1215.587	0.0	570795	ENCODING_END	n/a	n/a	n/a	n/a	-999	2	[0, 0, 0]	n/a	catFR1	2	R1525J
-1215.587	8.099	570795	DISTRACT_START	n/a	n/a	n/a	n/a	-999	2	[0, 0, 0]	n/a	catFR1	2	R1525J
-1207.488	6.35	578890	PROB	6.35	n/a	n/a	n/a	-999	2	[6, 6, 8]	20	catFR1	2	R1525J
-1201.138	5.832	585240	PROB	5.832	n/a	n/a	n/a	-999	2	[2, 6, 7]	15	catFR1	2	R1525J
-1195.306	0.0	591071	STOP	n/a	n/a	n/a	n/a	-999	2	[-999, -999, -999]	n/a	catFR1	2	R1525J
-1195.306	1.65	591075	DISTRACT_END	n/a	n/a	n/a	n/a	-999	2	[0, 0, 0]	n/a	catFR1	2	R1525J
-1193.656	1.459	592723	REC_START	n/a	n/a	n/a	n/a	-999	2	[0, 0, 0]	n/a	catFR1	2	R1525J
-1192.197	1.104	594180	REC_WORD	1.104	n/a	HICKORY	Trees	8	2	[0, 0, 0]	n/a	catFR1	2	R1525J
-1191.093	1.0	595284	REC_WORD	1.0	n/a	CYPRESS	Trees	4	2	[0, 0, 0]	n/a	catFR1	2	R1525J
-1190.093	0.695	596284	REC_WORD_VV	0.695	n/a	<>	n/a	-999	2	[0, 0, 0]	n/a	catFR1	2	R1525J
-1189.398	1.49	596979	REC_WORD	1.49	n/a	WILLOW	Trees	7	2	[0, 0, 0]	n/a	catFR1	2	R1525J
-1187.908	1.082	598469	REC_WORD	1.082	n/a	LAKE	Landscapes	11	2	[0, 0, 0]	n/a	catFR1	2	R1525J
-1186.826	1.803	599551	REC_WORD	1.803	n/a	STREAM	Landscapes	5	2	[0, 0, 0]	n/a	catFR1	2	R1525J
-1185.023	1.0	601354	REC_WORD	1.0	n/a	MOUSSE	Desserts	1	2	[0, 0, 0]	n/a	catFR1	2	R1525J
-1184.023	1.792	602354	REC_WORD_VV	1.792	n/a	<>	n/a	-999	2	[0, 0, 0]	n/a	catFR1	2	R1525J
-1182.231	1.0	604146	REC_WORD_VV	1.0	n/a	<>	n/a	-999	2	[0, 0, 0]	n/a	catFR1	2	R1525J
-1181.231	1.262	605146	REC_WORD_VV	1.262	n/a	<>	n/a	-999	2	[0, 0, 0]	n/a	catFR1	2	R1525J
-1179.969	1.0	606408	REC_WORD	1.0	n/a	GNAT	Insects	-999	2	[0, 0, 0]	n/a	catFR1	2	R1525J
-1178.969	1.35	607408	REC_WORD_VV	1.35	n/a	<>	n/a	-999	2	[0, 0, 0]	n/a	catFR1	2	R1525J
-1177.619	1.0	608758	REC_WORD_VV	1.0	n/a	<>	n/a	-999	2	[0, 0, 0]	n/a	catFR1	2	R1525J
-1176.619	1.0	609758	REC_WORD_VV	1.0	n/a	<>	n/a	-999	2	[0, 0, 0]	n/a	catFR1	2	R1525J
-1175.619	1.0	610758	REC_WORD_VV	1.0	n/a	<>	n/a	-999	2	[0, 0, 0]	n/a	catFR1	2	R1525J
-1174.619	1.413	611758	REC_WORD_VV	1.413	n/a	<>	n/a	-999	2	[0, 0, 0]	n/a	catFR1	2	R1525J
-1173.206	2.33	613170	REC_WORD_VV	2.33	n/a	<>	n/a	-999	2	[0, 0, 0]	n/a	catFR1	2	R1525J
-1170.876	5.345	615500	REC_WORD	5.345	n/a	PUDDING	n/a	-999	2	[0, 0, 0]	n/a	catFR1	2	R1525J
-1165.531	1.0	620845	REC_WORD_VV	1.0	n/a	<>	n/a	-999	2	[0, 0, 0]	n/a	catFR1	2	R1525J
-1164.531	1.05	621845	REC_WORD_VV	1.05	n/a	<>	n/a	-999	2	[0, 0, 0]	n/a	catFR1	2	R1525J
-1163.481	1.909	622901	REC_END	n/a	n/a	n/a	n/a	-999	2	[0, 0, 0]	n/a	catFR1	2	R1525J
-1161.572	10.35	624810	COUNTDOWN_START	n/a	n/a	n/a	n/a	-999	2	[0, 0, 0]	n/a	catFR1	2	R1525J
-1151.222	0.001	635155	COUNTDOWN_END	n/a	n/a	n/a	n/a	-999	2	[0, 0, 0]	n/a	catFR1	2	R1525J
-1151.221	2.283	635163	ENCODING_START	n/a	n/a	n/a	n/a	-999	3	[0, 0, 0]	n/a	catFR1	2	R1525J
-1148.938	1.616	637445	WORD	n/a	wordpools/wordpool_categorized_EN.txt	LEG	BodyParts	1	3	[0, 0, 0]	n/a	catFR1	2	R1525J
-1147.322	0.901	639056	WORD_OFF	n/a	n/a	LEG	BodyParts	1	3	[0, 0, 0]	n/a	catFR1	2	R1525J
-1146.421	1.616	639959	WORD	n/a	wordpools/wordpool_categorized_EN.txt	NOSE	BodyParts	2	3	[0, 0, 0]	n/a	catFR1	2	R1525J
-1144.805	0.884	641577	WORD_OFF	n/a	n/a	NOSE	BodyParts	2	3	[0, 0, 0]	n/a	catFR1	2	R1525J
-1143.921	1.616	642457	WORD	n/a	wordpools/wordpool_categorized_EN.txt	WRENCH	Tools	3	3	[0, 0, 0]	n/a	catFR1	2	R1525J
-1142.305	0.9	644076	WORD_OFF	n/a	n/a	WRENCH	Tools	3	3	[0, 0, 0]	n/a	catFR1	2	R1525J
-1141.405	1.617	644978	WORD	n/a	wordpools/wordpool_categorized_EN.txt	CROWBAR	Tools	4	3	[0, 0, 0]	n/a	catFR1	2	R1525J
-1139.788	0.766	646589	WORD_OFF	n/a	n/a	CROWBAR	Tools	4	3	[0, 0, 0]	n/a	catFR1	2	R1525J
-1139.022	1.617	647358	WORD	n/a	wordpools/wordpool_categorized_EN.txt	SPOON	KitchenTools	5	3	[0, 0, 0]	n/a	catFR1	2	R1525J
-1137.405	0.849	648984	WORD_OFF	n/a	n/a	SPOON	KitchenTools	5	3	[0, 0, 0]	n/a	catFR1	2	R1525J
-1136.556	1.601	649826	WORD	n/a	wordpools/wordpool_categorized_EN.txt	CORKSCREW	KitchenTools	6	3	[0, 0, 0]	n/a	catFR1	2	R1525J
-1134.955	0.883	651422	WORD_OFF	n/a	n/a	CORKSCREW	KitchenTools	6	3	[0, 0, 0]	n/a	catFR1	2	R1525J
-1134.072	1.618	652310	WORD	n/a	wordpools/wordpool_categorized_EN.txt	SHOVEL	Tools	7	3	[0, 0, 0]	n/a	catFR1	2	R1525J
-1132.454	0.982	653929	WORD_OFF	n/a	n/a	SHOVEL	Tools	7	3	[0, 0, 0]	n/a	catFR1	2	R1525J
-1131.472	1.617	654906	WORD	n/a	wordpools/wordpool_categorized_EN.txt	SANDER	Tools	8	3	[0, 0, 0]	n/a	catFR1	2	R1525J
-1129.855	0.967	656524	WORD_OFF	n/a	n/a	SANDER	Tools	8	3	[0, 0, 0]	n/a	catFR1	2	R1525J
-1128.888	1.6	657494	WORD	n/a	wordpools/wordpool_categorized_EN.txt	EYE	BodyParts	9	3	[0, 0, 0]	n/a	catFR1	2	R1525J
-1127.288	0.932	659090	WORD_OFF	n/a	n/a	EYE	BodyParts	9	3	[0, 0, 0]	n/a	catFR1	2	R1525J
-1126.356	1.601	660022	WORD	n/a	wordpools/wordpool_categorized_EN.txt	KNEE	BodyParts	10	3	[0, 0, 0]	n/a	catFR1	2	R1525J
-1124.755	0.865	661626	WORD_OFF	n/a	n/a	KNEE	BodyParts	10	3	[0, 0, 0]	n/a	catFR1	2	R1525J
-1123.89	1.601	662491	WORD	n/a	wordpools/wordpool_categorized_EN.txt	GRATER	KitchenTools	11	3	[0, 0, 0]	n/a	catFR1	2	R1525J
-1122.289	0.917	664087	WORD_OFF	n/a	n/a	GRATER	KitchenTools	11	3	[0, 0, 0]	n/a	catFR1	2	R1525J
-1121.372	1.616	665005	WORD	n/a	wordpools/wordpool_categorized_EN.txt	SPATULA	KitchenTools	12	3	[0, 0, 0]	n/a	catFR1	2	R1525J
-1119.756	0.001	666618	PROB	0.001	n/a	n/a	n/a	-999	3	[2, 7, 2]	11	catFR1	2	R1525J
-1119.755	0.0	666619	START	n/a	n/a	n/a	n/a	-999	3	[-999, -999, -999]	n/a	catFR1	2	R1525J
-1119.756	0.001	666623	WORD_OFF	n/a	n/a	SPATULA	KitchenTools	12	3	[0, 0, 0]	n/a	catFR1	2	R1525J
-1119.755	0.0	666623	ENCODING_END	n/a	n/a	n/a	n/a	-999	3	[0, 0, 0]	n/a	catFR1	2	R1525J
-1119.755	4.649	666630	DISTRACT_START	n/a	n/a	n/a	n/a	-999	3	[0, 0, 0]	n/a	catFR1	2	R1525J
-1115.106	3.102	671268	PROB	3.102	n/a	n/a	n/a	-999	3	[4, 4, 1]	9	catFR1	2	R1525J
-1112.004	5.132	674370	PROB	5.132	n/a	n/a	n/a	-999	3	[3, 4, 3]	10	catFR1	2	R1525J
-1106.872	4.934	679502	PROB	4.934	n/a	n/a	n/a	-999	3	[5, 3, 4]	12	catFR1	2	R1525J
-1101.938	5.066	684436	PROB	5.066	n/a	n/a	n/a	-999	3	[3, 1, 4]	8	catFR1	2	R1525J
-1096.872	0.0	689501	STOP	n/a	n/a	n/a	n/a	-999	3	[-999, -999, -999]	n/a	catFR1	2	R1525J
-1096.872	1.915	689506	DISTRACT_END	n/a	n/a	n/a	n/a	-999	3	[0, 0, 0]	n/a	catFR1	2	R1525J
-1094.957	2.055	691423	REC_START	n/a	n/a	n/a	n/a	-999	3	[0, 0, 0]	n/a	catFR1	2	R1525J
-1092.902	1.224	693471	REC_WORD	1.224	n/a	SPATULA	KitchenTools	12	3	[0, 0, 0]	n/a	catFR1	2	R1525J
-1091.678	1.92	694695	REC_WORD	1.92	n/a	SPOON	KitchenTools	5	3	[0, 0, 0]	n/a	catFR1	2	R1525J
-1089.758	1.0	696615	REC_WORD	1.0	n/a	CORKSCREW	KitchenTools	6	3	[0, 0, 0]	n/a	catFR1	2	R1525J
-1088.758	2.055	697615	REC_WORD_VV	2.055	n/a	<>	n/a	-999	3	[0, 0, 0]	n/a	catFR1	2	R1525J
-1086.703	1.574	699670	REC_WORD	1.574	n/a	EYE	BodyParts	9	3	[0, 0, 0]	n/a	catFR1	2	R1525J
-1085.129	1.507	701244	REC_WORD	1.507	n/a	ARM	n/a	-999	3	[0, 0, 0]	n/a	catFR1	2	R1525J
-1083.622	1.629	702751	REC_WORD	1.629	n/a	LEG	BodyParts	1	3	[0, 0, 0]	n/a	catFR1	2	R1525J
-1081.993	1.0	704380	REC_WORD	1.0	n/a	SHOVEL	Tools	7	3	[0, 0, 0]	n/a	catFR1	2	R1525J
-1080.993	0.861	705380	REC_WORD_VV	0.861	n/a	<>	n/a	-999	3	[0, 0, 0]	n/a	catFR1	2	R1525J
-1080.132	1.0	706241	REC_WORD	1.0	n/a	SANDER	Tools	8	3	[0, 0, 0]	n/a	catFR1	2	R1525J
-1079.132	1.693	707241	REC_WORD_VV	1.693	n/a	<>	n/a	-999	3	[0, 0, 0]	n/a	catFR1	2	R1525J
-1077.439	5.33	708934	REC_WORD_VV	5.33	n/a	<>	n/a	-999	3	[0, 0, 0]	n/a	catFR1	2	R1525J
-1072.109	1.0	714263	REC_WORD_VV	1.0	n/a	<>	n/a	-999	3	[0, 0, 0]	n/a	catFR1	2	R1525J
-1071.109	0.333	715263	REC_WORD_VV	0.333	n/a	<>	n/a	-999	3	[0, 0, 0]	n/a	catFR1	2	R1525J
-1070.776	2.91	715596	REC_WORD	2.91	n/a	SPOON	KitchenTools	5	3	[0, 0, 0]	n/a	catFR1	2	R1525J
-1067.866	3.116	718506	REC_WORD_VV	3.116	n/a	<>	n/a	-999	3	[0, 0, 0]	n/a	catFR1	2	R1525J
-1064.75	1.862	721623	REC_END	n/a	n/a	n/a	n/a	-999	3	[0, 0, 0]	n/a	catFR1	2	R1525J
-1062.888	10.35	723488	COUNTDOWN_START	n/a	n/a	n/a	n/a	-999	3	[0, 0, 0]	n/a	catFR1	2	R1525J
-1052.538	0.0	733840	COUNTDOWN_END	n/a	n/a	n/a	n/a	-999	3	[0, 0, 0]	n/a	catFR1	2	R1525J
-1052.538	1.999	733840	ENCODING_START	n/a	n/a	n/a	n/a	-999	4	[0, 0, 0]	n/a	catFR1	2	R1525J
-1050.539	1.601	735839	WORD	n/a	wordpools/wordpool_categorized_EN.txt	DUCK	Birds	1	4	[0, 0, 0]	n/a	catFR1	2	R1525J
-1048.938	0.799	737436	WORD_OFF	n/a	n/a	DUCK	Birds	1	4	[0, 0, 0]	n/a	catFR1	2	R1525J
-1048.139	1.601	738234	WORD	n/a	wordpools/wordpool_categorized_EN.txt	FINCH	Birds	2	4	[0, 0, 0]	n/a	catFR1	2	R1525J
-1046.538	0.867	739837	WORD_OFF	n/a	n/a	FINCH	Birds	2	4	[0, 0, 0]	n/a	catFR1	2	R1525J
-1045.671	1.6	740702	WORD	n/a	wordpools/wordpool_categorized_EN.txt	VIOLIN	Instruments	3	4	[0, 0, 0]	n/a	catFR1	2	R1525J
-1044.071	0.899	742306	WORD_OFF	n/a	n/a	VIOLIN	Instruments	3	4	[0, 0, 0]	n/a	catFR1	2	R1525J
-1043.172	1.601	743201	WORD	n/a	wordpools/wordpool_categorized_EN.txt	TUBA	Instruments	4	4	[0, 0, 0]	n/a	catFR1	2	R1525J
-1041.571	0.866	744805	WORD_OFF	n/a	n/a	TUBA	Instruments	4	4	[0, 0, 0]	n/a	catFR1	2	R1525J
-1040.705	1.617	745670	WORD	n/a	wordpools/wordpool_categorized_EN.txt	CHEETAH	Zoo	5	4	[0, 0, 0]	n/a	catFR1	2	R1525J
-1039.088	0.849	747288	WORD_OFF	n/a	n/a	CHEETAH	Zoo	5	4	[0, 0, 0]	n/a	catFR1	2	R1525J
-1038.239	1.601	748139	WORD	n/a	wordpools/wordpool_categorized_EN.txt	BEAR	Zoo	6	4	[0, 0, 0]	n/a	catFR1	2	R1525J
-1036.638	1.0	749735	WORD_OFF	n/a	n/a	BEAR	Zoo	6	4	[0, 0, 0]	n/a	catFR1	2	R1525J
-1035.638	1.616	750734	WORD	n/a	wordpools/wordpool_categorized_EN.txt	CARDINAL	Birds	7	4	[0, 0, 0]	n/a	catFR1	2	R1525J
-1034.022	0.884	752353	WORD_OFF	n/a	n/a	CARDINAL	Birds	7	4	[0, 0, 0]	n/a	catFR1	2	R1525J
-1033.138	1.6	753240	WORD	n/a	wordpools/wordpool_categorized_EN.txt	GOOSE	Birds	8	4	[0, 0, 0]	n/a	catFR1	2	R1525J
-1031.538	0.949	754837	WORD_OFF	n/a	n/a	GOOSE	Birds	8	4	[0, 0, 0]	n/a	catFR1	2	R1525J
-1030.589	1.617	755784	WORD	n/a	wordpools/wordpool_categorized_EN.txt	PIANO	Instruments	9	4	[0, 0, 0]	n/a	catFR1	2	R1525J
-1028.972	0.95	757402	WORD_OFF	n/a	n/a	PIANO	Instruments	9	4	[0, 0, 0]	n/a	catFR1	2	R1525J
-1028.022	1.6	758350	WORD	n/a	wordpools/wordpool_categorized_EN.txt	FLUTE	Instruments	10	4	[0, 0, 0]	n/a	catFR1	2	R1525J
-1026.422	0.884	759953	WORD_OFF	n/a	n/a	FLUTE	Instruments	10	4	[0, 0, 0]	n/a	catFR1	2	R1525J
-1025.538	1.616	760833	WORD	n/a	wordpools/wordpool_categorized_EN.txt	MONKEY	Zoo	11	4	[0, 0, 0]	n/a	catFR1	2	R1525J
-1023.922	0.9	762452	WORD_OFF	n/a	n/a	MONKEY	Zoo	11	4	[0, 0, 0]	n/a	catFR1	2	R1525J
-1023.022	1.616	763354	WORD	n/a	wordpools/wordpool_categorized_EN.txt	GORILLA	Zoo	12	4	[0, 0, 0]	n/a	catFR1	2	R1525J
-1021.406	0.001	764965	WORD_OFF	n/a	n/a	GORILLA	Zoo	12	4	[0, 0, 0]	n/a	catFR1	2	R1525J
-1021.405	0.0	764965	START	n/a	n/a	n/a	n/a	-999	4	[-999, -999, -999]	n/a	catFR1	2	R1525J
-1021.405	0.0	764965	PROB	0.0	n/a	n/a	n/a	-999	4	[7, 8, 8]	23	catFR1	2	R1525J
-1021.405	0.0	764973	ENCODING_END	n/a	n/a	n/a	n/a	-999	4	[0, 0, 0]	n/a	catFR1	2	R1525J
-1021.405	6.233	764973	DISTRACT_START	n/a	n/a	n/a	n/a	-999	4	[0, 0, 0]	n/a	catFR1	2	R1525J
-1015.172	3.217	771198	PROB	3.217	n/a	n/a	n/a	-999	4	[1, 3, 2]	6	catFR1	2	R1525J
-1011.955	4.902	774415	PROB	4.902	n/a	n/a	n/a	-999	4	[1, 8, 7]	16	catFR1	2	R1525J
-1007.053	2.448	779317	PROB	2.448	n/a	n/a	n/a	-999	4	[2, 5, 4]	11	catFR1	2	R1525J
-1004.605	2.449	781765	PROB	2.449	n/a	n/a	n/a	-999	4	[2, 5, 4]	11	catFR1	2	R1525J
-1002.156	5.917	784214	PROB	5.917	n/a	n/a	n/a	-999	4	[7, 1, 4]	12	catFR1	2	R1525J
-996.239	0.0	790130	STOP	n/a	n/a	n/a	n/a	-999	4	[-999, -999, -999]	n/a	catFR1	2	R1525J
-996.239	1.766	790138	DISTRACT_END	n/a	n/a	n/a	n/a	-999	4	[0, 0, 0]	n/a	catFR1	2	R1525J
-994.473	1.648	791899	REC_START	n/a	n/a	n/a	n/a	-999	4	[0, 0, 0]	n/a	catFR1	2	R1525J
-992.825	1.368	793544	REC_WORD	1.368	n/a	VIOLIN	Instruments	3	4	[0, 0, 0]	n/a	catFR1	2	R1525J
-991.457	1.13	794912	REC_WORD	1.13	n/a	PIANO	Instruments	9	4	[0, 0, 0]	n/a	catFR1	2	R1525J
-990.327	1.389	796042	REC_WORD	1.389	n/a	TUBA	Instruments	4	4	[0, 0, 0]	n/a	catFR1	2	R1525J
-988.938	2.472	797431	REC_WORD	2.472	n/a	FLUTE	Instruments	10	4	[0, 0, 0]	n/a	catFR1	2	R1525J
-986.466	2.403	799903	REC_WORD	2.403	n/a	CHEETAH	Zoo	5	4	[0, 0, 0]	n/a	catFR1	2	R1525J
-984.063	1.0	802306	REC_WORD_VV	1.0	n/a	<>	n/a	-999	4	[0, 0, 0]	n/a	catFR1	2	R1525J
-983.063	0.46	803306	REC_WORD_VV	0.46	n/a	<>	n/a	-999	4	[0, 0, 0]	n/a	catFR1	2	R1525J
-982.603	7.13	803766	REC_WORD	7.13	n/a	ZEBRA	Zoo	-999	4	[0, 0, 0]	n/a	catFR1	2	R1525J
-975.473	0.768	810895	REC_WORD_VV	0.768	n/a	<>	n/a	-999	4	[0, 0, 0]	n/a	catFR1	2	R1525J
-974.705	2.767	811663	REC_WORD	2.767	n/a	TUBA	Instruments	4	4	[0, 0, 0]	n/a	catFR1	2	R1525J
-971.938	7.673	814430	REC_WORD_VV	7.673	n/a	<>	n/a	-999	4	[0, 0, 0]	n/a	catFR1	2	R1525J
-964.265	10.845	822106	REC_END	n/a	n/a	n/a	n/a	-999	4	[0, 0, 0]	n/a	catFR1	2	R1525J
-953.42	10.348	832951	COUNTDOWN_START	n/a	n/a	n/a	n/a	-999	4	[0, 0, 0]	n/a	catFR1	2	R1525J
-943.072	0.0	843304	COUNTDOWN_END	n/a	n/a	n/a	n/a	-999	4	[0, 0, 0]	n/a	catFR1	2	R1525J
-943.072	1.918	843304	ENCODING_START	n/a	n/a	n/a	n/a	-999	5	[0, 0, 0]	n/a	catFR1	2	R1525J
-941.154	1.616	845220	WORD	n/a	wordpools/wordpool_categorized_EN.txt	VAN	Vehicles	1	5	[0, 0, 0]	n/a	catFR1	2	R1525J
-939.538	0.916	846831	WORD_OFF	n/a	n/a	VAN	Vehicles	1	5	[0, 0, 0]	n/a	catFR1	2	R1525J
-938.622	1.617	847749	WORD	n/a	wordpools/wordpool_categorized_EN.txt	TRUCK	Vehicles	2	5	[0, 0, 0]	n/a	catFR1	2	R1525J
-937.005	0.85	849367	WORD_OFF	n/a	n/a	TRUCK	Vehicles	2	5	[0, 0, 0]	n/a	catFR1	2	R1525J
-936.155	1.6	850218	WORD	n/a	wordpools/wordpool_categorized_EN.txt	LILAC	Flowers	3	5	[0, 0, 0]	n/a	catFR1	2	R1525J
-934.555	0.833	851814	WORD_OFF	n/a	n/a	LILAC	Flowers	3	5	[0, 0, 0]	n/a	catFR1	2	R1525J
-933.722	1.617	852649	WORD	n/a	wordpools/wordpool_categorized_EN.txt	LILY	Flowers	4	5	[0, 0, 0]	n/a	catFR1	2	R1525J
-932.105	0.817	854327	WORD_OFF	n/a	n/a	LILY	Flowers	4	5	[0, 0, 0]	n/a	catFR1	2	R1525J
-931.288	1.599	855081	WORD	n/a	wordpools/wordpool_categorized_EN.txt	BASEBALL	Toys	5	5	[0, 0, 0]	n/a	catFR1	2	R1525J
-929.689	0.951	856684	WORD_OFF	n/a	n/a	BASEBALL	Toys	5	5	[0, 0, 0]	n/a	catFR1	2	R1525J
-928.738	1.615	857632	WORD	n/a	wordpools/wordpool_categorized_EN.txt	BLOCKS	Toys	6	5	[0, 0, 0]	n/a	catFR1	2	R1525J
-927.123	0.817	859250	WORD_OFF	n/a	n/a	BLOCKS	Toys	6	5	[0, 0, 0]	n/a	catFR1	2	R1525J
-926.306	1.617	860063	WORD	n/a	wordpools/wordpool_categorized_EN.txt	SUNFLOWER	Flowers	7	5	[0, 0, 0]	n/a	catFR1	2	R1525J
-924.689	1.0	861682	WORD_OFF	n/a	n/a	SUNFLOWER	Flowers	7	5	[0, 0, 0]	n/a	catFR1	2	R1525J
-923.689	1.616	862681	WORD	n/a	wordpools/wordpool_categorized_EN.txt	VIOLET	Flowers	8	5	[0, 0, 0]	n/a	catFR1	2	R1525J
-922.073	0.999	864300	WORD_OFF	n/a	n/a	VIOLET	Flowers	8	5	[0, 0, 0]	n/a	catFR1	2	R1525J
-921.074	1.6	865299	WORD	n/a	wordpools/wordpool_categorized_EN.txt	MOTORCYCLE	Vehicles	9	5	[0, 0, 0]	n/a	catFR1	2	R1525J
-919.474	0.786	866895	WORD_OFF	n/a	n/a	MOTORCYCLE	Vehicles	9	5	[0, 0, 0]	n/a	catFR1	2	R1525J
-918.688	1.614	867686	WORD	n/a	wordpools/wordpool_categorized_EN.txt	JEEP	Vehicles	10	5	[0, 0, 0]	n/a	catFR1	2	R1525J
-917.074	0.835	869297	WORD_OFF	n/a	n/a	JEEP	Vehicles	10	5	[0, 0, 0]	n/a	catFR1	2	R1525J
-916.239	1.6	870132	WORD	n/a	wordpools/wordpool_categorized_EN.txt	DOLL	Toys	11	5	[0, 0, 0]	n/a	catFR1	2	R1525J
-914.639	0.966	871728	WORD_OFF	n/a	n/a	DOLL	Toys	11	5	[0, 0, 0]	n/a	catFR1	2	R1525J
-913.673	1.602	872698	WORD	n/a	wordpools/wordpool_categorized_EN.txt	BALL	Toys	12	5	[0, 0, 0]	n/a	catFR1	2	R1525J
-912.071	0.002	874295	PROB	0.002	n/a	n/a	n/a	-999	5	[5, 6, 4]	15	catFR1	2	R1525J
-912.069	0.0	874297	START	n/a	n/a	n/a	n/a	-999	5	[-999, -999, -999]	n/a	catFR1	2	R1525J
-912.071	0.002	874302	WORD_OFF	n/a	n/a	BALL	Toys	12	5	[0, 0, 0]	n/a	catFR1	2	R1525J
-912.069	0.0	874302	ENCODING_END	n/a	n/a	n/a	n/a	-999	5	[0, 0, 0]	n/a	catFR1	2	R1525J
-912.069	9.063	874302	DISTRACT_START	n/a	n/a	n/a	n/a	-999	5	[0, 0, 0]	n/a	catFR1	2	R1525J
-903.006	2.767	883359	PROB	2.767	n/a	n/a	n/a	-999	5	[6, 3, 3]	12	catFR1	2	R1525J
-900.239	6.167	886126	PROB	6.167	n/a	n/a	n/a	-999	5	[8, 4, 5]	17	catFR1	2	R1525J
-894.072	2.833	892293	PROB	2.833	n/a	n/a	n/a	-999	5	[3, 4, 5]	12	catFR1	2	R1525J
-891.239	0.0	895126	STOP	n/a	n/a	n/a	n/a	-999	5	[-999, -999, -999]	n/a	catFR1	2	R1525J
-891.239	1.849	895134	DISTRACT_END	n/a	n/a	n/a	n/a	-999	5	[0, 0, 0]	n/a	catFR1	2	R1525J
-889.39	2.108	896976	REC_START	n/a	n/a	n/a	n/a	-999	5	[0, 0, 0]	n/a	catFR1	2	R1525J
-887.282	1.679	899083	REC_WORD	1.679	n/a	JEEP	Vehicles	10	5	[0, 0, 0]	n/a	catFR1	2	R1525J
-885.603	1.608	900762	REC_WORD	1.608	n/a	VAN	Vehicles	1	5	[0, 0, 0]	n/a	catFR1	2	R1525J
-883.995	1.87	902370	REC_WORD	1.87	n/a	TRUCK	Vehicles	2	5	[0, 0, 0]	n/a	catFR1	2	R1525J
-882.125	2.842	904240	REC_WORD	2.842	n/a	CAR	Vehicles	-999	5	[0, 0, 0]	n/a	catFR1	2	R1525J
-879.283	1.853	907082	REC_WORD	1.853	n/a	TULIP	Flowers	-999	5	[0, 0, 0]	n/a	catFR1	2	R1525J
-877.43	7.086	908934	REC_WORD	7.086	n/a	LILAC	Flowers	3	5	[0, 0, 0]	n/a	catFR1	2	R1525J
-870.344	1.0	916020	REC_WORD_VV	1.0	n/a	<>	n/a	-999	5	[0, 0, 0]	n/a	catFR1	2	R1525J
-869.344	1.0	917020	REC_WORD_VV	1.0	n/a	<>	n/a	-999	5	[0, 0, 0]	n/a	catFR1	2	R1525J
-868.344	1.0	918020	REC_WORD_VV	1.0	n/a	<>	n/a	-999	5	[0, 0, 0]	n/a	catFR1	2	R1525J
-867.344	5.077	919020	REC_WORD_VV	5.077	n/a	<>	n/a	-999	5	[0, 0, 0]	n/a	catFR1	2	R1525J
-862.267	3.083	924097	REC_WORD	3.083	n/a	MOTORCYCLE	Vehicles	9	5	[0, 0, 0]	n/a	catFR1	2	R1525J
-859.184	2.23	927183	REC_END	n/a	n/a	n/a	n/a	-999	5	[0, 0, 0]	n/a	catFR1	2	R1525J
-856.954	10.349	929414	COUNTDOWN_START	n/a	n/a	n/a	n/a	-999	5	[0, 0, 0]	n/a	catFR1	2	R1525J
-846.605	0.0	939766	COUNTDOWN_END	n/a	n/a	n/a	n/a	-999	5	[0, 0, 0]	n/a	catFR1	2	R1525J
-846.605	2.067	939766	ENCODING_START	n/a	n/a	n/a	n/a	-999	6	[0, 0, 0]	n/a	catFR1	2	R1525J
-844.538	1.616	941832	WORD	n/a	wordpools/wordpool_categorized_EN.txt	MIXER	Appliances	1	6	[0, 0, 0]	n/a	catFR1	2	R1525J
-842.922	0.9	943443	WORD_OFF	n/a	n/a	MIXER	Appliances	1	6	[0, 0, 0]	n/a	catFR1	2	R1525J
-842.022	1.6	944346	WORD	n/a	wordpools/wordpool_categorized_EN.txt	TOASTER	Appliances	2	6	[0, 0, 0]	n/a	catFR1	2	R1525J
-840.422	0.784	945949	WORD_OFF	n/a	n/a	TOASTER	Appliances	2	6	[0, 0, 0]	n/a	catFR1	2	R1525J
-839.638	1.599	946733	WORD	n/a	wordpools/wordpool_categorized_EN.txt	TRUMPET	Instruments	3	6	[0, 0, 0]	n/a	catFR1	2	R1525J
-838.039	0.9	948329	WORD_OFF	n/a	n/a	TRUMPET	Instruments	3	6	[0, 0, 0]	n/a	catFR1	2	R1525J
-837.139	1.616	949231	WORD	n/a	wordpools/wordpool_categorized_EN.txt	GUITAR	Instruments	4	6	[0, 0, 0]	n/a	catFR1	2	R1525J
-835.523	0.868	950842	WORD_OFF	n/a	n/a	GUITAR	Instruments	4	6	[0, 0, 0]	n/a	catFR1	2	R1525J
-834.655	1.615	951715	WORD	n/a	wordpools/wordpool_categorized_EN.txt	JEANS	Clothing	5	6	[0, 0, 0]	n/a	catFR1	2	R1525J
-833.04	0.968	953326	WORD_OFF	n/a	n/a	JEANS	Clothing	5	6	[0, 0, 0]	n/a	catFR1	2	R1525J
-832.072	1.615	954296	WORD	n/a	wordpools/wordpool_categorized_EN.txt	SHORTS	Clothing	6	6	[0, 0, 0]	n/a	catFR1	2	R1525J
-830.457	0.818	955907	WORD_OFF	n/a	n/a	SHORTS	Clothing	6	6	[0, 0, 0]	n/a	catFR1	2	R1525J
-829.639	1.601	956727	WORD	n/a	wordpools/wordpool_categorized_EN.txt	DRUM	Instruments	7	6	[0, 0, 0]	n/a	catFR1	2	R1525J
-828.038	0.933	958331	WORD_OFF	n/a	n/a	DRUM	Instruments	7	6	[0, 0, 0]	n/a	catFR1	2	R1525J
-827.105	1.617	959263	WORD	n/a	wordpools/wordpool_categorized_EN.txt	TROMBONE	Instruments	8	6	[0, 0, 0]	n/a	catFR1	2	R1525J
-825.488	0.865	960882	WORD_OFF	n/a	n/a	TROMBONE	Instruments	8	6	[0, 0, 0]	n/a	catFR1	2	R1525J
-824.623	1.617	961747	WORD	n/a	wordpools/wordpool_categorized_EN.txt	VACUUM	Appliances	9	6	[0, 0, 0]	n/a	catFR1	2	R1525J
-823.006	0.784	963358	WORD_OFF	n/a	n/a	VACUUM	Appliances	9	6	[0, 0, 0]	n/a	catFR1	2	R1525J
-822.222	1.6	964148	WORD	n/a	wordpools/wordpool_categorized_EN.txt	WASHER	Appliances	10	6	[0, 0, 0]	n/a	catFR1	2	R1525J
-820.622	0.95	965745	WORD_OFF	n/a	n/a	WASHER	Appliances	10	6	[0, 0, 0]	n/a	catFR1	2	R1525J
-819.672	1.6	966692	WORD	n/a	wordpools/wordpool_categorized_EN.txt	JACKET	Clothing	11	6	[0, 0, 0]	n/a	catFR1	2	R1525J
-818.072	0.933	968295	WORD_OFF	n/a	n/a	JACKET	Clothing	11	6	[0, 0, 0]	n/a	catFR1	2	R1525J
-817.139	1.615	969228	WORD	n/a	wordpools/wordpool_categorized_EN.txt	DRESS	Clothing	12	6	[0, 0, 0]	n/a	catFR1	2	R1525J
-815.524	0.002	970838	PROB	0.002	n/a	n/a	n/a	-999	6	[8, 3, 5]	16	catFR1	2	R1525J
-815.522	0.0	970840	START	n/a	n/a	n/a	n/a	-999	6	[-999, -999, -999]	n/a	catFR1	2	R1525J
-815.523	0.001	970846	WORD_OFF	n/a	n/a	DRESS	Clothing	12	6	[0, 0, 0]	n/a	catFR1	2	R1525J
-815.522	0.0	970846	ENCODING_END	n/a	n/a	n/a	n/a	-999	6	[0, 0, 0]	n/a	catFR1	2	R1525J
-815.522	5.5	970846	DISTRACT_START	n/a	n/a	n/a	n/a	-999	6	[0, 0, 0]	n/a	catFR1	2	R1525J
-810.022	3.916	976340	PROB	3.916	n/a	n/a	n/a	-999	6	[4, 5, 4]	13	catFR1	2	R1525J
-806.106	8.633	980256	PROB	8.633	n/a	n/a	n/a	-999	6	[4, 8, 7]	19	catFR1	2	R1525J
-797.473	3.167	988888	PROB	3.167	n/a	n/a	n/a	-999	6	[1, 2, 1]	4	catFR1	2	R1525J
-794.306	0.0	992055	STOP	n/a	n/a	n/a	n/a	-999	6	[-999, -999, -999]	n/a	catFR1	2	R1525J
-794.306	1.867	992059	DISTRACT_END	n/a	n/a	n/a	n/a	-999	6	[0, 0, 0]	n/a	catFR1	2	R1525J
-792.439	0.74	993923	REC_START	n/a	n/a	n/a	n/a	-999	6	[0, 0, 0]	n/a	catFR1	2	R1525J
-791.699	1.52	994662	REC_WORD_VV	1.52	n/a	<>	n/a	-999	6	[0, 0, 0]	n/a	catFR1	2	R1525J
-790.179	0.63	996182	REC_WORD_VV	0.63	n/a	<>	n/a	-999	6	[0, 0, 0]	n/a	catFR1	2	R1525J
-789.549	1.883	996812	REC_WORD	1.883	n/a	DRESS	Clothing	12	6	[0, 0, 0]	n/a	catFR1	2	R1525J
-787.666	1.0	998695	REC_WORD	1.0	n/a	JEANS	Clothing	5	6	[0, 0, 0]	n/a	catFR1	2	R1525J
-786.666	0.78	999695	REC_WORD_VV	0.78	n/a	<>	n/a	-999	6	[0, 0, 0]	n/a	catFR1	2	R1525J
-785.886	1.0	1000475	REC_WORD	1.0	n/a	SHORTS	Clothing	6	6	[0, 0, 0]	n/a	catFR1	2	R1525J
-784.886	1.304	1001475	REC_WORD_VV	1.304	n/a	<>	n/a	-999	6	[0, 0, 0]	n/a	catFR1	2	R1525J
-783.582	1.0	1002779	REC_WORD	1.0	n/a	TROMBONE	Instruments	8	6	[0, 0, 0]	n/a	catFR1	2	R1525J
-782.582	1.978	1003779	REC_WORD_VV	1.978	n/a	<>	n/a	-999	6	[0, 0, 0]	n/a	catFR1	2	R1525J
-780.604	1.0	1005757	REC_WORD_VV	1.0	n/a	<>	n/a	-999	6	[0, 0, 0]	n/a	catFR1	2	R1525J
-779.604	2.099	1006756	REC_WORD_VV	2.099	n/a	<>	n/a	-999	6	[0, 0, 0]	n/a	catFR1	2	R1525J
-777.505	0.396	1008855	REC_WORD_VV	0.396	n/a	<>	n/a	-999	6	[0, 0, 0]	n/a	catFR1	2	R1525J
-777.109	6.952	1009251	REC_WORD	6.952	n/a	TRUCK	Vehicles	-999	6	[0, 0, 0]	n/a	catFR1	2	R1525J
-770.157	3.35	1016203	REC_WORD	3.35	n/a	SPATULA	KitchenTools	-999	6	[0, 0, 0]	n/a	catFR1	2	R1525J
-766.807	2.437	1019553	REC_WORD_VV	2.437	n/a	<>	n/a	-999	6	[0, 0, 0]	n/a	catFR1	2	R1525J
-764.37	0.305	1021990	REC_WORD_VV	0.305	n/a	<>	n/a	-999	6	[0, 0, 0]	n/a	catFR1	2	R1525J
-764.065	1.271	1022295	REC_WORD	1.271	n/a	FLUTE	Instruments	-999	6	[0, 0, 0]	n/a	catFR1	2	R1525J
-762.794	0.573	1023566	REC_WORD_VV	0.573	n/a	<>	n/a	-999	6	[0, 0, 0]	n/a	catFR1	2	R1525J
-762.221	1.833	1024146	REC_END	n/a	n/a	n/a	n/a	-999	6	[0, 0, 0]	n/a	catFR1	2	R1525J
-760.388	10.35	1025981	COUNTDOWN_START	n/a	n/a	n/a	n/a	-999	6	[0, 0, 0]	n/a	catFR1	2	R1525J
-750.038	0.0	1036326	COUNTDOWN_END	n/a	n/a	n/a	n/a	-999	6	[0, 0, 0]	n/a	catFR1	2	R1525J
-750.038	2.133	1036326	ENCODING_START	n/a	n/a	n/a	n/a	-999	7	[0, 0, 0]	n/a	catFR1	2	R1525J
-747.905	1.616	1038459	WORD	n/a	wordpools/wordpool_categorized_EN.txt	THUNDER	Weather	1	7	[0, 0, 0]	n/a	catFR1	2	R1525J
-746.289	0.766	1040077	WORD_OFF	n/a	n/a	THUNDER	Weather	1	7	[0, 0, 0]	n/a	catFR1	2	R1525J
-745.523	1.601	1040838	WORD	n/a	wordpools/wordpool_categorized_EN.txt	THUNDERSTORM	Weather	2	7	[0, 0, 0]	n/a	catFR1	2	R1525J
-743.922	0.967	1042442	WORD_OFF	n/a	n/a	THUNDERSTORM	Weather	2	7	[0, 0, 0]	n/a	catFR1	2	R1525J
-742.955	1.617	1043411	WORD	n/a	wordpools/wordpool_categorized_EN.txt	BLUEBIRD	Birds	3	7	[0, 0, 0]	n/a	catFR1	2	R1525J
-741.338	0.999	1045023	WORD_OFF	n/a	n/a	BLUEBIRD	Birds	3	7	[0, 0, 0]	n/a	catFR1	2	R1525J
-740.339	1.601	1046022	WORD	n/a	wordpools/wordpool_categorized_EN.txt	HAWK	Birds	4	7	[0, 0, 0]	n/a	catFR1	2	R1525J
-738.738	0.916	1047626	WORD_OFF	n/a	n/a	HAWK	Birds	4	7	[0, 0, 0]	n/a	catFR1	2	R1525J
-737.822	1.6	1048543	WORD	n/a	wordpools/wordpool_categorized_EN.txt	DOLLHOUSE	Toys	5	7	[0, 0, 0]	n/a	catFR1	2	R1525J
-736.222	0.916	1050139	WORD_OFF	n/a	n/a	DOLLHOUSE	Toys	5	7	[0, 0, 0]	n/a	catFR1	2	R1525J
-735.306	1.6	1051057	WORD	n/a	wordpools/wordpool_categorized_EN.txt	BARBIE	Toys	6	7	[0, 0, 0]	n/a	catFR1	2	R1525J
-733.706	0.884	1052668	WORD_OFF	n/a	n/a	BARBIE	Toys	6	7	[0, 0, 0]	n/a	catFR1	2	R1525J
-732.822	1.616	1053540	WORD	n/a	wordpools/wordpool_categorized_EN.txt	DOVE	Birds	7	7	[0, 0, 0]	n/a	catFR1	2	R1525J
-731.206	0.9	1055159	WORD_OFF	n/a	n/a	DOVE	Birds	7	7	[0, 0, 0]	n/a	catFR1	2	R1525J
-730.306	1.617	1056054	WORD	n/a	wordpools/wordpool_categorized_EN.txt	ROBIN	Birds	8	7	[0, 0, 0]	n/a	catFR1	2	R1525J
-728.689	0.916	1057672	WORD_OFF	n/a	n/a	ROBIN	Birds	8	7	[0, 0, 0]	n/a	catFR1	2	R1525J
-727.773	1.601	1058590	WORD	n/a	wordpools/wordpool_categorized_EN.txt	MARBLES	Toys	9	7	[0, 0, 0]	n/a	catFR1	2	R1525J
-726.172	0.933	1060193	WORD_OFF	n/a	n/a	MARBLES	Toys	9	7	[0, 0, 0]	n/a	catFR1	2	R1525J
-725.239	1.617	1061126	WORD	n/a	wordpools/wordpool_categorized_EN.txt	FRISBEE	Toys	10	7	[0, 0, 0]	n/a	catFR1	2	R1525J
-723.622	0.867	1062744	WORD_OFF	n/a	n/a	FRISBEE	Toys	10	7	[0, 0, 0]	n/a	catFR1	2	R1525J
-722.755	1.616	1063609	WORD	n/a	wordpools/wordpool_categorized_EN.txt	WIND	Weather	11	7	[0, 0, 0]	n/a	catFR1	2	R1525J
-721.139	0.832	1065221	WORD_OFF	n/a	n/a	WIND	Weather	11	7	[0, 0, 0]	n/a	catFR1	2	R1525J
-720.307	1.602	1066056	WORD	n/a	wordpools/wordpool_categorized_EN.txt	FOG	Weather	12	7	[0, 0, 0]	n/a	catFR1	2	R1525J
-718.705	0.001	1067653	START	n/a	n/a	n/a	n/a	-999	7	[-999, -999, -999]	n/a	catFR1	2	R1525J
-718.704	0.0	1067654	PROB	0.0	n/a	n/a	n/a	-999	7	[6, 3, 5]	14	catFR1	2	R1525J
-718.706	0.001	1067660	WORD_OFF	n/a	n/a	FOG	Weather	12	7	[0, 0, 0]	n/a	catFR1	2	R1525J
-718.705	0.0	1067660	ENCODING_END	n/a	n/a	n/a	n/a	-999	7	[0, 0, 0]	n/a	catFR1	2	R1525J
-718.705	8.701	1067660	DISTRACT_START	n/a	n/a	n/a	n/a	-999	7	[0, 0, 0]	n/a	catFR1	2	R1525J
-710.004	5.999	1076354	PROB	5.999	n/a	n/a	n/a	-999	7	[8, 6, 4]	18	catFR1	2	R1525J
-704.005	5.498	1082352	PROB	5.498	n/a	n/a	n/a	-999	7	[4, 1, 1]	6	catFR1	2	R1525J
-698.507	0.0	1087850	STOP	n/a	n/a	n/a	n/a	-999	7	[-999, -999, -999]	n/a	catFR1	2	R1525J
-698.507	1.768	1087857	DISTRACT_END	n/a	n/a	n/a	n/a	-999	7	[0, 0, 0]	n/a	catFR1	2	R1525J
-696.739	1.097	1089625	REC_START	n/a	n/a	n/a	n/a	-999	7	[0, 0, 0]	n/a	catFR1	2	R1525J
-695.642	1.115	1090715	REC_WORD	1.115	n/a	THUNDER	Weather	1	7	[0, 0, 0]	n/a	catFR1	2	R1525J
-694.527	1.936	1091830	REC_WORD	1.936	n/a	THUNDERSTORM	Weather	2	7	[0, 0, 0]	n/a	catFR1	2	R1525J
-692.591	3.277	1093766	REC_WORD	3.277	n/a	FOG	Weather	12	7	[0, 0, 0]	n/a	catFR1	2	R1525J
-689.314	4.255	1097043	REC_WORD_VV	4.255	n/a	<>	n/a	-999	7	[0, 0, 0]	n/a	catFR1	2	R1525J
-685.059	1.5	1101298	REC_WORD_VV	1.5	n/a	<>	n/a	-999	7	[0, 0, 0]	n/a	catFR1	2	R1525J
-683.559	4.45	1102798	REC_WORD_VV	4.45	n/a	<>	n/a	-999	7	[0, 0, 0]	n/a	catFR1	2	R1525J
-679.109	1.0	1107247	REC_WORD_VV	1.0	n/a	<>	n/a	-999	7	[0, 0, 0]	n/a	catFR1	2	R1525J
-678.109	1.0	1108247	REC_WORD_VV	1.0	n/a	<>	n/a	-999	7	[0, 0, 0]	n/a	catFR1	2	R1525J
-677.109	3.315	1109247	REC_WORD_VV	3.315	n/a	<>	n/a	-999	7	[0, 0, 0]	n/a	catFR1	2	R1525J
-673.794	1.0	1112562	REC_WORD_VV	1.0	n/a	<>	n/a	-999	7	[0, 0, 0]	n/a	catFR1	2	R1525J
-672.794	6.274	1113562	REC_WORD_VV	6.274	n/a	<>	n/a	-999	7	[0, 0, 0]	n/a	catFR1	2	R1525J
-666.52	1.999	1119840	REC_END	n/a	n/a	n/a	n/a	-999	7	[0, 0, 0]	n/a	catFR1	2	R1525J
-664.521	10.349	1121839	COUNTDOWN_START	n/a	n/a	n/a	n/a	-999	7	[0, 0, 0]	n/a	catFR1	2	R1525J
-654.172	0.0	1132192	COUNTDOWN_END	n/a	n/a	n/a	n/a	-999	7	[0, 0, 0]	n/a	catFR1	2	R1525J
-654.172	2.218	1132192	ENCODING_START	n/a	n/a	n/a	n/a	-999	8	[0, 0, 0]	n/a	catFR1	2	R1525J
-651.954	1.6	1134407	WORD	n/a	wordpools/wordpool_categorized_EN.txt	CEILING	Building	1	8	[0, 0, 0]	n/a	catFR1	2	R1525J
-650.354	0.949	1136003	WORD_OFF	n/a	n/a	CEILING	Building	1	8	[0, 0, 0]	n/a	catFR1	2	R1525J
-649.405	1.6	1136958	WORD	n/a	wordpools/wordpool_categorized_EN.txt	ROOF	Building	2	8	[0, 0, 0]	n/a	catFR1	2	R1525J
-647.805	1.0	1138554	WORD_OFF	n/a	n/a	ROOF	Building	2	8	[0, 0, 0]	n/a	catFR1	2	R1525J
-646.805	1.6	1139553	WORD	n/a	wordpools/wordpool_categorized_EN.txt	TEA	Beverages	3	8	[0, 0, 0]	n/a	catFR1	2	R1525J
-645.205	0.834	1141157	WORD_OFF	n/a	n/a	TEA	Beverages	3	8	[0, 0, 0]	n/a	catFR1	2	R1525J
-644.371	1.616	1141985	WORD	n/a	wordpools/wordpool_categorized_EN.txt	SODA	Beverages	4	8	[0, 0, 0]	n/a	catFR1	2	R1525J
-642.755	0.984	1143603	WORD_OFF	n/a	n/a	SODA	Beverages	4	8	[0, 0, 0]	n/a	catFR1	2	R1525J
-641.771	1.616	1144588	WORD	n/a	wordpools/wordpool_categorized_EN.txt	SNOW	Weather	5	8	[0, 0, 0]	n/a	catFR1	2	R1525J
-640.155	0.817	1146206	WORD_OFF	n/a	n/a	SNOW	Weather	5	8	[0, 0, 0]	n/a	catFR1	2	R1525J
-639.338	1.615	1147019	WORD	n/a	wordpools/wordpool_categorized_EN.txt	CLOUD	Weather	6	8	[0, 0, 0]	n/a	catFR1	2	R1525J
-637.723	0.884	1148638	WORD_OFF	n/a	n/a	CLOUD	Weather	6	8	[0, 0, 0]	n/a	catFR1	2	R1525J
-636.839	1.601	1149518	WORD	n/a	wordpools/wordpool_categorized_EN.txt	MILK	Beverages	7	8	[0, 0, 0]	n/a	catFR1	2	R1525J
-635.238	0.865	1151122	WORD_OFF	n/a	n/a	MILK	Beverages	7	8	[0, 0, 0]	n/a	catFR1	2	R1525J
-634.373	1.601	1151987	WORD	n/a	wordpools/wordpool_categorized_EN.txt	JUICE	Beverages	8	8	[0, 0, 0]	n/a	catFR1	2	R1525J
-632.772	0.816	1153583	WORD_OFF	n/a	n/a	JUICE	Beverages	8	8	[0, 0, 0]	n/a	catFR1	2	R1525J
-631.956	1.6	1154404	WORD	n/a	wordpools/wordpool_categorized_EN.txt	DRIZZLE	Weather	9	8	[0, 0, 0]	n/a	catFR1	2	R1525J
-630.356	0.884	1156007	WORD_OFF	n/a	n/a	DRIZZLE	Weather	9	8	[0, 0, 0]	n/a	catFR1	2	R1525J
-629.472	1.6	1156887	WORD	n/a	wordpools/wordpool_categorized_EN.txt	TORNADO	Weather	10	8	[0, 0, 0]	n/a	catFR1	2	R1525J
-627.872	1.0	1158483	WORD_OFF	n/a	n/a	TORNADO	Weather	10	8	[0, 0, 0]	n/a	catFR1	2	R1525J
-626.872	1.6	1159490	WORD	n/a	wordpools/wordpool_categorized_EN.txt	ROOM	Building	11	8	[0, 0, 0]	n/a	catFR1	2	R1525J
-625.272	0.799	1161086	WORD_OFF	n/a	n/a	ROOM	Building	11	8	[0, 0, 0]	n/a	catFR1	2	R1525J
-624.473	1.618	1161885	WORD	n/a	wordpools/wordpool_categorized_EN.txt	ATTIC	Building	12	8	[0, 0, 0]	n/a	catFR1	2	R1525J
-622.855	0.0	1163499	START	n/a	n/a	n/a	n/a	-999	8	[-999, -999, -999]	n/a	catFR1	2	R1525J
-622.855	0.0	1163499	PROB	0.0	n/a	n/a	n/a	-999	8	[8, 2, 8]	18	catFR1	2	R1525J
-622.856	0.001	1163503	WORD_OFF	n/a	n/a	ATTIC	Building	12	8	[0, 0, 0]	n/a	catFR1	2	R1525J
-622.855	0.0	1163503	ENCODING_END	n/a	n/a	n/a	n/a	-999	8	[0, 0, 0]	n/a	catFR1	2	R1525J
-622.855	4.783	1163503	DISTRACT_START	n/a	n/a	n/a	n/a	-999	8	[0, 0, 0]	n/a	catFR1	2	R1525J
-618.072	4.233	1168282	PROB	4.233	n/a	n/a	n/a	-999	8	[7, 2, 3]	12	catFR1	2	R1525J
-613.839	5.333	1172515	PROB	5.333	n/a	n/a	n/a	-999	8	[8, 4, 8]	20	catFR1	2	R1525J
-608.506	4.45	1177848	PROB	4.45	n/a	n/a	n/a	-999	8	[7, 2, 4]	13	catFR1	2	R1525J
-604.056	4.517	1182297	PROB	4.517	n/a	n/a	n/a	-999	8	[3, 2, 2]	7	catFR1	2	R1525J
-599.539	0.0	1186814	STOP	n/a	n/a	n/a	n/a	-999	8	[-999, -999, -999]	n/a	catFR1	2	R1525J
-599.539	1.701	1186819	DISTRACT_END	n/a	n/a	n/a	n/a	-999	8	[0, 0, 0]	n/a	catFR1	2	R1525J
-597.838	1.609	1188519	REC_START	n/a	n/a	n/a	n/a	-999	8	[0, 0, 0]	n/a	catFR1	2	R1525J
-596.229	3.83	1190124	REC_WORD_VV	3.83	n/a	<>	n/a	-999	8	[0, 0, 0]	n/a	catFR1	2	R1525J
-592.399	2.838	1193954	REC_WORD_VV	2.838	n/a	<>	n/a	-999	8	[0, 0, 0]	n/a	catFR1	2	R1525J
-589.561	3.221	1196792	REC_WORD_VV	3.221	n/a	<>	n/a	-999	8	[0, 0, 0]	n/a	catFR1	2	R1525J
-586.34	1.0	1200013	REC_WORD_VV	1.0	n/a	<>	n/a	-999	8	[0, 0, 0]	n/a	catFR1	2	R1525J
-585.34	1.0	1201013	REC_WORD_VV	1.0	n/a	<>	n/a	-999	8	[0, 0, 0]	n/a	catFR1	2	R1525J
-584.34	1.531	1202013	REC_WORD_VV	1.531	n/a	<>	n/a	-999	8	[0, 0, 0]	n/a	catFR1	2	R1525J
-582.809	7.904	1203543	REC_WORD_VV	7.904	n/a	<>	n/a	-999	8	[0, 0, 0]	n/a	catFR1	2	R1525J
-574.905	1.0	1211447	REC_WORD_VV	1.0	n/a	<>	n/a	-999	8	[0, 0, 0]	n/a	catFR1	2	R1525J
-573.905	6.285	1212447	REC_WORD_VV	6.285	n/a	<>	n/a	-999	8	[0, 0, 0]	n/a	catFR1	2	R1525J
-567.62	3.482	1218734	REC_END	n/a	n/a	n/a	n/a	-999	8	[0, 0, 0]	n/a	catFR1	2	R1525J
-564.138	10.349	1222217	COUNTDOWN_START	n/a	n/a	n/a	n/a	-999	8	[0, 0, 0]	n/a	catFR1	2	R1525J
-553.789	0.0	1232570	COUNTDOWN_END	n/a	n/a	n/a	n/a	-999	8	[0, 0, 0]	n/a	catFR1	2	R1525J
-553.789	2.234	1232570	ENCODING_START	n/a	n/a	n/a	n/a	-999	9	[0, 0, 0]	n/a	catFR1	2	R1525J
-551.555	1.617	1234800	WORD	n/a	wordpools/wordpool_categorized_EN.txt	EAR	BodyParts	1	9	[0, 0, 0]	n/a	catFR1	2	R1525J
-549.938	0.949	1236419	WORD_OFF	n/a	n/a	EAR	BodyParts	1	9	[0, 0, 0]	n/a	catFR1	2	R1525J
-548.989	1.601	1237366	WORD	n/a	wordpools/wordpool_categorized_EN.txt	FOOT	BodyParts	2	9	[0, 0, 0]	n/a	catFR1	2	R1525J
-547.388	0.916	1238970	WORD_OFF	n/a	n/a	FOOT	BodyParts	2	9	[0, 0, 0]	n/a	catFR1	2	R1525J
-546.472	1.616	1239887	WORD	n/a	wordpools/wordpool_categorized_EN.txt	COMPUTER	Electronics	3	9	[0, 0, 0]	n/a	catFR1	2	R1525J
-544.856	0.817	1241498	WORD_OFF	n/a	n/a	COMPUTER	Electronics	3	9	[0, 0, 0]	n/a	catFR1	2	R1525J
-544.039	1.617	1242319	WORD	n/a	wordpools/wordpool_categorized_EN.txt	STEREO	Electronics	4	9	[0, 0, 0]	n/a	catFR1	2	R1525J
-542.422	0.999	1243937	WORD_OFF	n/a	n/a	STEREO	Electronics	4	9	[0, 0, 0]	n/a	catFR1	2	R1525J
-541.423	1.601	1244929	WORD	n/a	wordpools/wordpool_categorized_EN.txt	CRAB	OceanAnimals	5	9	[0, 0, 0]	n/a	catFR1	2	R1525J
-539.822	0.867	1246533	WORD_OFF	n/a	n/a	CRAB	OceanAnimals	5	9	[0, 0, 0]	n/a	catFR1	2	R1525J
-538.955	1.617	1247398	WORD	n/a	wordpools/wordpool_categorized_EN.txt	JELLYFISH	OceanAnimals	6	9	[0, 0, 0]	n/a	catFR1	2	R1525J
-537.338	0.931	1249016	WORD_OFF	n/a	n/a	JELLYFISH	OceanAnimals	6	9	[0, 0, 0]	n/a	catFR1	2	R1525J
-536.407	1.601	1249949	WORD	n/a	wordpools/wordpool_categorized_EN.txt	TELEVISION	Electronics	7	9	[0, 0, 0]	n/a	catFR1	2	R1525J
-534.806	0.817	1251552	WORD_OFF	n/a	n/a	TELEVISION	Electronics	7	9	[0, 0, 0]	n/a	catFR1	2	R1525J
-533.989	1.617	1252365	WORD	n/a	wordpools/wordpool_categorized_EN.txt	PHONE	Electronics	8	9	[0, 0, 0]	n/a	catFR1	2	R1525J
-532.372	0.883	1253984	WORD_OFF	n/a	n/a	PHONE	Electronics	8	9	[0, 0, 0]	n/a	catFR1	2	R1525J
-531.489	1.6	1254864	WORD	n/a	wordpools/wordpool_categorized_EN.txt	OCTOPUS	OceanAnimals	9	9	[0, 0, 0]	n/a	catFR1	2	R1525J
-529.889	1.001	1256468	WORD_OFF	n/a	n/a	OCTOPUS	OceanAnimals	9	9	[0, 0, 0]	n/a	catFR1	2	R1525J
-528.888	1.616	1257467	WORD	n/a	wordpools/wordpool_categorized_EN.txt	LOBSTER	OceanAnimals	10	9	[0, 0, 0]	n/a	catFR1	2	R1525J
-527.272	0.883	1259078	WORD_OFF	n/a	n/a	LOBSTER	OceanAnimals	10	9	[0, 0, 0]	n/a	catFR1	2	R1525J
-526.389	1.6	1259966	WORD	n/a	wordpools/wordpool_categorized_EN.txt	ARM	BodyParts	11	9	[0, 0, 0]	n/a	catFR1	2	R1525J
-524.789	0.917	1261562	WORD_OFF	n/a	n/a	ARM	BodyParts	11	9	[0, 0, 0]	n/a	catFR1	2	R1525J
-523.872	1.6	1262479	WORD	n/a	wordpools/wordpool_categorized_EN.txt	HAND	BodyParts	12	9	[0, 0, 0]	n/a	catFR1	2	R1525J
-522.272	0.001	1264078	PROB	0.001	n/a	n/a	n/a	-999	9	[1, 2, 3]	6	catFR1	2	R1525J
-522.271	0.0	1264079	START	n/a	n/a	n/a	n/a	-999	9	[-999, -999, -999]	n/a	catFR1	2	R1525J
-522.272	0.001	1264083	WORD_OFF	n/a	n/a	HAND	BodyParts	12	9	[0, 0, 0]	n/a	catFR1	2	R1525J
-522.271	0.0	1264083	ENCODING_END	n/a	n/a	n/a	n/a	-999	9	[0, 0, 0]	n/a	catFR1	2	R1525J
-522.271	3.631	1264083	DISTRACT_START	n/a	n/a	n/a	n/a	-999	9	[0, 0, 0]	n/a	catFR1	2	R1525J
-518.64	4.101	1267710	PROB	4.101	n/a	n/a	n/a	-999	9	[6, 2, 6]	14	catFR1	2	R1525J
-514.539	3.567	1271811	PROB	3.567	n/a	n/a	n/a	-999	9	[5, 2, 2]	9	catFR1	2	R1525J
-510.972	3.933	1275378	PROB	3.933	n/a	n/a	n/a	-999	9	[4, 3, 2]	9	catFR1	2	R1525J
-507.039	7.816	1279310	PROB	7.816	n/a	n/a	n/a	-999	9	[4, 2, 8]	14	catFR1	2	R1525J
-499.223	0.0	1287126	STOP	n/a	n/a	n/a	n/a	-999	9	[-999, -999, -999]	n/a	catFR1	2	R1525J
-499.223	1.684	1287130	DISTRACT_END	n/a	n/a	n/a	n/a	-999	9	[0, 0, 0]	n/a	catFR1	2	R1525J
-497.539	1.399	1288816	REC_START	n/a	n/a	n/a	n/a	-999	9	[0, 0, 0]	n/a	catFR1	2	R1525J
-496.14	1.309	1290209	REC_WORD	1.309	n/a	OCTOPUS	OceanAnimals	9	9	[0, 0, 0]	n/a	catFR1	2	R1525J
-494.831	1.0	1291518	REC_WORD	1.0	n/a	JELLYFISH	OceanAnimals	6	9	[0, 0, 0]	n/a	catFR1	2	R1525J
-493.831	0.795	1292518	REC_WORD_VV	0.795	n/a	<>	n/a	-999	9	[0, 0, 0]	n/a	catFR1	2	R1525J
-493.036	1.826	1293313	REC_WORD	1.826	n/a	LOBSTER	OceanAnimals	10	9	[0, 0, 0]	n/a	catFR1	2	R1525J
-491.21	1.846	1295139	REC_WORD	1.846	n/a	CRAB	OceanAnimals	5	9	[0, 0, 0]	n/a	catFR1	2	R1525J
-489.364	1.889	1296985	REC_WORD	1.889	n/a	EAR	BodyParts	1	9	[0, 0, 0]	n/a	catFR1	2	R1525J
-487.475	2.604	1298874	REC_WORD	2.604	n/a	ARM	BodyParts	11	9	[0, 0, 0]	n/a	catFR1	2	R1525J
-484.871	2.81	1301477	REC_WORD	2.81	n/a	FOOT	BodyParts	2	9	[0, 0, 0]	n/a	catFR1	2	R1525J
-482.061	10.032	1304287	REC_WORD_VV	10.032	n/a	<>	n/a	-999	9	[0, 0, 0]	n/a	catFR1	2	R1525J
-472.029	4.725	1314319	REC_WORD_VV	4.725	n/a	<>	n/a	-999	9	[0, 0, 0]	n/a	catFR1	2	R1525J
-467.304	0.0	1319046	REC_END	n/a	n/a	n/a	n/a	-999	9	[0, 0, 0]	n/a	catFR1	2	R1525J
