onset	duration	sample	trial_type	response_time	stim_file	item_name	category	serialpos	list	test	answer	experiment	session	subject
0.0	3.738	99104	INSTRUCT_START	n/a	n/a	n/a	n/a	-999	-999	[0, 0, 0]	n/a	catFR1	3	R1652A
3.738	30.929	102833	INSTRUCT_END	n/a	n/a	n/a	n/a	-999	-999	[0, 0, 0]	n/a	catFR1	3	R1652A
34.667	10.359	133764	COUNTDOWN_START	n/a	n/a	n/a	n/a	-999	-999	[0, 0, 0]	n/a	catFR1	3	R1652A
45.026	0.0	144126	COUNTDOWN_END	n/a	n/a	n/a	n/a	-999	-999	[0, 0, 0]	n/a	catFR1	3	R1652A
45.026	1.818	144126	ENCODING_START	n/a	n/a	n/a	n/a	-999	-1	[0, 0, 0]	n/a	catFR1	3	R1652A
46.844	1.606	145943	WORD	n/a	n/a	ROACH	Insects	1	-1	[0, 0, 0]	n/a	catFR1	3	R1652A
48.45	0.872	147556	WORD_OFF	n/a	n/a	ROACH	Insects	1	-1	[0, 0, 0]	n/a	catFR1	3	R1652A
49.322	1.6	148417	WORD	n/a	n/a	BUTTERFLY	Insects	2	-1	[0, 0, 0]	n/a	catFR1	3	R1652A
50.922	0.826	150018	WORD_OFF	n/a	n/a	BUTTERFLY	Insects	2	-1	[0, 0, 0]	n/a	catFR1	3	R1652A
51.748	1.601	150843	WORD	n/a	n/a	RADIO	Electronics	3	-1	[0, 0, 0]	n/a	catFR1	3	R1652A
53.349	0.873	152445	WORD_OFF	n/a	n/a	RADIO	Electronics	3	-1	[0, 0, 0]	n/a	catFR1	3	R1652A
54.222	1.6	153317	WORD	n/a	n/a	STEREO	Electronics	4	-1	[0, 0, 0]	n/a	catFR1	3	R1652A
55.822	0.917	154919	WORD_OFF	n/a	n/a	STEREO	Electronics	4	-1	[0, 0, 0]	n/a	catFR1	3	R1652A
56.739	1.601	155839	WORD	n/a	n/a	GRAPE	Fruit	5	-1	[0, 0, 0]	n/a	catFR1	3	R1652A
58.34	0.899	157441	WORD_OFF	n/a	n/a	GRAPE	Fruit	5	-1	[0, 0, 0]	n/a	catFR1	3	R1652A
59.239	1.601	158337	WORD	n/a	n/a	BLUEBERRY	Fruit	6	-1	[0, 0, 0]	n/a	catFR1	3	R1652A
60.84	0.975	159938	WORD_OFF	n/a	n/a	BLUEBERRY	Fruit	6	-1	[0, 0, 0]	n/a	catFR1	3	R1652A
61.815	1.608	160919	WORD	n/a	n/a	TABLET	Electronics	7	-1	[0, 0, 0]	n/a	catFR1	3	R1652A
63.423	0.976	162520	WORD_OFF	n/a	n/a	TABLET	Electronics	7	-1	[0, 0, 0]	n/a	catFR1	3	R1652A
64.399	1.606	163500	WORD	n/a	n/a	CALCULATOR	Electronics	8	-1	[0, 0, 0]	n/a	catFR1	3	R1652A
66.005	0.852	165102	WORD_OFF	n/a	n/a	CALCULATOR	Electronics	8	-1	[0, 0, 0]	n/a	catFR1	3	R1652A
66.857	1.608	165962	WORD	n/a	n/a	CHERRY	Fruit	9	-1	[0, 0, 0]	n/a	catFR1	3	R1652A
68.465	0.792	167564	WORD_OFF	n/a	n/a	CHERRY	Fruit	9	-1	[0, 0, 0]	n/a	catFR1	3	R1652A
69.257	1.607	168353	WORD	n/a	n/a	PEAR	Fruit	10	-1	[0, 0, 0]	n/a	catFR1	3	R1652A
70.864	1.001	169966	WORD_OFF	n/a	n/a	PEAR	Fruit	10	-1	[0, 0, 0]	n/a	catFR1	3	R1652A
71.865	1.608	170970	WORD	n/a	n/a	BEE	Insects	11	-1	[0, 0, 0]	n/a	catFR1	3	R1652A
73.473	0.826	172572	WORD_OFF	n/a	n/a	BEE	Insects	11	-1	[0, 0, 0]	n/a	catFR1	3	R1652A
74.299	1.606	173396	WORD	n/a	n/a	GNAT	Insects	12	-1	[0, 0, 0]	n/a	catFR1	3	R1652A
75.905	0.004	175010	WORD_OFF	n/a	n/a	GNAT	Insects	12	-1	[0, 0, 0]	n/a	catFR1	3	R1652A
75.909	0.0	175010	ENCODING_END	n/a	n/a	n/a	n/a	-999	-1	[0, 0, 0]	n/a	catFR1	3	R1652A
75.909	0.0	175010	DISTRACT_START	n/a	n/a	n/a	n/a	-999	-1	[0, 0, 0]	n/a	catFR1	3	R1652A
75.909	0.002	175010	START	n/a	n/a	n/a	n/a	-999	-1	[-999, -999, -999]	n/a	catFR1	3	R1652A
75.911	4.787	175012	PROB	4.787	n/a	n/a	n/a	-999	-1	[1, 6, 7]	14	catFR1	3	R1652A
80.698	5.109	179799	PROB	5.109	n/a	n/a	n/a	-999	-1	[2, 7, 5]	14	catFR1	3	R1652A
85.807	6.309	184908	PROB	6.309	n/a	n/a	n/a	-999	-1	[7, 7, 8]	21	catFR1	3	R1652A
92.116	5.649	191217	PROB	5.649	n/a	n/a	n/a	-999	-1	[4, 5, 1]	10	catFR1	3	R1652A
97.765	0.0	196866	STOP	n/a	n/a	n/a	n/a	-999	-1	[-999, -999, -999]	n/a	catFR1	3	R1652A
97.765	2.358	196870	DISTRACT_END	n/a	n/a	n/a	n/a	-999	-1	[0, 0, 0]	n/a	catFR1	3	R1652A
100.123	2.428	199224	REC_START	n/a	n/a	n/a	n/a	-999	-1	[0, 0, 0]	n/a	catFR1	3	R1652A
102.551	1.0	201652	REC_WORD	1.0	n/a	BLUEBERRY	Fruit	6	-1	[0, 0, 0]	n/a	catFR1	3	R1652A
103.551	1.184	202652	REC_WORD_VV	1.184	n/a	<>	n/a	-999	-1	[0, 0, 0]	n/a	catFR1	3	R1652A
104.735	1.627	203836	REC_WORD	1.627	n/a	ROACH	Insects	1	-1	[0, 0, 0]	n/a	catFR1	3	R1652A
106.362	2.889	205463	REC_WORD	2.889	n/a	CHERRY	Fruit	9	-1	[0, 0, 0]	n/a	catFR1	3	R1652A
109.251	2.252	208352	REC_WORD	2.252	n/a	BEE	Insects	11	-1	[0, 0, 0]	n/a	catFR1	3	R1652A
111.503	2.494	210604	REC_WORD	2.494	n/a	BUTTERFLY	Insects	2	-1	[0, 0, 0]	n/a	catFR1	3	R1652A
113.997	2.491	213098	REC_WORD	2.491	n/a	PEAR	Fruit	10	-1	[0, 0, 0]	n/a	catFR1	3	R1652A
116.488	13.782	215589	REC_WORD	13.782	n/a	CALCULATOR	Electronics	8	-1	[0, 0, 0]	n/a	catFR1	3	R1652A
130.27	151.244	229366	REC_END	n/a	n/a	n/a	n/a	-999	-1	[0, 0, 0]	n/a	catFR1	3	R1652A
281.514	10.342	380616	COUNTDOWN_START	n/a	n/a	n/a	n/a	-999	1	[0, 0, 0]	n/a	catFR1	3	R1652A
291.856	0.0	390955	COUNTDOWN_END	n/a	n/a	n/a	n/a	-999	1	[0, 0, 0]	n/a	catFR1	3	R1652A
291.856	2.016	390955	ENCODING_START	n/a	n/a	n/a	n/a	-999	1	[0, 0, 0]	n/a	catFR1	3	R1652A
293.872	1.602	392975	WORD	n/a	wordpools/wordpool_categorized_EN.txt	LADYBUG	Insects	1	1	[0, 0, 0]	n/a	catFR1	3	R1652A
295.474	0.806	394576	WORD_OFF	n/a	n/a	LADYBUG	Insects	1	1	[0, 0, 0]	n/a	catFR1	3	R1652A
296.28	1.6	395377	WORD	n/a	wordpools/wordpool_categorized_EN.txt	MOSQUITO	Insects	2	1	[0, 0, 0]	n/a	catFR1	3	R1652A
297.88	0.867	396978	WORD_OFF	n/a	n/a	MOSQUITO	Insects	2	1	[0, 0, 0]	n/a	catFR1	3	R1652A
298.747	1.602	397851	WORD	n/a	wordpools/wordpool_categorized_EN.txt	ORCHID	Flowers	3	1	[0, 0, 0]	n/a	catFR1	3	R1652A
300.349	0.883	399453	WORD_OFF	n/a	n/a	ORCHID	Flowers	3	1	[0, 0, 0]	n/a	catFR1	3	R1652A
301.232	1.6	400337	WORD	n/a	wordpools/wordpool_categorized_EN.txt	CARNATION	Flowers	4	1	[0, 0, 0]	n/a	catFR1	3	R1652A
302.832	0.8	401938	WORD_OFF	n/a	n/a	CARNATION	Flowers	4	1	[0, 0, 0]	n/a	catFR1	3	R1652A
303.632	1.609	402727	WORD	n/a	wordpools/wordpool_categorized_EN.txt	CAR	Vehicles	5	1	[0, 0, 0]	n/a	catFR1	3	R1652A
305.241	0.865	404341	WORD_OFF	n/a	n/a	CAR	Vehicles	5	1	[0, 0, 0]	n/a	catFR1	3	R1652A
306.106	1.6	405201	WORD	n/a	wordpools/wordpool_categorized_EN.txt	TRAIN	Vehicles	6	1	[0, 0, 0]	n/a	catFR1	3	R1652A
307.706	0.924	406803	WORD_OFF	n/a	n/a	TRAIN	Vehicles	6	1	[0, 0, 0]	n/a	catFR1	3	R1652A
308.63	1.602	407735	WORD	n/a	wordpools/wordpool_categorized_EN.txt	MOTH	Insects	7	1	[0, 0, 0]	n/a	catFR1	3	R1652A
310.232	0.991	409337	WORD_OFF	n/a	n/a	MOTH	Insects	7	1	[0, 0, 0]	n/a	catFR1	3	R1652A
311.223	1.609	410317	WORD	n/a	wordpools/wordpool_categorized_EN.txt	BEETLE	Insects	8	1	[0, 0, 0]	n/a	catFR1	3	R1652A
312.832	0.765	411930	WORD_OFF	n/a	n/a	BEETLE	Insects	8	1	[0, 0, 0]	n/a	catFR1	3	R1652A
313.597	1.601	412695	WORD	n/a	wordpools/wordpool_categorized_EN.txt	DAFFODIL	Flowers	9	1	[0, 0, 0]	n/a	catFR1	3	R1652A
315.198	0.797	414297	WORD_OFF	n/a	n/a	DAFFODIL	Flowers	9	1	[0, 0, 0]	n/a	catFR1	3	R1652A
315.995	1.596	415097	WORD	n/a	wordpools/wordpool_categorized_EN.txt	SUNFLOWER	Flowers	10	1	[0, 0, 0]	n/a	catFR1	3	R1652A
317.591	0.914	416687	WORD_OFF	n/a	n/a	SUNFLOWER	Flowers	10	1	[0, 0, 0]	n/a	catFR1	3	R1652A
318.505	1.602	417607	WORD	n/a	wordpools/wordpool_categorized_EN.txt	PLANE	Vehicles	11	1	[0, 0, 0]	n/a	catFR1	3	R1652A
320.107	0.932	419209	WORD_OFF	n/a	n/a	PLANE	Vehicles	11	1	[0, 0, 0]	n/a	catFR1	3	R1652A
321.039	1.608	420141	WORD	n/a	wordpools/wordpool_categorized_EN.txt	MOTORCYCLE	Vehicles	12	1	[0, 0, 0]	n/a	catFR1	3	R1652A
322.647	0.003	421743	WORD_OFF	n/a	n/a	MOTORCYCLE	Vehicles	12	1	[0, 0, 0]	n/a	catFR1	3	R1652A
322.65	0.0	421743	ENCODING_END	n/a	n/a	n/a	n/a	-999	1	[0, 0, 0]	n/a	catFR1	3	R1652A
322.648	0.002	421748	PROB	0.002	n/a	n/a	n/a	-999	1	[6, 5, 4]	15	catFR1	3	R1652A
322.65	0.0	421750	START	n/a	n/a	n/a	n/a	-999	1	[-999, -999, -999]	n/a	catFR1	3	R1652A
322.65	8.815	421755	DISTRACT_START	n/a	n/a	n/a	n/a	-999	1	[0, 0, 0]	n/a	catFR1	3	R1652A
331.465	4.3	430565	PROB	4.3	n/a	n/a	n/a	-999	1	[2, 2, 4]	8	catFR1	3	R1652A
335.765	6.6	434865	PROB	6.6	n/a	n/a	n/a	-999	1	[8, 4, 3]	15	catFR1	3	R1652A
342.365	3.507	441465	PROB	3.507	n/a	n/a	n/a	-999	1	[2, 6, 3]	11	catFR1	3	R1652A
345.872	0.0	444966	DISTRACT_END	n/a	n/a	n/a	n/a	-999	1	[0, 0, 0]	n/a	catFR1	3	R1652A
345.872	2.167	444972	STOP	n/a	n/a	n/a	n/a	-999	1	[-999, -999, -999]	n/a	catFR1	3	R1652A
348.039	0.632	447140	REC_START	n/a	n/a	n/a	n/a	-999	1	[0, 0, 0]	n/a	catFR1	3	R1652A
348.671	1.951	447771	REC_WORD	1.951	n/a	LADYBUG	Insects	1	1	[0, 0, 0]	n/a	catFR1	3	R1652A
350.622	2.438	449722	REC_WORD	2.438	n/a	MOSQUITO	Insects	2	1	[0, 0, 0]	n/a	catFR1	3	R1652A
353.06	1.0	452160	REC_WORD	1.0	n/a	CARNATION	Flowers	4	1	[0, 0, 0]	n/a	catFR1	3	R1652A
354.06	2.405	453160	REC_WORD_VV	2.405	n/a	<>	n/a	-999	1	[0, 0, 0]	n/a	catFR1	3	R1652A
356.465	3.434	455565	REC_WORD	3.434	n/a	LILY	n/a	-999	1	[0, 0, 0]	n/a	catFR1	3	R1652A
359.899	1.0	458999	REC_WORD	1.0	n/a	MOTORCYCLE	Vehicles	12	1	[0, 0, 0]	n/a	catFR1	3	R1652A
360.899	5.162	459999	REC_WORD_VV	5.162	n/a	<>	n/a	-999	1	[0, 0, 0]	n/a	catFR1	3	R1652A
366.061	1.37	465161	REC_WORD	1.37	n/a	CAR	Vehicles	5	1	[0, 0, 0]	n/a	catFR1	3	R1652A
367.431	1.0	466531	REC_WORD_VV	1.0	n/a	<>	n/a	-999	1	[0, 0, 0]	n/a	catFR1	3	R1652A
368.431	1.0	467531	REC_WORD_VV	1.0	n/a	<>	n/a	-999	1	[0, 0, 0]	n/a	catFR1	3	R1652A
369.431	3.68	468531	REC_WORD_VV	3.68	n/a	<>	n/a	-999	1	[0, 0, 0]	n/a	catFR1	3	R1652A
373.111	5.065	472211	REC_WORD	5.065	n/a	BEE	Insects	-999	1	[0, 0, 0]	n/a	catFR1	3	R1652A
378.176	36.887	477271	REC_END	n/a	n/a	n/a	n/a	-999	1	[0, 0, 0]	n/a	catFR1	3	R1652A
415.063	10.344	514166	COUNTDOWN_START	n/a	n/a	n/a	n/a	-999	1	[0, 0, 0]	n/a	catFR1	3	R1652A
425.407	0.001	524504	COUNTDOWN_END	n/a	n/a	n/a	n/a	-999	1	[0, 0, 0]	n/a	catFR1	3	R1652A
425.408	1.973	524504	ENCODING_START	n/a	n/a	n/a	n/a	-999	2	[0, 0, 0]	n/a	catFR1	3	R1652A
427.381	1.61	526476	WORD	n/a	wordpools/wordpool_categorized_EN.txt	FLY	Insects	1	2	[0, 0, 0]	n/a	catFR1	3	R1652A
428.991	0.972	528090	WORD_OFF	n/a	n/a	FLY	Insects	1	2	[0, 0, 0]	n/a	catFR1	3	R1652A
429.963	1.602	529058	WORD	n/a	wordpools/wordpool_categorized_EN.txt	ANT	Insects	2	2	[0, 0, 0]	n/a	catFR1	3	R1652A
431.565	0.867	530659	WORD_OFF	n/a	n/a	ANT	Insects	2	2	[0, 0, 0]	n/a	catFR1	3	R1652A
432.432	1.6	531532	WORD	n/a	wordpools/wordpool_categorized_EN.txt	FOOTBALL	Toys	3	2	[0, 0, 0]	n/a	catFR1	3	R1652A
434.032	0.959	533133	WORD_OFF	n/a	n/a	FOOTBALL	Toys	3	2	[0, 0, 0]	n/a	catFR1	3	R1652A
434.991	1.606	534090	WORD	n/a	wordpools/wordpool_categorized_EN.txt	BALL	Toys	4	2	[0, 0, 0]	n/a	catFR1	3	R1652A
436.597	0.867	535691	WORD_OFF	n/a	n/a	BALL	Toys	4	2	[0, 0, 0]	n/a	catFR1	3	R1652A
437.464	1.6	536564	WORD	n/a	wordpools/wordpool_categorized_EN.txt	SOCKS	Clothing	5	2	[0, 0, 0]	n/a	catFR1	3	R1652A
439.064	0.866	538165	WORD_OFF	n/a	n/a	SOCKS	Clothing	5	2	[0, 0, 0]	n/a	catFR1	3	R1652A
439.93	1.602	539026	WORD	n/a	wordpools/wordpool_categorized_EN.txt	COAT	Clothing	6	2	[0, 0, 0]	n/a	catFR1	3	R1652A
441.532	0.892	540627	WORD_OFF	n/a	n/a	COAT	Clothing	6	2	[0, 0, 0]	n/a	catFR1	3	R1652A
442.424	1.6	541524	WORD	n/a	wordpools/wordpool_categorized_EN.txt	BASKETBALL	Toys	7	2	[0, 0, 0]	n/a	catFR1	3	R1652A
444.024	0.908	543125	WORD_OFF	n/a	n/a	BASKETBALL	Toys	7	2	[0, 0, 0]	n/a	catFR1	3	R1652A
444.932	1.607	544033	WORD	n/a	wordpools/wordpool_categorized_EN.txt	FRISBEE	Toys	8	2	[0, 0, 0]	n/a	catFR1	3	R1652A
446.539	0.875	545635	WORD_OFF	n/a	n/a	FRISBEE	Toys	8	2	[0, 0, 0]	n/a	catFR1	3	R1652A
447.414	1.601	546507	WORD	n/a	wordpools/wordpool_categorized_EN.txt	SHOES	Clothing	9	2	[0, 0, 0]	n/a	catFR1	3	R1652A
449.015	0.942	548109	WORD_OFF	n/a	n/a	SHOES	Clothing	9	2	[0, 0, 0]	n/a	catFR1	3	R1652A
449.957	1.6	549053	WORD	n/a	wordpools/wordpool_categorized_EN.txt	UNDERWEAR	Clothing	10	2	[0, 0, 0]	n/a	catFR1	3	R1652A
451.557	0.949	550655	WORD_OFF	n/a	n/a	UNDERWEAR	Clothing	10	2	[0, 0, 0]	n/a	catFR1	3	R1652A
452.506	1.6	551611	WORD	n/a	wordpools/wordpool_categorized_EN.txt	SPIDER	Insects	11	2	[0, 0, 0]	n/a	catFR1	3	R1652A
454.106	0.808	553200	WORD_OFF	n/a	n/a	SPIDER	Insects	11	2	[0, 0, 0]	n/a	catFR1	3	R1652A
454.914	1.602	554013	WORD	n/a	wordpools/wordpool_categorized_EN.txt	CRICKET	Insects	12	2	[0, 0, 0]	n/a	catFR1	3	R1652A
456.516	0.003	555615	WORD_OFF	n/a	n/a	CRICKET	Insects	12	2	[0, 0, 0]	n/a	catFR1	3	R1652A
456.519	0.0	555615	ENCODING_END	n/a	n/a	n/a	n/a	-999	2	[0, 0, 0]	n/a	catFR1	3	R1652A
456.519	0.0	555615	DISTRACT_START	n/a	n/a	n/a	n/a	-999	2	[0, 0, 0]	n/a	catFR1	3	R1652A
456.515	0.004	555615	PROB	0.004	n/a	n/a	n/a	-999	2	[6, 7, 6]	19	catFR1	3	R1652A
456.519	8.062	555619	START	n/a	n/a	n/a	n/a	-999	2	[-999, -999, -999]	n/a	catFR1	3	R1652A
464.581	5.243	563681	PROB	5.243	n/a	n/a	n/a	-999	2	[3, 4, 7]	14	catFR1	3	R1652A
469.824	4.075	568924	PROB	4.075	n/a	n/a	n/a	-999	2	[8, 3, 7]	17	catFR1	3	R1652A
473.899	6.449	572999	PROB	6.449	n/a	n/a	n/a	-999	2	[6, 8, 8]	23	catFR1	3	R1652A
480.348	0.0	579447	DISTRACT_END	n/a	n/a	n/a	n/a	-999	2	[0, 0, 0]	n/a	catFR1	3	R1652A
480.348	2.309	579448	STOP	n/a	n/a	n/a	n/a	-999	2	[-999, -999, -999]	n/a	catFR1	3	R1652A
482.657	0.697	581753	REC_START	n/a	n/a	n/a	n/a	-999	2	[0, 0, 0]	n/a	catFR1	3	R1652A
483.354	1.905	582454	REC_WORD	1.905	n/a	FOOTBALL	Toys	3	2	[0, 0, 0]	n/a	catFR1	3	R1652A
485.259	2.34	584359	REC_WORD	2.34	n/a	BALL	Toys	4	2	[0, 0, 0]	n/a	catFR1	3	R1652A
487.599	1.0	586699	REC_WORD	1.0	n/a	BASKETBALL	Toys	7	2	[0, 0, 0]	n/a	catFR1	3	R1652A
488.599	1.116	587699	REC_WORD_VV	1.116	n/a	<>	n/a	-999	2	[0, 0, 0]	n/a	catFR1	3	R1652A
489.715	2.953	588815	REC_WORD	2.953	n/a	FRISBEE	Toys	8	2	[0, 0, 0]	n/a	catFR1	3	R1652A
492.668	3.943	591768	REC_WORD	3.943	n/a	SHORTS	n/a	-999	2	[0, 0, 0]	n/a	catFR1	3	R1652A
496.611	10.632	595711	REC_WORD	10.632	n/a	SOCKS	Clothing	5	2	[0, 0, 0]	n/a	catFR1	3	R1652A
507.243	5.557	606342	REC_WORD	5.557	n/a	BALL	Toys	4	2	[0, 0, 0]	n/a	catFR1	3	R1652A
512.8	12.08	611896	REC_END	n/a	n/a	n/a	n/a	-999	2	[0, 0, 0]	n/a	catFR1	3	R1652A
524.88	10.351	623979	COUNTDOWN_START	n/a	n/a	n/a	n/a	-999	2	[0, 0, 0]	n/a	catFR1	3	R1652A
535.231	0.0	634329	COUNTDOWN_END	n/a	n/a	n/a	n/a	-999	2	[0, 0, 0]	n/a	catFR1	3	R1652A
535.231	1.932	634329	ENCODING_START	n/a	n/a	n/a	n/a	-999	3	[0, 0, 0]	n/a	catFR1	3	R1652A
537.163	1.602	636265	WORD	n/a	wordpools/wordpool_categorized_EN.txt	BOAT	Vehicles	1	3	[0, 0, 0]	n/a	catFR1	3	R1652A
538.765	0.984	637867	WORD_OFF	n/a	n/a	BOAT	Vehicles	1	3	[0, 0, 0]	n/a	catFR1	3	R1652A
539.749	1.606	638847	WORD	n/a	wordpools/wordpool_categorized_EN.txt	VAN	Vehicles	2	3	[0, 0, 0]	n/a	catFR1	3	R1652A
541.355	0.885	640449	WORD_OFF	n/a	n/a	VAN	Vehicles	2	3	[0, 0, 0]	n/a	catFR1	3	R1652A
542.24	1.6	641333	WORD	n/a	wordpools/wordpool_categorized_EN.txt	PUDDING	Desserts	3	3	[0, 0, 0]	n/a	catFR1	3	R1652A
543.84	0.833	642935	WORD_OFF	n/a	n/a	PUDDING	Desserts	3	3	[0, 0, 0]	n/a	catFR1	3	R1652A
544.673	1.601	643771	WORD	n/a	wordpools/wordpool_categorized_EN.txt	CAKE	Desserts	4	3	[0, 0, 0]	n/a	catFR1	3	R1652A
546.274	0.766	645373	WORD_OFF	n/a	n/a	CAKE	Desserts	4	3	[0, 0, 0]	n/a	catFR1	3	R1652A
547.04	1.609	646138	WORD	n/a	wordpools/wordpool_categorized_EN.txt	DOLPHIN	OceanAnimals	5	3	[0, 0, 0]	n/a	catFR1	3	R1652A
548.649	0.898	647751	WORD_OFF	n/a	n/a	DOLPHIN	OceanAnimals	5	3	[0, 0, 0]	n/a	catFR1	3	R1652A
549.547	1.6	648648	WORD	n/a	wordpools/wordpool_categorized_EN.txt	OCTOPUS	OceanAnimals	6	3	[0, 0, 0]	n/a	catFR1	3	R1652A
551.147	0.918	650249	WORD_OFF	n/a	n/a	OCTOPUS	OceanAnimals	6	3	[0, 0, 0]	n/a	catFR1	3	R1652A
552.065	1.599	651169	WORD	n/a	wordpools/wordpool_categorized_EN.txt	TRUCK	Vehicles	7	3	[0, 0, 0]	n/a	catFR1	3	R1652A
553.664	0.775	652759	WORD_OFF	n/a	n/a	TRUCK	Vehicles	7	3	[0, 0, 0]	n/a	catFR1	3	R1652A
554.439	1.6	653536	WORD	n/a	wordpools/wordpool_categorized_EN.txt	BIKE	Vehicles	8	3	[0, 0, 0]	n/a	catFR1	3	R1652A
556.039	0.826	655137	WORD_OFF	n/a	n/a	BIKE	Vehicles	8	3	[0, 0, 0]	n/a	catFR1	3	R1652A
556.865	1.607	655962	WORD	n/a	wordpools/wordpool_categorized_EN.txt	BROWNIES	Desserts	9	3	[0, 0, 0]	n/a	catFR1	3	R1652A
558.472	0.869	657576	WORD_OFF	n/a	n/a	BROWNIES	Desserts	9	3	[0, 0, 0]	n/a	catFR1	3	R1652A
559.341	1.599	658436	WORD	n/a	wordpools/wordpool_categorized_EN.txt	FUDGE	Desserts	10	3	[0, 0, 0]	n/a	catFR1	3	R1652A
560.94	0.892	660038	WORD_OFF	n/a	n/a	FUDGE	Desserts	10	3	[0, 0, 0]	n/a	catFR1	3	R1652A
561.832	1.6	660934	WORD	n/a	wordpools/wordpool_categorized_EN.txt	TURTLE	OceanAnimals	11	3	[0, 0, 0]	n/a	catFR1	3	R1652A
563.432	0.965	662535	WORD_OFF	n/a	n/a	TURTLE	OceanAnimals	11	3	[0, 0, 0]	n/a	catFR1	3	R1652A
564.397	1.611	663492	WORD	n/a	wordpools/wordpool_categorized_EN.txt	JELLYFISH	OceanAnimals	12	3	[0, 0, 0]	n/a	catFR1	3	R1652A
566.008	0.003	665105	WORD_OFF	n/a	n/a	JELLYFISH	OceanAnimals	12	3	[0, 0, 0]	n/a	catFR1	3	R1652A
566.011	0.0	665105	ENCODING_END	n/a	n/a	n/a	n/a	-999	3	[0, 0, 0]	n/a	catFR1	3	R1652A
566.011	0.0	665105	DISTRACT_START	n/a	n/a	n/a	n/a	-999	3	[0, 0, 0]	n/a	catFR1	3	R1652A
566.008	0.003	665107	PROB	0.003	n/a	n/a	n/a	-999	3	[8, 6, 3]	17	catFR1	3	R1652A
566.011	6.746	665110	START	n/a	n/a	n/a	n/a	-999	3	[-999, -999, -999]	n/a	catFR1	3	R1652A
572.757	3.558	671856	PROB	3.558	n/a	n/a	n/a	-999	3	[1, 3, 1]	5	catFR1	3	R1652A
576.315	3.758	675414	PROB	3.758	n/a	n/a	n/a	-999	3	[2, 7, 2]	11	catFR1	3	R1652A
580.073	7.759	679172	PROB	7.759	n/a	n/a	n/a	-999	3	[6, 7, 4]	17	catFR1	3	R1652A
587.832	0.0	686929	DISTRACT_END	n/a	n/a	n/a	n/a	-999	3	[0, 0, 0]	n/a	catFR1	3	R1652A
587.832	2.051	686931	STOP	n/a	n/a	n/a	n/a	-999	3	[-999, -999, -999]	n/a	catFR1	3	R1652A
589.883	2.811	688985	REC_START	n/a	n/a	n/a	n/a	-999	3	[0, 0, 0]	n/a	catFR1	3	R1652A
592.694	6.626	691793	REC_WORD	6.626	n/a	OCTOPUS	OceanAnimals	6	3	[0, 0, 0]	n/a	catFR1	3	R1652A
599.32	1.0	698419	REC_WORD	1.0	n/a	BROWNIES	Desserts	9	3	[0, 0, 0]	n/a	catFR1	3	R1652A
600.32	1.84	699419	REC_WORD_VV	1.84	n/a	<>	n/a	-999	3	[0, 0, 0]	n/a	catFR1	3	R1652A
602.16	9.307	701259	REC_WORD	9.307	n/a	CAKE	Desserts	4	3	[0, 0, 0]	n/a	catFR1	3	R1652A
611.467	8.555	710566	REC_WORD	8.555	n/a	TRUCK	Vehicles	7	3	[0, 0, 0]	n/a	catFR1	3	R1652A
620.022	17.194	719115	REC_END	n/a	n/a	n/a	n/a	-999	3	[0, 0, 0]	n/a	catFR1	3	R1652A
637.216	10.34	736314	COUNTDOWN_START	n/a	n/a	n/a	n/a	-999	3	[0, 0, 0]	n/a	catFR1	3	R1652A
647.556	0.0	746652	COUNTDOWN_END	n/a	n/a	n/a	n/a	-999	3	[0, 0, 0]	n/a	catFR1	3	R1652A
647.556	2.116	746652	ENCODING_START	n/a	n/a	n/a	n/a	-999	4	[0, 0, 0]	n/a	catFR1	3	R1652A
649.672	1.602	748768	WORD	n/a	wordpools/wordpool_categorized_EN.txt	MOPED	Vehicles	1	4	[0, 0, 0]	n/a	catFR1	3	R1652A
651.274	0.975	750369	WORD_OFF	n/a	n/a	MOPED	Vehicles	1	4	[0, 0, 0]	n/a	catFR1	3	R1652A
652.249	1.607	751349	WORD	n/a	wordpools/wordpool_categorized_EN.txt	JEEP	Vehicles	2	4	[0, 0, 0]	n/a	catFR1	3	R1652A
653.856	0.908	752951	WORD_OFF	n/a	n/a	JEEP	Vehicles	2	4	[0, 0, 0]	n/a	catFR1	3	R1652A
654.764	1.6	753859	WORD	n/a	wordpools/wordpool_categorized_EN.txt	DRYER	Appliances	3	4	[0, 0, 0]	n/a	catFR1	3	R1652A
656.364	0.893	755461	WORD_OFF	n/a	n/a	DRYER	Appliances	3	4	[0, 0, 0]	n/a	catFR1	3	R1652A
657.257	1.608	756357	WORD	n/a	wordpools/wordpool_categorized_EN.txt	VACUUM	Appliances	4	4	[0, 0, 0]	n/a	catFR1	3	R1652A
658.865	0.84	757959	WORD_OFF	n/a	n/a	VACUUM	Appliances	4	4	[0, 0, 0]	n/a	catFR1	3	R1652A
659.705	1.602	758807	WORD	n/a	wordpools/wordpool_categorized_EN.txt	ONION	Vegetables	5	4	[0, 0, 0]	n/a	catFR1	3	R1652A
661.307	0.817	760409	WORD_OFF	n/a	n/a	ONION	Vegetables	5	4	[0, 0, 0]	n/a	catFR1	3	R1652A
662.124	1.608	761221	WORD	n/a	wordpools/wordpool_categorized_EN.txt	CAULIFLOWER	Vegetables	6	4	[0, 0, 0]	n/a	catFR1	3	R1652A
663.732	0.941	762835	WORD_OFF	n/a	n/a	CAULIFLOWER	Vegetables	6	4	[0, 0, 0]	n/a	catFR1	3	R1652A
664.673	1.601	763767	WORD	n/a	wordpools/wordpool_categorized_EN.txt	DISHWASHER	Appliances	7	4	[0, 0, 0]	n/a	catFR1	3	R1652A
666.274	0.815	765369	WORD_OFF	n/a	n/a	DISHWASHER	Appliances	7	4	[0, 0, 0]	n/a	catFR1	3	R1652A
667.089	1.602	766181	WORD	n/a	wordpools/wordpool_categorized_EN.txt	MIXER	Appliances	8	4	[0, 0, 0]	n/a	catFR1	3	R1652A
668.691	0.966	767783	WORD_OFF	n/a	n/a	MIXER	Appliances	8	4	[0, 0, 0]	n/a	catFR1	3	R1652A
669.657	1.6	768751	WORD	n/a	wordpools/wordpool_categorized_EN.txt	CELERY	Vegetables	9	4	[0, 0, 0]	n/a	catFR1	3	R1652A
671.257	0.833	770353	WORD_OFF	n/a	n/a	CELERY	Vegetables	9	4	[0, 0, 0]	n/a	catFR1	3	R1652A
672.09	1.6	771189	WORD	n/a	wordpools/wordpool_categorized_EN.txt	LETTUCE	Vegetables	10	4	[0, 0, 0]	n/a	catFR1	3	R1652A
673.69	0.782	772791	WORD_OFF	n/a	n/a	LETTUCE	Vegetables	10	4	[0, 0, 0]	n/a	catFR1	3	R1652A
674.472	1.602	773568	WORD	n/a	wordpools/wordpool_categorized_EN.txt	SCOOTER	Vehicles	11	4	[0, 0, 0]	n/a	catFR1	3	R1652A
676.074	0.817	775169	WORD_OFF	n/a	n/a	SCOOTER	Vehicles	11	4	[0, 0, 0]	n/a	catFR1	3	R1652A
676.891	1.599	775994	WORD	n/a	wordpools/wordpool_categorized_EN.txt	BUS	Vehicles	12	4	[0, 0, 0]	n/a	catFR1	3	R1652A
678.49	0.0	777584	WORD_OFF	n/a	n/a	BUS	Vehicles	12	4	[0, 0, 0]	n/a	catFR1	3	R1652A
678.49	0.004	777589	PROB	0.004	n/a	n/a	n/a	-999	4	[5, 3, 6]	14	catFR1	3	R1652A
678.494	0.0	777593	START	n/a	n/a	n/a	n/a	-999	4	[-999, -999, -999]	n/a	catFR1	3	R1652A
678.493	0.001	777595	ENCODING_END	n/a	n/a	n/a	n/a	-999	4	[0, 0, 0]	n/a	catFR1	3	R1652A
678.494	9.554	777595	DISTRACT_START	n/a	n/a	n/a	n/a	-999	4	[0, 0, 0]	n/a	catFR1	3	R1652A
688.048	6.801	787147	PROB	6.801	n/a	n/a	n/a	-999	4	[4, 3, 5]	12	catFR1	3	R1652A
694.849	4.465	793948	PROB	4.465	n/a	n/a	n/a	-999	4	[3, 2, 4]	9	catFR1	3	R1652A
699.314	0.0	798413	STOP	n/a	n/a	n/a	n/a	-999	4	[-999, -999, -999]	n/a	catFR1	3	R1652A
699.314	2.075	798415	DISTRACT_END	n/a	n/a	n/a	n/a	-999	4	[0, 0, 0]	n/a	catFR1	3	R1652A
701.389	0.732	800483	REC_START	n/a	n/a	n/a	n/a	-999	4	[0, 0, 0]	n/a	catFR1	3	R1652A
702.121	2.018	801220	REC_WORD	2.018	n/a	MIXER	Appliances	8	4	[0, 0, 0]	n/a	catFR1	3	R1652A
704.139	3.21	803238	REC_WORD	3.21	n/a	ONION	Vegetables	5	4	[0, 0, 0]	n/a	catFR1	3	R1652A
707.349	3.551	806448	REC_WORD	3.551	n/a	DRYER	Appliances	3	4	[0, 0, 0]	n/a	catFR1	3	R1652A
710.9	2.295	809999	REC_WORD	2.295	n/a	MOPED	Vehicles	1	4	[0, 0, 0]	n/a	catFR1	3	R1652A
713.195	6.162	812294	REC_WORD	6.162	n/a	JEEP	Vehicles	2	4	[0, 0, 0]	n/a	catFR1	3	R1652A
719.357	12.168	818456	REC_WORD	12.168	n/a	DISHWASHER	Appliances	7	4	[0, 0, 0]	n/a	catFR1	3	R1652A
731.525	4.806	830626	REC_END	n/a	n/a	n/a	n/a	-999	4	[0, 0, 0]	n/a	catFR1	3	R1652A
736.331	10.343	835430	COUNTDOWN_START	n/a	n/a	n/a	n/a	-999	4	[0, 0, 0]	n/a	catFR1	3	R1652A
746.674	0.001	845768	COUNTDOWN_END	n/a	n/a	n/a	n/a	-999	4	[0, 0, 0]	n/a	catFR1	3	R1652A
746.675	2.348	845780	ENCODING_START	n/a	n/a	n/a	n/a	-999	5	[0, 0, 0]	n/a	catFR1	3	R1652A
749.023	1.6	848123	WORD	n/a	wordpools/wordpool_categorized_EN.txt	IRON	Appliances	1	5	[0, 0, 0]	n/a	catFR1	3	R1652A
750.623	0.851	849725	WORD_OFF	n/a	n/a	IRON	Appliances	1	5	[0, 0, 0]	n/a	catFR1	3	R1652A
751.474	1.606	850573	WORD	n/a	wordpools/wordpool_categorized_EN.txt	FREEZER	Appliances	2	5	[0, 0, 0]	n/a	catFR1	3	R1652A
753.08	0.983	852175	WORD_OFF	n/a	n/a	FREEZER	Appliances	2	5	[0, 0, 0]	n/a	catFR1	3	R1652A
754.063	1.6	853155	WORD	n/a	wordpools/wordpool_categorized_EN.txt	TABLE	Furniture	3	5	[0, 0, 0]	n/a	catFR1	3	R1652A
755.663	0.978	854756	WORD_OFF	n/a	n/a	TABLE	Furniture	3	5	[0, 0, 0]	n/a	catFR1	3	R1652A
756.641	1.608	855736	WORD	n/a	wordpools/wordpool_categorized_EN.txt	CHAIR	Furniture	4	5	[0, 0, 0]	n/a	catFR1	3	R1652A
758.249	0.81	857350	WORD_OFF	n/a	n/a	CHAIR	Furniture	4	5	[0, 0, 0]	n/a	catFR1	3	R1652A
759.059	1.599	858151	WORD	n/a	wordpools/wordpool_categorized_EN.txt	MARBLES	Toys	5	5	[0, 0, 0]	n/a	catFR1	3	R1652A
760.658	0.989	859752	WORD_OFF	n/a	n/a	MARBLES	Toys	5	5	[0, 0, 0]	n/a	catFR1	3	R1652A
761.647	1.602	860744	WORD	n/a	wordpools/wordpool_categorized_EN.txt	PUZZLE	Toys	6	5	[0, 0, 0]	n/a	catFR1	3	R1652A
763.249	0.858	862346	WORD_OFF	n/a	n/a	PUZZLE	Toys	6	5	[0, 0, 0]	n/a	catFR1	3	R1652A
764.107	1.599	863206	WORD	n/a	wordpools/wordpool_categorized_EN.txt	OVEN	Appliances	7	5	[0, 0, 0]	n/a	catFR1	3	R1652A
765.706	0.776	864808	WORD_OFF	n/a	n/a	OVEN	Appliances	7	5	[0, 0, 0]	n/a	catFR1	3	R1652A
766.482	1.6	865585	WORD	n/a	wordpools/wordpool_categorized_EN.txt	TOASTER	Appliances	8	5	[0, 0, 0]	n/a	catFR1	3	R1652A
768.082	0.959	867186	WORD_OFF	n/a	n/a	TOASTER	Appliances	8	5	[0, 0, 0]	n/a	catFR1	3	R1652A
769.041	1.608	868142	WORD	n/a	wordpools/wordpool_categorized_EN.txt	DRESSER	Furniture	9	5	[0, 0, 0]	n/a	catFR1	3	R1652A
770.649	0.958	869744	WORD_OFF	n/a	n/a	DRESSER	Furniture	9	5	[0, 0, 0]	n/a	catFR1	3	R1652A
771.607	1.607	870700	WORD	n/a	wordpools/wordpool_categorized_EN.txt	COUCH	Furniture	10	5	[0, 0, 0]	n/a	catFR1	3	R1652A
773.214	0.951	872313	WORD_OFF	n/a	n/a	COUCH	Furniture	10	5	[0, 0, 0]	n/a	catFR1	3	R1652A
774.165	1.609	873258	WORD	n/a	wordpools/wordpool_categorized_EN.txt	DOLL	Toys	11	5	[0, 0, 0]	n/a	catFR1	3	R1652A
775.774	0.881	874871	WORD_OFF	n/a	n/a	DOLL	Toys	11	5	[0, 0, 0]	n/a	catFR1	3	R1652A
776.655	1.602	875756	WORD	n/a	wordpools/wordpool_categorized_EN.txt	SLINKY	Toys	12	5	[0, 0, 0]	n/a	catFR1	3	R1652A
778.257	0.001	877355	PROB	0.001	n/a	n/a	n/a	-999	5	[4, 7, 3]	14	catFR1	3	R1652A
778.258	0.003	877357	WORD_OFF	n/a	n/a	SLINKY	Toys	12	5	[0, 0, 0]	n/a	catFR1	3	R1652A
778.261	0.0	877357	ENCODING_END	n/a	n/a	n/a	n/a	-999	5	[0, 0, 0]	n/a	catFR1	3	R1652A
778.261	0.0	877357	DISTRACT_START	n/a	n/a	n/a	n/a	-999	5	[0, 0, 0]	n/a	catFR1	3	R1652A
778.261	5.479	877359	START	n/a	n/a	n/a	n/a	-999	5	[-999, -999, -999]	n/a	catFR1	3	R1652A
783.74	4.467	882838	PROB	4.467	n/a	n/a	n/a	-999	5	[3, 7, 1]	11	catFR1	3	R1652A
788.207	4.075	887305	PROB	4.075	n/a	n/a	n/a	-999	5	[3, 7, 2]	12	catFR1	3	R1652A
792.282	5.574	891380	PROB	5.574	n/a	n/a	n/a	-999	5	[4, 3, 2]	9	catFR1	3	R1652A
797.856	5.526	896954	PROB	5.526	n/a	n/a	n/a	-999	5	[6, 7, 1]	14	catFR1	3	R1652A
803.382	0.0	902480	DISTRACT_END	n/a	n/a	n/a	n/a	-999	5	[0, 0, 0]	n/a	catFR1	3	R1652A
803.382	2.009	902480	STOP	n/a	n/a	n/a	n/a	-999	5	[-999, -999, -999]	n/a	catFR1	3	R1652A
805.391	3.265	904488	REC_START	n/a	n/a	n/a	n/a	-999	5	[0, 0, 0]	n/a	catFR1	3	R1652A
808.656	2.132	907754	REC_WORD	2.132	n/a	MARBLES	Toys	5	5	[0, 0, 0]	n/a	catFR1	3	R1652A
810.788	6.765	909886	REC_WORD	6.765	n/a	PUZZLE	Toys	6	5	[0, 0, 0]	n/a	catFR1	3	R1652A
817.553	2.85	916651	REC_WORD	2.85	n/a	IRON	Appliances	1	5	[0, 0, 0]	n/a	catFR1	3	R1652A
820.403	10.756	919501	REC_WORD	10.756	n/a	MIXER	Appliances	-999	5	[0, 0, 0]	n/a	catFR1	3	R1652A
831.159	2.109	930257	REC_WORD	2.109	n/a	COUCH	Furniture	10	5	[0, 0, 0]	n/a	catFR1	3	R1652A
833.268	2.266	932366	REC_WORD	2.266	n/a	DRESSER	Furniture	9	5	[0, 0, 0]	n/a	catFR1	3	R1652A
835.534	4.671	934630	REC_END	n/a	n/a	n/a	n/a	-999	5	[0, 0, 0]	n/a	catFR1	3	R1652A
840.205	10.342	939303	COUNTDOWN_START	n/a	n/a	n/a	n/a	-999	5	[0, 0, 0]	n/a	catFR1	3	R1652A
850.547	0.0	949642	COUNTDOWN_END	n/a	n/a	n/a	n/a	-999	5	[0, 0, 0]	n/a	catFR1	3	R1652A
850.547	2.068	949642	ENCODING_START	n/a	n/a	n/a	n/a	-999	6	[0, 0, 0]	n/a	catFR1	3	R1652A
852.615	1.6	951709	WORD	n/a	wordpools/wordpool_categorized_EN.txt	CUPCAKE	Desserts	1	6	[0, 0, 0]	n/a	catFR1	3	R1652A
854.215	0.917	953311	WORD_OFF	n/a	n/a	CUPCAKE	Desserts	1	6	[0, 0, 0]	n/a	catFR1	3	R1652A
855.132	1.6	954231	WORD	n/a	wordpools/wordpool_categorized_EN.txt	COOKIE	Desserts	2	6	[0, 0, 0]	n/a	catFR1	3	R1652A
856.732	0.915	955833	WORD_OFF	n/a	n/a	COOKIE	Desserts	2	6	[0, 0, 0]	n/a	catFR1	3	R1652A
857.647	1.602	956741	WORD	n/a	wordpools/wordpool_categorized_EN.txt	RECLINER	Furniture	3	6	[0, 0, 0]	n/a	catFR1	3	R1652A
859.249	0.842	958342	WORD_OFF	n/a	n/a	RECLINER	Furniture	3	6	[0, 0, 0]	n/a	catFR1	3	R1652A
860.091	1.608	959191	WORD	n/a	wordpools/wordpool_categorized_EN.txt	NIGHTSTAND	Furniture	4	6	[0, 0, 0]	n/a	catFR1	3	R1652A
861.699	0.934	960805	WORD_OFF	n/a	n/a	NIGHTSTAND	Furniture	4	6	[0, 0, 0]	n/a	catFR1	3	R1652A
862.633	1.608	961725	WORD	n/a	wordpools/wordpool_categorized_EN.txt	SNOW	Weather	5	6	[0, 0, 0]	n/a	catFR1	3	R1652A
864.241	0.906	963338	WORD_OFF	n/a	n/a	SNOW	Weather	5	6	[0, 0, 0]	n/a	catFR1	3	R1652A
865.147	1.6	964247	WORD	n/a	wordpools/wordpool_categorized_EN.txt	HUMIDITY	Weather	6	6	[0, 0, 0]	n/a	catFR1	3	R1652A
866.747	0.875	965848	WORD_OFF	n/a	n/a	HUMIDITY	Weather	6	6	[0, 0, 0]	n/a	catFR1	3	R1652A
867.622	1.601	966721	WORD	n/a	wordpools/wordpool_categorized_EN.txt	BED	Furniture	7	6	[0, 0, 0]	n/a	catFR1	3	R1652A
869.223	0.799	968322	WORD_OFF	n/a	n/a	BED	Furniture	7	6	[0, 0, 0]	n/a	catFR1	3	R1652A
870.022	1.602	969123	WORD	n/a	wordpools/wordpool_categorized_EN.txt	SHELF	Furniture	8	6	[0, 0, 0]	n/a	catFR1	3	R1652A
871.624	0.874	970725	WORD_OFF	n/a	n/a	SHELF	Furniture	8	6	[0, 0, 0]	n/a	catFR1	3	R1652A
872.498	1.601	971597	WORD	n/a	wordpools/wordpool_categorized_EN.txt	LIGHTNING	Weather	9	6	[0, 0, 0]	n/a	catFR1	3	R1652A
874.099	0.981	973199	WORD_OFF	n/a	n/a	LIGHTNING	Weather	9	6	[0, 0, 0]	n/a	catFR1	3	R1652A
875.08	1.601	974179	WORD	n/a	wordpools/wordpool_categorized_EN.txt	WIND	Weather	10	6	[0, 0, 0]	n/a	catFR1	3	R1652A
876.681	0.908	975780	WORD_OFF	n/a	n/a	WIND	Weather	10	6	[0, 0, 0]	n/a	catFR1	3	R1652A
877.589	1.61	976688	WORD	n/a	wordpools/wordpool_categorized_EN.txt	JELLO	Desserts	11	6	[0, 0, 0]	n/a	catFR1	3	R1652A
879.199	0.967	978290	WORD_OFF	n/a	n/a	JELLO	Desserts	11	6	[0, 0, 0]	n/a	catFR1	3	R1652A
880.166	1.607	979258	WORD	n/a	wordpools/wordpool_categorized_EN.txt	CHEESECAKE	Desserts	12	6	[0, 0, 0]	n/a	catFR1	3	R1652A
881.773	0.0	980871	PROB	0.0	n/a	n/a	n/a	-999	6	[3, 3, 2]	8	catFR1	3	R1652A
881.773	0.003	980872	WORD_OFF	n/a	n/a	CHEESECAKE	Desserts	12	6	[0, 0, 0]	n/a	catFR1	3	R1652A
881.776	0.0	980872	ENCODING_END	n/a	n/a	n/a	n/a	-999	6	[0, 0, 0]	n/a	catFR1	3	R1652A
881.776	0.0	980872	DISTRACT_START	n/a	n/a	n/a	n/a	-999	6	[0, 0, 0]	n/a	catFR1	3	R1652A
881.776	5.705	980874	START	n/a	n/a	n/a	n/a	-999	6	[-999, -999, -999]	n/a	catFR1	3	R1652A
887.481	4.458	986579	PROB	4.458	n/a	n/a	n/a	-999	6	[3, 6, 4]	13	catFR1	3	R1652A
891.939	8.809	991037	PROB	8.809	n/a	n/a	n/a	-999	6	[5, 7, 6]	18	catFR1	3	R1652A
900.748	9.324	999846	PROB	9.324	n/a	n/a	n/a	-999	6	[5, 6, 7]	18	catFR1	3	R1652A
910.072	0.0	1009170	STOP	n/a	n/a	n/a	n/a	-999	6	[-999, -999, -999]	n/a	catFR1	3	R1652A
910.072	2.042	1009173	DISTRACT_END	n/a	n/a	n/a	n/a	-999	6	[0, 0, 0]	n/a	catFR1	3	R1652A
912.114	0.75	1011217	REC_START	n/a	n/a	n/a	n/a	-999	6	[0, 0, 0]	n/a	catFR1	3	R1652A
912.864	2.127	1011962	REC_WORD	2.127	n/a	CUPCAKE	Desserts	1	6	[0, 0, 0]	n/a	catFR1	3	R1652A
914.991	2.239	1014089	REC_WORD	2.239	n/a	COOKIE	Desserts	2	6	[0, 0, 0]	n/a	catFR1	3	R1652A
917.23	2.133	1016328	REC_WORD	2.133	n/a	BED	Furniture	7	6	[0, 0, 0]	n/a	catFR1	3	R1652A
919.363	2.42	1018461	REC_WORD	2.42	n/a	SHELF	Furniture	8	6	[0, 0, 0]	n/a	catFR1	3	R1652A
921.783	1.0	1020881	REC_WORD	1.0	n/a	CHEESECAKE	Desserts	12	6	[0, 0, 0]	n/a	catFR1	3	R1652A
922.783	19.476	1021881	REC_WORD_VV	19.476	n/a	<>	n/a	-999	6	[0, 0, 0]	n/a	catFR1	3	R1652A
942.259	3.832	1041360	REC_END	n/a	n/a	n/a	n/a	-999	6	[0, 0, 0]	n/a	catFR1	3	R1652A
946.091	10.34	1045184	COUNTDOWN_START	n/a	n/a	n/a	n/a	-999	6	[0, 0, 0]	n/a	catFR1	3	R1652A
956.431	0.0	1055523	COUNTDOWN_END	n/a	n/a	n/a	n/a	-999	6	[0, 0, 0]	n/a	catFR1	3	R1652A
956.431	2.075	1055534	ENCODING_START	n/a	n/a	n/a	n/a	-999	7	[0, 0, 0]	n/a	catFR1	3	R1652A
958.506	1.602	1057602	WORD	n/a	wordpools/wordpool_categorized_EN.txt	LIME	Fruit	1	7	[0, 0, 0]	n/a	catFR1	3	R1652A
960.108	0.791	1059204	WORD_OFF	n/a	n/a	LIME	Fruit	1	7	[0, 0, 0]	n/a	catFR1	3	R1652A
960.899	1.606	1059993	WORD	n/a	wordpools/wordpool_categorized_EN.txt	BANANA	Fruit	2	7	[0, 0, 0]	n/a	catFR1	3	R1652A
962.505	0.817	1061606	WORD_OFF	n/a	n/a	BANANA	Fruit	2	7	[0, 0, 0]	n/a	catFR1	3	R1652A
963.322	1.602	1062419	WORD	n/a	wordpools/wordpool_categorized_EN.txt	LILY	Flowers	3	7	[0, 0, 0]	n/a	catFR1	3	R1652A
964.924	0.942	1064020	WORD_OFF	n/a	n/a	LILY	Flowers	3	7	[0, 0, 0]	n/a	catFR1	3	R1652A
965.866	1.608	1064964	WORD	n/a	wordpools/wordpool_categorized_EN.txt	VIOLET	Flowers	4	7	[0, 0, 0]	n/a	catFR1	3	R1652A
967.474	0.881	1066566	WORD_OFF	n/a	n/a	VIOLET	Flowers	4	7	[0, 0, 0]	n/a	catFR1	3	R1652A
968.355	1.6	1067450	WORD	n/a	wordpools/wordpool_categorized_EN.txt	STRAINER	KitchenTools	5	7	[0, 0, 0]	n/a	catFR1	3	R1652A
969.955	0.793	1069052	WORD_OFF	n/a	n/a	STRAINER	KitchenTools	5	7	[0, 0, 0]	n/a	catFR1	3	R1652A
970.748	1.609	1069841	WORD	n/a	wordpools/wordpool_categorized_EN.txt	LADLE	KitchenTools	6	7	[0, 0, 0]	n/a	catFR1	3	R1652A
972.357	0.933	1071454	WORD_OFF	n/a	n/a	LADLE	KitchenTools	6	7	[0, 0, 0]	n/a	catFR1	3	R1652A
973.29	1.601	1072387	WORD	n/a	wordpools/wordpool_categorized_EN.txt	MARIGOLD	Flowers	7	7	[0, 0, 0]	n/a	catFR1	3	R1652A
974.891	0.891	1073988	WORD_OFF	n/a	n/a	MARIGOLD	Flowers	7	7	[0, 0, 0]	n/a	catFR1	3	R1652A
975.782	1.601	1074884	WORD	n/a	wordpools/wordpool_categorized_EN.txt	TULIP	Flowers	8	7	[0, 0, 0]	n/a	catFR1	3	R1652A
977.383	0.756	1076474	WORD_OFF	n/a	n/a	TULIP	Flowers	8	7	[0, 0, 0]	n/a	catFR1	3	R1652A
978.139	1.601	1077239	WORD	n/a	wordpools/wordpool_categorized_EN.txt	LEMON	Fruit	9	7	[0, 0, 0]	n/a	catFR1	3	R1652A
979.74	0.801	1078841	WORD_OFF	n/a	n/a	LEMON	Fruit	9	7	[0, 0, 0]	n/a	catFR1	3	R1652A
980.541	1.607	1079641	WORD	n/a	wordpools/wordpool_categorized_EN.txt	PEACH	Fruit	10	7	[0, 0, 0]	n/a	catFR1	3	R1652A
982.148	0.891	1081243	WORD_OFF	n/a	n/a	PEACH	Fruit	10	7	[0, 0, 0]	n/a	catFR1	3	R1652A
983.039	1.602	1082139	WORD	n/a	wordpools/wordpool_categorized_EN.txt	FORK	KitchenTools	11	7	[0, 0, 0]	n/a	catFR1	3	R1652A
984.641	0.789	1083741	WORD_OFF	n/a	n/a	FORK	KitchenTools	11	7	[0, 0, 0]	n/a	catFR1	3	R1652A
985.43	1.61	1084530	WORD	n/a	wordpools/wordpool_categorized_EN.txt	SPOON	KitchenTools	12	7	[0, 0, 0]	n/a	catFR1	3	R1652A
987.04	0.004	1086138	PROB	0.004	n/a	n/a	n/a	-999	7	[8, 2, 4]	14	catFR1	3	R1652A
987.044	0.0	1086142	START	n/a	n/a	n/a	n/a	-999	7	[-999, -999, -999]	n/a	catFR1	3	R1652A
987.041	0.003	1086143	WORD_OFF	n/a	n/a	SPOON	KitchenTools	12	7	[0, 0, 0]	n/a	catFR1	3	R1652A
987.044	0.0	1086143	ENCODING_END	n/a	n/a	n/a	n/a	-999	7	[0, 0, 0]	n/a	catFR1	3	R1652A
987.044	8.271	1086143	DISTRACT_START	n/a	n/a	n/a	n/a	-999	7	[0, 0, 0]	n/a	catFR1	3	R1652A
995.315	5.641	1094413	PROB	5.641	n/a	n/a	n/a	-999	7	[1, 5, 3]	9	catFR1	3	R1652A
1000.956	4.5	1100054	PROB	4.5	n/a	n/a	n/a	-999	7	[3, 4, 1]	8	catFR1	3	R1652A
1005.456	7.966	1104554	PROB	7.966	n/a	n/a	n/a	-999	7	[7, 5, 6]	18	catFR1	3	R1652A
1013.422	0.0	1112520	STOP	n/a	n/a	n/a	n/a	-999	7	[-999, -999, -999]	n/a	catFR1	3	R1652A
1013.422	2.077	1112521	DISTRACT_END	n/a	n/a	n/a	n/a	-999	7	[0, 0, 0]	n/a	catFR1	3	R1652A
1015.499	0.389	1114600	REC_START	n/a	n/a	n/a	n/a	-999	7	[0, 0, 0]	n/a	catFR1	3	R1652A
1015.888	2.222	1114986	REC_WORD	2.222	n/a	LIME	Fruit	1	7	[0, 0, 0]	n/a	catFR1	3	R1652A
1018.11	2.145	1117207	REC_WORD	2.145	n/a	LEMON	Fruit	9	7	[0, 0, 0]	n/a	catFR1	3	R1652A
1020.255	12.609	1119352	REC_WORD	12.609	n/a	BANANA	Fruit	2	7	[0, 0, 0]	n/a	catFR1	3	R1652A
1032.864	5.222	1131961	REC_WORD	5.222	n/a	LILAC	n/a	-999	7	[0, 0, 0]	n/a	catFR1	3	R1652A
1038.086	7.556	1137183	REC_WORD	7.556	n/a	VIOLET	Flowers	4	7	[0, 0, 0]	n/a	catFR1	3	R1652A
1045.642	5.146	1144743	REC_END	n/a	n/a	n/a	n/a	-999	7	[0, 0, 0]	n/a	catFR1	3	R1652A
1050.788	10.343	1149882	COUNTDOWN_START	n/a	n/a	n/a	n/a	-999	7	[0, 0, 0]	n/a	catFR1	3	R1652A
1061.131	0.0	1160232	COUNTDOWN_END	n/a	n/a	n/a	n/a	-999	7	[0, 0, 0]	n/a	catFR1	3	R1652A
1061.131	2.058	1160232	ENCODING_START	n/a	n/a	n/a	n/a	-999	8	[0, 0, 0]	n/a	catFR1	3	R1652A
1063.189	1.61	1162288	WORD	n/a	wordpools/wordpool_categorized_EN.txt	HEAD	BodyParts	1	8	[0, 0, 0]	n/a	catFR1	3	R1652A
1064.799	0.956	1163901	WORD_OFF	n/a	n/a	HEAD	BodyParts	1	8	[0, 0, 0]	n/a	catFR1	3	R1652A
1065.755	1.611	1164846	WORD	n/a	wordpools/wordpool_categorized_EN.txt	EAR	BodyParts	2	8	[0, 0, 0]	n/a	catFR1	3	R1652A
1067.366	0.899	1166459	WORD_OFF	n/a	n/a	EAR	BodyParts	2	8	[0, 0, 0]	n/a	catFR1	3	R1652A
1068.265	1.601	1167367	WORD	n/a	wordpools/wordpool_categorized_EN.txt	DOVE	Birds	3	8	[0, 0, 0]	n/a	catFR1	3	R1652A
1069.866	0.999	1168957	WORD_OFF	n/a	n/a	DOVE	Birds	3	8	[0, 0, 0]	n/a	catFR1	3	R1652A
1070.865	1.601	1169961	WORD	n/a	wordpools/wordpool_categorized_EN.txt	ROBIN	Birds	4	8	[0, 0, 0]	n/a	catFR1	3	R1652A
1072.466	0.917	1171563	WORD_OFF	n/a	n/a	ROBIN	Birds	4	8	[0, 0, 0]	n/a	catFR1	3	R1652A
1073.383	1.607	1172483	WORD	n/a	wordpools/wordpool_categorized_EN.txt	ORANGUTAN	Zoo	5	8	[0, 0, 0]	n/a	catFR1	3	R1652A
1074.99	0.982	1174084	WORD_OFF	n/a	n/a	ORANGUTAN	Zoo	5	8	[0, 0, 0]	n/a	catFR1	3	R1652A
1075.972	1.601	1175064	WORD	n/a	wordpools/wordpool_categorized_EN.txt	LION	Zoo	6	8	[0, 0, 0]	n/a	catFR1	3	R1652A
1077.573	0.799	1176666	WORD_OFF	n/a	n/a	LION	Zoo	6	8	[0, 0, 0]	n/a	catFR1	3	R1652A
1078.372	1.6	1177467	WORD	n/a	wordpools/wordpool_categorized_EN.txt	BLUEBIRD	Birds	7	8	[0, 0, 0]	n/a	catFR1	3	R1652A
1079.972	0.802	1179068	WORD_OFF	n/a	n/a	BLUEBIRD	Birds	7	8	[0, 0, 0]	n/a	catFR1	3	R1652A
1080.774	1.6	1179869	WORD	n/a	wordpools/wordpool_categorized_EN.txt	DUCK	Birds	8	8	[0, 0, 0]	n/a	catFR1	3	R1652A
1082.374	0.858	1181471	WORD_OFF	n/a	n/a	DUCK	Birds	8	8	[0, 0, 0]	n/a	catFR1	3	R1652A
1083.232	1.609	1182331	WORD	n/a	wordpools/wordpool_categorized_EN.txt	PANDA	Zoo	9	8	[0, 0, 0]	n/a	catFR1	3	R1652A
1084.841	0.973	1183933	WORD_OFF	n/a	n/a	PANDA	Zoo	9	8	[0, 0, 0]	n/a	catFR1	3	R1652A
1085.814	1.61	1184913	WORD	n/a	wordpools/wordpool_categorized_EN.txt	TIGER	Zoo	10	8	[0, 0, 0]	n/a	catFR1	3	R1652A
1087.424	0.875	1186526	WORD_OFF	n/a	n/a	TIGER	Zoo	10	8	[0, 0, 0]	n/a	catFR1	3	R1652A
1088.299	1.6	1187399	WORD	n/a	wordpools/wordpool_categorized_EN.txt	NOSE	BodyParts	11	8	[0, 0, 0]	n/a	catFR1	3	R1652A
1089.899	0.959	1189000	WORD_OFF	n/a	n/a	NOSE	BodyParts	11	8	[0, 0, 0]	n/a	catFR1	3	R1652A
1090.858	1.599	1189956	WORD	n/a	wordpools/wordpool_categorized_EN.txt	ELBOW	BodyParts	12	8	[0, 0, 0]	n/a	catFR1	3	R1652A
1092.457	0.001	1191554	PROB	0.001	n/a	n/a	n/a	-999	8	[7, 1, 3]	11	catFR1	3	R1652A
1092.458	0.003	1191558	WORD_OFF	n/a	n/a	ELBOW	BodyParts	12	8	[0, 0, 0]	n/a	catFR1	3	R1652A
1092.461	0.0	1191558	ENCODING_END	n/a	n/a	n/a	n/a	-999	8	[0, 0, 0]	n/a	catFR1	3	R1652A
1092.461	0.0	1191558	DISTRACT_START	n/a	n/a	n/a	n/a	-999	8	[0, 0, 0]	n/a	catFR1	3	R1652A
1092.461	6.337	1191558	START	n/a	n/a	n/a	n/a	-999	8	[-999, -999, -999]	n/a	catFR1	3	R1652A
1098.798	6.042	1197895	PROB	6.042	n/a	n/a	n/a	-999	8	[7, 6, 2]	15	catFR1	3	R1652A
1104.84	4.517	1203937	PROB	4.517	n/a	n/a	n/a	-999	8	[5, 5, 6]	16	catFR1	3	R1652A
1109.357	10.749	1208454	PROB	10.749	n/a	n/a	n/a	-999	8	[7, 6, 8]	21	catFR1	3	R1652A
1120.106	0.0	1219202	DISTRACT_END	n/a	n/a	n/a	n/a	-999	8	[0, 0, 0]	n/a	catFR1	3	R1652A
1120.106	2.416	1219203	STOP	n/a	n/a	n/a	n/a	-999	8	[-999, -999, -999]	n/a	catFR1	3	R1652A
1122.522	2.752	1221617	REC_START	n/a	n/a	n/a	n/a	-999	8	[0, 0, 0]	n/a	catFR1	3	R1652A
1125.274	2.438	1224371	REC_WORD	2.438	n/a	DOVE	Birds	3	8	[0, 0, 0]	n/a	catFR1	3	R1652A
1127.712	2.233	1226809	REC_WORD	2.233	n/a	BLUEBIRD	Birds	7	8	[0, 0, 0]	n/a	catFR1	3	R1652A
1129.945	2.675	1229042	REC_WORD	2.675	n/a	HEAD	BodyParts	1	8	[0, 0, 0]	n/a	catFR1	3	R1652A
1132.62	2.572	1231717	REC_WORD	2.572	n/a	EAR	BodyParts	2	8	[0, 0, 0]	n/a	catFR1	3	R1652A
1135.192	3.786	1234289	REC_WORD	3.786	n/a	ELBOW	BodyParts	12	8	[0, 0, 0]	n/a	catFR1	3	R1652A
1138.978	3.654	1238075	REC_WORD	3.654	n/a	EYE	n/a	-999	8	[0, 0, 0]	n/a	catFR1	3	R1652A
1142.632	2.992	1241729	REC_WORD	2.992	n/a	ROBIN	Birds	4	8	[0, 0, 0]	n/a	catFR1	3	R1652A
1145.624	1.0	1244721	REC_WORD	1.0	n/a	CHIMPANZEE	n/a	-999	8	[0, 0, 0]	n/a	catFR1	3	R1652A
1146.624	6.038	1245721	REC_WORD_VV	6.038	n/a	<>	n/a	-999	8	[0, 0, 0]	n/a	catFR1	3	R1652A
1152.662	4.577	1251759	REC_END	n/a	n/a	n/a	n/a	-999	8	[0, 0, 0]	n/a	catFR1	3	R1652A
1157.239	10.342	1256337	COUNTDOWN_START	n/a	n/a	n/a	n/a	-999	8	[0, 0, 0]	n/a	catFR1	3	R1652A
1167.581	0.0	1266675	COUNTDOWN_END	n/a	n/a	n/a	n/a	-999	8	[0, 0, 0]	n/a	catFR1	3	R1652A
1167.581	2.016	1266675	ENCODING_START	n/a	n/a	n/a	n/a	-999	9	[0, 0, 0]	n/a	catFR1	3	R1652A
1169.597	1.602	1268695	WORD	n/a	wordpools/wordpool_categorized_EN.txt	BASEBALL	Toys	1	9	[0, 0, 0]	n/a	catFR1	3	R1652A
1171.199	0.842	1270296	WORD_OFF	n/a	n/a	BASEBALL	Toys	1	9	[0, 0, 0]	n/a	catFR1	3	R1652A
1172.041	1.6	1271133	WORD	n/a	wordpools/wordpool_categorized_EN.txt	BLOCKS	Toys	2	9	[0, 0, 0]	n/a	catFR1	3	R1652A
1173.641	0.95	1272734	WORD_OFF	n/a	n/a	BLOCKS	Toys	2	9	[0, 0, 0]	n/a	catFR1	3	R1652A
1174.591	1.608	1273691	WORD	n/a	wordpools/wordpool_categorized_EN.txt	COFFEE	Beverages	3	9	[0, 0, 0]	n/a	catFR1	3	R1652A
1176.199	0.783	1275292	WORD_OFF	n/a	n/a	COFFEE	Beverages	3	9	[0, 0, 0]	n/a	catFR1	3	R1652A
1176.982	1.6	1276081	WORD	n/a	wordpools/wordpool_categorized_EN.txt	SODA	Beverages	4	9	[0, 0, 0]	n/a	catFR1	3	R1652A
1178.582	0.917	1277683	WORD_OFF	n/a	n/a	SODA	Beverages	4	9	[0, 0, 0]	n/a	catFR1	3	R1652A
1179.499	1.608	1278603	WORD	n/a	wordpools/wordpool_categorized_EN.txt	LEG	BodyParts	5	9	[0, 0, 0]	n/a	catFR1	3	R1652A
1181.107	0.932	1280204	WORD_OFF	n/a	n/a	LEG	BodyParts	5	9	[0, 0, 0]	n/a	catFR1	3	R1652A
1182.039	1.601	1281137	WORD	n/a	wordpools/wordpool_categorized_EN.txt	FINGERS	BodyParts	6	9	[0, 0, 0]	n/a	catFR1	3	R1652A
1183.64	0.859	1282738	WORD_OFF	n/a	n/a	FINGERS	BodyParts	6	9	[0, 0, 0]	n/a	catFR1	3	R1652A
1184.499	1.608	1283599	WORD	n/a	wordpools/wordpool_categorized_EN.txt	MILK	Beverages	7	9	[0, 0, 0]	n/a	catFR1	3	R1652A
1186.107	0.865	1285200	WORD_OFF	n/a	n/a	MILK	Beverages	7	9	[0, 0, 0]	n/a	catFR1	3	R1652A
1186.972	1.6	1286061	WORD	n/a	wordpools/wordpool_categorized_EN.txt	WINE	Beverages	8	9	[0, 0, 0]	n/a	catFR1	3	R1652A
1188.572	0.8	1287662	WORD_OFF	n/a	n/a	WINE	Beverages	8	9	[0, 0, 0]	n/a	catFR1	3	R1652A
1189.372	1.6	1288463	WORD	n/a	wordpools/wordpool_categorized_EN.txt	HAND	BodyParts	9	9	[0, 0, 0]	n/a	catFR1	3	R1652A
1190.972	0.968	1290065	WORD_OFF	n/a	n/a	HAND	BodyParts	9	9	[0, 0, 0]	n/a	catFR1	3	R1652A
1191.94	1.601	1291033	WORD	n/a	wordpools/wordpool_categorized_EN.txt	FOOT	BodyParts	10	9	[0, 0, 0]	n/a	catFR1	3	R1652A
1193.541	0.966	1292634	WORD_OFF	n/a	n/a	FOOT	BodyParts	10	9	[0, 0, 0]	n/a	catFR1	3	R1652A
1194.507	1.609	1293602	WORD	n/a	wordpools/wordpool_categorized_EN.txt	BARBIE	Toys	11	9	[0, 0, 0]	n/a	catFR1	3	R1652A
1196.116	0.939	1295216	WORD_OFF	n/a	n/a	BARBIE	Toys	11	9	[0, 0, 0]	n/a	catFR1	3	R1652A
1197.055	1.602	1296148	WORD	n/a	wordpools/wordpool_categorized_EN.txt	DOLLHOUSE	Toys	12	9	[0, 0, 0]	n/a	catFR1	3	R1652A
1198.657	0.0	1297750	WORD_OFF	n/a	n/a	DOLLHOUSE	Toys	12	9	[0, 0, 0]	n/a	catFR1	3	R1652A
1198.656	0.005	1297753	PROB	0.005	n/a	n/a	n/a	-999	9	[4, 3, 7]	14	catFR1	3	R1652A
1198.661	0.0	1297758	START	n/a	n/a	n/a	n/a	-999	9	[-999, -999, -999]	n/a	catFR1	3	R1652A
1198.661	0.0	1297762	ENCODING_END	n/a	n/a	n/a	n/a	-999	9	[0, 0, 0]	n/a	catFR1	3	R1652A
1198.661	5.671	1297762	DISTRACT_START	n/a	n/a	n/a	n/a	-999	9	[0, 0, 0]	n/a	catFR1	3	R1652A
1204.332	8.275	1303429	PROB	8.275	n/a	n/a	n/a	-999	9	[5, 4, 4]	14	catFR1	3	R1652A
1212.607	6.057	1311704	PROB	6.057	n/a	n/a	n/a	-999	9	[7, 7, 8]	22	catFR1	3	R1652A
1218.664	0.0	1317757	DISTRACT_END	n/a	n/a	n/a	n/a	-999	9	[0, 0, 0]	n/a	catFR1	3	R1652A
1218.664	2.25	1317761	STOP	n/a	n/a	n/a	n/a	-999	9	[-999, -999, -999]	n/a	catFR1	3	R1652A
1220.914	1.447	1320004	REC_START	n/a	n/a	n/a	n/a	-999	9	[0, 0, 0]	n/a	catFR1	3	R1652A
1222.361	1.781	1321458	REC_WORD	1.781	n/a	COFFEE	Beverages	3	9	[0, 0, 0]	n/a	catFR1	3	R1652A
1224.142	2.16	1323239	REC_WORD	2.16	n/a	SODA	Beverages	4	9	[0, 0, 0]	n/a	catFR1	3	R1652A
1226.302	2.126	1325399	REC_WORD	2.126	n/a	MILK	Beverages	7	9	[0, 0, 0]	n/a	catFR1	3	R1652A
1228.428	2.469	1327525	REC_WORD	2.469	n/a	WINE	Beverages	8	9	[0, 0, 0]	n/a	catFR1	3	R1652A
1230.897	2.001	1329994	REC_WORD	2.001	n/a	LEG	BodyParts	5	9	[0, 0, 0]	n/a	catFR1	3	R1652A
1232.898	2.036	1331995	REC_WORD	2.036	n/a	FINGERS	BodyParts	6	9	[0, 0, 0]	n/a	catFR1	3	R1652A
1234.934	2.141	1334031	REC_WORD	2.141	n/a	FOOT	BodyParts	10	9	[0, 0, 0]	n/a	catFR1	3	R1652A
1237.075	2.215	1336172	REC_WORD	2.215	n/a	BARBIE	Toys	11	9	[0, 0, 0]	n/a	catFR1	3	R1652A
1239.29	7.575	1338387	REC_WORD	7.575	n/a	DOLLHOUSE	Toys	12	9	[0, 0, 0]	n/a	catFR1	3	R1652A
1246.865	4.18	1345962	REC_WORD_VV	4.18	n/a	<>	n/a	-999	9	[0, 0, 0]	n/a	catFR1	3	R1652A
1251.045	31.46	1350134	REC_END	n/a	n/a	n/a	n/a	-999	9	[0, 0, 0]	n/a	catFR1	3	R1652A
1282.505	10.345	1381603	COUNTDOWN_START	n/a	n/a	n/a	n/a	-999	9	[0, 0, 0]	n/a	catFR1	3	R1652A
1292.85	0.0	1391942	COUNTDOWN_END	n/a	n/a	n/a	n/a	-999	9	[0, 0, 0]	n/a	catFR1	3	R1652A
1292.85	1.955	1391942	ENCODING_START	n/a	n/a	n/a	n/a	-999	10	[0, 0, 0]	n/a	catFR1	3	R1652A
1294.805	1.602	1393902	WORD	n/a	wordpools/wordpool_categorized_EN.txt	ORANGE	Fruit	1	10	[0, 0, 0]	n/a	catFR1	3	R1652A
1296.407	0.99	1395503	WORD_OFF	n/a	n/a	ORANGE	Fruit	1	10	[0, 0, 0]	n/a	catFR1	3	R1652A
1297.397	1.601	1396495	WORD	n/a	wordpools/wordpool_categorized_EN.txt	APPLE	Fruit	2	10	[0, 0, 0]	n/a	catFR1	3	R1652A
1298.998	0.866	1398097	WORD_OFF	n/a	n/a	APPLE	Fruit	2	10	[0, 0, 0]	n/a	catFR1	3	R1652A
1299.864	1.608	1398957	WORD	n/a	wordpools/wordpool_categorized_EN.txt	LEATHER	Fabric	3	10	[0, 0, 0]	n/a	catFR1	3	R1652A
1301.472	0.908	1400571	WORD_OFF	n/a	n/a	LEATHER	Fabric	3	10	[0, 0, 0]	n/a	catFR1	3	R1652A
1302.38	1.601	1401479	WORD	n/a	wordpools/wordpool_categorized_EN.txt	SUEDE	Fabric	4	10	[0, 0, 0]	n/a	catFR1	3	R1652A
1303.981	0.891	1403081	WORD_OFF	n/a	n/a	SUEDE	Fabric	4	10	[0, 0, 0]	n/a	catFR1	3	R1652A
1304.872	1.602	1403965	WORD	n/a	wordpools/wordpool_categorized_EN.txt	SEAGULL	Birds	5	10	[0, 0, 0]	n/a	catFR1	3	R1652A
1306.474	0.981	1405567	WORD_OFF	n/a	n/a	SEAGULL	Birds	5	10	[0, 0, 0]	n/a	catFR1	3	R1652A
1307.455	1.604	1406547	WORD	n/a	wordpools/wordpool_categorized_EN.txt	SPARROW	Birds	6	10	[0, 0, 0]	n/a	catFR1	3	R1652A
1309.059	0.89	1408148	WORD_OFF	n/a	n/a	SPARROW	Birds	6	10	[0, 0, 0]	n/a	catFR1	3	R1652A
1309.949	1.6	1409045	WORD	n/a	wordpools/wordpool_categorized_EN.txt	FLEECE	Fabric	7	10	[0, 0, 0]	n/a	catFR1	3	R1652A
1311.549	0.824	1410646	WORD_OFF	n/a	n/a	FLEECE	Fabric	7	10	[0, 0, 0]	n/a	catFR1	3	R1652A
1312.373	1.6	1411471	WORD	n/a	wordpools/wordpool_categorized_EN.txt	NYLON	Fabric	8	10	[0, 0, 0]	n/a	catFR1	3	R1652A
1313.973	0.932	1413073	WORD_OFF	n/a	n/a	NYLON	Fabric	8	10	[0, 0, 0]	n/a	catFR1	3	R1652A
1314.905	1.602	1414005	WORD	n/a	wordpools/wordpool_categorized_EN.txt	STRAWBERRY	Fruit	9	10	[0, 0, 0]	n/a	catFR1	3	R1652A
1316.507	0.874	1415606	WORD_OFF	n/a	n/a	STRAWBERRY	Fruit	9	10	[0, 0, 0]	n/a	catFR1	3	R1652A
1317.381	1.601	1416479	WORD	n/a	wordpools/wordpool_categorized_EN.txt	PLUM	Fruit	10	10	[0, 0, 0]	n/a	catFR1	3	R1652A
1318.982	0.823	1418080	WORD_OFF	n/a	n/a	PLUM	Fruit	10	10	[0, 0, 0]	n/a	catFR1	3	R1652A
1319.805	1.609	1418905	WORD	n/a	wordpools/wordpool_categorized_EN.txt	CARDINAL	Birds	11	10	[0, 0, 0]	n/a	catFR1	3	R1652A
1321.414	0.826	1420507	WORD_OFF	n/a	n/a	CARDINAL	Birds	11	10	[0, 0, 0]	n/a	catFR1	3	R1652A
1322.24	1.608	1421331	WORD	n/a	wordpools/wordpool_categorized_EN.txt	GOOSE	Birds	12	10	[0, 0, 0]	n/a	catFR1	3	R1652A
1323.848	0.001	1422944	PROB	0.001	n/a	n/a	n/a	-999	10	[5, 6, 2]	13	catFR1	3	R1652A
1323.849	0.003	1422945	WORD_OFF	n/a	n/a	GOOSE	Birds	12	10	[0, 0, 0]	n/a	catFR1	3	R1652A
1323.852	0.0	1422945	ENCODING_END	n/a	n/a	n/a	n/a	-999	10	[0, 0, 0]	n/a	catFR1	3	R1652A
1323.852	0.0	1422945	DISTRACT_START	n/a	n/a	n/a	n/a	-999	10	[0, 0, 0]	n/a	catFR1	3	R1652A
1323.852	8.412	1422948	START	n/a	n/a	n/a	n/a	-999	10	[-999, -999, -999]	n/a	catFR1	3	R1652A
1332.264	4.886	1431360	PROB	4.886	n/a	n/a	n/a	-999	10	[4, 4, 3]	11	catFR1	3	R1652A
1337.15	5.023	1436246	PROB	5.023	n/a	n/a	n/a	-999	10	[7, 3, 5]	15	catFR1	3	R1652A
1342.173	6.476	1441269	PROB	6.476	n/a	n/a	n/a	-999	10	[2, 3, 4]	9	catFR1	3	R1652A
1348.649	0.0	1447745	DISTRACT_END	n/a	n/a	n/a	n/a	-999	10	[0, 0, 0]	n/a	catFR1	3	R1652A
1348.649	2.19	1447745	STOP	n/a	n/a	n/a	n/a	-999	10	[-999, -999, -999]	n/a	catFR1	3	R1652A
1350.839	0.566	1449932	REC_START	n/a	n/a	n/a	n/a	-999	10	[0, 0, 0]	n/a	catFR1	3	R1652A
1351.405	1.759	1450501	REC_WORD	1.759	n/a	APPLE	Fruit	2	10	[0, 0, 0]	n/a	catFR1	3	R1652A
1353.164	1.788	1452260	REC_WORD	1.788	n/a	ORANGE	Fruit	1	10	[0, 0, 0]	n/a	catFR1	3	R1652A
1354.952	1.0	1454048	REC_WORD	1.0	n/a	STRAWBERRY	Fruit	9	10	[0, 0, 0]	n/a	catFR1	3	R1652A
1355.952	1.91	1455048	REC_WORD_VV	1.91	n/a	<>	n/a	-999	10	[0, 0, 0]	n/a	catFR1	3	R1652A
1357.862	2.035	1456958	REC_WORD	2.035	n/a	LEATHER	Fabric	3	10	[0, 0, 0]	n/a	catFR1	3	R1652A
1359.897	1.0	1458993	REC_WORD	1.0	n/a	SUEDE	Fabric	4	10	[0, 0, 0]	n/a	catFR1	3	R1652A
1360.897	2.422	1459993	REC_WORD_VV	2.422	n/a	<>	n/a	-999	10	[0, 0, 0]	n/a	catFR1	3	R1652A
1363.319	14.526	1462415	REC_WORD	14.526	n/a	GOOSE	Birds	12	10	[0, 0, 0]	n/a	catFR1	3	R1652A
1377.845	3.136	1476941	REC_WORD	3.136	n/a	CARDINAL	Birds	11	10	[0, 0, 0]	n/a	catFR1	3	R1652A
1380.981	5.643	1480074	REC_END	n/a	n/a	n/a	n/a	-999	10	[0, 0, 0]	n/a	catFR1	3	R1652A
1386.624	10.342	1485716	COUNTDOWN_START	n/a	n/a	n/a	n/a	-999	10	[0, 0, 0]	n/a	catFR1	3	R1652A
1396.966	0.0	1496066	COUNTDOWN_END	n/a	n/a	n/a	n/a	-999	10	[0, 0, 0]	n/a	catFR1	3	R1652A
1396.966	2.031	1496066	ENCODING_START	n/a	n/a	n/a	n/a	-999	11	[0, 0, 0]	n/a	catFR1	3	R1652A
1398.997	1.601	1498086	WORD	n/a	wordpools/wordpool_categorized_EN.txt	PRINTER	Electronics	1	11	[0, 0, 0]	n/a	catFR1	3	R1652A
1400.598	0.857	1499699	WORD_OFF	n/a	n/a	PRINTER	Electronics	1	11	[0, 0, 0]	n/a	catFR1	3	R1652A
1401.455	1.6	1500548	WORD	n/a	wordpools/wordpool_categorized_EN.txt	SPEAKER	Electronics	2	11	[0, 0, 0]	n/a	catFR1	3	R1652A
1403.055	0.919	1502149	WORD_OFF	n/a	n/a	SPEAKER	Electronics	2	11	[0, 0, 0]	n/a	catFR1	3	R1652A
1403.974	1.6	1503070	WORD	n/a	wordpools/wordpool_categorized_EN.txt	POTATO	Vegetables	3	11	[0, 0, 0]	n/a	catFR1	3	R1652A
1405.574	0.906	1504671	WORD_OFF	n/a	n/a	POTATO	Vegetables	3	11	[0, 0, 0]	n/a	catFR1	3	R1652A
1406.48	1.609	1505579	WORD	n/a	wordpools/wordpool_categorized_EN.txt	CARROT	Vegetables	4	11	[0, 0, 0]	n/a	catFR1	3	R1652A
1408.089	0.835	1507181	WORD_OFF	n/a	n/a	CARROT	Vegetables	4	11	[0, 0, 0]	n/a	catFR1	3	R1652A
1408.924	1.609	1508018	WORD	n/a	wordpools/wordpool_categorized_EN.txt	LINEN	Fabric	5	11	[0, 0, 0]	n/a	catFR1	3	R1652A
1410.533	0.914	1509631	WORD_OFF	n/a	n/a	LINEN	Fabric	5	11	[0, 0, 0]	n/a	catFR1	3	R1652A
1411.447	1.6	1510539	WORD	n/a	wordpools/wordpool_categorized_EN.txt	SATIN	Fabric	6	11	[0, 0, 0]	n/a	catFR1	3	R1652A
1413.047	0.877	1512141	WORD_OFF	n/a	n/a	SATIN	Fabric	6	11	[0, 0, 0]	n/a	catFR1	3	R1652A
1413.924	1.608	1513013	WORD	n/a	wordpools/wordpool_categorized_EN.txt	MICROWAVE	Electronics	7	11	[0, 0, 0]	n/a	catFR1	3	R1652A
1415.532	0.816	1514627	WORD_OFF	n/a	n/a	MICROWAVE	Electronics	7	11	[0, 0, 0]	n/a	catFR1	3	R1652A
1416.348	1.6	1515440	WORD	n/a	wordpools/wordpool_categorized_EN.txt	TELEVISION	Electronics	8	11	[0, 0, 0]	n/a	catFR1	3	R1652A
1417.948	0.966	1517041	WORD_OFF	n/a	n/a	TELEVISION	Electronics	8	11	[0, 0, 0]	n/a	catFR1	3	R1652A
1418.914	1.6	1518009	WORD	n/a	wordpools/wordpool_categorized_EN.txt	DENIM	Fabric	9	11	[0, 0, 0]	n/a	catFR1	3	R1652A
1420.514	0.86	1519611	WORD_OFF	n/a	n/a	DENIM	Fabric	9	11	[0, 0, 0]	n/a	catFR1	3	R1652A
1421.374	1.608	1520471	WORD	n/a	wordpools/wordpool_categorized_EN.txt	SPANDEX	Fabric	10	11	[0, 0, 0]	n/a	catFR1	3	R1652A
1422.982	0.941	1522073	WORD_OFF	n/a	n/a	SPANDEX	Fabric	10	11	[0, 0, 0]	n/a	catFR1	3	R1652A
1423.923	1.6	1523017	WORD	n/a	wordpools/wordpool_categorized_EN.txt	CUCUMBER	Vegetables	11	11	[0, 0, 0]	n/a	catFR1	3	R1652A
1425.523	0.782	1524619	WORD_OFF	n/a	n/a	CUCUMBER	Vegetables	11	11	[0, 0, 0]	n/a	catFR1	3	R1652A
1426.305	1.6	1525396	WORD	n/a	wordpools/wordpool_categorized_EN.txt	PEAS	Vegetables	12	11	[0, 0, 0]	n/a	catFR1	3	R1652A
1427.905	0.003	1526997	WORD_OFF	n/a	n/a	PEAS	Vegetables	12	11	[0, 0, 0]	n/a	catFR1	3	R1652A
1427.908	0.0	1526997	ENCODING_END	n/a	n/a	n/a	n/a	-999	11	[0, 0, 0]	n/a	catFR1	3	R1652A
1427.906	0.002	1527002	PROB	0.002	n/a	n/a	n/a	-999	11	[8, 7, 5]	18	catFR1	3	R1652A
1427.908	0.0	1527004	START	n/a	n/a	n/a	n/a	-999	11	[-999, -999, -999]	n/a	catFR1	3	R1652A
1427.908	9.857	1527009	DISTRACT_START	n/a	n/a	n/a	n/a	-999	11	[0, 0, 0]	n/a	catFR1	3	R1652A
1437.765	5.682	1536861	PROB	5.682	n/a	n/a	n/a	-999	11	[3, 6, 7]	16	catFR1	3	R1652A
1443.447	6.2	1542543	PROB	6.2	n/a	n/a	n/a	-999	11	[2, 7, 6]	15	catFR1	3	R1652A
1449.647	0.0	1548737	DISTRACT_END	n/a	n/a	n/a	n/a	-999	11	[0, 0, 0]	n/a	catFR1	3	R1652A
1449.647	2.102	1548743	STOP	n/a	n/a	n/a	n/a	-999	11	[-999, -999, -999]	n/a	catFR1	3	R1652A
1451.749	2.458	1550841	REC_START	n/a	n/a	n/a	n/a	-999	11	[0, 0, 0]	n/a	catFR1	3	R1652A
1454.207	2.12	1553303	REC_WORD	2.12	n/a	POTATO	Vegetables	3	11	[0, 0, 0]	n/a	catFR1	3	R1652A
1456.327	2.136	1555423	REC_WORD	2.136	n/a	CARROT	Vegetables	4	11	[0, 0, 0]	n/a	catFR1	3	R1652A
1458.463	2.143	1557559	REC_WORD	2.143	n/a	PEAS	Vegetables	12	11	[0, 0, 0]	n/a	catFR1	3	R1652A
1460.606	2.693	1559702	REC_WORD	2.693	n/a	CUCUMBER	Vegetables	11	11	[0, 0, 0]	n/a	catFR1	3	R1652A
1463.299	1.0	1562395	REC_WORD	1.0	n/a	MICROWAVE	Electronics	7	11	[0, 0, 0]	n/a	catFR1	3	R1652A
1464.299	1.314	1563395	REC_WORD_VV	1.314	n/a	<>	n/a	-999	11	[0, 0, 0]	n/a	catFR1	3	R1652A
1465.613	8.302	1564709	REC_WORD	8.302	n/a	TELEVISION	Electronics	8	11	[0, 0, 0]	n/a	catFR1	3	R1652A
1473.915	1.0	1573011	REC_WORD	1.0	n/a	SATIN	Fabric	6	11	[0, 0, 0]	n/a	catFR1	3	R1652A
1474.915	6.966	1574011	REC_WORD_VV	6.966	n/a	<>	n/a	-999	11	[0, 0, 0]	n/a	catFR1	3	R1652A
1481.881	4.166	1580971	REC_END	n/a	n/a	n/a	n/a	-999	11	[0, 0, 0]	n/a	catFR1	3	R1652A
1486.047	10.344	1585143	COUNTDOWN_START	n/a	n/a	n/a	n/a	-999	11	[0, 0, 0]	n/a	catFR1	3	R1652A
1496.391	0.0	1595481	COUNTDOWN_END	n/a	n/a	n/a	n/a	-999	11	[0, 0, 0]	n/a	catFR1	3	R1652A
1496.391	2.081	1595481	ENCODING_START	n/a	n/a	n/a	n/a	-999	12	[0, 0, 0]	n/a	catFR1	3	R1652A
1498.472	1.602	1597560	WORD	n/a	wordpools/wordpool_categorized_EN.txt	WOOL	Fabric	1	12	[0, 0, 0]	n/a	catFR1	3	R1652A
1500.074	0.975	1599174	WORD_OFF	n/a	n/a	WOOL	Fabric	1	12	[0, 0, 0]	n/a	catFR1	3	R1652A
1501.049	1.608	1600142	WORD	n/a	wordpools/wordpool_categorized_EN.txt	SILK	Fabric	2	12	[0, 0, 0]	n/a	catFR1	3	R1652A
1502.657	0.932	1601756	WORD_OFF	n/a	n/a	SILK	Fabric	2	12	[0, 0, 0]	n/a	catFR1	3	R1652A
1503.589	1.608	1602688	WORD	n/a	wordpools/wordpool_categorized_EN.txt	COMPUTER	Electronics	3	12	[0, 0, 0]	n/a	catFR1	3	R1652A
1505.197	0.777	1604289	WORD_OFF	n/a	n/a	COMPUTER	Electronics	3	12	[0, 0, 0]	n/a	catFR1	3	R1652A
1505.974	1.6	1605066	WORD	n/a	wordpools/wordpool_categorized_EN.txt	HEADPHONES	Electronics	4	12	[0, 0, 0]	n/a	catFR1	3	R1652A
1507.574	0.923	1606668	WORD_OFF	n/a	n/a	HEADPHONES	Electronics	4	12	[0, 0, 0]	n/a	catFR1	3	R1652A
1508.497	1.611	1607588	WORD	n/a	wordpools/wordpool_categorized_EN.txt	GORILLA	Zoo	5	12	[0, 0, 0]	n/a	catFR1	3	R1652A
1510.108	0.897	1609202	WORD_OFF	n/a	n/a	GORILLA	Zoo	5	12	[0, 0, 0]	n/a	catFR1	3	R1652A
1511.005	1.602	1610098	WORD	n/a	wordpools/wordpool_categorized_EN.txt	ELEPHANT	Zoo	6	12	[0, 0, 0]	n/a	catFR1	3	R1652A
1512.607	0.807	1611699	WORD_OFF	n/a	n/a	ELEPHANT	Zoo	6	12	[0, 0, 0]	n/a	catFR1	3	R1652A
1513.414	1.601	1612512	WORD	n/a	wordpools/wordpool_categorized_EN.txt	COTTON	Fabric	7	12	[0, 0, 0]	n/a	catFR1	3	R1652A
1515.015	0.915	1614104	WORD_OFF	n/a	n/a	COTTON	Fabric	7	12	[0, 0, 0]	n/a	catFR1	3	R1652A
1515.93	1.602	1615022	WORD	n/a	wordpools/wordpool_categorized_EN.txt	VELVET	Fabric	8	12	[0, 0, 0]	n/a	catFR1	3	R1652A
1517.532	0.907	1616624	WORD_OFF	n/a	n/a	VELVET	Fabric	8	12	[0, 0, 0]	n/a	catFR1	3	R1652A
1518.439	1.61	1617532	WORD	n/a	wordpools/wordpool_categorized_EN.txt	PHONE	Electronics	9	12	[0, 0, 0]	n/a	catFR1	3	R1652A
1520.049	0.892	1619145	WORD_OFF	n/a	n/a	PHONE	Electronics	9	12	[0, 0, 0]	n/a	catFR1	3	R1652A
1520.941	1.607	1620030	WORD	n/a	wordpools/wordpool_categorized_EN.txt	SCANNER	Electronics	10	12	[0, 0, 0]	n/a	catFR1	3	R1652A
1522.548	0.792	1621643	WORD_OFF	n/a	n/a	SCANNER	Electronics	10	12	[0, 0, 0]	n/a	catFR1	3	R1652A
1523.34	1.609	1622432	WORD	n/a	wordpools/wordpool_categorized_EN.txt	CHEETAH	Zoo	11	12	[0, 0, 0]	n/a	catFR1	3	R1652A
1524.949	0.757	1624046	WORD_OFF	n/a	n/a	CHEETAH	Zoo	11	12	[0, 0, 0]	n/a	catFR1	3	R1652A
1525.706	1.601	1624799	WORD	n/a	wordpools/wordpool_categorized_EN.txt	MONKEY	Zoo	12	12	[0, 0, 0]	n/a	catFR1	3	R1652A
1527.307	0.002	1626400	WORD_OFF	n/a	n/a	MONKEY	Zoo	12	12	[0, 0, 0]	n/a	catFR1	3	R1652A
1527.309	0.0	1626400	ENCODING_END	n/a	n/a	n/a	n/a	-999	12	[0, 0, 0]	n/a	catFR1	3	R1652A
1527.309	0.0	1626400	DISTRACT_START	n/a	n/a	n/a	n/a	-999	12	[0, 0, 0]	n/a	catFR1	3	R1652A
1527.306	0.003	1626402	PROB	0.003	n/a	n/a	n/a	-999	12	[6, 2, 1]	9	catFR1	3	R1652A
1527.309	5.089	1626405	START	n/a	n/a	n/a	n/a	-999	12	[-999, -999, -999]	n/a	catFR1	3	R1652A
1532.398	3.642	1631494	PROB	3.642	n/a	n/a	n/a	-999	12	[1, 5, 1]	7	catFR1	3	R1652A
1536.04	4.409	1635135	PROB	4.409	n/a	n/a	n/a	-999	12	[4, 3, 4]	11	catFR1	3	R1652A
1540.449	5.073	1639544	PROB	5.073	n/a	n/a	n/a	-999	12	[6, 4, 6]	16	catFR1	3	R1652A
1545.522	4.592	1644617	PROB	4.592	n/a	n/a	n/a	-999	12	[1, 7, 6]	14	catFR1	3	R1652A
1550.114	0.0	1649204	DISTRACT_END	n/a	n/a	n/a	n/a	-999	12	[0, 0, 0]	n/a	catFR1	3	R1652A
1550.114	2.333	1649209	STOP	n/a	n/a	n/a	n/a	-999	12	[-999, -999, -999]	n/a	catFR1	3	R1652A
1552.447	0.607	1651547	REC_START	n/a	n/a	n/a	n/a	-999	12	[0, 0, 0]	n/a	catFR1	3	R1652A
1553.054	2.25	1652149	REC_WORD	2.25	n/a	COMPUTER	Electronics	3	12	[0, 0, 0]	n/a	catFR1	3	R1652A
1555.304	1.0	1654399	REC_WORD	1.0	n/a	HEADPHONES	Electronics	4	12	[0, 0, 0]	n/a	catFR1	3	R1652A
1556.304	12.849	1655399	REC_WORD_VV	12.849	n/a	<>	n/a	-999	12	[0, 0, 0]	n/a	catFR1	3	R1652A
1569.153	13.438	1668248	REC_WORD	13.438	n/a	WOOL	Fabric	1	12	[0, 0, 0]	n/a	catFR1	3	R1652A
1582.591	0.0	1681689	REC_END	n/a	n/a	n/a	n/a	-999	12	[0, 0, 0]	n/a	catFR1	3	R1652A
