onset	duration	sample	trial_type	response_time	stim_file	item_name	category	serialpos	list	test	answer	experiment	session	subject
0.0	27.394	627930	SESS_START	n/a	n/a	n/a	n/a	-999	-999	[0, 0, 0]	n/a	catFR1	0	R1067P
27.394	10.428	641626	COUNTDOWN_START	n/a	n/a	n/a	n/a	-999	-999	[0, 0, 0]	n/a	catFR1	0	R1067P
37.822	3.707	646840	COUNTDOWN_END	n/a	n/a	n/a	n/a	-999	-999	[0, 0, 0]	n/a	catFR1	0	R1067P
41.529	2.534	648693	PRACTICE_WORD	n/a	n/a	BEAM	n/a	-999	-999	[0, 0, 0]	n/a	catFR1	0	R1067P
44.063	2.533	649960	PRACTICE_WORD	n/a	n/a	FLOOD	n/a	-999	-999	[0, 0, 0]	n/a	catFR1	0	R1067P
46.596	2.601	651227	PRACTICE_WORD	n/a	n/a	ATTIC	n/a	-999	-999	[0, 0, 0]	n/a	catFR1	0	R1067P
49.197	2.467	652527	PRACTICE_WORD	n/a	n/a	WAGON	n/a	-999	-999	[0, 0, 0]	n/a	catFR1	0	R1067P
51.664	2.5	653761	PRACTICE_WORD	n/a	n/a	TONGUE	n/a	-999	-999	[0, 0, 0]	n/a	catFR1	0	R1067P
54.164	2.385	655011	PRACTICE_WORD	n/a	n/a	IRON	n/a	-999	-999	[0, 0, 0]	n/a	catFR1	0	R1067P
56.549	2.383	656203	PRACTICE_WORD	n/a	n/a	COTTON	n/a	-999	-999	[0, 0, 0]	n/a	catFR1	0	R1067P
58.932	2.568	657394	PRACTICE_WORD	n/a	n/a	CHEST	n/a	-999	-999	[0, 0, 0]	n/a	catFR1	0	R1067P
61.5	2.467	658678	PRACTICE_WORD	n/a	n/a	WATCH	n/a	-999	-999	[0, 0, 0]	n/a	catFR1	0	R1067P
63.967	2.418	659912	PRACTICE_WORD	n/a	n/a	RHINO	n/a	-999	-999	[0, 0, 0]	n/a	catFR1	0	R1067P
66.385	2.583	661121	PRACTICE_WORD	n/a	n/a	CAMEL	n/a	-999	-999	[0, 0, 0]	n/a	catFR1	0	R1067P
68.968	1.617	662412	PRACTICE_WORD	n/a	n/a	RING	n/a	-999	-999	[0, 0, 0]	n/a	catFR1	0	R1067P
70.585	0.0	663221	PRACTICE_DISTRACT_START	n/a	n/a	n/a	n/a	-999	-999	[0, 0, 0]	n/a	catFR1	0	R1067P
70.585	0.016	663221	START	n/a	n/a	n/a	n/a	-999	-1	[-999, -999, -999]	n/a	catFR1	0	R1067P
70.601	5.551	663229	PROB	5.551	n/a	n/a	n/a	-999	-1	[5, 7, 9]	21	catFR1	0	R1067P
76.152	3.417	666004	PROB	3.417	n/a	n/a	n/a	-999	-1	[6, 1, 2]	9	catFR1	0	R1067P
79.569	4.235	667712	PROB	4.235	n/a	n/a	n/a	-999	-1	[9, 6, 4]	19	catFR1	0	R1067P
83.804	2.934	669830	PROB	2.934	n/a	n/a	n/a	-999	-1	[8, 2, 2]	12	catFR1	0	R1067P
86.738	3.367	671297	PROB	3.367	n/a	n/a	n/a	-999	-1	[4, 2, 6]	12	catFR1	0	R1067P
90.105	3.259	672980	PROB	3.259	n/a	n/a	n/a	-999	-1	[4, 2, 8]	14	catFR1	0	R1067P
93.364	0.009	674610	STOP	n/a	n/a	n/a	n/a	-999	-1	[-999, -999, -999]	n/a	catFR1	0	R1067P
93.373	0.635	674614	PRACTICE_DISTRACT_END	n/a	n/a	n/a	n/a	-999	-999	[0, 0, 0]	n/a	catFR1	0	R1067P
94.008	30.514	674932	PRACTICE_REC_START	n/a	n/a	n/a	n/a	-999	-999	[0, 0, 0]	n/a	catFR1	0	R1067P
124.522	20.443	690188	PRACTICE_REC_END	n/a	n/a	n/a	n/a	-999	-999	[0, 0, 0]	n/a	catFR1	0	R1067P
144.965	0.0	700409	TRIAL	n/a	n/a	n/a	n/a	-999	1	[0, 0, 0]	n/a	catFR1	0	R1067P
144.965	10.428	700409	COUNTDOWN_START	n/a	n/a	n/a	n/a	-999	1	[0, 0, 0]	n/a	catFR1	0	R1067P
155.393	0.009	705622	COUNTDOWN_END	n/a	n/a	n/a	n/a	-999	1	[0, 0, 0]	n/a	catFR1	0	R1067P
155.402	3.834	705627	ORIENT	n/a	n/a	n/a	n/a	-999	1	[0, 0, 0]	n/a	catFR1	0	R1067P
159.236	2.516	707544	WORD	n/a	wordpools/wordpool_categorized_EN.txt	CHICKEN	FarmAnimals	1	1	[0, 0, 0]	n/a	catFR1	0	R1067P
161.752	2.467	708802	WORD	n/a	wordpools/wordpool_categorized_EN.txt	ROOSTER	FarmAnimals	2	1	[0, 0, 0]	n/a	catFR1	0	R1067P
164.219	2.617	710035	WORD	n/a	wordpools/wordpool_categorized_EN.txt	EVERGREEN	Trees	3	1	[0, 0, 0]	n/a	catFR1	0	R1067P
166.836	2.552	711344	WORD	n/a	wordpools/wordpool_categorized_EN.txt	BIRCH	Trees	4	1	[0, 0, 0]	n/a	catFR1	0	R1067P
169.388	2.482	712620	WORD	n/a	wordpools/wordpool_categorized_EN.txt	SPARROW	Birds	5	1	[0, 0, 0]	n/a	catFR1	0	R1067P
171.87	2.468	713861	WORD	n/a	wordpools/wordpool_categorized_EN.txt	BLUEBIRD	Birds	6	1	[0, 0, 0]	n/a	catFR1	0	R1067P
174.338	2.533	715095	WORD	n/a	wordpools/wordpool_categorized_EN.txt	CALF	FarmAnimals	7	1	[0, 0, 0]	n/a	catFR1	0	R1067P
176.871	2.518	716361	WORD	n/a	wordpools/wordpool_categorized_EN.txt	COW	FarmAnimals	8	1	[0, 0, 0]	n/a	catFR1	0	R1067P
179.389	2.5	717620	WORD	n/a	wordpools/wordpool_categorized_EN.txt	CARDINAL	Birds	9	1	[0, 0, 0]	n/a	catFR1	0	R1067P
181.889	2.534	718870	WORD	n/a	wordpools/wordpool_categorized_EN.txt	DUCK	Birds	10	1	[0, 0, 0]	n/a	catFR1	0	R1067P
184.423	2.55	720137	WORD	n/a	wordpools/wordpool_categorized_EN.txt	MAPLE	Trees	11	1	[0, 0, 0]	n/a	catFR1	0	R1067P
186.973	1.617	721412	WORD	n/a	wordpools/wordpool_categorized_EN.txt	ELM	Trees	12	1	[0, 0, 0]	n/a	catFR1	0	R1067P
188.59	0.001	722220	DISTRACT_START	n/a	n/a	n/a	n/a	-999	1	[0, 0, 0]	n/a	catFR1	0	R1067P
188.591	0.016	722221	START	n/a	n/a	n/a	n/a	-999	1	[-999, -999, -999]	n/a	catFR1	0	R1067P
188.607	4.134	722229	PROB	4.134	n/a	n/a	n/a	-999	1	[4, 3, 5]	12	catFR1	0	R1067P
192.741	3.502	724296	PROB	3.502	n/a	n/a	n/a	-999	1	[9, 1, 5]	15	catFR1	0	R1067P
196.243	3.184	726046	PROB	3.184	n/a	n/a	n/a	-999	1	[2, 5, 2]	9	catFR1	0	R1067P
199.427	7.6	727638	PROB	7.6	n/a	n/a	n/a	-999	1	[2, 5, 3]	10	catFR1	0	R1067P
207.027	7.441	731438	PROB	7.441	n/a	n/a	n/a	-999	1	[8, 4, 5]	17	catFR1	0	R1067P
214.468	0.011	735159	STOP	n/a	n/a	n/a	n/a	-999	1	[-999, -999, -999]	n/a	catFR1	0	R1067P
214.479	1.1	735164	DISTRACT_END	n/a	n/a	n/a	n/a	-999	1	[0, 0, 0]	n/a	catFR1	0	R1067P
215.579	0.885	735714	REC_START	n/a	n/a	n/a	n/a	-999	1	[0, 0, 0]	n/a	catFR1	0	R1067P
216.464	1.552	736156	REC_WORD_VV	1.552	n/a	<>	n/a	-999	1	[0, 0, 0]	n/a	catFR1	0	R1067P
218.016	1.161	736932	REC_WORD	1.161	n/a	BEAM	n/a	-999	1	[0, 0, 0]	n/a	catFR1	0	R1067P
219.177	1.0	737513	REC_WORD_VV	1.0	n/a	<>	n/a	-999	1	[0, 0, 0]	n/a	catFR1	0	R1067P
220.177	0.983	738013	REC_WORD_VV	0.983	n/a	<>	n/a	-999	1	[0, 0, 0]	n/a	catFR1	0	R1067P
221.16	1.0	738504	REC_WORD_VV	1.0	n/a	<>	n/a	-999	1	[0, 0, 0]	n/a	catFR1	0	R1067P
222.16	0.13	739004	REC_WORD_VV	0.13	n/a	<>	n/a	-999	1	[0, 0, 0]	n/a	catFR1	0	R1067P
222.29	1.036	739069	REC_WORD	1.036	n/a	DUCK	Birds	10	1	[0, 0, 0]	n/a	catFR1	0	R1067P
223.326	0.288	739587	REC_WORD_VV	0.288	n/a	<>	n/a	-999	1	[0, 0, 0]	n/a	catFR1	0	R1067P
223.614	1.032	739731	REC_WORD	1.032	n/a	CALF	FarmAnimals	7	1	[0, 0, 0]	n/a	catFR1	0	R1067P
224.646	0.304	740247	REC_WORD_VV	0.304	n/a	<>	n/a	-999	1	[0, 0, 0]	n/a	catFR1	0	R1067P
224.95	1.886	740399	REC_WORD	1.886	n/a	COW	FarmAnimals	8	1	[0, 0, 0]	n/a	catFR1	0	R1067P
226.836	1.0	741342	REC_WORD_VV	1.0	n/a	<>	n/a	-999	1	[0, 0, 0]	n/a	catFR1	0	R1067P
227.836	2.48	741842	REC_WORD_VV	2.48	n/a	<>	n/a	-999	1	[0, 0, 0]	n/a	catFR1	0	R1067P
230.316	0.362	743082	REC_WORD_VV	0.362	n/a	<>	n/a	-999	1	[0, 0, 0]	n/a	catFR1	0	R1067P
230.678	3.047	743263	REC_WORD	3.047	n/a	BLUEBIRD	Birds	6	1	[0, 0, 0]	n/a	catFR1	0	R1067P
233.725	4.085	744787	REC_WORD	4.085	n/a	MEADOW	n/a	-999	1	[0, 0, 0]	n/a	catFR1	0	R1067P
237.81	0.349	746829	REC_WORD_VV	0.349	n/a	<>	n/a	-999	1	[0, 0, 0]	n/a	catFR1	0	R1067P
238.159	2.817	747003	REC_WORD	2.817	n/a	DUCK	Birds	10	1	[0, 0, 0]	n/a	catFR1	0	R1067P
240.976	4.023	748412	REC_WORD	4.023	n/a	CHICKEN	FarmAnimals	1	1	[0, 0, 0]	n/a	catFR1	0	R1067P
244.999	0.594	750423	REC_WORD	0.594	n/a	EVERGREEN	Trees	3	1	[0, 0, 0]	n/a	catFR1	0	R1067P
245.593	4.893	750720	REC_END	n/a	n/a	n/a	n/a	-999	1	[0, 0, 0]	n/a	catFR1	0	R1067P
250.486	0.0	753167	TRIAL	n/a	n/a	n/a	n/a	-999	2	[0, 0, 0]	n/a	catFR1	0	R1067P
250.486	10.428	753167	COUNTDOWN_START	n/a	n/a	n/a	n/a	-999	2	[0, 0, 0]	n/a	catFR1	0	R1067P
260.914	0.007	758380	COUNTDOWN_END	n/a	n/a	n/a	n/a	-999	2	[0, 0, 0]	n/a	catFR1	0	R1067P
260.921	3.485	758384	ORIENT	n/a	n/a	n/a	n/a	-999	2	[0, 0, 0]	n/a	catFR1	0	R1067P
264.406	2.432	760126	WORD	n/a	wordpools/wordpool_categorized_EN.txt	PUZZLE	Toys	1	2	[0, 0, 0]	n/a	catFR1	0	R1067P
266.838	2.569	761342	WORD	n/a	wordpools/wordpool_categorized_EN.txt	BASKETBALL	Toys	2	2	[0, 0, 0]	n/a	catFR1	0	R1067P
269.407	2.382	762627	WORD	n/a	wordpools/wordpool_categorized_EN.txt	BROWNIES	Desserts	3	2	[0, 0, 0]	n/a	catFR1	0	R1067P
271.789	2.535	763818	WORD	n/a	wordpools/wordpool_categorized_EN.txt	JELLO	Desserts	4	2	[0, 0, 0]	n/a	catFR1	0	R1067P
274.324	2.466	765085	WORD	n/a	wordpools/wordpool_categorized_EN.txt	UNDERWEAR	Clothing	5	2	[0, 0, 0]	n/a	catFR1	0	R1067P
276.79	2.417	766318	WORD	n/a	wordpools/wordpool_categorized_EN.txt	JACKET	Clothing	6	2	[0, 0, 0]	n/a	catFR1	0	R1067P
279.207	2.517	767526	WORD	n/a	wordpools/wordpool_categorized_EN.txt	PASTRY	Desserts	7	2	[0, 0, 0]	n/a	catFR1	0	R1067P
281.724	2.535	768785	WORD	n/a	wordpools/wordpool_categorized_EN.txt	FUDGE	Desserts	8	2	[0, 0, 0]	n/a	catFR1	0	R1067P
284.259	2.55	770052	WORD	n/a	wordpools/wordpool_categorized_EN.txt	DOLL	Toys	9	2	[0, 0, 0]	n/a	catFR1	0	R1067P
286.809	2.585	771327	WORD	n/a	wordpools/wordpool_categorized_EN.txt	BARBIE	Toys	10	2	[0, 0, 0]	n/a	catFR1	0	R1067P
289.394	2.566	772620	WORD	n/a	wordpools/wordpool_categorized_EN.txt	SHIRT	Clothing	11	2	[0, 0, 0]	n/a	catFR1	0	R1067P
291.96	1.617	773903	WORD	n/a	wordpools/wordpool_categorized_EN.txt	BLOUSE	Clothing	12	2	[0, 0, 0]	n/a	catFR1	0	R1067P
293.577	0.002	774711	DISTRACT_START	n/a	n/a	n/a	n/a	-999	2	[0, 0, 0]	n/a	catFR1	0	R1067P
293.579	0.014	774712	START	n/a	n/a	n/a	n/a	-999	2	[-999, -999, -999]	n/a	catFR1	0	R1067P
293.593	4.752	774719	PROB	4.752	n/a	n/a	n/a	-999	2	[4, 3, 1]	8	catFR1	0	R1067P
298.345	4.084	777095	PROB	4.084	n/a	n/a	n/a	-999	2	[6, 8, 6]	20	catFR1	0	R1067P
302.429	3.667	779137	PROB	3.667	n/a	n/a	n/a	-999	2	[5, 2, 2]	9	catFR1	0	R1067P
306.096	3.5	780970	PROB	3.5	n/a	n/a	n/a	-999	2	[1, 4, 3]	8	catFR1	0	R1067P
309.596	4.712	782720	PROB	4.712	n/a	n/a	n/a	-999	2	[6, 4, 9]	19	catFR1	0	R1067P
314.308	0.007	785076	STOP	n/a	n/a	n/a	n/a	-999	2	[-999, -999, -999]	n/a	catFR1	0	R1067P
314.315	1.051	785080	DISTRACT_END	n/a	n/a	n/a	n/a	-999	2	[0, 0, 0]	n/a	catFR1	0	R1067P
315.366	0.779	785605	REC_START	n/a	n/a	n/a	n/a	-999	2	[0, 0, 0]	n/a	catFR1	0	R1067P
316.145	1.205	785994	REC_WORD_VV	1.205	n/a	<>	n/a	-999	2	[0, 0, 0]	n/a	catFR1	0	R1067P
317.35	2.317	786597	REC_WORD	2.317	n/a	BROWNIES	Desserts	3	2	[0, 0, 0]	n/a	catFR1	0	R1067P
319.667	0.879	787755	REC_WORD	0.879	n/a	UNDERWEAR	Clothing	5	2	[0, 0, 0]	n/a	catFR1	0	R1067P
320.546	1.0	788195	REC_WORD_VV	1.0	n/a	<>	n/a	-999	2	[0, 0, 0]	n/a	catFR1	0	R1067P
321.546	2.42	788695	REC_WORD_VV	2.42	n/a	<>	n/a	-999	2	[0, 0, 0]	n/a	catFR1	0	R1067P
323.966	0.368	789905	REC_WORD_VV	0.368	n/a	<>	n/a	-999	2	[0, 0, 0]	n/a	catFR1	0	R1067P
324.334	4.951	790089	REC_WORD	4.951	n/a	COOKIE	n/a	-999	2	[0, 0, 0]	n/a	catFR1	0	R1067P
329.285	2.166	792564	REC_WORD	2.166	n/a	BASKETBALL	Toys	2	2	[0, 0, 0]	n/a	catFR1	0	R1067P
331.451	2.896	793647	REC_WORD	2.896	n/a	FUDGE	Desserts	8	2	[0, 0, 0]	n/a	catFR1	0	R1067P
334.347	6.443	795095	REC_WORD	6.443	n/a	PUZZLE	Toys	1	2	[0, 0, 0]	n/a	catFR1	0	R1067P
340.79	3.362	798316	REC_WORD	3.362	n/a	SHORTS	n/a	-999	2	[0, 0, 0]	n/a	catFR1	0	R1067P
344.152	1.223	799997	REC_WORD	1.223	n/a	BLOUSE	Clothing	12	2	[0, 0, 0]	n/a	catFR1	0	R1067P
345.375	5.446	800609	REC_END	n/a	n/a	n/a	n/a	-999	2	[0, 0, 0]	n/a	catFR1	0	R1067P
350.821	0.0	803332	TRIAL	n/a	n/a	n/a	n/a	-999	3	[0, 0, 0]	n/a	catFR1	0	R1067P
350.821	10.428	803332	COUNTDOWN_START	n/a	n/a	n/a	n/a	-999	3	[0, 0, 0]	n/a	catFR1	0	R1067P
361.249	0.008	808545	COUNTDOWN_END	n/a	n/a	n/a	n/a	-999	3	[0, 0, 0]	n/a	catFR1	0	R1067P
361.257	3.6	808549	ORIENT	n/a	n/a	n/a	n/a	-999	3	[0, 0, 0]	n/a	catFR1	0	R1067P
364.857	2.385	810349	WORD	n/a	wordpools/wordpool_categorized_EN.txt	AXE	Tools	1	3	[0, 0, 0]	n/a	catFR1	0	R1067P
367.242	2.582	811542	WORD	n/a	wordpools/wordpool_categorized_EN.txt	RATCHET	Tools	2	3	[0, 0, 0]	n/a	catFR1	0	R1067P
369.824	2.468	812833	WORD	n/a	wordpools/wordpool_categorized_EN.txt	SPOON	KitchenTools	3	3	[0, 0, 0]	n/a	catFR1	0	R1067P
372.292	2.583	814067	WORD	n/a	wordpools/wordpool_categorized_EN.txt	SPATULA	KitchenTools	4	3	[0, 0, 0]	n/a	catFR1	0	R1067P
374.875	2.552	815358	WORD	n/a	wordpools/wordpool_categorized_EN.txt	SOCKS	Clothing	5	3	[0, 0, 0]	n/a	catFR1	0	R1067P
377.427	2.483	816634	WORD	n/a	wordpools/wordpool_categorized_EN.txt	DRESS	Clothing	6	3	[0, 0, 0]	n/a	catFR1	0	R1067P
379.91	2.518	817875	WORD	n/a	wordpools/wordpool_categorized_EN.txt	SHOVEL	Tools	7	3	[0, 0, 0]	n/a	catFR1	0	R1067P
382.428	2.466	819134	WORD	n/a	wordpools/wordpool_categorized_EN.txt	DRILL	Tools	8	3	[0, 0, 0]	n/a	catFR1	0	R1067P
384.894	2.601	820367	WORD	n/a	wordpools/wordpool_categorized_EN.txt	COAT	Clothing	9	3	[0, 0, 0]	n/a	catFR1	0	R1067P
387.495	2.533	821668	WORD	n/a	wordpools/wordpool_categorized_EN.txt	SHOES	Clothing	10	3	[0, 0, 0]	n/a	catFR1	0	R1067P
390.028	2.385	822934	WORD	n/a	wordpools/wordpool_categorized_EN.txt	TONGS	KitchenTools	11	3	[0, 0, 0]	n/a	catFR1	0	R1067P
392.413	1.616	824127	WORD	n/a	wordpools/wordpool_categorized_EN.txt	LADLE	KitchenTools	12	3	[0, 0, 0]	n/a	catFR1	0	R1067P
394.029	0.001	824935	DISTRACT_START	n/a	n/a	n/a	n/a	-999	3	[0, 0, 0]	n/a	catFR1	0	R1067P
394.03	0.016	824935	START	n/a	n/a	n/a	n/a	-999	3	[-999, -999, -999]	n/a	catFR1	0	R1067P
394.046	8.202	824943	PROB	8.202	n/a	n/a	n/a	-999	3	[9, 8, 9]	26	catFR1	0	R1067P
402.248	4.101	829044	PROB	4.101	n/a	n/a	n/a	-999	3	[5, 9, 3]	17	catFR1	0	R1067P
406.349	3.4	831094	PROB	3.4	n/a	n/a	n/a	-999	3	[1, 6, 7]	14	catFR1	0	R1067P
409.749	4.302	832794	PROB	4.302	n/a	n/a	n/a	-999	3	[8, 7, 2]	17	catFR1	0	R1067P
414.051	0.015	834945	STOP	n/a	n/a	n/a	n/a	-999	3	[-999, -999, -999]	n/a	catFR1	0	R1067P
414.066	1.034	834953	DISTRACT_END	n/a	n/a	n/a	n/a	-999	3	[0, 0, 0]	n/a	catFR1	0	R1067P
415.1	1.182	835470	REC_START	n/a	n/a	n/a	n/a	-999	3	[0, 0, 0]	n/a	catFR1	0	R1067P
416.282	0.846	836061	REC_WORD_VV	0.846	n/a	<>	n/a	-999	3	[0, 0, 0]	n/a	catFR1	0	R1067P
417.128	1.0	836483	REC_WORD	1.0	n/a	SPATULA	KitchenTools	4	3	[0, 0, 0]	n/a	catFR1	0	R1067P
418.128	2.252	836983	REC_WORD_VV	2.252	n/a	<>	n/a	-999	3	[0, 0, 0]	n/a	catFR1	0	R1067P
420.38	4.226	838109	REC_WORD_VV	4.226	n/a	<>	n/a	-999	3	[0, 0, 0]	n/a	catFR1	0	R1067P
424.606	1.097	840222	REC_WORD_VV	1.097	n/a	<>	n/a	-999	3	[0, 0, 0]	n/a	catFR1	0	R1067P
425.703	0.743	840771	REC_WORD	0.743	n/a	SPARROW	n/a	-999	3	[0, 0, 0]	n/a	catFR1	0	R1067P
426.446	0.875	841142	REC_WORD_VV	0.875	n/a	<>	n/a	-999	3	[0, 0, 0]	n/a	catFR1	0	R1067P
427.321	0.984	841580	REC_WORD	0.984	n/a	SPATULA	KitchenTools	4	3	[0, 0, 0]	n/a	catFR1	0	R1067P
428.305	6.152	842072	REC_WORD	6.152	n/a	AXE	Tools	1	3	[0, 0, 0]	n/a	catFR1	0	R1067P
434.457	7.785	845148	REC_WORD	7.785	n/a	DRESS	Clothing	6	3	[0, 0, 0]	n/a	catFR1	0	R1067P
442.242	0.268	849040	REC_WORD_VV	0.268	n/a	<>	n/a	-999	3	[0, 0, 0]	n/a	catFR1	0	R1067P
442.51	2.605	849174	REC_WORD	2.605	n/a	AXE	Tools	1	3	[0, 0, 0]	n/a	catFR1	0	R1067P
445.115	5.392	850476	REC_END	n/a	n/a	n/a	n/a	-999	3	[0, 0, 0]	n/a	catFR1	0	R1067P
450.507	0.0	853172	COUNTDOWN_START	n/a	n/a	n/a	n/a	-999	4	[0, 0, 0]	n/a	catFR1	0	R1067P
450.507	10.428	853172	TRIAL	n/a	n/a	n/a	n/a	-999	4	[0, 0, 0]	n/a	catFR1	0	R1067P
460.935	0.007	858386	COUNTDOWN_END	n/a	n/a	n/a	n/a	-999	4	[0, 0, 0]	n/a	catFR1	0	R1067P
460.942	3.934	858389	ORIENT	n/a	n/a	n/a	n/a	-999	4	[0, 0, 0]	n/a	catFR1	0	R1067P
464.876	2.384	860356	WORD	n/a	wordpools/wordpool_categorized_EN.txt	STREAM	Landscapes	1	4	[0, 0, 0]	n/a	catFR1	0	R1067P
467.26	2.617	861548	WORD	n/a	wordpools/wordpool_categorized_EN.txt	BEACH	Landscapes	2	4	[0, 0, 0]	n/a	catFR1	0	R1067P
469.877	2.418	862857	WORD	n/a	wordpools/wordpool_categorized_EN.txt	LEVEL	Tools	3	4	[0, 0, 0]	n/a	catFR1	0	R1067P
472.295	2.449	864066	WORD	n/a	wordpools/wordpool_categorized_EN.txt	SAW	Tools	4	4	[0, 0, 0]	n/a	catFR1	0	R1067P
474.744	2.602	865290	WORD	n/a	wordpools/wordpool_categorized_EN.txt	MOPED	Vehicles	5	4	[0, 0, 0]	n/a	catFR1	0	R1067P
477.346	2.616	866591	WORD	n/a	wordpools/wordpool_categorized_EN.txt	JEEP	Vehicles	6	4	[0, 0, 0]	n/a	catFR1	0	R1067P
479.962	2.567	867899	WORD	n/a	wordpools/wordpool_categorized_EN.txt	LAKE	Landscapes	7	4	[0, 0, 0]	n/a	catFR1	0	R1067P
482.529	2.567	869182	WORD	n/a	wordpools/wordpool_categorized_EN.txt	ISLAND	Landscapes	8	4	[0, 0, 0]	n/a	catFR1	0	R1067P
485.096	2.617	870466	WORD	n/a	wordpools/wordpool_categorized_EN.txt	TRAIN	Vehicles	9	4	[0, 0, 0]	n/a	catFR1	0	R1067P
487.713	2.451	871774	WORD	n/a	wordpools/wordpool_categorized_EN.txt	BIKE	Vehicles	10	4	[0, 0, 0]	n/a	catFR1	0	R1067P
490.164	2.55	873000	WORD	n/a	wordpools/wordpool_categorized_EN.txt	PLIERS	Tools	11	4	[0, 0, 0]	n/a	catFR1	0	R1067P
492.714	1.601	874275	WORD	n/a	wordpools/wordpool_categorized_EN.txt	SCREWDRIVER	Tools	12	4	[0, 0, 0]	n/a	catFR1	0	R1067P
494.315	0.001	875075	DISTRACT_START	n/a	n/a	n/a	n/a	-999	4	[0, 0, 0]	n/a	catFR1	0	R1067P
494.316	0.016	875076	START	n/a	n/a	n/a	n/a	-999	4	[-999, -999, -999]	n/a	catFR1	0	R1067P
494.332	5.55	875084	PROB	5.55	n/a	n/a	n/a	-999	4	[8, 7, 2]	17	catFR1	0	R1067P
499.882	3.634	877858	PROB	3.634	n/a	n/a	n/a	-999	4	[8, 2, 1]	11	catFR1	0	R1067P
503.516	3.634	879675	PROB	3.634	n/a	n/a	n/a	-999	4	[3, 4, 3]	10	catFR1	0	R1067P
507.15	3.252	881492	PROB	3.252	n/a	n/a	n/a	-999	4	[8, 6, 6]	20	catFR1	0	R1067P
510.402	2.984	883118	PROB	2.984	n/a	n/a	n/a	-999	4	[7, 7, 8]	22	catFR1	0	R1067P
513.386	3.217	884610	PROB	3.217	n/a	n/a	n/a	-999	4	[4, 1, 9]	14	catFR1	0	R1067P
516.603	0.016	886219	STOP	n/a	n/a	n/a	n/a	-999	4	[-999, -999, -999]	n/a	catFR1	0	R1067P
516.619	1.217	886227	DISTRACT_END	n/a	n/a	n/a	n/a	-999	4	[0, 0, 0]	n/a	catFR1	0	R1067P
517.836	0.581	886835	REC_START	n/a	n/a	n/a	n/a	-999	4	[0, 0, 0]	n/a	catFR1	0	R1067P
518.417	0.283	887125	REC_WORD_VV	0.283	n/a	<>	n/a	-999	4	[0, 0, 0]	n/a	catFR1	0	R1067P
518.7	1.998	887267	REC_WORD	1.998	n/a	STREAM	Landscapes	1	4	[0, 0, 0]	n/a	catFR1	0	R1067P
520.698	2.623	888266	REC_WORD	2.623	n/a	LAKE	Landscapes	7	4	[0, 0, 0]	n/a	catFR1	0	R1067P
523.321	2.676	889577	REC_WORD	2.676	n/a	ISLAND	Landscapes	8	4	[0, 0, 0]	n/a	catFR1	0	R1067P
525.997	0.486	890915	REC_WORD_VV	0.486	n/a	<>	n/a	-999	4	[0, 0, 0]	n/a	catFR1	0	R1067P
526.483	1.626	891158	REC_WORD	1.626	n/a	RIVER	n/a	-999	4	[0, 0, 0]	n/a	catFR1	0	R1067P
528.109	1.662	891971	REC_WORD	1.662	n/a	SPATULA	n/a	-999	4	[0, 0, 0]	n/a	catFR1	0	R1067P
529.771	0.396	892802	REC_WORD_VV	0.396	n/a	<>	n/a	-999	4	[0, 0, 0]	n/a	catFR1	0	R1067P
530.167	12.532	893000	REC_WORD	12.532	n/a	SCREWDRIVER	Tools	12	4	[0, 0, 0]	n/a	catFR1	0	R1067P
542.699	1.0	899266	REC_WORD_VV	1.0	n/a	<>	n/a	-999	4	[0, 0, 0]	n/a	catFR1	0	R1067P
543.699	4.152	899766	REC_WORD_VV	4.152	n/a	<>	n/a	-999	4	[0, 0, 0]	n/a	catFR1	0	R1067P
547.851	3.774	901842	REC_END	n/a	n/a	n/a	n/a	-999	4	[0, 0, 0]	n/a	catFR1	0	R1067P
551.625	0.0	903729	TRIAL	n/a	n/a	n/a	n/a	-999	5	[0, 0, 0]	n/a	catFR1	0	R1067P
551.625	10.428	903729	COUNTDOWN_START	n/a	n/a	n/a	n/a	-999	5	[0, 0, 0]	n/a	catFR1	0	R1067P
562.053	0.008	908942	COUNTDOWN_END	n/a	n/a	n/a	n/a	-999	5	[0, 0, 0]	n/a	catFR1	0	R1067P
562.061	3.733	908946	ORIENT	n/a	n/a	n/a	n/a	-999	5	[0, 0, 0]	n/a	catFR1	0	R1067P
565.794	2.552	910813	WORD	n/a	wordpools/wordpool_categorized_EN.txt	TURTLE	OceanAnimals	1	5	[0, 0, 0]	n/a	catFR1	0	R1067P
568.346	2.483	912089	WORD	n/a	wordpools/wordpool_categorized_EN.txt	FISH	OceanAnimals	2	5	[0, 0, 0]	n/a	catFR1	0	R1067P
570.829	2.468	913330	WORD	n/a	wordpools/wordpool_categorized_EN.txt	MICROWAVE	Electronics	3	5	[0, 0, 0]	n/a	catFR1	0	R1067P
573.297	2.416	914564	WORD	n/a	wordpools/wordpool_categorized_EN.txt	TABLET	Electronics	4	5	[0, 0, 0]	n/a	catFR1	0	R1067P
575.713	2.518	915772	WORD	n/a	wordpools/wordpool_categorized_EN.txt	CYPRESS	Trees	5	5	[0, 0, 0]	n/a	catFR1	0	R1067P
578.231	2.45	917031	WORD	n/a	wordpools/wordpool_categorized_EN.txt	PINE	Trees	6	5	[0, 0, 0]	n/a	catFR1	0	R1067P
580.681	2.568	918256	WORD	n/a	wordpools/wordpool_categorized_EN.txt	TELEVISION	Electronics	7	5	[0, 0, 0]	n/a	catFR1	0	R1067P
583.249	2.466	919540	WORD	n/a	wordpools/wordpool_categorized_EN.txt	COMPUTER	Electronics	8	5	[0, 0, 0]	n/a	catFR1	0	R1067P
585.715	2.4	920773	WORD	n/a	wordpools/wordpool_categorized_EN.txt	PLANKTON	OceanAnimals	9	5	[0, 0, 0]	n/a	catFR1	0	R1067P
588.115	2.584	921973	WORD	n/a	wordpools/wordpool_categorized_EN.txt	CRAB	OceanAnimals	10	5	[0, 0, 0]	n/a	catFR1	0	R1067P
590.699	2.451	923265	WORD	n/a	wordpools/wordpool_categorized_EN.txt	WALNUT	Trees	11	5	[0, 0, 0]	n/a	catFR1	0	R1067P
593.15	1.617	924490	WORD	n/a	wordpools/wordpool_categorized_EN.txt	OAK	Trees	12	5	[0, 0, 0]	n/a	catFR1	0	R1067P
594.767	0.001	925299	DISTRACT_START	n/a	n/a	n/a	n/a	-999	5	[0, 0, 0]	n/a	catFR1	0	R1067P
594.768	0.015	925299	START	n/a	n/a	n/a	n/a	-999	5	[-999, -999, -999]	n/a	catFR1	0	R1067P
594.783	5.669	925307	PROB	5.669	n/a	n/a	n/a	-999	5	[1, 7, 9]	17	catFR1	0	R1067P
600.452	5.433	928141	PROB	5.433	n/a	n/a	n/a	-999	5	[4, 1, 9]	14	catFR1	0	R1067P
605.885	4.318	930857	PROB	4.318	n/a	n/a	n/a	-999	5	[9, 4, 4]	17	catFR1	0	R1067P
610.203	3.917	933016	PROB	3.917	n/a	n/a	n/a	-999	5	[8, 7, 4]	15	catFR1	0	R1067P
614.12	3.787	934975	PROB	3.787	n/a	n/a	n/a	-999	5	[3, 3, 3]	9	catFR1	0	R1067P
617.907	0.014	936868	STOP	n/a	n/a	n/a	n/a	-999	5	[-999, -999, -999]	n/a	catFR1	0	R1067P
617.921	1.084	936875	DISTRACT_END	n/a	n/a	n/a	n/a	-999	5	[0, 0, 0]	n/a	catFR1	0	R1067P
619.005	1.633	937417	REC_START	n/a	n/a	n/a	n/a	-999	5	[0, 0, 0]	n/a	catFR1	0	R1067P
620.638	8.048	938233	REC_WORD_VV	8.048	n/a	<>	n/a	-999	5	[0, 0, 0]	n/a	catFR1	0	R1067P
628.686	13.461	942257	REC_WORD_VV	13.461	n/a	<>	n/a	-999	5	[0, 0, 0]	n/a	catFR1	0	R1067P
642.147	1.0	948987	REC_WORD_VV	1.0	n/a	<>	n/a	-999	5	[0, 0, 0]	n/a	catFR1	0	R1067P
643.147	5.87	949487	REC_WORD_VV	5.87	n/a	<>	n/a	-999	5	[0, 0, 0]	n/a	catFR1	0	R1067P
649.017	3.927	952422	REC_END	n/a	n/a	n/a	n/a	-999	5	[0, 0, 0]	n/a	catFR1	0	R1067P
652.944	0.001	954386	COUNTDOWN_START	n/a	n/a	n/a	n/a	-999	6	[0, 0, 0]	n/a	catFR1	0	R1067P
652.945	10.427	954386	TRIAL	n/a	n/a	n/a	n/a	-999	6	[0, 0, 0]	n/a	catFR1	0	R1067P
663.372	0.009	959599	COUNTDOWN_END	n/a	n/a	n/a	n/a	-999	6	[0, 0, 0]	n/a	catFR1	0	R1067P
663.381	3.749	959604	ORIENT	n/a	n/a	n/a	n/a	-999	6	[0, 0, 0]	n/a	catFR1	0	R1067P
667.13	2.501	961478	WORD	n/a	wordpools/wordpool_categorized_EN.txt	MOUSSE	Desserts	1	6	[0, 0, 0]	n/a	catFR1	0	R1067P
669.631	2.434	962729	WORD	n/a	wordpools/wordpool_categorized_EN.txt	CUPCAKE	Desserts	2	6	[0, 0, 0]	n/a	catFR1	0	R1067P
672.065	2.517	963946	WORD	n/a	wordpools/wordpool_categorized_EN.txt	LAMB	FarmAnimals	3	6	[0, 0, 0]	n/a	catFR1	0	R1067P
674.582	2.6	965204	WORD	n/a	wordpools/wordpool_categorized_EN.txt	PIG	FarmAnimals	4	6	[0, 0, 0]	n/a	catFR1	0	R1067P
677.182	2.534	966504	WORD	n/a	wordpools/wordpool_categorized_EN.txt	PEELER	KitchenTools	5	6	[0, 0, 0]	n/a	catFR1	0	R1067P
679.716	2.45	967771	WORD	n/a	wordpools/wordpool_categorized_EN.txt	KNIFE	KitchenTools	6	6	[0, 0, 0]	n/a	catFR1	0	R1067P
682.166	2.568	968996	WORD	n/a	wordpools/wordpool_categorized_EN.txt	PIE	Desserts	7	6	[0, 0, 0]	n/a	catFR1	0	R1067P
684.734	2.433	970280	WORD	n/a	wordpools/wordpool_categorized_EN.txt	COBBLER	Desserts	8	6	[0, 0, 0]	n/a	catFR1	0	R1067P
687.167	2.434	971496	WORD	n/a	wordpools/wordpool_categorized_EN.txt	WHISK	KitchenTools	9	6	[0, 0, 0]	n/a	catFR1	0	R1067P
689.601	2.417	972713	WORD	n/a	wordpools/wordpool_categorized_EN.txt	FORK	KitchenTools	10	6	[0, 0, 0]	n/a	catFR1	0	R1067P
692.018	2.418	973922	WORD	n/a	wordpools/wordpool_categorized_EN.txt	GOAT	FarmAnimals	11	6	[0, 0, 0]	n/a	catFR1	0	R1067P
694.436	1.616	975131	WORD	n/a	wordpools/wordpool_categorized_EN.txt	SHEEP	FarmAnimals	12	6	[0, 0, 0]	n/a	catFR1	0	R1067P
696.052	0.002	975939	DISTRACT_START	n/a	n/a	n/a	n/a	-999	6	[0, 0, 0]	n/a	catFR1	0	R1067P
696.054	0.015	975940	START	n/a	n/a	n/a	n/a	-999	6	[-999, -999, -999]	n/a	catFR1	0	R1067P
696.069	5.818	975947	PROB	5.818	n/a	n/a	n/a	-999	6	[1, 6, 9]	16	catFR1	0	R1067P
701.887	11.252	978856	PROB	11.252	n/a	n/a	n/a	-999	6	[3, 3, 9]	15	catFR1	0	R1067P
713.139	11.008	984482	PROB	11.008	n/a	n/a	n/a	-999	6	[5, 7, 8]	20	catFR1	0	R1067P
724.147	0.011	989985	STOP	n/a	n/a	n/a	n/a	-999	6	[-999, -999, -999]	n/a	catFR1	0	R1067P
724.158	1.235	989991	DISTRACT_END	n/a	n/a	n/a	n/a	-999	6	[0, 0, 0]	n/a	catFR1	0	R1067P
725.393	0.987	990608	REC_START	n/a	n/a	n/a	n/a	-999	6	[0, 0, 0]	n/a	catFR1	0	R1067P
726.38	1.368	991102	REC_WORD_VV	1.368	n/a	<>	n/a	-999	6	[0, 0, 0]	n/a	catFR1	0	R1067P
727.748	1.0	991786	REC_WORD_VV	1.0	n/a	<>	n/a	-999	6	[0, 0, 0]	n/a	catFR1	0	R1067P
728.748	1.0	992286	REC_WORD_VV	1.0	n/a	<>	n/a	-999	6	[0, 0, 0]	n/a	catFR1	0	R1067P
729.748	1.0	992786	REC_WORD_VV	1.0	n/a	<>	n/a	-999	6	[0, 0, 0]	n/a	catFR1	0	R1067P
730.748	1.0	993286	REC_WORD_VV	1.0	n/a	<>	n/a	-999	6	[0, 0, 0]	n/a	catFR1	0	R1067P
731.748	0.295	993786	REC_WORD_VV	0.295	n/a	<>	n/a	-999	6	[0, 0, 0]	n/a	catFR1	0	R1067P
732.043	7.375	993933	REC_WORD	7.375	n/a	MOUSSE	Desserts	1	6	[0, 0, 0]	n/a	catFR1	0	R1067P
739.418	2.225	997620	REC_WORD_VV	2.225	n/a	<>	n/a	-999	6	[0, 0, 0]	n/a	catFR1	0	R1067P
741.643	2.071	998733	REC_WORD_VV	2.071	n/a	<>	n/a	-999	6	[0, 0, 0]	n/a	catFR1	0	R1067P
743.714	10.277	999768	REC_WORD_VV	10.277	n/a	<>	n/a	-999	6	[0, 0, 0]	n/a	catFR1	0	R1067P
753.991	1.414	1004907	REC_WORD_VV	1.414	n/a	<>	n/a	-999	6	[0, 0, 0]	n/a	catFR1	0	R1067P
755.405	3.927	1005614	REC_END	n/a	n/a	n/a	n/a	-999	6	[0, 0, 0]	n/a	catFR1	0	R1067P
759.332	0.0	1007577	TRIAL	n/a	n/a	n/a	n/a	-999	7	[0, 0, 0]	n/a	catFR1	0	R1067P
759.332	10.428	1007577	COUNTDOWN_START	n/a	n/a	n/a	n/a	-999	7	[0, 0, 0]	n/a	catFR1	0	R1067P
769.76	0.006	1012791	COUNTDOWN_END	n/a	n/a	n/a	n/a	-999	7	[0, 0, 0]	n/a	catFR1	0	R1067P
769.766	3.834	1012794	ORIENT	n/a	n/a	n/a	n/a	-999	7	[0, 0, 0]	n/a	catFR1	0	R1067P
773.6	2.567	1014711	WORD	n/a	wordpools/wordpool_categorized_EN.txt	FLY	Insects	1	7	[0, 0, 0]	n/a	catFR1	0	R1067P
776.167	2.418	1015994	WORD	n/a	wordpools/wordpool_categorized_EN.txt	BUTTERFLY	Insects	2	7	[0, 0, 0]	n/a	catFR1	0	R1067P
778.585	2.383	1017203	WORD	n/a	wordpools/wordpool_categorized_EN.txt	DOVE	Birds	3	7	[0, 0, 0]	n/a	catFR1	0	R1067P
780.968	2.568	1018394	WORD	n/a	wordpools/wordpool_categorized_EN.txt	PIGEON	Birds	4	7	[0, 0, 0]	n/a	catFR1	0	R1067P
783.536	2.416	1019678	WORD	n/a	wordpools/wordpool_categorized_EN.txt	PLUM	Fruit	5	7	[0, 0, 0]	n/a	catFR1	0	R1067P
785.952	2.452	1020886	WORD	n/a	wordpools/wordpool_categorized_EN.txt	ORANGE	Fruit	6	7	[0, 0, 0]	n/a	catFR1	0	R1067P
788.404	2.599	1022112	WORD	n/a	wordpools/wordpool_categorized_EN.txt	CROW	Birds	7	7	[0, 0, 0]	n/a	catFR1	0	R1067P
791.003	2.468	1023412	WORD	n/a	wordpools/wordpool_categorized_EN.txt	GOOSE	Birds	8	7	[0, 0, 0]	n/a	catFR1	0	R1067P
793.471	2.467	1024646	WORD	n/a	wordpools/wordpool_categorized_EN.txt	ANT	Insects	9	7	[0, 0, 0]	n/a	catFR1	0	R1067P
795.938	2.501	1025879	WORD	n/a	wordpools/wordpool_categorized_EN.txt	ROACH	Insects	10	7	[0, 0, 0]	n/a	catFR1	0	R1067P
798.439	2.516	1027130	WORD	n/a	wordpools/wordpool_categorized_EN.txt	PEAR	Fruit	11	7	[0, 0, 0]	n/a	catFR1	0	R1067P
800.955	1.617	1028387	WORD	n/a	wordpools/wordpool_categorized_EN.txt	LEMON	Fruit	12	7	[0, 0, 0]	n/a	catFR1	0	R1067P
802.572	0.001	1029196	DISTRACT_START	n/a	n/a	n/a	n/a	-999	7	[0, 0, 0]	n/a	catFR1	0	R1067P
802.573	0.016	1029196	START	n/a	n/a	n/a	n/a	-999	7	[-999, -999, -999]	n/a	catFR1	0	R1067P
802.589	5.686	1029204	PROB	5.686	n/a	n/a	n/a	-999	7	[2, 9, 7]	18	catFR1	0	R1067P
808.275	5.134	1032047	PROB	5.134	n/a	n/a	n/a	-999	7	[5, 9, 2]	16	catFR1	0	R1067P
813.409	5.017	1034614	PROB	5.017	n/a	n/a	n/a	-999	7	[2, 4, 1]	7	catFR1	0	R1067P
818.426	3.283	1037123	PROB	3.283	n/a	n/a	n/a	-999	7	[7, 1, 4]	12	catFR1	0	R1067P
821.709	6.494	1038764	PROB	6.494	n/a	n/a	n/a	-999	7	[7, 8, 7]	22	catFR1	0	R1067P
828.203	0.008	1042011	STOP	n/a	n/a	n/a	n/a	-999	7	[-999, -999, -999]	n/a	catFR1	0	R1067P
828.211	1.101	1042015	DISTRACT_END	n/a	n/a	n/a	n/a	-999	7	[0, 0, 0]	n/a	catFR1	0	R1067P
829.312	1.768	1042565	REC_START	n/a	n/a	n/a	n/a	-999	7	[0, 0, 0]	n/a	catFR1	0	R1067P
831.08	1.0	1043449	REC_WORD_VV	1.0	n/a	<>	n/a	-999	7	[0, 0, 0]	n/a	catFR1	0	R1067P
832.08	1.673	1043949	REC_WORD_VV	1.673	n/a	<>	n/a	-999	7	[0, 0, 0]	n/a	catFR1	0	R1067P
833.753	1.294	1044786	REC_WORD	1.294	n/a	DOVE	Birds	3	7	[0, 0, 0]	n/a	catFR1	0	R1067P
835.047	1.0	1045433	REC_WORD_VV	1.0	n/a	<>	n/a	-999	7	[0, 0, 0]	n/a	catFR1	0	R1067P
836.047	1.0	1045933	REC_WORD_VV	1.0	n/a	<>	n/a	-999	7	[0, 0, 0]	n/a	catFR1	0	R1067P
837.047	1.325	1046433	REC_WORD_VV	1.325	n/a	<>	n/a	-999	7	[0, 0, 0]	n/a	catFR1	0	R1067P
838.372	1.0	1047095	REC_WORD_VV	1.0	n/a	<>	n/a	-999	7	[0, 0, 0]	n/a	catFR1	0	R1067P
839.372	9.164	1047595	REC_WORD_VV	9.164	n/a	<>	n/a	-999	7	[0, 0, 0]	n/a	catFR1	0	R1067P
848.536	0.736	1052177	REC_WORD_VV	0.736	n/a	<>	n/a	-999	7	[0, 0, 0]	n/a	catFR1	0	R1067P
849.272	0.513	1052545	REC_WORD	0.513	n/a	SPATULA	n/a	-999	7	[0, 0, 0]	n/a	catFR1	0	R1067P
849.785	1.0	1052801	REC_WORD_VV	1.0	n/a	<>	n/a	-999	7	[0, 0, 0]	n/a	catFR1	0	R1067P
850.785	1.0	1053301	REC_WORD_VV	1.0	n/a	<>	n/a	-999	7	[0, 0, 0]	n/a	catFR1	0	R1067P
851.785	5.112	1053801	REC_WORD_VV	5.112	n/a	<>	n/a	-999	7	[0, 0, 0]	n/a	catFR1	0	R1067P
856.897	0.307	1056357	REC_WORD_VV	0.307	n/a	<>	n/a	-999	7	[0, 0, 0]	n/a	catFR1	0	R1067P
857.204	2.122	1056511	REC_WORD	2.122	n/a	DOVE	Birds	3	7	[0, 0, 0]	n/a	catFR1	0	R1067P
859.326	3.391	1057572	REC_END	n/a	n/a	n/a	n/a	-999	7	[0, 0, 0]	n/a	catFR1	0	R1067P
862.717	0.0	1059267	TRIAL	n/a	n/a	n/a	n/a	-999	8	[0, 0, 0]	n/a	catFR1	0	R1067P
862.717	10.428	1059267	COUNTDOWN_START	n/a	n/a	n/a	n/a	-999	8	[0, 0, 0]	n/a	catFR1	0	R1067P
873.145	0.007	1064481	COUNTDOWN_END	n/a	n/a	n/a	n/a	-999	8	[0, 0, 0]	n/a	catFR1	0	R1067P
873.152	3.684	1064484	ORIENT	n/a	n/a	n/a	n/a	-999	8	[0, 0, 0]	n/a	catFR1	0	R1067P
876.836	2.469	1066326	WORD	n/a	wordpools/wordpool_categorized_EN.txt	BOAT	Vehicles	1	8	[0, 0, 0]	n/a	catFR1	0	R1067P
879.305	2.499	1067561	WORD	n/a	wordpools/wordpool_categorized_EN.txt	MOTORCYCLE	Vehicles	2	8	[0, 0, 0]	n/a	catFR1	0	R1067P
881.804	2.418	1068810	WORD	n/a	wordpools/wordpool_categorized_EN.txt	TUBA	Instruments	3	8	[0, 0, 0]	n/a	catFR1	0	R1067P
884.222	2.383	1070019	WORD	n/a	wordpools/wordpool_categorized_EN.txt	GUITAR	Instruments	4	8	[0, 0, 0]	n/a	catFR1	0	R1067P
886.605	2.467	1071210	WORD	n/a	wordpools/wordpool_categorized_EN.txt	CABINET	Furniture	5	8	[0, 0, 0]	n/a	catFR1	0	R1067P
889.072	2.584	1072444	WORD	n/a	wordpools/wordpool_categorized_EN.txt	TABLE	Furniture	6	8	[0, 0, 0]	n/a	catFR1	0	R1067P
891.656	2.484	1073736	WORD	n/a	wordpools/wordpool_categorized_EN.txt	CAR	Vehicles	7	8	[0, 0, 0]	n/a	catFR1	0	R1067P
894.14	2.6	1074978	WORD	n/a	wordpools/wordpool_categorized_EN.txt	SCOOTER	Vehicles	8	8	[0, 0, 0]	n/a	catFR1	0	R1067P
896.74	2.502	1076278	WORD	n/a	wordpools/wordpool_categorized_EN.txt	DRESSER	Furniture	9	8	[0, 0, 0]	n/a	catFR1	0	R1067P
899.242	2.549	1077529	WORD	n/a	wordpools/wordpool_categorized_EN.txt	BED	Furniture	10	8	[0, 0, 0]	n/a	catFR1	0	R1067P
901.791	2.551	1078803	WORD	n/a	wordpools/wordpool_categorized_EN.txt	DRUM	Instruments	11	8	[0, 0, 0]	n/a	catFR1	0	R1067P
904.342	1.616	1080078	WORD	n/a	wordpools/wordpool_categorized_EN.txt	PIANO	Instruments	12	8	[0, 0, 0]	n/a	catFR1	0	R1067P
905.958	0.002	1080886	DISTRACT_START	n/a	n/a	n/a	n/a	-999	8	[0, 0, 0]	n/a	catFR1	0	R1067P
905.96	0.015	1080887	START	n/a	n/a	n/a	n/a	-999	8	[-999, -999, -999]	n/a	catFR1	0	R1067P
905.975	4.984	1080895	PROB	4.984	n/a	n/a	n/a	-999	8	[3, 4, 8]	15	catFR1	0	R1067P
910.959	3.285	1083387	PROB	3.285	n/a	n/a	n/a	-999	8	[2, 1, 1]	4	catFR1	0	R1067P
914.244	3.567	1085029	PROB	3.567	n/a	n/a	n/a	-999	8	[2, 7, 3]	12	catFR1	0	R1067P
917.811	6.751	1086813	PROB	6.751	n/a	n/a	n/a	-999	8	[4, 5, 7]	16	catFR1	0	R1067P
924.562	3.385	1090188	PROB	3.385	n/a	n/a	n/a	-999	8	[3, 7, 3]	13	catFR1	0	R1067P
927.947	0.016	1091880	STOP	n/a	n/a	n/a	n/a	-999	8	[-999, -999, -999]	n/a	catFR1	0	R1067P
927.963	1.067	1091888	DISTRACT_END	n/a	n/a	n/a	n/a	-999	8	[0, 0, 0]	n/a	catFR1	0	R1067P
929.03	0.582	1092422	REC_START	n/a	n/a	n/a	n/a	-999	8	[0, 0, 0]	n/a	catFR1	0	R1067P
929.612	0.786	1092713	REC_WORD_VV	0.786	n/a	<>	n/a	-999	8	[0, 0, 0]	n/a	catFR1	0	R1067P
930.398	0.526	1093106	REC_WORD_VV	0.526	n/a	<>	n/a	-999	8	[0, 0, 0]	n/a	catFR1	0	R1067P
930.924	1.261	1093369	REC_WORD	1.261	n/a	BOAT	Vehicles	1	8	[0, 0, 0]	n/a	catFR1	0	R1067P
932.185	0.47	1093999	REC_WORD_VV	0.47	n/a	<>	n/a	-999	8	[0, 0, 0]	n/a	catFR1	0	R1067P
932.655	2.722	1094234	REC_WORD_VV	2.722	n/a	<>	n/a	-999	8	[0, 0, 0]	n/a	catFR1	0	R1067P
935.377	0.346	1095595	REC_WORD_VV	0.346	n/a	<>	n/a	-999	8	[0, 0, 0]	n/a	catFR1	0	R1067P
935.723	4.628	1095768	REC_WORD	4.628	n/a	CAR	Vehicles	7	8	[0, 0, 0]	n/a	catFR1	0	R1067P
940.351	4.817	1098082	REC_WORD_VV	4.817	n/a	<>	n/a	-999	8	[0, 0, 0]	n/a	catFR1	0	R1067P
945.168	0.91	1100490	REC_WORD	0.91	n/a	DRESSER	Furniture	9	8	[0, 0, 0]	n/a	catFR1	0	R1067P
946.078	1.937	1100945	REC_WORD_VV	1.937	n/a	<>	n/a	-999	8	[0, 0, 0]	n/a	catFR1	0	R1067P
948.015	1.0	1101914	REC_WORD_VV	1.0	n/a	<>	n/a	-999	8	[0, 0, 0]	n/a	catFR1	0	R1067P
949.015	1.0	1102414	REC_WORD_VV	1.0	n/a	<>	n/a	-999	8	[0, 0, 0]	n/a	catFR1	0	R1067P
950.015	1.0	1102914	REC_WORD_VV	1.0	n/a	<>	n/a	-999	8	[0, 0, 0]	n/a	catFR1	0	R1067P
951.015	1.0	1103414	REC_WORD_VV	1.0	n/a	<>	n/a	-999	8	[0, 0, 0]	n/a	catFR1	0	R1067P
952.015	1.753	1103914	REC_WORD_VV	1.753	n/a	<>	n/a	-999	8	[0, 0, 0]	n/a	catFR1	0	R1067P
953.768	1.267	1104790	REC_WORD_VV	1.267	n/a	<>	n/a	-999	8	[0, 0, 0]	n/a	catFR1	0	R1067P
955.035	1.0	1105424	REC_WORD_VV	1.0	n/a	<>	n/a	-999	8	[0, 0, 0]	n/a	catFR1	0	R1067P
956.035	1.08	1105924	REC_WORD_VV	1.08	n/a	<>	n/a	-999	8	[0, 0, 0]	n/a	catFR1	0	R1067P
957.115	1.926	1106464	REC_WORD	1.926	n/a	MOTORCYCLE	Vehicles	2	8	[0, 0, 0]	n/a	catFR1	0	R1067P
959.041	3.645	1107427	REC_END	n/a	n/a	n/a	n/a	-999	8	[0, 0, 0]	n/a	catFR1	0	R1067P
962.686	0.0	1109249	TRIAL	n/a	n/a	n/a	n/a	-999	9	[0, 0, 0]	n/a	catFR1	0	R1067P
962.686	10.428	1109249	COUNTDOWN_START	n/a	n/a	n/a	n/a	-999	9	[0, 0, 0]	n/a	catFR1	0	R1067P
973.114	0.007	1114463	COUNTDOWN_END	n/a	n/a	n/a	n/a	-999	9	[0, 0, 0]	n/a	catFR1	0	R1067P
973.121	3.851	1114466	ORIENT	n/a	n/a	n/a	n/a	-999	9	[0, 0, 0]	n/a	catFR1	0	R1067P
976.972	2.6	1116392	WORD	n/a	wordpools/wordpool_categorized_EN.txt	NOSE	BodyParts	1	9	[0, 0, 0]	n/a	catFR1	0	R1067P
979.572	2.534	1117692	WORD	n/a	wordpools/wordpool_categorized_EN.txt	HEAD	BodyParts	2	9	[0, 0, 0]	n/a	catFR1	0	R1067P
982.106	2.584	1118958	WORD	n/a	wordpools/wordpool_categorized_EN.txt	CRICKET	Insects	3	9	[0, 0, 0]	n/a	catFR1	0	R1067P
984.69	2.484	1120250	WORD	n/a	wordpools/wordpool_categorized_EN.txt	MOTH	Insects	4	9	[0, 0, 0]	n/a	catFR1	0	R1067P
987.174	2.467	1121492	WORD	n/a	wordpools/wordpool_categorized_EN.txt	HORSE	FarmAnimals	5	9	[0, 0, 0]	n/a	catFR1	0	R1067P
989.641	2.45	1122726	WORD	n/a	wordpools/wordpool_categorized_EN.txt	HEN	FarmAnimals	6	9	[0, 0, 0]	n/a	catFR1	0	R1067P
992.091	2.484	1123951	WORD	n/a	wordpools/wordpool_categorized_EN.txt	EAR	BodyParts	7	9	[0, 0, 0]	n/a	catFR1	0	R1067P
994.575	2.434	1125193	WORD	n/a	wordpools/wordpool_categorized_EN.txt	EYE	BodyParts	8	9	[0, 0, 0]	n/a	catFR1	0	R1067P
997.009	2.385	1126410	WORD	n/a	wordpools/wordpool_categorized_EN.txt	TURKEY	FarmAnimals	9	9	[0, 0, 0]	n/a	catFR1	0	R1067P
999.394	2.616	1127602	WORD	n/a	wordpools/wordpool_categorized_EN.txt	BULL	FarmAnimals	10	9	[0, 0, 0]	n/a	catFR1	0	R1067P
1002.01	2.485	1128910	WORD	n/a	wordpools/wordpool_categorized_EN.txt	BEETLE	Insects	11	9	[0, 0, 0]	n/a	catFR1	0	R1067P
1004.495	1.616	1130152	WORD	n/a	wordpools/wordpool_categorized_EN.txt	LADYBUG	Insects	12	9	[0, 0, 0]	n/a	catFR1	0	R1067P
1006.111	0.001	1130960	DISTRACT_START	n/a	n/a	n/a	n/a	-999	9	[0, 0, 0]	n/a	catFR1	0	R1067P
1006.112	0.015	1130961	START	n/a	n/a	n/a	n/a	-999	9	[-999, -999, -999]	n/a	catFR1	0	R1067P
1006.127	4.051	1130968	PROB	4.051	n/a	n/a	n/a	-999	9	[4, 3, 2]	9	catFR1	0	R1067P
1010.178	3.967	1132994	PROB	3.967	n/a	n/a	n/a	-999	9	[5, 6, 7]	18	catFR1	0	R1067P
1014.145	3.518	1134977	PROB	3.518	n/a	n/a	n/a	-999	9	[3, 5, 5]	13	catFR1	0	R1067P
1017.663	3.585	1136736	PROB	3.585	n/a	n/a	n/a	-999	9	[9, 3, 6]	18	catFR1	0	R1067P
1021.248	4.251	1138528	PROB	4.251	n/a	n/a	n/a	-999	9	[2, 3, 9]	14	catFR1	0	R1067P
1025.499	4.616	1140654	PROB	4.616	n/a	n/a	n/a	-999	9	[8, 9, 9]	26	catFR1	0	R1067P
1030.115	0.017	1142962	STOP	n/a	n/a	n/a	n/a	-999	9	[-999, -999, -999]	n/a	catFR1	0	R1067P
1030.132	1.135	1142970	DISTRACT_END	n/a	n/a	n/a	n/a	-999	9	[0, 0, 0]	n/a	catFR1	0	R1067P
1031.267	2.009	1143538	REC_START	n/a	n/a	n/a	n/a	-999	9	[0, 0, 0]	n/a	catFR1	0	R1067P
1033.276	0.69	1144542	REC_WORD_VV	0.69	n/a	<>	n/a	-999	9	[0, 0, 0]	n/a	catFR1	0	R1067P
1033.966	12.661	1144887	REC_WORD	12.661	n/a	FLY	n/a	-999	9	[0, 0, 0]	n/a	catFR1	0	R1067P
1046.627	1.0	1151217	REC_WORD_VV	1.0	n/a	<>	n/a	-999	9	[0, 0, 0]	n/a	catFR1	0	R1067P
1047.627	1.0	1151717	REC_WORD_VV	1.0	n/a	<>	n/a	-999	9	[0, 0, 0]	n/a	catFR1	0	R1067P
1048.627	1.0	1152217	REC_WORD_VV	1.0	n/a	<>	n/a	-999	9	[0, 0, 0]	n/a	catFR1	0	R1067P
1049.627	1.0	1152717	REC_WORD_VV	1.0	n/a	<>	n/a	-999	9	[0, 0, 0]	n/a	catFR1	0	R1067P
1050.627	1.0	1153217	REC_WORD_VV	1.0	n/a	<>	n/a	-999	9	[0, 0, 0]	n/a	catFR1	0	R1067P
1051.627	0.05	1153717	REC_WORD_VV	0.05	n/a	<>	n/a	-999	9	[0, 0, 0]	n/a	catFR1	0	R1067P
1051.677	2.392	1153742	REC_WORD	2.392	n/a	FLY	n/a	-999	9	[0, 0, 0]	n/a	catFR1	0	R1067P
1054.069	0.809	1154938	REC_WORD_VV	0.809	n/a	<>	n/a	-999	9	[0, 0, 0]	n/a	catFR1	0	R1067P
1054.878	0.826	1155343	REC_WORD	0.826	n/a	MOTH	Insects	4	9	[0, 0, 0]	n/a	catFR1	0	R1067P
1055.704	1.0	1155756	REC_WORD_VV	1.0	n/a	<>	n/a	-999	9	[0, 0, 0]	n/a	catFR1	0	R1067P
1056.704	2.876	1156256	REC_WORD_VV	2.876	n/a	<>	n/a	-999	9	[0, 0, 0]	n/a	catFR1	0	R1067P
1059.58	1.698	1157694	REC_WORD_VV	1.698	n/a	<>	n/a	-999	9	[0, 0, 0]	n/a	catFR1	0	R1067P
1061.278	2.844	1158542	REC_END	n/a	n/a	n/a	n/a	-999	9	[0, 0, 0]	n/a	catFR1	0	R1067P
1064.122	0.0	1159964	TRIAL	n/a	n/a	n/a	n/a	-999	10	[0, 0, 0]	n/a	catFR1	0	R1067P
1064.122	10.428	1159964	COUNTDOWN_START	n/a	n/a	n/a	n/a	-999	10	[0, 0, 0]	n/a	catFR1	0	R1067P
1074.55	0.007	1165178	COUNTDOWN_END	n/a	n/a	n/a	n/a	-999	10	[0, 0, 0]	n/a	catFR1	0	R1067P
1074.557	3.517	1165182	ORIENT	n/a	n/a	n/a	n/a	-999	10	[0, 0, 0]	n/a	catFR1	0	R1067P
1078.074	2.484	1166940	WORD	n/a	wordpools/wordpool_categorized_EN.txt	FOLDER	OfficeSupplies	1	10	[0, 0, 0]	n/a	catFR1	0	R1067P
1080.558	2.45	1168182	WORD	n/a	wordpools/wordpool_categorized_EN.txt	STAPLER	OfficeSupplies	2	10	[0, 0, 0]	n/a	catFR1	0	R1067P
1083.008	2.435	1169407	WORD	n/a	wordpools/wordpool_categorized_EN.txt	SOFA	Furniture	3	10	[0, 0, 0]	n/a	catFR1	0	R1067P
1085.443	2.433	1170624	WORD	n/a	wordpools/wordpool_categorized_EN.txt	CHAIR	Furniture	4	10	[0, 0, 0]	n/a	catFR1	0	R1067P
1087.876	2.501	1171841	WORD	n/a	wordpools/wordpool_categorized_EN.txt	SNOW	Weather	5	10	[0, 0, 0]	n/a	catFR1	0	R1067P
1090.377	2.483	1173091	WORD	n/a	wordpools/wordpool_categorized_EN.txt	WIND	Weather	6	10	[0, 0, 0]	n/a	catFR1	0	R1067P
1092.86	2.485	1174333	WORD	n/a	wordpools/wordpool_categorized_EN.txt	BINDER	OfficeSupplies	7	10	[0, 0, 0]	n/a	catFR1	0	R1067P
1095.345	2.516	1175575	WORD	n/a	wordpools/wordpool_categorized_EN.txt	PAPER	OfficeSupplies	8	10	[0, 0, 0]	n/a	catFR1	0	R1067P
1097.861	2.518	1176833	WORD	n/a	wordpools/wordpool_categorized_EN.txt	DRIZZLE	Weather	9	10	[0, 0, 0]	n/a	catFR1	0	R1067P
1100.379	2.616	1178092	WORD	n/a	wordpools/wordpool_categorized_EN.txt	TORNADO	Weather	10	10	[0, 0, 0]	n/a	catFR1	0	R1067P
1102.995	2.435	1179400	WORD	n/a	wordpools/wordpool_categorized_EN.txt	DESK	Furniture	11	10	[0, 0, 0]	n/a	catFR1	0	R1067P
1105.43	1.616	1180617	WORD	n/a	wordpools/wordpool_categorized_EN.txt	RECLINER	Furniture	12	10	[0, 0, 0]	n/a	catFR1	0	R1067P
1107.046	0.001	1181425	DISTRACT_START	n/a	n/a	n/a	n/a	-999	10	[0, 0, 0]	n/a	catFR1	0	R1067P
1107.047	0.016	1181426	START	n/a	n/a	n/a	n/a	-999	10	[-999, -999, -999]	n/a	catFR1	0	R1067P
1107.063	6.134	1181434	PROB	6.134	n/a	n/a	n/a	-999	10	[9, 7, 3]	19	catFR1	0	R1067P
1113.197	4.052	1184501	PROB	4.052	n/a	n/a	n/a	-999	10	[6, 6, 5]	17	catFR1	0	R1067P
1117.249	3.3	1186527	PROB	3.3	n/a	n/a	n/a	-999	10	[5, 6, 8]	19	catFR1	0	R1067P
1120.549	5.668	1188177	PROB	5.668	n/a	n/a	n/a	-999	10	[5, 6, 8]	19	catFR1	0	R1067P
1126.217	5.753	1191010	PROB	5.753	n/a	n/a	n/a	-999	10	[6, 9, 4]	19	catFR1	0	R1067P
1131.97	0.014	1193887	STOP	n/a	n/a	n/a	n/a	-999	10	[-999, -999, -999]	n/a	catFR1	0	R1067P
1131.984	1.084	1193894	DISTRACT_END	n/a	n/a	n/a	n/a	-999	10	[0, 0, 0]	n/a	catFR1	0	R1067P
1133.068	6.477	1194436	REC_START	n/a	n/a	n/a	n/a	-999	10	[0, 0, 0]	n/a	catFR1	0	R1067P
1139.545	1.0	1197674	REC_WORD_VV	1.0	n/a	<>	n/a	-999	10	[0, 0, 0]	n/a	catFR1	0	R1067P
1140.545	22.538	1198174	REC_WORD_VV	22.538	n/a	<>	n/a	-999	10	[0, 0, 0]	n/a	catFR1	0	R1067P
1163.083	4.441	1209442	REC_END	n/a	n/a	n/a	n/a	-999	10	[0, 0, 0]	n/a	catFR1	0	R1067P
1167.524	0.0	1211663	TRIAL	n/a	n/a	n/a	n/a	-999	11	[0, 0, 0]	n/a	catFR1	0	R1067P
1167.524	10.428	1211663	COUNTDOWN_START	n/a	n/a	n/a	n/a	-999	11	[0, 0, 0]	n/a	catFR1	0	R1067P
1177.952	0.007	1216877	COUNTDOWN_END	n/a	n/a	n/a	n/a	-999	11	[0, 0, 0]	n/a	catFR1	0	R1067P
1177.959	3.601	1216880	ORIENT	n/a	n/a	n/a	n/a	-999	11	[0, 0, 0]	n/a	catFR1	0	R1067P
1181.56	2.417	1218681	WORD	n/a	wordpools/wordpool_categorized_EN.txt	ELEPHANT	Zoo	1	11	[0, 0, 0]	n/a	catFR1	0	R1067P
1183.977	2.452	1219889	WORD	n/a	wordpools/wordpool_categorized_EN.txt	LION	Zoo	2	11	[0, 0, 0]	n/a	catFR1	0	R1067P
1186.429	2.449	1221115	WORD	n/a	wordpools/wordpool_categorized_EN.txt	MARKER	OfficeSupplies	3	11	[0, 0, 0]	n/a	catFR1	0	R1067P
1188.878	2.535	1222339	WORD	n/a	wordpools/wordpool_categorized_EN.txt	ERASER	OfficeSupplies	4	11	[0, 0, 0]	n/a	catFR1	0	R1067P
1191.413	2.433	1223607	WORD	n/a	wordpools/wordpool_categorized_EN.txt	STRAINER	KitchenTools	5	11	[0, 0, 0]	n/a	catFR1	0	R1067P
1193.846	2.518	1224823	WORD	n/a	wordpools/wordpool_categorized_EN.txt	COLANDER	KitchenTools	6	11	[0, 0, 0]	n/a	catFR1	0	R1067P
1196.364	2.383	1226082	WORD	n/a	wordpools/wordpool_categorized_EN.txt	RULER	OfficeSupplies	7	11	[0, 0, 0]	n/a	catFR1	0	R1067P
1198.747	2.434	1227274	WORD	n/a	wordpools/wordpool_categorized_EN.txt	NOTEBOOK	OfficeSupplies	8	11	[0, 0, 0]	n/a	catFR1	0	R1067P
1201.181	2.517	1228491	WORD	n/a	wordpools/wordpool_categorized_EN.txt	CHEETAH	Zoo	9	11	[0, 0, 0]	n/a	catFR1	0	R1067P
1203.698	2.417	1229749	WORD	n/a	wordpools/wordpool_categorized_EN.txt	GORILLA	Zoo	10	11	[0, 0, 0]	n/a	catFR1	0	R1067P
1206.115	2.484	1230957	WORD	n/a	wordpools/wordpool_categorized_EN.txt	CORKSCREW	KitchenTools	11	11	[0, 0, 0]	n/a	catFR1	0	R1067P
1208.599	1.617	1232199	WORD	n/a	wordpools/wordpool_categorized_EN.txt	GRATER	KitchenTools	12	11	[0, 0, 0]	n/a	catFR1	0	R1067P
1210.216	0.001	1233008	DISTRACT_START	n/a	n/a	n/a	n/a	-999	11	[0, 0, 0]	n/a	catFR1	0	R1067P
1210.217	0.016	1233008	START	n/a	n/a	n/a	n/a	-999	11	[-999, -999, -999]	n/a	catFR1	0	R1067P
1210.233	5.3	1233016	PROB	5.3	n/a	n/a	n/a	-999	11	[5, 7, 6]	18	catFR1	0	R1067P
1215.533	3.952	1235666	PROB	3.952	n/a	n/a	n/a	-999	11	[6, 1, 9]	16	catFR1	0	R1067P
1219.485	3.2	1237642	PROB	3.2	n/a	n/a	n/a	-999	11	[6, 2, 1]	9	catFR1	0	R1067P
1222.685	5.051	1239242	PROB	5.051	n/a	n/a	n/a	-999	11	[6, 7, 9]	22	catFR1	0	R1067P
1227.736	3.684	1241767	PROB	3.684	n/a	n/a	n/a	-999	11	[7, 7, 3]	17	catFR1	0	R1067P
1231.42	0.017	1243609	STOP	n/a	n/a	n/a	n/a	-999	11	[-999, -999, -999]	n/a	catFR1	0	R1067P
1231.437	1.183	1243618	DISTRACT_END	n/a	n/a	n/a	n/a	-999	11	[0, 0, 0]	n/a	catFR1	0	R1067P
1232.62	0.73	1244209	REC_START	n/a	n/a	n/a	n/a	-999	11	[0, 0, 0]	n/a	catFR1	0	R1067P
1233.35	0.752	1244574	REC_WORD_VV	0.752	n/a	<>	n/a	-999	11	[0, 0, 0]	n/a	catFR1	0	R1067P
1234.102	0.543	1244950	REC_WORD_VV	0.543	n/a	<>	n/a	-999	11	[0, 0, 0]	n/a	catFR1	0	R1067P
1234.645	8.287	1245222	REC_WORD	8.287	n/a	STRAINER	KitchenTools	5	11	[0, 0, 0]	n/a	catFR1	0	R1067P
1242.932	6.482	1249365	REC_WORD	6.482	n/a	ELEPHANT	Zoo	1	11	[0, 0, 0]	n/a	catFR1	0	R1067P
1249.414	13.222	1252606	REC_WORD	13.222	n/a	CORKSCREW	KitchenTools	11	11	[0, 0, 0]	n/a	catFR1	0	R1067P
1262.636	8.108	1259216	REC_END	n/a	n/a	n/a	n/a	-999	11	[0, 0, 0]	n/a	catFR1	0	R1067P
1270.744	0.0	1263270	TRIAL	n/a	n/a	n/a	n/a	-999	12	[0, 0, 0]	n/a	catFR1	0	R1067P
1270.744	10.428	1263270	COUNTDOWN_START	n/a	n/a	n/a	n/a	-999	12	[0, 0, 0]	n/a	catFR1	0	R1067P
1281.172	0.007	1268484	COUNTDOWN_END	n/a	n/a	n/a	n/a	-999	12	[0, 0, 0]	n/a	catFR1	0	R1067P
1281.179	3.934	1268488	ORIENT	n/a	n/a	n/a	n/a	-999	12	[0, 0, 0]	n/a	catFR1	0	R1067P
1285.113	2.417	1270454	WORD	n/a	wordpools/wordpool_categorized_EN.txt	TAPE	OfficeSupplies	1	12	[0, 0, 0]	n/a	catFR1	0	R1067P
1287.53	2.384	1271663	WORD	n/a	wordpools/wordpool_categorized_EN.txt	PEN	OfficeSupplies	2	12	[0, 0, 0]	n/a	catFR1	0	R1067P
1289.914	2.468	1272855	WORD	n/a	wordpools/wordpool_categorized_EN.txt	RUM	Beverages	3	12	[0, 0, 0]	n/a	catFR1	0	R1067P
1292.382	2.633	1274089	WORD	n/a	wordpools/wordpool_categorized_EN.txt	COLA	Beverages	4	12	[0, 0, 0]	n/a	catFR1	0	R1067P
1295.015	2.401	1275405	WORD	n/a	wordpools/wordpool_categorized_EN.txt	HAWK	Birds	5	12	[0, 0, 0]	n/a	catFR1	0	R1067P
1297.416	2.467	1276606	WORD	n/a	wordpools/wordpool_categorized_EN.txt	FINCH	Birds	6	12	[0, 0, 0]	n/a	catFR1	0	R1067P
1299.883	2.618	1277839	WORD	n/a	wordpools/wordpool_categorized_EN.txt	TEA	Beverages	7	12	[0, 0, 0]	n/a	catFR1	0	R1067P
1302.501	2.566	1279148	WORD	n/a	wordpools/wordpool_categorized_EN.txt	MILK	Beverages	8	12	[0, 0, 0]	n/a	catFR1	0	R1067P
1305.067	2.418	1280431	WORD	n/a	wordpools/wordpool_categorized_EN.txt	PENCIL	OfficeSupplies	9	12	[0, 0, 0]	n/a	catFR1	0	R1067P
1307.485	2.516	1281640	WORD	n/a	wordpools/wordpool_categorized_EN.txt	GLUE	OfficeSupplies	10	12	[0, 0, 0]	n/a	catFR1	0	R1067P
1310.001	2.435	1282898	WORD	n/a	wordpools/wordpool_categorized_EN.txt	ROBIN	Birds	11	12	[0, 0, 0]	n/a	catFR1	0	R1067P
1312.436	1.616	1284115	WORD	n/a	wordpools/wordpool_categorized_EN.txt	SEAGULL	Birds	12	12	[0, 0, 0]	n/a	catFR1	0	R1067P
1314.052	0.001	1284923	DISTRACT_START	n/a	n/a	n/a	n/a	-999	12	[0, 0, 0]	n/a	catFR1	0	R1067P
1314.053	0.015	1284924	START	n/a	n/a	n/a	n/a	-999	12	[-999, -999, -999]	n/a	catFR1	0	R1067P
1314.068	4.336	1284931	PROB	4.336	n/a	n/a	n/a	-999	12	[3, 5, 5]	13	catFR1	0	R1067P
1318.404	4.783	1287099	PROB	4.783	n/a	n/a	n/a	-999	12	[3, 5, 4]	12	catFR1	0	R1067P
1323.187	3.784	1289490	PROB	3.784	n/a	n/a	n/a	-999	12	[8, 5, 8]	22	catFR1	0	R1067P
1326.971	4.335	1291382	PROB	4.335	n/a	n/a	n/a	-999	12	[4, 3, 6]	13	catFR1	0	R1067P
1331.306	3.529	1293550	PROB	3.529	n/a	n/a	n/a	-999	12	[5, 6, 9]	20	catFR1	0	R1067P
1334.835	0.004	1295314	STOP	n/a	n/a	n/a	n/a	-999	12	[-999, -999, -999]	n/a	catFR1	0	R1067P
1334.839	1.084	1295316	DISTRACT_END	n/a	n/a	n/a	n/a	-999	12	[0, 0, 0]	n/a	catFR1	0	R1067P
1335.923	0.695	1295858	REC_START	n/a	n/a	n/a	n/a	-999	12	[0, 0, 0]	n/a	catFR1	0	R1067P
1336.618	1.007	1296206	REC_WORD_VV	1.007	n/a	<>	n/a	-999	12	[0, 0, 0]	n/a	catFR1	0	R1067P
1337.625	2.761	1296709	REC_WORD	2.761	n/a	PEN	OfficeSupplies	2	12	[0, 0, 0]	n/a	catFR1	0	R1067P
1340.386	1.0	1298090	REC_WORD_VV	1.0	n/a	<>	n/a	-999	12	[0, 0, 0]	n/a	catFR1	0	R1067P
1341.386	16.692	1298590	REC_WORD_VV	16.692	n/a	<>	n/a	-999	12	[0, 0, 0]	n/a	catFR1	0	R1067P
1358.078	0.924	1306935	REC_WORD_VV	0.924	n/a	<>	n/a	-999	12	[0, 0, 0]	n/a	catFR1	0	R1067P
1359.002	0.641	1307397	REC_WORD_VV	0.641	n/a	<>	n/a	-999	12	[0, 0, 0]	n/a	catFR1	0	R1067P
1359.643	6.295	1307718	REC_WORD	6.295	n/a	PEN	OfficeSupplies	2	12	[0, 0, 0]	n/a	catFR1	0	R1067P
1365.938	3.641	1310865	REC_END	n/a	n/a	n/a	n/a	-999	12	[0, 0, 0]	n/a	catFR1	0	R1067P
1369.579	0.0	1312685	TRIAL	n/a	n/a	n/a	n/a	-999	13	[0, 0, 0]	n/a	catFR1	0	R1067P
1369.579	10.428	1312685	COUNTDOWN_START	n/a	n/a	n/a	n/a	-999	13	[0, 0, 0]	n/a	catFR1	0	R1067P
1380.007	0.007	1317899	COUNTDOWN_END	n/a	n/a	n/a	n/a	-999	13	[0, 0, 0]	n/a	catFR1	0	R1067P
1380.014	3.485	1317903	ORIENT	n/a	n/a	n/a	n/a	-999	13	[0, 0, 0]	n/a	catFR1	0	R1067P
1383.499	2.566	1319645	WORD	n/a	wordpools/wordpool_categorized_EN.txt	CROWBAR	Tools	1	13	[0, 0, 0]	n/a	catFR1	0	R1067P
1386.065	2.501	1320928	WORD	n/a	wordpools/wordpool_categorized_EN.txt	WRENCH	Tools	2	13	[0, 0, 0]	n/a	catFR1	0	R1067P
1388.566	2.567	1322178	WORD	n/a	wordpools/wordpool_categorized_EN.txt	CHERRY	Fruit	3	13	[0, 0, 0]	n/a	catFR1	0	R1067P
1391.133	2.45	1323462	WORD	n/a	wordpools/wordpool_categorized_EN.txt	LIME	Fruit	4	13	[0, 0, 0]	n/a	catFR1	0	R1067P
1393.583	2.501	1324687	WORD	n/a	wordpools/wordpool_categorized_EN.txt	CIDER	Beverages	5	13	[0, 0, 0]	n/a	catFR1	0	R1067P
1396.084	2.45	1325937	WORD	n/a	wordpools/wordpool_categorized_EN.txt	BEER	Beverages	6	13	[0, 0, 0]	n/a	catFR1	0	R1067P
1398.534	2.551	1327162	WORD	n/a	wordpools/wordpool_categorized_EN.txt	STRAWBERRY	Fruit	7	13	[0, 0, 0]	n/a	catFR1	0	R1067P
1401.085	2.418	1328438	WORD	n/a	wordpools/wordpool_categorized_EN.txt	PEACH	Fruit	8	13	[0, 0, 0]	n/a	catFR1	0	R1067P
1403.503	2.483	1329646	WORD	n/a	wordpools/wordpool_categorized_EN.txt	HAMMER	Tools	9	13	[0, 0, 0]	n/a	catFR1	0	R1067P
1405.986	2.55	1330888	WORD	n/a	wordpools/wordpool_categorized_EN.txt	SANDER	Tools	10	13	[0, 0, 0]	n/a	catFR1	0	R1067P
1408.536	2.434	1332163	WORD	n/a	wordpools/wordpool_categorized_EN.txt	SODA	Beverages	11	13	[0, 0, 0]	n/a	catFR1	0	R1067P
1410.97	1.617	1333380	WORD	n/a	wordpools/wordpool_categorized_EN.txt	COFFEE	Beverages	12	13	[0, 0, 0]	n/a	catFR1	0	R1067P
1412.587	0.001	1334188	DISTRACT_START	n/a	n/a	n/a	n/a	-999	13	[0, 0, 0]	n/a	catFR1	0	R1067P
1412.588	0.016	1334189	START	n/a	n/a	n/a	n/a	-999	13	[-999, -999, -999]	n/a	catFR1	0	R1067P
1412.604	4.284	1334197	PROB	4.284	n/a	n/a	n/a	-999	13	[3, 2, 8]	13	catFR1	0	R1067P
1416.888	3.217	1336339	PROB	3.217	n/a	n/a	n/a	-999	13	[1, 8, 3]	12	catFR1	0	R1067P
1420.105	6.501	1337947	PROB	6.501	n/a	n/a	n/a	-999	13	[7, 9, 3]	19	catFR1	0	R1067P
1426.606	3.434	1341197	PROB	3.434	n/a	n/a	n/a	-999	13	[1, 6, 3]	10	catFR1	0	R1067P
1430.04	5.05	1342914	PROB	5.05	n/a	n/a	n/a	-999	13	[7, 9, 6]	22	catFR1	0	R1067P
1435.09	0.018	1345439	STOP	n/a	n/a	n/a	n/a	-999	13	[-999, -999, -999]	n/a	catFR1	0	R1067P
1435.108	1.051	1345448	DISTRACT_END	n/a	n/a	n/a	n/a	-999	13	[0, 0, 0]	n/a	catFR1	0	R1067P
1436.159	0.815	1345974	REC_START	n/a	n/a	n/a	n/a	-999	13	[0, 0, 0]	n/a	catFR1	0	R1067P
1436.974	1.298	1346381	REC_WORD_VV	1.298	n/a	<>	n/a	-999	13	[0, 0, 0]	n/a	catFR1	0	R1067P
1438.272	1.608	1347030	REC_WORD_VV	1.608	n/a	<>	n/a	-999	13	[0, 0, 0]	n/a	catFR1	0	R1067P
1439.88	0.374	1347834	REC_WORD_VV	0.374	n/a	<>	n/a	-999	13	[0, 0, 0]	n/a	catFR1	0	R1067P
1440.254	1.949	1348021	REC_WORD	1.949	n/a	DRINKS	n/a	-999	13	[0, 0, 0]	n/a	catFR1	0	R1067P
1442.203	0.622	1348996	REC_WORD_VV	0.622	n/a	<>	n/a	-999	13	[0, 0, 0]	n/a	catFR1	0	R1067P
1442.825	4.221	1349307	REC_WORD	4.221	n/a	COLA	n/a	-999	13	[0, 0, 0]	n/a	catFR1	0	R1067P
1447.046	0.62	1351417	REC_WORD_VV	0.62	n/a	<>	n/a	-999	13	[0, 0, 0]	n/a	catFR1	0	R1067P
1447.666	0.665	1351727	REC_WORD	0.665	n/a	RUM	n/a	-999	13	[0, 0, 0]	n/a	catFR1	0	R1067P
1448.331	1.0	1352059	REC_WORD_VV	1.0	n/a	<>	n/a	-999	13	[0, 0, 0]	n/a	catFR1	0	R1067P
1449.331	1.0	1352559	REC_WORD_VV	1.0	n/a	<>	n/a	-999	13	[0, 0, 0]	n/a	catFR1	0	R1067P
1450.331	3.462	1353059	REC_WORD_VV	3.462	n/a	<>	n/a	-999	13	[0, 0, 0]	n/a	catFR1	0	R1067P
1453.793	1.0	1354790	REC_WORD_VV	1.0	n/a	<>	n/a	-999	13	[0, 0, 0]	n/a	catFR1	0	R1067P
1454.793	1.0	1355290	REC_WORD_VV	1.0	n/a	<>	n/a	-999	13	[0, 0, 0]	n/a	catFR1	0	R1067P
1455.793	0.476	1355790	REC_WORD_VV	0.476	n/a	<>	n/a	-999	13	[0, 0, 0]	n/a	catFR1	0	R1067P
1456.269	1.036	1356028	REC_WORD	1.036	n/a	SANDER	Tools	10	13	[0, 0, 0]	n/a	catFR1	0	R1067P
1457.305	7.331	1356546	REC_WORD_VV	7.331	n/a	<>	n/a	-999	13	[0, 0, 0]	n/a	catFR1	0	R1067P
1464.636	1.534	1360211	REC_WORD	1.534	n/a	CROWBAR	Tools	1	13	[0, 0, 0]	n/a	catFR1	0	R1067P
1466.17	5.096	1360978	REC_END	n/a	n/a	n/a	n/a	-999	13	[0, 0, 0]	n/a	catFR1	0	R1067P
1471.266	0.0	1363526	TRIAL	n/a	n/a	n/a	n/a	-999	14	[0, 0, 0]	n/a	catFR1	0	R1067P
1471.266	10.428	1363526	COUNTDOWN_START	n/a	n/a	n/a	n/a	-999	14	[0, 0, 0]	n/a	catFR1	0	R1067P
1481.694	0.006	1368740	COUNTDOWN_END	n/a	n/a	n/a	n/a	-999	14	[0, 0, 0]	n/a	catFR1	0	R1067P
1481.7	3.618	1368743	ORIENT	n/a	n/a	n/a	n/a	-999	14	[0, 0, 0]	n/a	catFR1	0	R1067P
1485.318	2.566	1370552	WORD	n/a	wordpools/wordpool_categorized_EN.txt	MOUNTAIN	Landscapes	1	14	[0, 0, 0]	n/a	catFR1	0	R1067P
1487.884	2.468	1371835	WORD	n/a	wordpools/wordpool_categorized_EN.txt	VALLEY	Landscapes	2	14	[0, 0, 0]	n/a	catFR1	0	R1067P
1490.352	2.533	1373069	WORD	n/a	wordpools/wordpool_categorized_EN.txt	PANTS	Clothing	3	14	[0, 0, 0]	n/a	catFR1	0	R1067P
1492.885	2.435	1374335	WORD	n/a	wordpools/wordpool_categorized_EN.txt	JEANS	Clothing	4	14	[0, 0, 0]	n/a	catFR1	0	R1067P
1495.32	2.566	1375553	WORD	n/a	wordpools/wordpool_categorized_EN.txt	OVEN	Appliances	5	14	[0, 0, 0]	n/a	catFR1	0	R1067P
1497.886	2.535	1376836	WORD	n/a	wordpools/wordpool_categorized_EN.txt	REFRIGERATOR	Appliances	6	14	[0, 0, 0]	n/a	catFR1	0	R1067P
1500.421	2.383	1378103	WORD	n/a	wordpools/wordpool_categorized_EN.txt	SKIRT	Clothing	7	14	[0, 0, 0]	n/a	catFR1	0	R1067P
1502.804	2.501	1379295	WORD	n/a	wordpools/wordpool_categorized_EN.txt	SHORTS	Clothing	8	14	[0, 0, 0]	n/a	catFR1	0	R1067P
1505.305	2.383	1380545	WORD	n/a	wordpools/wordpool_categorized_EN.txt	OCEAN	Landscapes	9	14	[0, 0, 0]	n/a	catFR1	0	R1067P
1507.688	2.517	1381736	WORD	n/a	wordpools/wordpool_categorized_EN.txt	HILLS	Landscapes	10	14	[0, 0, 0]	n/a	catFR1	0	R1067P
1510.205	2.451	1382995	WORD	n/a	wordpools/wordpool_categorized_EN.txt	IRON	Appliances	11	14	[0, 0, 0]	n/a	catFR1	0	R1067P
1512.656	1.618	1384220	WORD	n/a	wordpools/wordpool_categorized_EN.txt	FREEZER	Appliances	12	14	[0, 0, 0]	n/a	catFR1	0	R1067P
1514.274	0.001	1385029	DISTRACT_START	n/a	n/a	n/a	n/a	-999	14	[0, 0, 0]	n/a	catFR1	0	R1067P
1514.275	0.015	1385030	START	n/a	n/a	n/a	n/a	-999	14	[-999, -999, -999]	n/a	catFR1	0	R1067P
1514.29	3.8	1385037	PROB	3.8	n/a	n/a	n/a	-999	14	[7, 4, 1]	12	catFR1	0	R1067P
1518.09	4.551	1386937	PROB	4.551	n/a	n/a	n/a	-999	14	[3, 4, 7]	14	catFR1	0	R1067P
1522.641	3.017	1389213	PROB	3.017	n/a	n/a	n/a	-999	14	[1, 9, 1]	11	catFR1	0	R1067P
1525.658	3.284	1390721	PROB	3.284	n/a	n/a	n/a	-999	14	[8, 6, 6]	20	catFR1	0	R1067P
1528.942	2.984	1392363	PROB	2.984	n/a	n/a	n/a	-999	14	[8, 5, 3]	11	catFR1	0	R1067P
1531.926	4.35	1393855	PROB	4.35	n/a	n/a	n/a	-999	14	[4, 5, 1]	10	catFR1	0	R1067P
1536.276	0.018	1396030	STOP	n/a	n/a	n/a	n/a	-999	14	[-999, -999, -999]	n/a	catFR1	0	R1067P
1536.294	1.217	1396039	DISTRACT_END	n/a	n/a	n/a	n/a	-999	14	[0, 0, 0]	n/a	catFR1	0	R1067P
1537.511	0.478	1396647	REC_START	n/a	n/a	n/a	n/a	-999	14	[0, 0, 0]	n/a	catFR1	0	R1067P
1537.989	1.0	1396886	REC_WORD_VV	1.0	n/a	<>	n/a	-999	14	[0, 0, 0]	n/a	catFR1	0	R1067P
1538.989	0.117	1397386	REC_WORD_VV	0.117	n/a	<>	n/a	-999	14	[0, 0, 0]	n/a	catFR1	0	R1067P
1539.106	0.347	1397445	REC_WORD	0.347	n/a	OVEN	Appliances	5	14	[0, 0, 0]	n/a	catFR1	0	R1067P
1539.453	0.237	1397618	REC_WORD_VV	0.237	n/a	<>	n/a	-999	14	[0, 0, 0]	n/a	catFR1	0	R1067P
1539.69	10.761	1397737	REC_WORD	10.761	n/a	REFRIGERATOR	Appliances	6	14	[0, 0, 0]	n/a	catFR1	0	R1067P
1550.451	1.0	1403117	REC_WORD_VV	1.0	n/a	<>	n/a	-999	14	[0, 0, 0]	n/a	catFR1	0	R1067P
1551.451	16.075	1403617	REC_WORD_VV	16.075	n/a	<>	n/a	-999	14	[0, 0, 0]	n/a	catFR1	0	R1067P
1567.526	19.01	1411654	REC_END	n/a	n/a	n/a	n/a	-999	14	[0, 0, 0]	n/a	catFR1	0	R1067P
1586.536	0.0	1421158	TRIAL	n/a	n/a	n/a	n/a	-999	15	[0, 0, 0]	n/a	catFR1	0	R1067P
1586.536	10.428	1421158	COUNTDOWN_START	n/a	n/a	n/a	n/a	-999	15	[0, 0, 0]	n/a	catFR1	0	R1067P
1596.964	0.007	1426372	COUNTDOWN_END	n/a	n/a	n/a	n/a	-999	15	[0, 0, 0]	n/a	catFR1	0	R1067P
1596.971	3.668	1426376	ORIENT	n/a	n/a	n/a	n/a	-999	15	[0, 0, 0]	n/a	catFR1	0	R1067P
1600.639	2.467	1428210	WORD	n/a	wordpools/wordpool_categorized_EN.txt	NIGHTSTAND	Furniture	1	15	[0, 0, 0]	n/a	catFR1	0	R1067P
1603.106	2.584	1429443	WORD	n/a	wordpools/wordpool_categorized_EN.txt	BOOKCASE	Furniture	2	15	[0, 0, 0]	n/a	catFR1	0	R1067P
1605.69	2.4	1430735	WORD	n/a	wordpools/wordpool_categorized_EN.txt	LILAC	Flowers	3	15	[0, 0, 0]	n/a	catFR1	0	R1067P
1608.09	2.617	1431935	WORD	n/a	wordpools/wordpool_categorized_EN.txt	MARIGOLD	Flowers	4	15	[0, 0, 0]	n/a	catFR1	0	R1067P
1610.707	2.552	1433243	WORD	n/a	wordpools/wordpool_categorized_EN.txt	CEDAR	Trees	5	15	[0, 0, 0]	n/a	catFR1	0	R1067P
1613.259	2.466	1434519	WORD	n/a	wordpools/wordpool_categorized_EN.txt	SPRUCE	Trees	6	15	[0, 0, 0]	n/a	catFR1	0	R1067P
1615.725	2.618	1435752	WORD	n/a	wordpools/wordpool_categorized_EN.txt	COUCH	Furniture	7	15	[0, 0, 0]	n/a	catFR1	0	R1067P
1618.343	2.583	1437061	WORD	n/a	wordpools/wordpool_categorized_EN.txt	SHELF	Furniture	8	15	[0, 0, 0]	n/a	catFR1	0	R1067P
1620.926	2.451	1438353	WORD	n/a	wordpools/wordpool_categorized_EN.txt	WILLOW	Trees	9	15	[0, 0, 0]	n/a	catFR1	0	R1067P
1623.377	2.4	1439578	WORD	n/a	wordpools/wordpool_categorized_EN.txt	HICKORY	Trees	10	15	[0, 0, 0]	n/a	catFR1	0	R1067P
1625.777	2.451	1440778	WORD	n/a	wordpools/wordpool_categorized_EN.txt	DAFFODIL	Flowers	11	15	[0, 0, 0]	n/a	catFR1	0	R1067P
1628.228	1.616	1442003	WORD	n/a	wordpools/wordpool_categorized_EN.txt	CARNATION	Flowers	12	15	[0, 0, 0]	n/a	catFR1	0	R1067P
1629.844	0.001	1442811	DISTRACT_START	n/a	n/a	n/a	n/a	-999	15	[0, 0, 0]	n/a	catFR1	0	R1067P
1629.845	0.016	1442812	START	n/a	n/a	n/a	n/a	-999	15	[-999, -999, -999]	n/a	catFR1	0	R1067P
1629.861	5.051	1442820	PROB	5.051	n/a	n/a	n/a	-999	15	[4, 5, 6]	15	catFR1	0	R1067P
1634.912	4.284	1445345	PROB	4.284	n/a	n/a	n/a	-999	15	[2, 8, 9]	19	catFR1	0	R1067P
1639.196	6.718	1447487	PROB	6.718	n/a	n/a	n/a	-999	15	[7, 9, 4]	20	catFR1	0	R1067P
1645.914	3.784	1450846	PROB	3.784	n/a	n/a	n/a	-999	15	[2, 7, 2]	11	catFR1	0	R1067P
1649.698	3.297	1452738	PROB	3.297	n/a	n/a	n/a	-999	15	[2, 1, 1]	4	catFR1	0	R1067P
1652.995	0.003	1454386	STOP	n/a	n/a	n/a	n/a	-999	15	[-999, -999, -999]	n/a	catFR1	0	R1067P
1652.998	1.202	1454388	DISTRACT_END	n/a	n/a	n/a	n/a	-999	15	[0, 0, 0]	n/a	catFR1	0	R1067P
1654.2	0.299	1454989	REC_START	n/a	n/a	n/a	n/a	-999	15	[0, 0, 0]	n/a	catFR1	0	R1067P
1654.499	0.743	1455138	REC_WORD_VV	0.743	n/a	<>	n/a	-999	15	[0, 0, 0]	n/a	catFR1	0	R1067P
1655.242	0.245	1455510	REC_WORD_VV	0.245	n/a	<>	n/a	-999	15	[0, 0, 0]	n/a	catFR1	0	R1067P
1655.487	3.633	1455632	REC_WORD	3.633	n/a	DAFFODIL	Flowers	11	15	[0, 0, 0]	n/a	catFR1	0	R1067P
1659.12	1.0	1457449	REC_WORD_VV	1.0	n/a	<>	n/a	-999	15	[0, 0, 0]	n/a	catFR1	0	R1067P
1660.12	1.424	1457949	REC_WORD_VV	1.424	n/a	<>	n/a	-999	15	[0, 0, 0]	n/a	catFR1	0	R1067P
1661.544	0.403	1458661	REC_WORD	0.403	n/a	BOAT	n/a	-999	15	[0, 0, 0]	n/a	catFR1	0	R1067P
1661.947	1.0	1458862	REC_WORD_VV	1.0	n/a	<>	n/a	-999	15	[0, 0, 0]	n/a	catFR1	0	R1067P
1662.947	1.911	1459362	REC_WORD_VV	1.911	n/a	<>	n/a	-999	15	[0, 0, 0]	n/a	catFR1	0	R1067P
1664.858	0.37	1460318	REC_WORD_VV	0.37	n/a	<>	n/a	-999	15	[0, 0, 0]	n/a	catFR1	0	R1067P
1665.228	5.646	1460502	REC_WORD	5.646	n/a	BOOKCASE	Furniture	2	15	[0, 0, 0]	n/a	catFR1	0	R1067P
1670.874	13.337	1463325	REC_WORD	13.337	n/a	WILLOW	Trees	9	15	[0, 0, 0]	n/a	catFR1	0	R1067P
1684.211	4.544	1469994	REC_END	n/a	n/a	n/a	n/a	-999	15	[0, 0, 0]	n/a	catFR1	0	R1067P
1688.755	0.001	1472265	COUNTDOWN_START	n/a	n/a	n/a	n/a	-999	16	[0, 0, 0]	n/a	catFR1	0	R1067P
1688.756	10.427	1472266	TRIAL	n/a	n/a	n/a	n/a	-999	16	[0, 0, 0]	n/a	catFR1	0	R1067P
1699.183	0.008	1477479	COUNTDOWN_END	n/a	n/a	n/a	n/a	-999	16	[0, 0, 0]	n/a	catFR1	0	R1067P
1699.191	3.534	1477483	ORIENT	n/a	n/a	n/a	n/a	-999	16	[0, 0, 0]	n/a	catFR1	0	R1067P
1702.725	2.584	1479250	WORD	n/a	wordpools/wordpool_categorized_EN.txt	HUMIDITY	Weather	1	16	[0, 0, 0]	n/a	catFR1	0	R1067P
1705.309	2.5	1480542	WORD	n/a	wordpools/wordpool_categorized_EN.txt	RAIN	Weather	2	16	[0, 0, 0]	n/a	catFR1	0	R1067P
1707.809	2.418	1481792	WORD	n/a	wordpools/wordpool_categorized_EN.txt	FINGERS	BodyParts	3	16	[0, 0, 0]	n/a	catFR1	0	R1067P
1710.227	2.499	1483001	WORD	n/a	wordpools/wordpool_categorized_EN.txt	LEG	BodyParts	4	16	[0, 0, 0]	n/a	catFR1	0	R1067P
1712.726	2.602	1484250	WORD	n/a	wordpools/wordpool_categorized_EN.txt	BROCCOLI	Vegetables	5	16	[0, 0, 0]	n/a	catFR1	0	R1067P
1715.328	2.483	1485551	WORD	n/a	wordpools/wordpool_categorized_EN.txt	POTATO	Vegetables	6	16	[0, 0, 0]	n/a	catFR1	0	R1067P
1717.811	2.384	1486793	WORD	n/a	wordpools/wordpool_categorized_EN.txt	HURRICANE	Weather	7	16	[0, 0, 0]	n/a	catFR1	0	R1067P
1720.195	2.6	1487985	WORD	n/a	wordpools/wordpool_categorized_EN.txt	THUNDER	Weather	8	16	[0, 0, 0]	n/a	catFR1	0	R1067P
1722.795	2.602	1489285	WORD	n/a	wordpools/wordpool_categorized_EN.txt	ONION	Vegetables	9	16	[0, 0, 0]	n/a	catFR1	0	R1067P
1725.397	2.382	1490585	WORD	n/a	wordpools/wordpool_categorized_EN.txt	CUCUMBER	Vegetables	10	16	[0, 0, 0]	n/a	catFR1	0	R1067P
1727.779	2.535	1491776	WORD	n/a	wordpools/wordpool_categorized_EN.txt	FOOT	BodyParts	11	16	[0, 0, 0]	n/a	catFR1	0	R1067P
1730.314	1.616	1493044	WORD	n/a	wordpools/wordpool_categorized_EN.txt	HAND	BodyParts	12	16	[0, 0, 0]	n/a	catFR1	0	R1067P
1731.93	0.001	1493852	DISTRACT_START	n/a	n/a	n/a	n/a	-999	16	[0, 0, 0]	n/a	catFR1	0	R1067P
1731.931	0.016	1493852	START	n/a	n/a	n/a	n/a	-999	16	[-999, -999, -999]	n/a	catFR1	0	R1067P
1731.947	4.967	1493860	PROB	4.967	n/a	n/a	n/a	-999	16	[6, 8, 2]	16	catFR1	0	R1067P
1736.914	3.901	1496344	PROB	3.901	n/a	n/a	n/a	-999	16	[5, 9, 5]	19	catFR1	0	R1067P
1740.815	4.118	1498294	PROB	4.118	n/a	n/a	n/a	-999	16	[8, 9, 3]	20	catFR1	0	R1067P
1744.933	3.734	1500353	PROB	3.734	n/a	n/a	n/a	-999	16	[3, 7, 6]	16	catFR1	0	R1067P
1748.667	2.684	1502220	PROB	2.684	n/a	n/a	n/a	-999	16	[8, 1, 3]	12	catFR1	0	R1067P
1751.351	3.299	1503562	PROB	3.299	n/a	n/a	n/a	-999	16	[4, 7, 1]	11	catFR1	0	R1067P
1754.65	0.018	1505211	STOP	n/a	n/a	n/a	n/a	-999	16	[-999, -999, -999]	n/a	catFR1	0	R1067P
1754.668	1.201	1505220	DISTRACT_END	n/a	n/a	n/a	n/a	-999	16	[0, 0, 0]	n/a	catFR1	0	R1067P
1755.869	0.167	1505821	REC_START	n/a	n/a	n/a	n/a	-999	16	[0, 0, 0]	n/a	catFR1	0	R1067P
1756.036	1.0	1505904	REC_WORD_VV	1.0	n/a	<>	n/a	-999	16	[0, 0, 0]	n/a	catFR1	0	R1067P
1757.036	1.591	1506404	REC_WORD_VV	1.591	n/a	<>	n/a	-999	16	[0, 0, 0]	n/a	catFR1	0	R1067P
1758.627	3.404	1507200	REC_WORD_VV	3.404	n/a	<>	n/a	-999	16	[0, 0, 0]	n/a	catFR1	0	R1067P
1762.031	9.039	1508902	REC_WORD	9.039	n/a	BROCCOLI	Vegetables	5	16	[0, 0, 0]	n/a	catFR1	0	R1067P
1771.07	1.0	1513421	REC_WORD_VV	1.0	n/a	<>	n/a	-999	16	[0, 0, 0]	n/a	catFR1	0	R1067P
1772.07	1.0	1513921	REC_WORD_VV	1.0	n/a	<>	n/a	-999	16	[0, 0, 0]	n/a	catFR1	0	R1067P
1773.07	2.279	1514421	REC_WORD_VV	2.279	n/a	<>	n/a	-999	16	[0, 0, 0]	n/a	catFR1	0	R1067P
1775.349	1.0	1515560	REC_WORD_VV	1.0	n/a	<>	n/a	-999	16	[0, 0, 0]	n/a	catFR1	0	R1067P
1776.349	2.332	1516060	REC_WORD_VV	2.332	n/a	<>	n/a	-999	16	[0, 0, 0]	n/a	catFR1	0	R1067P
1778.681	0.534	1517226	REC_WORD	0.534	n/a	FOOT	BodyParts	11	16	[0, 0, 0]	n/a	catFR1	0	R1067P
1779.215	0.139	1517493	REC_WORD_VV	0.139	n/a	<>	n/a	-999	16	[0, 0, 0]	n/a	catFR1	0	R1067P
1779.354	6.526	1517563	REC_WORD	6.526	n/a	HAND	BodyParts	12	16	[0, 0, 0]	n/a	catFR1	0	R1067P
1785.88	10.979	1520825	REC_END	n/a	n/a	n/a	n/a	-999	16	[0, 0, 0]	n/a	catFR1	0	R1067P
1796.859	0.0	1526315	TRIAL	n/a	n/a	n/a	n/a	-999	17	[0, 0, 0]	n/a	catFR1	0	R1067P
1796.859	10.428	1526315	COUNTDOWN_START	n/a	n/a	n/a	n/a	-999	17	[0, 0, 0]	n/a	catFR1	0	R1067P
1807.287	0.008	1531528	COUNTDOWN_END	n/a	n/a	n/a	n/a	-999	17	[0, 0, 0]	n/a	catFR1	0	R1067P
1807.295	3.467	1531532	ORIENT	n/a	n/a	n/a	n/a	-999	17	[0, 0, 0]	n/a	catFR1	0	R1067P
1810.762	2.383	1533266	WORD	n/a	wordpools/wordpool_categorized_EN.txt	BASS	Instruments	1	17	[0, 0, 0]	n/a	catFR1	0	R1067P
1813.145	2.517	1534457	WORD	n/a	wordpools/wordpool_categorized_EN.txt	TRUMPET	Instruments	2	17	[0, 0, 0]	n/a	catFR1	0	R1067P
1815.662	2.384	1535716	WORD	n/a	wordpools/wordpool_categorized_EN.txt	DOLLHOUSE	Toys	3	17	[0, 0, 0]	n/a	catFR1	0	R1067P
1818.046	2.467	1536908	WORD	n/a	wordpools/wordpool_categorized_EN.txt	FRISBEE	Toys	4	17	[0, 0, 0]	n/a	catFR1	0	R1067P
1820.513	2.434	1538141	WORD	n/a	wordpools/wordpool_categorized_EN.txt	MIXER	Appliances	5	17	[0, 0, 0]	n/a	catFR1	0	R1067P
1822.947	2.485	1539358	WORD	n/a	wordpools/wordpool_categorized_EN.txt	DRYER	Appliances	6	17	[0, 0, 0]	n/a	catFR1	0	R1067P
1825.432	2.5	1540601	WORD	n/a	wordpools/wordpool_categorized_EN.txt	TROMBONE	Instruments	7	17	[0, 0, 0]	n/a	catFR1	0	R1067P
1827.932	2.384	1541850	WORD	n/a	wordpools/wordpool_categorized_EN.txt	CELLO	Instruments	8	17	[0, 0, 0]	n/a	catFR1	0	R1067P
1830.316	2.466	1543042	WORD	n/a	wordpools/wordpool_categorized_EN.txt	BLENDER	Appliances	9	17	[0, 0, 0]	n/a	catFR1	0	R1067P
1832.782	2.569	1544275	WORD	n/a	wordpools/wordpool_categorized_EN.txt	STOVE	Appliances	10	17	[0, 0, 0]	n/a	catFR1	0	R1067P
1835.351	2.566	1545560	WORD	n/a	wordpools/wordpool_categorized_EN.txt	SLINKY	Toys	11	17	[0, 0, 0]	n/a	catFR1	0	R1067P
1837.917	1.617	1546843	WORD	n/a	wordpools/wordpool_categorized_EN.txt	FOOTBALL	Toys	12	17	[0, 0, 0]	n/a	catFR1	0	R1067P
1839.534	0.001	1547651	DISTRACT_START	n/a	n/a	n/a	n/a	-999	17	[0, 0, 0]	n/a	catFR1	0	R1067P
1839.535	0.015	1547652	START	n/a	n/a	n/a	n/a	-999	17	[-999, -999, -999]	n/a	catFR1	0	R1067P
1839.55	4.201	1547659	PROB	4.201	n/a	n/a	n/a	-999	17	[3, 4, 3]	10	catFR1	0	R1067P
1843.751	3.801	1549760	PROB	3.801	n/a	n/a	n/a	-999	17	[3, 1, 2]	6	catFR1	0	R1067P
1847.552	3.567	1551660	PROB	3.567	n/a	n/a	n/a	-999	17	[7, 1, 3]	11	catFR1	0	R1067P
1851.119	3.451	1553443	PROB	3.451	n/a	n/a	n/a	-999	17	[2, 8, 7]	17	catFR1	0	R1067P
1854.57	3.117	1555169	PROB	3.117	n/a	n/a	n/a	-999	17	[1, 9, 2]	12	catFR1	0	R1067P
1857.687	3.004	1556727	PROB	3.004	n/a	n/a	n/a	-999	17	[3, 2, 7]	12	catFR1	0	R1067P
1860.691	0.013	1558229	STOP	n/a	n/a	n/a	n/a	-999	17	[-999, -999, -999]	n/a	catFR1	0	R1067P
1860.704	1.118	1558236	DISTRACT_END	n/a	n/a	n/a	n/a	-999	17	[0, 0, 0]	n/a	catFR1	0	R1067P
1861.822	0.743	1558795	REC_START	n/a	n/a	n/a	n/a	-999	17	[0, 0, 0]	n/a	catFR1	0	R1067P
1862.565	1.378	1559166	REC_WORD_VV	1.378	n/a	<>	n/a	-999	17	[0, 0, 0]	n/a	catFR1	0	R1067P
1863.943	0.155	1559855	REC_WORD_VV	0.155	n/a	<>	n/a	-999	17	[0, 0, 0]	n/a	catFR1	0	R1067P
1864.098	0.444	1559933	REC_WORD	0.444	n/a	BROCCOLI	n/a	-999	17	[0, 0, 0]	n/a	catFR1	0	R1067P
1864.542	1.0	1560155	REC_WORD_VV	1.0	n/a	<>	n/a	-999	17	[0, 0, 0]	n/a	catFR1	0	R1067P
1865.542	1.0	1560655	REC_WORD_VV	1.0	n/a	<>	n/a	-999	17	[0, 0, 0]	n/a	catFR1	0	R1067P
1866.542	1.0	1561154	REC_WORD_VV	1.0	n/a	<>	n/a	-999	17	[0, 0, 0]	n/a	catFR1	0	R1067P
1867.542	0.858	1561654	REC_WORD_VV	0.858	n/a	<>	n/a	-999	17	[0, 0, 0]	n/a	catFR1	0	R1067P
1868.4	0.563	1562083	REC_WORD_VV	0.563	n/a	<>	n/a	-999	17	[0, 0, 0]	n/a	catFR1	0	R1067P
1868.963	0.73	1562365	REC_WORD	0.73	n/a	BROCCOLI	n/a	-999	17	[0, 0, 0]	n/a	catFR1	0	R1067P
1869.693	1.0	1562730	REC_WORD_VV	1.0	n/a	<>	n/a	-999	17	[0, 0, 0]	n/a	catFR1	0	R1067P
1870.693	0.651	1563230	REC_WORD_VV	0.651	n/a	<>	n/a	-999	17	[0, 0, 0]	n/a	catFR1	0	R1067P
1871.344	1.0	1563555	REC_WORD_VV	1.0	n/a	<>	n/a	-999	17	[0, 0, 0]	n/a	catFR1	0	R1067P
1872.344	1.0	1564055	REC_WORD_VV	1.0	n/a	<>	n/a	-999	17	[0, 0, 0]	n/a	catFR1	0	R1067P
1873.344	1.772	1564555	REC_WORD_VV	1.772	n/a	<>	n/a	-999	17	[0, 0, 0]	n/a	catFR1	0	R1067P
1875.116	0.282	1565441	REC_WORD_VV	0.282	n/a	<>	n/a	-999	17	[0, 0, 0]	n/a	catFR1	0	R1067P
1875.398	0.637	1565582	REC_WORD	0.637	n/a	FOOTBALL	Toys	12	17	[0, 0, 0]	n/a	catFR1	0	R1067P
1876.035	0.273	1565901	REC_WORD_VV	0.273	n/a	<>	n/a	-999	17	[0, 0, 0]	n/a	catFR1	0	R1067P
1876.308	3.205	1566037	REC_WORD	3.205	n/a	SLINKY	Toys	11	17	[0, 0, 0]	n/a	catFR1	0	R1067P
1879.513	1.0	1567640	REC_WORD_VV	1.0	n/a	<>	n/a	-999	17	[0, 0, 0]	n/a	catFR1	0	R1067P
1880.513	0.934	1568140	REC_WORD_VV	0.934	n/a	<>	n/a	-999	17	[0, 0, 0]	n/a	catFR1	0	R1067P
1881.447	0.802	1568607	REC_WORD_VV	0.802	n/a	<>	n/a	-999	17	[0, 0, 0]	n/a	catFR1	0	R1067P
1882.249	0.856	1569008	REC_WORD	0.856	n/a	TROMBONE	Instruments	7	17	[0, 0, 0]	n/a	catFR1	0	R1067P
1883.105	0.213	1569436	REC_WORD_VV	0.213	n/a	<>	n/a	-999	17	[0, 0, 0]	n/a	catFR1	0	R1067P
1883.318	2.471	1569542	REC_WORD	2.471	n/a	BASS	Instruments	1	17	[0, 0, 0]	n/a	catFR1	0	R1067P
1885.789	0.24	1570778	REC_WORD_VV	0.24	n/a	<>	n/a	-999	17	[0, 0, 0]	n/a	catFR1	0	R1067P
1886.029	2.741	1570898	REC_WORD	2.741	n/a	CELLO	Instruments	8	17	[0, 0, 0]	n/a	catFR1	0	R1067P
1888.77	0.484	1572268	REC_WORD_VV	0.484	n/a	<>	n/a	-999	17	[0, 0, 0]	n/a	catFR1	0	R1067P
1889.254	2.579	1572510	REC_WORD	2.579	n/a	CELLO	Instruments	8	17	[0, 0, 0]	n/a	catFR1	0	R1067P
1891.833	7.062	1573799	REC_END	n/a	n/a	n/a	n/a	-999	17	[0, 0, 0]	n/a	catFR1	0	R1067P
1898.895	0.0	1577330	TRIAL	n/a	n/a	n/a	n/a	-999	18	[0, 0, 0]	n/a	catFR1	0	R1067P
1898.895	10.428	1577330	COUNTDOWN_START	n/a	n/a	n/a	n/a	-999	18	[0, 0, 0]	n/a	catFR1	0	R1067P
1909.323	0.008	1582544	COUNTDOWN_END	n/a	n/a	n/a	n/a	-999	18	[0, 0, 0]	n/a	catFR1	0	R1067P
1909.331	3.566	1582548	ORIENT	n/a	n/a	n/a	n/a	-999	18	[0, 0, 0]	n/a	catFR1	0	R1067P
1912.897	2.585	1584331	WORD	n/a	wordpools/wordpool_categorized_EN.txt	BLUEBERRY	Fruit	1	18	[0, 0, 0]	n/a	catFR1	0	R1067P
1915.482	2.533	1585623	WORD	n/a	wordpools/wordpool_categorized_EN.txt	GRAPE	Fruit	2	18	[0, 0, 0]	n/a	catFR1	0	R1067P
1918.015	2.584	1586890	WORD	n/a	wordpools/wordpool_categorized_EN.txt	SHRIMP	OceanAnimals	3	18	[0, 0, 0]	n/a	catFR1	0	R1067P
1920.599	2.534	1588182	WORD	n/a	wordpools/wordpool_categorized_EN.txt	SQUID	OceanAnimals	4	18	[0, 0, 0]	n/a	catFR1	0	R1067P
1923.133	2.567	1589449	WORD	n/a	wordpools/wordpool_categorized_EN.txt	BLOCKS	Toys	5	18	[0, 0, 0]	n/a	catFR1	0	R1067P
1925.7	2.585	1590732	WORD	n/a	wordpools/wordpool_categorized_EN.txt	BALL	Toys	6	18	[0, 0, 0]	n/a	catFR1	0	R1067P
1928.285	2.449	1592024	WORD	n/a	wordpools/wordpool_categorized_EN.txt	WHALE	OceanAnimals	7	18	[0, 0, 0]	n/a	catFR1	0	R1067P
1930.734	2.568	1593249	WORD	n/a	wordpools/wordpool_categorized_EN.txt	JELLYFISH	OceanAnimals	8	18	[0, 0, 0]	n/a	catFR1	0	R1067P
1933.302	2.45	1594533	WORD	n/a	wordpools/wordpool_categorized_EN.txt	BANANA	Fruit	9	18	[0, 0, 0]	n/a	catFR1	0	R1067P
1935.752	2.45	1595758	WORD	n/a	wordpools/wordpool_categorized_EN.txt	APPLE	Fruit	10	18	[0, 0, 0]	n/a	catFR1	0	R1067P
1938.202	2.401	1596983	WORD	n/a	wordpools/wordpool_categorized_EN.txt	BASEBALL	Toys	11	18	[0, 0, 0]	n/a	catFR1	0	R1067P
1940.603	1.616	1598183	WORD	n/a	wordpools/wordpool_categorized_EN.txt	MARBLES	Toys	12	18	[0, 0, 0]	n/a	catFR1	0	R1067P
1942.219	0.001	1598991	DISTRACT_START	n/a	n/a	n/a	n/a	-999	18	[0, 0, 0]	n/a	catFR1	0	R1067P
1942.22	0.017	1598992	START	n/a	n/a	n/a	n/a	-999	18	[-999, -999, -999]	n/a	catFR1	0	R1067P
1942.237	4.85	1599000	PROB	4.85	n/a	n/a	n/a	-999	18	[3, 2, 3]	8	catFR1	0	R1067P
1947.087	6.785	1601425	PROB	6.785	n/a	n/a	n/a	-999	18	[9, 7, 5]	21	catFR1	0	R1067P
1953.872	3.25	1604817	PROB	3.25	n/a	n/a	n/a	-999	18	[9, 3, 9]	21	catFR1	0	R1067P
1957.122	3.252	1606442	PROB	3.252	n/a	n/a	n/a	-999	18	[6, 1, 9]	16	catFR1	0	R1067P
1960.374	5.701	1608068	PROB	5.701	n/a	n/a	n/a	-999	18	[7, 4, 7]	18	catFR1	0	R1067P
1966.075	0.016	1610919	STOP	n/a	n/a	n/a	n/a	-999	18	[-999, -999, -999]	n/a	catFR1	0	R1067P
1966.091	1.218	1610927	DISTRACT_END	n/a	n/a	n/a	n/a	-999	18	[0, 0, 0]	n/a	catFR1	0	R1067P
1967.309	0.844	1611535	REC_START	n/a	n/a	n/a	n/a	-999	18	[0, 0, 0]	n/a	catFR1	0	R1067P
1968.153	1.567	1611957	REC_WORD_VV	1.567	n/a	<>	n/a	-999	18	[0, 0, 0]	n/a	catFR1	0	R1067P
1969.72	2.561	1612741	REC_WORD_VV	2.561	n/a	<>	n/a	-999	18	[0, 0, 0]	n/a	catFR1	0	R1067P
1972.281	3.348	1614021	REC_WORD	3.348	n/a	JELLYFISH	OceanAnimals	8	18	[0, 0, 0]	n/a	catFR1	0	R1067P
1975.629	5.412	1615695	REC_WORD	5.412	n/a	SQUID	OceanAnimals	4	18	[0, 0, 0]	n/a	catFR1	0	R1067P
1981.041	1.0	1618401	REC_WORD_VV	1.0	n/a	<>	n/a	-999	18	[0, 0, 0]	n/a	catFR1	0	R1067P
1982.041	0.045	1618901	REC_WORD_VV	0.045	n/a	<>	n/a	-999	18	[0, 0, 0]	n/a	catFR1	0	R1067P
1982.086	1.0	1618924	REC_WORD	1.0	n/a	MARBLES	Toys	12	18	[0, 0, 0]	n/a	catFR1	0	R1067P
1983.086	0.977	1619424	REC_WORD_VV	0.977	n/a	<>	n/a	-999	18	[0, 0, 0]	n/a	catFR1	0	R1067P
1984.063	1.724	1619912	REC_WORD	1.724	n/a	BALL	Toys	6	18	[0, 0, 0]	n/a	catFR1	0	R1067P
1985.787	1.185	1620774	REC_WORD	1.185	n/a	BASKETBALL	n/a	-999	18	[0, 0, 0]	n/a	catFR1	0	R1067P
1986.972	1.0	1621367	REC_WORD_VV	1.0	n/a	<>	n/a	-999	18	[0, 0, 0]	n/a	catFR1	0	R1067P
1987.972	1.027	1621866	REC_WORD_VV	1.027	n/a	<>	n/a	-999	18	[0, 0, 0]	n/a	catFR1	0	R1067P
1988.999	4.819	1622380	REC_WORD	4.819	n/a	SQUID	OceanAnimals	4	18	[0, 0, 0]	n/a	catFR1	0	R1067P
1993.818	0.243	1624789	REC_WORD_VV	0.243	n/a	<>	n/a	-999	18	[0, 0, 0]	n/a	catFR1	0	R1067P
1994.061	3.263	1624911	REC_WORD	3.263	n/a	JELLYFISH	OceanAnimals	8	18	[0, 0, 0]	n/a	catFR1	0	R1067P
1997.324	4.54	1626542	REC_END	n/a	n/a	n/a	n/a	-999	18	[0, 0, 0]	n/a	catFR1	0	R1067P
2001.864	0.001	1628812	COUNTDOWN_START	n/a	n/a	n/a	n/a	-999	19	[0, 0, 0]	n/a	catFR1	0	R1067P
2001.865	10.427	1628813	TRIAL	n/a	n/a	n/a	n/a	-999	19	[0, 0, 0]	n/a	catFR1	0	R1067P
2012.292	0.008	1634026	COUNTDOWN_END	n/a	n/a	n/a	n/a	-999	19	[0, 0, 0]	n/a	catFR1	0	R1067P
2012.3	3.5	1634030	ORIENT	n/a	n/a	n/a	n/a	-999	19	[0, 0, 0]	n/a	catFR1	0	R1067P
2015.8	2.535	1635780	WORD	n/a	wordpools/wordpool_categorized_EN.txt	FLOOR	Building	1	19	[0, 0, 0]	n/a	catFR1	0	R1067P
2018.335	2.549	1637047	WORD	n/a	wordpools/wordpool_categorized_EN.txt	ATTIC	Building	2	19	[0, 0, 0]	n/a	catFR1	0	R1067P
2020.884	2.502	1638322	WORD	n/a	wordpools/wordpool_categorized_EN.txt	RIVER	Landscapes	3	19	[0, 0, 0]	n/a	catFR1	0	R1067P
2023.386	2.416	1639573	WORD	n/a	wordpools/wordpool_categorized_EN.txt	WOODS	Landscapes	4	19	[0, 0, 0]	n/a	catFR1	0	R1067P
2025.802	2.568	1640781	WORD	n/a	wordpools/wordpool_categorized_EN.txt	GIRAFFE	Zoo	5	19	[0, 0, 0]	n/a	catFR1	0	R1067P
2028.37	2.433	1642064	WORD	n/a	wordpools/wordpool_categorized_EN.txt	ORANGUTAN	Zoo	6	19	[0, 0, 0]	n/a	catFR1	0	R1067P
2030.803	2.585	1643281	WORD	n/a	wordpools/wordpool_categorized_EN.txt	CREEK	Landscapes	7	19	[0, 0, 0]	n/a	catFR1	0	R1067P
2033.388	2.449	1644573	WORD	n/a	wordpools/wordpool_categorized_EN.txt	FOREST	Landscapes	8	19	[0, 0, 0]	n/a	catFR1	0	R1067P
2035.837	2.585	1645798	WORD	n/a	wordpools/wordpool_categorized_EN.txt	ROOF	Building	9	19	[0, 0, 0]	n/a	catFR1	0	R1067P
2038.422	2.499	1647090	WORD	n/a	wordpools/wordpool_categorized_EN.txt	BATHROOM	Building	10	19	[0, 0, 0]	n/a	catFR1	0	R1067P
2040.921	2.601	1648340	WORD	n/a	wordpools/wordpool_categorized_EN.txt	ZEBRA	Zoo	11	19	[0, 0, 0]	n/a	catFR1	0	R1067P
2043.522	1.617	1649640	WORD	n/a	wordpools/wordpool_categorized_EN.txt	BEAR	Zoo	12	19	[0, 0, 0]	n/a	catFR1	0	R1067P
2045.139	0.001	1650449	DISTRACT_START	n/a	n/a	n/a	n/a	-999	19	[0, 0, 0]	n/a	catFR1	0	R1067P
2045.14	0.016	1650449	START	n/a	n/a	n/a	n/a	-999	19	[-999, -999, -999]	n/a	catFR1	0	R1067P
2045.156	4.45	1650457	PROB	4.45	n/a	n/a	n/a	-999	19	[3, 9, 5]	17	catFR1	0	R1067P
2049.606	3.968	1652682	PROB	3.968	n/a	n/a	n/a	-999	19	[2, 6, 6]	14	catFR1	0	R1067P
2053.574	3.2	1654666	PROB	3.2	n/a	n/a	n/a	-999	19	[4, 5, 4]	13	catFR1	0	R1067P
2056.774	4.801	1656266	PROB	4.801	n/a	n/a	n/a	-999	19	[7, 6, 7]	20	catFR1	0	R1067P
2061.575	8.54	1658666	PROB	8.54	n/a	n/a	n/a	-999	19	[9, 8, 6]	22	catFR1	0	R1067P
2070.115	0.012	1662936	STOP	n/a	n/a	n/a	n/a	-999	19	[-999, -999, -999]	n/a	catFR1	0	R1067P
2070.127	1.051	1662942	DISTRACT_END	n/a	n/a	n/a	n/a	-999	19	[0, 0, 0]	n/a	catFR1	0	R1067P
2071.178	0.098	1663467	REC_START	n/a	n/a	n/a	n/a	-999	19	[0, 0, 0]	n/a	catFR1	0	R1067P
2071.276	1.91	1663516	REC_WORD_VV	1.91	n/a	<>	n/a	-999	19	[0, 0, 0]	n/a	catFR1	0	R1067P
2073.186	1.173	1664471	REC_WORD_VV	1.173	n/a	<>	n/a	-999	19	[0, 0, 0]	n/a	catFR1	0	R1067P
2074.359	4.202	1665058	REC_WORD_VV	4.202	n/a	<>	n/a	-999	19	[0, 0, 0]	n/a	catFR1	0	R1067P
2078.561	1.733	1667159	REC_WORD	1.733	n/a	WOODS	Landscapes	4	19	[0, 0, 0]	n/a	catFR1	0	R1067P
2080.294	4.994	1668025	REC_WORD	4.994	n/a	FLOOR	Building	1	19	[0, 0, 0]	n/a	catFR1	0	R1067P
2085.288	0.407	1670522	REC_WORD_VV	0.407	n/a	<>	n/a	-999	19	[0, 0, 0]	n/a	catFR1	0	R1067P
2085.695	7.279	1670726	REC_WORD	7.279	n/a	ORANGUTAN	Zoo	6	19	[0, 0, 0]	n/a	catFR1	0	R1067P
2092.974	0.963	1674365	REC_WORD	0.963	n/a	LAKE	n/a	-999	19	[0, 0, 0]	n/a	catFR1	0	R1067P
2093.937	2.096	1674846	REC_WORD	2.096	n/a	RIVER	Landscapes	3	19	[0, 0, 0]	n/a	catFR1	0	R1067P
2096.033	5.157	1675894	REC_WORD	5.157	n/a	GIRAFFE	Zoo	5	19	[0, 0, 0]	n/a	catFR1	0	R1067P
2101.19	3.993	1678473	REC_END	n/a	n/a	n/a	n/a	-999	19	[0, 0, 0]	n/a	catFR1	0	R1067P
2105.183	0.0	1680469	TRIAL	n/a	n/a	n/a	n/a	-999	20	[0, 0, 0]	n/a	catFR1	0	R1067P
2105.183	10.428	1680469	COUNTDOWN_START	n/a	n/a	n/a	n/a	-999	20	[0, 0, 0]	n/a	catFR1	0	R1067P
2115.611	0.008	1685683	COUNTDOWN_END	n/a	n/a	n/a	n/a	-999	20	[0, 0, 0]	n/a	catFR1	0	R1067P
2115.619	3.818	1685687	ORIENT	n/a	n/a	n/a	n/a	-999	20	[0, 0, 0]	n/a	catFR1	0	R1067P
2119.437	2.5	1687596	WORD	n/a	wordpools/wordpool_categorized_EN.txt	ARM	BodyParts	1	20	[0, 0, 0]	n/a	catFR1	0	R1067P
2121.937	2.551	1688846	WORD	n/a	wordpools/wordpool_categorized_EN.txt	KNEE	BodyParts	2	20	[0, 0, 0]	n/a	catFR1	0	R1067P
2124.488	2.599	1690121	WORD	n/a	wordpools/wordpool_categorized_EN.txt	BUS	Vehicles	3	20	[0, 0, 0]	n/a	catFR1	0	R1067P
2127.087	2.402	1691421	WORD	n/a	wordpools/wordpool_categorized_EN.txt	PLANE	Vehicles	4	20	[0, 0, 0]	n/a	catFR1	0	R1067P
2129.489	2.483	1692621	WORD	n/a	wordpools/wordpool_categorized_EN.txt	DAISY	Flowers	5	20	[0, 0, 0]	n/a	catFR1	0	R1067P
2131.972	2.418	1693863	WORD	n/a	wordpools/wordpool_categorized_EN.txt	TULIP	Flowers	6	20	[0, 0, 0]	n/a	catFR1	0	R1067P
2134.39	2.566	1695072	WORD	n/a	wordpools/wordpool_categorized_EN.txt	VAN	Vehicles	7	20	[0, 0, 0]	n/a	catFR1	0	R1067P
2136.956	2.567	1696355	WORD	n/a	wordpools/wordpool_categorized_EN.txt	TRUCK	Vehicles	8	20	[0, 0, 0]	n/a	catFR1	0	R1067P
2139.523	2.417	1697638	WORD	n/a	wordpools/wordpool_categorized_EN.txt	ELBOW	BodyParts	9	20	[0, 0, 0]	n/a	catFR1	0	R1067P
2141.94	2.519	1698847	WORD	n/a	wordpools/wordpool_categorized_EN.txt	TOE	BodyParts	10	20	[0, 0, 0]	n/a	catFR1	0	R1067P
2144.459	2.432	1700106	WORD	n/a	wordpools/wordpool_categorized_EN.txt	PETUNIA	Flowers	11	20	[0, 0, 0]	n/a	catFR1	0	R1067P
2146.891	1.601	1701322	WORD	n/a	wordpools/wordpool_categorized_EN.txt	ORCHID	Flowers	12	20	[0, 0, 0]	n/a	catFR1	0	R1067P
2148.492	0.001	1702122	DISTRACT_START	n/a	n/a	n/a	n/a	-999	20	[0, 0, 0]	n/a	catFR1	0	R1067P
2148.493	0.016	1702123	START	n/a	n/a	n/a	n/a	-999	20	[-999, -999, -999]	n/a	catFR1	0	R1067P
2148.509	4.784	1702131	PROB	4.784	n/a	n/a	n/a	-999	20	[4, 9, 4]	17	catFR1	0	R1067P
2153.293	4.3	1704523	PROB	4.3	n/a	n/a	n/a	-999	20	[9, 4, 1]	14	catFR1	0	R1067P
2157.593	3.368	1706673	PROB	3.368	n/a	n/a	n/a	-999	20	[6, 4, 4]	14	catFR1	0	R1067P
2160.961	2.817	1708357	PROB	2.817	n/a	n/a	n/a	-999	20	[5, 1, 5]	11	catFR1	0	R1067P
2163.778	4.384	1709765	PROB	4.384	n/a	n/a	n/a	-999	20	[2, 7, 6]	15	catFR1	0	R1067P
2168.162	3.161	1711957	PROB	3.161	n/a	n/a	n/a	-999	20	[2, 1, 2]	5	catFR1	0	R1067P
2171.323	0.007	1713537	STOP	n/a	n/a	n/a	n/a	-999	20	[-999, -999, -999]	n/a	catFR1	0	R1067P
2171.33	1.134	1713541	DISTRACT_END	n/a	n/a	n/a	n/a	-999	20	[0, 0, 0]	n/a	catFR1	0	R1067P
2172.464	0.729	1714108	REC_START	n/a	n/a	n/a	n/a	-999	20	[0, 0, 0]	n/a	catFR1	0	R1067P
2173.193	6.001	1714472	REC_WORD_VV	6.001	n/a	<>	n/a	-999	20	[0, 0, 0]	n/a	catFR1	0	R1067P
2179.194	1.501	1717473	REC_WORD	1.501	n/a	ARM	BodyParts	1	20	[0, 0, 0]	n/a	catFR1	0	R1067P
2180.695	2.75	1718223	REC_WORD	2.75	n/a	KNEE	BodyParts	2	20	[0, 0, 0]	n/a	catFR1	0	R1067P
2183.445	8.587	1719598	REC_WORD	8.587	n/a	HAND	n/a	-999	20	[0, 0, 0]	n/a	catFR1	0	R1067P
2192.032	1.0	1723891	REC_WORD_VV	1.0	n/a	<>	n/a	-999	20	[0, 0, 0]	n/a	catFR1	0	R1067P
2193.032	9.447	1724391	REC_WORD_VV	9.447	n/a	<>	n/a	-999	20	[0, 0, 0]	n/a	catFR1	0	R1067P
2202.479	4.925	1729115	REC_END	n/a	n/a	n/a	n/a	-999	20	[0, 0, 0]	n/a	catFR1	0	R1067P
2207.404	0.0	1731577	TRIAL	n/a	n/a	n/a	n/a	-999	21	[0, 0, 0]	n/a	catFR1	0	R1067P
2207.404	10.428	1731577	COUNTDOWN_START	n/a	n/a	n/a	n/a	-999	21	[0, 0, 0]	n/a	catFR1	0	R1067P
2217.832	0.006	1736791	COUNTDOWN_END	n/a	n/a	n/a	n/a	-999	21	[0, 0, 0]	n/a	catFR1	0	R1067P
2217.838	3.601	1736794	ORIENT	n/a	n/a	n/a	n/a	-999	21	[0, 0, 0]	n/a	catFR1	0	R1067P
2221.439	2.583	1738594	WORD	n/a	wordpools/wordpool_categorized_EN.txt	OYSTER	OceanAnimals	1	21	[0, 0, 0]	n/a	catFR1	0	R1067P
2224.022	2.485	1739886	WORD	n/a	wordpools/wordpool_categorized_EN.txt	OCTOPUS	OceanAnimals	2	21	[0, 0, 0]	n/a	catFR1	0	R1067P
2226.507	2.467	1741128	WORD	n/a	wordpools/wordpool_categorized_EN.txt	LETTUCE	Vegetables	3	21	[0, 0, 0]	n/a	catFR1	0	R1067P
2228.974	2.518	1742361	WORD	n/a	wordpools/wordpool_categorized_EN.txt	SPINACH	Vegetables	4	21	[0, 0, 0]	n/a	catFR1	0	R1067P
2231.492	2.449	1743620	WORD	n/a	wordpools/wordpool_categorized_EN.txt	JUICE	Beverages	5	21	[0, 0, 0]	n/a	catFR1	0	R1067P
2233.941	2.501	1744845	WORD	n/a	wordpools/wordpool_categorized_EN.txt	LEMONADE	Beverages	6	21	[0, 0, 0]	n/a	catFR1	0	R1067P
2236.442	2.583	1746095	WORD	n/a	wordpools/wordpool_categorized_EN.txt	DOLPHIN	OceanAnimals	7	21	[0, 0, 0]	n/a	catFR1	0	R1067P
2239.025	2.418	1747387	WORD	n/a	wordpools/wordpool_categorized_EN.txt	LOBSTER	OceanAnimals	8	21	[0, 0, 0]	n/a	catFR1	0	R1067P
2241.443	2.6	1748596	WORD	n/a	wordpools/wordpool_categorized_EN.txt	WATER	Beverages	9	21	[0, 0, 0]	n/a	catFR1	0	R1067P
2244.043	2.584	1749896	WORD	n/a	wordpools/wordpool_categorized_EN.txt	WINE	Beverages	10	21	[0, 0, 0]	n/a	catFR1	0	R1067P
2246.627	2.467	1751188	WORD	n/a	wordpools/wordpool_categorized_EN.txt	PEAS	Vegetables	11	21	[0, 0, 0]	n/a	catFR1	0	R1067P
2249.094	1.617	1752421	WORD	n/a	wordpools/wordpool_categorized_EN.txt	CABBAGE	Vegetables	12	21	[0, 0, 0]	n/a	catFR1	0	R1067P
2250.711	0.001	1753229	DISTRACT_START	n/a	n/a	n/a	n/a	-999	21	[0, 0, 0]	n/a	catFR1	0	R1067P
2250.712	0.016	1753230	START	n/a	n/a	n/a	n/a	-999	21	[-999, -999, -999]	n/a	catFR1	0	R1067P
2250.728	5.2	1753238	PROB	5.2	n/a	n/a	n/a	-999	21	[7, 1, 8]	16	catFR1	0	R1067P
2255.928	3.985	1755838	PROB	3.985	n/a	n/a	n/a	-999	21	[8, 6, 3]	17	catFR1	0	R1067P
2259.913	9.519	1757830	PROB	9.519	n/a	n/a	n/a	-999	21	[8, 9, 6]	23	catFR1	0	R1067P
2269.432	3.507	1762589	PROB	3.507	n/a	n/a	n/a	-999	21	[6, 4, 5]	15	catFR1	0	R1067P
2272.939	0.009	1764343	STOP	n/a	n/a	n/a	n/a	-999	21	[-999, -999, -999]	n/a	catFR1	0	R1067P
2272.948	1.168	1764347	DISTRACT_END	n/a	n/a	n/a	n/a	-999	21	[0, 0, 0]	n/a	catFR1	0	R1067P
2274.116	1.513	1764931	REC_START	n/a	n/a	n/a	n/a	-999	21	[0, 0, 0]	n/a	catFR1	0	R1067P
2275.629	0.783	1765688	REC_WORD_VV	0.783	n/a	<>	n/a	-999	21	[0, 0, 0]	n/a	catFR1	0	R1067P
2276.412	10.571	1766079	REC_WORD_VV	10.571	n/a	<>	n/a	-999	21	[0, 0, 0]	n/a	catFR1	0	R1067P
2286.983	17.147	1771365	REC_WORD_VV	17.147	n/a	<>	n/a	-999	21	[0, 0, 0]	n/a	catFR1	0	R1067P
2304.13	10.443	1779938	REC_END	n/a	n/a	n/a	n/a	-999	21	[0, 0, 0]	n/a	catFR1	0	R1067P
2314.573	0.0	1785159	TRIAL	n/a	n/a	n/a	n/a	-999	22	[0, 0, 0]	n/a	catFR1	0	R1067P
2314.573	10.428	1785159	COUNTDOWN_START	n/a	n/a	n/a	n/a	-999	22	[0, 0, 0]	n/a	catFR1	0	R1067P
2325.001	0.007	1790373	COUNTDOWN_END	n/a	n/a	n/a	n/a	-999	22	[0, 0, 0]	n/a	catFR1	0	R1067P
2325.008	3.617	1790376	ORIENT	n/a	n/a	n/a	n/a	-999	22	[0, 0, 0]	n/a	catFR1	0	R1067P
2328.625	2.401	1792185	WORD	n/a	wordpools/wordpool_categorized_EN.txt	SPIDER	Insects	1	22	[0, 0, 0]	n/a	catFR1	0	R1067P
2331.026	2.517	1793385	WORD	n/a	wordpools/wordpool_categorized_EN.txt	MOSQUITO	Insects	2	22	[0, 0, 0]	n/a	catFR1	0	R1067P
2333.543	2.484	1794643	WORD	n/a	wordpools/wordpool_categorized_EN.txt	DOOR	Building	3	22	[0, 0, 0]	n/a	catFR1	0	R1067P
2336.027	2.55	1795885	WORD	n/a	wordpools/wordpool_categorized_EN.txt	CEILING	Building	4	22	[0, 0, 0]	n/a	catFR1	0	R1067P
2338.577	2.451	1797160	WORD	n/a	wordpools/wordpool_categorized_EN.txt	BANJO	Instruments	5	22	[0, 0, 0]	n/a	catFR1	0	R1067P
2341.028	2.468	1798386	WORD	n/a	wordpools/wordpool_categorized_EN.txt	ORGAN	Instruments	6	22	[0, 0, 0]	n/a	catFR1	0	R1067P
2343.496	2.599	1799620	WORD	n/a	wordpools/wordpool_categorized_EN.txt	BEE	Insects	7	22	[0, 0, 0]	n/a	catFR1	0	R1067P
2346.095	2.484	1800919	WORD	n/a	wordpools/wordpool_categorized_EN.txt	GNAT	Insects	8	22	[0, 0, 0]	n/a	catFR1	0	R1067P
2348.579	2.517	1802161	WORD	n/a	wordpools/wordpool_categorized_EN.txt	VIOLIN	Instruments	9	22	[0, 0, 0]	n/a	catFR1	0	R1067P
2351.096	2.601	1803419	WORD	n/a	wordpools/wordpool_categorized_EN.txt	FLUTE	Instruments	10	22	[0, 0, 0]	n/a	catFR1	0	R1067P
2353.697	2.467	1804720	WORD	n/a	wordpools/wordpool_categorized_EN.txt	HALLWAY	Building	11	22	[0, 0, 0]	n/a	catFR1	0	R1067P
2356.164	1.617	1805953	WORD	n/a	wordpools/wordpool_categorized_EN.txt	WINDOW	Building	12	22	[0, 0, 0]	n/a	catFR1	0	R1067P
2357.781	0.001	1806762	DISTRACT_START	n/a	n/a	n/a	n/a	-999	22	[0, 0, 0]	n/a	catFR1	0	R1067P
2357.782	0.016	1806762	START	n/a	n/a	n/a	n/a	-999	22	[-999, -999, -999]	n/a	catFR1	0	R1067P
2357.798	4.217	1806770	PROB	4.217	n/a	n/a	n/a	-999	22	[2, 9, 6]	17	catFR1	0	R1067P
2362.015	3.968	1808879	PROB	3.968	n/a	n/a	n/a	-999	22	[1, 2, 7]	10	catFR1	0	R1067P
2365.983	2.933	1810863	PROB	2.933	n/a	n/a	n/a	-999	22	[5, 1, 6]	12	catFR1	0	R1067P
2368.916	4.818	1812329	PROB	4.818	n/a	n/a	n/a	-999	22	[4, 6, 6]	16	catFR1	0	R1067P
2373.734	4.085	1814738	PROB	4.085	n/a	n/a	n/a	-999	22	[9, 4, 8]	21	catFR1	0	R1067P
2377.819	0.016	1816780	STOP	n/a	n/a	n/a	n/a	-999	22	[-999, -999, -999]	n/a	catFR1	0	R1067P
2377.835	1.217	1816788	DISTRACT_END	n/a	n/a	n/a	n/a	-999	22	[0, 0, 0]	n/a	catFR1	0	R1067P
2379.052	1.324	1817397	REC_START	n/a	n/a	n/a	n/a	-999	22	[0, 0, 0]	n/a	catFR1	0	R1067P
2380.376	1.0	1818059	REC_WORD_VV	1.0	n/a	<>	n/a	-999	22	[0, 0, 0]	n/a	catFR1	0	R1067P
2381.376	1.0	1818559	REC_WORD_VV	1.0	n/a	<>	n/a	-999	22	[0, 0, 0]	n/a	catFR1	0	R1067P
2382.376	1.026	1819059	REC_WORD_VV	1.026	n/a	<>	n/a	-999	22	[0, 0, 0]	n/a	catFR1	0	R1067P
2383.402	0.944	1819572	REC_WORD_VV	0.944	n/a	<>	n/a	-999	22	[0, 0, 0]	n/a	catFR1	0	R1067P
2384.346	2.378	1820044	REC_WORD	2.378	n/a	BEE	Insects	7	22	[0, 0, 0]	n/a	catFR1	0	R1067P
2386.724	0.275	1821233	REC_WORD_VV	0.275	n/a	<>	n/a	-999	22	[0, 0, 0]	n/a	catFR1	0	R1067P
2386.999	2.676	1821370	REC_WORD	2.676	n/a	MOSQUITO	Insects	2	22	[0, 0, 0]	n/a	catFR1	0	R1067P
2389.675	0.393	1822708	REC_WORD_VV	0.393	n/a	<>	n/a	-999	22	[0, 0, 0]	n/a	catFR1	0	R1067P
2390.068	3.695	1822904	REC_WORD	3.695	n/a	CELLO	n/a	-999	22	[0, 0, 0]	n/a	catFR1	0	R1067P
2393.763	0.315	1824752	REC_WORD_VV	0.315	n/a	<>	n/a	-999	22	[0, 0, 0]	n/a	catFR1	0	R1067P
2394.078	1.661	1824909	REC_WORD	1.661	n/a	FLUTE	Instruments	10	22	[0, 0, 0]	n/a	catFR1	0	R1067P
2395.739	2.901	1825740	REC_WORD	2.901	n/a	BANJO	Instruments	5	22	[0, 0, 0]	n/a	catFR1	0	R1067P
2398.64	0.681	1827190	REC_WORD	0.681	n/a	MOSQUITO	Insects	2	22	[0, 0, 0]	n/a	catFR1	0	R1067P
2399.321	1.0	1827531	REC_WORD_VV	1.0	n/a	<>	n/a	-999	22	[0, 0, 0]	n/a	catFR1	0	R1067P
2400.321	1.0	1828031	REC_WORD_VV	1.0	n/a	<>	n/a	-999	22	[0, 0, 0]	n/a	catFR1	0	R1067P
2401.321	7.747	1828531	REC_WORD_VV	7.747	n/a	<>	n/a	-999	22	[0, 0, 0]	n/a	catFR1	0	R1067P
2409.068	4.358	1832404	REC_END	n/a	n/a	n/a	n/a	-999	22	[0, 0, 0]	n/a	catFR1	0	R1067P
2413.426	0.0	1834583	TRIAL	n/a	n/a	n/a	n/a	-999	23	[0, 0, 0]	n/a	catFR1	0	R1067P
2413.426	10.428	1834583	COUNTDOWN_START	n/a	n/a	n/a	n/a	-999	23	[0, 0, 0]	n/a	catFR1	0	R1067P
2423.854	0.006	1839797	COUNTDOWN_END	n/a	n/a	n/a	n/a	-999	23	[0, 0, 0]	n/a	catFR1	0	R1067P
2423.86	3.817	1839800	ORIENT	n/a	n/a	n/a	n/a	-999	23	[0, 0, 0]	n/a	catFR1	0	R1067P
2427.677	2.585	1841708	WORD	n/a	wordpools/wordpool_categorized_EN.txt	CAKE	Desserts	1	23	[0, 0, 0]	n/a	catFR1	0	R1067P
2430.262	2.566	1843000	WORD	n/a	wordpools/wordpool_categorized_EN.txt	PUDDING	Desserts	2	23	[0, 0, 0]	n/a	catFR1	0	R1067P
2432.828	2.519	1844283	WORD	n/a	wordpools/wordpool_categorized_EN.txt	WASHER	Appliances	3	23	[0, 0, 0]	n/a	catFR1	0	R1067P
2435.347	2.432	1845543	WORD	n/a	wordpools/wordpool_categorized_EN.txt	VACUUM	Appliances	4	23	[0, 0, 0]	n/a	catFR1	0	R1067P
2437.779	2.401	1846759	WORD	n/a	wordpools/wordpool_categorized_EN.txt	CAULIFLOWER	Vegetables	5	23	[0, 0, 0]	n/a	catFR1	0	R1067P
2440.18	2.617	1847959	WORD	n/a	wordpools/wordpool_categorized_EN.txt	CELERY	Vegetables	6	23	[0, 0, 0]	n/a	catFR1	0	R1067P
2442.797	2.435	1849268	WORD	n/a	wordpools/wordpool_categorized_EN.txt	DISHWASHER	Appliances	7	23	[0, 0, 0]	n/a	catFR1	0	R1067P
2445.232	2.382	1850485	WORD	n/a	wordpools/wordpool_categorized_EN.txt	TOASTER	Appliances	8	23	[0, 0, 0]	n/a	catFR1	0	R1067P
2447.614	2.484	1851676	WORD	n/a	wordpools/wordpool_categorized_EN.txt	CHEESECAKE	Desserts	9	23	[0, 0, 0]	n/a	catFR1	0	R1067P
2450.098	2.385	1852918	WORD	n/a	wordpools/wordpool_categorized_EN.txt	COOKIE	Desserts	10	23	[0, 0, 0]	n/a	catFR1	0	R1067P
2452.483	2.599	1854110	WORD	n/a	wordpools/wordpool_categorized_EN.txt	CARROT	Vegetables	11	23	[0, 0, 0]	n/a	catFR1	0	R1067P
2455.082	1.617	1855410	WORD	n/a	wordpools/wordpool_categorized_EN.txt	CORN	Vegetables	12	23	[0, 0, 0]	n/a	catFR1	0	R1067P
2456.699	0.001	1856218	DISTRACT_START	n/a	n/a	n/a	n/a	-999	23	[0, 0, 0]	n/a	catFR1	0	R1067P
2456.7	0.016	1856219	START	n/a	n/a	n/a	n/a	-999	23	[-999, -999, -999]	n/a	catFR1	0	R1067P
2456.716	5.752	1856227	PROB	5.752	n/a	n/a	n/a	-999	23	[2, 1, 3]	6	catFR1	0	R1067P
2462.468	3.283	1859103	PROB	3.283	n/a	n/a	n/a	-999	23	[3, 2, 8]	13	catFR1	0	R1067P
2465.751	3.401	1860744	PROB	3.401	n/a	n/a	n/a	-999	23	[5, 2, 1]	8	catFR1	0	R1067P
2469.152	3.367	1862445	PROB	3.367	n/a	n/a	n/a	-999	23	[7, 2, 1]	10	catFR1	0	R1067P
2472.519	4.134	1864128	PROB	4.134	n/a	n/a	n/a	-999	23	[1, 9, 9]	19	catFR1	0	R1067P
2476.653	5.742	1866195	PROB	5.742	n/a	n/a	n/a	-999	23	[4, 3, 9]	16	catFR1	0	R1067P
2482.395	0.01	1869066	STOP	n/a	n/a	n/a	n/a	-999	23	[-999, -999, -999]	n/a	catFR1	0	R1067P
2482.405	1.167	1869071	DISTRACT_END	n/a	n/a	n/a	n/a	-999	23	[0, 0, 0]	n/a	catFR1	0	R1067P
2483.572	1.066	1869654	REC_START	n/a	n/a	n/a	n/a	-999	23	[0, 0, 0]	n/a	catFR1	0	R1067P
2484.638	1.126	1870187	REC_WORD_VV	1.126	n/a	<>	n/a	-999	23	[0, 0, 0]	n/a	catFR1	0	R1067P
2485.764	5.632	1870750	REC_WORD_VV	5.632	n/a	<>	n/a	-999	23	[0, 0, 0]	n/a	catFR1	0	R1067P
2491.396	0.757	1873566	REC_WORD_VV	0.757	n/a	<>	n/a	-999	23	[0, 0, 0]	n/a	catFR1	0	R1067P
2492.153	3.671	1873944	REC_WORD	3.671	n/a	MIXER	n/a	-999	23	[0, 0, 0]	n/a	catFR1	0	R1067P
2495.824	0.883	1875780	REC_WORD_VV	0.883	n/a	<>	n/a	-999	23	[0, 0, 0]	n/a	catFR1	0	R1067P
2496.707	4.201	1876221	REC_WORD	4.201	n/a	BROCCOLI	n/a	-999	23	[0, 0, 0]	n/a	catFR1	0	R1067P
2500.908	12.674	1878322	REC_WORD	12.674	n/a	CARROT	Vegetables	11	23	[0, 0, 0]	n/a	catFR1	0	R1067P
2513.582	3.929	1884658	REC_END	n/a	n/a	n/a	n/a	-999	23	[0, 0, 0]	n/a	catFR1	0	R1067P
2517.511	0.0	1886623	TRIAL	n/a	n/a	n/a	n/a	-999	24	[0, 0, 0]	n/a	catFR1	0	R1067P
2517.511	10.428	1886623	COUNTDOWN_START	n/a	n/a	n/a	n/a	-999	24	[0, 0, 0]	n/a	catFR1	0	R1067P
2527.939	0.007	1891837	COUNTDOWN_END	n/a	n/a	n/a	n/a	-999	24	[0, 0, 0]	n/a	catFR1	0	R1067P
2527.946	3.751	1891840	ORIENT	n/a	n/a	n/a	n/a	-999	24	[0, 0, 0]	n/a	catFR1	0	R1067P
2531.697	2.417	1893715	WORD	n/a	wordpools/wordpool_categorized_EN.txt	PHONE	Electronics	1	24	[0, 0, 0]	n/a	catFR1	0	R1067P
2534.114	2.517	1894924	WORD	n/a	wordpools/wordpool_categorized_EN.txt	SPEAKER	Electronics	2	24	[0, 0, 0]	n/a	catFR1	0	R1067P
2536.631	2.434	1896182	WORD	n/a	wordpools/wordpool_categorized_EN.txt	CHIMPANZEE	Zoo	3	24	[0, 0, 0]	n/a	catFR1	0	R1067P
2539.065	2.385	1897399	WORD	n/a	wordpools/wordpool_categorized_EN.txt	PANDA	Zoo	4	24	[0, 0, 0]	n/a	catFR1	0	R1067P
2541.45	2.483	1898592	WORD	n/a	wordpools/wordpool_categorized_EN.txt	VIOLET	Flowers	5	24	[0, 0, 0]	n/a	catFR1	0	R1067P
2543.933	2.451	1899833	WORD	n/a	wordpools/wordpool_categorized_EN.txt	SUNFLOWER	Flowers	6	24	[0, 0, 0]	n/a	catFR1	0	R1067P
2546.384	2.483	1901059	WORD	n/a	wordpools/wordpool_categorized_EN.txt	HEADPHONES	Electronics	7	24	[0, 0, 0]	n/a	catFR1	0	R1067P
2548.867	2.451	1902300	WORD	n/a	wordpools/wordpool_categorized_EN.txt	RADIO	Electronics	8	24	[0, 0, 0]	n/a	catFR1	0	R1067P
2551.318	2.45	1903525	WORD	n/a	wordpools/wordpool_categorized_EN.txt	LILY	Flowers	9	24	[0, 0, 0]	n/a	catFR1	0	R1067P
2553.768	2.417	1904750	WORD	n/a	wordpools/wordpool_categorized_EN.txt	ROSE	Flowers	10	24	[0, 0, 0]	n/a	catFR1	0	R1067P
2556.185	2.517	1905959	WORD	n/a	wordpools/wordpool_categorized_EN.txt	MONKEY	Zoo	11	24	[0, 0, 0]	n/a	catFR1	0	R1067P
2558.702	1.618	1907217	WORD	n/a	wordpools/wordpool_categorized_EN.txt	TIGER	Zoo	12	24	[0, 0, 0]	n/a	catFR1	0	R1067P
2560.32	0.001	1908026	DISTRACT_START	n/a	n/a	n/a	n/a	-999	24	[0, 0, 0]	n/a	catFR1	0	R1067P
2560.321	0.016	1908027	START	n/a	n/a	n/a	n/a	-999	24	[-999, -999, -999]	n/a	catFR1	0	R1067P
2560.337	14.268	1908035	PROB	14.268	n/a	n/a	n/a	-999	24	[7, 9, 8]	24	catFR1	0	R1067P
2574.605	4.051	1915168	PROB	4.051	n/a	n/a	n/a	-999	24	[8, 5, 5]	18	catFR1	0	R1067P
2578.656	2.795	1917194	PROB	2.795	n/a	n/a	n/a	-999	24	[2, 2, 8]	12	catFR1	0	R1067P
2581.451	0.006	1918591	STOP	n/a	n/a	n/a	n/a	-999	24	[-999, -999, -999]	n/a	catFR1	0	R1067P
2581.457	1.133	1918594	DISTRACT_END	n/a	n/a	n/a	n/a	-999	24	[0, 0, 0]	n/a	catFR1	0	R1067P
2582.59	3.33	1919161	REC_START	n/a	n/a	n/a	n/a	-999	24	[0, 0, 0]	n/a	catFR1	0	R1067P
2585.92	6.154	1920826	REC_WORD_VV	6.154	n/a	<>	n/a	-999	24	[0, 0, 0]	n/a	catFR1	0	R1067P
2592.074	8.052	1923902	REC_WORD	8.052	n/a	LILAC	n/a	-999	24	[0, 0, 0]	n/a	catFR1	0	R1067P
2600.126	1.0	1927928	REC_WORD_VV	1.0	n/a	<>	n/a	-999	24	[0, 0, 0]	n/a	catFR1	0	R1067P
2601.126	11.479	1928428	REC_WORD_VV	11.479	n/a	<>	n/a	-999	24	[0, 0, 0]	n/a	catFR1	0	R1067P
2612.605	4.975	1934167	REC_END	n/a	n/a	n/a	n/a	-999	24	[0, 0, 0]	n/a	catFR1	0	R1067P
2617.58	0.0	1936655	TRIAL	n/a	n/a	n/a	n/a	-999	25	[0, 0, 0]	n/a	catFR1	0	R1067P
2617.58	10.428	1936655	COUNTDOWN_START	n/a	n/a	n/a	n/a	-999	25	[0, 0, 0]	n/a	catFR1	0	R1067P
2628.008	0.007	1941869	COUNTDOWN_END	n/a	n/a	n/a	n/a	-999	25	[0, 0, 0]	n/a	catFR1	0	R1067P
2628.015	4.001	1941872	ORIENT	n/a	n/a	n/a	n/a	-999	25	[0, 0, 0]	n/a	catFR1	0	R1067P
2632.016	2.5	1943872	WORD	n/a	wordpools/wordpool_categorized_EN.txt	STEREO	Electronics	1	25	[0, 0, 0]	n/a	catFR1	0	R1067P
2634.516	2.417	1945122	WORD	n/a	wordpools/wordpool_categorized_EN.txt	PRINTER	Electronics	2	25	[0, 0, 0]	n/a	catFR1	0	R1067P
2636.933	2.468	1946331	WORD	n/a	wordpools/wordpool_categorized_EN.txt	CLOUD	Weather	3	25	[0, 0, 0]	n/a	catFR1	0	R1067P
2639.401	2.5	1947565	WORD	n/a	wordpools/wordpool_categorized_EN.txt	FOG	Weather	4	25	[0, 0, 0]	n/a	catFR1	0	R1067P
2641.901	2.385	1948815	WORD	n/a	wordpools/wordpool_categorized_EN.txt	WALL	Building	5	25	[0, 0, 0]	n/a	catFR1	0	R1067P
2644.286	2.416	1950007	WORD	n/a	wordpools/wordpool_categorized_EN.txt	FOUNDATION	Building	6	25	[0, 0, 0]	n/a	catFR1	0	R1067P
2646.702	2.484	1951215	WORD	n/a	wordpools/wordpool_categorized_EN.txt	LIGHTNING	Weather	7	25	[0, 0, 0]	n/a	catFR1	0	R1067P
2649.186	2.5	1952457	WORD	n/a	wordpools/wordpool_categorized_EN.txt	THUNDERSTORM	Weather	8	25	[0, 0, 0]	n/a	catFR1	0	R1067P
2651.686	2.501	1953707	WORD	n/a	wordpools/wordpool_categorized_EN.txt	CALCULATOR	Electronics	9	25	[0, 0, 0]	n/a	catFR1	0	R1067P
2654.187	2.417	1954957	WORD	n/a	wordpools/wordpool_categorized_EN.txt	SCANNER	Electronics	10	25	[0, 0, 0]	n/a	catFR1	0	R1067P
2656.604	2.483	1956166	WORD	n/a	wordpools/wordpool_categorized_EN.txt	ROOM	Building	11	25	[0, 0, 0]	n/a	catFR1	0	R1067P
2659.087	1.617	1957407	WORD	n/a	wordpools/wordpool_categorized_EN.txt	STAIRS	Building	12	25	[0, 0, 0]	n/a	catFR1	0	R1067P
2660.704	0.001	1958216	DISTRACT_START	n/a	n/a	n/a	n/a	-999	25	[0, 0, 0]	n/a	catFR1	0	R1067P
2660.705	0.016	1958216	START	n/a	n/a	n/a	n/a	-999	25	[-999, -999, -999]	n/a	catFR1	0	R1067P
2660.721	4.434	1958224	PROB	4.434	n/a	n/a	n/a	-999	25	[3, 2, 9]	14	catFR1	0	R1067P
2665.155	4.418	1960441	PROB	4.418	n/a	n/a	n/a	-999	25	[4, 4, 8]	16	catFR1	0	R1067P
2669.573	3.634	1962650	PROB	3.634	n/a	n/a	n/a	-999	25	[6, 7, 4]	17	catFR1	0	R1067P
2673.207	4.601	1964467	PROB	4.601	n/a	n/a	n/a	-999	25	[5, 1, 7]	13	catFR1	0	R1067P
2677.808	3.955	1966767	PROB	3.955	n/a	n/a	n/a	-999	25	[6, 2, 7]	15	catFR1	0	R1067P
2681.763	0.012	1968745	STOP	n/a	n/a	n/a	n/a	-999	25	[-999, -999, -999]	n/a	catFR1	0	R1067P
2681.775	1.084	1968751	DISTRACT_END	n/a	n/a	n/a	n/a	-999	25	[0, 0, 0]	n/a	catFR1	0	R1067P
2682.859	1.816	1969293	REC_START	n/a	n/a	n/a	n/a	-999	25	[0, 0, 0]	n/a	catFR1	0	R1067P
2684.675	0.434	1970201	REC_WORD_VV	0.434	n/a	<>	n/a	-999	25	[0, 0, 0]	n/a	catFR1	0	R1067P
2685.109	0.743	1970418	REC_WORD	0.743	n/a	SCANNER	Electronics	10	25	[0, 0, 0]	n/a	catFR1	0	R1067P
2685.852	0.257	1970789	REC_WORD_VV	0.257	n/a	<>	n/a	-999	25	[0, 0, 0]	n/a	catFR1	0	R1067P
2686.109	5.095	1970918	REC_WORD	5.095	n/a	THUNDERSTORM	Weather	8	25	[0, 0, 0]	n/a	catFR1	0	R1067P
2691.204	0.215	1973465	REC_WORD_VV	0.215	n/a	<>	n/a	-999	25	[0, 0, 0]	n/a	catFR1	0	R1067P
2691.419	1.89	1973573	REC_WORD	1.89	n/a	FOG	Weather	4	25	[0, 0, 0]	n/a	catFR1	0	R1067P
2693.309	1.0	1974517	REC_WORD_VV	1.0	n/a	<>	n/a	-999	25	[0, 0, 0]	n/a	catFR1	0	R1067P
2694.309	1.528	1975017	REC_WORD_VV	1.528	n/a	<>	n/a	-999	25	[0, 0, 0]	n/a	catFR1	0	R1067P
2695.837	1.623	1975781	REC_WORD	1.623	n/a	SCANNER	Electronics	10	25	[0, 0, 0]	n/a	catFR1	0	R1067P
2697.46	1.771	1976593	REC_WORD	1.771	n/a	THUNDERSTORM	Weather	8	25	[0, 0, 0]	n/a	catFR1	0	R1067P
2699.231	6.556	1977478	REC_WORD	6.556	n/a	FOG	Weather	4	25	[0, 0, 0]	n/a	catFR1	0	R1067P
2705.787	3.427	1980756	REC_WORD	3.427	n/a	CLOUD	Weather	3	25	[0, 0, 0]	n/a	catFR1	0	R1067P
2709.214	3.66	1982470	REC_WORD_VV	3.66	n/a	<>	n/a	-999	25	[0, 0, 0]	n/a	catFR1	0	R1067P
2712.874	11.577	1984299	REC_END	n/a	n/a	n/a	n/a	-999	25	[0, 0, 0]	n/a	catFR1	0	R1067P
2724.451	0.0	1990088	SESS_END	n/a	n/a	n/a	n/a	-999	25	[0, 0, 0]	n/a	catFR1	0	R1067P
