onset	duration	sample	trial_type	response_time	stim_file	item_name	category	serialpos	list	test	answer	experiment	session	subject
0.0	3.231	13519	INSTRUCT_START	n/a	n/a	n/a	n/a	-999	-999	[0, 0, 0]	n/a	catFR1	0	R1461T
3.231	238.185	16750	INSTRUCT_END	n/a	n/a	n/a	n/a	-999	-999	[0, 0, 0]	n/a	catFR1	0	R1461T
241.416	1.015	22589	INSTRUCT_START	n/a	n/a	n/a	n/a	-999	-999	[0, 0, 0]	n/a	catFR1	0	R1461T
242.431	21.181	23609	INSTRUCT_END	n/a	n/a	n/a	n/a	-999	-999	[0, 0, 0]	n/a	catFR1	0	R1461T
263.612	10.384	44795	COUNTDOWN_START	n/a	n/a	n/a	n/a	-999	-999	[0, 0, 0]	n/a	catFR1	0	R1461T
273.996	0.0	55169	COUNTDOWN_END	n/a	n/a	n/a	n/a	-999	-999	[0, 0, 0]	n/a	catFR1	0	R1461T
273.996	2.034	55169	ENCODING_START	n/a	n/a	n/a	n/a	-999	-1	[0, 0, 0]	n/a	catFR1	0	R1461T
276.03	1.599	57210	WORD	n/a	n/a	TELEFONO	Electronics	1	-1	[0, 0, 0]	n/a	catFR1	0	R1461T
277.629	1.0	58797	WORD_OFF	n/a	n/a	TELEFONO	Electronics	1	-1	[0, 0, 0]	n/a	catFR1	0	R1461T
278.629	1.617	59803	WORD	n/a	n/a	CALCULADORA	Electronics	2	-1	[0, 0, 0]	n/a	catFR1	0	R1461T
280.246	0.983	61418	WORD_OFF	n/a	n/a	CALCULADORA	Electronics	2	-1	[0, 0, 0]	n/a	catFR1	0	R1461T
281.229	1.6	62396	WORD	n/a	n/a	RALLADOR	KitchenTools	3	-1	[0, 0, 0]	n/a	catFR1	0	R1461T
282.829	0.867	63998	WORD_OFF	n/a	n/a	RALLADOR	KitchenTools	3	-1	[0, 0, 0]	n/a	catFR1	0	R1461T
283.696	1.6	64876	WORD	n/a	n/a	CUCHARON	KitchenTools	4	-1	[0, 0, 0]	n/a	catFR1	0	R1461T
285.296	0.783	66463	WORD_OFF	n/a	n/a	CUCHARON	KitchenTools	4	-1	[0, 0, 0]	n/a	catFR1	0	R1461T
286.079	1.6	67257	WORD	n/a	n/a	PASTELILLO	Desserts	5	-1	[0, 0, 0]	n/a	catFR1	0	R1461T
287.679	0.833	68858	WORD_OFF	n/a	n/a	PASTELILLO	Desserts	5	-1	[0, 0, 0]	n/a	catFR1	0	R1461T
288.512	1.617	69680	WORD	n/a	n/a	PAY	Desserts	6	-1	[0, 0, 0]	n/a	catFR1	0	R1461T
290.129	0.866	71296	WORD_OFF	n/a	n/a	PAY	Desserts	6	-1	[0, 0, 0]	n/a	catFR1	0	R1461T
290.995	1.601	72175	WORD	n/a	n/a	ESCURRIDOR	KitchenTools	7	-1	[0, 0, 0]	n/a	catFR1	0	R1461T
292.596	0.817	73762	WORD_OFF	n/a	n/a	ESCURRIDOR	KitchenTools	7	-1	[0, 0, 0]	n/a	catFR1	0	R1461T
293.413	1.615	74584	WORD	n/a	n/a	TENAZAS	KitchenTools	8	-1	[0, 0, 0]	n/a	catFR1	0	R1461T
295.028	0.851	76199	WORD_OFF	n/a	n/a	TENAZAS	KitchenTools	8	-1	[0, 0, 0]	n/a	catFR1	0	R1461T
295.879	1.617	77050	WORD	n/a	n/a	MOUSSE	Desserts	9	-1	[0, 0, 0]	n/a	catFR1	0	R1461T
297.496	0.9	78665	WORD_OFF	n/a	n/a	MOUSSE	Desserts	9	-1	[0, 0, 0]	n/a	catFR1	0	R1461T
298.396	1.616	79572	WORD	n/a	n/a	GALLETA	Desserts	10	-1	[0, 0, 0]	n/a	catFR1	0	R1461T
300.012	0.85	81188	WORD_OFF	n/a	n/a	GALLETA	Desserts	10	-1	[0, 0, 0]	n/a	catFR1	0	R1461T
300.862	1.6	82038	WORD	n/a	n/a	TABLETA	Electronics	11	-1	[0, 0, 0]	n/a	catFR1	0	R1461T
302.462	0.783	83639	WORD_OFF	n/a	n/a	TABLETA	Electronics	11	-1	[0, 0, 0]	n/a	catFR1	0	R1461T
303.245	1.617	84419	WORD	n/a	n/a	PARLANTE	Electronics	12	-1	[0, 0, 0]	n/a	catFR1	0	R1461T
304.862	0.002	86034	WORD_OFF	n/a	n/a	PARLANTE	Electronics	12	-1	[0, 0, 0]	n/a	catFR1	0	R1461T
304.864	0.0	86034	ENCODING_END	n/a	n/a	n/a	n/a	-999	-1	[0, 0, 0]	n/a	catFR1	0	R1461T
304.864	0.0	86034	DISTRACT_START	n/a	n/a	n/a	n/a	-999	-1	[0, 0, 0]	n/a	catFR1	0	R1461T
304.864	0.001	86035	START	n/a	n/a	n/a	n/a	-999	-1	[-999, -999, -999]	n/a	catFR1	0	R1461T
304.865	16.364	86036	PROB	16.364	n/a	n/a	n/a	-999	-1	[5, 7, 5]	575	catFR1	0	R1461T
321.229	18.467	102400	PROB	18.467	n/a	n/a	n/a	-999	-1	[6, 6, 5]	665	catFR1	0	R1461T
339.696	0.0	120866	STOP	n/a	n/a	n/a	n/a	-999	-1	[-999, -999, -999]	n/a	catFR1	0	R1461T
339.696	1.217	120868	DISTRACT_END	n/a	n/a	n/a	n/a	-999	-1	[0, 0, 0]	n/a	catFR1	0	R1461T
340.913	1.728	122086	REC_START	n/a	n/a	n/a	n/a	-999	-1	[0, 0, 0]	n/a	catFR1	0	R1461T
342.641	2.66	123810	REC_WORD	2.66	n/a	CALCULADORA	Electronics	2	-1	[0, 0, 0]	n/a	catFR1	0	R1461T
345.301	1.0	126470	REC_WORD_VV	1.0	n/a	<>	n/a	-999	-1	[0, 0, 0]	n/a	catFR1	0	R1461T
346.301	3.054	127470	REC_WORD_VV	3.054	n/a	<>	n/a	-999	-1	[0, 0, 0]	n/a	catFR1	0	R1461T
349.355	5.426	130524	REC_WORD	5.426	n/a	CALCULADORA	Electronics	2	-1	[0, 0, 0]	n/a	catFR1	0	R1461T
354.781	11.244	135950	REC_WORD_VV	11.244	n/a	<>	n/a	-999	-1	[0, 0, 0]	n/a	catFR1	0	R1461T
366.025	6.09	147193	REC_WORD_VV	6.09	n/a	<>	n/a	-999	-1	[0, 0, 0]	n/a	catFR1	0	R1461T
372.115	15.081	153278	REC_END	n/a	n/a	n/a	n/a	-999	-1	[0, 0, 0]	n/a	catFR1	0	R1461T
387.196	10.35	168370	COUNTDOWN_START	n/a	n/a	n/a	n/a	-999	1	[0, 0, 0]	n/a	catFR1	0	R1461T
397.546	0.0	178715	COUNTDOWN_END	n/a	n/a	n/a	n/a	-999	1	[0, 0, 0]	n/a	catFR1	0	R1461T
397.546	1.9	178715	ENCODING_START	n/a	n/a	n/a	n/a	-999	1	[0, 0, 0]	n/a	catFR1	0	R1461T
399.446	1.617	180614	WORD	n/a	wordpools/wordpool_categorized_SP.txt	GRAPADORA	OfficeSupplies	1	1	[0, 0, 0]	n/a	catFR1	0	R1461T
401.063	0.966	182230	WORD_OFF	n/a	n/a	GRAPADORA	OfficeSupplies	1	1	[0, 0, 0]	n/a	catFR1	0	R1461T
402.029	1.6	183193	WORD	n/a	wordpools/wordpool_categorized_SP.txt	ENCUADERNADO	OfficeSupplies	2	1	[0, 0, 0]	n/a	catFR1	0	R1461T
403.629	0.784	184795	WORD_OFF	n/a	n/a	ENCUADERNADO	OfficeSupplies	2	1	[0, 0, 0]	n/a	catFR1	0	R1461T
404.413	1.616	185574	WORD	n/a	wordpools/wordpool_categorized_SP.txt	LECHUGA	Vegetables	3	1	[0, 0, 0]	n/a	catFR1	0	R1461T
406.029	0.833	187190	WORD_OFF	n/a	n/a	LECHUGA	Vegetables	3	1	[0, 0, 0]	n/a	catFR1	0	R1461T
406.862	1.601	188026	WORD	n/a	wordpools/wordpool_categorized_SP.txt	MAIZ	Vegetables	4	1	[0, 0, 0]	n/a	catFR1	0	R1461T
408.463	0.766	189627	WORD_OFF	n/a	n/a	MAIZ	Vegetables	4	1	[0, 0, 0]	n/a	catFR1	0	R1461T
409.229	1.617	190392	WORD	n/a	wordpools/wordpool_categorized_SP.txt	CODO	BodyParts	5	1	[0, 0, 0]	n/a	catFR1	0	R1461T
410.846	0.817	192008	WORD_OFF	n/a	n/a	CODO	BodyParts	5	1	[0, 0, 0]	n/a	catFR1	0	R1461T
411.663	1.616	192830	WORD	n/a	wordpools/wordpool_categorized_SP.txt	PIE	BodyParts	6	1	[0, 0, 0]	n/a	catFR1	0	R1461T
413.279	0.834	194446	WORD_OFF	n/a	n/a	PIE	BodyParts	6	1	[0, 0, 0]	n/a	catFR1	0	R1461T
414.113	1.616	195282	WORD	n/a	wordpools/wordpool_categorized_SP.txt	PEGAMENTO	OfficeSupplies	7	1	[0, 0, 0]	n/a	catFR1	0	R1461T
415.729	0.933	196897	WORD_OFF	n/a	n/a	PEGAMENTO	OfficeSupplies	7	1	[0, 0, 0]	n/a	catFR1	0	R1461T
416.662	1.601	197832	WORD	n/a	wordpools/wordpool_categorized_SP.txt	BORRADOR	OfficeSupplies	8	1	[0, 0, 0]	n/a	catFR1	0	R1461T
418.263	0.816	199434	WORD_OFF	n/a	n/a	BORRADOR	OfficeSupplies	8	1	[0, 0, 0]	n/a	catFR1	0	R1461T
419.079	1.617	200242	WORD	n/a	wordpools/wordpool_categorized_SP.txt	BRAZO	BodyParts	9	1	[0, 0, 0]	n/a	catFR1	0	R1461T
420.696	0.9	201857	WORD_OFF	n/a	n/a	BRAZO	BodyParts	9	1	[0, 0, 0]	n/a	catFR1	0	R1461T
421.596	1.616	202764	WORD	n/a	wordpools/wordpool_categorized_SP.txt	PIERNA	BodyParts	10	1	[0, 0, 0]	n/a	catFR1	0	R1461T
423.212	0.901	204380	WORD_OFF	n/a	n/a	PIERNA	BodyParts	10	1	[0, 0, 0]	n/a	catFR1	0	R1461T
424.113	1.6	205272	WORD	n/a	wordpools/wordpool_categorized_SP.txt	ARVEJA	Vegetables	11	1	[0, 0, 0]	n/a	catFR1	0	R1461T
425.713	0.766	206874	WORD_OFF	n/a	n/a	ARVEJA	Vegetables	11	1	[0, 0, 0]	n/a	catFR1	0	R1461T
426.479	1.6	207639	WORD	n/a	wordpools/wordpool_categorized_SP.txt	COLIFLOR	Vegetables	12	1	[0, 0, 0]	n/a	catFR1	0	R1461T
428.079	0.002	209240	WORD_OFF	n/a	n/a	COLIFLOR	Vegetables	12	1	[0, 0, 0]	n/a	catFR1	0	R1461T
428.081	0.0	209240	ENCODING_END	n/a	n/a	n/a	n/a	-999	1	[0, 0, 0]	n/a	catFR1	0	R1461T
428.08	0.001	209245	PROB	0.001	n/a	n/a	n/a	-999	1	[5, 1, 3]	513	catFR1	0	R1461T
428.081	0.0	209246	START	n/a	n/a	n/a	n/a	-999	1	[-999, -999, -999]	n/a	catFR1	0	R1461T
428.081	31.065	209255	DISTRACT_START	n/a	n/a	n/a	n/a	-999	1	[0, 0, 0]	n/a	catFR1	0	R1461T
459.146	0.0	240304	DISTRACT_END	n/a	n/a	n/a	n/a	-999	1	[0, 0, 0]	n/a	catFR1	0	R1461T
459.146	1.316	240309	STOP	n/a	n/a	n/a	n/a	-999	1	[-999, -999, -999]	n/a	catFR1	0	R1461T
460.462	2.474	241622	REC_START	n/a	n/a	n/a	n/a	-999	1	[0, 0, 0]	n/a	catFR1	0	R1461T
462.936	1.825	244099	REC_WORD_VV	1.825	n/a	<>	n/a	-999	1	[0, 0, 0]	n/a	catFR1	0	R1461T
464.761	0.972	245924	REC_WORD	0.972	n/a	CALCULADORA	Electronics	-999	1	[0, 0, 0]	n/a	catFR1	0	R1461T
465.733	4.858	246896	REC_WORD_VV	4.858	n/a	<>	n/a	-999	1	[0, 0, 0]	n/a	catFR1	0	R1461T
470.591	3.021	251754	REC_WORD_VV	3.021	n/a	<>	n/a	-999	1	[0, 0, 0]	n/a	catFR1	0	R1461T
473.612	18.05	254775	REC_WORD_VV	18.05	n/a	<>	n/a	-999	1	[0, 0, 0]	n/a	catFR1	0	R1461T
491.662	7.151	272828	REC_END	n/a	n/a	n/a	n/a	-999	1	[0, 0, 0]	n/a	catFR1	0	R1461T
498.813	10.35	279984	COUNTDOWN_START	n/a	n/a	n/a	n/a	-999	1	[0, 0, 0]	n/a	catFR1	0	R1461T
509.163	0.0	290329	COUNTDOWN_END	n/a	n/a	n/a	n/a	-999	1	[0, 0, 0]	n/a	catFR1	0	R1461T
509.163	1.9	290329	ENCODING_START	n/a	n/a	n/a	n/a	-999	2	[0, 0, 0]	n/a	catFR1	0	R1461T
511.063	1.616	292228	WORD	n/a	wordpools/wordpool_categorized_SP.txt	VIOLETA	Flowers	1	2	[0, 0, 0]	n/a	catFR1	0	R1461T
512.679	0.884	293844	WORD_OFF	n/a	n/a	VIOLETA	Flowers	1	2	[0, 0, 0]	n/a	catFR1	0	R1461T
513.563	1.616	294722	WORD	n/a	wordpools/wordpool_categorized_SP.txt	TULIPAN	Flowers	2	2	[0, 0, 0]	n/a	catFR1	0	R1461T
515.179	0.916	296338	WORD_OFF	n/a	n/a	TULIPAN	Flowers	2	2	[0, 0, 0]	n/a	catFR1	0	R1461T
516.095	1.601	297259	WORD	n/a	wordpools/wordpool_categorized_SP.txt	LAGO	Landscapes	3	2	[0, 0, 0]	n/a	catFR1	0	R1461T
517.696	0.833	298861	WORD_OFF	n/a	n/a	LAGO	Landscapes	3	2	[0, 0, 0]	n/a	catFR1	0	R1461T
518.529	1.617	299697	WORD	n/a	wordpools/wordpool_categorized_SP.txt	ISLA	Landscapes	4	2	[0, 0, 0]	n/a	catFR1	0	R1461T
520.146	0.982	301312	WORD_OFF	n/a	n/a	ISLA	Landscapes	4	2	[0, 0, 0]	n/a	catFR1	0	R1461T
521.128	1.601	302290	WORD	n/a	wordpools/wordpool_categorized_SP.txt	SACO	Clothing	5	2	[0, 0, 0]	n/a	catFR1	0	R1461T
522.729	1.0	303891	WORD_OFF	n/a	n/a	SACO	Clothing	5	2	[0, 0, 0]	n/a	catFR1	0	R1461T
523.729	1.6	304883	WORD	n/a	wordpools/wordpool_categorized_SP.txt	CALZON	Clothing	6	2	[0, 0, 0]	n/a	catFR1	0	R1461T
525.329	0.833	306485	WORD_OFF	n/a	n/a	CALZON	Clothing	6	2	[0, 0, 0]	n/a	catFR1	0	R1461T
526.162	1.616	307321	WORD	n/a	wordpools/wordpool_categorized_SP.txt	LILA	Flowers	7	2	[0, 0, 0]	n/a	catFR1	0	R1461T
527.778	0.851	308936	WORD_OFF	n/a	n/a	LILA	Flowers	7	2	[0, 0, 0]	n/a	catFR1	0	R1461T
528.629	1.6	309787	WORD	n/a	wordpools/wordpool_categorized_SP.txt	ROSA	Flowers	8	2	[0, 0, 0]	n/a	catFR1	0	R1461T
530.229	0.9	311388	WORD_OFF	n/a	n/a	ROSA	Flowers	8	2	[0, 0, 0]	n/a	catFR1	0	R1461T
531.129	1.6	312295	WORD	n/a	wordpools/wordpool_categorized_SP.txt	MAR	Landscapes	9	2	[0, 0, 0]	n/a	catFR1	0	R1461T
532.729	0.767	313896	WORD_OFF	n/a	n/a	MAR	Landscapes	9	2	[0, 0, 0]	n/a	catFR1	0	R1461T
533.496	1.6	314662	WORD	n/a	wordpools/wordpool_categorized_SP.txt	ARROYO	Landscapes	10	2	[0, 0, 0]	n/a	catFR1	0	R1461T
535.096	0.832	316263	WORD_OFF	n/a	n/a	ARROYO	Landscapes	10	2	[0, 0, 0]	n/a	catFR1	0	R1461T
535.928	1.601	317085	WORD	n/a	wordpools/wordpool_categorized_SP.txt	CHAQUETA	Clothing	11	2	[0, 0, 0]	n/a	catFR1	0	R1461T
537.529	0.984	318686	WORD_OFF	n/a	n/a	CHAQUETA	Clothing	11	2	[0, 0, 0]	n/a	catFR1	0	R1461T
538.513	1.617	319678	WORD	n/a	wordpools/wordpool_categorized_SP.txt	PANTALONES	Clothing	12	2	[0, 0, 0]	n/a	catFR1	0	R1461T
540.13	0.003	321289	START	n/a	n/a	n/a	n/a	-999	2	[-999, -999, -999]	n/a	catFR1	0	R1461T
540.133	0.0	321292	PROB	0.0	n/a	n/a	n/a	-999	2	[2, 3, 4]	234	catFR1	0	R1461T
540.128	0.002	321294	WORD_OFF	n/a	n/a	PANTALONES	Clothing	12	2	[0, 0, 0]	n/a	catFR1	0	R1461T
540.13	0.0	321294	ENCODING_END	n/a	n/a	n/a	n/a	-999	2	[0, 0, 0]	n/a	catFR1	0	R1461T
540.13	37.481	321294	DISTRACT_START	n/a	n/a	n/a	n/a	-999	2	[0, 0, 0]	n/a	catFR1	0	R1461T
577.611	0.0	358763	DISTRACT_END	n/a	n/a	n/a	n/a	-999	2	[0, 0, 0]	n/a	catFR1	0	R1461T
577.611	1.268	358768	STOP	n/a	n/a	n/a	n/a	-999	2	[-999, -999, -999]	n/a	catFR1	0	R1461T
578.879	0.214	360039	REC_START	n/a	n/a	n/a	n/a	-999	2	[0, 0, 0]	n/a	catFR1	0	R1461T
579.093	0.491	360250	REC_WORD_VV	0.491	n/a	<>	n/a	-999	2	[0, 0, 0]	n/a	catFR1	0	R1461T
579.584	2.136	360741	REC_WORD	2.136	n/a	COQUETTA	n/a	-999	2	[0, 0, 0]	n/a	catFR1	0	R1461T
581.72	4.417	362877	REC_WORD_VV	4.417	n/a	<>	n/a	-999	2	[0, 0, 0]	n/a	catFR1	0	R1461T
586.137	12.497	367294	REC_WORD	12.497	n/a	TACO	n/a	-999	2	[0, 0, 0]	n/a	catFR1	0	R1461T
598.634	11.463	379790	REC_WORD	11.463	n/a	TAPIA	n/a	-999	2	[0, 0, 0]	n/a	catFR1	0	R1461T
610.097	8.366	391258	REC_END	n/a	n/a	n/a	n/a	-999	2	[0, 0, 0]	n/a	catFR1	0	R1461T
618.463	10.35	399619	COUNTDOWN_START	n/a	n/a	n/a	n/a	-999	2	[0, 0, 0]	n/a	catFR1	0	R1461T
628.813	0.0	409964	COUNTDOWN_END	n/a	n/a	n/a	n/a	-999	2	[0, 0, 0]	n/a	catFR1	0	R1461T
628.813	2.183	409964	ENCODING_START	n/a	n/a	n/a	n/a	-999	3	[0, 0, 0]	n/a	catFR1	0	R1461T
630.996	1.616	412147	WORD	n/a	wordpools/wordpool_categorized_SP.txt	REGLA	OfficeSupplies	1	3	[0, 0, 0]	n/a	catFR1	0	R1461T
632.612	0.851	413762	WORD_OFF	n/a	n/a	REGLA	OfficeSupplies	1	3	[0, 0, 0]	n/a	catFR1	0	R1461T
633.463	1.616	414613	WORD	n/a	wordpools/wordpool_categorized_SP.txt	CARPETA	OfficeSupplies	2	3	[0, 0, 0]	n/a	catFR1	0	R1461T
635.079	0.95	416228	WORD_OFF	n/a	n/a	CARPETA	OfficeSupplies	2	3	[0, 0, 0]	n/a	catFR1	0	R1461T
636.029	1.617	417178	WORD	n/a	wordpools/wordpool_categorized_SP.txt	ABETO	Trees	3	3	[0, 0, 0]	n/a	catFR1	0	R1461T
637.646	0.882	418807	WORD_OFF	n/a	n/a	ABETO	Trees	3	3	[0, 0, 0]	n/a	catFR1	0	R1461T
638.528	1.618	419686	WORD	n/a	wordpools/wordpool_categorized_SP.txt	SAUCE	Trees	4	3	[0, 0, 0]	n/a	catFR1	0	R1461T
640.146	0.815	421302	WORD_OFF	n/a	n/a	SAUCE	Trees	4	3	[0, 0, 0]	n/a	catFR1	0	R1461T
640.961	1.601	422109	WORD	n/a	wordpools/wordpool_categorized_SP.txt	FALDA	Clothing	5	3	[0, 0, 0]	n/a	catFR1	0	R1461T
642.562	0.783	423711	WORD_OFF	n/a	n/a	FALDA	Clothing	5	3	[0, 0, 0]	n/a	catFR1	0	R1461T
643.345	1.601	424504	WORD	n/a	wordpools/wordpool_categorized_SP.txt	BLUSA	Clothing	6	3	[0, 0, 0]	n/a	catFR1	0	R1461T
644.946	0.817	426106	WORD_OFF	n/a	n/a	BLUSA	Clothing	6	3	[0, 0, 0]	n/a	catFR1	0	R1461T
645.763	1.6	426913	WORD	n/a	wordpools/wordpool_categorized_SP.txt	ABEDUL	Trees	7	3	[0, 0, 0]	n/a	catFR1	0	R1461T
647.363	0.966	428515	WORD_OFF	n/a	n/a	ABEDUL	Trees	7	3	[0, 0, 0]	n/a	catFR1	0	R1461T
648.329	1.617	429478	WORD	n/a	wordpools/wordpool_categorized_SP.txt	OLMO	Trees	8	3	[0, 0, 0]	n/a	catFR1	0	R1461T
649.946	0.866	431094	WORD_OFF	n/a	n/a	OLMO	Trees	8	3	[0, 0, 0]	n/a	catFR1	0	R1461T
650.812	1.601	431973	WORD	n/a	wordpools/wordpool_categorized_SP.txt	JEANS	Clothing	9	3	[0, 0, 0]	n/a	catFR1	0	R1461T
652.413	0.999	433560	WORD_OFF	n/a	n/a	JEANS	Clothing	9	3	[0, 0, 0]	n/a	catFR1	0	R1461T
653.412	1.601	434566	WORD	n/a	wordpools/wordpool_categorized_SP.txt	ZAPATOS	Clothing	10	3	[0, 0, 0]	n/a	catFR1	0	R1461T
655.013	0.783	436167	WORD_OFF	n/a	n/a	ZAPATOS	Clothing	10	3	[0, 0, 0]	n/a	catFR1	0	R1461T
655.796	1.616	436947	WORD	n/a	wordpools/wordpool_categorized_SP.txt	BOLIGRAFO	OfficeSupplies	11	3	[0, 0, 0]	n/a	catFR1	0	R1461T
657.412	0.834	438562	WORD_OFF	n/a	n/a	BOLIGRAFO	OfficeSupplies	11	3	[0, 0, 0]	n/a	catFR1	0	R1461T
658.246	1.6	439398	WORD	n/a	wordpools/wordpool_categorized_SP.txt	CINTA	OfficeSupplies	12	3	[0, 0, 0]	n/a	catFR1	0	R1461T
659.846	0.0	440999	PROB	0.0	n/a	n/a	n/a	-999	3	[8, 5, 3]	853	catFR1	0	R1461T
659.846	0.001	441000	WORD_OFF	n/a	n/a	CINTA	OfficeSupplies	12	3	[0, 0, 0]	n/a	catFR1	0	R1461T
659.847	0.0	441000	ENCODING_END	n/a	n/a	n/a	n/a	-999	3	[0, 0, 0]	n/a	catFR1	0	R1461T
659.847	0.0	441000	DISTRACT_START	n/a	n/a	n/a	n/a	-999	3	[0, 0, 0]	n/a	catFR1	0	R1461T
659.847	15.198	441000	START	n/a	n/a	n/a	n/a	-999	3	[-999, -999, -999]	n/a	catFR1	0	R1461T
675.045	14.45	456197	PROB	14.45	n/a	n/a	n/a	-999	3	[2, 1, 5]	215	catFR1	0	R1461T
689.495	0.0	470646	DISTRACT_END	n/a	n/a	n/a	n/a	-999	3	[0, 0, 0]	n/a	catFR1	0	R1461T
689.495	1.25	470647	STOP	n/a	n/a	n/a	n/a	-999	3	[-999, -999, -999]	n/a	catFR1	0	R1461T
690.745	6.361	471894	REC_START	n/a	n/a	n/a	n/a	-999	3	[0, 0, 0]	n/a	catFR1	0	R1461T
697.106	2.519	478257	REC_WORD_VV	2.519	n/a	<>	n/a	-999	3	[0, 0, 0]	n/a	catFR1	0	R1461T
699.625	3.531	480776	REC_WORD	3.531	n/a	TAPIA	n/a	-999	3	[0, 0, 0]	n/a	catFR1	0	R1461T
703.156	6.393	484307	REC_WORD_VV	6.393	n/a	<>	n/a	-999	3	[0, 0, 0]	n/a	catFR1	0	R1461T
709.549	5.364	490700	REC_WORD	5.364	n/a	BOL	n/a	-999	3	[0, 0, 0]	n/a	catFR1	0	R1461T
714.913	7.03	496063	REC_WORD_VV	7.03	n/a	<>	n/a	-999	3	[0, 0, 0]	n/a	catFR1	0	R1461T
721.943	8.952	503099	REC_END	n/a	n/a	n/a	n/a	-999	3	[0, 0, 0]	n/a	catFR1	0	R1461T
730.895	10.351	512041	COUNTDOWN_START	n/a	n/a	n/a	n/a	-999	3	[0, 0, 0]	n/a	catFR1	0	R1461T
741.246	0.0	522400	COUNTDOWN_END	n/a	n/a	n/a	n/a	-999	3	[0, 0, 0]	n/a	catFR1	0	R1461T
741.246	2.35	522400	ENCODING_START	n/a	n/a	n/a	n/a	-999	4	[0, 0, 0]	n/a	catFR1	0	R1461T
743.596	1.616	524739	WORD	n/a	wordpools/wordpool_categorized_SP.txt	LAPIZ	OfficeSupplies	1	4	[0, 0, 0]	n/a	catFR1	0	R1461T
745.212	0.867	526354	WORD_OFF	n/a	n/a	LAPIZ	OfficeSupplies	1	4	[0, 0, 0]	n/a	catFR1	0	R1461T
746.079	1.6	527233	WORD	n/a	wordpools/wordpool_categorized_SP.txt	LIBRETA	OfficeSupplies	2	4	[0, 0, 0]	n/a	catFR1	0	R1461T
747.679	0.832	528834	WORD_OFF	n/a	n/a	LIBRETA	OfficeSupplies	2	4	[0, 0, 0]	n/a	catFR1	0	R1461T
748.511	1.602	529656	WORD	n/a	wordpools/wordpool_categorized_SP.txt	GANZO	Birds	3	4	[0, 0, 0]	n/a	catFR1	0	R1461T
750.113	0.799	531258	WORD_OFF	n/a	n/a	GANZO	Birds	3	4	[0, 0, 0]	n/a	catFR1	0	R1461T
750.912	1.616	532065	WORD	n/a	wordpools/wordpool_categorized_SP.txt	CUERVO	Birds	4	4	[0, 0, 0]	n/a	catFR1	0	R1461T
752.528	0.917	533681	WORD_OFF	n/a	n/a	CUERVO	Birds	4	4	[0, 0, 0]	n/a	catFR1	0	R1461T
753.445	1.6	534588	WORD	n/a	wordpools/wordpool_categorized_SP.txt	ROBLE	Trees	5	4	[0, 0, 0]	n/a	catFR1	0	R1461T
755.045	0.8	536189	WORD_OFF	n/a	n/a	ROBLE	Trees	5	4	[0, 0, 0]	n/a	catFR1	0	R1461T
755.845	1.6	536997	WORD	n/a	wordpools/wordpool_categorized_SP.txt	ARCE	Trees	6	4	[0, 0, 0]	n/a	catFR1	0	R1461T
757.445	0.95	538598	WORD_OFF	n/a	n/a	ARCE	Trees	6	4	[0, 0, 0]	n/a	catFR1	0	R1461T
758.395	1.601	539548	WORD	n/a	wordpools/wordpool_categorized_SP.txt	MARCADOR	OfficeSupplies	7	4	[0, 0, 0]	n/a	catFR1	0	R1461T
759.996	0.949	541149	WORD_OFF	n/a	n/a	MARCADOR	OfficeSupplies	7	4	[0, 0, 0]	n/a	catFR1	0	R1461T
760.945	1.6	542099	WORD	n/a	wordpools/wordpool_categorized_SP.txt	PAPEL	OfficeSupplies	8	4	[0, 0, 0]	n/a	catFR1	0	R1461T
762.545	0.934	543700	WORD_OFF	n/a	n/a	PAPEL	OfficeSupplies	8	4	[0, 0, 0]	n/a	catFR1	0	R1461T
763.479	1.617	544621	WORD	n/a	wordpools/wordpool_categorized_SP.txt	PICHON	Birds	9	4	[0, 0, 0]	n/a	catFR1	0	R1461T
765.096	0.816	546237	WORD_OFF	n/a	n/a	PICHON	Birds	9	4	[0, 0, 0]	n/a	catFR1	0	R1461T
765.912	1.6	547059	WORD	n/a	wordpools/wordpool_categorized_SP.txt	GAVIOTA	Birds	10	4	[0, 0, 0]	n/a	catFR1	0	R1461T
767.512	0.8	548660	WORD_OFF	n/a	n/a	GAVIOTA	Birds	10	4	[0, 0, 0]	n/a	catFR1	0	R1461T
768.312	1.6	549454	WORD	n/a	wordpools/wordpool_categorized_SP.txt	CIPRES	Trees	11	4	[0, 0, 0]	n/a	catFR1	0	R1461T
769.912	0.916	551055	WORD_OFF	n/a	n/a	CIPRES	Trees	11	4	[0, 0, 0]	n/a	catFR1	0	R1461T
770.828	1.601	551976	WORD	n/a	wordpools/wordpool_categorized_SP.txt	PERENNE	Trees	12	4	[0, 0, 0]	n/a	catFR1	0	R1461T
772.429	0.0	553576	PROB	0.0	n/a	n/a	n/a	-999	4	[2, 4, 5]	245	catFR1	0	R1461T
772.428	0.004	553578	WORD_OFF	n/a	n/a	PERENNE	Trees	12	4	[0, 0, 0]	n/a	catFR1	0	R1461T
772.432	0.0	553578	ENCODING_END	n/a	n/a	n/a	n/a	-999	4	[0, 0, 0]	n/a	catFR1	0	R1461T
772.432	0.0	553578	DISTRACT_START	n/a	n/a	n/a	n/a	-999	4	[0, 0, 0]	n/a	catFR1	0	R1461T
772.432	12.181	553579	START	n/a	n/a	n/a	n/a	-999	4	[-999, -999, -999]	n/a	catFR1	0	R1461T
784.613	21.716	565760	PROB	21.716	n/a	n/a	n/a	-999	4	[4, 7, 7]	477	catFR1	0	R1461T
806.329	0.0	587475	STOP	n/a	n/a	n/a	n/a	-999	4	[-999, -999, -999]	n/a	catFR1	0	R1461T
806.329	1.133	587476	DISTRACT_END	n/a	n/a	n/a	n/a	-999	4	[0, 0, 0]	n/a	catFR1	0	R1461T
807.462	2.217	588609	REC_START	n/a	n/a	n/a	n/a	-999	4	[0, 0, 0]	n/a	catFR1	0	R1461T
809.679	1.613	590825	REC_WORD	1.613	n/a	LAPIZ	OfficeSupplies	1	4	[0, 0, 0]	n/a	catFR1	0	R1461T
811.292	1.274	592437	REC_WORD_VV	1.274	n/a	<>	n/a	-999	4	[0, 0, 0]	n/a	catFR1	0	R1461T
812.566	26.126	593711	REC_WORD	26.126	n/a	LIBRETA	OfficeSupplies	2	4	[0, 0, 0]	n/a	catFR1	0	R1461T
838.692	8.271	619843	REC_END	n/a	n/a	n/a	n/a	-999	4	[0, 0, 0]	n/a	catFR1	0	R1461T
846.963	10.349	628105	COUNTDOWN_START	n/a	n/a	n/a	n/a	-999	4	[0, 0, 0]	n/a	catFR1	0	R1461T
857.312	0.001	638450	COUNTDOWN_END	n/a	n/a	n/a	n/a	-999	4	[0, 0, 0]	n/a	catFR1	0	R1461T
857.313	2.032	638464	ENCODING_START	n/a	n/a	n/a	n/a	-999	5	[0, 0, 0]	n/a	catFR1	0	R1461T
859.345	1.601	640491	WORD	n/a	wordpools/wordpool_categorized_SP.txt	POLIESTER	Fabric	1	5	[0, 0, 0]	n/a	catFR1	0	R1461T
860.946	0.817	642092	WORD_OFF	n/a	n/a	POLIESTER	Fabric	1	5	[0, 0, 0]	n/a	catFR1	0	R1461T
861.763	1.616	642900	WORD	n/a	wordpools/wordpool_categorized_SP.txt	ALGODON	Fabric	2	5	[0, 0, 0]	n/a	catFR1	0	R1461T
863.379	0.783	644516	WORD_OFF	n/a	n/a	ALGODON	Fabric	2	5	[0, 0, 0]	n/a	catFR1	0	R1461T
864.162	1.6	645309	WORD	n/a	wordpools/wordpool_categorized_SP.txt	VIENTO	Weather	3	5	[0, 0, 0]	n/a	catFR1	0	R1461T
865.762	0.934	646910	WORD_OFF	n/a	n/a	VIENTO	Weather	3	5	[0, 0, 0]	n/a	catFR1	0	R1461T
866.696	1.616	647846	WORD	n/a	wordpools/wordpool_categorized_SP.txt	NIEVE	Weather	4	5	[0, 0, 0]	n/a	catFR1	0	R1461T
868.312	1.0	649461	WORD_OFF	n/a	n/a	NIEVE	Weather	4	5	[0, 0, 0]	n/a	catFR1	0	R1461T
869.312	1.601	650453	WORD	n/a	wordpools/wordpool_categorized_SP.txt	ABEJA	Insects	5	5	[0, 0, 0]	n/a	catFR1	0	R1461T
870.913	0.832	652055	WORD_OFF	n/a	n/a	ABEJA	Insects	5	5	[0, 0, 0]	n/a	catFR1	0	R1461T
871.745	1.6	652891	WORD	n/a	wordpools/wordpool_categorized_SP.txt	ARANA	Insects	6	5	[0, 0, 0]	n/a	catFR1	0	R1461T
873.345	0.801	654492	WORD_OFF	n/a	n/a	ARANA	Insects	6	5	[0, 0, 0]	n/a	catFR1	0	R1461T
874.146	1.616	655286	WORD	n/a	wordpools/wordpool_categorized_SP.txt	TRUENO	Weather	7	5	[0, 0, 0]	n/a	catFR1	0	R1461T
875.762	0.967	656901	WORD_OFF	n/a	n/a	TRUENO	Weather	7	5	[0, 0, 0]	n/a	catFR1	0	R1461T
876.729	1.6	657865	WORD	n/a	wordpools/wordpool_categorized_SP.txt	HUMEDAD	Weather	8	5	[0, 0, 0]	n/a	catFR1	0	R1461T
878.329	0.884	659466	WORD_OFF	n/a	n/a	HUMEDAD	Weather	8	5	[0, 0, 0]	n/a	catFR1	0	R1461T
879.213	1.616	660359	WORD	n/a	wordpools/wordpool_categorized_SP.txt	SPANDEX	Fabric	9	5	[0, 0, 0]	n/a	catFR1	0	R1461T
880.829	0.934	661975	WORD_OFF	n/a	n/a	SPANDEX	Fabric	9	5	[0, 0, 0]	n/a	catFR1	0	R1461T
881.763	1.6	662910	WORD	n/a	wordpools/wordpool_categorized_SP.txt	LINO	Fabric	10	5	[0, 0, 0]	n/a	catFR1	0	R1461T
883.363	0.9	664511	WORD_OFF	n/a	n/a	LINO	Fabric	10	5	[0, 0, 0]	n/a	catFR1	0	R1461T
884.263	1.616	665404	WORD	n/a	wordpools/wordpool_categorized_SP.txt	MARIPOSA	Insects	11	5	[0, 0, 0]	n/a	catFR1	0	R1461T
885.879	0.916	667020	WORD_OFF	n/a	n/a	MARIPOSA	Insects	11	5	[0, 0, 0]	n/a	catFR1	0	R1461T
886.795	1.602	667941	WORD	n/a	wordpools/wordpool_categorized_SP.txt	ESCARABAJO	Insects	12	5	[0, 0, 0]	n/a	catFR1	0	R1461T
888.397	0.001	669539	PROB	0.001	n/a	n/a	n/a	-999	5	[1, 4, 7]	147	catFR1	0	R1461T
888.398	0.0	669540	START	n/a	n/a	n/a	n/a	-999	5	[-999, -999, -999]	n/a	catFR1	0	R1461T
888.396	0.002	669542	WORD_OFF	n/a	n/a	ESCARABAJO	Insects	12	5	[0, 0, 0]	n/a	catFR1	0	R1461T
888.398	0.0	669542	ENCODING_END	n/a	n/a	n/a	n/a	-999	5	[0, 0, 0]	n/a	catFR1	0	R1461T
888.398	13.782	669542	DISTRACT_START	n/a	n/a	n/a	n/a	-999	5	[0, 0, 0]	n/a	catFR1	0	R1461T
902.18	14.816	683321	PROB	14.816	n/a	n/a	n/a	-999	5	[4, 7, 3]	473	catFR1	0	R1461T
916.996	0.0	698136	STOP	n/a	n/a	n/a	n/a	-999	5	[-999, -999, -999]	n/a	catFR1	0	R1461T
916.996	1.382	698140	DISTRACT_END	n/a	n/a	n/a	n/a	-999	5	[0, 0, 0]	n/a	catFR1	0	R1461T
918.378	1.52	699515	REC_START	n/a	n/a	n/a	n/a	-999	5	[0, 0, 0]	n/a	catFR1	0	R1461T
919.898	3.55	701038	REC_WORD	3.55	n/a	MARIPOSA	Insects	11	5	[0, 0, 0]	n/a	catFR1	0	R1461T
923.448	8.912	704588	REC_WORD_VV	8.912	n/a	<>	n/a	-999	5	[0, 0, 0]	n/a	catFR1	0	R1461T
932.36	1.884	713499	REC_WORD_VV	1.884	n/a	<>	n/a	-999	5	[0, 0, 0]	n/a	catFR1	0	R1461T
934.244	15.37	715383	REC_WORD	15.37	n/a	LAPIZ	OfficeSupplies	-999	5	[0, 0, 0]	n/a	catFR1	0	R1461T
949.614	7.064	730749	REC_END	n/a	n/a	n/a	n/a	-999	5	[0, 0, 0]	n/a	catFR1	0	R1461T
956.678	10.352	737820	COUNTDOWN_START	n/a	n/a	n/a	n/a	-999	5	[0, 0, 0]	n/a	catFR1	0	R1461T
967.03	0.0	748165	COUNTDOWN_END	n/a	n/a	n/a	n/a	-999	5	[0, 0, 0]	n/a	catFR1	0	R1461T
967.03	2.132	748165	ENCODING_START	n/a	n/a	n/a	n/a	-999	6	[0, 0, 0]	n/a	catFR1	0	R1461T
969.162	1.6	750305	WORD	n/a	wordpools/wordpool_categorized_SP.txt	TARTA	Desserts	1	6	[0, 0, 0]	n/a	catFR1	0	R1461T
970.762	0.933	751906	WORD_OFF	n/a	n/a	TARTA	Desserts	1	6	[0, 0, 0]	n/a	catFR1	0	R1461T
971.695	1.601	752828	WORD	n/a	wordpools/wordpool_categorized_SP.txt	GELATINA	Desserts	2	6	[0, 0, 0]	n/a	catFR1	0	R1461T
973.296	0.882	754429	WORD_OFF	n/a	n/a	GELATINA	Desserts	2	6	[0, 0, 0]	n/a	catFR1	0	R1461T
974.178	1.601	755322	WORD	n/a	wordpools/wordpool_categorized_SP.txt	MOSCA	Insects	3	6	[0, 0, 0]	n/a	catFR1	0	R1461T
975.779	0.916	756910	WORD_OFF	n/a	n/a	MOSCA	Insects	3	6	[0, 0, 0]	n/a	catFR1	0	R1461T
976.695	1.601	757830	WORD	n/a	wordpools/wordpool_categorized_SP.txt	HORMIGA	Insects	4	6	[0, 0, 0]	n/a	catFR1	0	R1461T
978.296	0.999	759432	WORD_OFF	n/a	n/a	HORMIGA	Insects	4	6	[0, 0, 0]	n/a	catFR1	0	R1461T
979.295	1.617	760438	WORD	n/a	wordpools/wordpool_categorized_SP.txt	CALAMAR	OceanAnimals	5	6	[0, 0, 0]	n/a	catFR1	0	R1461T
980.912	0.817	762053	WORD_OFF	n/a	n/a	CALAMAR	OceanAnimals	5	6	[0, 0, 0]	n/a	catFR1	0	R1461T
981.729	1.616	762861	WORD	n/a	wordpools/wordpool_categorized_SP.txt	MEDUSA	OceanAnimals	6	6	[0, 0, 0]	n/a	catFR1	0	R1461T
983.345	1.001	764477	WORD_OFF	n/a	n/a	MEDUSA	OceanAnimals	6	6	[0, 0, 0]	n/a	catFR1	0	R1461T
984.346	1.617	765483	WORD	n/a	wordpools/wordpool_categorized_SP.txt	MASA	Desserts	7	6	[0, 0, 0]	n/a	catFR1	0	R1461T
985.963	0.965	767098	WORD_OFF	n/a	n/a	MASA	Desserts	7	6	[0, 0, 0]	n/a	catFR1	0	R1461T
986.928	1.617	768062	WORD	n/a	wordpools/wordpool_categorized_SP.txt	BIZCOCHO	Desserts	8	6	[0, 0, 0]	n/a	catFR1	0	R1461T
988.545	1.001	769677	WORD_OFF	n/a	n/a	BIZCOCHO	Desserts	8	6	[0, 0, 0]	n/a	catFR1	0	R1461T
989.546	1.616	770684	WORD	n/a	wordpools/wordpool_categorized_SP.txt	MOSQUITO	Insects	9	6	[0, 0, 0]	n/a	catFR1	0	R1461T
991.162	0.916	772299	WORD_OFF	n/a	n/a	MOSQUITO	Insects	9	6	[0, 0, 0]	n/a	catFR1	0	R1461T
992.078	1.601	773220	WORD	n/a	wordpools/wordpool_categorized_SP.txt	CUCARACHA	Insects	10	6	[0, 0, 0]	n/a	catFR1	0	R1461T
993.679	0.767	774822	WORD_OFF	n/a	n/a	CUCARACHA	Insects	10	6	[0, 0, 0]	n/a	catFR1	0	R1461T
994.446	1.616	775587	WORD	n/a	wordpools/wordpool_categorized_SP.txt	BALLENA	OceanAnimals	11	6	[0, 0, 0]	n/a	catFR1	0	R1461T
996.062	0.866	777202	WORD_OFF	n/a	n/a	BALLENA	OceanAnimals	11	6	[0, 0, 0]	n/a	catFR1	0	R1461T
996.928	1.601	778067	WORD	n/a	wordpools/wordpool_categorized_SP.txt	PLANCTON	OceanAnimals	12	6	[0, 0, 0]	n/a	catFR1	0	R1461T
998.529	0.0	779665	PROB	0.0	n/a	n/a	n/a	-999	6	[1, 3, 8]	138	catFR1	0	R1461T
998.529	0.004	779668	WORD_OFF	n/a	n/a	PLANCTON	OceanAnimals	12	6	[0, 0, 0]	n/a	catFR1	0	R1461T
998.533	0.0	779668	ENCODING_END	n/a	n/a	n/a	n/a	-999	6	[0, 0, 0]	n/a	catFR1	0	R1461T
998.533	0.0	779668	DISTRACT_START	n/a	n/a	n/a	n/a	-999	6	[0, 0, 0]	n/a	catFR1	0	R1461T
998.533	17.197	779669	START	n/a	n/a	n/a	n/a	-999	6	[-999, -999, -999]	n/a	catFR1	0	R1461T
1015.73	11.015	796865	PROB	11.015	n/a	n/a	n/a	-999	6	[1, 5, 3]	153	catFR1	0	R1461T
1026.745	0.0	807879	STOP	n/a	n/a	n/a	n/a	-999	6	[-999, -999, -999]	n/a	catFR1	0	R1461T
1026.745	1.184	807884	DISTRACT_END	n/a	n/a	n/a	n/a	-999	6	[0, 0, 0]	n/a	catFR1	0	R1461T
1027.929	3.197	809060	REC_START	n/a	n/a	n/a	n/a	-999	6	[0, 0, 0]	n/a	catFR1	0	R1461T
1031.126	1.0	812260	REC_WORD	1.0	n/a	MARIPOSA	Insects	-999	6	[0, 0, 0]	n/a	catFR1	0	R1461T
1032.126	5.926	813260	REC_WORD	5.926	n/a	MARIPOSA	Insects	-999	6	[0, 0, 0]	n/a	catFR1	0	R1461T
1038.052	5.768	819186	REC_WORD	5.768	n/a	AMARILLO	n/a	-999	6	[0, 0, 0]	n/a	catFR1	0	R1461T
1043.82	7.893	824954	REC_WORD_VV	7.893	n/a	<>	n/a	-999	6	[0, 0, 0]	n/a	catFR1	0	R1461T
1051.713	7.485	832846	REC_WORD	7.485	n/a	TAPIA	n/a	-999	6	[0, 0, 0]	n/a	catFR1	0	R1461T
1059.198	7.98	840336	REC_END	n/a	n/a	n/a	n/a	-999	6	[0, 0, 0]	n/a	catFR1	0	R1461T
1067.178	10.352	848315	COUNTDOWN_START	n/a	n/a	n/a	n/a	-999	6	[0, 0, 0]	n/a	catFR1	0	R1461T
1077.53	0.0	858660	COUNTDOWN_END	n/a	n/a	n/a	n/a	-999	6	[0, 0, 0]	n/a	catFR1	0	R1461T
1077.53	2.317	858660	ENCODING_START	n/a	n/a	n/a	n/a	-999	7	[0, 0, 0]	n/a	catFR1	0	R1461T
1079.847	1.614	860984	WORD	n/a	wordpools/wordpool_categorized_SP.txt	TOCADOR	Furniture	1	7	[0, 0, 0]	n/a	catFR1	0	R1461T
1081.461	0.985	862599	WORD_OFF	n/a	n/a	TOCADOR	Furniture	1	7	[0, 0, 0]	n/a	catFR1	0	R1461T
1082.446	1.6	863577	WORD	n/a	wordpools/wordpool_categorized_SP.txt	CAMA	Furniture	2	7	[0, 0, 0]	n/a	catFR1	0	R1461T
1084.046	0.965	865179	WORD_OFF	n/a	n/a	CAMA	Furniture	2	7	[0, 0, 0]	n/a	catFR1	0	R1461T
1085.011	1.601	866142	WORD	n/a	wordpools/wordpool_categorized_SP.txt	GAMUZA	Fabric	3	7	[0, 0, 0]	n/a	catFR1	0	R1461T
1086.612	0.917	867744	WORD_OFF	n/a	n/a	GAMUZA	Fabric	3	7	[0, 0, 0]	n/a	catFR1	0	R1461T
1087.529	1.617	868665	WORD	n/a	wordpools/wordpool_categorized_SP.txt	SATEN	Fabric	4	7	[0, 0, 0]	n/a	catFR1	0	R1461T
1089.146	0.883	870280	WORD_OFF	n/a	n/a	SATEN	Fabric	4	7	[0, 0, 0]	n/a	catFR1	0	R1461T
1090.029	1.617	871159	WORD	n/a	wordpools/wordpool_categorized_SP.txt	TORNADO	Weather	5	7	[0, 0, 0]	n/a	catFR1	0	R1461T
1091.646	0.8	872774	WORD_OFF	n/a	n/a	TORNADO	Weather	5	7	[0, 0, 0]	n/a	catFR1	0	R1461T
1092.446	1.616	873582	WORD	n/a	wordpools/wordpool_categorized_SP.txt	TORMENTA	Weather	6	7	[0, 0, 0]	n/a	catFR1	0	R1461T
1094.062	0.767	875198	WORD_OFF	n/a	n/a	TORMENTA	Weather	6	7	[0, 0, 0]	n/a	catFR1	0	R1461T
1094.829	1.6	875963	WORD	n/a	wordpools/wordpool_categorized_SP.txt	BIBLIOTECA	Furniture	7	7	[0, 0, 0]	n/a	catFR1	0	R1461T
1096.429	0.917	877564	WORD_OFF	n/a	n/a	BIBLIOTECA	Furniture	7	7	[0, 0, 0]	n/a	catFR1	0	R1461T
1097.346	1.616	878471	WORD	n/a	wordpools/wordpool_categorized_SP.txt	CATRE	Furniture	8	7	[0, 0, 0]	n/a	catFR1	0	R1461T
1098.962	1.001	880087	WORD_OFF	n/a	n/a	CATRE	Furniture	8	7	[0, 0, 0]	n/a	catFR1	0	R1461T
1099.963	1.6	881093	WORD	n/a	wordpools/wordpool_categorized_SP.txt	LLOVIZNA	Weather	9	7	[0, 0, 0]	n/a	catFR1	0	R1461T
1101.563	0.816	882694	WORD_OFF	n/a	n/a	LLOVIZNA	Weather	9	7	[0, 0, 0]	n/a	catFR1	0	R1461T
1102.379	1.617	883516	WORD	n/a	wordpools/wordpool_categorized_SP.txt	HURACAN	Weather	10	7	[0, 0, 0]	n/a	catFR1	0	R1461T
1103.996	0.767	885132	WORD_OFF	n/a	n/a	HURACAN	Weather	10	7	[0, 0, 0]	n/a	catFR1	0	R1461T
1104.763	1.616	885897	WORD	n/a	wordpools/wordpool_categorized_SP.txt	PIEL	Fabric	11	7	[0, 0, 0]	n/a	catFR1	0	R1461T
1106.379	0.9	887513	WORD_OFF	n/a	n/a	PIEL	Fabric	11	7	[0, 0, 0]	n/a	catFR1	0	R1461T
1107.279	1.6	888406	WORD	n/a	wordpools/wordpool_categorized_SP.txt	LANA	Fabric	12	7	[0, 0, 0]	n/a	catFR1	0	R1461T
1108.879	0.002	890007	WORD_OFF	n/a	n/a	LANA	Fabric	12	7	[0, 0, 0]	n/a	catFR1	0	R1461T
1108.881	0.0	890007	ENCODING_END	n/a	n/a	n/a	n/a	-999	7	[0, 0, 0]	n/a	catFR1	0	R1461T
1108.881	0.0	890007	DISTRACT_START	n/a	n/a	n/a	n/a	-999	7	[0, 0, 0]	n/a	catFR1	0	R1461T
1108.88	0.001	890010	PROB	0.001	n/a	n/a	n/a	-999	7	[8, 2, 4]	824	catFR1	0	R1461T
1108.881	13.048	890011	START	n/a	n/a	n/a	n/a	-999	7	[-999, -999, -999]	n/a	catFR1	0	R1461T
1121.929	11.466	903059	PROB	11.466	n/a	n/a	n/a	-999	7	[8, 3, 2]	832	catFR1	0	R1461T
1133.395	0.0	914523	DISTRACT_END	n/a	n/a	n/a	n/a	-999	7	[0, 0, 0]	n/a	catFR1	0	R1461T
1133.395	1.151	914524	STOP	n/a	n/a	n/a	n/a	-999	7	[-999, -999, -999]	n/a	catFR1	0	R1461T
1134.546	2.065	915671	REC_START	n/a	n/a	n/a	n/a	-999	7	[0, 0, 0]	n/a	catFR1	0	R1461T
1136.611	1.963	917740	REC_WORD	1.963	n/a	TAPIA	n/a	-999	7	[0, 0, 0]	n/a	catFR1	0	R1461T
1138.574	11.001	919703	REC_WORD_VV	11.001	n/a	<>	n/a	-999	7	[0, 0, 0]	n/a	catFR1	0	R1461T
1149.575	16.236	930703	REC_WORD	16.236	n/a	BOLSA	n/a	-999	7	[0, 0, 0]	n/a	catFR1	0	R1461T
1165.811	6.985	946934	REC_END	n/a	n/a	n/a	n/a	-999	7	[0, 0, 0]	n/a	catFR1	0	R1461T
1172.796	10.35	953920	COUNTDOWN_START	n/a	n/a	n/a	n/a	-999	7	[0, 0, 0]	n/a	catFR1	0	R1461T
1183.146	0.0	964279	COUNTDOWN_END	n/a	n/a	n/a	n/a	-999	7	[0, 0, 0]	n/a	catFR1	0	R1461T
1183.146	2.149	964279	ENCODING_START	n/a	n/a	n/a	n/a	-999	8	[0, 0, 0]	n/a	catFR1	0	R1461T
1185.295	1.6	966419	WORD	n/a	wordpools/wordpool_categorized_SP.txt	LIMA	Fruit	1	8	[0, 0, 0]	n/a	catFR1	0	R1461T
1186.895	0.834	968021	WORD_OFF	n/a	n/a	LIMA	Fruit	1	8	[0, 0, 0]	n/a	catFR1	0	R1461T
1187.729	1.617	968857	WORD	n/a	wordpools/wordpool_categorized_SP.txt	MANZANA	Fruit	2	8	[0, 0, 0]	n/a	catFR1	0	R1461T
1189.346	0.883	970472	WORD_OFF	n/a	n/a	MANZANA	Fruit	2	8	[0, 0, 0]	n/a	catFR1	0	R1461T
1190.229	1.616	971351	WORD	n/a	wordpools/wordpool_categorized_SP.txt	LICUADORA	Appliances	3	8	[0, 0, 0]	n/a	catFR1	0	R1461T
1191.845	1.0	972966	WORD_OFF	n/a	n/a	LICUADORA	Appliances	3	8	[0, 0, 0]	n/a	catFR1	0	R1461T
1192.845	1.601	973973	WORD	n/a	wordpools/wordpool_categorized_SP.txt	HIERRO	Appliances	4	8	[0, 0, 0]	n/a	catFR1	0	R1461T
1194.446	0.883	975574	WORD_OFF	n/a	n/a	HIERRO	Appliances	4	8	[0, 0, 0]	n/a	catFR1	0	R1461T
1195.329	1.616	976453	WORD	n/a	wordpools/wordpool_categorized_SP.txt	COLINAS	Landscapes	5	8	[0, 0, 0]	n/a	catFR1	0	R1461T
1196.945	0.784	978068	WORD_OFF	n/a	n/a	COLINAS	Landscapes	5	8	[0, 0, 0]	n/a	catFR1	0	R1461T
1197.729	1.6	978862	WORD	n/a	wordpools/wordpool_categorized_SP.txt	MONTANA	Landscapes	6	8	[0, 0, 0]	n/a	catFR1	0	R1461T
1199.329	0.916	980449	WORD_OFF	n/a	n/a	MONTANA	Landscapes	6	8	[0, 0, 0]	n/a	catFR1	0	R1461T
1200.245	1.601	981370	WORD	n/a	wordpools/wordpool_categorized_SP.txt	SECADORA	Appliances	7	8	[0, 0, 0]	n/a	catFR1	0	R1461T
1201.846	0.765	982971	WORD_OFF	n/a	n/a	SECADORA	Appliances	7	8	[0, 0, 0]	n/a	catFR1	0	R1461T
1202.611	1.601	983737	WORD	n/a	wordpools/wordpool_categorized_SP.txt	LAVAPLATOS	Appliances	8	8	[0, 0, 0]	n/a	catFR1	0	R1461T
1204.212	0.901	985338	WORD_OFF	n/a	n/a	LAVAPLATOS	Appliances	8	8	[0, 0, 0]	n/a	catFR1	0	R1461T
1205.113	1.615	986245	WORD	n/a	wordpools/wordpool_categorized_SP.txt	PERA	Fruit	9	8	[0, 0, 0]	n/a	catFR1	0	R1461T
1206.728	0.834	987846	WORD_OFF	n/a	n/a	PERA	Fruit	9	8	[0, 0, 0]	n/a	catFR1	0	R1461T
1207.562	1.617	988682	WORD	n/a	wordpools/wordpool_categorized_SP.txt	UVA	Fruit	10	8	[0, 0, 0]	n/a	catFR1	0	R1461T
1209.179	0.783	990298	WORD_OFF	n/a	n/a	UVA	Fruit	10	8	[0, 0, 0]	n/a	catFR1	0	R1461T
1209.962	1.6	991092	WORD	n/a	wordpools/wordpool_categorized_SP.txt	PLAYA	Landscapes	11	8	[0, 0, 0]	n/a	catFR1	0	R1461T
1211.562	0.967	992693	WORD_OFF	n/a	n/a	PLAYA	Landscapes	11	8	[0, 0, 0]	n/a	catFR1	0	R1461T
1212.529	1.601	993657	WORD	n/a	wordpools/wordpool_categorized_SP.txt	OCEANO	Landscapes	12	8	[0, 0, 0]	n/a	catFR1	0	R1461T
1214.13	0.001	995255	PROB	0.001	n/a	n/a	n/a	-999	8	[2, 6, 6]	266	catFR1	0	R1461T
1214.131	0.0	995256	START	n/a	n/a	n/a	n/a	-999	8	[-999, -999, -999]	n/a	catFR1	0	R1461T
1214.129	0.002	995258	WORD_OFF	n/a	n/a	OCEANO	Landscapes	12	8	[0, 0, 0]	n/a	catFR1	0	R1461T
1214.131	0.0	995258	ENCODING_END	n/a	n/a	n/a	n/a	-999	8	[0, 0, 0]	n/a	catFR1	0	R1461T
1214.131	16.298	995258	DISTRACT_START	n/a	n/a	n/a	n/a	-999	8	[0, 0, 0]	n/a	catFR1	0	R1461T
1230.429	13.033	1011553	PROB	13.033	n/a	n/a	n/a	-999	8	[6, 5, 7]	657	catFR1	0	R1461T
1243.462	0.0	1024585	STOP	n/a	n/a	n/a	n/a	-999	8	[-999, -999, -999]	n/a	catFR1	0	R1461T
1243.462	1.217	1024593	DISTRACT_END	n/a	n/a	n/a	n/a	-999	8	[0, 0, 0]	n/a	catFR1	0	R1461T
1244.679	2.283	1025797	REC_START	n/a	n/a	n/a	n/a	-999	8	[0, 0, 0]	n/a	catFR1	0	R1461T
1246.962	4.491	1028085	REC_WORD	4.491	n/a	LAVADORA	n/a	-999	8	[0, 0, 0]	n/a	catFR1	0	R1461T
1251.453	1.0	1032576	REC_WORD_VV	1.0	n/a	<>	n/a	-999	8	[0, 0, 0]	n/a	catFR1	0	R1461T
1252.453	1.247	1033576	REC_WORD_VV	1.247	n/a	<>	n/a	-999	8	[0, 0, 0]	n/a	catFR1	0	R1461T
1253.7	10.864	1034823	REC_WORD	10.864	n/a	MANZANA	Fruit	2	8	[0, 0, 0]	n/a	catFR1	0	R1461T
1264.564	11.338	1045686	REC_WORD	11.338	n/a	UVA	Fruit	10	8	[0, 0, 0]	n/a	catFR1	0	R1461T
1275.902	4.594	1057017	REC_END	n/a	n/a	n/a	n/a	-999	8	[0, 0, 0]	n/a	catFR1	0	R1461T
1280.496	10.35	1061623	COUNTDOWN_START	n/a	n/a	n/a	n/a	-999	8	[0, 0, 0]	n/a	catFR1	0	R1461T
1290.846	0.0	1071968	COUNTDOWN_END	n/a	n/a	n/a	n/a	-999	8	[0, 0, 0]	n/a	catFR1	0	R1461T
1290.846	1.882	1071968	ENCODING_START	n/a	n/a	n/a	n/a	-999	9	[0, 0, 0]	n/a	catFR1	0	R1461T
1292.728	1.601	1073853	WORD	n/a	wordpools/wordpool_categorized_SP.txt	PLATANO	Fruit	1	9	[0, 0, 0]	n/a	catFR1	0	R1461T
1294.329	0.966	1075454	WORD_OFF	n/a	n/a	PLATANO	Fruit	1	9	[0, 0, 0]	n/a	catFR1	0	R1461T
1295.295	1.601	1076418	WORD	n/a	wordpools/wordpool_categorized_SP.txt	DURAZNO	Fruit	2	9	[0, 0, 0]	n/a	catFR1	0	R1461T
1296.896	0.799	1078019	WORD_OFF	n/a	n/a	DURAZNO	Fruit	2	9	[0, 0, 0]	n/a	catFR1	0	R1461T
1297.695	1.617	1078813	WORD	n/a	wordpools/wordpool_categorized_SP.txt	TENEDOR	KitchenTools	3	9	[0, 0, 0]	n/a	catFR1	0	R1461T
1299.312	0.833	1080428	WORD_OFF	n/a	n/a	TENEDOR	KitchenTools	3	9	[0, 0, 0]	n/a	catFR1	0	R1461T
1300.145	1.6	1081264	WORD	n/a	wordpools/wordpool_categorized_SP.txt	CUCHARA	KitchenTools	4	9	[0, 0, 0]	n/a	catFR1	0	R1461T
1301.745	0.767	1082866	WORD_OFF	n/a	n/a	CUCHARA	KitchenTools	4	9	[0, 0, 0]	n/a	catFR1	0	R1461T
1302.512	1.616	1083631	WORD	n/a	wordpools/wordpool_categorized_SP.txt	LLUVIA	Weather	5	9	[0, 0, 0]	n/a	catFR1	0	R1461T
1304.128	0.867	1085246	WORD_OFF	n/a	n/a	LLUVIA	Weather	5	9	[0, 0, 0]	n/a	catFR1	0	R1461T
1304.995	1.617	1086111	WORD	n/a	wordpools/wordpool_categorized_SP.txt	RELAMPAGO	Weather	6	9	[0, 0, 0]	n/a	catFR1	0	R1461T
1306.612	0.967	1087726	WORD_OFF	n/a	n/a	RELAMPAGO	Weather	6	9	[0, 0, 0]	n/a	catFR1	0	R1461T
1307.579	1.617	1088704	WORD	n/a	wordpools/wordpool_categorized_SP.txt	ESPATULA	KitchenTools	7	9	[0, 0, 0]	n/a	catFR1	0	R1461T
1309.196	0.999	1090320	WORD_OFF	n/a	n/a	ESPATULA	KitchenTools	7	9	[0, 0, 0]	n/a	catFR1	0	R1461T
1310.195	1.601	1091312	WORD	n/a	wordpools/wordpool_categorized_SP.txt	COLADOR	KitchenTools	8	9	[0, 0, 0]	n/a	catFR1	0	R1461T
1311.796	0.817	1092913	WORD_OFF	n/a	n/a	COLADOR	KitchenTools	8	9	[0, 0, 0]	n/a	catFR1	0	R1461T
1312.613	1.616	1093735	WORD	n/a	wordpools/wordpool_categorized_SP.txt	CEREZA	Fruit	9	9	[0, 0, 0]	n/a	catFR1	0	R1461T
1314.229	0.767	1095351	WORD_OFF	n/a	n/a	CEREZA	Fruit	9	9	[0, 0, 0]	n/a	catFR1	0	R1461T
1314.996	1.6	1096116	WORD	n/a	wordpools/wordpool_categorized_SP.txt	CIRUELA	Fruit	10	9	[0, 0, 0]	n/a	catFR1	0	R1461T
1316.596	0.983	1097717	WORD_OFF	n/a	n/a	CIRUELA	Fruit	10	9	[0, 0, 0]	n/a	catFR1	0	R1461T
1317.579	1.6	1098695	WORD	n/a	wordpools/wordpool_categorized_SP.txt	NUBE	Weather	11	9	[0, 0, 0]	n/a	catFR1	0	R1461T
1319.179	0.95	1100297	WORD_OFF	n/a	n/a	NUBE	Weather	11	9	[0, 0, 0]	n/a	catFR1	0	R1461T
1320.129	1.617	1101246	WORD	n/a	wordpools/wordpool_categorized_SP.txt	NIEBLA	Weather	12	9	[0, 0, 0]	n/a	catFR1	0	R1461T
1321.746	0.0	1102862	WORD_OFF	n/a	n/a	NIEBLA	Weather	12	9	[0, 0, 0]	n/a	catFR1	0	R1461T
1321.746	0.004	1102865	PROB	0.004	n/a	n/a	n/a	-999	9	[3, 6, 5]	365	catFR1	0	R1461T
1321.75	0.0	1102869	START	n/a	n/a	n/a	n/a	-999	9	[-999, -999, -999]	n/a	catFR1	0	R1461T
1321.75	0.0	1102876	ENCODING_END	n/a	n/a	n/a	n/a	-999	9	[0, 0, 0]	n/a	catFR1	0	R1461T
1321.75	12.863	1102876	DISTRACT_START	n/a	n/a	n/a	n/a	-999	9	[0, 0, 0]	n/a	catFR1	0	R1461T
1334.613	11.666	1115732	PROB	11.666	n/a	n/a	n/a	-999	9	[4, 6, 4]	464	catFR1	0	R1461T
1346.279	0.0	1127392	DISTRACT_END	n/a	n/a	n/a	n/a	-999	9	[0, 0, 0]	n/a	catFR1	0	R1461T
1346.279	1.183	1127397	STOP	n/a	n/a	n/a	n/a	-999	9	[-999, -999, -999]	n/a	catFR1	0	R1461T
1347.462	3.168	1128583	REC_START	n/a	n/a	n/a	n/a	-999	9	[0, 0, 0]	n/a	catFR1	0	R1461T
1350.63	3.073	1131748	REC_WORD	3.073	n/a	NUBE	Weather	11	9	[0, 0, 0]	n/a	catFR1	0	R1461T
1353.703	4.935	1134821	REC_WORD_VV	4.935	n/a	<>	n/a	-999	9	[0, 0, 0]	n/a	catFR1	0	R1461T
1358.638	12.152	1139755	REC_WORD	12.152	n/a	GRAPADORA	OfficeSupplies	-999	9	[0, 0, 0]	n/a	catFR1	0	R1461T
1370.79	1.445	1151907	REC_WORD_VV	1.445	n/a	<>	n/a	-999	9	[0, 0, 0]	n/a	catFR1	0	R1461T
1372.235	6.476	1153352	REC_WORD	6.476	n/a	PLATANO	Fruit	1	9	[0, 0, 0]	n/a	catFR1	0	R1461T
1378.711	4.602	1159831	REC_END	n/a	n/a	n/a	n/a	-999	9	[0, 0, 0]	n/a	catFR1	0	R1461T
1383.313	10.349	1164436	COUNTDOWN_START	n/a	n/a	n/a	n/a	-999	9	[0, 0, 0]	n/a	catFR1	0	R1461T
1393.662	0.0	1174782	COUNTDOWN_END	n/a	n/a	n/a	n/a	-999	9	[0, 0, 0]	n/a	catFR1	0	R1461T
1393.662	1.984	1174782	ENCODING_START	n/a	n/a	n/a	n/a	-999	10	[0, 0, 0]	n/a	catFR1	0	R1461T
1395.646	1.617	1176766	WORD	n/a	wordpools/wordpool_categorized_SP.txt	VIOLONCHELO	Instruments	1	10	[0, 0, 0]	n/a	catFR1	0	R1461T
1397.263	0.965	1178381	WORD_OFF	n/a	n/a	VIOLONCHELO	Instruments	1	10	[0, 0, 0]	n/a	catFR1	0	R1461T
1398.228	1.601	1179345	WORD	n/a	wordpools/wordpool_categorized_SP.txt	TAMBOR	Instruments	2	10	[0, 0, 0]	n/a	catFR1	0	R1461T
1399.829	0.917	1180946	WORD_OFF	n/a	n/a	TAMBOR	Instruments	2	10	[0, 0, 0]	n/a	catFR1	0	R1461T
1400.746	1.6	1181867	WORD	n/a	wordpools/wordpool_categorized_SP.txt	CUCHILLO	KitchenTools	3	10	[0, 0, 0]	n/a	catFR1	0	R1461T
1402.346	0.9	1183454	WORD_OFF	n/a	n/a	CUCHILLO	KitchenTools	3	10	[0, 0, 0]	n/a	catFR1	0	R1461T
1403.246	1.6	1184361	WORD	n/a	wordpools/wordpool_categorized_SP.txt	BATIDOR	KitchenTools	4	10	[0, 0, 0]	n/a	catFR1	0	R1461T
1404.846	0.85	1185963	WORD_OFF	n/a	n/a	BATIDOR	KitchenTools	4	10	[0, 0, 0]	n/a	catFR1	0	R1461T
1405.696	1.616	1186813	WORD	n/a	wordpools/wordpool_categorized_SP.txt	HALCON	Birds	5	10	[0, 0, 0]	n/a	catFR1	0	R1461T
1407.312	0.951	1188429	WORD_OFF	n/a	n/a	HALCON	Birds	5	10	[0, 0, 0]	n/a	catFR1	0	R1461T
1408.263	1.616	1189378	WORD	n/a	wordpools/wordpool_categorized_SP.txt	PALOMA	Birds	6	10	[0, 0, 0]	n/a	catFR1	0	R1461T
1409.879	0.917	1190994	WORD_OFF	n/a	n/a	PALOMA	Birds	6	10	[0, 0, 0]	n/a	catFR1	0	R1461T
1410.796	1.6	1191915	WORD	n/a	wordpools/wordpool_categorized_SP.txt	SACACORCHOS	KitchenTools	7	10	[0, 0, 0]	n/a	catFR1	0	R1461T
1412.396	0.833	1193516	WORD_OFF	n/a	n/a	SACACORCHOS	KitchenTools	7	10	[0, 0, 0]	n/a	catFR1	0	R1461T
1413.229	1.6	1194338	WORD	n/a	wordpools/wordpool_categorized_SP.txt	PELADOR	KitchenTools	8	10	[0, 0, 0]	n/a	catFR1	0	R1461T
1414.829	0.9	1195939	WORD_OFF	n/a	n/a	PELADOR	KitchenTools	8	10	[0, 0, 0]	n/a	catFR1	0	R1461T
1415.729	1.6	1196846	WORD	n/a	wordpools/wordpool_categorized_SP.txt	GUITARRA	Instruments	9	10	[0, 0, 0]	n/a	catFR1	0	R1461T
1417.329	0.899	1198448	WORD_OFF	n/a	n/a	GUITARRA	Instruments	9	10	[0, 0, 0]	n/a	catFR1	0	R1461T
1418.228	1.601	1199341	WORD	n/a	wordpools/wordpool_categorized_SP.txt	PIANO	Instruments	10	10	[0, 0, 0]	n/a	catFR1	0	R1461T
1419.829	0.95	1200942	WORD_OFF	n/a	n/a	PIANO	Instruments	10	10	[0, 0, 0]	n/a	catFR1	0	R1461T
1420.779	1.599	1201891	WORD	n/a	wordpools/wordpool_categorized_SP.txt	GORRION	Birds	11	10	[0, 0, 0]	n/a	catFR1	0	R1461T
1422.378	1.001	1203493	WORD_OFF	n/a	n/a	GORRION	Birds	11	10	[0, 0, 0]	n/a	catFR1	0	R1461T
1423.379	1.617	1204499	WORD	n/a	wordpools/wordpool_categorized_SP.txt	PINZON	Birds	12	10	[0, 0, 0]	n/a	catFR1	0	R1461T
1424.996	0.001	1206110	PROB	0.001	n/a	n/a	n/a	-999	10	[2, 1, 3]	213	catFR1	0	R1461T
1424.997	0.0	1206111	START	n/a	n/a	n/a	n/a	-999	10	[-999, -999, -999]	n/a	catFR1	0	R1461T
1424.996	0.001	1206114	WORD_OFF	n/a	n/a	PINZON	Birds	12	10	[0, 0, 0]	n/a	catFR1	0	R1461T
1424.997	0.0	1206114	ENCODING_END	n/a	n/a	n/a	n/a	-999	10	[0, 0, 0]	n/a	catFR1	0	R1461T
1424.997	11.166	1206114	DISTRACT_START	n/a	n/a	n/a	n/a	-999	10	[0, 0, 0]	n/a	catFR1	0	R1461T
1436.163	20.45	1217277	PROB	20.45	n/a	n/a	n/a	-999	10	[4, 8, 5]	485	catFR1	0	R1461T
1456.613	0.0	1237725	STOP	n/a	n/a	n/a	n/a	-999	10	[-999, -999, -999]	n/a	catFR1	0	R1461T
1456.613	1.3	1237731	DISTRACT_END	n/a	n/a	n/a	n/a	-999	10	[0, 0, 0]	n/a	catFR1	0	R1461T
1457.913	0.281	1239021	REC_START	n/a	n/a	n/a	n/a	-999	10	[0, 0, 0]	n/a	catFR1	0	R1461T
1458.194	1.702	1239306	REC_WORD	1.702	n/a	GUITARRA	Instruments	9	10	[0, 0, 0]	n/a	catFR1	0	R1461T
1459.896	4.016	1241008	REC_WORD	4.016	n/a	ACCORDION	n/a	-999	10	[0, 0, 0]	n/a	catFR1	0	R1461T
1463.912	4.925	1245024	REC_WORD_VV	4.925	n/a	<>	n/a	-999	10	[0, 0, 0]	n/a	catFR1	0	R1461T
1468.837	11.153	1249949	REC_WORD	11.153	n/a	SECADORA	Appliances	-999	10	[0, 0, 0]	n/a	catFR1	0	R1461T
1479.99	9.168	1261101	REC_WORD	9.168	n/a	LAVADORA	n/a	-999	10	[0, 0, 0]	n/a	catFR1	0	R1461T
1489.158	4.321	1270268	REC_END	n/a	n/a	n/a	n/a	-999	10	[0, 0, 0]	n/a	catFR1	0	R1461T
1493.479	10.35	1274591	COUNTDOWN_START	n/a	n/a	n/a	n/a	-999	10	[0, 0, 0]	n/a	catFR1	0	R1461T
1503.829	0.001	1284936	COUNTDOWN_END	n/a	n/a	n/a	n/a	-999	10	[0, 0, 0]	n/a	catFR1	0	R1461T
1503.83	2.016	1284936	ENCODING_START	n/a	n/a	n/a	n/a	-999	11	[0, 0, 0]	n/a	catFR1	0	R1461T
1505.846	1.6	1286962	WORD	n/a	wordpools/wordpool_categorized_SP.txt	PAVO	FarmAnimals	1	11	[0, 0, 0]	n/a	catFR1	0	R1461T
1507.446	0.882	1288564	WORD_OFF	n/a	n/a	PAVO	FarmAnimals	1	11	[0, 0, 0]	n/a	catFR1	0	R1461T
1508.328	1.601	1289442	WORD	n/a	wordpools/wordpool_categorized_SP.txt	OVEJA	FarmAnimals	2	11	[0, 0, 0]	n/a	catFR1	0	R1461T
1509.929	0.816	1291044	WORD_OFF	n/a	n/a	OVEJA	FarmAnimals	2	11	[0, 0, 0]	n/a	catFR1	0	R1461T
1510.745	1.6	1291852	WORD	n/a	wordpools/wordpool_categorized_SP.txt	LIRIO	Flowers	3	11	[0, 0, 0]	n/a	catFR1	0	R1461T
1512.345	0.95	1293453	WORD_OFF	n/a	n/a	LIRIO	Flowers	3	11	[0, 0, 0]	n/a	catFR1	0	R1461T
1513.295	1.6	1294402	WORD	n/a	wordpools/wordpool_categorized_SP.txt	MARGARITA	Flowers	4	11	[0, 0, 0]	n/a	catFR1	0	R1461T
1514.895	0.868	1296004	WORD_OFF	n/a	n/a	MARGARITA	Flowers	4	11	[0, 0, 0]	n/a	catFR1	0	R1461T
1515.763	1.616	1296868	WORD	n/a	wordpools/wordpool_categorized_SP.txt	MEDIAS	Clothing	5	11	[0, 0, 0]	n/a	catFR1	0	R1461T
1517.379	0.916	1298484	WORD_OFF	n/a	n/a	MEDIAS	Clothing	5	11	[0, 0, 0]	n/a	catFR1	0	R1461T
1518.295	1.6	1299405	WORD	n/a	wordpools/wordpool_categorized_SP.txt	VESTIDO	Clothing	6	11	[0, 0, 0]	n/a	catFR1	0	R1461T
1519.895	0.801	1301006	WORD_OFF	n/a	n/a	VESTIDO	Clothing	6	11	[0, 0, 0]	n/a	catFR1	0	R1461T
1520.696	1.6	1301800	WORD	n/a	wordpools/wordpool_categorized_SP.txt	ORQUIDEA	Flowers	7	11	[0, 0, 0]	n/a	catFR1	0	R1461T
1522.296	0.917	1303401	WORD_OFF	n/a	n/a	ORQUIDEA	Flowers	7	11	[0, 0, 0]	n/a	catFR1	0	R1461T
1523.213	1.6	1304322	WORD	n/a	wordpools/wordpool_categorized_SP.txt	CALENDULA	Flowers	8	11	[0, 0, 0]	n/a	catFR1	0	R1461T
1524.813	0.816	1305924	WORD_OFF	n/a	n/a	CALENDULA	Flowers	8	11	[0, 0, 0]	n/a	catFR1	0	R1461T
1525.629	1.6	1306732	WORD	n/a	wordpools/wordpool_categorized_SP.txt	VACA	FarmAnimals	9	11	[0, 0, 0]	n/a	catFR1	0	R1461T
1527.229	0.967	1308333	WORD_OFF	n/a	n/a	VACA	FarmAnimals	9	11	[0, 0, 0]	n/a	catFR1	0	R1461T
1528.196	1.616	1309311	WORD	n/a	wordpools/wordpool_categorized_SP.txt	GALLO	FarmAnimals	10	11	[0, 0, 0]	n/a	catFR1	0	R1461T
1529.812	0.867	1310926	WORD_OFF	n/a	n/a	GALLO	FarmAnimals	10	11	[0, 0, 0]	n/a	catFR1	0	R1461T
1530.679	1.6	1311791	WORD	n/a	wordpools/wordpool_categorized_SP.txt	CAMISA	Clothing	11	11	[0, 0, 0]	n/a	catFR1	0	R1461T
1532.279	0.983	1313392	WORD_OFF	n/a	n/a	CAMISA	Clothing	11	11	[0, 0, 0]	n/a	catFR1	0	R1461T
1533.262	1.6	1314370	WORD	n/a	wordpools/wordpool_categorized_SP.txt	SHORT	Clothing	12	11	[0, 0, 0]	n/a	catFR1	0	R1461T
1534.862	0.0	1315970	PROB	0.0	n/a	n/a	n/a	-999	11	[4, 3, 8]	438	catFR1	0	R1461T
1534.862	0.001	1315971	WORD_OFF	n/a	n/a	SHORT	Clothing	12	11	[0, 0, 0]	n/a	catFR1	0	R1461T
1534.863	0.0	1315971	ENCODING_END	n/a	n/a	n/a	n/a	-999	11	[0, 0, 0]	n/a	catFR1	0	R1461T
1534.863	0.0	1315971	DISTRACT_START	n/a	n/a	n/a	n/a	-999	11	[0, 0, 0]	n/a	catFR1	0	R1461T
1534.863	15.499	1315971	START	n/a	n/a	n/a	n/a	-999	11	[-999, -999, -999]	n/a	catFR1	0	R1461T
1550.362	13.0	1331470	PROB	13.0	n/a	n/a	n/a	-999	11	[4, 2, 1]	421	catFR1	0	R1461T
1563.362	0.0	1344469	STOP	n/a	n/a	n/a	n/a	-999	11	[-999, -999, -999]	n/a	catFR1	0	R1461T
1563.362	1.4	1344470	DISTRACT_END	n/a	n/a	n/a	n/a	-999	11	[0, 0, 0]	n/a	catFR1	0	R1461T
1564.762	8.695	1345873	REC_START	n/a	n/a	n/a	n/a	-999	11	[0, 0, 0]	n/a	catFR1	0	R1461T
1573.457	4.436	1354564	REC_WORD	4.436	n/a	TRABAJO	n/a	-999	11	[0, 0, 0]	n/a	catFR1	0	R1461T
1577.893	15.09	1358999	REC_WORD	15.09	n/a	GUITARRA	Instruments	-999	11	[0, 0, 0]	n/a	catFR1	0	R1461T
1592.983	3.04	1374089	REC_WORD	3.04	n/a	NUBE	Weather	-999	11	[0, 0, 0]	n/a	catFR1	0	R1461T
1596.023	6.356	1377135	REC_END	n/a	n/a	n/a	n/a	-999	11	[0, 0, 0]	n/a	catFR1	0	R1461T
1602.379	10.35	1383484	COUNTDOWN_START	n/a	n/a	n/a	n/a	-999	11	[0, 0, 0]	n/a	catFR1	0	R1461T
1612.729	0.001	1393829	COUNTDOWN_END	n/a	n/a	n/a	n/a	-999	11	[0, 0, 0]	n/a	catFR1	0	R1461T
1612.73	1.999	1393837	ENCODING_START	n/a	n/a	n/a	n/a	-999	12	[0, 0, 0]	n/a	catFR1	0	R1461T
1614.729	1.6	1395827	WORD	n/a	wordpools/wordpool_categorized_SP.txt	MEZCLA	Appliances	1	12	[0, 0, 0]	n/a	catFR1	0	R1461T
1616.329	0.9	1397429	WORD_OFF	n/a	n/a	MEZCLA	Appliances	1	12	[0, 0, 0]	n/a	catFR1	0	R1461T
1617.229	1.6	1398336	WORD	n/a	wordpools/wordpool_categorized_SP.txt	TOSTADORA	Appliances	2	12	[0, 0, 0]	n/a	catFR1	0	R1461T
1618.829	0.984	1399937	WORD_OFF	n/a	n/a	TOSTADORA	Appliances	2	12	[0, 0, 0]	n/a	catFR1	0	R1461T
1619.813	1.616	1400915	WORD	n/a	wordpools/wordpool_categorized_SP.txt	CEDRO	Trees	3	12	[0, 0, 0]	n/a	catFR1	0	R1461T
1621.429	0.999	1402530	WORD_OFF	n/a	n/a	CEDRO	Trees	3	12	[0, 0, 0]	n/a	catFR1	0	R1461T
1622.428	1.601	1403536	WORD	n/a	wordpools/wordpool_categorized_SP.txt	PINO	Trees	4	12	[0, 0, 0]	n/a	catFR1	0	R1461T
1624.029	0.866	1405138	WORD_OFF	n/a	n/a	PINO	Trees	4	12	[0, 0, 0]	n/a	catFR1	0	R1461T
1624.895	1.601	1406002	WORD	n/a	wordpools/wordpool_categorized_SP.txt	AGUILA	Birds	5	12	[0, 0, 0]	n/a	catFR1	0	R1461T
1626.496	0.999	1407604	WORD_OFF	n/a	n/a	AGUILA	Birds	5	12	[0, 0, 0]	n/a	catFR1	0	R1461T
1627.495	1.6	1408596	WORD	n/a	wordpools/wordpool_categorized_SP.txt	CARDENAL	Birds	6	12	[0, 0, 0]	n/a	catFR1	0	R1461T
1629.095	0.934	1410197	WORD_OFF	n/a	n/a	CARDENAL	Birds	6	12	[0, 0, 0]	n/a	catFR1	0	R1461T
1630.029	1.616	1411132	WORD	n/a	wordpools/wordpool_categorized_SP.txt	HORNO	Appliances	7	12	[0, 0, 0]	n/a	catFR1	0	R1461T
1631.645	0.884	1412748	WORD_OFF	n/a	n/a	HORNO	Appliances	7	12	[0, 0, 0]	n/a	catFR1	0	R1461T
1632.529	1.6	1413627	WORD	n/a	wordpools/wordpool_categorized_SP.txt	CONGELADOR	Appliances	8	12	[0, 0, 0]	n/a	catFR1	0	R1461T
1634.129	0.767	1415228	WORD_OFF	n/a	n/a	CONGELADOR	Appliances	8	12	[0, 0, 0]	n/a	catFR1	0	R1461T
1634.896	1.6	1415993	WORD	n/a	wordpools/wordpool_categorized_SP.txt	PETIRROJO	Birds	9	12	[0, 0, 0]	n/a	catFR1	0	R1461T
1636.496	0.815	1417595	WORD_OFF	n/a	n/a	PETIRROJO	Birds	9	12	[0, 0, 0]	n/a	catFR1	0	R1461T
1637.311	1.602	1418416	WORD	n/a	wordpools/wordpool_categorized_SP.txt	PATO	Birds	10	12	[0, 0, 0]	n/a	catFR1	0	R1461T
1638.913	0.966	1420018	WORD_OFF	n/a	n/a	PATO	Birds	10	12	[0, 0, 0]	n/a	catFR1	0	R1461T
1639.879	1.617	1420982	WORD	n/a	wordpools/wordpool_categorized_SP.txt	NUEZ	Trees	11	12	[0, 0, 0]	n/a	catFR1	0	R1461T
1641.496	0.966	1422597	WORD_OFF	n/a	n/a	NUEZ	Trees	11	12	[0, 0, 0]	n/a	catFR1	0	R1461T
1642.462	1.616	1423561	WORD	n/a	wordpools/wordpool_categorized_SP.txt	NOGAL	Trees	12	12	[0, 0, 0]	n/a	catFR1	0	R1461T
1644.078	0.002	1425176	WORD_OFF	n/a	n/a	NOGAL	Trees	12	12	[0, 0, 0]	n/a	catFR1	0	R1461T
1644.08	0.0	1425176	ENCODING_END	n/a	n/a	n/a	n/a	-999	12	[0, 0, 0]	n/a	catFR1	0	R1461T
1644.078	0.002	1425181	PROB	0.002	n/a	n/a	n/a	-999	12	[5, 5, 8]	558	catFR1	0	R1461T
1644.08	0.0	1425183	START	n/a	n/a	n/a	n/a	-999	12	[-999, -999, -999]	n/a	catFR1	0	R1461T
1644.08	14.982	1425190	DISTRACT_START	n/a	n/a	n/a	n/a	-999	12	[0, 0, 0]	n/a	catFR1	0	R1461T
1659.062	11.299	1440164	PROB	11.299	n/a	n/a	n/a	-999	12	[1, 4, 8]	148	catFR1	0	R1461T
1670.361	0.0	1451463	STOP	n/a	n/a	n/a	n/a	-999	12	[-999, -999, -999]	n/a	catFR1	0	R1461T
1670.361	1.068	1451464	DISTRACT_END	n/a	n/a	n/a	n/a	-999	12	[0, 0, 0]	n/a	catFR1	0	R1461T
1671.429	3.252	1452527	REC_START	n/a	n/a	n/a	n/a	-999	12	[0, 0, 0]	n/a	catFR1	0	R1461T
1674.681	3.324	1455782	REC_WORD	3.324	n/a	NUBE	Weather	-999	12	[0, 0, 0]	n/a	catFR1	0	R1461T
1678.005	0.908	1459106	REC_WORD_VV	0.908	n/a	<>	n/a	-999	12	[0, 0, 0]	n/a	catFR1	0	R1461T
1678.913	1.226	1460014	REC_WORD	1.226	n/a	TAPIA	n/a	-999	12	[0, 0, 0]	n/a	catFR1	0	R1461T
1680.139	10.123	1461240	REC_WORD	10.123	n/a	GUITARRA	Instruments	-999	12	[0, 0, 0]	n/a	catFR1	0	R1461T
1690.262	12.402	1471363	REC_WORD	12.402	n/a	NIEVE	Weather	-999	12	[0, 0, 0]	n/a	catFR1	0	R1461T
1702.664	0.0	1483761	REC_END	n/a	n/a	n/a	n/a	-999	12	[0, 0, 0]	n/a	catFR1	0	R1461T
