onset	duration	sample	trial_type	response_time	stim_file	item_name	category	serialpos	list	test	answer	experiment	session	subject
0.0	0.0	35090	INSTRUCT_START	n/a	n/a	n/a	n/a	-999	-999	[0, 0, 0]	n/a	catFR1	0	R1271P
0.0	11.063	35090	INSTRUCT_END	n/a	n/a	n/a	n/a	-999	-999	[0, 0, 0]	n/a	catFR1	0	R1271P
11.063	0.0	46153	SESS_START	n/a	n/a	n/a	n/a	-999	-999	[0, 0, 0]	n/a	catFR1	0	R1271P
11.063	242.819	46153	MIC_TEST	n/a	n/a	n/a	n/a	-999	-999	[0, 0, 0]	n/a	catFR1	0	R1271P
253.882	3.384	288959	PRACTICE_TRIAL	n/a	n/a	n/a	n/a	-999	-1	[0, 0, 0]	n/a	catFR1	0	R1271P
257.266	10.428	292343	COUNTDOWN_START	n/a	n/a	n/a	n/a	-999	-1	[0, 0, 0]	n/a	catFR1	0	R1271P
267.694	0.007	302770	COUNTDOWN_END	n/a	n/a	n/a	n/a	-999	-1	[0, 0, 0]	n/a	catFR1	0	R1271P
267.701	1.618	302777	PRACTICE_ORIENT	n/a	n/a	n/a	n/a	-999	-1	[0, 0, 0]	n/a	catFR1	0	R1271P
269.319	2.284	304395	PRACTICE_ORIENT_OFF	n/a	n/a	n/a	n/a	-999	-1	[0, 0, 0]	n/a	catFR1	0	R1271P
271.603	1.617	306679	PRACTICE_WORD	n/a	n/a	CHEST	n/a	-1	-1	[0, 0, 0]	n/a	catFR1	0	R1271P
273.22	0.899	308296	PRACTICE_WORD_OFF	n/a	n/a	CHEST	n/a	-999	-1	[0, 0, 0]	n/a	catFR1	0	R1271P
274.119	1.617	309195	PRACTICE_WORD	n/a	n/a	WATCH	n/a	-1	-1	[0, 0, 0]	n/a	catFR1	0	R1271P
275.736	0.917	310812	PRACTICE_WORD_OFF	n/a	n/a	WATCH	n/a	-999	-1	[0, 0, 0]	n/a	catFR1	0	R1271P
276.653	1.618	311729	PRACTICE_WORD	n/a	n/a	RHINO	n/a	-1	-1	[0, 0, 0]	n/a	catFR1	0	R1271P
278.271	0.865	313347	PRACTICE_WORD_OFF	n/a	n/a	RHINO	n/a	-999	-1	[0, 0, 0]	n/a	catFR1	0	R1271P
279.136	1.617	314212	PRACTICE_WORD	n/a	n/a	WAGON	n/a	-1	-1	[0, 0, 0]	n/a	catFR1	0	R1271P
280.753	0.852	315829	PRACTICE_WORD_OFF	n/a	n/a	WAGON	n/a	-999	-1	[0, 0, 0]	n/a	catFR1	0	R1271P
281.605	1.616	316681	PRACTICE_WORD	n/a	n/a	CAMEL	n/a	-1	-1	[0, 0, 0]	n/a	catFR1	0	R1271P
283.221	0.866	318297	PRACTICE_WORD_OFF	n/a	n/a	CAMEL	n/a	-999	-1	[0, 0, 0]	n/a	catFR1	0	R1271P
284.087	1.617	319162	PRACTICE_WORD	n/a	n/a	RING	n/a	-1	-1	[0, 0, 0]	n/a	catFR1	0	R1271P
285.704	0.868	320779	PRACTICE_WORD_OFF	n/a	n/a	RING	n/a	-999	-1	[0, 0, 0]	n/a	catFR1	0	R1271P
286.572	1.617	321647	PRACTICE_WORD	n/a	n/a	BEAM	n/a	-1	-1	[0, 0, 0]	n/a	catFR1	0	R1271P
288.189	0.849	323264	PRACTICE_WORD_OFF	n/a	n/a	BEAM	n/a	-999	-1	[0, 0, 0]	n/a	catFR1	0	R1271P
289.038	1.617	324113	PRACTICE_WORD	n/a	n/a	ATTIC	n/a	-1	-1	[0, 0, 0]	n/a	catFR1	0	R1271P
290.655	0.818	325730	PRACTICE_WORD_OFF	n/a	n/a	ATTIC	n/a	-999	-1	[0, 0, 0]	n/a	catFR1	0	R1271P
291.473	1.616	326548	PRACTICE_WORD	n/a	n/a	TONGUE	n/a	-1	-1	[0, 0, 0]	n/a	catFR1	0	R1271P
293.089	0.984	328164	PRACTICE_WORD_OFF	n/a	n/a	TONGUE	n/a	-999	-1	[0, 0, 0]	n/a	catFR1	0	R1271P
294.073	1.617	329148	PRACTICE_WORD	n/a	n/a	IRON	n/a	-1	-1	[0, 0, 0]	n/a	catFR1	0	R1271P
295.69	0.901	330765	PRACTICE_WORD_OFF	n/a	n/a	IRON	n/a	-999	-1	[0, 0, 0]	n/a	catFR1	0	R1271P
296.591	1.617	331666	PRACTICE_WORD	n/a	n/a	FLOOD	n/a	-1	-1	[0, 0, 0]	n/a	catFR1	0	R1271P
298.208	0.932	333283	PRACTICE_WORD_OFF	n/a	n/a	FLOOD	n/a	-999	-1	[0, 0, 0]	n/a	catFR1	0	R1271P
299.14	1.617	334215	PRACTICE_WORD	n/a	n/a	COTTON	n/a	-1	-1	[0, 0, 0]	n/a	catFR1	0	R1271P
300.757	0.0	335832	PRACTICE_WORD_OFF	n/a	n/a	COTTON	n/a	-999	-1	[0, 0, 0]	n/a	catFR1	0	R1271P
300.757	0.001	335832	ENCODING_END	n/a	n/a	n/a	n/a	-999	-1	[0, 0, 0]	n/a	catFR1	0	R1271P
300.758	0.0	335833	DISTRACT_START	n/a	n/a	n/a	n/a	-999	-1	[0, 0, 0]	n/a	catFR1	0	R1271P
300.758	0.016	335833	START	n/a	n/a	n/a	n/a	-999	1	[-999, -999, -999]	n/a	catFR1	0	R1271P
300.774	41.489	335849	PROB	41.489	n/a	n/a	n/a	-999	1	[6, 5, 5]	16.0	catFR1	0	R1271P
342.263	0.02	377335	STOP	n/a	n/a	n/a	n/a	-999	1	[-999, -999, -999]	n/a	catFR1	0	R1271P
342.283	0.615	377355	DISTRACT_END	n/a	n/a	n/a	n/a	-999	-1	[0, 0, 0]	n/a	catFR1	0	R1271P
342.898	0.506	377970	RETRIEVAL_ORIENT	n/a	n/a	n/a	n/a	-999	-1	[0, 0, 0]	n/a	catFR1	0	R1271P
343.404	30.008	378476	PRACTICE_REC_START	n/a	n/a	n/a	n/a	-999	-1	[0, 0, 0]	n/a	catFR1	0	R1271P
373.412	16.996	408483	PRACTICE_REC_END	n/a	n/a	n/a	n/a	-999	-1	[0, 0, 0]	n/a	catFR1	0	R1271P
390.408	0.5	425478	TRIAL	n/a	n/a	n/a	n/a	-999	1	[0, 0, 0]	n/a	catFR1	0	R1271P
390.908	10.428	425978	COUNTDOWN_START	n/a	n/a	n/a	n/a	-999	1	[0, 0, 0]	n/a	catFR1	0	R1271P
401.336	0.008	436405	COUNTDOWN_END	n/a	n/a	n/a	n/a	-999	1	[0, 0, 0]	n/a	catFR1	0	R1271P
401.344	1.616	436413	ORIENT	n/a	n/a	n/a	n/a	-999	1	[0, 0, 0]	n/a	catFR1	0	R1271P
402.96	1.783	438029	ORIENT_OFF	n/a	n/a	n/a	n/a	-999	1	[0, 0, 0]	n/a	catFR1	0	R1271P
404.743	1.618	439812	WORD	n/a	wordpools/wordpool_categorized_EN.txt	CAULIFLOWER	Vegetables	1	1	[0, 0, 0]	n/a	catFR1	0	R1271P
406.361	0.917	441430	WORD_OFF	n/a	n/a	CAULIFLOWER	n/a	1	1	[0, 0, 0]	n/a	catFR1	0	R1271P
407.278	1.616	442347	WORD	n/a	wordpools/wordpool_categorized_EN.txt	SPINACH	Vegetables	2	1	[0, 0, 0]	n/a	catFR1	0	R1271P
408.894	1.0	443963	WORD_OFF	n/a	n/a	SPINACH	n/a	2	1	[0, 0, 0]	n/a	catFR1	0	R1271P
409.894	1.601	444963	WORD	n/a	wordpools/wordpool_categorized_EN.txt	SANDER	Tools	3	1	[0, 0, 0]	n/a	catFR1	0	R1271P
411.495	0.884	446564	WORD_OFF	n/a	n/a	SANDER	n/a	3	1	[0, 0, 0]	n/a	catFR1	0	R1271P
412.379	1.616	447448	WORD	n/a	wordpools/wordpool_categorized_EN.txt	SCREWDRIVER	Tools	4	1	[0, 0, 0]	n/a	catFR1	0	R1271P
413.995	0.817	449064	WORD_OFF	n/a	n/a	SCREWDRIVER	n/a	4	1	[0, 0, 0]	n/a	catFR1	0	R1271P
414.812	1.618	449881	WORD	n/a	wordpools/wordpool_categorized_EN.txt	MAPLE	Trees	5	1	[0, 0, 0]	n/a	catFR1	0	R1271P
416.43	0.967	451499	WORD_OFF	n/a	n/a	MAPLE	n/a	5	1	[0, 0, 0]	n/a	catFR1	0	R1271P
417.397	1.616	452466	WORD	n/a	wordpools/wordpool_categorized_EN.txt	HICKORY	Trees	6	1	[0, 0, 0]	n/a	catFR1	0	R1271P
419.013	0.883	454081	WORD_OFF	n/a	n/a	HICKORY	n/a	6	1	[0, 0, 0]	n/a	catFR1	0	R1271P
419.896	1.618	454964	WORD	n/a	wordpools/wordpool_categorized_EN.txt	BROCCOLI	Vegetables	7	1	[0, 0, 0]	n/a	catFR1	0	R1271P
421.514	0.917	456582	WORD_OFF	n/a	n/a	BROCCOLI	n/a	7	1	[0, 0, 0]	n/a	catFR1	0	R1271P
422.431	1.616	457499	WORD	n/a	wordpools/wordpool_categorized_EN.txt	CORN	Vegetables	8	1	[0, 0, 0]	n/a	catFR1	0	R1271P
424.047	0.85	459115	WORD_OFF	n/a	n/a	CORN	n/a	8	1	[0, 0, 0]	n/a	catFR1	0	R1271P
424.897	1.618	459965	WORD	n/a	wordpools/wordpool_categorized_EN.txt	PLIERS	Tools	9	1	[0, 0, 0]	n/a	catFR1	0	R1271P
426.515	0.8	461583	WORD_OFF	n/a	n/a	PLIERS	n/a	9	1	[0, 0, 0]	n/a	catFR1	0	R1271P
427.315	1.616	462383	WORD	n/a	wordpools/wordpool_categorized_EN.txt	SAW	Tools	10	1	[0, 0, 0]	n/a	catFR1	0	R1271P
428.931	0.8	463999	WORD_OFF	n/a	n/a	SAW	n/a	10	1	[0, 0, 0]	n/a	catFR1	0	R1271P
429.731	1.602	464799	WORD	n/a	wordpools/wordpool_categorized_EN.txt	CYPRESS	Trees	11	1	[0, 0, 0]	n/a	catFR1	0	R1271P
431.333	0.816	466401	WORD_OFF	n/a	n/a	CYPRESS	n/a	11	1	[0, 0, 0]	n/a	catFR1	0	R1271P
432.149	1.617	467217	WORD	n/a	wordpools/wordpool_categorized_EN.txt	SPRUCE	Trees	12	1	[0, 0, 0]	n/a	catFR1	0	R1271P
433.766	0.0	468834	ENCODING_END	n/a	n/a	n/a	n/a	-999	1	[0, 0, 0]	n/a	catFR1	0	R1271P
433.766	0.129	468834	WORD_OFF	n/a	n/a	SPRUCE	n/a	12	1	[0, 0, 0]	n/a	catFR1	0	R1271P
433.895	0.0	468963	DISTRACT_START	n/a	n/a	n/a	n/a	-999	1	[0, 0, 0]	n/a	catFR1	0	R1271P
433.895	0.021	468963	START	n/a	n/a	n/a	n/a	-999	2	[-999, -999, -999]	n/a	catFR1	0	R1271P
433.916	10.336	468984	PROB	10.308	n/a	n/a	n/a	-999	2	[3, 4, 6]	13.0	catFR1	0	R1271P
444.252	10.643	479319	PROB	10.643	n/a	n/a	n/a	-999	2	[1, 1, 7]	9.0	catFR1	0	R1271P
454.895	0.008	489962	STOP	n/a	n/a	n/a	n/a	-999	2	[-999, -999, -999]	n/a	catFR1	0	R1271P
454.903	0.601	489970	DISTRACT_END	n/a	n/a	n/a	n/a	-999	1	[0, 0, 0]	n/a	catFR1	0	R1271P
455.504	0.516	490571	RETRIEVAL_ORIENT	n/a	n/a	n/a	n/a	-999	1	[0, 0, 0]	n/a	catFR1	0	R1271P
456.02	14.106	491087	REC_START	n/a	n/a	n/a	n/a	-999	1	[0, 0, 0]	n/a	catFR1	0	R1271P
470.126	10.914	505192	REC_WORD_VV	14.106	n/a	<>	n/a	-999	1	[0, 0, 0]	n/a	catFR1	0	R1271P
481.04	1.77	516105	REC_WORD_VV	25.02	n/a	<>	n/a	-999	1	[0, 0, 0]	n/a	catFR1	0	R1271P
482.81	2.245	517875	REC_WORD	26.79	n/a	SPRUCE	Trees	12	1	[0, 0, 0]	n/a	catFR1	0	R1271P
485.055	0.979	520120	REC_WORD	29.035	n/a	BROCCOLI	Vegetables	7	1	[0, 0, 0]	n/a	catFR1	0	R1271P
486.034	7.91	521099	REC_END	n/a	n/a	n/a	n/a	-999	1	[0, 0, 0]	n/a	catFR1	0	R1271P
493.944	0.5	529009	TRIAL	n/a	n/a	n/a	n/a	-999	2	[0, 0, 0]	n/a	catFR1	0	R1271P
494.444	10.428	529509	COUNTDOWN_START	n/a	n/a	n/a	n/a	-999	2	[0, 0, 0]	n/a	catFR1	0	R1271P
504.872	0.007	539936	COUNTDOWN_END	n/a	n/a	n/a	n/a	-999	2	[0, 0, 0]	n/a	catFR1	0	R1271P
504.879	1.618	539943	ORIENT	n/a	n/a	n/a	n/a	-999	2	[0, 0, 0]	n/a	catFR1	0	R1271P
506.497	1.967	541561	ORIENT_OFF	n/a	n/a	n/a	n/a	-999	2	[0, 0, 0]	n/a	catFR1	0	R1271P
508.464	1.616	543528	WORD	n/a	wordpools/wordpool_categorized_EN.txt	OCEAN	Landscapes	1	2	[0, 0, 0]	n/a	catFR1	0	R1271P
510.08	0.95	545144	WORD_OFF	n/a	n/a	OCEAN	n/a	1	2	[0, 0, 0]	n/a	catFR1	0	R1271P
511.03	1.617	546094	WORD	n/a	wordpools/wordpool_categorized_EN.txt	WOODS	Landscapes	2	2	[0, 0, 0]	n/a	catFR1	0	R1271P
512.647	0.951	547711	WORD_OFF	n/a	n/a	WOODS	n/a	2	2	[0, 0, 0]	n/a	catFR1	0	R1271P
513.598	1.617	548662	WORD	n/a	wordpools/wordpool_categorized_EN.txt	PETUNIA	Flowers	3	2	[0, 0, 0]	n/a	catFR1	0	R1271P
515.215	0.766	550279	WORD_OFF	n/a	n/a	PETUNIA	n/a	3	2	[0, 0, 0]	n/a	catFR1	0	R1271P
515.981	1.618	551044	WORD	n/a	wordpools/wordpool_categorized_EN.txt	DAFFODIL	Flowers	4	2	[0, 0, 0]	n/a	catFR1	0	R1271P
517.599	0.783	552662	WORD_OFF	n/a	n/a	DAFFODIL	n/a	4	2	[0, 0, 0]	n/a	catFR1	0	R1271P
518.382	1.616	553445	WORD	n/a	wordpools/wordpool_categorized_EN.txt	CHAIR	Furniture	5	2	[0, 0, 0]	n/a	catFR1	0	R1271P
519.998	0.967	555061	WORD_OFF	n/a	n/a	CHAIR	n/a	5	2	[0, 0, 0]	n/a	catFR1	0	R1271P
520.965	1.618	556028	WORD	n/a	wordpools/wordpool_categorized_EN.txt	NIGHTSTAND	Furniture	6	2	[0, 0, 0]	n/a	catFR1	0	R1271P
522.583	0.884	557646	WORD_OFF	n/a	n/a	NIGHTSTAND	n/a	6	2	[0, 0, 0]	n/a	catFR1	0	R1271P
523.467	1.616	558530	WORD	n/a	wordpools/wordpool_categorized_EN.txt	LILY	Flowers	7	2	[0, 0, 0]	n/a	catFR1	0	R1271P
525.083	0.867	560146	WORD_OFF	n/a	n/a	LILY	n/a	7	2	[0, 0, 0]	n/a	catFR1	0	R1271P
525.95	1.618	561013	WORD	n/a	wordpools/wordpool_categorized_EN.txt	ROSE	Flowers	8	2	[0, 0, 0]	n/a	catFR1	0	R1271P
527.568	0.833	562631	WORD_OFF	n/a	n/a	ROSE	n/a	8	2	[0, 0, 0]	n/a	catFR1	0	R1271P
528.401	1.616	563464	WORD	n/a	wordpools/wordpool_categorized_EN.txt	FOREST	Landscapes	9	2	[0, 0, 0]	n/a	catFR1	0	R1271P
530.017	0.833	565080	WORD_OFF	n/a	n/a	FOREST	n/a	9	2	[0, 0, 0]	n/a	catFR1	0	R1271P
530.85	1.601	565913	WORD	n/a	wordpools/wordpool_categorized_EN.txt	STREAM	Landscapes	10	2	[0, 0, 0]	n/a	catFR1	0	R1271P
532.451	0.834	567514	WORD_OFF	n/a	n/a	STREAM	n/a	10	2	[0, 0, 0]	n/a	catFR1	0	R1271P
533.285	1.616	568348	WORD	n/a	wordpools/wordpool_categorized_EN.txt	DRESSER	Furniture	11	2	[0, 0, 0]	n/a	catFR1	0	R1271P
534.901	0.984	569964	WORD_OFF	n/a	n/a	DRESSER	n/a	11	2	[0, 0, 0]	n/a	catFR1	0	R1271P
535.885	1.618	570947	WORD	n/a	wordpools/wordpool_categorized_EN.txt	SHELF	Furniture	12	2	[0, 0, 0]	n/a	catFR1	0	R1271P
537.503	0.0	572565	ENCODING_END	n/a	n/a	n/a	n/a	-999	2	[0, 0, 0]	n/a	catFR1	0	R1271P
537.503	0.102	572565	WORD_OFF	n/a	n/a	SHELF	n/a	12	2	[0, 0, 0]	n/a	catFR1	0	R1271P
537.605	0.0	572667	DISTRACT_START	n/a	n/a	n/a	n/a	-999	2	[0, 0, 0]	n/a	catFR1	0	R1271P
537.605	0.013	572667	START	n/a	n/a	n/a	n/a	-999	3	[-999, -999, -999]	n/a	catFR1	0	R1271P
537.618	5.936	572680	PROB	5.91	n/a	n/a	n/a	-999	3	[6, 1, 3]	10.0	catFR1	0	R1271P
543.554	5.818	578616	PROB	5.789	n/a	n/a	n/a	-999	3	[5, 4, 7]	16.0	catFR1	0	R1271P
549.372	7.818	584434	PROB	7.779	n/a	n/a	n/a	-999	3	[6, 5, 7]	18.0	catFR1	0	R1271P
557.19	4.937	592251	PROB	4.937	n/a	n/a	n/a	-999	3	[5, 7, 5]	17.0	catFR1	0	R1271P
562.127	0.013	597188	STOP	n/a	n/a	n/a	n/a	-999	3	[-999, -999, -999]	n/a	catFR1	0	R1271P
562.14	0.683	597201	DISTRACT_END	n/a	n/a	n/a	n/a	-999	2	[0, 0, 0]	n/a	catFR1	0	R1271P
562.823	0.519	597884	RETRIEVAL_ORIENT	n/a	n/a	n/a	n/a	-999	2	[0, 0, 0]	n/a	catFR1	0	R1271P
563.342	16.586	598403	REC_START	n/a	n/a	n/a	n/a	-999	2	[0, 0, 0]	n/a	catFR1	0	R1271P
579.928	13.426	614988	REC_WORD_VV	16.586	n/a	<>	n/a	-999	2	[0, 0, 0]	n/a	catFR1	0	R1271P
593.354	7.726	628413	REC_END	n/a	n/a	n/a	n/a	-999	2	[0, 0, 0]	n/a	catFR1	0	R1271P
601.08	0.5	636139	TRIAL	n/a	n/a	n/a	n/a	-999	3	[0, 0, 0]	n/a	catFR1	0	R1271P
601.58	10.428	636639	COUNTDOWN_START	n/a	n/a	n/a	n/a	-999	3	[0, 0, 0]	n/a	catFR1	0	R1271P
612.008	0.008	647067	COUNTDOWN_END	n/a	n/a	n/a	n/a	-999	3	[0, 0, 0]	n/a	catFR1	0	R1271P
612.016	1.617	647075	ORIENT	n/a	n/a	n/a	n/a	-999	3	[0, 0, 0]	n/a	catFR1	0	R1271P
613.633	2.083	648691	ORIENT_OFF	n/a	n/a	n/a	n/a	-999	3	[0, 0, 0]	n/a	catFR1	0	R1271P
615.716	1.618	650774	WORD	n/a	wordpools/wordpool_categorized_EN.txt	WINDOW	Building	1	3	[0, 0, 0]	n/a	catFR1	0	R1271P
617.334	0.984	652392	WORD_OFF	n/a	n/a	WINDOW	n/a	1	3	[0, 0, 0]	n/a	catFR1	0	R1271P
618.318	1.616	653376	WORD	n/a	wordpools/wordpool_categorized_EN.txt	ROOM	Building	2	3	[0, 0, 0]	n/a	catFR1	0	R1271P
619.934	0.833	654992	WORD_OFF	n/a	n/a	ROOM	n/a	2	3	[0, 0, 0]	n/a	catFR1	0	R1271P
620.767	1.618	655825	WORD	n/a	wordpools/wordpool_categorized_EN.txt	PEELER	KitchenTools	3	3	[0, 0, 0]	n/a	catFR1	0	R1271P
622.385	0.817	657443	WORD_OFF	n/a	n/a	PEELER	n/a	3	3	[0, 0, 0]	n/a	catFR1	0	R1271P
623.202	1.616	658260	WORD	n/a	wordpools/wordpool_categorized_EN.txt	COLANDER	KitchenTools	4	3	[0, 0, 0]	n/a	catFR1	0	R1271P
624.818	0.934	659876	WORD_OFF	n/a	n/a	COLANDER	n/a	4	3	[0, 0, 0]	n/a	catFR1	0	R1271P
625.752	1.601	660810	WORD	n/a	wordpools/wordpool_categorized_EN.txt	VACUUM	Appliances	5	3	[0, 0, 0]	n/a	catFR1	0	R1271P
627.353	0.782	662411	WORD_OFF	n/a	n/a	VACUUM	n/a	5	3	[0, 0, 0]	n/a	catFR1	0	R1271P
628.135	1.617	663193	WORD	n/a	wordpools/wordpool_categorized_EN.txt	WASHER	Appliances	6	3	[0, 0, 0]	n/a	catFR1	0	R1271P
629.752	1.001	664810	WORD_OFF	n/a	n/a	WASHER	n/a	6	3	[0, 0, 0]	n/a	catFR1	0	R1271P
630.753	1.618	665811	WORD	n/a	wordpools/wordpool_categorized_EN.txt	ROOF	Building	7	3	[0, 0, 0]	n/a	catFR1	0	R1271P
632.371	0.933	667428	WORD_OFF	n/a	n/a	ROOF	n/a	7	3	[0, 0, 0]	n/a	catFR1	0	R1271P
633.304	1.616	668361	WORD	n/a	wordpools/wordpool_categorized_EN.txt	ATTIC	Building	8	3	[0, 0, 0]	n/a	catFR1	0	R1271P
634.92	0.834	669977	WORD_OFF	n/a	n/a	ATTIC	n/a	8	3	[0, 0, 0]	n/a	catFR1	0	R1271P
635.754	1.618	670811	WORD	n/a	wordpools/wordpool_categorized_EN.txt	SPOON	KitchenTools	9	3	[0, 0, 0]	n/a	catFR1	0	R1271P
637.372	0.933	672429	WORD_OFF	n/a	n/a	SPOON	n/a	9	3	[0, 0, 0]	n/a	catFR1	0	R1271P
638.305	1.616	673362	WORD	n/a	wordpools/wordpool_categorized_EN.txt	CORKSCREW	KitchenTools	10	3	[0, 0, 0]	n/a	catFR1	0	R1271P
639.921	0.834	674978	WORD_OFF	n/a	n/a	CORKSCREW	n/a	10	3	[0, 0, 0]	n/a	catFR1	0	R1271P
640.755	1.618	675812	WORD	n/a	wordpools/wordpool_categorized_EN.txt	DRYER	Appliances	11	3	[0, 0, 0]	n/a	catFR1	0	R1271P
642.373	0.983	677430	WORD_OFF	n/a	n/a	DRYER	n/a	11	3	[0, 0, 0]	n/a	catFR1	0	R1271P
643.356	1.616	678413	WORD	n/a	wordpools/wordpool_categorized_EN.txt	STOVE	Appliances	12	3	[0, 0, 0]	n/a	catFR1	0	R1271P
644.972	0.0	680029	ENCODING_END	n/a	n/a	n/a	n/a	-999	3	[0, 0, 0]	n/a	catFR1	0	R1271P
644.972	0.104	680029	WORD_OFF	n/a	n/a	STOVE	n/a	12	3	[0, 0, 0]	n/a	catFR1	0	R1271P
645.076	0.0	680133	DISTRACT_START	n/a	n/a	n/a	n/a	-999	3	[0, 0, 0]	n/a	catFR1	0	R1271P
645.076	0.013	680133	START	n/a	n/a	n/a	n/a	-999	4	[-999, -999, -999]	n/a	catFR1	0	R1271P
645.089	7.851	680146	PROB	7.813	n/a	n/a	n/a	-999	4	[4, 4, 7]	15.0	catFR1	0	R1271P
652.94	6.818	687996	PROB	6.787	n/a	n/a	n/a	-999	4	[5, 3, 6]	14.0	catFR1	0	R1271P
659.758	5.872	694814	PROB	5.872	n/a	n/a	n/a	-999	4	[9, 5, 2]	6.0	catFR1	0	R1271P
665.63	0.013	700686	STOP	n/a	n/a	n/a	n/a	-999	4	[-999, -999, -999]	n/a	catFR1	0	R1271P
665.643	0.551	700699	DISTRACT_END	n/a	n/a	n/a	n/a	-999	3	[0, 0, 0]	n/a	catFR1	0	R1271P
666.194	0.516	701250	RETRIEVAL_ORIENT	n/a	n/a	n/a	n/a	-999	3	[0, 0, 0]	n/a	catFR1	0	R1271P
666.71	3.878	701766	REC_START	n/a	n/a	n/a	n/a	-999	3	[0, 0, 0]	n/a	catFR1	0	R1271P
670.588	3.947	705644	REC_WORD	3.878	n/a	COLANDER	KitchenTools	4	3	[0, 0, 0]	n/a	catFR1	0	R1271P
674.535	3.319	709590	REC_WORD_VV	7.825	n/a	<>	n/a	-999	3	[0, 0, 0]	n/a	catFR1	0	R1271P
677.854	18.869	712909	REC_WORD	11.144	n/a	PEELER	KitchenTools	3	3	[0, 0, 0]	n/a	catFR1	0	R1271P
696.723	5.461	731777	REC_END	n/a	n/a	n/a	n/a	-999	3	[0, 0, 0]	n/a	catFR1	0	R1271P
702.184	0.5	737238	TRIAL	n/a	n/a	n/a	n/a	-999	4	[0, 0, 0]	n/a	catFR1	0	R1271P
702.684	10.428	737738	COUNTDOWN_START	n/a	n/a	n/a	n/a	-999	4	[0, 0, 0]	n/a	catFR1	0	R1271P
713.112	0.006	748165	COUNTDOWN_END	n/a	n/a	n/a	n/a	-999	4	[0, 0, 0]	n/a	catFR1	0	R1271P
713.118	1.617	748171	ORIENT	n/a	n/a	n/a	n/a	-999	4	[0, 0, 0]	n/a	catFR1	0	R1271P
714.735	2.101	749788	ORIENT_OFF	n/a	n/a	n/a	n/a	-999	4	[0, 0, 0]	n/a	catFR1	0	R1271P
716.836	1.617	751889	WORD	n/a	wordpools/wordpool_categorized_EN.txt	JELLYFISH	OceanAnimals	1	4	[0, 0, 0]	n/a	catFR1	0	R1271P
718.453	0.934	753506	WORD_OFF	n/a	n/a	JELLYFISH	n/a	1	4	[0, 0, 0]	n/a	catFR1	0	R1271P
719.387	1.616	754440	WORD	n/a	wordpools/wordpool_categorized_EN.txt	TURTLE	OceanAnimals	2	4	[0, 0, 0]	n/a	catFR1	0	R1271P
721.003	0.933	756056	WORD_OFF	n/a	n/a	TURTLE	n/a	2	4	[0, 0, 0]	n/a	catFR1	0	R1271P
721.936	1.602	756989	WORD	n/a	wordpools/wordpool_categorized_EN.txt	FLOOR	Building	3	4	[0, 0, 0]	n/a	catFR1	0	R1271P
723.538	0.866	758591	WORD_OFF	n/a	n/a	FLOOR	n/a	3	4	[0, 0, 0]	n/a	catFR1	0	R1271P
724.404	1.617	759457	WORD	n/a	wordpools/wordpool_categorized_EN.txt	WALL	Building	4	4	[0, 0, 0]	n/a	catFR1	0	R1271P
726.021	0.866	761074	WORD_OFF	n/a	n/a	WALL	n/a	4	4	[0, 0, 0]	n/a	catFR1	0	R1271P
726.887	1.618	761940	WORD	n/a	wordpools/wordpool_categorized_EN.txt	WILLOW	Trees	5	4	[0, 0, 0]	n/a	catFR1	0	R1271P
728.505	0.884	763558	WORD_OFF	n/a	n/a	WILLOW	n/a	5	4	[0, 0, 0]	n/a	catFR1	0	R1271P
729.389	1.616	764441	WORD	n/a	wordpools/wordpool_categorized_EN.txt	PINE	Trees	6	4	[0, 0, 0]	n/a	catFR1	0	R1271P
731.005	0.917	766057	WORD_OFF	n/a	n/a	PINE	n/a	6	4	[0, 0, 0]	n/a	catFR1	0	R1271P
731.922	1.618	766974	WORD	n/a	wordpools/wordpool_categorized_EN.txt	DOLPHIN	OceanAnimals	7	4	[0, 0, 0]	n/a	catFR1	0	R1271P
733.54	0.9	768592	WORD_OFF	n/a	n/a	DOLPHIN	n/a	7	4	[0, 0, 0]	n/a	catFR1	0	R1271P
734.44	1.616	769492	WORD	n/a	wordpools/wordpool_categorized_EN.txt	OCTOPUS	OceanAnimals	8	4	[0, 0, 0]	n/a	catFR1	0	R1271P
736.056	0.967	771108	WORD_OFF	n/a	n/a	OCTOPUS	n/a	8	4	[0, 0, 0]	n/a	catFR1	0	R1271P
737.023	1.617	772075	WORD	n/a	wordpools/wordpool_categorized_EN.txt	CEILING	Building	9	4	[0, 0, 0]	n/a	catFR1	0	R1271P
738.64	0.901	773692	WORD_OFF	n/a	n/a	CEILING	n/a	9	4	[0, 0, 0]	n/a	catFR1	0	R1271P
739.541	1.617	774593	WORD	n/a	wordpools/wordpool_categorized_EN.txt	STAIRS	Building	10	4	[0, 0, 0]	n/a	catFR1	0	R1271P
741.158	0.866	776210	WORD_OFF	n/a	n/a	STAIRS	n/a	10	4	[0, 0, 0]	n/a	catFR1	0	R1271P
742.024	1.617	777076	WORD	n/a	wordpools/wordpool_categorized_EN.txt	CEDAR	Trees	11	4	[0, 0, 0]	n/a	catFR1	0	R1271P
743.641	0.951	778693	WORD_OFF	n/a	n/a	CEDAR	n/a	11	4	[0, 0, 0]	n/a	catFR1	0	R1271P
744.592	1.617	779644	WORD	n/a	wordpools/wordpool_categorized_EN.txt	WALNUT	Trees	12	4	[0, 0, 0]	n/a	catFR1	0	R1271P
746.209	0.0	781261	ENCODING_END	n/a	n/a	n/a	n/a	-999	4	[0, 0, 0]	n/a	catFR1	0	R1271P
746.209	0.133	781261	WORD_OFF	n/a	n/a	WALNUT	n/a	12	4	[0, 0, 0]	n/a	catFR1	0	R1271P
746.342	0.0	781394	DISTRACT_START	n/a	n/a	n/a	n/a	-999	4	[0, 0, 0]	n/a	catFR1	0	R1271P
746.342	0.017	781394	START	n/a	n/a	n/a	n/a	-999	5	[-999, -999, -999]	n/a	catFR1	0	R1271P
746.359	6.35	781411	PROB	6.327	n/a	n/a	n/a	-999	5	[8, 8, 1]	17.0	catFR1	0	R1271P
752.709	4.768	787760	PROB	4.739	n/a	n/a	n/a	-999	5	[7, 2, 3]	12.0	catFR1	0	R1271P
757.477	3.768	792528	PROB	3.739	n/a	n/a	n/a	-999	5	[7, 1, 8]	16.0	catFR1	0	R1271P
761.245	3.583	796296	PROB	3.545	n/a	n/a	n/a	-999	5	[2, 2, 7]	11.0	catFR1	0	R1271P
764.828	5.171	799879	PROB	5.171	n/a	n/a	n/a	-999	5	[7, 7, 6]	20.0	catFR1	0	R1271P
769.999	0.013	805049	STOP	n/a	n/a	n/a	n/a	-999	5	[-999, -999, -999]	n/a	catFR1	0	R1271P
770.012	0.617	805062	DISTRACT_END	n/a	n/a	n/a	n/a	-999	4	[0, 0, 0]	n/a	catFR1	0	R1271P
770.629	0.517	805679	RETRIEVAL_ORIENT	n/a	n/a	n/a	n/a	-999	4	[0, 0, 0]	n/a	catFR1	0	R1271P
771.146	3.119	806196	REC_START	n/a	n/a	n/a	n/a	-999	4	[0, 0, 0]	n/a	catFR1	0	R1271P
774.265	1.806	809315	REC_WORD	3.119	n/a	STAIRS	Building	10	4	[0, 0, 0]	n/a	catFR1	0	R1271P
776.071	3.29	811121	REC_WORD	4.925	n/a	WALL	Building	4	4	[0, 0, 0]	n/a	catFR1	0	R1271P
779.361	2.214	814411	REC_WORD	8.215	n/a	FLOOR	Building	3	4	[0, 0, 0]	n/a	catFR1	0	R1271P
781.575	5.101	816625	REC_WORD	10.429	n/a	JELLYFISH	OceanAnimals	1	4	[0, 0, 0]	n/a	catFR1	0	R1271P
786.676	8.099	821726	REC_WORD_VV	15.53	n/a	<>	n/a	-999	4	[0, 0, 0]	n/a	catFR1	0	R1271P
794.775	6.385	829824	REC_WORD	23.629	n/a	OCTOPUS	OceanAnimals	8	4	[0, 0, 0]	n/a	catFR1	0	R1271P
801.16	7.593	836209	REC_END	n/a	n/a	n/a	n/a	-999	4	[0, 0, 0]	n/a	catFR1	0	R1271P
808.753	0.5	843801	TRIAL	n/a	n/a	n/a	n/a	-999	5	[0, 0, 0]	n/a	catFR1	0	R1271P
809.253	10.428	844301	COUNTDOWN_START	n/a	n/a	n/a	n/a	-999	5	[0, 0, 0]	n/a	catFR1	0	R1271P
819.681	0.007	854729	COUNTDOWN_END	n/a	n/a	n/a	n/a	-999	5	[0, 0, 0]	n/a	catFR1	0	R1271P
819.688	1.601	854736	ORIENT	n/a	n/a	n/a	n/a	-999	5	[0, 0, 0]	n/a	catFR1	0	R1271P
821.289	2.268	856337	ORIENT_OFF	n/a	n/a	n/a	n/a	-999	5	[0, 0, 0]	n/a	catFR1	0	R1271P
823.557	1.617	858605	WORD	n/a	wordpools/wordpool_categorized_EN.txt	TABLE	Furniture	1	5	[0, 0, 0]	n/a	catFR1	0	R1271P
825.174	0.932	860222	WORD_OFF	n/a	n/a	TABLE	n/a	1	5	[0, 0, 0]	n/a	catFR1	0	R1271P
826.106	1.617	861153	WORD	n/a	wordpools/wordpool_categorized_EN.txt	RECLINER	Furniture	2	5	[0, 0, 0]	n/a	catFR1	0	R1271P
827.723	0.917	862770	WORD_OFF	n/a	n/a	RECLINER	n/a	2	5	[0, 0, 0]	n/a	catFR1	0	R1271P
828.64	1.618	863687	WORD	n/a	wordpools/wordpool_categorized_EN.txt	VAN	Vehicles	3	5	[0, 0, 0]	n/a	catFR1	0	R1271P
830.258	0.832	865305	WORD_OFF	n/a	n/a	VAN	n/a	3	5	[0, 0, 0]	n/a	catFR1	0	R1271P
831.09	1.617	866137	WORD	n/a	wordpools/wordpool_categorized_EN.txt	BIKE	Vehicles	4	5	[0, 0, 0]	n/a	catFR1	0	R1271P
832.707	0.967	867754	WORD_OFF	n/a	n/a	BIKE	n/a	4	5	[0, 0, 0]	n/a	catFR1	0	R1271P
833.674	1.601	868721	WORD	n/a	wordpools/wordpool_categorized_EN.txt	EAR	BodyParts	5	5	[0, 0, 0]	n/a	catFR1	0	R1271P
835.275	0.766	870322	WORD_OFF	n/a	n/a	EAR	n/a	5	5	[0, 0, 0]	n/a	catFR1	0	R1271P
836.041	1.617	871088	WORD	n/a	wordpools/wordpool_categorized_EN.txt	LEG	BodyParts	6	5	[0, 0, 0]	n/a	catFR1	0	R1271P
837.658	0.901	872705	WORD_OFF	n/a	n/a	LEG	n/a	6	5	[0, 0, 0]	n/a	catFR1	0	R1271P
838.559	1.617	873606	WORD	n/a	wordpools/wordpool_categorized_EN.txt	SOFA	Furniture	7	5	[0, 0, 0]	n/a	catFR1	0	R1271P
840.176	0.933	875223	WORD_OFF	n/a	n/a	SOFA	n/a	7	5	[0, 0, 0]	n/a	catFR1	0	R1271P
841.109	1.617	876156	WORD	n/a	wordpools/wordpool_categorized_EN.txt	COUCH	Furniture	8	5	[0, 0, 0]	n/a	catFR1	0	R1271P
842.726	0.834	877773	WORD_OFF	n/a	n/a	COUCH	n/a	8	5	[0, 0, 0]	n/a	catFR1	0	R1271P
843.56	1.617	878607	WORD	n/a	wordpools/wordpool_categorized_EN.txt	TRUCK	Vehicles	9	5	[0, 0, 0]	n/a	catFR1	0	R1271P
845.177	0.816	880223	WORD_OFF	n/a	n/a	TRUCK	n/a	9	5	[0, 0, 0]	n/a	catFR1	0	R1271P
845.993	1.617	881039	WORD	n/a	wordpools/wordpool_categorized_EN.txt	MOPED	Vehicles	10	5	[0, 0, 0]	n/a	catFR1	0	R1271P
847.61	0.868	882656	WORD_OFF	n/a	n/a	MOPED	n/a	10	5	[0, 0, 0]	n/a	catFR1	0	R1271P
848.478	1.616	883524	WORD	n/a	wordpools/wordpool_categorized_EN.txt	ELBOW	BodyParts	11	5	[0, 0, 0]	n/a	catFR1	0	R1271P
850.094	0.967	885140	WORD_OFF	n/a	n/a	ELBOW	n/a	11	5	[0, 0, 0]	n/a	catFR1	0	R1271P
851.061	1.617	886107	WORD	n/a	wordpools/wordpool_categorized_EN.txt	HEAD	BodyParts	12	5	[0, 0, 0]	n/a	catFR1	0	R1271P
852.678	0.0	887724	ENCODING_END	n/a	n/a	n/a	n/a	-999	5	[0, 0, 0]	n/a	catFR1	0	R1271P
852.678	0.1	887724	WORD_OFF	n/a	n/a	HEAD	n/a	12	5	[0, 0, 0]	n/a	catFR1	0	R1271P
852.778	0.0	887824	DISTRACT_START	n/a	n/a	n/a	n/a	-999	5	[0, 0, 0]	n/a	catFR1	0	R1271P
852.778	0.016	887824	START	n/a	n/a	n/a	n/a	-999	6	[-999, -999, -999]	n/a	catFR1	0	R1271P
852.794	6.302	887840	PROB	6.277	n/a	n/a	n/a	-999	6	[9, 2, 6]	17.0	catFR1	0	R1271P
859.096	6.235	894142	PROB	6.207	n/a	n/a	n/a	-999	6	[2, 8, 6]	16.0	catFR1	0	R1271P
865.331	4.517	900376	PROB	4.483	n/a	n/a	n/a	-999	6	[9, 2, 3]	14.0	catFR1	0	R1271P
869.848	4.576	904893	PROB	4.576	n/a	n/a	n/a	-999	6	[2, 9, 6]	17.0	catFR1	0	R1271P
874.424	0.009	909469	STOP	n/a	n/a	n/a	n/a	-999	6	[-999, -999, -999]	n/a	catFR1	0	R1271P
874.433	0.532	909478	DISTRACT_END	n/a	n/a	n/a	n/a	-999	5	[0, 0, 0]	n/a	catFR1	0	R1271P
874.965	0.519	910010	RETRIEVAL_ORIENT	n/a	n/a	n/a	n/a	-999	5	[0, 0, 0]	n/a	catFR1	0	R1271P
875.484	1.684	910529	REC_START	n/a	n/a	n/a	n/a	-999	5	[0, 0, 0]	n/a	catFR1	0	R1271P
877.168	3.485	912213	REC_WORD	1.684	n/a	MOPED	Vehicles	10	5	[0, 0, 0]	n/a	catFR1	0	R1271P
880.653	24.841	915698	REC_WORD	5.169	n/a	TRUCK	Vehicles	9	5	[0, 0, 0]	n/a	catFR1	0	R1271P
905.494	5.211	940537	REC_END	n/a	n/a	n/a	n/a	-999	5	[0, 0, 0]	n/a	catFR1	0	R1271P
910.705	0.5	945748	TRIAL	n/a	n/a	n/a	n/a	-999	6	[0, 0, 0]	n/a	catFR1	0	R1271P
911.205	10.428	946248	COUNTDOWN_START	n/a	n/a	n/a	n/a	-999	6	[0, 0, 0]	n/a	catFR1	0	R1271P
921.633	0.008	956676	COUNTDOWN_END	n/a	n/a	n/a	n/a	-999	6	[0, 0, 0]	n/a	catFR1	0	R1271P
921.641	1.618	956684	ORIENT	n/a	n/a	n/a	n/a	-999	6	[0, 0, 0]	n/a	catFR1	0	R1271P
923.259	2.083	958301	ORIENT_OFF	n/a	n/a	n/a	n/a	-999	6	[0, 0, 0]	n/a	catFR1	0	R1271P
925.342	1.616	960384	WORD	n/a	wordpools/wordpool_categorized_EN.txt	LADLE	KitchenTools	1	6	[0, 0, 0]	n/a	catFR1	0	R1271P
926.958	0.917	962000	WORD_OFF	n/a	n/a	LADLE	n/a	1	6	[0, 0, 0]	n/a	catFR1	0	R1271P
927.875	1.618	962917	WORD	n/a	wordpools/wordpool_categorized_EN.txt	KNIFE	KitchenTools	2	6	[0, 0, 0]	n/a	catFR1	0	R1271P
929.493	0.784	964535	WORD_OFF	n/a	n/a	KNIFE	n/a	2	6	[0, 0, 0]	n/a	catFR1	0	R1271P
930.277	1.616	965319	WORD	n/a	wordpools/wordpool_categorized_EN.txt	HAND	BodyParts	3	6	[0, 0, 0]	n/a	catFR1	0	R1271P
931.893	0.816	966935	WORD_OFF	n/a	n/a	HAND	n/a	3	6	[0, 0, 0]	n/a	catFR1	0	R1271P
932.709	1.602	967751	WORD	n/a	wordpools/wordpool_categorized_EN.txt	NOSE	BodyParts	4	6	[0, 0, 0]	n/a	catFR1	0	R1271P
934.311	0.85	969353	WORD_OFF	n/a	n/a	NOSE	n/a	4	6	[0, 0, 0]	n/a	catFR1	0	R1271P
935.161	1.616	970203	WORD	n/a	wordpools/wordpool_categorized_EN.txt	LIGHTNING	Weather	5	6	[0, 0, 0]	n/a	catFR1	0	R1271P
936.777	0.85	971819	WORD_OFF	n/a	n/a	LIGHTNING	n/a	5	6	[0, 0, 0]	n/a	catFR1	0	R1271P
937.627	1.618	972669	WORD	n/a	wordpools/wordpool_categorized_EN.txt	FOG	Weather	6	6	[0, 0, 0]	n/a	catFR1	0	R1271P
939.245	0.917	974287	WORD_OFF	n/a	n/a	FOG	n/a	6	6	[0, 0, 0]	n/a	catFR1	0	R1271P
940.162	1.616	975204	WORD	n/a	wordpools/wordpool_categorized_EN.txt	FOOT	BodyParts	7	6	[0, 0, 0]	n/a	catFR1	0	R1271P
941.778	0.883	976820	WORD_OFF	n/a	n/a	FOOT	n/a	7	6	[0, 0, 0]	n/a	catFR1	0	R1271P
942.661	1.601	977702	WORD	n/a	wordpools/wordpool_categorized_EN.txt	TOE	BodyParts	8	6	[0, 0, 0]	n/a	catFR1	0	R1271P
944.262	0.8	979303	WORD_OFF	n/a	n/a	TOE	n/a	8	6	[0, 0, 0]	n/a	catFR1	0	R1271P
945.062	1.617	980103	WORD	n/a	wordpools/wordpool_categorized_EN.txt	TONGS	KitchenTools	9	6	[0, 0, 0]	n/a	catFR1	0	R1271P
946.679	0.95	981720	WORD_OFF	n/a	n/a	TONGS	n/a	9	6	[0, 0, 0]	n/a	catFR1	0	R1271P
947.629	1.601	982670	WORD	n/a	wordpools/wordpool_categorized_EN.txt	FORK	KitchenTools	10	6	[0, 0, 0]	n/a	catFR1	0	R1271P
949.23	0.816	984271	WORD_OFF	n/a	n/a	FORK	n/a	10	6	[0, 0, 0]	n/a	catFR1	0	R1271P
950.046	1.617	985087	WORD	n/a	wordpools/wordpool_categorized_EN.txt	CLOUD	Weather	11	6	[0, 0, 0]	n/a	catFR1	0	R1271P
951.663	0.801	986704	WORD_OFF	n/a	n/a	CLOUD	n/a	11	6	[0, 0, 0]	n/a	catFR1	0	R1271P
952.464	1.616	987505	WORD	n/a	wordpools/wordpool_categorized_EN.txt	RAIN	Weather	12	6	[0, 0, 0]	n/a	catFR1	0	R1271P
954.08	0.0	989121	ENCODING_END	n/a	n/a	n/a	n/a	-999	6	[0, 0, 0]	n/a	catFR1	0	R1271P
954.08	0.146	989121	WORD_OFF	n/a	n/a	RAIN	n/a	12	6	[0, 0, 0]	n/a	catFR1	0	R1271P
954.226	0.0	989267	DISTRACT_START	n/a	n/a	n/a	n/a	-999	6	[0, 0, 0]	n/a	catFR1	0	R1271P
954.226	0.022	989267	START	n/a	n/a	n/a	n/a	-999	7	[-999, -999, -999]	n/a	catFR1	0	R1271P
954.248	5.733	989289	PROB	5.702	n/a	n/a	n/a	-999	7	[7, 1, 2]	10.0	catFR1	0	R1271P
959.981	4.668	995022	PROB	4.634	n/a	n/a	n/a	-999	7	[7, 9, 1]	17.0	catFR1	0	R1271P
964.649	4.267	999689	PROB	4.229	n/a	n/a	n/a	-999	7	[4, 5, 9]	18.0	catFR1	0	R1271P
968.916	3.285	1003956	PROB	3.252	n/a	n/a	n/a	-999	7	[2, 5, 5]	12.0	catFR1	0	R1271P
972.201	4.494	1007241	PROB	4.494	n/a	n/a	n/a	-999	7	[6, 4, 4]	14.0	catFR1	0	R1271P
976.695	0.006	1011735	STOP	n/a	n/a	n/a	n/a	-999	7	[-999, -999, -999]	n/a	catFR1	0	R1271P
976.701	0.618	1011741	DISTRACT_END	n/a	n/a	n/a	n/a	-999	6	[0, 0, 0]	n/a	catFR1	0	R1271P
977.319	0.516	1012359	RETRIEVAL_ORIENT	n/a	n/a	n/a	n/a	-999	6	[0, 0, 0]	n/a	catFR1	0	R1271P
977.835	2.094	1012875	REC_START	n/a	n/a	n/a	n/a	-999	6	[0, 0, 0]	n/a	catFR1	0	R1271P
979.929	1.387	1014969	REC_WORD_VV	2.094	n/a	<>	n/a	-999	6	[0, 0, 0]	n/a	catFR1	0	R1271P
981.316	2.021	1016355	REC_WORD	3.481	n/a	LADLE	KitchenTools	1	6	[0, 0, 0]	n/a	catFR1	0	R1271P
983.337	2.024	1018376	REC_WORD	5.502	n/a	FORK	KitchenTools	10	6	[0, 0, 0]	n/a	catFR1	0	R1271P
985.361	4.36	1020400	REC_WORD	7.526	n/a	PANTS	n/a	-999	6	[0, 0, 0]	n/a	catFR1	0	R1271P
989.721	14.074	1024760	REC_WORD_VV	11.886	n/a	<>	n/a	-999	6	[0, 0, 0]	n/a	catFR1	0	R1271P
1003.795	1.004	1038833	REC_WORD_VV	25.96	n/a	<>	n/a	-999	6	[0, 0, 0]	n/a	catFR1	0	R1271P
1004.799	1.0	1039837	REC_WORD_VV	26.964	n/a	<>	n/a	-999	6	[0, 0, 0]	n/a	catFR1	0	R1271P
1005.799	1.0	1040837	REC_WORD_VV	27.964	n/a	<>	n/a	-999	6	[0, 0, 0]	n/a	catFR1	0	R1271P
1006.799	1.048	1041837	REC_WORD_VV	28.964	n/a	<>	n/a	-999	6	[0, 0, 0]	n/a	catFR1	0	R1271P
1007.847	5.445	1042885	REC_END	n/a	n/a	n/a	n/a	-999	6	[0, 0, 0]	n/a	catFR1	0	R1271P
1013.292	0.5	1048330	TRIAL	n/a	n/a	n/a	n/a	-999	7	[0, 0, 0]	n/a	catFR1	0	R1271P
1013.792	10.428	1048830	COUNTDOWN_START	n/a	n/a	n/a	n/a	-999	7	[0, 0, 0]	n/a	catFR1	0	R1271P
1024.22	0.008	1059257	COUNTDOWN_END	n/a	n/a	n/a	n/a	-999	7	[0, 0, 0]	n/a	catFR1	0	R1271P
1024.228	1.616	1059265	ORIENT	n/a	n/a	n/a	n/a	-999	7	[0, 0, 0]	n/a	catFR1	0	R1271P
1025.844	2.116	1060881	ORIENT_OFF	n/a	n/a	n/a	n/a	-999	7	[0, 0, 0]	n/a	catFR1	0	R1271P
1027.96	1.602	1062997	WORD	n/a	wordpools/wordpool_categorized_EN.txt	MOUNTAIN	Landscapes	1	7	[0, 0, 0]	n/a	catFR1	0	R1271P
1029.562	0.967	1064599	WORD_OFF	n/a	n/a	MOUNTAIN	n/a	1	7	[0, 0, 0]	n/a	catFR1	0	R1271P
1030.529	1.616	1065566	WORD	n/a	wordpools/wordpool_categorized_EN.txt	BEACH	Landscapes	2	7	[0, 0, 0]	n/a	catFR1	0	R1271P
1032.145	0.967	1067182	WORD_OFF	n/a	n/a	BEACH	n/a	2	7	[0, 0, 0]	n/a	catFR1	0	R1271P
1033.112	1.617	1068149	WORD	n/a	wordpools/wordpool_categorized_EN.txt	ELM	Trees	3	7	[0, 0, 0]	n/a	catFR1	0	R1271P
1034.729	0.983	1069766	WORD_OFF	n/a	n/a	ELM	n/a	3	7	[0, 0, 0]	n/a	catFR1	0	R1271P
1035.712	1.618	1070749	WORD	n/a	wordpools/wordpool_categorized_EN.txt	EVERGREEN	Trees	4	7	[0, 0, 0]	n/a	catFR1	0	R1271P
1037.33	0.967	1072367	WORD_OFF	n/a	n/a	EVERGREEN	n/a	4	7	[0, 0, 0]	n/a	catFR1	0	R1271P
1038.297	1.616	1073334	WORD	n/a	wordpools/wordpool_categorized_EN.txt	PASTRY	Desserts	5	7	[0, 0, 0]	n/a	catFR1	0	R1271P
1039.913	0.917	1074949	WORD_OFF	n/a	n/a	PASTRY	n/a	5	7	[0, 0, 0]	n/a	catFR1	0	R1271P
1040.83	1.618	1075866	WORD	n/a	wordpools/wordpool_categorized_EN.txt	JELLO	Desserts	6	7	[0, 0, 0]	n/a	catFR1	0	R1271P
1042.448	0.783	1077484	WORD_OFF	n/a	n/a	JELLO	n/a	6	7	[0, 0, 0]	n/a	catFR1	0	R1271P
1043.231	1.616	1078267	WORD	n/a	wordpools/wordpool_categorized_EN.txt	BIRCH	Trees	7	7	[0, 0, 0]	n/a	catFR1	0	R1271P
1044.847	0.8	1079883	WORD_OFF	n/a	n/a	BIRCH	n/a	7	7	[0, 0, 0]	n/a	catFR1	0	R1271P
1045.647	1.601	1080683	WORD	n/a	wordpools/wordpool_categorized_EN.txt	OAK	Trees	8	7	[0, 0, 0]	n/a	catFR1	0	R1271P
1047.248	0.951	1082284	WORD_OFF	n/a	n/a	OAK	n/a	8	7	[0, 0, 0]	n/a	catFR1	0	R1271P
1048.199	1.616	1083235	WORD	n/a	wordpools/wordpool_categorized_EN.txt	LAKE	Landscapes	9	7	[0, 0, 0]	n/a	catFR1	0	R1271P
1049.815	0.85	1084851	WORD_OFF	n/a	n/a	LAKE	n/a	9	7	[0, 0, 0]	n/a	catFR1	0	R1271P
1050.665	1.618	1085701	WORD	n/a	wordpools/wordpool_categorized_EN.txt	CREEK	Landscapes	10	7	[0, 0, 0]	n/a	catFR1	0	R1271P
1052.283	0.967	1087319	WORD_OFF	n/a	n/a	CREEK	n/a	10	7	[0, 0, 0]	n/a	catFR1	0	R1271P
1053.25	1.616	1088286	WORD	n/a	wordpools/wordpool_categorized_EN.txt	FUDGE	Desserts	11	7	[0, 0, 0]	n/a	catFR1	0	R1271P
1054.866	1.0	1089902	WORD_OFF	n/a	n/a	FUDGE	n/a	11	7	[0, 0, 0]	n/a	catFR1	0	R1271P
1055.866	1.618	1090902	WORD	n/a	wordpools/wordpool_categorized_EN.txt	BROWNIES	Desserts	12	7	[0, 0, 0]	n/a	catFR1	0	R1271P
1057.484	0.0	1092520	ENCODING_END	n/a	n/a	n/a	n/a	-999	7	[0, 0, 0]	n/a	catFR1	0	R1271P
1057.484	0.13	1092520	WORD_OFF	n/a	n/a	BROWNIES	n/a	12	7	[0, 0, 0]	n/a	catFR1	0	R1271P
1057.614	0.0	1092650	DISTRACT_START	n/a	n/a	n/a	n/a	-999	7	[0, 0, 0]	n/a	catFR1	0	R1271P
1057.614	0.019	1092650	START	n/a	n/a	n/a	n/a	-999	8	[-999, -999, -999]	n/a	catFR1	0	R1271P
1057.633	6.268	1092669	PROB	6.238	n/a	n/a	n/a	-999	8	[4, 9, 2]	15.0	catFR1	0	R1271P
1063.901	4.452	1098936	PROB	4.418	n/a	n/a	n/a	-999	8	[7, 7, 3]	17.0	catFR1	0	R1271P
1068.353	7.168	1103388	PROB	7.135	n/a	n/a	n/a	-999	8	[9, 5, 9]	23.0	catFR1	0	R1271P
1075.521	4.902	1110556	PROB	4.902	n/a	n/a	n/a	-999	8	[1, 2, 1]	4.0	catFR1	0	R1271P
1080.423	0.016	1115457	STOP	n/a	n/a	n/a	n/a	-999	8	[-999, -999, -999]	n/a	catFR1	0	R1271P
1080.439	0.698	1115473	DISTRACT_END	n/a	n/a	n/a	n/a	-999	7	[0, 0, 0]	n/a	catFR1	0	R1271P
1081.137	0.518	1116171	RETRIEVAL_ORIENT	n/a	n/a	n/a	n/a	-999	7	[0, 0, 0]	n/a	catFR1	0	R1271P
1081.655	2.684	1116689	REC_START	n/a	n/a	n/a	n/a	-999	7	[0, 0, 0]	n/a	catFR1	0	R1271P
1084.339	2.25	1119373	REC_WORD	2.684	n/a	MOUNTAIN	Landscapes	1	7	[0, 0, 0]	n/a	catFR1	0	R1271P
1086.589	0.541	1121623	REC_WORD	4.934	n/a	ELM	Trees	3	7	[0, 0, 0]	n/a	catFR1	0	R1271P
1087.13	4.658	1122164	REC_WORD	5.475	n/a	LAKE	Landscapes	9	7	[0, 0, 0]	n/a	catFR1	0	R1271P
1091.788	3.535	1126822	REC_WORD	10.133	n/a	BIRCH	Trees	7	7	[0, 0, 0]	n/a	catFR1	0	R1271P
1095.323	1.794	1130357	REC_WORD	13.668	n/a	EVERGREEN	Trees	4	7	[0, 0, 0]	n/a	catFR1	0	R1271P
1097.117	11.9	1132150	REC_WORD_VV	15.462	n/a	<>	n/a	-999	7	[0, 0, 0]	n/a	catFR1	0	R1271P
1109.017	2.651	1144050	REC_WORD	27.362	n/a	PRUNT	n/a	-999	7	[0, 0, 0]	n/a	catFR1	0	R1271P
1111.668	8.127	1146701	REC_END	n/a	n/a	n/a	n/a	-999	7	[0, 0, 0]	n/a	catFR1	0	R1271P
1119.795	0.5	1154827	TRIAL	n/a	n/a	n/a	n/a	-999	8	[0, 0, 0]	n/a	catFR1	0	R1271P
1120.295	10.428	1155327	COUNTDOWN_START	n/a	n/a	n/a	n/a	-999	8	[0, 0, 0]	n/a	catFR1	0	R1271P
1130.723	0.007	1165755	COUNTDOWN_END	n/a	n/a	n/a	n/a	-999	8	[0, 0, 0]	n/a	catFR1	0	R1271P
1130.73	1.618	1165762	ORIENT	n/a	n/a	n/a	n/a	-999	8	[0, 0, 0]	n/a	catFR1	0	R1271P
1132.348	2.117	1167380	ORIENT_OFF	n/a	n/a	n/a	n/a	-999	8	[0, 0, 0]	n/a	catFR1	0	R1271P
1134.465	1.616	1169497	WORD	n/a	wordpools/wordpool_categorized_EN.txt	DOOR	Building	1	8	[0, 0, 0]	n/a	catFR1	0	R1271P
1136.081	0.983	1171112	WORD_OFF	n/a	n/a	DOOR	n/a	1	8	[0, 0, 0]	n/a	catFR1	0	R1271P
1137.064	1.618	1172095	WORD	n/a	wordpools/wordpool_categorized_EN.txt	FOUNDATION	Building	2	8	[0, 0, 0]	n/a	catFR1	0	R1271P
1138.682	1.016	1173713	WORD_OFF	n/a	n/a	FOUNDATION	n/a	2	8	[0, 0, 0]	n/a	catFR1	0	R1271P
1139.698	1.619	1174729	WORD	n/a	wordpools/wordpool_categorized_EN.txt	MILK	Beverages	3	8	[0, 0, 0]	n/a	catFR1	0	R1271P
1141.317	0.983	1176348	WORD_OFF	n/a	n/a	MILK	n/a	3	8	[0, 0, 0]	n/a	catFR1	0	R1271P
1142.3	1.616	1177331	WORD	n/a	wordpools/wordpool_categorized_EN.txt	SODA	Beverages	4	8	[0, 0, 0]	n/a	catFR1	0	R1271P
1143.916	0.883	1178947	WORD_OFF	n/a	n/a	SODA	n/a	4	8	[0, 0, 0]	n/a	catFR1	0	R1271P
1144.799	1.618	1179830	WORD	n/a	wordpools/wordpool_categorized_EN.txt	PHONE	Electronics	5	8	[0, 0, 0]	n/a	catFR1	0	R1271P
1146.417	0.784	1181448	WORD_OFF	n/a	n/a	PHONE	n/a	5	8	[0, 0, 0]	n/a	catFR1	0	R1271P
1147.201	1.616	1182232	WORD	n/a	wordpools/wordpool_categorized_EN.txt	CALCULATOR	Electronics	6	8	[0, 0, 0]	n/a	catFR1	0	R1271P
1148.817	0.8	1183848	WORD_OFF	n/a	n/a	CALCULATOR	n/a	6	8	[0, 0, 0]	n/a	catFR1	0	R1271P
1149.617	1.618	1184648	WORD	n/a	wordpools/wordpool_categorized_EN.txt	HALLWAY	Building	7	8	[0, 0, 0]	n/a	catFR1	0	R1271P
1151.235	0.799	1186266	WORD_OFF	n/a	n/a	HALLWAY	n/a	7	8	[0, 0, 0]	n/a	catFR1	0	R1271P
1152.034	1.617	1187065	WORD	n/a	wordpools/wordpool_categorized_EN.txt	BATHROOM	Building	8	8	[0, 0, 0]	n/a	catFR1	0	R1271P
1153.651	0.951	1188682	WORD_OFF	n/a	n/a	BATHROOM	n/a	8	8	[0, 0, 0]	n/a	catFR1	0	R1271P
1154.602	1.617	1189633	WORD	n/a	wordpools/wordpool_categorized_EN.txt	COFFEE	Beverages	9	8	[0, 0, 0]	n/a	catFR1	0	R1271P
1156.219	0.816	1191249	WORD_OFF	n/a	n/a	COFFEE	n/a	9	8	[0, 0, 0]	n/a	catFR1	0	R1271P
1157.035	1.617	1192065	WORD	n/a	wordpools/wordpool_categorized_EN.txt	JUICE	Beverages	10	8	[0, 0, 0]	n/a	catFR1	0	R1271P
1158.652	0.768	1193682	WORD_OFF	n/a	n/a	JUICE	n/a	10	8	[0, 0, 0]	n/a	catFR1	0	R1271P
1159.42	1.616	1194450	WORD	n/a	wordpools/wordpool_categorized_EN.txt	SCANNER	Electronics	11	8	[0, 0, 0]	n/a	catFR1	0	R1271P
1161.036	0.95	1196066	WORD_OFF	n/a	n/a	SCANNER	n/a	11	8	[0, 0, 0]	n/a	catFR1	0	R1271P
1161.986	1.601	1197016	WORD	n/a	wordpools/wordpool_categorized_EN.txt	MICROWAVE	Electronics	12	8	[0, 0, 0]	n/a	catFR1	0	R1271P
1163.587	0.0	1198617	ENCODING_END	n/a	n/a	n/a	n/a	-999	8	[0, 0, 0]	n/a	catFR1	0	R1271P
1163.587	0.104	1198617	WORD_OFF	n/a	n/a	MICROWAVE	n/a	12	8	[0, 0, 0]	n/a	catFR1	0	R1271P
1163.691	0.0	1198721	DISTRACT_START	n/a	n/a	n/a	n/a	-999	8	[0, 0, 0]	n/a	catFR1	0	R1271P
1163.691	0.012	1198721	START	n/a	n/a	n/a	n/a	-999	9	[-999, -999, -999]	n/a	catFR1	0	R1271P
1163.703	5.118	1198733	PROB	5.079	n/a	n/a	n/a	-999	9	[1, 3, 9]	13.0	catFR1	0	R1271P
1168.821	3.735	1203851	PROB	3.707	n/a	n/a	n/a	-999	9	[5, 5, 6]	16.0	catFR1	0	R1271P
1172.556	4.333	1207586	PROB	4.299	n/a	n/a	n/a	-999	9	[1, 2, 5]	8.0	catFR1	0	R1271P
1176.889	5.768	1211918	PROB	5.742	n/a	n/a	n/a	-999	9	[3, 3, 5]	11.0	catFR1	0	R1271P
1182.657	4.814	1217686	PROB	4.814	n/a	n/a	n/a	-999	9	[1, 1, 5]	7.0	catFR1	0	R1271P
1187.471	0.021	1222500	STOP	n/a	n/a	n/a	n/a	-999	9	[-999, -999, -999]	n/a	catFR1	0	R1271P
1187.492	0.532	1222521	DISTRACT_END	n/a	n/a	n/a	n/a	-999	8	[0, 0, 0]	n/a	catFR1	0	R1271P
1188.024	0.519	1223053	RETRIEVAL_ORIENT	n/a	n/a	n/a	n/a	-999	8	[0, 0, 0]	n/a	catFR1	0	R1271P
1188.543	3.37	1223572	REC_START	n/a	n/a	n/a	n/a	-999	8	[0, 0, 0]	n/a	catFR1	0	R1271P
1191.913	2.504	1226942	REC_WORD	3.37	n/a	MILK	Beverages	3	8	[0, 0, 0]	n/a	catFR1	0	R1271P
1194.417	4.38	1229445	REC_WORD	5.874	n/a	JUICE	Beverages	10	8	[0, 0, 0]	n/a	catFR1	0	R1271P
1198.797	0.442	1233825	REC_WORD_VV	10.254	n/a	<>	n/a	-999	8	[0, 0, 0]	n/a	catFR1	0	R1271P
1199.239	5.319	1234267	REC_WORD	10.696	n/a	FOUNDATION	Building	2	8	[0, 0, 0]	n/a	catFR1	0	R1271P
1204.558	13.996	1239586	REC_WORD	16.015	n/a	STAIRS	n/a	-999	8	[0, 0, 0]	n/a	catFR1	0	R1271P
1218.554	5.144	1253581	REC_END	n/a	n/a	n/a	n/a	-999	8	[0, 0, 0]	n/a	catFR1	0	R1271P
1223.698	0.5	1258725	TRIAL	n/a	n/a	n/a	n/a	-999	9	[0, 0, 0]	n/a	catFR1	0	R1271P
1224.198	10.428	1259225	COUNTDOWN_START	n/a	n/a	n/a	n/a	-999	9	[0, 0, 0]	n/a	catFR1	0	R1271P
1234.626	0.007	1269652	COUNTDOWN_END	n/a	n/a	n/a	n/a	-999	9	[0, 0, 0]	n/a	catFR1	0	R1271P
1234.633	1.618	1269659	ORIENT	n/a	n/a	n/a	n/a	-999	9	[0, 0, 0]	n/a	catFR1	0	R1271P
1236.251	2.2	1271277	ORIENT_OFF	n/a	n/a	n/a	n/a	-999	9	[0, 0, 0]	n/a	catFR1	0	R1271P
1238.451	1.616	1273477	WORD	n/a	wordpools/wordpool_categorized_EN.txt	ROBIN	Birds	1	9	[0, 0, 0]	n/a	catFR1	0	R1271P
1240.067	0.834	1275093	WORD_OFF	n/a	n/a	ROBIN	n/a	1	9	[0, 0, 0]	n/a	catFR1	0	R1271P
1240.901	1.618	1275927	WORD	n/a	wordpools/wordpool_categorized_EN.txt	CARDINAL	Birds	2	9	[0, 0, 0]	n/a	catFR1	0	R1271P
1242.519	0.95	1277545	WORD_OFF	n/a	n/a	CARDINAL	n/a	2	9	[0, 0, 0]	n/a	catFR1	0	R1271P
1243.469	1.616	1278495	WORD	n/a	wordpools/wordpool_categorized_EN.txt	FREEZER	Appliances	3	9	[0, 0, 0]	n/a	catFR1	0	R1271P
1245.085	0.833	1280111	WORD_OFF	n/a	n/a	FREEZER	n/a	3	9	[0, 0, 0]	n/a	catFR1	0	R1271P
1245.918	1.602	1280944	WORD	n/a	wordpools/wordpool_categorized_EN.txt	MIXER	Appliances	4	9	[0, 0, 0]	n/a	catFR1	0	R1271P
1247.52	1.0	1282546	WORD_OFF	n/a	n/a	MIXER	n/a	4	9	[0, 0, 0]	n/a	catFR1	0	R1271P
1248.52	1.616	1283546	WORD	n/a	wordpools/wordpool_categorized_EN.txt	CABINET	Furniture	5	9	[0, 0, 0]	n/a	catFR1	0	R1271P
1250.136	0.9	1285162	WORD_OFF	n/a	n/a	CABINET	n/a	5	9	[0, 0, 0]	n/a	catFR1	0	R1271P
1251.036	1.617	1286062	WORD	n/a	wordpools/wordpool_categorized_EN.txt	BOOKCASE	Furniture	6	9	[0, 0, 0]	n/a	catFR1	0	R1271P
1252.653	0.868	1287678	WORD_OFF	n/a	n/a	BOOKCASE	n/a	6	9	[0, 0, 0]	n/a	catFR1	0	R1271P
1253.521	1.616	1288546	WORD	n/a	wordpools/wordpool_categorized_EN.txt	HAWK	Birds	7	9	[0, 0, 0]	n/a	catFR1	0	R1271P
1255.137	1.018	1290162	WORD_OFF	n/a	n/a	HAWK	n/a	7	9	[0, 0, 0]	n/a	catFR1	0	R1271P
1256.155	1.616	1291180	WORD	n/a	wordpools/wordpool_categorized_EN.txt	CROW	Birds	8	9	[0, 0, 0]	n/a	catFR1	0	R1271P
1257.771	0.933	1292796	WORD_OFF	n/a	n/a	CROW	n/a	8	9	[0, 0, 0]	n/a	catFR1	0	R1271P
1258.704	1.618	1293729	WORD	n/a	wordpools/wordpool_categorized_EN.txt	OVEN	Appliances	9	9	[0, 0, 0]	n/a	catFR1	0	R1271P
1260.322	0.884	1295347	WORD_OFF	n/a	n/a	OVEN	n/a	9	9	[0, 0, 0]	n/a	catFR1	0	R1271P
1261.206	1.616	1296231	WORD	n/a	wordpools/wordpool_categorized_EN.txt	REFRIGERATOR	Appliances	10	9	[0, 0, 0]	n/a	catFR1	0	R1271P
1262.822	0.933	1297847	WORD_OFF	n/a	n/a	REFRIGERATOR	n/a	10	9	[0, 0, 0]	n/a	catFR1	0	R1271P
1263.755	1.601	1298780	WORD	n/a	wordpools/wordpool_categorized_EN.txt	DESK	Furniture	11	9	[0, 0, 0]	n/a	catFR1	0	R1271P
1265.356	0.766	1300381	WORD_OFF	n/a	n/a	DESK	n/a	11	9	[0, 0, 0]	n/a	catFR1	0	R1271P
1266.122	1.617	1301147	WORD	n/a	wordpools/wordpool_categorized_EN.txt	BED	Furniture	12	9	[0, 0, 0]	n/a	catFR1	0	R1271P
1267.739	0.0	1302764	ENCODING_END	n/a	n/a	n/a	n/a	-999	9	[0, 0, 0]	n/a	catFR1	0	R1271P
1267.739	0.139	1302764	WORD_OFF	n/a	n/a	BED	n/a	12	9	[0, 0, 0]	n/a	catFR1	0	R1271P
1267.878	0.0	1302903	DISTRACT_START	n/a	n/a	n/a	n/a	-999	9	[0, 0, 0]	n/a	catFR1	0	R1271P
1267.878	0.011	1302903	START	n/a	n/a	n/a	n/a	-999	10	[-999, -999, -999]	n/a	catFR1	0	R1271P
1267.889	4.134	1302914	PROB	4.11	n/a	n/a	n/a	-999	10	[3, 2, 2]	7.0	catFR1	0	R1271P
1272.023	4.001	1307047	PROB	3.968	n/a	n/a	n/a	-999	10	[1, 9, 3]	13.0	catFR1	0	R1271P
1276.024	3.067	1311048	PROB	3.031	n/a	n/a	n/a	-999	10	[4, 3, 2]	9.0	catFR1	0	R1271P
1279.091	5.152	1314115	PROB	5.117	n/a	n/a	n/a	-999	10	[8, 3, 4]	15.0	catFR1	0	R1271P
1284.243	3.251	1319267	PROB	3.213	n/a	n/a	n/a	-999	10	[3, 3, 2]	8.0	catFR1	0	R1271P
1287.494	5.473	1322518	PROB	5.473	n/a	n/a	n/a	-999	10	[7, 7, 9]	23.0	catFR1	0	R1271P
1292.967	0.011	1327990	STOP	n/a	n/a	n/a	n/a	-999	10	[-999, -999, -999]	n/a	catFR1	0	R1271P
1292.978	0.683	1328001	DISTRACT_END	n/a	n/a	n/a	n/a	-999	9	[0, 0, 0]	n/a	catFR1	0	R1271P
1293.661	0.518	1328684	RETRIEVAL_ORIENT	n/a	n/a	n/a	n/a	-999	9	[0, 0, 0]	n/a	catFR1	0	R1271P
1294.179	3.609	1329202	REC_START	n/a	n/a	n/a	n/a	-999	9	[0, 0, 0]	n/a	catFR1	0	R1271P
1297.788	1.424	1332811	REC_WORD_VV	3.609	n/a	<>	n/a	-999	9	[0, 0, 0]	n/a	catFR1	0	R1271P
1299.212	2.087	1334235	REC_WORD	5.033	n/a	CARDINAL	Birds	2	9	[0, 0, 0]	n/a	catFR1	0	R1271P
1301.299	1.768	1336322	REC_WORD	7.12	n/a	HAWK	Birds	7	9	[0, 0, 0]	n/a	catFR1	0	R1271P
1303.067	4.962	1338090	REC_WORD	8.888	n/a	CROW	Birds	8	9	[0, 0, 0]	n/a	catFR1	0	R1271P
1308.029	6.092	1343052	REC_WORD_VV	13.85	n/a	<>	n/a	-999	9	[0, 0, 0]	n/a	catFR1	0	R1271P
1314.121	5.752	1349143	REC_WORD	19.942	n/a	REFRIGERATOR	Appliances	10	9	[0, 0, 0]	n/a	catFR1	0	R1271P
1319.873	4.317	1354895	REC_WORD	25.694	n/a	CABINET	Furniture	5	9	[0, 0, 0]	n/a	catFR1	0	R1271P
1324.19	4.995	1359212	REC_END	n/a	n/a	n/a	n/a	-999	9	[0, 0, 0]	n/a	catFR1	0	R1271P
1329.185	0.5	1364207	TRIAL	n/a	n/a	n/a	n/a	-999	10	[0, 0, 0]	n/a	catFR1	0	R1271P
1329.685	10.428	1364706	COUNTDOWN_START	n/a	n/a	n/a	n/a	-999	10	[0, 0, 0]	n/a	catFR1	0	R1271P
1340.113	0.007	1375134	COUNTDOWN_END	n/a	n/a	n/a	n/a	-999	10	[0, 0, 0]	n/a	catFR1	0	R1271P
1340.12	1.617	1375141	ORIENT	n/a	n/a	n/a	n/a	-999	10	[0, 0, 0]	n/a	catFR1	0	R1271P
1341.737	1.933	1376758	ORIENT_OFF	n/a	n/a	n/a	n/a	-999	10	[0, 0, 0]	n/a	catFR1	0	R1271P
1343.67	1.618	1378691	WORD	n/a	wordpools/wordpool_categorized_EN.txt	STAPLER	OfficeSupplies	1	10	[0, 0, 0]	n/a	catFR1	0	R1271P
1345.288	0.816	1380309	WORD_OFF	n/a	n/a	STAPLER	n/a	1	10	[0, 0, 0]	n/a	catFR1	0	R1271P
1346.104	1.617	1381125	WORD	n/a	wordpools/wordpool_categorized_EN.txt	BINDER	OfficeSupplies	2	10	[0, 0, 0]	n/a	catFR1	0	R1271P
1347.721	1.0	1382742	WORD_OFF	n/a	n/a	BINDER	n/a	2	10	[0, 0, 0]	n/a	catFR1	0	R1271P
1348.721	1.618	1383741	WORD	n/a	wordpools/wordpool_categorized_EN.txt	WATER	Beverages	3	10	[0, 0, 0]	n/a	catFR1	0	R1271P
1350.339	0.917	1385359	WORD_OFF	n/a	n/a	WATER	n/a	3	10	[0, 0, 0]	n/a	catFR1	0	R1271P
1351.256	1.616	1386276	WORD	n/a	wordpools/wordpool_categorized_EN.txt	COLA	Beverages	4	10	[0, 0, 0]	n/a	catFR1	0	R1271P
1352.872	0.867	1387892	WORD_OFF	n/a	n/a	COLA	n/a	4	10	[0, 0, 0]	n/a	catFR1	0	R1271P
1353.739	1.618	1388759	WORD	n/a	wordpools/wordpool_categorized_EN.txt	COW	FarmAnimals	5	10	[0, 0, 0]	n/a	catFR1	0	R1271P
1355.357	0.933	1390377	WORD_OFF	n/a	n/a	COW	n/a	5	10	[0, 0, 0]	n/a	catFR1	0	R1271P
1356.29	1.616	1391310	WORD	n/a	wordpools/wordpool_categorized_EN.txt	CHICKEN	FarmAnimals	6	10	[0, 0, 0]	n/a	catFR1	0	R1271P
1357.906	1.0	1392926	WORD_OFF	n/a	n/a	CHICKEN	n/a	6	10	[0, 0, 0]	n/a	catFR1	0	R1271P
1358.906	1.601	1393926	WORD	n/a	wordpools/wordpool_categorized_EN.txt	RUM	Beverages	7	10	[0, 0, 0]	n/a	catFR1	0	R1271P
1360.507	0.951	1395527	WORD_OFF	n/a	n/a	RUM	n/a	7	10	[0, 0, 0]	n/a	catFR1	0	R1271P
1361.458	1.616	1396478	WORD	n/a	wordpools/wordpool_categorized_EN.txt	CIDER	Beverages	8	10	[0, 0, 0]	n/a	catFR1	0	R1271P
1363.074	0.833	1398094	WORD_OFF	n/a	n/a	CIDER	n/a	8	10	[0, 0, 0]	n/a	catFR1	0	R1271P
1363.907	1.618	1398927	WORD	n/a	wordpools/wordpool_categorized_EN.txt	ERASER	OfficeSupplies	9	10	[0, 0, 0]	n/a	catFR1	0	R1271P
1365.525	0.817	1400545	WORD_OFF	n/a	n/a	ERASER	n/a	9	10	[0, 0, 0]	n/a	catFR1	0	R1271P
1366.342	1.616	1401362	WORD	n/a	wordpools/wordpool_categorized_EN.txt	RULER	OfficeSupplies	10	10	[0, 0, 0]	n/a	catFR1	0	R1271P
1367.958	0.8	1402978	WORD_OFF	n/a	n/a	RULER	n/a	10	10	[0, 0, 0]	n/a	catFR1	0	R1271P
1368.758	1.618	1403777	WORD	n/a	wordpools/wordpool_categorized_EN.txt	LAMB	FarmAnimals	11	10	[0, 0, 0]	n/a	catFR1	0	R1271P
1370.376	0.867	1405395	WORD_OFF	n/a	n/a	LAMB	n/a	11	10	[0, 0, 0]	n/a	catFR1	0	R1271P
1371.243	1.616	1406262	WORD	n/a	wordpools/wordpool_categorized_EN.txt	TURKEY	FarmAnimals	12	10	[0, 0, 0]	n/a	catFR1	0	R1271P
1372.859	0.0	1407878	ENCODING_END	n/a	n/a	n/a	n/a	-999	10	[0, 0, 0]	n/a	catFR1	0	R1271P
1372.859	0.101	1407878	WORD_OFF	n/a	n/a	TURKEY	n/a	12	10	[0, 0, 0]	n/a	catFR1	0	R1271P
1372.96	0.0	1407979	DISTRACT_START	n/a	n/a	n/a	n/a	-999	10	[0, 0, 0]	n/a	catFR1	0	R1271P
1372.96	0.016	1407979	START	n/a	n/a	n/a	n/a	-999	11	[-999, -999, -999]	n/a	catFR1	0	R1271P
1372.976	5.951	1407995	PROB	5.926	n/a	n/a	n/a	-999	11	[3, 8, 5]	16.0	catFR1	0	R1271P
1378.927	3.867	1413946	PROB	3.831	n/a	n/a	n/a	-999	11	[6, 2, 3]	11.0	catFR1	0	R1271P
1382.794	5.051	1417813	PROB	5.02	n/a	n/a	n/a	-999	11	[3, 4, 8]	15.0	catFR1	0	R1271P
1387.845	5.659	1422863	PROB	5.659	n/a	n/a	n/a	-999	11	[9, 2, 6]	17.0	catFR1	0	R1271P
1393.504	0.01	1428522	STOP	n/a	n/a	n/a	n/a	-999	11	[-999, -999, -999]	n/a	catFR1	0	R1271P
1393.514	0.532	1428532	DISTRACT_END	n/a	n/a	n/a	n/a	-999	10	[0, 0, 0]	n/a	catFR1	0	R1271P
1394.046	0.519	1429064	RETRIEVAL_ORIENT	n/a	n/a	n/a	n/a	-999	10	[0, 0, 0]	n/a	catFR1	0	R1271P
1394.565	3.529	1429583	REC_START	n/a	n/a	n/a	n/a	-999	10	[0, 0, 0]	n/a	catFR1	0	R1271P
1398.094	2.396	1433112	REC_WORD	3.529	n/a	STAPLER	OfficeSupplies	1	10	[0, 0, 0]	n/a	catFR1	0	R1271P
1400.49	15.535	1435508	REC_WORD	5.925	n/a	ERASER	OfficeSupplies	9	10	[0, 0, 0]	n/a	catFR1	0	R1271P
1416.025	1.0	1451042	REC_WORD_VV	21.46	n/a	<>	n/a	-999	10	[0, 0, 0]	n/a	catFR1	0	R1271P
1417.025	1.0	1452042	REC_WORD_VV	22.46	n/a	<>	n/a	-999	10	[0, 0, 0]	n/a	catFR1	0	R1271P
1418.025	0.96	1453042	REC_WORD_VV	23.46	n/a	<>	n/a	-999	10	[0, 0, 0]	n/a	catFR1	0	R1271P
1418.985	0.879	1454002	REC_WORD_VV	24.42	n/a	<>	n/a	-999	10	[0, 0, 0]	n/a	catFR1	0	R1271P
1419.864	4.713	1454881	REC_WORD_VV	25.299	n/a	<>	n/a	-999	10	[0, 0, 0]	n/a	catFR1	0	R1271P
1424.577	6.276	1459594	REC_END	n/a	n/a	n/a	n/a	-999	10	[0, 0, 0]	n/a	catFR1	0	R1271P
1430.853	0.5	1465869	TRIAL	n/a	n/a	n/a	n/a	-999	11	[0, 0, 0]	n/a	catFR1	0	R1271P
1431.353	10.428	1466369	COUNTDOWN_START	n/a	n/a	n/a	n/a	-999	11	[0, 0, 0]	n/a	catFR1	0	R1271P
1441.781	0.008	1476797	COUNTDOWN_END	n/a	n/a	n/a	n/a	-999	11	[0, 0, 0]	n/a	catFR1	0	R1271P
1441.789	1.618	1476805	ORIENT	n/a	n/a	n/a	n/a	-999	11	[0, 0, 0]	n/a	catFR1	0	R1271P
1443.407	1.95	1478423	ORIENT_OFF	n/a	n/a	n/a	n/a	-999	11	[0, 0, 0]	n/a	catFR1	0	R1271P
1445.357	1.616	1480373	WORD	n/a	wordpools/wordpool_categorized_EN.txt	TIGER	Zoo	1	11	[0, 0, 0]	n/a	catFR1	0	R1271P
1446.973	0.95	1481988	WORD_OFF	n/a	n/a	TIGER	n/a	1	11	[0, 0, 0]	n/a	catFR1	0	R1271P
1447.923	1.601	1482938	WORD	n/a	wordpools/wordpool_categorized_EN.txt	LION	Zoo	2	11	[0, 0, 0]	n/a	catFR1	0	R1271P
1449.524	0.784	1484539	WORD_OFF	n/a	n/a	LION	n/a	2	11	[0, 0, 0]	n/a	catFR1	0	R1271P
1450.308	1.616	1485323	WORD	n/a	wordpools/wordpool_categorized_EN.txt	CAR	Vehicles	3	11	[0, 0, 0]	n/a	catFR1	0	R1271P
1451.924	0.85	1486939	WORD_OFF	n/a	n/a	CAR	n/a	3	11	[0, 0, 0]	n/a	catFR1	0	R1271P
1452.774	1.618	1487789	WORD	n/a	wordpools/wordpool_categorized_EN.txt	SCOOTER	Vehicles	4	11	[0, 0, 0]	n/a	catFR1	0	R1271P
1454.392	0.85	1489407	WORD_OFF	n/a	n/a	SCOOTER	n/a	4	11	[0, 0, 0]	n/a	catFR1	0	R1271P
1455.242	1.616	1490257	WORD	n/a	wordpools/wordpool_categorized_EN.txt	TEA	Beverages	5	11	[0, 0, 0]	n/a	catFR1	0	R1271P
1456.858	0.8	1491873	WORD_OFF	n/a	n/a	TEA	n/a	5	11	[0, 0, 0]	n/a	catFR1	0	R1271P
1457.658	1.618	1492673	WORD	n/a	wordpools/wordpool_categorized_EN.txt	WINE	Beverages	6	11	[0, 0, 0]	n/a	catFR1	0	R1271P
1459.276	0.816	1494291	WORD_OFF	n/a	n/a	WINE	n/a	6	11	[0, 0, 0]	n/a	catFR1	0	R1271P
1460.092	1.617	1495107	WORD	n/a	wordpools/wordpool_categorized_EN.txt	PLANE	Vehicles	7	11	[0, 0, 0]	n/a	catFR1	0	R1271P
1461.709	0.835	1496724	WORD_OFF	n/a	n/a	PLANE	n/a	7	11	[0, 0, 0]	n/a	catFR1	0	R1271P
1462.544	1.617	1497559	WORD	n/a	wordpools/wordpool_categorized_EN.txt	JEEP	Vehicles	8	11	[0, 0, 0]	n/a	catFR1	0	R1271P
1464.161	0.782	1499176	WORD_OFF	n/a	n/a	JEEP	n/a	8	11	[0, 0, 0]	n/a	catFR1	0	R1271P
1464.943	1.618	1499957	WORD	n/a	wordpools/wordpool_categorized_EN.txt	ZEBRA	Zoo	9	11	[0, 0, 0]	n/a	catFR1	0	R1271P
1466.561	0.817	1501575	WORD_OFF	n/a	n/a	ZEBRA	n/a	9	11	[0, 0, 0]	n/a	catFR1	0	R1271P
1467.378	1.616	1502392	WORD	n/a	wordpools/wordpool_categorized_EN.txt	CHIMPANZEE	Zoo	10	11	[0, 0, 0]	n/a	catFR1	0	R1271P
1468.994	0.8	1504008	WORD_OFF	n/a	n/a	CHIMPANZEE	n/a	10	11	[0, 0, 0]	n/a	catFR1	0	R1271P
1469.794	1.618	1504808	WORD	n/a	wordpools/wordpool_categorized_EN.txt	BEER	Beverages	11	11	[0, 0, 0]	n/a	catFR1	0	R1271P
1471.412	0.95	1506426	WORD_OFF	n/a	n/a	BEER	n/a	11	11	[0, 0, 0]	n/a	catFR1	0	R1271P
1472.362	1.616	1507376	WORD	n/a	wordpools/wordpool_categorized_EN.txt	LEMONADE	Beverages	12	11	[0, 0, 0]	n/a	catFR1	0	R1271P
1473.978	0.0	1508992	ENCODING_END	n/a	n/a	n/a	n/a	-999	11	[0, 0, 0]	n/a	catFR1	0	R1271P
1473.978	0.103	1508992	WORD_OFF	n/a	n/a	LEMONADE	n/a	12	11	[0, 0, 0]	n/a	catFR1	0	R1271P
1474.081	0.0	1509095	DISTRACT_START	n/a	n/a	n/a	n/a	-999	11	[0, 0, 0]	n/a	catFR1	0	R1271P
1474.081	0.014	1509095	START	n/a	n/a	n/a	n/a	-999	12	[-999, -999, -999]	n/a	catFR1	0	R1271P
1474.095	4.485	1509109	PROB	4.456	n/a	n/a	n/a	-999	12	[8, 8, 1]	17.0	catFR1	0	R1271P
1478.58	3.867	1513594	PROB	3.836	n/a	n/a	n/a	-999	12	[2, 3, 1]	6.0	catFR1	0	R1271P
1482.447	6.617	1517461	PROB	6.583	n/a	n/a	n/a	-999	12	[8, 3, 8]	19.0	catFR1	0	R1271P
1489.064	4.084	1524077	PROB	4.047	n/a	n/a	n/a	-999	12	[5, 9, 1]	15.0	catFR1	0	R1271P
1493.148	2.963	1528161	PROB	2.963	n/a	n/a	n/a	-999	12	[1, 4, 2]	7.0	catFR1	0	R1271P
1496.111	0.022	1531124	STOP	n/a	n/a	n/a	n/a	-999	12	[-999, -999, -999]	n/a	catFR1	0	R1271P
1496.133	0.583	1531146	DISTRACT_END	n/a	n/a	n/a	n/a	-999	11	[0, 0, 0]	n/a	catFR1	0	R1271P
1496.716	0.518	1531729	RETRIEVAL_ORIENT	n/a	n/a	n/a	n/a	-999	11	[0, 0, 0]	n/a	catFR1	0	R1271P
1497.234	1.933	1532247	REC_START	n/a	n/a	n/a	n/a	-999	11	[0, 0, 0]	n/a	catFR1	0	R1271P
1499.167	1.778	1534180	REC_WORD	1.933	n/a	TIGER	Zoo	1	11	[0, 0, 0]	n/a	catFR1	0	R1271P
1500.945	1.276	1535958	REC_WORD	3.711	n/a	LION	Zoo	2	11	[0, 0, 0]	n/a	catFR1	0	R1271P
1502.221	13.384	1537234	REC_WORD	4.987	n/a	ZEBRA	Zoo	9	11	[0, 0, 0]	n/a	catFR1	0	R1271P
1515.605	4.256	1550617	REC_WORD_VV	18.371	n/a	<>	n/a	-999	11	[0, 0, 0]	n/a	catFR1	0	R1271P
1519.861	7.384	1554873	REC_WORD_VV	22.627	n/a	<>	n/a	-999	11	[0, 0, 0]	n/a	catFR1	0	R1271P
1527.245	5.228	1562256	REC_END	n/a	n/a	n/a	n/a	-999	11	[0, 0, 0]	n/a	catFR1	0	R1271P
1532.473	0.5	1567484	TRIAL	n/a	n/a	n/a	n/a	-999	12	[0, 0, 0]	n/a	catFR1	0	R1271P
1532.973	10.428	1567984	COUNTDOWN_START	n/a	n/a	n/a	n/a	-999	12	[0, 0, 0]	n/a	catFR1	0	R1271P
1543.401	0.008	1578411	COUNTDOWN_END	n/a	n/a	n/a	n/a	-999	12	[0, 0, 0]	n/a	catFR1	0	R1271P
1543.409	1.616	1578419	ORIENT	n/a	n/a	n/a	n/a	-999	12	[0, 0, 0]	n/a	catFR1	0	R1271P
1545.025	1.933	1580035	ORIENT_OFF	n/a	n/a	n/a	n/a	-999	12	[0, 0, 0]	n/a	catFR1	0	R1271P
1546.958	1.602	1581968	WORD	n/a	wordpools/wordpool_categorized_EN.txt	MOTH	Insects	1	12	[0, 0, 0]	n/a	catFR1	0	R1271P
1548.56	0.9	1583570	WORD_OFF	n/a	n/a	MOTH	n/a	1	12	[0, 0, 0]	n/a	catFR1	0	R1271P
1549.46	1.616	1584470	WORD	n/a	wordpools/wordpool_categorized_EN.txt	GNAT	Insects	2	12	[0, 0, 0]	n/a	catFR1	0	R1271P
1551.076	0.767	1586086	WORD_OFF	n/a	n/a	GNAT	n/a	2	12	[0, 0, 0]	n/a	catFR1	0	R1271P
1551.843	1.618	1586853	WORD	n/a	wordpools/wordpool_categorized_EN.txt	LILAC	Flowers	3	12	[0, 0, 0]	n/a	catFR1	0	R1271P
1553.461	0.9	1588471	WORD_OFF	n/a	n/a	LILAC	n/a	3	12	[0, 0, 0]	n/a	catFR1	0	R1271P
1554.361	1.616	1589371	WORD	n/a	wordpools/wordpool_categorized_EN.txt	VIOLET	Flowers	4	12	[0, 0, 0]	n/a	catFR1	0	R1271P
1555.977	0.8	1590987	WORD_OFF	n/a	n/a	VIOLET	n/a	4	12	[0, 0, 0]	n/a	catFR1	0	R1271P
1556.777	1.618	1591787	WORD	n/a	wordpools/wordpool_categorized_EN.txt	WIND	Weather	5	12	[0, 0, 0]	n/a	catFR1	0	R1271P
1558.395	0.833	1593405	WORD_OFF	n/a	n/a	WIND	n/a	5	12	[0, 0, 0]	n/a	catFR1	0	R1271P
1559.228	1.616	1594238	WORD	n/a	wordpools/wordpool_categorized_EN.txt	HUMIDITY	Weather	6	12	[0, 0, 0]	n/a	catFR1	0	R1271P
1560.844	0.917	1595854	WORD_OFF	n/a	n/a	HUMIDITY	n/a	6	12	[0, 0, 0]	n/a	catFR1	0	R1271P
1561.761	1.601	1596770	WORD	n/a	wordpools/wordpool_categorized_EN.txt	ORCHID	Flowers	7	12	[0, 0, 0]	n/a	catFR1	0	R1271P
1563.362	0.884	1598371	WORD_OFF	n/a	n/a	ORCHID	n/a	7	12	[0, 0, 0]	n/a	catFR1	0	R1271P
1564.246	1.616	1599255	WORD	n/a	wordpools/wordpool_categorized_EN.txt	CARNATION	Flowers	8	12	[0, 0, 0]	n/a	catFR1	0	R1271P
1565.862	0.867	1600871	WORD_OFF	n/a	n/a	CARNATION	n/a	8	12	[0, 0, 0]	n/a	catFR1	0	R1271P
1566.729	1.618	1601738	WORD	n/a	wordpools/wordpool_categorized_EN.txt	FLY	Insects	9	12	[0, 0, 0]	n/a	catFR1	0	R1271P
1568.347	0.917	1603356	WORD_OFF	n/a	n/a	FLY	n/a	9	12	[0, 0, 0]	n/a	catFR1	0	R1271P
1569.264	1.616	1604273	WORD	n/a	wordpools/wordpool_categorized_EN.txt	MOSQUITO	Insects	10	12	[0, 0, 0]	n/a	catFR1	0	R1271P
1570.88	0.816	1605889	WORD_OFF	n/a	n/a	MOSQUITO	n/a	10	12	[0, 0, 0]	n/a	catFR1	0	R1271P
1571.696	1.618	1606705	WORD	n/a	wordpools/wordpool_categorized_EN.txt	THUNDER	Weather	11	12	[0, 0, 0]	n/a	catFR1	0	R1271P
1573.314	0.951	1608323	WORD_OFF	n/a	n/a	THUNDER	n/a	11	12	[0, 0, 0]	n/a	catFR1	0	R1271P
1574.265	1.616	1609274	WORD	n/a	wordpools/wordpool_categorized_EN.txt	TORNADO	Weather	12	12	[0, 0, 0]	n/a	catFR1	0	R1271P
1575.881	0.0	1610890	ENCODING_END	n/a	n/a	n/a	n/a	-999	12	[0, 0, 0]	n/a	catFR1	0	R1271P
1575.881	0.133	1610890	WORD_OFF	n/a	n/a	TORNADO	n/a	12	12	[0, 0, 0]	n/a	catFR1	0	R1271P
1576.014	0.0	1611023	DISTRACT_START	n/a	n/a	n/a	n/a	-999	12	[0, 0, 0]	n/a	catFR1	0	R1271P
1576.014	0.017	1611023	START	n/a	n/a	n/a	n/a	-999	13	[-999, -999, -999]	n/a	catFR1	0	R1271P
1576.031	3.817	1611040	PROB	3.791	n/a	n/a	n/a	-999	13	[7, 7, 7]	21.0	catFR1	0	R1271P
1579.848	6.084	1614857	PROB	6.055	n/a	n/a	n/a	-999	13	[7, 4, 7]	18.0	catFR1	0	R1271P
1585.932	4.901	1620940	PROB	4.875	n/a	n/a	n/a	-999	13	[7, 9, 7]	23.0	catFR1	0	R1271P
1590.833	4.452	1625841	PROB	4.415	n/a	n/a	n/a	-999	13	[4, 4, 7]	15.0	catFR1	0	R1271P
1595.285	5.616	1630293	PROB	5.616	n/a	n/a	n/a	-999	13	[9, 1, 8]	18.0	catFR1	0	R1271P
1600.901	0.018	1635908	STOP	n/a	n/a	n/a	n/a	-999	13	[-999, -999, -999]	n/a	catFR1	0	R1271P
1600.919	0.617	1635926	DISTRACT_END	n/a	n/a	n/a	n/a	-999	12	[0, 0, 0]	n/a	catFR1	0	R1271P
1601.536	0.517	1636543	RETRIEVAL_ORIENT	n/a	n/a	n/a	n/a	-999	12	[0, 0, 0]	n/a	catFR1	0	R1271P
1602.053	1.621	1637060	REC_START	n/a	n/a	n/a	n/a	-999	12	[0, 0, 0]	n/a	catFR1	0	R1271P
1603.674	1.535	1638681	REC_WORD	1.621	n/a	MOTH	Insects	1	12	[0, 0, 0]	n/a	catFR1	0	R1271P
1605.209	2.807	1640216	REC_WORD	3.156	n/a	GNAT	Insects	2	12	[0, 0, 0]	n/a	catFR1	0	R1271P
1608.016	2.944	1643023	REC_WORD	5.963	n/a	FLY	Insects	9	12	[0, 0, 0]	n/a	catFR1	0	R1271P
1610.96	5.054	1645967	REC_WORD	8.907	n/a	LILAC	Flowers	3	12	[0, 0, 0]	n/a	catFR1	0	R1271P
1616.014	6.238	1651021	REC_WORD	13.961	n/a	ORCHID	Flowers	7	12	[0, 0, 0]	n/a	catFR1	0	R1271P
1622.252	1.0	1657258	REC_WORD_VV	20.199	n/a	<>	n/a	-999	12	[0, 0, 0]	n/a	catFR1	0	R1271P
1623.252	1.325	1658258	REC_WORD_VV	21.199	n/a	<>	n/a	-999	12	[0, 0, 0]	n/a	catFR1	0	R1271P
1624.577	4.279	1659583	REC_WORD_VV	22.524	n/a	<>	n/a	-999	12	[0, 0, 0]	n/a	catFR1	0	R1271P
1628.856	3.208	1663862	REC_WORD_VV	26.803	n/a	<>	n/a	-999	12	[0, 0, 0]	n/a	catFR1	0	R1271P
1632.064	5.011	1667070	REC_END	n/a	n/a	n/a	n/a	-999	12	[0, 0, 0]	n/a	catFR1	0	R1271P
1637.075	0.5	1672081	TRIAL	n/a	n/a	n/a	n/a	-999	13	[0, 0, 0]	n/a	catFR1	0	R1271P
1637.575	10.428	1672581	COUNTDOWN_START	n/a	n/a	n/a	n/a	-999	13	[0, 0, 0]	n/a	catFR1	0	R1271P
1648.003	0.008	1683008	COUNTDOWN_END	n/a	n/a	n/a	n/a	-999	13	[0, 0, 0]	n/a	catFR1	0	R1271P
1648.011	1.617	1683016	ORIENT	n/a	n/a	n/a	n/a	-999	13	[0, 0, 0]	n/a	catFR1	0	R1271P
1649.628	2.05	1684633	ORIENT_OFF	n/a	n/a	n/a	n/a	-999	13	[0, 0, 0]	n/a	catFR1	0	R1271P
1651.678	1.618	1686683	WORD	n/a	wordpools/wordpool_categorized_EN.txt	THUNDERSTORM	Weather	1	13	[0, 0, 0]	n/a	catFR1	0	R1271P
1653.296	0.867	1688301	WORD_OFF	n/a	n/a	THUNDERSTORM	n/a	1	13	[0, 0, 0]	n/a	catFR1	0	R1271P
1654.163	1.616	1689168	WORD	n/a	wordpools/wordpool_categorized_EN.txt	DRIZZLE	Weather	2	13	[0, 0, 0]	n/a	catFR1	0	R1271P
1655.779	0.833	1690784	WORD_OFF	n/a	n/a	DRIZZLE	n/a	2	13	[0, 0, 0]	n/a	catFR1	0	R1271P
1656.612	1.618	1691617	WORD	n/a	wordpools/wordpool_categorized_EN.txt	COOKIE	Desserts	3	13	[0, 0, 0]	n/a	catFR1	0	R1271P
1658.23	0.783	1693235	WORD_OFF	n/a	n/a	COOKIE	n/a	3	13	[0, 0, 0]	n/a	catFR1	0	R1271P
1659.013	1.617	1694017	WORD	n/a	wordpools/wordpool_categorized_EN.txt	CHEESECAKE	Desserts	4	13	[0, 0, 0]	n/a	catFR1	0	R1271P
1660.63	0.868	1695634	WORD_OFF	n/a	n/a	CHEESECAKE	n/a	4	13	[0, 0, 0]	n/a	catFR1	0	R1271P
1661.498	1.616	1696502	WORD	n/a	wordpools/wordpool_categorized_EN.txt	PAPER	OfficeSupplies	5	13	[0, 0, 0]	n/a	catFR1	0	R1271P
1663.114	0.95	1698118	WORD_OFF	n/a	n/a	PAPER	n/a	5	13	[0, 0, 0]	n/a	catFR1	0	R1271P
1664.064	1.617	1699068	WORD	n/a	wordpools/wordpool_categorized_EN.txt	NOTEBOOK	OfficeSupplies	6	13	[0, 0, 0]	n/a	catFR1	0	R1271P
1665.681	0.95	1700685	WORD_OFF	n/a	n/a	NOTEBOOK	n/a	6	13	[0, 0, 0]	n/a	catFR1	0	R1271P
1666.631	1.618	1701635	WORD	n/a	wordpools/wordpool_categorized_EN.txt	SNOW	Weather	7	13	[0, 0, 0]	n/a	catFR1	0	R1271P
1668.249	0.866	1703253	WORD_OFF	n/a	n/a	SNOW	n/a	7	13	[0, 0, 0]	n/a	catFR1	0	R1271P
1669.115	1.617	1704119	WORD	n/a	wordpools/wordpool_categorized_EN.txt	HURRICANE	Weather	8	13	[0, 0, 0]	n/a	catFR1	0	R1271P
1670.732	0.95	1705736	WORD_OFF	n/a	n/a	HURRICANE	n/a	8	13	[0, 0, 0]	n/a	catFR1	0	R1271P
1671.682	1.618	1706686	WORD	n/a	wordpools/wordpool_categorized_EN.txt	MOUSSE	Desserts	9	13	[0, 0, 0]	n/a	catFR1	0	R1271P
1673.3	0.967	1708304	WORD_OFF	n/a	n/a	MOUSSE	n/a	9	13	[0, 0, 0]	n/a	catFR1	0	R1271P
1674.267	1.616	1709271	WORD	n/a	wordpools/wordpool_categorized_EN.txt	COBBLER	Desserts	10	13	[0, 0, 0]	n/a	catFR1	0	R1271P
1675.883	0.95	1710887	WORD_OFF	n/a	n/a	COBBLER	n/a	10	13	[0, 0, 0]	n/a	catFR1	0	R1271P
1676.833	1.618	1711837	WORD	n/a	wordpools/wordpool_categorized_EN.txt	GLUE	OfficeSupplies	11	13	[0, 0, 0]	n/a	catFR1	0	R1271P
1678.451	0.783	1713454	WORD_OFF	n/a	n/a	GLUE	n/a	11	13	[0, 0, 0]	n/a	catFR1	0	R1271P
1679.234	1.616	1714237	WORD	n/a	wordpools/wordpool_categorized_EN.txt	TAPE	OfficeSupplies	12	13	[0, 0, 0]	n/a	catFR1	0	R1271P
1680.85	0.001	1715853	WORD_OFF	n/a	n/a	TAPE	n/a	12	13	[0, 0, 0]	n/a	catFR1	0	R1271P
1680.851	0.103	1715854	ENCODING_END	n/a	n/a	n/a	n/a	-999	13	[0, 0, 0]	n/a	catFR1	0	R1271P
1680.954	0.0	1715957	DISTRACT_START	n/a	n/a	n/a	n/a	-999	13	[0, 0, 0]	n/a	catFR1	0	R1271P
1680.954	0.013	1715957	START	n/a	n/a	n/a	n/a	-999	14	[-999, -999, -999]	n/a	catFR1	0	R1271P
1680.967	4.302	1715970	PROB	4.264	n/a	n/a	n/a	-999	14	[7, 3, 3]	13.0	catFR1	0	R1271P
1685.269	4.6	1720272	PROB	4.561	n/a	n/a	n/a	-999	14	[3, 9, 3]	15.0	catFR1	0	R1271P
1689.869	3.05	1724872	PROB	3.018	n/a	n/a	n/a	-999	14	[7, 1, 1]	9.0	catFR1	0	R1271P
1692.919	4.118	1727922	PROB	4.08	n/a	n/a	n/a	-999	14	[1, 7, 9]	17.0	catFR1	0	R1271P
1697.037	5.073	1732040	PROB	5.073	n/a	n/a	n/a	-999	14	[4, 6, 6]	16.0	catFR1	0	R1271P
1702.11	0.011	1737112	STOP	n/a	n/a	n/a	n/a	-999	14	[-999, -999, -999]	n/a	catFR1	0	R1271P
1702.121	0.7	1737123	DISTRACT_END	n/a	n/a	n/a	n/a	-999	13	[0, 0, 0]	n/a	catFR1	0	R1271P
1702.821	0.519	1737823	RETRIEVAL_ORIENT	n/a	n/a	n/a	n/a	-999	13	[0, 0, 0]	n/a	catFR1	0	R1271P
1703.34	1.836	1738342	REC_START	n/a	n/a	n/a	n/a	-999	13	[0, 0, 0]	n/a	catFR1	0	R1271P
1705.176	1.461	1740178	REC_WORD_VV	1.836	n/a	<>	n/a	-999	13	[0, 0, 0]	n/a	catFR1	0	R1271P
1706.637	2.021	1741639	REC_WORD	3.297	n/a	COBBLER	Desserts	10	13	[0, 0, 0]	n/a	catFR1	0	R1271P
1708.658	6.571	1743660	REC_WORD	5.318	n/a	MOUSSE	Desserts	9	13	[0, 0, 0]	n/a	catFR1	0	R1271P
1715.229	1.0	1750231	REC_WORD_VV	11.889	n/a	<>	n/a	-999	13	[0, 0, 0]	n/a	catFR1	0	R1271P
1716.229	9.125	1751231	REC_WORD_VV	12.889	n/a	<>	n/a	-999	13	[0, 0, 0]	n/a	catFR1	0	R1271P
1725.354	7.997	1760355	REC_WORD_VV	22.014	n/a	<>	n/a	-999	13	[0, 0, 0]	n/a	catFR1	0	R1271P
1733.351	5.228	1768352	REC_END	n/a	n/a	n/a	n/a	-999	13	[0, 0, 0]	n/a	catFR1	0	R1271P
1738.579	0.5	1773579	TRIAL	n/a	n/a	n/a	n/a	-999	14	[0, 0, 0]	n/a	catFR1	0	R1271P
1739.079	10.428	1774079	COUNTDOWN_START	n/a	n/a	n/a	n/a	-999	14	[0, 0, 0]	n/a	catFR1	0	R1271P
1749.507	0.007	1784507	COUNTDOWN_END	n/a	n/a	n/a	n/a	-999	14	[0, 0, 0]	n/a	catFR1	0	R1271P
1749.514	1.616	1784514	ORIENT	n/a	n/a	n/a	n/a	-999	14	[0, 0, 0]	n/a	catFR1	0	R1271P
1751.13	1.934	1786130	ORIENT_OFF	n/a	n/a	n/a	n/a	-999	14	[0, 0, 0]	n/a	catFR1	0	R1271P
1753.064	1.617	1788064	WORD	n/a	wordpools/wordpool_categorized_EN.txt	KNEE	BodyParts	1	14	[0, 0, 0]	n/a	catFR1	0	R1271P
1754.681	0.768	1789681	WORD_OFF	n/a	n/a	KNEE	n/a	1	14	[0, 0, 0]	n/a	catFR1	0	R1271P
1755.449	1.616	1790448	WORD	n/a	wordpools/wordpool_categorized_EN.txt	EYE	BodyParts	2	14	[0, 0, 0]	n/a	catFR1	0	R1271P
1757.065	0.883	1792064	WORD_OFF	n/a	n/a	EYE	n/a	2	14	[0, 0, 0]	n/a	catFR1	0	R1271P
1757.948	1.601	1792947	WORD	n/a	wordpools/wordpool_categorized_EN.txt	FINCH	Birds	3	14	[0, 0, 0]	n/a	catFR1	0	R1271P
1759.549	0.784	1794548	WORD_OFF	n/a	n/a	FINCH	n/a	3	14	[0, 0, 0]	n/a	catFR1	0	R1271P
1760.333	1.616	1795332	WORD	n/a	wordpools/wordpool_categorized_EN.txt	DOVE	Birds	4	14	[0, 0, 0]	n/a	catFR1	0	R1271P
1761.949	0.833	1796948	WORD_OFF	n/a	n/a	DOVE	n/a	4	14	[0, 0, 0]	n/a	catFR1	0	R1271P
1762.782	1.601	1797781	WORD	n/a	wordpools/wordpool_categorized_EN.txt	BASS	Instruments	5	14	[0, 0, 0]	n/a	catFR1	0	R1271P
1764.383	0.951	1799382	WORD_OFF	n/a	n/a	BASS	n/a	5	14	[0, 0, 0]	n/a	catFR1	0	R1271P
1765.334	1.616	1800333	WORD	n/a	wordpools/wordpool_categorized_EN.txt	PIANO	Instruments	6	14	[0, 0, 0]	n/a	catFR1	0	R1271P
1766.95	0.933	1801949	WORD_OFF	n/a	n/a	PIANO	n/a	6	14	[0, 0, 0]	n/a	catFR1	0	R1271P
1767.883	1.618	1802882	WORD	n/a	wordpools/wordpool_categorized_EN.txt	BLUEBIRD	Birds	7	14	[0, 0, 0]	n/a	catFR1	0	R1271P
1769.501	0.917	1804500	WORD_OFF	n/a	n/a	BLUEBIRD	n/a	7	14	[0, 0, 0]	n/a	catFR1	0	R1271P
1770.418	1.616	1805417	WORD	n/a	wordpools/wordpool_categorized_EN.txt	SEAGULL	Birds	8	14	[0, 0, 0]	n/a	catFR1	0	R1271P
1772.034	0.95	1807033	WORD_OFF	n/a	n/a	SEAGULL	n/a	8	14	[0, 0, 0]	n/a	catFR1	0	R1271P
1772.984	1.618	1807983	WORD	n/a	wordpools/wordpool_categorized_EN.txt	FINGERS	BodyParts	9	14	[0, 0, 0]	n/a	catFR1	0	R1271P
1774.602	0.8	1809601	WORD_OFF	n/a	n/a	FINGERS	n/a	9	14	[0, 0, 0]	n/a	catFR1	0	R1271P
1775.402	1.616	1810400	WORD	n/a	wordpools/wordpool_categorized_EN.txt	ARM	BodyParts	10	14	[0, 0, 0]	n/a	catFR1	0	R1271P
1777.018	0.784	1812016	WORD_OFF	n/a	n/a	ARM	n/a	10	14	[0, 0, 0]	n/a	catFR1	0	R1271P
1777.802	1.618	1812800	WORD	n/a	wordpools/wordpool_categorized_EN.txt	BANJO	Instruments	11	14	[0, 0, 0]	n/a	catFR1	0	R1271P
1779.42	0.8	1814418	WORD_OFF	n/a	n/a	BANJO	n/a	11	14	[0, 0, 0]	n/a	catFR1	0	R1271P
1780.22	1.616	1815218	WORD	n/a	wordpools/wordpool_categorized_EN.txt	TROMBONE	Instruments	12	14	[0, 0, 0]	n/a	catFR1	0	R1271P
1781.836	0.0	1816834	ENCODING_END	n/a	n/a	n/a	n/a	-999	14	[0, 0, 0]	n/a	catFR1	0	R1271P
1781.836	0.102	1816834	WORD_OFF	n/a	n/a	TROMBONE	n/a	12	14	[0, 0, 0]	n/a	catFR1	0	R1271P
1781.938	0.0	1816936	DISTRACT_START	n/a	n/a	n/a	n/a	-999	14	[0, 0, 0]	n/a	catFR1	0	R1271P
1781.938	0.015	1816936	START	n/a	n/a	n/a	n/a	-999	15	[-999, -999, -999]	n/a	catFR1	0	R1271P
1781.953	3.717	1816951	PROB	3.678	n/a	n/a	n/a	-999	15	[1, 2, 3]	6.0	catFR1	0	R1271P
1785.67	3.668	1820668	PROB	3.633	n/a	n/a	n/a	-999	15	[4, 2, 7]	13.0	catFR1	0	R1271P
1789.338	3.683	1824336	PROB	3.645	n/a	n/a	n/a	-999	15	[5, 8, 8]	21.0	catFR1	0	R1271P
1793.021	3.651	1828019	PROB	3.626	n/a	n/a	n/a	-999	15	[6, 6, 9]	21.0	catFR1	0	R1271P
1796.672	3.251	1831669	PROB	3.214	n/a	n/a	n/a	-999	15	[3, 5, 4]	12.0	catFR1	0	R1271P
1799.923	3.661	1834920	PROB	3.661	n/a	n/a	n/a	-999	15	[9, 2, 6]	17.0	catFR1	0	R1271P
1803.584	0.007	1838581	STOP	n/a	n/a	n/a	n/a	-999	15	[-999, -999, -999]	n/a	catFR1	0	R1271P
1803.591	0.634	1838588	DISTRACT_END	n/a	n/a	n/a	n/a	-999	14	[0, 0, 0]	n/a	catFR1	0	R1271P
1804.225	0.516	1839222	RETRIEVAL_ORIENT	n/a	n/a	n/a	n/a	-999	14	[0, 0, 0]	n/a	catFR1	0	R1271P
1804.741	2.084	1839738	REC_START	n/a	n/a	n/a	n/a	-999	14	[0, 0, 0]	n/a	catFR1	0	R1271P
1806.825	0.784	1841822	REC_WORD_VV	2.084	n/a	<>	n/a	-999	14	[0, 0, 0]	n/a	catFR1	0	R1271P
1807.609	2.023	1842606	REC_WORD	2.868	n/a	KNEE	BodyParts	1	14	[0, 0, 0]	n/a	catFR1	0	R1271P
1809.632	1.739	1844629	REC_WORD_VV	4.891	n/a	<>	n/a	-999	14	[0, 0, 0]	n/a	catFR1	0	R1271P
1811.371	6.467	1846368	REC_WORD_VV	6.63	n/a	<>	n/a	-999	14	[0, 0, 0]	n/a	catFR1	0	R1271P
1817.838	0.999	1852834	REC_WORD_VV	13.097	n/a	<>	n/a	-999	14	[0, 0, 0]	n/a	catFR1	0	R1271P
1818.837	1.0	1853833	REC_WORD_VV	14.096	n/a	<>	n/a	-999	14	[0, 0, 0]	n/a	catFR1	0	R1271P
1819.837	1.0	1854833	REC_WORD_VV	15.096	n/a	<>	n/a	-999	14	[0, 0, 0]	n/a	catFR1	0	R1271P
1820.837	13.916	1855833	REC_WORD_VV	16.096	n/a	<>	n/a	-999	14	[0, 0, 0]	n/a	catFR1	0	R1271P
1834.753	5.277	1869748	REC_END	n/a	n/a	n/a	n/a	-999	14	[0, 0, 0]	n/a	catFR1	0	R1271P
1840.03	0.5	1875025	TRIAL	n/a	n/a	n/a	n/a	-999	15	[0, 0, 0]	n/a	catFR1	0	R1271P
1840.53	10.428	1875525	COUNTDOWN_START	n/a	n/a	n/a	n/a	-999	15	[0, 0, 0]	n/a	catFR1	0	R1271P
1850.958	0.008	1885953	COUNTDOWN_END	n/a	n/a	n/a	n/a	-999	15	[0, 0, 0]	n/a	catFR1	0	R1271P
1850.966	1.601	1885961	ORIENT	n/a	n/a	n/a	n/a	-999	15	[0, 0, 0]	n/a	catFR1	0	R1271P
1852.567	2.25	1887561	ORIENT_OFF	n/a	n/a	n/a	n/a	-999	15	[0, 0, 0]	n/a	catFR1	0	R1271P
1854.817	1.617	1889811	WORD	n/a	wordpools/wordpool_categorized_EN.txt	DISHWASHER	Appliances	1	15	[0, 0, 0]	n/a	catFR1	0	R1271P
1856.434	1.001	1891428	WORD_OFF	n/a	n/a	DISHWASHER	n/a	1	15	[0, 0, 0]	n/a	catFR1	0	R1271P
1857.435	1.616	1892429	WORD	n/a	wordpools/wordpool_categorized_EN.txt	BLENDER	Appliances	2	15	[0, 0, 0]	n/a	catFR1	0	R1271P
1859.051	0.783	1894045	WORD_OFF	n/a	n/a	BLENDER	n/a	2	15	[0, 0, 0]	n/a	catFR1	0	R1271P
1859.834	1.618	1894828	WORD	n/a	wordpools/wordpool_categorized_EN.txt	TRAIN	Vehicles	3	15	[0, 0, 0]	n/a	catFR1	0	R1271P
1861.452	0.934	1896446	WORD_OFF	n/a	n/a	TRAIN	n/a	3	15	[0, 0, 0]	n/a	catFR1	0	R1271P
1862.386	1.615	1897380	WORD	n/a	wordpools/wordpool_categorized_EN.txt	MOTORCYCLE	Vehicles	4	15	[0, 0, 0]	n/a	catFR1	0	R1271P
1864.001	0.801	1898995	WORD_OFF	n/a	n/a	MOTORCYCLE	n/a	4	15	[0, 0, 0]	n/a	catFR1	0	R1271P
1864.802	1.618	1899796	WORD	n/a	wordpools/wordpool_categorized_EN.txt	BULL	FarmAnimals	5	15	[0, 0, 0]	n/a	catFR1	0	R1271P
1866.42	0.983	1901414	WORD_OFF	n/a	n/a	BULL	n/a	5	15	[0, 0, 0]	n/a	catFR1	0	R1271P
1867.403	1.616	1902397	WORD	n/a	wordpools/wordpool_categorized_EN.txt	PIG	FarmAnimals	6	15	[0, 0, 0]	n/a	catFR1	0	R1271P
1869.019	0.867	1904013	WORD_OFF	n/a	n/a	PIG	n/a	6	15	[0, 0, 0]	n/a	catFR1	0	R1271P
1869.886	1.601	1904880	WORD	n/a	wordpools/wordpool_categorized_EN.txt	BOAT	Vehicles	7	15	[0, 0, 0]	n/a	catFR1	0	R1271P
1871.487	0.884	1906481	WORD_OFF	n/a	n/a	BOAT	n/a	7	15	[0, 0, 0]	n/a	catFR1	0	R1271P
1872.371	1.616	1907364	WORD	n/a	wordpools/wordpool_categorized_EN.txt	BUS	Vehicles	8	15	[0, 0, 0]	n/a	catFR1	0	R1271P
1873.987	0.883	1908980	WORD_OFF	n/a	n/a	BUS	n/a	8	15	[0, 0, 0]	n/a	catFR1	0	R1271P
1874.87	1.618	1909863	WORD	n/a	wordpools/wordpool_categorized_EN.txt	IRON	Appliances	9	15	[0, 0, 0]	n/a	catFR1	0	R1271P
1876.488	0.867	1911481	WORD_OFF	n/a	n/a	IRON	n/a	9	15	[0, 0, 0]	n/a	catFR1	0	R1271P
1877.355	1.616	1912348	WORD	n/a	wordpools/wordpool_categorized_EN.txt	TOASTER	Appliances	10	15	[0, 0, 0]	n/a	catFR1	0	R1271P
1878.971	1.0	1913964	WORD_OFF	n/a	n/a	TOASTER	n/a	10	15	[0, 0, 0]	n/a	catFR1	0	R1271P
1879.971	1.618	1914964	WORD	n/a	wordpools/wordpool_categorized_EN.txt	CALF	FarmAnimals	11	15	[0, 0, 0]	n/a	catFR1	0	R1271P
1881.589	0.9	1916582	WORD_OFF	n/a	n/a	CALF	n/a	11	15	[0, 0, 0]	n/a	catFR1	0	R1271P
1882.489	1.616	1917482	WORD	n/a	wordpools/wordpool_categorized_EN.txt	HEN	FarmAnimals	12	15	[0, 0, 0]	n/a	catFR1	0	R1271P
1884.105	0.001	1919098	WORD_OFF	n/a	n/a	HEN	n/a	12	15	[0, 0, 0]	n/a	catFR1	0	R1271P
1884.106	0.138	1919099	ENCODING_END	n/a	n/a	n/a	n/a	-999	15	[0, 0, 0]	n/a	catFR1	0	R1271P
1884.244	0.0	1919237	DISTRACT_START	n/a	n/a	n/a	n/a	-999	15	[0, 0, 0]	n/a	catFR1	0	R1271P
1884.244	0.012	1919237	START	n/a	n/a	n/a	n/a	-999	16	[-999, -999, -999]	n/a	catFR1	0	R1271P
1884.256	6.018	1919249	PROB	5.991	n/a	n/a	n/a	-999	16	[4, 7, 3]	14.0	catFR1	0	R1271P
1890.274	6.235	1925267	PROB	6.198	n/a	n/a	n/a	-999	16	[5, 3, 2]	10.0	catFR1	0	R1271P
1896.509	4.767	1931501	PROB	4.731	n/a	n/a	n/a	-999	16	[6, 6, 8]	20.0	catFR1	0	R1271P
1901.276	4.587	1936268	PROB	4.587	n/a	n/a	n/a	-999	16	[5, 3, 6]	14.0	catFR1	0	R1271P
1905.863	0.013	1940855	STOP	n/a	n/a	n/a	n/a	-999	16	[-999, -999, -999]	n/a	catFR1	0	R1271P
1905.876	0.518	1940868	DISTRACT_END	n/a	n/a	n/a	n/a	-999	15	[0, 0, 0]	n/a	catFR1	0	R1271P
1906.394	0.516	1941386	RETRIEVAL_ORIENT	n/a	n/a	n/a	n/a	-999	15	[0, 0, 0]	n/a	catFR1	0	R1271P
1906.91	2.554	1941902	REC_START	n/a	n/a	n/a	n/a	-999	15	[0, 0, 0]	n/a	catFR1	0	R1271P
1909.464	1.32	1944456	REC_WORD	2.554	n/a	BULL	FarmAnimals	5	15	[0, 0, 0]	n/a	catFR1	0	R1271P
1910.784	1.476	1945775	REC_WORD	3.874	n/a	PIG	FarmAnimals	6	15	[0, 0, 0]	n/a	catFR1	0	R1271P
1912.26	5.204	1947251	REC_WORD	5.35	n/a	HEN	FarmAnimals	12	15	[0, 0, 0]	n/a	catFR1	0	R1271P
1917.464	19.458	1952455	REC_WORD_VV	10.554	n/a	<>	n/a	-999	15	[0, 0, 0]	n/a	catFR1	0	R1271P
1936.922	4.528	1971912	REC_END	n/a	n/a	n/a	n/a	-999	15	[0, 0, 0]	n/a	catFR1	0	R1271P
1941.45	0.5	1976440	TRIAL	n/a	n/a	n/a	n/a	-999	16	[0, 0, 0]	n/a	catFR1	0	R1271P
1941.95	10.428	1976940	COUNTDOWN_START	n/a	n/a	n/a	n/a	-999	16	[0, 0, 0]	n/a	catFR1	0	R1271P
1952.378	0.008	1987367	COUNTDOWN_END	n/a	n/a	n/a	n/a	-999	16	[0, 0, 0]	n/a	catFR1	0	R1271P
1952.386	1.616	1987375	ORIENT	n/a	n/a	n/a	n/a	-999	16	[0, 0, 0]	n/a	catFR1	0	R1271P
1954.002	2.201	1988991	ORIENT_OFF	n/a	n/a	n/a	n/a	-999	16	[0, 0, 0]	n/a	catFR1	0	R1271P
1956.203	1.616	1991192	WORD	n/a	wordpools/wordpool_categorized_EN.txt	DUCK	Birds	1	16	[0, 0, 0]	n/a	catFR1	0	R1271P
1957.819	0.867	1992808	WORD_OFF	n/a	n/a	DUCK	n/a	1	16	[0, 0, 0]	n/a	catFR1	0	R1271P
1958.686	1.618	1993675	WORD	n/a	wordpools/wordpool_categorized_EN.txt	SPARROW	Birds	2	16	[0, 0, 0]	n/a	catFR1	0	R1271P
1960.304	0.782	1995293	WORD_OFF	n/a	n/a	SPARROW	n/a	2	16	[0, 0, 0]	n/a	catFR1	0	R1271P
1961.086	1.617	1996075	WORD	n/a	wordpools/wordpool_categorized_EN.txt	CELERY	Vegetables	3	16	[0, 0, 0]	n/a	catFR1	0	R1271P
1962.703	0.835	1997692	WORD_OFF	n/a	n/a	CELERY	n/a	3	16	[0, 0, 0]	n/a	catFR1	0	R1271P
1963.538	1.617	1998527	WORD	n/a	wordpools/wordpool_categorized_EN.txt	CARROT	Vegetables	4	16	[0, 0, 0]	n/a	catFR1	0	R1271P
1965.155	0.799	2000144	WORD_OFF	n/a	n/a	CARROT	n/a	4	16	[0, 0, 0]	n/a	catFR1	0	R1271P
1965.954	1.601	2000943	WORD	n/a	wordpools/wordpool_categorized_EN.txt	BARBIE	Toys	5	16	[0, 0, 0]	n/a	catFR1	0	R1271P
1967.555	0.917	2002544	WORD_OFF	n/a	n/a	BARBIE	n/a	5	16	[0, 0, 0]	n/a	catFR1	0	R1271P
1968.472	1.616	2003460	WORD	n/a	wordpools/wordpool_categorized_EN.txt	DOLL	Toys	6	16	[0, 0, 0]	n/a	catFR1	0	R1271P
1970.088	0.784	2005076	WORD_OFF	n/a	n/a	DOLL	n/a	6	16	[0, 0, 0]	n/a	catFR1	0	R1271P
1970.872	1.618	2005860	WORD	n/a	wordpools/wordpool_categorized_EN.txt	PIGEON	Birds	7	16	[0, 0, 0]	n/a	catFR1	0	R1271P
1972.49	0.9	2007478	WORD_OFF	n/a	n/a	PIGEON	n/a	7	16	[0, 0, 0]	n/a	catFR1	0	R1271P
1973.39	1.616	2008378	WORD	n/a	wordpools/wordpool_categorized_EN.txt	GOOSE	Birds	8	16	[0, 0, 0]	n/a	catFR1	0	R1271P
1975.006	1.0	2009994	WORD_OFF	n/a	n/a	GOOSE	n/a	8	16	[0, 0, 0]	n/a	catFR1	0	R1271P
1976.006	1.617	2010994	WORD	n/a	wordpools/wordpool_categorized_EN.txt	PEAS	Vegetables	9	16	[0, 0, 0]	n/a	catFR1	0	R1271P
1977.623	0.951	2012611	WORD_OFF	n/a	n/a	PEAS	n/a	9	16	[0, 0, 0]	n/a	catFR1	0	R1271P
1978.574	1.617	2013562	WORD	n/a	wordpools/wordpool_categorized_EN.txt	LETTUCE	Vegetables	10	16	[0, 0, 0]	n/a	catFR1	0	R1271P
1980.191	0.899	2015179	WORD_OFF	n/a	n/a	LETTUCE	n/a	10	16	[0, 0, 0]	n/a	catFR1	0	R1271P
1981.09	1.617	2016078	WORD	n/a	wordpools/wordpool_categorized_EN.txt	BALL	Toys	11	16	[0, 0, 0]	n/a	catFR1	0	R1271P
1982.707	1.001	2017695	WORD_OFF	n/a	n/a	BALL	n/a	11	16	[0, 0, 0]	n/a	catFR1	0	R1271P
1983.708	1.617	2018696	WORD	n/a	wordpools/wordpool_categorized_EN.txt	PUZZLE	Toys	12	16	[0, 0, 0]	n/a	catFR1	0	R1271P
1985.325	0.001	2020313	WORD_OFF	n/a	n/a	PUZZLE	n/a	12	16	[0, 0, 0]	n/a	catFR1	0	R1271P
1985.326	0.103	2020314	ENCODING_END	n/a	n/a	n/a	n/a	-999	16	[0, 0, 0]	n/a	catFR1	0	R1271P
1985.429	0.0	2020417	DISTRACT_START	n/a	n/a	n/a	n/a	-999	16	[0, 0, 0]	n/a	catFR1	0	R1271P
1985.429	0.013	2020417	START	n/a	n/a	n/a	n/a	-999	17	[-999, -999, -999]	n/a	catFR1	0	R1271P
1985.442	4.134	2020430	PROB	4.102	n/a	n/a	n/a	-999	17	[3, 2, 2]	7.0	catFR1	0	R1271P
1989.576	4.601	2024563	PROB	4.574	n/a	n/a	n/a	-999	17	[8, 2, 5]	15.0	catFR1	0	R1271P
1994.177	5.001	2029164	PROB	4.965	n/a	n/a	n/a	-999	17	[7, 9, 1]	17.0	catFR1	0	R1271P
1999.178	2.733	2034165	PROB	2.708	n/a	n/a	n/a	-999	17	[1, 5, 3]	9.0	catFR1	0	R1271P
2001.911	3.368	2036898	PROB	3.345	n/a	n/a	n/a	-999	17	[4, 3, 2]	9.0	catFR1	0	R1271P
2005.279	4.152	2040266	PROB	4.152	n/a	n/a	n/a	-999	17	[6, 9, 5]	20.0	catFR1	0	R1271P
2009.431	0.016	2044417	STOP	n/a	n/a	n/a	n/a	-999	17	[-999, -999, -999]	n/a	catFR1	0	R1271P
2009.447	0.665	2044433	DISTRACT_END	n/a	n/a	n/a	n/a	-999	16	[0, 0, 0]	n/a	catFR1	0	R1271P
2010.112	0.518	2045098	RETRIEVAL_ORIENT	n/a	n/a	n/a	n/a	-999	16	[0, 0, 0]	n/a	catFR1	0	R1271P
2010.63	2.544	2045616	REC_START	n/a	n/a	n/a	n/a	-999	16	[0, 0, 0]	n/a	catFR1	0	R1271P
2013.174	3.114	2048160	REC_WORD	2.544	n/a	DOLL	Toys	6	16	[0, 0, 0]	n/a	catFR1	0	R1271P
2016.288	4.419	2051274	REC_WORD	5.658	n/a	BARBIE	Toys	5	16	[0, 0, 0]	n/a	catFR1	0	R1271P
2020.707	1.183	2055693	REC_WORD_VV	10.077	n/a	<>	n/a	-999	16	[0, 0, 0]	n/a	catFR1	0	R1271P
2021.89	0.339	2056876	REC_WORD	11.26	n/a	BALL	Toys	11	16	[0, 0, 0]	n/a	catFR1	0	R1271P
2022.229	18.413	2057215	REC_WORD_VV	11.599	n/a	<>	n/a	-999	16	[0, 0, 0]	n/a	catFR1	0	R1271P
2040.642	5.027	2075627	REC_END	n/a	n/a	n/a	n/a	-999	16	[0, 0, 0]	n/a	catFR1	0	R1271P
2045.669	0.5	2080654	TRIAL	n/a	n/a	n/a	n/a	-999	17	[0, 0, 0]	n/a	catFR1	0	R1271P
2046.169	10.428	2081153	COUNTDOWN_START	n/a	n/a	n/a	n/a	-999	17	[0, 0, 0]	n/a	catFR1	0	R1271P
2056.597	0.009	2091581	COUNTDOWN_END	n/a	n/a	n/a	n/a	-999	17	[0, 0, 0]	n/a	catFR1	0	R1271P
2056.606	1.616	2091590	ORIENT	n/a	n/a	n/a	n/a	-999	17	[0, 0, 0]	n/a	catFR1	0	R1271P
2058.222	2.101	2093206	ORIENT_OFF	n/a	n/a	n/a	n/a	-999	17	[0, 0, 0]	n/a	catFR1	0	R1271P
2060.323	1.616	2095307	WORD	n/a	wordpools/wordpool_categorized_EN.txt	CAKE	Desserts	1	17	[0, 0, 0]	n/a	catFR1	0	R1271P
2061.939	0.867	2096923	WORD_OFF	n/a	n/a	CAKE	n/a	1	17	[0, 0, 0]	n/a	catFR1	0	R1271P
2062.806	1.618	2097790	WORD	n/a	wordpools/wordpool_categorized_EN.txt	PIE	Desserts	2	17	[0, 0, 0]	n/a	catFR1	0	R1271P
2064.424	0.833	2099408	WORD_OFF	n/a	n/a	PIE	n/a	2	17	[0, 0, 0]	n/a	catFR1	0	R1271P
2065.257	1.616	2100241	WORD	n/a	wordpools/wordpool_categorized_EN.txt	SHIRT	Clothing	3	17	[0, 0, 0]	n/a	catFR1	0	R1271P
2066.873	0.8	2101856	WORD_OFF	n/a	n/a	SHIRT	n/a	3	17	[0, 0, 0]	n/a	catFR1	0	R1271P
2067.673	1.618	2102656	WORD	n/a	wordpools/wordpool_categorized_EN.txt	SHORTS	Clothing	4	17	[0, 0, 0]	n/a	catFR1	0	R1271P
2069.291	1.0	2104274	WORD_OFF	n/a	n/a	SHORTS	n/a	4	17	[0, 0, 0]	n/a	catFR1	0	R1271P
2070.291	1.616	2105274	WORD	n/a	wordpools/wordpool_categorized_EN.txt	WHISK	KitchenTools	5	17	[0, 0, 0]	n/a	catFR1	0	R1271P
2071.907	0.867	2106890	WORD_OFF	n/a	n/a	WHISK	n/a	5	17	[0, 0, 0]	n/a	catFR1	0	R1271P
2072.774	1.618	2107757	WORD	n/a	wordpools/wordpool_categorized_EN.txt	SPATULA	KitchenTools	6	17	[0, 0, 0]	n/a	catFR1	0	R1271P
2074.392	0.817	2109375	WORD_OFF	n/a	n/a	SPATULA	n/a	6	17	[0, 0, 0]	n/a	catFR1	0	R1271P
2075.209	1.616	2110192	WORD	n/a	wordpools/wordpool_categorized_EN.txt	PUDDING	Desserts	7	17	[0, 0, 0]	n/a	catFR1	0	R1271P
2076.825	0.817	2111808	WORD_OFF	n/a	n/a	PUDDING	n/a	7	17	[0, 0, 0]	n/a	catFR1	0	R1271P
2077.642	1.618	2112625	WORD	n/a	wordpools/wordpool_categorized_EN.txt	CUPCAKE	Desserts	8	17	[0, 0, 0]	n/a	catFR1	0	R1271P
2079.26	0.865	2114243	WORD_OFF	n/a	n/a	CUPCAKE	n/a	8	17	[0, 0, 0]	n/a	catFR1	0	R1271P
2080.125	1.617	2115108	WORD	n/a	wordpools/wordpool_categorized_EN.txt	BLOUSE	Clothing	9	17	[0, 0, 0]	n/a	catFR1	0	R1271P
2081.742	0.867	2116725	WORD_OFF	n/a	n/a	BLOUSE	n/a	9	17	[0, 0, 0]	n/a	catFR1	0	R1271P
2082.609	1.618	2117592	WORD	n/a	wordpools/wordpool_categorized_EN.txt	SHOES	Clothing	10	17	[0, 0, 0]	n/a	catFR1	0	R1271P
2084.227	0.9	2119210	WORD_OFF	n/a	n/a	SHOES	n/a	10	17	[0, 0, 0]	n/a	catFR1	0	R1271P
2085.127	1.616	2120109	WORD	n/a	wordpools/wordpool_categorized_EN.txt	STRAINER	KitchenTools	11	17	[0, 0, 0]	n/a	catFR1	0	R1271P
2086.743	1.001	2121725	WORD_OFF	n/a	n/a	STRAINER	n/a	11	17	[0, 0, 0]	n/a	catFR1	0	R1271P
2087.744	1.618	2122726	WORD	n/a	wordpools/wordpool_categorized_EN.txt	GRATER	KitchenTools	12	17	[0, 0, 0]	n/a	catFR1	0	R1271P
2089.362	0.0	2124344	WORD_OFF	n/a	n/a	GRATER	n/a	12	17	[0, 0, 0]	n/a	catFR1	0	R1271P
2089.362	0.1	2124344	ENCODING_END	n/a	n/a	n/a	n/a	-999	17	[0, 0, 0]	n/a	catFR1	0	R1271P
2089.462	0.0	2124444	DISTRACT_START	n/a	n/a	n/a	n/a	-999	17	[0, 0, 0]	n/a	catFR1	0	R1271P
2089.462	0.016	2124444	START	n/a	n/a	n/a	n/a	-999	18	[-999, -999, -999]	n/a	catFR1	0	R1271P
2089.478	3.884	2124460	PROB	3.857	n/a	n/a	n/a	-999	18	[3, 3, 2]	8.0	catFR1	0	R1271P
2093.362	6.935	2128344	PROB	6.902	n/a	n/a	n/a	-999	18	[9, 6, 2]	17.0	catFR1	0	R1271P
2100.297	3.117	2135279	PROB	3.086	n/a	n/a	n/a	-999	18	[3, 1, 9]	13.0	catFR1	0	R1271P
2103.414	3.751	2138396	PROB	3.721	n/a	n/a	n/a	-999	18	[2, 7, 1]	10.0	catFR1	0	R1271P
2107.165	3.131	2142146	PROB	3.131	n/a	n/a	n/a	-999	18	[1, 6, 4]	11.0	catFR1	0	R1271P
2110.296	0.02	2145277	STOP	n/a	n/a	n/a	n/a	-999	18	[-999, -999, -999]	n/a	catFR1	0	R1271P
2110.316	0.649	2145297	DISTRACT_END	n/a	n/a	n/a	n/a	-999	17	[0, 0, 0]	n/a	catFR1	0	R1271P
2110.965	0.518	2145946	RETRIEVAL_ORIENT	n/a	n/a	n/a	n/a	-999	17	[0, 0, 0]	n/a	catFR1	0	R1271P
2111.483	2.115	2146464	REC_START	n/a	n/a	n/a	n/a	-999	17	[0, 0, 0]	n/a	catFR1	0	R1271P
2113.598	1.964	2148579	REC_WORD_VV	2.115	n/a	<>	n/a	-999	17	[0, 0, 0]	n/a	catFR1	0	R1271P
2115.562	2.257	2150543	REC_WORD	4.079	n/a	CAKE	Desserts	1	17	[0, 0, 0]	n/a	catFR1	0	R1271P
2117.819	2.719	2152800	REC_WORD	6.336	n/a	PIE	Desserts	2	17	[0, 0, 0]	n/a	catFR1	0	R1271P
2120.538	3.062	2155519	REC_WORD	9.055	n/a	PUDDING	Desserts	7	17	[0, 0, 0]	n/a	catFR1	0	R1271P
2123.6	0.454	2158580	REC_WORD_VV	12.117	n/a	<>	n/a	-999	17	[0, 0, 0]	n/a	catFR1	0	R1271P
2124.054	0.535	2159034	REC_WORD	12.571	n/a	SHORTS	Clothing	4	17	[0, 0, 0]	n/a	catFR1	0	R1271P
2124.589	3.162	2159569	REC_WORD	13.106	n/a	BREAD	n/a	-999	17	[0, 0, 0]	n/a	catFR1	0	R1271P
2127.751	5.513	2162731	REC_WORD	16.268	n/a	WHISK	KitchenTools	5	17	[0, 0, 0]	n/a	catFR1	0	R1271P
2133.264	0.451	2168244	REC_WORD	21.781	n/a	LEADER	n/a	-999	17	[0, 0, 0]	n/a	catFR1	0	R1271P
2133.715	0.508	2168695	REC_WORD_VV	22.232	n/a	<>	n/a	-999	17	[0, 0, 0]	n/a	catFR1	0	R1271P
2134.223	7.271	2169203	REC_WORD	22.74	n/a	SPATULA	KitchenTools	6	17	[0, 0, 0]	n/a	catFR1	0	R1271P
2141.494	4.895	2176474	REC_END	n/a	n/a	n/a	n/a	-999	17	[0, 0, 0]	n/a	catFR1	0	R1271P
2146.389	0.5	2181368	TRIAL	n/a	n/a	n/a	n/a	-999	18	[0, 0, 0]	n/a	catFR1	0	R1271P
2146.889	10.428	2181868	COUNTDOWN_START	n/a	n/a	n/a	n/a	-999	18	[0, 0, 0]	n/a	catFR1	0	R1271P
2157.317	0.007	2192296	COUNTDOWN_END	n/a	n/a	n/a	n/a	-999	18	[0, 0, 0]	n/a	catFR1	0	R1271P
2157.324	1.616	2192303	ORIENT	n/a	n/a	n/a	n/a	-999	18	[0, 0, 0]	n/a	catFR1	0	R1271P
2158.94	2.034	2193919	ORIENT_OFF	n/a	n/a	n/a	n/a	-999	18	[0, 0, 0]	n/a	catFR1	0	R1271P
2160.974	1.618	2195953	WORD	n/a	wordpools/wordpool_categorized_EN.txt	GRAPE	Fruit	1	18	[0, 0, 0]	n/a	catFR1	0	R1271P
2162.592	0.884	2197570	WORD_OFF	n/a	n/a	GRAPE	n/a	1	18	[0, 0, 0]	n/a	catFR1	0	R1271P
2163.476	1.616	2198454	WORD	n/a	wordpools/wordpool_categorized_EN.txt	LEMON	Fruit	2	18	[0, 0, 0]	n/a	catFR1	0	R1271P
2165.092	0.8	2200070	WORD_OFF	n/a	n/a	LEMON	n/a	2	18	[0, 0, 0]	n/a	catFR1	0	R1271P
2165.892	1.601	2200870	WORD	n/a	wordpools/wordpool_categorized_EN.txt	CUCUMBER	Vegetables	3	18	[0, 0, 0]	n/a	catFR1	0	R1271P
2167.493	0.884	2202471	WORD_OFF	n/a	n/a	CUCUMBER	n/a	3	18	[0, 0, 0]	n/a	catFR1	0	R1271P
2168.377	1.616	2203355	WORD	n/a	wordpools/wordpool_categorized_EN.txt	ONION	Vegetables	4	18	[0, 0, 0]	n/a	catFR1	0	R1271P
2169.993	0.8	2204971	WORD_OFF	n/a	n/a	ONION	n/a	4	18	[0, 0, 0]	n/a	catFR1	0	R1271P
2170.793	1.618	2205771	WORD	n/a	wordpools/wordpool_categorized_EN.txt	PENCIL	OfficeSupplies	5	18	[0, 0, 0]	n/a	catFR1	0	R1271P
2172.411	0.966	2207389	WORD_OFF	n/a	n/a	PENCIL	n/a	5	18	[0, 0, 0]	n/a	catFR1	0	R1271P
2173.377	1.616	2208355	WORD	n/a	wordpools/wordpool_categorized_EN.txt	FOLDER	OfficeSupplies	6	18	[0, 0, 0]	n/a	catFR1	0	R1271P
2174.993	0.801	2209971	WORD_OFF	n/a	n/a	FOLDER	n/a	6	18	[0, 0, 0]	n/a	catFR1	0	R1271P
2175.794	1.618	2210772	WORD	n/a	wordpools/wordpool_categorized_EN.txt	PEACH	Fruit	7	18	[0, 0, 0]	n/a	catFR1	0	R1271P
2177.412	0.883	2212390	WORD_OFF	n/a	n/a	PEACH	n/a	7	18	[0, 0, 0]	n/a	catFR1	0	R1271P
2178.295	1.616	2213273	WORD	n/a	wordpools/wordpool_categorized_EN.txt	BANANA	Fruit	8	18	[0, 0, 0]	n/a	catFR1	0	R1271P
2179.911	0.85	2214889	WORD_OFF	n/a	n/a	BANANA	n/a	8	18	[0, 0, 0]	n/a	catFR1	0	R1271P
2180.761	1.601	2215739	WORD	n/a	wordpools/wordpool_categorized_EN.txt	CABBAGE	Vegetables	9	18	[0, 0, 0]	n/a	catFR1	0	R1271P
2182.362	0.817	2217339	WORD_OFF	n/a	n/a	CABBAGE	n/a	9	18	[0, 0, 0]	n/a	catFR1	0	R1271P
2183.179	1.616	2218156	WORD	n/a	wordpools/wordpool_categorized_EN.txt	POTATO	Vegetables	10	18	[0, 0, 0]	n/a	catFR1	0	R1271P
2184.795	0.934	2219772	WORD_OFF	n/a	n/a	POTATO	n/a	10	18	[0, 0, 0]	n/a	catFR1	0	R1271P
2185.729	1.618	2220706	WORD	n/a	wordpools/wordpool_categorized_EN.txt	PEN	OfficeSupplies	11	18	[0, 0, 0]	n/a	catFR1	0	R1271P
2187.347	0.85	2222324	WORD_OFF	n/a	n/a	PEN	n/a	11	18	[0, 0, 0]	n/a	catFR1	0	R1271P
2188.197	1.616	2223174	WORD	n/a	wordpools/wordpool_categorized_EN.txt	MARKER	OfficeSupplies	12	18	[0, 0, 0]	n/a	catFR1	0	R1271P
2189.813	0.0	2224790	ENCODING_END	n/a	n/a	n/a	n/a	-999	18	[0, 0, 0]	n/a	catFR1	0	R1271P
2189.813	0.13	2224790	WORD_OFF	n/a	n/a	MARKER	n/a	12	18	[0, 0, 0]	n/a	catFR1	0	R1271P
2189.943	0.0	2224920	DISTRACT_START	n/a	n/a	n/a	n/a	-999	18	[0, 0, 0]	n/a	catFR1	0	R1271P
2189.943	0.02	2224920	START	n/a	n/a	n/a	n/a	-999	19	[-999, -999, -999]	n/a	catFR1	0	R1271P
2189.963	5.369	2224940	PROB	5.341	n/a	n/a	n/a	-999	19	[3, 5, 2]	10.0	catFR1	0	R1271P
2195.332	3.967	2230309	PROB	3.94	n/a	n/a	n/a	-999	19	[5, 9, 4]	18.0	catFR1	0	R1271P
2199.299	5.234	2234276	PROB	5.205	n/a	n/a	n/a	-999	19	[7, 8, 7]	22.0	catFR1	0	R1271P
2204.533	4.685	2239509	PROB	4.659	n/a	n/a	n/a	-999	19	[6, 6, 3]	15.0	catFR1	0	R1271P
2209.218	3.588	2244194	PROB	3.588	n/a	n/a	n/a	-999	19	[1, 9, 5]	15.0	catFR1	0	R1271P
2212.806	0.011	2247782	STOP	n/a	n/a	n/a	n/a	-999	19	[-999, -999, -999]	n/a	catFR1	0	R1271P
2212.817	0.585	2247793	DISTRACT_END	n/a	n/a	n/a	n/a	-999	18	[0, 0, 0]	n/a	catFR1	0	R1271P
2213.402	0.516	2248378	RETRIEVAL_ORIENT	n/a	n/a	n/a	n/a	-999	18	[0, 0, 0]	n/a	catFR1	0	R1271P
2213.918	9.855	2248894	REC_START	n/a	n/a	n/a	n/a	-999	18	[0, 0, 0]	n/a	catFR1	0	R1271P
2223.773	3.487	2258748	REC_WORD	9.855	n/a	ONION	Vegetables	4	18	[0, 0, 0]	n/a	catFR1	0	R1271P
2227.26	4.832	2262235	REC_WORD	13.342	n/a	GRAPE	Fruit	1	18	[0, 0, 0]	n/a	catFR1	0	R1271P
2232.092	11.837	2267067	REC_WORD	18.174	n/a	CUCUMBER	Vegetables	3	18	[0, 0, 0]	n/a	catFR1	0	R1271P
2243.929	4.862	2278903	REC_END	n/a	n/a	n/a	n/a	-999	18	[0, 0, 0]	n/a	catFR1	0	R1271P
2248.791	0.5	2283765	TRIAL	n/a	n/a	n/a	n/a	-999	19	[0, 0, 0]	n/a	catFR1	0	R1271P
2249.291	10.428	2284265	COUNTDOWN_START	n/a	n/a	n/a	n/a	-999	19	[0, 0, 0]	n/a	catFR1	0	R1271P
2259.719	0.007	2294692	COUNTDOWN_END	n/a	n/a	n/a	n/a	-999	19	[0, 0, 0]	n/a	catFR1	0	R1271P
2259.726	1.601	2294699	ORIENT	n/a	n/a	n/a	n/a	-999	19	[0, 0, 0]	n/a	catFR1	0	R1271P
2261.327	2.151	2296300	ORIENT_OFF	n/a	n/a	n/a	n/a	-999	19	[0, 0, 0]	n/a	catFR1	0	R1271P
2263.478	1.616	2298451	WORD	n/a	wordpools/wordpool_categorized_EN.txt	JACKET	Clothing	1	19	[0, 0, 0]	n/a	catFR1	0	R1271P
2265.094	0.983	2300067	WORD_OFF	n/a	n/a	JACKET	n/a	1	19	[0, 0, 0]	n/a	catFR1	0	R1271P
2266.077	1.617	2301050	WORD	n/a	wordpools/wordpool_categorized_EN.txt	UNDERWEAR	Clothing	2	19	[0, 0, 0]	n/a	catFR1	0	R1271P
2267.694	0.967	2302667	WORD_OFF	n/a	n/a	UNDERWEAR	n/a	2	19	[0, 0, 0]	n/a	catFR1	0	R1271P
2268.661	1.618	2303634	WORD	n/a	wordpools/wordpool_categorized_EN.txt	WRENCH	Tools	3	19	[0, 0, 0]	n/a	catFR1	0	R1271P
2270.279	1.0	2305252	WORD_OFF	n/a	n/a	WRENCH	n/a	3	19	[0, 0, 0]	n/a	catFR1	0	R1271P
2271.279	1.616	2306252	WORD	n/a	wordpools/wordpool_categorized_EN.txt	SHOVEL	Tools	4	19	[0, 0, 0]	n/a	catFR1	0	R1271P
2272.895	0.9	2307868	WORD_OFF	n/a	n/a	SHOVEL	n/a	4	19	[0, 0, 0]	n/a	catFR1	0	R1271P
2273.795	1.618	2308768	WORD	n/a	wordpools/wordpool_categorized_EN.txt	FOOTBALL	Toys	5	19	[0, 0, 0]	n/a	catFR1	0	R1271P
2275.413	0.967	2310386	WORD_OFF	n/a	n/a	FOOTBALL	n/a	5	19	[0, 0, 0]	n/a	catFR1	0	R1271P
2276.38	1.616	2311353	WORD	n/a	wordpools/wordpool_categorized_EN.txt	MARBLES	Toys	6	19	[0, 0, 0]	n/a	catFR1	0	R1271P
2277.996	0.884	2312969	WORD_OFF	n/a	n/a	MARBLES	n/a	6	19	[0, 0, 0]	n/a	catFR1	0	R1271P
2278.88	1.618	2313852	WORD	n/a	wordpools/wordpool_categorized_EN.txt	JEANS	Clothing	7	19	[0, 0, 0]	n/a	catFR1	0	R1271P
2280.498	0.967	2315470	WORD_OFF	n/a	n/a	JEANS	n/a	7	19	[0, 0, 0]	n/a	catFR1	0	R1271P
2281.465	1.615	2316437	WORD	n/a	wordpools/wordpool_categorized_EN.txt	SOCKS	Clothing	8	19	[0, 0, 0]	n/a	catFR1	0	R1271P
2283.08	0.901	2318052	WORD_OFF	n/a	n/a	SOCKS	n/a	8	19	[0, 0, 0]	n/a	catFR1	0	R1271P
2283.981	1.618	2318953	WORD	n/a	wordpools/wordpool_categorized_EN.txt	DRILL	Tools	9	19	[0, 0, 0]	n/a	catFR1	0	R1271P
2285.599	0.866	2320571	WORD_OFF	n/a	n/a	DRILL	n/a	9	19	[0, 0, 0]	n/a	catFR1	0	R1271P
2286.465	1.616	2321437	WORD	n/a	wordpools/wordpool_categorized_EN.txt	CROWBAR	Tools	10	19	[0, 0, 0]	n/a	catFR1	0	R1271P
2288.081	0.9	2323053	WORD_OFF	n/a	n/a	CROWBAR	n/a	10	19	[0, 0, 0]	n/a	catFR1	0	R1271P
2288.981	1.619	2323953	WORD	n/a	wordpools/wordpool_categorized_EN.txt	FRISBEE	Toys	11	19	[0, 0, 0]	n/a	catFR1	0	R1271P
2290.6	0.866	2325572	WORD_OFF	n/a	n/a	FRISBEE	n/a	11	19	[0, 0, 0]	n/a	catFR1	0	R1271P
2291.466	1.616	2326438	WORD	n/a	wordpools/wordpool_categorized_EN.txt	DOLLHOUSE	Toys	12	19	[0, 0, 0]	n/a	catFR1	0	R1271P
2293.082	0.001	2328054	WORD_OFF	n/a	n/a	DOLLHOUSE	n/a	12	19	[0, 0, 0]	n/a	catFR1	0	R1271P
2293.083	0.104	2328055	ENCODING_END	n/a	n/a	n/a	n/a	-999	19	[0, 0, 0]	n/a	catFR1	0	R1271P
2293.187	0.001	2328159	DISTRACT_START	n/a	n/a	n/a	n/a	-999	19	[0, 0, 0]	n/a	catFR1	0	R1271P
2293.188	0.012	2328160	START	n/a	n/a	n/a	n/a	-999	20	[-999, -999, -999]	n/a	catFR1	0	R1271P
2293.2	4.301	2328172	PROB	4.272	n/a	n/a	n/a	-999	20	[5, 7, 1]	13.0	catFR1	0	R1271P
2297.501	4.266	2332473	PROB	4.241	n/a	n/a	n/a	-999	20	[2, 9, 3]	14.0	catFR1	0	R1271P
2301.767	5.168	2336738	PROB	5.136	n/a	n/a	n/a	-999	20	[7, 8, 1]	16.0	catFR1	0	R1271P
2306.935	8.207	2341906	PROB	8.207	n/a	n/a	n/a	-999	20	[6, 7, 9]	24.0	catFR1	0	R1271P
2315.142	0.012	2350113	STOP	n/a	n/a	n/a	n/a	-999	20	[-999, -999, -999]	n/a	catFR1	0	R1271P
2315.154	0.633	2350125	DISTRACT_END	n/a	n/a	n/a	n/a	-999	19	[0, 0, 0]	n/a	catFR1	0	R1271P
2315.787	0.518	2350758	RETRIEVAL_ORIENT	n/a	n/a	n/a	n/a	-999	19	[0, 0, 0]	n/a	catFR1	0	R1271P
2316.305	5.869	2351276	REC_START	n/a	n/a	n/a	n/a	-999	19	[0, 0, 0]	n/a	catFR1	0	R1271P
2322.174	2.156	2357144	REC_WORD_VV	5.869	n/a	<>	n/a	-999	19	[0, 0, 0]	n/a	catFR1	0	R1271P
2324.33	10.469	2359300	REC_WORD	8.025	n/a	WRENCH	Tools	3	19	[0, 0, 0]	n/a	catFR1	0	R1271P
2334.799	9.565	2369769	REC_WORD_VV	18.494	n/a	<>	n/a	-999	19	[0, 0, 0]	n/a	catFR1	0	R1271P
2344.364	1.954	2379333	REC_WORD	28.059	n/a	FOOTBALL	Toys	5	19	[0, 0, 0]	n/a	catFR1	0	R1271P
2346.318	5.26	2381287	REC_END	n/a	n/a	n/a	n/a	-999	19	[0, 0, 0]	n/a	catFR1	0	R1271P
2351.578	0.5	2386547	TRIAL	n/a	n/a	n/a	n/a	-999	20	[0, 0, 0]	n/a	catFR1	0	R1271P
2352.078	10.428	2387047	COUNTDOWN_START	n/a	n/a	n/a	n/a	-999	20	[0, 0, 0]	n/a	catFR1	0	R1271P
2362.506	0.007	2397474	COUNTDOWN_END	n/a	n/a	n/a	n/a	-999	20	[0, 0, 0]	n/a	catFR1	0	R1271P
2362.513	1.616	2397481	ORIENT	n/a	n/a	n/a	n/a	-999	20	[0, 0, 0]	n/a	catFR1	0	R1271P
2364.129	2.151	2399097	ORIENT_OFF	n/a	n/a	n/a	n/a	-999	20	[0, 0, 0]	n/a	catFR1	0	R1271P
2366.28	1.616	2401248	WORD	n/a	wordpools/wordpool_categorized_EN.txt	ELEPHANT	Zoo	1	20	[0, 0, 0]	n/a	catFR1	0	R1271P
2367.896	0.917	2402864	WORD_OFF	n/a	n/a	ELEPHANT	n/a	1	20	[0, 0, 0]	n/a	catFR1	0	R1271P
2368.813	1.601	2403781	WORD	n/a	wordpools/wordpool_categorized_EN.txt	GIRAFFE	Zoo	2	20	[0, 0, 0]	n/a	catFR1	0	R1271P
2370.414	0.934	2405382	WORD_OFF	n/a	n/a	GIRAFFE	n/a	2	20	[0, 0, 0]	n/a	catFR1	0	R1271P
2371.348	1.616	2406316	WORD	n/a	wordpools/wordpool_categorized_EN.txt	HORSE	FarmAnimals	3	20	[0, 0, 0]	n/a	catFR1	0	R1271P
2372.964	0.967	2407932	WORD_OFF	n/a	n/a	HORSE	n/a	3	20	[0, 0, 0]	n/a	catFR1	0	R1271P
2373.931	1.618	2408899	WORD	n/a	wordpools/wordpool_categorized_EN.txt	ROOSTER	FarmAnimals	4	20	[0, 0, 0]	n/a	catFR1	0	R1271P
2375.549	0.933	2410516	WORD_OFF	n/a	n/a	ROOSTER	n/a	4	20	[0, 0, 0]	n/a	catFR1	0	R1271P
2376.482	1.616	2411449	WORD	n/a	wordpools/wordpool_categorized_EN.txt	STRAWBERRY	Fruit	5	20	[0, 0, 0]	n/a	catFR1	0	R1271P
2378.098	0.784	2413065	WORD_OFF	n/a	n/a	STRAWBERRY	n/a	5	20	[0, 0, 0]	n/a	catFR1	0	R1271P
2378.882	1.618	2413849	WORD	n/a	wordpools/wordpool_categorized_EN.txt	BLUEBERRY	Fruit	6	20	[0, 0, 0]	n/a	catFR1	0	R1271P
2380.5	1.017	2415467	WORD_OFF	n/a	n/a	BLUEBERRY	n/a	6	20	[0, 0, 0]	n/a	catFR1	0	R1271P
2381.517	1.616	2416484	WORD	n/a	wordpools/wordpool_categorized_EN.txt	SHEEP	FarmAnimals	7	20	[0, 0, 0]	n/a	catFR1	0	R1271P
2383.133	0.85	2418100	WORD_OFF	n/a	n/a	SHEEP	n/a	7	20	[0, 0, 0]	n/a	catFR1	0	R1271P
2383.983	1.618	2418950	WORD	n/a	wordpools/wordpool_categorized_EN.txt	GOAT	FarmAnimals	8	20	[0, 0, 0]	n/a	catFR1	0	R1271P
2385.601	0.933	2420568	WORD_OFF	n/a	n/a	GOAT	n/a	8	20	[0, 0, 0]	n/a	catFR1	0	R1271P
2386.534	1.616	2421501	WORD	n/a	wordpools/wordpool_categorized_EN.txt	PANDA	Zoo	9	20	[0, 0, 0]	n/a	catFR1	0	R1271P
2388.15	0.867	2423117	WORD_OFF	n/a	n/a	PANDA	n/a	9	20	[0, 0, 0]	n/a	catFR1	0	R1271P
2389.017	1.617	2423984	WORD	n/a	wordpools/wordpool_categorized_EN.txt	CHEETAH	Zoo	10	20	[0, 0, 0]	n/a	catFR1	0	R1271P
2390.634	0.851	2425601	WORD_OFF	n/a	n/a	CHEETAH	n/a	10	20	[0, 0, 0]	n/a	catFR1	0	R1271P
2391.485	1.616	2426452	WORD	n/a	wordpools/wordpool_categorized_EN.txt	APPLE	Fruit	11	20	[0, 0, 0]	n/a	catFR1	0	R1271P
2393.101	0.884	2428068	WORD_OFF	n/a	n/a	APPLE	n/a	11	20	[0, 0, 0]	n/a	catFR1	0	R1271P
2393.985	1.618	2428952	WORD	n/a	wordpools/wordpool_categorized_EN.txt	PEAR	Fruit	12	20	[0, 0, 0]	n/a	catFR1	0	R1271P
2395.603	0.0	2430569	ENCODING_END	n/a	n/a	n/a	n/a	-999	20	[0, 0, 0]	n/a	catFR1	0	R1271P
2395.603	0.132	2430569	WORD_OFF	n/a	n/a	PEAR	n/a	12	20	[0, 0, 0]	n/a	catFR1	0	R1271P
2395.735	0.0	2430701	DISTRACT_START	n/a	n/a	n/a	n/a	-999	20	[0, 0, 0]	n/a	catFR1	0	R1271P
2395.735	0.017	2430701	START	n/a	n/a	n/a	n/a	-999	21	[-999, -999, -999]	n/a	catFR1	0	R1271P
2395.752	6.017	2430718	PROB	5.982	n/a	n/a	n/a	-999	21	[3, 2, 8]	13.0	catFR1	0	R1271P
2401.769	4.868	2436735	PROB	4.838	n/a	n/a	n/a	-999	21	[1, 9, 8]	18.0	catFR1	0	R1271P
2406.637	6.686	2441603	PROB	6.658	n/a	n/a	n/a	-999	21	[8, 3, 9]	20.0	catFR1	0	R1271P
2413.323	6.811	2448289	PROB	6.811	n/a	n/a	n/a	-999	21	[6, 8, 8]	22.0	catFR1	0	R1271P
2420.134	0.023	2455099	STOP	n/a	n/a	n/a	n/a	-999	21	[-999, -999, -999]	n/a	catFR1	0	R1271P
2420.157	0.599	2455122	DISTRACT_END	n/a	n/a	n/a	n/a	-999	20	[0, 0, 0]	n/a	catFR1	0	R1271P
2420.756	0.519	2455721	RETRIEVAL_ORIENT	n/a	n/a	n/a	n/a	-999	20	[0, 0, 0]	n/a	catFR1	0	R1271P
2421.275	3.194	2456240	REC_START	n/a	n/a	n/a	n/a	-999	20	[0, 0, 0]	n/a	catFR1	0	R1271P
2424.469	1.981	2459434	REC_WORD	3.194	n/a	DOLPHIN	n/a	-999	20	[0, 0, 0]	n/a	catFR1	0	R1271P
2426.45	3.69	2461415	REC_WORD	5.175	n/a	HORSE	FarmAnimals	3	20	[0, 0, 0]	n/a	catFR1	0	R1271P
2430.14	1.479	2465105	REC_WORD_VV	8.865	n/a	<>	n/a	-999	20	[0, 0, 0]	n/a	catFR1	0	R1271P
2431.619	2.364	2466584	REC_WORD	10.344	n/a	GOAT	FarmAnimals	8	20	[0, 0, 0]	n/a	catFR1	0	R1271P
2433.983	2.594	2468947	REC_WORD	12.708	n/a	SHEEP	FarmAnimals	7	20	[0, 0, 0]	n/a	catFR1	0	R1271P
2436.577	6.845	2471541	REC_WORD	15.302	n/a	GIRAFFE	Zoo	2	20	[0, 0, 0]	n/a	catFR1	0	R1271P
2443.422	0.756	2478386	REC_WORD_VV	22.147	n/a	<>	n/a	-999	20	[0, 0, 0]	n/a	catFR1	0	R1271P
2444.178	0.338	2479142	REC_WORD	22.903	n/a	HORSE	FarmAnimals	3	20	[0, 0, 0]	n/a	catFR1	0	R1271P
2444.516	6.772	2479480	REC_WORD_VV	23.241	n/a	<>	n/a	-999	20	[0, 0, 0]	n/a	catFR1	0	R1271P
2451.288	4.976	2486252	REC_END	n/a	n/a	n/a	n/a	-999	20	[0, 0, 0]	n/a	catFR1	0	R1271P
2456.264	0.5	2491227	TRIAL	n/a	n/a	n/a	n/a	-999	21	[0, 0, 0]	n/a	catFR1	0	R1271P
2456.764	10.428	2491727	COUNTDOWN_START	n/a	n/a	n/a	n/a	-999	21	[0, 0, 0]	n/a	catFR1	0	R1271P
2467.192	0.007	2502155	COUNTDOWN_END	n/a	n/a	n/a	n/a	-999	21	[0, 0, 0]	n/a	catFR1	0	R1271P
2467.199	1.617	2502162	ORIENT	n/a	n/a	n/a	n/a	-999	21	[0, 0, 0]	n/a	catFR1	0	R1271P
2468.816	2.083	2503779	ORIENT_OFF	n/a	n/a	n/a	n/a	-999	21	[0, 0, 0]	n/a	catFR1	0	R1271P
2470.899	1.618	2505862	WORD	n/a	wordpools/wordpool_categorized_EN.txt	OYSTER	OceanAnimals	1	21	[0, 0, 0]	n/a	catFR1	0	R1271P
2472.517	0.834	2507479	WORD_OFF	n/a	n/a	OYSTER	n/a	1	21	[0, 0, 0]	n/a	catFR1	0	R1271P
2473.351	1.616	2508313	WORD	n/a	wordpools/wordpool_categorized_EN.txt	PLANKTON	OceanAnimals	2	21	[0, 0, 0]	n/a	catFR1	0	R1271P
2474.967	0.883	2509929	WORD_OFF	n/a	n/a	PLANKTON	n/a	2	21	[0, 0, 0]	n/a	catFR1	0	R1271P
2475.85	1.618	2510812	WORD	n/a	wordpools/wordpool_categorized_EN.txt	DRESS	Clothing	3	21	[0, 0, 0]	n/a	catFR1	0	R1271P
2477.468	0.967	2512430	WORD_OFF	n/a	n/a	DRESS	n/a	3	21	[0, 0, 0]	n/a	catFR1	0	R1271P
2478.435	1.616	2513397	WORD	n/a	wordpools/wordpool_categorized_EN.txt	COAT	Clothing	4	21	[0, 0, 0]	n/a	catFR1	0	R1271P
2480.051	0.85	2515013	WORD_OFF	n/a	n/a	COAT	n/a	4	21	[0, 0, 0]	n/a	catFR1	0	R1271P
2480.901	1.618	2515863	WORD	n/a	wordpools/wordpool_categorized_EN.txt	VIOLIN	Instruments	5	21	[0, 0, 0]	n/a	catFR1	0	R1271P
2482.519	0.85	2517481	WORD_OFF	n/a	n/a	VIOLIN	n/a	5	21	[0, 0, 0]	n/a	catFR1	0	R1271P
2483.369	1.616	2518331	WORD	n/a	wordpools/wordpool_categorized_EN.txt	TRUMPET	Instruments	6	21	[0, 0, 0]	n/a	catFR1	0	R1271P
2484.985	0.817	2519947	WORD_OFF	n/a	n/a	TRUMPET	n/a	6	21	[0, 0, 0]	n/a	catFR1	0	R1271P
2485.802	1.618	2520764	WORD	n/a	wordpools/wordpool_categorized_EN.txt	PANTS	Clothing	7	21	[0, 0, 0]	n/a	catFR1	0	R1271P
2487.42	0.984	2522382	WORD_OFF	n/a	n/a	PANTS	n/a	7	21	[0, 0, 0]	n/a	catFR1	0	R1271P
2488.404	1.615	2523366	WORD	n/a	wordpools/wordpool_categorized_EN.txt	SKIRT	Clothing	8	21	[0, 0, 0]	n/a	catFR1	0	R1271P
2490.019	0.784	2524981	WORD_OFF	n/a	n/a	SKIRT	n/a	8	21	[0, 0, 0]	n/a	catFR1	0	R1271P
2490.803	1.618	2525765	WORD	n/a	wordpools/wordpool_categorized_EN.txt	SQUID	OceanAnimals	9	21	[0, 0, 0]	n/a	catFR1	0	R1271P
2492.421	0.85	2527382	WORD_OFF	n/a	n/a	SQUID	n/a	9	21	[0, 0, 0]	n/a	catFR1	0	R1271P
2493.271	1.616	2528232	WORD	n/a	wordpools/wordpool_categorized_EN.txt	CRAB	OceanAnimals	10	21	[0, 0, 0]	n/a	catFR1	0	R1271P
2494.887	0.767	2529848	WORD_OFF	n/a	n/a	CRAB	n/a	10	21	[0, 0, 0]	n/a	catFR1	0	R1271P
2495.654	1.618	2530615	WORD	n/a	wordpools/wordpool_categorized_EN.txt	TUBA	Instruments	11	21	[0, 0, 0]	n/a	catFR1	0	R1271P
2497.272	0.9	2532233	WORD_OFF	n/a	n/a	TUBA	n/a	11	21	[0, 0, 0]	n/a	catFR1	0	R1271P
2498.172	1.616	2533133	WORD	n/a	wordpools/wordpool_categorized_EN.txt	GUITAR	Instruments	12	21	[0, 0, 0]	n/a	catFR1	0	R1271P
2499.788	0.0	2534749	ENCODING_END	n/a	n/a	n/a	n/a	-999	21	[0, 0, 0]	n/a	catFR1	0	R1271P
2499.788	0.129	2534749	WORD_OFF	n/a	n/a	GUITAR	n/a	12	21	[0, 0, 0]	n/a	catFR1	0	R1271P
2499.917	0.0	2534878	DISTRACT_START	n/a	n/a	n/a	n/a	-999	21	[0, 0, 0]	n/a	catFR1	0	R1271P
2499.917	0.021	2534878	START	n/a	n/a	n/a	n/a	-999	22	[-999, -999, -999]	n/a	catFR1	0	R1271P
2499.938	4.435	2534899	PROB	4.398	n/a	n/a	n/a	-999	22	[7, 5, 5]	17.0	catFR1	0	R1271P
2504.373	3.533	2539334	PROB	3.497	n/a	n/a	n/a	-999	22	[4, 3, 8]	15.0	catFR1	0	R1271P
2507.906	3.268	2542867	PROB	3.236	n/a	n/a	n/a	-999	22	[3, 5, 3]	11.0	catFR1	0	R1271P
2511.174	3.884	2546134	PROB	3.849	n/a	n/a	n/a	-999	22	[8, 1, 6]	16.0	catFR1	0	R1271P
2515.058	4.584	2550018	PROB	4.548	n/a	n/a	n/a	-999	22	[8, 5, 4]	17.0	catFR1	0	R1271P
2519.642	3.277	2554602	PROB	3.277	n/a	n/a	n/a	-999	22	[8, 5, 3]	16.0	catFR1	0	R1271P
2522.919	0.007	2557879	STOP	n/a	n/a	n/a	n/a	-999	22	[-999, -999, -999]	n/a	catFR1	0	R1271P
2522.926	0.567	2557886	DISTRACT_END	n/a	n/a	n/a	n/a	-999	21	[0, 0, 0]	n/a	catFR1	0	R1271P
2523.493	0.517	2558453	RETRIEVAL_ORIENT	n/a	n/a	n/a	n/a	-999	21	[0, 0, 0]	n/a	catFR1	0	R1271P
2524.01	3.224	2558970	REC_START	n/a	n/a	n/a	n/a	-999	21	[0, 0, 0]	n/a	catFR1	0	R1271P
2527.234	3.153	2562194	REC_WORD	3.224	n/a	VIOLIN	Instruments	5	21	[0, 0, 0]	n/a	catFR1	0	R1271P
2530.387	23.634	2565346	REC_WORD	6.377	n/a	TUBA	Instruments	11	21	[0, 0, 0]	n/a	catFR1	0	R1271P
2554.021	4.928	2588979	REC_END	n/a	n/a	n/a	n/a	-999	21	[0, 0, 0]	n/a	catFR1	0	R1271P
2558.949	0.5	2593907	TRIAL	n/a	n/a	n/a	n/a	-999	22	[0, 0, 0]	n/a	catFR1	0	R1271P
2559.449	10.428	2594407	COUNTDOWN_START	n/a	n/a	n/a	n/a	-999	22	[0, 0, 0]	n/a	catFR1	0	R1271P
2569.877	0.007	2604834	COUNTDOWN_END	n/a	n/a	n/a	n/a	-999	22	[0, 0, 0]	n/a	catFR1	0	R1271P
2569.884	1.602	2604841	ORIENT	n/a	n/a	n/a	n/a	-999	22	[0, 0, 0]	n/a	catFR1	0	R1271P
2571.486	2.299	2606443	ORIENT_OFF	n/a	n/a	n/a	n/a	-999	22	[0, 0, 0]	n/a	catFR1	0	R1271P
2573.785	1.618	2608742	WORD	n/a	wordpools/wordpool_categorized_EN.txt	CHERRY	Fruit	1	22	[0, 0, 0]	n/a	catFR1	0	R1271P
2575.403	0.967	2610360	WORD_OFF	n/a	n/a	CHERRY	n/a	1	22	[0, 0, 0]	n/a	catFR1	0	R1271P
2576.37	1.616	2611327	WORD	n/a	wordpools/wordpool_categorized_EN.txt	ORANGE	Fruit	2	22	[0, 0, 0]	n/a	catFR1	0	R1271P
2577.986	0.8	2612943	WORD_OFF	n/a	n/a	ORANGE	n/a	2	22	[0, 0, 0]	n/a	catFR1	0	R1271P
2578.786	1.618	2613743	WORD	n/a	wordpools/wordpool_categorized_EN.txt	CELLO	Instruments	3	22	[0, 0, 0]	n/a	catFR1	0	R1271P
2580.404	0.967	2615361	WORD_OFF	n/a	n/a	CELLO	n/a	3	22	[0, 0, 0]	n/a	catFR1	0	R1271P
2581.371	1.616	2616328	WORD	n/a	wordpools/wordpool_categorized_EN.txt	FLUTE	Instruments	4	22	[0, 0, 0]	n/a	catFR1	0	R1271P
2582.987	1.0	2617944	WORD_OFF	n/a	n/a	FLUTE	n/a	4	22	[0, 0, 0]	n/a	catFR1	0	R1271P
2583.987	1.618	2618944	WORD	n/a	wordpools/wordpool_categorized_EN.txt	BUTTERFLY	Insects	5	22	[0, 0, 0]	n/a	catFR1	0	R1271P
2585.605	0.934	2620562	WORD_OFF	n/a	n/a	BUTTERFLY	n/a	5	22	[0, 0, 0]	n/a	catFR1	0	R1271P
2586.539	1.616	2621496	WORD	n/a	wordpools/wordpool_categorized_EN.txt	BEETLE	Insects	6	22	[0, 0, 0]	n/a	catFR1	0	R1271P
2588.155	0.983	2623112	WORD_OFF	n/a	n/a	BEETLE	n/a	6	22	[0, 0, 0]	n/a	catFR1	0	R1271P
