onset	duration	sample	trial_type	response_time	stim_file	item_name	category	serialpos	list	test	answer	experiment	session	subject
0.0	3.399	123173	INSTRUCT_START	n/a	n/a	n/a	n/a	-999	-999	[0, 0, 0]	n/a	catFR1	0	R1390M
3.399	44.383	126571	INSTRUCT_END	n/a	n/a	n/a	n/a	-999	-999	[0, 0, 0]	n/a	catFR1	0	R1390M
47.782	10.0	170954	COUNTDOWN_START	n/a	n/a	n/a	n/a	-999	-999	[0, 0, 0]	n/a	catFR1	0	R1390M
58.132	0.001	181296	COUNTDOWN_END	n/a	n/a	n/a	n/a	-999	-999	[0, 0, 0]	n/a	catFR1	0	R1390M
58.133	2.182	181296	ENCODING_START	n/a	n/a	n/a	n/a	-999	-1	[0, 0, 0]	n/a	catFR1	0	R1390M
60.315	1.6	183483	WORD	n/a	n/a	MINUTE	Times	1	-1	[0, 0, 0]	n/a	catFR1	0	R1390M
61.931	0.916	185099	WORD_OFF	n/a	n/a	MINUTE	Times	1	-1	[0, 0, 0]	n/a	catFR1	0	R1390M
62.847	1.6	186018	WORD	n/a	n/a	DAY	Times	2	-1	[0, 0, 0]	n/a	catFR1	0	R1390M
64.448	0.867	187616	WORD_OFF	n/a	n/a	DAY	Times	2	-1	[0, 0, 0]	n/a	catFR1	0	R1390M
65.315	1.6	188479	WORD	n/a	n/a	LEATHER	Materials	3	-1	[0, 0, 0]	n/a	catFR1	0	R1390M
66.931	0.95	190096	WORD_OFF	n/a	n/a	LEATHER	Materials	3	-1	[0, 0, 0]	n/a	catFR1	0	R1390M
67.881	1.6	191051	WORD	n/a	n/a	WOOL	Materials	4	-1	[0, 0, 0]	n/a	catFR1	0	R1390M
69.498	0.783	192668	WORD_OFF	n/a	n/a	WOOL	Materials	4	-1	[0, 0, 0]	n/a	catFR1	0	R1390M
70.281	1.6	193439	WORD	n/a	n/a	FARMER	Professions	5	-1	[0, 0, 0]	n/a	catFR1	0	R1390M
71.881	0.95	195056	WORD_OFF	n/a	n/a	FARMER	Professions	5	-1	[0, 0, 0]	n/a	catFR1	0	R1390M
72.831	1.6	195993	WORD	n/a	n/a	FIREMAN	Professions	6	-1	[0, 0, 0]	n/a	catFR1	0	R1390M
74.448	0.8	197609	WORD_OFF	n/a	n/a	FIREMAN	Professions	6	-1	[0, 0, 0]	n/a	catFR1	0	R1390M
75.248	1.6	198418	WORD	n/a	n/a	HOUR	Times	7	-1	[0, 0, 0]	n/a	catFR1	0	R1390M
76.865	0.8	200034	WORD_OFF	n/a	n/a	HOUR	Times	7	-1	[0, 0, 0]	n/a	catFR1	0	R1390M
77.665	1.6	200824	WORD	n/a	n/a	SECOND	Times	8	-1	[0, 0, 0]	n/a	catFR1	0	R1390M
79.281	0.934	202441	WORD_OFF	n/a	n/a	SECOND	Times	8	-1	[0, 0, 0]	n/a	catFR1	0	R1390M
80.215	1.6	203378	WORD	n/a	n/a	DENIM	Materials	9	-1	[0, 0, 0]	n/a	catFR1	0	R1390M
81.815	0.766	204976	WORD_OFF	n/a	n/a	DENIM	Materials	9	-1	[0, 0, 0]	n/a	catFR1	0	R1390M
82.581	1.6	205747	WORD	n/a	n/a	SILK	Materials	10	-1	[0, 0, 0]	n/a	catFR1	0	R1390M
84.198	0.983	207364	WORD_OFF	n/a	n/a	SILK	Materials	10	-1	[0, 0, 0]	n/a	catFR1	0	R1390M
85.181	1.6	208356	WORD	n/a	n/a	PLUMBER	Professions	11	-1	[0, 0, 0]	n/a	catFR1	0	R1390M
86.781	0.9	209954	WORD_OFF	n/a	n/a	PLUMBER	Professions	11	-1	[0, 0, 0]	n/a	catFR1	0	R1390M
87.681	1.6	210854	WORD	n/a	n/a	TEACHER	Professions	12	-1	[0, 0, 0]	n/a	catFR1	0	R1390M
89.299	0.001	212464	PROB	5.101	n/a	n/a	n/a	-999	-1	[5, 8, 7]	20.0	catFR1	0	R1390M
89.3	0.0	212465	START	n/a	n/a	n/a	n/a	-999	-1	[-999, -999, -999]	n/a	catFR1	0	R1390M
89.297	0.002	212471	WORD_OFF	n/a	n/a	TEACHER	Professions	12	-1	[0, 0, 0]	n/a	catFR1	0	R1390M
89.299	0.001	212471	ENCODING_END	n/a	n/a	n/a	n/a	-999	-1	[0, 0, 0]	n/a	catFR1	0	R1390M
89.3	5.115	212471	DISTRACT_START	n/a	n/a	n/a	n/a	-999	-1	[0, 0, 0]	n/a	catFR1	0	R1390M
94.415	6.1	217579	PROB	6.082	n/a	n/a	n/a	-999	-1	[5, 6, 6]	17.0	catFR1	0	R1390M
100.515	3.367	223679	PROB	3.35	n/a	n/a	n/a	-999	-1	[1, 1, 1]	3.0	catFR1	0	R1390M
103.882	6.866	227046	PROB	6.849	n/a	n/a	n/a	-999	-1	[6, 2, 6]	14.0	catFR1	0	R1390M
110.748	0.0	233909	DISTRACT_END	n/a	n/a	n/a	n/a	-999	-1	[0, 0, 0]	n/a	catFR1	0	R1390M
110.748	1.2	233912	STOP	n/a	n/a	n/a	n/a	-999	-1	[-999, -999, -999]	n/a	catFR1	0	R1390M
111.948	2.247	235122	REC_START	n/a	n/a	n/a	n/a	-999	-1	[0, 0, 0]	n/a	catFR1	0	R1390M
114.195	0.39	237359	REC_WORD	2.247	n/a	WOOL	Materials	4	-1	[0, 0, 0]	n/a	catFR1	0	R1390M
114.585	0.806	237748	REC_WORD	2.637	n/a	SILK	Materials	10	-1	[0, 0, 0]	n/a	catFR1	0	R1390M
115.391	1.729	238554	REC_WORD	3.443	n/a	DENIM	Materials	9	-1	[0, 0, 0]	n/a	catFR1	0	R1390M
117.12	3.291	240283	REC_WORD	5.172	n/a	COTTON	n/a	-999	-1	[0, 0, 0]	n/a	catFR1	0	R1390M
120.411	0.551	243574	REC_WORD	8.463	n/a	MINUTE	Times	1	-1	[0, 0, 0]	n/a	catFR1	0	R1390M
120.962	0.359	244125	REC_WORD	9.014	n/a	DAY	Times	2	-1	[0, 0, 0]	n/a	catFR1	0	R1390M
121.321	1.699	244484	REC_WORD	9.373	n/a	SECOND	Times	8	-1	[0, 0, 0]	n/a	catFR1	0	R1390M
123.02	4.929	246183	REC_WORD	11.072	n/a	HOUR	Times	7	-1	[0, 0, 0]	n/a	catFR1	0	R1390M
127.949	1.445	251112	REC_WORD	16.001	n/a	FIREMAN	Professions	6	-1	[0, 0, 0]	n/a	catFR1	0	R1390M
129.394	4.057	252557	REC_WORD	17.446	n/a	WOOL	Materials	4	-1	[0, 0, 0]	n/a	catFR1	0	R1390M
133.451	8.779	256614	REC_WORD	21.503	n/a	FARMER	Professions	5	-1	[0, 0, 0]	n/a	catFR1	0	R1390M
142.23	16.235	265396	REC_END	n/a	n/a	n/a	n/a	-999	-1	[0, 0, 0]	n/a	catFR1	0	R1390M
158.465	10.0	281635	COUNTDOWN_START	n/a	n/a	n/a	n/a	-999	1	[0, 0, 0]	n/a	catFR1	0	R1390M
168.814	0.001	291978	COUNTDOWN_END	n/a	n/a	n/a	n/a	-999	1	[0, 0, 0]	n/a	catFR1	0	R1390M
168.815	2.15	291978	ENCODING_START	n/a	n/a	n/a	n/a	-999	1	[0, 0, 0]	n/a	catFR1	0	R1390M
170.965	1.6	294127	WORD	n/a	wordpools/wordpool_categorized_EN.txt	PIANO	Instruments	1	1	[0, 0, 0]	n/a	catFR1	0	R1390M
172.565	0.95	295725	WORD_OFF	n/a	n/a	PIANO	Instruments	1	1	[0, 0, 0]	n/a	catFR1	0	R1390M
173.515	1.6	296681	WORD	n/a	wordpools/wordpool_categorized_EN.txt	CELLO	Instruments	2	1	[0, 0, 0]	n/a	catFR1	0	R1390M
175.115	0.966	298279	WORD_OFF	n/a	n/a	CELLO	Instruments	2	1	[0, 0, 0]	n/a	catFR1	0	R1390M
176.081	1.6	299234	WORD	n/a	wordpools/wordpool_categorized_EN.txt	ANT	Insects	3	1	[0, 0, 0]	n/a	catFR1	0	R1390M
177.698	0.833	300851	WORD_OFF	n/a	n/a	ANT	Insects	3	1	[0, 0, 0]	n/a	catFR1	0	R1390M
178.531	1.6	301696	WORD	n/a	wordpools/wordpool_categorized_EN.txt	MOTH	Insects	4	1	[0, 0, 0]	n/a	catFR1	0	R1390M
180.148	0.917	303312	WORD_OFF	n/a	n/a	MOTH	Insects	4	1	[0, 0, 0]	n/a	catFR1	0	R1390M
181.065	1.6	304231	WORD	n/a	wordpools/wordpool_categorized_EN.txt	HORSE	Farmanimals	5	1	[0, 0, 0]	n/a	catFR1	0	R1390M
182.665	0.883	305829	WORD_OFF	n/a	n/a	HORSE	Farmanimals	5	1	[0, 0, 0]	n/a	catFR1	0	R1390M
183.548	1.6	306711	WORD	n/a	wordpools/wordpool_categorized_EN.txt	LAMB	Farmanimals	6	1	[0, 0, 0]	n/a	catFR1	0	R1390M
185.165	0.85	308327	WORD_OFF	n/a	n/a	LAMB	Farmanimals	6	1	[0, 0, 0]	n/a	catFR1	0	R1390M
186.015	1.6	309172	WORD	n/a	wordpools/wordpool_categorized_EN.txt	CRICKET	Insects	7	1	[0, 0, 0]	n/a	catFR1	0	R1390M
187.615	0.999	310771	WORD_OFF	n/a	n/a	CRICKET	Insects	7	1	[0, 0, 0]	n/a	catFR1	0	R1390M
188.614	1.6	311781	WORD	n/a	wordpools/wordpool_categorized_EN.txt	MOSQUITO	Insects	8	1	[0, 0, 0]	n/a	catFR1	0	R1390M
190.215	0.916	313379	WORD_OFF	n/a	n/a	MOSQUITO	Insects	8	1	[0, 0, 0]	n/a	catFR1	0	R1390M
191.131	1.6	314298	WORD	n/a	wordpools/wordpool_categorized_EN.txt	GOAT	Farmanimals	9	1	[0, 0, 0]	n/a	catFR1	0	R1390M
192.731	0.8	315896	WORD_OFF	n/a	n/a	GOAT	Farmanimals	9	1	[0, 0, 0]	n/a	catFR1	0	R1390M
193.531	1.6	316686	WORD	n/a	wordpools/wordpool_categorized_EN.txt	PIG	Farmanimals	10	1	[0, 0, 0]	n/a	catFR1	0	R1390M
195.148	0.966	318303	WORD_OFF	n/a	n/a	PIG	Farmanimals	10	1	[0, 0, 0]	n/a	catFR1	0	R1390M
196.114	1.6	319276	WORD	n/a	wordpools/wordpool_categorized_EN.txt	ORGAN	Instruments	11	1	[0, 0, 0]	n/a	catFR1	0	R1390M
197.731	0.767	320893	WORD_OFF	n/a	n/a	ORGAN	Instruments	11	1	[0, 0, 0]	n/a	catFR1	0	R1390M
198.498	1.6	321664	WORD	n/a	wordpools/wordpool_categorized_EN.txt	VIOLIN	Instruments	12	1	[0, 0, 0]	n/a	catFR1	0	R1390M
200.115	0.001	323274	PROB	4.399	n/a	n/a	n/a	-999	1	[7, 3, 4]	14.0	catFR1	0	R1390M
200.116	0.0	323275	START	n/a	n/a	n/a	n/a	-999	1	[-999, -999, -999]	n/a	catFR1	0	R1390M
200.115	0.001	323281	WORD_OFF	n/a	n/a	VIOLIN	Instruments	12	1	[0, 0, 0]	n/a	catFR1	0	R1390M
200.116	0.0	323281	ENCODING_END	n/a	n/a	n/a	n/a	-999	1	[0, 0, 0]	n/a	catFR1	0	R1390M
200.116	4.416	323281	DISTRACT_START	n/a	n/a	n/a	n/a	-999	1	[0, 0, 0]	n/a	catFR1	0	R1390M
204.532	15.066	327691	PROB	15.049	n/a	n/a	n/a	-999	1	[4, 1, 8]	13.0	catFR1	0	R1390M
219.598	6.166	342756	PROB	6.149	n/a	n/a	n/a	-999	1	[8, 8, 2]	18.0	catFR1	0	R1390M
225.764	0.0	348922	STOP	n/a	n/a	n/a	n/a	-999	1	[-999, -999, -999]	n/a	catFR1	0	R1390M
225.764	1.299	348926	DISTRACT_END	n/a	n/a	n/a	n/a	-999	1	[0, 0, 0]	n/a	catFR1	0	R1390M
227.063	2.235	350230	REC_START	n/a	n/a	n/a	n/a	-999	1	[0, 0, 0]	n/a	catFR1	0	R1390M
229.298	0.696	352456	REC_WORD_VV	2.235	n/a	<>	n/a	-999	1	[0, 0, 0]	n/a	catFR1	0	R1390M
229.994	1.323	353152	REC_WORD	2.931	n/a	CELLO	Instruments	2	1	[0, 0, 0]	n/a	catFR1	0	R1390M
231.317	22.884	354475	REC_WORD	4.254	n/a	VIOLIN	Instruments	12	1	[0, 0, 0]	n/a	catFR1	0	R1390M
254.201	0.869	377357	REC_WORD	27.138	n/a	HORSE	Farmanimals	5	1	[0, 0, 0]	n/a	catFR1	0	R1390M
255.07	1.269	378226	REC_WORD	28.007	n/a	GOAT	Farmanimals	9	1	[0, 0, 0]	n/a	catFR1	0	R1390M
256.339	0.983	379495	REC_WORD	29.276	n/a	LAMB	Farmanimals	6	1	[0, 0, 0]	n/a	catFR1	0	R1390M
257.322	10.409	380486	REC_END	n/a	n/a	n/a	n/a	-999	1	[0, 0, 0]	n/a	catFR1	0	R1390M
267.731	10.0	390884	COUNTDOWN_START	n/a	n/a	n/a	n/a	-999	2	[0, 0, 0]	n/a	catFR1	0	R1390M
278.081	0.0	401245	COUNTDOWN_END	n/a	n/a	n/a	n/a	-999	2	[0, 0, 0]	n/a	catFR1	0	R1390M
278.081	2.134	401245	ENCODING_START	n/a	n/a	n/a	n/a	-999	2	[0, 0, 0]	n/a	catFR1	0	R1390M
280.215	1.6	403376	WORD	n/a	wordpools/wordpool_categorized_EN.txt	ATTIC	Building	1	2	[0, 0, 0]	n/a	catFR1	0	R1390M
281.815	0.8	404974	WORD_OFF	n/a	n/a	ATTIC	Building	1	2	[0, 0, 0]	n/a	catFR1	0	R1390M
282.615	1.6	405764	WORD	n/a	wordpools/wordpool_categorized_EN.txt	DOOR	Building	2	2	[0, 0, 0]	n/a	catFR1	0	R1390M
284.215	0.783	407380	WORD_OFF	n/a	n/a	DOOR	Building	2	2	[0, 0, 0]	n/a	catFR1	0	R1390M
284.998	1.6	408152	WORD	n/a	wordpools/wordpool_categorized_EN.txt	SAW	Tools	3	2	[0, 0, 0]	n/a	catFR1	0	R1390M
286.614	0.934	409769	WORD_OFF	n/a	n/a	SAW	Tools	3	2	[0, 0, 0]	n/a	catFR1	0	R1390M
287.548	1.6	410705	WORD	n/a	wordpools/wordpool_categorized_EN.txt	WRENCH	Tools	4	2	[0, 0, 0]	n/a	catFR1	0	R1390M
289.148	0.899	412304	WORD_OFF	n/a	n/a	WRENCH	Tools	4	2	[0, 0, 0]	n/a	catFR1	0	R1390M
290.047	1.6	413204	WORD	n/a	wordpools/wordpool_categorized_EN.txt	DRYER	Appliances	5	2	[0, 0, 0]	n/a	catFR1	0	R1390M
291.664	0.901	414820	WORD_OFF	n/a	n/a	DRYER	Appliances	5	2	[0, 0, 0]	n/a	catFR1	0	R1390M
292.565	1.6	415721	WORD	n/a	wordpools/wordpool_categorized_EN.txt	DISHWASHER	Appliances	6	2	[0, 0, 0]	n/a	catFR1	0	R1390M
294.181	0.817	417337	WORD_OFF	n/a	n/a	DISHWASHER	Appliances	6	2	[0, 0, 0]	n/a	catFR1	0	R1390M
294.998	1.6	418145	WORD	n/a	wordpools/wordpool_categorized_EN.txt	DRILL	Tools	7	2	[0, 0, 0]	n/a	catFR1	0	R1390M
296.598	0.966	419762	WORD_OFF	n/a	n/a	DRILL	Tools	7	2	[0, 0, 0]	n/a	catFR1	0	R1390M
297.564	1.6	420717	WORD	n/a	wordpools/wordpool_categorized_EN.txt	PLIERS	Tools	8	2	[0, 0, 0]	n/a	catFR1	0	R1390M
299.181	0.967	422334	WORD_OFF	n/a	n/a	PLIERS	Tools	8	2	[0, 0, 0]	n/a	catFR1	0	R1390M
300.148	1.6	423307	WORD	n/a	wordpools/wordpool_categorized_EN.txt	IRON	Appliances	9	2	[0, 0, 0]	n/a	catFR1	0	R1390M
301.764	0.9	424924	WORD_OFF	n/a	n/a	IRON	Appliances	9	2	[0, 0, 0]	n/a	catFR1	0	R1390M
302.664	1.6	425824	WORD	n/a	wordpools/wordpool_categorized_EN.txt	BLENDER	Appliances	10	2	[0, 0, 0]	n/a	catFR1	0	R1390M
304.281	0.784	427441	WORD_OFF	n/a	n/a	BLENDER	Appliances	10	2	[0, 0, 0]	n/a	catFR1	0	R1390M
305.065	1.6	428212	WORD	n/a	wordpools/wordpool_categorized_EN.txt	WALL	Building	11	2	[0, 0, 0]	n/a	catFR1	0	R1390M
306.681	0.767	429829	WORD_OFF	n/a	n/a	WALL	Building	11	2	[0, 0, 0]	n/a	catFR1	0	R1390M
307.448	1.6	430600	WORD	n/a	wordpools/wordpool_categorized_EN.txt	WINDOW	Building	12	2	[0, 0, 0]	n/a	catFR1	0	R1390M
309.064	0.002	432217	WORD_OFF	n/a	n/a	WINDOW	Building	12	2	[0, 0, 0]	n/a	catFR1	0	R1390M
309.066	0.0	432217	ENCODING_END	n/a	n/a	n/a	n/a	-999	2	[0, 0, 0]	n/a	catFR1	0	R1390M
309.066	0.0	432217	DISTRACT_START	n/a	n/a	n/a	n/a	-999	2	[0, 0, 0]	n/a	catFR1	0	R1390M
309.065	0.001	432219	PROB	8.183	n/a	n/a	n/a	-999	2	[5, 8, 3]	16.0	catFR1	0	R1390M
309.066	8.199	432220	START	n/a	n/a	n/a	n/a	-999	2	[-999, -999, -999]	n/a	catFR1	0	R1390M
317.265	8.182	440418	PROB	8.166	n/a	n/a	n/a	-999	2	[8, 6, 7]	21.0	catFR1	0	R1390M
325.447	5.267	448600	PROB	5.25	n/a	n/a	n/a	-999	2	[6, 6, 8]	20.0	catFR1	0	R1390M
330.714	0.0	453867	STOP	n/a	n/a	n/a	n/a	-999	2	[-999, -999, -999]	n/a	catFR1	0	R1390M
330.714	1.217	453876	DISTRACT_END	n/a	n/a	n/a	n/a	-999	2	[0, 0, 0]	n/a	catFR1	0	R1390M
331.931	2.33	455088	REC_START	n/a	n/a	n/a	n/a	-999	2	[0, 0, 0]	n/a	catFR1	0	R1390M
334.261	0.652	457413	REC_WORD	2.33	n/a	WINDOW	Building	12	2	[0, 0, 0]	n/a	catFR1	0	R1390M
334.913	0.647	458065	REC_WORD	2.982	n/a	DOOR	Building	2	2	[0, 0, 0]	n/a	catFR1	0	R1390M
335.56	0.774	458712	REC_WORD	3.629	n/a	ATTIC	Building	1	2	[0, 0, 0]	n/a	catFR1	0	R1390M
336.334	0.837	459486	REC_WORD	4.403	n/a	WRENCH	Tools	4	2	[0, 0, 0]	n/a	catFR1	0	R1390M
337.171	2.478	460323	REC_WORD	5.24	n/a	IRON	Appliances	9	2	[0, 0, 0]	n/a	catFR1	0	R1390M
339.649	2.58	462801	REC_WORD	7.718	n/a	DRILL	Tools	7	2	[0, 0, 0]	n/a	catFR1	0	R1390M
342.229	3.864	465381	REC_WORD	10.298	n/a	PLIERS	Tools	8	2	[0, 0, 0]	n/a	catFR1	0	R1390M
346.093	2.097	469245	REC_WORD	14.162	n/a	WALL	Building	11	2	[0, 0, 0]	n/a	catFR1	0	R1390M
348.19	1.552	471342	REC_WORD	16.259	n/a	DISHWASHER	Appliances	6	2	[0, 0, 0]	n/a	catFR1	0	R1390M
349.742	12.472	472894	REC_WORD	17.811	n/a	DRYER	Appliances	5	2	[0, 0, 0]	n/a	catFR1	0	R1390M
362.214	11.817	485362	REC_END	n/a	n/a	n/a	n/a	-999	2	[0, 0, 0]	n/a	catFR1	0	R1390M
374.031	10.0	497193	COUNTDOWN_START	n/a	n/a	n/a	n/a	-999	3	[0, 0, 0]	n/a	catFR1	0	R1390M
384.382	0.0	507536	COUNTDOWN_END	n/a	n/a	n/a	n/a	-999	3	[0, 0, 0]	n/a	catFR1	0	R1390M
384.382	2.233	507536	ENCODING_START	n/a	n/a	n/a	n/a	-999	3	[0, 0, 0]	n/a	catFR1	0	R1390M
386.615	1.6	509758	WORD	n/a	wordpools/wordpool_categorized_EN.txt	WALNUT	Trees	1	3	[0, 0, 0]	n/a	catFR1	0	R1390M
388.231	0.917	511375	WORD_OFF	n/a	n/a	WALNUT	Trees	1	3	[0, 0, 0]	n/a	catFR1	0	R1390M
389.148	1.6	512293	WORD	n/a	wordpools/wordpool_categorized_EN.txt	CEDAR	Trees	2	3	[0, 0, 0]	n/a	catFR1	0	R1390M
390.765	0.8	513910	WORD_OFF	n/a	n/a	CEDAR	Trees	2	3	[0, 0, 0]	n/a	catFR1	0	R1390M
391.565	1.6	514718	WORD	n/a	wordpools/wordpool_categorized_EN.txt	TROMBONE	Instruments	3	3	[0, 0, 0]	n/a	catFR1	0	R1390M
393.181	0.984	516335	WORD_OFF	n/a	n/a	TROMBONE	Instruments	3	3	[0, 0, 0]	n/a	catFR1	0	R1390M
394.165	1.6	517309	WORD	n/a	wordpools/wordpool_categorized_EN.txt	TUBA	Instruments	4	3	[0, 0, 0]	n/a	catFR1	0	R1390M
395.765	0.816	518907	WORD_OFF	n/a	n/a	TUBA	Instruments	4	3	[0, 0, 0]	n/a	catFR1	0	R1390M
396.581	1.6	519733	WORD	n/a	wordpools/wordpool_categorized_EN.txt	SKIRT	Clothing	5	3	[0, 0, 0]	n/a	catFR1	0	R1390M
398.197	0.951	521350	WORD_OFF	n/a	n/a	SKIRT	Clothing	5	3	[0, 0, 0]	n/a	catFR1	0	R1390M
399.148	1.6	522305	WORD	n/a	wordpools/wordpool_categorized_EN.txt	BLOUSE	Clothing	6	3	[0, 0, 0]	n/a	catFR1	0	R1390M
400.748	0.867	523904	WORD_OFF	n/a	n/a	BLOUSE	Clothing	6	3	[0, 0, 0]	n/a	catFR1	0	R1390M
401.615	1.6	524767	WORD	n/a	wordpools/wordpool_categorized_EN.txt	EVERGREEN	Trees	7	3	[0, 0, 0]	n/a	catFR1	0	R1390M
403.215	0.983	526365	WORD_OFF	n/a	n/a	EVERGREEN	Trees	7	3	[0, 0, 0]	n/a	catFR1	0	R1390M
404.198	1.6	527339	WORD	n/a	wordpools/wordpool_categorized_EN.txt	PINE	Trees	8	3	[0, 0, 0]	n/a	catFR1	0	R1390M
405.815	1.0	528955	WORD_OFF	n/a	n/a	PINE	Trees	8	3	[0, 0, 0]	n/a	catFR1	0	R1390M
406.815	1.6	529966	WORD	n/a	wordpools/wordpool_categorized_EN.txt	DRESS	Clothing	9	3	[0, 0, 0]	n/a	catFR1	0	R1390M
408.431	0.883	531582	WORD_OFF	n/a	n/a	DRESS	Clothing	9	3	[0, 0, 0]	n/a	catFR1	0	R1390M
409.314	1.6	532464	WORD	n/a	wordpools/wordpool_categorized_EN.txt	SHIRT	Clothing	10	3	[0, 0, 0]	n/a	catFR1	0	R1390M
410.915	0.865	534062	WORD_OFF	n/a	n/a	SHIRT	Clothing	10	3	[0, 0, 0]	n/a	catFR1	0	R1390M
411.78	1.6	534926	WORD	n/a	wordpools/wordpool_categorized_EN.txt	DRUM	Instruments	11	3	[0, 0, 0]	n/a	catFR1	0	R1390M
413.381	0.799	536524	WORD_OFF	n/a	n/a	DRUM	Instruments	11	3	[0, 0, 0]	n/a	catFR1	0	R1390M
414.18	1.6	537332	WORD	n/a	wordpools/wordpool_categorized_EN.txt	BASS	Instruments	12	3	[0, 0, 0]	n/a	catFR1	0	R1390M
415.781	0.008	538930	WORD_OFF	n/a	n/a	BASS	Instruments	12	3	[0, 0, 0]	n/a	catFR1	0	R1390M
415.789	0.0	538930	ENCODING_END	n/a	n/a	n/a	n/a	-999	3	[0, 0, 0]	n/a	catFR1	0	R1390M
415.789	0.0	538930	DISTRACT_START	n/a	n/a	n/a	n/a	-999	3	[0, 0, 0]	n/a	catFR1	0	R1390M
415.782	0.007	538930	PROB	5.666	n/a	n/a	n/a	-999	3	[1, 7, 5]	13.0	catFR1	0	R1390M
415.789	5.675	538937	START	n/a	n/a	n/a	n/a	-999	3	[-999, -999, -999]	n/a	catFR1	0	R1390M
421.464	6.7	544612	PROB	6.684	n/a	n/a	n/a	-999	3	[7, 3, 5]	15.0	catFR1	0	R1390M
428.164	4.2	551312	PROB	4.183	n/a	n/a	n/a	-999	3	[8, 6, 2]	16.0	catFR1	0	R1390M
432.364	3.85	555512	PROB	3.833	n/a	n/a	n/a	-999	3	[6, 4, 3]	13.0	catFR1	0	R1390M
436.214	0.0	559358	DISTRACT_END	n/a	n/a	n/a	n/a	-999	3	[0, 0, 0]	n/a	catFR1	0	R1390M
436.214	1.033	559361	STOP	n/a	n/a	n/a	n/a	-999	3	[-999, -999, -999]	n/a	catFR1	0	R1390M
437.247	4.68	560387	REC_START	n/a	n/a	n/a	n/a	-999	3	[0, 0, 0]	n/a	catFR1	0	R1390M
441.927	2.719	565074	REC_WORD	4.68	n/a	DRUM	Instruments	11	3	[0, 0, 0]	n/a	catFR1	0	R1390M
444.646	8.951	567793	REC_WORD	7.399	n/a	BASS	Instruments	12	3	[0, 0, 0]	n/a	catFR1	0	R1390M
453.597	0.696	576743	REC_WORD	16.35	n/a	CEDAR	Trees	2	3	[0, 0, 0]	n/a	catFR1	0	R1390M
454.293	2.747	577439	REC_WORD	17.046	n/a	PINE	Trees	8	3	[0, 0, 0]	n/a	catFR1	0	R1390M
457.04	10.48	580186	REC_WORD	19.793	n/a	EVERGREEN	Trees	7	3	[0, 0, 0]	n/a	catFR1	0	R1390M
467.52	7.094	590661	REC_END	n/a	n/a	n/a	n/a	-999	3	[0, 0, 0]	n/a	catFR1	0	R1390M
474.614	10.0	597771	COUNTDOWN_START	n/a	n/a	n/a	n/a	-999	4	[0, 0, 0]	n/a	catFR1	0	R1390M
484.965	0.001	608113	COUNTDOWN_END	n/a	n/a	n/a	n/a	-999	4	[0, 0, 0]	n/a	catFR1	0	R1390M
484.966	2.248	608113	ENCODING_START	n/a	n/a	n/a	n/a	-999	4	[0, 0, 0]	n/a	catFR1	0	R1390M
487.214	1.6	610354	WORD	n/a	wordpools/wordpool_categorized_EN.txt	CRAB	Oceananimals	1	4	[0, 0, 0]	n/a	catFR1	0	R1390M
488.814	0.984	611953	WORD_OFF	n/a	n/a	CRAB	Oceananimals	1	4	[0, 0, 0]	n/a	catFR1	0	R1390M
489.798	1.6	612945	WORD	n/a	wordpools/wordpool_categorized_EN.txt	TURTLE	Oceananimals	2	4	[0, 0, 0]	n/a	catFR1	0	R1390M
491.398	0.932	614543	WORD_OFF	n/a	n/a	TURTLE	Oceananimals	2	4	[0, 0, 0]	n/a	catFR1	0	R1390M
492.33	1.6	615480	WORD	n/a	wordpools/wordpool_categorized_EN.txt	STOVE	Appliances	3	4	[0, 0, 0]	n/a	catFR1	0	R1390M
493.931	0.817	617078	WORD_OFF	n/a	n/a	STOVE	Appliances	3	4	[0, 0, 0]	n/a	catFR1	0	R1390M
494.748	1.6	617886	WORD	n/a	wordpools/wordpool_categorized_EN.txt	VACUUM	Appliances	4	4	[0, 0, 0]	n/a	catFR1	0	R1390M
496.364	0.984	619503	WORD_OFF	n/a	n/a	VACUUM	Appliances	4	4	[0, 0, 0]	n/a	catFR1	0	R1390M
497.348	1.6	620495	WORD	n/a	wordpools/wordpool_categorized_EN.txt	OAK	Trees	5	4	[0, 0, 0]	n/a	catFR1	0	R1390M
498.965	0.765	622111	WORD_OFF	n/a	n/a	OAK	Trees	5	4	[0, 0, 0]	n/a	catFR1	0	R1390M
499.73	1.6	622883	WORD	n/a	wordpools/wordpool_categorized_EN.txt	HICKORY	Trees	6	4	[0, 0, 0]	n/a	catFR1	0	R1390M
501.331	0.784	624481	WORD_OFF	n/a	n/a	HICKORY	Trees	6	4	[0, 0, 0]	n/a	catFR1	0	R1390M
502.115	1.6	625253	WORD	n/a	wordpools/wordpool_categorized_EN.txt	LOBSTER	Oceananimals	7	4	[0, 0, 0]	n/a	catFR1	0	R1390M
503.715	0.915	626851	WORD_OFF	n/a	n/a	LOBSTER	Oceananimals	7	4	[0, 0, 0]	n/a	catFR1	0	R1390M
504.63	1.6	627769	WORD	n/a	wordpools/wordpool_categorized_EN.txt	SHRIMP	Oceananimals	8	4	[0, 0, 0]	n/a	catFR1	0	R1390M
506.231	0.783	629368	WORD_OFF	n/a	n/a	SHRIMP	Oceananimals	8	4	[0, 0, 0]	n/a	catFR1	0	R1390M
507.014	1.6	630158	WORD	n/a	wordpools/wordpool_categorized_EN.txt	MAPLE	Trees	9	4	[0, 0, 0]	n/a	catFR1	0	R1390M
508.615	0.899	631756	WORD_OFF	n/a	n/a	MAPLE	Trees	9	4	[0, 0, 0]	n/a	catFR1	0	R1390M
509.514	1.6	632656	WORD	n/a	wordpools/wordpool_categorized_EN.txt	SPRUCE	Trees	10	4	[0, 0, 0]	n/a	catFR1	0	R1390M
511.115	0.783	634254	WORD_OFF	n/a	n/a	SPRUCE	Trees	10	4	[0, 0, 0]	n/a	catFR1	0	R1390M
511.898	1.6	635044	WORD	n/a	wordpools/wordpool_categorized_EN.txt	TOASTER	Appliances	11	4	[0, 0, 0]	n/a	catFR1	0	R1390M
513.514	1.001	636661	WORD_OFF	n/a	n/a	TOASTER	Appliances	11	4	[0, 0, 0]	n/a	catFR1	0	R1390M
514.515	1.6	637653	WORD	n/a	wordpools/wordpool_categorized_EN.txt	FREEZER	Appliances	12	4	[0, 0, 0]	n/a	catFR1	0	R1390M
516.114	0.001	639251	WORD_OFF	n/a	n/a	FREEZER	Appliances	12	4	[0, 0, 0]	n/a	catFR1	0	R1390M
516.115	0.001	639258	PROB	4.249	n/a	n/a	n/a	-999	4	[4, 5, 1]	10.0	catFR1	0	R1390M
516.116	0.0	639259	START	n/a	n/a	n/a	n/a	-999	4	[-999, -999, -999]	n/a	catFR1	0	R1390M
516.116	0.0	639269	ENCODING_END	n/a	n/a	n/a	n/a	-999	4	[0, 0, 0]	n/a	catFR1	0	R1390M
516.116	4.266	639269	DISTRACT_START	n/a	n/a	n/a	n/a	-999	4	[0, 0, 0]	n/a	catFR1	0	R1390M
520.382	3.499	643525	PROB	3.482	n/a	n/a	n/a	-999	4	[1, 5, 5]	11.0	catFR1	0	R1390M
523.881	5.134	647024	PROB	5.116	n/a	n/a	n/a	-999	4	[7, 4, 3]	14.0	catFR1	0	R1390M
529.015	3.516	652158	PROB	3.499	n/a	n/a	n/a	-999	4	[6, 4, 2]	12.0	catFR1	0	R1390M
532.531	4.483	655674	PROB	4.466	n/a	n/a	n/a	-999	4	[8, 6, 2]	16.0	catFR1	0	R1390M
537.014	0.0	660156	DISTRACT_END	n/a	n/a	n/a	n/a	-999	4	[0, 0, 0]	n/a	catFR1	0	R1390M
537.014	1.3	660156	STOP	n/a	n/a	n/a	n/a	-999	4	[-999, -999, -999]	n/a	catFR1	0	R1390M
538.314	1.923	661461	REC_START	n/a	n/a	n/a	n/a	-999	4	[0, 0, 0]	n/a	catFR1	0	R1390M
540.237	1.593	663379	REC_WORD	1.923	n/a	SPRUCE	Trees	10	4	[0, 0, 0]	n/a	catFR1	0	R1390M
541.83	12.892	664972	REC_WORD	3.516	n/a	OAK	Trees	5	4	[0, 0, 0]	n/a	catFR1	0	R1390M
554.722	0.944	677863	REC_WORD	16.408	n/a	CRAB	Oceananimals	1	4	[0, 0, 0]	n/a	catFR1	0	R1390M
555.666	1.344	678807	REC_WORD	17.352	n/a	SHRIMP	Oceananimals	8	4	[0, 0, 0]	n/a	catFR1	0	R1390M
557.01	9.099	680151	REC_WORD	18.696	n/a	LOBSTER	Oceananimals	7	4	[0, 0, 0]	n/a	catFR1	0	R1390M
566.109	2.481	689250	REC_WORD	27.795	n/a	TOASTER	Appliances	11	4	[0, 0, 0]	n/a	catFR1	0	R1390M
568.59	6.308	691735	REC_END	n/a	n/a	n/a	n/a	-999	4	[0, 0, 0]	n/a	catFR1	0	R1390M
574.898	10.0	698036	COUNTDOWN_START	n/a	n/a	n/a	n/a	-999	5	[0, 0, 0]	n/a	catFR1	0	R1390M
585.249	0.0	708397	COUNTDOWN_END	n/a	n/a	n/a	n/a	-999	5	[0, 0, 0]	n/a	catFR1	0	R1390M
585.249	2.282	708397	ENCODING_START	n/a	n/a	n/a	n/a	-999	5	[0, 0, 0]	n/a	catFR1	0	R1390M
587.531	1.6	710675	WORD	n/a	wordpools/wordpool_categorized_EN.txt	CIDER	Beverages	1	5	[0, 0, 0]	n/a	catFR1	0	R1390M
589.148	0.783	712291	WORD_OFF	n/a	n/a	CIDER	Beverages	1	5	[0, 0, 0]	n/a	catFR1	0	R1390M
589.931	1.6	713063	WORD	n/a	wordpools/wordpool_categorized_EN.txt	JUICE	Beverages	2	5	[0, 0, 0]	n/a	catFR1	0	R1390M
591.531	0.8	714680	WORD_OFF	n/a	n/a	JUICE	Beverages	2	5	[0, 0, 0]	n/a	catFR1	0	R1390M
592.331	1.6	715470	WORD	n/a	wordpools/wordpool_categorized_EN.txt	GLUE	Officesupplies	3	5	[0, 0, 0]	n/a	catFR1	0	R1390M
593.931	0.784	717068	WORD_OFF	n/a	n/a	GLUE	Officesupplies	3	5	[0, 0, 0]	n/a	catFR1	0	R1390M
594.715	1.6	717858	WORD	n/a	wordpools/wordpool_categorized_EN.txt	FOLDER	Officesupplies	4	5	[0, 0, 0]	n/a	catFR1	0	R1390M
596.315	0.8	719456	WORD_OFF	n/a	n/a	FOLDER	Officesupplies	4	5	[0, 0, 0]	n/a	catFR1	0	R1390M
597.115	1.6	720246	WORD	n/a	wordpools/wordpool_categorized_EN.txt	RECLINER	Furniture	5	5	[0, 0, 0]	n/a	catFR1	0	R1390M
598.715	0.799	721862	WORD_OFF	n/a	n/a	RECLINER	Furniture	5	5	[0, 0, 0]	n/a	catFR1	0	R1390M
599.514	1.6	722652	WORD	n/a	wordpools/wordpool_categorized_EN.txt	DRESSER	Furniture	6	5	[0, 0, 0]	n/a	catFR1	0	R1390M
601.115	0.899	724250	WORD_OFF	n/a	n/a	DRESSER	Furniture	6	5	[0, 0, 0]	n/a	catFR1	0	R1390M
602.014	1.6	725151	WORD	n/a	wordpools/wordpool_categorized_EN.txt	STAPLER	Officesupplies	7	5	[0, 0, 0]	n/a	catFR1	0	R1390M
603.615	0.866	726749	WORD_OFF	n/a	n/a	STAPLER	Officesupplies	7	5	[0, 0, 0]	n/a	catFR1	0	R1390M
604.481	1.6	727612	WORD	n/a	wordpools/wordpool_categorized_EN.txt	PAPER	Officesupplies	8	5	[0, 0, 0]	n/a	catFR1	0	R1390M
606.098	0.883	729229	WORD_OFF	n/a	n/a	PAPER	Officesupplies	8	5	[0, 0, 0]	n/a	catFR1	0	R1390M
606.981	1.6	730129	WORD	n/a	wordpools/wordpool_categorized_EN.txt	LEMONADE	Beverages	9	5	[0, 0, 0]	n/a	catFR1	0	R1390M
608.581	0.95	731727	WORD_OFF	n/a	n/a	LEMONADE	Beverages	9	5	[0, 0, 0]	n/a	catFR1	0	R1390M
609.531	1.6	732664	WORD	n/a	wordpools/wordpool_categorized_EN.txt	WATER	Beverages	10	5	[0, 0, 0]	n/a	catFR1	0	R1390M
611.148	0.817	734281	WORD_OFF	n/a	n/a	WATER	Beverages	10	5	[0, 0, 0]	n/a	catFR1	0	R1390M
611.965	1.6	735107	WORD	n/a	wordpools/wordpool_categorized_EN.txt	DESK	Furniture	11	5	[0, 0, 0]	n/a	catFR1	0	R1390M
613.565	0.949	736706	WORD_OFF	n/a	n/a	DESK	Furniture	11	5	[0, 0, 0]	n/a	catFR1	0	R1390M
614.514	1.6	737661	WORD	n/a	wordpools/wordpool_categorized_EN.txt	SHELF	Furniture	12	5	[0, 0, 0]	n/a	catFR1	0	R1390M
616.116	0.0	739254	PROB	4.949	n/a	n/a	n/a	-999	5	[2, 1, 5]	8.0	catFR1	0	R1390M
616.116	0.0	739254	START	n/a	n/a	n/a	n/a	-999	5	[-999, -999, -999]	n/a	catFR1	0	R1390M
616.115	0.001	739259	WORD_OFF	n/a	n/a	SHELF	Furniture	12	5	[0, 0, 0]	n/a	catFR1	0	R1390M
616.116	0.0	739259	ENCODING_END	n/a	n/a	n/a	n/a	-999	5	[0, 0, 0]	n/a	catFR1	0	R1390M
616.116	4.966	739259	DISTRACT_START	n/a	n/a	n/a	n/a	-999	5	[0, 0, 0]	n/a	catFR1	0	R1390M
621.082	5.265	744220	PROB	5.249	n/a	n/a	n/a	-999	5	[6, 6, 5]	17.0	catFR1	0	R1390M
626.347	3.467	749485	PROB	3.45	n/a	n/a	n/a	-999	5	[5, 5, 1]	11.0	catFR1	0	R1390M
629.814	3.751	752952	PROB	3.733	n/a	n/a	n/a	-999	5	[6, 1, 4]	11.0	catFR1	0	R1390M
633.565	3.816	756702	PROB	3.799	n/a	n/a	n/a	-999	5	[1, 7, 1]	9.0	catFR1	0	R1390M
637.381	0.0	760514	DISTRACT_END	n/a	n/a	n/a	n/a	-999	5	[0, 0, 0]	n/a	catFR1	0	R1390M
637.381	1.383	760518	STOP	n/a	n/a	n/a	n/a	-999	5	[-999, -999, -999]	n/a	catFR1	0	R1390M
638.764	2.706	761910	REC_START	n/a	n/a	n/a	n/a	-999	5	[0, 0, 0]	n/a	catFR1	0	R1390M
641.47	0.731	764607	REC_WORD	2.706	n/a	CEDAR	Trees	-999	5	[0, 0, 0]	n/a	catFR1	0	R1390M
642.201	26.819	765338	REC_WORD	3.437	n/a	JUICE	Beverages	2	5	[0, 0, 0]	n/a	catFR1	0	R1390M
669.02	10.928	792147	REC_END	n/a	n/a	n/a	n/a	-999	5	[0, 0, 0]	n/a	catFR1	0	R1390M
679.948	10.0	803078	COUNTDOWN_START	n/a	n/a	n/a	n/a	-999	6	[0, 0, 0]	n/a	catFR1	0	R1390M
690.299	0.0	813439	COUNTDOWN_END	n/a	n/a	n/a	n/a	-999	6	[0, 0, 0]	n/a	catFR1	0	R1390M
690.299	1.948	813439	ENCODING_START	n/a	n/a	n/a	n/a	-999	6	[0, 0, 0]	n/a	catFR1	0	R1390M
692.247	1.6	815386	WORD	n/a	wordpools/wordpool_categorized_EN.txt	TRUCK	Vehicles	1	6	[0, 0, 0]	n/a	catFR1	0	R1390M
693.848	0.883	816984	WORD_OFF	n/a	n/a	TRUCK	Vehicles	1	6	[0, 0, 0]	n/a	catFR1	0	R1390M
694.731	1.6	817866	WORD	n/a	wordpools/wordpool_categorized_EN.txt	MOPED	Vehicles	2	6	[0, 0, 0]	n/a	catFR1	0	R1390M
696.331	0.834	819464	WORD_OFF	n/a	n/a	MOPED	Vehicles	2	6	[0, 0, 0]	n/a	catFR1	0	R1390M
697.165	1.6	820291	WORD	n/a	wordpools/wordpool_categorized_EN.txt	BEE	Insects	3	6	[0, 0, 0]	n/a	catFR1	0	R1390M
698.765	0.85	821907	WORD_OFF	n/a	n/a	BEE	Insects	3	6	[0, 0, 0]	n/a	catFR1	0	R1390M
699.615	1.6	822752	WORD	n/a	wordpools/wordpool_categorized_EN.txt	LADYBUG	Insects	4	6	[0, 0, 0]	n/a	catFR1	0	R1390M
701.23	0.918	824369	WORD_OFF	n/a	n/a	LADYBUG	Insects	4	6	[0, 0, 0]	n/a	catFR1	0	R1390M
702.148	1.6	825287	WORD	n/a	wordpools/wordpool_categorized_EN.txt	THUNDER	Weather	5	6	[0, 0, 0]	n/a	catFR1	0	R1390M
703.764	0.917	826904	WORD_OFF	n/a	n/a	THUNDER	Weather	5	6	[0, 0, 0]	n/a	catFR1	0	R1390M
704.681	1.6	827823	WORD	n/a	wordpools/wordpool_categorized_EN.txt	SNOW	Weather	6	6	[0, 0, 0]	n/a	catFR1	0	R1390M
706.281	0.9	829421	WORD_OFF	n/a	n/a	SNOW	Weather	6	6	[0, 0, 0]	n/a	catFR1	0	R1390M
707.181	1.6	830321	WORD	n/a	wordpools/wordpool_categorized_EN.txt	VAN	Vehicles	7	6	[0, 0, 0]	n/a	catFR1	0	R1390M
708.798	1.0	831938	WORD_OFF	n/a	n/a	VAN	Vehicles	7	6	[0, 0, 0]	n/a	catFR1	0	R1390M
709.798	1.6	832930	WORD	n/a	wordpools/wordpool_categorized_EN.txt	BIKE	Vehicles	8	6	[0, 0, 0]	n/a	catFR1	0	R1390M
711.415	0.933	834546	WORD_OFF	n/a	n/a	BIKE	Vehicles	8	6	[0, 0, 0]	n/a	catFR1	0	R1390M
712.348	1.6	835483	WORD	n/a	wordpools/wordpool_categorized_EN.txt	HUMIDITY	Weather	9	6	[0, 0, 0]	n/a	catFR1	0	R1390M
713.965	0.916	837100	WORD_OFF	n/a	n/a	HUMIDITY	Weather	9	6	[0, 0, 0]	n/a	catFR1	0	R1390M
714.881	1.6	838018	WORD	n/a	wordpools/wordpool_categorized_EN.txt	FOG	Weather	10	6	[0, 0, 0]	n/a	catFR1	0	R1390M
716.481	0.867	839616	WORD_OFF	n/a	n/a	FOG	Weather	10	6	[0, 0, 0]	n/a	catFR1	0	R1390M
717.348	1.6	840480	WORD	n/a	wordpools/wordpool_categorized_EN.txt	FLY	Insects	11	6	[0, 0, 0]	n/a	catFR1	0	R1390M
718.964	0.801	842096	WORD_OFF	n/a	n/a	FLY	Insects	11	6	[0, 0, 0]	n/a	catFR1	0	R1390M
719.765	1.6	842905	WORD	n/a	wordpools/wordpool_categorized_EN.txt	BUTTERFLY	Insects	12	6	[0, 0, 0]	n/a	catFR1	0	R1390M
721.38	0.001	844513	PROB	4.701	n/a	n/a	n/a	-999	6	[8, 6, 7]	21.0	catFR1	0	R1390M
721.381	0.0	844514	START	n/a	n/a	n/a	n/a	-999	6	[-999, -999, -999]	n/a	catFR1	0	R1390M
721.38	0.001	844521	WORD_OFF	n/a	n/a	BUTTERFLY	Insects	12	6	[0, 0, 0]	n/a	catFR1	0	R1390M
721.381	0.0	844521	ENCODING_END	n/a	n/a	n/a	n/a	-999	6	[0, 0, 0]	n/a	catFR1	0	R1390M
721.381	4.718	844521	DISTRACT_START	n/a	n/a	n/a	n/a	-999	6	[0, 0, 0]	n/a	catFR1	0	R1390M
726.099	3.366	849232	PROB	3.349	n/a	n/a	n/a	-999	6	[1, 3, 1]	5.0	catFR1	0	R1390M
729.465	4.817	852598	PROB	4.799	n/a	n/a	n/a	-999	6	[7, 1, 2]	10.0	catFR1	0	R1390M
734.282	5.166	857414	PROB	5.149	n/a	n/a	n/a	-999	6	[7, 7, 2]	16.0	catFR1	0	R1390M
739.448	4.533	862580	PROB	4.516	n/a	n/a	n/a	-999	6	[4, 7, 4]	15.0	catFR1	0	R1390M
743.981	0.0	867113	STOP	n/a	n/a	n/a	n/a	-999	6	[-999, -999, -999]	n/a	catFR1	0	R1390M
743.981	1.183	867117	DISTRACT_END	n/a	n/a	n/a	n/a	-999	6	[0, 0, 0]	n/a	catFR1	0	R1390M
745.164	1.604	868292	REC_START	n/a	n/a	n/a	n/a	-999	6	[0, 0, 0]	n/a	catFR1	0	R1390M
746.768	0.853	869900	REC_WORD	1.604	n/a	LADYBUG	Insects	4	6	[0, 0, 0]	n/a	catFR1	0	R1390M
747.621	10.491	870753	REC_WORD	2.457	n/a	FLY	Insects	11	6	[0, 0, 0]	n/a	catFR1	0	R1390M
758.112	2.398	881243	REC_WORD_VV	12.948	n/a	<>	n/a	-999	6	[0, 0, 0]	n/a	catFR1	0	R1390M
760.51	0.703	883641	REC_WORD	15.346	n/a	TRUCK	Vehicles	1	6	[0, 0, 0]	n/a	catFR1	0	R1390M
761.213	1.194	884344	REC_WORD	16.049	n/a	VAN	Vehicles	7	6	[0, 0, 0]	n/a	catFR1	0	R1390M
762.407	1.746	885538	REC_WORD	17.243	n/a	BIKE	Vehicles	8	6	[0, 0, 0]	n/a	catFR1	0	R1390M
764.153	0.608	887284	REC_WORD	18.989	n/a	THUNDER	Weather	5	6	[0, 0, 0]	n/a	catFR1	0	R1390M
764.761	4.214	887892	REC_WORD	19.597	n/a	HUMIDITY	Weather	9	6	[0, 0, 0]	n/a	catFR1	0	R1390M
768.975	3.765	892106	REC_WORD	23.811	n/a	STORM	n/a	-999	6	[0, 0, 0]	n/a	catFR1	0	R1390M
772.74	2.694	895870	REC_WORD	27.576	n/a	FOG	Weather	10	6	[0, 0, 0]	n/a	catFR1	0	R1390M
775.434	12.947	898567	REC_END	n/a	n/a	n/a	n/a	-999	6	[0, 0, 0]	n/a	catFR1	0	R1390M
788.381	10.0	911518	COUNTDOWN_START	n/a	n/a	n/a	n/a	-999	7	[0, 0, 0]	n/a	catFR1	0	R1390M
788.631	0.0	911757	COUNTDOWN_END	n/a	n/a	n/a	n/a	-999	7	[0, 0, 0]	n/a	catFR1	0	R1390M
788.631	2.134	911757	ENCODING_START	n/a	n/a	n/a	n/a	-999	7	[0, 0, 0]	n/a	catFR1	0	R1390M
790.765	1.6	913888	WORD	n/a	wordpools/wordpool_categorized_EN.txt	LEMON	Fruit	1	7	[0, 0, 0]	n/a	catFR1	0	R1390M
792.365	0.8	915486	WORD_OFF	n/a	n/a	LEMON	Fruit	1	7	[0, 0, 0]	n/a	catFR1	0	R1390M
793.165	1.6	916294	WORD	n/a	wordpools/wordpool_categorized_EN.txt	PEAR	Fruit	2	7	[0, 0, 0]	n/a	catFR1	0	R1390M
794.781	0.884	917911	WORD_OFF	n/a	n/a	PEAR	Fruit	2	7	[0, 0, 0]	n/a	catFR1	0	R1390M
795.665	1.6	918792	WORD	n/a	wordpools/wordpool_categorized_EN.txt	BANJO	Instruments	3	7	[0, 0, 0]	n/a	catFR1	0	R1390M
797.28	0.818	920409	WORD_OFF	n/a	n/a	BANJO	Instruments	3	7	[0, 0, 0]	n/a	catFR1	0	R1390M
798.098	1.6	921236	WORD	n/a	wordpools/wordpool_categorized_EN.txt	FLUTE	Instruments	4	7	[0, 0, 0]	n/a	catFR1	0	R1390M
799.698	0.767	922834	WORD_OFF	n/a	n/a	FLUTE	Instruments	4	7	[0, 0, 0]	n/a	catFR1	0	R1390M
800.465	1.6	923587	WORD	n/a	wordpools/wordpool_categorized_EN.txt	GNAT	Insects	5	7	[0, 0, 0]	n/a	catFR1	0	R1390M
802.065	0.883	925185	WORD_OFF	n/a	n/a	GNAT	Insects	5	7	[0, 0, 0]	n/a	catFR1	0	R1390M
802.948	1.6	926086	WORD	n/a	wordpools/wordpool_categorized_EN.txt	ROACH	Insects	6	7	[0, 0, 0]	n/a	catFR1	0	R1390M
804.548	1.0	927684	WORD_OFF	n/a	n/a	ROACH	Insects	6	7	[0, 0, 0]	n/a	catFR1	0	R1390M
805.548	1.6	928676	WORD	n/a	wordpools/wordpool_categorized_EN.txt	GUITAR	Instruments	7	7	[0, 0, 0]	n/a	catFR1	0	R1390M
807.165	0.816	930292	WORD_OFF	n/a	n/a	GUITAR	Instruments	7	7	[0, 0, 0]	n/a	catFR1	0	R1390M
807.981	1.6	931119	WORD	n/a	wordpools/wordpool_categorized_EN.txt	TRUMPET	Instruments	8	7	[0, 0, 0]	n/a	catFR1	0	R1390M
809.581	0.984	932717	WORD_OFF	n/a	n/a	TRUMPET	Instruments	8	7	[0, 0, 0]	n/a	catFR1	0	R1390M
810.565	1.6	933691	WORD	n/a	wordpools/wordpool_categorized_EN.txt	BEETLE	Insects	9	7	[0, 0, 0]	n/a	catFR1	0	R1390M
812.165	1.0	935289	WORD_OFF	n/a	n/a	BEETLE	Insects	9	7	[0, 0, 0]	n/a	catFR1	0	R1390M
813.165	1.6	936299	WORD	n/a	wordpools/wordpool_categorized_EN.txt	SPIDER	Insects	10	7	[0, 0, 0]	n/a	catFR1	0	R1390M
814.765	0.883	937898	WORD_OFF	n/a	n/a	SPIDER	Insects	10	7	[0, 0, 0]	n/a	catFR1	0	R1390M
815.648	1.6	938779	WORD	n/a	wordpools/wordpool_categorized_EN.txt	PEACH	Fruit	11	7	[0, 0, 0]	n/a	catFR1	0	R1390M
817.265	0.95	940396	WORD_OFF	n/a	n/a	PEACH	Fruit	11	7	[0, 0, 0]	n/a	catFR1	0	R1390M
818.215	1.6	941351	WORD	n/a	wordpools/wordpool_categorized_EN.txt	GRAPE	Fruit	12	7	[0, 0, 0]	n/a	catFR1	0	R1390M
819.815	0.001	942943	PROB	4.183	n/a	n/a	n/a	-999	7	[8, 8, 1]	17.0	catFR1	0	R1390M
819.816	0.0	942944	START	n/a	n/a	n/a	n/a	-999	7	[-999, -999, -999]	n/a	catFR1	0	R1390M
819.815	0.001	942950	WORD_OFF	n/a	n/a	GRAPE	Fruit	12	7	[0, 0, 0]	n/a	catFR1	0	R1390M
819.816	0.0	942950	ENCODING_END	n/a	n/a	n/a	n/a	-999	7	[0, 0, 0]	n/a	catFR1	0	R1390M
819.816	4.198	942950	DISTRACT_START	n/a	n/a	n/a	n/a	-999	7	[0, 0, 0]	n/a	catFR1	0	R1390M
824.014	3.551	947142	PROB	3.534	n/a	n/a	n/a	-999	7	[4, 1, 5]	10.0	catFR1	0	R1390M
827.565	3.667	950693	PROB	3.649	n/a	n/a	n/a	-999	7	[8, 8, 5]	21.0	catFR1	0	R1390M
831.232	4.033	954360	PROB	4.016	n/a	n/a	n/a	-999	7	[3, 4, 4]	11.0	catFR1	0	R1390M
835.265	4.15	958392	PROB	4.132	n/a	n/a	n/a	-999	7	[8, 2, 4]	14.0	catFR1	0	R1390M
839.415	3.565	962542	PROB	3.549	n/a	n/a	n/a	-999	7	[2, 5, 4]	11.0	catFR1	0	R1390M
842.98	0.0	966107	STOP	n/a	n/a	n/a	n/a	-999	7	[-999, -999, -999]	n/a	catFR1	0	R1390M
842.98	1.217	966114	DISTRACT_END	n/a	n/a	n/a	n/a	-999	7	[0, 0, 0]	n/a	catFR1	0	R1390M
844.197	1.937	967327	REC_START	n/a	n/a	n/a	n/a	-999	7	[0, 0, 0]	n/a	catFR1	0	R1390M
846.134	0.755	969261	REC_WORD	1.937	n/a	BEETLE	Insects	9	7	[0, 0, 0]	n/a	catFR1	0	R1390M
846.889	1.898	970016	REC_WORD	2.692	n/a	GNAT	Insects	5	7	[0, 0, 0]	n/a	catFR1	0	R1390M
848.787	4.083	971914	REC_WORD	4.59	n/a	GRAPE	Fruit	12	7	[0, 0, 0]	n/a	catFR1	0	R1390M
852.87	1.066	975996	REC_WORD	8.673	n/a	LEMON	Fruit	1	7	[0, 0, 0]	n/a	catFR1	0	R1390M
853.936	5.385	977062	REC_WORD	9.739	n/a	LIME	n/a	-999	7	[0, 0, 0]	n/a	catFR1	0	R1390M
859.321	9.241	982447	REC_WORD	15.124	n/a	PEAR	Fruit	2	7	[0, 0, 0]	n/a	catFR1	0	R1390M
868.562	0.658	991688	REC_WORD	24.365	n/a	BEETLE	Insects	9	7	[0, 0, 0]	n/a	catFR1	0	R1390M
869.22	5.25	992346	REC_WORD	25.023	n/a	GNAT	Insects	5	7	[0, 0, 0]	n/a	catFR1	0	R1390M
874.47	20.494	997601	REC_END	n/a	n/a	n/a	n/a	-999	7	[0, 0, 0]	n/a	catFR1	0	R1390M
894.964	10.0	1018084	COUNTDOWN_START	n/a	n/a	n/a	n/a	-999	8	[0, 0, 0]	n/a	catFR1	0	R1390M
905.315	0.0	1028445	COUNTDOWN_END	n/a	n/a	n/a	n/a	-999	8	[0, 0, 0]	n/a	catFR1	0	R1390M
905.315	2.032	1028445	ENCODING_START	n/a	n/a	n/a	n/a	-999	8	[0, 0, 0]	n/a	catFR1	0	R1390M
907.347	1.6	1030466	WORD	n/a	wordpools/wordpool_categorized_EN.txt	LADLE	Kitchentools	1	8	[0, 0, 0]	n/a	catFR1	0	R1390M
908.947	0.768	1032064	WORD_OFF	n/a	n/a	LADLE	Kitchentools	1	8	[0, 0, 0]	n/a	catFR1	0	R1390M
909.715	1.6	1032836	WORD	n/a	wordpools/wordpool_categorized_EN.txt	KNIFE	Kitchentools	2	8	[0, 0, 0]	n/a	catFR1	0	R1390M
911.315	0.816	1034434	WORD_OFF	n/a	n/a	KNIFE	Kitchentools	2	8	[0, 0, 0]	n/a	catFR1	0	R1390M
912.131	1.6	1035260	WORD	n/a	wordpools/wordpool_categorized_EN.txt	ORCHID	Flowers	3	8	[0, 0, 0]	n/a	catFR1	0	R1390M
913.731	0.934	1036859	WORD_OFF	n/a	n/a	ORCHID	Flowers	3	8	[0, 0, 0]	n/a	catFR1	0	R1390M
914.665	1.6	1037796	WORD	n/a	wordpools/wordpool_categorized_EN.txt	VIOLET	Flowers	4	8	[0, 0, 0]	n/a	catFR1	0	R1390M
916.265	0.816	1039394	WORD_OFF	n/a	n/a	VIOLET	Flowers	4	8	[0, 0, 0]	n/a	catFR1	0	R1390M
917.081	1.6	1040202	WORD	n/a	wordpools/wordpool_categorized_EN.txt	RIVER	Landscapes	5	8	[0, 0, 0]	n/a	catFR1	0	R1390M
918.698	0.917	1041819	WORD_OFF	n/a	n/a	RIVER	Landscapes	5	8	[0, 0, 0]	n/a	catFR1	0	R1390M
919.615	1.6	1042737	WORD	n/a	wordpools/wordpool_categorized_EN.txt	HILLS	Landscapes	6	8	[0, 0, 0]	n/a	catFR1	0	R1390M
921.215	0.833	1044335	WORD_OFF	n/a	n/a	HILLS	Landscapes	6	8	[0, 0, 0]	n/a	catFR1	0	R1390M
922.048	1.6	1045180	WORD	n/a	wordpools/wordpool_categorized_EN.txt	TULIP	Flowers	7	8	[0, 0, 0]	n/a	catFR1	0	R1390M
923.664	0.834	1046797	WORD_OFF	n/a	n/a	TULIP	Flowers	7	8	[0, 0, 0]	n/a	catFR1	0	R1390M
924.498	1.6	1047624	WORD	n/a	wordpools/wordpool_categorized_EN.txt	LILAC	Flowers	8	8	[0, 0, 0]	n/a	catFR1	0	R1390M
926.098	0.8	1049222	WORD_OFF	n/a	n/a	LILAC	Flowers	8	8	[0, 0, 0]	n/a	catFR1	0	R1390M
926.898	1.6	1050030	WORD	n/a	wordpools/wordpool_categorized_EN.txt	LAKE	Landscapes	9	8	[0, 0, 0]	n/a	catFR1	0	R1390M
928.514	1.0	1051647	WORD_OFF	n/a	n/a	LAKE	Landscapes	9	8	[0, 0, 0]	n/a	catFR1	0	R1390M
929.514	1.6	1052639	WORD	n/a	wordpools/wordpool_categorized_EN.txt	OCEAN	Landscapes	10	8	[0, 0, 0]	n/a	catFR1	0	R1390M
931.114	1.0	1054237	WORD_OFF	n/a	n/a	OCEAN	Landscapes	10	8	[0, 0, 0]	n/a	catFR1	0	R1390M
932.114	1.6	1055229	WORD	n/a	wordpools/wordpool_categorized_EN.txt	STRAINER	Kitchentools	11	8	[0, 0, 0]	n/a	catFR1	0	R1390M
933.714	0.85	1056846	WORD_OFF	n/a	n/a	STRAINER	Kitchentools	11	8	[0, 0, 0]	n/a	catFR1	0	R1390M
934.564	1.6	1057691	WORD	n/a	wordpools/wordpool_categorized_EN.txt	GRATER	Kitchentools	12	8	[0, 0, 0]	n/a	catFR1	0	R1390M
936.165	0.0	1059287	PROB	5.299	n/a	n/a	n/a	-999	8	[7, 4, 3]	14.0	catFR1	0	R1390M
936.164	0.009	1059289	WORD_OFF	n/a	n/a	GRATER	Kitchentools	12	8	[0, 0, 0]	n/a	catFR1	0	R1390M
936.173	0.0	1059289	ENCODING_END	n/a	n/a	n/a	n/a	-999	8	[0, 0, 0]	n/a	catFR1	0	R1390M
936.173	0.0	1059289	DISTRACT_START	n/a	n/a	n/a	n/a	-999	8	[0, 0, 0]	n/a	catFR1	0	R1390M
936.173	5.308	1059295	START	n/a	n/a	n/a	n/a	-999	8	[-999, -999, -999]	n/a	catFR1	0	R1390M
941.481	10.783	1064603	PROB	10.766	n/a	n/a	n/a	-999	8	[3, 8, 5]	16.0	catFR1	0	R1390M
952.264	6.183	1075385	PROB	6.166	n/a	n/a	n/a	-999	8	[6, 6, 1]	13.0	catFR1	0	R1390M
958.447	0.0	1081568	STOP	n/a	n/a	n/a	n/a	-999	8	[-999, -999, -999]	n/a	catFR1	0	R1390M
958.447	1.217	1081572	DISTRACT_END	n/a	n/a	n/a	n/a	-999	8	[0, 0, 0]	n/a	catFR1	0	R1390M
959.664	2.495	1082785	REC_START	n/a	n/a	n/a	n/a	-999	8	[0, 0, 0]	n/a	catFR1	0	R1390M
962.159	1.548	1085280	REC_WORD	2.495	n/a	LADLE	Kitchentools	1	8	[0, 0, 0]	n/a	catFR1	0	R1390M
963.707	1.932	1086828	REC_WORD	4.043	n/a	GRATER	Kitchentools	12	8	[0, 0, 0]	n/a	catFR1	0	R1390M
965.639	2.016	1088760	REC_WORD	5.975	n/a	OCEAN	Landscapes	10	8	[0, 0, 0]	n/a	catFR1	0	R1390M
967.655	3.468	1090776	REC_WORD	7.991	n/a	RIVER	Landscapes	5	8	[0, 0, 0]	n/a	catFR1	0	R1390M
971.123	18.796	1094244	REC_WORD	11.459	n/a	LAKE	Landscapes	9	8	[0, 0, 0]	n/a	catFR1	0	R1390M
989.919	7.112	1113041	REC_END	n/a	n/a	n/a	n/a	-999	8	[0, 0, 0]	n/a	catFR1	0	R1390M
997.031	10.0	1120150	COUNTDOWN_START	n/a	n/a	n/a	n/a	-999	9	[0, 0, 0]	n/a	catFR1	0	R1390M
1002.898	0.0	1126010	COUNTDOWN_END	n/a	n/a	n/a	n/a	-999	9	[0, 0, 0]	n/a	catFR1	0	R1390M
1002.898	2.033	1126028	ENCODING_START	n/a	n/a	n/a	n/a	-999	9	[0, 0, 0]	n/a	catFR1	0	R1390M
1004.931	1.6	1128049	WORD	n/a	wordpools/wordpool_categorized_EN.txt	WHISK	Kitchentools	1	9	[0, 0, 0]	n/a	catFR1	0	R1390M
1006.531	0.784	1129647	WORD_OFF	n/a	n/a	WHISK	Kitchentools	1	9	[0, 0, 0]	n/a	catFR1	0	R1390M
1007.315	1.6	1130437	WORD	n/a	wordpools/wordpool_categorized_EN.txt	PEELER	Kitchentools	2	9	[0, 0, 0]	n/a	catFR1	0	R1390M
1008.915	0.949	1132036	WORD_OFF	n/a	n/a	PEELER	Kitchentools	2	9	[0, 0, 0]	n/a	catFR1	0	R1390M
1009.864	1.6	1132991	WORD	n/a	wordpools/wordpool_categorized_EN.txt	LIME	Fruit	3	9	[0, 0, 0]	n/a	catFR1	0	R1390M
1011.465	0.882	1134589	WORD_OFF	n/a	n/a	LIME	Fruit	3	9	[0, 0, 0]	n/a	catFR1	0	R1390M
1012.347	1.6	1135471	WORD	n/a	wordpools/wordpool_categorized_EN.txt	BLUEBERRY	Fruit	4	9	[0, 0, 0]	n/a	catFR1	0	R1390M
1013.948	0.883	1137069	WORD_OFF	n/a	n/a	BLUEBERRY	Fruit	4	9	[0, 0, 0]	n/a	catFR1	0	R1390M
1014.831	1.6	1137951	WORD	n/a	wordpools/wordpool_categorized_EN.txt	PENCIL	Officesupplies	5	9	[0, 0, 0]	n/a	catFR1	0	R1390M
1016.447	0.918	1139567	WORD_OFF	n/a	n/a	PENCIL	Officesupplies	5	9	[0, 0, 0]	n/a	catFR1	0	R1390M
1017.365	1.6	1140486	WORD	n/a	wordpools/wordpool_categorized_EN.txt	NOTEBOOK	Officesupplies	6	9	[0, 0, 0]	n/a	catFR1	0	R1390M
1018.965	0.766	1142084	WORD_OFF	n/a	n/a	NOTEBOOK	Officesupplies	6	9	[0, 0, 0]	n/a	catFR1	0	R1390M
1019.731	1.6	1142856	WORD	n/a	wordpools/wordpool_categorized_EN.txt	ORANGE	Fruit	7	9	[0, 0, 0]	n/a	catFR1	0	R1390M
1021.331	0.999	1144454	WORD_OFF	n/a	n/a	ORANGE	Fruit	7	9	[0, 0, 0]	n/a	catFR1	0	R1390M
1022.33	1.6	1145446	WORD	n/a	wordpools/wordpool_categorized_EN.txt	CHERRY	Fruit	8	9	[0, 0, 0]	n/a	catFR1	0	R1390M
1023.931	0.967	1147044	WORD_OFF	n/a	n/a	CHERRY	Fruit	8	9	[0, 0, 0]	n/a	catFR1	0	R1390M
1024.898	1.6	1148018	WORD	n/a	wordpools/wordpool_categorized_EN.txt	TONGS	Kitchentools	9	9	[0, 0, 0]	n/a	catFR1	0	R1390M
1026.498	0.916	1149616	WORD_OFF	n/a	n/a	TONGS	Kitchentools	9	9	[0, 0, 0]	n/a	catFR1	0	R1390M
1027.414	1.6	1150534	WORD	n/a	wordpools/wordpool_categorized_EN.txt	COLANDER	Kitchentools	10	9	[0, 0, 0]	n/a	catFR1	0	R1390M
1029.031	0.899	1152151	WORD_OFF	n/a	n/a	COLANDER	Kitchentools	10	9	[0, 0, 0]	n/a	catFR1	0	R1390M
1029.93	1.6	1153051	WORD	n/a	wordpools/wordpool_categorized_EN.txt	ERASER	Officesupplies	11	9	[0, 0, 0]	n/a	catFR1	0	R1390M
1031.531	0.783	1154649	WORD_OFF	n/a	n/a	ERASER	Officesupplies	11	9	[0, 0, 0]	n/a	catFR1	0	R1390M
1032.314	1.6	1155439	WORD	n/a	wordpools/wordpool_categorized_EN.txt	RULER	Officesupplies	12	9	[0, 0, 0]	n/a	catFR1	0	R1390M
1033.915	0.001	1157032	PROB	3.816	n/a	n/a	n/a	-999	9	[2, 1, 1]	5.0	catFR1	0	R1390M
1033.916	0.0	1157033	START	n/a	n/a	n/a	n/a	-999	9	[-999, -999, -999]	n/a	catFR1	0	R1390M
1033.914	0.002	1157038	WORD_OFF	n/a	n/a	RULER	Officesupplies	12	9	[0, 0, 0]	n/a	catFR1	0	R1390M
1033.916	0.0	1157038	ENCODING_END	n/a	n/a	n/a	n/a	-999	9	[0, 0, 0]	n/a	catFR1	0	R1390M
1033.916	3.832	1157038	DISTRACT_START	n/a	n/a	n/a	n/a	-999	9	[0, 0, 0]	n/a	catFR1	0	R1390M
1037.748	5.533	1160865	PROB	5.516	n/a	n/a	n/a	-999	9	[2, 1, 4]	7.0	catFR1	0	R1390M
1043.281	4.85	1166398	PROB	4.833	n/a	n/a	n/a	-999	9	[3, 2, 1]	6.0	catFR1	0	R1390M
1048.131	4.25	1171248	PROB	4.233	n/a	n/a	n/a	-999	9	[2, 1, 8]	11.0	catFR1	0	R1390M
1052.381	4.999	1175497	PROB	4.983	n/a	n/a	n/a	-999	9	[5, 7, 5]	17.0	catFR1	0	R1390M
1057.38	0.0	1180496	DISTRACT_END	n/a	n/a	n/a	n/a	-999	9	[0, 0, 0]	n/a	catFR1	0	R1390M
1057.38	1.234	1180496	STOP	n/a	n/a	n/a	n/a	-999	9	[-999, -999, -999]	n/a	catFR1	0	R1390M
1058.614	3.068	1181727	REC_START	n/a	n/a	n/a	n/a	-999	9	[0, 0, 0]	n/a	catFR1	0	R1390M
1061.682	2.921	1184798	REC_WORD	3.068	n/a	LIME	Fruit	3	9	[0, 0, 0]	n/a	catFR1	0	R1390M
1064.603	0.909	1187719	REC_WORD	5.989	n/a	BLUEBERRY	Fruit	4	9	[0, 0, 0]	n/a	catFR1	0	R1390M
1065.512	23.101	1188628	REC_WORD	6.898	n/a	CHERRY	Fruit	8	9	[0, 0, 0]	n/a	catFR1	0	R1390M
1088.613	0.257	1211728	REC_WORD	29.999	n/a	PENCIL	Officesupplies	5	9	[0, 0, 0]	n/a	catFR1	0	R1390M
1088.87	10.345	1211983	REC_END	n/a	n/a	n/a	n/a	-999	9	[0, 0, 0]	n/a	catFR1	0	R1390M
1099.215	10.0	1222326	COUNTDOWN_START	n/a	n/a	n/a	n/a	-999	10	[0, 0, 0]	n/a	catFR1	0	R1390M
1109.565	0.0	1232687	COUNTDOWN_END	n/a	n/a	n/a	n/a	-999	10	[0, 0, 0]	n/a	catFR1	0	R1390M
1109.565	2.033	1232687	ENCODING_START	n/a	n/a	n/a	n/a	-999	10	[0, 0, 0]	n/a	catFR1	0	R1390M
1111.598	1.6	1234707	WORD	n/a	wordpools/wordpool_categorized_EN.txt	DOLL	Toys	1	10	[0, 0, 0]	n/a	catFR1	0	R1390M
1113.198	0.833	1236306	WORD_OFF	n/a	n/a	DOLL	Toys	1	10	[0, 0, 0]	n/a	catFR1	0	R1390M
1114.031	1.6	1237151	WORD	n/a	wordpools/wordpool_categorized_EN.txt	BLOCKS	Toys	2	10	[0, 0, 0]	n/a	catFR1	0	R1390M
1115.631	0.9	1238749	WORD_OFF	n/a	n/a	BLOCKS	Toys	2	10	[0, 0, 0]	n/a	catFR1	0	R1390M
1116.531	1.6	1239649	WORD	n/a	wordpools/wordpool_categorized_EN.txt	ELBOW	Bodyparts	3	10	[0, 0, 0]	n/a	catFR1	0	R1390M
1118.131	0.817	1241247	WORD_OFF	n/a	n/a	ELBOW	Bodyparts	3	10	[0, 0, 0]	n/a	catFR1	0	R1390M
1118.948	1.6	1242056	WORD	n/a	wordpools/wordpool_categorized_EN.txt	NOSE	Bodyparts	4	10	[0, 0, 0]	n/a	catFR1	0	R1390M
1120.564	0.767	1243672	WORD_OFF	n/a	n/a	NOSE	Bodyparts	4	10	[0, 0, 0]	n/a	catFR1	0	R1390M
1121.331	1.6	1244444	WORD	n/a	wordpools/wordpool_categorized_EN.txt	SPATULA	Kitchentools	5	10	[0, 0, 0]	n/a	catFR1	0	R1390M
1122.931	0.767	1246042	WORD_OFF	n/a	n/a	SPATULA	Kitchentools	5	10	[0, 0, 0]	n/a	catFR1	0	R1390M
1123.698	1.6	1246813	WORD	n/a	wordpools/wordpool_categorized_EN.txt	SPOON	Kitchentools	6	10	[0, 0, 0]	n/a	catFR1	0	R1390M
1125.298	0.983	1248412	WORD_OFF	n/a	n/a	SPOON	Kitchentools	6	10	[0, 0, 0]	n/a	catFR1	0	R1390M
1126.281	1.6	1249385	WORD	n/a	wordpools/wordpool_categorized_EN.txt	MARBLES	Toys	7	10	[0, 0, 0]	n/a	catFR1	0	R1390M
1127.898	0.9	1251020	WORD_OFF	n/a	n/a	MARBLES	Toys	7	10	[0, 0, 0]	n/a	catFR1	0	R1390M
1128.798	1.6	1251902	WORD	n/a	wordpools/wordpool_categorized_EN.txt	PUZZLE	Toys	8	10	[0, 0, 0]	n/a	catFR1	0	R1390M
1130.398	0.899	1253519	WORD_OFF	n/a	n/a	PUZZLE	Toys	8	10	[0, 0, 0]	n/a	catFR1	0	R1390M
1131.297	1.6	1254419	WORD	n/a	wordpools/wordpool_categorized_EN.txt	FORK	Kitchentools	9	10	[0, 0, 0]	n/a	catFR1	0	R1390M
1132.898	0.883	1256017	WORD_OFF	n/a	n/a	FORK	Kitchentools	9	10	[0, 0, 0]	n/a	catFR1	0	R1390M
1133.781	1.6	1256899	WORD	n/a	wordpools/wordpool_categorized_EN.txt	CORKSCREW	Kitchentools	10	10	[0, 0, 0]	n/a	catFR1	0	R1390M
1135.398	0.883	1258515	WORD_OFF	n/a	n/a	CORKSCREW	Kitchentools	10	10	[0, 0, 0]	n/a	catFR1	0	R1390M
1136.281	1.6	1259397	WORD	n/a	wordpools/wordpool_categorized_EN.txt	EAR	Bodyparts	11	10	[0, 0, 0]	n/a	catFR1	0	R1390M
1137.881	0.783	1260995	WORD_OFF	n/a	n/a	EAR	Bodyparts	11	10	[0, 0, 0]	n/a	catFR1	0	R1390M
1138.664	1.6	1261785	WORD	n/a	wordpools/wordpool_categorized_EN.txt	HAND	Bodyparts	12	10	[0, 0, 0]	n/a	catFR1	0	R1390M
1140.282	0.001	1263394	PROB	5.649	n/a	n/a	n/a	-999	10	[3, 7, 7]	17.0	catFR1	0	R1390M
1140.283	0.0	1263395	START	n/a	n/a	n/a	n/a	-999	10	[-999, -999, -999]	n/a	catFR1	0	R1390M
1140.281	0.002	1263402	WORD_OFF	n/a	n/a	HAND	Bodyparts	12	10	[0, 0, 0]	n/a	catFR1	0	R1390M
1140.283	0.0	1263402	ENCODING_END	n/a	n/a	n/a	n/a	-999	10	[0, 0, 0]	n/a	catFR1	0	R1390M
1140.283	5.665	1263402	DISTRACT_START	n/a	n/a	n/a	n/a	-999	10	[0, 0, 0]	n/a	catFR1	0	R1390M
1145.948	3.667	1269060	PROB	3.649	n/a	n/a	n/a	-999	10	[1, 2, 6]	9.0	catFR1	0	R1390M
1149.615	4.683	1272727	PROB	4.666	n/a	n/a	n/a	-999	10	[7, 5, 4]	16.0	catFR1	0	R1390M
1154.298	3.534	1277409	PROB	3.516	n/a	n/a	n/a	-999	10	[2, 3, 1]	6.0	catFR1	0	R1390M
1157.832	3.015	1280943	PROB	2.999	n/a	n/a	n/a	-999	10	[1, 1, 5]	7.0	catFR1	0	R1390M
1160.847	0.0	1283958	DISTRACT_END	n/a	n/a	n/a	n/a	-999	10	[0, 0, 0]	n/a	catFR1	0	R1390M
1160.847	1.4	1283958	STOP	n/a	n/a	n/a	n/a	-999	10	[-999, -999, -999]	n/a	catFR1	0	R1390M
1162.247	5.666	1285354	REC_START	n/a	n/a	n/a	n/a	-999	10	[0, 0, 0]	n/a	catFR1	0	R1390M
1167.913	0.483	1291024	REC_WORD	5.666	n/a	HAND	Bodyparts	12	10	[0, 0, 0]	n/a	catFR1	0	R1390M
1168.396	1.695	1291507	REC_WORD	6.149	n/a	SPOON	Kitchentools	6	10	[0, 0, 0]	n/a	catFR1	0	R1390M
1170.091	11.394	1293202	REC_WORD	7.844	n/a	SPATULA	Kitchentools	5	10	[0, 0, 0]	n/a	catFR1	0	R1390M
1181.485	11.012	1304595	REC_WORD	19.238	n/a	FORK	Kitchentools	9	10	[0, 0, 0]	n/a	catFR1	0	R1390M
1192.497	6.201	1315610	REC_END	n/a	n/a	n/a	n/a	-999	10	[0, 0, 0]	n/a	catFR1	0	R1390M
1198.698	10.0	1321801	COUNTDOWN_START	n/a	n/a	n/a	n/a	-999	11	[0, 0, 0]	n/a	catFR1	0	R1390M
1209.049	0.0	1332162	COUNTDOWN_END	n/a	n/a	n/a	n/a	-999	11	[0, 0, 0]	n/a	catFR1	0	R1390M
1209.049	2.382	1332162	ENCODING_START	n/a	n/a	n/a	n/a	-999	11	[0, 0, 0]	n/a	catFR1	0	R1390M
1211.431	1.6	1334532	WORD	n/a	wordpools/wordpool_categorized_EN.txt	GORILLA	Zoo	1	11	[0, 0, 0]	n/a	catFR1	0	R1390M
1213.031	0.967	1336148	WORD_OFF	n/a	n/a	GORILLA	Zoo	1	11	[0, 0, 0]	n/a	catFR1	0	R1390M
1213.998	1.6	1337104	WORD	n/a	wordpools/wordpool_categorized_EN.txt	PANDA	Zoo	2	11	[0, 0, 0]	n/a	catFR1	0	R1390M
1215.598	0.933	1338720	WORD_OFF	n/a	n/a	PANDA	Zoo	2	11	[0, 0, 0]	n/a	catFR1	0	R1390M
1216.531	1.6	1339639	WORD	n/a	wordpools/wordpool_categorized_EN.txt	EYE	Bodyparts	3	11	[0, 0, 0]	n/a	catFR1	0	R1390M
1218.147	0.901	1341255	WORD_OFF	n/a	n/a	EYE	Bodyparts	3	11	[0, 0, 0]	n/a	catFR1	0	R1390M
1219.048	1.6	1342156	WORD	n/a	wordpools/wordpool_categorized_EN.txt	LEG	Bodyparts	4	11	[0, 0, 0]	n/a	catFR1	0	R1390M
1220.665	0.766	1343772	WORD_OFF	n/a	n/a	LEG	Bodyparts	4	11	[0, 0, 0]	n/a	catFR1	0	R1390M
1221.431	1.6	1344544	WORD	n/a	wordpools/wordpool_categorized_EN.txt	BATHROOM	Building	5	11	[0, 0, 0]	n/a	catFR1	0	R1390M
1223.031	0.8	1346142	WORD_OFF	n/a	n/a	BATHROOM	Building	5	11	[0, 0, 0]	n/a	catFR1	0	R1390M
1223.831	1.6	1346932	WORD	n/a	wordpools/wordpool_categorized_EN.txt	HALLWAY	Building	6	11	[0, 0, 0]	n/a	catFR1	0	R1390M
1225.431	0.766	1348530	WORD_OFF	n/a	n/a	HALLWAY	Building	6	11	[0, 0, 0]	n/a	catFR1	0	R1390M
1226.197	1.6	1349302	WORD	n/a	wordpools/wordpool_categorized_EN.txt	ELEPHANT	Zoo	7	11	[0, 0, 0]	n/a	catFR1	0	R1390M
1227.798	0.917	1350900	WORD_OFF	n/a	n/a	ELEPHANT	Zoo	7	11	[0, 0, 0]	n/a	catFR1	0	R1390M
1228.715	1.6	1351818	WORD	n/a	wordpools/wordpool_categorized_EN.txt	MONKEY	Zoo	8	11	[0, 0, 0]	n/a	catFR1	0	R1390M
1230.331	0.784	1353435	WORD_OFF	n/a	n/a	MONKEY	Zoo	8	11	[0, 0, 0]	n/a	catFR1	0	R1390M
1231.115	1.6	1354225	WORD	n/a	wordpools/wordpool_categorized_EN.txt	ROOM	Building	9	11	[0, 0, 0]	n/a	catFR1	0	R1390M
1232.731	0.95	1355841	WORD_OFF	n/a	n/a	ROOM	Building	9	11	[0, 0, 0]	n/a	catFR1	0	R1390M
1233.681	1.6	1356797	WORD	n/a	wordpools/wordpool_categorized_EN.txt	FOUNDATION	Building	10	11	[0, 0, 0]	n/a	catFR1	0	R1390M
1235.281	0.783	1358395	WORD_OFF	n/a	n/a	FOUNDATION	Building	10	11	[0, 0, 0]	n/a	catFR1	0	R1390M
1236.064	1.6	1359166	WORD	n/a	wordpools/wordpool_categorized_EN.txt	TOE	Bodyparts	11	11	[0, 0, 0]	n/a	catFR1	0	R1390M
1237.665	0.983	1360765	WORD_OFF	n/a	n/a	TOE	Bodyparts	11	11	[0, 0, 0]	n/a	catFR1	0	R1390M
1238.648	1.6	1361757	WORD	n/a	wordpools/wordpool_categorized_EN.txt	FINGERS	Bodyparts	12	11	[0, 0, 0]	n/a	catFR1	0	R1390M
1240.248	0.001	1363355	WORD_OFF	n/a	n/a	FINGERS	Bodyparts	12	11	[0, 0, 0]	n/a	catFR1	0	R1390M
1240.249	0.0	1363355	ENCODING_END	n/a	n/a	n/a	n/a	-999	11	[0, 0, 0]	n/a	catFR1	0	R1390M
1240.249	0.0	1363355	DISTRACT_START	n/a	n/a	n/a	n/a	-999	11	[0, 0, 0]	n/a	catFR1	0	R1390M
1240.248	0.001	1363355	PROB	8.899	n/a	n/a	n/a	-999	11	[7, 5, 7]	19.0	catFR1	0	R1390M
1240.249	8.916	1363356	START	n/a	n/a	n/a	n/a	-999	11	[-999, -999, -999]	n/a	catFR1	0	R1390M
1249.165	6.967	1372272	PROB	6.949	n/a	n/a	n/a	-999	11	[5, 6, 6]	17.0	catFR1	0	R1390M
1256.132	3.899	1379238	PROB	3.882	n/a	n/a	n/a	-999	11	[7, 3, 3]	13.0	catFR1	0	R1390M
1260.031	8.399	1383137	PROB	8.383	n/a	n/a	n/a	-999	11	[8, 8, 2]	18.0	catFR1	0	R1390M
1268.43	0.0	1391535	DISTRACT_END	n/a	n/a	n/a	n/a	-999	11	[0, 0, 0]	n/a	catFR1	0	R1390M
1268.43	1.367	1391536	STOP	n/a	n/a	n/a	n/a	-999	11	[-999, -999, -999]	n/a	catFR1	0	R1390M
1269.797	4.777	1392894	REC_START	n/a	n/a	n/a	n/a	-999	11	[0, 0, 0]	n/a	catFR1	0	R1390M
1274.574	0.935	1397679	REC_WORD	4.777	n/a	FINGERS	Bodyparts	12	11	[0, 0, 0]	n/a	catFR1	0	R1390M
1275.509	1.184	1398614	REC_WORD	5.712	n/a	TOE	Bodyparts	11	11	[0, 0, 0]	n/a	catFR1	0	R1390M
1276.693	1.864	1399798	REC_WORD	6.896	n/a	GORILLA	Zoo	1	11	[0, 0, 0]	n/a	catFR1	0	R1390M
1278.557	1.176	1401662	REC_WORD	8.76	n/a	MONKEY	Zoo	8	11	[0, 0, 0]	n/a	catFR1	0	R1390M
1279.733	3.343	1402838	REC_WORD	9.936	n/a	ELEPHANT	Zoo	7	11	[0, 0, 0]	n/a	catFR1	0	R1390M
1283.076	16.992	1406181	REC_WORD	13.279	n/a	PANDA	Zoo	2	11	[0, 0, 0]	n/a	catFR1	0	R1390M
1300.068	5.147	1423169	REC_END	n/a	n/a	n/a	n/a	-999	11	[0, 0, 0]	n/a	catFR1	0	R1390M
1305.215	10.0	1428312	COUNTDOWN_START	n/a	n/a	n/a	n/a	-999	12	[0, 0, 0]	n/a	catFR1	0	R1390M
1310.949	0.0	1434044	COUNTDOWN_END	n/a	n/a	n/a	n/a	-999	12	[0, 0, 0]	n/a	catFR1	0	R1390M
1310.949	2.016	1434062	ENCODING_START	n/a	n/a	n/a	n/a	-999	12	[0, 0, 0]	n/a	catFR1	0	R1390M
1312.965	1.6	1436065	WORD	n/a	wordpools/wordpool_categorized_EN.txt	CHIMPANZEE	Zoo	1	12	[0, 0, 0]	n/a	catFR1	0	R1390M
1314.58	0.984	1437681	WORD_OFF	n/a	n/a	CHIMPANZEE	Zoo	1	12	[0, 0, 0]	n/a	catFR1	0	R1390M
1315.564	1.6	1438673	WORD	n/a	wordpools/wordpool_categorized_EN.txt	TIGER	Zoo	2	12	[0, 0, 0]	n/a	catFR1	0	R1390M
1317.164	0.951	1440272	WORD_OFF	n/a	n/a	TIGER	Zoo	2	12	[0, 0, 0]	n/a	catFR1	0	R1390M
1318.115	1.6	1441227	WORD	n/a	wordpools/wordpool_categorized_EN.txt	DAISY	Flowers	3	12	[0, 0, 0]	n/a	catFR1	0	R1390M
1319.715	0.916	1442825	WORD_OFF	n/a	n/a	DAISY	Flowers	3	12	[0, 0, 0]	n/a	catFR1	0	R1390M
1320.631	1.6	1443744	WORD	n/a	wordpools/wordpool_categorized_EN.txt	LILY	Flowers	4	12	[0, 0, 0]	n/a	catFR1	0	R1390M
1322.248	0.9	1445360	WORD_OFF	n/a	n/a	LILY	Flowers	4	12	[0, 0, 0]	n/a	catFR1	0	R1390M
1323.148	1.6	1446260	WORD	n/a	wordpools/wordpool_categorized_EN.txt	FLOOR	Building	5	12	[0, 0, 0]	n/a	catFR1	0	R1390M
1324.764	0.834	1447858	WORD_OFF	n/a	n/a	FLOOR	Building	5	12	[0, 0, 0]	n/a	catFR1	0	R1390M
1325.598	1.6	1448704	WORD	n/a	wordpools/wordpool_categorized_EN.txt	STAIRS	Building	6	12	[0, 0, 0]	n/a	catFR1	0	R1390M
1327.198	0.933	1450302	WORD_OFF	n/a	n/a	STAIRS	Building	6	12	[0, 0, 0]	n/a	catFR1	0	R1390M
1328.131	1.6	1451239	WORD	n/a	wordpools/wordpool_categorized_EN.txt	PETUNIA	Flowers	7	12	[0, 0, 0]	n/a	catFR1	0	R1390M
1329.748	0.867	1452855	WORD_OFF	n/a	n/a	PETUNIA	Flowers	7	12	[0, 0, 0]	n/a	catFR1	0	R1390M
1330.615	1.6	1453719	WORD	n/a	wordpools/wordpool_categorized_EN.txt	ROSE	Flowers	8	12	[0, 0, 0]	n/a	catFR1	0	R1390M
1332.215	0.883	1455317	WORD_OFF	n/a	n/a	ROSE	Flowers	8	12	[0, 0, 0]	n/a	catFR1	0	R1390M
1333.098	1.6	1456199	WORD	n/a	wordpools/wordpool_categorized_EN.txt	ROOF	Building	9	12	[0, 0, 0]	n/a	catFR1	0	R1390M
1334.715	0.933	1457815	WORD_OFF	n/a	n/a	ROOF	Building	9	12	[0, 0, 0]	n/a	catFR1	0	R1390M
1335.648	1.6	1458752	WORD	n/a	wordpools/wordpool_categorized_EN.txt	CEILING	Building	10	12	[0, 0, 0]	n/a	catFR1	0	R1390M
1337.248	0.933	1460350	WORD_OFF	n/a	n/a	CEILING	Building	10	12	[0, 0, 0]	n/a	catFR1	0	R1390M
1338.181	1.6	1461287	WORD	n/a	wordpools/wordpool_categorized_EN.txt	ORANGUTAN	Zoo	11	12	[0, 0, 0]	n/a	catFR1	0	R1390M
1339.798	0.816	1462904	WORD_OFF	n/a	n/a	ORANGUTAN	Zoo	11	12	[0, 0, 0]	n/a	catFR1	0	R1390M
1340.614	1.6	1463712	WORD	n/a	wordpools/wordpool_categorized_EN.txt	GIRAFFE	Zoo	12	12	[0, 0, 0]	n/a	catFR1	0	R1390M
1342.215	0.001	1465310	WORD_OFF	n/a	n/a	GIRAFFE	Zoo	12	12	[0, 0, 0]	n/a	catFR1	0	R1390M
1342.216	0.0	1465310	ENCODING_END	n/a	n/a	n/a	n/a	-999	12	[0, 0, 0]	n/a	catFR1	0	R1390M
1342.215	0.001	1465317	PROB	8.333	n/a	n/a	n/a	-999	12	[6, 3, 7]	16.0	catFR1	0	R1390M
1342.216	0.0	1465318	START	n/a	n/a	n/a	n/a	-999	12	[-999, -999, -999]	n/a	catFR1	0	R1390M
1342.216	8.348	1465329	DISTRACT_START	n/a	n/a	n/a	n/a	-999	12	[0, 0, 0]	n/a	catFR1	0	R1390M
1350.564	3.518	1473666	PROB	3.5	n/a	n/a	n/a	-999	12	[4, 6, 1]	11.0	catFR1	0	R1390M
1354.082	3.265	1477183	PROB	3.249	n/a	n/a	n/a	-999	12	[1, 2, 2]	5.0	catFR1	0	R1390M
1357.347	4.917	1480448	PROB	4.9	n/a	n/a	n/a	-999	12	[5, 2, 7]	14.0	catFR1	0	R1390M
1362.264	0.0	1485365	STOP	n/a	n/a	n/a	n/a	-999	12	[-999, -999, -999]	n/a	catFR1	0	R1390M
1362.264	1.15	1485371	DISTRACT_END	n/a	n/a	n/a	n/a	-999	12	[0, 0, 0]	n/a	catFR1	0	R1390M
1363.414	1.934	1486510	REC_START	n/a	n/a	n/a	n/a	-999	12	[0, 0, 0]	n/a	catFR1	0	R1390M
1365.348	0.583	1488449	REC_WORD	1.934	n/a	ROOF	Building	9	12	[0, 0, 0]	n/a	catFR1	0	R1390M
1365.931	1.186	1489032	REC_WORD	2.517	n/a	CEILING	Building	10	12	[0, 0, 0]	n/a	catFR1	0	R1390M
1367.117	6.803	1490218	REC_WORD	3.703	n/a	FLOOR	Building	5	12	[0, 0, 0]	n/a	catFR1	0	R1390M
1373.92	3.381	1497020	REC_WORD	10.506	n/a	CHIMPANZEE	Zoo	1	12	[0, 0, 0]	n/a	catFR1	0	R1390M
1377.301	4.476	1500401	REC_WORD	13.887	n/a	GIRAFFE	Zoo	12	12	[0, 0, 0]	n/a	catFR1	0	R1390M
1381.777	10.89	1504877	REC_WORD	18.363	n/a	HALLWAY	Building	-999	12	[0, 0, 0]	n/a	catFR1	0	R1390M
1392.667	0.746	1515766	REC_WORD	29.253	n/a	LILY	Flowers	4	12	[0, 0, 0]	n/a	catFR1	0	R1390M
1393.413	0.254	1516512	REC_WORD	29.999	n/a	ROSE	Flowers	8	12	[0, 0, 0]	n/a	catFR1	0	R1390M
1393.667	0.0	1516766	REC_END	n/a	n/a	n/a	n/a	-999	12	[0, 0, 0]	n/a	catFR1	0	R1390M
