onset	duration	sample	trial_type	response_time	stim_file	item_name	category	serialpos	list	test	answer	experiment	session	subject
0.0	1.6	154551	INSTRUCT_START	n/a	n/a	n/a	n/a	-999	-999	[0, 0, 0]	n/a	catFR1	2	R1492J
1.6	37.948	156144	INSTRUCT_END	n/a	n/a	n/a	n/a	-999	-999	[0, 0, 0]	n/a	catFR1	2	R1492J
39.548	10.351	194094	COUNTDOWN_START	n/a	n/a	n/a	n/a	-999	-999	[0, 0, 0]	n/a	catFR1	2	R1492J
49.899	0.0	204446	COUNTDOWN_END	n/a	n/a	n/a	n/a	-999	-999	[0, 0, 0]	n/a	catFR1	2	R1492J
49.899	2.101	204446	ENCODING_START	n/a	n/a	n/a	n/a	-999	-1	[0, 0, 0]	n/a	catFR1	2	R1492J
52.0	1.615	206546	WORD	n/a	n/a	STRAINER	KitchenTools	1	-1	[0, 0, 0]	n/a	catFR1	2	R1492J
53.615	0.934	208161	WORD_OFF	n/a	n/a	STRAINER	KitchenTools	1	-1	[0, 0, 0]	n/a	catFR1	2	R1492J
54.549	1.617	209090	WORD	n/a	n/a	LADLE	KitchenTools	2	-1	[0, 0, 0]	n/a	catFR1	2	R1492J
56.166	0.915	210704	WORD_OFF	n/a	n/a	LADLE	KitchenTools	2	-1	[0, 0, 0]	n/a	catFR1	2	R1492J
57.081	1.601	211623	WORD	n/a	n/a	TURTLE	OceanAnimals	3	-1	[0, 0, 0]	n/a	catFR1	2	R1492J
58.682	0.9	213227	WORD_OFF	n/a	n/a	TURTLE	OceanAnimals	3	-1	[0, 0, 0]	n/a	catFR1	2	R1492J
59.582	1.616	214124	WORD	n/a	n/a	PLANKTON	OceanAnimals	4	-1	[0, 0, 0]	n/a	catFR1	2	R1492J
61.198	0.901	215738	WORD_OFF	n/a	n/a	PLANKTON	OceanAnimals	4	-1	[0, 0, 0]	n/a	catFR1	2	R1492J
62.099	1.6	216646	WORD	n/a	n/a	PLANE	Vehicles	5	-1	[0, 0, 0]	n/a	catFR1	2	R1492J
63.699	0.817	218239	WORD_OFF	n/a	n/a	PLANE	Vehicles	5	-1	[0, 0, 0]	n/a	catFR1	2	R1492J
64.516	1.6	219063	WORD	n/a	n/a	JEEP	Vehicles	6	-1	[0, 0, 0]	n/a	catFR1	2	R1492J
66.116	0.783	220656	WORD_OFF	n/a	n/a	JEEP	Vehicles	6	-1	[0, 0, 0]	n/a	catFR1	2	R1492J
66.899	1.617	221437	WORD	n/a	n/a	LOBSTER	OceanAnimals	7	-1	[0, 0, 0]	n/a	catFR1	2	R1492J
68.516	0.95	223062	WORD_OFF	n/a	n/a	LOBSTER	OceanAnimals	7	-1	[0, 0, 0]	n/a	catFR1	2	R1492J
69.466	1.615	224012	WORD	n/a	n/a	SQUID	OceanAnimals	8	-1	[0, 0, 0]	n/a	catFR1	2	R1492J
71.081	0.935	225627	WORD_OFF	n/a	n/a	SQUID	OceanAnimals	8	-1	[0, 0, 0]	n/a	catFR1	2	R1492J
72.016	1.617	226555	WORD	n/a	n/a	BIKE	Vehicles	9	-1	[0, 0, 0]	n/a	catFR1	2	R1492J
73.633	0.766	228180	WORD_OFF	n/a	n/a	BIKE	Vehicles	9	-1	[0, 0, 0]	n/a	catFR1	2	R1492J
74.399	1.617	228940	WORD	n/a	n/a	BUS	Vehicles	10	-1	[0, 0, 0]	n/a	catFR1	2	R1492J
76.016	0.866	230555	WORD_OFF	n/a	n/a	BUS	Vehicles	10	-1	[0, 0, 0]	n/a	catFR1	2	R1492J
76.882	1.617	231420	WORD	n/a	n/a	FORK	KitchenTools	11	-1	[0, 0, 0]	n/a	catFR1	2	R1492J
78.499	0.784	233046	WORD_OFF	n/a	n/a	FORK	KitchenTools	11	-1	[0, 0, 0]	n/a	catFR1	2	R1492J
79.283	1.616	233826	WORD	n/a	n/a	COLANDER	KitchenTools	12	-1	[0, 0, 0]	n/a	catFR1	2	R1492J
80.899	0.001	235441	WORD_OFF	n/a	n/a	COLANDER	KitchenTools	12	-1	[0, 0, 0]	n/a	catFR1	2	R1492J
80.9	0.0	235441	ENCODING_END	n/a	n/a	n/a	n/a	-999	-1	[0, 0, 0]	n/a	catFR1	2	R1492J
80.9	0.0	235441	DISTRACT_START	n/a	n/a	n/a	n/a	-999	-1	[0, 0, 0]	n/a	catFR1	2	R1492J
80.9	0.001	235443	START	n/a	n/a	n/a	n/a	-999	-1	[-999, -999, -999]	n/a	catFR1	2	R1492J
80.901	4.698	235444	PROB	4.698	n/a	n/a	n/a	-999	-1	[6, 1, 6]	13	catFR1	2	R1492J
85.599	2.801	240142	PROB	2.801	n/a	n/a	n/a	-999	-1	[2, 8, 8]	18	catFR1	2	R1492J
88.4	3.131	242943	PROB	3.131	n/a	n/a	n/a	-999	-1	[8, 8, 5]	21	catFR1	2	R1492J
91.531	4.168	246074	PROB	4.168	n/a	n/a	n/a	-999	-1	[5, 7, 5]	17	catFR1	2	R1492J
95.699	3.367	250242	PROB	3.367	n/a	n/a	n/a	-999	-1	[3, 8, 5]	16	catFR1	2	R1492J
99.066	2.2	253609	PROB	2.2	n/a	n/a	n/a	-999	-1	[6, 4, 2]	12	catFR1	2	R1492J
101.266	0.0	255809	DISTRACT_END	n/a	n/a	n/a	n/a	-999	-1	[0, 0, 0]	n/a	catFR1	2	R1492J
101.266	1.15	255809	STOP	n/a	n/a	n/a	n/a	-999	-1	[-999, -999, -999]	n/a	catFR1	2	R1492J
102.416	0.885	256959	REC_START	n/a	n/a	n/a	n/a	-999	-1	[0, 0, 0]	n/a	catFR1	2	R1492J
103.301	0.749	257843	REC_WORD	0.749	n/a	BIKE	Vehicles	9	-1	[0, 0, 0]	n/a	catFR1	2	R1492J
104.05	0.863	258592	REC_WORD	0.863	n/a	BUS	Vehicles	10	-1	[0, 0, 0]	n/a	catFR1	2	R1492J
104.913	22.277	259455	REC_WORD	22.277	n/a	LOBSTER	OceanAnimals	7	-1	[0, 0, 0]	n/a	catFR1	2	R1492J
127.19	6.433	281731	REC_WORD	6.433	n/a	FORK	KitchenTools	11	-1	[0, 0, 0]	n/a	catFR1	2	R1492J
133.623	6.691	288165	REC_END	n/a	n/a	n/a	n/a	-999	-1	[0, 0, 0]	n/a	catFR1	2	R1492J
140.314	10.35	294856	COUNTDOWN_START	n/a	n/a	n/a	n/a	-999	1	[0, 0, 0]	n/a	catFR1	2	R1492J
150.664	0.0	305208	COUNTDOWN_END	n/a	n/a	n/a	n/a	-999	1	[0, 0, 0]	n/a	catFR1	2	R1492J
150.664	2.167	305208	ENCODING_START	n/a	n/a	n/a	n/a	-999	1	[0, 0, 0]	n/a	catFR1	2	R1492J
152.831	1.617	307372	WORD	n/a	wordpools/wordpool_categorized_EN.txt	CUCUMBER	Vegetables	1	1	[0, 0, 0]	n/a	catFR1	2	R1492J
154.448	0.95	308986	WORD_OFF	n/a	n/a	CUCUMBER	Vegetables	1	1	[0, 0, 0]	n/a	catFR1	2	R1492J
155.398	1.6	309936	WORD	n/a	wordpools/wordpool_categorized_EN.txt	CELERY	Vegetables	2	1	[0, 0, 0]	n/a	catFR1	2	R1492J
156.998	0.949	311540	WORD_OFF	n/a	n/a	CELERY	Vegetables	2	1	[0, 0, 0]	n/a	catFR1	2	R1492J
157.947	1.6	312490	WORD	n/a	wordpools/wordpool_categorized_EN.txt	JACKET	Clothing	3	1	[0, 0, 0]	n/a	catFR1	2	R1492J
159.547	0.933	314083	WORD_OFF	n/a	n/a	JACKET	Clothing	3	1	[0, 0, 0]	n/a	catFR1	2	R1492J
160.48	1.601	315023	WORD	n/a	wordpools/wordpool_categorized_EN.txt	COAT	Clothing	4	1	[0, 0, 0]	n/a	catFR1	2	R1492J
162.081	0.801	316616	WORD_OFF	n/a	n/a	COAT	Clothing	4	1	[0, 0, 0]	n/a	catFR1	2	R1492J
162.882	1.615	317418	WORD	n/a	wordpools/wordpool_categorized_EN.txt	WASHER	Appliances	5	1	[0, 0, 0]	n/a	catFR1	2	R1492J
164.497	1.002	319033	WORD_OFF	n/a	n/a	WASHER	Appliances	5	1	[0, 0, 0]	n/a	catFR1	2	R1492J
165.499	1.615	320035	WORD	n/a	wordpools/wordpool_categorized_EN.txt	BLENDER	Appliances	6	1	[0, 0, 0]	n/a	catFR1	2	R1492J
167.114	0.967	321650	WORD_OFF	n/a	n/a	BLENDER	Appliances	6	1	[0, 0, 0]	n/a	catFR1	2	R1492J
168.081	1.6	322621	WORD	n/a	wordpools/wordpool_categorized_EN.txt	SOCKS	Clothing	7	1	[0, 0, 0]	n/a	catFR1	2	R1492J
169.681	0.916	324214	WORD_OFF	n/a	n/a	SOCKS	Clothing	7	1	[0, 0, 0]	n/a	catFR1	2	R1492J
170.597	1.617	325133	WORD	n/a	wordpools/wordpool_categorized_EN.txt	DRESS	Clothing	8	1	[0, 0, 0]	n/a	catFR1	2	R1492J
172.214	0.984	326747	WORD_OFF	n/a	n/a	DRESS	Clothing	8	1	[0, 0, 0]	n/a	catFR1	2	R1492J
173.198	1.617	327739	WORD	n/a	wordpools/wordpool_categorized_EN.txt	DISHWASHER	Appliances	9	1	[0, 0, 0]	n/a	catFR1	2	R1492J
174.815	0.816	329354	WORD_OFF	n/a	n/a	DISHWASHER	Appliances	9	1	[0, 0, 0]	n/a	catFR1	2	R1492J
175.631	1.617	330166	WORD	n/a	wordpools/wordpool_categorized_EN.txt	DRYER	Appliances	10	1	[0, 0, 0]	n/a	catFR1	2	R1492J
177.248	0.8	331781	WORD_OFF	n/a	n/a	DRYER	Appliances	10	1	[0, 0, 0]	n/a	catFR1	2	R1492J
178.048	1.616	332583	WORD	n/a	wordpools/wordpool_categorized_EN.txt	POTATO	Vegetables	11	1	[0, 0, 0]	n/a	catFR1	2	R1492J
179.664	0.901	334198	WORD_OFF	n/a	n/a	POTATO	Vegetables	11	1	[0, 0, 0]	n/a	catFR1	2	R1492J
180.565	1.616	335105	WORD	n/a	wordpools/wordpool_categorized_EN.txt	CORN	Vegetables	12	1	[0, 0, 0]	n/a	catFR1	2	R1492J
182.181	0.002	336720	WORD_OFF	n/a	n/a	CORN	Vegetables	12	1	[0, 0, 0]	n/a	catFR1	2	R1492J
182.183	0.0	336720	ENCODING_END	n/a	n/a	n/a	n/a	-999	1	[0, 0, 0]	n/a	catFR1	2	R1492J
182.183	0.0	336720	DISTRACT_START	n/a	n/a	n/a	n/a	-999	1	[0, 0, 0]	n/a	catFR1	2	R1492J
182.182	0.001	336721	PROB	0.001	n/a	n/a	n/a	-999	1	[4, 1, 8]	13	catFR1	2	R1492J
182.183	5.731	336722	START	n/a	n/a	n/a	n/a	-999	1	[-999, -999, -999]	n/a	catFR1	2	R1492J
187.914	4.15	342453	PROB	4.15	n/a	n/a	n/a	-999	1	[4, 8, 3]	15	catFR1	2	R1492J
192.064	4.283	346603	PROB	4.283	n/a	n/a	n/a	-999	1	[8, 3, 8]	19	catFR1	2	R1492J
196.347	4.1	350886	PROB	4.1	n/a	n/a	n/a	-999	1	[1, 5, 6]	12	catFR1	2	R1492J
200.447	6.617	354986	PROB	6.617	n/a	n/a	n/a	-999	1	[4, 8, 3]	15	catFR1	2	R1492J
207.064	0.0	361602	STOP	n/a	n/a	n/a	n/a	-999	1	[-999, -999, -999]	n/a	catFR1	2	R1492J
207.064	1.401	361604	DISTRACT_END	n/a	n/a	n/a	n/a	-999	1	[0, 0, 0]	n/a	catFR1	2	R1492J
208.465	0.84	362997	REC_START	n/a	n/a	n/a	n/a	-999	1	[0, 0, 0]	n/a	catFR1	2	R1492J
209.305	1.725	363843	REC_WORD	1.725	n/a	POTATO	Vegetables	11	1	[0, 0, 0]	n/a	catFR1	2	R1492J
211.03	0.822	365568	REC_WORD	0.822	n/a	WASHER	Appliances	5	1	[0, 0, 0]	n/a	catFR1	2	R1492J
211.852	5.788	366390	REC_WORD	5.788	n/a	DISHWASHER	Appliances	9	1	[0, 0, 0]	n/a	catFR1	2	R1492J
217.64	1.753	372178	REC_WORD	1.753	n/a	JACKET	Clothing	3	1	[0, 0, 0]	n/a	catFR1	2	R1492J
219.393	17.557	373931	REC_WORD	17.557	n/a	COAT	Clothing	4	1	[0, 0, 0]	n/a	catFR1	2	R1492J
236.95	2.729	391487	REC_WORD	2.729	n/a	JEEP	Vehicles	-999	1	[0, 0, 0]	n/a	catFR1	2	R1492J
239.679	2.07	394214	REC_END	n/a	n/a	n/a	n/a	-999	1	[0, 0, 0]	n/a	catFR1	2	R1492J
241.749	10.35	396282	COUNTDOWN_START	n/a	n/a	n/a	n/a	-999	1	[0, 0, 0]	n/a	catFR1	2	R1492J
252.099	0.0	406635	COUNTDOWN_END	n/a	n/a	n/a	n/a	-999	1	[0, 0, 0]	n/a	catFR1	2	R1492J
252.099	2.099	406635	ENCODING_START	n/a	n/a	n/a	n/a	-999	2	[0, 0, 0]	n/a	catFR1	2	R1492J
254.198	1.601	408735	WORD	n/a	wordpools/wordpool_categorized_EN.txt	PEN	OfficeSupplies	1	2	[0, 0, 0]	n/a	catFR1	2	R1492J
255.799	0.966	410328	WORD_OFF	n/a	n/a	PEN	OfficeSupplies	1	2	[0, 0, 0]	n/a	catFR1	2	R1492J
256.765	1.601	411299	WORD	n/a	wordpools/wordpool_categorized_EN.txt	PAPER	OfficeSupplies	2	2	[0, 0, 0]	n/a	catFR1	2	R1492J
258.366	0.966	412903	WORD_OFF	n/a	n/a	PAPER	OfficeSupplies	2	2	[0, 0, 0]	n/a	catFR1	2	R1492J
259.332	1.617	413864	WORD	n/a	wordpools/wordpool_categorized_EN.txt	AXE	Tools	3	2	[0, 0, 0]	n/a	catFR1	2	R1492J
260.949	1.0	415478	WORD_OFF	n/a	n/a	AXE	Tools	3	2	[0, 0, 0]	n/a	catFR1	2	R1492J
261.949	1.617	416481	WORD	n/a	wordpools/wordpool_categorized_EN.txt	PLIERS	Tools	4	2	[0, 0, 0]	n/a	catFR1	2	R1492J
263.566	0.8	418096	WORD_OFF	n/a	n/a	PLIERS	Tools	4	2	[0, 0, 0]	n/a	catFR1	2	R1492J
264.366	1.617	418898	WORD	n/a	wordpools/wordpool_categorized_EN.txt	TORNADO	Weather	5	2	[0, 0, 0]	n/a	catFR1	2	R1492J
265.983	0.898	420512	WORD_OFF	n/a	n/a	TORNADO	Weather	5	2	[0, 0, 0]	n/a	catFR1	2	R1492J
266.881	1.601	421409	WORD	n/a	wordpools/wordpool_categorized_EN.txt	CLOUD	Weather	6	2	[0, 0, 0]	n/a	catFR1	2	R1492J
268.482	0.95	423013	WORD_OFF	n/a	n/a	CLOUD	Weather	6	2	[0, 0, 0]	n/a	catFR1	2	R1492J
269.432	1.617	423963	WORD	n/a	wordpools/wordpool_categorized_EN.txt	SCREWDRIVER	Tools	7	2	[0, 0, 0]	n/a	catFR1	2	R1492J
271.049	0.85	425588	WORD_OFF	n/a	n/a	SCREWDRIVER	Tools	7	2	[0, 0, 0]	n/a	catFR1	2	R1492J
271.899	1.617	426433	WORD	n/a	wordpools/wordpool_categorized_EN.txt	LEVEL	Tools	8	2	[0, 0, 0]	n/a	catFR1	2	R1492J
273.516	0.933	428047	WORD_OFF	n/a	n/a	LEVEL	Tools	8	2	[0, 0, 0]	n/a	catFR1	2	R1492J
274.449	1.6	428986	WORD	n/a	wordpools/wordpool_categorized_EN.txt	HURRICANE	Weather	9	2	[0, 0, 0]	n/a	catFR1	2	R1492J
276.049	0.866	430580	WORD_OFF	n/a	n/a	HURRICANE	Weather	9	2	[0, 0, 0]	n/a	catFR1	2	R1492J
276.915	1.601	431445	WORD	n/a	wordpools/wordpool_categorized_EN.txt	LIGHTNING	Weather	10	2	[0, 0, 0]	n/a	catFR1	2	R1492J
278.516	0.95	433049	WORD_OFF	n/a	n/a	LIGHTNING	Weather	10	2	[0, 0, 0]	n/a	catFR1	2	R1492J
279.466	1.616	433999	WORD	n/a	wordpools/wordpool_categorized_EN.txt	TAPE	OfficeSupplies	11	2	[0, 0, 0]	n/a	catFR1	2	R1492J
281.082	0.982	435614	WORD_OFF	n/a	n/a	TAPE	OfficeSupplies	11	2	[0, 0, 0]	n/a	catFR1	2	R1492J
282.064	1.602	436595	WORD	n/a	wordpools/wordpool_categorized_EN.txt	BINDER	OfficeSupplies	12	2	[0, 0, 0]	n/a	catFR1	2	R1492J
283.666	0.001	438199	WORD_OFF	n/a	n/a	BINDER	OfficeSupplies	12	2	[0, 0, 0]	n/a	catFR1	2	R1492J
283.667	0.0	438199	ENCODING_END	n/a	n/a	n/a	n/a	-999	2	[0, 0, 0]	n/a	catFR1	2	R1492J
283.667	0.0	438199	DISTRACT_START	n/a	n/a	n/a	n/a	-999	2	[0, 0, 0]	n/a	catFR1	2	R1492J
283.666	0.001	438201	PROB	0.001	n/a	n/a	n/a	-999	2	[1, 7, 8]	16	catFR1	2	R1492J
283.667	3.514	438202	START	n/a	n/a	n/a	n/a	-999	2	[-999, -999, -999]	n/a	catFR1	2	R1492J
287.181	7.269	441716	PROB	7.269	n/a	n/a	n/a	-999	2	[8, 6, 1]	15	catFR1	2	R1492J
294.45	8.132	448985	PROB	8.132	n/a	n/a	n/a	-999	2	[8, 5, 6]	19	catFR1	2	R1492J
302.582	5.483	457116	PROB	5.483	n/a	n/a	n/a	-999	2	[1, 2, 6]	9	catFR1	2	R1492J
308.065	0.0	462598	DISTRACT_END	n/a	n/a	n/a	n/a	-999	2	[0, 0, 0]	n/a	catFR1	2	R1492J
308.065	1.066	462599	STOP	n/a	n/a	n/a	n/a	-999	2	[-999, -999, -999]	n/a	catFR1	2	R1492J
309.131	0.0	463664	REC_START	n/a	n/a	n/a	n/a	-999	2	[0, 0, 0]	n/a	catFR1	2	R1492J
309.131	5.091	463665	REC_WORD_VV	5.091	n/a	<>	n/a	-999	2	[0, 0, 0]	n/a	catFR1	2	R1492J
314.222	4.863	468756	REC_WORD	4.863	n/a	TAPE	OfficeSupplies	11	2	[0, 0, 0]	n/a	catFR1	2	R1492J
319.085	21.256	473619	REC_WORD	21.256	n/a	PAPER	OfficeSupplies	2	2	[0, 0, 0]	n/a	catFR1	2	R1492J
340.341	1.607	494870	REC_END	n/a	n/a	n/a	n/a	-999	2	[0, 0, 0]	n/a	catFR1	2	R1492J
341.948	10.35	496485	COUNTDOWN_START	n/a	n/a	n/a	n/a	-999	2	[0, 0, 0]	n/a	catFR1	2	R1492J
352.298	0.0	506827	COUNTDOWN_END	n/a	n/a	n/a	n/a	-999	2	[0, 0, 0]	n/a	catFR1	2	R1492J
352.298	1.901	506827	ENCODING_START	n/a	n/a	n/a	n/a	-999	3	[0, 0, 0]	n/a	catFR1	2	R1492J
354.199	1.616	508726	WORD	n/a	wordpools/wordpool_categorized_EN.txt	ORCHID	Flowers	1	3	[0, 0, 0]	n/a	catFR1	2	R1492J
355.815	0.8	510341	WORD_OFF	n/a	n/a	ORCHID	Flowers	1	3	[0, 0, 0]	n/a	catFR1	2	R1492J
356.615	1.615	511143	WORD	n/a	wordpools/wordpool_categorized_EN.txt	SUNFLOWER	Flowers	2	3	[0, 0, 0]	n/a	catFR1	2	R1492J
358.23	0.785	512758	WORD_OFF	n/a	n/a	SUNFLOWER	Flowers	2	3	[0, 0, 0]	n/a	catFR1	2	R1492J
359.015	1.616	513549	WORD	n/a	wordpools/wordpool_categorized_EN.txt	SHOES	Clothing	3	3	[0, 0, 0]	n/a	catFR1	2	R1492J
360.631	0.816	515164	WORD_OFF	n/a	n/a	SHOES	Clothing	3	3	[0, 0, 0]	n/a	catFR1	2	R1492J
361.447	1.6	515976	WORD	n/a	wordpools/wordpool_categorized_EN.txt	PANTS	Clothing	4	3	[0, 0, 0]	n/a	catFR1	2	R1492J
363.047	0.834	517580	WORD_OFF	n/a	n/a	PANTS	Clothing	4	3	[0, 0, 0]	n/a	catFR1	2	R1492J
363.881	1.616	518414	WORD	n/a	wordpools/wordpool_categorized_EN.txt	REFRIGERATOR	Appliances	5	3	[0, 0, 0]	n/a	catFR1	2	R1492J
365.497	0.767	520029	WORD_OFF	n/a	n/a	REFRIGERATOR	Appliances	5	3	[0, 0, 0]	n/a	catFR1	2	R1492J
366.264	1.6	520799	WORD	n/a	wordpools/wordpool_categorized_EN.txt	OVEN	Appliances	6	3	[0, 0, 0]	n/a	catFR1	2	R1492J
367.864	1.001	522393	WORD_OFF	n/a	n/a	OVEN	Appliances	6	3	[0, 0, 0]	n/a	catFR1	2	R1492J
368.865	1.615	523395	WORD	n/a	wordpools/wordpool_categorized_EN.txt	BLOUSE	Clothing	7	3	[0, 0, 0]	n/a	catFR1	2	R1492J
370.48	0.868	525010	WORD_OFF	n/a	n/a	BLOUSE	Clothing	7	3	[0, 0, 0]	n/a	catFR1	2	R1492J
371.348	1.616	525875	WORD	n/a	wordpools/wordpool_categorized_EN.txt	JEANS	Clothing	8	3	[0, 0, 0]	n/a	catFR1	2	R1492J
372.964	0.85	527490	WORD_OFF	n/a	n/a	JEANS	Clothing	8	3	[0, 0, 0]	n/a	catFR1	2	R1492J
373.814	1.6	528345	WORD	n/a	wordpools/wordpool_categorized_EN.txt	MARIGOLD	Flowers	9	3	[0, 0, 0]	n/a	catFR1	2	R1492J
375.414	0.816	529949	WORD_OFF	n/a	n/a	MARIGOLD	Flowers	9	3	[0, 0, 0]	n/a	catFR1	2	R1492J
376.23	1.617	530761	WORD	n/a	wordpools/wordpool_categorized_EN.txt	TULIP	Flowers	10	3	[0, 0, 0]	n/a	catFR1	2	R1492J
377.847	0.901	532376	WORD_OFF	n/a	n/a	TULIP	Flowers	10	3	[0, 0, 0]	n/a	catFR1	2	R1492J
378.748	1.616	533273	WORD	n/a	wordpools/wordpool_categorized_EN.txt	FREEZER	Appliances	11	3	[0, 0, 0]	n/a	catFR1	2	R1492J
380.364	0.766	534898	WORD_OFF	n/a	n/a	FREEZER	Appliances	11	3	[0, 0, 0]	n/a	catFR1	2	R1492J
381.13	1.601	535658	WORD	n/a	wordpools/wordpool_categorized_EN.txt	VACUUM	Appliances	12	3	[0, 0, 0]	n/a	catFR1	2	R1492J
382.731	0.001	537262	WORD_OFF	n/a	n/a	VACUUM	Appliances	12	3	[0, 0, 0]	n/a	catFR1	2	R1492J
382.732	0.0	537262	ENCODING_END	n/a	n/a	n/a	n/a	-999	3	[0, 0, 0]	n/a	catFR1	2	R1492J
382.732	0.0	537262	DISTRACT_START	n/a	n/a	n/a	n/a	-999	3	[0, 0, 0]	n/a	catFR1	2	R1492J
382.731	0.001	537262	PROB	0.001	n/a	n/a	n/a	-999	3	[4, 8, 5]	17	catFR1	2	R1492J
382.732	3.566	537263	START	n/a	n/a	n/a	n/a	-999	3	[-999, -999, -999]	n/a	catFR1	2	R1492J
386.298	3.833	540829	PROB	3.833	n/a	n/a	n/a	-999	3	[7, 4, 8]	19	catFR1	2	R1492J
390.131	2.866	544662	PROB	2.866	n/a	n/a	n/a	-999	3	[1, 4, 1]	6	catFR1	2	R1492J
392.997	2.901	547528	PROB	2.901	n/a	n/a	n/a	-999	3	[6, 5, 8]	19	catFR1	2	R1492J
395.898	3.084	550429	PROB	3.084	n/a	n/a	n/a	-999	3	[6, 4, 8]	18	catFR1	2	R1492J
398.982	3.798	553512	PROB	3.798	n/a	n/a	n/a	-999	3	[2, 7, 8]	17	catFR1	2	R1492J
402.78	0.0	557310	STOP	n/a	n/a	n/a	n/a	-999	3	[-999, -999, -999]	n/a	catFR1	2	R1492J
402.78	1.167	557313	DISTRACT_END	n/a	n/a	n/a	n/a	-999	3	[0, 0, 0]	n/a	catFR1	2	R1492J
403.947	3.433	558474	REC_START	n/a	n/a	n/a	n/a	-999	3	[0, 0, 0]	n/a	catFR1	2	R1492J
407.38	4.508	561910	REC_WORD	4.508	n/a	FREEZER	Appliances	11	3	[0, 0, 0]	n/a	catFR1	2	R1492J
411.888	23.222	566418	REC_WORD	23.222	n/a	SUNFLOWER	Flowers	2	3	[0, 0, 0]	n/a	catFR1	2	R1492J
435.11	1.638	589638	REC_END	n/a	n/a	n/a	n/a	-999	3	[0, 0, 0]	n/a	catFR1	2	R1492J
436.748	10.349	591273	COUNTDOWN_START	n/a	n/a	n/a	n/a	-999	3	[0, 0, 0]	n/a	catFR1	2	R1492J
447.097	0.0	601626	COUNTDOWN_END	n/a	n/a	n/a	n/a	-999	3	[0, 0, 0]	n/a	catFR1	2	R1492J
447.097	2.084	601626	ENCODING_START	n/a	n/a	n/a	n/a	-999	4	[0, 0, 0]	n/a	catFR1	2	R1492J
449.181	1.618	603705	WORD	n/a	wordpools/wordpool_categorized_EN.txt	NIGHTSTAND	Furniture	1	4	[0, 0, 0]	n/a	catFR1	2	R1492J
450.799	0.883	605330	WORD_OFF	n/a	n/a	NIGHTSTAND	Furniture	1	4	[0, 0, 0]	n/a	catFR1	2	R1492J
451.682	1.615	606206	WORD	n/a	wordpools/wordpool_categorized_EN.txt	RECLINER	Furniture	2	4	[0, 0, 0]	n/a	catFR1	2	R1492J
453.297	0.983	607821	WORD_OFF	n/a	n/a	RECLINER	Furniture	2	4	[0, 0, 0]	n/a	catFR1	2	R1492J
454.28	1.617	608802	WORD	n/a	wordpools/wordpool_categorized_EN.txt	ANT	Insects	3	4	[0, 0, 0]	n/a	catFR1	2	R1492J
455.897	0.866	610427	WORD_OFF	n/a	n/a	ANT	Insects	3	4	[0, 0, 0]	n/a	catFR1	2	R1492J
456.763	1.601	611293	WORD	n/a	wordpools/wordpool_categorized_EN.txt	BEETLE	Insects	4	4	[0, 0, 0]	n/a	catFR1	2	R1492J
458.364	0.817	612886	WORD_OFF	n/a	n/a	BEETLE	Insects	4	4	[0, 0, 0]	n/a	catFR1	2	R1492J
459.181	1.617	613709	WORD	n/a	wordpools/wordpool_categorized_EN.txt	JELLO	Desserts	5	4	[0, 0, 0]	n/a	catFR1	2	R1492J
460.798	0.849	615324	WORD_OFF	n/a	n/a	JELLO	Desserts	5	4	[0, 0, 0]	n/a	catFR1	2	R1492J
461.647	1.601	616168	WORD	n/a	wordpools/wordpool_categorized_EN.txt	FUDGE	Desserts	6	4	[0, 0, 0]	n/a	catFR1	2	R1492J
463.248	0.9	617772	WORD_OFF	n/a	n/a	FUDGE	Desserts	6	4	[0, 0, 0]	n/a	catFR1	2	R1492J
464.148	1.6	618669	WORD	n/a	wordpools/wordpool_categorized_EN.txt	CHAIR	Furniture	7	4	[0, 0, 0]	n/a	catFR1	2	R1492J
465.748	0.783	620273	WORD_OFF	n/a	n/a	CHAIR	Furniture	7	4	[0, 0, 0]	n/a	catFR1	2	R1492J
466.531	1.6	621054	WORD	n/a	wordpools/wordpool_categorized_EN.txt	TABLE	Furniture	8	4	[0, 0, 0]	n/a	catFR1	2	R1492J
468.131	0.967	622658	WORD_OFF	n/a	n/a	TABLE	Furniture	8	4	[0, 0, 0]	n/a	catFR1	2	R1492J
469.098	1.617	623619	WORD	n/a	wordpools/wordpool_categorized_EN.txt	BUTTERFLY	Insects	9	4	[0, 0, 0]	n/a	catFR1	2	R1492J
470.715	0.849	625244	WORD_OFF	n/a	n/a	BUTTERFLY	Insects	9	4	[0, 0, 0]	n/a	catFR1	2	R1492J
471.564	1.6	626088	WORD	n/a	wordpools/wordpool_categorized_EN.txt	MOSQUITO	Insects	10	4	[0, 0, 0]	n/a	catFR1	2	R1492J
473.164	0.883	627692	WORD_OFF	n/a	n/a	MOSQUITO	Insects	10	4	[0, 0, 0]	n/a	catFR1	2	R1492J
474.047	1.601	628568	WORD	n/a	wordpools/wordpool_categorized_EN.txt	PUDDING	Desserts	11	4	[0, 0, 0]	n/a	catFR1	2	R1492J
475.648	0.883	630172	WORD_OFF	n/a	n/a	PUDDING	Desserts	11	4	[0, 0, 0]	n/a	catFR1	2	R1492J
476.531	1.615	631059	WORD	n/a	wordpools/wordpool_categorized_EN.txt	BROWNIES	Desserts	12	4	[0, 0, 0]	n/a	catFR1	2	R1492J
478.146	0.001	632673	WORD_OFF	n/a	n/a	BROWNIES	Desserts	12	4	[0, 0, 0]	n/a	catFR1	2	R1492J
478.147	0.0	632673	ENCODING_END	n/a	n/a	n/a	n/a	-999	4	[0, 0, 0]	n/a	catFR1	2	R1492J
478.147	0.0	632673	DISTRACT_START	n/a	n/a	n/a	n/a	-999	4	[0, 0, 0]	n/a	catFR1	2	R1492J
478.147	0.0	632674	START	n/a	n/a	n/a	n/a	-999	4	[-999, -999, -999]	n/a	catFR1	2	R1492J
478.147	4.285	632674	PROB	4.285	n/a	n/a	n/a	-999	4	[7, 3, 4]	14	catFR1	2	R1492J
482.432	2.667	636959	PROB	2.667	n/a	n/a	n/a	-999	4	[7, 3, 2]	12	catFR1	2	R1492J
485.099	2.482	639626	PROB	2.482	n/a	n/a	n/a	-999	4	[4, 4, 3]	11	catFR1	2	R1492J
487.581	3.434	642108	PROB	3.434	n/a	n/a	n/a	-999	4	[4, 8, 5]	17	catFR1	2	R1492J
491.015	3.482	645542	PROB	3.482	n/a	n/a	n/a	-999	4	[7, 8, 3]	18	catFR1	2	R1492J
494.497	4.134	649024	PROB	4.134	n/a	n/a	n/a	-999	4	[4, 2, 8]	14	catFR1	2	R1492J
498.631	0.0	653157	DISTRACT_END	n/a	n/a	n/a	n/a	-999	4	[0, 0, 0]	n/a	catFR1	2	R1492J
498.631	1.032	653157	STOP	n/a	n/a	n/a	n/a	-999	4	[-999, -999, -999]	n/a	catFR1	2	R1492J
499.663	1.327	654191	REC_START	n/a	n/a	n/a	n/a	-999	4	[0, 0, 0]	n/a	catFR1	2	R1492J
500.99	5.637	655516	REC_WORD	5.637	n/a	BROWNIES	Desserts	12	4	[0, 0, 0]	n/a	catFR1	2	R1492J
506.627	22.318	661153	REC_WORD	22.318	n/a	REFRIGERATOR	Appliances	-999	4	[0, 0, 0]	n/a	catFR1	2	R1492J
528.945	1.9	683470	REC_WORD	1.9	n/a	NIGHTSTAND	Furniture	1	4	[0, 0, 0]	n/a	catFR1	2	R1492J
530.845	7.603	685366	REC_END	n/a	n/a	n/a	n/a	-999	4	[0, 0, 0]	n/a	catFR1	2	R1492J
538.448	10.351	692974	COUNTDOWN_START	n/a	n/a	n/a	n/a	-999	4	[0, 0, 0]	n/a	catFR1	2	R1492J
548.799	0.0	703327	COUNTDOWN_END	n/a	n/a	n/a	n/a	-999	4	[0, 0, 0]	n/a	catFR1	2	R1492J
548.799	2.15	703327	ENCODING_START	n/a	n/a	n/a	n/a	-999	5	[0, 0, 0]	n/a	catFR1	2	R1492J
550.949	1.6	705469	WORD	n/a	wordpools/wordpool_categorized_EN.txt	GRATER	KitchenTools	1	5	[0, 0, 0]	n/a	catFR1	2	R1492J
552.549	0.9	707073	WORD_OFF	n/a	n/a	GRATER	KitchenTools	1	5	[0, 0, 0]	n/a	catFR1	2	R1492J
553.449	1.617	707970	WORD	n/a	wordpools/wordpool_categorized_EN.txt	PEELER	KitchenTools	2	5	[0, 0, 0]	n/a	catFR1	2	R1492J
555.066	0.765	709585	WORD_OFF	n/a	n/a	PEELER	KitchenTools	2	5	[0, 0, 0]	n/a	catFR1	2	R1492J
555.831	1.601	710355	WORD	n/a	wordpools/wordpool_categorized_EN.txt	GOAT	FarmAnimals	3	5	[0, 0, 0]	n/a	catFR1	2	R1492J
557.432	0.767	711949	WORD_OFF	n/a	n/a	GOAT	FarmAnimals	3	5	[0, 0, 0]	n/a	catFR1	2	R1492J
558.199	1.616	712719	WORD	n/a	wordpools/wordpool_categorized_EN.txt	ROOSTER	FarmAnimals	4	5	[0, 0, 0]	n/a	catFR1	2	R1492J
559.815	0.834	714334	WORD_OFF	n/a	n/a	ROOSTER	FarmAnimals	4	5	[0, 0, 0]	n/a	catFR1	2	R1492J
560.649	1.617	715168	WORD	n/a	wordpools/wordpool_categorized_EN.txt	ARM	BodyParts	5	5	[0, 0, 0]	n/a	catFR1	2	R1492J
562.266	0.933	716782	WORD_OFF	n/a	n/a	ARM	BodyParts	5	5	[0, 0, 0]	n/a	catFR1	2	R1492J
563.199	1.6	717722	WORD	n/a	wordpools/wordpool_categorized_EN.txt	EAR	BodyParts	6	5	[0, 0, 0]	n/a	catFR1	2	R1492J
564.799	0.983	719315	WORD_OFF	n/a	n/a	EAR	BodyParts	6	5	[0, 0, 0]	n/a	catFR1	2	R1492J
565.782	1.6	720307	WORD	n/a	wordpools/wordpool_categorized_EN.txt	WHISK	KitchenTools	7	5	[0, 0, 0]	n/a	catFR1	2	R1492J
567.382	0.884	721901	WORD_OFF	n/a	n/a	WHISK	KitchenTools	7	5	[0, 0, 0]	n/a	catFR1	2	R1492J
568.266	1.616	722787	WORD	n/a	wordpools/wordpool_categorized_EN.txt	CORKSCREW	KitchenTools	8	5	[0, 0, 0]	n/a	catFR1	2	R1492J
569.882	0.85	724402	WORD_OFF	n/a	n/a	CORKSCREW	KitchenTools	8	5	[0, 0, 0]	n/a	catFR1	2	R1492J
570.732	1.601	725257	WORD	n/a	wordpools/wordpool_categorized_EN.txt	TOE	BodyParts	9	5	[0, 0, 0]	n/a	catFR1	2	R1492J
572.333	0.85	726850	WORD_OFF	n/a	n/a	TOE	BodyParts	9	5	[0, 0, 0]	n/a	catFR1	2	R1492J
573.183	1.6	727705	WORD	n/a	wordpools/wordpool_categorized_EN.txt	HEAD	BodyParts	10	5	[0, 0, 0]	n/a	catFR1	2	R1492J
574.783	0.766	729309	WORD_OFF	n/a	n/a	HEAD	BodyParts	10	5	[0, 0, 0]	n/a	catFR1	2	R1492J
575.549	1.6	730069	WORD	n/a	wordpools/wordpool_categorized_EN.txt	CALF	FarmAnimals	11	5	[0, 0, 0]	n/a	catFR1	2	R1492J
577.149	0.915	731673	WORD_OFF	n/a	n/a	CALF	FarmAnimals	11	5	[0, 0, 0]	n/a	catFR1	2	R1492J
578.064	1.602	732580	WORD	n/a	wordpools/wordpool_categorized_EN.txt	PIG	FarmAnimals	12	5	[0, 0, 0]	n/a	catFR1	2	R1492J
579.666	0.001	734185	WORD_OFF	n/a	n/a	PIG	FarmAnimals	12	5	[0, 0, 0]	n/a	catFR1	2	R1492J
579.667	0.0	734185	ENCODING_END	n/a	n/a	n/a	n/a	-999	5	[0, 0, 0]	n/a	catFR1	2	R1492J
579.667	0.0	734185	DISTRACT_START	n/a	n/a	n/a	n/a	-999	5	[0, 0, 0]	n/a	catFR1	2	R1492J
579.666	0.001	734189	PROB	0.001	n/a	n/a	n/a	-999	5	[6, 1, 1]	8	catFR1	2	R1492J
579.667	4.082	734190	START	n/a	n/a	n/a	n/a	-999	5	[-999, -999, -999]	n/a	catFR1	2	R1492J
583.749	3.018	738272	PROB	3.018	n/a	n/a	n/a	-999	5	[8, 3, 2]	13	catFR1	2	R1492J
586.767	3.065	741290	PROB	3.065	n/a	n/a	n/a	-999	5	[4, 1, 3]	8	catFR1	2	R1492J
589.832	2.684	744355	PROB	2.684	n/a	n/a	n/a	-999	5	[2, 6, 2]	10	catFR1	2	R1492J
592.516	3.283	747039	PROB	3.283	n/a	n/a	n/a	-999	5	[3, 6, 7]	16	catFR1	2	R1492J
595.799	2.852	750321	PROB	2.852	n/a	n/a	n/a	-999	5	[8, 1, 7]	16	catFR1	2	R1492J
598.651	2.931	753173	PROB	2.931	n/a	n/a	n/a	-999	5	[3, 3, 7]	13	catFR1	2	R1492J
601.582	0.0	756104	DISTRACT_END	n/a	n/a	n/a	n/a	-999	5	[0, 0, 0]	n/a	catFR1	2	R1492J
601.582	1.249	756104	STOP	n/a	n/a	n/a	n/a	-999	5	[-999, -999, -999]	n/a	catFR1	2	R1492J
602.831	0.227	757349	REC_START	n/a	n/a	n/a	n/a	-999	5	[0, 0, 0]	n/a	catFR1	2	R1492J
603.058	0.52	757580	REC_WORD	0.52	n/a	ARM	BodyParts	5	5	[0, 0, 0]	n/a	catFR1	2	R1492J
603.578	17.543	758100	REC_WORD	17.543	n/a	HEAD	BodyParts	10	5	[0, 0, 0]	n/a	catFR1	2	R1492J
621.121	12.901	775642	REC_WORD	12.901	n/a	PIG	FarmAnimals	12	5	[0, 0, 0]	n/a	catFR1	2	R1492J
634.022	1.827	788544	REC_END	n/a	n/a	n/a	n/a	-999	5	[0, 0, 0]	n/a	catFR1	2	R1492J
635.849	10.349	790370	COUNTDOWN_START	n/a	n/a	n/a	n/a	-999	5	[0, 0, 0]	n/a	catFR1	2	R1492J
646.198	0.0	800712	COUNTDOWN_END	n/a	n/a	n/a	n/a	-999	5	[0, 0, 0]	n/a	catFR1	2	R1492J
646.198	2.101	800722	ENCODING_START	n/a	n/a	n/a	n/a	-999	6	[0, 0, 0]	n/a	catFR1	2	R1492J
648.299	1.617	802822	WORD	n/a	wordpools/wordpool_categorized_EN.txt	CUPCAKE	Desserts	1	6	[0, 0, 0]	n/a	catFR1	2	R1492J
649.916	0.783	804437	WORD_OFF	n/a	n/a	CUPCAKE	Desserts	1	6	[0, 0, 0]	n/a	catFR1	2	R1492J
650.699	1.6	805218	WORD	n/a	wordpools/wordpool_categorized_EN.txt	CHEESECAKE	Desserts	2	6	[0, 0, 0]	n/a	catFR1	2	R1492J
652.299	0.767	806822	WORD_OFF	n/a	n/a	CHEESECAKE	Desserts	2	6	[0, 0, 0]	n/a	catFR1	2	R1492J
653.066	1.6	807582	WORD	n/a	wordpools/wordpool_categorized_EN.txt	ELM	Trees	3	6	[0, 0, 0]	n/a	catFR1	2	R1492J
654.666	0.949	809186	WORD_OFF	n/a	n/a	ELM	Trees	3	6	[0, 0, 0]	n/a	catFR1	2	R1492J
655.615	1.601	810136	WORD	n/a	wordpools/wordpool_categorized_EN.txt	SPRUCE	Trees	4	6	[0, 0, 0]	n/a	catFR1	2	R1492J
657.216	0.999	811729	WORD_OFF	n/a	n/a	SPRUCE	Trees	4	6	[0, 0, 0]	n/a	catFR1	2	R1492J
658.215	1.6	812732	WORD	n/a	wordpools/wordpool_categorized_EN.txt	RIVER	Landscapes	5	6	[0, 0, 0]	n/a	catFR1	2	R1492J
659.815	0.934	814336	WORD_OFF	n/a	n/a	RIVER	Landscapes	5	6	[0, 0, 0]	n/a	catFR1	2	R1492J
660.749	1.617	815265	WORD	n/a	wordpools/wordpool_categorized_EN.txt	ISLAND	Landscapes	6	6	[0, 0, 0]	n/a	catFR1	2	R1492J
662.366	0.966	816879	WORD_OFF	n/a	n/a	ISLAND	Landscapes	6	6	[0, 0, 0]	n/a	catFR1	2	R1492J
663.332	1.615	817850	WORD	n/a	wordpools/wordpool_categorized_EN.txt	HICKORY	Trees	7	6	[0, 0, 0]	n/a	catFR1	2	R1492J
664.947	0.919	819465	WORD_OFF	n/a	n/a	HICKORY	Trees	7	6	[0, 0, 0]	n/a	catFR1	2	R1492J
665.866	1.616	820383	WORD	n/a	wordpools/wordpool_categorized_EN.txt	WALNUT	Trees	8	6	[0, 0, 0]	n/a	catFR1	2	R1492J
667.482	1.0	821998	WORD_OFF	n/a	n/a	WALNUT	Trees	8	6	[0, 0, 0]	n/a	catFR1	2	R1492J
668.482	1.617	823000	WORD	n/a	wordpools/wordpool_categorized_EN.txt	COOKIE	Desserts	9	6	[0, 0, 0]	n/a	catFR1	2	R1492J
670.099	1.0	824615	WORD_OFF	n/a	n/a	COOKIE	Desserts	9	6	[0, 0, 0]	n/a	catFR1	2	R1492J
671.099	1.615	825617	WORD	n/a	wordpools/wordpool_categorized_EN.txt	CAKE	Desserts	10	6	[0, 0, 0]	n/a	catFR1	2	R1492J
672.714	0.802	827232	WORD_OFF	n/a	n/a	CAKE	Desserts	10	6	[0, 0, 0]	n/a	catFR1	2	R1492J
673.516	1.6	828034	WORD	n/a	wordpools/wordpool_categorized_EN.txt	OCEAN	Landscapes	11	6	[0, 0, 0]	n/a	catFR1	2	R1492J
675.116	0.983	829638	WORD_OFF	n/a	n/a	OCEAN	Landscapes	11	6	[0, 0, 0]	n/a	catFR1	2	R1492J
676.099	1.617	830620	WORD	n/a	wordpools/wordpool_categorized_EN.txt	STREAM	Landscapes	12	6	[0, 0, 0]	n/a	catFR1	2	R1492J
677.716	0.001	832234	WORD_OFF	n/a	n/a	STREAM	Landscapes	12	6	[0, 0, 0]	n/a	catFR1	2	R1492J
677.717	0.0	832234	ENCODING_END	n/a	n/a	n/a	n/a	-999	6	[0, 0, 0]	n/a	catFR1	2	R1492J
677.717	0.0	832234	DISTRACT_START	n/a	n/a	n/a	n/a	-999	6	[0, 0, 0]	n/a	catFR1	2	R1492J
677.717	0.0	832236	START	n/a	n/a	n/a	n/a	-999	6	[-999, -999, -999]	n/a	catFR1	2	R1492J
677.717	3.565	832236	PROB	3.565	n/a	n/a	n/a	-999	6	[1, 7, 3]	11	catFR1	2	R1492J
681.282	3.584	835801	PROB	3.584	n/a	n/a	n/a	-999	6	[3, 5, 6]	14	catFR1	2	R1492J
684.866	3.716	839385	PROB	3.716	n/a	n/a	n/a	-999	6	[2, 6, 5]	13	catFR1	2	R1492J
688.582	3.133	843101	PROB	3.133	n/a	n/a	n/a	-999	6	[8, 8, 4]	20	catFR1	2	R1492J
691.715	2.333	846234	PROB	2.333	n/a	n/a	n/a	-999	6	[1, 2, 4]	7	catFR1	2	R1492J
694.048	5.384	848566	PROB	5.384	n/a	n/a	n/a	-999	6	[8, 6, 8]	22	catFR1	2	R1492J
699.432	0.0	853950	STOP	n/a	n/a	n/a	n/a	-999	6	[-999, -999, -999]	n/a	catFR1	2	R1492J
699.432	1.366	853953	DISTRACT_END	n/a	n/a	n/a	n/a	-999	6	[0, 0, 0]	n/a	catFR1	2	R1492J
700.798	8.721	855314	REC_START	n/a	n/a	n/a	n/a	-999	6	[0, 0, 0]	n/a	catFR1	2	R1492J
709.519	0.684	864037	REC_WORD	0.684	n/a	CUPCAKE	Desserts	1	6	[0, 0, 0]	n/a	catFR1	2	R1492J
710.203	10.392	864721	REC_WORD	10.392	n/a	CAKE	Desserts	10	6	[0, 0, 0]	n/a	catFR1	2	R1492J
720.595	1.294	875112	REC_WORD	1.294	n/a	OCEAN	Landscapes	11	6	[0, 0, 0]	n/a	catFR1	2	R1492J
721.889	10.107	876406	REC_WORD	10.107	n/a	RIVER	Landscapes	5	6	[0, 0, 0]	n/a	catFR1	2	R1492J
731.996	2.27	886509	REC_END	n/a	n/a	n/a	n/a	-999	6	[0, 0, 0]	n/a	catFR1	2	R1492J
734.266	10.35	888789	COUNTDOWN_START	n/a	n/a	n/a	n/a	-999	6	[0, 0, 0]	n/a	catFR1	2	R1492J
744.616	0.0	899131	COUNTDOWN_END	n/a	n/a	n/a	n/a	-999	6	[0, 0, 0]	n/a	catFR1	2	R1492J
744.616	2.067	899131	ENCODING_START	n/a	n/a	n/a	n/a	-999	7	[0, 0, 0]	n/a	catFR1	2	R1492J
746.683	1.6	901199	WORD	n/a	wordpools/wordpool_categorized_EN.txt	SHIRT	Clothing	1	7	[0, 0, 0]	n/a	catFR1	2	R1492J
748.283	0.981	902793	WORD_OFF	n/a	n/a	SHIRT	Clothing	1	7	[0, 0, 0]	n/a	catFR1	2	R1492J
749.264	1.602	903774	WORD	n/a	wordpools/wordpool_categorized_EN.txt	SHORTS	Clothing	2	7	[0, 0, 0]	n/a	catFR1	2	R1492J
750.866	0.983	905378	WORD_OFF	n/a	n/a	SHORTS	Clothing	2	7	[0, 0, 0]	n/a	catFR1	2	R1492J
751.849	1.617	906360	WORD	n/a	wordpools/wordpool_categorized_EN.txt	CARNATION	Flowers	3	7	[0, 0, 0]	n/a	catFR1	2	R1492J
753.466	0.85	907974	WORD_OFF	n/a	n/a	CARNATION	Flowers	3	7	[0, 0, 0]	n/a	catFR1	2	R1492J
754.316	1.601	908829	WORD	n/a	wordpools/wordpool_categorized_EN.txt	PETUNIA	Flowers	4	7	[0, 0, 0]	n/a	catFR1	2	R1492J
755.917	0.798	910433	WORD_OFF	n/a	n/a	PETUNIA	Flowers	4	7	[0, 0, 0]	n/a	catFR1	2	R1492J
756.715	1.601	911225	WORD	n/a	wordpools/wordpool_categorized_EN.txt	CEDAR	Trees	5	7	[0, 0, 0]	n/a	catFR1	2	R1492J
758.316	0.966	912829	WORD_OFF	n/a	n/a	CEDAR	Trees	5	7	[0, 0, 0]	n/a	catFR1	2	R1492J
759.282	1.617	913800	WORD	n/a	wordpools/wordpool_categorized_EN.txt	WILLOW	Trees	6	7	[0, 0, 0]	n/a	catFR1	2	R1492J
760.899	0.966	915414	WORD_OFF	n/a	n/a	WILLOW	Trees	6	7	[0, 0, 0]	n/a	catFR1	2	R1492J
761.865	1.601	916375	WORD	n/a	wordpools/wordpool_categorized_EN.txt	VIOLET	Flowers	7	7	[0, 0, 0]	n/a	catFR1	2	R1492J
763.466	0.883	917979	WORD_OFF	n/a	n/a	VIOLET	Flowers	7	7	[0, 0, 0]	n/a	catFR1	2	R1492J
764.349	1.617	918865	WORD	n/a	wordpools/wordpool_categorized_EN.txt	ROSE	Flowers	8	7	[0, 0, 0]	n/a	catFR1	2	R1492J
765.966	0.867	920480	WORD_OFF	n/a	n/a	ROSE	Flowers	8	7	[0, 0, 0]	n/a	catFR1	2	R1492J
766.833	1.599	921345	WORD	n/a	wordpools/wordpool_categorized_EN.txt	PINE	Trees	9	7	[0, 0, 0]	n/a	catFR1	2	R1492J
768.432	0.867	922949	WORD_OFF	n/a	n/a	PINE	Trees	9	7	[0, 0, 0]	n/a	catFR1	2	R1492J
769.299	1.6	923815	WORD	n/a	wordpools/wordpool_categorized_EN.txt	CYPRESS	Trees	10	7	[0, 0, 0]	n/a	catFR1	2	R1492J
770.899	0.967	925408	WORD_OFF	n/a	n/a	CYPRESS	Trees	10	7	[0, 0, 0]	n/a	catFR1	2	R1492J
771.866	1.616	926379	WORD	n/a	wordpools/wordpool_categorized_EN.txt	SKIRT	Clothing	11	7	[0, 0, 0]	n/a	catFR1	2	R1492J
773.482	0.934	927994	WORD_OFF	n/a	n/a	SKIRT	Clothing	11	7	[0, 0, 0]	n/a	catFR1	2	R1492J
774.416	1.616	928933	WORD	n/a	wordpools/wordpool_categorized_EN.txt	UNDERWEAR	Clothing	12	7	[0, 0, 0]	n/a	catFR1	2	R1492J
776.032	0.002	930548	WORD_OFF	n/a	n/a	UNDERWEAR	Clothing	12	7	[0, 0, 0]	n/a	catFR1	2	R1492J
776.034	0.0	930548	ENCODING_END	n/a	n/a	n/a	n/a	-999	7	[0, 0, 0]	n/a	catFR1	2	R1492J
776.034	0.0	930548	DISTRACT_START	n/a	n/a	n/a	n/a	-999	7	[0, 0, 0]	n/a	catFR1	2	R1492J
776.033	0.001	930548	PROB	0.001	n/a	n/a	n/a	-999	7	[8, 3, 3]	14	catFR1	2	R1492J
776.034	3.782	930549	START	n/a	n/a	n/a	n/a	-999	7	[-999, -999, -999]	n/a	catFR1	2	R1492J
779.816	2.65	934331	PROB	2.65	n/a	n/a	n/a	-999	7	[1, 8, 4]	13	catFR1	2	R1492J
782.466	2.968	936981	PROB	2.968	n/a	n/a	n/a	-999	7	[6, 1, 3]	10	catFR1	2	R1492J
785.434	2.998	939949	PROB	2.998	n/a	n/a	n/a	-999	7	[7, 7, 6]	20	catFR1	2	R1492J
788.432	3.517	942947	PROB	3.517	n/a	n/a	n/a	-999	7	[4, 5, 8]	17	catFR1	2	R1492J
791.949	2.483	946463	PROB	2.483	n/a	n/a	n/a	-999	7	[1, 1, 4]	6	catFR1	2	R1492J
794.432	2.249	948946	PROB	2.249	n/a	n/a	n/a	-999	7	[2, 7, 2]	11	catFR1	2	R1492J
796.681	0.0	951190	DISTRACT_END	n/a	n/a	n/a	n/a	-999	7	[0, 0, 0]	n/a	catFR1	2	R1492J
796.681	1.101	951195	STOP	n/a	n/a	n/a	n/a	-999	7	[-999, -999, -999]	n/a	catFR1	2	R1492J
797.782	0.184	952298	REC_START	n/a	n/a	n/a	n/a	-999	7	[0, 0, 0]	n/a	catFR1	2	R1492J
797.966	7.291	952480	REC_WORD	7.291	n/a	UNDERWEAR	Clothing	12	7	[0, 0, 0]	n/a	catFR1	2	R1492J
805.257	2.331	959771	REC_WORD	2.331	n/a	PENNY	n/a	-999	7	[0, 0, 0]	n/a	catFR1	2	R1492J
807.588	12.767	962102	REC_WORD	12.767	n/a	PEN	OfficeSupplies	-999	7	[0, 0, 0]	n/a	catFR1	2	R1492J
820.355	1.293	974868	REC_WORD	1.293	n/a	SHORTS	Clothing	2	7	[0, 0, 0]	n/a	catFR1	2	R1492J
821.648	5.406	976161	REC_WORD	5.406	n/a	SHORT	n/a	-999	7	[0, 0, 0]	n/a	catFR1	2	R1492J
827.054	1.948	981567	REC_WORD	1.948	n/a	SHIRT	Clothing	1	7	[0, 0, 0]	n/a	catFR1	2	R1492J
829.002	2.53	983514	REC_END	n/a	n/a	n/a	n/a	-999	7	[0, 0, 0]	n/a	catFR1	2	R1492J
831.532	10.351	986047	COUNTDOWN_START	n/a	n/a	n/a	n/a	-999	7	[0, 0, 0]	n/a	catFR1	2	R1492J
841.883	0.0	996389	COUNTDOWN_END	n/a	n/a	n/a	n/a	-999	7	[0, 0, 0]	n/a	catFR1	2	R1492J
841.883	1.933	996400	ENCODING_START	n/a	n/a	n/a	n/a	-999	8	[0, 0, 0]	n/a	catFR1	2	R1492J
843.816	1.617	998320	WORD	n/a	wordpools/wordpool_categorized_EN.txt	COFFEE	Beverages	1	8	[0, 0, 0]	n/a	catFR1	2	R1492J
845.433	0.915	999945	WORD_OFF	n/a	n/a	COFFEE	Beverages	1	8	[0, 0, 0]	n/a	catFR1	2	R1492J
846.348	1.601	1000864	WORD	n/a	wordpools/wordpool_categorized_EN.txt	WATER	Beverages	2	8	[0, 0, 0]	n/a	catFR1	2	R1492J
847.949	0.884	1002457	WORD_OFF	n/a	n/a	WATER	Beverages	2	8	[0, 0, 0]	n/a	catFR1	2	R1492J
848.833	1.616	1003344	WORD	n/a	wordpools/wordpool_categorized_EN.txt	VELVET	Fabric	3	8	[0, 0, 0]	n/a	catFR1	2	R1492J
850.449	0.8	1004958	WORD_OFF	n/a	n/a	VELVET	Fabric	3	8	[0, 0, 0]	n/a	catFR1	2	R1492J
851.249	1.6	1005760	WORD	n/a	wordpools/wordpool_categorized_EN.txt	DENIM	Fabric	4	8	[0, 0, 0]	n/a	catFR1	2	R1492J
852.849	0.965	1007364	WORD_OFF	n/a	n/a	DENIM	Fabric	4	8	[0, 0, 0]	n/a	catFR1	2	R1492J
853.814	1.602	1008325	WORD	n/a	wordpools/wordpool_categorized_EN.txt	PEAS	Vegetables	5	8	[0, 0, 0]	n/a	catFR1	2	R1492J
855.416	0.799	1009929	WORD_OFF	n/a	n/a	PEAS	Vegetables	5	8	[0, 0, 0]	n/a	catFR1	2	R1492J
856.215	1.601	1010720	WORD	n/a	wordpools/wordpool_categorized_EN.txt	BROCCOLI	Vegetables	6	8	[0, 0, 0]	n/a	catFR1	2	R1492J
857.816	0.917	1012324	WORD_OFF	n/a	n/a	BROCCOLI	Vegetables	6	8	[0, 0, 0]	n/a	catFR1	2	R1492J
858.733	1.614	1013242	WORD	n/a	wordpools/wordpool_categorized_EN.txt	COLA	Beverages	7	8	[0, 0, 0]	n/a	catFR1	2	R1492J
860.347	0.985	1014857	WORD_OFF	n/a	n/a	COLA	Beverages	7	8	[0, 0, 0]	n/a	catFR1	2	R1492J
861.332	1.617	1015838	WORD	n/a	wordpools/wordpool_categorized_EN.txt	RUM	Beverages	8	8	[0, 0, 0]	n/a	catFR1	2	R1492J
862.949	0.883	1017464	WORD_OFF	n/a	n/a	RUM	Beverages	8	8	[0, 0, 0]	n/a	catFR1	2	R1492J
863.832	1.601	1018340	WORD	n/a	wordpools/wordpool_categorized_EN.txt	SPINACH	Vegetables	9	8	[0, 0, 0]	n/a	catFR1	2	R1492J
865.433	1.0	1019944	WORD_OFF	n/a	n/a	SPINACH	Vegetables	9	8	[0, 0, 0]	n/a	catFR1	2	R1492J
866.433	1.616	1020946	WORD	n/a	wordpools/wordpool_categorized_EN.txt	ONION	Vegetables	10	8	[0, 0, 0]	n/a	catFR1	2	R1492J
868.049	0.933	1022561	WORD_OFF	n/a	n/a	ONION	Vegetables	10	8	[0, 0, 0]	n/a	catFR1	2	R1492J
868.982	1.6	1023490	WORD	n/a	wordpools/wordpool_categorized_EN.txt	FLEECE	Fabric	11	8	[0, 0, 0]	n/a	catFR1	2	R1492J
870.582	0.834	1025094	WORD_OFF	n/a	n/a	FLEECE	Fabric	11	8	[0, 0, 0]	n/a	catFR1	2	R1492J
871.416	1.6	1025927	WORD	n/a	wordpools/wordpool_categorized_EN.txt	WOOL	Fabric	12	8	[0, 0, 0]	n/a	catFR1	2	R1492J
873.016	0.0	1027521	WORD_OFF	n/a	n/a	WOOL	Fabric	12	8	[0, 0, 0]	n/a	catFR1	2	R1492J
873.016	0.003	1027527	PROB	0.003	n/a	n/a	n/a	-999	8	[6, 6, 4]	14	catFR1	2	R1492J
873.019	0.0	1027530	START	n/a	n/a	n/a	n/a	-999	8	[-999, -999, -999]	n/a	catFR1	2	R1492J
873.019	0.0	1027531	ENCODING_END	n/a	n/a	n/a	n/a	-999	8	[0, 0, 0]	n/a	catFR1	2	R1492J
873.019	3.563	1027531	DISTRACT_START	n/a	n/a	n/a	n/a	-999	8	[0, 0, 0]	n/a	catFR1	2	R1492J
876.582	2.733	1031093	PROB	2.733	n/a	n/a	n/a	-999	8	[1, 3, 8]	12	catFR1	2	R1492J
879.315	2.617	1033826	PROB	2.617	n/a	n/a	n/a	-999	8	[3, 3, 1]	7	catFR1	2	R1492J
881.932	2.95	1036443	PROB	2.95	n/a	n/a	n/a	-999	8	[3, 4, 7]	14	catFR1	2	R1492J
884.882	3.249	1039393	PROB	3.249	n/a	n/a	n/a	-999	8	[3, 3, 5]	11	catFR1	2	R1492J
888.131	3.367	1042642	PROB	3.367	n/a	n/a	n/a	-999	8	[7, 6, 2]	15	catFR1	2	R1492J
891.498	3.483	1046008	PROB	3.483	n/a	n/a	n/a	-999	8	[5, 2, 2]	9	catFR1	2	R1492J
894.981	0.0	1049491	STOP	n/a	n/a	n/a	n/a	-999	8	[-999, -999, -999]	n/a	catFR1	2	R1492J
894.981	1.118	1049493	DISTRACT_END	n/a	n/a	n/a	n/a	-999	8	[0, 0, 0]	n/a	catFR1	2	R1492J
896.099	6.276	1050611	REC_START	n/a	n/a	n/a	n/a	-999	8	[0, 0, 0]	n/a	catFR1	2	R1492J
902.375	0.966	1056885	REC_WORD	0.966	n/a	ONION	Vegetables	10	8	[0, 0, 0]	n/a	catFR1	2	R1492J
903.341	0.76	1057851	REC_WORD	0.76	n/a	COFFEE	Beverages	1	8	[0, 0, 0]	n/a	catFR1	2	R1492J
904.101	8.853	1058611	REC_WORD	8.853	n/a	WATER	Beverages	2	8	[0, 0, 0]	n/a	catFR1	2	R1492J
912.954	14.377	1067464	REC_WORD	14.377	n/a	WOOL	Fabric	12	8	[0, 0, 0]	n/a	catFR1	2	R1492J
927.331	1.618	1081838	REC_END	n/a	n/a	n/a	n/a	-999	8	[0, 0, 0]	n/a	catFR1	2	R1492J
928.949	10.349	1083453	COUNTDOWN_START	n/a	n/a	n/a	n/a	-999	8	[0, 0, 0]	n/a	catFR1	2	R1492J
939.298	0.0	1093805	COUNTDOWN_END	n/a	n/a	n/a	n/a	-999	8	[0, 0, 0]	n/a	catFR1	2	R1492J
939.298	2.035	1093805	ENCODING_START	n/a	n/a	n/a	n/a	-999	9	[0, 0, 0]	n/a	catFR1	2	R1492J
941.333	1.616	1095842	WORD	n/a	wordpools/wordpool_categorized_EN.txt	CARROT	Vegetables	1	9	[0, 0, 0]	n/a	catFR1	2	R1492J
942.949	0.95	1097457	WORD_OFF	n/a	n/a	CARROT	Vegetables	1	9	[0, 0, 0]	n/a	catFR1	2	R1492J
943.899	1.616	1098407	WORD	n/a	wordpools/wordpool_categorized_EN.txt	CAULIFLOWER	Vegetables	2	9	[0, 0, 0]	n/a	catFR1	2	R1492J
945.515	0.901	1100021	WORD_OFF	n/a	n/a	CAULIFLOWER	Vegetables	2	9	[0, 0, 0]	n/a	catFR1	2	R1492J
946.416	1.6	1100918	WORD	n/a	wordpools/wordpool_categorized_EN.txt	EVERGREEN	Trees	3	9	[0, 0, 0]	n/a	catFR1	2	R1492J
948.016	0.917	1102522	WORD_OFF	n/a	n/a	EVERGREEN	Trees	3	9	[0, 0, 0]	n/a	catFR1	2	R1492J
948.933	1.616	1103440	WORD	n/a	wordpools/wordpool_categorized_EN.txt	MAPLE	Trees	4	9	[0, 0, 0]	n/a	catFR1	2	R1492J
950.549	0.95	1105055	WORD_OFF	n/a	n/a	MAPLE	Trees	4	9	[0, 0, 0]	n/a	catFR1	2	R1492J
951.499	1.615	1106005	WORD	n/a	wordpools/wordpool_categorized_EN.txt	BED	Furniture	5	9	[0, 0, 0]	n/a	catFR1	2	R1492J
953.114	0.885	1107620	WORD_OFF	n/a	n/a	BED	Furniture	5	9	[0, 0, 0]	n/a	catFR1	2	R1492J
953.999	1.616	1108506	WORD	n/a	wordpools/wordpool_categorized_EN.txt	BOOKCASE	Furniture	6	9	[0, 0, 0]	n/a	catFR1	2	R1492J
955.615	0.767	1110121	WORD_OFF	n/a	n/a	BOOKCASE	Furniture	6	9	[0, 0, 0]	n/a	catFR1	2	R1492J
956.382	1.6	1110891	WORD	n/a	wordpools/wordpool_categorized_EN.txt	OAK	Trees	7	9	[0, 0, 0]	n/a	catFR1	2	R1492J
957.982	0.983	1112485	WORD_OFF	n/a	n/a	OAK	Trees	7	9	[0, 0, 0]	n/a	catFR1	2	R1492J
958.965	1.601	1113466	WORD	n/a	wordpools/wordpool_categorized_EN.txt	BIRCH	Trees	8	9	[0, 0, 0]	n/a	catFR1	2	R1492J
960.566	0.85	1115070	WORD_OFF	n/a	n/a	BIRCH	Trees	8	9	[0, 0, 0]	n/a	catFR1	2	R1492J
961.416	1.6	1115925	WORD	n/a	wordpools/wordpool_categorized_EN.txt	COUCH	Furniture	9	9	[0, 0, 0]	n/a	catFR1	2	R1492J
963.016	0.816	1117518	WORD_OFF	n/a	n/a	COUCH	Furniture	9	9	[0, 0, 0]	n/a	catFR1	2	R1492J
963.832	1.601	1118342	WORD	n/a	wordpools/wordpool_categorized_EN.txt	SOFA	Furniture	10	9	[0, 0, 0]	n/a	catFR1	2	R1492J
965.433	0.766	1119935	WORD_OFF	n/a	n/a	SOFA	Furniture	10	9	[0, 0, 0]	n/a	catFR1	2	R1492J
966.199	1.6	1120705	WORD	n/a	wordpools/wordpool_categorized_EN.txt	LETTUCE	Vegetables	11	9	[0, 0, 0]	n/a	catFR1	2	R1492J
967.799	0.95	1122299	WORD_OFF	n/a	n/a	LETTUCE	Vegetables	11	9	[0, 0, 0]	n/a	catFR1	2	R1492J
968.749	1.617	1123259	WORD	n/a	wordpools/wordpool_categorized_EN.txt	CABBAGE	Vegetables	12	9	[0, 0, 0]	n/a	catFR1	2	R1492J
970.366	0.0	1124873	PROB	0.0	n/a	n/a	n/a	-999	9	[6, 1, 1]	8	catFR1	2	R1492J
970.366	0.001	1124874	WORD_OFF	n/a	n/a	CABBAGE	Vegetables	12	9	[0, 0, 0]	n/a	catFR1	2	R1492J
970.367	0.0	1124874	ENCODING_END	n/a	n/a	n/a	n/a	-999	9	[0, 0, 0]	n/a	catFR1	2	R1492J
970.367	0.0	1124874	DISTRACT_START	n/a	n/a	n/a	n/a	-999	9	[0, 0, 0]	n/a	catFR1	2	R1492J
970.367	3.199	1124874	START	n/a	n/a	n/a	n/a	-999	9	[-999, -999, -999]	n/a	catFR1	2	R1492J
973.566	2.766	1128073	PROB	2.766	n/a	n/a	n/a	-999	9	[3, 1, 8]	12	catFR1	2	R1492J
976.332	3.352	1130839	PROB	3.352	n/a	n/a	n/a	-999	9	[8, 4, 3]	15	catFR1	2	R1492J
979.684	3.649	1134191	PROB	3.649	n/a	n/a	n/a	-999	9	[8, 6, 4]	18	catFR1	2	R1492J
983.333	2.966	1137840	PROB	2.966	n/a	n/a	n/a	-999	9	[8, 3, 2]	13	catFR1	2	R1492J
986.299	3.233	1140806	PROB	3.233	n/a	n/a	n/a	-999	9	[7, 6, 1]	14	catFR1	2	R1492J
989.532	2.249	1144038	PROB	2.249	n/a	n/a	n/a	-999	9	[3, 3, 1]	7	catFR1	2	R1492J
991.781	0.0	1146286	DISTRACT_END	n/a	n/a	n/a	n/a	-999	9	[0, 0, 0]	n/a	catFR1	2	R1492J
991.781	1.05	1146287	STOP	n/a	n/a	n/a	n/a	-999	9	[-999, -999, -999]	n/a	catFR1	2	R1492J
992.831	0.597	1147331	REC_START	n/a	n/a	n/a	n/a	-999	9	[0, 0, 0]	n/a	catFR1	2	R1492J
993.428	1.745	1147934	REC_WORD	1.745	n/a	CABBAGE	Vegetables	12	9	[0, 0, 0]	n/a	catFR1	2	R1492J
995.173	15.686	1149679	REC_WORD	15.686	n/a	CARROT	Vegetables	1	9	[0, 0, 0]	n/a	catFR1	2	R1492J
1010.859	13.201	1165365	REC_WORD	13.201	n/a	BOOKCASE	Furniture	6	9	[0, 0, 0]	n/a	catFR1	2	R1492J
1024.06	1.604	1178558	REC_END	n/a	n/a	n/a	n/a	-999	9	[0, 0, 0]	n/a	catFR1	2	R1492J
1025.664	10.351	1180173	COUNTDOWN_START	n/a	n/a	n/a	n/a	-999	9	[0, 0, 0]	n/a	catFR1	2	R1492J
1036.015	0.0	1190515	COUNTDOWN_END	n/a	n/a	n/a	n/a	-999	9	[0, 0, 0]	n/a	catFR1	2	R1492J
1036.015	2.149	1190516	ENCODING_START	n/a	n/a	n/a	n/a	-999	10	[0, 0, 0]	n/a	catFR1	2	R1492J
1038.164	1.617	1192668	WORD	n/a	wordpools/wordpool_categorized_EN.txt	DAFFODIL	Flowers	1	10	[0, 0, 0]	n/a	catFR1	2	R1492J
1039.781	0.95	1194282	WORD_OFF	n/a	n/a	DAFFODIL	Flowers	1	10	[0, 0, 0]	n/a	catFR1	2	R1492J
1040.731	1.6	1195232	WORD	n/a	wordpools/wordpool_categorized_EN.txt	LILAC	Flowers	2	10	[0, 0, 0]	n/a	catFR1	2	R1492J
1042.331	0.783	1196836	WORD_OFF	n/a	n/a	LILAC	Flowers	2	10	[0, 0, 0]	n/a	catFR1	2	R1492J
1043.114	1.617	1197617	WORD	n/a	wordpools/wordpool_categorized_EN.txt	KNEE	BodyParts	3	10	[0, 0, 0]	n/a	catFR1	2	R1492J
1044.731	0.982	1199232	WORD_OFF	n/a	n/a	KNEE	BodyParts	3	10	[0, 0, 0]	n/a	catFR1	2	R1492J
1045.713	1.602	1200213	WORD	n/a	wordpools/wordpool_categorized_EN.txt	FINGERS	BodyParts	4	10	[0, 0, 0]	n/a	catFR1	2	R1492J
1047.315	0.983	1201817	WORD_OFF	n/a	n/a	FINGERS	BodyParts	4	10	[0, 0, 0]	n/a	catFR1	2	R1492J
1048.298	1.616	1202799	WORD	n/a	wordpools/wordpool_categorized_EN.txt	BEER	Beverages	5	10	[0, 0, 0]	n/a	catFR1	2	R1492J
1049.914	0.967	1204413	WORD_OFF	n/a	n/a	BEER	Beverages	5	10	[0, 0, 0]	n/a	catFR1	2	R1492J
1050.881	1.616	1205384	WORD	n/a	wordpools/wordpool_categorized_EN.txt	SODA	Beverages	6	10	[0, 0, 0]	n/a	catFR1	2	R1492J
1052.497	0.967	1206999	WORD_OFF	n/a	n/a	SODA	Beverages	6	10	[0, 0, 0]	n/a	catFR1	2	R1492J
1053.464	1.6	1207970	WORD	n/a	wordpools/wordpool_categorized_EN.txt	NOSE	BodyParts	7	10	[0, 0, 0]	n/a	catFR1	2	R1492J
1055.064	0.767	1209563	WORD_OFF	n/a	n/a	NOSE	BodyParts	7	10	[0, 0, 0]	n/a	catFR1	2	R1492J
1055.831	1.6	1210334	WORD	n/a	wordpools/wordpool_categorized_EN.txt	FOOT	BodyParts	8	10	[0, 0, 0]	n/a	catFR1	2	R1492J
1057.431	0.916	1211938	WORD_OFF	n/a	n/a	FOOT	BodyParts	8	10	[0, 0, 0]	n/a	catFR1	2	R1492J
1058.347	1.601	1212845	WORD	n/a	wordpools/wordpool_categorized_EN.txt	LEMONADE	Beverages	9	10	[0, 0, 0]	n/a	catFR1	2	R1492J
1059.948	0.783	1214449	WORD_OFF	n/a	n/a	LEMONADE	Beverages	9	10	[0, 0, 0]	n/a	catFR1	2	R1492J
1060.731	1.616	1215230	WORD	n/a	wordpools/wordpool_categorized_EN.txt	MILK	Beverages	10	10	[0, 0, 0]	n/a	catFR1	2	R1492J
1062.347	0.783	1216845	WORD_OFF	n/a	n/a	MILK	Beverages	10	10	[0, 0, 0]	n/a	catFR1	2	R1492J
1063.13	1.6	1217636	WORD	n/a	wordpools/wordpool_categorized_EN.txt	DAISY	Flowers	11	10	[0, 0, 0]	n/a	catFR1	2	R1492J
1064.73	0.934	1219230	WORD_OFF	n/a	n/a	DAISY	Flowers	11	10	[0, 0, 0]	n/a	catFR1	2	R1492J
1065.664	1.616	1220169	WORD	n/a	wordpools/wordpool_categorized_EN.txt	LILY	Flowers	12	10	[0, 0, 0]	n/a	catFR1	2	R1492J
1067.28	0.0	1221783	PROB	0.0	n/a	n/a	n/a	-999	10	[6, 8, 2]	16	catFR1	2	R1492J
1067.28	0.001	1221784	WORD_OFF	n/a	n/a	LILY	Flowers	12	10	[0, 0, 0]	n/a	catFR1	2	R1492J
1067.281	0.0	1221784	ENCODING_END	n/a	n/a	n/a	n/a	-999	10	[0, 0, 0]	n/a	catFR1	2	R1492J
1067.281	0.0	1221784	DISTRACT_START	n/a	n/a	n/a	n/a	-999	10	[0, 0, 0]	n/a	catFR1	2	R1492J
1067.281	3.184	1221784	START	n/a	n/a	n/a	n/a	-999	10	[-999, -999, -999]	n/a	catFR1	2	R1492J
1070.465	2.232	1224968	PROB	2.232	n/a	n/a	n/a	-999	10	[1, 4, 1]	6	catFR1	2	R1492J
1072.697	2.084	1227200	PROB	2.084	n/a	n/a	n/a	-999	10	[1, 1, 4]	6	catFR1	2	R1492J
1074.781	4.717	1229284	PROB	4.717	n/a	n/a	n/a	-999	10	[8, 3, 6]	17	catFR1	2	R1492J
1079.498	3.583	1234001	PROB	3.583	n/a	n/a	n/a	-999	10	[8, 3, 4]	15	catFR1	2	R1492J
1083.081	3.3	1237584	PROB	3.3	n/a	n/a	n/a	-999	10	[5, 3, 7]	15	catFR1	2	R1492J
1086.381	3.951	1240884	PROB	3.951	n/a	n/a	n/a	-999	10	[1, 4, 7]	12	catFR1	2	R1492J
1090.332	0.0	1244832	DISTRACT_END	n/a	n/a	n/a	n/a	-999	10	[0, 0, 0]	n/a	catFR1	2	R1492J
1090.332	1.349	1244834	STOP	n/a	n/a	n/a	n/a	-999	10	[-999, -999, -999]	n/a	catFR1	2	R1492J
1091.681	6.647	1246183	REC_START	n/a	n/a	n/a	n/a	-999	10	[0, 0, 0]	n/a	catFR1	2	R1492J
1098.328	2.642	1252830	REC_WORD	2.642	n/a	LILY	Flowers	12	10	[0, 0, 0]	n/a	catFR1	2	R1492J
1100.97	21.945	1255472	REC_WORD_VV	21.945	n/a	<>	n/a	-999	10	[0, 0, 0]	n/a	catFR1	2	R1492J
1122.915	2.0	1277410	REC_END	n/a	n/a	n/a	n/a	-999	10	[0, 0, 0]	n/a	catFR1	2	R1492J
1124.915	10.35	1279415	COUNTDOWN_START	n/a	n/a	n/a	n/a	-999	10	[0, 0, 0]	n/a	catFR1	2	R1492J
1135.265	0.0	1289767	COUNTDOWN_END	n/a	n/a	n/a	n/a	-999	10	[0, 0, 0]	n/a	catFR1	2	R1492J
1135.265	2.168	1289767	ENCODING_START	n/a	n/a	n/a	n/a	-999	11	[0, 0, 0]	n/a	catFR1	2	R1492J
1137.433	1.616	1291931	WORD	n/a	wordpools/wordpool_categorized_EN.txt	ORANGE	Fruit	1	11	[0, 0, 0]	n/a	catFR1	2	R1492J
1139.049	0.983	1293546	WORD_OFF	n/a	n/a	ORANGE	Fruit	1	11	[0, 0, 0]	n/a	catFR1	2	R1492J
1140.032	1.617	1294527	WORD	n/a	wordpools/wordpool_categorized_EN.txt	APPLE	Fruit	2	11	[0, 0, 0]	n/a	catFR1	2	R1492J
1141.649	0.95	1296152	WORD_OFF	n/a	n/a	APPLE	Fruit	2	11	[0, 0, 0]	n/a	catFR1	2	R1492J
1142.599	1.6	1297102	WORD	n/a	wordpools/wordpool_categorized_EN.txt	LINEN	Fabric	3	11	[0, 0, 0]	n/a	catFR1	2	R1492J
1144.199	0.982	1298695	WORD_OFF	n/a	n/a	LINEN	Fabric	3	11	[0, 0, 0]	n/a	catFR1	2	R1492J
1145.181	1.618	1299677	WORD	n/a	wordpools/wordpool_categorized_EN.txt	COTTON	Fabric	4	11	[0, 0, 0]	n/a	catFR1	2	R1492J
1146.799	0.765	1301302	WORD_OFF	n/a	n/a	COTTON	Fabric	4	11	[0, 0, 0]	n/a	catFR1	2	R1492J
1147.564	1.602	1302062	WORD	n/a	wordpools/wordpool_categorized_EN.txt	SHELF	Furniture	5	11	[0, 0, 0]	n/a	catFR1	2	R1492J
1149.166	0.867	1303666	WORD_OFF	n/a	n/a	SHELF	Furniture	5	11	[0, 0, 0]	n/a	catFR1	2	R1492J
1150.033	1.616	1304531	WORD	n/a	wordpools/wordpool_categorized_EN.txt	CABINET	Furniture	6	11	[0, 0, 0]	n/a	catFR1	2	R1492J
1151.649	0.933	1306146	WORD_OFF	n/a	n/a	CABINET	Furniture	6	11	[0, 0, 0]	n/a	catFR1	2	R1492J
1152.582	1.6	1307085	WORD	n/a	wordpools/wordpool_categorized_EN.txt	LIME	Fruit	7	11	[0, 0, 0]	n/a	catFR1	2	R1492J
1154.182	0.984	1308679	WORD_OFF	n/a	n/a	LIME	Fruit	7	11	[0, 0, 0]	n/a	catFR1	2	R1492J
1155.166	1.6	1309660	WORD	n/a	wordpools/wordpool_categorized_EN.txt	PLUM	Fruit	8	11	[0, 0, 0]	n/a	catFR1	2	R1492J
1156.766	0.95	1311264	WORD_OFF	n/a	n/a	PLUM	Fruit	8	11	[0, 0, 0]	n/a	catFR1	2	R1492J
1157.716	1.6	1312214	WORD	n/a	wordpools/wordpool_categorized_EN.txt	DRESSER	Furniture	9	11	[0, 0, 0]	n/a	catFR1	2	R1492J
1159.316	0.966	1313818	WORD_OFF	n/a	n/a	DRESSER	Furniture	9	11	[0, 0, 0]	n/a	catFR1	2	R1492J
1160.282	1.615	1314779	WORD	n/a	wordpools/wordpool_categorized_EN.txt	DESK	Furniture	10	11	[0, 0, 0]	n/a	catFR1	2	R1492J
1161.897	0.919	1316393	WORD_OFF	n/a	n/a	DESK	Furniture	10	11	[0, 0, 0]	n/a	catFR1	2	R1492J
1162.816	1.6	1317311	WORD	n/a	wordpools/wordpool_categorized_EN.txt	SILK	Fabric	11	11	[0, 0, 0]	n/a	catFR1	2	R1492J
1164.416	0.816	1318915	WORD_OFF	n/a	n/a	SILK	Fabric	11	11	[0, 0, 0]	n/a	catFR1	2	R1492J
1165.232	1.6	1319728	WORD	n/a	wordpools/wordpool_categorized_EN.txt	NYLON	Fabric	12	11	[0, 0, 0]	n/a	catFR1	2	R1492J
1166.832	0.002	1321332	WORD_OFF	n/a	n/a	NYLON	Fabric	12	11	[0, 0, 0]	n/a	catFR1	2	R1492J
1166.834	0.0	1321332	ENCODING_END	n/a	n/a	n/a	n/a	-999	11	[0, 0, 0]	n/a	catFR1	2	R1492J
1166.834	0.0	1321332	DISTRACT_START	n/a	n/a	n/a	n/a	-999	11	[0, 0, 0]	n/a	catFR1	2	R1492J
1166.833	0.001	1321332	PROB	0.001	n/a	n/a	n/a	-999	11	[3, 8, 1]	12	catFR1	2	R1492J
1166.834	3.049	1321333	START	n/a	n/a	n/a	n/a	-999	11	[-999, -999, -999]	n/a	catFR1	2	R1492J
1169.883	3.099	1324382	PROB	3.099	n/a	n/a	n/a	-999	11	[6, 7, 3]	16	catFR1	2	R1492J
1172.982	3.417	1327481	PROB	3.417	n/a	n/a	n/a	-999	11	[7, 6, 1]	14	catFR1	2	R1492J
1176.399	2.6	1330898	PROB	2.6	n/a	n/a	n/a	-999	11	[1, 8, 2]	11	catFR1	2	R1492J
1178.999	3.167	1333498	PROB	3.167	n/a	n/a	n/a	-999	11	[8, 8, 2]	18	catFR1	2	R1492J
1182.166	1.949	1336665	PROB	1.949	n/a	n/a	n/a	-999	11	[2, 2, 1]	5	catFR1	2	R1492J
1184.115	2.283	1338614	PROB	2.283	n/a	n/a	n/a	-999	11	[1, 7, 1]	9	catFR1	2	R1492J
1186.398	3.15	1340896	PROB	3.15	n/a	n/a	n/a	-999	11	[7, 3, 3]	13	catFR1	2	R1492J
1189.548	0.0	1344042	DISTRACT_END	n/a	n/a	n/a	n/a	-999	11	[0, 0, 0]	n/a	catFR1	2	R1492J
1189.548	1.15	1344046	STOP	n/a	n/a	n/a	n/a	-999	11	[-999, -999, -999]	n/a	catFR1	2	R1492J
1190.698	0.568	1345193	REC_START	n/a	n/a	n/a	n/a	-999	11	[0, 0, 0]	n/a	catFR1	2	R1492J
1191.266	6.636	1345764	REC_WORD	6.636	n/a	LIME	Fruit	7	11	[0, 0, 0]	n/a	catFR1	2	R1492J
1197.902	5.32	1352400	REC_WORD	5.32	n/a	FINGERS	BodyParts	-999	11	[0, 0, 0]	n/a	catFR1	2	R1492J
1203.222	18.708	1357720	REC_WORD	18.708	n/a	FOOT	BodyParts	-999	11	[0, 0, 0]	n/a	catFR1	2	R1492J
1221.93	1.702	1376420	REC_END	n/a	n/a	n/a	n/a	-999	11	[0, 0, 0]	n/a	catFR1	2	R1492J
1223.632	10.351	1378129	COUNTDOWN_START	n/a	n/a	n/a	n/a	-999	11	[0, 0, 0]	n/a	catFR1	2	R1492J
1233.983	0.0	1388482	COUNTDOWN_END	n/a	n/a	n/a	n/a	-999	11	[0, 0, 0]	n/a	catFR1	2	R1492J
1233.983	2.249	1388482	ENCODING_START	n/a	n/a	n/a	n/a	-999	12	[0, 0, 0]	n/a	catFR1	2	R1492J
1236.232	1.616	1390730	WORD	n/a	wordpools/wordpool_categorized_EN.txt	LEG	BodyParts	1	12	[0, 0, 0]	n/a	catFR1	2	R1492J
1237.848	0.885	1392344	WORD_OFF	n/a	n/a	LEG	BodyParts	1	12	[0, 0, 0]	n/a	catFR1	2	R1492J
1238.733	1.6	1393231	WORD	n/a	wordpools/wordpool_categorized_EN.txt	EYE	BodyParts	2	12	[0, 0, 0]	n/a	catFR1	2	R1492J
1240.333	0.883	1394824	WORD_OFF	n/a	n/a	EYE	BodyParts	2	12	[0, 0, 0]	n/a	catFR1	2	R1492J
1241.216	1.6	1395711	WORD	n/a	wordpools/wordpool_categorized_EN.txt	CRICKET	Insects	3	12	[0, 0, 0]	n/a	catFR1	2	R1492J
1242.816	0.9	1397304	WORD_OFF	n/a	n/a	CRICKET	Insects	3	12	[0, 0, 0]	n/a	catFR1	2	R1492J
1243.716	1.6	1398212	WORD	n/a	wordpools/wordpool_categorized_EN.txt	LADYBUG	Insects	4	12	[0, 0, 0]	n/a	catFR1	2	R1492J
1245.316	0.899	1399806	WORD_OFF	n/a	n/a	LADYBUG	Insects	4	12	[0, 0, 0]	n/a	catFR1	2	R1492J
1246.215	1.601	1400713	WORD	n/a	wordpools/wordpool_categorized_EN.txt	JELLYFISH	OceanAnimals	5	12	[0, 0, 0]	n/a	catFR1	2	R1492J
1247.816	0.983	1402307	WORD_OFF	n/a	n/a	JELLYFISH	OceanAnimals	5	12	[0, 0, 0]	n/a	catFR1	2	R1492J
1248.799	1.617	1403288	WORD	n/a	wordpools/wordpool_categorized_EN.txt	CRAB	OceanAnimals	6	12	[0, 0, 0]	n/a	catFR1	2	R1492J
1250.416	0.783	1404913	WORD_OFF	n/a	n/a	CRAB	OceanAnimals	6	12	[0, 0, 0]	n/a	catFR1	2	R1492J
1251.199	1.6	1405694	WORD	n/a	wordpools/wordpool_categorized_EN.txt	HAND	BodyParts	7	12	[0, 0, 0]	n/a	catFR1	2	R1492J
1252.799	0.967	1407298	WORD_OFF	n/a	n/a	HAND	BodyParts	7	12	[0, 0, 0]	n/a	catFR1	2	R1492J
1253.766	1.617	1408269	WORD	n/a	wordpools/wordpool_categorized_EN.txt	ELBOW	BodyParts	8	12	[0, 0, 0]	n/a	catFR1	2	R1492J
1255.383	0.883	1409873	WORD_OFF	n/a	n/a	ELBOW	BodyParts	8	12	[0, 0, 0]	n/a	catFR1	2	R1492J
1256.266	1.6	1410760	WORD	n/a	wordpools/wordpool_categorized_EN.txt	SHRIMP	OceanAnimals	9	12	[0, 0, 0]	n/a	catFR1	2	R1492J
1257.866	0.766	1412364	WORD_OFF	n/a	n/a	SHRIMP	OceanAnimals	9	12	[0, 0, 0]	n/a	catFR1	2	R1492J
1258.632	1.6	1413124	WORD	n/a	wordpools/wordpool_categorized_EN.txt	OYSTER	OceanAnimals	10	12	[0, 0, 0]	n/a	catFR1	2	R1492J
1260.232	0.834	1414728	WORD_OFF	n/a	n/a	OYSTER	OceanAnimals	10	12	[0, 0, 0]	n/a	catFR1	2	R1492J
1261.066	1.615	1415561	WORD	n/a	wordpools/wordpool_categorized_EN.txt	GNAT	Insects	11	12	[0, 0, 0]	n/a	catFR1	2	R1492J
1262.681	0.901	1417176	WORD_OFF	n/a	n/a	GNAT	Insects	11	12	[0, 0, 0]	n/a	catFR1	2	R1492J
1263.582	1.601	1418073	WORD	n/a	wordpools/wordpool_categorized_EN.txt	ROACH	Insects	12	12	[0, 0, 0]	n/a	catFR1	2	R1492J
1265.183	0.003	1419677	WORD_OFF	n/a	n/a	ROACH	Insects	12	12	[0, 0, 0]	n/a	catFR1	2	R1492J
1265.186	0.0	1419677	ENCODING_END	n/a	n/a	n/a	n/a	-999	12	[0, 0, 0]	n/a	catFR1	2	R1492J
1265.186	0.0	1419677	DISTRACT_START	n/a	n/a	n/a	n/a	-999	12	[0, 0, 0]	n/a	catFR1	2	R1492J
1265.183	0.003	1419678	PROB	0.003	n/a	n/a	n/a	-999	12	[7, 4, 1]	13	catFR1	2	R1492J
1265.186	5.963	1419681	START	n/a	n/a	n/a	n/a	-999	12	[-999, -999, -999]	n/a	catFR1	2	R1492J
1271.149	2.667	1425644	PROB	2.667	n/a	n/a	n/a	-999	12	[2, 8, 3]	13	catFR1	2	R1492J
1273.816	2.266	1428311	PROB	2.266	n/a	n/a	n/a	-999	12	[1, 7, 3]	11	catFR1	2	R1492J
1276.082	3.251	1430577	PROB	3.251	n/a	n/a	n/a	-999	12	[2, 6, 7]	15	catFR1	2	R1492J
1279.333	2.65	1433828	PROB	2.65	n/a	n/a	n/a	-999	12	[3, 8, 1]	12	catFR1	2	R1492J
1281.983	3.414	1436478	PROB	3.414	n/a	n/a	n/a	-999	12	[8, 7, 2]	17	catFR1	2	R1492J
1285.397	0.0	1439887	DISTRACT_END	n/a	n/a	n/a	n/a	-999	12	[0, 0, 0]	n/a	catFR1	2	R1492J
1285.397	1.117	1439891	STOP	n/a	n/a	n/a	n/a	-999	12	[-999, -999, -999]	n/a	catFR1	2	R1492J
1286.514	1.987	1441005	REC_START	n/a	n/a	n/a	n/a	-999	12	[0, 0, 0]	n/a	catFR1	2	R1492J
1288.501	0.719	1442995	REC_WORD	0.719	n/a	ORANGE	Fruit	-999	12	[0, 0, 0]	n/a	catFR1	2	R1492J
1289.22	9.09	1443714	REC_WORD	9.09	n/a	APPLE	Fruit	-999	12	[0, 0, 0]	n/a	catFR1	2	R1492J
1298.31	8.868	1452804	REC_WORD	8.868	n/a	LEG	BodyParts	1	12	[0, 0, 0]	n/a	catFR1	2	R1492J
1307.178	9.104	1461672	REC_WORD	9.104	n/a	ROACH	Insects	12	12	[0, 0, 0]	n/a	catFR1	2	R1492J
1316.282	1.448	1470775	REC_WORD	1.448	n/a	DRESSER	Furniture	-999	12	[0, 0, 0]	n/a	catFR1	2	R1492J
1317.73	0.0	1472221	REC_END	n/a	n/a	n/a	n/a	-999	12	[0, 0, 0]	n/a	catFR1	2	R1492J
