onset	duration	sample	trial_type	response_time	stim_file	item_name	category	serialpos	list	test	answer	experiment	session	subject
0.0	7.38	9437	INSTRUCT_START	n/a	n/a	n/a	n/a	-999	-999	[0, 0, 0]	n/a	catFR1	1	R1459M
7.38	9.733	16808	INSTRUCT_END	n/a	n/a	n/a	n/a	-999	-999	[0, 0, 0]	n/a	catFR1	1	R1459M
17.113	2.583	26549	INSTRUCT_START	n/a	n/a	n/a	n/a	-999	-999	[0, 0, 0]	n/a	catFR1	1	R1459M
19.696	30.183	29126	INSTRUCT_END	n/a	n/a	n/a	n/a	-999	-999	[0, 0, 0]	n/a	catFR1	1	R1459M
49.879	10.385	59313	COUNTDOWN_START	n/a	n/a	n/a	n/a	-999	-999	[0, 0, 0]	n/a	catFR1	1	R1459M
60.264	0.0	69687	COUNTDOWN_END	n/a	n/a	n/a	n/a	-999	-999	[0, 0, 0]	n/a	catFR1	1	R1459M
60.264	1.932	69701	ENCODING_START	n/a	n/a	n/a	n/a	-999	-1	[0, 0, 0]	n/a	catFR1	1	R1459M
62.196	1.617	71630	WORD	n/a	n/a	MOPED	Vehicles	1	-1	[0, 0, 0]	n/a	catFR1	1	R1459M
63.813	0.783	73242	WORD_OFF	n/a	n/a	MOPED	Vehicles	1	-1	[0, 0, 0]	n/a	catFR1	1	R1459M
64.596	1.6	74027	WORD	n/a	n/a	TRAIN	Vehicles	2	-1	[0, 0, 0]	n/a	catFR1	1	R1459M
66.196	0.9	75626	WORD_OFF	n/a	n/a	TRAIN	Vehicles	2	-1	[0, 0, 0]	n/a	catFR1	1	R1459M
67.096	1.617	76521	WORD	n/a	n/a	BUTTERFLY	Insects	3	-1	[0, 0, 0]	n/a	catFR1	1	R1459M
68.713	0.866	78147	WORD_OFF	n/a	n/a	BUTTERFLY	Insects	3	-1	[0, 0, 0]	n/a	catFR1	1	R1459M
69.579	1.601	79001	WORD	n/a	n/a	LADYBUG	Insects	4	-1	[0, 0, 0]	n/a	catFR1	1	R1459M
71.18	0.916	80613	WORD_OFF	n/a	n/a	LADYBUG	Insects	4	-1	[0, 0, 0]	n/a	catFR1	1	R1459M
72.096	1.617	81523	WORD	n/a	n/a	CHEESECAKE	Desserts	5	-1	[0, 0, 0]	n/a	catFR1	1	R1459M
73.713	0.983	83135	WORD_OFF	n/a	n/a	CHEESECAKE	Desserts	5	-1	[0, 0, 0]	n/a	catFR1	1	R1459M
74.696	1.6	84127	WORD	n/a	n/a	COOKIE	Desserts	6	-1	[0, 0, 0]	n/a	catFR1	1	R1459M
76.296	0.767	85725	WORD_OFF	n/a	n/a	COOKIE	Desserts	6	-1	[0, 0, 0]	n/a	catFR1	1	R1459M
77.063	1.6	86496	WORD	n/a	n/a	GNAT	Insects	7	-1	[0, 0, 0]	n/a	catFR1	1	R1459M
78.663	0.967	88095	WORD_OFF	n/a	n/a	GNAT	Insects	7	-1	[0, 0, 0]	n/a	catFR1	1	R1459M
79.63	1.6	89059	WORD	n/a	n/a	BEE	Insects	8	-1	[0, 0, 0]	n/a	catFR1	1	R1459M
81.23	1.0	90657	WORD_OFF	n/a	n/a	BEE	Insects	8	-1	[0, 0, 0]	n/a	catFR1	1	R1459M
82.23	1.615	91663	WORD	n/a	n/a	JEEP	Vehicles	9	-1	[0, 0, 0]	n/a	catFR1	1	R1459M
83.845	0.884	93275	WORD_OFF	n/a	n/a	JEEP	Vehicles	9	-1	[0, 0, 0]	n/a	catFR1	1	R1459M
84.729	1.6	94157	WORD	n/a	n/a	SCOOTER	Vehicles	10	-1	[0, 0, 0]	n/a	catFR1	1	R1459M
86.329	0.851	95755	WORD_OFF	n/a	n/a	SCOOTER	Vehicles	10	-1	[0, 0, 0]	n/a	catFR1	1	R1459M
87.18	1.6	96609	WORD	n/a	n/a	CAKE	Desserts	11	-1	[0, 0, 0]	n/a	catFR1	1	R1459M
88.78	0.9	98207	WORD_OFF	n/a	n/a	CAKE	Desserts	11	-1	[0, 0, 0]	n/a	catFR1	1	R1459M
89.68	1.616	99103	WORD	n/a	n/a	PIE	Desserts	12	-1	[0, 0, 0]	n/a	catFR1	1	R1459M
91.296	0.002	100729	WORD_OFF	n/a	n/a	PIE	Desserts	12	-1	[0, 0, 0]	n/a	catFR1	1	R1459M
91.298	0.0	100729	ENCODING_END	n/a	n/a	n/a	n/a	-999	-1	[0, 0, 0]	n/a	catFR1	1	R1459M
91.298	0.0	100729	DISTRACT_START	n/a	n/a	n/a	n/a	-999	-1	[0, 0, 0]	n/a	catFR1	1	R1459M
91.298	0.0	100729	START	n/a	n/a	n/a	n/a	-999	-1	[-999, -999, -999]	n/a	catFR1	1	R1459M
91.298	11.232	100729	PROB	11.232	n/a	n/a	n/a	-999	-1	[7, 6, 8]	21	catFR1	1	R1459M
102.53	8.433	111960	PROB	8.433	n/a	n/a	n/a	-999	-1	[1, 7, 6]	14	catFR1	1	R1459M
110.963	3.35	120393	PROB	3.35	n/a	n/a	n/a	-999	-1	[4, 5, 5]	14	catFR1	1	R1459M
114.313	0.0	123738	DISTRACT_END	n/a	n/a	n/a	n/a	-999	-1	[0, 0, 0]	n/a	catFR1	1	R1459M
114.313	2.083	123743	STOP	n/a	n/a	n/a	n/a	-999	-1	[-999, -999, -999]	n/a	catFR1	1	R1459M
116.396	1.816	125826	REC_START	n/a	n/a	n/a	n/a	-999	-1	[0, 0, 0]	n/a	catFR1	1	R1459M
118.212	0.913	127642	REC_WORD	0.913	n/a	CHEESECAKE	Desserts	5	-1	[0, 0, 0]	n/a	catFR1	1	R1459M
119.125	0.841	128555	REC_WORD	0.841	n/a	GNAT	Insects	7	-1	[0, 0, 0]	n/a	catFR1	1	R1459M
119.966	0.924	129396	REC_WORD	0.924	n/a	TRAIN	Vehicles	2	-1	[0, 0, 0]	n/a	catFR1	1	R1459M
120.89	1.011	130320	REC_WORD	1.011	n/a	MOPED	Vehicles	1	-1	[0, 0, 0]	n/a	catFR1	1	R1459M
121.901	1.002	131331	REC_WORD	1.002	n/a	BUTTERFLY	Insects	3	-1	[0, 0, 0]	n/a	catFR1	1	R1459M
122.903	0.465	132333	REC_WORD_VV	0.465	n/a	<>	n/a	-999	-1	[0, 0, 0]	n/a	catFR1	1	R1459M
123.368	7.503	132797	REC_WORD	7.503	n/a	BEE	Insects	8	-1	[0, 0, 0]	n/a	catFR1	1	R1459M
130.871	0.451	140300	REC_WORD_VV	0.451	n/a	<>	n/a	-999	-1	[0, 0, 0]	n/a	catFR1	1	R1459M
131.322	0.756	140751	REC_WORD	0.756	n/a	TRAIN	Vehicles	2	-1	[0, 0, 0]	n/a	catFR1	1	R1459M
132.078	0.762	141507	REC_WORD	0.762	n/a	BUTTERFLY	Insects	3	-1	[0, 0, 0]	n/a	catFR1	1	R1459M
132.84	1.266	142269	REC_WORD	1.266	n/a	BEE	Insects	8	-1	[0, 0, 0]	n/a	catFR1	1	R1459M
134.106	0.655	143535	REC_WORD	0.655	n/a	MOPED	Vehicles	1	-1	[0, 0, 0]	n/a	catFR1	1	R1459M
134.761	11.869	144190	REC_WORD	11.869	n/a	GNAT	Insects	7	-1	[0, 0, 0]	n/a	catFR1	1	R1459M
146.63	13.099	156060	REC_END	n/a	n/a	n/a	n/a	-999	-1	[0, 0, 0]	n/a	catFR1	1	R1459M
159.729	10.351	169149	COUNTDOWN_START	n/a	n/a	n/a	n/a	-999	1	[0, 0, 0]	n/a	catFR1	1	R1459M
170.08	0.0	179510	COUNTDOWN_END	n/a	n/a	n/a	n/a	-999	1	[0, 0, 0]	n/a	catFR1	1	R1459M
170.08	2.1	179510	ENCODING_START	n/a	n/a	n/a	n/a	-999	1	[0, 0, 0]	n/a	catFR1	1	R1459M
172.18	1.616	181604	WORD	n/a	wordpools/wordpool_categorized_EN.txt	CHERRY	Fruit	1	1	[0, 0, 0]	n/a	catFR1	1	R1459M
173.796	0.933	183216	WORD_OFF	n/a	n/a	CHERRY	Fruit	1	1	[0, 0, 0]	n/a	catFR1	1	R1459M
174.729	1.617	184153	WORD	n/a	wordpools/wordpool_categorized_EN.txt	ORANGE	Fruit	2	1	[0, 0, 0]	n/a	catFR1	1	R1459M
176.346	0.917	185765	WORD_OFF	n/a	n/a	ORANGE	Fruit	2	1	[0, 0, 0]	n/a	catFR1	1	R1459M
177.263	1.6	186688	WORD	n/a	wordpools/wordpool_categorized_EN.txt	CARROT	Vegetables	3	1	[0, 0, 0]	n/a	catFR1	1	R1459M
178.863	0.85	188286	WORD_OFF	n/a	n/a	CARROT	Vegetables	3	1	[0, 0, 0]	n/a	catFR1	1	R1459M
179.713	1.617	189141	WORD	n/a	wordpools/wordpool_categorized_EN.txt	BROCCOLI	Vegetables	4	1	[0, 0, 0]	n/a	catFR1	1	R1459M
181.33	0.899	190753	WORD_OFF	n/a	n/a	BROCCOLI	Vegetables	4	1	[0, 0, 0]	n/a	catFR1	1	R1459M
182.229	1.601	191648	WORD	n/a	wordpools/wordpool_categorized_EN.txt	SHOVEL	Tools	5	1	[0, 0, 0]	n/a	catFR1	1	R1459M
183.83	0.848	193246	WORD_OFF	n/a	n/a	SHOVEL	Tools	5	1	[0, 0, 0]	n/a	catFR1	1	R1459M
184.678	1.602	194101	WORD	n/a	wordpools/wordpool_categorized_EN.txt	SANDER	Tools	6	1	[0, 0, 0]	n/a	catFR1	1	R1459M
186.28	0.949	195699	WORD_OFF	n/a	n/a	SANDER	Tools	6	1	[0, 0, 0]	n/a	catFR1	1	R1459M
187.229	1.601	196650	WORD	n/a	wordpools/wordpool_categorized_EN.txt	CABBAGE	Vegetables	7	1	[0, 0, 0]	n/a	catFR1	1	R1459M
188.83	0.799	198248	WORD_OFF	n/a	n/a	CABBAGE	Vegetables	7	1	[0, 0, 0]	n/a	catFR1	1	R1459M
189.629	1.601	199047	WORD	n/a	wordpools/wordpool_categorized_EN.txt	CORN	Vegetables	8	1	[0, 0, 0]	n/a	catFR1	1	R1459M
191.23	0.933	200659	WORD_OFF	n/a	n/a	CORN	Vegetables	8	1	[0, 0, 0]	n/a	catFR1	1	R1459M
192.163	1.617	201582	WORD	n/a	wordpools/wordpool_categorized_EN.txt	LIME	Fruit	9	1	[0, 0, 0]	n/a	catFR1	1	R1459M
193.78	0.933	203208	WORD_OFF	n/a	n/a	LIME	Fruit	9	1	[0, 0, 0]	n/a	catFR1	1	R1459M
194.713	1.6	204131	WORD	n/a	wordpools/wordpool_categorized_EN.txt	PLUM	Fruit	10	1	[0, 0, 0]	n/a	catFR1	1	R1459M
196.313	0.95	205729	WORD_OFF	n/a	n/a	PLUM	Fruit	10	1	[0, 0, 0]	n/a	catFR1	1	R1459M
197.263	1.6	206680	WORD	n/a	wordpools/wordpool_categorized_EN.txt	LEVEL	Tools	11	1	[0, 0, 0]	n/a	catFR1	1	R1459M
198.863	0.8	208278	WORD_OFF	n/a	n/a	LEVEL	Tools	11	1	[0, 0, 0]	n/a	catFR1	1	R1459M
199.663	1.6	209091	WORD	n/a	wordpools/wordpool_categorized_EN.txt	RATCHET	Tools	12	1	[0, 0, 0]	n/a	catFR1	1	R1459M
201.263	0.002	210689	WORD_OFF	n/a	n/a	RATCHET	Tools	12	1	[0, 0, 0]	n/a	catFR1	1	R1459M
201.265	0.0	210689	ENCODING_END	n/a	n/a	n/a	n/a	-999	1	[0, 0, 0]	n/a	catFR1	1	R1459M
201.265	0.0	210689	DISTRACT_START	n/a	n/a	n/a	n/a	-999	1	[0, 0, 0]	n/a	catFR1	1	R1459M
201.263	0.002	210689	PROB	0.002	n/a	n/a	n/a	-999	1	[5, 1, 1]	7	catFR1	1	R1459M
201.265	9.899	210691	START	n/a	n/a	n/a	n/a	-999	1	[-999, -999, -999]	n/a	catFR1	1	R1459M
211.164	6.383	220589	PROB	6.383	n/a	n/a	n/a	-999	1	[7, 4, 8]	19	catFR1	1	R1459M
217.547	3.982	226972	PROB	3.982	n/a	n/a	n/a	-999	1	[3, 7, 8]	18	catFR1	1	R1459M
221.529	0.0	230954	STOP	n/a	n/a	n/a	n/a	-999	1	[-999, -999, -999]	n/a	catFR1	1	R1459M
221.529	2.1	230956	DISTRACT_END	n/a	n/a	n/a	n/a	-999	1	[0, 0, 0]	n/a	catFR1	1	R1459M
223.629	0.004	233045	REC_START	n/a	n/a	n/a	n/a	-999	1	[0, 0, 0]	n/a	catFR1	1	R1459M
223.633	0.581	233058	REC_WORD	0.581	n/a	SHOVEL	Tools	5	1	[0, 0, 0]	n/a	catFR1	1	R1459M
224.214	0.551	233639	REC_WORD	0.551	n/a	RATCHET	Tools	12	1	[0, 0, 0]	n/a	catFR1	1	R1459M
224.765	0.865	234190	REC_WORD	0.865	n/a	LEVEL	Tools	11	1	[0, 0, 0]	n/a	catFR1	1	R1459M
225.63	0.696	235055	REC_WORD	0.696	n/a	CARROT	Vegetables	3	1	[0, 0, 0]	n/a	catFR1	1	R1459M
226.326	0.583	235751	REC_WORD	0.583	n/a	LIME	Fruit	9	1	[0, 0, 0]	n/a	catFR1	1	R1459M
226.909	0.734	236334	REC_WORD	0.734	n/a	BROCCOLI	Vegetables	4	1	[0, 0, 0]	n/a	catFR1	1	R1459M
227.643	2.748	237068	REC_WORD	2.748	n/a	CABBAGE	Vegetables	7	1	[0, 0, 0]	n/a	catFR1	1	R1459M
230.391	0.661	239815	REC_WORD	0.661	n/a	ORANGE	Fruit	2	1	[0, 0, 0]	n/a	catFR1	1	R1459M
231.052	16.73	240476	REC_WORD	16.73	n/a	CHERRY	Fruit	1	1	[0, 0, 0]	n/a	catFR1	1	R1459M
247.782	6.094	257206	REC_WORD	6.094	n/a	BROCCOLI	Vegetables	4	1	[0, 0, 0]	n/a	catFR1	1	R1459M
253.876	9.704	263293	REC_END	n/a	n/a	n/a	n/a	-999	1	[0, 0, 0]	n/a	catFR1	1	R1459M
263.58	10.35	273006	COUNTDOWN_START	n/a	n/a	n/a	n/a	-999	2	[0, 0, 0]	n/a	catFR1	1	R1459M
273.93	0.001	283353	COUNTDOWN_END	n/a	n/a	n/a	n/a	-999	2	[0, 0, 0]	n/a	catFR1	1	R1459M
273.931	2.048	283353	ENCODING_START	n/a	n/a	n/a	n/a	-999	2	[0, 0, 0]	n/a	catFR1	1	R1459M
275.979	1.601	285392	WORD	n/a	wordpools/wordpool_categorized_EN.txt	DOLPHIN	OceanAnimals	1	2	[0, 0, 0]	n/a	catFR1	1	R1459M
277.58	0.766	287004	WORD_OFF	n/a	n/a	DOLPHIN	OceanAnimals	1	2	[0, 0, 0]	n/a	catFR1	1	R1459M
278.346	1.616	287762	WORD	n/a	wordpools/wordpool_categorized_EN.txt	FISH	OceanAnimals	2	2	[0, 0, 0]	n/a	catFR1	1	R1459M
279.962	0.851	289374	WORD_OFF	n/a	n/a	FISH	OceanAnimals	2	2	[0, 0, 0]	n/a	catFR1	1	R1459M
280.813	1.617	290228	WORD	n/a	wordpools/wordpool_categorized_EN.txt	LION	Zoo	3	2	[0, 0, 0]	n/a	catFR1	1	R1459M
282.43	1.0	291854	WORD_OFF	n/a	n/a	LION	Zoo	3	2	[0, 0, 0]	n/a	catFR1	1	R1459M
283.43	1.616	292846	WORD	n/a	wordpools/wordpool_categorized_EN.txt	MONKEY	Zoo	4	2	[0, 0, 0]	n/a	catFR1	1	R1459M
285.046	0.8	294458	WORD_OFF	n/a	n/a	MONKEY	Zoo	4	2	[0, 0, 0]	n/a	catFR1	1	R1459M
285.846	1.616	295271	WORD	n/a	wordpools/wordpool_categorized_EN.txt	ISLAND	Landscapes	5	2	[0, 0, 0]	n/a	catFR1	1	R1459M
287.462	0.834	296883	WORD_OFF	n/a	n/a	ISLAND	Landscapes	5	2	[0, 0, 0]	n/a	catFR1	1	R1459M
288.296	1.617	297710	WORD	n/a	wordpools/wordpool_categorized_EN.txt	BEACH	Landscapes	6	2	[0, 0, 0]	n/a	catFR1	1	R1459M
289.913	0.817	299335	WORD_OFF	n/a	n/a	BEACH	Landscapes	6	2	[0, 0, 0]	n/a	catFR1	1	R1459M
290.73	1.617	300148	WORD	n/a	wordpools/wordpool_categorized_EN.txt	TIGER	Zoo	7	2	[0, 0, 0]	n/a	catFR1	1	R1459M
292.347	0.899	301760	WORD_OFF	n/a	n/a	TIGER	Zoo	7	2	[0, 0, 0]	n/a	catFR1	1	R1459M
293.246	1.617	302669	WORD	n/a	wordpools/wordpool_categorized_EN.txt	BEAR	Zoo	8	2	[0, 0, 0]	n/a	catFR1	1	R1459M
294.863	0.9	304281	WORD_OFF	n/a	n/a	BEAR	Zoo	8	2	[0, 0, 0]	n/a	catFR1	1	R1459M
295.763	1.6	305177	WORD	n/a	wordpools/wordpool_categorized_EN.txt	OYSTER	OceanAnimals	9	2	[0, 0, 0]	n/a	catFR1	1	R1459M
297.363	0.9	306775	WORD_OFF	n/a	n/a	OYSTER	OceanAnimals	9	2	[0, 0, 0]	n/a	catFR1	1	R1459M
298.263	1.617	307685	WORD	n/a	wordpools/wordpool_categorized_EN.txt	WHALE	OceanAnimals	10	2	[0, 0, 0]	n/a	catFR1	1	R1459M
299.88	1.0	309297	WORD_OFF	n/a	n/a	WHALE	OceanAnimals	10	2	[0, 0, 0]	n/a	catFR1	1	R1459M
300.88	1.616	310302	WORD	n/a	wordpools/wordpool_categorized_EN.txt	CREEK	Landscapes	11	2	[0, 0, 0]	n/a	catFR1	1	R1459M
302.496	0.884	311914	WORD_OFF	n/a	n/a	CREEK	Landscapes	11	2	[0, 0, 0]	n/a	catFR1	1	R1459M
303.38	1.6	312796	WORD	n/a	wordpools/wordpool_categorized_EN.txt	LAKE	Landscapes	12	2	[0, 0, 0]	n/a	catFR1	1	R1459M
304.98	0.001	314394	WORD_OFF	n/a	n/a	LAKE	Landscapes	12	2	[0, 0, 0]	n/a	catFR1	1	R1459M
304.981	0.0	314394	ENCODING_END	n/a	n/a	n/a	n/a	-999	2	[0, 0, 0]	n/a	catFR1	1	R1459M
304.98	0.001	314401	PROB	0.001	n/a	n/a	n/a	-999	2	[7, 4, 8]	19	catFR1	1	R1459M
304.981	0.0	314402	START	n/a	n/a	n/a	n/a	-999	2	[-999, -999, -999]	n/a	catFR1	1	R1459M
304.981	5.549	314408	DISTRACT_START	n/a	n/a	n/a	n/a	-999	2	[0, 0, 0]	n/a	catFR1	1	R1459M
310.53	2.817	319951	PROB	2.817	n/a	n/a	n/a	-999	2	[4, 2, 2]	12	catFR1	1	R1459M
313.347	3.684	322768	PROB	3.684	n/a	n/a	n/a	-999	2	[7, 3, 3]	13	catFR1	1	R1459M
317.031	3.565	326451	PROB	3.565	n/a	n/a	n/a	-999	2	[5, 4, 3]	12	catFR1	1	R1459M
320.596	4.55	330016	PROB	4.55	n/a	n/a	n/a	-999	2	[6, 7, 5]	18	catFR1	1	R1459M
325.146	0.0	334565	DISTRACT_END	n/a	n/a	n/a	n/a	-999	2	[0, 0, 0]	n/a	catFR1	1	R1459M
325.146	2.249	334566	STOP	n/a	n/a	n/a	n/a	-999	2	[-999, -999, -999]	n/a	catFR1	1	R1459M
327.395	1.288	336805	REC_START	n/a	n/a	n/a	n/a	-999	2	[0, 0, 0]	n/a	catFR1	1	R1459M
328.683	0.784	338103	REC_WORD	0.784	n/a	LION	Zoo	3	2	[0, 0, 0]	n/a	catFR1	1	R1459M
329.467	0.794	338887	REC_WORD	0.794	n/a	TIGER	Zoo	7	2	[0, 0, 0]	n/a	catFR1	1	R1459M
330.261	1.095	339681	REC_WORD	1.095	n/a	FISH	OceanAnimals	2	2	[0, 0, 0]	n/a	catFR1	1	R1459M
331.356	1.564	340776	REC_WORD	1.564	n/a	DOLPHIN	OceanAnimals	1	2	[0, 0, 0]	n/a	catFR1	1	R1459M
332.92	1.225	342340	REC_WORD	1.225	n/a	WHALE	OceanAnimals	10	2	[0, 0, 0]	n/a	catFR1	1	R1459M
334.145	1.221	343565	REC_WORD	1.221	n/a	ISLAND	Landscapes	5	2	[0, 0, 0]	n/a	catFR1	1	R1459M
335.366	1.0	344786	REC_WORD	1.0	n/a	CREEK	Landscapes	11	2	[0, 0, 0]	n/a	catFR1	1	R1459M
336.366	2.833	345786	REC_WORD	2.833	n/a	LAKE	Landscapes	12	2	[0, 0, 0]	n/a	catFR1	1	R1459M
339.199	0.431	348618	REC_WORD	0.431	n/a	ISLAND	Landscapes	5	2	[0, 0, 0]	n/a	catFR1	1	R1459M
339.63	0.554	349049	REC_WORD	0.554	n/a	LAKE	Landscapes	12	2	[0, 0, 0]	n/a	catFR1	1	R1459M
340.184	0.373	349603	REC_WORD	0.373	n/a	CREEK	Landscapes	11	2	[0, 0, 0]	n/a	catFR1	1	R1459M
340.557	2.443	349976	REC_WORD	2.443	n/a	LAKE	Landscapes	12	2	[0, 0, 0]	n/a	catFR1	1	R1459M
343.0	2.789	352419	REC_WORD	2.789	n/a	BEACH	Landscapes	6	2	[0, 0, 0]	n/a	catFR1	1	R1459M
345.789	0.572	355208	REC_WORD	0.572	n/a	TIGER	Zoo	7	2	[0, 0, 0]	n/a	catFR1	1	R1459M
346.361	1.58	355780	REC_WORD	1.58	n/a	LION	Zoo	3	2	[0, 0, 0]	n/a	catFR1	1	R1459M
347.941	1.587	357360	REC_WORD	1.587	n/a	WHALE	OceanAnimals	10	2	[0, 0, 0]	n/a	catFR1	1	R1459M
349.528	0.732	358947	REC_WORD	0.732	n/a	DOLPHIN	OceanAnimals	1	2	[0, 0, 0]	n/a	catFR1	1	R1459M
350.26	3.882	359679	REC_WORD	3.882	n/a	BEAR	Zoo	8	2	[0, 0, 0]	n/a	catFR1	1	R1459M
354.142	1.009	363561	REC_WORD	1.009	n/a	FISH	OceanAnimals	2	2	[0, 0, 0]	n/a	catFR1	1	R1459M
355.151	2.456	364570	REC_WORD	2.456	n/a	DOLPHIN	OceanAnimals	1	2	[0, 0, 0]	n/a	catFR1	1	R1459M
357.607	5.422	367025	REC_END	n/a	n/a	n/a	n/a	-999	2	[0, 0, 0]	n/a	catFR1	1	R1459M
363.029	10.351	372440	COUNTDOWN_START	n/a	n/a	n/a	n/a	-999	3	[0, 0, 0]	n/a	catFR1	1	R1459M
373.38	0.0	382801	COUNTDOWN_END	n/a	n/a	n/a	n/a	-999	3	[0, 0, 0]	n/a	catFR1	1	R1459M
373.38	1.933	382801	ENCODING_START	n/a	n/a	n/a	n/a	-999	3	[0, 0, 0]	n/a	catFR1	1	R1459M
375.313	1.6	384730	WORD	n/a	wordpools/wordpool_categorized_EN.txt	CALF	FarmAnimals	1	3	[0, 0, 0]	n/a	catFR1	1	R1459M
376.913	0.933	386328	WORD_OFF	n/a	n/a	CALF	FarmAnimals	1	3	[0, 0, 0]	n/a	catFR1	1	R1459M
377.846	1.6	387265	WORD	n/a	wordpools/wordpool_categorized_EN.txt	ROOSTER	FarmAnimals	2	3	[0, 0, 0]	n/a	catFR1	1	R1459M
379.446	0.817	388863	WORD_OFF	n/a	n/a	ROOSTER	FarmAnimals	2	3	[0, 0, 0]	n/a	catFR1	1	R1459M
380.263	1.616	389676	WORD	n/a	wordpools/wordpool_categorized_EN.txt	DUCK	Birds	3	3	[0, 0, 0]	n/a	catFR1	1	R1459M
381.879	0.834	391288	WORD_OFF	n/a	n/a	DUCK	Birds	3	3	[0, 0, 0]	n/a	catFR1	1	R1459M
382.713	1.6	392129	WORD	n/a	wordpools/wordpool_categorized_EN.txt	SEAGULL	Birds	4	3	[0, 0, 0]	n/a	catFR1	1	R1459M
384.313	0.933	393727	WORD_OFF	n/a	n/a	SEAGULL	Birds	4	3	[0, 0, 0]	n/a	catFR1	1	R1459M
385.246	1.617	394664	WORD	n/a	wordpools/wordpool_categorized_EN.txt	SATIN	Fabric	5	3	[0, 0, 0]	n/a	catFR1	1	R1459M
386.863	0.867	396276	WORD_OFF	n/a	n/a	SATIN	Fabric	5	3	[0, 0, 0]	n/a	catFR1	1	R1459M
387.73	1.616	397144	WORD	n/a	wordpools/wordpool_categorized_EN.txt	VELVET	Fabric	6	3	[0, 0, 0]	n/a	catFR1	1	R1459M
389.346	0.967	398756	WORD_OFF	n/a	n/a	VELVET	Fabric	6	3	[0, 0, 0]	n/a	catFR1	1	R1459M
390.313	1.615	399720	WORD	n/a	wordpools/wordpool_categorized_EN.txt	CROW	Birds	7	3	[0, 0, 0]	n/a	catFR1	1	R1459M
391.928	0.935	401346	WORD_OFF	n/a	n/a	CROW	Birds	7	3	[0, 0, 0]	n/a	catFR1	1	R1459M
392.863	1.6	402269	WORD	n/a	wordpools/wordpool_categorized_EN.txt	SPARROW	Birds	8	3	[0, 0, 0]	n/a	catFR1	1	R1459M
394.463	0.767	403881	WORD_OFF	n/a	n/a	SPARROW	Birds	8	3	[0, 0, 0]	n/a	catFR1	1	R1459M
395.23	1.6	404639	WORD	n/a	wordpools/wordpool_categorized_EN.txt	LEATHER	Fabric	9	3	[0, 0, 0]	n/a	catFR1	1	R1459M
396.83	0.9	406237	WORD_OFF	n/a	n/a	LEATHER	Fabric	9	3	[0, 0, 0]	n/a	catFR1	1	R1459M
397.73	1.6	407146	WORD	n/a	wordpools/wordpool_categorized_EN.txt	SUEDE	Fabric	10	3	[0, 0, 0]	n/a	catFR1	1	R1459M
399.33	1.0	408745	WORD_OFF	n/a	n/a	SUEDE	Fabric	10	3	[0, 0, 0]	n/a	catFR1	1	R1459M
400.33	1.616	409750	WORD	n/a	wordpools/wordpool_categorized_EN.txt	TURKEY	FarmAnimals	11	3	[0, 0, 0]	n/a	catFR1	1	R1459M
401.946	0.916	411362	WORD_OFF	n/a	n/a	TURKEY	FarmAnimals	11	3	[0, 0, 0]	n/a	catFR1	1	R1459M
402.862	1.6	412272	WORD	n/a	wordpools/wordpool_categorized_EN.txt	PIG	FarmAnimals	12	3	[0, 0, 0]	n/a	catFR1	1	R1459M
404.462	0.002	413870	WORD_OFF	n/a	n/a	PIG	FarmAnimals	12	3	[0, 0, 0]	n/a	catFR1	1	R1459M
404.464	0.0	413870	ENCODING_END	n/a	n/a	n/a	n/a	-999	3	[0, 0, 0]	n/a	catFR1	1	R1459M
404.463	0.001	413879	PROB	0.001	n/a	n/a	n/a	-999	3	[5, 1, 4]	10	catFR1	1	R1459M
404.464	0.0	413880	START	n/a	n/a	n/a	n/a	-999	3	[-999, -999, -999]	n/a	catFR1	1	R1459M
404.464	4.533	413884	DISTRACT_START	n/a	n/a	n/a	n/a	-999	3	[0, 0, 0]	n/a	catFR1	1	R1459M
408.997	5.4	418413	PROB	5.4	n/a	n/a	n/a	-999	3	[8, 7, 5]	20	catFR1	1	R1459M
414.397	4.283	423813	PROB	4.283	n/a	n/a	n/a	-999	3	[8, 8, 6]	21	catFR1	1	R1459M
418.68	5.134	428096	PROB	5.134	n/a	n/a	n/a	-999	3	[8, 7, 3]	18	catFR1	1	R1459M
423.814	2.665	433229	PROB	2.665	n/a	n/a	n/a	-999	3	[3, 3, 7]	13	catFR1	1	R1459M
426.479	0.0	435887	DISTRACT_END	n/a	n/a	n/a	n/a	-999	3	[0, 0, 0]	n/a	catFR1	1	R1459M
426.479	2.2	435894	STOP	n/a	n/a	n/a	n/a	-999	3	[-999, -999, -999]	n/a	catFR1	1	R1459M
428.679	1.643	438085	REC_START	n/a	n/a	n/a	n/a	-999	3	[0, 0, 0]	n/a	catFR1	1	R1459M
430.322	0.57	439737	REC_WORD	0.57	n/a	TURKEY	FarmAnimals	11	3	[0, 0, 0]	n/a	catFR1	1	R1459M
430.892	0.412	440307	REC_WORD	0.412	n/a	CROW	Birds	7	3	[0, 0, 0]	n/a	catFR1	1	R1459M
431.304	0.449	440719	REC_WORD	0.449	n/a	ROOSTER	FarmAnimals	2	3	[0, 0, 0]	n/a	catFR1	1	R1459M
431.753	0.605	441168	REC_WORD	0.605	n/a	CALF	FarmAnimals	1	3	[0, 0, 0]	n/a	catFR1	1	R1459M
432.358	0.481	441773	REC_WORD	0.481	n/a	PIG	FarmAnimals	12	3	[0, 0, 0]	n/a	catFR1	1	R1459M
432.839	0.405	442254	REC_WORD	0.405	n/a	SATIN	Fabric	5	3	[0, 0, 0]	n/a	catFR1	1	R1459M
433.244	0.672	442659	REC_WORD	0.672	n/a	VELVET	Fabric	6	3	[0, 0, 0]	n/a	catFR1	1	R1459M
433.916	3.77	443331	REC_WORD	3.77	n/a	SUEDE	Fabric	10	3	[0, 0, 0]	n/a	catFR1	1	R1459M
437.686	6.778	447101	REC_WORD	6.778	n/a	SEAGULL	Birds	4	3	[0, 0, 0]	n/a	catFR1	1	R1459M
444.464	0.752	453879	REC_WORD_VV	0.752	n/a	<>	n/a	-999	3	[0, 0, 0]	n/a	catFR1	1	R1459M
445.216	0.634	454630	REC_WORD	0.634	n/a	SUEDE	Fabric	10	3	[0, 0, 0]	n/a	catFR1	1	R1459M
445.85	3.153	455264	REC_WORD	3.153	n/a	SEAGULL	Birds	4	3	[0, 0, 0]	n/a	catFR1	1	R1459M
449.003	1.0	458417	REC_WORD_VV	1.0	n/a	<>	n/a	-999	3	[0, 0, 0]	n/a	catFR1	1	R1459M
450.003	3.326	459417	REC_WORD_VV	3.326	n/a	<>	n/a	-999	3	[0, 0, 0]	n/a	catFR1	1	R1459M
453.329	5.59	462743	REC_WORD	5.59	n/a	LEATHER	Fabric	9	3	[0, 0, 0]	n/a	catFR1	1	R1459M
458.919	4.377	468333	REC_END	n/a	n/a	n/a	n/a	-999	3	[0, 0, 0]	n/a	catFR1	1	R1459M
463.296	10.351	472701	COUNTDOWN_START	n/a	n/a	n/a	n/a	-999	4	[0, 0, 0]	n/a	catFR1	1	R1459M
473.647	0.0	483062	COUNTDOWN_END	n/a	n/a	n/a	n/a	-999	4	[0, 0, 0]	n/a	catFR1	1	R1459M
473.647	2.215	483062	ENCODING_START	n/a	n/a	n/a	n/a	-999	4	[0, 0, 0]	n/a	catFR1	1	R1459M
475.862	1.601	485266	WORD	n/a	wordpools/wordpool_categorized_EN.txt	HAND	BodyParts	1	4	[0, 0, 0]	n/a	catFR1	1	R1459M
477.463	0.817	486878	WORD_OFF	n/a	n/a	HAND	BodyParts	1	4	[0, 0, 0]	n/a	catFR1	1	R1459M
478.28	1.616	487691	WORD	n/a	wordpools/wordpool_categorized_EN.txt	EYE	BodyParts	2	4	[0, 0, 0]	n/a	catFR1	1	R1459M
479.896	0.934	489303	WORD_OFF	n/a	n/a	EYE	BodyParts	2	4	[0, 0, 0]	n/a	catFR1	1	R1459M
480.83	1.616	490240	WORD	n/a	wordpools/wordpool_categorized_EN.txt	REFRIGERATOR	Appliances	3	4	[0, 0, 0]	n/a	catFR1	1	R1459M
482.446	0.817	491852	WORD_OFF	n/a	n/a	REFRIGERATOR	Appliances	3	4	[0, 0, 0]	n/a	catFR1	1	R1459M
483.263	1.617	492679	WORD	n/a	wordpools/wordpool_categorized_EN.txt	VACUUM	Appliances	4	4	[0, 0, 0]	n/a	catFR1	1	R1459M
484.88	0.799	494291	WORD_OFF	n/a	n/a	VACUUM	Appliances	4	4	[0, 0, 0]	n/a	catFR1	1	R1459M
485.679	1.601	495090	WORD	n/a	wordpools/wordpool_categorized_EN.txt	BEER	Beverages	5	4	[0, 0, 0]	n/a	catFR1	1	R1459M
487.28	0.866	496688	WORD_OFF	n/a	n/a	BEER	Beverages	5	4	[0, 0, 0]	n/a	catFR1	1	R1459M
488.146	1.6	497556	WORD	n/a	wordpools/wordpool_categorized_EN.txt	RUM	Beverages	6	4	[0, 0, 0]	n/a	catFR1	1	R1459M
489.746	1.0	499154	WORD_OFF	n/a	n/a	RUM	Beverages	6	4	[0, 0, 0]	n/a	catFR1	1	R1459M
490.746	1.601	500160	WORD	n/a	wordpools/wordpool_categorized_EN.txt	MIXER	Appliances	7	4	[0, 0, 0]	n/a	catFR1	1	R1459M
492.347	0.916	501758	WORD_OFF	n/a	n/a	MIXER	Appliances	7	4	[0, 0, 0]	n/a	catFR1	1	R1459M
493.263	1.617	502668	WORD	n/a	wordpools/wordpool_categorized_EN.txt	TOASTER	Appliances	8	4	[0, 0, 0]	n/a	catFR1	1	R1459M
494.88	0.95	504293	WORD_OFF	n/a	n/a	TOASTER	Appliances	8	4	[0, 0, 0]	n/a	catFR1	1	R1459M
495.83	1.6	505244	WORD	n/a	wordpools/wordpool_categorized_EN.txt	ARM	BodyParts	9	4	[0, 0, 0]	n/a	catFR1	1	R1459M
497.43	0.782	506842	WORD_OFF	n/a	n/a	ARM	BodyParts	9	4	[0, 0, 0]	n/a	catFR1	1	R1459M
498.212	1.601	507628	WORD	n/a	wordpools/wordpool_categorized_EN.txt	LEG	BodyParts	10	4	[0, 0, 0]	n/a	catFR1	1	R1459M
499.813	0.783	509226	WORD_OFF	n/a	n/a	LEG	BodyParts	10	4	[0, 0, 0]	n/a	catFR1	1	R1459M
500.596	1.6	510011	WORD	n/a	wordpools/wordpool_categorized_EN.txt	COFFEE	Beverages	11	4	[0, 0, 0]	n/a	catFR1	1	R1459M
502.196	0.9	511609	WORD_OFF	n/a	n/a	COFFEE	Beverages	11	4	[0, 0, 0]	n/a	catFR1	1	R1459M
503.096	1.6	512505	WORD	n/a	wordpools/wordpool_categorized_EN.txt	COLA	Beverages	12	4	[0, 0, 0]	n/a	catFR1	1	R1459M
504.696	0.002	514103	WORD_OFF	n/a	n/a	COLA	Beverages	12	4	[0, 0, 0]	n/a	catFR1	1	R1459M
504.698	0.0	514103	ENCODING_END	n/a	n/a	n/a	n/a	-999	4	[0, 0, 0]	n/a	catFR1	1	R1459M
504.698	0.0	514103	DISTRACT_START	n/a	n/a	n/a	n/a	-999	4	[0, 0, 0]	n/a	catFR1	1	R1459M
504.697	0.001	514109	PROB	0.001	n/a	n/a	n/a	-999	4	[2, 3, 6]	11	catFR1	1	R1459M
504.698	5.331	514110	START	n/a	n/a	n/a	n/a	-999	4	[-999, -999, -999]	n/a	catFR1	1	R1459M
510.029	6.034	519440	PROB	6.034	n/a	n/a	n/a	-999	4	[7, 6, 6]	19	catFR1	1	R1459M
516.063	3.868	525474	PROB	3.868	n/a	n/a	n/a	-999	4	[1, 6, 2]	9	catFR1	1	R1459M
519.931	6.615	529342	PROB	6.615	n/a	n/a	n/a	-999	4	[6, 8, 8]	22	catFR1	1	R1459M
526.546	0.0	535955	DISTRACT_END	n/a	n/a	n/a	n/a	-999	4	[0, 0, 0]	n/a	catFR1	1	R1459M
526.546	2.333	535957	STOP	n/a	n/a	n/a	n/a	-999	4	[-999, -999, -999]	n/a	catFR1	1	R1459M
528.879	1.189	538291	REC_START	n/a	n/a	n/a	n/a	-999	4	[0, 0, 0]	n/a	catFR1	1	R1459M
530.068	1.0	539479	REC_WORD_VV	1.0	n/a	<>	n/a	-999	4	[0, 0, 0]	n/a	catFR1	1	R1459M
531.068	0.881	540478	REC_WORD_VV	0.881	n/a	<>	n/a	-999	4	[0, 0, 0]	n/a	catFR1	1	R1459M
531.949	1.209	541359	REC_WORD	1.209	n/a	REFRIGERATOR	Appliances	3	4	[0, 0, 0]	n/a	catFR1	1	R1459M
533.158	2.47	542568	REC_WORD	2.47	n/a	TOASTER	Appliances	8	4	[0, 0, 0]	n/a	catFR1	1	R1459M
535.628	0.759	545038	REC_WORD	0.759	n/a	REFRIGERATOR	Appliances	3	4	[0, 0, 0]	n/a	catFR1	1	R1459M
536.387	3.634	545797	REC_WORD	3.634	n/a	TOASTER	Appliances	8	4	[0, 0, 0]	n/a	catFR1	1	R1459M
540.021	2.257	549431	REC_WORD_VV	2.257	n/a	<>	n/a	-999	4	[0, 0, 0]	n/a	catFR1	1	R1459M
542.278	0.51	551688	REC_WORD	0.51	n/a	RUM	Beverages	6	4	[0, 0, 0]	n/a	catFR1	1	R1459M
542.788	1.018	552198	REC_WORD	1.018	n/a	COLA	Beverages	12	4	[0, 0, 0]	n/a	catFR1	1	R1459M
543.806	0.825	553216	REC_WORD	0.825	n/a	MIXER	Appliances	7	4	[0, 0, 0]	n/a	catFR1	1	R1459M
544.631	4.422	554041	REC_WORD	4.422	n/a	BEER	Beverages	5	4	[0, 0, 0]	n/a	catFR1	1	R1459M
549.053	0.699	558463	REC_WORD	0.699	n/a	ARM	BodyParts	9	4	[0, 0, 0]	n/a	catFR1	1	R1459M
549.752	1.915	559162	REC_WORD	1.915	n/a	EYE	BodyParts	2	4	[0, 0, 0]	n/a	catFR1	1	R1459M
551.667	1.212	561077	REC_WORD	1.212	n/a	TOASTER	Appliances	8	4	[0, 0, 0]	n/a	catFR1	1	R1459M
552.879	1.165	562288	REC_WORD_VV	1.165	n/a	<>	n/a	-999	4	[0, 0, 0]	n/a	catFR1	1	R1459M
554.044	0.648	563453	REC_WORD	0.648	n/a	ARM	BodyParts	9	4	[0, 0, 0]	n/a	catFR1	1	R1459M
554.692	1.75	564101	REC_WORD	1.75	n/a	EYE	BodyParts	2	4	[0, 0, 0]	n/a	catFR1	1	R1459M
556.442	2.676	565851	REC_WORD	2.676	n/a	LEG	BodyParts	10	4	[0, 0, 0]	n/a	catFR1	1	R1459M
559.118	5.211	568525	REC_END	n/a	n/a	n/a	n/a	-999	4	[0, 0, 0]	n/a	catFR1	1	R1459M
564.329	10.351	573733	COUNTDOWN_START	n/a	n/a	n/a	n/a	-999	5	[0, 0, 0]	n/a	catFR1	1	R1459M
574.68	0.0	584080	COUNTDOWN_END	n/a	n/a	n/a	n/a	-999	5	[0, 0, 0]	n/a	catFR1	1	R1459M
574.68	1.816	584083	ENCODING_START	n/a	n/a	n/a	n/a	-999	5	[0, 0, 0]	n/a	catFR1	1	R1459M
576.496	1.6	585899	WORD	n/a	wordpools/wordpool_categorized_EN.txt	BLUEBIRD	Birds	1	5	[0, 0, 0]	n/a	catFR1	1	R1459M
578.096	0.834	587497	WORD_OFF	n/a	n/a	BLUEBIRD	Birds	1	5	[0, 0, 0]	n/a	catFR1	1	R1459M
578.93	1.6	588338	WORD	n/a	wordpools/wordpool_categorized_EN.txt	FINCH	Birds	2	5	[0, 0, 0]	n/a	catFR1	1	R1459M
580.53	0.866	589936	WORD_OFF	n/a	n/a	FINCH	Birds	2	5	[0, 0, 0]	n/a	catFR1	1	R1459M
581.396	1.617	590804	WORD	n/a	wordpools/wordpool_categorized_EN.txt	THUNDER	Weather	3	5	[0, 0, 0]	n/a	catFR1	1	R1459M
583.013	0.85	592416	WORD_OFF	n/a	n/a	THUNDER	Weather	3	5	[0, 0, 0]	n/a	catFR1	1	R1459M
583.863	1.617	593270	WORD	n/a	wordpools/wordpool_categorized_EN.txt	DRIZZLE	Weather	4	5	[0, 0, 0]	n/a	catFR1	1	R1459M
585.48	0.9	594882	WORD_OFF	n/a	n/a	DRIZZLE	Weather	4	5	[0, 0, 0]	n/a	catFR1	1	R1459M
586.38	1.616	595778	WORD	n/a	wordpools/wordpool_categorized_EN.txt	STOVE	Appliances	5	5	[0, 0, 0]	n/a	catFR1	1	R1459M
587.996	0.883	597403	WORD_OFF	n/a	n/a	STOVE	Appliances	5	5	[0, 0, 0]	n/a	catFR1	1	R1459M
588.879	1.601	598285	WORD	n/a	wordpools/wordpool_categorized_EN.txt	DRYER	Appliances	6	5	[0, 0, 0]	n/a	catFR1	1	R1459M
590.48	0.95	599883	WORD_OFF	n/a	n/a	DRYER	Appliances	6	5	[0, 0, 0]	n/a	catFR1	1	R1459M
591.43	1.6	600834	WORD	n/a	wordpools/wordpool_categorized_EN.txt	THUNDERSTORM	Weather	7	5	[0, 0, 0]	n/a	catFR1	1	R1459M
593.03	0.866	602432	WORD_OFF	n/a	n/a	THUNDERSTORM	Weather	7	5	[0, 0, 0]	n/a	catFR1	1	R1459M
593.896	1.6	603300	WORD	n/a	wordpools/wordpool_categorized_EN.txt	SNOW	Weather	8	5	[0, 0, 0]	n/a	catFR1	1	R1459M
595.496	0.817	604899	WORD_OFF	n/a	n/a	SNOW	Weather	8	5	[0, 0, 0]	n/a	catFR1	1	R1459M
596.313	1.617	605711	WORD	n/a	wordpools/wordpool_categorized_EN.txt	OVEN	Appliances	9	5	[0, 0, 0]	n/a	catFR1	1	R1459M
597.93	0.8	607337	WORD_OFF	n/a	n/a	OVEN	Appliances	9	5	[0, 0, 0]	n/a	catFR1	1	R1459M
598.73	1.6	608136	WORD	n/a	wordpools/wordpool_categorized_EN.txt	FREEZER	Appliances	10	5	[0, 0, 0]	n/a	catFR1	1	R1459M
600.33	0.816	609735	WORD_OFF	n/a	n/a	FREEZER	Appliances	10	5	[0, 0, 0]	n/a	catFR1	1	R1459M
601.146	1.617	610547	WORD	n/a	wordpools/wordpool_categorized_EN.txt	GOOSE	Birds	11	5	[0, 0, 0]	n/a	catFR1	1	R1459M
602.763	0.8	612173	WORD_OFF	n/a	n/a	GOOSE	Birds	11	5	[0, 0, 0]	n/a	catFR1	1	R1459M
603.563	1.6	612972	WORD	n/a	wordpools/wordpool_categorized_EN.txt	PIGEON	Birds	12	5	[0, 0, 0]	n/a	catFR1	1	R1459M
605.163	0.001	614571	WORD_OFF	n/a	n/a	PIGEON	Birds	12	5	[0, 0, 0]	n/a	catFR1	1	R1459M
605.164	0.0	614571	ENCODING_END	n/a	n/a	n/a	n/a	-999	5	[0, 0, 0]	n/a	catFR1	1	R1459M
605.164	0.0	614571	DISTRACT_START	n/a	n/a	n/a	n/a	-999	5	[0, 0, 0]	n/a	catFR1	1	R1459M
605.164	0.0	614571	START	n/a	n/a	n/a	n/a	-999	5	[-999, -999, -999]	n/a	catFR1	1	R1459M
605.164	12.532	614571	PROB	12.532	n/a	n/a	n/a	-999	5	[1, 2, 1]	4	catFR1	1	R1459M
617.696	3.334	627102	PROB	3.334	n/a	n/a	n/a	-999	5	[4, 7, 3]	14	catFR1	1	R1459M
621.03	9.332	630436	PROB	9.332	n/a	n/a	n/a	-999	5	[4, 4, 8]	16	catFR1	1	R1459M
630.362	0.0	639768	STOP	n/a	n/a	n/a	n/a	-999	5	[-999, -999, -999]	n/a	catFR1	1	R1459M
630.362	2.034	639770	DISTRACT_END	n/a	n/a	n/a	n/a	-999	5	[0, 0, 0]	n/a	catFR1	1	R1459M
632.396	3.409	641803	REC_START	n/a	n/a	n/a	n/a	-999	5	[0, 0, 0]	n/a	catFR1	1	R1459M
635.805	0.996	645211	REC_WORD	0.996	n/a	THUNDERSTORM	Weather	7	5	[0, 0, 0]	n/a	catFR1	1	R1459M
636.801	1.125	646207	REC_WORD_VV	1.125	n/a	<>	n/a	-999	5	[0, 0, 0]	n/a	catFR1	1	R1459M
637.926	3.288	647331	REC_WORD	3.288	n/a	DRIZZLE	Weather	4	5	[0, 0, 0]	n/a	catFR1	1	R1459M
641.214	6.975	650619	REC_WORD	6.975	n/a	FINCH	Birds	2	5	[0, 0, 0]	n/a	catFR1	1	R1459M
648.189	14.442	657594	REC_WORD	14.442	n/a	REFRIGERATOR	Appliances	-999	5	[0, 0, 0]	n/a	catFR1	1	R1459M
662.631	3.032	672038	REC_END	n/a	n/a	n/a	n/a	-999	5	[0, 0, 0]	n/a	catFR1	1	R1459M
665.663	10.352	675069	COUNTDOWN_START	n/a	n/a	n/a	n/a	-999	6	[0, 0, 0]	n/a	catFR1	1	R1459M
676.015	0.0	685416	COUNTDOWN_END	n/a	n/a	n/a	n/a	-999	6	[0, 0, 0]	n/a	catFR1	1	R1459M
676.015	2.048	685416	ENCODING_START	n/a	n/a	n/a	n/a	-999	6	[0, 0, 0]	n/a	catFR1	1	R1459M
678.063	1.6	687469	WORD	n/a	wordpools/wordpool_categorized_EN.txt	COBBLER	Desserts	1	6	[0, 0, 0]	n/a	catFR1	1	R1459M
679.663	0.767	689067	WORD_OFF	n/a	n/a	COBBLER	Desserts	1	6	[0, 0, 0]	n/a	catFR1	1	R1459M
680.43	1.616	689825	WORD	n/a	wordpools/wordpool_categorized_EN.txt	PASTRY	Desserts	2	6	[0, 0, 0]	n/a	catFR1	1	R1459M
682.046	0.767	691450	WORD_OFF	n/a	n/a	PASTRY	Desserts	2	6	[0, 0, 0]	n/a	catFR1	1	R1459M
682.813	1.6	692208	WORD	n/a	wordpools/wordpool_categorized_EN.txt	SPEAKER	Electronics	3	6	[0, 0, 0]	n/a	catFR1	1	R1459M
684.413	0.866	693806	WORD_OFF	n/a	n/a	SPEAKER	Electronics	3	6	[0, 0, 0]	n/a	catFR1	1	R1459M
685.279	1.601	694674	WORD	n/a	wordpools/wordpool_categorized_EN.txt	PRINTER	Electronics	4	6	[0, 0, 0]	n/a	catFR1	1	R1459M
686.88	0.883	696279	WORD_OFF	n/a	n/a	PRINTER	Electronics	4	6	[0, 0, 0]	n/a	catFR1	1	R1459M
687.763	1.6	697168	WORD	n/a	wordpools/wordpool_categorized_EN.txt	CRAB	OceanAnimals	5	6	[0, 0, 0]	n/a	catFR1	1	R1459M
689.363	0.783	698766	WORD_OFF	n/a	n/a	CRAB	OceanAnimals	5	6	[0, 0, 0]	n/a	catFR1	1	R1459M
690.146	1.6	699552	WORD	n/a	wordpools/wordpool_categorized_EN.txt	JELLYFISH	OceanAnimals	6	6	[0, 0, 0]	n/a	catFR1	1	R1459M
691.746	0.984	701150	WORD_OFF	n/a	n/a	JELLYFISH	OceanAnimals	6	6	[0, 0, 0]	n/a	catFR1	1	R1459M
692.73	1.616	702128	WORD	n/a	wordpools/wordpool_categorized_EN.txt	STEREO	Electronics	7	6	[0, 0, 0]	n/a	catFR1	1	R1459M
694.346	0.934	703740	WORD_OFF	n/a	n/a	STEREO	Electronics	7	6	[0, 0, 0]	n/a	catFR1	1	R1459M
695.28	1.616	704677	WORD	n/a	wordpools/wordpool_categorized_EN.txt	SCANNER	Electronics	8	6	[0, 0, 0]	n/a	catFR1	1	R1459M
696.896	0.967	706289	WORD_OFF	n/a	n/a	SCANNER	Electronics	8	6	[0, 0, 0]	n/a	catFR1	1	R1459M
697.863	1.617	707267	WORD	n/a	wordpools/wordpool_categorized_EN.txt	PUDDING	Desserts	9	6	[0, 0, 0]	n/a	catFR1	1	R1459M
699.48	0.933	708879	WORD_OFF	n/a	n/a	PUDDING	Desserts	9	6	[0, 0, 0]	n/a	catFR1	1	R1459M
700.413	1.601	709816	WORD	n/a	wordpools/wordpool_categorized_EN.txt	JELLO	Desserts	10	6	[0, 0, 0]	n/a	catFR1	1	R1459M
702.014	0.832	711414	WORD_OFF	n/a	n/a	JELLO	Desserts	10	6	[0, 0, 0]	n/a	catFR1	1	R1459M
702.846	1.617	712241	WORD	n/a	wordpools/wordpool_categorized_EN.txt	SHRIMP	OceanAnimals	11	6	[0, 0, 0]	n/a	catFR1	1	R1459M
704.463	0.95	713867	WORD_OFF	n/a	n/a	SHRIMP	OceanAnimals	11	6	[0, 0, 0]	n/a	catFR1	1	R1459M
705.413	1.6	714818	WORD	n/a	wordpools/wordpool_categorized_EN.txt	SQUID	OceanAnimals	12	6	[0, 0, 0]	n/a	catFR1	1	R1459M
707.013	0.001	716415	PROB	0.001	n/a	n/a	n/a	-999	6	[6, 2, 5]	13	catFR1	1	R1459M
707.014	0.002	716416	WORD_OFF	n/a	n/a	SQUID	OceanAnimals	12	6	[0, 0, 0]	n/a	catFR1	1	R1459M
707.016	0.0	716416	ENCODING_END	n/a	n/a	n/a	n/a	-999	6	[0, 0, 0]	n/a	catFR1	1	R1459M
707.016	0.0	716416	DISTRACT_START	n/a	n/a	n/a	n/a	-999	6	[0, 0, 0]	n/a	catFR1	1	R1459M
707.016	15.648	716418	START	n/a	n/a	n/a	n/a	-999	6	[-999, -999, -999]	n/a	catFR1	1	R1459M
722.664	4.266	732065	PROB	4.266	n/a	n/a	n/a	-999	6	[3, 8, 7]	18	catFR1	1	R1459M
726.93	2.316	736331	PROB	2.316	n/a	n/a	n/a	-999	6	[2, 3, 7]	12	catFR1	1	R1459M
729.246	0.0	738639	DISTRACT_END	n/a	n/a	n/a	n/a	-999	6	[0, 0, 0]	n/a	catFR1	1	R1459M
729.246	2.4	738647	STOP	n/a	n/a	n/a	n/a	-999	6	[-999, -999, -999]	n/a	catFR1	1	R1459M
731.646	1.615	741045	REC_START	n/a	n/a	n/a	n/a	-999	6	[0, 0, 0]	n/a	catFR1	1	R1459M
733.261	0.5	742662	REC_WORD	0.5	n/a	CRAB	OceanAnimals	5	6	[0, 0, 0]	n/a	catFR1	1	R1459M
733.761	1.0	743162	REC_WORD	1.0	n/a	JELLYFISH	OceanAnimals	6	6	[0, 0, 0]	n/a	catFR1	1	R1459M
734.761	1.492	744162	REC_WORD_VV	1.492	n/a	<>	n/a	-999	6	[0, 0, 0]	n/a	catFR1	1	R1459M
736.253	2.697	745654	REC_WORD	2.697	n/a	SQUID	OceanAnimals	12	6	[0, 0, 0]	n/a	catFR1	1	R1459M
738.95	0.877	748351	REC_WORD	0.877	n/a	PASTRY	Desserts	2	6	[0, 0, 0]	n/a	catFR1	1	R1459M
739.827	2.985	749228	REC_WORD	2.985	n/a	COBBLER	Desserts	1	6	[0, 0, 0]	n/a	catFR1	1	R1459M
742.812	2.799	752213	REC_WORD	2.799	n/a	STOVE	Appliances	-999	6	[0, 0, 0]	n/a	catFR1	1	R1459M
745.611	6.388	755011	REC_WORD	6.388	n/a	SPEAKER	Electronics	3	6	[0, 0, 0]	n/a	catFR1	1	R1459M
751.999	0.788	761399	REC_WORD	0.788	n/a	STOVE	Appliances	-999	6	[0, 0, 0]	n/a	catFR1	1	R1459M
752.787	9.096	762187	REC_WORD	9.096	n/a	SPEAKER	Electronics	3	6	[0, 0, 0]	n/a	catFR1	1	R1459M
761.883	6.813	771279	REC_END	n/a	n/a	n/a	n/a	-999	6	[0, 0, 0]	n/a	catFR1	1	R1459M
768.696	10.351	778099	COUNTDOWN_START	n/a	n/a	n/a	n/a	-999	7	[0, 0, 0]	n/a	catFR1	1	R1459M
779.047	0.0	788446	COUNTDOWN_END	n/a	n/a	n/a	n/a	-999	7	[0, 0, 0]	n/a	catFR1	1	R1459M
779.047	1.915	788446	ENCODING_START	n/a	n/a	n/a	n/a	-999	7	[0, 0, 0]	n/a	catFR1	1	R1459M
780.962	1.601	790361	WORD	n/a	wordpools/wordpool_categorized_EN.txt	HORSE	FarmAnimals	1	7	[0, 0, 0]	n/a	catFR1	1	R1459M
782.563	0.767	791959	WORD_OFF	n/a	n/a	HORSE	FarmAnimals	1	7	[0, 0, 0]	n/a	catFR1	1	R1459M
783.33	1.616	792731	WORD	n/a	wordpools/wordpool_categorized_EN.txt	GOAT	FarmAnimals	2	7	[0, 0, 0]	n/a	catFR1	1	R1459M
784.946	0.816	794343	WORD_OFF	n/a	n/a	GOAT	FarmAnimals	2	7	[0, 0, 0]	n/a	catFR1	1	R1459M
785.762	1.601	795156	WORD	n/a	wordpools/wordpool_categorized_EN.txt	PETUNIA	Flowers	3	7	[0, 0, 0]	n/a	catFR1	1	R1459M
787.363	0.95	796754	WORD_OFF	n/a	n/a	PETUNIA	Flowers	3	7	[0, 0, 0]	n/a	catFR1	1	R1459M
788.313	1.616	797705	WORD	n/a	wordpools/wordpool_categorized_EN.txt	ORCHID	Flowers	4	7	[0, 0, 0]	n/a	catFR1	1	R1459M
789.929	0.884	799330	WORD_OFF	n/a	n/a	ORCHID	Flowers	4	7	[0, 0, 0]	n/a	catFR1	1	R1459M
790.813	1.6	800212	WORD	n/a	wordpools/wordpool_categorized_EN.txt	FUDGE	Desserts	5	7	[0, 0, 0]	n/a	catFR1	1	R1459M
792.413	0.783	801810	WORD_OFF	n/a	n/a	FUDGE	Desserts	5	7	[0, 0, 0]	n/a	catFR1	1	R1459M
793.196	1.617	802596	WORD	n/a	wordpools/wordpool_categorized_EN.txt	MOUSSE	Desserts	6	7	[0, 0, 0]	n/a	catFR1	1	R1459M
794.813	0.917	804208	WORD_OFF	n/a	n/a	MOUSSE	Desserts	6	7	[0, 0, 0]	n/a	catFR1	1	R1459M
795.73	1.6	805131	WORD	n/a	wordpools/wordpool_categorized_EN.txt	ROSE	Flowers	7	7	[0, 0, 0]	n/a	catFR1	1	R1459M
797.33	0.933	806729	WORD_OFF	n/a	n/a	ROSE	Flowers	7	7	[0, 0, 0]	n/a	catFR1	1	R1459M
798.263	1.6	807652	WORD	n/a	wordpools/wordpool_categorized_EN.txt	CARNATION	Flowers	8	7	[0, 0, 0]	n/a	catFR1	1	R1459M
799.863	0.833	809264	WORD_OFF	n/a	n/a	CARNATION	Flowers	8	7	[0, 0, 0]	n/a	catFR1	1	R1459M
800.696	1.6	810091	WORD	n/a	wordpools/wordpool_categorized_EN.txt	LAMB	FarmAnimals	9	7	[0, 0, 0]	n/a	catFR1	1	R1459M
802.296	0.984	811689	WORD_OFF	n/a	n/a	LAMB	FarmAnimals	9	7	[0, 0, 0]	n/a	catFR1	1	R1459M
803.28	1.6	812667	WORD	n/a	wordpools/wordpool_categorized_EN.txt	COW	FarmAnimals	10	7	[0, 0, 0]	n/a	catFR1	1	R1459M
804.88	0.816	814279	WORD_OFF	n/a	n/a	COW	FarmAnimals	10	7	[0, 0, 0]	n/a	catFR1	1	R1459M
805.696	1.616	815092	WORD	n/a	wordpools/wordpool_categorized_EN.txt	BROWNIES	Desserts	11	7	[0, 0, 0]	n/a	catFR1	1	R1459M
807.312	0.768	816704	WORD_OFF	n/a	n/a	BROWNIES	Desserts	11	7	[0, 0, 0]	n/a	catFR1	1	R1459M
808.08	1.616	817476	WORD	n/a	wordpools/wordpool_categorized_EN.txt	CUPCAKE	Desserts	12	7	[0, 0, 0]	n/a	catFR1	1	R1459M
809.696	0.002	819088	WORD_OFF	n/a	n/a	CUPCAKE	Desserts	12	7	[0, 0, 0]	n/a	catFR1	1	R1459M
809.698	0.0	819088	ENCODING_END	n/a	n/a	n/a	n/a	-999	7	[0, 0, 0]	n/a	catFR1	1	R1459M
809.698	0.0	819088	DISTRACT_START	n/a	n/a	n/a	n/a	-999	7	[0, 0, 0]	n/a	catFR1	1	R1459M
809.697	0.001	819094	PROB	0.001	n/a	n/a	n/a	-999	7	[8, 3, 5]	16	catFR1	1	R1459M
809.698	12.065	819095	START	n/a	n/a	n/a	n/a	-999	7	[-999, -999, -999]	n/a	catFR1	1	R1459M
821.763	3.4	831160	PROB	3.4	n/a	n/a	n/a	-999	7	[3, 4, 6]	13	catFR1	1	R1459M
825.163	6.2	834560	PROB	6.2	n/a	n/a	n/a	-999	7	[8, 6, 3]	17	catFR1	1	R1459M
831.363	0.0	840759	STOP	n/a	n/a	n/a	n/a	-999	7	[-999, -999, -999]	n/a	catFR1	1	R1459M
831.363	2.25	840760	DISTRACT_END	n/a	n/a	n/a	n/a	-999	7	[0, 0, 0]	n/a	catFR1	1	R1459M
833.613	2.46	843000	REC_START	n/a	n/a	n/a	n/a	-999	7	[0, 0, 0]	n/a	catFR1	1	R1459M
836.073	0.506	845469	REC_WORD	0.506	n/a	ROSE	Flowers	7	7	[0, 0, 0]	n/a	catFR1	1	R1459M
836.579	0.903	845975	REC_WORD	0.903	n/a	PETUNIA	Flowers	3	7	[0, 0, 0]	n/a	catFR1	1	R1459M
837.482	0.361	846878	REC_WORD	0.361	n/a	FUDGE	Desserts	5	7	[0, 0, 0]	n/a	catFR1	1	R1459M
837.843	0.598	847239	REC_WORD	0.598	n/a	BROWNIES	Desserts	11	7	[0, 0, 0]	n/a	catFR1	1	R1459M
838.441	0.746	847837	REC_WORD	0.746	n/a	MOUSSE	Desserts	6	7	[0, 0, 0]	n/a	catFR1	1	R1459M
839.187	0.824	848583	REC_WORD	0.824	n/a	HORSE	FarmAnimals	1	7	[0, 0, 0]	n/a	catFR1	1	R1459M
840.011	8.588	849407	REC_WORD	8.588	n/a	GOAT	FarmAnimals	2	7	[0, 0, 0]	n/a	catFR1	1	R1459M
848.599	3.729	857995	REC_WORD_VV	3.729	n/a	<>	n/a	-999	7	[0, 0, 0]	n/a	catFR1	1	R1459M
852.328	0.734	861723	REC_WORD_VV	0.734	n/a	<>	n/a	-999	7	[0, 0, 0]	n/a	catFR1	1	R1459M
853.062	10.81	862457	REC_WORD_VV	10.81	n/a	<>	n/a	-999	7	[0, 0, 0]	n/a	catFR1	1	R1459M
863.872	5.774	873262	REC_END	n/a	n/a	n/a	n/a	-999	7	[0, 0, 0]	n/a	catFR1	1	R1459M
869.646	10.351	879035	COUNTDOWN_START	n/a	n/a	n/a	n/a	-999	8	[0, 0, 0]	n/a	catFR1	1	R1459M
879.997	0.0	889382	COUNTDOWN_END	n/a	n/a	n/a	n/a	-999	8	[0, 0, 0]	n/a	catFR1	1	R1459M
879.997	2.099	889396	ENCODING_START	n/a	n/a	n/a	n/a	-999	8	[0, 0, 0]	n/a	catFR1	1	R1459M
882.096	1.617	891490	WORD	n/a	wordpools/wordpool_categorized_EN.txt	HICKORY	Trees	1	8	[0, 0, 0]	n/a	catFR1	1	R1459M
883.713	0.817	893102	WORD_OFF	n/a	n/a	HICKORY	Trees	1	8	[0, 0, 0]	n/a	catFR1	1	R1459M
884.53	1.616	893915	WORD	n/a	wordpools/wordpool_categorized_EN.txt	ELM	Trees	2	8	[0, 0, 0]	n/a	catFR1	1	R1459M
886.146	0.984	895541	WORD_OFF	n/a	n/a	ELM	Trees	2	8	[0, 0, 0]	n/a	catFR1	1	R1459M
887.13	1.6	896519	WORD	n/a	wordpools/wordpool_categorized_EN.txt	VALLEY	Landscapes	3	8	[0, 0, 0]	n/a	catFR1	1	R1459M
888.73	0.9	898117	WORD_OFF	n/a	n/a	VALLEY	Landscapes	3	8	[0, 0, 0]	n/a	catFR1	1	R1459M
889.63	1.616	899026	WORD	n/a	wordpools/wordpool_categorized_EN.txt	FOREST	Landscapes	4	8	[0, 0, 0]	n/a	catFR1	1	R1459M
891.246	0.884	900638	WORD_OFF	n/a	n/a	FOREST	Landscapes	4	8	[0, 0, 0]	n/a	catFR1	1	R1459M
892.13	1.6	901520	WORD	n/a	wordpools/wordpool_categorized_EN.txt	TELEVISION	Electronics	5	8	[0, 0, 0]	n/a	catFR1	1	R1459M
893.73	0.799	903118	WORD_OFF	n/a	n/a	TELEVISION	Electronics	5	8	[0, 0, 0]	n/a	catFR1	1	R1459M
894.529	1.601	903917	WORD	n/a	wordpools/wordpool_categorized_EN.txt	CALCULATOR	Electronics	6	8	[0, 0, 0]	n/a	catFR1	1	R1459M
896.13	0.965	905516	WORD_OFF	n/a	n/a	CALCULATOR	Electronics	6	8	[0, 0, 0]	n/a	catFR1	1	R1459M
897.095	1.601	906480	WORD	n/a	wordpools/wordpool_categorized_EN.txt	CEDAR	Trees	7	8	[0, 0, 0]	n/a	catFR1	1	R1459M
898.696	0.784	908092	WORD_OFF	n/a	n/a	CEDAR	Trees	7	8	[0, 0, 0]	n/a	catFR1	1	R1459M
899.48	1.6	908864	WORD	n/a	wordpools/wordpool_categorized_EN.txt	PINE	Trees	8	8	[0, 0, 0]	n/a	catFR1	1	R1459M
901.08	1.0	910476	WORD_OFF	n/a	n/a	PINE	Trees	8	8	[0, 0, 0]	n/a	catFR1	1	R1459M
902.08	1.615	911468	WORD	n/a	wordpools/wordpool_categorized_EN.txt	COMPUTER	Electronics	9	8	[0, 0, 0]	n/a	catFR1	1	R1459M
903.695	0.784	913080	WORD_OFF	n/a	n/a	COMPUTER	Electronics	9	8	[0, 0, 0]	n/a	catFR1	1	R1459M
904.479	1.601	913865	WORD	n/a	wordpools/wordpool_categorized_EN.txt	TABLET	Electronics	10	8	[0, 0, 0]	n/a	catFR1	1	R1459M
906.08	0.816	915463	WORD_OFF	n/a	n/a	TABLET	Electronics	10	8	[0, 0, 0]	n/a	catFR1	1	R1459M
906.896	1.6	916290	WORD	n/a	wordpools/wordpool_categorized_EN.txt	OCEAN	Landscapes	11	8	[0, 0, 0]	n/a	catFR1	1	R1459M
908.496	0.984	917888	WORD_OFF	n/a	n/a	OCEAN	Landscapes	11	8	[0, 0, 0]	n/a	catFR1	1	R1459M
909.48	1.616	918866	WORD	n/a	wordpools/wordpool_categorized_EN.txt	RIVER	Landscapes	12	8	[0, 0, 0]	n/a	catFR1	1	R1459M
911.096	0.0	920478	WORD_OFF	n/a	n/a	RIVER	Landscapes	12	8	[0, 0, 0]	n/a	catFR1	1	R1459M
911.096	0.001	920489	PROB	0.001	n/a	n/a	n/a	-999	8	[8, 5, 1]	14	catFR1	1	R1459M
911.097	0.0	920490	START	n/a	n/a	n/a	n/a	-999	8	[-999, -999, -999]	n/a	catFR1	1	R1459M
911.097	0.0	920492	ENCODING_END	n/a	n/a	n/a	n/a	-999	8	[0, 0, 0]	n/a	catFR1	1	R1459M
911.097	7.65	920492	DISTRACT_START	n/a	n/a	n/a	n/a	-999	8	[0, 0, 0]	n/a	catFR1	1	R1459M
918.747	11.534	928139	PROB	11.534	n/a	n/a	n/a	-999	8	[7, 2, 2]	11	catFR1	1	R1459M
930.281	3.167	939673	PROB	3.167	n/a	n/a	n/a	-999	8	[1, 1, 6]	8	catFR1	1	R1459M
933.448	0.0	942840	DISTRACT_END	n/a	n/a	n/a	n/a	-999	8	[0, 0, 0]	n/a	catFR1	1	R1459M
933.448	2.315	942840	STOP	n/a	n/a	n/a	n/a	-999	8	[-999, -999, -999]	n/a	catFR1	1	R1459M
935.763	2.023	945148	REC_START	n/a	n/a	n/a	n/a	-999	8	[0, 0, 0]	n/a	catFR1	1	R1459M
937.786	0.836	947177	REC_WORD	0.836	n/a	HICKORY	Trees	1	8	[0, 0, 0]	n/a	catFR1	1	R1459M
938.622	2.99	948013	REC_WORD	2.99	n/a	ELM	Trees	2	8	[0, 0, 0]	n/a	catFR1	1	R1459M
941.612	3.038	951003	REC_WORD	3.038	n/a	FOREST	Landscapes	4	8	[0, 0, 0]	n/a	catFR1	1	R1459M
944.65	2.767	954041	REC_WORD_VV	2.767	n/a	<>	n/a	-999	8	[0, 0, 0]	n/a	catFR1	1	R1459M
947.417	1.0	956808	REC_WORD	1.0	n/a	TELEVISION	Electronics	5	8	[0, 0, 0]	n/a	catFR1	1	R1459M
948.417	1.497	957808	REC_WORD_VV	1.497	n/a	<>	n/a	-999	8	[0, 0, 0]	n/a	catFR1	1	R1459M
949.914	1.0	959305	REC_WORD	1.0	n/a	CALCULATOR	Electronics	6	8	[0, 0, 0]	n/a	catFR1	1	R1459M
950.914	5.787	960305	REC_WORD_VV	5.787	n/a	<>	n/a	-999	8	[0, 0, 0]	n/a	catFR1	1	R1459M
956.701	7.543	966092	REC_WORD_VV	7.543	n/a	<>	n/a	-999	8	[0, 0, 0]	n/a	catFR1	1	R1459M
964.244	1.776	973634	REC_WORD_VV	1.776	n/a	<>	n/a	-999	8	[0, 0, 0]	n/a	catFR1	1	R1459M
966.02	23.71	975410	REC_END	n/a	n/a	n/a	n/a	-999	8	[0, 0, 0]	n/a	catFR1	1	R1459M
989.73	10.35	999122	COUNTDOWN_START	n/a	n/a	n/a	n/a	-999	9	[0, 0, 0]	n/a	catFR1	1	R1459M
1000.08	0.001	1009469	COUNTDOWN_END	n/a	n/a	n/a	n/a	-999	9	[0, 0, 0]	n/a	catFR1	1	R1459M
1000.081	1.965	1009469	ENCODING_START	n/a	n/a	n/a	n/a	-999	9	[0, 0, 0]	n/a	catFR1	1	R1459M
1002.046	1.6	1011425	WORD	n/a	wordpools/wordpool_categorized_EN.txt	ORGAN	Instruments	1	9	[0, 0, 0]	n/a	catFR1	1	R1459M
1003.646	0.917	1013037	WORD_OFF	n/a	n/a	ORGAN	Instruments	1	9	[0, 0, 0]	n/a	catFR1	1	R1459M
1004.563	1.6	1013947	WORD	n/a	wordpools/wordpool_categorized_EN.txt	VIOLIN	Instruments	2	9	[0, 0, 0]	n/a	catFR1	1	R1459M
1006.163	0.867	1015545	WORD_OFF	n/a	n/a	VIOLIN	Instruments	2	9	[0, 0, 0]	n/a	catFR1	1	R1459M
1007.03	1.616	1016413	WORD	n/a	wordpools/wordpool_categorized_EN.txt	COAT	Clothing	3	9	[0, 0, 0]	n/a	catFR1	1	R1459M
1008.646	1.0	1018025	WORD_OFF	n/a	n/a	COAT	Clothing	3	9	[0, 0, 0]	n/a	catFR1	1	R1459M
1009.646	1.6	1019031	WORD	n/a	wordpools/wordpool_categorized_EN.txt	SOCKS	Clothing	4	9	[0, 0, 0]	n/a	catFR1	1	R1459M
1011.246	0.884	1020629	WORD_OFF	n/a	n/a	SOCKS	Clothing	4	9	[0, 0, 0]	n/a	catFR1	1	R1459M
1012.13	1.6	1021511	WORD	n/a	wordpools/wordpool_categorized_EN.txt	SPRUCE	Trees	5	9	[0, 0, 0]	n/a	catFR1	1	R1459M
1013.73	0.85	1023109	WORD_OFF	n/a	n/a	SPRUCE	Trees	5	9	[0, 0, 0]	n/a	catFR1	1	R1459M
1014.58	1.6	1023963	WORD	n/a	wordpools/wordpool_categorized_EN.txt	CYPRESS	Trees	6	9	[0, 0, 0]	n/a	catFR1	1	R1459M
1016.18	0.983	1025561	WORD_OFF	n/a	n/a	CYPRESS	Trees	6	9	[0, 0, 0]	n/a	catFR1	1	R1459M
1017.163	1.6	1026553	WORD	n/a	wordpools/wordpool_categorized_EN.txt	BLOUSE	Clothing	7	9	[0, 0, 0]	n/a	catFR1	1	R1459M
1018.763	0.817	1028151	WORD_OFF	n/a	n/a	BLOUSE	Clothing	7	9	[0, 0, 0]	n/a	catFR1	1	R1459M
1019.58	1.6	1028964	WORD	n/a	wordpools/wordpool_categorized_EN.txt	SHIRT	Clothing	8	9	[0, 0, 0]	n/a	catFR1	1	R1459M
1021.18	0.866	1030563	WORD_OFF	n/a	n/a	SHIRT	Clothing	8	9	[0, 0, 0]	n/a	catFR1	1	R1459M
1022.046	1.617	1031431	WORD	n/a	wordpools/wordpool_categorized_EN.txt	PIANO	Instruments	9	9	[0, 0, 0]	n/a	catFR1	1	R1459M
1023.663	0.883	1033043	WORD_OFF	n/a	n/a	PIANO	Instruments	9	9	[0, 0, 0]	n/a	catFR1	1	R1459M
1024.546	1.6	1033924	WORD	n/a	wordpools/wordpool_categorized_EN.txt	DRUM	Instruments	10	9	[0, 0, 0]	n/a	catFR1	1	R1459M
1026.146	1.0	1035536	WORD_OFF	n/a	n/a	DRUM	Instruments	10	9	[0, 0, 0]	n/a	catFR1	1	R1459M
1027.146	1.6	1036528	WORD	n/a	wordpools/wordpool_categorized_EN.txt	WALNUT	Trees	11	9	[0, 0, 0]	n/a	catFR1	1	R1459M
1028.746	0.784	1038127	WORD_OFF	n/a	n/a	WALNUT	Trees	11	9	[0, 0, 0]	n/a	catFR1	1	R1459M
1029.53	1.616	1038912	WORD	n/a	wordpools/wordpool_categorized_EN.txt	WILLOW	Trees	12	9	[0, 0, 0]	n/a	catFR1	1	R1459M
1031.146	0.001	1040524	WORD_OFF	n/a	n/a	WILLOW	Trees	12	9	[0, 0, 0]	n/a	catFR1	1	R1459M
1031.147	0.001	1040534	PROB	0.001	n/a	n/a	n/a	-999	9	[8, 4, 3]	15	catFR1	1	R1459M
1031.148	0.0	1040535	START	n/a	n/a	n/a	n/a	-999	9	[-999, -999, -999]	n/a	catFR1	1	R1459M
1031.148	0.0	1040538	ENCODING_END	n/a	n/a	n/a	n/a	-999	9	[0, 0, 0]	n/a	catFR1	1	R1459M
1031.148	6.332	1040538	DISTRACT_START	n/a	n/a	n/a	n/a	-999	9	[0, 0, 0]	n/a	catFR1	1	R1459M
1037.48	4.55	1046867	PROB	4.55	n/a	n/a	n/a	-999	9	[8, 5, 1]	14	catFR1	1	R1459M
1042.03	18.382	1051417	PROB	18.382	n/a	n/a	n/a	-999	9	[8, 3, 1]	12	catFR1	1	R1459M
1060.412	0.0	1069788	DISTRACT_END	n/a	n/a	n/a	n/a	-999	9	[0, 0, 0]	n/a	catFR1	1	R1459M
1060.412	2.133	1069798	STOP	n/a	n/a	n/a	n/a	-999	9	[-999, -999, -999]	n/a	catFR1	1	R1459M
1062.545	1.164	1071931	REC_START	n/a	n/a	n/a	n/a	-999	9	[0, 0, 0]	n/a	catFR1	1	R1459M
1063.709	0.433	1073095	REC_WORD	0.433	n/a	COAT	Clothing	3	9	[0, 0, 0]	n/a	catFR1	1	R1459M
1064.142	0.555	1073528	REC_WORD	0.555	n/a	BLOUSE	Clothing	7	9	[0, 0, 0]	n/a	catFR1	1	R1459M
1064.697	1.789	1074083	REC_WORD	1.789	n/a	SOCKS	Clothing	4	9	[0, 0, 0]	n/a	catFR1	1	R1459M
1066.486	12.639	1075871	REC_WORD	12.639	n/a	VIOLIN	Instruments	2	9	[0, 0, 0]	n/a	catFR1	1	R1459M
1079.125	1.0	1088510	REC_WORD	1.0	n/a	CYPRESS	Trees	6	9	[0, 0, 0]	n/a	catFR1	1	R1459M
1080.125	7.624	1089510	REC_WORD_VV	7.624	n/a	<>	n/a	-999	9	[0, 0, 0]	n/a	catFR1	1	R1459M
1087.749	1.0	1097134	REC_WORD_VV	1.0	n/a	<>	n/a	-999	9	[0, 0, 0]	n/a	catFR1	1	R1459M
1088.749	4.029	1098133	REC_WORD_VV	4.029	n/a	<>	n/a	-999	9	[0, 0, 0]	n/a	catFR1	1	R1459M
1092.778	8.585	1102152	REC_END	n/a	n/a	n/a	n/a	-999	9	[0, 0, 0]	n/a	catFR1	1	R1459M
1101.363	10.351	1110749	COUNTDOWN_START	n/a	n/a	n/a	n/a	-999	10	[0, 0, 0]	n/a	catFR1	1	R1459M
1111.714	0.0	1121096	COUNTDOWN_END	n/a	n/a	n/a	n/a	-999	10	[0, 0, 0]	n/a	catFR1	1	R1459M
1111.714	2.016	1121096	ENCODING_START	n/a	n/a	n/a	n/a	-999	10	[0, 0, 0]	n/a	catFR1	1	R1459M
1113.73	1.6	1123108	WORD	n/a	wordpools/wordpool_categorized_EN.txt	DOVE	Birds	1	10	[0, 0, 0]	n/a	catFR1	1	R1459M
1115.33	0.766	1124706	WORD_OFF	n/a	n/a	DOVE	Birds	1	10	[0, 0, 0]	n/a	catFR1	1	R1459M
1116.096	1.6	1125478	WORD	n/a	wordpools/wordpool_categorized_EN.txt	CARDINAL	Birds	2	10	[0, 0, 0]	n/a	catFR1	1	R1459M
1117.696	0.85	1127076	WORD_OFF	n/a	n/a	CARDINAL	Birds	2	10	[0, 0, 0]	n/a	catFR1	1	R1459M
1118.546	1.617	1127930	WORD	n/a	wordpools/wordpool_categorized_EN.txt	FLUTE	Instruments	3	10	[0, 0, 0]	n/a	catFR1	1	R1459M
1120.163	0.95	1129542	WORD_OFF	n/a	n/a	FLUTE	Instruments	3	10	[0, 0, 0]	n/a	catFR1	1	R1459M
1121.113	1.616	1130493	WORD	n/a	wordpools/wordpool_categorized_EN.txt	BANJO	Instruments	4	10	[0, 0, 0]	n/a	catFR1	1	R1459M
1122.729	0.934	1132105	WORD_OFF	n/a	n/a	BANJO	Instruments	4	10	[0, 0, 0]	n/a	catFR1	1	R1459M
1123.663	1.6	1133042	WORD	n/a	wordpools/wordpool_categorized_EN.txt	BIRCH	Trees	5	10	[0, 0, 0]	n/a	catFR1	1	R1459M
1125.263	0.766	1134640	WORD_OFF	n/a	n/a	BIRCH	Trees	5	10	[0, 0, 0]	n/a	catFR1	1	R1459M
1126.029	1.617	1135411	WORD	n/a	wordpools/wordpool_categorized_EN.txt	OAK	Trees	6	10	[0, 0, 0]	n/a	catFR1	1	R1459M
1127.646	0.816	1137023	WORD_OFF	n/a	n/a	OAK	Trees	6	10	[0, 0, 0]	n/a	catFR1	1	R1459M
1128.462	1.601	1137836	WORD	n/a	wordpools/wordpool_categorized_EN.txt	ROBIN	Birds	7	10	[0, 0, 0]	n/a	catFR1	1	R1459M
1130.063	0.917	1139448	WORD_OFF	n/a	n/a	ROBIN	Birds	7	10	[0, 0, 0]	n/a	catFR1	1	R1459M
1130.98	1.616	1140358	WORD	n/a	wordpools/wordpool_categorized_EN.txt	HAWK	Birds	8	10	[0, 0, 0]	n/a	catFR1	1	R1459M
1132.596	0.967	1141970	WORD_OFF	n/a	n/a	HAWK	Birds	8	10	[0, 0, 0]	n/a	catFR1	1	R1459M
1133.563	1.6	1142948	WORD	n/a	wordpools/wordpool_categorized_EN.txt	MAPLE	Trees	9	10	[0, 0, 0]	n/a	catFR1	1	R1459M
1135.163	0.933	1144546	WORD_OFF	n/a	n/a	MAPLE	Trees	9	10	[0, 0, 0]	n/a	catFR1	1	R1459M
1136.096	1.617	1145469	WORD	n/a	wordpools/wordpool_categorized_EN.txt	EVERGREEN	Trees	10	10	[0, 0, 0]	n/a	catFR1	1	R1459M
1137.713	0.883	1147095	WORD_OFF	n/a	n/a	EVERGREEN	Trees	10	10	[0, 0, 0]	n/a	catFR1	1	R1459M
1138.596	1.6	1147977	WORD	n/a	wordpools/wordpool_categorized_EN.txt	TRUMPET	Instruments	11	10	[0, 0, 0]	n/a	catFR1	1	R1459M
1140.196	0.767	1149575	WORD_OFF	n/a	n/a	TRUMPET	Instruments	11	10	[0, 0, 0]	n/a	catFR1	1	R1459M
1140.963	1.616	1150346	WORD	n/a	wordpools/wordpool_categorized_EN.txt	TROMBONE	Instruments	12	10	[0, 0, 0]	n/a	catFR1	1	R1459M
1142.579	0.002	1151958	WORD_OFF	n/a	n/a	TROMBONE	Instruments	12	10	[0, 0, 0]	n/a	catFR1	1	R1459M
1142.581	0.0	1151958	ENCODING_END	n/a	n/a	n/a	n/a	-999	10	[0, 0, 0]	n/a	catFR1	1	R1459M
1142.581	0.0	1151958	DISTRACT_START	n/a	n/a	n/a	n/a	-999	10	[0, 0, 0]	n/a	catFR1	1	R1459M
1142.58	0.001	1151962	PROB	0.001	n/a	n/a	n/a	-999	10	[7, 1, 6]	14	catFR1	1	R1459M
1142.581	24.165	1151963	START	n/a	n/a	n/a	n/a	-999	10	[-999, -999, -999]	n/a	catFR1	1	R1459M
1166.746	0.0	1176125	DISTRACT_END	n/a	n/a	n/a	n/a	-999	10	[0, 0, 0]	n/a	catFR1	1	R1459M
1166.746	2.151	1176127	STOP	n/a	n/a	n/a	n/a	-999	10	[-999, -999, -999]	n/a	catFR1	1	R1459M
1168.897	2.354	1178268	REC_START	n/a	n/a	n/a	n/a	-999	10	[0, 0, 0]	n/a	catFR1	1	R1459M
1171.251	0.617	1180632	REC_WORD	0.617	n/a	BANJO	Instruments	4	10	[0, 0, 0]	n/a	catFR1	1	R1459M
1171.868	1.0	1181249	REC_WORD	1.0	n/a	TROMBONE	Instruments	12	10	[0, 0, 0]	n/a	catFR1	1	R1459M
1172.868	0.225	1182249	REC_WORD_VV	0.225	n/a	<>	n/a	-999	10	[0, 0, 0]	n/a	catFR1	1	R1459M
1173.093	0.646	1182474	REC_WORD	0.646	n/a	FLUTE	Instruments	3	10	[0, 0, 0]	n/a	catFR1	1	R1459M
1173.739	4.658	1183119	REC_WORD	4.658	n/a	CARDINAL	Birds	2	10	[0, 0, 0]	n/a	catFR1	1	R1459M
1178.397	14.372	1187777	REC_WORD_VV	14.372	n/a	<>	n/a	-999	10	[0, 0, 0]	n/a	catFR1	1	R1459M
1192.769	4.525	1202149	REC_WORD	4.525	n/a	EVERGREEN	Trees	10	10	[0, 0, 0]	n/a	catFR1	1	R1459M
1197.294	1.844	1206673	REC_WORD_VV	1.844	n/a	<>	n/a	-999	10	[0, 0, 0]	n/a	catFR1	1	R1459M
1199.138	0.0	1208516	REC_END	n/a	n/a	n/a	n/a	-999	10	[0, 0, 0]	n/a	catFR1	1	R1459M
