onset	duration	sample	trial_type	response_time	stim_file	item_name	category	serialpos	list	test	answer	experiment	session	subject
0.0	257.0	40	INSTRUCT_START	n/a	n/a	n/a	n/a	-999	-999	[0, 0, 0]	n/a	catFR1	0	R1406M
257.0	11.687	257385	INSTRUCT_END	n/a	n/a	n/a	n/a	-999	-999	[0, 0, 0]	n/a	catFR1	0	R1406M
268.687	10.0	269079	COUNTDOWN_START	n/a	n/a	n/a	n/a	-999	-999	[0, 0, 0]	n/a	catFR1	0	R1406M
279.116	1.088	279476	COUNTDOWN_END	n/a	n/a	n/a	n/a	-999	-999	[0, 0, 0]	n/a	catFR1	0	R1406M
280.204	0.753	280564	ENCODING_START	n/a	n/a	n/a	n/a	-999	-1	[0, 0, 0]	n/a	catFR1	0	R1406M
280.957	1.6	281327	WORD	n/a	n/a	HOUR	n/a	1	-1	[0, 0, 0]	n/a	catFR1	0	R1406M
282.588	0.871	282948	WORD_OFF	n/a	n/a	HOUR	n/a	1	-1	[0, 0, 0]	n/a	catFR1	0	R1406M
283.459	1.6	283826	WORD	n/a	n/a	LEATHER	n/a	2	-1	[0, 0, 0]	n/a	catFR1	0	R1406M
285.087	1.068	285447	WORD_OFF	n/a	n/a	LEATHER	n/a	2	-1	[0, 0, 0]	n/a	catFR1	0	R1406M
286.155	1.6	286535	WORD	n/a	n/a	SECOND	n/a	3	-1	[0, 0, 0]	n/a	catFR1	0	R1406M
287.789	1.07	288137	WORD_OFF	n/a	n/a	SECOND	n/a	3	-1	[0, 0, 0]	n/a	catFR1	0	R1406M
288.859	1.6	289224	WORD	n/a	n/a	FARMER	n/a	4	-1	[0, 0, 0]	n/a	catFR1	0	R1406M
290.49	1.046	290846	WORD_OFF	n/a	n/a	FARMER	n/a	4	-1	[0, 0, 0]	n/a	catFR1	0	R1406M
291.536	1.6	291895	WORD	n/a	n/a	SILK	n/a	5	-1	[0, 0, 0]	n/a	catFR1	0	R1406M
293.156	1.085	293517	WORD_OFF	n/a	n/a	SILK	n/a	5	-1	[0, 0, 0]	n/a	catFR1	0	R1406M
294.241	1.6	294604	WORD	n/a	n/a	DENIM	n/a	6	-1	[0, 0, 0]	n/a	catFR1	0	R1406M
295.874	0.872	296226	WORD_OFF	n/a	n/a	DENIM	n/a	6	-1	[0, 0, 0]	n/a	catFR1	0	R1406M
296.746	1.6	297103	WORD	n/a	n/a	DAY	n/a	7	-1	[0, 0, 0]	n/a	catFR1	0	R1406M
298.374	1.055	298725	WORD_OFF	n/a	n/a	DAY	n/a	7	-1	[0, 0, 0]	n/a	catFR1	0	R1406M
299.429	1.6	299793	WORD	n/a	n/a	FIREMAN	n/a	8	-1	[0, 0, 0]	n/a	catFR1	0	R1406M
301.057	1.101	301415	WORD_OFF	n/a	n/a	FIREMAN	n/a	8	-1	[0, 0, 0]	n/a	catFR1	0	R1406M
302.158	1.6	302521	WORD	n/a	n/a	MINUTE	n/a	9	-1	[0, 0, 0]	n/a	catFR1	0	R1406M
303.792	0.908	304143	WORD_OFF	n/a	n/a	MINUTE	n/a	9	-1	[0, 0, 0]	n/a	catFR1	0	R1406M
304.7	1.6	305058	WORD	n/a	n/a	WOOL	n/a	10	-1	[0, 0, 0]	n/a	catFR1	0	R1406M
306.326	1.029	306680	WORD_OFF	n/a	n/a	WOOL	n/a	10	-1	[0, 0, 0]	n/a	catFR1	0	R1406M
307.355	1.6	307729	WORD	n/a	n/a	PLUMBER	n/a	11	-1	[0, 0, 0]	n/a	catFR1	0	R1406M
308.992	0.938	309351	WORD_OFF	n/a	n/a	PLUMBER	n/a	11	-1	[0, 0, 0]	n/a	catFR1	0	R1406M
309.93	1.6	310304	WORD	n/a	n/a	TEACHER	n/a	12	-1	[0, 0, 0]	n/a	catFR1	0	R1406M
311.561	0.0	311922	START	n/a	n/a	n/a	n/a	-999	-1	[-999, -999, -999]	n/a	catFR1	0	R1406M
311.56	0.001	311926	WORD_OFF	n/a	n/a	TEACHER	n/a	12	-1	[0, 0, 0]	n/a	catFR1	0	R1406M
311.561	0.0	311926	ENCODING_END	n/a	n/a	n/a	n/a	-999	-1	[0, 0, 0]	n/a	catFR1	0	R1406M
311.561	0.016	311926	DISTRACT_START	n/a	n/a	n/a	n/a	-999	-1	[0, 0, 0]	n/a	catFR1	0	R1406M
311.577	11.935	311938	PROB	11.903	n/a	n/a	n/a	-999	-1	[6, 9, 7]	22.0	catFR1	0	R1406M
323.512	4.901	323872	PROB	4.864	n/a	n/a	n/a	-999	-1	[4, 9, 4]	17.0	catFR1	0	R1406M
328.413	10.618	328773	PROB	10.607	n/a	n/a	n/a	-999	-1	[5, 3, 2]	10.0	catFR1	0	R1406M
339.031	0.0	339378	DISTRACT_END	n/a	n/a	n/a	n/a	-999	-1	[0, 0, 0]	n/a	catFR1	0	R1406M
339.02	2.229	339380	STOP	n/a	n/a	n/a	n/a	-999	-1	[-999, -999, -999]	n/a	catFR1	0	R1406M
341.249	1.664	341610	REC_START	n/a	n/a	n/a	n/a	-999	-1	[0, 0, 0]	n/a	catFR1	0	R1406M
342.913	0.609	343272	REC_WORD_VV	1.664	n/a	<>	n/a	-999	-1	[0, 0, 0]	n/a	catFR1	0	R1406M
343.522	0.387	343881	REC_WORD	2.273	n/a	MINUTE	n/a	9	-1	[0, 0, 0]	n/a	catFR1	0	R1406M
343.909	2.103	344268	REC_WORD	2.66	n/a	SECOND	n/a	3	-1	[0, 0, 0]	n/a	catFR1	0	R1406M
346.012	3.517	346371	REC_WORD	4.763	n/a	FIREMAN	n/a	8	-1	[0, 0, 0]	n/a	catFR1	0	R1406M
349.529	12.787	349888	REC_WORD_VV	8.28	n/a	<>	n/a	-999	-1	[0, 0, 0]	n/a	catFR1	0	R1406M
362.316	8.946	362674	REC_WORD	21.067	n/a	DENIM	n/a	6	-1	[0, 0, 0]	n/a	catFR1	0	R1406M
371.262	13.196	371637	REC_END	n/a	n/a	n/a	n/a	-999	-1	[0, 0, 0]	n/a	catFR1	0	R1406M
384.458	10.0	384838	COUNTDOWN_START	n/a	n/a	n/a	n/a	-999	1	[0, 0, 0]	n/a	catFR1	0	R1406M
394.887	1.223	395235	COUNTDOWN_END	n/a	n/a	n/a	n/a	-999	1	[0, 0, 0]	n/a	catFR1	0	R1406M
396.11	0.938	396456	ENCODING_START	n/a	n/a	n/a	n/a	-999	1	[0, 0, 0]	n/a	catFR1	0	R1406M
397.048	1.6	397410	WORD	n/a	wordpools/wordpool_categorized_EN.txt	ROOF	Building	1	1	[0, 0, 0]	n/a	catFR1	0	R1406M
398.677	0.823	399031	WORD_OFF	n/a	n/a	ROOF	Building	1	1	[0, 0, 0]	n/a	catFR1	0	R1406M
399.5	1.6	399851	WORD	n/a	wordpools/wordpool_categorized_EN.txt	HALLWAY	Building	2	1	[0, 0, 0]	n/a	catFR1	0	R1406M
401.126	1.037	401473	WORD_OFF	n/a	n/a	HALLWAY	Building	2	1	[0, 0, 0]	n/a	catFR1	0	R1406M
402.163	1.6	402522	WORD	n/a	wordpools/wordpool_categorized_EN.txt	DAFFODIL	Flowers	3	1	[0, 0, 0]	n/a	catFR1	0	R1406M
403.795	0.876	404144	WORD_OFF	n/a	n/a	DAFFODIL	Flowers	3	1	[0, 0, 0]	n/a	catFR1	0	R1406M
404.671	1.6	405021	WORD	n/a	wordpools/wordpool_categorized_EN.txt	ORCHID	Flowers	4	1	[0, 0, 0]	n/a	catFR1	0	R1406M
406.295	1.132	406643	WORD_OFF	n/a	n/a	ORCHID	Flowers	4	1	[0, 0, 0]	n/a	catFR1	0	R1406M
407.427	1.6	407787	WORD	n/a	wordpools/wordpool_categorized_EN.txt	ELM	Trees	5	1	[0, 0, 0]	n/a	catFR1	0	R1406M
409.061	0.897	409409	WORD_OFF	n/a	n/a	ELM	Trees	5	1	[0, 0, 0]	n/a	catFR1	0	R1406M
409.958	1.6	410325	WORD	n/a	wordpools/wordpool_categorized_EN.txt	EVERGREEN	Trees	6	1	[0, 0, 0]	n/a	catFR1	0	R1406M
411.596	1.093	411946	WORD_OFF	n/a	n/a	EVERGREEN	Trees	6	1	[0, 0, 0]	n/a	catFR1	0	R1406M
412.689	1.6	413053	WORD	n/a	wordpools/wordpool_categorized_EN.txt	ROOM	Building	7	1	[0, 0, 0]	n/a	catFR1	0	R1406M
414.313	0.904	414655	WORD_OFF	n/a	n/a	ROOM	Building	7	1	[0, 0, 0]	n/a	catFR1	0	R1406M
415.217	1.6	415571	WORD	n/a	wordpools/wordpool_categorized_EN.txt	ATTIC	Building	8	1	[0, 0, 0]	n/a	catFR1	0	R1406M
416.847	1.101	417192	WORD_OFF	n/a	n/a	ATTIC	Building	8	1	[0, 0, 0]	n/a	catFR1	0	R1406M
417.948	1.6	418318	WORD	n/a	wordpools/wordpool_categorized_EN.txt	TULIP	Flowers	9	1	[0, 0, 0]	n/a	catFR1	0	R1406M
419.581	1.102	419929	WORD_OFF	n/a	n/a	TULIP	Flowers	9	1	[0, 0, 0]	n/a	catFR1	0	R1406M
420.683	1.6	421046	WORD	n/a	wordpools/wordpool_categorized_EN.txt	VIOLET	Flowers	10	1	[0, 0, 0]	n/a	catFR1	0	R1406M
422.315	1.127	422667	WORD_OFF	n/a	n/a	VIOLET	Flowers	10	1	[0, 0, 0]	n/a	catFR1	0	R1406M
423.442	1.6	423793	WORD	n/a	wordpools/wordpool_categorized_EN.txt	CYPRESS	Trees	11	1	[0, 0, 0]	n/a	catFR1	0	R1406M
425.064	1.145	425414	WORD_OFF	n/a	n/a	CYPRESS	Trees	11	1	[0, 0, 0]	n/a	catFR1	0	R1406M
426.209	1.6	426559	WORD	n/a	wordpools/wordpool_categorized_EN.txt	CEDAR	Trees	12	1	[0, 0, 0]	n/a	catFR1	0	R1406M
427.817	0.0	428172	START	n/a	n/a	n/a	n/a	-999	1	[-999, -999, -999]	n/a	catFR1	0	R1406M
427.816	0.0	428181	WORD_OFF	n/a	n/a	CEDAR	Trees	12	1	[0, 0, 0]	n/a	catFR1	0	R1406M
427.816	0.001	428181	ENCODING_END	n/a	n/a	n/a	n/a	-999	1	[0, 0, 0]	n/a	catFR1	0	R1406M
427.817	0.015	428181	DISTRACT_START	n/a	n/a	n/a	n/a	-999	1	[0, 0, 0]	n/a	catFR1	0	R1406M
427.832	3.851	428187	PROB	3.815	n/a	n/a	n/a	-999	1	[1, 5, 1]	7.0	catFR1	0	R1406M
431.683	5.584	432038	PROB	5.555	n/a	n/a	n/a	-999	1	[9, 6, 7]	22.0	catFR1	0	R1406M
437.267	7.868	437622	PROB	7.84	n/a	n/a	n/a	-999	1	[7, 9, 6]	22.0	catFR1	0	R1406M
445.135	5.618	445489	PROB	5.618	n/a	n/a	n/a	-999	1	[7, 9, 3]	19.0	catFR1	0	R1406M
450.753	0.017	451107	STOP	n/a	n/a	n/a	n/a	-999	1	[-999, -999, -999]	n/a	catFR1	0	R1406M
450.77	2.334	451111	DISTRACT_END	n/a	n/a	n/a	n/a	-999	1	[0, 0, 0]	n/a	catFR1	0	R1406M
453.104	1.018	453457	REC_START	n/a	n/a	n/a	n/a	-999	1	[0, 0, 0]	n/a	catFR1	0	R1406M
454.122	0.391	454476	REC_WORD_VV	1.018	n/a	<>	n/a	-999	1	[0, 0, 0]	n/a	catFR1	0	R1406M
454.513	0.646	454867	REC_WORD	1.409	n/a	ROOM	Building	7	1	[0, 0, 0]	n/a	catFR1	0	R1406M
455.159	1.453	455513	REC_WORD	2.055	n/a	ATTIC	Building	8	1	[0, 0, 0]	n/a	catFR1	0	R1406M
456.612	5.957	456965	REC_WORD	3.508	n/a	CYPRESS	Trees	11	1	[0, 0, 0]	n/a	catFR1	0	R1406M
462.569	1.322	462922	REC_WORD	9.465	n/a	VIOLET	Flowers	10	1	[0, 0, 0]	n/a	catFR1	0	R1406M
463.891	5.374	464244	REC_WORD	10.787	n/a	TULIP	Flowers	9	1	[0, 0, 0]	n/a	catFR1	0	R1406M
469.265	0.542	469618	REC_WORD_VV	16.161	n/a	<>	n/a	-999	1	[0, 0, 0]	n/a	catFR1	0	R1406M
469.807	0.451	470160	REC_WORD	16.703	n/a	ROSE	n/a	-999	1	[0, 0, 0]	n/a	catFR1	0	R1406M
470.258	0.798	470611	REC_WORD_VV	17.154	n/a	<>	n/a	-999	1	[0, 0, 0]	n/a	catFR1	0	R1406M
471.056	5.258	471409	REC_WORD_VV	17.952	n/a	<>	n/a	-999	1	[0, 0, 0]	n/a	catFR1	0	R1406M
476.314	6.803	476666	REC_WORD	23.21	n/a	HALLWAY	Building	2	1	[0, 0, 0]	n/a	catFR1	0	R1406M
483.117	11.878	483484	REC_END	n/a	n/a	n/a	n/a	-999	1	[0, 0, 0]	n/a	catFR1	0	R1406M
494.995	10.0	495369	COUNTDOWN_START	n/a	n/a	n/a	n/a	-999	2	[0, 0, 0]	n/a	catFR1	0	R1406M
505.423	1.225	505766	COUNTDOWN_END	n/a	n/a	n/a	n/a	-999	2	[0, 0, 0]	n/a	catFR1	0	R1406M
506.648	0.776	506987	ENCODING_START	n/a	n/a	n/a	n/a	-999	2	[0, 0, 0]	n/a	catFR1	0	R1406M
507.424	1.6	507788	WORD	n/a	wordpools/wordpool_categorized_EN.txt	UNDERWEAR	Clothing	1	2	[0, 0, 0]	n/a	catFR1	0	R1406M
509.064	0.808	509410	WORD_OFF	n/a	n/a	UNDERWEAR	Clothing	1	2	[0, 0, 0]	n/a	catFR1	0	R1406M
509.872	1.6	510230	WORD	n/a	wordpools/wordpool_categorized_EN.txt	SHORTS	Clothing	2	2	[0, 0, 0]	n/a	catFR1	0	R1406M
511.499	0.949	511833	WORD_OFF	n/a	n/a	SHORTS	Clothing	2	2	[0, 0, 0]	n/a	catFR1	0	R1406M
512.448	1.6	512806	WORD	n/a	wordpools/wordpool_categorized_EN.txt	ROOSTER	FarmAnimals	3	2	[0, 0, 0]	n/a	catFR1	0	R1406M
514.081	1.014	514427	WORD_OFF	n/a	n/a	ROOSTER	FarmAnimals	3	2	[0, 0, 0]	n/a	catFR1	0	R1406M
515.095	1.6	515457	WORD	n/a	wordpools/wordpool_categorized_EN.txt	COW	FarmAnimals	4	2	[0, 0, 0]	n/a	catFR1	0	R1406M
516.733	0.828	517079	WORD_OFF	n/a	n/a	COW	FarmAnimals	4	2	[0, 0, 0]	n/a	catFR1	0	R1406M
517.561	1.6	517918	WORD	n/a	wordpools/wordpool_categorized_EN.txt	CABBAGE	Vegetables	5	2	[0, 0, 0]	n/a	catFR1	0	R1406M
519.182	0.886	519521	WORD_OFF	n/a	n/a	CABBAGE	Vegetables	5	2	[0, 0, 0]	n/a	catFR1	0	R1406M
520.068	1.6	520417	WORD	n/a	wordpools/wordpool_categorized_EN.txt	SPINACH	Vegetables	6	2	[0, 0, 0]	n/a	catFR1	0	R1406M
521.701	0.997	522039	WORD_OFF	n/a	n/a	SPINACH	Vegetables	6	2	[0, 0, 0]	n/a	catFR1	0	R1406M
522.698	1.6	523069	WORD	n/a	wordpools/wordpool_categorized_EN.txt	SHEEP	FarmAnimals	7	2	[0, 0, 0]	n/a	catFR1	0	R1406M
524.334	0.941	524672	WORD_OFF	n/a	n/a	SHEEP	FarmAnimals	7	2	[0, 0, 0]	n/a	catFR1	0	R1406M
525.275	1.6	525625	WORD	n/a	wordpools/wordpool_categorized_EN.txt	HEN	FarmAnimals	8	2	[0, 0, 0]	n/a	catFR1	0	R1406M
526.885	0.94	527228	WORD_OFF	n/a	n/a	HEN	FarmAnimals	8	2	[0, 0, 0]	n/a	catFR1	0	R1406M
527.825	1.6	528182	WORD	n/a	wordpools/wordpool_categorized_EN.txt	COAT	Clothing	9	2	[0, 0, 0]	n/a	catFR1	0	R1406M
529.452	0.842	529803	WORD_OFF	n/a	n/a	COAT	Clothing	9	2	[0, 0, 0]	n/a	catFR1	0	R1406M
530.294	1.6	530643	WORD	n/a	wordpools/wordpool_categorized_EN.txt	DRESS	Clothing	10	2	[0, 0, 0]	n/a	catFR1	0	R1406M
531.919	0.837	532264	WORD_OFF	n/a	n/a	DRESS	Clothing	10	2	[0, 0, 0]	n/a	catFR1	0	R1406M
532.756	1.6	533104	WORD	n/a	wordpools/wordpool_categorized_EN.txt	ONION	Vegetables	11	2	[0, 0, 0]	n/a	catFR1	0	R1406M
534.386	1.014	534725	WORD_OFF	n/a	n/a	ONION	Vegetables	11	2	[0, 0, 0]	n/a	catFR1	0	R1406M
535.4	1.6	535755	WORD	n/a	wordpools/wordpool_categorized_EN.txt	CUCUMBER	Vegetables	12	2	[0, 0, 0]	n/a	catFR1	0	R1406M
537.037	0.0	537386	START	n/a	n/a	n/a	n/a	-999	2	[-999, -999, -999]	n/a	catFR1	0	R1406M
537.036	0.0	537396	WORD_OFF	n/a	n/a	CUCUMBER	Vegetables	12	2	[0, 0, 0]	n/a	catFR1	0	R1406M
537.036	0.001	537396	ENCODING_END	n/a	n/a	n/a	n/a	-999	2	[0, 0, 0]	n/a	catFR1	0	R1406M
537.037	0.015	537396	DISTRACT_START	n/a	n/a	n/a	n/a	-999	2	[0, 0, 0]	n/a	catFR1	0	R1406M
537.052	8.286	537401	PROB	8.258	n/a	n/a	n/a	-999	2	[8, 8, 7]	23.0	catFR1	0	R1406M
545.338	4.501	545687	PROB	4.468	n/a	n/a	n/a	-999	2	[5, 5, 6]	16.0	catFR1	0	R1406M
549.839	5.2	550188	PROB	5.169	n/a	n/a	n/a	-999	2	[2, 1, 4]	7.0	catFR1	0	R1406M
555.039	4.906	555387	PROB	4.906	n/a	n/a	n/a	-999	2	[6, 4, 8]	18.0	catFR1	0	R1406M
559.945	0.013	560293	STOP	n/a	n/a	n/a	n/a	-999	2	[-999, -999, -999]	n/a	catFR1	0	R1406M
559.958	2.267	560307	DISTRACT_END	n/a	n/a	n/a	n/a	-999	2	[0, 0, 0]	n/a	catFR1	0	R1406M
562.225	1.497	562577	REC_START	n/a	n/a	n/a	n/a	-999	2	[0, 0, 0]	n/a	catFR1	0	R1406M
563.722	2.721	564070	REC_WORD	1.497	n/a	CABBAGE	Vegetables	5	2	[0, 0, 0]	n/a	catFR1	0	R1406M
566.443	7.42	566791	REC_WORD_VV	4.218	n/a	<>	n/a	-999	2	[0, 0, 0]	n/a	catFR1	0	R1406M
573.863	0.799	574210	REC_WORD	11.638	n/a	BROCCOLI	n/a	-999	2	[0, 0, 0]	n/a	catFR1	0	R1406M
574.662	8.611	575009	REC_WORD	12.437	n/a	CAULIFLOWER	n/a	-999	2	[0, 0, 0]	n/a	catFR1	0	R1406M
583.273	2.72	583620	REC_WORD	21.048	n/a	UNDERWEAR	Clothing	1	2	[0, 0, 0]	n/a	catFR1	0	R1406M
585.993	6.243	586340	REC_WORD	23.768	n/a	SHORTS	Clothing	2	2	[0, 0, 0]	n/a	catFR1	0	R1406M
592.236	17.898	592604	REC_END	n/a	n/a	n/a	n/a	-999	2	[0, 0, 0]	n/a	catFR1	0	R1406M
610.134	10.0	610498	COUNTDOWN_START	n/a	n/a	n/a	n/a	-999	3	[0, 0, 0]	n/a	catFR1	0	R1406M
620.562	1.142	620914	COUNTDOWN_END	n/a	n/a	n/a	n/a	-999	3	[0, 0, 0]	n/a	catFR1	0	R1406M
621.704	0.95	622040	ENCODING_START	n/a	n/a	n/a	n/a	-999	3	[0, 0, 0]	n/a	catFR1	0	R1406M
622.654	1.6	623013	WORD	n/a	wordpools/wordpool_categorized_EN.txt	SHOES	Clothing	1	3	[0, 0, 0]	n/a	catFR1	0	R1406M
624.286	0.945	624634	WORD_OFF	n/a	n/a	SHOES	Clothing	1	3	[0, 0, 0]	n/a	catFR1	0	R1406M
625.231	1.6	625569	WORD	n/a	wordpools/wordpool_categorized_EN.txt	BLOUSE	Clothing	2	3	[0, 0, 0]	n/a	catFR1	0	R1406M
626.854	0.883	627191	WORD_OFF	n/a	n/a	BLOUSE	Clothing	2	3	[0, 0, 0]	n/a	catFR1	0	R1406M
627.737	1.6	628087	WORD	n/a	wordpools/wordpool_categorized_EN.txt	GOAT	FarmAnimals	3	3	[0, 0, 0]	n/a	catFR1	0	R1406M
629.371	0.919	629709	WORD_OFF	n/a	n/a	GOAT	FarmAnimals	3	3	[0, 0, 0]	n/a	catFR1	0	R1406M
630.29	1.6	630644	WORD	n/a	wordpools/wordpool_categorized_EN.txt	BULL	FarmAnimals	4	3	[0, 0, 0]	n/a	catFR1	0	R1406M
631.922	1.0	632265	WORD_OFF	n/a	n/a	BULL	FarmAnimals	4	3	[0, 0, 0]	n/a	catFR1	0	R1406M
632.922	1.6	633276	WORD	n/a	wordpools/wordpool_categorized_EN.txt	SUNFLOWER	Flowers	5	3	[0, 0, 0]	n/a	catFR1	0	R1406M
634.556	1.052	634898	WORD_OFF	n/a	n/a	SUNFLOWER	Flowers	5	3	[0, 0, 0]	n/a	catFR1	0	R1406M
635.608	1.6	635966	WORD	n/a	wordpools/wordpool_categorized_EN.txt	MARIGOLD	Flowers	6	3	[0, 0, 0]	n/a	catFR1	0	R1406M
637.239	0.981	637569	WORD_OFF	n/a	n/a	MARIGOLD	Flowers	6	3	[0, 0, 0]	n/a	catFR1	0	R1406M
638.22	1.6	638580	WORD	n/a	wordpools/wordpool_categorized_EN.txt	LAMB	FarmAnimals	7	3	[0, 0, 0]	n/a	catFR1	0	R1406M
639.857	1.056	640201	WORD_OFF	n/a	n/a	LAMB	FarmAnimals	7	3	[0, 0, 0]	n/a	catFR1	0	R1406M
640.913	1.6	641250	WORD	n/a	wordpools/wordpool_categorized_EN.txt	PIG	FarmAnimals	8	3	[0, 0, 0]	n/a	catFR1	0	R1406M
642.54	0.88	642872	WORD_OFF	n/a	n/a	PIG	FarmAnimals	8	3	[0, 0, 0]	n/a	catFR1	0	R1406M
643.42	1.6	643769	WORD	n/a	wordpools/wordpool_categorized_EN.txt	JACKET	Clothing	9	3	[0, 0, 0]	n/a	catFR1	0	R1406M
645.057	0.75	645390	WORD_OFF	n/a	n/a	JACKET	Clothing	9	3	[0, 0, 0]	n/a	catFR1	0	R1406M
645.807	1.6	646153	WORD	n/a	wordpools/wordpool_categorized_EN.txt	SHIRT	Clothing	10	3	[0, 0, 0]	n/a	catFR1	0	R1406M
647.441	0.862	647775	WORD_OFF	n/a	n/a	SHIRT	Clothing	10	3	[0, 0, 0]	n/a	catFR1	0	R1406M
648.303	1.6	648652	WORD	n/a	wordpools/wordpool_categorized_EN.txt	LILY	Flowers	11	3	[0, 0, 0]	n/a	catFR1	0	R1406M
649.925	0.951	650255	WORD_OFF	n/a	n/a	LILY	Flowers	11	3	[0, 0, 0]	n/a	catFR1	0	R1406M
650.876	1.6	651228	WORD	n/a	wordpools/wordpool_categorized_EN.txt	LILAC	Flowers	12	3	[0, 0, 0]	n/a	catFR1	0	R1406M
652.51	0.0	652853	START	n/a	n/a	n/a	n/a	-999	3	[-999, -999, -999]	n/a	catFR1	0	R1406M
652.509	0.001	652868	WORD_OFF	n/a	n/a	LILAC	Flowers	12	3	[0, 0, 0]	n/a	catFR1	0	R1406M
652.51	0.0	652868	ENCODING_END	n/a	n/a	n/a	n/a	-999	3	[0, 0, 0]	n/a	catFR1	0	R1406M
652.51	0.016	652868	DISTRACT_START	n/a	n/a	n/a	n/a	-999	3	[0, 0, 0]	n/a	catFR1	0	R1406M
652.526	11.418	652869	PROB	11.395	n/a	n/a	n/a	-999	3	[9, 8, 8]	24.0	catFR1	0	R1406M
663.944	4.901	664287	PROB	4.868	n/a	n/a	n/a	-999	3	[3, 9, 7]	19.0	catFR1	0	R1406M
668.845	5.102	669187	PROB	5.094	n/a	n/a	n/a	-999	3	[5, 5, 4]	14.0	catFR1	0	R1406M
673.947	0.0	674273	DISTRACT_END	n/a	n/a	n/a	n/a	-999	3	[0, 0, 0]	n/a	catFR1	0	R1406M
673.939	2.392	674281	STOP	n/a	n/a	n/a	n/a	-999	3	[-999, -999, -999]	n/a	catFR1	0	R1406M
676.331	10.385	676676	REC_START	n/a	n/a	n/a	n/a	-999	3	[0, 0, 0]	n/a	catFR1	0	R1406M
686.716	3.218	687057	REC_WORD_VV	10.385	n/a	<>	n/a	-999	3	[0, 0, 0]	n/a	catFR1	0	R1406M
689.934	3.794	690275	REC_WORD	13.603	n/a	BLOUSE	Clothing	2	3	[0, 0, 0]	n/a	catFR1	0	R1406M
693.728	3.098	694069	REC_WORD	17.397	n/a	SKIRT	n/a	-999	3	[0, 0, 0]	n/a	catFR1	0	R1406M
696.826	2.767	697167	REC_WORD	20.495	n/a	SUNFLOWER	Flowers	5	3	[0, 0, 0]	n/a	catFR1	0	R1406M
699.593	5.106	699934	REC_WORD	23.262	n/a	MARIGOLD	Flowers	6	3	[0, 0, 0]	n/a	catFR1	0	R1406M
704.699	1.645	705040	REC_WORD	28.368	n/a	LILAC	Flowers	12	3	[0, 0, 0]	n/a	catFR1	0	R1406M
706.344	9.078	706703	REC_END	n/a	n/a	n/a	n/a	-999	3	[0, 0, 0]	n/a	catFR1	0	R1406M
715.422	10.0	715784	COUNTDOWN_START	n/a	n/a	n/a	n/a	-999	4	[0, 0, 0]	n/a	catFR1	0	R1406M
725.851	1.09	726181	COUNTDOWN_END	n/a	n/a	n/a	n/a	-999	4	[0, 0, 0]	n/a	catFR1	0	R1406M
726.941	1.039	727268	ENCODING_START	n/a	n/a	n/a	n/a	-999	4	[0, 0, 0]	n/a	catFR1	0	R1406M
727.98	1.6	728317	WORD	n/a	wordpools/wordpool_categorized_EN.txt	WALL	Building	1	4	[0, 0, 0]	n/a	catFR1	0	R1406M
729.59	0.812	729920	WORD_OFF	n/a	n/a	WALL	Building	1	4	[0, 0, 0]	n/a	catFR1	0	R1406M
730.402	1.6	730740	WORD	n/a	wordpools/wordpool_categorized_EN.txt	FLOOR	Building	2	4	[0, 0, 0]	n/a	catFR1	0	R1406M
732.023	1.127	732362	WORD_OFF	n/a	n/a	FLOOR	Building	2	4	[0, 0, 0]	n/a	catFR1	0	R1406M
733.15	1.6	733487	WORD	n/a	wordpools/wordpool_categorized_EN.txt	BEE	Insects	3	4	[0, 0, 0]	n/a	catFR1	0	R1406M
734.775	1.084	735109	WORD_OFF	n/a	n/a	BEE	Insects	3	4	[0, 0, 0]	n/a	catFR1	0	R1406M
735.859	1.6	736196	WORD	n/a	wordpools/wordpool_categorized_EN.txt	FLY	Insects	4	4	[0, 0, 0]	n/a	catFR1	0	R1406M
737.492	0.809	737818	WORD_OFF	n/a	n/a	FLY	Insects	4	4	[0, 0, 0]	n/a	catFR1	0	R1406M
738.301	1.6	738638	WORD	n/a	wordpools/wordpool_categorized_EN.txt	NOTEBOOK	OfficeSupplies	5	4	[0, 0, 0]	n/a	catFR1	0	R1406M
739.926	1.03	740260	WORD_OFF	n/a	n/a	NOTEBOOK	OfficeSupplies	5	4	[0, 0, 0]	n/a	catFR1	0	R1406M
740.956	1.6	741309	WORD	n/a	wordpools/wordpool_categorized_EN.txt	ERASER	OfficeSupplies	6	4	[0, 0, 0]	n/a	catFR1	0	R1406M
742.593	0.997	742930	WORD_OFF	n/a	n/a	ERASER	OfficeSupplies	6	4	[0, 0, 0]	n/a	catFR1	0	R1406M
743.59	1.6	743941	WORD	n/a	wordpools/wordpool_categorized_EN.txt	CRICKET	Insects	7	4	[0, 0, 0]	n/a	catFR1	0	R1406M
745.226	0.757	745563	WORD_OFF	n/a	n/a	CRICKET	Insects	7	4	[0, 0, 0]	n/a	catFR1	0	R1406M
745.983	1.6	746326	WORD	n/a	wordpools/wordpool_categorized_EN.txt	LADYBUG	Insects	8	4	[0, 0, 0]	n/a	catFR1	0	R1406M
747.611	1.035	747948	WORD_OFF	n/a	n/a	LADYBUG	Insects	8	4	[0, 0, 0]	n/a	catFR1	0	R1406M
748.646	1.6	748997	WORD	n/a	wordpools/wordpool_categorized_EN.txt	BINDER	OfficeSupplies	9	4	[0, 0, 0]	n/a	catFR1	0	R1406M
750.277	0.872	750599	WORD_OFF	n/a	n/a	BINDER	OfficeSupplies	9	4	[0, 0, 0]	n/a	catFR1	0	R1406M
751.149	1.6	751496	WORD	n/a	wordpools/wordpool_categorized_EN.txt	PAPER	OfficeSupplies	10	4	[0, 0, 0]	n/a	catFR1	0	R1406M
752.778	1.149	753117	WORD_OFF	n/a	n/a	PAPER	OfficeSupplies	10	4	[0, 0, 0]	n/a	catFR1	0	R1406M
753.927	1.6	754281	WORD	n/a	wordpools/wordpool_categorized_EN.txt	CEILING	Building	11	4	[0, 0, 0]	n/a	catFR1	0	R1406M
755.562	0.823	755884	WORD_OFF	n/a	n/a	CEILING	Building	11	4	[0, 0, 0]	n/a	catFR1	0	R1406M
756.385	1.6	756723	WORD	n/a	wordpools/wordpool_categorized_EN.txt	DOOR	Building	12	4	[0, 0, 0]	n/a	catFR1	0	R1406M
758.013	0.0	758351	START	n/a	n/a	n/a	n/a	-999	4	[-999, -999, -999]	n/a	catFR1	0	R1406M
758.012	0.0	758364	WORD_OFF	n/a	n/a	DOOR	Building	12	4	[0, 0, 0]	n/a	catFR1	0	R1406M
758.012	0.001	758364	ENCODING_END	n/a	n/a	n/a	n/a	-999	4	[0, 0, 0]	n/a	catFR1	0	R1406M
758.013	0.015	758364	DISTRACT_START	n/a	n/a	n/a	n/a	-999	4	[0, 0, 0]	n/a	catFR1	0	R1406M
758.028	8.235	758366	PROB	8.209	n/a	n/a	n/a	-999	4	[3, 3, 4]	10.0	catFR1	0	R1406M
766.263	5.102	766600	PROB	5.079	n/a	n/a	n/a	-999	4	[6, 4, 4]	14.0	catFR1	0	R1406M
771.365	9.874	771702	PROB	9.874	n/a	n/a	n/a	-999	4	[8, 5, 2]	15.0	catFR1	0	R1406M
781.239	0.01	781575	STOP	n/a	n/a	n/a	n/a	-999	4	[-999, -999, -999]	n/a	catFR1	0	R1406M
781.249	2.303	781580	DISTRACT_END	n/a	n/a	n/a	n/a	-999	4	[0, 0, 0]	n/a	catFR1	0	R1406M
783.552	2.608	783888	REC_START	n/a	n/a	n/a	n/a	-999	4	[0, 0, 0]	n/a	catFR1	0	R1406M
786.16	3.172	786496	REC_WORD	2.608	n/a	FLOOR	Building	2	4	[0, 0, 0]	n/a	catFR1	0	R1406M
789.332	1.596	789668	REC_WORD	5.78	n/a	BEE	Insects	3	4	[0, 0, 0]	n/a	catFR1	0	R1406M
790.928	20.889	791264	REC_WORD	7.376	n/a	FLY	Insects	4	4	[0, 0, 0]	n/a	catFR1	0	R1406M
811.817	1.747	812152	REC_WORD	28.265	n/a	CRICKET	Insects	7	4	[0, 0, 0]	n/a	catFR1	0	R1406M
813.564	69.656	813915	REC_END	n/a	n/a	n/a	n/a	-999	4	[0, 0, 0]	n/a	catFR1	0	R1406M
883.22	10.0	883584	COUNTDOWN_START	n/a	n/a	n/a	n/a	-999	5	[0, 0, 0]	n/a	catFR1	0	R1406M
893.649	1.191	893981	COUNTDOWN_END	n/a	n/a	n/a	n/a	-999	5	[0, 0, 0]	n/a	catFR1	0	R1406M
894.84	0.949	895164	ENCODING_START	n/a	n/a	n/a	n/a	-999	5	[0, 0, 0]	n/a	catFR1	0	R1406M
895.789	1.6	896137	WORD	n/a	wordpools/wordpool_categorized_EN.txt	CARNATION	Flowers	1	5	[0, 0, 0]	n/a	catFR1	0	R1406M
897.423	0.87	897739	WORD_OFF	n/a	n/a	CARNATION	Flowers	1	5	[0, 0, 0]	n/a	catFR1	0	R1406M
898.293	1.6	898636	WORD	n/a	wordpools/wordpool_categorized_EN.txt	ROSE	Flowers	2	5	[0, 0, 0]	n/a	catFR1	0	R1406M
899.923	0.849	900238	WORD_OFF	n/a	n/a	ROSE	Flowers	2	5	[0, 0, 0]	n/a	catFR1	0	R1406M
900.772	1.6	901116	WORD	n/a	wordpools/wordpool_categorized_EN.txt	COUCH	Furniture	3	5	[0, 0, 0]	n/a	catFR1	0	R1406M
902.407	0.897	902737	WORD_OFF	n/a	n/a	COUCH	Furniture	3	5	[0, 0, 0]	n/a	catFR1	0	R1406M
903.304	1.6	903653	WORD	n/a	wordpools/wordpool_categorized_EN.txt	CHAIR	Furniture	4	5	[0, 0, 0]	n/a	catFR1	0	R1406M
904.941	0.889	905256	WORD_OFF	n/a	n/a	CHAIR	Furniture	4	5	[0, 0, 0]	n/a	catFR1	0	R1406M
905.83	1.6	906171	WORD	n/a	wordpools/wordpool_categorized_EN.txt	BUTTERFLY	Insects	5	5	[0, 0, 0]	n/a	catFR1	0	R1406M
907.458	1.019	907774	WORD_OFF	n/a	n/a	BUTTERFLY	Insects	5	5	[0, 0, 0]	n/a	catFR1	0	R1406M
908.477	1.6	908804	WORD	n/a	wordpools/wordpool_categorized_EN.txt	MOTH	Insects	6	5	[0, 0, 0]	n/a	catFR1	0	R1406M
910.108	1.133	910425	WORD_OFF	n/a	n/a	MOTH	Insects	6	5	[0, 0, 0]	n/a	catFR1	0	R1406M
911.241	1.6	911570	WORD	n/a	wordpools/wordpool_categorized_EN.txt	NIGHTSTAND	Furniture	7	5	[0, 0, 0]	n/a	catFR1	0	R1406M
912.859	0.949	913173	WORD_OFF	n/a	n/a	NIGHTSTAND	Furniture	7	5	[0, 0, 0]	n/a	catFR1	0	R1406M
913.808	1.6	914145	WORD	n/a	wordpools/wordpool_categorized_EN.txt	CABINET	Furniture	8	5	[0, 0, 0]	n/a	catFR1	0	R1406M
915.443	0.981	915767	WORD_OFF	n/a	n/a	CABINET	Furniture	8	5	[0, 0, 0]	n/a	catFR1	0	R1406M
916.424	1.6	916759	WORD	n/a	wordpools/wordpool_categorized_EN.txt	DAISY	Flowers	9	5	[0, 0, 0]	n/a	catFR1	0	R1406M
918.059	1.06	918381	WORD_OFF	n/a	n/a	DAISY	Flowers	9	5	[0, 0, 0]	n/a	catFR1	0	R1406M
919.119	1.6	919449	WORD	n/a	wordpools/wordpool_categorized_EN.txt	PETUNIA	Flowers	10	5	[0, 0, 0]	n/a	catFR1	0	R1406M
920.744	1.038	921070	WORD_OFF	n/a	n/a	PETUNIA	Flowers	10	5	[0, 0, 0]	n/a	catFR1	0	R1406M
921.782	1.6	922120	WORD	n/a	wordpools/wordpool_categorized_EN.txt	MOSQUITO	Insects	11	5	[0, 0, 0]	n/a	catFR1	0	R1406M
923.411	1.094	923722	WORD_OFF	n/a	n/a	MOSQUITO	Insects	11	5	[0, 0, 0]	n/a	catFR1	0	R1406M
924.505	1.6	924829	WORD	n/a	wordpools/wordpool_categorized_EN.txt	GNAT	Insects	12	5	[0, 0, 0]	n/a	catFR1	0	R1406M
926.128	0.0	926457	START	n/a	n/a	n/a	n/a	-999	5	[-999, -999, -999]	n/a	catFR1	0	R1406M
926.127	0.001	926469	WORD_OFF	n/a	n/a	GNAT	Insects	12	5	[0, 0, 0]	n/a	catFR1	0	R1406M
926.128	0.0	926469	ENCODING_END	n/a	n/a	n/a	n/a	-999	5	[0, 0, 0]	n/a	catFR1	0	R1406M
926.128	0.016	926469	DISTRACT_START	n/a	n/a	n/a	n/a	-999	5	[0, 0, 0]	n/a	catFR1	0	R1406M
926.144	4.468	926473	PROB	4.443	n/a	n/a	n/a	-999	5	[9, 2, 2]	13.0	catFR1	0	R1406M
930.612	7.885	930941	PROB	7.847	n/a	n/a	n/a	-999	5	[5, 6, 9]	20.0	catFR1	0	R1406M
938.497	6.435	938825	PROB	6.397	n/a	n/a	n/a	-999	5	[8, 3, 2]	14.0	catFR1	0	R1406M
944.932	12.418	945260	PROB	12.418	n/a	n/a	n/a	-999	5	[8, 1, 6]	15.0	catFR1	0	R1406M
957.35	0.018	957677	STOP	n/a	n/a	n/a	n/a	-999	5	[-999, -999, -999]	n/a	catFR1	0	R1406M
957.368	2.217	957679	DISTRACT_END	n/a	n/a	n/a	n/a	-999	5	[0, 0, 0]	n/a	catFR1	0	R1406M
959.585	1.202	959911	REC_START	n/a	n/a	n/a	n/a	-999	5	[0, 0, 0]	n/a	catFR1	0	R1406M
960.787	12.613	961114	REC_WORD	1.202	n/a	MOSQUITO	Insects	11	5	[0, 0, 0]	n/a	catFR1	0	R1406M
973.4	2.247	973726	REC_WORD	13.815	n/a	ROSE	Flowers	2	5	[0, 0, 0]	n/a	catFR1	0	R1406M
975.647	3.601	975973	REC_WORD	16.062	n/a	CYPRESS	Trees	-999	5	[0, 0, 0]	n/a	catFR1	0	R1406M
979.248	4.849	979574	REC_WORD	19.663	n/a	CHAIR	Furniture	4	5	[0, 0, 0]	n/a	catFR1	0	R1406M
984.097	5.502	984423	REC_WORD	24.512	n/a	COUCH	Furniture	3	5	[0, 0, 0]	n/a	catFR1	0	R1406M
989.599	24.764	989938	REC_END	n/a	n/a	n/a	n/a	-999	5	[0, 0, 0]	n/a	catFR1	0	R1406M
1014.363	10.0	1014719	COUNTDOWN_START	n/a	n/a	n/a	n/a	-999	6	[0, 0, 0]	n/a	catFR1	0	R1406M
1024.791	1.107	1025116	COUNTDOWN_END	n/a	n/a	n/a	n/a	-999	6	[0, 0, 0]	n/a	catFR1	0	R1406M
1025.898	0.853	1026222	ENCODING_START	n/a	n/a	n/a	n/a	-999	6	[0, 0, 0]	n/a	catFR1	0	R1406M
1026.751	1.6	1027081	WORD	n/a	wordpools/wordpool_categorized_EN.txt	SEAGULL	Birds	1	6	[0, 0, 0]	n/a	catFR1	0	R1406M
1028.381	0.806	1028702	WORD_OFF	n/a	n/a	SEAGULL	Birds	1	6	[0, 0, 0]	n/a	catFR1	0	R1406M
1029.187	1.6	1029503	WORD	n/a	wordpools/wordpool_categorized_EN.txt	ROBIN	Birds	2	6	[0, 0, 0]	n/a	catFR1	0	R1406M
1030.815	0.978	1031125	WORD_OFF	n/a	n/a	ROBIN	Birds	2	6	[0, 0, 0]	n/a	catFR1	0	R1406M
1031.793	1.6	1032136	WORD	n/a	wordpools/wordpool_categorized_EN.txt	STRAWBERRY	Fruit	3	6	[0, 0, 0]	n/a	catFR1	0	R1406M
1033.432	0.855	1033739	WORD_OFF	n/a	n/a	STRAWBERRY	Fruit	3	6	[0, 0, 0]	n/a	catFR1	0	R1406M
1034.287	1.6	1034616	WORD	n/a	wordpools/wordpool_categorized_EN.txt	LEMON	Fruit	4	6	[0, 0, 0]	n/a	catFR1	0	R1406M
1035.916	1.034	1036238	WORD_OFF	n/a	n/a	LEMON	Fruit	4	6	[0, 0, 0]	n/a	catFR1	0	R1406M
1036.95	1.6	1037287	WORD	n/a	wordpools/wordpool_categorized_EN.txt	DOLLHOUSE	Toys	5	6	[0, 0, 0]	n/a	catFR1	0	R1406M
1038.583	0.996	1038889	WORD_OFF	n/a	n/a	DOLLHOUSE	Toys	5	6	[0, 0, 0]	n/a	catFR1	0	R1406M
1039.579	1.6	1039919	WORD	n/a	wordpools/wordpool_categorized_EN.txt	SLINKY	Toys	6	6	[0, 0, 0]	n/a	catFR1	0	R1406M
1041.216	0.945	1041522	WORD_OFF	n/a	n/a	SLINKY	Toys	6	6	[0, 0, 0]	n/a	catFR1	0	R1406M
1042.161	1.6	1042476	WORD	n/a	wordpools/wordpool_categorized_EN.txt	GOOSE	Birds	7	6	[0, 0, 0]	n/a	catFR1	0	R1406M
1043.768	0.762	1044078	WORD_OFF	n/a	n/a	GOOSE	Birds	7	6	[0, 0, 0]	n/a	catFR1	0	R1406M
1044.53	1.6	1044841	WORD	n/a	wordpools/wordpool_categorized_EN.txt	PIGEON	Birds	8	6	[0, 0, 0]	n/a	catFR1	0	R1406M
1046.151	0.829	1046463	WORD_OFF	n/a	n/a	PIGEON	Birds	8	6	[0, 0, 0]	n/a	catFR1	0	R1406M
1046.98	1.6	1047321	WORD	n/a	wordpools/wordpool_categorized_EN.txt	GRAPE	Fruit	9	6	[0, 0, 0]	n/a	catFR1	0	R1406M
1048.619	0.958	1048924	WORD_OFF	n/a	n/a	GRAPE	Fruit	9	6	[0, 0, 0]	n/a	catFR1	0	R1406M
1049.577	1.6	1049897	WORD	n/a	wordpools/wordpool_categorized_EN.txt	CHERRY	Fruit	10	6	[0, 0, 0]	n/a	catFR1	0	R1406M
1051.201	0.982	1051518	WORD_OFF	n/a	n/a	CHERRY	Fruit	10	6	[0, 0, 0]	n/a	catFR1	0	R1406M
1052.183	1.6	1052510	WORD	n/a	wordpools/wordpool_categorized_EN.txt	MARBLES	Toys	11	6	[0, 0, 0]	n/a	catFR1	0	R1406M
1053.82	0.961	1054132	WORD_OFF	n/a	n/a	MARBLES	Toys	11	6	[0, 0, 0]	n/a	catFR1	0	R1406M
1054.781	1.6	1055105	WORD	n/a	wordpools/wordpool_categorized_EN.txt	BLOCKS	Toys	12	6	[0, 0, 0]	n/a	catFR1	0	R1406M
1056.403	0.001	1056726	WORD_OFF	n/a	n/a	BLOCKS	Toys	12	6	[0, 0, 0]	n/a	catFR1	0	R1406M
1056.404	0.001	1056727	ENCODING_END	n/a	n/a	n/a	n/a	-999	6	[0, 0, 0]	n/a	catFR1	0	R1406M
1056.405	0.015	1056727	START	n/a	n/a	n/a	n/a	-999	6	[-999, -999, -999]	n/a	catFR1	0	R1406M
1056.42	0.0	1056742	PROB	6.044	n/a	n/a	n/a	-999	6	[3, 5, 5]	13.0	catFR1	0	R1406M
1056.405	6.083	1056745	DISTRACT_START	n/a	n/a	n/a	n/a	-999	6	[0, 0, 0]	n/a	catFR1	0	R1406M
1062.488	6.683	1062810	PROB	6.653	n/a	n/a	n/a	-999	6	[2, 5, 7]	14.0	catFR1	0	R1406M
1069.171	8.52	1069492	PROB	8.52	n/a	n/a	n/a	-999	6	[7, 6, 6]	19.0	catFR1	0	R1406M
1077.691	0.017	1078012	STOP	n/a	n/a	n/a	n/a	-999	6	[-999, -999, -999]	n/a	catFR1	0	R1406M
1077.708	2.267	1078016	DISTRACT_END	n/a	n/a	n/a	n/a	-999	6	[0, 0, 0]	n/a	catFR1	0	R1406M
1079.975	6.683	1080305	REC_START	n/a	n/a	n/a	n/a	-999	6	[0, 0, 0]	n/a	catFR1	0	R1406M
1086.658	22.094	1086978	REC_WORD	6.683	n/a	SEAGULL	Birds	1	6	[0, 0, 0]	n/a	catFR1	0	R1406M
1108.752	1.233	1109071	REC_WORD	28.777	n/a	BALL	n/a	-999	6	[0, 0, 0]	n/a	catFR1	0	R1406M
1109.985	87.262	1110313	REC_END	n/a	n/a	n/a	n/a	-999	6	[0, 0, 0]	n/a	catFR1	0	R1406M
1197.247	10.0	1197590	COUNTDOWN_START	n/a	n/a	n/a	n/a	-999	7	[0, 0, 0]	n/a	catFR1	0	R1406M
1207.676	1.041	1207987	COUNTDOWN_END	n/a	n/a	n/a	n/a	-999	7	[0, 0, 0]	n/a	catFR1	0	R1406M
1208.717	1.109	1209017	ENCODING_START	n/a	n/a	n/a	n/a	-999	7	[0, 0, 0]	n/a	catFR1	0	R1406M
1209.826	1.6	1210143	WORD	n/a	wordpools/wordpool_categorized_EN.txt	RUM	Beverages	1	7	[0, 0, 0]	n/a	catFR1	0	R1406M
1211.45	0.885	1211745	WORD_OFF	n/a	n/a	RUM	Beverages	1	7	[0, 0, 0]	n/a	catFR1	0	R1406M
1212.335	1.6	1212661	WORD	n/a	wordpools/wordpool_categorized_EN.txt	BEER	Beverages	2	7	[0, 0, 0]	n/a	catFR1	0	R1406M
1213.967	0.92	1214263	WORD_OFF	n/a	n/a	BEER	Beverages	2	7	[0, 0, 0]	n/a	catFR1	0	R1406M
1214.887	1.6	1215198	WORD	n/a	wordpools/wordpool_categorized_EN.txt	MOUSSE	Desserts	3	7	[0, 0, 0]	n/a	catFR1	0	R1406M
1216.518	1.089	1216820	WORD_OFF	n/a	n/a	MOUSSE	Desserts	3	7	[0, 0, 0]	n/a	catFR1	0	R1406M
1217.607	1.6	1217926	WORD	n/a	wordpools/wordpool_categorized_EN.txt	CHEESECAKE	Desserts	4	7	[0, 0, 0]	n/a	catFR1	0	R1406M
1219.234	0.779	1219548	WORD_OFF	n/a	n/a	CHEESECAKE	Desserts	4	7	[0, 0, 0]	n/a	catFR1	0	R1406M
1220.013	1.6	1220330	WORD	n/a	wordpools/wordpool_categorized_EN.txt	BOAT	Vehicles	5	7	[0, 0, 0]	n/a	catFR1	0	R1406M
1221.635	1.053	1221932	WORD_OFF	n/a	n/a	BOAT	Vehicles	5	7	[0, 0, 0]	n/a	catFR1	0	R1406M
1222.688	1.6	1223000	WORD	n/a	wordpools/wordpool_categorized_EN.txt	TRAIN	Vehicles	6	7	[0, 0, 0]	n/a	catFR1	0	R1406M
1224.319	0.758	1224626	WORD_OFF	n/a	n/a	TRAIN	Vehicles	6	7	[0, 0, 0]	n/a	catFR1	0	R1406M
1225.077	1.6	1225389	WORD	n/a	wordpools/wordpool_categorized_EN.txt	JUICE	Beverages	7	7	[0, 0, 0]	n/a	catFR1	0	R1406M
1226.703	0.97	1227011	WORD_OFF	n/a	n/a	JUICE	Beverages	7	7	[0, 0, 0]	n/a	catFR1	0	R1406M
1227.673	1.6	1227984	WORD	n/a	wordpools/wordpool_categorized_EN.txt	COLA	Beverages	8	7	[0, 0, 0]	n/a	catFR1	0	R1406M
1229.303	0.871	1229605	WORD_OFF	n/a	n/a	COLA	Beverages	8	7	[0, 0, 0]	n/a	catFR1	0	R1406M
1230.174	1.6	1230483	WORD	n/a	wordpools/wordpool_categorized_EN.txt	CUPCAKE	Desserts	9	7	[0, 0, 0]	n/a	catFR1	0	R1406M
1231.804	1.055	1232104	WORD_OFF	n/a	n/a	CUPCAKE	Desserts	9	7	[0, 0, 0]	n/a	catFR1	0	R1406M
1232.859	1.6	1233173	WORD	n/a	wordpools/wordpool_categorized_EN.txt	FUDGE	Desserts	10	7	[0, 0, 0]	n/a	catFR1	0	R1406M
1234.487	1.007	1234794	WORD_OFF	n/a	n/a	FUDGE	Desserts	10	7	[0, 0, 0]	n/a	catFR1	0	R1406M
1235.494	1.6	1235805	WORD	n/a	wordpools/wordpool_categorized_EN.txt	CAR	Vehicles	11	7	[0, 0, 0]	n/a	catFR1	0	R1406M
1237.121	1.107	1237427	WORD_OFF	n/a	n/a	CAR	Vehicles	11	7	[0, 0, 0]	n/a	catFR1	0	R1406M
1238.228	1.6	1238533	WORD	n/a	wordpools/wordpool_categorized_EN.txt	BIKE	Vehicles	12	7	[0, 0, 0]	n/a	catFR1	0	R1406M
1239.857	0.0	1240169	START	n/a	n/a	n/a	n/a	-999	7	[-999, -999, -999]	n/a	catFR1	0	R1406M
1239.855	0.001	1240174	WORD_OFF	n/a	n/a	BIKE	Vehicles	12	7	[0, 0, 0]	n/a	catFR1	0	R1406M
1239.856	0.001	1240174	ENCODING_END	n/a	n/a	n/a	n/a	-999	7	[0, 0, 0]	n/a	catFR1	0	R1406M
1239.857	0.015	1240174	DISTRACT_START	n/a	n/a	n/a	n/a	-999	7	[0, 0, 0]	n/a	catFR1	0	R1406M
1239.872	5.15	1240184	PROB	5.12	n/a	n/a	n/a	-999	7	[9, 2, 9]	20.0	catFR1	0	R1406M
1245.022	5.335	1245334	PROB	5.303	n/a	n/a	n/a	-999	7	[6, 1, 2]	9.0	catFR1	0	R1406M
1250.357	4.585	1250669	PROB	4.561	n/a	n/a	n/a	-999	7	[1, 4, 6]	11.0	catFR1	0	R1406M
1254.942	6.323	1255254	PROB	6.323	n/a	n/a	n/a	-999	7	[6, 8, 2]	16.0	catFR1	0	R1406M
1261.265	0.01	1261576	STOP	n/a	n/a	n/a	n/a	-999	7	[-999, -999, -999]	n/a	catFR1	0	R1406M
1261.275	2.219	1261578	DISTRACT_END	n/a	n/a	n/a	n/a	-999	7	[0, 0, 0]	n/a	catFR1	0	R1406M
1263.494	0.214	1263810	REC_START	n/a	n/a	n/a	n/a	-999	7	[0, 0, 0]	n/a	catFR1	0	R1406M
1263.708	0.69	1264019	REC_WORD	0.214	n/a	RUM	Beverages	1	7	[0, 0, 0]	n/a	catFR1	0	R1406M
1264.398	2.188	1264709	REC_WORD	0.904	n/a	BEER	Beverages	2	7	[0, 0, 0]	n/a	catFR1	0	R1406M
1266.586	3.888	1266897	REC_WORD	3.092	n/a	CUPCAKE	Desserts	9	7	[0, 0, 0]	n/a	catFR1	0	R1406M
1270.474	4.425	1270785	REC_WORD	6.98	n/a	MOUSSE	Desserts	3	7	[0, 0, 0]	n/a	catFR1	0	R1406M
1274.899	0.381	1275210	REC_WORD_VV	11.405	n/a	<>	n/a	-999	7	[0, 0, 0]	n/a	catFR1	0	R1406M
1275.28	4.212	1275591	REC_WORD	11.786	n/a	BOAT	Vehicles	5	7	[0, 0, 0]	n/a	catFR1	0	R1406M
1279.492	5.033	1279802	REC_WORD	15.998	n/a	JUICE	Beverages	7	7	[0, 0, 0]	n/a	catFR1	0	R1406M
1284.525	8.981	1284835	REC_WORD	21.031	n/a	FUDGE	Desserts	10	7	[0, 0, 0]	n/a	catFR1	0	R1406M
1293.506	14.13	1293837	REC_END	n/a	n/a	n/a	n/a	-999	7	[0, 0, 0]	n/a	catFR1	0	R1406M
1307.636	10.0	1307973	COUNTDOWN_START	n/a	n/a	n/a	n/a	-999	8	[0, 0, 0]	n/a	catFR1	0	R1406M
1318.064	1.023	1318370	COUNTDOWN_END	n/a	n/a	n/a	n/a	-999	8	[0, 0, 0]	n/a	catFR1	0	R1406M
1319.087	0.962	1319381	ENCODING_START	n/a	n/a	n/a	n/a	-999	8	[0, 0, 0]	n/a	catFR1	0	R1406M
1320.049	1.6	1320373	WORD	n/a	wordpools/wordpool_categorized_EN.txt	SPARROW	Birds	1	8	[0, 0, 0]	n/a	catFR1	0	R1406M
1321.688	1.148	1321995	WORD_OFF	n/a	n/a	SPARROW	Birds	1	8	[0, 0, 0]	n/a	catFR1	0	R1406M
1322.836	1.6	1323158	WORD	n/a	wordpools/wordpool_categorized_EN.txt	HAWK	Birds	2	8	[0, 0, 0]	n/a	catFR1	0	R1406M
1324.472	0.891	1324780	WORD_OFF	n/a	n/a	HAWK	Birds	2	8	[0, 0, 0]	n/a	catFR1	0	R1406M
1325.363	1.6	1325677	WORD	n/a	wordpools/wordpool_categorized_EN.txt	CHICKEN	FarmAnimals	3	8	[0, 0, 0]	n/a	catFR1	0	R1406M
1326.988	0.983	1327279	WORD_OFF	n/a	n/a	CHICKEN	FarmAnimals	3	8	[0, 0, 0]	n/a	catFR1	0	R1406M
1327.971	1.6	1328290	WORD	n/a	wordpools/wordpool_categorized_EN.txt	CALF	FarmAnimals	4	8	[0, 0, 0]	n/a	catFR1	0	R1406M
1329.606	0.917	1329912	WORD_OFF	n/a	n/a	CALF	FarmAnimals	4	8	[0, 0, 0]	n/a	catFR1	0	R1406M
1330.523	1.6	1330846	WORD	n/a	wordpools/wordpool_categorized_EN.txt	TONGS	KitchenTools	5	8	[0, 0, 0]	n/a	catFR1	0	R1406M
1332.156	0.893	1332449	WORD_OFF	n/a	n/a	TONGS	KitchenTools	5	8	[0, 0, 0]	n/a	catFR1	0	R1406M
1333.049	1.6	1333346	WORD	n/a	wordpools/wordpool_categorized_EN.txt	STRAINER	KitchenTools	6	8	[0, 0, 0]	n/a	catFR1	0	R1406M
1334.674	0.874	1334967	WORD_OFF	n/a	n/a	STRAINER	KitchenTools	6	8	[0, 0, 0]	n/a	catFR1	0	R1406M
1335.548	1.6	1335864	WORD	n/a	wordpools/wordpool_categorized_EN.txt	FINCH	Birds	7	8	[0, 0, 0]	n/a	catFR1	0	R1406M
1337.173	0.898	1337466	WORD_OFF	n/a	n/a	FINCH	Birds	7	8	[0, 0, 0]	n/a	catFR1	0	R1406M
1338.071	1.6	1338382	WORD	n/a	wordpools/wordpool_categorized_EN.txt	DOVE	Birds	8	8	[0, 0, 0]	n/a	catFR1	0	R1406M
1339.708	0.774	1340003	WORD_OFF	n/a	n/a	DOVE	Birds	8	8	[0, 0, 0]	n/a	catFR1	0	R1406M
1340.482	1.6	1340786	WORD	n/a	wordpools/wordpool_categorized_EN.txt	HORSE	FarmAnimals	9	8	[0, 0, 0]	n/a	catFR1	0	R1406M
1342.107	0.941	1342407	WORD_OFF	n/a	n/a	HORSE	FarmAnimals	9	8	[0, 0, 0]	n/a	catFR1	0	R1406M
1343.048	1.6	1343361	WORD	n/a	wordpools/wordpool_categorized_EN.txt	TURKEY	FarmAnimals	10	8	[0, 0, 0]	n/a	catFR1	0	R1406M
1344.659	1.022	1344963	WORD_OFF	n/a	n/a	TURKEY	FarmAnimals	10	8	[0, 0, 0]	n/a	catFR1	0	R1406M
1345.681	1.6	1345994	WORD	n/a	wordpools/wordpool_categorized_EN.txt	SPATULA	KitchenTools	11	8	[0, 0, 0]	n/a	catFR1	0	R1406M
1347.31	0.991	1347615	WORD_OFF	n/a	n/a	SPATULA	KitchenTools	11	8	[0, 0, 0]	n/a	catFR1	0	R1406M
1348.301	1.6	1348607	WORD	n/a	wordpools/wordpool_categorized_EN.txt	COLANDER	KitchenTools	12	8	[0, 0, 0]	n/a	catFR1	0	R1406M
1349.928	0.0	1350235	START	n/a	n/a	n/a	n/a	-999	8	[-999, -999, -999]	n/a	catFR1	0	R1406M
1349.927	0.0	1350248	WORD_OFF	n/a	n/a	COLANDER	KitchenTools	12	8	[0, 0, 0]	n/a	catFR1	0	R1406M
1349.927	0.001	1350248	ENCODING_END	n/a	n/a	n/a	n/a	-999	8	[0, 0, 0]	n/a	catFR1	0	R1406M
1349.928	0.015	1350248	DISTRACT_START	n/a	n/a	n/a	n/a	-999	8	[0, 0, 0]	n/a	catFR1	0	R1406M
1349.943	5.868	1350250	PROB	5.845	n/a	n/a	n/a	-999	8	[3, 6, 1]	10.0	catFR1	0	R1406M
1355.811	7.3	1356117	PROB	7.272	n/a	n/a	n/a	-999	8	[7, 5, 7]	19.0	catFR1	0	R1406M
1363.111	3.702	1363417	PROB	3.677	n/a	n/a	n/a	-999	8	[1, 2, 8]	11.0	catFR1	0	R1406M
1366.813	5.933	1367119	PROB	5.933	n/a	n/a	n/a	-999	8	[3, 9, 3]	15.0	catFR1	0	R1406M
1372.746	0.018	1373052	STOP	n/a	n/a	n/a	n/a	-999	8	[-999, -999, -999]	n/a	catFR1	0	R1406M
1372.764	2.3	1373064	DISTRACT_END	n/a	n/a	n/a	n/a	-999	8	[0, 0, 0]	n/a	catFR1	0	R1406M
1375.064	4.755	1375372	REC_START	n/a	n/a	n/a	n/a	-999	8	[0, 0, 0]	n/a	catFR1	0	R1406M
1379.819	6.944	1380124	REC_WORD	4.755	n/a	FINCH	Birds	7	8	[0, 0, 0]	n/a	catFR1	0	R1406M
1386.763	18.314	1387068	REC_WORD	11.699	n/a	HORSE	FarmAnimals	9	8	[0, 0, 0]	n/a	catFR1	0	R1406M
1405.077	6.645	1405399	REC_END	n/a	n/a	n/a	n/a	-999	8	[0, 0, 0]	n/a	catFR1	0	R1406M
1411.722	10.0	1412057	COUNTDOWN_START	n/a	n/a	n/a	n/a	-999	9	[0, 0, 0]	n/a	catFR1	0	R1406M
1422.151	1.241	1422454	COUNTDOWN_END	n/a	n/a	n/a	n/a	-999	9	[0, 0, 0]	n/a	catFR1	0	R1406M
1423.392	1.008	1423694	ENCODING_START	n/a	n/a	n/a	n/a	-999	9	[0, 0, 0]	n/a	catFR1	0	R1406M
1424.4	1.6	1424705	WORD	n/a	wordpools/wordpool_categorized_EN.txt	LEG	BodyParts	1	9	[0, 0, 0]	n/a	catFR1	0	R1406M
1426.024	1.116	1426326	WORD_OFF	n/a	n/a	LEG	BodyParts	1	9	[0, 0, 0]	n/a	catFR1	0	R1406M
1427.14	1.6	1427452	WORD	n/a	wordpools/wordpool_categorized_EN.txt	NOSE	BodyParts	2	9	[0, 0, 0]	n/a	catFR1	0	R1406M
1428.775	0.957	1429073	WORD_OFF	n/a	n/a	NOSE	BodyParts	2	9	[0, 0, 0]	n/a	catFR1	0	R1406M
1429.732	1.6	1430027	WORD	n/a	wordpools/wordpool_categorized_EN.txt	BROWNIES	Desserts	3	9	[0, 0, 0]	n/a	catFR1	0	R1406M
1431.359	0.804	1431649	WORD_OFF	n/a	n/a	BROWNIES	Desserts	3	9	[0, 0, 0]	n/a	catFR1	0	R1406M
1432.163	1.6	1432469	WORD	n/a	wordpools/wordpool_categorized_EN.txt	PIE	Desserts	4	9	[0, 0, 0]	n/a	catFR1	0	R1406M
1433.793	1.149	1434091	WORD_OFF	n/a	n/a	PIE	Desserts	4	9	[0, 0, 0]	n/a	catFR1	0	R1406M
1434.942	1.6	1435254	WORD	n/a	wordpools/wordpool_categorized_EN.txt	VALLEY	Landscapes	5	9	[0, 0, 0]	n/a	catFR1	0	R1406M
1436.577	0.979	1436876	WORD_OFF	n/a	n/a	VALLEY	Landscapes	5	9	[0, 0, 0]	n/a	catFR1	0	R1406M
1437.556	1.6	1437849	WORD	n/a	wordpools/wordpool_categorized_EN.txt	RIVER	Landscapes	6	9	[0, 0, 0]	n/a	catFR1	0	R1406M
1439.176	0.928	1439470	WORD_OFF	n/a	n/a	RIVER	Landscapes	6	9	[0, 0, 0]	n/a	catFR1	0	R1406M
1440.104	1.6	1440405	WORD	n/a	wordpools/wordpool_categorized_EN.txt	JELLO	Desserts	7	9	[0, 0, 0]	n/a	catFR1	0	R1406M
1441.728	0.834	1442027	WORD_OFF	n/a	n/a	JELLO	Desserts	7	9	[0, 0, 0]	n/a	catFR1	0	R1406M
1442.562	1.6	1442866	WORD	n/a	wordpools/wordpool_categorized_EN.txt	PASTRY	Desserts	8	9	[0, 0, 0]	n/a	catFR1	0	R1406M
1444.194	0.954	1444488	WORD_OFF	n/a	n/a	PASTRY	Desserts	8	9	[0, 0, 0]	n/a	catFR1	0	R1406M
1445.148	1.6	1445460	WORD	n/a	wordpools/wordpool_categorized_EN.txt	FOOT	BodyParts	9	9	[0, 0, 0]	n/a	catFR1	0	R1406M
1446.779	1.069	1447063	WORD_OFF	n/a	n/a	FOOT	BodyParts	9	9	[0, 0, 0]	n/a	catFR1	0	R1406M
1447.848	1.6	1448150	WORD	n/a	wordpools/wordpool_categorized_EN.txt	ELBOW	BodyParts	10	9	[0, 0, 0]	n/a	catFR1	0	R1406M
1449.479	1.131	1449772	WORD_OFF	n/a	n/a	ELBOW	BodyParts	10	9	[0, 0, 0]	n/a	catFR1	0	R1406M
1450.61	1.6	1450916	WORD	n/a	wordpools/wordpool_categorized_EN.txt	MOUNTAIN	Landscapes	11	9	[0, 0, 0]	n/a	catFR1	0	R1406M
1452.245	0.852	1452538	WORD_OFF	n/a	n/a	MOUNTAIN	Landscapes	11	9	[0, 0, 0]	n/a	catFR1	0	R1406M
1453.097	1.6	1453396	WORD	n/a	wordpools/wordpool_categorized_EN.txt	WOODS	Landscapes	12	9	[0, 0, 0]	n/a	catFR1	0	R1406M
1454.715	0.0	1455016	START	n/a	n/a	n/a	n/a	-999	9	[-999, -999, -999]	n/a	catFR1	0	R1406M
1454.714	0.0	1455018	WORD_OFF	n/a	n/a	WOODS	Landscapes	12	9	[0, 0, 0]	n/a	catFR1	0	R1406M
1454.714	0.001	1455018	ENCODING_END	n/a	n/a	n/a	n/a	-999	9	[0, 0, 0]	n/a	catFR1	0	R1406M
1454.715	0.015	1455018	DISTRACT_START	n/a	n/a	n/a	n/a	-999	9	[0, 0, 0]	n/a	catFR1	0	R1406M
1454.73	5.367	1455031	PROB	5.335	n/a	n/a	n/a	-999	9	[5, 8, 1]	14.0	catFR1	0	R1406M
1460.097	4.535	1460398	PROB	4.505	n/a	n/a	n/a	-999	9	[7, 2, 6]	14.0	catFR1	0	R1406M
1464.632	6.751	1464933	PROB	6.725	n/a	n/a	n/a	-999	9	[6, 7, 2]	15.0	catFR1	0	R1406M
1471.383	5.432	1471683	PROB	5.432	n/a	n/a	n/a	-999	9	[5, 6, 2]	13.0	catFR1	0	R1406M
1476.815	0.019	1477115	STOP	n/a	n/a	n/a	n/a	-999	9	[-999, -999, -999]	n/a	catFR1	0	R1406M
1476.834	2.118	1477128	DISTRACT_END	n/a	n/a	n/a	n/a	-999	9	[0, 0, 0]	n/a	catFR1	0	R1406M
1478.952	4.099	1479246	REC_START	n/a	n/a	n/a	n/a	-999	9	[0, 0, 0]	n/a	catFR1	0	R1406M
1483.051	25.537	1483351	REC_WORD	4.099	n/a	PASTRY	Desserts	8	9	[0, 0, 0]	n/a	catFR1	0	R1406M
1508.588	0.378	1508886	REC_WORD	29.636	n/a	SODA	n/a	-999	9	[0, 0, 0]	n/a	catFR1	0	R1406M
1508.966	15.878	1509273	REC_END	n/a	n/a	n/a	n/a	-999	9	[0, 0, 0]	n/a	catFR1	0	R1406M
1524.844	10.0	1525164	COUNTDOWN_START	n/a	n/a	n/a	n/a	-999	10	[0, 0, 0]	n/a	catFR1	0	R1406M
1535.273	1.023	1535561	COUNTDOWN_END	n/a	n/a	n/a	n/a	-999	10	[0, 0, 0]	n/a	catFR1	0	R1406M
1536.296	0.819	1536591	ENCODING_START	n/a	n/a	n/a	n/a	-999	10	[0, 0, 0]	n/a	catFR1	0	R1406M
1537.115	1.6	1537411	WORD	n/a	wordpools/wordpool_categorized_EN.txt	FOUNDATION	Building	1	10	[0, 0, 0]	n/a	catFR1	0	R1406M
1538.73	0.942	1539014	WORD_OFF	n/a	n/a	FOUNDATION	Building	1	10	[0, 0, 0]	n/a	catFR1	0	R1406M
1539.672	1.6	1539967	WORD	n/a	wordpools/wordpool_categorized_EN.txt	BATHROOM	Building	2	10	[0, 0, 0]	n/a	catFR1	0	R1406M
1541.297	0.822	1541589	WORD_OFF	n/a	n/a	BATHROOM	Building	2	10	[0, 0, 0]	n/a	catFR1	0	R1406M
1542.119	1.6	1542409	WORD	n/a	wordpools/wordpool_categorized_EN.txt	BASKETBALL	Toys	3	10	[0, 0, 0]	n/a	catFR1	0	R1406M
1543.731	1.073	1544012	WORD_OFF	n/a	n/a	BASKETBALL	Toys	3	10	[0, 0, 0]	n/a	catFR1	0	R1406M
1544.804	1.6	1545099	WORD	n/a	wordpools/wordpool_categorized_EN.txt	PUZZLE	Toys	4	10	[0, 0, 0]	n/a	catFR1	0	R1406M
1546.431	0.933	1546721	WORD_OFF	n/a	n/a	PUZZLE	Toys	4	10	[0, 0, 0]	n/a	catFR1	0	R1406M
1547.364	1.6	1547675	WORD	n/a	wordpools/wordpool_categorized_EN.txt	CORN	Vegetables	5	10	[0, 0, 0]	n/a	catFR1	0	R1406M
1548.997	1.128	1549277	WORD_OFF	n/a	n/a	CORN	Vegetables	5	10	[0, 0, 0]	n/a	catFR1	0	R1406M
1550.125	1.6	1550422	WORD	n/a	wordpools/wordpool_categorized_EN.txt	CAULIFLOWER	Vegetables	6	10	[0, 0, 0]	n/a	catFR1	0	R1406M
1551.749	0.786	1552043	WORD_OFF	n/a	n/a	CAULIFLOWER	Vegetables	6	10	[0, 0, 0]	n/a	catFR1	0	R1406M
1552.535	1.6	1552844	WORD	n/a	wordpools/wordpool_categorized_EN.txt	FRISBEE	Toys	7	10	[0, 0, 0]	n/a	catFR1	0	R1406M
1554.165	0.965	1554447	WORD_OFF	n/a	n/a	FRISBEE	Toys	7	10	[0, 0, 0]	n/a	catFR1	0	R1406M
1555.13	1.6	1555439	WORD	n/a	wordpools/wordpool_categorized_EN.txt	DOLL	Toys	8	10	[0, 0, 0]	n/a	catFR1	0	R1406M
1556.767	1.131	1557060	WORD_OFF	n/a	n/a	DOLL	Toys	8	10	[0, 0, 0]	n/a	catFR1	0	R1406M
1557.898	1.6	1558205	WORD	n/a	wordpools/wordpool_categorized_EN.txt	WINDOW	Building	9	10	[0, 0, 0]	n/a	catFR1	0	R1406M
1559.534	0.96	1559827	WORD_OFF	n/a	n/a	WINDOW	Building	9	10	[0, 0, 0]	n/a	catFR1	0	R1406M
1560.494	1.6	1560780	WORD	n/a	wordpools/wordpool_categorized_EN.txt	STAIRS	Building	10	10	[0, 0, 0]	n/a	catFR1	0	R1406M
1562.116	0.822	1562402	WORD_OFF	n/a	n/a	STAIRS	Building	10	10	[0, 0, 0]	n/a	catFR1	0	R1406M
1562.938	1.6	1563241	WORD	n/a	wordpools/wordpool_categorized_EN.txt	LETTUCE	Vegetables	11	10	[0, 0, 0]	n/a	catFR1	0	R1406M
1564.568	1.014	1564863	WORD_OFF	n/a	n/a	LETTUCE	Vegetables	11	10	[0, 0, 0]	n/a	catFR1	0	R1406M
1565.582	1.6	1565893	WORD	n/a	wordpools/wordpool_categorized_EN.txt	CELERY	Vegetables	12	10	[0, 0, 0]	n/a	catFR1	0	R1406M
1567.218	0.0	1567513	START	n/a	n/a	n/a	n/a	-999	10	[-999, -999, -999]	n/a	catFR1	0	R1406M
1567.218	0.0	1567514	WORD_OFF	n/a	n/a	CELERY	Vegetables	12	10	[0, 0, 0]	n/a	catFR1	0	R1406M
1567.218	0.0	1567514	ENCODING_END	n/a	n/a	n/a	n/a	-999	10	[0, 0, 0]	n/a	catFR1	0	R1406M
1567.218	0.016	1567514	DISTRACT_START	n/a	n/a	n/a	n/a	-999	10	[0, 0, 0]	n/a	catFR1	0	R1406M
1567.234	4.435	1567529	PROB	4.401	n/a	n/a	n/a	-999	10	[4, 4, 2]	10.0	catFR1	0	R1406M
1571.669	9.852	1571964	PROB	9.822	n/a	n/a	n/a	-999	10	[2, 7, 9]	18.0	catFR1	0	R1406M
1581.521	7.651	1581816	PROB	7.643	n/a	n/a	n/a	-999	10	[9, 5, 7]	18.0	catFR1	0	R1406M
1589.172	0.0	1589453	DISTRACT_END	n/a	n/a	n/a	n/a	-999	10	[0, 0, 0]	n/a	catFR1	0	R1406M
1589.164	2.21	1589458	STOP	n/a	n/a	n/a	n/a	-999	10	[-999, -999, -999]	n/a	catFR1	0	R1406M
1591.374	12.723	1591666	REC_START	n/a	n/a	n/a	n/a	-999	10	[0, 0, 0]	n/a	catFR1	0	R1406M
1604.097	1.272	1604390	REC_WORD	12.723	n/a	TREE	n/a	-999	10	[0, 0, 0]	n/a	catFR1	0	R1406M
1605.369	2.889	1605662	REC_WORD	13.995	n/a	DOLL	Toys	8	10	[0, 0, 0]	n/a	catFR1	0	R1406M
1608.258	1.867	1608551	REC_WORD	16.884	n/a	HOUSE	n/a	-999	10	[0, 0, 0]	n/a	catFR1	0	R1406M
1610.125	1.156	1610418	REC_WORD	18.751	n/a	CAT	n/a	-999	10	[0, 0, 0]	n/a	catFR1	0	R1406M
1611.281	4.167	1611574	REC_WORD	19.907	n/a	BIRD	n/a	-999	10	[0, 0, 0]	n/a	catFR1	0	R1406M
1615.448	5.939	1615741	REC_WORD	24.074	n/a	BEE	Insects	-999	10	[0, 0, 0]	n/a	catFR1	0	R1406M
1621.387	26.131	1621693	REC_END	n/a	n/a	n/a	n/a	-999	10	[0, 0, 0]	n/a	catFR1	0	R1406M
1647.518	10.0	1647828	COUNTDOWN_START	n/a	n/a	n/a	n/a	-999	11	[0, 0, 0]	n/a	catFR1	0	R1406M
1657.946	1.123	1658225	COUNTDOWN_END	n/a	n/a	n/a	n/a	-999	11	[0, 0, 0]	n/a	catFR1	0	R1406M
1659.069	0.787	1659351	ENCODING_START	n/a	n/a	n/a	n/a	-999	11	[0, 0, 0]	n/a	catFR1	0	R1406M
1659.856	1.6	1660152	WORD	n/a	wordpools/wordpool_categorized_EN.txt	BEETLE	Insects	1	11	[0, 0, 0]	n/a	catFR1	0	R1406M
1661.487	0.894	1661773	WORD_OFF	n/a	n/a	BEETLE	Insects	1	11	[0, 0, 0]	n/a	catFR1	0	R1406M
1662.381	1.6	1662670	WORD	n/a	wordpools/wordpool_categorized_EN.txt	ANT	Insects	2	11	[0, 0, 0]	n/a	catFR1	0	R1406M
1664.003	0.807	1664292	WORD_OFF	n/a	n/a	ANT	Insects	2	11	[0, 0, 0]	n/a	catFR1	0	R1406M
1664.81	1.6	1665093	WORD	n/a	wordpools/wordpool_categorized_EN.txt	TAPE	OfficeSupplies	3	11	[0, 0, 0]	n/a	catFR1	0	R1406M
1666.438	0.967	1666714	WORD_OFF	n/a	n/a	TAPE	OfficeSupplies	3	11	[0, 0, 0]	n/a	catFR1	0	R1406M
1667.405	1.6	1667706	WORD	n/a	wordpools/wordpool_categorized_EN.txt	FOLDER	OfficeSupplies	4	11	[0, 0, 0]	n/a	catFR1	0	R1406M
1669.037	0.87	1669328	WORD_OFF	n/a	n/a	FOLDER	OfficeSupplies	4	11	[0, 0, 0]	n/a	catFR1	0	R1406M
1669.907	1.6	1670205	WORD	n/a	wordpools/wordpool_categorized_EN.txt	BUS	Vehicles	5	11	[0, 0, 0]	n/a	catFR1	0	R1406M
1671.539	0.812	1671827	WORD_OFF	n/a	n/a	BUS	Vehicles	5	11	[0, 0, 0]	n/a	catFR1	0	R1406M
1672.351	1.6	1672628	WORD	n/a	wordpools/wordpool_categorized_EN.txt	VAN	Vehicles	6	11	[0, 0, 0]	n/a	catFR1	0	R1406M
1673.972	0.908	1674250	WORD_OFF	n/a	n/a	VAN	Vehicles	6	11	[0, 0, 0]	n/a	catFR1	0	R1406M
1674.88	1.6	1675165	WORD	n/a	wordpools/wordpool_categorized_EN.txt	RULER	OfficeSupplies	7	11	[0, 0, 0]	n/a	catFR1	0	R1406M
1676.506	1.051	1676787	WORD_OFF	n/a	n/a	RULER	OfficeSupplies	7	11	[0, 0, 0]	n/a	catFR1	0	R1406M
1677.557	1.6	1677855	WORD	n/a	wordpools/wordpool_categorized_EN.txt	PENCIL	OfficeSupplies	8	11	[0, 0, 0]	n/a	catFR1	0	R1406M
1679.189	0.773	1679477	WORD_OFF	n/a	n/a	PENCIL	OfficeSupplies	8	11	[0, 0, 0]	n/a	catFR1	0	R1406M
1679.962	1.6	1680259	WORD	n/a	wordpools/wordpool_categorized_EN.txt	TRUCK	Vehicles	9	11	[0, 0, 0]	n/a	catFR1	0	R1406M
1681.591	0.913	1681861	WORD_OFF	n/a	n/a	TRUCK	Vehicles	9	11	[0, 0, 0]	n/a	catFR1	0	R1406M
1682.504	1.6	1682777	WORD	n/a	wordpools/wordpool_categorized_EN.txt	JEEP	Vehicles	10	11	[0, 0, 0]	n/a	catFR1	0	R1406M
1684.123	1.016	1684399	WORD_OFF	n/a	n/a	JEEP	Vehicles	10	11	[0, 0, 0]	n/a	catFR1	0	R1406M
1685.139	1.6	1685429	WORD	n/a	wordpools/wordpool_categorized_EN.txt	SPIDER	Insects	11	11	[0, 0, 0]	n/a	catFR1	0	R1406M
1686.775	0.81	1687050	WORD_OFF	n/a	n/a	SPIDER	Insects	11	11	[0, 0, 0]	n/a	catFR1	0	R1406M
1687.585	1.6	1687871	WORD	n/a	wordpools/wordpool_categorized_EN.txt	ROACH	Insects	12	11	[0, 0, 0]	n/a	catFR1	0	R1406M
1689.209	0.0	1689498	START	n/a	n/a	n/a	n/a	-999	11	[-999, -999, -999]	n/a	catFR1	0	R1406M
1689.208	0.0	1689511	WORD_OFF	n/a	n/a	ROACH	Insects	12	11	[0, 0, 0]	n/a	catFR1	0	R1406M
1689.208	0.001	1689511	ENCODING_END	n/a	n/a	n/a	n/a	-999	11	[0, 0, 0]	n/a	catFR1	0	R1406M
1689.209	0.015	1689511	DISTRACT_START	n/a	n/a	n/a	n/a	-999	11	[0, 0, 0]	n/a	catFR1	0	R1406M
1689.224	4.219	1689513	PROB	4.186	n/a	n/a	n/a	-999	11	[5, 5, 2]	12.0	catFR1	0	R1406M
1693.443	5.534	1693732	PROB	5.51	n/a	n/a	n/a	-999	11	[1, 2, 3]	6.0	catFR1	0	R1406M
1698.977	8.284	1699265	PROB	8.247	n/a	n/a	n/a	-999	11	[7, 8, 6]	21.0	catFR1	0	R1406M
1707.261	5.558	1707549	PROB	5.558	n/a	n/a	n/a	-999	11	[7, 2, 3]	11.0	catFR1	0	R1406M
1712.819	0.011	1713107	STOP	n/a	n/a	n/a	n/a	-999	11	[-999, -999, -999]	n/a	catFR1	0	R1406M
1712.83	2.15	1713109	DISTRACT_END	n/a	n/a	n/a	n/a	-999	11	[0, 0, 0]	n/a	catFR1	0	R1406M
1714.98	6.012	1715265	REC_START	n/a	n/a	n/a	n/a	-999	11	[0, 0, 0]	n/a	catFR1	0	R1406M
1720.992	6.746	1721279	REC_WORD	6.012	n/a	BUCKET	n/a	-999	11	[0, 0, 0]	n/a	catFR1	0	R1406M
1727.738	3.898	1728025	REC_WORD_VV	12.758	n/a	<>	n/a	-999	11	[0, 0, 0]	n/a	catFR1	0	R1406M
1731.636	1.864	1731923	REC_WORD	16.656	n/a	TREE	n/a	-999	11	[0, 0, 0]	n/a	catFR1	0	R1406M
1733.5	5.629	1733787	REC_WORD	18.52	n/a	BUCKET	n/a	-999	11	[0, 0, 0]	n/a	catFR1	0	R1406M
1739.129	5.861	1739415	REC_WORD	24.149	n/a	MOSQUITO	Insects	-999	11	[0, 0, 0]	n/a	catFR1	0	R1406M
1744.99	17.667	1745292	REC_END	n/a	n/a	n/a	n/a	-999	11	[0, 0, 0]	n/a	catFR1	0	R1406M
1762.657	10.0	1762957	COUNTDOWN_START	n/a	n/a	n/a	n/a	-999	12	[0, 0, 0]	n/a	catFR1	0	R1406M
1773.085	1.023	1773373	COUNTDOWN_END	n/a	n/a	n/a	n/a	-999	12	[0, 0, 0]	n/a	catFR1	0	R1406M
1774.108	1.002	1774384	ENCODING_START	n/a	n/a	n/a	n/a	-999	12	[0, 0, 0]	n/a	catFR1	0	R1406M
1775.11	1.6	1775395	WORD	n/a	wordpools/wordpool_categorized_EN.txt	RADIO	Electronics	1	12	[0, 0, 0]	n/a	catFR1	0	R1406M
1776.725	0.887	1776998	WORD_OFF	n/a	n/a	RADIO	Electronics	1	12	[0, 0, 0]	n/a	catFR1	0	R1406M
1777.612	1.6	1777895	WORD	n/a	wordpools/wordpool_categorized_EN.txt	TELEVISION	Electronics	2	12	[0, 0, 0]	n/a	catFR1	0	R1406M
1779.242	0.755	1779516	WORD_OFF	n/a	n/a	TELEVISION	Electronics	2	12	[0, 0, 0]	n/a	catFR1	0	R1406M
1779.997	1.6	1780279	WORD	n/a	wordpools/wordpool_categorized_EN.txt	PEAS	Vegetables	3	12	[0, 0, 0]	n/a	catFR1	0	R1406M
1781.61	0.889	1781882	WORD_OFF	n/a	n/a	PEAS	Vegetables	3	12	[0, 0, 0]	n/a	catFR1	0	R1406M
1782.499	1.6	1782778	WORD	n/a	wordpools/wordpool_categorized_EN.txt	BROCCOLI	Vegetables	4	12	[0, 0, 0]	n/a	catFR1	0	R1406M
1784.126	0.908	1784400	WORD_OFF	n/a	n/a	BROCCOLI	Vegetables	4	12	[0, 0, 0]	n/a	catFR1	0	R1406M
1785.034	1.6	1785315	WORD	n/a	wordpools/wordpool_categorized_EN.txt	ORANGUTAN	Zoo	5	12	[0, 0, 0]	n/a	catFR1	0	R1406M
1786.644	1.083	1786918	WORD_OFF	n/a	n/a	ORANGUTAN	Zoo	5	12	[0, 0, 0]	n/a	catFR1	0	R1406M
1787.727	1.6	1788024	WORD	n/a	wordpools/wordpool_categorized_EN.txt	CHEETAH	Zoo	6	12	[0, 0, 0]	n/a	catFR1	0	R1406M
1789.361	0.967	1789627	WORD_OFF	n/a	n/a	CHEETAH	Zoo	6	12	[0, 0, 0]	n/a	catFR1	0	R1406M
1790.328	1.6	1790619	WORD	n/a	wordpools/wordpool_categorized_EN.txt	POTATO	Vegetables	7	12	[0, 0, 0]	n/a	catFR1	0	R1406M
1791.962	0.779	1792240	WORD_OFF	n/a	n/a	POTATO	Vegetables	7	12	[0, 0, 0]	n/a	catFR1	0	R1406M
1792.741	1.6	1793042	WORD	n/a	wordpools/wordpool_categorized_EN.txt	CARROT	Vegetables	8	12	[0, 0, 0]	n/a	catFR1	0	R1406M
1794.379	0.974	1794644	WORD_OFF	n/a	n/a	CARROT	Vegetables	8	12	[0, 0, 0]	n/a	catFR1	0	R1406M
1795.353	1.6	1795636	WORD	n/a	wordpools/wordpool_categorized_EN.txt	STEREO	Electronics	9	12	[0, 0, 0]	n/a	catFR1	0	R1406M
1796.963	0.851	1797239	WORD_OFF	n/a	n/a	STEREO	Electronics	9	12	[0, 0, 0]	n/a	catFR1	0	R1406M
1797.814	1.6	1798097	WORD	n/a	wordpools/wordpool_categorized_EN.txt	SPEAKER	Electronics	10	12	[0, 0, 0]	n/a	catFR1	0	R1406M
1799.447	0.97	1799719	WORD_OFF	n/a	n/a	SPEAKER	Electronics	10	12	[0, 0, 0]	n/a	catFR1	0	R1406M
1800.417	1.6	1800711	WORD	n/a	wordpools/wordpool_categorized_EN.txt	GORILLA	Zoo	11	12	[0, 0, 0]	n/a	catFR1	0	R1406M
1802.046	0.801	1802313	WORD_OFF	n/a	n/a	GORILLA	Zoo	11	12	[0, 0, 0]	n/a	catFR1	0	R1406M
1802.847	1.6	1803133	WORD	n/a	wordpools/wordpool_categorized_EN.txt	BEAR	Zoo	12	12	[0, 0, 0]	n/a	catFR1	0	R1406M
1804.482	0.0	1804765	START	n/a	n/a	n/a	n/a	-999	12	[-999, -999, -999]	n/a	catFR1	0	R1406M
1804.481	0.001	1804774	WORD_OFF	n/a	n/a	BEAR	Zoo	12	12	[0, 0, 0]	n/a	catFR1	0	R1406M
1804.482	0.0	1804774	ENCODING_END	n/a	n/a	n/a	n/a	-999	12	[0, 0, 0]	n/a	catFR1	0	R1406M
1804.482	0.015	1804774	DISTRACT_START	n/a	n/a	n/a	n/a	-999	12	[0, 0, 0]	n/a	catFR1	0	R1406M
1804.497	7.802	1804780	PROB	7.764	n/a	n/a	n/a	-999	12	[6, 8, 6]	20.0	catFR1	0	R1406M
1812.299	5.318	1812581	PROB	5.282	n/a	n/a	n/a	-999	12	[2, 6, 7]	15.0	catFR1	0	R1406M
1817.617	6.167	1817899	PROB	6.129	n/a	n/a	n/a	-999	12	[5, 3, 3]	11.0	catFR1	0	R1406M
1823.784	4.734	1824066	PROB	4.734	n/a	n/a	n/a	-999	12	[2, 4, 1]	7.0	catFR1	0	R1406M
1828.518	0.018	1828800	STOP	n/a	n/a	n/a	n/a	-999	12	[-999, -999, -999]	n/a	catFR1	0	R1406M
1828.536	2.251	1828811	DISTRACT_END	n/a	n/a	n/a	n/a	-999	12	[0, 0, 0]	n/a	catFR1	0	R1406M
1830.787	17.619	1831062	REC_START	n/a	n/a	n/a	n/a	-999	12	[0, 0, 0]	n/a	catFR1	0	R1406M
1848.406	5.579	1848687	REC_WORD	17.619	n/a	SAND	n/a	-999	12	[0, 0, 0]	n/a	catFR1	0	R1406M
1853.985	6.814	1854265	REC_WORD	23.198	n/a	TOOL	n/a	-999	12	[0, 0, 0]	n/a	catFR1	0	R1406M
1860.799	206.167	1861089	REC_END	n/a	n/a	n/a	n/a	-999	12	[0, 0, 0]	n/a	catFR1	0	R1406M
2066.966	10.0	2067253	COUNTDOWN_START	n/a	n/a	n/a	n/a	-999	13	[0, 0, 0]	n/a	catFR1	0	R1406M
