onset	duration	sample	trial_type	response_time	stim_file	item_name	category	serialpos	list	test	answer	experiment	session	subject
0.0	85.117	-1	SESS_START	n/a	n/a	n/a	n/a	-999	-999	[0, 0, 0]	n/a	catFR1	3	R1065J
85.117	10.0	40284	COUNTDOWN_START	n/a	n/a	n/a	n/a	-999	-999	[0, 0, 0]	n/a	catFR1	3	R1065J
95.545	3.708	50712	COUNTDOWN_END	n/a	n/a	n/a	n/a	-999	-999	[0, 0, 0]	n/a	catFR1	3	R1065J
99.253	1.6	54420	PRACTICE_WORD	n/a	n/a	BEAM	n/a	-999	-999	[0, 0, 0]	n/a	catFR1	3	R1065J
101.702	1.6	56869	PRACTICE_WORD	n/a	n/a	IRON	n/a	-999	-999	[0, 0, 0]	n/a	catFR1	3	R1065J
104.104	1.6	59271	PRACTICE_WORD	n/a	n/a	CAMEL	n/a	-999	-999	[0, 0, 0]	n/a	catFR1	3	R1065J
106.653	1.6	61820	PRACTICE_WORD	n/a	n/a	RING	n/a	-999	-999	[0, 0, 0]	n/a	catFR1	3	R1065J
109.254	1.6	64421	PRACTICE_WORD	n/a	n/a	RHINO	n/a	-999	-999	[0, 0, 0]	n/a	catFR1	3	R1065J
111.787	1.6	66954	PRACTICE_WORD	n/a	n/a	WATCH	n/a	-999	-999	[0, 0, 0]	n/a	catFR1	3	R1065J
114.238	1.6	69405	PRACTICE_WORD	n/a	n/a	TONGUE	n/a	-999	-999	[0, 0, 0]	n/a	catFR1	3	R1065J
116.654	1.6	71821	PRACTICE_WORD	n/a	n/a	CHEST	n/a	-999	-999	[0, 0, 0]	n/a	catFR1	3	R1065J
119.222	1.6	74389	PRACTICE_WORD	n/a	n/a	COTTON	n/a	-999	-999	[0, 0, 0]	n/a	catFR1	3	R1065J
121.738	1.6	76905	PRACTICE_WORD	n/a	n/a	WAGON	n/a	-999	-999	[0, 0, 0]	n/a	catFR1	3	R1065J
124.29	1.6	79457	PRACTICE_WORD	n/a	n/a	ATTIC	n/a	-999	-999	[0, 0, 0]	n/a	catFR1	3	R1065J
126.873	1.6	82040	PRACTICE_WORD	n/a	n/a	FLOOD	n/a	-999	-999	[0, 0, 0]	n/a	catFR1	3	R1065J
128.489	0.001	83656	PRACTICE_DISTRACT_START	n/a	n/a	n/a	n/a	-999	-999	[0, 0, 0]	n/a	catFR1	3	R1065J
128.49	0.016	83657	START	n/a	n/a	n/a	n/a	-999	-1	[-999, -999, -999]	n/a	catFR1	3	R1065J
128.506	2.4	83673	PROB	2.37	n/a	n/a	n/a	-999	-1	[7, 7, 9]	23.0	catFR1	3	R1065J
130.906	2.118	86073	PROB	2.083	n/a	n/a	n/a	-999	-1	[4, 9, 7]	22.0	catFR1	3	R1065J
133.024	1.699	88191	PROB	1.669	n/a	n/a	n/a	-999	-1	[7, 2, 5]	14.0	catFR1	3	R1065J
134.723	1.934	89890	PROB	1.906	n/a	n/a	n/a	-999	-1	[3, 6, 3]	12.0	catFR1	3	R1065J
136.657	1.635	91824	PROB	1.605	n/a	n/a	n/a	-999	-1	[9, 1, 1]	11.0	catFR1	3	R1065J
138.292	2.734	93459	PROB	2.714	n/a	n/a	n/a	-999	-1	[7, 9, 9]	24.0	catFR1	3	R1065J
141.026	1.882	96194	PROB	1.85	n/a	n/a	n/a	-999	-1	[8, 4, 2]	14.0	catFR1	3	R1065J
142.908	1.418	98076	PROB	1.393	n/a	n/a	n/a	-999	-1	[4, 6, 2]	12.0	catFR1	3	R1065J
144.326	1.499	99494	PROB	1.471	n/a	n/a	n/a	-999	-1	[5, 3, 4]	12.0	catFR1	3	R1065J
145.825	1.617	100993	PROB	1.595	n/a	n/a	n/a	-999	-1	[1, 4, 9]	14.0	catFR1	3	R1065J
147.442	3.329	102610	PROB	3.329	n/a	n/a	n/a	-999	-1	[8, 1, 7]	16.0	catFR1	3	R1065J
150.771	0.016	105939	STOP	n/a	n/a	n/a	n/a	-999	-1	[-999, -999, -999]	n/a	catFR1	3	R1065J
150.787	0.602	105955	PRACTICE_DISTRACT_END	n/a	n/a	n/a	n/a	-999	-999	[0, 0, 0]	n/a	catFR1	3	R1065J
151.389	30.515	106557	PRACTICE_REC_START	n/a	n/a	n/a	n/a	-999	-999	[0, 0, 0]	n/a	catFR1	3	R1065J
181.904	4.954	137072	PRACTICE_REC_END	n/a	n/a	n/a	n/a	-999	-999	[0, 0, 0]	n/a	catFR1	3	R1065J
186.858	10.0	142026	COUNTDOWN_START	n/a	n/a	n/a	n/a	-999	1	[0, 0, 0]	n/a	catFR1	3	R1065J
186.859	10.427	142027	TRIAL	n/a	n/a	n/a	n/a	-999	1	[0, 0, 0]	n/a	catFR1	3	R1065J
197.286	0.008	152454	COUNTDOWN_END	n/a	n/a	n/a	n/a	-999	1	[0, 0, 0]	n/a	catFR1	3	R1065J
197.294	1.6	152462	ORIENT	n/a	n/a	n/a	n/a	-999	1	[0, 0, 0]	n/a	catFR1	3	R1065J
200.894	1.6	156062	WORD	n/a	wordpools/wordpool_categorized_EN.txt	CRAB	OceanAnimals	1	1	[0, 0, 0]	n/a	catFR1	3	R1065J
203.345	1.6	158513	WORD	n/a	wordpools/wordpool_categorized_EN.txt	TURTLE	OceanAnimals	2	1	[0, 0, 0]	n/a	catFR1	3	R1065J
205.828	1.6	160996	WORD	n/a	wordpools/wordpool_categorized_EN.txt	CHEESECAKE	Desserts	3	1	[0, 0, 0]	n/a	catFR1	3	R1065J
208.346	1.6	163514	WORD	n/a	wordpools/wordpool_categorized_EN.txt	COOKIE	Desserts	4	1	[0, 0, 0]	n/a	catFR1	3	R1065J
210.879	1.6	166047	WORD	n/a	wordpools/wordpool_categorized_EN.txt	BLOUSE	Clothing	5	1	[0, 0, 0]	n/a	catFR1	3	R1065J
213.413	1.6	168581	WORD	n/a	wordpools/wordpool_categorized_EN.txt	SHORTS	Clothing	6	1	[0, 0, 0]	n/a	catFR1	3	R1065J
215.964	1.6	171132	WORD	n/a	wordpools/wordpool_categorized_EN.txt	CAKE	Desserts	7	1	[0, 0, 0]	n/a	catFR1	3	R1065J
218.413	1.6	173581	WORD	n/a	wordpools/wordpool_categorized_EN.txt	MOUSSE	Desserts	8	1	[0, 0, 0]	n/a	catFR1	3	R1065J
220.83	1.6	175998	WORD	n/a	wordpools/wordpool_categorized_EN.txt	JELLYFISH	OceanAnimals	9	1	[0, 0, 0]	n/a	catFR1	3	R1065J
223.414	1.6	178582	WORD	n/a	wordpools/wordpool_categorized_EN.txt	PLANKTON	OceanAnimals	10	1	[0, 0, 0]	n/a	catFR1	3	R1065J
225.897	1.6	181065	WORD	n/a	wordpools/wordpool_categorized_EN.txt	SHIRT	Clothing	11	1	[0, 0, 0]	n/a	catFR1	3	R1065J
228.481	1.6	183649	WORD	n/a	wordpools/wordpool_categorized_EN.txt	COAT	Clothing	12	1	[0, 0, 0]	n/a	catFR1	3	R1065J
230.082	0.001	185250	DISTRACT_START	n/a	n/a	n/a	n/a	-999	1	[0, 0, 0]	n/a	catFR1	3	R1065J
230.083	0.016	185251	START	n/a	n/a	n/a	n/a	-999	1	[-999, -999, -999]	n/a	catFR1	3	R1065J
230.099	2.383	185267	PROB	2.358	n/a	n/a	n/a	-999	1	[2, 4, 4]	10.0	catFR1	3	R1065J
232.482	2.233	187650	PROB	2.207	n/a	n/a	n/a	-999	1	[1, 7, 2]	10.0	catFR1	3	R1065J
234.715	1.502	189883	PROB	1.471	n/a	n/a	n/a	-999	1	[3, 1, 3]	7.0	catFR1	3	R1065J
236.217	2.632	191385	PROB	2.6	n/a	n/a	n/a	-999	1	[2, 2, 6]	10.0	catFR1	3	R1065J
238.849	1.751	194017	PROB	1.72	n/a	n/a	n/a	-999	1	[8, 2, 9]	19.0	catFR1	3	R1065J
240.6	2.2	195768	PROB	2.169	n/a	n/a	n/a	-999	1	[7, 8, 9]	24.0	catFR1	3	R1065J
242.8	1.65	197968	PROB	1.617	n/a	n/a	n/a	-999	1	[3, 3, 8]	14.0	catFR1	3	R1065J
244.45	2.918	199618	PROB	2.887	n/a	n/a	n/a	-999	1	[9, 4, 9]	22.0	catFR1	3	R1065J
247.368	2.166	202536	PROB	2.145	n/a	n/a	n/a	-999	1	[4, 8, 3]	15.0	catFR1	3	R1065J
249.534	2.01	204702	PROB	2.01	n/a	n/a	n/a	-999	1	[6, 3, 6]	15.0	catFR1	3	R1065J
251.544	0.007	206712	STOP	n/a	n/a	n/a	n/a	-999	1	[-999, -999, -999]	n/a	catFR1	3	R1065J
251.551	1.184	206719	DISTRACT_END	n/a	n/a	n/a	n/a	-999	1	[0, 0, 0]	n/a	catFR1	3	R1065J
252.735	1.679	207903	REC_START	n/a	n/a	n/a	n/a	-999	1	[0, 0, 0]	n/a	catFR1	3	R1065J
254.414	1.204	209582	REC_WORD	1.679	n/a	CRAB	OceanAnimals	1	1	[0, 0, 0]	n/a	catFR1	3	R1065J
255.618	2.127	210786	REC_WORD	2.883	n/a	PLANKTON	OceanAnimals	10	1	[0, 0, 0]	n/a	catFR1	3	R1065J
257.745	0.809	212913	REC_WORD_VV	5.01	n/a	<>	n/a	-999	1	[0, 0, 0]	n/a	catFR1	3	R1065J
258.554	2.638	213722	REC_WORD	5.819	n/a	BLOUSE	Clothing	5	1	[0, 0, 0]	n/a	catFR1	3	R1065J
261.192	21.557	216360	REC_WORD	8.457	n/a	SHIRT	Clothing	11	1	[0, 0, 0]	n/a	catFR1	3	R1065J
282.749	21.31	237917	REC_END	n/a	n/a	n/a	n/a	-999	1	[0, 0, 0]	n/a	catFR1	3	R1065J
304.059	10.0	259228	COUNTDOWN_START	n/a	n/a	n/a	n/a	-999	2	[0, 0, 0]	n/a	catFR1	3	R1065J
304.059	10.428	259228	TRIAL	n/a	n/a	n/a	n/a	-999	2	[0, 0, 0]	n/a	catFR1	3	R1065J
314.487	0.007	269656	COUNTDOWN_END	n/a	n/a	n/a	n/a	-999	2	[0, 0, 0]	n/a	catFR1	3	R1065J
314.494	1.6	269663	ORIENT	n/a	n/a	n/a	n/a	-999	2	[0, 0, 0]	n/a	catFR1	3	R1065J
318.345	1.6	273514	WORD	n/a	wordpools/wordpool_categorized_EN.txt	SPEAKER	Electronics	1	2	[0, 0, 0]	n/a	catFR1	3	R1065J
320.811	1.6	275980	WORD	n/a	wordpools/wordpool_categorized_EN.txt	SCANNER	Electronics	2	2	[0, 0, 0]	n/a	catFR1	3	R1065J
323.428	1.6	278597	WORD	n/a	wordpools/wordpool_categorized_EN.txt	SHEEP	FarmAnimals	3	2	[0, 0, 0]	n/a	catFR1	3	R1065J
325.862	1.6	281031	WORD	n/a	wordpools/wordpool_categorized_EN.txt	HORSE	FarmAnimals	4	2	[0, 0, 0]	n/a	catFR1	3	R1065J
328.462	1.6	283631	WORD	n/a	wordpools/wordpool_categorized_EN.txt	PLUM	Fruit	5	2	[0, 0, 0]	n/a	catFR1	3	R1065J
331.03	1.6	286199	WORD	n/a	wordpools/wordpool_categorized_EN.txt	BLUEBERRY	Fruit	6	2	[0, 0, 0]	n/a	catFR1	3	R1065J
333.563	1.6	288732	WORD	n/a	wordpools/wordpool_categorized_EN.txt	CALF	FarmAnimals	7	2	[0, 0, 0]	n/a	catFR1	3	R1065J
336.081	1.6	291250	WORD	n/a	wordpools/wordpool_categorized_EN.txt	HEN	FarmAnimals	8	2	[0, 0, 0]	n/a	catFR1	3	R1065J
338.497	1.6	293666	WORD	n/a	wordpools/wordpool_categorized_EN.txt	RADIO	Electronics	9	2	[0, 0, 0]	n/a	catFR1	3	R1065J
340.998	1.6	296167	WORD	n/a	wordpools/wordpool_categorized_EN.txt	PRINTER	Electronics	10	2	[0, 0, 0]	n/a	catFR1	3	R1065J
343.481	1.6	298650	WORD	n/a	wordpools/wordpool_categorized_EN.txt	LIME	Fruit	11	2	[0, 0, 0]	n/a	catFR1	3	R1065J
345.999	1.6	301168	WORD	n/a	wordpools/wordpool_categorized_EN.txt	PEACH	Fruit	12	2	[0, 0, 0]	n/a	catFR1	3	R1065J
347.615	0.001	302784	DISTRACT_START	n/a	n/a	n/a	n/a	-999	2	[0, 0, 0]	n/a	catFR1	3	R1065J
347.616	0.015	302785	START	n/a	n/a	n/a	n/a	-999	2	[-999, -999, -999]	n/a	catFR1	3	R1065J
347.631	1.917	302800	PROB	1.895	n/a	n/a	n/a	-999	2	[5, 5, 5]	15.0	catFR1	3	R1065J
349.548	1.685	304717	PROB	1.659	n/a	n/a	n/a	-999	2	[1, 7, 9]	17.0	catFR1	3	R1065J
351.233	2.034	306402	PROB	2.006	n/a	n/a	n/a	-999	2	[3, 2, 3]	8.0	catFR1	3	R1065J
353.267	1.532	308436	PROB	1.507	n/a	n/a	n/a	-999	2	[3, 1, 1]	5.0	catFR1	3	R1065J
354.799	1.6	309968	PROB	1.568	n/a	n/a	n/a	-999	2	[6, 7, 2]	15.0	catFR1	3	R1065J
356.399	1.802	311568	PROB	1.768	n/a	n/a	n/a	-999	2	[3, 2, 2]	7.0	catFR1	3	R1065J
358.201	3.232	313370	PROB	3.205	n/a	n/a	n/a	-999	2	[7, 8, 8]	23.0	catFR1	3	R1065J
361.433	2.017	316602	PROB	1.996	n/a	n/a	n/a	-999	2	[7, 4, 5]	16.0	catFR1	3	R1065J
363.45	1.885	318619	PROB	1.86	n/a	n/a	n/a	-999	2	[9, 3, 3]	15.0	catFR1	3	R1065J
365.335	1.717	320504	PROB	1.695	n/a	n/a	n/a	-999	2	[1, 5, 9]	15.0	catFR1	3	R1065J
367.052	1.818	322221	PROB	1.818	n/a	n/a	n/a	-999	2	[1, 2, 3]	6.0	catFR1	3	R1065J
368.87	0.014	324039	STOP	n/a	n/a	n/a	n/a	-999	2	[-999, -999, -999]	n/a	catFR1	3	R1065J
368.884	1.035	324053	DISTRACT_END	n/a	n/a	n/a	n/a	-999	2	[0, 0, 0]	n/a	catFR1	3	R1065J
369.919	1.017	325088	REC_START	n/a	n/a	n/a	n/a	-999	2	[0, 0, 0]	n/a	catFR1	3	R1065J
370.936	1.241	326105	REC_WORD	1.017	n/a	SHEEP	FarmAnimals	3	2	[0, 0, 0]	n/a	catFR1	3	R1065J
372.177	1.351	327346	REC_WORD	2.258	n/a	CALF	FarmAnimals	7	2	[0, 0, 0]	n/a	catFR1	3	R1065J
373.528	1.208	328697	REC_WORD	3.609	n/a	HORSE	FarmAnimals	4	2	[0, 0, 0]	n/a	catFR1	3	R1065J
374.736	1.406	329905	REC_WORD	4.817	n/a	HEN	FarmAnimals	8	2	[0, 0, 0]	n/a	catFR1	3	R1065J
376.142	1.408	331311	REC_WORD	6.223	n/a	BLUEBERRY	Fruit	6	2	[0, 0, 0]	n/a	catFR1	3	R1065J
377.55	0.94	332719	REC_WORD	7.631	n/a	PLUM	Fruit	5	2	[0, 0, 0]	n/a	catFR1	3	R1065J
378.49	1.013	333659	REC_WORD	8.571	n/a	PEACH	Fruit	12	2	[0, 0, 0]	n/a	catFR1	3	R1065J
379.503	2.735	334672	REC_WORD	9.584	n/a	LIME	Fruit	11	2	[0, 0, 0]	n/a	catFR1	3	R1065J
382.238	1.523	337407	REC_WORD	12.319	n/a	SPEAKER	Electronics	1	2	[0, 0, 0]	n/a	catFR1	3	R1065J
383.761	1.507	338930	REC_WORD	13.842	n/a	SCANNER	Electronics	2	2	[0, 0, 0]	n/a	catFR1	3	R1065J
385.268	14.663	340437	REC_WORD	15.349	n/a	PRINTER	Electronics	10	2	[0, 0, 0]	n/a	catFR1	3	R1065J
399.931	1.993	355100	REC_END	n/a	n/a	n/a	n/a	-999	2	[0, 0, 0]	n/a	catFR1	3	R1065J
401.924	0.0	357093	TRIAL	n/a	n/a	n/a	n/a	-999	3	[0, 0, 0]	n/a	catFR1	3	R1065J
401.924	10.0	357093	COUNTDOWN_START	n/a	n/a	n/a	n/a	-999	3	[0, 0, 0]	n/a	catFR1	3	R1065J
412.352	0.006	367521	COUNTDOWN_END	n/a	n/a	n/a	n/a	-999	3	[0, 0, 0]	n/a	catFR1	3	R1065J
412.358	1.6	367527	ORIENT	n/a	n/a	n/a	n/a	-999	3	[0, 0, 0]	n/a	catFR1	3	R1065J
416.109	1.6	371278	WORD	n/a	wordpools/wordpool_categorized_EN.txt	PEN	OfficeSupplies	1	3	[0, 0, 0]	n/a	catFR1	3	R1065J
418.641	1.6	373810	WORD	n/a	wordpools/wordpool_categorized_EN.txt	MARKER	OfficeSupplies	2	3	[0, 0, 0]	n/a	catFR1	3	R1065J
421.209	1.6	376378	WORD	n/a	wordpools/wordpool_categorized_EN.txt	JEANS	Clothing	3	3	[0, 0, 0]	n/a	catFR1	3	R1065J
423.642	1.6	378811	WORD	n/a	wordpools/wordpool_categorized_EN.txt	UNDERWEAR	Clothing	4	3	[0, 0, 0]	n/a	catFR1	3	R1065J
426.043	1.6	381212	WORD	n/a	wordpools/wordpool_categorized_EN.txt	FORK	KitchenTools	5	3	[0, 0, 0]	n/a	catFR1	3	R1065J
428.526	1.6	383695	WORD	n/a	wordpools/wordpool_categorized_EN.txt	TONGS	KitchenTools	6	3	[0, 0, 0]	n/a	catFR1	3	R1065J
430.994	1.6	386163	WORD	n/a	wordpools/wordpool_categorized_EN.txt	GLUE	OfficeSupplies	7	3	[0, 0, 0]	n/a	catFR1	3	R1065J
433.427	1.6	388596	WORD	n/a	wordpools/wordpool_categorized_EN.txt	ERASER	OfficeSupplies	8	3	[0, 0, 0]	n/a	catFR1	3	R1065J
435.794	1.6	390963	WORD	n/a	wordpools/wordpool_categorized_EN.txt	WHISK	KitchenTools	9	3	[0, 0, 0]	n/a	catFR1	3	R1065J
438.262	1.6	393432	WORD	n/a	wordpools/wordpool_categorized_EN.txt	PEELER	KitchenTools	10	3	[0, 0, 0]	n/a	catFR1	3	R1065J
440.761	1.6	395931	WORD	n/a	wordpools/wordpool_categorized_EN.txt	PANTS	Clothing	11	3	[0, 0, 0]	n/a	catFR1	3	R1065J
443.296	1.6	398466	WORD	n/a	wordpools/wordpool_categorized_EN.txt	JACKET	Clothing	12	3	[0, 0, 0]	n/a	catFR1	3	R1065J
444.912	0.001	400082	DISTRACT_START	n/a	n/a	n/a	n/a	-999	3	[0, 0, 0]	n/a	catFR1	3	R1065J
444.913	0.017	400083	START	n/a	n/a	n/a	n/a	-999	3	[-999, -999, -999]	n/a	catFR1	3	R1065J
444.93	3.1	400100	PROB	3.075	n/a	n/a	n/a	-999	3	[6, 6, 6]	18.0	catFR1	3	R1065J
448.03	1.866	403200	PROB	1.837	n/a	n/a	n/a	-999	3	[3, 6, 3]	12.0	catFR1	3	R1065J
449.896	1.717	405066	PROB	1.691	n/a	n/a	n/a	-999	3	[4, 1, 9]	14.0	catFR1	3	R1065J
451.613	1.668	406783	PROB	1.647	n/a	n/a	n/a	-999	3	[7, 2, 3]	12.0	catFR1	3	R1065J
453.281	2.149	408451	PROB	2.114	n/a	n/a	n/a	-999	3	[8, 6, 4]	18.0	catFR1	3	R1065J
455.43	2.234	410600	PROB	2.205	n/a	n/a	n/a	-999	3	[7, 4, 2]	13.0	catFR1	3	R1065J
457.664	2.867	412834	PROB	2.836	n/a	n/a	n/a	-999	3	[3, 5, 9]	17.0	catFR1	3	R1065J
460.531	1.967	415701	PROB	1.944	n/a	n/a	n/a	-999	3	[9, 9, 1]	20.0	catFR1	3	R1065J
462.498	2.1	417668	PROB	2.073	n/a	n/a	n/a	-999	3	[2, 8, 7]	17.0	catFR1	3	R1065J
464.598	2.981	419768	PROB	2.981	n/a	n/a	n/a	-999	3	[7, 8, 7]	23.0	catFR1	3	R1065J
467.579	0.02	422749	STOP	n/a	n/a	n/a	n/a	-999	3	[-999, -999, -999]	n/a	catFR1	3	R1065J
467.599	1.2	422769	DISTRACT_END	n/a	n/a	n/a	n/a	-999	3	[0, 0, 0]	n/a	catFR1	3	R1065J
468.799	1.804	423969	REC_START	n/a	n/a	n/a	n/a	-999	3	[0, 0, 0]	n/a	catFR1	3	R1065J
470.603	1.053	425773	REC_WORD	1.804	n/a	PEN	OfficeSupplies	1	3	[0, 0, 0]	n/a	catFR1	3	R1065J
471.656	1.208	426826	REC_WORD	2.857	n/a	MARKER	OfficeSupplies	2	3	[0, 0, 0]	n/a	catFR1	3	R1065J
472.864	1.033	428034	REC_WORD	4.065	n/a	GLUE	OfficeSupplies	7	3	[0, 0, 0]	n/a	catFR1	3	R1065J
473.897	1.453	429067	REC_WORD	5.098	n/a	ERASER	OfficeSupplies	8	3	[0, 0, 0]	n/a	catFR1	3	R1065J
475.35	1.331	430520	REC_WORD	6.551	n/a	FORK	KitchenTools	5	3	[0, 0, 0]	n/a	catFR1	3	R1065J
476.681	1.717	431851	REC_WORD	7.882	n/a	TONGS	KitchenTools	6	3	[0, 0, 0]	n/a	catFR1	3	R1065J
478.398	20.413	433568	REC_WORD	9.599	n/a	PEELER	KitchenTools	10	3	[0, 0, 0]	n/a	catFR1	3	R1065J
498.811	2.56	453981	REC_END	n/a	n/a	n/a	n/a	-999	3	[0, 0, 0]	n/a	catFR1	3	R1065J
501.371	10.0	456541	COUNTDOWN_START	n/a	n/a	n/a	n/a	-999	4	[0, 0, 0]	n/a	catFR1	3	R1065J
501.371	10.428	456541	TRIAL	n/a	n/a	n/a	n/a	-999	4	[0, 0, 0]	n/a	catFR1	3	R1065J
511.799	0.006	466969	COUNTDOWN_END	n/a	n/a	n/a	n/a	-999	4	[0, 0, 0]	n/a	catFR1	3	R1065J
511.805	1.6	466975	ORIENT	n/a	n/a	n/a	n/a	-999	4	[0, 0, 0]	n/a	catFR1	3	R1065J
515.456	1.6	470626	WORD	n/a	wordpools/wordpool_categorized_EN.txt	DRESSER	Furniture	1	4	[0, 0, 0]	n/a	catFR1	3	R1065J
518.007	1.6	473177	WORD	n/a	wordpools/wordpool_categorized_EN.txt	COUCH	Furniture	2	4	[0, 0, 0]	n/a	catFR1	3	R1065J
520.556	1.6	475726	WORD	n/a	wordpools/wordpool_categorized_EN.txt	HUMIDITY	Weather	3	4	[0, 0, 0]	n/a	catFR1	3	R1065J
522.924	1.6	478094	WORD	n/a	wordpools/wordpool_categorized_EN.txt	FOG	Weather	4	4	[0, 0, 0]	n/a	catFR1	3	R1065J
525.457	1.6	480627	WORD	n/a	wordpools/wordpool_categorized_EN.txt	ROOSTER	FarmAnimals	5	4	[0, 0, 0]	n/a	catFR1	3	R1065J
528.025	1.6	483195	WORD	n/a	wordpools/wordpool_categorized_EN.txt	LAMB	FarmAnimals	6	4	[0, 0, 0]	n/a	catFR1	3	R1065J
530.641	1.6	485811	WORD	n/a	wordpools/wordpool_categorized_EN.txt	NIGHTSTAND	Furniture	7	4	[0, 0, 0]	n/a	catFR1	3	R1065J
533.276	1.6	488446	WORD	n/a	wordpools/wordpool_categorized_EN.txt	BED	Furniture	8	4	[0, 0, 0]	n/a	catFR1	3	R1065J
535.826	1.6	490996	WORD	n/a	wordpools/wordpool_categorized_EN.txt	BULL	FarmAnimals	9	4	[0, 0, 0]	n/a	catFR1	3	R1065J
538.293	1.6	493463	WORD	n/a	wordpools/wordpool_categorized_EN.txt	CHICKEN	FarmAnimals	10	4	[0, 0, 0]	n/a	catFR1	3	R1065J
540.726	1.6	495896	WORD	n/a	wordpools/wordpool_categorized_EN.txt	THUNDERSTORM	Weather	11	4	[0, 0, 0]	n/a	catFR1	3	R1065J
543.211	1.6	498381	WORD	n/a	wordpools/wordpool_categorized_EN.txt	RAIN	Weather	12	4	[0, 0, 0]	n/a	catFR1	3	R1065J
544.826	0.001	499996	DISTRACT_START	n/a	n/a	n/a	n/a	-999	4	[0, 0, 0]	n/a	catFR1	3	R1065J
544.827	0.016	499997	START	n/a	n/a	n/a	n/a	-999	4	[-999, -999, -999]	n/a	catFR1	3	R1065J
544.843	2.551	500013	PROB	2.527	n/a	n/a	n/a	-999	4	[3, 9, 8]	20.0	catFR1	3	R1065J
547.394	2.634	502564	PROB	2.6	n/a	n/a	n/a	-999	4	[6, 3, 6]	15.0	catFR1	3	R1065J
550.028	1.566	505198	PROB	1.541	n/a	n/a	n/a	-999	4	[6, 1, 1]	8.0	catFR1	3	R1065J
551.594	1.95	506764	PROB	1.919	n/a	n/a	n/a	-999	4	[9, 6, 8]	23.0	catFR1	3	R1065J
553.544	2.602	508714	PROB	2.578	n/a	n/a	n/a	-999	4	[7, 4, 1]	12.0	catFR1	3	R1065J
556.146	1.9	511316	PROB	1.864	n/a	n/a	n/a	-999	4	[7, 2, 8]	17.0	catFR1	3	R1065J
558.046	2.067	513216	PROB	2.044	n/a	n/a	n/a	-999	4	[9, 4, 6]	19.0	catFR1	3	R1065J
560.113	2.1	515283	PROB	2.073	n/a	n/a	n/a	-999	4	[1, 8, 6]	15.0	catFR1	3	R1065J
562.213	1.934	517383	PROB	1.908	n/a	n/a	n/a	-999	4	[4, 6, 6]	16.0	catFR1	3	R1065J
564.147	2.398	519317	PROB	2.398	n/a	n/a	n/a	-999	4	[8, 3, 9]	20.0	catFR1	3	R1065J
566.545	0.018	521715	STOP	n/a	n/a	n/a	n/a	-999	4	[-999, -999, -999]	n/a	catFR1	3	R1065J
566.563	1.151	521733	DISTRACT_END	n/a	n/a	n/a	n/a	-999	4	[0, 0, 0]	n/a	catFR1	3	R1065J
567.714	1.021	522884	REC_START	n/a	n/a	n/a	n/a	-999	4	[0, 0, 0]	n/a	catFR1	3	R1065J
568.735	1.481	523905	REC_WORD	1.021	n/a	DRESSER	Furniture	1	4	[0, 0, 0]	n/a	catFR1	3	R1065J
570.216	0.869	525386	REC_WORD	2.502	n/a	BED	Furniture	8	4	[0, 0, 0]	n/a	catFR1	3	R1065J
571.085	1.0	526255	REC_WORD	3.371	n/a	NIGHTSTAND	Furniture	7	4	[0, 0, 0]	n/a	catFR1	3	R1065J
572.085	2.59	527255	REC_WORD_VV	4.371	n/a	<>	n/a	-999	4	[0, 0, 0]	n/a	catFR1	3	R1065J
574.675	1.664	529845	REC_WORD	6.961	n/a	ROOSTER	FarmAnimals	5	4	[0, 0, 0]	n/a	catFR1	3	R1065J
576.339	1.107	531509	REC_WORD	8.625	n/a	HEN	n/a	-999	4	[0, 0, 0]	n/a	catFR1	3	R1065J
577.446	2.705	532616	REC_WORD	9.732	n/a	BULL	FarmAnimals	9	4	[0, 0, 0]	n/a	catFR1	3	R1065J
580.151	0.974	535321	REC_WORD	12.437	n/a	HUMIDITY	Weather	3	4	[0, 0, 0]	n/a	catFR1	3	R1065J
581.125	16.6	536295	REC_WORD	13.411	n/a	FOG	Weather	4	4	[0, 0, 0]	n/a	catFR1	3	R1065J
597.725	2.126	552896	REC_END	n/a	n/a	n/a	n/a	-999	4	[0, 0, 0]	n/a	catFR1	3	R1065J
599.851	0.0	555022	TRIAL	n/a	n/a	n/a	n/a	-999	5	[0, 0, 0]	n/a	catFR1	3	R1065J
599.851	10.0	555022	COUNTDOWN_START	n/a	n/a	n/a	n/a	-999	5	[0, 0, 0]	n/a	catFR1	3	R1065J
610.279	0.008	565450	COUNTDOWN_END	n/a	n/a	n/a	n/a	-999	5	[0, 0, 0]	n/a	catFR1	3	R1065J
610.287	1.6	565458	ORIENT	n/a	n/a	n/a	n/a	-999	5	[0, 0, 0]	n/a	catFR1	3	R1065J
614.087	1.6	569258	WORD	n/a	wordpools/wordpool_categorized_EN.txt	PUZZLE	Toys	1	5	[0, 0, 0]	n/a	catFR1	3	R1065J
616.52	1.6	571691	WORD	n/a	wordpools/wordpool_categorized_EN.txt	DOLL	Toys	2	5	[0, 0, 0]	n/a	catFR1	3	R1065J
618.938	1.6	574109	WORD	n/a	wordpools/wordpool_categorized_EN.txt	VIOLIN	Instruments	3	5	[0, 0, 0]	n/a	catFR1	3	R1065J
621.372	1.6	576543	WORD	n/a	wordpools/wordpool_categorized_EN.txt	TRUMPET	Instruments	4	5	[0, 0, 0]	n/a	catFR1	3	R1065J
623.804	1.6	578975	WORD	n/a	wordpools/wordpool_categorized_EN.txt	GOAT	FarmAnimals	5	5	[0, 0, 0]	n/a	catFR1	3	R1065J
626.206	1.6	581377	WORD	n/a	wordpools/wordpool_categorized_EN.txt	COW	FarmAnimals	6	5	[0, 0, 0]	n/a	catFR1	3	R1065J
628.588	1.6	583759	WORD	n/a	wordpools/wordpool_categorized_EN.txt	FLUTE	Instruments	7	5	[0, 0, 0]	n/a	catFR1	3	R1065J
631.073	1.6	586244	WORD	n/a	wordpools/wordpool_categorized_EN.txt	CELLO	Instruments	8	5	[0, 0, 0]	n/a	catFR1	3	R1065J
633.606	1.6	588777	WORD	n/a	wordpools/wordpool_categorized_EN.txt	BARBIE	Toys	9	5	[0, 0, 0]	n/a	catFR1	3	R1065J
635.974	1.6	591145	WORD	n/a	wordpools/wordpool_categorized_EN.txt	FOOTBALL	Toys	10	5	[0, 0, 0]	n/a	catFR1	3	R1065J
638.39	1.6	593561	WORD	n/a	wordpools/wordpool_categorized_EN.txt	TURKEY	FarmAnimals	11	5	[0, 0, 0]	n/a	catFR1	3	R1065J
640.907	1.6	596078	WORD	n/a	wordpools/wordpool_categorized_EN.txt	PIG	FarmAnimals	12	5	[0, 0, 0]	n/a	catFR1	3	R1065J
642.524	0.0	597695	DISTRACT_START	n/a	n/a	n/a	n/a	-999	5	[0, 0, 0]	n/a	catFR1	3	R1065J
642.524	0.016	597695	START	n/a	n/a	n/a	n/a	-999	5	[-999, -999, -999]	n/a	catFR1	3	R1065J
642.54	1.967	597711	PROB	1.946	n/a	n/a	n/a	-999	5	[2, 2, 5]	9.0	catFR1	3	R1065J
644.507	2.101	599678	PROB	2.076	n/a	n/a	n/a	-999	5	[8, 4, 4]	16.0	catFR1	3	R1065J
646.608	3.05	601779	PROB	3.022	n/a	n/a	n/a	-999	5	[7, 4, 1]	12.0	catFR1	3	R1065J
649.658	1.685	604829	PROB	1.662	n/a	n/a	n/a	-999	5	[5, 4, 8]	17.0	catFR1	3	R1065J
651.343	2.149	606514	PROB	2.12	n/a	n/a	n/a	-999	5	[3, 6, 4]	13.0	catFR1	3	R1065J
653.492	2.084	608663	PROB	2.051	n/a	n/a	n/a	-999	5	[3, 7, 3]	13.0	catFR1	3	R1065J
655.576	2.867	610747	PROB	2.838	n/a	n/a	n/a	-999	5	[1, 9, 8]	18.0	catFR1	3	R1065J
658.443	3.885	613614	PROB	3.86	n/a	n/a	n/a	-999	5	[6, 3, 4]	13.0	catFR1	3	R1065J
662.328	2.11	617499	PROB	2.11	n/a	n/a	n/a	-999	5	[1, 4, 3]	8.0	catFR1	3	R1065J
664.438	0.006	619609	STOP	n/a	n/a	n/a	n/a	-999	5	[-999, -999, -999]	n/a	catFR1	3	R1065J
664.444	1.187	619615	DISTRACT_END	n/a	n/a	n/a	n/a	-999	5	[0, 0, 0]	n/a	catFR1	3	R1065J
665.631	1.474	620802	REC_START	n/a	n/a	n/a	n/a	-999	5	[0, 0, 0]	n/a	catFR1	3	R1065J
667.105	1.378	622276	REC_WORD	1.474	n/a	BARBIE	Toys	9	5	[0, 0, 0]	n/a	catFR1	3	R1065J
668.483	0.919	623654	REC_WORD	2.852	n/a	DOLL	Toys	2	5	[0, 0, 0]	n/a	catFR1	3	R1065J
669.402	3.334	624573	REC_WORD	3.771	n/a	PUZZLE	Toys	1	5	[0, 0, 0]	n/a	catFR1	3	R1065J
672.736	1.469	627907	REC_WORD	7.105	n/a	TURKEY	FarmAnimals	11	5	[0, 0, 0]	n/a	catFR1	3	R1065J
674.205	10.872	629376	REC_WORD	8.574	n/a	PIG	FarmAnimals	12	5	[0, 0, 0]	n/a	catFR1	3	R1065J
685.077	1.681	640248	REC_WORD	19.446	n/a	VIOLIN	Instruments	3	5	[0, 0, 0]	n/a	catFR1	3	R1065J
686.758	2.392	641929	REC_WORD	21.127	n/a	CELLO	Instruments	8	5	[0, 0, 0]	n/a	catFR1	3	R1065J
689.15	6.488	644321	REC_WORD	23.519	n/a	TRUMPET	Instruments	4	5	[0, 0, 0]	n/a	catFR1	3	R1065J
695.638	1.86	650809	REC_END	n/a	n/a	n/a	n/a	-999	5	[0, 0, 0]	n/a	catFR1	3	R1065J
697.498	0.0	652669	TRIAL	n/a	n/a	n/a	n/a	-999	6	[0, 0, 0]	n/a	catFR1	3	R1065J
697.498	10.0	652669	COUNTDOWN_START	n/a	n/a	n/a	n/a	-999	6	[0, 0, 0]	n/a	catFR1	3	R1065J
707.926	0.008	663097	COUNTDOWN_END	n/a	n/a	n/a	n/a	-999	6	[0, 0, 0]	n/a	catFR1	3	R1065J
707.934	1.6	663105	ORIENT	n/a	n/a	n/a	n/a	-999	6	[0, 0, 0]	n/a	catFR1	3	R1065J
711.667	1.6	666838	WORD	n/a	wordpools/wordpool_categorized_EN.txt	EVERGREEN	Trees	1	6	[0, 0, 0]	n/a	catFR1	3	R1065J
714.101	1.6	669272	WORD	n/a	wordpools/wordpool_categorized_EN.txt	CYPRESS	Trees	2	6	[0, 0, 0]	n/a	catFR1	3	R1065J
716.601	1.6	671772	WORD	n/a	wordpools/wordpool_categorized_EN.txt	SANDER	Tools	3	6	[0, 0, 0]	n/a	catFR1	3	R1065J
719.119	1.6	674290	WORD	n/a	wordpools/wordpool_categorized_EN.txt	CROWBAR	Tools	4	6	[0, 0, 0]	n/a	catFR1	3	R1065J
721.585	1.6	676756	WORD	n/a	wordpools/wordpool_categorized_EN.txt	BROCCOLI	Vegetables	5	6	[0, 0, 0]	n/a	catFR1	3	R1065J
723.97	1.6	679141	WORD	n/a	wordpools/wordpool_categorized_EN.txt	PEAS	Vegetables	6	6	[0, 0, 0]	n/a	catFR1	3	R1065J
726.353	1.6	681524	WORD	n/a	wordpools/wordpool_categorized_EN.txt	OAK	Trees	7	6	[0, 0, 0]	n/a	catFR1	3	R1065J
728.803	1.6	683974	WORD	n/a	wordpools/wordpool_categorized_EN.txt	PINE	Trees	8	6	[0, 0, 0]	n/a	catFR1	3	R1065J
731.371	1.6	686542	WORD	n/a	wordpools/wordpool_categorized_EN.txt	POTATO	Vegetables	9	6	[0, 0, 0]	n/a	catFR1	3	R1065J
733.853	1.6	689025	WORD	n/a	wordpools/wordpool_categorized_EN.txt	CUCUMBER	Vegetables	10	6	[0, 0, 0]	n/a	catFR1	3	R1065J
736.42	1.6	691592	WORD	n/a	wordpools/wordpool_categorized_EN.txt	RATCHET	Tools	11	6	[0, 0, 0]	n/a	catFR1	3	R1065J
738.821	1.6	693993	WORD	n/a	wordpools/wordpool_categorized_EN.txt	HAMMER	Tools	12	6	[0, 0, 0]	n/a	catFR1	3	R1065J
740.438	0.001	695610	DISTRACT_START	n/a	n/a	n/a	n/a	-999	6	[0, 0, 0]	n/a	catFR1	3	R1065J
740.439	0.015	695611	START	n/a	n/a	n/a	n/a	-999	6	[-999, -999, -999]	n/a	catFR1	3	R1065J
740.454	2.367	695626	PROB	2.342	n/a	n/a	n/a	-999	6	[5, 6, 6]	17.0	catFR1	3	R1065J
742.821	1.984	697993	PROB	1.95	n/a	n/a	n/a	-999	6	[8, 4, 4]	16.0	catFR1	3	R1065J
744.805	1.65	699977	PROB	1.615	n/a	n/a	n/a	-999	6	[8, 2, 6]	16.0	catFR1	3	R1065J
746.455	2.051	701627	PROB	2.021	n/a	n/a	n/a	-999	6	[2, 3, 4]	9.0	catFR1	3	R1065J
748.506	2.083	703678	PROB	2.058	n/a	n/a	n/a	-999	6	[5, 6, 4]	15.0	catFR1	3	R1065J
750.589	1.984	705761	PROB	1.951	n/a	n/a	n/a	-999	6	[3, 1, 2]	6.0	catFR1	3	R1065J
752.573	1.784	707745	PROB	1.752	n/a	n/a	n/a	-999	6	[5, 4, 8]	17.0	catFR1	3	R1065J
754.357	1.867	709529	PROB	1.84	n/a	n/a	n/a	-999	6	[4, 9, 9]	22.0	catFR1	3	R1065J
756.224	1.884	711396	PROB	1.861	n/a	n/a	n/a	-999	6	[8, 6, 8]	22.0	catFR1	3	R1065J
758.108	4.208	713280	PROB	4.208	n/a	n/a	n/a	-999	6	[8, 7, 9]	24.0	catFR1	3	R1065J
762.316	0.009	717488	STOP	n/a	n/a	n/a	n/a	-999	6	[-999, -999, -999]	n/a	catFR1	3	R1065J
762.325	1.133	717497	DISTRACT_END	n/a	n/a	n/a	n/a	-999	6	[0, 0, 0]	n/a	catFR1	3	R1065J
763.458	1.255	718630	REC_START	n/a	n/a	n/a	n/a	-999	6	[0, 0, 0]	n/a	catFR1	3	R1065J
764.713	1.055	719885	REC_WORD	1.255	n/a	RATCHET	Tools	11	6	[0, 0, 0]	n/a	catFR1	3	R1065J
765.768	2.173	720940	REC_WORD	2.31	n/a	SANDER	Tools	3	6	[0, 0, 0]	n/a	catFR1	3	R1065J
767.941	2.045	723113	REC_WORD	4.483	n/a	CROWBAR	Tools	4	6	[0, 0, 0]	n/a	catFR1	3	R1065J
769.986	1.168	725158	REC_WORD	6.528	n/a	EVERGREEN	Trees	1	6	[0, 0, 0]	n/a	catFR1	3	R1065J
771.154	1.0	726326	REC_WORD	7.696	n/a	CYPRESS	Trees	2	6	[0, 0, 0]	n/a	catFR1	3	R1065J
772.154	1.408	727326	REC_WORD_VV	8.696	n/a	<>	n/a	-999	6	[0, 0, 0]	n/a	catFR1	3	R1065J
773.562	3.303	728734	REC_WORD	10.104	n/a	OAK	Trees	7	6	[0, 0, 0]	n/a	catFR1	3	R1065J
776.865	1.387	732037	REC_WORD	13.407	n/a	POTATO	Vegetables	9	6	[0, 0, 0]	n/a	catFR1	3	R1065J
778.252	1.18	733424	REC_WORD	14.794	n/a	BROCCOLI	Vegetables	5	6	[0, 0, 0]	n/a	catFR1	3	R1065J
779.432	14.04	734604	REC_WORD	15.974	n/a	CUCUMBER	Vegetables	10	6	[0, 0, 0]	n/a	catFR1	3	R1065J
793.472	1.725	748644	REC_END	n/a	n/a	n/a	n/a	-999	6	[0, 0, 0]	n/a	catFR1	3	R1065J
795.197	0.0	750369	TRIAL	n/a	n/a	n/a	n/a	-999	7	[0, 0, 0]	n/a	catFR1	3	R1065J
795.197	10.0	750369	COUNTDOWN_START	n/a	n/a	n/a	n/a	-999	7	[0, 0, 0]	n/a	catFR1	3	R1065J
805.625	0.005	760797	COUNTDOWN_END	n/a	n/a	n/a	n/a	-999	7	[0, 0, 0]	n/a	catFR1	3	R1065J
805.63	1.6	760802	ORIENT	n/a	n/a	n/a	n/a	-999	7	[0, 0, 0]	n/a	catFR1	3	R1065J
809.497	1.6	764669	WORD	n/a	wordpools/wordpool_categorized_EN.txt	FRISBEE	Toys	1	7	[0, 0, 0]	n/a	catFR1	3	R1065J
812.082	1.6	767254	WORD	n/a	wordpools/wordpool_categorized_EN.txt	BLOCKS	Toys	2	7	[0, 0, 0]	n/a	catFR1	3	R1065J
814.631	1.6	769803	WORD	n/a	wordpools/wordpool_categorized_EN.txt	EYE	BodyParts	3	7	[0, 0, 0]	n/a	catFR1	3	R1065J
817.133	1.6	772305	WORD	n/a	wordpools/wordpool_categorized_EN.txt	KNEE	BodyParts	4	7	[0, 0, 0]	n/a	catFR1	3	R1065J
819.599	1.6	774771	WORD	n/a	wordpools/wordpool_categorized_EN.txt	BINDER	OfficeSupplies	5	7	[0, 0, 0]	n/a	catFR1	3	R1065J
822.184	1.6	777356	WORD	n/a	wordpools/wordpool_categorized_EN.txt	RULER	OfficeSupplies	6	7	[0, 0, 0]	n/a	catFR1	3	R1065J
824.75	1.6	779922	WORD	n/a	wordpools/wordpool_categorized_EN.txt	BASEBALL	Toys	7	7	[0, 0, 0]	n/a	catFR1	3	R1065J
827.201	1.6	782373	WORD	n/a	wordpools/wordpool_categorized_EN.txt	DOLLHOUSE	Toys	8	7	[0, 0, 0]	n/a	catFR1	3	R1065J
829.65	1.6	784822	WORD	n/a	wordpools/wordpool_categorized_EN.txt	FOLDER	OfficeSupplies	9	7	[0, 0, 0]	n/a	catFR1	3	R1065J
832.084	1.6	787256	WORD	n/a	wordpools/wordpool_categorized_EN.txt	PENCIL	OfficeSupplies	10	7	[0, 0, 0]	n/a	catFR1	3	R1065J
834.668	1.6	789840	WORD	n/a	wordpools/wordpool_categorized_EN.txt	ELBOW	BodyParts	11	7	[0, 0, 0]	n/a	catFR1	3	R1065J
837.119	1.6	792291	WORD	n/a	wordpools/wordpool_categorized_EN.txt	NOSE	BodyParts	12	7	[0, 0, 0]	n/a	catFR1	3	R1065J
838.735	0.001	793907	DISTRACT_START	n/a	n/a	n/a	n/a	-999	7	[0, 0, 0]	n/a	catFR1	3	R1065J
838.736	0.016	793908	START	n/a	n/a	n/a	n/a	-999	7	[-999, -999, -999]	n/a	catFR1	3	R1065J
838.752	2.534	793924	PROB	2.514	n/a	n/a	n/a	-999	7	[3, 9, 9]	21.0	catFR1	3	R1065J
841.286	1.751	796458	PROB	1.724	n/a	n/a	n/a	-999	7	[2, 4, 9]	15.0	catFR1	3	R1065J
843.037	1.599	798209	PROB	1.572	n/a	n/a	n/a	-999	7	[2, 3, 1]	6.0	catFR1	3	R1065J
844.636	2.584	799808	PROB	2.558	n/a	n/a	n/a	-999	7	[7, 2, 4]	13.0	catFR1	3	R1065J
847.22	1.633	802392	PROB	1.605	n/a	n/a	n/a	-999	7	[2, 6, 4]	12.0	catFR1	3	R1065J
848.853	1.401	804025	PROB	1.373	n/a	n/a	n/a	-999	7	[6, 2, 1]	9.0	catFR1	3	R1065J
850.254	2.101	805426	PROB	2.076	n/a	n/a	n/a	-999	7	[9, 6, 2]	17.0	catFR1	3	R1065J
852.355	2.082	807527	PROB	2.062	n/a	n/a	n/a	-999	7	[1, 5, 2]	8.0	catFR1	3	R1065J
854.437	1.568	809609	PROB	1.533	n/a	n/a	n/a	-999	7	[6, 2, 1]	9.0	catFR1	3	R1065J
856.005	2.017	811177	PROB	1.981	n/a	n/a	n/a	-999	7	[5, 7, 4]	16.0	catFR1	3	R1065J
858.022	1.675	813194	PROB	1.675	n/a	n/a	n/a	-999	7	[9, 8, 3]	20.0	catFR1	3	R1065J
859.697	0.008	814869	STOP	n/a	n/a	n/a	n/a	-999	7	[-999, -999, -999]	n/a	catFR1	3	R1065J
859.705	1.117	814877	DISTRACT_END	n/a	n/a	n/a	n/a	-999	7	[0, 0, 0]	n/a	catFR1	3	R1065J
860.822	1.209	815994	REC_START	n/a	n/a	n/a	n/a	-999	7	[0, 0, 0]	n/a	catFR1	3	R1065J
862.031	1.277	817203	REC_WORD	1.209	n/a	ELBOW	BodyParts	11	7	[0, 0, 0]	n/a	catFR1	3	R1065J
863.308	1.052	818480	REC_WORD	2.486	n/a	NOSE	BodyParts	12	7	[0, 0, 0]	n/a	catFR1	3	R1065J
864.36	1.287	819532	REC_WORD	3.538	n/a	KNEE	BodyParts	4	7	[0, 0, 0]	n/a	catFR1	3	R1065J
865.647	1.399	820819	REC_WORD	4.825	n/a	EYE	BodyParts	3	7	[0, 0, 0]	n/a	catFR1	3	R1065J
867.046	1.397	822218	REC_WORD	6.224	n/a	RULER	OfficeSupplies	6	7	[0, 0, 0]	n/a	catFR1	3	R1065J
868.443	1.593	823615	REC_WORD	7.621	n/a	BINDER	OfficeSupplies	5	7	[0, 0, 0]	n/a	catFR1	3	R1065J
870.036	7.299	825208	REC_WORD	9.214	n/a	PENCIL	OfficeSupplies	10	7	[0, 0, 0]	n/a	catFR1	3	R1065J
877.335	4.308	832507	REC_WORD	16.513	n/a	BASEBALL	Toys	7	7	[0, 0, 0]	n/a	catFR1	3	R1065J
881.643	9.19	836815	REC_WORD	20.821	n/a	DOLLHOUSE	Toys	8	7	[0, 0, 0]	n/a	catFR1	3	R1065J
890.833	1.61	846006	REC_END	n/a	n/a	n/a	n/a	-999	7	[0, 0, 0]	n/a	catFR1	3	R1065J
892.443	0.0	847616	TRIAL	n/a	n/a	n/a	n/a	-999	8	[0, 0, 0]	n/a	catFR1	3	R1065J
892.443	10.0	847616	COUNTDOWN_START	n/a	n/a	n/a	n/a	-999	8	[0, 0, 0]	n/a	catFR1	3	R1065J
902.871	0.007	858044	COUNTDOWN_END	n/a	n/a	n/a	n/a	-999	8	[0, 0, 0]	n/a	catFR1	3	R1065J
902.878	1.6	858051	ORIENT	n/a	n/a	n/a	n/a	-999	8	[0, 0, 0]	n/a	catFR1	3	R1065J
906.645	1.6	861818	WORD	n/a	wordpools/wordpool_categorized_EN.txt	BATHROOM	Building	1	8	[0, 0, 0]	n/a	catFR1	3	R1065J
909.163	1.6	864336	WORD	n/a	wordpools/wordpool_categorized_EN.txt	WINDOW	Building	2	8	[0, 0, 0]	n/a	catFR1	3	R1065J
911.745	1.6	866918	WORD	n/a	wordpools/wordpool_categorized_EN.txt	VIOLET	Flowers	3	8	[0, 0, 0]	n/a	catFR1	3	R1065J
914.113	1.6	869286	WORD	n/a	wordpools/wordpool_categorized_EN.txt	CARNATION	Flowers	4	8	[0, 0, 0]	n/a	catFR1	3	R1065J
916.646	1.6	871819	WORD	n/a	wordpools/wordpool_categorized_EN.txt	COFFEE	Beverages	5	8	[0, 0, 0]	n/a	catFR1	3	R1065J
919.064	1.6	874237	WORD	n/a	wordpools/wordpool_categorized_EN.txt	JUICE	Beverages	6	8	[0, 0, 0]	n/a	catFR1	3	R1065J
921.496	1.6	876669	WORD	n/a	wordpools/wordpool_categorized_EN.txt	ROSE	Flowers	7	8	[0, 0, 0]	n/a	catFR1	3	R1065J
924.098	1.6	879271	WORD	n/a	wordpools/wordpool_categorized_EN.txt	TULIP	Flowers	8	8	[0, 0, 0]	n/a	catFR1	3	R1065J
926.631	1.6	881804	WORD	n/a	wordpools/wordpool_categorized_EN.txt	CEILING	Building	9	8	[0, 0, 0]	n/a	catFR1	3	R1065J
929.215	1.6	884388	WORD	n/a	wordpools/wordpool_categorized_EN.txt	DOOR	Building	10	8	[0, 0, 0]	n/a	catFR1	3	R1065J
931.715	1.6	886888	WORD	n/a	wordpools/wordpool_categorized_EN.txt	CIDER	Beverages	11	8	[0, 0, 0]	n/a	catFR1	3	R1065J
934.266	1.6	889439	WORD	n/a	wordpools/wordpool_categorized_EN.txt	SODA	Beverages	12	8	[0, 0, 0]	n/a	catFR1	3	R1065J
935.882	0.001	891055	DISTRACT_START	n/a	n/a	n/a	n/a	-999	8	[0, 0, 0]	n/a	catFR1	3	R1065J
935.883	0.015	891056	START	n/a	n/a	n/a	n/a	-999	8	[-999, -999, -999]	n/a	catFR1	3	R1065J
935.898	1.984	891071	PROB	1.948	n/a	n/a	n/a	-999	8	[5, 3, 5]	13.0	catFR1	3	R1065J
937.882	1.901	893055	PROB	1.861	n/a	n/a	n/a	-999	8	[5, 4, 5]	14.0	catFR1	3	R1065J
939.783	1.716	894956	PROB	1.687	n/a	n/a	n/a	-999	8	[4, 6, 9]	19.0	catFR1	3	R1065J
941.499	1.868	896672	PROB	1.844	n/a	n/a	n/a	-999	8	[2, 9, 6]	17.0	catFR1	3	R1065J
943.367	1.601	898540	PROB	1.577	n/a	n/a	n/a	-999	8	[1, 9, 1]	11.0	catFR1	3	R1065J
944.968	1.682	900141	PROB	1.654	n/a	n/a	n/a	-999	8	[3, 5, 5]	13.0	catFR1	3	R1065J
946.65	1.501	901823	PROB	1.47	n/a	n/a	n/a	-999	8	[4, 1, 1]	6.0	catFR1	3	R1065J
948.151	1.967	903324	PROB	1.937	n/a	n/a	n/a	-999	8	[1, 7, 4]	12.0	catFR1	3	R1065J
950.118	1.7	905291	PROB	1.673	n/a	n/a	n/a	-999	8	[8, 2, 6]	16.0	catFR1	3	R1065J
951.818	1.8	906991	PROB	1.772	n/a	n/a	n/a	-999	8	[9, 3, 5]	17.0	catFR1	3	R1065J
953.618	1.8	908791	PROB	1.772	n/a	n/a	n/a	-999	8	[1, 3, 5]	9.0	catFR1	3	R1065J
955.418	1.557	910591	PROB	1.557	n/a	n/a	n/a	-999	8	[8, 1, 1]	10.0	catFR1	3	R1065J
956.975	0.011	912148	STOP	n/a	n/a	n/a	n/a	-999	8	[-999, -999, -999]	n/a	catFR1	3	R1065J
956.986	1.217	912159	DISTRACT_END	n/a	n/a	n/a	n/a	-999	8	[0, 0, 0]	n/a	catFR1	3	R1065J
958.203	1.055	913376	REC_START	n/a	n/a	n/a	n/a	-999	8	[0, 0, 0]	n/a	catFR1	3	R1065J
959.258	0.999	914431	REC_WORD	1.055	n/a	VIOLET	Flowers	3	8	[0, 0, 0]	n/a	catFR1	3	R1065J
960.257	1.487	915430	REC_WORD	2.054	n/a	CARNATION	Flowers	4	8	[0, 0, 0]	n/a	catFR1	3	R1065J
961.744	1.041	916917	REC_WORD	3.541	n/a	ROSE	Flowers	7	8	[0, 0, 0]	n/a	catFR1	3	R1065J
962.785	1.842	917958	REC_WORD	4.582	n/a	TULIP	Flowers	8	8	[0, 0, 0]	n/a	catFR1	3	R1065J
964.627	0.922	919800	REC_WORD	6.424	n/a	BATHROOM	Building	1	8	[0, 0, 0]	n/a	catFR1	3	R1065J
965.549	0.966	920722	REC_WORD	7.346	n/a	WINDOW	Building	2	8	[0, 0, 0]	n/a	catFR1	3	R1065J
966.515	2.163	921688	REC_WORD	8.312	n/a	DOOR	Building	10	8	[0, 0, 0]	n/a	catFR1	3	R1065J
968.678	1.721	923851	REC_WORD	10.475	n/a	CEILING	Building	9	8	[0, 0, 0]	n/a	catFR1	3	R1065J
970.399	1.556	925572	REC_WORD	12.196	n/a	COFFEE	Beverages	5	8	[0, 0, 0]	n/a	catFR1	3	R1065J
971.955	1.937	927128	REC_WORD	13.752	n/a	JUICE	Beverages	6	8	[0, 0, 0]	n/a	catFR1	3	R1065J
973.892	1.922	929065	REC_WORD	15.689	n/a	CIDER	Beverages	11	8	[0, 0, 0]	n/a	catFR1	3	R1065J
975.814	12.404	930987	REC_WORD	17.611	n/a	SODA	Beverages	12	8	[0, 0, 0]	n/a	catFR1	3	R1065J
988.218	5.823	943391	REC_END	n/a	n/a	n/a	n/a	-999	8	[0, 0, 0]	n/a	catFR1	3	R1065J
994.041	10.0	949214	COUNTDOWN_START	n/a	n/a	n/a	n/a	-999	9	[0, 0, 0]	n/a	catFR1	3	R1065J
994.042	10.427	949215	TRIAL	n/a	n/a	n/a	n/a	-999	9	[0, 0, 0]	n/a	catFR1	3	R1065J
1004.469	0.006	959642	COUNTDOWN_END	n/a	n/a	n/a	n/a	-999	9	[0, 0, 0]	n/a	catFR1	3	R1065J
1004.475	1.6	959648	ORIENT	n/a	n/a	n/a	n/a	-999	9	[0, 0, 0]	n/a	catFR1	3	R1065J
1008.027	1.6	963200	WORD	n/a	wordpools/wordpool_categorized_EN.txt	TUBA	Instruments	1	9	[0, 0, 0]	n/a	catFR1	3	R1065J
1010.526	1.6	965699	WORD	n/a	wordpools/wordpool_categorized_EN.txt	DRUM	Instruments	2	9	[0, 0, 0]	n/a	catFR1	3	R1065J
1012.961	1.6	968134	WORD	n/a	wordpools/wordpool_categorized_EN.txt	STAPLER	OfficeSupplies	3	9	[0, 0, 0]	n/a	catFR1	3	R1065J
1015.544	1.6	970717	WORD	n/a	wordpools/wordpool_categorized_EN.txt	PAPER	OfficeSupplies	4	9	[0, 0, 0]	n/a	catFR1	3	R1065J
1018.162	1.6	973335	WORD	n/a	wordpools/wordpool_categorized_EN.txt	HICKORY	Trees	5	9	[0, 0, 0]	n/a	catFR1	3	R1065J
1020.694	1.6	975867	WORD	n/a	wordpools/wordpool_categorized_EN.txt	BIRCH	Trees	6	9	[0, 0, 0]	n/a	catFR1	3	R1065J
1023.096	1.6	978269	WORD	n/a	wordpools/wordpool_categorized_EN.txt	PIANO	Instruments	7	9	[0, 0, 0]	n/a	catFR1	3	R1065J
1025.612	1.6	980785	WORD	n/a	wordpools/wordpool_categorized_EN.txt	TROMBONE	Instruments	8	9	[0, 0, 0]	n/a	catFR1	3	R1065J
1027.996	1.6	983169	WORD	n/a	wordpools/wordpool_categorized_EN.txt	ELM	Trees	9	9	[0, 0, 0]	n/a	catFR1	3	R1065J
1030.596	1.6	985769	WORD	n/a	wordpools/wordpool_categorized_EN.txt	MAPLE	Trees	10	9	[0, 0, 0]	n/a	catFR1	3	R1065J
1033.014	1.6	988188	WORD	n/a	wordpools/wordpool_categorized_EN.txt	NOTEBOOK	OfficeSupplies	11	9	[0, 0, 0]	n/a	catFR1	3	R1065J
1035.48	1.6	990654	WORD	n/a	wordpools/wordpool_categorized_EN.txt	TAPE	OfficeSupplies	12	9	[0, 0, 0]	n/a	catFR1	3	R1065J
1037.098	0.001	992272	DISTRACT_START	n/a	n/a	n/a	n/a	-999	9	[0, 0, 0]	n/a	catFR1	3	R1065J
1037.099	0.015	992273	START	n/a	n/a	n/a	n/a	-999	9	[-999, -999, -999]	n/a	catFR1	3	R1065J
1037.114	2.483	992288	PROB	2.45	n/a	n/a	n/a	-999	9	[2, 9, 7]	18.0	catFR1	3	R1065J
1039.597	1.685	994771	PROB	1.649	n/a	n/a	n/a	-999	9	[3, 6, 7]	16.0	catFR1	3	R1065J
1041.282	1.817	996456	PROB	1.787	n/a	n/a	n/a	-999	9	[3, 3, 9]	15.0	catFR1	3	R1065J
1043.099	1.716	998273	PROB	1.689	n/a	n/a	n/a	-999	9	[4, 3, 6]	13.0	catFR1	3	R1065J
1044.815	1.566	999989	PROB	1.535	n/a	n/a	n/a	-999	9	[4, 5, 3]	12.0	catFR1	3	R1065J
1046.381	2.802	1001555	PROB	2.768	n/a	n/a	n/a	-999	9	[9, 4, 8]	21.0	catFR1	3	R1065J
1049.183	1.767	1004357	PROB	1.733	n/a	n/a	n/a	-999	9	[8, 7, 8]	23.0	catFR1	3	R1065J
1050.95	1.666	1006124	PROB	1.638	n/a	n/a	n/a	-999	9	[5, 5, 8]	18.0	catFR1	3	R1065J
1052.616	1.668	1007790	PROB	1.637	n/a	n/a	n/a	-999	9	[7, 7, 5]	19.0	catFR1	3	R1065J
1054.284	2.099	1009458	PROB	2.073	n/a	n/a	n/a	-999	9	[4, 8, 4]	16.0	catFR1	3	R1065J
1056.383	2.79	1011557	PROB	2.79	n/a	n/a	n/a	-999	9	[6, 5, 4]	15.0	catFR1	3	R1065J
1059.173	0.011	1014347	STOP	n/a	n/a	n/a	n/a	-999	9	[-999, -999, -999]	n/a	catFR1	3	R1065J
1059.184	1.068	1014358	DISTRACT_END	n/a	n/a	n/a	n/a	-999	9	[0, 0, 0]	n/a	catFR1	3	R1065J
1060.252	1.081	1015426	REC_START	n/a	n/a	n/a	n/a	-999	9	[0, 0, 0]	n/a	catFR1	3	R1065J
1061.333	1.111	1016507	REC_WORD	1.081	n/a	STAPLER	OfficeSupplies	3	9	[0, 0, 0]	n/a	catFR1	3	R1065J
1062.444	1.412	1017618	REC_WORD	2.192	n/a	PAPER	OfficeSupplies	4	9	[0, 0, 0]	n/a	catFR1	3	R1065J
1063.856	3.807	1019030	REC_WORD	3.604	n/a	RULER	n/a	-999	9	[0, 0, 0]	n/a	catFR1	3	R1065J
1067.663	1.562	1022837	REC_WORD	7.411	n/a	TRUMPET	n/a	-999	9	[0, 0, 0]	n/a	catFR1	3	R1065J
1069.225	1.309	1024399	REC_WORD	8.973	n/a	TROMBONE	Instruments	8	9	[0, 0, 0]	n/a	catFR1	3	R1065J
1070.534	1.594	1025708	REC_WORD	10.282	n/a	TUBA	Instruments	1	9	[0, 0, 0]	n/a	catFR1	3	R1065J
1072.128	0.588	1027302	REC_WORD	11.876	n/a	DRUM	Instruments	2	9	[0, 0, 0]	n/a	catFR1	3	R1065J
1072.716	4.138	1027890	REC_WORD	12.464	n/a	PIANO	Instruments	7	9	[0, 0, 0]	n/a	catFR1	3	R1065J
1076.854	13.409	1032028	REC_WORD	16.602	n/a	ELM	Trees	9	9	[0, 0, 0]	n/a	catFR1	3	R1065J
1090.263	1.558	1045437	REC_END	n/a	n/a	n/a	n/a	-999	9	[0, 0, 0]	n/a	catFR1	3	R1065J
1091.821	10.0	1046995	COUNTDOWN_START	n/a	n/a	n/a	n/a	-999	10	[0, 0, 0]	n/a	catFR1	3	R1065J
1091.821	10.428	1046995	TRIAL	n/a	n/a	n/a	n/a	-999	10	[0, 0, 0]	n/a	catFR1	3	R1065J
1102.249	0.008	1057423	COUNTDOWN_END	n/a	n/a	n/a	n/a	-999	10	[0, 0, 0]	n/a	catFR1	3	R1065J
1102.257	1.6	1057431	ORIENT	n/a	n/a	n/a	n/a	-999	10	[0, 0, 0]	n/a	catFR1	3	R1065J
1106.258	1.6	1061432	WORD	n/a	wordpools/wordpool_categorized_EN.txt	BANJO	Instruments	1	10	[0, 0, 0]	n/a	catFR1	3	R1065J
1108.641	1.6	1063815	WORD	n/a	wordpools/wordpool_categorized_EN.txt	ORGAN	Instruments	2	10	[0, 0, 0]	n/a	catFR1	3	R1065J
1111.208	1.6	1066382	WORD	n/a	wordpools/wordpool_categorized_EN.txt	DOVE	Birds	3	10	[0, 0, 0]	n/a	catFR1	3	R1065J
1113.725	1.6	1068899	WORD	n/a	wordpools/wordpool_categorized_EN.txt	FINCH	Birds	4	10	[0, 0, 0]	n/a	catFR1	3	R1065J
1116.293	1.6	1071467	WORD	n/a	wordpools/wordpool_categorized_EN.txt	LETTUCE	Vegetables	5	10	[0, 0, 0]	n/a	catFR1	3	R1065J
1118.775	1.6	1073949	WORD	n/a	wordpools/wordpool_categorized_EN.txt	CABBAGE	Vegetables	6	10	[0, 0, 0]	n/a	catFR1	3	R1065J
1121.277	1.6	1076451	WORD	n/a	wordpools/wordpool_categorized_EN.txt	GOOSE	Birds	7	10	[0, 0, 0]	n/a	catFR1	3	R1065J
1123.893	1.6	1079067	WORD	n/a	wordpools/wordpool_categorized_EN.txt	HAWK	Birds	8	10	[0, 0, 0]	n/a	catFR1	3	R1065J
1126.46	1.6	1081634	WORD	n/a	wordpools/wordpool_categorized_EN.txt	BASS	Instruments	9	10	[0, 0, 0]	n/a	catFR1	3	R1065J
1129.045	1.6	1084219	WORD	n/a	wordpools/wordpool_categorized_EN.txt	GUITAR	Instruments	10	10	[0, 0, 0]	n/a	catFR1	3	R1065J
1131.477	1.6	1086651	WORD	n/a	wordpools/wordpool_categorized_EN.txt	CORN	Vegetables	11	10	[0, 0, 0]	n/a	catFR1	3	R1065J
1133.861	1.6	1089035	WORD	n/a	wordpools/wordpool_categorized_EN.txt	SPINACH	Vegetables	12	10	[0, 0, 0]	n/a	catFR1	3	R1065J
1135.478	0.001	1090652	DISTRACT_START	n/a	n/a	n/a	n/a	-999	10	[0, 0, 0]	n/a	catFR1	3	R1065J
1135.479	0.015	1090653	START	n/a	n/a	n/a	n/a	-999	10	[-999, -999, -999]	n/a	catFR1	3	R1065J
1135.494	2.084	1090668	PROB	2.06	n/a	n/a	n/a	-999	10	[1, 4, 1]	6.0	catFR1	3	R1065J
1137.578	1.884	1092752	PROB	1.856	n/a	n/a	n/a	-999	10	[5, 1, 8]	14.0	catFR1	3	R1065J
1139.462	2.1	1094636	PROB	2.076	n/a	n/a	n/a	-999	10	[8, 9, 8]	25.0	catFR1	3	R1065J
1141.562	2.117	1096736	PROB	2.088	n/a	n/a	n/a	-999	10	[7, 6, 1]	14.0	catFR1	3	R1065J
1143.679	2.084	1098853	PROB	2.051	n/a	n/a	n/a	-999	10	[7, 4, 3]	14.0	catFR1	3	R1065J
1145.763	1.683	1100937	PROB	1.655	n/a	n/a	n/a	-999	10	[8, 8, 8]	24.0	catFR1	3	R1065J
1147.446	1.685	1102620	PROB	1.661	n/a	n/a	n/a	-999	10	[6, 6, 9]	21.0	catFR1	3	R1065J
1149.131	1.516	1104305	PROB	1.495	n/a	n/a	n/a	-999	10	[3, 1, 3]	7.0	catFR1	3	R1065J
1150.647	2.167	1105821	PROB	2.131	n/a	n/a	n/a	-999	10	[6, 7, 1]	14.0	catFR1	3	R1065J
1152.814	1.883	1107988	PROB	1.852	n/a	n/a	n/a	-999	10	[5, 6, 2]	13.0	catFR1	3	R1065J
1154.697	1.538	1109871	PROB	1.538	n/a	n/a	n/a	-999	10	[3, 3, 6]	12.0	catFR1	3	R1065J
1156.235	0.013	1111409	STOP	n/a	n/a	n/a	n/a	-999	10	[-999, -999, -999]	n/a	catFR1	3	R1065J
1156.248	1.034	1111422	DISTRACT_END	n/a	n/a	n/a	n/a	-999	10	[0, 0, 0]	n/a	catFR1	3	R1065J
1157.282	1.115	1112456	REC_START	n/a	n/a	n/a	n/a	-999	10	[0, 0, 0]	n/a	catFR1	3	R1065J
1158.397	0.798	1113571	REC_WORD	1.115	n/a	DOVE	Birds	3	10	[0, 0, 0]	n/a	catFR1	3	R1065J
1159.195	1.507	1114369	REC_WORD	1.913	n/a	FINCH	Birds	4	10	[0, 0, 0]	n/a	catFR1	3	R1065J
1160.702	0.78	1115876	REC_WORD	3.42	n/a	GOOSE	Birds	7	10	[0, 0, 0]	n/a	catFR1	3	R1065J
1161.482	1.913	1116656	REC_WORD	4.2	n/a	HAWK	Birds	8	10	[0, 0, 0]	n/a	catFR1	3	R1065J
1163.395	2.434	1118569	REC_WORD	6.113	n/a	CABBAGE	Vegetables	6	10	[0, 0, 0]	n/a	catFR1	3	R1065J
1165.829	2.958	1121003	REC_WORD	8.547	n/a	SPINACH	Vegetables	12	10	[0, 0, 0]	n/a	catFR1	3	R1065J
1168.787	5.228	1123961	REC_WORD	11.505	n/a	CORN	Vegetables	11	10	[0, 0, 0]	n/a	catFR1	3	R1065J
1174.015	0.912	1129189	REC_WORD	16.733	n/a	BASS	Instruments	9	10	[0, 0, 0]	n/a	catFR1	3	R1065J
1174.927	12.37	1130101	REC_WORD	17.645	n/a	GUITAR	Instruments	10	10	[0, 0, 0]	n/a	catFR1	3	R1065J
1187.297	1.673	1142472	REC_END	n/a	n/a	n/a	n/a	-999	10	[0, 0, 0]	n/a	catFR1	3	R1065J
1188.97	0.0	1144145	TRIAL	n/a	n/a	n/a	n/a	-999	11	[0, 0, 0]	n/a	catFR1	3	R1065J
1188.97	10.0	1144145	COUNTDOWN_START	n/a	n/a	n/a	n/a	-999	11	[0, 0, 0]	n/a	catFR1	3	R1065J
1199.398	0.006	1154573	COUNTDOWN_END	n/a	n/a	n/a	n/a	-999	11	[0, 0, 0]	n/a	catFR1	3	R1065J
1199.404	1.6	1154579	ORIENT	n/a	n/a	n/a	n/a	-999	11	[0, 0, 0]	n/a	catFR1	3	R1065J
1203.189	1.6	1158364	WORD	n/a	wordpools/wordpool_categorized_EN.txt	VACUUM	Appliances	1	11	[0, 0, 0]	n/a	catFR1	3	R1065J
1205.571	1.6	1160746	WORD	n/a	wordpools/wordpool_categorized_EN.txt	FREEZER	Appliances	2	11	[0, 0, 0]	n/a	catFR1	3	R1065J
1207.956	1.6	1163131	WORD	n/a	wordpools/wordpool_categorized_EN.txt	CEDAR	Trees	3	11	[0, 0, 0]	n/a	catFR1	3	R1065J
1210.388	1.6	1165563	WORD	n/a	wordpools/wordpool_categorized_EN.txt	WILLOW	Trees	4	11	[0, 0, 0]	n/a	catFR1	3	R1065J
1212.756	1.6	1167931	WORD	n/a	wordpools/wordpool_categorized_EN.txt	SUNFLOWER	Flowers	5	11	[0, 0, 0]	n/a	catFR1	3	R1065J
1215.274	1.6	1170449	WORD	n/a	wordpools/wordpool_categorized_EN.txt	LILY	Flowers	6	11	[0, 0, 0]	n/a	catFR1	3	R1065J
1217.773	1.6	1172948	WORD	n/a	wordpools/wordpool_categorized_EN.txt	WALNUT	Trees	7	11	[0, 0, 0]	n/a	catFR1	3	R1065J
1220.258	1.6	1175433	WORD	n/a	wordpools/wordpool_categorized_EN.txt	SPRUCE	Trees	8	11	[0, 0, 0]	n/a	catFR1	3	R1065J
1222.757	1.6	1177932	WORD	n/a	wordpools/wordpool_categorized_EN.txt	STOVE	Appliances	9	11	[0, 0, 0]	n/a	catFR1	3	R1065J
1225.374	1.6	1180549	WORD	n/a	wordpools/wordpool_categorized_EN.txt	REFRIGERATOR	Appliances	10	11	[0, 0, 0]	n/a	catFR1	3	R1065J
1227.992	1.6	1183167	WORD	n/a	wordpools/wordpool_categorized_EN.txt	DAFFODIL	Flowers	11	11	[0, 0, 0]	n/a	catFR1	3	R1065J
1230.442	1.6	1185617	WORD	n/a	wordpools/wordpool_categorized_EN.txt	PETUNIA	Flowers	12	11	[0, 0, 0]	n/a	catFR1	3	R1065J
1232.059	0.001	1187234	DISTRACT_START	n/a	n/a	n/a	n/a	-999	11	[0, 0, 0]	n/a	catFR1	3	R1065J
1232.06	0.016	1187235	START	n/a	n/a	n/a	n/a	-999	11	[-999, -999, -999]	n/a	catFR1	3	R1065J
1232.076	2.766	1187251	PROB	2.732	n/a	n/a	n/a	-999	11	[5, 9, 6]	20.0	catFR1	3	R1065J
1234.842	1.667	1190017	PROB	1.638	n/a	n/a	n/a	-999	11	[2, 3, 3]	8.0	catFR1	3	R1065J
1236.509	2.585	1191684	PROB	2.556	n/a	n/a	n/a	-999	11	[7, 5, 2]	14.0	catFR1	3	R1065J
1239.094	2.867	1194269	PROB	2.835	n/a	n/a	n/a	-999	11	[3, 4, 6]	13.0	catFR1	3	R1065J
1241.961	1.849	1197136	PROB	1.823	n/a	n/a	n/a	-999	11	[7, 4, 8]	19.0	catFR1	3	R1065J
1243.81	1.767	1198985	PROB	1.741	n/a	n/a	n/a	-999	11	[1, 5, 5]	11.0	catFR1	3	R1065J
1245.577	1.635	1200752	PROB	1.608	n/a	n/a	n/a	-999	11	[2, 2, 6]	10.0	catFR1	3	R1065J
1247.212	1.933	1202387	PROB	1.9	n/a	n/a	n/a	-999	11	[1, 9, 8]	18.0	catFR1	3	R1065J
1249.145	2.067	1204320	PROB	2.039	n/a	n/a	n/a	-999	11	[6, 8, 6]	20.0	catFR1	3	R1065J
1251.212	3.02	1206387	PROB	3.02	n/a	n/a	n/a	-999	11	[7, 9, 5]	21.0	catFR1	3	R1065J
1254.232	0.014	1209407	STOP	n/a	n/a	n/a	n/a	-999	11	[-999, -999, -999]	n/a	catFR1	3	R1065J
1254.246	1.183	1209421	DISTRACT_END	n/a	n/a	n/a	n/a	-999	11	[0, 0, 0]	n/a	catFR1	3	R1065J
1255.429	1.327	1210604	REC_START	n/a	n/a	n/a	n/a	-999	11	[0, 0, 0]	n/a	catFR1	3	R1065J
1256.756	0.966	1211931	REC_WORD	1.327	n/a	DAFFODIL	Flowers	11	11	[0, 0, 0]	n/a	catFR1	3	R1065J
1257.722	2.697	1212897	REC_WORD	2.293	n/a	PETUNIA	Flowers	12	11	[0, 0, 0]	n/a	catFR1	3	R1065J
1260.419	1.861	1215594	REC_WORD	4.99	n/a	SUNFLOWER	Flowers	5	11	[0, 0, 0]	n/a	catFR1	3	R1065J
1262.28	1.461	1217455	REC_WORD	6.851	n/a	FREEZER	Appliances	2	11	[0, 0, 0]	n/a	catFR1	3	R1065J
1263.741	2.055	1218916	REC_WORD	8.312	n/a	REFRIGERATOR	Appliances	10	11	[0, 0, 0]	n/a	catFR1	3	R1065J
1265.796	0.949	1220971	REC_WORD	10.367	n/a	VACUUM	Appliances	1	11	[0, 0, 0]	n/a	catFR1	3	R1065J
1266.745	8.587	1221920	REC_WORD	11.316	n/a	STOVE	Appliances	9	11	[0, 0, 0]	n/a	catFR1	3	R1065J
1275.332	10.105	1230507	REC_WORD	19.903	n/a	CEDAR	Trees	3	11	[0, 0, 0]	n/a	catFR1	3	R1065J
1285.437	1.747	1240612	REC_END	n/a	n/a	n/a	n/a	-999	11	[0, 0, 0]	n/a	catFR1	3	R1065J
1287.184	10.0	1242359	COUNTDOWN_START	n/a	n/a	n/a	n/a	-999	12	[0, 0, 0]	n/a	catFR1	3	R1065J
1287.184	10.428	1242359	TRIAL	n/a	n/a	n/a	n/a	-999	12	[0, 0, 0]	n/a	catFR1	3	R1065J
1297.612	0.006	1252787	COUNTDOWN_END	n/a	n/a	n/a	n/a	-999	12	[0, 0, 0]	n/a	catFR1	3	R1065J
1297.618	1.6	1252793	ORIENT	n/a	n/a	n/a	n/a	-999	12	[0, 0, 0]	n/a	catFR1	3	R1065J
1301.385	1.6	1256560	WORD	n/a	wordpools/wordpool_categorized_EN.txt	ANT	Insects	1	12	[0, 0, 0]	n/a	catFR1	3	R1065J
1303.902	1.6	1259077	WORD	n/a	wordpools/wordpool_categorized_EN.txt	GNAT	Insects	2	12	[0, 0, 0]	n/a	catFR1	3	R1065J
1306.37	1.6	1261545	WORD	n/a	wordpools/wordpool_categorized_EN.txt	CORKSCREW	KitchenTools	3	12	[0, 0, 0]	n/a	catFR1	3	R1065J
1308.869	1.6	1264044	WORD	n/a	wordpools/wordpool_categorized_EN.txt	GRATER	KitchenTools	4	12	[0, 0, 0]	n/a	catFR1	3	R1065J
1311.354	1.6	1266529	WORD	n/a	wordpools/wordpool_categorized_EN.txt	ARM	BodyParts	5	12	[0, 0, 0]	n/a	catFR1	3	R1065J
1313.837	1.6	1269012	WORD	n/a	wordpools/wordpool_categorized_EN.txt	FOOT	BodyParts	6	12	[0, 0, 0]	n/a	catFR1	3	R1065J
1316.238	1.6	1271413	WORD	n/a	wordpools/wordpool_categorized_EN.txt	STRAINER	KitchenTools	7	12	[0, 0, 0]	n/a	catFR1	3	R1065J
1318.854	1.6	1274029	WORD	n/a	wordpools/wordpool_categorized_EN.txt	COLANDER	KitchenTools	8	12	[0, 0, 0]	n/a	catFR1	3	R1065J
1321.272	1.6	1276447	WORD	n/a	wordpools/wordpool_categorized_EN.txt	CRICKET	Insects	9	12	[0, 0, 0]	n/a	catFR1	3	R1065J
1323.805	1.6	1278980	WORD	n/a	wordpools/wordpool_categorized_EN.txt	BEETLE	Insects	10	12	[0, 0, 0]	n/a	catFR1	3	R1065J
1326.256	1.6	1281431	WORD	n/a	wordpools/wordpool_categorized_EN.txt	TOE	BodyParts	11	12	[0, 0, 0]	n/a	catFR1	3	R1065J
1328.739	1.6	1283915	WORD	n/a	wordpools/wordpool_categorized_EN.txt	EAR	BodyParts	12	12	[0, 0, 0]	n/a	catFR1	3	R1065J
1330.34	0.0	1285516	DISTRACT_START	n/a	n/a	n/a	n/a	-999	12	[0, 0, 0]	n/a	catFR1	3	R1065J
1330.34	0.017	1285516	START	n/a	n/a	n/a	n/a	-999	12	[-999, -999, -999]	n/a	catFR1	3	R1065J
1330.357	1.733	1285533	PROB	1.698	n/a	n/a	n/a	-999	12	[5, 3, 1]	9.0	catFR1	3	R1065J
1332.09	1.766	1287266	PROB	1.731	n/a	n/a	n/a	-999	12	[9, 3, 3]	15.0	catFR1	3	R1065J
1333.856	3.001	1289032	PROB	2.965	n/a	n/a	n/a	-999	12	[4, 2, 7]	13.0	catFR1	3	R1065J
1336.857	1.717	1292033	PROB	1.692	n/a	n/a	n/a	-999	12	[3, 6, 4]	13.0	catFR1	3	R1065J
1338.574	2.551	1293750	PROB	2.52	n/a	n/a	n/a	-999	12	[1, 9, 9]	19.0	catFR1	3	R1065J
1341.125	1.699	1296301	PROB	1.68	n/a	n/a	n/a	-999	12	[5, 4, 3]	12.0	catFR1	3	R1065J
1342.824	1.834	1298000	PROB	1.797	n/a	n/a	n/a	-999	12	[4, 7, 7]	18.0	catFR1	3	R1065J
1344.658	1.8	1299834	PROB	1.779	n/a	n/a	n/a	-999	12	[7, 5, 7]	19.0	catFR1	3	R1065J
1346.458	2.635	1301634	PROB	2.604	n/a	n/a	n/a	-999	12	[9, 3, 7]	19.0	catFR1	3	R1065J
1349.093	1.808	1304269	PROB	1.808	n/a	n/a	n/a	-999	12	[9, 7, 1]	17.0	catFR1	3	R1065J
1350.901	0.008	1306077	STOP	n/a	n/a	n/a	n/a	-999	12	[-999, -999, -999]	n/a	catFR1	3	R1065J
1350.909	1.085	1306085	DISTRACT_END	n/a	n/a	n/a	n/a	-999	12	[0, 0, 0]	n/a	catFR1	3	R1065J
1351.994	1.405	1307170	REC_START	n/a	n/a	n/a	n/a	-999	12	[0, 0, 0]	n/a	catFR1	3	R1065J
1353.399	1.391	1308575	REC_WORD	1.405	n/a	ANT	Insects	1	12	[0, 0, 0]	n/a	catFR1	3	R1065J
1354.79	1.253	1309966	REC_WORD	2.796	n/a	GNAT	Insects	2	12	[0, 0, 0]	n/a	catFR1	3	R1065J
1356.043	3.18	1311219	REC_WORD	4.049	n/a	BEETLE	Insects	10	12	[0, 0, 0]	n/a	catFR1	3	R1065J
1359.223	1.54	1314399	REC_WORD	7.229	n/a	ARM	BodyParts	5	12	[0, 0, 0]	n/a	catFR1	3	R1065J
1360.763	0.878	1315939	REC_WORD	8.769	n/a	FOOT	BodyParts	6	12	[0, 0, 0]	n/a	catFR1	3	R1065J
1361.641	4.934	1316817	REC_WORD	9.647	n/a	TOE	BodyParts	11	12	[0, 0, 0]	n/a	catFR1	3	R1065J
1366.575	1.039	1321751	REC_WORD	14.581	n/a	STRAINER	KitchenTools	7	12	[0, 0, 0]	n/a	catFR1	3	R1065J
1367.614	1.175	1322790	REC_WORD	15.62	n/a	COLANDER	KitchenTools	8	12	[0, 0, 0]	n/a	catFR1	3	R1065J
1368.789	3.423	1323965	REC_WORD	16.795	n/a	CORKSCREW	KitchenTools	3	12	[0, 0, 0]	n/a	catFR1	3	R1065J
1372.212	9.793	1327388	REC_WORD	20.218	n/a	EAR	BodyParts	12	12	[0, 0, 0]	n/a	catFR1	3	R1065J
1382.005	1.708	1337181	REC_END	n/a	n/a	n/a	n/a	-999	12	[0, 0, 0]	n/a	catFR1	3	R1065J
1383.713	10.0	1338889	COUNTDOWN_START	n/a	n/a	n/a	n/a	-999	13	[0, 0, 0]	n/a	catFR1	3	R1065J
1383.714	10.427	1338890	TRIAL	n/a	n/a	n/a	n/a	-999	13	[0, 0, 0]	n/a	catFR1	3	R1065J
1394.141	0.008	1349317	COUNTDOWN_END	n/a	n/a	n/a	n/a	-999	13	[0, 0, 0]	n/a	catFR1	3	R1065J
1394.149	1.6	1349325	ORIENT	n/a	n/a	n/a	n/a	-999	13	[0, 0, 0]	n/a	catFR1	3	R1065J
1397.782	1.6	1352958	WORD	n/a	wordpools/wordpool_categorized_EN.txt	LION	Zoo	1	13	[0, 0, 0]	n/a	catFR1	3	R1065J
1400.317	1.6	1355493	WORD	n/a	wordpools/wordpool_categorized_EN.txt	BEAR	Zoo	2	13	[0, 0, 0]	n/a	catFR1	3	R1065J
1402.883	1.6	1358059	WORD	n/a	wordpools/wordpool_categorized_EN.txt	ONION	Vegetables	3	13	[0, 0, 0]	n/a	catFR1	3	R1065J
1405.351	1.6	1360527	WORD	n/a	wordpools/wordpool_categorized_EN.txt	CAULIFLOWER	Vegetables	4	13	[0, 0, 0]	n/a	catFR1	3	R1065J
1407.901	1.6	1363077	WORD	n/a	wordpools/wordpool_categorized_EN.txt	SKIRT	Clothing	5	13	[0, 0, 0]	n/a	catFR1	3	R1065J
1410.418	1.6	1365594	WORD	n/a	wordpools/wordpool_categorized_EN.txt	SHOES	Clothing	6	13	[0, 0, 0]	n/a	catFR1	3	R1065J
1412.884	1.6	1368060	WORD	n/a	wordpools/wordpool_categorized_EN.txt	ELEPHANT	Zoo	7	13	[0, 0, 0]	n/a	catFR1	3	R1065J
1415.452	1.6	1370628	WORD	n/a	wordpools/wordpool_categorized_EN.txt	PANDA	Zoo	8	13	[0, 0, 0]	n/a	catFR1	3	R1065J
1418.02	1.6	1373196	WORD	n/a	wordpools/wordpool_categorized_EN.txt	SOCKS	Clothing	9	13	[0, 0, 0]	n/a	catFR1	3	R1065J
1420.436	1.6	1375612	WORD	n/a	wordpools/wordpool_categorized_EN.txt	DRESS	Clothing	10	13	[0, 0, 0]	n/a	catFR1	3	R1065J
1423.054	1.6	1378230	WORD	n/a	wordpools/wordpool_categorized_EN.txt	CELERY	Vegetables	11	13	[0, 0, 0]	n/a	catFR1	3	R1065J
1425.603	1.6	1380779	WORD	n/a	wordpools/wordpool_categorized_EN.txt	CARROT	Vegetables	12	13	[0, 0, 0]	n/a	catFR1	3	R1065J
1427.204	0.001	1382380	DISTRACT_START	n/a	n/a	n/a	n/a	-999	13	[0, 0, 0]	n/a	catFR1	3	R1065J
1427.205	0.016	1382381	START	n/a	n/a	n/a	n/a	-999	13	[-999, -999, -999]	n/a	catFR1	3	R1065J
1427.221	3.633	1382397	PROB	3.606	n/a	n/a	n/a	-999	13	[4, 5, 4]	13.0	catFR1	3	R1065J
1430.854	2.017	1386030	PROB	1.981	n/a	n/a	n/a	-999	13	[7, 9, 7]	23.0	catFR1	3	R1065J
1432.871	4.468	1388047	PROB	4.437	n/a	n/a	n/a	-999	13	[8, 6, 7]	24.0	catFR1	3	R1065J
1437.339	2.0	1392515	PROB	1.977	n/a	n/a	n/a	-999	13	[6, 9, 1]	16.0	catFR1	3	R1065J
1439.339	2.034	1394515	PROB	2.001	n/a	n/a	n/a	-999	13	[4, 3, 7]	14.0	catFR1	3	R1065J
1441.373	1.767	1396549	PROB	1.734	n/a	n/a	n/a	-999	13	[7, 1, 7]	15.0	catFR1	3	R1065J
1443.14	1.833	1398316	PROB	1.8	n/a	n/a	n/a	-999	13	[2, 8, 7]	17.0	catFR1	3	R1065J
1444.973	1.766	1400149	PROB	1.741	n/a	n/a	n/a	-999	13	[9, 4, 1]	14.0	catFR1	3	R1065J
1446.739	2.281	1401915	PROB	2.281	n/a	n/a	n/a	-999	13	[9, 4, 2]	15.0	catFR1	3	R1065J
1449.02	0.004	1404196	STOP	n/a	n/a	n/a	n/a	-999	13	[-999, -999, -999]	n/a	catFR1	3	R1065J
1449.024	1.184	1404200	DISTRACT_END	n/a	n/a	n/a	n/a	-999	13	[0, 0, 0]	n/a	catFR1	3	R1065J
1450.208	1.348	1405384	REC_START	n/a	n/a	n/a	n/a	-999	13	[0, 0, 0]	n/a	catFR1	3	R1065J
1451.556	0.948	1406732	REC_WORD	1.348	n/a	CARROT	Vegetables	12	13	[0, 0, 0]	n/a	catFR1	3	R1065J
1452.504	1.208	1407680	REC_WORD	2.296	n/a	CELERY	Vegetables	11	13	[0, 0, 0]	n/a	catFR1	3	R1065J
1453.712	1.926	1408888	REC_WORD	3.504	n/a	CAULIFLOWER	Vegetables	4	13	[0, 0, 0]	n/a	catFR1	3	R1065J
1455.638	2.087	1410814	REC_WORD	5.43	n/a	ONION	Vegetables	3	13	[0, 0, 0]	n/a	catFR1	3	R1065J
1457.725	1.314	1412901	REC_WORD	7.517	n/a	SHOES	Clothing	6	13	[0, 0, 0]	n/a	catFR1	3	R1065J
1459.039	1.564	1414215	REC_WORD	8.831	n/a	SOCKS	Clothing	9	13	[0, 0, 0]	n/a	catFR1	3	R1065J
1460.603	2.619	1415779	REC_WORD	10.395	n/a	SKIRT	Clothing	5	13	[0, 0, 0]	n/a	catFR1	3	R1065J
1463.222	13.107	1418398	REC_WORD	13.014	n/a	DRESS	Clothing	10	13	[0, 0, 0]	n/a	catFR1	3	R1065J
1476.329	0.875	1431505	REC_WORD	26.121	n/a	PANDA	Zoo	8	13	[0, 0, 0]	n/a	catFR1	3	R1065J
1477.204	1.621	1432380	REC_WORD	26.996	n/a	ELEPHANT	Zoo	7	13	[0, 0, 0]	n/a	catFR1	3	R1065J
1478.825	0.98	1434002	REC_WORD	28.617	n/a	LION	Zoo	1	13	[0, 0, 0]	n/a	catFR1	3	R1065J
1479.805	0.419	1434982	REC_WORD	29.597	n/a	BEAR	Zoo	2	13	[0, 0, 0]	n/a	catFR1	3	R1065J
1480.224	3.772	1435401	REC_END	n/a	n/a	n/a	n/a	-999	13	[0, 0, 0]	n/a	catFR1	3	R1065J
1483.996	0.0	1439173	TRIAL	n/a	n/a	n/a	n/a	-999	14	[0, 0, 0]	n/a	catFR1	3	R1065J
1483.996	10.0	1439173	COUNTDOWN_START	n/a	n/a	n/a	n/a	-999	14	[0, 0, 0]	n/a	catFR1	3	R1065J
1494.424	0.006	1449601	COUNTDOWN_END	n/a	n/a	n/a	n/a	-999	14	[0, 0, 0]	n/a	catFR1	3	R1065J
1494.43	1.6	1449607	ORIENT	n/a	n/a	n/a	n/a	-999	14	[0, 0, 0]	n/a	catFR1	3	R1065J
1498.198	1.6	1453375	WORD	n/a	wordpools/wordpool_categorized_EN.txt	OVEN	Appliances	1	14	[0, 0, 0]	n/a	catFR1	3	R1065J
1500.714	1.6	1455891	WORD	n/a	wordpools/wordpool_categorized_EN.txt	MIXER	Appliances	2	14	[0, 0, 0]	n/a	catFR1	3	R1065J
1503.165	1.6	1458342	WORD	n/a	wordpools/wordpool_categorized_EN.txt	CREEK	Landscapes	3	14	[0, 0, 0]	n/a	catFR1	3	R1065J
1505.731	1.6	1460908	WORD	n/a	wordpools/wordpool_categorized_EN.txt	MOUNTAIN	Landscapes	4	14	[0, 0, 0]	n/a	catFR1	3	R1065J
1508.116	1.6	1463293	WORD	n/a	wordpools/wordpool_categorized_EN.txt	WIND	Weather	5	14	[0, 0, 0]	n/a	catFR1	3	R1065J
1510.632	1.6	1465809	WORD	n/a	wordpools/wordpool_categorized_EN.txt	SNOW	Weather	6	14	[0, 0, 0]	n/a	catFR1	3	R1065J
1513.133	1.6	1468310	WORD	n/a	wordpools/wordpool_categorized_EN.txt	WASHER	Appliances	7	14	[0, 0, 0]	n/a	catFR1	3	R1065J
1515.599	1.6	1470776	WORD	n/a	wordpools/wordpool_categorized_EN.txt	IRON	Appliances	8	14	[0, 0, 0]	n/a	catFR1	3	R1065J
1518.101	1.6	1473278	WORD	n/a	wordpools/wordpool_categorized_EN.txt	THUNDER	Weather	9	14	[0, 0, 0]	n/a	catFR1	3	R1065J
1520.517	1.6	1475694	WORD	n/a	wordpools/wordpool_categorized_EN.txt	DRIZZLE	Weather	10	14	[0, 0, 0]	n/a	catFR1	3	R1065J
1523.118	1.6	1478295	WORD	n/a	wordpools/wordpool_categorized_EN.txt	STREAM	Landscapes	11	14	[0, 0, 0]	n/a	catFR1	3	R1065J
1525.684	1.6	1480861	WORD	n/a	wordpools/wordpool_categorized_EN.txt	FOREST	Landscapes	12	14	[0, 0, 0]	n/a	catFR1	3	R1065J
1527.285	0.001	1482462	DISTRACT_START	n/a	n/a	n/a	n/a	-999	14	[0, 0, 0]	n/a	catFR1	3	R1065J
1527.286	0.016	1482463	START	n/a	n/a	n/a	n/a	-999	14	[-999, -999, -999]	n/a	catFR1	3	R1065J
1527.302	2.216	1482479	PROB	2.195	n/a	n/a	n/a	-999	14	[4, 6, 3]	13.0	catFR1	3	R1065J
1529.518	1.668	1484695	PROB	1.644	n/a	n/a	n/a	-999	14	[6, 4, 2]	12.0	catFR1	3	R1065J
1531.186	1.75	1486363	PROB	1.726	n/a	n/a	n/a	-999	14	[1, 3, 5]	9.0	catFR1	3	R1065J
1532.936	1.6	1488113	PROB	1.577	n/a	n/a	n/a	-999	14	[2, 3, 3]	8.0	catFR1	3	R1065J
1534.536	1.9	1489713	PROB	1.873	n/a	n/a	n/a	-999	14	[3, 8, 7]	18.0	catFR1	3	R1065J
1536.436	1.668	1491613	PROB	1.645	n/a	n/a	n/a	-999	14	[1, 8, 6]	15.0	catFR1	3	R1065J
1538.104	1.415	1493281	PROB	1.392	n/a	n/a	n/a	-999	14	[2, 8, 1]	11.0	catFR1	3	R1065J
1539.519	1.768	1494696	PROB	1.747	n/a	n/a	n/a	-999	14	[5, 6, 8]	19.0	catFR1	3	R1065J
1541.287	1.55	1496464	PROB	1.521	n/a	n/a	n/a	-999	14	[1, 4, 2]	7.0	catFR1	3	R1065J
1542.837	1.7	1498014	PROB	1.667	n/a	n/a	n/a	-999	14	[1, 1, 8]	10.0	catFR1	3	R1065J
1544.537	1.967	1499714	PROB	1.935	n/a	n/a	n/a	-999	14	[8, 5, 6]	19.0	catFR1	3	R1065J
1546.504	2.056	1501681	PROB	2.056	n/a	n/a	n/a	-999	14	[1, 8, 5]	14.0	catFR1	3	R1065J
1548.56	0.011	1503737	STOP	n/a	n/a	n/a	n/a	-999	14	[-999, -999, -999]	n/a	catFR1	3	R1065J
1548.571	1.184	1503748	DISTRACT_END	n/a	n/a	n/a	n/a	-999	14	[0, 0, 0]	n/a	catFR1	3	R1065J
1549.755	1.425	1504932	REC_START	n/a	n/a	n/a	n/a	-999	14	[0, 0, 0]	n/a	catFR1	3	R1065J
1551.18	1.394	1506357	REC_WORD	1.425	n/a	STREAM	Landscapes	11	14	[0, 0, 0]	n/a	catFR1	3	R1065J
1552.574	1.044	1507751	REC_WORD	2.819	n/a	CREEK	Landscapes	3	14	[0, 0, 0]	n/a	catFR1	3	R1065J
1553.618	2.213	1508795	REC_WORD	3.863	n/a	FOREST	Landscapes	12	14	[0, 0, 0]	n/a	catFR1	3	R1065J
1555.831	1.707	1511008	REC_WORD	6.076	n/a	MOUNTAIN	Landscapes	4	14	[0, 0, 0]	n/a	catFR1	3	R1065J
1557.538	1.465	1512715	REC_WORD	7.783	n/a	STOVE	n/a	-999	14	[0, 0, 0]	n/a	catFR1	3	R1065J
1559.003	3.535	1514180	REC_WORD	9.248	n/a	MIXER	Appliances	2	14	[0, 0, 0]	n/a	catFR1	3	R1065J
1562.538	3.894	1517715	REC_WORD	12.783	n/a	IRON	Appliances	8	14	[0, 0, 0]	n/a	catFR1	3	R1065J
1566.432	1.272	1521609	REC_WORD	16.677	n/a	SNOW	Weather	6	14	[0, 0, 0]	n/a	catFR1	3	R1065J
1567.704	5.647	1522881	REC_WORD	17.949	n/a	WIND	Weather	5	14	[0, 0, 0]	n/a	catFR1	3	R1065J
1573.351	6.415	1528528	REC_WORD_VV	23.596	n/a	<>	n/a	-999	14	[0, 0, 0]	n/a	catFR1	3	R1065J
1579.766	1.544	1534943	REC_END	n/a	n/a	n/a	n/a	-999	14	[0, 0, 0]	n/a	catFR1	3	R1065J
1581.31	0.0	1536487	TRIAL	n/a	n/a	n/a	n/a	-999	15	[0, 0, 0]	n/a	catFR1	3	R1065J
1581.31	10.0	1536487	COUNTDOWN_START	n/a	n/a	n/a	n/a	-999	15	[0, 0, 0]	n/a	catFR1	3	R1065J
1591.738	0.006	1546915	COUNTDOWN_END	n/a	n/a	n/a	n/a	-999	15	[0, 0, 0]	n/a	catFR1	3	R1065J
1591.744	1.6	1546921	ORIENT	n/a	n/a	n/a	n/a	-999	15	[0, 0, 0]	n/a	catFR1	3	R1065J
1595.245	1.6	1550422	WORD	n/a	wordpools/wordpool_categorized_EN.txt	LAKE	Landscapes	1	15	[0, 0, 0]	n/a	catFR1	3	R1065J
1597.644	1.6	1552821	WORD	n/a	wordpools/wordpool_categorized_EN.txt	BEACH	Landscapes	2	15	[0, 0, 0]	n/a	catFR1	3	R1065J
1600.079	1.6	1555256	WORD	n/a	wordpools/wordpool_categorized_EN.txt	CHEETAH	Zoo	3	15	[0, 0, 0]	n/a	catFR1	3	R1065J
1602.712	1.6	1557889	WORD	n/a	wordpools/wordpool_categorized_EN.txt	GORILLA	Zoo	4	15	[0, 0, 0]	n/a	catFR1	3	R1065J
1605.247	1.6	1560424	WORD	n/a	wordpools/wordpool_categorized_EN.txt	HEAD	BodyParts	5	15	[0, 0, 0]	n/a	catFR1	3	R1065J
1607.646	1.6	1562823	WORD	n/a	wordpools/wordpool_categorized_EN.txt	HAND	BodyParts	6	15	[0, 0, 0]	n/a	catFR1	3	R1065J
1610.08	1.6	1565257	WORD	n/a	wordpools/wordpool_categorized_EN.txt	WOODS	Landscapes	7	15	[0, 0, 0]	n/a	catFR1	3	R1065J
1612.646	1.6	1567823	WORD	n/a	wordpools/wordpool_categorized_EN.txt	ISLAND	Landscapes	8	15	[0, 0, 0]	n/a	catFR1	3	R1065J
1615.148	1.6	1570325	WORD	n/a	wordpools/wordpool_categorized_EN.txt	FINGERS	BodyParts	9	15	[0, 0, 0]	n/a	catFR1	3	R1065J
1617.58	1.6	1572757	WORD	n/a	wordpools/wordpool_categorized_EN.txt	LEG	BodyParts	10	15	[0, 0, 0]	n/a	catFR1	3	R1065J
1620.182	1.6	1575359	WORD	n/a	wordpools/wordpool_categorized_EN.txt	MONKEY	Zoo	11	15	[0, 0, 0]	n/a	catFR1	3	R1065J
1622.781	1.6	1577958	WORD	n/a	wordpools/wordpool_categorized_EN.txt	ZEBRA	Zoo	12	15	[0, 0, 0]	n/a	catFR1	3	R1065J
1624.398	0.001	1579575	DISTRACT_START	n/a	n/a	n/a	n/a	-999	15	[0, 0, 0]	n/a	catFR1	3	R1065J
1624.399	0.016	1579576	START	n/a	n/a	n/a	n/a	-999	15	[-999, -999, -999]	n/a	catFR1	3	R1065J
1624.415	2.417	1579592	PROB	2.383	n/a	n/a	n/a	-999	15	[5, 1, 4]	10.0	catFR1	3	R1065J
1626.832	1.65	1582010	PROB	1.622	n/a	n/a	n/a	-999	15	[5, 1, 6]	12.0	catFR1	3	R1065J
1628.482	1.718	1583660	PROB	1.685	n/a	n/a	n/a	-999	15	[4, 6, 3]	13.0	catFR1	3	R1065J
1630.2	2.583	1585378	PROB	2.558	n/a	n/a	n/a	-999	15	[8, 7, 7]	23.0	catFR1	3	R1065J
1632.783	1.7	1587961	PROB	1.679	n/a	n/a	n/a	-999	15	[1, 4, 5]	10.0	catFR1	3	R1065J
1634.483	2.2	1589661	PROB	2.179	n/a	n/a	n/a	-999	15	[1, 8, 4]	14.0	catFR1	3	R1065J
1636.683	2.067	1591861	PROB	2.035	n/a	n/a	n/a	-999	15	[5, 2, 6]	13.0	catFR1	3	R1065J
1638.75	1.934	1593928	PROB	1.904	n/a	n/a	n/a	-999	15	[1, 8, 6]	15.0	catFR1	3	R1065J
1640.684	1.8	1595862	PROB	1.777	n/a	n/a	n/a	-999	15	[4, 5, 2]	11.0	catFR1	3	R1065J
1642.484	1.868	1597662	PROB	1.843	n/a	n/a	n/a	-999	15	[5, 8, 6]	19.0	catFR1	3	R1065J
1644.352	1.703	1599530	PROB	1.703	n/a	n/a	n/a	-999	15	[9, 7, 3]	19.0	catFR1	3	R1065J
1646.055	0.014	1601233	STOP	n/a	n/a	n/a	n/a	-999	15	[-999, -999, -999]	n/a	catFR1	3	R1065J
1646.069	1.084	1601247	DISTRACT_END	n/a	n/a	n/a	n/a	-999	15	[0, 0, 0]	n/a	catFR1	3	R1065J
1647.153	1.282	1602331	REC_START	n/a	n/a	n/a	n/a	-999	15	[0, 0, 0]	n/a	catFR1	3	R1065J
1648.435	1.202	1603613	REC_WORD	1.282	n/a	MONKEY	Zoo	11	15	[0, 0, 0]	n/a	catFR1	3	R1065J
1649.637	0.757	1604815	REC_WORD	2.484	n/a	CHEETAH	Zoo	3	15	[0, 0, 0]	n/a	catFR1	3	R1065J
1650.394	2.185	1605572	REC_WORD	3.241	n/a	ZEBRA	Zoo	12	15	[0, 0, 0]	n/a	catFR1	3	R1065J
1652.579	1.05	1607757	REC_WORD	5.426	n/a	HAND	BodyParts	6	15	[0, 0, 0]	n/a	catFR1	3	R1065J
1653.629	5.638	1608807	REC_WORD	6.476	n/a	HEAD	BodyParts	5	15	[0, 0, 0]	n/a	catFR1	3	R1065J
1659.267	0.822	1614445	REC_WORD	12.114	n/a	BEACH	Landscapes	2	15	[0, 0, 0]	n/a	catFR1	3	R1065J
1660.089	2.04	1615267	REC_WORD	12.936	n/a	LAKE	Landscapes	1	15	[0, 0, 0]	n/a	catFR1	3	R1065J
1662.129	1.899	1617307	REC_WORD	14.976	n/a	ISLAND	Landscapes	8	15	[0, 0, 0]	n/a	catFR1	3	R1065J
1664.028	6.873	1619206	REC_WORD	16.875	n/a	WOODS	Landscapes	7	15	[0, 0, 0]	n/a	catFR1	3	R1065J
1670.901	6.262	1626079	REC_WORD	23.748	n/a	FINGERS	BodyParts	9	15	[0, 0, 0]	n/a	catFR1	3	R1065J
1677.163	1.593	1632341	REC_END	n/a	n/a	n/a	n/a	-999	15	[0, 0, 0]	n/a	catFR1	3	R1065J
1678.756	0.0	1633934	TRIAL	n/a	n/a	n/a	n/a	-999	16	[0, 0, 0]	n/a	catFR1	3	R1065J
1678.756	10.0	1633934	COUNTDOWN_START	n/a	n/a	n/a	n/a	-999	16	[0, 0, 0]	n/a	catFR1	3	R1065J
1689.184	0.008	1644362	COUNTDOWN_END	n/a	n/a	n/a	n/a	-999	16	[0, 0, 0]	n/a	catFR1	3	R1065J
1689.192	1.6	1644370	ORIENT	n/a	n/a	n/a	n/a	-999	16	[0, 0, 0]	n/a	catFR1	3	R1065J
1692.875	1.6	1648053	WORD	n/a	wordpools/wordpool_categorized_EN.txt	OCEAN	Landscapes	1	16	[0, 0, 0]	n/a	catFR1	3	R1065J
1695.359	1.6	1650537	WORD	n/a	wordpools/wordpool_categorized_EN.txt	RIVER	Landscapes	2	16	[0, 0, 0]	n/a	catFR1	3	R1065J
1697.842	1.6	1653020	WORD	n/a	wordpools/wordpool_categorized_EN.txt	MILK	Beverages	3	16	[0, 0, 0]	n/a	catFR1	3	R1065J
1700.392	1.6	1655570	WORD	n/a	wordpools/wordpool_categorized_EN.txt	WINE	Beverages	4	16	[0, 0, 0]	n/a	catFR1	3	R1065J
1702.876	1.6	1658054	WORD	n/a	wordpools/wordpool_categorized_EN.txt	LADYBUG	Insects	5	16	[0, 0, 0]	n/a	catFR1	3	R1065J
1705.46	1.6	1660638	WORD	n/a	wordpools/wordpool_categorized_EN.txt	SPIDER	Insects	6	16	[0, 0, 0]	n/a	catFR1	3	R1065J
1707.876	1.6	1663054	WORD	n/a	wordpools/wordpool_categorized_EN.txt	BEER	Beverages	7	16	[0, 0, 0]	n/a	catFR1	3	R1065J
1710.444	1.6	1665622	WORD	n/a	wordpools/wordpool_categorized_EN.txt	WATER	Beverages	8	16	[0, 0, 0]	n/a	catFR1	3	R1065J
1713.045	1.6	1668223	WORD	n/a	wordpools/wordpool_categorized_EN.txt	HILLS	Landscapes	9	16	[0, 0, 0]	n/a	catFR1	3	R1065J
1715.528	1.6	1670706	WORD	n/a	wordpools/wordpool_categorized_EN.txt	VALLEY	Landscapes	10	16	[0, 0, 0]	n/a	catFR1	3	R1065J
1717.979	1.6	1673157	WORD	n/a	wordpools/wordpool_categorized_EN.txt	FLY	Insects	11	16	[0, 0, 0]	n/a	catFR1	3	R1065J
1720.395	1.6	1675573	WORD	n/a	wordpools/wordpool_categorized_EN.txt	MOTH	Insects	12	16	[0, 0, 0]	n/a	catFR1	3	R1065J
1721.996	0.001	1677174	DISTRACT_START	n/a	n/a	n/a	n/a	-999	16	[0, 0, 0]	n/a	catFR1	3	R1065J
1721.997	0.016	1677175	START	n/a	n/a	n/a	n/a	-999	16	[-999, -999, -999]	n/a	catFR1	3	R1065J
1722.013	2.034	1677191	PROB	2.0	n/a	n/a	n/a	-999	16	[1, 8, 3]	12.0	catFR1	3	R1065J
1724.047	1.582	1679225	PROB	1.549	n/a	n/a	n/a	-999	16	[4, 2, 2]	8.0	catFR1	3	R1065J
1725.629	1.95	1680807	PROB	1.918	n/a	n/a	n/a	-999	16	[1, 9, 4]	14.0	catFR1	3	R1065J
1727.579	1.652	1682757	PROB	1.625	n/a	n/a	n/a	-999	16	[2, 1, 6]	9.0	catFR1	3	R1065J
1729.231	2.95	1684409	PROB	2.917	n/a	n/a	n/a	-999	16	[5, 2, 1]	8.0	catFR1	3	R1065J
1732.181	2.266	1687359	PROB	2.238	n/a	n/a	n/a	-999	16	[8, 4, 5]	17.0	catFR1	3	R1065J
1734.447	2.15	1689625	PROB	2.116	n/a	n/a	n/a	-999	16	[5, 8, 3]	16.0	catFR1	3	R1065J
1736.597	2.034	1691775	PROB	1.998	n/a	n/a	n/a	-999	16	[9, 3, 4]	16.0	catFR1	3	R1065J
1738.631	2.067	1693809	PROB	2.036	n/a	n/a	n/a	-999	16	[3, 7, 9]	19.0	catFR1	3	R1065J
1740.698	2.049	1695876	PROB	2.049	n/a	n/a	n/a	-999	16	[9, 8, 5]	22.0	catFR1	3	R1065J
1742.747	0.018	1697925	STOP	n/a	n/a	n/a	n/a	-999	16	[-999, -999, -999]	n/a	catFR1	3	R1065J
1742.765	1.202	1697943	DISTRACT_END	n/a	n/a	n/a	n/a	-999	16	[0, 0, 0]	n/a	catFR1	3	R1065J
1743.967	1.223	1699145	REC_START	n/a	n/a	n/a	n/a	-999	16	[0, 0, 0]	n/a	catFR1	3	R1065J
1745.19	1.124	1700368	REC_WORD	1.223	n/a	MILK	Beverages	3	16	[0, 0, 0]	n/a	catFR1	3	R1065J
1746.314	1.276	1701492	REC_WORD	2.347	n/a	WINE	Beverages	4	16	[0, 0, 0]	n/a	catFR1	3	R1065J
1747.59	3.374	1702768	REC_WORD	3.623	n/a	WATER	Beverages	8	16	[0, 0, 0]	n/a	catFR1	3	R1065J
1750.964	0.972	1706142	REC_WORD	6.997	n/a	LADYBUG	Insects	5	16	[0, 0, 0]	n/a	catFR1	3	R1065J
1751.936	2.03	1707114	REC_WORD	7.969	n/a	SPIDER	Insects	6	16	[0, 0, 0]	n/a	catFR1	3	R1065J
1753.966	7.491	1709144	REC_WORD	9.999	n/a	MOTH	Insects	12	16	[0, 0, 0]	n/a	catFR1	3	R1065J
1761.457	12.521	1716635	REC_WORD	17.49	n/a	HILLS	Landscapes	9	16	[0, 0, 0]	n/a	catFR1	3	R1065J
1773.978	1.642	1729156	REC_END	n/a	n/a	n/a	n/a	-999	16	[0, 0, 0]	n/a	catFR1	3	R1065J
1775.62	0.0	1730799	TRIAL	n/a	n/a	n/a	n/a	-999	17	[0, 0, 0]	n/a	catFR1	3	R1065J
1775.62	10.0	1730799	COUNTDOWN_START	n/a	n/a	n/a	n/a	-999	17	[0, 0, 0]	n/a	catFR1	3	R1065J
1786.048	0.008	1741227	COUNTDOWN_END	n/a	n/a	n/a	n/a	-999	17	[0, 0, 0]	n/a	catFR1	3	R1065J
1786.056	1.6	1741235	ORIENT	n/a	n/a	n/a	n/a	-999	17	[0, 0, 0]	n/a	catFR1	3	R1065J
1789.738	1.6	1744917	WORD	n/a	wordpools/wordpool_categorized_EN.txt	RUM	Beverages	1	17	[0, 0, 0]	n/a	catFR1	3	R1065J
1792.156	1.6	1747335	WORD	n/a	wordpools/wordpool_categorized_EN.txt	COLA	Beverages	2	17	[0, 0, 0]	n/a	catFR1	3	R1065J
1794.689	1.6	1749868	WORD	n/a	wordpools/wordpool_categorized_EN.txt	DRYER	Appliances	3	17	[0, 0, 0]	n/a	catFR1	3	R1065J
1797.124	1.6	1752303	WORD	n/a	wordpools/wordpool_categorized_EN.txt	BLENDER	Appliances	4	17	[0, 0, 0]	n/a	catFR1	3	R1065J
1799.556	1.6	1754735	WORD	n/a	wordpools/wordpool_categorized_EN.txt	MOPED	Vehicles	5	17	[0, 0, 0]	n/a	catFR1	3	R1065J
1802.108	1.6	1757287	WORD	n/a	wordpools/wordpool_categorized_EN.txt	VAN	Vehicles	6	17	[0, 0, 0]	n/a	catFR1	3	R1065J
1804.707	1.6	1759886	WORD	n/a	wordpools/wordpool_categorized_EN.txt	TOASTER	Appliances	7	17	[0, 0, 0]	n/a	catFR1	3	R1065J
1807.192	1.6	1762371	WORD	n/a	wordpools/wordpool_categorized_EN.txt	DISHWASHER	Appliances	8	17	[0, 0, 0]	n/a	catFR1	3	R1065J
1809.625	1.6	1764804	WORD	n/a	wordpools/wordpool_categorized_EN.txt	LEMONADE	Beverages	9	17	[0, 0, 0]	n/a	catFR1	3	R1065J
1812.159	1.6	1767338	WORD	n/a	wordpools/wordpool_categorized_EN.txt	TEA	Beverages	10	17	[0, 0, 0]	n/a	catFR1	3	R1065J
1814.775	1.6	1769954	WORD	n/a	wordpools/wordpool_categorized_EN.txt	JEEP	Vehicles	11	17	[0, 0, 0]	n/a	catFR1	3	R1065J
1817.36	1.6	1772539	WORD	n/a	wordpools/wordpool_categorized_EN.txt	BOAT	Vehicles	12	17	[0, 0, 0]	n/a	catFR1	3	R1065J
1818.977	0.001	1774156	DISTRACT_START	n/a	n/a	n/a	n/a	-999	17	[0, 0, 0]	n/a	catFR1	3	R1065J
1818.978	0.016	1774157	START	n/a	n/a	n/a	n/a	-999	17	[-999, -999, -999]	n/a	catFR1	3	R1065J
1818.994	5.0	1774173	PROB	4.968	n/a	n/a	n/a	-999	17	[3, 5, 3]	11.0	catFR1	3	R1065J
1823.994	1.75	1779173	PROB	1.719	n/a	n/a	n/a	-999	17	[9, 9, 4]	22.0	catFR1	3	R1065J
1825.744	1.983	1780923	PROB	1.961	n/a	n/a	n/a	-999	17	[8, 7, 6]	23.0	catFR1	3	R1065J
1827.727	1.884	1782906	PROB	1.858	n/a	n/a	n/a	-999	17	[2, 3, 9]	14.0	catFR1	3	R1065J
1829.611	1.634	1784790	PROB	1.599	n/a	n/a	n/a	-999	17	[2, 5, 9]	16.0	catFR1	3	R1065J
1831.245	1.499	1786424	PROB	1.467	n/a	n/a	n/a	-999	17	[2, 1, 9]	12.0	catFR1	3	R1065J
1832.744	2.469	1787923	PROB	2.434	n/a	n/a	n/a	-999	17	[8, 8, 9]	25.0	catFR1	3	R1065J
1835.213	1.783	1790392	PROB	1.747	n/a	n/a	n/a	-999	17	[4, 1, 9]	14.0	catFR1	3	R1065J
1836.996	3.741	1792175	PROB	3.741	n/a	n/a	n/a	-999	17	[9, 4, 6]	19.0	catFR1	3	R1065J
1840.737	0.009	1795916	STOP	n/a	n/a	n/a	n/a	-999	17	[-999, -999, -999]	n/a	catFR1	3	R1065J
1840.746	1.167	1795925	DISTRACT_END	n/a	n/a	n/a	n/a	-999	17	[0, 0, 0]	n/a	catFR1	3	R1065J
1841.913	1.312	1797092	REC_START	n/a	n/a	n/a	n/a	-999	17	[0, 0, 0]	n/a	catFR1	3	R1065J
1843.225	0.998	1798404	REC_WORD	1.312	n/a	JEEP	Vehicles	11	17	[0, 0, 0]	n/a	catFR1	3	R1065J
1844.223	1.14	1799402	REC_WORD	2.31	n/a	VAN	Vehicles	6	17	[0, 0, 0]	n/a	catFR1	3	R1065J
1845.363	1.548	1800542	REC_WORD	3.45	n/a	MOPED	Vehicles	5	17	[0, 0, 0]	n/a	catFR1	3	R1065J
1846.911	1.612	1802090	REC_WORD	4.998	n/a	BOAT	Vehicles	12	17	[0, 0, 0]	n/a	catFR1	3	R1065J
1848.523	0.979	1803702	REC_WORD	6.61	n/a	RUM	Beverages	1	17	[0, 0, 0]	n/a	catFR1	3	R1065J
1849.502	0.934	1804681	REC_WORD	7.589	n/a	COLA	Beverages	2	17	[0, 0, 0]	n/a	catFR1	3	R1065J
1850.436	2.324	1805615	REC_WORD	8.523	n/a	LEMONADE	Beverages	9	17	[0, 0, 0]	n/a	catFR1	3	R1065J
1852.76	8.127	1807939	REC_WORD	10.847	n/a	TEA	Beverages	10	17	[0, 0, 0]	n/a	catFR1	3	R1065J
1860.887	1.829	1816066	REC_WORD	18.974	n/a	DRYER	Appliances	3	17	[0, 0, 0]	n/a	catFR1	3	R1065J
1862.716	9.209	1817895	REC_WORD	20.803	n/a	BLENDER	Appliances	4	17	[0, 0, 0]	n/a	catFR1	3	R1065J
1871.925	1.475	1827104	REC_END	n/a	n/a	n/a	n/a	-999	17	[0, 0, 0]	n/a	catFR1	3	R1065J
1873.4	10.0	1828579	COUNTDOWN_START	n/a	n/a	n/a	n/a	-999	18	[0, 0, 0]	n/a	catFR1	3	R1065J
1873.4	10.428	1828579	TRIAL	n/a	n/a	n/a	n/a	-999	18	[0, 0, 0]	n/a	catFR1	3	R1065J
1883.828	0.007	1839007	COUNTDOWN_END	n/a	n/a	n/a	n/a	-999	18	[0, 0, 0]	n/a	catFR1	3	R1065J
1883.835	1.6	1839014	ORIENT	n/a	n/a	n/a	n/a	-999	18	[0, 0, 0]	n/a	catFR1	3	R1065J
1887.386	1.6	1842565	WORD	n/a	wordpools/wordpool_categorized_EN.txt	ROBIN	Birds	1	18	[0, 0, 0]	n/a	catFR1	3	R1065J
1889.92	1.6	1845099	WORD	n/a	wordpools/wordpool_categorized_EN.txt	CARDINAL	Birds	2	18	[0, 0, 0]	n/a	catFR1	3	R1065J
1892.47	1.6	1847649	WORD	n/a	wordpools/wordpool_categorized_EN.txt	MOSQUITO	Insects	3	18	[0, 0, 0]	n/a	catFR1	3	R1065J
1894.887	1.6	1850066	WORD	n/a	wordpools/wordpool_categorized_EN.txt	BEE	Insects	4	18	[0, 0, 0]	n/a	catFR1	3	R1065J
1897.371	1.6	1852550	WORD	n/a	wordpools/wordpool_categorized_EN.txt	CABINET	Furniture	5	18	[0, 0, 0]	n/a	catFR1	3	R1065J
1899.788	1.6	1854967	WORD	n/a	wordpools/wordpool_categorized_EN.txt	CHAIR	Furniture	6	18	[0, 0, 0]	n/a	catFR1	3	R1065J
1902.289	1.6	1857468	WORD	n/a	wordpools/wordpool_categorized_EN.txt	SEAGULL	Birds	7	18	[0, 0, 0]	n/a	catFR1	3	R1065J
1904.705	1.6	1859884	WORD	n/a	wordpools/wordpool_categorized_EN.txt	SPARROW	Birds	8	18	[0, 0, 0]	n/a	catFR1	3	R1065J
1907.256	1.6	1862435	WORD	n/a	wordpools/wordpool_categorized_EN.txt	TABLE	Furniture	9	18	[0, 0, 0]	n/a	catFR1	3	R1065J
1909.706	1.6	1864885	WORD	n/a	wordpools/wordpool_categorized_EN.txt	SOFA	Furniture	10	18	[0, 0, 0]	n/a	catFR1	3	R1065J
1912.107	1.6	1867286	WORD	n/a	wordpools/wordpool_categorized_EN.txt	BUTTERFLY	Insects	11	18	[0, 0, 0]	n/a	catFR1	3	R1065J
1914.639	1.6	1869818	WORD	n/a	wordpools/wordpool_categorized_EN.txt	ROACH	Insects	12	18	[0, 0, 0]	n/a	catFR1	3	R1065J
1916.24	0.001	1871419	DISTRACT_START	n/a	n/a	n/a	n/a	-999	18	[0, 0, 0]	n/a	catFR1	3	R1065J
1916.241	0.016	1871420	START	n/a	n/a	n/a	n/a	-999	18	[-999, -999, -999]	n/a	catFR1	3	R1065J
1916.257	2.317	1871436	PROB	2.286	n/a	n/a	n/a	-999	18	[2, 5, 7]	14.0	catFR1	3	R1065J
1918.574	3.25	1873753	PROB	3.224	n/a	n/a	n/a	-999	18	[6, 1, 2]	9.0	catFR1	3	R1065J
1921.824	2.567	1877003	PROB	2.535	n/a	n/a	n/a	-999	18	[2, 5, 6]	13.0	catFR1	3	R1065J
1924.391	2.0	1879571	PROB	1.976	n/a	n/a	n/a	-999	18	[3, 7, 2]	12.0	catFR1	3	R1065J
1926.391	1.467	1881571	PROB	1.44	n/a	n/a	n/a	-999	18	[2, 5, 5]	12.0	catFR1	3	R1065J
1927.858	2.218	1883038	PROB	2.189	n/a	n/a	n/a	-999	18	[6, 9, 2]	17.0	catFR1	3	R1065J
1930.076	2.349	1885256	PROB	2.322	n/a	n/a	n/a	-999	18	[7, 2, 8]	17.0	catFR1	3	R1065J
1932.425	2.484	1887605	PROB	2.461	n/a	n/a	n/a	-999	18	[8, 2, 3]	13.0	catFR1	3	R1065J
1934.909	2.21	1890089	PROB	2.21	n/a	n/a	n/a	-999	18	[9, 6, 9]	23.0	catFR1	3	R1065J
1937.119	0.008	1892299	STOP	n/a	n/a	n/a	n/a	-999	18	[-999, -999, -999]	n/a	catFR1	3	R1065J
1937.127	1.068	1892307	DISTRACT_END	n/a	n/a	n/a	n/a	-999	18	[0, 0, 0]	n/a	catFR1	3	R1065J
1938.195	1.135	1893375	REC_START	n/a	n/a	n/a	n/a	-999	18	[0, 0, 0]	n/a	catFR1	3	R1065J
1939.33	1.484	1894510	REC_WORD	1.135	n/a	MOSQUITO	Insects	3	18	[0, 0, 0]	n/a	catFR1	3	R1065J
1940.814	1.621	1895994	REC_WORD	2.619	n/a	BEE	Insects	4	18	[0, 0, 0]	n/a	catFR1	3	R1065J
1942.435	1.87	1897615	REC_WORD	4.24	n/a	ROACH	Insects	12	18	[0, 0, 0]	n/a	catFR1	3	R1065J
1944.305	1.932	1899485	REC_WORD	6.11	n/a	BUTTERFLY	Insects	11	18	[0, 0, 0]	n/a	catFR1	3	R1065J
1946.237	0.787	1901417	REC_WORD	8.042	n/a	ROBIN	Birds	1	18	[0, 0, 0]	n/a	catFR1	3	R1065J
1947.024	2.267	1902204	REC_WORD	8.829	n/a	SPARROW	Birds	8	18	[0, 0, 0]	n/a	catFR1	3	R1065J
1949.291	16.22	1904471	REC_WORD	11.096	n/a	SEAGULL	Birds	7	18	[0, 0, 0]	n/a	catFR1	3	R1065J
1965.511	0.85	1920691	REC_WORD	27.316	n/a	CHAIR	Furniture	6	18	[0, 0, 0]	n/a	catFR1	3	R1065J
1966.361	1.843	1921541	REC_WORD	28.166	n/a	CABINET	Furniture	5	18	[0, 0, 0]	n/a	catFR1	3	R1065J
1968.204	2.111	1923384	REC_END	n/a	n/a	n/a	n/a	-999	18	[0, 0, 0]	n/a	catFR1	3	R1065J
1970.315	0.0	1925495	TRIAL	n/a	n/a	n/a	n/a	-999	19	[0, 0, 0]	n/a	catFR1	3	R1065J
1970.315	10.0	1925495	COUNTDOWN_START	n/a	n/a	n/a	n/a	-999	19	[0, 0, 0]	n/a	catFR1	3	R1065J
1980.743	0.006	1935923	COUNTDOWN_END	n/a	n/a	n/a	n/a	-999	19	[0, 0, 0]	n/a	catFR1	3	R1065J
1980.749	1.6	1935929	ORIENT	n/a	n/a	n/a	n/a	-999	19	[0, 0, 0]	n/a	catFR1	3	R1065J
1984.432	1.6	1939612	WORD	n/a	wordpools/wordpool_categorized_EN.txt	CALCULATOR	Electronics	1	19	[0, 0, 0]	n/a	catFR1	3	R1065J
1987.017	1.6	1942197	WORD	n/a	wordpools/wordpool_categorized_EN.txt	PHONE	Electronics	2	19	[0, 0, 0]	n/a	catFR1	3	R1065J
1989.55	1.6	1944730	WORD	n/a	wordpools/wordpool_categorized_EN.txt	PLANE	Vehicles	3	19	[0, 0, 0]	n/a	catFR1	3	R1065J
1992.135	1.6	1947315	WORD	n/a	wordpools/wordpool_categorized_EN.txt	BIKE	Vehicles	4	19	[0, 0, 0]	n/a	catFR1	3	R1065J
1994.617	1.6	1949797	WORD	n/a	wordpools/wordpool_categorized_EN.txt	CROW	Birds	5	19	[0, 0, 0]	n/a	catFR1	3	R1065J
1997.052	1.6	1952232	WORD	n/a	wordpools/wordpool_categorized_EN.txt	PIGEON	Birds	6	19	[0, 0, 0]	n/a	catFR1	3	R1065J
1999.502	1.6	1954682	WORD	n/a	wordpools/wordpool_categorized_EN.txt	STEREO	Electronics	7	19	[0, 0, 0]	n/a	catFR1	3	R1065J
2002.02	1.6	1957200	WORD	n/a	wordpools/wordpool_categorized_EN.txt	HEADPHONES	Electronics	8	19	[0, 0, 0]	n/a	catFR1	3	R1065J
2004.602	1.6	1959782	WORD	n/a	wordpools/wordpool_categorized_EN.txt	DUCK	Birds	9	19	[0, 0, 0]	n/a	catFR1	3	R1065J
2007.07	1.6	1962250	WORD	n/a	wordpools/wordpool_categorized_EN.txt	BLUEBIRD	Birds	10	19	[0, 0, 0]	n/a	catFR1	3	R1065J
2009.686	1.6	1964866	WORD	n/a	wordpools/wordpool_categorized_EN.txt	TRAIN	Vehicles	11	19	[0, 0, 0]	n/a	catFR1	3	R1065J
2012.154	1.6	1967334	WORD	n/a	wordpools/wordpool_categorized_EN.txt	SCOOTER	Vehicles	12	19	[0, 0, 0]	n/a	catFR1	3	R1065J
2013.77	0.001	1968950	DISTRACT_START	n/a	n/a	n/a	n/a	-999	19	[0, 0, 0]	n/a	catFR1	3	R1065J
2013.771	0.016	1968951	START	n/a	n/a	n/a	n/a	-999	19	[-999, -999, -999]	n/a	catFR1	3	R1065J
2013.787	2.083	1968967	PROB	2.049	n/a	n/a	n/a	-999	19	[7, 8, 6]	23.0	catFR1	3	R1065J
2015.87	2.102	1971050	PROB	2.071	n/a	n/a	n/a	-999	19	[9, 2, 9]	20.0	catFR1	3	R1065J
2017.972	1.832	1973152	PROB	1.8	n/a	n/a	n/a	-999	19	[7, 8, 9]	24.0	catFR1	3	R1065J
2019.804	2.101	1974984	PROB	2.08	n/a	n/a	n/a	-999	19	[9, 6, 4]	19.0	catFR1	3	R1065J
2021.905	1.351	1977085	PROB	1.324	n/a	n/a	n/a	-999	19	[1, 6, 1]	8.0	catFR1	3	R1065J
2023.256	1.532	1978436	PROB	1.508	n/a	n/a	n/a	-999	19	[6, 6, 1]	13.0	catFR1	3	R1065J
2024.788	1.884	1979968	PROB	1.848	n/a	n/a	n/a	-999	19	[4, 8, 1]	13.0	catFR1	3	R1065J
2026.672	2.767	1981852	PROB	2.732	n/a	n/a	n/a	-999	19	[7, 4, 5]	16.0	catFR1	3	R1065J
2029.439	1.818	1984619	PROB	1.797	n/a	n/a	n/a	-999	19	[7, 6, 4]	17.0	catFR1	3	R1065J
2031.257	1.433	1986437	PROB	1.41	n/a	n/a	n/a	-999	19	[5, 3, 1]	9.0	catFR1	3	R1065J
2032.69	1.546	1987870	PROB	1.546	n/a	n/a	n/a	-999	19	[5, 5, 2]	12.0	catFR1	3	R1065J
2034.236	0.004	1989416	STOP	n/a	n/a	n/a	n/a	-999	19	[-999, -999, -999]	n/a	catFR1	3	R1065J
2034.24	1.217	1989420	DISTRACT_END	n/a	n/a	n/a	n/a	-999	19	[0, 0, 0]	n/a	catFR1	3	R1065J
2035.457	2.131	1990637	REC_START	n/a	n/a	n/a	n/a	-999	19	[0, 0, 0]	n/a	catFR1	3	R1065J
2037.588	1.203	1992768	REC_WORD	2.131	n/a	CROW	Birds	5	19	[0, 0, 0]	n/a	catFR1	3	R1065J
2038.791	4.863	1993971	REC_WORD	3.334	n/a	PIGEON	Birds	6	19	[0, 0, 0]	n/a	catFR1	3	R1065J
2043.654	1.184	1998834	REC_WORD	8.197	n/a	PLANE	Vehicles	3	19	[0, 0, 0]	n/a	catFR1	3	R1065J
2044.838	2.452	2000018	REC_WORD	9.381	n/a	BIKE	Vehicles	4	19	[0, 0, 0]	n/a	catFR1	3	R1065J
2047.29	1.382	2002470	REC_WORD	11.833	n/a	CALCULATOR	Electronics	1	19	[0, 0, 0]	n/a	catFR1	3	R1065J
2048.672	4.507	2003852	REC_WORD	13.215	n/a	SPEAKER	n/a	-999	19	[0, 0, 0]	n/a	catFR1	3	R1065J
2053.179	0.769	2008359	REC_WORD	17.722	n/a	PHONE	Electronics	2	19	[0, 0, 0]	n/a	catFR1	3	R1065J
2053.948	11.524	2009128	REC_WORD	18.491	n/a	HEADPHONES	Electronics	8	19	[0, 0, 0]	n/a	catFR1	3	R1065J
2065.472	1.557	2020652	REC_END	n/a	n/a	n/a	n/a	-999	19	[0, 0, 0]	n/a	catFR1	3	R1065J
2067.029	10.0	2022209	COUNTDOWN_START	n/a	n/a	n/a	n/a	-999	20	[0, 0, 0]	n/a	catFR1	3	R1065J
2067.029	10.428	2022209	TRIAL	n/a	n/a	n/a	n/a	-999	20	[0, 0, 0]	n/a	catFR1	3	R1065J
2077.457	0.006	2032638	COUNTDOWN_END	n/a	n/a	n/a	n/a	-999	20	[0, 0, 0]	n/a	catFR1	3	R1065J
2077.463	1.6	2032644	ORIENT	n/a	n/a	n/a	n/a	-999	20	[0, 0, 0]	n/a	catFR1	3	R1065J
2081.265	1.6	2036446	WORD	n/a	wordpools/wordpool_categorized_EN.txt	MARIGOLD	Flowers	1	20	[0, 0, 0]	n/a	catFR1	3	R1065J
2083.88	1.6	2039061	WORD	n/a	wordpools/wordpool_categorized_EN.txt	DAISY	Flowers	2	20	[0, 0, 0]	n/a	catFR1	3	R1065J
2086.332	1.6	2041513	WORD	n/a	wordpools/wordpool_categorized_EN.txt	TABLET	Electronics	3	20	[0, 0, 0]	n/a	catFR1	3	R1065J
2088.848	1.6	2044029	WORD	n/a	wordpools/wordpool_categorized_EN.txt	MICROWAVE	Electronics	4	20	[0, 0, 0]	n/a	catFR1	3	R1065J
2091.448	1.6	2046629	WORD	n/a	wordpools/wordpool_categorized_EN.txt	SPOON	KitchenTools	5	20	[0, 0, 0]	n/a	catFR1	3	R1065J
2093.983	1.6	2049164	WORD	n/a	wordpools/wordpool_categorized_EN.txt	KNIFE	KitchenTools	6	20	[0, 0, 0]	n/a	catFR1	3	R1065J
2096.549	1.6	2051730	WORD	n/a	wordpools/wordpool_categorized_EN.txt	TELEVISION	Electronics	7	20	[0, 0, 0]	n/a	catFR1	3	R1065J
2099.067	1.6	2054248	WORD	n/a	wordpools/wordpool_categorized_EN.txt	COMPUTER	Electronics	8	20	[0, 0, 0]	n/a	catFR1	3	R1065J
2101.616	1.6	2056797	WORD	n/a	wordpools/wordpool_categorized_EN.txt	LILAC	Flowers	9	20	[0, 0, 0]	n/a	catFR1	3	R1065J
2104.151	1.6	2059332	WORD	n/a	wordpools/wordpool_categorized_EN.txt	ORCHID	Flowers	10	20	[0, 0, 0]	n/a	catFR1	3	R1065J
2106.584	1.6	2061765	WORD	n/a	wordpools/wordpool_categorized_EN.txt	LADLE	KitchenTools	11	20	[0, 0, 0]	n/a	catFR1	3	R1065J
2109.118	1.6	2064299	WORD	n/a	wordpools/wordpool_categorized_EN.txt	SPATULA	KitchenTools	12	20	[0, 0, 0]	n/a	catFR1	3	R1065J
2110.734	0.001	2065915	DISTRACT_START	n/a	n/a	n/a	n/a	-999	20	[0, 0, 0]	n/a	catFR1	3	R1065J
2110.735	0.016	2065916	START	n/a	n/a	n/a	n/a	-999	20	[-999, -999, -999]	n/a	catFR1	3	R1065J
2110.751	2.268	2065932	PROB	2.236	n/a	n/a	n/a	-999	20	[3, 7, 3]	13.0	catFR1	3	R1065J
2113.019	1.633	2068200	PROB	1.606	n/a	n/a	n/a	-999	20	[5, 1, 7]	13.0	catFR1	3	R1065J
2114.652	1.401	2069833	PROB	1.374	n/a	n/a	n/a	-999	20	[4, 6, 1]	11.0	catFR1	3	R1065J
2116.053	1.566	2071234	PROB	1.533	n/a	n/a	n/a	-999	20	[1, 4, 3]	8.0	catFR1	3	R1065J
2117.619	2.15	2072800	PROB	2.127	n/a	n/a	n/a	-999	20	[5, 1, 7]	13.0	catFR1	3	R1065J
2119.769	1.65	2074950	PROB	1.625	n/a	n/a	n/a	-999	20	[7, 6, 6]	19.0	catFR1	3	R1065J
2121.419	1.935	2076600	PROB	1.912	n/a	n/a	n/a	-999	20	[6, 7, 2]	15.0	catFR1	3	R1065J
2123.354	2.783	2078535	PROB	2.752	n/a	n/a	n/a	-999	20	[3, 6, 9]	12.0	catFR1	3	R1065J
2126.137	1.884	2081318	PROB	1.858	n/a	n/a	n/a	-999	20	[1, 9, 2]	12.0	catFR1	3	R1065J
2128.021	2.466	2083202	PROB	2.444	n/a	n/a	n/a	-999	20	[8, 8, 2]	18.0	catFR1	3	R1065J
2130.487	1.819	2085668	PROB	1.819	n/a	n/a	n/a	-999	20	[9, 5, 8]	22.0	catFR1	3	R1065J
2132.306	0.016	2087487	STOP	n/a	n/a	n/a	n/a	-999	20	[-999, -999, -999]	n/a	catFR1	3	R1065J
2132.322	1.083	2087503	DISTRACT_END	n/a	n/a	n/a	n/a	-999	20	[0, 0, 0]	n/a	catFR1	3	R1065J
2133.405	1.749	2088586	REC_START	n/a	n/a	n/a	n/a	-999	20	[0, 0, 0]	n/a	catFR1	3	R1065J
2135.154	1.129	2090335	REC_WORD	1.749	n/a	MARIGOLD	Flowers	1	20	[0, 0, 0]	n/a	catFR1	3	R1065J
2136.283	1.36	2091464	REC_WORD	2.878	n/a	LILAC	Flowers	9	20	[0, 0, 0]	n/a	catFR1	3	R1065J
2137.643	3.426	2092824	REC_WORD	4.238	n/a	ORCHID	Flowers	10	20	[0, 0, 0]	n/a	catFR1	3	R1065J
2141.069	1.186	2096250	REC_WORD	7.664	n/a	TABLET	Electronics	3	20	[0, 0, 0]	n/a	catFR1	3	R1065J
2142.255	1.747	2097436	REC_WORD	8.85	n/a	TELEVISION	Electronics	7	20	[0, 0, 0]	n/a	catFR1	3	R1065J
2144.002	10.932	2099183	REC_WORD	10.597	n/a	MICROWAVE	Electronics	4	20	[0, 0, 0]	n/a	catFR1	3	R1065J
2154.934	1.86	2110115	REC_WORD	21.529	n/a	SPATULA	KitchenTools	12	20	[0, 0, 0]	n/a	catFR1	3	R1065J
2156.794	1.021	2111975	REC_WORD	23.389	n/a	SPOON	KitchenTools	5	20	[0, 0, 0]	n/a	catFR1	3	R1065J
2157.815	5.601	2112996	REC_WORD	24.41	n/a	KNIFE	KitchenTools	6	20	[0, 0, 0]	n/a	catFR1	3	R1065J
2163.416	1.493	2118597	REC_END	n/a	n/a	n/a	n/a	-999	20	[0, 0, 0]	n/a	catFR1	3	R1065J
2164.909	0.0	2120090	TRIAL	n/a	n/a	n/a	n/a	-999	21	[0, 0, 0]	n/a	catFR1	3	R1065J
2164.909	10.0	2120090	COUNTDOWN_START	n/a	n/a	n/a	n/a	-999	21	[0, 0, 0]	n/a	catFR1	3	R1065J
2175.337	0.007	2130518	COUNTDOWN_END	n/a	n/a	n/a	n/a	-999	21	[0, 0, 0]	n/a	catFR1	3	R1065J
2175.344	1.6	2130525	ORIENT	n/a	n/a	n/a	n/a	-999	21	[0, 0, 0]	n/a	catFR1	3	R1065J
2179.278	1.6	2134459	WORD	n/a	wordpools/wordpool_categorized_EN.txt	SHOVEL	Tools	1	21	[0, 0, 0]	n/a	catFR1	3	R1065J
2181.878	1.6	2137059	WORD	n/a	wordpools/wordpool_categorized_EN.txt	WRENCH	Tools	2	21	[0, 0, 0]	n/a	catFR1	3	R1065J
2184.262	1.6	2139443	WORD	n/a	wordpools/wordpool_categorized_EN.txt	SLINKY	Toys	3	21	[0, 0, 0]	n/a	catFR1	3	R1065J
2186.745	1.6	2141926	WORD	n/a	wordpools/wordpool_categorized_EN.txt	BASKETBALL	Toys	4	21	[0, 0, 0]	n/a	catFR1	3	R1065J
2189.163	1.6	2144344	WORD	n/a	wordpools/wordpool_categorized_EN.txt	PASTRY	Desserts	5	21	[0, 0, 0]	n/a	catFR1	3	R1065J
2191.746	1.6	2146927	WORD	n/a	wordpools/wordpool_categorized_EN.txt	PIE	Desserts	6	21	[0, 0, 0]	n/a	catFR1	3	R1065J
2194.264	1.6	2149445	WORD	n/a	wordpools/wordpool_categorized_EN.txt	SCREWDRIVER	Tools	7	21	[0, 0, 0]	n/a	catFR1	3	R1065J
2196.83	1.6	2152011	WORD	n/a	wordpools/wordpool_categorized_EN.txt	AXE	Tools	8	21	[0, 0, 0]	n/a	catFR1	3	R1065J
2199.414	1.6	2154595	WORD	n/a	wordpools/wordpool_categorized_EN.txt	JELLO	Desserts	9	21	[0, 0, 0]	n/a	catFR1	3	R1065J
2201.797	1.6	2156978	WORD	n/a	wordpools/wordpool_categorized_EN.txt	CUPCAKE	Desserts	10	21	[0, 0, 0]	n/a	catFR1	3	R1065J
2204.299	1.6	2159480	WORD	n/a	wordpools/wordpool_categorized_EN.txt	BALL	Toys	11	21	[0, 0, 0]	n/a	catFR1	3	R1065J
2206.915	1.6	2162096	WORD	n/a	wordpools/wordpool_categorized_EN.txt	MARBLES	Toys	12	21	[0, 0, 0]	n/a	catFR1	3	R1065J
2208.531	0.001	2163712	DISTRACT_START	n/a	n/a	n/a	n/a	-999	21	[0, 0, 0]	n/a	catFR1	3	R1065J
2208.532	0.016	2163713	START	n/a	n/a	n/a	n/a	-999	21	[-999, -999, -999]	n/a	catFR1	3	R1065J
2208.548	2.301	2163729	PROB	2.267	n/a	n/a	n/a	-999	21	[7, 9, 3]	19.0	catFR1	3	R1065J
2210.849	2.217	2166030	PROB	2.191	n/a	n/a	n/a	-999	21	[5, 8, 3]	16.0	catFR1	3	R1065J
2213.066	1.901	2168247	PROB	1.87	n/a	n/a	n/a	-999	21	[2, 9, 4]	15.0	catFR1	3	R1065J
2214.967	1.649	2170148	PROB	1.616	n/a	n/a	n/a	-999	21	[4, 5, 2]	11.0	catFR1	3	R1065J
2216.616	1.485	2171797	PROB	1.456	n/a	n/a	n/a	-999	21	[2, 5, 5]	12.0	catFR1	3	R1065J
2218.101	1.917	2173282	PROB	1.883	n/a	n/a	n/a	-999	21	[9, 3, 8]	20.0	catFR1	3	R1065J
2220.018	2.066	2175199	PROB	2.03	n/a	n/a	n/a	-999	21	[7, 1, 8]	16.0	catFR1	3	R1065J
2222.084	1.851	2177266	PROB	1.827	n/a	n/a	n/a	-999	21	[7, 8, 1]	16.0	catFR1	3	R1065J
2223.935	1.649	2179117	PROB	1.615	n/a	n/a	n/a	-999	21	[2, 6, 1]	9.0	catFR1	3	R1065J
2225.584	2.468	2180766	PROB	2.432	n/a	n/a	n/a	-999	21	[9, 3, 7]	19.0	catFR1	3	R1065J
2228.052	1.835	2183234	PROB	1.835	n/a	n/a	n/a	-999	21	[4, 6, 9]	19.0	catFR1	3	R1065J
2229.887	0.014	2185069	STOP	n/a	n/a	n/a	n/a	-999	21	[-999, -999, -999]	n/a	catFR1	3	R1065J
2229.901	1.052	2185083	DISTRACT_END	n/a	n/a	n/a	n/a	-999	21	[0, 0, 0]	n/a	catFR1	3	R1065J
2230.953	1.257	2186135	REC_START	n/a	n/a	n/a	n/a	-999	21	[0, 0, 0]	n/a	catFR1	3	R1065J
2232.21	0.977	2187392	REC_WORD	1.257	n/a	BALL	Toys	11	21	[0, 0, 0]	n/a	catFR1	3	R1065J
2233.187	0.966	2188369	REC_WORD	2.234	n/a	MARBLES	Toys	12	21	[0, 0, 0]	n/a	catFR1	3	R1065J
2234.153	3.33	2189335	REC_WORD	3.2	n/a	SLINKY	Toys	3	21	[0, 0, 0]	n/a	catFR1	3	R1065J
2237.483	0.972	2192665	REC_WORD	6.53	n/a	PASTRY	Desserts	5	21	[0, 0, 0]	n/a	catFR1	3	R1065J
2238.455	1.228	2193637	REC_WORD	7.502	n/a	PIE	Desserts	6	21	[0, 0, 0]	n/a	catFR1	3	R1065J
2239.683	4.687	2194865	REC_WORD	8.73	n/a	CUPCAKE	Desserts	10	21	[0, 0, 0]	n/a	catFR1	3	R1065J
2244.37	1.112	2199552	REC_WORD	13.417	n/a	SCREWDRIVER	Tools	7	21	[0, 0, 0]	n/a	catFR1	3	R1065J
2245.482	0.953	2200664	REC_WORD	14.529	n/a	WRENCH	Tools	2	21	[0, 0, 0]	n/a	catFR1	3	R1065J
2246.435	1.235	2201617	REC_WORD	15.482	n/a	SHOVEL	Tools	1	21	[0, 0, 0]	n/a	catFR1	3	R1065J
2247.67	13.294	2202852	REC_WORD	16.717	n/a	AXE	Tools	8	21	[0, 0, 0]	n/a	catFR1	3	R1065J
2260.964	25.013	2216146	REC_END	n/a	n/a	n/a	n/a	-999	21	[0, 0, 0]	n/a	catFR1	3	R1065J
2285.977	10.0	2241159	COUNTDOWN_START	n/a	n/a	n/a	n/a	-999	22	[0, 0, 0]	n/a	catFR1	3	R1065J
2285.977	10.428	2241159	TRIAL	n/a	n/a	n/a	n/a	-999	22	[0, 0, 0]	n/a	catFR1	3	R1065J
2296.405	0.006	2251587	COUNTDOWN_END	n/a	n/a	n/a	n/a	-999	22	[0, 0, 0]	n/a	catFR1	3	R1065J
2296.411	1.6	2251593	ORIENT	n/a	n/a	n/a	n/a	-999	22	[0, 0, 0]	n/a	catFR1	3	R1065J
2300.296	1.6	2255478	WORD	n/a	wordpools/wordpool_categorized_EN.txt	PUDDING	Desserts	1	22	[0, 0, 0]	n/a	catFR1	3	R1065J
2302.861	1.6	2258043	WORD	n/a	wordpools/wordpool_categorized_EN.txt	COBBLER	Desserts	2	22	[0, 0, 0]	n/a	catFR1	3	R1065J
2305.462	1.6	2260644	WORD	n/a	wordpools/wordpool_categorized_EN.txt	HALLWAY	Building	3	22	[0, 0, 0]	n/a	catFR1	3	R1065J
2308.03	1.6	2263212	WORD	n/a	wordpools/wordpool_categorized_EN.txt	STAIRS	Building	4	22	[0, 0, 0]	n/a	catFR1	3	R1065J
2310.579	1.6	2265761	WORD	n/a	wordpools/wordpool_categorized_EN.txt	PEAR	Fruit	5	22	[0, 0, 0]	n/a	catFR1	3	R1065J
2313.08	1.6	2268262	WORD	n/a	wordpools/wordpool_categorized_EN.txt	GRAPE	Fruit	6	22	[0, 0, 0]	n/a	catFR1	3	R1065J
2315.463	1.6	2270645	WORD	n/a	wordpools/wordpool_categorized_EN.txt	BROWNIES	Desserts	7	22	[0, 0, 0]	n/a	catFR1	3	R1065J
2317.914	1.6	2273096	WORD	n/a	wordpools/wordpool_categorized_EN.txt	FUDGE	Desserts	8	22	[0, 0, 0]	n/a	catFR1	3	R1065J
2320.348	1.6	2275530	WORD	n/a	wordpools/wordpool_categorized_EN.txt	APPLE	Fruit	9	22	[0, 0, 0]	n/a	catFR1	3	R1065J
2322.798	1.6	2277980	WORD	n/a	wordpools/wordpool_categorized_EN.txt	BANANA	Fruit	10	22	[0, 0, 0]	n/a	catFR1	3	R1065J
2325.249	1.6	2280431	WORD	n/a	wordpools/wordpool_categorized_EN.txt	FLOOR	Building	11	22	[0, 0, 0]	n/a	catFR1	3	R1065J
2327.832	1.6	2283014	WORD	n/a	wordpools/wordpool_categorized_EN.txt	FOUNDATION	Building	12	22	[0, 0, 0]	n/a	catFR1	3	R1065J
2329.449	0.001	2284631	DISTRACT_START	n/a	n/a	n/a	n/a	-999	22	[0, 0, 0]	n/a	catFR1	3	R1065J
2329.45	0.015	2284632	START	n/a	n/a	n/a	n/a	-999	22	[-999, -999, -999]	n/a	catFR1	3	R1065J
2329.465	1.752	2284647	PROB	1.716	n/a	n/a	n/a	-999	22	[1, 6, 3]	10.0	catFR1	3	R1065J
2331.217	1.983	2286399	PROB	1.956	n/a	n/a	n/a	-999	22	[7, 5, 3]	15.0	catFR1	3	R1065J
2333.2	2.433	2288382	PROB	2.412	n/a	n/a	n/a	-999	22	[8, 8, 9]	25.0	catFR1	3	R1065J
2335.633	2.184	2290815	PROB	2.155	n/a	n/a	n/a	-999	22	[4, 1, 7]	12.0	catFR1	3	R1065J
2337.817	2.201	2292999	PROB	2.171	n/a	n/a	n/a	-999	22	[2, 3, 2]	7.0	catFR1	3	R1065J
2340.018	2.649	2295200	PROB	2.625	n/a	n/a	n/a	-999	22	[3, 2, 7]	12.0	catFR1	3	R1065J
2342.667	2.851	2297849	PROB	2.824	n/a	n/a	n/a	-999	22	[6, 8, 9]	23.0	catFR1	3	R1065J
2345.518	1.933	2300700	PROB	1.901	n/a	n/a	n/a	-999	22	[9, 4, 6]	19.0	catFR1	3	R1065J
2347.451	1.685	2302633	PROB	1.65	n/a	n/a	n/a	-999	22	[4, 1, 8]	13.0	catFR1	3	R1065J
2349.136	1.788	2304318	PROB	1.788	n/a	n/a	n/a	-999	22	[3, 2, 1]	6.0	catFR1	3	R1065J
2350.924	0.012	2306106	STOP	n/a	n/a	n/a	n/a	-999	22	[-999, -999, -999]	n/a	catFR1	3	R1065J
2350.936	1.067	2306118	DISTRACT_END	n/a	n/a	n/a	n/a	-999	22	[0, 0, 0]	n/a	catFR1	3	R1065J
2352.003	0.83	2307185	REC_START	n/a	n/a	n/a	n/a	-999	22	[0, 0, 0]	n/a	catFR1	3	R1065J
2352.833	0.997	2308015	REC_WORD	0.83	n/a	HALLWAY	Building	3	22	[0, 0, 0]	n/a	catFR1	3	R1065J
2353.83	1.464	2309012	REC_WORD	1.827	n/a	STAIRS	Building	4	22	[0, 0, 0]	n/a	catFR1	3	R1065J
2355.294	0.985	2310476	REC_WORD	3.291	n/a	FOUNDATION	Building	12	22	[0, 0, 0]	n/a	catFR1	3	R1065J
2356.279	1.836	2311461	REC_WORD	4.276	n/a	FLOOR	Building	11	22	[0, 0, 0]	n/a	catFR1	3	R1065J
2358.115	1.062	2313297	REC_WORD	6.112	n/a	PUDDING	Desserts	1	22	[0, 0, 0]	n/a	catFR1	3	R1065J
2359.177	5.879	2314359	REC_WORD	7.174	n/a	COBBLER	Desserts	2	22	[0, 0, 0]	n/a	catFR1	3	R1065J
2365.056	11.05	2320238	REC_WORD	13.053	n/a	BROWNIES	Desserts	7	22	[0, 0, 0]	n/a	catFR1	3	R1065J
2376.106	1.327	2331289	REC_WORD	24.103	n/a	BANANA	Fruit	10	22	[0, 0, 0]	n/a	catFR1	3	R1065J
2377.433	1.031	2332616	REC_WORD	25.43	n/a	PEAR	Fruit	5	22	[0, 0, 0]	n/a	catFR1	3	R1065J
2378.464	1.248	2333647	REC_WORD	26.461	n/a	APPLE	Fruit	9	22	[0, 0, 0]	n/a	catFR1	3	R1065J
2379.712	2.306	2334895	REC_WORD	27.709	n/a	GRAPE	Fruit	6	22	[0, 0, 0]	n/a	catFR1	3	R1065J
2382.018	1.738	2337201	REC_END	n/a	n/a	n/a	n/a	-999	22	[0, 0, 0]	n/a	catFR1	3	R1065J
2383.756	0.0	2338939	TRIAL	n/a	n/a	n/a	n/a	-999	23	[0, 0, 0]	n/a	catFR1	3	R1065J
2383.756	10.0	2338939	COUNTDOWN_START	n/a	n/a	n/a	n/a	-999	23	[0, 0, 0]	n/a	catFR1	3	R1065J
2394.184	0.008	2349367	COUNTDOWN_END	n/a	n/a	n/a	n/a	-999	23	[0, 0, 0]	n/a	catFR1	3	R1065J
2394.192	1.6	2349375	ORIENT	n/a	n/a	n/a	n/a	-999	23	[0, 0, 0]	n/a	catFR1	3	R1065J
2397.758	1.6	2352941	WORD	n/a	wordpools/wordpool_categorized_EN.txt	TRUCK	Vehicles	1	23	[0, 0, 0]	n/a	catFR1	3	R1065J
2400.276	1.6	2355459	WORD	n/a	wordpools/wordpool_categorized_EN.txt	CAR	Vehicles	2	23	[0, 0, 0]	n/a	catFR1	3	R1065J
2402.842	1.6	2358025	WORD	n/a	wordpools/wordpool_categorized_EN.txt	DESK	Furniture	3	23	[0, 0, 0]	n/a	catFR1	3	R1065J
2405.409	1.6	2360592	WORD	n/a	wordpools/wordpool_categorized_EN.txt	SHELF	Furniture	4	23	[0, 0, 0]	n/a	catFR1	3	R1065J
2407.793	1.6	2362976	WORD	n/a	wordpools/wordpool_categorized_EN.txt	FISH	OceanAnimals	5	23	[0, 0, 0]	n/a	catFR1	3	R1065J
2410.311	1.6	2365494	WORD	n/a	wordpools/wordpool_categorized_EN.txt	OYSTER	OceanAnimals	6	23	[0, 0, 0]	n/a	catFR1	3	R1065J
2412.91	1.6	2368093	WORD	n/a	wordpools/wordpool_categorized_EN.txt	BOOKCASE	Furniture	7	23	[0, 0, 0]	n/a	catFR1	3	R1065J
2415.511	1.6	2370694	WORD	n/a	wordpools/wordpool_categorized_EN.txt	RECLINER	Furniture	8	23	[0, 0, 0]	n/a	catFR1	3	R1065J
2417.962	1.6	2373145	WORD	n/a	wordpools/wordpool_categorized_EN.txt	BUS	Vehicles	9	23	[0, 0, 0]	n/a	catFR1	3	R1065J
2420.346	1.6	2375529	WORD	n/a	wordpools/wordpool_categorized_EN.txt	MOTORCYCLE	Vehicles	10	23	[0, 0, 0]	n/a	catFR1	3	R1065J
2422.912	1.6	2378095	WORD	n/a	wordpools/wordpool_categorized_EN.txt	WHALE	OceanAnimals	11	23	[0, 0, 0]	n/a	catFR1	3	R1065J
2425.462	1.6	2380645	WORD	n/a	wordpools/wordpool_categorized_EN.txt	OCTOPUS	OceanAnimals	12	23	[0, 0, 0]	n/a	catFR1	3	R1065J
2427.063	0.002	2382246	DISTRACT_START	n/a	n/a	n/a	n/a	-999	23	[0, 0, 0]	n/a	catFR1	3	R1065J
2427.065	0.015	2382248	START	n/a	n/a	n/a	n/a	-999	23	[-999, -999, -999]	n/a	catFR1	3	R1065J
2427.08	2.201	2382263	PROB	2.17	n/a	n/a	n/a	-999	23	[4, 8, 2]	14.0	catFR1	3	R1065J
2429.281	1.716	2384464	PROB	1.689	n/a	n/a	n/a	-999	23	[7, 4, 4]	15.0	catFR1	3	R1065J
2430.997	1.699	2386180	PROB	1.668	n/a	n/a	n/a	-999	23	[7, 9, 6]	22.0	catFR1	3	R1065J
2432.696	1.518	2387879	PROB	1.49	n/a	n/a	n/a	-999	23	[3, 6, 3]	12.0	catFR1	3	R1065J
2434.214	1.901	2389397	PROB	1.876	n/a	n/a	n/a	-999	23	[8, 5, 8]	21.0	catFR1	3	R1065J
2436.115	1.649	2391298	PROB	1.622	n/a	n/a	n/a	-999	23	[6, 6, 5]	17.0	catFR1	3	R1065J
2437.764	1.717	2392947	PROB	1.693	n/a	n/a	n/a	-999	23	[7, 2, 8]	17.0	catFR1	3	R1065J
2439.481	1.651	2394664	PROB	1.617	n/a	n/a	n/a	-999	23	[2, 6, 6]	14.0	catFR1	3	R1065J
2441.132	1.533	2396315	PROB	1.509	n/a	n/a	n/a	-999	23	[1, 6, 6]	13.0	catFR1	3	R1065J
2442.665	1.85	2397848	PROB	1.816	n/a	n/a	n/a	-999	23	[6, 2, 4]	12.0	catFR1	3	R1065J
2444.515	1.501	2399698	PROB	1.479	n/a	n/a	n/a	-999	23	[1, 9, 1]	11.0	catFR1	3	R1065J
2446.016	2.218	2401199	PROB	2.218	n/a	n/a	n/a	-999	23	[3, 4, 6]	13.0	catFR1	3	R1065J
2448.234	0.016	2403417	STOP	n/a	n/a	n/a	n/a	-999	23	[-999, -999, -999]	n/a	catFR1	3	R1065J
2448.25	1.167	2403433	DISTRACT_END	n/a	n/a	n/a	n/a	-999	23	[0, 0, 0]	n/a	catFR1	3	R1065J
2449.417	1.146	2404600	REC_START	n/a	n/a	n/a	n/a	-999	23	[0, 0, 0]	n/a	catFR1	3	R1065J
2450.563	1.238	2405746	REC_WORD	1.146	n/a	OYSTER	OceanAnimals	6	23	[0, 0, 0]	n/a	catFR1	3	R1065J
2451.801	0.576	2406984	REC_WORD	2.384	n/a	WHALE	OceanAnimals	11	23	[0, 0, 0]	n/a	catFR1	3	R1065J
2452.377	1.016	2407560	REC_WORD	2.96	n/a	FISH	OceanAnimals	5	23	[0, 0, 0]	n/a	catFR1	3	R1065J
2453.393	5.017	2408576	REC_WORD	3.976	n/a	OCTOPUS	OceanAnimals	12	23	[0, 0, 0]	n/a	catFR1	3	R1065J
2458.41	1.015	2413593	REC_WORD	8.993	n/a	BOOKCASE	Furniture	7	23	[0, 0, 0]	n/a	catFR1	3	R1065J
2459.425	1.041	2414608	REC_WORD	10.008	n/a	SHELF	Furniture	4	23	[0, 0, 0]	n/a	catFR1	3	R1065J
2460.466	0.804	2415649	REC_WORD	11.049	n/a	DESK	Furniture	3	23	[0, 0, 0]	n/a	catFR1	3	R1065J
2461.27	9.976	2416453	REC_WORD	11.853	n/a	RECLINER	Furniture	8	23	[0, 0, 0]	n/a	catFR1	3	R1065J
2471.246	0.813	2426429	REC_WORD	21.829	n/a	TRUCK	Vehicles	1	23	[0, 0, 0]	n/a	catFR1	3	R1065J
2472.059	1.776	2427242	REC_WORD	22.642	n/a	CAR	Vehicles	2	23	[0, 0, 0]	n/a	catFR1	3	R1065J
2473.835	5.593	2429018	REC_WORD	24.418	n/a	MOTORCYCLE	Vehicles	10	23	[0, 0, 0]	n/a	catFR1	3	R1065J
2479.428	1.943	2434611	REC_END	n/a	n/a	n/a	n/a	-999	23	[0, 0, 0]	n/a	catFR1	3	R1065J
2481.371	0.0	2436554	TRIAL	n/a	n/a	n/a	n/a	-999	24	[0, 0, 0]	n/a	catFR1	3	R1065J
2481.371	10.0	2436554	COUNTDOWN_START	n/a	n/a	n/a	n/a	-999	24	[0, 0, 0]	n/a	catFR1	3	R1065J
2491.799	0.006	2446982	COUNTDOWN_END	n/a	n/a	n/a	n/a	-999	24	[0, 0, 0]	n/a	catFR1	3	R1065J
2491.805	1.6	2446988	ORIENT	n/a	n/a	n/a	n/a	-999	24	[0, 0, 0]	n/a	catFR1	3	R1065J
2495.589	1.6	2450772	WORD	n/a	wordpools/wordpool_categorized_EN.txt	CLOUD	Weather	1	24	[0, 0, 0]	n/a	catFR1	3	R1065J
2498.124	1.6	2453307	WORD	n/a	wordpools/wordpool_categorized_EN.txt	HURRICANE	Weather	2	24	[0, 0, 0]	n/a	catFR1	3	R1065J
2500.606	1.6	2455789	WORD	n/a	wordpools/wordpool_categorized_EN.txt	STRAWBERRY	Fruit	3	24	[0, 0, 0]	n/a	catFR1	3	R1065J
2503.208	1.6	2458391	WORD	n/a	wordpools/wordpool_categorized_EN.txt	LEMON	Fruit	4	24	[0, 0, 0]	n/a	catFR1	3	R1065J
2505.657	1.6	2460840	WORD	n/a	wordpools/wordpool_categorized_EN.txt	GIRAFFE	Zoo	5	24	[0, 0, 0]	n/a	catFR1	3	R1065J
2508.158	1.6	2463341	WORD	n/a	wordpools/wordpool_categorized_EN.txt	CHIMPANZEE	Zoo	6	24	[0, 0, 0]	n/a	catFR1	3	R1065J
2510.624	1.6	2465807	WORD	n/a	wordpools/wordpool_categorized_EN.txt	TORNADO	Weather	7	24	[0, 0, 0]	n/a	catFR1	3	R1065J
2513.109	1.6	2468292	WORD	n/a	wordpools/wordpool_categorized_EN.txt	LIGHTNING	Weather	8	24	[0, 0, 0]	n/a	catFR1	3	R1065J
2515.525	1.6	2470708	WORD	n/a	wordpools/wordpool_categorized_EN.txt	ORANGUTAN	Zoo	9	24	[0, 0, 0]	n/a	catFR1	3	R1065J
2518.043	1.6	2473226	WORD	n/a	wordpools/wordpool_categorized_EN.txt	TIGER	Zoo	10	24	[0, 0, 0]	n/a	catFR1	3	R1065J
2520.659	1.6	2475843	WORD	n/a	wordpools/wordpool_categorized_EN.txt	CHERRY	Fruit	11	24	[0, 0, 0]	n/a	catFR1	3	R1065J
2523.094	1.6	2478278	WORD	n/a	wordpools/wordpool_categorized_EN.txt	ORANGE	Fruit	12	24	[0, 0, 0]	n/a	catFR1	3	R1065J
2524.71	0.001	2479894	DISTRACT_START	n/a	n/a	n/a	n/a	-999	24	[0, 0, 0]	n/a	catFR1	3	R1065J
2524.711	0.015	2479895	START	n/a	n/a	n/a	n/a	-999	24	[-999, -999, -999]	n/a	catFR1	3	R1065J
2524.726	3.184	2479910	PROB	3.153	n/a	n/a	n/a	-999	24	[5, 9, 8]	22.0	catFR1	3	R1065J
2527.91	1.517	2483094	PROB	1.497	n/a	n/a	n/a	-999	24	[4, 5, 2]	11.0	catFR1	3	R1065J
2529.427	1.501	2484611	PROB	1.476	n/a	n/a	n/a	-999	24	[7, 3, 9]	19.0	catFR1	3	R1065J
2530.928	1.883	2486112	PROB	1.846	n/a	n/a	n/a	-999	24	[3, 9, 2]	14.0	catFR1	3	R1065J
2532.811	1.817	2487995	PROB	1.795	n/a	n/a	n/a	-999	24	[4, 4, 2]	10.0	catFR1	3	R1065J
2534.628	3.8	2489812	PROB	3.778	n/a	n/a	n/a	-999	24	[7, 8, 7]	22.0	catFR1	3	R1065J
2538.428	1.852	2493612	PROB	1.819	n/a	n/a	n/a	-999	24	[2, 6, 6]	14.0	catFR1	3	R1065J
2540.28	2.016	2495464	PROB	1.991	n/a	n/a	n/a	-999	24	[6, 9, 5]	20.0	catFR1	3	R1065J
2542.296	1.466	2497480	PROB	1.446	n/a	n/a	n/a	-999	24	[4, 6, 2]	12.0	catFR1	3	R1065J
2543.762	2.213	2498946	PROB	2.213	n/a	n/a	n/a	-999	24	[5, 9, 4]	18.0	catFR1	3	R1065J
2545.975	0.005	2501159	STOP	n/a	n/a	n/a	n/a	-999	24	[-999, -999, -999]	n/a	catFR1	3	R1065J
2545.98	1.084	2501164	DISTRACT_END	n/a	n/a	n/a	n/a	-999	24	[0, 0, 0]	n/a	catFR1	3	R1065J
2547.064	2.456	2502248	REC_START	n/a	n/a	n/a	n/a	-999	24	[0, 0, 0]	n/a	catFR1	3	R1065J
2549.52	1.422	2504704	REC_WORD	2.456	n/a	CHIMPANZEE	Zoo	6	24	[0, 0, 0]	n/a	catFR1	3	R1065J
2550.942	5.501	2506126	REC_WORD	3.878	n/a	GIRAFFE	Zoo	5	24	[0, 0, 0]	n/a	catFR1	3	R1065J
2556.443	0.47	2511627	REC_WORD_VV	9.379	n/a	<>	n/a	-999	24	[0, 0, 0]	n/a	catFR1	3	R1065J
2556.913	0.849	2512097	REC_WORD	9.849	n/a	HURRICANE	Weather	2	24	[0, 0, 0]	n/a	catFR1	3	R1065J
2557.762	1.155	2512946	REC_WORD	10.698	n/a	TORNADO	Weather	7	24	[0, 0, 0]	n/a	catFR1	3	R1065J
2558.917	10.658	2514101	REC_WORD	11.853	n/a	CLOUD	Weather	1	24	[0, 0, 0]	n/a	catFR1	3	R1065J
2569.575	1.106	2524759	REC_WORD	22.511	n/a	STRAWBERRY	Fruit	3	24	[0, 0, 0]	n/a	catFR1	3	R1065J
2570.681	6.395	2525865	REC_WORD	23.617	n/a	CHERRY	Fruit	11	24	[0, 0, 0]	n/a	catFR1	3	R1065J
2577.076	1.708	2532260	REC_END	n/a	n/a	n/a	n/a	-999	24	[0, 0, 0]	n/a	catFR1	3	R1065J
2578.784	0.0	2533968	TRIAL	n/a	n/a	n/a	n/a	-999	25	[0, 0, 0]	n/a	catFR1	3	R1065J
2578.784	10.0	2533968	COUNTDOWN_START	n/a	n/a	n/a	n/a	-999	25	[0, 0, 0]	n/a	catFR1	3	R1065J
2589.212	0.025	2544396	COUNTDOWN_END	n/a	n/a	n/a	n/a	-999	25	[0, 0, 0]	n/a	catFR1	3	R1065J
2589.237	1.6	2544421	ORIENT	n/a	n/a	n/a	n/a	-999	25	[0, 0, 0]	n/a	catFR1	3	R1065J
2592.836	1.6	2548020	WORD	n/a	wordpools/wordpool_categorized_EN.txt	LEVEL	Tools	1	25	[0, 0, 0]	n/a	catFR1	3	R1065J
2595.436	1.6	2550620	WORD	n/a	wordpools/wordpool_categorized_EN.txt	DRILL	Tools	2	25	[0, 0, 0]	n/a	catFR1	3	R1065J
2597.938	1.6	2553122	WORD	n/a	wordpools/wordpool_categorized_EN.txt	LOBSTER	OceanAnimals	3	25	[0, 0, 0]	n/a	catFR1	3	R1065J
