onset	duration	sample	trial_type	response_time	stim_file	item_name	category	serialpos	list	test	answer	experiment	session	subject
0.0	0.009	33387	SESS_START	n/a	n/a	n/a	n/a	-999	0	[0, 0, 0]	n/a	catFR1	3	R1672T
0.009	33.182	33396	TRIAL	n/a	n/a	n/a	n/a	-999	-1	[0, 0, 0]	n/a	catFR1	3	R1672T
33.191	10.45	66578	COUNTDOWN	n/a	n/a	n/a	n/a	-999	-1	[0, 0, 0]	n/a	catFR1	3	R1672T
43.641	2.168	77028	ENCODING_START	n/a	n/a	n/a	n/a	-999	-1	[0, 0, 0]	n/a	catFR1	3	R1672T
45.809	2.381	79196	WORD	n/a	n/a	RUM	Beverages	1	-1	[0, 0, 0]	n/a	catFR1	3	R1672T
48.19	2.484	81577	WORD	n/a	n/a	BEER	Beverages	2	-1	[0, 0, 0]	n/a	catFR1	3	R1672T
50.674	2.5	84061	WORD	n/a	n/a	JACKET	Clothing	3	-1	[0, 0, 0]	n/a	catFR1	3	R1672T
53.174	2.483	86561	WORD	n/a	n/a	JEANS	Clothing	4	-1	[0, 0, 0]	n/a	catFR1	3	R1672T
55.657	2.417	89044	WORD	n/a	n/a	STRAWBERRY	Fruit	5	-1	[0, 0, 0]	n/a	catFR1	3	R1672T
58.074	2.45	91461	WORD	n/a	n/a	GRAPE	Fruit	6	-1	[0, 0, 0]	n/a	catFR1	3	R1672T
60.524	2.583	93911	WORD	n/a	n/a	TEA	Beverages	7	-1	[0, 0, 0]	n/a	catFR1	3	R1672T
63.107	2.45	96494	WORD	n/a	n/a	COFFEE	Beverages	8	-1	[0, 0, 0]	n/a	catFR1	3	R1672T
65.557	2.532	98944	WORD	n/a	n/a	UNDERWEAR	Clothing	9	-1	[0, 0, 0]	n/a	catFR1	3	R1672T
68.089	2.401	101476	WORD	n/a	n/a	SHOES	Clothing	10	-1	[0, 0, 0]	n/a	catFR1	3	R1672T
70.49	2.618	103877	WORD	n/a	n/a	PEAR	Fruit	11	-1	[0, 0, 0]	n/a	catFR1	3	R1672T
73.108	1.616	106495	WORD	n/a	n/a	PEACH	Fruit	12	-1	[0, 0, 0]	n/a	catFR1	3	R1672T
74.724	0.0	108111	DISTRACT_START	n/a	n/a	n/a	n/a	-999	0	[0, 0, 0]	n/a	catFR1	3	R1672T
74.724	4.965	108111	PROB	4.965	n/a	n/a	n/a	-999	0	[4, 2, 8]	14	catFR1	3	R1672T
79.689	3.401	113076	PROB	3.401	n/a	n/a	n/a	-999	0	[2, 1, 6]	9	catFR1	3	R1672T
83.09	5.483	116477	PROB	5.483	n/a	n/a	n/a	-999	0	[2, 3, 8]	13	catFR1	3	R1672T
88.573	9.354	121960	PROB	9.354	n/a	n/a	n/a	-999	0	[6, 5, 3]	14	catFR1	3	R1672T
97.927	0.279	131314	REC_START	n/a	n/a	n/a	n/a	-999	-1	[0, 0, 0]	n/a	catFR1	3	R1672T
98.206	0.601	131593	REC_WORD	0.601	n/a	JACKET	Clothing	3	-1	[0, 0, 0]	n/a	catFR1	3	R1672T
98.807	0.511	132194	REC_WORD	0.511	n/a	PEAR	Fruit	11	-1	[0, 0, 0]	n/a	catFR1	3	R1672T
99.318	0.736	132705	REC_WORD	0.736	n/a	PEACH	Fruit	12	-1	[0, 0, 0]	n/a	catFR1	3	R1672T
100.054	0.754	133441	REC_WORD	0.754	n/a	UNDERWEAR	Clothing	9	-1	[0, 0, 0]	n/a	catFR1	3	R1672T
100.808	5.824	134195	REC_WORD	5.824	n/a	SHOES	Clothing	10	-1	[0, 0, 0]	n/a	catFR1	3	R1672T
106.632	1.0	140019	REC_WORD_VV	1.0	n/a	<>	n/a	-999	-1	[0, 0, 0]	n/a	catFR1	3	R1672T
107.632	4.58	141019	REC_WORD_VV	4.58	n/a	<>	n/a	-999	-1	[0, 0, 0]	n/a	catFR1	3	R1672T
112.212	1.0	145599	REC_WORD_VV	1.0	n/a	<>	n/a	-999	-1	[0, 0, 0]	n/a	catFR1	3	R1672T
113.212	2.049	146599	REC_WORD_VV	2.049	n/a	<>	n/a	-999	-1	[0, 0, 0]	n/a	catFR1	3	R1672T
115.261	1.0	148648	REC_WORD_VV	1.0	n/a	<>	n/a	-999	-1	[0, 0, 0]	n/a	catFR1	3	R1672T
116.261	6.476	149648	REC_WORD_VV	6.476	n/a	<>	n/a	-999	-1	[0, 0, 0]	n/a	catFR1	3	R1672T
122.737	1.0	156124	REC_WORD_VV	1.0	n/a	<>	n/a	-999	-1	[0, 0, 0]	n/a	catFR1	3	R1672T
123.737	1.0	157124	REC_WORD_VV	1.0	n/a	<>	n/a	-999	-1	[0, 0, 0]	n/a	catFR1	3	R1672T
124.737	1.0	158124	REC_WORD_VV	1.0	n/a	<>	n/a	-999	-1	[0, 0, 0]	n/a	catFR1	3	R1672T
125.737	1.905	159124	REC_WORD_VV	1.905	n/a	<>	n/a	-999	-1	[0, 0, 0]	n/a	catFR1	3	R1672T
127.642	0.439	161029	REC_WORD_VV	0.439	n/a	<>	n/a	-999	-1	[0, 0, 0]	n/a	catFR1	3	R1672T
128.081	8.056	161468	TRIAL	n/a	n/a	n/a	n/a	-999	1	[0, 0, 0]	n/a	catFR1	3	R1672T
136.137	10.348	169524	COUNTDOWN	n/a	n/a	n/a	n/a	-999	1	[0, 0, 0]	n/a	catFR1	3	R1672T
146.485	2.084	179872	ENCODING_START	n/a	n/a	n/a	n/a	-999	1	[0, 0, 0]	n/a	catFR1	3	R1672T
148.569	2.383	181956	WORD	n/a	wordpools/wordpool_categorized_EN.txt	CROWBAR	Tools	1	1	[0, 0, 0]	n/a	catFR1	3	R1672T
150.952	2.601	184339	WORD	n/a	wordpools/wordpool_categorized_EN.txt	DRILL	Tools	2	1	[0, 0, 0]	n/a	catFR1	3	R1672T
153.553	2.565	186940	WORD	n/a	wordpools/wordpool_categorized_EN.txt	ORCHID	Flowers	3	1	[0, 0, 0]	n/a	catFR1	3	R1672T
156.118	2.568	189505	WORD	n/a	wordpools/wordpool_categorized_EN.txt	CARNATION	Flowers	4	1	[0, 0, 0]	n/a	catFR1	3	R1672T
158.686	2.599	192073	WORD	n/a	wordpools/wordpool_categorized_EN.txt	BUTTERFLY	Insects	5	1	[0, 0, 0]	n/a	catFR1	3	R1672T
161.285	2.617	194672	WORD	n/a	wordpools/wordpool_categorized_EN.txt	FLY	Insects	6	1	[0, 0, 0]	n/a	catFR1	3	R1672T
163.902	2.449	197289	WORD	n/a	wordpools/wordpool_categorized_EN.txt	ROSE	Flowers	7	1	[0, 0, 0]	n/a	catFR1	3	R1672T
166.351	2.384	199738	WORD	n/a	wordpools/wordpool_categorized_EN.txt	LILY	Flowers	8	1	[0, 0, 0]	n/a	catFR1	3	R1672T
168.735	2.584	202122	WORD	n/a	wordpools/wordpool_categorized_EN.txt	LEVEL	Tools	9	1	[0, 0, 0]	n/a	catFR1	3	R1672T
171.319	2.433	204706	WORD	n/a	wordpools/wordpool_categorized_EN.txt	AXE	Tools	10	1	[0, 0, 0]	n/a	catFR1	3	R1672T
173.752	2.599	207139	WORD	n/a	wordpools/wordpool_categorized_EN.txt	GNAT	Insects	11	1	[0, 0, 0]	n/a	catFR1	3	R1672T
176.351	1.616	209738	WORD	n/a	wordpools/wordpool_categorized_EN.txt	LADYBUG	Insects	12	1	[0, 0, 0]	n/a	catFR1	3	R1672T
177.967	0.001	211354	PROB	0.001	n/a	n/a	n/a	-999	1	[6, 7, 3]	16	catFR1	3	R1672T
177.968	4.7	211355	DISTRACT_START	n/a	n/a	n/a	n/a	-999	1	[0, 0, 0]	n/a	catFR1	3	R1672T
182.668	3.067	216055	PROB	3.067	n/a	n/a	n/a	-999	1	[2, 3, 4]	9	catFR1	3	R1672T
185.735	4.683	219122	PROB	4.683	n/a	n/a	n/a	-999	1	[5, 3, 2]	10	catFR1	3	R1672T
190.418	5.016	223805	PROB	5.016	n/a	n/a	n/a	-999	1	[2, 5, 7]	14	catFR1	3	R1672T
195.434	8.321	228821	PROB	8.321	n/a	n/a	n/a	-999	1	[8, 6, 3]	17	catFR1	3	R1672T
203.755	1.291	237142	REC_START	n/a	n/a	n/a	n/a	-999	1	[0, 0, 0]	n/a	catFR1	3	R1672T
205.046	1.723	238433	REC_WORD	1.723	n/a	CROWBAR	Tools	1	1	[0, 0, 0]	n/a	catFR1	3	R1672T
206.769	2.294	240156	REC_WORD	2.294	n/a	ORCHID	Flowers	3	1	[0, 0, 0]	n/a	catFR1	3	R1672T
209.063	2.246	242450	REC_WORD_VV	2.246	n/a	<>	n/a	-999	1	[0, 0, 0]	n/a	catFR1	3	R1672T
211.309	1.147	244696	REC_WORD_VV	1.147	n/a	<>	n/a	-999	1	[0, 0, 0]	n/a	catFR1	3	R1672T
212.456	2.305	245843	REC_WORD	2.305	n/a	SPEAR	n/a	-999	1	[0, 0, 0]	n/a	catFR1	3	R1672T
214.761	3.267	248148	REC_WORD	3.267	n/a	AXE	Tools	10	1	[0, 0, 0]	n/a	catFR1	3	R1672T
218.028	3.452	251415	REC_WORD_VV	3.452	n/a	<>	n/a	-999	1	[0, 0, 0]	n/a	catFR1	3	R1672T
221.48	1.0	254867	REC_WORD_VV	1.0	n/a	<>	n/a	-999	1	[0, 0, 0]	n/a	catFR1	3	R1672T
222.48	7.688	255867	REC_WORD_VV	7.688	n/a	<>	n/a	-999	1	[0, 0, 0]	n/a	catFR1	3	R1672T
230.168	1.0	263555	REC_WORD_VV	1.0	n/a	<>	n/a	-999	1	[0, 0, 0]	n/a	catFR1	3	R1672T
231.168	1.0	264555	REC_WORD_VV	1.0	n/a	<>	n/a	-999	1	[0, 0, 0]	n/a	catFR1	3	R1672T
232.168	1.723	265555	REC_WORD_VV	1.723	n/a	<>	n/a	-999	1	[0, 0, 0]	n/a	catFR1	3	R1672T
233.891	7.041	267278	TRIAL	n/a	n/a	n/a	n/a	-999	2	[0, 0, 0]	n/a	catFR1	3	R1672T
240.932	10.367	274319	COUNTDOWN	n/a	n/a	n/a	n/a	-999	2	[0, 0, 0]	n/a	catFR1	3	R1672T
251.299	2.032	284686	ENCODING_START	n/a	n/a	n/a	n/a	-999	2	[0, 0, 0]	n/a	catFR1	3	R1672T
253.331	2.549	286718	WORD	n/a	wordpools/wordpool_categorized_EN.txt	BLUEBERRY	Fruit	1	2	[0, 0, 0]	n/a	catFR1	3	R1672T
255.88	2.435	289267	WORD	n/a	wordpools/wordpool_categorized_EN.txt	ORANGE	Fruit	2	2	[0, 0, 0]	n/a	catFR1	3	R1672T
258.315	2.365	291702	WORD	n/a	wordpools/wordpool_categorized_EN.txt	VELVET	Fabric	3	2	[0, 0, 0]	n/a	catFR1	3	R1672T
260.68	2.468	294067	WORD	n/a	wordpools/wordpool_categorized_EN.txt	SILK	Fabric	4	2	[0, 0, 0]	n/a	catFR1	3	R1672T
263.148	2.417	296535	WORD	n/a	wordpools/wordpool_categorized_EN.txt	ORGAN	Instruments	5	2	[0, 0, 0]	n/a	catFR1	3	R1672T
265.565	2.499	298952	WORD	n/a	wordpools/wordpool_categorized_EN.txt	BANJO	Instruments	6	2	[0, 0, 0]	n/a	catFR1	3	R1672T
268.064	2.383	301451	WORD	n/a	wordpools/wordpool_categorized_EN.txt	DENIM	Fabric	7	2	[0, 0, 0]	n/a	catFR1	3	R1672T
270.447	2.432	303834	WORD	n/a	wordpools/wordpool_categorized_EN.txt	WOOL	Fabric	8	2	[0, 0, 0]	n/a	catFR1	3	R1672T
272.879	2.535	306266	WORD	n/a	wordpools/wordpool_categorized_EN.txt	CELLO	Instruments	9	2	[0, 0, 0]	n/a	catFR1	3	R1672T
275.414	2.383	308801	WORD	n/a	wordpools/wordpool_categorized_EN.txt	GUITAR	Instruments	10	2	[0, 0, 0]	n/a	catFR1	3	R1672T
277.797	2.4	311184	WORD	n/a	wordpools/wordpool_categorized_EN.txt	LEMON	Fruit	11	2	[0, 0, 0]	n/a	catFR1	3	R1672T
280.197	1.616	313584	WORD	n/a	wordpools/wordpool_categorized_EN.txt	APPLE	Fruit	12	2	[0, 0, 0]	n/a	catFR1	3	R1672T
281.813	0.002	315200	PROB	0.002	n/a	n/a	n/a	-999	2	[7, 5, 5]	17	catFR1	3	R1672T
281.815	5.532	315202	DISTRACT_START	n/a	n/a	n/a	n/a	-999	2	[0, 0, 0]	n/a	catFR1	3	R1672T
287.347	3.934	320734	PROB	3.934	n/a	n/a	n/a	-999	2	[3, 4, 1]	8	catFR1	3	R1672T
291.281	4.416	324668	PROB	4.416	n/a	n/a	n/a	-999	2	[8, 7, 1]	16	catFR1	3	R1672T
295.697	3.833	329084	PROB	3.833	n/a	n/a	n/a	-999	2	[6, 4, 3]	13	catFR1	3	R1672T
299.53	6.581	332917	PROB	6.581	n/a	n/a	n/a	-999	2	[6, 5, 8]	19	catFR1	3	R1672T
306.111	0.973	339498	REC_START	n/a	n/a	n/a	n/a	-999	2	[0, 0, 0]	n/a	catFR1	3	R1672T
307.084	2.342	340471	REC_WORD_VV	2.342	n/a	<>	n/a	-999	2	[0, 0, 0]	n/a	catFR1	3	R1672T
309.426	1.686	342813	REC_WORD	1.686	n/a	BANJO	Instruments	6	2	[0, 0, 0]	n/a	catFR1	3	R1672T
311.112	1.54	344499	REC_WORD	1.54	n/a	ORCHID	Flowers	-999	2	[0, 0, 0]	n/a	catFR1	3	R1672T
312.652	6.248	346039	REC_WORD	6.248	n/a	CELLO	Instruments	9	2	[0, 0, 0]	n/a	catFR1	3	R1672T
318.9	2.127	352287	REC_WORD	2.127	n/a	FLUTE	n/a	-999	2	[0, 0, 0]	n/a	catFR1	3	R1672T
321.027	3.73	354414	REC_WORD	3.73	n/a	PIANO	n/a	-999	2	[0, 0, 0]	n/a	catFR1	3	R1672T
324.757	10.264	358144	REC_WORD_VV	10.264	n/a	<>	n/a	-999	2	[0, 0, 0]	n/a	catFR1	3	R1672T
335.021	1.23	368408	REC_WORD_VV	1.23	n/a	<>	n/a	-999	2	[0, 0, 0]	n/a	catFR1	3	R1672T
336.251	3.659	369638	TRIAL	n/a	n/a	n/a	n/a	-999	3	[0, 0, 0]	n/a	catFR1	3	R1672T
339.91	10.351	373297	COUNTDOWN	n/a	n/a	n/a	n/a	-999	3	[0, 0, 0]	n/a	catFR1	3	R1672T
350.261	1.849	383648	ENCODING_START	n/a	n/a	n/a	n/a	-999	3	[0, 0, 0]	n/a	catFR1	3	R1672T
352.11	2.517	385497	WORD	n/a	wordpools/wordpool_categorized_EN.txt	BASS	Instruments	1	3	[0, 0, 0]	n/a	catFR1	3	R1672T
354.627	2.549	388014	WORD	n/a	wordpools/wordpool_categorized_EN.txt	DRUM	Instruments	2	3	[0, 0, 0]	n/a	catFR1	3	R1672T
357.176	2.6	390563	WORD	n/a	wordpools/wordpool_categorized_EN.txt	DOOR	Building	3	3	[0, 0, 0]	n/a	catFR1	3	R1672T
359.776	2.534	393163	WORD	n/a	wordpools/wordpool_categorized_EN.txt	BATHROOM	Building	4	3	[0, 0, 0]	n/a	catFR1	3	R1672T
362.31	2.449	395697	WORD	n/a	wordpools/wordpool_categorized_EN.txt	ZEBRA	Zoo	5	3	[0, 0, 0]	n/a	catFR1	3	R1672T
364.759	2.451	398146	WORD	n/a	wordpools/wordpool_categorized_EN.txt	PANDA	Zoo	6	3	[0, 0, 0]	n/a	catFR1	3	R1672T
367.21	2.431	400597	WORD	n/a	wordpools/wordpool_categorized_EN.txt	VIOLIN	Instruments	7	3	[0, 0, 0]	n/a	catFR1	3	R1672T
369.641	2.585	403028	WORD	n/a	wordpools/wordpool_categorized_EN.txt	PIANO	Instruments	8	3	[0, 0, 0]	n/a	catFR1	3	R1672T
372.226	2.532	405613	WORD	n/a	wordpools/wordpool_categorized_EN.txt	BEAR	Zoo	9	3	[0, 0, 0]	n/a	catFR1	3	R1672T
374.758	2.467	408145	WORD	n/a	wordpools/wordpool_categorized_EN.txt	GIRAFFE	Zoo	10	3	[0, 0, 0]	n/a	catFR1	3	R1672T
377.225	2.6	410612	WORD	n/a	wordpools/wordpool_categorized_EN.txt	ROOF	Building	11	3	[0, 0, 0]	n/a	catFR1	3	R1672T
379.825	1.601	413212	WORD	n/a	wordpools/wordpool_categorized_EN.txt	ATTIC	Building	12	3	[0, 0, 0]	n/a	catFR1	3	R1672T
381.426	0.001	414813	PROB	0.001	n/a	n/a	n/a	-999	3	[4, 1, 7]	12	catFR1	3	R1672T
381.427	4.667	414814	DISTRACT_START	n/a	n/a	n/a	n/a	-999	3	[0, 0, 0]	n/a	catFR1	3	R1672T
386.094	5.414	419481	PROB	5.414	n/a	n/a	n/a	-999	3	[4, 3, 7]	14	catFR1	3	R1672T
391.508	4.05	424895	PROB	4.05	n/a	n/a	n/a	-999	3	[6, 3, 3]	12	catFR1	3	R1672T
395.558	3.901	428945	PROB	3.901	n/a	n/a	n/a	-999	3	[2, 7, 3]	12	catFR1	3	R1672T
399.459	5.91	432846	PROB	5.91	n/a	n/a	n/a	-999	3	[7, 7, 7]	21	catFR1	3	R1672T
405.369	1.836	438756	REC_START	n/a	n/a	n/a	n/a	-999	3	[0, 0, 0]	n/a	catFR1	3	R1672T
407.205	1.001	440592	REC_WORD	1.001	n/a	BEAR	Zoo	9	3	[0, 0, 0]	n/a	catFR1	3	R1672T
408.206	1.49	441593	REC_WORD	1.49	n/a	GIRAFFE	Zoo	10	3	[0, 0, 0]	n/a	catFR1	3	R1672T
409.696	6.556	443083	REC_WORD	6.556	n/a	ZEBRA	Zoo	5	3	[0, 0, 0]	n/a	catFR1	3	R1672T
416.252	1.0	449639	REC_WORD_VV	1.0	n/a	<>	n/a	-999	3	[0, 0, 0]	n/a	catFR1	3	R1672T
417.252	18.258	450639	REC_WORD_VV	18.258	n/a	<>	n/a	-999	3	[0, 0, 0]	n/a	catFR1	3	R1672T
435.51	2.047	468897	TRIAL	n/a	n/a	n/a	n/a	-999	4	[0, 0, 0]	n/a	catFR1	3	R1672T
437.557	10.348	470944	COUNTDOWN	n/a	n/a	n/a	n/a	-999	4	[0, 0, 0]	n/a	catFR1	3	R1672T
447.905	2.234	481292	ENCODING_START	n/a	n/a	n/a	n/a	-999	4	[0, 0, 0]	n/a	catFR1	3	R1672T
450.139	2.467	483526	WORD	n/a	wordpools/wordpool_categorized_EN.txt	TONGS	KitchenTools	1	4	[0, 0, 0]	n/a	catFR1	3	R1672T
452.606	2.583	485993	WORD	n/a	wordpools/wordpool_categorized_EN.txt	FORK	KitchenTools	2	4	[0, 0, 0]	n/a	catFR1	3	R1672T
455.189	2.5	488576	WORD	n/a	wordpools/wordpool_categorized_EN.txt	HALLWAY	Building	3	4	[0, 0, 0]	n/a	catFR1	3	R1672T
457.689	2.483	491076	WORD	n/a	wordpools/wordpool_categorized_EN.txt	FOUNDATION	Building	4	4	[0, 0, 0]	n/a	catFR1	3	R1672T
460.172	2.416	493559	WORD	n/a	wordpools/wordpool_categorized_EN.txt	CHERRY	Fruit	5	4	[0, 0, 0]	n/a	catFR1	3	R1672T
462.588	2.55	495975	WORD	n/a	wordpools/wordpool_categorized_EN.txt	PLUM	Fruit	6	4	[0, 0, 0]	n/a	catFR1	3	R1672T
465.138	2.467	498525	WORD	n/a	wordpools/wordpool_categorized_EN.txt	COLANDER	KitchenTools	7	4	[0, 0, 0]	n/a	catFR1	3	R1672T
467.605	2.4	500992	WORD	n/a	wordpools/wordpool_categorized_EN.txt	SPATULA	KitchenTools	8	4	[0, 0, 0]	n/a	catFR1	3	R1672T
470.005	2.567	503392	WORD	n/a	wordpools/wordpool_categorized_EN.txt	FLOOR	Building	9	4	[0, 0, 0]	n/a	catFR1	3	R1672T
472.572	2.45	505959	WORD	n/a	wordpools/wordpool_categorized_EN.txt	WALL	Building	10	4	[0, 0, 0]	n/a	catFR1	3	R1672T
475.022	2.483	508409	WORD	n/a	wordpools/wordpool_categorized_EN.txt	BANANA	Fruit	11	4	[0, 0, 0]	n/a	catFR1	3	R1672T
477.505	1.6	510892	WORD	n/a	wordpools/wordpool_categorized_EN.txt	LIME	Fruit	12	4	[0, 0, 0]	n/a	catFR1	3	R1672T
479.105	0.001	512492	PROB	0.001	n/a	n/a	n/a	-999	4	[4, 2, 5]	11	catFR1	3	R1672T
479.106	4.548	512493	DISTRACT_START	n/a	n/a	n/a	n/a	-999	4	[0, 0, 0]	n/a	catFR1	3	R1672T
483.654	5.218	517041	PROB	5.218	n/a	n/a	n/a	-999	4	[1, 8, 6]	15	catFR1	3	R1672T
488.872	5.315	522259	PROB	5.315	n/a	n/a	n/a	-999	4	[8, 7, 3]	18	catFR1	3	R1672T
494.187	8.884	527574	PROB	8.884	n/a	n/a	n/a	-999	4	[4, 4, 8]	16	catFR1	3	R1672T
503.071	1.087	536458	REC_START	n/a	n/a	n/a	n/a	-999	4	[0, 0, 0]	n/a	catFR1	3	R1672T
504.158	1.509	537545	REC_WORD	1.509	n/a	TONGS	KitchenTools	1	4	[0, 0, 0]	n/a	catFR1	3	R1672T
505.667	2.553	539054	REC_WORD	2.553	n/a	COLANDER	KitchenTools	7	4	[0, 0, 0]	n/a	catFR1	3	R1672T
508.22	4.352	541607	REC_WORD_VV	4.352	n/a	<>	n/a	-999	4	[0, 0, 0]	n/a	catFR1	3	R1672T
512.572	3.492	545959	REC_WORD	3.492	n/a	BATHROOM	Building	-999	4	[0, 0, 0]	n/a	catFR1	3	R1672T
516.064	4.016	549451	REC_WORD_VV	4.016	n/a	<>	n/a	-999	4	[0, 0, 0]	n/a	catFR1	3	R1672T
520.08	1.0	553467	REC_WORD_VV	1.0	n/a	<>	n/a	-999	4	[0, 0, 0]	n/a	catFR1	3	R1672T
521.08	1.0	554467	REC_WORD_VV	1.0	n/a	<>	n/a	-999	4	[0, 0, 0]	n/a	catFR1	3	R1672T
522.08	2.008	555467	REC_WORD_VV	2.008	n/a	<>	n/a	-999	4	[0, 0, 0]	n/a	catFR1	3	R1672T
524.088	2.651	557475	REC_WORD_VV	2.651	n/a	<>	n/a	-999	4	[0, 0, 0]	n/a	catFR1	3	R1672T
526.739	6.473	560126	REC_WORD	6.473	n/a	LEMON	Fruit	-999	4	[0, 0, 0]	n/a	catFR1	3	R1672T
533.212	4.64	566599	TRIAL	n/a	n/a	n/a	n/a	-999	5	[0, 0, 0]	n/a	catFR1	3	R1672T
537.852	10.35	571239	COUNTDOWN	n/a	n/a	n/a	n/a	-999	5	[0, 0, 0]	n/a	catFR1	3	R1672T
548.202	2.333	581589	ENCODING_START	n/a	n/a	n/a	n/a	-999	5	[0, 0, 0]	n/a	catFR1	3	R1672T
550.535	2.399	583922	WORD	n/a	wordpools/wordpool_categorized_EN.txt	SPRUCE	Trees	1	5	[0, 0, 0]	n/a	catFR1	3	R1672T
552.934	2.55	586321	WORD	n/a	wordpools/wordpool_categorized_EN.txt	CEDAR	Trees	2	5	[0, 0, 0]	n/a	catFR1	3	R1672T
555.484	2.6	588871	WORD	n/a	wordpools/wordpool_categorized_EN.txt	RIVER	Landscapes	3	5	[0, 0, 0]	n/a	catFR1	3	R1672T
558.084	2.399	591471	WORD	n/a	wordpools/wordpool_categorized_EN.txt	OCEAN	Landscapes	4	5	[0, 0, 0]	n/a	catFR1	3	R1672T
560.483	2.434	593870	WORD	n/a	wordpools/wordpool_categorized_EN.txt	STAPLER	OfficeSupplies	5	5	[0, 0, 0]	n/a	catFR1	3	R1672T
562.917	2.55	596304	WORD	n/a	wordpools/wordpool_categorized_EN.txt	BINDER	OfficeSupplies	6	5	[0, 0, 0]	n/a	catFR1	3	R1672T
565.467	2.501	598854	WORD	n/a	wordpools/wordpool_categorized_EN.txt	BIRCH	Trees	7	5	[0, 0, 0]	n/a	catFR1	3	R1672T
567.968	2.514	601355	WORD	n/a	wordpools/wordpool_categorized_EN.txt	MAPLE	Trees	8	5	[0, 0, 0]	n/a	catFR1	3	R1672T
570.482	2.45	603869	WORD	n/a	wordpools/wordpool_categorized_EN.txt	LAKE	Landscapes	9	5	[0, 0, 0]	n/a	catFR1	3	R1672T
572.932	2.484	606319	WORD	n/a	wordpools/wordpool_categorized_EN.txt	HILLS	Landscapes	10	5	[0, 0, 0]	n/a	catFR1	3	R1672T
575.416	2.466	608803	WORD	n/a	wordpools/wordpool_categorized_EN.txt	ERASER	OfficeSupplies	11	5	[0, 0, 0]	n/a	catFR1	3	R1672T
577.882	1.619	611269	WORD	n/a	wordpools/wordpool_categorized_EN.txt	TAPE	OfficeSupplies	12	5	[0, 0, 0]	n/a	catFR1	3	R1672T
579.501	0.0	612888	DISTRACT_START	n/a	n/a	n/a	n/a	-999	5	[0, 0, 0]	n/a	catFR1	3	R1672T
579.501	11.482	612888	PROB	11.482	n/a	n/a	n/a	-999	5	[6, 8, 4]	18	catFR1	3	R1672T
590.983	3.965	624370	PROB	3.965	n/a	n/a	n/a	-999	5	[7, 2, 3]	12	catFR1	3	R1672T
594.948	7.4	628335	PROB	7.4	n/a	n/a	n/a	-999	5	[2, 7, 6]	15	catFR1	3	R1672T
602.348	4.664	635735	REC_START	n/a	n/a	n/a	n/a	-999	5	[0, 0, 0]	n/a	catFR1	3	R1672T
607.012	1.0	640399	REC_WORD_VV	1.0	n/a	<>	n/a	-999	5	[0, 0, 0]	n/a	catFR1	3	R1672T
608.012	1.0	641399	REC_WORD_VV	1.0	n/a	<>	n/a	-999	5	[0, 0, 0]	n/a	catFR1	3	R1672T
609.012	1.507	642399	REC_WORD_VV	1.507	n/a	<>	n/a	-999	5	[0, 0, 0]	n/a	catFR1	3	R1672T
610.519	8.091	643906	REC_WORD_VV	8.091	n/a	<>	n/a	-999	5	[0, 0, 0]	n/a	catFR1	3	R1672T
618.61	1.0	651997	REC_WORD_VV	1.0	n/a	<>	n/a	-999	5	[0, 0, 0]	n/a	catFR1	3	R1672T
619.61	1.0	652997	REC_WORD_VV	1.0	n/a	<>	n/a	-999	5	[0, 0, 0]	n/a	catFR1	3	R1672T
620.61	1.0	653997	REC_WORD_VV	1.0	n/a	<>	n/a	-999	5	[0, 0, 0]	n/a	catFR1	3	R1672T
621.61	1.451	654997	REC_WORD_VV	1.451	n/a	<>	n/a	-999	5	[0, 0, 0]	n/a	catFR1	3	R1672T
623.061	1.0	656448	REC_WORD_VV	1.0	n/a	<>	n/a	-999	5	[0, 0, 0]	n/a	catFR1	3	R1672T
624.061	1.0	657448	REC_WORD_VV	1.0	n/a	<>	n/a	-999	5	[0, 0, 0]	n/a	catFR1	3	R1672T
625.061	1.0	658448	REC_WORD_VV	1.0	n/a	<>	n/a	-999	5	[0, 0, 0]	n/a	catFR1	3	R1672T
626.061	6.44	659448	REC_WORD_VV	6.44	n/a	<>	n/a	-999	5	[0, 0, 0]	n/a	catFR1	3	R1672T
632.501	3.73	665888	TRIAL	n/a	n/a	n/a	n/a	-999	6	[0, 0, 0]	n/a	catFR1	3	R1672T
636.231	10.348	669618	COUNTDOWN	n/a	n/a	n/a	n/a	-999	6	[0, 0, 0]	n/a	catFR1	3	R1672T
646.579	1.902	679966	ENCODING_START	n/a	n/a	n/a	n/a	-999	6	[0, 0, 0]	n/a	catFR1	3	R1672T
648.481	2.499	681868	WORD	n/a	wordpools/wordpool_categorized_EN.txt	BIKE	Vehicles	1	6	[0, 0, 0]	n/a	catFR1	3	R1672T
650.98	2.382	684367	WORD	n/a	wordpools/wordpool_categorized_EN.txt	CAR	Vehicles	2	6	[0, 0, 0]	n/a	catFR1	3	R1672T
653.362	2.402	686749	WORD	n/a	wordpools/wordpool_categorized_EN.txt	PAPER	OfficeSupplies	3	6	[0, 0, 0]	n/a	catFR1	3	R1672T
655.764	2.399	689151	WORD	n/a	wordpools/wordpool_categorized_EN.txt	MARKER	OfficeSupplies	4	6	[0, 0, 0]	n/a	catFR1	3	R1672T
658.163	2.6	691550	WORD	n/a	wordpools/wordpool_categorized_EN.txt	SCANNER	Electronics	5	6	[0, 0, 0]	n/a	catFR1	3	R1672T
660.763	2.399	694150	WORD	n/a	wordpools/wordpool_categorized_EN.txt	HEADPHONES	Electronics	6	6	[0, 0, 0]	n/a	catFR1	3	R1672T
663.162	2.434	696549	WORD	n/a	wordpools/wordpool_categorized_EN.txt	PENCIL	OfficeSupplies	7	6	[0, 0, 0]	n/a	catFR1	3	R1672T
665.596	2.566	698983	WORD	n/a	wordpools/wordpool_categorized_EN.txt	NOTEBOOK	OfficeSupplies	8	6	[0, 0, 0]	n/a	catFR1	3	R1672T
668.162	2.583	701549	WORD	n/a	wordpools/wordpool_categorized_EN.txt	TELEVISION	Electronics	9	6	[0, 0, 0]	n/a	catFR1	3	R1672T
670.745	2.484	704132	WORD	n/a	wordpools/wordpool_categorized_EN.txt	PRINTER	Electronics	10	6	[0, 0, 0]	n/a	catFR1	3	R1672T
673.229	2.584	706616	WORD	n/a	wordpools/wordpool_categorized_EN.txt	BOAT	Vehicles	11	6	[0, 0, 0]	n/a	catFR1	3	R1672T
675.813	1.615	709200	WORD	n/a	wordpools/wordpool_categorized_EN.txt	MOPED	Vehicles	12	6	[0, 0, 0]	n/a	catFR1	3	R1672T
677.428	0.002	710815	PROB	0.002	n/a	n/a	n/a	-999	6	[5, 3, 8]	16	catFR1	3	R1672T
677.43	7.865	710817	DISTRACT_START	n/a	n/a	n/a	n/a	-999	6	[0, 0, 0]	n/a	catFR1	3	R1672T
685.295	7.184	718682	PROB	7.184	n/a	n/a	n/a	-999	6	[3, 7, 8]	18	catFR1	3	R1672T
692.479	7.459	725866	PROB	7.459	n/a	n/a	n/a	-999	6	[7, 3, 4]	14	catFR1	3	R1672T
699.938	1.079	733325	REC_START	n/a	n/a	n/a	n/a	-999	6	[0, 0, 0]	n/a	catFR1	3	R1672T
701.017	1.551	734404	REC_WORD	1.551	n/a	TELEVISION	Electronics	9	6	[0, 0, 0]	n/a	catFR1	3	R1672T
702.568	1.652	735955	REC_WORD	1.652	n/a	PRAYER	n/a	-999	6	[0, 0, 0]	n/a	catFR1	3	R1672T
704.22	1.875	737607	REC_WORD	1.875	n/a	SCANNER	Electronics	5	6	[0, 0, 0]	n/a	catFR1	3	R1672T
706.095	1.8	739482	REC_WORD	1.8	n/a	BOAT	Vehicles	11	6	[0, 0, 0]	n/a	catFR1	3	R1672T
707.895	10.156	741282	REC_WORD	10.156	n/a	MOPED	Vehicles	12	6	[0, 0, 0]	n/a	catFR1	3	R1672T
718.051	1.371	751438	REC_WORD_VV	1.371	n/a	<>	n/a	-999	6	[0, 0, 0]	n/a	catFR1	3	R1672T
719.422	1.0	752809	REC_WORD_VV	1.0	n/a	<>	n/a	-999	6	[0, 0, 0]	n/a	catFR1	3	R1672T
720.422	1.0	753809	REC_WORD_VV	1.0	n/a	<>	n/a	-999	6	[0, 0, 0]	n/a	catFR1	3	R1672T
721.422	1.0	754809	REC_WORD_VV	1.0	n/a	<>	n/a	-999	6	[0, 0, 0]	n/a	catFR1	3	R1672T
722.422	2.652	755809	REC_WORD_VV	2.652	n/a	<>	n/a	-999	6	[0, 0, 0]	n/a	catFR1	3	R1672T
725.074	0.466	758461	REC_WORD	0.466	n/a	RIVER (KNOWS PREVIOUS)	n/a	-999	6	[0, 0, 0]	n/a	catFR1	3	R1672T
725.54	0.417	758927	REC_WORD	0.417	n/a	LAKE (PREVIOUS)	n/a	-999	6	[0, 0, 0]	n/a	catFR1	3	R1672T
725.957	0.429	759344	REC_WORD	0.429	n/a	CREEK (PREVIOUS)	n/a	-999	6	[0, 0, 0]	n/a	catFR1	3	R1672T
726.386	0.87	759773	REC_WORD	0.87	n/a	STREAM (PREVIOUS)	n/a	-999	6	[0, 0, 0]	n/a	catFR1	3	R1672T
727.256	1.49	760643	REC_WORD_VV	1.49	n/a	<>	n/a	-999	6	[0, 0, 0]	n/a	catFR1	3	R1672T
728.746	1.357	762133	REC_WORD_VV	1.357	n/a	<>	n/a	-999	6	[0, 0, 0]	n/a	catFR1	3	R1672T
730.103	2.023	763490	TRIAL	n/a	n/a	n/a	n/a	-999	7	[0, 0, 0]	n/a	catFR1	3	R1672T
732.126	10.351	765513	COUNTDOWN	n/a	n/a	n/a	n/a	-999	7	[0, 0, 0]	n/a	catFR1	3	R1672T
742.477	1.932	775864	ENCODING_START	n/a	n/a	n/a	n/a	-999	7	[0, 0, 0]	n/a	catFR1	3	R1672T
744.409	2.433	777796	WORD	n/a	wordpools/wordpool_categorized_EN.txt	SODA	Beverages	1	7	[0, 0, 0]	n/a	catFR1	3	R1672T
746.842	2.367	780229	WORD	n/a	wordpools/wordpool_categorized_EN.txt	JUICE	Beverages	2	7	[0, 0, 0]	n/a	catFR1	3	R1672T
749.209	2.499	782596	WORD	n/a	wordpools/wordpool_categorized_EN.txt	BASKETBALL	Toys	3	7	[0, 0, 0]	n/a	catFR1	3	R1672T
751.708	2.384	785095	WORD	n/a	wordpools/wordpool_categorized_EN.txt	MARBLES	Toys	4	7	[0, 0, 0]	n/a	catFR1	3	R1672T
754.092	2.466	787479	WORD	n/a	wordpools/wordpool_categorized_EN.txt	JELLO	Desserts	5	7	[0, 0, 0]	n/a	catFR1	3	R1672T
756.558	2.5	789945	WORD	n/a	wordpools/wordpool_categorized_EN.txt	BROWNIES	Desserts	6	7	[0, 0, 0]	n/a	catFR1	3	R1672T
759.058	2.617	792445	WORD	n/a	wordpools/wordpool_categorized_EN.txt	MILK	Beverages	7	7	[0, 0, 0]	n/a	catFR1	3	R1672T
761.675	2.433	795062	WORD	n/a	wordpools/wordpool_categorized_EN.txt	COLA	Beverages	8	7	[0, 0, 0]	n/a	catFR1	3	R1672T
764.108	2.6	797495	WORD	n/a	wordpools/wordpool_categorized_EN.txt	PASTRY	Desserts	9	7	[0, 0, 0]	n/a	catFR1	3	R1672T
766.708	2.518	800095	WORD	n/a	wordpools/wordpool_categorized_EN.txt	CUPCAKE	Desserts	10	7	[0, 0, 0]	n/a	catFR1	3	R1672T
769.226	2.416	802613	WORD	n/a	wordpools/wordpool_categorized_EN.txt	PUZZLE	Toys	11	7	[0, 0, 0]	n/a	catFR1	3	R1672T
771.642	1.6	805029	WORD	n/a	wordpools/wordpool_categorized_EN.txt	BARBIE	Toys	12	7	[0, 0, 0]	n/a	catFR1	3	R1672T
773.242	0.001	806629	DISTRACT_START	n/a	n/a	n/a	n/a	-999	7	[0, 0, 0]	n/a	catFR1	3	R1672T
773.243	4.915	806630	PROB	4.915	n/a	n/a	n/a	-999	7	[5, 1, 5]	11	catFR1	3	R1672T
778.158	4.883	811545	PROB	4.883	n/a	n/a	n/a	-999	7	[6, 4, 4]	14	catFR1	3	R1672T
783.041	8.634	816428	PROB	8.634	n/a	n/a	n/a	-999	7	[8, 6, 8]	20	catFR1	3	R1672T
791.675	7.368	825062	PROB	7.368	n/a	n/a	n/a	-999	7	[6, 4, 8]	18	catFR1	3	R1672T
799.043	7.689	832430	REC_START	n/a	n/a	n/a	n/a	-999	7	[0, 0, 0]	n/a	catFR1	3	R1672T
806.732	5.935	840119	REC_WORD_VV	5.935	n/a	<>	n/a	-999	7	[0, 0, 0]	n/a	catFR1	3	R1672T
812.667	1.0	846054	REC_WORD_VV	1.0	n/a	<>	n/a	-999	7	[0, 0, 0]	n/a	catFR1	3	R1672T
813.667	1.0	847054	REC_WORD_VV	1.0	n/a	<>	n/a	-999	7	[0, 0, 0]	n/a	catFR1	3	R1672T
814.667	1.0	848054	REC_WORD_VV	1.0	n/a	<>	n/a	-999	7	[0, 0, 0]	n/a	catFR1	3	R1672T
815.667	1.284	849054	REC_WORD_VV	1.284	n/a	<>	n/a	-999	7	[0, 0, 0]	n/a	catFR1	3	R1672T
816.951	1.0	850338	REC_WORD_VV	1.0	n/a	<>	n/a	-999	7	[0, 0, 0]	n/a	catFR1	3	R1672T
817.951	1.0	851338	REC_WORD_VV	1.0	n/a	<>	n/a	-999	7	[0, 0, 0]	n/a	catFR1	3	R1672T
818.951	1.0	852338	REC_WORD_VV	1.0	n/a	<>	n/a	-999	7	[0, 0, 0]	n/a	catFR1	3	R1672T
819.951	0.811	853338	REC_WORD_VV	0.811	n/a	<>	n/a	-999	7	[0, 0, 0]	n/a	catFR1	3	R1672T
820.762	1.0	854149	REC_WORD_VV	1.0	n/a	<>	n/a	-999	7	[0, 0, 0]	n/a	catFR1	3	R1672T
821.762	1.016	855149	REC_WORD_VV	1.016	n/a	<>	n/a	-999	7	[0, 0, 0]	n/a	catFR1	3	R1672T
822.778	1.0	856165	REC_WORD_VV	1.0	n/a	<>	n/a	-999	7	[0, 0, 0]	n/a	catFR1	3	R1672T
823.778	1.0	857165	REC_WORD_VV	1.0	n/a	<>	n/a	-999	7	[0, 0, 0]	n/a	catFR1	3	R1672T
824.778	1.0	858165	REC_WORD_VV	1.0	n/a	<>	n/a	-999	7	[0, 0, 0]	n/a	catFR1	3	R1672T
825.778	3.414	859165	REC_WORD_VV	3.414	n/a	<>	n/a	-999	7	[0, 0, 0]	n/a	catFR1	3	R1672T
829.192	0.663	862579	TRIAL	n/a	n/a	n/a	n/a	-999	8	[0, 0, 0]	n/a	catFR1	3	R1672T
829.855	10.35	863242	COUNTDOWN	n/a	n/a	n/a	n/a	-999	8	[0, 0, 0]	n/a	catFR1	3	R1672T
840.205	2.001	873592	ENCODING_START	n/a	n/a	n/a	n/a	-999	8	[0, 0, 0]	n/a	catFR1	3	R1672T
842.206	2.415	875593	WORD	n/a	wordpools/wordpool_categorized_EN.txt	CARDINAL	Birds	1	8	[0, 0, 0]	n/a	catFR1	3	R1672T
844.621	2.516	878008	WORD	n/a	wordpools/wordpool_categorized_EN.txt	CROW	Birds	2	8	[0, 0, 0]	n/a	catFR1	3	R1672T
847.137	2.415	880524	WORD	n/a	wordpools/wordpool_categorized_EN.txt	HEN	FarmAnimals	3	8	[0, 0, 0]	n/a	catFR1	3	R1672T
849.552	2.52	882939	WORD	n/a	wordpools/wordpool_categorized_EN.txt	HORSE	FarmAnimals	4	8	[0, 0, 0]	n/a	catFR1	3	R1672T
852.072	2.483	885459	WORD	n/a	wordpools/wordpool_categorized_EN.txt	TULIP	Flowers	5	8	[0, 0, 0]	n/a	catFR1	3	R1672T
854.555	2.433	887942	WORD	n/a	wordpools/wordpool_categorized_EN.txt	VIOLET	Flowers	6	8	[0, 0, 0]	n/a	catFR1	3	R1672T
856.988	2.501	890375	WORD	n/a	wordpools/wordpool_categorized_EN.txt	ROOSTER	FarmAnimals	7	8	[0, 0, 0]	n/a	catFR1	3	R1672T
859.489	2.382	892876	WORD	n/a	wordpools/wordpool_categorized_EN.txt	LAMB	FarmAnimals	8	8	[0, 0, 0]	n/a	catFR1	3	R1672T
861.871	2.566	895258	WORD	n/a	wordpools/wordpool_categorized_EN.txt	GOOSE	Birds	9	8	[0, 0, 0]	n/a	catFR1	3	R1672T
864.437	2.617	897824	WORD	n/a	wordpools/wordpool_categorized_EN.txt	FINCH	Birds	10	8	[0, 0, 0]	n/a	catFR1	3	R1672T
867.054	2.466	900441	WORD	n/a	wordpools/wordpool_categorized_EN.txt	LILAC	Flowers	11	8	[0, 0, 0]	n/a	catFR1	3	R1672T
869.52	1.602	902907	WORD	n/a	wordpools/wordpool_categorized_EN.txt	SUNFLOWER	Flowers	12	8	[0, 0, 0]	n/a	catFR1	3	R1672T
871.122	0.0	904509	DISTRACT_START	n/a	n/a	n/a	n/a	-999	8	[0, 0, 0]	n/a	catFR1	3	R1672T
871.122	9.898	904509	PROB	9.898	n/a	n/a	n/a	-999	8	[6, 6, 7]	19	catFR1	3	R1672T
881.02	7.133	914407	PROB	7.133	n/a	n/a	n/a	-999	8	[2, 7, 4]	13	catFR1	3	R1672T
888.153	1.901	921540	PROB	1.901	n/a	n/a	n/a	-999	8	[5, 5, 1]	11	catFR1	3	R1672T
890.054	5.41	923441	PROB	5.41	n/a	n/a	n/a	-999	8	[6, 3, 6]	15	catFR1	3	R1672T
895.464	0.986	928851	REC_START	n/a	n/a	n/a	n/a	-999	8	[0, 0, 0]	n/a	catFR1	3	R1672T
896.45	1.244	929837	REC_WORD	1.244	n/a	CROW	Birds	2	8	[0, 0, 0]	n/a	catFR1	3	R1672T
897.694	1.658	931081	REC_WORD	1.658	n/a	HEN	FarmAnimals	3	8	[0, 0, 0]	n/a	catFR1	3	R1672T
899.352	1.005	932739	REC_WORD	1.005	n/a	HORSE	FarmAnimals	4	8	[0, 0, 0]	n/a	catFR1	3	R1672T
900.357	7.063	933744	REC_WORD	7.063	n/a	GOOSE	Birds	9	8	[0, 0, 0]	n/a	catFR1	3	R1672T
907.42	3.88	940807	REC_WORD_VV	3.88	n/a	<>	n/a	-999	8	[0, 0, 0]	n/a	catFR1	3	R1672T
911.3	1.0	944687	REC_WORD_VV	1.0	n/a	<>	n/a	-999	8	[0, 0, 0]	n/a	catFR1	3	R1672T
912.3	13.326	945687	REC_WORD_VV	13.326	n/a	<>	n/a	-999	8	[0, 0, 0]	n/a	catFR1	3	R1672T
925.626	1.657	959013	TRIAL	n/a	n/a	n/a	n/a	-999	9	[0, 0, 0]	n/a	catFR1	3	R1672T
927.283	10.367	960670	COUNTDOWN	n/a	n/a	n/a	n/a	-999	9	[0, 0, 0]	n/a	catFR1	3	R1672T
937.65	2.284	971037	ENCODING_START	n/a	n/a	n/a	n/a	-999	9	[0, 0, 0]	n/a	catFR1	3	R1672T
939.934	2.583	973321	WORD	n/a	wordpools/wordpool_categorized_EN.txt	ONION	Vegetables	1	9	[0, 0, 0]	n/a	catFR1	3	R1672T
942.517	2.601	975904	WORD	n/a	wordpools/wordpool_categorized_EN.txt	CAULIFLOWER	Vegetables	2	9	[0, 0, 0]	n/a	catFR1	3	R1672T
945.118	2.515	978505	WORD	n/a	wordpools/wordpool_categorized_EN.txt	VAN	Vehicles	3	9	[0, 0, 0]	n/a	catFR1	3	R1672T
947.633	2.501	981020	WORD	n/a	wordpools/wordpool_categorized_EN.txt	TRUCK	Vehicles	4	9	[0, 0, 0]	n/a	catFR1	3	R1672T
950.134	2.416	983521	WORD	n/a	wordpools/wordpool_categorized_EN.txt	SPANDEX	Fabric	5	9	[0, 0, 0]	n/a	catFR1	3	R1672T
952.55	2.567	985937	WORD	n/a	wordpools/wordpool_categorized_EN.txt	FLEECE	Fabric	6	9	[0, 0, 0]	n/a	catFR1	3	R1672T
955.117	2.449	988504	WORD	n/a	wordpools/wordpool_categorized_EN.txt	PLANE	Vehicles	7	9	[0, 0, 0]	n/a	catFR1	3	R1672T
957.566	2.484	990953	WORD	n/a	wordpools/wordpool_categorized_EN.txt	BUS	Vehicles	8	9	[0, 0, 0]	n/a	catFR1	3	R1672T
960.05	2.532	993437	WORD	n/a	wordpools/wordpool_categorized_EN.txt	NYLON	Fabric	9	9	[0, 0, 0]	n/a	catFR1	3	R1672T
962.582	2.368	995969	WORD	n/a	wordpools/wordpool_categorized_EN.txt	SATIN	Fabric	10	9	[0, 0, 0]	n/a	catFR1	3	R1672T
964.95	2.583	998337	WORD	n/a	wordpools/wordpool_categorized_EN.txt	BROCCOLI	Vegetables	11	9	[0, 0, 0]	n/a	catFR1	3	R1672T
967.533	1.616	1000920	WORD	n/a	wordpools/wordpool_categorized_EN.txt	SPINACH	Vegetables	12	9	[0, 0, 0]	n/a	catFR1	3	R1672T
969.149	0.001	1002536	PROB	0.001	n/a	n/a	n/a	-999	9	[3, 4, 2]	9	catFR1	3	R1672T
969.15	5.916	1002537	DISTRACT_START	n/a	n/a	n/a	n/a	-999	9	[0, 0, 0]	n/a	catFR1	3	R1672T
975.066	3.384	1008453	PROB	3.384	n/a	n/a	n/a	-999	9	[2, 4, 3]	9	catFR1	3	R1672T
978.45	5.099	1011837	PROB	5.099	n/a	n/a	n/a	-999	9	[5, 1, 2]	8	catFR1	3	R1672T
983.549	9.454	1016936	PROB	9.454	n/a	n/a	n/a	-999	9	[3, 7, 7]	17	catFR1	3	R1672T
993.003	0.461	1026390	REC_START	n/a	n/a	n/a	n/a	-999	9	[0, 0, 0]	n/a	catFR1	3	R1672T
993.464	0.978	1026851	REC_WORD	0.978	n/a	TRUCK	Vehicles	4	9	[0, 0, 0]	n/a	catFR1	3	R1672T
994.442	1.099	1027829	REC_WORD	1.099	n/a	PLANE	Vehicles	7	9	[0, 0, 0]	n/a	catFR1	3	R1672T
995.541	1.554	1028928	REC_WORD	1.554	n/a	BUS	Vehicles	8	9	[0, 0, 0]	n/a	catFR1	3	R1672T
997.095	1.179	1030482	REC_WORD	1.179	n/a	NYLON	Fabric	9	9	[0, 0, 0]	n/a	catFR1	3	R1672T
998.274	1.58	1031661	REC_WORD	1.58	n/a	SATIN	Fabric	10	9	[0, 0, 0]	n/a	catFR1	3	R1672T
999.854	9.695	1033241	REC_WORD	9.695	n/a	SPANDEX	Fabric	5	9	[0, 0, 0]	n/a	catFR1	3	R1672T
1009.549	1.0	1042936	REC_WORD_VV	1.0	n/a	<>	n/a	-999	9	[0, 0, 0]	n/a	catFR1	3	R1672T
1010.549	12.6	1043936	REC_WORD_VV	12.6	n/a	<>	n/a	-999	9	[0, 0, 0]	n/a	catFR1	3	R1672T
1023.149	1.415	1056536	TRIAL	n/a	n/a	n/a	n/a	-999	10	[0, 0, 0]	n/a	catFR1	3	R1672T
1024.564	10.349	1057951	COUNTDOWN	n/a	n/a	n/a	n/a	-999	10	[0, 0, 0]	n/a	catFR1	3	R1672T
1034.913	2.116	1068300	ENCODING_START	n/a	n/a	n/a	n/a	-999	10	[0, 0, 0]	n/a	catFR1	3	R1672T
1037.029	2.501	1070416	WORD	n/a	wordpools/wordpool_categorized_EN.txt	RULER	OfficeSupplies	1	10	[0, 0, 0]	n/a	catFR1	3	R1672T
1039.53	2.483	1072917	WORD	n/a	wordpools/wordpool_categorized_EN.txt	PEN	OfficeSupplies	2	10	[0, 0, 0]	n/a	catFR1	3	R1672T
1042.013	2.45	1075400	WORD	n/a	wordpools/wordpool_categorized_EN.txt	JELLYFISH	OceanAnimals	3	10	[0, 0, 0]	n/a	catFR1	3	R1672T
1044.463	2.432	1077850	WORD	n/a	wordpools/wordpool_categorized_EN.txt	OCTOPUS	OceanAnimals	4	10	[0, 0, 0]	n/a	catFR1	3	R1672T
1046.895	2.602	1080282	WORD	n/a	wordpools/wordpool_categorized_EN.txt	RATCHET	Tools	5	10	[0, 0, 0]	n/a	catFR1	3	R1672T
1049.497	2.498	1082884	WORD	n/a	wordpools/wordpool_categorized_EN.txt	HAMMER	Tools	6	10	[0, 0, 0]	n/a	catFR1	3	R1672T
1051.995	2.601	1085382	WORD	n/a	wordpools/wordpool_categorized_EN.txt	LOBSTER	OceanAnimals	7	10	[0, 0, 0]	n/a	catFR1	3	R1672T
1054.596	2.532	1087983	WORD	n/a	wordpools/wordpool_categorized_EN.txt	OYSTER	OceanAnimals	8	10	[0, 0, 0]	n/a	catFR1	3	R1672T
1057.128	2.585	1090515	WORD	n/a	wordpools/wordpool_categorized_EN.txt	FOLDER	OfficeSupplies	9	10	[0, 0, 0]	n/a	catFR1	3	R1672T
1059.713	2.566	1093100	WORD	n/a	wordpools/wordpool_categorized_EN.txt	GLUE	OfficeSupplies	10	10	[0, 0, 0]	n/a	catFR1	3	R1672T
1062.279	2.533	1095666	WORD	n/a	wordpools/wordpool_categorized_EN.txt	SCREWDRIVER	Tools	11	10	[0, 0, 0]	n/a	catFR1	3	R1672T
1064.812	1.601	1098199	WORD	n/a	wordpools/wordpool_categorized_EN.txt	SHOVEL	Tools	12	10	[0, 0, 0]	n/a	catFR1	3	R1672T
1066.413	0.003	1099800	PROB	0.003	n/a	n/a	n/a	-999	10	[6, 2, 3]	11	catFR1	3	R1672T
1066.416	6.546	1099803	DISTRACT_START	n/a	n/a	n/a	n/a	-999	10	[0, 0, 0]	n/a	catFR1	3	R1672T
1072.962	3.799	1106349	PROB	3.799	n/a	n/a	n/a	-999	10	[3, 2, 5]	10	catFR1	3	R1672T
1076.761	4.151	1110148	PROB	4.151	n/a	n/a	n/a	-999	10	[1, 2, 3]	6	catFR1	3	R1672T
1080.912	4.766	1114299	PROB	4.766	n/a	n/a	n/a	-999	10	[8, 4, 1]	13	catFR1	3	R1672T
1085.678	6.1	1119065	PROB	6.1	n/a	n/a	n/a	-999	10	[4, 1, 4]	9	catFR1	3	R1672T
1091.778	0.294	1125165	REC_START	n/a	n/a	n/a	n/a	-999	10	[0, 0, 0]	n/a	catFR1	3	R1672T
1092.072	1.442	1125459	REC_WORD	1.442	n/a	LOBSTER	OceanAnimals	7	10	[0, 0, 0]	n/a	catFR1	3	R1672T
1093.514	1.548	1126901	REC_WORD	1.548	n/a	OYSTER	OceanAnimals	8	10	[0, 0, 0]	n/a	catFR1	3	R1672T
1095.062	2.003	1128449	REC_WORD	2.003	n/a	JELLYFISH	OceanAnimals	3	10	[0, 0, 0]	n/a	catFR1	3	R1672T
1097.065	1.933	1130452	REC_WORD	1.933	n/a	PEN	OfficeSupplies	2	10	[0, 0, 0]	n/a	catFR1	3	R1672T
1098.998	3.312	1132385	REC_WORD	3.312	n/a	SCREWDRIVER	Tools	11	10	[0, 0, 0]	n/a	catFR1	3	R1672T
1102.31	8.144	1135697	REC_WORD_VV	8.144	n/a	<>	n/a	-999	10	[0, 0, 0]	n/a	catFR1	3	R1672T
1110.454	4.315	1143841	REC_WORD_VV	4.315	n/a	<>	n/a	-999	10	[0, 0, 0]	n/a	catFR1	3	R1672T
1114.769	1.0	1148156	REC_WORD_VV	1.0	n/a	<>	n/a	-999	10	[0, 0, 0]	n/a	catFR1	3	R1672T
1115.769	1.0	1149156	REC_WORD_VV	1.0	n/a	<>	n/a	-999	10	[0, 0, 0]	n/a	catFR1	3	R1672T
1116.769	1.0	1150156	REC_WORD_VV	1.0	n/a	<>	n/a	-999	10	[0, 0, 0]	n/a	catFR1	3	R1672T
1117.769	1.0	1151156	REC_WORD_VV	1.0	n/a	<>	n/a	-999	10	[0, 0, 0]	n/a	catFR1	3	R1672T
1118.769	2.719	1152156	REC_WORD_VV	2.719	n/a	<>	n/a	-999	10	[0, 0, 0]	n/a	catFR1	3	R1672T
1121.488	0.447	1154875	REC_WORD_VV	0.447	n/a	<>	n/a	-999	10	[0, 0, 0]	n/a	catFR1	3	R1672T
1121.935	8.891	1155322	TRIAL	n/a	n/a	n/a	n/a	-999	11	[0, 0, 0]	n/a	catFR1	3	R1672T
1130.826	10.349	1164213	COUNTDOWN	n/a	n/a	n/a	n/a	-999	11	[0, 0, 0]	n/a	catFR1	3	R1672T
1141.175	2.217	1174562	ENCODING_START	n/a	n/a	n/a	n/a	-999	11	[0, 0, 0]	n/a	catFR1	3	R1672T
1143.392	2.416	1176779	WORD	n/a	wordpools/wordpool_categorized_EN.txt	ROBIN	Birds	1	11	[0, 0, 0]	n/a	catFR1	3	R1672T
1145.808	2.467	1179195	WORD	n/a	wordpools/wordpool_categorized_EN.txt	BLUEBIRD	Birds	2	11	[0, 0, 0]	n/a	catFR1	3	R1672T
1148.275	2.6	1181662	WORD	n/a	wordpools/wordpool_categorized_EN.txt	MOSQUITO	Insects	3	11	[0, 0, 0]	n/a	catFR1	3	R1672T
1150.875	2.417	1184262	WORD	n/a	wordpools/wordpool_categorized_EN.txt	ROACH	Insects	4	11	[0, 0, 0]	n/a	catFR1	3	R1672T
1153.292	2.616	1186679	WORD	n/a	wordpools/wordpool_categorized_EN.txt	MARIGOLD	Flowers	5	11	[0, 0, 0]	n/a	catFR1	3	R1672T
1155.908	2.6	1189295	WORD	n/a	wordpools/wordpool_categorized_EN.txt	DAISY	Flowers	6	11	[0, 0, 0]	n/a	catFR1	3	R1672T
1158.508	2.415	1191895	WORD	n/a	wordpools/wordpool_categorized_EN.txt	MOTH	Insects	7	11	[0, 0, 0]	n/a	catFR1	3	R1672T
1160.923	2.434	1194310	WORD	n/a	wordpools/wordpool_categorized_EN.txt	ANT	Insects	8	11	[0, 0, 0]	n/a	catFR1	3	R1672T
1163.357	2.584	1196744	WORD	n/a	wordpools/wordpool_categorized_EN.txt	SPARROW	Birds	9	11	[0, 0, 0]	n/a	catFR1	3	R1672T
1165.941	2.417	1199328	WORD	n/a	wordpools/wordpool_categorized_EN.txt	DUCK	Birds	10	11	[0, 0, 0]	n/a	catFR1	3	R1672T
1168.358	2.499	1201745	WORD	n/a	wordpools/wordpool_categorized_EN.txt	PETUNIA	Flowers	11	11	[0, 0, 0]	n/a	catFR1	3	R1672T
1170.857	1.616	1204244	WORD	n/a	wordpools/wordpool_categorized_EN.txt	DAFFODIL	Flowers	12	11	[0, 0, 0]	n/a	catFR1	3	R1672T
1172.473	0.002	1205860	PROB	0.002	n/a	n/a	n/a	-999	11	[2, 8, 1]	11	catFR1	3	R1672T
1172.475	6.383	1205862	DISTRACT_START	n/a	n/a	n/a	n/a	-999	11	[0, 0, 0]	n/a	catFR1	3	R1672T
1178.858	6.05	1212245	PROB	6.05	n/a	n/a	n/a	-999	11	[6, 7, 4]	17	catFR1	3	R1672T
1184.908	5.015	1218295	PROB	5.015	n/a	n/a	n/a	-999	11	[4, 6, 8]	18	catFR1	3	R1672T
1189.923	6.583	1223310	PROB	6.583	n/a	n/a	n/a	-999	11	[7, 3, 5]	15	catFR1	3	R1672T
1196.506	0.335	1229893	REC_START	n/a	n/a	n/a	n/a	-999	11	[0, 0, 0]	n/a	catFR1	3	R1672T
1196.841	1.349	1230228	REC_WORD_VV	1.349	n/a	<>	n/a	-999	11	[0, 0, 0]	n/a	catFR1	3	R1672T
1198.19	1.0	1231577	REC_WORD_VV	1.0	n/a	<>	n/a	-999	11	[0, 0, 0]	n/a	catFR1	3	R1672T
1199.19	4.375	1232577	REC_WORD_VV	4.375	n/a	<>	n/a	-999	11	[0, 0, 0]	n/a	catFR1	3	R1672T
1203.565	1.752	1236952	REC_WORD	1.752	n/a	ANT	Insects	8	11	[0, 0, 0]	n/a	catFR1	3	R1672T
1205.317	2.228	1238704	REC_WORD	2.228	n/a	ROACH	Insects	4	11	[0, 0, 0]	n/a	catFR1	3	R1672T
1207.545	2.99	1240932	REC_WORD	2.99	n/a	SPARROW	Birds	9	11	[0, 0, 0]	n/a	catFR1	3	R1672T
1210.535	3.686	1243922	REC_WORD	3.686	n/a	DAFFODIL	Flowers	12	11	[0, 0, 0]	n/a	catFR1	3	R1672T
1214.221	7.43	1247608	REC_WORD_VV	7.43	n/a	<>	n/a	-999	11	[0, 0, 0]	n/a	catFR1	3	R1672T
1221.651	1.0	1255038	REC_WORD_VV	1.0	n/a	<>	n/a	-999	11	[0, 0, 0]	n/a	catFR1	3	R1672T
1222.651	4.007	1256038	REC_WORD_VV	4.007	n/a	<>	n/a	-999	11	[0, 0, 0]	n/a	catFR1	3	R1672T
1226.658	1.929	1260045	TRIAL	n/a	n/a	n/a	n/a	-999	12	[0, 0, 0]	n/a	catFR1	3	R1672T
1228.587	10.368	1261974	COUNTDOWN	n/a	n/a	n/a	n/a	-999	12	[0, 0, 0]	n/a	catFR1	3	R1672T
1238.955	2.183	1272342	ENCODING_START	n/a	n/a	n/a	n/a	-999	12	[0, 0, 0]	n/a	catFR1	3	R1672T
1241.138	2.415	1274525	WORD	n/a	wordpools/wordpool_categorized_EN.txt	WHALE	OceanAnimals	1	12	[0, 0, 0]	n/a	catFR1	3	R1672T
1243.553	2.533	1276940	WORD	n/a	wordpools/wordpool_categorized_EN.txt	SHRIMP	OceanAnimals	2	12	[0, 0, 0]	n/a	catFR1	3	R1672T
1246.086	2.402	1279473	WORD	n/a	wordpools/wordpool_categorized_EN.txt	JEEP	Vehicles	3	12	[0, 0, 0]	n/a	catFR1	3	R1672T
1248.488	2.549	1281875	WORD	n/a	wordpools/wordpool_categorized_EN.txt	SCOOTER	Vehicles	4	12	[0, 0, 0]	n/a	catFR1	3	R1672T
1251.037	2.384	1284424	WORD	n/a	wordpools/wordpool_categorized_EN.txt	PEAS	Vegetables	5	12	[0, 0, 0]	n/a	catFR1	3	R1672T
1253.421	2.549	1286808	WORD	n/a	wordpools/wordpool_categorized_EN.txt	CORN	Vegetables	6	12	[0, 0, 0]	n/a	catFR1	3	R1672T
1255.97	2.4	1289357	WORD	n/a	wordpools/wordpool_categorized_EN.txt	FISH	OceanAnimals	7	12	[0, 0, 0]	n/a	catFR1	3	R1672T
1258.37	2.484	1291757	WORD	n/a	wordpools/wordpool_categorized_EN.txt	CRAB	OceanAnimals	8	12	[0, 0, 0]	n/a	catFR1	3	R1672T
1260.854	2.416	1294241	WORD	n/a	wordpools/wordpool_categorized_EN.txt	TRAIN	Vehicles	9	12	[0, 0, 0]	n/a	catFR1	3	R1672T
1263.27	2.434	1296657	WORD	n/a	wordpools/wordpool_categorized_EN.txt	MOTORCYCLE	Vehicles	10	12	[0, 0, 0]	n/a	catFR1	3	R1672T
1265.704	2.432	1299091	WORD	n/a	wordpools/wordpool_categorized_EN.txt	CABBAGE	Vegetables	11	12	[0, 0, 0]	n/a	catFR1	3	R1672T
1268.136	1.601	1301523	WORD	n/a	wordpools/wordpool_categorized_EN.txt	CELERY	Vegetables	12	12	[0, 0, 0]	n/a	catFR1	3	R1672T
1269.737	0.0	1303124	DISTRACT_START	n/a	n/a	n/a	n/a	-999	12	[0, 0, 0]	n/a	catFR1	3	R1672T
1269.737	4.534	1303124	PROB	4.534	n/a	n/a	n/a	-999	12	[4, 6, 1]	11	catFR1	3	R1672T
1274.271	3.098	1307658	PROB	3.098	n/a	n/a	n/a	-999	12	[2, 3, 1]	6	catFR1	3	R1672T
1277.369	2.768	1310756	PROB	2.768	n/a	n/a	n/a	-999	12	[8, 2, 2]	12	catFR1	3	R1672T
1280.137	2.449	1313524	PROB	2.449	n/a	n/a	n/a	-999	12	[3, 6, 3]	12	catFR1	3	R1672T
1282.586	4.599	1315973	PROB	4.599	n/a	n/a	n/a	-999	12	[3, 1, 2]	6	catFR1	3	R1672T
1287.185	5.329	1320572	PROB	5.329	n/a	n/a	n/a	-999	12	[2, 4, 2]	8	catFR1	3	R1672T
1292.514	1.756	1325901	REC_START	n/a	n/a	n/a	n/a	-999	12	[0, 0, 0]	n/a	catFR1	3	R1672T
1294.27	1.129	1327657	REC_WORD_VV	1.129	n/a	<>	n/a	-999	12	[0, 0, 0]	n/a	catFR1	3	R1672T
1295.399	0.785	1328786	REC_WORD	0.785	n/a	WHALE	OceanAnimals	1	12	[0, 0, 0]	n/a	catFR1	3	R1672T
1296.184	1.464	1329571	REC_WORD	1.464	n/a	SHRIMP	OceanAnimals	2	12	[0, 0, 0]	n/a	catFR1	3	R1672T
1297.648	3.815	1331035	REC_WORD	3.815	n/a	CRAB	OceanAnimals	8	12	[0, 0, 0]	n/a	catFR1	3	R1672T
1301.463	1.0	1334850	REC_WORD_VV	1.0	n/a	<>	n/a	-999	12	[0, 0, 0]	n/a	catFR1	3	R1672T
1302.463	1.0	1335850	REC_WORD_VV	1.0	n/a	<>	n/a	-999	12	[0, 0, 0]	n/a	catFR1	3	R1672T
1303.463	1.0	1336850	REC_WORD_VV	1.0	n/a	<>	n/a	-999	12	[0, 0, 0]	n/a	catFR1	3	R1672T
1304.463	1.0	1337850	REC_WORD_VV	1.0	n/a	<>	n/a	-999	12	[0, 0, 0]	n/a	catFR1	3	R1672T
1305.463	2.135	1338850	REC_WORD_VV	2.135	n/a	<>	n/a	-999	12	[0, 0, 0]	n/a	catFR1	3	R1672T
1307.598	1.0	1340985	REC_WORD_VV	1.0	n/a	<>	n/a	-999	12	[0, 0, 0]	n/a	catFR1	3	R1672T
1308.598	14.071	1341985	REC_WORD_VV	14.071	n/a	<>	n/a	-999	12	[0, 0, 0]	n/a	catFR1	3	R1672T
1322.669	0.0	1356056	SESS_END	n/a	n/a	n/a	n/a	-999	12	[0, 0, 0]	n/a	catFR1	3	R1672T
