onset	duration	sample	trial_type	response_time	stim_file	item_name	category	serialpos	list	test	answer	experiment	session	subject
0.0	2.966	90385	INSTRUCT_START	n/a	n/a	n/a	n/a	-999	-999	[0, 0, 0]	n/a	catFR1	6	R1436J
2.966	22.049	93352	INSTRUCT_END	n/a	n/a	n/a	n/a	-999	-999	[0, 0, 0]	n/a	catFR1	6	R1436J
25.015	10.0	115402	COUNTDOWN_START	n/a	n/a	n/a	n/a	-999	-999	[0, 0, 0]	n/a	catFR1	6	R1436J
35.365	0.0	125748	COUNTDOWN_END	n/a	n/a	n/a	n/a	-999	-999	[0, 0, 0]	n/a	catFR1	6	R1436J
35.365	1.966	125748	ENCODING_START	n/a	n/a	n/a	n/a	-999	-1	[0, 0, 0]	n/a	catFR1	6	R1436J
37.331	1.6	127715	WORD	n/a	n/a	BLUEBIRD	Birds	1	-1	[0, 0, 0]	n/a	catFR1	6	R1436J
38.948	0.999	129325	WORD_OFF	n/a	n/a	BLUEBIRD	Birds	1	-1	[0, 0, 0]	n/a	catFR1	6	R1436J
39.947	1.6	130326	WORD	n/a	n/a	GOOSE	Birds	2	-1	[0, 0, 0]	n/a	catFR1	6	R1436J
41.547	0.8	131927	WORD_OFF	n/a	n/a	GOOSE	Birds	2	-1	[0, 0, 0]	n/a	catFR1	6	R1436J
42.347	1.6	132727	WORD	n/a	n/a	FOOTBALL	Toys	3	-1	[0, 0, 0]	n/a	catFR1	6	R1436J
43.948	0.933	134328	WORD_OFF	n/a	n/a	FOOTBALL	Toys	3	-1	[0, 0, 0]	n/a	catFR1	6	R1436J
44.881	1.6	135260	WORD	n/a	n/a	BASEBALL	Toys	4	-1	[0, 0, 0]	n/a	catFR1	6	R1436J
46.481	0.766	136861	WORD_OFF	n/a	n/a	BASEBALL	Toys	4	-1	[0, 0, 0]	n/a	catFR1	6	R1436J
47.247	1.6	137626	WORD	n/a	n/a	UNDERWEAR	Clothing	5	-1	[0, 0, 0]	n/a	catFR1	6	R1436J
48.848	0.998	139228	WORD_OFF	n/a	n/a	UNDERWEAR	Clothing	5	-1	[0, 0, 0]	n/a	catFR1	6	R1436J
49.846	1.6	140228	WORD	n/a	n/a	SHORTS	Clothing	6	-1	[0, 0, 0]	n/a	catFR1	6	R1436J
51.447	0.901	141829	WORD_OFF	n/a	n/a	SHORTS	Clothing	6	-1	[0, 0, 0]	n/a	catFR1	6	R1436J
52.348	1.6	142726	WORD	n/a	n/a	DOVE	Birds	7	-1	[0, 0, 0]	n/a	catFR1	6	R1436J
53.948	0.85	144327	WORD_OFF	n/a	n/a	DOVE	Birds	7	-1	[0, 0, 0]	n/a	catFR1	6	R1436J
54.798	1.6	145180	WORD	n/a	n/a	SPARROW	Birds	8	-1	[0, 0, 0]	n/a	catFR1	6	R1436J
56.414	0.835	146798	WORD_OFF	n/a	n/a	SPARROW	Birds	8	-1	[0, 0, 0]	n/a	catFR1	6	R1436J
57.249	1.6	147633	WORD	n/a	n/a	BLOUSE	Clothing	9	-1	[0, 0, 0]	n/a	catFR1	6	R1436J
58.864	0.983	149243	WORD_OFF	n/a	n/a	BLOUSE	Clothing	9	-1	[0, 0, 0]	n/a	catFR1	6	R1436J
59.847	1.6	150227	WORD	n/a	n/a	SOCKS	Clothing	10	-1	[0, 0, 0]	n/a	catFR1	6	R1436J
61.465	0.766	151845	WORD_OFF	n/a	n/a	SOCKS	Clothing	10	-1	[0, 0, 0]	n/a	catFR1	6	R1436J
62.231	1.6	152611	WORD	n/a	n/a	BARBIE	Toys	11	-1	[0, 0, 0]	n/a	catFR1	6	R1436J
63.848	0.783	154229	WORD_OFF	n/a	n/a	BARBIE	Toys	11	-1	[0, 0, 0]	n/a	catFR1	6	R1436J
64.631	1.6	155012	WORD	n/a	n/a	BALL	Toys	12	-1	[0, 0, 0]	n/a	catFR1	6	R1436J
66.248	0.0	156623	START	n/a	n/a	n/a	n/a	-999	-1	[-999, -999, -999]	n/a	catFR1	6	R1436J
66.248	0.0	156623	PROB	3.516	n/a	n/a	n/a	-999	-1	[2, 1, 8]	11.0	catFR1	6	R1436J
66.247	0.001	156631	WORD_OFF	n/a	n/a	BALL	Toys	12	-1	[0, 0, 0]	n/a	catFR1	6	R1436J
66.248	0.0	156631	ENCODING_END	n/a	n/a	n/a	n/a	-999	-1	[0, 0, 0]	n/a	catFR1	6	R1436J
66.248	3.534	156631	DISTRACT_START	n/a	n/a	n/a	n/a	-999	-1	[0, 0, 0]	n/a	catFR1	6	R1436J
69.782	4.116	160157	PROB	4.099	n/a	n/a	n/a	-999	-1	[2, 7, 6]	15.0	catFR1	6	R1436J
73.898	3.85	164273	PROB	3.832	n/a	n/a	n/a	-999	-1	[4, 4, 1]	9.0	catFR1	6	R1436J
77.748	3.4	168123	PROB	3.383	n/a	n/a	n/a	-999	-1	[1, 4, 3]	8.0	catFR1	6	R1436J
81.148	4.017	171523	PROB	3.999	n/a	n/a	n/a	-999	-1	[4, 7, 5]	16.0	catFR1	6	R1436J
85.165	3.215	175540	PROB	3.199	n/a	n/a	n/a	-999	-1	[5, 2, 2]	9.0	catFR1	6	R1436J
88.38	0.0	178755	STOP	n/a	n/a	n/a	n/a	-999	-1	[-999, -999, -999]	n/a	catFR1	6	R1436J
88.38	2.384	178760	DISTRACT_END	n/a	n/a	n/a	n/a	-999	-1	[0, 0, 0]	n/a	catFR1	6	R1436J
90.764	1.439	181143	REC_START	n/a	n/a	n/a	n/a	-999	-1	[0, 0, 0]	n/a	catFR1	6	R1436J
92.203	1.406	182577	REC_WORD	1.439	n/a	DOVE	Birds	7	-1	[0, 0, 0]	n/a	catFR1	6	R1436J
93.609	1.329	183983	REC_WORD	2.845	n/a	BLOUSE	Clothing	9	-1	[0, 0, 0]	n/a	catFR1	6	R1436J
94.938	1.275	185312	REC_WORD	4.174	n/a	BLUEBIRD	Birds	1	-1	[0, 0, 0]	n/a	catFR1	6	R1436J
96.213	3.555	186587	REC_WORD	5.449	n/a	SPARROW	Birds	8	-1	[0, 0, 0]	n/a	catFR1	6	R1436J
99.768	2.224	190142	REC_WORD	9.004	n/a	FOOTBALL	Toys	3	-1	[0, 0, 0]	n/a	catFR1	6	R1436J
101.992	1.8	192366	REC_WORD_VV	11.228	n/a	<>	n/a	-999	-1	[0, 0, 0]	n/a	catFR1	6	R1436J
103.792	1.299	194166	REC_WORD_VV	13.028	n/a	<>	n/a	-999	-1	[0, 0, 0]	n/a	catFR1	6	R1436J
105.091	3.863	195465	REC_WORD_VV	14.327	n/a	<>	n/a	-999	-1	[0, 0, 0]	n/a	catFR1	6	R1436J
108.954	12.009	199328	REC_WORD_VV	18.19	n/a	<>	n/a	-999	-1	[0, 0, 0]	n/a	catFR1	6	R1436J
120.963	9.569	211339	REC_END	n/a	n/a	n/a	n/a	-999	-1	[0, 0, 0]	n/a	catFR1	6	R1436J
130.532	10.0	220911	COUNTDOWN_START	n/a	n/a	n/a	n/a	-999	1	[0, 0, 0]	n/a	catFR1	6	R1436J
140.882	0.001	231257	COUNTDOWN_END	n/a	n/a	n/a	n/a	-999	1	[0, 0, 0]	n/a	catFR1	6	R1436J
140.883	2.216	231266	ENCODING_START	n/a	n/a	n/a	n/a	-999	1	[0, 0, 0]	n/a	catFR1	6	R1436J
143.099	1.6	233476	WORD	n/a	wordpools/wordpool_categorized_EN.txt	DENIM	Fabric	1	1	[0, 0, 0]	n/a	catFR1	6	R1436J
144.716	0.816	235095	WORD_OFF	n/a	n/a	DENIM	Fabric	1	1	[0, 0, 0]	n/a	catFR1	6	R1436J
145.532	1.6	235913	WORD	n/a	wordpools/wordpool_categorized_EN.txt	FLEECE	Fabric	2	1	[0, 0, 0]	n/a	catFR1	6	R1436J
147.149	0.867	237522	WORD_OFF	n/a	n/a	FLEECE	Fabric	2	1	[0, 0, 0]	n/a	catFR1	6	R1436J
148.016	1.6	238393	WORD	n/a	wordpools/wordpool_categorized_EN.txt	LEVEL	Tools	3	1	[0, 0, 0]	n/a	catFR1	6	R1436J
149.616	0.8	239994	WORD_OFF	n/a	n/a	LEVEL	Tools	3	1	[0, 0, 0]	n/a	catFR1	6	R1436J
150.416	1.6	240794	WORD	n/a	wordpools/wordpool_categorized_EN.txt	SCREWDRIVER	Tools	4	1	[0, 0, 0]	n/a	catFR1	6	R1436J
152.031	0.785	242404	WORD_OFF	n/a	n/a	SCREWDRIVER	Tools	4	1	[0, 0, 0]	n/a	catFR1	6	R1436J
152.816	1.6	243196	WORD	n/a	wordpools/wordpool_categorized_EN.txt	SPEAKER	Electronics	5	1	[0, 0, 0]	n/a	catFR1	6	R1436J
154.432	0.784	244806	WORD_OFF	n/a	n/a	SPEAKER	Electronics	5	1	[0, 0, 0]	n/a	catFR1	6	R1436J
155.216	1.6	245589	WORD	n/a	wordpools/wordpool_categorized_EN.txt	MICROWAVE	Electronics	6	1	[0, 0, 0]	n/a	catFR1	6	R1436J
156.832	0.8	247208	WORD_OFF	n/a	n/a	MICROWAVE	Electronics	6	1	[0, 0, 0]	n/a	catFR1	6	R1436J
157.632	1.6	248008	WORD	n/a	wordpools/wordpool_categorized_EN.txt	COTTON	Fabric	7	1	[0, 0, 0]	n/a	catFR1	6	R1436J
159.248	0.834	249627	WORD_OFF	n/a	n/a	COTTON	Fabric	7	1	[0, 0, 0]	n/a	catFR1	6	R1436J
160.082	1.6	250462	WORD	n/a	wordpools/wordpool_categorized_EN.txt	SUEDE	Fabric	8	1	[0, 0, 0]	n/a	catFR1	6	R1436J
161.699	0.9	252072	WORD_OFF	n/a	n/a	SUEDE	Fabric	8	1	[0, 0, 0]	n/a	catFR1	6	R1436J
162.599	1.6	252977	WORD	n/a	wordpools/wordpool_categorized_EN.txt	CROWBAR	Tools	9	1	[0, 0, 0]	n/a	catFR1	6	R1436J
164.216	0.966	254595	WORD_OFF	n/a	n/a	CROWBAR	Tools	9	1	[0, 0, 0]	n/a	catFR1	6	R1436J
165.182	1.6	255561	WORD	n/a	wordpools/wordpool_categorized_EN.txt	DRILL	Tools	10	1	[0, 0, 0]	n/a	catFR1	6	R1436J
166.798	0.868	257171	WORD_OFF	n/a	n/a	DRILL	Tools	10	1	[0, 0, 0]	n/a	catFR1	6	R1436J
167.666	1.6	258041	WORD	n/a	wordpools/wordpool_categorized_EN.txt	STEREO	Electronics	11	1	[0, 0, 0]	n/a	catFR1	6	R1436J
169.282	0.9	259660	WORD_OFF	n/a	n/a	STEREO	Electronics	11	1	[0, 0, 0]	n/a	catFR1	6	R1436J
170.182	1.6	260556	WORD	n/a	wordpools/wordpool_categorized_EN.txt	RADIO	Electronics	12	1	[0, 0, 0]	n/a	catFR1	6	R1436J
171.783	0.001	262154	PROB	3.966	n/a	n/a	n/a	-999	1	[4, 1, 5]	10.0	catFR1	6	R1436J
171.784	0.0	262155	START	n/a	n/a	n/a	n/a	-999	1	[-999, -999, -999]	n/a	catFR1	6	R1436J
171.782	0.002	262157	WORD_OFF	n/a	n/a	RADIO	Electronics	12	1	[0, 0, 0]	n/a	catFR1	6	R1436J
171.784	0.0	262157	ENCODING_END	n/a	n/a	n/a	n/a	-999	1	[0, 0, 0]	n/a	catFR1	6	R1436J
171.784	3.983	262157	DISTRACT_START	n/a	n/a	n/a	n/a	-999	1	[0, 0, 0]	n/a	catFR1	6	R1436J
175.767	3.032	266138	PROB	3.016	n/a	n/a	n/a	-999	1	[3, 6, 2]	11.0	catFR1	6	R1436J
178.799	3.201	269170	PROB	3.182	n/a	n/a	n/a	-999	1	[8, 4, 2]	14.0	catFR1	6	R1436J
182.0	3.116	272371	PROB	3.099	n/a	n/a	n/a	-999	1	[2, 1, 6]	9.0	catFR1	6	R1436J
185.116	2.9	275487	PROB	2.882	n/a	n/a	n/a	-999	1	[2, 6, 1]	9.0	catFR1	6	R1436J
188.016	3.249	278386	PROB	3.233	n/a	n/a	n/a	-999	1	[4, 7, 2]	13.0	catFR1	6	R1436J
191.265	7.899	281635	PROB	7.882	n/a	n/a	n/a	-999	1	[1, 6, 4]	11.0	catFR1	6	R1436J
199.164	0.0	289534	STOP	n/a	n/a	n/a	n/a	-999	1	[-999, -999, -999]	n/a	catFR1	6	R1436J
199.164	2.317	289542	DISTRACT_END	n/a	n/a	n/a	n/a	-999	1	[0, 0, 0]	n/a	catFR1	6	R1436J
201.481	1.4	291856	REC_START	n/a	n/a	n/a	n/a	-999	1	[0, 0, 0]	n/a	catFR1	6	R1436J
202.881	1.635	293251	REC_WORD	1.4	n/a	DRILL	Tools	10	1	[0, 0, 0]	n/a	catFR1	6	R1436J
204.516	1.335	294886	REC_WORD	3.035	n/a	CROWBAR	Tools	9	1	[0, 0, 0]	n/a	catFR1	6	R1436J
205.851	2.183	296221	REC_WORD	4.37	n/a	SCREWDRIVER	Tools	4	1	[0, 0, 0]	n/a	catFR1	6	R1436J
208.034	3.057	298404	REC_WORD	6.553	n/a	FLEECE	Fabric	2	1	[0, 0, 0]	n/a	catFR1	6	R1436J
211.091	1.435	301460	REC_WORD	9.61	n/a	DENIM	Fabric	1	1	[0, 0, 0]	n/a	catFR1	6	R1436J
212.526	2.498	302895	REC_WORD	11.045	n/a	COTTON	Fabric	7	1	[0, 0, 0]	n/a	catFR1	6	R1436J
215.024	1.0	305393	REC_WORD_VV	13.543	n/a	<>	n/a	-999	1	[0, 0, 0]	n/a	catFR1	6	R1436J
216.024	1.75	306393	REC_WORD_VV	14.543	n/a	<>	n/a	-999	1	[0, 0, 0]	n/a	catFR1	6	R1436J
217.774	0.681	308143	REC_WORD	16.293	n/a	DOVE	Birds	-999	1	[0, 0, 0]	n/a	catFR1	6	R1436J
218.455	0.773	308824	REC_WORD_VV	16.974	n/a	<>	n/a	-999	1	[0, 0, 0]	n/a	catFR1	6	R1436J
219.228	1.0	309597	REC_WORD_VV	17.747	n/a	<>	n/a	-999	1	[0, 0, 0]	n/a	catFR1	6	R1436J
220.228	1.799	310597	REC_WORD_VV	18.747	n/a	<>	n/a	-999	1	[0, 0, 0]	n/a	catFR1	6	R1436J
222.027	4.077	312396	REC_WORD_VV	20.546	n/a	<>	n/a	-999	1	[0, 0, 0]	n/a	catFR1	6	R1436J
226.104	5.606	316473	REC_WORD_VV	24.623	n/a	<>	n/a	-999	1	[0, 0, 0]	n/a	catFR1	6	R1436J
231.71	4.037	322086	REC_END	n/a	n/a	n/a	n/a	-999	1	[0, 0, 0]	n/a	catFR1	6	R1436J
235.747	10.0	326124	COUNTDOWN_START	n/a	n/a	n/a	n/a	-999	2	[0, 0, 0]	n/a	catFR1	6	R1436J
246.1	0.0	336470	COUNTDOWN_END	n/a	n/a	n/a	n/a	-999	2	[0, 0, 0]	n/a	catFR1	6	R1436J
246.1	2.147	336470	ENCODING_START	n/a	n/a	n/a	n/a	-999	2	[0, 0, 0]	n/a	catFR1	6	R1436J
248.247	1.6	338619	WORD	n/a	wordpools/wordpool_categorized_EN.txt	TEA	Beverages	1	2	[0, 0, 0]	n/a	catFR1	6	R1436J
249.848	0.883	340221	WORD_OFF	n/a	n/a	TEA	Beverages	1	2	[0, 0, 0]	n/a	catFR1	6	R1436J
250.731	1.6	341099	WORD	n/a	wordpools/wordpool_categorized_EN.txt	LEMONADE	Beverages	2	2	[0, 0, 0]	n/a	catFR1	6	R1436J
252.346	0.901	342718	WORD_OFF	n/a	n/a	LEMONADE	Beverages	2	2	[0, 0, 0]	n/a	catFR1	6	R1436J
253.247	1.6	343623	WORD	n/a	wordpools/wordpool_categorized_EN.txt	THUNDER	Weather	3	2	[0, 0, 0]	n/a	catFR1	6	R1436J
254.864	0.9	345233	WORD_OFF	n/a	n/a	THUNDER	Weather	3	2	[0, 0, 0]	n/a	catFR1	6	R1436J
255.764	1.6	346138	WORD	n/a	wordpools/wordpool_categorized_EN.txt	THUNDERSTORM	Weather	4	2	[0, 0, 0]	n/a	catFR1	6	R1436J
257.364	0.999	347739	WORD_OFF	n/a	n/a	THUNDERSTORM	Weather	4	2	[0, 0, 0]	n/a	catFR1	6	R1436J
258.363	1.6	348731	WORD	n/a	wordpools/wordpool_categorized_EN.txt	TONGS	KitchenTools	5	2	[0, 0, 0]	n/a	catFR1	6	R1436J
259.964	0.917	350332	WORD_OFF	n/a	n/a	TONGS	KitchenTools	5	2	[0, 0, 0]	n/a	catFR1	6	R1436J
260.881	1.6	351254	WORD	n/a	wordpools/wordpool_categorized_EN.txt	STRAINER	KitchenTools	6	2	[0, 0, 0]	n/a	catFR1	6	R1436J
262.481	0.799	352855	WORD_OFF	n/a	n/a	STRAINER	KitchenTools	6	2	[0, 0, 0]	n/a	catFR1	6	R1436J
263.28	1.6	353656	WORD	n/a	wordpools/wordpool_categorized_EN.txt	DRIZZLE	Weather	7	2	[0, 0, 0]	n/a	catFR1	6	R1436J
264.88	0.768	355248	WORD_OFF	n/a	n/a	DRIZZLE	Weather	7	2	[0, 0, 0]	n/a	catFR1	6	R1436J
265.648	1.6	356023	WORD	n/a	wordpools/wordpool_categorized_EN.txt	CLOUD	Weather	8	2	[0, 0, 0]	n/a	catFR1	6	R1436J
267.247	0.984	357615	WORD_OFF	n/a	n/a	CLOUD	Weather	8	2	[0, 0, 0]	n/a	catFR1	6	R1436J
268.231	1.6	358599	WORD	n/a	wordpools/wordpool_categorized_EN.txt	CORKSCREW	KitchenTools	9	2	[0, 0, 0]	n/a	catFR1	6	R1436J
269.83	0.868	360200	WORD_OFF	n/a	n/a	CORKSCREW	KitchenTools	9	2	[0, 0, 0]	n/a	catFR1	6	R1436J
270.698	1.6	361070	WORD	n/a	wordpools/wordpool_categorized_EN.txt	FORK	KitchenTools	10	2	[0, 0, 0]	n/a	catFR1	6	R1436J
272.315	1.0	362688	WORD_OFF	n/a	n/a	FORK	KitchenTools	10	2	[0, 0, 0]	n/a	catFR1	6	R1436J
273.315	1.6	363689	WORD	n/a	wordpools/wordpool_categorized_EN.txt	CIDER	Beverages	11	2	[0, 0, 0]	n/a	catFR1	6	R1436J
274.93	0.851	365299	WORD_OFF	n/a	n/a	CIDER	Beverages	11	2	[0, 0, 0]	n/a	catFR1	6	R1436J
275.781	1.6	366152	WORD	n/a	wordpools/wordpool_categorized_EN.txt	MILK	Beverages	12	2	[0, 0, 0]	n/a	catFR1	6	R1436J
277.397	0.001	367764	PROB	3.517	n/a	n/a	n/a	-999	2	[8, 6, 5]	19.0	catFR1	6	R1436J
277.398	0.0	367765	START	n/a	n/a	n/a	n/a	-999	2	[-999, -999, -999]	n/a	catFR1	6	R1436J
277.397	0.001	367770	WORD_OFF	n/a	n/a	MILK	Beverages	12	2	[0, 0, 0]	n/a	catFR1	6	R1436J
277.398	0.0	367770	ENCODING_END	n/a	n/a	n/a	n/a	-999	2	[0, 0, 0]	n/a	catFR1	6	R1436J
277.398	3.533	367770	DISTRACT_START	n/a	n/a	n/a	n/a	-999	2	[0, 0, 0]	n/a	catFR1	6	R1436J
280.931	4.284	371298	PROB	4.266	n/a	n/a	n/a	-999	2	[4, 6, 6]	16.0	catFR1	6	R1436J
285.215	7.899	375581	PROB	7.882	n/a	n/a	n/a	-999	2	[2, 4, 6]	12.0	catFR1	6	R1436J
293.114	4.55	383480	PROB	4.533	n/a	n/a	n/a	-999	2	[4, 1, 1]	6.0	catFR1	6	R1436J
297.664	0.0	388030	STOP	n/a	n/a	n/a	n/a	-999	2	[-999, -999, -999]	n/a	catFR1	6	R1436J
297.664	2.049	388037	DISTRACT_END	n/a	n/a	n/a	n/a	-999	2	[0, 0, 0]	n/a	catFR1	6	R1436J
299.713	1.26	390081	REC_START	n/a	n/a	n/a	n/a	-999	2	[0, 0, 0]	n/a	catFR1	6	R1436J
300.973	1.749	391339	REC_WORD_VV	1.26	n/a	<>	n/a	-999	2	[0, 0, 0]	n/a	catFR1	6	R1436J
302.722	0.345	393088	REC_WORD_VV	3.009	n/a	<>	n/a	-999	2	[0, 0, 0]	n/a	catFR1	6	R1436J
303.067	2.225	393433	REC_WORD	3.354	n/a	THUNDERSTORM	Weather	4	2	[0, 0, 0]	n/a	catFR1	6	R1436J
305.292	2.341	395658	REC_WORD	5.579	n/a	CORKSCREW	KitchenTools	9	2	[0, 0, 0]	n/a	catFR1	6	R1436J
307.633	2.89	397998	REC_WORD	7.92	n/a	DRILL	Tools	-999	2	[0, 0, 0]	n/a	catFR1	6	R1436J
310.523	19.416	400888	REC_WORD	10.81	n/a	SCHOOL DRIVER	n/a	-999	2	[0, 0, 0]	n/a	catFR1	6	R1436J
329.939	3.31	420311	REC_END	n/a	n/a	n/a	n/a	-999	2	[0, 0, 0]	n/a	catFR1	6	R1436J
333.249	10.0	423618	COUNTDOWN_START	n/a	n/a	n/a	n/a	-999	3	[0, 0, 0]	n/a	catFR1	6	R1436J
343.598	0.0	433964	COUNTDOWN_END	n/a	n/a	n/a	n/a	-999	3	[0, 0, 0]	n/a	catFR1	6	R1436J
343.598	1.984	433964	ENCODING_START	n/a	n/a	n/a	n/a	-999	3	[0, 0, 0]	n/a	catFR1	6	R1436J
345.582	1.6	435948	WORD	n/a	wordpools/wordpool_categorized_EN.txt	HORSE	FarmAnimals	1	3	[0, 0, 0]	n/a	catFR1	6	R1436J
347.182	0.984	437550	WORD_OFF	n/a	n/a	HORSE	FarmAnimals	1	3	[0, 0, 0]	n/a	catFR1	6	R1436J
348.166	1.6	438533	WORD	n/a	wordpools/wordpool_categorized_EN.txt	BULL	FarmAnimals	2	3	[0, 0, 0]	n/a	catFR1	6	R1436J
349.766	0.932	440134	WORD_OFF	n/a	n/a	BULL	FarmAnimals	2	3	[0, 0, 0]	n/a	catFR1	6	R1436J
350.698	1.6	441065	WORD	n/a	wordpools/wordpool_categorized_EN.txt	MONKEY	Zoo	3	3	[0, 0, 0]	n/a	catFR1	6	R1436J
352.299	0.833	442666	WORD_OFF	n/a	n/a	MONKEY	Zoo	3	3	[0, 0, 0]	n/a	catFR1	6	R1436J
353.132	1.6	443502	WORD	n/a	wordpools/wordpool_categorized_EN.txt	PANDA	Zoo	4	3	[0, 0, 0]	n/a	catFR1	6	R1436J
354.749	0.95	445120	WORD_OFF	n/a	n/a	PANDA	Zoo	4	3	[0, 0, 0]	n/a	catFR1	6	R1436J
355.699	1.6	446069	WORD	n/a	wordpools/wordpool_categorized_EN.txt	ORANGE	Fruit	5	3	[0, 0, 0]	n/a	catFR1	6	R1436J
357.316	0.765	447687	WORD_OFF	n/a	n/a	ORANGE	Fruit	5	3	[0, 0, 0]	n/a	catFR1	6	R1436J
358.081	1.6	448453	WORD	n/a	wordpools/wordpool_categorized_EN.txt	PLUM	Fruit	6	3	[0, 0, 0]	n/a	catFR1	6	R1436J
359.681	0.95	450045	WORD_OFF	n/a	n/a	PLUM	Fruit	6	3	[0, 0, 0]	n/a	catFR1	6	R1436J
360.631	1.6	451002	WORD	n/a	wordpools/wordpool_categorized_EN.txt	HEN	FarmAnimals	7	3	[0, 0, 0]	n/a	catFR1	6	R1436J
362.232	0.917	452604	WORD_OFF	n/a	n/a	HEN	FarmAnimals	7	3	[0, 0, 0]	n/a	catFR1	6	R1436J
363.149	1.6	453517	WORD	n/a	wordpools/wordpool_categorized_EN.txt	CALF	FarmAnimals	8	3	[0, 0, 0]	n/a	catFR1	6	R1436J
364.766	0.817	455136	WORD_OFF	n/a	n/a	CALF	FarmAnimals	8	3	[0, 0, 0]	n/a	catFR1	6	R1436J
365.583	1.6	455954	WORD	n/a	wordpools/wordpool_categorized_EN.txt	CHERRY	Fruit	9	3	[0, 0, 0]	n/a	catFR1	6	R1436J
367.182	0.883	457546	WORD_OFF	n/a	n/a	CHERRY	Fruit	9	3	[0, 0, 0]	n/a	catFR1	6	R1436J
368.065	1.6	458434	WORD	n/a	wordpools/wordpool_categorized_EN.txt	BANANA	Fruit	10	3	[0, 0, 0]	n/a	catFR1	6	R1436J
369.666	0.85	460035	WORD_OFF	n/a	n/a	BANANA	Fruit	10	3	[0, 0, 0]	n/a	catFR1	6	R1436J
370.516	1.6	460879	WORD	n/a	wordpools/wordpool_categorized_EN.txt	ORANGUTAN	Zoo	11	3	[0, 0, 0]	n/a	catFR1	6	R1436J
372.132	0.832	462498	WORD_OFF	n/a	n/a	ORANGUTAN	Zoo	11	3	[0, 0, 0]	n/a	catFR1	6	R1436J
372.964	1.6	463333	WORD	n/a	wordpools/wordpool_categorized_EN.txt	TIGER	Zoo	12	3	[0, 0, 0]	n/a	catFR1	6	R1436J
374.566	0.001	464929	PROB	4.765	n/a	n/a	n/a	-999	3	[7, 7, 6]	20.0	catFR1	6	R1436J
374.567	0.0	464930	START	n/a	n/a	n/a	n/a	-999	3	[-999, -999, -999]	n/a	catFR1	6	R1436J
374.566	0.001	464934	WORD_OFF	n/a	n/a	TIGER	Zoo	12	3	[0, 0, 0]	n/a	catFR1	6	R1436J
374.567	0.0	464934	ENCODING_END	n/a	n/a	n/a	n/a	-999	3	[0, 0, 0]	n/a	catFR1	6	R1436J
374.567	4.783	464934	DISTRACT_START	n/a	n/a	n/a	n/a	-999	3	[0, 0, 0]	n/a	catFR1	6	R1436J
379.35	2.799	469712	PROB	2.782	n/a	n/a	n/a	-999	3	[3, 1, 1]	5.0	catFR1	6	R1436J
382.149	2.8	472511	PROB	2.782	n/a	n/a	n/a	-999	3	[4, 8, 1]	13.0	catFR1	6	R1436J
384.949	4.766	475311	PROB	4.749	n/a	n/a	n/a	-999	3	[3, 6, 8]	17.0	catFR1	6	R1436J
389.715	4.234	480077	PROB	4.216	n/a	n/a	n/a	-999	3	[6, 6, 7]	20.0	catFR1	6	R1436J
393.949	5.698	484311	PROB	5.681	n/a	n/a	n/a	-999	3	[4, 7, 6]	17.0	catFR1	6	R1436J
399.647	0.0	490009	STOP	n/a	n/a	n/a	n/a	-999	3	[-999, -999, -999]	n/a	catFR1	6	R1436J
399.647	2.283	490012	DISTRACT_END	n/a	n/a	n/a	n/a	-999	3	[0, 0, 0]	n/a	catFR1	6	R1436J
401.93	0.275	492300	REC_START	n/a	n/a	n/a	n/a	-999	3	[0, 0, 0]	n/a	catFR1	6	R1436J
402.205	1.0	492567	REC_WORD_VV	0.275	n/a	<>	n/a	-999	3	[0, 0, 0]	n/a	catFR1	6	R1436J
403.205	1.604	493566	REC_WORD_VV	1.275	n/a	<>	n/a	-999	3	[0, 0, 0]	n/a	catFR1	6	R1436J
404.809	1.111	495170	REC_WORD_VV	2.879	n/a	<>	n/a	-999	3	[0, 0, 0]	n/a	catFR1	6	R1436J
405.92	4.656	496281	REC_WORD	3.99	n/a	ORANGUTAN	Zoo	11	3	[0, 0, 0]	n/a	catFR1	6	R1436J
410.576	1.0	500937	REC_WORD_VV	8.646	n/a	<>	n/a	-999	3	[0, 0, 0]	n/a	catFR1	6	R1436J
411.576	1.0	501937	REC_WORD_VV	9.646	n/a	<>	n/a	-999	3	[0, 0, 0]	n/a	catFR1	6	R1436J
412.576	4.067	502937	REC_WORD_VV	10.646	n/a	<>	n/a	-999	3	[0, 0, 0]	n/a	catFR1	6	R1436J
416.643	1.0	507004	REC_WORD_VV	14.713	n/a	<>	n/a	-999	3	[0, 0, 0]	n/a	catFR1	6	R1436J
417.643	11.4	508004	REC_WORD_VV	15.713	n/a	<>	n/a	-999	3	[0, 0, 0]	n/a	catFR1	6	R1436J
429.043	3.105	519403	REC_WORD_VV	27.113	n/a	<>	n/a	-999	3	[0, 0, 0]	n/a	catFR1	6	R1436J
432.148	2.535	522513	REC_END	n/a	n/a	n/a	n/a	-999	3	[0, 0, 0]	n/a	catFR1	6	R1436J
434.683	10.0	525046	COUNTDOWN_START	n/a	n/a	n/a	n/a	-999	4	[0, 0, 0]	n/a	catFR1	6	R1436J
445.032	0.0	535393	COUNTDOWN_END	n/a	n/a	n/a	n/a	-999	4	[0, 0, 0]	n/a	catFR1	6	R1436J
445.032	2.2	535401	ENCODING_START	n/a	n/a	n/a	n/a	-999	4	[0, 0, 0]	n/a	catFR1	6	R1436J
447.232	1.6	537594	WORD	n/a	wordpools/wordpool_categorized_EN.txt	COMPUTER	Electronics	1	4	[0, 0, 0]	n/a	catFR1	6	R1436J
448.833	0.916	539195	WORD_OFF	n/a	n/a	COMPUTER	Electronics	1	4	[0, 0, 0]	n/a	catFR1	6	R1436J
449.749	1.6	540117	WORD	n/a	wordpools/wordpool_categorized_EN.txt	CALCULATOR	Electronics	2	4	[0, 0, 0]	n/a	catFR1	6	R1436J
451.349	0.949	541710	WORD_OFF	n/a	n/a	CALCULATOR	Electronics	2	4	[0, 0, 0]	n/a	catFR1	6	R1436J
452.298	1.6	542658	WORD	n/a	wordpools/wordpool_categorized_EN.txt	TURKEY	FarmAnimals	3	4	[0, 0, 0]	n/a	catFR1	6	R1436J
453.899	0.867	544259	WORD_OFF	n/a	n/a	TURKEY	FarmAnimals	3	4	[0, 0, 0]	n/a	catFR1	6	R1436J
454.766	1.6	545129	WORD	n/a	wordpools/wordpool_categorized_EN.txt	COW	FarmAnimals	4	4	[0, 0, 0]	n/a	catFR1	6	R1436J
456.366	0.898	546730	WORD_OFF	n/a	n/a	COW	FarmAnimals	4	4	[0, 0, 0]	n/a	catFR1	6	R1436J
457.264	1.6	547627	WORD	n/a	wordpools/wordpool_categorized_EN.txt	TUBA	Instruments	5	4	[0, 0, 0]	n/a	catFR1	6	R1436J
458.866	0.833	549228	WORD_OFF	n/a	n/a	TUBA	Instruments	5	4	[0, 0, 0]	n/a	catFR1	6	R1436J
459.699	1.6	550063	WORD	n/a	wordpools/wordpool_categorized_EN.txt	BASS	Instruments	6	4	[0, 0, 0]	n/a	catFR1	6	R1436J
461.299	1.0	551664	WORD_OFF	n/a	n/a	BASS	Instruments	6	4	[0, 0, 0]	n/a	catFR1	6	R1436J
462.299	1.6	552665	WORD	n/a	wordpools/wordpool_categorized_EN.txt	SHEEP	FarmAnimals	7	4	[0, 0, 0]	n/a	catFR1	6	R1436J
463.916	0.833	554275	WORD_OFF	n/a	n/a	SHEEP	FarmAnimals	7	4	[0, 0, 0]	n/a	catFR1	6	R1436J
464.749	1.6	555110	WORD	n/a	wordpools/wordpool_categorized_EN.txt	GOAT	FarmAnimals	8	4	[0, 0, 0]	n/a	catFR1	6	R1436J
466.349	0.967	556711	WORD_OFF	n/a	n/a	GOAT	FarmAnimals	8	4	[0, 0, 0]	n/a	catFR1	6	R1436J
467.316	1.6	557677	WORD	n/a	wordpools/wordpool_categorized_EN.txt	PRINTER	Electronics	9	4	[0, 0, 0]	n/a	catFR1	6	R1436J
468.932	0.95	559296	WORD_OFF	n/a	n/a	PRINTER	Electronics	9	4	[0, 0, 0]	n/a	catFR1	6	R1436J
469.882	1.6	560244	WORD	n/a	wordpools/wordpool_categorized_EN.txt	PHONE	Electronics	10	4	[0, 0, 0]	n/a	catFR1	6	R1436J
471.498	0.966	561863	WORD_OFF	n/a	n/a	PHONE	Electronics	10	4	[0, 0, 0]	n/a	catFR1	6	R1436J
472.464	1.6	562829	WORD	n/a	wordpools/wordpool_categorized_EN.txt	CELLO	Instruments	11	4	[0, 0, 0]	n/a	catFR1	6	R1436J
474.066	0.983	564430	WORD_OFF	n/a	n/a	CELLO	Instruments	11	4	[0, 0, 0]	n/a	catFR1	6	R1436J
475.049	1.6	565413	WORD	n/a	wordpools/wordpool_categorized_EN.txt	FLUTE	Instruments	12	4	[0, 0, 0]	n/a	catFR1	6	R1436J
476.665	0.003	567023	PROB	3.1	n/a	n/a	n/a	-999	4	[5, 3, 5]	13.0	catFR1	6	R1436J
476.668	0.0	567026	START	n/a	n/a	n/a	n/a	-999	4	[-999, -999, -999]	n/a	catFR1	6	R1436J
476.665	0.003	567032	WORD_OFF	n/a	n/a	FLUTE	Instruments	12	4	[0, 0, 0]	n/a	catFR1	6	R1436J
476.668	0.0	567032	ENCODING_END	n/a	n/a	n/a	n/a	-999	4	[0, 0, 0]	n/a	catFR1	6	R1436J
476.668	3.114	567032	DISTRACT_START	n/a	n/a	n/a	n/a	-999	4	[0, 0, 0]	n/a	catFR1	6	R1436J
479.782	3.699	570140	PROB	3.683	n/a	n/a	n/a	-999	4	[8, 3, 7]	18.0	catFR1	6	R1436J
483.481	4.267	573839	PROB	4.25	n/a	n/a	n/a	-999	4	[5, 3, 4]	12.0	catFR1	6	R1436J
487.748	3.433	578106	PROB	3.416	n/a	n/a	n/a	-999	4	[2, 8, 4]	14.0	catFR1	6	R1436J
491.181	4.549	581539	PROB	4.533	n/a	n/a	n/a	-999	4	[3, 6, 7]	16.0	catFR1	6	R1436J
495.73	3.85	586088	PROB	3.833	n/a	n/a	n/a	-999	4	[8, 4, 2]	14.0	catFR1	6	R1436J
499.58	0.0	589937	STOP	n/a	n/a	n/a	n/a	-999	4	[-999, -999, -999]	n/a	catFR1	6	R1436J
499.58	2.052	589943	DISTRACT_END	n/a	n/a	n/a	n/a	-999	4	[0, 0, 0]	n/a	catFR1	6	R1436J
501.632	0.39	591996	REC_START	n/a	n/a	n/a	n/a	-999	4	[0, 0, 0]	n/a	catFR1	6	R1436J
502.022	1.0	592379	REC_WORD_VV	0.39	n/a	<>	n/a	-999	4	[0, 0, 0]	n/a	catFR1	6	R1436J
503.022	0.558	593379	REC_WORD_VV	1.39	n/a	<>	n/a	-999	4	[0, 0, 0]	n/a	catFR1	6	R1436J
503.58	1.827	593937	REC_WORD	1.948	n/a	CALCULATOR	Electronics	2	4	[0, 0, 0]	n/a	catFR1	6	R1436J
505.407	2.378	595764	REC_WORD	3.775	n/a	COMPUTER	Electronics	1	4	[0, 0, 0]	n/a	catFR1	6	R1436J
507.785	2.505	598142	REC_WORD_VV	6.153	n/a	<>	n/a	-999	4	[0, 0, 0]	n/a	catFR1	6	R1436J
510.29	2.39	600647	REC_WORD	8.658	n/a	CELLO	Instruments	11	4	[0, 0, 0]	n/a	catFR1	6	R1436J
512.68	2.65	603037	REC_WORD	11.048	n/a	BASS	Instruments	6	4	[0, 0, 0]	n/a	catFR1	6	R1436J
515.33	1.328	605687	REC_WORD_VV	13.698	n/a	<>	n/a	-999	4	[0, 0, 0]	n/a	catFR1	6	R1436J
516.658	1.0	607015	REC_WORD_VV	15.026	n/a	<>	n/a	-999	4	[0, 0, 0]	n/a	catFR1	6	R1436J
517.658	0.175	608015	REC_WORD_VV	16.026	n/a	<>	n/a	-999	4	[0, 0, 0]	n/a	catFR1	6	R1436J
517.833	5.248	608190	REC_WORD	16.201	n/a	GOAT	FarmAnimals	8	4	[0, 0, 0]	n/a	catFR1	6	R1436J
523.081	3.323	613437	REC_WORD_VV	21.449	n/a	<>	n/a	-999	4	[0, 0, 0]	n/a	catFR1	6	R1436J
526.404	4.113	616760	REC_WORD	24.772	n/a	PRINTER	Electronics	9	4	[0, 0, 0]	n/a	catFR1	6	R1436J
530.517	0.457	620873	REC_WORD	28.885	n/a	CELLO	Instruments	11	4	[0, 0, 0]	n/a	catFR1	6	R1436J
530.974	0.894	621330	REC_WORD_VV	29.342	n/a	<>	n/a	-999	4	[0, 0, 0]	n/a	catFR1	6	R1436J
531.868	2.981	622227	REC_END	n/a	n/a	n/a	n/a	-999	4	[0, 0, 0]	n/a	catFR1	6	R1436J
534.849	10.0	625212	COUNTDOWN_START	n/a	n/a	n/a	n/a	-999	5	[0, 0, 0]	n/a	catFR1	6	R1436J
545.199	0.0	635558	COUNTDOWN_END	n/a	n/a	n/a	n/a	-999	5	[0, 0, 0]	n/a	catFR1	6	R1436J
545.199	2.317	635567	ENCODING_START	n/a	n/a	n/a	n/a	-999	5	[0, 0, 0]	n/a	catFR1	6	R1436J
547.516	1.6	637873	WORD	n/a	wordpools/wordpool_categorized_EN.txt	TAPE	OfficeSupplies	1	5	[0, 0, 0]	n/a	catFR1	6	R1436J
549.133	0.799	639491	WORD_OFF	n/a	n/a	TAPE	OfficeSupplies	1	5	[0, 0, 0]	n/a	catFR1	6	R1436J
549.932	1.6	640292	WORD	n/a	wordpools/wordpool_categorized_EN.txt	MARKER	OfficeSupplies	2	5	[0, 0, 0]	n/a	catFR1	6	R1436J
551.532	0.984	641893	WORD_OFF	n/a	n/a	MARKER	OfficeSupplies	2	5	[0, 0, 0]	n/a	catFR1	6	R1436J
552.516	1.6	642876	WORD	n/a	wordpools/wordpool_categorized_EN.txt	CHEESECAKE	Desserts	3	5	[0, 0, 0]	n/a	catFR1	6	R1436J
554.131	0.951	644486	WORD_OFF	n/a	n/a	CHEESECAKE	Desserts	3	5	[0, 0, 0]	n/a	catFR1	6	R1436J
555.082	1.6	645443	WORD	n/a	wordpools/wordpool_categorized_EN.txt	COBBLER	Desserts	4	5	[0, 0, 0]	n/a	catFR1	6	R1436J
556.698	0.935	647062	WORD_OFF	n/a	n/a	COBBLER	Desserts	4	5	[0, 0, 0]	n/a	catFR1	6	R1436J
557.633	1.6	647993	WORD	n/a	wordpools/wordpool_categorized_EN.txt	GRAPE	Fruit	5	5	[0, 0, 0]	n/a	catFR1	6	R1436J
559.249	0.933	649611	WORD_OFF	n/a	n/a	GRAPE	Fruit	5	5	[0, 0, 0]	n/a	catFR1	6	R1436J
560.182	1.6	650542	WORD	n/a	wordpools/wordpool_categorized_EN.txt	STRAWBERRY	Fruit	6	5	[0, 0, 0]	n/a	catFR1	6	R1436J
561.782	0.782	652143	WORD_OFF	n/a	n/a	STRAWBERRY	Fruit	6	5	[0, 0, 0]	n/a	catFR1	6	R1436J
562.564	1.6	652927	WORD	n/a	wordpools/wordpool_categorized_EN.txt	NOTEBOOK	OfficeSupplies	7	5	[0, 0, 0]	n/a	catFR1	6	R1436J
564.166	0.833	654528	WORD_OFF	n/a	n/a	NOTEBOOK	OfficeSupplies	7	5	[0, 0, 0]	n/a	catFR1	6	R1436J
564.999	1.6	655354	WORD	n/a	wordpools/wordpool_categorized_EN.txt	BINDER	OfficeSupplies	8	5	[0, 0, 0]	n/a	catFR1	6	R1436J
566.599	0.817	656956	WORD_OFF	n/a	n/a	BINDER	OfficeSupplies	8	5	[0, 0, 0]	n/a	catFR1	6	R1436J
567.416	1.6	657773	WORD	n/a	wordpools/wordpool_categorized_EN.txt	CUPCAKE	Desserts	9	5	[0, 0, 0]	n/a	catFR1	6	R1436J
569.031	1.001	659392	WORD_OFF	n/a	n/a	CUPCAKE	Desserts	9	5	[0, 0, 0]	n/a	catFR1	6	R1436J
570.032	1.6	660393	WORD	n/a	wordpools/wordpool_categorized_EN.txt	PIE	Desserts	10	5	[0, 0, 0]	n/a	catFR1	6	R1436J
571.632	0.883	661994	WORD_OFF	n/a	n/a	PIE	Desserts	10	5	[0, 0, 0]	n/a	catFR1	6	R1436J
572.515	1.6	662873	WORD	n/a	wordpools/wordpool_categorized_EN.txt	PEAR	Fruit	11	5	[0, 0, 0]	n/a	catFR1	6	R1436J
574.132	0.9	664491	WORD_OFF	n/a	n/a	PEAR	Fruit	11	5	[0, 0, 0]	n/a	catFR1	6	R1436J
575.032	1.6	665387	WORD	n/a	wordpools/wordpool_categorized_EN.txt	BLUEBERRY	Fruit	12	5	[0, 0, 0]	n/a	catFR1	6	R1436J
576.649	0.0	667003	PROB	3.483	n/a	n/a	n/a	-999	5	[5, 7, 3]	15.0	catFR1	6	R1436J
576.649	0.003	667006	WORD_OFF	n/a	n/a	BLUEBERRY	Fruit	12	5	[0, 0, 0]	n/a	catFR1	6	R1436J
576.652	0.0	667006	START	n/a	n/a	n/a	n/a	-999	5	[-999, -999, -999]	n/a	catFR1	6	R1436J
576.652	0.0	667015	ENCODING_END	n/a	n/a	n/a	n/a	-999	5	[0, 0, 0]	n/a	catFR1	6	R1436J
576.652	3.496	667015	DISTRACT_START	n/a	n/a	n/a	n/a	-999	5	[0, 0, 0]	n/a	catFR1	6	R1436J
580.148	2.384	670502	PROB	2.365	n/a	n/a	n/a	-999	5	[2, 8, 2]	12.0	catFR1	6	R1436J
582.532	4.166	672886	PROB	4.15	n/a	n/a	n/a	-999	5	[1, 3, 2]	6.0	catFR1	6	R1436J
586.698	2.817	677052	PROB	2.8	n/a	n/a	n/a	-999	5	[6, 7, 1]	14.0	catFR1	6	R1436J
589.515	3.433	679869	PROB	3.416	n/a	n/a	n/a	-999	5	[7, 8, 2]	17.0	catFR1	6	R1436J
592.948	4.6	683302	PROB	4.583	n/a	n/a	n/a	-999	5	[7, 8, 2]	17.0	catFR1	6	R1436J
597.548	0.0	687901	STOP	n/a	n/a	n/a	n/a	-999	5	[-999, -999, -999]	n/a	catFR1	6	R1436J
597.548	2.384	687908	DISTRACT_END	n/a	n/a	n/a	n/a	-999	5	[0, 0, 0]	n/a	catFR1	6	R1436J
599.932	0.67	690291	REC_START	n/a	n/a	n/a	n/a	-999	5	[0, 0, 0]	n/a	catFR1	6	R1436J
600.602	2.61	690955	REC_WORD_VV	0.67	n/a	<>	n/a	-999	5	[0, 0, 0]	n/a	catFR1	6	R1436J
603.212	1.806	693565	REC_WORD	3.28	n/a	PIE	Desserts	10	5	[0, 0, 0]	n/a	catFR1	6	R1436J
605.018	1.91	695371	REC_WORD	5.086	n/a	STRAWBERRY	Fruit	6	5	[0, 0, 0]	n/a	catFR1	6	R1436J
606.928	1.922	697281	REC_WORD	6.996	n/a	COBBLER	Desserts	4	5	[0, 0, 0]	n/a	catFR1	6	R1436J
608.85	2.425	699203	REC_WORD	8.918	n/a	CHEESECAKE	Desserts	3	5	[0, 0, 0]	n/a	catFR1	6	R1436J
611.275	1.928	701628	REC_WORD_VV	11.343	n/a	<>	n/a	-999	5	[0, 0, 0]	n/a	catFR1	6	R1436J
613.203	1.0	703556	REC_WORD_VV	13.271	n/a	<>	n/a	-999	5	[0, 0, 0]	n/a	catFR1	6	R1436J
614.203	1.0	704556	REC_WORD_VV	14.271	n/a	<>	n/a	-999	5	[0, 0, 0]	n/a	catFR1	6	R1436J
615.203	1.0	705556	REC_WORD_VV	15.271	n/a	<>	n/a	-999	5	[0, 0, 0]	n/a	catFR1	6	R1436J
616.203	11.776	706556	REC_WORD_VV	16.271	n/a	<>	n/a	-999	5	[0, 0, 0]	n/a	catFR1	6	R1436J
627.979	2.196	718331	REC_WORD_VV	28.047	n/a	<>	n/a	-999	5	[0, 0, 0]	n/a	catFR1	6	R1436J
630.175	2.574	720530	REC_END	n/a	n/a	n/a	n/a	-999	5	[0, 0, 0]	n/a	catFR1	6	R1436J
632.749	10.0	723106	COUNTDOWN_START	n/a	n/a	n/a	n/a	-999	6	[0, 0, 0]	n/a	catFR1	6	R1436J
643.099	0.0	733453	COUNTDOWN_END	n/a	n/a	n/a	n/a	-999	6	[0, 0, 0]	n/a	catFR1	6	R1436J
643.099	1.949	733461	ENCODING_START	n/a	n/a	n/a	n/a	-999	6	[0, 0, 0]	n/a	catFR1	6	R1436J
645.048	1.6	735410	WORD	n/a	wordpools/wordpool_categorized_EN.txt	HUMIDITY	Weather	1	6	[0, 0, 0]	n/a	catFR1	6	R1436J
646.649	0.933	737003	WORD_OFF	n/a	n/a	HUMIDITY	Weather	1	6	[0, 0, 0]	n/a	catFR1	6	R1436J
647.582	1.6	737934	WORD	n/a	wordpools/wordpool_categorized_EN.txt	FOG	Weather	2	6	[0, 0, 0]	n/a	catFR1	6	R1436J
649.182	0.984	739535	WORD_OFF	n/a	n/a	FOG	Weather	2	6	[0, 0, 0]	n/a	catFR1	6	R1436J
650.166	1.6	740518	WORD	n/a	wordpools/wordpool_categorized_EN.txt	SPRUCE	Trees	3	6	[0, 0, 0]	n/a	catFR1	6	R1436J
651.766	0.798	742120	WORD_OFF	n/a	n/a	SPRUCE	Trees	3	6	[0, 0, 0]	n/a	catFR1	6	R1436J
652.564	1.6	742920	WORD	n/a	wordpools/wordpool_categorized_EN.txt	EVERGREEN	Trees	4	6	[0, 0, 0]	n/a	catFR1	6	R1436J
654.182	0.883	744539	WORD_OFF	n/a	n/a	EVERGREEN	Trees	4	6	[0, 0, 0]	n/a	catFR1	6	R1436J
655.065	1.6	745417	WORD	n/a	wordpools/wordpool_categorized_EN.txt	MARBLES	Toys	5	6	[0, 0, 0]	n/a	catFR1	6	R1436J
656.666	0.816	747019	WORD_OFF	n/a	n/a	MARBLES	Toys	5	6	[0, 0, 0]	n/a	catFR1	6	R1436J
657.482	1.6	747837	WORD	n/a	wordpools/wordpool_categorized_EN.txt	DOLL	Toys	6	6	[0, 0, 0]	n/a	catFR1	6	R1436J
659.099	0.784	749455	WORD_OFF	n/a	n/a	DOLL	Toys	6	6	[0, 0, 0]	n/a	catFR1	6	R1436J
659.883	1.6	750238	WORD	n/a	wordpools/wordpool_categorized_EN.txt	RAIN	Weather	7	6	[0, 0, 0]	n/a	catFR1	6	R1436J
661.498	0.918	751857	WORD_OFF	n/a	n/a	RAIN	Weather	7	6	[0, 0, 0]	n/a	catFR1	6	R1436J
662.416	1.6	752770	WORD	n/a	wordpools/wordpool_categorized_EN.txt	HURRICANE	Weather	8	6	[0, 0, 0]	n/a	catFR1	6	R1436J
664.032	0.933	754389	WORD_OFF	n/a	n/a	HURRICANE	Weather	8	6	[0, 0, 0]	n/a	catFR1	6	R1436J
664.965	1.6	755320	WORD	n/a	wordpools/wordpool_categorized_EN.txt	WILLOW	Trees	9	6	[0, 0, 0]	n/a	catFR1	6	R1436J
666.581	1.001	756939	WORD_OFF	n/a	n/a	WILLOW	Trees	9	6	[0, 0, 0]	n/a	catFR1	6	R1436J
667.582	1.6	757939	WORD	n/a	wordpools/wordpool_categorized_EN.txt	OAK	Trees	10	6	[0, 0, 0]	n/a	catFR1	6	R1436J
669.199	0.882	759558	WORD_OFF	n/a	n/a	OAK	Trees	10	6	[0, 0, 0]	n/a	catFR1	6	R1436J
670.081	1.6	760437	WORD	n/a	wordpools/wordpool_categorized_EN.txt	FRISBEE	Toys	11	6	[0, 0, 0]	n/a	catFR1	6	R1436J
671.698	0.801	762055	WORD_OFF	n/a	n/a	FRISBEE	Toys	11	6	[0, 0, 0]	n/a	catFR1	6	R1436J
672.499	1.6	762856	WORD	n/a	wordpools/wordpool_categorized_EN.txt	DOLLHOUSE	Toys	12	6	[0, 0, 0]	n/a	catFR1	6	R1436J
674.116	0.002	764466	PROB	3.316	n/a	n/a	n/a	-999	6	[6, 8, 5]	19.0	catFR1	6	R1436J
674.118	0.0	764468	START	n/a	n/a	n/a	n/a	-999	6	[-999, -999, -999]	n/a	catFR1	6	R1436J
674.115	0.003	764474	WORD_OFF	n/a	n/a	DOLLHOUSE	Toys	12	6	[0, 0, 0]	n/a	catFR1	6	R1436J
674.118	0.0	764474	ENCODING_END	n/a	n/a	n/a	n/a	-999	6	[0, 0, 0]	n/a	catFR1	6	R1436J
674.118	3.331	764474	DISTRACT_START	n/a	n/a	n/a	n/a	-999	6	[0, 0, 0]	n/a	catFR1	6	R1436J
677.449	2.932	767799	PROB	2.916	n/a	n/a	n/a	-999	6	[8, 3, 4]	15.0	catFR1	6	R1436J
680.381	3.167	770731	PROB	3.15	n/a	n/a	n/a	-999	6	[7, 2, 3]	12.0	catFR1	6	R1436J
683.548	2.834	773898	PROB	2.816	n/a	n/a	n/a	-999	6	[5, 5, 8]	18.0	catFR1	6	R1436J
686.382	3.483	776732	PROB	3.465	n/a	n/a	n/a	-999	6	[2, 3, 6]	11.0	catFR1	6	R1436J
689.865	3.95	780214	PROB	3.933	n/a	n/a	n/a	-999	6	[6, 7, 2]	15.0	catFR1	6	R1436J
693.815	3.817	784164	PROB	3.8	n/a	n/a	n/a	-999	6	[5, 4, 8]	17.0	catFR1	6	R1436J
697.632	0.0	787981	STOP	n/a	n/a	n/a	n/a	-999	6	[-999, -999, -999]	n/a	catFR1	6	R1436J
697.632	2.299	787986	DISTRACT_END	n/a	n/a	n/a	n/a	-999	6	[0, 0, 0]	n/a	catFR1	6	R1436J
699.931	1.576	790283	REC_START	n/a	n/a	n/a	n/a	-999	6	[0, 0, 0]	n/a	catFR1	6	R1436J
701.507	1.836	791856	REC_WORD	1.576	n/a	FOG	Weather	2	6	[0, 0, 0]	n/a	catFR1	6	R1436J
703.343	3.16	793692	REC_WORD	3.412	n/a	HUMIDITY	Weather	1	6	[0, 0, 0]	n/a	catFR1	6	R1436J
706.503	3.087	796852	REC_WORD	6.572	n/a	THUNDERSTORM	Weather	-999	6	[0, 0, 0]	n/a	catFR1	6	R1436J
709.59	3.781	799939	REC_WORD	9.659	n/a	SPRUCE	Trees	3	6	[0, 0, 0]	n/a	catFR1	6	R1436J
713.371	6.095	803720	REC_WORD	13.44	n/a	HURRICANE	Weather	8	6	[0, 0, 0]	n/a	catFR1	6	R1436J
719.466	3.279	809814	REC_WORD_VV	19.535	n/a	<>	n/a	-999	6	[0, 0, 0]	n/a	catFR1	6	R1436J
722.745	7.416	813093	REC_WORD_VV	22.814	n/a	<>	n/a	-999	6	[0, 0, 0]	n/a	catFR1	6	R1436J
730.161	3.12	820514	REC_END	n/a	n/a	n/a	n/a	-999	6	[0, 0, 0]	n/a	catFR1	6	R1436J
733.281	10.0	823638	COUNTDOWN_START	n/a	n/a	n/a	n/a	-999	7	[0, 0, 0]	n/a	catFR1	6	R1436J
743.631	0.0	833984	COUNTDOWN_END	n/a	n/a	n/a	n/a	-999	7	[0, 0, 0]	n/a	catFR1	6	R1436J
743.631	1.866	833984	ENCODING_START	n/a	n/a	n/a	n/a	-999	7	[0, 0, 0]	n/a	catFR1	6	R1436J
745.497	1.6	835846	WORD	n/a	wordpools/wordpool_categorized_EN.txt	TRUCK	Vehicles	1	7	[0, 0, 0]	n/a	catFR1	6	R1436J
747.097	0.766	837447	WORD_OFF	n/a	n/a	TRUCK	Vehicles	1	7	[0, 0, 0]	n/a	catFR1	6	R1436J
747.863	1.6	838213	WORD	n/a	wordpools/wordpool_categorized_EN.txt	BUS	Vehicles	2	7	[0, 0, 0]	n/a	catFR1	6	R1436J
749.464	0.801	839814	WORD_OFF	n/a	n/a	BUS	Vehicles	2	7	[0, 0, 0]	n/a	catFR1	6	R1436J
750.265	1.6	840615	WORD	n/a	wordpools/wordpool_categorized_EN.txt	FOOT	BodyParts	3	7	[0, 0, 0]	n/a	catFR1	6	R1436J
751.881	0.95	842233	WORD_OFF	n/a	n/a	FOOT	BodyParts	3	7	[0, 0, 0]	n/a	catFR1	6	R1436J
752.831	1.6	843182	WORD	n/a	wordpools/wordpool_categorized_EN.txt	HAND	BodyParts	4	7	[0, 0, 0]	n/a	catFR1	6	R1436J
754.431	0.916	844783	WORD_OFF	n/a	n/a	HAND	BodyParts	4	7	[0, 0, 0]	n/a	catFR1	6	R1436J
755.347	1.6	845696	WORD	n/a	wordpools/wordpool_categorized_EN.txt	BASKETBALL	Toys	5	7	[0, 0, 0]	n/a	catFR1	6	R1436J
756.964	0.966	847315	WORD_OFF	n/a	n/a	BASKETBALL	Toys	5	7	[0, 0, 0]	n/a	catFR1	6	R1436J
757.93	1.6	848281	WORD	n/a	wordpools/wordpool_categorized_EN.txt	PUZZLE	Toys	6	7	[0, 0, 0]	n/a	catFR1	6	R1436J
759.547	0.916	849899	WORD_OFF	n/a	n/a	PUZZLE	Toys	6	7	[0, 0, 0]	n/a	catFR1	6	R1436J
760.463	1.6	850813	WORD	n/a	wordpools/wordpool_categorized_EN.txt	FINGERS	BodyParts	7	7	[0, 0, 0]	n/a	catFR1	6	R1436J
762.08	0.95	852432	WORD_OFF	n/a	n/a	FINGERS	BodyParts	7	7	[0, 0, 0]	n/a	catFR1	6	R1436J
763.03	1.6	853380	WORD	n/a	wordpools/wordpool_categorized_EN.txt	TOE	BodyParts	8	7	[0, 0, 0]	n/a	catFR1	6	R1436J
764.63	0.867	854981	WORD_OFF	n/a	n/a	TOE	BodyParts	8	7	[0, 0, 0]	n/a	catFR1	6	R1436J
765.497	1.6	855851	WORD	n/a	wordpools/wordpool_categorized_EN.txt	SLINKY	Toys	9	7	[0, 0, 0]	n/a	catFR1	6	R1436J
767.097	0.917	857444	WORD_OFF	n/a	n/a	SLINKY	Toys	9	7	[0, 0, 0]	n/a	catFR1	6	R1436J
768.014	1.6	858366	WORD	n/a	wordpools/wordpool_categorized_EN.txt	BLOCKS	Toys	10	7	[0, 0, 0]	n/a	catFR1	6	R1436J
769.631	0.899	859985	WORD_OFF	n/a	n/a	BLOCKS	Toys	10	7	[0, 0, 0]	n/a	catFR1	6	R1436J
770.53	1.6	860881	WORD	n/a	wordpools/wordpool_categorized_EN.txt	SCOOTER	Vehicles	11	7	[0, 0, 0]	n/a	catFR1	6	R1436J
772.147	0.833	862500	WORD_OFF	n/a	n/a	SCOOTER	Vehicles	11	7	[0, 0, 0]	n/a	catFR1	6	R1436J
772.98	1.6	863326	WORD	n/a	wordpools/wordpool_categorized_EN.txt	PLANE	Vehicles	12	7	[0, 0, 0]	n/a	catFR1	6	R1436J
774.598	0.0	864944	PROB	2.849	n/a	n/a	n/a	-999	7	[4, 4, 1]	9.0	catFR1	6	R1436J
774.597	0.002	864945	WORD_OFF	n/a	n/a	PLANE	Vehicles	12	7	[0, 0, 0]	n/a	catFR1	6	R1436J
774.599	0.0	864945	START	n/a	n/a	n/a	n/a	-999	7	[-999, -999, -999]	n/a	catFR1	6	R1436J
774.599	0.0	864953	ENCODING_END	n/a	n/a	n/a	n/a	-999	7	[0, 0, 0]	n/a	catFR1	6	R1436J
774.599	2.865	864953	DISTRACT_START	n/a	n/a	n/a	n/a	-999	7	[0, 0, 0]	n/a	catFR1	6	R1436J
777.464	3.402	867810	PROB	3.384	n/a	n/a	n/a	-999	7	[5, 8, 4]	17.0	catFR1	6	R1436J
780.866	3.331	871212	PROB	3.315	n/a	n/a	n/a	-999	7	[2, 1, 8]	11.0	catFR1	6	R1436J
784.197	4.935	874543	PROB	4.916	n/a	n/a	n/a	-999	7	[5, 1, 1]	7.0	catFR1	6	R1436J
789.132	3.599	879477	PROB	3.583	n/a	n/a	n/a	-999	7	[7, 4, 4]	15.0	catFR1	6	R1436J
792.731	2.6	883076	PROB	2.583	n/a	n/a	n/a	-999	7	[4, 4, 1]	9.0	catFR1	6	R1436J
795.331	0.0	885676	STOP	n/a	n/a	n/a	n/a	-999	7	[-999, -999, -999]	n/a	catFR1	6	R1436J
795.331	2.017	885681	DISTRACT_END	n/a	n/a	n/a	n/a	-999	7	[0, 0, 0]	n/a	catFR1	6	R1436J
797.348	1.235	887699	REC_START	n/a	n/a	n/a	n/a	-999	7	[0, 0, 0]	n/a	catFR1	6	R1436J
798.583	4.442	888928	REC_WORD_VV	1.235	n/a	<>	n/a	-999	7	[0, 0, 0]	n/a	catFR1	6	R1436J
803.025	2.776	893370	REC_WORD	5.677	n/a	BASKETBALL	Toys	5	7	[0, 0, 0]	n/a	catFR1	6	R1436J
805.801	1.0	896146	REC_WORD_VV	8.453	n/a	<>	n/a	-999	7	[0, 0, 0]	n/a	catFR1	6	R1436J
806.801	1.0	897146	REC_WORD_VV	9.453	n/a	<>	n/a	-999	7	[0, 0, 0]	n/a	catFR1	6	R1436J
807.801	5.685	898146	REC_WORD_VV	10.453	n/a	<>	n/a	-999	7	[0, 0, 0]	n/a	catFR1	6	R1436J
813.486	1.781	903830	REC_WORD_VV	16.138	n/a	<>	n/a	-999	7	[0, 0, 0]	n/a	catFR1	6	R1436J
815.267	2.905	905611	REC_WORD_VV	17.919	n/a	<>	n/a	-999	7	[0, 0, 0]	n/a	catFR1	6	R1436J
818.172	2.291	908516	REC_WORD	20.824	n/a	TRUCK	Vehicles	1	7	[0, 0, 0]	n/a	catFR1	6	R1436J
820.463	1.0	910807	REC_WORD_VV	23.115	n/a	<>	n/a	-999	7	[0, 0, 0]	n/a	catFR1	6	R1436J
821.463	2.945	911807	REC_WORD	24.115	n/a	FOOT	BodyParts	3	7	[0, 0, 0]	n/a	catFR1	6	R1436J
824.408	1.047	914752	REC_WORD	27.06	n/a	TOE	BodyParts	8	7	[0, 0, 0]	n/a	catFR1	6	R1436J
825.455	2.117	915799	REC_WORD_VV	28.107	n/a	<>	n/a	-999	7	[0, 0, 0]	n/a	catFR1	6	R1436J
827.572	2.96	917921	REC_END	n/a	n/a	n/a	n/a	-999	7	[0, 0, 0]	n/a	catFR1	6	R1436J
830.532	10.0	920880	COUNTDOWN_START	n/a	n/a	n/a	n/a	-999	8	[0, 0, 0]	n/a	catFR1	6	R1436J
840.883	0.0	931235	COUNTDOWN_END	n/a	n/a	n/a	n/a	-999	8	[0, 0, 0]	n/a	catFR1	6	R1436J
840.883	2.299	931235	ENCODING_START	n/a	n/a	n/a	n/a	-999	8	[0, 0, 0]	n/a	catFR1	6	R1436J
843.182	1.6	933532	WORD	n/a	wordpools/wordpool_categorized_EN.txt	CABBAGE	Vegetables	1	8	[0, 0, 0]	n/a	catFR1	6	R1436J
844.782	0.884	935133	WORD_OFF	n/a	n/a	CABBAGE	Vegetables	1	8	[0, 0, 0]	n/a	catFR1	6	R1436J
845.666	1.6	936012	WORD	n/a	wordpools/wordpool_categorized_EN.txt	CORN	Vegetables	2	8	[0, 0, 0]	n/a	catFR1	6	R1436J
847.281	0.768	937630	WORD_OFF	n/a	n/a	CORN	Vegetables	2	8	[0, 0, 0]	n/a	catFR1	6	R1436J
848.049	1.6	938396	WORD	n/a	wordpools/wordpool_categorized_EN.txt	MOSQUITO	Insects	3	8	[0, 0, 0]	n/a	catFR1	6	R1436J
849.664	0.852	940015	WORD_OFF	n/a	n/a	MOSQUITO	Insects	3	8	[0, 0, 0]	n/a	catFR1	6	R1436J
850.516	1.6	940867	WORD	n/a	wordpools/wordpool_categorized_EN.txt	MOTH	Insects	4	8	[0, 0, 0]	n/a	catFR1	6	R1436J
852.116	0.899	942460	WORD_OFF	n/a	n/a	MOTH	Insects	4	8	[0, 0, 0]	n/a	catFR1	6	R1436J
853.015	1.6	943365	WORD	n/a	wordpools/wordpool_categorized_EN.txt	SHIRT	Clothing	5	8	[0, 0, 0]	n/a	catFR1	6	R1436J
854.616	0.966	944966	WORD_OFF	n/a	n/a	SHIRT	Clothing	5	8	[0, 0, 0]	n/a	catFR1	6	R1436J
855.582	1.6	945932	WORD	n/a	wordpools/wordpool_categorized_EN.txt	SHOES	Clothing	6	8	[0, 0, 0]	n/a	catFR1	6	R1436J
857.182	0.784	947533	WORD_OFF	n/a	n/a	SHOES	Clothing	6	8	[0, 0, 0]	n/a	catFR1	6	R1436J
857.966	1.6	948316	WORD	n/a	wordpools/wordpool_categorized_EN.txt	BEE	Insects	7	8	[0, 0, 0]	n/a	catFR1	6	R1436J
859.582	0.8	949926	WORD_OFF	n/a	n/a	BEE	Insects	7	8	[0, 0, 0]	n/a	catFR1	6	R1436J
860.382	1.6	950727	WORD	n/a	wordpools/wordpool_categorized_EN.txt	BUTTERFLY	Insects	8	8	[0, 0, 0]	n/a	catFR1	6	R1436J
861.999	0.816	952345	WORD_OFF	n/a	n/a	BUTTERFLY	Insects	8	8	[0, 0, 0]	n/a	catFR1	6	R1436J
862.815	1.6	953163	WORD	n/a	wordpools/wordpool_categorized_EN.txt	COAT	Clothing	9	8	[0, 0, 0]	n/a	catFR1	6	R1436J
864.431	0.818	954782	WORD_OFF	n/a	n/a	COAT	Clothing	9	8	[0, 0, 0]	n/a	catFR1	6	R1436J
865.249	1.6	955600	WORD	n/a	wordpools/wordpool_categorized_EN.txt	SKIRT	Clothing	10	8	[0, 0, 0]	n/a	catFR1	6	R1436J
866.85	0.948	957201	WORD_OFF	n/a	n/a	SKIRT	Clothing	10	8	[0, 0, 0]	n/a	catFR1	6	R1436J
867.798	1.6	958149	WORD	n/a	wordpools/wordpool_categorized_EN.txt	CAULIFLOWER	Vegetables	11	8	[0, 0, 0]	n/a	catFR1	6	R1436J
869.399	0.932	959750	WORD_OFF	n/a	n/a	CAULIFLOWER	Vegetables	11	8	[0, 0, 0]	n/a	catFR1	6	R1436J
870.331	1.6	960681	WORD	n/a	wordpools/wordpool_categorized_EN.txt	ONION	Vegetables	12	8	[0, 0, 0]	n/a	catFR1	6	R1436J
871.948	0.001	962291	WORD_OFF	n/a	n/a	ONION	Vegetables	12	8	[0, 0, 0]	n/a	catFR1	6	R1436J
871.949	0.003	962291	PROB	3.682	n/a	n/a	n/a	-999	8	[1, 8, 1]	10.0	catFR1	6	R1436J
871.952	0.0	962294	START	n/a	n/a	n/a	n/a	-999	8	[-999, -999, -999]	n/a	catFR1	6	R1436J
871.952	0.0	962300	ENCODING_END	n/a	n/a	n/a	n/a	-999	8	[0, 0, 0]	n/a	catFR1	6	R1436J
871.952	3.697	962300	DISTRACT_START	n/a	n/a	n/a	n/a	-999	8	[0, 0, 0]	n/a	catFR1	6	R1436J
875.649	3.065	965991	PROB	3.049	n/a	n/a	n/a	-999	8	[2, 3, 8]	13.0	catFR1	6	R1436J
878.714	4.185	969056	PROB	4.167	n/a	n/a	n/a	-999	8	[6, 6, 6]	18.0	catFR1	6	R1436J
882.899	3.433	973240	PROB	3.416	n/a	n/a	n/a	-999	8	[3, 7, 5]	16.0	catFR1	6	R1436J
886.332	3.915	976673	PROB	3.899	n/a	n/a	n/a	-999	8	[1, 2, 2]	3.0	catFR1	6	R1436J
890.247	6.634	980588	PROB	6.617	n/a	n/a	n/a	-999	8	[5, 7, 4]	16.0	catFR1	6	R1436J
896.881	0.0	987222	STOP	n/a	n/a	n/a	n/a	-999	8	[-999, -999, -999]	n/a	catFR1	6	R1436J
896.881	2.284	987230	DISTRACT_END	n/a	n/a	n/a	n/a	-999	8	[0, 0, 0]	n/a	catFR1	6	R1436J
899.165	1.569	989510	REC_START	n/a	n/a	n/a	n/a	-999	8	[0, 0, 0]	n/a	catFR1	6	R1436J
900.734	2.123	991075	REC_WORD	1.569	n/a	CABBAGE	Vegetables	1	8	[0, 0, 0]	n/a	catFR1	6	R1436J
902.857	2.57	993198	REC_WORD	3.692	n/a	CORN	Vegetables	2	8	[0, 0, 0]	n/a	catFR1	6	R1436J
905.427	1.969	995768	REC_WORD	6.262	n/a	MOSQUITO	Insects	3	8	[0, 0, 0]	n/a	catFR1	6	R1436J
907.396	2.595	997736	REC_WORD	8.231	n/a	SKIRT	Clothing	10	8	[0, 0, 0]	n/a	catFR1	6	R1436J
909.991	13.792	1000331	REC_WORD	10.826	n/a	CAULIFLOWER	Vegetables	11	8	[0, 0, 0]	n/a	catFR1	6	R1436J
923.783	2.986	1014123	REC_WORD	24.618	n/a	BUTTERFLY	Insects	8	8	[0, 0, 0]	n/a	catFR1	6	R1436J
926.769	2.644	1017109	REC_WORD_VV	27.604	n/a	<>	n/a	-999	8	[0, 0, 0]	n/a	catFR1	6	R1436J
929.413	3.953	1019758	REC_END	n/a	n/a	n/a	n/a	-999	8	[0, 0, 0]	n/a	catFR1	6	R1436J
933.366	10.0	1023708	COUNTDOWN_START	n/a	n/a	n/a	n/a	-999	9	[0, 0, 0]	n/a	catFR1	6	R1436J
943.715	0.0	1034063	COUNTDOWN_END	n/a	n/a	n/a	n/a	-999	9	[0, 0, 0]	n/a	catFR1	6	R1436J
943.715	1.866	1034063	ENCODING_START	n/a	n/a	n/a	n/a	-999	9	[0, 0, 0]	n/a	catFR1	6	R1436J
945.581	1.6	1035925	WORD	n/a	wordpools/wordpool_categorized_EN.txt	DESK	Furniture	1	9	[0, 0, 0]	n/a	catFR1	6	R1436J
947.182	0.85	1037526	WORD_OFF	n/a	n/a	DESK	Furniture	1	9	[0, 0, 0]	n/a	catFR1	6	R1436J
948.032	1.6	1038379	WORD	n/a	wordpools/wordpool_categorized_EN.txt	CHAIR	Furniture	2	9	[0, 0, 0]	n/a	catFR1	6	R1436J
949.632	0.834	1039972	WORD_OFF	n/a	n/a	CHAIR	Furniture	2	9	[0, 0, 0]	n/a	catFR1	6	R1436J
950.466	1.6	1040807	WORD	n/a	wordpools/wordpool_categorized_EN.txt	IRON	Appliances	3	9	[0, 0, 0]	n/a	catFR1	6	R1436J
952.082	0.917	1042426	WORD_OFF	n/a	n/a	IRON	Appliances	3	9	[0, 0, 0]	n/a	catFR1	6	R1436J
952.999	1.6	1043339	WORD	n/a	wordpools/wordpool_categorized_EN.txt	WASHER	Appliances	4	9	[0, 0, 0]	n/a	catFR1	6	R1436J
954.599	0.95	1044940	WORD_OFF	n/a	n/a	WASHER	Appliances	4	9	[0, 0, 0]	n/a	catFR1	6	R1436J
955.549	1.6	1045889	WORD	n/a	wordpools/wordpool_categorized_EN.txt	ROACH	Insects	5	9	[0, 0, 0]	n/a	catFR1	6	R1436J
957.165	0.951	1047507	WORD_OFF	n/a	n/a	ROACH	Insects	5	9	[0, 0, 0]	n/a	catFR1	6	R1436J
958.116	1.6	1048456	WORD	n/a	wordpools/wordpool_categorized_EN.txt	ANT	Insects	6	9	[0, 0, 0]	n/a	catFR1	6	R1436J
959.732	0.817	1050074	WORD_OFF	n/a	n/a	ANT	Insects	6	9	[0, 0, 0]	n/a	catFR1	6	R1436J
960.549	1.6	1050892	WORD	n/a	wordpools/wordpool_categorized_EN.txt	TABLE	Furniture	7	9	[0, 0, 0]	n/a	catFR1	6	R1436J
962.165	0.783	1052511	WORD_OFF	n/a	n/a	TABLE	Furniture	7	9	[0, 0, 0]	n/a	catFR1	6	R1436J
962.948	1.6	1053294	WORD	n/a	wordpools/wordpool_categorized_EN.txt	BOOKCASE	Furniture	8	9	[0, 0, 0]	n/a	catFR1	6	R1436J
964.564	0.95	1054904	WORD_OFF	n/a	n/a	BOOKCASE	Furniture	8	9	[0, 0, 0]	n/a	catFR1	6	R1436J
965.514	1.6	1055852	WORD	n/a	wordpools/wordpool_categorized_EN.txt	FLY	Insects	9	9	[0, 0, 0]	n/a	catFR1	6	R1436J
967.115	0.999	1057454	WORD_OFF	n/a	n/a	FLY	Insects	9	9	[0, 0, 0]	n/a	catFR1	6	R1436J
968.114	1.6	1058454	WORD	n/a	wordpools/wordpool_categorized_EN.txt	LADYBUG	Insects	10	9	[0, 0, 0]	n/a	catFR1	6	R1436J
969.714	0.867	1060055	WORD_OFF	n/a	n/a	LADYBUG	Insects	10	9	[0, 0, 0]	n/a	catFR1	6	R1436J
970.581	1.6	1060926	WORD	n/a	wordpools/wordpool_categorized_EN.txt	STOVE	Appliances	11	9	[0, 0, 0]	n/a	catFR1	6	R1436J
972.182	0.832	1062527	WORD_OFF	n/a	n/a	STOVE	Appliances	11	9	[0, 0, 0]	n/a	catFR1	6	R1436J
973.014	1.6	1063353	WORD	n/a	wordpools/wordpool_categorized_EN.txt	BLENDER	Appliances	12	9	[0, 0, 0]	n/a	catFR1	6	R1436J
974.631	0.002	1064969	PROB	3.1	n/a	n/a	n/a	-999	9	[1, 3, 7]	11.0	catFR1	6	R1436J
974.633	0.0	1064971	START	n/a	n/a	n/a	n/a	-999	9	[-999, -999, -999]	n/a	catFR1	6	R1436J
974.63	0.003	1064972	WORD_OFF	n/a	n/a	BLENDER	Appliances	12	9	[0, 0, 0]	n/a	catFR1	6	R1436J
974.633	0.0	1064972	ENCODING_END	n/a	n/a	n/a	n/a	-999	9	[0, 0, 0]	n/a	catFR1	6	R1436J
974.633	3.115	1064981	DISTRACT_START	n/a	n/a	n/a	n/a	-999	9	[0, 0, 0]	n/a	catFR1	6	R1436J
977.748	3.033	1068086	PROB	3.016	n/a	n/a	n/a	-999	9	[3, 4, 1]	8.0	catFR1	6	R1436J
980.781	3.033	1071118	PROB	3.018	n/a	n/a	n/a	-999	9	[6, 1, 2]	9.0	catFR1	6	R1436J
983.814	3.051	1074151	PROB	3.034	n/a	n/a	n/a	-999	9	[2, 3, 3]	8.0	catFR1	6	R1436J
986.865	3.15	1077202	PROB	3.133	n/a	n/a	n/a	-999	9	[6, 2, 3]	12.0	catFR1	6	R1436J
990.015	5.65	1080352	PROB	5.632	n/a	n/a	n/a	-999	9	[5, 8, 2]	15.0	catFR1	6	R1436J
995.665	0.0	1086002	STOP	n/a	n/a	n/a	n/a	-999	9	[-999, -999, -999]	n/a	catFR1	6	R1436J
995.665	2.349	1086004	DISTRACT_END	n/a	n/a	n/a	n/a	-999	9	[0, 0, 0]	n/a	catFR1	6	R1436J
998.014	1.435	1088353	REC_START	n/a	n/a	n/a	n/a	-999	9	[0, 0, 0]	n/a	catFR1	6	R1436J
999.449	2.16	1089786	REC_WORD	1.435	n/a	BLENDER	Appliances	12	9	[0, 0, 0]	n/a	catFR1	6	R1436J
1001.609	1.0	1091946	REC_WORD_VV	3.595	n/a	<>	n/a	-999	9	[0, 0, 0]	n/a	catFR1	6	R1436J
1002.609	3.102	1092946	REC_WORD_VV	4.595	n/a	<>	n/a	-999	9	[0, 0, 0]	n/a	catFR1	6	R1436J
1005.711	5.11	1096047	REC_WORD_VV	7.697	n/a	<>	n/a	-999	9	[0, 0, 0]	n/a	catFR1	6	R1436J
1010.821	1.355	1101157	REC_WORD_VV	12.807	n/a	<>	n/a	-999	9	[0, 0, 0]	n/a	catFR1	6	R1436J
1012.176	11.73	1102512	REC_WORD_VV	14.162	n/a	<>	n/a	-999	9	[0, 0, 0]	n/a	catFR1	6	R1436J
1023.906	1.366	1114242	REC_WORD_VV	25.892	n/a	<>	n/a	-999	9	[0, 0, 0]	n/a	catFR1	6	R1436J
1025.272	1.962	1115608	REC_WORD	27.258	n/a	CAT	n/a	-999	9	[0, 0, 0]	n/a	catFR1	6	R1436J
1027.234	0.991	1117569	REC_WORD_VV	29.22	n/a	<>	n/a	-999	9	[0, 0, 0]	n/a	catFR1	6	R1436J
1028.225	3.424	1118566	REC_END	n/a	n/a	n/a	n/a	-999	9	[0, 0, 0]	n/a	catFR1	6	R1436J
1031.649	10.0	1121994	COUNTDOWN_START	n/a	n/a	n/a	n/a	-999	10	[0, 0, 0]	n/a	catFR1	6	R1436J
1041.997	0.0	1132332	COUNTDOWN_END	n/a	n/a	n/a	n/a	-999	10	[0, 0, 0]	n/a	catFR1	6	R1436J
1041.997	2.284	1132341	ENCODING_START	n/a	n/a	n/a	n/a	-999	10	[0, 0, 0]	n/a	catFR1	6	R1436J
1044.281	1.6	1134621	WORD	n/a	wordpools/wordpool_categorized_EN.txt	OVEN	Appliances	1	10	[0, 0, 0]	n/a	catFR1	6	R1436J
1045.882	0.867	1136222	WORD_OFF	n/a	n/a	OVEN	Appliances	1	10	[0, 0, 0]	n/a	catFR1	6	R1436J
1046.749	1.6	1137092	WORD	n/a	wordpools/wordpool_categorized_EN.txt	DISHWASHER	Appliances	2	10	[0, 0, 0]	n/a	catFR1	6	R1436J
1048.366	0.949	1138702	WORD_OFF	n/a	n/a	DISHWASHER	Appliances	2	10	[0, 0, 0]	n/a	catFR1	6	R1436J
1049.315	1.6	1139659	WORD	n/a	wordpools/wordpool_categorized_EN.txt	WIND	Weather	3	10	[0, 0, 0]	n/a	catFR1	6	R1436J
1050.916	0.865	1141251	WORD_OFF	n/a	n/a	WIND	Weather	3	10	[0, 0, 0]	n/a	catFR1	6	R1436J
1051.781	1.6	1142122	WORD	n/a	wordpools/wordpool_categorized_EN.txt	SNOW	Weather	4	10	[0, 0, 0]	n/a	catFR1	6	R1436J
1053.382	0.883	1143723	WORD_OFF	n/a	n/a	SNOW	Weather	4	10	[0, 0, 0]	n/a	catFR1	6	R1436J
1054.265	1.6	1144602	WORD	n/a	wordpools/wordpool_categorized_EN.txt	CABINET	Furniture	5	10	[0, 0, 0]	n/a	catFR1	6	R1436J
1055.865	0.95	1146203	WORD_OFF	n/a	n/a	CABINET	Furniture	5	10	[0, 0, 0]	n/a	catFR1	6	R1436J
1056.815	1.6	1147151	WORD	n/a	wordpools/wordpool_categorized_EN.txt	DRESSER	Furniture	6	10	[0, 0, 0]	n/a	catFR1	6	R1436J
1058.416	0.883	1148752	WORD_OFF	n/a	n/a	DRESSER	Furniture	6	10	[0, 0, 0]	n/a	catFR1	6	R1436J
1059.299	1.6	1149640	WORD	n/a	wordpools/wordpool_categorized_EN.txt	DRYER	Appliances	7	10	[0, 0, 0]	n/a	catFR1	6	R1436J
1060.915	0.866	1151258	WORD_OFF	n/a	n/a	DRYER	Appliances	7	10	[0, 0, 0]	n/a	catFR1	6	R1436J
1061.781	1.6	1152120	WORD	n/a	wordpools/wordpool_categorized_EN.txt	TOASTER	Appliances	8	10	[0, 0, 0]	n/a	catFR1	6	R1436J
1063.382	0.983	1153721	WORD_OFF	n/a	n/a	TOASTER	Appliances	8	10	[0, 0, 0]	n/a	catFR1	6	R1436J
1064.365	1.6	1154704	WORD	n/a	wordpools/wordpool_categorized_EN.txt	LIGHTNING	Weather	9	10	[0, 0, 0]	n/a	catFR1	6	R1436J
1065.982	0.95	1156323	WORD_OFF	n/a	n/a	LIGHTNING	Weather	9	10	[0, 0, 0]	n/a	catFR1	6	R1436J
1066.932	1.6	1157271	WORD	n/a	wordpools/wordpool_categorized_EN.txt	TORNADO	Weather	10	10	[0, 0, 0]	n/a	catFR1	6	R1436J
1068.532	0.816	1158872	WORD_OFF	n/a	n/a	TORNADO	Weather	10	10	[0, 0, 0]	n/a	catFR1	6	R1436J
1069.348	1.6	1159690	WORD	n/a	wordpools/wordpool_categorized_EN.txt	NIGHTSTAND	Furniture	11	10	[0, 0, 0]	n/a	catFR1	6	R1436J
1070.964	0.935	1161300	WORD_OFF	n/a	n/a	NIGHTSTAND	Furniture	11	10	[0, 0, 0]	n/a	catFR1	6	R1436J
1071.899	1.6	1162240	WORD	n/a	wordpools/wordpool_categorized_EN.txt	RECLINER	Furniture	12	10	[0, 0, 0]	n/a	catFR1	6	R1436J
1073.515	0.001	1163849	PROB	3.799	n/a	n/a	n/a	-999	10	[8, 6, 6]	20.0	catFR1	6	R1436J
1073.516	0.0	1163850	START	n/a	n/a	n/a	n/a	-999	10	[-999, -999, -999]	n/a	catFR1	6	R1436J
1073.514	0.002	1163858	WORD_OFF	n/a	n/a	RECLINER	Furniture	12	10	[0, 0, 0]	n/a	catFR1	6	R1436J
1073.516	0.0	1163858	ENCODING_END	n/a	n/a	n/a	n/a	-999	10	[0, 0, 0]	n/a	catFR1	6	R1436J
1073.516	3.816	1163858	DISTRACT_START	n/a	n/a	n/a	n/a	-999	10	[0, 0, 0]	n/a	catFR1	6	R1436J
1077.332	3.616	1167665	PROB	3.599	n/a	n/a	n/a	-999	10	[3, 8, 7]	18.0	catFR1	6	R1436J
1080.948	3.234	1171281	PROB	3.216	n/a	n/a	n/a	-999	10	[7, 7, 3]	17.0	catFR1	6	R1436J
1084.182	3.617	1174515	PROB	3.599	n/a	n/a	n/a	-999	10	[8, 8, 2]	18.0	catFR1	6	R1436J
1087.799	4.599	1178132	PROB	4.582	n/a	n/a	n/a	-999	10	[6, 5, 4]	15.0	catFR1	6	R1436J
1092.398	2.7	1182731	PROB	2.684	n/a	n/a	n/a	-999	10	[2, 5, 2]	9.0	catFR1	6	R1436J
1095.098	0.0	1185431	STOP	n/a	n/a	n/a	n/a	-999	10	[-999, -999, -999]	n/a	catFR1	6	R1436J
1095.098	2.284	1185439	DISTRACT_END	n/a	n/a	n/a	n/a	-999	10	[0, 0, 0]	n/a	catFR1	6	R1436J
1097.382	0.842	1187718	REC_START	n/a	n/a	n/a	n/a	-999	10	[0, 0, 0]	n/a	catFR1	6	R1436J
1098.224	1.808	1188557	REC_WORD	0.842	n/a	LIGHTNING	Weather	9	10	[0, 0, 0]	n/a	catFR1	6	R1436J
1100.032	2.085	1190364	REC_WORD	2.65	n/a	TORNADO	Weather	10	10	[0, 0, 0]	n/a	catFR1	6	R1436J
1102.117	2.18	1192449	REC_WORD	4.735	n/a	OVEN	Appliances	1	10	[0, 0, 0]	n/a	catFR1	6	R1436J
1104.297	2.355	1194629	REC_WORD	6.915	n/a	DRYER	Appliances	7	10	[0, 0, 0]	n/a	catFR1	6	R1436J
1106.652	1.961	1196984	REC_WORD	9.27	n/a	IRON	Appliances	-999	10	[0, 0, 0]	n/a	catFR1	6	R1436J
1108.613	2.485	1198945	REC_WORD_VV	11.231	n/a	<>	n/a	-999	10	[0, 0, 0]	n/a	catFR1	6	R1436J
1111.098	6.824	1201430	REC_WORD_VV	13.716	n/a	<>	n/a	-999	10	[0, 0, 0]	n/a	catFR1	6	R1436J
1117.922	2.078	1208254	REC_WORD_VV	20.54	n/a	<>	n/a	-999	10	[0, 0, 0]	n/a	catFR1	6	R1436J
1120.0	3.221	1210332	REC_WORD	22.618	n/a	EYE	n/a	-999	10	[0, 0, 0]	n/a	catFR1	6	R1436J
1123.221	2.933	1213552	REC_WORD	25.839	n/a	LIGHTNING	Weather	9	10	[0, 0, 0]	n/a	catFR1	6	R1436J
1126.154	1.465	1216485	REC_WORD_VV	28.772	n/a	<>	n/a	-999	10	[0, 0, 0]	n/a	catFR1	6	R1436J
1127.619	3.047	1217957	REC_END	n/a	n/a	n/a	n/a	-999	10	[0, 0, 0]	n/a	catFR1	6	R1436J
1130.666	10.0	1221003	COUNTDOWN_START	n/a	n/a	n/a	n/a	-999	11	[0, 0, 0]	n/a	catFR1	6	R1436J
1141.015	0.0	1231349	COUNTDOWN_END	n/a	n/a	n/a	n/a	-999	11	[0, 0, 0]	n/a	catFR1	6	R1436J
1141.015	2.267	1231349	ENCODING_START	n/a	n/a	n/a	n/a	-999	11	[0, 0, 0]	n/a	catFR1	6	R1436J
1143.282	1.6	1233620	WORD	n/a	wordpools/wordpool_categorized_EN.txt	JEEP	Vehicles	1	11	[0, 0, 0]	n/a	catFR1	6	R1436J
1144.882	0.966	1235222	WORD_OFF	n/a	n/a	JEEP	Vehicles	1	11	[0, 0, 0]	n/a	catFR1	6	R1436J
1145.848	1.6	1236187	WORD	n/a	wordpools/wordpool_categorized_EN.txt	VAN	Vehicles	2	11	[0, 0, 0]	n/a	catFR1	6	R1436J
1147.449	0.783	1237789	WORD_OFF	n/a	n/a	VAN	Vehicles	2	11	[0, 0, 0]	n/a	catFR1	6	R1436J
1148.232	1.6	1238563	WORD	n/a	wordpools/wordpool_categorized_EN.txt	NOSE	BodyParts	3	11	[0, 0, 0]	n/a	catFR1	6	R1436J
1149.832	0.883	1240164	WORD_OFF	n/a	n/a	NOSE	BodyParts	3	11	[0, 0, 0]	n/a	catFR1	6	R1436J
1150.715	1.6	1241052	WORD	n/a	wordpools/wordpool_categorized_EN.txt	EAR	BodyParts	4	11	[0, 0, 0]	n/a	catFR1	6	R1436J
1152.315	0.866	1242653	WORD_OFF	n/a	n/a	EAR	BodyParts	4	11	[0, 0, 0]	n/a	catFR1	6	R1436J
1153.181	1.6	1243514	WORD	n/a	wordpools/wordpool_categorized_EN.txt	MIXER	Appliances	5	11	[0, 0, 0]	n/a	catFR1	6	R1436J
1154.799	0.766	1245133	WORD_OFF	n/a	n/a	MIXER	Appliances	5	11	[0, 0, 0]	n/a	catFR1	6	R1436J
1155.565	1.6	1245899	WORD	n/a	wordpools/wordpool_categorized_EN.txt	REFRIGERATOR	Appliances	6	11	[0, 0, 0]	n/a	catFR1	6	R1436J
1157.165	0.916	1247500	WORD_OFF	n/a	n/a	REFRIGERATOR	Appliances	6	11	[0, 0, 0]	n/a	catFR1	6	R1436J
1158.081	1.6	1248413	WORD	n/a	wordpools/wordpool_categorized_EN.txt	ELBOW	BodyParts	7	11	[0, 0, 0]	n/a	catFR1	6	R1436J
1159.681	0.984	1250015	WORD_OFF	n/a	n/a	ELBOW	BodyParts	7	11	[0, 0, 0]	n/a	catFR1	6	R1436J
1160.665	1.6	1250998	WORD	n/a	wordpools/wordpool_categorized_EN.txt	HEAD	BodyParts	8	11	[0, 0, 0]	n/a	catFR1	6	R1436J
1162.281	0.951	1252616	WORD_OFF	n/a	n/a	HEAD	BodyParts	8	11	[0, 0, 0]	n/a	catFR1	6	R1436J
1163.232	1.6	1253565	WORD	n/a	wordpools/wordpool_categorized_EN.txt	CAR	Vehicles	9	11	[0, 0, 0]	n/a	catFR1	6	R1436J
1164.832	0.982	1255166	WORD_OFF	n/a	n/a	CAR	Vehicles	9	11	[0, 0, 0]	n/a	catFR1	6	R1436J
1165.814	1.6	1256149	WORD	n/a	wordpools/wordpool_categorized_EN.txt	TRAIN	Vehicles	10	11	[0, 0, 0]	n/a	catFR1	6	R1436J
1167.415	0.95	1257750	WORD_OFF	n/a	n/a	TRAIN	Vehicles	10	11	[0, 0, 0]	n/a	catFR1	6	R1436J
1168.365	1.6	1258699	WORD	n/a	wordpools/wordpool_categorized_EN.txt	VACUUM	Appliances	11	11	[0, 0, 0]	n/a	catFR1	6	R1436J
1169.966	0.848	1260300	WORD_OFF	n/a	n/a	VACUUM	Appliances	11	11	[0, 0, 0]	n/a	catFR1	6	R1436J
1170.814	1.6	1261144	WORD	n/a	wordpools/wordpool_categorized_EN.txt	FREEZER	Appliances	12	11	[0, 0, 0]	n/a	catFR1	6	R1436J
1172.415	0.004	1262744	PROB	4.482	n/a	n/a	n/a	-999	11	[3, 6, 6]	15.0	catFR1	6	R1436J
1172.419	0.0	1262748	START	n/a	n/a	n/a	n/a	-999	11	[-999, -999, -999]	n/a	catFR1	6	R1436J
1172.415	0.004	1262754	WORD_OFF	n/a	n/a	FREEZER	Appliances	12	11	[0, 0, 0]	n/a	catFR1	6	R1436J
1172.419	0.0	1262754	ENCODING_END	n/a	n/a	n/a	n/a	-999	11	[0, 0, 0]	n/a	catFR1	6	R1436J
1172.419	4.496	1262754	DISTRACT_START	n/a	n/a	n/a	n/a	-999	11	[0, 0, 0]	n/a	catFR1	6	R1436J
1176.915	3.767	1267244	PROB	3.75	n/a	n/a	n/a	-999	11	[3, 1, 6]	10.0	catFR1	6	R1436J
1180.682	3.75	1271011	PROB	3.732	n/a	n/a	n/a	-999	11	[6, 3, 8]	17.0	catFR1	6	R1436J
1184.432	3.5	1274761	PROB	3.482	n/a	n/a	n/a	-999	11	[5, 4, 6]	15.0	catFR1	6	R1436J
1187.932	4.116	1278261	PROB	4.099	n/a	n/a	n/a	-999	11	[2, 5, 3]	10.0	catFR1	6	R1436J
1192.048	5.165	1282377	PROB	5.148	n/a	n/a	n/a	-999	11	[2, 8, 5]	15.0	catFR1	6	R1436J
1197.213	0.0	1287541	STOP	n/a	n/a	n/a	n/a	-999	11	[-999, -999, -999]	n/a	catFR1	6	R1436J
1197.213	2.085	1287545	DISTRACT_END	n/a	n/a	n/a	n/a	-999	11	[0, 0, 0]	n/a	catFR1	6	R1436J
1199.298	1.13	1289633	REC_START	n/a	n/a	n/a	n/a	-999	11	[0, 0, 0]	n/a	catFR1	6	R1436J
1200.428	1.734	1290756	REC_WORD	1.13	n/a	JEEP	Vehicles	1	11	[0, 0, 0]	n/a	catFR1	6	R1436J
1202.162	1.98	1292490	REC_WORD	2.864	n/a	VAN	Vehicles	2	11	[0, 0, 0]	n/a	catFR1	6	R1436J
1204.142	2.145	1294470	REC_WORD	4.844	n/a	ELBOW	BodyParts	7	11	[0, 0, 0]	n/a	catFR1	6	R1436J
1206.287	2.639	1296615	REC_WORD	6.989	n/a	CAR	Vehicles	9	11	[0, 0, 0]	n/a	catFR1	6	R1436J
1208.926	4.775	1299254	REC_WORD	9.628	n/a	MIXER	Appliances	5	11	[0, 0, 0]	n/a	catFR1	6	R1436J
1213.701	9.329	1304029	REC_WORD	14.403	n/a	BLENDER	Appliances	-999	11	[0, 0, 0]	n/a	catFR1	6	R1436J
1223.03	2.315	1313357	REC_WORD	23.732	n/a	FREEZER	Appliances	12	11	[0, 0, 0]	n/a	catFR1	6	R1436J
1225.345	4.178	1315672	REC_WORD_VV	26.047	n/a	<>	n/a	-999	11	[0, 0, 0]	n/a	catFR1	6	R1436J
1229.523	3.41	1319855	REC_END	n/a	n/a	n/a	n/a	-999	11	[0, 0, 0]	n/a	catFR1	6	R1436J
1232.933	10.0	1323266	COUNTDOWN_START	n/a	n/a	n/a	n/a	-999	12	[0, 0, 0]	n/a	catFR1	6	R1436J
1243.282	0.0	1333612	COUNTDOWN_END	n/a	n/a	n/a	n/a	-999	12	[0, 0, 0]	n/a	catFR1	6	R1436J
1243.282	2.149	1333612	ENCODING_START	n/a	n/a	n/a	n/a	-999	12	[0, 0, 0]	n/a	catFR1	6	R1436J
1245.431	1.6	1335762	WORD	n/a	wordpools/wordpool_categorized_EN.txt	FUDGE	Desserts	1	12	[0, 0, 0]	n/a	catFR1	6	R1436J
1247.032	0.95	1337363	WORD_OFF	n/a	n/a	FUDGE	Desserts	1	12	[0, 0, 0]	n/a	catFR1	6	R1436J
1247.982	1.6	1338311	WORD	n/a	wordpools/wordpool_categorized_EN.txt	BROWNIES	Desserts	2	12	[0, 0, 0]	n/a	catFR1	6	R1436J
1249.582	0.783	1339912	WORD_OFF	n/a	n/a	BROWNIES	Desserts	2	12	[0, 0, 0]	n/a	catFR1	6	R1436J
1250.365	1.6	1340695	WORD	n/a	wordpools/wordpool_categorized_EN.txt	MOPED	Vehicles	3	12	[0, 0, 0]	n/a	catFR1	6	R1436J
1251.982	0.999	1342314	WORD_OFF	n/a	n/a	MOPED	Vehicles	3	12	[0, 0, 0]	n/a	catFR1	6	R1436J
1252.981	1.6	1343315	WORD	n/a	wordpools/wordpool_categorized_EN.txt	MOTORCYCLE	Vehicles	4	12	[0, 0, 0]	n/a	catFR1	6	R1436J
1254.581	0.982	1344916	WORD_OFF	n/a	n/a	MOTORCYCLE	Vehicles	4	12	[0, 0, 0]	n/a	catFR1	6	R1436J
1255.563	1.6	1345890	WORD	n/a	wordpools/wordpool_categorized_EN.txt	PENCIL	OfficeSupplies	5	12	[0, 0, 0]	n/a	catFR1	6	R1436J
1257.167	0.797	1347500	WORD_OFF	n/a	n/a	PENCIL	OfficeSupplies	5	12	[0, 0, 0]	n/a	catFR1	6	R1436J
1257.964	1.6	1348292	WORD	n/a	wordpools/wordpool_categorized_EN.txt	GLUE	OfficeSupplies	6	12	[0, 0, 0]	n/a	catFR1	6	R1436J
1259.564	0.851	1349893	WORD_OFF	n/a	n/a	GLUE	OfficeSupplies	6	12	[0, 0, 0]	n/a	catFR1	6	R1436J
1260.415	1.6	1350746	WORD	n/a	wordpools/wordpool_categorized_EN.txt	BIKE	Vehicles	7	12	[0, 0, 0]	n/a	catFR1	6	R1436J
1262.014	0.884	1352347	WORD_OFF	n/a	n/a	BIKE	Vehicles	7	12	[0, 0, 0]	n/a	catFR1	6	R1436J
1262.898	1.6	1353226	WORD	n/a	wordpools/wordpool_categorized_EN.txt	BOAT	Vehicles	8	12	[0, 0, 0]	n/a	catFR1	6	R1436J
1264.514	0.833	1354844	WORD_OFF	n/a	n/a	BOAT	Vehicles	8	12	[0, 0, 0]	n/a	catFR1	6	R1436J
1265.347	1.6	1355680	WORD	n/a	wordpools/wordpool_categorized_EN.txt	ERASER	OfficeSupplies	9	12	[0, 0, 0]	n/a	catFR1	6	R1436J
1266.948	0.851	1357281	WORD_OFF	n/a	n/a	ERASER	OfficeSupplies	9	12	[0, 0, 0]	n/a	catFR1	6	R1436J
1267.799	1.6	1358125	WORD	n/a	wordpools/wordpool_categorized_EN.txt	STAPLER	OfficeSupplies	10	12	[0, 0, 0]	n/a	catFR1	6	R1436J
1269.415	0.983	1359744	WORD_OFF	n/a	n/a	STAPLER	OfficeSupplies	10	12	[0, 0, 0]	n/a	catFR1	6	R1436J
1270.398	1.6	1360727	WORD	n/a	wordpools/wordpool_categorized_EN.txt	MOUSSE	Desserts	11	12	[0, 0, 0]	n/a	catFR1	6	R1436J
1271.999	0.815	1362328	WORD_OFF	n/a	n/a	MOUSSE	Desserts	11	12	[0, 0, 0]	n/a	catFR1	6	R1436J
1272.814	1.6	1363146	WORD	n/a	wordpools/wordpool_categorized_EN.txt	JELLO	Desserts	12	12	[0, 0, 0]	n/a	catFR1	6	R1436J
1274.431	0.002	1364756	PROB	3.917	n/a	n/a	n/a	-999	12	[8, 8, 6]	22.0	catFR1	6	R1436J
1274.433	0.0	1364758	START	n/a	n/a	n/a	n/a	-999	12	[-999, -999, -999]	n/a	catFR1	6	R1436J
1274.43	0.003	1364764	WORD_OFF	n/a	n/a	JELLO	Desserts	12	12	[0, 0, 0]	n/a	catFR1	6	R1436J
1274.433	0.0	1364764	ENCODING_END	n/a	n/a	n/a	n/a	-999	12	[0, 0, 0]	n/a	catFR1	6	R1436J
1274.433	3.931	1364764	DISTRACT_START	n/a	n/a	n/a	n/a	-999	12	[0, 0, 0]	n/a	catFR1	6	R1436J
1278.364	3.334	1368689	PROB	3.316	n/a	n/a	n/a	-999	12	[1, 3, 3]	7.0	catFR1	6	R1436J
1281.698	3.5	1372023	PROB	3.483	n/a	n/a	n/a	-999	12	[8, 3, 7]	18.0	catFR1	6	R1436J
1285.198	3.4	1375523	PROB	3.383	n/a	n/a	n/a	-999	12	[5, 7, 4]	16.0	catFR1	6	R1436J
1288.598	4.201	1378923	PROB	4.183	n/a	n/a	n/a	-999	12	[5, 8, 7]	20.0	catFR1	6	R1436J
1292.799	3.882	1383123	PROB	3.867	n/a	n/a	n/a	-999	12	[4, 1, 4]	9.0	catFR1	6	R1436J
1296.681	0.0	1387005	STOP	n/a	n/a	n/a	n/a	-999	12	[-999, -999, -999]	n/a	catFR1	6	R1436J
1296.681	2.017	1387015	DISTRACT_END	n/a	n/a	n/a	n/a	-999	12	[0, 0, 0]	n/a	catFR1	6	R1436J
1298.698	1.095	1389024	REC_START	n/a	n/a	n/a	n/a	-999	12	[0, 0, 0]	n/a	catFR1	6	R1436J
1299.793	2.355	1390117	REC_WORD	1.095	n/a	FUDGE	Desserts	1	12	[0, 0, 0]	n/a	catFR1	6	R1436J
1302.148	2.689	1392472	REC_WORD	3.45	n/a	BROWNIES	Desserts	2	12	[0, 0, 0]	n/a	catFR1	6	R1436J
1304.837	3.058	1395161	REC_WORD_VV	6.139	n/a	<>	n/a	-999	12	[0, 0, 0]	n/a	catFR1	6	R1436J
1307.895	2.682	1398219	REC_WORD_VV	9.197	n/a	<>	n/a	-999	12	[0, 0, 0]	n/a	catFR1	6	R1436J
1310.577	3.63	1400901	REC_WORD_VV	11.879	n/a	<>	n/a	-999	12	[0, 0, 0]	n/a	catFR1	6	R1436J
1314.207	2.365	1404531	REC_WORD_VV	15.509	n/a	<>	n/a	-999	12	[0, 0, 0]	n/a	catFR1	6	R1436J
1316.572	7.627	1406895	REC_WORD_VV	17.874	n/a	<>	n/a	-999	12	[0, 0, 0]	n/a	catFR1	6	R1436J
1324.199	4.728	1414522	REC_WORD_VV	25.501	n/a	<>	n/a	-999	12	[0, 0, 0]	n/a	catFR1	6	R1436J
1328.927	0.0	1419255	REC_END	n/a	n/a	n/a	n/a	-999	12	[0, 0, 0]	n/a	catFR1	6	R1436J
