onset	duration	sample	trial_type	response_time	stim_file	item_name	category	serialpos	list	test	answer	experiment	session	subject
0.0	17.221	75725	SESS_START	n/a	n/a	n/a	n/a	-999	-999	[0, 0, 0]	n/a	catFR1	0	R1075J
17.221	10.428	92947	COUNTDOWN_START	n/a	n/a	n/a	n/a	-999	-999	[0, 0, 0]	n/a	catFR1	0	R1075J
27.649	3.574	103375	COUNTDOWN_END	n/a	n/a	n/a	n/a	-999	-999	[0, 0, 0]	n/a	catFR1	0	R1075J
31.223	2.382	106949	PRACTICE_WORD	n/a	n/a	RING	n/a	-999	-999	[0, 0, 0]	n/a	catFR1	0	R1075J
33.605	2.569	109331	PRACTICE_WORD	n/a	n/a	BEAM	n/a	-999	-999	[0, 0, 0]	n/a	catFR1	0	R1075J
36.174	2.466	111901	PRACTICE_WORD	n/a	n/a	CHEST	n/a	-999	-999	[0, 0, 0]	n/a	catFR1	0	R1075J
38.64	2.535	114367	PRACTICE_WORD	n/a	n/a	COTTON	n/a	-999	-999	[0, 0, 0]	n/a	catFR1	0	R1075J
41.175	2.532	116902	PRACTICE_WORD	n/a	n/a	ATTIC	n/a	-999	-999	[0, 0, 0]	n/a	catFR1	0	R1075J
43.707	2.618	119434	PRACTICE_WORD	n/a	n/a	WAGON	n/a	-999	-999	[0, 0, 0]	n/a	catFR1	0	R1075J
46.325	2.567	122052	PRACTICE_WORD	n/a	n/a	CAMEL	n/a	-999	-999	[0, 0, 0]	n/a	catFR1	0	R1075J
48.892	2.517	124619	PRACTICE_WORD	n/a	n/a	FLOOD	n/a	-999	-999	[0, 0, 0]	n/a	catFR1	0	R1075J
51.409	2.533	127136	PRACTICE_WORD	n/a	n/a	WATCH	n/a	-999	-999	[0, 0, 0]	n/a	catFR1	0	R1075J
53.942	2.468	129669	PRACTICE_WORD	n/a	n/a	TONGUE	n/a	-999	-999	[0, 0, 0]	n/a	catFR1	0	R1075J
56.41	2.433	132137	PRACTICE_WORD	n/a	n/a	RHINO	n/a	-999	-999	[0, 0, 0]	n/a	catFR1	0	R1075J
58.843	1.617	134570	PRACTICE_WORD	n/a	n/a	IRON	n/a	-999	-999	[0, 0, 0]	n/a	catFR1	0	R1075J
60.46	0.001	136187	PRACTICE_DISTRACT_START	n/a	n/a	n/a	n/a	-999	-999	[0, 0, 0]	n/a	catFR1	0	R1075J
60.461	0.016	136188	START	n/a	n/a	n/a	n/a	-999	-1	[-999, -999, -999]	n/a	catFR1	0	R1075J
60.477	7.951	136204	PROB	7.951	n/a	n/a	n/a	-999	-1	[2, 3, 7]	12	catFR1	0	R1075J
68.428	3.199	144155	PROB	3.199	n/a	n/a	n/a	-999	-1	[8, 9, 5]	22	catFR1	0	R1075J
71.627	2.468	147355	PROB	2.468	n/a	n/a	n/a	-999	-1	[5, 5, 1]	11	catFR1	0	R1075J
74.095	4.666	149823	PROB	4.666	n/a	n/a	n/a	-999	-1	[8, 6, 9]	23	catFR1	0	R1075J
78.761	3.385	154489	PROB	3.385	n/a	n/a	n/a	-999	-1	[6, 4, 6]	16	catFR1	0	R1075J
82.146	0.016	157874	STOP	n/a	n/a	n/a	n/a	-999	-1	[-999, -999, -999]	n/a	catFR1	0	R1075J
82.162	0.569	157890	PRACTICE_DISTRACT_END	n/a	n/a	n/a	n/a	-999	-999	[0, 0, 0]	n/a	catFR1	0	R1075J
82.731	30.515	158459	PRACTICE_REC_START	n/a	n/a	n/a	n/a	-999	-999	[0, 0, 0]	n/a	catFR1	0	R1075J
113.246	7.888	188975	PRACTICE_REC_END	n/a	n/a	n/a	n/a	-999	-999	[0, 0, 0]	n/a	catFR1	0	R1075J
121.134	0.001	196863	COUNTDOWN_START	n/a	n/a	n/a	n/a	-999	1	[0, 0, 0]	n/a	catFR1	0	R1075J
121.135	10.427	196864	TRIAL	n/a	n/a	n/a	n/a	-999	1	[0, 0, 0]	n/a	catFR1	0	R1075J
131.562	0.006	207291	COUNTDOWN_END	n/a	n/a	n/a	n/a	-999	1	[0, 0, 0]	n/a	catFR1	0	R1075J
131.568	4.0	207297	ORIENT	n/a	n/a	n/a	n/a	-999	1	[0, 0, 0]	n/a	catFR1	0	R1075J
135.568	2.418	211297	WORD	n/a	wordpools/wordpool_categorized_EN.txt	STAIRS	Building	1	1	[0, 0, 0]	n/a	catFR1	0	R1075J
137.986	2.616	213716	WORD	n/a	wordpools/wordpool_categorized_EN.txt	BATHROOM	Building	2	1	[0, 0, 0]	n/a	catFR1	0	R1075J
140.602	2.435	216332	WORD	n/a	wordpools/wordpool_categorized_EN.txt	SPARROW	Birds	3	1	[0, 0, 0]	n/a	catFR1	0	R1075J
143.037	2.482	218767	WORD	n/a	wordpools/wordpool_categorized_EN.txt	FINCH	Birds	4	1	[0, 0, 0]	n/a	catFR1	0	R1075J
145.519	2.485	221249	WORD	n/a	wordpools/wordpool_categorized_EN.txt	ONION	Vegetables	5	1	[0, 0, 0]	n/a	catFR1	0	R1075J
148.004	2.401	223734	WORD	n/a	wordpools/wordpool_categorized_EN.txt	BROCCOLI	Vegetables	6	1	[0, 0, 0]	n/a	catFR1	0	R1075J
150.405	2.6	226135	WORD	n/a	wordpools/wordpool_categorized_EN.txt	ROOM	Building	7	1	[0, 0, 0]	n/a	catFR1	0	R1075J
153.005	2.483	228735	WORD	n/a	wordpools/wordpool_categorized_EN.txt	CEILING	Building	8	1	[0, 0, 0]	n/a	catFR1	0	R1075J
155.488	2.384	231218	WORD	n/a	wordpools/wordpool_categorized_EN.txt	CORN	Vegetables	9	1	[0, 0, 0]	n/a	catFR1	0	R1075J
157.872	2.5	233602	WORD	n/a	wordpools/wordpool_categorized_EN.txt	CELERY	Vegetables	10	1	[0, 0, 0]	n/a	catFR1	0	R1075J
160.372	2.501	236102	WORD	n/a	wordpools/wordpool_categorized_EN.txt	PIGEON	Birds	11	1	[0, 0, 0]	n/a	catFR1	0	R1075J
162.873	1.616	238603	WORD	n/a	wordpools/wordpool_categorized_EN.txt	ROBIN	Birds	12	1	[0, 0, 0]	n/a	catFR1	0	R1075J
164.489	0.001	240219	DISTRACT_START	n/a	n/a	n/a	n/a	-999	1	[0, 0, 0]	n/a	catFR1	0	R1075J
164.49	0.016	240220	START	n/a	n/a	n/a	n/a	-999	1	[-999, -999, -999]	n/a	catFR1	0	R1075J
164.506	3.684	240236	PROB	3.684	n/a	n/a	n/a	-999	1	[6, 3, 4]	13	catFR1	0	R1075J
168.19	2.684	243920	PROB	2.684	n/a	n/a	n/a	-999	1	[5, 6, 1]	12	catFR1	0	R1075J
170.874	2.466	246604	PROB	2.466	n/a	n/a	n/a	-999	1	[8, 2, 2]	12	catFR1	0	R1075J
173.34	2.451	249071	PROB	2.451	n/a	n/a	n/a	-999	1	[2, 1, 1]	4	catFR1	0	R1075J
175.791	3.816	251522	PROB	3.816	n/a	n/a	n/a	-999	1	[7, 2, 6]	15	catFR1	0	R1075J
179.607	3.668	255338	PROB	3.668	n/a	n/a	n/a	-999	1	[8, 9, 8]	25	catFR1	0	R1075J
183.275	3.042	259006	PROB	3.042	n/a	n/a	n/a	-999	1	[8, 4, 3]	15	catFR1	0	R1075J
186.317	0.008	262048	STOP	n/a	n/a	n/a	n/a	-999	1	[-999, -999, -999]	n/a	catFR1	0	R1075J
186.325	1.168	262056	DISTRACT_END	n/a	n/a	n/a	n/a	-999	1	[0, 0, 0]	n/a	catFR1	0	R1075J
187.493	2.441	263224	REC_START	n/a	n/a	n/a	n/a	-999	1	[0, 0, 0]	n/a	catFR1	0	R1075J
189.934	0.32	265665	REC_WORD_VV	0.32	n/a	<>	n/a	-999	1	[0, 0, 0]	n/a	catFR1	0	R1075J
190.254	2.526	265985	REC_WORD	2.526	n/a	SPARROW	Birds	3	1	[0, 0, 0]	n/a	catFR1	0	R1075J
192.78	6.732	268511	REC_WORD	6.732	n/a	PIGEON	Birds	11	1	[0, 0, 0]	n/a	catFR1	0	R1075J
199.512	0.726	275243	REC_WORD	0.726	n/a	STAIRS	Building	1	1	[0, 0, 0]	n/a	catFR1	0	R1075J
200.238	2.007	275969	REC_WORD	2.007	n/a	BATHROOM	Building	2	1	[0, 0, 0]	n/a	catFR1	0	R1075J
202.245	0.423	277976	REC_WORD	0.423	n/a	ONION	Vegetables	5	1	[0, 0, 0]	n/a	catFR1	0	R1075J
202.668	1.438	278399	REC_WORD	1.438	n/a	BROCCOLI	Vegetables	6	1	[0, 0, 0]	n/a	catFR1	0	R1075J
204.106	2.228	279837	REC_WORD_VV	2.228	n/a	<>	n/a	-999	1	[0, 0, 0]	n/a	catFR1	0	R1075J
206.334	11.178	282066	REC_WORD_VV	11.178	n/a	<>	n/a	-999	1	[0, 0, 0]	n/a	catFR1	0	R1075J
217.512	2.301	293244	REC_END	n/a	n/a	n/a	n/a	-999	1	[0, 0, 0]	n/a	catFR1	0	R1075J
219.813	0.0	295545	COUNTDOWN_START	n/a	n/a	n/a	n/a	-999	2	[0, 0, 0]	n/a	catFR1	0	R1075J
219.813	10.428	295545	TRIAL	n/a	n/a	n/a	n/a	-999	2	[0, 0, 0]	n/a	catFR1	0	R1075J
230.241	0.007	305973	COUNTDOWN_END	n/a	n/a	n/a	n/a	-999	2	[0, 0, 0]	n/a	catFR1	0	R1075J
230.248	3.583	305980	ORIENT	n/a	n/a	n/a	n/a	-999	2	[0, 0, 0]	n/a	catFR1	0	R1075J
233.831	2.6	309563	WORD	n/a	wordpools/wordpool_categorized_EN.txt	RULER	OfficeSupplies	1	2	[0, 0, 0]	n/a	catFR1	0	R1075J
236.431	2.584	312163	WORD	n/a	wordpools/wordpool_categorized_EN.txt	PENCIL	OfficeSupplies	2	2	[0, 0, 0]	n/a	catFR1	0	R1075J
239.015	2.516	314747	WORD	n/a	wordpools/wordpool_categorized_EN.txt	MOSQUITO	Insects	3	2	[0, 0, 0]	n/a	catFR1	0	R1075J
241.531	2.601	317264	WORD	n/a	wordpools/wordpool_categorized_EN.txt	ANT	Insects	4	2	[0, 0, 0]	n/a	catFR1	0	R1075J
244.132	2.466	319865	WORD	n/a	wordpools/wordpool_categorized_EN.txt	DUCK	Birds	5	2	[0, 0, 0]	n/a	catFR1	0	R1075J
246.598	2.418	322331	WORD	n/a	wordpools/wordpool_categorized_EN.txt	DOVE	Birds	6	2	[0, 0, 0]	n/a	catFR1	0	R1075J
249.016	2.418	324749	WORD	n/a	wordpools/wordpool_categorized_EN.txt	BEE	Insects	7	2	[0, 0, 0]	n/a	catFR1	0	R1075J
251.434	2.483	327167	WORD	n/a	wordpools/wordpool_categorized_EN.txt	BEETLE	Insects	8	2	[0, 0, 0]	n/a	catFR1	0	R1075J
253.917	2.616	329650	WORD	n/a	wordpools/wordpool_categorized_EN.txt	MARKER	OfficeSupplies	9	2	[0, 0, 0]	n/a	catFR1	0	R1075J
256.533	2.451	332266	WORD	n/a	wordpools/wordpool_categorized_EN.txt	GLUE	OfficeSupplies	10	2	[0, 0, 0]	n/a	catFR1	0	R1075J
258.984	2.533	334717	WORD	n/a	wordpools/wordpool_categorized_EN.txt	CROW	Birds	11	2	[0, 0, 0]	n/a	catFR1	0	R1075J
261.517	1.618	337250	WORD	n/a	wordpools/wordpool_categorized_EN.txt	HAWK	Birds	12	2	[0, 0, 0]	n/a	catFR1	0	R1075J
263.135	0.001	338868	DISTRACT_START	n/a	n/a	n/a	n/a	-999	2	[0, 0, 0]	n/a	catFR1	0	R1075J
263.136	0.015	338869	START	n/a	n/a	n/a	n/a	-999	2	[-999, -999, -999]	n/a	catFR1	0	R1075J
263.151	3.784	338884	PROB	3.784	n/a	n/a	n/a	-999	2	[1, 9, 6]	16	catFR1	0	R1075J
266.935	2.917	342668	PROB	2.917	n/a	n/a	n/a	-999	2	[4, 9, 8]	21	catFR1	0	R1075J
269.852	3.716	345585	PROB	3.716	n/a	n/a	n/a	-999	2	[1, 8, 9]	18	catFR1	0	R1075J
273.568	2.918	349302	PROB	2.918	n/a	n/a	n/a	-999	2	[6, 8, 1]	15	catFR1	0	R1075J
276.486	2.834	352220	PROB	2.834	n/a	n/a	n/a	-999	2	[1, 7, 5]	13	catFR1	0	R1075J
279.32	2.817	355054	PROB	2.817	n/a	n/a	n/a	-999	2	[4, 7, 3]	14	catFR1	0	R1075J
282.137	2.486	357871	PROB	2.486	n/a	n/a	n/a	-999	2	[2, 8, 9]	19	catFR1	0	R1075J
284.623	0.013	360357	STOP	n/a	n/a	n/a	n/a	-999	2	[-999, -999, -999]	n/a	catFR1	0	R1075J
284.636	1.202	360370	DISTRACT_END	n/a	n/a	n/a	n/a	-999	2	[0, 0, 0]	n/a	catFR1	0	R1075J
285.838	2.703	361572	REC_START	n/a	n/a	n/a	n/a	-999	2	[0, 0, 0]	n/a	catFR1	0	R1075J
288.541	0.986	364275	REC_WORD	0.986	n/a	MARKER	OfficeSupplies	9	2	[0, 0, 0]	n/a	catFR1	0	R1075J
289.527	2.455	365261	REC_WORD	2.455	n/a	RULER	OfficeSupplies	1	2	[0, 0, 0]	n/a	catFR1	0	R1075J
291.982	2.895	367716	REC_WORD	2.895	n/a	GLUE	OfficeSupplies	10	2	[0, 0, 0]	n/a	catFR1	0	R1075J
294.877	2.989	370611	REC_WORD_VV	2.989	n/a	<>	n/a	-999	2	[0, 0, 0]	n/a	catFR1	0	R1075J
297.866	12.881	373600	REC_WORD	12.881	n/a	PEN	n/a	-999	2	[0, 0, 0]	n/a	catFR1	0	R1075J
310.747	3.643	386482	REC_WORD	3.643	n/a	CROW	Birds	11	2	[0, 0, 0]	n/a	catFR1	0	R1075J
314.39	1.46	390125	REC_WORD	1.46	n/a	DOVE	Birds	6	2	[0, 0, 0]	n/a	catFR1	0	R1075J
315.85	2.392	391585	REC_END	n/a	n/a	n/a	n/a	-999	2	[0, 0, 0]	n/a	catFR1	0	R1075J
318.242	0.0	393977	TRIAL	n/a	n/a	n/a	n/a	-999	3	[0, 0, 0]	n/a	catFR1	0	R1075J
318.242	10.428	393977	COUNTDOWN_START	n/a	n/a	n/a	n/a	-999	3	[0, 0, 0]	n/a	catFR1	0	R1075J
328.67	0.005	404405	COUNTDOWN_END	n/a	n/a	n/a	n/a	-999	3	[0, 0, 0]	n/a	catFR1	0	R1075J
328.675	3.934	404410	ORIENT	n/a	n/a	n/a	n/a	-999	3	[0, 0, 0]	n/a	catFR1	0	R1075J
332.609	2.501	408344	WORD	n/a	wordpools/wordpool_categorized_EN.txt	CRICKET	Insects	1	3	[0, 0, 0]	n/a	catFR1	0	R1075J
335.11	2.466	410845	WORD	n/a	wordpools/wordpool_categorized_EN.txt	BUTTERFLY	Insects	2	3	[0, 0, 0]	n/a	catFR1	0	R1075J
337.576	2.568	413311	WORD	n/a	wordpools/wordpool_categorized_EN.txt	RADIO	Electronics	3	3	[0, 0, 0]	n/a	catFR1	0	R1075J
340.144	2.416	415879	WORD	n/a	wordpools/wordpool_categorized_EN.txt	HEADPHONES	Electronics	4	3	[0, 0, 0]	n/a	catFR1	0	R1075J
342.56	2.535	418296	WORD	n/a	wordpools/wordpool_categorized_EN.txt	AXE	Tools	5	3	[0, 0, 0]	n/a	catFR1	0	R1075J
345.095	2.516	420831	WORD	n/a	wordpools/wordpool_categorized_EN.txt	SHOVEL	Tools	6	3	[0, 0, 0]	n/a	catFR1	0	R1075J
347.611	2.484	423347	WORD	n/a	wordpools/wordpool_categorized_EN.txt	STEREO	Electronics	7	3	[0, 0, 0]	n/a	catFR1	0	R1075J
350.095	2.583	425831	WORD	n/a	wordpools/wordpool_categorized_EN.txt	MICROWAVE	Electronics	8	3	[0, 0, 0]	n/a	catFR1	0	R1075J
352.678	2.451	428414	WORD	n/a	wordpools/wordpool_categorized_EN.txt	LADYBUG	Insects	9	3	[0, 0, 0]	n/a	catFR1	0	R1075J
355.129	2.5	430865	WORD	n/a	wordpools/wordpool_categorized_EN.txt	FLY	Insects	10	3	[0, 0, 0]	n/a	catFR1	0	R1075J
357.629	2.518	433365	WORD	n/a	wordpools/wordpool_categorized_EN.txt	HAMMER	Tools	11	3	[0, 0, 0]	n/a	catFR1	0	R1075J
360.147	1.616	435883	WORD	n/a	wordpools/wordpool_categorized_EN.txt	SANDER	Tools	12	3	[0, 0, 0]	n/a	catFR1	0	R1075J
361.763	0.001	437499	DISTRACT_START	n/a	n/a	n/a	n/a	-999	3	[0, 0, 0]	n/a	catFR1	0	R1075J
361.764	0.016	437500	START	n/a	n/a	n/a	n/a	-999	3	[-999, -999, -999]	n/a	catFR1	0	R1075J
361.78	3.617	437516	PROB	3.617	n/a	n/a	n/a	-999	3	[7, 1, 3]	11	catFR1	0	R1075J
365.397	2.734	441133	PROB	2.734	n/a	n/a	n/a	-999	3	[1, 1, 8]	10	catFR1	0	R1075J
368.131	2.633	443867	PROB	2.633	n/a	n/a	n/a	-999	3	[6, 2, 2]	10	catFR1	0	R1075J
370.764	3.034	446500	PROB	3.034	n/a	n/a	n/a	-999	3	[9, 8, 3]	20	catFR1	0	R1075J
373.798	3.001	449534	PROB	3.001	n/a	n/a	n/a	-999	3	[8, 8, 2]	18	catFR1	0	R1075J
376.799	3.517	452536	PROB	3.517	n/a	n/a	n/a	-999	3	[8, 7, 1]	16	catFR1	0	R1075J
380.316	2.824	456053	PROB	2.824	n/a	n/a	n/a	-999	3	[4, 7, 4]	15	catFR1	0	R1075J
383.14	0.009	458877	STOP	n/a	n/a	n/a	n/a	-999	3	[-999, -999, -999]	n/a	catFR1	0	R1075J
383.149	1.051	458886	DISTRACT_END	n/a	n/a	n/a	n/a	-999	3	[0, 0, 0]	n/a	catFR1	0	R1075J
384.2	2.14	459937	REC_START	n/a	n/a	n/a	n/a	-999	3	[0, 0, 0]	n/a	catFR1	0	R1075J
386.34	1.251	462077	REC_WORD_VV	1.251	n/a	<>	n/a	-999	3	[0, 0, 0]	n/a	catFR1	0	R1075J
387.591	22.342	463328	REC_WORD	22.342	n/a	HAMMER	Tools	11	3	[0, 0, 0]	n/a	catFR1	0	R1075J
409.933	3.194	485671	REC_WORD	3.194	n/a	ANT	n/a	-999	3	[0, 0, 0]	n/a	catFR1	0	R1075J
413.127	1.085	488865	REC_WORD	1.085	n/a	BUTTERFLY	Insects	2	3	[0, 0, 0]	n/a	catFR1	0	R1075J
414.212	2.591	489950	REC_END	n/a	n/a	n/a	n/a	-999	3	[0, 0, 0]	n/a	catFR1	0	R1075J
416.803	0.001	492541	COUNTDOWN_START	n/a	n/a	n/a	n/a	-999	4	[0, 0, 0]	n/a	catFR1	0	R1075J
416.804	10.427	492542	TRIAL	n/a	n/a	n/a	n/a	-999	4	[0, 0, 0]	n/a	catFR1	0	R1075J
427.231	0.007	502969	COUNTDOWN_END	n/a	n/a	n/a	n/a	-999	4	[0, 0, 0]	n/a	catFR1	0	R1075J
427.238	3.684	502976	ORIENT	n/a	n/a	n/a	n/a	-999	4	[0, 0, 0]	n/a	catFR1	0	R1075J
430.922	2.467	506660	WORD	n/a	wordpools/wordpool_categorized_EN.txt	BEER	Beverages	1	4	[0, 0, 0]	n/a	catFR1	0	R1075J
433.389	2.383	509127	WORD	n/a	wordpools/wordpool_categorized_EN.txt	SODA	Beverages	2	4	[0, 0, 0]	n/a	catFR1	0	R1075J
435.772	2.584	511510	WORD	n/a	wordpools/wordpool_categorized_EN.txt	IRON	Appliances	3	4	[0, 0, 0]	n/a	catFR1	0	R1075J
438.356	2.467	514094	WORD	n/a	wordpools/wordpool_categorized_EN.txt	FREEZER	Appliances	4	4	[0, 0, 0]	n/a	catFR1	0	R1075J
440.823	2.567	516561	WORD	n/a	wordpools/wordpool_categorized_EN.txt	THUNDERSTORM	Weather	5	4	[0, 0, 0]	n/a	catFR1	0	R1075J
443.39	2.6	519128	WORD	n/a	wordpools/wordpool_categorized_EN.txt	CLOUD	Weather	6	4	[0, 0, 0]	n/a	catFR1	0	R1075J
445.99	2.55	521729	WORD	n/a	wordpools/wordpool_categorized_EN.txt	OVEN	Appliances	7	4	[0, 0, 0]	n/a	catFR1	0	R1075J
448.54	2.618	524279	WORD	n/a	wordpools/wordpool_categorized_EN.txt	VACUUM	Appliances	8	4	[0, 0, 0]	n/a	catFR1	0	R1075J
451.158	2.499	526897	WORD	n/a	wordpools/wordpool_categorized_EN.txt	TEA	Beverages	9	4	[0, 0, 0]	n/a	catFR1	0	R1075J
453.657	2.501	529396	WORD	n/a	wordpools/wordpool_categorized_EN.txt	COFFEE	Beverages	10	4	[0, 0, 0]	n/a	catFR1	0	R1075J
456.158	2.55	531897	WORD	n/a	wordpools/wordpool_categorized_EN.txt	RAIN	Weather	11	4	[0, 0, 0]	n/a	catFR1	0	R1075J
458.708	1.618	534447	WORD	n/a	wordpools/wordpool_categorized_EN.txt	WIND	Weather	12	4	[0, 0, 0]	n/a	catFR1	0	R1075J
460.326	0.001	536065	DISTRACT_START	n/a	n/a	n/a	n/a	-999	4	[0, 0, 0]	n/a	catFR1	0	R1075J
460.327	0.015	536066	START	n/a	n/a	n/a	n/a	-999	4	[-999, -999, -999]	n/a	catFR1	0	R1075J
460.342	3.316	536081	PROB	3.316	n/a	n/a	n/a	-999	4	[8, 1, 3]	12	catFR1	0	R1075J
463.658	3.118	539397	PROB	3.118	n/a	n/a	n/a	-999	4	[4, 1, 2]	7	catFR1	0	R1075J
466.776	2.883	542515	PROB	2.883	n/a	n/a	n/a	-999	4	[8, 8, 2]	18	catFR1	0	R1075J
469.659	2.967	545398	PROB	2.967	n/a	n/a	n/a	-999	4	[6, 9, 1]	16	catFR1	0	R1075J
472.626	3.534	548365	PROB	3.534	n/a	n/a	n/a	-999	4	[8, 1, 8]	17	catFR1	0	R1075J
476.16	2.718	551899	PROB	2.718	n/a	n/a	n/a	-999	4	[8, 2, 8]	18	catFR1	0	R1075J
478.878	3.45	554618	PROB	3.45	n/a	n/a	n/a	-999	4	[9, 2, 9]	20	catFR1	0	R1075J
482.328	0.017	558068	STOP	n/a	n/a	n/a	n/a	-999	4	[-999, -999, -999]	n/a	catFR1	0	R1075J
482.345	1.167	558085	DISTRACT_END	n/a	n/a	n/a	n/a	-999	4	[0, 0, 0]	n/a	catFR1	0	R1075J
483.512	1.333	559252	REC_START	n/a	n/a	n/a	n/a	-999	4	[0, 0, 0]	n/a	catFR1	0	R1075J
484.845	0.78	560585	REC_WORD	0.78	n/a	THUNDERSTORM	Weather	5	4	[0, 0, 0]	n/a	catFR1	0	R1075J
485.625	0.719	561365	REC_WORD	0.719	n/a	WIND	Weather	12	4	[0, 0, 0]	n/a	catFR1	0	R1075J
486.344	9.958	562084	REC_WORD	9.958	n/a	RAIN	Weather	11	4	[0, 0, 0]	n/a	catFR1	0	R1075J
496.302	1.036	572042	REC_WORD_VV	1.036	n/a	<>	n/a	-999	4	[0, 0, 0]	n/a	catFR1	0	R1075J
497.338	0.393	573078	REC_WORD	0.393	n/a	THUNDERSTORM	Weather	5	4	[0, 0, 0]	n/a	catFR1	0	R1075J
497.731	0.257	573471	REC_WORD	0.257	n/a	WIND	Weather	12	4	[0, 0, 0]	n/a	catFR1	0	R1075J
497.988	15.534	573728	REC_WORD	15.534	n/a	RAIN	Weather	11	4	[0, 0, 0]	n/a	catFR1	0	R1075J
513.522	61.417	589263	REC_END	n/a	n/a	n/a	n/a	-999	4	[0, 0, 0]	n/a	catFR1	0	R1075J
574.939	0.0	650681	TRIAL	n/a	n/a	n/a	n/a	-999	5	[0, 0, 0]	n/a	catFR1	0	R1075J
574.939	10.428	650681	COUNTDOWN_START	n/a	n/a	n/a	n/a	-999	5	[0, 0, 0]	n/a	catFR1	0	R1075J
585.367	0.007	661110	COUNTDOWN_END	n/a	n/a	n/a	n/a	-999	5	[0, 0, 0]	n/a	catFR1	0	R1075J
585.374	3.784	661117	ORIENT	n/a	n/a	n/a	n/a	-999	5	[0, 0, 0]	n/a	catFR1	0	R1075J
589.158	2.516	664901	WORD	n/a	wordpools/wordpool_categorized_EN.txt	FORK	KitchenTools	1	5	[0, 0, 0]	n/a	catFR1	0	R1075J
591.674	2.601	667417	WORD	n/a	wordpools/wordpool_categorized_EN.txt	SPOON	KitchenTools	2	5	[0, 0, 0]	n/a	catFR1	0	R1075J
594.275	2.432	670018	WORD	n/a	wordpools/wordpool_categorized_EN.txt	SHIRT	Clothing	3	5	[0, 0, 0]	n/a	catFR1	0	R1075J
596.707	2.402	672450	WORD	n/a	wordpools/wordpool_categorized_EN.txt	UNDERWEAR	Clothing	4	5	[0, 0, 0]	n/a	catFR1	0	R1075J
599.109	2.433	674852	WORD	n/a	wordpools/wordpool_categorized_EN.txt	TIGER	Zoo	5	5	[0, 0, 0]	n/a	catFR1	0	R1075J
601.542	2.601	677285	WORD	n/a	wordpools/wordpool_categorized_EN.txt	MONKEY	Zoo	6	5	[0, 0, 0]	n/a	catFR1	0	R1075J
604.143	2.382	679886	WORD	n/a	wordpools/wordpool_categorized_EN.txt	STRAINER	KitchenTools	7	5	[0, 0, 0]	n/a	catFR1	0	R1075J
606.525	2.602	682268	WORD	n/a	wordpools/wordpool_categorized_EN.txt	CORKSCREW	KitchenTools	8	5	[0, 0, 0]	n/a	catFR1	0	R1075J
609.127	2.384	684870	WORD	n/a	wordpools/wordpool_categorized_EN.txt	GORILLA	Zoo	9	5	[0, 0, 0]	n/a	catFR1	0	R1075J
611.511	2.516	687254	WORD	n/a	wordpools/wordpool_categorized_EN.txt	PANDA	Zoo	10	5	[0, 0, 0]	n/a	catFR1	0	R1075J
614.027	2.384	689771	WORD	n/a	wordpools/wordpool_categorized_EN.txt	PANTS	Clothing	11	5	[0, 0, 0]	n/a	catFR1	0	R1075J
616.411	1.617	692155	WORD	n/a	wordpools/wordpool_categorized_EN.txt	DRESS	Clothing	12	5	[0, 0, 0]	n/a	catFR1	0	R1075J
618.028	0.001	693772	DISTRACT_START	n/a	n/a	n/a	n/a	-999	5	[0, 0, 0]	n/a	catFR1	0	R1075J
618.029	0.016	693773	START	n/a	n/a	n/a	n/a	-999	5	[-999, -999, -999]	n/a	catFR1	0	R1075J
618.045	6.05	693789	PROB	6.05	n/a	n/a	n/a	-999	5	[5, 6, 7]	18	catFR1	0	R1075J
624.095	411.445	699839	PROB	411.445	n/a	n/a	n/a	-999	5	[9, 6, 8]	23	catFR1	0	R1075J
1035.54	0.004	1111296	STOP	n/a	n/a	n/a	n/a	-999	5	[-999, -999, -999]	n/a	catFR1	0	R1075J
1035.544	1.101	1111300	DISTRACT_END	n/a	n/a	n/a	n/a	-999	5	[0, 0, 0]	n/a	catFR1	0	R1075J
1036.645	2.362	1112401	REC_START	n/a	n/a	n/a	n/a	-999	5	[0, 0, 0]	n/a	catFR1	0	R1075J
1039.007	9.215	1114763	REC_WORD_VV	9.215	n/a	<>	n/a	-999	5	[0, 0, 0]	n/a	catFR1	0	R1075J
1048.222	18.435	1123978	REC_WORD_VV	18.435	n/a	<>	n/a	-999	5	[0, 0, 0]	n/a	catFR1	0	R1075J
1066.657	8.858	1142414	REC_END	n/a	n/a	n/a	n/a	-999	5	[0, 0, 0]	n/a	catFR1	0	R1075J
1075.515	0.001	1151272	COUNTDOWN_START	n/a	n/a	n/a	n/a	-999	6	[0, 0, 0]	n/a	catFR1	0	R1075J
1075.516	10.427	1151273	TRIAL	n/a	n/a	n/a	n/a	-999	6	[0, 0, 0]	n/a	catFR1	0	R1075J
1085.943	0.008	1161700	COUNTDOWN_END	n/a	n/a	n/a	n/a	-999	6	[0, 0, 0]	n/a	catFR1	0	R1075J
1085.951	3.616	1161708	ORIENT	n/a	n/a	n/a	n/a	-999	6	[0, 0, 0]	n/a	catFR1	0	R1075J
1089.567	2.552	1165325	WORD	n/a	wordpools/wordpool_categorized_EN.txt	JACKET	Clothing	1	6	[0, 0, 0]	n/a	catFR1	0	R1075J
1092.119	2.615	1167877	WORD	n/a	wordpools/wordpool_categorized_EN.txt	COAT	Clothing	2	6	[0, 0, 0]	n/a	catFR1	0	R1075J
1094.734	2.369	1170492	WORD	n/a	wordpools/wordpool_categorized_EN.txt	MOTORCYCLE	Vehicles	3	6	[0, 0, 0]	n/a	catFR1	0	R1075J
1097.103	2.599	1172861	WORD	n/a	wordpools/wordpool_categorized_EN.txt	TRAIN	Vehicles	4	6	[0, 0, 0]	n/a	catFR1	0	R1075J
1099.702	2.551	1175460	WORD	n/a	wordpools/wordpool_categorized_EN.txt	FOOT	BodyParts	5	6	[0, 0, 0]	n/a	catFR1	0	R1075J
1102.253	2.399	1178011	WORD	n/a	wordpools/wordpool_categorized_EN.txt	EYE	BodyParts	6	6	[0, 0, 0]	n/a	catFR1	0	R1075J
1104.652	2.535	1180410	WORD	n/a	wordpools/wordpool_categorized_EN.txt	MOPED	Vehicles	7	6	[0, 0, 0]	n/a	catFR1	0	R1075J
1107.187	2.6	1182945	WORD	n/a	wordpools/wordpool_categorized_EN.txt	BUS	Vehicles	8	6	[0, 0, 0]	n/a	catFR1	0	R1075J
1109.787	2.401	1185545	WORD	n/a	wordpools/wordpool_categorized_EN.txt	SOCKS	Clothing	9	6	[0, 0, 0]	n/a	catFR1	0	R1075J
1112.188	2.382	1187946	WORD	n/a	wordpools/wordpool_categorized_EN.txt	JEANS	Clothing	10	6	[0, 0, 0]	n/a	catFR1	0	R1075J
1114.57	2.585	1190328	WORD	n/a	wordpools/wordpool_categorized_EN.txt	LEG	BodyParts	11	6	[0, 0, 0]	n/a	catFR1	0	R1075J
1117.155	1.617	1192913	WORD	n/a	wordpools/wordpool_categorized_EN.txt	NOSE	BodyParts	12	6	[0, 0, 0]	n/a	catFR1	0	R1075J
1118.772	0.0	1194530	DISTRACT_START	n/a	n/a	n/a	n/a	-999	6	[0, 0, 0]	n/a	catFR1	0	R1075J
1118.772	0.017	1194530	START	n/a	n/a	n/a	n/a	-999	6	[-999, -999, -999]	n/a	catFR1	0	R1075J
1118.789	3.667	1194547	PROB	3.667	n/a	n/a	n/a	-999	6	[5, 9, 8]	22	catFR1	0	R1075J
1122.456	2.733	1198214	PROB	2.733	n/a	n/a	n/a	-999	6	[7, 1, 2]	10	catFR1	0	R1075J
1125.189	3.017	1200948	PROB	3.017	n/a	n/a	n/a	-999	6	[7, 7, 2]	16	catFR1	0	R1075J
1128.206	2.433	1203965	PROB	2.433	n/a	n/a	n/a	-999	6	[2, 2, 5]	9	catFR1	0	R1075J
1130.639	3.268	1206398	PROB	3.268	n/a	n/a	n/a	-999	6	[2, 7, 1]	10	catFR1	0	R1075J
1133.907	2.934	1209666	PROB	2.934	n/a	n/a	n/a	-999	6	[4, 8, 8]	20	catFR1	0	R1075J
1136.841	5.384	1212600	PROB	5.384	n/a	n/a	n/a	-999	6	[2, 2, 2]	6	catFR1	0	R1075J
1142.225	0.017	1217984	STOP	n/a	n/a	n/a	n/a	-999	6	[-999, -999, -999]	n/a	catFR1	0	R1075J
1142.242	1.05	1218001	DISTRACT_END	n/a	n/a	n/a	n/a	-999	6	[0, 0, 0]	n/a	catFR1	0	R1075J
1143.292	1.756	1219051	REC_START	n/a	n/a	n/a	n/a	-999	6	[0, 0, 0]	n/a	catFR1	0	R1075J
1145.048	0.632	1220807	REC_WORD	0.632	n/a	FOOT	BodyParts	5	6	[0, 0, 0]	n/a	catFR1	0	R1075J
1145.68	8.468	1221439	REC_WORD	8.468	n/a	EYE	BodyParts	6	6	[0, 0, 0]	n/a	catFR1	0	R1075J
1154.148	14.092	1229907	REC_WORD	14.092	n/a	JACKET	Clothing	1	6	[0, 0, 0]	n/a	catFR1	0	R1075J
1168.24	5.063	1244000	REC_WORD	5.063	n/a	SHIRT	n/a	-999	6	[0, 0, 0]	n/a	catFR1	0	R1075J
1173.303	4.059	1249063	REC_END	n/a	n/a	n/a	n/a	-999	6	[0, 0, 0]	n/a	catFR1	0	R1075J
1177.362	0.0	1253122	COUNTDOWN_START	n/a	n/a	n/a	n/a	-999	7	[0, 0, 0]	n/a	catFR1	0	R1075J
1177.362	10.428	1253122	TRIAL	n/a	n/a	n/a	n/a	-999	7	[0, 0, 0]	n/a	catFR1	0	R1075J
1187.79	0.007	1263550	COUNTDOWN_END	n/a	n/a	n/a	n/a	-999	7	[0, 0, 0]	n/a	catFR1	0	R1075J
1187.797	3.55	1263557	ORIENT	n/a	n/a	n/a	n/a	-999	7	[0, 0, 0]	n/a	catFR1	0	R1075J
1191.347	2.55	1267108	WORD	n/a	wordpools/wordpool_categorized_EN.txt	TRUMPET	Instruments	1	7	[0, 0, 0]	n/a	catFR1	0	R1075J
1193.897	2.501	1269658	WORD	n/a	wordpools/wordpool_categorized_EN.txt	BANJO	Instruments	2	7	[0, 0, 0]	n/a	catFR1	0	R1075J
1196.398	2.4	1272159	WORD	n/a	wordpools/wordpool_categorized_EN.txt	HILLS	Landscapes	3	7	[0, 0, 0]	n/a	catFR1	0	R1075J
1198.798	2.534	1274559	WORD	n/a	wordpools/wordpool_categorized_EN.txt	BEACH	Landscapes	4	7	[0, 0, 0]	n/a	catFR1	0	R1075J
1201.332	2.45	1277093	WORD	n/a	wordpools/wordpool_categorized_EN.txt	DRESSER	Furniture	5	7	[0, 0, 0]	n/a	catFR1	0	R1075J
1203.782	2.534	1279543	WORD	n/a	wordpools/wordpool_categorized_EN.txt	DESK	Furniture	6	7	[0, 0, 0]	n/a	catFR1	0	R1075J
1206.316	2.399	1282077	WORD	n/a	wordpools/wordpool_categorized_EN.txt	VIOLIN	Instruments	7	7	[0, 0, 0]	n/a	catFR1	0	R1075J
1208.715	2.418	1284476	WORD	n/a	wordpools/wordpool_categorized_EN.txt	TUBA	Instruments	8	7	[0, 0, 0]	n/a	catFR1	0	R1075J
1211.133	2.516	1286894	WORD	n/a	wordpools/wordpool_categorized_EN.txt	BED	Furniture	9	7	[0, 0, 0]	n/a	catFR1	0	R1075J
1213.649	2.585	1289410	WORD	n/a	wordpools/wordpool_categorized_EN.txt	TABLE	Furniture	10	7	[0, 0, 0]	n/a	catFR1	0	R1075J
1216.234	2.567	1291995	WORD	n/a	wordpools/wordpool_categorized_EN.txt	CREEK	Landscapes	11	7	[0, 0, 0]	n/a	catFR1	0	R1075J
1218.801	1.617	1294562	WORD	n/a	wordpools/wordpool_categorized_EN.txt	MOUNTAIN	Landscapes	12	7	[0, 0, 0]	n/a	catFR1	0	R1075J
1220.418	0.001	1296179	DISTRACT_START	n/a	n/a	n/a	n/a	-999	7	[0, 0, 0]	n/a	catFR1	0	R1075J
1220.419	0.015	1296180	START	n/a	n/a	n/a	n/a	-999	7	[-999, -999, -999]	n/a	catFR1	0	R1075J
1220.434	3.867	1296195	PROB	3.867	n/a	n/a	n/a	-999	7	[6, 5, 3]	14	catFR1	0	R1075J
1224.301	3.467	1300062	PROB	3.467	n/a	n/a	n/a	-999	7	[8, 9, 8]	25	catFR1	0	R1075J
1227.768	3.001	1303530	PROB	3.001	n/a	n/a	n/a	-999	7	[5, 7, 6]	18	catFR1	0	R1075J
1230.769	3.283	1306531	PROB	3.283	n/a	n/a	n/a	-999	7	[6, 8, 6]	20	catFR1	0	R1075J
1234.052	2.984	1309814	PROB	2.984	n/a	n/a	n/a	-999	7	[5, 8, 5]	18	catFR1	0	R1075J
1237.036	3.695	1312798	PROB	3.695	n/a	n/a	n/a	-999	7	[6, 8, 3]	17	catFR1	0	R1075J
1240.731	0.005	1316493	STOP	n/a	n/a	n/a	n/a	-999	7	[-999, -999, -999]	n/a	catFR1	0	R1075J
1240.736	1.052	1316498	DISTRACT_END	n/a	n/a	n/a	n/a	-999	7	[0, 0, 0]	n/a	catFR1	0	R1075J
1241.788	3.357	1317550	REC_START	n/a	n/a	n/a	n/a	-999	7	[0, 0, 0]	n/a	catFR1	0	R1075J
1245.145	0.15	1320907	REC_WORD_VV	0.15	n/a	<>	n/a	-999	7	[0, 0, 0]	n/a	catFR1	0	R1075J
1245.295	4.346	1321057	REC_WORD	4.346	n/a	TRUMPET	Instruments	1	7	[0, 0, 0]	n/a	catFR1	0	R1075J
1249.641	21.054	1325403	REC_WORD	21.054	n/a	TUBA	Instruments	8	7	[0, 0, 0]	n/a	catFR1	0	R1075J
1270.695	1.105	1346458	REC_WORD	1.105	n/a	HILLS	Landscapes	3	7	[0, 0, 0]	n/a	catFR1	0	R1075J
1271.8	2.174	1347563	REC_END	n/a	n/a	n/a	n/a	-999	7	[0, 0, 0]	n/a	catFR1	0	R1075J
1273.974	0.001	1349737	COUNTDOWN_START	n/a	n/a	n/a	n/a	-999	8	[0, 0, 0]	n/a	catFR1	0	R1075J
1273.975	10.427	1349738	TRIAL	n/a	n/a	n/a	n/a	-999	8	[0, 0, 0]	n/a	catFR1	0	R1075J
1284.402	0.006	1360165	COUNTDOWN_END	n/a	n/a	n/a	n/a	-999	8	[0, 0, 0]	n/a	catFR1	0	R1075J
1284.408	3.868	1360171	ORIENT	n/a	n/a	n/a	n/a	-999	8	[0, 0, 0]	n/a	catFR1	0	R1075J
1288.276	2.482	1364039	WORD	n/a	wordpools/wordpool_categorized_EN.txt	PEACH	Fruit	1	8	[0, 0, 0]	n/a	catFR1	0	R1075J
1290.758	2.435	1366521	WORD	n/a	wordpools/wordpool_categorized_EN.txt	BANANA	Fruit	2	8	[0, 0, 0]	n/a	catFR1	0	R1075J
1293.193	2.583	1368957	WORD	n/a	wordpools/wordpool_categorized_EN.txt	ORGAN	Instruments	3	8	[0, 0, 0]	n/a	catFR1	0	R1075J
1295.776	2.618	1371540	WORD	n/a	wordpools/wordpool_categorized_EN.txt	PIANO	Instruments	4	8	[0, 0, 0]	n/a	catFR1	0	R1075J
1298.394	2.6	1374158	WORD	n/a	wordpools/wordpool_categorized_EN.txt	BLUEBIRD	Birds	5	8	[0, 0, 0]	n/a	catFR1	0	R1075J
1300.994	2.433	1376758	WORD	n/a	wordpools/wordpool_categorized_EN.txt	GOOSE	Birds	6	8	[0, 0, 0]	n/a	catFR1	0	R1075J
1303.427	2.617	1379191	WORD	n/a	wordpools/wordpool_categorized_EN.txt	STRAWBERRY	Fruit	7	8	[0, 0, 0]	n/a	catFR1	0	R1075J
1306.044	2.418	1381808	WORD	n/a	wordpools/wordpool_categorized_EN.txt	GRAPE	Fruit	8	8	[0, 0, 0]	n/a	catFR1	0	R1075J
1308.462	2.6	1384226	WORD	n/a	wordpools/wordpool_categorized_EN.txt	SEAGULL	Birds	9	8	[0, 0, 0]	n/a	catFR1	0	R1075J
1311.062	2.417	1386826	WORD	n/a	wordpools/wordpool_categorized_EN.txt	CARDINAL	Birds	10	8	[0, 0, 0]	n/a	catFR1	0	R1075J
1313.479	2.567	1389243	WORD	n/a	wordpools/wordpool_categorized_EN.txt	TROMBONE	Instruments	11	8	[0, 0, 0]	n/a	catFR1	0	R1075J
1316.046	1.616	1391810	WORD	n/a	wordpools/wordpool_categorized_EN.txt	BASS	Instruments	12	8	[0, 0, 0]	n/a	catFR1	0	R1075J
1317.662	0.001	1393426	DISTRACT_START	n/a	n/a	n/a	n/a	-999	8	[0, 0, 0]	n/a	catFR1	0	R1075J
1317.663	0.015	1393427	START	n/a	n/a	n/a	n/a	-999	8	[-999, -999, -999]	n/a	catFR1	0	R1075J
1317.678	3.252	1393442	PROB	3.252	n/a	n/a	n/a	-999	8	[9, 7, 5]	21	catFR1	0	R1075J
1320.93	3.467	1396694	PROB	3.467	n/a	n/a	n/a	-999	8	[4, 9, 9]	22	catFR1	0	R1075J
1324.397	3.067	1400161	PROB	3.067	n/a	n/a	n/a	-999	8	[6, 4, 6]	16	catFR1	0	R1075J
1327.464	2.9	1403229	PROB	2.9	n/a	n/a	n/a	-999	8	[2, 2, 3]	7	catFR1	0	R1075J
1330.364	4.467	1406129	PROB	4.467	n/a	n/a	n/a	-999	8	[2, 4, 2]	8	catFR1	0	R1075J
1334.831	3.176	1410596	PROB	3.176	n/a	n/a	n/a	-999	8	[8, 3, 8]	19	catFR1	0	R1075J
1338.007	0.008	1413772	STOP	n/a	n/a	n/a	n/a	-999	8	[-999, -999, -999]	n/a	catFR1	0	R1075J
1338.015	1.118	1413780	DISTRACT_END	n/a	n/a	n/a	n/a	-999	8	[0, 0, 0]	n/a	catFR1	0	R1075J
1339.133	9.266	1414898	REC_START	n/a	n/a	n/a	n/a	-999	8	[0, 0, 0]	n/a	catFR1	0	R1075J
1348.399	20.745	1424164	REC_WORD	20.745	n/a	PIANO	Instruments	4	8	[0, 0, 0]	n/a	catFR1	0	R1075J
1369.144	2.709	1444910	REC_END	n/a	n/a	n/a	n/a	-999	8	[0, 0, 0]	n/a	catFR1	0	R1075J
1371.853	0.0	1447619	TRIAL	n/a	n/a	n/a	n/a	-999	9	[0, 0, 0]	n/a	catFR1	0	R1075J
1371.853	10.428	1447619	COUNTDOWN_START	n/a	n/a	n/a	n/a	-999	9	[0, 0, 0]	n/a	catFR1	0	R1075J
1382.281	0.006	1458047	COUNTDOWN_END	n/a	n/a	n/a	n/a	-999	9	[0, 0, 0]	n/a	catFR1	0	R1075J
1382.287	3.634	1458053	ORIENT	n/a	n/a	n/a	n/a	-999	9	[0, 0, 0]	n/a	catFR1	0	R1075J
1385.921	2.567	1461687	WORD	n/a	wordpools/wordpool_categorized_EN.txt	SCREWDRIVER	Tools	1	9	[0, 0, 0]	n/a	catFR1	0	R1075J
1388.488	2.534	1464254	WORD	n/a	wordpools/wordpool_categorized_EN.txt	CROWBAR	Tools	2	9	[0, 0, 0]	n/a	catFR1	0	R1075J
1391.022	2.45	1466788	WORD	n/a	wordpools/wordpool_categorized_EN.txt	FOUNDATION	Building	3	9	[0, 0, 0]	n/a	catFR1	0	R1075J
1393.472	2.6	1469238	WORD	n/a	wordpools/wordpool_categorized_EN.txt	ATTIC	Building	4	9	[0, 0, 0]	n/a	catFR1	0	R1075J
1396.072	2.599	1471839	WORD	n/a	wordpools/wordpool_categorized_EN.txt	SHORTS	Clothing	5	9	[0, 0, 0]	n/a	catFR1	0	R1075J
1398.671	2.402	1474438	WORD	n/a	wordpools/wordpool_categorized_EN.txt	SHOES	Clothing	6	9	[0, 0, 0]	n/a	catFR1	0	R1075J
1401.073	2.566	1476840	WORD	n/a	wordpools/wordpool_categorized_EN.txt	HALLWAY	Building	7	9	[0, 0, 0]	n/a	catFR1	0	R1075J
1403.639	2.618	1479406	WORD	n/a	wordpools/wordpool_categorized_EN.txt	WALL	Building	8	9	[0, 0, 0]	n/a	catFR1	0	R1075J
1406.257	2.399	1482024	WORD	n/a	wordpools/wordpool_categorized_EN.txt	SAW	Tools	9	9	[0, 0, 0]	n/a	catFR1	0	R1075J
1408.656	2.468	1484423	WORD	n/a	wordpools/wordpool_categorized_EN.txt	DRILL	Tools	10	9	[0, 0, 0]	n/a	catFR1	0	R1075J
1411.124	2.616	1486891	WORD	n/a	wordpools/wordpool_categorized_EN.txt	SKIRT	Clothing	11	9	[0, 0, 0]	n/a	catFR1	0	R1075J
1413.74	1.618	1489507	WORD	n/a	wordpools/wordpool_categorized_EN.txt	BLOUSE	Clothing	12	9	[0, 0, 0]	n/a	catFR1	0	R1075J
1415.358	0.0	1491125	DISTRACT_START	n/a	n/a	n/a	n/a	-999	9	[0, 0, 0]	n/a	catFR1	0	R1075J
1415.358	0.016	1491125	START	n/a	n/a	n/a	n/a	-999	9	[-999, -999, -999]	n/a	catFR1	0	R1075J
1415.374	2.718	1491141	PROB	2.718	n/a	n/a	n/a	-999	9	[2, 1, 6]	9	catFR1	0	R1075J
1418.092	2.683	1493859	PROB	2.683	n/a	n/a	n/a	-999	9	[1, 4, 4]	9	catFR1	0	R1075J
1420.775	3.467	1496542	PROB	3.467	n/a	n/a	n/a	-999	9	[6, 7, 8]	21	catFR1	0	R1075J
1424.242	2.817	1500009	PROB	2.817	n/a	n/a	n/a	-999	9	[6, 2, 2]	10	catFR1	0	R1075J
1427.059	4.101	1502826	PROB	4.101	n/a	n/a	n/a	-999	9	[8, 7, 2]	17	catFR1	0	R1075J
1431.16	3.217	1506928	PROB	3.217	n/a	n/a	n/a	-999	9	[5, 8, 2]	15	catFR1	0	R1075J
1434.377	3.184	1510145	PROB	3.184	n/a	n/a	n/a	-999	9	[2, 5, 9]	16	catFR1	0	R1075J
1437.561	0.015	1513329	STOP	n/a	n/a	n/a	n/a	-999	9	[-999, -999, -999]	n/a	catFR1	0	R1075J
1437.576	1.118	1513344	DISTRACT_END	n/a	n/a	n/a	n/a	-999	9	[0, 0, 0]	n/a	catFR1	0	R1075J
1438.694	2.162	1514462	REC_START	n/a	n/a	n/a	n/a	-999	9	[0, 0, 0]	n/a	catFR1	0	R1075J
1440.856	0.877	1516624	REC_WORD	0.877	n/a	SKIRT	Clothing	11	9	[0, 0, 0]	n/a	catFR1	0	R1075J
1441.733	1.266	1517501	REC_WORD	1.266	n/a	BLOUSE	Clothing	12	9	[0, 0, 0]	n/a	catFR1	0	R1075J
1442.999	5.042	1518767	REC_WORD	5.042	n/a	ATTIC	Building	4	9	[0, 0, 0]	n/a	catFR1	0	R1075J
1448.041	20.664	1523809	REC_WORD	20.664	n/a	FOUNDATION	Building	3	9	[0, 0, 0]	n/a	catFR1	0	R1075J
1468.705	1.925	1544474	REC_END	n/a	n/a	n/a	n/a	-999	9	[0, 0, 0]	n/a	catFR1	0	R1075J
1470.63	0.001	1546399	COUNTDOWN_START	n/a	n/a	n/a	n/a	-999	10	[0, 0, 0]	n/a	catFR1	0	R1075J
1470.631	10.427	1546400	TRIAL	n/a	n/a	n/a	n/a	-999	10	[0, 0, 0]	n/a	catFR1	0	R1075J
1481.058	0.008	1556827	COUNTDOWN_END	n/a	n/a	n/a	n/a	-999	10	[0, 0, 0]	n/a	catFR1	0	R1075J
1481.066	3.733	1556835	ORIENT	n/a	n/a	n/a	n/a	-999	10	[0, 0, 0]	n/a	catFR1	0	R1075J
1484.799	2.467	1560568	WORD	n/a	wordpools/wordpool_categorized_EN.txt	BASKETBALL	Toys	1	10	[0, 0, 0]	n/a	catFR1	0	R1075J
1487.266	2.501	1563035	WORD	n/a	wordpools/wordpool_categorized_EN.txt	DOLLHOUSE	Toys	2	10	[0, 0, 0]	n/a	catFR1	0	R1075J
1489.767	2.584	1565536	WORD	n/a	wordpools/wordpool_categorized_EN.txt	CALF	FarmAnimals	3	10	[0, 0, 0]	n/a	catFR1	0	R1075J
1492.351	2.416	1568120	WORD	n/a	wordpools/wordpool_categorized_EN.txt	COW	FarmAnimals	4	10	[0, 0, 0]	n/a	catFR1	0	R1075J
1494.767	2.418	1570536	WORD	n/a	wordpools/wordpool_categorized_EN.txt	PIE	Desserts	5	10	[0, 0, 0]	n/a	catFR1	0	R1075J
1497.185	2.449	1572955	WORD	n/a	wordpools/wordpool_categorized_EN.txt	COBBLER	Desserts	6	10	[0, 0, 0]	n/a	catFR1	0	R1075J
1499.634	2.585	1575404	WORD	n/a	wordpools/wordpool_categorized_EN.txt	BASEBALL	Toys	7	10	[0, 0, 0]	n/a	catFR1	0	R1075J
1502.219	2.415	1577989	WORD	n/a	wordpools/wordpool_categorized_EN.txt	BALL	Toys	8	10	[0, 0, 0]	n/a	catFR1	0	R1075J
1504.634	2.402	1580404	WORD	n/a	wordpools/wordpool_categorized_EN.txt	MOUSSE	Desserts	9	10	[0, 0, 0]	n/a	catFR1	0	R1075J
1507.036	2.616	1582806	WORD	n/a	wordpools/wordpool_categorized_EN.txt	CUPCAKE	Desserts	10	10	[0, 0, 0]	n/a	catFR1	0	R1075J
1509.652	2.568	1585422	WORD	n/a	wordpools/wordpool_categorized_EN.txt	HORSE	FarmAnimals	11	10	[0, 0, 0]	n/a	catFR1	0	R1075J
1512.22	1.616	1587990	WORD	n/a	wordpools/wordpool_categorized_EN.txt	LAMB	FarmAnimals	12	10	[0, 0, 0]	n/a	catFR1	0	R1075J
1513.836	0.001	1589606	DISTRACT_START	n/a	n/a	n/a	n/a	-999	10	[0, 0, 0]	n/a	catFR1	0	R1075J
1513.837	0.016	1589607	START	n/a	n/a	n/a	n/a	-999	10	[-999, -999, -999]	n/a	catFR1	0	R1075J
1513.853	3.617	1589623	PROB	3.617	n/a	n/a	n/a	-999	10	[4, 8, 3]	15	catFR1	0	R1075J
1517.47	4.334	1593240	PROB	4.334	n/a	n/a	n/a	-999	10	[7, 9, 9]	25	catFR1	0	R1075J
1521.804	2.799	1597574	PROB	2.799	n/a	n/a	n/a	-999	10	[2, 6, 6]	14	catFR1	0	R1075J
1524.603	2.635	1600373	PROB	2.635	n/a	n/a	n/a	-999	10	[6, 4, 4]	14	catFR1	0	R1075J
1527.238	3.217	1603008	PROB	3.217	n/a	n/a	n/a	-999	10	[4, 4, 8]	16	catFR1	0	R1075J
1530.455	2.817	1606225	PROB	2.817	n/a	n/a	n/a	-999	10	[6, 5, 1]	12	catFR1	0	R1075J
1533.272	2.949	1609043	PROB	2.949	n/a	n/a	n/a	-999	10	[3, 5, 9]	17	catFR1	0	R1075J
1536.221	0.018	1611992	STOP	n/a	n/a	n/a	n/a	-999	10	[-999, -999, -999]	n/a	catFR1	0	R1075J
1536.239	1.201	1612010	DISTRACT_END	n/a	n/a	n/a	n/a	-999	10	[0, 0, 0]	n/a	catFR1	0	R1075J
1537.44	1.737	1613211	REC_START	n/a	n/a	n/a	n/a	-999	10	[0, 0, 0]	n/a	catFR1	0	R1075J
1539.177	1.236	1614948	REC_WORD	1.236	n/a	BASEBALL	Toys	7	10	[0, 0, 0]	n/a	catFR1	0	R1075J
1540.413	0.474	1616184	REC_WORD	0.474	n/a	BALL	Toys	8	10	[0, 0, 0]	n/a	catFR1	0	R1075J
1540.887	5.213	1616658	REC_WORD	5.213	n/a	BASKETBALL	Toys	1	10	[0, 0, 0]	n/a	catFR1	0	R1075J
1546.1	5.222	1621871	REC_WORD	5.222	n/a	COBBLER	Desserts	6	10	[0, 0, 0]	n/a	catFR1	0	R1075J
1551.322	4.042	1627093	REC_WORD	4.042	n/a	HORSE	FarmAnimals	11	10	[0, 0, 0]	n/a	catFR1	0	R1075J
1555.364	4.026	1631135	REC_WORD	4.026	n/a	MOUSE	n/a	-999	10	[0, 0, 0]	n/a	catFR1	0	R1075J
1559.39	8.061	1635161	REC_WORD	8.061	n/a	STRAWBERRY	n/a	-999	10	[0, 0, 0]	n/a	catFR1	0	R1075J
1567.451	2.742	1643223	REC_END	n/a	n/a	n/a	n/a	-999	10	[0, 0, 0]	n/a	catFR1	0	R1075J
1570.193	0.001	1645965	COUNTDOWN_START	n/a	n/a	n/a	n/a	-999	11	[0, 0, 0]	n/a	catFR1	0	R1075J
1570.194	10.427	1645966	TRIAL	n/a	n/a	n/a	n/a	-999	11	[0, 0, 0]	n/a	catFR1	0	R1075J
1580.621	0.006	1656393	COUNTDOWN_END	n/a	n/a	n/a	n/a	-999	11	[0, 0, 0]	n/a	catFR1	0	R1075J
1580.627	3.635	1656399	ORIENT	n/a	n/a	n/a	n/a	-999	11	[0, 0, 0]	n/a	catFR1	0	R1075J
1584.262	2.6	1660034	WORD	n/a	wordpools/wordpool_categorized_EN.txt	OCTOPUS	OceanAnimals	1	11	[0, 0, 0]	n/a	catFR1	0	R1075J
1586.862	2.4	1662634	WORD	n/a	wordpools/wordpool_categorized_EN.txt	WHALE	OceanAnimals	2	11	[0, 0, 0]	n/a	catFR1	0	R1075J
1589.262	2.584	1665034	WORD	n/a	wordpools/wordpool_categorized_EN.txt	BOOKCASE	Furniture	3	11	[0, 0, 0]	n/a	catFR1	0	R1075J
1591.846	2.517	1667618	WORD	n/a	wordpools/wordpool_categorized_EN.txt	NIGHTSTAND	Furniture	4	11	[0, 0, 0]	n/a	catFR1	0	R1075J
1594.363	2.467	1670135	WORD	n/a	wordpools/wordpool_categorized_EN.txt	EAR	BodyParts	5	11	[0, 0, 0]	n/a	catFR1	0	R1075J
1596.83	2.517	1672602	WORD	n/a	wordpools/wordpool_categorized_EN.txt	FINGERS	BodyParts	6	11	[0, 0, 0]	n/a	catFR1	0	R1075J
1599.347	2.5	1675120	WORD	n/a	wordpools/wordpool_categorized_EN.txt	TURTLE	OceanAnimals	7	11	[0, 0, 0]	n/a	catFR1	0	R1075J
1601.847	2.567	1677620	WORD	n/a	wordpools/wordpool_categorized_EN.txt	OYSTER	OceanAnimals	8	11	[0, 0, 0]	n/a	catFR1	0	R1075J
1604.414	2.6	1680187	WORD	n/a	wordpools/wordpool_categorized_EN.txt	TOE	BodyParts	9	11	[0, 0, 0]	n/a	catFR1	0	R1075J
1607.014	2.434	1682787	WORD	n/a	wordpools/wordpool_categorized_EN.txt	HEAD	BodyParts	10	11	[0, 0, 0]	n/a	catFR1	0	R1075J
1609.448	2.434	1685221	WORD	n/a	wordpools/wordpool_categorized_EN.txt	RECLINER	Furniture	11	11	[0, 0, 0]	n/a	catFR1	0	R1075J
1611.882	1.616	1687655	WORD	n/a	wordpools/wordpool_categorized_EN.txt	CHAIR	Furniture	12	11	[0, 0, 0]	n/a	catFR1	0	R1075J
1613.498	0.001	1689271	DISTRACT_START	n/a	n/a	n/a	n/a	-999	11	[0, 0, 0]	n/a	catFR1	0	R1075J
1613.499	0.015	1689272	START	n/a	n/a	n/a	n/a	-999	11	[-999, -999, -999]	n/a	catFR1	0	R1075J
1613.514	2.835	1689287	PROB	2.835	n/a	n/a	n/a	-999	11	[5, 5, 2]	12	catFR1	0	R1075J
1616.349	2.434	1692122	PROB	2.434	n/a	n/a	n/a	-999	11	[9, 9, 3]	21	catFR1	0	R1075J
1618.783	2.949	1694556	PROB	2.949	n/a	n/a	n/a	-999	11	[8, 2, 3]	13	catFR1	0	R1075J
1621.732	2.368	1697505	PROB	2.368	n/a	n/a	n/a	-999	11	[3, 1, 8]	12	catFR1	0	R1075J
1624.1	2.632	1699873	PROB	2.632	n/a	n/a	n/a	-999	11	[2, 3, 4]	9	catFR1	0	R1075J
1626.732	2.868	1702505	PROB	2.868	n/a	n/a	n/a	-999	11	[6, 9, 3]	18	catFR1	0	R1075J
1629.6	2.234	1705373	PROB	2.234	n/a	n/a	n/a	-999	11	[1, 6, 4]	11	catFR1	0	R1075J
1631.834	2.758	1707607	PROB	2.758	n/a	n/a	n/a	-999	11	[4, 7, 5]	16	catFR1	0	R1075J
1634.592	0.008	1710366	STOP	n/a	n/a	n/a	n/a	-999	11	[-999, -999, -999]	n/a	catFR1	0	R1075J
1634.6	1.118	1710374	DISTRACT_END	n/a	n/a	n/a	n/a	-999	11	[0, 0, 0]	n/a	catFR1	0	R1075J
1635.718	2.235	1711492	REC_START	n/a	n/a	n/a	n/a	-999	11	[0, 0, 0]	n/a	catFR1	0	R1075J
1637.953	0.691	1713727	REC_WORD	0.691	n/a	OCTOPUS	OceanAnimals	1	11	[0, 0, 0]	n/a	catFR1	0	R1075J
1638.644	0.678	1714418	REC_WORD	0.678	n/a	WHALE	OceanAnimals	2	11	[0, 0, 0]	n/a	catFR1	0	R1075J
1639.322	2.656	1715096	REC_WORD	2.656	n/a	TURTLE	OceanAnimals	7	11	[0, 0, 0]	n/a	catFR1	0	R1075J
1641.978	2.377	1717752	REC_WORD	2.377	n/a	BOOKSHELF	n/a	-999	11	[0, 0, 0]	n/a	catFR1	0	R1075J
1644.355	0.478	1720129	REC_WORD	0.478	n/a	CHAIR	Furniture	12	11	[0, 0, 0]	n/a	catFR1	0	R1075J
1644.833	3.189	1720607	REC_WORD	3.189	n/a	RECLINER	Furniture	11	11	[0, 0, 0]	n/a	catFR1	0	R1075J
1648.022	3.585	1723796	REC_WORD	3.585	n/a	TOE	BodyParts	9	11	[0, 0, 0]	n/a	catFR1	0	R1075J
1651.607	1.331	1727381	REC_WORD_VV	1.331	n/a	<>	n/a	-999	11	[0, 0, 0]	n/a	catFR1	0	R1075J
1652.938	4.499	1728712	REC_WORD	4.499	n/a	FOOT	n/a	-999	11	[0, 0, 0]	n/a	catFR1	0	R1075J
1657.437	8.292	1733211	REC_WORD	8.292	n/a	LEG	n/a	-999	11	[0, 0, 0]	n/a	catFR1	0	R1075J
1665.729	1.992	1741503	REC_END	n/a	n/a	n/a	n/a	-999	11	[0, 0, 0]	n/a	catFR1	0	R1075J
1667.721	0.0	1743496	TRIAL	n/a	n/a	n/a	n/a	-999	12	[0, 0, 0]	n/a	catFR1	0	R1075J
1667.721	10.428	1743496	COUNTDOWN_START	n/a	n/a	n/a	n/a	-999	12	[0, 0, 0]	n/a	catFR1	0	R1075J
1678.149	0.007	1753924	COUNTDOWN_END	n/a	n/a	n/a	n/a	-999	12	[0, 0, 0]	n/a	catFR1	0	R1075J
1678.156	3.583	1753931	ORIENT	n/a	n/a	n/a	n/a	-999	12	[0, 0, 0]	n/a	catFR1	0	R1075J
1681.739	2.551	1757514	WORD	n/a	wordpools/wordpool_categorized_EN.txt	FISH	OceanAnimals	1	12	[0, 0, 0]	n/a	catFR1	0	R1075J
1684.29	2.617	1760065	WORD	n/a	wordpools/wordpool_categorized_EN.txt	CRAB	OceanAnimals	2	12	[0, 0, 0]	n/a	catFR1	0	R1075J
1686.907	2.484	1762682	WORD	n/a	wordpools/wordpool_categorized_EN.txt	POTATO	Vegetables	3	12	[0, 0, 0]	n/a	catFR1	0	R1075J
1689.391	2.451	1765166	WORD	n/a	wordpools/wordpool_categorized_EN.txt	CAULIFLOWER	Vegetables	4	12	[0, 0, 0]	n/a	catFR1	0	R1075J
1691.842	2.466	1767617	WORD	n/a	wordpools/wordpool_categorized_EN.txt	DRYER	Appliances	5	12	[0, 0, 0]	n/a	catFR1	0	R1075J
1694.308	2.433	1770083	WORD	n/a	wordpools/wordpool_categorized_EN.txt	WASHER	Appliances	6	12	[0, 0, 0]	n/a	catFR1	0	R1075J
1696.741	2.368	1772516	WORD	n/a	wordpools/wordpool_categorized_EN.txt	SPINACH	Vegetables	7	12	[0, 0, 0]	n/a	catFR1	0	R1075J
1699.109	2.483	1774884	WORD	n/a	wordpools/wordpool_categorized_EN.txt	CABBAGE	Vegetables	8	12	[0, 0, 0]	n/a	catFR1	0	R1075J
1701.592	2.467	1777368	WORD	n/a	wordpools/wordpool_categorized_EN.txt	SHRIMP	OceanAnimals	9	12	[0, 0, 0]	n/a	catFR1	0	R1075J
1704.059	2.583	1779835	WORD	n/a	wordpools/wordpool_categorized_EN.txt	DOLPHIN	OceanAnimals	10	12	[0, 0, 0]	n/a	catFR1	0	R1075J
1706.642	2.518	1782418	WORD	n/a	wordpools/wordpool_categorized_EN.txt	STOVE	Appliances	11	12	[0, 0, 0]	n/a	catFR1	0	R1075J
1709.16	1.617	1784936	WORD	n/a	wordpools/wordpool_categorized_EN.txt	REFRIGERATOR	Appliances	12	12	[0, 0, 0]	n/a	catFR1	0	R1075J
1710.777	0.001	1786553	DISTRACT_START	n/a	n/a	n/a	n/a	-999	12	[0, 0, 0]	n/a	catFR1	0	R1075J
1710.778	0.016	1786554	START	n/a	n/a	n/a	n/a	-999	12	[-999, -999, -999]	n/a	catFR1	0	R1075J
1710.794	3.233	1786570	PROB	3.233	n/a	n/a	n/a	-999	12	[7, 4, 9]	20	catFR1	0	R1075J
1714.027	2.417	1789803	PROB	2.417	n/a	n/a	n/a	-999	12	[2, 2, 4]	8	catFR1	0	R1075J
1716.444	3.25	1792220	PROB	3.25	n/a	n/a	n/a	-999	12	[3, 9, 3]	15	catFR1	0	R1075J
1719.694	3.351	1795470	PROB	3.351	n/a	n/a	n/a	-999	12	[6, 3, 9]	18	catFR1	0	R1075J
1723.045	2.633	1798821	PROB	2.633	n/a	n/a	n/a	-999	12	[2, 3, 8]	13	catFR1	0	R1075J
1725.678	3.151	1801454	PROB	3.151	n/a	n/a	n/a	-999	12	[4, 8, 6]	18	catFR1	0	R1075J
1728.829	2.544	1804605	PROB	2.544	n/a	n/a	n/a	-999	12	[2, 3, 8]	13	catFR1	0	R1075J
1731.373	0.007	1807149	STOP	n/a	n/a	n/a	n/a	-999	12	[-999, -999, -999]	n/a	catFR1	0	R1075J
1731.38	1.134	1807156	DISTRACT_END	n/a	n/a	n/a	n/a	-999	12	[0, 0, 0]	n/a	catFR1	0	R1075J
1732.514	1.676	1808290	REC_START	n/a	n/a	n/a	n/a	-999	12	[0, 0, 0]	n/a	catFR1	0	R1075J
1734.19	0.527	1809966	REC_WORD	0.527	n/a	WASHER	Appliances	6	12	[0, 0, 0]	n/a	catFR1	0	R1075J
1734.717	0.876	1810494	REC_WORD	0.876	n/a	DRYER	Appliances	5	12	[0, 0, 0]	n/a	catFR1	0	R1075J
1735.593	0.596	1811370	REC_WORD	0.596	n/a	REFRIGERATOR	Appliances	12	12	[0, 0, 0]	n/a	catFR1	0	R1075J
1736.189	6.639	1811966	REC_WORD	6.639	n/a	STOVE	Appliances	11	12	[0, 0, 0]	n/a	catFR1	0	R1075J
1742.828	19.695	1818605	REC_WORD	19.695	n/a	CAULIFLOWER	Vegetables	4	12	[0, 0, 0]	n/a	catFR1	0	R1075J
1762.523	2.143	1838300	REC_END	n/a	n/a	n/a	n/a	-999	12	[0, 0, 0]	n/a	catFR1	0	R1075J
1764.666	0.0	1840443	TRIAL	n/a	n/a	n/a	n/a	-999	13	[0, 0, 0]	n/a	catFR1	0	R1075J
1764.666	10.428	1840443	COUNTDOWN_START	n/a	n/a	n/a	n/a	-999	13	[0, 0, 0]	n/a	catFR1	0	R1075J
1775.094	0.008	1850872	COUNTDOWN_END	n/a	n/a	n/a	n/a	-999	13	[0, 0, 0]	n/a	catFR1	0	R1075J
1775.102	3.867	1850880	ORIENT	n/a	n/a	n/a	n/a	-999	13	[0, 0, 0]	n/a	catFR1	0	R1075J
1778.969	2.517	1854747	WORD	n/a	wordpools/wordpool_categorized_EN.txt	COMPUTER	Electronics	1	13	[0, 0, 0]	n/a	catFR1	0	R1075J
1781.486	2.4	1857264	WORD	n/a	wordpools/wordpool_categorized_EN.txt	TELEVISION	Electronics	2	13	[0, 0, 0]	n/a	catFR1	0	R1075J
1783.886	2.467	1859664	WORD	n/a	wordpools/wordpool_categorized_EN.txt	ELBOW	BodyParts	3	13	[0, 0, 0]	n/a	catFR1	0	R1075J
1786.353	2.601	1862131	WORD	n/a	wordpools/wordpool_categorized_EN.txt	KNEE	BodyParts	4	13	[0, 0, 0]	n/a	catFR1	0	R1075J
1788.954	2.599	1864732	WORD	n/a	wordpools/wordpool_categorized_EN.txt	BLENDER	Appliances	5	13	[0, 0, 0]	n/a	catFR1	0	R1075J
1791.553	2.467	1867331	WORD	n/a	wordpools/wordpool_categorized_EN.txt	DISHWASHER	Appliances	6	13	[0, 0, 0]	n/a	catFR1	0	R1075J
1794.02	2.5	1869798	WORD	n/a	wordpools/wordpool_categorized_EN.txt	TABLET	Electronics	7	13	[0, 0, 0]	n/a	catFR1	0	R1075J
1796.52	2.551	1872298	WORD	n/a	wordpools/wordpool_categorized_EN.txt	SCANNER	Electronics	8	13	[0, 0, 0]	n/a	catFR1	0	R1075J
1799.071	2.6	1874849	WORD	n/a	wordpools/wordpool_categorized_EN.txt	TOASTER	Appliances	9	13	[0, 0, 0]	n/a	catFR1	0	R1075J
1801.671	2.401	1877449	WORD	n/a	wordpools/wordpool_categorized_EN.txt	MIXER	Appliances	10	13	[0, 0, 0]	n/a	catFR1	0	R1075J
1804.072	2.482	1879851	WORD	n/a	wordpools/wordpool_categorized_EN.txt	ARM	BodyParts	11	13	[0, 0, 0]	n/a	catFR1	0	R1075J
1806.554	1.601	1882333	WORD	n/a	wordpools/wordpool_categorized_EN.txt	HAND	BodyParts	12	13	[0, 0, 0]	n/a	catFR1	0	R1075J
1808.155	0.001	1883934	DISTRACT_START	n/a	n/a	n/a	n/a	-999	13	[0, 0, 0]	n/a	catFR1	0	R1075J
1808.156	0.016	1883935	START	n/a	n/a	n/a	n/a	-999	13	[-999, -999, -999]	n/a	catFR1	0	R1075J
1808.172	3.467	1883951	PROB	3.467	n/a	n/a	n/a	-999	13	[9, 1, 8]	18	catFR1	0	R1075J
1811.639	2.217	1887418	PROB	2.217	n/a	n/a	n/a	-999	13	[1, 1, 4]	6	catFR1	0	R1075J
1813.856	2.951	1889635	PROB	2.951	n/a	n/a	n/a	-999	13	[5, 7, 6]	18	catFR1	0	R1075J
1816.807	3.234	1892586	PROB	3.234	n/a	n/a	n/a	-999	13	[2, 5, 7]	14	catFR1	0	R1075J
1820.041	2.499	1895820	PROB	2.499	n/a	n/a	n/a	-999	13	[5, 5, 2]	12	catFR1	0	R1075J
1822.54	2.618	1898319	PROB	2.618	n/a	n/a	n/a	-999	13	[4, 5, 9]	18	catFR1	0	R1075J
1825.158	2.333	1900937	PROB	2.333	n/a	n/a	n/a	-999	13	[6, 5, 1]	12	catFR1	0	R1075J
1827.491	6.219	1903270	PROB	6.219	n/a	n/a	n/a	-999	13	[1, 2, 1]	4	catFR1	0	R1075J
1833.71	0.014	1909489	STOP	n/a	n/a	n/a	n/a	-999	13	[-999, -999, -999]	n/a	catFR1	0	R1075J
1833.724	1.052	1909503	DISTRACT_END	n/a	n/a	n/a	n/a	-999	13	[0, 0, 0]	n/a	catFR1	0	R1075J
1834.776	1.437	1910555	REC_START	n/a	n/a	n/a	n/a	-999	13	[0, 0, 0]	n/a	catFR1	0	R1075J
1836.213	0.804	1911992	REC_WORD	0.804	n/a	DISHWASHER	Appliances	6	13	[0, 0, 0]	n/a	catFR1	0	R1075J
1837.017	3.272	1912797	REC_WORD	3.272	n/a	TOASTER	Appliances	9	13	[0, 0, 0]	n/a	catFR1	0	R1075J
1840.289	2.496	1916069	REC_WORD_VV	2.496	n/a	<>	n/a	-999	13	[0, 0, 0]	n/a	catFR1	0	R1075J
1842.785	6.22	1918565	REC_WORD	6.22	n/a	ARM	BodyParts	11	13	[0, 0, 0]	n/a	catFR1	0	R1075J
1849.005	6.848	1924785	REC_WORD	6.848	n/a	TOE	n/a	-999	13	[0, 0, 0]	n/a	catFR1	0	R1075J
1855.853	1.317	1931633	REC_WORD	1.317	n/a	TABLET	Electronics	7	13	[0, 0, 0]	n/a	catFR1	0	R1075J
1857.17	7.617	1932950	REC_WORD	7.617	n/a	SCANNER	Electronics	8	13	[0, 0, 0]	n/a	catFR1	0	R1075J
1864.787	2.792	1940567	REC_END	n/a	n/a	n/a	n/a	-999	13	[0, 0, 0]	n/a	catFR1	0	R1075J
1867.579	0.0	1943359	TRIAL	n/a	n/a	n/a	n/a	-999	14	[0, 0, 0]	n/a	catFR1	0	R1075J
1867.579	10.428	1943359	COUNTDOWN_START	n/a	n/a	n/a	n/a	-999	14	[0, 0, 0]	n/a	catFR1	0	R1075J
1878.007	0.007	1953788	COUNTDOWN_END	n/a	n/a	n/a	n/a	-999	14	[0, 0, 0]	n/a	catFR1	0	R1075J
1878.014	3.884	1953795	ORIENT	n/a	n/a	n/a	n/a	-999	14	[0, 0, 0]	n/a	catFR1	0	R1075J
1881.898	2.567	1957679	WORD	n/a	wordpools/wordpool_categorized_EN.txt	LETTUCE	Vegetables	1	14	[0, 0, 0]	n/a	catFR1	0	R1075J
1884.465	2.45	1960246	WORD	n/a	wordpools/wordpool_categorized_EN.txt	CARROT	Vegetables	2	14	[0, 0, 0]	n/a	catFR1	0	R1075J
1886.915	2.534	1962696	WORD	n/a	wordpools/wordpool_categorized_EN.txt	DAISY	Flowers	3	14	[0, 0, 0]	n/a	catFR1	0	R1075J
1889.449	2.4	1965230	WORD	n/a	wordpools/wordpool_categorized_EN.txt	MARIGOLD	Flowers	4	14	[0, 0, 0]	n/a	catFR1	0	R1075J
1891.849	2.567	1967630	WORD	n/a	wordpools/wordpool_categorized_EN.txt	WOODS	Landscapes	5	14	[0, 0, 0]	n/a	catFR1	0	R1075J
1894.416	2.55	1970197	WORD	n/a	wordpools/wordpool_categorized_EN.txt	RIVER	Landscapes	6	14	[0, 0, 0]	n/a	catFR1	0	R1075J
1896.966	2.616	1972747	WORD	n/a	wordpools/wordpool_categorized_EN.txt	PEAS	Vegetables	7	14	[0, 0, 0]	n/a	catFR1	0	R1075J
1899.582	2.602	1975363	WORD	n/a	wordpools/wordpool_categorized_EN.txt	CUCUMBER	Vegetables	8	14	[0, 0, 0]	n/a	catFR1	0	R1075J
1902.184	2.416	1977965	WORD	n/a	wordpools/wordpool_categorized_EN.txt	FOREST	Landscapes	9	14	[0, 0, 0]	n/a	catFR1	0	R1075J
1904.6	2.534	1980382	WORD	n/a	wordpools/wordpool_categorized_EN.txt	OCEAN	Landscapes	10	14	[0, 0, 0]	n/a	catFR1	0	R1075J
1907.134	2.616	1982916	WORD	n/a	wordpools/wordpool_categorized_EN.txt	ORCHID	Flowers	11	14	[0, 0, 0]	n/a	catFR1	0	R1075J
1909.75	1.601	1985532	WORD	n/a	wordpools/wordpool_categorized_EN.txt	SUNFLOWER	Flowers	12	14	[0, 0, 0]	n/a	catFR1	0	R1075J
1911.351	0.001	1987133	DISTRACT_START	n/a	n/a	n/a	n/a	-999	14	[0, 0, 0]	n/a	catFR1	0	R1075J
1911.352	0.016	1987134	START	n/a	n/a	n/a	n/a	-999	14	[-999, -999, -999]	n/a	catFR1	0	R1075J
1911.368	3.717	1987150	PROB	3.717	n/a	n/a	n/a	-999	14	[6, 8, 5]	19	catFR1	0	R1075J
1915.085	2.65	1990867	PROB	2.65	n/a	n/a	n/a	-999	14	[1, 9, 4]	14	catFR1	0	R1075J
1917.735	2.651	1993517	PROB	2.651	n/a	n/a	n/a	-999	14	[2, 5, 2]	9	catFR1	0	R1075J
1920.386	2.467	1996168	PROB	2.467	n/a	n/a	n/a	-999	14	[4, 2, 2]	8	catFR1	0	R1075J
1922.853	2.933	1998635	PROB	2.933	n/a	n/a	n/a	-999	14	[4, 9, 1]	14	catFR1	0	R1075J
1925.786	3.284	2001568	PROB	3.284	n/a	n/a	n/a	-999	14	[4, 1, 5]	10	catFR1	0	R1075J
1929.07	3.317	2004852	PROB	3.317	n/a	n/a	n/a	-999	14	[7, 2, 5]	14	catFR1	0	R1075J
1932.387	0.017	2008169	STOP	n/a	n/a	n/a	n/a	-999	14	[-999, -999, -999]	n/a	catFR1	0	R1075J
1932.404	1.166	2008186	DISTRACT_END	n/a	n/a	n/a	n/a	-999	14	[0, 0, 0]	n/a	catFR1	0	R1075J
1933.57	2.7	2009352	REC_START	n/a	n/a	n/a	n/a	-999	14	[0, 0, 0]	n/a	catFR1	0	R1075J
1936.27	0.608	2012052	REC_WORD	0.608	n/a	MARIGOLD	Flowers	4	14	[0, 0, 0]	n/a	catFR1	0	R1075J
1936.878	1.012	2012660	REC_WORD	1.012	n/a	ORCHARD	n/a	-999	14	[0, 0, 0]	n/a	catFR1	0	R1075J
1937.89	1.663	2013672	REC_WORD	1.663	n/a	ORCHID	Flowers	11	14	[0, 0, 0]	n/a	catFR1	0	R1075J
1939.553	1.827	2015336	REC_WORD_VV	1.827	n/a	<>	n/a	-999	14	[0, 0, 0]	n/a	catFR1	0	R1075J
1941.38	1.345	2017163	REC_WORD	1.345	n/a	LETTUCE	Vegetables	1	14	[0, 0, 0]	n/a	catFR1	0	R1075J
1942.725	5.717	2018508	REC_WORD	5.717	n/a	PEAS	Vegetables	7	14	[0, 0, 0]	n/a	catFR1	0	R1075J
1948.442	0.644	2024225	REC_WORD	0.644	n/a	RIVER	Landscapes	6	14	[0, 0, 0]	n/a	catFR1	0	R1075J
1949.086	0.655	2024869	REC_WORD	0.655	n/a	OCEAN	Landscapes	10	14	[0, 0, 0]	n/a	catFR1	0	R1075J
1949.741	13.844	2025524	REC_WORD	13.844	n/a	FOREST	Landscapes	9	14	[0, 0, 0]	n/a	catFR1	0	R1075J
1963.585	2.607	2039368	REC_END	n/a	n/a	n/a	n/a	-999	14	[0, 0, 0]	n/a	catFR1	0	R1075J
1966.192	0.0	2041975	TRIAL	n/a	n/a	n/a	n/a	-999	15	[0, 0, 0]	n/a	catFR1	0	R1075J
1966.192	10.428	2041975	COUNTDOWN_START	n/a	n/a	n/a	n/a	-999	15	[0, 0, 0]	n/a	catFR1	0	R1075J
1976.62	0.005	2052404	COUNTDOWN_END	n/a	n/a	n/a	n/a	-999	15	[0, 0, 0]	n/a	catFR1	0	R1075J
1976.625	3.718	2052409	ORIENT	n/a	n/a	n/a	n/a	-999	15	[0, 0, 0]	n/a	catFR1	0	R1075J
1980.343	2.451	2056127	WORD	n/a	wordpools/wordpool_categorized_EN.txt	CELLO	Instruments	1	15	[0, 0, 0]	n/a	catFR1	0	R1075J
1982.794	2.383	2058578	WORD	n/a	wordpools/wordpool_categorized_EN.txt	DRUM	Instruments	2	15	[0, 0, 0]	n/a	catFR1	0	R1075J
1985.177	2.549	2060961	WORD	n/a	wordpools/wordpool_categorized_EN.txt	PLIERS	Tools	3	15	[0, 0, 0]	n/a	catFR1	0	R1075J
1987.726	2.452	2063510	WORD	n/a	wordpools/wordpool_categorized_EN.txt	LEVEL	Tools	4	15	[0, 0, 0]	n/a	catFR1	0	R1075J
1990.178	2.483	2065962	WORD	n/a	wordpools/wordpool_categorized_EN.txt	PAPER	OfficeSupplies	5	15	[0, 0, 0]	n/a	catFR1	0	R1075J
1992.661	2.601	2068445	WORD	n/a	wordpools/wordpool_categorized_EN.txt	BINDER	OfficeSupplies	6	15	[0, 0, 0]	n/a	catFR1	0	R1075J
1995.262	2.517	2071046	WORD	n/a	wordpools/wordpool_categorized_EN.txt	RATCHET	Tools	7	15	[0, 0, 0]	n/a	catFR1	0	R1075J
1997.779	2.417	2073563	WORD	n/a	wordpools/wordpool_categorized_EN.txt	WRENCH	Tools	8	15	[0, 0, 0]	n/a	catFR1	0	R1075J
2000.196	2.6	2075980	WORD	n/a	wordpools/wordpool_categorized_EN.txt	GUITAR	Instruments	9	15	[0, 0, 0]	n/a	catFR1	0	R1075J
2002.796	2.45	2078580	WORD	n/a	wordpools/wordpool_categorized_EN.txt	FLUTE	Instruments	10	15	[0, 0, 0]	n/a	catFR1	0	R1075J
2005.246	2.416	2081030	WORD	n/a	wordpools/wordpool_categorized_EN.txt	TAPE	OfficeSupplies	11	15	[0, 0, 0]	n/a	catFR1	0	R1075J
2007.662	1.601	2083447	WORD	n/a	wordpools/wordpool_categorized_EN.txt	FOLDER	OfficeSupplies	12	15	[0, 0, 0]	n/a	catFR1	0	R1075J
2009.263	0.001	2085048	DISTRACT_START	n/a	n/a	n/a	n/a	-999	15	[0, 0, 0]	n/a	catFR1	0	R1075J
2009.264	0.016	2085049	START	n/a	n/a	n/a	n/a	-999	15	[-999, -999, -999]	n/a	catFR1	0	R1075J
2009.28	3.483	2085065	PROB	3.483	n/a	n/a	n/a	-999	15	[7, 8, 5]	20	catFR1	0	R1075J
2012.763	3.368	2088548	PROB	3.368	n/a	n/a	n/a	-999	15	[3, 4, 4]	15	catFR1	0	R1075J
2016.131	3.034	2091916	PROB	3.034	n/a	n/a	n/a	-999	15	[1, 3, 4]	8	catFR1	0	R1075J
2019.165	3.516	2094950	PROB	3.516	n/a	n/a	n/a	-999	15	[7, 6, 9]	22	catFR1	0	R1075J
2022.681	2.801	2098466	PROB	2.801	n/a	n/a	n/a	-999	15	[3, 9, 8]	20	catFR1	0	R1075J
2025.482	2.884	2101267	PROB	2.884	n/a	n/a	n/a	-999	15	[4, 4, 2]	10	catFR1	0	R1075J
2028.366	3.343	2104151	PROB	3.343	n/a	n/a	n/a	-999	15	[5, 6, 7]	18	catFR1	0	R1075J
2031.709	0.006	2107494	STOP	n/a	n/a	n/a	n/a	-999	15	[-999, -999, -999]	n/a	catFR1	0	R1075J
2031.715	1.035	2107500	DISTRACT_END	n/a	n/a	n/a	n/a	-999	15	[0, 0, 0]	n/a	catFR1	0	R1075J
2032.75	1.31	2108535	REC_START	n/a	n/a	n/a	n/a	-999	15	[0, 0, 0]	n/a	catFR1	0	R1075J
2034.06	1.248	2109845	REC_WORD	1.248	n/a	CELLO	Instruments	1	15	[0, 0, 0]	n/a	catFR1	0	R1075J
2035.308	3.009	2111093	REC_WORD	3.009	n/a	GUITAR	Instruments	9	15	[0, 0, 0]	n/a	catFR1	0	R1075J
2038.317	0.559	2114102	REC_WORD	0.559	n/a	PAPER	OfficeSupplies	5	15	[0, 0, 0]	n/a	catFR1	0	R1075J
2038.876	1.916	2114661	REC_WORD	1.916	n/a	BINDER	OfficeSupplies	6	15	[0, 0, 0]	n/a	catFR1	0	R1075J
2040.792	3.559	2116578	REC_WORD	3.559	n/a	RATCHET	Tools	7	15	[0, 0, 0]	n/a	catFR1	0	R1075J
2044.351	0.566	2120137	REC_WORD_VV	0.566	n/a	<>	n/a	-999	15	[0, 0, 0]	n/a	catFR1	0	R1075J
2044.917	4.004	2120703	REC_WORD	4.004	n/a	LEVEL	Tools	4	15	[0, 0, 0]	n/a	catFR1	0	R1075J
2048.921	13.84	2124707	REC_WORD	13.84	n/a	PLIERS	Tools	3	15	[0, 0, 0]	n/a	catFR1	0	R1075J
2062.761	2.526	2138547	REC_END	n/a	n/a	n/a	n/a	-999	15	[0, 0, 0]	n/a	catFR1	0	R1075J
2065.287	0.0	2141073	COUNTDOWN_START	n/a	n/a	n/a	n/a	-999	16	[0, 0, 0]	n/a	catFR1	0	R1075J
2065.287	10.428	2141073	TRIAL	n/a	n/a	n/a	n/a	-999	16	[0, 0, 0]	n/a	catFR1	0	R1075J
2075.715	0.005	2151502	COUNTDOWN_END	n/a	n/a	n/a	n/a	-999	16	[0, 0, 0]	n/a	catFR1	0	R1075J
2075.72	3.834	2151507	ORIENT	n/a	n/a	n/a	n/a	-999	16	[0, 0, 0]	n/a	catFR1	0	R1075J
2079.554	2.402	2155341	WORD	n/a	wordpools/wordpool_categorized_EN.txt	HEN	FarmAnimals	1	16	[0, 0, 0]	n/a	catFR1	0	R1075J
2081.956	2.533	2157743	WORD	n/a	wordpools/wordpool_categorized_EN.txt	TURKEY	FarmAnimals	2	16	[0, 0, 0]	n/a	catFR1	0	R1075J
2084.489	2.567	2160276	WORD	n/a	wordpools/wordpool_categorized_EN.txt	MILK	Beverages	3	16	[0, 0, 0]	n/a	catFR1	0	R1075J
2087.056	2.616	2162843	WORD	n/a	wordpools/wordpool_categorized_EN.txt	RUM	Beverages	4	16	[0, 0, 0]	n/a	catFR1	0	R1075J
2089.672	2.468	2165459	WORD	n/a	wordpools/wordpool_categorized_EN.txt	MOTH	Insects	5	16	[0, 0, 0]	n/a	catFR1	0	R1075J
2092.14	2.599	2167927	WORD	n/a	wordpools/wordpool_categorized_EN.txt	SPIDER	Insects	6	16	[0, 0, 0]	n/a	catFR1	0	R1075J
2094.739	2.568	2170526	WORD	n/a	wordpools/wordpool_categorized_EN.txt	CIDER	Beverages	7	16	[0, 0, 0]	n/a	catFR1	0	R1075J
2097.307	2.417	2173094	WORD	n/a	wordpools/wordpool_categorized_EN.txt	WATER	Beverages	8	16	[0, 0, 0]	n/a	catFR1	0	R1075J
2099.724	2.634	2175511	WORD	n/a	wordpools/wordpool_categorized_EN.txt	SHEEP	FarmAnimals	9	16	[0, 0, 0]	n/a	catFR1	0	R1075J
2102.358	2.45	2178145	WORD	n/a	wordpools/wordpool_categorized_EN.txt	GOAT	FarmAnimals	10	16	[0, 0, 0]	n/a	catFR1	0	R1075J
2104.808	2.451	2180595	WORD	n/a	wordpools/wordpool_categorized_EN.txt	ROACH	Insects	11	16	[0, 0, 0]	n/a	catFR1	0	R1075J
2107.259	1.617	2183046	WORD	n/a	wordpools/wordpool_categorized_EN.txt	GNAT	Insects	12	16	[0, 0, 0]	n/a	catFR1	0	R1075J
2108.876	0.001	2184664	DISTRACT_START	n/a	n/a	n/a	n/a	-999	16	[0, 0, 0]	n/a	catFR1	0	R1075J
2108.877	0.015	2184665	START	n/a	n/a	n/a	n/a	-999	16	[-999, -999, -999]	n/a	catFR1	0	R1075J
2108.892	2.65	2184680	PROB	2.65	n/a	n/a	n/a	-999	16	[1, 1, 6]	8	catFR1	0	R1075J
2111.542	2.884	2187330	PROB	2.884	n/a	n/a	n/a	-999	16	[5, 5, 5]	15	catFR1	0	R1075J
2114.426	2.5	2190214	PROB	2.5	n/a	n/a	n/a	-999	16	[9, 4, 1]	14	catFR1	0	R1075J
2116.926	2.501	2192714	PROB	2.501	n/a	n/a	n/a	-999	16	[7, 2, 1]	10	catFR1	0	R1075J
2119.427	4.0	2195215	PROB	4.0	n/a	n/a	n/a	-999	16	[2, 9, 3]	14	catFR1	0	R1075J
2123.427	3.984	2199215	PROB	3.984	n/a	n/a	n/a	-999	16	[4, 3, 3]	10	catFR1	0	R1075J
2127.411	4.158	2203199	PROB	4.158	n/a	n/a	n/a	-999	16	[3, 5, 7]	15	catFR1	0	R1075J
2131.569	0.009	2207357	STOP	n/a	n/a	n/a	n/a	-999	16	[-999, -999, -999]	n/a	catFR1	0	R1075J
2131.578	1.05	2207366	DISTRACT_END	n/a	n/a	n/a	n/a	-999	16	[0, 0, 0]	n/a	catFR1	0	R1075J
2132.628	1.493	2208416	REC_START	n/a	n/a	n/a	n/a	-999	16	[0, 0, 0]	n/a	catFR1	0	R1075J
2134.121	0.634	2209909	REC_WORD	0.634	n/a	GNAT	Insects	12	16	[0, 0, 0]	n/a	catFR1	0	R1075J
2134.755	14.965	2210543	REC_WORD	14.965	n/a	ROACH	Insects	11	16	[0, 0, 0]	n/a	catFR1	0	R1075J
2149.72	1.114	2225509	REC_WORD	1.114	n/a	RUM	Beverages	4	16	[0, 0, 0]	n/a	catFR1	0	R1075J
2150.834	1.307	2226623	REC_WORD	1.307	n/a	MILK	Beverages	3	16	[0, 0, 0]	n/a	catFR1	0	R1075J
2152.141	10.501	2227930	REC_WORD	10.501	n/a	SPIDER	Insects	6	16	[0, 0, 0]	n/a	catFR1	0	R1075J
2162.642	2.707	2238431	REC_END	n/a	n/a	n/a	n/a	-999	16	[0, 0, 0]	n/a	catFR1	0	R1075J
2165.349	0.0	2241138	TRIAL	n/a	n/a	n/a	n/a	-999	17	[0, 0, 0]	n/a	catFR1	0	R1075J
2165.349	10.428	2241138	COUNTDOWN_START	n/a	n/a	n/a	n/a	-999	17	[0, 0, 0]	n/a	catFR1	0	R1075J
2175.777	0.007	2251566	COUNTDOWN_END	n/a	n/a	n/a	n/a	-999	17	[0, 0, 0]	n/a	catFR1	0	R1075J
2175.784	3.667	2251573	ORIENT	n/a	n/a	n/a	n/a	-999	17	[0, 0, 0]	n/a	catFR1	0	R1075J
2179.451	2.55	2255241	WORD	n/a	wordpools/wordpool_categorized_EN.txt	FOOTBALL	Toys	1	17	[0, 0, 0]	n/a	catFR1	0	R1075J
2182.001	2.566	2257791	WORD	n/a	wordpools/wordpool_categorized_EN.txt	BLOCKS	Toys	2	17	[0, 0, 0]	n/a	catFR1	0	R1075J
2184.567	2.618	2260357	WORD	n/a	wordpools/wordpool_categorized_EN.txt	LION	Zoo	3	17	[0, 0, 0]	n/a	catFR1	0	R1075J
2187.185	2.499	2262975	WORD	n/a	wordpools/wordpool_categorized_EN.txt	ELEPHANT	Zoo	4	17	[0, 0, 0]	n/a	catFR1	0	R1075J
2189.684	2.385	2265474	WORD	n/a	wordpools/wordpool_categorized_EN.txt	JUICE	Beverages	5	17	[0, 0, 0]	n/a	catFR1	0	R1075J
2192.069	2.466	2267859	WORD	n/a	wordpools/wordpool_categorized_EN.txt	LEMONADE	Beverages	6	17	[0, 0, 0]	n/a	catFR1	0	R1075J
2194.535	2.384	2270325	WORD	n/a	wordpools/wordpool_categorized_EN.txt	BEAR	Zoo	7	17	[0, 0, 0]	n/a	catFR1	0	R1075J
2196.919	2.418	2272709	WORD	n/a	wordpools/wordpool_categorized_EN.txt	CHIMPANZEE	Zoo	8	17	[0, 0, 0]	n/a	catFR1	0	R1075J
2199.337	2.416	2275127	WORD	n/a	wordpools/wordpool_categorized_EN.txt	MARBLES	Toys	9	17	[0, 0, 0]	n/a	catFR1	0	R1075J
2201.753	2.551	2277543	WORD	n/a	wordpools/wordpool_categorized_EN.txt	BARBIE	Toys	10	17	[0, 0, 0]	n/a	catFR1	0	R1075J
2204.304	2.432	2280094	WORD	n/a	wordpools/wordpool_categorized_EN.txt	COLA	Beverages	11	17	[0, 0, 0]	n/a	catFR1	0	R1075J
2206.736	1.601	2282526	WORD	n/a	wordpools/wordpool_categorized_EN.txt	WINE	Beverages	12	17	[0, 0, 0]	n/a	catFR1	0	R1075J
2208.337	0.002	2284127	DISTRACT_START	n/a	n/a	n/a	n/a	-999	17	[0, 0, 0]	n/a	catFR1	0	R1075J
2208.339	0.015	2284129	START	n/a	n/a	n/a	n/a	-999	17	[-999, -999, -999]	n/a	catFR1	0	R1075J
2208.354	2.901	2284144	PROB	2.901	n/a	n/a	n/a	-999	17	[3, 4, 2]	9	catFR1	0	R1075J
2211.255	2.166	2287046	PROB	2.166	n/a	n/a	n/a	-999	17	[2, 1, 1]	4	catFR1	0	R1075J
2213.421	3.518	2289212	PROB	3.518	n/a	n/a	n/a	-999	17	[5, 7, 4]	16	catFR1	0	R1075J
2216.939	2.933	2292730	PROB	2.933	n/a	n/a	n/a	-999	17	[9, 6, 8]	23	catFR1	0	R1075J
2219.872	3.034	2295663	PROB	3.034	n/a	n/a	n/a	-999	17	[9, 2, 6]	17	catFR1	0	R1075J
2222.906	3.167	2298697	PROB	3.167	n/a	n/a	n/a	-999	17	[5, 6, 4]	15	catFR1	0	R1075J
2226.073	2.595	2301864	PROB	2.595	n/a	n/a	n/a	-999	17	[2, 3, 7]	12	catFR1	0	R1075J
2228.668	0.004	2304459	STOP	n/a	n/a	n/a	n/a	-999	17	[-999, -999, -999]	n/a	catFR1	0	R1075J
2228.672	1.068	2304463	DISTRACT_END	n/a	n/a	n/a	n/a	-999	17	[0, 0, 0]	n/a	catFR1	0	R1075J
2229.74	2.924	2305531	REC_START	n/a	n/a	n/a	n/a	-999	17	[0, 0, 0]	n/a	catFR1	0	R1075J
2232.664	3.298	2308455	REC_WORD_VV	3.298	n/a	<>	n/a	-999	17	[0, 0, 0]	n/a	catFR1	0	R1075J
2235.962	0.76	2311753	REC_WORD	0.76	n/a	BEAR	Zoo	7	17	[0, 0, 0]	n/a	catFR1	0	R1075J
2236.722	1.953	2312513	REC_WORD	1.953	n/a	ELEPHANT	Zoo	4	17	[0, 0, 0]	n/a	catFR1	0	R1075J
2238.675	1.474	2314466	REC_WORD	1.474	n/a	CHIMPANZEE	Zoo	8	17	[0, 0, 0]	n/a	catFR1	0	R1075J
2240.149	2.252	2315940	REC_WORD	2.252	n/a	FOOTBALL	Toys	1	17	[0, 0, 0]	n/a	catFR1	0	R1075J
2242.401	1.938	2318192	REC_WORD	1.938	n/a	MARBLES	Toys	9	17	[0, 0, 0]	n/a	catFR1	0	R1075J
2244.339	15.412	2320131	REC_WORD	15.412	n/a	BLOCKS	Toys	2	17	[0, 0, 0]	n/a	catFR1	0	R1075J
2259.751	2.593	2335543	REC_END	n/a	n/a	n/a	n/a	-999	17	[0, 0, 0]	n/a	catFR1	0	R1075J
2262.344	0.0	2338136	TRIAL	n/a	n/a	n/a	n/a	-999	18	[0, 0, 0]	n/a	catFR1	0	R1075J
2262.344	10.428	2338136	COUNTDOWN_START	n/a	n/a	n/a	n/a	-999	18	[0, 0, 0]	n/a	catFR1	0	R1075J
2272.772	0.007	2348564	COUNTDOWN_END	n/a	n/a	n/a	n/a	-999	18	[0, 0, 0]	n/a	catFR1	0	R1075J
2272.779	3.849	2348571	ORIENT	n/a	n/a	n/a	n/a	-999	18	[0, 0, 0]	n/a	catFR1	0	R1075J
2276.628	2.452	2352420	WORD	n/a	wordpools/wordpool_categorized_EN.txt	PRINTER	Electronics	1	18	[0, 0, 0]	n/a	catFR1	0	R1075J
2279.08	2.549	2354873	WORD	n/a	wordpools/wordpool_categorized_EN.txt	CALCULATOR	Electronics	2	18	[0, 0, 0]	n/a	catFR1	0	R1075J
2281.629	2.551	2357422	WORD	n/a	wordpools/wordpool_categorized_EN.txt	PUZZLE	Toys	3	18	[0, 0, 0]	n/a	catFR1	0	R1075J
2284.18	2.433	2359973	WORD	n/a	wordpools/wordpool_categorized_EN.txt	DOLL	Toys	4	18	[0, 0, 0]	n/a	catFR1	0	R1075J
2286.613	2.568	2362406	WORD	n/a	wordpools/wordpool_categorized_EN.txt	SHELF	Furniture	5	18	[0, 0, 0]	n/a	catFR1	0	R1075J
2289.181	2.433	2364974	WORD	n/a	wordpools/wordpool_categorized_EN.txt	SOFA	Furniture	6	18	[0, 0, 0]	n/a	catFR1	0	R1075J
2291.614	2.45	2367407	WORD	n/a	wordpools/wordpool_categorized_EN.txt	SLINKY	Toys	7	18	[0, 0, 0]	n/a	catFR1	0	R1075J
2294.064	2.384	2369857	WORD	n/a	wordpools/wordpool_categorized_EN.txt	FRISBEE	Toys	8	18	[0, 0, 0]	n/a	catFR1	0	R1075J
2296.448	2.417	2372241	WORD	n/a	wordpools/wordpool_categorized_EN.txt	PHONE	Electronics	9	18	[0, 0, 0]	n/a	catFR1	0	R1075J
2298.865	2.468	2374658	WORD	n/a	wordpools/wordpool_categorized_EN.txt	SPEAKER	Electronics	10	18	[0, 0, 0]	n/a	catFR1	0	R1075J
2301.333	2.499	2377126	WORD	n/a	wordpools/wordpool_categorized_EN.txt	CABINET	Furniture	11	18	[0, 0, 0]	n/a	catFR1	0	R1075J
2303.832	1.617	2379625	WORD	n/a	wordpools/wordpool_categorized_EN.txt	COUCH	Furniture	12	18	[0, 0, 0]	n/a	catFR1	0	R1075J
2305.449	0.001	2381242	DISTRACT_START	n/a	n/a	n/a	n/a	-999	18	[0, 0, 0]	n/a	catFR1	0	R1075J
2305.45	0.016	2381243	START	n/a	n/a	n/a	n/a	-999	18	[-999, -999, -999]	n/a	catFR1	0	R1075J
2305.466	3.317	2381259	PROB	3.317	n/a	n/a	n/a	-999	18	[3, 5, 9]	17	catFR1	0	R1075J
2308.783	3.184	2384576	PROB	3.184	n/a	n/a	n/a	-999	18	[8, 4, 4]	16	catFR1	0	R1075J
2311.967	2.817	2387761	PROB	2.817	n/a	n/a	n/a	-999	18	[1, 7, 5]	13	catFR1	0	R1075J
2314.784	2.65	2390578	PROB	2.65	n/a	n/a	n/a	-999	18	[2, 4, 6]	12	catFR1	0	R1075J
2317.434	2.984	2393228	PROB	2.984	n/a	n/a	n/a	-999	18	[5, 8, 2]	15	catFR1	0	R1075J
2320.418	3.249	2396212	PROB	3.249	n/a	n/a	n/a	-999	18	[1, 8, 5]	14	catFR1	0	R1075J
2323.667	3.821	2399461	PROB	3.821	n/a	n/a	n/a	-999	18	[2, 4, 4]	10	catFR1	0	R1075J
2327.488	0.014	2403282	STOP	n/a	n/a	n/a	n/a	-999	18	[-999, -999, -999]	n/a	catFR1	0	R1075J
2327.502	1.117	2403296	DISTRACT_END	n/a	n/a	n/a	n/a	-999	18	[0, 0, 0]	n/a	catFR1	0	R1075J
2328.619	30.0	2404413	REC_START	n/a	n/a	n/a	n/a	-999	18	[0, 0, 0]	n/a	catFR1	0	R1075J
2358.619	0.011	2434414	REC_WORD_VV	0.011	n/a	<>	n/a	-999	18	[0, 0, 0]	n/a	catFR1	0	R1075J
2358.63	2.042	2434425	REC_END	n/a	n/a	n/a	n/a	-999	18	[0, 0, 0]	n/a	catFR1	0	R1075J
2360.672	0.0	2436467	TRIAL	n/a	n/a	n/a	n/a	-999	19	[0, 0, 0]	n/a	catFR1	0	R1075J
2360.672	10.428	2436467	COUNTDOWN_START	n/a	n/a	n/a	n/a	-999	19	[0, 0, 0]	n/a	catFR1	0	R1075J
2371.1	0.008	2446895	COUNTDOWN_END	n/a	n/a	n/a	n/a	-999	19	[0, 0, 0]	n/a	catFR1	0	R1075J
2371.108	3.766	2446903	ORIENT	n/a	n/a	n/a	n/a	-999	19	[0, 0, 0]	n/a	catFR1	0	R1075J
2374.874	2.618	2450669	WORD	n/a	wordpools/wordpool_categorized_EN.txt	COOKIE	Desserts	1	19	[0, 0, 0]	n/a	catFR1	0	R1075J
2377.492	2.45	2453287	WORD	n/a	wordpools/wordpool_categorized_EN.txt	JELLO	Desserts	2	19	[0, 0, 0]	n/a	catFR1	0	R1075J
2379.942	2.45	2455738	WORD	n/a	wordpools/wordpool_categorized_EN.txt	SQUID	OceanAnimals	3	19	[0, 0, 0]	n/a	catFR1	0	R1075J
2382.392	2.534	2458188	WORD	n/a	wordpools/wordpool_categorized_EN.txt	JELLYFISH	OceanAnimals	4	19	[0, 0, 0]	n/a	catFR1	0	R1075J
2384.926	2.433	2460722	WORD	n/a	wordpools/wordpool_categorized_EN.txt	PINE	Trees	5	19	[0, 0, 0]	n/a	catFR1	0	R1075J
2387.359	2.601	2463155	WORD	n/a	wordpools/wordpool_categorized_EN.txt	SPRUCE	Trees	6	19	[0, 0, 0]	n/a	catFR1	0	R1075J
2389.96	2.384	2465756	WORD	n/a	wordpools/wordpool_categorized_EN.txt	CAKE	Desserts	7	19	[0, 0, 0]	n/a	catFR1	0	R1075J
2392.344	2.466	2468140	WORD	n/a	wordpools/wordpool_categorized_EN.txt	PUDDING	Desserts	8	19	[0, 0, 0]	n/a	catFR1	0	R1075J
2394.81	2.584	2470606	WORD	n/a	wordpools/wordpool_categorized_EN.txt	MAPLE	Trees	9	19	[0, 0, 0]	n/a	catFR1	0	R1075J
2397.394	2.4	2473190	WORD	n/a	wordpools/wordpool_categorized_EN.txt	BIRCH	Trees	10	19	[0, 0, 0]	n/a	catFR1	0	R1075J
2399.794	2.584	2475590	WORD	n/a	wordpools/wordpool_categorized_EN.txt	LOBSTER	OceanAnimals	11	19	[0, 0, 0]	n/a	catFR1	0	R1075J
2402.378	1.617	2478174	WORD	n/a	wordpools/wordpool_categorized_EN.txt	PLANKTON	OceanAnimals	12	19	[0, 0, 0]	n/a	catFR1	0	R1075J
2403.995	0.001	2479791	DISTRACT_START	n/a	n/a	n/a	n/a	-999	19	[0, 0, 0]	n/a	catFR1	0	R1075J
2403.996	0.015	2479792	START	n/a	n/a	n/a	n/a	-999	19	[-999, -999, -999]	n/a	catFR1	0	R1075J
2404.011	3.134	2479807	PROB	3.134	n/a	n/a	n/a	-999	19	[6, 3, 1]	10	catFR1	0	R1075J
2407.145	3.301	2482941	PROB	3.301	n/a	n/a	n/a	-999	19	[7, 4, 9]	20	catFR1	0	R1075J
2410.446	2.383	2486242	PROB	2.383	n/a	n/a	n/a	-999	19	[5, 2, 5]	12	catFR1	0	R1075J
2412.829	5.917	2488625	PROB	5.917	n/a	n/a	n/a	-999	19	[9, 4, 5]	17	catFR1	0	R1075J
2418.746	4.368	2494543	PROB	4.368	n/a	n/a	n/a	-999	19	[7, 3, 8]	18	catFR1	0	R1075J
2423.114	3.29	2498911	PROB	3.29	n/a	n/a	n/a	-999	19	[4, 5, 7]	16	catFR1	0	R1075J
2426.404	0.01	2502201	STOP	n/a	n/a	n/a	n/a	-999	19	[-999, -999, -999]	n/a	catFR1	0	R1075J
2426.414	1.233	2502211	DISTRACT_END	n/a	n/a	n/a	n/a	-999	19	[0, 0, 0]	n/a	catFR1	0	R1075J
2427.647	2.471	2503444	REC_START	n/a	n/a	n/a	n/a	-999	19	[0, 0, 0]	n/a	catFR1	0	R1075J
2430.118	0.767	2505915	REC_WORD	0.767	n/a	SHRIMP	n/a	-999	19	[0, 0, 0]	n/a	catFR1	0	R1075J
2430.885	22.379	2506682	REC_WORD	22.379	n/a	PLANKTON	OceanAnimals	12	19	[0, 0, 0]	n/a	catFR1	0	R1075J
2453.264	4.398	2529062	REC_WORD	4.398	n/a	LOBSTER	OceanAnimals	11	19	[0, 0, 0]	n/a	catFR1	0	R1075J
2457.662	1.939	2533460	REC_END	n/a	n/a	n/a	n/a	-999	19	[0, 0, 0]	n/a	catFR1	0	R1075J
2459.601	0.0	2535399	TRIAL	n/a	n/a	n/a	n/a	-999	20	[0, 0, 0]	n/a	catFR1	0	R1075J
2459.601	10.428	2535399	COUNTDOWN_START	n/a	n/a	n/a	n/a	-999	20	[0, 0, 0]	n/a	catFR1	0	R1075J
2470.029	0.007	2545827	COUNTDOWN_END	n/a	n/a	n/a	n/a	-999	20	[0, 0, 0]	n/a	catFR1	0	R1075J
2470.036	3.699	2545834	ORIENT	n/a	n/a	n/a	n/a	-999	20	[0, 0, 0]	n/a	catFR1	0	R1075J
2473.735	2.535	2549533	WORD	n/a	wordpools/wordpool_categorized_EN.txt	SCOOTER	Vehicles	1	20	[0, 0, 0]	n/a	catFR1	0	R1075J
2476.27	2.601	2552068	WORD	n/a	wordpools/wordpool_categorized_EN.txt	TRUCK	Vehicles	2	20	[0, 0, 0]	n/a	catFR1	0	R1075J
2478.871	2.417	2554669	WORD	n/a	wordpools/wordpool_categorized_EN.txt	LEMON	Fruit	3	20	[0, 0, 0]	n/a	catFR1	0	R1075J
2481.288	2.449	2557086	WORD	n/a	wordpools/wordpool_categorized_EN.txt	APPLE	Fruit	4	20	[0, 0, 0]	n/a	catFR1	0	R1075J
2483.737	2.585	2559536	WORD	n/a	wordpools/wordpool_categorized_EN.txt	STREAM	Landscapes	5	20	[0, 0, 0]	n/a	catFR1	0	R1075J
2486.322	2.467	2562121	WORD	n/a	wordpools/wordpool_categorized_EN.txt	LAKE	Landscapes	6	20	[0, 0, 0]	n/a	catFR1	0	R1075J
2488.789	2.4	2564588	WORD	n/a	wordpools/wordpool_categorized_EN.txt	LIME	Fruit	7	20	[0, 0, 0]	n/a	catFR1	0	R1075J
2491.189	2.482	2566988	WORD	n/a	wordpools/wordpool_categorized_EN.txt	PLUM	Fruit	8	20	[0, 0, 0]	n/a	catFR1	0	R1075J
2493.671	2.452	2569470	WORD	n/a	wordpools/wordpool_categorized_EN.txt	VAN	Vehicles	9	20	[0, 0, 0]	n/a	catFR1	0	R1075J
2496.123	2.599	2571922	WORD	n/a	wordpools/wordpool_categorized_EN.txt	CAR	Vehicles	10	20	[0, 0, 0]	n/a	catFR1	0	R1075J
2498.722	2.418	2574521	WORD	n/a	wordpools/wordpool_categorized_EN.txt	VALLEY	Landscapes	11	20	[0, 0, 0]	n/a	catFR1	0	R1075J
2501.14	1.616	2576939	WORD	n/a	wordpools/wordpool_categorized_EN.txt	ISLAND	Landscapes	12	20	[0, 0, 0]	n/a	catFR1	0	R1075J
2502.756	0.001	2578555	DISTRACT_START	n/a	n/a	n/a	n/a	-999	20	[0, 0, 0]	n/a	catFR1	0	R1075J
2502.757	0.017	2578556	START	n/a	n/a	n/a	n/a	-999	20	[-999, -999, -999]	n/a	catFR1	0	R1075J
2502.774	4.183	2578573	PROB	4.183	n/a	n/a	n/a	-999	20	[7, 2, 6]	15	catFR1	0	R1075J
2506.957	2.367	2582756	PROB	2.367	n/a	n/a	n/a	-999	20	[4, 1, 1]	6	catFR1	0	R1075J
2509.324	2.501	2585123	PROB	2.501	n/a	n/a	n/a	-999	20	[5, 5, 5]	15	catFR1	0	R1075J
2511.825	3.05	2587624	PROB	3.05	n/a	n/a	n/a	-999	20	[9, 6, 4]	19	catFR1	0	R1075J
2514.875	3.067	2590674	PROB	3.067	n/a	n/a	n/a	-999	20	[5, 4, 7]	16	catFR1	0	R1075J
2517.942	2.834	2593742	PROB	2.834	n/a	n/a	n/a	-999	20	[5, 7, 3]	15	catFR1	0	R1075J
2520.776	2.511	2596576	PROB	2.511	n/a	n/a	n/a	-999	20	[2, 5, 6]	13	catFR1	0	R1075J
2523.287	0.006	2599087	STOP	n/a	n/a	n/a	n/a	-999	20	[-999, -999, -999]	n/a	catFR1	0	R1075J
2523.293	1.084	2599093	DISTRACT_END	n/a	n/a	n/a	n/a	-999	20	[0, 0, 0]	n/a	catFR1	0	R1075J
2524.377	2.054	2600177	REC_START	n/a	n/a	n/a	n/a	-999	20	[0, 0, 0]	n/a	catFR1	0	R1075J
2526.431	0.675	2602231	REC_WORD	0.675	n/a	VAN	Vehicles	9	20	[0, 0, 0]	n/a	catFR1	0	R1075J
2527.106	3.186	2602906	REC_WORD	3.186	n/a	CAR	Vehicles	10	20	[0, 0, 0]	n/a	catFR1	0	R1075J
2530.292	2.894	2606092	REC_WORD	2.894	n/a	VALLEY	Landscapes	11	20	[0, 0, 0]	n/a	catFR1	0	R1075J
2533.186	7.538	2608986	REC_WORD	7.538	n/a	ISLAND	Landscapes	12	20	[0, 0, 0]	n/a	catFR1	0	R1075J
2540.724	13.664	2616524	REC_WORD	13.664	n/a	STOOL	n/a	-999	20	[0, 0, 0]	n/a	catFR1	0	R1075J
2554.388	2.158	2630189	REC_END	n/a	n/a	n/a	n/a	-999	20	[0, 0, 0]	n/a	catFR1	0	R1075J
2556.546	0.0	2632347	TRIAL	n/a	n/a	n/a	n/a	-999	21	[0, 0, 0]	n/a	catFR1	0	R1075J
2556.546	10.428	2632347	COUNTDOWN_START	n/a	n/a	n/a	n/a	-999	21	[0, 0, 0]	n/a	catFR1	0	R1075J
2566.974	0.007	2642775	COUNTDOWN_END	n/a	n/a	n/a	n/a	-999	21	[0, 0, 0]	n/a	catFR1	0	R1075J
2566.981	3.733	2642782	ORIENT	n/a	n/a	n/a	n/a	-999	21	[0, 0, 0]	n/a	catFR1	0	R1075J
2570.714	2.518	2646515	WORD	n/a	wordpools/wordpool_categorized_EN.txt	LILY	Flowers	1	21	[0, 0, 0]	n/a	catFR1	0	R1075J
2573.232	2.382	2649033	WORD	n/a	wordpools/wordpool_categorized_EN.txt	VIOLET	Flowers	2	21	[0, 0, 0]	n/a	catFR1	0	R1075J
2575.614	2.602	2651415	WORD	n/a	wordpools/wordpool_categorized_EN.txt	COLANDER	KitchenTools	3	21	[0, 0, 0]	n/a	catFR1	0	R1075J
2578.216	2.516	2654017	WORD	n/a	wordpools/wordpool_categorized_EN.txt	LADLE	KitchenTools	4	21	[0, 0, 0]	n/a	catFR1	0	R1075J
2580.732	2.534	2656533	WORD	n/a	wordpools/wordpool_categorized_EN.txt	DRIZZLE	Weather	5	21	[0, 0, 0]	n/a	catFR1	0	R1075J
2583.266	2.534	2659067	WORD	n/a	wordpools/wordpool_categorized_EN.txt	TORNADO	Weather	6	21	[0, 0, 0]	n/a	catFR1	0	R1075J
2585.8	2.467	2661602	WORD	n/a	wordpools/wordpool_categorized_EN.txt	CARNATION	Flowers	7	21	[0, 0, 0]	n/a	catFR1	0	R1075J
2588.267	2.383	2664069	WORD	n/a	wordpools/wordpool_categorized_EN.txt	LILAC	Flowers	8	21	[0, 0, 0]	n/a	catFR1	0	R1075J
2590.65	2.468	2666452	WORD	n/a	wordpools/wordpool_categorized_EN.txt	THUNDER	Weather	9	21	[0, 0, 0]	n/a	catFR1	0	R1075J
2593.118	2.616	2668920	WORD	n/a	wordpools/wordpool_categorized_EN.txt	LIGHTNING	Weather	10	21	[0, 0, 0]	n/a	catFR1	0	R1075J
2595.734	2.585	2671536	WORD	n/a	wordpools/wordpool_categorized_EN.txt	PEELER	KitchenTools	11	21	[0, 0, 0]	n/a	catFR1	0	R1075J
2598.319	1.617	2674121	WORD	n/a	wordpools/wordpool_categorized_EN.txt	SPATULA	KitchenTools	12	21	[0, 0, 0]	n/a	catFR1	0	R1075J
2599.936	0.001	2675738	DISTRACT_START	n/a	n/a	n/a	n/a	-999	21	[0, 0, 0]	n/a	catFR1	0	R1075J
2599.937	0.015	2675739	START	n/a	n/a	n/a	n/a	-999	21	[-999, -999, -999]	n/a	catFR1	0	R1075J
2599.952	3.0	2675754	PROB	3.0	n/a	n/a	n/a	-999	21	[9, 6, 6]	21	catFR1	0	R1075J
2602.952	2.716	2678754	PROB	2.716	n/a	n/a	n/a	-999	21	[5, 2, 7]	14	catFR1	0	R1075J
2605.668	2.851	2681470	PROB	2.851	n/a	n/a	n/a	-999	21	[9, 6, 4]	19	catFR1	0	R1075J
2608.519	8.217	2684321	PROB	8.217	n/a	n/a	n/a	-999	21	[5, 2, 3]	10	catFR1	0	R1075J
2616.736	2.769	2692538	PROB	2.769	n/a	n/a	n/a	-999	21	[1, 4, 7]	12	catFR1	0	R1075J
2619.505	3.37	2695308	PROB	3.37	n/a	n/a	n/a	-999	21	[9, 4, 4]	17	catFR1	0	R1075J
2622.875	0.013	2698678	STOP	n/a	n/a	n/a	n/a	-999	21	[-999, -999, -999]	n/a	catFR1	0	R1075J
2622.888	1.084	2698691	DISTRACT_END	n/a	n/a	n/a	n/a	-999	21	[0, 0, 0]	n/a	catFR1	0	R1075J
2623.972	1.902	2699775	REC_START	n/a	n/a	n/a	n/a	-999	21	[0, 0, 0]	n/a	catFR1	0	R1075J
2625.874	0.75	2701677	REC_WORD	0.75	n/a	SPATULA	KitchenTools	12	21	[0, 0, 0]	n/a	catFR1	0	R1075J
2626.624	2.957	2702427	REC_WORD	2.957	n/a	COLANDER	KitchenTools	3	21	[0, 0, 0]	n/a	catFR1	0	R1075J
2629.581	3.09	2705384	REC_WORD	3.09	n/a	PEELER	KitchenTools	11	21	[0, 0, 0]	n/a	catFR1	0	R1075J
2632.671	0.682	2708474	REC_WORD	0.682	n/a	DRIZZLE	Weather	5	21	[0, 0, 0]	n/a	catFR1	0	R1075J
2633.353	2.755	2709156	REC_WORD	2.755	n/a	THUNDERSTORM	n/a	-999	21	[0, 0, 0]	n/a	catFR1	0	R1075J
2636.108	17.875	2711911	REC_WORD	17.875	n/a	TORNADO	Weather	6	21	[0, 0, 0]	n/a	catFR1	0	R1075J
2653.983	1.976	2729787	REC_END	n/a	n/a	n/a	n/a	-999	21	[0, 0, 0]	n/a	catFR1	0	R1075J
2655.959	0.0	2731763	TRIAL	n/a	n/a	n/a	n/a	-999	22	[0, 0, 0]	n/a	catFR1	0	R1075J
2655.959	10.428	2731763	COUNTDOWN_START	n/a	n/a	n/a	n/a	-999	22	[0, 0, 0]	n/a	catFR1	0	R1075J
2666.387	0.006	2742191	COUNTDOWN_END	n/a	n/a	n/a	n/a	-999	22	[0, 0, 0]	n/a	catFR1	0	R1075J
2666.393	3.517	2742197	ORIENT	n/a	n/a	n/a	n/a	-999	22	[0, 0, 0]	n/a	catFR1	0	R1075J
2669.91	2.551	2745714	WORD	n/a	wordpools/wordpool_categorized_EN.txt	TONGS	KitchenTools	1	22	[0, 0, 0]	n/a	catFR1	0	R1075J
2672.461	2.617	2748265	WORD	n/a	wordpools/wordpool_categorized_EN.txt	KNIFE	KitchenTools	2	22	[0, 0, 0]	n/a	catFR1	0	R1075J
2675.078	2.549	2750882	WORD	n/a	wordpools/wordpool_categorized_EN.txt	CEDAR	Trees	3	22	[0, 0, 0]	n/a	catFR1	0	R1075J
2677.627	2.402	2753431	WORD	n/a	wordpools/wordpool_categorized_EN.txt	HICKORY	Trees	4	22	[0, 0, 0]	n/a	catFR1	0	R1075J
2680.029	2.417	2755833	WORD	n/a	wordpools/wordpool_categorized_EN.txt	PIG	FarmAnimals	5	22	[0, 0, 0]	n/a	catFR1	0	R1075J
2682.446	2.549	2758250	WORD	n/a	wordpools/wordpool_categorized_EN.txt	ROOSTER	FarmAnimals	6	22	[0, 0, 0]	n/a	catFR1	0	R1075J
2684.995	2.384	2760799	WORD	n/a	wordpools/wordpool_categorized_EN.txt	EVERGREEN	Trees	7	22	[0, 0, 0]	n/a	catFR1	0	R1075J
2687.379	2.401	2763184	WORD	n/a	wordpools/wordpool_categorized_EN.txt	ELM	Trees	8	22	[0, 0, 0]	n/a	catFR1	0	R1075J
2689.78	2.484	2765585	WORD	n/a	wordpools/wordpool_categorized_EN.txt	WHISK	KitchenTools	9	22	[0, 0, 0]	n/a	catFR1	0	R1075J
2692.264	2.415	2768069	WORD	n/a	wordpools/wordpool_categorized_EN.txt	GRATER	KitchenTools	10	22	[0, 0, 0]	n/a	catFR1	0	R1075J
2694.679	2.602	2770484	WORD	n/a	wordpools/wordpool_categorized_EN.txt	BULL	FarmAnimals	11	22	[0, 0, 0]	n/a	catFR1	0	R1075J
2697.281	1.616	2773086	WORD	n/a	wordpools/wordpool_categorized_EN.txt	CHICKEN	FarmAnimals	12	22	[0, 0, 0]	n/a	catFR1	0	R1075J
2698.897	0.001	2774702	DISTRACT_START	n/a	n/a	n/a	n/a	-999	22	[0, 0, 0]	n/a	catFR1	0	R1075J
2698.898	0.016	2774703	START	n/a	n/a	n/a	n/a	-999	22	[-999, -999, -999]	n/a	catFR1	0	R1075J
2698.914	4.15	2774719	PROB	4.15	n/a	n/a	n/a	-999	22	[9, 2, 8]	19	catFR1	0	R1075J
2703.064	3.001	2778869	PROB	3.001	n/a	n/a	n/a	-999	22	[7, 6, 4]	17	catFR1	0	R1075J
2706.065	3.267	2781870	PROB	3.267	n/a	n/a	n/a	-999	22	[8, 3, 6]	17	catFR1	0	R1075J
2709.332	3.134	2785137	PROB	3.134	n/a	n/a	n/a	-999	22	[9, 1, 5]	15	catFR1	0	R1075J
2712.466	2.95	2788271	PROB	2.95	n/a	n/a	n/a	-999	22	[2, 4, 8]	14	catFR1	0	R1075J
2715.416	3.116	2791221	PROB	3.116	n/a	n/a	n/a	-999	22	[2, 5, 9]	16	catFR1	0	R1075J
2718.532	2.634	2794337	PROB	2.634	n/a	n/a	n/a	-999	22	[8, 1, 1]	10	catFR1	0	R1075J
2721.166	0.018	2796972	STOP	n/a	n/a	n/a	n/a	-999	22	[-999, -999, -999]	n/a	catFR1	0	R1075J
2721.184	1.084	2796990	DISTRACT_END	n/a	n/a	n/a	n/a	-999	22	[0, 0, 0]	n/a	catFR1	0	R1075J
2722.268	4.714	2798074	REC_START	n/a	n/a	n/a	n/a	-999	22	[0, 0, 0]	n/a	catFR1	0	R1075J
2726.982	25.294	2802788	REC_WORD	25.294	n/a	BULL	FarmAnimals	11	22	[0, 0, 0]	n/a	catFR1	0	R1075J
2752.276	1.978	2828082	REC_END	n/a	n/a	n/a	n/a	-999	22	[0, 0, 0]	n/a	catFR1	0	R1075J
2754.254	0.0	2830061	TRIAL	n/a	n/a	n/a	n/a	-999	23	[0, 0, 0]	n/a	catFR1	0	R1075J
2754.254	10.428	2830061	COUNTDOWN_START	n/a	n/a	n/a	n/a	-999	23	[0, 0, 0]	n/a	catFR1	0	R1075J
2764.682	0.006	2840489	COUNTDOWN_END	n/a	n/a	n/a	n/a	-999	23	[0, 0, 0]	n/a	catFR1	0	R1075J
2764.688	3.451	2840495	ORIENT	n/a	n/a	n/a	n/a	-999	23	[0, 0, 0]	n/a	catFR1	0	R1075J
2768.139	2.566	2843946	WORD	n/a	wordpools/wordpool_categorized_EN.txt	WILLOW	Trees	1	23	[0, 0, 0]	n/a	catFR1	0	R1075J
2770.705	2.501	2846512	WORD	n/a	wordpools/wordpool_categorized_EN.txt	OAK	Trees	2	23	[0, 0, 0]	n/a	catFR1	0	R1075J
2773.206	2.5	2849013	WORD	n/a	wordpools/wordpool_categorized_EN.txt	HUMIDITY	Weather	3	23	[0, 0, 0]	n/a	catFR1	0	R1075J
2775.706	2.468	2851513	WORD	n/a	wordpools/wordpool_categorized_EN.txt	FOG	Weather	4	23	[0, 0, 0]	n/a	catFR1	0	R1075J
2778.174	2.383	2853981	WORD	n/a	wordpools/wordpool_categorized_EN.txt	FLOOR	Building	5	23	[0, 0, 0]	n/a	catFR1	0	R1075J
2780.557	2.584	2856364	WORD	n/a	wordpools/wordpool_categorized_EN.txt	DOOR	Building	6	23	[0, 0, 0]	n/a	catFR1	0	R1075J
2783.141	2.533	2858948	WORD	n/a	wordpools/wordpool_categorized_EN.txt	CYPRESS	Trees	7	23	[0, 0, 0]	n/a	catFR1	0	R1075J
2785.674	2.601	2861481	WORD	n/a	wordpools/wordpool_categorized_EN.txt	WALNUT	Trees	8	23	[0, 0, 0]	n/a	catFR1	0	R1075J
2788.275	2.617	2864083	WORD	n/a	wordpools/wordpool_categorized_EN.txt	ROOF	Building	9	23	[0, 0, 0]	n/a	catFR1	0	R1075J
2790.892	2.45	2866700	WORD	n/a	wordpools/wordpool_categorized_EN.txt	WINDOW	Building	10	23	[0, 0, 0]	n/a	catFR1	0	R1075J
2793.342	2.434	2869150	WORD	n/a	wordpools/wordpool_categorized_EN.txt	HURRICANE	Weather	11	23	[0, 0, 0]	n/a	catFR1	0	R1075J
2795.776	1.617	2871584	WORD	n/a	wordpools/wordpool_categorized_EN.txt	SNOW	Weather	12	23	[0, 0, 0]	n/a	catFR1	0	R1075J
2797.393	0.0	2873201	DISTRACT_START	n/a	n/a	n/a	n/a	-999	23	[0, 0, 0]	n/a	catFR1	0	R1075J
2797.393	0.016	2873201	START	n/a	n/a	n/a	n/a	-999	23	[-999, -999, -999]	n/a	catFR1	0	R1075J
2797.409	3.534	2873217	PROB	3.534	n/a	n/a	n/a	-999	23	[5, 7, 7]	19	catFR1	0	R1075J
2800.943	2.467	2876751	PROB	2.467	n/a	n/a	n/a	-999	23	[3, 5, 4]	12	catFR1	0	R1075J
2803.41	2.634	2879218	PROB	2.634	n/a	n/a	n/a	-999	23	[8, 1, 9]	18	catFR1	0	R1075J
2806.044	2.767	2881852	PROB	2.767	n/a	n/a	n/a	-999	23	[1, 8, 9]	18	catFR1	0	R1075J
2808.811	2.749	2884619	PROB	2.749	n/a	n/a	n/a	-999	23	[7, 3, 6]	16	catFR1	0	R1075J
2811.56	3.017	2887368	PROB	3.017	n/a	n/a	n/a	-999	23	[3, 7, 8]	18	catFR1	0	R1075J
2814.577	2.832	2890385	PROB	2.832	n/a	n/a	n/a	-999	23	[4, 4, 2]	10	catFR1	0	R1075J
2817.409	0.02	2893217	STOP	n/a	n/a	n/a	n/a	-999	23	[-999, -999, -999]	n/a	catFR1	0	R1075J
2817.429	1.132	2893237	DISTRACT_END	n/a	n/a	n/a	n/a	-999	23	[0, 0, 0]	n/a	catFR1	0	R1075J
2818.561	2.298	2894369	REC_START	n/a	n/a	n/a	n/a	-999	23	[0, 0, 0]	n/a	catFR1	0	R1075J
2820.859	0.691	2896667	REC_WORD	0.691	n/a	FLOOR	Building	5	23	[0, 0, 0]	n/a	catFR1	0	R1075J
2821.55	1.614	2897358	REC_WORD	1.614	n/a	DOOR	Building	6	23	[0, 0, 0]	n/a	catFR1	0	R1075J
2823.164	2.035	2898973	REC_WORD	2.035	n/a	WINDOW	Building	10	23	[0, 0, 0]	n/a	catFR1	0	R1075J
2825.199	2.666	2901008	REC_WORD	2.666	n/a	HURRICANE	Weather	11	23	[0, 0, 0]	n/a	catFR1	0	R1075J
2827.865	0.648	2903674	REC_WORD	0.648	n/a	WILLOW	Trees	1	23	[0, 0, 0]	n/a	catFR1	0	R1075J
2828.513	3.773	2904322	REC_WORD	3.773	n/a	OAK	Trees	2	23	[0, 0, 0]	n/a	catFR1	0	R1075J
2832.286	0.154	2908095	REC_WORD_VV	0.154	n/a	<>	n/a	-999	23	[0, 0, 0]	n/a	catFR1	0	R1075J
2832.44	13.053	2908249	REC_WORD	13.053	n/a	CYPRESS	Trees	7	23	[0, 0, 0]	n/a	catFR1	0	R1075J
2845.493	3.088	2921302	REC_WORD	3.088	n/a	ROOF	Building	9	23	[0, 0, 0]	n/a	catFR1	0	R1075J
2848.581	2.552	2924390	REC_END	n/a	n/a	n/a	n/a	-999	23	[0, 0, 0]	n/a	catFR1	0	R1075J
2851.133	0.0	2926942	TRIAL	n/a	n/a	n/a	n/a	-999	24	[0, 0, 0]	n/a	catFR1	0	R1075J
2851.133	10.428	2926942	COUNTDOWN_START	n/a	n/a	n/a	n/a	-999	24	[0, 0, 0]	n/a	catFR1	0	R1075J
2861.561	0.005	2937371	COUNTDOWN_END	n/a	n/a	n/a	n/a	-999	24	[0, 0, 0]	n/a	catFR1	0	R1075J
2861.566	3.568	2937376	ORIENT	n/a	n/a	n/a	n/a	-999	24	[0, 0, 0]	n/a	catFR1	0	R1075J
2865.134	2.566	2940944	WORD	n/a	wordpools/wordpool_categorized_EN.txt	BLUEBERRY	Fruit	1	24	[0, 0, 0]	n/a	catFR1	0	R1075J
2867.7	2.468	2943510	WORD	n/a	wordpools/wordpool_categorized_EN.txt	ORANGE	Fruit	2	24	[0, 0, 0]	n/a	catFR1	0	R1075J
2870.168	2.55	2945978	WORD	n/a	wordpools/wordpool_categorized_EN.txt	NOTEBOOK	OfficeSupplies	3	24	[0, 0, 0]	n/a	catFR1	0	R1075J
2872.718	2.618	2948528	WORD	n/a	wordpools/wordpool_categorized_EN.txt	ERASER	OfficeSupplies	4	24	[0, 0, 0]	n/a	catFR1	0	R1075J
2875.336	2.5	2951146	WORD	n/a	wordpools/wordpool_categorized_EN.txt	ZEBRA	Zoo	5	24	[0, 0, 0]	n/a	catFR1	0	R1075J
2877.836	2.617	2953646	WORD	n/a	wordpools/wordpool_categorized_EN.txt	CHEETAH	Zoo	6	24	[0, 0, 0]	n/a	catFR1	0	R1075J
2880.453	2.533	2956263	WORD	n/a	wordpools/wordpool_categorized_EN.txt	STAPLER	OfficeSupplies	7	24	[0, 0, 0]	n/a	catFR1	0	R1075J
2882.986	2.467	2958796	WORD	n/a	wordpools/wordpool_categorized_EN.txt	PEN	OfficeSupplies	8	24	[0, 0, 0]	n/a	catFR1	0	R1075J
2885.453	2.518	2961263	WORD	n/a	wordpools/wordpool_categorized_EN.txt	CHERRY	Fruit	9	24	[0, 0, 0]	n/a	catFR1	0	R1075J
2887.971	2.616	2963781	WORD	n/a	wordpools/wordpool_categorized_EN.txt	PEAR	Fruit	10	24	[0, 0, 0]	n/a	catFR1	0	R1075J
2890.587	2.501	2966398	WORD	n/a	wordpools/wordpool_categorized_EN.txt	ORANGUTAN	Zoo	11	24	[0, 0, 0]	n/a	catFR1	0	R1075J
2893.088	1.615	2968899	WORD	n/a	wordpools/wordpool_categorized_EN.txt	GIRAFFE	Zoo	12	24	[0, 0, 0]	n/a	catFR1	0	R1075J
2894.703	0.001	2970514	DISTRACT_START	n/a	n/a	n/a	n/a	-999	24	[0, 0, 0]	n/a	catFR1	0	R1075J
2894.704	0.016	2970515	START	n/a	n/a	n/a	n/a	-999	24	[-999, -999, -999]	n/a	catFR1	0	R1075J
2894.72	3.851	2970531	PROB	3.851	n/a	n/a	n/a	-999	24	[9, 8, 2]	19	catFR1	0	R1075J
2898.571	2.318	2974382	PROB	2.318	n/a	n/a	n/a	-999	24	[4, 3, 5]	12	catFR1	0	R1075J
2900.889	2.483	2976700	PROB	2.483	n/a	n/a	n/a	-999	24	[7, 3, 3]	13	catFR1	0	R1075J
2903.372	2.451	2979183	PROB	2.451	n/a	n/a	n/a	-999	24	[9, 4, 1]	14	catFR1	0	R1075J
2905.823	6.017	2981634	PROB	6.017	n/a	n/a	n/a	-999	24	[7, 6, 5]	18	catFR1	0	R1075J
2911.84	2.899	2987651	PROB	2.899	n/a	n/a	n/a	-999	24	[9, 3, 7]	19	catFR1	0	R1075J
2914.739	0.017	2990550	STOP	n/a	n/a	n/a	n/a	-999	24	[-999, -999, -999]	n/a	catFR1	0	R1075J
2914.756	1.152	2990567	DISTRACT_END	n/a	n/a	n/a	n/a	-999	24	[0, 0, 0]	n/a	catFR1	0	R1075J
2915.908	3.532	2991719	REC_START	n/a	n/a	n/a	n/a	-999	24	[0, 0, 0]	n/a	catFR1	0	R1075J
2919.44	0.477	2995251	REC_WORD	0.477	n/a	CHEETAH	Zoo	6	24	[0, 0, 0]	n/a	catFR1	0	R1075J
2919.917	1.013	2995728	REC_WORD	1.013	n/a	ZEBRA	Zoo	5	24	[0, 0, 0]	n/a	catFR1	0	R1075J
2920.93	7.252	2996741	REC_WORD	7.252	n/a	ORANGUTAN	Zoo	11	24	[0, 0, 0]	n/a	catFR1	0	R1075J
2928.182	1.655	3003994	REC_WORD	1.655	n/a	BLUEBERRY	Fruit	1	24	[0, 0, 0]	n/a	catFR1	0	R1075J
2929.837	5.689	3005649	REC_WORD	5.689	n/a	PEAR	Fruit	10	24	[0, 0, 0]	n/a	catFR1	0	R1075J
2935.526	10.393	3011338	REC_WORD	10.393	n/a	ORANGE	Fruit	2	24	[0, 0, 0]	n/a	catFR1	0	R1075J
2945.919	2.275	3021731	REC_END	n/a	n/a	n/a	n/a	-999	24	[0, 0, 0]	n/a	catFR1	0	R1075J
2948.194	0.001	3024006	COUNTDOWN_START	n/a	n/a	n/a	n/a	-999	25	[0, 0, 0]	n/a	catFR1	0	R1075J
2948.195	10.427	3024007	TRIAL	n/a	n/a	n/a	n/a	-999	25	[0, 0, 0]	n/a	catFR1	0	R1075J
2958.622	0.006	3034435	COUNTDOWN_END	n/a	n/a	n/a	n/a	-999	25	[0, 0, 0]	n/a	catFR1	0	R1075J
2958.628	3.735	3034441	ORIENT	n/a	n/a	n/a	n/a	-999	25	[0, 0, 0]	n/a	catFR1	0	R1075J
2962.363	2.399	3038176	WORD	n/a	wordpools/wordpool_categorized_EN.txt	BOAT	Vehicles	1	25	[0, 0, 0]	n/a	catFR1	0	R1075J
2964.762	2.468	3040575	WORD	n/a	wordpools/wordpool_categorized_EN.txt	JEEP	Vehicles	2	25	[0, 0, 0]	n/a	catFR1	0	R1075J
2967.23	2.617	3043043	WORD	n/a	wordpools/wordpool_categorized_EN.txt	CHEESECAKE	Desserts	3	25	[0, 0, 0]	n/a	catFR1	0	R1075J
2969.847	2.501	3045660	WORD	n/a	wordpools/wordpool_categorized_EN.txt	BROWNIES	Desserts	4	25	[0, 0, 0]	n/a	catFR1	0	R1075J
2972.348	2.483	3048161	WORD	n/a	wordpools/wordpool_categorized_EN.txt	PETUNIA	Flowers	5	25	[0, 0, 0]	n/a	catFR1	0	R1075J
2974.831	2.567	3050644	WORD	n/a	wordpools/wordpool_categorized_EN.txt	ROSE	Flowers	6	25	[0, 0, 0]	n/a	catFR1	0	R1075J
2977.398	2.584	3053211	WORD	n/a	wordpools/wordpool_categorized_EN.txt	BIKE	Vehicles	7	25	[0, 0, 0]	n/a	catFR1	0	R1075J
2979.982	2.384	3055795	WORD	n/a	wordpools/wordpool_categorized_EN.txt	PLANE	Vehicles	8	25	[0, 0, 0]	n/a	catFR1	0	R1075J
2982.366	2.382	3058179	WORD	n/a	wordpools/wordpool_categorized_EN.txt	DAFFODIL	Flowers	9	25	[0, 0, 0]	n/a	catFR1	0	R1075J
2984.748	2.568	3060561	WORD	n/a	wordpools/wordpool_categorized_EN.txt	TULIP	Flowers	10	25	[0, 0, 0]	n/a	catFR1	0	R1075J
2987.316	2.433	3063129	WORD	n/a	wordpools/wordpool_categorized_EN.txt	FUDGE	Desserts	11	25	[0, 0, 0]	n/a	catFR1	0	R1075J
2989.749	1.618	3065562	WORD	n/a	wordpools/wordpool_categorized_EN.txt	PASTRY	Desserts	12	25	[0, 0, 0]	n/a	catFR1	0	R1075J
2991.367	0.0	3067180	DISTRACT_START	n/a	n/a	n/a	n/a	-999	25	[0, 0, 0]	n/a	catFR1	0	R1075J
2991.367	0.016	3067180	START	n/a	n/a	n/a	n/a	-999	25	[-999, -999, -999]	n/a	catFR1	0	R1075J
2991.383	4.084	3067196	PROB	4.084	n/a	n/a	n/a	-999	25	[3, 8, 9]	20	catFR1	0	R1075J
2995.467	4.233	3071281	PROB	4.233	n/a	n/a	n/a	-999	25	[8, 9, 9]	26	catFR1	0	R1075J
2999.7	3.0	3075514	PROB	3.0	n/a	n/a	n/a	-999	25	[9, 3, 6]	18	catFR1	0	R1075J
3002.7	3.034	3078514	PROB	3.034	n/a	n/a	n/a	-999	25	[4, 9, 3]	16	catFR1	0	R1075J
3005.734	2.784	3081548	PROB	2.784	n/a	n/a	n/a	-999	25	[7, 2, 8]	17	catFR1	0	R1075J
3008.518	3.402	3084332	PROB	3.402	n/a	n/a	n/a	-999	25	[5, 9, 2]	16	catFR1	0	R1075J
3011.92	0.016	3087734	STOP	n/a	n/a	n/a	n/a	-999	25	[-999, -999, -999]	n/a	catFR1	0	R1075J
3011.936	1.117	3087750	DISTRACT_END	n/a	n/a	n/a	n/a	-999	25	[0, 0, 0]	n/a	catFR1	0	R1075J
3013.053	4.526	3088867	REC_START	n/a	n/a	n/a	n/a	-999	25	[0, 0, 0]	n/a	catFR1	0	R1075J
3017.579	3.848	3093393	REC_WORD	3.848	n/a	BROWNIES	Desserts	4	25	[0, 0, 0]	n/a	catFR1	0	R1075J
3021.427	21.637	3097241	REC_WORD	21.637	n/a	FUDGE	Desserts	11	25	[0, 0, 0]	n/a	catFR1	0	R1075J
3043.064	15.294	3118879	REC_END	n/a	n/a	n/a	n/a	-999	25	[0, 0, 0]	n/a	catFR1	0	R1075J
3058.358	0.0	3134173	SESS_END	n/a	n/a	n/a	n/a	-999	25	[0, 0, 0]	n/a	catFR1	0	R1075J
