onset	duration	sample	trial_type	response_time	stim_file	item_name	category	serialpos	list	test	answer	experiment	session	subject
0.0	487.192	1640	INSTRUCT_START	n/a	n/a	n/a	n/a	-999	-999	[0, 0, 0]	n/a	catFR1	0	R1370E
487.192	26.038	488972	INSTRUCT_END	n/a	n/a	n/a	n/a	-999	-999	[0, 0, 0]	n/a	catFR1	0	R1370E
513.23	10.0	515012	COUNTDOWN_START	n/a	n/a	n/a	n/a	-999	-999	[0, 0, 0]	n/a	catFR1	0	R1370E
523.659	1.074	525415	COUNTDOWN_END	n/a	n/a	n/a	n/a	-999	-999	[0, 0, 0]	n/a	catFR1	0	R1370E
524.733	0.804	526489	ENCODING_START	n/a	n/a	n/a	n/a	-999	-1	[0, 0, 0]	n/a	catFR1	0	R1370E
525.537	1.6	527302	WORD	n/a	n/a	HOUR	n/a	1	-1	[0, 0, 0]	n/a	catFR1	0	R1370E
527.165	0.84	528914	WORD_OFF	n/a	n/a	HOUR	n/a	1	-1	[0, 0, 0]	n/a	catFR1	0	R1370E
528.005	1.6	529768	WORD	n/a	n/a	TEACHER	n/a	2	-1	[0, 0, 0]	n/a	catFR1	0	R1370E
529.633	0.986	531380	WORD_OFF	n/a	n/a	TEACHER	n/a	2	-1	[0, 0, 0]	n/a	catFR1	0	R1370E
530.619	1.6	532386	WORD	n/a	n/a	LEATHER	n/a	3	-1	[0, 0, 0]	n/a	catFR1	0	R1370E
532.249	0.825	533998	WORD_OFF	n/a	n/a	LEATHER	n/a	3	-1	[0, 0, 0]	n/a	catFR1	0	R1370E
533.074	1.6	534825	WORD	n/a	n/a	WOOL	n/a	4	-1	[0, 0, 0]	n/a	catFR1	0	R1370E
534.684	1.119	536437	WORD_OFF	n/a	n/a	WOOL	n/a	4	-1	[0, 0, 0]	n/a	catFR1	0	R1370E
535.803	1.6	537567	WORD	n/a	n/a	SILK	n/a	5	-1	[0, 0, 0]	n/a	catFR1	0	R1370E
537.434	0.983	539179	WORD_OFF	n/a	n/a	SILK	n/a	5	-1	[0, 0, 0]	n/a	catFR1	0	R1370E
538.417	1.6	540184	WORD	n/a	n/a	PLUMBER	n/a	6	-1	[0, 0, 0]	n/a	catFR1	0	R1370E
540.05	0.83	541796	WORD_OFF	n/a	n/a	PLUMBER	n/a	6	-1	[0, 0, 0]	n/a	catFR1	0	R1370E
540.88	1.6	542637	WORD	n/a	n/a	FIREMAN	n/a	7	-1	[0, 0, 0]	n/a	catFR1	0	R1370E
542.502	0.876	544249	WORD_OFF	n/a	n/a	FIREMAN	n/a	7	-1	[0, 0, 0]	n/a	catFR1	0	R1370E
543.378	1.6	545131	WORD	n/a	n/a	DAY	n/a	8	-1	[0, 0, 0]	n/a	catFR1	0	R1370E
545.001	1.065	546756	WORD_OFF	n/a	n/a	DAY	n/a	8	-1	[0, 0, 0]	n/a	catFR1	0	R1370E
546.066	1.6	547831	WORD	n/a	n/a	DENIM	n/a	9	-1	[0, 0, 0]	n/a	catFR1	0	R1370E
547.703	1.102	549457	WORD_OFF	n/a	n/a	DENIM	n/a	9	-1	[0, 0, 0]	n/a	catFR1	0	R1370E
548.805	1.6	550573	WORD	n/a	n/a	FARMER	n/a	10	-1	[0, 0, 0]	n/a	catFR1	0	R1370E
550.437	0.961	552185	WORD_OFF	n/a	n/a	FARMER	n/a	10	-1	[0, 0, 0]	n/a	catFR1	0	R1370E
551.398	1.6	553149	WORD	n/a	n/a	MINUTE	n/a	11	-1	[0, 0, 0]	n/a	catFR1	0	R1370E
553.019	0.859	554761	WORD_OFF	n/a	n/a	MINUTE	n/a	11	-1	[0, 0, 0]	n/a	catFR1	0	R1370E
553.878	1.6	555629	WORD	n/a	n/a	SECOND	n/a	12	-1	[0, 0, 0]	n/a	catFR1	0	R1370E
555.504	0.001	557269	WORD_OFF	n/a	n/a	SECOND	n/a	12	-1	[0, 0, 0]	n/a	catFR1	0	R1370E
555.505	0.0	557269	ENCODING_END	n/a	n/a	n/a	n/a	-999	-1	[0, 0, 0]	n/a	catFR1	0	R1370E
555.505	0.0	557269	DISTRACT_START	n/a	n/a	n/a	n/a	-999	-1	[0, 0, 0]	n/a	catFR1	0	R1370E
555.505	0.016	557271	START	n/a	n/a	n/a	n/a	-999	-1	[-999, -999, -999]	n/a	catFR1	0	R1370E
555.521	52.126	557287	PROB	52.106	n/a	n/a	n/a	-999	-1	[8, 9, 9]	26.0	catFR1	0	R1370E
607.647	0.0	609390	DISTRACT_END	n/a	n/a	n/a	n/a	-999	-1	[0, 0, 0]	n/a	catFR1	0	R1370E
607.627	2.321	609391	STOP	n/a	n/a	n/a	n/a	-999	-1	[-999, -999, -999]	n/a	catFR1	0	R1370E
609.948	10.603	611705	REC_START	n/a	n/a	n/a	n/a	-999	-1	[0, 0, 0]	n/a	catFR1	0	R1370E
620.551	19.41	622314	REC_WORD	10.603	n/a	TEACHER	n/a	2	-1	[0, 0, 0]	n/a	catFR1	0	R1370E
639.961	96.709	642746	REC_END	n/a	n/a	n/a	n/a	-999	-1	[0, 0, 0]	n/a	catFR1	0	R1370E
736.67	10.0	738446	COUNTDOWN_START	n/a	n/a	n/a	n/a	-999	1	[0, 0, 0]	n/a	catFR1	0	R1370E
747.1	1.104	748849	COUNTDOWN_END	n/a	n/a	n/a	n/a	-999	1	[0, 0, 0]	n/a	catFR1	0	R1370E
748.204	0.822	749951	ENCODING_START	n/a	n/a	n/a	n/a	-999	1	[0, 0, 0]	n/a	catFR1	0	R1370E
749.026	1.6	750778	WORD	n/a	wordpools/wordpool_categorized_EN.txt	REFRIGERATOR	Appliances	1	1	[0, 0, 0]	n/a	catFR1	0	R1370E
750.655	1.103	752390	WORD_OFF	n/a	n/a	REFRIGERATOR	Appliances	1	1	[0, 0, 0]	n/a	catFR1	0	R1370E
751.758	1.6	753506	WORD	n/a	wordpools/wordpool_categorized_EN.txt	DRYER	Appliances	2	1	[0, 0, 0]	n/a	catFR1	0	R1370E
753.389	0.903	755131	WORD_OFF	n/a	n/a	DRYER	Appliances	2	1	[0, 0, 0]	n/a	catFR1	0	R1370E
754.292	1.6	756041	WORD	n/a	wordpools/wordpool_categorized_EN.txt	CELLO	Instruments	3	1	[0, 0, 0]	n/a	catFR1	0	R1370E
755.905	0.905	757639	WORD_OFF	n/a	n/a	CELLO	Instruments	3	1	[0, 0, 0]	n/a	catFR1	0	R1370E
756.81	1.6	758562	WORD	n/a	wordpools/wordpool_categorized_EN.txt	PIANO	Instruments	4	1	[0, 0, 0]	n/a	catFR1	0	R1370E
758.44	0.861	760174	WORD_OFF	n/a	n/a	PIANO	Instruments	4	1	[0, 0, 0]	n/a	catFR1	0	R1370E
759.301	1.6	761042	WORD	n/a	wordpools/wordpool_categorized_EN.txt	TURTLE	OceanAnimals	5	1	[0, 0, 0]	n/a	catFR1	0	R1370E
760.907	0.913	762640	WORD_OFF	n/a	n/a	TURTLE	OceanAnimals	5	1	[0, 0, 0]	n/a	catFR1	0	R1370E
761.82	1.6	763563	WORD	n/a	wordpools/wordpool_categorized_EN.txt	OYSTER	OceanAnimals	6	1	[0, 0, 0]	n/a	catFR1	0	R1370E
763.441	0.822	765175	WORD_OFF	n/a	n/a	OYSTER	OceanAnimals	6	1	[0, 0, 0]	n/a	catFR1	0	R1370E
764.263	1.6	766016	WORD	n/a	wordpools/wordpool_categorized_EN.txt	VACUUM	Appliances	7	1	[0, 0, 0]	n/a	catFR1	0	R1370E
765.891	0.929	767628	WORD_OFF	n/a	n/a	VACUUM	Appliances	7	1	[0, 0, 0]	n/a	catFR1	0	R1370E
766.82	1.6	768565	WORD	n/a	wordpools/wordpool_categorized_EN.txt	FREEZER	Appliances	8	1	[0, 0, 0]	n/a	catFR1	0	R1370E
768.441	1.047	770177	WORD_OFF	n/a	n/a	FREEZER	Appliances	8	1	[0, 0, 0]	n/a	catFR1	0	R1370E
769.488	1.6	771251	WORD	n/a	wordpools/wordpool_categorized_EN.txt	WHALE	OceanAnimals	9	1	[0, 0, 0]	n/a	catFR1	0	R1370E
771.124	1.089	772863	WORD_OFF	n/a	n/a	WHALE	OceanAnimals	9	1	[0, 0, 0]	n/a	catFR1	0	R1370E
772.213	1.6	773966	WORD	n/a	wordpools/wordpool_categorized_EN.txt	SQUID	OceanAnimals	10	1	[0, 0, 0]	n/a	catFR1	0	R1370E
773.825	0.884	775564	WORD_OFF	n/a	n/a	SQUID	OceanAnimals	10	1	[0, 0, 0]	n/a	catFR1	0	R1370E
774.709	1.6	776459	WORD	n/a	wordpools/wordpool_categorized_EN.txt	TROMBONE	Instruments	11	1	[0, 0, 0]	n/a	catFR1	0	R1370E
776.342	0.794	778085	WORD_OFF	n/a	n/a	TROMBONE	Instruments	11	1	[0, 0, 0]	n/a	catFR1	0	R1370E
777.136	1.6	778884	WORD	n/a	wordpools/wordpool_categorized_EN.txt	TUBA	Instruments	12	1	[0, 0, 0]	n/a	catFR1	0	R1370E
778.76	0.001	780510	WORD_OFF	n/a	n/a	TUBA	Instruments	12	1	[0, 0, 0]	n/a	catFR1	0	R1370E
778.761	0.0	780519	START	n/a	n/a	n/a	n/a	-999	1	[-999, -999, -999]	n/a	catFR1	0	R1370E
778.76	0.001	780524	ENCODING_END	n/a	n/a	n/a	n/a	-999	1	[0, 0, 0]	n/a	catFR1	0	R1370E
778.761	0.015	780524	DISTRACT_START	n/a	n/a	n/a	n/a	-999	1	[0, 0, 0]	n/a	catFR1	0	R1370E
778.776	20.203	780534	PROB	20.193	n/a	n/a	n/a	-999	1	[7, 3, 2]	12.0	catFR1	0	R1370E
798.979	0.0	800722	DISTRACT_END	n/a	n/a	n/a	n/a	-999	1	[0, 0, 0]	n/a	catFR1	0	R1370E
798.969	2.178	800726	STOP	n/a	n/a	n/a	n/a	-999	1	[-999, -999, -999]	n/a	catFR1	0	R1370E
801.147	0.0	802899	REC_START	n/a	n/a	n/a	n/a	-999	1	[0, 0, 0]	n/a	catFR1	0	R1370E
801.147	0.785	802904	REC_WORD_VV	0.0	n/a	<>	n/a	-999	1	[0, 0, 0]	n/a	catFR1	0	R1370E
801.932	1.403	803689	REC_WORD	0.785	n/a	WHALE	OceanAnimals	9	1	[0, 0, 0]	n/a	catFR1	0	R1370E
803.335	1.422	805092	REC_WORD	2.188	n/a	TUBA	Instruments	12	1	[0, 0, 0]	n/a	catFR1	0	R1370E
804.757	3.109	806514	REC_WORD	3.61	n/a	OYSTER	OceanAnimals	6	1	[0, 0, 0]	n/a	catFR1	0	R1370E
807.866	7.047	809623	REC_WORD	6.719	n/a	REFRIGERATOR	Appliances	1	1	[0, 0, 0]	n/a	catFR1	0	R1370E
814.913	16.246	816669	REC_WORD_VV	13.766	n/a	<>	n/a	-999	1	[0, 0, 0]	n/a	catFR1	0	R1370E
831.159	10.061	832921	REC_END	n/a	n/a	n/a	n/a	-999	1	[0, 0, 0]	n/a	catFR1	0	R1370E
841.22	10.0	842992	COUNTDOWN_START	n/a	n/a	n/a	n/a	-999	2	[0, 0, 0]	n/a	catFR1	0	R1370E
851.648	1.109	853394	COUNTDOWN_END	n/a	n/a	n/a	n/a	-999	2	[0, 0, 0]	n/a	catFR1	0	R1370E
852.757	1.107	854497	ENCODING_START	n/a	n/a	n/a	n/a	-999	2	[0, 0, 0]	n/a	catFR1	0	R1370E
853.864	1.6	855613	WORD	n/a	wordpools/wordpool_categorized_EN.txt	SAW	Tools	1	2	[0, 0, 0]	n/a	catFR1	0	R1370E
855.49	0.875	857225	WORD_OFF	n/a	n/a	SAW	Tools	1	2	[0, 0, 0]	n/a	catFR1	0	R1370E
856.365	1.6	858106	WORD	n/a	wordpools/wordpool_categorized_EN.txt	AXE	Tools	2	2	[0, 0, 0]	n/a	catFR1	0	R1370E
857.989	0.864	859732	WORD_OFF	n/a	n/a	AXE	Tools	2	2	[0, 0, 0]	n/a	catFR1	0	R1370E
858.853	1.6	860614	WORD	n/a	wordpools/wordpool_categorized_EN.txt	TORNADO	Weather	3	2	[0, 0, 0]	n/a	catFR1	0	R1370E
860.491	0.959	862226	WORD_OFF	n/a	n/a	TORNADO	Weather	3	2	[0, 0, 0]	n/a	catFR1	0	R1370E
861.45	1.6	863190	WORD	n/a	wordpools/wordpool_categorized_EN.txt	WIND	Weather	4	2	[0, 0, 0]	n/a	catFR1	0	R1370E
863.074	1.112	864816	WORD_OFF	n/a	n/a	WIND	Weather	4	2	[0, 0, 0]	n/a	catFR1	0	R1370E
864.186	1.6	865932	WORD	n/a	wordpools/wordpool_categorized_EN.txt	TIGER	Zoo	5	2	[0, 0, 0]	n/a	catFR1	0	R1370E
865.792	0.836	867530	WORD_OFF	n/a	n/a	TIGER	Zoo	5	2	[0, 0, 0]	n/a	catFR1	0	R1370E
866.628	1.6	868385	WORD	n/a	wordpools/wordpool_categorized_EN.txt	GIRAFFE	Zoo	6	2	[0, 0, 0]	n/a	catFR1	0	R1370E
868.258	1.148	869997	WORD_OFF	n/a	n/a	GIRAFFE	Zoo	6	2	[0, 0, 0]	n/a	catFR1	0	R1370E
869.406	1.6	871168	WORD	n/a	wordpools/wordpool_categorized_EN.txt	HAMMER	Tools	7	2	[0, 0, 0]	n/a	catFR1	0	R1370E
871.042	0.757	872780	WORD_OFF	n/a	n/a	HAMMER	Tools	7	2	[0, 0, 0]	n/a	catFR1	0	R1370E
871.799	1.6	873551	WORD	n/a	wordpools/wordpool_categorized_EN.txt	RATCHET	Tools	8	2	[0, 0, 0]	n/a	catFR1	0	R1370E
873.426	0.887	875163	WORD_OFF	n/a	n/a	RATCHET	Tools	8	2	[0, 0, 0]	n/a	catFR1	0	R1370E
874.313	1.6	876059	WORD	n/a	wordpools/wordpool_categorized_EN.txt	RAIN	Weather	9	2	[0, 0, 0]	n/a	catFR1	0	R1370E
875.926	1.114	877657	WORD_OFF	n/a	n/a	RAIN	Weather	9	2	[0, 0, 0]	n/a	catFR1	0	R1370E
877.04	1.6	878801	WORD	n/a	wordpools/wordpool_categorized_EN.txt	HUMIDITY	Weather	10	2	[0, 0, 0]	n/a	catFR1	0	R1370E
878.677	0.884	880413	WORD_OFF	n/a	n/a	HUMIDITY	Weather	10	2	[0, 0, 0]	n/a	catFR1	0	R1370E
879.561	1.6	881308	WORD	n/a	wordpools/wordpool_categorized_EN.txt	LION	Zoo	11	2	[0, 0, 0]	n/a	catFR1	0	R1370E
881.194	1.074	882934	WORD_OFF	n/a	n/a	LION	Zoo	11	2	[0, 0, 0]	n/a	catFR1	0	R1370E
882.268	1.6	884009	WORD	n/a	wordpools/wordpool_categorized_EN.txt	CHEETAH	Zoo	12	2	[0, 0, 0]	n/a	catFR1	0	R1370E
883.895	0.0	885648	WORD_OFF	n/a	n/a	CHEETAH	Zoo	12	2	[0, 0, 0]	n/a	catFR1	0	R1370E
883.895	0.001	885648	ENCODING_END	n/a	n/a	n/a	n/a	-999	2	[0, 0, 0]	n/a	catFR1	0	R1370E
883.896	0.0	885648	DISTRACT_START	n/a	n/a	n/a	n/a	-999	2	[0, 0, 0]	n/a	catFR1	0	R1370E
883.896	0.015	885650	START	n/a	n/a	n/a	n/a	-999	2	[-999, -999, -999]	n/a	catFR1	0	R1370E
883.911	9.184	885665	PROB	9.16	n/a	n/a	n/a	-999	2	[4, 2, 1]	6.0	catFR1	0	R1370E
893.095	15.903	894849	PROB	15.891	n/a	n/a	n/a	-999	2	[7, 9, 2]	18.0	catFR1	0	R1370E
908.998	0.0	910737	DISTRACT_END	n/a	n/a	n/a	n/a	-999	2	[0, 0, 0]	n/a	catFR1	0	R1370E
908.986	2.28	910739	STOP	n/a	n/a	n/a	n/a	-999	2	[-999, -999, -999]	n/a	catFR1	0	R1370E
911.266	0.751	913011	REC_START	n/a	n/a	n/a	n/a	-999	2	[0, 0, 0]	n/a	catFR1	0	R1370E
912.017	1.214	913770	REC_WORD	0.751	n/a	SAW	Tools	1	2	[0, 0, 0]	n/a	catFR1	0	R1370E
913.231	2.392	914984	REC_WORD	1.965	n/a	AXE	Tools	2	2	[0, 0, 0]	n/a	catFR1	0	R1370E
915.623	1.32	917376	REC_WORD	4.357	n/a	TORNADO	Weather	3	2	[0, 0, 0]	n/a	catFR1	0	R1370E
916.943	0.996	918696	REC_WORD	5.677	n/a	WIND	Weather	4	2	[0, 0, 0]	n/a	catFR1	0	R1370E
917.939	7.478	919692	REC_WORD	6.673	n/a	CHEETAH	Zoo	12	2	[0, 0, 0]	n/a	catFR1	0	R1370E
925.417	13.504	927169	REC_WORD	14.151	n/a	LION	Zoo	11	2	[0, 0, 0]	n/a	catFR1	0	R1370E
938.921	2.356	940673	REC_WORD_VV	27.655	n/a	<>	n/a	-999	2	[0, 0, 0]	n/a	catFR1	0	R1370E
941.277	5.146	943046	REC_END	n/a	n/a	n/a	n/a	-999	2	[0, 0, 0]	n/a	catFR1	0	R1370E
946.423	10.0	948185	COUNTDOWN_START	n/a	n/a	n/a	n/a	-999	3	[0, 0, 0]	n/a	catFR1	0	R1370E
956.852	1.107	958588	COUNTDOWN_END	n/a	n/a	n/a	n/a	-999	3	[0, 0, 0]	n/a	catFR1	0	R1370E
957.959	1.011	959690	ENCODING_START	n/a	n/a	n/a	n/a	-999	3	[0, 0, 0]	n/a	catFR1	0	R1370E
958.97	1.6	960709	WORD	n/a	wordpools/wordpool_categorized_EN.txt	VIOLIN	Instruments	1	3	[0, 0, 0]	n/a	catFR1	0	R1370E
960.575	1.044	962308	WORD_OFF	n/a	n/a	VIOLIN	Instruments	1	3	[0, 0, 0]	n/a	catFR1	0	R1370E
961.619	1.6	963355	WORD	n/a	wordpools/wordpool_categorized_EN.txt	ORGAN	Instruments	2	3	[0, 0, 0]	n/a	catFR1	0	R1370E
963.241	0.944	964980	WORD_OFF	n/a	n/a	ORGAN	Instruments	2	3	[0, 0, 0]	n/a	catFR1	0	R1370E
964.185	1.6	965931	WORD	n/a	wordpools/wordpool_categorized_EN.txt	CREEK	Landscapes	3	3	[0, 0, 0]	n/a	catFR1	0	R1370E
965.809	0.863	967543	WORD_OFF	n/a	n/a	CREEK	Landscapes	3	3	[0, 0, 0]	n/a	catFR1	0	R1370E
966.672	1.6	968411	WORD	n/a	wordpools/wordpool_categorized_EN.txt	HILLS	Landscapes	4	3	[0, 0, 0]	n/a	catFR1	0	R1370E
968.292	1.07	970023	WORD_OFF	n/a	n/a	HILLS	Landscapes	4	3	[0, 0, 0]	n/a	catFR1	0	R1370E
969.362	1.6	971112	WORD	n/a	wordpools/wordpool_categorized_EN.txt	SCOOTER	Vehicles	5	3	[0, 0, 0]	n/a	catFR1	0	R1370E
970.993	0.839	972724	WORD_OFF	n/a	n/a	SCOOTER	Vehicles	5	3	[0, 0, 0]	n/a	catFR1	0	R1370E
971.832	1.6	973578	WORD	n/a	wordpools/wordpool_categorized_EN.txt	BOAT	Vehicles	6	3	[0, 0, 0]	n/a	catFR1	0	R1370E
973.461	1.044	975190	WORD_OFF	n/a	n/a	BOAT	Vehicles	6	3	[0, 0, 0]	n/a	catFR1	0	R1370E
974.505	1.6	976237	WORD	n/a	wordpools/wordpool_categorized_EN.txt	BANJO	Instruments	7	3	[0, 0, 0]	n/a	catFR1	0	R1370E
976.127	1.084	977863	WORD_OFF	n/a	n/a	BANJO	Instruments	7	3	[0, 0, 0]	n/a	catFR1	0	R1370E
977.211	1.6	978965	WORD	n/a	wordpools/wordpool_categorized_EN.txt	FLUTE	Instruments	8	3	[0, 0, 0]	n/a	catFR1	0	R1370E
978.845	1.109	980577	WORD_OFF	n/a	n/a	FLUTE	Instruments	8	3	[0, 0, 0]	n/a	catFR1	0	R1370E
979.954	1.6	981693	WORD	n/a	wordpools/wordpool_categorized_EN.txt	LAKE	Landscapes	9	3	[0, 0, 0]	n/a	catFR1	0	R1370E
981.579	1.044	983305	WORD_OFF	n/a	n/a	LAKE	Landscapes	9	3	[0, 0, 0]	n/a	catFR1	0	R1370E
982.623	1.6	984366	WORD	n/a	wordpools/wordpool_categorized_EN.txt	ISLAND	Landscapes	10	3	[0, 0, 0]	n/a	catFR1	0	R1370E
984.245	0.888	985978	WORD_OFF	n/a	n/a	ISLAND	Landscapes	10	3	[0, 0, 0]	n/a	catFR1	0	R1370E
985.133	1.6	986873	WORD	n/a	wordpools/wordpool_categorized_EN.txt	PLANE	Vehicles	11	3	[0, 0, 0]	n/a	catFR1	0	R1370E
986.763	0.761	988499	WORD_OFF	n/a	n/a	PLANE	Vehicles	11	3	[0, 0, 0]	n/a	catFR1	0	R1370E
987.524	1.6	989257	WORD	n/a	wordpools/wordpool_categorized_EN.txt	BIKE	Vehicles	12	3	[0, 0, 0]	n/a	catFR1	0	R1370E
989.146	0.0	990896	WORD_OFF	n/a	n/a	BIKE	Vehicles	12	3	[0, 0, 0]	n/a	catFR1	0	R1370E
989.146	0.001	990896	ENCODING_END	n/a	n/a	n/a	n/a	-999	3	[0, 0, 0]	n/a	catFR1	0	R1370E
989.147	0.0	990896	DISTRACT_START	n/a	n/a	n/a	n/a	-999	3	[0, 0, 0]	n/a	catFR1	0	R1370E
989.147	0.015	990897	START	n/a	n/a	n/a	n/a	-999	3	[-999, -999, -999]	n/a	catFR1	0	R1370E
989.162	16.221	990912	PROB	16.189	n/a	n/a	n/a	-999	3	[6, 8, 3]	17.0	catFR1	0	R1370E
1005.383	9.767	1007132	PROB	9.749	n/a	n/a	n/a	-999	3	[3, 8, 4]	15.0	catFR1	0	R1370E
1015.15	0.0	1016881	DISTRACT_END	n/a	n/a	n/a	n/a	-999	3	[0, 0, 0]	n/a	catFR1	0	R1370E
1015.132	2.304	1016881	STOP	n/a	n/a	n/a	n/a	-999	3	[-999, -999, -999]	n/a	catFR1	0	R1370E
1017.436	1.947	1019182	REC_START	n/a	n/a	n/a	n/a	-999	3	[0, 0, 0]	n/a	catFR1	0	R1370E
1019.383	0.179	1021132	REC_WORD_VV	1.947	n/a	<>	n/a	-999	3	[0, 0, 0]	n/a	catFR1	0	R1370E
1019.562	2.224	1021311	REC_WORD	2.126	n/a	SCOOTER	Vehicles	5	3	[0, 0, 0]	n/a	catFR1	0	R1370E
1021.786	4.217	1023535	REC_WORD	4.35	n/a	BIKE	Vehicles	12	3	[0, 0, 0]	n/a	catFR1	0	R1370E
1026.003	2.238	1027752	REC_WORD_VV	8.567	n/a	<>	n/a	-999	3	[0, 0, 0]	n/a	catFR1	0	R1370E
1028.241	19.207	1029990	REC_WORD	10.805	n/a	BANJO	Instruments	7	3	[0, 0, 0]	n/a	catFR1	0	R1370E
1047.448	24.646	1049204	REC_END	n/a	n/a	n/a	n/a	-999	3	[0, 0, 0]	n/a	catFR1	0	R1370E
1072.094	10.0	1073852	COUNTDOWN_START	n/a	n/a	n/a	n/a	-999	4	[0, 0, 0]	n/a	catFR1	0	R1370E
1082.522	1.108	1084255	COUNTDOWN_END	n/a	n/a	n/a	n/a	-999	4	[0, 0, 0]	n/a	catFR1	0	R1370E
1083.63	1.035	1085357	ENCODING_START	n/a	n/a	n/a	n/a	-999	4	[0, 0, 0]	n/a	catFR1	0	R1370E
1084.665	1.6	1086404	WORD	n/a	wordpools/wordpool_categorized_EN.txt	TOE	BodyParts	1	4	[0, 0, 0]	n/a	catFR1	0	R1370E
1086.296	0.948	1088030	WORD_OFF	n/a	n/a	TOE	BodyParts	1	4	[0, 0, 0]	n/a	catFR1	0	R1370E
1087.244	1.6	1088994	WORD	n/a	wordpools/wordpool_categorized_EN.txt	ELBOW	BodyParts	2	4	[0, 0, 0]	n/a	catFR1	0	R1370E
1088.881	0.853	1090606	WORD_OFF	n/a	n/a	ELBOW	BodyParts	2	4	[0, 0, 0]	n/a	catFR1	0	R1370E
1089.734	1.6	1091474	WORD	n/a	wordpools/wordpool_categorized_EN.txt	DOLPHIN	OceanAnimals	3	4	[0, 0, 0]	n/a	catFR1	0	R1370E
1091.365	0.88	1093100	WORD_OFF	n/a	n/a	DOLPHIN	OceanAnimals	3	4	[0, 0, 0]	n/a	catFR1	0	R1370E
1092.245	1.6	1093995	WORD	n/a	wordpools/wordpool_categorized_EN.txt	PLANKTON	OceanAnimals	4	4	[0, 0, 0]	n/a	catFR1	0	R1370E
1093.882	1.064	1095607	WORD_OFF	n/a	n/a	PLANKTON	OceanAnimals	4	4	[0, 0, 0]	n/a	catFR1	0	R1370E
1094.946	1.6	1096696	WORD	n/a	wordpools/wordpool_categorized_EN.txt	LETTUCE	Vegetables	5	4	[0, 0, 0]	n/a	catFR1	0	R1370E
1096.582	0.779	1098308	WORD_OFF	n/a	n/a	LETTUCE	Vegetables	5	4	[0, 0, 0]	n/a	catFR1	0	R1370E
1097.361	1.6	1099107	WORD	n/a	wordpools/wordpool_categorized_EN.txt	CAULIFLOWER	Vegetables	6	4	[0, 0, 0]	n/a	catFR1	0	R1370E
1098.998	0.8	1100733	WORD_OFF	n/a	n/a	CAULIFLOWER	Vegetables	6	4	[0, 0, 0]	n/a	catFR1	0	R1370E
1099.798	1.6	1101546	WORD	n/a	wordpools/wordpool_categorized_EN.txt	ARM	BodyParts	7	4	[0, 0, 0]	n/a	catFR1	0	R1370E
1101.433	0.975	1103158	WORD_OFF	n/a	n/a	ARM	BodyParts	7	4	[0, 0, 0]	n/a	catFR1	0	R1370E
1102.408	1.6	1104150	WORD	n/a	wordpools/wordpool_categorized_EN.txt	HEAD	BodyParts	8	4	[0, 0, 0]	n/a	catFR1	0	R1370E
1104.033	1.011	1105762	WORD_OFF	n/a	n/a	HEAD	BodyParts	8	4	[0, 0, 0]	n/a	catFR1	0	R1370E
1105.044	1.6	1106781	WORD	n/a	wordpools/wordpool_categorized_EN.txt	PEAS	Vegetables	9	4	[0, 0, 0]	n/a	catFR1	0	R1370E
1106.667	1.045	1108393	WORD_OFF	n/a	n/a	PEAS	Vegetables	9	4	[0, 0, 0]	n/a	catFR1	0	R1370E
1107.712	1.6	1109440	WORD	n/a	wordpools/wordpool_categorized_EN.txt	CARROT	Vegetables	10	4	[0, 0, 0]	n/a	catFR1	0	R1370E
1109.333	0.764	1111066	WORD_OFF	n/a	n/a	CARROT	Vegetables	10	4	[0, 0, 0]	n/a	catFR1	0	R1370E
1110.097	1.6	1111851	WORD	n/a	wordpools/wordpool_categorized_EN.txt	FISH	OceanAnimals	11	4	[0, 0, 0]	n/a	catFR1	0	R1370E
1111.735	0.958	1113463	WORD_OFF	n/a	n/a	FISH	OceanAnimals	11	4	[0, 0, 0]	n/a	catFR1	0	R1370E
1112.693	1.6	1114428	WORD	n/a	wordpools/wordpool_categorized_EN.txt	OCTOPUS	OceanAnimals	12	4	[0, 0, 0]	n/a	catFR1	0	R1370E
1114.319	0.0	1116065	START	n/a	n/a	n/a	n/a	-999	4	[-999, -999, -999]	n/a	catFR1	0	R1370E
1114.318	0.0	1116067	WORD_OFF	n/a	n/a	OCTOPUS	OceanAnimals	12	4	[0, 0, 0]	n/a	catFR1	0	R1370E
1114.318	0.0	1116067	ENCODING_END	n/a	n/a	n/a	n/a	-999	4	[0, 0, 0]	n/a	catFR1	0	R1370E
1114.318	0.016	1116067	DISTRACT_START	n/a	n/a	n/a	n/a	-999	4	[0, 0, 0]	n/a	catFR1	0	R1370E
1114.334	10.52	1116080	PROB	10.497	n/a	n/a	n/a	-999	4	[9, 2, 3]	14.0	catFR1	0	R1370E
1124.854	6.834	1126599	PROB	6.797	n/a	n/a	n/a	-999	4	[6, 3, 4]	13.0	catFR1	0	R1370E
1131.688	8.668	1133433	PROB	8.663	n/a	n/a	n/a	-999	4	[2, 6, 5]	13.0	catFR1	0	R1370E
1140.356	0.0	1142080	DISTRACT_END	n/a	n/a	n/a	n/a	-999	4	[0, 0, 0]	n/a	catFR1	0	R1370E
1140.351	2.056	1142096	STOP	n/a	n/a	n/a	n/a	-999	4	[-999, -999, -999]	n/a	catFR1	0	R1370E
1142.407	1.999	1144146	REC_START	n/a	n/a	n/a	n/a	-999	4	[0, 0, 0]	n/a	catFR1	0	R1370E
1144.406	1.038	1146150	REC_WORD	1.999	n/a	TOE	BodyParts	1	4	[0, 0, 0]	n/a	catFR1	0	R1370E
1145.444	1.736	1147188	REC_WORD	3.037	n/a	ELBOW	BodyParts	2	4	[0, 0, 0]	n/a	catFR1	0	R1370E
1147.18	0.23	1148924	REC_WORD_VV	4.773	n/a	<>	n/a	-999	4	[0, 0, 0]	n/a	catFR1	0	R1370E
1147.41	1.942	1149154	REC_WORD	5.003	n/a	ARM	BodyParts	7	4	[0, 0, 0]	n/a	catFR1	0	R1370E
1149.352	1.157	1151096	REC_WORD	6.945	n/a	FISH	OceanAnimals	11	4	[0, 0, 0]	n/a	catFR1	0	R1370E
1150.509	21.911	1152253	REC_WORD	8.102	n/a	OCTOPUS	OceanAnimals	12	4	[0, 0, 0]	n/a	catFR1	0	R1370E
1172.42	3.51	1174168	REC_END	n/a	n/a	n/a	n/a	-999	4	[0, 0, 0]	n/a	catFR1	0	R1370E
1175.93	10.0	1177695	COUNTDOWN_START	n/a	n/a	n/a	n/a	-999	5	[0, 0, 0]	n/a	catFR1	0	R1370E
1186.359	1.206	1188084	COUNTDOWN_END	n/a	n/a	n/a	n/a	-999	5	[0, 0, 0]	n/a	catFR1	0	R1370E
1187.565	0.903	1189296	ENCODING_START	n/a	n/a	n/a	n/a	-999	5	[0, 0, 0]	n/a	catFR1	0	R1370E
1188.468	1.6	1190206	WORD	n/a	wordpools/wordpool_categorized_EN.txt	SOCKS	Clothing	1	5	[0, 0, 0]	n/a	catFR1	0	R1370E
1190.098	1.092	1191818	WORD_OFF	n/a	n/a	SOCKS	Clothing	1	5	[0, 0, 0]	n/a	catFR1	0	R1370E
1191.19	1.6	1192920	WORD	n/a	wordpools/wordpool_categorized_EN.txt	COAT	Clothing	2	5	[0, 0, 0]	n/a	catFR1	0	R1370E
1192.816	1.095	1194546	WORD_OFF	n/a	n/a	COAT	Clothing	2	5	[0, 0, 0]	n/a	catFR1	0	R1370E
1193.911	1.6	1195634	WORD	n/a	wordpools/wordpool_categorized_EN.txt	STAPLER	OfficeSupplies	3	5	[0, 0, 0]	n/a	catFR1	0	R1370E
1195.533	0.944	1197260	WORD_OFF	n/a	n/a	STAPLER	OfficeSupplies	3	5	[0, 0, 0]	n/a	catFR1	0	R1370E
1196.477	1.6	1198210	WORD	n/a	wordpools/wordpool_categorized_EN.txt	PEN	OfficeSupplies	4	5	[0, 0, 0]	n/a	catFR1	0	R1370E
1198.099	0.757	1199822	WORD_OFF	n/a	n/a	PEN	OfficeSupplies	4	5	[0, 0, 0]	n/a	catFR1	0	R1370E
1198.856	1.6	1200594	WORD	n/a	wordpools/wordpool_categorized_EN.txt	MOPED	Vehicles	5	5	[0, 0, 0]	n/a	catFR1	0	R1370E
1200.484	0.886	1202206	WORD_OFF	n/a	n/a	MOPED	Vehicles	5	5	[0, 0, 0]	n/a	catFR1	0	R1370E
1201.37	1.6	1203102	WORD	n/a	wordpools/wordpool_categorized_EN.txt	CAR	Vehicles	6	5	[0, 0, 0]	n/a	catFR1	0	R1370E
1203.0	0.841	1204727	WORD_OFF	n/a	n/a	CAR	Vehicles	6	5	[0, 0, 0]	n/a	catFR1	0	R1370E
1203.841	1.6	1205582	WORD	n/a	wordpools/wordpool_categorized_EN.txt	DRESS	Clothing	7	5	[0, 0, 0]	n/a	catFR1	0	R1370E
1205.468	1.081	1207194	WORD_OFF	n/a	n/a	DRESS	Clothing	7	5	[0, 0, 0]	n/a	catFR1	0	R1370E
1206.549	1.6	1208296	WORD	n/a	wordpools/wordpool_categorized_EN.txt	PANTS	Clothing	8	5	[0, 0, 0]	n/a	catFR1	0	R1370E
1208.184	0.909	1209908	WORD_OFF	n/a	n/a	PANTS	Clothing	8	5	[0, 0, 0]	n/a	catFR1	0	R1370E
1209.093	1.6	1210831	WORD	n/a	wordpools/wordpool_categorized_EN.txt	PENCIL	OfficeSupplies	9	5	[0, 0, 0]	n/a	catFR1	0	R1370E
1210.719	0.803	1212443	WORD_OFF	n/a	n/a	PENCIL	OfficeSupplies	9	5	[0, 0, 0]	n/a	catFR1	0	R1370E
1211.522	1.6	1213256	WORD	n/a	wordpools/wordpool_categorized_EN.txt	PAPER	OfficeSupplies	10	5	[0, 0, 0]	n/a	catFR1	0	R1370E
1213.152	1.085	1214882	WORD_OFF	n/a	n/a	PAPER	OfficeSupplies	10	5	[0, 0, 0]	n/a	catFR1	0	R1370E
1214.237	1.6	1215970	WORD	n/a	wordpools/wordpool_categorized_EN.txt	VAN	Vehicles	11	5	[0, 0, 0]	n/a	catFR1	0	R1370E
1215.87	0.898	1217596	WORD_OFF	n/a	n/a	VAN	Vehicles	11	5	[0, 0, 0]	n/a	catFR1	0	R1370E
1216.768	1.6	1218505	WORD	n/a	wordpools/wordpool_categorized_EN.txt	TRAIN	Vehicles	12	5	[0, 0, 0]	n/a	catFR1	0	R1370E
1218.404	0.0	1220145	WORD_OFF	n/a	n/a	TRAIN	Vehicles	12	5	[0, 0, 0]	n/a	catFR1	0	R1370E
1218.404	0.0	1220145	ENCODING_END	n/a	n/a	n/a	n/a	-999	5	[0, 0, 0]	n/a	catFR1	0	R1370E
1218.404	0.001	1220145	DISTRACT_START	n/a	n/a	n/a	n/a	-999	5	[0, 0, 0]	n/a	catFR1	0	R1370E
1218.405	0.015	1220147	START	n/a	n/a	n/a	n/a	-999	5	[-999, -999, -999]	n/a	catFR1	0	R1370E
1218.42	8.784	1220162	PROB	8.761	n/a	n/a	n/a	-999	5	[4, 5, 2]	11.0	catFR1	0	R1370E
1227.204	6.101	1228945	PROB	6.073	n/a	n/a	n/a	-999	5	[2, 1, 7]	10.0	catFR1	0	R1370E
1233.305	4.368	1235046	PROB	4.342	n/a	n/a	n/a	-999	5	[5, 2, 8]	15.0	catFR1	0	R1370E
1237.673	5.997	1239414	PROB	5.997	n/a	n/a	n/a	-999	5	[1, 5, 6]	12.0	catFR1	0	R1370E
1243.67	0.021	1245411	STOP	n/a	n/a	n/a	n/a	-999	5	[-999, -999, -999]	n/a	catFR1	0	R1370E
1243.691	2.201	1245413	DISTRACT_END	n/a	n/a	n/a	n/a	-999	5	[0, 0, 0]	n/a	catFR1	0	R1370E
1245.892	0.806	1247631	REC_START	n/a	n/a	n/a	n/a	-999	5	[0, 0, 0]	n/a	catFR1	0	R1370E
1246.698	1.527	1248439	REC_WORD	0.806	n/a	SOCKS	Clothing	1	5	[0, 0, 0]	n/a	catFR1	0	R1370E
1248.225	1.413	1249966	REC_WORD	2.333	n/a	COAT	Clothing	2	5	[0, 0, 0]	n/a	catFR1	0	R1370E
1249.638	1.38	1251379	REC_WORD	3.746	n/a	DRESS	Clothing	7	5	[0, 0, 0]	n/a	catFR1	0	R1370E
1251.018	2.223	1252759	REC_WORD	5.126	n/a	PANTS	Clothing	8	5	[0, 0, 0]	n/a	catFR1	0	R1370E
1253.241	9.6	1254981	REC_WORD	7.349	n/a	CAR	Vehicles	6	5	[0, 0, 0]	n/a	catFR1	0	R1370E
1262.841	13.064	1264581	REC_WORD	16.949	n/a	PENCIL	OfficeSupplies	9	5	[0, 0, 0]	n/a	catFR1	0	R1370E
1275.905	4.61	1277653	REC_END	n/a	n/a	n/a	n/a	-999	5	[0, 0, 0]	n/a	catFR1	0	R1370E
1280.515	10.0	1282269	COUNTDOWN_START	n/a	n/a	n/a	n/a	-999	6	[0, 0, 0]	n/a	catFR1	0	R1370E
1290.944	1.089	1292671	COUNTDOWN_END	n/a	n/a	n/a	n/a	-999	6	[0, 0, 0]	n/a	catFR1	0	R1370E
1292.033	0.868	1293759	ENCODING_START	n/a	n/a	n/a	n/a	-999	6	[0, 0, 0]	n/a	catFR1	0	R1370E
1292.901	1.6	1294641	WORD	n/a	wordpools/wordpool_categorized_EN.txt	EAR	BodyParts	1	6	[0, 0, 0]	n/a	catFR1	0	R1370E
1294.534	0.837	1296253	WORD_OFF	n/a	n/a	EAR	BodyParts	1	6	[0, 0, 0]	n/a	catFR1	0	R1370E
1295.371	1.6	1297107	WORD	n/a	wordpools/wordpool_categorized_EN.txt	LEG	BodyParts	2	6	[0, 0, 0]	n/a	catFR1	0	R1370E
1297.0	1.106	1298719	WORD_OFF	n/a	n/a	LEG	BodyParts	2	6	[0, 0, 0]	n/a	catFR1	0	R1370E
1298.106	1.6	1299835	WORD	n/a	wordpools/wordpool_categorized_EN.txt	GUITAR	Instruments	3	6	[0, 0, 0]	n/a	catFR1	0	R1370E
1299.717	0.756	1301433	WORD_OFF	n/a	n/a	GUITAR	Instruments	3	6	[0, 0, 0]	n/a	catFR1	0	R1370E
1300.473	1.6	1302205	WORD	n/a	wordpools/wordpool_categorized_EN.txt	TRUMPET	Instruments	4	6	[0, 0, 0]	n/a	catFR1	0	R1370E
1302.101	0.856	1303817	WORD_OFF	n/a	n/a	TRUMPET	Instruments	4	6	[0, 0, 0]	n/a	catFR1	0	R1370E
1302.957	1.6	1304685	WORD	n/a	wordpools/wordpool_categorized_EN.txt	TONGS	KitchenTools	5	6	[0, 0, 0]	n/a	catFR1	0	R1370E
1304.585	1.138	1306311	WORD_OFF	n/a	n/a	TONGS	KitchenTools	5	6	[0, 0, 0]	n/a	catFR1	0	R1370E
1305.723	1.6	1307454	WORD	n/a	wordpools/wordpool_categorized_EN.txt	KNIFE	KitchenTools	6	6	[0, 0, 0]	n/a	catFR1	0	R1370E
1307.352	0.967	1309066	WORD_OFF	n/a	n/a	KNIFE	KitchenTools	6	6	[0, 0, 0]	n/a	catFR1	0	R1370E
1308.319	1.6	1310058	WORD	n/a	wordpools/wordpool_categorized_EN.txt	NOSE	BodyParts	7	6	[0, 0, 0]	n/a	catFR1	0	R1370E
1309.953	0.826	1311670	WORD_OFF	n/a	n/a	NOSE	BodyParts	7	6	[0, 0, 0]	n/a	catFR1	0	R1370E
1310.779	1.6	1312511	WORD	n/a	wordpools/wordpool_categorized_EN.txt	EYE	BodyParts	8	6	[0, 0, 0]	n/a	catFR1	0	R1370E
1312.403	0.899	1314123	WORD_OFF	n/a	n/a	EYE	BodyParts	8	6	[0, 0, 0]	n/a	catFR1	0	R1370E
1313.302	1.6	1315046	WORD	n/a	wordpools/wordpool_categorized_EN.txt	BASS	Instruments	9	6	[0, 0, 0]	n/a	catFR1	0	R1370E
1314.937	0.826	1316658	WORD_OFF	n/a	n/a	BASS	Instruments	9	6	[0, 0, 0]	n/a	catFR1	0	R1370E
1315.763	1.6	1317485	WORD	n/a	wordpools/wordpool_categorized_EN.txt	DRUM	Instruments	10	6	[0, 0, 0]	n/a	catFR1	0	R1370E
1317.388	0.78	1319110	WORD_OFF	n/a	n/a	DRUM	Instruments	10	6	[0, 0, 0]	n/a	catFR1	0	R1370E
1318.168	1.6	1319909	WORD	n/a	wordpools/wordpool_categorized_EN.txt	COLANDER	KitchenTools	11	6	[0, 0, 0]	n/a	catFR1	0	R1370E
1319.805	0.887	1321521	WORD_OFF	n/a	n/a	COLANDER	KitchenTools	11	6	[0, 0, 0]	n/a	catFR1	0	R1370E
1320.692	1.6	1322431	WORD	n/a	wordpools/wordpool_categorized_EN.txt	WHISK	KitchenTools	12	6	[0, 0, 0]	n/a	catFR1	0	R1370E
1322.321	0.0	1324057	WORD_OFF	n/a	n/a	WHISK	KitchenTools	12	6	[0, 0, 0]	n/a	catFR1	0	R1370E
1322.321	0.001	1324057	ENCODING_END	n/a	n/a	n/a	n/a	-999	6	[0, 0, 0]	n/a	catFR1	0	R1370E
1322.322	0.0	1324057	DISTRACT_START	n/a	n/a	n/a	n/a	-999	6	[0, 0, 0]	n/a	catFR1	0	R1370E
1322.322	0.015	1324060	START	n/a	n/a	n/a	n/a	-999	6	[-999, -999, -999]	n/a	catFR1	0	R1370E
1322.337	15.67	1324075	PROB	15.636	n/a	n/a	n/a	-999	6	[9, 4, 7]	20.0	catFR1	0	R1370E
1338.007	8.085	1339744	PROB	8.075	n/a	n/a	n/a	-999	6	[2, 7, 2]	11.0	catFR1	0	R1370E
1346.092	0.0	1347809	DISTRACT_END	n/a	n/a	n/a	n/a	-999	6	[0, 0, 0]	n/a	catFR1	0	R1370E
1346.082	2.161	1347819	STOP	n/a	n/a	n/a	n/a	-999	6	[-999, -999, -999]	n/a	catFR1	0	R1370E
1348.243	0.684	1349973	REC_START	n/a	n/a	n/a	n/a	-999	6	[0, 0, 0]	n/a	catFR1	0	R1370E
1348.927	1.241	1350664	REC_WORD	0.684	n/a	EAR	BodyParts	1	6	[0, 0, 0]	n/a	catFR1	0	R1370E
1350.168	1.021	1351905	REC_WORD	1.925	n/a	LEG	BodyParts	2	6	[0, 0, 0]	n/a	catFR1	0	R1370E
1351.189	1.193	1352926	REC_WORD	2.946	n/a	NOSE	BodyParts	7	6	[0, 0, 0]	n/a	catFR1	0	R1370E
1352.382	23.658	1354119	REC_WORD	4.139	n/a	EYE	BodyParts	8	6	[0, 0, 0]	n/a	catFR1	0	R1370E
1376.04	0.729	1377776	REC_WORD_VV	27.797	n/a	<>	n/a	-999	6	[0, 0, 0]	n/a	catFR1	0	R1370E
1376.769	1.486	1378505	REC_WORD	28.526	n/a	BASS	Instruments	9	6	[0, 0, 0]	n/a	catFR1	0	R1370E
1378.255	3.711	1380008	REC_END	n/a	n/a	n/a	n/a	-999	6	[0, 0, 0]	n/a	catFR1	0	R1370E
1381.966	10.0	1383714	COUNTDOWN_START	n/a	n/a	n/a	n/a	-999	7	[0, 0, 0]	n/a	catFR1	0	R1370E
1392.394	1.091	1394116	COUNTDOWN_END	n/a	n/a	n/a	n/a	-999	7	[0, 0, 0]	n/a	catFR1	0	R1370E
1393.485	0.804	1395205	ENCODING_START	n/a	n/a	n/a	n/a	-999	7	[0, 0, 0]	n/a	catFR1	0	R1370E
1394.289	1.6	1396018	WORD	n/a	wordpools/wordpool_categorized_EN.txt	ROOM	Building	1	7	[0, 0, 0]	n/a	catFR1	0	R1370E
1395.901	0.774	1397616	WORD_OFF	n/a	n/a	ROOM	Building	1	7	[0, 0, 0]	n/a	catFR1	0	R1370E
1396.675	1.6	1398401	WORD	n/a	wordpools/wordpool_categorized_EN.txt	FOUNDATION	Building	2	7	[0, 0, 0]	n/a	catFR1	0	R1370E
1398.301	0.94	1400013	WORD_OFF	n/a	n/a	FOUNDATION	Building	2	7	[0, 0, 0]	n/a	catFR1	0	R1370E
1399.241	1.6	1400964	WORD	n/a	wordpools/wordpool_categorized_EN.txt	OCEAN	Landscapes	3	7	[0, 0, 0]	n/a	catFR1	0	R1370E
1400.869	1.012	1402590	WORD_OFF	n/a	n/a	OCEAN	Landscapes	3	7	[0, 0, 0]	n/a	catFR1	0	R1370E
1401.881	1.6	1403596	WORD	n/a	wordpools/wordpool_categorized_EN.txt	STREAM	Landscapes	4	7	[0, 0, 0]	n/a	catFR1	0	R1370E
1403.503	1.071	1405221	WORD_OFF	n/a	n/a	STREAM	Landscapes	4	7	[0, 0, 0]	n/a	catFR1	0	R1370E
1404.574	1.6	1406310	WORD	n/a	wordpools/wordpool_categorized_EN.txt	DRILL	Tools	5	7	[0, 0, 0]	n/a	catFR1	0	R1370E
1406.202	1.081	1407922	WORD_OFF	n/a	n/a	DRILL	Tools	5	7	[0, 0, 0]	n/a	catFR1	0	R1370E
1407.283	1.6	1409024	WORD	n/a	wordpools/wordpool_categorized_EN.txt	LEVEL	Tools	6	7	[0, 0, 0]	n/a	catFR1	0	R1370E
1408.92	0.996	1410636	WORD_OFF	n/a	n/a	LEVEL	Tools	6	7	[0, 0, 0]	n/a	catFR1	0	R1370E
1409.916	1.6	1411642	WORD	n/a	wordpools/wordpool_categorized_EN.txt	BEACH	Landscapes	7	7	[0, 0, 0]	n/a	catFR1	0	R1370E
1411.537	1.121	1413254	WORD_OFF	n/a	n/a	BEACH	Landscapes	7	7	[0, 0, 0]	n/a	catFR1	0	R1370E
1412.658	1.6	1414384	WORD	n/a	wordpools/wordpool_categorized_EN.txt	FOREST	Landscapes	8	7	[0, 0, 0]	n/a	catFR1	0	R1370E
1414.287	0.945	1416009	WORD_OFF	n/a	n/a	FOREST	Landscapes	8	7	[0, 0, 0]	n/a	catFR1	0	R1370E
1415.232	1.6	1416960	WORD	n/a	wordpools/wordpool_categorized_EN.txt	ATTIC	Building	9	7	[0, 0, 0]	n/a	catFR1	0	R1370E
1416.855	0.912	1418572	WORD_OFF	n/a	n/a	ATTIC	Building	9	7	[0, 0, 0]	n/a	catFR1	0	R1370E
1417.767	1.6	1419481	WORD	n/a	wordpools/wordpool_categorized_EN.txt	DOOR	Building	10	7	[0, 0, 0]	n/a	catFR1	0	R1370E
1419.389	0.94	1421107	WORD_OFF	n/a	n/a	DOOR	Building	10	7	[0, 0, 0]	n/a	catFR1	0	R1370E
1420.329	1.6	1422058	WORD	n/a	wordpools/wordpool_categorized_EN.txt	CROWBAR	Tools	11	7	[0, 0, 0]	n/a	catFR1	0	R1370E
1421.956	0.841	1423670	WORD_OFF	n/a	n/a	CROWBAR	Tools	11	7	[0, 0, 0]	n/a	catFR1	0	R1370E
1422.797	1.6	1424524	WORD	n/a	wordpools/wordpool_categorized_EN.txt	SCREWDRIVER	Tools	12	7	[0, 0, 0]	n/a	catFR1	0	R1370E
1424.423	0.001	1426150	WORD_OFF	n/a	n/a	SCREWDRIVER	Tools	12	7	[0, 0, 0]	n/a	catFR1	0	R1370E
1424.424	0.0	1426158	START	n/a	n/a	n/a	n/a	-999	7	[-999, -999, -999]	n/a	catFR1	0	R1370E
1424.423	0.001	1426164	ENCODING_END	n/a	n/a	n/a	n/a	-999	7	[0, 0, 0]	n/a	catFR1	0	R1370E
1424.424	0.016	1426164	DISTRACT_START	n/a	n/a	n/a	n/a	-999	7	[0, 0, 0]	n/a	catFR1	0	R1370E
1424.44	11.601	1426174	PROB	11.575	n/a	n/a	n/a	-999	7	[4, 4, 8]	16.0	catFR1	0	R1370E
1436.041	6.635	1437775	PROB	6.6	n/a	n/a	n/a	-999	7	[1, 8, 4]	13.0	catFR1	0	R1370E
1442.676	4.3	1444410	PROB	4.292	n/a	n/a	n/a	-999	7	[4, 6, 4]	14.0	catFR1	0	R1370E
1446.976	0.0	1448690	DISTRACT_END	n/a	n/a	n/a	n/a	-999	7	[0, 0, 0]	n/a	catFR1	0	R1370E
1446.968	2.209	1448701	STOP	n/a	n/a	n/a	n/a	-999	7	[-999, -999, -999]	n/a	catFR1	0	R1370E
1449.177	0.334	1450908	REC_START	n/a	n/a	n/a	n/a	-999	7	[0, 0, 0]	n/a	catFR1	0	R1370E
1449.511	1.058	1451244	REC_WORD	0.334	n/a	ROOM	Building	1	7	[0, 0, 0]	n/a	catFR1	0	R1370E
1450.569	1.0	1452302	REC_WORD	1.392	n/a	FOUNDATION	Building	2	7	[0, 0, 0]	n/a	catFR1	0	R1370E
1451.569	1.101	1453302	REC_WORD_VV	2.392	n/a	<>	n/a	-999	7	[0, 0, 0]	n/a	catFR1	0	R1370E
1452.67	1.714	1454403	REC_WORD	3.493	n/a	STREAM	Landscapes	4	7	[0, 0, 0]	n/a	catFR1	0	R1370E
1454.384	24.808	1456117	REC_WORD	5.207	n/a	SCREWDRIVER	Tools	12	7	[0, 0, 0]	n/a	catFR1	0	R1370E
1479.192	3.509	1480930	REC_END	n/a	n/a	n/a	n/a	-999	7	[0, 0, 0]	n/a	catFR1	0	R1370E
1482.701	10.0	1484444	COUNTDOWN_START	n/a	n/a	n/a	n/a	-999	8	[0, 0, 0]	n/a	catFR1	0	R1370E
1493.13	1.223	1494846	COUNTDOWN_END	n/a	n/a	n/a	n/a	-999	8	[0, 0, 0]	n/a	catFR1	0	R1370E
1494.353	0.807	1496072	ENCODING_START	n/a	n/a	n/a	n/a	-999	8	[0, 0, 0]	n/a	catFR1	0	R1370E
1495.16	1.6	1496885	WORD	n/a	wordpools/wordpool_categorized_EN.txt	BEER	Beverages	1	8	[0, 0, 0]	n/a	catFR1	0	R1370E
1496.786	1.057	1498497	WORD_OFF	n/a	n/a	BEER	Beverages	1	8	[0, 0, 0]	n/a	catFR1	0	R1370E
1497.843	1.6	1499572	WORD	n/a	wordpools/wordpool_categorized_EN.txt	RUM	Beverages	2	8	[0, 0, 0]	n/a	catFR1	0	R1370E
1499.47	0.948	1501183	WORD_OFF	n/a	n/a	RUM	Beverages	2	8	[0, 0, 0]	n/a	catFR1	0	R1370E
1500.418	1.6	1502148	WORD	n/a	wordpools/wordpool_categorized_EN.txt	DOLL	Toys	3	8	[0, 0, 0]	n/a	catFR1	0	R1370E
1502.052	0.998	1503774	WORD_OFF	n/a	n/a	DOLL	Toys	3	8	[0, 0, 0]	n/a	catFR1	0	R1370E
1503.05	1.6	1504779	WORD	n/a	wordpools/wordpool_categorized_EN.txt	BLOCKS	Toys	4	8	[0, 0, 0]	n/a	catFR1	0	R1370E
1504.687	1.089	1506405	WORD_OFF	n/a	n/a	BLOCKS	Toys	4	8	[0, 0, 0]	n/a	catFR1	0	R1370E
1505.776	1.6	1507494	WORD	n/a	wordpools/wordpool_categorized_EN.txt	TRUCK	Vehicles	5	8	[0, 0, 0]	n/a	catFR1	0	R1370E
1507.404	1.075	1509119	WORD_OFF	n/a	n/a	TRUCK	Vehicles	5	8	[0, 0, 0]	n/a	catFR1	0	R1370E
1508.479	1.6	1510194	WORD	n/a	wordpools/wordpool_categorized_EN.txt	JEEP	Vehicles	6	8	[0, 0, 0]	n/a	catFR1	0	R1370E
1510.104	1.129	1511820	WORD_OFF	n/a	n/a	JEEP	Vehicles	6	8	[0, 0, 0]	n/a	catFR1	0	R1370E
1511.233	1.6	1512950	WORD	n/a	wordpools/wordpool_categorized_EN.txt	MARBLES	Toys	7	8	[0, 0, 0]	n/a	catFR1	0	R1370E
1512.855	0.901	1514575	WORD_OFF	n/a	n/a	MARBLES	Toys	7	8	[0, 0, 0]	n/a	catFR1	0	R1370E
1513.756	1.6	1515485	WORD	n/a	wordpools/wordpool_categorized_EN.txt	BALL	Toys	8	8	[0, 0, 0]	n/a	catFR1	0	R1370E
1515.389	1.099	1517097	WORD_OFF	n/a	n/a	BALL	Toys	8	8	[0, 0, 0]	n/a	catFR1	0	R1370E
1516.488	1.6	1518213	WORD	n/a	wordpools/wordpool_categorized_EN.txt	BUS	Vehicles	9	8	[0, 0, 0]	n/a	catFR1	0	R1370E
1518.122	0.917	1519839	WORD_OFF	n/a	n/a	BUS	Vehicles	9	8	[0, 0, 0]	n/a	catFR1	0	R1370E
1519.039	1.6	1520775	WORD	n/a	wordpools/wordpool_categorized_EN.txt	MOTORCYCLE	Vehicles	10	8	[0, 0, 0]	n/a	catFR1	0	R1370E
1520.673	1.088	1522387	WORD_OFF	n/a	n/a	MOTORCYCLE	Vehicles	10	8	[0, 0, 0]	n/a	catFR1	0	R1370E
1521.761	1.6	1523490	WORD	n/a	wordpools/wordpool_categorized_EN.txt	COFFEE	Beverages	11	8	[0, 0, 0]	n/a	catFR1	0	R1370E
1523.39	1.041	1525102	WORD_OFF	n/a	n/a	COFFEE	Beverages	11	8	[0, 0, 0]	n/a	catFR1	0	R1370E
1524.431	1.6	1526149	WORD	n/a	wordpools/wordpool_categorized_EN.txt	COLA	Beverages	12	8	[0, 0, 0]	n/a	catFR1	0	R1370E
1526.056	0.001	1527788	WORD_OFF	n/a	n/a	COLA	Beverages	12	8	[0, 0, 0]	n/a	catFR1	0	R1370E
1526.057	0.0	1527788	ENCODING_END	n/a	n/a	n/a	n/a	-999	8	[0, 0, 0]	n/a	catFR1	0	R1370E
1526.057	0.0	1527788	DISTRACT_START	n/a	n/a	n/a	n/a	-999	8	[0, 0, 0]	n/a	catFR1	0	R1370E
1526.057	0.016	1527788	START	n/a	n/a	n/a	n/a	-999	8	[-999, -999, -999]	n/a	catFR1	0	R1370E
1526.073	10.168	1527804	PROB	10.139	n/a	n/a	n/a	-999	8	[6, 4, 9]	19.0	catFR1	0	R1370E
1536.241	4.985	1537971	PROB	4.947	n/a	n/a	n/a	-999	8	[9, 6, 4]	19.0	catFR1	0	R1370E
1541.226	11.736	1542956	PROB	11.726	n/a	n/a	n/a	-999	8	[8, 9, 8]	25.0	catFR1	0	R1370E
1552.962	0.0	1554669	DISTRACT_END	n/a	n/a	n/a	n/a	-999	8	[0, 0, 0]	n/a	catFR1	0	R1370E
1552.952	2.16	1554682	STOP	n/a	n/a	n/a	n/a	-999	8	[-999, -999, -999]	n/a	catFR1	0	R1370E
1555.112	2.205	1556832	REC_START	n/a	n/a	n/a	n/a	-999	8	[0, 0, 0]	n/a	catFR1	0	R1370E
1557.317	0.542	1559046	REC_WORD_VV	2.205	n/a	<>	n/a	-999	8	[0, 0, 0]	n/a	catFR1	0	R1370E
1557.859	0.798	1559588	REC_WORD_VV	2.747	n/a	<>	n/a	-999	8	[0, 0, 0]	n/a	catFR1	0	R1370E
1558.657	1.04	1560386	REC_WORD	3.545	n/a	CAR	Vehicles	-999	8	[0, 0, 0]	n/a	catFR1	0	R1370E
1559.697	2.386	1561426	REC_WORD	4.585	n/a	TRUCK	Vehicles	5	8	[0, 0, 0]	n/a	catFR1	0	R1370E
1562.083	1.062	1563812	REC_WORD	6.971	n/a	BEER	Beverages	1	8	[0, 0, 0]	n/a	catFR1	0	R1370E
1563.145	5.011	1564874	REC_WORD	8.033	n/a	RUM	Beverages	2	8	[0, 0, 0]	n/a	catFR1	0	R1370E
1568.156	2.106	1569885	REC_WORD_VV	13.044	n/a	<>	n/a	-999	8	[0, 0, 0]	n/a	catFR1	0	R1370E
1570.262	0.879	1571991	REC_WORD_VV	15.15	n/a	<>	n/a	-999	8	[0, 0, 0]	n/a	catFR1	0	R1370E
1571.141	1.0	1572870	REC_WORD	16.029	n/a	SCREWDRIVER	Tools	-999	8	[0, 0, 0]	n/a	catFR1	0	R1370E
1572.141	2.566	1573870	REC_WORD_VV	17.029	n/a	<>	n/a	-999	8	[0, 0, 0]	n/a	catFR1	0	R1370E
1574.707	2.305	1576436	REC_WORD_VV	19.595	n/a	<>	n/a	-999	8	[0, 0, 0]	n/a	catFR1	0	R1370E
1577.012	2.371	1578741	REC_WORD	21.9	n/a	MARBLES	Toys	7	8	[0, 0, 0]	n/a	catFR1	0	R1370E
1579.383	5.741	1581112	REC_WORD	24.271	n/a	BALL	Toys	8	8	[0, 0, 0]	n/a	catFR1	0	R1370E
1585.124	4.595	1586867	REC_END	n/a	n/a	n/a	n/a	-999	8	[0, 0, 0]	n/a	catFR1	0	R1370E
1589.719	10.0	1591469	COUNTDOWN_START	n/a	n/a	n/a	n/a	-999	9	[0, 0, 0]	n/a	catFR1	0	R1370E
1600.147	1.208	1601858	COUNTDOWN_END	n/a	n/a	n/a	n/a	-999	9	[0, 0, 0]	n/a	catFR1	0	R1370E
1601.355	0.803	1603070	ENCODING_START	n/a	n/a	n/a	n/a	-999	9	[0, 0, 0]	n/a	catFR1	0	R1370E
1602.158	1.6	1603883	WORD	n/a	wordpools/wordpool_categorized_EN.txt	ROBIN	Birds	1	9	[0, 0, 0]	n/a	catFR1	0	R1370E
1603.788	1.07	1605495	WORD_OFF	n/a	n/a	ROBIN	Birds	1	9	[0, 0, 0]	n/a	catFR1	0	R1370E
1604.858	1.6	1606583	WORD	n/a	wordpools/wordpool_categorized_EN.txt	SPARROW	Birds	2	9	[0, 0, 0]	n/a	catFR1	0	R1370E
1606.488	0.955	1608195	WORD_OFF	n/a	n/a	SPARROW	Birds	2	9	[0, 0, 0]	n/a	catFR1	0	R1370E
1607.443	1.6	1609160	WORD	n/a	wordpools/wordpool_categorized_EN.txt	CHICKEN	FarmAnimals	3	9	[0, 0, 0]	n/a	catFR1	0	R1370E
1609.071	1.048	1610786	WORD_OFF	n/a	n/a	CHICKEN	FarmAnimals	3	9	[0, 0, 0]	n/a	catFR1	0	R1370E
1610.119	1.6	1611847	WORD	n/a	wordpools/wordpool_categorized_EN.txt	CALF	FarmAnimals	4	9	[0, 0, 0]	n/a	catFR1	0	R1370E
1611.756	0.994	1613472	WORD_OFF	n/a	n/a	CALF	FarmAnimals	4	9	[0, 0, 0]	n/a	catFR1	0	R1370E
1612.75	1.6	1614464	WORD	n/a	wordpools/wordpool_categorized_EN.txt	PLIERS	Tools	5	9	[0, 0, 0]	n/a	catFR1	0	R1370E
1614.373	0.896	1616076	WORD_OFF	n/a	n/a	PLIERS	Tools	5	9	[0, 0, 0]	n/a	catFR1	0	R1370E
1615.269	1.6	1616999	WORD	n/a	wordpools/wordpool_categorized_EN.txt	WRENCH	Tools	6	9	[0, 0, 0]	n/a	catFR1	0	R1370E
1616.907	0.947	1618611	WORD_OFF	n/a	n/a	WRENCH	Tools	6	9	[0, 0, 0]	n/a	catFR1	0	R1370E
1617.854	1.6	1619576	WORD	n/a	wordpools/wordpool_categorized_EN.txt	BULL	FarmAnimals	7	9	[0, 0, 0]	n/a	catFR1	0	R1370E
1619.491	0.872	1621202	WORD_OFF	n/a	n/a	BULL	FarmAnimals	7	9	[0, 0, 0]	n/a	catFR1	0	R1370E
1620.363	1.6	1622083	WORD	n/a	wordpools/wordpool_categorized_EN.txt	GOAT	FarmAnimals	8	9	[0, 0, 0]	n/a	catFR1	0	R1370E
1621.99	0.767	1623695	WORD_OFF	n/a	n/a	GOAT	FarmAnimals	8	9	[0, 0, 0]	n/a	catFR1	0	R1370E
1622.757	1.6	1624481	WORD	n/a	wordpools/wordpool_categorized_EN.txt	SHOVEL	Tools	9	9	[0, 0, 0]	n/a	catFR1	0	R1370E
1624.391	1.008	1626106	WORD_OFF	n/a	n/a	SHOVEL	Tools	9	9	[0, 0, 0]	n/a	catFR1	0	R1370E
1625.399	1.6	1627112	WORD	n/a	wordpools/wordpool_categorized_EN.txt	SANDER	Tools	10	9	[0, 0, 0]	n/a	catFR1	0	R1370E
1627.024	1.043	1628738	WORD_OFF	n/a	n/a	SANDER	Tools	10	9	[0, 0, 0]	n/a	catFR1	0	R1370E
1628.067	1.6	1629799	WORD	n/a	wordpools/wordpool_categorized_EN.txt	PIGEON	Birds	11	9	[0, 0, 0]	n/a	catFR1	0	R1370E
1629.676	0.778	1631383	WORD_OFF	n/a	n/a	PIGEON	Birds	11	9	[0, 0, 0]	n/a	catFR1	0	R1370E
1630.454	1.6	1632169	WORD	n/a	wordpools/wordpool_categorized_EN.txt	CROW	Birds	12	9	[0, 0, 0]	n/a	catFR1	0	R1370E
1632.075	0.001	1633794	WORD_OFF	n/a	n/a	CROW	Birds	12	9	[0, 0, 0]	n/a	catFR1	0	R1370E
1632.076	0.0	1633803	START	n/a	n/a	n/a	n/a	-999	9	[-999, -999, -999]	n/a	catFR1	0	R1370E
1632.076	0.0	1633808	ENCODING_END	n/a	n/a	n/a	n/a	-999	9	[0, 0, 0]	n/a	catFR1	0	R1370E
1632.076	0.016	1633808	DISTRACT_START	n/a	n/a	n/a	n/a	-999	9	[0, 0, 0]	n/a	catFR1	0	R1370E
1632.092	15.019	1633819	PROB	14.981	n/a	n/a	n/a	-999	9	[5, 4, 8]	17.0	catFR1	0	R1370E
1647.111	6.806	1648837	PROB	6.806	n/a	n/a	n/a	-999	9	[4, 6, 6]	16.0	catFR1	0	R1370E
1653.917	0.013	1655643	STOP	n/a	n/a	n/a	n/a	-999	9	[-999, -999, -999]	n/a	catFR1	0	R1370E
1653.93	2.117	1655646	DISTRACT_END	n/a	n/a	n/a	n/a	-999	9	[0, 0, 0]	n/a	catFR1	0	R1370E
1656.047	0.93	1657768	REC_START	n/a	n/a	n/a	n/a	-999	9	[0, 0, 0]	n/a	catFR1	0	R1370E
1656.977	1.482	1658703	REC_WORD	0.93	n/a	CHICKEN	FarmAnimals	3	9	[0, 0, 0]	n/a	catFR1	0	R1370E
1658.459	1.282	1660185	REC_WORD	2.412	n/a	BULL	FarmAnimals	7	9	[0, 0, 0]	n/a	catFR1	0	R1370E
1659.741	0.982	1661467	REC_WORD	3.694	n/a	GOAT	FarmAnimals	8	9	[0, 0, 0]	n/a	catFR1	0	R1370E
1660.723	5.654	1662449	REC_WORD	4.676	n/a	SHOVEL	Tools	9	9	[0, 0, 0]	n/a	catFR1	0	R1370E
1666.377	19.682	1668102	REC_WORD_VV	10.33	n/a	<>	n/a	-999	9	[0, 0, 0]	n/a	catFR1	0	R1370E
1686.059	3.661	1687790	REC_END	n/a	n/a	n/a	n/a	-999	9	[0, 0, 0]	n/a	catFR1	0	R1370E
1689.72	10.0	1691468	COUNTDOWN_START	n/a	n/a	n/a	n/a	-999	10	[0, 0, 0]	n/a	catFR1	0	R1370E
1700.148	1.073	1701857	COUNTDOWN_END	n/a	n/a	n/a	n/a	-999	10	[0, 0, 0]	n/a	catFR1	0	R1370E
1701.221	0.927	1702931	ENCODING_START	n/a	n/a	n/a	n/a	-999	10	[0, 0, 0]	n/a	catFR1	0	R1370E
1702.148	1.6	1703868	WORD	n/a	wordpools/wordpool_categorized_EN.txt	KNEE	BodyParts	1	10	[0, 0, 0]	n/a	catFR1	0	R1370E
1703.772	0.994	1705480	WORD_OFF	n/a	n/a	KNEE	BodyParts	1	10	[0, 0, 0]	n/a	catFR1	0	R1370E
1704.766	1.6	1706472	WORD	n/a	wordpools/wordpool_categorized_EN.txt	HAND	BodyParts	2	10	[0, 0, 0]	n/a	catFR1	0	R1370E
1706.389	1.057	1708098	WORD_OFF	n/a	n/a	HAND	BodyParts	2	10	[0, 0, 0]	n/a	catFR1	0	R1370E
1707.446	1.6	1709159	WORD	n/a	wordpools/wordpool_categorized_EN.txt	STAIRS	Building	3	10	[0, 0, 0]	n/a	catFR1	0	R1370E
1709.072	1.039	1710785	WORD_OFF	n/a	n/a	STAIRS	Building	3	10	[0, 0, 0]	n/a	catFR1	0	R1370E
1710.111	1.6	1711832	WORD	n/a	wordpools/wordpool_categorized_EN.txt	WALL	Building	4	10	[0, 0, 0]	n/a	catFR1	0	R1370E
1711.74	1.12	1713444	WORD_OFF	n/a	n/a	WALL	Building	4	10	[0, 0, 0]	n/a	catFR1	0	R1370E
1712.86	1.6	1714574	WORD	n/a	wordpools/wordpool_categorized_EN.txt	TABLET	Electronics	5	10	[0, 0, 0]	n/a	catFR1	0	R1370E
1714.491	0.758	1716199	WORD_OFF	n/a	n/a	TABLET	Electronics	5	10	[0, 0, 0]	n/a	catFR1	0	R1370E
1715.249	1.6	1716957	WORD	n/a	wordpools/wordpool_categorized_EN.txt	STEREO	Electronics	6	10	[0, 0, 0]	n/a	catFR1	0	R1370E
1716.874	0.889	1718583	WORD_OFF	n/a	n/a	STEREO	Electronics	6	10	[0, 0, 0]	n/a	catFR1	0	R1370E
1717.763	1.6	1719478	WORD	n/a	wordpools/wordpool_categorized_EN.txt	FINGERS	BodyParts	7	10	[0, 0, 0]	n/a	catFR1	0	R1370E
1719.391	0.799	1721104	WORD_OFF	n/a	n/a	FINGERS	BodyParts	7	10	[0, 0, 0]	n/a	catFR1	0	R1370E
1720.19	1.6	1721917	WORD	n/a	wordpools/wordpool_categorized_EN.txt	FOOT	BodyParts	8	10	[0, 0, 0]	n/a	catFR1	0	R1370E
1721.825	1.023	1723529	WORD_OFF	n/a	n/a	FOOT	BodyParts	8	10	[0, 0, 0]	n/a	catFR1	0	R1370E
1722.848	1.6	1724562	WORD	n/a	wordpools/wordpool_categorized_EN.txt	FLOOR	Building	9	10	[0, 0, 0]	n/a	catFR1	0	R1370E
1724.475	0.995	1726188	WORD_OFF	n/a	n/a	FLOOR	Building	9	10	[0, 0, 0]	n/a	catFR1	0	R1370E
1725.47	1.6	1727180	WORD	n/a	wordpools/wordpool_categorized_EN.txt	CEILING	Building	10	10	[0, 0, 0]	n/a	catFR1	0	R1370E
1727.092	0.971	1728792	WORD_OFF	n/a	n/a	CEILING	Building	10	10	[0, 0, 0]	n/a	catFR1	0	R1370E
1728.063	1.6	1729784	WORD	n/a	wordpools/wordpool_categorized_EN.txt	HEADPHONES	Electronics	11	10	[0, 0, 0]	n/a	catFR1	0	R1370E
1729.693	1.024	1731396	WORD_OFF	n/a	n/a	HEADPHONES	Electronics	11	10	[0, 0, 0]	n/a	catFR1	0	R1370E
1730.717	1.6	1732430	WORD	n/a	wordpools/wordpool_categorized_EN.txt	MICROWAVE	Electronics	12	10	[0, 0, 0]	n/a	catFR1	0	R1370E
1732.345	0.0	1734068	START	n/a	n/a	n/a	n/a	-999	10	[-999, -999, -999]	n/a	catFR1	0	R1370E
1732.344	0.0	1734069	WORD_OFF	n/a	n/a	MICROWAVE	Electronics	12	10	[0, 0, 0]	n/a	catFR1	0	R1370E
1732.344	0.0	1734069	ENCODING_END	n/a	n/a	n/a	n/a	-999	10	[0, 0, 0]	n/a	catFR1	0	R1370E
1732.344	0.016	1734069	DISTRACT_START	n/a	n/a	n/a	n/a	-999	10	[0, 0, 0]	n/a	catFR1	0	R1370E
1732.36	18.304	1734083	PROB	18.265	n/a	n/a	n/a	-999	10	[3, 4, 8]	15.0	catFR1	0	R1370E
1750.664	11.285	1752386	PROB	11.265	n/a	n/a	n/a	-999	10	[7, 1, 9]	17.0	catFR1	0	R1370E
1761.949	0.0	1763650	DISTRACT_END	n/a	n/a	n/a	n/a	-999	10	[0, 0, 0]	n/a	catFR1	0	R1370E
1761.929	2.17	1763651	STOP	n/a	n/a	n/a	n/a	-999	10	[-999, -999, -999]	n/a	catFR1	0	R1370E
1764.099	0.994	1765813	REC_START	n/a	n/a	n/a	n/a	-999	10	[0, 0, 0]	n/a	catFR1	0	R1370E
1765.093	1.114	1766815	REC_WORD	0.994	n/a	KNEE	BodyParts	1	10	[0, 0, 0]	n/a	catFR1	0	R1370E
1766.207	1.045	1767929	REC_WORD	2.108	n/a	HAND	BodyParts	2	10	[0, 0, 0]	n/a	catFR1	0	R1370E
1767.252	1.595	1768974	REC_WORD	3.153	n/a	STAIRS	Building	3	10	[0, 0, 0]	n/a	catFR1	0	R1370E
1768.847	10.128	1770569	REC_WORD	4.748	n/a	FLOOR	Building	9	10	[0, 0, 0]	n/a	catFR1	0	R1370E
1778.975	15.136	1780696	REC_WORD_VV	14.876	n/a	<>	n/a	-999	10	[0, 0, 0]	n/a	catFR1	0	R1370E
1794.111	3.994	1795849	REC_END	n/a	n/a	n/a	n/a	-999	10	[0, 0, 0]	n/a	catFR1	0	R1370E
1798.105	10.0	1799844	COUNTDOWN_START	n/a	n/a	n/a	n/a	-999	11	[0, 0, 0]	n/a	catFR1	0	R1370E
1808.533	1.075	1810246	COUNTDOWN_END	n/a	n/a	n/a	n/a	-999	11	[0, 0, 0]	n/a	catFR1	0	R1370E
1809.608	0.864	1811307	ENCODING_START	n/a	n/a	n/a	n/a	-999	11	[0, 0, 0]	n/a	catFR1	0	R1370E
1810.472	1.6	1812189	WORD	n/a	wordpools/wordpool_categorized_EN.txt	HEN	FarmAnimals	1	11	[0, 0, 0]	n/a	catFR1	0	R1370E
1812.107	1.093	1813815	WORD_OFF	n/a	n/a	HEN	FarmAnimals	1	11	[0, 0, 0]	n/a	catFR1	0	R1370E
1813.2	1.6	1814903	WORD	n/a	wordpools/wordpool_categorized_EN.txt	HORSE	FarmAnimals	2	11	[0, 0, 0]	n/a	catFR1	0	R1370E
1814.825	0.801	1816529	WORD_OFF	n/a	n/a	HORSE	FarmAnimals	2	11	[0, 0, 0]	n/a	catFR1	0	R1370E
1815.626	1.6	1817342	WORD	n/a	wordpools/wordpool_categorized_EN.txt	BASKETBALL	Toys	3	11	[0, 0, 0]	n/a	catFR1	0	R1370E
1817.258	0.751	1818968	WORD_OFF	n/a	n/a	BASKETBALL	Toys	3	11	[0, 0, 0]	n/a	catFR1	0	R1370E
1818.009	1.6	1819725	WORD	n/a	wordpools/wordpool_categorized_EN.txt	SLINKY	Toys	4	11	[0, 0, 0]	n/a	catFR1	0	R1370E
1819.642	0.934	1821351	WORD_OFF	n/a	n/a	SLINKY	Toys	4	11	[0, 0, 0]	n/a	catFR1	0	R1370E
1820.576	1.6	1822288	WORD	n/a	wordpools/wordpool_categorized_EN.txt	CABBAGE	Vegetables	5	11	[0, 0, 0]	n/a	catFR1	0	R1370E
1822.209	0.83	1823914	WORD_OFF	n/a	n/a	CABBAGE	Vegetables	5	11	[0, 0, 0]	n/a	catFR1	0	R1370E
1823.039	1.6	1824768	WORD	n/a	wordpools/wordpool_categorized_EN.txt	CELERY	Vegetables	6	11	[0, 0, 0]	n/a	catFR1	0	R1370E
1824.677	0.773	1826380	WORD_OFF	n/a	n/a	CELERY	Vegetables	6	11	[0, 0, 0]	n/a	catFR1	0	R1370E
1825.45	1.6	1827165	WORD	n/a	wordpools/wordpool_categorized_EN.txt	ROOSTER	FarmAnimals	7	11	[0, 0, 0]	n/a	catFR1	0	R1370E
1827.076	1.13	1828777	WORD_OFF	n/a	n/a	ROOSTER	FarmAnimals	7	11	[0, 0, 0]	n/a	catFR1	0	R1370E
1828.206	1.6	1829907	WORD	n/a	wordpools/wordpool_categorized_EN.txt	PIG	FarmAnimals	8	11	[0, 0, 0]	n/a	catFR1	0	R1370E
1829.811	1.015	1831519	WORD_OFF	n/a	n/a	PIG	FarmAnimals	8	11	[0, 0, 0]	n/a	catFR1	0	R1370E
1830.826	1.6	1832553	WORD	n/a	wordpools/wordpool_categorized_EN.txt	POTATO	Vegetables	9	11	[0, 0, 0]	n/a	catFR1	0	R1370E
1832.461	0.839	1834165	WORD_OFF	n/a	n/a	POTATO	Vegetables	9	11	[0, 0, 0]	n/a	catFR1	0	R1370E
1833.3	1.6	1835019	WORD	n/a	wordpools/wordpool_categorized_EN.txt	BROCCOLI	Vegetables	10	11	[0, 0, 0]	n/a	catFR1	0	R1370E
1834.911	0.896	1836617	WORD_OFF	n/a	n/a	BROCCOLI	Vegetables	10	11	[0, 0, 0]	n/a	catFR1	0	R1370E
1835.807	1.6	1837513	WORD	n/a	wordpools/wordpool_categorized_EN.txt	BARBIE	Toys	11	11	[0, 0, 0]	n/a	catFR1	0	R1370E
1837.429	0.893	1839125	WORD_OFF	n/a	n/a	BARBIE	Toys	11	11	[0, 0, 0]	n/a	catFR1	0	R1370E
1838.322	1.6	1840034	WORD	n/a	wordpools/wordpool_categorized_EN.txt	FOOTBALL	Toys	12	11	[0, 0, 0]	n/a	catFR1	0	R1370E
1839.946	0.001	1841660	WORD_OFF	n/a	n/a	FOOTBALL	Toys	12	11	[0, 0, 0]	n/a	catFR1	0	R1370E
1839.947	0.0	1841666	START	n/a	n/a	n/a	n/a	-999	11	[-999, -999, -999]	n/a	catFR1	0	R1370E
1839.946	0.001	1841673	ENCODING_END	n/a	n/a	n/a	n/a	-999	11	[0, 0, 0]	n/a	catFR1	0	R1370E
1839.947	0.015	1841673	DISTRACT_START	n/a	n/a	n/a	n/a	-999	11	[0, 0, 0]	n/a	catFR1	0	R1370E
1839.962	6.902	1841681	PROB	6.869	n/a	n/a	n/a	-999	11	[1, 3, 6]	10.0	catFR1	0	R1370E
1846.864	4.034	1848583	PROB	4.008	n/a	n/a	n/a	-999	11	[5, 6, 1]	12.0	catFR1	0	R1370E
1850.898	6.484	1852617	PROB	6.454	n/a	n/a	n/a	-999	11	[3, 8, 2]	13.0	catFR1	0	R1370E
1857.382	4.513	1859100	PROB	4.513	n/a	n/a	n/a	-999	11	[4, 2, 6]	12.0	catFR1	0	R1370E
1861.895	0.021	1863613	STOP	n/a	n/a	n/a	n/a	-999	11	[-999, -999, -999]	n/a	catFR1	0	R1370E
1861.916	2.15	1863621	DISTRACT_END	n/a	n/a	n/a	n/a	-999	11	[0, 0, 0]	n/a	catFR1	0	R1370E
1864.066	0.837	1865784	REC_START	n/a	n/a	n/a	n/a	-999	11	[0, 0, 0]	n/a	catFR1	0	R1370E
1864.903	0.755	1866621	REC_WORD	0.837	n/a	HEN	FarmAnimals	1	11	[0, 0, 0]	n/a	catFR1	0	R1370E
1865.658	1.098	1867376	REC_WORD	1.592	n/a	HORSE	FarmAnimals	2	11	[0, 0, 0]	n/a	catFR1	0	R1370E
1866.756	0.868	1868474	REC_WORD	2.69	n/a	BASKETBALL	Toys	3	11	[0, 0, 0]	n/a	catFR1	0	R1370E
1867.624	3.621	1869342	REC_WORD	3.558	n/a	SLINKY	Toys	4	11	[0, 0, 0]	n/a	catFR1	0	R1370E
1871.245	3.106	1872963	REC_WORD	7.179	n/a	CELERY	Vegetables	6	11	[0, 0, 0]	n/a	catFR1	0	R1370E
1874.351	8.664	1876069	REC_WORD	10.285	n/a	FOOTBALL	Toys	12	11	[0, 0, 0]	n/a	catFR1	0	R1370E
1883.015	11.064	1884733	REC_WORD	18.949	n/a	CABBAGE	Vegetables	5	11	[0, 0, 0]	n/a	catFR1	0	R1370E
1894.079	3.595	1895806	REC_END	n/a	n/a	n/a	n/a	-999	11	[0, 0, 0]	n/a	catFR1	0	R1370E
1897.674	10.0	1899402	COUNTDOWN_START	n/a	n/a	n/a	n/a	-999	12	[0, 0, 0]	n/a	catFR1	0	R1370E
1908.102	1.122	1909804	COUNTDOWN_END	n/a	n/a	n/a	n/a	-999	12	[0, 0, 0]	n/a	catFR1	0	R1370E
1909.224	1.078	1910920	ENCODING_START	n/a	n/a	n/a	n/a	-999	12	[0, 0, 0]	n/a	catFR1	0	R1370E
1910.302	1.6	1912009	WORD	n/a	wordpools/wordpool_categorized_EN.txt	SODA	Beverages	1	12	[0, 0, 0]	n/a	catFR1	0	R1370E
1911.909	1.141	1913607	WORD_OFF	n/a	n/a	SODA	Beverages	1	12	[0, 0, 0]	n/a	catFR1	0	R1370E
1913.05	1.6	1914751	WORD	n/a	wordpools/wordpool_categorized_EN.txt	CIDER	Beverages	2	12	[0, 0, 0]	n/a	catFR1	0	R1370E
1914.676	0.778	1916376	WORD_OFF	n/a	n/a	CIDER	Beverages	2	12	[0, 0, 0]	n/a	catFR1	0	R1370E
1915.454	1.6	1917162	WORD	n/a	wordpools/wordpool_categorized_EN.txt	FOG	Weather	3	12	[0, 0, 0]	n/a	catFR1	0	R1370E
1917.075	0.99	1918774	WORD_OFF	n/a	n/a	FOG	Weather	3	12	[0, 0, 0]	n/a	catFR1	0	R1370E
1918.065	1.6	1919780	WORD	n/a	wordpools/wordpool_categorized_EN.txt	SNOW	Weather	4	12	[0, 0, 0]	n/a	catFR1	0	R1370E
1919.676	1.028	1921378	WORD_OFF	n/a	n/a	SNOW	Weather	4	12	[0, 0, 0]	n/a	catFR1	0	R1370E
1920.704	1.6	1922411	WORD	n/a	wordpools/wordpool_categorized_EN.txt	MONKEY	Zoo	5	12	[0, 0, 0]	n/a	catFR1	0	R1370E
1922.326	1.031	1924023	WORD_OFF	n/a	n/a	MONKEY	Zoo	5	12	[0, 0, 0]	n/a	catFR1	0	R1370E
1923.357	1.6	1925070	WORD	n/a	wordpools/wordpool_categorized_EN.txt	ORANGUTAN	Zoo	6	12	[0, 0, 0]	n/a	catFR1	0	R1370E
1924.993	0.845	1926696	WORD_OFF	n/a	n/a	ORANGUTAN	Zoo	6	12	[0, 0, 0]	n/a	catFR1	0	R1370E
1925.838	1.6	1927536	WORD	n/a	wordpools/wordpool_categorized_EN.txt	WINE	Beverages	7	12	[0, 0, 0]	n/a	catFR1	0	R1370E
1927.461	1.096	1929162	WORD_OFF	n/a	n/a	WINE	Beverages	7	12	[0, 0, 0]	n/a	catFR1	0	R1370E
1928.557	1.6	1930264	WORD	n/a	wordpools/wordpool_categorized_EN.txt	MILK	Beverages	8	12	[0, 0, 0]	n/a	catFR1	0	R1370E
1930.177	0.865	1931876	WORD_OFF	n/a	n/a	MILK	Beverages	8	12	[0, 0, 0]	n/a	catFR1	0	R1370E
1931.042	1.6	1932758	WORD	n/a	wordpools/wordpool_categorized_EN.txt	THUNDERSTORM	Weather	9	12	[0, 0, 0]	n/a	catFR1	0	R1370E
1932.679	0.86	1934384	WORD_OFF	n/a	n/a	THUNDERSTORM	Weather	9	12	[0, 0, 0]	n/a	catFR1	0	R1370E
1933.539	1.6	1935238	WORD	n/a	wordpools/wordpool_categorized_EN.txt	LIGHTNING	Weather	10	12	[0, 0, 0]	n/a	catFR1	0	R1370E
1935.162	1.112	1936864	WORD_OFF	n/a	n/a	LIGHTNING	Weather	10	12	[0, 0, 0]	n/a	catFR1	0	R1370E
1936.274	1.6	1937980	WORD	n/a	wordpools/wordpool_categorized_EN.txt	PANDA	Zoo	11	12	[0, 0, 0]	n/a	catFR1	0	R1370E
1937.88	1.129	1939578	WORD_OFF	n/a	n/a	PANDA	Zoo	11	12	[0, 0, 0]	n/a	catFR1	0	R1370E
1939.009	1.6	1940722	WORD	n/a	wordpools/wordpool_categorized_EN.txt	CHIMPANZEE	Zoo	12	12	[0, 0, 0]	n/a	catFR1	0	R1370E
1940.631	0.0	1942346	START	n/a	n/a	n/a	n/a	-999	12	[-999, -999, -999]	n/a	catFR1	0	R1370E
1940.63	0.001	1942348	WORD_OFF	n/a	n/a	CHIMPANZEE	Zoo	12	12	[0, 0, 0]	n/a	catFR1	0	R1370E
1940.631	0.0	1942348	ENCODING_END	n/a	n/a	n/a	n/a	-999	12	[0, 0, 0]	n/a	catFR1	0	R1370E
1940.631	0.016	1942348	DISTRACT_START	n/a	n/a	n/a	n/a	-999	12	[0, 0, 0]	n/a	catFR1	0	R1370E
1940.647	8.151	1942362	PROB	8.114	n/a	n/a	n/a	-999	12	[4, 4, 6]	14.0	catFR1	0	R1370E
1948.798	6.551	1950513	PROB	6.522	n/a	n/a	n/a	-999	12	[1, 7, 5]	13.0	catFR1	0	R1370E
1955.349	4.184	1957064	PROB	4.148	n/a	n/a	n/a	-999	12	[5, 2, 8]	15.0	catFR1	0	R1370E
1959.533	4.034	1961248	PROB	4.02	n/a	n/a	n/a	-999	12	[8, 5, 5]	18.0	catFR1	0	R1370E
1963.567	0.0	1965260	DISTRACT_END	n/a	n/a	n/a	n/a	-999	12	[0, 0, 0]	n/a	catFR1	0	R1370E
1963.553	2.416	1965268	STOP	n/a	n/a	n/a	n/a	-999	12	[-999, -999, -999]	n/a	catFR1	0	R1370E
1965.969	0.677	1967671	REC_START	n/a	n/a	n/a	n/a	-999	12	[0, 0, 0]	n/a	catFR1	0	R1370E
1966.646	1.654	1968361	REC_WORD	0.677	n/a	CIDER	Beverages	2	12	[0, 0, 0]	n/a	catFR1	0	R1370E
1968.3	2.163	1970014	REC_WORD	2.331	n/a	SNOW	Weather	4	12	[0, 0, 0]	n/a	catFR1	0	R1370E
1970.463	1.042	1972177	REC_WORD	4.494	n/a	MONKEY	Zoo	5	12	[0, 0, 0]	n/a	catFR1	0	R1370E
1971.505	1.0	1973219	REC_WORD	5.536	n/a	CHIMPANZEE	Zoo	12	12	[0, 0, 0]	n/a	catFR1	0	R1370E
1972.505	4.62	1974219	REC_WORD_VV	6.536	n/a	<>	n/a	-999	12	[0, 0, 0]	n/a	catFR1	0	R1370E
1977.125	2.874	1978839	REC_WORD	11.156	n/a	CIDER	Beverages	2	12	[0, 0, 0]	n/a	catFR1	0	R1370E
1979.999	14.602	1981713	REC_WORD	14.03	n/a	SODA	Beverages	1	12	[0, 0, 0]	n/a	catFR1	0	R1370E
1994.601	1.379	1996315	REC_WORD	28.632	n/a	ICY	n/a	-999	12	[0, 0, 0]	n/a	catFR1	0	R1370E
1995.98	4.545	1997707	REC_END	n/a	n/a	n/a	n/a	-999	12	[0, 0, 0]	n/a	catFR1	0	R1370E
2000.525	10.0	2002253	COUNTDOWN_START	n/a	n/a	n/a	n/a	-999	13	[0, 0, 0]	n/a	catFR1	0	R1370E
2010.954	1.105	2012655	COUNTDOWN_END	n/a	n/a	n/a	n/a	-999	13	[0, 0, 0]	n/a	catFR1	0	R1370E
2012.059	0.997	2013758	ENCODING_START	n/a	n/a	n/a	n/a	-999	13	[0, 0, 0]	n/a	catFR1	0	R1370E
2013.056	1.6	2014777	WORD	n/a	wordpools/wordpool_categorized_EN.txt	CUPCAKE	Desserts	1	13	[0, 0, 0]	n/a	catFR1	0	R1370E
2014.677	0.937	2016375	WORD_OFF	n/a	n/a	CUPCAKE	Desserts	1	13	[0, 0, 0]	n/a	catFR1	0	R1370E
2015.614	1.6	2017326	WORD	n/a	wordpools/wordpool_categorized_EN.txt	FUDGE	Desserts	2	13	[0, 0, 0]	n/a	catFR1	0	R1370E
2017.243	0.914	2018938	WORD_OFF	n/a	n/a	FUDGE	Desserts	2	13	[0, 0, 0]	n/a	catFR1	0	R1370E
2018.157	1.6	2019875	WORD	n/a	wordpools/wordpool_categorized_EN.txt	WOODS	Landscapes	3	13	[0, 0, 0]	n/a	catFR1	0	R1370E
2019.794	0.859	2021487	WORD_OFF	n/a	n/a	WOODS	Landscapes	3	13	[0, 0, 0]	n/a	catFR1	0	R1370E
2020.653	1.6	2022355	WORD	n/a	wordpools/wordpool_categorized_EN.txt	RIVER	Landscapes	4	13	[0, 0, 0]	n/a	catFR1	0	R1370E
2022.277	0.81	2023967	WORD_OFF	n/a	n/a	RIVER	Landscapes	4	13	[0, 0, 0]	n/a	catFR1	0	R1370E
2023.087	1.6	2024794	WORD	n/a	wordpools/wordpool_categorized_EN.txt	BASEBALL	Toys	5	13	[0, 0, 0]	n/a	catFR1	0	R1370E
2024.712	1.084	2026406	WORD_OFF	n/a	n/a	BASEBALL	Toys	5	13	[0, 0, 0]	n/a	catFR1	0	R1370E
2025.796	1.6	2027508	WORD	n/a	wordpools/wordpool_categorized_EN.txt	FRISBEE	Toys	6	13	[0, 0, 0]	n/a	catFR1	0	R1370E
2027.429	1.008	2029120	WORD_OFF	n/a	n/a	FRISBEE	Toys	6	13	[0, 0, 0]	n/a	catFR1	0	R1370E
2028.437	1.6	2030139	WORD	n/a	wordpools/wordpool_categorized_EN.txt	MOUNTAIN	Landscapes	7	13	[0, 0, 0]	n/a	catFR1	0	R1370E
2030.062	1.034	2031751	WORD_OFF	n/a	n/a	MOUNTAIN	Landscapes	7	13	[0, 0, 0]	n/a	catFR1	0	R1370E
2031.096	1.6	2032812	WORD	n/a	wordpools/wordpool_categorized_EN.txt	VALLEY	Landscapes	8	13	[0, 0, 0]	n/a	catFR1	0	R1370E
2032.73	1.045	2034424	WORD_OFF	n/a	n/a	VALLEY	Landscapes	8	13	[0, 0, 0]	n/a	catFR1	0	R1370E
2033.775	1.6	2035471	WORD	n/a	wordpools/wordpool_categorized_EN.txt	DOLLHOUSE	Toys	9	13	[0, 0, 0]	n/a	catFR1	0	R1370E
2035.397	0.965	2037097	WORD_OFF	n/a	n/a	DOLLHOUSE	Toys	9	13	[0, 0, 0]	n/a	catFR1	0	R1370E
2036.362	1.6	2038075	WORD	n/a	wordpools/wordpool_categorized_EN.txt	PUZZLE	Toys	10	13	[0, 0, 0]	n/a	catFR1	0	R1370E
2037.996	1.076	2039687	WORD_OFF	n/a	n/a	PUZZLE	Toys	10	13	[0, 0, 0]	n/a	catFR1	0	R1370E
2039.072	1.6	2040776	WORD	n/a	wordpools/wordpool_categorized_EN.txt	PASTRY	Desserts	11	13	[0, 0, 0]	n/a	catFR1	0	R1370E
2040.681	0.981	2042374	WORD_OFF	n/a	n/a	PASTRY	Desserts	11	13	[0, 0, 0]	n/a	catFR1	0	R1370E
2041.662	1.6	2043380	WORD	n/a	wordpools/wordpool_categorized_EN.txt	PIE	Desserts	12	13	[0, 0, 0]	n/a	catFR1	0	R1370E
2043.297	0.001	2045006	WORD_OFF	n/a	n/a	PIE	Desserts	12	13	[0, 0, 0]	n/a	catFR1	0	R1370E
2043.298	0.0	2045006	ENCODING_END	n/a	n/a	n/a	n/a	-999	13	[0, 0, 0]	n/a	catFR1	0	R1370E
2043.298	0.0	2045006	DISTRACT_START	n/a	n/a	n/a	n/a	-999	13	[0, 0, 0]	n/a	catFR1	0	R1370E
2043.298	0.016	2045010	START	n/a	n/a	n/a	n/a	-999	13	[-999, -999, -999]	n/a	catFR1	0	R1370E
2043.314	8.036	2045026	PROB	7.999	n/a	n/a	n/a	-999	13	[2, 8, 4]	14.0	catFR1	0	R1370E
2051.35	6.184	2053061	PROB	6.148	n/a	n/a	n/a	-999	13	[9, 6, 3]	18.0	catFR1	0	R1370E
2057.534	4.466	2059245	PROB	4.437	n/a	n/a	n/a	-999	13	[8, 6, 4]	18.0	catFR1	0	R1370E
2062.0	3.682	2063711	PROB	3.682	n/a	n/a	n/a	-999	13	[8, 2, 4]	14.0	catFR1	0	R1370E
2065.682	0.02	2067393	STOP	n/a	n/a	n/a	n/a	-999	13	[-999, -999, -999]	n/a	catFR1	0	R1370E
2065.702	2.234	2067395	DISTRACT_END	n/a	n/a	n/a	n/a	-999	13	[0, 0, 0]	n/a	catFR1	0	R1370E
2067.936	0.653	2069640	REC_START	n/a	n/a	n/a	n/a	-999	13	[0, 0, 0]	n/a	catFR1	0	R1370E
2068.589	0.963	2070300	REC_WORD_VV	0.653	n/a	<>	n/a	-999	13	[0, 0, 0]	n/a	catFR1	0	R1370E
2069.552	1.06	2071263	REC_WORD	1.616	n/a	PASTRY	Desserts	11	13	[0, 0, 0]	n/a	catFR1	0	R1370E
2070.612	2.39	2072323	REC_WORD	2.676	n/a	PIE	Desserts	12	13	[0, 0, 0]	n/a	catFR1	0	R1370E
2073.002	0.899	2074713	REC_WORD	5.066	n/a	MOUNTAIN	Landscapes	7	13	[0, 0, 0]	n/a	catFR1	0	R1370E
2073.901	3.79	2075612	REC_WORD	5.965	n/a	VALLEY	Landscapes	8	13	[0, 0, 0]	n/a	catFR1	0	R1370E
2077.691	20.258	2079401	REC_WORD	9.755	n/a	HILLS	Landscapes	-999	13	[0, 0, 0]	n/a	catFR1	0	R1370E
2097.949	17.479	2099676	REC_END	n/a	n/a	n/a	n/a	-999	13	[0, 0, 0]	n/a	catFR1	0	R1370E
2115.428	10.0	2117146	COUNTDOWN_START	n/a	n/a	n/a	n/a	-999	14	[0, 0, 0]	n/a	catFR1	0	R1370E
2125.857	1.256	2127548	COUNTDOWN_END	n/a	n/a	n/a	n/a	-999	14	[0, 0, 0]	n/a	catFR1	0	R1370E
2127.113	0.968	2128802	ENCODING_START	n/a	n/a	n/a	n/a	-999	14	[0, 0, 0]	n/a	catFR1	0	R1370E
2128.081	1.6	2129780	WORD	n/a	wordpools/wordpool_categorized_EN.txt	HAWK	Birds	1	14	[0, 0, 0]	n/a	catFR1	0	R1370E
2129.713	1.082	2131406	WORD_OFF	n/a	n/a	HAWK	Birds	1	14	[0, 0, 0]	n/a	catFR1	0	R1370E
2130.795	1.6	2132508	WORD	n/a	wordpools/wordpool_categorized_EN.txt	DOVE	Birds	2	14	[0, 0, 0]	n/a	catFR1	0	R1370E
2132.431	0.773	2134120	WORD_OFF	n/a	n/a	DOVE	Birds	2	14	[0, 0, 0]	n/a	catFR1	0	R1370E
2133.204	1.6	2134906	WORD	n/a	wordpools/wordpool_categorized_EN.txt	CAKE	Desserts	3	14	[0, 0, 0]	n/a	catFR1	0	R1370E
2134.831	1.11	2136518	WORD_OFF	n/a	n/a	CAKE	Desserts	3	14	[0, 0, 0]	n/a	catFR1	0	R1370E
2135.941	1.6	2137634	WORD	n/a	wordpools/wordpool_categorized_EN.txt	BROWNIES	Desserts	4	14	[0, 0, 0]	n/a	catFR1	0	R1370E
2137.565	0.875	2139259	WORD_OFF	n/a	n/a	BROWNIES	Desserts	4	14	[0, 0, 0]	n/a	catFR1	0	R1370E
2138.44	1.6	2140141	WORD	n/a	wordpools/wordpool_categorized_EN.txt	DAFFODIL	Flowers	5	14	[0, 0, 0]	n/a	catFR1	0	R1370E
2140.064	0.796	2141753	WORD_OFF	n/a	n/a	DAFFODIL	Flowers	5	14	[0, 0, 0]	n/a	catFR1	0	R1370E
2140.86	1.6	2142552	WORD	n/a	wordpools/wordpool_categorized_EN.txt	ORCHID	Flowers	6	14	[0, 0, 0]	n/a	catFR1	0	R1370E
2142.482	1.006	2144178	WORD_OFF	n/a	n/a	ORCHID	Flowers	6	14	[0, 0, 0]	n/a	catFR1	0	R1370E
2143.488	1.6	2145184	WORD	n/a	wordpools/wordpool_categorized_EN.txt	FINCH	Birds	7	14	[0, 0, 0]	n/a	catFR1	0	R1370E
2145.115	0.846	2146810	WORD_OFF	n/a	n/a	FINCH	Birds	7	14	[0, 0, 0]	n/a	catFR1	0	R1370E
2145.961	1.6	2147650	WORD	n/a	wordpools/wordpool_categorized_EN.txt	SEAGULL	Birds	8	14	[0, 0, 0]	n/a	catFR1	0	R1370E
2147.583	1.089	2149276	WORD_OFF	n/a	n/a	SEAGULL	Birds	8	14	[0, 0, 0]	n/a	catFR1	0	R1370E
2148.672	1.6	2150378	WORD	n/a	wordpools/wordpool_categorized_EN.txt	LILY	Flowers	9	14	[0, 0, 0]	n/a	catFR1	0	R1370E
2150.299	0.786	2151990	WORD_OFF	n/a	n/a	LILY	Flowers	9	14	[0, 0, 0]	n/a	catFR1	0	R1370E
2151.085	1.6	2152789	WORD	n/a	wordpools/wordpool_categorized_EN.txt	MARIGOLD	Flowers	10	14	[0, 0, 0]	n/a	catFR1	0	R1370E
2152.718	0.767	2154401	WORD_OFF	n/a	n/a	MARIGOLD	Flowers	10	14	[0, 0, 0]	n/a	catFR1	0	R1370E
2153.485	1.6	2155186	WORD	n/a	wordpools/wordpool_categorized_EN.txt	COBBLER	Desserts	11	14	[0, 0, 0]	n/a	catFR1	0	R1370E
2155.117	0.801	2156812	WORD_OFF	n/a	n/a	COBBLER	Desserts	11	14	[0, 0, 0]	n/a	catFR1	0	R1370E
2155.918	1.6	2157625	WORD	n/a	wordpools/wordpool_categorized_EN.txt	MOUSSE	Desserts	12	14	[0, 0, 0]	n/a	catFR1	0	R1370E
2157.553	0.0	2159261	START	n/a	n/a	n/a	n/a	-999	14	[-999, -999, -999]	n/a	catFR1	0	R1370E
2157.552	0.0	2159265	WORD_OFF	n/a	n/a	MOUSSE	Desserts	12	14	[0, 0, 0]	n/a	catFR1	0	R1370E
2157.552	0.001	2159265	ENCODING_END	n/a	n/a	n/a	n/a	-999	14	[0, 0, 0]	n/a	catFR1	0	R1370E
2157.553	0.015	2159265	DISTRACT_START	n/a	n/a	n/a	n/a	-999	14	[0, 0, 0]	n/a	catFR1	0	R1370E
2157.568	11.768	2159276	PROB	11.735	n/a	n/a	n/a	-999	14	[1, 9, 7]	17.0	catFR1	0	R1370E
2169.336	5.352	2171043	PROB	5.32	n/a	n/a	n/a	-999	14	[3, 3, 6]	12.0	catFR1	0	R1370E
2174.688	5.55	2176395	PROB	5.542	n/a	n/a	n/a	-999	14	[6, 2, 1]	9.0	catFR1	0	R1370E
2180.238	0.0	2181929	DISTRACT_END	n/a	n/a	n/a	n/a	-999	14	[0, 0, 0]	n/a	catFR1	0	R1370E
2180.23	2.177	2181937	STOP	n/a	n/a	n/a	n/a	-999	14	[-999, -999, -999]	n/a	catFR1	0	R1370E
2182.407	0.784	2184106	REC_START	n/a	n/a	n/a	n/a	-999	14	[0, 0, 0]	n/a	catFR1	0	R1370E
2183.191	1.113	2184898	REC_WORD	0.784	n/a	HAWK	Birds	1	14	[0, 0, 0]	n/a	catFR1	0	R1370E
2184.304	1.086	2186011	REC_WORD	1.897	n/a	DOVE	Birds	2	14	[0, 0, 0]	n/a	catFR1	0	R1370E
2185.39	2.497	2187097	REC_WORD	2.983	n/a	CAKE	Desserts	3	14	[0, 0, 0]	n/a	catFR1	0	R1370E
2187.887	14.659	2189593	REC_WORD	5.48	n/a	MARIGOLD	Flowers	10	14	[0, 0, 0]	n/a	catFR1	0	R1370E
2202.546	9.873	2204252	REC_WORD_VV	20.139	n/a	<>	n/a	-999	14	[0, 0, 0]	n/a	catFR1	0	R1370E
2212.419	3.227	2214142	REC_END	n/a	n/a	n/a	n/a	-999	14	[0, 0, 0]	n/a	catFR1	0	R1370E
2215.646	10.0	2217366	COUNTDOWN_START	n/a	n/a	n/a	n/a	-999	15	[0, 0, 0]	n/a	catFR1	0	R1370E
2226.074	1.023	2227768	COUNTDOWN_END	n/a	n/a	n/a	n/a	-999	15	[0, 0, 0]	n/a	catFR1	0	R1370E
2227.097	0.944	2228787	ENCODING_START	n/a	n/a	n/a	n/a	-999	15	[0, 0, 0]	n/a	catFR1	0	R1370E
2228.041	1.6	2229738	WORD	n/a	wordpools/wordpool_categorized_EN.txt	SHORTS	Clothing	1	15	[0, 0, 0]	n/a	catFR1	0	R1370E
2229.648	0.818	2231336	WORD_OFF	n/a	n/a	SHORTS	Clothing	1	15	[0, 0, 0]	n/a	catFR1	0	R1370E
2230.466	1.6	2232163	WORD	n/a	wordpools/wordpool_categorized_EN.txt	UNDERWEAR	Clothing	2	15	[0, 0, 0]	n/a	catFR1	0	R1370E
2232.097	0.799	2233789	WORD_OFF	n/a	n/a	UNDERWEAR	Clothing	2	15	[0, 0, 0]	n/a	catFR1	0	R1370E
2232.896	1.6	2234601	WORD	n/a	wordpools/wordpool_categorized_EN.txt	LAMB	FarmAnimals	3	15	[0, 0, 0]	n/a	catFR1	0	R1370E
2234.532	1.077	2236213	WORD_OFF	n/a	n/a	LAMB	FarmAnimals	3	15	[0, 0, 0]	n/a	catFR1	0	R1370E
2235.609	1.6	2237302	WORD	n/a	wordpools/wordpool_categorized_EN.txt	COW	FarmAnimals	4	15	[0, 0, 0]	n/a	catFR1	0	R1370E
2237.231	0.79	2238914	WORD_OFF	n/a	n/a	COW	FarmAnimals	4	15	[0, 0, 0]	n/a	catFR1	0	R1370E
2238.021	1.6	2239713	WORD	n/a	wordpools/wordpool_categorized_EN.txt	SPINACH	Vegetables	5	15	[0, 0, 0]	n/a	catFR1	0	R1370E
2239.633	1.029	2241325	WORD_OFF	n/a	n/a	SPINACH	Vegetables	5	15	[0, 0, 0]	n/a	catFR1	0	R1370E
2240.662	1.6	2242358	WORD	n/a	wordpools/wordpool_categorized_EN.txt	CORN	Vegetables	6	15	[0, 0, 0]	n/a	catFR1	0	R1370E
2242.282	0.83	2243970	WORD_OFF	n/a	n/a	CORN	Vegetables	6	15	[0, 0, 0]	n/a	catFR1	0	R1370E
2243.112	1.6	2244797	WORD	n/a	wordpools/wordpool_categorized_EN.txt	SHEEP	FarmAnimals	7	15	[0, 0, 0]	n/a	catFR1	0	R1370E
2244.717	1.13	2246409	WORD_OFF	n/a	n/a	SHEEP	FarmAnimals	7	15	[0, 0, 0]	n/a	catFR1	0	R1370E
2245.847	1.6	2247553	WORD	n/a	wordpools/wordpool_categorized_EN.txt	TURKEY	FarmAnimals	8	15	[0, 0, 0]	n/a	catFR1	0	R1370E
2247.484	0.938	2249178	WORD_OFF	n/a	n/a	TURKEY	FarmAnimals	8	15	[0, 0, 0]	n/a	catFR1	0	R1370E
2248.422	1.6	2250115	WORD	n/a	wordpools/wordpool_categorized_EN.txt	ONION	Vegetables	9	15	[0, 0, 0]	n/a	catFR1	0	R1370E
2250.05	0.867	2251741	WORD_OFF	n/a	n/a	ONION	Vegetables	9	15	[0, 0, 0]	n/a	catFR1	0	R1370E
2250.917	1.6	2252623	WORD	n/a	wordpools/wordpool_categorized_EN.txt	CUCUMBER	Vegetables	10	15	[0, 0, 0]	n/a	catFR1	0	R1370E
2252.552	1.048	2254235	WORD_OFF	n/a	n/a	CUCUMBER	Vegetables	10	15	[0, 0, 0]	n/a	catFR1	0	R1370E
2253.6	1.6	2255309	WORD	n/a	wordpools/wordpool_categorized_EN.txt	SKIRT	Clothing	11	15	[0, 0, 0]	n/a	catFR1	0	R1370E
2255.235	0.911	2256921	WORD_OFF	n/a	n/a	SKIRT	Clothing	11	15	[0, 0, 0]	n/a	catFR1	0	R1370E
2256.146	1.6	2257845	WORD	n/a	wordpools/wordpool_categorized_EN.txt	SHIRT	Clothing	12	15	[0, 0, 0]	n/a	catFR1	0	R1370E
2257.753	0.0	2259457	WORD_OFF	n/a	n/a	SHIRT	Clothing	12	15	[0, 0, 0]	n/a	catFR1	0	R1370E
2257.753	0.0	2259457	ENCODING_END	n/a	n/a	n/a	n/a	-999	15	[0, 0, 0]	n/a	catFR1	0	R1370E
2257.753	0.0	2259457	DISTRACT_START	n/a	n/a	n/a	n/a	-999	15	[0, 0, 0]	n/a	catFR1	0	R1370E
2257.753	0.016	2259457	START	n/a	n/a	n/a	n/a	-999	15	[-999, -999, -999]	n/a	catFR1	0	R1370E
2257.769	13.568	2259473	PROB	13.536	n/a	n/a	n/a	-999	15	[4, 3, 9]	16.0	catFR1	0	R1370E
2271.337	11.035	2273040	PROB	11.035	n/a	n/a	n/a	-999	15	[2, 5, 8]	15.0	catFR1	0	R1370E
2282.372	0.018	2284075	STOP	n/a	n/a	n/a	n/a	-999	15	[-999, -999, -999]	n/a	catFR1	0	R1370E
2282.39	2.218	2284077	DISTRACT_END	n/a	n/a	n/a	n/a	-999	15	[0, 0, 0]	n/a	catFR1	0	R1370E
2284.608	0.644	2286309	REC_START	n/a	n/a	n/a	n/a	-999	15	[0, 0, 0]	n/a	catFR1	0	R1370E
2285.252	1.099	2286955	REC_WORD	0.644	n/a	LAMB	FarmAnimals	3	15	[0, 0, 0]	n/a	catFR1	0	R1370E
2286.351	0.935	2288054	REC_WORD	1.743	n/a	COW	FarmAnimals	4	15	[0, 0, 0]	n/a	catFR1	0	R1370E
2287.286	1.096	2288989	REC_WORD	2.678	n/a	SHEEP	FarmAnimals	7	15	[0, 0, 0]	n/a	catFR1	0	R1370E
2288.382	1.749	2290085	REC_WORD	3.774	n/a	UNDERWEAR	Clothing	2	15	[0, 0, 0]	n/a	catFR1	0	R1370E
2290.131	24.49	2291834	REC_WORD	5.523	n/a	SHIRT	Clothing	12	15	[0, 0, 0]	n/a	catFR1	0	R1370E
2314.621	2.876	2316331	REC_END	n/a	n/a	n/a	n/a	-999	15	[0, 0, 0]	n/a	catFR1	0	R1370E
2317.497	10.0	2319211	COUNTDOWN_START	n/a	n/a	n/a	n/a	-999	16	[0, 0, 0]	n/a	catFR1	0	R1370E
2327.926	1.089	2329613	COUNTDOWN_END	n/a	n/a	n/a	n/a	-999	16	[0, 0, 0]	n/a	catFR1	0	R1370E
2329.015	1.126	2330701	ENCODING_START	n/a	n/a	n/a	n/a	-999	16	[0, 0, 0]	n/a	catFR1	0	R1370E
2330.141	1.6	2331831	WORD	n/a	wordpools/wordpool_categorized_EN.txt	SCANNER	Electronics	1	16	[0, 0, 0]	n/a	catFR1	0	R1370E
2331.766	0.822	2333443	WORD_OFF	n/a	n/a	SCANNER	Electronics	1	16	[0, 0, 0]	n/a	catFR1	0	R1370E
2332.588	1.6	2334284	WORD	n/a	wordpools/wordpool_categorized_EN.txt	COMPUTER	Electronics	2	16	[0, 0, 0]	n/a	catFR1	0	R1370E
2334.215	1.011	2335896	WORD_OFF	n/a	n/a	COMPUTER	Electronics	2	16	[0, 0, 0]	n/a	catFR1	0	R1370E
2335.226	1.6	2336915	WORD	n/a	wordpools/wordpool_categorized_EN.txt	CORKSCREW	KitchenTools	3	16	[0, 0, 0]	n/a	catFR1	0	R1370E
2336.85	0.761	2338527	WORD_OFF	n/a	n/a	CORKSCREW	KitchenTools	3	16	[0, 0, 0]	n/a	catFR1	0	R1370E
2337.611	1.6	2339299	WORD	n/a	wordpools/wordpool_categorized_EN.txt	SPOON	KitchenTools	4	16	[0, 0, 0]	n/a	catFR1	0	R1370E
2339.233	0.933	2340925	WORD_OFF	n/a	n/a	SPOON	KitchenTools	4	16	[0, 0, 0]	n/a	catFR1	0	R1370E
2340.166	1.6	2341861	WORD	n/a	wordpools/wordpool_categorized_EN.txt	SHRIMP	OceanAnimals	5	16	[0, 0, 0]	n/a	catFR1	0	R1370E
2341.801	0.986	2343487	WORD_OFF	n/a	n/a	SHRIMP	OceanAnimals	5	16	[0, 0, 0]	n/a	catFR1	0	R1370E
2342.787	1.6	2344479	WORD	n/a	wordpools/wordpool_categorized_EN.txt	CRAB	OceanAnimals	6	16	[0, 0, 0]	n/a	catFR1	0	R1370E
2344.418	1.079	2346105	WORD_OFF	n/a	n/a	CRAB	OceanAnimals	6	16	[0, 0, 0]	n/a	catFR1	0	R1370E
2345.497	1.6	2347180	WORD	n/a	wordpools/wordpool_categorized_EN.txt	PEELER	KitchenTools	7	16	[0, 0, 0]	n/a	catFR1	0	R1370E
2347.117	0.905	2348805	WORD_OFF	n/a	n/a	PEELER	KitchenTools	7	16	[0, 0, 0]	n/a	catFR1	0	R1370E
2348.022	1.6	2349715	WORD	n/a	wordpools/wordpool_categorized_EN.txt	GRATER	KitchenTools	8	16	[0, 0, 0]	n/a	catFR1	0	R1370E
2349.652	1.058	2351340	WORD_OFF	n/a	n/a	GRATER	KitchenTools	8	16	[0, 0, 0]	n/a	catFR1	0	R1370E
2350.71	1.6	2352401	WORD	n/a	wordpools/wordpool_categorized_EN.txt	PHONE	Electronics	9	16	[0, 0, 0]	n/a	catFR1	0	R1370E
2352.335	1.024	2354013	WORD_OFF	n/a	n/a	PHONE	Electronics	9	16	[0, 0, 0]	n/a	catFR1	0	R1370E
2353.359	1.6	2355060	WORD	n/a	wordpools/wordpool_categorized_EN.txt	RADIO	Electronics	10	16	[0, 0, 0]	n/a	catFR1	0	R1370E
2354.985	0.875	2356672	WORD_OFF	n/a	n/a	RADIO	Electronics	10	16	[0, 0, 0]	n/a	catFR1	0	R1370E
2355.86	1.6	2357554	WORD	n/a	wordpools/wordpool_categorized_EN.txt	JELLYFISH	OceanAnimals	11	16	[0, 0, 0]	n/a	catFR1	0	R1370E
2357.487	0.785	2359166	WORD_OFF	n/a	n/a	JELLYFISH	OceanAnimals	11	16	[0, 0, 0]	n/a	catFR1	0	R1370E
2358.272	1.6	2359965	WORD	n/a	wordpools/wordpool_categorized_EN.txt	LOBSTER	OceanAnimals	12	16	[0, 0, 0]	n/a	catFR1	0	R1370E
2359.904	0.0	2361605	WORD_OFF	n/a	n/a	LOBSTER	OceanAnimals	12	16	[0, 0, 0]	n/a	catFR1	0	R1370E
2359.904	0.001	2361605	ENCODING_END	n/a	n/a	n/a	n/a	-999	16	[0, 0, 0]	n/a	catFR1	0	R1370E
2359.905	0.0	2361605	DISTRACT_START	n/a	n/a	n/a	n/a	-999	16	[0, 0, 0]	n/a	catFR1	0	R1370E
2359.905	0.016	2361605	START	n/a	n/a	n/a	n/a	-999	16	[-999, -999, -999]	n/a	catFR1	0	R1370E
2359.921	7.434	2361621	PROB	7.397	n/a	n/a	n/a	-999	16	[6, 1, 6]	13.0	catFR1	0	R1370E
2367.355	9.152	2369055	PROB	9.127	n/a	n/a	n/a	-999	16	[4, 8, 8]	20.0	catFR1	0	R1370E
2376.507	4.629	2378207	PROB	4.629	n/a	n/a	n/a	-999	16	[2, 9, 1]	12.0	catFR1	0	R1370E
2381.136	0.021	2382835	STOP	n/a	n/a	n/a	n/a	-999	16	[-999, -999, -999]	n/a	catFR1	0	R1370E
2381.157	2.184	2382836	DISTRACT_END	n/a	n/a	n/a	n/a	-999	16	[0, 0, 0]	n/a	catFR1	0	R1370E
2383.341	0.635	2385041	REC_START	n/a	n/a	n/a	n/a	-999	16	[0, 0, 0]	n/a	catFR1	0	R1370E
2383.976	1.159	2385675	REC_WORD	0.635	n/a	SCANNER	Electronics	1	16	[0, 0, 0]	n/a	catFR1	0	R1370E
2385.135	1.21	2386834	REC_WORD	1.794	n/a	COMPUTER	Electronics	2	16	[0, 0, 0]	n/a	catFR1	0	R1370E
2386.345	1.391	2388044	REC_WORD	3.004	n/a	SHRIMP	OceanAnimals	5	16	[0, 0, 0]	n/a	catFR1	0	R1370E
2387.736	25.619	2389435	REC_WORD	4.395	n/a	CRAB	OceanAnimals	6	16	[0, 0, 0]	n/a	catFR1	0	R1370E
2413.355	3.942	2415063	REC_END	n/a	n/a	n/a	n/a	-999	16	[0, 0, 0]	n/a	catFR1	0	R1370E
2417.297	10.0	2419017	COUNTDOWN_START	n/a	n/a	n/a	n/a	-999	17	[0, 0, 0]	n/a	catFR1	0	R1370E
2427.726	1.257	2429419	COUNTDOWN_END	n/a	n/a	n/a	n/a	-999	17	[0, 0, 0]	n/a	catFR1	0	R1370E
2428.983	1.11	2430673	ENCODING_START	n/a	n/a	n/a	n/a	-999	17	[0, 0, 0]	n/a	catFR1	0	R1370E
2430.093	1.6	2431775	WORD	n/a	wordpools/wordpool_categorized_EN.txt	MIXER	Appliances	1	17	[0, 0, 0]	n/a	catFR1	0	R1370E
2431.7	0.966	2433373	WORD_OFF	n/a	n/a	MIXER	Appliances	1	17	[0, 0, 0]	n/a	catFR1	0	R1370E
2432.666	1.6	2434365	WORD	n/a	wordpools/wordpool_categorized_EN.txt	STOVE	Appliances	2	17	[0, 0, 0]	n/a	catFR1	0	R1370E
2434.299	0.822	2435977	WORD_OFF	n/a	n/a	STOVE	Appliances	2	17	[0, 0, 0]	n/a	catFR1	0	R1370E
2435.121	1.6	2436818	WORD	n/a	wordpools/wordpool_categorized_EN.txt	JUICE	Beverages	3	17	[0, 0, 0]	n/a	catFR1	0	R1370E
2436.734	0.926	2438416	WORD_OFF	n/a	n/a	JUICE	Beverages	3	17	[0, 0, 0]	n/a	catFR1	0	R1370E
2437.66	1.6	2439353	WORD	n/a	wordpools/wordpool_categorized_EN.txt	WATER	Beverages	4	17	[0, 0, 0]	n/a	catFR1	0	R1370E
2439.284	0.79	2440965	WORD_OFF	n/a	n/a	WATER	Beverages	4	17	[0, 0, 0]	n/a	catFR1	0	R1370E
2440.074	1.6	2441764	WORD	n/a	wordpools/wordpool_categorized_EN.txt	STRAINER	KitchenTools	5	17	[0, 0, 0]	n/a	catFR1	0	R1370E
2441.702	0.992	2443376	WORD_OFF	n/a	n/a	STRAINER	KitchenTools	5	17	[0, 0, 0]	n/a	catFR1	0	R1370E
2442.694	1.6	2444382	WORD	n/a	wordpools/wordpool_categorized_EN.txt	SPATULA	KitchenTools	6	17	[0, 0, 0]	n/a	catFR1	0	R1370E
2444.318	0.764	2445994	WORD_OFF	n/a	n/a	SPATULA	KitchenTools	6	17	[0, 0, 0]	n/a	catFR1	0	R1370E
2445.082	1.6	2446765	WORD	n/a	wordpools/wordpool_categorized_EN.txt	TEA	Beverages	7	17	[0, 0, 0]	n/a	catFR1	0	R1370E
2446.686	1.009	2448364	WORD_OFF	n/a	n/a	TEA	Beverages	7	17	[0, 0, 0]	n/a	catFR1	0	R1370E
2447.695	1.6	2449383	WORD	n/a	wordpools/wordpool_categorized_EN.txt	LEMONADE	Beverages	8	17	[0, 0, 0]	n/a	catFR1	0	R1370E
2449.319	1.016	2450995	WORD_OFF	n/a	n/a	LEMONADE	Beverages	8	17	[0, 0, 0]	n/a	catFR1	0	R1370E
2450.335	1.6	2452028	WORD	n/a	wordpools/wordpool_categorized_EN.txt	DISHWASHER	Appliances	9	17	[0, 0, 0]	n/a	catFR1	0	R1370E
2451.97	0.769	2453654	WORD_OFF	n/a	n/a	DISHWASHER	Appliances	9	17	[0, 0, 0]	n/a	catFR1	0	R1370E
2452.739	1.6	2454426	WORD	n/a	wordpools/wordpool_categorized_EN.txt	WASHER	Appliances	10	17	[0, 0, 0]	n/a	catFR1	0	R1370E
2454.371	0.753	2456052	WORD_OFF	n/a	n/a	WASHER	Appliances	10	17	[0, 0, 0]	n/a	catFR1	0	R1370E
2455.124	1.6	2456823	WORD	n/a	wordpools/wordpool_categorized_EN.txt	FORK	KitchenTools	11	17	[0, 0, 0]	n/a	catFR1	0	R1370E
2456.754	0.851	2458435	WORD_OFF	n/a	n/a	FORK	KitchenTools	11	17	[0, 0, 0]	n/a	catFR1	0	R1370E
2457.605	1.6	2459303	WORD	n/a	wordpools/wordpool_categorized_EN.txt	LADLE	KitchenTools	12	17	[0, 0, 0]	n/a	catFR1	0	R1370E
2459.237	0.001	2460929	WORD_OFF	n/a	n/a	LADLE	KitchenTools	12	17	[0, 0, 0]	n/a	catFR1	0	R1370E
2459.238	0.0	2460929	ENCODING_END	n/a	n/a	n/a	n/a	-999	17	[0, 0, 0]	n/a	catFR1	0	R1370E
2459.238	0.0	2460935	START	n/a	n/a	n/a	n/a	-999	17	[-999, -999, -999]	n/a	catFR1	0	R1370E
2459.238	0.016	2460943	DISTRACT_START	n/a	n/a	n/a	n/a	-999	17	[0, 0, 0]	n/a	catFR1	0	R1370E
2459.254	9.935	2460951	PROB	9.905	n/a	n/a	n/a	-999	17	[9, 7, 5]	21.0	catFR1	0	R1370E
2469.189	4.585	2470885	PROB	4.555	n/a	n/a	n/a	-999	17	[1, 6, 4]	13.0	catFR1	0	R1370E
2473.774	5.25	2475470	PROB	5.217	n/a	n/a	n/a	-999	17	[6, 3, 9]	18.0	catFR1	0	R1370E
2479.024	5.251	2480720	PROB	5.244	n/a	n/a	n/a	-999	17	[5, 3, 4]	12.0	catFR1	0	R1370E
2484.275	0.0	2485949	DISTRACT_END	n/a	n/a	n/a	n/a	-999	17	[0, 0, 0]	n/a	catFR1	0	R1370E
2484.268	2.142	2485964	STOP	n/a	n/a	n/a	n/a	-999	17	[-999, -999, -999]	n/a	catFR1	0	R1370E
2486.41	0.678	2488099	REC_START	n/a	n/a	n/a	n/a	-999	17	[0, 0, 0]	n/a	catFR1	0	R1370E
2487.088	2.009	2488784	REC_WORD	0.678	n/a	MIXER	Appliances	1	17	[0, 0, 0]	n/a	catFR1	0	R1370E
2489.097	2.595	2490793	REC_WORD	2.687	n/a	STRAINER	KitchenTools	5	17	[0, 0, 0]	n/a	catFR1	0	R1370E
2491.692	24.731	2493387	REC_WORD	5.282	n/a	LEMONADE	Beverages	8	17	[0, 0, 0]	n/a	catFR1	0	R1370E
2516.423	3.276	2518134	REC_END	n/a	n/a	n/a	n/a	-999	17	[0, 0, 0]	n/a	catFR1	0	R1370E
2519.699	10.0	2521413	COUNTDOWN_START	n/a	n/a	n/a	n/a	-999	18	[0, 0, 0]	n/a	catFR1	0	R1370E
2530.128	1.122	2531815	COUNTDOWN_END	n/a	n/a	n/a	n/a	-999	18	[0, 0, 0]	n/a	catFR1	0	R1370E
2531.25	1.102	2532931	ENCODING_START	n/a	n/a	n/a	n/a	-999	18	[0, 0, 0]	n/a	catFR1	0	R1370E
2532.352	1.6	2534047	WORD	n/a	wordpools/wordpool_categorized_EN.txt	CALCULATOR	Electronics	1	18	[0, 0, 0]	n/a	catFR1	0	R1370E
2533.984	0.892	2535659	WORD_OFF	n/a	n/a	CALCULATOR	Electronics	1	18	[0, 0, 0]	n/a	catFR1	0	R1370E
2534.876	1.6	2536555	WORD	n/a	wordpools/wordpool_categorized_EN.txt	PRINTER	Electronics	2	18	[0, 0, 0]	n/a	catFR1	0	R1370E
2536.502	0.997	2538181	WORD_OFF	n/a	n/a	PRINTER	Electronics	2	18	[0, 0, 0]	n/a	catFR1	0	R1370E
2537.499	1.6	2539200	WORD	n/a	wordpools/wordpool_categorized_EN.txt	DAISY	Flowers	3	18	[0, 0, 0]	n/a	catFR1	0	R1370E
2539.135	0.983	2540812	WORD_OFF	n/a	n/a	DAISY	Flowers	3	18	[0, 0, 0]	n/a	catFR1	0	R1370E
2540.118	1.6	2541818	WORD	n/a	wordpools/wordpool_categorized_EN.txt	CARNATION	Flowers	4	18	[0, 0, 0]	n/a	catFR1	0	R1370E
2541.753	0.856	2543430	WORD_OFF	n/a	n/a	CARNATION	Flowers	4	18	[0, 0, 0]	n/a	catFR1	0	R1370E
2542.609	1.6	2544298	WORD	n/a	wordpools/wordpool_categorized_EN.txt	ANT	Insects	5	18	[0, 0, 0]	n/a	catFR1	0	R1370E
2544.235	0.986	2545910	WORD_OFF	n/a	n/a	ANT	Insects	5	18	[0, 0, 0]	n/a	catFR1	0	R1370E
2545.221	1.6	2546916	WORD	n/a	wordpools/wordpool_categorized_EN.txt	MOSQUITO	Insects	6	18	[0, 0, 0]	n/a	catFR1	0	R1370E
2546.853	0.887	2548528	WORD_OFF	n/a	n/a	MOSQUITO	Insects	6	18	[0, 0, 0]	n/a	catFR1	0	R1370E
2547.74	1.6	2549423	WORD	n/a	wordpools/wordpool_categorized_EN.txt	LILAC	Flowers	7	18	[0, 0, 0]	n/a	catFR1	0	R1370E
2549.371	1.009	2551049	WORD_OFF	n/a	n/a	LILAC	Flowers	7	18	[0, 0, 0]	n/a	catFR1	0	R1370E
2550.38	1.6	2552069	WORD	n/a	wordpools/wordpool_categorized_EN.txt	SUNFLOWER	Flowers	8	18	[0, 0, 0]	n/a	catFR1	0	R1370E
2552.003	0.976	2553681	WORD_OFF	n/a	n/a	SUNFLOWER	Flowers	8	18	[0, 0, 0]	n/a	catFR1	0	R1370E
2552.979	1.6	2554659	WORD	n/a	wordpools/wordpool_categorized_EN.txt	MOTH	Insects	9	18	[0, 0, 0]	n/a	catFR1	0	R1370E
2554.605	1.078	2556285	WORD_OFF	n/a	n/a	MOTH	Insects	9	18	[0, 0, 0]	n/a	catFR1	0	R1370E
2555.683	1.6	2557359	WORD	n/a	wordpools/wordpool_categorized_EN.txt	FLY	Insects	10	18	[0, 0, 0]	n/a	catFR1	0	R1370E
2557.304	0.958	2558985	WORD_OFF	n/a	n/a	FLY	Insects	10	18	[0, 0, 0]	n/a	catFR1	0	R1370E
2558.262	1.6	2559950	WORD	n/a	wordpools/wordpool_categorized_EN.txt	TELEVISION	Electronics	11	18	[0, 0, 0]	n/a	catFR1	0	R1370E
2559.872	1.147	2561548	WORD_OFF	n/a	n/a	TELEVISION	Electronics	11	18	[0, 0, 0]	n/a	catFR1	0	R1370E
2561.019	1.6	2562719	WORD	n/a	wordpools/wordpool_categorized_EN.txt	SPEAKER	Electronics	12	18	[0, 0, 0]	n/a	catFR1	0	R1370E
2562.639	0.001	2564331	WORD_OFF	n/a	n/a	SPEAKER	Electronics	12	18	[0, 0, 0]	n/a	catFR1	0	R1370E
2562.64	0.0	2564331	ENCODING_END	n/a	n/a	n/a	n/a	-999	18	[0, 0, 0]	n/a	catFR1	0	R1370E
2562.64	0.0	2564331	DISTRACT_START	n/a	n/a	n/a	n/a	-999	18	[0, 0, 0]	n/a	catFR1	0	R1370E
2562.64	0.016	2564333	START	n/a	n/a	n/a	n/a	-999	18	[-999, -999, -999]	n/a	catFR1	0	R1370E
2562.656	11.769	2564349	PROB	11.744	n/a	n/a	n/a	-999	18	[4, 6, 9]	19.0	catFR1	0	R1370E
2574.425	8.168	2576117	PROB	8.13	n/a	n/a	n/a	-999	18	[1, 5, 8]	14.0	catFR1	0	R1370E
2582.593	3.884	2584285	PROB	3.874	n/a	n/a	n/a	-999	18	[3, 4, 6]	11.0	catFR1	0	R1370E
2586.477	0.0	2588153	DISTRACT_END	n/a	n/a	n/a	n/a	-999	18	[0, 0, 0]	n/a	catFR1	0	R1370E
2586.467	2.294	2588159	STOP	n/a	n/a	n/a	n/a	-999	18	[-999, -999, -999]	n/a	catFR1	0	R1370E
2588.761	0.925	2590454	REC_START	n/a	n/a	n/a	n/a	-999	18	[0, 0, 0]	n/a	catFR1	0	R1370E
2589.686	1.597	2591378	REC_WORD	0.925	n/a	CALCULATOR	Electronics	1	18	[0, 0, 0]	n/a	catFR1	0	R1370E
2591.283	1.563	2592975	REC_WORD	2.522	n/a	PRINTER	Electronics	2	18	[0, 0, 0]	n/a	catFR1	0	R1370E
2592.846	25.93	2594538	REC_WORD	4.085	n/a	SPEAKER	Electronics	12	18	[0, 0, 0]	n/a	catFR1	0	R1370E
2618.776	2.708	2620475	REC_END	n/a	n/a	n/a	n/a	-999	18	[0, 0, 0]	n/a	catFR1	0	R1370E
2621.484	10.0	2623190	COUNTDOWN_START	n/a	n/a	n/a	n/a	-999	19	[0, 0, 0]	n/a	catFR1	0	R1370E
2631.912	1.14	2633592	COUNTDOWN_END	n/a	n/a	n/a	n/a	-999	19	[0, 0, 0]	n/a	catFR1	0	R1370E
2633.052	0.758	2634722	ENCODING_START	n/a	n/a	n/a	n/a	-999	19	[0, 0, 0]	n/a	catFR1	0	R1370E
2633.81	1.6	2635493	WORD	n/a	wordpools/wordpool_categorized_EN.txt	COOKIE	Desserts	1	19	[0, 0, 0]	n/a	catFR1	0	R1370E
2635.436	0.849	2637105	WORD_OFF	n/a	n/a	COOKIE	Desserts	1	19	[0, 0, 0]	n/a	catFR1	0	R1370E
2636.285	1.6	2637973	WORD	n/a	wordpools/wordpool_categorized_EN.txt	JELLO	Desserts	2	19	[0, 0, 0]	n/a	catFR1	0	R1370E
2637.903	1.01	2639571	WORD_OFF	n/a	n/a	JELLO	Desserts	2	19	[0, 0, 0]	n/a	catFR1	0	R1370E
2638.913	1.6	2640591	WORD	n/a	wordpools/wordpool_categorized_EN.txt	PEAR	Fruit	3	19	[0, 0, 0]	n/a	catFR1	0	R1370E
2640.537	0.94	2642203	WORD_OFF	n/a	n/a	PEAR	Fruit	3	19	[0, 0, 0]	n/a	catFR1	0	R1370E
2641.477	1.6	2643154	WORD	n/a	wordpools/wordpool_categorized_EN.txt	STRAWBERRY	Fruit	4	19	[0, 0, 0]	n/a	catFR1	0	R1370E
2643.103	0.892	2644779	WORD_OFF	n/a	n/a	STRAWBERRY	Fruit	4	19	[0, 0, 0]	n/a	catFR1	0	R1370E
2643.995	1.6	2645675	WORD	n/a	wordpools/wordpool_categorized_EN.txt	MARKER	OfficeSupplies	5	19	[0, 0, 0]	n/a	catFR1	0	R1370E
2645.621	0.796	2647287	WORD_OFF	n/a	n/a	MARKER	OfficeSupplies	5	19	[0, 0, 0]	n/a	catFR1	0	R1370E
2646.417	1.6	2648086	WORD	n/a	wordpools/wordpool_categorized_EN.txt	BINDER	OfficeSupplies	6	19	[0, 0, 0]	n/a	catFR1	0	R1370E
2648.037	1.096	2649712	WORD_OFF	n/a	n/a	BINDER	OfficeSupplies	6	19	[0, 0, 0]	n/a	catFR1	0	R1370E
2649.133	1.6	2650814	WORD	n/a	wordpools/wordpool_categorized_EN.txt	PLUM	Fruit	7	19	[0, 0, 0]	n/a	catFR1	0	R1370E
2650.738	0.908	2652412	WORD_OFF	n/a	n/a	PLUM	Fruit	7	19	[0, 0, 0]	n/a	catFR1	0	R1370E
2651.646	1.6	2653322	WORD	n/a	wordpools/wordpool_categorized_EN.txt	BANANA	Fruit	8	19	[0, 0, 0]	n/a	catFR1	0	R1370E
2653.271	0.782	2654947	WORD_OFF	n/a	n/a	BANANA	Fruit	8	19	[0, 0, 0]	n/a	catFR1	0	R1370E
2654.053	1.6	2655746	WORD	n/a	wordpools/wordpool_categorized_EN.txt	ERASER	OfficeSupplies	9	19	[0, 0, 0]	n/a	catFR1	0	R1370E
2655.689	0.927	2657358	WORD_OFF	n/a	n/a	ERASER	OfficeSupplies	9	19	[0, 0, 0]	n/a	catFR1	0	R1370E
2656.616	1.6	2658295	WORD	n/a	wordpools/wordpool_categorized_EN.txt	RULER	OfficeSupplies	10	19	[0, 0, 0]	n/a	catFR1	0	R1370E
2658.239	0.8	2659907	WORD_OFF	n/a	n/a	RULER	OfficeSupplies	10	19	[0, 0, 0]	n/a	catFR1	0	R1370E
2659.039	1.6	2660734	WORD	n/a	wordpools/wordpool_categorized_EN.txt	CHEESECAKE	Desserts	11	19	[0, 0, 0]	n/a	catFR1	0	R1370E
2660.657	1.109	2662332	WORD_OFF	n/a	n/a	CHEESECAKE	Desserts	11	19	[0, 0, 0]	n/a	catFR1	0	R1370E
2661.766	1.6	2663448	WORD	n/a	wordpools/wordpool_categorized_EN.txt	PUDDING	Desserts	12	19	[0, 0, 0]	n/a	catFR1	0	R1370E
2663.391	0.0	2665074	WORD_OFF	n/a	n/a	PUDDING	Desserts	12	19	[0, 0, 0]	n/a	catFR1	0	R1370E
2663.391	0.001	2665074	ENCODING_END	n/a	n/a	n/a	n/a	-999	19	[0, 0, 0]	n/a	catFR1	0	R1370E
2663.392	0.0	2665081	START	n/a	n/a	n/a	n/a	-999	19	[-999, -999, -999]	n/a	catFR1	0	R1370E
2663.391	0.016	2665088	DISTRACT_START	n/a	n/a	n/a	n/a	-999	19	[0, 0, 0]	n/a	catFR1	0	R1370E
2663.407	6.934	2665096	PROB	6.895	n/a	n/a	n/a	-999	19	[4, 2, 4]	1.0	catFR1	0	R1370E
2670.341	5.784	2672030	PROB	5.75	n/a	n/a	n/a	-999	19	[3, 8, 4]	15.0	catFR1	0	R1370E
2676.125	4.635	2677814	PROB	4.6	n/a	n/a	n/a	-999	19	[2, 2, 9]	13.0	catFR1	0	R1370E
2680.76	4.151	2682449	PROB	4.14	n/a	n/a	n/a	-999	19	[8, 4, 4]	16.0	catFR1	0	R1370E
2684.911	0.0	2686581	DISTRACT_END	n/a	n/a	n/a	n/a	-999	19	[0, 0, 0]	n/a	catFR1	0	R1370E
2684.9	2.311	2686588	STOP	n/a	n/a	n/a	n/a	-999	19	[-999, -999, -999]	n/a	catFR1	0	R1370E
2687.211	0.59	2688896	REC_START	n/a	n/a	n/a	n/a	-999	19	[0, 0, 0]	n/a	catFR1	0	R1370E
2687.801	0.945	2689489	REC_WORD	0.59	n/a	COOKIE	Desserts	1	19	[0, 0, 0]	n/a	catFR1	0	R1370E
2688.746	0.967	2690434	REC_WORD	1.535	n/a	JELLO	Desserts	2	19	[0, 0, 0]	n/a	catFR1	0	R1370E
2689.713	0.45	2691401	REC_WORD	2.502	n/a	PEAR	Fruit	3	19	[0, 0, 0]	n/a	catFR1	0	R1370E
2690.163	1.943	2691851	REC_WORD	2.952	n/a	STRAWBERRY	Fruit	4	19	[0, 0, 0]	n/a	catFR1	0	R1370E
2692.106	1.69	2693794	REC_WORD	4.895	n/a	PUDDING	Desserts	12	19	[0, 0, 0]	n/a	catFR1	0	R1370E
2693.796	23.427	2695484	REC_WORD	6.585	n/a	BANANA	Fruit	8	19	[0, 0, 0]	n/a	catFR1	0	R1370E
2717.223	2.761	2718917	REC_END	n/a	n/a	n/a	n/a	-999	19	[0, 0, 0]	n/a	catFR1	0	R1370E
2719.984	10.0	2721687	COUNTDOWN_START	n/a	n/a	n/a	n/a	-999	20	[0, 0, 0]	n/a	catFR1	0	R1370E
2730.413	1.124	2732089	COUNTDOWN_END	n/a	n/a	n/a	n/a	-999	20	[0, 0, 0]	n/a	catFR1	0	R1370E
2731.537	1.083	2733205	ENCODING_START	n/a	n/a	n/a	n/a	-999	20	[0, 0, 0]	n/a	catFR1	0	R1370E
2732.62	1.6	2734307	WORD	n/a	wordpools/wordpool_categorized_EN.txt	CARDINAL	Birds	1	20	[0, 0, 0]	n/a	catFR1	0	R1370E
2734.252	1.145	2735919	WORD_OFF	n/a	n/a	CARDINAL	Birds	1	20	[0, 0, 0]	n/a	catFR1	0	R1370E
2735.397	1.6	2737077	WORD	n/a	wordpools/wordpool_categorized_EN.txt	GOOSE	Birds	2	20	[0, 0, 0]	n/a	catFR1	0	R1370E
2737.019	1.093	2738689	WORD_OFF	n/a	n/a	GOOSE	Birds	2	20	[0, 0, 0]	n/a	catFR1	0	R1370E
2738.112	1.6	2739791	WORD	n/a	wordpools/wordpool_categorized_EN.txt	VIOLET	Flowers	3	20	[0, 0, 0]	n/a	catFR1	0	R1370E
2739.72	1.012	2741389	WORD_OFF	n/a	n/a	VIOLET	Flowers	3	20	[0, 0, 0]	n/a	catFR1	0	R1370E
2740.732	1.6	2742409	WORD	n/a	wordpools/wordpool_categorized_EN.txt	TULIP	Flowers	4	20	[0, 0, 0]	n/a	catFR1	0	R1370E
2742.355	1.043	2744021	WORD_OFF	n/a	n/a	TULIP	Flowers	4	20	[0, 0, 0]	n/a	catFR1	0	R1370E
2743.398	1.6	2745068	WORD	n/a	wordpools/wordpool_categorized_EN.txt	PINE	Trees	5	20	[0, 0, 0]	n/a	catFR1	0	R1370E
2745.021	0.952	2746693	WORD_OFF	n/a	n/a	PINE	Trees	5	20	[0, 0, 0]	n/a	catFR1	0	R1370E
2745.973	1.6	2747658	WORD	n/a	wordpools/wordpool_categorized_EN.txt	OAK	Trees	6	20	[0, 0, 0]	n/a	catFR1	0	R1370E
2747.606	1.074	2749270	WORD_OFF	n/a	n/a	OAK	Trees	6	20	[0, 0, 0]	n/a	catFR1	0	R1370E
2748.68	1.6	2750358	WORD	n/a	wordpools/wordpool_categorized_EN.txt	BLUEBIRD	Birds	7	20	[0, 0, 0]	n/a	catFR1	0	R1370E
2750.305	0.793	2751970	WORD_OFF	n/a	n/a	BLUEBIRD	Birds	7	20	[0, 0, 0]	n/a	catFR1	0	R1370E
2751.098	1.6	2752769	WORD	n/a	wordpools/wordpool_categorized_EN.txt	DUCK	Birds	8	20	[0, 0, 0]	n/a	catFR1	0	R1370E
2752.723	1.07	2754395	WORD_OFF	n/a	n/a	DUCK	Birds	8	20	[0, 0, 0]	n/a	catFR1	0	R1370E
2753.793	1.6	2755470	WORD	n/a	wordpools/wordpool_categorized_EN.txt	ROSE	Flowers	9	20	[0, 0, 0]	n/a	catFR1	0	R1370E
2755.424	1.076	2757096	WORD_OFF	n/a	n/a	ROSE	Flowers	9	20	[0, 0, 0]	n/a	catFR1	0	R1370E
2756.5	1.6	2758170	WORD	n/a	wordpools/wordpool_categorized_EN.txt	PETUNIA	Flowers	10	20	[0, 0, 0]	n/a	catFR1	0	R1370E
2758.123	0.98	2759796	WORD_OFF	n/a	n/a	PETUNIA	Flowers	10	20	[0, 0, 0]	n/a	catFR1	0	R1370E
2759.103	1.6	2760788	WORD	n/a	wordpools/wordpool_categorized_EN.txt	WILLOW	Trees	11	20	[0, 0, 0]	n/a	catFR1	0	R1370E
2760.741	1.012	2762414	WORD_OFF	n/a	n/a	WILLOW	Trees	11	20	[0, 0, 0]	n/a	catFR1	0	R1370E
2761.753	1.6	2763420	WORD	n/a	wordpools/wordpool_categorized_EN.txt	HICKORY	Trees	12	20	[0, 0, 0]	n/a	catFR1	0	R1370E
2763.375	0.0	2765059	WORD_OFF	n/a	n/a	HICKORY	Trees	12	20	[0, 0, 0]	n/a	catFR1	0	R1370E
2763.375	0.001	2765059	ENCODING_END	n/a	n/a	n/a	n/a	-999	20	[0, 0, 0]	n/a	catFR1	0	R1370E
2763.376	0.0	2765059	DISTRACT_START	n/a	n/a	n/a	n/a	-999	20	[0, 0, 0]	n/a	catFR1	0	R1370E
2763.376	0.015	2765062	START	n/a	n/a	n/a	n/a	-999	20	[-999, -999, -999]	n/a	catFR1	0	R1370E
2763.391	9.219	2765077	PROB	9.196	n/a	n/a	n/a	-999	20	[8, 4, 8]	20.0	catFR1	0	R1370E
2772.61	4.45	2774295	PROB	4.424	n/a	n/a	n/a	-999	20	[1, 5, 3]	9.0	catFR1	0	R1370E
2777.06	6.319	2778745	PROB	6.319	n/a	n/a	n/a	-999	20	[7, 2, 6]	15.0	catFR1	0	R1370E
2783.379	0.016	2785064	STOP	n/a	n/a	n/a	n/a	-999	20	[-999, -999, -999]	n/a	catFR1	0	R1370E
2783.395	2.351	2785065	DISTRACT_END	n/a	n/a	n/a	n/a	-999	20	[0, 0, 0]	n/a	catFR1	0	R1370E
2785.746	0.904	2787421	REC_START	n/a	n/a	n/a	n/a	-999	20	[0, 0, 0]	n/a	catFR1	0	R1370E
2786.65	1.358	2788335	REC_WORD	0.904	n/a	VIOLET	Flowers	3	20	[0, 0, 0]	n/a	catFR1	0	R1370E
2788.008	1.026	2789693	REC_WORD	2.262	n/a	TULIP	Flowers	4	20	[0, 0, 0]	n/a	catFR1	0	R1370E
2789.034	9.739	2790719	REC_WORD	3.288	n/a	ROSE	Flowers	9	20	[0, 0, 0]	n/a	catFR1	0	R1370E
2798.773	16.986	2800457	REC_WORD_VV	13.027	n/a	<>	n/a	-999	20	[0, 0, 0]	n/a	catFR1	0	R1370E
2815.759	3.459	2817456	REC_END	n/a	n/a	n/a	n/a	-999	20	[0, 0, 0]	n/a	catFR1	0	R1370E
2819.218	10.0	2820914	COUNTDOWN_START	n/a	n/a	n/a	n/a	-999	21	[0, 0, 0]	n/a	catFR1	0	R1370E
2829.647	1.19	2831316	COUNTDOWN_END	n/a	n/a	n/a	n/a	-999	21	[0, 0, 0]	n/a	catFR1	0	R1370E
2830.837	1.012	2832501	ENCODING_START	n/a	n/a	n/a	n/a	-999	21	[0, 0, 0]	n/a	catFR1	0	R1370E
2831.849	1.6	2833535	WORD	n/a	wordpools/wordpool_categorized_EN.txt	BATHROOM	Building	1	21	[0, 0, 0]	n/a	catFR1	0	R1370E
2833.487	1.138	2835160	WORD_OFF	n/a	n/a	BATHROOM	Building	1	21	[0, 0, 0]	n/a	catFR1	0	R1370E
2834.625	1.6	2836304	WORD	n/a	wordpools/wordpool_categorized_EN.txt	WINDOW	Building	2	21	[0, 0, 0]	n/a	catFR1	0	R1370E
2836.253	1.095	2837916	WORD_OFF	n/a	n/a	WINDOW	Building	2	21	[0, 0, 0]	n/a	catFR1	0	R1370E
2837.348	1.6	2839018	WORD	n/a	wordpools/wordpool_categorized_EN.txt	CHERRY	Fruit	3	21	[0, 0, 0]	n/a	catFR1	0	R1370E
2838.972	1.053	2840630	WORD_OFF	n/a	n/a	CHERRY	Fruit	3	21	[0, 0, 0]	n/a	catFR1	0	R1370E
2840.025	1.6	2841705	WORD	n/a	wordpools/wordpool_categorized_EN.txt	LEMON	Fruit	4	21	[0, 0, 0]	n/a	catFR1	0	R1370E
2841.655	1.074	2843317	WORD_OFF	n/a	n/a	LEMON	Fruit	4	21	[0, 0, 0]	n/a	catFR1	0	R1370E
2842.729	1.6	2844405	WORD	n/a	wordpools/wordpool_categorized_EN.txt	ROACH	Insects	5	21	[0, 0, 0]	n/a	catFR1	0	R1370E
2844.356	0.806	2846017	WORD_OFF	n/a	n/a	ROACH	Insects	5	21	[0, 0, 0]	n/a	catFR1	0	R1370E
2845.162	1.6	2846844	WORD	n/a	wordpools/wordpool_categorized_EN.txt	CRICKET	Insects	6	21	[0, 0, 0]	n/a	catFR1	0	R1370E
2846.79	1.049	2848456	WORD_OFF	n/a	n/a	CRICKET	Insects	6	21	[0, 0, 0]	n/a	catFR1	0	R1370E
2847.839	1.6	2849517	WORD	n/a	wordpools/wordpool_categorized_EN.txt	ROOF	Building	7	21	[0, 0, 0]	n/a	catFR1	0	R1370E
2849.473	0.98	2851143	WORD_OFF	n/a	n/a	ROOF	Building	7	21	[0, 0, 0]	n/a	catFR1	0	R1370E
2850.453	1.6	2852121	WORD	n/a	wordpools/wordpool_categorized_EN.txt	HALLWAY	Building	8	21	[0, 0, 0]	n/a	catFR1	0	R1370E
2852.073	1.102	2853733	WORD_OFF	n/a	n/a	HALLWAY	Building	8	21	[0, 0, 0]	n/a	catFR1	0	R1370E
2853.175	1.6	2854849	WORD	n/a	wordpools/wordpool_categorized_EN.txt	GNAT	Insects	9	21	[0, 0, 0]	n/a	catFR1	0	R1370E
2854.808	0.984	2856475	WORD_OFF	n/a	n/a	GNAT	Insects	9	21	[0, 0, 0]	n/a	catFR1	0	R1370E
2855.792	1.6	2857467	WORD	n/a	wordpools/wordpool_categorized_EN.txt	BEE	Insects	10	21	[0, 0, 0]	n/a	catFR1	0	R1370E
2857.425	0.765	2859092	WORD_OFF	n/a	n/a	BEE	Insects	10	21	[0, 0, 0]	n/a	catFR1	0	R1370E
2858.19	1.6	2859878	WORD	n/a	wordpools/wordpool_categorized_EN.txt	PEACH	Fruit	11	21	[0, 0, 0]	n/a	catFR1	0	R1370E
2859.825	0.812	2861490	WORD_OFF	n/a	n/a	PEACH	Fruit	11	21	[0, 0, 0]	n/a	catFR1	0	R1370E
2860.637	1.6	2862303	WORD	n/a	wordpools/wordpool_categorized_EN.txt	BLUEBERRY	Fruit	12	21	[0, 0, 0]	n/a	catFR1	0	R1370E
2862.259	0.0	2863941	START	n/a	n/a	n/a	n/a	-999	21	[-999, -999, -999]	n/a	catFR1	0	R1370E
2862.258	0.0	2863942	WORD_OFF	n/a	n/a	BLUEBERRY	Fruit	12	21	[0, 0, 0]	n/a	catFR1	0	R1370E
2862.258	0.001	2863942	ENCODING_END	n/a	n/a	n/a	n/a	-999	21	[0, 0, 0]	n/a	catFR1	0	R1370E
2862.259	0.016	2863942	DISTRACT_START	n/a	n/a	n/a	n/a	-999	21	[0, 0, 0]	n/a	catFR1	0	R1370E
2862.275	4.8	2863957	PROB	4.768	n/a	n/a	n/a	-999	21	[2, 2, 4]	8.0	catFR1	0	R1370E
2867.075	6.151	2868757	PROB	6.127	n/a	n/a	n/a	-999	21	[5, 6, 2]	13.0	catFR1	0	R1370E
2873.226	6.119	2874908	PROB	6.087	n/a	n/a	n/a	-999	21	[3, 9, 5]	17.0	catFR1	0	R1370E
2879.345	4.983	2881026	PROB	4.977	n/a	n/a	n/a	-999	21	[7, 8, 9]	21.0	catFR1	0	R1370E
2884.328	0.0	2885987	DISTRACT_END	n/a	n/a	n/a	n/a	-999	21	[0, 0, 0]	n/a	catFR1	0	R1370E
2884.322	2.275	2886003	STOP	n/a	n/a	n/a	n/a	-999	21	[-999, -999, -999]	n/a	catFR1	0	R1370E
2886.597	1.194	2888274	REC_START	n/a	n/a	n/a	n/a	-999	21	[0, 0, 0]	n/a	catFR1	0	R1370E
2887.791	1.048	2889472	REC_WORD	1.194	n/a	BATHROOM	Building	1	21	[0, 0, 0]	n/a	catFR1	0	R1370E
2888.839	1.347	2890520	REC_WORD	2.242	n/a	WINDOW	Building	2	21	[0, 0, 0]	n/a	catFR1	0	R1370E
2890.186	1.013	2891867	REC_WORD	3.589	n/a	CHERRY	Fruit	3	21	[0, 0, 0]	n/a	catFR1	0	R1370E
2891.199	1.623	2892880	REC_WORD	4.602	n/a	LEMON	Fruit	4	21	[0, 0, 0]	n/a	catFR1	0	R1370E
2892.822	1.572	2894503	REC_WORD	6.225	n/a	PEACH	Fruit	11	21	[0, 0, 0]	n/a	catFR1	0	R1370E
2894.394	2.602	2896075	REC_WORD	7.797	n/a	ROACH	Insects	5	21	[0, 0, 0]	n/a	catFR1	0	R1370E
2896.996	19.613	2898677	REC_WORD	10.399	n/a	BEE	Insects	10	21	[0, 0, 0]	n/a	catFR1	0	R1370E
2916.609	5.178	2918296	REC_END	n/a	n/a	n/a	n/a	-999	21	[0, 0, 0]	n/a	catFR1	0	R1370E
2921.787	10.0	2923490	COUNTDOWN_START	n/a	n/a	n/a	n/a	-999	22	[0, 0, 0]	n/a	catFR1	0	R1370E
2932.216	1.139	2933878	COUNTDOWN_END	n/a	n/a	n/a	n/a	-999	22	[0, 0, 0]	n/a	catFR1	0	R1370E
2933.355	0.879	2935022	ENCODING_START	n/a	n/a	n/a	n/a	-999	22	[0, 0, 0]	n/a	catFR1	0	R1370E
2934.234	1.6	2935917	WORD	n/a	wordpools/wordpool_categorized_EN.txt	GRAPE	Fruit	1	22	[0, 0, 0]	n/a	catFR1	0	R1370E
2935.872	0.871	2937529	WORD_OFF	n/a	n/a	GRAPE	Fruit	1	22	[0, 0, 0]	n/a	catFR1	0	R1370E
2936.743	1.6	2938411	WORD	n/a	wordpools/wordpool_categorized_EN.txt	ORANGE	Fruit	2	22	[0, 0, 0]	n/a	catFR1	0	R1370E
2938.372	0.975	2940037	WORD_OFF	n/a	n/a	ORANGE	Fruit	2	22	[0, 0, 0]	n/a	catFR1	0	R1370E
2939.347	1.6	2941015	WORD	n/a	wordpools/wordpool_categorized_EN.txt	LADYBUG	Insects	3	22	[0, 0, 0]	n/a	catFR1	0	R1370E
2940.973	0.956	2942641	WORD_OFF	n/a	n/a	LADYBUG	Insects	3	22	[0, 0, 0]	n/a	catFR1	0	R1370E
2941.929	1.6	2943605	WORD	n/a	wordpools/wordpool_categorized_EN.txt	BEETLE	Insects	4	22	[0, 0, 0]	n/a	catFR1	0	R1370E
2943.557	1.007	2945217	WORD_OFF	n/a	n/a	BEETLE	Insects	4	22	[0, 0, 0]	n/a	catFR1	0	R1370E
2944.564	1.6	2946237	WORD	n/a	wordpools/wordpool_categorized_EN.txt	HURRICANE	Weather	5	22	[0, 0, 0]	n/a	catFR1	0	R1370E
2946.189	0.789	2947863	WORD_OFF	n/a	n/a	HURRICANE	Weather	5	22	[0, 0, 0]	n/a	catFR1	0	R1370E
2946.978	1.6	2948648	WORD	n/a	wordpools/wordpool_categorized_EN.txt	THUNDER	Weather	6	22	[0, 0, 0]	n/a	catFR1	0	R1370E
2948.607	0.973	2950274	WORD_OFF	n/a	n/a	THUNDER	Weather	6	22	[0, 0, 0]	n/a	catFR1	0	R1370E
2949.58	1.6	2951252	WORD	n/a	wordpools/wordpool_categorized_EN.txt	LIME	Fruit	7	22	[0, 0, 0]	n/a	catFR1	0	R1370E
2951.207	0.761	2952864	WORD_OFF	n/a	n/a	LIME	Fruit	7	22	[0, 0, 0]	n/a	catFR1	0	R1370E
2951.968	1.6	2953635	WORD	n/a	wordpools/wordpool_categorized_EN.txt	APPLE	Fruit	8	22	[0, 0, 0]	n/a	catFR1	0	R1370E
2953.592	1.065	2955247	WORD_OFF	n/a	n/a	APPLE	Fruit	8	22	[0, 0, 0]	n/a	catFR1	0	R1370E
2954.657	1.6	2956336	WORD	n/a	wordpools/wordpool_categorized_EN.txt	DRIZZLE	Weather	9	22	[0, 0, 0]	n/a	catFR1	0	R1370E
2956.291	0.789	2957948	WORD_OFF	n/a	n/a	DRIZZLE	Weather	9	22	[0, 0, 0]	n/a	catFR1	0	R1370E
2957.08	1.6	2958747	WORD	n/a	wordpools/wordpool_categorized_EN.txt	CLOUD	Weather	10	22	[0, 0, 0]	n/a	catFR1	0	R1370E
2958.692	0.8	2960359	WORD_OFF	n/a	n/a	CLOUD	Weather	10	22	[0, 0, 0]	n/a	catFR1	0	R1370E
2959.492	1.6	2961172	WORD	n/a	wordpools/wordpool_categorized_EN.txt	SPIDER	Insects	11	22	[0, 0, 0]	n/a	catFR1	0	R1370E
2961.125	1.138	2962784	WORD_OFF	n/a	n/a	SPIDER	Insects	11	22	[0, 0, 0]	n/a	catFR1	0	R1370E
2962.263	1.6	2963941	WORD	n/a	wordpools/wordpool_categorized_EN.txt	BUTTERFLY	Insects	12	22	[0, 0, 0]	n/a	catFR1	0	R1370E
2963.877	0.0	2965553	WORD_OFF	n/a	n/a	BUTTERFLY	Insects	12	22	[0, 0, 0]	n/a	catFR1	0	R1370E
2963.877	0.0	2965553	ENCODING_END	n/a	n/a	n/a	n/a	-999	22	[0, 0, 0]	n/a	catFR1	0	R1370E
2963.877	0.001	2965553	DISTRACT_START	n/a	n/a	n/a	n/a	-999	22	[0, 0, 0]	n/a	catFR1	0	R1370E
2963.878	0.015	2965556	START	n/a	n/a	n/a	n/a	-999	22	[-999, -999, -999]	n/a	catFR1	0	R1370E
2963.893	6.735	2965571	PROB	6.71	n/a	n/a	n/a	-999	22	[7, 4, 1]	12.0	catFR1	0	R1370E
2970.628	6.134	2972306	PROB	6.096	n/a	n/a	n/a	-999	22	[9, 2, 7]	18.0	catFR1	0	R1370E
2976.762	4.068	2978440	PROB	4.032	n/a	n/a	n/a	-999	22	[4, 4, 2]	10.0	catFR1	0	R1370E
2980.83	3.997	2982508	PROB	3.997	n/a	n/a	n/a	-999	22	[3, 5, 8]	16.0	catFR1	0	R1370E
2984.827	0.02	2986504	STOP	n/a	n/a	n/a	n/a	-999	22	[-999, -999, -999]	n/a	catFR1	0	R1370E
2984.847	2.084	2986509	DISTRACT_END	n/a	n/a	n/a	n/a	-999	22	[0, 0, 0]	n/a	catFR1	0	R1370E
2986.931	0.836	2988603	REC_START	n/a	n/a	n/a	n/a	-999	22	[0, 0, 0]	n/a	catFR1	0	R1370E
2987.767	1.266	2989444	REC_WORD	0.836	n/a	GRAPE	Fruit	1	22	[0, 0, 0]	n/a	catFR1	0	R1370E
2989.033	1.23	2990710	REC_WORD	2.102	n/a	ORANGE	Fruit	2	22	[0, 0, 0]	n/a	catFR1	0	R1370E
2990.263	1.261	2991940	REC_WORD	3.332	n/a	LIME	Fruit	7	22	[0, 0, 0]	n/a	catFR1	0	R1370E
2991.524	1.891	2993201	REC_WORD	4.593	n/a	APPLE	Fruit	8	22	[0, 0, 0]	n/a	catFR1	0	R1370E
2993.415	2.552	2995092	REC_WORD	6.484	n/a	LADYBUG	Insects	3	22	[0, 0, 0]	n/a	catFR1	0	R1370E
2995.967	20.977	2997644	REC_WORD	9.036	n/a	BEETLE	Insects	4	22	[0, 0, 0]	n/a	catFR1	0	R1370E
3016.944	8.811	3018625	REC_END	n/a	n/a	n/a	n/a	-999	22	[0, 0, 0]	n/a	catFR1	0	R1370E
3025.755	10.0	3027443	COUNTDOWN_START	n/a	n/a	n/a	n/a	-999	23	[0, 0, 0]	n/a	catFR1	0	R1370E
3036.183	1.224	3037845	COUNTDOWN_END	n/a	n/a	n/a	n/a	-999	23	[0, 0, 0]	n/a	catFR1	0	R1370E
3037.407	0.884	3039071	ENCODING_START	n/a	n/a	n/a	n/a	-999	23	[0, 0, 0]	n/a	catFR1	0	R1370E
3038.291	1.6	3039967	WORD	n/a	wordpools/wordpool_categorized_EN.txt	BLENDER	Appliances	1	23	[0, 0, 0]	n/a	catFR1	0	R1370E
3039.923	0.834	3041579	WORD_OFF	n/a	n/a	BLENDER	Appliances	1	23	[0, 0, 0]	n/a	catFR1	0	R1370E
3040.757	1.6	3042433	WORD	n/a	wordpools/wordpool_categorized_EN.txt	TOASTER	Appliances	2	23	[0, 0, 0]	n/a	catFR1	0	R1370E
3042.391	0.993	3044045	WORD_OFF	n/a	n/a	TOASTER	Appliances	2	23	[0, 0, 0]	n/a	catFR1	0	R1370E
3043.384	1.6	3045051	WORD	n/a	wordpools/wordpool_categorized_EN.txt	JACKET	Clothing	3	23	[0, 0, 0]	n/a	catFR1	0	R1370E
3045.007	0.811	3046663	WORD_OFF	n/a	n/a	JACKET	Clothing	3	23	[0, 0, 0]	n/a	catFR1	0	R1370E
3045.818	1.6	3047476	WORD	n/a	wordpools/wordpool_categorized_EN.txt	JEANS	Clothing	4	23	[0, 0, 0]	n/a	catFR1	0	R1370E
3047.441	1.005	3049102	WORD_OFF	n/a	n/a	JEANS	Clothing	4	23	[0, 0, 0]	n/a	catFR1	0	R1370E
3048.446	1.6	3050121	WORD	n/a	wordpools/wordpool_categorized_EN.txt	NIGHTSTAND	Furniture	5	23	[0, 0, 0]	n/a	catFR1	0	R1370E
3050.074	0.97	3051733	WORD_OFF	n/a	n/a	NIGHTSTAND	Furniture	5	23	[0, 0, 0]	n/a	catFR1	0	R1370E
3051.044	1.6	3052711	WORD	n/a	wordpools/wordpool_categorized_EN.txt	BOOKCASE	Furniture	6	23	[0, 0, 0]	n/a	catFR1	0	R1370E
3052.676	0.972	3054337	WORD_OFF	n/a	n/a	BOOKCASE	Furniture	6	23	[0, 0, 0]	n/a	catFR1	0	R1370E
3053.648	1.6	3055315	WORD	n/a	wordpools/wordpool_categorized_EN.txt	SHOES	Clothing	7	23	[0, 0, 0]	n/a	catFR1	0	R1370E
3055.275	0.949	3056927	WORD_OFF	n/a	n/a	SHOES	Clothing	7	23	[0, 0, 0]	n/a	catFR1	0	R1370E
3056.224	1.6	3057906	WORD	n/a	wordpools/wordpool_categorized_EN.txt	BLOUSE	Clothing	8	23	[0, 0, 0]	n/a	catFR1	0	R1370E
3057.86	1.123	3059518	WORD_OFF	n/a	n/a	BLOUSE	Clothing	8	23	[0, 0, 0]	n/a	catFR1	0	R1370E
3058.983	1.6	3060647	WORD	n/a	wordpools/wordpool_categorized_EN.txt	OVEN	Appliances	9	23	[0, 0, 0]	n/a	catFR1	0	R1370E
3060.594	0.999	3062246	WORD_OFF	n/a	n/a	OVEN	Appliances	9	23	[0, 0, 0]	n/a	catFR1	0	R1370E
3061.593	1.6	3063265	WORD	n/a	wordpools/wordpool_categorized_EN.txt	IRON	Appliances	10	23	[0, 0, 0]	n/a	catFR1	0	R1370E
3063.227	0.776	3064891	WORD_OFF	n/a	n/a	IRON	Appliances	10	23	[0, 0, 0]	n/a	catFR1	0	R1370E
3064.003	1.6	3065662	WORD	n/a	wordpools/wordpool_categorized_EN.txt	CHAIR	Furniture	11	23	[0, 0, 0]	n/a	catFR1	0	R1370E
3065.628	0.856	3067288	WORD_OFF	n/a	n/a	CHAIR	Furniture	11	23	[0, 0, 0]	n/a	catFR1	0	R1370E
3066.484	1.6	3068156	WORD	n/a	wordpools/wordpool_categorized_EN.txt	SHELF	Furniture	12	23	[0, 0, 0]	n/a	catFR1	0	R1370E
3068.111	0.0	3069782	WORD_OFF	n/a	n/a	SHELF	Furniture	12	23	[0, 0, 0]	n/a	catFR1	0	R1370E
3068.111	0.001	3069782	ENCODING_END	n/a	n/a	n/a	n/a	-999	23	[0, 0, 0]	n/a	catFR1	0	R1370E
3068.112	0.0	3069782	DISTRACT_START	n/a	n/a	n/a	n/a	-999	23	[0, 0, 0]	n/a	catFR1	0	R1370E
3068.112	0.015	3069786	START	n/a	n/a	n/a	n/a	-999	23	[-999, -999, -999]	n/a	catFR1	0	R1370E
3068.127	18.321	3069801	PROB	18.297	n/a	n/a	n/a	-999	23	[4, 2, 9]	15.0	catFR1	0	R1370E
3086.448	12.253	3088122	PROB	12.243	n/a	n/a	n/a	-999	23	[2, 7, 6]	15.0	catFR1	0	R1370E
3098.701	0.0	3100355	DISTRACT_END	n/a	n/a	n/a	n/a	-999	23	[0, 0, 0]	n/a	catFR1	0	R1370E
3098.691	2.393	3100364	STOP	n/a	n/a	n/a	n/a	-999	23	[-999, -999, -999]	n/a	catFR1	0	R1370E
3101.084	0.95	3102752	REC_START	n/a	n/a	n/a	n/a	-999	23	[0, 0, 0]	n/a	catFR1	0	R1370E
3102.034	1.09	3103707	REC_WORD	0.95	n/a	BLENDER	Appliances	1	23	[0, 0, 0]	n/a	catFR1	0	R1370E
3103.124	1.9	3104797	REC_WORD	2.04	n/a	TOASTER	Appliances	2	23	[0, 0, 0]	n/a	catFR1	0	R1370E
3105.024	0.966	3106697	REC_WORD	3.94	n/a	JACKET	Clothing	3	23	[0, 0, 0]	n/a	catFR1	0	R1370E
3105.99	3.995	3107663	REC_WORD	4.906	n/a	JEANS	Clothing	4	23	[0, 0, 0]	n/a	catFR1	0	R1370E
3109.985	21.111	3111658	REC_WORD	8.901	n/a	STOVE	Appliances	-999	23	[0, 0, 0]	n/a	catFR1	0	R1370E
3131.096	6.762	3132788	REC_END	n/a	n/a	n/a	n/a	-999	23	[0, 0, 0]	n/a	catFR1	0	R1370E
3137.858	10.0	3139553	COUNTDOWN_START	n/a	n/a	n/a	n/a	-999	24	[0, 0, 0]	n/a	catFR1	0	R1370E
3148.287	1.207	3149941	COUNTDOWN_END	n/a	n/a	n/a	n/a	-999	24	[0, 0, 0]	n/a	catFR1	0	R1370E
3149.494	1.107	3151154	ENCODING_START	n/a	n/a	n/a	n/a	-999	24	[0, 0, 0]	n/a	catFR1	0	R1370E
3150.601	1.6	3152270	WORD	n/a	wordpools/wordpool_categorized_EN.txt	RECLINER	Furniture	1	24	[0, 0, 0]	n/a	catFR1	0	R1370E
3152.226	0.957	3153882	WORD_OFF	n/a	n/a	RECLINER	Furniture	1	24	[0, 0, 0]	n/a	catFR1	0	R1370E
