onset	duration	sample	trial_type	response_time	stim_file	item_name	category	serialpos	list	test	answer	experiment	session	subject
0.0	1.431	504540	INSTRUCT_START	n/a	n/a	n/a	n/a	-999	-999	[0, 0, 0]	n/a	catFR1	6	R1468J
1.431	22.249	505974	INSTRUCT_END	n/a	n/a	n/a	n/a	-999	-999	[0, 0, 0]	n/a	catFR1	6	R1468J
23.68	10.351	528224	COUNTDOWN_START	n/a	n/a	n/a	n/a	-999	-999	[0, 0, 0]	n/a	catFR1	6	R1468J
34.031	0.0	538570	COUNTDOWN_END	n/a	n/a	n/a	n/a	-999	-999	[0, 0, 0]	n/a	catFR1	6	R1468J
34.031	1.935	538570	ENCODING_START	n/a	n/a	n/a	n/a	-999	-1	[0, 0, 0]	n/a	catFR1	6	R1468J
35.966	1.601	540500	WORD	n/a	n/a	HORSE	FarmAnimals	1	-1	[0, 0, 0]	n/a	catFR1	6	R1468J
37.567	0.965	542104	WORD_OFF	n/a	n/a	HORSE	FarmAnimals	1	-1	[0, 0, 0]	n/a	catFR1	6	R1468J
38.532	1.6	543073	WORD	n/a	n/a	CHICKEN	FarmAnimals	2	-1	[0, 0, 0]	n/a	catFR1	6	R1468J
40.132	0.9	544669	WORD_OFF	n/a	n/a	CHICKEN	FarmAnimals	2	-1	[0, 0, 0]	n/a	catFR1	6	R1468J
41.032	1.6	545568	WORD	n/a	n/a	SAW	Tools	3	-1	[0, 0, 0]	n/a	catFR1	6	R1468J
42.632	0.784	547172	WORD_OFF	n/a	n/a	SAW	Tools	3	-1	[0, 0, 0]	n/a	catFR1	6	R1468J
43.416	1.6	547955	WORD	n/a	n/a	SANDER	Tools	4	-1	[0, 0, 0]	n/a	catFR1	6	R1468J
45.016	0.983	549552	WORD_OFF	n/a	n/a	SANDER	Tools	4	-1	[0, 0, 0]	n/a	catFR1	6	R1468J
45.999	1.616	550536	WORD	n/a	n/a	SHELF	Furniture	5	-1	[0, 0, 0]	n/a	catFR1	6	R1468J
47.615	0.834	552148	WORD_OFF	n/a	n/a	SHELF	Furniture	5	-1	[0, 0, 0]	n/a	catFR1	6	R1468J
48.449	1.615	552985	WORD	n/a	n/a	COUCH	Furniture	6	-1	[0, 0, 0]	n/a	catFR1	6	R1468J
50.064	0.784	554605	WORD_OFF	n/a	n/a	COUCH	Furniture	6	-1	[0, 0, 0]	n/a	catFR1	6	R1468J
50.848	1.601	555387	WORD	n/a	n/a	WRENCH	Tools	7	-1	[0, 0, 0]	n/a	catFR1	6	R1468J
52.449	0.883	556984	WORD_OFF	n/a	n/a	WRENCH	Tools	7	-1	[0, 0, 0]	n/a	catFR1	6	R1468J
53.332	1.617	557867	WORD	n/a	n/a	RATCHET	Tools	8	-1	[0, 0, 0]	n/a	catFR1	6	R1468J
54.949	0.95	559487	WORD_OFF	n/a	n/a	RATCHET	Tools	8	-1	[0, 0, 0]	n/a	catFR1	6	R1468J
55.899	1.6	560433	WORD	n/a	n/a	CALF	FarmAnimals	9	-1	[0, 0, 0]	n/a	catFR1	6	R1468J
57.499	0.782	562037	WORD_OFF	n/a	n/a	CALF	FarmAnimals	9	-1	[0, 0, 0]	n/a	catFR1	6	R1468J
58.281	1.618	562820	WORD	n/a	n/a	COW	FarmAnimals	10	-1	[0, 0, 0]	n/a	catFR1	6	R1468J
59.899	0.766	564432	WORD_OFF	n/a	n/a	COW	FarmAnimals	10	-1	[0, 0, 0]	n/a	catFR1	6	R1468J
60.665	1.6	565199	WORD	n/a	n/a	RECLINER	Furniture	11	-1	[0, 0, 0]	n/a	catFR1	6	R1468J
62.265	0.9	566803	WORD_OFF	n/a	n/a	RECLINER	Furniture	11	-1	[0, 0, 0]	n/a	catFR1	6	R1468J
63.165	1.616	567702	WORD	n/a	n/a	CABINET	Furniture	12	-1	[0, 0, 0]	n/a	catFR1	6	R1468J
64.781	0.001	569314	WORD_OFF	n/a	n/a	CABINET	Furniture	12	-1	[0, 0, 0]	n/a	catFR1	6	R1468J
64.782	0.0	569314	ENCODING_END	n/a	n/a	n/a	n/a	-999	-1	[0, 0, 0]	n/a	catFR1	6	R1468J
64.782	0.0	569317	START	n/a	n/a	n/a	n/a	-999	-1	[-999, -999, -999]	n/a	catFR1	6	R1468J
64.782	0.0	569317	PROB	0.0	n/a	n/a	n/a	-999	-1	[1, 1, 2]	4	catFR1	6	R1468J
64.782	5.434	569322	DISTRACT_START	n/a	n/a	n/a	n/a	-999	-1	[0, 0, 0]	n/a	catFR1	6	R1468J
70.216	5.233	574750	PROB	5.233	n/a	n/a	n/a	-999	-1	[8, 8, 5]	21	catFR1	6	R1468J
75.449	3.533	579983	PROB	3.533	n/a	n/a	n/a	-999	-1	[6, 4, 3]	13	catFR1	6	R1468J
78.982	5.116	583516	PROB	5.116	n/a	n/a	n/a	-999	-1	[4, 7, 5]	16	catFR1	6	R1468J
84.098	4.533	588632	PROB	4.533	n/a	n/a	n/a	-999	-1	[6, 3, 3]	12	catFR1	6	R1468J
88.631	0.0	593165	STOP	n/a	n/a	n/a	n/a	-999	-1	[-999, -999, -999]	n/a	catFR1	6	R1468J
88.631	1.366	593169	DISTRACT_END	n/a	n/a	n/a	n/a	-999	-1	[0, 0, 0]	n/a	catFR1	6	R1468J
89.997	1.458	594533	REC_START	n/a	n/a	n/a	n/a	-999	-1	[0, 0, 0]	n/a	catFR1	6	R1468J
91.455	0.683	595989	REC_WORD	0.683	n/a	HORSE	FarmAnimals	1	-1	[0, 0, 0]	n/a	catFR1	6	R1468J
92.138	0.39	596671	REC_WORD_VV	0.39	n/a	<>	n/a	-999	-1	[0, 0, 0]	n/a	catFR1	6	R1468J
92.528	1.5	597061	REC_WORD	1.5	n/a	CHICKEN	FarmAnimals	2	-1	[0, 0, 0]	n/a	catFR1	6	R1468J
94.028	1.433	598561	REC_WORD	1.433	n/a	CALF	FarmAnimals	9	-1	[0, 0, 0]	n/a	catFR1	6	R1468J
95.461	1.798	599994	REC_WORD	1.798	n/a	SAW	Tools	3	-1	[0, 0, 0]	n/a	catFR1	6	R1468J
97.259	3.44	601792	REC_WORD	3.44	n/a	WRENCH	Tools	7	-1	[0, 0, 0]	n/a	catFR1	6	R1468J
100.699	9.011	605232	REC_WORD	9.011	n/a	SANDER	Tools	4	-1	[0, 0, 0]	n/a	catFR1	6	R1468J
109.71	0.697	614243	REC_WORD	0.697	n/a	CABINET	Furniture	12	-1	[0, 0, 0]	n/a	catFR1	6	R1468J
110.407	10.762	614940	REC_WORD_VV	10.762	n/a	<>	n/a	-999	-1	[0, 0, 0]	n/a	catFR1	6	R1468J
121.169	11.112	625703	REC_END	n/a	n/a	n/a	n/a	-999	-1	[0, 0, 0]	n/a	catFR1	6	R1468J
132.281	10.35	636817	COUNTDOWN_START	n/a	n/a	n/a	n/a	-999	1	[0, 0, 0]	n/a	catFR1	6	R1468J
142.631	0.0	647163	COUNTDOWN_END	n/a	n/a	n/a	n/a	-999	1	[0, 0, 0]	n/a	catFR1	6	R1468J
142.631	2.201	647163	ENCODING_START	n/a	n/a	n/a	n/a	-999	1	[0, 0, 0]	n/a	catFR1	6	R1468J
144.832	1.617	649364	WORD	n/a	wordpools/wordpool_categorized_EN.txt	SNOW	Weather	1	1	[0, 0, 0]	n/a	catFR1	6	R1468J
146.449	0.882	650984	WORD_OFF	n/a	n/a	SNOW	Weather	1	1	[0, 0, 0]	n/a	catFR1	6	R1468J
147.331	1.601	651859	WORD	n/a	wordpools/wordpool_categorized_EN.txt	CLOUD	Weather	2	1	[0, 0, 0]	n/a	catFR1	6	R1468J
148.932	0.917	653464	WORD_OFF	n/a	n/a	CLOUD	Weather	2	1	[0, 0, 0]	n/a	catFR1	6	R1468J
149.849	1.6	654378	WORD	n/a	wordpools/wordpool_categorized_EN.txt	GUITAR	Instruments	3	1	[0, 0, 0]	n/a	catFR1	6	R1468J
151.449	0.95	655982	WORD_OFF	n/a	n/a	GUITAR	Instruments	3	1	[0, 0, 0]	n/a	catFR1	6	R1468J
152.399	1.6	656928	WORD	n/a	wordpools/wordpool_categorized_EN.txt	TRUMPET	Instruments	4	1	[0, 0, 0]	n/a	catFR1	6	R1468J
153.999	0.933	658532	WORD_OFF	n/a	n/a	TRUMPET	Instruments	4	1	[0, 0, 0]	n/a	catFR1	6	R1468J
154.932	1.6	659462	WORD	n/a	wordpools/wordpool_categorized_EN.txt	JELLO	Desserts	5	1	[0, 0, 0]	n/a	catFR1	6	R1468J
156.532	0.9	661066	WORD_OFF	n/a	n/a	JELLO	Desserts	5	1	[0, 0, 0]	n/a	catFR1	6	R1468J
157.432	1.617	661965	WORD	n/a	wordpools/wordpool_categorized_EN.txt	BROWNIES	Desserts	6	1	[0, 0, 0]	n/a	catFR1	6	R1468J
159.049	0.783	663577	WORD_OFF	n/a	n/a	BROWNIES	Desserts	6	1	[0, 0, 0]	n/a	catFR1	6	R1468J
159.832	1.616	664360	WORD	n/a	wordpools/wordpool_categorized_EN.txt	BASS	Instruments	7	1	[0, 0, 0]	n/a	catFR1	6	R1468J
161.448	0.834	665980	WORD_OFF	n/a	n/a	BASS	Instruments	7	1	[0, 0, 0]	n/a	catFR1	6	R1468J
162.282	1.617	666817	WORD	n/a	wordpools/wordpool_categorized_EN.txt	ORGAN	Instruments	8	1	[0, 0, 0]	n/a	catFR1	6	R1468J
163.899	0.982	668429	WORD_OFF	n/a	n/a	ORGAN	Instruments	8	1	[0, 0, 0]	n/a	catFR1	6	R1468J
164.881	1.6	669413	WORD	n/a	wordpools/wordpool_categorized_EN.txt	HUMIDITY	Weather	9	1	[0, 0, 0]	n/a	catFR1	6	R1468J
166.481	0.867	671010	WORD_OFF	n/a	n/a	HUMIDITY	Weather	9	1	[0, 0, 0]	n/a	catFR1	6	R1468J
167.348	1.601	671878	WORD	n/a	wordpools/wordpool_categorized_EN.txt	RAIN	Weather	10	1	[0, 0, 0]	n/a	catFR1	6	R1468J
168.949	0.765	673482	WORD_OFF	n/a	n/a	RAIN	Weather	10	1	[0, 0, 0]	n/a	catFR1	6	R1468J
169.714	1.601	674249	WORD	n/a	wordpools/wordpool_categorized_EN.txt	PASTRY	Desserts	11	1	[0, 0, 0]	n/a	catFR1	6	R1468J
171.315	0.866	675846	WORD_OFF	n/a	n/a	PASTRY	Desserts	11	1	[0, 0, 0]	n/a	catFR1	6	R1468J
172.181	1.616	676714	WORD	n/a	wordpools/wordpool_categorized_EN.txt	CHEESECAKE	Desserts	12	1	[0, 0, 0]	n/a	catFR1	6	R1468J
173.797	0.001	678326	WORD_OFF	n/a	n/a	CHEESECAKE	Desserts	12	1	[0, 0, 0]	n/a	catFR1	6	R1468J
173.798	0.001	678328	START	n/a	n/a	n/a	n/a	-999	1	[-999, -999, -999]	n/a	catFR1	6	R1468J
173.799	0.0	678329	PROB	0.0	n/a	n/a	n/a	-999	1	[8, 7, 3]	18	catFR1	6	R1468J
173.798	0.0	678333	ENCODING_END	n/a	n/a	n/a	n/a	-999	1	[0, 0, 0]	n/a	catFR1	6	R1468J
173.798	5.55	678333	DISTRACT_START	n/a	n/a	n/a	n/a	-999	1	[0, 0, 0]	n/a	catFR1	6	R1468J
179.348	5.0	683878	PROB	5.0	n/a	n/a	n/a	-999	1	[2, 7, 3]	12	catFR1	6	R1468J
184.348	8.851	688878	PROB	8.851	n/a	n/a	n/a	-999	1	[3, 6, 2]	11	catFR1	6	R1468J
193.199	3.715	697728	PROB	3.715	n/a	n/a	n/a	-999	1	[3, 5, 7]	15	catFR1	6	R1468J
196.914	0.0	701443	STOP	n/a	n/a	n/a	n/a	-999	1	[-999, -999, -999]	n/a	catFR1	6	R1468J
196.914	1.316	701444	DISTRACT_END	n/a	n/a	n/a	n/a	-999	1	[0, 0, 0]	n/a	catFR1	6	R1468J
198.23	1.227	702761	REC_START	n/a	n/a	n/a	n/a	-999	1	[0, 0, 0]	n/a	catFR1	6	R1468J
199.457	1.269	703986	REC_WORD	1.269	n/a	HUMIDITY	Weather	9	1	[0, 0, 0]	n/a	catFR1	6	R1468J
200.726	1.489	705255	REC_WORD_VV	1.489	n/a	<>	n/a	-999	1	[0, 0, 0]	n/a	catFR1	6	R1468J
202.215	4.308	706744	REC_WORD	4.308	n/a	CHEESECAKE	Desserts	12	1	[0, 0, 0]	n/a	catFR1	6	R1468J
206.523	1.836	711052	REC_WORD	1.836	n/a	BASS	Instruments	7	1	[0, 0, 0]	n/a	catFR1	6	R1468J
208.359	6.728	712888	REC_WORD	6.728	n/a	GUITAR	Instruments	3	1	[0, 0, 0]	n/a	catFR1	6	R1468J
215.087	3.798	719615	REC_WORD	3.798	n/a	CHICKEN	FarmAnimals	-999	1	[0, 0, 0]	n/a	catFR1	6	R1468J
218.885	7.986	723413	REC_WORD	7.986	n/a	CHAMBER	n/a	-999	1	[0, 0, 0]	n/a	catFR1	6	R1468J
226.871	0.743	731399	REC_WORD	0.743	n/a	TRUMPET	Instruments	4	1	[0, 0, 0]	n/a	catFR1	6	R1468J
227.614	1.779	732142	REC_WORD_VV	1.779	n/a	<>	n/a	-999	1	[0, 0, 0]	n/a	catFR1	6	R1468J
229.393	3.238	733924	REC_END	n/a	n/a	n/a	n/a	-999	1	[0, 0, 0]	n/a	catFR1	6	R1468J
232.631	10.349	737164	COUNTDOWN_START	n/a	n/a	n/a	n/a	-999	1	[0, 0, 0]	n/a	catFR1	6	R1468J
242.98	0.0	747510	COUNTDOWN_END	n/a	n/a	n/a	n/a	-999	1	[0, 0, 0]	n/a	catFR1	6	R1468J
242.98	2.067	747510	ENCODING_START	n/a	n/a	n/a	n/a	-999	2	[0, 0, 0]	n/a	catFR1	6	R1468J
245.047	1.617	749579	WORD	n/a	wordpools/wordpool_categorized_EN.txt	FOOT	BodyParts	1	2	[0, 0, 0]	n/a	catFR1	6	R1468J
246.664	0.833	751191	WORD_OFF	n/a	n/a	FOOT	BodyParts	1	2	[0, 0, 0]	n/a	catFR1	6	R1468J
247.497	1.6	752028	WORD	n/a	wordpools/wordpool_categorized_EN.txt	ELBOW	BodyParts	2	2	[0, 0, 0]	n/a	catFR1	6	R1468J
249.097	0.967	753625	WORD_OFF	n/a	n/a	ELBOW	BodyParts	2	2	[0, 0, 0]	n/a	catFR1	6	R1468J
250.064	1.617	754593	WORD	n/a	wordpools/wordpool_categorized_EN.txt	DOLPHIN	OceanAnimals	3	2	[0, 0, 0]	n/a	catFR1	6	R1468J
251.681	0.95	756205	WORD_OFF	n/a	n/a	DOLPHIN	OceanAnimals	3	2	[0, 0, 0]	n/a	catFR1	6	R1468J
252.631	1.6	757159	WORD	n/a	wordpools/wordpool_categorized_EN.txt	SQUID	OceanAnimals	4	2	[0, 0, 0]	n/a	catFR1	6	R1468J
254.231	0.916	758755	WORD_OFF	n/a	n/a	SQUID	OceanAnimals	4	2	[0, 0, 0]	n/a	catFR1	6	R1468J
255.147	1.616	759677	WORD	n/a	wordpools/wordpool_categorized_EN.txt	SATIN	Fabric	5	2	[0, 0, 0]	n/a	catFR1	6	R1468J
256.763	0.95	761289	WORD_OFF	n/a	n/a	SATIN	Fabric	5	2	[0, 0, 0]	n/a	catFR1	6	R1468J
257.713	1.601	762243	WORD	n/a	wordpools/wordpool_categorized_EN.txt	LEATHER	Fabric	6	2	[0, 0, 0]	n/a	catFR1	6	R1468J
259.314	0.817	763847	WORD_OFF	n/a	n/a	LEATHER	Fabric	6	2	[0, 0, 0]	n/a	catFR1	6	R1468J
260.131	1.6	764661	WORD	n/a	wordpools/wordpool_categorized_EN.txt	ARM	BodyParts	7	2	[0, 0, 0]	n/a	catFR1	6	R1468J
261.731	0.95	766257	WORD_OFF	n/a	n/a	ARM	BodyParts	7	2	[0, 0, 0]	n/a	catFR1	6	R1468J
262.681	1.616	767210	WORD	n/a	wordpools/wordpool_categorized_EN.txt	TOE	BodyParts	8	2	[0, 0, 0]	n/a	catFR1	6	R1468J
264.297	0.8	768822	WORD_OFF	n/a	n/a	TOE	BodyParts	8	2	[0, 0, 0]	n/a	catFR1	6	R1468J
265.097	1.617	769628	WORD	n/a	wordpools/wordpool_categorized_EN.txt	SUEDE	Fabric	9	2	[0, 0, 0]	n/a	catFR1	6	R1468J
266.714	0.983	771240	WORD_OFF	n/a	n/a	SUEDE	Fabric	9	2	[0, 0, 0]	n/a	catFR1	6	R1468J
267.697	1.616	772225	WORD	n/a	wordpools/wordpool_categorized_EN.txt	COTTON	Fabric	10	2	[0, 0, 0]	n/a	catFR1	6	R1468J
269.313	0.817	773844	WORD_OFF	n/a	n/a	COTTON	Fabric	10	2	[0, 0, 0]	n/a	catFR1	6	R1468J
270.13	1.601	774658	WORD	n/a	wordpools/wordpool_categorized_EN.txt	LOBSTER	OceanAnimals	11	2	[0, 0, 0]	n/a	catFR1	6	R1468J
271.731	0.882	776262	WORD_OFF	n/a	n/a	LOBSTER	OceanAnimals	11	2	[0, 0, 0]	n/a	catFR1	6	R1468J
272.613	1.601	777138	WORD	n/a	wordpools/wordpool_categorized_EN.txt	CRAB	OceanAnimals	12	2	[0, 0, 0]	n/a	catFR1	6	R1468J
274.214	0.001	778740	PROB	0.001	n/a	n/a	n/a	-999	2	[1, 1, 5]	7	catFR1	6	R1468J
274.215	0.0	778741	START	n/a	n/a	n/a	n/a	-999	2	[-999, -999, -999]	n/a	catFR1	6	R1468J
274.214	0.001	778742	WORD_OFF	n/a	n/a	CRAB	OceanAnimals	12	2	[0, 0, 0]	n/a	catFR1	6	R1468J
274.215	0.0	778742	ENCODING_END	n/a	n/a	n/a	n/a	-999	2	[0, 0, 0]	n/a	catFR1	6	R1468J
274.215	4.466	778742	DISTRACT_START	n/a	n/a	n/a	n/a	-999	2	[0, 0, 0]	n/a	catFR1	6	R1468J
278.681	5.933	783207	PROB	5.933	n/a	n/a	n/a	-999	2	[1, 8, 2]	11	catFR1	6	R1468J
284.614	7.719	789139	PROB	7.719	n/a	n/a	n/a	-999	2	[6, 8, 7]	21	catFR1	6	R1468J
292.333	3.615	796858	PROB	3.615	n/a	n/a	n/a	-999	2	[8, 2, 3]	13	catFR1	6	R1468J
295.948	0.0	800473	DISTRACT_END	n/a	n/a	n/a	n/a	-999	2	[0, 0, 0]	n/a	catFR1	6	R1468J
295.948	1.049	800473	STOP	n/a	n/a	n/a	n/a	-999	2	[-999, -999, -999]	n/a	catFR1	6	R1468J
296.997	3.026	801527	REC_START	n/a	n/a	n/a	n/a	-999	2	[0, 0, 0]	n/a	catFR1	6	R1468J
300.023	0.692	804548	REC_WORD	0.692	n/a	LEATHER	Fabric	6	2	[0, 0, 0]	n/a	catFR1	6	R1468J
300.715	0.782	805240	REC_WORD_VV	0.782	n/a	<>	n/a	-999	2	[0, 0, 0]	n/a	catFR1	6	R1468J
301.497	7.949	806022	REC_WORD	7.949	n/a	SATIN	Fabric	5	2	[0, 0, 0]	n/a	catFR1	6	R1468J
309.446	2.551	813970	REC_WORD	2.551	n/a	HUMIDITY	Weather	-999	2	[0, 0, 0]	n/a	catFR1	6	R1468J
311.997	16.224	816521	REC_WORD	16.224	n/a	CLOUD	Weather	-999	2	[0, 0, 0]	n/a	catFR1	6	R1468J
328.221	2.994	832744	REC_END	n/a	n/a	n/a	n/a	-999	2	[0, 0, 0]	n/a	catFR1	6	R1468J
331.215	10.351	835744	COUNTDOWN_START	n/a	n/a	n/a	n/a	-999	2	[0, 0, 0]	n/a	catFR1	6	R1468J
341.566	0.0	846090	COUNTDOWN_END	n/a	n/a	n/a	n/a	-999	2	[0, 0, 0]	n/a	catFR1	6	R1468J
341.566	2.132	846090	ENCODING_START	n/a	n/a	n/a	n/a	-999	3	[0, 0, 0]	n/a	catFR1	6	R1468J
343.698	1.601	848221	WORD	n/a	wordpools/wordpool_categorized_EN.txt	FINCH	Birds	1	3	[0, 0, 0]	n/a	catFR1	6	R1468J
345.299	0.865	849825	WORD_OFF	n/a	n/a	FINCH	Birds	1	3	[0, 0, 0]	n/a	catFR1	6	R1468J
346.164	1.602	850686	WORD	n/a	wordpools/wordpool_categorized_EN.txt	CARDINAL	Birds	2	3	[0, 0, 0]	n/a	catFR1	6	R1468J
347.766	0.933	852290	WORD_OFF	n/a	n/a	CARDINAL	Birds	2	3	[0, 0, 0]	n/a	catFR1	6	R1468J
348.699	1.616	853220	WORD	n/a	wordpools/wordpool_categorized_EN.txt	TRUCK	Vehicles	3	3	[0, 0, 0]	n/a	catFR1	6	R1468J
350.315	0.984	854840	WORD_OFF	n/a	n/a	TRUCK	Vehicles	3	3	[0, 0, 0]	n/a	catFR1	6	R1468J
351.299	1.617	855824	WORD	n/a	wordpools/wordpool_categorized_EN.txt	BUS	Vehicles	4	3	[0, 0, 0]	n/a	catFR1	6	R1468J
352.916	0.866	857436	WORD_OFF	n/a	n/a	BUS	Vehicles	4	3	[0, 0, 0]	n/a	catFR1	6	R1468J
353.782	1.616	858304	WORD	n/a	wordpools/wordpool_categorized_EN.txt	TORNADO	Weather	5	3	[0, 0, 0]	n/a	catFR1	6	R1468J
355.398	0.817	859924	WORD_OFF	n/a	n/a	TORNADO	Weather	5	3	[0, 0, 0]	n/a	catFR1	6	R1468J
356.215	1.6	860737	WORD	n/a	wordpools/wordpool_categorized_EN.txt	WIND	Weather	6	3	[0, 0, 0]	n/a	catFR1	6	R1468J
357.815	0.883	862342	WORD_OFF	n/a	n/a	WIND	Weather	6	3	[0, 0, 0]	n/a	catFR1	6	R1468J
358.698	1.601	863225	WORD	n/a	wordpools/wordpool_categorized_EN.txt	SCOOTER	Vehicles	7	3	[0, 0, 0]	n/a	catFR1	6	R1468J
360.299	0.765	864822	WORD_OFF	n/a	n/a	SCOOTER	Vehicles	7	3	[0, 0, 0]	n/a	catFR1	6	R1468J
361.064	1.601	865589	WORD	n/a	wordpools/wordpool_categorized_EN.txt	VAN	Vehicles	8	3	[0, 0, 0]	n/a	catFR1	6	R1468J
362.665	0.849	867185	WORD_OFF	n/a	n/a	VAN	Vehicles	8	3	[0, 0, 0]	n/a	catFR1	6	R1468J
363.514	1.601	868038	WORD	n/a	wordpools/wordpool_categorized_EN.txt	DRIZZLE	Weather	9	3	[0, 0, 0]	n/a	catFR1	6	R1468J
365.115	1.001	869642	WORD_OFF	n/a	n/a	DRIZZLE	Weather	9	3	[0, 0, 0]	n/a	catFR1	6	R1468J
366.116	1.615	870642	WORD	n/a	wordpools/wordpool_categorized_EN.txt	THUNDER	Weather	10	3	[0, 0, 0]	n/a	catFR1	6	R1468J
367.731	0.984	872254	WORD_OFF	n/a	n/a	THUNDER	Weather	10	3	[0, 0, 0]	n/a	catFR1	6	R1468J
368.715	1.6	873238	WORD	n/a	wordpools/wordpool_categorized_EN.txt	SEAGULL	Birds	11	3	[0, 0, 0]	n/a	catFR1	6	R1468J
370.315	0.916	874842	WORD_OFF	n/a	n/a	SEAGULL	Birds	11	3	[0, 0, 0]	n/a	catFR1	6	R1468J
371.231	1.6	875757	WORD	n/a	wordpools/wordpool_categorized_EN.txt	PIGEON	Birds	12	3	[0, 0, 0]	n/a	catFR1	6	R1468J
372.831	0.002	877353	WORD_OFF	n/a	n/a	PIGEON	Birds	12	3	[0, 0, 0]	n/a	catFR1	6	R1468J
372.833	0.0	877353	ENCODING_END	n/a	n/a	n/a	n/a	-999	3	[0, 0, 0]	n/a	catFR1	6	R1468J
372.832	0.001	877354	PROB	0.001	n/a	n/a	n/a	-999	3	[8, 3, 6]	17	catFR1	6	R1468J
372.833	0.0	877355	START	n/a	n/a	n/a	n/a	-999	3	[-999, -999, -999]	n/a	catFR1	6	R1468J
372.833	5.265	877361	DISTRACT_START	n/a	n/a	n/a	n/a	-999	3	[0, 0, 0]	n/a	catFR1	6	R1468J
378.098	4.951	882620	PROB	4.951	n/a	n/a	n/a	-999	3	[2, 4, 6]	12	catFR1	6	R1468J
383.049	4.615	887570	PROB	4.615	n/a	n/a	n/a	-999	3	[8, 8, 2]	18	catFR1	6	R1468J
387.664	4.702	892185	PROB	4.702	n/a	n/a	n/a	-999	3	[6, 6, 4]	16	catFR1	6	R1468J
392.366	7.182	896887	PROB	7.182	n/a	n/a	n/a	-999	3	[8, 7, 4]	19	catFR1	6	R1468J
399.548	0.0	904068	DISTRACT_END	n/a	n/a	n/a	n/a	-999	3	[0, 0, 0]	n/a	catFR1	6	R1468J
399.548	1.349	904069	STOP	n/a	n/a	n/a	n/a	-999	3	[-999, -999, -999]	n/a	catFR1	6	R1468J
400.897	1.562	905416	REC_START	n/a	n/a	n/a	n/a	-999	3	[0, 0, 0]	n/a	catFR1	6	R1468J
402.459	1.084	906980	REC_WORD	1.084	n/a	DOLPHIN	OceanAnimals	-999	3	[0, 0, 0]	n/a	catFR1	6	R1468J
403.543	3.746	908063	REC_WORD_VV	3.746	n/a	<>	n/a	-999	3	[0, 0, 0]	n/a	catFR1	6	R1468J
407.289	3.126	911809	REC_WORD	3.126	n/a	WRENCH	Tools	-999	3	[0, 0, 0]	n/a	catFR1	6	R1468J
410.415	21.698	914935	REC_WORD	21.698	n/a	TORNADO	Weather	5	3	[0, 0, 0]	n/a	catFR1	6	R1468J
432.113	2.369	936633	REC_END	n/a	n/a	n/a	n/a	-999	3	[0, 0, 0]	n/a	catFR1	6	R1468J
434.482	10.35	939005	COUNTDOWN_START	n/a	n/a	n/a	n/a	-999	3	[0, 0, 0]	n/a	catFR1	6	R1468J
444.832	0.0	949351	COUNTDOWN_END	n/a	n/a	n/a	n/a	-999	3	[0, 0, 0]	n/a	catFR1	6	R1468J
444.832	1.95	949351	ENCODING_START	n/a	n/a	n/a	n/a	-999	4	[0, 0, 0]	n/a	catFR1	6	R1468J
446.782	1.6	951304	WORD	n/a	wordpools/wordpool_categorized_EN.txt	SPRUCE	Trees	1	4	[0, 0, 0]	n/a	catFR1	6	R1468J
448.382	0.867	952900	WORD_OFF	n/a	n/a	SPRUCE	Trees	1	4	[0, 0, 0]	n/a	catFR1	6	R1468J
449.249	1.6	953768	WORD	n/a	wordpools/wordpool_categorized_EN.txt	ELM	Trees	2	4	[0, 0, 0]	n/a	catFR1	6	R1468J
450.849	1.0	955365	WORD_OFF	n/a	n/a	ELM	Trees	2	4	[0, 0, 0]	n/a	catFR1	6	R1468J
451.849	1.616	956372	WORD	n/a	wordpools/wordpool_categorized_EN.txt	KNEE	BodyParts	3	4	[0, 0, 0]	n/a	catFR1	6	R1468J
453.465	0.967	957984	WORD_OFF	n/a	n/a	KNEE	BodyParts	3	4	[0, 0, 0]	n/a	catFR1	6	R1468J
454.432	1.6	958953	WORD	n/a	wordpools/wordpool_categorized_EN.txt	HEAD	BodyParts	4	4	[0, 0, 0]	n/a	catFR1	6	R1468J
456.032	0.933	960550	WORD_OFF	n/a	n/a	HEAD	BodyParts	4	4	[0, 0, 0]	n/a	catFR1	6	R1468J
456.965	1.6	961487	WORD	n/a	wordpools/wordpool_categorized_EN.txt	ISLAND	Landscapes	5	4	[0, 0, 0]	n/a	catFR1	6	R1468J
458.565	0.767	963084	WORD_OFF	n/a	n/a	ISLAND	Landscapes	5	4	[0, 0, 0]	n/a	catFR1	6	R1468J
459.332	1.6	963851	WORD	n/a	wordpools/wordpool_categorized_EN.txt	HILLS	Landscapes	6	4	[0, 0, 0]	n/a	catFR1	6	R1468J
460.932	1.017	965455	WORD_OFF	n/a	n/a	HILLS	Landscapes	6	4	[0, 0, 0]	n/a	catFR1	6	R1468J
461.949	1.616	966471	WORD	n/a	wordpools/wordpool_categorized_EN.txt	LEG	BodyParts	7	4	[0, 0, 0]	n/a	catFR1	6	R1468J
463.565	0.934	968083	WORD_OFF	n/a	n/a	LEG	BodyParts	7	4	[0, 0, 0]	n/a	catFR1	6	R1468J
464.499	1.616	969020	WORD	n/a	wordpools/wordpool_categorized_EN.txt	EAR	BodyParts	8	4	[0, 0, 0]	n/a	catFR1	6	R1468J
466.115	0.917	970632	WORD_OFF	n/a	n/a	EAR	BodyParts	8	4	[0, 0, 0]	n/a	catFR1	6	R1468J
467.032	1.6	971555	WORD	n/a	wordpools/wordpool_categorized_EN.txt	MAPLE	Trees	9	4	[0, 0, 0]	n/a	catFR1	6	R1468J
468.632	0.966	973151	WORD_OFF	n/a	n/a	MAPLE	Trees	9	4	[0, 0, 0]	n/a	catFR1	6	R1468J
469.598	1.6	974120	WORD	n/a	wordpools/wordpool_categorized_EN.txt	OAK	Trees	10	4	[0, 0, 0]	n/a	catFR1	6	R1468J
471.198	0.967	975716	WORD_OFF	n/a	n/a	OAK	Trees	10	4	[0, 0, 0]	n/a	catFR1	6	R1468J
472.165	1.616	976685	WORD	n/a	wordpools/wordpool_categorized_EN.txt	CREEK	Landscapes	11	4	[0, 0, 0]	n/a	catFR1	6	R1468J
473.781	0.784	978297	WORD_OFF	n/a	n/a	CREEK	Landscapes	11	4	[0, 0, 0]	n/a	catFR1	6	R1468J
474.565	1.617	979088	WORD	n/a	wordpools/wordpool_categorized_EN.txt	FOREST	Landscapes	12	4	[0, 0, 0]	n/a	catFR1	6	R1468J
476.182	0.0	980699	PROB	0.0	n/a	n/a	n/a	-999	4	[1, 5, 4]	10	catFR1	6	R1468J
476.182	0.001	980700	WORD_OFF	n/a	n/a	FOREST	Landscapes	12	4	[0, 0, 0]	n/a	catFR1	6	R1468J
476.183	0.0	980700	ENCODING_END	n/a	n/a	n/a	n/a	-999	4	[0, 0, 0]	n/a	catFR1	6	R1468J
476.183	0.0	980700	START	n/a	n/a	n/a	n/a	-999	4	[-999, -999, -999]	n/a	catFR1	6	R1468J
476.183	4.883	980707	DISTRACT_START	n/a	n/a	n/a	n/a	-999	4	[0, 0, 0]	n/a	catFR1	6	R1468J
481.066	4.499	985583	PROB	4.499	n/a	n/a	n/a	-999	4	[4, 3, 7]	14	catFR1	6	R1468J
485.565	6.133	990082	PROB	6.133	n/a	n/a	n/a	-999	4	[8, 3, 8]	19	catFR1	6	R1468J
491.698	8.017	996215	PROB	8.017	n/a	n/a	n/a	-999	4	[7, 4, 1]	12	catFR1	6	R1468J
499.715	0.0	1004231	STOP	n/a	n/a	n/a	n/a	-999	4	[-999, -999, -999]	n/a	catFR1	6	R1468J
499.715	1.183	1004236	DISTRACT_END	n/a	n/a	n/a	n/a	-999	4	[0, 0, 0]	n/a	catFR1	6	R1468J
500.898	0.678	1005414	REC_START	n/a	n/a	n/a	n/a	-999	4	[0, 0, 0]	n/a	catFR1	6	R1468J
501.576	0.828	1006092	REC_WORD	0.828	n/a	MAPLE	Trees	9	4	[0, 0, 0]	n/a	catFR1	6	R1468J
502.404	0.578	1006920	REC_WORD_VV	0.578	n/a	<>	n/a	-999	4	[0, 0, 0]	n/a	catFR1	6	R1468J
502.982	1.712	1007498	REC_WORD	1.712	n/a	ELM	Trees	2	4	[0, 0, 0]	n/a	catFR1	6	R1468J
504.694	1.869	1009210	REC_WORD	1.869	n/a	SPRUCE	Trees	1	4	[0, 0, 0]	n/a	catFR1	6	R1468J
506.563	5.109	1011079	REC_WORD	5.109	n/a	FOREST	Landscapes	12	4	[0, 0, 0]	n/a	catFR1	6	R1468J
511.672	3.433	1016188	REC_WORD	3.433	n/a	CAR	n/a	-999	4	[0, 0, 0]	n/a	catFR1	6	R1468J
515.105	11.489	1019621	REC_WORD	11.489	n/a	PLOW	n/a	-999	4	[0, 0, 0]	n/a	catFR1	6	R1468J
526.594	5.535	1031109	REC_WORD	5.535	n/a	BUS	Vehicles	-999	4	[0, 0, 0]	n/a	catFR1	6	R1468J
532.129	3.02	1036647	REC_END	n/a	n/a	n/a	n/a	-999	4	[0, 0, 0]	n/a	catFR1	6	R1468J
535.149	10.35	1039669	COUNTDOWN_START	n/a	n/a	n/a	n/a	-999	4	[0, 0, 0]	n/a	catFR1	6	R1468J
545.499	0.0	1050015	COUNTDOWN_END	n/a	n/a	n/a	n/a	-999	4	[0, 0, 0]	n/a	catFR1	6	R1468J
545.499	2.016	1050015	ENCODING_START	n/a	n/a	n/a	n/a	-999	5	[0, 0, 0]	n/a	catFR1	6	R1468J
547.515	1.601	1052030	WORD	n/a	wordpools/wordpool_categorized_EN.txt	ROOF	Building	1	5	[0, 0, 0]	n/a	catFR1	6	R1468J
549.116	0.966	1053635	WORD_OFF	n/a	n/a	ROOF	Building	1	5	[0, 0, 0]	n/a	catFR1	6	R1468J
550.082	1.6	1054596	WORD	n/a	wordpools/wordpool_categorized_EN.txt	STAIRS	Building	2	5	[0, 0, 0]	n/a	catFR1	6	R1468J
551.682	0.949	1056200	WORD_OFF	n/a	n/a	STAIRS	Building	2	5	[0, 0, 0]	n/a	catFR1	6	R1468J
552.631	1.601	1057145	WORD	n/a	wordpools/wordpool_categorized_EN.txt	HICKORY	Trees	3	5	[0, 0, 0]	n/a	catFR1	6	R1468J
554.232	0.867	1058750	WORD_OFF	n/a	n/a	HICKORY	Trees	3	5	[0, 0, 0]	n/a	catFR1	6	R1468J
555.099	1.617	1059618	WORD	n/a	wordpools/wordpool_categorized_EN.txt	WALNUT	Trees	4	5	[0, 0, 0]	n/a	catFR1	6	R1468J
556.716	0.966	1061230	WORD_OFF	n/a	n/a	WALNUT	Trees	4	5	[0, 0, 0]	n/a	catFR1	6	R1468J
557.682	1.616	1062198	WORD	n/a	wordpools/wordpool_categorized_EN.txt	NOTEBOOK	OfficeSupplies	5	5	[0, 0, 0]	n/a	catFR1	6	R1468J
559.298	0.884	1063810	WORD_OFF	n/a	n/a	NOTEBOOK	OfficeSupplies	5	5	[0, 0, 0]	n/a	catFR1	6	R1468J
560.182	1.616	1064694	WORD	n/a	wordpools/wordpool_categorized_EN.txt	GLUE	OfficeSupplies	6	5	[0, 0, 0]	n/a	catFR1	6	R1468J
561.798	0.916	1066314	WORD_OFF	n/a	n/a	GLUE	OfficeSupplies	6	5	[0, 0, 0]	n/a	catFR1	6	R1468J
562.714	1.6	1067228	WORD	n/a	wordpools/wordpool_categorized_EN.txt	EVERGREEN	Trees	7	5	[0, 0, 0]	n/a	catFR1	6	R1468J
564.314	0.768	1068832	WORD_OFF	n/a	n/a	EVERGREEN	Trees	7	5	[0, 0, 0]	n/a	catFR1	6	R1468J
565.082	1.6	1069600	WORD	n/a	wordpools/wordpool_categorized_EN.txt	CYPRESS	Trees	8	5	[0, 0, 0]	n/a	catFR1	6	R1468J
566.682	0.767	1071196	WORD_OFF	n/a	n/a	CYPRESS	Trees	8	5	[0, 0, 0]	n/a	catFR1	6	R1468J
567.449	1.616	1071963	WORD	n/a	wordpools/wordpool_categorized_EN.txt	FOLDER	OfficeSupplies	9	5	[0, 0, 0]	n/a	catFR1	6	R1468J
569.065	0.916	1073583	WORD_OFF	n/a	n/a	FOLDER	OfficeSupplies	9	5	[0, 0, 0]	n/a	catFR1	6	R1468J
569.981	1.601	1074498	WORD	n/a	wordpools/wordpool_categorized_EN.txt	MARKER	OfficeSupplies	10	5	[0, 0, 0]	n/a	catFR1	6	R1468J
571.582	0.799	1076094	WORD_OFF	n/a	n/a	MARKER	OfficeSupplies	10	5	[0, 0, 0]	n/a	catFR1	6	R1468J
572.381	1.601	1076892	WORD	n/a	wordpools/wordpool_categorized_EN.txt	HALLWAY	Building	11	5	[0, 0, 0]	n/a	catFR1	6	R1468J
573.982	0.883	1078497	WORD_OFF	n/a	n/a	HALLWAY	Building	11	5	[0, 0, 0]	n/a	catFR1	6	R1468J
574.865	1.6	1079380	WORD	n/a	wordpools/wordpool_categorized_EN.txt	WALL	Building	12	5	[0, 0, 0]	n/a	catFR1	6	R1468J
576.465	0.0	1080977	WORD_OFF	n/a	n/a	WALL	Building	12	5	[0, 0, 0]	n/a	catFR1	6	R1468J
576.465	0.003	1080978	PROB	0.003	n/a	n/a	n/a	-999	5	[6, 7, 3]	16	catFR1	6	R1468J
576.468	0.0	1080981	START	n/a	n/a	n/a	n/a	-999	5	[-999, -999, -999]	n/a	catFR1	6	R1468J
576.468	0.0	1080984	ENCODING_END	n/a	n/a	n/a	n/a	-999	5	[0, 0, 0]	n/a	catFR1	6	R1468J
576.468	5.48	1080984	DISTRACT_START	n/a	n/a	n/a	n/a	-999	5	[0, 0, 0]	n/a	catFR1	6	R1468J
581.948	4.649	1086461	PROB	4.649	n/a	n/a	n/a	-999	5	[2, 6, 3]	11	catFR1	6	R1468J
586.597	6.784	1091110	PROB	6.784	n/a	n/a	n/a	-999	5	[6, 7, 2]	15	catFR1	6	R1468J
593.381	4.683	1097894	PROB	4.683	n/a	n/a	n/a	-999	5	[6, 1, 7]	14	catFR1	6	R1468J
598.064	0.0	1102576	DISTRACT_END	n/a	n/a	n/a	n/a	-999	5	[0, 0, 0]	n/a	catFR1	6	R1468J
598.064	1.283	1102576	STOP	n/a	n/a	n/a	n/a	-999	5	[-999, -999, -999]	n/a	catFR1	6	R1468J
599.347	1.205	1103862	REC_START	n/a	n/a	n/a	n/a	-999	5	[0, 0, 0]	n/a	catFR1	6	R1468J
600.552	0.952	1105064	REC_WORD	0.952	n/a	NOTEBOOK	OfficeSupplies	5	5	[0, 0, 0]	n/a	catFR1	6	R1468J
601.504	1.815	1106016	REC_WORD_VV	1.815	n/a	<>	n/a	-999	5	[0, 0, 0]	n/a	catFR1	6	R1468J
603.319	4.865	1107831	REC_WORD	4.865	n/a	MARKER	OfficeSupplies	10	5	[0, 0, 0]	n/a	catFR1	6	R1468J
608.184	2.113	1112696	REC_WORD	2.113	n/a	SPRUCE	Trees	-999	5	[0, 0, 0]	n/a	catFR1	6	R1468J
610.297	7.141	1114809	REC_WORD	7.141	n/a	ELMWOOD	n/a	-999	5	[0, 0, 0]	n/a	catFR1	6	R1468J
617.438	6.039	1121950	REC_WORD	6.039	n/a	MARKER	OfficeSupplies	10	5	[0, 0, 0]	n/a	catFR1	6	R1468J
623.477	2.795	1127988	REC_WORD	2.795	n/a	ELMWOOD	n/a	-999	5	[0, 0, 0]	n/a	catFR1	6	R1468J
626.272	4.313	1130783	REC_WORD	4.313	n/a	HICKORY	Trees	3	5	[0, 0, 0]	n/a	catFR1	6	R1468J
630.585	2.747	1135095	REC_END	n/a	n/a	n/a	n/a	-999	5	[0, 0, 0]	n/a	catFR1	6	R1468J
633.332	10.349	1137846	COUNTDOWN_START	n/a	n/a	n/a	n/a	-999	5	[0, 0, 0]	n/a	catFR1	6	R1468J
643.681	0.0	1148192	COUNTDOWN_END	n/a	n/a	n/a	n/a	-999	5	[0, 0, 0]	n/a	catFR1	6	R1468J
643.681	2.001	1148192	ENCODING_START	n/a	n/a	n/a	n/a	-999	6	[0, 0, 0]	n/a	catFR1	6	R1468J
645.682	1.617	1150192	WORD	n/a	wordpools/wordpool_categorized_EN.txt	CHERRY	Fruit	1	6	[0, 0, 0]	n/a	catFR1	6	R1468J
647.299	0.9	1151812	WORD_OFF	n/a	n/a	CHERRY	Fruit	1	6	[0, 0, 0]	n/a	catFR1	6	R1468J
648.199	1.6	1152711	WORD	n/a	wordpools/wordpool_categorized_EN.txt	BANANA	Fruit	2	6	[0, 0, 0]	n/a	catFR1	6	R1468J
649.799	0.983	1154307	WORD_OFF	n/a	n/a	BANANA	Fruit	2	6	[0, 0, 0]	n/a	catFR1	6	R1468J
650.782	1.616	1155291	WORD	n/a	wordpools/wordpool_categorized_EN.txt	MONKEY	Zoo	3	6	[0, 0, 0]	n/a	catFR1	6	R1468J
652.398	0.818	1156911	WORD_OFF	n/a	n/a	MONKEY	Zoo	3	6	[0, 0, 0]	n/a	catFR1	6	R1468J
653.216	1.616	1157725	WORD	n/a	wordpools/wordpool_categorized_EN.txt	CHIMPANZEE	Zoo	4	6	[0, 0, 0]	n/a	catFR1	6	R1468J
654.832	0.766	1159345	WORD_OFF	n/a	n/a	CHIMPANZEE	Zoo	4	6	[0, 0, 0]	n/a	catFR1	6	R1468J
655.598	1.617	1160112	WORD	n/a	wordpools/wordpool_categorized_EN.txt	CROWBAR	Tools	5	6	[0, 0, 0]	n/a	catFR1	6	R1468J
657.215	1.0	1161724	WORD_OFF	n/a	n/a	CROWBAR	Tools	5	6	[0, 0, 0]	n/a	catFR1	6	R1468J
658.215	1.617	1162724	WORD	n/a	wordpools/wordpool_categorized_EN.txt	SCREWDRIVER	Tools	6	6	[0, 0, 0]	n/a	catFR1	6	R1468J
659.832	0.833	1164343	WORD_OFF	n/a	n/a	SCREWDRIVER	Tools	6	6	[0, 0, 0]	n/a	catFR1	6	R1468J
660.665	1.6	1165173	WORD	n/a	wordpools/wordpool_categorized_EN.txt	ORANGE	Fruit	7	6	[0, 0, 0]	n/a	catFR1	6	R1468J
662.265	0.981	1166777	WORD_OFF	n/a	n/a	ORANGE	Fruit	7	6	[0, 0, 0]	n/a	catFR1	6	R1468J
663.246	1.602	1167753	WORD	n/a	wordpools/wordpool_categorized_EN.txt	PEACH	Fruit	8	6	[0, 0, 0]	n/a	catFR1	6	R1468J
664.848	0.883	1169358	WORD_OFF	n/a	n/a	PEACH	Fruit	8	6	[0, 0, 0]	n/a	catFR1	6	R1468J
665.731	1.616	1170249	WORD	n/a	wordpools/wordpool_categorized_EN.txt	PLIERS	Tools	9	6	[0, 0, 0]	n/a	catFR1	6	R1468J
667.347	1.001	1171861	WORD_OFF	n/a	n/a	PLIERS	Tools	9	6	[0, 0, 0]	n/a	catFR1	6	R1468J
668.348	1.599	1172861	WORD	n/a	wordpools/wordpool_categorized_EN.txt	AXE	Tools	10	6	[0, 0, 0]	n/a	catFR1	6	R1468J
669.947	0.8	1174457	WORD_OFF	n/a	n/a	AXE	Tools	10	6	[0, 0, 0]	n/a	catFR1	6	R1468J
670.747	1.601	1175255	WORD	n/a	wordpools/wordpool_categorized_EN.txt	ELEPHANT	Zoo	11	6	[0, 0, 0]	n/a	catFR1	6	R1468J
672.348	0.982	1176860	WORD_OFF	n/a	n/a	ELEPHANT	Zoo	11	6	[0, 0, 0]	n/a	catFR1	6	R1468J
673.33	1.6	1177844	WORD	n/a	wordpools/wordpool_categorized_EN.txt	GIRAFFE	Zoo	12	6	[0, 0, 0]	n/a	catFR1	6	R1468J
674.93	0.001	1179440	WORD_OFF	n/a	n/a	GIRAFFE	Zoo	12	6	[0, 0, 0]	n/a	catFR1	6	R1468J
674.931	0.0	1179440	ENCODING_END	n/a	n/a	n/a	n/a	-999	6	[0, 0, 0]	n/a	catFR1	6	R1468J
674.931	0.0	1179440	DISTRACT_START	n/a	n/a	n/a	n/a	-999	6	[0, 0, 0]	n/a	catFR1	6	R1468J
674.931	0.001	1179440	START	n/a	n/a	n/a	n/a	-999	6	[-999, -999, -999]	n/a	catFR1	6	R1468J
674.932	4.8	1179441	PROB	4.8	n/a	n/a	n/a	-999	6	[6, 5, 7]	18	catFR1	6	R1468J
679.732	4.966	1184241	PROB	4.966	n/a	n/a	n/a	-999	6	[1, 5, 2]	8	catFR1	6	R1468J
684.698	4.883	1189207	PROB	4.883	n/a	n/a	n/a	-999	6	[6, 3, 5]	14	catFR1	6	R1468J
689.581	3.616	1194090	PROB	3.616	n/a	n/a	n/a	-999	6	[4, 6, 1]	11	catFR1	6	R1468J
693.197	5.717	1197705	PROB	5.717	n/a	n/a	n/a	-999	6	[8, 3, 7]	18	catFR1	6	R1468J
698.914	0.0	1203422	STOP	n/a	n/a	n/a	n/a	-999	6	[-999, -999, -999]	n/a	catFR1	6	R1468J
698.914	1.15	1203427	DISTRACT_END	n/a	n/a	n/a	n/a	-999	6	[0, 0, 0]	n/a	catFR1	6	R1468J
700.064	0.923	1204574	REC_START	n/a	n/a	n/a	n/a	-999	6	[0, 0, 0]	n/a	catFR1	6	R1468J
700.987	1.284	1205495	REC_WORD	1.284	n/a	ELEPHANT	Zoo	11	6	[0, 0, 0]	n/a	catFR1	6	R1468J
702.271	0.38	1206779	REC_WORD_VV	0.38	n/a	<>	n/a	-999	6	[0, 0, 0]	n/a	catFR1	6	R1468J
702.651	1.886	1207159	REC_WORD	1.886	n/a	MONKEY	Zoo	3	6	[0, 0, 0]	n/a	catFR1	6	R1468J
704.537	2.004	1209045	REC_WORD	2.004	n/a	GIRAFFE	Zoo	12	6	[0, 0, 0]	n/a	catFR1	6	R1468J
706.541	2.237	1211049	REC_WORD	2.237	n/a	CHERRY	Fruit	1	6	[0, 0, 0]	n/a	catFR1	6	R1468J
708.778	1.557	1213286	REC_WORD	1.557	n/a	BANANA	Fruit	2	6	[0, 0, 0]	n/a	catFR1	6	R1468J
710.335	20.944	1214843	REC_WORD_VV	20.944	n/a	<>	n/a	-999	6	[0, 0, 0]	n/a	catFR1	6	R1468J
731.279	4.403	1235783	REC_END	n/a	n/a	n/a	n/a	-999	6	[0, 0, 0]	n/a	catFR1	6	R1468J
735.682	10.348	1240193	COUNTDOWN_START	n/a	n/a	n/a	n/a	-999	6	[0, 0, 0]	n/a	catFR1	6	R1468J
746.03	0.0	1250539	COUNTDOWN_END	n/a	n/a	n/a	n/a	-999	6	[0, 0, 0]	n/a	catFR1	6	R1468J
746.03	2.051	1250539	ENCODING_START	n/a	n/a	n/a	n/a	-999	7	[0, 0, 0]	n/a	catFR1	6	R1468J
748.081	1.618	1252593	WORD	n/a	wordpools/wordpool_categorized_EN.txt	FLOOR	Building	1	7	[0, 0, 0]	n/a	catFR1	6	R1468J
749.699	0.933	1254205	WORD_OFF	n/a	n/a	FLOOR	Building	1	7	[0, 0, 0]	n/a	catFR1	6	R1468J
750.632	1.616	1255142	WORD	n/a	wordpools/wordpool_categorized_EN.txt	ROOM	Building	2	7	[0, 0, 0]	n/a	catFR1	6	R1468J
752.248	1.0	1256754	WORD_OFF	n/a	n/a	ROOM	Building	2	7	[0, 0, 0]	n/a	catFR1	6	R1468J
753.248	1.6	1257754	WORD	n/a	wordpools/wordpool_categorized_EN.txt	LEVEL	Tools	3	7	[0, 0, 0]	n/a	catFR1	6	R1468J
754.848	0.966	1259358	WORD_OFF	n/a	n/a	LEVEL	Tools	3	7	[0, 0, 0]	n/a	catFR1	6	R1468J
755.814	1.601	1260319	WORD	n/a	wordpools/wordpool_categorized_EN.txt	HAMMER	Tools	4	7	[0, 0, 0]	n/a	catFR1	6	R1468J
757.415	0.95	1261924	WORD_OFF	n/a	n/a	HAMMER	Tools	4	7	[0, 0, 0]	n/a	catFR1	6	R1468J
758.365	1.6	1262869	WORD	n/a	wordpools/wordpool_categorized_EN.txt	CALCULATOR	Electronics	5	7	[0, 0, 0]	n/a	catFR1	6	R1468J
759.965	0.85	1264473	WORD_OFF	n/a	n/a	CALCULATOR	Electronics	5	7	[0, 0, 0]	n/a	catFR1	6	R1468J
760.815	1.6	1265318	WORD	n/a	wordpools/wordpool_categorized_EN.txt	PRINTER	Electronics	6	7	[0, 0, 0]	n/a	catFR1	6	R1468J
762.415	0.832	1266922	WORD_OFF	n/a	n/a	PRINTER	Electronics	6	7	[0, 0, 0]	n/a	catFR1	6	R1468J
763.247	1.6	1267752	WORD	n/a	wordpools/wordpool_categorized_EN.txt	CEILING	Building	7	7	[0, 0, 0]	n/a	catFR1	6	R1468J
764.847	0.999	1269356	WORD_OFF	n/a	n/a	CEILING	Building	7	7	[0, 0, 0]	n/a	catFR1	6	R1468J
765.846	1.602	1270356	WORD	n/a	wordpools/wordpool_categorized_EN.txt	FOUNDATION	Building	8	7	[0, 0, 0]	n/a	catFR1	6	R1468J
767.448	0.766	1271952	WORD_OFF	n/a	n/a	FOUNDATION	Building	8	7	[0, 0, 0]	n/a	catFR1	6	R1468J
768.214	1.6	1272719	WORD	n/a	wordpools/wordpool_categorized_EN.txt	SHOVEL	Tools	9	7	[0, 0, 0]	n/a	catFR1	6	R1468J
769.814	0.868	1274324	WORD_OFF	n/a	n/a	SHOVEL	Tools	9	7	[0, 0, 0]	n/a	catFR1	6	R1468J
770.682	1.614	1275192	WORD	n/a	wordpools/wordpool_categorized_EN.txt	DRILL	Tools	10	7	[0, 0, 0]	n/a	catFR1	6	R1468J
772.296	0.917	1276804	WORD_OFF	n/a	n/a	DRILL	Tools	10	7	[0, 0, 0]	n/a	catFR1	6	R1468J
773.213	1.601	1277718	WORD	n/a	wordpools/wordpool_categorized_EN.txt	SCANNER	Electronics	11	7	[0, 0, 0]	n/a	catFR1	6	R1468J
774.814	0.901	1279322	WORD_OFF	n/a	n/a	SCANNER	Electronics	11	7	[0, 0, 0]	n/a	catFR1	6	R1468J
775.715	1.616	1280221	WORD	n/a	wordpools/wordpool_categorized_EN.txt	RADIO	Electronics	12	7	[0, 0, 0]	n/a	catFR1	6	R1468J
777.331	0.0	1281833	WORD_OFF	n/a	n/a	RADIO	Electronics	12	7	[0, 0, 0]	n/a	catFR1	6	R1468J
777.331	0.003	1281836	PROB	0.003	n/a	n/a	n/a	-999	7	[8, 1, 6]	16	catFR1	6	R1468J
777.334	0.0	1281839	START	n/a	n/a	n/a	n/a	-999	7	[-999, -999, -999]	n/a	catFR1	6	R1468J
777.334	0.0	1281841	ENCODING_END	n/a	n/a	n/a	n/a	-999	7	[0, 0, 0]	n/a	catFR1	6	R1468J
777.334	6.997	1281841	DISTRACT_START	n/a	n/a	n/a	n/a	-999	7	[0, 0, 0]	n/a	catFR1	6	R1468J
784.331	5.067	1288836	PROB	5.067	n/a	n/a	n/a	-999	7	[4, 4, 2]	10	catFR1	6	R1468J
789.398	3.616	1293902	PROB	3.616	n/a	n/a	n/a	-999	7	[5, 7, 5]	17	catFR1	6	R1468J
793.014	5.617	1297518	PROB	5.617	n/a	n/a	n/a	-999	7	[1, 4, 5]	10	catFR1	6	R1468J
798.631	0.0	1303135	STOP	n/a	n/a	n/a	n/a	-999	7	[-999, -999, -999]	n/a	catFR1	6	R1468J
798.631	1.167	1303138	DISTRACT_END	n/a	n/a	n/a	n/a	-999	7	[0, 0, 0]	n/a	catFR1	6	R1468J
799.798	1.957	1304301	REC_START	n/a	n/a	n/a	n/a	-999	7	[0, 0, 0]	n/a	catFR1	6	R1468J
801.755	2.237	1306259	REC_WORD	2.237	n/a	FOUNDATION	Building	8	7	[0, 0, 0]	n/a	catFR1	6	R1468J
803.992	1.714	1308496	REC_WORD	1.714	n/a	WALL	Building	-999	7	[0, 0, 0]	n/a	catFR1	6	R1468J
805.706	2.174	1310210	REC_WORD	2.174	n/a	HAMMER	Tools	4	7	[0, 0, 0]	n/a	catFR1	6	R1468J
807.88	1.772	1312384	REC_WORD	1.772	n/a	FLOOR	Building	1	7	[0, 0, 0]	n/a	catFR1	6	R1468J
809.652	5.546	1314155	REC_WORD	5.546	n/a	CEILING	Building	7	7	[0, 0, 0]	n/a	catFR1	6	R1468J
815.198	4.347	1319701	REC_WORD	4.347	n/a	SPRUCE	Trees	-999	7	[0, 0, 0]	n/a	catFR1	6	R1468J
819.545	2.963	1324048	REC_WORD	2.963	n/a	CEILING	Building	7	7	[0, 0, 0]	n/a	catFR1	6	R1468J
822.508	8.532	1327011	REC_WORD	8.532	n/a	FLOOR	Building	1	7	[0, 0, 0]	n/a	catFR1	6	R1468J
831.04	3.775	1335541	REC_END	n/a	n/a	n/a	n/a	-999	7	[0, 0, 0]	n/a	catFR1	6	R1468J
834.815	10.349	1339323	COUNTDOWN_START	n/a	n/a	n/a	n/a	-999	7	[0, 0, 0]	n/a	catFR1	6	R1468J
845.164	0.0	1349669	COUNTDOWN_END	n/a	n/a	n/a	n/a	-999	7	[0, 0, 0]	n/a	catFR1	6	R1468J
845.164	1.901	1349669	ENCODING_START	n/a	n/a	n/a	n/a	-999	8	[0, 0, 0]	n/a	catFR1	6	R1468J
847.065	1.6	1351568	WORD	n/a	wordpools/wordpool_categorized_EN.txt	PHONE	Electronics	1	8	[0, 0, 0]	n/a	catFR1	6	R1468J
848.665	0.9	1353172	WORD_OFF	n/a	n/a	PHONE	Electronics	1	8	[0, 0, 0]	n/a	catFR1	6	R1468J
849.565	1.6	1354071	WORD	n/a	wordpools/wordpool_categorized_EN.txt	TELEVISION	Electronics	2	8	[0, 0, 0]	n/a	catFR1	6	R1468J
851.165	0.783	1355668	WORD_OFF	n/a	n/a	TELEVISION	Electronics	2	8	[0, 0, 0]	n/a	catFR1	6	R1468J
851.948	1.6	1356450	WORD	n/a	wordpools/wordpool_categorized_EN.txt	EYE	BodyParts	3	8	[0, 0, 0]	n/a	catFR1	6	R1468J
853.548	0.916	1358055	WORD_OFF	n/a	n/a	EYE	BodyParts	3	8	[0, 0, 0]	n/a	catFR1	6	R1468J
854.464	1.601	1358969	WORD	n/a	wordpools/wordpool_categorized_EN.txt	NOSE	BodyParts	4	8	[0, 0, 0]	n/a	catFR1	6	R1468J
856.065	0.999	1360566	WORD_OFF	n/a	n/a	NOSE	BodyParts	4	8	[0, 0, 0]	n/a	catFR1	6	R1468J
857.064	1.601	1361565	WORD	n/a	wordpools/wordpool_categorized_EN.txt	PANTS	Clothing	5	8	[0, 0, 0]	n/a	catFR1	6	R1468J
858.665	0.916	1363170	WORD_OFF	n/a	n/a	PANTS	Clothing	5	8	[0, 0, 0]	n/a	catFR1	6	R1468J
859.581	1.616	1364084	WORD	n/a	wordpools/wordpool_categorized_EN.txt	SHIRT	Clothing	6	8	[0, 0, 0]	n/a	catFR1	6	R1468J
861.197	0.984	1365704	WORD_OFF	n/a	n/a	SHIRT	Clothing	6	8	[0, 0, 0]	n/a	catFR1	6	R1468J
862.181	1.6	1366680	WORD	n/a	wordpools/wordpool_categorized_EN.txt	HAND	BodyParts	7	8	[0, 0, 0]	n/a	catFR1	6	R1468J
863.781	0.933	1368285	WORD_OFF	n/a	n/a	HAND	BodyParts	7	8	[0, 0, 0]	n/a	catFR1	6	R1468J
864.714	1.6	1369215	WORD	n/a	wordpools/wordpool_categorized_EN.txt	FINGERS	BodyParts	8	8	[0, 0, 0]	n/a	catFR1	6	R1468J
866.314	0.951	1370819	WORD_OFF	n/a	n/a	FINGERS	BodyParts	8	8	[0, 0, 0]	n/a	catFR1	6	R1468J
867.265	1.617	1371764	WORD	n/a	wordpools/wordpool_categorized_EN.txt	JACKET	Clothing	9	8	[0, 0, 0]	n/a	catFR1	6	R1468J
868.882	0.85	1373384	WORD_OFF	n/a	n/a	JACKET	Clothing	9	8	[0, 0, 0]	n/a	catFR1	6	R1468J
869.732	1.615	1374237	WORD	n/a	wordpools/wordpool_categorized_EN.txt	UNDERWEAR	Clothing	10	8	[0, 0, 0]	n/a	catFR1	6	R1468J
871.347	0.8	1375849	WORD_OFF	n/a	n/a	UNDERWEAR	Clothing	10	8	[0, 0, 0]	n/a	catFR1	6	R1468J
872.147	1.601	1376647	WORD	n/a	wordpools/wordpool_categorized_EN.txt	SPEAKER	Electronics	11	8	[0, 0, 0]	n/a	catFR1	6	R1468J
873.748	0.799	1378251	WORD_OFF	n/a	n/a	SPEAKER	Electronics	11	8	[0, 0, 0]	n/a	catFR1	6	R1468J
874.547	1.602	1379049	WORD	n/a	wordpools/wordpool_categorized_EN.txt	COMPUTER	Electronics	12	8	[0, 0, 0]	n/a	catFR1	6	R1468J
876.149	0.003	1380650	PROB	0.003	n/a	n/a	n/a	-999	8	[2, 1, 7]	10	catFR1	6	R1468J
876.152	0.0	1380653	START	n/a	n/a	n/a	n/a	-999	8	[-999, -999, -999]	n/a	catFR1	6	R1468J
876.148	0.004	1380654	WORD_OFF	n/a	n/a	COMPUTER	Electronics	12	8	[0, 0, 0]	n/a	catFR1	6	R1468J
876.152	0.0	1380654	ENCODING_END	n/a	n/a	n/a	n/a	-999	8	[0, 0, 0]	n/a	catFR1	6	R1468J
876.152	8.245	1380654	DISTRACT_START	n/a	n/a	n/a	n/a	-999	8	[0, 0, 0]	n/a	catFR1	6	R1468J
884.397	4.068	1388897	PROB	4.068	n/a	n/a	n/a	-999	8	[1, 2, 7]	10	catFR1	6	R1468J
888.465	4.449	1392965	PROB	4.449	n/a	n/a	n/a	-999	8	[1, 7, 4]	12	catFR1	6	R1468J
892.914	4.416	1397414	PROB	4.416	n/a	n/a	n/a	-999	8	[6, 1, 2]	9	catFR1	6	R1468J
897.33	0.0	1401830	STOP	n/a	n/a	n/a	n/a	-999	8	[-999, -999, -999]	n/a	catFR1	6	R1468J
897.33	1.217	1401834	DISTRACT_END	n/a	n/a	n/a	n/a	-999	8	[0, 0, 0]	n/a	catFR1	6	R1468J
898.547	1.409	1403051	REC_START	n/a	n/a	n/a	n/a	-999	8	[0, 0, 0]	n/a	catFR1	6	R1468J
899.956	2.953	1404456	REC_WORD	2.953	n/a	PANTS	Clothing	5	8	[0, 0, 0]	n/a	catFR1	6	R1468J
902.909	1.735	1407409	REC_WORD	1.735	n/a	ELEVATOR	n/a	-999	8	[0, 0, 0]	n/a	catFR1	6	R1468J
904.644	2.011	1409144	REC_WORD	2.011	n/a	FLOOR	Building	-999	8	[0, 0, 0]	n/a	catFR1	6	R1468J
906.655	1.614	1411154	REC_WORD_VV	1.614	n/a	<>	n/a	-999	8	[0, 0, 0]	n/a	catFR1	6	R1468J
908.269	19.027	1412768	REC_WORD	19.027	n/a	SHIRT	Clothing	6	8	[0, 0, 0]	n/a	catFR1	6	R1468J
927.296	2.459	1431795	REC_WORD	2.459	n/a	UNDERWEAR	Clothing	10	8	[0, 0, 0]	n/a	catFR1	6	R1468J
929.755	3.562	1434253	REC_END	n/a	n/a	n/a	n/a	-999	8	[0, 0, 0]	n/a	catFR1	6	R1468J
933.317	10.348	1437818	COUNTDOWN_START	n/a	n/a	n/a	n/a	-999	8	[0, 0, 0]	n/a	catFR1	6	R1468J
943.665	0.001	1448164	COUNTDOWN_END	n/a	n/a	n/a	n/a	-999	8	[0, 0, 0]	n/a	catFR1	6	R1468J
943.666	2.032	1448164	ENCODING_START	n/a	n/a	n/a	n/a	-999	9	[0, 0, 0]	n/a	catFR1	6	R1468J
945.698	1.6	1450194	WORD	n/a	wordpools/wordpool_categorized_EN.txt	POTATO	Vegetables	1	9	[0, 0, 0]	n/a	catFR1	6	R1468J
947.298	0.917	1451799	WORD_OFF	n/a	n/a	POTATO	Vegetables	1	9	[0, 0, 0]	n/a	catFR1	6	R1468J
948.215	1.616	1452713	WORD	n/a	wordpools/wordpool_categorized_EN.txt	CELERY	Vegetables	2	9	[0, 0, 0]	n/a	catFR1	6	R1468J
949.831	0.883	1454333	WORD_OFF	n/a	n/a	CELERY	Vegetables	2	9	[0, 0, 0]	n/a	catFR1	6	R1468J
950.714	1.601	1455216	WORD	n/a	wordpools/wordpool_categorized_EN.txt	PUZZLE	Toys	3	9	[0, 0, 0]	n/a	catFR1	6	R1468J
952.315	0.767	1456813	WORD_OFF	n/a	n/a	PUZZLE	Toys	3	9	[0, 0, 0]	n/a	catFR1	6	R1468J
953.082	1.616	1457580	WORD	n/a	wordpools/wordpool_categorized_EN.txt	BARBIE	Toys	4	9	[0, 0, 0]	n/a	catFR1	6	R1468J
954.698	0.917	1459200	WORD_OFF	n/a	n/a	BARBIE	Toys	4	9	[0, 0, 0]	n/a	catFR1	6	R1468J
955.615	1.6	1460114	WORD	n/a	wordpools/wordpool_categorized_EN.txt	BEER	Beverages	5	9	[0, 0, 0]	n/a	catFR1	6	R1468J
957.215	0.816	1461711	WORD_OFF	n/a	n/a	BEER	Beverages	5	9	[0, 0, 0]	n/a	catFR1	6	R1468J
958.031	1.6	1462532	WORD	n/a	wordpools/wordpool_categorized_EN.txt	MILK	Beverages	6	9	[0, 0, 0]	n/a	catFR1	6	R1468J
959.631	0.8	1464129	WORD_OFF	n/a	n/a	MILK	Beverages	6	9	[0, 0, 0]	n/a	catFR1	6	R1468J
960.431	1.6	1464927	WORD	n/a	wordpools/wordpool_categorized_EN.txt	CARROT	Vegetables	7	9	[0, 0, 0]	n/a	catFR1	6	R1468J
962.031	0.766	1466531	WORD_OFF	n/a	n/a	CARROT	Vegetables	7	9	[0, 0, 0]	n/a	catFR1	6	R1468J
962.797	1.616	1467299	WORD	n/a	wordpools/wordpool_categorized_EN.txt	CUCUMBER	Vegetables	8	9	[0, 0, 0]	n/a	catFR1	6	R1468J
964.413	0.935	1468911	WORD_OFF	n/a	n/a	CUCUMBER	Vegetables	8	9	[0, 0, 0]	n/a	catFR1	6	R1468J
965.348	1.616	1469848	WORD	n/a	wordpools/wordpool_categorized_EN.txt	SODA	Beverages	9	9	[0, 0, 0]	n/a	catFR1	6	R1468J
966.964	0.867	1471460	WORD_OFF	n/a	n/a	SODA	Beverages	9	9	[0, 0, 0]	n/a	catFR1	6	R1468J
967.831	1.601	1472328	WORD	n/a	wordpools/wordpool_categorized_EN.txt	TEA	Beverages	10	9	[0, 0, 0]	n/a	catFR1	6	R1468J
969.432	0.883	1473933	WORD_OFF	n/a	n/a	TEA	Beverages	10	9	[0, 0, 0]	n/a	catFR1	6	R1468J
970.315	1.615	1474816	WORD	n/a	wordpools/wordpool_categorized_EN.txt	BLOCKS	Toys	11	9	[0, 0, 0]	n/a	catFR1	6	R1468J
971.93	0.901	1476428	WORD_OFF	n/a	n/a	BLOCKS	Toys	11	9	[0, 0, 0]	n/a	catFR1	6	R1468J
972.831	1.601	1477327	WORD	n/a	wordpools/wordpool_categorized_EN.txt	BALL	Toys	12	9	[0, 0, 0]	n/a	catFR1	6	R1468J
974.432	0.001	1478929	PROB	0.001	n/a	n/a	n/a	-999	9	[4, 5, 2]	11	catFR1	6	R1468J
974.433	0.0	1478930	START	n/a	n/a	n/a	n/a	-999	9	[-999, -999, -999]	n/a	catFR1	6	R1468J
974.432	0.001	1478931	WORD_OFF	n/a	n/a	BALL	Toys	12	9	[0, 0, 0]	n/a	catFR1	6	R1468J
974.433	0.0	1478931	ENCODING_END	n/a	n/a	n/a	n/a	-999	9	[0, 0, 0]	n/a	catFR1	6	R1468J
974.433	4.415	1478931	DISTRACT_START	n/a	n/a	n/a	n/a	-999	9	[0, 0, 0]	n/a	catFR1	6	R1468J
978.848	3.65	1483344	PROB	3.65	n/a	n/a	n/a	-999	9	[5, 1, 4]	10	catFR1	6	R1468J
982.498	7.483	1486994	PROB	7.483	n/a	n/a	n/a	-999	9	[4, 7, 8]	19	catFR1	6	R1468J
989.981	9.016	1494477	PROB	9.016	n/a	n/a	n/a	-999	9	[4, 7, 6]	17	catFR1	6	R1468J
998.997	0.0	1503491	DISTRACT_END	n/a	n/a	n/a	n/a	-999	9	[0, 0, 0]	n/a	catFR1	6	R1468J
998.997	1.183	1503493	STOP	n/a	n/a	n/a	n/a	-999	9	[-999, -999, -999]	n/a	catFR1	6	R1468J
1000.18	2.293	1504677	REC_START	n/a	n/a	n/a	n/a	-999	9	[0, 0, 0]	n/a	catFR1	6	R1468J
1002.473	2.886	1506968	REC_WORD	2.886	n/a	ORANGE	Fruit	-999	9	[0, 0, 0]	n/a	catFR1	6	R1468J
1005.359	2.354	1509854	REC_WORD	2.354	n/a	CELERY	Vegetables	2	9	[0, 0, 0]	n/a	catFR1	6	R1468J
1007.713	3.413	1512208	REC_WORD	3.413	n/a	BARBIE	Toys	4	9	[0, 0, 0]	n/a	catFR1	6	R1468J
1011.126	3.352	1515621	REC_WORD	3.352	n/a	FOUNDATION	Building	-999	9	[0, 0, 0]	n/a	catFR1	6	R1468J
1014.478	3.012	1518973	REC_WORD	3.012	n/a	FLOOR	Building	-999	9	[0, 0, 0]	n/a	catFR1	6	R1468J
1017.49	4.178	1521985	REC_WORD	4.178	n/a	WALL	Building	-999	9	[0, 0, 0]	n/a	catFR1	6	R1468J
1021.668	3.631	1526163	REC_WORD	3.631	n/a	ORANGE	Fruit	-999	9	[0, 0, 0]	n/a	catFR1	6	R1468J
1025.299	3.682	1529793	REC_WORD	3.682	n/a	TOMATO	n/a	-999	9	[0, 0, 0]	n/a	catFR1	6	R1468J
1028.981	2.415	1533475	REC_WORD	2.415	n/a	BANANA	Fruit	-999	9	[0, 0, 0]	n/a	catFR1	6	R1468J
1031.396	3.403	1535894	REC_END	n/a	n/a	n/a	n/a	-999	9	[0, 0, 0]	n/a	catFR1	6	R1468J
1034.799	10.349	1539296	COUNTDOWN_START	n/a	n/a	n/a	n/a	-999	9	[0, 0, 0]	n/a	catFR1	6	R1468J
1045.148	0.0	1549642	COUNTDOWN_END	n/a	n/a	n/a	n/a	-999	9	[0, 0, 0]	n/a	catFR1	6	R1468J
1045.148	1.984	1549642	ENCODING_START	n/a	n/a	n/a	n/a	-999	10	[0, 0, 0]	n/a	catFR1	6	R1468J
1047.132	1.616	1551626	WORD	n/a	wordpools/wordpool_categorized_EN.txt	HAWK	Birds	1	10	[0, 0, 0]	n/a	catFR1	6	R1468J
1048.748	0.9	1553246	WORD_OFF	n/a	n/a	HAWK	Birds	1	10	[0, 0, 0]	n/a	catFR1	6	R1468J
1049.648	1.6	1554145	WORD	n/a	wordpools/wordpool_categorized_EN.txt	SPARROW	Birds	2	10	[0, 0, 0]	n/a	catFR1	6	R1468J
1051.248	0.884	1555741	WORD_OFF	n/a	n/a	SPARROW	Birds	2	10	[0, 0, 0]	n/a	catFR1	6	R1468J
1052.132	1.616	1556625	WORD	n/a	wordpools/wordpool_categorized_EN.txt	GRATER	KitchenTools	3	10	[0, 0, 0]	n/a	catFR1	6	R1468J
1053.748	0.833	1558245	WORD_OFF	n/a	n/a	GRATER	KitchenTools	3	10	[0, 0, 0]	n/a	catFR1	6	R1468J
1054.581	1.6	1559074	WORD	n/a	wordpools/wordpool_categorized_EN.txt	PEELER	KitchenTools	4	10	[0, 0, 0]	n/a	catFR1	6	R1468J
1056.181	0.817	1560678	WORD_OFF	n/a	n/a	PEELER	KitchenTools	4	10	[0, 0, 0]	n/a	catFR1	6	R1468J
1056.998	1.616	1561492	WORD	n/a	wordpools/wordpool_categorized_EN.txt	MICROWAVE	Electronics	5	10	[0, 0, 0]	n/a	catFR1	6	R1468J
1058.614	0.884	1563112	WORD_OFF	n/a	n/a	MICROWAVE	Electronics	5	10	[0, 0, 0]	n/a	catFR1	6	R1468J
1059.498	1.616	1563995	WORD	n/a	wordpools/wordpool_categorized_EN.txt	HEADPHONES	Electronics	6	10	[0, 0, 0]	n/a	catFR1	6	R1468J
1061.114	0.934	1565607	WORD_OFF	n/a	n/a	HEADPHONES	Electronics	6	10	[0, 0, 0]	n/a	catFR1	6	R1468J
1062.048	1.616	1566545	WORD	n/a	wordpools/wordpool_categorized_EN.txt	SPOON	KitchenTools	7	10	[0, 0, 0]	n/a	catFR1	6	R1468J
1063.664	0.767	1568157	WORD_OFF	n/a	n/a	SPOON	KitchenTools	7	10	[0, 0, 0]	n/a	catFR1	6	R1468J
1064.431	1.6	1568924	WORD	n/a	wordpools/wordpool_categorized_EN.txt	COLANDER	KitchenTools	8	10	[0, 0, 0]	n/a	catFR1	6	R1468J
1066.031	1.001	1570528	WORD_OFF	n/a	n/a	COLANDER	KitchenTools	8	10	[0, 0, 0]	n/a	catFR1	6	R1468J
1067.032	1.616	1571528	WORD	n/a	wordpools/wordpool_categorized_EN.txt	STEREO	Electronics	9	10	[0, 0, 0]	n/a	catFR1	6	R1468J
1068.648	0.966	1573140	WORD_OFF	n/a	n/a	STEREO	Electronics	9	10	[0, 0, 0]	n/a	catFR1	6	R1468J
1069.614	1.601	1574109	WORD	n/a	wordpools/wordpool_categorized_EN.txt	TABLET	Electronics	10	10	[0, 0, 0]	n/a	catFR1	6	R1468J
1071.215	0.833	1575705	WORD_OFF	n/a	n/a	TABLET	Electronics	10	10	[0, 0, 0]	n/a	catFR1	6	R1468J
1072.048	1.615	1576542	WORD	n/a	wordpools/wordpool_categorized_EN.txt	BLUEBIRD	Birds	11	10	[0, 0, 0]	n/a	catFR1	6	R1468J
1073.663	0.918	1578154	WORD_OFF	n/a	n/a	BLUEBIRD	Birds	11	10	[0, 0, 0]	n/a	catFR1	6	R1468J
1074.581	1.601	1579077	WORD	n/a	wordpools/wordpool_categorized_EN.txt	ROBIN	Birds	12	10	[0, 0, 0]	n/a	catFR1	6	R1468J
1076.182	0.0	1580673	WORD_OFF	n/a	n/a	ROBIN	Birds	12	10	[0, 0, 0]	n/a	catFR1	6	R1468J
1076.182	0.003	1580674	PROB	0.003	n/a	n/a	n/a	-999	10	[1, 5, 3]	11	catFR1	6	R1468J
1076.185	0.0	1580677	START	n/a	n/a	n/a	n/a	-999	10	[-999, -999, -999]	n/a	catFR1	6	R1468J
1076.185	0.0	1580681	ENCODING_END	n/a	n/a	n/a	n/a	-999	10	[0, 0, 0]	n/a	catFR1	6	R1468J
1076.185	3.763	1580681	DISTRACT_START	n/a	n/a	n/a	n/a	-999	10	[0, 0, 0]	n/a	catFR1	6	R1468J
1079.948	4.949	1584440	PROB	4.949	n/a	n/a	n/a	-999	10	[8, 6, 3]	17	catFR1	6	R1468J
1084.897	4.018	1589389	PROB	4.018	n/a	n/a	n/a	-999	10	[5, 4, 1]	10	catFR1	6	R1468J
1088.915	4.533	1593407	PROB	4.533	n/a	n/a	n/a	-999	10	[8, 2, 8]	18	catFR1	6	R1468J
1093.448	3.866	1597940	PROB	3.866	n/a	n/a	n/a	-999	10	[4, 1, 5]	10	catFR1	6	R1468J
1097.314	0.0	1601805	STOP	n/a	n/a	n/a	n/a	-999	10	[-999, -999, -999]	n/a	catFR1	6	R1468J
1097.314	1.2	1601807	DISTRACT_END	n/a	n/a	n/a	n/a	-999	10	[0, 0, 0]	n/a	catFR1	6	R1468J
1098.514	0.9	1603009	REC_START	n/a	n/a	n/a	n/a	-999	10	[0, 0, 0]	n/a	catFR1	6	R1468J
1099.414	1.053	1603905	REC_WORD	1.053	n/a	BLUEBIRD	Birds	11	10	[0, 0, 0]	n/a	catFR1	6	R1468J
1100.467	2.453	1604958	REC_WORD_VV	2.453	n/a	<>	n/a	-999	10	[0, 0, 0]	n/a	catFR1	6	R1468J
1102.92	2.43	1607411	REC_WORD	2.43	n/a	SPARROW	Birds	2	10	[0, 0, 0]	n/a	catFR1	6	R1468J
1105.35	1.456	1609841	REC_WORD	1.456	n/a	HARK	n/a	-999	10	[0, 0, 0]	n/a	catFR1	6	R1468J
1106.806	5.043	1611297	REC_WORD	5.043	n/a	HAWK	Birds	1	10	[0, 0, 0]	n/a	catFR1	6	R1468J
1111.849	2.194	1616340	REC_WORD	2.194	n/a	SPARROW	Birds	2	10	[0, 0, 0]	n/a	catFR1	6	R1468J
1114.043	4.787	1618534	REC_WORD	4.787	n/a	MICROPHONE	n/a	-999	10	[0, 0, 0]	n/a	catFR1	6	R1468J
1118.83	2.944	1623321	REC_WORD	2.944	n/a	GRATER	KitchenTools	3	10	[0, 0, 0]	n/a	catFR1	6	R1468J
1121.774	7.937	1626264	REC_WORD	7.937	n/a	PEELER	KitchenTools	4	10	[0, 0, 0]	n/a	catFR1	6	R1468J
1129.711	2.603	1634202	REC_END	n/a	n/a	n/a	n/a	-999	10	[0, 0, 0]	n/a	catFR1	6	R1468J
1132.314	10.351	1636806	COUNTDOWN_START	n/a	n/a	n/a	n/a	-999	10	[0, 0, 0]	n/a	catFR1	6	R1468J
1142.665	0.0	1647153	COUNTDOWN_END	n/a	n/a	n/a	n/a	-999	10	[0, 0, 0]	n/a	catFR1	6	R1468J
1142.665	2.066	1647160	ENCODING_START	n/a	n/a	n/a	n/a	-999	11	[0, 0, 0]	n/a	catFR1	6	R1468J
1144.731	1.601	1649222	WORD	n/a	wordpools/wordpool_categorized_EN.txt	PEAS	Vegetables	1	11	[0, 0, 0]	n/a	catFR1	6	R1468J
1146.332	0.882	1650826	WORD_OFF	n/a	n/a	PEAS	Vegetables	1	11	[0, 0, 0]	n/a	catFR1	6	R1468J
1147.214	1.6	1651702	WORD	n/a	wordpools/wordpool_categorized_EN.txt	LETTUCE	Vegetables	2	11	[0, 0, 0]	n/a	catFR1	6	R1468J
1148.814	0.867	1653306	WORD_OFF	n/a	n/a	LETTUCE	Vegetables	2	11	[0, 0, 0]	n/a	catFR1	6	R1468J
1149.681	1.6	1654174	WORD	n/a	wordpools/wordpool_categorized_EN.txt	GOOSE	Birds	3	11	[0, 0, 0]	n/a	catFR1	6	R1468J
1151.281	0.851	1655771	WORD_OFF	n/a	n/a	GOOSE	Birds	3	11	[0, 0, 0]	n/a	catFR1	6	R1468J
1152.132	1.616	1656623	WORD	n/a	wordpools/wordpool_categorized_EN.txt	DOVE	Birds	4	11	[0, 0, 0]	n/a	catFR1	6	R1468J
1153.748	0.983	1658235	WORD_OFF	n/a	n/a	DOVE	Birds	4	11	[0, 0, 0]	n/a	catFR1	6	R1468J
1154.731	1.6	1659219	WORD	n/a	wordpools/wordpool_categorized_EN.txt	WHISK	KitchenTools	5	11	[0, 0, 0]	n/a	catFR1	6	R1468J
1156.331	0.766	1660824	WORD_OFF	n/a	n/a	WHISK	KitchenTools	5	11	[0, 0, 0]	n/a	catFR1	6	R1468J
1157.097	1.618	1661591	WORD	n/a	wordpools/wordpool_categorized_EN.txt	CORKSCREW	KitchenTools	6	11	[0, 0, 0]	n/a	catFR1	6	R1468J
1158.715	0.898	1663203	WORD_OFF	n/a	n/a	CORKSCREW	KitchenTools	6	11	[0, 0, 0]	n/a	catFR1	6	R1468J
1159.613	1.601	1664102	WORD	n/a	wordpools/wordpool_categorized_EN.txt	BROCCOLI	Vegetables	7	11	[0, 0, 0]	n/a	catFR1	6	R1468J
1161.214	0.801	1665706	WORD_OFF	n/a	n/a	BROCCOLI	Vegetables	7	11	[0, 0, 0]	n/a	catFR1	6	R1468J
1162.015	1.616	1666504	WORD	n/a	wordpools/wordpool_categorized_EN.txt	ONION	Vegetables	8	11	[0, 0, 0]	n/a	catFR1	6	R1468J
1163.631	0.95	1668124	WORD_OFF	n/a	n/a	ONION	Vegetables	8	11	[0, 0, 0]	n/a	catFR1	6	R1468J
1164.581	1.616	1669070	WORD	n/a	wordpools/wordpool_categorized_EN.txt	FORK	KitchenTools	9	11	[0, 0, 0]	n/a	catFR1	6	R1468J
1166.197	0.8	1670689	WORD_OFF	n/a	n/a	FORK	KitchenTools	9	11	[0, 0, 0]	n/a	catFR1	6	R1468J
1166.997	1.6	1671488	WORD	n/a	wordpools/wordpool_categorized_EN.txt	STRAINER	KitchenTools	10	11	[0, 0, 0]	n/a	catFR1	6	R1468J
1168.597	0.899	1673084	WORD_OFF	n/a	n/a	STRAINER	KitchenTools	10	11	[0, 0, 0]	n/a	catFR1	6	R1468J
1169.496	1.602	1673983	WORD	n/a	wordpools/wordpool_categorized_EN.txt	DUCK	Birds	11	11	[0, 0, 0]	n/a	catFR1	6	R1468J
1171.098	0.933	1675587	WORD_OFF	n/a	n/a	DUCK	Birds	11	11	[0, 0, 0]	n/a	catFR1	6	R1468J
1172.031	1.617	1676517	WORD	n/a	wordpools/wordpool_categorized_EN.txt	CROW	Birds	12	11	[0, 0, 0]	n/a	catFR1	6	R1468J
1173.648	0.0	1678136	PROB	0.0	n/a	n/a	n/a	-999	11	[5, 7, 8]	10	catFR1	6	R1468J
1173.647	0.003	1678137	WORD_OFF	n/a	n/a	CROW	Birds	12	11	[0, 0, 0]	n/a	catFR1	6	R1468J
1173.65	0.0	1678137	ENCODING_END	n/a	n/a	n/a	n/a	-999	11	[0, 0, 0]	n/a	catFR1	6	R1468J
1173.65	0.0	1678138	START	n/a	n/a	n/a	n/a	-999	11	[-999, -999, -999]	n/a	catFR1	6	R1468J
1173.65	5.632	1678145	DISTRACT_START	n/a	n/a	n/a	n/a	-999	11	[0, 0, 0]	n/a	catFR1	6	R1468J
1179.282	6.048	1683770	PROB	6.048	n/a	n/a	n/a	-999	11	[8, 4, 7]	19	catFR1	6	R1468J
1185.33	5.734	1689818	PROB	5.734	n/a	n/a	n/a	-999	11	[5, 6, 2]	13	catFR1	6	R1468J
1191.064	6.35	1695552	PROB	6.35	n/a	n/a	n/a	-999	11	[3, 8, 3]	14	catFR1	6	R1468J
1197.414	0.0	1701901	STOP	n/a	n/a	n/a	n/a	-999	11	[-999, -999, -999]	n/a	catFR1	6	R1468J
1197.414	1.234	1701906	DISTRACT_END	n/a	n/a	n/a	n/a	-999	11	[0, 0, 0]	n/a	catFR1	6	R1468J
1198.648	3.841	1703139	REC_START	n/a	n/a	n/a	n/a	-999	11	[0, 0, 0]	n/a	catFR1	6	R1468J
1202.489	1.255	1706976	REC_WORD	1.255	n/a	DOVE	Birds	4	11	[0, 0, 0]	n/a	catFR1	6	R1468J
1203.744	3.37	1708231	REC_WORD	3.37	n/a	SPARROW	Birds	-999	11	[0, 0, 0]	n/a	catFR1	6	R1468J
1207.114	9.91	1711601	REC_WORD	9.91	n/a	HAWK	Birds	-999	11	[0, 0, 0]	n/a	catFR1	6	R1468J
1217.024	1.181	1721510	REC_WORD	1.181	n/a	PEAS	Vegetables	1	11	[0, 0, 0]	n/a	catFR1	6	R1468J
1218.205	11.68	1722691	REC_WORD	11.68	n/a	CARROT	Vegetables	-999	11	[0, 0, 0]	n/a	catFR1	6	R1468J
1229.885	2.297	1734371	REC_END	n/a	n/a	n/a	n/a	-999	11	[0, 0, 0]	n/a	catFR1	6	R1468J
1232.182	10.35	1736681	COUNTDOWN_START	n/a	n/a	n/a	n/a	-999	11	[0, 0, 0]	n/a	catFR1	6	R1468J
1242.532	0.0	1747019	COUNTDOWN_END	n/a	n/a	n/a	n/a	-999	11	[0, 0, 0]	n/a	catFR1	6	R1468J
1242.532	2.25	1747019	ENCODING_START	n/a	n/a	n/a	n/a	-999	12	[0, 0, 0]	n/a	catFR1	6	R1468J
1244.782	1.6	1749267	WORD	n/a	wordpools/wordpool_categorized_EN.txt	SPATULA	KitchenTools	1	12	[0, 0, 0]	n/a	catFR1	6	R1468J
1246.382	0.883	1750871	WORD_OFF	n/a	n/a	SPATULA	KitchenTools	1	12	[0, 0, 0]	n/a	catFR1	6	R1468J
1247.265	1.615	1751754	WORD	n/a	wordpools/wordpool_categorized_EN.txt	KNIFE	KitchenTools	2	12	[0, 0, 0]	n/a	catFR1	6	R1468J
1248.88	0.951	1753366	WORD_OFF	n/a	n/a	KNIFE	KitchenTools	2	12	[0, 0, 0]	n/a	catFR1	6	R1468J
1249.831	1.617	1754320	WORD	n/a	wordpools/wordpool_categorized_EN.txt	BIRCH	Trees	3	12	[0, 0, 0]	n/a	catFR1	6	R1468J
1251.448	0.983	1755932	WORD_OFF	n/a	n/a	BIRCH	Trees	3	12	[0, 0, 0]	n/a	catFR1	6	R1468J
1252.431	1.6	1756916	WORD	n/a	wordpools/wordpool_categorized_EN.txt	PINE	Trees	4	12	[0, 0, 0]	n/a	catFR1	6	R1468J
1254.031	0.883	1758520	WORD_OFF	n/a	n/a	PINE	Trees	4	12	[0, 0, 0]	n/a	catFR1	6	R1468J
1254.914	1.601	1759404	WORD	n/a	wordpools/wordpool_categorized_EN.txt	JEANS	Clothing	5	12	[0, 0, 0]	n/a	catFR1	6	R1468J
1256.515	0.833	1761000	WORD_OFF	n/a	n/a	JEANS	Clothing	5	12	[0, 0, 0]	n/a	catFR1	6	R1468J
1257.348	1.616	1761837	WORD	n/a	wordpools/wordpool_categorized_EN.txt	DRESS	Clothing	6	12	[0, 0, 0]	n/a	catFR1	6	R1468J
1258.964	0.85	1763449	WORD_OFF	n/a	n/a	DRESS	Clothing	6	12	[0, 0, 0]	n/a	catFR1	6	R1468J
1259.814	1.6	1764302	WORD	n/a	wordpools/wordpool_categorized_EN.txt	CEDAR	Trees	7	12	[0, 0, 0]	n/a	catFR1	6	R1468J
1261.414	0.951	1765898	WORD_OFF	n/a	n/a	CEDAR	Trees	7	12	[0, 0, 0]	n/a	catFR1	6	R1468J
1262.365	1.616	1766851	WORD	n/a	wordpools/wordpool_categorized_EN.txt	WILLOW	Trees	8	12	[0, 0, 0]	n/a	catFR1	6	R1468J
1263.981	0.967	1768463	WORD_OFF	n/a	n/a	WILLOW	Trees	8	12	[0, 0, 0]	n/a	catFR1	6	R1468J
1264.948	1.599	1769432	WORD	n/a	wordpools/wordpool_categorized_EN.txt	LADLE	KitchenTools	9	12	[0, 0, 0]	n/a	catFR1	6	R1468J
1266.547	0.967	1771036	WORD_OFF	n/a	n/a	LADLE	KitchenTools	9	12	[0, 0, 0]	n/a	catFR1	6	R1468J
1267.514	1.618	1771997	WORD	n/a	wordpools/wordpool_categorized_EN.txt	TONGS	KitchenTools	10	12	[0, 0, 0]	n/a	catFR1	6	R1468J
1269.132	0.932	1773617	WORD_OFF	n/a	n/a	TONGS	KitchenTools	10	12	[0, 0, 0]	n/a	catFR1	6	R1468J
1270.064	1.6	1774547	WORD	n/a	wordpools/wordpool_categorized_EN.txt	SKIRT	Clothing	11	12	[0, 0, 0]	n/a	catFR1	6	R1468J
1271.664	1.0	1776151	WORD_OFF	n/a	n/a	SKIRT	Clothing	11	12	[0, 0, 0]	n/a	catFR1	6	R1468J
1272.664	1.601	1777151	WORD	n/a	wordpools/wordpool_categorized_EN.txt	SOCKS	Clothing	12	12	[0, 0, 0]	n/a	catFR1	6	R1468J
1274.265	0.0	1778748	WORD_OFF	n/a	n/a	SOCKS	Clothing	12	12	[0, 0, 0]	n/a	catFR1	6	R1468J
1274.265	0.003	1778749	PROB	0.003	n/a	n/a	n/a	-999	12	[3, 8, 2]	13	catFR1	6	R1468J
1274.268	0.0	1778752	START	n/a	n/a	n/a	n/a	-999	12	[-999, -999, -999]	n/a	catFR1	6	R1468J
1274.268	0.0	1778755	ENCODING_END	n/a	n/a	n/a	n/a	-999	12	[0, 0, 0]	n/a	catFR1	6	R1468J
1274.268	4.596	1778755	DISTRACT_START	n/a	n/a	n/a	n/a	-999	12	[0, 0, 0]	n/a	catFR1	6	R1468J
1278.864	3.485	1783348	PROB	3.485	n/a	n/a	n/a	-999	12	[4, 1, 3]	8	catFR1	6	R1468J
1282.349	6.715	1786833	PROB	6.715	n/a	n/a	n/a	-999	12	[5, 7, 4]	16	catFR1	6	R1468J
1289.064	5.417	1793547	PROB	5.417	n/a	n/a	n/a	-999	12	[4, 6, 7]	17	catFR1	6	R1468J
1294.481	0.0	1798964	STOP	n/a	n/a	n/a	n/a	-999	12	[-999, -999, -999]	n/a	catFR1	6	R1468J
1294.481	1.149	1798967	DISTRACT_END	n/a	n/a	n/a	n/a	-999	12	[0, 0, 0]	n/a	catFR1	6	R1468J
1295.63	1.008	1800114	REC_START	n/a	n/a	n/a	n/a	-999	12	[0, 0, 0]	n/a	catFR1	6	R1468J
1296.638	2.121	1801121	REC_WORD	2.121	n/a	SKIRT	Clothing	11	12	[0, 0, 0]	n/a	catFR1	6	R1468J
1298.759	1.904	1803242	REC_WORD	1.904	n/a	TONGS	KitchenTools	10	12	[0, 0, 0]	n/a	catFR1	6	R1468J
1300.663	2.201	1805146	REC_WORD	2.201	n/a	LADLE	KitchenTools	9	12	[0, 0, 0]	n/a	catFR1	6	R1468J
1302.864	6.066	1807347	REC_WORD	6.066	n/a	SOCKS	Clothing	12	12	[0, 0, 0]	n/a	catFR1	6	R1468J
1308.93	5.928	1813413	REC_WORD	5.928	n/a	SHIRT	Clothing	-999	12	[0, 0, 0]	n/a	catFR1	6	R1468J
1314.858	12.013	1819340	REC_WORD	12.013	n/a	JEANS	Clothing	5	12	[0, 0, 0]	n/a	catFR1	6	R1468J
1326.871	0.0	1831355	REC_END	n/a	n/a	n/a	n/a	-999	12	[0, 0, 0]	n/a	catFR1	6	R1468J
