onset	duration	sample	trial_type	response_time	stim_file	item_name	category	serialpos	list	test	answer	experiment	session	subject
0.0	0.009	139204	SESS_START	n/a	n/a	n/a	n/a	-999	0	[0, 0, 0]	n/a	catFR1	1	R1678T
0.009	30.987	139213	TRIAL	n/a	n/a	n/a	n/a	-999	-1	[0, 0, 0]	n/a	catFR1	1	R1678T
30.996	10.368	170200	COUNTDOWN	n/a	n/a	n/a	n/a	-999	-1	[0, 0, 0]	n/a	catFR1	1	R1678T
41.364	2.317	180568	ENCODING_START	n/a	n/a	n/a	n/a	-999	-1	[0, 0, 0]	n/a	catFR1	1	R1678T
43.681	2.415	182885	WORD	n/a	n/a	BROCCOLI	Vegetables	1	-1	[0, 0, 0]	n/a	catFR1	1	R1678T
46.096	2.5	185300	WORD	n/a	n/a	CARROT	Vegetables	2	-1	[0, 0, 0]	n/a	catFR1	1	R1678T
48.596	2.584	187800	WORD	n/a	n/a	TRUCK	Vehicles	3	-1	[0, 0, 0]	n/a	catFR1	1	R1678T
51.18	2.415	190384	WORD	n/a	n/a	MOTORCYCLE	Vehicles	4	-1	[0, 0, 0]	n/a	catFR1	1	R1678T
53.595	2.567	192799	WORD	n/a	n/a	DOLLHOUSE	Toys	5	-1	[0, 0, 0]	n/a	catFR1	1	R1678T
56.162	2.55	195366	WORD	n/a	n/a	BLOCKS	Toys	6	-1	[0, 0, 0]	n/a	catFR1	1	R1678T
58.712	2.567	197916	WORD	n/a	n/a	PEAS	Vegetables	7	-1	[0, 0, 0]	n/a	catFR1	1	R1678T
61.279	2.517	200483	WORD	n/a	n/a	CAULIFLOWER	Vegetables	8	-1	[0, 0, 0]	n/a	catFR1	1	R1678T
63.796	2.516	203000	WORD	n/a	n/a	FRISBEE	Toys	9	-1	[0, 0, 0]	n/a	catFR1	1	R1678T
66.312	2.534	205516	WORD	n/a	n/a	BARBIE	Toys	10	-1	[0, 0, 0]	n/a	catFR1	1	R1678T
68.846	2.499	208050	WORD	n/a	n/a	VAN	Vehicles	11	-1	[0, 0, 0]	n/a	catFR1	1	R1678T
71.345	1.616	210549	WORD	n/a	n/a	SCOOTER	Vehicles	12	-1	[0, 0, 0]	n/a	catFR1	1	R1678T
72.961	0.0	212165	DISTRACT_START	n/a	n/a	n/a	n/a	-999	0	[0, 0, 0]	n/a	catFR1	1	R1678T
72.961	8.65	212165	PROB	8.634	n/a	n/a	n/a	-999	0	[8, 1, 8]	17.0	catFR1	1	R1678T
81.611	5.567	220815	PROB	5.549	n/a	n/a	n/a	-999	0	[1, 8, 5]	14.0	catFR1	1	R1678T
87.178	10.598	226382	PROB	8.2	n/a	n/a	n/a	-999	0	[8, 1, 5]	14.0	catFR1	1	R1678T
97.776	1.005	236980	REC_START	n/a	n/a	n/a	n/a	-999	-1	[0, 0, 0]	n/a	catFR1	1	R1678T
98.781	0.611	237985	REC_WORD	1.005	n/a	BROCCOLI	Vegetables	1	-1	[0, 0, 0]	n/a	catFR1	1	R1678T
99.392	0.831	238596	REC_WORD	1.616	n/a	CARROT	Vegetables	2	-1	[0, 0, 0]	n/a	catFR1	1	R1678T
100.223	1.766	239427	REC_WORD	2.447	n/a	TRUCK	Vehicles	3	-1	[0, 0, 0]	n/a	catFR1	1	R1678T
101.989	6.196	241193	REC_WORD_VV	4.213	n/a	<>	n/a	-999	-1	[0, 0, 0]	n/a	catFR1	1	R1678T
108.185	0.606	247389	REC_WORD_VV	10.409	n/a	<>	n/a	-999	-1	[0, 0, 0]	n/a	catFR1	1	R1678T
108.791	2.784	247995	REC_WORD	11.015	n/a	VAN	Vehicles	11	-1	[0, 0, 0]	n/a	catFR1	1	R1678T
111.575	2.418	250779	REC_WORD	13.799	n/a	BARBIE	Toys	10	-1	[0, 0, 0]	n/a	catFR1	1	R1678T
113.993	3.296	253197	REC_WORD	16.217	n/a	PEAS	Vegetables	7	-1	[0, 0, 0]	n/a	catFR1	1	R1678T
117.289	5.179	256493	REC_WORD	19.513	n/a	MOTORCYCLE	Vehicles	4	-1	[0, 0, 0]	n/a	catFR1	1	R1678T
122.468	1.0	261672	REC_WORD_VV	24.692	n/a	<>	n/a	-999	-1	[0, 0, 0]	n/a	catFR1	1	R1678T
123.468	4.459	262672	REC_WORD_VV	25.692	n/a	<>	n/a	-999	-1	[0, 0, 0]	n/a	catFR1	1	R1678T
127.927	38.73	267131	TRIAL	n/a	n/a	n/a	n/a	-999	1	[0, 0, 0]	n/a	catFR1	1	R1678T
166.657	10.351	305861	COUNTDOWN	n/a	n/a	n/a	n/a	-999	1	[0, 0, 0]	n/a	catFR1	1	R1678T
177.008	1.981	316212	ENCODING_START	n/a	n/a	n/a	n/a	-999	1	[0, 0, 0]	n/a	catFR1	1	R1678T
178.989	2.45	318193	WORD	n/a	wordpools/wordpool_categorized_EN.txt	NIGHTSTAND	Furniture	1	1	[0, 0, 0]	n/a	catFR1	1	R1678T
181.439	2.584	320643	WORD	n/a	wordpools/wordpool_categorized_EN.txt	BOOKCASE	Furniture	2	1	[0, 0, 0]	n/a	catFR1	1	R1678T
184.023	2.516	323227	WORD	n/a	wordpools/wordpool_categorized_EN.txt	BLUEBIRD	Birds	3	1	[0, 0, 0]	n/a	catFR1	1	R1678T
186.539	2.433	325743	WORD	n/a	wordpools/wordpool_categorized_EN.txt	SPARROW	Birds	4	1	[0, 0, 0]	n/a	catFR1	1	R1678T
188.972	2.485	328176	WORD	n/a	wordpools/wordpool_categorized_EN.txt	OVEN	Appliances	5	1	[0, 0, 0]	n/a	catFR1	1	R1678T
191.457	2.466	330661	WORD	n/a	wordpools/wordpool_categorized_EN.txt	TOASTER	Appliances	6	1	[0, 0, 0]	n/a	catFR1	1	R1678T
193.923	2.515	333127	WORD	n/a	wordpools/wordpool_categorized_EN.txt	SHELF	Furniture	7	1	[0, 0, 0]	n/a	catFR1	1	R1678T
196.438	2.418	335642	WORD	n/a	wordpools/wordpool_categorized_EN.txt	DRESSER	Furniture	8	1	[0, 0, 0]	n/a	catFR1	1	R1678T
198.856	2.383	338060	WORD	n/a	wordpools/wordpool_categorized_EN.txt	VACUUM	Appliances	9	1	[0, 0, 0]	n/a	catFR1	1	R1678T
201.239	2.6	340443	WORD	n/a	wordpools/wordpool_categorized_EN.txt	WASHER	Appliances	10	1	[0, 0, 0]	n/a	catFR1	1	R1678T
203.839	2.45	343043	WORD	n/a	wordpools/wordpool_categorized_EN.txt	SEAGULL	Birds	11	1	[0, 0, 0]	n/a	catFR1	1	R1678T
206.289	1.616	345493	WORD	n/a	wordpools/wordpool_categorized_EN.txt	ROBIN	Birds	12	1	[0, 0, 0]	n/a	catFR1	1	R1678T
207.905	0.0	347109	DISTRACT_START	n/a	n/a	n/a	n/a	-999	1	[0, 0, 0]	n/a	catFR1	1	R1678T
207.905	4.451	347109	PROB	4.433	n/a	n/a	n/a	-999	1	[3, 6, 3]	12.0	catFR1	1	R1678T
212.356	8.132	351560	PROB	8.116	n/a	n/a	n/a	-999	1	[8, 7, 5]	20.0	catFR1	1	R1678T
220.488	13.24	359692	PROB	11.133	n/a	n/a	n/a	-999	1	[3, 5, 3]	11.0	catFR1	1	R1678T
233.728	3.017	372932	REC_START	n/a	n/a	n/a	n/a	-999	1	[0, 0, 0]	n/a	catFR1	1	R1678T
236.745	1.0	375949	REC_WORD_VV	3.017	n/a	<>	n/a	-999	1	[0, 0, 0]	n/a	catFR1	1	R1678T
237.745	1.0	376949	REC_WORD_VV	4.017	n/a	<>	n/a	-999	1	[0, 0, 0]	n/a	catFR1	1	R1678T
238.745	6.491	377949	REC_WORD_VV	5.017	n/a	<>	n/a	-999	1	[0, 0, 0]	n/a	catFR1	1	R1678T
245.236	5.901	384440	REC_WORD_VV	11.508	n/a	<>	n/a	-999	1	[0, 0, 0]	n/a	catFR1	1	R1678T
251.137	2.16	390341	REC_WORD	17.409	n/a	MOTORCYCLE	Vehicles	-999	1	[0, 0, 0]	n/a	catFR1	1	R1678T
253.297	0.907	392501	REC_WORD	19.569	n/a	BLUEBIRD	Birds	3	1	[0, 0, 0]	n/a	catFR1	1	R1678T
254.204	3.248	393408	REC_WORD	20.476	n/a	SPARROW	Birds	4	1	[0, 0, 0]	n/a	catFR1	1	R1678T
257.452	4.496	396656	REC_WORD_VV	23.724	n/a	<>	n/a	-999	1	[0, 0, 0]	n/a	catFR1	1	R1678T
261.948	1.941	401152	REC_WORD_VV	28.22	n/a	<>	n/a	-999	1	[0, 0, 0]	n/a	catFR1	1	R1678T
263.889	14.263	403093	TRIAL	n/a	n/a	n/a	n/a	-999	2	[0, 0, 0]	n/a	catFR1	1	R1678T
278.152	10.35	417356	COUNTDOWN	n/a	n/a	n/a	n/a	-999	2	[0, 0, 0]	n/a	catFR1	1	R1678T
288.502	2.099	427706	ENCODING_START	n/a	n/a	n/a	n/a	-999	2	[0, 0, 0]	n/a	catFR1	1	R1678T
290.601	2.534	429805	WORD	n/a	wordpools/wordpool_categorized_EN.txt	BIRCH	Trees	1	2	[0, 0, 0]	n/a	catFR1	1	R1678T
293.135	2.533	432339	WORD	n/a	wordpools/wordpool_categorized_EN.txt	HICKORY	Trees	2	2	[0, 0, 0]	n/a	catFR1	1	R1678T
295.668	2.583	434872	WORD	n/a	wordpools/wordpool_categorized_EN.txt	BUS	Vehicles	3	2	[0, 0, 0]	n/a	catFR1	1	R1678T
298.251	2.5	437455	WORD	n/a	wordpools/wordpool_categorized_EN.txt	PLANE	Vehicles	4	2	[0, 0, 0]	n/a	catFR1	1	R1678T
300.751	2.583	439955	WORD	n/a	wordpools/wordpool_categorized_EN.txt	STRAWBERRY	Fruit	5	2	[0, 0, 0]	n/a	catFR1	1	R1678T
303.334	2.583	442538	WORD	n/a	wordpools/wordpool_categorized_EN.txt	PEAR	Fruit	6	2	[0, 0, 0]	n/a	catFR1	1	R1678T
305.917	2.551	445121	WORD	n/a	wordpools/wordpool_categorized_EN.txt	JEEP	Vehicles	7	2	[0, 0, 0]	n/a	catFR1	1	R1678T
308.468	2.45	447672	WORD	n/a	wordpools/wordpool_categorized_EN.txt	BOAT	Vehicles	8	2	[0, 0, 0]	n/a	catFR1	1	R1678T
310.918	2.583	450122	WORD	n/a	wordpools/wordpool_categorized_EN.txt	LIME	Fruit	9	2	[0, 0, 0]	n/a	catFR1	1	R1678T
313.501	2.399	452705	WORD	n/a	wordpools/wordpool_categorized_EN.txt	GRAPE	Fruit	10	2	[0, 0, 0]	n/a	catFR1	1	R1678T
315.9	2.4	455104	WORD	n/a	wordpools/wordpool_categorized_EN.txt	WALNUT	Trees	11	2	[0, 0, 0]	n/a	catFR1	1	R1678T
318.3	1.618	457504	WORD	n/a	wordpools/wordpool_categorized_EN.txt	CEDAR	Trees	12	2	[0, 0, 0]	n/a	catFR1	1	R1678T
319.918	0.0	459122	DISTRACT_START	n/a	n/a	n/a	n/a	-999	2	[0, 0, 0]	n/a	catFR1	1	R1678T
319.918	6.265	459122	PROB	6.249	n/a	n/a	n/a	-999	2	[5, 6, 6]	17.0	catFR1	1	R1678T
326.183	5.501	465387	PROB	5.483	n/a	n/a	n/a	-999	2	[3, 8, 2]	13.0	catFR1	1	R1678T
331.684	4.282	470888	PROB	4.266	n/a	n/a	n/a	-999	2	[3, 1, 8]	12.0	catFR1	1	R1678T
335.966	10.057	475170	PROB	7.649	n/a	n/a	n/a	-999	2	[3, 6, 6]	15.0	catFR1	1	R1678T
346.023	0.516	485227	REC_START	n/a	n/a	n/a	n/a	-999	2	[0, 0, 0]	n/a	catFR1	1	R1678T
346.539	1.518	485743	REC_WORD	0.516	n/a	HICKORY	Trees	2	2	[0, 0, 0]	n/a	catFR1	1	R1678T
348.057	1.381	487261	REC_WORD	2.034	n/a	BIRCH	Trees	1	2	[0, 0, 0]	n/a	catFR1	1	R1678T
349.438	1.0	488642	REC_WORD	3.415	n/a	STRAWBERRY	Fruit	5	2	[0, 0, 0]	n/a	catFR1	1	R1678T
350.438	5.285	489642	REC_WORD_VV	4.415	n/a	<>	n/a	-999	2	[0, 0, 0]	n/a	catFR1	1	R1678T
355.723	0.249	494927	REC_WORD_VV	9.7	n/a	<>	n/a	-999	2	[0, 0, 0]	n/a	catFR1	1	R1678T
355.972	2.607	495176	REC_WORD	9.949	n/a	CEDAR	Trees	12	2	[0, 0, 0]	n/a	catFR1	1	R1678T
358.579	9.421	497783	REC_WORD	12.556	n/a	BUS	Vehicles	3	2	[0, 0, 0]	n/a	catFR1	1	R1678T
368.0	8.178	507204	REC_WORD_VV	21.977	n/a	<>	n/a	-999	2	[0, 0, 0]	n/a	catFR1	1	R1678T
376.178	6.902	515382	TRIAL	n/a	n/a	n/a	n/a	-999	3	[0, 0, 0]	n/a	catFR1	1	R1678T
383.08	10.367	522284	COUNTDOWN	n/a	n/a	n/a	n/a	-999	3	[0, 0, 0]	n/a	catFR1	1	R1678T
393.447	1.9	532651	ENCODING_START	n/a	n/a	n/a	n/a	-999	3	[0, 0, 0]	n/a	catFR1	1	R1678T
395.347	2.516	534551	WORD	n/a	wordpools/wordpool_categorized_EN.txt	BASKETBALL	Toys	1	3	[0, 0, 0]	n/a	catFR1	1	R1678T
397.863	2.449	537067	WORD	n/a	wordpools/wordpool_categorized_EN.txt	PUZZLE	Toys	2	3	[0, 0, 0]	n/a	catFR1	1	R1678T
400.312	2.518	539516	WORD	n/a	wordpools/wordpool_categorized_EN.txt	ANT	Insects	3	3	[0, 0, 0]	n/a	catFR1	1	R1678T
402.83	2.531	542034	WORD	n/a	wordpools/wordpool_categorized_EN.txt	CRICKET	Insects	4	3	[0, 0, 0]	n/a	catFR1	1	R1678T
405.361	2.519	544565	WORD	n/a	wordpools/wordpool_categorized_EN.txt	LIGHTNING	Weather	5	3	[0, 0, 0]	n/a	catFR1	1	R1678T
407.88	2.516	547084	WORD	n/a	wordpools/wordpool_categorized_EN.txt	FOG	Weather	6	3	[0, 0, 0]	n/a	catFR1	1	R1678T
410.396	2.484	549600	WORD	n/a	wordpools/wordpool_categorized_EN.txt	BUTTERFLY	Insects	7	3	[0, 0, 0]	n/a	catFR1	1	R1678T
412.88	2.567	552084	WORD	n/a	wordpools/wordpool_categorized_EN.txt	SPIDER	Insects	8	3	[0, 0, 0]	n/a	catFR1	1	R1678T
415.447	2.382	554651	WORD	n/a	wordpools/wordpool_categorized_EN.txt	BALL	Toys	9	3	[0, 0, 0]	n/a	catFR1	1	R1678T
417.829	2.433	557033	WORD	n/a	wordpools/wordpool_categorized_EN.txt	FOOTBALL	Toys	10	3	[0, 0, 0]	n/a	catFR1	1	R1678T
420.262	2.549	559466	WORD	n/a	wordpools/wordpool_categorized_EN.txt	SNOW	Weather	11	3	[0, 0, 0]	n/a	catFR1	1	R1678T
422.811	1.601	562015	WORD	n/a	wordpools/wordpool_categorized_EN.txt	CLOUD	Weather	12	3	[0, 0, 0]	n/a	catFR1	1	R1678T
424.412	0.001	563616	PROB	6.183	n/a	n/a	n/a	-999	3	[6, 7, 5]	18.0	catFR1	1	R1678T
424.413	6.199	563617	DISTRACT_START	n/a	n/a	n/a	n/a	-999	3	[0, 0, 0]	n/a	catFR1	1	R1678T
430.612	3.317	569816	PROB	3.299	n/a	n/a	n/a	-999	3	[3, 1, 1]	5.0	catFR1	1	R1678T
433.929	13.881	573133	PROB	11.749	n/a	n/a	n/a	-999	3	[2, 5, 7]	14.0	catFR1	1	R1678T
447.81	2.204	587014	REC_START	n/a	n/a	n/a	n/a	-999	3	[0, 0, 0]	n/a	catFR1	1	R1678T
450.014	1.0	589218	REC_WORD	2.204	n/a	BASKETBALL	Toys	1	3	[0, 0, 0]	n/a	catFR1	1	R1678T
451.014	1.0	590218	REC_WORD_VV	3.204	n/a	<>	n/a	-999	3	[0, 0, 0]	n/a	catFR1	1	R1678T
452.014	1.0	591218	REC_WORD_VV	4.204	n/a	<>	n/a	-999	3	[0, 0, 0]	n/a	catFR1	1	R1678T
453.014	17.142	592218	REC_WORD_VV	5.204	n/a	<>	n/a	-999	3	[0, 0, 0]	n/a	catFR1	1	R1678T
470.156	7.798	609360	REC_WORD_VV	22.346	n/a	<>	n/a	-999	3	[0, 0, 0]	n/a	catFR1	1	R1678T
477.954	14.056	617158	TRIAL	n/a	n/a	n/a	n/a	-999	4	[0, 0, 0]	n/a	catFR1	1	R1678T
492.01	10.35	631214	COUNTDOWN	n/a	n/a	n/a	n/a	-999	4	[0, 0, 0]	n/a	catFR1	1	R1678T
502.36	1.982	641564	ENCODING_START	n/a	n/a	n/a	n/a	-999	4	[0, 0, 0]	n/a	catFR1	1	R1678T
504.342	2.499	643546	WORD	n/a	wordpools/wordpool_categorized_EN.txt	ZEBRA	Zoo	1	4	[0, 0, 0]	n/a	catFR1	1	R1678T
506.841	2.366	646045	WORD	n/a	wordpools/wordpool_categorized_EN.txt	CHEETAH	Zoo	2	4	[0, 0, 0]	n/a	catFR1	1	R1678T
509.207	2.369	648411	WORD	n/a	wordpools/wordpool_categorized_EN.txt	LADLE	KitchenTools	3	4	[0, 0, 0]	n/a	catFR1	1	R1678T
511.576	2.615	650780	WORD	n/a	wordpools/wordpool_categorized_EN.txt	CORKSCREW	KitchenTools	4	4	[0, 0, 0]	n/a	catFR1	1	R1678T
514.191	2.367	653395	WORD	n/a	wordpools/wordpool_categorized_EN.txt	CEILING	Building	5	4	[0, 0, 0]	n/a	catFR1	1	R1678T
516.558	2.417	655762	WORD	n/a	wordpools/wordpool_categorized_EN.txt	WINDOW	Building	6	4	[0, 0, 0]	n/a	catFR1	1	R1678T
518.975	2.433	658179	WORD	n/a	wordpools/wordpool_categorized_EN.txt	FORK	KitchenTools	7	4	[0, 0, 0]	n/a	catFR1	1	R1678T
521.408	2.583	660612	WORD	n/a	wordpools/wordpool_categorized_EN.txt	SPOON	KitchenTools	8	4	[0, 0, 0]	n/a	catFR1	1	R1678T
523.991	2.499	663195	WORD	n/a	wordpools/wordpool_categorized_EN.txt	ROOF	Building	9	4	[0, 0, 0]	n/a	catFR1	1	R1678T
526.49	2.468	665694	WORD	n/a	wordpools/wordpool_categorized_EN.txt	ROOM	Building	10	4	[0, 0, 0]	n/a	catFR1	1	R1678T
528.958	2.416	668162	WORD	n/a	wordpools/wordpool_categorized_EN.txt	BEAR	Zoo	11	4	[0, 0, 0]	n/a	catFR1	1	R1678T
531.374	1.617	670578	WORD	n/a	wordpools/wordpool_categorized_EN.txt	TIGER	Zoo	12	4	[0, 0, 0]	n/a	catFR1	1	R1678T
532.991	0.001	672195	DISTRACT_START	n/a	n/a	n/a	n/a	-999	4	[0, 0, 0]	n/a	catFR1	1	R1678T
532.992	5.316	672196	PROB	5.299	n/a	n/a	n/a	-999	4	[6, 5, 6]	17.0	catFR1	1	R1678T
538.308	4.215	677512	PROB	4.198	n/a	n/a	n/a	-999	4	[1, 3, 1]	5.0	catFR1	1	R1678T
542.523	5.118	681727	PROB	5.1	n/a	n/a	n/a	-999	4	[4, 3, 8]	15.0	catFR1	1	R1678T
547.641	9.052	686845	PROB	6.848	n/a	n/a	n/a	-999	4	[6, 5, 4]	15.0	catFR1	1	R1678T
556.693	0.701	695897	REC_START	n/a	n/a	n/a	n/a	-999	4	[0, 0, 0]	n/a	catFR1	1	R1678T
557.394	2.125	696598	REC_WORD	0.701	n/a	ZEBRA	Zoo	1	4	[0, 0, 0]	n/a	catFR1	1	R1678T
559.519	1.592	698723	REC_WORD	2.826	n/a	CHEETAH	Zoo	2	4	[0, 0, 0]	n/a	catFR1	1	R1678T
561.111	1.916	700315	REC_WORD	4.418	n/a	LADLE	KitchenTools	3	4	[0, 0, 0]	n/a	catFR1	1	R1678T
563.027	2.443	702231	REC_WORD_VV	6.334	n/a	<>	n/a	-999	4	[0, 0, 0]	n/a	catFR1	1	R1678T
565.47	3.352	704674	REC_WORD	8.777	n/a	CORKSCREW	KitchenTools	4	4	[0, 0, 0]	n/a	catFR1	1	R1678T
568.822	18.012	708026	REC_WORD	12.129	n/a	CORKSCREW	KitchenTools	4	4	[0, 0, 0]	n/a	catFR1	1	R1678T
586.834	6.021	726038	TRIAL	n/a	n/a	n/a	n/a	-999	5	[0, 0, 0]	n/a	catFR1	1	R1678T
592.855	10.35	732059	COUNTDOWN	n/a	n/a	n/a	n/a	-999	5	[0, 0, 0]	n/a	catFR1	1	R1678T
603.205	1.849	742409	ENCODING_START	n/a	n/a	n/a	n/a	-999	5	[0, 0, 0]	n/a	catFR1	1	R1678T
605.054	2.417	744258	WORD	n/a	wordpools/wordpool_categorized_EN.txt	FLY	Insects	1	5	[0, 0, 0]	n/a	catFR1	1	R1678T
607.471	2.517	746675	WORD	n/a	wordpools/wordpool_categorized_EN.txt	MOSQUITO	Insects	2	5	[0, 0, 0]	n/a	catFR1	1	R1678T
609.988	2.4	749192	WORD	n/a	wordpools/wordpool_categorized_EN.txt	STAIRS	Building	3	5	[0, 0, 0]	n/a	catFR1	1	R1678T
612.388	2.432	751592	WORD	n/a	wordpools/wordpool_categorized_EN.txt	ATTIC	Building	4	5	[0, 0, 0]	n/a	catFR1	1	R1678T
614.82	2.517	754024	WORD	n/a	wordpools/wordpool_categorized_EN.txt	SAW	Tools	5	5	[0, 0, 0]	n/a	catFR1	1	R1678T
617.337	2.416	756541	WORD	n/a	wordpools/wordpool_categorized_EN.txt	AXE	Tools	6	5	[0, 0, 0]	n/a	catFR1	1	R1678T
619.753	2.501	758957	WORD	n/a	wordpools/wordpool_categorized_EN.txt	BEE	Insects	7	5	[0, 0, 0]	n/a	catFR1	1	R1678T
622.254	2.483	761458	WORD	n/a	wordpools/wordpool_categorized_EN.txt	MOTH	Insects	8	5	[0, 0, 0]	n/a	catFR1	1	R1678T
624.737	2.433	763941	WORD	n/a	wordpools/wordpool_categorized_EN.txt	DRILL	Tools	9	5	[0, 0, 0]	n/a	catFR1	1	R1678T
627.17	2.599	766374	WORD	n/a	wordpools/wordpool_categorized_EN.txt	WRENCH	Tools	10	5	[0, 0, 0]	n/a	catFR1	1	R1678T
629.769	2.367	768973	WORD	n/a	wordpools/wordpool_categorized_EN.txt	FOUNDATION	Building	11	5	[0, 0, 0]	n/a	catFR1	1	R1678T
632.136	1.616	771340	WORD	n/a	wordpools/wordpool_categorized_EN.txt	FLOOR	Building	12	5	[0, 0, 0]	n/a	catFR1	1	R1678T
633.752	0.001	772956	DISTRACT_START	n/a	n/a	n/a	n/a	-999	5	[0, 0, 0]	n/a	catFR1	1	R1678T
633.753	3.851	772957	PROB	3.834	n/a	n/a	n/a	-999	5	[1, 8, 2]	11.0	catFR1	1	R1678T
637.604	7.032	776808	PROB	7.015	n/a	n/a	n/a	-999	5	[4, 8, 3]	15.0	catFR1	1	R1678T
644.636	7.467	783840	PROB	7.448	n/a	n/a	n/a	-999	5	[2, 4, 2]	8.0	catFR1	1	R1678T
652.103	8.578	791307	PROB	6.298	n/a	n/a	n/a	-999	5	[4, 1, 6]	11.0	catFR1	1	R1678T
660.681	1.068	799885	REC_START	n/a	n/a	n/a	n/a	-999	5	[0, 0, 0]	n/a	catFR1	1	R1678T
661.749	0.889	800953	REC_WORD	1.068	n/a	FLY	Insects	1	5	[0, 0, 0]	n/a	catFR1	1	R1678T
662.638	1.866	801842	REC_WORD	1.957	n/a	MOSQUITO	Insects	2	5	[0, 0, 0]	n/a	catFR1	1	R1678T
664.504	5.767	803708	REC_WORD_VV	3.823	n/a	<>	n/a	-999	5	[0, 0, 0]	n/a	catFR1	1	R1678T
670.271	3.492	809475	REC_WORD_VV	9.59	n/a	<>	n/a	-999	5	[0, 0, 0]	n/a	catFR1	1	R1678T
673.763	1.13	812967	REC_WORD	13.082	n/a	WRENCH	Tools	10	5	[0, 0, 0]	n/a	catFR1	1	R1678T
674.893	4.65	814097	REC_WORD	14.212	n/a	AXE	Tools	6	5	[0, 0, 0]	n/a	catFR1	1	R1678T
679.543	4.84	818747	REC_WORD_VV	18.862	n/a	<>	n/a	-999	5	[0, 0, 0]	n/a	catFR1	1	R1678T
684.383	1.0	823587	REC_WORD	23.702	n/a	SPOON	KitchenTools	-999	5	[0, 0, 0]	n/a	catFR1	1	R1678T
685.383	1.0	824587	REC_WORD_VV	24.702	n/a	<>	n/a	-999	5	[0, 0, 0]	n/a	catFR1	1	R1678T
686.383	2.755	825587	REC_WORD_VV	25.702	n/a	<>	n/a	-999	5	[0, 0, 0]	n/a	catFR1	1	R1678T
689.138	1.375	828342	REC_WORD_VV	28.457	n/a	<>	n/a	-999	5	[0, 0, 0]	n/a	catFR1	1	R1678T
690.513	0.321	829717	REC_WORD_VV	29.832	n/a	<>	n/a	-999	5	[0, 0, 0]	n/a	catFR1	1	R1678T
690.834	6.198	830038	TRIAL	n/a	n/a	n/a	n/a	-999	6	[0, 0, 0]	n/a	catFR1	1	R1678T
697.032	10.351	836236	COUNTDOWN	n/a	n/a	n/a	n/a	-999	6	[0, 0, 0]	n/a	catFR1	1	R1678T
707.383	2.216	846587	ENCODING_START	n/a	n/a	n/a	n/a	-999	6	[0, 0, 0]	n/a	catFR1	1	R1678T
709.599	2.5	848803	WORD	n/a	wordpools/wordpool_categorized_EN.txt	BLUEBERRY	Fruit	1	6	[0, 0, 0]	n/a	catFR1	1	R1678T
712.099	2.451	851303	WORD	n/a	wordpools/wordpool_categorized_EN.txt	CHERRY	Fruit	2	6	[0, 0, 0]	n/a	catFR1	1	R1678T
714.55	2.482	853754	WORD	n/a	wordpools/wordpool_categorized_EN.txt	GUITAR	Instruments	3	6	[0, 0, 0]	n/a	catFR1	1	R1678T
717.032	2.549	856236	WORD	n/a	wordpools/wordpool_categorized_EN.txt	BASS	Instruments	4	6	[0, 0, 0]	n/a	catFR1	1	R1678T
719.581	2.501	858785	WORD	n/a	wordpools/wordpool_categorized_EN.txt	MOUSSE	Desserts	5	6	[0, 0, 0]	n/a	catFR1	1	R1678T
722.082	2.567	861286	WORD	n/a	wordpools/wordpool_categorized_EN.txt	CAKE	Desserts	6	6	[0, 0, 0]	n/a	catFR1	1	R1678T
724.649	2.533	863853	WORD	n/a	wordpools/wordpool_categorized_EN.txt	BANJO	Instruments	7	6	[0, 0, 0]	n/a	catFR1	1	R1678T
727.182	2.482	866386	WORD	n/a	wordpools/wordpool_categorized_EN.txt	ORGAN	Instruments	8	6	[0, 0, 0]	n/a	catFR1	1	R1678T
729.664	2.567	868868	WORD	n/a	wordpools/wordpool_categorized_EN.txt	BROWNIES	Desserts	9	6	[0, 0, 0]	n/a	catFR1	1	R1678T
732.231	2.435	871435	WORD	n/a	wordpools/wordpool_categorized_EN.txt	PUDDING	Desserts	10	6	[0, 0, 0]	n/a	catFR1	1	R1678T
734.666	2.516	873870	WORD	n/a	wordpools/wordpool_categorized_EN.txt	ORANGE	Fruit	11	6	[0, 0, 0]	n/a	catFR1	1	R1678T
737.182	1.616	876386	WORD	n/a	wordpools/wordpool_categorized_EN.txt	LEMON	Fruit	12	6	[0, 0, 0]	n/a	catFR1	1	R1678T
738.798	0.001	878002	PROB	7.882	n/a	n/a	n/a	-999	6	[8, 7, 2]	17.0	catFR1	1	R1678T
738.799	7.9	878003	DISTRACT_START	n/a	n/a	n/a	n/a	-999	6	[0, 0, 0]	n/a	catFR1	1	R1678T
746.699	5.115	885903	PROB	5.099	n/a	n/a	n/a	-999	6	[3, 2, 3]	8.0	catFR1	1	R1678T
751.814	4.733	891018	PROB	4.717	n/a	n/a	n/a	-999	6	[6, 7, 1]	14.0	catFR1	1	R1678T
756.547	9.51	895751	PROB	7.083	n/a	n/a	n/a	-999	6	[5, 8, 4]	17.0	catFR1	1	R1678T
766.057	0.321	905261	REC_START	n/a	n/a	n/a	n/a	-999	6	[0, 0, 0]	n/a	catFR1	1	R1678T
766.378	1.19	905582	REC_WORD	0.321	n/a	BLUEBERRY	Fruit	1	6	[0, 0, 0]	n/a	catFR1	1	R1678T
767.568	1.705	906772	REC_WORD	1.511	n/a	CHERRY	Fruit	2	6	[0, 0, 0]	n/a	catFR1	1	R1678T
769.273	6.003	908477	REC_WORD_VV	3.216	n/a	<>	n/a	-999	6	[0, 0, 0]	n/a	catFR1	1	R1678T
775.276	1.0	914480	REC_WORD	9.219	n/a	MOUSSE	Desserts	5	6	[0, 0, 0]	n/a	catFR1	1	R1678T
776.276	1.111	915480	REC_WORD_VV	10.219	n/a	<>	n/a	-999	6	[0, 0, 0]	n/a	catFR1	1	R1678T
777.387	3.342	916591	REC_WORD	11.33	n/a	CAKE	Desserts	6	6	[0, 0, 0]	n/a	catFR1	1	R1678T
780.729	3.712	919933	REC_WORD	14.672	n/a	BANJO	Instruments	7	6	[0, 0, 0]	n/a	catFR1	1	R1678T
784.441	6.851	923645	REC_WORD	18.384	n/a	ORGAN	Instruments	8	6	[0, 0, 0]	n/a	catFR1	1	R1678T
791.292	4.91	930496	REC_WORD	25.235	n/a	MOUSSE	Desserts	5	6	[0, 0, 0]	n/a	catFR1	1	R1678T
796.202	17.193	935406	TRIAL	n/a	n/a	n/a	n/a	-999	7	[0, 0, 0]	n/a	catFR1	1	R1678T
813.395	10.349	952599	COUNTDOWN	n/a	n/a	n/a	n/a	-999	7	[0, 0, 0]	n/a	catFR1	1	R1678T
823.744	2.084	962948	ENCODING_START	n/a	n/a	n/a	n/a	-999	7	[0, 0, 0]	n/a	catFR1	1	R1678T
825.828	2.583	965032	WORD	n/a	wordpools/wordpool_categorized_EN.txt	FINCH	Birds	1	7	[0, 0, 0]	n/a	catFR1	1	R1678T
828.411	2.416	967615	WORD	n/a	wordpools/wordpool_categorized_EN.txt	HAWK	Birds	2	7	[0, 0, 0]	n/a	catFR1	1	R1678T
830.827	2.483	970031	WORD	n/a	wordpools/wordpool_categorized_EN.txt	RAIN	Weather	3	7	[0, 0, 0]	n/a	catFR1	1	R1678T
833.31	2.568	972514	WORD	n/a	wordpools/wordpool_categorized_EN.txt	THUNDERSTORM	Weather	4	7	[0, 0, 0]	n/a	catFR1	1	R1678T
835.878	2.55	975082	WORD	n/a	wordpools/wordpool_categorized_EN.txt	SLINKY	Toys	5	7	[0, 0, 0]	n/a	catFR1	1	R1678T
838.428	2.498	977632	WORD	n/a	wordpools/wordpool_categorized_EN.txt	BASEBALL	Toys	6	7	[0, 0, 0]	n/a	catFR1	1	R1678T
840.926	2.534	980130	WORD	n/a	wordpools/wordpool_categorized_EN.txt	THUNDER	Weather	7	7	[0, 0, 0]	n/a	catFR1	1	R1678T
843.46	2.45	982664	WORD	n/a	wordpools/wordpool_categorized_EN.txt	TORNADO	Weather	8	7	[0, 0, 0]	n/a	catFR1	1	R1678T
845.91	2.434	985114	WORD	n/a	wordpools/wordpool_categorized_EN.txt	PIGEON	Birds	9	7	[0, 0, 0]	n/a	catFR1	1	R1678T
848.344	2.45	987548	WORD	n/a	wordpools/wordpool_categorized_EN.txt	CROW	Birds	10	7	[0, 0, 0]	n/a	catFR1	1	R1678T
850.794	2.416	989998	WORD	n/a	wordpools/wordpool_categorized_EN.txt	MARBLES	Toys	11	7	[0, 0, 0]	n/a	catFR1	1	R1678T
853.21	1.617	992414	WORD	n/a	wordpools/wordpool_categorized_EN.txt	DOLL	Toys	12	7	[0, 0, 0]	n/a	catFR1	1	R1678T
854.827	0.0	994031	DISTRACT_START	n/a	n/a	n/a	n/a	-999	7	[0, 0, 0]	n/a	catFR1	1	R1678T
854.827	5.917	994031	PROB	5.899	n/a	n/a	n/a	-999	7	[8, 8, 8]	24.0	catFR1	1	R1678T
860.744	5.531	999948	PROB	5.516	n/a	n/a	n/a	-999	7	[3, 6, 1]	10.0	catFR1	1	R1678T
866.275	11.703	1005479	PROB	9.232	n/a	n/a	n/a	-999	7	[1, 7, 4]	12.0	catFR1	1	R1678T
877.978	1.078	1017182	REC_START	n/a	n/a	n/a	n/a	-999	7	[0, 0, 0]	n/a	catFR1	1	R1678T
879.056	1.0	1018260	REC_WORD	1.078	n/a	FINCH	Birds	1	7	[0, 0, 0]	n/a	catFR1	1	R1678T
880.056	1.097	1019260	REC_WORD_VV	2.078	n/a	<>	n/a	-999	7	[0, 0, 0]	n/a	catFR1	1	R1678T
881.153	2.689	1020357	REC_WORD_VV	3.175	n/a	<>	n/a	-999	7	[0, 0, 0]	n/a	catFR1	1	R1678T
883.842	0.469	1023046	REC_WORD_VV	5.864	n/a	<>	n/a	-999	7	[0, 0, 0]	n/a	catFR1	1	R1678T
884.311	5.041	1023515	REC_WORD	6.333	n/a	HAWK	Birds	2	7	[0, 0, 0]	n/a	catFR1	1	R1678T
889.352	0.444	1028556	REC_WORD	11.374	n/a	FINCH	Birds	1	7	[0, 0, 0]	n/a	catFR1	1	R1678T
889.796	13.693	1029000	REC_WORD	11.818	n/a	HAWK	Birds	2	7	[0, 0, 0]	n/a	catFR1	1	R1678T
903.489	4.631	1042693	REC_WORD_VV	25.511	n/a	<>	n/a	-999	7	[0, 0, 0]	n/a	catFR1	1	R1678T
908.12	14.653	1047324	TRIAL	n/a	n/a	n/a	n/a	-999	8	[0, 0, 0]	n/a	catFR1	1	R1678T
922.773	10.351	1061977	COUNTDOWN	n/a	n/a	n/a	n/a	-999	8	[0, 0, 0]	n/a	catFR1	1	R1678T
933.124	2.365	1072328	ENCODING_START	n/a	n/a	n/a	n/a	-999	8	[0, 0, 0]	n/a	catFR1	1	R1678T
935.489	2.583	1074693	WORD	n/a	wordpools/wordpool_categorized_EN.txt	CELLO	Instruments	1	8	[0, 0, 0]	n/a	catFR1	1	R1678T
938.072	2.501	1077276	WORD	n/a	wordpools/wordpool_categorized_EN.txt	FLUTE	Instruments	2	8	[0, 0, 0]	n/a	catFR1	1	R1678T
940.573	2.616	1079777	WORD	n/a	wordpools/wordpool_categorized_EN.txt	LADYBUG	Insects	3	8	[0, 0, 0]	n/a	catFR1	1	R1678T
943.189	2.6	1082393	WORD	n/a	wordpools/wordpool_categorized_EN.txt	GNAT	Insects	4	8	[0, 0, 0]	n/a	catFR1	1	R1678T
945.789	2.417	1084993	WORD	n/a	wordpools/wordpool_categorized_EN.txt	TOE	BodyParts	5	8	[0, 0, 0]	n/a	catFR1	1	R1678T
948.206	2.533	1087410	WORD	n/a	wordpools/wordpool_categorized_EN.txt	HEAD	BodyParts	6	8	[0, 0, 0]	n/a	catFR1	1	R1678T
950.739	2.383	1089943	WORD	n/a	wordpools/wordpool_categorized_EN.txt	ROACH	Insects	7	8	[0, 0, 0]	n/a	catFR1	1	R1678T
953.122	2.616	1092326	WORD	n/a	wordpools/wordpool_categorized_EN.txt	BEETLE	Insects	8	8	[0, 0, 0]	n/a	catFR1	1	R1678T
955.738	2.451	1094942	WORD	n/a	wordpools/wordpool_categorized_EN.txt	HAND	BodyParts	9	8	[0, 0, 0]	n/a	catFR1	1	R1678T
958.189	2.5	1097393	WORD	n/a	wordpools/wordpool_categorized_EN.txt	ARM	BodyParts	10	8	[0, 0, 0]	n/a	catFR1	1	R1678T
960.689	2.433	1099893	WORD	n/a	wordpools/wordpool_categorized_EN.txt	TROMBONE	Instruments	11	8	[0, 0, 0]	n/a	catFR1	1	R1678T
963.122	1.6	1102326	WORD	n/a	wordpools/wordpool_categorized_EN.txt	TUBA	Instruments	12	8	[0, 0, 0]	n/a	catFR1	1	R1678T
964.722	0.002	1103926	PROB	6.666	n/a	n/a	n/a	-999	8	[4, 6, 3]	13.0	catFR1	1	R1678T
964.724	6.682	1103928	DISTRACT_START	n/a	n/a	n/a	n/a	-999	8	[0, 0, 0]	n/a	catFR1	1	R1678T
971.406	6.866	1110610	PROB	6.848	n/a	n/a	n/a	-999	8	[4, 7, 7]	18.0	catFR1	1	R1678T
978.272	15.239	1117476	PROB	12.982	n/a	n/a	n/a	-999	8	[5, 6, 6]	17.0	catFR1	1	R1678T
993.511	0.0	1132715	REC_START	n/a	n/a	n/a	n/a	-999	8	[0, 0, 0]	n/a	catFR1	1	R1678T
993.511	1.0	1132715	REC_WORD_VV	0.0	n/a	<>	n/a	-999	8	[0, 0, 0]	n/a	catFR1	1	R1678T
994.511	3.991	1133715	REC_WORD_VV	1.0	n/a	<>	n/a	-999	8	[0, 0, 0]	n/a	catFR1	1	R1678T
998.502	2.013	1137706	REC_WORD_VV	4.991	n/a	<>	n/a	-999	8	[0, 0, 0]	n/a	catFR1	1	R1678T
1000.515	0.274	1139719	REC_WORD_VV	7.004	n/a	<>	n/a	-999	8	[0, 0, 0]	n/a	catFR1	1	R1678T
1000.789	1.247	1139993	REC_WORD	7.278	n/a	FINCH	Birds	-999	8	[0, 0, 0]	n/a	catFR1	1	R1678T
1002.036	1.221	1141240	REC_WORD	8.525	n/a	HAWK	Birds	-999	8	[0, 0, 0]	n/a	catFR1	1	R1678T
1003.257	1.46	1142461	REC_WORD	9.746	n/a	LADYBUG	Insects	3	8	[0, 0, 0]	n/a	catFR1	1	R1678T
1004.717	3.076	1143921	REC_WORD	11.206	n/a	GNAT	Insects	4	8	[0, 0, 0]	n/a	catFR1	1	R1678T
1007.793	5.923	1146997	REC_WORD_VV	14.282	n/a	<>	n/a	-999	8	[0, 0, 0]	n/a	catFR1	1	R1678T
1013.716	1.548	1152920	REC_WORD	20.205	n/a	TROMBONE	Instruments	11	8	[0, 0, 0]	n/a	catFR1	1	R1678T
1015.264	8.405	1154468	REC_WORD	21.753	n/a	TUBA	Instruments	12	8	[0, 0, 0]	n/a	catFR1	1	R1678T
1023.669	10.633	1162873	TRIAL	n/a	n/a	n/a	n/a	-999	9	[0, 0, 0]	n/a	catFR1	1	R1678T
1034.302	10.348	1173506	COUNTDOWN	n/a	n/a	n/a	n/a	-999	9	[0, 0, 0]	n/a	catFR1	1	R1678T
1044.65	2.167	1183854	ENCODING_START	n/a	n/a	n/a	n/a	-999	9	[0, 0, 0]	n/a	catFR1	1	R1678T
1046.817	2.367	1186021	WORD	n/a	wordpools/wordpool_categorized_EN.txt	TULIP	Flowers	1	9	[0, 0, 0]	n/a	catFR1	1	R1678T
1049.184	2.368	1188388	WORD	n/a	wordpools/wordpool_categorized_EN.txt	VIOLET	Flowers	2	9	[0, 0, 0]	n/a	catFR1	1	R1678T
1051.552	2.582	1190756	WORD	n/a	wordpools/wordpool_categorized_EN.txt	JELLO	Desserts	3	9	[0, 0, 0]	n/a	catFR1	1	R1678T
1054.134	2.567	1193338	WORD	n/a	wordpools/wordpool_categorized_EN.txt	CUPCAKE	Desserts	4	9	[0, 0, 0]	n/a	catFR1	1	R1678T
1056.701	2.417	1195905	WORD	n/a	wordpools/wordpool_categorized_EN.txt	RUM	Beverages	5	9	[0, 0, 0]	n/a	catFR1	1	R1678T
1059.118	2.466	1198322	WORD	n/a	wordpools/wordpool_categorized_EN.txt	SODA	Beverages	6	9	[0, 0, 0]	n/a	catFR1	1	R1678T
1061.584	2.384	1200788	WORD	n/a	wordpools/wordpool_categorized_EN.txt	ORCHID	Flowers	7	9	[0, 0, 0]	n/a	catFR1	1	R1678T
1063.968	2.516	1203172	WORD	n/a	wordpools/wordpool_categorized_EN.txt	SUNFLOWER	Flowers	8	9	[0, 0, 0]	n/a	catFR1	1	R1678T
1066.484	2.465	1205688	WORD	n/a	wordpools/wordpool_categorized_EN.txt	LEMONADE	Beverages	9	9	[0, 0, 0]	n/a	catFR1	1	R1678T
1068.949	2.483	1208153	WORD	n/a	wordpools/wordpool_categorized_EN.txt	CIDER	Beverages	10	9	[0, 0, 0]	n/a	catFR1	1	R1678T
1071.432	2.452	1210636	WORD	n/a	wordpools/wordpool_categorized_EN.txt	COBBLER	Desserts	11	9	[0, 0, 0]	n/a	catFR1	1	R1678T
1073.884	1.617	1213088	WORD	n/a	wordpools/wordpool_categorized_EN.txt	COOKIE	Desserts	12	9	[0, 0, 0]	n/a	catFR1	1	R1678T
1075.501	0.0	1214705	PROB	6.266	n/a	n/a	n/a	-999	9	[6, 6, 4]	16.0	catFR1	1	R1678T
1075.501	6.282	1214705	DISTRACT_START	n/a	n/a	n/a	n/a	-999	9	[0, 0, 0]	n/a	catFR1	1	R1678T
1081.783	4.684	1220987	PROB	4.666	n/a	n/a	n/a	-999	9	[1, 4, 2]	7.0	catFR1	1	R1678T
1086.467	8.067	1225671	PROB	8.05	n/a	n/a	n/a	-999	9	[6, 5, 2]	13.0	catFR1	1	R1678T
1094.534	14.02	1233738	PROB	11.782	n/a	n/a	n/a	-999	9	[6, 8, 4]	18.0	catFR1	1	R1678T
1108.554	0.563	1247758	REC_START	n/a	n/a	n/a	n/a	-999	9	[0, 0, 0]	n/a	catFR1	1	R1678T
1109.117	1.043	1248321	REC_WORD_VV	0.563	n/a	<>	n/a	-999	9	[0, 0, 0]	n/a	catFR1	1	R1678T
1110.16	3.665	1249364	REC_WORD	1.606	n/a	TULIP	Flowers	1	9	[0, 0, 0]	n/a	catFR1	1	R1678T
1113.825	1.0	1253029	REC_WORD_VV	5.271	n/a	<>	n/a	-999	9	[0, 0, 0]	n/a	catFR1	1	R1678T
1114.825	1.0	1254029	REC_WORD_VV	6.271	n/a	<>	n/a	-999	9	[0, 0, 0]	n/a	catFR1	1	R1678T
1115.825	1.0	1255029	REC_WORD_VV	7.271	n/a	<>	n/a	-999	9	[0, 0, 0]	n/a	catFR1	1	R1678T
1116.825	1.484	1256029	REC_WORD_VV	8.271	n/a	<>	n/a	-999	9	[0, 0, 0]	n/a	catFR1	1	R1678T
1118.309	1.0	1257513	REC_WORD_VV	9.755	n/a	<>	n/a	-999	9	[0, 0, 0]	n/a	catFR1	1	R1678T
1119.309	1.0	1258513	REC_WORD	10.755	n/a	CIDER	Beverages	10	9	[0, 0, 0]	n/a	catFR1	1	R1678T
1120.309	1.766	1259513	REC_WORD_VV	11.755	n/a	<>	n/a	-999	9	[0, 0, 0]	n/a	catFR1	1	R1678T
1122.075	0.29	1261279	REC_WORD_VV	13.521	n/a	<>	n/a	-999	9	[0, 0, 0]	n/a	catFR1	1	R1678T
1122.365	4.17	1261569	REC_WORD	13.811	n/a	SODA	Beverages	6	9	[0, 0, 0]	n/a	catFR1	1	R1678T
1126.535	12.154	1265739	REC_WORD	17.981	n/a	RUM	Beverages	5	9	[0, 0, 0]	n/a	catFR1	1	R1678T
1138.689	12.075	1277893	TRIAL	n/a	n/a	n/a	n/a	-999	10	[0, 0, 0]	n/a	catFR1	1	R1678T
1150.764	10.349	1289968	COUNTDOWN	n/a	n/a	n/a	n/a	-999	10	[0, 0, 0]	n/a	catFR1	1	R1678T
1161.113	1.883	1300317	ENCODING_START	n/a	n/a	n/a	n/a	-999	10	[0, 0, 0]	n/a	catFR1	1	R1678T
1162.996	2.45	1302200	WORD	n/a	wordpools/wordpool_categorized_EN.txt	WHISK	KitchenTools	1	10	[0, 0, 0]	n/a	catFR1	1	R1678T
1165.446	2.617	1304650	WORD	n/a	wordpools/wordpool_categorized_EN.txt	GRATER	KitchenTools	2	10	[0, 0, 0]	n/a	catFR1	1	R1678T
1168.063	2.417	1307267	WORD	n/a	wordpools/wordpool_categorized_EN.txt	BANANA	Fruit	3	10	[0, 0, 0]	n/a	catFR1	1	R1678T
1170.48	2.449	1309684	WORD	n/a	wordpools/wordpool_categorized_EN.txt	PEACH	Fruit	4	10	[0, 0, 0]	n/a	catFR1	1	R1678T
1172.929	2.466	1312133	WORD	n/a	wordpools/wordpool_categorized_EN.txt	PIE	Desserts	5	10	[0, 0, 0]	n/a	catFR1	1	R1678T
1175.395	2.534	1314599	WORD	n/a	wordpools/wordpool_categorized_EN.txt	PASTRY	Desserts	6	10	[0, 0, 0]	n/a	catFR1	1	R1678T
1177.929	2.5	1317133	WORD	n/a	wordpools/wordpool_categorized_EN.txt	STRAINER	KitchenTools	7	10	[0, 0, 0]	n/a	catFR1	1	R1678T
1180.429	2.4	1319633	WORD	n/a	wordpools/wordpool_categorized_EN.txt	TONGS	KitchenTools	8	10	[0, 0, 0]	n/a	catFR1	1	R1678T
1182.829	2.466	1322033	WORD	n/a	wordpools/wordpool_categorized_EN.txt	FUDGE	Desserts	9	10	[0, 0, 0]	n/a	catFR1	1	R1678T
1185.295	2.533	1324499	WORD	n/a	wordpools/wordpool_categorized_EN.txt	CHEESECAKE	Desserts	10	10	[0, 0, 0]	n/a	catFR1	1	R1678T
1187.828	2.55	1327032	WORD	n/a	wordpools/wordpool_categorized_EN.txt	APPLE	Fruit	11	10	[0, 0, 0]	n/a	catFR1	1	R1678T
1190.378	1.601	1329582	WORD	n/a	wordpools/wordpool_categorized_EN.txt	PLUM	Fruit	12	10	[0, 0, 0]	n/a	catFR1	1	R1678T
1191.979	0.001	1331183	PROB	5.132	n/a	n/a	n/a	-999	10	[4, 5, 5]	14.0	catFR1	1	R1678T
1191.98	5.149	1331184	DISTRACT_START	n/a	n/a	n/a	n/a	-999	10	[0, 0, 0]	n/a	catFR1	1	R1678T
1197.129	5.082	1336333	PROB	5.065	n/a	n/a	n/a	-999	10	[1, 5, 7]	13.0	catFR1	1	R1678T
1202.211	5.366	1341415	PROB	5.35	n/a	n/a	n/a	-999	10	[5, 8, 1]	14.0	catFR1	1	R1678T
1207.577	7.463	1346781	PROB	5.25	n/a	n/a	n/a	-999	10	[6, 2, 3]	11.0	catFR1	1	R1678T
1215.04	0.511	1354244	REC_START	n/a	n/a	n/a	n/a	-999	10	[0, 0, 0]	n/a	catFR1	1	R1678T
1215.551	1.779	1354755	REC_WORD	0.511	n/a	WHISK	KitchenTools	1	10	[0, 0, 0]	n/a	catFR1	1	R1678T
1217.33	2.087	1356534	REC_WORD	2.29	n/a	GRATER	KitchenTools	2	10	[0, 0, 0]	n/a	catFR1	1	R1678T
1219.417	3.742	1358621	REC_WORD_VV	4.377	n/a	<>	n/a	-999	10	[0, 0, 0]	n/a	catFR1	1	R1678T
1223.159	3.702	1362363	REC_WORD_VV	8.119	n/a	<>	n/a	-999	10	[0, 0, 0]	n/a	catFR1	1	R1678T
1226.861	4.233	1366065	REC_WORD	11.821	n/a	BANANA	Fruit	3	10	[0, 0, 0]	n/a	catFR1	1	R1678T
1231.094	8.594	1370298	REC_WORD	16.054	n/a	PEACH	Fruit	4	10	[0, 0, 0]	n/a	catFR1	1	R1678T
1239.688	1.795	1378892	REC_WORD	24.648	n/a	STRAINER	KitchenTools	7	10	[0, 0, 0]	n/a	catFR1	1	R1678T
1241.483	1.0	1380687	REC_WORD	26.443	n/a	TONGS	KitchenTools	8	10	[0, 0, 0]	n/a	catFR1	1	R1678T
1242.483	1.786	1381687	REC_WORD_VV	27.443	n/a	<>	n/a	-999	10	[0, 0, 0]	n/a	catFR1	1	R1678T
1244.269	0.918	1383473	REC_WORD	29.229	n/a	APPLE	Fruit	11	10	[0, 0, 0]	n/a	catFR1	1	R1678T
1245.187	8.004	1384391	TRIAL	n/a	n/a	n/a	n/a	-999	11	[0, 0, 0]	n/a	catFR1	1	R1678T
1253.191	10.352	1392395	COUNTDOWN	n/a	n/a	n/a	n/a	-999	11	[0, 0, 0]	n/a	catFR1	1	R1678T
1263.543	2.249	1402747	ENCODING_START	n/a	n/a	n/a	n/a	-999	11	[0, 0, 0]	n/a	catFR1	1	R1678T
1265.792	2.499	1404996	WORD	n/a	wordpools/wordpool_categorized_EN.txt	DAISY	Flowers	1	11	[0, 0, 0]	n/a	catFR1	1	R1678T
1268.291	2.468	1407495	WORD	n/a	wordpools/wordpool_categorized_EN.txt	PETUNIA	Flowers	2	11	[0, 0, 0]	n/a	catFR1	1	R1678T
1270.759	2.533	1409963	WORD	n/a	wordpools/wordpool_categorized_EN.txt	EAR	BodyParts	3	11	[0, 0, 0]	n/a	catFR1	1	R1678T
1273.292	2.516	1412496	WORD	n/a	wordpools/wordpool_categorized_EN.txt	KNEE	BodyParts	4	11	[0, 0, 0]	n/a	catFR1	1	R1678T
1275.808	2.466	1415012	WORD	n/a	wordpools/wordpool_categorized_EN.txt	COLA	Beverages	5	11	[0, 0, 0]	n/a	catFR1	1	R1678T
1278.274	2.55	1417478	WORD	n/a	wordpools/wordpool_categorized_EN.txt	COFFEE	Beverages	6	11	[0, 0, 0]	n/a	catFR1	1	R1678T
1280.824	2.534	1420028	WORD	n/a	wordpools/wordpool_categorized_EN.txt	FOOT	BodyParts	7	11	[0, 0, 0]	n/a	catFR1	1	R1678T
1283.358	2.5	1422562	WORD	n/a	wordpools/wordpool_categorized_EN.txt	LEG	BodyParts	8	11	[0, 0, 0]	n/a	catFR1	1	R1678T
1285.858	2.6	1425062	WORD	n/a	wordpools/wordpool_categorized_EN.txt	LILY	Flowers	9	11	[0, 0, 0]	n/a	catFR1	1	R1678T
1288.458	2.515	1427662	WORD	n/a	wordpools/wordpool_categorized_EN.txt	LILAC	Flowers	10	11	[0, 0, 0]	n/a	catFR1	1	R1678T
1290.973	2.433	1430177	WORD	n/a	wordpools/wordpool_categorized_EN.txt	MILK	Beverages	11	11	[0, 0, 0]	n/a	catFR1	1	R1678T
1293.406	1.601	1432610	WORD	n/a	wordpools/wordpool_categorized_EN.txt	BEER	Beverages	12	11	[0, 0, 0]	n/a	catFR1	1	R1678T
1295.007	0.001	1434211	PROB	5.416	n/a	n/a	n/a	-999	11	[2, 8, 5]	15.0	catFR1	1	R1678T
1295.008	5.433	1434212	DISTRACT_START	n/a	n/a	n/a	n/a	-999	11	[0, 0, 0]	n/a	catFR1	1	R1678T
1300.441	10.865	1439645	PROB	10.849	n/a	n/a	n/a	-999	11	[5, 8, 6]	19.0	catFR1	1	R1678T
1311.306	11.272	1450510	PROB	9.1	n/a	n/a	n/a	-999	11	[8, 3, 3]	14.0	catFR1	1	R1678T
1322.578	1.161	1461782	REC_START	n/a	n/a	n/a	n/a	-999	11	[0, 0, 0]	n/a	catFR1	1	R1678T
1323.739	2.647	1462943	REC_WORD	1.161	n/a	DAISY	Flowers	1	11	[0, 0, 0]	n/a	catFR1	1	R1678T
1326.386	3.769	1465590	REC_WORD	3.808	n/a	PETUNIA	Flowers	2	11	[0, 0, 0]	n/a	catFR1	1	R1678T
1330.155	2.311	1469359	REC_WORD_VV	7.577	n/a	<>	n/a	-999	11	[0, 0, 0]	n/a	catFR1	1	R1678T
1332.466	0.835	1471670	REC_WORD_VV	9.888	n/a	<>	n/a	-999	11	[0, 0, 0]	n/a	catFR1	1	R1678T
1333.301	1.0	1472505	REC_WORD	10.723	n/a	FOOT	BodyParts	7	11	[0, 0, 0]	n/a	catFR1	1	R1678T
1334.301	1.807	1473505	REC_WORD_VV	11.723	n/a	<>	n/a	-999	11	[0, 0, 0]	n/a	catFR1	1	R1678T
1336.108	4.844	1475312	REC_WORD	13.53	n/a	LEG	BodyParts	8	11	[0, 0, 0]	n/a	catFR1	1	R1678T
1340.952	1.741	1480156	REC_WORD_VV	18.374	n/a	<>	n/a	-999	11	[0, 0, 0]	n/a	catFR1	1	R1678T
1342.693	2.094	1481897	REC_WORD_VV	20.115	n/a	<>	n/a	-999	11	[0, 0, 0]	n/a	catFR1	1	R1678T
1344.787	1.48	1483991	REC_WORD	22.209	n/a	ARM	BodyParts	-999	11	[0, 0, 0]	n/a	catFR1	1	R1678T
1346.267	2.955	1485471	REC_WORD	23.689	n/a	KNEE	BodyParts	4	11	[0, 0, 0]	n/a	catFR1	1	R1678T
1349.222	0.526	1488426	REC_WORD_VV	26.644	n/a	<>	n/a	-999	11	[0, 0, 0]	n/a	catFR1	1	R1678T
1349.748	2.745	1488952	REC_WORD	27.17	n/a	LILAC	Flowers	10	11	[0, 0, 0]	n/a	catFR1	1	R1678T
1352.493	0.219	1491697	REC_WORD_VV	29.915	n/a	<>	n/a	-999	11	[0, 0, 0]	n/a	catFR1	1	R1678T
1352.712	8.775	1491916	TRIAL	n/a	n/a	n/a	n/a	-999	12	[0, 0, 0]	n/a	catFR1	1	R1678T
1361.487	10.35	1500691	COUNTDOWN	n/a	n/a	n/a	n/a	-999	12	[0, 0, 0]	n/a	catFR1	1	R1678T
1371.837	2.151	1511041	ENCODING_START	n/a	n/a	n/a	n/a	-999	12	[0, 0, 0]	n/a	catFR1	1	R1678T
1373.988	2.565	1513192	WORD	n/a	wordpools/wordpool_categorized_EN.txt	WINE	Beverages	1	12	[0, 0, 0]	n/a	catFR1	1	R1678T
1376.553	2.367	1515757	WORD	n/a	wordpools/wordpool_categorized_EN.txt	JUICE	Beverages	2	12	[0, 0, 0]	n/a	catFR1	1	R1678T
1378.92	2.567	1518124	WORD	n/a	wordpools/wordpool_categorized_EN.txt	EYE	BodyParts	3	12	[0, 0, 0]	n/a	catFR1	1	R1678T
1381.487	2.383	1520691	WORD	n/a	wordpools/wordpool_categorized_EN.txt	NOSE	BodyParts	4	12	[0, 0, 0]	n/a	catFR1	1	R1678T
1383.87	2.449	1523074	WORD	n/a	wordpools/wordpool_categorized_EN.txt	MARIGOLD	Flowers	5	12	[0, 0, 0]	n/a	catFR1	1	R1678T
1386.319	2.5	1525523	WORD	n/a	wordpools/wordpool_categorized_EN.txt	DAFFODIL	Flowers	6	12	[0, 0, 0]	n/a	catFR1	1	R1678T
1388.819	2.466	1528023	WORD	n/a	wordpools/wordpool_categorized_EN.txt	FINGERS	BodyParts	7	12	[0, 0, 0]	n/a	catFR1	1	R1678T
1391.285	2.5	1530489	WORD	n/a	wordpools/wordpool_categorized_EN.txt	ELBOW	BodyParts	8	12	[0, 0, 0]	n/a	catFR1	1	R1678T
1393.785	2.602	1532989	WORD	n/a	wordpools/wordpool_categorized_EN.txt	WATER	Beverages	9	12	[0, 0, 0]	n/a	catFR1	1	R1678T
1396.387	2.499	1535591	WORD	n/a	wordpools/wordpool_categorized_EN.txt	TEA	Beverages	10	12	[0, 0, 0]	n/a	catFR1	1	R1678T
1398.886	2.6	1538090	WORD	n/a	wordpools/wordpool_categorized_EN.txt	ROSE	Flowers	11	12	[0, 0, 0]	n/a	catFR1	1	R1678T
1401.486	1.617	1540690	WORD	n/a	wordpools/wordpool_categorized_EN.txt	CARNATION	Flowers	12	12	[0, 0, 0]	n/a	catFR1	1	R1678T
1403.103	0.001	1542307	DISTRACT_START	n/a	n/a	n/a	n/a	-999	12	[0, 0, 0]	n/a	catFR1	1	R1678T
1403.104	5.014	1542308	PROB	4.999	n/a	n/a	n/a	-999	12	[8, 6, 6]	20.0	catFR1	1	R1678T
1408.118	14.451	1547322	PROB	14.433	n/a	n/a	n/a	-999	12	[6, 4, 7]	17.0	catFR1	1	R1678T
1422.569	6.561	1561773	PROB	4.149	n/a	n/a	n/a	-999	12	[6, 6, 2]	14.0	catFR1	1	R1678T
1429.13	0.97	1568334	REC_START	n/a	n/a	n/a	n/a	-999	12	[0, 0, 0]	n/a	catFR1	1	R1678T
1430.1	1.685	1569304	REC_WORD_VV	0.97	n/a	<>	n/a	-999	12	[0, 0, 0]	n/a	catFR1	1	R1678T
1431.785	2.265	1570989	REC_WORD	2.655	n/a	WINE	Beverages	1	12	[0, 0, 0]	n/a	catFR1	1	R1678T
1434.05	2.879	1573254	REC_WORD	4.92	n/a	JUICE	Beverages	2	12	[0, 0, 0]	n/a	catFR1	1	R1678T
1436.929	1.605	1576133	REC_WORD_VV	7.799	n/a	<>	n/a	-999	12	[0, 0, 0]	n/a	catFR1	1	R1678T
1438.534	1.685	1577738	REC_WORD	9.404	n/a	EAR	BodyParts	-999	12	[0, 0, 0]	n/a	catFR1	1	R1678T
1440.219	3.717	1579423	REC_WORD	11.089	n/a	NOSE	BodyParts	4	12	[0, 0, 0]	n/a	catFR1	1	R1678T
1443.936	1.0	1583140	REC_WORD	14.806	n/a	CARNATION	Flowers	12	12	[0, 0, 0]	n/a	catFR1	1	R1678T
1444.936	3.245	1584140	REC_WORD_VV	15.806	n/a	<>	n/a	-999	12	[0, 0, 0]	n/a	catFR1	1	R1678T
1448.181	1.0	1587385	REC_WORD	19.051	n/a	FINGERS	BodyParts	7	12	[0, 0, 0]	n/a	catFR1	1	R1678T
1449.181	1.493	1588385	REC_WORD_VV	20.051	n/a	<>	n/a	-999	12	[0, 0, 0]	n/a	catFR1	1	R1678T
1450.674	6.062	1589878	REC_WORD	21.544	n/a	KNEE	BodyParts	-999	12	[0, 0, 0]	n/a	catFR1	1	R1678T
1456.736	2.408	1595940	REC_WORD_VV	27.606	n/a	<>	n/a	-999	12	[0, 0, 0]	n/a	catFR1	1	R1678T
1459.144	0.126	1598348	REC_WORD	30.014	n/a	COLA	Beverages	-999	12	[0, 0, 0]	n/a	catFR1	1	R1678T
1459.27	0.0	1598474	SESS_END	n/a	n/a	n/a	n/a	-999	12	[0, 0, 0]	n/a	catFR1	1	R1678T
