onset	duration	sample	trial_type	response_time	stim_file	item_name	category	serialpos	list	test	answer	experiment	session	subject
0.0	164.924	8494	INSTRUCT_START	n/a	n/a	n/a	n/a	-999	-999	[0, 0, 0]	n/a	catFR1	0	R1445E
164.924	88.316	173418	INSTRUCT_END	n/a	n/a	n/a	n/a	-999	-999	[0, 0, 0]	n/a	catFR1	0	R1445E
253.24	10.346	261734	COUNTDOWN_START	n/a	n/a	n/a	n/a	-999	-999	[0, 0, 0]	n/a	catFR1	0	R1445E
263.586	0.001	272073	COUNTDOWN_END	n/a	n/a	n/a	n/a	-999	-999	[0, 0, 0]	n/a	catFR1	0	R1445E
263.587	1.95	272087	ENCODING_START	n/a	n/a	n/a	n/a	-999	-1	[0, 0, 0]	n/a	catFR1	0	R1445E
265.537	1.616	274029	WORD	n/a	n/a	ELEPHANT	Zoo	1	-1	[0, 0, 0]	n/a	catFR1	0	R1445E
267.153	0.85	275650	WORD_OFF	n/a	n/a	ELEPHANT	Zoo	1	-1	[0, 0, 0]	n/a	catFR1	0	R1445E
268.003	1.601	276502	WORD	n/a	n/a	CHEETAH	Zoo	2	-1	[0, 0, 0]	n/a	catFR1	0	R1445E
269.604	0.883	278095	WORD_OFF	n/a	n/a	CHEETAH	Zoo	2	-1	[0, 0, 0]	n/a	catFR1	0	R1445E
270.487	1.616	278975	WORD	n/a	n/a	ISLAND	Landscapes	3	-1	[0, 0, 0]	n/a	catFR1	0	R1445E
272.103	0.9	280596	WORD_OFF	n/a	n/a	ISLAND	Landscapes	3	-1	[0, 0, 0]	n/a	catFR1	0	R1445E
273.003	1.6	281490	WORD	n/a	n/a	VALLEY	Landscapes	4	-1	[0, 0, 0]	n/a	catFR1	0	R1445E
274.603	0.883	283097	WORD_OFF	n/a	n/a	VALLEY	Landscapes	4	-1	[0, 0, 0]	n/a	catFR1	0	R1445E
275.486	1.601	283977	WORD	n/a	n/a	SLINKY	Toys	5	-1	[0, 0, 0]	n/a	catFR1	0	R1445E
277.087	0.916	285584	WORD_OFF	n/a	n/a	SLINKY	Toys	5	-1	[0, 0, 0]	n/a	catFR1	0	R1445E
278.003	1.6	286492	WORD	n/a	n/a	PUZZLE	Toys	6	-1	[0, 0, 0]	n/a	catFR1	0	R1445E
279.603	0.883	288098	WORD_OFF	n/a	n/a	PUZZLE	Toys	6	-1	[0, 0, 0]	n/a	catFR1	0	R1445E
280.486	1.617	288979	WORD	n/a	n/a	OCEAN	Landscapes	7	-1	[0, 0, 0]	n/a	catFR1	0	R1445E
282.103	0.983	290599	WORD_OFF	n/a	n/a	OCEAN	Landscapes	7	-1	[0, 0, 0]	n/a	catFR1	0	R1445E
283.086	1.6	291577	WORD	n/a	n/a	BEACH	Landscapes	8	-1	[0, 0, 0]	n/a	catFR1	0	R1445E
284.686	0.934	293184	WORD_OFF	n/a	n/a	BEACH	Landscapes	8	-1	[0, 0, 0]	n/a	catFR1	0	R1445E
285.62	1.615	294120	WORD	n/a	n/a	BLOCKS	Toys	9	-1	[0, 0, 0]	n/a	catFR1	0	R1445E
287.235	0.883	295727	WORD_OFF	n/a	n/a	BLOCKS	Toys	9	-1	[0, 0, 0]	n/a	catFR1	0	R1445E
288.118	1.602	296607	WORD	n/a	n/a	BASEBALL	Toys	10	-1	[0, 0, 0]	n/a	catFR1	0	R1445E
289.72	0.816	298214	WORD_OFF	n/a	n/a	BASEBALL	Toys	10	-1	[0, 0, 0]	n/a	catFR1	0	R1445E
290.536	1.617	299024	WORD	n/a	n/a	CHIMPANZEE	Zoo	11	-1	[0, 0, 0]	n/a	catFR1	0	R1445E
292.153	0.816	300645	WORD_OFF	n/a	n/a	CHIMPANZEE	Zoo	11	-1	[0, 0, 0]	n/a	catFR1	0	R1445E
292.969	1.617	301469	WORD	n/a	n/a	PANDA	Zoo	12	-1	[0, 0, 0]	n/a	catFR1	0	R1445E
294.586	0.001	303076	WORD_OFF	n/a	n/a	PANDA	Zoo	12	-1	[0, 0, 0]	n/a	catFR1	0	R1445E
294.587	0.0	303076	ENCODING_END	n/a	n/a	n/a	n/a	-999	-1	[0, 0, 0]	n/a	catFR1	0	R1445E
294.587	0.0	303076	DISTRACT_START	n/a	n/a	n/a	n/a	-999	-1	[0, 0, 0]	n/a	catFR1	0	R1445E
294.587	0.001	303078	START	n/a	n/a	n/a	n/a	-999	-1	[-999, -999, -999]	n/a	catFR1	0	R1445E
294.588	14.564	303079	PROB	14.564	n/a	n/a	n/a	-999	-1	[3, 8, 2]	13	catFR1	0	R1445E
309.152	6.482	317643	PROB	6.482	n/a	n/a	n/a	-999	-1	[1, 7, 4]	12	catFR1	0	R1445E
315.634	0.0	324125	STOP	n/a	n/a	n/a	n/a	-999	-1	[-999, -999, -999]	n/a	catFR1	0	R1445E
315.634	2.234	324132	DISTRACT_END	n/a	n/a	n/a	n/a	-999	-1	[0, 0, 0]	n/a	catFR1	0	R1445E
317.868	5.6	326361	REC_START	n/a	n/a	n/a	n/a	-999	-1	[0, 0, 0]	n/a	catFR1	0	R1445E
323.468	24.638	331959	REC_WORD	24.638	n/a	ELEPHANT	Zoo	1	-1	[0, 0, 0]	n/a	catFR1	0	R1445E
348.106	49.509	356602	REC_END	n/a	n/a	n/a	n/a	-999	-1	[0, 0, 0]	n/a	catFR1	0	R1445E
397.615	10.35	406104	COUNTDOWN_START	n/a	n/a	n/a	n/a	-999	1	[0, 0, 0]	n/a	catFR1	0	R1445E
407.965	0.0	416458	COUNTDOWN_END	n/a	n/a	n/a	n/a	-999	1	[0, 0, 0]	n/a	catFR1	0	R1445E
407.965	1.983	416458	ENCODING_START	n/a	n/a	n/a	n/a	-999	1	[0, 0, 0]	n/a	catFR1	0	R1445E
409.948	1.601	418442	WORD	n/a	wordpools/wordpool_categorized_EN.txt	ARM	BodyParts	1	1	[0, 0, 0]	n/a	catFR1	0	R1445E
411.549	0.916	420048	WORD_OFF	n/a	n/a	ARM	BodyParts	1	1	[0, 0, 0]	n/a	catFR1	0	R1445E
412.465	1.6	420956	WORD	n/a	wordpools/wordpool_categorized_EN.txt	FINGERS	BodyParts	2	1	[0, 0, 0]	n/a	catFR1	0	R1445E
414.065	0.934	422563	WORD_OFF	n/a	n/a	FINGERS	BodyParts	2	1	[0, 0, 0]	n/a	catFR1	0	R1445E
414.999	1.616	423499	WORD	n/a	wordpools/wordpool_categorized_EN.txt	CRAB	OceanAnimals	3	1	[0, 0, 0]	n/a	catFR1	0	R1445E
416.615	0.8	425106	WORD_OFF	n/a	n/a	CRAB	OceanAnimals	3	1	[0, 0, 0]	n/a	catFR1	0	R1445E
417.415	1.617	425902	WORD	n/a	wordpools/wordpool_categorized_EN.txt	WHALE	OceanAnimals	4	1	[0, 0, 0]	n/a	catFR1	0	R1445E
419.032	0.867	427523	WORD_OFF	n/a	n/a	WHALE	OceanAnimals	4	1	[0, 0, 0]	n/a	catFR1	0	R1445E
419.899	1.615	428389	WORD	n/a	wordpools/wordpool_categorized_EN.txt	BANANA	Fruit	5	1	[0, 0, 0]	n/a	catFR1	0	R1445E
421.514	0.768	430010	WORD_OFF	n/a	n/a	BANANA	Fruit	5	1	[0, 0, 0]	n/a	catFR1	0	R1445E
422.282	1.616	430779	WORD	n/a	wordpools/wordpool_categorized_EN.txt	PEAR	Fruit	6	1	[0, 0, 0]	n/a	catFR1	0	R1445E
423.898	0.95	432385	WORD_OFF	n/a	n/a	PEAR	Fruit	6	1	[0, 0, 0]	n/a	catFR1	0	R1445E
424.848	1.6	433335	WORD	n/a	wordpools/wordpool_categorized_EN.txt	EYE	BodyParts	7	1	[0, 0, 0]	n/a	catFR1	0	R1445E
426.448	0.833	434942	WORD_OFF	n/a	n/a	EYE	BodyParts	7	1	[0, 0, 0]	n/a	catFR1	0	R1445E
427.281	1.6	435781	WORD	n/a	wordpools/wordpool_categorized_EN.txt	ELBOW	BodyParts	8	1	[0, 0, 0]	n/a	catFR1	0	R1445E
428.881	0.984	437373	WORD_OFF	n/a	n/a	ELBOW	BodyParts	8	1	[0, 0, 0]	n/a	catFR1	0	R1445E
429.865	1.6	438365	WORD	n/a	wordpools/wordpool_categorized_EN.txt	SHRIMP	OceanAnimals	9	1	[0, 0, 0]	n/a	catFR1	0	R1445E
431.465	0.866	439958	WORD_OFF	n/a	n/a	SHRIMP	OceanAnimals	9	1	[0, 0, 0]	n/a	catFR1	0	R1445E
432.331	1.617	440824	WORD	n/a	wordpools/wordpool_categorized_EN.txt	DOLPHIN	OceanAnimals	10	1	[0, 0, 0]	n/a	catFR1	0	R1445E
433.948	0.85	442445	WORD_OFF	n/a	n/a	DOLPHIN	OceanAnimals	10	1	[0, 0, 0]	n/a	catFR1	0	R1445E
434.798	1.6	443297	WORD	n/a	wordpools/wordpool_categorized_EN.txt	APPLE	Fruit	11	1	[0, 0, 0]	n/a	catFR1	0	R1445E
436.398	0.865	444890	WORD_OFF	n/a	n/a	APPLE	Fruit	11	1	[0, 0, 0]	n/a	catFR1	0	R1445E
437.263	1.602	445756	WORD	n/a	wordpools/wordpool_categorized_EN.txt	CHERRY	Fruit	12	1	[0, 0, 0]	n/a	catFR1	0	R1445E
438.865	0.001	447356	PROB	0.001	n/a	n/a	n/a	-999	1	[2, 1, 1]	4	catFR1	0	R1445E
438.866	0.0	447357	START	n/a	n/a	n/a	n/a	-999	1	[-999, -999, -999]	n/a	catFR1	0	R1445E
438.865	0.001	447363	WORD_OFF	n/a	n/a	CHERRY	Fruit	12	1	[0, 0, 0]	n/a	catFR1	0	R1445E
438.866	0.0	447363	ENCODING_END	n/a	n/a	n/a	n/a	-999	1	[0, 0, 0]	n/a	catFR1	0	R1445E
438.866	5.498	447363	DISTRACT_START	n/a	n/a	n/a	n/a	-999	1	[0, 0, 0]	n/a	catFR1	0	R1445E
444.364	4.116	452855	PROB	4.116	n/a	n/a	n/a	-999	1	[2, 5, 1]	8	catFR1	0	R1445E
448.48	5.367	456971	PROB	5.367	n/a	n/a	n/a	-999	1	[5, 8, 5]	18	catFR1	0	R1445E
453.847	5.85	462338	PROB	5.85	n/a	n/a	n/a	-999	1	[7, 1, 6]	14	catFR1	0	R1445E
459.697	0.0	468188	STOP	n/a	n/a	n/a	n/a	-999	1	[-999, -999, -999]	n/a	catFR1	0	R1445E
459.697	2.183	468195	DISTRACT_END	n/a	n/a	n/a	n/a	-999	1	[0, 0, 0]	n/a	catFR1	0	R1445E
461.88	4.855	470369	REC_START	n/a	n/a	n/a	n/a	-999	1	[0, 0, 0]	n/a	catFR1	0	R1445E
466.735	2.218	475226	REC_WORD	2.218	n/a	ARM	BodyParts	1	1	[0, 0, 0]	n/a	catFR1	0	R1445E
468.953	2.364	477444	REC_WORD	2.364	n/a	ELBOW	BodyParts	8	1	[0, 0, 0]	n/a	catFR1	0	R1445E
471.317	20.153	479808	REC_WORD	20.153	n/a	FINGER	n/a	-999	1	[0, 0, 0]	n/a	catFR1	0	R1445E
491.47	0.679	499961	REC_WORD	0.679	n/a	DOLPHIN	OceanAnimals	10	1	[0, 0, 0]	n/a	catFR1	0	R1445E
492.149	6.229	500638	REC_END	n/a	n/a	n/a	n/a	-999	1	[0, 0, 0]	n/a	catFR1	0	R1445E
498.378	10.368	506869	COUNTDOWN_START	n/a	n/a	n/a	n/a	-999	2	[0, 0, 0]	n/a	catFR1	0	R1445E
508.746	0.0	517236	COUNTDOWN_END	n/a	n/a	n/a	n/a	-999	2	[0, 0, 0]	n/a	catFR1	0	R1445E
508.746	1.899	517236	ENCODING_START	n/a	n/a	n/a	n/a	-999	2	[0, 0, 0]	n/a	catFR1	0	R1445E
510.645	1.617	519136	WORD	n/a	wordpools/wordpool_categorized_EN.txt	LION	Zoo	1	2	[0, 0, 0]	n/a	catFR1	0	R1445E
512.262	0.966	520757	WORD_OFF	n/a	n/a	LION	Zoo	1	2	[0, 0, 0]	n/a	catFR1	0	R1445E
513.228	1.6	521721	WORD	n/a	wordpools/wordpool_categorized_EN.txt	GORILLA	Zoo	2	2	[0, 0, 0]	n/a	catFR1	0	R1445E
514.828	0.867	523328	WORD_OFF	n/a	n/a	GORILLA	Zoo	2	2	[0, 0, 0]	n/a	catFR1	0	R1445E
515.695	1.615	524194	WORD	n/a	wordpools/wordpool_categorized_EN.txt	WOODS	Landscapes	3	2	[0, 0, 0]	n/a	catFR1	0	R1445E
517.31	0.868	525801	WORD_OFF	n/a	n/a	WOODS	Landscapes	3	2	[0, 0, 0]	n/a	catFR1	0	R1445E
518.178	1.6	526667	WORD	n/a	wordpools/wordpool_categorized_EN.txt	STREAM	Landscapes	4	2	[0, 0, 0]	n/a	catFR1	0	R1445E
519.778	0.95	528274	WORD_OFF	n/a	n/a	STREAM	Landscapes	4	2	[0, 0, 0]	n/a	catFR1	0	R1445E
520.728	1.6	529224	WORD	n/a	wordpools/wordpool_categorized_EN.txt	RAIN	Weather	5	2	[0, 0, 0]	n/a	catFR1	0	R1445E
522.328	0.967	530817	WORD_OFF	n/a	n/a	RAIN	Weather	5	2	[0, 0, 0]	n/a	catFR1	0	R1445E
523.295	1.615	531781	WORD	n/a	wordpools/wordpool_categorized_EN.txt	SNOW	Weather	6	2	[0, 0, 0]	n/a	catFR1	0	R1445E
524.91	0.968	533402	WORD_OFF	n/a	n/a	SNOW	Weather	6	2	[0, 0, 0]	n/a	catFR1	0	R1445E
525.878	1.6	534366	WORD	n/a	wordpools/wordpool_categorized_EN.txt	FOREST	Landscapes	7	2	[0, 0, 0]	n/a	catFR1	0	R1445E
527.478	0.866	535972	WORD_OFF	n/a	n/a	FOREST	Landscapes	7	2	[0, 0, 0]	n/a	catFR1	0	R1445E
528.344	1.601	536839	WORD	n/a	wordpools/wordpool_categorized_EN.txt	LAKE	Landscapes	8	2	[0, 0, 0]	n/a	catFR1	0	R1445E
529.945	0.916	538445	WORD_OFF	n/a	n/a	LAKE	Landscapes	8	2	[0, 0, 0]	n/a	catFR1	0	R1445E
530.861	1.616	539354	WORD	n/a	wordpools/wordpool_categorized_EN.txt	ORANGUTAN	Zoo	9	2	[0, 0, 0]	n/a	catFR1	0	R1445E
532.477	0.984	540974	WORD_OFF	n/a	n/a	ORANGUTAN	Zoo	9	2	[0, 0, 0]	n/a	catFR1	0	R1445E
533.461	1.616	541952	WORD	n/a	wordpools/wordpool_categorized_EN.txt	MONKEY	Zoo	10	2	[0, 0, 0]	n/a	catFR1	0	R1445E
535.077	0.984	543573	WORD_OFF	n/a	n/a	MONKEY	Zoo	10	2	[0, 0, 0]	n/a	catFR1	0	R1445E
536.061	1.6	544551	WORD	n/a	wordpools/wordpool_categorized_EN.txt	TORNADO	Weather	11	2	[0, 0, 0]	n/a	catFR1	0	R1445E
537.661	0.917	546158	WORD_OFF	n/a	n/a	TORNADO	Weather	11	2	[0, 0, 0]	n/a	catFR1	0	R1445E
538.578	1.617	547066	WORD	n/a	wordpools/wordpool_categorized_EN.txt	THUNDER	Weather	12	2	[0, 0, 0]	n/a	catFR1	0	R1445E
540.195	0.0	548686	PROB	0.0	n/a	n/a	n/a	-999	2	[7, 7, 2]	16	catFR1	0	R1445E
540.194	0.002	548687	WORD_OFF	n/a	n/a	THUNDER	Weather	12	2	[0, 0, 0]	n/a	catFR1	0	R1445E
540.196	0.0	548687	ENCODING_END	n/a	n/a	n/a	n/a	-999	2	[0, 0, 0]	n/a	catFR1	0	R1445E
540.196	0.0	548687	DISTRACT_START	n/a	n/a	n/a	n/a	-999	2	[0, 0, 0]	n/a	catFR1	0	R1445E
540.196	6.665	548687	START	n/a	n/a	n/a	n/a	-999	2	[-999, -999, -999]	n/a	catFR1	0	R1445E
546.861	7.45	555352	PROB	7.45	n/a	n/a	n/a	-999	2	[3, 4, 5]	12	catFR1	0	R1445E
554.311	4.799	562802	PROB	4.799	n/a	n/a	n/a	-999	2	[1, 6, 2]	9	catFR1	0	R1445E
559.11	5.617	567601	PROB	5.617	n/a	n/a	n/a	-999	2	[4, 3, 3]	10	catFR1	0	R1445E
564.727	0.0	573218	STOP	n/a	n/a	n/a	n/a	-999	2	[-999, -999, -999]	n/a	catFR1	0	R1445E
564.727	2.366	573221	DISTRACT_END	n/a	n/a	n/a	n/a	-999	2	[0, 0, 0]	n/a	catFR1	0	R1445E
567.093	6.315	575591	REC_START	n/a	n/a	n/a	n/a	-999	2	[0, 0, 0]	n/a	catFR1	0	R1445E
573.408	5.558	581899	REC_WORD	5.558	n/a	FOREST	Landscapes	7	2	[0, 0, 0]	n/a	catFR1	0	R1445E
578.966	18.142	587457	REC_WORD	18.142	n/a	GORILLA	Zoo	2	2	[0, 0, 0]	n/a	catFR1	0	R1445E
597.108	0.274	605599	REC_WORD_VV	0.274	n/a	<>	n/a	-999	2	[0, 0, 0]	n/a	catFR1	0	R1445E
597.382	2.577	605873	REC_END	n/a	n/a	n/a	n/a	-999	2	[0, 0, 0]	n/a	catFR1	0	R1445E
599.959	10.349	608458	COUNTDOWN_START	n/a	n/a	n/a	n/a	-999	3	[0, 0, 0]	n/a	catFR1	0	R1445E
610.308	0.0	618797	COUNTDOWN_END	n/a	n/a	n/a	n/a	-999	3	[0, 0, 0]	n/a	catFR1	0	R1445E
610.308	2.201	618797	ENCODING_START	n/a	n/a	n/a	n/a	-999	3	[0, 0, 0]	n/a	catFR1	0	R1445E
612.509	1.599	621005	WORD	n/a	wordpools/wordpool_categorized_EN.txt	TURKEY	FarmAnimals	1	3	[0, 0, 0]	n/a	catFR1	0	R1445E
614.108	0.816	622598	WORD_OFF	n/a	n/a	TURKEY	FarmAnimals	1	3	[0, 0, 0]	n/a	catFR1	0	R1445E
614.924	1.601	623422	WORD	n/a	wordpools/wordpool_categorized_EN.txt	COW	FarmAnimals	2	3	[0, 0, 0]	n/a	catFR1	0	R1445E
616.525	1.016	625015	WORD_OFF	n/a	n/a	COW	FarmAnimals	2	3	[0, 0, 0]	n/a	catFR1	0	R1445E
617.541	1.601	626035	WORD	n/a	wordpools/wordpool_categorized_EN.txt	MIXER	Appliances	3	3	[0, 0, 0]	n/a	catFR1	0	R1445E
619.142	0.883	627642	WORD_OFF	n/a	n/a	MIXER	Appliances	3	3	[0, 0, 0]	n/a	catFR1	0	R1445E
620.025	1.6	628522	WORD	n/a	wordpools/wordpool_categorized_EN.txt	DRYER	Appliances	4	3	[0, 0, 0]	n/a	catFR1	0	R1445E
621.625	0.95	630115	WORD_OFF	n/a	n/a	DRYER	Appliances	4	3	[0, 0, 0]	n/a	catFR1	0	R1445E
622.575	1.616	631065	WORD	n/a	wordpools/wordpool_categorized_EN.txt	FLY	Insects	5	3	[0, 0, 0]	n/a	catFR1	0	R1445E
624.191	0.883	632685	WORD_OFF	n/a	n/a	FLY	Insects	5	3	[0, 0, 0]	n/a	catFR1	0	R1445E
625.074	1.601	633566	WORD	n/a	wordpools/wordpool_categorized_EN.txt	BEETLE	Insects	6	3	[0, 0, 0]	n/a	catFR1	0	R1445E
626.675	0.85	635172	WORD_OFF	n/a	n/a	BEETLE	Insects	6	3	[0, 0, 0]	n/a	catFR1	0	R1445E
627.525	1.6	636025	WORD	n/a	wordpools/wordpool_categorized_EN.txt	CALF	FarmAnimals	7	3	[0, 0, 0]	n/a	catFR1	0	R1445E
629.125	0.883	637617	WORD_OFF	n/a	n/a	CALF	FarmAnimals	7	3	[0, 0, 0]	n/a	catFR1	0	R1445E
630.008	1.616	638498	WORD	n/a	wordpools/wordpool_categorized_EN.txt	GOAT	FarmAnimals	8	3	[0, 0, 0]	n/a	catFR1	0	R1445E
631.624	0.8	640118	WORD_OFF	n/a	n/a	GOAT	FarmAnimals	8	3	[0, 0, 0]	n/a	catFR1	0	R1445E
632.424	1.6	640915	WORD	n/a	wordpools/wordpool_categorized_EN.txt	TOASTER	Appliances	9	3	[0, 0, 0]	n/a	catFR1	0	R1445E
634.024	0.934	642522	WORD_OFF	n/a	n/a	TOASTER	Appliances	9	3	[0, 0, 0]	n/a	catFR1	0	R1445E
634.958	1.6	643458	WORD	n/a	wordpools/wordpool_categorized_EN.txt	REFRIGERATOR	Appliances	10	3	[0, 0, 0]	n/a	catFR1	0	R1445E
636.558	0.882	645050	WORD_OFF	n/a	n/a	REFRIGERATOR	Appliances	10	3	[0, 0, 0]	n/a	catFR1	0	R1445E
637.44	1.601	645931	WORD	n/a	wordpools/wordpool_categorized_EN.txt	ANT	Insects	11	3	[0, 0, 0]	n/a	catFR1	0	R1445E
639.041	0.799	647537	WORD_OFF	n/a	n/a	ANT	Insects	11	3	[0, 0, 0]	n/a	catFR1	0	R1445E
639.84	1.618	648334	WORD	n/a	wordpools/wordpool_categorized_EN.txt	CRICKET	Insects	12	3	[0, 0, 0]	n/a	catFR1	0	R1445E
641.458	0.001	649949	PROB	0.001	n/a	n/a	n/a	-999	3	[3, 5, 1]	9	catFR1	0	R1445E
641.459	0.0	649950	START	n/a	n/a	n/a	n/a	-999	3	[-999, -999, -999]	n/a	catFR1	0	R1445E
641.457	0.002	649955	WORD_OFF	n/a	n/a	CRICKET	Insects	12	3	[0, 0, 0]	n/a	catFR1	0	R1445E
641.459	0.0	649955	ENCODING_END	n/a	n/a	n/a	n/a	-999	3	[0, 0, 0]	n/a	catFR1	0	R1445E
641.459	4.782	649955	DISTRACT_START	n/a	n/a	n/a	n/a	-999	3	[0, 0, 0]	n/a	catFR1	0	R1445E
646.241	5.033	654732	PROB	5.033	n/a	n/a	n/a	-999	3	[3, 1, 7]	11	catFR1	0	R1445E
651.274	4.45	659765	PROB	4.45	n/a	n/a	n/a	-999	3	[6, 4, 4]	14	catFR1	0	R1445E
655.724	4.65	664215	PROB	4.65	n/a	n/a	n/a	-999	3	[6, 5, 1]	12	catFR1	0	R1445E
660.374	3.649	668865	PROB	3.649	n/a	n/a	n/a	-999	3	[1, 5, 3]	9	catFR1	0	R1445E
664.023	0.0	672514	STOP	n/a	n/a	n/a	n/a	-999	3	[-999, -999, -999]	n/a	catFR1	0	R1445E
664.023	2.317	672519	DISTRACT_END	n/a	n/a	n/a	n/a	-999	3	[0, 0, 0]	n/a	catFR1	0	R1445E
666.34	3.163	674832	REC_START	n/a	n/a	n/a	n/a	-999	3	[0, 0, 0]	n/a	catFR1	0	R1445E
669.503	0.58	677994	REC_WORD	0.58	n/a	TURKEY	FarmAnimals	1	3	[0, 0, 0]	n/a	catFR1	0	R1445E
670.083	0.594	678574	REC_WORD	0.594	n/a	COW	FarmAnimals	2	3	[0, 0, 0]	n/a	catFR1	0	R1445E
670.677	25.935	679168	REC_WORD	25.935	n/a	GOAT	FarmAnimals	8	3	[0, 0, 0]	n/a	catFR1	0	R1445E
696.612	3.177	705101	REC_END	n/a	n/a	n/a	n/a	-999	3	[0, 0, 0]	n/a	catFR1	0	R1445E
699.789	10.348	708287	COUNTDOWN_START	n/a	n/a	n/a	n/a	-999	4	[0, 0, 0]	n/a	catFR1	0	R1445E
710.137	0.0	718626	COUNTDOWN_END	n/a	n/a	n/a	n/a	-999	4	[0, 0, 0]	n/a	catFR1	0	R1445E
710.137	2.118	718626	ENCODING_START	n/a	n/a	n/a	n/a	-999	4	[0, 0, 0]	n/a	catFR1	0	R1445E
712.255	1.617	720750	WORD	n/a	wordpools/wordpool_categorized_EN.txt	STOVE	Appliances	1	4	[0, 0, 0]	n/a	catFR1	0	R1445E
713.872	0.966	722370	WORD_OFF	n/a	n/a	STOVE	Appliances	1	4	[0, 0, 0]	n/a	catFR1	0	R1445E
714.838	1.617	723334	WORD	n/a	wordpools/wordpool_categorized_EN.txt	OVEN	Appliances	2	4	[0, 0, 0]	n/a	catFR1	0	R1445E
716.455	0.833	724955	WORD_OFF	n/a	n/a	OVEN	Appliances	2	4	[0, 0, 0]	n/a	catFR1	0	R1445E
717.288	1.616	725780	WORD	n/a	wordpools/wordpool_categorized_EN.txt	CROW	Birds	3	4	[0, 0, 0]	n/a	catFR1	0	R1445E
718.904	0.834	727400	WORD_OFF	n/a	n/a	CROW	Birds	3	4	[0, 0, 0]	n/a	catFR1	0	R1445E
719.738	1.616	728239	WORD	n/a	wordpools/wordpool_categorized_EN.txt	FINCH	Birds	4	4	[0, 0, 0]	n/a	catFR1	0	R1445E
721.354	0.901	729845	WORD_OFF	n/a	n/a	FINCH	Birds	4	4	[0, 0, 0]	n/a	catFR1	0	R1445E
722.255	1.616	730754	WORD	n/a	wordpools/wordpool_categorized_EN.txt	PRINTER	Electronics	5	4	[0, 0, 0]	n/a	catFR1	0	R1445E
723.871	0.767	732360	WORD_OFF	n/a	n/a	PRINTER	Electronics	5	4	[0, 0, 0]	n/a	catFR1	0	R1445E
724.638	1.6	733129	WORD	n/a	wordpools/wordpool_categorized_EN.txt	TABLET	Electronics	6	4	[0, 0, 0]	n/a	catFR1	0	R1445E
726.238	0.8	734736	WORD_OFF	n/a	n/a	TABLET	Electronics	6	4	[0, 0, 0]	n/a	catFR1	0	R1445E
727.038	1.6	735532	WORD	n/a	wordpools/wordpool_categorized_EN.txt	VACUUM	Appliances	7	4	[0, 0, 0]	n/a	catFR1	0	R1445E
728.638	0.998	737125	WORD_OFF	n/a	n/a	VACUUM	Appliances	7	4	[0, 0, 0]	n/a	catFR1	0	R1445E
729.636	1.602	738131	WORD	n/a	wordpools/wordpool_categorized_EN.txt	WASHER	Appliances	8	4	[0, 0, 0]	n/a	catFR1	0	R1445E
731.238	0.916	739737	WORD_OFF	n/a	n/a	WASHER	Appliances	8	4	[0, 0, 0]	n/a	catFR1	0	R1445E
732.154	1.6	740646	WORD	n/a	wordpools/wordpool_categorized_EN.txt	SPEAKER	Electronics	9	4	[0, 0, 0]	n/a	catFR1	0	R1445E
733.754	0.936	742252	WORD_OFF	n/a	n/a	SPEAKER	Electronics	9	4	[0, 0, 0]	n/a	catFR1	0	R1445E
734.69	1.598	743188	WORD	n/a	wordpools/wordpool_categorized_EN.txt	COMPUTER	Electronics	10	4	[0, 0, 0]	n/a	catFR1	0	R1445E
736.288	0.833	744781	WORD_OFF	n/a	n/a	COMPUTER	Electronics	10	4	[0, 0, 0]	n/a	catFR1	0	R1445E
737.121	1.617	745620	WORD	n/a	wordpools/wordpool_categorized_EN.txt	PIGEON	Birds	11	4	[0, 0, 0]	n/a	catFR1	0	R1445E
738.738	0.815	747226	WORD_OFF	n/a	n/a	PIGEON	Birds	11	4	[0, 0, 0]	n/a	catFR1	0	R1445E
739.553	1.601	748051	WORD	n/a	wordpools/wordpool_categorized_EN.txt	DOVE	Birds	12	4	[0, 0, 0]	n/a	catFR1	0	R1445E
741.154	0.001	749643	WORD_OFF	n/a	n/a	DOVE	Birds	12	4	[0, 0, 0]	n/a	catFR1	0	R1445E
741.155	0.0	749643	ENCODING_END	n/a	n/a	n/a	n/a	-999	4	[0, 0, 0]	n/a	catFR1	0	R1445E
741.155	0.0	749643	DISTRACT_START	n/a	n/a	n/a	n/a	-999	4	[0, 0, 0]	n/a	catFR1	0	R1445E
741.154	0.001	749645	PROB	0.001	n/a	n/a	n/a	-999	4	[1, 5, 5]	11	catFR1	0	R1445E
741.155	4.299	749646	START	n/a	n/a	n/a	n/a	-999	4	[-999, -999, -999]	n/a	catFR1	0	R1445E
745.454	4.784	753945	PROB	4.784	n/a	n/a	n/a	-999	4	[8, 6, 4]	18	catFR1	0	R1445E
750.238	5.95	758729	PROB	5.95	n/a	n/a	n/a	-999	4	[8, 3, 8]	19	catFR1	0	R1445E
756.188	3.816	764679	PROB	3.816	n/a	n/a	n/a	-999	4	[1, 6, 5]	12	catFR1	0	R1445E
760.004	4.132	768495	PROB	4.132	n/a	n/a	n/a	-999	4	[7, 5, 3]	15	catFR1	0	R1445E
764.136	0.0	772627	DISTRACT_END	n/a	n/a	n/a	n/a	-999	4	[0, 0, 0]	n/a	catFR1	0	R1445E
764.136	2.384	772627	STOP	n/a	n/a	n/a	n/a	-999	4	[-999, -999, -999]	n/a	catFR1	0	R1445E
766.52	2.034	775010	REC_START	n/a	n/a	n/a	n/a	-999	4	[0, 0, 0]	n/a	catFR1	0	R1445E
768.554	0.701	777045	REC_WORD	0.701	n/a	STOVE	Appliances	1	4	[0, 0, 0]	n/a	catFR1	0	R1445E
769.255	1.495	777746	REC_WORD	1.495	n/a	OVEN	Appliances	2	4	[0, 0, 0]	n/a	catFR1	0	R1445E
770.75	16.929	779241	REC_WORD	16.929	n/a	VACUUM	Appliances	7	4	[0, 0, 0]	n/a	catFR1	0	R1445E
787.679	9.127	796170	REC_WORD	9.127	n/a	COW	FarmAnimals	-999	4	[0, 0, 0]	n/a	catFR1	0	R1445E
796.806	2.313	805293	REC_END	n/a	n/a	n/a	n/a	-999	4	[0, 0, 0]	n/a	catFR1	0	R1445E
799.119	10.348	807613	COUNTDOWN_START	n/a	n/a	n/a	n/a	-999	5	[0, 0, 0]	n/a	catFR1	0	R1445E
809.467	0.0	817966	COUNTDOWN_END	n/a	n/a	n/a	n/a	-999	5	[0, 0, 0]	n/a	catFR1	0	R1445E
809.467	2.051	817966	ENCODING_START	n/a	n/a	n/a	n/a	-999	5	[0, 0, 0]	n/a	catFR1	0	R1445E
811.518	1.6	820006	WORD	n/a	wordpools/wordpool_categorized_EN.txt	SODA	Beverages	1	5	[0, 0, 0]	n/a	catFR1	0	R1445E
813.118	0.867	821612	WORD_OFF	n/a	n/a	SODA	Beverages	1	5	[0, 0, 0]	n/a	catFR1	0	R1445E
813.985	1.617	822479	WORD	n/a	wordpools/wordpool_categorized_EN.txt	WINE	Beverages	2	5	[0, 0, 0]	n/a	catFR1	0	R1445E
815.602	0.983	824099	WORD_OFF	n/a	n/a	WINE	Beverages	2	5	[0, 0, 0]	n/a	catFR1	0	R1445E
816.585	1.616	825077	WORD	n/a	wordpools/wordpool_categorized_EN.txt	CAR	Vehicles	3	5	[0, 0, 0]	n/a	catFR1	0	R1445E
818.201	0.967	826698	WORD_OFF	n/a	n/a	CAR	Vehicles	3	5	[0, 0, 0]	n/a	catFR1	0	R1445E
819.168	1.617	827662	WORD	n/a	wordpools/wordpool_categorized_EN.txt	MOTORCYCLE	Vehicles	4	5	[0, 0, 0]	n/a	catFR1	0	R1445E
820.785	0.983	829283	WORD_OFF	n/a	n/a	MOTORCYCLE	Vehicles	4	5	[0, 0, 0]	n/a	catFR1	0	R1445E
821.768	1.616	830261	WORD	n/a	wordpools/wordpool_categorized_EN.txt	ROBIN	Birds	5	5	[0, 0, 0]	n/a	catFR1	0	R1445E
823.384	0.884	831882	WORD_OFF	n/a	n/a	ROBIN	Birds	5	5	[0, 0, 0]	n/a	catFR1	0	R1445E
824.268	1.6	832762	WORD	n/a	wordpools/wordpool_categorized_EN.txt	GOOSE	Birds	6	5	[0, 0, 0]	n/a	catFR1	0	R1445E
825.868	0.966	834355	WORD_OFF	n/a	n/a	GOOSE	Birds	6	5	[0, 0, 0]	n/a	catFR1	0	R1445E
826.834	1.601	835333	WORD	n/a	wordpools/wordpool_categorized_EN.txt	BIKE	Vehicles	7	5	[0, 0, 0]	n/a	catFR1	0	R1445E
828.435	0.781	836925	WORD_OFF	n/a	n/a	BIKE	Vehicles	7	5	[0, 0, 0]	n/a	catFR1	0	R1445E
829.216	1.602	837708	WORD	n/a	wordpools/wordpool_categorized_EN.txt	SCOOTER	Vehicles	8	5	[0, 0, 0]	n/a	catFR1	0	R1445E
830.818	0.933	839315	WORD_OFF	n/a	n/a	SCOOTER	Vehicles	8	5	[0, 0, 0]	n/a	catFR1	0	R1445E
831.751	1.615	840251	WORD	n/a	wordpools/wordpool_categorized_EN.txt	RUM	Beverages	9	5	[0, 0, 0]	n/a	catFR1	0	R1445E
833.366	0.885	841857	WORD_OFF	n/a	n/a	RUM	Beverages	9	5	[0, 0, 0]	n/a	catFR1	0	R1445E
834.251	1.6	842738	WORD	n/a	wordpools/wordpool_categorized_EN.txt	TEA	Beverages	10	5	[0, 0, 0]	n/a	catFR1	0	R1445E
835.851	0.815	844344	WORD_OFF	n/a	n/a	TEA	Beverages	10	5	[0, 0, 0]	n/a	catFR1	0	R1445E
836.666	1.601	845155	WORD	n/a	wordpools/wordpool_categorized_EN.txt	HAWK	Birds	11	5	[0, 0, 0]	n/a	catFR1	0	R1445E
838.267	0.834	846762	WORD_OFF	n/a	n/a	HAWK	Birds	11	5	[0, 0, 0]	n/a	catFR1	0	R1445E
839.101	1.616	847600	WORD	n/a	wordpools/wordpool_categorized_EN.txt	DUCK	Birds	12	5	[0, 0, 0]	n/a	catFR1	0	R1445E
840.717	0.002	849207	WORD_OFF	n/a	n/a	DUCK	Birds	12	5	[0, 0, 0]	n/a	catFR1	0	R1445E
840.719	0.0	849207	ENCODING_END	n/a	n/a	n/a	n/a	-999	5	[0, 0, 0]	n/a	catFR1	0	R1445E
840.718	0.001	849209	PROB	0.001	n/a	n/a	n/a	-999	5	[3, 7, 7]	17	catFR1	0	R1445E
840.719	0.0	849210	START	n/a	n/a	n/a	n/a	-999	5	[-999, -999, -999]	n/a	catFR1	0	R1445E
840.719	5.315	849221	DISTRACT_START	n/a	n/a	n/a	n/a	-999	5	[0, 0, 0]	n/a	catFR1	0	R1445E
846.034	3.5	854525	PROB	3.5	n/a	n/a	n/a	-999	5	[1, 2, 3]	6	catFR1	0	R1445E
849.534	4.599	858025	PROB	4.599	n/a	n/a	n/a	-999	5	[2, 3, 4]	9	catFR1	0	R1445E
854.133	4.785	862624	PROB	4.785	n/a	n/a	n/a	-999	5	[7, 7, 3]	17	catFR1	0	R1445E
858.918	4.864	867409	PROB	4.864	n/a	n/a	n/a	-999	5	[3, 6, 4]	13	catFR1	0	R1445E
863.782	0.0	872273	STOP	n/a	n/a	n/a	n/a	-999	5	[-999, -999, -999]	n/a	catFR1	0	R1445E
863.782	2.384	872274	DISTRACT_END	n/a	n/a	n/a	n/a	-999	5	[0, 0, 0]	n/a	catFR1	0	R1445E
866.166	1.825	874657	REC_START	n/a	n/a	n/a	n/a	-999	5	[0, 0, 0]	n/a	catFR1	0	R1445E
867.991	0.504	876482	REC_WORD	0.504	n/a	CAR	Vehicles	3	5	[0, 0, 0]	n/a	catFR1	0	R1445E
868.495	0.936	876986	REC_WORD	0.936	n/a	BIKE	Vehicles	7	5	[0, 0, 0]	n/a	catFR1	0	R1445E
869.431	27.038	877922	REC_WORD	27.038	n/a	MOTORCYCLE	Vehicles	4	5	[0, 0, 0]	n/a	catFR1	0	R1445E
896.469	1.728	904968	REC_END	n/a	n/a	n/a	n/a	-999	5	[0, 0, 0]	n/a	catFR1	0	R1445E
898.197	10.351	906687	COUNTDOWN_START	n/a	n/a	n/a	n/a	-999	6	[0, 0, 0]	n/a	catFR1	0	R1445E
908.548	0.0	917040	COUNTDOWN_END	n/a	n/a	n/a	n/a	-999	6	[0, 0, 0]	n/a	catFR1	0	R1445E
908.548	2.217	917040	ENCODING_START	n/a	n/a	n/a	n/a	-999	6	[0, 0, 0]	n/a	catFR1	0	R1445E
910.765	1.616	919261	WORD	n/a	wordpools/wordpool_categorized_EN.txt	DOOR	Building	1	6	[0, 0, 0]	n/a	catFR1	0	R1445E
912.381	0.9	920868	WORD_OFF	n/a	n/a	DOOR	Building	1	6	[0, 0, 0]	n/a	catFR1	0	R1445E
913.281	1.601	921776	WORD	n/a	wordpools/wordpool_categorized_EN.txt	FOUNDATION	Building	2	6	[0, 0, 0]	n/a	catFR1	0	R1445E
914.882	0.833	923369	WORD_OFF	n/a	n/a	FOUNDATION	Building	2	6	[0, 0, 0]	n/a	catFR1	0	R1445E
915.715	1.615	924207	WORD	n/a	wordpools/wordpool_categorized_EN.txt	CELERY	Vegetables	3	6	[0, 0, 0]	n/a	catFR1	0	R1445E
917.33	0.885	925828	WORD_OFF	n/a	n/a	CELERY	Vegetables	3	6	[0, 0, 0]	n/a	catFR1	0	R1445E
918.215	1.616	926708	WORD	n/a	wordpools/wordpool_categorized_EN.txt	LETTUCE	Vegetables	4	6	[0, 0, 0]	n/a	catFR1	0	R1445E
919.831	0.9	928329	WORD_OFF	n/a	n/a	LETTUCE	Vegetables	4	6	[0, 0, 0]	n/a	catFR1	0	R1445E
920.731	1.617	929223	WORD	n/a	wordpools/wordpool_categorized_EN.txt	ZEBRA	Zoo	5	6	[0, 0, 0]	n/a	catFR1	0	R1445E
922.348	0.983	930844	WORD_OFF	n/a	n/a	ZEBRA	Zoo	5	6	[0, 0, 0]	n/a	catFR1	0	R1445E
923.331	1.6	931822	WORD	n/a	wordpools/wordpool_categorized_EN.txt	BEAR	Zoo	6	6	[0, 0, 0]	n/a	catFR1	0	R1445E
924.931	0.917	933429	WORD_OFF	n/a	n/a	BEAR	Zoo	6	6	[0, 0, 0]	n/a	catFR1	0	R1445E
925.848	1.6	934337	WORD	n/a	wordpools/wordpool_categorized_EN.txt	ATTIC	Building	7	6	[0, 0, 0]	n/a	catFR1	0	R1445E
927.448	0.95	935944	WORD_OFF	n/a	n/a	ATTIC	Building	7	6	[0, 0, 0]	n/a	catFR1	0	R1445E
928.398	1.616	936894	WORD	n/a	wordpools/wordpool_categorized_EN.txt	FLOOR	Building	8	6	[0, 0, 0]	n/a	catFR1	0	R1445E
930.014	0.767	938514	WORD_OFF	n/a	n/a	FLOOR	Building	8	6	[0, 0, 0]	n/a	catFR1	0	R1445E
930.781	1.617	939269	WORD	n/a	wordpools/wordpool_categorized_EN.txt	CARROT	Vegetables	9	6	[0, 0, 0]	n/a	catFR1	0	R1445E
932.398	0.816	940890	WORD_OFF	n/a	n/a	CARROT	Vegetables	9	6	[0, 0, 0]	n/a	catFR1	0	R1445E
933.214	1.617	941714	WORD	n/a	wordpools/wordpool_categorized_EN.txt	CORN	Vegetables	10	6	[0, 0, 0]	n/a	catFR1	0	R1445E
934.831	0.949	943321	WORD_OFF	n/a	n/a	CORN	Vegetables	10	6	[0, 0, 0]	n/a	catFR1	0	R1445E
935.78	1.601	944271	WORD	n/a	wordpools/wordpool_categorized_EN.txt	TIGER	Zoo	11	6	[0, 0, 0]	n/a	catFR1	0	R1445E
937.381	0.8	945878	WORD_OFF	n/a	n/a	TIGER	Zoo	11	6	[0, 0, 0]	n/a	catFR1	0	R1445E
938.181	1.616	946674	WORD	n/a	wordpools/wordpool_categorized_EN.txt	GIRAFFE	Zoo	12	6	[0, 0, 0]	n/a	catFR1	0	R1445E
939.797	0.002	948288	PROB	0.002	n/a	n/a	n/a	-999	6	[3, 7, 2]	12	catFR1	0	R1445E
939.799	0.0	948290	START	n/a	n/a	n/a	n/a	-999	6	[-999, -999, -999]	n/a	catFR1	0	R1445E
939.797	0.002	948295	WORD_OFF	n/a	n/a	GIRAFFE	Zoo	12	6	[0, 0, 0]	n/a	catFR1	0	R1445E
939.799	0.0	948295	ENCODING_END	n/a	n/a	n/a	n/a	-999	6	[0, 0, 0]	n/a	catFR1	0	R1445E
939.799	4.765	948295	DISTRACT_START	n/a	n/a	n/a	n/a	-999	6	[0, 0, 0]	n/a	catFR1	0	R1445E
944.564	6.333	953055	PROB	6.333	n/a	n/a	n/a	-999	6	[5, 8, 6]	19	catFR1	0	R1445E
950.897	6.616	959388	PROB	6.616	n/a	n/a	n/a	-999	6	[2, 7, 7]	16	catFR1	0	R1445E
957.513	5.699	966004	PROB	5.699	n/a	n/a	n/a	-999	6	[8, 8, 7]	21	catFR1	0	R1445E
963.212	0.0	971703	STOP	n/a	n/a	n/a	n/a	-999	6	[-999, -999, -999]	n/a	catFR1	0	R1445E
963.212	2.267	971712	DISTRACT_END	n/a	n/a	n/a	n/a	-999	6	[0, 0, 0]	n/a	catFR1	0	R1445E
965.479	7.139	973969	REC_START	n/a	n/a	n/a	n/a	-999	6	[0, 0, 0]	n/a	catFR1	0	R1445E
972.618	0.633	981109	REC_WORD	0.633	n/a	ATTIC	Building	7	6	[0, 0, 0]	n/a	catFR1	0	R1445E
973.251	22.507	981742	REC_WORD	22.507	n/a	ROOF	n/a	-999	6	[0, 0, 0]	n/a	catFR1	0	R1445E
995.758	1.754	1004252	REC_END	n/a	n/a	n/a	n/a	-999	6	[0, 0, 0]	n/a	catFR1	0	R1445E
997.512	10.35	1006012	COUNTDOWN_START	n/a	n/a	n/a	n/a	-999	7	[0, 0, 0]	n/a	catFR1	0	R1445E
1007.862	0.0	1016352	COUNTDOWN_END	n/a	n/a	n/a	n/a	-999	7	[0, 0, 0]	n/a	catFR1	0	R1445E
1007.862	2.016	1016352	ENCODING_START	n/a	n/a	n/a	n/a	-999	7	[0, 0, 0]	n/a	catFR1	0	R1445E
1009.878	1.617	1018377	WORD	n/a	wordpools/wordpool_categorized_EN.txt	ERASER	OfficeSupplies	1	7	[0, 0, 0]	n/a	catFR1	0	R1445E
1011.495	0.865	1019984	WORD_OFF	n/a	n/a	ERASER	OfficeSupplies	1	7	[0, 0, 0]	n/a	catFR1	0	R1445E
1012.36	1.601	1020850	WORD	n/a	wordpools/wordpool_categorized_EN.txt	NOTEBOOK	OfficeSupplies	2	7	[0, 0, 0]	n/a	catFR1	0	R1445E
1013.961	0.834	1022457	WORD_OFF	n/a	n/a	NOTEBOOK	OfficeSupplies	2	7	[0, 0, 0]	n/a	catFR1	0	R1445E
1014.795	1.616	1023295	WORD	n/a	wordpools/wordpool_categorized_EN.txt	CARDINAL	Birds	3	7	[0, 0, 0]	n/a	catFR1	0	R1445E
1016.411	0.883	1024902	WORD_OFF	n/a	n/a	CARDINAL	Birds	3	7	[0, 0, 0]	n/a	catFR1	0	R1445E
1017.294	1.616	1025782	WORD	n/a	wordpools/wordpool_categorized_EN.txt	SEAGULL	Birds	4	7	[0, 0, 0]	n/a	catFR1	0	R1445E
1018.91	0.885	1027403	WORD_OFF	n/a	n/a	SEAGULL	Birds	4	7	[0, 0, 0]	n/a	catFR1	0	R1445E
1019.795	1.616	1028283	WORD	n/a	wordpools/wordpool_categorized_EN.txt	BALL	Toys	5	7	[0, 0, 0]	n/a	catFR1	0	R1445E
1021.411	0.817	1029904	WORD_OFF	n/a	n/a	BALL	Toys	5	7	[0, 0, 0]	n/a	catFR1	0	R1445E
1022.228	1.6	1030714	WORD	n/a	wordpools/wordpool_categorized_EN.txt	DOLLHOUSE	Toys	6	7	[0, 0, 0]	n/a	catFR1	0	R1445E
1023.828	0.833	1032321	WORD_OFF	n/a	n/a	DOLLHOUSE	Toys	6	7	[0, 0, 0]	n/a	catFR1	0	R1445E
1024.661	1.617	1033160	WORD	n/a	wordpools/wordpool_categorized_EN.txt	SPARROW	Birds	7	7	[0, 0, 0]	n/a	catFR1	0	R1445E
1026.278	0.9	1034766	WORD_OFF	n/a	n/a	SPARROW	Birds	7	7	[0, 0, 0]	n/a	catFR1	0	R1445E
1027.178	1.615	1035674	WORD	n/a	wordpools/wordpool_categorized_EN.txt	BLUEBIRD	Birds	8	7	[0, 0, 0]	n/a	catFR1	0	R1445E
1028.793	0.951	1037281	WORD_OFF	n/a	n/a	BLUEBIRD	Birds	8	7	[0, 0, 0]	n/a	catFR1	0	R1445E
1029.744	1.617	1038231	WORD	n/a	wordpools/wordpool_categorized_EN.txt	MARBLES	Toys	9	7	[0, 0, 0]	n/a	catFR1	0	R1445E
1031.361	0.95	1039852	WORD_OFF	n/a	n/a	MARBLES	Toys	9	7	[0, 0, 0]	n/a	catFR1	0	R1445E
1032.311	1.6	1040802	WORD	n/a	wordpools/wordpool_categorized_EN.txt	DOLL	Toys	10	7	[0, 0, 0]	n/a	catFR1	0	R1445E
1033.911	0.883	1042409	WORD_OFF	n/a	n/a	DOLL	Toys	10	7	[0, 0, 0]	n/a	catFR1	0	R1445E
1034.794	1.6	1043289	WORD	n/a	wordpools/wordpool_categorized_EN.txt	PAPER	OfficeSupplies	11	7	[0, 0, 0]	n/a	catFR1	0	R1445E
1036.394	0.833	1044882	WORD_OFF	n/a	n/a	PAPER	OfficeSupplies	11	7	[0, 0, 0]	n/a	catFR1	0	R1445E
1037.227	1.601	1045720	WORD	n/a	wordpools/wordpool_categorized_EN.txt	MARKER	OfficeSupplies	12	7	[0, 0, 0]	n/a	catFR1	0	R1445E
1038.828	0.001	1047319	PROB	0.001	n/a	n/a	n/a	-999	7	[2, 2, 6]	10	catFR1	0	R1445E
1038.829	0.0	1047320	START	n/a	n/a	n/a	n/a	-999	7	[-999, -999, -999]	n/a	catFR1	0	R1445E
1038.827	0.002	1047327	WORD_OFF	n/a	n/a	MARKER	OfficeSupplies	12	7	[0, 0, 0]	n/a	catFR1	0	R1445E
1038.829	0.0	1047327	ENCODING_END	n/a	n/a	n/a	n/a	-999	7	[0, 0, 0]	n/a	catFR1	0	R1445E
1038.829	6.566	1047327	DISTRACT_START	n/a	n/a	n/a	n/a	-999	7	[0, 0, 0]	n/a	catFR1	0	R1445E
1045.395	4.165	1053886	PROB	4.165	n/a	n/a	n/a	-999	7	[6, 8, 2]	16	catFR1	0	R1445E
1049.56	5.5	1058051	PROB	5.5	n/a	n/a	n/a	-999	7	[4, 5, 1]	10	catFR1	0	R1445E
1055.06	4.816	1063551	PROB	4.816	n/a	n/a	n/a	-999	7	[4, 5, 2]	11	catFR1	0	R1445E
1059.876	0.0	1068367	STOP	n/a	n/a	n/a	n/a	-999	7	[-999, -999, -999]	n/a	catFR1	0	R1445E
1059.876	2.234	1068369	DISTRACT_END	n/a	n/a	n/a	n/a	-999	7	[0, 0, 0]	n/a	catFR1	0	R1445E
1062.11	3.15	1070598	REC_START	n/a	n/a	n/a	n/a	-999	7	[0, 0, 0]	n/a	catFR1	0	R1445E
1065.26	0.664	1073751	REC_WORD	0.664	n/a	MARBLES	Toys	9	7	[0, 0, 0]	n/a	catFR1	0	R1445E
1065.924	4.74	1074415	REC_WORD	4.74	n/a	BALL	Toys	5	7	[0, 0, 0]	n/a	catFR1	0	R1445E
1070.664	2.775	1079155	REC_WORD_VV	2.775	n/a	<>	n/a	-999	7	[0, 0, 0]	n/a	catFR1	0	R1445E
1073.439	18.945	1081930	REC_WORD	18.945	n/a	DOLL	Toys	10	7	[0, 0, 0]	n/a	catFR1	0	R1445E
1092.384	1.49	1100881	REC_END	n/a	n/a	n/a	n/a	-999	7	[0, 0, 0]	n/a	catFR1	0	R1445E
1093.874	10.35	1102376	COUNTDOWN_START	n/a	n/a	n/a	n/a	-999	8	[0, 0, 0]	n/a	catFR1	0	R1445E
1104.224	0.0	1112715	COUNTDOWN_END	n/a	n/a	n/a	n/a	-999	8	[0, 0, 0]	n/a	catFR1	0	R1445E
1104.224	2.3	1112715	ENCODING_START	n/a	n/a	n/a	n/a	-999	8	[0, 0, 0]	n/a	catFR1	0	R1445E
1106.524	1.6	1115020	WORD	n/a	wordpools/wordpool_categorized_EN.txt	COUCH	Furniture	1	8	[0, 0, 0]	n/a	catFR1	0	R1445E
1108.124	0.97	1116613	WORD_OFF	n/a	n/a	COUCH	Furniture	1	8	[0, 0, 0]	n/a	catFR1	0	R1445E
1109.094	1.614	1117591	WORD	n/a	wordpools/wordpool_categorized_EN.txt	DRESSER	Furniture	2	8	[0, 0, 0]	n/a	catFR1	0	R1445E
1110.708	0.966	1119198	WORD_OFF	n/a	n/a	DRESSER	Furniture	2	8	[0, 0, 0]	n/a	catFR1	0	R1445E
1111.674	1.601	1120162	WORD	n/a	wordpools/wordpool_categorized_EN.txt	GRATER	KitchenTools	3	8	[0, 0, 0]	n/a	catFR1	0	R1445E
1113.275	0.783	1121769	WORD_OFF	n/a	n/a	GRATER	KitchenTools	3	8	[0, 0, 0]	n/a	catFR1	0	R1445E
1114.058	1.6	1122551	WORD	n/a	wordpools/wordpool_categorized_EN.txt	SPATULA	KitchenTools	4	8	[0, 0, 0]	n/a	catFR1	0	R1445E
1115.658	0.832	1124158	WORD_OFF	n/a	n/a	SPATULA	KitchenTools	4	8	[0, 0, 0]	n/a	catFR1	0	R1445E
1116.49	1.601	1124982	WORD	n/a	wordpools/wordpool_categorized_EN.txt	GNAT	Insects	5	8	[0, 0, 0]	n/a	catFR1	0	R1445E
1118.091	0.8	1126589	WORD_OFF	n/a	n/a	GNAT	Insects	5	8	[0, 0, 0]	n/a	catFR1	0	R1445E
1118.891	1.617	1127386	WORD	n/a	wordpools/wordpool_categorized_EN.txt	LADYBUG	Insects	6	8	[0, 0, 0]	n/a	catFR1	0	R1445E
1120.508	0.949	1129006	WORD_OFF	n/a	n/a	LADYBUG	Insects	6	8	[0, 0, 0]	n/a	catFR1	0	R1445E
1121.457	1.601	1129956	WORD	n/a	wordpools/wordpool_categorized_EN.txt	BOOKCASE	Furniture	7	8	[0, 0, 0]	n/a	catFR1	0	R1445E
1123.058	0.8	1131549	WORD_OFF	n/a	n/a	BOOKCASE	Furniture	7	8	[0, 0, 0]	n/a	catFR1	0	R1445E
1123.858	1.616	1132346	WORD	n/a	wordpools/wordpool_categorized_EN.txt	BED	Furniture	8	8	[0, 0, 0]	n/a	catFR1	0	R1445E
1125.474	0.917	1133966	WORD_OFF	n/a	n/a	BED	Furniture	8	8	[0, 0, 0]	n/a	catFR1	0	R1445E
1126.391	1.6	1134888	WORD	n/a	wordpools/wordpool_categorized_EN.txt	MOSQUITO	Insects	9	8	[0, 0, 0]	n/a	catFR1	0	R1445E
1127.991	0.983	1136481	WORD_OFF	n/a	n/a	MOSQUITO	Insects	9	8	[0, 0, 0]	n/a	catFR1	0	R1445E
1128.974	1.6	1137473	WORD	n/a	wordpools/wordpool_categorized_EN.txt	MOTH	Insects	10	8	[0, 0, 0]	n/a	catFR1	0	R1445E
1130.574	0.8	1139066	WORD_OFF	n/a	n/a	MOTH	Insects	10	8	[0, 0, 0]	n/a	catFR1	0	R1445E
1131.374	1.6	1139862	WORD	n/a	wordpools/wordpool_categorized_EN.txt	WHISK	KitchenTools	11	8	[0, 0, 0]	n/a	catFR1	0	R1445E
1132.974	0.999	1141469	WORD_OFF	n/a	n/a	WHISK	KitchenTools	11	8	[0, 0, 0]	n/a	catFR1	0	R1445E
1133.973	1.602	1142461	WORD	n/a	wordpools/wordpool_categorized_EN.txt	COLANDER	KitchenTools	12	8	[0, 0, 0]	n/a	catFR1	0	R1445E
1135.575	0.001	1144066	PROB	0.001	n/a	n/a	n/a	-999	8	[7, 1, 3]	11	catFR1	0	R1445E
1135.576	0.0	1144067	START	n/a	n/a	n/a	n/a	-999	8	[-999, -999, -999]	n/a	catFR1	0	R1445E
1135.574	0.001	1144068	WORD_OFF	n/a	n/a	COLANDER	KitchenTools	12	8	[0, 0, 0]	n/a	catFR1	0	R1445E
1135.575	0.001	1144068	ENCODING_END	n/a	n/a	n/a	n/a	-999	8	[0, 0, 0]	n/a	catFR1	0	R1445E
1135.576	3.781	1144068	DISTRACT_START	n/a	n/a	n/a	n/a	-999	8	[0, 0, 0]	n/a	catFR1	0	R1445E
1139.357	4.949	1147848	PROB	4.949	n/a	n/a	n/a	-999	8	[5, 8, 3]	16	catFR1	0	R1445E
1144.306	4.435	1152797	PROB	4.435	n/a	n/a	n/a	-999	8	[1, 4, 5]	10	catFR1	0	R1445E
1148.741	3.699	1157232	PROB	3.699	n/a	n/a	n/a	-999	8	[1, 3, 5]	9	catFR1	0	R1445E
1152.44	7.516	1160931	PROB	7.516	n/a	n/a	n/a	-999	8	[5, 7, 8]	20	catFR1	0	R1445E
1159.956	0.0	1168447	STOP	n/a	n/a	n/a	n/a	-999	8	[-999, -999, -999]	n/a	catFR1	0	R1445E
1159.956	2.151	1168449	DISTRACT_END	n/a	n/a	n/a	n/a	-999	8	[0, 0, 0]	n/a	catFR1	0	R1445E
1162.107	0.685	1170594	REC_START	n/a	n/a	n/a	n/a	-999	8	[0, 0, 0]	n/a	catFR1	0	R1445E
1162.792	0.619	1171283	REC_WORD	0.619	n/a	COUCH	Furniture	1	8	[0, 0, 0]	n/a	catFR1	0	R1445E
1163.411	1.618	1171902	REC_WORD	1.618	n/a	DRESSER	Furniture	2	8	[0, 0, 0]	n/a	catFR1	0	R1445E
1165.029	0.824	1173520	REC_WORD	0.824	n/a	BOOKCASE	Furniture	7	8	[0, 0, 0]	n/a	catFR1	0	R1445E
1165.853	26.548	1174344	REC_WORD	26.548	n/a	BED	Furniture	8	8	[0, 0, 0]	n/a	catFR1	0	R1445E
1192.401	2.438	1200891	REC_END	n/a	n/a	n/a	n/a	-999	8	[0, 0, 0]	n/a	catFR1	0	R1445E
1194.839	10.349	1203336	COUNTDOWN_START	n/a	n/a	n/a	n/a	-999	9	[0, 0, 0]	n/a	catFR1	0	R1445E
1205.188	0.0	1213675	COUNTDOWN_END	n/a	n/a	n/a	n/a	-999	9	[0, 0, 0]	n/a	catFR1	0	R1445E
1205.188	2.217	1213689	ENCODING_START	n/a	n/a	n/a	n/a	-999	9	[0, 0, 0]	n/a	catFR1	0	R1445E
1207.405	1.617	1215897	WORD	n/a	wordpools/wordpool_categorized_EN.txt	TRAIN	Vehicles	1	9	[0, 0, 0]	n/a	catFR1	0	R1445E
1209.022	0.766	1217518	WORD_OFF	n/a	n/a	TRAIN	Vehicles	1	9	[0, 0, 0]	n/a	catFR1	0	R1445E
1209.788	1.616	1218286	WORD	n/a	wordpools/wordpool_categorized_EN.txt	JEEP	Vehicles	2	9	[0, 0, 0]	n/a	catFR1	0	R1445E
1211.404	0.817	1219893	WORD_OFF	n/a	n/a	JEEP	Vehicles	2	9	[0, 0, 0]	n/a	catFR1	0	R1445E
1212.221	1.617	1220717	WORD	n/a	wordpools/wordpool_categorized_EN.txt	PINE	Trees	3	9	[0, 0, 0]	n/a	catFR1	0	R1445E
1213.838	0.999	1222338	WORD_OFF	n/a	n/a	PINE	Trees	3	9	[0, 0, 0]	n/a	catFR1	0	R1445E
1214.837	1.601	1223330	WORD	n/a	wordpools/wordpool_categorized_EN.txt	CYPRESS	Trees	4	9	[0, 0, 0]	n/a	catFR1	0	R1445E
1216.438	0.983	1224937	WORD_OFF	n/a	n/a	CYPRESS	Trees	4	9	[0, 0, 0]	n/a	catFR1	0	R1445E
1217.421	1.617	1225915	WORD	n/a	wordpools/wordpool_categorized_EN.txt	HAND	BodyParts	5	9	[0, 0, 0]	n/a	catFR1	0	R1445E
1219.038	0.849	1227536	WORD_OFF	n/a	n/a	HAND	BodyParts	5	9	[0, 0, 0]	n/a	catFR1	0	R1445E
1219.887	1.601	1228374	WORD	n/a	wordpools/wordpool_categorized_EN.txt	KNEE	BodyParts	6	9	[0, 0, 0]	n/a	catFR1	0	R1445E
1221.488	0.816	1229981	WORD_OFF	n/a	n/a	KNEE	BodyParts	6	9	[0, 0, 0]	n/a	catFR1	0	R1445E
1222.304	1.6	1230791	WORD	n/a	wordpools/wordpool_categorized_EN.txt	VAN	Vehicles	7	9	[0, 0, 0]	n/a	catFR1	0	R1445E
1223.904	0.867	1232398	WORD_OFF	n/a	n/a	VAN	Vehicles	7	9	[0, 0, 0]	n/a	catFR1	0	R1445E
1224.771	1.615	1233264	WORD	n/a	wordpools/wordpool_categorized_EN.txt	MOPED	Vehicles	8	9	[0, 0, 0]	n/a	catFR1	0	R1445E
1226.386	0.784	1234885	WORD_OFF	n/a	n/a	MOPED	Vehicles	8	9	[0, 0, 0]	n/a	catFR1	0	R1445E
1227.17	1.601	1235667	WORD	n/a	wordpools/wordpool_categorized_EN.txt	NOSE	BodyParts	9	9	[0, 0, 0]	n/a	catFR1	0	R1445E
1228.771	0.766	1237260	WORD_OFF	n/a	n/a	NOSE	BodyParts	9	9	[0, 0, 0]	n/a	catFR1	0	R1445E
1229.537	1.616	1238028	WORD	n/a	wordpools/wordpool_categorized_EN.txt	FOOT	BodyParts	10	9	[0, 0, 0]	n/a	catFR1	0	R1445E
1231.153	0.784	1239649	WORD_OFF	n/a	n/a	FOOT	BodyParts	10	9	[0, 0, 0]	n/a	catFR1	0	R1445E
1231.937	1.602	1240432	WORD	n/a	wordpools/wordpool_categorized_EN.txt	OAK	Trees	11	9	[0, 0, 0]	n/a	catFR1	0	R1445E
1233.539	0.865	1242038	WORD_OFF	n/a	n/a	OAK	Trees	11	9	[0, 0, 0]	n/a	catFR1	0	R1445E
1234.404	1.6	1242891	WORD	n/a	wordpools/wordpool_categorized_EN.txt	MAPLE	Trees	12	9	[0, 0, 0]	n/a	catFR1	0	R1445E
1236.004	0.001	1244495	PROB	0.001	n/a	n/a	n/a	-999	9	[2, 3, 8]	13	catFR1	0	R1445E
1236.005	0.0	1244496	START	n/a	n/a	n/a	n/a	-999	9	[-999, -999, -999]	n/a	catFR1	0	R1445E
1236.004	0.001	1244497	WORD_OFF	n/a	n/a	MAPLE	Trees	12	9	[0, 0, 0]	n/a	catFR1	0	R1445E
1236.005	0.0	1244497	ENCODING_END	n/a	n/a	n/a	n/a	-999	9	[0, 0, 0]	n/a	catFR1	0	R1445E
1236.005	5.031	1244497	DISTRACT_START	n/a	n/a	n/a	n/a	-999	9	[0, 0, 0]	n/a	catFR1	0	R1445E
1241.036	6.501	1249527	PROB	6.501	n/a	n/a	n/a	-999	9	[3, 5, 1]	9	catFR1	0	R1445E
1247.537	4.8	1256028	PROB	4.8	n/a	n/a	n/a	-999	9	[2, 4, 5]	11	catFR1	0	R1445E
1252.337	3.6	1260828	PROB	3.6	n/a	n/a	n/a	-999	9	[3, 3, 1]	7	catFR1	0	R1445E
1255.937	5.583	1264428	PROB	5.583	n/a	n/a	n/a	-999	9	[8, 6, 8]	22	catFR1	0	R1445E
1261.52	0.0	1270010	DISTRACT_END	n/a	n/a	n/a	n/a	-999	9	[0, 0, 0]	n/a	catFR1	0	R1445E
1261.52	2.35	1270011	STOP	n/a	n/a	n/a	n/a	-999	9	[-999, -999, -999]	n/a	catFR1	0	R1445E
1263.87	0.646	1272365	REC_START	n/a	n/a	n/a	n/a	-999	9	[0, 0, 0]	n/a	catFR1	0	R1445E
1264.516	0.474	1273007	REC_WORD	0.474	n/a	HAND	BodyParts	5	9	[0, 0, 0]	n/a	catFR1	0	R1445E
1264.99	1.675	1273481	REC_WORD	1.675	n/a	KNEE	BodyParts	6	9	[0, 0, 0]	n/a	catFR1	0	R1445E
1266.665	0.664	1275156	REC_WORD	0.664	n/a	NOSE	BodyParts	9	9	[0, 0, 0]	n/a	catFR1	0	R1445E
1267.329	26.836	1275820	REC_WORD	26.836	n/a	FOOT	BodyParts	10	9	[0, 0, 0]	n/a	catFR1	0	R1445E
1294.165	1.803	1302662	REC_END	n/a	n/a	n/a	n/a	-999	9	[0, 0, 0]	n/a	catFR1	0	R1445E
1295.968	10.349	1304464	COUNTDOWN_START	n/a	n/a	n/a	n/a	-999	10	[0, 0, 0]	n/a	catFR1	0	R1445E
1306.317	0.0	1314817	COUNTDOWN_END	n/a	n/a	n/a	n/a	-999	10	[0, 0, 0]	n/a	catFR1	0	R1445E
1306.317	2.117	1314817	ENCODING_START	n/a	n/a	n/a	n/a	-999	10	[0, 0, 0]	n/a	catFR1	0	R1445E
1308.434	1.601	1316927	WORD	n/a	wordpools/wordpool_categorized_EN.txt	LEG	BodyParts	1	10	[0, 0, 0]	n/a	catFR1	0	R1445E
1310.035	0.933	1318534	WORD_OFF	n/a	n/a	LEG	BodyParts	1	10	[0, 0, 0]	n/a	catFR1	0	R1445E
1310.968	1.616	1319456	WORD	n/a	wordpools/wordpool_categorized_EN.txt	EAR	BodyParts	2	10	[0, 0, 0]	n/a	catFR1	0	R1445E
1312.584	0.9	1321077	WORD_OFF	n/a	n/a	EAR	BodyParts	2	10	[0, 0, 0]	n/a	catFR1	0	R1445E
1313.484	1.6	1321971	WORD	n/a	wordpools/wordpool_categorized_EN.txt	TONGS	KitchenTools	3	10	[0, 0, 0]	n/a	catFR1	0	R1445E
1315.084	0.884	1323578	WORD_OFF	n/a	n/a	TONGS	KitchenTools	3	10	[0, 0, 0]	n/a	catFR1	0	R1445E
1315.968	1.6	1324458	WORD	n/a	wordpools/wordpool_categorized_EN.txt	STRAINER	KitchenTools	4	10	[0, 0, 0]	n/a	catFR1	0	R1445E
1317.568	0.933	1326065	WORD_OFF	n/a	n/a	STRAINER	KitchenTools	4	10	[0, 0, 0]	n/a	catFR1	0	R1445E
1318.501	1.616	1327001	WORD	n/a	wordpools/wordpool_categorized_EN.txt	STAIRS	Building	5	10	[0, 0, 0]	n/a	catFR1	0	R1445E
1320.117	0.984	1328608	WORD_OFF	n/a	n/a	STAIRS	Building	5	10	[0, 0, 0]	n/a	catFR1	0	R1445E
1321.101	1.616	1329600	WORD	n/a	wordpools/wordpool_categorized_EN.txt	WINDOW	Building	6	10	[0, 0, 0]	n/a	catFR1	0	R1445E
1322.717	0.85	1331206	WORD_OFF	n/a	n/a	WINDOW	Building	6	10	[0, 0, 0]	n/a	catFR1	0	R1445E
1323.567	1.601	1332059	WORD	n/a	wordpools/wordpool_categorized_EN.txt	PEELER	KitchenTools	7	10	[0, 0, 0]	n/a	catFR1	0	R1445E
1325.168	0.816	1333665	WORD_OFF	n/a	n/a	PEELER	KitchenTools	7	10	[0, 0, 0]	n/a	catFR1	0	R1445E
1325.984	1.617	1334476	WORD	n/a	wordpools/wordpool_categorized_EN.txt	SPOON	KitchenTools	8	10	[0, 0, 0]	n/a	catFR1	0	R1445E
1327.601	0.765	1336097	WORD_OFF	n/a	n/a	SPOON	KitchenTools	8	10	[0, 0, 0]	n/a	catFR1	0	R1445E
1328.366	1.601	1336865	WORD	n/a	wordpools/wordpool_categorized_EN.txt	TOE	BodyParts	9	10	[0, 0, 0]	n/a	catFR1	0	R1445E
1329.967	0.9	1338458	WORD_OFF	n/a	n/a	TOE	BodyParts	9	10	[0, 0, 0]	n/a	catFR1	0	R1445E
1330.867	1.6	1339366	WORD	n/a	wordpools/wordpool_categorized_EN.txt	HEAD	BodyParts	10	10	[0, 0, 0]	n/a	catFR1	0	R1445E
1332.467	0.95	1340959	WORD_OFF	n/a	n/a	HEAD	BodyParts	10	10	[0, 0, 0]	n/a	catFR1	0	R1445E
1333.417	1.616	1341909	WORD	n/a	wordpools/wordpool_categorized_EN.txt	BATHROOM	Building	11	10	[0, 0, 0]	n/a	catFR1	0	R1445E
1335.033	0.867	1343530	WORD_OFF	n/a	n/a	BATHROOM	Building	11	10	[0, 0, 0]	n/a	catFR1	0	R1445E
1335.9	1.617	1344396	WORD	n/a	wordpools/wordpool_categorized_EN.txt	HALLWAY	Building	12	10	[0, 0, 0]	n/a	catFR1	0	R1445E
1337.517	0.0	1346003	WORD_OFF	n/a	n/a	HALLWAY	Building	12	10	[0, 0, 0]	n/a	catFR1	0	R1445E
1337.517	0.001	1346008	PROB	0.001	n/a	n/a	n/a	-999	10	[4, 4, 3]	11	catFR1	0	R1445E
1337.518	0.0	1346009	START	n/a	n/a	n/a	n/a	-999	10	[-999, -999, -999]	n/a	catFR1	0	R1445E
1337.518	0.0	1346017	ENCODING_END	n/a	n/a	n/a	n/a	-999	10	[0, 0, 0]	n/a	catFR1	0	R1445E
1337.518	4.883	1346017	DISTRACT_START	n/a	n/a	n/a	n/a	-999	10	[0, 0, 0]	n/a	catFR1	0	R1445E
1342.401	3.366	1350892	PROB	3.366	n/a	n/a	n/a	-999	10	[2, 1, 4]	7	catFR1	0	R1445E
1345.767	5.583	1354258	PROB	5.583	n/a	n/a	n/a	-999	10	[8, 7, 5]	20	catFR1	0	R1445E
1351.35	6.933	1359841	PROB	6.933	n/a	n/a	n/a	-999	10	[1, 8, 4]	13	catFR1	0	R1445E
1358.283	0.0	1366774	STOP	n/a	n/a	n/a	n/a	-999	10	[-999, -999, -999]	n/a	catFR1	0	R1445E
1358.283	2.149	1366779	DISTRACT_END	n/a	n/a	n/a	n/a	-999	10	[0, 0, 0]	n/a	catFR1	0	R1445E
1360.432	0.583	1368924	REC_START	n/a	n/a	n/a	n/a	-999	10	[0, 0, 0]	n/a	catFR1	0	R1445E
1361.015	0.68	1369506	REC_WORD	0.68	n/a	LEG	BodyParts	1	10	[0, 0, 0]	n/a	catFR1	0	R1445E
1361.695	2.103	1370186	REC_WORD	2.103	n/a	EAR	BodyParts	2	10	[0, 0, 0]	n/a	catFR1	0	R1445E
1363.798	0.502	1372289	REC_WORD	0.502	n/a	TOE	BodyParts	9	10	[0, 0, 0]	n/a	catFR1	0	R1445E
1364.3	26.404	1372791	REC_WORD	26.404	n/a	FOOT	BodyParts	-999	10	[0, 0, 0]	n/a	catFR1	0	R1445E
1390.704	2.495	1399193	REC_END	n/a	n/a	n/a	n/a	-999	10	[0, 0, 0]	n/a	catFR1	0	R1445E
1393.199	10.348	1401694	COUNTDOWN_START	n/a	n/a	n/a	n/a	-999	11	[0, 0, 0]	n/a	catFR1	0	R1445E
1403.547	0.0	1412047	COUNTDOWN_END	n/a	n/a	n/a	n/a	-999	11	[0, 0, 0]	n/a	catFR1	0	R1445E
1403.547	1.801	1412047	ENCODING_START	n/a	n/a	n/a	n/a	-999	11	[0, 0, 0]	n/a	catFR1	0	R1445E
1405.348	1.6	1413836	WORD	n/a	wordpools/wordpool_categorized_EN.txt	TRUCK	Vehicles	1	11	[0, 0, 0]	n/a	catFR1	0	R1445E
1406.948	0.767	1415442	WORD_OFF	n/a	n/a	TRUCK	Vehicles	1	11	[0, 0, 0]	n/a	catFR1	0	R1445E
1407.715	1.6	1416211	WORD	n/a	wordpools/wordpool_categorized_EN.txt	PLANE	Vehicles	2	11	[0, 0, 0]	n/a	catFR1	0	R1445E
1409.315	0.915	1417804	WORD_OFF	n/a	n/a	PLANE	Vehicles	2	11	[0, 0, 0]	n/a	catFR1	0	R1445E
1410.23	1.601	1418726	WORD	n/a	wordpools/wordpool_categorized_EN.txt	LADLE	KitchenTools	3	11	[0, 0, 0]	n/a	catFR1	0	R1445E
1411.831	0.817	1420319	WORD_OFF	n/a	n/a	LADLE	KitchenTools	3	11	[0, 0, 0]	n/a	catFR1	0	R1445E
1412.648	1.616	1421143	WORD	n/a	wordpools/wordpool_categorized_EN.txt	FORK	KitchenTools	4	11	[0, 0, 0]	n/a	catFR1	0	R1445E
1414.264	0.8	1422764	WORD_OFF	n/a	n/a	FORK	KitchenTools	4	11	[0, 0, 0]	n/a	catFR1	0	R1445E
1415.064	1.617	1423560	WORD	n/a	wordpools/wordpool_categorized_EN.txt	HICKORY	Trees	5	11	[0, 0, 0]	n/a	catFR1	0	R1445E
1416.681	0.867	1425181	WORD_OFF	n/a	n/a	HICKORY	Trees	5	11	[0, 0, 0]	n/a	catFR1	0	R1445E
1417.548	1.616	1426047	WORD	n/a	wordpools/wordpool_categorized_EN.txt	CEDAR	Trees	6	11	[0, 0, 0]	n/a	catFR1	0	R1445E
1419.164	0.866	1427654	WORD_OFF	n/a	n/a	CEDAR	Trees	6	11	[0, 0, 0]	n/a	catFR1	0	R1445E
1420.03	1.601	1428520	WORD	n/a	wordpools/wordpool_categorized_EN.txt	BOAT	Vehicles	7	11	[0, 0, 0]	n/a	catFR1	0	R1445E
1421.631	0.765	1430127	WORD_OFF	n/a	n/a	BOAT	Vehicles	7	11	[0, 0, 0]	n/a	catFR1	0	R1445E
1422.396	1.602	1430895	WORD	n/a	wordpools/wordpool_categorized_EN.txt	BUS	Vehicles	8	11	[0, 0, 0]	n/a	catFR1	0	R1445E
1423.998	0.932	1432488	WORD_OFF	n/a	n/a	BUS	Vehicles	8	11	[0, 0, 0]	n/a	catFR1	0	R1445E
1424.93	1.617	1433424	WORD	n/a	wordpools/wordpool_categorized_EN.txt	KNIFE	KitchenTools	9	11	[0, 0, 0]	n/a	catFR1	0	R1445E
1426.547	0.966	1435045	WORD_OFF	n/a	n/a	KNIFE	KitchenTools	9	11	[0, 0, 0]	n/a	catFR1	0	R1445E
1427.513	1.6	1436009	WORD	n/a	wordpools/wordpool_categorized_EN.txt	CORKSCREW	KitchenTools	10	11	[0, 0, 0]	n/a	catFR1	0	R1445E
1429.113	0.967	1437602	WORD_OFF	n/a	n/a	CORKSCREW	KitchenTools	10	11	[0, 0, 0]	n/a	catFR1	0	R1445E
1430.08	1.617	1438580	WORD	n/a	wordpools/wordpool_categorized_EN.txt	EVERGREEN	Trees	11	11	[0, 0, 0]	n/a	catFR1	0	R1445E
1431.697	0.916	1440187	WORD_OFF	n/a	n/a	EVERGREEN	Trees	11	11	[0, 0, 0]	n/a	catFR1	0	R1445E
1432.613	1.601	1441109	WORD	n/a	wordpools/wordpool_categorized_EN.txt	BIRCH	Trees	12	11	[0, 0, 0]	n/a	catFR1	0	R1445E
1434.214	0.0	1442701	WORD_OFF	n/a	n/a	BIRCH	Trees	12	11	[0, 0, 0]	n/a	catFR1	0	R1445E
1434.214	0.001	1442705	PROB	0.001	n/a	n/a	n/a	-999	11	[8, 7, 8]	23	catFR1	0	R1445E
1434.215	0.0	1442706	START	n/a	n/a	n/a	n/a	-999	11	[-999, -999, -999]	n/a	catFR1	0	R1445E
1434.215	0.0	1442715	ENCODING_END	n/a	n/a	n/a	n/a	-999	11	[0, 0, 0]	n/a	catFR1	0	R1445E
1434.215	6.849	1442715	DISTRACT_START	n/a	n/a	n/a	n/a	-999	11	[0, 0, 0]	n/a	catFR1	0	R1445E
1441.064	4.167	1449555	PROB	4.167	n/a	n/a	n/a	-999	11	[5, 3, 1]	9	catFR1	0	R1445E
1445.231	4.166	1453722	PROB	4.166	n/a	n/a	n/a	-999	11	[5, 1, 3]	9	catFR1	0	R1445E
1449.397	3.765	1457888	PROB	3.765	n/a	n/a	n/a	-999	11	[2, 8, 1]	11	catFR1	0	R1445E
1453.162	5.001	1461653	PROB	5.001	n/a	n/a	n/a	-999	11	[6, 7, 3]	16	catFR1	0	R1445E
1458.163	0.0	1466649	DISTRACT_END	n/a	n/a	n/a	n/a	-999	11	[0, 0, 0]	n/a	catFR1	0	R1445E
1458.163	2.267	1466654	STOP	n/a	n/a	n/a	n/a	-999	11	[-999, -999, -999]	n/a	catFR1	0	R1445E
1460.43	0.862	1468921	REC_START	n/a	n/a	n/a	n/a	-999	11	[0, 0, 0]	n/a	catFR1	0	R1445E
1461.292	0.661	1469783	REC_WORD	0.661	n/a	TRUCK	Vehicles	1	11	[0, 0, 0]	n/a	catFR1	0	R1445E
1461.953	0.838	1470444	REC_WORD	0.838	n/a	PLANE	Vehicles	2	11	[0, 0, 0]	n/a	catFR1	0	R1445E
1462.791	0.324	1471282	REC_WORD	0.324	n/a	BOAT	Vehicles	7	11	[0, 0, 0]	n/a	catFR1	0	R1445E
1463.115	0.161	1471606	REC_WORD_VV	0.161	n/a	<>	n/a	-999	11	[0, 0, 0]	n/a	catFR1	0	R1445E
1463.276	27.424	1471767	REC_WORD	27.424	n/a	BUS	Vehicles	8	11	[0, 0, 0]	n/a	catFR1	0	R1445E
1490.7	1.862	1499190	REC_END	n/a	n/a	n/a	n/a	-999	11	[0, 0, 0]	n/a	catFR1	0	R1445E
1492.562	10.349	1501062	COUNTDOWN_START	n/a	n/a	n/a	n/a	-999	12	[0, 0, 0]	n/a	catFR1	0	R1445E
1502.911	0.001	1511401	COUNTDOWN_END	n/a	n/a	n/a	n/a	-999	12	[0, 0, 0]	n/a	catFR1	0	R1445E
1502.912	2.149	1511401	ENCODING_START	n/a	n/a	n/a	n/a	-999	12	[0, 0, 0]	n/a	catFR1	0	R1445E
1505.061	1.617	1513553	WORD	n/a	wordpools/wordpool_categorized_EN.txt	JELLO	Desserts	1	12	[0, 0, 0]	n/a	catFR1	0	R1445E
1506.678	0.949	1515173	WORD_OFF	n/a	n/a	JELLO	Desserts	1	12	[0, 0, 0]	n/a	catFR1	0	R1445E
1507.627	1.617	1516123	WORD	n/a	wordpools/wordpool_categorized_EN.txt	COOKIE	Desserts	2	12	[0, 0, 0]	n/a	catFR1	0	R1445E
1509.244	0.9	1517730	WORD_OFF	n/a	n/a	COOKIE	Desserts	2	12	[0, 0, 0]	n/a	catFR1	0	R1445E
1510.144	1.616	1518638	WORD	n/a	wordpools/wordpool_categorized_EN.txt	SPRUCE	Trees	3	12	[0, 0, 0]	n/a	catFR1	0	R1445E
1511.76	0.983	1520259	WORD_OFF	n/a	n/a	SPRUCE	Trees	3	12	[0, 0, 0]	n/a	catFR1	0	R1445E
1512.743	1.601	1521237	WORD	n/a	wordpools/wordpool_categorized_EN.txt	ELM	Trees	4	12	[0, 0, 0]	n/a	catFR1	0	R1445E
1514.344	0.8	1522830	WORD_OFF	n/a	n/a	ELM	Trees	4	12	[0, 0, 0]	n/a	catFR1	0	R1445E
1515.144	1.616	1523640	WORD	n/a	wordpools/wordpool_categorized_EN.txt	DAISY	Flowers	5	12	[0, 0, 0]	n/a	catFR1	0	R1445E
1516.76	0.951	1525247	WORD_OFF	n/a	n/a	DAISY	Flowers	5	12	[0, 0, 0]	n/a	catFR1	0	R1445E
1517.711	1.616	1526197	WORD	n/a	wordpools/wordpool_categorized_EN.txt	LILAC	Flowers	6	12	[0, 0, 0]	n/a	catFR1	0	R1445E
1519.327	0.766	1527818	WORD_OFF	n/a	n/a	LILAC	Flowers	6	12	[0, 0, 0]	n/a	catFR1	0	R1445E
1520.093	1.6	1528586	WORD	n/a	wordpools/wordpool_categorized_EN.txt	PIE	Desserts	7	12	[0, 0, 0]	n/a	catFR1	0	R1445E
1521.693	0.95	1530193	WORD_OFF	n/a	n/a	PIE	Desserts	7	12	[0, 0, 0]	n/a	catFR1	0	R1445E
1522.643	1.6	1531143	WORD	n/a	wordpools/wordpool_categorized_EN.txt	FUDGE	Desserts	8	12	[0, 0, 0]	n/a	catFR1	0	R1445E
1524.243	0.817	1532736	WORD_OFF	n/a	n/a	FUDGE	Desserts	8	12	[0, 0, 0]	n/a	catFR1	0	R1445E
1525.06	1.6	1533560	WORD	n/a	wordpools/wordpool_categorized_EN.txt	WILLOW	Trees	9	12	[0, 0, 0]	n/a	catFR1	0	R1445E
1526.66	0.783	1535153	WORD_OFF	n/a	n/a	WILLOW	Trees	9	12	[0, 0, 0]	n/a	catFR1	0	R1445E
1527.443	1.6	1535935	WORD	n/a	wordpools/wordpool_categorized_EN.txt	WALNUT	Trees	10	12	[0, 0, 0]	n/a	catFR1	0	R1445E
1529.043	0.851	1537542	WORD_OFF	n/a	n/a	WALNUT	Trees	10	12	[0, 0, 0]	n/a	catFR1	0	R1445E
1529.894	1.617	1538381	WORD	n/a	wordpools/wordpool_categorized_EN.txt	SUNFLOWER	Flowers	11	12	[0, 0, 0]	n/a	catFR1	0	R1445E
1531.511	0.765	1540001	WORD_OFF	n/a	n/a	SUNFLOWER	Flowers	11	12	[0, 0, 0]	n/a	catFR1	0	R1445E
1532.276	1.601	1540770	WORD	n/a	wordpools/wordpool_categorized_EN.txt	VIOLET	Flowers	12	12	[0, 0, 0]	n/a	catFR1	0	R1445E
1533.877	0.001	1542368	PROB	0.001	n/a	n/a	n/a	-999	12	[5, 5, 2]	12	catFR1	0	R1445E
1533.878	0.0	1542369	START	n/a	n/a	n/a	n/a	-999	12	[-999, -999, -999]	n/a	catFR1	0	R1445E
1533.877	0.001	1542376	WORD_OFF	n/a	n/a	VIOLET	Flowers	12	12	[0, 0, 0]	n/a	catFR1	0	R1445E
1533.878	0.0	1542376	ENCODING_END	n/a	n/a	n/a	n/a	-999	12	[0, 0, 0]	n/a	catFR1	0	R1445E
1533.878	4.848	1542376	DISTRACT_START	n/a	n/a	n/a	n/a	-999	12	[0, 0, 0]	n/a	catFR1	0	R1445E
1538.726	5.169	1547217	PROB	5.169	n/a	n/a	n/a	-999	12	[5, 5, 6]	16	catFR1	0	R1445E
1543.895	3.299	1552386	PROB	3.299	n/a	n/a	n/a	-999	12	[2, 3, 1]	6	catFR1	0	R1445E
1547.194	3.333	1555685	PROB	3.333	n/a	n/a	n/a	-999	12	[8, 3, 1]	12	catFR1	0	R1445E
1550.527	4.382	1559018	PROB	4.382	n/a	n/a	n/a	-999	12	[3, 7, 6]	16	catFR1	0	R1445E
1554.909	0.0	1563400	STOP	n/a	n/a	n/a	n/a	-999	12	[-999, -999, -999]	n/a	catFR1	0	R1445E
1554.909	2.201	1563404	DISTRACT_END	n/a	n/a	n/a	n/a	-999	12	[0, 0, 0]	n/a	catFR1	0	R1445E
1557.11	0.597	1565606	REC_START	n/a	n/a	n/a	n/a	-999	12	[0, 0, 0]	n/a	catFR1	0	R1445E
1557.707	0.692	1566198	REC_WORD	0.692	n/a	JELLO	Desserts	1	12	[0, 0, 0]	n/a	catFR1	0	R1445E
1558.399	6.175	1566890	REC_WORD	6.175	n/a	COOKIE	Desserts	2	12	[0, 0, 0]	n/a	catFR1	0	R1445E
1564.574	0.259	1573065	REC_WORD_VV	0.259	n/a	<>	n/a	-999	12	[0, 0, 0]	n/a	catFR1	0	R1445E
1564.833	22.292	1573324	REC_WORD	22.292	n/a	WALNUT	Trees	10	12	[0, 0, 0]	n/a	catFR1	0	R1445E
1587.125	0.254	1595616	REC_WORD_VV	0.254	n/a	<>	n/a	-999	12	[0, 0, 0]	n/a	catFR1	0	R1445E
1587.379	0.0	1595875	REC_END	n/a	n/a	n/a	n/a	-999	12	[0, 0, 0]	n/a	catFR1	0	R1445E
