onset	duration	sample	trial_type	response_time	stim_file	item_name	category	serialpos	list	test	answer	experiment	session	subject
0.0	10.398	17799	COUNTDOWN_START	n/a	n/a	n/a	n/a	-999	9	[0, 0, 0]	n/a	catFR1	1	R1395M
10.398	0.0	28197	COUNTDOWN_END	n/a	n/a	n/a	n/a	-999	9	[0, 0, 0]	n/a	catFR1	1	R1395M
10.398	2.35	28197	ENCODING_START	n/a	n/a	n/a	n/a	-999	10	[0, 0, 0]	n/a	catFR1	1	R1395M
12.748	1.616	30546	WORD	n/a	wordpools/wordpool_categorized_EN.txt	DRUM	Instruments	1	10	[0, 0, 0]	n/a	catFR1	1	R1395M
14.364	0.917	32165	WORD_OFF	n/a	n/a	DRUM	Instruments	1	10	[0, 0, 0]	n/a	catFR1	1	R1395M
15.281	1.616	33082	WORD	n/a	wordpools/wordpool_categorized_EN.txt	BANJO	Instruments	2	10	[0, 0, 0]	n/a	catFR1	1	R1395M
16.897	0.967	34691	WORD_OFF	n/a	n/a	BANJO	Instruments	2	10	[0, 0, 0]	n/a	catFR1	1	R1395M
17.864	1.616	35665	WORD	n/a	wordpools/wordpool_categorized_EN.txt	FISH	OceanAnimals	3	10	[0, 0, 0]	n/a	catFR1	1	R1395M
19.48	0.967	37274	WORD_OFF	n/a	n/a	FISH	OceanAnimals	3	10	[0, 0, 0]	n/a	catFR1	1	R1395M
20.447	1.617	38248	WORD	n/a	wordpools/wordpool_categorized_EN.txt	SHRIMP	OceanAnimals	4	10	[0, 0, 0]	n/a	catFR1	1	R1395M
22.064	0.866	39867	WORD_OFF	n/a	n/a	SHRIMP	OceanAnimals	4	10	[0, 0, 0]	n/a	catFR1	1	R1395M
22.93	1.617	40728	WORD	n/a	wordpools/wordpool_categorized_EN.txt	COW	FarmAnimals	5	10	[0, 0, 0]	n/a	catFR1	1	R1395M
24.547	0.834	42347	WORD_OFF	n/a	n/a	COW	FarmAnimals	5	10	[0, 0, 0]	n/a	catFR1	1	R1395M
25.381	1.6	43180	WORD	n/a	wordpools/wordpool_categorized_EN.txt	GOAT	FarmAnimals	6	10	[0, 0, 0]	n/a	catFR1	1	R1395M
26.981	0.833	44780	WORD_OFF	n/a	n/a	GOAT	FarmAnimals	6	10	[0, 0, 0]	n/a	catFR1	1	R1395M
27.814	1.616	45613	WORD	n/a	wordpools/wordpool_categorized_EN.txt	TRUMPET	Instruments	7	10	[0, 0, 0]	n/a	catFR1	1	R1395M
29.43	0.984	47232	WORD_OFF	n/a	n/a	TRUMPET	Instruments	7	10	[0, 0, 0]	n/a	catFR1	1	R1395M
30.414	1.6	48214	WORD	n/a	wordpools/wordpool_categorized_EN.txt	CELLO	Instruments	8	10	[0, 0, 0]	n/a	catFR1	1	R1395M
32.014	0.95	49815	WORD_OFF	n/a	n/a	CELLO	Instruments	8	10	[0, 0, 0]	n/a	catFR1	1	R1395M
32.964	1.617	50760	WORD	n/a	wordpools/wordpool_categorized_EN.txt	JELLYFISH	OceanAnimals	9	10	[0, 0, 0]	n/a	catFR1	1	R1395M
34.581	0.883	52379	WORD_OFF	n/a	n/a	JELLYFISH	OceanAnimals	9	10	[0, 0, 0]	n/a	catFR1	1	R1395M
35.464	1.601	53259	WORD	n/a	wordpools/wordpool_categorized_EN.txt	OCTOPUS	OceanAnimals	10	10	[0, 0, 0]	n/a	catFR1	1	R1395M
37.065	0.883	54859	WORD_OFF	n/a	n/a	OCTOPUS	OceanAnimals	10	10	[0, 0, 0]	n/a	catFR1	1	R1395M
37.948	1.617	55748	WORD	n/a	wordpools/wordpool_categorized_EN.txt	SHEEP	FarmAnimals	11	10	[0, 0, 0]	n/a	catFR1	1	R1395M
39.565	0.784	57367	WORD_OFF	n/a	n/a	SHEEP	FarmAnimals	11	10	[0, 0, 0]	n/a	catFR1	1	R1395M
40.349	1.616	58144	WORD	n/a	wordpools/wordpool_categorized_EN.txt	HEN	FarmAnimals	12	10	[0, 0, 0]	n/a	catFR1	1	R1395M
41.965	0.001	59763	WORD_OFF	n/a	n/a	HEN	FarmAnimals	12	10	[0, 0, 0]	n/a	catFR1	1	R1395M
41.966	0.001	59763	ENCODING_END	n/a	n/a	n/a	n/a	-999	10	[0, 0, 0]	n/a	catFR1	1	R1395M
41.967	0.0	59763	DISTRACT_START	n/a	n/a	n/a	n/a	-999	10	[0, 0, 0]	n/a	catFR1	1	R1395M
41.967	0.001	59763	START	n/a	n/a	n/a	n/a	-999	10	[-999, -999, -999]	n/a	catFR1	1	R1395M
41.968	5.179	59764	PROB	5.179	n/a	n/a	n/a	-999	10	[2, 7, 7]	16	catFR1	1	R1395M
47.147	2.952	64943	PROB	2.952	n/a	n/a	n/a	-999	10	[7, 6, 2]	15	catFR1	1	R1395M
50.099	2.783	67895	PROB	2.783	n/a	n/a	n/a	-999	10	[1, 3, 6]	10	catFR1	1	R1395M
52.882	2.433	70678	PROB	2.433	n/a	n/a	n/a	-999	10	[5, 1, 3]	9	catFR1	1	R1395M
55.315	2.667	73111	PROB	2.667	n/a	n/a	n/a	-999	10	[4, 3, 6]	13	catFR1	1	R1395M
57.982	2.816	75777	PROB	2.816	n/a	n/a	n/a	-999	10	[6, 4, 7]	17	catFR1	1	R1395M
60.798	3.067	78593	PROB	3.067	n/a	n/a	n/a	-999	10	[7, 4, 8]	19	catFR1	1	R1395M
63.865	0.0	81660	STOP	n/a	n/a	n/a	n/a	-999	10	[-999, -999, -999]	n/a	catFR1	1	R1395M
63.865	1.2	81662	DISTRACT_END	n/a	n/a	n/a	n/a	-999	10	[0, 0, 0]	n/a	catFR1	1	R1395M
65.065	1.151	82860	REC_START	n/a	n/a	n/a	n/a	-999	10	[0, 0, 0]	n/a	catFR1	1	R1395M
66.216	0.87	84011	REC_WORD	0.87	n/a	OCTOPUS	OceanAnimals	10	10	[0, 0, 0]	n/a	catFR1	1	R1395M
67.086	1.139	84881	REC_WORD	1.139	n/a	JELLYFISH	OceanAnimals	9	10	[0, 0, 0]	n/a	catFR1	1	R1395M
68.225	1.639	86020	REC_WORD	1.639	n/a	SHEEP	FarmAnimals	11	10	[0, 0, 0]	n/a	catFR1	1	R1395M
69.864	1.583	87659	REC_WORD	1.583	n/a	HEN	FarmAnimals	12	10	[0, 0, 0]	n/a	catFR1	1	R1395M
71.447	1.432	89242	REC_WORD	1.432	n/a	FISH	OceanAnimals	3	10	[0, 0, 0]	n/a	catFR1	1	R1395M
72.879	4.477	90674	REC_WORD	4.477	n/a	SHRIMP	OceanAnimals	4	10	[0, 0, 0]	n/a	catFR1	1	R1395M
77.356	11.99	95150	REC_WORD	11.99	n/a	COW	FarmAnimals	5	10	[0, 0, 0]	n/a	catFR1	1	R1395M
89.346	1.089	107140	REC_WORD	1.089	n/a	DRUM	Instruments	1	10	[0, 0, 0]	n/a	catFR1	1	R1395M
90.435	5.885	108229	REC_WORD	5.885	n/a	BANJO	Instruments	2	10	[0, 0, 0]	n/a	catFR1	1	R1395M
96.32	2.177	114117	REC_END	n/a	n/a	n/a	n/a	-999	10	[0, 0, 0]	n/a	catFR1	1	R1395M
98.497	10.352	116297	COUNTDOWN_START	n/a	n/a	n/a	n/a	-999	10	[0, 0, 0]	n/a	catFR1	1	R1395M
108.849	0.0	126639	COUNTDOWN_END	n/a	n/a	n/a	n/a	-999	10	[0, 0, 0]	n/a	catFR1	1	R1395M
108.849	2.199	126648	ENCODING_START	n/a	n/a	n/a	n/a	-999	11	[0, 0, 0]	n/a	catFR1	1	R1395M
111.048	1.617	128838	WORD	n/a	wordpools/wordpool_categorized_EN.txt	SHELF	Furniture	1	11	[0, 0, 0]	n/a	catFR1	1	R1395M
112.665	0.899	130457	WORD_OFF	n/a	n/a	SHELF	Furniture	1	11	[0, 0, 0]	n/a	catFR1	1	R1395M
113.564	1.601	131355	WORD	n/a	wordpools/wordpool_categorized_EN.txt	SOFA	Furniture	2	11	[0, 0, 0]	n/a	catFR1	1	R1395M
115.165	0.765	132965	WORD_OFF	n/a	n/a	SOFA	Furniture	2	11	[0, 0, 0]	n/a	catFR1	1	R1395M
115.93	1.601	133723	WORD	n/a	wordpools/wordpool_categorized_EN.txt	HAMMER	Tools	3	11	[0, 0, 0]	n/a	catFR1	1	R1395M
117.531	0.983	135323	WORD_OFF	n/a	n/a	HAMMER	Tools	3	11	[0, 0, 0]	n/a	catFR1	1	R1395M
118.514	1.601	136306	WORD	n/a	wordpools/wordpool_categorized_EN.txt	SHOVEL	Tools	4	11	[0, 0, 0]	n/a	catFR1	1	R1395M
120.115	0.783	137906	WORD_OFF	n/a	n/a	SHOVEL	Tools	4	11	[0, 0, 0]	n/a	catFR1	1	R1395M
120.898	1.6	138692	WORD	n/a	wordpools/wordpool_categorized_EN.txt	BULL	FarmAnimals	5	11	[0, 0, 0]	n/a	catFR1	1	R1395M
122.498	0.783	140293	WORD_OFF	n/a	n/a	BULL	FarmAnimals	5	11	[0, 0, 0]	n/a	catFR1	1	R1395M
123.281	1.617	141069	WORD	n/a	wordpools/wordpool_categorized_EN.txt	HORSE	FarmAnimals	6	11	[0, 0, 0]	n/a	catFR1	1	R1395M
124.898	0.8	142688	WORD_OFF	n/a	n/a	HORSE	FarmAnimals	6	11	[0, 0, 0]	n/a	catFR1	1	R1395M
125.698	1.617	143493	WORD	n/a	wordpools/wordpool_categorized_EN.txt	RATCHET	Tools	7	11	[0, 0, 0]	n/a	catFR1	1	R1395M
127.315	0.816	145112	WORD_OFF	n/a	n/a	RATCHET	Tools	7	11	[0, 0, 0]	n/a	catFR1	1	R1395M
128.131	1.6	145926	WORD	n/a	wordpools/wordpool_categorized_EN.txt	PLIERS	Tools	8	11	[0, 0, 0]	n/a	catFR1	1	R1395M
129.731	0.984	147527	WORD_OFF	n/a	n/a	PLIERS	Tools	8	11	[0, 0, 0]	n/a	catFR1	1	R1395M
130.715	1.615	148509	WORD	n/a	wordpools/wordpool_categorized_EN.txt	LAMB	FarmAnimals	9	11	[0, 0, 0]	n/a	catFR1	1	R1395M
132.33	0.9	150119	WORD_OFF	n/a	n/a	LAMB	FarmAnimals	9	11	[0, 0, 0]	n/a	catFR1	1	R1395M
133.23	1.601	151027	WORD	n/a	wordpools/wordpool_categorized_EN.txt	TURKEY	FarmAnimals	10	11	[0, 0, 0]	n/a	catFR1	1	R1395M
134.831	0.816	152627	WORD_OFF	n/a	n/a	TURKEY	FarmAnimals	10	11	[0, 0, 0]	n/a	catFR1	1	R1395M
135.647	1.617	153441	WORD	n/a	wordpools/wordpool_categorized_EN.txt	DRESSER	Furniture	11	11	[0, 0, 0]	n/a	catFR1	1	R1395M
137.264	0.95	155060	WORD_OFF	n/a	n/a	DRESSER	Furniture	11	11	[0, 0, 0]	n/a	catFR1	1	R1395M
138.214	1.6	156005	WORD	n/a	wordpools/wordpool_categorized_EN.txt	COUCH	Furniture	12	11	[0, 0, 0]	n/a	catFR1	1	R1395M
139.814	0.002	157606	WORD_OFF	n/a	n/a	COUCH	Furniture	12	11	[0, 0, 0]	n/a	catFR1	1	R1395M
139.816	0.0	157606	ENCODING_END	n/a	n/a	n/a	n/a	-999	11	[0, 0, 0]	n/a	catFR1	1	R1395M
139.816	0.0	157606	DISTRACT_START	n/a	n/a	n/a	n/a	-999	11	[0, 0, 0]	n/a	catFR1	1	R1395M
139.815	0.001	157606	PROB	0.001	n/a	n/a	n/a	-999	11	[2, 5, 5]	12	catFR1	1	R1395M
139.816	3.149	157607	START	n/a	n/a	n/a	n/a	-999	11	[-999, -999, -999]	n/a	catFR1	1	R1395M
142.965	2.534	160756	PROB	2.534	n/a	n/a	n/a	-999	11	[2, 1, 5]	8	catFR1	1	R1395M
145.499	2.965	163290	PROB	2.965	n/a	n/a	n/a	-999	11	[4, 4, 7]	15	catFR1	1	R1395M
148.464	2.702	166255	PROB	2.702	n/a	n/a	n/a	-999	11	[5, 2, 3]	10	catFR1	1	R1395M
151.166	2.665	168957	PROB	2.665	n/a	n/a	n/a	-999	11	[6, 2, 4]	12	catFR1	1	R1395M
153.831	2.201	171622	PROB	2.201	n/a	n/a	n/a	-999	11	[1, 5, 5]	11	catFR1	1	R1395M
156.032	2.784	173822	PROB	2.784	n/a	n/a	n/a	-999	11	[5, 8, 2]	15	catFR1	1	R1395M
158.816	2.549	176606	PROB	2.549	n/a	n/a	n/a	-999	11	[3, 4, 3]	10	catFR1	1	R1395M
161.365	0.0	179155	STOP	n/a	n/a	n/a	n/a	-999	11	[-999, -999, -999]	n/a	catFR1	1	R1395M
161.365	1.016	179158	DISTRACT_END	n/a	n/a	n/a	n/a	-999	11	[0, 0, 0]	n/a	catFR1	1	R1395M
162.381	1.336	180169	REC_START	n/a	n/a	n/a	n/a	-999	11	[0, 0, 0]	n/a	catFR1	1	R1395M
163.717	1.096	181507	REC_WORD	1.096	n/a	HAMMER	Tools	3	11	[0, 0, 0]	n/a	catFR1	1	R1395M
164.813	1.576	182603	REC_WORD	1.576	n/a	SHOVEL	Tools	4	11	[0, 0, 0]	n/a	catFR1	1	R1395M
166.389	1.162	184179	REC_WORD	1.162	n/a	BULL	FarmAnimals	5	11	[0, 0, 0]	n/a	catFR1	1	R1395M
167.551	1.413	185341	REC_WORD	1.413	n/a	HORSE	FarmAnimals	6	11	[0, 0, 0]	n/a	catFR1	1	R1395M
168.964	1.537	186754	REC_WORD	1.537	n/a	SHELF	Furniture	1	11	[0, 0, 0]	n/a	catFR1	1	R1395M
170.501	2.589	188291	REC_WORD	2.589	n/a	SOFA	Furniture	2	11	[0, 0, 0]	n/a	catFR1	1	R1395M
173.09	20.529	190880	REC_WORD	20.529	n/a	DRESSER	Furniture	11	11	[0, 0, 0]	n/a	catFR1	1	R1395M
193.619	4.662	211408	REC_END	n/a	n/a	n/a	n/a	-999	11	[0, 0, 0]	n/a	catFR1	1	R1395M
198.281	10.351	216068	COUNTDOWN_START	n/a	n/a	n/a	n/a	-999	11	[0, 0, 0]	n/a	catFR1	1	R1395M
208.632	0.0	226419	COUNTDOWN_END	n/a	n/a	n/a	n/a	-999	11	[0, 0, 0]	n/a	catFR1	1	R1395M
208.632	2.115	226419	ENCODING_START	n/a	n/a	n/a	n/a	-999	12	[0, 0, 0]	n/a	catFR1	1	R1395M
210.747	1.601	228534	WORD	n/a	wordpools/wordpool_categorized_EN.txt	CRICKET	Insects	1	12	[0, 0, 0]	n/a	catFR1	1	R1395M
212.348	0.883	230134	WORD_OFF	n/a	n/a	CRICKET	Insects	1	12	[0, 0, 0]	n/a	catFR1	1	R1395M
213.231	1.617	231023	WORD	n/a	wordpools/wordpool_categorized_EN.txt	LADYBUG	Insects	2	12	[0, 0, 0]	n/a	catFR1	1	R1395M
214.848	0.899	232633	WORD_OFF	n/a	n/a	LADYBUG	Insects	2	12	[0, 0, 0]	n/a	catFR1	1	R1395M
215.747	1.601	233531	WORD	n/a	wordpools/wordpool_categorized_EN.txt	CHICKEN	FarmAnimals	3	12	[0, 0, 0]	n/a	catFR1	1	R1395M
217.348	0.917	235131	WORD_OFF	n/a	n/a	CHICKEN	FarmAnimals	3	12	[0, 0, 0]	n/a	catFR1	1	R1395M
218.265	1.616	236049	WORD	n/a	wordpools/wordpool_categorized_EN.txt	PIG	FarmAnimals	4	12	[0, 0, 0]	n/a	catFR1	1	R1395M
219.881	0.883	237668	WORD_OFF	n/a	n/a	PIG	FarmAnimals	4	12	[0, 0, 0]	n/a	catFR1	1	R1395M
220.764	1.601	238547	WORD	n/a	wordpools/wordpool_categorized_EN.txt	TROMBONE	Instruments	5	12	[0, 0, 0]	n/a	catFR1	1	R1395M
222.365	0.8	240148	WORD_OFF	n/a	n/a	TROMBONE	Instruments	5	12	[0, 0, 0]	n/a	catFR1	1	R1395M
223.165	1.6	240952	WORD	n/a	wordpools/wordpool_categorized_EN.txt	PIANO	Instruments	6	12	[0, 0, 0]	n/a	catFR1	1	R1395M
224.765	0.85	242553	WORD_OFF	n/a	n/a	PIANO	Instruments	6	12	[0, 0, 0]	n/a	catFR1	1	R1395M
225.615	1.616	243404	WORD	n/a	wordpools/wordpool_categorized_EN.txt	BEETLE	Insects	7	12	[0, 0, 0]	n/a	catFR1	1	R1395M
227.231	0.767	245023	WORD_OFF	n/a	n/a	BEETLE	Insects	7	12	[0, 0, 0]	n/a	catFR1	1	R1395M
227.998	1.617	245781	WORD	n/a	wordpools/wordpool_categorized_EN.txt	GNAT	Insects	8	12	[0, 0, 0]	n/a	catFR1	1	R1395M
229.615	0.965	247400	WORD_OFF	n/a	n/a	GNAT	Insects	8	12	[0, 0, 0]	n/a	catFR1	1	R1395M
230.58	1.601	248364	WORD	n/a	wordpools/wordpool_categorized_EN.txt	GUITAR	Instruments	9	12	[0, 0, 0]	n/a	catFR1	1	R1395M
232.181	0.966	249965	WORD_OFF	n/a	n/a	GUITAR	Instruments	9	12	[0, 0, 0]	n/a	catFR1	1	R1395M
233.147	1.6	250938	WORD	n/a	wordpools/wordpool_categorized_EN.txt	VIOLIN	Instruments	10	12	[0, 0, 0]	n/a	catFR1	1	R1395M
234.747	0.884	252538	WORD_OFF	n/a	n/a	VIOLIN	Instruments	10	12	[0, 0, 0]	n/a	catFR1	1	R1395M
235.631	1.616	253418	WORD	n/a	wordpools/wordpool_categorized_EN.txt	CALF	FarmAnimals	11	12	[0, 0, 0]	n/a	catFR1	1	R1395M
237.247	0.783	255037	WORD_OFF	n/a	n/a	CALF	FarmAnimals	11	12	[0, 0, 0]	n/a	catFR1	1	R1395M
238.03	1.601	255814	WORD	n/a	wordpools/wordpool_categorized_EN.txt	ROOSTER	FarmAnimals	12	12	[0, 0, 0]	n/a	catFR1	1	R1395M
239.631	0.0	257414	WORD_OFF	n/a	n/a	ROOSTER	FarmAnimals	12	12	[0, 0, 0]	n/a	catFR1	1	R1395M
239.631	0.002	257417	PROB	0.002	n/a	n/a	n/a	-999	12	[7, 6, 1]	14	catFR1	1	R1395M
239.633	0.0	257419	START	n/a	n/a	n/a	n/a	-999	12	[-999, -999, -999]	n/a	catFR1	1	R1395M
239.633	0.0	257423	ENCODING_END	n/a	n/a	n/a	n/a	-999	12	[0, 0, 0]	n/a	catFR1	1	R1395M
239.633	4.449	257423	DISTRACT_START	n/a	n/a	n/a	n/a	-999	12	[0, 0, 0]	n/a	catFR1	1	R1395M
244.082	2.399	261868	PROB	2.399	n/a	n/a	n/a	-999	12	[7, 7, 7]	21	catFR1	1	R1395M
246.481	0.0	264267	PROB	0.0	n/a	n/a	n/a	-999	12	[3, 8, 3]	14	catFR1	1	R1395M
-1158.351	1410.116	268195	INSTRUCT_START	n/a	n/a	n/a	n/a	-999	-999	[0, 0, 0]	n/a	catFR1	1	R1395M
251.765	0.0	269550	PROB	0.0	n/a	n/a	n/a	-999	12	[4, 6, 5]	15	catFR1	1	R1395M
-1156.719	1411.685	269823	INSTRUCT_END	n/a	n/a	n/a	n/a	-999	-999	[0, 0, 0]	n/a	catFR1	1	R1395M
254.966	3.366	272751	PROB	3.366	n/a	n/a	n/a	-999	12	[4, 8, 8]	20	catFR1	1	R1395M
258.332	3.349	276117	PROB	3.349	n/a	n/a	n/a	-999	12	[3, 2, 6]	11	catFR1	1	R1395M
261.681	0.0	279463	DISTRACT_END	n/a	n/a	n/a	n/a	-999	12	[0, 0, 0]	n/a	catFR1	1	R1395M
261.681	1.117	279466	STOP	n/a	n/a	n/a	n/a	-999	12	[-999, -999, -999]	n/a	catFR1	1	R1395M
262.798	2.949	280586	REC_START	n/a	n/a	n/a	n/a	-999	12	[0, 0, 0]	n/a	catFR1	1	R1395M
265.747	0.816	283532	REC_WORD	0.816	n/a	CRICKET	Insects	1	12	[0, 0, 0]	n/a	catFR1	1	R1395M
266.563	3.25	284348	REC_WORD	3.25	n/a	GNAT	Insects	8	12	[0, 0, 0]	n/a	catFR1	1	R1395M
269.813	2.003	287598	REC_WORD	2.003	n/a	CALF	FarmAnimals	11	12	[0, 0, 0]	n/a	catFR1	1	R1395M
271.816	0.0	289600	REC_WORD	0.0	n/a	ROOSTER	FarmAnimals	12	12	[0, 0, 0]	n/a	catFR1	1	R1395M
-1130.336	10.35	296205	COUNTDOWN_START	n/a	n/a	n/a	n/a	-999	-999	[0, 0, 0]	n/a	catFR1	1	R1395M
-1119.986	0.001	306555	COUNTDOWN_END	n/a	n/a	n/a	n/a	-999	-999	[0, 0, 0]	n/a	catFR1	1	R1395M
-1119.985	2.149	306555	ENCODING_START	n/a	n/a	n/a	n/a	-999	-1	[0, 0, 0]	n/a	catFR1	1	R1395M
-1117.836	1409.995	308708	WORD	n/a	n/a	BIKE	Vehicles	1	-1	[0, 0, 0]	n/a	catFR1	1	R1395M
292.159	0.0	309942	REC_WORD	0.0	n/a	PIANO	Instruments	6	12	[0, 0, 0]	n/a	catFR1	1	R1395M
-1116.221	0.884	310318	WORD_OFF	n/a	n/a	BIKE	Vehicles	1	-1	[0, 0, 0]	n/a	catFR1	1	R1395M
-1115.337	1409.348	311207	WORD	n/a	n/a	TRUCK	Vehicles	2	-1	[0, 0, 0]	n/a	catFR1	1	R1395M
294.011	0.0	311796	REC_END	n/a	n/a	n/a	n/a	-999	12	[0, 0, 0]	n/a	catFR1	1	R1395M
-1113.735	0.898	312807	WORD_OFF	n/a	n/a	TRUCK	Vehicles	2	-1	[0, 0, 0]	n/a	catFR1	1	R1395M
-1112.837	1.6	313705	WORD	n/a	n/a	WHISK	KitchenTools	3	-1	[0, 0, 0]	n/a	catFR1	1	R1395M
-1111.237	0.85	315306	WORD_OFF	n/a	n/a	WHISK	KitchenTools	3	-1	[0, 0, 0]	n/a	catFR1	1	R1395M
-1110.387	1.6	316157	WORD	n/a	n/a	PEELER	KitchenTools	4	-1	[0, 0, 0]	n/a	catFR1	1	R1395M
-1108.787	0.833	317758	WORD_OFF	n/a	n/a	PEELER	KitchenTools	4	-1	[0, 0, 0]	n/a	catFR1	1	R1395M
-1107.954	1.617	318590	WORD	n/a	n/a	NOSE	BodyParts	5	-1	[0, 0, 0]	n/a	catFR1	1	R1395M
-1106.337	0.766	320200	WORD_OFF	n/a	n/a	NOSE	BodyParts	5	-1	[0, 0, 0]	n/a	catFR1	1	R1395M
-1105.571	1.6	320967	WORD	n/a	n/a	HAND	BodyParts	6	-1	[0, 0, 0]	n/a	catFR1	1	R1395M
-1103.971	0.884	322568	WORD_OFF	n/a	n/a	HAND	BodyParts	6	-1	[0, 0, 0]	n/a	catFR1	1	R1395M
-1103.087	1.617	323457	WORD	n/a	n/a	PLANE	Vehicles	7	-1	[0, 0, 0]	n/a	catFR1	1	R1395M
-1101.47	0.95	325066	WORD_OFF	n/a	n/a	PLANE	Vehicles	7	-1	[0, 0, 0]	n/a	catFR1	1	R1395M
-1100.52	1.617	326021	WORD	n/a	n/a	JEEP	Vehicles	8	-1	[0, 0, 0]	n/a	catFR1	1	R1395M
-1098.903	0.884	327640	WORD_OFF	n/a	n/a	JEEP	Vehicles	8	-1	[0, 0, 0]	n/a	catFR1	1	R1395M
-1098.019	1.6	328520	WORD	n/a	n/a	LADLE	KitchenTools	9	-1	[0, 0, 0]	n/a	catFR1	1	R1395M
-1096.419	0.85	330120	WORD_OFF	n/a	n/a	LADLE	KitchenTools	9	-1	[0, 0, 0]	n/a	catFR1	1	R1395M
-1095.569	1.6	330972	WORD	n/a	n/a	COLANDER	KitchenTools	10	-1	[0, 0, 0]	n/a	catFR1	1	R1395M
-1093.969	0.933	332572	WORD_OFF	n/a	n/a	COLANDER	KitchenTools	10	-1	[0, 0, 0]	n/a	catFR1	1	R1395M
-1093.036	1.616	333508	WORD	n/a	n/a	FOOT	BodyParts	11	-1	[0, 0, 0]	n/a	catFR1	1	R1395M
-1091.42	0.917	335118	WORD_OFF	n/a	n/a	FOOT	BodyParts	11	-1	[0, 0, 0]	n/a	catFR1	1	R1395M
-1090.503	1.618	336035	WORD	n/a	n/a	ARM	BodyParts	12	-1	[0, 0, 0]	n/a	catFR1	1	R1395M
-1088.885	0.0	337653	PROB	0.0	n/a	n/a	n/a	-999	-1	[3, 5, 8]	16	catFR1	1	R1395M
-1088.886	0.008	337654	WORD_OFF	n/a	n/a	ARM	BodyParts	12	-1	[0, 0, 0]	n/a	catFR1	1	R1395M
-1088.878	0.0	337660	START	n/a	n/a	n/a	n/a	-999	-1	[-999, -999, -999]	n/a	catFR1	1	R1395M
-1088.878	0.0	337663	ENCODING_END	n/a	n/a	n/a	n/a	-999	-1	[0, 0, 0]	n/a	catFR1	1	R1395M
-1088.878	3.742	337663	DISTRACT_START	n/a	n/a	n/a	n/a	-999	-1	[0, 0, 0]	n/a	catFR1	1	R1395M
-1085.136	2.25	341402	PROB	2.25	n/a	n/a	n/a	-999	-1	[2, 2, 7]	11	catFR1	1	R1395M
-1082.886	2.501	343652	PROB	2.501	n/a	n/a	n/a	-999	-1	[6, 6, 6]	18	catFR1	1	R1395M
-1080.385	2.315	346153	PROB	2.315	n/a	n/a	n/a	-999	-1	[2, 1, 7]	10	catFR1	1	R1395M
-1078.07	2.284	348468	PROB	2.284	n/a	n/a	n/a	-999	-1	[3, 1, 8]	12	catFR1	1	R1395M
-1075.786	2.7	350752	PROB	2.7	n/a	n/a	n/a	-999	-1	[8, 8, 1]	17	catFR1	1	R1395M
-1073.086	2.351	353451	PROB	2.351	n/a	n/a	n/a	-999	-1	[7, 8, 1]	16	catFR1	1	R1395M
-1070.735	2.632	355802	PROB	2.632	n/a	n/a	n/a	-999	-1	[6, 2, 4]	12	catFR1	1	R1395M
-1068.103	0.0	358434	STOP	n/a	n/a	n/a	n/a	-999	-1	[-999, -999, -999]	n/a	catFR1	1	R1395M
-1068.103	1.117	358439	DISTRACT_END	n/a	n/a	n/a	n/a	-999	-1	[0, 0, 0]	n/a	catFR1	1	R1395M
-1066.986	0.134	359553	REC_START	n/a	n/a	n/a	n/a	-999	-1	[0, 0, 0]	n/a	catFR1	1	R1395M
-1066.852	1.93	359685	REC_WORD_VV	1.93	n/a	<>	n/a	-999	-1	[0, 0, 0]	n/a	catFR1	1	R1395M
-1064.922	0.916	361615	REC_WORD	0.916	n/a	BIKE	Vehicles	1	-1	[0, 0, 0]	n/a	catFR1	1	R1395M
-1064.006	1.598	362531	REC_WORD	1.598	n/a	TRUCK	Vehicles	2	-1	[0, 0, 0]	n/a	catFR1	1	R1395M
-1062.408	0.878	364129	REC_WORD	0.878	n/a	JEEP	Vehicles	8	-1	[0, 0, 0]	n/a	catFR1	1	R1395M
-1061.53	1.92	365007	REC_WORD	1.92	n/a	PLANE	Vehicles	7	-1	[0, 0, 0]	n/a	catFR1	1	R1395M
-1059.61	1.688	366927	REC_WORD	1.688	n/a	HAND	BodyParts	6	-1	[0, 0, 0]	n/a	catFR1	1	R1395M
-1057.922	2.141	368615	REC_WORD	2.141	n/a	NOSE	BodyParts	5	-1	[0, 0, 0]	n/a	catFR1	1	R1395M
-1055.781	2.693	370756	REC_WORD	2.693	n/a	FOOT	BodyParts	11	-1	[0, 0, 0]	n/a	catFR1	1	R1395M
-1053.088	2.461	373448	REC_WORD	2.461	n/a	WHISK	KitchenTools	3	-1	[0, 0, 0]	n/a	catFR1	1	R1395M
-1050.627	14.876	375909	REC_WORD	14.876	n/a	PEELER	KitchenTools	4	-1	[0, 0, 0]	n/a	catFR1	1	R1395M
-1035.751	6.164	390782	REC_END	n/a	n/a	n/a	n/a	-999	-1	[0, 0, 0]	n/a	catFR1	1	R1395M
-1029.587	10.351	396949	COUNTDOWN_START	n/a	n/a	n/a	n/a	-999	1	[0, 0, 0]	n/a	catFR1	1	R1395M
-1019.236	0.001	407300	COUNTDOWN_END	n/a	n/a	n/a	n/a	-999	1	[0, 0, 0]	n/a	catFR1	1	R1395M
-1019.235	2.314	407300	ENCODING_START	n/a	n/a	n/a	n/a	-999	1	[0, 0, 0]	n/a	catFR1	1	R1395M
-1016.921	1.601	409611	WORD	n/a	wordpools/wordpool_categorized_EN.txt	PLIERS	Tools	1	1	[0, 0, 0]	n/a	catFR1	1	R1395M
-1015.32	0.817	411211	WORD_OFF	n/a	n/a	PLIERS	Tools	1	1	[0, 0, 0]	n/a	catFR1	1	R1395M
-1014.503	1.616	412035	WORD	n/a	wordpools/wordpool_categorized_EN.txt	HAMMER	Tools	2	1	[0, 0, 0]	n/a	catFR1	1	R1395M
-1012.887	1.001	413645	WORD_OFF	n/a	n/a	HAMMER	Tools	2	1	[0, 0, 0]	n/a	catFR1	1	R1395M
-1011.886	1.6	414646	WORD	n/a	wordpools/wordpool_categorized_EN.txt	MOTH	Insects	3	1	[0, 0, 0]	n/a	catFR1	1	R1395M
-1010.286	0.9	416246	WORD_OFF	n/a	n/a	MOTH	Insects	3	1	[0, 0, 0]	n/a	catFR1	1	R1395M
-1009.386	1.6	417145	WORD	n/a	wordpools/wordpool_categorized_EN.txt	BEE	Insects	4	1	[0, 0, 0]	n/a	catFR1	1	R1395M
-1007.786	0.882	418745	WORD_OFF	n/a	n/a	BEE	Insects	4	1	[0, 0, 0]	n/a	catFR1	1	R1395M
-1006.904	1.601	419634	WORD	n/a	wordpools/wordpool_categorized_EN.txt	MIXER	Appliances	5	1	[0, 0, 0]	n/a	catFR1	1	R1395M
-1005.303	0.867	421234	WORD_OFF	n/a	n/a	MIXER	Appliances	5	1	[0, 0, 0]	n/a	catFR1	1	R1395M
-1004.436	1.616	422095	WORD	n/a	wordpools/wordpool_categorized_EN.txt	TOASTER	Appliances	6	1	[0, 0, 0]	n/a	catFR1	1	R1395M
-1002.82	0.784	423714	WORD_OFF	n/a	n/a	TOASTER	Appliances	6	1	[0, 0, 0]	n/a	catFR1	1	R1395M
-1002.036	1.616	424500	WORD	n/a	wordpools/wordpool_categorized_EN.txt	SANDER	Tools	7	1	[0, 0, 0]	n/a	catFR1	1	R1395M
-1000.42	0.95	426119	WORD_OFF	n/a	n/a	SANDER	Tools	7	1	[0, 0, 0]	n/a	catFR1	1	R1395M
-999.47	1.616	427065	WORD	n/a	wordpools/wordpool_categorized_EN.txt	SHOVEL	Tools	8	1	[0, 0, 0]	n/a	catFR1	1	R1395M
-997.854	0.984	428684	WORD_OFF	n/a	n/a	SHOVEL	Tools	8	1	[0, 0, 0]	n/a	catFR1	1	R1395M
-996.87	1.616	429666	WORD	n/a	wordpools/wordpool_categorized_EN.txt	GNAT	Insects	9	1	[0, 0, 0]	n/a	catFR1	1	R1395M
-995.254	0.867	431285	WORD_OFF	n/a	n/a	GNAT	Insects	9	1	[0, 0, 0]	n/a	catFR1	1	R1395M
-994.387	1.601	432146	WORD	n/a	wordpools/wordpool_categorized_EN.txt	ROACH	Insects	10	1	[0, 0, 0]	n/a	catFR1	1	R1395M
-992.786	0.766	433747	WORD_OFF	n/a	n/a	ROACH	Insects	10	1	[0, 0, 0]	n/a	catFR1	1	R1395M
-992.02	1.6	434514	WORD	n/a	wordpools/wordpool_categorized_EN.txt	VACUUM	Appliances	11	1	[0, 0, 0]	n/a	catFR1	1	R1395M
-990.42	0.834	436114	WORD_OFF	n/a	n/a	VACUUM	Appliances	11	1	[0, 0, 0]	n/a	catFR1	1	R1395M
-989.586	1.617	436947	WORD	n/a	wordpools/wordpool_categorized_EN.txt	DRYER	Appliances	12	1	[0, 0, 0]	n/a	catFR1	1	R1395M
-987.969	0.0	438564	PROB	0.0	n/a	n/a	n/a	-999	1	[2, 8, 1]	11	catFR1	1	R1395M
-987.97	0.009	438566	WORD_OFF	n/a	n/a	DRYER	Appliances	12	1	[0, 0, 0]	n/a	catFR1	1	R1395M
-987.961	0.0	438572	START	n/a	n/a	n/a	n/a	-999	1	[-999, -999, -999]	n/a	catFR1	1	R1395M
-987.961	0.0	438576	ENCODING_END	n/a	n/a	n/a	n/a	-999	1	[0, 0, 0]	n/a	catFR1	1	R1395M
-987.961	3.975	438576	DISTRACT_START	n/a	n/a	n/a	n/a	-999	1	[0, 0, 0]	n/a	catFR1	1	R1395M
-983.986	2.684	442547	PROB	2.684	n/a	n/a	n/a	-999	1	[1, 6, 8]	15	catFR1	1	R1395M
-981.302	2.766	445231	PROB	2.766	n/a	n/a	n/a	-999	1	[8, 4, 5]	17	catFR1	1	R1395M
-978.536	2.483	447996	PROB	2.483	n/a	n/a	n/a	-999	1	[3, 1, 7]	11	catFR1	1	R1395M
-976.053	2.667	450479	PROB	2.667	n/a	n/a	n/a	-999	1	[4, 5, 7]	16	catFR1	1	R1395M
-973.386	2.45	453146	PROB	2.45	n/a	n/a	n/a	-999	1	[3, 6, 2]	11	catFR1	1	R1395M
-970.936	2.633	455596	PROB	2.633	n/a	n/a	n/a	-999	1	[7, 3, 5]	15	catFR1	1	R1395M
-968.303	2.4	458229	PROB	2.4	n/a	n/a	n/a	-999	1	[3, 4, 5]	12	catFR1	1	R1395M
-965.903	0.0	460629	STOP	n/a	n/a	n/a	n/a	-999	1	[-999, -999, -999]	n/a	catFR1	1	R1395M
-965.903	1.15	460634	DISTRACT_END	n/a	n/a	n/a	n/a	-999	1	[0, 0, 0]	n/a	catFR1	1	R1395M
-964.753	0.217	461775	REC_START	n/a	n/a	n/a	n/a	-999	1	[0, 0, 0]	n/a	catFR1	1	R1395M
-964.536	1.098	461996	REC_WORD_VV	1.098	n/a	<>	n/a	-999	1	[0, 0, 0]	n/a	catFR1	1	R1395M
-963.438	1.288	463094	REC_WORD	1.288	n/a	GNAT	Insects	9	1	[0, 0, 0]	n/a	catFR1	1	R1395M
-962.15	1.5	464382	REC_WORD	1.5	n/a	ROACH	Insects	10	1	[0, 0, 0]	n/a	catFR1	1	R1395M
-960.65	1.913	465881	REC_WORD	1.913	n/a	VACUUM	Appliances	11	1	[0, 0, 0]	n/a	catFR1	1	R1395M
-958.737	4.639	467794	REC_WORD	4.639	n/a	DRYER	Appliances	12	1	[0, 0, 0]	n/a	catFR1	1	R1395M
-954.098	5.075	472433	REC_WORD	5.075	n/a	SHOVEL	Tools	8	1	[0, 0, 0]	n/a	catFR1	1	R1395M
-949.023	11.61	477508	REC_WORD	11.61	n/a	PLIERS	Tools	1	1	[0, 0, 0]	n/a	catFR1	1	R1395M
-937.413	3.881	489117	REC_WORD	3.881	n/a	HAMMER	Tools	2	1	[0, 0, 0]	n/a	catFR1	1	R1395M
-933.532	2.179	492995	REC_END	n/a	n/a	n/a	n/a	-999	1	[0, 0, 0]	n/a	catFR1	1	R1395M
-931.353	10.351	495185	COUNTDOWN_START	n/a	n/a	n/a	n/a	-999	1	[0, 0, 0]	n/a	catFR1	1	R1395M
-921.002	0.0	505526	COUNTDOWN_END	n/a	n/a	n/a	n/a	-999	1	[0, 0, 0]	n/a	catFR1	1	R1395M
-921.002	2.248	505535	ENCODING_START	n/a	n/a	n/a	n/a	-999	2	[0, 0, 0]	n/a	catFR1	1	R1395M
-918.754	1.601	507772	WORD	n/a	wordpools/wordpool_categorized_EN.txt	CALF	FarmAnimals	1	2	[0, 0, 0]	n/a	catFR1	1	R1395M
-917.153	0.8	509372	WORD_OFF	n/a	n/a	CALF	FarmAnimals	1	2	[0, 0, 0]	n/a	catFR1	1	R1395M
-916.353	1.617	510177	WORD	n/a	wordpools/wordpool_categorized_EN.txt	PIG	FarmAnimals	2	2	[0, 0, 0]	n/a	catFR1	1	R1395M
-914.736	0.849	511796	WORD_OFF	n/a	n/a	PIG	FarmAnimals	2	2	[0, 0, 0]	n/a	catFR1	1	R1395M
-913.887	1.601	512639	WORD	n/a	wordpools/wordpool_categorized_EN.txt	ANT	Insects	3	2	[0, 0, 0]	n/a	catFR1	1	R1395M
-912.286	0.982	514248	WORD_OFF	n/a	n/a	ANT	Insects	3	2	[0, 0, 0]	n/a	catFR1	1	R1395M
-911.304	1.601	515222	WORD	n/a	wordpools/wordpool_categorized_EN.txt	BEETLE	Insects	4	2	[0, 0, 0]	n/a	catFR1	1	R1395M
-909.703	0.983	516831	WORD_OFF	n/a	n/a	BEETLE	Insects	4	2	[0, 0, 0]	n/a	catFR1	1	R1395M
-908.72	1.6	517814	WORD	n/a	wordpools/wordpool_categorized_EN.txt	TABLET	Electronics	5	2	[0, 0, 0]	n/a	catFR1	1	R1395M
-907.12	0.767	519414	WORD_OFF	n/a	n/a	TABLET	Electronics	5	2	[0, 0, 0]	n/a	catFR1	1	R1395M
-906.353	1.617	520172	WORD	n/a	wordpools/wordpool_categorized_EN.txt	MICROWAVE	Electronics	6	2	[0, 0, 0]	n/a	catFR1	1	R1395M
-904.736	0.883	521791	WORD_OFF	n/a	n/a	MICROWAVE	Electronics	6	2	[0, 0, 0]	n/a	catFR1	1	R1395M
-903.853	1.616	522680	WORD	n/a	wordpools/wordpool_categorized_EN.txt	GOAT	FarmAnimals	7	2	[0, 0, 0]	n/a	catFR1	1	R1395M
-902.237	0.867	524290	WORD_OFF	n/a	n/a	GOAT	FarmAnimals	7	2	[0, 0, 0]	n/a	catFR1	1	R1395M
-901.37	1.6	525160	WORD	n/a	wordpools/wordpool_categorized_EN.txt	HORSE	FarmAnimals	8	2	[0, 0, 0]	n/a	catFR1	1	R1395M
-899.77	0.834	526761	WORD_OFF	n/a	n/a	HORSE	FarmAnimals	8	2	[0, 0, 0]	n/a	catFR1	1	R1395M
-898.936	1.616	527593	WORD	n/a	wordpools/wordpool_categorized_EN.txt	CRICKET	Insects	9	2	[0, 0, 0]	n/a	catFR1	1	R1395M
-897.32	0.816	529212	WORD_OFF	n/a	n/a	CRICKET	Insects	9	2	[0, 0, 0]	n/a	catFR1	1	R1395M
-896.504	1.6	530027	WORD	n/a	wordpools/wordpool_categorized_EN.txt	FLY	Insects	10	2	[0, 0, 0]	n/a	catFR1	1	R1395M
-894.904	0.917	531627	WORD_OFF	n/a	n/a	FLY	Insects	10	2	[0, 0, 0]	n/a	catFR1	1	R1395M
-893.987	1.6	532544	WORD	n/a	wordpools/wordpool_categorized_EN.txt	RADIO	Electronics	11	2	[0, 0, 0]	n/a	catFR1	1	R1395M
-892.387	0.783	534144	WORD_OFF	n/a	n/a	RADIO	Electronics	11	2	[0, 0, 0]	n/a	catFR1	1	R1395M
-891.604	1.617	534921	WORD	n/a	wordpools/wordpool_categorized_EN.txt	STEREO	Electronics	12	2	[0, 0, 0]	n/a	catFR1	1	R1395M
-889.987	0.002	536540	WORD_OFF	n/a	n/a	STEREO	Electronics	12	2	[0, 0, 0]	n/a	catFR1	1	R1395M
-889.985	0.0	536540	ENCODING_END	n/a	n/a	n/a	n/a	-999	2	[0, 0, 0]	n/a	catFR1	1	R1395M
-889.985	0.0	536540	DISTRACT_START	n/a	n/a	n/a	n/a	-999	2	[0, 0, 0]	n/a	catFR1	1	R1395M
-889.986	0.001	536542	PROB	0.001	n/a	n/a	n/a	-999	2	[3, 8, 8]	19	catFR1	1	R1395M
-889.985	3.799	536543	START	n/a	n/a	n/a	n/a	-999	2	[-999, -999, -999]	n/a	catFR1	1	R1395M
-886.186	2.966	540342	PROB	2.966	n/a	n/a	n/a	-999	2	[5, 2, 6]	13	catFR1	1	R1395M
-883.22	3.867	543307	PROB	3.867	n/a	n/a	n/a	-999	2	[4, 2, 4]	10	catFR1	1	R1395M
-879.353	2.833	547174	PROB	2.833	n/a	n/a	n/a	-999	2	[5, 2, 7]	14	catFR1	1	R1395M
-876.52	2.701	550007	PROB	2.701	n/a	n/a	n/a	-999	2	[7, 3, 6]	16	catFR1	1	R1395M
-873.819	2.516	552708	PROB	2.516	n/a	n/a	n/a	-999	2	[2, 1, 1]	4	catFR1	1	R1395M
-871.303	3.616	555224	PROB	3.616	n/a	n/a	n/a	-999	2	[4, 7, 7]	18	catFR1	1	R1395M
-867.687	0.0	558840	STOP	n/a	n/a	n/a	n/a	-999	2	[-999, -999, -999]	n/a	catFR1	1	R1395M
-867.687	1.067	558841	DISTRACT_END	n/a	n/a	n/a	n/a	-999	2	[0, 0, 0]	n/a	catFR1	1	R1395M
-866.62	1.397	559908	REC_START	n/a	n/a	n/a	n/a	-999	2	[0, 0, 0]	n/a	catFR1	1	R1395M
-865.223	1.473	561303	REC_WORD	1.473	n/a	PIG	FarmAnimals	2	2	[0, 0, 0]	n/a	catFR1	1	R1395M
-863.75	2.424	562776	REC_WORD	2.424	n/a	CALF	FarmAnimals	1	2	[0, 0, 0]	n/a	catFR1	1	R1395M
-861.326	2.447	565200	REC_WORD	2.447	n/a	ANT	Insects	3	2	[0, 0, 0]	n/a	catFR1	1	R1395M
-858.879	1.757	567647	REC_WORD	1.757	n/a	GOAT	FarmAnimals	7	2	[0, 0, 0]	n/a	catFR1	1	R1395M
-857.122	10.498	569404	REC_WORD	10.498	n/a	HORSE	FarmAnimals	8	2	[0, 0, 0]	n/a	catFR1	1	R1395M
-846.624	1.119	579901	REC_WORD	1.119	n/a	RADIO	Electronics	11	2	[0, 0, 0]	n/a	catFR1	1	R1395M
-845.505	6.491	581020	REC_WORD	6.491	n/a	STEREO	Electronics	12	2	[0, 0, 0]	n/a	catFR1	1	R1395M
-839.014	3.635	587511	REC_WORD	3.635	n/a	CRICKET	Insects	9	2	[0, 0, 0]	n/a	catFR1	1	R1395M
-835.379	7.509	591147	REC_END	n/a	n/a	n/a	n/a	-999	2	[0, 0, 0]	n/a	catFR1	1	R1395M
-827.87	10.351	598652	COUNTDOWN_START	n/a	n/a	n/a	n/a	-999	2	[0, 0, 0]	n/a	catFR1	1	R1395M
-817.519	0.0	609003	COUNTDOWN_END	n/a	n/a	n/a	n/a	-999	2	[0, 0, 0]	n/a	catFR1	1	R1395M
-817.519	1.982	609003	ENCODING_START	n/a	n/a	n/a	n/a	-999	3	[0, 0, 0]	n/a	catFR1	1	R1395M
-815.537	1.6	610987	WORD	n/a	wordpools/wordpool_categorized_EN.txt	BLENDER	Appliances	1	3	[0, 0, 0]	n/a	catFR1	1	R1395M
-813.937	0.817	612587	WORD_OFF	n/a	n/a	BLENDER	Appliances	1	3	[0, 0, 0]	n/a	catFR1	1	R1395M
-813.12	1.616	613401	WORD	n/a	wordpools/wordpool_categorized_EN.txt	FREEZER	Appliances	2	3	[0, 0, 0]	n/a	catFR1	1	R1395M
-811.504	0.834	615020	WORD_OFF	n/a	n/a	FREEZER	Appliances	2	3	[0, 0, 0]	n/a	catFR1	1	R1395M
-810.67	1.6	615853	WORD	n/a	wordpools/wordpool_categorized_EN.txt	LEVEL	Tools	3	3	[0, 0, 0]	n/a	catFR1	1	R1395M
-809.07	0.866	617454	WORD_OFF	n/a	n/a	LEVEL	Tools	3	3	[0, 0, 0]	n/a	catFR1	1	R1395M
-808.204	1.617	618324	WORD	n/a	wordpools/wordpool_categorized_EN.txt	CROWBAR	Tools	4	3	[0, 0, 0]	n/a	catFR1	1	R1395M
-806.587	0.817	619934	WORD_OFF	n/a	n/a	CROWBAR	Tools	4	3	[0, 0, 0]	n/a	catFR1	1	R1395M
-805.77	1.617	620757	WORD	n/a	wordpools/wordpool_categorized_EN.txt	WHALE	OceanAnimals	5	3	[0, 0, 0]	n/a	catFR1	1	R1395M
-804.153	0.899	622367	WORD_OFF	n/a	n/a	WHALE	OceanAnimals	5	3	[0, 0, 0]	n/a	catFR1	1	R1395M
-803.254	1.601	623265	WORD	n/a	wordpools/wordpool_categorized_EN.txt	SHRIMP	OceanAnimals	6	3	[0, 0, 0]	n/a	catFR1	1	R1395M
-801.653	0.766	624866	WORD_OFF	n/a	n/a	SHRIMP	OceanAnimals	6	3	[0, 0, 0]	n/a	catFR1	1	R1395M
-800.887	1.616	625633	WORD	n/a	wordpools/wordpool_categorized_EN.txt	SCREWDRIVER	Tools	7	3	[0, 0, 0]	n/a	catFR1	1	R1395M
-799.271	0.85	627252	WORD_OFF	n/a	n/a	SCREWDRIVER	Tools	7	3	[0, 0, 0]	n/a	catFR1	1	R1395M
-798.421	1.6	628104	WORD	n/a	wordpools/wordpool_categorized_EN.txt	RATCHET	Tools	8	3	[0, 0, 0]	n/a	catFR1	1	R1395M
-796.821	0.951	629704	WORD_OFF	n/a	n/a	RATCHET	Tools	8	3	[0, 0, 0]	n/a	catFR1	1	R1395M
-795.87	1.6	630649	WORD	n/a	wordpools/wordpool_categorized_EN.txt	IRON	Appliances	9	3	[0, 0, 0]	n/a	catFR1	1	R1395M
-794.27	0.967	632249	WORD_OFF	n/a	n/a	IRON	Appliances	9	3	[0, 0, 0]	n/a	catFR1	1	R1395M
-793.303	1.6	633223	WORD	n/a	wordpools/wordpool_categorized_EN.txt	STOVE	Appliances	10	3	[0, 0, 0]	n/a	catFR1	1	R1395M
-791.703	0.867	634823	WORD_OFF	n/a	n/a	STOVE	Appliances	10	3	[0, 0, 0]	n/a	catFR1	1	R1395M
-790.836	1.6	635684	WORD	n/a	wordpools/wordpool_categorized_EN.txt	JELLYFISH	OceanAnimals	11	3	[0, 0, 0]	n/a	catFR1	1	R1395M
-789.236	0.967	637284	WORD_OFF	n/a	n/a	JELLYFISH	OceanAnimals	11	3	[0, 0, 0]	n/a	catFR1	1	R1395M
-788.269	1.617	638258	WORD	n/a	wordpools/wordpool_categorized_EN.txt	PLANKTON	OceanAnimals	12	3	[0, 0, 0]	n/a	catFR1	1	R1395M
-786.652	0.001	639867	WORD_OFF	n/a	n/a	PLANKTON	OceanAnimals	12	3	[0, 0, 0]	n/a	catFR1	1	R1395M
-786.651	0.001	639871	PROB	0.001	n/a	n/a	n/a	-999	3	[4, 6, 6]	16	catFR1	1	R1395M
-786.65	0.0	639872	START	n/a	n/a	n/a	n/a	-999	3	[-999, -999, -999]	n/a	catFR1	1	R1395M
-786.65	0.0	639877	ENCODING_END	n/a	n/a	n/a	n/a	-999	3	[0, 0, 0]	n/a	catFR1	1	R1395M
-786.65	4.43	639877	DISTRACT_START	n/a	n/a	n/a	n/a	-999	3	[0, 0, 0]	n/a	catFR1	1	R1395M
-782.22	2.717	644302	PROB	2.717	n/a	n/a	n/a	-999	3	[2, 1, 2]	5	catFR1	1	R1395M
-779.503	3.1	647019	PROB	3.1	n/a	n/a	n/a	-999	3	[3, 4, 4]	11	catFR1	1	R1395M
-776.403	2.917	650119	PROB	2.917	n/a	n/a	n/a	-999	3	[8, 7, 3]	18	catFR1	1	R1395M
-773.486	3.134	653036	PROB	3.134	n/a	n/a	n/a	-999	3	[8, 1, 4]	13	catFR1	1	R1395M
-770.352	2.966	656169	PROB	2.966	n/a	n/a	n/a	-999	3	[3, 4, 8]	15	catFR1	1	R1395M
-767.386	2.816	659135	PROB	2.816	n/a	n/a	n/a	-999	3	[7, 3, 8]	18	catFR1	1	R1395M
-764.57	0.0	661951	STOP	n/a	n/a	n/a	n/a	-999	3	[-999, -999, -999]	n/a	catFR1	1	R1395M
-764.57	1.217	661953	DISTRACT_END	n/a	n/a	n/a	n/a	-999	3	[0, 0, 0]	n/a	catFR1	1	R1395M
-763.353	1.334	663170	REC_START	n/a	n/a	n/a	n/a	-999	3	[0, 0, 0]	n/a	catFR1	1	R1395M
-762.019	0.866	664502	REC_WORD_VV	0.866	n/a	<>	n/a	-999	3	[0, 0, 0]	n/a	catFR1	1	R1395M
-761.153	1.107	665368	REC_WORD	1.107	n/a	PLANKTON	OceanAnimals	12	3	[0, 0, 0]	n/a	catFR1	1	R1395M
-760.046	1.601	666475	REC_WORD	1.601	n/a	JELLYFISH	OceanAnimals	11	3	[0, 0, 0]	n/a	catFR1	1	R1395M
-758.445	3.928	668076	REC_WORD	3.928	n/a	LEVEL	Tools	3	3	[0, 0, 0]	n/a	catFR1	1	R1395M
-754.517	2.614	672004	REC_WORD	2.614	n/a	IRON	Appliances	9	3	[0, 0, 0]	n/a	catFR1	1	R1395M
-751.903	5.631	674617	REC_WORD	5.631	n/a	STOVE	Appliances	10	3	[0, 0, 0]	n/a	catFR1	1	R1395M
-746.272	14.145	680248	REC_WORD	14.145	n/a	SCREWDRIVER	Tools	7	3	[0, 0, 0]	n/a	catFR1	1	R1395M
-732.127	2.091	694390	REC_END	n/a	n/a	n/a	n/a	-999	3	[0, 0, 0]	n/a	catFR1	1	R1395M
-730.036	10.35	696486	COUNTDOWN_START	n/a	n/a	n/a	n/a	-999	3	[0, 0, 0]	n/a	catFR1	1	R1395M
-719.686	0.0	706837	COUNTDOWN_END	n/a	n/a	n/a	n/a	-999	3	[0, 0, 0]	n/a	catFR1	1	R1395M
-719.686	2.183	706837	ENCODING_START	n/a	n/a	n/a	n/a	-999	4	[0, 0, 0]	n/a	catFR1	1	R1395M
-717.503	1.6	709017	WORD	n/a	wordpools/wordpool_categorized_EN.txt	FISH	OceanAnimals	1	4	[0, 0, 0]	n/a	catFR1	1	R1395M
-715.903	0.916	710617	WORD_OFF	n/a	n/a	FISH	OceanAnimals	1	4	[0, 0, 0]	n/a	catFR1	1	R1395M
-714.987	1.617	711534	WORD	n/a	wordpools/wordpool_categorized_EN.txt	CRAB	OceanAnimals	2	4	[0, 0, 0]	n/a	catFR1	1	R1395M
-713.37	1.0	713154	WORD_OFF	n/a	n/a	CRAB	OceanAnimals	2	4	[0, 0, 0]	n/a	catFR1	1	R1395M
-712.37	1.616	714146	WORD	n/a	wordpools/wordpool_categorized_EN.txt	DAISY	Flowers	3	4	[0, 0, 0]	n/a	catFR1	1	R1395M
-710.754	0.85	715765	WORD_OFF	n/a	n/a	DAISY	Flowers	3	4	[0, 0, 0]	n/a	catFR1	1	R1395M
-709.904	1.6	716616	WORD	n/a	wordpools/wordpool_categorized_EN.txt	ROSE	Flowers	4	4	[0, 0, 0]	n/a	catFR1	1	R1395M
-708.304	0.917	718216	WORD_OFF	n/a	n/a	ROSE	Flowers	4	4	[0, 0, 0]	n/a	catFR1	1	R1395M
-707.387	1.6	719134	WORD	n/a	wordpools/wordpool_categorized_EN.txt	SOFA	Furniture	5	4	[0, 0, 0]	n/a	catFR1	1	R1395M
-705.787	0.867	720734	WORD_OFF	n/a	n/a	SOFA	Furniture	5	4	[0, 0, 0]	n/a	catFR1	1	R1395M
-704.92	1.6	721595	WORD	n/a	wordpools/wordpool_categorized_EN.txt	SHELF	Furniture	6	4	[0, 0, 0]	n/a	catFR1	1	R1395M
-703.32	0.783	723195	WORD_OFF	n/a	n/a	SHELF	Furniture	6	4	[0, 0, 0]	n/a	catFR1	1	R1395M
-702.537	1.6	723981	WORD	n/a	wordpools/wordpool_categorized_EN.txt	DAFFODIL	Flowers	7	4	[0, 0, 0]	n/a	catFR1	1	R1395M
-700.937	1.0	725582	WORD_OFF	n/a	n/a	DAFFODIL	Flowers	7	4	[0, 0, 0]	n/a	catFR1	1	R1395M
-699.937	1.6	726583	WORD	n/a	wordpools/wordpool_categorized_EN.txt	LILY	Flowers	8	4	[0, 0, 0]	n/a	catFR1	1	R1395M
-698.337	0.833	728183	WORD_OFF	n/a	n/a	LILY	Flowers	8	4	[0, 0, 0]	n/a	catFR1	1	R1395M
-697.504	1.6	729016	WORD	n/a	wordpools/wordpool_categorized_EN.txt	DRESSER	Furniture	9	4	[0, 0, 0]	n/a	catFR1	1	R1395M
-695.904	0.983	730616	WORD_OFF	n/a	n/a	DRESSER	Furniture	9	4	[0, 0, 0]	n/a	catFR1	1	R1395M
-694.921	1.617	731599	WORD	n/a	wordpools/wordpool_categorized_EN.txt	COUCH	Furniture	10	4	[0, 0, 0]	n/a	catFR1	1	R1395M
-693.304	0.967	733218	WORD_OFF	n/a	n/a	COUCH	Furniture	10	4	[0, 0, 0]	n/a	catFR1	1	R1395M
-692.337	1.617	734182	WORD	n/a	wordpools/wordpool_categorized_EN.txt	OCTOPUS	OceanAnimals	11	4	[0, 0, 0]	n/a	catFR1	1	R1395M
-690.72	0.833	735801	WORD_OFF	n/a	n/a	OCTOPUS	OceanAnimals	11	4	[0, 0, 0]	n/a	catFR1	1	R1395M
-689.887	1.601	736634	WORD	n/a	wordpools/wordpool_categorized_EN.txt	TURTLE	OceanAnimals	12	4	[0, 0, 0]	n/a	catFR1	1	R1395M
-688.286	0.001	738231	PROB	0.001	n/a	n/a	n/a	-999	4	[7, 1, 3]	11	catFR1	1	R1395M
-688.285	0.0	738232	START	n/a	n/a	n/a	n/a	-999	4	[-999, -999, -999]	n/a	catFR1	1	R1395M
-688.286	0.001	738234	WORD_OFF	n/a	n/a	TURTLE	OceanAnimals	12	4	[0, 0, 0]	n/a	catFR1	1	R1395M
-688.285	0.0	738234	ENCODING_END	n/a	n/a	n/a	n/a	-999	4	[0, 0, 0]	n/a	catFR1	1	R1395M
-688.285	2.902	738234	DISTRACT_START	n/a	n/a	n/a	n/a	-999	4	[0, 0, 0]	n/a	catFR1	1	R1395M
-685.383	2.947	741134	PROB	2.947	n/a	n/a	n/a	-999	4	[8, 2, 8]	18	catFR1	1	R1395M
-682.436	3.434	744081	PROB	3.434	n/a	n/a	n/a	-999	4	[8, 7, 8]	23	catFR1	1	R1395M
-679.002	2.966	747514	PROB	2.966	n/a	n/a	n/a	-999	4	[6, 7, 1]	14	catFR1	1	R1395M
-676.036	4.184	750480	PROB	4.184	n/a	n/a	n/a	-999	4	[7, 4, 3]	14	catFR1	1	R1395M
-671.852	3.382	754664	PROB	3.382	n/a	n/a	n/a	-999	4	[8, 6, 6]	20	catFR1	1	R1395M
-668.47	3.167	758046	PROB	3.167	n/a	n/a	n/a	-999	4	[5, 7, 1]	13	catFR1	1	R1395M
-665.303	0.0	761209	DISTRACT_END	n/a	n/a	n/a	n/a	-999	4	[0, 0, 0]	n/a	catFR1	1	R1395M
-665.303	1.1	761213	STOP	n/a	n/a	n/a	n/a	-999	4	[-999, -999, -999]	n/a	catFR1	1	R1395M
-664.203	1.118	762314	REC_START	n/a	n/a	n/a	n/a	-999	4	[0, 0, 0]	n/a	catFR1	1	R1395M
-663.085	1.282	763431	REC_WORD	1.282	n/a	FISH	OceanAnimals	1	4	[0, 0, 0]	n/a	catFR1	1	R1395M
-661.803	1.639	764713	REC_WORD	1.639	n/a	CRAB	OceanAnimals	2	4	[0, 0, 0]	n/a	catFR1	1	R1395M
-660.164	1.045	766351	REC_WORD	1.045	n/a	DAISY	Flowers	3	4	[0, 0, 0]	n/a	catFR1	1	R1395M
-659.119	2.251	767396	REC_WORD	2.251	n/a	ROSE	Flowers	4	4	[0, 0, 0]	n/a	catFR1	1	R1395M
-656.868	1.471	769647	REC_WORD	1.471	n/a	LILY	Flowers	8	4	[0, 0, 0]	n/a	catFR1	1	R1395M
-655.397	6.059	771118	REC_WORD	6.059	n/a	DAFFODIL	Flowers	7	4	[0, 0, 0]	n/a	catFR1	1	R1395M
-649.338	4.208	777177	REC_WORD	4.208	n/a	OCTOPUS	OceanAnimals	11	4	[0, 0, 0]	n/a	catFR1	1	R1395M
-645.13	0.93	781385	REC_WORD	0.93	n/a	SQUID	n/a	-999	4	[0, 0, 0]	n/a	catFR1	1	R1395M
-644.2	2.697	782315	REC_WORD	2.697	n/a	FISH	OceanAnimals	1	4	[0, 0, 0]	n/a	catFR1	1	R1395M
-641.503	8.505	785011	REC_WORD	8.505	n/a	SQUID	n/a	-999	4	[0, 0, 0]	n/a	catFR1	1	R1395M
-632.998	11.379	793515	REC_END	n/a	n/a	n/a	n/a	-999	4	[0, 0, 0]	n/a	catFR1	1	R1395M
-621.619	10.35	804895	COUNTDOWN_START	n/a	n/a	n/a	n/a	-999	4	[0, 0, 0]	n/a	catFR1	1	R1395M
-611.269	0.0	815245	COUNTDOWN_END	n/a	n/a	n/a	n/a	-999	4	[0, 0, 0]	n/a	catFR1	1	R1395M
-611.269	2.033	815245	ENCODING_START	n/a	n/a	n/a	n/a	-999	5	[0, 0, 0]	n/a	catFR1	1	R1395M
-609.236	1.616	817276	WORD	n/a	wordpools/wordpool_categorized_EN.txt	VAN	Vehicles	1	5	[0, 0, 0]	n/a	catFR1	1	R1395M
-607.62	0.9	818895	WORD_OFF	n/a	n/a	VAN	Vehicles	1	5	[0, 0, 0]	n/a	catFR1	1	R1395M
-606.72	1.6	819793	WORD	n/a	wordpools/wordpool_categorized_EN.txt	MOTORCYCLE	Vehicles	2	5	[0, 0, 0]	n/a	catFR1	1	R1395M
-605.12	0.983	821394	WORD_OFF	n/a	n/a	MOTORCYCLE	Vehicles	2	5	[0, 0, 0]	n/a	catFR1	1	R1395M
-604.137	1.617	822376	WORD	n/a	wordpools/wordpool_categorized_EN.txt	TIGER	Zoo	3	5	[0, 0, 0]	n/a	catFR1	1	R1395M
-602.52	0.8	823995	WORD_OFF	n/a	n/a	TIGER	Zoo	3	5	[0, 0, 0]	n/a	catFR1	1	R1395M
-601.72	1.6	824791	WORD	n/a	wordpools/wordpool_categorized_EN.txt	BEAR	Zoo	4	5	[0, 0, 0]	n/a	catFR1	1	R1395M
-600.12	0.834	826391	WORD_OFF	n/a	n/a	BEAR	Zoo	4	5	[0, 0, 0]	n/a	catFR1	1	R1395M
-599.286	1.6	827224	WORD	n/a	wordpools/wordpool_categorized_EN.txt	MARIGOLD	Flowers	5	5	[0, 0, 0]	n/a	catFR1	1	R1395M
-597.686	0.983	828824	WORD_OFF	n/a	n/a	MARIGOLD	Flowers	5	5	[0, 0, 0]	n/a	catFR1	1	R1395M
-596.703	1.6	829807	WORD	n/a	wordpools/wordpool_categorized_EN.txt	SUNFLOWER	Flowers	6	5	[0, 0, 0]	n/a	catFR1	1	R1395M
-595.103	0.867	831407	WORD_OFF	n/a	n/a	SUNFLOWER	Flowers	6	5	[0, 0, 0]	n/a	catFR1	1	R1395M
-594.236	1.616	832278	WORD	n/a	wordpools/wordpool_categorized_EN.txt	LION	Zoo	7	5	[0, 0, 0]	n/a	catFR1	1	R1395M
-592.62	0.884	833897	WORD_OFF	n/a	n/a	LION	Zoo	7	5	[0, 0, 0]	n/a	catFR1	1	R1395M
-591.736	1.6	834776	WORD	n/a	wordpools/wordpool_categorized_EN.txt	CHEETAH	Zoo	8	5	[0, 0, 0]	n/a	catFR1	1	R1395M
-590.136	0.983	836377	WORD_OFF	n/a	n/a	CHEETAH	Zoo	8	5	[0, 0, 0]	n/a	catFR1	1	R1395M
-589.153	1.616	837359	WORD	n/a	wordpools/wordpool_categorized_EN.txt	BOAT	Vehicles	9	5	[0, 0, 0]	n/a	catFR1	1	R1395M
-587.537	0.933	838978	WORD_OFF	n/a	n/a	BOAT	Vehicles	9	5	[0, 0, 0]	n/a	catFR1	1	R1395M
-586.604	1.601	839905	WORD	n/a	wordpools/wordpool_categorized_EN.txt	SCOOTER	Vehicles	10	5	[0, 0, 0]	n/a	catFR1	1	R1395M
-585.003	0.766	841505	WORD_OFF	n/a	n/a	SCOOTER	Vehicles	10	5	[0, 0, 0]	n/a	catFR1	1	R1395M
-584.237	1.6	842272	WORD	n/a	wordpools/wordpool_categorized_EN.txt	VIOLET	Flowers	11	5	[0, 0, 0]	n/a	catFR1	1	R1395M
-582.637	0.95	843873	WORD_OFF	n/a	n/a	VIOLET	Flowers	11	5	[0, 0, 0]	n/a	catFR1	1	R1395M
-581.687	1.601	844827	WORD	n/a	wordpools/wordpool_categorized_EN.txt	PETUNIA	Flowers	12	5	[0, 0, 0]	n/a	catFR1	1	R1395M
-580.086	0.002	846425	PROB	0.002	n/a	n/a	n/a	-999	5	[6, 7, 5]	18	catFR1	1	R1395M
-580.084	0.0	846427	START	n/a	n/a	n/a	n/a	-999	5	[-999, -999, -999]	n/a	catFR1	1	R1395M
-580.086	0.001	846428	WORD_OFF	n/a	n/a	PETUNIA	Flowers	12	5	[0, 0, 0]	n/a	catFR1	1	R1395M
-580.085	0.001	846428	ENCODING_END	n/a	n/a	n/a	n/a	-999	5	[0, 0, 0]	n/a	catFR1	1	R1395M
-580.084	5.398	846428	DISTRACT_START	n/a	n/a	n/a	n/a	-999	5	[0, 0, 0]	n/a	catFR1	1	R1395M
-574.686	3.832	851825	PROB	3.832	n/a	n/a	n/a	-999	5	[5, 3, 5]	13	catFR1	1	R1395M
-570.854	2.668	855657	PROB	2.668	n/a	n/a	n/a	-999	5	[5, 8, 1]	14	catFR1	1	R1395M
-568.186	2.567	858325	PROB	2.567	n/a	n/a	n/a	-999	5	[5, 5, 2]	12	catFR1	1	R1395M
-565.619	3.35	860891	PROB	3.35	n/a	n/a	n/a	-999	5	[8, 7, 3]	18	catFR1	1	R1395M
-562.269	2.916	864241	PROB	2.916	n/a	n/a	n/a	-999	5	[5, 6, 4]	15	catFR1	1	R1395M
-559.353	0.0	867157	DISTRACT_END	n/a	n/a	n/a	n/a	-999	5	[0, 0, 0]	n/a	catFR1	1	R1395M
-559.353	1.366	867157	STOP	n/a	n/a	n/a	n/a	-999	5	[-999, -999, -999]	n/a	catFR1	1	R1395M
-557.987	1.274	868523	REC_START	n/a	n/a	n/a	n/a	-999	5	[0, 0, 0]	n/a	catFR1	1	R1395M
-556.713	1.599	869797	REC_WORD	1.599	n/a	BEAR	Zoo	4	5	[0, 0, 0]	n/a	catFR1	1	R1395M
-555.114	1.286	871396	REC_WORD	1.286	n/a	TIGER	Zoo	3	5	[0, 0, 0]	n/a	catFR1	1	R1395M
-553.828	1.435	872682	REC_WORD	1.435	n/a	LION	Zoo	7	5	[0, 0, 0]	n/a	catFR1	1	R1395M
-552.393	3.32	874117	REC_WORD	3.32	n/a	CHEETAH	Zoo	8	5	[0, 0, 0]	n/a	catFR1	1	R1395M
-549.073	22.305	877437	REC_WORD	22.305	n/a	VIOLET	Flowers	11	5	[0, 0, 0]	n/a	catFR1	1	R1395M
-526.768	2.282	899743	REC_END	n/a	n/a	n/a	n/a	-999	5	[0, 0, 0]	n/a	catFR1	1	R1395M
-524.486	10.35	902026	COUNTDOWN_START	n/a	n/a	n/a	n/a	-999	5	[0, 0, 0]	n/a	catFR1	1	R1395M
-514.136	0.0	912368	COUNTDOWN_END	n/a	n/a	n/a	n/a	-999	5	[0, 0, 0]	n/a	catFR1	1	R1395M
-514.136	2.216	912377	ENCODING_START	n/a	n/a	n/a	n/a	-999	6	[0, 0, 0]	n/a	catFR1	1	R1395M
-511.92	1.6	914586	WORD	n/a	wordpools/wordpool_categorized_EN.txt	CELLO	Instruments	1	6	[0, 0, 0]	n/a	catFR1	1	R1395M
-510.32	0.8	916186	WORD_OFF	n/a	n/a	CELLO	Instruments	1	6	[0, 0, 0]	n/a	catFR1	1	R1395M
-509.52	1.617	916991	WORD	n/a	wordpools/wordpool_categorized_EN.txt	BASS	Instruments	2	6	[0, 0, 0]	n/a	catFR1	1	R1395M
-507.903	0.9	918600	WORD_OFF	n/a	n/a	BASS	Instruments	2	6	[0, 0, 0]	n/a	catFR1	1	R1395M
-507.003	1.6	919508	WORD	n/a	wordpools/wordpool_categorized_EN.txt	SHIRT	Clothing	3	6	[0, 0, 0]	n/a	catFR1	1	R1395M
-505.403	0.8	921108	WORD_OFF	n/a	n/a	SHIRT	Clothing	3	6	[0, 0, 0]	n/a	catFR1	1	R1395M
-504.603	1.6	921904	WORD	n/a	wordpools/wordpool_categorized_EN.txt	UNDERWEAR	Clothing	4	6	[0, 0, 0]	n/a	catFR1	1	R1395M
-503.003	0.867	923504	WORD_OFF	n/a	n/a	UNDERWEAR	Clothing	4	6	[0, 0, 0]	n/a	catFR1	1	R1395M
-502.136	1.616	924374	WORD	n/a	wordpools/wordpool_categorized_EN.txt	ISLAND	Landscapes	5	6	[0, 0, 0]	n/a	catFR1	1	R1395M
-500.52	0.8	925984	WORD_OFF	n/a	n/a	ISLAND	Landscapes	5	6	[0, 0, 0]	n/a	catFR1	1	R1395M
-499.72	1.6	926789	WORD	n/a	wordpools/wordpool_categorized_EN.txt	LAKE	Landscapes	6	6	[0, 0, 0]	n/a	catFR1	1	R1395M
-498.12	0.966	928389	WORD_OFF	n/a	n/a	LAKE	Landscapes	6	6	[0, 0, 0]	n/a	catFR1	1	R1395M
-497.154	1.601	929353	WORD	n/a	wordpools/wordpool_categorized_EN.txt	TUBA	Instruments	7	6	[0, 0, 0]	n/a	catFR1	1	R1395M
-495.553	0.767	930954	WORD_OFF	n/a	n/a	TUBA	Instruments	7	6	[0, 0, 0]	n/a	catFR1	1	R1395M
-494.786	1.6	931721	WORD	n/a	wordpools/wordpool_categorized_EN.txt	ORGAN	Instruments	8	6	[0, 0, 0]	n/a	catFR1	1	R1395M
-493.186	0.9	933321	WORD_OFF	n/a	n/a	ORGAN	Instruments	8	6	[0, 0, 0]	n/a	catFR1	1	R1395M
-492.286	1.615	934220	WORD	n/a	wordpools/wordpool_categorized_EN.txt	BLOUSE	Clothing	9	6	[0, 0, 0]	n/a	catFR1	1	R1395M
-490.671	0.918	935839	WORD_OFF	n/a	n/a	BLOUSE	Clothing	9	6	[0, 0, 0]	n/a	catFR1	1	R1395M
-489.753	1.6	936756	WORD	n/a	wordpools/wordpool_categorized_EN.txt	PANTS	Clothing	10	6	[0, 0, 0]	n/a	catFR1	1	R1395M
-488.153	0.882	938356	WORD_OFF	n/a	n/a	PANTS	Clothing	10	6	[0, 0, 0]	n/a	catFR1	1	R1395M
-487.271	1.601	939236	WORD	n/a	wordpools/wordpool_categorized_EN.txt	CREEK	Landscapes	11	6	[0, 0, 0]	n/a	catFR1	1	R1395M
-485.67	0.95	940836	WORD_OFF	n/a	n/a	CREEK	Landscapes	11	6	[0, 0, 0]	n/a	catFR1	1	R1395M
-484.72	1.616	941791	WORD	n/a	wordpools/wordpool_categorized_EN.txt	VALLEY	Landscapes	12	6	[0, 0, 0]	n/a	catFR1	1	R1395M
-483.104	0.001	943400	WORD_OFF	n/a	n/a	VALLEY	Landscapes	12	6	[0, 0, 0]	n/a	catFR1	1	R1395M
-483.103	0.001	943403	PROB	0.001	n/a	n/a	n/a	-999	6	[2, 4, 4]	10	catFR1	1	R1395M
-483.102	0.0	943404	START	n/a	n/a	n/a	n/a	-999	6	[-999, -999, -999]	n/a	catFR1	1	R1395M
-483.102	0.0	943410	ENCODING_END	n/a	n/a	n/a	n/a	-999	6	[0, 0, 0]	n/a	catFR1	1	R1395M
-483.102	3.699	943410	DISTRACT_START	n/a	n/a	n/a	n/a	-999	6	[0, 0, 0]	n/a	catFR1	1	R1395M
-479.403	2.818	947103	PROB	2.818	n/a	n/a	n/a	-999	6	[7, 7, 3]	17	catFR1	1	R1395M
-476.585	3.066	949921	PROB	3.066	n/a	n/a	n/a	-999	6	[5, 4, 1]	10	catFR1	1	R1395M
-473.519	3.217	952987	PROB	3.217	n/a	n/a	n/a	-999	6	[6, 1, 2]	9	catFR1	1	R1395M
-470.302	3.016	956203	PROB	3.016	n/a	n/a	n/a	-999	6	[6, 1, 5]	12	catFR1	1	R1395M
-467.286	2.767	959219	PROB	2.767	n/a	n/a	n/a	-999	6	[5, 5, 7]	17	catFR1	1	R1395M
-464.519	3.332	961986	PROB	3.332	n/a	n/a	n/a	-999	6	[6, 5, 5]	16	catFR1	1	R1395M
-461.187	0.0	965318	DISTRACT_END	n/a	n/a	n/a	n/a	-999	6	[0, 0, 0]	n/a	catFR1	1	R1395M
-461.187	1.334	965318	STOP	n/a	n/a	n/a	n/a	-999	6	[-999, -999, -999]	n/a	catFR1	1	R1395M
-459.853	2.372	966656	REC_START	n/a	n/a	n/a	n/a	-999	6	[0, 0, 0]	n/a	catFR1	1	R1395M
-457.481	0.964	969024	REC_WORD	0.964	n/a	BLOUSE	Clothing	9	6	[0, 0, 0]	n/a	catFR1	1	R1395M
-456.517	2.93	969988	REC_WORD	2.93	n/a	PANTS	Clothing	10	6	[0, 0, 0]	n/a	catFR1	1	R1395M
-453.587	4.778	972917	REC_WORD	4.778	n/a	SHIRT	Clothing	3	6	[0, 0, 0]	n/a	catFR1	1	R1395M
-448.809	2.763	977695	REC_WORD	2.763	n/a	ISLAND	Landscapes	5	6	[0, 0, 0]	n/a	catFR1	1	R1395M
-446.046	17.427	980458	REC_WORD	17.427	n/a	LAKE	Landscapes	6	6	[0, 0, 0]	n/a	catFR1	1	R1395M
-428.619	2.933	997885	REC_END	n/a	n/a	n/a	n/a	-999	6	[0, 0, 0]	n/a	catFR1	1	R1395M
-425.686	10.35	1000824	COUNTDOWN_START	n/a	n/a	n/a	n/a	-999	6	[0, 0, 0]	n/a	catFR1	1	R1395M
-415.336	0.0	1011165	COUNTDOWN_END	n/a	n/a	n/a	n/a	-999	6	[0, 0, 0]	n/a	catFR1	1	R1395M
-415.336	2.332	1011174	ENCODING_START	n/a	n/a	n/a	n/a	-999	7	[0, 0, 0]	n/a	catFR1	1	R1395M
-413.004	1.617	1013495	WORD	n/a	wordpools/wordpool_categorized_EN.txt	MOSQUITO	Insects	1	7	[0, 0, 0]	n/a	catFR1	1	R1395M
-411.387	0.85	1015114	WORD_OFF	n/a	n/a	MOSQUITO	Insects	1	7	[0, 0, 0]	n/a	catFR1	1	R1395M
-410.537	1.6	1015966	WORD	n/a	wordpools/wordpool_categorized_EN.txt	LADYBUG	Insects	2	7	[0, 0, 0]	n/a	catFR1	1	R1395M
-408.937	0.95	1017566	WORD_OFF	n/a	n/a	LADYBUG	Insects	2	7	[0, 0, 0]	n/a	catFR1	1	R1395M
-407.987	1.616	1018516	WORD	n/a	wordpools/wordpool_categorized_EN.txt	MOUNTAIN	Landscapes	3	7	[0, 0, 0]	n/a	catFR1	1	R1395M
-406.371	0.968	1020131	WORD_OFF	n/a	n/a	MOUNTAIN	Landscapes	3	7	[0, 0, 0]	n/a	catFR1	1	R1395M
-405.403	1.617	1021104	WORD	n/a	wordpools/wordpool_categorized_EN.txt	FOREST	Landscapes	4	7	[0, 0, 0]	n/a	catFR1	1	R1395M
-403.786	0.983	1022713	WORD_OFF	n/a	n/a	FOREST	Landscapes	4	7	[0, 0, 0]	n/a	catFR1	1	R1395M
-402.803	1.6	1023696	WORD	n/a	wordpools/wordpool_categorized_EN.txt	FLEECE	Fabric	5	7	[0, 0, 0]	n/a	catFR1	1	R1395M
-401.203	0.867	1025296	WORD_OFF	n/a	n/a	FLEECE	Fabric	5	7	[0, 0, 0]	n/a	catFR1	1	R1395M
-400.336	1.616	1026167	WORD	n/a	wordpools/wordpool_categorized_EN.txt	COTTON	Fabric	6	7	[0, 0, 0]	n/a	catFR1	1	R1395M
-398.72	0.783	1027786	WORD_OFF	n/a	n/a	COTTON	Fabric	6	7	[0, 0, 0]	n/a	catFR1	1	R1395M
-397.937	1.601	1028562	WORD	n/a	wordpools/wordpool_categorized_EN.txt	BUTTERFLY	Insects	7	7	[0, 0, 0]	n/a	catFR1	1	R1395M
-396.336	0.766	1030163	WORD_OFF	n/a	n/a	BUTTERFLY	Insects	7	7	[0, 0, 0]	n/a	catFR1	1	R1395M
-395.57	1.617	1030930	WORD	n/a	wordpools/wordpool_categorized_EN.txt	SPIDER	Insects	8	7	[0, 0, 0]	n/a	catFR1	1	R1395M
-393.953	0.8	1032549	WORD_OFF	n/a	n/a	SPIDER	Insects	8	7	[0, 0, 0]	n/a	catFR1	1	R1395M
-393.153	1.6	1033345	WORD	n/a	wordpools/wordpool_categorized_EN.txt	WOOL	Fabric	9	7	[0, 0, 0]	n/a	catFR1	1	R1395M
-391.553	0.833	1034945	WORD_OFF	n/a	n/a	WOOL	Fabric	9	7	[0, 0, 0]	n/a	catFR1	1	R1395M
-390.72	1.6	1035778	WORD	n/a	wordpools/wordpool_categorized_EN.txt	LINEN	Fabric	10	7	[0, 0, 0]	n/a	catFR1	1	R1395M
-389.12	0.984	1037378	WORD_OFF	n/a	n/a	LINEN	Fabric	10	7	[0, 0, 0]	n/a	catFR1	1	R1395M
-388.136	1.616	1038370	WORD	n/a	wordpools/wordpool_categorized_EN.txt	WOODS	Landscapes	11	7	[0, 0, 0]	n/a	catFR1	1	R1395M
-386.52	1.0	1039980	WORD_OFF	n/a	n/a	WOODS	Landscapes	11	7	[0, 0, 0]	n/a	catFR1	1	R1395M
-385.52	1.617	1040981	WORD	n/a	wordpools/wordpool_categorized_EN.txt	BEACH	Landscapes	12	7	[0, 0, 0]	n/a	catFR1	1	R1395M
-383.903	0.001	1042598	PROB	0.001	n/a	n/a	n/a	-999	7	[7, 1, 7]	15	catFR1	1	R1395M
-383.902	0.0	1042599	START	n/a	n/a	n/a	n/a	-999	7	[-999, -999, -999]	n/a	catFR1	1	R1395M
-383.904	0.002	1042600	WORD_OFF	n/a	n/a	BEACH	Landscapes	12	7	[0, 0, 0]	n/a	catFR1	1	R1395M
-383.902	0.0	1042600	ENCODING_END	n/a	n/a	n/a	n/a	-999	7	[0, 0, 0]	n/a	catFR1	1	R1395M
-383.902	3.749	1042600	DISTRACT_START	n/a	n/a	n/a	n/a	-999	7	[0, 0, 0]	n/a	catFR1	1	R1395M
-380.153	2.467	1046348	PROB	2.467	n/a	n/a	n/a	-999	7	[1, 8, 2]	11	catFR1	1	R1395M
-377.686	2.699	1048814	PROB	2.699	n/a	n/a	n/a	-999	7	[5, 4, 4]	12	catFR1	1	R1395M
-374.987	3.485	1051513	PROB	3.485	n/a	n/a	n/a	-999	7	[7, 4, 6]	17	catFR1	1	R1395M
-371.502	2.783	1054998	PROB	2.783	n/a	n/a	n/a	-999	7	[8, 8, 2]	18	catFR1	1	R1395M
-368.719	3.684	1057781	PROB	3.684	n/a	n/a	n/a	-999	7	[7, 8, 3]	18	catFR1	1	R1395M
-365.035	3.264	1061465	PROB	3.264	n/a	n/a	n/a	-999	7	[7, 2, 8]	17	catFR1	1	R1395M
-361.771	0.0	1064729	STOP	n/a	n/a	n/a	n/a	-999	7	[-999, -999, -999]	n/a	catFR1	1	R1395M
-361.771	1.183	1064733	DISTRACT_END	n/a	n/a	n/a	n/a	-999	7	[0, 0, 0]	n/a	catFR1	1	R1395M
-360.588	2.401	1065912	REC_START	n/a	n/a	n/a	n/a	-999	7	[0, 0, 0]	n/a	catFR1	1	R1395M
-358.187	1.505	1068312	REC_WORD	1.505	n/a	SPIDER	Insects	8	7	[0, 0, 0]	n/a	catFR1	1	R1395M
-356.682	1.514	1069817	REC_WORD	1.514	n/a	BUTTERFLY	Insects	7	7	[0, 0, 0]	n/a	catFR1	1	R1395M
-355.168	0.617	1071331	REC_WORD	0.617	n/a	BUTTERFLY	Insects	7	7	[0, 0, 0]	n/a	catFR1	1	R1395M
-354.551	1.432	1071948	REC_WORD	1.432	n/a	WOOL	Fabric	9	7	[0, 0, 0]	n/a	catFR1	1	R1395M
-353.119	11.177	1073380	REC_WORD	11.177	n/a	LINEN	Fabric	10	7	[0, 0, 0]	n/a	catFR1	1	R1395M
-341.942	10.202	1084557	REC_WORD	10.202	n/a	BASS	Instruments	-999	7	[0, 0, 0]	n/a	catFR1	1	R1395M
-331.74	2.351	1094758	REC_WORD	2.351	n/a	COTTON	Fabric	6	7	[0, 0, 0]	n/a	catFR1	1	R1395M
-329.389	3.47	1097113	REC_END	n/a	n/a	n/a	n/a	-999	7	[0, 0, 0]	n/a	catFR1	1	R1395M
-325.919	10.35	1100585	COUNTDOWN_START	n/a	n/a	n/a	n/a	-999	7	[0, 0, 0]	n/a	catFR1	1	R1395M
-315.569	0.0	1110927	COUNTDOWN_END	n/a	n/a	n/a	n/a	-999	7	[0, 0, 0]	n/a	catFR1	1	R1395M
-315.569	1.882	1110927	ENCODING_START	n/a	n/a	n/a	n/a	-999	8	[0, 0, 0]	n/a	catFR1	1	R1395M
-313.687	1.6	1112808	WORD	n/a	wordpools/wordpool_categorized_EN.txt	TURKEY	FarmAnimals	1	8	[0, 0, 0]	n/a	catFR1	1	R1395M
-312.087	0.9	1114408	WORD_OFF	n/a	n/a	TURKEY	FarmAnimals	1	8	[0, 0, 0]	n/a	catFR1	1	R1395M
-311.187	1.6	1115306	WORD	n/a	wordpools/wordpool_categorized_EN.txt	HEN	FarmAnimals	2	8	[0, 0, 0]	n/a	catFR1	1	R1395M
-309.587	0.884	1116907	WORD_OFF	n/a	n/a	HEN	FarmAnimals	2	8	[0, 0, 0]	n/a	catFR1	1	R1395M
-308.703	1.6	1117796	WORD	n/a	wordpools/wordpool_categorized_EN.txt	CUCUMBER	Vegetables	3	8	[0, 0, 0]	n/a	catFR1	1	R1395M
-307.103	0.85	1119396	WORD_OFF	n/a	n/a	CUCUMBER	Vegetables	3	8	[0, 0, 0]	n/a	catFR1	1	R1395M
-306.253	1.616	1120248	WORD	n/a	wordpools/wordpool_categorized_EN.txt	CARROT	Vegetables	4	8	[0, 0, 0]	n/a	catFR1	1	R1395M
-304.637	0.967	1121857	WORD_OFF	n/a	n/a	CARROT	Vegetables	4	8	[0, 0, 0]	n/a	catFR1	1	R1395M
-303.67	1.6	1122831	WORD	n/a	wordpools/wordpool_categorized_EN.txt	DRESS	Clothing	5	8	[0, 0, 0]	n/a	catFR1	1	R1395M
-302.07	0.983	1124431	WORD_OFF	n/a	n/a	DRESS	Clothing	5	8	[0, 0, 0]	n/a	catFR1	1	R1395M
-301.087	1.6	1125413	WORD	n/a	wordpools/wordpool_categorized_EN.txt	JEANS	Clothing	6	8	[0, 0, 0]	n/a	catFR1	1	R1395M
-299.487	0.917	1127014	WORD_OFF	n/a	n/a	JEANS	Clothing	6	8	[0, 0, 0]	n/a	catFR1	1	R1395M
-298.57	1.6	1127931	WORD	n/a	wordpools/wordpool_categorized_EN.txt	POTATO	Vegetables	7	8	[0, 0, 0]	n/a	catFR1	1	R1395M
-296.97	1.0	1129531	WORD_OFF	n/a	n/a	POTATO	Vegetables	7	8	[0, 0, 0]	n/a	catFR1	1	R1395M
-295.97	1.6	1130533	WORD	n/a	wordpools/wordpool_categorized_EN.txt	CABBAGE	Vegetables	8	8	[0, 0, 0]	n/a	catFR1	1	R1395M
-294.37	0.983	1132124	WORD_OFF	n/a	n/a	CABBAGE	Vegetables	8	8	[0, 0, 0]	n/a	catFR1	1	R1395M
-293.387	1.6	1133106	WORD	n/a	wordpools/wordpool_categorized_EN.txt	BULL	FarmAnimals	9	8	[0, 0, 0]	n/a	catFR1	1	R1395M
-291.787	0.85	1134706	WORD_OFF	n/a	n/a	BULL	FarmAnimals	9	8	[0, 0, 0]	n/a	catFR1	1	R1395M
-290.937	1.6	1135558	WORD	n/a	wordpools/wordpool_categorized_EN.txt	LAMB	FarmAnimals	10	8	[0, 0, 0]	n/a	catFR1	1	R1395M
-289.337	0.9	1137158	WORD_OFF	n/a	n/a	LAMB	FarmAnimals	10	8	[0, 0, 0]	n/a	catFR1	1	R1395M
-288.437	1.6	1138057	WORD	n/a	wordpools/wordpool_categorized_EN.txt	SOCKS	Clothing	11	8	[0, 0, 0]	n/a	catFR1	1	R1395M
-286.837	0.85	1139657	WORD_OFF	n/a	n/a	SOCKS	Clothing	11	8	[0, 0, 0]	n/a	catFR1	1	R1395M
-285.987	1.6	1140509	WORD	n/a	wordpools/wordpool_categorized_EN.txt	SHORTS	Clothing	12	8	[0, 0, 0]	n/a	catFR1	1	R1395M
-284.387	0.0	1142108	PROB	0.0	n/a	n/a	n/a	-999	8	[4, 7, 1]	12	catFR1	1	R1395M
-284.387	0.001	1142109	WORD_OFF	n/a	n/a	SHORTS	Clothing	12	8	[0, 0, 0]	n/a	catFR1	1	R1395M
-284.386	0.0	1142109	ENCODING_END	n/a	n/a	n/a	n/a	-999	8	[0, 0, 0]	n/a	catFR1	1	R1395M
-284.386	0.0	1142109	DISTRACT_START	n/a	n/a	n/a	n/a	-999	8	[0, 0, 0]	n/a	catFR1	1	R1395M
-284.386	4.132	1142109	START	n/a	n/a	n/a	n/a	-999	8	[-999, -999, -999]	n/a	catFR1	1	R1395M
-280.254	2.752	1146241	PROB	2.752	n/a	n/a	n/a	-999	8	[5, 5, 3]	13	catFR1	1	R1395M
-277.502	2.366	1148993	PROB	2.366	n/a	n/a	n/a	-999	8	[1, 1, 2]	4	catFR1	1	R1395M
-275.136	2.683	1151359	PROB	2.683	n/a	n/a	n/a	-999	8	[6, 4, 3]	13	catFR1	1	R1395M
-272.453	3.183	1154042	PROB	3.183	n/a	n/a	n/a	-999	8	[8, 1, 4]	13	catFR1	1	R1395M
-269.27	3.235	1157225	PROB	3.235	n/a	n/a	n/a	-999	8	[7, 1, 2]	10	catFR1	1	R1395M
-266.035	3.699	1160460	PROB	3.699	n/a	n/a	n/a	-999	8	[4, 8, 4]	16	catFR1	1	R1395M
-262.336	0.0	1164158	DISTRACT_END	n/a	n/a	n/a	n/a	-999	8	[0, 0, 0]	n/a	catFR1	1	R1395M
-262.336	1.283	1164158	STOP	n/a	n/a	n/a	n/a	-999	8	[-999, -999, -999]	n/a	catFR1	1	R1395M
-261.053	2.198	1165440	REC_START	n/a	n/a	n/a	n/a	-999	8	[0, 0, 0]	n/a	catFR1	1	R1395M
-258.855	1.168	1167639	REC_WORD	1.168	n/a	LAMB	FarmAnimals	10	8	[0, 0, 0]	n/a	catFR1	1	R1395M
-257.687	2.339	1168807	REC_WORD	2.339	n/a	BULL	FarmAnimals	9	8	[0, 0, 0]	n/a	catFR1	1	R1395M
-255.348	1.39	1171146	REC_WORD	1.39	n/a	SOCKS	Clothing	11	8	[0, 0, 0]	n/a	catFR1	1	R1395M
-253.958	2.532	1172536	REC_WORD	2.532	n/a	SHORTS	Clothing	12	8	[0, 0, 0]	n/a	catFR1	1	R1395M
-251.426	1.617	1175068	REC_WORD	1.617	n/a	CUCUMBER	Vegetables	3	8	[0, 0, 0]	n/a	catFR1	1	R1395M
-249.809	2.135	1176685	REC_WORD	2.135	n/a	CARROT	Vegetables	4	8	[0, 0, 0]	n/a	catFR1	1	R1395M
-247.674	1.409	1178820	REC_WORD	1.409	n/a	CABBAGE	Vegetables	8	8	[0, 0, 0]	n/a	catFR1	1	R1395M
-246.265	16.436	1180228	REC_WORD	16.436	n/a	POTATO	Vegetables	7	8	[0, 0, 0]	n/a	catFR1	1	R1395M
-229.829	6.926	1196669	REC_END	n/a	n/a	n/a	n/a	-999	8	[0, 0, 0]	n/a	catFR1	1	R1395M
-222.903	10.35	1203594	COUNTDOWN_START	n/a	n/a	n/a	n/a	-999	8	[0, 0, 0]	n/a	catFR1	1	R1395M
-212.553	0.001	1213935	COUNTDOWN_END	n/a	n/a	n/a	n/a	-999	8	[0, 0, 0]	n/a	catFR1	1	R1395M
-212.552	2.049	1213945	ENCODING_START	n/a	n/a	n/a	n/a	-999	9	[0, 0, 0]	n/a	catFR1	1	R1395M
-210.503	1.6	1215985	WORD	n/a	wordpools/wordpool_categorized_EN.txt	BASKETBALL	Toys	1	9	[0, 0, 0]	n/a	catFR1	1	R1395M
-208.903	0.849	1217585	WORD_OFF	n/a	n/a	BASKETBALL	Toys	1	9	[0, 0, 0]	n/a	catFR1	1	R1395M
-208.054	1.601	1218437	WORD	n/a	wordpools/wordpool_categorized_EN.txt	BLOCKS	Toys	2	9	[0, 0, 0]	n/a	catFR1	1	R1395M
-206.453	0.966	1220037	WORD_OFF	n/a	n/a	BLOCKS	Toys	2	9	[0, 0, 0]	n/a	catFR1	1	R1395M
-205.487	1.6	1221001	WORD	n/a	wordpools/wordpool_categorized_EN.txt	COBBLER	Desserts	3	9	[0, 0, 0]	n/a	catFR1	1	R1395M
-203.887	0.967	1222601	WORD_OFF	n/a	n/a	COBBLER	Desserts	3	9	[0, 0, 0]	n/a	catFR1	1	R1395M
-202.92	1.617	1223575	WORD	n/a	wordpools/wordpool_categorized_EN.txt	CHEESECAKE	Desserts	4	9	[0, 0, 0]	n/a	catFR1	1	R1395M
-201.303	0.834	1225184	WORD_OFF	n/a	n/a	CHEESECAKE	Desserts	4	9	[0, 0, 0]	n/a	catFR1	1	R1395M
-200.469	1.615	1226027	WORD	n/a	wordpools/wordpool_categorized_EN.txt	SHEEP	FarmAnimals	5	9	[0, 0, 0]	n/a	catFR1	1	R1395M
-198.854	0.834	1227636	WORD_OFF	n/a	n/a	SHEEP	FarmAnimals	5	9	[0, 0, 0]	n/a	catFR1	1	R1395M
-198.02	1.616	1228469	WORD	n/a	wordpools/wordpool_categorized_EN.txt	COW	FarmAnimals	6	9	[0, 0, 0]	n/a	catFR1	1	R1395M
-196.404	0.9	1230088	WORD_OFF	n/a	n/a	COW	FarmAnimals	6	9	[0, 0, 0]	n/a	catFR1	1	R1395M
-195.504	1.617	1230987	WORD	n/a	wordpools/wordpool_categorized_EN.txt	CUPCAKE	Desserts	7	9	[0, 0, 0]	n/a	catFR1	1	R1395M
-193.887	0.983	1232606	WORD_OFF	n/a	n/a	CUPCAKE	Desserts	7	9	[0, 0, 0]	n/a	catFR1	1	R1395M
-192.904	1.6	1233588	WORD	n/a	wordpools/wordpool_categorized_EN.txt	PASTRY	Desserts	8	9	[0, 0, 0]	n/a	catFR1	1	R1395M
-191.304	0.917	1235188	WORD_OFF	n/a	n/a	PASTRY	Desserts	8	9	[0, 0, 0]	n/a	catFR1	1	R1395M
-190.387	1.6	1236106	WORD	n/a	wordpools/wordpool_categorized_EN.txt	BALL	Toys	9	9	[0, 0, 0]	n/a	catFR1	1	R1395M
-188.787	0.833	1237706	WORD_OFF	n/a	n/a	BALL	Toys	9	9	[0, 0, 0]	n/a	catFR1	1	R1395M
-187.954	1.617	1238539	WORD	n/a	wordpools/wordpool_categorized_EN.txt	DOLLHOUSE	Toys	10	9	[0, 0, 0]	n/a	catFR1	1	R1395M
-186.337	0.933	1240158	WORD_OFF	n/a	n/a	DOLLHOUSE	Toys	10	9	[0, 0, 0]	n/a	catFR1	1	R1395M
-185.404	1.6	1241084	WORD	n/a	wordpools/wordpool_categorized_EN.txt	ROOSTER	FarmAnimals	11	9	[0, 0, 0]	n/a	catFR1	1	R1395M
-183.804	0.95	1242685	WORD_OFF	n/a	n/a	ROOSTER	FarmAnimals	11	9	[0, 0, 0]	n/a	catFR1	1	R1395M
-182.854	1.601	1243639	WORD	n/a	wordpools/wordpool_categorized_EN.txt	CHICKEN	FarmAnimals	12	9	[0, 0, 0]	n/a	catFR1	1	R1395M
-181.253	0.001	1245237	PROB	0.001	n/a	n/a	n/a	-999	9	[2, 4, 3]	9	catFR1	1	R1395M
-181.252	0.0	1245238	START	n/a	n/a	n/a	n/a	-999	9	[-999, -999, -999]	n/a	catFR1	1	R1395M
-181.254	0.002	1245240	WORD_OFF	n/a	n/a	CHICKEN	FarmAnimals	12	9	[0, 0, 0]	n/a	catFR1	1	R1395M
-181.252	0.0	1245240	ENCODING_END	n/a	n/a	n/a	n/a	-999	9	[0, 0, 0]	n/a	catFR1	1	R1395M
-181.252	5.116	1245240	DISTRACT_START	n/a	n/a	n/a	n/a	-999	9	[0, 0, 0]	n/a	catFR1	1	R1395M
-176.136	2.267	1250354	PROB	2.267	n/a	n/a	n/a	-999	9	[3, 3, 3]	9	catFR1	1	R1395M
-173.869	2.451	1252621	PROB	2.451	n/a	n/a	n/a	-999	9	[7, 3, 2]	12	catFR1	1	R1395M
-171.418	2.583	1255071	PROB	2.583	n/a	n/a	n/a	-999	9	[4, 7, 8]	19	catFR1	1	R1395M
-168.835	2.566	1257654	PROB	2.566	n/a	n/a	n/a	-999	9	[1, 2, 5]	8	catFR1	1	R1395M
-166.269	2.667	1260220	PROB	2.667	n/a	n/a	n/a	-999	9	[1, 6, 6]	13	catFR1	1	R1395M
-163.602	4.832	1262887	PROB	4.832	n/a	n/a	n/a	-999	9	[8, 8, 7]	23	catFR1	1	R1395M
-158.77	0.0	1267719	DISTRACT_END	n/a	n/a	n/a	n/a	-999	9	[0, 0, 0]	n/a	catFR1	1	R1395M
-158.77	1.266	1267719	STOP	n/a	n/a	n/a	n/a	-999	9	[-999, -999, -999]	n/a	catFR1	1	R1395M
-157.504	1.894	1268982	REC_START	n/a	n/a	n/a	n/a	-999	9	[0, 0, 0]	n/a	catFR1	1	R1395M
-155.61	1.193	1270879	REC_WORD	1.193	n/a	BASKETBALL	Toys	1	9	[0, 0, 0]	n/a	catFR1	1	R1395M
-154.417	3.534	1272072	REC_WORD	3.534	n/a	BALL	Toys	9	9	[0, 0, 0]	n/a	catFR1	1	R1395M
-150.883	1.524	1275605	REC_WORD	1.524	n/a	COBBLER	Desserts	3	9	[0, 0, 0]	n/a	catFR1	1	R1395M
-149.359	23.041	1277129	REC_WORD	23.041	n/a	CUPCAKE	Desserts	7	9	[0, 0, 0]	n/a	catFR1	1	R1395M
-126.318	3.614	1300174	REC_END	n/a	n/a	n/a	n/a	-999	9	[0, 0, 0]	n/a	catFR1	1	R1395M
-122.704	0.0	1303786	COUNTDOWN_START	n/a	n/a	n/a	n/a	-999	9	[0, 0, 0]	n/a	catFR1	1	R1395M
