onset	duration	sample	trial_type	response_time	stim_file	item_name	category	serialpos	list	test	answer	experiment	session	subject
0.0	2.98	359	INSTRUCT_START	n/a	n/a	n/a	n/a	-999	-999	[0, 0, 0]	n/a	catFR1	1	R1302M
2.98	1.967	3423	INSTRUCT_END	n/a	n/a	n/a	n/a	-999	-999	[0, 0, 0]	n/a	catFR1	1	R1302M
4.947	7.664	5446	MIC TEST_START	n/a	n/a	n/a	n/a	-999	-999	[0, 0, 0]	n/a	catFR1	1	R1302M
12.611	0.012	13326	MIC TEST_END	n/a	n/a	n/a	n/a	-999	-999	[0, 0, 0]	n/a	catFR1	1	R1302M
12.623	0.001	13338	TRIAL_START	n/a	n/a	n/a	n/a	-999	-1	[0, 0, 0]	n/a	catFR1	1	R1302M
12.624	0.0	13339	TRIAL	n/a	n/a	n/a	n/a	-999	-1	[0, 0, 0]	n/a	catFR1	1	R1302M
12.624	1.891	13339	WAITING_START	n/a	n/a	n/a	n/a	-999	-1	[0, 0, 0]	n/a	catFR1	1	R1302M
14.515	0.001	15283	WAITING_END	n/a	n/a	n/a	n/a	-999	-1	[0, 0, 0]	n/a	catFR1	1	R1302M
14.516	190.624	15284	COUNTDOWN_START	n/a	n/a	n/a	n/a	-999	-1	[0, 0, 0]	n/a	catFR1	1	R1302M
205.14	54.541	1171	INSTRUCT_START	n/a	n/a	n/a	n/a	-999	-1	[0, 0, 0]	n/a	catFR1	1	R1302M
259.681	4.317	55710	INSTRUCT_END	n/a	n/a	n/a	n/a	-999	-1	[0, 0, 0]	n/a	catFR1	1	R1302M
263.998	7.817	60027	MIC TEST_START	n/a	n/a	n/a	n/a	-999	-1	[0, 0, 0]	n/a	catFR1	1	R1302M
271.815	0.012	67843	MIC TEST_END	n/a	n/a	n/a	n/a	-999	-1	[0, 0, 0]	n/a	catFR1	1	R1302M
271.827	0.001	67855	TRIAL_START	n/a	n/a	n/a	n/a	-999	-1	[0, 0, 0]	n/a	catFR1	1	R1302M
271.828	0.0	67856	TRIAL	n/a	n/a	n/a	n/a	-999	-1	[0, 0, 0]	n/a	catFR1	1	R1302M
271.828	1.672	67856	WAITING_START	n/a	n/a	n/a	n/a	-999	-1	[0, 0, 0]	n/a	catFR1	1	R1302M
273.5	0.001	69528	WAITING_END	n/a	n/a	n/a	n/a	-999	-1	[0, 0, 0]	n/a	catFR1	1	R1302M
273.501	10.43	69529	COUNTDOWN_START	n/a	n/a	n/a	n/a	-999	-1	[0, 0, 0]	n/a	catFR1	1	R1302M
283.931	0.001	79959	COUNTDOWN_END	n/a	n/a	n/a	n/a	-999	-1	[0, 0, 0]	n/a	catFR1	1	R1302M
283.932	1.036	79960	ORIENT_START	n/a	n/a	n/a	n/a	-999	-1	[0, 0, 0]	n/a	catFR1	1	R1302M
284.968	0.001	80996	ORIENT_END	n/a	n/a	n/a	n/a	-999	-1	[0, 0, 0]	n/a	catFR1	1	R1302M
284.969	0.885	80997	ENCODING_START	n/a	n/a	n/a	n/a	-999	-1	[0, 0, 0]	n/a	catFR1	1	R1302M
285.854	1.632	81882	WORD	n/a	n/a	ALLEY	n/a	1	-1	[0, 0, 0]	n/a	catFR1	1	R1302M
287.486	0.93	83514	WORD_OFF	n/a	n/a	ALLEY	n/a	1	-1	[0, 0, 0]	n/a	catFR1	1	R1302M
288.416	1.637	84443	WORD	n/a	n/a	BEAM	n/a	2	-1	[0, 0, 0]	n/a	catFR1	1	R1302M
290.053	0.803	86080	WORD_OFF	n/a	n/a	BEAM	n/a	2	-1	[0, 0, 0]	n/a	catFR1	1	R1302M
290.856	1.614	86883	WORD	n/a	n/a	CAMEL	n/a	3	-1	[0, 0, 0]	n/a	catFR1	1	R1302M
292.47	0.949	88497	WORD_OFF	n/a	n/a	CAMEL	n/a	3	-1	[0, 0, 0]	n/a	catFR1	1	R1302M
293.419	1.635	89446	WORD	n/a	n/a	CHEST	n/a	4	-1	[0, 0, 0]	n/a	catFR1	1	R1302M
295.054	0.978	91081	WORD_OFF	n/a	n/a	CHEST	n/a	4	-1	[0, 0, 0]	n/a	catFR1	1	R1302M
296.032	1.623	92059	WORD	n/a	n/a	COTTON	n/a	5	-1	[0, 0, 0]	n/a	catFR1	1	R1302M
297.655	0.914	93682	WORD_OFF	n/a	n/a	COTTON	n/a	5	-1	[0, 0, 0]	n/a	catFR1	1	R1302M
298.569	1.636	94596	WORD	n/a	n/a	FLOOD	n/a	6	-1	[0, 0, 0]	n/a	catFR1	1	R1302M
300.205	1.097	96232	WORD_OFF	n/a	n/a	FLOOD	n/a	6	-1	[0, 0, 0]	n/a	catFR1	1	R1302M
301.302	1.636	97329	WORD	n/a	n/a	FAUCET	n/a	7	-1	[0, 0, 0]	n/a	catFR1	1	R1302M
302.938	0.826	98965	WORD_OFF	n/a	n/a	FAUCET	n/a	7	-1	[0, 0, 0]	n/a	catFR1	1	R1302M
303.764	1.609	99791	WORD	n/a	n/a	RHINO	n/a	8	-1	[0, 0, 0]	n/a	catFR1	1	R1302M
305.373	0.984	101400	WORD_OFF	n/a	n/a	RHINO	n/a	8	-1	[0, 0, 0]	n/a	catFR1	1	R1302M
306.357	1.632	102384	WORD	n/a	n/a	RING	n/a	9	-1	[0, 0, 0]	n/a	catFR1	1	R1302M
307.989	0.904	104016	WORD_OFF	n/a	n/a	RING	n/a	9	-1	[0, 0, 0]	n/a	catFR1	1	R1302M
308.893	1.631	104920	WORD	n/a	n/a	TONGUE	n/a	10	-1	[0, 0, 0]	n/a	catFR1	1	R1302M
310.524	0.755	106550	WORD_OFF	n/a	n/a	TONGUE	n/a	10	-1	[0, 0, 0]	n/a	catFR1	1	R1302M
311.279	1.628	107305	WORD	n/a	n/a	WAGON	n/a	11	-1	[0, 0, 0]	n/a	catFR1	1	R1302M
312.907	0.855	108933	WORD_OFF	n/a	n/a	WAGON	n/a	11	-1	[0, 0, 0]	n/a	catFR1	1	R1302M
313.762	1.629	109788	WORD	n/a	n/a	WATCH	n/a	12	-1	[0, 0, 0]	n/a	catFR1	1	R1302M
315.391	0.001	111417	WORD_OFF	n/a	n/a	WATCH	n/a	12	-1	[0, 0, 0]	n/a	catFR1	1	R1302M
315.392	0.001	111418	ENCODING_END	n/a	n/a	n/a	n/a	-999	-1	[0, 0, 0]	n/a	catFR1	1	R1302M
315.393	0.0	111419	DISTRACT_START	n/a	n/a	n/a	n/a	-999	-1	[0, 0, 0]	n/a	catFR1	1	R1302M
315.393	0.015	111419	START	n/a	n/a	n/a	n/a	-999	-1	[-999, -999, -999]	n/a	catFR1	1	R1302M
315.408	5.383	111434	PROB	5.383	n/a	n/a	n/a	-999	-1	[4, 2, 2]	8	catFR1	1	R1302M
320.791	6.185	116817	PROB	6.185	n/a	n/a	n/a	-999	-1	[2, 5, 7]	14	catFR1	1	R1302M
326.976	5.519	123002	PROB	5.519	n/a	n/a	n/a	-999	-1	[9, 9, 9]	21	catFR1	1	R1302M
332.495	4.901	128521	PROB	4.901	n/a	n/a	n/a	-999	-1	[7, 5, 1]	13	catFR1	1	R1302M
337.396	0.017	133421	STOP	n/a	n/a	n/a	n/a	-999	-1	[-999, -999, -999]	n/a	catFR1	1	R1302M
337.413	0.586	133438	DISTRACT_END	n/a	n/a	n/a	n/a	-999	-1	[0, 0, 0]	n/a	catFR1	1	R1302M
337.999	1.647	134024	RETRIEVAL_ORIENT_START	n/a	n/a	n/a	n/a	-999	-1	[0, 0, 0]	n/a	catFR1	1	R1302M
339.646	0.001	135671	RETRIEVAL_ORIENT_END	n/a	n/a	n/a	n/a	-999	-1	[0, 0, 0]	n/a	catFR1	1	R1302M
339.647	1.322	135672	REC_START	n/a	n/a	n/a	n/a	-999	-1	[0, 0, 0]	n/a	catFR1	1	R1302M
340.969	0.558	136994	REC_WORD	0.558	n/a	ALLEY	n/a	1	-1	[0, 0, 0]	n/a	catFR1	1	R1302M
341.527	0.459	137552	REC_WORD	0.459	n/a	BEAM	n/a	2	-1	[0, 0, 0]	n/a	catFR1	1	R1302M
341.986	0.487	138011	REC_WORD	0.487	n/a	CAMEL	n/a	3	-1	[0, 0, 0]	n/a	catFR1	1	R1302M
342.473	1.023	138498	REC_WORD	1.023	n/a	CHEST	n/a	4	-1	[0, 0, 0]	n/a	catFR1	1	R1302M
343.496	2.628	139521	REC_WORD	2.628	n/a	RHINO	n/a	8	-1	[0, 0, 0]	n/a	catFR1	1	R1302M
346.124	23.534	142149	REC_WORD	23.534	n/a	COTTON	n/a	5	-1	[0, 0, 0]	n/a	catFR1	1	R1302M
369.658	0.0	165682	REC_END	n/a	n/a	n/a	n/a	-999	-1	[0, 0, 0]	n/a	catFR1	1	R1302M
369.658	36.435	165682	PRACTICE_POST_INSTRUCT_START	n/a	n/a	n/a	n/a	-999	-1	[0, 0, 0]	n/a	catFR1	1	R1302M
406.093	0.001	202115	PRACTICE_POST_INSTRUCT_END	n/a	n/a	n/a	n/a	-999	-1	[0, 0, 0]	n/a	catFR1	1	R1302M
406.094	0.025	202116	TRIAL_END	n/a	n/a	n/a	n/a	-999	-1	[0, 0, 0]	n/a	catFR1	1	R1302M
406.119	0.001	202141	TRIAL_START	n/a	n/a	n/a	n/a	-999	1	[0, 0, 0]	n/a	catFR1	1	R1302M
406.12	0.0	202142	TRIAL	n/a	n/a	n/a	n/a	-999	1	[0, 0, 0]	n/a	catFR1	1	R1302M
406.12	1.306	202142	WAITING_START	n/a	n/a	n/a	n/a	-999	1	[0, 0, 0]	n/a	catFR1	1	R1302M
407.426	0.001	203448	WAITING_END	n/a	n/a	n/a	n/a	-999	1	[0, 0, 0]	n/a	catFR1	1	R1302M
407.427	10.429	203449	COUNTDOWN_START	n/a	n/a	n/a	n/a	-999	1	[0, 0, 0]	n/a	catFR1	1	R1302M
417.856	0.001	213878	COUNTDOWN_END	n/a	n/a	n/a	n/a	-999	1	[0, 0, 0]	n/a	catFR1	1	R1302M
417.857	1.087	213879	ORIENT_START	n/a	n/a	n/a	n/a	-999	1	[0, 0, 0]	n/a	catFR1	1	R1302M
418.944	0.001	214966	ORIENT_END	n/a	n/a	n/a	n/a	-999	1	[0, 0, 0]	n/a	catFR1	1	R1302M
418.945	1.125	214967	ENCODING_START	n/a	n/a	n/a	n/a	-999	1	[0, 0, 0]	n/a	catFR1	1	R1302M
420.07	1.625	216092	WORD	n/a	wordpools/wordpool_categorized_EN.txt	STOVE	Appliances	1	1	[0, 0, 0]	n/a	catFR1	1	R1302M
421.695	0.907	217717	WORD_OFF	n/a	n/a	STOVE	Appliances	1	1	[0, 0, 0]	n/a	catFR1	1	R1302M
422.602	1.627	218623	WORD	n/a	wordpools/wordpool_categorized_EN.txt	BLENDER	Appliances	2	1	[0, 0, 0]	n/a	catFR1	1	R1302M
424.229	1.043	220250	WORD_OFF	n/a	n/a	BLENDER	Appliances	2	1	[0, 0, 0]	n/a	catFR1	1	R1302M
425.272	1.623	221293	WORD	n/a	wordpools/wordpool_categorized_EN.txt	STEREO	Electronics	3	1	[0, 0, 0]	n/a	catFR1	1	R1302M
426.895	0.926	222916	WORD_OFF	n/a	n/a	STEREO	Electronics	3	1	[0, 0, 0]	n/a	catFR1	1	R1302M
427.821	1.609	223842	WORD	n/a	wordpools/wordpool_categorized_EN.txt	MICROWAVE	Electronics	4	1	[0, 0, 0]	n/a	catFR1	1	R1302M
429.43	1.06	225451	WORD_OFF	n/a	n/a	MICROWAVE	Electronics	4	1	[0, 0, 0]	n/a	catFR1	1	R1302M
430.49	1.641	226511	WORD	n/a	wordpools/wordpool_categorized_EN.txt	CARNATION	Flowers	5	1	[0, 0, 0]	n/a	catFR1	1	R1302M
432.131	0.786	228152	WORD_OFF	n/a	n/a	CARNATION	Flowers	5	1	[0, 0, 0]	n/a	catFR1	1	R1302M
432.917	1.614	228938	WORD	n/a	wordpools/wordpool_categorized_EN.txt	TULIP	Flowers	6	1	[0, 0, 0]	n/a	catFR1	1	R1302M
434.531	1.016	230552	WORD_OFF	n/a	n/a	TULIP	Flowers	6	1	[0, 0, 0]	n/a	catFR1	1	R1302M
435.547	1.634	231568	WORD	n/a	wordpools/wordpool_categorized_EN.txt	COMPUTER	Electronics	7	1	[0, 0, 0]	n/a	catFR1	1	R1302M
437.181	0.823	233202	WORD_OFF	n/a	n/a	COMPUTER	Electronics	7	1	[0, 0, 0]	n/a	catFR1	1	R1302M
438.004	1.628	234025	WORD	n/a	wordpools/wordpool_categorized_EN.txt	CALCULATOR	Electronics	8	1	[0, 0, 0]	n/a	catFR1	1	R1302M
439.632	1.063	235653	WORD_OFF	n/a	n/a	CALCULATOR	Electronics	8	1	[0, 0, 0]	n/a	catFR1	1	R1302M
440.695	1.638	236716	WORD	n/a	wordpools/wordpool_categorized_EN.txt	DRYER	Appliances	9	1	[0, 0, 0]	n/a	catFR1	1	R1302M
442.333	0.804	238354	WORD_OFF	n/a	n/a	DRYER	Appliances	9	1	[0, 0, 0]	n/a	catFR1	1	R1302M
443.137	1.629	239158	WORD	n/a	wordpools/wordpool_categorized_EN.txt	MIXER	Appliances	10	1	[0, 0, 0]	n/a	catFR1	1	R1302M
444.766	0.973	240786	WORD_OFF	n/a	n/a	MIXER	Appliances	10	1	[0, 0, 0]	n/a	catFR1	1	R1302M
445.739	1.628	241759	WORD	n/a	wordpools/wordpool_categorized_EN.txt	VIOLET	Flowers	11	1	[0, 0, 0]	n/a	catFR1	1	R1302M
447.367	0.944	243387	WORD_OFF	n/a	n/a	VIOLET	Flowers	11	1	[0, 0, 0]	n/a	catFR1	1	R1302M
448.311	1.622	244331	WORD	n/a	wordpools/wordpool_categorized_EN.txt	LILAC	Flowers	12	1	[0, 0, 0]	n/a	catFR1	1	R1302M
449.933	0.001	245953	WORD_OFF	n/a	n/a	LILAC	Flowers	12	1	[0, 0, 0]	n/a	catFR1	1	R1302M
449.934	0.001	245954	ENCODING_END	n/a	n/a	n/a	n/a	-999	1	[0, 0, 0]	n/a	catFR1	1	R1302M
449.935	0.0	245955	DISTRACT_START	n/a	n/a	n/a	n/a	-999	1	[0, 0, 0]	n/a	catFR1	1	R1302M
449.935	0.014	245955	START	n/a	n/a	n/a	n/a	-999	1	[-999, -999, -999]	n/a	catFR1	1	R1302M
449.949	5.202	245969	PROB	5.202	n/a	n/a	n/a	-999	1	[7, 1, 7]	15	catFR1	1	R1302M
455.151	2.234	251171	PROB	2.234	n/a	n/a	n/a	-999	1	[1, 6, 4]	11	catFR1	1	R1302M
457.385	2.084	253405	PROB	2.084	n/a	n/a	n/a	-999	1	[3, 5, 3]	11	catFR1	1	R1302M
459.469	9.085	255489	PROB	9.085	n/a	n/a	n/a	-999	1	[9, 5, 1]	15	catFR1	1	R1302M
468.554	5.81	264573	PROB	5.81	n/a	n/a	n/a	-999	1	[4, 8, 3]	15	catFR1	1	R1302M
474.364	0.008	270383	STOP	n/a	n/a	n/a	n/a	-999	1	[-999, -999, -999]	n/a	catFR1	1	R1302M
474.372	0.561	270391	DISTRACT_END	n/a	n/a	n/a	n/a	-999	1	[0, 0, 0]	n/a	catFR1	1	R1302M
474.933	1.573	270952	RETRIEVAL_ORIENT_START	n/a	n/a	n/a	n/a	-999	1	[0, 0, 0]	n/a	catFR1	1	R1302M
476.506	0.001	272525	RETRIEVAL_ORIENT_END	n/a	n/a	n/a	n/a	-999	1	[0, 0, 0]	n/a	catFR1	1	R1302M
476.507	5.111	272526	REC_START	n/a	n/a	n/a	n/a	-999	1	[0, 0, 0]	n/a	catFR1	1	R1302M
481.618	0.644	277637	REC_WORD	0.644	n/a	COTTON	n/a	-999	1	[0, 0, 0]	n/a	catFR1	1	R1302M
482.262	4.543	278281	REC_WORD	4.543	n/a	CHEST	n/a	-999	1	[0, 0, 0]	n/a	catFR1	1	R1302M
486.805	1.051	282824	REC_WORD	1.051	n/a	TU	n/a	-999	1	[0, 0, 0]	n/a	catFR1	1	R1302M
487.856	3.75	283875	REC_WORD	3.75	n/a	RHINO	n/a	-999	1	[0, 0, 0]	n/a	catFR1	1	R1302M
491.606	2.947	287624	REC_WORD	2.947	n/a	TULIP	Flowers	6	1	[0, 0, 0]	n/a	catFR1	1	R1302M
494.553	11.963	290571	REC_WORD	11.963	n/a	LILAC	Flowers	12	1	[0, 0, 0]	n/a	catFR1	1	R1302M
506.516	0.001	302534	REC_END	n/a	n/a	n/a	n/a	-999	1	[0, 0, 0]	n/a	catFR1	1	R1302M
506.517	0.021	302535	TRIAL_END	n/a	n/a	n/a	n/a	-999	1	[0, 0, 0]	n/a	catFR1	1	R1302M
506.538	0.0	302556	TRIAL_START	n/a	n/a	n/a	n/a	-999	2	[0, 0, 0]	n/a	catFR1	1	R1302M
506.538	0.001	302556	TRIAL	n/a	n/a	n/a	n/a	-999	2	[0, 0, 0]	n/a	catFR1	1	R1302M
506.539	7.157	302557	WAITING_START	n/a	n/a	n/a	n/a	-999	2	[0, 0, 0]	n/a	catFR1	1	R1302M
513.696	0.001	309713	WAITING_END	n/a	n/a	n/a	n/a	-999	2	[0, 0, 0]	n/a	catFR1	1	R1302M
513.697	10.43	309714	COUNTDOWN_START	n/a	n/a	n/a	n/a	-999	2	[0, 0, 0]	n/a	catFR1	1	R1302M
524.127	0.001	320144	COUNTDOWN_END	n/a	n/a	n/a	n/a	-999	2	[0, 0, 0]	n/a	catFR1	1	R1302M
524.128	1.104	320145	ORIENT_START	n/a	n/a	n/a	n/a	-999	2	[0, 0, 0]	n/a	catFR1	1	R1302M
525.232	0.001	321249	ORIENT_END	n/a	n/a	n/a	n/a	-999	2	[0, 0, 0]	n/a	catFR1	1	R1302M
525.233	1.134	321250	ENCODING_START	n/a	n/a	n/a	n/a	-999	2	[0, 0, 0]	n/a	catFR1	1	R1302M
526.367	1.631	322384	WORD	n/a	wordpools/wordpool_categorized_EN.txt	ROOSTER	FarmAnimals	1	2	[0, 0, 0]	n/a	catFR1	1	R1302M
527.998	1.076	324015	WORD_OFF	n/a	n/a	ROOSTER	FarmAnimals	1	2	[0, 0, 0]	n/a	catFR1	1	R1302M
529.074	1.625	325091	WORD	n/a	wordpools/wordpool_categorized_EN.txt	GOAT	FarmAnimals	2	2	[0, 0, 0]	n/a	catFR1	1	R1302M
530.699	0.888	326716	WORD_OFF	n/a	n/a	GOAT	FarmAnimals	2	2	[0, 0, 0]	n/a	catFR1	1	R1302M
531.587	1.63	327604	WORD	n/a	wordpools/wordpool_categorized_EN.txt	RECLINER	Furniture	3	2	[0, 0, 0]	n/a	catFR1	1	R1302M
533.217	0.752	329234	WORD_OFF	n/a	n/a	RECLINER	Furniture	3	2	[0, 0, 0]	n/a	catFR1	1	R1302M
533.969	1.615	329985	WORD	n/a	wordpools/wordpool_categorized_EN.txt	COUCH	Furniture	4	2	[0, 0, 0]	n/a	catFR1	1	R1302M
535.584	0.86	331600	WORD_OFF	n/a	n/a	COUCH	Furniture	4	2	[0, 0, 0]	n/a	catFR1	1	R1302M
536.444	1.624	332460	WORD	n/a	wordpools/wordpool_categorized_EN.txt	CRICKET	Insects	5	2	[0, 0, 0]	n/a	catFR1	1	R1302M
538.068	1.02	334084	WORD_OFF	n/a	n/a	CRICKET	Insects	5	2	[0, 0, 0]	n/a	catFR1	1	R1302M
539.088	1.63	335104	WORD	n/a	wordpools/wordpool_categorized_EN.txt	LADYBUG	Insects	6	2	[0, 0, 0]	n/a	catFR1	1	R1302M
540.718	0.895	336734	WORD_OFF	n/a	n/a	LADYBUG	Insects	6	2	[0, 0, 0]	n/a	catFR1	1	R1302M
541.613	1.622	337629	WORD	n/a	wordpools/wordpool_categorized_EN.txt	SHEEP	FarmAnimals	7	2	[0, 0, 0]	n/a	catFR1	1	R1302M
543.235	1.107	339251	WORD_OFF	n/a	n/a	SHEEP	FarmAnimals	7	2	[0, 0, 0]	n/a	catFR1	1	R1302M
544.342	1.626	340358	WORD	n/a	wordpools/wordpool_categorized_EN.txt	CHICKEN	FarmAnimals	8	2	[0, 0, 0]	n/a	catFR1	1	R1302M
545.968	0.999	341984	WORD_OFF	n/a	n/a	CHICKEN	FarmAnimals	8	2	[0, 0, 0]	n/a	catFR1	1	R1302M
546.967	1.619	342983	WORD	n/a	wordpools/wordpool_categorized_EN.txt	SPIDER	Insects	9	2	[0, 0, 0]	n/a	catFR1	1	R1302M
548.586	0.855	344602	WORD_OFF	n/a	n/a	SPIDER	Insects	9	2	[0, 0, 0]	n/a	catFR1	1	R1302M
549.441	1.629	345457	WORD	n/a	wordpools/wordpool_categorized_EN.txt	GNAT	Insects	10	2	[0, 0, 0]	n/a	catFR1	1	R1302M
551.07	0.843	347086	WORD_OFF	n/a	n/a	GNAT	Insects	10	2	[0, 0, 0]	n/a	catFR1	1	R1302M
551.913	1.624	347929	WORD	n/a	wordpools/wordpool_categorized_EN.txt	SHELF	Furniture	11	2	[0, 0, 0]	n/a	catFR1	1	R1302M
553.537	1.056	349553	WORD_OFF	n/a	n/a	SHELF	Furniture	11	2	[0, 0, 0]	n/a	catFR1	1	R1302M
554.593	1.628	350609	WORD	n/a	wordpools/wordpool_categorized_EN.txt	BOOKCASE	Furniture	12	2	[0, 0, 0]	n/a	catFR1	1	R1302M
556.221	0.001	352236	WORD_OFF	n/a	n/a	BOOKCASE	Furniture	12	2	[0, 0, 0]	n/a	catFR1	1	R1302M
556.222	0.001	352237	ENCODING_END	n/a	n/a	n/a	n/a	-999	2	[0, 0, 0]	n/a	catFR1	1	R1302M
556.223	0.0	352238	DISTRACT_START	n/a	n/a	n/a	n/a	-999	2	[0, 0, 0]	n/a	catFR1	1	R1302M
556.223	0.014	352238	START	n/a	n/a	n/a	n/a	-999	2	[-999, -999, -999]	n/a	catFR1	1	R1302M
556.237	6.052	352252	PROB	6.052	n/a	n/a	n/a	-999	2	[8, 3, 3]	14	catFR1	1	R1302M
562.289	3.35	358304	PROB	3.35	n/a	n/a	n/a	-999	2	[9, 1, 1]	11	catFR1	1	R1302M
565.639	5.068	361654	PROB	5.068	n/a	n/a	n/a	-999	2	[1, 5, 6]	12	catFR1	1	R1302M
570.707	3.734	366722	PROB	3.734	n/a	n/a	n/a	-999	2	[1, 1, 5]	7	catFR1	1	R1302M
574.441	4.953	370456	PROB	4.953	n/a	n/a	n/a	-999	2	[6, 9, 7]	12	catFR1	1	R1302M
579.394	0.015	375408	STOP	n/a	n/a	n/a	n/a	-999	2	[-999, -999, -999]	n/a	catFR1	1	R1302M
579.409	0.527	375423	DISTRACT_END	n/a	n/a	n/a	n/a	-999	2	[0, 0, 0]	n/a	catFR1	1	R1302M
579.936	1.69	375950	RETRIEVAL_ORIENT_START	n/a	n/a	n/a	n/a	-999	2	[0, 0, 0]	n/a	catFR1	1	R1302M
581.626	0.001	377640	RETRIEVAL_ORIENT_END	n/a	n/a	n/a	n/a	-999	2	[0, 0, 0]	n/a	catFR1	1	R1302M
581.627	13.905	377641	REC_START	n/a	n/a	n/a	n/a	-999	2	[0, 0, 0]	n/a	catFR1	1	R1302M
595.532	0.577	391546	REC_WORD	0.577	n/a	BOAT	n/a	-999	2	[0, 0, 0]	n/a	catFR1	1	R1302M
596.109	15.529	392123	REC_WORD	15.529	n/a	SHEEP	FarmAnimals	7	2	[0, 0, 0]	n/a	catFR1	1	R1302M
611.638	0.001	407651	REC_END	n/a	n/a	n/a	n/a	-999	2	[0, 0, 0]	n/a	catFR1	1	R1302M
611.639	0.021	407652	TRIAL_END	n/a	n/a	n/a	n/a	-999	2	[0, 0, 0]	n/a	catFR1	1	R1302M
611.66	0.0	407673	TRIAL_START	n/a	n/a	n/a	n/a	-999	3	[0, 0, 0]	n/a	catFR1	1	R1302M
611.66	0.001	407673	TRIAL	n/a	n/a	n/a	n/a	-999	3	[0, 0, 0]	n/a	catFR1	1	R1302M
611.661	8.171	407674	WAITING_START	n/a	n/a	n/a	n/a	-999	3	[0, 0, 0]	n/a	catFR1	1	R1302M
619.832	0.001	415845	WAITING_END	n/a	n/a	n/a	n/a	-999	3	[0, 0, 0]	n/a	catFR1	1	R1302M
619.833	10.429	415846	COUNTDOWN_START	n/a	n/a	n/a	n/a	-999	3	[0, 0, 0]	n/a	catFR1	1	R1302M
630.262	0.001	426274	COUNTDOWN_END	n/a	n/a	n/a	n/a	-999	3	[0, 0, 0]	n/a	catFR1	1	R1302M
630.263	1.039	426275	ORIENT_START	n/a	n/a	n/a	n/a	-999	3	[0, 0, 0]	n/a	catFR1	1	R1302M
631.302	0.001	427314	ORIENT_END	n/a	n/a	n/a	n/a	-999	3	[0, 0, 0]	n/a	catFR1	1	R1302M
631.303	1.139	427315	ENCODING_START	n/a	n/a	n/a	n/a	-999	3	[0, 0, 0]	n/a	catFR1	1	R1302M
632.442	1.627	428454	WORD	n/a	wordpools/wordpool_categorized_EN.txt	DISHWASHER	Appliances	1	3	[0, 0, 0]	n/a	catFR1	1	R1302M
634.069	1.099	430081	WORD_OFF	n/a	n/a	DISHWASHER	Appliances	1	3	[0, 0, 0]	n/a	catFR1	1	R1302M
635.168	1.634	431180	WORD	n/a	wordpools/wordpool_categorized_EN.txt	WASHER	Appliances	2	3	[0, 0, 0]	n/a	catFR1	1	R1302M
636.802	1.063	432814	WORD_OFF	n/a	n/a	WASHER	Appliances	2	3	[0, 0, 0]	n/a	catFR1	1	R1302M
637.865	1.639	433877	WORD	n/a	wordpools/wordpool_categorized_EN.txt	ROOF	Building	3	3	[0, 0, 0]	n/a	catFR1	1	R1302M
639.504	0.923	435516	WORD_OFF	n/a	n/a	ROOF	Building	3	3	[0, 0, 0]	n/a	catFR1	1	R1302M
640.427	1.627	436439	WORD	n/a	wordpools/wordpool_categorized_EN.txt	FLOOR	Building	4	3	[0, 0, 0]	n/a	catFR1	1	R1302M
642.054	1.084	438066	WORD_OFF	n/a	n/a	FLOOR	Building	4	3	[0, 0, 0]	n/a	catFR1	1	R1302M
643.138	1.632	439150	WORD	n/a	wordpools/wordpool_categorized_EN.txt	GRATER	KitchenTools	5	3	[0, 0, 0]	n/a	catFR1	1	R1302M
644.77	0.937	440782	WORD_OFF	n/a	n/a	GRATER	KitchenTools	5	3	[0, 0, 0]	n/a	catFR1	1	R1302M
645.707	1.632	441718	WORD	n/a	wordpools/wordpool_categorized_EN.txt	SPOON	KitchenTools	6	3	[0, 0, 0]	n/a	catFR1	1	R1302M
647.339	0.859	443350	WORD_OFF	n/a	n/a	SPOON	KitchenTools	6	3	[0, 0, 0]	n/a	catFR1	1	R1302M
648.198	1.623	444209	WORD	n/a	wordpools/wordpool_categorized_EN.txt	ATTIC	Building	7	3	[0, 0, 0]	n/a	catFR1	1	R1302M
649.821	1.023	445832	WORD_OFF	n/a	n/a	ATTIC	Building	7	3	[0, 0, 0]	n/a	catFR1	1	R1302M
650.844	1.612	446855	WORD	n/a	wordpools/wordpool_categorized_EN.txt	WINDOW	Building	8	3	[0, 0, 0]	n/a	catFR1	1	R1302M
652.456	0.871	448467	WORD_OFF	n/a	n/a	WINDOW	Building	8	3	[0, 0, 0]	n/a	catFR1	1	R1302M
653.327	1.629	449338	WORD	n/a	wordpools/wordpool_categorized_EN.txt	FORK	KitchenTools	9	3	[0, 0, 0]	n/a	catFR1	1	R1302M
654.956	0.965	450967	WORD_OFF	n/a	n/a	FORK	KitchenTools	9	3	[0, 0, 0]	n/a	catFR1	1	R1302M
655.921	1.619	451932	WORD	n/a	wordpools/wordpool_categorized_EN.txt	SPATULA	KitchenTools	10	3	[0, 0, 0]	n/a	catFR1	1	R1302M
657.54	1.047	453551	WORD_OFF	n/a	n/a	SPATULA	KitchenTools	10	3	[0, 0, 0]	n/a	catFR1	1	R1302M
658.587	1.637	454598	WORD	n/a	wordpools/wordpool_categorized_EN.txt	OVEN	Appliances	11	3	[0, 0, 0]	n/a	catFR1	1	R1302M
660.224	1.136	456235	WORD_OFF	n/a	n/a	OVEN	Appliances	11	3	[0, 0, 0]	n/a	catFR1	1	R1302M
661.36	1.631	457371	WORD	n/a	wordpools/wordpool_categorized_EN.txt	REFRIGERATOR	Appliances	12	3	[0, 0, 0]	n/a	catFR1	1	R1302M
662.991	0.001	459002	WORD_OFF	n/a	n/a	REFRIGERATOR	Appliances	12	3	[0, 0, 0]	n/a	catFR1	1	R1302M
662.992	0.0	459003	ENCODING_END	n/a	n/a	n/a	n/a	-999	3	[0, 0, 0]	n/a	catFR1	1	R1302M
662.992	0.001	459003	DISTRACT_START	n/a	n/a	n/a	n/a	-999	3	[0, 0, 0]	n/a	catFR1	1	R1302M
662.993	0.014	459004	START	n/a	n/a	n/a	n/a	-999	3	[-999, -999, -999]	n/a	catFR1	1	R1302M
663.007	10.985	459018	PROB	10.985	n/a	n/a	n/a	-999	3	[2, 3, 8]	13	catFR1	1	R1302M
673.992	5.785	470002	PROB	5.785	n/a	n/a	n/a	-999	3	[6, 3, 1]	10	catFR1	1	R1302M
679.777	5.582	475787	PROB	5.582	n/a	n/a	n/a	-999	3	[9, 2, 5]	14	catFR1	1	R1302M
685.359	0.02	481369	STOP	n/a	n/a	n/a	n/a	-999	3	[-999, -999, -999]	n/a	catFR1	1	R1302M
685.379	0.547	481389	DISTRACT_END	n/a	n/a	n/a	n/a	-999	3	[0, 0, 0]	n/a	catFR1	1	R1302M
685.926	1.72	481936	RETRIEVAL_ORIENT_START	n/a	n/a	n/a	n/a	-999	3	[0, 0, 0]	n/a	catFR1	1	R1302M
687.646	0.001	483656	RETRIEVAL_ORIENT_END	n/a	n/a	n/a	n/a	-999	3	[0, 0, 0]	n/a	catFR1	1	R1302M
687.647	1.198	483657	REC_START	n/a	n/a	n/a	n/a	-999	3	[0, 0, 0]	n/a	catFR1	1	R1302M
688.845	1.14	484855	REC_WORD	1.14	n/a	SPOON	KitchenTools	6	3	[0, 0, 0]	n/a	catFR1	1	R1302M
689.985	11.139	485994	REC_WORD	11.139	n/a	ATTIC	Building	7	3	[0, 0, 0]	n/a	catFR1	1	R1302M
701.124	1.057	497133	REC_WORD	1.057	n/a	ROOF	Building	3	3	[0, 0, 0]	n/a	catFR1	1	R1302M
702.181	14.468	498190	REC_WORD	14.468	n/a	SPATULA	KitchenTools	10	3	[0, 0, 0]	n/a	catFR1	1	R1302M
716.649	1.009	512657	REC_WORD	1.009	n/a	SPATULA	KitchenTools	10	3	[0, 0, 0]	n/a	catFR1	1	R1302M
717.658	0.0	513666	REC_END	n/a	n/a	n/a	n/a	-999	3	[0, 0, 0]	n/a	catFR1	1	R1302M
717.658	0.022	513666	TRIAL_END	n/a	n/a	n/a	n/a	-999	3	[0, 0, 0]	n/a	catFR1	1	R1302M
717.68	0.0	513688	TRIAL_START	n/a	n/a	n/a	n/a	-999	4	[0, 0, 0]	n/a	catFR1	1	R1302M
717.68	0.001	513688	TRIAL	n/a	n/a	n/a	n/a	-999	4	[0, 0, 0]	n/a	catFR1	1	R1302M
717.681	11.907	513689	WAITING_START	n/a	n/a	n/a	n/a	-999	4	[0, 0, 0]	n/a	catFR1	1	R1302M
729.588	0.001	525596	WAITING_END	n/a	n/a	n/a	n/a	-999	4	[0, 0, 0]	n/a	catFR1	1	R1302M
729.589	10.429	525597	COUNTDOWN_START	n/a	n/a	n/a	n/a	-999	4	[0, 0, 0]	n/a	catFR1	1	R1302M
740.018	0.001	536025	COUNTDOWN_END	n/a	n/a	n/a	n/a	-999	4	[0, 0, 0]	n/a	catFR1	1	R1302M
740.019	1.021	536026	ORIENT_START	n/a	n/a	n/a	n/a	-999	4	[0, 0, 0]	n/a	catFR1	1	R1302M
741.04	0.001	537047	ORIENT_END	n/a	n/a	n/a	n/a	-999	4	[0, 0, 0]	n/a	catFR1	1	R1302M
741.041	0.929	537048	ENCODING_START	n/a	n/a	n/a	n/a	-999	4	[0, 0, 0]	n/a	catFR1	1	R1302M
741.97	1.62	537977	WORD	n/a	wordpools/wordpool_categorized_EN.txt	BLUEBIRD	Birds	1	4	[0, 0, 0]	n/a	catFR1	1	R1302M
743.59	0.815	539597	WORD_OFF	n/a	n/a	BLUEBIRD	Birds	1	4	[0, 0, 0]	n/a	catFR1	1	R1302M
744.405	1.636	540412	WORD	n/a	wordpools/wordpool_categorized_EN.txt	SPARROW	Birds	2	4	[0, 0, 0]	n/a	catFR1	1	R1302M
746.041	0.817	542048	WORD_OFF	n/a	n/a	SPARROW	Birds	2	4	[0, 0, 0]	n/a	catFR1	1	R1302M
746.858	1.633	542865	WORD	n/a	wordpools/wordpool_categorized_EN.txt	LILY	Flowers	3	4	[0, 0, 0]	n/a	catFR1	1	R1302M
748.491	0.899	544498	WORD_OFF	n/a	n/a	LILY	Flowers	3	4	[0, 0, 0]	n/a	catFR1	1	R1302M
749.39	1.635	545397	WORD	n/a	wordpools/wordpool_categorized_EN.txt	PETUNIA	Flowers	4	4	[0, 0, 0]	n/a	catFR1	1	R1302M
751.025	1.141	547032	WORD_OFF	n/a	n/a	PETUNIA	Flowers	4	4	[0, 0, 0]	n/a	catFR1	1	R1302M
752.166	1.625	548173	WORD	n/a	wordpools/wordpool_categorized_EN.txt	HAMMER	Tools	5	4	[0, 0, 0]	n/a	catFR1	1	R1302M
753.791	0.973	549798	WORD_OFF	n/a	n/a	HAMMER	Tools	5	4	[0, 0, 0]	n/a	catFR1	1	R1302M
754.764	1.629	550771	WORD	n/a	wordpools/wordpool_categorized_EN.txt	SCREWDRIVER	Tools	6	4	[0, 0, 0]	n/a	catFR1	1	R1302M
756.393	1.081	552400	WORD_OFF	n/a	n/a	SCREWDRIVER	Tools	6	4	[0, 0, 0]	n/a	catFR1	1	R1302M
757.474	1.636	553480	WORD	n/a	wordpools/wordpool_categorized_EN.txt	GOOSE	Birds	7	4	[0, 0, 0]	n/a	catFR1	1	R1302M
759.11	1.03	555116	WORD_OFF	n/a	n/a	GOOSE	Birds	7	4	[0, 0, 0]	n/a	catFR1	1	R1302M
760.14	1.636	556146	WORD	n/a	wordpools/wordpool_categorized_EN.txt	SEAGULL	Birds	8	4	[0, 0, 0]	n/a	catFR1	1	R1302M
761.776	0.923	557782	WORD_OFF	n/a	n/a	SEAGULL	Birds	8	4	[0, 0, 0]	n/a	catFR1	1	R1302M
762.699	1.629	558705	WORD	n/a	wordpools/wordpool_categorized_EN.txt	DRILL	Tools	9	4	[0, 0, 0]	n/a	catFR1	1	R1302M
764.328	0.932	560334	WORD_OFF	n/a	n/a	DRILL	Tools	9	4	[0, 0, 0]	n/a	catFR1	1	R1302M
765.26	1.634	561266	WORD	n/a	wordpools/wordpool_categorized_EN.txt	AXE	Tools	10	4	[0, 0, 0]	n/a	catFR1	1	R1302M
766.894	0.943	562900	WORD_OFF	n/a	n/a	AXE	Tools	10	4	[0, 0, 0]	n/a	catFR1	1	R1302M
767.837	1.608	563843	WORD	n/a	wordpools/wordpool_categorized_EN.txt	MARIGOLD	Flowers	11	4	[0, 0, 0]	n/a	catFR1	1	R1302M
769.445	0.818	565451	WORD_OFF	n/a	n/a	MARIGOLD	Flowers	11	4	[0, 0, 0]	n/a	catFR1	1	R1302M
770.263	1.632	566269	WORD	n/a	wordpools/wordpool_categorized_EN.txt	SUNFLOWER	Flowers	12	4	[0, 0, 0]	n/a	catFR1	1	R1302M
771.895	0.001	567901	WORD_OFF	n/a	n/a	SUNFLOWER	Flowers	12	4	[0, 0, 0]	n/a	catFR1	1	R1302M
771.896	0.0	567902	ENCODING_END	n/a	n/a	n/a	n/a	-999	4	[0, 0, 0]	n/a	catFR1	1	R1302M
771.896	0.001	567902	DISTRACT_START	n/a	n/a	n/a	n/a	-999	4	[0, 0, 0]	n/a	catFR1	1	R1302M
771.897	0.014	567903	START	n/a	n/a	n/a	n/a	-999	4	[-999, -999, -999]	n/a	catFR1	1	R1302M
771.911	11.737	567917	PROB	11.737	n/a	n/a	n/a	-999	4	[6, 3, 4]	13	catFR1	1	R1302M
783.648	4.851	579653	PROB	4.851	n/a	n/a	n/a	-999	4	[4, 8, 6]	18	catFR1	1	R1302M
788.499	9.064	584504	PROB	9.064	n/a	n/a	n/a	-999	4	[9, 5, 1]	15	catFR1	1	R1302M
797.563	0.021	593568	STOP	n/a	n/a	n/a	n/a	-999	4	[-999, -999, -999]	n/a	catFR1	1	R1302M
797.584	0.505	593589	DISTRACT_END	n/a	n/a	n/a	n/a	-999	4	[0, 0, 0]	n/a	catFR1	1	R1302M
798.089	1.662	594094	RETRIEVAL_ORIENT_START	n/a	n/a	n/a	n/a	-999	4	[0, 0, 0]	n/a	catFR1	1	R1302M
799.751	0.001	595756	RETRIEVAL_ORIENT_END	n/a	n/a	n/a	n/a	-999	4	[0, 0, 0]	n/a	catFR1	1	R1302M
799.752	0.436	595757	REC_START	n/a	n/a	n/a	n/a	-999	4	[0, 0, 0]	n/a	catFR1	1	R1302M
800.188	1.81	596193	REC_WORD	1.81	n/a	BLUEBIRD	Birds	1	4	[0, 0, 0]	n/a	catFR1	1	R1302M
801.998	14.416	598002	REC_WORD	14.416	n/a	SEAGULL	Birds	8	4	[0, 0, 0]	n/a	catFR1	1	R1302M
816.414	9.38	612418	REC_WORD	9.38	n/a	SPATULA	KitchenTools	-999	4	[0, 0, 0]	n/a	catFR1	1	R1302M
825.794	3.967	621797	REC_WORD	3.967	n/a	PETUNIA	Flowers	4	4	[0, 0, 0]	n/a	catFR1	1	R1302M
829.761	0.001	625764	REC_END	n/a	n/a	n/a	n/a	-999	4	[0, 0, 0]	n/a	catFR1	1	R1302M
829.762	0.023	625765	TRIAL_END	n/a	n/a	n/a	n/a	-999	4	[0, 0, 0]	n/a	catFR1	1	R1302M
829.785	0.001	625788	TRIAL_START	n/a	n/a	n/a	n/a	-999	5	[0, 0, 0]	n/a	catFR1	1	R1302M
829.786	0.0	625789	TRIAL	n/a	n/a	n/a	n/a	-999	5	[0, 0, 0]	n/a	catFR1	1	R1302M
829.786	10.022	625789	WAITING_START	n/a	n/a	n/a	n/a	-999	5	[0, 0, 0]	n/a	catFR1	1	R1302M
839.808	0.001	635811	WAITING_END	n/a	n/a	n/a	n/a	-999	5	[0, 0, 0]	n/a	catFR1	1	R1302M
839.809	10.429	635812	COUNTDOWN_START	n/a	n/a	n/a	n/a	-999	5	[0, 0, 0]	n/a	catFR1	1	R1302M
850.238	0.001	646240	COUNTDOWN_END	n/a	n/a	n/a	n/a	-999	5	[0, 0, 0]	n/a	catFR1	1	R1302M
850.239	1.089	646241	ORIENT_START	n/a	n/a	n/a	n/a	-999	5	[0, 0, 0]	n/a	catFR1	1	R1302M
851.328	0.001	647330	ORIENT_END	n/a	n/a	n/a	n/a	-999	5	[0, 0, 0]	n/a	catFR1	1	R1302M
851.329	1.034	647331	ENCODING_START	n/a	n/a	n/a	n/a	-999	5	[0, 0, 0]	n/a	catFR1	1	R1302M
852.363	1.631	648365	WORD	n/a	wordpools/wordpool_categorized_EN.txt	VACUUM	Appliances	1	5	[0, 0, 0]	n/a	catFR1	1	R1302M
853.994	1.044	649996	WORD_OFF	n/a	n/a	VACUUM	Appliances	1	5	[0, 0, 0]	n/a	catFR1	1	R1302M
855.038	1.624	651040	WORD	n/a	wordpools/wordpool_categorized_EN.txt	FREEZER	Appliances	2	5	[0, 0, 0]	n/a	catFR1	1	R1302M
856.662	0.84	652664	WORD_OFF	n/a	n/a	FREEZER	Appliances	2	5	[0, 0, 0]	n/a	catFR1	1	R1302M
857.502	1.627	653504	WORD	n/a	wordpools/wordpool_categorized_EN.txt	SHRIMP	OceanAnimals	3	5	[0, 0, 0]	n/a	catFR1	1	R1302M
859.129	0.757	655131	WORD_OFF	n/a	n/a	SHRIMP	OceanAnimals	3	5	[0, 0, 0]	n/a	catFR1	1	R1302M
859.886	1.61	655888	WORD	n/a	wordpools/wordpool_categorized_EN.txt	FISH	OceanAnimals	4	5	[0, 0, 0]	n/a	catFR1	1	R1302M
861.496	1.1	657498	WORD_OFF	n/a	n/a	FISH	OceanAnimals	4	5	[0, 0, 0]	n/a	catFR1	1	R1302M
862.596	1.634	658598	WORD	n/a	wordpools/wordpool_categorized_EN.txt	WRENCH	Tools	5	5	[0, 0, 0]	n/a	catFR1	1	R1302M
864.23	0.77	660232	WORD_OFF	n/a	n/a	WRENCH	Tools	5	5	[0, 0, 0]	n/a	catFR1	1	R1302M
865.0	1.631	661002	WORD	n/a	wordpools/wordpool_categorized_EN.txt	SANDER	Tools	6	5	[0, 0, 0]	n/a	catFR1	1	R1302M
866.631	0.899	662633	WORD_OFF	n/a	n/a	SANDER	Tools	6	5	[0, 0, 0]	n/a	catFR1	1	R1302M
867.53	1.635	663532	WORD	n/a	wordpools/wordpool_categorized_EN.txt	IRON	Appliances	7	5	[0, 0, 0]	n/a	catFR1	1	R1302M
869.165	0.915	665166	WORD_OFF	n/a	n/a	IRON	Appliances	7	5	[0, 0, 0]	n/a	catFR1	1	R1302M
870.08	1.635	666081	WORD	n/a	wordpools/wordpool_categorized_EN.txt	TOASTER	Appliances	8	5	[0, 0, 0]	n/a	catFR1	1	R1302M
871.715	0.764	667716	WORD_OFF	n/a	n/a	TOASTER	Appliances	8	5	[0, 0, 0]	n/a	catFR1	1	R1302M
872.479	1.636	668480	WORD	n/a	wordpools/wordpool_categorized_EN.txt	LEVEL	Tools	9	5	[0, 0, 0]	n/a	catFR1	1	R1302M
874.115	1.114	670116	WORD_OFF	n/a	n/a	LEVEL	Tools	9	5	[0, 0, 0]	n/a	catFR1	1	R1302M
875.229	1.636	671230	WORD	n/a	wordpools/wordpool_categorized_EN.txt	RATCHET	Tools	10	5	[0, 0, 0]	n/a	catFR1	1	R1302M
876.865	0.912	672866	WORD_OFF	n/a	n/a	RATCHET	Tools	10	5	[0, 0, 0]	n/a	catFR1	1	R1302M
877.777	1.623	673778	WORD	n/a	wordpools/wordpool_categorized_EN.txt	OYSTER	OceanAnimals	11	5	[0, 0, 0]	n/a	catFR1	1	R1302M
879.4	0.988	675401	WORD_OFF	n/a	n/a	OYSTER	OceanAnimals	11	5	[0, 0, 0]	n/a	catFR1	1	R1302M
880.388	1.628	676389	WORD	n/a	wordpools/wordpool_categorized_EN.txt	DOLPHIN	OceanAnimals	12	5	[0, 0, 0]	n/a	catFR1	1	R1302M
882.016	0.001	678017	WORD_OFF	n/a	n/a	DOLPHIN	OceanAnimals	12	5	[0, 0, 0]	n/a	catFR1	1	R1302M
882.017	0.0	678018	ENCODING_END	n/a	n/a	n/a	n/a	-999	5	[0, 0, 0]	n/a	catFR1	1	R1302M
882.017	0.0	678018	DISTRACT_START	n/a	n/a	n/a	n/a	-999	5	[0, 0, 0]	n/a	catFR1	1	R1302M
882.017	0.017	678018	START	n/a	n/a	n/a	n/a	-999	5	[-999, -999, -999]	n/a	catFR1	1	R1302M
882.034	7.518	678035	PROB	7.518	n/a	n/a	n/a	-999	5	[1, 4, 5]	10	catFR1	1	R1302M
889.552	5.101	685553	PROB	5.101	n/a	n/a	n/a	-999	5	[8, 5, 9]	2	catFR1	1	R1302M
894.653	8.264	690653	PROB	8.264	n/a	n/a	n/a	-999	5	[1, 5, 3]	9	catFR1	1	R1302M
902.917	0.02	698917	STOP	n/a	n/a	n/a	n/a	-999	5	[-999, -999, -999]	n/a	catFR1	1	R1302M
902.937	0.699	698937	DISTRACT_END	n/a	n/a	n/a	n/a	-999	5	[0, 0, 0]	n/a	catFR1	1	R1302M
903.636	1.619	699636	RETRIEVAL_ORIENT_START	n/a	n/a	n/a	n/a	-999	5	[0, 0, 0]	n/a	catFR1	1	R1302M
905.255	0.001	701255	RETRIEVAL_ORIENT_END	n/a	n/a	n/a	n/a	-999	5	[0, 0, 0]	n/a	catFR1	1	R1302M
905.256	2.634	701256	REC_START	n/a	n/a	n/a	n/a	-999	5	[0, 0, 0]	n/a	catFR1	1	R1302M
907.89	0.62	703890	REC_WORD	0.62	n/a	BLUEBIRD	Birds	-999	5	[0, 0, 0]	n/a	catFR1	1	R1302M
908.51	1.363	704510	REC_WORD	1.363	n/a	SPATULA	KitchenTools	-999	5	[0, 0, 0]	n/a	catFR1	1	R1302M
909.873	2.237	705873	REC_WORD	2.237	n/a	SEAGULL	Birds	-999	5	[0, 0, 0]	n/a	catFR1	1	R1302M
912.11	23.156	708110	REC_WORD	23.156	n/a	SHRIMP	OceanAnimals	3	5	[0, 0, 0]	n/a	catFR1	1	R1302M
935.266	0.001	731265	REC_END	n/a	n/a	n/a	n/a	-999	5	[0, 0, 0]	n/a	catFR1	1	R1302M
935.267	0.022	731266	TRIAL_END	n/a	n/a	n/a	n/a	-999	5	[0, 0, 0]	n/a	catFR1	1	R1302M
935.289	0.001	731288	TRIAL_START	n/a	n/a	n/a	n/a	-999	6	[0, 0, 0]	n/a	catFR1	1	R1302M
935.29	0.0	731289	TRIAL	n/a	n/a	n/a	n/a	-999	6	[0, 0, 0]	n/a	catFR1	1	R1302M
935.29	9.039	731289	WAITING_START	n/a	n/a	n/a	n/a	-999	6	[0, 0, 0]	n/a	catFR1	1	R1302M
944.329	0.001	740327	WAITING_END	n/a	n/a	n/a	n/a	-999	6	[0, 0, 0]	n/a	catFR1	1	R1302M
944.33	10.429	740328	COUNTDOWN_START	n/a	n/a	n/a	n/a	-999	6	[0, 0, 0]	n/a	catFR1	1	R1302M
954.759	0.001	750757	COUNTDOWN_END	n/a	n/a	n/a	n/a	-999	6	[0, 0, 0]	n/a	catFR1	1	R1302M
954.76	1.104	750758	ORIENT_START	n/a	n/a	n/a	n/a	-999	6	[0, 0, 0]	n/a	catFR1	1	R1302M
955.864	0.001	751862	ORIENT_END	n/a	n/a	n/a	n/a	-999	6	[0, 0, 0]	n/a	catFR1	1	R1302M
955.865	1.098	751863	ENCODING_START	n/a	n/a	n/a	n/a	-999	6	[0, 0, 0]	n/a	catFR1	1	R1302M
956.963	1.618	752961	WORD	n/a	wordpools/wordpool_categorized_EN.txt	JACKET	Clothing	1	6	[0, 0, 0]	n/a	catFR1	1	R1302M
958.581	0.875	754578	WORD_OFF	n/a	n/a	JACKET	Clothing	1	6	[0, 0, 0]	n/a	catFR1	1	R1302M
959.456	1.626	755453	WORD	n/a	wordpools/wordpool_categorized_EN.txt	BLOUSE	Clothing	2	6	[0, 0, 0]	n/a	catFR1	1	R1302M
961.082	0.783	757079	WORD_OFF	n/a	n/a	BLOUSE	Clothing	2	6	[0, 0, 0]	n/a	catFR1	1	R1302M
961.865	1.618	757862	WORD	n/a	wordpools/wordpool_categorized_EN.txt	BROWNIES	Desserts	3	6	[0, 0, 0]	n/a	catFR1	1	R1302M
963.483	0.837	759480	WORD_OFF	n/a	n/a	BROWNIES	Desserts	3	6	[0, 0, 0]	n/a	catFR1	1	R1302M
964.32	1.629	760317	WORD	n/a	wordpools/wordpool_categorized_EN.txt	COOKIE	Desserts	4	6	[0, 0, 0]	n/a	catFR1	1	R1302M
965.949	1.037	761946	WORD_OFF	n/a	n/a	COOKIE	Desserts	4	6	[0, 0, 0]	n/a	catFR1	1	R1302M
966.986	1.631	762983	WORD	n/a	wordpools/wordpool_categorized_EN.txt	PAPER	OfficeSupplies	5	6	[0, 0, 0]	n/a	catFR1	1	R1302M
968.617	0.75	764614	WORD_OFF	n/a	n/a	PAPER	OfficeSupplies	5	6	[0, 0, 0]	n/a	catFR1	1	R1302M
969.367	1.633	765364	WORD	n/a	wordpools/wordpool_categorized_EN.txt	PENCIL	OfficeSupplies	6	6	[0, 0, 0]	n/a	catFR1	1	R1302M
971.0	0.874	766997	WORD_OFF	n/a	n/a	PENCIL	OfficeSupplies	6	6	[0, 0, 0]	n/a	catFR1	1	R1302M
971.874	1.611	767871	WORD	n/a	wordpools/wordpool_categorized_EN.txt	CAKE	Desserts	7	6	[0, 0, 0]	n/a	catFR1	1	R1302M
973.485	0.758	769482	WORD_OFF	n/a	n/a	CAKE	Desserts	7	6	[0, 0, 0]	n/a	catFR1	1	R1302M
974.243	1.624	770240	WORD	n/a	wordpools/wordpool_categorized_EN.txt	JELLO	Desserts	8	6	[0, 0, 0]	n/a	catFR1	1	R1302M
975.867	0.778	771864	WORD_OFF	n/a	n/a	JELLO	Desserts	8	6	[0, 0, 0]	n/a	catFR1	1	R1302M
976.645	1.624	772642	WORD	n/a	wordpools/wordpool_categorized_EN.txt	SOCKS	Clothing	9	6	[0, 0, 0]	n/a	catFR1	1	R1302M
978.269	0.939	774266	WORD_OFF	n/a	n/a	SOCKS	Clothing	9	6	[0, 0, 0]	n/a	catFR1	1	R1302M
979.208	1.627	775205	WORD	n/a	wordpools/wordpool_categorized_EN.txt	SHORTS	Clothing	10	6	[0, 0, 0]	n/a	catFR1	1	R1302M
980.835	0.796	776831	WORD_OFF	n/a	n/a	SHORTS	Clothing	10	6	[0, 0, 0]	n/a	catFR1	1	R1302M
981.631	1.622	777627	WORD	n/a	wordpools/wordpool_categorized_EN.txt	TAPE	OfficeSupplies	11	6	[0, 0, 0]	n/a	catFR1	1	R1302M
983.253	1.002	779249	WORD_OFF	n/a	n/a	TAPE	OfficeSupplies	11	6	[0, 0, 0]	n/a	catFR1	1	R1302M
984.255	1.631	780251	WORD	n/a	wordpools/wordpool_categorized_EN.txt	FOLDER	OfficeSupplies	12	6	[0, 0, 0]	n/a	catFR1	1	R1302M
985.886	0.001	781882	WORD_OFF	n/a	n/a	FOLDER	OfficeSupplies	12	6	[0, 0, 0]	n/a	catFR1	1	R1302M
985.887	0.0	781883	ENCODING_END	n/a	n/a	n/a	n/a	-999	6	[0, 0, 0]	n/a	catFR1	1	R1302M
985.887	0.001	781883	DISTRACT_START	n/a	n/a	n/a	n/a	-999	6	[0, 0, 0]	n/a	catFR1	1	R1302M
985.888	0.014	781884	START	n/a	n/a	n/a	n/a	-999	6	[-999, -999, -999]	n/a	catFR1	1	R1302M
985.902	5.118	781898	PROB	5.118	n/a	n/a	n/a	-999	6	[1, 8, 8]	17	catFR1	1	R1302M
991.02	5.335	787016	PROB	5.335	n/a	n/a	n/a	-999	6	[2, 8, 9]	20	catFR1	1	R1302M
996.355	6.952	792351	PROB	6.952	n/a	n/a	n/a	-999	6	[4, 5, 8]	2	catFR1	1	R1302M
1003.307	7.784	799302	PROB	7.784	n/a	n/a	n/a	-999	6	[5, 7, 1]	13	catFR1	1	R1302M
1011.091	0.018	807086	STOP	n/a	n/a	n/a	n/a	-999	6	[-999, -999, -999]	n/a	catFR1	1	R1302M
1011.109	0.613	807104	DISTRACT_END	n/a	n/a	n/a	n/a	-999	6	[0, 0, 0]	n/a	catFR1	1	R1302M
1011.722	1.62	807717	RETRIEVAL_ORIENT_START	n/a	n/a	n/a	n/a	-999	6	[0, 0, 0]	n/a	catFR1	1	R1302M
1013.342	0.001	809337	RETRIEVAL_ORIENT_END	n/a	n/a	n/a	n/a	-999	6	[0, 0, 0]	n/a	catFR1	1	R1302M
1013.343	0.779	809338	REC_START	n/a	n/a	n/a	n/a	-999	6	[0, 0, 0]	n/a	catFR1	1	R1302M
1014.122	0.763	810117	REC_WORD	0.763	n/a	JACKET	Clothing	1	6	[0, 0, 0]	n/a	catFR1	1	R1302M
1014.885	2.18	810880	REC_WORD	2.18	n/a	BLOUSE	Clothing	2	6	[0, 0, 0]	n/a	catFR1	1	R1302M
1017.065	5.221	813060	REC_WORD	5.221	n/a	SPATULA	KitchenTools	-999	6	[0, 0, 0]	n/a	catFR1	1	R1302M
1022.286	21.068	818281	REC_WORD	21.068	n/a	SEAGULL	Birds	-999	6	[0, 0, 0]	n/a	catFR1	1	R1302M
1043.354	0.0	839348	REC_END	n/a	n/a	n/a	n/a	-999	6	[0, 0, 0]	n/a	catFR1	1	R1302M
1043.354	0.022	839348	TRIAL_END	n/a	n/a	n/a	n/a	-999	6	[0, 0, 0]	n/a	catFR1	1	R1302M
1043.376	0.001	839370	TRIAL_START	n/a	n/a	n/a	n/a	-999	7	[0, 0, 0]	n/a	catFR1	1	R1302M
1043.377	0.0	839371	TRIAL	n/a	n/a	n/a	n/a	-999	7	[0, 0, 0]	n/a	catFR1	1	R1302M
1043.377	5.538	839371	WAITING_START	n/a	n/a	n/a	n/a	-999	7	[0, 0, 0]	n/a	catFR1	1	R1302M
1048.915	0.001	844908	WAITING_END	n/a	n/a	n/a	n/a	-999	7	[0, 0, 0]	n/a	catFR1	1	R1302M
1048.916	10.429	844909	COUNTDOWN_START	n/a	n/a	n/a	n/a	-999	7	[0, 0, 0]	n/a	catFR1	1	R1302M
1059.345	0.001	855338	COUNTDOWN_END	n/a	n/a	n/a	n/a	-999	7	[0, 0, 0]	n/a	catFR1	1	R1302M
1059.346	1.022	855339	ORIENT_START	n/a	n/a	n/a	n/a	-999	7	[0, 0, 0]	n/a	catFR1	1	R1302M
1060.368	0.001	856361	ORIENT_END	n/a	n/a	n/a	n/a	-999	7	[0, 0, 0]	n/a	catFR1	1	R1302M
1060.369	1.093	856362	ENCODING_START	n/a	n/a	n/a	n/a	-999	7	[0, 0, 0]	n/a	catFR1	1	R1302M
1061.462	1.623	857455	WORD	n/a	wordpools/wordpool_categorized_EN.txt	COAT	Clothing	1	7	[0, 0, 0]	n/a	catFR1	1	R1302M
1063.085	0.904	859078	WORD_OFF	n/a	n/a	COAT	Clothing	1	7	[0, 0, 0]	n/a	catFR1	1	R1302M
1063.989	1.613	859982	WORD	n/a	wordpools/wordpool_categorized_EN.txt	SHIRT	Clothing	2	7	[0, 0, 0]	n/a	catFR1	1	R1302M
1065.602	1.07	861595	WORD_OFF	n/a	n/a	SHIRT	Clothing	2	7	[0, 0, 0]	n/a	catFR1	1	R1302M
1066.672	1.631	862665	WORD	n/a	wordpools/wordpool_categorized_EN.txt	TABLET	Electronics	3	7	[0, 0, 0]	n/a	catFR1	1	R1302M
1068.303	0.988	864296	WORD_OFF	n/a	n/a	TABLET	Electronics	3	7	[0, 0, 0]	n/a	catFR1	1	R1302M
1069.291	1.628	865284	WORD	n/a	wordpools/wordpool_categorized_EN.txt	SCANNER	Electronics	4	7	[0, 0, 0]	n/a	catFR1	1	R1302M
1070.919	0.878	866911	WORD_OFF	n/a	n/a	SCANNER	Electronics	4	7	[0, 0, 0]	n/a	catFR1	1	R1302M
1071.797	1.607	867789	WORD	n/a	wordpools/wordpool_categorized_EN.txt	MARBLES	Toys	5	7	[0, 0, 0]	n/a	catFR1	1	R1302M
1073.404	0.956	869396	WORD_OFF	n/a	n/a	MARBLES	Toys	5	7	[0, 0, 0]	n/a	catFR1	1	R1302M
1074.36	1.627	870352	WORD	n/a	wordpools/wordpool_categorized_EN.txt	SLINKY	Toys	6	7	[0, 0, 0]	n/a	catFR1	1	R1302M
1075.987	0.917	871979	WORD_OFF	n/a	n/a	SLINKY	Toys	6	7	[0, 0, 0]	n/a	catFR1	1	R1302M
1076.904	1.634	872896	WORD	n/a	wordpools/wordpool_categorized_EN.txt	RADIO	Electronics	7	7	[0, 0, 0]	n/a	catFR1	1	R1302M
1078.538	1.061	874530	WORD_OFF	n/a	n/a	RADIO	Electronics	7	7	[0, 0, 0]	n/a	catFR1	1	R1302M
1079.599	1.623	875591	WORD	n/a	wordpools/wordpool_categorized_EN.txt	PRINTER	Electronics	8	7	[0, 0, 0]	n/a	catFR1	1	R1302M
1081.222	0.975	877214	WORD_OFF	n/a	n/a	PRINTER	Electronics	8	7	[0, 0, 0]	n/a	catFR1	1	R1302M
1082.197	1.625	878189	WORD	n/a	wordpools/wordpool_categorized_EN.txt	JEANS	Clothing	9	7	[0, 0, 0]	n/a	catFR1	1	R1302M
1083.822	0.908	879814	WORD_OFF	n/a	n/a	JEANS	Clothing	9	7	[0, 0, 0]	n/a	catFR1	1	R1302M
1084.73	1.626	880722	WORD	n/a	wordpools/wordpool_categorized_EN.txt	DRESS	Clothing	10	7	[0, 0, 0]	n/a	catFR1	1	R1302M
1086.356	1.04	882348	WORD_OFF	n/a	n/a	DRESS	Clothing	10	7	[0, 0, 0]	n/a	catFR1	1	R1302M
1087.396	1.628	883388	WORD	n/a	wordpools/wordpool_categorized_EN.txt	FRISBEE	Toys	11	7	[0, 0, 0]	n/a	catFR1	1	R1302M
1089.024	1.066	885016	WORD_OFF	n/a	n/a	FRISBEE	Toys	11	7	[0, 0, 0]	n/a	catFR1	1	R1302M
1090.09	1.634	886082	WORD	n/a	wordpools/wordpool_categorized_EN.txt	BASEBALL	Toys	12	7	[0, 0, 0]	n/a	catFR1	1	R1302M
1091.724	0.001	887716	WORD_OFF	n/a	n/a	BASEBALL	Toys	12	7	[0, 0, 0]	n/a	catFR1	1	R1302M
1091.725	0.001	887717	ENCODING_END	n/a	n/a	n/a	n/a	-999	7	[0, 0, 0]	n/a	catFR1	1	R1302M
1091.726	0.0	887718	DISTRACT_START	n/a	n/a	n/a	n/a	-999	7	[0, 0, 0]	n/a	catFR1	1	R1302M
1091.726	0.014	887718	START	n/a	n/a	n/a	n/a	-999	7	[-999, -999, -999]	n/a	catFR1	1	R1302M
1091.74	5.735	887732	PROB	5.735	n/a	n/a	n/a	-999	7	[3, 2, 6]	11	catFR1	1	R1302M
1097.475	3.533	893466	PROB	3.533	n/a	n/a	n/a	-999	7	[3, 2, 7]	13	catFR1	1	R1302M
1101.008	7.402	896999	PROB	7.402	n/a	n/a	n/a	-999	7	[8, 4, 6]	18	catFR1	1	R1302M
1108.41	4.299	904401	PROB	4.299	n/a	n/a	n/a	-999	7	[3, 3, 9]	18	catFR1	1	R1302M
1112.709	0.019	908700	STOP	n/a	n/a	n/a	n/a	-999	7	[-999, -999, -999]	n/a	catFR1	1	R1302M
1112.728	0.615	908719	DISTRACT_END	n/a	n/a	n/a	n/a	-999	7	[0, 0, 0]	n/a	catFR1	1	R1302M
1113.343	1.535	909334	RETRIEVAL_ORIENT_START	n/a	n/a	n/a	n/a	-999	7	[0, 0, 0]	n/a	catFR1	1	R1302M
1114.878	0.0	910868	RETRIEVAL_ORIENT_END	n/a	n/a	n/a	n/a	-999	7	[0, 0, 0]	n/a	catFR1	1	R1302M
1114.878	1.343	910868	REC_START	n/a	n/a	n/a	n/a	-999	7	[0, 0, 0]	n/a	catFR1	1	R1302M
1116.221	0.753	912211	REC_WORD	0.753	n/a	COAT	Clothing	1	7	[0, 0, 0]	n/a	catFR1	1	R1302M
1116.974	1.22	912964	REC_WORD	1.22	n/a	SHIRT	Clothing	2	7	[0, 0, 0]	n/a	catFR1	1	R1302M
1118.194	0.625	914184	REC_WORD	0.625	n/a	TABLET	Electronics	3	7	[0, 0, 0]	n/a	catFR1	1	R1302M
1118.819	3.079	914809	REC_WORD	3.079	n/a	SPATULA	KitchenTools	-999	7	[0, 0, 0]	n/a	catFR1	1	R1302M
1121.898	22.99	917888	REC_WORD	22.99	n/a	BROWSER	n/a	-999	7	[0, 0, 0]	n/a	catFR1	1	R1302M
1144.888	0.001	940877	REC_END	n/a	n/a	n/a	n/a	-999	7	[0, 0, 0]	n/a	catFR1	1	R1302M
1144.889	0.021	940878	TRIAL_END	n/a	n/a	n/a	n/a	-999	7	[0, 0, 0]	n/a	catFR1	1	R1302M
1144.91	0.0	940899	TRIAL_START	n/a	n/a	n/a	n/a	-999	8	[0, 0, 0]	n/a	catFR1	1	R1302M
1144.91	0.001	940899	TRIAL	n/a	n/a	n/a	n/a	-999	8	[0, 0, 0]	n/a	catFR1	1	R1302M
1144.911	5.073	940900	WAITING_START	n/a	n/a	n/a	n/a	-999	8	[0, 0, 0]	n/a	catFR1	1	R1302M
1149.984	0.001	945973	WAITING_END	n/a	n/a	n/a	n/a	-999	8	[0, 0, 0]	n/a	catFR1	1	R1302M
1149.985	10.43	945974	COUNTDOWN_START	n/a	n/a	n/a	n/a	-999	8	[0, 0, 0]	n/a	catFR1	1	R1302M
1160.415	0.001	956403	COUNTDOWN_END	n/a	n/a	n/a	n/a	-999	8	[0, 0, 0]	n/a	catFR1	1	R1302M
1160.416	1.071	956404	ORIENT_START	n/a	n/a	n/a	n/a	-999	8	[0, 0, 0]	n/a	catFR1	1	R1302M
1161.487	0.001	957475	ORIENT_END	n/a	n/a	n/a	n/a	-999	8	[0, 0, 0]	n/a	catFR1	1	R1302M
1161.488	0.819	957476	ENCODING_START	n/a	n/a	n/a	n/a	-999	8	[0, 0, 0]	n/a	catFR1	1	R1302M
1162.307	1.63	958295	WORD	n/a	wordpools/wordpool_categorized_EN.txt	MILK	Beverages	1	8	[0, 0, 0]	n/a	catFR1	1	R1302M
1163.937	1.095	959925	WORD_OFF	n/a	n/a	MILK	Beverages	1	8	[0, 0, 0]	n/a	catFR1	1	R1302M
1165.032	1.623	961020	WORD	n/a	wordpools/wordpool_categorized_EN.txt	TEA	Beverages	2	8	[0, 0, 0]	n/a	catFR1	1	R1302M
1166.655	1.136	962643	WORD_OFF	n/a	n/a	TEA	Beverages	2	8	[0, 0, 0]	n/a	catFR1	1	R1302M
1167.791	1.631	963779	WORD	n/a	wordpools/wordpool_categorized_EN.txt	WHISK	KitchenTools	3	8	[0, 0, 0]	n/a	catFR1	1	R1302M
1169.422	0.903	965410	WORD_OFF	n/a	n/a	WHISK	KitchenTools	3	8	[0, 0, 0]	n/a	catFR1	1	R1302M
1170.325	1.63	966313	WORD	n/a	wordpools/wordpool_categorized_EN.txt	STRAINER	KitchenTools	4	8	[0, 0, 0]	n/a	catFR1	1	R1302M
1171.955	1.09	967943	WORD_OFF	n/a	n/a	STRAINER	KitchenTools	4	8	[0, 0, 0]	n/a	catFR1	1	R1302M
1173.045	1.628	969033	WORD	n/a	wordpools/wordpool_categorized_EN.txt	PEAS	Vegetables	5	8	[0, 0, 0]	n/a	catFR1	1	R1302M
1174.673	1.008	970661	WORD_OFF	n/a	n/a	PEAS	Vegetables	5	8	[0, 0, 0]	n/a	catFR1	1	R1302M
1175.681	1.626	971669	WORD	n/a	wordpools/wordpool_categorized_EN.txt	CELERY	Vegetables	6	8	[0, 0, 0]	n/a	catFR1	1	R1302M
1177.307	1.124	973295	WORD_OFF	n/a	n/a	CELERY	Vegetables	6	8	[0, 0, 0]	n/a	catFR1	1	R1302M
1178.431	1.627	974419	WORD	n/a	wordpools/wordpool_categorized_EN.txt	TONGS	KitchenTools	7	8	[0, 0, 0]	n/a	catFR1	1	R1302M
1180.058	1.012	976046	WORD_OFF	n/a	n/a	TONGS	KitchenTools	7	8	[0, 0, 0]	n/a	catFR1	1	R1302M
1181.07	1.622	977058	WORD	n/a	wordpools/wordpool_categorized_EN.txt	LADLE	KitchenTools	8	8	[0, 0, 0]	n/a	catFR1	1	R1302M
1182.692	0.892	978679	WORD_OFF	n/a	n/a	LADLE	KitchenTools	8	8	[0, 0, 0]	n/a	catFR1	1	R1302M
1183.584	1.625	979571	WORD	n/a	wordpools/wordpool_categorized_EN.txt	SPINACH	Vegetables	9	8	[0, 0, 0]	n/a	catFR1	1	R1302M
1185.209	0.783	981196	WORD_OFF	n/a	n/a	SPINACH	Vegetables	9	8	[0, 0, 0]	n/a	catFR1	1	R1302M
1185.992	1.617	981979	WORD	n/a	wordpools/wordpool_categorized_EN.txt	CUCUMBER	Vegetables	10	8	[0, 0, 0]	n/a	catFR1	1	R1302M
1187.609	0.987	983596	WORD_OFF	n/a	n/a	CUCUMBER	Vegetables	10	8	[0, 0, 0]	n/a	catFR1	1	R1302M
1188.596	1.63	984583	WORD	n/a	wordpools/wordpool_categorized_EN.txt	CIDER	Beverages	11	8	[0, 0, 0]	n/a	catFR1	1	R1302M
1190.226	0.797	986213	WORD_OFF	n/a	n/a	CIDER	Beverages	11	8	[0, 0, 0]	n/a	catFR1	1	R1302M
1191.023	1.637	987010	WORD	n/a	wordpools/wordpool_categorized_EN.txt	BEER	Beverages	12	8	[0, 0, 0]	n/a	catFR1	1	R1302M
1192.66	0.001	988647	WORD_OFF	n/a	n/a	BEER	Beverages	12	8	[0, 0, 0]	n/a	catFR1	1	R1302M
1192.661	0.001	988648	ENCODING_END	n/a	n/a	n/a	n/a	-999	8	[0, 0, 0]	n/a	catFR1	1	R1302M
1192.662	0.0	988649	DISTRACT_START	n/a	n/a	n/a	n/a	-999	8	[0, 0, 0]	n/a	catFR1	1	R1302M
1192.662	0.015	988649	START	n/a	n/a	n/a	n/a	-999	8	[-999, -999, -999]	n/a	catFR1	1	R1302M
1192.677	4.751	988664	PROB	4.751	n/a	n/a	n/a	-999	8	[6, 7, 3]	16	catFR1	1	R1302M
1197.428	6.034	993415	PROB	6.034	n/a	n/a	n/a	-999	8	[5, 3, 6]	14	catFR1	1	R1302M
1203.462	5.317	999448	PROB	5.317	n/a	n/a	n/a	-999	8	[4, 6, 7]	19	catFR1	1	R1302M
1208.779	4.091	1004765	PROB	4.091	n/a	n/a	n/a	-999	8	[5, 1, 1]	7	catFR1	1	R1302M
1212.87	0.01	1008856	STOP	n/a	n/a	n/a	n/a	-999	8	[-999, -999, -999]	n/a	catFR1	1	R1302M
1212.88	0.604	1008866	DISTRACT_END	n/a	n/a	n/a	n/a	-999	8	[0, 0, 0]	n/a	catFR1	1	R1302M
1213.484	1.614	1009470	RETRIEVAL_ORIENT_START	n/a	n/a	n/a	n/a	-999	8	[0, 0, 0]	n/a	catFR1	1	R1302M
1215.098	0.001	1011084	RETRIEVAL_ORIENT_END	n/a	n/a	n/a	n/a	-999	8	[0, 0, 0]	n/a	catFR1	1	R1302M
1215.099	2.39	1011085	REC_START	n/a	n/a	n/a	n/a	-999	8	[0, 0, 0]	n/a	catFR1	1	R1302M
1217.489	0.584	1013475	REC_WORD	0.584	n/a	MILK	Beverages	1	8	[0, 0, 0]	n/a	catFR1	1	R1302M
1218.073	1.65	1014059	REC_WORD	1.65	n/a	TEA	Beverages	2	8	[0, 0, 0]	n/a	catFR1	1	R1302M
1219.723	0.509	1015709	REC_WORD	0.509	n/a	TABLET	Electronics	-999	8	[0, 0, 0]	n/a	catFR1	1	R1302M
1220.232	7.919	1016218	REC_WORD	7.919	n/a	SPATULA	KitchenTools	-999	8	[0, 0, 0]	n/a	catFR1	1	R1302M
1228.151	10.283	1024136	REC_WORD	10.283	n/a	STRAINER	KitchenTools	4	8	[0, 0, 0]	n/a	catFR1	1	R1302M
1238.434	6.674	1034419	REC_WORD	6.674	n/a	SPINACH	Vegetables	9	8	[0, 0, 0]	n/a	catFR1	1	R1302M
1245.108	0.001	1041093	REC_END	n/a	n/a	n/a	n/a	-999	8	[0, 0, 0]	n/a	catFR1	1	R1302M
1245.109	0.024	1041094	TRIAL_END	n/a	n/a	n/a	n/a	-999	8	[0, 0, 0]	n/a	catFR1	1	R1302M
1245.133	0.001	1041118	TRIAL_START	n/a	n/a	n/a	n/a	-999	9	[0, 0, 0]	n/a	catFR1	1	R1302M
1245.134	0.0	1041119	TRIAL	n/a	n/a	n/a	n/a	-999	9	[0, 0, 0]	n/a	catFR1	1	R1302M
1245.134	24.773	1041119	WAITING_START	n/a	n/a	n/a	n/a	-999	9	[0, 0, 0]	n/a	catFR1	1	R1302M
1269.907	0.001	1065891	WAITING_END	n/a	n/a	n/a	n/a	-999	9	[0, 0, 0]	n/a	catFR1	1	R1302M
1269.908	10.43	1065892	COUNTDOWN_START	n/a	n/a	n/a	n/a	-999	9	[0, 0, 0]	n/a	catFR1	1	R1302M
1280.338	0.001	1076321	COUNTDOWN_END	n/a	n/a	n/a	n/a	-999	9	[0, 0, 0]	n/a	catFR1	1	R1302M
1280.339	1.088	1076322	ORIENT_START	n/a	n/a	n/a	n/a	-999	9	[0, 0, 0]	n/a	catFR1	1	R1302M
1281.427	0.001	1077410	ORIENT_END	n/a	n/a	n/a	n/a	-999	9	[0, 0, 0]	n/a	catFR1	1	R1302M
1281.428	0.991	1077411	ENCODING_START	n/a	n/a	n/a	n/a	-999	9	[0, 0, 0]	n/a	catFR1	1	R1302M
1282.419	1.626	1078402	WORD	n/a	wordpools/wordpool_categorized_EN.txt	DAFFODIL	Flowers	1	9	[0, 0, 0]	n/a	catFR1	1	R1302M
1284.045	1.035	1080028	WORD_OFF	n/a	n/a	DAFFODIL	Flowers	1	9	[0, 0, 0]	n/a	catFR1	1	R1302M
1285.08	1.615	1081063	WORD	n/a	wordpools/wordpool_categorized_EN.txt	ROSE	Flowers	2	9	[0, 0, 0]	n/a	catFR1	1	R1302M
1286.695	1.112	1082678	WORD_OFF	n/a	n/a	ROSE	Flowers	2	9	[0, 0, 0]	n/a	catFR1	1	R1302M
1287.807	1.622	1083790	WORD	n/a	wordpools/wordpool_categorized_EN.txt	ORANGE	Fruit	3	9	[0, 0, 0]	n/a	catFR1	1	R1302M
1289.429	0.88	1085412	WORD_OFF	n/a	n/a	ORANGE	Fruit	3	9	[0, 0, 0]	n/a	catFR1	1	R1302M
1290.309	1.636	1086292	WORD	n/a	wordpools/wordpool_categorized_EN.txt	STRAWBERRY	Fruit	4	9	[0, 0, 0]	n/a	catFR1	1	R1302M
1291.945	0.806	1087928	WORD_OFF	n/a	n/a	STRAWBERRY	Fruit	4	9	[0, 0, 0]	n/a	catFR1	1	R1302M
1292.751	1.629	1088734	WORD	n/a	wordpools/wordpool_categorized_EN.txt	GLUE	OfficeSupplies	5	9	[0, 0, 0]	n/a	catFR1	1	R1302M
1294.38	0.829	1090362	WORD_OFF	n/a	n/a	GLUE	OfficeSupplies	5	9	[0, 0, 0]	n/a	catFR1	1	R1302M
1295.209	1.637	1091191	WORD	n/a	wordpools/wordpool_categorized_EN.txt	PEN	OfficeSupplies	6	9	[0, 0, 0]	n/a	catFR1	1	R1302M
1296.846	1.122	1092828	WORD_OFF	n/a	n/a	PEN	OfficeSupplies	6	9	[0, 0, 0]	n/a	catFR1	1	R1302M
1297.968	1.613	1093950	WORD	n/a	wordpools/wordpool_categorized_EN.txt	ORCHID	Flowers	7	9	[0, 0, 0]	n/a	catFR1	1	R1302M
1299.581	0.862	1095563	WORD_OFF	n/a	n/a	ORCHID	Flowers	7	9	[0, 0, 0]	n/a	catFR1	1	R1302M
1300.443	1.638	1096425	WORD	n/a	wordpools/wordpool_categorized_EN.txt	DAISY	Flowers	8	9	[0, 0, 0]	n/a	catFR1	1	R1302M
1302.081	0.9	1098063	WORD_OFF	n/a	n/a	DAISY	Flowers	8	9	[0, 0, 0]	n/a	catFR1	1	R1302M
1302.981	1.617	1098963	WORD	n/a	wordpools/wordpool_categorized_EN.txt	MARKER	OfficeSupplies	9	9	[0, 0, 0]	n/a	catFR1	1	R1302M
1304.598	0.995	1100580	WORD_OFF	n/a	n/a	MARKER	OfficeSupplies	9	9	[0, 0, 0]	n/a	catFR1	1	R1302M
1305.593	1.623	1101575	WORD	n/a	wordpools/wordpool_categorized_EN.txt	STAPLER	OfficeSupplies	10	9	[0, 0, 0]	n/a	catFR1	1	R1302M
1307.216	0.967	1103198	WORD_OFF	n/a	n/a	STAPLER	OfficeSupplies	10	9	[0, 0, 0]	n/a	catFR1	1	R1302M
1308.183	1.632	1104165	WORD	n/a	wordpools/wordpool_categorized_EN.txt	PEAR	Fruit	11	9	[0, 0, 0]	n/a	catFR1	1	R1302M
1309.815	0.77	1105797	WORD_OFF	n/a	n/a	PEAR	Fruit	11	9	[0, 0, 0]	n/a	catFR1	1	R1302M
1310.585	1.632	1106567	WORD	n/a	wordpools/wordpool_categorized_EN.txt	BANANA	Fruit	12	9	[0, 0, 0]	n/a	catFR1	1	R1302M
1312.217	0.001	1108199	WORD_OFF	n/a	n/a	BANANA	Fruit	12	9	[0, 0, 0]	n/a	catFR1	1	R1302M
1312.218	0.0	1108200	ENCODING_END	n/a	n/a	n/a	n/a	-999	9	[0, 0, 0]	n/a	catFR1	1	R1302M
1312.218	0.001	1108200	DISTRACT_START	n/a	n/a	n/a	n/a	-999	9	[0, 0, 0]	n/a	catFR1	1	R1302M
1312.219	0.014	1108201	START	n/a	n/a	n/a	n/a	-999	9	[-999, -999, -999]	n/a	catFR1	1	R1302M
1312.233	6.65	1108215	PROB	6.65	n/a	n/a	n/a	-999	9	[9, 2, 8]	19	catFR1	1	R1302M
1318.883	5.702	1114864	PROB	5.702	n/a	n/a	n/a	-999	9	[6, 2, 1]	9	catFR1	1	R1302M
1324.585	4.851	1120566	PROB	4.851	n/a	n/a	n/a	-999	9	[7, 3, 9]	19	catFR1	1	R1302M
1329.436	5.519	1125417	PROB	5.519	n/a	n/a	n/a	-999	9	[7, 1, 2]	10	catFR1	1	R1302M
1334.955	0.015	1130936	STOP	n/a	n/a	n/a	n/a	-999	9	[-999, -999, -999]	n/a	catFR1	1	R1302M
1334.97	0.516	1130951	DISTRACT_END	n/a	n/a	n/a	n/a	-999	9	[0, 0, 0]	n/a	catFR1	1	R1302M
1335.486	1.719	1131467	RETRIEVAL_ORIENT_START	n/a	n/a	n/a	n/a	-999	9	[0, 0, 0]	n/a	catFR1	1	R1302M
1337.205	0.001	1133186	RETRIEVAL_ORIENT_END	n/a	n/a	n/a	n/a	-999	9	[0, 0, 0]	n/a	catFR1	1	R1302M
1337.206	2.782	1133187	REC_START	n/a	n/a	n/a	n/a	-999	9	[0, 0, 0]	n/a	catFR1	1	R1302M
1339.988	0.42	1135968	REC_WORD	0.42	n/a	TABLET	Electronics	-999	9	[0, 0, 0]	n/a	catFR1	1	R1302M
1340.408	5.842	1136388	REC_WORD	5.842	n/a	SPATULA	KitchenTools	-999	9	[0, 0, 0]	n/a	catFR1	1	R1302M
1346.25	20.967	1142230	REC_WORD	20.967	n/a	MILK	Beverages	-999	9	[0, 0, 0]	n/a	catFR1	1	R1302M
1367.217	0.0	1163196	REC_END	n/a	n/a	n/a	n/a	-999	9	[0, 0, 0]	n/a	catFR1	1	R1302M
1367.217	0.021	1163196	TRIAL_END	n/a	n/a	n/a	n/a	-999	9	[0, 0, 0]	n/a	catFR1	1	R1302M
1367.238	0.001	1163217	TRIAL_START	n/a	n/a	n/a	n/a	-999	10	[0, 0, 0]	n/a	catFR1	1	R1302M
1367.239	0.001	1163218	TRIAL	n/a	n/a	n/a	n/a	-999	10	[0, 0, 0]	n/a	catFR1	1	R1302M
1367.24	13.056	1163219	WAITING_START	n/a	n/a	n/a	n/a	-999	10	[0, 0, 0]	n/a	catFR1	1	R1302M
1380.296	0.001	1176275	WAITING_END	n/a	n/a	n/a	n/a	-999	10	[0, 0, 0]	n/a	catFR1	1	R1302M
1380.297	10.43	1176276	COUNTDOWN_START	n/a	n/a	n/a	n/a	-999	10	[0, 0, 0]	n/a	catFR1	1	R1302M
1390.727	0.001	1186705	COUNTDOWN_END	n/a	n/a	n/a	n/a	-999	10	[0, 0, 0]	n/a	catFR1	1	R1302M
1390.728	1.136	1186706	ORIENT_START	n/a	n/a	n/a	n/a	-999	10	[0, 0, 0]	n/a	catFR1	1	R1302M
1391.864	0.001	1187842	ORIENT_END	n/a	n/a	n/a	n/a	-999	10	[0, 0, 0]	n/a	catFR1	1	R1302M
1391.865	1.041	1187843	ENCODING_START	n/a	n/a	n/a	n/a	-999	10	[0, 0, 0]	n/a	catFR1	1	R1302M
1392.906	1.61	1188884	WORD	n/a	wordpools/wordpool_categorized_EN.txt	DOVE	Birds	1	10	[0, 0, 0]	n/a	catFR1	1	R1302M
1394.516	0.81	1190494	WORD_OFF	n/a	n/a	DOVE	Birds	1	10	[0, 0, 0]	n/a	catFR1	1	R1302M
1395.326	1.622	1191304	WORD	n/a	wordpools/wordpool_categorized_EN.txt	CARDINAL	Birds	2	10	[0, 0, 0]	n/a	catFR1	1	R1302M
1396.948	0.829	1192926	WORD_OFF	n/a	n/a	CARDINAL	Birds	2	10	[0, 0, 0]	n/a	catFR1	1	R1302M
1397.777	1.623	1193755	WORD	n/a	wordpools/wordpool_categorized_EN.txt	NOSE	BodyParts	3	10	[0, 0, 0]	n/a	catFR1	1	R1302M
1399.4	1.114	1195378	WORD_OFF	n/a	n/a	NOSE	BodyParts	3	10	[0, 0, 0]	n/a	catFR1	1	R1302M
1400.514	1.637	1196492	WORD	n/a	wordpools/wordpool_categorized_EN.txt	ARM	BodyParts	4	10	[0, 0, 0]	n/a	catFR1	1	R1302M
1402.151	1.097	1198129	WORD_OFF	n/a	n/a	ARM	BodyParts	4	10	[0, 0, 0]	n/a	catFR1	1	R1302M
1403.248	1.635	1199226	WORD	n/a	wordpools/wordpool_categorized_EN.txt	ONION	Vegetables	5	10	[0, 0, 0]	n/a	catFR1	1	R1302M
1404.883	0.846	1200860	WORD_OFF	n/a	n/a	ONION	Vegetables	5	10	[0, 0, 0]	n/a	catFR1	1	R1302M
1405.729	1.622	1201706	WORD	n/a	wordpools/wordpool_categorized_EN.txt	LETTUCE	Vegetables	6	10	[0, 0, 0]	n/a	catFR1	1	R1302M
1407.351	1.125	1203328	WORD_OFF	n/a	n/a	LETTUCE	Vegetables	6	10	[0, 0, 0]	n/a	catFR1	1	R1302M
1408.476	1.626	1204453	WORD	n/a	wordpools/wordpool_categorized_EN.txt	EAR	BodyParts	7	10	[0, 0, 0]	n/a	catFR1	1	R1302M
1410.102	1.12	1206079	WORD_OFF	n/a	n/a	EAR	BodyParts	7	10	[0, 0, 0]	n/a	catFR1	1	R1302M
1411.222	1.63	1207199	WORD	n/a	wordpools/wordpool_categorized_EN.txt	HAND	BodyParts	8	10	[0, 0, 0]	n/a	catFR1	1	R1302M
1412.852	0.821	1208829	WORD_OFF	n/a	n/a	HAND	BodyParts	8	10	[0, 0, 0]	n/a	catFR1	1	R1302M
1413.673	1.63	1209650	WORD	n/a	wordpools/wordpool_categorized_EN.txt	CAULIFLOWER	Vegetables	9	10	[0, 0, 0]	n/a	catFR1	1	R1302M
1415.303	0.975	1211280	WORD_OFF	n/a	n/a	CAULIFLOWER	Vegetables	9	10	[0, 0, 0]	n/a	catFR1	1	R1302M
1416.278	1.624	1212255	WORD	n/a	wordpools/wordpool_categorized_EN.txt	CARROT	Vegetables	10	10	[0, 0, 0]	n/a	catFR1	1	R1302M
1417.902	1.043	1213879	WORD_OFF	n/a	n/a	CARROT	Vegetables	10	10	[0, 0, 0]	n/a	catFR1	1	R1302M
1418.945	1.626	1214922	WORD	n/a	wordpools/wordpool_categorized_EN.txt	CROW	Birds	11	10	[0, 0, 0]	n/a	catFR1	1	R1302M
1420.571	1.008	1216548	WORD_OFF	n/a	n/a	CROW	Birds	11	10	[0, 0, 0]	n/a	catFR1	1	R1302M
1421.579	1.626	1217556	WORD	n/a	wordpools/wordpool_categorized_EN.txt	DUCK	Birds	12	10	[0, 0, 0]	n/a	catFR1	1	R1302M
1423.205	0.0	1219182	WORD_OFF	n/a	n/a	DUCK	Birds	12	10	[0, 0, 0]	n/a	catFR1	1	R1302M
1423.205	0.001	1219182	ENCODING_END	n/a	n/a	n/a	n/a	-999	10	[0, 0, 0]	n/a	catFR1	1	R1302M
1423.206	0.0	1219183	DISTRACT_START	n/a	n/a	n/a	n/a	-999	10	[0, 0, 0]	n/a	catFR1	1	R1302M
1423.206	0.015	1219183	START	n/a	n/a	n/a	n/a	-999	10	[-999, -999, -999]	n/a	catFR1	1	R1302M
1423.221	5.018	1219198	PROB	5.018	n/a	n/a	n/a	-999	10	[2, 5, 3]	10	catFR1	1	R1302M
1428.239	3.766	1224215	PROB	3.766	n/a	n/a	n/a	-999	10	[3, 7, 9]	19	catFR1	1	R1302M
1432.005	4.502	1227981	PROB	4.502	n/a	n/a	n/a	-999	10	[3, 8, 5]	16	catFR1	1	R1302M
1436.507	5.634	1232483	PROB	5.634	n/a	n/a	n/a	-999	10	[1, 4, 7]	12	catFR1	1	R1302M
1442.141	3.425	1238117	PROB	3.425	n/a	n/a	n/a	-999	10	[8, 1, 1]	10	catFR1	1	R1302M
1445.566	0.009	1241542	STOP	n/a	n/a	n/a	n/a	-999	10	[-999, -999, -999]	n/a	catFR1	1	R1302M
1445.575	0.603	1241551	DISTRACT_END	n/a	n/a	n/a	n/a	-999	10	[0, 0, 0]	n/a	catFR1	1	R1302M
1446.178	1.68	1242154	RETRIEVAL_ORIENT_START	n/a	n/a	n/a	n/a	-999	10	[0, 0, 0]	n/a	catFR1	1	R1302M
1447.858	0.001	1243834	RETRIEVAL_ORIENT_END	n/a	n/a	n/a	n/a	-999	10	[0, 0, 0]	n/a	catFR1	1	R1302M
1447.859	0.873	1243835	REC_START	n/a	n/a	n/a	n/a	-999	10	[0, 0, 0]	n/a	catFR1	1	R1302M
1448.732	0.427	1244708	REC_WORD	0.427	n/a	MILK	Beverages	-999	10	[0, 0, 0]	n/a	catFR1	1	R1302M
1449.159	0.44	1245134	REC_WORD	0.44	n/a	TEA	Beverages	-999	10	[0, 0, 0]	n/a	catFR1	1	R1302M
1449.599	1.146	1245574	REC_WORD	1.146	n/a	TABLET	Electronics	-999	10	[0, 0, 0]	n/a	catFR1	1	R1302M
1450.745	9.282	1246720	REC_WORD	9.282	n/a	SPATULA	KitchenTools	-999	10	[0, 0, 0]	n/a	catFR1	1	R1302M
1460.027	17.843	1256002	REC_WORD	17.843	n/a	NOSE	BodyParts	3	10	[0, 0, 0]	n/a	catFR1	1	R1302M
1477.87	0.001	1273844	REC_END	n/a	n/a	n/a	n/a	-999	10	[0, 0, 0]	n/a	catFR1	1	R1302M
1477.871	0.024	1273845	TRIAL_END	n/a	n/a	n/a	n/a	-999	10	[0, 0, 0]	n/a	catFR1	1	R1302M
1477.895	0.001	1273869	TRIAL_START	n/a	n/a	n/a	n/a	-999	11	[0, 0, 0]	n/a	catFR1	1	R1302M
1477.896	0.0	1273870	TRIAL	n/a	n/a	n/a	n/a	-999	11	[0, 0, 0]	n/a	catFR1	1	R1302M
1477.896	3.919	1273870	WAITING_START	n/a	n/a	n/a	n/a	-999	11	[0, 0, 0]	n/a	catFR1	1	R1302M
1481.815	0.001	1277789	WAITING_END	n/a	n/a	n/a	n/a	-999	11	[0, 0, 0]	n/a	catFR1	1	R1302M
1481.816	10.43	1277790	COUNTDOWN_START	n/a	n/a	n/a	n/a	-999	11	[0, 0, 0]	n/a	catFR1	1	R1302M
1492.246	0.001	1288220	COUNTDOWN_END	n/a	n/a	n/a	n/a	-999	11	[0, 0, 0]	n/a	catFR1	1	R1302M
1492.247	1.088	1288221	ORIENT_START	n/a	n/a	n/a	n/a	-999	11	[0, 0, 0]	n/a	catFR1	1	R1302M
1493.335	0.001	1289309	ORIENT_END	n/a	n/a	n/a	n/a	-999	11	[0, 0, 0]	n/a	catFR1	1	R1302M
1493.336	0.762	1289310	ENCODING_START	n/a	n/a	n/a	n/a	-999	11	[0, 0, 0]	n/a	catFR1	1	R1302M
1494.098	1.637	1290071	WORD	n/a	wordpools/wordpool_categorized_EN.txt	FINCH	Birds	1	11	[0, 0, 0]	n/a	catFR1	1	R1302M
1495.735	1.111	1291708	WORD_OFF	n/a	n/a	FINCH	Birds	1	11	[0, 0, 0]	n/a	catFR1	1	R1302M
1496.846	1.623	1292819	WORD	n/a	wordpools/wordpool_categorized_EN.txt	HAWK	Birds	2	11	[0, 0, 0]	n/a	catFR1	1	R1302M
1498.469	0.882	1294442	WORD_OFF	n/a	n/a	HAWK	Birds	2	11	[0, 0, 0]	n/a	catFR1	1	R1302M
1499.351	1.634	1295324	WORD	n/a	wordpools/wordpool_categorized_EN.txt	COLANDER	KitchenTools	3	11	[0, 0, 0]	n/a	catFR1	1	R1302M
1500.985	0.889	1296958	WORD_OFF	n/a	n/a	COLANDER	KitchenTools	3	11	[0, 0, 0]	n/a	catFR1	1	R1302M
1501.874	1.612	1297847	WORD	n/a	wordpools/wordpool_categorized_EN.txt	KNIFE	KitchenTools	4	11	[0, 0, 0]	n/a	catFR1	1	R1302M
1503.486	0.825	1299459	WORD_OFF	n/a	n/a	KNIFE	KitchenTools	4	11	[0, 0, 0]	n/a	catFR1	1	R1302M
1504.311	1.625	1300284	WORD	n/a	wordpools/wordpool_categorized_EN.txt	VALLEY	Landscapes	5	11	[0, 0, 0]	n/a	catFR1	1	R1302M
1505.936	0.847	1301909	WORD_OFF	n/a	n/a	VALLEY	Landscapes	5	11	[0, 0, 0]	n/a	catFR1	1	R1302M
1506.783	1.621	1302756	WORD	n/a	wordpools/wordpool_categorized_EN.txt	RIVER	Landscapes	6	11	[0, 0, 0]	n/a	catFR1	1	R1302M
1508.404	0.885	1304377	WORD_OFF	n/a	n/a	RIVER	Landscapes	6	11	[0, 0, 0]	n/a	catFR1	1	R1302M
1509.289	1.631	1305262	WORD	n/a	wordpools/wordpool_categorized_EN.txt	PEELER	KitchenTools	7	11	[0, 0, 0]	n/a	catFR1	1	R1302M
1510.92	0.892	1306893	WORD_OFF	n/a	n/a	PEELER	KitchenTools	7	11	[0, 0, 0]	n/a	catFR1	1	R1302M
1511.812	1.627	1307785	WORD	n/a	wordpools/wordpool_categorized_EN.txt	CORKSCREW	KitchenTools	8	11	[0, 0, 0]	n/a	catFR1	1	R1302M
1513.439	0.984	1309412	WORD_OFF	n/a	n/a	CORKSCREW	KitchenTools	8	11	[0, 0, 0]	n/a	catFR1	1	R1302M
1514.423	1.633	1310396	WORD	n/a	wordpools/wordpool_categorized_EN.txt	WOODS	Landscapes	9	11	[0, 0, 0]	n/a	catFR1	1	R1302M
1516.056	1.124	1312028	WORD_OFF	n/a	n/a	WOODS	Landscapes	9	11	[0, 0, 0]	n/a	catFR1	1	R1302M
1517.18	1.625	1313152	WORD	n/a	wordpools/wordpool_categorized_EN.txt	BEACH	Landscapes	10	11	[0, 0, 0]	n/a	catFR1	1	R1302M
1518.805	0.785	1314777	WORD_OFF	n/a	n/a	BEACH	Landscapes	10	11	[0, 0, 0]	n/a	catFR1	1	R1302M
1519.59	1.633	1315562	WORD	n/a	wordpools/wordpool_categorized_EN.txt	PIGEON	Birds	11	11	[0, 0, 0]	n/a	catFR1	1	R1302M
1521.223	0.991	1317195	WORD_OFF	n/a	n/a	PIGEON	Birds	11	11	[0, 0, 0]	n/a	catFR1	1	R1302M
1522.214	1.626	1318186	WORD	n/a	wordpools/wordpool_categorized_EN.txt	ROBIN	Birds	12	11	[0, 0, 0]	n/a	catFR1	1	R1302M
1523.84	0.0	1319812	WORD_OFF	n/a	n/a	ROBIN	Birds	12	11	[0, 0, 0]	n/a	catFR1	1	R1302M
1523.84	0.001	1319812	ENCODING_END	n/a	n/a	n/a	n/a	-999	11	[0, 0, 0]	n/a	catFR1	1	R1302M
1523.841	0.001	1319813	DISTRACT_START	n/a	n/a	n/a	n/a	-999	11	[0, 0, 0]	n/a	catFR1	1	R1302M
1523.842	0.014	1319814	START	n/a	n/a	n/a	n/a	-999	11	[-999, -999, -999]	n/a	catFR1	1	R1302M
1523.856	8.719	1319828	PROB	8.719	n/a	n/a	n/a	-999	11	[3, 7, 3]	13	catFR1	1	R1302M
1532.575	3.834	1328547	PROB	3.834	n/a	n/a	n/a	-999	11	[2, 7, 1]	10	catFR1	1	R1302M
1536.409	3.483	1332381	PROB	3.483	n/a	n/a	n/a	-999	11	[6, 4, 2]	12	catFR1	1	R1302M
1539.892	5.812	1335863	PROB	5.812	n/a	n/a	n/a	-999	11	[3, 3, 1]	7	catFR1	1	R1302M
1545.704	0.007	1341675	STOP	n/a	n/a	n/a	n/a	-999	11	[-999, -999, -999]	n/a	catFR1	1	R1302M
1545.711	0.68	1341682	DISTRACT_END	n/a	n/a	n/a	n/a	-999	11	[0, 0, 0]	n/a	catFR1	1	R1302M
1546.391	1.62	1342362	RETRIEVAL_ORIENT_START	n/a	n/a	n/a	n/a	-999	11	[0, 0, 0]	n/a	catFR1	1	R1302M
1548.011	0.001	1343982	RETRIEVAL_ORIENT_END	n/a	n/a	n/a	n/a	-999	11	[0, 0, 0]	n/a	catFR1	1	R1302M
1548.012	1.912	1343983	REC_START	n/a	n/a	n/a	n/a	-999	11	[0, 0, 0]	n/a	catFR1	1	R1302M
1549.924	0.361	1345895	REC_WORD	0.361	n/a	MILK	Beverages	-999	11	[0, 0, 0]	n/a	catFR1	1	R1302M
1550.285	0.274	1346256	REC_WORD	0.274	n/a	TEA	Beverages	-999	11	[0, 0, 0]	n/a	catFR1	1	R1302M
1550.559	0.477	1346530	REC_WORD	0.477	n/a	TABLET	Electronics	-999	11	[0, 0, 0]	n/a	catFR1	1	R1302M
1551.036	4.278	1347007	REC_WORD	4.278	n/a	SPATULA	KitchenTools	-999	11	[0, 0, 0]	n/a	catFR1	1	R1302M
1555.314	10.188	1351285	REC_WORD	10.188	n/a	CORKSCREW	KitchenTools	8	11	[0, 0, 0]	n/a	catFR1	1	R1302M
1565.502	12.521	1361472	REC_WORD	12.521	n/a	CORKSCREW	KitchenTools	8	11	[0, 0, 0]	n/a	catFR1	1	R1302M
1578.023	0.001	1373993	REC_END	n/a	n/a	n/a	n/a	-999	11	[0, 0, 0]	n/a	catFR1	1	R1302M
1578.024	0.021	1373994	TRIAL_END	n/a	n/a	n/a	n/a	-999	11	[0, 0, 0]	n/a	catFR1	1	R1302M
1578.045	0.001	1374015	TRIAL_START	n/a	n/a	n/a	n/a	-999	12	[0, 0, 0]	n/a	catFR1	1	R1302M
1578.046	0.0	1374016	TRIAL	n/a	n/a	n/a	n/a	-999	12	[0, 0, 0]	n/a	catFR1	1	R1302M
1578.046	4.273	1374016	WAITING_START	n/a	n/a	n/a	n/a	-999	12	[0, 0, 0]	n/a	catFR1	1	R1302M
1582.319	0.0	1378289	WAITING_END	n/a	n/a	n/a	n/a	-999	12	[0, 0, 0]	n/a	catFR1	1	R1302M
1582.319	10.43	1378289	COUNTDOWN_START	n/a	n/a	n/a	n/a	-999	12	[0, 0, 0]	n/a	catFR1	1	R1302M
1592.749	0.001	1388718	COUNTDOWN_END	n/a	n/a	n/a	n/a	-999	12	[0, 0, 0]	n/a	catFR1	1	R1302M
1592.75	1.12	1388719	ORIENT_START	n/a	n/a	n/a	n/a	-999	12	[0, 0, 0]	n/a	catFR1	1	R1302M
1593.87	0.001	1389839	ORIENT_END	n/a	n/a	n/a	n/a	-999	12	[0, 0, 0]	n/a	catFR1	1	R1302M
1593.871	1.041	1389840	ENCODING_START	n/a	n/a	n/a	n/a	-999	12	[0, 0, 0]	n/a	catFR1	1	R1302M
1594.912	1.626	1390881	WORD	n/a	wordpools/wordpool_categorized_EN.txt	HALLWAY	Building	1	12	[0, 0, 0]	n/a	catFR1	1	R1302M
1596.538	0.861	1392507	WORD_OFF	n/a	n/a	HALLWAY	Building	1	12	[0, 0, 0]	n/a	catFR1	1	R1302M
1597.399	1.622	1393368	WORD	n/a	wordpools/wordpool_categorized_EN.txt	WALL	Building	2	12	[0, 0, 0]	n/a	catFR1	1	R1302M
1599.021	0.835	1394990	WORD_OFF	n/a	n/a	WALL	Building	2	12	[0, 0, 0]	n/a	catFR1	1	R1302M
1599.856	1.633	1395825	WORD	n/a	wordpools/wordpool_categorized_EN.txt	ISLAND	Landscapes	3	12	[0, 0, 0]	n/a	catFR1	1	R1302M
1601.489	0.777	1397458	WORD_OFF	n/a	n/a	ISLAND	Landscapes	3	12	[0, 0, 0]	n/a	catFR1	1	R1302M
1602.266	1.639	1398235	WORD	n/a	wordpools/wordpool_categorized_EN.txt	MOUNTAIN	Landscapes	4	12	[0, 0, 0]	n/a	catFR1	1	R1302M
1603.905	0.787	1399874	WORD_OFF	n/a	n/a	MOUNTAIN	Landscapes	4	12	[0, 0, 0]	n/a	catFR1	1	R1302M
1604.692	1.631	1400661	WORD	n/a	wordpools/wordpool_categorized_EN.txt	LOBSTER	OceanAnimals	5	12	[0, 0, 0]	n/a	catFR1	1	R1302M
1606.323	0.879	1402291	WORD_OFF	n/a	n/a	LOBSTER	OceanAnimals	5	12	[0, 0, 0]	n/a	catFR1	1	R1302M
1607.202	1.621	1403170	WORD	n/a	wordpools/wordpool_categorized_EN.txt	CRAB	OceanAnimals	6	12	[0, 0, 0]	n/a	catFR1	1	R1302M
1608.823	1.137	1404791	WORD_OFF	n/a	n/a	CRAB	OceanAnimals	6	12	[0, 0, 0]	n/a	catFR1	1	R1302M
1609.96	1.631	1405928	WORD	n/a	wordpools/wordpool_categorized_EN.txt	BATHROOM	Building	7	12	[0, 0, 0]	n/a	catFR1	1	R1302M
1611.591	0.995	1407559	WORD_OFF	n/a	n/a	BATHROOM	Building	7	12	[0, 0, 0]	n/a	catFR1	1	R1302M
1612.586	1.622	1408554	WORD	n/a	wordpools/wordpool_categorized_EN.txt	STAIRS	Building	8	12	[0, 0, 0]	n/a	catFR1	1	R1302M
1614.208	1.149	1410176	WORD_OFF	n/a	n/a	STAIRS	Building	8	12	[0, 0, 0]	n/a	catFR1	1	R1302M
1615.357	1.634	1411325	WORD	n/a	wordpools/wordpool_categorized_EN.txt	OCEAN	Landscapes	9	12	[0, 0, 0]	n/a	catFR1	1	R1302M
1616.991	0.927	1412959	WORD_OFF	n/a	n/a	OCEAN	Landscapes	9	12	[0, 0, 0]	n/a	catFR1	1	R1302M
1617.918	1.608	1413886	WORD	n/a	wordpools/wordpool_categorized_EN.txt	LAKE	Landscapes	10	12	[0, 0, 0]	n/a	catFR1	1	R1302M
1619.526	1.043	1415494	WORD_OFF	n/a	n/a	LAKE	Landscapes	10	12	[0, 0, 0]	n/a	catFR1	1	R1302M
1620.569	1.624	1416537	WORD	n/a	wordpools/wordpool_categorized_EN.txt	SQUID	OceanAnimals	11	12	[0, 0, 0]	n/a	catFR1	1	R1302M
1622.193	0.963	1418161	WORD_OFF	n/a	n/a	SQUID	OceanAnimals	11	12	[0, 0, 0]	n/a	catFR1	1	R1302M
1623.156	1.636	1419124	WORD	n/a	wordpools/wordpool_categorized_EN.txt	JELLYFISH	OceanAnimals	12	12	[0, 0, 0]	n/a	catFR1	1	R1302M
1624.792	0.001	1420760	WORD_OFF	n/a	n/a	JELLYFISH	OceanAnimals	12	12	[0, 0, 0]	n/a	catFR1	1	R1302M
1624.793	0.001	1420761	ENCODING_END	n/a	n/a	n/a	n/a	-999	12	[0, 0, 0]	n/a	catFR1	1	R1302M
1624.794	0.001	1420762	DISTRACT_START	n/a	n/a	n/a	n/a	-999	12	[0, 0, 0]	n/a	catFR1	1	R1302M
1624.795	0.014	1420763	START	n/a	n/a	n/a	n/a	-999	12	[-999, -999, -999]	n/a	catFR1	1	R1302M
1624.809	7.001	1420777	PROB	7.001	n/a	n/a	n/a	-999	12	[2, 1, 2]	5	catFR1	1	R1302M
1631.81	5.619	1427777	PROB	5.619	n/a	n/a	n/a	-999	12	[7, 3, 8]	18	catFR1	1	R1302M
1637.429	6.417	1433396	PROB	6.417	n/a	n/a	n/a	-999	12	[3, 8, 2]	13	catFR1	1	R1302M
1643.846	4.523	1439813	PROB	4.523	n/a	n/a	n/a	-999	12	[6, 7, 9]	23	catFR1	1	R1302M
1648.369	0.012	1444336	STOP	n/a	n/a	n/a	n/a	-999	12	[-999, -999, -999]	n/a	catFR1	1	R1302M
1648.381	0.523	1444348	DISTRACT_END	n/a	n/a	n/a	n/a	-999	12	[0, 0, 0]	n/a	catFR1	1	R1302M
1648.904	1.728	1444871	RETRIEVAL_ORIENT_START	n/a	n/a	n/a	n/a	-999	12	[0, 0, 0]	n/a	catFR1	1	R1302M
1650.632	0.001	1446598	RETRIEVAL_ORIENT_END	n/a	n/a	n/a	n/a	-999	12	[0, 0, 0]	n/a	catFR1	1	R1302M
1650.633	1.733	1446599	REC_START	n/a	n/a	n/a	n/a	-999	12	[0, 0, 0]	n/a	catFR1	1	R1302M
1652.366	0.762	1448332	REC_WORD	0.762	n/a	HALLWAY	Building	1	12	[0, 0, 0]	n/a	catFR1	1	R1302M
1653.128	0.241	1449094	REC_WORD	0.241	n/a	WALL	Building	2	12	[0, 0, 0]	n/a	catFR1	1	R1302M
1653.369	0.763	1449335	REC_WORD	0.763	n/a	ISLAND	Landscapes	3	12	[0, 0, 0]	n/a	catFR1	1	R1302M
1654.132	6.092	1450098	REC_WORD	6.092	n/a	MOUNTAIN	Landscapes	4	12	[0, 0, 0]	n/a	catFR1	1	R1302M
1660.224	8.789	1456190	REC_WORD	8.789	n/a	CORKSCREW	KitchenTools	-999	12	[0, 0, 0]	n/a	catFR1	1	R1302M
1669.013	1.083	1464979	REC_WORD	1.083	n/a	TABLET	Electronics	-999	12	[0, 0, 0]	n/a	catFR1	1	R1302M
1670.096	10.547	1466062	REC_WORD	10.547	n/a	SPATULA	KitchenTools	-999	12	[0, 0, 0]	n/a	catFR1	1	R1302M
1680.643	0.001	1476608	REC_END	n/a	n/a	n/a	n/a	-999	12	[0, 0, 0]	n/a	catFR1	1	R1302M
1680.644	0.021	1476609	TRIAL_END	n/a	n/a	n/a	n/a	-999	12	[0, 0, 0]	n/a	catFR1	1	R1302M
1680.665	0.001	1476630	TRIAL_START	n/a	n/a	n/a	n/a	-999	13	[0, 0, 0]	n/a	catFR1	1	R1302M
1680.666	0.0	1476631	TRIAL	n/a	n/a	n/a	n/a	-999	13	[0, 0, 0]	n/a	catFR1	1	R1302M
1680.666	4.872	1476631	WAITING_START	n/a	n/a	n/a	n/a	-999	13	[0, 0, 0]	n/a	catFR1	1	R1302M
1685.538	0.001	1481503	WAITING_END	n/a	n/a	n/a	n/a	-999	13	[0, 0, 0]	n/a	catFR1	1	R1302M
1685.539	10.43	1481504	COUNTDOWN_START	n/a	n/a	n/a	n/a	-999	13	[0, 0, 0]	n/a	catFR1	1	R1302M
1695.969	0.001	1491933	COUNTDOWN_END	n/a	n/a	n/a	n/a	-999	13	[0, 0, 0]	n/a	catFR1	1	R1302M
1695.97	1.02	1491934	ORIENT_START	n/a	n/a	n/a	n/a	-999	13	[0, 0, 0]	n/a	catFR1	1	R1302M
1696.99	0.0	1492954	ORIENT_END	n/a	n/a	n/a	n/a	-999	13	[0, 0, 0]	n/a	catFR1	1	R1302M
1696.99	0.863	1492954	ENCODING_START	n/a	n/a	n/a	n/a	-999	13	[0, 0, 0]	n/a	catFR1	1	R1302M
1697.853	1.638	1493817	WORD	n/a	wordpools/wordpool_categorized_EN.txt	FINGERS	BodyParts	1	13	[0, 0, 0]	n/a	catFR1	1	R1302M
1699.491	0.882	1495455	WORD_OFF	n/a	n/a	FINGERS	BodyParts	1	13	[0, 0, 0]	n/a	catFR1	1	R1302M
1700.373	1.634	1496337	WORD	n/a	wordpools/wordpool_categorized_EN.txt	KNEE	BodyParts	2	13	[0, 0, 0]	n/a	catFR1	1	R1302M
1702.007	1.109	1497971	WORD_OFF	n/a	n/a	KNEE	BodyParts	2	13	[0, 0, 0]	n/a	catFR1	1	R1302M
1703.116	1.626	1499080	WORD	n/a	wordpools/wordpool_categorized_EN.txt	PLIERS	Tools	3	13	[0, 0, 0]	n/a	catFR1	1	R1302M
1704.742	1.144	1500706	WORD_OFF	n/a	n/a	PLIERS	Tools	3	13	[0, 0, 0]	n/a	catFR1	1	R1302M
1705.886	1.623	1501850	WORD	n/a	wordpools/wordpool_categorized_EN.txt	SHOVEL	Tools	4	13	[0, 0, 0]	n/a	catFR1	1	R1302M
1707.509	1.067	1503473	WORD_OFF	n/a	n/a	SHOVEL	Tools	4	13	[0, 0, 0]	n/a	catFR1	1	R1302M
1708.576	1.634	1504540	WORD	n/a	wordpools/wordpool_categorized_EN.txt	JEEP	Vehicles	5	13	[0, 0, 0]	n/a	catFR1	1	R1302M
1710.21	0.76	1506174	WORD_OFF	n/a	n/a	JEEP	Vehicles	5	13	[0, 0, 0]	n/a	catFR1	1	R1302M
1710.97	1.607	1506934	WORD	n/a	wordpools/wordpool_categorized_EN.txt	VAN	Vehicles	6	13	[0, 0, 0]	n/a	catFR1	1	R1302M
1712.577	1.127	1508541	WORD_OFF	n/a	n/a	VAN	Vehicles	6	13	[0, 0, 0]	n/a	catFR1	1	R1302M
1713.704	1.623	1509668	WORD	n/a	wordpools/wordpool_categorized_EN.txt	FOOT	BodyParts	7	13	[0, 0, 0]	n/a	catFR1	1	R1302M
1715.327	1.125	1511291	WORD_OFF	n/a	n/a	FOOT	BodyParts	7	13	[0, 0, 0]	n/a	catFR1	1	R1302M
1716.452	1.626	1512416	WORD	n/a	wordpools/wordpool_categorized_EN.txt	HEAD	BodyParts	8	13	[0, 0, 0]	n/a	catFR1	1	R1302M
1718.078	0.845	1514041	WORD_OFF	n/a	n/a	HEAD	BodyParts	8	13	[0, 0, 0]	n/a	catFR1	1	R1302M
1718.923	1.639	1514886	WORD	n/a	wordpools/wordpool_categorized_EN.txt	BOAT	Vehicles	9	13	[0, 0, 0]	n/a	catFR1	1	R1302M
1720.562	1.074	1516525	WORD_OFF	n/a	n/a	BOAT	Vehicles	9	13	[0, 0, 0]	n/a	catFR1	1	R1302M
1721.636	1.626	1517599	WORD	n/a	wordpools/wordpool_categorized_EN.txt	BUS	Vehicles	10	13	[0, 0, 0]	n/a	catFR1	1	R1302M
1723.262	0.959	1519225	WORD_OFF	n/a	n/a	BUS	Vehicles	10	13	[0, 0, 0]	n/a	catFR1	1	R1302M
1724.221	1.624	1520184	WORD	n/a	wordpools/wordpool_categorized_EN.txt	CROWBAR	Tools	11	13	[0, 0, 0]	n/a	catFR1	1	R1302M
1725.845	0.975	1521808	WORD_OFF	n/a	n/a	CROWBAR	Tools	11	13	[0, 0, 0]	n/a	catFR1	1	R1302M
1726.82	1.61	1522783	WORD	n/a	wordpools/wordpool_categorized_EN.txt	SAW	Tools	12	13	[0, 0, 0]	n/a	catFR1	1	R1302M
1728.43	0.001	1524393	WORD_OFF	n/a	n/a	SAW	Tools	12	13	[0, 0, 0]	n/a	catFR1	1	R1302M
1728.431	0.001	1524394	ENCODING_END	n/a	n/a	n/a	n/a	-999	13	[0, 0, 0]	n/a	catFR1	1	R1302M
1728.432	0.001	1524395	DISTRACT_START	n/a	n/a	n/a	n/a	-999	13	[0, 0, 0]	n/a	catFR1	1	R1302M
1728.433	0.013	1524396	START	n/a	n/a	n/a	n/a	-999	13	[-999, -999, -999]	n/a	catFR1	1	R1302M
1728.446	9.852	1524409	PROB	9.852	n/a	n/a	n/a	-999	13	[7, 4, 2]	13	catFR1	1	R1302M
1738.298	5.468	1534261	PROB	5.468	n/a	n/a	n/a	-999	13	[4, 7, 1]	12	catFR1	1	R1302M
1743.766	5.936	1539728	PROB	5.936	n/a	n/a	n/a	-999	13	[5, 2, 4]	11	catFR1	1	R1302M
1749.702	0.015	1545664	STOP	n/a	n/a	n/a	n/a	-999	13	[-999, -999, -999]	n/a	catFR1	1	R1302M
1749.717	0.691	1545679	DISTRACT_END	n/a	n/a	n/a	n/a	-999	13	[0, 0, 0]	n/a	catFR1	1	R1302M
1750.408	1.609	1546370	RETRIEVAL_ORIENT_START	n/a	n/a	n/a	n/a	-999	13	[0, 0, 0]	n/a	catFR1	1	R1302M
1752.017	0.001	1547979	RETRIEVAL_ORIENT_END	n/a	n/a	n/a	n/a	-999	13	[0, 0, 0]	n/a	catFR1	1	R1302M
1752.018	1.842	1547980	REC_START	n/a	n/a	n/a	n/a	-999	13	[0, 0, 0]	n/a	catFR1	1	R1302M
1753.86	2.071	1549822	REC_WORD	2.071	n/a	FINGERS	BodyParts	1	13	[0, 0, 0]	n/a	catFR1	1	R1302M
1755.931	0.603	1551893	REC_WORD	0.603	n/a	KEY	n/a	-999	13	[0, 0, 0]	n/a	catFR1	1	R1302M
1756.534	4.781	1552496	REC_WORD	4.781	n/a	PLIERS	Tools	3	13	[0, 0, 0]	n/a	catFR1	1	R1302M
1761.315	1.29	1557277	REC_WORD	1.29	n/a	CORKSCREW	KitchenTools	-999	13	[0, 0, 0]	n/a	catFR1	1	R1302M
1762.605	11.03	1558566	REC_WORD	11.03	n/a	CABINET	n/a	-999	13	[0, 0, 0]	n/a	catFR1	1	R1302M
1773.635	8.394	1569596	REC_WORD	8.394	n/a	CORKSCREW	KitchenTools	-999	13	[0, 0, 0]	n/a	catFR1	1	R1302M
1782.029	0.001	1577990	REC_END	n/a	n/a	n/a	n/a	-999	13	[0, 0, 0]	n/a	catFR1	1	R1302M
1782.03	0.021	1577991	TRIAL_END	n/a	n/a	n/a	n/a	-999	13	[0, 0, 0]	n/a	catFR1	1	R1302M
1782.051	0.0	1578012	TRIAL_START	n/a	n/a	n/a	n/a	-999	14	[0, 0, 0]	n/a	catFR1	1	R1302M
1782.051	0.001	1578012	TRIAL	n/a	n/a	n/a	n/a	-999	14	[0, 0, 0]	n/a	catFR1	1	R1302M
1782.052	3.106	1578013	WAITING_START	n/a	n/a	n/a	n/a	-999	14	[0, 0, 0]	n/a	catFR1	1	R1302M
1785.158	0.0	1581118	WAITING_END	n/a	n/a	n/a	n/a	-999	14	[0, 0, 0]	n/a	catFR1	1	R1302M
1785.158	10.429	1581118	COUNTDOWN_START	n/a	n/a	n/a	n/a	-999	14	[0, 0, 0]	n/a	catFR1	1	R1302M
1795.587	0.001	1591547	COUNTDOWN_END	n/a	n/a	n/a	n/a	-999	14	[0, 0, 0]	n/a	catFR1	1	R1302M
1795.588	1.204	1591548	ORIENT_START	n/a	n/a	n/a	n/a	-999	14	[0, 0, 0]	n/a	catFR1	1	R1302M
1796.792	0.001	1592752	ORIENT_END	n/a	n/a	n/a	n/a	-999	14	[0, 0, 0]	n/a	catFR1	1	R1302M
1796.793	0.764	1592753	ENCODING_START	n/a	n/a	n/a	n/a	-999	14	[0, 0, 0]	n/a	catFR1	1	R1302M
1797.557	1.637	1593517	WORD	n/a	wordpools/wordpool_categorized_EN.txt	JUICE	Beverages	1	14	[0, 0, 0]	n/a	catFR1	1	R1302M
1799.194	1.077	1595154	WORD_OFF	n/a	n/a	JUICE	Beverages	1	14	[0, 0, 0]	n/a	catFR1	1	R1302M
1800.271	1.622	1596231	WORD	n/a	wordpools/wordpool_categorized_EN.txt	COLA	Beverages	2	14	[0, 0, 0]	n/a	catFR1	1	R1302M
1801.893	1.033	1597853	WORD_OFF	n/a	n/a	COLA	Beverages	2	14	[0, 0, 0]	n/a	catFR1	1	R1302M
1802.926	1.618	1598886	WORD	n/a	wordpools/wordpool_categorized_EN.txt	PEACH	Fruit	3	14	[0, 0, 0]	n/a	catFR1	1	R1302M
1804.544	0.853	1600504	WORD_OFF	n/a	n/a	PEACH	Fruit	3	14	[0, 0, 0]	n/a	catFR1	1	R1302M
1805.397	1.631	1601357	WORD	n/a	wordpools/wordpool_categorized_EN.txt	LIME	Fruit	4	14	[0, 0, 0]	n/a	catFR1	1	R1302M
1807.028	0.873	1602987	WORD_OFF	n/a	n/a	LIME	Fruit	4	14	[0, 0, 0]	n/a	catFR1	1	R1302M
1807.901	1.628	1603860	WORD	n/a	wordpools/wordpool_categorized_EN.txt	MOPED	Vehicles	5	14	[0, 0, 0]	n/a	catFR1	1	R1302M
1809.529	0.771	1605488	WORD_OFF	n/a	n/a	MOPED	Vehicles	5	14	[0, 0, 0]	n/a	catFR1	1	R1302M
1810.3	1.628	1606259	WORD	n/a	wordpools/wordpool_categorized_EN.txt	SCOOTER	Vehicles	6	14	[0, 0, 0]	n/a	catFR1	1	R1302M
1811.928	1.061	1607887	WORD_OFF	n/a	n/a	SCOOTER	Vehicles	6	14	[0, 0, 0]	n/a	catFR1	1	R1302M
1812.989	1.624	1608948	WORD	n/a	wordpools/wordpool_categorized_EN.txt	RUM	Beverages	7	14	[0, 0, 0]	n/a	catFR1	1	R1302M
1814.613	0.823	1610572	WORD_OFF	n/a	n/a	RUM	Beverages	7	14	[0, 0, 0]	n/a	catFR1	1	R1302M
1815.436	1.628	1611395	WORD	n/a	wordpools/wordpool_categorized_EN.txt	SODA	Beverages	8	14	[0, 0, 0]	n/a	catFR1	1	R1302M
1817.064	1.038	1613023	WORD_OFF	n/a	n/a	SODA	Beverages	8	14	[0, 0, 0]	n/a	catFR1	1	R1302M
1818.102	1.629	1614061	WORD	n/a	wordpools/wordpool_categorized_EN.txt	TRAIN	Vehicles	9	14	[0, 0, 0]	n/a	catFR1	1	R1302M
1819.731	0.799	1615690	WORD_OFF	n/a	n/a	TRAIN	Vehicles	9	14	[0, 0, 0]	n/a	catFR1	1	R1302M
1820.53	1.635	1616489	WORD	n/a	wordpools/wordpool_categorized_EN.txt	BIKE	Vehicles	10	14	[0, 0, 0]	n/a	catFR1	1	R1302M
1822.165	0.911	1618124	WORD_OFF	n/a	n/a	BIKE	Vehicles	10	14	[0, 0, 0]	n/a	catFR1	1	R1302M
1823.076	1.639	1619035	WORD	n/a	wordpools/wordpool_categorized_EN.txt	BLUEBERRY	Fruit	11	14	[0, 0, 0]	n/a	catFR1	1	R1302M
1824.715	0.891	1620674	WORD_OFF	n/a	n/a	BLUEBERRY	Fruit	11	14	[0, 0, 0]	n/a	catFR1	1	R1302M
1825.606	1.626	1621565	WORD	n/a	wordpools/wordpool_categorized_EN.txt	PLUM	Fruit	12	14	[0, 0, 0]	n/a	catFR1	1	R1302M
1827.232	0.001	1623191	WORD_OFF	n/a	n/a	PLUM	Fruit	12	14	[0, 0, 0]	n/a	catFR1	1	R1302M
1827.233	0.001	1623192	ENCODING_END	n/a	n/a	n/a	n/a	-999	14	[0, 0, 0]	n/a	catFR1	1	R1302M
1827.234	0.0	1623193	DISTRACT_START	n/a	n/a	n/a	n/a	-999	14	[0, 0, 0]	n/a	catFR1	1	R1302M
1827.234	0.015	1623193	START	n/a	n/a	n/a	n/a	-999	14	[-999, -999, -999]	n/a	catFR1	1	R1302M
1827.249	7.785	1623208	PROB	7.785	n/a	n/a	n/a	-999	14	[5, 9, 6]	20	catFR1	1	R1302M
1835.034	3.816	1630992	PROB	3.816	n/a	n/a	n/a	-999	14	[1, 9, 1]	11	catFR1	1	R1302M
1838.85	14.387	1634808	PROB	14.387	n/a	n/a	n/a	-999	14	[7, 7, 5]	19	catFR1	1	R1302M
1853.237	0.017	1649194	STOP	n/a	n/a	n/a	n/a	-999	14	[-999, -999, -999]	n/a	catFR1	1	R1302M
1853.254	0.546	1649211	DISTRACT_END	n/a	n/a	n/a	n/a	-999	14	[0, 0, 0]	n/a	catFR1	1	R1302M
1853.8	1.554	1649757	RETRIEVAL_ORIENT_START	n/a	n/a	n/a	n/a	-999	14	[0, 0, 0]	n/a	catFR1	1	R1302M
1855.354	0.001	1651311	RETRIEVAL_ORIENT_END	n/a	n/a	n/a	n/a	-999	14	[0, 0, 0]	n/a	catFR1	1	R1302M
1855.355	2.75	1651312	REC_START	n/a	n/a	n/a	n/a	-999	14	[0, 0, 0]	n/a	catFR1	1	R1302M
1858.105	1.003	1654062	REC_WORD	1.003	n/a	PLIERS	Tools	-999	14	[0, 0, 0]	n/a	catFR1	1	R1302M
1859.108	5.268	1655065	REC_WORD	5.268	n/a	CORKSCREW	KitchenTools	-999	14	[0, 0, 0]	n/a	catFR1	1	R1302M
1864.376	20.99	1660333	REC_WORD	20.99	n/a	CABINET	n/a	-999	14	[0, 0, 0]	n/a	catFR1	1	R1302M
1885.366	0.0	1681322	REC_END	n/a	n/a	n/a	n/a	-999	14	[0, 0, 0]	n/a	catFR1	1	R1302M
1885.366	0.025	1681322	TRIAL_END	n/a	n/a	n/a	n/a	-999	14	[0, 0, 0]	n/a	catFR1	1	R1302M
1885.391	0.001	1681347	TRIAL_START	n/a	n/a	n/a	n/a	-999	15	[0, 0, 0]	n/a	catFR1	1	R1302M
1885.392	0.0	1681348	TRIAL	n/a	n/a	n/a	n/a	-999	15	[0, 0, 0]	n/a	catFR1	1	R1302M
1885.392	2.302	1681348	WAITING_START	n/a	n/a	n/a	n/a	-999	15	[0, 0, 0]	n/a	catFR1	1	R1302M
1887.694	0.001	1683650	WAITING_END	n/a	n/a	n/a	n/a	-999	15	[0, 0, 0]	n/a	catFR1	1	R1302M
1887.695	10.429	1683651	COUNTDOWN_START	n/a	n/a	n/a	n/a	-999	15	[0, 0, 0]	n/a	catFR1	1	R1302M
1898.124	0.001	1694079	COUNTDOWN_END	n/a	n/a	n/a	n/a	-999	15	[0, 0, 0]	n/a	catFR1	1	R1302M
1898.125	1.105	1694080	ORIENT_START	n/a	n/a	n/a	n/a	-999	15	[0, 0, 0]	n/a	catFR1	1	R1302M
1899.23	0.001	1695185	ORIENT_END	n/a	n/a	n/a	n/a	-999	15	[0, 0, 0]	n/a	catFR1	1	R1302M
1899.231	0.788	1695186	ENCODING_START	n/a	n/a	n/a	n/a	-999	15	[0, 0, 0]	n/a	catFR1	1	R1302M
1900.019	1.628	1695974	WORD	n/a	wordpools/wordpool_categorized_EN.txt	APPLE	Fruit	1	15	[0, 0, 0]	n/a	catFR1	1	R1302M
1901.647	0.946	1697602	WORD_OFF	n/a	n/a	APPLE	Fruit	1	15	[0, 0, 0]	n/a	catFR1	1	R1302M
1902.593	1.638	1698548	WORD	n/a	wordpools/wordpool_categorized_EN.txt	CHERRY	Fruit	2	15	[0, 0, 0]	n/a	catFR1	1	R1302M
1904.231	0.806	1700186	WORD_OFF	n/a	n/a	CHERRY	Fruit	2	15	[0, 0, 0]	n/a	catFR1	1	R1302M
1905.037	1.627	1700992	WORD	n/a	wordpools/wordpool_categorized_EN.txt	CREEK	Landscapes	3	15	[0, 0, 0]	n/a	catFR1	1	R1302M
1906.664	0.755	1702619	WORD_OFF	n/a	n/a	CREEK	Landscapes	3	15	[0, 0, 0]	n/a	catFR1	1	R1302M
1907.419	1.629	1703374	WORD	n/a	wordpools/wordpool_categorized_EN.txt	STREAM	Landscapes	4	15	[0, 0, 0]	n/a	catFR1	1	R1302M
1909.048	1.01	1705003	WORD_OFF	n/a	n/a	STREAM	Landscapes	4	15	[0, 0, 0]	n/a	catFR1	1	R1302M
1910.058	1.641	1706013	WORD	n/a	wordpools/wordpool_categorized_EN.txt	MOTORCYCLE	Vehicles	5	15	[0, 0, 0]	n/a	catFR1	1	R1302M
1911.699	1.052	1707654	WORD_OFF	n/a	n/a	MOTORCYCLE	Vehicles	5	15	[0, 0, 0]	n/a	catFR1	1	R1302M
1912.751	1.631	1708706	WORD	n/a	wordpools/wordpool_categorized_EN.txt	CAR	Vehicles	6	15	[0, 0, 0]	n/a	catFR1	1	R1302M
1914.382	0.987	1710337	WORD_OFF	n/a	n/a	CAR	Vehicles	6	15	[0, 0, 0]	n/a	catFR1	1	R1302M
1915.369	1.63	1711324	WORD	n/a	wordpools/wordpool_categorized_EN.txt	HILLS	Landscapes	7	15	[0, 0, 0]	n/a	catFR1	1	R1302M
1916.999	0.777	1712954	WORD_OFF	n/a	n/a	HILLS	Landscapes	7	15	[0, 0, 0]	n/a	catFR1	1	R1302M
1917.776	1.624	1713731	WORD	n/a	wordpools/wordpool_categorized_EN.txt	FOREST	Landscapes	8	15	[0, 0, 0]	n/a	catFR1	1	R1302M
1919.4	0.758	1715354	WORD_OFF	n/a	n/a	FOREST	Landscapes	8	15	[0, 0, 0]	n/a	catFR1	1	R1302M
1920.158	1.625	1716112	WORD	n/a	wordpools/wordpool_categorized_EN.txt	LEMON	Fruit	9	15	[0, 0, 0]	n/a	catFR1	1	R1302M
1921.783	1.149	1717737	WORD_OFF	n/a	n/a	LEMON	Fruit	9	15	[0, 0, 0]	n/a	catFR1	1	R1302M
1922.932	1.619	1718886	WORD	n/a	wordpools/wordpool_categorized_EN.txt	GRAPE	Fruit	10	15	[0, 0, 0]	n/a	catFR1	1	R1302M
1924.551	0.893	1720505	WORD_OFF	n/a	n/a	GRAPE	Fruit	10	15	[0, 0, 0]	n/a	catFR1	1	R1302M
1925.444	1.624	1721398	WORD	n/a	wordpools/wordpool_categorized_EN.txt	PLANE	Vehicles	11	15	[0, 0, 0]	n/a	catFR1	1	R1302M
1927.068	0.828	1723022	WORD_OFF	n/a	n/a	PLANE	Vehicles	11	15	[0, 0, 0]	n/a	catFR1	1	R1302M
1927.896	1.639	1723850	WORD	n/a	wordpools/wordpool_categorized_EN.txt	TRUCK	Vehicles	12	15	[0, 0, 0]	n/a	catFR1	1	R1302M
1929.535	0.001	1725489	WORD_OFF	n/a	n/a	TRUCK	Vehicles	12	15	[0, 0, 0]	n/a	catFR1	1	R1302M
1929.536	0.001	1725490	ENCODING_END	n/a	n/a	n/a	n/a	-999	15	[0, 0, 0]	n/a	catFR1	1	R1302M
1929.537	0.0	1725491	DISTRACT_START	n/a	n/a	n/a	n/a	-999	15	[0, 0, 0]	n/a	catFR1	1	R1302M
1929.537	0.015	1725491	START	n/a	n/a	n/a	n/a	-999	15	[-999, -999, -999]	n/a	catFR1	1	R1302M
1929.552	6.101	1725506	PROB	6.101	n/a	n/a	n/a	-999	15	[3, 1, 1]	5	catFR1	1	R1302M
1935.653	4.734	1731607	PROB	4.734	n/a	n/a	n/a	-999	15	[9, 7, 1]	17	catFR1	1	R1302M
1940.387	5.218	1736340	PROB	5.218	n/a	n/a	n/a	-999	15	[6, 5, 3]	14	catFR1	1	R1302M
1945.605	3.767	1741558	PROB	3.767	n/a	n/a	n/a	-999	15	[1, 4, 6]	11	catFR1	1	R1302M
1949.372	2.211	1745325	PROB	2.211	n/a	n/a	n/a	-999	15	[6, 1, 6]	13	catFR1	1	R1302M
1951.583	0.007	1747536	STOP	n/a	n/a	n/a	n/a	-999	15	[-999, -999, -999]	n/a	catFR1	1	R1302M
1951.59	0.569	1747543	DISTRACT_END	n/a	n/a	n/a	n/a	-999	15	[0, 0, 0]	n/a	catFR1	1	R1302M
1952.159	1.713	1748112	RETRIEVAL_ORIENT_START	n/a	n/a	n/a	n/a	-999	15	[0, 0, 0]	n/a	catFR1	1	R1302M
1953.872	0.001	1749825	RETRIEVAL_ORIENT_END	n/a	n/a	n/a	n/a	-999	15	[0, 0, 0]	n/a	catFR1	1	R1302M
1953.873	1.266	1749826	REC_START	n/a	n/a	n/a	n/a	-999	15	[0, 0, 0]	n/a	catFR1	1	R1302M
1955.139	1.332	1751092	REC_WORD	1.332	n/a	LEMON	Fruit	9	15	[0, 0, 0]	n/a	catFR1	1	R1302M
1956.471	0.716	1752424	REC_WORD	0.716	n/a	GRAPE	Fruit	10	15	[0, 0, 0]	n/a	catFR1	1	R1302M
1957.187	3.327	1753140	REC_WORD	3.327	n/a	PLANE	Vehicles	11	15	[0, 0, 0]	n/a	catFR1	1	R1302M
1960.514	4.632	1756467	REC_WORD	4.632	n/a	SCREW	n/a	-999	15	[0, 0, 0]	n/a	catFR1	1	R1302M
1965.146	6.834	1761098	REC_WORD	6.834	n/a	CHERRY	Fruit	2	15	[0, 0, 0]	n/a	catFR1	1	R1302M
1971.98	7.842	1767932	REC_WORD	7.842	n/a	CORKSCREW	KitchenTools	-999	15	[0, 0, 0]	n/a	catFR1	1	R1302M
1979.822	4.063	1775774	REC_WORD	4.063	n/a	PLANE	Vehicles	11	15	[0, 0, 0]	n/a	catFR1	1	R1302M
1983.885	0.001	1779837	REC_END	n/a	n/a	n/a	n/a	-999	15	[0, 0, 0]	n/a	catFR1	1	R1302M
1983.886	0.021	1779838	TRIAL_END	n/a	n/a	n/a	n/a	-999	15	[0, 0, 0]	n/a	catFR1	1	R1302M
1983.907	0.0	1779859	TRIAL_START	n/a	n/a	n/a	n/a	-999	16	[0, 0, 0]	n/a	catFR1	1	R1302M
1983.907	0.001	1779859	TRIAL	n/a	n/a	n/a	n/a	-999	16	[0, 0, 0]	n/a	catFR1	1	R1302M
1983.908	2.188	1779860	WAITING_START	n/a	n/a	n/a	n/a	-999	16	[0, 0, 0]	n/a	catFR1	1	R1302M
1986.096	0.001	1782047	WAITING_END	n/a	n/a	n/a	n/a	-999	16	[0, 0, 0]	n/a	catFR1	1	R1302M
1986.097	10.43	1782048	COUNTDOWN_START	n/a	n/a	n/a	n/a	-999	16	[0, 0, 0]	n/a	catFR1	1	R1302M
1996.527	0.001	1792478	COUNTDOWN_END	n/a	n/a	n/a	n/a	-999	16	[0, 0, 0]	n/a	catFR1	1	R1302M
1996.528	1.22	1792479	ORIENT_START	n/a	n/a	n/a	n/a	-999	16	[0, 0, 0]	n/a	catFR1	1	R1302M
1997.748	0.002	1793699	ORIENT_END	n/a	n/a	n/a	n/a	-999	16	[0, 0, 0]	n/a	catFR1	1	R1302M
1997.75	0.94	1793701	ENCODING_START	n/a	n/a	n/a	n/a	-999	16	[0, 0, 0]	n/a	catFR1	1	R1302M
1998.69	1.626	1794641	WORD	n/a	wordpools/wordpool_categorized_EN.txt	MOSQUITO	Insects	1	16	[0, 0, 0]	n/a	catFR1	1	R1302M
2000.316	0.788	1796267	WORD_OFF	n/a	n/a	MOSQUITO	Insects	1	16	[0, 0, 0]	n/a	catFR1	1	R1302M
2001.104	1.629	1797055	WORD	n/a	wordpools/wordpool_categorized_EN.txt	ROACH	Insects	2	16	[0, 0, 0]	n/a	catFR1	1	R1302M
2002.733	0.856	1798684	WORD_OFF	n/a	n/a	ROACH	Insects	2	16	[0, 0, 0]	n/a	catFR1	1	R1302M
2003.589	1.628	1799540	WORD	n/a	wordpools/wordpool_categorized_EN.txt	BASKETBALL	Toys	3	16	[0, 0, 0]	n/a	catFR1	1	R1302M
2005.217	0.831	1801168	WORD_OFF	n/a	n/a	BASKETBALL	Toys	3	16	[0, 0, 0]	n/a	catFR1	1	R1302M
2006.048	1.636	1801999	WORD	n/a	wordpools/wordpool_categorized_EN.txt	DOLLHOUSE	Toys	4	16	[0, 0, 0]	n/a	catFR1	1	R1302M
2007.684	1.016	1803634	WORD_OFF	n/a	n/a	DOLLHOUSE	Toys	4	16	[0, 0, 0]	n/a	catFR1	1	R1302M
2008.7	1.634	1804650	WORD	n/a	wordpools/wordpool_categorized_EN.txt	BROCCOLI	Vegetables	5	16	[0, 0, 0]	n/a	catFR1	1	R1302M
2010.334	0.933	1806284	WORD_OFF	n/a	n/a	BROCCOLI	Vegetables	5	16	[0, 0, 0]	n/a	catFR1	1	R1302M
2011.267	1.633	1807217	WORD	n/a	wordpools/wordpool_categorized_EN.txt	POTATO	Vegetables	6	16	[0, 0, 0]	n/a	catFR1	1	R1302M
2012.9	0.79	1808850	WORD_OFF	n/a	n/a	POTATO	Vegetables	6	16	[0, 0, 0]	n/a	catFR1	1	R1302M
2013.69	1.629	1809640	WORD	n/a	wordpools/wordpool_categorized_EN.txt	MOTH	Insects	7	16	[0, 0, 0]	n/a	catFR1	1	R1302M
2015.319	0.773	1811269	WORD_OFF	n/a	n/a	MOTH	Insects	7	16	[0, 0, 0]	n/a	catFR1	1	R1302M
2016.092	1.627	1812042	WORD	n/a	wordpools/wordpool_categorized_EN.txt	FLY	Insects	8	16	[0, 0, 0]	n/a	catFR1	1	R1302M
2017.719	0.756	1813669	WORD_OFF	n/a	n/a	FLY	Insects	8	16	[0, 0, 0]	n/a	catFR1	1	R1302M
2018.475	1.628	1814425	WORD	n/a	wordpools/wordpool_categorized_EN.txt	CABBAGE	Vegetables	9	16	[0, 0, 0]	n/a	catFR1	1	R1302M
2020.103	0.789	1816053	WORD_OFF	n/a	n/a	CABBAGE	Vegetables	9	16	[0, 0, 0]	n/a	catFR1	1	R1302M
2020.892	1.611	1816842	WORD	n/a	wordpools/wordpool_categorized_EN.txt	CORN	Vegetables	10	16	[0, 0, 0]	n/a	catFR1	1	R1302M
2022.503	1.057	1818453	WORD_OFF	n/a	n/a	CORN	Vegetables	10	16	[0, 0, 0]	n/a	catFR1	1	R1302M
2023.56	1.627	1819510	WORD	n/a	wordpools/wordpool_categorized_EN.txt	DOLL	Toys	11	16	[0, 0, 0]	n/a	catFR1	1	R1302M
2025.187	0.987	1821137	WORD_OFF	n/a	n/a	DOLL	Toys	11	16	[0, 0, 0]	n/a	catFR1	1	R1302M
2026.174	1.629	1822124	WORD	n/a	wordpools/wordpool_categorized_EN.txt	PUZZLE	Toys	12	16	[0, 0, 0]	n/a	catFR1	1	R1302M
2027.803	0.001	1823753	WORD_OFF	n/a	n/a	PUZZLE	Toys	12	16	[0, 0, 0]	n/a	catFR1	1	R1302M
2027.804	0.001	1823754	ENCODING_END	n/a	n/a	n/a	n/a	-999	16	[0, 0, 0]	n/a	catFR1	1	R1302M
2027.805	0.001	1823755	DISTRACT_START	n/a	n/a	n/a	n/a	-999	16	[0, 0, 0]	n/a	catFR1	1	R1302M
2027.806	0.014	1823756	START	n/a	n/a	n/a	n/a	-999	16	[-999, -999, -999]	n/a	catFR1	1	R1302M
2027.82	6.435	1823770	PROB	6.435	n/a	n/a	n/a	-999	16	[3, 4, 6]	13	catFR1	1	R1302M
2034.255	2.834	1830204	PROB	2.834	n/a	n/a	n/a	-999	16	[7, 2, 2]	11	catFR1	1	R1302M
2037.089	8.718	1833038	PROB	8.718	n/a	n/a	n/a	-999	16	[8, 5, 8]	21	catFR1	1	R1302M
2045.807	6.155	1841756	PROB	6.155	n/a	n/a	n/a	-999	16	[5, 1, 8]	3	catFR1	1	R1302M
2051.962	0.013	1847910	STOP	n/a	n/a	n/a	n/a	-999	16	[-999, -999, -999]	n/a	catFR1	1	R1302M
2051.975	0.613	1847923	DISTRACT_END	n/a	n/a	n/a	n/a	-999	16	[0, 0, 0]	n/a	catFR1	1	R1302M
2052.588	1.538	1848536	RETRIEVAL_ORIENT_START	n/a	n/a	n/a	n/a	-999	16	[0, 0, 0]	n/a	catFR1	1	R1302M
2054.126	0.001	1850074	RETRIEVAL_ORIENT_END	n/a	n/a	n/a	n/a	-999	16	[0, 0, 0]	n/a	catFR1	1	R1302M
2054.127	0.965	1850075	REC_START	n/a	n/a	n/a	n/a	-999	16	[0, 0, 0]	n/a	catFR1	1	R1302M
2055.092	1.078	1851040	REC_WORD	1.078	n/a	MOSQUITO	Insects	1	16	[0, 0, 0]	n/a	catFR1	1	R1302M
2056.17	2.998	1852118	REC_WORD	2.998	n/a	ROACH	Insects	2	16	[0, 0, 0]	n/a	catFR1	1	R1302M
2059.168	1.554	1855116	REC_WORD	1.554	n/a	ROACH	Insects	2	16	[0, 0, 0]	n/a	catFR1	1	R1302M
2060.722	0.672	1856670	REC_WORD	0.672	n/a	BROCCOLI	Vegetables	5	16	[0, 0, 0]	n/a	catFR1	1	R1302M
2061.394	11.454	1857342	REC_WORD	11.454	n/a	MOTH	Insects	7	16	[0, 0, 0]	n/a	catFR1	1	R1302M
2072.848	11.29	1868796	REC_WORD	11.29	n/a	CORKSCREW	KitchenTools	-999	16	[0, 0, 0]	n/a	catFR1	1	R1302M
2084.138	0.001	1880085	REC_END	n/a	n/a	n/a	n/a	-999	16	[0, 0, 0]	n/a	catFR1	1	R1302M
2084.139	0.021	1880086	TRIAL_END	n/a	n/a	n/a	n/a	-999	16	[0, 0, 0]	n/a	catFR1	1	R1302M
2084.16	0.001	1880107	TRIAL_START	n/a	n/a	n/a	n/a	-999	17	[0, 0, 0]	n/a	catFR1	1	R1302M
2084.161	0.0	1880108	TRIAL	n/a	n/a	n/a	n/a	-999	17	[0, 0, 0]	n/a	catFR1	1	R1302M
2084.161	4.621	1880108	WAITING_START	n/a	n/a	n/a	n/a	-999	17	[0, 0, 0]	n/a	catFR1	1	R1302M
2088.782	0.001	1884729	WAITING_END	n/a	n/a	n/a	n/a	-999	17	[0, 0, 0]	n/a	catFR1	1	R1302M
2088.783	10.428	1884730	COUNTDOWN_START	n/a	n/a	n/a	n/a	-999	17	[0, 0, 0]	n/a	catFR1	1	R1302M
2099.211	0.001	1895157	COUNTDOWN_END	n/a	n/a	n/a	n/a	-999	17	[0, 0, 0]	n/a	catFR1	1	R1302M
2099.212	1.106	1895158	ORIENT_START	n/a	n/a	n/a	n/a	-999	17	[0, 0, 0]	n/a	catFR1	1	R1302M
2100.318	0.001	1896264	ORIENT_END	n/a	n/a	n/a	n/a	-999	17	[0, 0, 0]	n/a	catFR1	1	R1302M
2100.319	1.052	1896265	ENCODING_START	n/a	n/a	n/a	n/a	-999	17	[0, 0, 0]	n/a	catFR1	1	R1302M
2101.371	1.63	1897317	WORD	n/a	wordpools/wordpool_categorized_EN.txt	ELBOW	BodyParts	1	17	[0, 0, 0]	n/a	catFR1	1	R1302M
2103.001	0.773	1898947	WORD_OFF	n/a	n/a	ELBOW	BodyParts	1	17	[0, 0, 0]	n/a	catFR1	1	R1302M
2103.774	1.629	1899720	WORD	n/a	wordpools/wordpool_categorized_EN.txt	TOE	BodyParts	2	17	[0, 0, 0]	n/a	catFR1	1	R1302M
2105.403	0.984	1901349	WORD_OFF	n/a	n/a	TOE	BodyParts	2	17	[0, 0, 0]	n/a	catFR1	1	R1302M
2106.387	1.632	1902333	WORD	n/a	wordpools/wordpool_categorized_EN.txt	TRUMPET	Instruments	3	17	[0, 0, 0]	n/a	catFR1	1	R1302M
2108.019	0.854	1903965	WORD_OFF	n/a	n/a	TRUMPET	Instruments	3	17	[0, 0, 0]	n/a	catFR1	1	R1302M
2108.873	1.631	1904819	WORD	n/a	wordpools/wordpool_categorized_EN.txt	FLUTE	Instruments	4	17	[0, 0, 0]	n/a	catFR1	1	R1302M
2110.504	0.843	1906450	WORD_OFF	n/a	n/a	FLUTE	Instruments	4	17	[0, 0, 0]	n/a	catFR1	1	R1302M
2111.347	1.639	1907293	WORD	n/a	wordpools/wordpool_categorized_EN.txt	EVERGREEN	Trees	5	17	[0, 0, 0]	n/a	catFR1	1	R1302M
2112.986	1.112	1908932	WORD_OFF	n/a	n/a	EVERGREEN	Trees	5	17	[0, 0, 0]	n/a	catFR1	1	R1302M
2114.098	1.623	1910044	WORD	n/a	wordpools/wordpool_categorized_EN.txt	SPRUCE	Trees	6	17	[0, 0, 0]	n/a	catFR1	1	R1302M
2115.721	0.905	1911667	WORD_OFF	n/a	n/a	SPRUCE	Trees	6	17	[0, 0, 0]	n/a	catFR1	1	R1302M
2116.626	1.629	1912572	WORD	n/a	wordpools/wordpool_categorized_EN.txt	EYE	BodyParts	7	17	[0, 0, 0]	n/a	catFR1	1	R1302M
2118.255	0.989	1914201	WORD_OFF	n/a	n/a	EYE	BodyParts	7	17	[0, 0, 0]	n/a	catFR1	1	R1302M
2119.244	1.627	1915189	WORD	n/a	wordpools/wordpool_categorized_EN.txt	LEG	BodyParts	8	17	[0, 0, 0]	n/a	catFR1	1	R1302M
2120.871	0.925	1916816	WORD_OFF	n/a	n/a	LEG	BodyParts	8	17	[0, 0, 0]	n/a	catFR1	1	R1302M
2121.796	1.61	1917741	WORD	n/a	wordpools/wordpool_categorized_EN.txt	TUBA	Instruments	9	17	[0, 0, 0]	n/a	catFR1	1	R1302M
2123.406	0.868	1919351	WORD_OFF	n/a	n/a	TUBA	Instruments	9	17	[0, 0, 0]	n/a	catFR1	1	R1302M
2124.274	1.632	1920219	WORD	n/a	wordpools/wordpool_categorized_EN.txt	ORGAN	Instruments	10	17	[0, 0, 0]	n/a	catFR1	1	R1302M
2125.906	1.008	1921851	WORD_OFF	n/a	n/a	ORGAN	Instruments	10	17	[0, 0, 0]	n/a	catFR1	1	R1302M
2126.914	1.626	1922859	WORD	n/a	wordpools/wordpool_categorized_EN.txt	HICKORY	Trees	11	17	[0, 0, 0]	n/a	catFR1	1	R1302M
2128.54	1.134	1924485	WORD_OFF	n/a	n/a	HICKORY	Trees	11	17	[0, 0, 0]	n/a	catFR1	1	R1302M
2129.674	1.634	1925619	WORD	n/a	wordpools/wordpool_categorized_EN.txt	BIRCH	Trees	12	17	[0, 0, 0]	n/a	catFR1	1	R1302M
2131.308	0.0	1927253	WORD_OFF	n/a	n/a	BIRCH	Trees	12	17	[0, 0, 0]	n/a	catFR1	1	R1302M
2131.308	0.001	1927253	ENCODING_END	n/a	n/a	n/a	n/a	-999	17	[0, 0, 0]	n/a	catFR1	1	R1302M
2131.309	0.0	1927254	DISTRACT_START	n/a	n/a	n/a	n/a	-999	17	[0, 0, 0]	n/a	catFR1	1	R1302M
2131.309	0.015	1927254	START	n/a	n/a	n/a	n/a	-999	17	[-999, -999, -999]	n/a	catFR1	1	R1302M
2131.324	4.918	1927269	PROB	4.918	n/a	n/a	n/a	-999	17	[6, 9, 9]	24	catFR1	1	R1302M
2136.242	7.667	1932187	PROB	7.667	n/a	n/a	n/a	-999	17	[1, 8, 9]	18	catFR1	1	R1302M
2143.909	4.702	1939853	PROB	4.702	n/a	n/a	n/a	-999	17	[1, 8, 4]	13	catFR1	1	R1302M
2148.611	5.603	1944555	PROB	5.603	n/a	n/a	n/a	-999	17	[6, 1, 3]	9	catFR1	1	R1302M
2154.214	0.015	1950158	STOP	n/a	n/a	n/a	n/a	-999	17	[-999, -999, -999]	n/a	catFR1	1	R1302M
2154.229	0.692	1950173	DISTRACT_END	n/a	n/a	n/a	n/a	-999	17	[0, 0, 0]	n/a	catFR1	1	R1302M
2154.921	1.608	1950865	RETRIEVAL_ORIENT_START	n/a	n/a	n/a	n/a	-999	17	[0, 0, 0]	n/a	catFR1	1	R1302M
2156.529	0.001	1952473	RETRIEVAL_ORIENT_END	n/a	n/a	n/a	n/a	-999	17	[0, 0, 0]	n/a	catFR1	1	R1302M
2156.53	0.609	1952474	REC_START	n/a	n/a	n/a	n/a	-999	17	[0, 0, 0]	n/a	catFR1	1	R1302M
2157.139	1.383	1953083	REC_WORD	1.383	n/a	MOSQUITO	Insects	-999	17	[0, 0, 0]	n/a	catFR1	1	R1302M
2158.522	1.28	1954466	REC_WORD	1.28	n/a	ROACH	Insects	-999	17	[0, 0, 0]	n/a	catFR1	1	R1302M
2159.802	4.687	1955746	REC_WORD	4.687	n/a	BROCCOLI	Vegetables	-999	17	[0, 0, 0]	n/a	catFR1	1	R1302M
2164.489	1.946	1960432	REC_WORD	1.946	n/a	ORGAN	Instruments	10	17	[0, 0, 0]	n/a	catFR1	1	R1302M
2166.435	6.932	1962378	REC_WORD	6.932	n/a	TUBA	Instruments	9	17	[0, 0, 0]	n/a	catFR1	1	R1302M
2173.367	13.173	1969310	REC_WORD	13.173	n/a	EVERGREEN	Trees	5	17	[0, 0, 0]	n/a	catFR1	1	R1302M
2186.54	0.001	1982482	REC_END	n/a	n/a	n/a	n/a	-999	17	[0, 0, 0]	n/a	catFR1	1	R1302M
2186.541	0.021	1982483	TRIAL_END	n/a	n/a	n/a	n/a	-999	17	[0, 0, 0]	n/a	catFR1	1	R1302M
2186.562	0.001	1982504	TRIAL_START	n/a	n/a	n/a	n/a	-999	18	[0, 0, 0]	n/a	catFR1	1	R1302M
2186.563	0.001	1982505	TRIAL	n/a	n/a	n/a	n/a	-999	18	[0, 0, 0]	n/a	catFR1	1	R1302M
2186.564	3.155	1982506	WAITING_START	n/a	n/a	n/a	n/a	-999	18	[0, 0, 0]	n/a	catFR1	1	R1302M
2189.719	0.001	1985661	WAITING_END	n/a	n/a	n/a	n/a	-999	18	[0, 0, 0]	n/a	catFR1	1	R1302M
2189.72	10.43	1985662	COUNTDOWN_START	n/a	n/a	n/a	n/a	-999	18	[0, 0, 0]	n/a	catFR1	1	R1302M
2200.15	0.001	1996092	COUNTDOWN_END	n/a	n/a	n/a	n/a	-999	18	[0, 0, 0]	n/a	catFR1	1	R1302M
2200.151	1.237	1996093	ORIENT_START	n/a	n/a	n/a	n/a	-999	18	[0, 0, 0]	n/a	catFR1	1	R1302M
2201.388	0.0	1997330	ORIENT_END	n/a	n/a	n/a	n/a	-999	18	[0, 0, 0]	n/a	catFR1	1	R1302M
2201.388	0.917	1997330	ENCODING_START	n/a	n/a	n/a	n/a	-999	18	[0, 0, 0]	n/a	catFR1	1	R1302M
2202.305	1.632	1998247	WORD	n/a	wordpools/wordpool_categorized_EN.txt	FOUNDATION	Building	1	18	[0, 0, 0]	n/a	catFR1	1	R1302M
2203.937	0.903	1999879	WORD_OFF	n/a	n/a	FOUNDATION	Building	1	18	[0, 0, 0]	n/a	catFR1	1	R1302M
2204.84	1.632	2000782	WORD	n/a	wordpools/wordpool_categorized_EN.txt	ROOM	Building	2	18	[0, 0, 0]	n/a	catFR1	1	R1302M
2206.472	0.916	2002414	WORD_OFF	n/a	n/a	ROOM	Building	2	18	[0, 0, 0]	n/a	catFR1	1	R1302M
2207.388	1.635	2003330	WORD	n/a	wordpools/wordpool_categorized_EN.txt	PHONE	Electronics	3	18	[0, 0, 0]	n/a	catFR1	1	R1302M
2209.023	0.913	2004964	WORD_OFF	n/a	n/a	PHONE	Electronics	3	18	[0, 0, 0]	n/a	catFR1	1	R1302M
2209.936	1.62	2005877	WORD	n/a	wordpools/wordpool_categorized_EN.txt	HEADPHONES	Electronics	4	18	[0, 0, 0]	n/a	catFR1	1	R1302M
2211.556	0.889	2007497	WORD_OFF	n/a	n/a	HEADPHONES	Electronics	4	18	[0, 0, 0]	n/a	catFR1	1	R1302M
2212.445	1.629	2008386	WORD	n/a	wordpools/wordpool_categorized_EN.txt	TURKEY	FarmAnimals	5	18	[0, 0, 0]	n/a	catFR1	1	R1302M
2214.074	1.047	2010015	WORD_OFF	n/a	n/a	TURKEY	FarmAnimals	5	18	[0, 0, 0]	n/a	catFR1	1	R1302M
2215.121	1.636	2011062	WORD	n/a	wordpools/wordpool_categorized_EN.txt	CALF	FarmAnimals	6	18	[0, 0, 0]	n/a	catFR1	1	R1302M
2216.757	1.002	2012698	WORD_OFF	n/a	n/a	CALF	FarmAnimals	6	18	[0, 0, 0]	n/a	catFR1	1	R1302M
2217.759	1.616	2013700	WORD	n/a	wordpools/wordpool_categorized_EN.txt	TELEVISION	Electronics	7	18	[0, 0, 0]	n/a	catFR1	1	R1302M
2219.375	1.054	2015316	WORD_OFF	n/a	n/a	TELEVISION	Electronics	7	18	[0, 0, 0]	n/a	catFR1	1	R1302M
2220.429	1.629	2016370	WORD	n/a	wordpools/wordpool_categorized_EN.txt	SPEAKER	Electronics	8	18	[0, 0, 0]	n/a	catFR1	1	R1302M
2222.058	0.983	2017999	WORD_OFF	n/a	n/a	SPEAKER	Electronics	8	18	[0, 0, 0]	n/a	catFR1	1	R1302M
2223.041	1.635	2018982	WORD	n/a	wordpools/wordpool_categorized_EN.txt	CEILING	Building	9	18	[0, 0, 0]	n/a	catFR1	1	R1302M
2224.676	0.992	2020617	WORD_OFF	n/a	n/a	CEILING	Building	9	18	[0, 0, 0]	n/a	catFR1	1	R1302M
2225.668	1.625	2021609	WORD	n/a	wordpools/wordpool_categorized_EN.txt	DOOR	Building	10	18	[0, 0, 0]	n/a	catFR1	1	R1302M
2227.293	1.078	2023234	WORD_OFF	n/a	n/a	DOOR	Building	10	18	[0, 0, 0]	n/a	catFR1	1	R1302M
2228.371	1.621	2024312	WORD	n/a	wordpools/wordpool_categorized_EN.txt	HEN	FarmAnimals	11	18	[0, 0, 0]	n/a	catFR1	1	R1302M
2229.992	1.127	2025933	WORD_OFF	n/a	n/a	HEN	FarmAnimals	11	18	[0, 0, 0]	n/a	catFR1	1	R1302M
2231.119	1.625	2027059	WORD	n/a	wordpools/wordpool_categorized_EN.txt	HORSE	FarmAnimals	12	18	[0, 0, 0]	n/a	catFR1	1	R1302M
2232.744	0.001	2028684	WORD_OFF	n/a	n/a	HORSE	FarmAnimals	12	18	[0, 0, 0]	n/a	catFR1	1	R1302M
2232.745	0.001	2028685	ENCODING_END	n/a	n/a	n/a	n/a	-999	18	[0, 0, 0]	n/a	catFR1	1	R1302M
2232.746	0.0	2028686	DISTRACT_START	n/a	n/a	n/a	n/a	-999	18	[0, 0, 0]	n/a	catFR1	1	R1302M
2232.746	0.014	2028686	START	n/a	n/a	n/a	n/a	-999	18	[-999, -999, -999]	n/a	catFR1	1	R1302M
2232.76	6.452	2028700	PROB	6.452	n/a	n/a	n/a	-999	18	[7, 3, 5]	15	catFR1	1	R1302M
2239.212	5.467	2035152	PROB	5.467	n/a	n/a	n/a	-999	18	[7, 5, 1]	13	catFR1	1	R1302M
2244.679	6.051	2040619	PROB	6.051	n/a	n/a	n/a	-999	18	[6, 8, 1]	13	catFR1	1	R1302M
2250.73	5.023	2046670	PROB	5.023	n/a	n/a	n/a	-999	18	[6, 9, 2]	36	catFR1	1	R1302M
2255.753	0.012	2051692	STOP	n/a	n/a	n/a	n/a	-999	18	[-999, -999, -999]	n/a	catFR1	1	R1302M
2255.765	0.542	2051704	DISTRACT_END	n/a	n/a	n/a	n/a	-999	18	[0, 0, 0]	n/a	catFR1	1	R1302M
2256.307	1.541	2052246	RETRIEVAL_ORIENT_START	n/a	n/a	n/a	n/a	-999	18	[0, 0, 0]	n/a	catFR1	1	R1302M
2257.848	0.001	2053787	RETRIEVAL_ORIENT_END	n/a	n/a	n/a	n/a	-999	18	[0, 0, 0]	n/a	catFR1	1	R1302M
2257.849	1.825	2053788	REC_START	n/a	n/a	n/a	n/a	-999	18	[0, 0, 0]	n/a	catFR1	1	R1302M
2259.674	0.625	2055613	REC_WORD	0.625	n/a	MOSQUITO	Insects	-999	18	[0, 0, 0]	n/a	catFR1	1	R1302M
2260.299	1.585	2056238	REC_WORD	1.585	n/a	ROACH	Insects	-999	18	[0, 0, 0]	n/a	catFR1	1	R1302M
2261.884	2.604	2057823	REC_WORD	2.604	n/a	BROCCOLI	Vegetables	-999	18	[0, 0, 0]	n/a	catFR1	1	R1302M
2264.488	23.372	2060427	REC_WORD	23.372	n/a	HEN	FarmAnimals	11	18	[0, 0, 0]	n/a	catFR1	1	R1302M
2287.86	0.0	2083798	REC_END	n/a	n/a	n/a	n/a	-999	18	[0, 0, 0]	n/a	catFR1	1	R1302M
2287.86	0.023	2083798	TRIAL_END	n/a	n/a	n/a	n/a	-999	18	[0, 0, 0]	n/a	catFR1	1	R1302M
2287.883	0.0	2083821	TRIAL_START	n/a	n/a	n/a	n/a	-999	19	[0, 0, 0]	n/a	catFR1	1	R1302M
2287.883	0.001	2083821	TRIAL	n/a	n/a	n/a	n/a	-999	19	[0, 0, 0]	n/a	catFR1	1	R1302M
2287.884	3.421	2083822	WAITING_START	n/a	n/a	n/a	n/a	-999	19	[0, 0, 0]	n/a	catFR1	1	R1302M
2291.305	0.001	2087243	WAITING_END	n/a	n/a	n/a	n/a	-999	19	[0, 0, 0]	n/a	catFR1	1	R1302M
2291.306	10.429	2087244	COUNTDOWN_START	n/a	n/a	n/a	n/a	-999	19	[0, 0, 0]	n/a	catFR1	1	R1302M
2301.735	0.001	2097672	COUNTDOWN_END	n/a	n/a	n/a	n/a	-999	19	[0, 0, 0]	n/a	catFR1	1	R1302M
2301.736	1.037	2097673	ORIENT_START	n/a	n/a	n/a	n/a	-999	19	[0, 0, 0]	n/a	catFR1	1	R1302M
2302.773	0.001	2098710	ORIENT_END	n/a	n/a	n/a	n/a	-999	19	[0, 0, 0]	n/a	catFR1	1	R1302M
2302.774	0.766	2098711	ENCODING_START	n/a	n/a	n/a	n/a	-999	19	[0, 0, 0]	n/a	catFR1	1	R1302M
2303.54	1.634	2099477	WORD	n/a	wordpools/wordpool_categorized_EN.txt	PANTS	Clothing	1	19	[0, 0, 0]	n/a	catFR1	1	R1302M
2305.174	0.94	2101111	WORD_OFF	n/a	n/a	PANTS	Clothing	1	19	[0, 0, 0]	n/a	catFR1	1	R1302M
2306.114	1.628	2102051	WORD	n/a	wordpools/wordpool_categorized_EN.txt	SHOES	Clothing	2	19	[0, 0, 0]	n/a	catFR1	1	R1302M
2307.742	0.857	2103679	WORD_OFF	n/a	n/a	SHOES	Clothing	2	19	[0, 0, 0]	n/a	catFR1	1	R1302M
2308.599	1.627	2104536	WORD	n/a	wordpools/wordpool_categorized_EN.txt	LIGHTNING	Weather	3	19	[0, 0, 0]	n/a	catFR1	1	R1302M
2310.226	1.081	2106163	WORD_OFF	n/a	n/a	LIGHTNING	Weather	3	19	[0, 0, 0]	n/a	catFR1	1	R1302M
2311.307	1.635	2107244	WORD	n/a	wordpools/wordpool_categorized_EN.txt	CLOUD	Weather	4	19	[0, 0, 0]	n/a	catFR1	1	R1302M
2312.942	0.942	2108879	WORD_OFF	n/a	n/a	CLOUD	Weather	4	19	[0, 0, 0]	n/a	catFR1	1	R1302M
2313.884	1.626	2109821	WORD	n/a	wordpools/wordpool_categorized_EN.txt	ELEPHANT	Zoo	5	19	[0, 0, 0]	n/a	catFR1	1	R1302M
2315.51	0.821	2111447	WORD_OFF	n/a	n/a	ELEPHANT	Zoo	5	19	[0, 0, 0]	n/a	catFR1	1	R1302M
2316.331	1.628	2112268	WORD	n/a	wordpools/wordpool_categorized_EN.txt	LION	Zoo	6	19	[0, 0, 0]	n/a	catFR1	1	R1302M
2317.959	0.842	2113896	WORD_OFF	n/a	n/a	LION	Zoo	6	19	[0, 0, 0]	n/a	catFR1	1	R1302M
2318.801	1.626	2114738	WORD	n/a	wordpools/wordpool_categorized_EN.txt	RAIN	Weather	7	19	[0, 0, 0]	n/a	catFR1	1	R1302M
2320.427	0.92	2116363	WORD_OFF	n/a	n/a	RAIN	Weather	7	19	[0, 0, 0]	n/a	catFR1	1	R1302M
2321.347	1.63	2117283	WORD	n/a	wordpools/wordpool_categorized_EN.txt	HUMIDITY	Weather	8	19	[0, 0, 0]	n/a	catFR1	1	R1302M
2322.977	0.97	2118913	WORD_OFF	n/a	n/a	HUMIDITY	Weather	8	19	[0, 0, 0]	n/a	catFR1	1	R1302M
2323.947	1.614	2119883	WORD	n/a	wordpools/wordpool_categorized_EN.txt	SKIRT	Clothing	9	19	[0, 0, 0]	n/a	catFR1	1	R1302M
2325.561	0.892	2121497	WORD_OFF	n/a	n/a	SKIRT	Clothing	9	19	[0, 0, 0]	n/a	catFR1	1	R1302M
2326.453	1.626	2122389	WORD	n/a	wordpools/wordpool_categorized_EN.txt	UNDERWEAR	Clothing	10	19	[0, 0, 0]	n/a	catFR1	1	R1302M
2328.079	1.013	2124015	WORD_OFF	n/a	n/a	UNDERWEAR	Clothing	10	19	[0, 0, 0]	n/a	catFR1	1	R1302M
2329.092	1.637	2125028	WORD	n/a	wordpools/wordpool_categorized_EN.txt	BEAR	Zoo	11	19	[0, 0, 0]	n/a	catFR1	1	R1302M
2330.729	0.896	2126665	WORD_OFF	n/a	n/a	BEAR	Zoo	11	19	[0, 0, 0]	n/a	catFR1	1	R1302M
2331.625	1.622	2127561	WORD	n/a	wordpools/wordpool_categorized_EN.txt	GORILLA	Zoo	12	19	[0, 0, 0]	n/a	catFR1	1	R1302M
2333.247	0.0	2129183	WORD_OFF	n/a	n/a	GORILLA	Zoo	12	19	[0, 0, 0]	n/a	catFR1	1	R1302M
2333.247	0.001	2129183	ENCODING_END	n/a	n/a	n/a	n/a	-999	19	[0, 0, 0]	n/a	catFR1	1	R1302M
2333.248	0.0	2129184	DISTRACT_START	n/a	n/a	n/a	n/a	-999	19	[0, 0, 0]	n/a	catFR1	1	R1302M
2333.248	0.015	2129184	START	n/a	n/a	n/a	n/a	-999	19	[-999, -999, -999]	n/a	catFR1	1	R1302M
2333.263	5.851	2129199	PROB	5.851	n/a	n/a	n/a	-999	19	[5, 5, 4]	14	catFR1	1	R1302M
2339.114	7.135	2135050	PROB	7.135	n/a	n/a	n/a	-999	19	[9, 3, 5]	16	catFR1	1	R1302M
2346.249	6.251	2142184	PROB	6.251	n/a	n/a	n/a	-999	19	[6, 1, 8]	14	catFR1	1	R1302M
2352.5	6.748	2148435	PROB	6.748	n/a	n/a	n/a	-999	19	[9, 3, 4]	15	catFR1	1	R1302M
2359.248	0.02	2155183	STOP	n/a	n/a	n/a	n/a	-999	19	[-999, -999, -999]	n/a	catFR1	1	R1302M
2359.268	0.665	2155203	DISTRACT_END	n/a	n/a	n/a	n/a	-999	19	[0, 0, 0]	n/a	catFR1	1	R1302M
