onset	duration	sample	trial_type	response_time	stim_file	item_name	category	serialpos	list	test	answer	experiment	session	subject
0.0	0.0	6428	INSTRUCT_START	n/a	n/a	n/a	n/a	-999	-999	[0, 0, 0]	n/a	catFR1	0	R1278E
0.0	10.938	6428	INSTRUCT_END	n/a	n/a	n/a	n/a	-999	-999	[0, 0, 0]	n/a	catFR1	0	R1278E
10.938	0.0	17366	SESS_START	n/a	n/a	n/a	n/a	-999	-999	[0, 0, 0]	n/a	catFR1	0	R1278E
10.938	60.899	17366	MIC_TEST	n/a	n/a	n/a	n/a	-999	-999	[0, 0, 0]	n/a	catFR1	0	R1278E
71.837	22.212	78262	PRACTICE_TRIAL	n/a	n/a	n/a	n/a	-999	-1	[0, 0, 0]	n/a	catFR1	0	R1278E
94.049	10.428	100473	COUNTDOWN_START	n/a	n/a	n/a	n/a	-999	-1	[0, 0, 0]	n/a	catFR1	0	R1278E
104.477	0.008	110901	COUNTDOWN_END	n/a	n/a	n/a	n/a	-999	-1	[0, 0, 0]	n/a	catFR1	0	R1278E
104.485	1.618	110909	PRACTICE_ORIENT	n/a	n/a	n/a	n/a	-999	-1	[0, 0, 0]	n/a	catFR1	0	R1278E
106.103	1.967	112527	PRACTICE_ORIENT_OFF	n/a	n/a	n/a	n/a	-999	-1	[0, 0, 0]	n/a	catFR1	0	R1278E
108.07	1.616	114494	PRACTICE_WORD	n/a	n/a	BEAM	n/a	-1	-1	[0, 0, 0]	n/a	catFR1	0	R1278E
109.686	0.866	116110	PRACTICE_WORD_OFF	n/a	n/a	BEAM	n/a	-999	-1	[0, 0, 0]	n/a	catFR1	0	R1278E
110.552	1.601	116976	PRACTICE_WORD	n/a	n/a	COTTON	n/a	-1	-1	[0, 0, 0]	n/a	catFR1	0	R1278E
112.153	1.0	118577	PRACTICE_WORD_OFF	n/a	n/a	COTTON	n/a	-999	-1	[0, 0, 0]	n/a	catFR1	0	R1278E
113.153	1.617	119577	PRACTICE_WORD	n/a	n/a	TONGUE	n/a	-1	-1	[0, 0, 0]	n/a	catFR1	0	R1278E
114.77	0.817	121193	PRACTICE_WORD_OFF	n/a	n/a	TONGUE	n/a	-999	-1	[0, 0, 0]	n/a	catFR1	0	R1278E
115.587	1.618	122010	PRACTICE_WORD	n/a	n/a	FLOOD	n/a	-1	-1	[0, 0, 0]	n/a	catFR1	0	R1278E
117.205	0.933	123628	PRACTICE_WORD_OFF	n/a	n/a	FLOOD	n/a	-999	-1	[0, 0, 0]	n/a	catFR1	0	R1278E
118.138	1.616	124561	PRACTICE_WORD	n/a	n/a	WAGON	n/a	-1	-1	[0, 0, 0]	n/a	catFR1	0	R1278E
119.754	0.917	126177	PRACTICE_WORD_OFF	n/a	n/a	WAGON	n/a	-999	-1	[0, 0, 0]	n/a	catFR1	0	R1278E
120.671	1.617	127094	PRACTICE_WORD	n/a	n/a	RHINO	n/a	-1	-1	[0, 0, 0]	n/a	catFR1	0	R1278E
122.288	0.917	128711	PRACTICE_WORD_OFF	n/a	n/a	RHINO	n/a	-999	-1	[0, 0, 0]	n/a	catFR1	0	R1278E
123.205	1.616	129628	PRACTICE_WORD	n/a	n/a	IRON	n/a	-1	-1	[0, 0, 0]	n/a	catFR1	0	R1278E
124.821	0.934	131244	PRACTICE_WORD_OFF	n/a	n/a	IRON	n/a	-999	-1	[0, 0, 0]	n/a	catFR1	0	R1278E
125.755	1.617	132178	PRACTICE_WORD	n/a	n/a	WATCH	n/a	-1	-1	[0, 0, 0]	n/a	catFR1	0	R1278E
127.372	0.834	133795	PRACTICE_WORD_OFF	n/a	n/a	WATCH	n/a	-999	-1	[0, 0, 0]	n/a	catFR1	0	R1278E
128.206	1.616	134629	PRACTICE_WORD	n/a	n/a	ATTIC	n/a	-1	-1	[0, 0, 0]	n/a	catFR1	0	R1278E
129.822	0.95	136245	PRACTICE_WORD_OFF	n/a	n/a	ATTIC	n/a	-999	-1	[0, 0, 0]	n/a	catFR1	0	R1278E
130.772	1.617	137195	PRACTICE_WORD	n/a	n/a	CAMEL	n/a	-1	-1	[0, 0, 0]	n/a	catFR1	0	R1278E
132.389	0.785	138812	PRACTICE_WORD_OFF	n/a	n/a	CAMEL	n/a	-999	-1	[0, 0, 0]	n/a	catFR1	0	R1278E
133.174	1.616	139597	PRACTICE_WORD	n/a	n/a	RING	n/a	-1	-1	[0, 0, 0]	n/a	catFR1	0	R1278E
134.79	0.85	141213	PRACTICE_WORD_OFF	n/a	n/a	RING	n/a	-999	-1	[0, 0, 0]	n/a	catFR1	0	R1278E
135.64	1.618	142063	PRACTICE_WORD	n/a	n/a	CHEST	n/a	-1	-1	[0, 0, 0]	n/a	catFR1	0	R1278E
137.258	0.0	143681	PRACTICE_WORD_OFF	n/a	n/a	CHEST	n/a	-999	-1	[0, 0, 0]	n/a	catFR1	0	R1278E
137.258	0.001	143681	ENCODING_END	n/a	n/a	n/a	n/a	-999	-1	[0, 0, 0]	n/a	catFR1	0	R1278E
137.259	0.0	143682	DISTRACT_START	n/a	n/a	n/a	n/a	-999	-1	[0, 0, 0]	n/a	catFR1	0	R1278E
137.259	0.015	143682	START	n/a	n/a	n/a	n/a	-999	-1	[-999, -999, -999]	n/a	catFR1	0	R1278E
137.274	7.418	143697	PROB	7.418	n/a	n/a	n/a	-999	-1	[6, 4, 3]	13	catFR1	0	R1278E
144.692	10.151	151114	PROB	10.151	n/a	n/a	n/a	-999	-1	[1, 7, 8]	16	catFR1	0	R1278E
154.843	3.695	161265	PROB	3.695	n/a	n/a	n/a	-999	-1	[7, 3, 2]	12	catFR1	0	R1278E
158.538	0.006	164960	STOP	n/a	n/a	n/a	n/a	-999	-1	[-999, -999, -999]	n/a	catFR1	0	R1278E
158.544	0.701	164966	DISTRACT_END	n/a	n/a	n/a	n/a	-999	-1	[0, 0, 0]	n/a	catFR1	0	R1278E
159.245	0.522	165667	RETRIEVAL_ORIENT	n/a	n/a	n/a	n/a	-999	-1	[0, 0, 0]	n/a	catFR1	0	R1278E
159.767	30.004	166189	PRACTICE_REC_START	n/a	n/a	n/a	n/a	-999	-1	[0, 0, 0]	n/a	catFR1	0	R1278E
189.771	14.631	196192	PRACTICE_REC_END	n/a	n/a	n/a	n/a	-999	-1	[0, 0, 0]	n/a	catFR1	0	R1278E
204.402	0.5	210822	TRIAL	n/a	n/a	n/a	n/a	-999	1	[0, 0, 0]	n/a	catFR1	0	R1278E
204.902	10.428	211322	COUNTDOWN_START	n/a	n/a	n/a	n/a	-999	1	[0, 0, 0]	n/a	catFR1	0	R1278E
215.33	0.007	221750	COUNTDOWN_END	n/a	n/a	n/a	n/a	-999	1	[0, 0, 0]	n/a	catFR1	0	R1278E
215.337	1.617	221757	ORIENT	n/a	n/a	n/a	n/a	-999	1	[0, 0, 0]	n/a	catFR1	0	R1278E
216.954	1.933	223373	ORIENT_OFF	n/a	n/a	n/a	n/a	-999	1	[0, 0, 0]	n/a	catFR1	0	R1278E
218.887	1.618	225306	WORD	n/a	wordpools/wordpool_categorized_EN.txt	GLUE	OfficeSupplies	1	1	[0, 0, 0]	n/a	catFR1	0	R1278E
220.505	0.783	226924	WORD_OFF	n/a	n/a	GLUE	n/a	1	1	[0, 0, 0]	n/a	catFR1	0	R1278E
221.288	1.617	227707	WORD	n/a	wordpools/wordpool_categorized_EN.txt	ERASER	OfficeSupplies	2	1	[0, 0, 0]	n/a	catFR1	0	R1278E
222.905	0.867	229324	WORD_OFF	n/a	n/a	ERASER	n/a	2	1	[0, 0, 0]	n/a	catFR1	0	R1278E
223.772	1.617	230191	WORD	n/a	wordpools/wordpool_categorized_EN.txt	EAR	BodyParts	3	1	[0, 0, 0]	n/a	catFR1	0	R1278E
225.389	0.95	231808	WORD_OFF	n/a	n/a	EAR	n/a	3	1	[0, 0, 0]	n/a	catFR1	0	R1278E
226.339	1.617	232758	WORD	n/a	wordpools/wordpool_categorized_EN.txt	ELBOW	BodyParts	4	1	[0, 0, 0]	n/a	catFR1	0	R1278E
227.956	0.817	234375	WORD_OFF	n/a	n/a	ELBOW	n/a	4	1	[0, 0, 0]	n/a	catFR1	0	R1278E
228.773	1.617	235192	WORD	n/a	wordpools/wordpool_categorized_EN.txt	SHRIMP	OceanAnimals	5	1	[0, 0, 0]	n/a	catFR1	0	R1278E
230.39	0.933	236809	WORD_OFF	n/a	n/a	SHRIMP	n/a	5	1	[0, 0, 0]	n/a	catFR1	0	R1278E
231.323	1.617	237742	WORD	n/a	wordpools/wordpool_categorized_EN.txt	FISH	OceanAnimals	6	1	[0, 0, 0]	n/a	catFR1	0	R1278E
232.94	0.85	239359	WORD_OFF	n/a	n/a	FISH	n/a	6	1	[0, 0, 0]	n/a	catFR1	0	R1278E
233.79	1.617	240209	WORD	n/a	wordpools/wordpool_categorized_EN.txt	PENCIL	OfficeSupplies	7	1	[0, 0, 0]	n/a	catFR1	0	R1278E
235.407	0.917	241826	WORD_OFF	n/a	n/a	PENCIL	n/a	7	1	[0, 0, 0]	n/a	catFR1	0	R1278E
236.324	1.617	242743	WORD	n/a	wordpools/wordpool_categorized_EN.txt	TAPE	OfficeSupplies	8	1	[0, 0, 0]	n/a	catFR1	0	R1278E
237.941	0.834	244360	WORD_OFF	n/a	n/a	TAPE	n/a	8	1	[0, 0, 0]	n/a	catFR1	0	R1278E
238.775	1.616	245194	WORD	n/a	wordpools/wordpool_categorized_EN.txt	LEG	BodyParts	9	1	[0, 0, 0]	n/a	catFR1	0	R1278E
240.391	0.934	246810	WORD_OFF	n/a	n/a	LEG	n/a	9	1	[0, 0, 0]	n/a	catFR1	0	R1278E
241.325	1.617	247744	WORD	n/a	wordpools/wordpool_categorized_EN.txt	NOSE	BodyParts	10	1	[0, 0, 0]	n/a	catFR1	0	R1278E
242.942	0.834	249360	WORD_OFF	n/a	n/a	NOSE	n/a	10	1	[0, 0, 0]	n/a	catFR1	0	R1278E
243.776	1.616	250194	WORD	n/a	wordpools/wordpool_categorized_EN.txt	OYSTER	OceanAnimals	11	1	[0, 0, 0]	n/a	catFR1	0	R1278E
245.392	0.984	251810	WORD_OFF	n/a	n/a	OYSTER	n/a	11	1	[0, 0, 0]	n/a	catFR1	0	R1278E
246.376	1.617	252794	WORD	n/a	wordpools/wordpool_categorized_EN.txt	JELLYFISH	OceanAnimals	12	1	[0, 0, 0]	n/a	catFR1	0	R1278E
247.993	0.0	254411	ENCODING_END	n/a	n/a	n/a	n/a	-999	1	[0, 0, 0]	n/a	catFR1	0	R1278E
247.993	0.175	254411	WORD_OFF	n/a	n/a	JELLYFISH	n/a	12	1	[0, 0, 0]	n/a	catFR1	0	R1278E
248.168	0.0	254586	DISTRACT_START	n/a	n/a	n/a	n/a	-999	1	[0, 0, 0]	n/a	catFR1	0	R1278E
248.168	0.009	254586	START	n/a	n/a	n/a	n/a	-999	1	[-999, -999, -999]	n/a	catFR1	0	R1278E
248.177	14.702	254595	PROB	14.702	n/a	n/a	n/a	-999	1	[7, 1, 8]	16	catFR1	0	R1278E
262.879	5.252	269297	PROB	5.252	n/a	n/a	n/a	-999	1	[3, 9, 3]	15	catFR1	0	R1278E
268.131	4.927	274548	PROB	4.927	n/a	n/a	n/a	-999	1	[8, 2, 4]	14	catFR1	0	R1278E
273.058	0.007	279475	STOP	n/a	n/a	n/a	n/a	-999	1	[-999, -999, -999]	n/a	catFR1	0	R1278E
273.065	0.549	279482	DISTRACT_END	n/a	n/a	n/a	n/a	-999	1	[0, 0, 0]	n/a	catFR1	0	R1278E
273.614	0.518	280031	RETRIEVAL_ORIENT	n/a	n/a	n/a	n/a	-999	1	[0, 0, 0]	n/a	catFR1	0	R1278E
274.132	3.296	280549	REC_START	n/a	n/a	n/a	n/a	-999	1	[0, 0, 0]	n/a	catFR1	0	R1278E
277.428	2.231	283845	REC_WORD	2.231	n/a	LEG	BodyParts	9	1	[0, 0, 0]	n/a	catFR1	0	R1278E
279.659	2.439	286076	REC_WORD	2.439	n/a	JELLYFISH	OceanAnimals	12	1	[0, 0, 0]	n/a	catFR1	0	R1278E
282.098	8.3	288515	REC_WORD	8.3	n/a	OYSTER	OceanAnimals	11	1	[0, 0, 0]	n/a	catFR1	0	R1278E
290.398	1.962	296815	REC_WORD	1.962	n/a	ELBOW	BodyParts	4	1	[0, 0, 0]	n/a	catFR1	0	R1278E
292.36	11.782	298777	REC_WORD	11.782	n/a	SHRIMP	OceanAnimals	5	1	[0, 0, 0]	n/a	catFR1	0	R1278E
304.142	6.062	310558	REC_END	n/a	n/a	n/a	n/a	-999	1	[0, 0, 0]	n/a	catFR1	0	R1278E
310.204	0.5	316620	TRIAL	n/a	n/a	n/a	n/a	-999	2	[0, 0, 0]	n/a	catFR1	0	R1278E
310.704	10.428	317120	COUNTDOWN_START	n/a	n/a	n/a	n/a	-999	2	[0, 0, 0]	n/a	catFR1	0	R1278E
321.132	0.008	327547	COUNTDOWN_END	n/a	n/a	n/a	n/a	-999	2	[0, 0, 0]	n/a	catFR1	0	R1278E
321.14	1.616	327555	ORIENT	n/a	n/a	n/a	n/a	-999	2	[0, 0, 0]	n/a	catFR1	0	R1278E
322.756	2.25	329171	ORIENT_OFF	n/a	n/a	n/a	n/a	-999	2	[0, 0, 0]	n/a	catFR1	0	R1278E
325.006	1.617	331421	WORD	n/a	wordpools/wordpool_categorized_EN.txt	TROMBONE	Instruments	1	2	[0, 0, 0]	n/a	catFR1	0	R1278E
326.623	0.767	333038	WORD_OFF	n/a	n/a	TROMBONE	n/a	1	2	[0, 0, 0]	n/a	catFR1	0	R1278E
327.39	1.617	333805	WORD	n/a	wordpools/wordpool_categorized_EN.txt	VIOLIN	Instruments	2	2	[0, 0, 0]	n/a	catFR1	0	R1278E
329.007	0.95	335422	WORD_OFF	n/a	n/a	VIOLIN	n/a	2	2	[0, 0, 0]	n/a	catFR1	0	R1278E
329.957	1.617	336372	WORD	n/a	wordpools/wordpool_categorized_EN.txt	ONION	Vegetables	3	2	[0, 0, 0]	n/a	catFR1	0	R1278E
331.574	0.783	337989	WORD_OFF	n/a	n/a	ONION	n/a	3	2	[0, 0, 0]	n/a	catFR1	0	R1278E
332.357	1.617	338772	WORD	n/a	wordpools/wordpool_categorized_EN.txt	POTATO	Vegetables	4	2	[0, 0, 0]	n/a	catFR1	0	R1278E
333.974	0.867	340389	WORD_OFF	n/a	n/a	POTATO	n/a	4	2	[0, 0, 0]	n/a	catFR1	0	R1278E
334.841	1.617	341256	WORD	n/a	wordpools/wordpool_categorized_EN.txt	UNDERWEAR	Clothing	5	2	[0, 0, 0]	n/a	catFR1	0	R1278E
336.458	1.0	342873	WORD_OFF	n/a	n/a	UNDERWEAR	n/a	5	2	[0, 0, 0]	n/a	catFR1	0	R1278E
337.458	1.601	343873	WORD	n/a	wordpools/wordpool_categorized_EN.txt	DRESS	Clothing	6	2	[0, 0, 0]	n/a	catFR1	0	R1278E
339.059	0.983	345474	WORD_OFF	n/a	n/a	DRESS	n/a	6	2	[0, 0, 0]	n/a	catFR1	0	R1278E
340.042	1.617	346457	WORD	n/a	wordpools/wordpool_categorized_EN.txt	CORN	Vegetables	7	2	[0, 0, 0]	n/a	catFR1	0	R1278E
341.659	0.984	348074	WORD_OFF	n/a	n/a	CORN	n/a	7	2	[0, 0, 0]	n/a	catFR1	0	R1278E
342.643	1.618	349058	WORD	n/a	wordpools/wordpool_categorized_EN.txt	BROCCOLI	Vegetables	8	2	[0, 0, 0]	n/a	catFR1	0	R1278E
344.261	1.0	350676	WORD_OFF	n/a	n/a	BROCCOLI	n/a	8	2	[0, 0, 0]	n/a	catFR1	0	R1278E
345.261	1.616	351675	WORD	n/a	wordpools/wordpool_categorized_EN.txt	DRUM	Instruments	9	2	[0, 0, 0]	n/a	catFR1	0	R1278E
346.877	0.983	353291	WORD_OFF	n/a	n/a	DRUM	n/a	9	2	[0, 0, 0]	n/a	catFR1	0	R1278E
347.86	1.617	354274	WORD	n/a	wordpools/wordpool_categorized_EN.txt	PIANO	Instruments	10	2	[0, 0, 0]	n/a	catFR1	0	R1278E
349.477	0.817	355891	WORD_OFF	n/a	n/a	PIANO	n/a	10	2	[0, 0, 0]	n/a	catFR1	0	R1278E
350.294	1.617	356708	WORD	n/a	wordpools/wordpool_categorized_EN.txt	SOCKS	Clothing	11	2	[0, 0, 0]	n/a	catFR1	0	R1278E
351.911	0.817	358325	WORD_OFF	n/a	n/a	SOCKS	n/a	11	2	[0, 0, 0]	n/a	catFR1	0	R1278E
352.728	1.617	359142	WORD	n/a	wordpools/wordpool_categorized_EN.txt	SHIRT	Clothing	12	2	[0, 0, 0]	n/a	catFR1	0	R1278E
354.345	0.0	360759	ENCODING_END	n/a	n/a	n/a	n/a	-999	2	[0, 0, 0]	n/a	catFR1	0	R1278E
354.345	0.133	360759	WORD_OFF	n/a	n/a	SHIRT	n/a	12	2	[0, 0, 0]	n/a	catFR1	0	R1278E
354.478	0.0	360892	DISTRACT_START	n/a	n/a	n/a	n/a	-999	2	[0, 0, 0]	n/a	catFR1	0	R1278E
354.478	0.017	360892	START	n/a	n/a	n/a	n/a	-999	2	[-999, -999, -999]	n/a	catFR1	0	R1278E
354.495	5.718	360909	PROB	5.718	n/a	n/a	n/a	-999	2	[8, 8, 4]	20	catFR1	0	R1278E
360.213	2.566	366627	PROB	2.566	n/a	n/a	n/a	-999	2	[4, 2, 1]	7	catFR1	0	R1278E
362.779	3.801	369193	PROB	3.801	n/a	n/a	n/a	-999	2	[1, 9, 2]	12	catFR1	0	R1278E
366.58	7.085	372994	PROB	7.085	n/a	n/a	n/a	-999	2	[5, 4, 9]	18	catFR1	0	R1278E
373.665	4.518	380078	PROB	4.518	n/a	n/a	n/a	-999	2	[4, 2, 8]	14	catFR1	0	R1278E
378.183	0.017	384596	STOP	n/a	n/a	n/a	n/a	-999	2	[-999, -999, -999]	n/a	catFR1	0	R1278E
378.2	0.649	384613	DISTRACT_END	n/a	n/a	n/a	n/a	-999	2	[0, 0, 0]	n/a	catFR1	0	R1278E
378.849	0.517	385262	RETRIEVAL_ORIENT	n/a	n/a	n/a	n/a	-999	2	[0, 0, 0]	n/a	catFR1	0	R1278E
379.366	1.48	385779	REC_START	n/a	n/a	n/a	n/a	-999	2	[0, 0, 0]	n/a	catFR1	0	R1278E
380.846	1.481	387259	REC_WORD	1.481	n/a	DRESS	Clothing	6	2	[0, 0, 0]	n/a	catFR1	0	R1278E
382.327	1.961	388740	REC_WORD	1.961	n/a	SHIRT	Clothing	12	2	[0, 0, 0]	n/a	catFR1	0	R1278E
384.288	4.293	390701	REC_WORD	4.293	n/a	SOCKS	Clothing	11	2	[0, 0, 0]	n/a	catFR1	0	R1278E
388.581	3.197	394994	REC_WORD	3.197	n/a	TROMBONE	Instruments	1	2	[0, 0, 0]	n/a	catFR1	0	R1278E
391.778	17.599	398191	REC_WORD	17.599	n/a	VIOLIN	Instruments	2	2	[0, 0, 0]	n/a	catFR1	0	R1278E
409.377	5.362	415789	REC_END	n/a	n/a	n/a	n/a	-999	2	[0, 0, 0]	n/a	catFR1	0	R1278E
414.739	0.5	421151	TRIAL	n/a	n/a	n/a	n/a	-999	3	[0, 0, 0]	n/a	catFR1	0	R1278E
415.239	10.428	421651	COUNTDOWN_START	n/a	n/a	n/a	n/a	-999	3	[0, 0, 0]	n/a	catFR1	0	R1278E
425.667	0.007	432078	COUNTDOWN_END	n/a	n/a	n/a	n/a	-999	3	[0, 0, 0]	n/a	catFR1	0	R1278E
425.674	1.617	432085	ORIENT	n/a	n/a	n/a	n/a	-999	3	[0, 0, 0]	n/a	catFR1	0	R1278E
427.291	2.283	433702	ORIENT_OFF	n/a	n/a	n/a	n/a	-999	3	[0, 0, 0]	n/a	catFR1	0	R1278E
429.574	1.618	435985	WORD	n/a	wordpools/wordpool_categorized_EN.txt	GIRAFFE	Zoo	1	3	[0, 0, 0]	n/a	catFR1	0	R1278E
431.192	0.951	437603	WORD_OFF	n/a	n/a	GIRAFFE	n/a	1	3	[0, 0, 0]	n/a	catFR1	0	R1278E
432.143	1.615	438554	WORD	n/a	wordpools/wordpool_categorized_EN.txt	CHIMPANZEE	Zoo	2	3	[0, 0, 0]	n/a	catFR1	0	R1278E
433.758	0.851	440169	WORD_OFF	n/a	n/a	CHIMPANZEE	n/a	2	3	[0, 0, 0]	n/a	catFR1	0	R1278E
434.609	1.618	441020	WORD	n/a	wordpools/wordpool_categorized_EN.txt	CAKE	Desserts	3	3	[0, 0, 0]	n/a	catFR1	0	R1278E
436.227	0.933	442638	WORD_OFF	n/a	n/a	CAKE	n/a	3	3	[0, 0, 0]	n/a	catFR1	0	R1278E
437.16	1.616	443571	WORD	n/a	wordpools/wordpool_categorized_EN.txt	CHEESECAKE	Desserts	4	3	[0, 0, 0]	n/a	catFR1	0	R1278E
438.776	0.767	445187	WORD_OFF	n/a	n/a	CHEESECAKE	n/a	4	3	[0, 0, 0]	n/a	catFR1	0	R1278E
439.543	1.618	445954	WORD	n/a	wordpools/wordpool_categorized_EN.txt	TRAIN	Vehicles	5	3	[0, 0, 0]	n/a	catFR1	0	R1278E
441.161	0.983	447572	WORD_OFF	n/a	n/a	TRAIN	n/a	5	3	[0, 0, 0]	n/a	catFR1	0	R1278E
442.144	1.616	448555	WORD	n/a	wordpools/wordpool_categorized_EN.txt	TRUCK	Vehicles	6	3	[0, 0, 0]	n/a	catFR1	0	R1278E
443.76	0.767	450171	WORD_OFF	n/a	n/a	TRUCK	n/a	6	3	[0, 0, 0]	n/a	catFR1	0	R1278E
444.527	1.618	450938	WORD	n/a	wordpools/wordpool_categorized_EN.txt	BEAR	Zoo	7	3	[0, 0, 0]	n/a	catFR1	0	R1278E
446.145	0.799	452556	WORD_OFF	n/a	n/a	BEAR	n/a	7	3	[0, 0, 0]	n/a	catFR1	0	R1278E
446.944	1.617	453355	WORD	n/a	wordpools/wordpool_categorized_EN.txt	GORILLA	Zoo	8	3	[0, 0, 0]	n/a	catFR1	0	R1278E
448.561	0.867	454971	WORD_OFF	n/a	n/a	GORILLA	n/a	8	3	[0, 0, 0]	n/a	catFR1	0	R1278E
449.428	1.618	455838	WORD	n/a	wordpools/wordpool_categorized_EN.txt	JELLO	Desserts	9	3	[0, 0, 0]	n/a	catFR1	0	R1278E
451.046	0.832	457456	WORD_OFF	n/a	n/a	JELLO	n/a	9	3	[0, 0, 0]	n/a	catFR1	0	R1278E
451.878	1.617	458288	WORD	n/a	wordpools/wordpool_categorized_EN.txt	CUPCAKE	Desserts	10	3	[0, 0, 0]	n/a	catFR1	0	R1278E
453.495	0.984	459905	WORD_OFF	n/a	n/a	CUPCAKE	n/a	10	3	[0, 0, 0]	n/a	catFR1	0	R1278E
454.479	1.618	460889	WORD	n/a	wordpools/wordpool_categorized_EN.txt	CAR	Vehicles	11	3	[0, 0, 0]	n/a	catFR1	0	R1278E
456.097	0.95	462507	WORD_OFF	n/a	n/a	CAR	n/a	11	3	[0, 0, 0]	n/a	catFR1	0	R1278E
457.047	1.616	463457	WORD	n/a	wordpools/wordpool_categorized_EN.txt	VAN	Vehicles	12	3	[0, 0, 0]	n/a	catFR1	0	R1278E
458.663	0.0	465073	ENCODING_END	n/a	n/a	n/a	n/a	-999	3	[0, 0, 0]	n/a	catFR1	0	R1278E
458.663	0.133	465073	WORD_OFF	n/a	n/a	VAN	n/a	12	3	[0, 0, 0]	n/a	catFR1	0	R1278E
458.796	0.0	465206	DISTRACT_START	n/a	n/a	n/a	n/a	-999	3	[0, 0, 0]	n/a	catFR1	0	R1278E
458.796	0.017	465206	START	n/a	n/a	n/a	n/a	-999	3	[-999, -999, -999]	n/a	catFR1	0	R1278E
458.813	3.368	465223	PROB	3.368	n/a	n/a	n/a	-999	3	[5, 1, 3]	9	catFR1	0	R1278E
462.181	3.416	468591	PROB	3.416	n/a	n/a	n/a	-999	3	[2, 7, 2]	11	catFR1	0	R1278E
465.597	2.751	472007	PROB	2.751	n/a	n/a	n/a	-999	3	[3, 5, 2]	10	catFR1	0	R1278E
468.348	5.567	474758	PROB	5.567	n/a	n/a	n/a	-999	3	[5, 7, 2]	14	catFR1	0	R1278E
473.915	5.821	480324	PROB	5.821	n/a	n/a	n/a	-999	3	[5, 2, 6]	13	catFR1	0	R1278E
479.736	0.014	486145	STOP	n/a	n/a	n/a	n/a	-999	3	[-999, -999, -999]	n/a	catFR1	0	R1278E
479.75	0.533	486159	DISTRACT_END	n/a	n/a	n/a	n/a	-999	3	[0, 0, 0]	n/a	catFR1	0	R1278E
480.283	0.518	486692	RETRIEVAL_ORIENT	n/a	n/a	n/a	n/a	-999	3	[0, 0, 0]	n/a	catFR1	0	R1278E
480.801	3.599	487210	REC_START	n/a	n/a	n/a	n/a	-999	3	[0, 0, 0]	n/a	catFR1	0	R1278E
484.4	2.203	490809	REC_WORD	2.203	n/a	CAR	Vehicles	11	3	[0, 0, 0]	n/a	catFR1	0	R1278E
486.603	11.198	493012	REC_WORD_VV	11.198	n/a	<>	n/a	-999	3	[0, 0, 0]	n/a	catFR1	0	R1278E
497.801	3.778	504210	REC_WORD	3.778	n/a	CHIMPANZEE	Zoo	2	3	[0, 0, 0]	n/a	catFR1	0	R1278E
501.579	9.23	507987	REC_WORD_VV	9.23	n/a	<>	n/a	-999	3	[0, 0, 0]	n/a	catFR1	0	R1278E
510.809	7.231	517217	REC_END	n/a	n/a	n/a	n/a	-999	3	[0, 0, 0]	n/a	catFR1	0	R1278E
518.04	0.5	524448	TRIAL	n/a	n/a	n/a	n/a	-999	4	[0, 0, 0]	n/a	catFR1	0	R1278E
518.54	10.428	524948	COUNTDOWN_START	n/a	n/a	n/a	n/a	-999	4	[0, 0, 0]	n/a	catFR1	0	R1278E
528.968	0.007	535375	COUNTDOWN_END	n/a	n/a	n/a	n/a	-999	4	[0, 0, 0]	n/a	catFR1	0	R1278E
528.975	1.617	535382	ORIENT	n/a	n/a	n/a	n/a	-999	4	[0, 0, 0]	n/a	catFR1	0	R1278E
530.592	2.084	536999	ORIENT_OFF	n/a	n/a	n/a	n/a	-999	4	[0, 0, 0]	n/a	catFR1	0	R1278E
532.676	1.617	539083	WORD	n/a	wordpools/wordpool_categorized_EN.txt	PASTRY	Desserts	1	4	[0, 0, 0]	n/a	catFR1	0	R1278E
534.293	0.983	540700	WORD_OFF	n/a	n/a	PASTRY	n/a	1	4	[0, 0, 0]	n/a	catFR1	0	R1278E
535.276	1.617	541683	WORD	n/a	wordpools/wordpool_categorized_EN.txt	COBBLER	Desserts	2	4	[0, 0, 0]	n/a	catFR1	0	R1278E
536.893	0.984	543300	WORD_OFF	n/a	n/a	COBBLER	n/a	2	4	[0, 0, 0]	n/a	catFR1	0	R1278E
537.877	1.617	544284	WORD	n/a	wordpools/wordpool_categorized_EN.txt	SUNFLOWER	Flowers	3	4	[0, 0, 0]	n/a	catFR1	0	R1278E
539.494	0.85	545901	WORD_OFF	n/a	n/a	SUNFLOWER	n/a	3	4	[0, 0, 0]	n/a	catFR1	0	R1278E
540.344	1.617	546751	WORD	n/a	wordpools/wordpool_categorized_EN.txt	PETUNIA	Flowers	4	4	[0, 0, 0]	n/a	catFR1	0	R1278E
541.961	0.766	548368	WORD_OFF	n/a	n/a	PETUNIA	n/a	4	4	[0, 0, 0]	n/a	catFR1	0	R1278E
542.727	1.618	549134	WORD	n/a	wordpools/wordpool_categorized_EN.txt	GOOSE	Birds	5	4	[0, 0, 0]	n/a	catFR1	0	R1278E
544.345	0.767	550752	WORD_OFF	n/a	n/a	GOOSE	n/a	5	4	[0, 0, 0]	n/a	catFR1	0	R1278E
545.112	1.616	551519	WORD	n/a	wordpools/wordpool_categorized_EN.txt	DUCK	Birds	6	4	[0, 0, 0]	n/a	catFR1	0	R1278E
546.728	0.767	553135	WORD_OFF	n/a	n/a	DUCK	n/a	6	4	[0, 0, 0]	n/a	catFR1	0	R1278E
547.495	1.618	553902	WORD	n/a	wordpools/wordpool_categorized_EN.txt	TULIP	Flowers	7	4	[0, 0, 0]	n/a	catFR1	0	R1278E
549.113	0.799	555520	WORD_OFF	n/a	n/a	TULIP	n/a	7	4	[0, 0, 0]	n/a	catFR1	0	R1278E
549.912	1.617	556318	WORD	n/a	wordpools/wordpool_categorized_EN.txt	LILAC	Flowers	8	4	[0, 0, 0]	n/a	catFR1	0	R1278E
551.529	0.867	557935	WORD_OFF	n/a	n/a	LILAC	n/a	8	4	[0, 0, 0]	n/a	catFR1	0	R1278E
552.396	1.617	558802	WORD	n/a	wordpools/wordpool_categorized_EN.txt	MOUSSE	Desserts	9	4	[0, 0, 0]	n/a	catFR1	0	R1278E
554.013	1.0	560419	WORD_OFF	n/a	n/a	MOUSSE	n/a	9	4	[0, 0, 0]	n/a	catFR1	0	R1278E
555.013	1.617	561419	WORD	n/a	wordpools/wordpool_categorized_EN.txt	COOKIE	Desserts	10	4	[0, 0, 0]	n/a	catFR1	0	R1278E
556.63	0.983	563036	WORD_OFF	n/a	n/a	COOKIE	n/a	10	4	[0, 0, 0]	n/a	catFR1	0	R1278E
557.613	1.602	564019	WORD	n/a	wordpools/wordpool_categorized_EN.txt	FINCH	Birds	11	4	[0, 0, 0]	n/a	catFR1	0	R1278E
559.215	0.816	565621	WORD_OFF	n/a	n/a	FINCH	n/a	11	4	[0, 0, 0]	n/a	catFR1	0	R1278E
560.031	1.617	566437	WORD	n/a	wordpools/wordpool_categorized_EN.txt	ROBIN	Birds	12	4	[0, 0, 0]	n/a	catFR1	0	R1278E
561.648	0.0	568054	ENCODING_END	n/a	n/a	n/a	n/a	-999	4	[0, 0, 0]	n/a	catFR1	0	R1278E
561.648	0.171	568054	WORD_OFF	n/a	n/a	ROBIN	n/a	12	4	[0, 0, 0]	n/a	catFR1	0	R1278E
561.819	0.0	568225	DISTRACT_START	n/a	n/a	n/a	n/a	-999	4	[0, 0, 0]	n/a	catFR1	0	R1278E
561.819	0.012	568225	START	n/a	n/a	n/a	n/a	-999	4	[-999, -999, -999]	n/a	catFR1	0	R1278E
561.831	3.851	568237	PROB	3.851	n/a	n/a	n/a	-999	4	[3, 2, 4]	9	catFR1	0	R1278E
565.682	5.667	572088	PROB	5.667	n/a	n/a	n/a	-999	4	[7, 2, 6]	15	catFR1	0	R1278E
571.349	4.268	577755	PROB	4.268	n/a	n/a	n/a	-999	4	[7, 3, 7]	17	catFR1	0	R1278E
575.617	3.468	582022	PROB	3.468	n/a	n/a	n/a	-999	4	[5, 1, 4]	10	catFR1	0	R1278E
579.085	6.1	585490	PROB	6.1	n/a	n/a	n/a	-999	4	[7, 9, 2]	18	catFR1	0	R1278E
585.185	0.018	591590	STOP	n/a	n/a	n/a	n/a	-999	4	[-999, -999, -999]	n/a	catFR1	0	R1278E
585.203	0.532	591608	DISTRACT_END	n/a	n/a	n/a	n/a	-999	4	[0, 0, 0]	n/a	catFR1	0	R1278E
585.735	0.518	592140	RETRIEVAL_ORIENT	n/a	n/a	n/a	n/a	-999	4	[0, 0, 0]	n/a	catFR1	0	R1278E
586.253	6.239	592658	REC_START	n/a	n/a	n/a	n/a	-999	4	[0, 0, 0]	n/a	catFR1	0	R1278E
592.492	2.112	598897	REC_WORD	2.112	n/a	MOUSSE	Desserts	9	4	[0, 0, 0]	n/a	catFR1	0	R1278E
594.604	2.633	601009	REC_WORD	2.633	n/a	FINCH	Birds	11	4	[0, 0, 0]	n/a	catFR1	0	R1278E
597.237	4.291	603642	REC_WORD	4.291	n/a	ROBIN	Birds	12	4	[0, 0, 0]	n/a	catFR1	0	R1278E
601.528	14.734	607932	REC_WORD_VV	14.734	n/a	<>	n/a	-999	4	[0, 0, 0]	n/a	catFR1	0	R1278E
616.262	5.529	622666	REC_END	n/a	n/a	n/a	n/a	-999	4	[0, 0, 0]	n/a	catFR1	0	R1278E
621.791	0.5	628195	TRIAL	n/a	n/a	n/a	n/a	-999	5	[0, 0, 0]	n/a	catFR1	0	R1278E
622.291	10.428	628695	COUNTDOWN_START	n/a	n/a	n/a	n/a	-999	5	[0, 0, 0]	n/a	catFR1	0	R1278E
632.719	0.008	639122	COUNTDOWN_END	n/a	n/a	n/a	n/a	-999	5	[0, 0, 0]	n/a	catFR1	0	R1278E
632.727	1.617	639130	ORIENT	n/a	n/a	n/a	n/a	-999	5	[0, 0, 0]	n/a	catFR1	0	R1278E
634.344	1.983	640747	ORIENT_OFF	n/a	n/a	n/a	n/a	-999	5	[0, 0, 0]	n/a	catFR1	0	R1278E
636.327	1.617	642730	WORD	n/a	wordpools/wordpool_categorized_EN.txt	PANDA	Zoo	1	5	[0, 0, 0]	n/a	catFR1	0	R1278E
637.944	1.0	644347	WORD_OFF	n/a	n/a	PANDA	n/a	1	5	[0, 0, 0]	n/a	catFR1	0	R1278E
638.944	1.617	645347	WORD	n/a	wordpools/wordpool_categorized_EN.txt	TIGER	Zoo	2	5	[0, 0, 0]	n/a	catFR1	0	R1278E
640.561	0.817	646964	WORD_OFF	n/a	n/a	TIGER	n/a	2	5	[0, 0, 0]	n/a	catFR1	0	R1278E
641.378	1.617	647781	WORD	n/a	wordpools/wordpool_categorized_EN.txt	DOLPHIN	OceanAnimals	3	5	[0, 0, 0]	n/a	catFR1	0	R1278E
642.995	0.817	649398	WORD_OFF	n/a	n/a	DOLPHIN	n/a	3	5	[0, 0, 0]	n/a	catFR1	0	R1278E
643.812	1.617	650215	WORD	n/a	wordpools/wordpool_categorized_EN.txt	SQUID	OceanAnimals	4	5	[0, 0, 0]	n/a	catFR1	0	R1278E
645.429	1.0	651832	WORD_OFF	n/a	n/a	SQUID	n/a	4	5	[0, 0, 0]	n/a	catFR1	0	R1278E
646.429	1.618	652832	WORD	n/a	wordpools/wordpool_categorized_EN.txt	LILY	Flowers	5	5	[0, 0, 0]	n/a	catFR1	0	R1278E
648.047	0.966	654450	WORD_OFF	n/a	n/a	LILY	n/a	5	5	[0, 0, 0]	n/a	catFR1	0	R1278E
649.013	1.617	655416	WORD	n/a	wordpools/wordpool_categorized_EN.txt	VIOLET	Flowers	6	5	[0, 0, 0]	n/a	catFR1	0	R1278E
650.63	0.917	657033	WORD_OFF	n/a	n/a	VIOLET	n/a	6	5	[0, 0, 0]	n/a	catFR1	0	R1278E
651.547	1.617	657950	WORD	n/a	wordpools/wordpool_categorized_EN.txt	TURTLE	OceanAnimals	7	5	[0, 0, 0]	n/a	catFR1	0	R1278E
653.164	0.8	659566	WORD_OFF	n/a	n/a	TURTLE	n/a	7	5	[0, 0, 0]	n/a	catFR1	0	R1278E
653.964	1.617	660366	WORD	n/a	wordpools/wordpool_categorized_EN.txt	PLANKTON	OceanAnimals	8	5	[0, 0, 0]	n/a	catFR1	0	R1278E
655.581	0.783	661983	WORD_OFF	n/a	n/a	PLANKTON	n/a	8	5	[0, 0, 0]	n/a	catFR1	0	R1278E
656.364	1.617	662766	WORD	n/a	wordpools/wordpool_categorized_EN.txt	LION	Zoo	9	5	[0, 0, 0]	n/a	catFR1	0	R1278E
657.981	0.817	664383	WORD_OFF	n/a	n/a	LION	n/a	9	5	[0, 0, 0]	n/a	catFR1	0	R1278E
658.798	1.617	665200	WORD	n/a	wordpools/wordpool_categorized_EN.txt	ORANGUTAN	Zoo	10	5	[0, 0, 0]	n/a	catFR1	0	R1278E
660.415	0.917	666817	WORD_OFF	n/a	n/a	ORANGUTAN	n/a	10	5	[0, 0, 0]	n/a	catFR1	0	R1278E
661.332	1.617	667734	WORD	n/a	wordpools/wordpool_categorized_EN.txt	ROSE	Flowers	11	5	[0, 0, 0]	n/a	catFR1	0	R1278E
662.949	0.8	669351	WORD_OFF	n/a	n/a	ROSE	n/a	11	5	[0, 0, 0]	n/a	catFR1	0	R1278E
663.749	1.617	670151	WORD	n/a	wordpools/wordpool_categorized_EN.txt	CARNATION	Flowers	12	5	[0, 0, 0]	n/a	catFR1	0	R1278E
665.366	0.0	671768	WORD_OFF	n/a	n/a	CARNATION	n/a	12	5	[0, 0, 0]	n/a	catFR1	0	R1278E
665.366	0.134	671768	ENCODING_END	n/a	n/a	n/a	n/a	-999	5	[0, 0, 0]	n/a	catFR1	0	R1278E
665.5	0.001	671902	DISTRACT_START	n/a	n/a	n/a	n/a	-999	5	[0, 0, 0]	n/a	catFR1	0	R1278E
665.501	0.015	671903	START	n/a	n/a	n/a	n/a	-999	5	[-999, -999, -999]	n/a	catFR1	0	R1278E
665.516	27.257	671918	PROB	27.257	n/a	n/a	n/a	-999	5	[7, 9, 8]	24	catFR1	0	R1278E
692.773	0.014	699174	STOP	n/a	n/a	n/a	n/a	-999	5	[-999, -999, -999]	n/a	catFR1	0	R1278E
692.787	0.667	699188	DISTRACT_END	n/a	n/a	n/a	n/a	-999	5	[0, 0, 0]	n/a	catFR1	0	R1278E
693.454	0.518	699855	RETRIEVAL_ORIENT	n/a	n/a	n/a	n/a	-999	5	[0, 0, 0]	n/a	catFR1	0	R1278E
693.972	25.994	700373	REC_START	n/a	n/a	n/a	n/a	-999	5	[0, 0, 0]	n/a	catFR1	0	R1278E
719.966	4.0	726366	REC_WORD_VV	4.0	n/a	<>	n/a	-999	5	[0, 0, 0]	n/a	catFR1	0	R1278E
723.966	0.014	730366	REC_WORD_VV	0.014	n/a	<>	n/a	-999	5	[0, 0, 0]	n/a	catFR1	0	R1278E
723.98	9.065	730380	REC_END	n/a	n/a	n/a	n/a	-999	5	[0, 0, 0]	n/a	catFR1	0	R1278E
733.045	0.5	739444	TRIAL	n/a	n/a	n/a	n/a	-999	6	[0, 0, 0]	n/a	catFR1	0	R1278E
733.545	10.428	739944	COUNTDOWN_START	n/a	n/a	n/a	n/a	-999	6	[0, 0, 0]	n/a	catFR1	0	R1278E
743.973	0.006	750372	COUNTDOWN_END	n/a	n/a	n/a	n/a	-999	6	[0, 0, 0]	n/a	catFR1	0	R1278E
743.979	1.617	750378	ORIENT	n/a	n/a	n/a	n/a	-999	6	[0, 0, 0]	n/a	catFR1	0	R1278E
745.596	2.267	751995	ORIENT_OFF	n/a	n/a	n/a	n/a	-999	6	[0, 0, 0]	n/a	catFR1	0	R1278E
747.863	1.617	754262	WORD	n/a	wordpools/wordpool_categorized_EN.txt	BALL	Toys	1	6	[0, 0, 0]	n/a	catFR1	0	R1278E
749.48	0.867	755879	WORD_OFF	n/a	n/a	BALL	n/a	1	6	[0, 0, 0]	n/a	catFR1	0	R1278E
750.347	1.617	756746	WORD	n/a	wordpools/wordpool_categorized_EN.txt	BARBIE	Toys	2	6	[0, 0, 0]	n/a	catFR1	0	R1278E
751.964	0.817	758363	WORD_OFF	n/a	n/a	BARBIE	n/a	2	6	[0, 0, 0]	n/a	catFR1	0	R1278E
752.781	1.617	759180	WORD	n/a	wordpools/wordpool_categorized_EN.txt	DAFFODIL	Flowers	3	6	[0, 0, 0]	n/a	catFR1	0	R1278E
754.398	0.851	760797	WORD_OFF	n/a	n/a	DAFFODIL	n/a	3	6	[0, 0, 0]	n/a	catFR1	0	R1278E
755.249	1.616	761647	WORD	n/a	wordpools/wordpool_categorized_EN.txt	ORCHID	Flowers	4	6	[0, 0, 0]	n/a	catFR1	0	R1278E
756.865	0.917	763263	WORD_OFF	n/a	n/a	ORCHID	n/a	4	6	[0, 0, 0]	n/a	catFR1	0	R1278E
757.782	1.617	764180	WORD	n/a	wordpools/wordpool_categorized_EN.txt	WALL	Building	5	6	[0, 0, 0]	n/a	catFR1	0	R1278E
759.399	0.967	765797	WORD_OFF	n/a	n/a	WALL	n/a	5	6	[0, 0, 0]	n/a	catFR1	0	R1278E
760.366	1.617	766764	WORD	n/a	wordpools/wordpool_categorized_EN.txt	ROOF	Building	6	6	[0, 0, 0]	n/a	catFR1	0	R1278E
761.983	0.8	768381	WORD_OFF	n/a	n/a	ROOF	n/a	6	6	[0, 0, 0]	n/a	catFR1	0	R1278E
762.783	1.617	769181	WORD	n/a	wordpools/wordpool_categorized_EN.txt	DAISY	Flowers	7	6	[0, 0, 0]	n/a	catFR1	0	R1278E
764.4	0.867	770798	WORD_OFF	n/a	n/a	DAISY	n/a	7	6	[0, 0, 0]	n/a	catFR1	0	R1278E
765.267	1.616	771665	WORD	n/a	wordpools/wordpool_categorized_EN.txt	MARIGOLD	Flowers	8	6	[0, 0, 0]	n/a	catFR1	0	R1278E
766.883	0.817	773281	WORD_OFF	n/a	n/a	MARIGOLD	n/a	8	6	[0, 0, 0]	n/a	catFR1	0	R1278E
767.7	1.617	774098	WORD	n/a	wordpools/wordpool_categorized_EN.txt	FOOTBALL	Toys	9	6	[0, 0, 0]	n/a	catFR1	0	R1278E
769.317	0.984	775715	WORD_OFF	n/a	n/a	FOOTBALL	n/a	9	6	[0, 0, 0]	n/a	catFR1	0	R1278E
770.301	1.617	776699	WORD	n/a	wordpools/wordpool_categorized_EN.txt	MARBLES	Toys	10	6	[0, 0, 0]	n/a	catFR1	0	R1278E
771.918	0.85	778316	WORD_OFF	n/a	n/a	MARBLES	n/a	10	6	[0, 0, 0]	n/a	catFR1	0	R1278E
772.768	1.617	779166	WORD	n/a	wordpools/wordpool_categorized_EN.txt	ROOM	Building	11	6	[0, 0, 0]	n/a	catFR1	0	R1278E
774.385	0.884	780783	WORD_OFF	n/a	n/a	ROOM	n/a	11	6	[0, 0, 0]	n/a	catFR1	0	R1278E
775.269	1.616	781667	WORD	n/a	wordpools/wordpool_categorized_EN.txt	WINDOW	Building	12	6	[0, 0, 0]	n/a	catFR1	0	R1278E
776.885	0.0	783283	ENCODING_END	n/a	n/a	n/a	n/a	-999	6	[0, 0, 0]	n/a	catFR1	0	R1278E
776.885	0.134	783283	WORD_OFF	n/a	n/a	WINDOW	n/a	12	6	[0, 0, 0]	n/a	catFR1	0	R1278E
777.019	0.0	783417	DISTRACT_START	n/a	n/a	n/a	n/a	-999	6	[0, 0, 0]	n/a	catFR1	0	R1278E
777.019	0.016	783417	START	n/a	n/a	n/a	n/a	-999	6	[-999, -999, -999]	n/a	catFR1	0	R1278E
777.035	6.434	783433	PROB	6.434	n/a	n/a	n/a	-999	6	[6, 2, 9]	17	catFR1	0	R1278E
783.469	2.318	789866	PROB	2.318	n/a	n/a	n/a	-999	6	[2, 1, 1]	4	catFR1	0	R1278E
785.787	5.601	792184	PROB	5.601	n/a	n/a	n/a	-999	6	[6, 8, 3]	17	catFR1	0	R1278E
791.388	4.835	797785	PROB	4.835	n/a	n/a	n/a	-999	6	[8, 5, 8]	21	catFR1	0	R1278E
796.223	3.436	802620	PROB	3.436	n/a	n/a	n/a	-999	6	[7, 2, 2]	11	catFR1	0	R1278E
799.659	0.014	806056	STOP	n/a	n/a	n/a	n/a	-999	6	[-999, -999, -999]	n/a	catFR1	0	R1278E
799.673	0.517	806070	DISTRACT_END	n/a	n/a	n/a	n/a	-999	6	[0, 0, 0]	n/a	catFR1	0	R1278E
800.19	0.516	806587	RETRIEVAL_ORIENT	n/a	n/a	n/a	n/a	-999	6	[0, 0, 0]	n/a	catFR1	0	R1278E
800.706	2.348	807103	REC_START	n/a	n/a	n/a	n/a	-999	6	[0, 0, 0]	n/a	catFR1	0	R1278E
803.054	2.446	809451	REC_WORD	2.446	n/a	MARBLES	Toys	10	6	[0, 0, 0]	n/a	catFR1	0	R1278E
805.5	19.449	811897	REC_WORD	19.449	n/a	ROOM	Building	11	6	[0, 0, 0]	n/a	catFR1	0	R1278E
824.949	5.766	831345	REC_WORD	5.766	n/a	DAFFODIL	Flowers	3	6	[0, 0, 0]	n/a	catFR1	0	R1278E
830.715	7.714	837111	REC_END	n/a	n/a	n/a	n/a	-999	6	[0, 0, 0]	n/a	catFR1	0	R1278E
838.429	0.5	844824	TRIAL	n/a	n/a	n/a	n/a	-999	7	[0, 0, 0]	n/a	catFR1	0	R1278E
838.929	10.428	845324	COUNTDOWN_START	n/a	n/a	n/a	n/a	-999	7	[0, 0, 0]	n/a	catFR1	0	R1278E
849.357	0.007	855752	COUNTDOWN_END	n/a	n/a	n/a	n/a	-999	7	[0, 0, 0]	n/a	catFR1	0	R1278E
849.364	1.617	855759	ORIENT	n/a	n/a	n/a	n/a	-999	7	[0, 0, 0]	n/a	catFR1	0	R1278E
850.981	2.118	857376	ORIENT_OFF	n/a	n/a	n/a	n/a	-999	7	[0, 0, 0]	n/a	catFR1	0	R1278E
853.099	1.616	859494	WORD	n/a	wordpools/wordpool_categorized_EN.txt	FLUTE	Instruments	1	7	[0, 0, 0]	n/a	catFR1	0	R1278E
854.715	0.984	861110	WORD_OFF	n/a	n/a	FLUTE	n/a	1	7	[0, 0, 0]	n/a	catFR1	0	R1278E
855.699	1.617	862094	WORD	n/a	wordpools/wordpool_categorized_EN.txt	BASS	Instruments	2	7	[0, 0, 0]	n/a	catFR1	0	R1278E
857.316	0.934	863710	WORD_OFF	n/a	n/a	BASS	n/a	2	7	[0, 0, 0]	n/a	catFR1	0	R1278E
858.25	1.616	864644	WORD	n/a	wordpools/wordpool_categorized_EN.txt	PUZZLE	Toys	3	7	[0, 0, 0]	n/a	catFR1	0	R1278E
859.866	0.817	866260	WORD_OFF	n/a	n/a	PUZZLE	n/a	3	7	[0, 0, 0]	n/a	catFR1	0	R1278E
860.683	1.617	867077	WORD	n/a	wordpools/wordpool_categorized_EN.txt	BLOCKS	Toys	4	7	[0, 0, 0]	n/a	catFR1	0	R1278E
862.3	0.983	868694	WORD_OFF	n/a	n/a	BLOCKS	n/a	4	7	[0, 0, 0]	n/a	catFR1	0	R1278E
863.283	1.617	869677	WORD	n/a	wordpools/wordpool_categorized_EN.txt	BUS	Vehicles	5	7	[0, 0, 0]	n/a	catFR1	0	R1278E
864.9	0.967	871294	WORD_OFF	n/a	n/a	BUS	n/a	5	7	[0, 0, 0]	n/a	catFR1	0	R1278E
865.867	1.617	872261	WORD	n/a	wordpools/wordpool_categorized_EN.txt	SCOOTER	Vehicles	6	7	[0, 0, 0]	n/a	catFR1	0	R1278E
867.484	0.967	873878	WORD_OFF	n/a	n/a	SCOOTER	n/a	6	7	[0, 0, 0]	n/a	catFR1	0	R1278E
868.451	1.601	874845	WORD	n/a	wordpools/wordpool_categorized_EN.txt	BASKETBALL	Toys	7	7	[0, 0, 0]	n/a	catFR1	0	R1278E
870.052	0.816	876446	WORD_OFF	n/a	n/a	BASKETBALL	n/a	7	7	[0, 0, 0]	n/a	catFR1	0	R1278E
870.868	1.617	877262	WORD	n/a	wordpools/wordpool_categorized_EN.txt	BASEBALL	Toys	8	7	[0, 0, 0]	n/a	catFR1	0	R1278E
872.485	0.867	878879	WORD_OFF	n/a	n/a	BASEBALL	n/a	8	7	[0, 0, 0]	n/a	catFR1	0	R1278E
873.352	1.617	879746	WORD	n/a	wordpools/wordpool_categorized_EN.txt	CELLO	Instruments	9	7	[0, 0, 0]	n/a	catFR1	0	R1278E
874.969	0.833	881363	WORD_OFF	n/a	n/a	CELLO	n/a	9	7	[0, 0, 0]	n/a	catFR1	0	R1278E
875.802	1.617	882196	WORD	n/a	wordpools/wordpool_categorized_EN.txt	TUBA	Instruments	10	7	[0, 0, 0]	n/a	catFR1	0	R1278E
877.419	0.917	883813	WORD_OFF	n/a	n/a	TUBA	n/a	10	7	[0, 0, 0]	n/a	catFR1	0	R1278E
878.336	1.617	884730	WORD	n/a	wordpools/wordpool_categorized_EN.txt	BIKE	Vehicles	11	7	[0, 0, 0]	n/a	catFR1	0	R1278E
879.953	0.984	886347	WORD_OFF	n/a	n/a	BIKE	n/a	11	7	[0, 0, 0]	n/a	catFR1	0	R1278E
880.937	1.617	887331	WORD	n/a	wordpools/wordpool_categorized_EN.txt	JEEP	Vehicles	12	7	[0, 0, 0]	n/a	catFR1	0	R1278E
882.554	0.0	888948	ENCODING_END	n/a	n/a	n/a	n/a	-999	7	[0, 0, 0]	n/a	catFR1	0	R1278E
882.554	0.168	888948	WORD_OFF	n/a	n/a	JEEP	n/a	12	7	[0, 0, 0]	n/a	catFR1	0	R1278E
882.722	0.0	889116	DISTRACT_START	n/a	n/a	n/a	n/a	-999	7	[0, 0, 0]	n/a	catFR1	0	R1278E
882.722	0.015	889116	START	n/a	n/a	n/a	n/a	-999	7	[-999, -999, -999]	n/a	catFR1	0	R1278E
882.737	6.768	889131	PROB	6.768	n/a	n/a	n/a	-999	7	[9, 7, 1]	17	catFR1	0	R1278E
889.505	7.652	895898	PROB	7.652	n/a	n/a	n/a	-999	7	[4, 9, 8]	21	catFR1	0	R1278E
897.157	3.733	903550	PROB	3.733	n/a	n/a	n/a	-999	7	[5, 4, 3]	12	catFR1	0	R1278E
900.89	4.042	907283	PROB	4.042	n/a	n/a	n/a	-999	7	[1, 6, 3]	10	catFR1	0	R1278E
904.932	0.009	911325	STOP	n/a	n/a	n/a	n/a	-999	7	[-999, -999, -999]	n/a	catFR1	0	R1278E
904.941	0.6	911334	DISTRACT_END	n/a	n/a	n/a	n/a	-999	7	[0, 0, 0]	n/a	catFR1	0	R1278E
905.541	0.518	911934	RETRIEVAL_ORIENT	n/a	n/a	n/a	n/a	-999	7	[0, 0, 0]	n/a	catFR1	0	R1278E
906.059	17.949	912452	REC_START	n/a	n/a	n/a	n/a	-999	7	[0, 0, 0]	n/a	catFR1	0	R1278E
924.008	2.424	930400	REC_WORD	2.424	n/a	BASEBALL	Toys	8	7	[0, 0, 0]	n/a	catFR1	0	R1278E
926.432	3.437	932824	REC_WORD	3.437	n/a	BASKETBALL	Toys	7	7	[0, 0, 0]	n/a	catFR1	0	R1278E
929.869	6.199	936261	REC_WORD_VV	6.199	n/a	<>	n/a	-999	7	[0, 0, 0]	n/a	catFR1	0	R1278E
936.068	19.848	942459	REC_END	n/a	n/a	n/a	n/a	-999	7	[0, 0, 0]	n/a	catFR1	0	R1278E
955.916	0.5	962307	TRIAL	n/a	n/a	n/a	n/a	-999	8	[0, 0, 0]	n/a	catFR1	0	R1278E
956.416	10.428	962807	COUNTDOWN_START	n/a	n/a	n/a	n/a	-999	8	[0, 0, 0]	n/a	catFR1	0	R1278E
966.844	0.008	973234	COUNTDOWN_END	n/a	n/a	n/a	n/a	-999	8	[0, 0, 0]	n/a	catFR1	0	R1278E
966.852	1.617	973242	ORIENT	n/a	n/a	n/a	n/a	-999	8	[0, 0, 0]	n/a	catFR1	0	R1278E
968.469	1.95	974859	ORIENT_OFF	n/a	n/a	n/a	n/a	-999	8	[0, 0, 0]	n/a	catFR1	0	R1278E
970.419	1.617	976809	WORD	n/a	wordpools/wordpool_categorized_EN.txt	BANANA	Fruit	1	8	[0, 0, 0]	n/a	catFR1	0	R1278E
972.036	0.9	978426	WORD_OFF	n/a	n/a	BANANA	n/a	1	8	[0, 0, 0]	n/a	catFR1	0	R1278E
972.936	1.617	979326	WORD	n/a	wordpools/wordpool_categorized_EN.txt	BLUEBERRY	Fruit	2	8	[0, 0, 0]	n/a	catFR1	0	R1278E
974.553	0.833	980943	WORD_OFF	n/a	n/a	BLUEBERRY	n/a	2	8	[0, 0, 0]	n/a	catFR1	0	R1278E
975.386	1.617	981776	WORD	n/a	wordpools/wordpool_categorized_EN.txt	ROACH	Insects	3	8	[0, 0, 0]	n/a	catFR1	0	R1278E
977.003	0.967	983393	WORD_OFF	n/a	n/a	ROACH	n/a	3	8	[0, 0, 0]	n/a	catFR1	0	R1278E
977.97	1.617	984360	WORD	n/a	wordpools/wordpool_categorized_EN.txt	CRICKET	Insects	4	8	[0, 0, 0]	n/a	catFR1	0	R1278E
979.587	0.784	985977	WORD_OFF	n/a	n/a	CRICKET	n/a	4	8	[0, 0, 0]	n/a	catFR1	0	R1278E
980.371	1.617	986761	WORD	n/a	wordpools/wordpool_categorized_EN.txt	SEAGULL	Birds	5	8	[0, 0, 0]	n/a	catFR1	0	R1278E
981.988	0.766	988378	WORD_OFF	n/a	n/a	SEAGULL	n/a	5	8	[0, 0, 0]	n/a	catFR1	0	R1278E
982.754	1.617	989144	WORD	n/a	wordpools/wordpool_categorized_EN.txt	DOVE	Birds	6	8	[0, 0, 0]	n/a	catFR1	0	R1278E
984.371	0.785	990761	WORD_OFF	n/a	n/a	DOVE	n/a	6	8	[0, 0, 0]	n/a	catFR1	0	R1278E
985.156	1.616	991546	WORD	n/a	wordpools/wordpool_categorized_EN.txt	PEAR	Fruit	7	8	[0, 0, 0]	n/a	catFR1	0	R1278E
986.772	0.883	993161	WORD_OFF	n/a	n/a	PEAR	n/a	7	8	[0, 0, 0]	n/a	catFR1	0	R1278E
987.655	1.601	994044	WORD	n/a	wordpools/wordpool_categorized_EN.txt	LIME	Fruit	8	8	[0, 0, 0]	n/a	catFR1	0	R1278E
989.256	0.984	995645	WORD_OFF	n/a	n/a	LIME	n/a	8	8	[0, 0, 0]	n/a	catFR1	0	R1278E
990.24	1.616	996629	WORD	n/a	wordpools/wordpool_categorized_EN.txt	LADYBUG	Insects	9	8	[0, 0, 0]	n/a	catFR1	0	R1278E
991.856	0.95	998245	WORD_OFF	n/a	n/a	LADYBUG	n/a	9	8	[0, 0, 0]	n/a	catFR1	0	R1278E
992.806	1.617	999195	WORD	n/a	wordpools/wordpool_categorized_EN.txt	MOTH	Insects	10	8	[0, 0, 0]	n/a	catFR1	0	R1278E
994.423	0.95	1000812	WORD_OFF	n/a	n/a	MOTH	n/a	10	8	[0, 0, 0]	n/a	catFR1	0	R1278E
995.373	1.617	1001762	WORD	n/a	wordpools/wordpool_categorized_EN.txt	HAWK	Birds	11	8	[0, 0, 0]	n/a	catFR1	0	R1278E
996.99	0.784	1003379	WORD_OFF	n/a	n/a	HAWK	n/a	11	8	[0, 0, 0]	n/a	catFR1	0	R1278E
997.774	1.617	1004163	WORD	n/a	wordpools/wordpool_categorized_EN.txt	PIGEON	Birds	12	8	[0, 0, 0]	n/a	catFR1	0	R1278E
999.391	0.0	1005780	WORD_OFF	n/a	n/a	PIGEON	n/a	12	8	[0, 0, 0]	n/a	catFR1	0	R1278E
999.391	0.135	1005780	ENCODING_END	n/a	n/a	n/a	n/a	-999	8	[0, 0, 0]	n/a	catFR1	0	R1278E
999.526	0.0	1005915	DISTRACT_START	n/a	n/a	n/a	n/a	-999	8	[0, 0, 0]	n/a	catFR1	0	R1278E
999.526	0.015	1005915	START	n/a	n/a	n/a	n/a	-999	8	[-999, -999, -999]	n/a	catFR1	0	R1278E
999.541	12.235	1005930	PROB	12.235	n/a	n/a	n/a	-999	8	[7, 6, 5]	18	catFR1	0	R1278E
1011.776	4.302	1018164	PROB	4.302	n/a	n/a	n/a	-999	8	[5, 7, 1]	13	catFR1	0	R1278E
1016.078	11.687	1022466	PROB	11.687	n/a	n/a	n/a	-999	8	[7, 6, 6]	19	catFR1	0	R1278E
1027.765	0.014	1034153	STOP	n/a	n/a	n/a	n/a	-999	8	[-999, -999, -999]	n/a	catFR1	0	R1278E
1027.779	0.583	1034167	DISTRACT_END	n/a	n/a	n/a	n/a	-999	8	[0, 0, 0]	n/a	catFR1	0	R1278E
1028.362	0.518	1034750	RETRIEVAL_ORIENT	n/a	n/a	n/a	n/a	-999	8	[0, 0, 0]	n/a	catFR1	0	R1278E
1028.88	1.659	1035268	REC_START	n/a	n/a	n/a	n/a	-999	8	[0, 0, 0]	n/a	catFR1	0	R1278E
1030.539	2.493	1036927	REC_WORD	2.493	n/a	BANANA	Fruit	1	8	[0, 0, 0]	n/a	catFR1	0	R1278E
1033.032	3.415	1039420	REC_WORD	3.415	n/a	BLUEBERRY	Fruit	2	8	[0, 0, 0]	n/a	catFR1	0	R1278E
1036.447	0.274	1042835	REC_WORD_VV	0.274	n/a	<>	n/a	-999	8	[0, 0, 0]	n/a	catFR1	0	R1278E
1036.721	8.42	1043108	REC_WORD	8.42	n/a	ROACH	Insects	3	8	[0, 0, 0]	n/a	catFR1	0	R1278E
1045.141	2.986	1051528	REC_WORD_VV	2.986	n/a	<>	n/a	-999	8	[0, 0, 0]	n/a	catFR1	0	R1278E
1048.127	10.761	1054514	REC_WORD	10.761	n/a	SEAGULL	Birds	5	8	[0, 0, 0]	n/a	catFR1	0	R1278E
1058.888	5.514	1065275	REC_END	n/a	n/a	n/a	n/a	-999	8	[0, 0, 0]	n/a	catFR1	0	R1278E
1064.402	0.5	1070788	TRIAL	n/a	n/a	n/a	n/a	-999	9	[0, 0, 0]	n/a	catFR1	0	R1278E
1064.902	10.428	1071288	COUNTDOWN_START	n/a	n/a	n/a	n/a	-999	9	[0, 0, 0]	n/a	catFR1	0	R1278E
1075.33	0.007	1081716	COUNTDOWN_END	n/a	n/a	n/a	n/a	-999	9	[0, 0, 0]	n/a	catFR1	0	R1278E
1075.337	1.617	1081723	ORIENT	n/a	n/a	n/a	n/a	-999	9	[0, 0, 0]	n/a	catFR1	0	R1278E
1076.954	2.135	1083340	ORIENT_OFF	n/a	n/a	n/a	n/a	-999	9	[0, 0, 0]	n/a	catFR1	0	R1278E
1079.089	1.616	1085475	WORD	n/a	wordpools/wordpool_categorized_EN.txt	FINGERS	BodyParts	1	9	[0, 0, 0]	n/a	catFR1	0	R1278E
1080.705	0.85	1087091	WORD_OFF	n/a	n/a	FINGERS	n/a	1	9	[0, 0, 0]	n/a	catFR1	0	R1278E
1081.555	1.601	1087941	WORD	n/a	wordpools/wordpool_categorized_EN.txt	ARM	BodyParts	2	9	[0, 0, 0]	n/a	catFR1	0	R1278E
1083.156	0.816	1089542	WORD_OFF	n/a	n/a	ARM	n/a	2	9	[0, 0, 0]	n/a	catFR1	0	R1278E
1083.972	1.617	1090358	WORD	n/a	wordpools/wordpool_categorized_EN.txt	SNOW	Weather	3	9	[0, 0, 0]	n/a	catFR1	0	R1278E
1085.589	0.966	1091975	WORD_OFF	n/a	n/a	SNOW	n/a	3	9	[0, 0, 0]	n/a	catFR1	0	R1278E
1086.555	1.602	1092941	WORD	n/a	wordpools/wordpool_categorized_EN.txt	CLOUD	Weather	4	9	[0, 0, 0]	n/a	catFR1	0	R1278E
1088.157	0.799	1094542	WORD_OFF	n/a	n/a	CLOUD	n/a	4	9	[0, 0, 0]	n/a	catFR1	0	R1278E
1088.956	1.617	1095341	WORD	n/a	wordpools/wordpool_categorized_EN.txt	TRUMPET	Instruments	5	9	[0, 0, 0]	n/a	catFR1	0	R1278E
1090.573	0.884	1096958	WORD_OFF	n/a	n/a	TRUMPET	n/a	5	9	[0, 0, 0]	n/a	catFR1	0	R1278E
1091.457	1.618	1097842	WORD	n/a	wordpools/wordpool_categorized_EN.txt	BANJO	Instruments	6	9	[0, 0, 0]	n/a	catFR1	0	R1278E
1093.075	0.932	1099460	WORD_OFF	n/a	n/a	BANJO	n/a	6	9	[0, 0, 0]	n/a	catFR1	0	R1278E
1094.007	1.617	1100392	WORD	n/a	wordpools/wordpool_categorized_EN.txt	FOOT	BodyParts	7	9	[0, 0, 0]	n/a	catFR1	0	R1278E
1095.624	0.85	1102009	WORD_OFF	n/a	n/a	FOOT	n/a	7	9	[0, 0, 0]	n/a	catFR1	0	R1278E
1096.474	1.618	1102859	WORD	n/a	wordpools/wordpool_categorized_EN.txt	TOE	BodyParts	8	9	[0, 0, 0]	n/a	catFR1	0	R1278E
1098.092	0.916	1104477	WORD_OFF	n/a	n/a	TOE	n/a	8	9	[0, 0, 0]	n/a	catFR1	0	R1278E
1099.008	1.617	1105393	WORD	n/a	wordpools/wordpool_categorized_EN.txt	DRIZZLE	Weather	9	9	[0, 0, 0]	n/a	catFR1	0	R1278E
1100.625	0.95	1107010	WORD_OFF	n/a	n/a	DRIZZLE	n/a	9	9	[0, 0, 0]	n/a	catFR1	0	R1278E
1101.575	1.601	1107960	WORD	n/a	wordpools/wordpool_categorized_EN.txt	FOG	Weather	10	9	[0, 0, 0]	n/a	catFR1	0	R1278E
1103.176	0.967	1109561	WORD_OFF	n/a	n/a	FOG	n/a	10	9	[0, 0, 0]	n/a	catFR1	0	R1278E
1104.143	1.616	1110528	WORD	n/a	wordpools/wordpool_categorized_EN.txt	ORGAN	Instruments	11	9	[0, 0, 0]	n/a	catFR1	0	R1278E
1105.759	0.784	1112144	WORD_OFF	n/a	n/a	ORGAN	n/a	11	9	[0, 0, 0]	n/a	catFR1	0	R1278E
1106.543	1.618	1112928	WORD	n/a	wordpools/wordpool_categorized_EN.txt	GUITAR	Instruments	12	9	[0, 0, 0]	n/a	catFR1	0	R1278E
1108.161	0.0	1114546	ENCODING_END	n/a	n/a	n/a	n/a	-999	9	[0, 0, 0]	n/a	catFR1	0	R1278E
1108.161	0.179	1114546	WORD_OFF	n/a	n/a	GUITAR	n/a	12	9	[0, 0, 0]	n/a	catFR1	0	R1278E
1108.34	0.0	1114725	DISTRACT_START	n/a	n/a	n/a	n/a	-999	9	[0, 0, 0]	n/a	catFR1	0	R1278E
1108.34	0.02	1114725	START	n/a	n/a	n/a	n/a	-999	9	[-999, -999, -999]	n/a	catFR1	0	R1278E
1108.36	11.102	1114745	PROB	11.102	n/a	n/a	n/a	-999	9	[6, 5, 8]	19	catFR1	0	R1278E
1119.462	5.417	1125846	PROB	5.417	n/a	n/a	n/a	-999	9	[2, 9, 6]	17	catFR1	0	R1278E
1124.879	8.844	1131263	PROB	8.844	n/a	n/a	n/a	-999	9	[5, 6, 4]	15	catFR1	0	R1278E
1133.723	0.008	1140107	STOP	n/a	n/a	n/a	n/a	-999	9	[-999, -999, -999]	n/a	catFR1	0	R1278E
1133.731	0.683	1140115	DISTRACT_END	n/a	n/a	n/a	n/a	-999	9	[0, 0, 0]	n/a	catFR1	0	R1278E
1134.414	0.518	1140798	RETRIEVAL_ORIENT	n/a	n/a	n/a	n/a	-999	9	[0, 0, 0]	n/a	catFR1	0	R1278E
1134.932	1.629	1141316	REC_START	n/a	n/a	n/a	n/a	-999	9	[0, 0, 0]	n/a	catFR1	0	R1278E
1136.561	3.318	1142945	REC_WORD	3.318	n/a	FINGERS	BodyParts	1	9	[0, 0, 0]	n/a	catFR1	0	R1278E
1139.879	2.889	1146262	REC_WORD	2.889	n/a	TOE	BodyParts	8	9	[0, 0, 0]	n/a	catFR1	0	R1278E
1142.768	3.819	1149151	REC_WORD	3.819	n/a	DRIZZLE	Weather	9	9	[0, 0, 0]	n/a	catFR1	0	R1278E
1146.587	18.354	1152970	REC_WORD	18.354	n/a	ARM	BodyParts	2	9	[0, 0, 0]	n/a	catFR1	0	R1278E
1164.941	5.096	1171323	REC_END	n/a	n/a	n/a	n/a	-999	9	[0, 0, 0]	n/a	catFR1	0	R1278E
1170.037	0.5	1176419	TRIAL	n/a	n/a	n/a	n/a	-999	10	[0, 0, 0]	n/a	catFR1	0	R1278E
1170.537	10.428	1176919	COUNTDOWN_START	n/a	n/a	n/a	n/a	-999	10	[0, 0, 0]	n/a	catFR1	0	R1278E
1180.965	0.007	1187347	COUNTDOWN_END	n/a	n/a	n/a	n/a	-999	10	[0, 0, 0]	n/a	catFR1	0	R1278E
1180.972	1.617	1187354	ORIENT	n/a	n/a	n/a	n/a	-999	10	[0, 0, 0]	n/a	catFR1	0	R1278E
1182.589	2.117	1188971	ORIENT_OFF	n/a	n/a	n/a	n/a	-999	10	[0, 0, 0]	n/a	catFR1	0	R1278E
1184.706	1.617	1191088	WORD	n/a	wordpools/wordpool_categorized_EN.txt	PUDDING	Desserts	1	10	[0, 0, 0]	n/a	catFR1	0	R1278E
1186.323	0.918	1192705	WORD_OFF	n/a	n/a	PUDDING	n/a	1	10	[0, 0, 0]	n/a	catFR1	0	R1278E
1187.241	1.616	1193623	WORD	n/a	wordpools/wordpool_categorized_EN.txt	BROWNIES	Desserts	2	10	[0, 0, 0]	n/a	catFR1	0	R1278E
1188.857	0.95	1195239	WORD_OFF	n/a	n/a	BROWNIES	n/a	2	10	[0, 0, 0]	n/a	catFR1	0	R1278E
1189.807	1.617	1196189	WORD	n/a	wordpools/wordpool_categorized_EN.txt	DRESSER	Furniture	3	10	[0, 0, 0]	n/a	catFR1	0	R1278E
1191.424	0.867	1197805	WORD_OFF	n/a	n/a	DRESSER	n/a	3	10	[0, 0, 0]	n/a	catFR1	0	R1278E
1192.291	1.617	1198672	WORD	n/a	wordpools/wordpool_categorized_EN.txt	COUCH	Furniture	4	10	[0, 0, 0]	n/a	catFR1	0	R1278E
1193.908	0.817	1200289	WORD_OFF	n/a	n/a	COUCH	n/a	4	10	[0, 0, 0]	n/a	catFR1	0	R1278E
1194.725	1.617	1201106	WORD	n/a	wordpools/wordpool_categorized_EN.txt	BEE	Insects	5	10	[0, 0, 0]	n/a	catFR1	0	R1278E
1196.342	0.851	1202723	WORD_OFF	n/a	n/a	BEE	n/a	5	10	[0, 0, 0]	n/a	catFR1	0	R1278E
1197.193	1.616	1203574	WORD	n/a	wordpools/wordpool_categorized_EN.txt	FLY	Insects	6	10	[0, 0, 0]	n/a	catFR1	0	R1278E
1198.809	0.933	1205190	WORD_OFF	n/a	n/a	FLY	n/a	6	10	[0, 0, 0]	n/a	catFR1	0	R1278E
1199.742	1.617	1206123	WORD	n/a	wordpools/wordpool_categorized_EN.txt	PIE	Desserts	7	10	[0, 0, 0]	n/a	catFR1	0	R1278E
1201.359	0.934	1207740	WORD_OFF	n/a	n/a	PIE	n/a	7	10	[0, 0, 0]	n/a	catFR1	0	R1278E
1202.293	1.617	1208674	WORD	n/a	wordpools/wordpool_categorized_EN.txt	FUDGE	Desserts	8	10	[0, 0, 0]	n/a	catFR1	0	R1278E
1203.91	0.967	1210291	WORD_OFF	n/a	n/a	FUDGE	n/a	8	10	[0, 0, 0]	n/a	catFR1	0	R1278E
1204.877	1.616	1211258	WORD	n/a	wordpools/wordpool_categorized_EN.txt	DESK	Furniture	9	10	[0, 0, 0]	n/a	catFR1	0	R1278E
1206.493	0.867	1212874	WORD_OFF	n/a	n/a	DESK	n/a	9	10	[0, 0, 0]	n/a	catFR1	0	R1278E
1207.36	1.617	1213741	WORD	n/a	wordpools/wordpool_categorized_EN.txt	BOOKCASE	Furniture	10	10	[0, 0, 0]	n/a	catFR1	0	R1278E
1208.977	0.784	1215358	WORD_OFF	n/a	n/a	BOOKCASE	n/a	10	10	[0, 0, 0]	n/a	catFR1	0	R1278E
1209.761	1.617	1216142	WORD	n/a	wordpools/wordpool_categorized_EN.txt	ANT	Insects	11	10	[0, 0, 0]	n/a	catFR1	0	R1278E
1211.378	0.851	1217759	WORD_OFF	n/a	n/a	ANT	n/a	11	10	[0, 0, 0]	n/a	catFR1	0	R1278E
1212.229	1.616	1218610	WORD	n/a	wordpools/wordpool_categorized_EN.txt	MOSQUITO	Insects	12	10	[0, 0, 0]	n/a	catFR1	0	R1278E
1213.845	0.0	1220226	WORD_OFF	n/a	n/a	MOSQUITO	n/a	12	10	[0, 0, 0]	n/a	catFR1	0	R1278E
1213.845	0.168	1220226	ENCODING_END	n/a	n/a	n/a	n/a	-999	10	[0, 0, 0]	n/a	catFR1	0	R1278E
1214.013	0.0	1220394	DISTRACT_START	n/a	n/a	n/a	n/a	-999	10	[0, 0, 0]	n/a	catFR1	0	R1278E
1214.013	0.015	1220394	START	n/a	n/a	n/a	n/a	-999	10	[-999, -999, -999]	n/a	catFR1	0	R1278E
1214.028	2.801	1220409	PROB	2.801	n/a	n/a	n/a	-999	10	[2, 5, 1]	8	catFR1	0	R1278E
1216.829	7.001	1223209	PROB	7.001	n/a	n/a	n/a	-999	10	[7, 3, 9]	19	catFR1	0	R1278E
1223.83	10.558	1230210	PROB	10.558	n/a	n/a	n/a	-999	10	[8, 6, 9]	23	catFR1	0	R1278E
1234.388	0.011	1240768	STOP	n/a	n/a	n/a	n/a	-999	10	[-999, -999, -999]	n/a	catFR1	0	R1278E
1234.399	0.566	1240779	DISTRACT_END	n/a	n/a	n/a	n/a	-999	10	[0, 0, 0]	n/a	catFR1	0	R1278E
1234.965	0.518	1241345	RETRIEVAL_ORIENT	n/a	n/a	n/a	n/a	-999	10	[0, 0, 0]	n/a	catFR1	0	R1278E
1235.483	2.767	1241863	REC_START	n/a	n/a	n/a	n/a	-999	10	[0, 0, 0]	n/a	catFR1	0	R1278E
1238.25	2.912	1244630	REC_WORD	2.912	n/a	PUDDING	Desserts	1	10	[0, 0, 0]	n/a	catFR1	0	R1278E
1241.162	3.443	1247542	REC_WORD	3.443	n/a	BROWNIES	Desserts	2	10	[0, 0, 0]	n/a	catFR1	0	R1278E
1244.605	2.773	1250984	REC_WORD	2.773	n/a	BOOKCASE	Furniture	10	10	[0, 0, 0]	n/a	catFR1	0	R1278E
1247.378	3.061	1253757	REC_WORD	3.061	n/a	MOSQUITO	Insects	12	10	[0, 0, 0]	n/a	catFR1	0	R1278E
1250.439	3.114	1256818	REC_WORD	3.114	n/a	ANT	Insects	11	10	[0, 0, 0]	n/a	catFR1	0	R1278E
1253.553	11.939	1259932	REC_WORD	11.939	n/a	DESK	Furniture	9	10	[0, 0, 0]	n/a	catFR1	0	R1278E
1265.492	5.313	1271871	REC_END	n/a	n/a	n/a	n/a	-999	10	[0, 0, 0]	n/a	catFR1	0	R1278E
1270.805	0.5	1277183	TRIAL	n/a	n/a	n/a	n/a	-999	11	[0, 0, 0]	n/a	catFR1	0	R1278E
1271.305	10.428	1277683	COUNTDOWN_START	n/a	n/a	n/a	n/a	-999	11	[0, 0, 0]	n/a	catFR1	0	R1278E
1281.733	0.007	1288111	COUNTDOWN_END	n/a	n/a	n/a	n/a	-999	11	[0, 0, 0]	n/a	catFR1	0	R1278E
1281.74	1.617	1288118	ORIENT	n/a	n/a	n/a	n/a	-999	11	[0, 0, 0]	n/a	catFR1	0	R1278E
1283.357	2.067	1289735	ORIENT_OFF	n/a	n/a	n/a	n/a	-999	11	[0, 0, 0]	n/a	catFR1	0	R1278E
1285.424	1.617	1291802	WORD	n/a	wordpools/wordpool_categorized_EN.txt	KNIFE	KitchenTools	1	11	[0, 0, 0]	n/a	catFR1	0	R1278E
1287.041	1.018	1293419	WORD_OFF	n/a	n/a	KNIFE	n/a	1	11	[0, 0, 0]	n/a	catFR1	0	R1278E
1288.059	1.616	1294437	WORD	n/a	wordpools/wordpool_categorized_EN.txt	FORK	KitchenTools	2	11	[0, 0, 0]	n/a	catFR1	0	R1278E
1289.675	0.85	1296053	WORD_OFF	n/a	n/a	FORK	n/a	2	11	[0, 0, 0]	n/a	catFR1	0	R1278E
1290.525	1.618	1296903	WORD	n/a	wordpools/wordpool_categorized_EN.txt	WHALE	OceanAnimals	3	11	[0, 0, 0]	n/a	catFR1	0	R1278E
1292.143	0.782	1298521	WORD_OFF	n/a	n/a	WHALE	n/a	3	11	[0, 0, 0]	n/a	catFR1	0	R1278E
1292.925	1.617	1299303	WORD	n/a	wordpools/wordpool_categorized_EN.txt	OCTOPUS	OceanAnimals	4	11	[0, 0, 0]	n/a	catFR1	0	R1278E
1294.542	0.784	1300919	WORD_OFF	n/a	n/a	OCTOPUS	n/a	4	11	[0, 0, 0]	n/a	catFR1	0	R1278E
1295.326	1.617	1301703	WORD	n/a	wordpools/wordpool_categorized_EN.txt	WOODS	Landscapes	5	11	[0, 0, 0]	n/a	catFR1	0	R1278E
1296.943	0.85	1303320	WORD_OFF	n/a	n/a	WOODS	n/a	5	11	[0, 0, 0]	n/a	catFR1	0	R1278E
1297.793	1.617	1304170	WORD	n/a	wordpools/wordpool_categorized_EN.txt	RIVER	Landscapes	6	11	[0, 0, 0]	n/a	catFR1	0	R1278E
1299.41	1.0	1305787	WORD_OFF	n/a	n/a	RIVER	n/a	6	11	[0, 0, 0]	n/a	catFR1	0	R1278E
1300.41	1.617	1306787	WORD	n/a	wordpools/wordpool_categorized_EN.txt	WHISK	KitchenTools	7	11	[0, 0, 0]	n/a	catFR1	0	R1278E
1302.027	0.883	1308404	WORD_OFF	n/a	n/a	WHISK	n/a	7	11	[0, 0, 0]	n/a	catFR1	0	R1278E
1302.91	1.617	1309287	WORD	n/a	wordpools/wordpool_categorized_EN.txt	TONGS	KitchenTools	8	11	[0, 0, 0]	n/a	catFR1	0	R1278E
1304.527	0.851	1310904	WORD_OFF	n/a	n/a	TONGS	n/a	8	11	[0, 0, 0]	n/a	catFR1	0	R1278E
1305.378	1.616	1311755	WORD	n/a	wordpools/wordpool_categorized_EN.txt	LOBSTER	OceanAnimals	9	11	[0, 0, 0]	n/a	catFR1	0	R1278E
1306.994	0.901	1313371	WORD_OFF	n/a	n/a	LOBSTER	n/a	9	11	[0, 0, 0]	n/a	catFR1	0	R1278E
1307.895	1.617	1314272	WORD	n/a	wordpools/wordpool_categorized_EN.txt	CRAB	OceanAnimals	10	11	[0, 0, 0]	n/a	catFR1	0	R1278E
1309.512	0.783	1315889	WORD_OFF	n/a	n/a	CRAB	n/a	10	11	[0, 0, 0]	n/a	catFR1	0	R1278E
1310.295	1.617	1316672	WORD	n/a	wordpools/wordpool_categorized_EN.txt	ISLAND	Landscapes	11	11	[0, 0, 0]	n/a	catFR1	0	R1278E
1311.912	0.95	1318289	WORD_OFF	n/a	n/a	ISLAND	n/a	11	11	[0, 0, 0]	n/a	catFR1	0	R1278E
1312.862	1.617	1319239	WORD	n/a	wordpools/wordpool_categorized_EN.txt	CREEK	Landscapes	12	11	[0, 0, 0]	n/a	catFR1	0	R1278E
1314.479	0.0	1320856	ENCODING_END	n/a	n/a	n/a	n/a	-999	11	[0, 0, 0]	n/a	catFR1	0	R1278E
1314.479	0.134	1320856	WORD_OFF	n/a	n/a	CREEK	n/a	12	11	[0, 0, 0]	n/a	catFR1	0	R1278E
1314.613	0.0	1320990	DISTRACT_START	n/a	n/a	n/a	n/a	-999	11	[0, 0, 0]	n/a	catFR1	0	R1278E
1314.613	0.016	1320990	START	n/a	n/a	n/a	n/a	-999	11	[-999, -999, -999]	n/a	catFR1	0	R1278E
1314.629	5.084	1321006	PROB	5.084	n/a	n/a	n/a	-999	11	[4, 7, 1]	12	catFR1	0	R1278E
1319.713	6.352	1326089	PROB	6.352	n/a	n/a	n/a	-999	11	[3, 7, 4]	14	catFR1	0	R1278E
1326.065	6.517	1332441	PROB	6.517	n/a	n/a	n/a	-999	11	[8, 8, 5]	21	catFR1	0	R1278E
1332.582	5.275	1338958	PROB	5.275	n/a	n/a	n/a	-999	11	[7, 1, 5]	13	catFR1	0	R1278E
1337.857	0.01	1344233	STOP	n/a	n/a	n/a	n/a	-999	11	[-999, -999, -999]	n/a	catFR1	0	R1278E
1337.867	0.7	1344243	DISTRACT_END	n/a	n/a	n/a	n/a	-999	11	[0, 0, 0]	n/a	catFR1	0	R1278E
1338.567	0.518	1344943	RETRIEVAL_ORIENT	n/a	n/a	n/a	n/a	-999	11	[0, 0, 0]	n/a	catFR1	0	R1278E
1339.085	1.974	1345461	REC_START	n/a	n/a	n/a	n/a	-999	11	[0, 0, 0]	n/a	catFR1	0	R1278E
1341.059	2.197	1347435	REC_WORD	2.197	n/a	KNIFE	KitchenTools	1	11	[0, 0, 0]	n/a	catFR1	0	R1278E
1343.256	5.022	1349632	REC_WORD	5.022	n/a	TONGS	KitchenTools	8	11	[0, 0, 0]	n/a	catFR1	0	R1278E
1348.278	8.567	1354653	REC_WORD	8.567	n/a	OCTOPUS	OceanAnimals	4	11	[0, 0, 0]	n/a	catFR1	0	R1278E
1356.845	1.222	1363220	REC_WORD	1.222	n/a	FORK	KitchenTools	2	11	[0, 0, 0]	n/a	catFR1	0	R1278E
1358.067	8.78	1364442	REC_WORD_VV	8.78	n/a	<>	n/a	-999	11	[0, 0, 0]	n/a	catFR1	0	R1278E
1366.847	2.247	1373222	REC_WORD_VV	2.247	n/a	<>	n/a	-999	11	[0, 0, 0]	n/a	catFR1	0	R1278E
1369.094	43.369	1375469	REC_END	n/a	n/a	n/a	n/a	-999	11	[0, 0, 0]	n/a	catFR1	0	R1278E
1412.463	0.5	1418836	TRIAL	n/a	n/a	n/a	n/a	-999	12	[0, 0, 0]	n/a	catFR1	0	R1278E
1412.963	10.428	1419336	COUNTDOWN_START	n/a	n/a	n/a	n/a	-999	12	[0, 0, 0]	n/a	catFR1	0	R1278E
1423.391	0.007	1429763	COUNTDOWN_END	n/a	n/a	n/a	n/a	-999	12	[0, 0, 0]	n/a	catFR1	0	R1278E
1423.398	1.617	1429770	ORIENT	n/a	n/a	n/a	n/a	-999	12	[0, 0, 0]	n/a	catFR1	0	R1278E
1425.015	2.235	1431387	ORIENT_OFF	n/a	n/a	n/a	n/a	-999	12	[0, 0, 0]	n/a	catFR1	0	R1278E
1427.25	1.616	1433622	WORD	n/a	wordpools/wordpool_categorized_EN.txt	DOOR	Building	1	12	[0, 0, 0]	n/a	catFR1	0	R1278E
1428.866	0.767	1435238	WORD_OFF	n/a	n/a	DOOR	n/a	1	12	[0, 0, 0]	n/a	catFR1	0	R1278E
1429.633	1.617	1436005	WORD	n/a	wordpools/wordpool_categorized_EN.txt	FOUNDATION	Building	2	12	[0, 0, 0]	n/a	catFR1	0	R1278E
1431.25	0.884	1437622	WORD_OFF	n/a	n/a	FOUNDATION	n/a	2	12	[0, 0, 0]	n/a	catFR1	0	R1278E
1432.134	1.616	1438506	WORD	n/a	wordpools/wordpool_categorized_EN.txt	OCEAN	Landscapes	3	12	[0, 0, 0]	n/a	catFR1	0	R1278E
1433.75	0.967	1440122	WORD_OFF	n/a	n/a	OCEAN	n/a	3	12	[0, 0, 0]	n/a	catFR1	0	R1278E
1434.717	1.617	1441089	WORD	n/a	wordpools/wordpool_categorized_EN.txt	HILLS	Landscapes	4	12	[0, 0, 0]	n/a	catFR1	0	R1278E
1436.334	0.851	1442706	WORD_OFF	n/a	n/a	HILLS	n/a	4	12	[0, 0, 0]	n/a	catFR1	0	R1278E
1437.185	1.616	1443557	WORD	n/a	wordpools/wordpool_categorized_EN.txt	MOTORCYCLE	Vehicles	5	12	[0, 0, 0]	n/a	catFR1	0	R1278E
1438.801	0.917	1445173	WORD_OFF	n/a	n/a	MOTORCYCLE	n/a	5	12	[0, 0, 0]	n/a	catFR1	0	R1278E
1439.718	1.617	1446090	WORD	n/a	wordpools/wordpool_categorized_EN.txt	BOAT	Vehicles	6	12	[0, 0, 0]	n/a	catFR1	0	R1278E
1441.335	0.901	1447707	WORD_OFF	n/a	n/a	BOAT	n/a	6	12	[0, 0, 0]	n/a	catFR1	0	R1278E
1442.236	1.616	1448608	WORD	n/a	wordpools/wordpool_categorized_EN.txt	FOREST	Landscapes	7	12	[0, 0, 0]	n/a	catFR1	0	R1278E
1443.852	0.883	1450224	WORD_OFF	n/a	n/a	FOREST	n/a	7	12	[0, 0, 0]	n/a	catFR1	0	R1278E
1444.735	1.617	1451107	WORD	n/a	wordpools/wordpool_categorized_EN.txt	VALLEY	Landscapes	8	12	[0, 0, 0]	n/a	catFR1	0	R1278E
1446.352	0.918	1452724	WORD_OFF	n/a	n/a	VALLEY	n/a	8	12	[0, 0, 0]	n/a	catFR1	0	R1278E
1447.27	1.616	1453641	WORD	n/a	wordpools/wordpool_categorized_EN.txt	BATHROOM	Building	9	12	[0, 0, 0]	n/a	catFR1	0	R1278E
1448.886	0.85	1455257	WORD_OFF	n/a	n/a	BATHROOM	n/a	9	12	[0, 0, 0]	n/a	catFR1	0	R1278E
1449.736	1.617	1456107	WORD	n/a	wordpools/wordpool_categorized_EN.txt	STAIRS	Building	10	12	[0, 0, 0]	n/a	catFR1	0	R1278E
1451.353	0.867	1457724	WORD_OFF	n/a	n/a	STAIRS	n/a	10	12	[0, 0, 0]	n/a	catFR1	0	R1278E
1452.22	1.617	1458591	WORD	n/a	wordpools/wordpool_categorized_EN.txt	MOPED	Vehicles	11	12	[0, 0, 0]	n/a	catFR1	0	R1278E
1453.837	0.917	1460208	WORD_OFF	n/a	n/a	MOPED	n/a	11	12	[0, 0, 0]	n/a	catFR1	0	R1278E
1454.754	1.617	1461125	WORD	n/a	wordpools/wordpool_categorized_EN.txt	PLANE	Vehicles	12	12	[0, 0, 0]	n/a	catFR1	0	R1278E
1456.371	0.0	1462742	ENCODING_END	n/a	n/a	n/a	n/a	-999	12	[0, 0, 0]	n/a	catFR1	0	R1278E
1456.371	0.173	1462742	WORD_OFF	n/a	n/a	PLANE	n/a	12	12	[0, 0, 0]	n/a	catFR1	0	R1278E
1456.544	0.001	1462915	DISTRACT_START	n/a	n/a	n/a	n/a	-999	12	[0, 0, 0]	n/a	catFR1	0	R1278E
1456.545	0.009	1462916	START	n/a	n/a	n/a	n/a	-999	12	[-999, -999, -999]	n/a	catFR1	0	R1278E
1456.554	6.118	1462925	PROB	6.118	n/a	n/a	n/a	-999	12	[8, 6, 1]	15	catFR1	0	R1278E
1462.672	7.485	1469043	PROB	7.485	n/a	n/a	n/a	-999	12	[8, 2, 5]	15	catFR1	0	R1278E
1470.157	5.184	1476528	PROB	5.184	n/a	n/a	n/a	-999	12	[6, 3, 3]	12	catFR1	0	R1278E
1475.341	8.886	1481711	PROB	8.886	n/a	n/a	n/a	-999	12	[5, 1, 8]	14	catFR1	0	R1278E
1484.227	0.016	1490597	STOP	n/a	n/a	n/a	n/a	-999	12	[-999, -999, -999]	n/a	catFR1	0	R1278E
1484.243	0.616	1490613	DISTRACT_END	n/a	n/a	n/a	n/a	-999	12	[0, 0, 0]	n/a	catFR1	0	R1278E
1484.859	0.517	1491229	RETRIEVAL_ORIENT	n/a	n/a	n/a	n/a	-999	12	[0, 0, 0]	n/a	catFR1	0	R1278E
1485.376	30.0	1491746	REC_START	n/a	n/a	n/a	n/a	-999	12	[0, 0, 0]	n/a	catFR1	0	R1278E
1515.376	0.009	1521745	REC_WORD_VV	0.009	n/a	<>	n/a	-999	12	[0, 0, 0]	n/a	catFR1	0	R1278E
1515.385	174.761	1521754	REC_END	n/a	n/a	n/a	n/a	-999	12	[0, 0, 0]	n/a	catFR1	0	R1278E
1690.146	0.5	1696508	TRIAL	n/a	n/a	n/a	n/a	-999	13	[0, 0, 0]	n/a	catFR1	0	R1278E
1690.646	10.428	1697008	COUNTDOWN_START	n/a	n/a	n/a	n/a	-999	13	[0, 0, 0]	n/a	catFR1	0	R1278E
1701.074	0.007	1707436	COUNTDOWN_END	n/a	n/a	n/a	n/a	-999	13	[0, 0, 0]	n/a	catFR1	0	R1278E
1701.081	1.616	1707443	ORIENT	n/a	n/a	n/a	n/a	-999	13	[0, 0, 0]	n/a	catFR1	0	R1278E
1702.697	2.351	1709059	ORIENT_OFF	n/a	n/a	n/a	n/a	-999	13	[0, 0, 0]	n/a	catFR1	0	R1278E
1705.048	1.616	1711409	WORD	n/a	wordpools/wordpool_categorized_EN.txt	CARROT	Vegetables	1	13	[0, 0, 0]	n/a	catFR1	0	R1278E
1706.664	1.001	1713025	WORD_OFF	n/a	n/a	CARROT	n/a	1	13	[0, 0, 0]	n/a	catFR1	0	R1278E
1707.665	1.616	1714026	WORD	n/a	wordpools/wordpool_categorized_EN.txt	CAULIFLOWER	Vegetables	2	13	[0, 0, 0]	n/a	catFR1	0	R1278E
1709.281	0.985	1715642	WORD_OFF	n/a	n/a	CAULIFLOWER	n/a	2	13	[0, 0, 0]	n/a	catFR1	0	R1278E
1710.266	1.616	1716627	WORD	n/a	wordpools/wordpool_categorized_EN.txt	SANDER	Tools	3	13	[0, 0, 0]	n/a	catFR1	0	R1278E
1711.882	0.783	1718243	WORD_OFF	n/a	n/a	SANDER	n/a	3	13	[0, 0, 0]	n/a	catFR1	0	R1278E
1712.665	1.617	1719026	WORD	n/a	wordpools/wordpool_categorized_EN.txt	SCREWDRIVER	Tools	4	13	[0, 0, 0]	n/a	catFR1	0	R1278E
1714.282	0.951	1720643	WORD_OFF	n/a	n/a	SCREWDRIVER	n/a	4	13	[0, 0, 0]	n/a	catFR1	0	R1278E
1715.233	1.616	1721594	WORD	n/a	wordpools/wordpool_categorized_EN.txt	LAKE	Landscapes	5	13	[0, 0, 0]	n/a	catFR1	0	R1278E
1716.849	0.817	1723210	WORD_OFF	n/a	n/a	LAKE	n/a	5	13	[0, 0, 0]	n/a	catFR1	0	R1278E
1717.666	1.601	1724027	WORD	n/a	wordpools/wordpool_categorized_EN.txt	MOUNTAIN	Landscapes	6	13	[0, 0, 0]	n/a	catFR1	0	R1278E
1719.267	0.934	1725628	WORD_OFF	n/a	n/a	MOUNTAIN	n/a	6	13	[0, 0, 0]	n/a	catFR1	0	R1278E
1720.201	1.616	1726562	WORD	n/a	wordpools/wordpool_categorized_EN.txt	WRENCH	Tools	7	13	[0, 0, 0]	n/a	catFR1	0	R1278E
1721.817	0.767	1728178	WORD_OFF	n/a	n/a	WRENCH	n/a	7	13	[0, 0, 0]	n/a	catFR1	0	R1278E
1722.584	1.618	1728945	WORD	n/a	wordpools/wordpool_categorized_EN.txt	SHOVEL	Tools	8	13	[0, 0, 0]	n/a	catFR1	0	R1278E
1724.202	0.766	1730563	WORD_OFF	n/a	n/a	SHOVEL	n/a	8	13	[0, 0, 0]	n/a	catFR1	0	R1278E
1724.968	1.616	1731329	WORD	n/a	wordpools/wordpool_categorized_EN.txt	LETTUCE	Vegetables	9	13	[0, 0, 0]	n/a	catFR1	0	R1278E
1726.584	0.967	1732945	WORD_OFF	n/a	n/a	LETTUCE	n/a	9	13	[0, 0, 0]	n/a	catFR1	0	R1278E
1727.551	1.601	1733912	WORD	n/a	wordpools/wordpool_categorized_EN.txt	CUCUMBER	Vegetables	10	13	[0, 0, 0]	n/a	catFR1	0	R1278E
1729.152	0.866	1735512	WORD_OFF	n/a	n/a	CUCUMBER	n/a	10	13	[0, 0, 0]	n/a	catFR1	0	R1278E
1730.018	1.617	1736378	WORD	n/a	wordpools/wordpool_categorized_EN.txt	STREAM	Landscapes	11	13	[0, 0, 0]	n/a	catFR1	0	R1278E
1731.635	0.884	1737995	WORD_OFF	n/a	n/a	STREAM	n/a	11	13	[0, 0, 0]	n/a	catFR1	0	R1278E
1732.519	1.618	1738879	WORD	n/a	wordpools/wordpool_categorized_EN.txt	BEACH	Landscapes	12	13	[0, 0, 0]	n/a	catFR1	0	R1278E
1734.137	0.0	1740497	ENCODING_END	n/a	n/a	n/a	n/a	-999	13	[0, 0, 0]	n/a	catFR1	0	R1278E
1734.137	0.135	1740497	WORD_OFF	n/a	n/a	BEACH	n/a	12	13	[0, 0, 0]	n/a	catFR1	0	R1278E
1734.272	0.0	1740632	DISTRACT_START	n/a	n/a	n/a	n/a	-999	13	[0, 0, 0]	n/a	catFR1	0	R1278E
1734.272	0.014	1740632	START	n/a	n/a	n/a	n/a	-999	13	[-999, -999, -999]	n/a	catFR1	0	R1278E
1734.286	5.885	1740646	PROB	5.885	n/a	n/a	n/a	-999	13	[6, 3, 8]	17	catFR1	0	R1278E
1740.171	2.85	1746531	PROB	2.85	n/a	n/a	n/a	-999	13	[8, 8, 1]	17	catFR1	0	R1278E
1743.021	2.534	1749381	PROB	2.534	n/a	n/a	n/a	-999	13	[5, 2, 5]	12	catFR1	0	R1278E
1745.555	6.0	1751915	PROB	6.0	n/a	n/a	n/a	-999	13	[8, 2, 5]	15	catFR1	0	R1278E
1751.555	3.806	1757915	PROB	3.806	n/a	n/a	n/a	-999	13	[2, 5, 4]	11	catFR1	0	R1278E
1755.361	0.012	1761720	STOP	n/a	n/a	n/a	n/a	-999	13	[-999, -999, -999]	n/a	catFR1	0	R1278E
1755.373	0.6	1761732	DISTRACT_END	n/a	n/a	n/a	n/a	-999	13	[0, 0, 0]	n/a	catFR1	0	R1278E
1755.973	0.517	1762332	RETRIEVAL_ORIENT	n/a	n/a	n/a	n/a	-999	13	[0, 0, 0]	n/a	catFR1	0	R1278E
1756.49	1.884	1762849	REC_START	n/a	n/a	n/a	n/a	-999	13	[0, 0, 0]	n/a	catFR1	0	R1278E
1758.374	2.029	1764733	REC_WORD	2.029	n/a	SCREWDRIVER	Tools	4	13	[0, 0, 0]	n/a	catFR1	0	R1278E
1760.403	1.47	1766762	REC_WORD	1.47	n/a	WRENCH	Tools	7	13	[0, 0, 0]	n/a	catFR1	0	R1278E
1761.873	0.545	1768232	REC_WORD_VV	0.545	n/a	<>	n/a	-999	13	[0, 0, 0]	n/a	catFR1	0	R1278E
1762.418	1.912	1768777	REC_WORD	1.912	n/a	SHOVEL	Tools	8	13	[0, 0, 0]	n/a	catFR1	0	R1278E
1764.33	2.476	1770689	REC_WORD	2.476	n/a	STREAM	Landscapes	11	13	[0, 0, 0]	n/a	catFR1	0	R1278E
1766.806	8.37	1773165	REC_WORD	8.37	n/a	RIVER	n/a	-999	13	[0, 0, 0]	n/a	catFR1	0	R1278E
1775.176	2.662	1781535	REC_WORD	2.662	n/a	CARROT	Vegetables	1	13	[0, 0, 0]	n/a	catFR1	0	R1278E
1777.838	8.661	1784197	REC_WORD	8.661	n/a	CAULIFLOWER	Vegetables	2	13	[0, 0, 0]	n/a	catFR1	0	R1278E
1786.499	9.348	1792857	REC_END	n/a	n/a	n/a	n/a	-999	13	[0, 0, 0]	n/a	catFR1	0	R1278E
1795.847	0.5	1802205	TRIAL	n/a	n/a	n/a	n/a	-999	14	[0, 0, 0]	n/a	catFR1	0	R1278E
1796.347	10.428	1802705	COUNTDOWN_START	n/a	n/a	n/a	n/a	-999	14	[0, 0, 0]	n/a	catFR1	0	R1278E
1806.775	0.007	1813132	COUNTDOWN_END	n/a	n/a	n/a	n/a	-999	14	[0, 0, 0]	n/a	catFR1	0	R1278E
1806.782	1.617	1813139	ORIENT	n/a	n/a	n/a	n/a	-999	14	[0, 0, 0]	n/a	catFR1	0	R1278E
1808.399	2.15	1814756	ORIENT_OFF	n/a	n/a	n/a	n/a	-999	14	[0, 0, 0]	n/a	catFR1	0	R1278E
1810.549	1.618	1816906	WORD	n/a	wordpools/wordpool_categorized_EN.txt	SKIRT	Clothing	1	14	[0, 0, 0]	n/a	catFR1	0	R1278E
1812.167	0.866	1818524	WORD_OFF	n/a	n/a	SKIRT	n/a	1	14	[0, 0, 0]	n/a	catFR1	0	R1278E
1813.033	1.617	1819390	WORD	n/a	wordpools/wordpool_categorized_EN.txt	JEANS	Clothing	2	14	[0, 0, 0]	n/a	catFR1	0	R1278E
1814.65	0.817	1821007	WORD_OFF	n/a	n/a	JEANS	n/a	2	14	[0, 0, 0]	n/a	catFR1	0	R1278E
1815.467	1.601	1821824	WORD	n/a	wordpools/wordpool_categorized_EN.txt	COFFEE	Beverages	3	14	[0, 0, 0]	n/a	catFR1	0	R1278E
1817.068	0.899	1823425	WORD_OFF	n/a	n/a	COFFEE	n/a	3	14	[0, 0, 0]	n/a	catFR1	0	R1278E
1817.967	1.617	1824324	WORD	n/a	wordpools/wordpool_categorized_EN.txt	BEER	Beverages	4	14	[0, 0, 0]	n/a	catFR1	0	R1278E
1819.584	0.834	1825941	WORD_OFF	n/a	n/a	BEER	n/a	4	14	[0, 0, 0]	n/a	catFR1	0	R1278E
1820.418	1.617	1826775	WORD	n/a	wordpools/wordpool_categorized_EN.txt	THUNDER	Weather	5	14	[0, 0, 0]	n/a	catFR1	0	R1278E
1822.035	0.783	1828392	WORD_OFF	n/a	n/a	THUNDER	n/a	5	14	[0, 0, 0]	n/a	catFR1	0	R1278E
1822.818	1.617	1829175	WORD	n/a	wordpools/wordpool_categorized_EN.txt	TORNADO	Weather	6	14	[0, 0, 0]	n/a	catFR1	0	R1278E
1824.435	0.95	1830792	WORD_OFF	n/a	n/a	TORNADO	n/a	6	14	[0, 0, 0]	n/a	catFR1	0	R1278E
1825.385	1.617	1831742	WORD	n/a	wordpools/wordpool_categorized_EN.txt	SHORTS	Clothing	7	14	[0, 0, 0]	n/a	catFR1	0	R1278E
1827.002	0.833	1833359	WORD_OFF	n/a	n/a	SHORTS	n/a	7	14	[0, 0, 0]	n/a	catFR1	0	R1278E
1827.835	1.617	1834192	WORD	n/a	wordpools/wordpool_categorized_EN.txt	JACKET	Clothing	8	14	[0, 0, 0]	n/a	catFR1	0	R1278E
1829.452	0.951	1835809	WORD_OFF	n/a	n/a	JACKET	n/a	8	14	[0, 0, 0]	n/a	catFR1	0	R1278E
1830.403	1.617	1836760	WORD	n/a	wordpools/wordpool_categorized_EN.txt	LEMONADE	Beverages	9	14	[0, 0, 0]	n/a	catFR1	0	R1278E
1832.02	1.016	1838376	WORD_OFF	n/a	n/a	LEMONADE	n/a	9	14	[0, 0, 0]	n/a	catFR1	0	R1278E
1833.036	1.617	1839392	WORD	n/a	wordpools/wordpool_categorized_EN.txt	TEA	Beverages	10	14	[0, 0, 0]	n/a	catFR1	0	R1278E
1834.653	0.784	1841009	WORD_OFF	n/a	n/a	TEA	n/a	10	14	[0, 0, 0]	n/a	catFR1	0	R1278E
1835.437	1.618	1841793	WORD	n/a	wordpools/wordpool_categorized_EN.txt	WIND	Weather	11	14	[0, 0, 0]	n/a	catFR1	0	R1278E
1837.055	0.916	1843411	WORD_OFF	n/a	n/a	WIND	n/a	11	14	[0, 0, 0]	n/a	catFR1	0	R1278E
1837.971	1.617	1844327	WORD	n/a	wordpools/wordpool_categorized_EN.txt	THUNDERSTORM	Weather	12	14	[0, 0, 0]	n/a	catFR1	0	R1278E
1839.588	0.0	1845944	ENCODING_END	n/a	n/a	n/a	n/a	-999	14	[0, 0, 0]	n/a	catFR1	0	R1278E
1839.588	0.134	1845944	WORD_OFF	n/a	n/a	THUNDERSTORM	n/a	12	14	[0, 0, 0]	n/a	catFR1	0	R1278E
1839.722	0.001	1846078	DISTRACT_START	n/a	n/a	n/a	n/a	-999	14	[0, 0, 0]	n/a	catFR1	0	R1278E
1839.723	0.015	1846079	START	n/a	n/a	n/a	n/a	-999	14	[-999, -999, -999]	n/a	catFR1	0	R1278E
1839.738	3.984	1846094	PROB	3.984	n/a	n/a	n/a	-999	14	[6, 3, 6]	15	catFR1	0	R1278E
1843.722	3.15	1850078	PROB	3.15	n/a	n/a	n/a	-999	14	[5, 1, 4]	10	catFR1	0	R1278E
1846.872	18.763	1853228	PROB	18.763	n/a	n/a	n/a	-999	14	[8, 9, 8]	23	catFR1	0	R1278E
1865.635	0.007	1871990	STOP	n/a	n/a	n/a	n/a	-999	14	[-999, -999, -999]	n/a	catFR1	0	R1278E
1865.642	0.551	1871997	DISTRACT_END	n/a	n/a	n/a	n/a	-999	14	[0, 0, 0]	n/a	catFR1	0	R1278E
1866.193	0.517	1872548	RETRIEVAL_ORIENT	n/a	n/a	n/a	n/a	-999	14	[0, 0, 0]	n/a	catFR1	0	R1278E
1866.71	2.234	1873065	REC_START	n/a	n/a	n/a	n/a	-999	14	[0, 0, 0]	n/a	catFR1	0	R1278E
1868.944	2.237	1875299	REC_WORD_VV	2.237	n/a	<>	n/a	-999	14	[0, 0, 0]	n/a	catFR1	0	R1278E
1871.181	0.285	1877536	REC_WORD_VV	0.285	n/a	<>	n/a	-999	14	[0, 0, 0]	n/a	catFR1	0	R1278E
1871.466	3.618	1877821	REC_WORD	3.618	n/a	THUNDERSTORM	Weather	12	14	[0, 0, 0]	n/a	catFR1	0	R1278E
1875.084	2.747	1881439	REC_WORD	2.747	n/a	JACKET	Clothing	8	14	[0, 0, 0]	n/a	catFR1	0	R1278E
1877.831	6.918	1884186	REC_WORD	6.918	n/a	TEA	Beverages	10	14	[0, 0, 0]	n/a	catFR1	0	R1278E
1884.749	1.544	1891103	REC_WORD_VV	1.544	n/a	<>	n/a	-999	14	[0, 0, 0]	n/a	catFR1	0	R1278E
1886.293	5.109	1892647	REC_WORD_VV	5.109	n/a	<>	n/a	-999	14	[0, 0, 0]	n/a	catFR1	0	R1278E
1891.402	1.0	1897756	REC_WORD_VV	1.0	n/a	<>	n/a	-999	14	[0, 0, 0]	n/a	catFR1	0	R1278E
1892.402	1.131	1898756	REC_WORD_VV	1.131	n/a	<>	n/a	-999	14	[0, 0, 0]	n/a	catFR1	0	R1278E
1893.533	1.0	1899887	REC_WORD_VV	1.0	n/a	<>	n/a	-999	14	[0, 0, 0]	n/a	catFR1	0	R1278E
1894.533	2.186	1900887	REC_WORD_VV	2.186	n/a	<>	n/a	-999	14	[0, 0, 0]	n/a	catFR1	0	R1278E
1896.719	45.521	1903073	REC_END	n/a	n/a	n/a	n/a	-999	14	[0, 0, 0]	n/a	catFR1	0	R1278E
1942.24	0.5	1948592	TRIAL	n/a	n/a	n/a	n/a	-999	15	[0, 0, 0]	n/a	catFR1	0	R1278E
1942.74	10.428	1949092	COUNTDOWN_START	n/a	n/a	n/a	n/a	-999	15	[0, 0, 0]	n/a	catFR1	0	R1278E
1953.168	0.007	1959520	COUNTDOWN_END	n/a	n/a	n/a	n/a	-999	15	[0, 0, 0]	n/a	catFR1	0	R1278E
1953.175	1.616	1959527	ORIENT	n/a	n/a	n/a	n/a	-999	15	[0, 0, 0]	n/a	catFR1	0	R1278E
1954.791	2.234	1961143	ORIENT_OFF	n/a	n/a	n/a	n/a	-999	15	[0, 0, 0]	n/a	catFR1	0	R1278E
1957.025	1.617	1963377	WORD	n/a	wordpools/wordpool_categorized_EN.txt	BUTTERFLY	Insects	1	15	[0, 0, 0]	n/a	catFR1	0	R1278E
1958.642	0.9	1964994	WORD_OFF	n/a	n/a	BUTTERFLY	n/a	1	15	[0, 0, 0]	n/a	catFR1	0	R1278E
1959.542	1.618	1965894	WORD	n/a	wordpools/wordpool_categorized_EN.txt	GNAT	Insects	2	15	[0, 0, 0]	n/a	catFR1	0	R1278E
1961.16	0.816	1967511	WORD_OFF	n/a	n/a	GNAT	n/a	2	15	[0, 0, 0]	n/a	catFR1	0	R1278E
1961.976	1.617	1968327	WORD	n/a	wordpools/wordpool_categorized_EN.txt	HEAD	BodyParts	3	15	[0, 0, 0]	n/a	catFR1	0	R1278E
1963.593	0.983	1969944	WORD_OFF	n/a	n/a	HEAD	n/a	3	15	[0, 0, 0]	n/a	catFR1	0	R1278E
1964.576	1.618	1970927	WORD	n/a	wordpools/wordpool_categorized_EN.txt	KNEE	BodyParts	4	15	[0, 0, 0]	n/a	catFR1	0	R1278E
1966.194	0.766	1972545	WORD_OFF	n/a	n/a	KNEE	n/a	4	15	[0, 0, 0]	n/a	catFR1	0	R1278E
1966.96	1.617	1973311	WORD	n/a	wordpools/wordpool_categorized_EN.txt	FRISBEE	Toys	5	15	[0, 0, 0]	n/a	catFR1	0	R1278E
1968.577	0.85	1974928	WORD_OFF	n/a	n/a	FRISBEE	n/a	5	15	[0, 0, 0]	n/a	catFR1	0	R1278E
1969.427	1.618	1975778	WORD	n/a	wordpools/wordpool_categorized_EN.txt	SLINKY	Toys	6	15	[0, 0, 0]	n/a	catFR1	0	R1278E
1971.045	0.832	1977396	WORD_OFF	n/a	n/a	SLINKY	n/a	6	15	[0, 0, 0]	n/a	catFR1	0	R1278E
1971.877	1.617	1978228	WORD	n/a	wordpools/wordpool_categorized_EN.txt	SPIDER	Insects	7	15	[0, 0, 0]	n/a	catFR1	0	R1278E
1973.494	0.817	1979845	WORD_OFF	n/a	n/a	SPIDER	n/a	7	15	[0, 0, 0]	n/a	catFR1	0	R1278E
1974.311	1.617	1980662	WORD	n/a	wordpools/wordpool_categorized_EN.txt	BEETLE	Insects	8	15	[0, 0, 0]	n/a	catFR1	0	R1278E
1975.928	0.834	1982279	WORD_OFF	n/a	n/a	BEETLE	n/a	8	15	[0, 0, 0]	n/a	catFR1	0	R1278E
1976.762	1.617	1983113	WORD	n/a	wordpools/wordpool_categorized_EN.txt	HAND	BodyParts	9	15	[0, 0, 0]	n/a	catFR1	0	R1278E
1978.379	0.767	1984730	WORD_OFF	n/a	n/a	HAND	n/a	9	15	[0, 0, 0]	n/a	catFR1	0	R1278E
1979.146	1.616	1985497	WORD	n/a	wordpools/wordpool_categorized_EN.txt	EYE	BodyParts	10	15	[0, 0, 0]	n/a	catFR1	0	R1278E
1980.762	1.001	1987113	WORD_OFF	n/a	n/a	EYE	n/a	10	15	[0, 0, 0]	n/a	catFR1	0	R1278E
1981.763	1.616	1988114	WORD	n/a	wordpools/wordpool_categorized_EN.txt	DOLL	Toys	11	15	[0, 0, 0]	n/a	catFR1	0	R1278E
1983.379	0.885	1989730	WORD_OFF	n/a	n/a	DOLL	n/a	11	15	[0, 0, 0]	n/a	catFR1	0	R1278E
1984.264	1.616	1990615	WORD	n/a	wordpools/wordpool_categorized_EN.txt	DOLLHOUSE	Toys	12	15	[0, 0, 0]	n/a	catFR1	0	R1278E
1985.88	0.0	1992230	WORD_OFF	n/a	n/a	DOLLHOUSE	n/a	12	15	[0, 0, 0]	n/a	catFR1	0	R1278E
1985.88	0.177	1992230	ENCODING_END	n/a	n/a	n/a	n/a	-999	15	[0, 0, 0]	n/a	catFR1	0	R1278E
1986.057	0.0	1992407	DISTRACT_START	n/a	n/a	n/a	n/a	-999	15	[0, 0, 0]	n/a	catFR1	0	R1278E
1986.057	0.024	1992407	START	n/a	n/a	n/a	n/a	-999	15	[-999, -999, -999]	n/a	catFR1	0	R1278E
1986.081	2.649	1992431	PROB	2.649	n/a	n/a	n/a	-999	15	[4, 2, 1]	7	catFR1	0	R1278E
1988.73	10.969	1995080	PROB	10.969	n/a	n/a	n/a	-999	15	[7, 1, 8]	16	catFR1	0	R1278E
1999.699	4.217	2006049	PROB	4.217	n/a	n/a	n/a	-999	15	[1, 9, 4]	14	catFR1	0	R1278E
2003.916	2.94	2010266	PROB	2.94	n/a	n/a	n/a	-999	15	[5, 5, 3]	13	catFR1	0	R1278E
2006.856	0.011	2013206	STOP	n/a	n/a	n/a	n/a	-999	15	[-999, -999, -999]	n/a	catFR1	0	R1278E
2006.867	0.567	2013217	DISTRACT_END	n/a	n/a	n/a	n/a	-999	15	[0, 0, 0]	n/a	catFR1	0	R1278E
2007.434	0.517	2013784	RETRIEVAL_ORIENT	n/a	n/a	n/a	n/a	-999	15	[0, 0, 0]	n/a	catFR1	0	R1278E
2007.951	1.915	2014301	REC_START	n/a	n/a	n/a	n/a	-999	15	[0, 0, 0]	n/a	catFR1	0	R1278E
2009.866	2.727	2016216	REC_WORD	2.727	n/a	FRISBEE	Toys	5	15	[0, 0, 0]	n/a	catFR1	0	R1278E
2012.593	2.422	2018942	REC_WORD	2.422	n/a	SLINKY	Toys	6	15	[0, 0, 0]	n/a	catFR1	0	R1278E
2015.015	2.945	2021364	REC_WORD	2.945	n/a	HEAD	BodyParts	3	15	[0, 0, 0]	n/a	catFR1	0	R1278E
2017.96	4.752	2024309	REC_WORD	4.752	n/a	DOLLHOUSE	Toys	12	15	[0, 0, 0]	n/a	catFR1	0	R1278E
2022.712	5.487	2029061	REC_WORD	5.487	n/a	GNAT	Insects	2	15	[0, 0, 0]	n/a	catFR1	0	R1278E
2028.199	9.76	2034548	REC_WORD	9.76	n/a	BEETLE	Insects	8	15	[0, 0, 0]	n/a	catFR1	0	R1278E
2037.959	4.664	2044307	REC_END	n/a	n/a	n/a	n/a	-999	15	[0, 0, 0]	n/a	catFR1	0	R1278E
2042.623	0.5	2048971	TRIAL	n/a	n/a	n/a	n/a	-999	16	[0, 0, 0]	n/a	catFR1	0	R1278E
2043.123	10.428	2049471	COUNTDOWN_START	n/a	n/a	n/a	n/a	-999	16	[0, 0, 0]	n/a	catFR1	0	R1278E
2053.551	0.007	2059899	COUNTDOWN_END	n/a	n/a	n/a	n/a	-999	16	[0, 0, 0]	n/a	catFR1	0	R1278E
2053.558	1.618	2059906	ORIENT	n/a	n/a	n/a	n/a	-999	16	[0, 0, 0]	n/a	catFR1	0	R1278E
2055.176	2.1	2061524	ORIENT_OFF	n/a	n/a	n/a	n/a	-999	16	[0, 0, 0]	n/a	catFR1	0	R1278E
2057.276	1.617	2063624	WORD	n/a	wordpools/wordpool_categorized_EN.txt	LADLE	KitchenTools	1	16	[0, 0, 0]	n/a	catFR1	0	R1278E
2058.893	0.983	2065241	WORD_OFF	n/a	n/a	LADLE	n/a	1	16	[0, 0, 0]	n/a	catFR1	0	R1278E
2059.876	1.617	2066224	WORD	n/a	wordpools/wordpool_categorized_EN.txt	GRATER	KitchenTools	2	16	[0, 0, 0]	n/a	catFR1	0	R1278E
2061.493	0.934	2067841	WORD_OFF	n/a	n/a	GRATER	n/a	2	16	[0, 0, 0]	n/a	catFR1	0	R1278E
2062.427	1.618	2068774	WORD	n/a	wordpools/wordpool_categorized_EN.txt	FOLDER	OfficeSupplies	3	16	[0, 0, 0]	n/a	catFR1	0	R1278E
2064.045	0.949	2070392	WORD_OFF	n/a	n/a	FOLDER	n/a	3	16	[0, 0, 0]	n/a	catFR1	0	R1278E
2064.994	1.617	2071341	WORD	n/a	wordpools/wordpool_categorized_EN.txt	NOTEBOOK	OfficeSupplies	4	16	[0, 0, 0]	n/a	catFR1	0	R1278E
2066.611	0.9	2072958	WORD_OFF	n/a	n/a	NOTEBOOK	n/a	4	16	[0, 0, 0]	n/a	catFR1	0	R1278E
2067.511	1.618	2073858	WORD	n/a	wordpools/wordpool_categorized_EN.txt	ORANGE	Fruit	5	16	[0, 0, 0]	n/a	catFR1	0	R1278E
2069.129	0.832	2075476	WORD_OFF	n/a	n/a	ORANGE	n/a	5	16	[0, 0, 0]	n/a	catFR1	0	R1278E
2069.961	1.617	2076308	WORD	n/a	wordpools/wordpool_categorized_EN.txt	GRAPE	Fruit	6	16	[0, 0, 0]	n/a	catFR1	0	R1278E
2071.578	0.984	2077925	WORD_OFF	n/a	n/a	GRAPE	n/a	6	16	[0, 0, 0]	n/a	catFR1	0	R1278E
2072.562	1.618	2078909	WORD	n/a	wordpools/wordpool_categorized_EN.txt	SPATULA	KitchenTools	7	16	[0, 0, 0]	n/a	catFR1	0	R1278E
2074.18	1.0	2080527	WORD_OFF	n/a	n/a	SPATULA	n/a	7	16	[0, 0, 0]	n/a	catFR1	0	R1278E
2075.18	1.616	2081527	WORD	n/a	wordpools/wordpool_categorized_EN.txt	SPOON	KitchenTools	8	16	[0, 0, 0]	n/a	catFR1	0	R1278E
2076.796	0.783	2083143	WORD_OFF	n/a	n/a	SPOON	n/a	8	16	[0, 0, 0]	n/a	catFR1	0	R1278E
2077.579	1.618	2083926	WORD	n/a	wordpools/wordpool_categorized_EN.txt	BINDER	OfficeSupplies	9	16	[0, 0, 0]	n/a	catFR1	0	R1278E
2079.197	0.984	2085544	WORD_OFF	n/a	n/a	BINDER	n/a	9	16	[0, 0, 0]	n/a	catFR1	0	R1278E
2080.181	1.616	2086528	WORD	n/a	wordpools/wordpool_categorized_EN.txt	PAPER	OfficeSupplies	10	16	[0, 0, 0]	n/a	catFR1	0	R1278E
2081.797	0.95	2088144	WORD_OFF	n/a	n/a	PAPER	n/a	10	16	[0, 0, 0]	n/a	catFR1	0	R1278E
2082.747	1.617	2089094	WORD	n/a	wordpools/wordpool_categorized_EN.txt	PLUM	Fruit	11	16	[0, 0, 0]	n/a	catFR1	0	R1278E
2084.364	0.884	2090711	WORD_OFF	n/a	n/a	PLUM	n/a	11	16	[0, 0, 0]	n/a	catFR1	0	R1278E
2085.248	1.616	2091595	WORD	n/a	wordpools/wordpool_categorized_EN.txt	CHERRY	Fruit	12	16	[0, 0, 0]	n/a	catFR1	0	R1278E
2086.864	0.0	2093211	ENCODING_END	n/a	n/a	n/a	n/a	-999	16	[0, 0, 0]	n/a	catFR1	0	R1278E
2086.864	0.135	2093211	WORD_OFF	n/a	n/a	CHERRY	n/a	12	16	[0, 0, 0]	n/a	catFR1	0	R1278E
2086.999	0.0	2093346	DISTRACT_START	n/a	n/a	n/a	n/a	-999	16	[0, 0, 0]	n/a	catFR1	0	R1278E
2086.999	0.015	2093346	START	n/a	n/a	n/a	n/a	-999	16	[-999, -999, -999]	n/a	catFR1	0	R1278E
2087.014	3.118	2093361	PROB	3.118	n/a	n/a	n/a	-999	16	[5, 1, 3]	9	catFR1	0	R1278E
2090.132	7.035	2096478	PROB	7.035	n/a	n/a	n/a	-999	16	[7, 8, 7]	22	catFR1	0	R1278E
2097.167	3.116	2103513	PROB	3.116	n/a	n/a	n/a	-999	16	[8, 2, 8]	18	catFR1	0	R1278E
2100.283	4.518	2106629	PROB	4.518	n/a	n/a	n/a	-999	16	[3, 5, 8]	16	catFR1	0	R1278E
2104.801	2.758	2111147	PROB	2.758	n/a	n/a	n/a	-999	16	[2, 1, 3]	6	catFR1	0	R1278E
2107.559	0.009	2113905	STOP	n/a	n/a	n/a	n/a	-999	16	[-999, -999, -999]	n/a	catFR1	0	R1278E
2107.568	0.518	2113914	DISTRACT_END	n/a	n/a	n/a	n/a	-999	16	[0, 0, 0]	n/a	catFR1	0	R1278E
2108.086	0.516	2114432	RETRIEVAL_ORIENT	n/a	n/a	n/a	n/a	-999	16	[0, 0, 0]	n/a	catFR1	0	R1278E
2108.602	1.75	2114948	REC_START	n/a	n/a	n/a	n/a	-999	16	[0, 0, 0]	n/a	catFR1	0	R1278E
2110.352	2.463	2116698	REC_WORD	2.463	n/a	ORANGE	Fruit	5	16	[0, 0, 0]	n/a	catFR1	0	R1278E
2112.815	5.263	2119161	REC_WORD	5.263	n/a	PLUM	Fruit	11	16	[0, 0, 0]	n/a	catFR1	0	R1278E
2118.078	16.256	2124423	REC_WORD_VV	16.256	n/a	<>	n/a	-999	16	[0, 0, 0]	n/a	catFR1	0	R1278E
2134.334	4.277	2140679	REC_WORD	4.277	n/a	GRAPE	Fruit	6	16	[0, 0, 0]	n/a	catFR1	0	R1278E
2138.611	5.197	2144956	REC_END	n/a	n/a	n/a	n/a	-999	16	[0, 0, 0]	n/a	catFR1	0	R1278E
2143.808	0.5	2150152	TRIAL	n/a	n/a	n/a	n/a	-999	17	[0, 0, 0]	n/a	catFR1	0	R1278E
2144.308	10.428	2150652	COUNTDOWN_START	n/a	n/a	n/a	n/a	-999	17	[0, 0, 0]	n/a	catFR1	0	R1278E
2154.736	0.007	2161080	COUNTDOWN_END	n/a	n/a	n/a	n/a	-999	17	[0, 0, 0]	n/a	catFR1	0	R1278E
2154.743	1.617	2161087	ORIENT	n/a	n/a	n/a	n/a	-999	17	[0, 0, 0]	n/a	catFR1	0	R1278E
2156.36	2.183	2162704	ORIENT_OFF	n/a	n/a	n/a	n/a	-999	17	[0, 0, 0]	n/a	catFR1	0	R1278E
2158.543	1.618	2164887	WORD	n/a	wordpools/wordpool_categorized_EN.txt	TABLE	Furniture	1	17	[0, 0, 0]	n/a	catFR1	0	R1278E
2160.161	0.901	2166505	WORD_OFF	n/a	n/a	TABLE	n/a	1	17	[0, 0, 0]	n/a	catFR1	0	R1278E
2161.062	1.616	2167406	WORD	n/a	wordpools/wordpool_categorized_EN.txt	RECLINER	Furniture	2	17	[0, 0, 0]	n/a	catFR1	0	R1278E
2162.678	0.8	2169022	WORD_OFF	n/a	n/a	RECLINER	n/a	2	17	[0, 0, 0]	n/a	catFR1	0	R1278E
2163.478	1.618	2169822	WORD	n/a	wordpools/wordpool_categorized_EN.txt	ATTIC	Building	3	17	[0, 0, 0]	n/a	catFR1	0	R1278E
2165.096	0.916	2171439	WORD_OFF	n/a	n/a	ATTIC	n/a	3	17	[0, 0, 0]	n/a	catFR1	0	R1278E
2166.012	1.616	2172355	WORD	n/a	wordpools/wordpool_categorized_EN.txt	FLOOR	Building	4	17	[0, 0, 0]	n/a	catFR1	0	R1278E
2167.628	0.767	2173971	WORD_OFF	n/a	n/a	FLOOR	n/a	4	17	[0, 0, 0]	n/a	catFR1	0	R1278E
2168.395	1.617	2174738	WORD	n/a	wordpools/wordpool_categorized_EN.txt	STAPLER	OfficeSupplies	5	17	[0, 0, 0]	n/a	catFR1	0	R1278E
2170.012	0.984	2176355	WORD_OFF	n/a	n/a	STAPLER	n/a	5	17	[0, 0, 0]	n/a	catFR1	0	R1278E
2170.996	1.617	2177339	WORD	n/a	wordpools/wordpool_categorized_EN.txt	MARKER	OfficeSupplies	6	17	[0, 0, 0]	n/a	catFR1	0	R1278E
2172.613	0.8	2178956	WORD_OFF	n/a	n/a	MARKER	n/a	6	17	[0, 0, 0]	n/a	catFR1	0	R1278E
2173.413	1.617	2179756	WORD	n/a	wordpools/wordpool_categorized_EN.txt	CEILING	Building	7	17	[0, 0, 0]	n/a	catFR1	0	R1278E
2175.03	0.917	2181373	WORD_OFF	n/a	n/a	CEILING	n/a	7	17	[0, 0, 0]	n/a	catFR1	0	R1278E
2175.947	1.616	2182290	WORD	n/a	wordpools/wordpool_categorized_EN.txt	HALLWAY	Building	8	17	[0, 0, 0]	n/a	catFR1	0	R1278E
2177.563	1.017	2183906	WORD_OFF	n/a	n/a	HALLWAY	n/a	8	17	[0, 0, 0]	n/a	catFR1	0	R1278E
2178.58	1.618	2184923	WORD	n/a	wordpools/wordpool_categorized_EN.txt	CABINET	Furniture	9	17	[0, 0, 0]	n/a	catFR1	0	R1278E
2180.198	1.017	2186541	WORD_OFF	n/a	n/a	CABINET	n/a	9	17	[0, 0, 0]	n/a	catFR1	0	R1278E
2181.215	1.616	2187558	WORD	n/a	wordpools/wordpool_categorized_EN.txt	SOFA	Furniture	10	17	[0, 0, 0]	n/a	catFR1	0	R1278E
2182.831	0.934	2189174	WORD_OFF	n/a	n/a	SOFA	n/a	10	17	[0, 0, 0]	n/a	catFR1	0	R1278E
2183.765	1.616	2190108	WORD	n/a	wordpools/wordpool_categorized_EN.txt	RULER	OfficeSupplies	11	17	[0, 0, 0]	n/a	catFR1	0	R1278E
2185.381	0.917	2191724	WORD_OFF	n/a	n/a	RULER	n/a	11	17	[0, 0, 0]	n/a	catFR1	0	R1278E
2186.298	1.617	2192641	WORD	n/a	wordpools/wordpool_categorized_EN.txt	PEN	OfficeSupplies	12	17	[0, 0, 0]	n/a	catFR1	0	R1278E
2187.915	0.001	2194258	WORD_OFF	n/a	n/a	PEN	n/a	12	17	[0, 0, 0]	n/a	catFR1	0	R1278E
2187.916	0.134	2194259	ENCODING_END	n/a	n/a	n/a	n/a	-999	17	[0, 0, 0]	n/a	catFR1	0	R1278E
2188.05	0.001	2194393	DISTRACT_START	n/a	n/a	n/a	n/a	-999	17	[0, 0, 0]	n/a	catFR1	0	R1278E
2188.051	0.015	2194394	START	n/a	n/a	n/a	n/a	-999	17	[-999, -999, -999]	n/a	catFR1	0	R1278E
2188.066	6.917	2194409	PROB	6.917	n/a	n/a	n/a	-999	17	[4, 6, 9]	19	catFR1	0	R1278E
2194.983	6.069	2201325	PROB	6.069	n/a	n/a	n/a	-999	17	[6, 3, 9]	18	catFR1	0	R1278E
2201.052	2.883	2207394	PROB	2.883	n/a	n/a	n/a	-999	17	[9, 2, 1]	12	catFR1	0	R1278E
2203.935	3.151	2210277	PROB	3.151	n/a	n/a	n/a	-999	17	[1, 2, 5]	8	catFR1	0	R1278E
2207.086	7.188	2213428	PROB	7.188	n/a	n/a	n/a	-999	17	[5, 6, 1]	12	catFR1	0	R1278E
2214.274	0.013	2220616	STOP	n/a	n/a	n/a	n/a	-999	17	[-999, -999, -999]	n/a	catFR1	0	R1278E
2214.287	0.566	2220629	DISTRACT_END	n/a	n/a	n/a	n/a	-999	17	[0, 0, 0]	n/a	catFR1	0	R1278E
2214.853	0.518	2221195	RETRIEVAL_ORIENT	n/a	n/a	n/a	n/a	-999	17	[0, 0, 0]	n/a	catFR1	0	R1278E
2215.371	2.267	2221713	REC_START	n/a	n/a	n/a	n/a	-999	17	[0, 0, 0]	n/a	catFR1	0	R1278E
2217.638	3.185	2223979	REC_WORD	3.185	n/a	ATTIC	Building	3	17	[0, 0, 0]	n/a	catFR1	0	R1278E
2220.823	24.556	2227164	REC_WORD_VV	24.556	n/a	<>	n/a	-999	17	[0, 0, 0]	n/a	catFR1	0	R1278E
2245.379	4.597	2251719	REC_END	n/a	n/a	n/a	n/a	-999	17	[0, 0, 0]	n/a	catFR1	0	R1278E
2249.976	0.5	2256316	TRIAL	n/a	n/a	n/a	n/a	-999	18	[0, 0, 0]	n/a	catFR1	0	R1278E
2250.476	10.428	2256816	COUNTDOWN_START	n/a	n/a	n/a	n/a	-999	18	[0, 0, 0]	n/a	catFR1	0	R1278E
2260.904	0.007	2267244	COUNTDOWN_END	n/a	n/a	n/a	n/a	-999	18	[0, 0, 0]	n/a	catFR1	0	R1278E
2260.911	1.617	2267251	ORIENT	n/a	n/a	n/a	n/a	-999	18	[0, 0, 0]	n/a	catFR1	0	R1278E
2262.528	2.201	2268868	ORIENT_OFF	n/a	n/a	n/a	n/a	-999	18	[0, 0, 0]	n/a	catFR1	0	R1278E
2264.729	1.617	2271069	WORD	n/a	wordpools/wordpool_categorized_EN.txt	LEMON	Fruit	1	18	[0, 0, 0]	n/a	catFR1	0	R1278E
2266.346	0.918	2272686	WORD_OFF	n/a	n/a	LEMON	n/a	1	18	[0, 0, 0]	n/a	catFR1	0	R1278E
2267.264	1.616	2273604	WORD	n/a	wordpools/wordpool_categorized_EN.txt	STRAWBERRY	Fruit	2	18	[0, 0, 0]	n/a	catFR1	0	R1278E
2268.88	0.866	2275219	WORD_OFF	n/a	n/a	STRAWBERRY	n/a	2	18	[0, 0, 0]	n/a	catFR1	0	R1278E
2269.746	1.617	2276085	WORD	n/a	wordpools/wordpool_categorized_EN.txt	ELM	Trees	3	18	[0, 0, 0]	n/a	catFR1	0	R1278E
2271.363	0.934	2277702	WORD_OFF	n/a	n/a	ELM	n/a	3	18	[0, 0, 0]	n/a	catFR1	0	R1278E
2272.297	1.617	2278636	WORD	n/a	wordpools/wordpool_categorized_EN.txt	WALNUT	Trees	4	18	[0, 0, 0]	n/a	catFR1	0	R1278E
2273.914	0.8	2280253	WORD_OFF	n/a	n/a	WALNUT	n/a	4	18	[0, 0, 0]	n/a	catFR1	0	R1278E
2274.714	1.617	2281053	WORD	n/a	wordpools/wordpool_categorized_EN.txt	SAW	Tools	5	18	[0, 0, 0]	n/a	catFR1	0	R1278E
2276.331	0.901	2282670	WORD_OFF	n/a	n/a	SAW	n/a	5	18	[0, 0, 0]	n/a	catFR1	0	R1278E
2277.232	1.616	2283571	WORD	n/a	wordpools/wordpool_categorized_EN.txt	AXE	Tools	6	18	[0, 0, 0]	n/a	catFR1	0	R1278E
2278.848	0.833	2285187	WORD_OFF	n/a	n/a	AXE	n/a	6	18	[0, 0, 0]	n/a	catFR1	0	R1278E
2279.681	1.617	2286020	WORD	n/a	wordpools/wordpool_categorized_EN.txt	PEACH	Fruit	7	18	[0, 0, 0]	n/a	catFR1	0	R1278E
2281.298	0.902	2287637	WORD_OFF	n/a	n/a	PEACH	n/a	7	18	[0, 0, 0]	n/a	catFR1	0	R1278E
2282.2	1.615	2288539	WORD	n/a	wordpools/wordpool_categorized_EN.txt	APPLE	Fruit	8	18	[0, 0, 0]	n/a	catFR1	0	R1278E
2283.815	0.934	2290154	WORD_OFF	n/a	n/a	APPLE	n/a	8	18	[0, 0, 0]	n/a	catFR1	0	R1278E
2284.749	1.617	2291088	WORD	n/a	wordpools/wordpool_categorized_EN.txt	BIRCH	Trees	9	18	[0, 0, 0]	n/a	catFR1	0	R1278E
2286.366	0.868	2292705	WORD_OFF	n/a	n/a	BIRCH	n/a	9	18	[0, 0, 0]	n/a	catFR1	0	R1278E
2287.234	1.616	2293573	WORD	n/a	wordpools/wordpool_categorized_EN.txt	EVERGREEN	Trees	10	18	[0, 0, 0]	n/a	catFR1	0	R1278E
2288.85	0.883	2295189	WORD_OFF	n/a	n/a	EVERGREEN	n/a	10	18	[0, 0, 0]	n/a	catFR1	0	R1278E
2289.733	1.617	2296072	WORD	n/a	wordpools/wordpool_categorized_EN.txt	RATCHET	Tools	11	18	[0, 0, 0]	n/a	catFR1	0	R1278E
2291.35	1.0	2297689	WORD_OFF	n/a	n/a	RATCHET	n/a	11	18	[0, 0, 0]	n/a	catFR1	0	R1278E
2292.35	1.617	2298689	WORD	n/a	wordpools/wordpool_categorized_EN.txt	CROWBAR	Tools	12	18	[0, 0, 0]	n/a	catFR1	0	R1278E
2293.967	0.0	2300305	ENCODING_END	n/a	n/a	n/a	n/a	-999	18	[0, 0, 0]	n/a	catFR1	0	R1278E
2293.967	0.174	2300305	WORD_OFF	n/a	n/a	CROWBAR	n/a	12	18	[0, 0, 0]	n/a	catFR1	0	R1278E
2294.141	0.0	2300479	DISTRACT_START	n/a	n/a	n/a	n/a	-999	18	[0, 0, 0]	n/a	catFR1	0	R1278E
2294.141	0.011	2300479	START	n/a	n/a	n/a	n/a	-999	18	[-999, -999, -999]	n/a	catFR1	0	R1278E
2294.152	6.45	2300490	PROB	6.45	n/a	n/a	n/a	-999	18	[7, 3, 6]	16	catFR1	0	R1278E
2300.602	2.934	2306940	PROB	2.934	n/a	n/a	n/a	-999	18	[4, 2, 4]	10	catFR1	0	R1278E
2303.536	7.384	2309874	PROB	7.384	n/a	n/a	n/a	-999	18	[6, 5, 9]	20	catFR1	0	R1278E
2310.92	5.219	2317258	PROB	5.219	n/a	n/a	n/a	-999	18	[7, 3, 3]	13	catFR1	0	R1278E
2316.139	0.017	2322477	STOP	n/a	n/a	n/a	n/a	-999	18	[-999, -999, -999]	n/a	catFR1	0	R1278E
2316.156	0.549	2322494	DISTRACT_END	n/a	n/a	n/a	n/a	-999	18	[0, 0, 0]	n/a	catFR1	0	R1278E
2316.705	0.518	2323043	RETRIEVAL_ORIENT	n/a	n/a	n/a	n/a	-999	18	[0, 0, 0]	n/a	catFR1	0	R1278E
2317.223	1.899	2323561	REC_START	n/a	n/a	n/a	n/a	-999	18	[0, 0, 0]	n/a	catFR1	0	R1278E
2319.122	2.777	2325459	REC_WORD_VV	2.777	n/a	<>	n/a	-999	18	[0, 0, 0]	n/a	catFR1	0	R1278E
2321.899	6.897	2328236	REC_WORD	6.897	n/a	LEMON	Fruit	1	18	[0, 0, 0]	n/a	catFR1	0	R1278E
2328.796	2.451	2335133	REC_WORD	2.451	n/a	ELM	Trees	3	18	[0, 0, 0]	n/a	catFR1	0	R1278E
2331.247	3.094	2337584	REC_WORD	3.094	n/a	EVERGREEN	Trees	10	18	[0, 0, 0]	n/a	catFR1	0	R1278E
2334.341	9.26	2340678	REC_WORD	9.26	n/a	RATCHET	Tools	11	18	[0, 0, 0]	n/a	catFR1	0	R1278E
2343.601	3.631	2349938	REC_WORD	3.631	n/a	SAW	Tools	5	18	[0, 0, 0]	n/a	catFR1	0	R1278E
2347.232	5.279	2353568	REC_END	n/a	n/a	n/a	n/a	-999	18	[0, 0, 0]	n/a	catFR1	0	R1278E
2352.511	0.5	2358847	TRIAL	n/a	n/a	n/a	n/a	-999	19	[0, 0, 0]	n/a	catFR1	0	R1278E
2353.011	10.428	2359347	COUNTDOWN_START	n/a	n/a	n/a	n/a	-999	19	[0, 0, 0]	n/a	catFR1	0	R1278E
2363.439	0.007	2369775	COUNTDOWN_END	n/a	n/a	n/a	n/a	-999	19	[0, 0, 0]	n/a	catFR1	0	R1278E
2363.446	1.618	2369782	ORIENT	n/a	n/a	n/a	n/a	-999	19	[0, 0, 0]	n/a	catFR1	0	R1278E
2365.064	2.0	2371400	ORIENT_OFF	n/a	n/a	n/a	n/a	-999	19	[0, 0, 0]	n/a	catFR1	0	R1278E
2367.064	1.616	2373400	WORD	n/a	wordpools/wordpool_categorized_EN.txt	ELEPHANT	Zoo	1	19	[0, 0, 0]	n/a	catFR1	0	R1278E
2368.68	0.834	2375016	WORD_OFF	n/a	n/a	ELEPHANT	n/a	1	19	[0, 0, 0]	n/a	catFR1	0	R1278E
2369.514	1.601	2375850	WORD	n/a	wordpools/wordpool_categorized_EN.txt	CHEETAH	Zoo	2	19	[0, 0, 0]	n/a	catFR1	0	R1278E
2371.115	0.916	2377450	WORD_OFF	n/a	n/a	CHEETAH	n/a	2	19	[0, 0, 0]	n/a	catFR1	0	R1278E
2372.031	1.617	2378366	WORD	n/a	wordpools/wordpool_categorized_EN.txt	WASHER	Appliances	3	19	[0, 0, 0]	n/a	catFR1	0	R1278E
2373.648	1.0	2379983	WORD_OFF	n/a	n/a	WASHER	n/a	3	19	[0, 0, 0]	n/a	catFR1	0	R1278E
2374.648	1.618	2380983	WORD	n/a	wordpools/wordpool_categorized_EN.txt	BLENDER	Appliances	4	19	[0, 0, 0]	n/a	catFR1	0	R1278E
2376.266	0.8	2382601	WORD_OFF	n/a	n/a	BLENDER	n/a	4	19	[0, 0, 0]	n/a	catFR1	0	R1278E
2377.066	1.616	2383401	WORD	n/a	wordpools/wordpool_categorized_EN.txt	GOAT	FarmAnimals	5	19	[0, 0, 0]	n/a	catFR1	0	R1278E
2378.682	0.784	2385017	WORD_OFF	n/a	n/a	GOAT	n/a	5	19	[0, 0, 0]	n/a	catFR1	0	R1278E
2379.466	1.617	2385801	WORD	n/a	wordpools/wordpool_categorized_EN.txt	BULL	FarmAnimals	6	19	[0, 0, 0]	n/a	catFR1	0	R1278E
2381.083	0.967	2387418	WORD_OFF	n/a	n/a	BULL	n/a	6	19	[0, 0, 0]	n/a	catFR1	0	R1278E
2382.05	1.616	2388385	WORD	n/a	wordpools/wordpool_categorized_EN.txt	MONKEY	Zoo	7	19	[0, 0, 0]	n/a	catFR1	0	R1278E
2383.666	0.784	2390001	WORD_OFF	n/a	n/a	MONKEY	n/a	7	19	[0, 0, 0]	n/a	catFR1	0	R1278E
2384.45	1.618	2390785	WORD	n/a	wordpools/wordpool_categorized_EN.txt	ZEBRA	Zoo	8	19	[0, 0, 0]	n/a	catFR1	0	R1278E
2386.068	0.949	2392403	WORD_OFF	n/a	n/a	ZEBRA	n/a	8	19	[0, 0, 0]	n/a	catFR1	0	R1278E
2387.017	1.617	2393352	WORD	n/a	wordpools/wordpool_categorized_EN.txt	DRYER	Appliances	9	19	[0, 0, 0]	n/a	catFR1	0	R1278E
2388.634	0.917	2394969	WORD_OFF	n/a	n/a	DRYER	n/a	9	19	[0, 0, 0]	n/a	catFR1	0	R1278E
2389.551	1.618	2395886	WORD	n/a	wordpools/wordpool_categorized_EN.txt	TOASTER	Appliances	10	19	[0, 0, 0]	n/a	catFR1	0	R1278E
2391.169	0.782	2397504	WORD_OFF	n/a	n/a	TOASTER	n/a	10	19	[0, 0, 0]	n/a	catFR1	0	R1278E
2391.951	1.617	2398286	WORD	n/a	wordpools/wordpool_categorized_EN.txt	HORSE	FarmAnimals	11	19	[0, 0, 0]	n/a	catFR1	0	R1278E
2393.568	1.0	2399903	WORD_OFF	n/a	n/a	HORSE	n/a	11	19	[0, 0, 0]	n/a	catFR1	0	R1278E
2394.568	1.618	2400903	WORD	n/a	wordpools/wordpool_categorized_EN.txt	CHICKEN	FarmAnimals	12	19	[0, 0, 0]	n/a	catFR1	0	R1278E
2396.186	0.0	2402520	ENCODING_END	n/a	n/a	n/a	n/a	-999	19	[0, 0, 0]	n/a	catFR1	0	R1278E
2396.186	0.133	2402520	WORD_OFF	n/a	n/a	CHICKEN	n/a	12	19	[0, 0, 0]	n/a	catFR1	0	R1278E
2396.319	0.001	2402653	DISTRACT_START	n/a	n/a	n/a	n/a	-999	19	[0, 0, 0]	n/a	catFR1	0	R1278E
2396.32	0.015	2402654	START	n/a	n/a	n/a	n/a	-999	19	[-999, -999, -999]	n/a	catFR1	0	R1278E
2396.335	8.635	2402669	PROB	8.635	n/a	n/a	n/a	-999	19	[9, 1, 6]	16	catFR1	0	R1278E
2404.97	10.219	2411304	PROB	10.219	n/a	n/a	n/a	-999	19	[1, 6, 8]	15	catFR1	0	R1278E
2415.189	6.028	2421523	PROB	6.028	n/a	n/a	n/a	-999	19	[3, 5, 8]	16	catFR1	0	R1278E
2421.217	0.007	2427550	STOP	n/a	n/a	n/a	n/a	-999	19	[-999, -999, -999]	n/a	catFR1	0	R1278E
2421.224	0.532	2427557	DISTRACT_END	n/a	n/a	n/a	n/a	-999	19	[0, 0, 0]	n/a	catFR1	0	R1278E
2421.756	0.518	2428089	RETRIEVAL_ORIENT	n/a	n/a	n/a	n/a	-999	19	[0, 0, 0]	n/a	catFR1	0	R1278E
2422.274	1.372	2428607	REC_START	n/a	n/a	n/a	n/a	-999	19	[0, 0, 0]	n/a	catFR1	0	R1278E
2423.646	1.637	2429979	REC_WORD	1.637	n/a	ELEPHANT	Zoo	1	19	[0, 0, 0]	n/a	catFR1	0	R1278E
2425.283	0.827	2431616	REC_WORD_VV	0.827	n/a	<>	n/a	-999	19	[0, 0, 0]	n/a	catFR1	0	R1278E
2426.11	2.112	2432443	REC_WORD	2.112	n/a	ZEBRA	Zoo	8	19	[0, 0, 0]	n/a	catFR1	0	R1278E
2428.222	2.311	2434555	REC_WORD	2.311	n/a	DRYER	Appliances	9	19	[0, 0, 0]	n/a	catFR1	0	R1278E
2430.533	2.551	2436866	REC_WORD	2.551	n/a	WASHER	Appliances	3	19	[0, 0, 0]	n/a	catFR1	0	R1278E
2433.084	19.198	2439417	REC_WORD	19.198	n/a	TOASTER	Appliances	10	19	[0, 0, 0]	n/a	catFR1	0	R1278E
2452.282	3.881	2458614	REC_END	n/a	n/a	n/a	n/a	-999	19	[0, 0, 0]	n/a	catFR1	0	R1278E
2456.163	0.5	2462495	TRIAL	n/a	n/a	n/a	n/a	-999	20	[0, 0, 0]	n/a	catFR1	0	R1278E
2456.663	10.428	2462995	COUNTDOWN_START	n/a	n/a	n/a	n/a	-999	20	[0, 0, 0]	n/a	catFR1	0	R1278E
2467.091	0.008	2473423	COUNTDOWN_END	n/a	n/a	n/a	n/a	-999	20	[0, 0, 0]	n/a	catFR1	0	R1278E
2467.099	1.616	2473431	ORIENT	n/a	n/a	n/a	n/a	-999	20	[0, 0, 0]	n/a	catFR1	0	R1278E
2468.715	1.833	2475047	ORIENT_OFF	n/a	n/a	n/a	n/a	-999	20	[0, 0, 0]	n/a	catFR1	0	R1278E
2470.548	1.618	2476880	WORD	n/a	wordpools/wordpool_categorized_EN.txt	PLIERS	Tools	1	20	[0, 0, 0]	n/a	catFR1	0	R1278E
2472.166	0.866	2478498	WORD_OFF	n/a	n/a	PLIERS	n/a	1	20	[0, 0, 0]	n/a	catFR1	0	R1278E
2473.032	1.617	2479363	WORD	n/a	wordpools/wordpool_categorized_EN.txt	HAMMER	Tools	2	20	[0, 0, 0]	n/a	catFR1	0	R1278E
2474.649	0.883	2480980	WORD_OFF	n/a	n/a	HAMMER	n/a	2	20	[0, 0, 0]	n/a	catFR1	0	R1278E
2475.532	1.618	2481863	WORD	n/a	wordpools/wordpool_categorized_EN.txt	CROW	Birds	3	20	[0, 0, 0]	n/a	catFR1	0	R1278E
2477.15	1.017	2483481	WORD_OFF	n/a	n/a	CROW	n/a	3	20	[0, 0, 0]	n/a	catFR1	0	R1278E
2478.167	1.616	2484498	WORD	n/a	wordpools/wordpool_categorized_EN.txt	BLUEBIRD	Birds	4	20	[0, 0, 0]	n/a	catFR1	0	R1278E
2479.783	0.95	2486114	WORD_OFF	n/a	n/a	BLUEBIRD	n/a	4	20	[0, 0, 0]	n/a	catFR1	0	R1278E
2480.733	1.617	2487064	WORD	n/a	wordpools/wordpool_categorized_EN.txt	RUM	Beverages	5	20	[0, 0, 0]	n/a	catFR1	0	R1278E
2482.35	0.885	2488681	WORD_OFF	n/a	n/a	RUM	n/a	5	20	[0, 0, 0]	n/a	catFR1	0	R1278E
2483.235	1.616	2489566	WORD	n/a	wordpools/wordpool_categorized_EN.txt	JUICE	Beverages	6	20	[0, 0, 0]	n/a	catFR1	0	R1278E
2484.851	1.0	2491182	WORD_OFF	n/a	n/a	JUICE	n/a	6	20	[0, 0, 0]	n/a	catFR1	0	R1278E
2485.851	1.617	2492182	WORD	n/a	wordpools/wordpool_categorized_EN.txt	SPARROW	Birds	7	20	[0, 0, 0]	n/a	catFR1	0	R1278E
2487.468	0.784	2493799	WORD_OFF	n/a	n/a	SPARROW	n/a	7	20	[0, 0, 0]	n/a	catFR1	0	R1278E
2488.252	1.616	2494583	WORD	n/a	wordpools/wordpool_categorized_EN.txt	CARDINAL	Birds	8	20	[0, 0, 0]	n/a	catFR1	0	R1278E
2489.868	0.817	2496199	WORD_OFF	n/a	n/a	CARDINAL	n/a	8	20	[0, 0, 0]	n/a	catFR1	0	R1278E
2490.685	1.617	2497016	WORD	n/a	wordpools/wordpool_categorized_EN.txt	DRILL	Tools	9	20	[0, 0, 0]	n/a	catFR1	0	R1278E
2492.302	0.884	2498633	WORD_OFF	n/a	n/a	DRILL	n/a	9	20	[0, 0, 0]	n/a	catFR1	0	R1278E
2493.186	1.616	2499517	WORD	n/a	wordpools/wordpool_categorized_EN.txt	LEVEL	Tools	10	20	[0, 0, 0]	n/a	catFR1	0	R1278E
2494.802	0.867	2501133	WORD_OFF	n/a	n/a	LEVEL	n/a	10	20	[0, 0, 0]	n/a	catFR1	0	R1278E
2495.669	1.617	2502000	WORD	n/a	wordpools/wordpool_categorized_EN.txt	CIDER	Beverages	11	20	[0, 0, 0]	n/a	catFR1	0	R1278E
2497.286	0.835	2503617	WORD_OFF	n/a	n/a	CIDER	n/a	11	20	[0, 0, 0]	n/a	catFR1	0	R1278E
2498.121	1.616	2504451	WORD	n/a	wordpools/wordpool_categorized_EN.txt	WINE	Beverages	12	20	[0, 0, 0]	n/a	catFR1	0	R1278E
2499.737	0.0	2506067	ENCODING_END	n/a	n/a	n/a	n/a	-999	20	[0, 0, 0]	n/a	catFR1	0	R1278E
2499.737	0.134	2506067	WORD_OFF	n/a	n/a	WINE	n/a	12	20	[0, 0, 0]	n/a	catFR1	0	R1278E
2499.871	0.0	2506201	DISTRACT_START	n/a	n/a	n/a	n/a	-999	20	[0, 0, 0]	n/a	catFR1	0	R1278E
2499.871	0.016	2506201	START	n/a	n/a	n/a	n/a	-999	20	[-999, -999, -999]	n/a	catFR1	0	R1278E
2499.887	5.917	2506217	PROB	5.917	n/a	n/a	n/a	-999	20	[6, 1, 7]	14	catFR1	0	R1278E
2505.804	2.402	2512134	PROB	2.402	n/a	n/a	n/a	-999	20	[1, 1, 3]	5	catFR1	0	R1278E
2508.206	5.951	2514536	PROB	5.951	n/a	n/a	n/a	-999	20	[6, 9, 9]	24	catFR1	0	R1278E
2514.157	9.204	2520487	PROB	9.204	n/a	n/a	n/a	-999	20	[7, 1, 8]	16	catFR1	0	R1278E
2523.361	0.013	2529691	STOP	n/a	n/a	n/a	n/a	-999	20	[-999, -999, -999]	n/a	catFR1	0	R1278E
2523.374	0.617	2529704	DISTRACT_END	n/a	n/a	n/a	n/a	-999	20	[0, 0, 0]	n/a	catFR1	0	R1278E
2523.991	0.517	2530320	RETRIEVAL_ORIENT	n/a	n/a	n/a	n/a	-999	20	[0, 0, 0]	n/a	catFR1	0	R1278E
2524.508	1.86	2530837	REC_START	n/a	n/a	n/a	n/a	-999	20	[0, 0, 0]	n/a	catFR1	0	R1278E
2526.368	2.19	2532697	REC_WORD	2.19	n/a	RUM	Beverages	5	20	[0, 0, 0]	n/a	catFR1	0	R1278E
2528.558	6.527	2534887	REC_WORD	6.527	n/a	JUICE	Beverages	6	20	[0, 0, 0]	n/a	catFR1	0	R1278E
2535.085	0.625	2541414	REC_WORD_VV	0.625	n/a	<>	n/a	-999	20	[0, 0, 0]	n/a	catFR1	0	R1278E
2535.71	11.177	2542039	REC_WORD_VV	11.177	n/a	<>	n/a	-999	20	[0, 0, 0]	n/a	catFR1	0	R1278E
2546.887	7.631	2553216	REC_WORD	7.631	n/a	SPARROW	Birds	7	20	[0, 0, 0]	n/a	catFR1	0	R1278E
2554.518	9.598	2560846	REC_END	n/a	n/a	n/a	n/a	-999	20	[0, 0, 0]	n/a	catFR1	0	R1278E
2564.116	0.5	2570444	TRIAL	n/a	n/a	n/a	n/a	-999	21	[0, 0, 0]	n/a	catFR1	0	R1278E
2564.616	10.428	2570944	COUNTDOWN_START	n/a	n/a	n/a	n/a	-999	21	[0, 0, 0]	n/a	catFR1	0	R1278E
2575.044	0.007	2581371	COUNTDOWN_END	n/a	n/a	n/a	n/a	-999	21	[0, 0, 0]	n/a	catFR1	0	R1278E
2575.051	1.616	2581378	ORIENT	n/a	n/a	n/a	n/a	-999	21	[0, 0, 0]	n/a	catFR1	0	R1278E
2576.667	1.916	2582994	ORIENT_OFF	n/a	n/a	n/a	n/a	-999	21	[0, 0, 0]	n/a	catFR1	0	R1278E
2578.583	1.602	2584910	WORD	n/a	wordpools/wordpool_categorized_EN.txt	RAIN	Weather	1	21	[0, 0, 0]	n/a	catFR1	0	R1278E
2580.185	0.884	2586512	WORD_OFF	n/a	n/a	RAIN	n/a	1	21	[0, 0, 0]	n/a	catFR1	0	R1278E
2581.069	1.616	2587396	WORD	n/a	wordpools/wordpool_categorized_EN.txt	HURRICANE	Weather	2	21	[0, 0, 0]	n/a	catFR1	0	R1278E
2582.685	0.983	2589012	WORD_OFF	n/a	n/a	HURRICANE	n/a	2	21	[0, 0, 0]	n/a	catFR1	0	R1278E
2583.668	1.601	2589995	WORD	n/a	wordpools/wordpool_categorized_EN.txt	CALF	FarmAnimals	3	21	[0, 0, 0]	n/a	catFR1	0	R1278E
2585.269	0.984	2591596	WORD_OFF	n/a	n/a	CALF	n/a	3	21	[0, 0, 0]	n/a	catFR1	0	R1278E
2586.253	1.616	2592580	WORD	n/a	wordpools/wordpool_categorized_EN.txt	HEN	FarmAnimals	4	21	[0, 0, 0]	n/a	catFR1	0	R1278E
2587.869	0.833	2594196	WORD_OFF	n/a	n/a	HEN	n/a	4	21	[0, 0, 0]	n/a	catFR1	0	R1278E
2588.702	1.617	2595029	WORD	n/a	wordpools/wordpool_categorized_EN.txt	CHAIR	Furniture	5	21	[0, 0, 0]	n/a	catFR1	0	R1278E
2590.319	0.951	2596646	WORD_OFF	n/a	n/a	CHAIR	n/a	5	21	[0, 0, 0]	n/a	catFR1	0	R1278E
2591.27	1.616	2597597	WORD	n/a	wordpools/wordpool_categorized_EN.txt	BED	Furniture	6	21	[0, 0, 0]	n/a	catFR1	0	R1278E
2592.886	0.867	2599213	WORD_OFF	n/a	n/a	BED	n/a	6	21	[0, 0, 0]	n/a	catFR1	0	R1278E
2593.753	1.617	2600080	WORD	n/a	wordpools/wordpool_categorized_EN.txt	PIG	FarmAnimals	7	21	[0, 0, 0]	n/a	catFR1	0	R1278E
2595.37	0.851	2601697	WORD_OFF	n/a	n/a	PIG	n/a	7	21	[0, 0, 0]	n/a	catFR1	0	R1278E
2596.221	1.616	2602548	WORD	n/a	wordpools/wordpool_categorized_EN.txt	SHEEP	FarmAnimals	8	21	[0, 0, 0]	n/a	catFR1	0	R1278E
2597.837	0.85	2604164	WORD_OFF	n/a	n/a	SHEEP	n/a	8	21	[0, 0, 0]	n/a	catFR1	0	R1278E
2598.687	1.617	2605014	WORD	n/a	wordpools/wordpool_categorized_EN.txt	HUMIDITY	Weather	9	21	[0, 0, 0]	n/a	catFR1	0	R1278E
2600.304	0.784	2606631	WORD_OFF	n/a	n/a	HUMIDITY	n/a	9	21	[0, 0, 0]	n/a	catFR1	0	R1278E
2601.088	1.617	2607414	WORD	n/a	wordpools/wordpool_categorized_EN.txt	LIGHTNING	Weather	10	21	[0, 0, 0]	n/a	catFR1	0	R1278E
2602.705	0.867	2609031	WORD_OFF	n/a	n/a	LIGHTNING	n/a	10	21	[0, 0, 0]	n/a	catFR1	0	R1278E
2603.572	1.617	2609898	WORD	n/a	wordpools/wordpool_categorized_EN.txt	SHELF	Furniture	11	21	[0, 0, 0]	n/a	catFR1	0	R1278E
2605.189	0.884	2611515	WORD_OFF	n/a	n/a	SHELF	n/a	11	21	[0, 0, 0]	n/a	catFR1	0	R1278E
2606.073	1.616	2612399	WORD	n/a	wordpools/wordpool_categorized_EN.txt	NIGHTSTAND	Furniture	12	21	[0, 0, 0]	n/a	catFR1	0	R1278E
2607.689	0.0	2614015	ENCODING_END	n/a	n/a	n/a	n/a	-999	21	[0, 0, 0]	n/a	catFR1	0	R1278E
2607.689	0.17	2614015	WORD_OFF	n/a	n/a	NIGHTSTAND	n/a	12	21	[0, 0, 0]	n/a	catFR1	0	R1278E
2607.859	0.0	2614185	DISTRACT_START	n/a	n/a	n/a	n/a	-999	21	[0, 0, 0]	n/a	catFR1	0	R1278E
2607.859	0.013	2614185	START	n/a	n/a	n/a	n/a	-999	21	[-999, -999, -999]	n/a	catFR1	0	R1278E
2607.872	4.369	2614198	PROB	4.369	n/a	n/a	n/a	-999	21	[1, 7, 4]	12	catFR1	0	R1278E
2612.241	5.683	2618567	PROB	5.683	n/a	n/a	n/a	-999	21	[3, 9, 2]	14	catFR1	0	R1278E
2617.924	4.601	2624250	PROB	4.601	n/a	n/a	n/a	-999	21	[5, 8, 8]	21	catFR1	0	R1278E
2622.525	9.49	2628851	PROB	9.49	n/a	n/a	n/a	-999	21	[8, 7, 5]	20	catFR1	0	R1278E
2632.015	0.012	2638340	STOP	n/a	n/a	n/a	n/a	-999	21	[-999, -999, -999]	n/a	catFR1	0	R1278E
2632.027	0.666	2638352	DISTRACT_END	n/a	n/a	n/a	n/a	-999	21	[0, 0, 0]	n/a	catFR1	0	R1278E
2632.693	0.519	2639018	RETRIEVAL_ORIENT	n/a	n/a	n/a	n/a	-999	21	[0, 0, 0]	n/a	catFR1	0	R1278E
2633.212	30.0	2639537	REC_START	n/a	n/a	n/a	n/a	-999	21	[0, 0, 0]	n/a	catFR1	0	R1278E
2663.212	0.008	2669536	REC_WORD_VV	0.008	n/a	<>	n/a	-999	21	[0, 0, 0]	n/a	catFR1	0	R1278E
2663.22	7.597	2669544	REC_END	n/a	n/a	n/a	n/a	-999	21	[0, 0, 0]	n/a	catFR1	0	R1278E
2670.817	0.5	2677141	TRIAL	n/a	n/a	n/a	n/a	-999	22	[0, 0, 0]	n/a	catFR1	0	R1278E
2671.317	10.428	2677641	COUNTDOWN_START	n/a	n/a	n/a	n/a	-999	22	[0, 0, 0]	n/a	catFR1	0	R1278E
2681.745	0.007	2688068	COUNTDOWN_END	n/a	n/a	n/a	n/a	-999	22	[0, 0, 0]	n/a	catFR1	0	R1278E
2681.752	1.617	2688075	ORIENT	n/a	n/a	n/a	n/a	-999	22	[0, 0, 0]	n/a	catFR1	0	R1278E
2683.369	2.0	2689692	ORIENT_OFF	n/a	n/a	n/a	n/a	-999	22	[0, 0, 0]	n/a	catFR1	0	R1278E
2685.369	1.617	2691692	WORD	n/a	wordpools/wordpool_categorized_EN.txt	ROOSTER	FarmAnimals	1	22	[0, 0, 0]	n/a	catFR1	0	R1278E
2686.986	0.85	2693309	WORD_OFF	n/a	n/a	ROOSTER	n/a	1	22	[0, 0, 0]	n/a	catFR1	0	R1278E
2687.836	1.617	2694159	WORD	n/a	wordpools/wordpool_categorized_EN.txt	TURKEY	FarmAnimals	2	22	[0, 0, 0]	n/a	catFR1	0	R1278E
2689.453	0.984	2695776	WORD_OFF	n/a	n/a	TURKEY	n/a	2	22	[0, 0, 0]	n/a	catFR1	0	R1278E
2690.437	1.618	2696760	WORD	n/a	wordpools/wordpool_categorized_EN.txt	SODA	Beverages	3	22	[0, 0, 0]	n/a	catFR1	0	R1278E
2692.055	0.832	2698378	WORD_OFF	n/a	n/a	SODA	n/a	3	22	[0, 0, 0]	n/a	catFR1	0	R1278E
2692.887	1.617	2699210	WORD	n/a	wordpools/wordpool_categorized_EN.txt	MILK	Beverages	4	22	[0, 0, 0]	n/a	catFR1	0	R1278E
2694.504	0.817	2700827	WORD_OFF	n/a	n/a	MILK	n/a	4	22	[0, 0, 0]	n/a	catFR1	0	R1278E
2695.321	1.617	2701644	WORD	n/a	wordpools/wordpool_categorized_EN.txt	RADIO	Electronics	5	22	[0, 0, 0]	n/a	catFR1	0	R1278E
2696.938	0.85	2703261	WORD_OFF	n/a	n/a	RADIO	n/a	5	22	[0, 0, 0]	n/a	catFR1	0	R1278E
2697.788	1.617	2704111	WORD	n/a	wordpools/wordpool_categorized_EN.txt	TABLET	Electronics	6	22	[0, 0, 0]	n/a	catFR1	0	R1278E
2699.405	0.95	2705728	WORD_OFF	n/a	n/a	TABLET	n/a	6	22	[0, 0, 0]	n/a	catFR1	0	R1278E
2700.355	1.617	2706678	WORD	n/a	wordpools/wordpool_categorized_EN.txt	LAMB	FarmAnimals	7	22	[0, 0, 0]	n/a	catFR1	0	R1278E
2701.972	0.8	2708295	WORD_OFF	n/a	n/a	LAMB	n/a	7	22	[0, 0, 0]	n/a	catFR1	0	R1278E
2702.772	1.617	2709095	WORD	n/a	wordpools/wordpool_categorized_EN.txt	COW	FarmAnimals	8	22	[0, 0, 0]	n/a	catFR1	0	R1278E
2704.389	0.984	2710711	WORD_OFF	n/a	n/a	COW	n/a	8	22	[0, 0, 0]	n/a	catFR1	0	R1278E
2705.373	1.617	2711695	WORD	n/a	wordpools/wordpool_categorized_EN.txt	WATER	Beverages	9	22	[0, 0, 0]	n/a	catFR1	0	R1278E
2706.99	0.85	2713312	WORD_OFF	n/a	n/a	WATER	n/a	9	22	[0, 0, 0]	n/a	catFR1	0	R1278E
2707.84	1.617	2714162	WORD	n/a	wordpools/wordpool_categorized_EN.txt	COLA	Beverages	10	22	[0, 0, 0]	n/a	catFR1	0	R1278E
2709.457	0.85	2715779	WORD_OFF	n/a	n/a	COLA	n/a	10	22	[0, 0, 0]	n/a	catFR1	0	R1278E
2710.307	1.617	2716629	WORD	n/a	wordpools/wordpool_categorized_EN.txt	MICROWAVE	Electronics	11	22	[0, 0, 0]	n/a	catFR1	0	R1278E
2711.924	1.0	2718246	WORD_OFF	n/a	n/a	MICROWAVE	n/a	11	22	[0, 0, 0]	n/a	catFR1	0	R1278E
2712.924	1.617	2719246	WORD	n/a	wordpools/wordpool_categorized_EN.txt	STEREO	Electronics	12	22	[0, 0, 0]	n/a	catFR1	0	R1278E
2714.541	0.0	2720863	ENCODING_END	n/a	n/a	n/a	n/a	-999	22	[0, 0, 0]	n/a	catFR1	0	R1278E
2714.541	0.134	2720863	WORD_OFF	n/a	n/a	STEREO	n/a	12	22	[0, 0, 0]	n/a	catFR1	0	R1278E
2714.675	0.0	2720997	DISTRACT_START	n/a	n/a	n/a	n/a	-999	22	[0, 0, 0]	n/a	catFR1	0	R1278E
2714.675	0.016	2720997	START	n/a	n/a	n/a	n/a	-999	22	[-999, -999, -999]	n/a	catFR1	0	R1278E
2714.691	7.569	2721013	PROB	7.569	n/a	n/a	n/a	-999	22	[9, 7, 3]	19	catFR1	0	R1278E
2722.26	4.116	2728582	PROB	4.116	n/a	n/a	n/a	-999	22	[3, 6, 6]	15	catFR1	0	R1278E
2726.376	10.866	2732698	PROB	10.866	n/a	n/a	n/a	-999	22	[6, 7, 5]	18	catFR1	0	R1278E
2737.242	0.021	2743563	STOP	n/a	n/a	n/a	n/a	-999	22	[-999, -999, -999]	n/a	catFR1	0	R1278E
2737.263	0.599	2743584	DISTRACT_END	n/a	n/a	n/a	n/a	-999	22	[0, 0, 0]	n/a	catFR1	0	R1278E
2737.862	0.517	2744183	RETRIEVAL_ORIENT	n/a	n/a	n/a	n/a	-999	22	[0, 0, 0]	n/a	catFR1	0	R1278E
2738.379	2.114	2744700	REC_START	n/a	n/a	n/a	n/a	-999	22	[0, 0, 0]	n/a	catFR1	0	R1278E
2740.493	0.295	2746814	REC_WORD_VV	0.295	n/a	<>	n/a	-999	22	[0, 0, 0]	n/a	catFR1	0	R1278E
2740.788	2.01	2747109	REC_WORD_VV	2.01	n/a	<>	n/a	-999	22	[0, 0, 0]	n/a	catFR1	0	R1278E
2742.798	3.088	2749119	REC_WORD	3.088	n/a	STEREO	Electronics	12	22	[0, 0, 0]	n/a	catFR1	0	R1278E
2745.886	4.261	2752207	REC_WORD	4.261	n/a	ROOSTER	FarmAnimals	1	22	[0, 0, 0]	n/a	catFR1	0	R1278E
2750.147	3.261	2756468	REC_WORD	3.261	n/a	MILK	Beverages	4	22	[0, 0, 0]	n/a	catFR1	0	R1278E
2753.408	9.283	2759729	REC_WORD	9.283	n/a	SODA	Beverages	3	22	[0, 0, 0]	n/a	catFR1	0	R1278E
2762.691	5.696	2769011	REC_WORD	5.696	n/a	WATER	Beverages	9	22	[0, 0, 0]	n/a	catFR1	0	R1278E
2768.387	12.667	2774707	REC_END	n/a	n/a	n/a	n/a	-999	22	[0, 0, 0]	n/a	catFR1	0	R1278E
2781.054	0.5	2787373	TRIAL	n/a	n/a	n/a	n/a	-999	23	[0, 0, 0]	n/a	catFR1	0	R1278E
2781.554	10.428	2787873	COUNTDOWN_START	n/a	n/a	n/a	n/a	-999	23	[0, 0, 0]	n/a	catFR1	0	R1278E
2791.982	0.006	2798301	COUNTDOWN_END	n/a	n/a	n/a	n/a	-999	23	[0, 0, 0]	n/a	catFR1	0	R1278E
2791.988	1.617	2798307	ORIENT	n/a	n/a	n/a	n/a	-999	23	[0, 0, 0]	n/a	catFR1	0	R1278E
