onset	duration	sample	trial_type	response_time	stim_file	item_name	category	serialpos	list	test	answer	experiment	session	subject
0.0	0.999	78270	INSTRUCT_START	n/a	n/a	n/a	n/a	-999	-999	[0, 0, 0]	n/a	catFR1	2	R1473J
0.999	0.0	79262	INSTRUCT_END	n/a	n/a	n/a	n/a	-999	-999	[0, 0, 0]	n/a	catFR1	2	R1473J
-206.215	1.285	127536	INSTRUCT_START	n/a	n/a	n/a	n/a	-999	-999	[0, 0, 0]	n/a	catFR1	2	R1473J
-204.93	279.561	128819	INSTRUCT_END	n/a	n/a	n/a	n/a	-999	-999	[0, 0, 0]	n/a	catFR1	2	R1473J
74.631	10.35	152897	COUNTDOWN_START	n/a	n/a	n/a	n/a	-999	-999	[0, 0, 0]	n/a	catFR1	2	R1473J
84.981	0.001	163248	COUNTDOWN_END	n/a	n/a	n/a	n/a	-999	-999	[0, 0, 0]	n/a	catFR1	2	R1473J
84.982	2.201	163248	ENCODING_START	n/a	n/a	n/a	n/a	-999	-1	[0, 0, 0]	n/a	catFR1	2	R1473J
87.183	1.615	165448	WORD	n/a	n/a	CAULIFLOWER	Vegetables	1	-1	[0, 0, 0]	n/a	catFR1	2	R1473J
88.798	0.867	167054	WORD_OFF	n/a	n/a	CAULIFLOWER	Vegetables	1	-1	[0, 0, 0]	n/a	catFR1	2	R1473J
89.665	1.6	167928	WORD	n/a	n/a	LETTUCE	Vegetables	2	-1	[0, 0, 0]	n/a	catFR1	2	R1473J
91.265	0.85	169524	WORD_OFF	n/a	n/a	LETTUCE	Vegetables	2	-1	[0, 0, 0]	n/a	catFR1	2	R1473J
92.115	1.601	170375	WORD	n/a	n/a	BASS	Instruments	3	-1	[0, 0, 0]	n/a	catFR1	2	R1473J
93.716	0.916	171982	WORD_OFF	n/a	n/a	BASS	Instruments	3	-1	[0, 0, 0]	n/a	catFR1	2	R1473J
94.632	1.616	172888	WORD	n/a	n/a	TUBA	Instruments	4	-1	[0, 0, 0]	n/a	catFR1	2	R1473J
96.248	1.001	174505	WORD_OFF	n/a	n/a	TUBA	Instruments	4	-1	[0, 0, 0]	n/a	catFR1	2	R1473J
97.249	1.616	175508	WORD	n/a	n/a	HAND	BodyParts	5	-1	[0, 0, 0]	n/a	catFR1	2	R1473J
98.865	0.766	177125	WORD_OFF	n/a	n/a	HAND	BodyParts	5	-1	[0, 0, 0]	n/a	catFR1	2	R1473J
99.631	1.6	177891	WORD	n/a	n/a	LEG	BodyParts	6	-1	[0, 0, 0]	n/a	catFR1	2	R1473J
101.231	0.832	179498	WORD_OFF	n/a	n/a	LEG	BodyParts	6	-1	[0, 0, 0]	n/a	catFR1	2	R1473J
102.063	1.601	180328	WORD	n/a	n/a	BANJO	Instruments	7	-1	[0, 0, 0]	n/a	catFR1	2	R1473J
103.664	0.933	181924	WORD_OFF	n/a	n/a	BANJO	Instruments	7	-1	[0, 0, 0]	n/a	catFR1	2	R1473J
104.597	1.618	182862	WORD	n/a	n/a	TROMBONE	Instruments	8	-1	[0, 0, 0]	n/a	catFR1	2	R1473J
106.215	0.849	184479	WORD_OFF	n/a	n/a	TROMBONE	Instruments	8	-1	[0, 0, 0]	n/a	catFR1	2	R1473J
107.064	1.6	185320	WORD	n/a	n/a	SPINACH	Vegetables	9	-1	[0, 0, 0]	n/a	catFR1	2	R1473J
108.664	0.885	186937	WORD_OFF	n/a	n/a	SPINACH	Vegetables	9	-1	[0, 0, 0]	n/a	catFR1	2	R1473J
109.549	1.615	187811	WORD	n/a	n/a	POTATO	Vegetables	10	-1	[0, 0, 0]	n/a	catFR1	2	R1473J
111.164	0.918	189428	WORD_OFF	n/a	n/a	POTATO	Vegetables	10	-1	[0, 0, 0]	n/a	catFR1	2	R1473J
112.082	1.616	190345	WORD	n/a	n/a	ARM	BodyParts	11	-1	[0, 0, 0]	n/a	catFR1	2	R1473J
113.698	0.951	191962	WORD_OFF	n/a	n/a	ARM	BodyParts	11	-1	[0, 0, 0]	n/a	catFR1	2	R1473J
114.649	1.616	192911	WORD	n/a	n/a	FOOT	BodyParts	12	-1	[0, 0, 0]	n/a	catFR1	2	R1473J
116.265	0.001	194523	START	n/a	n/a	n/a	n/a	-999	-1	[-999, -999, -999]	n/a	catFR1	2	R1473J
116.266	0.0	194524	PROB	0.0	n/a	n/a	n/a	-999	-1	[4, 1, 3]	8	catFR1	2	R1473J
116.264	0.001	194528	WORD_OFF	n/a	n/a	FOOT	BodyParts	12	-1	[0, 0, 0]	n/a	catFR1	2	R1473J
116.265	0.0	194528	ENCODING_END	n/a	n/a	n/a	n/a	-999	-1	[0, 0, 0]	n/a	catFR1	2	R1473J
116.265	3.784	194528	DISTRACT_START	n/a	n/a	n/a	n/a	-999	-1	[0, 0, 0]	n/a	catFR1	2	R1473J
120.049	3.133	198307	PROB	3.133	n/a	n/a	n/a	-999	-1	[6, 1, 1]	8	catFR1	2	R1473J
123.182	4.233	201440	PROB	4.233	n/a	n/a	n/a	-999	-1	[5, 7, 5]	17	catFR1	2	R1473J
127.415	4.334	205673	PROB	4.334	n/a	n/a	n/a	-999	-1	[6, 2, 8]	16	catFR1	2	R1473J
131.749	6.065	210006	PROB	6.065	n/a	n/a	n/a	-999	-1	[7, 1, 5]	14	catFR1	2	R1473J
137.814	0.0	216071	STOP	n/a	n/a	n/a	n/a	-999	-1	[-999, -999, -999]	n/a	catFR1	2	R1473J
137.814	1.4	216072	DISTRACT_END	n/a	n/a	n/a	n/a	-999	-1	[0, 0, 0]	n/a	catFR1	2	R1473J
139.214	0.394	217474	REC_START	n/a	n/a	n/a	n/a	-999	-1	[0, 0, 0]	n/a	catFR1	2	R1473J
139.608	1.0	217865	REC_WORD_VV	1.0	n/a	<>	n/a	-999	-1	[0, 0, 0]	n/a	catFR1	2	R1473J
140.608	1.477	218865	REC_WORD_VV	1.477	n/a	<>	n/a	-999	-1	[0, 0, 0]	n/a	catFR1	2	R1473J
142.085	1.0	220342	REC_WORD	1.0	n/a	CAULIFLOWER	Vegetables	1	-1	[0, 0, 0]	n/a	catFR1	2	R1473J
143.085	2.686	221342	REC_WORD_VV	2.686	n/a	<>	n/a	-999	-1	[0, 0, 0]	n/a	catFR1	2	R1473J
145.771	1.793	224028	REC_WORD	1.793	n/a	BASS	Instruments	3	-1	[0, 0, 0]	n/a	catFR1	2	R1473J
147.564	3.123	225821	REC_WORD	3.123	n/a	TROMBONE	Instruments	8	-1	[0, 0, 0]	n/a	catFR1	2	R1473J
150.687	2.918	228944	REC_WORD	2.918	n/a	SPINACH	Vegetables	9	-1	[0, 0, 0]	n/a	catFR1	2	R1473J
153.605	16.802	231861	REC_WORD	16.802	n/a	TUBA	Instruments	4	-1	[0, 0, 0]	n/a	catFR1	2	R1473J
170.407	8.19	248668	REC_END	n/a	n/a	n/a	n/a	-999	-1	[0, 0, 0]	n/a	catFR1	2	R1473J
178.597	10.352	256852	COUNTDOWN_START	n/a	n/a	n/a	n/a	-999	1	[0, 0, 0]	n/a	catFR1	2	R1473J
188.949	0.0	267203	COUNTDOWN_END	n/a	n/a	n/a	n/a	-999	1	[0, 0, 0]	n/a	catFR1	2	R1473J
188.949	2.148	267203	ENCODING_START	n/a	n/a	n/a	n/a	-999	1	[0, 0, 0]	n/a	catFR1	2	R1473J
191.097	1.601	269349	WORD	n/a	wordpools/wordpool_categorized_EN.txt	VALLEY	Landscapes	1	1	[0, 0, 0]	n/a	catFR1	2	R1473J
192.698	0.8	270956	WORD_OFF	n/a	n/a	VALLEY	Landscapes	1	1	[0, 0, 0]	n/a	catFR1	2	R1473J
193.498	1.617	271753	WORD	n/a	wordpools/wordpool_categorized_EN.txt	WOODS	Landscapes	2	1	[0, 0, 0]	n/a	catFR1	2	R1473J
195.115	0.815	273371	WORD_OFF	n/a	n/a	WOODS	Landscapes	2	1	[0, 0, 0]	n/a	catFR1	2	R1473J
195.93	1.601	274190	WORD	n/a	wordpools/wordpool_categorized_EN.txt	TOE	BodyParts	3	1	[0, 0, 0]	n/a	catFR1	2	R1473J
197.531	0.867	275786	WORD_OFF	n/a	n/a	TOE	BodyParts	3	1	[0, 0, 0]	n/a	catFR1	2	R1473J
198.398	1.617	276660	WORD	n/a	wordpools/wordpool_categorized_EN.txt	ELBOW	BodyParts	4	1	[0, 0, 0]	n/a	catFR1	2	R1473J
200.015	0.983	278277	WORD_OFF	n/a	n/a	ELBOW	BodyParts	4	1	[0, 0, 0]	n/a	catFR1	2	R1473J
200.998	1.617	279258	WORD	n/a	wordpools/wordpool_categorized_EN.txt	ZEBRA	Zoo	5	1	[0, 0, 0]	n/a	catFR1	2	R1473J
202.615	0.85	280876	WORD_OFF	n/a	n/a	ZEBRA	Zoo	5	1	[0, 0, 0]	n/a	catFR1	2	R1473J
203.465	1.617	281717	WORD	n/a	wordpools/wordpool_categorized_EN.txt	LION	Zoo	6	1	[0, 0, 0]	n/a	catFR1	2	R1473J
205.082	0.933	283334	WORD_OFF	n/a	n/a	LION	Zoo	6	1	[0, 0, 0]	n/a	catFR1	2	R1473J
206.015	1.615	284272	WORD	n/a	wordpools/wordpool_categorized_EN.txt	FINGERS	BodyParts	7	1	[0, 0, 0]	n/a	catFR1	2	R1473J
207.63	0.934	285889	WORD_OFF	n/a	n/a	FINGERS	BodyParts	7	1	[0, 0, 0]	n/a	catFR1	2	R1473J
208.564	1.618	286828	WORD	n/a	wordpools/wordpool_categorized_EN.txt	EAR	BodyParts	8	1	[0, 0, 0]	n/a	catFR1	2	R1473J
210.182	0.933	288434	WORD_OFF	n/a	n/a	EAR	BodyParts	8	1	[0, 0, 0]	n/a	catFR1	2	R1473J
211.115	1.616	289372	WORD	n/a	wordpools/wordpool_categorized_EN.txt	CHEETAH	Zoo	9	1	[0, 0, 0]	n/a	catFR1	2	R1473J
212.731	0.951	290990	WORD_OFF	n/a	n/a	CHEETAH	Zoo	9	1	[0, 0, 0]	n/a	catFR1	2	R1473J
213.682	1.6	291938	WORD	n/a	wordpools/wordpool_categorized_EN.txt	CHIMPANZEE	Zoo	10	1	[0, 0, 0]	n/a	catFR1	2	R1473J
215.282	0.765	293534	WORD_OFF	n/a	n/a	CHIMPANZEE	Zoo	10	1	[0, 0, 0]	n/a	catFR1	2	R1473J
216.047	1.602	294300	WORD	n/a	wordpools/wordpool_categorized_EN.txt	HILLS	Landscapes	11	1	[0, 0, 0]	n/a	catFR1	2	R1473J
217.649	0.948	295906	WORD_OFF	n/a	n/a	HILLS	Landscapes	11	1	[0, 0, 0]	n/a	catFR1	2	R1473J
218.597	1.618	296855	WORD	n/a	wordpools/wordpool_categorized_EN.txt	BEACH	Landscapes	12	1	[0, 0, 0]	n/a	catFR1	2	R1473J
220.215	0.002	298469	PROB	0.002	n/a	n/a	n/a	-999	1	[5, 1, 4]	10	catFR1	2	R1473J
220.217	0.0	298471	START	n/a	n/a	n/a	n/a	-999	1	[-999, -999, -999]	n/a	catFR1	2	R1473J
220.215	0.002	298473	WORD_OFF	n/a	n/a	BEACH	Landscapes	12	1	[0, 0, 0]	n/a	catFR1	2	R1473J
220.217	0.0	298473	ENCODING_END	n/a	n/a	n/a	n/a	-999	1	[0, 0, 0]	n/a	catFR1	2	R1473J
220.217	4.246	298473	DISTRACT_START	n/a	n/a	n/a	n/a	-999	1	[0, 0, 0]	n/a	catFR1	2	R1473J
224.463	3.119	302717	PROB	3.119	n/a	n/a	n/a	-999	1	[2, 1, 2]	5	catFR1	2	R1473J
227.582	4.467	305835	PROB	4.467	n/a	n/a	n/a	-999	1	[7, 2, 5]	14	catFR1	2	R1473J
232.049	3.999	310302	PROB	3.999	n/a	n/a	n/a	-999	1	[7, 7, 4]	18	catFR1	2	R1473J
236.048	3.451	314301	PROB	3.451	n/a	n/a	n/a	-999	1	[8, 2, 6]	16	catFR1	2	R1473J
239.499	3.998	317752	PROB	3.998	n/a	n/a	n/a	-999	1	[2, 4, 8]	14	catFR1	2	R1473J
243.497	0.0	321750	STOP	n/a	n/a	n/a	n/a	-999	1	[-999, -999, -999]	n/a	catFR1	2	R1473J
243.497	1.267	321752	DISTRACT_END	n/a	n/a	n/a	n/a	-999	1	[0, 0, 0]	n/a	catFR1	2	R1473J
244.764	3.421	323014	REC_START	n/a	n/a	n/a	n/a	-999	1	[0, 0, 0]	n/a	catFR1	2	R1473J
248.185	3.309	326438	REC_WORD_VV	3.309	n/a	<>	n/a	-999	1	[0, 0, 0]	n/a	catFR1	2	R1473J
251.494	2.537	329746	REC_WORD	2.537	n/a	ZEBRA	Zoo	5	1	[0, 0, 0]	n/a	catFR1	2	R1473J
254.031	12.126	332283	REC_WORD	12.126	n/a	LION	Zoo	6	1	[0, 0, 0]	n/a	catFR1	2	R1473J
266.157	1.849	344409	REC_WORD	1.849	n/a	TOE	BodyParts	3	1	[0, 0, 0]	n/a	catFR1	2	R1473J
268.006	7.995	346258	REC_WORD	7.995	n/a	FINGERS	BodyParts	7	1	[0, 0, 0]	n/a	catFR1	2	R1473J
276.001	2.43	354251	REC_END	n/a	n/a	n/a	n/a	-999	1	[0, 0, 0]	n/a	catFR1	2	R1473J
278.431	10.352	356688	COUNTDOWN_START	n/a	n/a	n/a	n/a	-999	1	[0, 0, 0]	n/a	catFR1	2	R1473J
288.783	0.0	367039	COUNTDOWN_END	n/a	n/a	n/a	n/a	-999	1	[0, 0, 0]	n/a	catFR1	2	R1473J
288.783	2.215	367039	ENCODING_START	n/a	n/a	n/a	n/a	-999	2	[0, 0, 0]	n/a	catFR1	2	R1473J
290.998	1.6	369250	WORD	n/a	wordpools/wordpool_categorized_EN.txt	BLOUSE	Clothing	1	2	[0, 0, 0]	n/a	catFR1	2	R1473J
292.598	0.984	370848	WORD_OFF	n/a	n/a	BLOUSE	Clothing	1	2	[0, 0, 0]	n/a	catFR1	2	R1473J
293.582	1.615	371838	WORD	n/a	wordpools/wordpool_categorized_EN.txt	SHORTS	Clothing	2	2	[0, 0, 0]	n/a	catFR1	2	R1473J
295.197	0.967	373455	WORD_OFF	n/a	n/a	SHORTS	Clothing	2	2	[0, 0, 0]	n/a	catFR1	2	R1473J
296.164	1.6	374415	WORD	n/a	wordpools/wordpool_categorized_EN.txt	OAK	Trees	3	2	[0, 0, 0]	n/a	catFR1	2	R1473J
297.764	0.833	376021	WORD_OFF	n/a	n/a	OAK	Trees	3	2	[0, 0, 0]	n/a	catFR1	2	R1473J
298.597	1.618	376851	WORD	n/a	wordpools/wordpool_categorized_EN.txt	WILLOW	Trees	4	2	[0, 0, 0]	n/a	catFR1	2	R1473J
300.215	0.982	378469	WORD_OFF	n/a	n/a	WILLOW	Trees	4	2	[0, 0, 0]	n/a	catFR1	2	R1473J
301.197	1.6	379450	WORD	n/a	wordpools/wordpool_categorized_EN.txt	TURTLE	OceanAnimals	5	2	[0, 0, 0]	n/a	catFR1	2	R1473J
302.797	0.985	381046	WORD_OFF	n/a	n/a	TURTLE	OceanAnimals	5	2	[0, 0, 0]	n/a	catFR1	2	R1473J
303.782	1.6	382038	WORD	n/a	wordpools/wordpool_categorized_EN.txt	OYSTER	OceanAnimals	6	2	[0, 0, 0]	n/a	catFR1	2	R1473J
305.382	0.933	383634	WORD_OFF	n/a	n/a	OYSTER	OceanAnimals	6	2	[0, 0, 0]	n/a	catFR1	2	R1473J
306.315	1.6	384572	WORD	n/a	wordpools/wordpool_categorized_EN.txt	EVERGREEN	Trees	7	2	[0, 0, 0]	n/a	catFR1	2	R1473J
307.915	0.783	386168	WORD_OFF	n/a	n/a	EVERGREEN	Trees	7	2	[0, 0, 0]	n/a	catFR1	2	R1473J
308.698	1.617	386955	WORD	n/a	wordpools/wordpool_categorized_EN.txt	HICKORY	Trees	8	2	[0, 0, 0]	n/a	catFR1	2	R1473J
310.315	0.766	388572	WORD_OFF	n/a	n/a	HICKORY	Trees	8	2	[0, 0, 0]	n/a	catFR1	2	R1473J
311.081	1.617	389338	WORD	n/a	wordpools/wordpool_categorized_EN.txt	SHIRT	Clothing	9	2	[0, 0, 0]	n/a	catFR1	2	R1473J
312.698	0.966	390944	WORD_OFF	n/a	n/a	SHIRT	Clothing	9	2	[0, 0, 0]	n/a	catFR1	2	R1473J
313.664	1.617	391915	WORD	n/a	wordpools/wordpool_categorized_EN.txt	PANTS	Clothing	10	2	[0, 0, 0]	n/a	catFR1	2	R1473J
315.281	0.917	393532	WORD_OFF	n/a	n/a	PANTS	Clothing	10	2	[0, 0, 0]	n/a	catFR1	2	R1473J
316.198	1.617	394449	WORD	n/a	wordpools/wordpool_categorized_EN.txt	FISH	OceanAnimals	11	2	[0, 0, 0]	n/a	catFR1	2	R1473J
317.815	0.981	396066	WORD_OFF	n/a	n/a	FISH	OceanAnimals	11	2	[0, 0, 0]	n/a	catFR1	2	R1473J
318.796	1.601	397047	WORD	n/a	wordpools/wordpool_categorized_EN.txt	DOLPHIN	OceanAnimals	12	2	[0, 0, 0]	n/a	catFR1	2	R1473J
320.397	0.001	398643	WORD_OFF	n/a	n/a	DOLPHIN	OceanAnimals	12	2	[0, 0, 0]	n/a	catFR1	2	R1473J
320.398	0.002	398648	PROB	0.002	n/a	n/a	n/a	-999	2	[1, 4, 8]	13	catFR1	2	R1473J
320.4	0.0	398650	START	n/a	n/a	n/a	n/a	-999	2	[-999, -999, -999]	n/a	catFR1	2	R1473J
320.4	0.0	398654	ENCODING_END	n/a	n/a	n/a	n/a	-999	2	[0, 0, 0]	n/a	catFR1	2	R1473J
320.4	4.198	398654	DISTRACT_START	n/a	n/a	n/a	n/a	-999	2	[0, 0, 0]	n/a	catFR1	2	R1473J
324.598	4.083	402847	PROB	4.083	n/a	n/a	n/a	-999	2	[7, 2, 2]	11	catFR1	2	R1473J
328.681	3.9	406930	PROB	3.9	n/a	n/a	n/a	-999	2	[3, 7, 4]	14	catFR1	2	R1473J
332.581	7.201	410830	PROB	7.201	n/a	n/a	n/a	-999	2	[6, 6, 8]	20	catFR1	2	R1473J
339.782	5.797	418031	PROB	5.797	n/a	n/a	n/a	-999	2	[6, 3, 6]	15	catFR1	2	R1473J
345.579	0.0	423827	STOP	n/a	n/a	n/a	n/a	-999	2	[-999, -999, -999]	n/a	catFR1	2	R1473J
345.579	1.151	423831	DISTRACT_END	n/a	n/a	n/a	n/a	-999	2	[0, 0, 0]	n/a	catFR1	2	R1473J
346.73	2.146	424985	REC_START	n/a	n/a	n/a	n/a	-999	2	[0, 0, 0]	n/a	catFR1	2	R1473J
348.876	1.0	427124	REC_WORD_VV	1.0	n/a	<>	n/a	-999	2	[0, 0, 0]	n/a	catFR1	2	R1473J
349.876	1.0	428124	REC_WORD_VV	1.0	n/a	<>	n/a	-999	2	[0, 0, 0]	n/a	catFR1	2	R1473J
350.876	27.074	429124	REC_WORD_VV	27.074	n/a	<>	n/a	-999	2	[0, 0, 0]	n/a	catFR1	2	R1473J
377.95	2.132	456201	REC_END	n/a	n/a	n/a	n/a	-999	2	[0, 0, 0]	n/a	catFR1	2	R1473J
380.082	10.35	458336	COUNTDOWN_START	n/a	n/a	n/a	n/a	-999	2	[0, 0, 0]	n/a	catFR1	2	R1473J
390.432	0.0	468676	COUNTDOWN_END	n/a	n/a	n/a	n/a	-999	2	[0, 0, 0]	n/a	catFR1	2	R1473J
390.432	1.898	468687	ENCODING_START	n/a	n/a	n/a	n/a	-999	3	[0, 0, 0]	n/a	catFR1	2	R1473J
392.33	1.602	470574	WORD	n/a	wordpools/wordpool_categorized_EN.txt	BEER	Beverages	1	3	[0, 0, 0]	n/a	catFR1	2	R1473J
393.932	0.983	472180	WORD_OFF	n/a	n/a	BEER	Beverages	1	3	[0, 0, 0]	n/a	catFR1	2	R1473J
394.915	1.615	473162	WORD	n/a	wordpools/wordpool_categorized_EN.txt	WINE	Beverages	2	3	[0, 0, 0]	n/a	catFR1	2	R1473J
396.53	0.985	474779	WORD_OFF	n/a	n/a	WINE	Beverages	2	3	[0, 0, 0]	n/a	catFR1	2	R1473J
397.515	1.6	475760	WORD	n/a	wordpools/wordpool_categorized_EN.txt	SCANNER	Electronics	3	3	[0, 0, 0]	n/a	catFR1	2	R1473J
399.115	0.867	477367	WORD_OFF	n/a	n/a	SCANNER	Electronics	3	3	[0, 0, 0]	n/a	catFR1	2	R1473J
399.982	1.6	478229	WORD	n/a	wordpools/wordpool_categorized_EN.txt	SPEAKER	Electronics	4	3	[0, 0, 0]	n/a	catFR1	2	R1473J
401.582	0.867	479825	WORD_OFF	n/a	n/a	SPEAKER	Electronics	4	3	[0, 0, 0]	n/a	catFR1	2	R1473J
402.449	1.6	480699	WORD	n/a	wordpools/wordpool_categorized_EN.txt	ORCHID	Flowers	5	3	[0, 0, 0]	n/a	catFR1	2	R1473J
404.049	0.882	482294	WORD_OFF	n/a	n/a	ORCHID	Flowers	5	3	[0, 0, 0]	n/a	catFR1	2	R1473J
404.931	1.618	483179	WORD	n/a	wordpools/wordpool_categorized_EN.txt	MARIGOLD	Flowers	6	3	[0, 0, 0]	n/a	catFR1	2	R1473J
406.549	0.883	484796	WORD_OFF	n/a	n/a	MARIGOLD	Flowers	6	3	[0, 0, 0]	n/a	catFR1	2	R1473J
407.432	1.617	485680	WORD	n/a	wordpools/wordpool_categorized_EN.txt	STEREO	Electronics	7	3	[0, 0, 0]	n/a	catFR1	2	R1473J
409.049	0.781	487298	WORD_OFF	n/a	n/a	STEREO	Electronics	7	3	[0, 0, 0]	n/a	catFR1	2	R1473J
409.83	1.601	488074	WORD	n/a	wordpools/wordpool_categorized_EN.txt	COMPUTER	Electronics	8	3	[0, 0, 0]	n/a	catFR1	2	R1473J
411.431	0.967	489681	WORD_OFF	n/a	n/a	COMPUTER	Electronics	8	3	[0, 0, 0]	n/a	catFR1	2	R1473J
412.398	1.6	490640	WORD	n/a	wordpools/wordpool_categorized_EN.txt	DAFFODIL	Flowers	9	3	[0, 0, 0]	n/a	catFR1	2	R1473J
413.998	0.884	492247	WORD_OFF	n/a	n/a	DAFFODIL	Flowers	9	3	[0, 0, 0]	n/a	catFR1	2	R1473J
414.882	1.6	493131	WORD	n/a	wordpools/wordpool_categorized_EN.txt	PETUNIA	Flowers	10	3	[0, 0, 0]	n/a	catFR1	2	R1473J
416.482	0.983	494727	WORD_OFF	n/a	n/a	PETUNIA	Flowers	10	3	[0, 0, 0]	n/a	catFR1	2	R1473J
417.465	1.617	495708	WORD	n/a	wordpools/wordpool_categorized_EN.txt	SODA	Beverages	11	3	[0, 0, 0]	n/a	catFR1	2	R1473J
419.082	0.767	497325	WORD_OFF	n/a	n/a	SODA	Beverages	11	3	[0, 0, 0]	n/a	catFR1	2	R1473J
419.849	1.615	498091	WORD	n/a	wordpools/wordpool_categorized_EN.txt	TEA	Beverages	12	3	[0, 0, 0]	n/a	catFR1	2	R1473J
421.464	0.0	499708	WORD_OFF	n/a	n/a	TEA	Beverages	12	3	[0, 0, 0]	n/a	catFR1	2	R1473J
421.464	0.001	499709	PROB	0.001	n/a	n/a	n/a	-999	3	[2, 3, 8]	13	catFR1	2	R1473J
421.465	0.0	499710	START	n/a	n/a	n/a	n/a	-999	3	[-999, -999, -999]	n/a	catFR1	2	R1473J
421.465	0.0	499719	ENCODING_END	n/a	n/a	n/a	n/a	-999	3	[0, 0, 0]	n/a	catFR1	2	R1473J
421.465	3.584	499719	DISTRACT_START	n/a	n/a	n/a	n/a	-999	3	[0, 0, 0]	n/a	catFR1	2	R1473J
425.049	3.849	503294	PROB	3.849	n/a	n/a	n/a	-999	3	[4, 3, 2]	9	catFR1	2	R1473J
428.898	7.284	507143	PROB	7.284	n/a	n/a	n/a	-999	3	[5, 6, 3]	14	catFR1	2	R1473J
436.182	6.7	514427	PROB	6.7	n/a	n/a	n/a	-999	3	[2, 4, 6]	12	catFR1	2	R1473J
442.882	0.0	521126	STOP	n/a	n/a	n/a	n/a	-999	3	[-999, -999, -999]	n/a	catFR1	2	R1473J
442.882	1.233	521133	DISTRACT_END	n/a	n/a	n/a	n/a	-999	3	[0, 0, 0]	n/a	catFR1	2	R1473J
444.115	1.857	522363	REC_START	n/a	n/a	n/a	n/a	-999	3	[0, 0, 0]	n/a	catFR1	2	R1473J
445.972	1.402	524216	REC_WORD	1.402	n/a	BEER	Beverages	1	3	[0, 0, 0]	n/a	catFR1	2	R1473J
447.374	1.431	525618	REC_WORD	1.431	n/a	WINE	Beverages	2	3	[0, 0, 0]	n/a	catFR1	2	R1473J
448.805	1.536	527049	REC_WORD	1.536	n/a	SODA	Beverages	11	3	[0, 0, 0]	n/a	catFR1	2	R1473J
450.341	4.866	528585	REC_WORD	4.866	n/a	TEA	Beverages	12	3	[0, 0, 0]	n/a	catFR1	2	R1473J
455.207	4.168	533451	REC_WORD	4.168	n/a	COMPUTER	Electronics	8	3	[0, 0, 0]	n/a	catFR1	2	R1473J
459.375	15.964	537619	REC_WORD	15.964	n/a	SCANNER	Electronics	3	3	[0, 0, 0]	n/a	catFR1	2	R1473J
475.339	2.31	553589	REC_END	n/a	n/a	n/a	n/a	-999	3	[0, 0, 0]	n/a	catFR1	2	R1473J
477.649	10.348	555897	COUNTDOWN_START	n/a	n/a	n/a	n/a	-999	3	[0, 0, 0]	n/a	catFR1	2	R1473J
487.997	0.001	566248	COUNTDOWN_END	n/a	n/a	n/a	n/a	-999	3	[0, 0, 0]	n/a	catFR1	2	R1473J
487.998	2.1	566248	ENCODING_START	n/a	n/a	n/a	n/a	-999	4	[0, 0, 0]	n/a	catFR1	2	R1473J
490.098	1.6	568340	WORD	n/a	wordpools/wordpool_categorized_EN.txt	GOAT	FarmAnimals	1	4	[0, 0, 0]	n/a	catFR1	2	R1473J
491.698	0.884	569946	WORD_OFF	n/a	n/a	GOAT	FarmAnimals	1	4	[0, 0, 0]	n/a	catFR1	2	R1473J
492.582	1.6	570830	WORD	n/a	wordpools/wordpool_categorized_EN.txt	HORSE	FarmAnimals	2	4	[0, 0, 0]	n/a	catFR1	2	R1473J
494.182	0.982	572426	WORD_OFF	n/a	n/a	HORSE	FarmAnimals	2	4	[0, 0, 0]	n/a	catFR1	2	R1473J
495.164	1.6	573407	WORD	n/a	wordpools/wordpool_categorized_EN.txt	PLIERS	Tools	3	4	[0, 0, 0]	n/a	catFR1	2	R1473J
496.764	0.951	575003	WORD_OFF	n/a	n/a	PLIERS	Tools	3	4	[0, 0, 0]	n/a	catFR1	2	R1473J
497.715	1.6	575963	WORD	n/a	wordpools/wordpool_categorized_EN.txt	LEVEL	Tools	4	4	[0, 0, 0]	n/a	catFR1	2	R1473J
499.315	0.849	577559	WORD_OFF	n/a	n/a	LEVEL	Tools	4	4	[0, 0, 0]	n/a	catFR1	2	R1473J
500.164	1.601	578411	WORD	n/a	wordpools/wordpool_categorized_EN.txt	LADLE	KitchenTools	5	4	[0, 0, 0]	n/a	catFR1	2	R1473J
501.765	0.765	580006	WORD_OFF	n/a	n/a	LADLE	KitchenTools	5	4	[0, 0, 0]	n/a	catFR1	2	R1473J
502.53	1.601	580772	WORD	n/a	wordpools/wordpool_categorized_EN.txt	CORKSCREW	KitchenTools	6	4	[0, 0, 0]	n/a	catFR1	2	R1473J
504.131	0.999	582379	WORD_OFF	n/a	n/a	CORKSCREW	KitchenTools	6	4	[0, 0, 0]	n/a	catFR1	2	R1473J
505.13	1.601	583371	WORD	n/a	wordpools/wordpool_categorized_EN.txt	HEN	FarmAnimals	7	4	[0, 0, 0]	n/a	catFR1	2	R1473J
506.731	0.784	584977	WORD_OFF	n/a	n/a	HEN	FarmAnimals	7	4	[0, 0, 0]	n/a	catFR1	2	R1473J
507.515	1.6	585764	WORD	n/a	wordpools/wordpool_categorized_EN.txt	ROOSTER	FarmAnimals	8	4	[0, 0, 0]	n/a	catFR1	2	R1473J
509.115	0.816	587360	WORD_OFF	n/a	n/a	ROOSTER	FarmAnimals	8	4	[0, 0, 0]	n/a	catFR1	2	R1473J
509.931	1.6	588169	WORD	n/a	wordpools/wordpool_categorized_EN.txt	PEELER	KitchenTools	9	4	[0, 0, 0]	n/a	catFR1	2	R1473J
511.531	0.817	589775	WORD_OFF	n/a	n/a	PEELER	KitchenTools	9	4	[0, 0, 0]	n/a	catFR1	2	R1473J
512.348	1.616	590595	WORD	n/a	wordpools/wordpool_categorized_EN.txt	COLANDER	KitchenTools	10	4	[0, 0, 0]	n/a	catFR1	2	R1473J
513.964	0.834	592212	WORD_OFF	n/a	n/a	COLANDER	KitchenTools	10	4	[0, 0, 0]	n/a	catFR1	2	R1473J
514.798	1.6	593043	WORD	n/a	wordpools/wordpool_categorized_EN.txt	CROWBAR	Tools	11	4	[0, 0, 0]	n/a	catFR1	2	R1473J
516.398	0.9	594638	WORD_OFF	n/a	n/a	CROWBAR	Tools	11	4	[0, 0, 0]	n/a	catFR1	2	R1473J
517.298	1.6	595544	WORD	n/a	wordpools/wordpool_categorized_EN.txt	HAMMER	Tools	12	4	[0, 0, 0]	n/a	catFR1	2	R1473J
518.898	0.0	597139	PROB	0.0	n/a	n/a	n/a	-999	4	[5, 4, 4]	13	catFR1	2	R1473J
518.898	0.001	597140	WORD_OFF	n/a	n/a	HAMMER	Tools	12	4	[0, 0, 0]	n/a	catFR1	2	R1473J
518.899	0.0	597140	ENCODING_END	n/a	n/a	n/a	n/a	-999	4	[0, 0, 0]	n/a	catFR1	2	R1473J
518.899	0.0	597140	START	n/a	n/a	n/a	n/a	-999	4	[-999, -999, -999]	n/a	catFR1	2	R1473J
518.899	8.616	597151	DISTRACT_START	n/a	n/a	n/a	n/a	-999	4	[0, 0, 0]	n/a	catFR1	2	R1473J
527.515	4.468	605756	PROB	4.468	n/a	n/a	n/a	-999	4	[3, 2, 1]	6	catFR1	2	R1473J
531.983	90.431	610224	PROB	90.431	n/a	n/a	n/a	-999	4	[7, 6, 5]	18	catFR1	2	R1473J
622.414	0.0	700651	STOP	n/a	n/a	n/a	n/a	-999	4	[-999, -999, -999]	n/a	catFR1	2	R1473J
622.414	1.201	700653	DISTRACT_END	n/a	n/a	n/a	n/a	-999	4	[0, 0, 0]	n/a	catFR1	2	R1473J
623.615	30.015	701850	REC_START	n/a	n/a	n/a	n/a	-999	4	[0, 0, 0]	n/a	catFR1	2	R1473J
653.63	1.219	731866	REC_WORD_VV	1.219	n/a	<>	n/a	-999	4	[0, 0, 0]	n/a	catFR1	2	R1473J
654.849	2.516	733087	REC_END	n/a	n/a	n/a	n/a	-999	4	[0, 0, 0]	n/a	catFR1	2	R1473J
657.365	10.349	735599	COUNTDOWN_START	n/a	n/a	n/a	n/a	-999	4	[0, 0, 0]	n/a	catFR1	2	R1473J
667.714	0.0	745951	COUNTDOWN_END	n/a	n/a	n/a	n/a	-999	4	[0, 0, 0]	n/a	catFR1	2	R1473J
667.714	2.085	745951	ENCODING_START	n/a	n/a	n/a	n/a	-999	5	[0, 0, 0]	n/a	catFR1	2	R1473J
669.799	1.6	748032	WORD	n/a	wordpools/wordpool_categorized_EN.txt	EYE	BodyParts	1	5	[0, 0, 0]	n/a	catFR1	2	R1473J
671.399	0.949	749638	WORD_OFF	n/a	n/a	EYE	BodyParts	1	5	[0, 0, 0]	n/a	catFR1	2	R1473J
672.348	1.6	750587	WORD	n/a	wordpools/wordpool_categorized_EN.txt	HEAD	BodyParts	2	5	[0, 0, 0]	n/a	catFR1	2	R1473J
673.948	0.984	752183	WORD_OFF	n/a	n/a	HEAD	BodyParts	2	5	[0, 0, 0]	n/a	catFR1	2	R1473J
674.932	1.6	753164	WORD	n/a	wordpools/wordpool_categorized_EN.txt	MILK	Beverages	3	5	[0, 0, 0]	n/a	catFR1	2	R1473J
676.532	0.833	754771	WORD_OFF	n/a	n/a	MILK	Beverages	3	5	[0, 0, 0]	n/a	catFR1	2	R1473J
677.365	1.617	755601	WORD	n/a	wordpools/wordpool_categorized_EN.txt	JUICE	Beverages	4	5	[0, 0, 0]	n/a	catFR1	2	R1473J
678.982	0.983	757218	WORD_OFF	n/a	n/a	JUICE	Beverages	4	5	[0, 0, 0]	n/a	catFR1	2	R1473J
679.965	1.616	758200	WORD	n/a	wordpools/wordpool_categorized_EN.txt	CALF	FarmAnimals	5	5	[0, 0, 0]	n/a	catFR1	2	R1473J
681.581	0.851	759817	WORD_OFF	n/a	n/a	CALF	FarmAnimals	5	5	[0, 0, 0]	n/a	catFR1	2	R1473J
682.432	1.616	760669	WORD	n/a	wordpools/wordpool_categorized_EN.txt	BULL	FarmAnimals	6	5	[0, 0, 0]	n/a	catFR1	2	R1473J
684.048	0.852	762286	WORD_OFF	n/a	n/a	BULL	FarmAnimals	6	5	[0, 0, 0]	n/a	catFR1	2	R1473J
684.9	1.615	763138	WORD	n/a	wordpools/wordpool_categorized_EN.txt	WATER	Beverages	7	5	[0, 0, 0]	n/a	catFR1	2	R1473J
686.515	0.882	764756	WORD_OFF	n/a	n/a	WATER	Beverages	7	5	[0, 0, 0]	n/a	catFR1	2	R1473J
687.397	1.602	765629	WORD	n/a	wordpools/wordpool_categorized_EN.txt	COLA	Beverages	8	5	[0, 0, 0]	n/a	catFR1	2	R1473J
688.999	0.933	767236	WORD_OFF	n/a	n/a	COLA	Beverages	8	5	[0, 0, 0]	n/a	catFR1	2	R1473J
689.932	1.616	768163	WORD	n/a	wordpools/wordpool_categorized_EN.txt	NOSE	BodyParts	9	5	[0, 0, 0]	n/a	catFR1	2	R1473J
691.548	0.866	769780	WORD_OFF	n/a	n/a	NOSE	BodyParts	9	5	[0, 0, 0]	n/a	catFR1	2	R1473J
692.414	1.601	770654	WORD	n/a	wordpools/wordpool_categorized_EN.txt	KNEE	BodyParts	10	5	[0, 0, 0]	n/a	catFR1	2	R1473J
694.015	0.883	772249	WORD_OFF	n/a	n/a	KNEE	BodyParts	10	5	[0, 0, 0]	n/a	catFR1	2	R1473J
694.898	1.601	773134	WORD	n/a	wordpools/wordpool_categorized_EN.txt	CHICKEN	FarmAnimals	11	5	[0, 0, 0]	n/a	catFR1	2	R1473J
696.499	0.948	774740	WORD_OFF	n/a	n/a	CHICKEN	FarmAnimals	11	5	[0, 0, 0]	n/a	catFR1	2	R1473J
697.447	1.618	775678	WORD	n/a	wordpools/wordpool_categorized_EN.txt	TURKEY	FarmAnimals	12	5	[0, 0, 0]	n/a	catFR1	2	R1473J
699.065	0.001	777299	PROB	0.001	n/a	n/a	n/a	-999	5	[3, 7, 4]	14	catFR1	2	R1473J
699.066	0.0	777300	START	n/a	n/a	n/a	n/a	-999	5	[-999, -999, -999]	n/a	catFR1	2	R1473J
699.065	0.001	777306	WORD_OFF	n/a	n/a	TURKEY	FarmAnimals	12	5	[0, 0, 0]	n/a	catFR1	2	R1473J
699.066	0.0	777306	ENCODING_END	n/a	n/a	n/a	n/a	-999	5	[0, 0, 0]	n/a	catFR1	2	R1473J
699.066	5.381	777306	DISTRACT_START	n/a	n/a	n/a	n/a	-999	5	[0, 0, 0]	n/a	catFR1	2	R1473J
704.447	3.901	782681	PROB	3.901	n/a	n/a	n/a	-999	5	[2, 7, 1]	10	catFR1	2	R1473J
708.348	3.884	786581	PROB	3.884	n/a	n/a	n/a	-999	5	[8, 2, 4]	14	catFR1	2	R1473J
712.232	3.199	790465	PROB	3.199	n/a	n/a	n/a	-999	5	[1, 1, 7]	9	catFR1	2	R1473J
715.431	4.733	793664	PROB	4.733	n/a	n/a	n/a	-999	5	[5, 8, 2]	15	catFR1	2	R1473J
720.164	0.0	798397	DISTRACT_END	n/a	n/a	n/a	n/a	-999	5	[0, 0, 0]	n/a	catFR1	2	R1473J
720.164	1.4	798397	STOP	n/a	n/a	n/a	n/a	-999	5	[-999, -999, -999]	n/a	catFR1	2	R1473J
721.564	15.384	799799	REC_START	n/a	n/a	n/a	n/a	-999	5	[0, 0, 0]	n/a	catFR1	2	R1473J
736.948	15.823	815180	REC_WORD	15.823	n/a	TURKEY	FarmAnimals	12	5	[0, 0, 0]	n/a	catFR1	2	R1473J
752.771	3.961	831004	REC_END	n/a	n/a	n/a	n/a	-999	5	[0, 0, 0]	n/a	catFR1	2	R1473J
756.732	10.348	834972	COUNTDOWN_START	n/a	n/a	n/a	n/a	-999	5	[0, 0, 0]	n/a	catFR1	2	R1473J
767.08	0.0	845312	COUNTDOWN_END	n/a	n/a	n/a	n/a	-999	5	[0, 0, 0]	n/a	catFR1	2	R1473J
767.08	2.034	845312	ENCODING_START	n/a	n/a	n/a	n/a	-999	6	[0, 0, 0]	n/a	catFR1	2	R1473J
769.114	1.601	847350	WORD	n/a	wordpools/wordpool_categorized_EN.txt	SILK	Fabric	1	6	[0, 0, 0]	n/a	catFR1	2	R1473J
770.715	0.85	848946	WORD_OFF	n/a	n/a	SILK	Fabric	1	6	[0, 0, 0]	n/a	catFR1	2	R1473J
771.565	1.617	849798	WORD	n/a	wordpools/wordpool_categorized_EN.txt	NYLON	Fabric	2	6	[0, 0, 0]	n/a	catFR1	2	R1473J
773.182	0.932	851415	WORD_OFF	n/a	n/a	NYLON	Fabric	2	6	[0, 0, 0]	n/a	catFR1	2	R1473J
774.114	1.6	852343	WORD	n/a	wordpools/wordpool_categorized_EN.txt	RATCHET	Tools	3	6	[0, 0, 0]	n/a	catFR1	2	R1473J
775.714	0.834	853949	WORD_OFF	n/a	n/a	RATCHET	Tools	3	6	[0, 0, 0]	n/a	catFR1	2	R1473J
776.548	1.617	854779	WORD	n/a	wordpools/wordpool_categorized_EN.txt	SANDER	Tools	4	6	[0, 0, 0]	n/a	catFR1	2	R1473J
778.165	0.867	856397	WORD_OFF	n/a	n/a	SANDER	Tools	4	6	[0, 0, 0]	n/a	catFR1	2	R1473J
779.032	1.615	857259	WORD	n/a	wordpools/wordpool_categorized_EN.txt	CUCUMBER	Vegetables	5	6	[0, 0, 0]	n/a	catFR1	2	R1473J
780.647	0.852	858877	WORD_OFF	n/a	n/a	CUCUMBER	Vegetables	5	6	[0, 0, 0]	n/a	catFR1	2	R1473J
781.499	1.615	859729	WORD	n/a	wordpools/wordpool_categorized_EN.txt	PEAS	Vegetables	6	6	[0, 0, 0]	n/a	catFR1	2	R1473J
783.114	0.8	861346	WORD_OFF	n/a	n/a	PEAS	Vegetables	6	6	[0, 0, 0]	n/a	catFR1	2	R1473J
783.914	1.601	862144	WORD	n/a	wordpools/wordpool_categorized_EN.txt	SCREWDRIVER	Tools	7	6	[0, 0, 0]	n/a	catFR1	2	R1473J
785.515	0.933	863751	WORD_OFF	n/a	n/a	SCREWDRIVER	Tools	7	6	[0, 0, 0]	n/a	catFR1	2	R1473J
786.448	1.617	864678	WORD	n/a	wordpools/wordpool_categorized_EN.txt	WRENCH	Tools	8	6	[0, 0, 0]	n/a	catFR1	2	R1473J
788.065	0.95	866295	WORD_OFF	n/a	n/a	WRENCH	Tools	8	6	[0, 0, 0]	n/a	catFR1	2	R1473J
789.015	1.617	867244	WORD	n/a	wordpools/wordpool_categorized_EN.txt	DENIM	Fabric	9	6	[0, 0, 0]	n/a	catFR1	2	R1473J
790.632	1.0	868862	WORD_OFF	n/a	n/a	DENIM	Fabric	9	6	[0, 0, 0]	n/a	catFR1	2	R1473J
791.632	1.6	869864	WORD	n/a	wordpools/wordpool_categorized_EN.txt	SPANDEX	Fabric	10	6	[0, 0, 0]	n/a	catFR1	2	R1473J
793.232	0.882	871460	WORD_OFF	n/a	n/a	SPANDEX	Fabric	10	6	[0, 0, 0]	n/a	catFR1	2	R1473J
794.114	1.6	872344	WORD	n/a	wordpools/wordpool_categorized_EN.txt	CARROT	Vegetables	11	6	[0, 0, 0]	n/a	catFR1	2	R1473J
795.714	0.917	873951	WORD_OFF	n/a	n/a	CARROT	Vegetables	11	6	[0, 0, 0]	n/a	catFR1	2	R1473J
796.631	1.601	874867	WORD	n/a	wordpools/wordpool_categorized_EN.txt	BROCCOLI	Vegetables	12	6	[0, 0, 0]	n/a	catFR1	2	R1473J
798.232	0.0	876462	PROB	0.0	n/a	n/a	n/a	-999	6	[2, 8, 4]	14	catFR1	2	R1473J
798.232	0.004	876463	WORD_OFF	n/a	n/a	BROCCOLI	Vegetables	12	6	[0, 0, 0]	n/a	catFR1	2	R1473J
798.236	0.0	876463	ENCODING_END	n/a	n/a	n/a	n/a	-999	6	[0, 0, 0]	n/a	catFR1	2	R1473J
798.236	0.0	876466	START	n/a	n/a	n/a	n/a	-999	6	[-999, -999, -999]	n/a	catFR1	2	R1473J
798.236	4.863	876474	DISTRACT_START	n/a	n/a	n/a	n/a	-999	6	[0, 0, 0]	n/a	catFR1	2	R1473J
803.099	4.167	881328	PROB	4.167	n/a	n/a	n/a	-999	6	[5, 3, 5]	13	catFR1	2	R1473J
807.266	4.966	885495	PROB	4.966	n/a	n/a	n/a	-999	6	[3, 6, 7]	16	catFR1	2	R1473J
812.232	5.6	890461	PROB	5.6	n/a	n/a	n/a	-999	6	[4, 1, 7]	12	catFR1	2	R1473J
817.832	10.383	896061	PROB	10.383	n/a	n/a	n/a	-999	6	[7, 6, 8]	21	catFR1	2	R1473J
828.215	0.0	906443	STOP	n/a	n/a	n/a	n/a	-999	6	[-999, -999, -999]	n/a	catFR1	2	R1473J
828.215	1.232	906450	DISTRACT_END	n/a	n/a	n/a	n/a	-999	6	[0, 0, 0]	n/a	catFR1	2	R1473J
829.447	1.18	907679	REC_START	n/a	n/a	n/a	n/a	-999	6	[0, 0, 0]	n/a	catFR1	2	R1473J
830.627	1.918	908855	REC_WORD	1.918	n/a	CARROT	Vegetables	11	6	[0, 0, 0]	n/a	catFR1	2	R1473J
832.545	2.059	910773	REC_WORD	2.059	n/a	BROCCOLI	Vegetables	12	6	[0, 0, 0]	n/a	catFR1	2	R1473J
834.604	1.0	912832	REC_WORD	1.0	n/a	SCREWDRIVER	Tools	7	6	[0, 0, 0]	n/a	catFR1	2	R1473J
835.604	6.684	913832	REC_WORD_VV	6.684	n/a	<>	n/a	-999	6	[0, 0, 0]	n/a	catFR1	2	R1473J
842.288	1.0	920516	REC_WORD	1.0	n/a	SPANDEX	Fabric	10	6	[0, 0, 0]	n/a	catFR1	2	R1473J
843.288	17.386	921516	REC_WORD_VV	17.386	n/a	<>	n/a	-999	6	[0, 0, 0]	n/a	catFR1	2	R1473J
860.674	2.275	938905	REC_END	n/a	n/a	n/a	n/a	-999	6	[0, 0, 0]	n/a	catFR1	2	R1473J
862.949	10.35	941180	COUNTDOWN_START	n/a	n/a	n/a	n/a	-999	6	[0, 0, 0]	n/a	catFR1	2	R1473J
873.299	0.0	951532	COUNTDOWN_END	n/a	n/a	n/a	n/a	-999	6	[0, 0, 0]	n/a	catFR1	2	R1473J
873.299	2.215	951532	ENCODING_START	n/a	n/a	n/a	n/a	-999	7	[0, 0, 0]	n/a	catFR1	2	R1473J
875.514	1.618	953742	WORD	n/a	wordpools/wordpool_categorized_EN.txt	BIRCH	Trees	1	7	[0, 0, 0]	n/a	catFR1	2	R1473J
877.132	0.8	955360	WORD_OFF	n/a	n/a	BIRCH	Trees	1	7	[0, 0, 0]	n/a	catFR1	2	R1473J
877.932	1.615	956157	WORD	n/a	wordpools/wordpool_categorized_EN.txt	ELM	Trees	2	7	[0, 0, 0]	n/a	catFR1	2	R1473J
879.547	0.952	957775	WORD_OFF	n/a	n/a	ELM	Trees	2	7	[0, 0, 0]	n/a	catFR1	2	R1473J
880.499	1.615	958724	WORD	n/a	wordpools/wordpool_categorized_EN.txt	SCOOTER	Vehicles	3	7	[0, 0, 0]	n/a	catFR1	2	R1473J
882.114	0.851	960341	WORD_OFF	n/a	n/a	SCOOTER	Vehicles	3	7	[0, 0, 0]	n/a	catFR1	2	R1473J
882.965	1.616	961193	WORD	n/a	wordpools/wordpool_categorized_EN.txt	BIKE	Vehicles	4	7	[0, 0, 0]	n/a	catFR1	2	R1473J
884.581	0.918	962810	WORD_OFF	n/a	n/a	BIKE	Vehicles	4	7	[0, 0, 0]	n/a	catFR1	2	R1473J
885.499	1.6	963727	WORD	n/a	wordpools/wordpool_categorized_EN.txt	SOFA	Furniture	5	7	[0, 0, 0]	n/a	catFR1	2	R1473J
887.099	0.966	965323	WORD_OFF	n/a	n/a	SOFA	Furniture	5	7	[0, 0, 0]	n/a	catFR1	2	R1473J
888.065	1.6	966293	WORD	n/a	wordpools/wordpool_categorized_EN.txt	DESK	Furniture	6	7	[0, 0, 0]	n/a	catFR1	2	R1473J
889.665	1.0	967889	WORD_OFF	n/a	n/a	DESK	Furniture	6	7	[0, 0, 0]	n/a	catFR1	2	R1473J
890.665	1.6	968892	WORD	n/a	wordpools/wordpool_categorized_EN.txt	SPRUCE	Trees	7	7	[0, 0, 0]	n/a	catFR1	2	R1473J
892.265	0.916	970498	WORD_OFF	n/a	n/a	SPRUCE	Trees	7	7	[0, 0, 0]	n/a	catFR1	2	R1473J
893.181	1.619	971404	WORD	n/a	wordpools/wordpool_categorized_EN.txt	MAPLE	Trees	8	7	[0, 0, 0]	n/a	catFR1	2	R1473J
894.8	0.765	973032	WORD_OFF	n/a	n/a	MAPLE	Trees	8	7	[0, 0, 0]	n/a	catFR1	2	R1473J
895.565	1.616	973798	WORD	n/a	wordpools/wordpool_categorized_EN.txt	BED	Furniture	9	7	[0, 0, 0]	n/a	catFR1	2	R1473J
897.181	0.818	975404	WORD_OFF	n/a	n/a	BED	Furniture	9	7	[0, 0, 0]	n/a	catFR1	2	R1473J
897.999	1.614	976224	WORD	n/a	wordpools/wordpool_categorized_EN.txt	SHELF	Furniture	10	7	[0, 0, 0]	n/a	catFR1	2	R1473J
899.613	0.884	977841	WORD_OFF	n/a	n/a	SHELF	Furniture	10	7	[0, 0, 0]	n/a	catFR1	2	R1473J
900.497	1.602	978725	WORD	n/a	wordpools/wordpool_categorized_EN.txt	BOAT	Vehicles	11	7	[0, 0, 0]	n/a	catFR1	2	R1473J
902.099	0.882	980321	WORD_OFF	n/a	n/a	BOAT	Vehicles	11	7	[0, 0, 0]	n/a	catFR1	2	R1473J
902.981	1.618	981205	WORD	n/a	wordpools/wordpool_categorized_EN.txt	TRAIN	Vehicles	12	7	[0, 0, 0]	n/a	catFR1	2	R1473J
904.599	0.003	982824	PROB	0.003	n/a	n/a	n/a	-999	7	[2, 8, 4]	14	catFR1	2	R1473J
904.602	0.0	982827	START	n/a	n/a	n/a	n/a	-999	7	[-999, -999, -999]	n/a	catFR1	2	R1473J
904.599	0.003	982834	WORD_OFF	n/a	n/a	TRAIN	Vehicles	12	7	[0, 0, 0]	n/a	catFR1	2	R1473J
904.602	0.0	982834	ENCODING_END	n/a	n/a	n/a	n/a	-999	7	[0, 0, 0]	n/a	catFR1	2	R1473J
904.602	4.98	982834	DISTRACT_START	n/a	n/a	n/a	n/a	-999	7	[0, 0, 0]	n/a	catFR1	2	R1473J
909.582	6.099	987807	PROB	6.099	n/a	n/a	n/a	-999	7	[2, 4, 7]	13	catFR1	2	R1473J
915.681	4.351	993906	PROB	4.351	n/a	n/a	n/a	-999	7	[8, 8, 1]	17	catFR1	2	R1473J
920.032	5.233	998257	PROB	5.233	n/a	n/a	n/a	-999	7	[7, 2, 4]	13	catFR1	2	R1473J
925.265	0.0	1003489	STOP	n/a	n/a	n/a	n/a	-999	7	[-999, -999, -999]	n/a	catFR1	2	R1473J
925.265	1.034	1003493	DISTRACT_END	n/a	n/a	n/a	n/a	-999	7	[0, 0, 0]	n/a	catFR1	2	R1473J
926.299	3.337	1004528	REC_START	n/a	n/a	n/a	n/a	-999	7	[0, 0, 0]	n/a	catFR1	2	R1473J
929.636	27.888	1007860	REC_WORD	27.888	n/a	BIKE	Vehicles	4	7	[0, 0, 0]	n/a	catFR1	2	R1473J
957.524	3.375	1035744	REC_END	n/a	n/a	n/a	n/a	-999	7	[0, 0, 0]	n/a	catFR1	2	R1473J
960.899	10.348	1039130	COUNTDOWN_START	n/a	n/a	n/a	n/a	-999	7	[0, 0, 0]	n/a	catFR1	2	R1473J
971.247	0.001	1049470	COUNTDOWN_END	n/a	n/a	n/a	n/a	-999	7	[0, 0, 0]	n/a	catFR1	2	R1473J
971.248	1.966	1049470	ENCODING_START	n/a	n/a	n/a	n/a	-999	8	[0, 0, 0]	n/a	catFR1	2	R1473J
973.214	1.601	1051443	WORD	n/a	wordpools/wordpool_categorized_EN.txt	RULER	OfficeSupplies	1	8	[0, 0, 0]	n/a	catFR1	2	R1473J
974.815	0.833	1053039	WORD_OFF	n/a	n/a	RULER	OfficeSupplies	1	8	[0, 0, 0]	n/a	catFR1	2	R1473J
975.648	1.617	1053869	WORD	n/a	wordpools/wordpool_categorized_EN.txt	MARKER	OfficeSupplies	2	8	[0, 0, 0]	n/a	catFR1	2	R1473J
977.265	0.881	1055487	WORD_OFF	n/a	n/a	MARKER	OfficeSupplies	2	8	[0, 0, 0]	n/a	catFR1	2	R1473J
978.146	1.601	1056371	WORD	n/a	wordpools/wordpool_categorized_EN.txt	SUEDE	Fabric	3	8	[0, 0, 0]	n/a	catFR1	2	R1473J
979.747	0.999	1057967	WORD_OFF	n/a	n/a	SUEDE	Fabric	3	8	[0, 0, 0]	n/a	catFR1	2	R1473J
980.746	1.602	1058970	WORD	n/a	wordpools/wordpool_categorized_EN.txt	COTTON	Fabric	4	8	[0, 0, 0]	n/a	catFR1	2	R1473J
982.348	0.799	1060576	WORD_OFF	n/a	n/a	COTTON	Fabric	4	8	[0, 0, 0]	n/a	catFR1	2	R1473J
983.147	1.6	1061374	WORD	n/a	wordpools/wordpool_categorized_EN.txt	WALL	Building	5	8	[0, 0, 0]	n/a	catFR1	2	R1473J
984.747	0.768	1062970	WORD_OFF	n/a	n/a	WALL	Building	5	8	[0, 0, 0]	n/a	catFR1	2	R1473J
985.515	1.616	1063735	WORD	n/a	wordpools/wordpool_categorized_EN.txt	DOOR	Building	6	8	[0, 0, 0]	n/a	catFR1	2	R1473J
987.131	0.95	1065353	WORD_OFF	n/a	n/a	DOOR	Building	6	8	[0, 0, 0]	n/a	catFR1	2	R1473J
988.081	1.618	1066302	WORD	n/a	wordpools/wordpool_categorized_EN.txt	LEATHER	Fabric	7	8	[0, 0, 0]	n/a	catFR1	2	R1473J
989.699	0.981	1067919	WORD_OFF	n/a	n/a	LEATHER	Fabric	7	8	[0, 0, 0]	n/a	catFR1	2	R1473J
990.68	1.6	1068900	WORD	n/a	wordpools/wordpool_categorized_EN.txt	VELVET	Fabric	8	8	[0, 0, 0]	n/a	catFR1	2	R1473J
992.28	0.801	1070507	WORD_OFF	n/a	n/a	VELVET	Fabric	8	8	[0, 0, 0]	n/a	catFR1	2	R1473J
993.081	1.618	1071305	WORD	n/a	wordpools/wordpool_categorized_EN.txt	FLOOR	Building	9	8	[0, 0, 0]	n/a	catFR1	2	R1473J
994.699	0.914	1072922	WORD_OFF	n/a	n/a	FLOOR	Building	9	8	[0, 0, 0]	n/a	catFR1	2	R1473J
995.613	1.602	1073839	WORD	n/a	wordpools/wordpool_categorized_EN.txt	HALLWAY	Building	10	8	[0, 0, 0]	n/a	catFR1	2	R1473J
997.215	0.998	1075435	WORD_OFF	n/a	n/a	HALLWAY	Building	10	8	[0, 0, 0]	n/a	catFR1	2	R1473J
998.213	1.601	1076437	WORD	n/a	wordpools/wordpool_categorized_EN.txt	PEN	OfficeSupplies	11	8	[0, 0, 0]	n/a	catFR1	2	R1473J
999.814	0.999	1078033	WORD_OFF	n/a	n/a	PEN	OfficeSupplies	11	8	[0, 0, 0]	n/a	catFR1	2	R1473J
1000.813	1.602	1079036	WORD	n/a	wordpools/wordpool_categorized_EN.txt	FOLDER	OfficeSupplies	12	8	[0, 0, 0]	n/a	catFR1	2	R1473J
1002.415	0.002	1080636	PROB	0.002	n/a	n/a	n/a	-999	8	[8, 7, 2]	17	catFR1	2	R1473J
1002.417	0.0	1080638	START	n/a	n/a	n/a	n/a	-999	8	[-999, -999, -999]	n/a	catFR1	2	R1473J
1002.414	0.003	1080643	WORD_OFF	n/a	n/a	FOLDER	OfficeSupplies	12	8	[0, 0, 0]	n/a	catFR1	2	R1473J
1002.417	0.0	1080643	ENCODING_END	n/a	n/a	n/a	n/a	-999	8	[0, 0, 0]	n/a	catFR1	2	R1473J
1002.417	4.864	1080643	DISTRACT_START	n/a	n/a	n/a	n/a	-999	8	[0, 0, 0]	n/a	catFR1	2	R1473J
1007.281	6.484	1085502	PROB	6.484	n/a	n/a	n/a	-999	8	[3, 5, 8]	16	catFR1	2	R1473J
1013.765	3.651	1091986	PROB	3.651	n/a	n/a	n/a	-999	8	[1, 5, 3]	9	catFR1	2	R1473J
1017.416	5.231	1095637	PROB	5.231	n/a	n/a	n/a	-999	8	[8, 1, 2]	11	catFR1	2	R1473J
1022.647	0.0	1100867	STOP	n/a	n/a	n/a	n/a	-999	8	[-999, -999, -999]	n/a	catFR1	2	R1473J
1022.647	1.302	1100871	DISTRACT_END	n/a	n/a	n/a	n/a	-999	8	[0, 0, 0]	n/a	catFR1	2	R1473J
1023.949	1.855	1102175	REC_START	n/a	n/a	n/a	n/a	-999	8	[0, 0, 0]	n/a	catFR1	2	R1473J
1025.804	1.974	1104024	REC_WORD	1.974	n/a	PEN	OfficeSupplies	11	8	[0, 0, 0]	n/a	catFR1	2	R1473J
1027.778	3.874	1105998	REC_WORD	3.874	n/a	FOLDER	OfficeSupplies	12	8	[0, 0, 0]	n/a	catFR1	2	R1473J
1031.652	6.495	1109872	REC_WORD	6.495	n/a	WALL	Building	5	8	[0, 0, 0]	n/a	catFR1	2	R1473J
1038.147	17.03	1116367	REC_WORD	17.03	n/a	MARKER	OfficeSupplies	2	8	[0, 0, 0]	n/a	catFR1	2	R1473J
1055.177	2.353	1133402	REC_END	n/a	n/a	n/a	n/a	-999	8	[0, 0, 0]	n/a	catFR1	2	R1473J
1057.53	10.351	1135752	COUNTDOWN_START	n/a	n/a	n/a	n/a	-999	8	[0, 0, 0]	n/a	catFR1	2	R1473J
1067.881	0.0	1146104	COUNTDOWN_END	n/a	n/a	n/a	n/a	-999	8	[0, 0, 0]	n/a	catFR1	2	R1473J
1067.881	1.95	1146104	ENCODING_START	n/a	n/a	n/a	n/a	-999	9	[0, 0, 0]	n/a	catFR1	2	R1473J
1069.831	1.6	1148055	WORD	n/a	wordpools/wordpool_categorized_EN.txt	LILAC	Flowers	1	9	[0, 0, 0]	n/a	catFR1	2	R1473J
1071.431	0.932	1149651	WORD_OFF	n/a	n/a	LILAC	Flowers	1	9	[0, 0, 0]	n/a	catFR1	2	R1473J
1072.363	1.601	1150589	WORD	n/a	wordpools/wordpool_categorized_EN.txt	DAISY	Flowers	2	9	[0, 0, 0]	n/a	catFR1	2	R1473J
1073.964	0.934	1152185	WORD_OFF	n/a	n/a	DAISY	Flowers	2	9	[0, 0, 0]	n/a	catFR1	2	R1473J
1074.898	1.617	1153123	WORD	n/a	wordpools/wordpool_categorized_EN.txt	BATHROOM	Building	3	9	[0, 0, 0]	n/a	catFR1	2	R1473J
1076.515	0.883	1154741	WORD_OFF	n/a	n/a	BATHROOM	Building	3	9	[0, 0, 0]	n/a	catFR1	2	R1473J
1077.398	1.617	1155614	WORD	n/a	wordpools/wordpool_categorized_EN.txt	CEILING	Building	4	9	[0, 0, 0]	n/a	catFR1	2	R1473J
1079.015	0.8	1157231	WORD_OFF	n/a	n/a	CEILING	Building	4	9	[0, 0, 0]	n/a	catFR1	2	R1473J
1079.815	1.6	1158040	WORD	n/a	wordpools/wordpool_categorized_EN.txt	PENCIL	OfficeSupplies	5	9	[0, 0, 0]	n/a	catFR1	2	R1473J
1081.415	0.967	1159636	WORD_OFF	n/a	n/a	PENCIL	OfficeSupplies	5	9	[0, 0, 0]	n/a	catFR1	2	R1473J
1082.382	1.6	1160606	WORD	n/a	wordpools/wordpool_categorized_EN.txt	STAPLER	OfficeSupplies	6	9	[0, 0, 0]	n/a	catFR1	2	R1473J
1083.982	0.967	1162202	WORD_OFF	n/a	n/a	STAPLER	OfficeSupplies	6	9	[0, 0, 0]	n/a	catFR1	2	R1473J
1084.949	1.615	1163173	WORD	n/a	wordpools/wordpool_categorized_EN.txt	SUNFLOWER	Flowers	7	9	[0, 0, 0]	n/a	catFR1	2	R1473J
1086.564	0.885	1164779	WORD_OFF	n/a	n/a	SUNFLOWER	Flowers	7	9	[0, 0, 0]	n/a	catFR1	2	R1473J
1087.449	1.615	1165663	WORD	n/a	wordpools/wordpool_categorized_EN.txt	CARNATION	Flowers	8	9	[0, 0, 0]	n/a	catFR1	2	R1473J
1089.064	0.999	1167281	WORD_OFF	n/a	n/a	CARNATION	Flowers	8	9	[0, 0, 0]	n/a	catFR1	2	R1473J
1090.063	1.619	1168284	WORD	n/a	wordpools/wordpool_categorized_EN.txt	GLUE	OfficeSupplies	9	9	[0, 0, 0]	n/a	catFR1	2	R1473J
1091.682	0.767	1169901	WORD_OFF	n/a	n/a	GLUE	OfficeSupplies	9	9	[0, 0, 0]	n/a	catFR1	2	R1473J
1092.449	1.614	1170667	WORD	n/a	wordpools/wordpool_categorized_EN.txt	PAPER	OfficeSupplies	10	9	[0, 0, 0]	n/a	catFR1	2	R1473J
1094.063	0.819	1172284	WORD_OFF	n/a	n/a	PAPER	OfficeSupplies	10	9	[0, 0, 0]	n/a	catFR1	2	R1473J
1094.882	1.616	1173103	WORD	n/a	wordpools/wordpool_categorized_EN.txt	WINDOW	Building	11	9	[0, 0, 0]	n/a	catFR1	2	R1473J
1096.498	0.866	1174721	WORD_OFF	n/a	n/a	WINDOW	Building	11	9	[0, 0, 0]	n/a	catFR1	2	R1473J
1097.364	1.601	1175583	WORD	n/a	wordpools/wordpool_categorized_EN.txt	ROOM	Building	12	9	[0, 0, 0]	n/a	catFR1	2	R1473J
1098.965	0.0	1177179	WORD_OFF	n/a	n/a	ROOM	Building	12	9	[0, 0, 0]	n/a	catFR1	2	R1473J
1098.965	0.003	1177182	PROB	0.003	n/a	n/a	n/a	-999	9	[7, 4, 6]	17	catFR1	2	R1473J
1098.968	0.0	1177185	START	n/a	n/a	n/a	n/a	-999	9	[-999, -999, -999]	n/a	catFR1	2	R1473J
1098.968	0.0	1177190	ENCODING_END	n/a	n/a	n/a	n/a	-999	9	[0, 0, 0]	n/a	catFR1	2	R1473J
1098.968	5.996	1177190	DISTRACT_START	n/a	n/a	n/a	n/a	-999	9	[0, 0, 0]	n/a	catFR1	2	R1473J
1104.964	4.117	1183181	PROB	4.117	n/a	n/a	n/a	-999	9	[1, 3, 4]	8	catFR1	2	R1473J
1109.081	5.734	1187298	PROB	5.734	n/a	n/a	n/a	-999	9	[2, 6, 7]	15	catFR1	2	R1473J
1114.815	6.849	1193031	PROB	6.849	n/a	n/a	n/a	-999	9	[2, 4, 7]	13	catFR1	2	R1473J
1121.664	0.0	1199880	STOP	n/a	n/a	n/a	n/a	-999	9	[-999, -999, -999]	n/a	catFR1	2	R1473J
1121.664	1.351	1199887	DISTRACT_END	n/a	n/a	n/a	n/a	-999	9	[0, 0, 0]	n/a	catFR1	2	R1473J
1123.015	1.991	1201235	REC_START	n/a	n/a	n/a	n/a	-999	9	[0, 0, 0]	n/a	catFR1	2	R1473J
1125.006	1.929	1203222	REC_WORD	1.929	n/a	DAISY	Flowers	2	9	[0, 0, 0]	n/a	catFR1	2	R1473J
1126.935	4.168	1205151	REC_WORD	4.168	n/a	LILAC	Flowers	1	9	[0, 0, 0]	n/a	catFR1	2	R1473J
1131.103	3.457	1209319	REC_WORD	3.457	n/a	WINDOW	Building	11	9	[0, 0, 0]	n/a	catFR1	2	R1473J
1134.56	7.505	1212776	REC_WORD	7.505	n/a	CEILING	Building	4	9	[0, 0, 0]	n/a	catFR1	2	R1473J
1142.065	5.452	1220280	REC_WORD	5.452	n/a	PAPER	OfficeSupplies	10	9	[0, 0, 0]	n/a	catFR1	2	R1473J
1147.517	2.798	1225732	REC_WORD	2.798	n/a	STAPLER	OfficeSupplies	6	9	[0, 0, 0]	n/a	catFR1	2	R1473J
1150.315	3.926	1228530	REC_WORD_VV	3.926	n/a	<>	n/a	-999	9	[0, 0, 0]	n/a	catFR1	2	R1473J
1154.241	2.991	1232462	REC_END	n/a	n/a	n/a	n/a	-999	9	[0, 0, 0]	n/a	catFR1	2	R1473J
1157.232	10.35	1235448	COUNTDOWN_START	n/a	n/a	n/a	n/a	-999	9	[0, 0, 0]	n/a	catFR1	2	R1473J
1167.582	0.0	1245800	COUNTDOWN_END	n/a	n/a	n/a	n/a	-999	9	[0, 0, 0]	n/a	catFR1	2	R1473J
1167.582	2.049	1245800	ENCODING_START	n/a	n/a	n/a	n/a	-999	10	[0, 0, 0]	n/a	catFR1	2	R1473J
1169.631	1.618	1247848	WORD	n/a	wordpools/wordpool_categorized_EN.txt	VIOLET	Flowers	1	10	[0, 0, 0]	n/a	catFR1	2	R1473J
1171.249	0.783	1249466	WORD_OFF	n/a	n/a	VIOLET	Flowers	1	10	[0, 0, 0]	n/a	catFR1	2	R1473J
1172.032	1.617	1250253	WORD	n/a	wordpools/wordpool_categorized_EN.txt	ROSE	Flowers	2	10	[0, 0, 0]	n/a	catFR1	2	R1473J
1173.649	0.933	1251870	WORD_OFF	n/a	n/a	ROSE	Flowers	2	10	[0, 0, 0]	n/a	catFR1	2	R1473J
1174.582	1.6	1252798	WORD	n/a	wordpools/wordpool_categorized_EN.txt	HUMIDITY	Weather	3	10	[0, 0, 0]	n/a	catFR1	2	R1473J
1176.182	0.982	1254393	WORD_OFF	n/a	n/a	HUMIDITY	Weather	3	10	[0, 0, 0]	n/a	catFR1	2	R1473J
1177.164	1.6	1255385	WORD	n/a	wordpools/wordpool_categorized_EN.txt	THUNDER	Weather	4	10	[0, 0, 0]	n/a	catFR1	2	R1473J
1178.764	0.867	1256981	WORD_OFF	n/a	n/a	THUNDER	Weather	4	10	[0, 0, 0]	n/a	catFR1	2	R1473J
1179.631	1.6	1257844	WORD	n/a	wordpools/wordpool_categorized_EN.txt	DRUM	Instruments	5	10	[0, 0, 0]	n/a	catFR1	2	R1473J
1181.231	1.0	1259450	WORD_OFF	n/a	n/a	DRUM	Instruments	5	10	[0, 0, 0]	n/a	catFR1	2	R1473J
1182.231	1.6	1260442	WORD	n/a	wordpools/wordpool_categorized_EN.txt	CELLO	Instruments	6	10	[0, 0, 0]	n/a	catFR1	2	R1473J
1183.831	0.818	1262049	WORD_OFF	n/a	n/a	CELLO	Instruments	6	10	[0, 0, 0]	n/a	catFR1	2	R1473J
1184.649	1.6	1262869	WORD	n/a	wordpools/wordpool_categorized_EN.txt	LILY	Flowers	7	10	[0, 0, 0]	n/a	catFR1	2	R1473J
1186.249	0.833	1264464	WORD_OFF	n/a	n/a	LILY	Flowers	7	10	[0, 0, 0]	n/a	catFR1	2	R1473J
1187.082	1.616	1265295	WORD	n/a	wordpools/wordpool_categorized_EN.txt	TULIP	Flowers	8	10	[0, 0, 0]	n/a	catFR1	2	R1473J
1188.698	0.866	1266912	WORD_OFF	n/a	n/a	TULIP	Flowers	8	10	[0, 0, 0]	n/a	catFR1	2	R1473J
1189.564	1.618	1267785	WORD	n/a	wordpools/wordpool_categorized_EN.txt	PIANO	Instruments	9	10	[0, 0, 0]	n/a	catFR1	2	R1473J
1191.182	0.833	1269403	WORD_OFF	n/a	n/a	PIANO	Instruments	9	10	[0, 0, 0]	n/a	catFR1	2	R1473J
1192.015	1.6	1270233	WORD	n/a	wordpools/wordpool_categorized_EN.txt	GUITAR	Instruments	10	10	[0, 0, 0]	n/a	catFR1	2	R1473J
1193.615	0.834	1271829	WORD_OFF	n/a	n/a	GUITAR	Instruments	10	10	[0, 0, 0]	n/a	catFR1	2	R1473J
1194.449	1.599	1272659	WORD	n/a	wordpools/wordpool_categorized_EN.txt	TORNADO	Weather	11	10	[0, 0, 0]	n/a	catFR1	2	R1473J
1196.048	0.834	1274266	WORD_OFF	n/a	n/a	TORNADO	Weather	11	10	[0, 0, 0]	n/a	catFR1	2	R1473J
1196.882	1.615	1275096	WORD	n/a	wordpools/wordpool_categorized_EN.txt	LIGHTNING	Weather	12	10	[0, 0, 0]	n/a	catFR1	2	R1473J
1198.497	0.0	1276710	PROB	0.0	n/a	n/a	n/a	-999	10	[7, 4, 6]	17	catFR1	2	R1473J
1198.497	0.003	1276713	WORD_OFF	n/a	n/a	LIGHTNING	Weather	12	10	[0, 0, 0]	n/a	catFR1	2	R1473J
1198.5	0.0	1276713	ENCODING_END	n/a	n/a	n/a	n/a	-999	10	[0, 0, 0]	n/a	catFR1	2	R1473J
1198.5	0.0	1276713	DISTRACT_START	n/a	n/a	n/a	n/a	-999	10	[0, 0, 0]	n/a	catFR1	2	R1473J
1198.5	5.498	1276713	START	n/a	n/a	n/a	n/a	-999	10	[-999, -999, -999]	n/a	catFR1	2	R1473J
1203.998	6.184	1282211	PROB	6.184	n/a	n/a	n/a	-999	10	[4, 2, 7]	13	catFR1	2	R1473J
1210.182	3.216	1288395	PROB	3.216	n/a	n/a	n/a	-999	10	[2, 1, 3]	6	catFR1	2	R1473J
1213.398	4.118	1291610	PROB	4.118	n/a	n/a	n/a	-999	10	[6, 1, 4]	11	catFR1	2	R1473J
1217.516	3.999	1295728	PROB	3.999	n/a	n/a	n/a	-999	10	[2, 5, 5]	12	catFR1	2	R1473J
1221.515	0.0	1299727	STOP	n/a	n/a	n/a	n/a	-999	10	[-999, -999, -999]	n/a	catFR1	2	R1473J
1221.515	1.316	1299734	DISTRACT_END	n/a	n/a	n/a	n/a	-999	10	[0, 0, 0]	n/a	catFR1	2	R1473J
1222.831	2.543	1301050	REC_START	n/a	n/a	n/a	n/a	-999	10	[0, 0, 0]	n/a	catFR1	2	R1473J
1225.374	2.287	1303586	REC_WORD	2.287	n/a	ROSE	Flowers	2	10	[0, 0, 0]	n/a	catFR1	2	R1473J
1227.661	4.508	1305873	REC_WORD	4.508	n/a	VIOLET	Flowers	1	10	[0, 0, 0]	n/a	catFR1	2	R1473J
1232.169	4.309	1310381	REC_WORD	4.309	n/a	DRUM	Instruments	5	10	[0, 0, 0]	n/a	catFR1	2	R1473J
1236.478	4.732	1314689	REC_WORD	4.732	n/a	THUNDER	Weather	4	10	[0, 0, 0]	n/a	catFR1	2	R1473J
1241.21	12.862	1319421	REC_WORD	12.862	n/a	LIGHTNING	Weather	12	10	[0, 0, 0]	n/a	catFR1	2	R1473J
1254.072	3.159	1332287	REC_END	n/a	n/a	n/a	n/a	-999	10	[0, 0, 0]	n/a	catFR1	2	R1473J
1257.231	10.351	1335446	COUNTDOWN_START	n/a	n/a	n/a	n/a	-999	10	[0, 0, 0]	n/a	catFR1	2	R1473J
1267.582	0.0	1345798	COUNTDOWN_END	n/a	n/a	n/a	n/a	-999	10	[0, 0, 0]	n/a	catFR1	2	R1473J
1267.582	2.049	1345798	ENCODING_START	n/a	n/a	n/a	n/a	-999	11	[0, 0, 0]	n/a	catFR1	2	R1473J
1269.631	1.6	1347846	WORD	n/a	wordpools/wordpool_categorized_EN.txt	APPLE	Fruit	1	11	[0, 0, 0]	n/a	catFR1	2	R1473J
1271.231	0.966	1349442	WORD_OFF	n/a	n/a	APPLE	Fruit	1	11	[0, 0, 0]	n/a	catFR1	2	R1473J
1272.197	1.6	1350412	WORD	n/a	wordpools/wordpool_categorized_EN.txt	STRAWBERRY	Fruit	2	11	[0, 0, 0]	n/a	catFR1	2	R1473J
1273.797	0.818	1352008	WORD_OFF	n/a	n/a	STRAWBERRY	Fruit	2	11	[0, 0, 0]	n/a	catFR1	2	R1473J
1274.615	1.6	1352828	WORD	n/a	wordpools/wordpool_categorized_EN.txt	FRISBEE	Toys	3	11	[0, 0, 0]	n/a	catFR1	2	R1473J
1276.215	0.8	1354424	WORD_OFF	n/a	n/a	FRISBEE	Toys	3	11	[0, 0, 0]	n/a	catFR1	2	R1473J
1277.015	1.616	1355232	WORD	n/a	wordpools/wordpool_categorized_EN.txt	PUZZLE	Toys	4	11	[0, 0, 0]	n/a	catFR1	2	R1473J
1278.631	0.949	1356839	WORD_OFF	n/a	n/a	PUZZLE	Toys	4	11	[0, 0, 0]	n/a	catFR1	2	R1473J
1279.58	1.602	1357788	WORD	n/a	wordpools/wordpool_categorized_EN.txt	SQUID	OceanAnimals	5	11	[0, 0, 0]	n/a	catFR1	2	R1473J
1281.182	0.933	1359394	WORD_OFF	n/a	n/a	SQUID	OceanAnimals	5	11	[0, 0, 0]	n/a	catFR1	2	R1473J
1282.115	1.615	1360332	WORD	n/a	wordpools/wordpool_categorized_EN.txt	LOBSTER	OceanAnimals	6	11	[0, 0, 0]	n/a	catFR1	2	R1473J
1283.73	0.801	1361939	WORD_OFF	n/a	n/a	LOBSTER	OceanAnimals	6	11	[0, 0, 0]	n/a	catFR1	2	R1473J
1284.531	1.618	1362748	WORD	n/a	wordpools/wordpool_categorized_EN.txt	PLUM	Fruit	7	11	[0, 0, 0]	n/a	catFR1	2	R1473J
1286.149	0.782	1364365	WORD_OFF	n/a	n/a	PLUM	Fruit	7	11	[0, 0, 0]	n/a	catFR1	2	R1473J
1286.931	1.616	1365142	WORD	n/a	wordpools/wordpool_categorized_EN.txt	BLUEBERRY	Fruit	8	11	[0, 0, 0]	n/a	catFR1	2	R1473J
1288.547	0.767	1366759	WORD_OFF	n/a	n/a	BLUEBERRY	Fruit	8	11	[0, 0, 0]	n/a	catFR1	2	R1473J
1289.314	1.601	1367524	WORD	n/a	wordpools/wordpool_categorized_EN.txt	DOLLHOUSE	Toys	9	11	[0, 0, 0]	n/a	catFR1	2	R1473J
1290.915	0.867	1369131	WORD_OFF	n/a	n/a	DOLLHOUSE	Toys	9	11	[0, 0, 0]	n/a	catFR1	2	R1473J
1291.782	1.6	1369994	WORD	n/a	wordpools/wordpool_categorized_EN.txt	BARBIE	Toys	10	11	[0, 0, 0]	n/a	catFR1	2	R1473J
1293.382	0.933	1371590	WORD_OFF	n/a	n/a	BARBIE	Toys	10	11	[0, 0, 0]	n/a	catFR1	2	R1473J
1294.315	1.616	1372528	WORD	n/a	wordpools/wordpool_categorized_EN.txt	JELLYFISH	OceanAnimals	11	11	[0, 0, 0]	n/a	catFR1	2	R1473J
1295.931	0.966	1374145	WORD_OFF	n/a	n/a	JELLYFISH	OceanAnimals	11	11	[0, 0, 0]	n/a	catFR1	2	R1473J
1296.897	1.601	1375105	WORD	n/a	wordpools/wordpool_categorized_EN.txt	WHALE	OceanAnimals	12	11	[0, 0, 0]	n/a	catFR1	2	R1473J
1298.498	0.001	1376707	PROB	0.001	n/a	n/a	n/a	-999	11	[1, 1, 2]	4	catFR1	2	R1473J
1298.499	0.0	1376708	START	n/a	n/a	n/a	n/a	-999	11	[-999, -999, -999]	n/a	catFR1	2	R1473J
1298.498	0.001	1376711	WORD_OFF	n/a	n/a	WHALE	OceanAnimals	12	11	[0, 0, 0]	n/a	catFR1	2	R1473J
1298.499	0.0	1376711	ENCODING_END	n/a	n/a	n/a	n/a	-999	11	[0, 0, 0]	n/a	catFR1	2	R1473J
1298.499	3.982	1376711	DISTRACT_START	n/a	n/a	n/a	n/a	-999	11	[0, 0, 0]	n/a	catFR1	2	R1473J
1302.481	14.051	1380690	PROB	14.051	n/a	n/a	n/a	-999	11	[7, 5, 4]	16	catFR1	2	R1473J
1316.532	2.999	1394740	PROB	2.999	n/a	n/a	n/a	-999	11	[1, 1, 4]	6	catFR1	2	R1473J
1319.531	0.0	1397737	DISTRACT_END	n/a	n/a	n/a	n/a	-999	11	[0, 0, 0]	n/a	catFR1	2	R1473J
1319.531	1.166	1397739	STOP	n/a	n/a	n/a	n/a	-999	11	[-999, -999, -999]	n/a	catFR1	2	R1473J
1320.697	11.963	1398913	REC_START	n/a	n/a	n/a	n/a	-999	11	[0, 0, 0]	n/a	catFR1	2	R1473J
1332.66	1.0	1410867	REC_WORD	1.0	n/a	DOLLHOUSE	Toys	9	11	[0, 0, 0]	n/a	catFR1	2	R1473J
1333.66	3.179	1411867	REC_WORD_VV	3.179	n/a	<>	n/a	-999	11	[0, 0, 0]	n/a	catFR1	2	R1473J
1336.839	15.078	1415046	REC_WORD	15.078	n/a	BARBIE	Toys	10	11	[0, 0, 0]	n/a	catFR1	2	R1473J
1351.917	3.031	1430128	REC_END	n/a	n/a	n/a	n/a	-999	11	[0, 0, 0]	n/a	catFR1	2	R1473J
1354.948	10.35	1433158	COUNTDOWN_START	n/a	n/a	n/a	n/a	-999	11	[0, 0, 0]	n/a	catFR1	2	R1473J
1365.298	0.0	1443509	COUNTDOWN_END	n/a	n/a	n/a	n/a	-999	11	[0, 0, 0]	n/a	catFR1	2	R1473J
1365.298	2.167	1443509	ENCODING_START	n/a	n/a	n/a	n/a	-999	12	[0, 0, 0]	n/a	catFR1	2	R1473J
1367.465	1.6	1445677	WORD	n/a	wordpools/wordpool_categorized_EN.txt	MARBLES	Toys	1	12	[0, 0, 0]	n/a	catFR1	2	R1473J
1369.065	0.766	1447273	WORD_OFF	n/a	n/a	MARBLES	Toys	1	12	[0, 0, 0]	n/a	catFR1	2	R1473J
1369.831	1.618	1448038	WORD	n/a	wordpools/wordpool_categorized_EN.txt	BALL	Toys	2	12	[0, 0, 0]	n/a	catFR1	2	R1473J
1371.449	0.866	1449656	WORD_OFF	n/a	n/a	BALL	Toys	2	12	[0, 0, 0]	n/a	catFR1	2	R1473J
1372.315	1.6	1450518	WORD	n/a	wordpools/wordpool_categorized_EN.txt	RECLINER	Furniture	3	12	[0, 0, 0]	n/a	catFR1	2	R1473J
1373.915	0.834	1452125	WORD_OFF	n/a	n/a	RECLINER	Furniture	3	12	[0, 0, 0]	n/a	catFR1	2	R1473J
1374.749	1.6	1452955	WORD	n/a	wordpools/wordpool_categorized_EN.txt	CABINET	Furniture	4	12	[0, 0, 0]	n/a	catFR1	2	R1473J
1376.349	0.933	1454562	WORD_OFF	n/a	n/a	CABINET	Furniture	4	12	[0, 0, 0]	n/a	catFR1	2	R1473J
1377.282	1.6	1455489	WORD	n/a	wordpools/wordpool_categorized_EN.txt	TRUMPET	Instruments	5	12	[0, 0, 0]	n/a	catFR1	2	R1473J
1378.882	0.8	1457085	WORD_OFF	n/a	n/a	TRUMPET	Instruments	5	12	[0, 0, 0]	n/a	catFR1	2	R1473J
1379.682	1.615	1457893	WORD	n/a	wordpools/wordpool_categorized_EN.txt	ORGAN	Instruments	6	12	[0, 0, 0]	n/a	catFR1	2	R1473J
1381.297	0.833	1459500	WORD_OFF	n/a	n/a	ORGAN	Instruments	6	12	[0, 0, 0]	n/a	catFR1	2	R1473J
1382.13	1.601	1460341	WORD	n/a	wordpools/wordpool_categorized_EN.txt	FOOTBALL	Toys	7	12	[0, 0, 0]	n/a	catFR1	2	R1473J
1383.731	0.784	1461937	WORD_OFF	n/a	n/a	FOOTBALL	Toys	7	12	[0, 0, 0]	n/a	catFR1	2	R1473J
1384.515	1.6	1462724	WORD	n/a	wordpools/wordpool_categorized_EN.txt	BLOCKS	Toys	8	12	[0, 0, 0]	n/a	catFR1	2	R1473J
1386.115	0.9	1464320	WORD_OFF	n/a	n/a	BLOCKS	Toys	8	12	[0, 0, 0]	n/a	catFR1	2	R1473J
1387.015	1.616	1465226	WORD	n/a	wordpools/wordpool_categorized_EN.txt	DRESSER	Furniture	9	12	[0, 0, 0]	n/a	catFR1	2	R1473J
1388.631	0.817	1466843	WORD_OFF	n/a	n/a	DRESSER	Furniture	9	12	[0, 0, 0]	n/a	catFR1	2	R1473J
1389.448	1.601	1467652	WORD	n/a	wordpools/wordpool_categorized_EN.txt	BOOKCASE	Furniture	10	12	[0, 0, 0]	n/a	catFR1	2	R1473J
1391.049	0.766	1469258	WORD_OFF	n/a	n/a	BOOKCASE	Furniture	10	12	[0, 0, 0]	n/a	catFR1	2	R1473J
1391.815	1.6	1470024	WORD	n/a	wordpools/wordpool_categorized_EN.txt	FLUTE	Instruments	11	12	[0, 0, 0]	n/a	catFR1	2	R1473J
1393.415	0.816	1471620	WORD_OFF	n/a	n/a	FLUTE	Instruments	11	12	[0, 0, 0]	n/a	catFR1	2	R1473J
1394.231	1.617	1472439	WORD	n/a	wordpools/wordpool_categorized_EN.txt	VIOLIN	Instruments	12	12	[0, 0, 0]	n/a	catFR1	2	R1473J
1395.848	0.003	1474053	PROB	0.003	n/a	n/a	n/a	-999	12	[7, 5, 8]	20	catFR1	2	R1473J
1395.851	0.001	1474057	WORD_OFF	n/a	n/a	VIOLIN	Instruments	12	12	[0, 0, 0]	n/a	catFR1	2	R1473J
1395.852	0.0	1474057	ENCODING_END	n/a	n/a	n/a	n/a	-999	12	[0, 0, 0]	n/a	catFR1	2	R1473J
1395.852	0.0	1474057	DISTRACT_START	n/a	n/a	n/a	n/a	-999	12	[0, 0, 0]	n/a	catFR1	2	R1473J
1395.852	8.529	1474057	START	n/a	n/a	n/a	n/a	-999	12	[-999, -999, -999]	n/a	catFR1	2	R1473J
1404.381	4.867	1482585	PROB	4.867	n/a	n/a	n/a	-999	12	[7, 2, 8]	17	catFR1	2	R1473J
1409.248	3.699	1487452	PROB	3.699	n/a	n/a	n/a	-999	12	[1, 7, 7]	15	catFR1	2	R1473J
1412.947	3.534	1491151	PROB	3.534	n/a	n/a	n/a	-999	12	[2, 2, 2]	6	catFR1	2	R1473J
1416.481	0.0	1494684	DISTRACT_END	n/a	n/a	n/a	n/a	-999	12	[0, 0, 0]	n/a	catFR1	2	R1473J
1416.481	1.05	1494685	STOP	n/a	n/a	n/a	n/a	-999	12	[-999, -999, -999]	n/a	catFR1	2	R1473J
1417.531	30.016	1495740	REC_START	n/a	n/a	n/a	n/a	-999	12	[0, 0, 0]	n/a	catFR1	2	R1473J
1447.547	1.229	1525750	REC_WORD_VV	1.229	n/a	<>	n/a	-999	12	[0, 0, 0]	n/a	catFR1	2	R1473J
1448.776	0.0	1526978	REC_END	n/a	n/a	n/a	n/a	-999	12	[0, 0, 0]	n/a	catFR1	2	R1473J
