onset	duration	sample	trial_type	response_time	stim_file	item_name	category	serialpos	list	test	answer	experiment	session	subject
0.0	1.548	5860	INSTRUCT_START	n/a	n/a	n/a	n/a	-999	-999	[0, 0, 0]	n/a	catFR1	2	R1390M
1.548	31.851	7403	INSTRUCT_END	n/a	n/a	n/a	n/a	-999	-999	[0, 0, 0]	n/a	catFR1	2	R1390M
33.399	2.984	39257	COUNTDOWN_START	n/a	n/a	n/a	n/a	-999	-999	[0, 0, 0]	n/a	catFR1	2	R1390M
36.383	0.001	42233	COUNTDOWN_END	n/a	n/a	n/a	n/a	-999	-999	[0, 0, 0]	n/a	catFR1	2	R1390M
36.384	2.165	42251	ENCODING_START	n/a	n/a	n/a	n/a	-999	-1	[0, 0, 0]	n/a	catFR1	2	R1390M
38.549	1.599	44401	WORD	n/a	n/a	FIREMAN	Professions	1	-1	[0, 0, 0]	n/a	catFR1	2	R1390M
40.148	0.95	45999	WORD_OFF	n/a	n/a	FIREMAN	Professions	1	-1	[0, 0, 0]	n/a	catFR1	2	R1390M
41.098	1.6	46954	WORD	n/a	n/a	PLUMBER	Professions	2	-1	[0, 0, 0]	n/a	catFR1	2	R1390M
42.698	0.9	48552	WORD_OFF	n/a	n/a	PLUMBER	Professions	2	-1	[0, 0, 0]	n/a	catFR1	2	R1390M
43.598	1.6	49453	WORD	n/a	n/a	WOOL	Materials	3	-1	[0, 0, 0]	n/a	catFR1	2	R1390M
45.198	1.017	51051	WORD_OFF	n/a	n/a	WOOL	Materials	3	-1	[0, 0, 0]	n/a	catFR1	2	R1390M
46.215	1.617	52080	WORD	n/a	n/a	DENIM	Materials	4	-1	[0, 0, 0]	n/a	catFR1	2	R1390M
47.832	0.916	53696	WORD_OFF	n/a	n/a	DENIM	Materials	4	-1	[0, 0, 0]	n/a	catFR1	2	R1390M
48.748	1.617	54596	WORD	n/a	n/a	SECOND	Times	5	-1	[0, 0, 0]	n/a	catFR1	2	R1390M
50.365	0.8	56213	WORD_OFF	n/a	n/a	SECOND	Times	5	-1	[0, 0, 0]	n/a	catFR1	2	R1390M
51.165	1.617	57021	WORD	n/a	n/a	DAY	Times	6	-1	[0, 0, 0]	n/a	catFR1	2	R1390M
52.782	0.933	58638	WORD_OFF	n/a	n/a	DAY	Times	6	-1	[0, 0, 0]	n/a	catFR1	2	R1390M
53.715	1.617	59575	WORD	n/a	n/a	FARMER	Professions	7	-1	[0, 0, 0]	n/a	catFR1	2	R1390M
55.332	0.8	61191	WORD_OFF	n/a	n/a	FARMER	Professions	7	-1	[0, 0, 0]	n/a	catFR1	2	R1390M
56.132	1.616	61981	WORD	n/a	n/a	TEACHER	Professions	8	-1	[0, 0, 0]	n/a	catFR1	2	R1390M
57.748	0.9	63598	WORD_OFF	n/a	n/a	TEACHER	Professions	8	-1	[0, 0, 0]	n/a	catFR1	2	R1390M
58.648	1.617	64498	WORD	n/a	n/a	HOUR	Times	9	-1	[0, 0, 0]	n/a	catFR1	2	R1390M
60.265	0.817	66114	WORD_OFF	n/a	n/a	HOUR	Times	9	-1	[0, 0, 0]	n/a	catFR1	2	R1390M
61.082	1.6	66941	WORD	n/a	n/a	MINUTE	Times	10	-1	[0, 0, 0]	n/a	catFR1	2	R1390M
62.682	0.816	68539	WORD_OFF	n/a	n/a	MINUTE	Times	10	-1	[0, 0, 0]	n/a	catFR1	2	R1390M
63.498	1.617	69348	WORD	n/a	n/a	LEATHER	Materials	11	-1	[0, 0, 0]	n/a	catFR1	2	R1390M
65.115	0.816	70964	WORD_OFF	n/a	n/a	LEATHER	Materials	11	-1	[0, 0, 0]	n/a	catFR1	2	R1390M
65.931	1.619	71791	WORD	n/a	n/a	SILK	Materials	12	-1	[0, 0, 0]	n/a	catFR1	2	R1390M
67.55	0.001	73405	PROB	4.549	n/a	n/a	n/a	-999	-1	[1, 4, 6]	11.0	catFR1	2	R1390M
67.551	0.0	73406	START	n/a	n/a	n/a	n/a	-999	-1	[-999, -999, -999]	n/a	catFR1	2	R1390M
67.548	0.002	73407	WORD_OFF	n/a	n/a	SILK	Materials	12	-1	[0, 0, 0]	n/a	catFR1	2	R1390M
67.55	0.001	73407	ENCODING_END	n/a	n/a	n/a	n/a	-999	-1	[0, 0, 0]	n/a	catFR1	2	R1390M
67.551	4.564	73407	DISTRACT_START	n/a	n/a	n/a	n/a	-999	-1	[0, 0, 0]	n/a	catFR1	2	R1390M
72.115	4.734	77969	PROB	4.716	n/a	n/a	n/a	-999	-1	[5, 4, 8]	17.0	catFR1	2	R1390M
76.849	3.866	82703	PROB	3.849	n/a	n/a	n/a	-999	-1	[1, 3, 3]	7.0	catFR1	2	R1390M
80.715	4.266	86569	PROB	4.249	n/a	n/a	n/a	-999	-1	[3, 8, 1]	12.0	catFR1	2	R1390M
84.981	5.001	90835	PROB	4.984	n/a	n/a	n/a	-999	-1	[7, 6, 1]	14.0	catFR1	2	R1390M
89.982	0.0	95835	STOP	n/a	n/a	n/a	n/a	-999	-1	[-999, -999, -999]	n/a	catFR1	2	R1390M
89.982	1.334	95838	DISTRACT_END	n/a	n/a	n/a	n/a	-999	-1	[0, 0, 0]	n/a	catFR1	2	R1390M
91.316	2.017	97179	REC_START	n/a	n/a	n/a	n/a	-999	-1	[0, 0, 0]	n/a	catFR1	2	R1390M
93.333	0.716	99186	REC_WORD	2.017	n/a	FARMER	Professions	7	-1	[0, 0, 0]	n/a	catFR1	2	R1390M
94.049	1.539	99902	REC_WORD	2.733	n/a	TEACHER	Professions	8	-1	[0, 0, 0]	n/a	catFR1	2	R1390M
95.588	3.312	101441	REC_WORD	4.272	n/a	FIREMAN	Professions	1	-1	[0, 0, 0]	n/a	catFR1	2	R1390M
98.9	1.335	104753	REC_WORD	7.584	n/a	SECOND	Times	5	-1	[0, 0, 0]	n/a	catFR1	2	R1390M
100.235	0.961	106088	REC_WORD	8.919	n/a	DAY	Times	6	-1	[0, 0, 0]	n/a	catFR1	2	R1390M
101.196	2.222	107049	REC_WORD	9.88	n/a	HOUR	Times	9	-1	[0, 0, 0]	n/a	catFR1	2	R1390M
103.418	2.844	109271	REC_WORD	12.102	n/a	MONTH	n/a	-999	-1	[0, 0, 0]	n/a	catFR1	2	R1390M
106.262	0.747	112115	REC_WORD	14.946	n/a	DENIM	Materials	4	-1	[0, 0, 0]	n/a	catFR1	2	R1390M
107.009	1.789	112862	REC_WORD	15.693	n/a	SILK	Materials	12	-1	[0, 0, 0]	n/a	catFR1	2	R1390M
108.798	2.101	114651	REC_WORD	17.482	n/a	WOOL	Materials	3	-1	[0, 0, 0]	n/a	catFR1	2	R1390M
110.899	10.709	116751	REC_WORD	19.583	n/a	LEATHER	Materials	11	-1	[0, 0, 0]	n/a	catFR1	2	R1390M
121.608	9.174	127453	REC_END	n/a	n/a	n/a	n/a	-999	-1	[0, 0, 0]	n/a	catFR1	2	R1390M
130.782	4.783	136638	COUNTDOWN_START	n/a	n/a	n/a	n/a	-999	1	[0, 0, 0]	n/a	catFR1	2	R1390M
135.565	0.001	141414	COUNTDOWN_END	n/a	n/a	n/a	n/a	-999	1	[0, 0, 0]	n/a	catFR1	2	R1390M
135.566	2.016	141414	ENCODING_START	n/a	n/a	n/a	n/a	-999	1	[0, 0, 0]	n/a	catFR1	2	R1390M
137.582	1.616	143435	WORD	n/a	wordpools/wordpool_categorized_EN.txt	VACUUM	Appliances	1	1	[0, 0, 0]	n/a	catFR1	2	R1390M
139.198	0.834	145052	WORD_OFF	n/a	n/a	VACUUM	Appliances	1	1	[0, 0, 0]	n/a	catFR1	2	R1390M
140.032	1.6	145878	WORD	n/a	wordpools/wordpool_categorized_EN.txt	DRYER	Appliances	2	1	[0, 0, 0]	n/a	catFR1	2	R1390M
141.632	0.916	147477	WORD_OFF	n/a	n/a	DRYER	Appliances	2	1	[0, 0, 0]	n/a	catFR1	2	R1390M
142.548	1.617	148395	WORD	n/a	wordpools/wordpool_categorized_EN.txt	LAKE	Landscapes	3	1	[0, 0, 0]	n/a	catFR1	2	R1390M
144.165	0.949	150012	WORD_OFF	n/a	n/a	LAKE	Landscapes	3	1	[0, 0, 0]	n/a	catFR1	2	R1390M
145.114	1.6	150967	WORD	n/a	wordpools/wordpool_categorized_EN.txt	OCEAN	Landscapes	4	1	[0, 0, 0]	n/a	catFR1	2	R1390M
146.714	0.768	152565	WORD_OFF	n/a	n/a	OCEAN	Landscapes	4	1	[0, 0, 0]	n/a	catFR1	2	R1390M
147.482	1.616	153337	WORD	n/a	wordpools/wordpool_categorized_EN.txt	MOPED	Vehicles	5	1	[0, 0, 0]	n/a	catFR1	2	R1390M
149.098	0.783	154953	WORD_OFF	n/a	n/a	MOPED	Vehicles	5	1	[0, 0, 0]	n/a	catFR1	2	R1390M
149.881	1.616	155725	WORD	n/a	wordpools/wordpool_categorized_EN.txt	VAN	Vehicles	6	1	[0, 0, 0]	n/a	catFR1	2	R1390M
151.497	0.884	157342	WORD_OFF	n/a	n/a	VAN	Vehicles	6	1	[0, 0, 0]	n/a	catFR1	2	R1390M
152.381	1.6	158223	WORD	n/a	wordpools/wordpool_categorized_EN.txt	HILLS	Landscapes	7	1	[0, 0, 0]	n/a	catFR1	2	R1390M
153.981	1.0	159840	WORD_OFF	n/a	n/a	HILLS	Landscapes	7	1	[0, 0, 0]	n/a	catFR1	2	R1390M
154.981	1.617	160832	WORD	n/a	wordpools/wordpool_categorized_EN.txt	RIVER	Landscapes	8	1	[0, 0, 0]	n/a	catFR1	2	R1390M
156.598	0.783	162449	WORD_OFF	n/a	n/a	RIVER	Landscapes	8	1	[0, 0, 0]	n/a	catFR1	2	R1390M
157.381	1.617	163238	WORD	n/a	wordpools/wordpool_categorized_EN.txt	IRON	Appliances	9	1	[0, 0, 0]	n/a	catFR1	2	R1390M
158.998	0.867	164855	WORD_OFF	n/a	n/a	IRON	Appliances	9	1	[0, 0, 0]	n/a	catFR1	2	R1390M
159.865	1.616	165718	WORD	n/a	wordpools/wordpool_categorized_EN.txt	STOVE	Appliances	10	1	[0, 0, 0]	n/a	catFR1	2	R1390M
161.481	0.817	167335	WORD_OFF	n/a	n/a	STOVE	Appliances	10	1	[0, 0, 0]	n/a	catFR1	2	R1390M
162.298	1.616	168143	WORD	n/a	wordpools/wordpool_categorized_EN.txt	TRUCK	Vehicles	11	1	[0, 0, 0]	n/a	catFR1	2	R1390M
163.914	0.9	169760	WORD_OFF	n/a	n/a	TRUCK	Vehicles	11	1	[0, 0, 0]	n/a	catFR1	2	R1390M
164.814	1.617	170660	WORD	n/a	wordpools/wordpool_categorized_EN.txt	BIKE	Vehicles	12	1	[0, 0, 0]	n/a	catFR1	2	R1390M
166.431	0.002	172277	WORD_OFF	n/a	n/a	BIKE	Vehicles	12	1	[0, 0, 0]	n/a	catFR1	2	R1390M
166.433	0.0	172277	ENCODING_END	n/a	n/a	n/a	n/a	-999	1	[0, 0, 0]	n/a	catFR1	2	R1390M
166.433	0.0	172277	DISTRACT_START	n/a	n/a	n/a	n/a	-999	1	[0, 0, 0]	n/a	catFR1	2	R1390M
166.432	0.001	172282	PROB	3.766	n/a	n/a	n/a	-999	1	[3, 3, 3]	9.0	catFR1	2	R1390M
166.433	3.782	172283	START	n/a	n/a	n/a	n/a	-999	1	[-999, -999, -999]	n/a	catFR1	2	R1390M
170.215	3.917	176064	PROB	3.9	n/a	n/a	n/a	-999	1	[2, 6, 7]	15.0	catFR1	2	R1390M
174.132	3.817	179981	PROB	3.8	n/a	n/a	n/a	-999	1	[2, 2, 1]	5.0	catFR1	2	R1390M
177.949	7.216	183798	PROB	7.199	n/a	n/a	n/a	-999	1	[5, 1, 8]	14.0	catFR1	2	R1390M
185.165	4.783	191014	PROB	4.766	n/a	n/a	n/a	-999	1	[2, 7, 4]	13.0	catFR1	2	R1390M
189.948	0.0	195791	DISTRACT_END	n/a	n/a	n/a	n/a	-999	1	[0, 0, 0]	n/a	catFR1	2	R1390M
189.948	1.117	195797	STOP	n/a	n/a	n/a	n/a	-999	1	[-999, -999, -999]	n/a	catFR1	2	R1390M
191.065	2.252	196911	REC_START	n/a	n/a	n/a	n/a	-999	1	[0, 0, 0]	n/a	catFR1	2	R1390M
193.317	2.202	199165	REC_WORD	2.252	n/a	MOP	n/a	-999	1	[0, 0, 0]	n/a	catFR1	2	R1390M
195.519	0.325	201367	REC_WORD_VV	4.454	n/a	<>	n/a	-999	1	[0, 0, 0]	n/a	catFR1	2	R1390M
195.844	0.738	201692	REC_WORD	4.779	n/a	MOPED	Vehicles	5	1	[0, 0, 0]	n/a	catFR1	2	R1390M
196.582	4.229	202430	REC_WORD_VV	5.517	n/a	<>	n/a	-999	1	[0, 0, 0]	n/a	catFR1	2	R1390M
200.811	1.126	206659	REC_WORD	9.746	n/a	DRYER	Appliances	2	1	[0, 0, 0]	n/a	catFR1	2	R1390M
201.937	1.84	207785	REC_WORD	10.872	n/a	VAN	Vehicles	6	1	[0, 0, 0]	n/a	catFR1	2	R1390M
203.777	3.495	209625	REC_WORD	12.712	n/a	RIVER	Landscapes	8	1	[0, 0, 0]	n/a	catFR1	2	R1390M
207.272	1.095	213120	REC_WORD	16.207	n/a	VALLEY	n/a	-999	1	[0, 0, 0]	n/a	catFR1	2	R1390M
208.367	12.963	214215	REC_WORD	17.302	n/a	TRUCK	Vehicles	11	1	[0, 0, 0]	n/a	catFR1	2	R1390M
221.33	12.352	227186	REC_END	n/a	n/a	n/a	n/a	-999	1	[0, 0, 0]	n/a	catFR1	2	R1390M
233.682	10.35	239531	COUNTDOWN_START	n/a	n/a	n/a	n/a	-999	2	[0, 0, 0]	n/a	catFR1	2	R1390M
244.032	0.001	249873	COUNTDOWN_END	n/a	n/a	n/a	n/a	-999	2	[0, 0, 0]	n/a	catFR1	2	R1390M
244.033	1.915	249873	ENCODING_START	n/a	n/a	n/a	n/a	-999	2	[0, 0, 0]	n/a	catFR1	2	R1390M
245.948	1.6	251802	WORD	n/a	wordpools/wordpool_categorized_EN.txt	DOLL	Toys	1	2	[0, 0, 0]	n/a	catFR1	2	R1390M
247.548	0.784	253400	WORD_OFF	n/a	n/a	DOLL	Toys	1	2	[0, 0, 0]	n/a	catFR1	2	R1390M
248.332	1.615	254172	WORD	n/a	wordpools/wordpool_categorized_EN.txt	MARBLES	Toys	2	2	[0, 0, 0]	n/a	catFR1	2	R1390M
249.947	1.0	255788	WORD_OFF	n/a	n/a	MARBLES	Toys	2	2	[0, 0, 0]	n/a	catFR1	2	R1390M
250.947	1.6	256799	WORD	n/a	wordpools/wordpool_categorized_EN.txt	PAPER	Officesupplies	3	2	[0, 0, 0]	n/a	catFR1	2	R1390M
252.547	0.867	258397	WORD_OFF	n/a	n/a	PAPER	Officesupplies	3	2	[0, 0, 0]	n/a	catFR1	2	R1390M
253.414	1.6	259260	WORD	n/a	wordpools/wordpool_categorized_EN.txt	STAPLER	Officesupplies	4	2	[0, 0, 0]	n/a	catFR1	2	R1390M
255.014	0.801	260858	WORD_OFF	n/a	n/a	STAPLER	Officesupplies	4	2	[0, 0, 0]	n/a	catFR1	2	R1390M
255.815	1.616	261667	WORD	n/a	wordpools/wordpool_categorized_EN.txt	MAPLE	Trees	5	2	[0, 0, 0]	n/a	catFR1	2	R1390M
257.431	0.883	263283	WORD_OFF	n/a	n/a	MAPLE	Trees	5	2	[0, 0, 0]	n/a	catFR1	2	R1390M
258.314	1.601	264165	WORD	n/a	wordpools/wordpool_categorized_EN.txt	PINE	Trees	6	2	[0, 0, 0]	n/a	catFR1	2	R1390M
259.915	0.799	265763	WORD_OFF	n/a	n/a	PINE	Trees	6	2	[0, 0, 0]	n/a	catFR1	2	R1390M
260.714	1.618	266553	WORD	n/a	wordpools/wordpool_categorized_EN.txt	NOTEBOOK	Officesupplies	7	2	[0, 0, 0]	n/a	catFR1	2	R1390M
262.332	0.799	268170	WORD_OFF	n/a	n/a	NOTEBOOK	Officesupplies	7	2	[0, 0, 0]	n/a	catFR1	2	R1390M
263.131	1.6	268978	WORD	n/a	wordpools/wordpool_categorized_EN.txt	RULER	Officesupplies	8	2	[0, 0, 0]	n/a	catFR1	2	R1390M
264.731	1.001	270576	WORD_OFF	n/a	n/a	RULER	Officesupplies	8	2	[0, 0, 0]	n/a	catFR1	2	R1390M
265.732	1.616	271568	WORD	n/a	wordpools/wordpool_categorized_EN.txt	BLOCKS	Toys	9	2	[0, 0, 0]	n/a	catFR1	2	R1390M
267.348	0.949	273203	WORD_OFF	n/a	n/a	BLOCKS	Toys	9	2	[0, 0, 0]	n/a	catFR1	2	R1390M
268.297	1.601	274140	WORD	n/a	wordpools/wordpool_categorized_EN.txt	PUZZLE	Toys	10	2	[0, 0, 0]	n/a	catFR1	2	R1390M
269.898	0.816	275738	WORD_OFF	n/a	n/a	PUZZLE	Toys	10	2	[0, 0, 0]	n/a	catFR1	2	R1390M
270.714	1.6	276565	WORD	n/a	wordpools/wordpool_categorized_EN.txt	WALNUT	Trees	11	2	[0, 0, 0]	n/a	catFR1	2	R1390M
272.314	0.984	278163	WORD_OFF	n/a	n/a	WALNUT	Trees	11	2	[0, 0, 0]	n/a	catFR1	2	R1390M
273.298	1.6	279137	WORD	n/a	wordpools/wordpool_categorized_EN.txt	SPRUCE	Trees	12	2	[0, 0, 0]	n/a	catFR1	2	R1390M
274.898	0.001	280735	WORD_OFF	n/a	n/a	SPRUCE	Trees	12	2	[0, 0, 0]	n/a	catFR1	2	R1390M
274.899	0.001	280743	PROB	5.133	n/a	n/a	n/a	-999	2	[7, 7, 4]	18.0	catFR1	2	R1390M
274.9	0.0	280744	START	n/a	n/a	n/a	n/a	-999	2	[-999, -999, -999]	n/a	catFR1	2	R1390M
274.9	0.0	280754	ENCODING_END	n/a	n/a	n/a	n/a	-999	2	[0, 0, 0]	n/a	catFR1	2	R1390M
274.9	5.149	280754	DISTRACT_START	n/a	n/a	n/a	n/a	-999	2	[0, 0, 0]	n/a	catFR1	2	R1390M
280.049	3.784	285893	PROB	3.766	n/a	n/a	n/a	-999	2	[1, 3, 5]	9.0	catFR1	2	R1390M
283.833	5.016	289677	PROB	4.999	n/a	n/a	n/a	-999	2	[6, 7, 8]	21.0	catFR1	2	R1390M
288.849	3.583	294693	PROB	3.566	n/a	n/a	n/a	-999	2	[6, 5, 1]	12.0	catFR1	2	R1390M
292.432	5.45	298275	PROB	5.433	n/a	n/a	n/a	-999	2	[6, 6, 8]	20.0	catFR1	2	R1390M
297.882	0.0	303716	DISTRACT_END	n/a	n/a	n/a	n/a	-999	2	[0, 0, 0]	n/a	catFR1	2	R1390M
297.882	1.083	303725	STOP	n/a	n/a	n/a	n/a	-999	2	[-999, -999, -999]	n/a	catFR1	2	R1390M
298.965	3.543	304800	REC_START	n/a	n/a	n/a	n/a	-999	2	[0, 0, 0]	n/a	catFR1	2	R1390M
302.508	14.818	308351	REC_WORD	3.543	n/a	SPRUCE	Trees	12	2	[0, 0, 0]	n/a	catFR1	2	R1390M
317.326	1.125	323168	REC_WORD_VV	18.361	n/a	<>	n/a	-999	2	[0, 0, 0]	n/a	catFR1	2	R1390M
318.451	0.881	324293	REC_WORD	19.486	n/a	WOOD	n/a	-999	2	[0, 0, 0]	n/a	catFR1	2	R1390M
319.332	6.667	325174	REC_WORD_VV	20.367	n/a	<>	n/a	-999	2	[0, 0, 0]	n/a	catFR1	2	R1390M
325.999	3.25	331841	REC_WORD	27.034	n/a	DOLL	Toys	1	2	[0, 0, 0]	n/a	catFR1	2	R1390M
329.249	7.866	335093	REC_END	n/a	n/a	n/a	n/a	-999	2	[0, 0, 0]	n/a	catFR1	2	R1390M
337.115	6.633	342956	COUNTDOWN_START	n/a	n/a	n/a	n/a	-999	3	[0, 0, 0]	n/a	catFR1	2	R1390M
343.748	0.0	349587	COUNTDOWN_END	n/a	n/a	n/a	n/a	-999	3	[0, 0, 0]	n/a	catFR1	2	R1390M
343.748	1.867	349587	ENCODING_START	n/a	n/a	n/a	n/a	-999	3	[0, 0, 0]	n/a	catFR1	2	R1390M
345.615	1.6	351461	WORD	n/a	wordpools/wordpool_categorized_EN.txt	EVERGREEN	Trees	1	3	[0, 0, 0]	n/a	catFR1	2	R1390M
347.215	0.933	353059	WORD_OFF	n/a	n/a	EVERGREEN	Trees	1	3	[0, 0, 0]	n/a	catFR1	2	R1390M
348.148	1.6	353996	WORD	n/a	wordpools/wordpool_categorized_EN.txt	HICKORY	Trees	2	3	[0, 0, 0]	n/a	catFR1	2	R1390M
349.748	0.95	355594	WORD_OFF	n/a	n/a	HICKORY	Trees	2	3	[0, 0, 0]	n/a	catFR1	2	R1390M
350.698	1.617	356531	WORD	n/a	wordpools/wordpool_categorized_EN.txt	DRILL	Tools	3	3	[0, 0, 0]	n/a	catFR1	2	R1390M
352.315	0.817	358148	WORD_OFF	n/a	n/a	DRILL	Tools	3	3	[0, 0, 0]	n/a	catFR1	2	R1390M
353.132	1.6	358975	WORD	n/a	wordpools/wordpool_categorized_EN.txt	WRENCH	Tools	4	3	[0, 0, 0]	n/a	catFR1	2	R1390M
354.732	0.916	360573	WORD_OFF	n/a	n/a	WRENCH	Tools	4	3	[0, 0, 0]	n/a	catFR1	2	R1390M
355.648	1.617	361491	WORD	n/a	wordpools/wordpool_categorized_EN.txt	CORKSCREW	Kitchentools	5	3	[0, 0, 0]	n/a	catFR1	2	R1390M
357.265	0.95	363108	WORD_OFF	n/a	n/a	CORKSCREW	Kitchentools	5	3	[0, 0, 0]	n/a	catFR1	2	R1390M
358.215	1.617	364063	WORD	n/a	wordpools/wordpool_categorized_EN.txt	STRAINER	Kitchentools	6	3	[0, 0, 0]	n/a	catFR1	2	R1390M
359.832	0.85	365680	WORD_OFF	n/a	n/a	STRAINER	Kitchentools	6	3	[0, 0, 0]	n/a	catFR1	2	R1390M
360.682	1.616	366525	WORD	n/a	wordpools/wordpool_categorized_EN.txt	OAK	Trees	7	3	[0, 0, 0]	n/a	catFR1	2	R1390M
362.298	0.917	368141	WORD_OFF	n/a	n/a	OAK	Trees	7	3	[0, 0, 0]	n/a	catFR1	2	R1390M
363.215	1.617	369060	WORD	n/a	wordpools/wordpool_categorized_EN.txt	CEDAR	Trees	8	3	[0, 0, 0]	n/a	catFR1	2	R1390M
364.832	0.933	370676	WORD_OFF	n/a	n/a	CEDAR	Trees	8	3	[0, 0, 0]	n/a	catFR1	2	R1390M
365.765	1.615	371613	WORD	n/a	wordpools/wordpool_categorized_EN.txt	SAW	Tools	9	3	[0, 0, 0]	n/a	catFR1	2	R1390M
367.38	0.851	373212	WORD_OFF	n/a	n/a	SAW	Tools	9	3	[0, 0, 0]	n/a	catFR1	2	R1390M
368.231	1.601	374075	WORD	n/a	wordpools/wordpool_categorized_EN.txt	PLIERS	Tools	10	3	[0, 0, 0]	n/a	catFR1	2	R1390M
369.832	0.883	375673	WORD_OFF	n/a	n/a	PLIERS	Tools	10	3	[0, 0, 0]	n/a	catFR1	2	R1390M
370.715	1.6	376555	WORD	n/a	wordpools/wordpool_categorized_EN.txt	LADLE	Kitchentools	11	3	[0, 0, 0]	n/a	catFR1	2	R1390M
372.315	0.817	378153	WORD_OFF	n/a	n/a	LADLE	Kitchentools	11	3	[0, 0, 0]	n/a	catFR1	2	R1390M
373.132	1.601	378980	WORD	n/a	wordpools/wordpool_categorized_EN.txt	GRATER	Kitchentools	12	3	[0, 0, 0]	n/a	catFR1	2	R1390M
374.733	0.001	380572	PROB	6.399	n/a	n/a	n/a	-999	3	[5, 5, 6]	16.0	catFR1	2	R1390M
374.734	0.0	380573	START	n/a	n/a	n/a	n/a	-999	3	[-999, -999, -999]	n/a	catFR1	2	R1390M
374.732	0.001	380578	WORD_OFF	n/a	n/a	GRATER	Kitchentools	12	3	[0, 0, 0]	n/a	catFR1	2	R1390M
374.733	0.001	380578	ENCODING_END	n/a	n/a	n/a	n/a	-999	3	[0, 0, 0]	n/a	catFR1	2	R1390M
374.734	6.415	380578	DISTRACT_START	n/a	n/a	n/a	n/a	-999	3	[0, 0, 0]	n/a	catFR1	2	R1390M
381.149	11.4	386988	PROB	11.383	n/a	n/a	n/a	-999	3	[8, 7, 1]	16.0	catFR1	2	R1390M
392.549	6.666	398387	PROB	6.649	n/a	n/a	n/a	-999	3	[4, 7, 6]	17.0	catFR1	2	R1390M
399.215	0.0	405047	DISTRACT_END	n/a	n/a	n/a	n/a	-999	3	[0, 0, 0]	n/a	catFR1	2	R1390M
399.215	1.116	405053	STOP	n/a	n/a	n/a	n/a	-999	3	[-999, -999, -999]	n/a	catFR1	2	R1390M
400.331	2.364	406168	REC_START	n/a	n/a	n/a	n/a	-999	3	[0, 0, 0]	n/a	catFR1	2	R1390M
402.695	0.899	408533	REC_WORD	2.364	n/a	DRILL	Tools	3	3	[0, 0, 0]	n/a	catFR1	2	R1390M
403.594	1.955	409432	REC_WORD	3.263	n/a	WRENCH	Tools	4	3	[0, 0, 0]	n/a	catFR1	2	R1390M
405.549	1.015	411387	REC_WORD	5.218	n/a	GRATER	Kitchentools	12	3	[0, 0, 0]	n/a	catFR1	2	R1390M
406.564	9.193	412402	REC_WORD	6.233	n/a	LADLE	Kitchentools	11	3	[0, 0, 0]	n/a	catFR1	2	R1390M
415.757	4.171	421594	REC_WORD	15.426	n/a	CORKSCREW	Kitchentools	5	3	[0, 0, 0]	n/a	catFR1	2	R1390M
419.928	2.662	425765	REC_WORD	19.597	n/a	CEDAR	Trees	8	3	[0, 0, 0]	n/a	catFR1	2	R1390M
422.59	5.797	428427	REC_WORD	22.259	n/a	EVERGREEN	Trees	1	3	[0, 0, 0]	n/a	catFR1	2	R1390M
428.387	2.211	434224	REC_WORD	28.056	n/a	PINE	Trees	-999	3	[0, 0, 0]	n/a	catFR1	2	R1390M
430.598	11.384	436442	REC_END	n/a	n/a	n/a	n/a	-999	3	[0, 0, 0]	n/a	catFR1	2	R1390M
441.982	2.717	447814	COUNTDOWN_START	n/a	n/a	n/a	n/a	-999	4	[0, 0, 0]	n/a	catFR1	2	R1390M
444.699	0.0	450532	COUNTDOWN_END	n/a	n/a	n/a	n/a	-999	4	[0, 0, 0]	n/a	catFR1	2	R1390M
444.699	1.966	450532	ENCODING_START	n/a	n/a	n/a	n/a	-999	4	[0, 0, 0]	n/a	catFR1	2	R1390M
446.665	1.601	452498	WORD	n/a	wordpools/wordpool_categorized_EN.txt	NOSE	Bodyparts	1	4	[0, 0, 0]	n/a	catFR1	2	R1390M
448.266	0.766	454096	WORD_OFF	n/a	n/a	NOSE	Bodyparts	1	4	[0, 0, 0]	n/a	catFR1	2	R1390M
449.032	1.6	454868	WORD	n/a	wordpools/wordpool_categorized_EN.txt	LEG	Bodyparts	2	4	[0, 0, 0]	n/a	catFR1	2	R1390M
450.632	0.983	456466	WORD_OFF	n/a	n/a	LEG	Bodyparts	2	4	[0, 0, 0]	n/a	catFR1	2	R1390M
451.615	1.617	457458	WORD	n/a	wordpools/wordpool_categorized_EN.txt	BLOUSE	Clothing	3	4	[0, 0, 0]	n/a	catFR1	2	R1390M
453.232	0.866	459075	WORD_OFF	n/a	n/a	BLOUSE	Clothing	3	4	[0, 0, 0]	n/a	catFR1	2	R1390M
454.098	1.6	459938	WORD	n/a	wordpools/wordpool_categorized_EN.txt	SKIRT	Clothing	4	4	[0, 0, 0]	n/a	catFR1	2	R1390M
455.698	0.784	461536	WORD_OFF	n/a	n/a	SKIRT	Clothing	4	4	[0, 0, 0]	n/a	catFR1	2	R1390M
456.482	1.6	462326	WORD	n/a	wordpools/wordpool_categorized_EN.txt	DRESSER	Furniture	5	4	[0, 0, 0]	n/a	catFR1	2	R1390M
458.082	1.0	463924	WORD_OFF	n/a	n/a	DRESSER	Furniture	5	4	[0, 0, 0]	n/a	catFR1	2	R1390M
459.082	1.6	464916	WORD	n/a	wordpools/wordpool_categorized_EN.txt	RECLINER	Furniture	6	4	[0, 0, 0]	n/a	catFR1	2	R1390M
460.682	0.983	466515	WORD_OFF	n/a	n/a	RECLINER	Furniture	6	4	[0, 0, 0]	n/a	catFR1	2	R1390M
461.665	1.617	467507	WORD	n/a	wordpools/wordpool_categorized_EN.txt	HAND	Bodyparts	7	4	[0, 0, 0]	n/a	catFR1	2	R1390M
463.282	0.816	469123	WORD_OFF	n/a	n/a	HAND	Bodyparts	7	4	[0, 0, 0]	n/a	catFR1	2	R1390M
464.098	1.6	469931	WORD	n/a	wordpools/wordpool_categorized_EN.txt	ELBOW	Bodyparts	8	4	[0, 0, 0]	n/a	catFR1	2	R1390M
465.698	1.0	471530	WORD_OFF	n/a	n/a	ELBOW	Bodyparts	8	4	[0, 0, 0]	n/a	catFR1	2	R1390M
466.698	1.617	472540	WORD	n/a	wordpools/wordpool_categorized_EN.txt	SHIRT	Clothing	9	4	[0, 0, 0]	n/a	catFR1	2	R1390M
468.315	0.833	474157	WORD_OFF	n/a	n/a	SHIRT	Clothing	9	4	[0, 0, 0]	n/a	catFR1	2	R1390M
469.148	1.618	474983	WORD	n/a	wordpools/wordpool_categorized_EN.txt	DRESS	Clothing	10	4	[0, 0, 0]	n/a	catFR1	2	R1390M
470.766	0.966	476600	WORD_OFF	n/a	n/a	DRESS	Clothing	10	4	[0, 0, 0]	n/a	catFR1	2	R1390M
471.732	1.6	477574	WORD	n/a	wordpools/wordpool_categorized_EN.txt	DESK	Furniture	11	4	[0, 0, 0]	n/a	catFR1	2	R1390M
473.332	0.9	479172	WORD_OFF	n/a	n/a	DESK	Furniture	11	4	[0, 0, 0]	n/a	catFR1	2	R1390M
474.232	1.6	480072	WORD	n/a	wordpools/wordpool_categorized_EN.txt	SHELF	Furniture	12	4	[0, 0, 0]	n/a	catFR1	2	R1390M
475.832	0.001	481666	PROB	5.483	n/a	n/a	n/a	-999	4	[4, 8, 3]	15.0	catFR1	2	R1390M
475.833	0.0	481667	START	n/a	n/a	n/a	n/a	-999	4	[-999, -999, -999]	n/a	catFR1	2	R1390M
475.832	0.001	481670	WORD_OFF	n/a	n/a	SHELF	Furniture	12	4	[0, 0, 0]	n/a	catFR1	2	R1390M
475.833	0.0	481670	ENCODING_END	n/a	n/a	n/a	n/a	-999	4	[0, 0, 0]	n/a	catFR1	2	R1390M
475.833	5.499	481670	DISTRACT_START	n/a	n/a	n/a	n/a	-999	4	[0, 0, 0]	n/a	catFR1	2	R1390M
481.332	4.367	487166	PROB	4.349	n/a	n/a	n/a	-999	4	[4, 7, 5]	16.0	catFR1	2	R1390M
485.699	3.616	491533	PROB	3.599	n/a	n/a	n/a	-999	4	[7, 3, 7]	17.0	catFR1	2	R1390M
489.315	4.2	495149	PROB	4.183	n/a	n/a	n/a	-999	4	[4, 3, 3]	10.0	catFR1	2	R1390M
493.515	5.683	499348	PROB	5.666	n/a	n/a	n/a	-999	4	[6, 3, 5]	14.0	catFR1	2	R1390M
499.198	0.0	505031	STOP	n/a	n/a	n/a	n/a	-999	4	[-999, -999, -999]	n/a	catFR1	2	R1390M
499.198	1.133	505037	DISTRACT_END	n/a	n/a	n/a	n/a	-999	4	[0, 0, 0]	n/a	catFR1	2	R1390M
500.331	2.191	506158	REC_START	n/a	n/a	n/a	n/a	-999	4	[0, 0, 0]	n/a	catFR1	2	R1390M
502.522	0.762	508355	REC_WORD	2.191	n/a	DRESSER	Furniture	5	4	[0, 0, 0]	n/a	catFR1	2	R1390M
503.284	0.969	509117	REC_WORD	2.953	n/a	BLOUSE	Clothing	3	4	[0, 0, 0]	n/a	catFR1	2	R1390M
504.253	2.648	510086	REC_WORD	3.922	n/a	DRESS	Clothing	10	4	[0, 0, 0]	n/a	catFR1	2	R1390M
506.901	12.493	512734	REC_WORD	6.57	n/a	SHIRT	Clothing	9	4	[0, 0, 0]	n/a	catFR1	2	R1390M
519.394	1.109	525226	REC_WORD	19.063	n/a	NOSE	Bodyparts	1	4	[0, 0, 0]	n/a	catFR1	2	R1390M
520.503	1.992	526335	REC_WORD	20.172	n/a	LEG	Bodyparts	2	4	[0, 0, 0]	n/a	catFR1	2	R1390M
522.495	8.108	528327	REC_WORD	22.164	n/a	HAND	Bodyparts	7	4	[0, 0, 0]	n/a	catFR1	2	R1390M
530.603	5.478	536432	REC_END	n/a	n/a	n/a	n/a	-999	4	[0, 0, 0]	n/a	catFR1	2	R1390M
536.081	4.717	541906	COUNTDOWN_START	n/a	n/a	n/a	n/a	-999	5	[0, 0, 0]	n/a	catFR1	2	R1390M
540.798	0.0	546628	COUNTDOWN_END	n/a	n/a	n/a	n/a	-999	5	[0, 0, 0]	n/a	catFR1	2	R1390M
540.798	1.967	546628	ENCODING_START	n/a	n/a	n/a	n/a	-999	5	[0, 0, 0]	n/a	catFR1	2	R1390M
542.765	1.616	548593	WORD	n/a	wordpools/wordpool_categorized_EN.txt	TULIP	Flowers	1	5	[0, 0, 0]	n/a	catFR1	2	R1390M
544.381	0.967	550210	WORD_OFF	n/a	n/a	TULIP	Flowers	1	5	[0, 0, 0]	n/a	catFR1	2	R1390M
545.348	1.617	551183	WORD	n/a	wordpools/wordpool_categorized_EN.txt	ORCHID	Flowers	2	5	[0, 0, 0]	n/a	catFR1	2	R1390M
546.965	0.85	552800	WORD_OFF	n/a	n/a	ORCHID	Flowers	2	5	[0, 0, 0]	n/a	catFR1	2	R1390M
547.815	1.617	553645	WORD	n/a	wordpools/wordpool_categorized_EN.txt	PANDA	Zoo	3	5	[0, 0, 0]	n/a	catFR1	2	R1390M
549.432	0.766	555262	WORD_OFF	n/a	n/a	PANDA	Zoo	3	5	[0, 0, 0]	n/a	catFR1	2	R1390M
550.198	1.601	556033	WORD	n/a	wordpools/wordpool_categorized_EN.txt	GORILLA	Zoo	4	5	[0, 0, 0]	n/a	catFR1	2	R1390M
551.799	0.916	557631	WORD_OFF	n/a	n/a	GORILLA	Zoo	4	5	[0, 0, 0]	n/a	catFR1	2	R1390M
552.715	1.617	558550	WORD	n/a	wordpools/wordpool_categorized_EN.txt	THUNDER	Weather	5	5	[0, 0, 0]	n/a	catFR1	2	R1390M
554.332	0.883	560167	WORD_OFF	n/a	n/a	THUNDER	Weather	5	5	[0, 0, 0]	n/a	catFR1	2	R1390M
555.215	1.617	561048	WORD	n/a	wordpools/wordpool_categorized_EN.txt	SNOW	Weather	6	5	[0, 0, 0]	n/a	catFR1	2	R1390M
556.832	0.799	562665	WORD_OFF	n/a	n/a	SNOW	Weather	6	5	[0, 0, 0]	n/a	catFR1	2	R1390M
557.631	1.601	563455	WORD	n/a	wordpools/wordpool_categorized_EN.txt	ROSE	Flowers	7	5	[0, 0, 0]	n/a	catFR1	2	R1390M
559.232	1.0	565071	WORD_OFF	n/a	n/a	ROSE	Flowers	7	5	[0, 0, 0]	n/a	catFR1	2	R1390M
560.232	1.6	566063	WORD	n/a	wordpools/wordpool_categorized_EN.txt	DAISY	Flowers	8	5	[0, 0, 0]	n/a	catFR1	2	R1390M
561.832	0.966	567662	WORD_OFF	n/a	n/a	DAISY	Flowers	8	5	[0, 0, 0]	n/a	catFR1	2	R1390M
562.798	1.617	568635	WORD	n/a	wordpools/wordpool_categorized_EN.txt	FOG	Weather	9	5	[0, 0, 0]	n/a	catFR1	2	R1390M
564.415	0.967	570252	WORD_OFF	n/a	n/a	FOG	Weather	9	5	[0, 0, 0]	n/a	catFR1	2	R1390M
565.382	1.616	571207	WORD	n/a	wordpools/wordpool_categorized_EN.txt	HUMIDITY	Weather	10	5	[0, 0, 0]	n/a	catFR1	2	R1390M
566.998	0.966	572824	WORD_OFF	n/a	n/a	HUMIDITY	Weather	10	5	[0, 0, 0]	n/a	catFR1	2	R1390M
567.964	1.601	573797	WORD	n/a	wordpools/wordpool_categorized_EN.txt	CHIMPANZEE	Zoo	11	5	[0, 0, 0]	n/a	catFR1	2	R1390M
569.565	0.883	575396	WORD_OFF	n/a	n/a	CHIMPANZEE	Zoo	11	5	[0, 0, 0]	n/a	catFR1	2	R1390M
570.448	1.6	576277	WORD	n/a	wordpools/wordpool_categorized_EN.txt	ORANGUTAN	Zoo	12	5	[0, 0, 0]	n/a	catFR1	2	R1390M
572.048	0.002	577876	WORD_OFF	n/a	n/a	ORANGUTAN	Zoo	12	5	[0, 0, 0]	n/a	catFR1	2	R1390M
572.05	0.0	577876	ENCODING_END	n/a	n/a	n/a	n/a	-999	5	[0, 0, 0]	n/a	catFR1	2	R1390M
572.05	0.0	577876	DISTRACT_START	n/a	n/a	n/a	n/a	-999	5	[0, 0, 0]	n/a	catFR1	2	R1390M
572.049	0.001	577879	PROB	3.749	n/a	n/a	n/a	-999	5	[3, 1, 3]	7.0	catFR1	2	R1390M
572.05	3.766	577880	START	n/a	n/a	n/a	n/a	-999	5	[-999, -999, -999]	n/a	catFR1	2	R1390M
575.816	3.966	581645	PROB	3.949	n/a	n/a	n/a	-999	5	[5, 6, 3]	14.0	catFR1	2	R1390M
579.782	4.767	585611	PROB	4.749	n/a	n/a	n/a	-999	5	[5, 6, 3]	14.0	catFR1	2	R1390M
584.549	7.049	590378	PROB	7.033	n/a	n/a	n/a	-999	5	[1, 7, 6]	14.0	catFR1	2	R1390M
591.598	4.485	597427	PROB	4.468	n/a	n/a	n/a	-999	5	[4, 2, 6]	12.0	catFR1	2	R1390M
596.083	0.0	601904	DISTRACT_END	n/a	n/a	n/a	n/a	-999	5	[0, 0, 0]	n/a	catFR1	2	R1390M
596.083	1.4	601911	STOP	n/a	n/a	n/a	n/a	-999	5	[-999, -999, -999]	n/a	catFR1	2	R1390M
597.483	2.292	603318	REC_START	n/a	n/a	n/a	n/a	-999	5	[0, 0, 0]	n/a	catFR1	2	R1390M
599.775	3.511	605603	REC_WORD	2.292	n/a	ORCHID	Flowers	2	5	[0, 0, 0]	n/a	catFR1	2	R1390M
603.286	1.182	609114	REC_WORD	5.803	n/a	PANDA	Zoo	3	5	[0, 0, 0]	n/a	catFR1	2	R1390M
604.468	8.32	610296	REC_WORD	6.985	n/a	GORILLA	Zoo	4	5	[0, 0, 0]	n/a	catFR1	2	R1390M
612.788	0.654	618616	REC_WORD	15.305	n/a	DAISY	Flowers	8	5	[0, 0, 0]	n/a	catFR1	2	R1390M
613.442	12.967	619269	REC_WORD	15.959	n/a	ROSE	Flowers	7	5	[0, 0, 0]	n/a	catFR1	2	R1390M
626.409	1.343	632236	REC_WORD	28.926	n/a	CHIMPANZEE	Zoo	11	5	[0, 0, 0]	n/a	catFR1	2	R1390M
627.752	10.213	633574	REC_END	n/a	n/a	n/a	n/a	-999	5	[0, 0, 0]	n/a	catFR1	2	R1390M
637.965	6.167	643788	COUNTDOWN_START	n/a	n/a	n/a	n/a	-999	6	[0, 0, 0]	n/a	catFR1	2	R1390M
644.132	0.0	649961	COUNTDOWN_END	n/a	n/a	n/a	n/a	-999	6	[0, 0, 0]	n/a	catFR1	2	R1390M
644.132	2.249	649961	ENCODING_START	n/a	n/a	n/a	n/a	-999	6	[0, 0, 0]	n/a	catFR1	2	R1390M
646.381	1.617	652202	WORD	n/a	wordpools/wordpool_categorized_EN.txt	ORGAN	Instruments	1	6	[0, 0, 0]	n/a	catFR1	2	R1390M
647.998	0.8	653819	WORD_OFF	n/a	n/a	ORGAN	Instruments	1	6	[0, 0, 0]	n/a	catFR1	2	R1390M
648.798	1.617	654627	WORD	n/a	wordpools/wordpool_categorized_EN.txt	BANJO	Instruments	2	6	[0, 0, 0]	n/a	catFR1	2	R1390M
650.415	0.85	656244	WORD_OFF	n/a	n/a	BANJO	Instruments	2	6	[0, 0, 0]	n/a	catFR1	2	R1390M
651.265	1.616	657089	WORD	n/a	wordpools/wordpool_categorized_EN.txt	CRAB	Oceananimals	3	6	[0, 0, 0]	n/a	catFR1	2	R1390M
652.881	0.767	658705	WORD_OFF	n/a	n/a	CRAB	Oceananimals	3	6	[0, 0, 0]	n/a	catFR1	2	R1390M
653.648	1.6	659477	WORD	n/a	wordpools/wordpool_categorized_EN.txt	TURTLE	Oceananimals	4	6	[0, 0, 0]	n/a	catFR1	2	R1390M
655.248	0.966	661075	WORD_OFF	n/a	n/a	TURTLE	Oceananimals	4	6	[0, 0, 0]	n/a	catFR1	2	R1390M
656.214	1.601	662048	WORD	n/a	wordpools/wordpool_categorized_EN.txt	FLY	Insects	5	6	[0, 0, 0]	n/a	catFR1	2	R1390M
657.815	1.0	663647	WORD_OFF	n/a	n/a	FLY	Insects	5	6	[0, 0, 0]	n/a	catFR1	2	R1390M
658.815	1.616	664639	WORD	n/a	wordpools/wordpool_categorized_EN.txt	ROACH	Insects	6	6	[0, 0, 0]	n/a	catFR1	2	R1390M
660.431	0.834	666255	WORD_OFF	n/a	n/a	ROACH	Insects	6	6	[0, 0, 0]	n/a	catFR1	2	R1390M
661.265	1.616	667082	WORD	n/a	wordpools/wordpool_categorized_EN.txt	LOBSTER	Oceananimals	7	6	[0, 0, 0]	n/a	catFR1	2	R1390M
662.881	0.967	668699	WORD_OFF	n/a	n/a	LOBSTER	Oceananimals	7	6	[0, 0, 0]	n/a	catFR1	2	R1390M
663.848	1.616	669672	WORD	n/a	wordpools/wordpool_categorized_EN.txt	SHRIMP	Oceananimals	8	6	[0, 0, 0]	n/a	catFR1	2	R1390M
665.464	0.883	671289	WORD_OFF	n/a	n/a	SHRIMP	Oceananimals	8	6	[0, 0, 0]	n/a	catFR1	2	R1390M
666.347	1.601	672171	WORD	n/a	wordpools/wordpool_categorized_EN.txt	ANT	Insects	9	6	[0, 0, 0]	n/a	catFR1	2	R1390M
667.948	0.8	673769	WORD_OFF	n/a	n/a	ANT	Insects	9	6	[0, 0, 0]	n/a	catFR1	2	R1390M
668.748	1.6	674577	WORD	n/a	wordpools/wordpool_categorized_EN.txt	MOSQUITO	Insects	10	6	[0, 0, 0]	n/a	catFR1	2	R1390M
670.348	0.966	676175	WORD_OFF	n/a	n/a	MOSQUITO	Insects	10	6	[0, 0, 0]	n/a	catFR1	2	R1390M
671.314	1.6	677131	WORD	n/a	wordpools/wordpool_categorized_EN.txt	TUBA	Instruments	11	6	[0, 0, 0]	n/a	catFR1	2	R1390M
672.914	0.817	678747	WORD_OFF	n/a	n/a	TUBA	Instruments	11	6	[0, 0, 0]	n/a	catFR1	2	R1390M
673.731	1.601	679555	WORD	n/a	wordpools/wordpool_categorized_EN.txt	TROMBONE	Instruments	12	6	[0, 0, 0]	n/a	catFR1	2	R1390M
675.332	0.001	681154	WORD_OFF	n/a	n/a	TROMBONE	Instruments	12	6	[0, 0, 0]	n/a	catFR1	2	R1390M
675.333	0.001	681154	ENCODING_END	n/a	n/a	n/a	n/a	-999	6	[0, 0, 0]	n/a	catFR1	2	R1390M
675.334	0.0	681154	DISTRACT_START	n/a	n/a	n/a	n/a	-999	6	[0, 0, 0]	n/a	catFR1	2	R1390M
675.333	0.001	681157	PROB	4.866	n/a	n/a	n/a	-999	6	[2, 7, 8]	17.0	catFR1	2	R1390M
675.334	4.882	681158	START	n/a	n/a	n/a	n/a	-999	6	[-999, -999, -999]	n/a	catFR1	2	R1390M
680.216	5.949	686040	PROB	5.932	n/a	n/a	n/a	-999	6	[3, 2, 6]	11.0	catFR1	2	R1390M
686.165	4.567	691989	PROB	4.55	n/a	n/a	n/a	-999	6	[6, 7, 8]	21.0	catFR1	2	R1390M
690.732	4.217	696556	PROB	4.199	n/a	n/a	n/a	-999	6	[2, 5, 8]	15.0	catFR1	2	R1390M
694.949	6.383	700772	PROB	6.366	n/a	n/a	n/a	-999	6	[8, 8, 6]	22.0	catFR1	2	R1390M
701.332	0.0	707148	DISTRACT_END	n/a	n/a	n/a	n/a	-999	6	[0, 0, 0]	n/a	catFR1	2	R1390M
701.332	1.333	707155	STOP	n/a	n/a	n/a	n/a	-999	6	[-999, -999, -999]	n/a	catFR1	2	R1390M
702.665	3.649	708489	REC_START	n/a	n/a	n/a	n/a	-999	6	[0, 0, 0]	n/a	catFR1	2	R1390M
706.314	0.581	712137	REC_WORD	3.649	n/a	TUBA	Instruments	11	6	[0, 0, 0]	n/a	catFR1	2	R1390M
706.895	15.048	712718	REC_WORD	4.23	n/a	TROMBONE	Instruments	12	6	[0, 0, 0]	n/a	catFR1	2	R1390M
721.943	10.987	727765	REC_WORD_VV	19.278	n/a	<>	n/a	-999	6	[0, 0, 0]	n/a	catFR1	2	R1390M
732.93	13.086	738745	REC_END	n/a	n/a	n/a	n/a	-999	6	[0, 0, 0]	n/a	catFR1	2	R1390M
746.016	5.749	751843	COUNTDOWN_START	n/a	n/a	n/a	n/a	-999	7	[0, 0, 0]	n/a	catFR1	2	R1390M
751.765	0.0	757593	COUNTDOWN_END	n/a	n/a	n/a	n/a	-999	7	[0, 0, 0]	n/a	catFR1	2	R1390M
751.765	2.049	757593	ENCODING_START	n/a	n/a	n/a	n/a	-999	7	[0, 0, 0]	n/a	catFR1	2	R1390M
753.814	1.6	759632	WORD	n/a	wordpools/wordpool_categorized_EN.txt	ELEPHANT	Zoo	1	7	[0, 0, 0]	n/a	catFR1	2	R1390M
755.414	0.833	761230	WORD_OFF	n/a	n/a	ELEPHANT	Zoo	1	7	[0, 0, 0]	n/a	catFR1	2	R1390M
756.247	1.601	762075	WORD	n/a	wordpools/wordpool_categorized_EN.txt	GIRAFFE	Zoo	2	7	[0, 0, 0]	n/a	catFR1	2	R1390M
757.848	0.8	763673	WORD_OFF	n/a	n/a	GIRAFFE	Zoo	2	7	[0, 0, 0]	n/a	catFR1	2	R1390M
758.648	1.6	764463	WORD	n/a	wordpools/wordpool_categorized_EN.txt	BASS	Instruments	3	7	[0, 0, 0]	n/a	catFR1	2	R1390M
760.248	0.801	766061	WORD_OFF	n/a	n/a	BASS	Instruments	3	7	[0, 0, 0]	n/a	catFR1	2	R1390M
761.049	1.6	766870	WORD	n/a	wordpools/wordpool_categorized_EN.txt	PIANO	Instruments	4	7	[0, 0, 0]	n/a	catFR1	2	R1390M
762.649	0.867	768468	WORD_OFF	n/a	n/a	PIANO	Instruments	4	7	[0, 0, 0]	n/a	catFR1	2	R1390M
763.516	1.616	769331	WORD	n/a	wordpools/wordpool_categorized_EN.txt	SPOON	Kitchentools	5	7	[0, 0, 0]	n/a	catFR1	2	R1390M
765.132	0.816	770948	WORD_OFF	n/a	n/a	SPOON	Kitchentools	5	7	[0, 0, 0]	n/a	catFR1	2	R1390M
765.948	1.617	771775	WORD	n/a	wordpools/wordpool_categorized_EN.txt	KNIFE	Kitchentools	6	7	[0, 0, 0]	n/a	catFR1	2	R1390M
767.565	0.917	773391	WORD_OFF	n/a	n/a	KNIFE	Kitchentools	6	7	[0, 0, 0]	n/a	catFR1	2	R1390M
768.482	1.616	774310	WORD	n/a	wordpools/wordpool_categorized_EN.txt	TIGER	Zoo	7	7	[0, 0, 0]	n/a	catFR1	2	R1390M
770.098	0.817	775926	WORD_OFF	n/a	n/a	TIGER	Zoo	7	7	[0, 0, 0]	n/a	catFR1	2	R1390M
770.915	1.617	776735	WORD	n/a	wordpools/wordpool_categorized_EN.txt	MONKEY	Zoo	8	7	[0, 0, 0]	n/a	catFR1	2	R1390M
772.532	0.916	778351	WORD_OFF	n/a	n/a	MONKEY	Zoo	8	7	[0, 0, 0]	n/a	catFR1	2	R1390M
773.448	1.617	779270	WORD	n/a	wordpools/wordpool_categorized_EN.txt	COLANDER	Kitchentools	9	7	[0, 0, 0]	n/a	catFR1	2	R1390M
775.065	0.767	780886	WORD_OFF	n/a	n/a	COLANDER	Kitchentools	9	7	[0, 0, 0]	n/a	catFR1	2	R1390M
775.832	1.617	781658	WORD	n/a	wordpools/wordpool_categorized_EN.txt	WHISK	Kitchentools	10	7	[0, 0, 0]	n/a	catFR1	2	R1390M
777.449	0.966	783274	WORD_OFF	n/a	n/a	WHISK	Kitchentools	10	7	[0, 0, 0]	n/a	catFR1	2	R1390M
778.415	1.6	784230	WORD	n/a	wordpools/wordpool_categorized_EN.txt	VIOLIN	Instruments	11	7	[0, 0, 0]	n/a	catFR1	2	R1390M
780.015	0.783	785828	WORD_OFF	n/a	n/a	VIOLIN	Instruments	11	7	[0, 0, 0]	n/a	catFR1	2	R1390M
780.798	1.6	786618	WORD	n/a	wordpools/wordpool_categorized_EN.txt	CELLO	Instruments	12	7	[0, 0, 0]	n/a	catFR1	2	R1390M
782.398	0.002	788216	WORD_OFF	n/a	n/a	CELLO	Instruments	12	7	[0, 0, 0]	n/a	catFR1	2	R1390M
782.4	0.0	788216	ENCODING_END	n/a	n/a	n/a	n/a	-999	7	[0, 0, 0]	n/a	catFR1	2	R1390M
782.4	0.0	788216	DISTRACT_START	n/a	n/a	n/a	n/a	-999	7	[0, 0, 0]	n/a	catFR1	2	R1390M
782.399	0.001	788218	PROB	3.866	n/a	n/a	n/a	-999	7	[2, 1, 3]	6.0	catFR1	2	R1390M
782.4	3.883	788219	START	n/a	n/a	n/a	n/a	-999	7	[-999, -999, -999]	n/a	catFR1	2	R1390M
786.283	8.633	792102	PROB	8.616	n/a	n/a	n/a	-999	7	[7, 4, 3]	14.0	catFR1	2	R1390M
794.916	4.416	800734	PROB	4.399	n/a	n/a	n/a	-999	7	[4, 8, 3]	15.0	catFR1	2	R1390M
799.332	3.5	805150	PROB	3.483	n/a	n/a	n/a	-999	7	[4, 1, 1]	6.0	catFR1	2	R1390M
802.832	0.0	808644	DISTRACT_END	n/a	n/a	n/a	n/a	-999	7	[0, 0, 0]	n/a	catFR1	2	R1390M
802.832	1.3	808650	STOP	n/a	n/a	n/a	n/a	-999	7	[-999, -999, -999]	n/a	catFR1	2	R1390M
804.132	3.018	809948	REC_START	n/a	n/a	n/a	n/a	-999	7	[0, 0, 0]	n/a	catFR1	2	R1390M
807.15	0.754	812968	REC_WORD	3.018	n/a	CELLO	Instruments	12	7	[0, 0, 0]	n/a	catFR1	2	R1390M
807.904	7.095	813722	REC_WORD	3.772	n/a	VIOLIN	Instruments	11	7	[0, 0, 0]	n/a	catFR1	2	R1390M
814.999	1.065	820816	REC_WORD	10.867	n/a	COLANDER	Kitchentools	9	7	[0, 0, 0]	n/a	catFR1	2	R1390M
816.064	5.788	821881	REC_WORD	11.932	n/a	WHISK	Kitchentools	10	7	[0, 0, 0]	n/a	catFR1	2	R1390M
821.852	1.811	827669	REC_WORD	17.72	n/a	TIGER	Zoo	7	7	[0, 0, 0]	n/a	catFR1	2	R1390M
823.663	0.917	829480	REC_WORD	19.531	n/a	KNIFE	Kitchentools	6	7	[0, 0, 0]	n/a	catFR1	2	R1390M
824.58	9.824	830397	REC_WORD	20.448	n/a	SPOON	Kitchentools	5	7	[0, 0, 0]	n/a	catFR1	2	R1390M
834.404	7.377	840223	REC_END	n/a	n/a	n/a	n/a	-999	7	[0, 0, 0]	n/a	catFR1	2	R1390M
841.781	7.101	847607	COUNTDOWN_START	n/a	n/a	n/a	n/a	-999	8	[0, 0, 0]	n/a	catFR1	2	R1390M
848.882	0.001	854698	COUNTDOWN_END	n/a	n/a	n/a	n/a	-999	8	[0, 0, 0]	n/a	catFR1	2	R1390M
848.883	2.149	854698	ENCODING_START	n/a	n/a	n/a	n/a	-999	8	[0, 0, 0]	n/a	catFR1	2	R1390M
851.032	1.6	856848	WORD	n/a	wordpools/wordpool_categorized_EN.txt	GRAPE	Fruit	1	8	[0, 0, 0]	n/a	catFR1	2	R1390M
852.632	0.866	858446	WORD_OFF	n/a	n/a	GRAPE	Fruit	1	8	[0, 0, 0]	n/a	catFR1	2	R1390M
853.498	1.617	859309	WORD	n/a	wordpools/wordpool_categorized_EN.txt	ORANGE	Fruit	2	8	[0, 0, 0]	n/a	catFR1	2	R1390M
855.115	0.967	860926	WORD_OFF	n/a	n/a	ORANGE	Fruit	2	8	[0, 0, 0]	n/a	catFR1	2	R1390M
856.082	1.6	861900	WORD	n/a	wordpools/wordpool_categorized_EN.txt	EYE	Bodyparts	3	8	[0, 0, 0]	n/a	catFR1	2	R1390M
857.682	0.766	863498	WORD_OFF	n/a	n/a	EYE	Bodyparts	3	8	[0, 0, 0]	n/a	catFR1	2	R1390M
858.448	1.617	864269	WORD	n/a	wordpools/wordpool_categorized_EN.txt	TOE	Bodyparts	4	8	[0, 0, 0]	n/a	catFR1	2	R1390M
860.065	0.783	865886	WORD_OFF	n/a	n/a	TOE	Bodyparts	4	8	[0, 0, 0]	n/a	catFR1	2	R1390M
860.848	1.617	866657	WORD	n/a	wordpools/wordpool_categorized_EN.txt	ERASER	Officesupplies	5	8	[0, 0, 0]	n/a	catFR1	2	R1390M
862.465	0.834	868274	WORD_OFF	n/a	n/a	ERASER	Officesupplies	5	8	[0, 0, 0]	n/a	catFR1	2	R1390M
863.299	1.6	869119	WORD	n/a	wordpools/wordpool_categorized_EN.txt	PENCIL	Officesupplies	6	8	[0, 0, 0]	n/a	catFR1	2	R1390M
864.899	0.966	870717	WORD_OFF	n/a	n/a	PENCIL	Officesupplies	6	8	[0, 0, 0]	n/a	catFR1	2	R1390M
865.865	1.6	871673	WORD	n/a	wordpools/wordpool_categorized_EN.txt	CHERRY	Fruit	7	8	[0, 0, 0]	n/a	catFR1	2	R1390M
867.465	0.767	873289	WORD_OFF	n/a	n/a	CHERRY	Fruit	7	8	[0, 0, 0]	n/a	catFR1	2	R1390M
868.232	1.6	874042	WORD	n/a	wordpools/wordpool_categorized_EN.txt	PEAR	Fruit	8	8	[0, 0, 0]	n/a	catFR1	2	R1390M
869.832	1.0	875641	WORD_OFF	n/a	n/a	PEAR	Fruit	8	8	[0, 0, 0]	n/a	catFR1	2	R1390M
870.832	1.6	876651	WORD	n/a	wordpools/wordpool_categorized_EN.txt	EAR	Bodyparts	9	8	[0, 0, 0]	n/a	catFR1	2	R1390M
872.432	0.85	878249	WORD_OFF	n/a	n/a	EAR	Bodyparts	9	8	[0, 0, 0]	n/a	catFR1	2	R1390M
873.282	1.6	879094	WORD	n/a	wordpools/wordpool_categorized_EN.txt	FINGERS	Bodyparts	10	8	[0, 0, 0]	n/a	catFR1	2	R1390M
874.882	0.833	880692	WORD_OFF	n/a	n/a	FINGERS	Bodyparts	10	8	[0, 0, 0]	n/a	catFR1	2	R1390M
875.715	1.6	881537	WORD	n/a	wordpools/wordpool_categorized_EN.txt	FOLDER	Officesupplies	11	8	[0, 0, 0]	n/a	catFR1	2	R1390M
877.315	0.766	883136	WORD_OFF	n/a	n/a	FOLDER	Officesupplies	11	8	[0, 0, 0]	n/a	catFR1	2	R1390M
878.081	1.6	883889	WORD	n/a	wordpools/wordpool_categorized_EN.txt	GLUE	Officesupplies	12	8	[0, 0, 0]	n/a	catFR1	2	R1390M
879.681	0.0	885487	WORD_OFF	n/a	n/a	GLUE	Officesupplies	12	8	[0, 0, 0]	n/a	catFR1	2	R1390M
879.681	0.008	885495	PROB	5.767	n/a	n/a	n/a	-999	8	[6, 8, 4]	18.0	catFR1	2	R1390M
879.689	0.0	885503	START	n/a	n/a	n/a	n/a	-999	8	[-999, -999, -999]	n/a	catFR1	2	R1390M
879.689	0.0	885505	ENCODING_END	n/a	n/a	n/a	n/a	-999	8	[0, 0, 0]	n/a	catFR1	2	R1390M
879.689	5.777	885505	DISTRACT_START	n/a	n/a	n/a	n/a	-999	8	[0, 0, 0]	n/a	catFR1	2	R1390M
885.466	4.033	891280	PROB	4.016	n/a	n/a	n/a	-999	8	[7, 5, 5]	17.0	catFR1	2	R1390M
889.499	5.067	895313	PROB	5.049	n/a	n/a	n/a	-999	8	[3, 2, 2]	7.0	catFR1	2	R1390M
894.566	4.483	900380	PROB	4.466	n/a	n/a	n/a	-999	8	[2, 2, 3]	7.0	catFR1	2	R1390M
899.049	5.416	904862	PROB	5.399	n/a	n/a	n/a	-999	8	[3, 5, 4]	12.0	catFR1	2	R1390M
904.465	0.0	910269	DISTRACT_END	n/a	n/a	n/a	n/a	-999	8	[0, 0, 0]	n/a	catFR1	2	R1390M
904.465	1.316	910278	STOP	n/a	n/a	n/a	n/a	-999	8	[-999, -999, -999]	n/a	catFR1	2	R1390M
905.781	2.175	911591	REC_START	n/a	n/a	n/a	n/a	-999	8	[0, 0, 0]	n/a	catFR1	2	R1390M
907.956	1.569	913769	REC_WORD	2.175	n/a	TOE	Bodyparts	4	8	[0, 0, 0]	n/a	catFR1	2	R1390M
909.525	2.486	915338	REC_WORD	3.744	n/a	FINGERS	Bodyparts	10	8	[0, 0, 0]	n/a	catFR1	2	R1390M
912.011	1.883	917824	REC_WORD	6.23	n/a	EAR	Bodyparts	9	8	[0, 0, 0]	n/a	catFR1	2	R1390M
913.894	0.974	919707	REC_WORD	8.113	n/a	GRAPE	Fruit	1	8	[0, 0, 0]	n/a	catFR1	2	R1390M
914.868	4.813	920681	REC_WORD	9.087	n/a	CHERRY	Fruit	7	8	[0, 0, 0]	n/a	catFR1	2	R1390M
919.681	16.368	925493	REC_WORD	13.9	n/a	PEAR	Fruit	8	8	[0, 0, 0]	n/a	catFR1	2	R1390M
936.049	7.016	941866	REC_END	n/a	n/a	n/a	n/a	-999	8	[0, 0, 0]	n/a	catFR1	2	R1390M
943.065	5.067	948883	COUNTDOWN_START	n/a	n/a	n/a	n/a	-999	9	[0, 0, 0]	n/a	catFR1	2	R1390M
948.132	0.001	953935	COUNTDOWN_END	n/a	n/a	n/a	n/a	-999	9	[0, 0, 0]	n/a	catFR1	2	R1390M
948.133	2.298	953953	ENCODING_START	n/a	n/a	n/a	n/a	-999	9	[0, 0, 0]	n/a	catFR1	2	R1390M
950.431	1.601	956250	WORD	n/a	wordpools/wordpool_categorized_EN.txt	PEELER	Kitchentools	1	9	[0, 0, 0]	n/a	catFR1	2	R1390M
952.032	0.95	957848	WORD_OFF	n/a	n/a	PEELER	Kitchentools	1	9	[0, 0, 0]	n/a	catFR1	2	R1390M
952.982	1.6	958785	WORD	n/a	wordpools/wordpool_categorized_EN.txt	FORK	Kitchentools	2	9	[0, 0, 0]	n/a	catFR1	2	R1390M
954.582	0.833	960401	WORD_OFF	n/a	n/a	FORK	Kitchentools	2	9	[0, 0, 0]	n/a	catFR1	2	R1390M
955.415	1.617	961228	WORD	n/a	wordpools/wordpool_categorized_EN.txt	MOTH	Insects	3	9	[0, 0, 0]	n/a	catFR1	2	R1390M
957.032	0.95	962845	WORD_OFF	n/a	n/a	MOTH	Insects	3	9	[0, 0, 0]	n/a	catFR1	2	R1390M
957.982	1.6	963800	WORD	n/a	wordpools/wordpool_categorized_EN.txt	CRICKET	Insects	4	9	[0, 0, 0]	n/a	catFR1	2	R1390M
959.582	0.833	965398	WORD_OFF	n/a	n/a	CRICKET	Insects	4	9	[0, 0, 0]	n/a	catFR1	2	R1390M
960.415	1.617	966225	WORD	n/a	wordpools/wordpool_categorized_EN.txt	TOASTER	Appliances	5	9	[0, 0, 0]	n/a	catFR1	2	R1390M
962.032	0.833	967841	WORD_OFF	n/a	n/a	TOASTER	Appliances	5	9	[0, 0, 0]	n/a	catFR1	2	R1390M
962.865	1.617	968668	WORD	n/a	wordpools/wordpool_categorized_EN.txt	DISHWASHER	Appliances	6	9	[0, 0, 0]	n/a	catFR1	2	R1390M
964.482	1.0	970285	WORD_OFF	n/a	n/a	DISHWASHER	Appliances	6	9	[0, 0, 0]	n/a	catFR1	2	R1390M
965.482	1.616	971295	WORD	n/a	wordpools/wordpool_categorized_EN.txt	BUTTERFLY	Insects	7	9	[0, 0, 0]	n/a	catFR1	2	R1390M
967.098	0.867	972912	WORD_OFF	n/a	n/a	BUTTERFLY	Insects	7	9	[0, 0, 0]	n/a	catFR1	2	R1390M
967.965	1.6	973775	WORD	n/a	wordpools/wordpool_categorized_EN.txt	BEETLE	Insects	8	9	[0, 0, 0]	n/a	catFR1	2	R1390M
969.565	0.833	975373	WORD_OFF	n/a	n/a	BEETLE	Insects	8	9	[0, 0, 0]	n/a	catFR1	2	R1390M
970.398	1.6	976200	WORD	n/a	wordpools/wordpool_categorized_EN.txt	TONGS	Kitchentools	9	9	[0, 0, 0]	n/a	catFR1	2	R1390M
971.998	0.917	977816	WORD_OFF	n/a	n/a	TONGS	Kitchentools	9	9	[0, 0, 0]	n/a	catFR1	2	R1390M
972.915	1.601	978717	WORD	n/a	wordpools/wordpool_categorized_EN.txt	SPATULA	Kitchentools	10	9	[0, 0, 0]	n/a	catFR1	2	R1390M
974.516	0.882	980333	WORD_OFF	n/a	n/a	SPATULA	Kitchentools	10	9	[0, 0, 0]	n/a	catFR1	2	R1390M
975.398	1.6	981215	WORD	n/a	wordpools/wordpool_categorized_EN.txt	FREEZER	Appliances	11	9	[0, 0, 0]	n/a	catFR1	2	R1390M
976.998	0.884	982813	WORD_OFF	n/a	n/a	FREEZER	Appliances	11	9	[0, 0, 0]	n/a	catFR1	2	R1390M
977.882	1.6	983695	WORD	n/a	wordpools/wordpool_categorized_EN.txt	BLENDER	Appliances	12	9	[0, 0, 0]	n/a	catFR1	2	R1390M
979.482	0.001	985291	PROB	6.249	n/a	n/a	n/a	-999	9	[6, 7, 6]	19.0	catFR1	2	R1390M
979.483	0.0	985292	START	n/a	n/a	n/a	n/a	-999	9	[-999, -999, -999]	n/a	catFR1	2	R1390M
979.482	0.001	985293	WORD_OFF	n/a	n/a	BLENDER	Appliances	12	9	[0, 0, 0]	n/a	catFR1	2	R1390M
979.483	0.0	985293	ENCODING_END	n/a	n/a	n/a	n/a	-999	9	[0, 0, 0]	n/a	catFR1	2	R1390M
979.483	6.265	985293	DISTRACT_START	n/a	n/a	n/a	n/a	-999	9	[0, 0, 0]	n/a	catFR1	2	R1390M
985.748	3.951	991557	PROB	3.933	n/a	n/a	n/a	-999	9	[5, 4, 2]	11.0	catFR1	2	R1390M
989.699	3.916	995508	PROB	3.899	n/a	n/a	n/a	-999	9	[7, 5, 5]	17.0	catFR1	2	R1390M
993.615	4.334	999424	PROB	4.316	n/a	n/a	n/a	-999	9	[7, 4, 5]	16.0	catFR1	2	R1390M
997.949	4.915	1003757	PROB	4.899	n/a	n/a	n/a	-999	9	[5, 7, 8]	20.0	catFR1	2	R1390M
1002.864	0.0	1008672	STOP	n/a	n/a	n/a	n/a	-999	9	[-999, -999, -999]	n/a	catFR1	2	R1390M
1002.864	1.4	1008679	DISTRACT_END	n/a	n/a	n/a	n/a	-999	9	[0, 0, 0]	n/a	catFR1	2	R1390M
1004.264	2.092	1010075	REC_START	n/a	n/a	n/a	n/a	-999	9	[0, 0, 0]	n/a	catFR1	2	R1390M
1006.356	0.886	1012164	REC_WORD	2.092	n/a	DISHWASHER	Appliances	6	9	[0, 0, 0]	n/a	catFR1	2	R1390M
1007.242	1.925	1013050	REC_WORD	2.978	n/a	TOASTER	Appliances	5	9	[0, 0, 0]	n/a	catFR1	2	R1390M
1009.167	14.886	1014975	REC_WORD	4.903	n/a	SPATULA	Kitchentools	10	9	[0, 0, 0]	n/a	catFR1	2	R1390M
1024.053	10.478	1029860	REC_WORD	19.789	n/a	GRATER	Kitchentools	-999	9	[0, 0, 0]	n/a	catFR1	2	R1390M
1034.531	10.084	1040331	REC_END	n/a	n/a	n/a	n/a	-999	9	[0, 0, 0]	n/a	catFR1	2	R1390M
1044.615	6.867	1050416	COUNTDOWN_START	n/a	n/a	n/a	n/a	-999	10	[0, 0, 0]	n/a	catFR1	2	R1390M
1051.482	0.001	1057287	COUNTDOWN_END	n/a	n/a	n/a	n/a	-999	10	[0, 0, 0]	n/a	catFR1	2	R1390M
1051.483	2.015	1057287	ENCODING_START	n/a	n/a	n/a	n/a	-999	10	[0, 0, 0]	n/a	catFR1	2	R1390M
1053.498	1.6	1059307	WORD	n/a	wordpools/wordpool_categorized_EN.txt	ATTIC	Building	1	10	[0, 0, 0]	n/a	catFR1	2	R1390M
1055.098	0.8	1060906	WORD_OFF	n/a	n/a	ATTIC	Building	1	10	[0, 0, 0]	n/a	catFR1	2	R1390M
1055.898	1.6	1061695	WORD	n/a	wordpools/wordpool_categorized_EN.txt	HALLWAY	Building	2	10	[0, 0, 0]	n/a	catFR1	2	R1390M
1057.498	0.784	1063312	WORD_OFF	n/a	n/a	HALLWAY	Building	2	10	[0, 0, 0]	n/a	catFR1	2	R1390M
1058.282	1.6	1064084	WORD	n/a	wordpools/wordpool_categorized_EN.txt	JUICE	Beverages	3	10	[0, 0, 0]	n/a	catFR1	2	R1390M
1059.882	0.783	1065682	WORD_OFF	n/a	n/a	JUICE	Beverages	3	10	[0, 0, 0]	n/a	catFR1	2	R1390M
1060.665	1.617	1066472	WORD	n/a	wordpools/wordpool_categorized_EN.txt	WATER	Beverages	4	10	[0, 0, 0]	n/a	catFR1	2	R1390M
1062.282	0.883	1068088	WORD_OFF	n/a	n/a	WATER	Beverages	4	10	[0, 0, 0]	n/a	catFR1	2	R1390M
1063.165	1.6	1068970	WORD	n/a	wordpools/wordpool_categorized_EN.txt	SPIDER	Insects	5	10	[0, 0, 0]	n/a	catFR1	2	R1390M
1064.765	0.999	1070568	WORD_OFF	n/a	n/a	SPIDER	Insects	5	10	[0, 0, 0]	n/a	catFR1	2	R1390M
1065.764	1.601	1071560	WORD	n/a	wordpools/wordpool_categorized_EN.txt	LADYBUG	Insects	6	10	[0, 0, 0]	n/a	catFR1	2	R1390M
1067.365	0.9	1073177	WORD_OFF	n/a	n/a	LADYBUG	Insects	6	10	[0, 0, 0]	n/a	catFR1	2	R1390M
1068.265	1.616	1074077	WORD	n/a	wordpools/wordpool_categorized_EN.txt	CIDER	Beverages	7	10	[0, 0, 0]	n/a	catFR1	2	R1390M
1069.881	0.85	1075694	WORD_OFF	n/a	n/a	CIDER	Beverages	7	10	[0, 0, 0]	n/a	catFR1	2	R1390M
1070.731	1.6	1076539	WORD	n/a	wordpools/wordpool_categorized_EN.txt	LEMONADE	Beverages	8	10	[0, 0, 0]	n/a	catFR1	2	R1390M
1072.331	0.984	1078137	WORD_OFF	n/a	n/a	LEMONADE	Beverages	8	10	[0, 0, 0]	n/a	catFR1	2	R1390M
1073.315	1.6	1079111	WORD	n/a	wordpools/wordpool_categorized_EN.txt	GNAT	Insects	9	10	[0, 0, 0]	n/a	catFR1	2	R1390M
1074.915	0.983	1080727	WORD_OFF	n/a	n/a	GNAT	Insects	9	10	[0, 0, 0]	n/a	catFR1	2	R1390M
1075.898	1.6	1081701	WORD	n/a	wordpools/wordpool_categorized_EN.txt	BEE	Insects	10	10	[0, 0, 0]	n/a	catFR1	2	R1390M
1077.498	0.916	1083299	WORD_OFF	n/a	n/a	BEE	Insects	10	10	[0, 0, 0]	n/a	catFR1	2	R1390M
1078.414	1.6	1084217	WORD	n/a	wordpools/wordpool_categorized_EN.txt	STAIRS	Building	11	10	[0, 0, 0]	n/a	catFR1	2	R1390M
1080.014	1.0	1085816	WORD_OFF	n/a	n/a	STAIRS	Building	11	10	[0, 0, 0]	n/a	catFR1	2	R1390M
1081.014	1.601	1086826	WORD	n/a	wordpools/wordpool_categorized_EN.txt	DOOR	Building	12	10	[0, 0, 0]	n/a	catFR1	2	R1390M
1082.615	0.001	1088419	PROB	3.966	n/a	n/a	n/a	-999	10	[5, 1, 5]	11.0	catFR1	2	R1390M
1082.616	0.0	1088420	START	n/a	n/a	n/a	n/a	-999	10	[-999, -999, -999]	n/a	catFR1	2	R1390M
1082.614	0.002	1088424	WORD_OFF	n/a	n/a	DOOR	Building	12	10	[0, 0, 0]	n/a	catFR1	2	R1390M
1082.616	0.0	1088424	ENCODING_END	n/a	n/a	n/a	n/a	-999	10	[0, 0, 0]	n/a	catFR1	2	R1390M
1082.616	3.982	1088424	DISTRACT_START	n/a	n/a	n/a	n/a	-999	10	[0, 0, 0]	n/a	catFR1	2	R1390M
1086.598	4.7	1092402	PROB	4.683	n/a	n/a	n/a	-999	10	[4, 2, 6]	12.0	catFR1	2	R1390M
1091.298	3.652	1097102	PROB	3.634	n/a	n/a	n/a	-999	10	[4, 3, 3]	10.0	catFR1	2	R1390M
1094.95	4.45	1100754	PROB	4.433	n/a	n/a	n/a	-999	10	[5, 4, 1]	10.0	catFR1	2	R1390M
1099.4	6.132	1105203	PROB	6.114	n/a	n/a	n/a	-999	10	[4, 1, 8]	13.0	catFR1	2	R1390M
1105.532	0.0	1111332	DISTRACT_END	n/a	n/a	n/a	n/a	-999	10	[0, 0, 0]	n/a	catFR1	2	R1390M
1105.532	1.017	1111335	STOP	n/a	n/a	n/a	n/a	-999	10	[-999, -999, -999]	n/a	catFR1	2	R1390M
1106.549	4.601	1112342	REC_START	n/a	n/a	n/a	n/a	-999	10	[0, 0, 0]	n/a	catFR1	2	R1390M
1111.15	1.028	1116953	REC_WORD	4.601	n/a	GNAT	Insects	9	10	[0, 0, 0]	n/a	catFR1	2	R1390M
1112.178	4.136	1117981	REC_WORD	5.629	n/a	BEETLE	Insects	-999	10	[0, 0, 0]	n/a	catFR1	2	R1390M
1116.314	4.085	1122117	REC_WORD	9.765	n/a	CRICKET	Insects	-999	10	[0, 0, 0]	n/a	catFR1	2	R1390M
1120.399	0.878	1126201	REC_WORD	13.85	n/a	HALLWAY	Building	2	10	[0, 0, 0]	n/a	catFR1	2	R1390M
1121.277	10.971	1127079	REC_WORD	14.728	n/a	ATTIC	Building	1	10	[0, 0, 0]	n/a	catFR1	2	R1390M
1132.248	4.566	1138050	REC_WORD	25.699	n/a	ROACH	Insects	-999	10	[0, 0, 0]	n/a	catFR1	2	R1390M
1136.814	7.268	1142617	REC_END	n/a	n/a	n/a	n/a	-999	10	[0, 0, 0]	n/a	catFR1	2	R1390M
1144.082	5.783	1149891	COUNTDOWN_START	n/a	n/a	n/a	n/a	-999	11	[0, 0, 0]	n/a	catFR1	2	R1390M
1149.865	0.0	1155660	COUNTDOWN_END	n/a	n/a	n/a	n/a	-999	11	[0, 0, 0]	n/a	catFR1	2	R1390M
1149.865	2.017	1155660	ENCODING_START	n/a	n/a	n/a	n/a	-999	11	[0, 0, 0]	n/a	catFR1	2	R1390M
1151.882	1.616	1157680	WORD	n/a	wordpools/wordpool_categorized_EN.txt	HORSE	Farmanimals	1	11	[0, 0, 0]	n/a	catFR1	2	R1390M
1153.498	0.967	1159297	WORD_OFF	n/a	n/a	HORSE	Farmanimals	1	11	[0, 0, 0]	n/a	catFR1	2	R1390M
1154.465	1.6	1160271	WORD	n/a	wordpools/wordpool_categorized_EN.txt	LAMB	Farmanimals	2	11	[0, 0, 0]	n/a	catFR1	2	R1390M
1156.065	0.866	1161869	WORD_OFF	n/a	n/a	LAMB	Farmanimals	2	11	[0, 0, 0]	n/a	catFR1	2	R1390M
1156.931	1.601	1162732	WORD	n/a	wordpools/wordpool_categorized_EN.txt	LILY	Flowers	3	11	[0, 0, 0]	n/a	catFR1	2	R1390M
1158.532	0.783	1164331	WORD_OFF	n/a	n/a	LILY	Flowers	3	11	[0, 0, 0]	n/a	catFR1	2	R1390M
1159.315	1.6	1165120	WORD	n/a	wordpools/wordpool_categorized_EN.txt	VIOLET	Flowers	4	11	[0, 0, 0]	n/a	catFR1	2	R1390M
1160.915	0.9	1166719	WORD_OFF	n/a	n/a	VIOLET	Flowers	4	11	[0, 0, 0]	n/a	catFR1	2	R1390M
1161.815	1.599	1167619	WORD	n/a	wordpools/wordpool_categorized_EN.txt	WALL	Building	5	11	[0, 0, 0]	n/a	catFR1	2	R1390M
1163.414	1.001	1169217	WORD_OFF	n/a	n/a	WALL	Building	5	11	[0, 0, 0]	n/a	catFR1	2	R1390M
1164.415	1.6	1170209	WORD	n/a	wordpools/wordpool_categorized_EN.txt	CEILING	Building	6	11	[0, 0, 0]	n/a	catFR1	2	R1390M
1166.015	0.867	1171807	WORD_OFF	n/a	n/a	CEILING	Building	6	11	[0, 0, 0]	n/a	catFR1	2	R1390M
1166.882	1.616	1172689	WORD	n/a	wordpools/wordpool_categorized_EN.txt	LILAC	Flowers	7	11	[0, 0, 0]	n/a	catFR1	2	R1390M
1168.498	0.884	1174306	WORD_OFF	n/a	n/a	LILAC	Flowers	7	11	[0, 0, 0]	n/a	catFR1	2	R1390M
1169.382	1.6	1175187	WORD	n/a	wordpools/wordpool_categorized_EN.txt	PETUNIA	Flowers	8	11	[0, 0, 0]	n/a	catFR1	2	R1390M
1170.982	0.916	1176786	WORD_OFF	n/a	n/a	PETUNIA	Flowers	8	11	[0, 0, 0]	n/a	catFR1	2	R1390M
1171.898	1.617	1177704	WORD	n/a	wordpools/wordpool_categorized_EN.txt	FOUNDATION	Building	9	11	[0, 0, 0]	n/a	catFR1	2	R1390M
1173.515	0.816	1179321	WORD_OFF	n/a	n/a	FOUNDATION	Building	9	11	[0, 0, 0]	n/a	catFR1	2	R1390M
1174.331	1.601	1180129	WORD	n/a	wordpools/wordpool_categorized_EN.txt	BATHROOM	Building	10	11	[0, 0, 0]	n/a	catFR1	2	R1390M
1175.932	0.799	1181727	WORD_OFF	n/a	n/a	BATHROOM	Building	10	11	[0, 0, 0]	n/a	catFR1	2	R1390M
1176.731	1.6	1182536	WORD	n/a	wordpools/wordpool_categorized_EN.txt	PIG	Farmanimals	11	11	[0, 0, 0]	n/a	catFR1	2	R1390M
1178.331	0.834	1184134	WORD_OFF	n/a	n/a	PIG	Farmanimals	11	11	[0, 0, 0]	n/a	catFR1	2	R1390M
1179.165	1.617	1184960	WORD	n/a	wordpools/wordpool_categorized_EN.txt	GOAT	Farmanimals	12	11	[0, 0, 0]	n/a	catFR1	2	R1390M
1180.782	0.001	1186577	WORD_OFF	n/a	n/a	GOAT	Farmanimals	12	11	[0, 0, 0]	n/a	catFR1	2	R1390M
1180.783	0.0	1186577	ENCODING_END	n/a	n/a	n/a	n/a	-999	11	[0, 0, 0]	n/a	catFR1	2	R1390M
1180.783	0.0	1186577	DISTRACT_START	n/a	n/a	n/a	n/a	-999	11	[0, 0, 0]	n/a	catFR1	2	R1390M
1180.782	0.001	1186581	PROB	11.833	n/a	n/a	n/a	-999	11	[8, 4, 1]	13.0	catFR1	2	R1390M
1180.783	11.849	1186582	START	n/a	n/a	n/a	n/a	-999	11	[-999, -999, -999]	n/a	catFR1	2	R1390M
1192.632	6.117	1198431	PROB	6.1	n/a	n/a	n/a	-999	11	[6, 3, 5]	14.0	catFR1	2	R1390M
1198.749	5.916	1204547	PROB	5.898	n/a	n/a	n/a	-999	11	[3, 2, 8]	13.0	catFR1	2	R1390M
1204.665	0.0	1210458	DISTRACT_END	n/a	n/a	n/a	n/a	-999	11	[0, 0, 0]	n/a	catFR1	2	R1390M
1204.665	1.133	1210463	STOP	n/a	n/a	n/a	n/a	-999	11	[-999, -999, -999]	n/a	catFR1	2	R1390M
1205.798	2.857	1211597	REC_START	n/a	n/a	n/a	n/a	-999	11	[0, 0, 0]	n/a	catFR1	2	R1390M
1208.655	0.87	1214453	REC_WORD	2.857	n/a	PETUNIA	Flowers	8	11	[0, 0, 0]	n/a	catFR1	2	R1390M
1209.525	2.453	1215323	REC_WORD	3.727	n/a	LILY	Flowers	3	11	[0, 0, 0]	n/a	catFR1	2	R1390M
1211.978	9.13	1217776	REC_WORD	6.18	n/a	FOUNDATION	Building	9	11	[0, 0, 0]	n/a	catFR1	2	R1390M
1221.108	2.019	1226905	REC_WORD	15.31	n/a	HORSE	Farmanimals	1	11	[0, 0, 0]	n/a	catFR1	2	R1390M
1223.127	0.945	1228924	REC_WORD	17.329	n/a	LAMB	Farmanimals	2	11	[0, 0, 0]	n/a	catFR1	2	R1390M
1224.072	7.754	1229869	REC_WORD	18.274	n/a	GOAT	Farmanimals	12	11	[0, 0, 0]	n/a	catFR1	2	R1390M
1231.826	4.246	1237623	REC_WORD	26.028	n/a	CEILING	Building	6	11	[0, 0, 0]	n/a	catFR1	2	R1390M
1236.072	5.326	1241872	REC_END	n/a	n/a	n/a	n/a	-999	11	[0, 0, 0]	n/a	catFR1	2	R1390M
1241.398	4.668	1247199	COUNTDOWN_START	n/a	n/a	n/a	n/a	-999	12	[0, 0, 0]	n/a	catFR1	2	R1390M
1246.066	0.0	1251865	COUNTDOWN_END	n/a	n/a	n/a	n/a	-999	12	[0, 0, 0]	n/a	catFR1	2	R1390M
1246.066	2.065	1251865	ENCODING_START	n/a	n/a	n/a	n/a	-999	12	[0, 0, 0]	n/a	catFR1	2	R1390M
1248.131	1.617	1253923	WORD	n/a	wordpools/wordpool_categorized_EN.txt	FLOOR	Building	1	12	[0, 0, 0]	n/a	catFR1	2	R1390M
1249.748	0.95	1255539	WORD_OFF	n/a	n/a	FLOOR	Building	1	12	[0, 0, 0]	n/a	catFR1	2	R1390M
1250.698	1.617	1256495	WORD	n/a	wordpools/wordpool_categorized_EN.txt	ROOF	Building	2	12	[0, 0, 0]	n/a	catFR1	2	R1390M
1252.315	0.867	1258111	WORD_OFF	n/a	n/a	ROOF	Building	2	12	[0, 0, 0]	n/a	catFR1	2	R1390M
1253.182	1.6	1258975	WORD	n/a	wordpools/wordpool_categorized_EN.txt	FLUTE	Instruments	3	12	[0, 0, 0]	n/a	catFR1	2	R1390M
1254.782	0.916	1260573	WORD_OFF	n/a	n/a	FLUTE	Instruments	3	12	[0, 0, 0]	n/a	catFR1	2	R1390M
1255.698	1.616	1261491	WORD	n/a	wordpools/wordpool_categorized_EN.txt	DRUM	Instruments	4	12	[0, 0, 0]	n/a	catFR1	2	R1390M
1257.314	0.984	1263108	WORD_OFF	n/a	n/a	DRUM	Instruments	4	12	[0, 0, 0]	n/a	catFR1	2	R1390M
1258.298	1.6	1264100	WORD	n/a	wordpools/wordpool_categorized_EN.txt	LIME	Fruit	5	12	[0, 0, 0]	n/a	catFR1	2	R1390M
1259.898	0.949	1265698	WORD_OFF	n/a	n/a	LIME	Fruit	5	12	[0, 0, 0]	n/a	catFR1	2	R1390M
1260.847	1.601	1266635	WORD	n/a	wordpools/wordpool_categorized_EN.txt	BLUEBERRY	Fruit	6	12	[0, 0, 0]	n/a	catFR1	2	R1390M
1262.448	0.834	1268252	WORD_OFF	n/a	n/a	BLUEBERRY	Fruit	6	12	[0, 0, 0]	n/a	catFR1	2	R1390M
1263.282	1.616	1269078	WORD	n/a	wordpools/wordpool_categorized_EN.txt	WINDOW	Building	7	12	[0, 0, 0]	n/a	catFR1	2	R1390M
1264.898	1.0	1270695	WORD_OFF	n/a	n/a	WINDOW	Building	7	12	[0, 0, 0]	n/a	catFR1	2	R1390M
1265.898	1.6	1271687	WORD	n/a	wordpools/wordpool_categorized_EN.txt	ROOM	Building	8	12	[0, 0, 0]	n/a	catFR1	2	R1390M
1267.498	0.751	1273285	WORD_OFF	n/a	n/a	ROOM	Building	8	12	[0, 0, 0]	n/a	catFR1	2	R1390M
1268.249	1.599	1274038	WORD	n/a	wordpools/wordpool_categorized_EN.txt	LEMON	Fruit	9	12	[0, 0, 0]	n/a	catFR1	2	R1390M
1269.848	0.85	1275636	WORD_OFF	n/a	n/a	LEMON	Fruit	9	12	[0, 0, 0]	n/a	catFR1	2	R1390M
1270.698	1.6	1276500	WORD	n/a	wordpools/wordpool_categorized_EN.txt	PEACH	Fruit	10	12	[0, 0, 0]	n/a	catFR1	2	R1390M
1272.298	0.95	1278098	WORD_OFF	n/a	n/a	PEACH	Fruit	10	12	[0, 0, 0]	n/a	catFR1	2	R1390M
1273.248	1.601	1279035	WORD	n/a	wordpools/wordpool_categorized_EN.txt	TRUMPET	Instruments	11	12	[0, 0, 0]	n/a	catFR1	2	R1390M
1274.849	0.783	1280652	WORD_OFF	n/a	n/a	TRUMPET	Instruments	11	12	[0, 0, 0]	n/a	catFR1	2	R1390M
1275.632	1.6	1281423	WORD	n/a	wordpools/wordpool_categorized_EN.txt	GUITAR	Instruments	12	12	[0, 0, 0]	n/a	catFR1	2	R1390M
1277.232	0.001	1283021	WORD_OFF	n/a	n/a	GUITAR	Instruments	12	12	[0, 0, 0]	n/a	catFR1	2	R1390M
1277.233	0.0	1283021	ENCODING_END	n/a	n/a	n/a	n/a	-999	12	[0, 0, 0]	n/a	catFR1	2	R1390M
1277.233	0.0	1283021	DISTRACT_START	n/a	n/a	n/a	n/a	-999	12	[0, 0, 0]	n/a	catFR1	2	R1390M
1277.233	0.0	1283028	START	n/a	n/a	n/a	n/a	-999	12	[-999, -999, -999]	n/a	catFR1	2	R1390M
1277.233	4.549	1283028	PROB	4.532	n/a	n/a	n/a	-999	12	[8, 2, 8]	18.0	catFR1	2	R1390M
1281.782	5.8	1287576	PROB	5.783	n/a	n/a	n/a	-999	12	[3, 2, 4]	9.0	catFR1	2	R1390M
1287.582	6.25	1293376	PROB	6.233	n/a	n/a	n/a	-999	12	[2, 7, 4]	13.0	catFR1	2	R1390M
1293.832	4.9	1299626	PROB	4.883	n/a	n/a	n/a	-999	12	[3, 6, 6]	15.0	catFR1	2	R1390M
1298.732	0.0	1304525	STOP	n/a	n/a	n/a	n/a	-999	12	[-999, -999, -999]	n/a	catFR1	2	R1390M
1298.732	1.166	1304533	DISTRACT_END	n/a	n/a	n/a	n/a	-999	12	[0, 0, 0]	n/a	catFR1	2	R1390M
1299.898	4.19	1305690	REC_START	n/a	n/a	n/a	n/a	-999	12	[0, 0, 0]	n/a	catFR1	2	R1390M
1304.088	0.56	1309881	REC_WORD	4.19	n/a	LEMON	Fruit	9	12	[0, 0, 0]	n/a	catFR1	2	R1390M
1304.648	6.502	1310441	REC_WORD	4.75	n/a	LIME	Fruit	5	12	[0, 0, 0]	n/a	catFR1	2	R1390M
1311.15	1.837	1316943	REC_WORD	11.252	n/a	FLOOR	Building	1	12	[0, 0, 0]	n/a	catFR1	2	R1390M
1312.987	11.012	1318780	REC_WORD	13.089	n/a	ROOF	Building	2	12	[0, 0, 0]	n/a	catFR1	2	R1390M
1323.999	6.17	1329791	REC_WORD	24.101	n/a	DRUM	Instruments	4	12	[0, 0, 0]	n/a	catFR1	2	R1390M
1330.169	0.0	1335965	REC_END	n/a	n/a	n/a	n/a	-999	12	[0, 0, 0]	n/a	catFR1	2	R1390M
