onset	duration	sample	trial_type	response_time	stim_file	item_name	category	serialpos	list	test	answer	experiment	session	subject
0.0	0.528	191365	INSTRUCT_START	n/a	n/a	n/a	n/a	-999	-999	[0, 0, 0]	n/a	catFR1	1	R1347D
0.528	16.685	191895	INSTRUCT_END	n/a	n/a	n/a	n/a	-999	-999	[0, 0, 0]	n/a	catFR1	1	R1347D
17.213	10.0	208579	COUNTDOWN_START	n/a	n/a	n/a	n/a	-999	-999	[0, 0, 0]	n/a	catFR1	1	R1347D
27.562	0.001	218927	COUNTDOWN_END	n/a	n/a	n/a	n/a	-999	-999	[0, 0, 0]	n/a	catFR1	1	R1347D
27.563	2.332	218927	ENCODING_START	n/a	n/a	n/a	n/a	-999	-1	[0, 0, 0]	n/a	catFR1	1	R1347D
29.895	1.6	221260	WORD	n/a	n/a	DENIM	Materials	1	-1	[0, 0, 0]	n/a	catFR1	1	R1347D
31.495	0.766	222861	WORD_OFF	n/a	n/a	DENIM	Materials	1	-1	[0, 0, 0]	n/a	catFR1	1	R1347D
32.261	1.6	223628	WORD	n/a	n/a	WOOL	Materials	2	-1	[0, 0, 0]	n/a	catFR1	1	R1347D
33.878	0.85	225240	WORD_OFF	n/a	n/a	WOOL	Materials	2	-1	[0, 0, 0]	n/a	catFR1	1	R1347D
34.728	1.6	226096	WORD	n/a	n/a	FARMER	Professions	3	-1	[0, 0, 0]	n/a	catFR1	1	R1347D
36.328	0.9	227697	WORD_OFF	n/a	n/a	FARMER	Professions	3	-1	[0, 0, 0]	n/a	catFR1	1	R1347D
37.228	1.6	228599	WORD	n/a	n/a	TEACHER	Professions	4	-1	[0, 0, 0]	n/a	catFR1	1	R1347D
38.828	0.967	230188	WORD_OFF	n/a	n/a	TEACHER	Professions	4	-1	[0, 0, 0]	n/a	catFR1	1	R1347D
39.795	1.6	231158	WORD	n/a	n/a	SECOND	Times	5	-1	[0, 0, 0]	n/a	catFR1	1	R1347D
41.395	1.0	232759	WORD_OFF	n/a	n/a	SECOND	Times	5	-1	[0, 0, 0]	n/a	catFR1	1	R1347D
42.395	1.6	233762	WORD	n/a	n/a	HOUR	Times	6	-1	[0, 0, 0]	n/a	catFR1	1	R1347D
44.012	0.9	235374	WORD_OFF	n/a	n/a	HOUR	Times	6	-1	[0, 0, 0]	n/a	catFR1	1	R1347D
44.912	1.6	236276	WORD	n/a	n/a	FIREMAN	Professions	7	-1	[0, 0, 0]	n/a	catFR1	1	R1347D
46.528	0.867	237899	WORD_OFF	n/a	n/a	FIREMAN	Professions	7	-1	[0, 0, 0]	n/a	catFR1	1	R1347D
47.395	1.6	238756	WORD	n/a	n/a	PLUMBER	Professions	8	-1	[0, 0, 0]	n/a	catFR1	1	R1347D
48.995	0.933	240356	WORD_OFF	n/a	n/a	PLUMBER	Professions	8	-1	[0, 0, 0]	n/a	catFR1	1	R1347D
49.928	1.6	241292	WORD	n/a	n/a	SILK	Materials	9	-1	[0, 0, 0]	n/a	catFR1	1	R1347D
51.528	0.834	242893	WORD_OFF	n/a	n/a	SILK	Materials	9	-1	[0, 0, 0]	n/a	catFR1	1	R1347D
52.362	1.6	243727	WORD	n/a	n/a	LEATHER	Materials	10	-1	[0, 0, 0]	n/a	catFR1	1	R1347D
53.961	0.934	245328	WORD_OFF	n/a	n/a	LEATHER	Materials	10	-1	[0, 0, 0]	n/a	catFR1	1	R1347D
54.895	1.6	246263	WORD	n/a	n/a	DAY	Times	11	-1	[0, 0, 0]	n/a	catFR1	1	R1347D
56.495	0.766	247864	WORD_OFF	n/a	n/a	DAY	Times	11	-1	[0, 0, 0]	n/a	catFR1	1	R1347D
57.261	1.6	248631	WORD	n/a	n/a	MINUTE	Times	12	-1	[0, 0, 0]	n/a	catFR1	1	R1347D
58.863	0.001	250226	PROB	12.549	n/a	n/a	n/a	-999	-1	[1, 2, 5]	8.0	catFR1	1	R1347D
58.864	0.0	250227	START	n/a	n/a	n/a	n/a	-999	-1	[-999, -999, -999]	n/a	catFR1	1	R1347D
58.861	0.002	250231	WORD_OFF	n/a	n/a	MINUTE	Times	12	-1	[0, 0, 0]	n/a	catFR1	1	R1347D
58.863	0.001	250231	ENCODING_END	n/a	n/a	n/a	n/a	-999	-1	[0, 0, 0]	n/a	catFR1	1	R1347D
58.864	12.565	250231	DISTRACT_START	n/a	n/a	n/a	n/a	-999	-1	[0, 0, 0]	n/a	catFR1	1	R1347D
71.429	5.283	262792	PROB	5.266	n/a	n/a	n/a	-999	-1	[1, 7, 3]	11.0	catFR1	1	R1347D
76.712	6.866	268075	PROB	6.849	n/a	n/a	n/a	-999	-1	[7, 3, 4]	14.0	catFR1	1	R1347D
83.578	0.0	274940	STOP	n/a	n/a	n/a	n/a	-999	-1	[-999, -999, -999]	n/a	catFR1	1	R1347D
83.578	1.384	274941	DISTRACT_END	n/a	n/a	n/a	n/a	-999	-1	[0, 0, 0]	n/a	catFR1	1	R1347D
84.962	1.738	276328	REC_START	n/a	n/a	n/a	n/a	-999	-1	[0, 0, 0]	n/a	catFR1	1	R1347D
86.7	0.76	278062	REC_WORD	1.738	n/a	WOOL	Materials	2	-1	[0, 0, 0]	n/a	catFR1	1	R1347D
87.46	0.793	278822	REC_WORD	2.498	n/a	FARMER	Professions	3	-1	[0, 0, 0]	n/a	catFR1	1	R1347D
88.253	0.956	279615	REC_WORD	3.291	n/a	SILK	Materials	9	-1	[0, 0, 0]	n/a	catFR1	1	R1347D
89.209	0.999	280571	REC_WORD	4.247	n/a	DAY	Times	11	-1	[0, 0, 0]	n/a	catFR1	1	R1347D
90.208	15.863	281570	REC_WORD	5.246	n/a	HOUR	Times	6	-1	[0, 0, 0]	n/a	catFR1	1	R1347D
106.071	9.164	297432	REC_WORD	21.109	n/a	TEACHER	Professions	4	-1	[0, 0, 0]	n/a	catFR1	1	R1347D
115.235	8.777	306595	REC_END	n/a	n/a	n/a	n/a	-999	-1	[0, 0, 0]	n/a	catFR1	1	R1347D
124.012	10.0	315376	COUNTDOWN_START	n/a	n/a	n/a	n/a	-999	1	[0, 0, 0]	n/a	catFR1	1	R1347D
134.362	0.0	325725	COUNTDOWN_END	n/a	n/a	n/a	n/a	-999	1	[0, 0, 0]	n/a	catFR1	1	R1347D
134.362	2.049	325725	ENCODING_START	n/a	n/a	n/a	n/a	-999	1	[0, 0, 0]	n/a	catFR1	1	R1347D
136.411	1.6	327776	WORD	n/a	wordpools/wordpool_categorized_EN.txt	JELLO	Desserts	1	1	[0, 0, 0]	n/a	catFR1	1	R1347D
138.011	0.817	329377	WORD_OFF	n/a	n/a	JELLO	Desserts	1	1	[0, 0, 0]	n/a	catFR1	1	R1347D
138.828	1.6	330189	WORD	n/a	wordpools/wordpool_categorized_EN.txt	PIE	Desserts	2	1	[0, 0, 0]	n/a	catFR1	1	R1347D
140.428	0.882	331789	WORD_OFF	n/a	n/a	PIE	Desserts	2	1	[0, 0, 0]	n/a	catFR1	1	R1347D
141.31	1.6	332669	WORD	n/a	wordpools/wordpool_categorized_EN.txt	VALLEY	Landscapes	3	1	[0, 0, 0]	n/a	catFR1	1	R1347D
142.911	0.984	334269	WORD_OFF	n/a	n/a	VALLEY	Landscapes	3	1	[0, 0, 0]	n/a	catFR1	1	R1347D
143.895	1.6	335250	WORD	n/a	wordpools/wordpool_categorized_EN.txt	BEACH	Landscapes	4	1	[0, 0, 0]	n/a	catFR1	1	R1347D
145.495	0.8	336851	WORD_OFF	n/a	n/a	BEACH	Landscapes	4	1	[0, 0, 0]	n/a	catFR1	1	R1347D
146.295	1.6	337651	WORD	n/a	wordpools/wordpool_categorized_EN.txt	LEMONADE	Beverages	5	1	[0, 0, 0]	n/a	catFR1	1	R1347D
147.895	0.8	339252	WORD_OFF	n/a	n/a	LEMONADE	Beverages	5	1	[0, 0, 0]	n/a	catFR1	1	R1347D
148.695	1.6	340052	WORD	n/a	wordpools/wordpool_categorized_EN.txt	TEA	Beverages	6	1	[0, 0, 0]	n/a	catFR1	1	R1347D
150.311	0.801	341676	WORD_OFF	n/a	n/a	TEA	Beverages	6	1	[0, 0, 0]	n/a	catFR1	1	R1347D
151.112	1.6	342476	WORD	n/a	wordpools/wordpool_categorized_EN.txt	OCEAN	Landscapes	7	1	[0, 0, 0]	n/a	catFR1	1	R1347D
152.728	0.967	344088	WORD_OFF	n/a	n/a	OCEAN	Landscapes	7	1	[0, 0, 0]	n/a	catFR1	1	R1347D
153.695	1.6	345057	WORD	n/a	wordpools/wordpool_categorized_EN.txt	CREEK	Landscapes	8	1	[0, 0, 0]	n/a	catFR1	1	R1347D
155.311	0.9	346669	WORD_OFF	n/a	n/a	CREEK	Landscapes	8	1	[0, 0, 0]	n/a	catFR1	1	R1347D
156.211	1.6	347571	WORD	n/a	wordpools/wordpool_categorized_EN.txt	CUPCAKE	Desserts	9	1	[0, 0, 0]	n/a	catFR1	1	R1347D
157.811	0.767	349172	WORD_OFF	n/a	n/a	CUPCAKE	Desserts	9	1	[0, 0, 0]	n/a	catFR1	1	R1347D
158.578	1.6	349939	WORD	n/a	wordpools/wordpool_categorized_EN.txt	PASTRY	Desserts	10	1	[0, 0, 0]	n/a	catFR1	1	R1347D
160.195	0.816	351551	WORD_OFF	n/a	n/a	PASTRY	Desserts	10	1	[0, 0, 0]	n/a	catFR1	1	R1347D
161.011	1.6	352373	WORD	n/a	wordpools/wordpool_categorized_EN.txt	JUICE	Beverages	11	1	[0, 0, 0]	n/a	catFR1	1	R1347D
162.628	0.817	353985	WORD_OFF	n/a	n/a	JUICE	Beverages	11	1	[0, 0, 0]	n/a	catFR1	1	R1347D
163.445	1.6	354808	WORD	n/a	wordpools/wordpool_categorized_EN.txt	COFFEE	Beverages	12	1	[0, 0, 0]	n/a	catFR1	1	R1347D
165.061	0.0	356419	PROB	17.849	n/a	n/a	n/a	-999	1	[8, 2, 8]	18.0	catFR1	1	R1347D
165.061	0.002	356420	WORD_OFF	n/a	n/a	COFFEE	Beverages	12	1	[0, 0, 0]	n/a	catFR1	1	R1347D
165.063	0.0	356420	ENCODING_END	n/a	n/a	n/a	n/a	-999	1	[0, 0, 0]	n/a	catFR1	1	R1347D
165.063	0.0	356420	DISTRACT_START	n/a	n/a	n/a	n/a	-999	1	[0, 0, 0]	n/a	catFR1	1	R1347D
165.063	17.866	356421	START	n/a	n/a	n/a	n/a	-999	1	[-999, -999, -999]	n/a	catFR1	1	R1347D
182.929	3.115	374286	PROB	3.099	n/a	n/a	n/a	-999	1	[4, 4, 1]	9.0	catFR1	1	R1347D
186.044	0.0	377399	DISTRACT_END	n/a	n/a	n/a	n/a	-999	1	[0, 0, 0]	n/a	catFR1	1	R1347D
186.044	1.333	377401	STOP	n/a	n/a	n/a	n/a	-999	1	[-999, -999, -999]	n/a	catFR1	1	R1347D
187.377	2.197	378740	REC_START	n/a	n/a	n/a	n/a	-999	1	[0, 0, 0]	n/a	catFR1	1	R1347D
189.574	0.829	380931	REC_WORD	2.197	n/a	JELLO	Desserts	1	1	[0, 0, 0]	n/a	catFR1	1	R1347D
190.403	0.876	381760	REC_WORD	3.026	n/a	PIE	Desserts	2	1	[0, 0, 0]	n/a	catFR1	1	R1347D
191.279	0.873	382636	REC_WORD	3.902	n/a	TEA	Beverages	6	1	[0, 0, 0]	n/a	catFR1	1	R1347D
192.152	2.49	383509	REC_WORD	4.775	n/a	OCEAN	Landscapes	7	1	[0, 0, 0]	n/a	catFR1	1	R1347D
194.642	20.694	385999	REC_WORD	7.265	n/a	CAKE	n/a	-999	1	[0, 0, 0]	n/a	catFR1	1	R1347D
215.336	2.276	406691	REC_WORD	27.959	n/a	FIREMAN	Professions	-999	1	[0, 0, 0]	n/a	catFR1	1	R1347D
217.612	6.666	408963	REC_END	n/a	n/a	n/a	n/a	-999	1	[0, 0, 0]	n/a	catFR1	1	R1347D
224.278	10.0	415636	COUNTDOWN_START	n/a	n/a	n/a	n/a	-999	2	[0, 0, 0]	n/a	catFR1	1	R1347D
234.629	0.0	425984	COUNTDOWN_END	n/a	n/a	n/a	n/a	-999	2	[0, 0, 0]	n/a	catFR1	1	R1347D
234.629	1.965	425984	ENCODING_START	n/a	n/a	n/a	n/a	-999	2	[0, 0, 0]	n/a	catFR1	1	R1347D
236.594	1.6	427946	WORD	n/a	wordpools/wordpool_categorized_EN.txt	FORK	Kitchentools	1	2	[0, 0, 0]	n/a	catFR1	1	R1347D
238.195	0.9	429546	WORD_OFF	n/a	n/a	FORK	Kitchentools	1	2	[0, 0, 0]	n/a	catFR1	1	R1347D
239.095	1.6	430448	WORD	n/a	wordpools/wordpool_categorized_EN.txt	STRAINER	Kitchentools	2	2	[0, 0, 0]	n/a	catFR1	1	R1347D
240.711	1.0	432072	WORD_OFF	n/a	n/a	STRAINER	Kitchentools	2	2	[0, 0, 0]	n/a	catFR1	1	R1347D
241.711	1.6	433064	WORD	n/a	wordpools/wordpool_categorized_EN.txt	OYSTER	Oceananimals	3	2	[0, 0, 0]	n/a	catFR1	1	R1347D
243.311	0.834	434664	WORD_OFF	n/a	n/a	OYSTER	Oceananimals	3	2	[0, 0, 0]	n/a	catFR1	1	R1347D
244.145	1.6	435498	WORD	n/a	wordpools/wordpool_categorized_EN.txt	SQUID	Oceananimals	4	2	[0, 0, 0]	n/a	catFR1	1	R1347D
245.745	0.815	437099	WORD_OFF	n/a	n/a	SQUID	Oceananimals	4	2	[0, 0, 0]	n/a	catFR1	1	R1347D
246.56	1.6	437911	WORD	n/a	wordpools/wordpool_categorized_EN.txt	AXE	Tools	5	2	[0, 0, 0]	n/a	catFR1	1	R1347D
248.161	0.783	439512	WORD_OFF	n/a	n/a	AXE	Tools	5	2	[0, 0, 0]	n/a	catFR1	1	R1347D
248.944	1.6	440301	WORD	n/a	wordpools/wordpool_categorized_EN.txt	LEVEL	Tools	6	2	[0, 0, 0]	n/a	catFR1	1	R1347D
250.545	0.883	441901	WORD_OFF	n/a	n/a	LEVEL	Tools	6	2	[0, 0, 0]	n/a	catFR1	1	R1347D
251.428	1.6	442781	WORD	n/a	wordpools/wordpool_categorized_EN.txt	TONGS	Kitchentools	7	2	[0, 0, 0]	n/a	catFR1	1	R1347D
253.045	0.899	444404	WORD_OFF	n/a	n/a	TONGS	Kitchentools	7	2	[0, 0, 0]	n/a	catFR1	1	R1347D
253.944	1.6	445294	WORD	n/a	wordpools/wordpool_categorized_EN.txt	SPOON	Kitchentools	8	2	[0, 0, 0]	n/a	catFR1	1	R1347D
255.545	0.999	446906	WORD_OFF	n/a	n/a	SPOON	Kitchentools	8	2	[0, 0, 0]	n/a	catFR1	1	R1347D
256.544	1.6	447898	WORD	n/a	wordpools/wordpool_categorized_EN.txt	SCREWDRIVER	Tools	9	2	[0, 0, 0]	n/a	catFR1	1	R1347D
258.145	0.916	449499	WORD_OFF	n/a	n/a	SCREWDRIVER	Tools	9	2	[0, 0, 0]	n/a	catFR1	1	R1347D
259.061	1.6	450412	WORD	n/a	wordpools/wordpool_categorized_EN.txt	RATCHET	Tools	10	2	[0, 0, 0]	n/a	catFR1	1	R1347D
260.661	0.933	452013	WORD_OFF	n/a	n/a	RATCHET	Tools	10	2	[0, 0, 0]	n/a	catFR1	1	R1347D
261.594	1.6	452949	WORD	n/a	wordpools/wordpool_categorized_EN.txt	JELLYFISH	Oceananimals	11	2	[0, 0, 0]	n/a	catFR1	1	R1347D
263.195	0.783	454549	WORD_OFF	n/a	n/a	JELLYFISH	Oceananimals	11	2	[0, 0, 0]	n/a	catFR1	1	R1347D
263.978	1.6	455327	WORD	n/a	wordpools/wordpool_categorized_EN.txt	LOBSTER	Oceananimals	12	2	[0, 0, 0]	n/a	catFR1	1	R1347D
265.594	0.002	456947	PROB	12.216	n/a	n/a	n/a	-999	2	[4, 8, 2]	14.0	catFR1	1	R1347D
265.596	0.0	456949	START	n/a	n/a	n/a	n/a	-999	2	[-999, -999, -999]	n/a	catFR1	1	R1347D
265.594	0.002	456950	WORD_OFF	n/a	n/a	LOBSTER	Oceananimals	12	2	[0, 0, 0]	n/a	catFR1	1	R1347D
265.596	0.0	456950	ENCODING_END	n/a	n/a	n/a	n/a	-999	2	[0, 0, 0]	n/a	catFR1	1	R1347D
265.596	12.232	456950	DISTRACT_START	n/a	n/a	n/a	n/a	-999	2	[0, 0, 0]	n/a	catFR1	1	R1347D
277.828	16.8	469180	PROB	16.784	n/a	n/a	n/a	-999	2	[5, 8, 7]	20.0	catFR1	1	R1347D
294.628	0.0	485978	DISTRACT_END	n/a	n/a	n/a	n/a	-999	2	[0, 0, 0]	n/a	catFR1	1	R1347D
294.628	1.216	485979	STOP	n/a	n/a	n/a	n/a	-999	2	[-999, -999, -999]	n/a	catFR1	1	R1347D
295.844	1.796	487195	REC_START	n/a	n/a	n/a	n/a	-999	2	[0, 0, 0]	n/a	catFR1	1	R1347D
297.64	0.752	488991	REC_WORD	1.796	n/a	FORK	Kitchentools	1	2	[0, 0, 0]	n/a	catFR1	1	R1347D
298.392	4.087	489743	REC_WORD	2.548	n/a	SQUID	Oceananimals	4	2	[0, 0, 0]	n/a	catFR1	1	R1347D
302.479	1.876	493830	REC_WORD	6.635	n/a	AXE	Tools	5	2	[0, 0, 0]	n/a	catFR1	1	R1347D
304.355	6.538	495706	REC_WORD	8.511	n/a	LOBSTER	Oceananimals	12	2	[0, 0, 0]	n/a	catFR1	1	R1347D
310.893	4.165	502244	REC_WORD	15.049	n/a	OYSTER	Oceananimals	3	2	[0, 0, 0]	n/a	catFR1	1	R1347D
315.058	11.051	506408	REC_WORD	19.214	n/a	JELLYFISH	Oceananimals	11	2	[0, 0, 0]	n/a	catFR1	1	R1347D
326.109	1.903	517462	REC_END	n/a	n/a	n/a	n/a	-999	2	[0, 0, 0]	n/a	catFR1	1	R1347D
328.012	10.0	519368	COUNTDOWN_START	n/a	n/a	n/a	n/a	-999	3	[0, 0, 0]	n/a	catFR1	1	R1347D
338.362	0.0	529716	COUNTDOWN_END	n/a	n/a	n/a	n/a	-999	3	[0, 0, 0]	n/a	catFR1	1	R1347D
338.362	1.999	529716	ENCODING_START	n/a	n/a	n/a	n/a	-999	3	[0, 0, 0]	n/a	catFR1	1	R1347D
340.361	1.6	531711	WORD	n/a	wordpools/wordpool_categorized_EN.txt	SANDER	Tools	1	3	[0, 0, 0]	n/a	catFR1	1	R1347D
341.961	0.767	533312	WORD_OFF	n/a	n/a	SANDER	Tools	1	3	[0, 0, 0]	n/a	catFR1	1	R1347D
342.728	1.6	534078	WORD	n/a	wordpools/wordpool_categorized_EN.txt	WRENCH	Tools	2	3	[0, 0, 0]	n/a	catFR1	1	R1347D
344.328	0.917	535679	WORD_OFF	n/a	n/a	WRENCH	Tools	2	3	[0, 0, 0]	n/a	catFR1	1	R1347D
345.245	1.6	536592	WORD	n/a	wordpools/wordpool_categorized_EN.txt	SHRIMP	Oceananimals	3	3	[0, 0, 0]	n/a	catFR1	1	R1347D
346.844	0.767	538193	WORD_OFF	n/a	n/a	SHRIMP	Oceananimals	3	3	[0, 0, 0]	n/a	catFR1	1	R1347D
347.611	1.6	538960	WORD	n/a	wordpools/wordpool_categorized_EN.txt	OCTOPUS	Oceananimals	4	3	[0, 0, 0]	n/a	catFR1	1	R1347D
349.228	0.983	540583	WORD_OFF	n/a	n/a	OCTOPUS	Oceananimals	4	3	[0, 0, 0]	n/a	catFR1	1	R1347D
350.211	1.6	541563	WORD	n/a	wordpools/wordpool_categorized_EN.txt	ARM	Bodyparts	5	3	[0, 0, 0]	n/a	catFR1	1	R1347D
351.811	0.883	543164	WORD_OFF	n/a	n/a	ARM	Bodyparts	5	3	[0, 0, 0]	n/a	catFR1	1	R1347D
352.694	1.6	544043	WORD	n/a	wordpools/wordpool_categorized_EN.txt	KNEE	Bodyparts	6	3	[0, 0, 0]	n/a	catFR1	1	R1347D
354.295	0.816	545644	WORD_OFF	n/a	n/a	KNEE	Bodyparts	6	3	[0, 0, 0]	n/a	catFR1	1	R1347D
355.111	1.6	546456	WORD	n/a	wordpools/wordpool_categorized_EN.txt	DRILL	Tools	7	3	[0, 0, 0]	n/a	catFR1	1	R1347D
356.728	0.783	548079	WORD_OFF	n/a	n/a	DRILL	Tools	7	3	[0, 0, 0]	n/a	catFR1	1	R1347D
357.511	1.6	548857	WORD	n/a	wordpools/wordpool_categorized_EN.txt	CROWBAR	Tools	8	3	[0, 0, 0]	n/a	catFR1	1	R1347D
359.128	0.8	550480	WORD_OFF	n/a	n/a	CROWBAR	Tools	8	3	[0, 0, 0]	n/a	catFR1	1	R1347D
359.928	1.6	551281	WORD	n/a	wordpools/wordpool_categorized_EN.txt	CRAB	Oceananimals	9	3	[0, 0, 0]	n/a	catFR1	1	R1347D
361.528	0.833	552881	WORD_OFF	n/a	n/a	CRAB	Oceananimals	9	3	[0, 0, 0]	n/a	catFR1	1	R1347D
362.361	1.6	553715	WORD	n/a	wordpools/wordpool_categorized_EN.txt	PLANKTON	Oceananimals	10	3	[0, 0, 0]	n/a	catFR1	1	R1347D
363.978	0.866	555327	WORD_OFF	n/a	n/a	PLANKTON	Oceananimals	10	3	[0, 0, 0]	n/a	catFR1	1	R1347D
364.844	1.6	556195	WORD	n/a	wordpools/wordpool_categorized_EN.txt	FOOT	Bodyparts	11	3	[0, 0, 0]	n/a	catFR1	1	R1347D
366.461	0.8	557807	WORD_OFF	n/a	n/a	FOOT	Bodyparts	11	3	[0, 0, 0]	n/a	catFR1	1	R1347D
367.261	1.6	558608	WORD	n/a	wordpools/wordpool_categorized_EN.txt	LEG	Bodyparts	12	3	[0, 0, 0]	n/a	catFR1	1	R1347D
368.861	0.001	560209	WORD_OFF	n/a	n/a	LEG	Bodyparts	12	3	[0, 0, 0]	n/a	catFR1	1	R1347D
368.862	0.0	560209	ENCODING_END	n/a	n/a	n/a	n/a	-999	3	[0, 0, 0]	n/a	catFR1	1	R1347D
368.862	0.0	560209	DISTRACT_START	n/a	n/a	n/a	n/a	-999	3	[0, 0, 0]	n/a	catFR1	1	R1347D
368.862	0.0	560210	START	n/a	n/a	n/a	n/a	-999	3	[-999, -999, -999]	n/a	catFR1	1	R1347D
368.862	17.417	560210	PROB	17.4	n/a	n/a	n/a	-999	3	[5, 5, 3]	13.0	catFR1	1	R1347D
386.279	20.966	577626	PROB	20.949	n/a	n/a	n/a	-999	3	[6, 7, 3]	16.0	catFR1	1	R1347D
407.245	0.0	598591	STOP	n/a	n/a	n/a	n/a	-999	3	[-999, -999, -999]	n/a	catFR1	1	R1347D
407.245	1.249	598592	DISTRACT_END	n/a	n/a	n/a	n/a	-999	3	[0, 0, 0]	n/a	catFR1	1	R1347D
408.494	3.547	599843	REC_START	n/a	n/a	n/a	n/a	-999	3	[0, 0, 0]	n/a	catFR1	1	R1347D
412.041	1.973	603387	REC_WORD	3.547	n/a	OCTOPUS	Oceananimals	4	3	[0, 0, 0]	n/a	catFR1	1	R1347D
414.014	1.285	605359	REC_WORD	5.52	n/a	SQUID	Oceananimals	-999	3	[0, 0, 0]	n/a	catFR1	1	R1347D
415.299	1.457	606644	REC_WORD	6.805	n/a	KNEE	Bodyparts	6	3	[0, 0, 0]	n/a	catFR1	1	R1347D
416.756	1.447	608101	REC_WORD	8.262	n/a	ELBOW	n/a	-999	3	[0, 0, 0]	n/a	catFR1	1	R1347D
418.203	4.901	609548	REC_WORD	9.709	n/a	FOOT	Bodyparts	11	3	[0, 0, 0]	n/a	catFR1	1	R1347D
423.104	15.655	614449	REC_WORD	14.61	n/a	TENTACLE	n/a	-999	3	[0, 0, 0]	n/a	catFR1	1	R1347D
438.759	2.052	630099	REC_END	n/a	n/a	n/a	n/a	-999	3	[0, 0, 0]	n/a	catFR1	1	R1347D
440.811	10.0	632162	COUNTDOWN_START	n/a	n/a	n/a	n/a	-999	4	[0, 0, 0]	n/a	catFR1	1	R1347D
451.162	0.0	642511	COUNTDOWN_END	n/a	n/a	n/a	n/a	-999	4	[0, 0, 0]	n/a	catFR1	1	R1347D
451.162	2.082	642511	ENCODING_START	n/a	n/a	n/a	n/a	-999	4	[0, 0, 0]	n/a	catFR1	1	R1347D
453.244	1.6	644585	WORD	n/a	wordpools/wordpool_categorized_EN.txt	CORKSCREW	Kitchentools	1	4	[0, 0, 0]	n/a	catFR1	1	R1347D
454.844	0.883	646186	WORD_OFF	n/a	n/a	CORKSCREW	Kitchentools	1	4	[0, 0, 0]	n/a	catFR1	1	R1347D
455.727	1.6	647076	WORD	n/a	wordpools/wordpool_categorized_EN.txt	SPATULA	Kitchentools	2	4	[0, 0, 0]	n/a	catFR1	1	R1347D
457.344	0.967	648688	WORD_OFF	n/a	n/a	SPATULA	Kitchentools	2	4	[0, 0, 0]	n/a	catFR1	1	R1347D
458.311	1.6	649658	WORD	n/a	wordpools/wordpool_categorized_EN.txt	BANJO	Instruments	3	4	[0, 0, 0]	n/a	catFR1	1	R1347D
459.911	1.0	651258	WORD_OFF	n/a	n/a	BANJO	Instruments	3	4	[0, 0, 0]	n/a	catFR1	1	R1347D
460.911	1.6	652250	WORD	n/a	wordpools/wordpool_categorized_EN.txt	PIANO	Instruments	4	4	[0, 0, 0]	n/a	catFR1	1	R1347D
462.511	0.983	653851	WORD_OFF	n/a	n/a	PIANO	Instruments	4	4	[0, 0, 0]	n/a	catFR1	1	R1347D
463.494	1.6	654843	WORD	n/a	wordpools/wordpool_categorized_EN.txt	COLA	Beverages	5	4	[0, 0, 0]	n/a	catFR1	1	R1347D
465.113	0.881	656455	WORD_OFF	n/a	n/a	COLA	Beverages	5	4	[0, 0, 0]	n/a	catFR1	1	R1347D
465.994	1.6	657334	WORD	n/a	wordpools/wordpool_categorized_EN.txt	RUM	Beverages	6	4	[0, 0, 0]	n/a	catFR1	1	R1347D
467.594	0.85	658935	WORD_OFF	n/a	n/a	RUM	Beverages	6	4	[0, 0, 0]	n/a	catFR1	1	R1347D
468.444	1.6	659792	WORD	n/a	wordpools/wordpool_categorized_EN.txt	LADLE	Kitchentools	7	4	[0, 0, 0]	n/a	catFR1	1	R1347D
470.044	0.95	661392	WORD_OFF	n/a	n/a	LADLE	Kitchentools	7	4	[0, 0, 0]	n/a	catFR1	1	R1347D
470.994	1.6	662339	WORD	n/a	wordpools/wordpool_categorized_EN.txt	KNIFE	Kitchentools	8	4	[0, 0, 0]	n/a	catFR1	1	R1347D
472.596	0.883	663940	WORD_OFF	n/a	n/a	KNIFE	Kitchentools	8	4	[0, 0, 0]	n/a	catFR1	1	R1347D
473.479	1.6	664819	WORD	n/a	wordpools/wordpool_categorized_EN.txt	WINE	Beverages	9	4	[0, 0, 0]	n/a	catFR1	1	R1347D
475.094	1.001	666443	WORD_OFF	n/a	n/a	WINE	Beverages	9	4	[0, 0, 0]	n/a	catFR1	1	R1347D
476.095	1.6	667435	WORD	n/a	wordpools/wordpool_categorized_EN.txt	WATER	Beverages	10	4	[0, 0, 0]	n/a	catFR1	1	R1347D
477.695	0.916	669035	WORD_OFF	n/a	n/a	WATER	Beverages	10	4	[0, 0, 0]	n/a	catFR1	1	R1347D
478.611	1.6	669960	WORD	n/a	wordpools/wordpool_categorized_EN.txt	TROMBONE	Instruments	11	4	[0, 0, 0]	n/a	catFR1	1	R1347D
480.212	0.933	671560	WORD_OFF	n/a	n/a	TROMBONE	Instruments	11	4	[0, 0, 0]	n/a	catFR1	1	R1347D
481.145	1.6	672485	WORD	n/a	wordpools/wordpool_categorized_EN.txt	BASS	Instruments	12	4	[0, 0, 0]	n/a	catFR1	1	R1347D
482.745	0.002	674086	WORD_OFF	n/a	n/a	BASS	Instruments	12	4	[0, 0, 0]	n/a	catFR1	1	R1347D
482.747	0.0	674086	ENCODING_END	n/a	n/a	n/a	n/a	-999	4	[0, 0, 0]	n/a	catFR1	1	R1347D
482.747	0.0	674086	DISTRACT_START	n/a	n/a	n/a	n/a	-999	4	[0, 0, 0]	n/a	catFR1	1	R1347D
482.745	0.002	674087	PROB	19.316	n/a	n/a	n/a	-999	4	[7, 5, 7]	19.0	catFR1	1	R1347D
482.747	19.332	674089	START	n/a	n/a	n/a	n/a	-999	4	[-999, -999, -999]	n/a	catFR1	1	R1347D
502.079	12.632	693420	PROB	12.615	n/a	n/a	n/a	-999	4	[7, 6, 7]	20.0	catFR1	1	R1347D
514.711	0.0	706051	STOP	n/a	n/a	n/a	n/a	-999	4	[-999, -999, -999]	n/a	catFR1	1	R1347D
514.711	1.05	706055	DISTRACT_END	n/a	n/a	n/a	n/a	-999	4	[0, 0, 0]	n/a	catFR1	1	R1347D
515.761	4.841	707103	REC_START	n/a	n/a	n/a	n/a	-999	4	[0, 0, 0]	n/a	catFR1	1	R1347D
520.602	0.726	711942	REC_WORD	4.841	n/a	BANJO	Instruments	3	4	[0, 0, 0]	n/a	catFR1	1	R1347D
521.328	4.532	712668	REC_WORD	5.567	n/a	PIANO	Instruments	4	4	[0, 0, 0]	n/a	catFR1	1	R1347D
525.86	8.272	717200	REC_WORD	10.099	n/a	KNEE	Bodyparts	-999	4	[0, 0, 0]	n/a	catFR1	1	R1347D
534.132	0.954	725471	REC_WORD	18.371	n/a	FOOT	Bodyparts	-999	4	[0, 0, 0]	n/a	catFR1	1	R1347D
535.086	10.943	726425	REC_WORD	19.325	n/a	DRUM	n/a	-999	4	[0, 0, 0]	n/a	catFR1	1	R1347D
546.029	3.266	737371	REC_END	n/a	n/a	n/a	n/a	-999	4	[0, 0, 0]	n/a	catFR1	1	R1347D
549.295	10.0	740640	COUNTDOWN_START	n/a	n/a	n/a	n/a	-999	5	[0, 0, 0]	n/a	catFR1	1	R1347D
559.645	0.0	750988	COUNTDOWN_END	n/a	n/a	n/a	n/a	-999	5	[0, 0, 0]	n/a	catFR1	1	R1347D
559.645	1.983	750988	ENCODING_START	n/a	n/a	n/a	n/a	-999	5	[0, 0, 0]	n/a	catFR1	1	R1347D
561.628	1.6	752972	WORD	n/a	wordpools/wordpool_categorized_EN.txt	APPLE	Fruit	1	5	[0, 0, 0]	n/a	catFR1	1	R1347D
563.245	0.883	754584	WORD_OFF	n/a	n/a	APPLE	Fruit	1	5	[0, 0, 0]	n/a	catFR1	1	R1347D
564.128	1.6	755463	WORD	n/a	wordpools/wordpool_categorized_EN.txt	GRAPE	Fruit	2	5	[0, 0, 0]	n/a	catFR1	1	R1347D
565.744	0.767	757087	WORD_OFF	n/a	n/a	GRAPE	Fruit	2	5	[0, 0, 0]	n/a	catFR1	1	R1347D
566.511	1.6	757853	WORD	n/a	wordpools/wordpool_categorized_EN.txt	EAR	Bodyparts	3	5	[0, 0, 0]	n/a	catFR1	1	R1347D
568.111	1.0	759454	WORD_OFF	n/a	n/a	EAR	Bodyparts	3	5	[0, 0, 0]	n/a	catFR1	1	R1347D
569.111	1.6	760446	WORD	n/a	wordpools/wordpool_categorized_EN.txt	FINGERS	Bodyparts	4	5	[0, 0, 0]	n/a	catFR1	1	R1347D
570.728	0.883	762069	WORD_OFF	n/a	n/a	FINGERS	Bodyparts	4	5	[0, 0, 0]	n/a	catFR1	1	R1347D
571.611	1.6	762948	WORD	n/a	wordpools/wordpool_categorized_EN.txt	ORANGUTAN	Zoo	5	5	[0, 0, 0]	n/a	catFR1	1	R1347D
573.211	0.784	764549	WORD_OFF	n/a	n/a	ORANGUTAN	Zoo	5	5	[0, 0, 0]	n/a	catFR1	1	R1347D
573.995	1.6	765338	WORD	n/a	wordpools/wordpool_categorized_EN.txt	GIRAFFE	Zoo	6	5	[0, 0, 0]	n/a	catFR1	1	R1347D
575.595	0.866	766928	WORD_OFF	n/a	n/a	GIRAFFE	Zoo	6	5	[0, 0, 0]	n/a	catFR1	1	R1347D
576.461	1.6	767796	WORD	n/a	wordpools/wordpool_categorized_EN.txt	ELBOW	Bodyparts	7	5	[0, 0, 0]	n/a	catFR1	1	R1347D
578.062	0.849	769396	WORD_OFF	n/a	n/a	ELBOW	Bodyparts	7	5	[0, 0, 0]	n/a	catFR1	1	R1347D
578.911	1.6	770253	WORD	n/a	wordpools/wordpool_categorized_EN.txt	EYE	Bodyparts	8	5	[0, 0, 0]	n/a	catFR1	1	R1347D
580.511	0.834	771854	WORD_OFF	n/a	n/a	EYE	Bodyparts	8	5	[0, 0, 0]	n/a	catFR1	1	R1347D
581.345	1.6	772688	WORD	n/a	wordpools/wordpool_categorized_EN.txt	PANDA	Zoo	9	5	[0, 0, 0]	n/a	catFR1	1	R1347D
582.962	0.833	774300	WORD_OFF	n/a	n/a	PANDA	Zoo	9	5	[0, 0, 0]	n/a	catFR1	1	R1347D
583.795	1.6	775134	WORD	n/a	wordpools/wordpool_categorized_EN.txt	ELEPHANT	Zoo	10	5	[0, 0, 0]	n/a	catFR1	1	R1347D
585.411	0.917	776746	WORD_OFF	n/a	n/a	ELEPHANT	Zoo	10	5	[0, 0, 0]	n/a	catFR1	1	R1347D
586.328	1.6	777671	WORD	n/a	wordpools/wordpool_categorized_EN.txt	PEACH	Fruit	11	5	[0, 0, 0]	n/a	catFR1	1	R1347D
587.928	1.0	779260	WORD_OFF	n/a	n/a	PEACH	Fruit	11	5	[0, 0, 0]	n/a	catFR1	1	R1347D
588.928	1.6	780263	WORD	n/a	wordpools/wordpool_categorized_EN.txt	PLUM	Fruit	12	5	[0, 0, 0]	n/a	catFR1	1	R1347D
590.528	0.002	781864	WORD_OFF	n/a	n/a	PLUM	Fruit	12	5	[0, 0, 0]	n/a	catFR1	1	R1347D
590.53	0.0	781864	ENCODING_END	n/a	n/a	n/a	n/a	-999	5	[0, 0, 0]	n/a	catFR1	1	R1347D
590.53	0.0	781864	DISTRACT_START	n/a	n/a	n/a	n/a	-999	5	[0, 0, 0]	n/a	catFR1	1	R1347D
590.529	0.001	781865	PROB	14.999	n/a	n/a	n/a	-999	5	[2, 1, 8]	11.0	catFR1	1	R1347D
590.53	15.015	781866	START	n/a	n/a	n/a	n/a	-999	5	[-999, -999, -999]	n/a	catFR1	1	R1347D
605.545	4.0	796881	PROB	3.983	n/a	n/a	n/a	-999	5	[5, 6, 5]	16.0	catFR1	1	R1347D
609.545	15.916	800880	PROB	15.899	n/a	n/a	n/a	-999	5	[5, 6, 8]	19.0	catFR1	1	R1347D
625.461	0.0	816796	STOP	n/a	n/a	n/a	n/a	-999	5	[-999, -999, -999]	n/a	catFR1	1	R1347D
625.461	1.083	816798	DISTRACT_END	n/a	n/a	n/a	n/a	-999	5	[0, 0, 0]	n/a	catFR1	1	R1347D
626.544	2.467	817880	REC_START	n/a	n/a	n/a	n/a	-999	5	[0, 0, 0]	n/a	catFR1	1	R1347D
629.011	0.73	820345	REC_WORD	2.467	n/a	APPLE	Fruit	1	5	[0, 0, 0]	n/a	catFR1	1	R1347D
629.741	1.171	821075	REC_WORD	3.197	n/a	GRAPE	Fruit	2	5	[0, 0, 0]	n/a	catFR1	1	R1347D
630.912	1.039	822246	REC_WORD	4.368	n/a	EAR	Bodyparts	3	5	[0, 0, 0]	n/a	catFR1	1	R1347D
631.951	24.853	823285	REC_WORD	5.407	n/a	FINGERS	Bodyparts	4	5	[0, 0, 0]	n/a	catFR1	1	R1347D
656.804	1.374	848136	REC_END	n/a	n/a	n/a	n/a	-999	5	[0, 0, 0]	n/a	catFR1	1	R1347D
658.178	10.0	849512	COUNTDOWN_START	n/a	n/a	n/a	n/a	-999	6	[0, 0, 0]	n/a	catFR1	1	R1347D
668.529	0.0	859860	COUNTDOWN_END	n/a	n/a	n/a	n/a	-999	6	[0, 0, 0]	n/a	catFR1	1	R1347D
668.529	2.016	859860	ENCODING_START	n/a	n/a	n/a	n/a	-999	6	[0, 0, 0]	n/a	catFR1	1	R1347D
670.545	1.6	861878	WORD	n/a	wordpools/wordpool_categorized_EN.txt	FLY	Insects	1	6	[0, 0, 0]	n/a	catFR1	1	R1347D
672.161	0.867	863490	WORD_OFF	n/a	n/a	FLY	Insects	1	6	[0, 0, 0]	n/a	catFR1	1	R1347D
673.028	1.6	864358	WORD	n/a	wordpools/wordpool_categorized_EN.txt	BEE	Insects	2	6	[0, 0, 0]	n/a	catFR1	1	R1347D
674.628	0.8	865959	WORD_OFF	n/a	n/a	BEE	Insects	2	6	[0, 0, 0]	n/a	catFR1	1	R1347D
675.428	1.6	866759	WORD	n/a	wordpools/wordpool_categorized_EN.txt	JACKET	Clothing	3	6	[0, 0, 0]	n/a	catFR1	1	R1347D
677.028	0.916	868360	WORD_OFF	n/a	n/a	JACKET	Clothing	3	6	[0, 0, 0]	n/a	catFR1	1	R1347D
677.944	1.6	869273	WORD	n/a	wordpools/wordpool_categorized_EN.txt	BLOUSE	Clothing	4	6	[0, 0, 0]	n/a	catFR1	1	R1347D
679.544	0.867	870873	WORD_OFF	n/a	n/a	BLOUSE	Clothing	4	6	[0, 0, 0]	n/a	catFR1	1	R1347D
680.411	1.6	871741	WORD	n/a	wordpools/wordpool_categorized_EN.txt	MAPLE	Trees	5	6	[0, 0, 0]	n/a	catFR1	1	R1347D
682.028	0.967	873365	WORD_OFF	n/a	n/a	MAPLE	Trees	5	6	[0, 0, 0]	n/a	catFR1	1	R1347D
682.995	1.6	874323	WORD	n/a	wordpools/wordpool_categorized_EN.txt	WALNUT	Trees	6	6	[0, 0, 0]	n/a	catFR1	1	R1347D
684.595	0.9	875924	WORD_OFF	n/a	n/a	WALNUT	Trees	6	6	[0, 0, 0]	n/a	catFR1	1	R1347D
685.495	1.6	876825	WORD	n/a	wordpools/wordpool_categorized_EN.txt	SHIRT	Clothing	7	6	[0, 0, 0]	n/a	catFR1	1	R1347D
687.112	0.999	878449	WORD_OFF	n/a	n/a	SHIRT	Clothing	7	6	[0, 0, 0]	n/a	catFR1	1	R1347D
688.111	1.6	879452	WORD	n/a	wordpools/wordpool_categorized_EN.txt	COAT	Clothing	8	6	[0, 0, 0]	n/a	catFR1	1	R1347D
689.728	0.933	881064	WORD_OFF	n/a	n/a	COAT	Clothing	8	6	[0, 0, 0]	n/a	catFR1	1	R1347D
690.661	1.6	881988	WORD	n/a	wordpools/wordpool_categorized_EN.txt	BIRCH	Trees	9	6	[0, 0, 0]	n/a	catFR1	1	R1347D
692.278	0.932	883612	WORD_OFF	n/a	n/a	BIRCH	Trees	9	6	[0, 0, 0]	n/a	catFR1	1	R1347D
693.21	1.6	884547	WORD	n/a	wordpools/wordpool_categorized_EN.txt	PINE	Trees	10	6	[0, 0, 0]	n/a	catFR1	1	R1347D
694.812	0.849	886148	WORD_OFF	n/a	n/a	PINE	Trees	10	6	[0, 0, 0]	n/a	catFR1	1	R1347D
695.661	1.6	886993	WORD	n/a	wordpools/wordpool_categorized_EN.txt	GNAT	Insects	11	6	[0, 0, 0]	n/a	catFR1	1	R1347D
697.261	0.934	888594	WORD_OFF	n/a	n/a	GNAT	Insects	11	6	[0, 0, 0]	n/a	catFR1	1	R1347D
698.195	1.6	889530	WORD	n/a	wordpools/wordpool_categorized_EN.txt	CRICKET	Insects	12	6	[0, 0, 0]	n/a	catFR1	1	R1347D
699.795	0.002	891126	PROB	13.166	n/a	n/a	n/a	-999	6	[8, 1, 8]	17.0	catFR1	1	R1347D
699.797	0.0	891128	START	n/a	n/a	n/a	n/a	-999	6	[-999, -999, -999]	n/a	catFR1	1	R1347D
699.795	0.002	891131	WORD_OFF	n/a	n/a	CRICKET	Insects	12	6	[0, 0, 0]	n/a	catFR1	1	R1347D
699.797	0.0	891131	ENCODING_END	n/a	n/a	n/a	n/a	-999	6	[0, 0, 0]	n/a	catFR1	1	R1347D
699.797	13.181	891131	DISTRACT_START	n/a	n/a	n/a	n/a	-999	6	[0, 0, 0]	n/a	catFR1	1	R1347D
712.978	3.683	904308	PROB	3.666	n/a	n/a	n/a	-999	6	[8, 4, 4]	18.0	catFR1	1	R1347D
716.661	18.383	907991	PROB	18.366	n/a	n/a	n/a	-999	6	[7, 8, 5]	20.0	catFR1	1	R1347D
735.044	0.0	926369	DISTRACT_END	n/a	n/a	n/a	n/a	-999	6	[0, 0, 0]	n/a	catFR1	1	R1347D
735.044	1.35	926373	STOP	n/a	n/a	n/a	n/a	-999	6	[-999, -999, -999]	n/a	catFR1	1	R1347D
736.394	3.204	927722	REC_START	n/a	n/a	n/a	n/a	-999	6	[0, 0, 0]	n/a	catFR1	1	R1347D
739.598	1.409	930927	REC_WORD	3.204	n/a	FLY	Insects	1	6	[0, 0, 0]	n/a	catFR1	1	R1347D
741.007	1.129	932336	REC_WORD	4.613	n/a	BEE	Insects	2	6	[0, 0, 0]	n/a	catFR1	1	R1347D
742.136	1.147	933465	REC_WORD	5.742	n/a	MAT	n/a	-999	6	[0, 0, 0]	n/a	catFR1	1	R1347D
743.283	23.366	934612	REC_WORD	6.889	n/a	JACKET	Clothing	3	6	[0, 0, 0]	n/a	catFR1	1	R1347D
766.649	1.681	957978	REC_END	n/a	n/a	n/a	n/a	-999	6	[0, 0, 0]	n/a	catFR1	1	R1347D
768.33	10.0	959657	COUNTDOWN_START	n/a	n/a	n/a	n/a	-999	7	[0, 0, 0]	n/a	catFR1	1	R1347D
778.679	0.0	970006	COUNTDOWN_END	n/a	n/a	n/a	n/a	-999	7	[0, 0, 0]	n/a	catFR1	1	R1347D
778.679	1.965	970006	ENCODING_START	n/a	n/a	n/a	n/a	-999	7	[0, 0, 0]	n/a	catFR1	1	R1347D
780.644	1.6	971967	WORD	n/a	wordpools/wordpool_categorized_EN.txt	LEMON	Fruit	1	7	[0, 0, 0]	n/a	catFR1	1	R1347D
782.261	0.95	973590	WORD_OFF	n/a	n/a	LEMON	Fruit	1	7	[0, 0, 0]	n/a	catFR1	1	R1347D
783.211	1.6	974537	WORD	n/a	wordpools/wordpool_categorized_EN.txt	STRAWBERRY	Fruit	2	7	[0, 0, 0]	n/a	catFR1	1	R1347D
784.812	0.816	976138	WORD_OFF	n/a	n/a	STRAWBERRY	Fruit	2	7	[0, 0, 0]	n/a	catFR1	1	R1347D
785.628	1.6	976961	WORD	n/a	wordpools/wordpool_categorized_EN.txt	FOREST	Landscapes	3	7	[0, 0, 0]	n/a	catFR1	1	R1347D
787.228	0.767	978550	WORD_OFF	n/a	n/a	FOREST	Landscapes	3	7	[0, 0, 0]	n/a	catFR1	1	R1347D
787.995	1.6	979317	WORD	n/a	wordpools/wordpool_categorized_EN.txt	WOODS	Landscapes	4	7	[0, 0, 0]	n/a	catFR1	1	R1347D
789.611	0.95	980940	WORD_OFF	n/a	n/a	WOODS	Landscapes	4	7	[0, 0, 0]	n/a	catFR1	1	R1347D
790.561	1.6	981887	WORD	n/a	wordpools/wordpool_categorized_EN.txt	HUMIDITY	Weather	5	7	[0, 0, 0]	n/a	catFR1	1	R1347D
792.161	0.816	983488	WORD_OFF	n/a	n/a	HUMIDITY	Weather	5	7	[0, 0, 0]	n/a	catFR1	1	R1347D
792.977	1.6	984300	WORD	n/a	wordpools/wordpool_categorized_EN.txt	TORNADO	Weather	6	7	[0, 0, 0]	n/a	catFR1	1	R1347D
794.578	0.767	985900	WORD_OFF	n/a	n/a	TORNADO	Weather	6	7	[0, 0, 0]	n/a	catFR1	1	R1347D
795.345	1.6	986667	WORD	n/a	wordpools/wordpool_categorized_EN.txt	PEAR	Fruit	7	7	[0, 0, 0]	n/a	catFR1	1	R1347D
796.945	0.816	988268	WORD_OFF	n/a	n/a	PEAR	Fruit	7	7	[0, 0, 0]	n/a	catFR1	1	R1347D
797.761	1.6	989090	WORD	n/a	wordpools/wordpool_categorized_EN.txt	CHERRY	Fruit	8	7	[0, 0, 0]	n/a	catFR1	1	R1347D
799.361	0.817	990691	WORD_OFF	n/a	n/a	CHERRY	Fruit	8	7	[0, 0, 0]	n/a	catFR1	1	R1347D
800.178	1.6	991503	WORD	n/a	wordpools/wordpool_categorized_EN.txt	STREAM	Landscapes	9	7	[0, 0, 0]	n/a	catFR1	1	R1347D
801.795	0.8	993126	WORD_OFF	n/a	n/a	STREAM	Landscapes	9	7	[0, 0, 0]	n/a	catFR1	1	R1347D
802.595	1.6	993926	WORD	n/a	wordpools/wordpool_categorized_EN.txt	RIVER	Landscapes	10	7	[0, 0, 0]	n/a	catFR1	1	R1347D
804.211	0.767	995538	WORD_OFF	n/a	n/a	RIVER	Landscapes	10	7	[0, 0, 0]	n/a	catFR1	1	R1347D
804.978	1.6	996305	WORD	n/a	wordpools/wordpool_categorized_EN.txt	SNOW	Weather	11	7	[0, 0, 0]	n/a	catFR1	1	R1347D
806.578	0.966	997906	WORD_OFF	n/a	n/a	SNOW	Weather	11	7	[0, 0, 0]	n/a	catFR1	1	R1347D
807.544	1.6	998875	WORD	n/a	wordpools/wordpool_categorized_EN.txt	THUNDERSTORM	Weather	12	7	[0, 0, 0]	n/a	catFR1	1	R1347D
809.145	0.001	1000470	PROB	4.866	n/a	n/a	n/a	-999	7	[1, 3, 7]	11.0	catFR1	1	R1347D
809.146	0.0	1000471	START	n/a	n/a	n/a	n/a	-999	7	[-999, -999, -999]	n/a	catFR1	1	R1347D
809.144	0.002	1000476	WORD_OFF	n/a	n/a	THUNDERSTORM	Weather	12	7	[0, 0, 0]	n/a	catFR1	1	R1347D
809.146	0.0	1000476	ENCODING_END	n/a	n/a	n/a	n/a	-999	7	[0, 0, 0]	n/a	catFR1	1	R1347D
809.146	4.882	1000476	DISTRACT_START	n/a	n/a	n/a	n/a	-999	7	[0, 0, 0]	n/a	catFR1	1	R1347D
814.028	5.166	1005353	PROB	5.149	n/a	n/a	n/a	-999	7	[5, 2, 6]	13.0	catFR1	1	R1347D
819.194	11.534	1010519	PROB	11.518	n/a	n/a	n/a	-999	7	[3, 6, 7]	16.0	catFR1	1	R1347D
830.728	0.0	1022052	DISTRACT_END	n/a	n/a	n/a	n/a	-999	7	[0, 0, 0]	n/a	catFR1	1	R1347D
830.728	1.318	1022052	STOP	n/a	n/a	n/a	n/a	-999	7	[-999, -999, -999]	n/a	catFR1	1	R1347D
832.046	16.067	1023371	REC_START	n/a	n/a	n/a	n/a	-999	7	[0, 0, 0]	n/a	catFR1	1	R1347D
848.113	0.672	1039436	REC_WORD	16.067	n/a	PEAR	Fruit	7	7	[0, 0, 0]	n/a	catFR1	1	R1347D
848.785	2.628	1040108	REC_WORD	16.739	n/a	CHERRY	Fruit	8	7	[0, 0, 0]	n/a	catFR1	1	R1347D
851.413	10.892	1042736	REC_WORD	19.367	n/a	APPLE	Fruit	-999	7	[0, 0, 0]	n/a	catFR1	1	R1347D
862.305	1.54	1053627	REC_END	n/a	n/a	n/a	n/a	-999	7	[0, 0, 0]	n/a	catFR1	1	R1347D
863.845	10.0	1055171	COUNTDOWN_START	n/a	n/a	n/a	n/a	-999	8	[0, 0, 0]	n/a	catFR1	1	R1347D
874.196	0.0	1065519	COUNTDOWN_END	n/a	n/a	n/a	n/a	-999	8	[0, 0, 0]	n/a	catFR1	1	R1347D
874.196	2.316	1065519	ENCODING_START	n/a	n/a	n/a	n/a	-999	8	[0, 0, 0]	n/a	catFR1	1	R1347D
876.512	1.6	1067830	WORD	n/a	wordpools/wordpool_categorized_EN.txt	CARROT	Vegetables	1	8	[0, 0, 0]	n/a	catFR1	1	R1347D
878.112	0.783	1069431	WORD_OFF	n/a	n/a	CARROT	Vegetables	1	8	[0, 0, 0]	n/a	catFR1	1	R1347D
878.895	1.6	1070220	WORD	n/a	wordpools/wordpool_categorized_EN.txt	LETTUCE	Vegetables	2	8	[0, 0, 0]	n/a	catFR1	1	R1347D
880.511	0.967	1071832	WORD_OFF	n/a	n/a	LETTUCE	Vegetables	2	8	[0, 0, 0]	n/a	catFR1	1	R1347D
881.478	1.6	1072802	WORD	n/a	wordpools/wordpool_categorized_EN.txt	RULER	Officesupplies	3	8	[0, 0, 0]	n/a	catFR1	1	R1347D
883.078	0.916	1074402	WORD_OFF	n/a	n/a	RULER	Officesupplies	3	8	[0, 0, 0]	n/a	catFR1	1	R1347D
883.994	1.6	1075315	WORD	n/a	wordpools/wordpool_categorized_EN.txt	PEN	Officesupplies	4	8	[0, 0, 0]	n/a	catFR1	1	R1347D
885.595	0.765	1076916	WORD_OFF	n/a	n/a	PEN	Officesupplies	4	8	[0, 0, 0]	n/a	catFR1	1	R1347D
886.36	1.6	1077683	WORD	n/a	wordpools/wordpool_categorized_EN.txt	SKIRT	Clothing	5	8	[0, 0, 0]	n/a	catFR1	1	R1347D
887.961	0.799	1079283	WORD_OFF	n/a	n/a	SKIRT	Clothing	5	8	[0, 0, 0]	n/a	catFR1	1	R1347D
888.76	1.6	1080084	WORD	n/a	wordpools/wordpool_categorized_EN.txt	JEANS	Clothing	6	8	[0, 0, 0]	n/a	catFR1	1	R1347D
890.361	0.934	1081685	WORD_OFF	n/a	n/a	JEANS	Clothing	6	8	[0, 0, 0]	n/a	catFR1	1	R1347D
891.295	1.6	1082620	WORD	n/a	wordpools/wordpool_categorized_EN.txt	ONION	Vegetables	7	8	[0, 0, 0]	n/a	catFR1	1	R1347D
892.911	0.8	1084232	WORD_OFF	n/a	n/a	ONION	Vegetables	7	8	[0, 0, 0]	n/a	catFR1	1	R1347D
893.711	1.6	1085033	WORD	n/a	wordpools/wordpool_categorized_EN.txt	PEAS	Vegetables	8	8	[0, 0, 0]	n/a	catFR1	1	R1347D
895.311	0.9	1086633	WORD_OFF	n/a	n/a	PEAS	Vegetables	8	8	[0, 0, 0]	n/a	catFR1	1	R1347D
896.211	1.6	1087535	WORD	n/a	wordpools/wordpool_categorized_EN.txt	GLUE	Officesupplies	9	8	[0, 0, 0]	n/a	catFR1	1	R1347D
897.811	0.85	1089136	WORD_OFF	n/a	n/a	GLUE	Officesupplies	9	8	[0, 0, 0]	n/a	catFR1	1	R1347D
898.661	1.6	1089981	WORD	n/a	wordpools/wordpool_categorized_EN.txt	PENCIL	Officesupplies	10	8	[0, 0, 0]	n/a	catFR1	1	R1347D
900.261	0.9	1091582	WORD_OFF	n/a	n/a	PENCIL	Officesupplies	10	8	[0, 0, 0]	n/a	catFR1	1	R1347D
901.161	1.6	1092484	WORD	n/a	wordpools/wordpool_categorized_EN.txt	SHORTS	Clothing	11	8	[0, 0, 0]	n/a	catFR1	1	R1347D
902.761	0.883	1094085	WORD_OFF	n/a	n/a	SHORTS	Clothing	11	8	[0, 0, 0]	n/a	catFR1	1	R1347D
903.644	1.6	1094964	WORD	n/a	wordpools/wordpool_categorized_EN.txt	UNDERWEAR	Clothing	12	8	[0, 0, 0]	n/a	catFR1	1	R1347D
905.244	0.0	1096564	PROB	25.967	n/a	n/a	n/a	-999	8	[5, 5, 3]	13.0	catFR1	1	R1347D
905.244	0.002	1096565	WORD_OFF	n/a	n/a	UNDERWEAR	Clothing	12	8	[0, 0, 0]	n/a	catFR1	1	R1347D
905.246	0.0	1096565	ENCODING_END	n/a	n/a	n/a	n/a	-999	8	[0, 0, 0]	n/a	catFR1	1	R1347D
905.246	0.0	1096565	DISTRACT_START	n/a	n/a	n/a	n/a	-999	8	[0, 0, 0]	n/a	catFR1	1	R1347D
905.246	25.982	1096566	START	n/a	n/a	n/a	n/a	-999	8	[-999, -999, -999]	n/a	catFR1	1	R1347D
931.228	0.0	1122547	STOP	n/a	n/a	n/a	n/a	-999	8	[-999, -999, -999]	n/a	catFR1	1	R1347D
931.228	1.317	1122548	DISTRACT_END	n/a	n/a	n/a	n/a	-999	8	[0, 0, 0]	n/a	catFR1	1	R1347D
932.545	1.985	1123867	REC_START	n/a	n/a	n/a	n/a	-999	8	[0, 0, 0]	n/a	catFR1	1	R1347D
934.53	0.669	1125849	REC_WORD	1.985	n/a	PENS	n/a	-999	8	[0, 0, 0]	n/a	catFR1	1	R1347D
935.199	1.21	1126518	REC_WORD	2.654	n/a	SKIRT	Clothing	5	8	[0, 0, 0]	n/a	catFR1	1	R1347D
936.409	0.965	1127728	REC_WORD	3.864	n/a	ONIONS	n/a	-999	8	[0, 0, 0]	n/a	catFR1	1	R1347D
937.374	1.465	1128693	REC_WORD	4.829	n/a	JEANS	Clothing	6	8	[0, 0, 0]	n/a	catFR1	1	R1347D
938.839	5.447	1130158	REC_WORD	6.294	n/a	GLUE	Officesupplies	9	8	[0, 0, 0]	n/a	catFR1	1	R1347D
944.286	0.521	1135604	REC_WORD_VV	11.741	n/a	<>	n/a	-999	8	[0, 0, 0]	n/a	catFR1	1	R1347D
944.807	17.991	1136125	REC_WORD	12.262	n/a	UNDERWEAR	Clothing	12	8	[0, 0, 0]	n/a	catFR1	1	R1347D
962.798	1.48	1154112	REC_END	n/a	n/a	n/a	n/a	-999	8	[0, 0, 0]	n/a	catFR1	1	R1347D
964.278	10.0	1155600	COUNTDOWN_START	n/a	n/a	n/a	n/a	-999	9	[0, 0, 0]	n/a	catFR1	1	R1347D
974.629	0.0	1165948	COUNTDOWN_END	n/a	n/a	n/a	n/a	-999	9	[0, 0, 0]	n/a	catFR1	1	R1347D
974.629	1.999	1165948	ENCODING_START	n/a	n/a	n/a	n/a	-999	9	[0, 0, 0]	n/a	catFR1	1	R1347D
976.628	1.6	1167943	WORD	n/a	wordpools/wordpool_categorized_EN.txt	DRIZZLE	Weather	1	9	[0, 0, 0]	n/a	catFR1	1	R1347D
978.228	0.866	1169544	WORD_OFF	n/a	n/a	DRIZZLE	Weather	1	9	[0, 0, 0]	n/a	catFR1	1	R1347D
979.094	1.6	1170412	WORD	n/a	wordpools/wordpool_categorized_EN.txt	WIND	Weather	2	9	[0, 0, 0]	n/a	catFR1	1	R1347D
980.694	0.767	1172013	WORD_OFF	n/a	n/a	WIND	Weather	2	9	[0, 0, 0]	n/a	catFR1	1	R1347D
981.461	1.6	1172779	WORD	n/a	wordpools/wordpool_categorized_EN.txt	ROBIN	Birds	3	9	[0, 0, 0]	n/a	catFR1	1	R1347D
983.061	0.967	1174380	WORD_OFF	n/a	n/a	ROBIN	Birds	3	9	[0, 0, 0]	n/a	catFR1	1	R1347D
984.028	1.6	1175350	WORD	n/a	wordpools/wordpool_categorized_EN.txt	DUCK	Birds	4	9	[0, 0, 0]	n/a	catFR1	1	R1347D
985.628	0.933	1176950	WORD_OFF	n/a	n/a	DUCK	Birds	4	9	[0, 0, 0]	n/a	catFR1	1	R1347D
986.561	1.6	1177875	WORD	n/a	wordpools/wordpool_categorized_EN.txt	ERASER	Officesupplies	5	9	[0, 0, 0]	n/a	catFR1	1	R1347D
988.178	0.766	1179498	WORD_OFF	n/a	n/a	ERASER	Officesupplies	5	9	[0, 0, 0]	n/a	catFR1	1	R1347D
988.944	1.6	1180264	WORD	n/a	wordpools/wordpool_categorized_EN.txt	NOTEBOOK	Officesupplies	6	9	[0, 0, 0]	n/a	catFR1	1	R1347D
990.561	0.9	1181876	WORD_OFF	n/a	n/a	NOTEBOOK	Officesupplies	6	9	[0, 0, 0]	n/a	catFR1	1	R1347D
991.461	1.6	1182778	WORD	n/a	wordpools/wordpool_categorized_EN.txt	THUNDER	Weather	7	9	[0, 0, 0]	n/a	catFR1	1	R1347D
993.077	0.934	1184390	WORD_OFF	n/a	n/a	THUNDER	Weather	7	9	[0, 0, 0]	n/a	catFR1	1	R1347D
994.011	1.6	1185326	WORD	n/a	wordpools/wordpool_categorized_EN.txt	CLOUD	Weather	8	9	[0, 0, 0]	n/a	catFR1	1	R1347D
995.611	0.983	1186927	WORD_OFF	n/a	n/a	CLOUD	Weather	8	9	[0, 0, 0]	n/a	catFR1	1	R1347D
996.594	1.6	1187907	WORD	n/a	wordpools/wordpool_categorized_EN.txt	BINDER	Officesupplies	9	9	[0, 0, 0]	n/a	catFR1	1	R1347D
998.194	0.817	1189508	WORD_OFF	n/a	n/a	BINDER	Officesupplies	9	9	[0, 0, 0]	n/a	catFR1	1	R1347D
999.011	1.6	1190331	WORD	n/a	wordpools/wordpool_categorized_EN.txt	STAPLER	Officesupplies	10	9	[0, 0, 0]	n/a	catFR1	1	R1347D
1000.611	0.799	1191932	WORD_OFF	n/a	n/a	STAPLER	Officesupplies	10	9	[0, 0, 0]	n/a	catFR1	1	R1347D
1001.41	1.6	1192732	WORD	n/a	wordpools/wordpool_categorized_EN.txt	SPARROW	Birds	11	9	[0, 0, 0]	n/a	catFR1	1	R1347D
1003.011	0.866	1194322	WORD_OFF	n/a	n/a	SPARROW	Birds	11	9	[0, 0, 0]	n/a	catFR1	1	R1347D
1003.877	1.6	1195190	WORD	n/a	wordpools/wordpool_categorized_EN.txt	GOOSE	Birds	12	9	[0, 0, 0]	n/a	catFR1	1	R1347D
1005.478	0.001	1196790	WORD_OFF	n/a	n/a	GOOSE	Birds	12	9	[0, 0, 0]	n/a	catFR1	1	R1347D
1005.479	0.0	1196790	ENCODING_END	n/a	n/a	n/a	n/a	-999	9	[0, 0, 0]	n/a	catFR1	1	R1347D
1005.478	0.001	1196793	PROB	30.25	n/a	n/a	n/a	-999	9	[3, 2, 4]	9.0	catFR1	1	R1347D
1005.479	0.0	1196794	START	n/a	n/a	n/a	n/a	-999	9	[-999, -999, -999]	n/a	catFR1	1	R1347D
1005.479	30.265	1196802	DISTRACT_START	n/a	n/a	n/a	n/a	-999	9	[0, 0, 0]	n/a	catFR1	1	R1347D
1035.744	0.0	1227058	DISTRACT_END	n/a	n/a	n/a	n/a	-999	9	[0, 0, 0]	n/a	catFR1	1	R1347D
1035.744	1.167	1227058	STOP	n/a	n/a	n/a	n/a	-999	9	[-999, -999, -999]	n/a	catFR1	1	R1347D
1036.911	15.048	1228230	REC_START	n/a	n/a	n/a	n/a	-999	9	[0, 0, 0]	n/a	catFR1	1	R1347D
1051.959	0.625	1243272	REC_WORD	15.048	n/a	DUCK	Birds	4	9	[0, 0, 0]	n/a	catFR1	1	R1347D
1052.584	14.581	1243897	REC_WORD	15.673	n/a	GLUE	Officesupplies	-999	9	[0, 0, 0]	n/a	catFR1	1	R1347D
1067.165	1.647	1258475	REC_END	n/a	n/a	n/a	n/a	-999	9	[0, 0, 0]	n/a	catFR1	1	R1347D
1068.812	10.0	1260120	COUNTDOWN_START	n/a	n/a	n/a	n/a	-999	10	[0, 0, 0]	n/a	catFR1	1	R1347D
1079.161	0.0	1270469	COUNTDOWN_END	n/a	n/a	n/a	n/a	-999	10	[0, 0, 0]	n/a	catFR1	1	R1347D
1079.161	2.05	1270480	ENCODING_START	n/a	n/a	n/a	n/a	-999	10	[0, 0, 0]	n/a	catFR1	1	R1347D
1081.211	1.6	1272520	WORD	n/a	wordpools/wordpool_categorized_EN.txt	WILLOW	Trees	1	10	[0, 0, 0]	n/a	catFR1	1	R1347D
1082.812	0.899	1274121	WORD_OFF	n/a	n/a	WILLOW	Trees	1	10	[0, 0, 0]	n/a	catFR1	1	R1347D
1083.711	1.6	1275023	WORD	n/a	wordpools/wordpool_categorized_EN.txt	CYPRESS	Trees	2	10	[0, 0, 0]	n/a	catFR1	1	R1347D
1085.328	0.933	1276635	WORD_OFF	n/a	n/a	CYPRESS	Trees	2	10	[0, 0, 0]	n/a	catFR1	1	R1347D
1086.261	1.6	1277571	WORD	n/a	wordpools/wordpool_categorized_EN.txt	PUDDING	Desserts	3	10	[0, 0, 0]	n/a	catFR1	1	R1347D
1087.862	0.883	1279171	WORD_OFF	n/a	n/a	PUDDING	Desserts	3	10	[0, 0, 0]	n/a	catFR1	1	R1347D
1088.745	1.6	1280062	WORD	n/a	wordpools/wordpool_categorized_EN.txt	BROWNIES	Desserts	4	10	[0, 0, 0]	n/a	catFR1	1	R1347D
1090.345	0.849	1281663	WORD_OFF	n/a	n/a	BROWNIES	Desserts	4	10	[0, 0, 0]	n/a	catFR1	1	R1347D
1091.194	1.6	1282508	WORD	n/a	wordpools/wordpool_categorized_EN.txt	SOCKS	Clothing	5	10	[0, 0, 0]	n/a	catFR1	1	R1347D
1092.795	0.95	1284109	WORD_OFF	n/a	n/a	SOCKS	Clothing	5	10	[0, 0, 0]	n/a	catFR1	1	R1347D
1093.745	1.6	1285056	WORD	n/a	wordpools/wordpool_categorized_EN.txt	DRESS	Clothing	6	10	[0, 0, 0]	n/a	catFR1	1	R1347D
1095.361	0.933	1286668	WORD_OFF	n/a	n/a	DRESS	Clothing	6	10	[0, 0, 0]	n/a	catFR1	1	R1347D
1096.294	1.6	1287603	WORD	n/a	wordpools/wordpool_categorized_EN.txt	OAK	Trees	7	10	[0, 0, 0]	n/a	catFR1	1	R1347D
1097.895	0.949	1289204	WORD_OFF	n/a	n/a	OAK	Trees	7	10	[0, 0, 0]	n/a	catFR1	1	R1347D
1098.844	1.6	1290151	WORD	n/a	wordpools/wordpool_categorized_EN.txt	SPRUCE	Trees	8	10	[0, 0, 0]	n/a	catFR1	1	R1347D
1100.445	0.883	1291752	WORD_OFF	n/a	n/a	SPRUCE	Trees	8	10	[0, 0, 0]	n/a	catFR1	1	R1347D
1101.328	1.6	1292642	WORD	n/a	wordpools/wordpool_categorized_EN.txt	PANTS	Clothing	9	10	[0, 0, 0]	n/a	catFR1	1	R1347D
1102.928	0.967	1294243	WORD_OFF	n/a	n/a	PANTS	Clothing	9	10	[0, 0, 0]	n/a	catFR1	1	R1347D
1103.895	1.6	1295201	WORD	n/a	wordpools/wordpool_categorized_EN.txt	SHOES	Clothing	10	10	[0, 0, 0]	n/a	catFR1	1	R1347D
1105.495	0.766	1296802	WORD_OFF	n/a	n/a	SHOES	Clothing	10	10	[0, 0, 0]	n/a	catFR1	1	R1347D
1106.261	1.6	1297568	WORD	n/a	wordpools/wordpool_categorized_EN.txt	COBBLER	Desserts	11	10	[0, 0, 0]	n/a	catFR1	1	R1347D
1107.861	0.8	1299169	WORD_OFF	n/a	n/a	COBBLER	Desserts	11	10	[0, 0, 0]	n/a	catFR1	1	R1347D
1108.661	1.6	1299969	WORD	n/a	wordpools/wordpool_categorized_EN.txt	COOKIE	Desserts	12	10	[0, 0, 0]	n/a	catFR1	1	R1347D
1110.261	0.002	1301570	WORD_OFF	n/a	n/a	COOKIE	Desserts	12	10	[0, 0, 0]	n/a	catFR1	1	R1347D
1110.263	0.0	1301570	ENCODING_END	n/a	n/a	n/a	n/a	-999	10	[0, 0, 0]	n/a	catFR1	1	R1347D
1110.262	0.001	1301572	PROB	19.299	n/a	n/a	n/a	-999	10	[4, 2, 6]	12.0	catFR1	1	R1347D
1110.263	0.0	1301573	START	n/a	n/a	n/a	n/a	-999	10	[-999, -999, -999]	n/a	catFR1	1	R1347D
1110.263	19.316	1301581	DISTRACT_START	n/a	n/a	n/a	n/a	-999	10	[0, 0, 0]	n/a	catFR1	1	R1347D
1129.579	2.315	1320888	PROB	2.299	n/a	n/a	n/a	-999	10	[1, 1, 1]	3.0	catFR1	1	R1347D
1131.894	0.0	1323203	DISTRACT_END	n/a	n/a	n/a	n/a	-999	10	[0, 0, 0]	n/a	catFR1	1	R1347D
1131.894	1.084	1323203	STOP	n/a	n/a	n/a	n/a	-999	10	[-999, -999, -999]	n/a	catFR1	1	R1347D
1132.978	2.471	1324285	REC_START	n/a	n/a	n/a	n/a	-999	10	[0, 0, 0]	n/a	catFR1	1	R1347D
1135.449	0.776	1326758	REC_WORD	2.471	n/a	SOCK	n/a	-999	10	[0, 0, 0]	n/a	catFR1	1	R1347D
1136.225	0.919	1327534	REC_WORD	3.247	n/a	DRESS	Clothing	6	10	[0, 0, 0]	n/a	catFR1	1	R1347D
1137.144	1.965	1328453	REC_WORD	4.166	n/a	PANTS	Clothing	9	10	[0, 0, 0]	n/a	catFR1	1	R1347D
1139.109	16.388	1330418	REC_WORD	6.131	n/a	COOKIE	Desserts	12	10	[0, 0, 0]	n/a	catFR1	1	R1347D
1155.497	7.735	1346805	REC_WORD	22.519	n/a	CAKE	n/a	-999	10	[0, 0, 0]	n/a	catFR1	1	R1347D
1163.232	1.996	1354541	REC_END	n/a	n/a	n/a	n/a	-999	10	[0, 0, 0]	n/a	catFR1	1	R1347D
1165.228	10.0	1356536	COUNTDOWN_START	n/a	n/a	n/a	n/a	-999	11	[0, 0, 0]	n/a	catFR1	1	R1347D
1175.579	0.0	1366884	COUNTDOWN_END	n/a	n/a	n/a	n/a	-999	11	[0, 0, 0]	n/a	catFR1	1	R1347D
1175.579	2.249	1366884	ENCODING_START	n/a	n/a	n/a	n/a	-999	11	[0, 0, 0]	n/a	catFR1	1	R1347D
1177.828	1.6	1369139	WORD	n/a	wordpools/wordpool_categorized_EN.txt	BUS	Vehicles	1	11	[0, 0, 0]	n/a	catFR1	1	R1347D
1179.428	0.817	1370740	WORD_OFF	n/a	n/a	BUS	Vehicles	1	11	[0, 0, 0]	n/a	catFR1	1	R1347D
1180.245	1.6	1371551	WORD	n/a	wordpools/wordpool_categorized_EN.txt	PLANE	Vehicles	2	11	[0, 0, 0]	n/a	catFR1	1	R1347D
1181.862	0.816	1373175	WORD_OFF	n/a	n/a	PLANE	Vehicles	2	11	[0, 0, 0]	n/a	catFR1	1	R1347D
1182.678	1.6	1373986	WORD	n/a	wordpools/wordpool_categorized_EN.txt	SAW	Tools	3	11	[0, 0, 0]	n/a	catFR1	1	R1347D
1184.278	0.783	1375598	WORD_OFF	n/a	n/a	SAW	Tools	3	11	[0, 0, 0]	n/a	catFR1	1	R1347D
1185.061	1.6	1376365	WORD	n/a	wordpools/wordpool_categorized_EN.txt	HAMMER	Tools	4	11	[0, 0, 0]	n/a	catFR1	1	R1347D
1186.678	0.767	1377988	WORD_OFF	n/a	n/a	HAMMER	Tools	4	11	[0, 0, 0]	n/a	catFR1	1	R1347D
1187.445	1.6	1378755	WORD	n/a	wordpools/wordpool_categorized_EN.txt	FOG	Weather	5	11	[0, 0, 0]	n/a	catFR1	1	R1347D
1189.061	1.0	1380367	WORD_OFF	n/a	n/a	FOG	Weather	5	11	[0, 0, 0]	n/a	catFR1	1	R1347D
1190.061	1.6	1381370	WORD	n/a	wordpools/wordpool_categorized_EN.txt	LIGHTNING	Weather	6	11	[0, 0, 0]	n/a	catFR1	1	R1347D
1191.661	0.867	1382970	WORD_OFF	n/a	n/a	LIGHTNING	Weather	6	11	[0, 0, 0]	n/a	catFR1	1	R1347D
1192.528	1.6	1383838	WORD	n/a	wordpools/wordpool_categorized_EN.txt	SHOVEL	Tools	7	11	[0, 0, 0]	n/a	catFR1	1	R1347D
1194.145	0.867	1385450	WORD_OFF	n/a	n/a	SHOVEL	Tools	7	11	[0, 0, 0]	n/a	catFR1	1	R1347D
1195.012	1.6	1386318	WORD	n/a	wordpools/wordpool_categorized_EN.txt	PLIERS	Tools	8	11	[0, 0, 0]	n/a	catFR1	1	R1347D
1196.612	0.833	1387919	WORD_OFF	n/a	n/a	PLIERS	Tools	8	11	[0, 0, 0]	n/a	catFR1	1	R1347D
1197.445	1.6	1388753	WORD	n/a	wordpools/wordpool_categorized_EN.txt	RAIN	Weather	9	11	[0, 0, 0]	n/a	catFR1	1	R1347D
1199.061	1.0	1390365	WORD_OFF	n/a	n/a	RAIN	Weather	9	11	[0, 0, 0]	n/a	catFR1	1	R1347D
1200.061	1.6	1391369	WORD	n/a	wordpools/wordpool_categorized_EN.txt	HURRICANE	Weather	10	11	[0, 0, 0]	n/a	catFR1	1	R1347D
1201.661	0.901	1392969	WORD_OFF	n/a	n/a	HURRICANE	Weather	10	11	[0, 0, 0]	n/a	catFR1	1	R1347D
1202.562	1.6	1393871	WORD	n/a	wordpools/wordpool_categorized_EN.txt	JEEP	Vehicles	11	11	[0, 0, 0]	n/a	catFR1	1	R1347D
1204.161	0.767	1395472	WORD_OFF	n/a	n/a	JEEP	Vehicles	11	11	[0, 0, 0]	n/a	catFR1	1	R1347D
1204.928	1.6	1396238	WORD	n/a	wordpools/wordpool_categorized_EN.txt	MOTORCYCLE	Vehicles	12	11	[0, 0, 0]	n/a	catFR1	1	R1347D
1206.529	0.001	1397834	PROB	13.849	n/a	n/a	n/a	-999	11	[5, 8, 4]	17.0	catFR1	1	R1347D
1206.53	0.0	1397835	START	n/a	n/a	n/a	n/a	-999	11	[-999, -999, -999]	n/a	catFR1	1	R1347D
1206.528	0.002	1397839	WORD_OFF	n/a	n/a	MOTORCYCLE	Vehicles	12	11	[0, 0, 0]	n/a	catFR1	1	R1347D
1206.53	0.0	1397839	ENCODING_END	n/a	n/a	n/a	n/a	-999	11	[0, 0, 0]	n/a	catFR1	1	R1347D
1206.53	13.865	1397839	DISTRACT_START	n/a	n/a	n/a	n/a	-999	11	[0, 0, 0]	n/a	catFR1	1	R1347D
1220.395	4.084	1411699	PROB	4.066	n/a	n/a	n/a	-999	11	[1, 6, 1]	8.0	catFR1	1	R1347D
1224.479	3.582	1415783	PROB	3.565	n/a	n/a	n/a	-999	11	[4, 4, 1]	9.0	catFR1	1	R1347D
1228.061	0.0	1419365	STOP	n/a	n/a	n/a	n/a	-999	11	[-999, -999, -999]	n/a	catFR1	1	R1347D
1228.061	1.301	1419370	DISTRACT_END	n/a	n/a	n/a	n/a	-999	11	[0, 0, 0]	n/a	catFR1	1	R1347D
1229.362	11.584	1420666	REC_START	n/a	n/a	n/a	n/a	-999	11	[0, 0, 0]	n/a	catFR1	1	R1347D
1240.946	0.714	1432249	REC_WORD	11.584	n/a	SOCK	n/a	-999	11	[0, 0, 0]	n/a	catFR1	1	R1347D
1241.66	0.686	1432963	REC_WORD	12.298	n/a	DRESS	Clothing	-999	11	[0, 0, 0]	n/a	catFR1	1	R1347D
1242.346	17.292	1433649	REC_WORD	12.984	n/a	PLANE	Vehicles	2	11	[0, 0, 0]	n/a	catFR1	1	R1347D
1259.638	12.824	1450945	REC_END	n/a	n/a	n/a	n/a	-999	11	[0, 0, 0]	n/a	catFR1	1	R1347D
1272.462	10.0	1463762	COUNTDOWN_START	n/a	n/a	n/a	n/a	-999	12	[0, 0, 0]	n/a	catFR1	1	R1347D
1282.812	0.0	1474110	COUNTDOWN_END	n/a	n/a	n/a	n/a	-999	12	[0, 0, 0]	n/a	catFR1	1	R1347D
1282.812	2.166	1474122	ENCODING_START	n/a	n/a	n/a	n/a	-999	12	[0, 0, 0]	n/a	catFR1	1	R1347D
1284.978	1.6	1476286	WORD	n/a	wordpools/wordpool_categorized_EN.txt	SCOOTER	Vehicles	1	12	[0, 0, 0]	n/a	catFR1	1	R1347D
1286.578	0.8	1477876	WORD_OFF	n/a	n/a	SCOOTER	Vehicles	1	12	[0, 0, 0]	n/a	catFR1	1	R1347D
1287.378	1.6	1478676	WORD	n/a	wordpools/wordpool_categorized_EN.txt	VAN	Vehicles	2	12	[0, 0, 0]	n/a	catFR1	1	R1347D
1288.978	0.999	1480277	WORD_OFF	n/a	n/a	VAN	Vehicles	2	12	[0, 0, 0]	n/a	catFR1	1	R1347D
1289.977	1.6	1481280	WORD	n/a	wordpools/wordpool_categorized_EN.txt	BLUEBIRD	Birds	3	12	[0, 0, 0]	n/a	catFR1	1	R1347D
1291.578	0.867	1482881	WORD_OFF	n/a	n/a	BLUEBIRD	Birds	3	12	[0, 0, 0]	n/a	catFR1	1	R1347D
1292.445	1.6	1483749	WORD	n/a	wordpools/wordpool_categorized_EN.txt	SEAGULL	Birds	4	12	[0, 0, 0]	n/a	catFR1	1	R1347D
1294.045	0.9	1485349	WORD_OFF	n/a	n/a	SEAGULL	Birds	4	12	[0, 0, 0]	n/a	catFR1	1	R1347D
1294.945	1.6	1486251	WORD	n/a	wordpools/wordpool_categorized_EN.txt	ROSE	Flowers	5	12	[0, 0, 0]	n/a	catFR1	1	R1347D
1296.545	0.883	1487852	WORD_OFF	n/a	n/a	ROSE	Flowers	5	12	[0, 0, 0]	n/a	catFR1	1	R1347D
1297.428	1.6	1488731	WORD	n/a	wordpools/wordpool_categorized_EN.txt	DAISY	Flowers	6	12	[0, 0, 0]	n/a	catFR1	1	R1347D
1299.044	0.768	1490343	WORD_OFF	n/a	n/a	DAISY	Flowers	6	12	[0, 0, 0]	n/a	catFR1	1	R1347D
1299.812	1.6	1491110	WORD	n/a	wordpools/wordpool_categorized_EN.txt	PIGEON	Birds	7	12	[0, 0, 0]	n/a	catFR1	1	R1347D
1301.412	0.933	1492710	WORD_OFF	n/a	n/a	PIGEON	Birds	7	12	[0, 0, 0]	n/a	catFR1	1	R1347D
1302.345	1.6	1493646	WORD	n/a	wordpools/wordpool_categorized_EN.txt	CARDINAL	Birds	8	12	[0, 0, 0]	n/a	catFR1	1	R1347D
1303.961	0.884	1495258	WORD_OFF	n/a	n/a	CARDINAL	Birds	8	12	[0, 0, 0]	n/a	catFR1	1	R1347D
1304.845	1.6	1496149	WORD	n/a	wordpools/wordpool_categorized_EN.txt	CAR	Vehicles	9	12	[0, 0, 0]	n/a	catFR1	1	R1347D
1306.445	0.816	1497749	WORD_OFF	n/a	n/a	CAR	Vehicles	9	12	[0, 0, 0]	n/a	catFR1	1	R1347D
1307.261	1.6	1498561	WORD	n/a	wordpools/wordpool_categorized_EN.txt	TRUCK	Vehicles	10	12	[0, 0, 0]	n/a	catFR1	1	R1347D
1308.862	0.932	1500162	WORD_OFF	n/a	n/a	TRUCK	Vehicles	10	12	[0, 0, 0]	n/a	catFR1	1	R1347D
1309.794	1.6	1501097	WORD	n/a	wordpools/wordpool_categorized_EN.txt	DAFFODIL	Flowers	11	12	[0, 0, 0]	n/a	catFR1	1	R1347D
1311.395	0.95	1502698	WORD_OFF	n/a	n/a	DAFFODIL	Flowers	11	12	[0, 0, 0]	n/a	catFR1	1	R1347D
1312.345	1.6	1503645	WORD	n/a	wordpools/wordpool_categorized_EN.txt	TULIP	Flowers	12	12	[0, 0, 0]	n/a	catFR1	1	R1347D
1313.945	0.0	1505245	PROB	13.716	n/a	n/a	n/a	-999	12	[4, 6, 4]	14.0	catFR1	1	R1347D
1313.945	0.001	1505246	WORD_OFF	n/a	n/a	TULIP	Flowers	12	12	[0, 0, 0]	n/a	catFR1	1	R1347D
1313.946	0.0	1505246	ENCODING_END	n/a	n/a	n/a	n/a	-999	12	[0, 0, 0]	n/a	catFR1	1	R1347D
1313.946	0.0	1505246	DISTRACT_START	n/a	n/a	n/a	n/a	-999	12	[0, 0, 0]	n/a	catFR1	1	R1347D
1313.946	13.733	1505246	START	n/a	n/a	n/a	n/a	-999	12	[-999, -999, -999]	n/a	catFR1	1	R1347D
1327.679	24.032	1518978	PROB	24.015	n/a	n/a	n/a	-999	12	[7, 6, 5]	18.0	catFR1	1	R1347D
1351.711	0.0	1543009	DISTRACT_END	n/a	n/a	n/a	n/a	-999	12	[0, 0, 0]	n/a	catFR1	1	R1347D
1351.711	1.333	1543009	STOP	n/a	n/a	n/a	n/a	-999	12	[-999, -999, -999]	n/a	catFR1	1	R1347D
1353.044	1.913	1544339	REC_START	n/a	n/a	n/a	n/a	-999	12	[0, 0, 0]	n/a	catFR1	1	R1347D
1354.957	0.788	1546255	REC_WORD	1.913	n/a	VAN	Vehicles	2	12	[0, 0, 0]	n/a	catFR1	1	R1347D
1355.745	3.492	1547043	REC_WORD	2.701	n/a	ROSE	Flowers	5	12	[0, 0, 0]	n/a	catFR1	1	R1347D
1359.237	3.092	1550534	REC_WORD	6.193	n/a	DAFFODIL	Flowers	11	12	[0, 0, 0]	n/a	catFR1	1	R1347D
1362.329	2.296	1553626	REC_WORD	9.285	n/a	DAISY	Flowers	6	12	[0, 0, 0]	n/a	catFR1	1	R1347D
1364.625	18.655	1555922	REC_WORD	11.581	n/a	TULIP	Flowers	12	12	[0, 0, 0]	n/a	catFR1	1	R1347D
1383.28	0.0	1574573	REC_END	n/a	n/a	n/a	n/a	-999	12	[0, 0, 0]	n/a	catFR1	1	R1347D
