onset	duration	sample	trial_type	response_time	stim_file	item_name	category	serialpos	list	test	answer	experiment	session	subject
0.0	0.0	60002	INSTRUCT_START	n/a	n/a	n/a	n/a	-999	-999	[0, 0, 0]	n/a	catFR1	0	R1260D
0.0	10.918	60002	INSTRUCT_END	n/a	n/a	n/a	n/a	-999	-999	[0, 0, 0]	n/a	catFR1	0	R1260D
10.918	0.0	70919	SESS_START	n/a	n/a	n/a	n/a	-999	-999	[0, 0, 0]	n/a	catFR1	0	R1260D
10.918	50.0	70919	MIC_TEST	n/a	n/a	n/a	n/a	-999	-999	[0, 0, 0]	n/a	catFR1	0	R1260D
60.918	75.189	120916	PRACTICE_TRIAL	n/a	n/a	n/a	n/a	-999	-1	[0, 0, 0]	n/a	catFR1	0	R1260D
136.107	10.0	196101	COUNTDOWN_START	n/a	n/a	n/a	n/a	-999	-1	[0, 0, 0]	n/a	catFR1	0	R1260D
146.535	0.024	206529	COUNTDOWN_END	n/a	n/a	n/a	n/a	-999	-1	[0, 0, 0]	n/a	catFR1	0	R1260D
146.559	1.6	206553	PRACTICE_ORIENT	n/a	n/a	n/a	n/a	-999	-1	[0, 0, 0]	n/a	catFR1	0	R1260D
148.176	2.167	208170	PRACTICE_ORIENT_OFF	n/a	n/a	n/a	n/a	-999	-1	[0, 0, 0]	n/a	catFR1	0	R1260D
150.343	1.6	210336	PRACTICE_WORD	n/a	n/a	WAGON	n/a	-1	-1	[0, 0, 0]	n/a	catFR1	0	R1260D
151.961	0.884	211954	PRACTICE_WORD_OFF	n/a	n/a	WAGON	n/a	-999	-1	[0, 0, 0]	n/a	catFR1	0	R1260D
152.845	1.6	212838	PRACTICE_WORD	n/a	n/a	ATTIC	n/a	-1	-1	[0, 0, 0]	n/a	catFR1	0	R1260D
154.461	0.85	214454	PRACTICE_WORD_OFF	n/a	n/a	ATTIC	n/a	-999	-1	[0, 0, 0]	n/a	catFR1	0	R1260D
155.311	1.6	215304	PRACTICE_WORD	n/a	n/a	WATCH	n/a	-1	-1	[0, 0, 0]	n/a	catFR1	0	R1260D
156.929	0.983	216922	PRACTICE_WORD_OFF	n/a	n/a	WATCH	n/a	-999	-1	[0, 0, 0]	n/a	catFR1	0	R1260D
157.912	1.6	217905	PRACTICE_WORD	n/a	n/a	CHEST	n/a	-1	-1	[0, 0, 0]	n/a	catFR1	0	R1260D
159.528	0.8	219521	PRACTICE_WORD_OFF	n/a	n/a	CHEST	n/a	-999	-1	[0, 0, 0]	n/a	catFR1	0	R1260D
160.328	1.6	220321	PRACTICE_WORD	n/a	n/a	BEAM	n/a	-1	-1	[0, 0, 0]	n/a	catFR1	0	R1260D
161.946	0.834	221939	PRACTICE_WORD_OFF	n/a	n/a	BEAM	n/a	-999	-1	[0, 0, 0]	n/a	catFR1	0	R1260D
162.78	1.6	222773	PRACTICE_WORD	n/a	n/a	IRON	n/a	-1	-1	[0, 0, 0]	n/a	catFR1	0	R1260D
164.396	0.916	224389	PRACTICE_WORD_OFF	n/a	n/a	IRON	n/a	-999	-1	[0, 0, 0]	n/a	catFR1	0	R1260D
165.312	1.6	225305	PRACTICE_WORD	n/a	n/a	RING	n/a	-1	-1	[0, 0, 0]	n/a	catFR1	0	R1260D
166.914	0.783	226907	PRACTICE_WORD_OFF	n/a	n/a	RING	n/a	-999	-1	[0, 0, 0]	n/a	catFR1	0	R1260D
167.697	1.6	227689	PRACTICE_WORD	n/a	n/a	FLOOD	n/a	-1	-1	[0, 0, 0]	n/a	catFR1	0	R1260D
169.313	0.901	229305	PRACTICE_WORD_OFF	n/a	n/a	FLOOD	n/a	-999	-1	[0, 0, 0]	n/a	catFR1	0	R1260D
170.214	1.6	230206	PRACTICE_WORD	n/a	n/a	COTTON	n/a	-1	-1	[0, 0, 0]	n/a	catFR1	0	R1260D
171.831	0.766	231823	PRACTICE_WORD_OFF	n/a	n/a	COTTON	n/a	-999	-1	[0, 0, 0]	n/a	catFR1	0	R1260D
172.597	1.6	232589	PRACTICE_WORD	n/a	n/a	RHINO	n/a	-1	-1	[0, 0, 0]	n/a	catFR1	0	R1260D
174.214	0.818	234206	PRACTICE_WORD_OFF	n/a	n/a	RHINO	n/a	-999	-1	[0, 0, 0]	n/a	catFR1	0	R1260D
175.032	1.6	235024	PRACTICE_WORD	n/a	n/a	TONGUE	n/a	-1	-1	[0, 0, 0]	n/a	catFR1	0	R1260D
176.649	0.984	236641	PRACTICE_WORD_OFF	n/a	n/a	TONGUE	n/a	-999	-1	[0, 0, 0]	n/a	catFR1	0	R1260D
177.633	1.6	237625	PRACTICE_WORD	n/a	n/a	CAMEL	n/a	-1	-1	[0, 0, 0]	n/a	catFR1	0	R1260D
179.248	0.001	239240	PRACTICE_WORD_OFF	n/a	n/a	CAMEL	n/a	-999	-1	[0, 0, 0]	n/a	catFR1	0	R1260D
179.249	0.0	239241	DISTRACT_START	n/a	n/a	n/a	n/a	-999	-1	[0, 0, 0]	n/a	catFR1	0	R1260D
179.249	0.0	239241	ENCODING_END	n/a	n/a	n/a	n/a	-999	-1	[0, 0, 0]	n/a	catFR1	0	R1260D
179.249	0.016	239241	START	n/a	n/a	n/a	n/a	-999	-1	[-999, -999, -999]	n/a	catFR1	0	R1260D
179.265	5.034	239257	PROB	5.001	n/a	n/a	n/a	-999	-1	[7, 1, 3]	11.0	catFR1	0	R1260D
184.299	4.385	244291	PROB	4.362	n/a	n/a	n/a	-999	-1	[7, 5, 5]	17.0	catFR1	0	R1260D
188.684	13.032	248675	PROB	13.032	n/a	n/a	n/a	-999	-1	[6, 8, 5]	19.0	catFR1	0	R1260D
201.716	0.021	261707	STOP	n/a	n/a	n/a	n/a	-999	-1	[-999, -999, -999]	n/a	catFR1	0	R1260D
201.737	0.632	261728	DISTRACT_END	n/a	n/a	n/a	n/a	-999	-1	[0, 0, 0]	n/a	catFR1	0	R1260D
202.369	0.519	262360	RETRIEVAL_ORIENT	n/a	n/a	n/a	n/a	-999	-1	[0, 0, 0]	n/a	catFR1	0	R1260D
202.888	30.01	262879	PRACTICE_REC_START	n/a	n/a	n/a	n/a	-999	-1	[0, 0, 0]	n/a	catFR1	0	R1260D
232.898	20.898	292887	PRACTICE_REC_END	n/a	n/a	n/a	n/a	-999	-1	[0, 0, 0]	n/a	catFR1	0	R1260D
253.796	0.5	313784	TRIAL	n/a	n/a	n/a	n/a	-999	1	[0, 0, 0]	n/a	catFR1	0	R1260D
254.296	10.0	314284	COUNTDOWN_START	n/a	n/a	n/a	n/a	-999	1	[0, 0, 0]	n/a	catFR1	0	R1260D
264.724	0.008	324711	COUNTDOWN_END	n/a	n/a	n/a	n/a	-999	1	[0, 0, 0]	n/a	catFR1	0	R1260D
264.732	1.6	324719	ORIENT	n/a	n/a	n/a	n/a	-999	1	[0, 0, 0]	n/a	catFR1	0	R1260D
266.348	2.233	326335	ORIENT_OFF	n/a	n/a	n/a	n/a	-999	1	[0, 0, 0]	n/a	catFR1	0	R1260D
268.581	1.6	328568	WORD	n/a	wordpools/wordpool_categorized_EN.txt	STAIRS	Building	1	1	[0, 0, 0]	n/a	catFR1	0	R1260D
270.198	0.818	330185	WORD_OFF	n/a	n/a	STAIRS	n/a	1	1	[0, 0, 0]	n/a	catFR1	0	R1260D
271.016	1.6	331003	WORD	n/a	wordpools/wordpool_categorized_EN.txt	WALL	Building	2	1	[0, 0, 0]	n/a	catFR1	0	R1260D
272.633	0.883	332620	WORD_OFF	n/a	n/a	WALL	n/a	2	1	[0, 0, 0]	n/a	catFR1	0	R1260D
273.516	1.6	333503	WORD	n/a	wordpools/wordpool_categorized_EN.txt	ORCHID	Flowers	3	1	[0, 0, 0]	n/a	catFR1	0	R1260D
275.134	0.966	335120	WORD_OFF	n/a	n/a	ORCHID	n/a	3	1	[0, 0, 0]	n/a	catFR1	0	R1260D
276.1	1.6	336086	WORD	n/a	wordpools/wordpool_categorized_EN.txt	TULIP	Flowers	4	1	[0, 0, 0]	n/a	catFR1	0	R1260D
277.717	0.833	337703	WORD_OFF	n/a	n/a	TULIP	n/a	4	1	[0, 0, 0]	n/a	catFR1	0	R1260D
278.55	1.6	338536	WORD	n/a	wordpools/wordpool_categorized_EN.txt	HORSE	FarmAnimals	5	1	[0, 0, 0]	n/a	catFR1	0	R1260D
280.167	0.801	340153	WORD_OFF	n/a	n/a	HORSE	n/a	5	1	[0, 0, 0]	n/a	catFR1	0	R1260D
280.968	1.6	340954	WORD	n/a	wordpools/wordpool_categorized_EN.txt	TURKEY	FarmAnimals	6	1	[0, 0, 0]	n/a	catFR1	0	R1260D
282.584	0.8	342570	WORD_OFF	n/a	n/a	TURKEY	n/a	6	1	[0, 0, 0]	n/a	catFR1	0	R1260D
283.384	1.6	343370	WORD	n/a	wordpools/wordpool_categorized_EN.txt	MARIGOLD	Flowers	7	1	[0, 0, 0]	n/a	catFR1	0	R1260D
285.002	0.784	344988	WORD_OFF	n/a	n/a	MARIGOLD	n/a	7	1	[0, 0, 0]	n/a	catFR1	0	R1260D
285.786	1.6	345772	WORD	n/a	wordpools/wordpool_categorized_EN.txt	PETUNIA	Flowers	8	1	[0, 0, 0]	n/a	catFR1	0	R1260D
287.401	0.801	347387	WORD_OFF	n/a	n/a	PETUNIA	n/a	8	1	[0, 0, 0]	n/a	catFR1	0	R1260D
288.202	1.6	348188	WORD	n/a	wordpools/wordpool_categorized_EN.txt	ROOM	Building	9	1	[0, 0, 0]	n/a	catFR1	0	R1260D
289.82	0.765	349806	WORD_OFF	n/a	n/a	ROOM	n/a	9	1	[0, 0, 0]	n/a	catFR1	0	R1260D
290.585	1.6	350571	WORD	n/a	wordpools/wordpool_categorized_EN.txt	FLOOR	Building	10	1	[0, 0, 0]	n/a	catFR1	0	R1260D
292.202	0.951	352188	WORD_OFF	n/a	n/a	FLOOR	n/a	10	1	[0, 0, 0]	n/a	catFR1	0	R1260D
293.153	1.6	353138	WORD	n/a	wordpools/wordpool_categorized_EN.txt	PIG	FarmAnimals	11	1	[0, 0, 0]	n/a	catFR1	0	R1260D
294.77	0.951	354755	WORD_OFF	n/a	n/a	PIG	n/a	11	1	[0, 0, 0]	n/a	catFR1	0	R1260D
295.721	1.6	355706	WORD	n/a	wordpools/wordpool_categorized_EN.txt	HEN	FarmAnimals	12	1	[0, 0, 0]	n/a	catFR1	0	R1260D
297.337	0.0	357322	WORD_OFF	n/a	n/a	HEN	n/a	12	1	[0, 0, 0]	n/a	catFR1	0	R1260D
297.337	0.135	357322	ENCODING_END	n/a	n/a	n/a	n/a	-999	1	[0, 0, 0]	n/a	catFR1	0	R1260D
297.472	0.0	357457	DISTRACT_START	n/a	n/a	n/a	n/a	-999	1	[0, 0, 0]	n/a	catFR1	0	R1260D
297.472	0.015	357457	START	n/a	n/a	n/a	n/a	-999	1	[-999, -999, -999]	n/a	catFR1	0	R1260D
297.487	4.0	357472	PROB	3.964	n/a	n/a	n/a	-999	1	[9, 2, 1]	12.0	catFR1	0	R1260D
301.487	5.552	361472	PROB	5.524	n/a	n/a	n/a	-999	1	[4, 4, 3]	11.0	catFR1	0	R1260D
307.039	4.701	367024	PROB	4.67	n/a	n/a	n/a	-999	1	[4, 4, 9]	17.0	catFR1	0	R1260D
311.74	7.272	371724	PROB	7.272	n/a	n/a	n/a	-999	1	[8, 9, 5]	20.0	catFR1	0	R1260D
319.012	0.013	378996	STOP	n/a	n/a	n/a	n/a	-999	1	[-999, -999, -999]	n/a	catFR1	0	R1260D
319.025	0.566	379009	DISTRACT_END	n/a	n/a	n/a	n/a	-999	1	[0, 0, 0]	n/a	catFR1	0	R1260D
319.591	0.518	379575	RETRIEVAL_ORIENT	n/a	n/a	n/a	n/a	-999	1	[0, 0, 0]	n/a	catFR1	0	R1260D
320.109	0.0	380093	REC_START	n/a	n/a	n/a	n/a	-999	1	[0, 0, 0]	n/a	catFR1	0	R1260D
320.109	5.0	380093	REC_WORD_VV	0.0	n/a	<>	n/a	-999	1	[0, 0, 0]	n/a	catFR1	0	R1260D
325.109	2.875	385093	REC_WORD	5.0	n/a	STAIRS	Building	1	1	[0, 0, 0]	n/a	catFR1	0	R1260D
327.984	2.39	387968	REC_WORD	7.875	n/a	WALL	Building	2	1	[0, 0, 0]	n/a	catFR1	0	R1260D
330.374	1.892	390357	REC_WORD	10.265	n/a	TULIP	Flowers	4	1	[0, 0, 0]	n/a	catFR1	0	R1260D
332.266	3.419	392249	REC_WORD	12.157	n/a	ORCHID	Flowers	3	1	[0, 0, 0]	n/a	catFR1	0	R1260D
335.685	1.51	395668	REC_WORD	15.576	n/a	ROOM	Building	9	1	[0, 0, 0]	n/a	catFR1	0	R1260D
337.195	4.238	397178	REC_WORD	17.086	n/a	FLOOR	Building	10	1	[0, 0, 0]	n/a	catFR1	0	R1260D
341.433	1.1	401416	REC_WORD_VV	21.324	n/a	<>	n/a	-999	1	[0, 0, 0]	n/a	catFR1	0	R1260D
342.533	2.721	402516	REC_WORD	22.424	n/a	DAFFODIL	n/a	-999	1	[0, 0, 0]	n/a	catFR1	0	R1260D
345.254	4.865	405237	REC_WORD_VV	25.145	n/a	<>	n/a	-999	1	[0, 0, 0]	n/a	catFR1	0	R1260D
350.119	9.179	410101	REC_END	n/a	n/a	n/a	n/a	-999	1	[0, 0, 0]	n/a	catFR1	0	R1260D
359.298	0.5	419280	TRIAL	n/a	n/a	n/a	n/a	-999	2	[0, 0, 0]	n/a	catFR1	0	R1260D
359.798	10.0	419780	COUNTDOWN_START	n/a	n/a	n/a	n/a	-999	2	[0, 0, 0]	n/a	catFR1	0	R1260D
370.226	0.007	430207	COUNTDOWN_END	n/a	n/a	n/a	n/a	-999	2	[0, 0, 0]	n/a	catFR1	0	R1260D
370.233	1.6	430214	ORIENT	n/a	n/a	n/a	n/a	-999	2	[0, 0, 0]	n/a	catFR1	0	R1260D
371.851	1.967	431832	ORIENT_OFF	n/a	n/a	n/a	n/a	-999	2	[0, 0, 0]	n/a	catFR1	0	R1260D
373.818	1.6	433799	WORD	n/a	wordpools/wordpool_categorized_EN.txt	HEAD	BodyParts	1	2	[0, 0, 0]	n/a	catFR1	0	R1260D
375.434	0.767	435415	WORD_OFF	n/a	n/a	HEAD	n/a	1	2	[0, 0, 0]	n/a	catFR1	0	R1260D
376.201	1.6	436182	WORD	n/a	wordpools/wordpool_categorized_EN.txt	EYE	BodyParts	2	2	[0, 0, 0]	n/a	catFR1	0	R1260D
377.819	0.95	437800	WORD_OFF	n/a	n/a	EYE	n/a	2	2	[0, 0, 0]	n/a	catFR1	0	R1260D
378.769	1.6	438750	WORD	n/a	wordpools/wordpool_categorized_EN.txt	CABBAGE	Vegetables	3	2	[0, 0, 0]	n/a	catFR1	0	R1260D
380.385	0.817	440366	WORD_OFF	n/a	n/a	CABBAGE	n/a	3	2	[0, 0, 0]	n/a	catFR1	0	R1260D
381.202	1.6	441183	WORD	n/a	wordpools/wordpool_categorized_EN.txt	PEAS	Vegetables	4	2	[0, 0, 0]	n/a	catFR1	0	R1260D
382.803	0.799	442783	WORD_OFF	n/a	n/a	PEAS	n/a	4	2	[0, 0, 0]	n/a	catFR1	0	R1260D
383.602	1.6	443582	WORD	n/a	wordpools/wordpool_categorized_EN.txt	CYPRESS	Trees	5	2	[0, 0, 0]	n/a	catFR1	0	R1260D
385.219	1.001	445199	WORD_OFF	n/a	n/a	CYPRESS	n/a	5	2	[0, 0, 0]	n/a	catFR1	0	R1260D
386.22	1.6	446200	WORD	n/a	wordpools/wordpool_categorized_EN.txt	WILLOW	Trees	6	2	[0, 0, 0]	n/a	catFR1	0	R1260D
387.838	0.9	447818	WORD_OFF	n/a	n/a	WILLOW	n/a	6	2	[0, 0, 0]	n/a	catFR1	0	R1260D
388.738	1.6	448718	WORD	n/a	wordpools/wordpool_categorized_EN.txt	CARROT	Vegetables	7	2	[0, 0, 0]	n/a	catFR1	0	R1260D
390.354	0.833	450334	WORD_OFF	n/a	n/a	CARROT	n/a	7	2	[0, 0, 0]	n/a	catFR1	0	R1260D
391.187	1.6	451167	WORD	n/a	wordpools/wordpool_categorized_EN.txt	POTATO	Vegetables	8	2	[0, 0, 0]	n/a	catFR1	0	R1260D
392.805	0.917	452785	WORD_OFF	n/a	n/a	POTATO	n/a	8	2	[0, 0, 0]	n/a	catFR1	0	R1260D
393.722	1.6	453702	WORD	n/a	wordpools/wordpool_categorized_EN.txt	LEG	BodyParts	9	2	[0, 0, 0]	n/a	catFR1	0	R1260D
395.338	0.9	455318	WORD_OFF	n/a	n/a	LEG	n/a	9	2	[0, 0, 0]	n/a	catFR1	0	R1260D
396.238	1.6	456218	WORD	n/a	wordpools/wordpool_categorized_EN.txt	ARM	BodyParts	10	2	[0, 0, 0]	n/a	catFR1	0	R1260D
397.856	0.933	457836	WORD_OFF	n/a	n/a	ARM	n/a	10	2	[0, 0, 0]	n/a	catFR1	0	R1260D
398.789	1.6	458769	WORD	n/a	wordpools/wordpool_categorized_EN.txt	PINE	Trees	11	2	[0, 0, 0]	n/a	catFR1	0	R1260D
400.405	0.9	460385	WORD_OFF	n/a	n/a	PINE	n/a	11	2	[0, 0, 0]	n/a	catFR1	0	R1260D
401.305	1.6	461284	WORD	n/a	wordpools/wordpool_categorized_EN.txt	SPRUCE	Trees	12	2	[0, 0, 0]	n/a	catFR1	0	R1260D
402.907	0.0	462886	ENCODING_END	n/a	n/a	n/a	n/a	-999	2	[0, 0, 0]	n/a	catFR1	0	R1260D
402.907	0.104	462886	WORD_OFF	n/a	n/a	SPRUCE	n/a	12	2	[0, 0, 0]	n/a	catFR1	0	R1260D
403.011	0.0	462990	DISTRACT_START	n/a	n/a	n/a	n/a	-999	2	[0, 0, 0]	n/a	catFR1	0	R1260D
403.011	0.013	462990	START	n/a	n/a	n/a	n/a	-999	2	[-999, -999, -999]	n/a	catFR1	0	R1260D
403.024	5.717	463003	PROB	5.692	n/a	n/a	n/a	-999	2	[8, 5, 3]	16.0	catFR1	0	R1260D
408.741	4.684	468720	PROB	4.646	n/a	n/a	n/a	-999	2	[7, 5, 7]	19.0	catFR1	0	R1260D
413.425	3.368	473404	PROB	3.339	n/a	n/a	n/a	-999	2	[5, 5, 7]	17.0	catFR1	0	R1260D
416.793	5.717	476772	PROB	5.683	n/a	n/a	n/a	-999	2	[9, 4, 4]	17.0	catFR1	0	R1260D
422.51	16.166	482488	PROB	16.166	n/a	n/a	n/a	-999	2	[6, 8, 9]	23.0	catFR1	0	R1260D
438.676	0.021	498653	STOP	n/a	n/a	n/a	n/a	-999	2	[-999, -999, -999]	n/a	catFR1	0	R1260D
438.697	0.649	498674	DISTRACT_END	n/a	n/a	n/a	n/a	-999	2	[0, 0, 0]	n/a	catFR1	0	R1260D
439.346	0.518	499323	RETRIEVAL_ORIENT	n/a	n/a	n/a	n/a	-999	2	[0, 0, 0]	n/a	catFR1	0	R1260D
439.864	0.0	499841	REC_START	n/a	n/a	n/a	n/a	-999	2	[0, 0, 0]	n/a	catFR1	0	R1260D
439.864	3.171	499841	REC_WORD_VV	0.0	n/a	<>	n/a	-999	2	[0, 0, 0]	n/a	catFR1	0	R1260D
443.035	1.641	503012	REC_WORD	3.171	n/a	HEAD	BodyParts	1	2	[0, 0, 0]	n/a	catFR1	0	R1260D
444.676	1.377	504653	REC_WORD	4.812	n/a	EYE	BodyParts	2	2	[0, 0, 0]	n/a	catFR1	0	R1260D
446.053	1.6	506030	REC_WORD	6.189	n/a	CYPRESS	Trees	5	2	[0, 0, 0]	n/a	catFR1	0	R1260D
447.653	1.785	507630	REC_WORD	7.789	n/a	WILLOW	Trees	6	2	[0, 0, 0]	n/a	catFR1	0	R1260D
449.438	1.888	509415	REC_WORD	9.574	n/a	POTATO	Vegetables	8	2	[0, 0, 0]	n/a	catFR1	0	R1260D
451.326	2.76	511303	REC_WORD	11.462	n/a	CARROT	Vegetables	7	2	[0, 0, 0]	n/a	catFR1	0	R1260D
454.086	1.726	514063	REC_WORD	14.222	n/a	ARM	BodyParts	10	2	[0, 0, 0]	n/a	catFR1	0	R1260D
455.812	10.146	515788	REC_WORD	15.948	n/a	LEG	BodyParts	9	2	[0, 0, 0]	n/a	catFR1	0	R1260D
465.958	3.096	525934	REC_WORD	26.094	n/a	CABBAGE	Vegetables	3	2	[0, 0, 0]	n/a	catFR1	0	R1260D
469.054	0.356	529030	REC_WORD_VV	29.19	n/a	<>	n/a	-999	2	[0, 0, 0]	n/a	catFR1	0	R1260D
469.41	0.467	529386	REC_WORD	29.546	n/a	PEAS	Vegetables	4	2	[0, 0, 0]	n/a	catFR1	0	R1260D
469.877	5.877	529853	REC_END	n/a	n/a	n/a	n/a	-999	2	[0, 0, 0]	n/a	catFR1	0	R1260D
475.754	0.5	535729	TRIAL	n/a	n/a	n/a	n/a	-999	3	[0, 0, 0]	n/a	catFR1	0	R1260D
476.254	10.0	536229	COUNTDOWN_START	n/a	n/a	n/a	n/a	-999	3	[0, 0, 0]	n/a	catFR1	0	R1260D
486.682	0.007	546657	COUNTDOWN_END	n/a	n/a	n/a	n/a	-999	3	[0, 0, 0]	n/a	catFR1	0	R1260D
486.689	1.6	546664	ORIENT	n/a	n/a	n/a	n/a	-999	3	[0, 0, 0]	n/a	catFR1	0	R1260D
488.305	2.017	548280	ORIENT_OFF	n/a	n/a	n/a	n/a	-999	3	[0, 0, 0]	n/a	catFR1	0	R1260D
490.322	1.6	550296	WORD	n/a	wordpools/wordpool_categorized_EN.txt	BEE	Insects	1	3	[0, 0, 0]	n/a	catFR1	0	R1260D
491.923	0.9	551897	WORD_OFF	n/a	n/a	BEE	n/a	1	3	[0, 0, 0]	n/a	catFR1	0	R1260D
492.823	1.6	552797	WORD	n/a	wordpools/wordpool_categorized_EN.txt	LADYBUG	Insects	2	3	[0, 0, 0]	n/a	catFR1	0	R1260D
494.439	1.001	554413	WORD_OFF	n/a	n/a	LADYBUG	n/a	2	3	[0, 0, 0]	n/a	catFR1	0	R1260D
495.44	1.6	555414	WORD	n/a	wordpools/wordpool_categorized_EN.txt	TRUCK	Vehicles	3	3	[0, 0, 0]	n/a	catFR1	0	R1260D
497.058	0.866	557032	WORD_OFF	n/a	n/a	TRUCK	n/a	3	3	[0, 0, 0]	n/a	catFR1	0	R1260D
497.924	1.6	557898	WORD	n/a	wordpools/wordpool_categorized_EN.txt	BOAT	Vehicles	4	3	[0, 0, 0]	n/a	catFR1	0	R1260D
499.54	0.8	559514	WORD_OFF	n/a	n/a	BOAT	n/a	4	3	[0, 0, 0]	n/a	catFR1	0	R1260D
500.34	1.6	560314	WORD	n/a	wordpools/wordpool_categorized_EN.txt	COLA	Beverages	5	3	[0, 0, 0]	n/a	catFR1	0	R1260D
501.942	0.933	561916	WORD_OFF	n/a	n/a	COLA	n/a	5	3	[0, 0, 0]	n/a	catFR1	0	R1260D
502.875	1.6	562849	WORD	n/a	wordpools/wordpool_categorized_EN.txt	MILK	Beverages	6	3	[0, 0, 0]	n/a	catFR1	0	R1260D
504.491	0.884	564465	WORD_OFF	n/a	n/a	MILK	n/a	6	3	[0, 0, 0]	n/a	catFR1	0	R1260D
505.375	1.6	565349	WORD	n/a	wordpools/wordpool_categorized_EN.txt	ROACH	Insects	7	3	[0, 0, 0]	n/a	catFR1	0	R1260D
506.993	0.9	566967	WORD_OFF	n/a	n/a	ROACH	n/a	7	3	[0, 0, 0]	n/a	catFR1	0	R1260D
507.893	1.6	567867	WORD	n/a	wordpools/wordpool_categorized_EN.txt	GNAT	Insects	8	3	[0, 0, 0]	n/a	catFR1	0	R1260D
509.509	0.9	569482	WORD_OFF	n/a	n/a	GNAT	n/a	8	3	[0, 0, 0]	n/a	catFR1	0	R1260D
510.409	1.6	570382	WORD	n/a	wordpools/wordpool_categorized_EN.txt	PLANE	Vehicles	9	3	[0, 0, 0]	n/a	catFR1	0	R1260D
512.027	0.8	572000	WORD_OFF	n/a	n/a	PLANE	n/a	9	3	[0, 0, 0]	n/a	catFR1	0	R1260D
512.827	1.6	572800	WORD	n/a	wordpools/wordpool_categorized_EN.txt	BIKE	Vehicles	10	3	[0, 0, 0]	n/a	catFR1	0	R1260D
514.443	1.0	574416	WORD_OFF	n/a	n/a	BIKE	n/a	10	3	[0, 0, 0]	n/a	catFR1	0	R1260D
515.443	1.6	575416	WORD	n/a	wordpools/wordpool_categorized_EN.txt	COFFEE	Beverages	11	3	[0, 0, 0]	n/a	catFR1	0	R1260D
517.061	0.784	577034	WORD_OFF	n/a	n/a	COFFEE	n/a	11	3	[0, 0, 0]	n/a	catFR1	0	R1260D
517.845	1.6	577818	WORD	n/a	wordpools/wordpool_categorized_EN.txt	JUICE	Beverages	12	3	[0, 0, 0]	n/a	catFR1	0	R1260D
519.461	0.0	579434	WORD_OFF	n/a	n/a	JUICE	n/a	12	3	[0, 0, 0]	n/a	catFR1	0	R1260D
519.461	0.102	579434	ENCODING_END	n/a	n/a	n/a	n/a	-999	3	[0, 0, 0]	n/a	catFR1	0	R1260D
519.563	0.0	579536	DISTRACT_START	n/a	n/a	n/a	n/a	-999	3	[0, 0, 0]	n/a	catFR1	0	R1260D
519.563	0.014	579536	START	n/a	n/a	n/a	n/a	-999	3	[-999, -999, -999]	n/a	catFR1	0	R1260D
519.577	5.169	579550	PROB	5.147	n/a	n/a	n/a	-999	3	[8, 6, 2]	16.0	catFR1	0	R1260D
524.746	7.634	584719	PROB	7.608	n/a	n/a	n/a	-999	3	[3, 5, 6]	15.0	catFR1	0	R1260D
532.38	4.817	592352	PROB	4.791	n/a	n/a	n/a	-999	3	[8, 1, 6]	15.0	catFR1	0	R1260D
537.197	3.357	597169	PROB	3.357	n/a	n/a	n/a	-999	3	[8, 4, 5]	17.0	catFR1	0	R1260D
540.554	0.011	600526	STOP	n/a	n/a	n/a	n/a	-999	3	[-999, -999, -999]	n/a	catFR1	0	R1260D
540.565	0.666	600537	DISTRACT_END	n/a	n/a	n/a	n/a	-999	3	[0, 0, 0]	n/a	catFR1	0	R1260D
541.231	0.519	601203	RETRIEVAL_ORIENT	n/a	n/a	n/a	n/a	-999	3	[0, 0, 0]	n/a	catFR1	0	R1260D
541.75	4.395	601722	REC_START	n/a	n/a	n/a	n/a	-999	3	[0, 0, 0]	n/a	catFR1	0	R1260D
546.145	1.128	606116	REC_WORD	4.395	n/a	BEE	Insects	1	3	[0, 0, 0]	n/a	catFR1	0	R1260D
547.273	4.035	607244	REC_WORD	5.523	n/a	LADYBUG	Insects	2	3	[0, 0, 0]	n/a	catFR1	0	R1260D
551.308	1.566	611279	REC_WORD	9.558	n/a	BIKE	Vehicles	10	3	[0, 0, 0]	n/a	catFR1	0	R1260D
552.874	2.726	612845	REC_WORD	11.124	n/a	BOAT	Vehicles	4	3	[0, 0, 0]	n/a	catFR1	0	R1260D
555.6	2.352	615571	REC_WORD	13.85	n/a	TRUCK	Vehicles	3	3	[0, 0, 0]	n/a	catFR1	0	R1260D
557.952	2.845	617923	REC_WORD_VV	16.202	n/a	<>	n/a	-999	3	[0, 0, 0]	n/a	catFR1	0	R1260D
560.797	10.962	620768	REC_WORD_VV	19.047	n/a	<>	n/a	-999	3	[0, 0, 0]	n/a	catFR1	0	R1260D
571.759	25.317	631729	REC_END	n/a	n/a	n/a	n/a	-999	3	[0, 0, 0]	n/a	catFR1	0	R1260D
597.076	0.5	657045	TRIAL	n/a	n/a	n/a	n/a	-999	4	[0, 0, 0]	n/a	catFR1	0	R1260D
597.576	10.0	657545	COUNTDOWN_START	n/a	n/a	n/a	n/a	-999	4	[0, 0, 0]	n/a	catFR1	0	R1260D
608.004	0.007	667972	COUNTDOWN_END	n/a	n/a	n/a	n/a	-999	4	[0, 0, 0]	n/a	catFR1	0	R1260D
608.011	1.6	667979	ORIENT	n/a	n/a	n/a	n/a	-999	4	[0, 0, 0]	n/a	catFR1	0	R1260D
609.628	2.034	669596	ORIENT_OFF	n/a	n/a	n/a	n/a	-999	4	[0, 0, 0]	n/a	catFR1	0	R1260D
611.662	1.6	671630	WORD	n/a	wordpools/wordpool_categorized_EN.txt	TEA	Beverages	1	4	[0, 0, 0]	n/a	catFR1	0	R1260D
613.278	0.768	673246	WORD_OFF	n/a	n/a	TEA	n/a	1	4	[0, 0, 0]	n/a	catFR1	0	R1260D
614.046	1.6	674014	WORD	n/a	wordpools/wordpool_categorized_EN.txt	BEER	Beverages	2	4	[0, 0, 0]	n/a	catFR1	0	R1260D
615.663	0.815	675631	WORD_OFF	n/a	n/a	BEER	n/a	2	4	[0, 0, 0]	n/a	catFR1	0	R1260D
616.478	1.6	676445	WORD	n/a	wordpools/wordpool_categorized_EN.txt	SCREWDRIVER	Tools	3	4	[0, 0, 0]	n/a	catFR1	0	R1260D
618.096	0.934	678063	WORD_OFF	n/a	n/a	SCREWDRIVER	n/a	3	4	[0, 0, 0]	n/a	catFR1	0	R1260D
619.03	1.6	678997	WORD	n/a	wordpools/wordpool_categorized_EN.txt	LEVEL	Tools	4	4	[0, 0, 0]	n/a	catFR1	0	R1260D
620.647	0.949	680614	WORD_OFF	n/a	n/a	LEVEL	n/a	4	4	[0, 0, 0]	n/a	catFR1	0	R1260D
621.596	1.6	681563	WORD	n/a	wordpools/wordpool_categorized_EN.txt	PANTS	Clothing	5	4	[0, 0, 0]	n/a	catFR1	0	R1260D
623.213	0.901	683180	WORD_OFF	n/a	n/a	PANTS	n/a	5	4	[0, 0, 0]	n/a	catFR1	0	R1260D
624.114	1.6	684081	WORD	n/a	wordpools/wordpool_categorized_EN.txt	BLOUSE	Clothing	6	4	[0, 0, 0]	n/a	catFR1	0	R1260D
625.731	0.832	685698	WORD_OFF	n/a	n/a	BLOUSE	n/a	6	4	[0, 0, 0]	n/a	catFR1	0	R1260D
626.563	1.6	686530	WORD	n/a	wordpools/wordpool_categorized_EN.txt	CIDER	Beverages	7	4	[0, 0, 0]	n/a	catFR1	0	R1260D
628.18	0.967	688147	WORD_OFF	n/a	n/a	CIDER	n/a	7	4	[0, 0, 0]	n/a	catFR1	0	R1260D
629.147	1.6	689114	WORD	n/a	wordpools/wordpool_categorized_EN.txt	WATER	Beverages	8	4	[0, 0, 0]	n/a	catFR1	0	R1260D
630.765	0.95	690732	WORD_OFF	n/a	n/a	WATER	n/a	8	4	[0, 0, 0]	n/a	catFR1	0	R1260D
631.715	1.6	691682	WORD	n/a	wordpools/wordpool_categorized_EN.txt	SANDER	Tools	9	4	[0, 0, 0]	n/a	catFR1	0	R1260D
633.331	0.934	693298	WORD_OFF	n/a	n/a	SANDER	n/a	9	4	[0, 0, 0]	n/a	catFR1	0	R1260D
634.265	1.6	694231	WORD	n/a	wordpools/wordpool_categorized_EN.txt	RATCHET	Tools	10	4	[0, 0, 0]	n/a	catFR1	0	R1260D
635.866	1.0	695832	WORD_OFF	n/a	n/a	RATCHET	n/a	10	4	[0, 0, 0]	n/a	catFR1	0	R1260D
636.866	1.6	696832	WORD	n/a	wordpools/wordpool_categorized_EN.txt	SHOES	Clothing	11	4	[0, 0, 0]	n/a	catFR1	0	R1260D
638.482	0.8	698448	WORD_OFF	n/a	n/a	SHOES	n/a	11	4	[0, 0, 0]	n/a	catFR1	0	R1260D
639.282	1.6	699248	WORD	n/a	wordpools/wordpool_categorized_EN.txt	JACKET	Clothing	12	4	[0, 0, 0]	n/a	catFR1	0	R1260D
640.901	0.0	700867	ENCODING_END	n/a	n/a	n/a	n/a	-999	4	[0, 0, 0]	n/a	catFR1	0	R1260D
640.901	0.134	700867	WORD_OFF	n/a	n/a	JACKET	n/a	12	4	[0, 0, 0]	n/a	catFR1	0	R1260D
641.035	0.0	701001	DISTRACT_START	n/a	n/a	n/a	n/a	-999	4	[0, 0, 0]	n/a	catFR1	0	R1260D
641.035	0.015	701001	START	n/a	n/a	n/a	n/a	-999	4	[-999, -999, -999]	n/a	catFR1	0	R1260D
641.05	12.769	701016	PROB	12.746	n/a	n/a	n/a	-999	4	[9, 5, 7]	21.0	catFR1	0	R1260D
653.819	5.202	713784	PROB	5.176	n/a	n/a	n/a	-999	4	[7, 7, 3]	17.0	catFR1	0	R1260D
659.021	3.75	718986	PROB	3.75	n/a	n/a	n/a	-999	4	[8, 6, 1]	15.0	catFR1	0	R1260D
662.771	0.017	722736	STOP	n/a	n/a	n/a	n/a	-999	4	[-999, -999, -999]	n/a	catFR1	0	R1260D
662.788	0.632	722753	DISTRACT_END	n/a	n/a	n/a	n/a	-999	4	[0, 0, 0]	n/a	catFR1	0	R1260D
663.42	0.519	723385	RETRIEVAL_ORIENT	n/a	n/a	n/a	n/a	-999	4	[0, 0, 0]	n/a	catFR1	0	R1260D
663.939	2.218	723904	REC_START	n/a	n/a	n/a	n/a	-999	4	[0, 0, 0]	n/a	catFR1	0	R1260D
666.157	1.319	726122	REC_WORD	2.218	n/a	SCREWDRIVER	Tools	3	4	[0, 0, 0]	n/a	catFR1	0	R1260D
667.476	1.581	727441	REC_WORD	3.537	n/a	LEVEL	Tools	4	4	[0, 0, 0]	n/a	catFR1	0	R1260D
669.057	0.722	729022	REC_WORD	5.118	n/a	PANTS	Clothing	5	4	[0, 0, 0]	n/a	catFR1	0	R1260D
669.779	2.24	729743	REC_WORD	5.84	n/a	BLOUSE	Clothing	6	4	[0, 0, 0]	n/a	catFR1	0	R1260D
672.019	2.117	731983	REC_WORD_VV	8.08	n/a	<>	n/a	-999	4	[0, 0, 0]	n/a	catFR1	0	R1260D
674.136	8.885	734100	REC_WORD	10.197	n/a	SANDER	Tools	9	4	[0, 0, 0]	n/a	catFR1	0	R1260D
683.021	2.721	742985	REC_WORD_VV	19.082	n/a	<>	n/a	-999	4	[0, 0, 0]	n/a	catFR1	0	R1260D
685.742	8.207	745706	REC_WORD_VV	21.803	n/a	<>	n/a	-999	4	[0, 0, 0]	n/a	catFR1	0	R1260D
693.949	34.266	753912	REC_END	n/a	n/a	n/a	n/a	-999	4	[0, 0, 0]	n/a	catFR1	0	R1260D
728.215	0.5	788176	TRIAL	n/a	n/a	n/a	n/a	-999	5	[0, 0, 0]	n/a	catFR1	0	R1260D
728.715	10.0	788676	COUNTDOWN_START	n/a	n/a	n/a	n/a	-999	5	[0, 0, 0]	n/a	catFR1	0	R1260D
739.143	0.008	799104	COUNTDOWN_END	n/a	n/a	n/a	n/a	-999	5	[0, 0, 0]	n/a	catFR1	0	R1260D
739.151	1.6	799112	ORIENT	n/a	n/a	n/a	n/a	-999	5	[0, 0, 0]	n/a	catFR1	0	R1260D
740.769	1.849	800730	ORIENT_OFF	n/a	n/a	n/a	n/a	-999	5	[0, 0, 0]	n/a	catFR1	0	R1260D
742.618	1.6	802578	WORD	n/a	wordpools/wordpool_categorized_EN.txt	CAKE	Desserts	1	5	[0, 0, 0]	n/a	catFR1	0	R1260D
744.235	1.0	804195	WORD_OFF	n/a	n/a	CAKE	n/a	1	5	[0, 0, 0]	n/a	catFR1	0	R1260D
745.235	1.6	805195	WORD	n/a	wordpools/wordpool_categorized_EN.txt	PUDDING	Desserts	2	5	[0, 0, 0]	n/a	catFR1	0	R1260D
746.853	0.917	806813	WORD_OFF	n/a	n/a	PUDDING	n/a	2	5	[0, 0, 0]	n/a	catFR1	0	R1260D
747.77	1.6	807730	WORD	n/a	wordpools/wordpool_categorized_EN.txt	FOOT	BodyParts	3	5	[0, 0, 0]	n/a	catFR1	0	R1260D
749.386	0.95	809346	WORD_OFF	n/a	n/a	FOOT	n/a	3	5	[0, 0, 0]	n/a	catFR1	0	R1260D
750.336	1.6	810296	WORD	n/a	wordpools/wordpool_categorized_EN.txt	KNEE	BodyParts	4	5	[0, 0, 0]	n/a	catFR1	0	R1260D
751.954	0.984	811914	WORD_OFF	n/a	n/a	KNEE	n/a	4	5	[0, 0, 0]	n/a	catFR1	0	R1260D
752.938	1.6	812898	WORD	n/a	wordpools/wordpool_categorized_EN.txt	ROSE	Flowers	5	5	[0, 0, 0]	n/a	catFR1	0	R1260D
754.554	0.766	814514	WORD_OFF	n/a	n/a	ROSE	n/a	5	5	[0, 0, 0]	n/a	catFR1	0	R1260D
755.32	1.6	815280	WORD	n/a	wordpools/wordpool_categorized_EN.txt	DAISY	Flowers	6	5	[0, 0, 0]	n/a	catFR1	0	R1260D
756.938	0.867	816898	WORD_OFF	n/a	n/a	DAISY	n/a	6	5	[0, 0, 0]	n/a	catFR1	0	R1260D
757.805	1.6	817765	WORD	n/a	wordpools/wordpool_categorized_EN.txt	FINGERS	BodyParts	7	5	[0, 0, 0]	n/a	catFR1	0	R1260D
759.421	0.934	819380	WORD_OFF	n/a	n/a	FINGERS	n/a	7	5	[0, 0, 0]	n/a	catFR1	0	R1260D
760.355	1.6	820314	WORD	n/a	wordpools/wordpool_categorized_EN.txt	EAR	BodyParts	8	5	[0, 0, 0]	n/a	catFR1	0	R1260D
761.973	1.0	821932	WORD_OFF	n/a	n/a	EAR	n/a	8	5	[0, 0, 0]	n/a	catFR1	0	R1260D
762.973	1.6	822932	WORD	n/a	wordpools/wordpool_categorized_EN.txt	MOUSSE	Desserts	9	5	[0, 0, 0]	n/a	catFR1	0	R1260D
764.589	0.85	824548	WORD_OFF	n/a	n/a	MOUSSE	n/a	9	5	[0, 0, 0]	n/a	catFR1	0	R1260D
765.439	1.6	825398	WORD	n/a	wordpools/wordpool_categorized_EN.txt	JELLO	Desserts	10	5	[0, 0, 0]	n/a	catFR1	0	R1260D
767.057	0.8	827016	WORD_OFF	n/a	n/a	JELLO	n/a	10	5	[0, 0, 0]	n/a	catFR1	0	R1260D
767.857	1.6	827816	WORD	n/a	wordpools/wordpool_categorized_EN.txt	SUNFLOWER	Flowers	11	5	[0, 0, 0]	n/a	catFR1	0	R1260D
769.473	0.95	829432	WORD_OFF	n/a	n/a	SUNFLOWER	n/a	11	5	[0, 0, 0]	n/a	catFR1	0	R1260D
770.423	1.6	830382	WORD	n/a	wordpools/wordpool_categorized_EN.txt	LILY	Flowers	12	5	[0, 0, 0]	n/a	catFR1	0	R1260D
772.041	0.0	832000	ENCODING_END	n/a	n/a	n/a	n/a	-999	5	[0, 0, 0]	n/a	catFR1	0	R1260D
772.041	0.106	832000	WORD_OFF	n/a	n/a	LILY	n/a	12	5	[0, 0, 0]	n/a	catFR1	0	R1260D
772.147	0.0	832106	DISTRACT_START	n/a	n/a	n/a	n/a	-999	5	[0, 0, 0]	n/a	catFR1	0	R1260D
772.147	0.01	832106	START	n/a	n/a	n/a	n/a	-999	5	[-999, -999, -999]	n/a	catFR1	0	R1260D
772.157	6.952	832116	PROB	6.927	n/a	n/a	n/a	-999	5	[9, 6, 9]	24.0	catFR1	0	R1260D
779.109	3.584	839067	PROB	3.558	n/a	n/a	n/a	-999	5	[9, 1, 6]	16.0	catFR1	0	R1260D
782.693	5.101	842651	PROB	5.078	n/a	n/a	n/a	-999	5	[4, 3, 3]	10.0	catFR1	0	R1260D
787.794	3.201	847752	PROB	3.162	n/a	n/a	n/a	-999	5	[9, 3, 2]	14.0	catFR1	0	R1260D
790.995	3.064	850953	PROB	3.064	n/a	n/a	n/a	-999	5	[6, 5, 1]	12.0	catFR1	0	R1260D
794.059	0.02	854017	STOP	n/a	n/a	n/a	n/a	-999	5	[-999, -999, -999]	n/a	catFR1	0	R1260D
794.079	0.633	854037	DISTRACT_END	n/a	n/a	n/a	n/a	-999	5	[0, 0, 0]	n/a	catFR1	0	R1260D
794.712	0.517	854670	RETRIEVAL_ORIENT	n/a	n/a	n/a	n/a	-999	5	[0, 0, 0]	n/a	catFR1	0	R1260D
795.229	14.245	855187	REC_START	n/a	n/a	n/a	n/a	-999	5	[0, 0, 0]	n/a	catFR1	0	R1260D
809.474	0.845	869431	REC_WORD	14.245	n/a	SUNFLOWER	Flowers	11	5	[0, 0, 0]	n/a	catFR1	0	R1260D
810.319	7.661	870276	REC_WORD	15.09	n/a	LILY	Flowers	12	5	[0, 0, 0]	n/a	catFR1	0	R1260D
817.98	0.474	877936	REC_WORD	22.751	n/a	CAKE	Desserts	1	5	[0, 0, 0]	n/a	catFR1	0	R1260D
818.454	3.965	878410	REC_WORD	23.225	n/a	PUDDING	Desserts	2	5	[0, 0, 0]	n/a	catFR1	0	R1260D
822.419	1.9	882375	REC_WORD	27.19	n/a	MOUSSE	Desserts	9	5	[0, 0, 0]	n/a	catFR1	0	R1260D
824.319	0.444	884275	REC_WORD	29.09	n/a	ANT	n/a	-999	5	[0, 0, 0]	n/a	catFR1	0	R1260D
824.763	0.476	884719	REC_WORD_VV	29.534	n/a	<>	n/a	-999	5	[0, 0, 0]	n/a	catFR1	0	R1260D
825.239	10.096	885195	REC_END	n/a	n/a	n/a	n/a	-999	5	[0, 0, 0]	n/a	catFR1	0	R1260D
835.335	0.5	895290	TRIAL	n/a	n/a	n/a	n/a	-999	6	[0, 0, 0]	n/a	catFR1	0	R1260D
835.835	10.0	895790	COUNTDOWN_START	n/a	n/a	n/a	n/a	-999	6	[0, 0, 0]	n/a	catFR1	0	R1260D
846.263	0.008	906218	COUNTDOWN_END	n/a	n/a	n/a	n/a	-999	6	[0, 0, 0]	n/a	catFR1	0	R1260D
846.271	1.6	906226	ORIENT	n/a	n/a	n/a	n/a	-999	6	[0, 0, 0]	n/a	catFR1	0	R1260D
847.888	1.867	907843	ORIENT_OFF	n/a	n/a	n/a	n/a	-999	6	[0, 0, 0]	n/a	catFR1	0	R1260D
849.755	1.6	909709	WORD	n/a	wordpools/wordpool_categorized_EN.txt	FREEZER	Appliances	1	6	[0, 0, 0]	n/a	catFR1	0	R1260D
851.371	0.884	911325	WORD_OFF	n/a	n/a	FREEZER	n/a	1	6	[0, 0, 0]	n/a	catFR1	0	R1260D
852.255	1.6	912209	WORD	n/a	wordpools/wordpool_categorized_EN.txt	STOVE	Appliances	2	6	[0, 0, 0]	n/a	catFR1	0	R1260D
853.873	0.883	913827	WORD_OFF	n/a	n/a	STOVE	n/a	2	6	[0, 0, 0]	n/a	catFR1	0	R1260D
854.756	1.6	914710	WORD	n/a	wordpools/wordpool_categorized_EN.txt	HALLWAY	Building	3	6	[0, 0, 0]	n/a	catFR1	0	R1260D
856.372	1.001	916326	WORD_OFF	n/a	n/a	HALLWAY	n/a	3	6	[0, 0, 0]	n/a	catFR1	0	R1260D
857.373	1.6	917327	WORD	n/a	wordpools/wordpool_categorized_EN.txt	CEILING	Building	4	6	[0, 0, 0]	n/a	catFR1	0	R1260D
858.99	0.917	918944	WORD_OFF	n/a	n/a	CEILING	n/a	4	6	[0, 0, 0]	n/a	catFR1	0	R1260D
859.907	1.6	919861	WORD	n/a	wordpools/wordpool_categorized_EN.txt	ELM	Trees	5	6	[0, 0, 0]	n/a	catFR1	0	R1260D
861.523	0.884	921477	WORD_OFF	n/a	n/a	ELM	n/a	5	6	[0, 0, 0]	n/a	catFR1	0	R1260D
862.407	1.6	922361	WORD	n/a	wordpools/wordpool_categorized_EN.txt	OAK	Trees	6	6	[0, 0, 0]	n/a	catFR1	0	R1260D
864.025	0.916	923979	WORD_OFF	n/a	n/a	OAK	n/a	6	6	[0, 0, 0]	n/a	catFR1	0	R1260D
864.941	1.6	924895	WORD	n/a	wordpools/wordpool_categorized_EN.txt	IRON	Appliances	7	6	[0, 0, 0]	n/a	catFR1	0	R1260D
866.557	0.851	926511	WORD_OFF	n/a	n/a	IRON	n/a	7	6	[0, 0, 0]	n/a	catFR1	0	R1260D
867.408	1.6	927361	WORD	n/a	wordpools/wordpool_categorized_EN.txt	DISHWASHER	Appliances	8	6	[0, 0, 0]	n/a	catFR1	0	R1260D
869.009	0.983	928962	WORD_OFF	n/a	n/a	DISHWASHER	n/a	8	6	[0, 0, 0]	n/a	catFR1	0	R1260D
869.992	1.6	929945	WORD	n/a	wordpools/wordpool_categorized_EN.txt	ROOF	Building	9	6	[0, 0, 0]	n/a	catFR1	0	R1260D
871.608	0.817	931561	WORD_OFF	n/a	n/a	ROOF	n/a	9	6	[0, 0, 0]	n/a	catFR1	0	R1260D
872.425	1.6	932378	WORD	n/a	wordpools/wordpool_categorized_EN.txt	ATTIC	Building	10	6	[0, 0, 0]	n/a	catFR1	0	R1260D
874.043	0.834	933996	WORD_OFF	n/a	n/a	ATTIC	n/a	10	6	[0, 0, 0]	n/a	catFR1	0	R1260D
874.877	1.6	934830	WORD	n/a	wordpools/wordpool_categorized_EN.txt	EVERGREEN	Trees	11	6	[0, 0, 0]	n/a	catFR1	0	R1260D
876.493	0.783	936446	WORD_OFF	n/a	n/a	EVERGREEN	n/a	11	6	[0, 0, 0]	n/a	catFR1	0	R1260D
877.276	1.6	937229	WORD	n/a	wordpools/wordpool_categorized_EN.txt	CEDAR	Trees	12	6	[0, 0, 0]	n/a	catFR1	0	R1260D
878.894	0.0	938847	ENCODING_END	n/a	n/a	n/a	n/a	-999	6	[0, 0, 0]	n/a	catFR1	0	R1260D
878.894	0.135	938847	WORD_OFF	n/a	n/a	CEDAR	n/a	12	6	[0, 0, 0]	n/a	catFR1	0	R1260D
879.029	0.0	938982	DISTRACT_START	n/a	n/a	n/a	n/a	-999	6	[0, 0, 0]	n/a	catFR1	0	R1260D
879.029	0.015	938982	START	n/a	n/a	n/a	n/a	-999	6	[-999, -999, -999]	n/a	catFR1	0	R1260D
879.044	3.901	938997	PROB	3.871	n/a	n/a	n/a	-999	6	[1, 7, 4]	12.0	catFR1	0	R1260D
882.945	8.45	942898	PROB	8.425	n/a	n/a	n/a	-999	6	[6, 3, 7]	16.0	catFR1	0	R1260D
891.395	3.184	951347	PROB	3.16	n/a	n/a	n/a	-999	6	[1, 7, 2]	10.0	catFR1	0	R1260D
894.579	4.529	954531	PROB	4.529	n/a	n/a	n/a	-999	6	[6, 1, 1]	8.0	catFR1	0	R1260D
899.108	0.007	959060	STOP	n/a	n/a	n/a	n/a	-999	6	[-999, -999, -999]	n/a	catFR1	0	R1260D
899.115	0.633	959067	DISTRACT_END	n/a	n/a	n/a	n/a	-999	6	[0, 0, 0]	n/a	catFR1	0	R1260D
899.748	0.516	959700	RETRIEVAL_ORIENT	n/a	n/a	n/a	n/a	-999	6	[0, 0, 0]	n/a	catFR1	0	R1260D
900.264	4.925	960216	REC_START	n/a	n/a	n/a	n/a	-999	6	[0, 0, 0]	n/a	catFR1	0	R1260D
905.189	3.677	965140	REC_WORD	4.925	n/a	HALLWAY	Building	3	6	[0, 0, 0]	n/a	catFR1	0	R1260D
908.866	3.519	968817	REC_WORD	8.602	n/a	DOOR	n/a	-999	6	[0, 0, 0]	n/a	catFR1	0	R1260D
912.385	0.634	972336	REC_WORD	12.121	n/a	SPRUCE	n/a	-999	6	[0, 0, 0]	n/a	catFR1	0	R1260D
913.019	3.705	972970	REC_WORD	12.755	n/a	ELM	Trees	5	6	[0, 0, 0]	n/a	catFR1	0	R1260D
916.724	2.435	976675	REC_WORD	16.46	n/a	DAISY	n/a	-999	6	[0, 0, 0]	n/a	catFR1	0	R1260D
919.159	0.292	979110	REC_WORD_VV	18.895	n/a	<>	n/a	-999	6	[0, 0, 0]	n/a	catFR1	0	R1260D
919.451	1.534	979402	REC_WORD	19.187	n/a	ROSE	n/a	-999	6	[0, 0, 0]	n/a	catFR1	0	R1260D
920.985	9.29	980935	REC_WORD_VV	20.721	n/a	<>	n/a	-999	6	[0, 0, 0]	n/a	catFR1	0	R1260D
930.275	52.671	990225	REC_END	n/a	n/a	n/a	n/a	-999	6	[0, 0, 0]	n/a	catFR1	0	R1260D
982.946	0.5	1042893	TRIAL	n/a	n/a	n/a	n/a	-999	7	[0, 0, 0]	n/a	catFR1	0	R1260D
983.446	10.0	1043393	COUNTDOWN_START	n/a	n/a	n/a	n/a	-999	7	[0, 0, 0]	n/a	catFR1	0	R1260D
993.874	0.008	1053820	COUNTDOWN_END	n/a	n/a	n/a	n/a	-999	7	[0, 0, 0]	n/a	catFR1	0	R1260D
993.882	1.6	1053828	ORIENT	n/a	n/a	n/a	n/a	-999	7	[0, 0, 0]	n/a	catFR1	0	R1260D
995.498	2.251	1055444	ORIENT_OFF	n/a	n/a	n/a	n/a	-999	7	[0, 0, 0]	n/a	catFR1	0	R1260D
997.749	1.6	1057695	WORD	n/a	wordpools/wordpool_categorized_EN.txt	CHICKEN	FarmAnimals	1	7	[0, 0, 0]	n/a	catFR1	0	R1260D
999.365	0.95	1059311	WORD_OFF	n/a	n/a	CHICKEN	n/a	1	7	[0, 0, 0]	n/a	catFR1	0	R1260D
1000.315	1.6	1060261	WORD	n/a	wordpools/wordpool_categorized_EN.txt	COW	FarmAnimals	2	7	[0, 0, 0]	n/a	catFR1	0	R1260D
1001.933	0.767	1061879	WORD_OFF	n/a	n/a	COW	n/a	2	7	[0, 0, 0]	n/a	catFR1	0	R1260D
1002.7	1.6	1062646	WORD	n/a	wordpools/wordpool_categorized_EN.txt	BEETLE	Insects	3	7	[0, 0, 0]	n/a	catFR1	0	R1260D
1004.316	0.85	1064262	WORD_OFF	n/a	n/a	BEETLE	n/a	3	7	[0, 0, 0]	n/a	catFR1	0	R1260D
1005.166	1.6	1065112	WORD	n/a	wordpools/wordpool_categorized_EN.txt	SPIDER	Insects	4	7	[0, 0, 0]	n/a	catFR1	0	R1260D
1006.784	0.9	1066730	WORD_OFF	n/a	n/a	SPIDER	n/a	4	7	[0, 0, 0]	n/a	catFR1	0	R1260D
1007.684	1.6	1067630	WORD	n/a	wordpools/wordpool_categorized_EN.txt	DRIZZLE	Weather	5	7	[0, 0, 0]	n/a	catFR1	0	R1260D
1009.3	0.768	1069246	WORD_OFF	n/a	n/a	DRIZZLE	n/a	5	7	[0, 0, 0]	n/a	catFR1	0	R1260D
1010.068	1.6	1070014	WORD	n/a	wordpools/wordpool_categorized_EN.txt	CLOUD	Weather	6	7	[0, 0, 0]	n/a	catFR1	0	R1260D
1011.685	1.0	1071630	WORD_OFF	n/a	n/a	CLOUD	n/a	6	7	[0, 0, 0]	n/a	catFR1	0	R1260D
1012.685	1.6	1072630	WORD	n/a	wordpools/wordpool_categorized_EN.txt	CALF	FarmAnimals	7	7	[0, 0, 0]	n/a	catFR1	0	R1260D
1014.301	0.9	1074246	WORD_OFF	n/a	n/a	CALF	n/a	7	7	[0, 0, 0]	n/a	catFR1	0	R1260D
1015.201	1.6	1075146	WORD	n/a	wordpools/wordpool_categorized_EN.txt	BULL	FarmAnimals	8	7	[0, 0, 0]	n/a	catFR1	0	R1260D
1016.802	0.934	1076747	WORD_OFF	n/a	n/a	BULL	n/a	8	7	[0, 0, 0]	n/a	catFR1	0	R1260D
1017.736	1.6	1077681	WORD	n/a	wordpools/wordpool_categorized_EN.txt	BUTTERFLY	Insects	9	7	[0, 0, 0]	n/a	catFR1	0	R1260D
1019.352	0.95	1079297	WORD_OFF	n/a	n/a	BUTTERFLY	n/a	9	7	[0, 0, 0]	n/a	catFR1	0	R1260D
1020.302	1.6	1080247	WORD	n/a	wordpools/wordpool_categorized_EN.txt	FLY	Insects	10	7	[0, 0, 0]	n/a	catFR1	0	R1260D
1021.92	0.9	1081865	WORD_OFF	n/a	n/a	FLY	n/a	10	7	[0, 0, 0]	n/a	catFR1	0	R1260D
1022.82	1.6	1082765	WORD	n/a	wordpools/wordpool_categorized_EN.txt	FOG	Weather	11	7	[0, 0, 0]	n/a	catFR1	0	R1260D
1024.436	0.767	1084381	WORD_OFF	n/a	n/a	FOG	n/a	11	7	[0, 0, 0]	n/a	catFR1	0	R1260D
1025.203	1.6	1085148	WORD	n/a	wordpools/wordpool_categorized_EN.txt	HURRICANE	Weather	12	7	[0, 0, 0]	n/a	catFR1	0	R1260D
1026.821	0.0	1086766	ENCODING_END	n/a	n/a	n/a	n/a	-999	7	[0, 0, 0]	n/a	catFR1	0	R1260D
1026.821	0.131	1086766	WORD_OFF	n/a	n/a	HURRICANE	n/a	12	7	[0, 0, 0]	n/a	catFR1	0	R1260D
1026.952	0.0	1086897	DISTRACT_START	n/a	n/a	n/a	n/a	-999	7	[0, 0, 0]	n/a	catFR1	0	R1260D
1026.952	0.019	1086897	START	n/a	n/a	n/a	n/a	-999	7	[-999, -999, -999]	n/a	catFR1	0	R1260D
1026.971	73.85	1086916	PROB	73.85	n/a	n/a	n/a	-999	7	[7, 6, 8]	21.0	catFR1	0	R1260D
1100.821	0.014	1160761	STOP	n/a	n/a	n/a	n/a	-999	7	[-999, -999, -999]	n/a	catFR1	0	R1260D
1100.835	0.682	1160775	DISTRACT_END	n/a	n/a	n/a	n/a	-999	7	[0, 0, 0]	n/a	catFR1	0	R1260D
1101.517	0.519	1161457	RETRIEVAL_ORIENT	n/a	n/a	n/a	n/a	-999	7	[0, 0, 0]	n/a	catFR1	0	R1260D
1102.036	0.0	1161976	REC_START	n/a	n/a	n/a	n/a	-999	7	[0, 0, 0]	n/a	catFR1	0	R1260D
1102.036	1.646	1161976	REC_WORD_VV	0.0	n/a	<>	n/a	-999	7	[0, 0, 0]	n/a	catFR1	0	R1260D
1103.682	1.712	1163622	REC_WORD_VV	1.646	n/a	<>	n/a	-999	7	[0, 0, 0]	n/a	catFR1	0	R1260D
1105.394	1.4	1165334	REC_WORD_VV	3.358	n/a	<>	n/a	-999	7	[0, 0, 0]	n/a	catFR1	0	R1260D
1106.794	1.639	1166734	REC_WORD	4.758	n/a	COW	FarmAnimals	2	7	[0, 0, 0]	n/a	catFR1	0	R1260D
1108.433	2.803	1168373	REC_WORD_VV	6.397	n/a	<>	n/a	-999	7	[0, 0, 0]	n/a	catFR1	0	R1260D
1111.236	1.676	1171176	REC_WORD_VV	9.2	n/a	<>	n/a	-999	7	[0, 0, 0]	n/a	catFR1	0	R1260D
1112.912	1.115	1172852	REC_WORD	10.876	n/a	CALF	FarmAnimals	7	7	[0, 0, 0]	n/a	catFR1	0	R1260D
1114.027	3.808	1173967	REC_WORD_VV	11.991	n/a	<>	n/a	-999	7	[0, 0, 0]	n/a	catFR1	0	R1260D
1117.835	2.03	1177775	REC_WORD_VV	15.799	n/a	<>	n/a	-999	7	[0, 0, 0]	n/a	catFR1	0	R1260D
1119.865	0.889	1179804	REC_WORD_VV	17.829	n/a	<>	n/a	-999	7	[0, 0, 0]	n/a	catFR1	0	R1260D
1120.754	4.957	1180693	REC_WORD	18.718	n/a	BULL	FarmAnimals	8	7	[0, 0, 0]	n/a	catFR1	0	R1260D
1125.711	0.486	1185650	REC_WORD_VV	23.675	n/a	<>	n/a	-999	7	[0, 0, 0]	n/a	catFR1	0	R1260D
1126.197	3.843	1186136	REC_WORD	24.161	n/a	BEETLE	Insects	3	7	[0, 0, 0]	n/a	catFR1	0	R1260D
1130.04	0.26	1189979	REC_WORD_VV	28.004	n/a	<>	n/a	-999	7	[0, 0, 0]	n/a	catFR1	0	R1260D
1130.3	1.745	1190239	REC_WORD	28.264	n/a	BUTTERFLY	Insects	9	7	[0, 0, 0]	n/a	catFR1	0	R1260D
1132.045	69.008	1191984	REC_END	n/a	n/a	n/a	n/a	-999	7	[0, 0, 0]	n/a	catFR1	0	R1260D
1201.053	0.5	1260988	TRIAL	n/a	n/a	n/a	n/a	-999	8	[0, 0, 0]	n/a	catFR1	0	R1260D
1201.553	10.0	1261488	COUNTDOWN_START	n/a	n/a	n/a	n/a	-999	8	[0, 0, 0]	n/a	catFR1	0	R1260D
1211.981	0.007	1271915	COUNTDOWN_END	n/a	n/a	n/a	n/a	-999	8	[0, 0, 0]	n/a	catFR1	0	R1260D
1211.988	1.6	1271922	ORIENT	n/a	n/a	n/a	n/a	-999	8	[0, 0, 0]	n/a	catFR1	0	R1260D
1213.604	1.834	1273538	ORIENT_OFF	n/a	n/a	n/a	n/a	-999	8	[0, 0, 0]	n/a	catFR1	0	R1260D
1215.438	1.6	1275372	WORD	n/a	wordpools/wordpool_categorized_EN.txt	DRESS	Clothing	1	8	[0, 0, 0]	n/a	catFR1	0	R1260D
1217.056	0.85	1276990	WORD_OFF	n/a	n/a	DRESS	n/a	1	8	[0, 0, 0]	n/a	catFR1	0	R1260D
1217.906	1.6	1277840	WORD	n/a	wordpools/wordpool_categorized_EN.txt	UNDERWEAR	Clothing	2	8	[0, 0, 0]	n/a	catFR1	0	R1260D
1219.522	1.017	1279456	WORD_OFF	n/a	n/a	UNDERWEAR	n/a	2	8	[0, 0, 0]	n/a	catFR1	0	R1260D
1220.539	1.6	1280473	WORD	n/a	wordpools/wordpool_categorized_EN.txt	CRICKET	Insects	3	8	[0, 0, 0]	n/a	catFR1	0	R1260D
1222.156	0.968	1282090	WORD_OFF	n/a	n/a	CRICKET	n/a	3	8	[0, 0, 0]	n/a	catFR1	0	R1260D
1223.124	1.6	1283058	WORD	n/a	wordpools/wordpool_categorized_EN.txt	MOSQUITO	Insects	4	8	[0, 0, 0]	n/a	catFR1	0	R1260D
1224.741	0.849	1284675	WORD_OFF	n/a	n/a	MOSQUITO	n/a	4	8	[0, 0, 0]	n/a	catFR1	0	R1260D
1225.59	1.6	1285524	WORD	n/a	wordpools/wordpool_categorized_EN.txt	VALLEY	Landscapes	5	8	[0, 0, 0]	n/a	catFR1	0	R1260D
1227.207	0.768	1287140	WORD_OFF	n/a	n/a	VALLEY	n/a	5	8	[0, 0, 0]	n/a	catFR1	0	R1260D
1227.975	1.6	1287908	WORD	n/a	wordpools/wordpool_categorized_EN.txt	RIVER	Landscapes	6	8	[0, 0, 0]	n/a	catFR1	0	R1260D
1229.591	0.866	1289524	WORD_OFF	n/a	n/a	RIVER	n/a	6	8	[0, 0, 0]	n/a	catFR1	0	R1260D
1230.457	1.6	1290390	WORD	n/a	wordpools/wordpool_categorized_EN.txt	SOCKS	Clothing	7	8	[0, 0, 0]	n/a	catFR1	0	R1260D
1232.058	0.818	1291991	WORD_OFF	n/a	n/a	SOCKS	n/a	7	8	[0, 0, 0]	n/a	catFR1	0	R1260D
1232.876	1.6	1292809	WORD	n/a	wordpools/wordpool_categorized_EN.txt	COAT	Clothing	8	8	[0, 0, 0]	n/a	catFR1	0	R1260D
1234.491	0.934	1294424	WORD_OFF	n/a	n/a	COAT	n/a	8	8	[0, 0, 0]	n/a	catFR1	0	R1260D
1235.425	1.6	1295358	WORD	n/a	wordpools/wordpool_categorized_EN.txt	ANT	Insects	9	8	[0, 0, 0]	n/a	catFR1	0	R1260D
1237.043	0.95	1296976	WORD_OFF	n/a	n/a	ANT	n/a	9	8	[0, 0, 0]	n/a	catFR1	0	R1260D
1237.993	1.6	1297926	WORD	n/a	wordpools/wordpool_categorized_EN.txt	MOTH	Insects	10	8	[0, 0, 0]	n/a	catFR1	0	R1260D
1239.609	0.8	1299542	WORD_OFF	n/a	n/a	MOTH	n/a	10	8	[0, 0, 0]	n/a	catFR1	0	R1260D
1240.409	1.6	1300342	WORD	n/a	wordpools/wordpool_categorized_EN.txt	FOREST	Landscapes	11	8	[0, 0, 0]	n/a	catFR1	0	R1260D
1242.027	1.017	1301960	WORD_OFF	n/a	n/a	FOREST	n/a	11	8	[0, 0, 0]	n/a	catFR1	0	R1260D
1243.044	1.6	1302977	WORD	n/a	wordpools/wordpool_categorized_EN.txt	LAKE	Landscapes	12	8	[0, 0, 0]	n/a	catFR1	0	R1260D
1244.661	0.0	1304593	WORD_OFF	n/a	n/a	LAKE	n/a	12	8	[0, 0, 0]	n/a	catFR1	0	R1260D
1244.661	0.104	1304593	ENCODING_END	n/a	n/a	n/a	n/a	-999	8	[0, 0, 0]	n/a	catFR1	0	R1260D
1244.765	0.0	1304697	DISTRACT_START	n/a	n/a	n/a	n/a	-999	8	[0, 0, 0]	n/a	catFR1	0	R1260D
1244.765	0.013	1304697	START	n/a	n/a	n/a	n/a	-999	8	[-999, -999, -999]	n/a	catFR1	0	R1260D
1244.778	5.75	1304710	PROB	5.721	n/a	n/a	n/a	-999	8	[9, 4, 7]	20.0	catFR1	0	R1260D
1250.528	4.218	1310460	PROB	4.195	n/a	n/a	n/a	-999	8	[8, 4, 8]	16.0	catFR1	0	R1260D
1254.746	4.918	1314678	PROB	4.891	n/a	n/a	n/a	-999	8	[8, 5, 3]	16.0	catFR1	0	R1260D
1259.664	4.616	1319596	PROB	4.579	n/a	n/a	n/a	-999	8	[7, 6, 6]	19.0	catFR1	0	R1260D
1264.28	6.276	1324211	PROB	6.276	n/a	n/a	n/a	-999	8	[7, 9, 3]	19.0	catFR1	0	R1260D
1270.556	0.009	1330487	STOP	n/a	n/a	n/a	n/a	-999	8	[-999, -999, -999]	n/a	catFR1	0	R1260D
1270.565	0.518	1330496	DISTRACT_END	n/a	n/a	n/a	n/a	-999	8	[0, 0, 0]	n/a	catFR1	0	R1260D
1271.083	0.516	1331014	RETRIEVAL_ORIENT	n/a	n/a	n/a	n/a	-999	8	[0, 0, 0]	n/a	catFR1	0	R1260D
1271.599	1.683	1331530	REC_START	n/a	n/a	n/a	n/a	-999	8	[0, 0, 0]	n/a	catFR1	0	R1260D
1273.282	4.121	1333213	REC_WORD	1.683	n/a	DRESS	Clothing	1	8	[0, 0, 0]	n/a	catFR1	0	R1260D
1277.403	5.934	1337334	REC_WORD	5.804	n/a	UNDERWEAR	Clothing	2	8	[0, 0, 0]	n/a	catFR1	0	R1260D
1283.337	6.088	1343267	REC_WORD	11.738	n/a	MOSQUITO	Insects	4	8	[0, 0, 0]	n/a	catFR1	0	R1260D
1289.425	0.9	1349355	REC_WORD_VV	17.826	n/a	<>	n/a	-999	8	[0, 0, 0]	n/a	catFR1	0	R1260D
1290.325	4.069	1350255	REC_WORD	18.726	n/a	FOREST	Landscapes	11	8	[0, 0, 0]	n/a	catFR1	0	R1260D
1294.394	3.106	1354324	REC_WORD	22.795	n/a	COAT	Clothing	8	8	[0, 0, 0]	n/a	catFR1	0	R1260D
1297.5	1.822	1357430	REC_WORD	25.901	n/a	GLOVE	n/a	-999	8	[0, 0, 0]	n/a	catFR1	0	R1260D
1299.322	2.287	1359251	REC_WORD	27.723	n/a	BOOT	n/a	-999	8	[0, 0, 0]	n/a	catFR1	0	R1260D
1301.609	9.763	1361538	REC_END	n/a	n/a	n/a	n/a	-999	8	[0, 0, 0]	n/a	catFR1	0	R1260D
1311.372	0.5	1371301	TRIAL	n/a	n/a	n/a	n/a	-999	9	[0, 0, 0]	n/a	catFR1	0	R1260D
1311.872	10.0	1371801	COUNTDOWN_START	n/a	n/a	n/a	n/a	-999	9	[0, 0, 0]	n/a	catFR1	0	R1260D
1322.3	0.008	1382228	COUNTDOWN_END	n/a	n/a	n/a	n/a	-999	9	[0, 0, 0]	n/a	catFR1	0	R1260D
1322.308	1.6	1382236	ORIENT	n/a	n/a	n/a	n/a	-999	9	[0, 0, 0]	n/a	catFR1	0	R1260D
1323.926	2.017	1383854	ORIENT_OFF	n/a	n/a	n/a	n/a	-999	9	[0, 0, 0]	n/a	catFR1	0	R1260D
1325.943	1.6	1385871	WORD	n/a	wordpools/wordpool_categorized_EN.txt	GRATER	KitchenTools	1	9	[0, 0, 0]	n/a	catFR1	0	R1260D
1327.559	0.95	1387487	WORD_OFF	n/a	n/a	GRATER	n/a	1	9	[0, 0, 0]	n/a	catFR1	0	R1260D
1328.509	1.6	1388437	WORD	n/a	wordpools/wordpool_categorized_EN.txt	TONGS	KitchenTools	2	9	[0, 0, 0]	n/a	catFR1	0	R1260D
1330.127	0.867	1390055	WORD_OFF	n/a	n/a	TONGS	n/a	2	9	[0, 0, 0]	n/a	catFR1	0	R1260D
1330.994	1.6	1390922	WORD	n/a	wordpools/wordpool_categorized_EN.txt	WINE	Beverages	3	9	[0, 0, 0]	n/a	catFR1	0	R1260D
1332.61	0.966	1392538	WORD_OFF	n/a	n/a	WINE	n/a	3	9	[0, 0, 0]	n/a	catFR1	0	R1260D
1333.576	1.6	1393503	WORD	n/a	wordpools/wordpool_categorized_EN.txt	RUM	Beverages	4	9	[0, 0, 0]	n/a	catFR1	0	R1260D
1335.193	0.868	1395120	WORD_OFF	n/a	n/a	RUM	n/a	4	9	[0, 0, 0]	n/a	catFR1	0	R1260D
1336.061	1.6	1395988	WORD	n/a	wordpools/wordpool_categorized_EN.txt	BEACH	Landscapes	5	9	[0, 0, 0]	n/a	catFR1	0	R1260D
1337.678	0.95	1397605	WORD_OFF	n/a	n/a	BEACH	n/a	5	9	[0, 0, 0]	n/a	catFR1	0	R1260D
1338.628	1.6	1398555	WORD	n/a	wordpools/wordpool_categorized_EN.txt	HILLS	Landscapes	6	9	[0, 0, 0]	n/a	catFR1	0	R1260D
1340.244	0.95	1400171	WORD_OFF	n/a	n/a	HILLS	n/a	6	9	[0, 0, 0]	n/a	catFR1	0	R1260D
1341.194	1.6	1401121	WORD	n/a	wordpools/wordpool_categorized_EN.txt	STRAINER	KitchenTools	7	9	[0, 0, 0]	n/a	catFR1	0	R1260D
1342.812	0.967	1402739	WORD_OFF	n/a	n/a	STRAINER	n/a	7	9	[0, 0, 0]	n/a	catFR1	0	R1260D
1343.779	1.6	1403706	WORD	n/a	wordpools/wordpool_categorized_EN.txt	KNIFE	KitchenTools	8	9	[0, 0, 0]	n/a	catFR1	0	R1260D
1345.395	0.784	1405322	WORD_OFF	n/a	n/a	KNIFE	n/a	8	9	[0, 0, 0]	n/a	catFR1	0	R1260D
1346.179	1.6	1406106	WORD	n/a	wordpools/wordpool_categorized_EN.txt	LEMONADE	Beverages	9	9	[0, 0, 0]	n/a	catFR1	0	R1260D
1347.797	0.85	1407724	WORD_OFF	n/a	n/a	LEMONADE	n/a	9	9	[0, 0, 0]	n/a	catFR1	0	R1260D
1348.647	1.6	1408574	WORD	n/a	wordpools/wordpool_categorized_EN.txt	SODA	Beverages	10	9	[0, 0, 0]	n/a	catFR1	0	R1260D
1350.263	0.834	1410190	WORD_OFF	n/a	n/a	SODA	n/a	10	9	[0, 0, 0]	n/a	catFR1	0	R1260D
1351.097	1.6	1411024	WORD	n/a	wordpools/wordpool_categorized_EN.txt	MOUNTAIN	Landscapes	11	9	[0, 0, 0]	n/a	catFR1	0	R1260D
1352.714	0.849	1412640	WORD_OFF	n/a	n/a	MOUNTAIN	n/a	11	9	[0, 0, 0]	n/a	catFR1	0	R1260D
1353.563	1.6	1413489	WORD	n/a	wordpools/wordpool_categorized_EN.txt	ISLAND	Landscapes	12	9	[0, 0, 0]	n/a	catFR1	0	R1260D
1355.18	0.0	1415106	ENCODING_END	n/a	n/a	n/a	n/a	-999	9	[0, 0, 0]	n/a	catFR1	0	R1260D
1355.18	0.132	1415106	WORD_OFF	n/a	n/a	ISLAND	n/a	12	9	[0, 0, 0]	n/a	catFR1	0	R1260D
1355.312	0.0	1415238	DISTRACT_START	n/a	n/a	n/a	n/a	-999	9	[0, 0, 0]	n/a	catFR1	0	R1260D
1355.312	0.018	1415238	START	n/a	n/a	n/a	n/a	-999	9	[-999, -999, -999]	n/a	catFR1	0	R1260D
1355.33	3.752	1415256	PROB	3.715	n/a	n/a	n/a	-999	9	[2, 8, 8]	12.0	catFR1	0	R1260D
1359.082	7.935	1419008	PROB	7.907	n/a	n/a	n/a	-999	9	[5, 3, 9]	17.0	catFR1	0	R1260D
1367.017	6.283	1426943	PROB	6.249	n/a	n/a	n/a	-999	9	[9, 7, 2]	18.0	catFR1	0	R1260D
1373.3	3.615	1433225	PROB	3.615	n/a	n/a	n/a	-999	9	[1, 5, 6]	12.0	catFR1	0	R1260D
1376.915	0.021	1436840	STOP	n/a	n/a	n/a	n/a	-999	9	[-999, -999, -999]	n/a	catFR1	0	R1260D
1376.936	0.582	1436861	DISTRACT_END	n/a	n/a	n/a	n/a	-999	9	[0, 0, 0]	n/a	catFR1	0	R1260D
1377.518	0.518	1437443	RETRIEVAL_ORIENT	n/a	n/a	n/a	n/a	-999	9	[0, 0, 0]	n/a	catFR1	0	R1260D
1378.036	1.43	1437961	REC_START	n/a	n/a	n/a	n/a	-999	9	[0, 0, 0]	n/a	catFR1	0	R1260D
1379.466	1.491	1439391	REC_WORD	1.43	n/a	GRATER	KitchenTools	1	9	[0, 0, 0]	n/a	catFR1	0	R1260D
1380.957	2.983	1440882	REC_WORD	2.921	n/a	TONGS	KitchenTools	2	9	[0, 0, 0]	n/a	catFR1	0	R1260D
1383.94	0.452	1443865	REC_WORD_VV	5.904	n/a	<>	n/a	-999	9	[0, 0, 0]	n/a	catFR1	0	R1260D
1384.392	4.415	1444317	REC_WORD	6.356	n/a	LEMONADE	Beverages	9	9	[0, 0, 0]	n/a	catFR1	0	R1260D
1388.807	7.263	1448731	REC_WORD	10.771	n/a	RUM	Beverages	4	9	[0, 0, 0]	n/a	catFR1	0	R1260D
1396.07	0.793	1455994	REC_WORD_VV	18.034	n/a	<>	n/a	-999	9	[0, 0, 0]	n/a	catFR1	0	R1260D
1396.863	4.645	1456787	REC_WORD_VV	18.827	n/a	<>	n/a	-999	9	[0, 0, 0]	n/a	catFR1	0	R1260D
1401.508	5.523	1461432	REC_WORD	23.472	n/a	ISLAND	Landscapes	12	9	[0, 0, 0]	n/a	catFR1	0	R1260D
1407.031	1.015	1466954	REC_WORD	28.995	n/a	COLA	n/a	-999	9	[0, 0, 0]	n/a	catFR1	0	R1260D
1408.046	29.183	1467969	REC_END	n/a	n/a	n/a	n/a	-999	9	[0, 0, 0]	n/a	catFR1	0	R1260D
1437.229	0.5	1497151	TRIAL	n/a	n/a	n/a	n/a	-999	10	[0, 0, 0]	n/a	catFR1	0	R1260D
1437.729	10.0	1497651	COUNTDOWN_START	n/a	n/a	n/a	n/a	-999	10	[0, 0, 0]	n/a	catFR1	0	R1260D
1448.157	0.007	1508078	COUNTDOWN_END	n/a	n/a	n/a	n/a	-999	10	[0, 0, 0]	n/a	catFR1	0	R1260D
1448.164	1.6	1508085	ORIENT	n/a	n/a	n/a	n/a	-999	10	[0, 0, 0]	n/a	catFR1	0	R1260D
1449.782	2.3	1509703	ORIENT_OFF	n/a	n/a	n/a	n/a	-999	10	[0, 0, 0]	n/a	catFR1	0	R1260D
1452.082	1.6	1512003	WORD	n/a	wordpools/wordpool_categorized_EN.txt	CREEK	Landscapes	1	10	[0, 0, 0]	n/a	catFR1	0	R1260D
1453.699	0.916	1513620	WORD_OFF	n/a	n/a	CREEK	n/a	1	10	[0, 0, 0]	n/a	catFR1	0	R1260D
1454.615	1.6	1514536	WORD	n/a	wordpools/wordpool_categorized_EN.txt	STREAM	Landscapes	2	10	[0, 0, 0]	n/a	catFR1	0	R1260D
1456.232	0.818	1516153	WORD_OFF	n/a	n/a	STREAM	n/a	2	10	[0, 0, 0]	n/a	catFR1	0	R1260D
1457.05	1.6	1516971	WORD	n/a	wordpools/wordpool_categorized_EN.txt	DOLL	Toys	3	10	[0, 0, 0]	n/a	catFR1	0	R1260D
1458.667	0.866	1518588	WORD_OFF	n/a	n/a	DOLL	n/a	3	10	[0, 0, 0]	n/a	catFR1	0	R1260D
1459.533	1.6	1519453	WORD	n/a	wordpools/wordpool_categorized_EN.txt	FRISBEE	Toys	4	10	[0, 0, 0]	n/a	catFR1	0	R1260D
1461.15	0.918	1521070	WORD_OFF	n/a	n/a	FRISBEE	n/a	4	10	[0, 0, 0]	n/a	catFR1	0	R1260D
1462.068	1.6	1521988	WORD	n/a	wordpools/wordpool_categorized_EN.txt	BLENDER	Appliances	5	10	[0, 0, 0]	n/a	catFR1	0	R1260D
1463.685	0.966	1523605	WORD_OFF	n/a	n/a	BLENDER	n/a	5	10	[0, 0, 0]	n/a	catFR1	0	R1260D
1464.651	1.6	1524571	WORD	n/a	wordpools/wordpool_categorized_EN.txt	MIXER	Appliances	6	10	[0, 0, 0]	n/a	catFR1	0	R1260D
1466.267	0.984	1526187	WORD_OFF	n/a	n/a	MIXER	n/a	6	10	[0, 0, 0]	n/a	catFR1	0	R1260D
1467.251	1.6	1527171	WORD	n/a	wordpools/wordpool_categorized_EN.txt	WOODS	Landscapes	7	10	[0, 0, 0]	n/a	catFR1	0	R1260D
1468.869	0.867	1528789	WORD_OFF	n/a	n/a	WOODS	n/a	7	10	[0, 0, 0]	n/a	catFR1	0	R1260D
1469.736	1.6	1529656	WORD	n/a	wordpools/wordpool_categorized_EN.txt	OCEAN	Landscapes	8	10	[0, 0, 0]	n/a	catFR1	0	R1260D
1471.352	0.883	1531272	WORD_OFF	n/a	n/a	OCEAN	n/a	8	10	[0, 0, 0]	n/a	catFR1	0	R1260D
1472.235	1.6	1532155	WORD	n/a	wordpools/wordpool_categorized_EN.txt	BALL	Toys	9	10	[0, 0, 0]	n/a	catFR1	0	R1260D
1473.853	1.0	1533773	WORD_OFF	n/a	n/a	BALL	n/a	9	10	[0, 0, 0]	n/a	catFR1	0	R1260D
1474.853	1.6	1534773	WORD	n/a	wordpools/wordpool_categorized_EN.txt	MARBLES	Toys	10	10	[0, 0, 0]	n/a	catFR1	0	R1260D
1476.469	0.967	1536389	WORD_OFF	n/a	n/a	MARBLES	n/a	10	10	[0, 0, 0]	n/a	catFR1	0	R1260D
1477.436	1.6	1537355	WORD	n/a	wordpools/wordpool_categorized_EN.txt	WASHER	Appliances	11	10	[0, 0, 0]	n/a	catFR1	0	R1260D
1479.037	0.884	1538956	WORD_OFF	n/a	n/a	WASHER	n/a	11	10	[0, 0, 0]	n/a	catFR1	0	R1260D
1479.921	1.6	1539840	WORD	n/a	wordpools/wordpool_categorized_EN.txt	DRYER	Appliances	12	10	[0, 0, 0]	n/a	catFR1	0	R1260D
1481.537	0.0	1541456	ENCODING_END	n/a	n/a	n/a	n/a	-999	10	[0, 0, 0]	n/a	catFR1	0	R1260D
1481.537	0.102	1541456	WORD_OFF	n/a	n/a	DRYER	n/a	12	10	[0, 0, 0]	n/a	catFR1	0	R1260D
1481.639	0.0	1541558	DISTRACT_START	n/a	n/a	n/a	n/a	-999	10	[0, 0, 0]	n/a	catFR1	0	R1260D
1481.639	0.016	1541558	START	n/a	n/a	n/a	n/a	-999	10	[-999, -999, -999]	n/a	catFR1	0	R1260D
1481.655	4.733	1541574	PROB	4.7	n/a	n/a	n/a	-999	10	[3, 1, 3]	7.0	catFR1	0	R1260D
1486.388	4.234	1546307	PROB	4.2	n/a	n/a	n/a	-999	10	[6, 4, 1]	11.0	catFR1	0	R1260D
1490.622	3.784	1550541	PROB	3.757	n/a	n/a	n/a	-999	10	[1, 6, 1]	8.0	catFR1	0	R1260D
1494.406	4.285	1554325	PROB	4.246	n/a	n/a	n/a	-999	10	[8, 4, 9]	21.0	catFR1	0	R1260D
1498.691	7.416	1558609	PROB	7.416	n/a	n/a	n/a	-999	10	[4, 5, 6]	15.0	catFR1	0	R1260D
1506.107	0.019	1566025	STOP	n/a	n/a	n/a	n/a	-999	10	[-999, -999, -999]	n/a	catFR1	0	R1260D
1506.126	0.616	1566044	DISTRACT_END	n/a	n/a	n/a	n/a	-999	10	[0, 0, 0]	n/a	catFR1	0	R1260D
1506.742	0.517	1566660	RETRIEVAL_ORIENT	n/a	n/a	n/a	n/a	-999	10	[0, 0, 0]	n/a	catFR1	0	R1260D
1507.259	1.266	1567177	REC_START	n/a	n/a	n/a	n/a	-999	10	[0, 0, 0]	n/a	catFR1	0	R1260D
1508.525	3.393	1568443	REC_WORD_VV	1.266	n/a	<>	n/a	-999	10	[0, 0, 0]	n/a	catFR1	0	R1260D
1511.918	2.01	1571836	REC_WORD	4.659	n/a	STREAM	Landscapes	2	10	[0, 0, 0]	n/a	catFR1	0	R1260D
1513.928	7.318	1573845	REC_WORD	6.669	n/a	CREEK	Landscapes	1	10	[0, 0, 0]	n/a	catFR1	0	R1260D
1521.246	2.988	1581163	REC_WORD_VV	13.987	n/a	<>	n/a	-999	10	[0, 0, 0]	n/a	catFR1	0	R1260D
1524.234	1.602	1584151	REC_WORD	16.975	n/a	FRISBEE	Toys	4	10	[0, 0, 0]	n/a	catFR1	0	R1260D
1525.836	1.194	1585753	REC_WORD	18.577	n/a	BALL	Toys	9	10	[0, 0, 0]	n/a	catFR1	0	R1260D
1527.03	1.696	1586947	REC_WORD_VV	19.771	n/a	<>	n/a	-999	10	[0, 0, 0]	n/a	catFR1	0	R1260D
1528.726	1.396	1588643	REC_WORD_VV	21.467	n/a	<>	n/a	-999	10	[0, 0, 0]	n/a	catFR1	0	R1260D
1530.122	1.91	1590039	REC_WORD	22.863	n/a	MARBLES	Toys	10	10	[0, 0, 0]	n/a	catFR1	0	R1260D
1532.032	3.823	1591948	REC_WORD	24.773	n/a	WASHER	Appliances	11	10	[0, 0, 0]	n/a	catFR1	0	R1260D
1535.855	1.414	1595771	REC_WORD_VV	28.596	n/a	<>	n/a	-999	10	[0, 0, 0]	n/a	catFR1	0	R1260D
1537.269	13.08	1597185	REC_END	n/a	n/a	n/a	n/a	-999	10	[0, 0, 0]	n/a	catFR1	0	R1260D
1550.349	0.5	1610264	TRIAL	n/a	n/a	n/a	n/a	-999	11	[0, 0, 0]	n/a	catFR1	0	R1260D
1550.849	10.0	1610764	COUNTDOWN_START	n/a	n/a	n/a	n/a	-999	11	[0, 0, 0]	n/a	catFR1	0	R1260D
1561.277	0.008	1621192	COUNTDOWN_END	n/a	n/a	n/a	n/a	-999	11	[0, 0, 0]	n/a	catFR1	0	R1260D
1561.285	1.6	1621200	ORIENT	n/a	n/a	n/a	n/a	-999	11	[0, 0, 0]	n/a	catFR1	0	R1260D
1562.903	2.167	1622818	ORIENT_OFF	n/a	n/a	n/a	n/a	-999	11	[0, 0, 0]	n/a	catFR1	0	R1260D
1565.07	1.6	1624985	WORD	n/a	wordpools/wordpool_categorized_EN.txt	DRILL	Tools	1	11	[0, 0, 0]	n/a	catFR1	0	R1260D
1566.687	0.832	1626602	WORD_OFF	n/a	n/a	DRILL	n/a	1	11	[0, 0, 0]	n/a	catFR1	0	R1260D
1567.519	1.6	1627433	WORD	n/a	wordpools/wordpool_categorized_EN.txt	SAW	Tools	2	11	[0, 0, 0]	n/a	catFR1	0	R1260D
1569.12	0.934	1629034	WORD_OFF	n/a	n/a	SAW	n/a	2	11	[0, 0, 0]	n/a	catFR1	0	R1260D
1570.054	1.6	1629968	WORD	n/a	wordpools/wordpool_categorized_EN.txt	CABINET	Furniture	3	11	[0, 0, 0]	n/a	catFR1	0	R1260D
1571.671	0.882	1631585	WORD_OFF	n/a	n/a	CABINET	n/a	3	11	[0, 0, 0]	n/a	catFR1	0	R1260D
1572.553	1.6	1632467	WORD	n/a	wordpools/wordpool_categorized_EN.txt	BED	Furniture	4	11	[0, 0, 0]	n/a	catFR1	0	R1260D
1574.17	1.001	1634084	WORD_OFF	n/a	n/a	BED	n/a	4	11	[0, 0, 0]	n/a	catFR1	0	R1260D
1575.171	1.6	1635085	WORD	n/a	wordpools/wordpool_categorized_EN.txt	BASEBALL	Toys	5	11	[0, 0, 0]	n/a	catFR1	0	R1260D
1576.789	0.85	1636703	WORD_OFF	n/a	n/a	BASEBALL	n/a	5	11	[0, 0, 0]	n/a	catFR1	0	R1260D
1577.639	1.6	1637553	WORD	n/a	wordpools/wordpool_categorized_EN.txt	DOLLHOUSE	Toys	6	11	[0, 0, 0]	n/a	catFR1	0	R1260D
1579.255	0.818	1639169	WORD_OFF	n/a	n/a	DOLLHOUSE	n/a	6	11	[0, 0, 0]	n/a	catFR1	0	R1260D
1580.073	1.6	1639987	WORD	n/a	wordpools/wordpool_categorized_EN.txt	AXE	Tools	7	11	[0, 0, 0]	n/a	catFR1	0	R1260D
1581.69	0.815	1641604	WORD_OFF	n/a	n/a	AXE	n/a	7	11	[0, 0, 0]	n/a	catFR1	0	R1260D
1582.505	1.6	1642419	WORD	n/a	wordpools/wordpool_categorized_EN.txt	SHOVEL	Tools	8	11	[0, 0, 0]	n/a	catFR1	0	R1260D
1584.106	0.934	1644020	WORD_OFF	n/a	n/a	SHOVEL	n/a	8	11	[0, 0, 0]	n/a	catFR1	0	R1260D
1585.04	1.6	1644953	WORD	n/a	wordpools/wordpool_categorized_EN.txt	CHAIR	Furniture	9	11	[0, 0, 0]	n/a	catFR1	0	R1260D
1586.657	0.899	1646570	WORD_OFF	n/a	n/a	CHAIR	n/a	9	11	[0, 0, 0]	n/a	catFR1	0	R1260D
1587.556	1.6	1647469	WORD	n/a	wordpools/wordpool_categorized_EN.txt	SHELF	Furniture	10	11	[0, 0, 0]	n/a	catFR1	0	R1260D
1589.173	0.785	1649086	WORD_OFF	n/a	n/a	SHELF	n/a	10	11	[0, 0, 0]	n/a	catFR1	0	R1260D
1589.958	1.6	1649871	WORD	n/a	wordpools/wordpool_categorized_EN.txt	FOOTBALL	Toys	11	11	[0, 0, 0]	n/a	catFR1	0	R1260D
1591.574	0.933	1651487	WORD_OFF	n/a	n/a	FOOTBALL	n/a	11	11	[0, 0, 0]	n/a	catFR1	0	R1260D
1592.507	1.6	1652420	WORD	n/a	wordpools/wordpool_categorized_EN.txt	BASKETBALL	Toys	12	11	[0, 0, 0]	n/a	catFR1	0	R1260D
1594.125	0.0	1654038	ENCODING_END	n/a	n/a	n/a	n/a	-999	11	[0, 0, 0]	n/a	catFR1	0	R1260D
1594.125	0.102	1654038	WORD_OFF	n/a	n/a	BASKETBALL	n/a	12	11	[0, 0, 0]	n/a	catFR1	0	R1260D
1594.227	0.0	1654140	DISTRACT_START	n/a	n/a	n/a	n/a	-999	11	[0, 0, 0]	n/a	catFR1	0	R1260D
1594.227	0.014	1654140	START	n/a	n/a	n/a	n/a	-999	11	[-999, -999, -999]	n/a	catFR1	0	R1260D
1594.241	5.518	1654154	PROB	5.484	n/a	n/a	n/a	-999	11	[4, 9, 1]	14.0	catFR1	0	R1260D
1599.759	3.667	1659672	PROB	3.629	n/a	n/a	n/a	-999	11	[2, 1, 2]	5.0	catFR1	0	R1260D
1603.426	4.452	1663338	PROB	4.425	n/a	n/a	n/a	-999	11	[8, 4, 6]	18.0	catFR1	0	R1260D
1607.878	3.267	1667790	PROB	3.229	n/a	n/a	n/a	-999	11	[4, 6, 9]	19.0	catFR1	0	R1260D
1611.145	5.017	1671057	PROB	5.017	n/a	n/a	n/a	-999	11	[6, 2, 8]	16.0	catFR1	0	R1260D
1616.162	0.016	1676074	STOP	n/a	n/a	n/a	n/a	-999	11	[-999, -999, -999]	n/a	catFR1	0	R1260D
1616.178	0.685	1676090	DISTRACT_END	n/a	n/a	n/a	n/a	-999	11	[0, 0, 0]	n/a	catFR1	0	R1260D
1616.863	0.516	1676775	RETRIEVAL_ORIENT	n/a	n/a	n/a	n/a	-999	11	[0, 0, 0]	n/a	catFR1	0	R1260D
1617.379	2.914	1677291	REC_START	n/a	n/a	n/a	n/a	-999	11	[0, 0, 0]	n/a	catFR1	0	R1260D
1620.293	1.063	1680205	REC_WORD	2.914	n/a	FOOTBALL	Toys	11	11	[0, 0, 0]	n/a	catFR1	0	R1260D
1621.356	2.471	1681267	REC_WORD	3.977	n/a	BASEBALL	Toys	5	11	[0, 0, 0]	n/a	catFR1	0	R1260D
1623.827	1.556	1683738	REC_WORD	6.448	n/a	DOLL	n/a	-999	11	[0, 0, 0]	n/a	catFR1	0	R1260D
1625.383	7.568	1685294	REC_WORD	8.004	n/a	DOLLHOUSE	Toys	6	11	[0, 0, 0]	n/a	catFR1	0	R1260D
1632.951	0.577	1692862	REC_WORD_VV	15.572	n/a	<>	n/a	-999	11	[0, 0, 0]	n/a	catFR1	0	R1260D
1633.528	7.089	1693439	REC_WORD	16.149	n/a	AXE	Tools	7	11	[0, 0, 0]	n/a	catFR1	0	R1260D
1640.617	4.703	1700527	REC_WORD_VV	23.238	n/a	<>	n/a	-999	11	[0, 0, 0]	n/a	catFR1	0	R1260D
1645.32	0.959	1705230	REC_WORD	27.941	n/a	BEDROOM	n/a	-999	11	[0, 0, 0]	n/a	catFR1	0	R1260D
1646.279	1.11	1706189	REC_WORD_VV	28.9	n/a	<>	n/a	-999	11	[0, 0, 0]	n/a	catFR1	0	R1260D
1647.389	9.314	1707299	REC_END	n/a	n/a	n/a	n/a	-999	11	[0, 0, 0]	n/a	catFR1	0	R1260D
1656.703	0.5	1716612	TRIAL	n/a	n/a	n/a	n/a	-999	12	[0, 0, 0]	n/a	catFR1	0	R1260D
1657.203	10.0	1717112	COUNTDOWN_START	n/a	n/a	n/a	n/a	-999	12	[0, 0, 0]	n/a	catFR1	0	R1260D
1667.631	0.008	1727540	COUNTDOWN_END	n/a	n/a	n/a	n/a	-999	12	[0, 0, 0]	n/a	catFR1	0	R1260D
1667.639	1.6	1727548	ORIENT	n/a	n/a	n/a	n/a	-999	12	[0, 0, 0]	n/a	catFR1	0	R1260D
1669.254	1.951	1729163	ORIENT_OFF	n/a	n/a	n/a	n/a	-999	12	[0, 0, 0]	n/a	catFR1	0	R1260D
1671.205	1.6	1731114	WORD	n/a	wordpools/wordpool_categorized_EN.txt	BATHROOM	Building	1	12	[0, 0, 0]	n/a	catFR1	0	R1260D
1672.823	0.9	1732732	WORD_OFF	n/a	n/a	BATHROOM	n/a	1	12	[0, 0, 0]	n/a	catFR1	0	R1260D
1673.723	1.6	1733632	WORD	n/a	wordpools/wordpool_categorized_EN.txt	WINDOW	Building	2	12	[0, 0, 0]	n/a	catFR1	0	R1260D
1675.339	0.834	1735247	WORD_OFF	n/a	n/a	WINDOW	n/a	2	12	[0, 0, 0]	n/a	catFR1	0	R1260D
1676.173	1.6	1736081	WORD	n/a	wordpools/wordpool_categorized_EN.txt	CHEETAH	Zoo	3	12	[0, 0, 0]	n/a	catFR1	0	R1260D
1677.79	0.867	1737698	WORD_OFF	n/a	n/a	CHEETAH	n/a	3	12	[0, 0, 0]	n/a	catFR1	0	R1260D
1678.657	1.6	1738565	WORD	n/a	wordpools/wordpool_categorized_EN.txt	MONKEY	Zoo	4	12	[0, 0, 0]	n/a	catFR1	0	R1260D
1680.273	0.818	1740181	WORD_OFF	n/a	n/a	MONKEY	n/a	4	12	[0, 0, 0]	n/a	catFR1	0	R1260D
1681.091	1.6	1740999	WORD	n/a	wordpools/wordpool_categorized_EN.txt	SHORTS	Clothing	5	12	[0, 0, 0]	n/a	catFR1	0	R1260D
1682.708	0.95	1742616	WORD_OFF	n/a	n/a	SHORTS	n/a	5	12	[0, 0, 0]	n/a	catFR1	0	R1260D
1683.658	1.6	1743566	WORD	n/a	wordpools/wordpool_categorized_EN.txt	SHIRT	Clothing	6	12	[0, 0, 0]	n/a	catFR1	0	R1260D
1685.274	0.917	1745182	WORD_OFF	n/a	n/a	SHIRT	n/a	6	12	[0, 0, 0]	n/a	catFR1	0	R1260D
1686.191	1.6	1746099	WORD	n/a	wordpools/wordpool_categorized_EN.txt	BEAR	Zoo	7	12	[0, 0, 0]	n/a	catFR1	0	R1260D
1687.809	0.917	1747717	WORD_OFF	n/a	n/a	BEAR	n/a	7	12	[0, 0, 0]	n/a	catFR1	0	R1260D
1688.726	1.6	1748634	WORD	n/a	wordpools/wordpool_categorized_EN.txt	ELEPHANT	Zoo	8	12	[0, 0, 0]	n/a	catFR1	0	R1260D
1690.342	0.833	1750250	WORD_OFF	n/a	n/a	ELEPHANT	n/a	8	12	[0, 0, 0]	n/a	catFR1	0	R1260D
1691.175	1.6	1751083	WORD	n/a	wordpools/wordpool_categorized_EN.txt	FOUNDATION	Building	9	12	[0, 0, 0]	n/a	catFR1	0	R1260D
1692.793	0.867	1752700	WORD_OFF	n/a	n/a	FOUNDATION	n/a	9	12	[0, 0, 0]	n/a	catFR1	0	R1260D
1693.66	1.6	1753567	WORD	n/a	wordpools/wordpool_categorized_EN.txt	DOOR	Building	10	12	[0, 0, 0]	n/a	catFR1	0	R1260D
1695.276	0.801	1755183	WORD_OFF	n/a	n/a	DOOR	n/a	10	12	[0, 0, 0]	n/a	catFR1	0	R1260D
1696.077	1.6	1755984	WORD	n/a	wordpools/wordpool_categorized_EN.txt	SKIRT	Clothing	11	12	[0, 0, 0]	n/a	catFR1	0	R1260D
1697.694	0.849	1757601	WORD_OFF	n/a	n/a	SKIRT	n/a	11	12	[0, 0, 0]	n/a	catFR1	0	R1260D
1698.543	1.6	1758450	WORD	n/a	wordpools/wordpool_categorized_EN.txt	JEANS	Clothing	12	12	[0, 0, 0]	n/a	catFR1	0	R1260D
1700.16	0.0	1760067	ENCODING_END	n/a	n/a	n/a	n/a	-999	12	[0, 0, 0]	n/a	catFR1	0	R1260D
1700.16	0.133	1760067	WORD_OFF	n/a	n/a	JEANS	n/a	12	12	[0, 0, 0]	n/a	catFR1	0	R1260D
1700.293	0.0	1760200	DISTRACT_START	n/a	n/a	n/a	n/a	-999	12	[0, 0, 0]	n/a	catFR1	0	R1260D
1700.293	0.017	1760200	START	n/a	n/a	n/a	n/a	-999	12	[-999, -999, -999]	n/a	catFR1	0	R1260D
1700.31	6.336	1760217	PROB	6.3	n/a	n/a	n/a	-999	12	[1, 3, 7]	11.0	catFR1	0	R1260D
1706.646	6.867	1766553	PROB	6.829	n/a	n/a	n/a	-999	12	[5, 4, 6]	15.0	catFR1	0	R1260D
1713.513	4.817	1773419	PROB	4.794	n/a	n/a	n/a	-999	12	[9, 9, 6]	24.0	catFR1	0	R1260D
1718.33	7.913	1778236	PROB	7.913	n/a	n/a	n/a	-999	12	[8, 3, 4]	15.0	catFR1	0	R1260D
1726.243	0.005	1786149	STOP	n/a	n/a	n/a	n/a	-999	12	[-999, -999, -999]	n/a	catFR1	0	R1260D
1726.248	0.568	1786154	DISTRACT_END	n/a	n/a	n/a	n/a	-999	12	[0, 0, 0]	n/a	catFR1	0	R1260D
1726.816	0.516	1786722	RETRIEVAL_ORIENT	n/a	n/a	n/a	n/a	-999	12	[0, 0, 0]	n/a	catFR1	0	R1260D
1727.332	2.044	1787238	REC_START	n/a	n/a	n/a	n/a	-999	12	[0, 0, 0]	n/a	catFR1	0	R1260D
1729.376	1.374	1789281	REC_WORD	2.044	n/a	BATHROOM	Building	1	12	[0, 0, 0]	n/a	catFR1	0	R1260D
1730.75	1.74	1790655	REC_WORD	3.418	n/a	WINDOW	Building	2	12	[0, 0, 0]	n/a	catFR1	0	R1260D
1732.49	4.34	1792395	REC_WORD	5.158	n/a	CHEETAH	Zoo	3	12	[0, 0, 0]	n/a	catFR1	0	R1260D
1736.83	3.141	1796735	REC_WORD	9.498	n/a	SKIRT	Clothing	11	12	[0, 0, 0]	n/a	catFR1	0	R1260D
1739.971	1.703	1799876	REC_WORD	12.639	n/a	SHORTS	Clothing	5	12	[0, 0, 0]	n/a	catFR1	0	R1260D
1741.674	11.268	1801579	REC_WORD	14.342	n/a	SHIRT	Clothing	6	12	[0, 0, 0]	n/a	catFR1	0	R1260D
1752.942	4.401	1812846	REC_WORD	25.61	n/a	FOUNDATION	Building	9	12	[0, 0, 0]	n/a	catFR1	0	R1260D
1757.343	28.25	1817247	REC_END	n/a	n/a	n/a	n/a	-999	12	[0, 0, 0]	n/a	catFR1	0	R1260D
1785.593	0.5	1845495	TRIAL	n/a	n/a	n/a	n/a	-999	13	[0, 0, 0]	n/a	catFR1	0	R1260D
1786.093	10.0	1845995	COUNTDOWN_START	n/a	n/a	n/a	n/a	-999	13	[0, 0, 0]	n/a	catFR1	0	R1260D
1796.521	0.007	1856423	COUNTDOWN_END	n/a	n/a	n/a	n/a	-999	13	[0, 0, 0]	n/a	catFR1	0	R1260D
1796.528	1.6	1856430	ORIENT	n/a	n/a	n/a	n/a	-999	13	[0, 0, 0]	n/a	catFR1	0	R1260D
1798.129	2.266	1858031	ORIENT_OFF	n/a	n/a	n/a	n/a	-999	13	[0, 0, 0]	n/a	catFR1	0	R1260D
1800.395	1.6	1860296	WORD	n/a	wordpools/wordpool_categorized_EN.txt	CORKSCREW	KitchenTools	1	13	[0, 0, 0]	n/a	catFR1	0	R1260D
1802.013	0.95	1861914	WORD_OFF	n/a	n/a	CORKSCREW	n/a	1	13	[0, 0, 0]	n/a	catFR1	0	R1260D
1802.963	1.6	1862864	WORD	n/a	wordpools/wordpool_categorized_EN.txt	FORK	KitchenTools	2	13	[0, 0, 0]	n/a	catFR1	0	R1260D
1804.579	1.017	1864480	WORD_OFF	n/a	n/a	FORK	n/a	2	13	[0, 0, 0]	n/a	catFR1	0	R1260D
1805.596	1.6	1865497	WORD	n/a	wordpools/wordpool_categorized_EN.txt	HICKORY	Trees	3	13	[0, 0, 0]	n/a	catFR1	0	R1260D
1807.213	0.967	1867114	WORD_OFF	n/a	n/a	HICKORY	n/a	3	13	[0, 0, 0]	n/a	catFR1	0	R1260D
1808.18	1.6	1868081	WORD	n/a	wordpools/wordpool_categorized_EN.txt	MAPLE	Trees	4	13	[0, 0, 0]	n/a	catFR1	0	R1260D
1809.798	0.983	1869699	WORD_OFF	n/a	n/a	MAPLE	n/a	4	13	[0, 0, 0]	n/a	catFR1	0	R1260D
1810.781	1.6	1870682	WORD	n/a	wordpools/wordpool_categorized_EN.txt	SHEEP	FarmAnimals	5	13	[0, 0, 0]	n/a	catFR1	0	R1260D
1812.397	1.001	1872298	WORD_OFF	n/a	n/a	SHEEP	n/a	5	13	[0, 0, 0]	n/a	catFR1	0	R1260D
1813.398	1.6	1873299	WORD	n/a	wordpools/wordpool_categorized_EN.txt	GOAT	FarmAnimals	6	13	[0, 0, 0]	n/a	catFR1	0	R1260D
1815.016	0.933	1874917	WORD_OFF	n/a	n/a	GOAT	n/a	6	13	[0, 0, 0]	n/a	catFR1	0	R1260D
1815.949	1.6	1875850	WORD	n/a	wordpools/wordpool_categorized_EN.txt	WALNUT	Trees	7	13	[0, 0, 0]	n/a	catFR1	0	R1260D
1817.565	0.817	1877466	WORD_OFF	n/a	n/a	WALNUT	n/a	7	13	[0, 0, 0]	n/a	catFR1	0	R1260D
1818.382	1.6	1878282	WORD	n/a	wordpools/wordpool_categorized_EN.txt	BIRCH	Trees	8	13	[0, 0, 0]	n/a	catFR1	0	R1260D
1820.0	0.917	1879900	WORD_OFF	n/a	n/a	BIRCH	n/a	8	13	[0, 0, 0]	n/a	catFR1	0	R1260D
1820.917	1.6	1880817	WORD	n/a	wordpools/wordpool_categorized_EN.txt	LADLE	KitchenTools	9	13	[0, 0, 0]	n/a	catFR1	0	R1260D
1822.533	0.85	1882433	WORD_OFF	n/a	n/a	LADLE	n/a	9	13	[0, 0, 0]	n/a	catFR1	0	R1260D
1823.383	1.6	1883283	WORD	n/a	wordpools/wordpool_categorized_EN.txt	PEELER	KitchenTools	10	13	[0, 0, 0]	n/a	catFR1	0	R1260D
1825.001	1.0	1884901	WORD_OFF	n/a	n/a	PEELER	n/a	10	13	[0, 0, 0]	n/a	catFR1	0	R1260D
1826.001	1.6	1885901	WORD	n/a	wordpools/wordpool_categorized_EN.txt	LAMB	FarmAnimals	11	13	[0, 0, 0]	n/a	catFR1	0	R1260D
1827.617	0.9	1887517	WORD_OFF	n/a	n/a	LAMB	n/a	11	13	[0, 0, 0]	n/a	catFR1	0	R1260D
1828.517	1.6	1888417	WORD	n/a	wordpools/wordpool_categorized_EN.txt	ROOSTER	FarmAnimals	12	13	[0, 0, 0]	n/a	catFR1	0	R1260D
1830.135	0.0	1890035	ENCODING_END	n/a	n/a	n/a	n/a	-999	13	[0, 0, 0]	n/a	catFR1	0	R1260D
1830.135	0.099	1890035	WORD_OFF	n/a	n/a	ROOSTER	n/a	12	13	[0, 0, 0]	n/a	catFR1	0	R1260D
1830.234	0.0	1890134	DISTRACT_START	n/a	n/a	n/a	n/a	-999	13	[0, 0, 0]	n/a	catFR1	0	R1260D
1830.234	0.017	1890134	START	n/a	n/a	n/a	n/a	-999	13	[-999, -999, -999]	n/a	catFR1	0	R1260D
1830.251	6.652	1890151	PROB	6.617	n/a	n/a	n/a	-999	13	[7, 7, 6]	20.0	catFR1	0	R1260D
1836.903	5.667	1896802	PROB	5.628	n/a	n/a	n/a	-999	13	[9, 1, 4]	14.0	catFR1	0	R1260D
1842.57	3.201	1902469	PROB	3.162	n/a	n/a	n/a	-999	13	[9, 4, 1]	14.0	catFR1	0	R1260D
1845.771	5.241	1905670	PROB	5.241	n/a	n/a	n/a	-999	13	[5, 3, 6]	14.0	catFR1	0	R1260D
1851.012	0.01	1910911	STOP	n/a	n/a	n/a	n/a	-999	13	[-999, -999, -999]	n/a	catFR1	0	R1260D
1851.022	0.583	1910921	DISTRACT_END	n/a	n/a	n/a	n/a	-999	13	[0, 0, 0]	n/a	catFR1	0	R1260D
1851.605	0.518	1911504	RETRIEVAL_ORIENT	n/a	n/a	n/a	n/a	-999	13	[0, 0, 0]	n/a	catFR1	0	R1260D
1852.123	0.96	1912022	REC_START	n/a	n/a	n/a	n/a	-999	13	[0, 0, 0]	n/a	catFR1	0	R1260D
1853.083	4.255	1912982	REC_WORD	0.96	n/a	CORKSCREW	KitchenTools	1	13	[0, 0, 0]	n/a	catFR1	0	R1260D
1857.338	0.543	1917236	REC_WORD_VV	5.215	n/a	<>	n/a	-999	13	[0, 0, 0]	n/a	catFR1	0	R1260D
1857.881	2.938	1917779	REC_WORD	5.758	n/a	LADLE	KitchenTools	9	13	[0, 0, 0]	n/a	catFR1	0	R1260D
1860.819	3.024	1920717	REC_WORD	8.696	n/a	SHEEP	FarmAnimals	5	13	[0, 0, 0]	n/a	catFR1	0	R1260D
1863.843	2.447	1923741	REC_WORD	11.72	n/a	DOG	n/a	-999	13	[0, 0, 0]	n/a	catFR1	0	R1260D
1866.29	4.652	1926188	REC_WORD_VV	14.167	n/a	<>	n/a	-999	13	[0, 0, 0]	n/a	catFR1	0	R1260D
1870.942	4.384	1930840	REC_WORD_VV	18.819	n/a	<>	n/a	-999	13	[0, 0, 0]	n/a	catFR1	0	R1260D
1875.326	6.806	1935223	REC_WORD	23.203	n/a	LAMB	FarmAnimals	11	13	[0, 0, 0]	n/a	catFR1	0	R1260D
1882.132	10.163	1942029	REC_END	n/a	n/a	n/a	n/a	-999	13	[0, 0, 0]	n/a	catFR1	0	R1260D
1892.295	0.5	1952191	TRIAL	n/a	n/a	n/a	n/a	-999	14	[0, 0, 0]	n/a	catFR1	0	R1260D
1892.795	10.0	1952691	COUNTDOWN_START	n/a	n/a	n/a	n/a	-999	14	[0, 0, 0]	n/a	catFR1	0	R1260D
1903.223	0.008	1963119	COUNTDOWN_END	n/a	n/a	n/a	n/a	-999	14	[0, 0, 0]	n/a	catFR1	0	R1260D
1903.231	1.6	1963127	ORIENT	n/a	n/a	n/a	n/a	-999	14	[0, 0, 0]	n/a	catFR1	0	R1260D
1904.832	2.117	1964728	ORIENT_OFF	n/a	n/a	n/a	n/a	-999	14	[0, 0, 0]	n/a	catFR1	0	R1260D
1906.949	1.6	1966845	WORD	n/a	wordpools/wordpool_categorized_EN.txt	BLOCKS	Toys	1	14	[0, 0, 0]	n/a	catFR1	0	R1260D
1908.565	0.784	1968460	WORD_OFF	n/a	n/a	BLOCKS	n/a	1	14	[0, 0, 0]	n/a	catFR1	0	R1260D
1909.349	1.6	1969244	WORD	n/a	wordpools/wordpool_categorized_EN.txt	SLINKY	Toys	2	14	[0, 0, 0]	n/a	catFR1	0	R1260D
1910.967	0.783	1970862	WORD_OFF	n/a	n/a	SLINKY	n/a	2	14	[0, 0, 0]	n/a	catFR1	0	R1260D
1911.75	1.6	1971645	WORD	n/a	wordpools/wordpool_categorized_EN.txt	ERASER	OfficeSupplies	3	14	[0, 0, 0]	n/a	catFR1	0	R1260D
1913.366	0.8	1973261	WORD_OFF	n/a	n/a	ERASER	n/a	3	14	[0, 0, 0]	n/a	catFR1	0	R1260D
1914.166	1.6	1974061	WORD	n/a	wordpools/wordpool_categorized_EN.txt	TAPE	OfficeSupplies	4	14	[0, 0, 0]	n/a	catFR1	0	R1260D
1915.784	0.85	1975679	WORD_OFF	n/a	n/a	TAPE	n/a	4	14	[0, 0, 0]	n/a	catFR1	0	R1260D
1916.634	1.6	1976529	WORD	n/a	wordpools/wordpool_categorized_EN.txt	TORNADO	Weather	5	14	[0, 0, 0]	n/a	catFR1	0	R1260D
1918.25	0.967	1978145	WORD_OFF	n/a	n/a	TORNADO	n/a	5	14	[0, 0, 0]	n/a	catFR1	0	R1260D
1919.217	1.6	1979112	WORD	n/a	wordpools/wordpool_categorized_EN.txt	SNOW	Weather	6	14	[0, 0, 0]	n/a	catFR1	0	R1260D
1920.835	0.817	1980730	WORD_OFF	n/a	n/a	SNOW	n/a	6	14	[0, 0, 0]	n/a	catFR1	0	R1260D
1921.652	1.6	1981547	WORD	n/a	wordpools/wordpool_categorized_EN.txt	BARBIE	Toys	7	14	[0, 0, 0]	n/a	catFR1	0	R1260D
1923.268	0.834	1983163	WORD_OFF	n/a	n/a	BARBIE	n/a	7	14	[0, 0, 0]	n/a	catFR1	0	R1260D
1924.102	1.6	1983997	WORD	n/a	wordpools/wordpool_categorized_EN.txt	PUZZLE	Toys	8	14	[0, 0, 0]	n/a	catFR1	0	R1260D
1925.719	0.799	1985613	WORD_OFF	n/a	n/a	PUZZLE	n/a	8	14	[0, 0, 0]	n/a	catFR1	0	R1260D
1926.518	1.6	1986412	WORD	n/a	wordpools/wordpool_categorized_EN.txt	PAPER	OfficeSupplies	9	14	[0, 0, 0]	n/a	catFR1	0	R1260D
1928.136	0.767	1988030	WORD_OFF	n/a	n/a	PAPER	n/a	9	14	[0, 0, 0]	n/a	catFR1	0	R1260D
1928.903	1.6	1988797	WORD	n/a	wordpools/wordpool_categorized_EN.txt	NOTEBOOK	OfficeSupplies	10	14	[0, 0, 0]	n/a	catFR1	0	R1260D
1930.519	0.85	1990413	WORD_OFF	n/a	n/a	NOTEBOOK	n/a	10	14	[0, 0, 0]	n/a	catFR1	0	R1260D
1931.369	1.6	1991263	WORD	n/a	wordpools/wordpool_categorized_EN.txt	RAIN	Weather	11	14	[0, 0, 0]	n/a	catFR1	0	R1260D
1932.97	0.834	1992864	WORD_OFF	n/a	n/a	RAIN	n/a	11	14	[0, 0, 0]	n/a	catFR1	0	R1260D
1933.804	1.6	1993698	WORD	n/a	wordpools/wordpool_categorized_EN.txt	THUNDER	Weather	12	14	[0, 0, 0]	n/a	catFR1	0	R1260D
1935.42	0.0	1995314	ENCODING_END	n/a	n/a	n/a	n/a	-999	14	[0, 0, 0]	n/a	catFR1	0	R1260D
1935.42	0.1	1995314	WORD_OFF	n/a	n/a	THUNDER	n/a	12	14	[0, 0, 0]	n/a	catFR1	0	R1260D
1935.52	0.0	1995414	DISTRACT_START	n/a	n/a	n/a	n/a	-999	14	[0, 0, 0]	n/a	catFR1	0	R1260D
1935.52	0.017	1995414	START	n/a	n/a	n/a	n/a	-999	14	[-999, -999, -999]	n/a	catFR1	0	R1260D
1935.537	3.451	1995431	PROB	3.428	n/a	n/a	n/a	-999	14	[5, 1, 6]	12.0	catFR1	0	R1260D
1938.988	4.151	1998882	PROB	4.113	n/a	n/a	n/a	-999	14	[8, 1, 9]	18.0	catFR1	0	R1260D
1943.139	3.316	2003033	PROB	3.287	n/a	n/a	n/a	-999	14	[1, 9, 1]	11.0	catFR1	0	R1260D
1946.455	5.436	2006348	PROB	5.413	n/a	n/a	n/a	-999	14	[4, 6, 9]	19.0	catFR1	0	R1260D
1951.891	4.696	2011784	PROB	4.696	n/a	n/a	n/a	-999	14	[6, 3, 6]	15.0	catFR1	0	R1260D
1956.587	0.021	2016480	STOP	n/a	n/a	n/a	n/a	-999	14	[-999, -999, -999]	n/a	catFR1	0	R1260D
1956.608	0.549	2016501	DISTRACT_END	n/a	n/a	n/a	n/a	-999	14	[0, 0, 0]	n/a	catFR1	0	R1260D
1957.157	0.519	2017050	RETRIEVAL_ORIENT	n/a	n/a	n/a	n/a	-999	14	[0, 0, 0]	n/a	catFR1	0	R1260D
1957.676	4.285	2017569	REC_START	n/a	n/a	n/a	n/a	-999	14	[0, 0, 0]	n/a	catFR1	0	R1260D
1961.961	6.107	2021853	REC_WORD	4.285	n/a	BARBIE	Toys	7	14	[0, 0, 0]	n/a	catFR1	0	R1260D
1968.068	4.33	2027960	REC_WORD	10.392	n/a	TORNADO	Weather	5	14	[0, 0, 0]	n/a	catFR1	0	R1260D
1972.398	6.557	2032290	REC_WORD_VV	14.722	n/a	<>	n/a	-999	14	[0, 0, 0]	n/a	catFR1	0	R1260D
1978.955	8.73	2038847	REC_WORD_VV	21.279	n/a	<>	n/a	-999	14	[0, 0, 0]	n/a	catFR1	0	R1260D
1987.685	62.974	2047576	REC_END	n/a	n/a	n/a	n/a	-999	14	[0, 0, 0]	n/a	catFR1	0	R1260D
2050.659	0.5	2110547	TRIAL	n/a	n/a	n/a	n/a	-999	15	[0, 0, 0]	n/a	catFR1	0	R1260D
2051.159	10.0	2111047	COUNTDOWN_START	n/a	n/a	n/a	n/a	-999	15	[0, 0, 0]	n/a	catFR1	0	R1260D
2061.587	0.006	2121474	COUNTDOWN_END	n/a	n/a	n/a	n/a	-999	15	[0, 0, 0]	n/a	catFR1	0	R1260D
2061.593	1.6	2121480	ORIENT	n/a	n/a	n/a	n/a	-999	15	[0, 0, 0]	n/a	catFR1	0	R1260D
2063.21	2.0	2123097	ORIENT_OFF	n/a	n/a	n/a	n/a	-999	15	[0, 0, 0]	n/a	catFR1	0	R1260D
2065.21	1.6	2125097	WORD	n/a	wordpools/wordpool_categorized_EN.txt	TRUMPET	Instruments	1	15	[0, 0, 0]	n/a	catFR1	0	R1260D
2066.828	0.801	2126715	WORD_OFF	n/a	n/a	TRUMPET	n/a	1	15	[0, 0, 0]	n/a	catFR1	0	R1260D
2067.629	1.6	2127516	WORD	n/a	wordpools/wordpool_categorized_EN.txt	CELLO	Instruments	2	15	[0, 0, 0]	n/a	catFR1	0	R1260D
2069.245	0.884	2129131	WORD_OFF	n/a	n/a	CELLO	n/a	2	15	[0, 0, 0]	n/a	catFR1	0	R1260D
2070.129	1.6	2130015	WORD	n/a	wordpools/wordpool_categorized_EN.txt	SPEAKER	Electronics	3	15	[0, 0, 0]	n/a	catFR1	0	R1260D
2071.746	0.967	2131632	WORD_OFF	n/a	n/a	SPEAKER	n/a	3	15	[0, 0, 0]	n/a	catFR1	0	R1260D
2072.713	1.6	2132599	WORD	n/a	wordpools/wordpool_categorized_EN.txt	PRINTER	Electronics	4	15	[0, 0, 0]	n/a	catFR1	0	R1260D
2074.329	0.95	2134215	WORD_OFF	n/a	n/a	PRINTER	n/a	4	15	[0, 0, 0]	n/a	catFR1	0	R1260D
2075.279	1.6	2135165	WORD	n/a	wordpools/wordpool_categorized_EN.txt	PIGEON	Birds	5	15	[0, 0, 0]	n/a	catFR1	0	R1260D
2076.897	1.0	2136783	WORD_OFF	n/a	n/a	PIGEON	n/a	5	15	[0, 0, 0]	n/a	catFR1	0	R1260D
2077.897	1.6	2137783	WORD	n/a	wordpools/wordpool_categorized_EN.txt	GOOSE	Birds	6	15	[0, 0, 0]	n/a	catFR1	0	R1260D
2079.513	0.817	2139399	WORD_OFF	n/a	n/a	GOOSE	n/a	6	15	[0, 0, 0]	n/a	catFR1	0	R1260D
2080.33	1.6	2140216	WORD	n/a	wordpools/wordpool_categorized_EN.txt	TABLET	Electronics	7	15	[0, 0, 0]	n/a	catFR1	0	R1260D
2081.948	0.933	2141834	WORD_OFF	n/a	n/a	TABLET	n/a	7	15	[0, 0, 0]	n/a	catFR1	0	R1260D
2082.881	1.6	2142767	WORD	n/a	wordpools/wordpool_categorized_EN.txt	COMPUTER	Electronics	8	15	[0, 0, 0]	n/a	catFR1	0	R1260D
2084.497	0.85	2144383	WORD_OFF	n/a	n/a	COMPUTER	n/a	8	15	[0, 0, 0]	n/a	catFR1	0	R1260D
2085.347	1.6	2145233	WORD	n/a	wordpools/wordpool_categorized_EN.txt	VIOLIN	Instruments	9	15	[0, 0, 0]	n/a	catFR1	0	R1260D
2086.965	0.967	2146851	WORD_OFF	n/a	n/a	VIOLIN	n/a	9	15	[0, 0, 0]	n/a	catFR1	0	R1260D
2087.932	1.6	2147817	WORD	n/a	wordpools/wordpool_categorized_EN.txt	PIANO	Instruments	10	15	[0, 0, 0]	n/a	catFR1	0	R1260D
2089.548	0.767	2149433	WORD_OFF	n/a	n/a	PIANO	n/a	10	15	[0, 0, 0]	n/a	catFR1	0	R1260D
2090.315	1.6	2150200	WORD	n/a	wordpools/wordpool_categorized_EN.txt	CROW	Birds	11	15	[0, 0, 0]	n/a	catFR1	0	R1260D
2091.933	0.95	2151818	WORD_OFF	n/a	n/a	CROW	n/a	11	15	[0, 0, 0]	n/a	catFR1	0	R1260D
2092.883	1.6	2152768	WORD	n/a	wordpools/wordpool_categorized_EN.txt	ROBIN	Birds	12	15	[0, 0, 0]	n/a	catFR1	0	R1260D
2094.499	0.0	2154384	ENCODING_END	n/a	n/a	n/a	n/a	-999	15	[0, 0, 0]	n/a	catFR1	0	R1260D
2094.499	0.136	2154384	WORD_OFF	n/a	n/a	ROBIN	n/a	12	15	[0, 0, 0]	n/a	catFR1	0	R1260D
2094.635	0.0	2154520	DISTRACT_START	n/a	n/a	n/a	n/a	-999	15	[0, 0, 0]	n/a	catFR1	0	R1260D
2094.635	0.015	2154520	START	n/a	n/a	n/a	n/a	-999	15	[-999, -999, -999]	n/a	catFR1	0	R1260D
2094.65	4.101	2154535	PROB	4.073	n/a	n/a	n/a	-999	15	[1, 4, 8]	13.0	catFR1	0	R1260D
2098.751	3.251	2158636	PROB	3.212	n/a	n/a	n/a	-999	15	[2, 5, 4]	11.0	catFR1	0	R1260D
2102.002	3.917	2161887	PROB	3.889	n/a	n/a	n/a	-999	15	[6, 6, 4]	16.0	catFR1	0	R1260D
2105.919	3.7	2165803	PROB	3.676	n/a	n/a	n/a	-999	15	[9, 4, 4]	17.0	catFR1	0	R1260D
2109.619	5.719	2169503	PROB	5.719	n/a	n/a	n/a	-999	15	[9, 7, 6]	22.0	catFR1	0	R1260D
2115.338	0.015	2175222	STOP	n/a	n/a	n/a	n/a	-999	15	[-999, -999, -999]	n/a	catFR1	0	R1260D
2115.353	0.584	2175237	DISTRACT_END	n/a	n/a	n/a	n/a	-999	15	[0, 0, 0]	n/a	catFR1	0	R1260D
2115.937	0.517	2175821	RETRIEVAL_ORIENT	n/a	n/a	n/a	n/a	-999	15	[0, 0, 0]	n/a	catFR1	0	R1260D
2116.454	2.271	2176338	REC_START	n/a	n/a	n/a	n/a	-999	15	[0, 0, 0]	n/a	catFR1	0	R1260D
2118.725	0.545	2178609	REC_WORD	2.271	n/a	COW	n/a	-999	15	[0, 0, 0]	n/a	catFR1	0	R1260D
2119.27	0.059	2179154	REC_WORD_VV	2.816	n/a	<>	n/a	-999	15	[0, 0, 0]	n/a	catFR1	0	R1260D
2119.329	3.076	2179213	REC_WORD	2.875	n/a	GOOSE	Birds	6	15	[0, 0, 0]	n/a	catFR1	0	R1260D
2122.405	4.304	2182289	REC_WORD_VV	5.951	n/a	<>	n/a	-999	15	[0, 0, 0]	n/a	catFR1	0	R1260D
2126.709	0.252	2186592	REC_WORD_VV	10.255	n/a	<>	n/a	-999	15	[0, 0, 0]	n/a	catFR1	0	R1260D
2126.961	2.426	2186844	REC_WORD	10.507	n/a	VIOLIN	Instruments	9	15	[0, 0, 0]	n/a	catFR1	0	R1260D
2129.387	0.541	2189270	REC_WORD_VV	12.933	n/a	<>	n/a	-999	15	[0, 0, 0]	n/a	catFR1	0	R1260D
2129.928	3.356	2189811	REC_WORD	13.474	n/a	TRUMPET	Instruments	1	15	[0, 0, 0]	n/a	catFR1	0	R1260D
2133.284	3.764	2193167	REC_WORD	16.83	n/a	CELLO	Instruments	2	15	[0, 0, 0]	n/a	catFR1	0	R1260D
2137.048	9.156	2196931	REC_WORD_VV	20.594	n/a	<>	n/a	-999	15	[0, 0, 0]	n/a	catFR1	0	R1260D
2146.204	0.26	2206086	REC_WORD_VV	29.75	n/a	<>	n/a	-999	15	[0, 0, 0]	n/a	catFR1	0	R1260D
2146.464	12.88	2206346	REC_END	n/a	n/a	n/a	n/a	-999	15	[0, 0, 0]	n/a	catFR1	0	R1260D
2159.344	0.5	2219225	TRIAL	n/a	n/a	n/a	n/a	-999	16	[0, 0, 0]	n/a	catFR1	0	R1260D
2159.844	10.0	2219725	COUNTDOWN_START	n/a	n/a	n/a	n/a	-999	16	[0, 0, 0]	n/a	catFR1	0	R1260D
2170.272	0.008	2230153	COUNTDOWN_END	n/a	n/a	n/a	n/a	-999	16	[0, 0, 0]	n/a	catFR1	0	R1260D
2170.28	1.6	2230161	ORIENT	n/a	n/a	n/a	n/a	-999	16	[0, 0, 0]	n/a	catFR1	0	R1260D
2171.898	2.05	2231779	ORIENT_OFF	n/a	n/a	n/a	n/a	-999	16	[0, 0, 0]	n/a	catFR1	0	R1260D
2173.948	1.6	2233829	WORD	n/a	wordpools/wordpool_categorized_EN.txt	WHISK	KitchenTools	1	16	[0, 0, 0]	n/a	catFR1	0	R1260D
2175.564	0.934	2235445	WORD_OFF	n/a	n/a	WHISK	n/a	1	16	[0, 0, 0]	n/a	catFR1	0	R1260D
2176.498	1.6	2236379	WORD	n/a	wordpools/wordpool_categorized_EN.txt	SPOON	KitchenTools	2	16	[0, 0, 0]	n/a	catFR1	0	R1260D
2178.116	0.95	2237996	WORD_OFF	n/a	n/a	SPOON	n/a	2	16	[0, 0, 0]	n/a	catFR1	0	R1260D
2179.066	1.6	2238946	WORD	n/a	wordpools/wordpool_categorized_EN.txt	BINDER	OfficeSupplies	3	16	[0, 0, 0]	n/a	catFR1	0	R1260D
2180.683	0.932	2240563	WORD_OFF	n/a	n/a	BINDER	n/a	3	16	[0, 0, 0]	n/a	catFR1	0	R1260D
2181.615	1.6	2241495	WORD	n/a	wordpools/wordpool_categorized_EN.txt	GLUE	OfficeSupplies	4	16	[0, 0, 0]	n/a	catFR1	0	R1260D
2183.232	0.768	2243112	WORD_OFF	n/a	n/a	GLUE	n/a	4	16	[0, 0, 0]	n/a	catFR1	0	R1260D
2184.0	1.6	2243880	WORD	n/a	wordpools/wordpool_categorized_EN.txt	SEAGULL	Birds	5	16	[0, 0, 0]	n/a	catFR1	0	R1260D
2185.616	0.917	2245496	WORD_OFF	n/a	n/a	SEAGULL	n/a	5	16	[0, 0, 0]	n/a	catFR1	0	R1260D
2186.533	1.6	2246413	WORD	n/a	wordpools/wordpool_categorized_EN.txt	FINCH	Birds	6	16	[0, 0, 0]	n/a	catFR1	0	R1260D
2188.15	0.968	2248030	WORD_OFF	n/a	n/a	FINCH	n/a	6	16	[0, 0, 0]	n/a	catFR1	0	R1260D
2189.118	1.6	2248998	WORD	n/a	wordpools/wordpool_categorized_EN.txt	PENCIL	OfficeSupplies	7	16	[0, 0, 0]	n/a	catFR1	0	R1260D
2190.734	0.967	2250614	WORD_OFF	n/a	n/a	PENCIL	n/a	7	16	[0, 0, 0]	n/a	catFR1	0	R1260D
2191.701	1.6	2251581	WORD	n/a	wordpools/wordpool_categorized_EN.txt	RULER	OfficeSupplies	8	16	[0, 0, 0]	n/a	catFR1	0	R1260D
2193.317	0.785	2253197	WORD_OFF	n/a	n/a	RULER	n/a	8	16	[0, 0, 0]	n/a	catFR1	0	R1260D
2194.102	1.6	2253982	WORD	n/a	wordpools/wordpool_categorized_EN.txt	SPATULA	KitchenTools	9	16	[0, 0, 0]	n/a	catFR1	0	R1260D
2195.719	0.95	2255598	WORD_OFF	n/a	n/a	SPATULA	n/a	9	16	[0, 0, 0]	n/a	catFR1	0	R1260D
2196.669	1.6	2256548	WORD	n/a	wordpools/wordpool_categorized_EN.txt	COLANDER	KitchenTools	10	16	[0, 0, 0]	n/a	catFR1	0	R1260D
2198.285	0.983	2258164	WORD_OFF	n/a	n/a	COLANDER	n/a	10	16	[0, 0, 0]	n/a	catFR1	0	R1260D
2199.268	1.6	2259147	WORD	n/a	wordpools/wordpool_categorized_EN.txt	SPARROW	Birds	11	16	[0, 0, 0]	n/a	catFR1	0	R1260D
2200.886	0.817	2260765	WORD_OFF	n/a	n/a	SPARROW	n/a	11	16	[0, 0, 0]	n/a	catFR1	0	R1260D
2201.703	1.6	2261582	WORD	n/a	wordpools/wordpool_categorized_EN.txt	BLUEBIRD	Birds	12	16	[0, 0, 0]	n/a	catFR1	0	R1260D
2203.319	0.0	2263198	WORD_OFF	n/a	n/a	BLUEBIRD	n/a	12	16	[0, 0, 0]	n/a	catFR1	0	R1260D
2203.319	0.104	2263198	ENCODING_END	n/a	n/a	n/a	n/a	-999	16	[0, 0, 0]	n/a	catFR1	0	R1260D
2203.423	0.0	2263302	DISTRACT_START	n/a	n/a	n/a	n/a	-999	16	[0, 0, 0]	n/a	catFR1	0	R1260D
2203.423	0.013	2263302	START	n/a	n/a	n/a	n/a	-999	16	[-999, -999, -999]	n/a	catFR1	0	R1260D
2203.436	4.285	2263315	PROB	4.247	n/a	n/a	n/a	-999	16	[3, 1, 4]	8.0	catFR1	0	R1260D
2207.721	7.867	2267600	PROB	7.841	n/a	n/a	n/a	-999	16	[4, 8, 2]	14.0	catFR1	0	R1260D
2215.588	7.486	2275466	PROB	7.447	n/a	n/a	n/a	-999	16	[8, 5, 9]	21.0	catFR1	0	R1260D
2223.074	4.266	2282952	PROB	4.266	n/a	n/a	n/a	-999	16	[4, 1, 8]	13.0	catFR1	0	R1260D
2227.34	0.017	2287218	STOP	n/a	n/a	n/a	n/a	-999	16	[-999, -999, -999]	n/a	catFR1	0	R1260D
2227.357	0.601	2287235	DISTRACT_END	n/a	n/a	n/a	n/a	-999	16	[0, 0, 0]	n/a	catFR1	0	R1260D
2227.958	0.517	2287836	RETRIEVAL_ORIENT	n/a	n/a	n/a	n/a	-999	16	[0, 0, 0]	n/a	catFR1	0	R1260D
2228.475	1.667	2288353	REC_START	n/a	n/a	n/a	n/a	-999	16	[0, 0, 0]	n/a	catFR1	0	R1260D
2230.142	0.165	2290020	REC_WORD_VV	1.667	n/a	<>	n/a	-999	16	[0, 0, 0]	n/a	catFR1	0	R1260D
2230.307	2.491	2290185	REC_WORD	1.832	n/a	WHISK	KitchenTools	1	16	[0, 0, 0]	n/a	catFR1	0	R1260D
2232.798	0.823	2292675	REC_WORD_VV	4.323	n/a	<>	n/a	-999	16	[0, 0, 0]	n/a	catFR1	0	R1260D
2233.621	2.149	2293498	REC_WORD	5.146	n/a	SPATULA	KitchenTools	9	16	[0, 0, 0]	n/a	catFR1	0	R1260D
2235.77	2.624	2295647	REC_WORD_VV	7.295	n/a	<>	n/a	-999	16	[0, 0, 0]	n/a	catFR1	0	R1260D
2238.394	3.254	2298271	REC_WORD	9.919	n/a	COLANDER	KitchenTools	10	16	[0, 0, 0]	n/a	catFR1	0	R1260D
2241.648	7.251	2301525	REC_WORD_VV	13.173	n/a	<>	n/a	-999	16	[0, 0, 0]	n/a	catFR1	0	R1260D
2248.899	5.213	2308775	REC_WORD_VV	20.424	n/a	<>	n/a	-999	16	[0, 0, 0]	n/a	catFR1	0	R1260D
2254.112	4.372	2313988	REC_WORD_VV	25.637	n/a	<>	n/a	-999	16	[0, 0, 0]	n/a	catFR1	0	R1260D
2258.484	12.499	2318360	REC_END	n/a	n/a	n/a	n/a	-999	16	[0, 0, 0]	n/a	catFR1	0	R1260D
2270.983	0.5	2330858	TRIAL	n/a	n/a	n/a	n/a	-999	17	[0, 0, 0]	n/a	catFR1	0	R1260D
2271.483	10.0	2331358	COUNTDOWN_START	n/a	n/a	n/a	n/a	-999	17	[0, 0, 0]	n/a	catFR1	0	R1260D
2281.911	0.007	2341786	COUNTDOWN_END	n/a	n/a	n/a	n/a	-999	17	[0, 0, 0]	n/a	catFR1	0	R1260D
2281.918	1.6	2341793	ORIENT	n/a	n/a	n/a	n/a	-999	17	[0, 0, 0]	n/a	catFR1	0	R1260D
2283.534	2.05	2343409	ORIENT_OFF	n/a	n/a	n/a	n/a	-999	17	[0, 0, 0]	n/a	catFR1	0	R1260D
2285.584	1.6	2345458	WORD	n/a	wordpools/wordpool_categorized_EN.txt	HAWK	Birds	1	17	[0, 0, 0]	n/a	catFR1	0	R1260D
2287.201	0.918	2347075	WORD_OFF	n/a	n/a	HAWK	n/a	1	17	[0, 0, 0]	n/a	catFR1	0	R1260D
2288.119	1.6	2347993	WORD	n/a	wordpools/wordpool_categorized_EN.txt	DOVE	Birds	2	17	[0, 0, 0]	n/a	catFR1	0	R1260D
2289.736	1.017	2349610	WORD_OFF	n/a	n/a	DOVE	n/a	2	17	[0, 0, 0]	n/a	catFR1	0	R1260D
2290.753	1.6	2350627	WORD	n/a	wordpools/wordpool_categorized_EN.txt	CUCUMBER	Vegetables	3	17	[0, 0, 0]	n/a	catFR1	0	R1260D
2292.369	0.883	2352243	WORD_OFF	n/a	n/a	CUCUMBER	n/a	3	17	[0, 0, 0]	n/a	catFR1	0	R1260D
2293.252	1.6	2353126	WORD	n/a	wordpools/wordpool_categorized_EN.txt	CELERY	Vegetables	4	17	[0, 0, 0]	n/a	catFR1	0	R1260D
2294.853	0.834	2354727	WORD_OFF	n/a	n/a	CELERY	n/a	4	17	[0, 0, 0]	n/a	catFR1	0	R1260D
2295.687	1.6	2355561	WORD	n/a	wordpools/wordpool_categorized_EN.txt	VIOLET	Flowers	5	17	[0, 0, 0]	n/a	catFR1	0	R1260D
2297.303	0.95	2357177	WORD_OFF	n/a	n/a	VIOLET	n/a	5	17	[0, 0, 0]	n/a	catFR1	0	R1260D
2298.253	1.6	2358127	WORD	n/a	wordpools/wordpool_categorized_EN.txt	DAFFODIL	Flowers	6	17	[0, 0, 0]	n/a	catFR1	0	R1260D
2299.871	0.9	2359745	WORD_OFF	n/a	n/a	DAFFODIL	n/a	6	17	[0, 0, 0]	n/a	catFR1	0	R1260D
2300.771	1.6	2360645	WORD	n/a	wordpools/wordpool_categorized_EN.txt	DUCK	Birds	7	17	[0, 0, 0]	n/a	catFR1	0	R1260D
2302.387	0.917	2362261	WORD_OFF	n/a	n/a	DUCK	n/a	7	17	[0, 0, 0]	n/a	catFR1	0	R1260D
2303.304	1.6	2363177	WORD	n/a	wordpools/wordpool_categorized_EN.txt	CARDINAL	Birds	8	17	[0, 0, 0]	n/a	catFR1	0	R1260D
2304.905	0.934	2364778	WORD_OFF	n/a	n/a	CARDINAL	n/a	8	17	[0, 0, 0]	n/a	catFR1	0	R1260D
2305.839	1.6	2365712	WORD	n/a	wordpools/wordpool_categorized_EN.txt	BROCCOLI	Vegetables	9	17	[0, 0, 0]	n/a	catFR1	0	R1260D
2307.455	0.867	2367328	WORD_OFF	n/a	n/a	BROCCOLI	n/a	9	17	[0, 0, 0]	n/a	catFR1	0	R1260D
2308.322	1.6	2368195	WORD	n/a	wordpools/wordpool_categorized_EN.txt	LETTUCE	Vegetables	10	17	[0, 0, 0]	n/a	catFR1	0	R1260D
2309.94	0.783	2369813	WORD_OFF	n/a	n/a	LETTUCE	n/a	10	17	[0, 0, 0]	n/a	catFR1	0	R1260D
2310.723	1.6	2370596	WORD	n/a	wordpools/wordpool_categorized_EN.txt	LILAC	Flowers	11	17	[0, 0, 0]	n/a	catFR1	0	R1260D
2312.339	0.967	2372212	WORD_OFF	n/a	n/a	LILAC	n/a	11	17	[0, 0, 0]	n/a	catFR1	0	R1260D
2313.306	1.6	2373179	WORD	n/a	wordpools/wordpool_categorized_EN.txt	CARNATION	Flowers	12	17	[0, 0, 0]	n/a	catFR1	0	R1260D
2314.924	0.0	2374797	ENCODING_END	n/a	n/a	n/a	n/a	-999	17	[0, 0, 0]	n/a	catFR1	0	R1260D
2314.924	0.102	2374797	WORD_OFF	n/a	n/a	CARNATION	n/a	12	17	[0, 0, 0]	n/a	catFR1	0	R1260D
2315.026	0.0	2374899	DISTRACT_START	n/a	n/a	n/a	n/a	-999	17	[0, 0, 0]	n/a	catFR1	0	R1260D
2315.026	0.015	2374899	START	n/a	n/a	n/a	n/a	-999	17	[-999, -999, -999]	n/a	catFR1	0	R1260D
2315.041	6.15	2374914	PROB	6.114	n/a	n/a	n/a	-999	17	[7, 5, 6]	18.0	catFR1	0	R1260D
2321.191	4.251	2381063	PROB	4.219	n/a	n/a	n/a	-999	17	[2, 1, 4]	7.0	catFR1	0	R1260D
2325.442	3.318	2385314	PROB	3.281	n/a	n/a	n/a	-999	17	[5, 4, 4]	13.0	catFR1	0	R1260D
2328.76	5.051	2388632	PROB	5.013	n/a	n/a	n/a	-999	17	[2, 9, 7]	18.0	catFR1	0	R1260D
2333.811	7.336	2393683	PROB	7.336	n/a	n/a	n/a	-999	17	[9, 6, 8]	23.0	catFR1	0	R1260D
2341.147	0.014	2401018	STOP	n/a	n/a	n/a	n/a	-999	17	[-999, -999, -999]	n/a	catFR1	0	R1260D
2341.161	0.635	2401032	DISTRACT_END	n/a	n/a	n/a	n/a	-999	17	[0, 0, 0]	n/a	catFR1	0	R1260D
2341.796	0.516	2401667	RETRIEVAL_ORIENT	n/a	n/a	n/a	n/a	-999	17	[0, 0, 0]	n/a	catFR1	0	R1260D
2342.312	0.928	2402183	REC_START	n/a	n/a	n/a	n/a	-999	17	[0, 0, 0]	n/a	catFR1	0	R1260D
2343.24	8.026	2403111	REC_WORD_VV	0.928	n/a	<>	n/a	-999	17	[0, 0, 0]	n/a	catFR1	0	R1260D
2351.266	1.777	2411137	REC_WORD	8.954	n/a	BROCCOLI	Vegetables	9	17	[0, 0, 0]	n/a	catFR1	0	R1260D
2353.043	2.867	2412914	REC_WORD	10.731	n/a	LETTUCE	Vegetables	10	17	[0, 0, 0]	n/a	catFR1	0	R1260D
2355.91	5.711	2415781	REC_WORD	13.598	n/a	CUCUMBER	Vegetables	3	17	[0, 0, 0]	n/a	catFR1	0	R1260D
2361.621	2.79	2421491	REC_WORD	19.309	n/a	BASIL	n/a	-999	17	[0, 0, 0]	n/a	catFR1	0	R1260D
2364.411	5.048	2424281	REC_WORD_VV	22.099	n/a	<>	n/a	-999	17	[0, 0, 0]	n/a	catFR1	0	R1260D
2369.459	2.862	2429329	REC_WORD	27.147	n/a	DOVE	Birds	2	17	[0, 0, 0]	n/a	catFR1	0	R1260D
2372.321	20.351	2432191	REC_END	n/a	n/a	n/a	n/a	-999	17	[0, 0, 0]	n/a	catFR1	0	R1260D
2392.672	0.5	2452540	TRIAL	n/a	n/a	n/a	n/a	-999	18	[0, 0, 0]	n/a	catFR1	0	R1260D
2393.172	10.0	2453040	COUNTDOWN_START	n/a	n/a	n/a	n/a	-999	18	[0, 0, 0]	n/a	catFR1	0	R1260D
2403.6	0.006	2463468	COUNTDOWN_END	n/a	n/a	n/a	n/a	-999	18	[0, 0, 0]	n/a	catFR1	0	R1260D
2403.606	1.6	2463474	ORIENT	n/a	n/a	n/a	n/a	-999	18	[0, 0, 0]	n/a	catFR1	0	R1260D
2405.223	2.2	2465091	ORIENT_OFF	n/a	n/a	n/a	n/a	-999	18	[0, 0, 0]	n/a	catFR1	0	R1260D
2407.423	1.6	2467291	WORD	n/a	wordpools/wordpool_categorized_EN.txt	PASTRY	Desserts	1	18	[0, 0, 0]	n/a	catFR1	0	R1260D
2409.024	0.801	2468892	WORD_OFF	n/a	n/a	PASTRY	n/a	1	18	[0, 0, 0]	n/a	catFR1	0	R1260D
2409.825	1.6	2469693	WORD	n/a	wordpools/wordpool_categorized_EN.txt	CUPCAKE	Desserts	2	18	[0, 0, 0]	n/a	catFR1	0	R1260D
2411.441	0.983	2471308	WORD_OFF	n/a	n/a	CUPCAKE	n/a	2	18	[0, 0, 0]	n/a	catFR1	0	R1260D
2412.424	1.6	2472291	WORD	n/a	wordpools/wordpool_categorized_EN.txt	WIND	Weather	3	18	[0, 0, 0]	n/a	catFR1	0	R1260D
2414.042	0.867	2473909	WORD_OFF	n/a	n/a	WIND	n/a	3	18	[0, 0, 0]	n/a	catFR1	0	R1260D
2414.909	1.6	2474776	WORD	n/a	wordpools/wordpool_categorized_EN.txt	HUMIDITY	Weather	4	18	[0, 0, 0]	n/a	catFR1	0	R1260D
2416.525	1.017	2476392	WORD_OFF	n/a	n/a	HUMIDITY	n/a	4	18	[0, 0, 0]	n/a	catFR1	0	R1260D
2417.542	1.6	2477409	WORD	n/a	wordpools/wordpool_categorized_EN.txt	CAR	Vehicles	5	18	[0, 0, 0]	n/a	catFR1	0	R1260D
2419.159	1.0	2479026	WORD_OFF	n/a	n/a	CAR	n/a	5	18	[0, 0, 0]	n/a	catFR1	0	R1260D
2420.159	1.6	2480026	WORD	n/a	wordpools/wordpool_categorized_EN.txt	JEEP	Vehicles	6	18	[0, 0, 0]	n/a	catFR1	0	R1260D
2421.777	0.983	2481644	WORD_OFF	n/a	n/a	JEEP	n/a	6	18	[0, 0, 0]	n/a	catFR1	0	R1260D
2422.76	1.6	2482627	WORD	n/a	wordpools/wordpool_categorized_EN.txt	FUDGE	Desserts	7	18	[0, 0, 0]	n/a	catFR1	0	R1260D
2424.376	0.984	2484243	WORD_OFF	n/a	n/a	FUDGE	n/a	7	18	[0, 0, 0]	n/a	catFR1	0	R1260D
2425.36	1.6	2485227	WORD	n/a	wordpools/wordpool_categorized_EN.txt	BROWNIES	Desserts	8	18	[0, 0, 0]	n/a	catFR1	0	R1260D
2426.961	0.95	2486828	WORD_OFF	n/a	n/a	BROWNIES	n/a	8	18	[0, 0, 0]	n/a	catFR1	0	R1260D
2427.911	1.6	2487778	WORD	n/a	wordpools/wordpool_categorized_EN.txt	LIGHTNING	Weather	9	18	[0, 0, 0]	n/a	catFR1	0	R1260D
2429.527	0.867	2489393	WORD_OFF	n/a	n/a	LIGHTNING	n/a	9	18	[0, 0, 0]	n/a	catFR1	0	R1260D
2430.394	1.6	2490260	WORD	n/a	wordpools/wordpool_categorized_EN.txt	THUNDERSTORM	Weather	10	18	[0, 0, 0]	n/a	catFR1	0	R1260D
2431.995	0.784	2491861	WORD_OFF	n/a	n/a	THUNDERSTORM	n/a	10	18	[0, 0, 0]	n/a	catFR1	0	R1260D
2432.779	1.6	2492645	WORD	n/a	wordpools/wordpool_categorized_EN.txt	TRAIN	Vehicles	11	18	[0, 0, 0]	n/a	catFR1	0	R1260D
2434.395	1.017	2494261	WORD_OFF	n/a	n/a	TRAIN	n/a	11	18	[0, 0, 0]	n/a	catFR1	0	R1260D
2435.412	1.6	2495278	WORD	n/a	wordpools/wordpool_categorized_EN.txt	MOTORCYCLE	Vehicles	12	18	[0, 0, 0]	n/a	catFR1	0	R1260D
2437.03	0.0	2496896	ENCODING_END	n/a	n/a	n/a	n/a	-999	18	[0, 0, 0]	n/a	catFR1	0	R1260D
2437.03	0.133	2496896	WORD_OFF	n/a	n/a	MOTORCYCLE	n/a	12	18	[0, 0, 0]	n/a	catFR1	0	R1260D
2437.163	0.0	2497029	DISTRACT_START	n/a	n/a	n/a	n/a	-999	18	[0, 0, 0]	n/a	catFR1	0	R1260D
2437.163	0.016	2497029	START	n/a	n/a	n/a	n/a	-999	18	[-999, -999, -999]	n/a	catFR1	0	R1260D
2437.179	4.301	2497045	PROB	4.265	n/a	n/a	n/a	-999	18	[6, 3, 1]	10.0	catFR1	0	R1260D
2441.48	6.252	2501346	PROB	6.228	n/a	n/a	n/a	-999	18	[5, 9, 7]	21.0	catFR1	0	R1260D
2447.732	4.117	2507597	PROB	4.088	n/a	n/a	n/a	-999	18	[2, 9, 4]	15.0	catFR1	0	R1260D
2451.849	2.5	2511714	PROB	2.465	n/a	n/a	n/a	-999	18	[5, 5, 3]	13.0	catFR1	0	R1260D
2454.349	4.941	2514214	PROB	4.941	n/a	n/a	n/a	-999	18	[8, 5, 9]	21.0	catFR1	0	R1260D
2459.29	0.01	2519155	STOP	n/a	n/a	n/a	n/a	-999	18	[-999, -999, -999]	n/a	catFR1	0	R1260D
2459.3	0.567	2519165	DISTRACT_END	n/a	n/a	n/a	n/a	-999	18	[0, 0, 0]	n/a	catFR1	0	R1260D
2459.867	0.517	2519732	RETRIEVAL_ORIENT	n/a	n/a	n/a	n/a	-999	18	[0, 0, 0]	n/a	catFR1	0	R1260D
2460.384	1.476	2520249	REC_START	n/a	n/a	n/a	n/a	-999	18	[0, 0, 0]	n/a	catFR1	0	R1260D
2461.86	0.887	2521725	REC_WORD	1.476	n/a	THUNDERSTORM	Weather	10	18	[0, 0, 0]	n/a	catFR1	0	R1260D
2462.747	0.248	2522612	REC_WORD_VV	2.363	n/a	<>	n/a	-999	18	[0, 0, 0]	n/a	catFR1	0	R1260D
2462.995	1.611	2522860	REC_WORD	2.611	n/a	LIGHTNING	Weather	9	18	[0, 0, 0]	n/a	catFR1	0	R1260D
2464.606	2.204	2524470	REC_WORD_VV	4.222	n/a	<>	n/a	-999	18	[0, 0, 0]	n/a	catFR1	0	R1260D
2466.81	1.555	2526674	REC_WORD	6.426	n/a	JEEP	Vehicles	6	18	[0, 0, 0]	n/a	catFR1	0	R1260D
2468.365	2.942	2528229	REC_WORD	7.981	n/a	MOTORCYCLE	Vehicles	12	18	[0, 0, 0]	n/a	catFR1	0	R1260D
2471.307	5.468	2531171	REC_WORD_VV	10.923	n/a	<>	n/a	-999	18	[0, 0, 0]	n/a	catFR1	0	R1260D
2476.775	5.465	2536639	REC_WORD	16.391	n/a	WIND	Weather	3	18	[0, 0, 0]	n/a	catFR1	0	R1260D
2482.24	4.673	2542103	REC_WORD	21.856	n/a	HURRICANE	n/a	-999	18	[0, 0, 0]	n/a	catFR1	0	R1260D
2486.913	2.005	2546776	REC_WORD	26.529	n/a	FUDGE	Desserts	7	18	[0, 0, 0]	n/a	catFR1	0	R1260D
2488.918	1.475	2548781	REC_WORD	28.534	n/a	BROWNIES	Desserts	8	18	[0, 0, 0]	n/a	catFR1	0	R1260D
2490.393	12.515	2550256	REC_END	n/a	n/a	n/a	n/a	-999	18	[0, 0, 0]	n/a	catFR1	0	R1260D
2502.908	0.5	2562770	TRIAL	n/a	n/a	n/a	n/a	-999	19	[0, 0, 0]	n/a	catFR1	0	R1260D
2503.408	10.0	2563270	COUNTDOWN_START	n/a	n/a	n/a	n/a	-999	19	[0, 0, 0]	n/a	catFR1	0	R1260D
2513.836	0.008	2573698	COUNTDOWN_END	n/a	n/a	n/a	n/a	-999	19	[0, 0, 0]	n/a	catFR1	0	R1260D
2513.844	1.6	2573706	ORIENT	n/a	n/a	n/a	n/a	-999	19	[0, 0, 0]	n/a	catFR1	0	R1260D
2515.46	2.351	2575322	ORIENT_OFF	n/a	n/a	n/a	n/a	-999	19	[0, 0, 0]	n/a	catFR1	0	R1260D
2517.811	1.6	2577672	WORD	n/a	wordpools/wordpool_categorized_EN.txt	OYSTER	OceanAnimals	1	19	[0, 0, 0]	n/a	catFR1	0	R1260D
2519.427	0.884	2579288	WORD_OFF	n/a	n/a	OYSTER	n/a	1	19	[0, 0, 0]	n/a	catFR1	0	R1260D
2520.311	1.6	2580172	WORD	n/a	wordpools/wordpool_categorized_EN.txt	LOBSTER	OceanAnimals	2	19	[0, 0, 0]	n/a	catFR1	0	R1260D
2521.929	0.85	2581790	WORD_OFF	n/a	n/a	LOBSTER	n/a	2	19	[0, 0, 0]	n/a	catFR1	0	R1260D
2522.779	1.6	2582640	WORD	n/a	wordpools/wordpool_categorized_EN.txt	MOPED	Vehicles	3	19	[0, 0, 0]	n/a	catFR1	0	R1260D
2524.395	0.983	2584256	WORD_OFF	n/a	n/a	MOPED	n/a	3	19	[0, 0, 0]	n/a	catFR1	0	R1260D
2525.378	1.6	2585239	WORD	n/a	wordpools/wordpool_categorized_EN.txt	VAN	Vehicles	4	19	[0, 0, 0]	n/a	catFR1	0	R1260D
2526.996	0.984	2586857	WORD_OFF	n/a	n/a	VAN	n/a	4	19	[0, 0, 0]	n/a	catFR1	0	R1260D
2527.98	1.6	2587841	WORD	n/a	wordpools/wordpool_categorized_EN.txt	COUCH	Furniture	5	19	[0, 0, 0]	n/a	catFR1	0	R1260D
2529.596	0.8	2589457	WORD_OFF	n/a	n/a	COUCH	n/a	5	19	[0, 0, 0]	n/a	catFR1	0	R1260D
2530.396	1.6	2590257	WORD	n/a	wordpools/wordpool_categorized_EN.txt	TABLE	Furniture	6	19	[0, 0, 0]	n/a	catFR1	0	R1260D
2531.997	0.884	2591858	WORD_OFF	n/a	n/a	TABLE	n/a	6	19	[0, 0, 0]	n/a	catFR1	0	R1260D
2532.881	1.6	2592742	WORD	n/a	wordpools/wordpool_categorized_EN.txt	SCOOTER	Vehicles	7	19	[0, 0, 0]	n/a	catFR1	0	R1260D
2534.497	0.766	2594358	WORD_OFF	n/a	n/a	SCOOTER	n/a	7	19	[0, 0, 0]	n/a	catFR1	0	R1260D
2535.263	1.6	2595124	WORD	n/a	wordpools/wordpool_categorized_EN.txt	BUS	Vehicles	8	19	[0, 0, 0]	n/a	catFR1	0	R1260D
2536.864	0.851	2596724	WORD_OFF	n/a	n/a	BUS	n/a	8	19	[0, 0, 0]	n/a	catFR1	0	R1260D
2537.715	1.6	2597575	WORD	n/a	wordpools/wordpool_categorized_EN.txt	SQUID	OceanAnimals	9	19	[0, 0, 0]	n/a	catFR1	0	R1260D
2539.331	1.017	2599191	WORD_OFF	n/a	n/a	SQUID	n/a	9	19	[0, 0, 0]	n/a	catFR1	0	R1260D
2540.348	1.6	2600208	WORD	n/a	wordpools/wordpool_categorized_EN.txt	OCTOPUS	OceanAnimals	10	19	[0, 0, 0]	n/a	catFR1	0	R1260D
2541.966	0.95	2601826	WORD_OFF	n/a	n/a	OCTOPUS	n/a	10	19	[0, 0, 0]	n/a	catFR1	0	R1260D
2542.916	1.6	2602776	WORD	n/a	wordpools/wordpool_categorized_EN.txt	RECLINER	Furniture	11	19	[0, 0, 0]	n/a	catFR1	0	R1260D
2544.532	0.883	2604392	WORD_OFF	n/a	n/a	RECLINER	n/a	11	19	[0, 0, 0]	n/a	catFR1	0	R1260D
2545.415	1.6	2605275	WORD	n/a	wordpools/wordpool_categorized_EN.txt	BOOKCASE	Furniture	12	19	[0, 0, 0]	n/a	catFR1	0	R1260D
2547.033	0.0	2606893	ENCODING_END	n/a	n/a	n/a	n/a	-999	19	[0, 0, 0]	n/a	catFR1	0	R1260D
2547.033	0.104	2606893	WORD_OFF	n/a	n/a	BOOKCASE	n/a	12	19	[0, 0, 0]	n/a	catFR1	0	R1260D
2547.137	0.0	2606997	DISTRACT_START	n/a	n/a	n/a	n/a	-999	19	[0, 0, 0]	n/a	catFR1	0	R1260D
2547.137	0.012	2606997	START	n/a	n/a	n/a	n/a	-999	19	[-999, -999, -999]	n/a	catFR1	0	R1260D
2547.149	5.301	2607009	PROB	5.277	n/a	n/a	n/a	-999	19	[8, 6, 7]	19.0	catFR1	0	R1260D
2552.45	3.934	2612310	PROB	3.905	n/a	n/a	n/a	-999	19	[4, 6, 2]	12.0	catFR1	0	R1260D
2556.384	4.184	2616243	PROB	4.147	n/a	n/a	n/a	-999	19	[2, 1, 8]	11.0	catFR1	0	R1260D
2560.568	6.336	2620427	PROB	6.307	n/a	n/a	n/a	-999	19	[7, 2, 2]	11.0	catFR1	0	R1260D
2566.904	3.595	2626763	PROB	3.595	n/a	n/a	n/a	-999	19	[6, 4, 4]	14.0	catFR1	0	R1260D
2570.499	0.021	2630358	STOP	n/a	n/a	n/a	n/a	-999	19	[-999, -999, -999]	n/a	catFR1	0	R1260D
2570.52	0.551	2630379	DISTRACT_END	n/a	n/a	n/a	n/a	-999	19	[0, 0, 0]	n/a	catFR1	0	R1260D
2571.071	0.516	2630930	RETRIEVAL_ORIENT	n/a	n/a	n/a	n/a	-999	19	[0, 0, 0]	n/a	catFR1	0	R1260D
2571.587	1.346	2631445	REC_START	n/a	n/a	n/a	n/a	-999	19	[0, 0, 0]	n/a	catFR1	0	R1260D
2572.933	3.29	2632791	REC_WORD	1.346	n/a	BOOKCASE	Furniture	12	19	[0, 0, 0]	n/a	catFR1	0	R1260D
2576.223	3.353	2636081	REC_WORD_VV	4.636	n/a	<>	n/a	-999	19	[0, 0, 0]	n/a	catFR1	0	R1260D
2579.576	8.708	2639434	REC_WORD_VV	7.989	n/a	<>	n/a	-999	19	[0, 0, 0]	n/a	catFR1	0	R1260D
2588.284	6.985	2648142	REC_WORD_VV	16.697	n/a	<>	n/a	-999	19	[0, 0, 0]	n/a	catFR1	0	R1260D
2595.269	6.329	2655126	REC_WORD	23.682	n/a	COUCH	Furniture	5	19	[0, 0, 0]	n/a	catFR1	0	R1260D
2601.598	35.118	2661455	REC_END	n/a	n/a	n/a	n/a	-999	19	[0, 0, 0]	n/a	catFR1	0	R1260D
2636.716	0.5	2696571	TRIAL	n/a	n/a	n/a	n/a	-999	20	[0, 0, 0]	n/a	catFR1	0	R1260D
2637.216	10.0	2697071	COUNTDOWN_START	n/a	n/a	n/a	n/a	-999	20	[0, 0, 0]	n/a	catFR1	0	R1260D
2647.644	0.008	2707498	COUNTDOWN_END	n/a	n/a	n/a	n/a	-999	20	[0, 0, 0]	n/a	catFR1	0	R1260D
2647.652	1.6	2707506	ORIENT	n/a	n/a	n/a	n/a	-999	20	[0, 0, 0]	n/a	catFR1	0	R1260D
2649.268	2.083	2709122	ORIENT_OFF	n/a	n/a	n/a	n/a	-999	20	[0, 0, 0]	n/a	catFR1	0	R1260D
2651.351	1.6	2711205	WORD	n/a	wordpools/wordpool_categorized_EN.txt	COOKIE	Desserts	1	20	[0, 0, 0]	n/a	catFR1	0	R1260D
2652.969	0.801	2712823	WORD_OFF	n/a	n/a	COOKIE	n/a	1	20	[0, 0, 0]	n/a	catFR1	0	R1260D
2653.77	1.6	2713624	WORD	n/a	wordpools/wordpool_categorized_EN.txt	PIE	Desserts	2	20	[0, 0, 0]	n/a	catFR1	0	R1260D
2655.385	0.934	2715239	WORD_OFF	n/a	n/a	PIE	n/a	2	20	[0, 0, 0]	n/a	catFR1	0	R1260D
2656.319	1.6	2716173	WORD	n/a	wordpools/wordpool_categorized_EN.txt	CRAB	OceanAnimals	3	20	[0, 0, 0]	n/a	catFR1	0	R1260D
2657.937	0.866	2717791	WORD_OFF	n/a	n/a	CRAB	n/a	3	20	[0, 0, 0]	n/a	catFR1	0	R1260D
2658.803	1.6	2718657	WORD	n/a	wordpools/wordpool_categorized_EN.txt	WHALE	OceanAnimals	4	20	[0, 0, 0]	n/a	catFR1	0	R1260D
2660.42	0.9	2720274	WORD_OFF	n/a	n/a	WHALE	n/a	4	20	[0, 0, 0]	n/a	catFR1	0	R1260D
2661.32	1.6	2721173	WORD	n/a	wordpools/wordpool_categorized_EN.txt	FOLDER	OfficeSupplies	5	20	[0, 0, 0]	n/a	catFR1	0	R1260D
2662.938	1.0	2722791	WORD_OFF	n/a	n/a	FOLDER	n/a	5	20	[0, 0, 0]	n/a	catFR1	0	R1260D
2663.938	1.6	2723791	WORD	n/a	wordpools/wordpool_categorized_EN.txt	PEN	OfficeSupplies	6	20	[0, 0, 0]	n/a	catFR1	0	R1260D
2665.554	0.883	2725407	WORD_OFF	n/a	n/a	PEN	n/a	6	20	[0, 0, 0]	n/a	catFR1	0	R1260D
2666.437	1.6	2726290	WORD	n/a	wordpools/wordpool_categorized_EN.txt	JELLYFISH	OceanAnimals	7	20	[0, 0, 0]	n/a	catFR1	0	R1260D
2668.055	0.951	2727908	WORD_OFF	n/a	n/a	JELLYFISH	n/a	7	20	[0, 0, 0]	n/a	catFR1	0	R1260D
2669.006	1.6	2728859	WORD	n/a	wordpools/wordpool_categorized_EN.txt	TURTLE	OceanAnimals	8	20	[0, 0, 0]	n/a	catFR1	0	R1260D
2670.622	0.966	2730475	WORD_OFF	n/a	n/a	TURTLE	n/a	8	20	[0, 0, 0]	n/a	catFR1	0	R1260D
2671.588	1.6	2731441	WORD	n/a	wordpools/wordpool_categorized_EN.txt	COBBLER	Desserts	9	20	[0, 0, 0]	n/a	catFR1	0	R1260D
2673.205	1.001	2733058	WORD_OFF	n/a	n/a	COBBLER	n/a	9	20	[0, 0, 0]	n/a	catFR1	0	R1260D
2674.206	1.6	2734059	WORD	n/a	wordpools/wordpool_categorized_EN.txt	CHEESECAKE	Desserts	10	20	[0, 0, 0]	n/a	catFR1	0	R1260D
2675.824	0.966	2735677	WORD_OFF	n/a	n/a	CHEESECAKE	n/a	10	20	[0, 0, 0]	n/a	catFR1	0	R1260D
2676.79	1.6	2736643	WORD	n/a	wordpools/wordpool_categorized_EN.txt	MARKER	OfficeSupplies	11	20	[0, 0, 0]	n/a	catFR1	0	R1260D
2678.406	0.984	2738259	WORD_OFF	n/a	n/a	MARKER	n/a	11	20	[0, 0, 0]	n/a	catFR1	0	R1260D
2679.39	1.6	2739242	WORD	n/a	wordpools/wordpool_categorized_EN.txt	STAPLER	OfficeSupplies	12	20	[0, 0, 0]	n/a	catFR1	0	R1260D
2681.008	0.0	2740860	WORD_OFF	n/a	n/a	STAPLER	n/a	12	20	[0, 0, 0]	n/a	catFR1	0	R1260D
2681.008	0.106	2740860	ENCODING_END	n/a	n/a	n/a	n/a	-999	20	[0, 0, 0]	n/a	catFR1	0	R1260D
2681.114	0.0	2740966	DISTRACT_START	n/a	n/a	n/a	n/a	-999	20	[0, 0, 0]	n/a	catFR1	0	R1260D
2681.114	0.01	2740966	START	n/a	n/a	n/a	n/a	-999	20	[-999, -999, -999]	n/a	catFR1	0	R1260D
2681.124	10.602	2740976	PROB	10.577	n/a	n/a	n/a	-999	20	[6, 1, 7]	14.0	catFR1	0	R1260D
2691.726	9.837	2751578	PROB	9.837	n/a	n/a	n/a	-999	20	[6, 2, 3]	11.0	catFR1	0	R1260D
2701.563	0.014	2761414	STOP	n/a	n/a	n/a	n/a	-999	20	[-999, -999, -999]	n/a	catFR1	0	R1260D
2701.577	0.518	2761428	DISTRACT_END	n/a	n/a	n/a	n/a	-999	20	[0, 0, 0]	n/a	catFR1	0	R1260D
2702.095	0.517	2761946	RETRIEVAL_ORIENT	n/a	n/a	n/a	n/a	-999	20	[0, 0, 0]	n/a	catFR1	0	R1260D
2702.612	6.012	2762463	REC_START	n/a	n/a	n/a	n/a	-999	20	[0, 0, 0]	n/a	catFR1	0	R1260D
2708.624	6.22	2768475	REC_WORD_VV	6.012	n/a	<>	n/a	-999	20	[0, 0, 0]	n/a	catFR1	0	R1260D
2714.844	0.175	2774695	REC_WORD_VV	12.232	n/a	<>	n/a	-999	20	[0, 0, 0]	n/a	catFR1	0	R1260D
2715.019	11.86	2774870	REC_WORD	12.407	n/a	COOKIE	Desserts	1	20	[0, 0, 0]	n/a	catFR1	0	R1260D
2726.879	5.743	2786729	REC_WORD_VV	24.267	n/a	<>	n/a	-999	20	[0, 0, 0]	n/a	catFR1	0	R1260D
2732.622	168.409	2792472	REC_END	n/a	n/a	n/a	n/a	-999	20	[0, 0, 0]	n/a	catFR1	0	R1260D
2901.031	0.5	2960871	TRIAL	n/a	n/a	n/a	n/a	-999	21	[0, 0, 0]	n/a	catFR1	0	R1260D
2901.531	10.0	2961371	COUNTDOWN_START	n/a	n/a	n/a	n/a	-999	21	[0, 0, 0]	n/a	catFR1	0	R1260D
2911.959	0.008	2971799	COUNTDOWN_END	n/a	n/a	n/a	n/a	-999	21	[0, 0, 0]	n/a	catFR1	0	R1260D
2911.967	1.6	2971807	ORIENT	n/a	n/a	n/a	n/a	-999	21	[0, 0, 0]	n/a	catFR1	0	R1260D
2913.583	2.134	2973422	ORIENT_OFF	n/a	n/a	n/a	n/a	-999	21	[0, 0, 0]	n/a	catFR1	0	R1260D
2915.717	1.6	2975556	WORD	n/a	wordpools/wordpool_categorized_EN.txt	DOLPHIN	OceanAnimals	1	21	[0, 0, 0]	n/a	catFR1	0	R1260D
2917.334	0.916	2977173	WORD_OFF	n/a	n/a	DOLPHIN	n/a	1	21	[0, 0, 0]	n/a	catFR1	0	R1260D
2918.25	1.6	2978089	WORD	n/a	wordpools/wordpool_categorized_EN.txt	SHRIMP	OceanAnimals	2	21	[0, 0, 0]	n/a	catFR1	0	R1260D
2919.851	0.934	2979690	WORD_OFF	n/a	n/a	SHRIMP	n/a	2	21	[0, 0, 0]	n/a	catFR1	0	R1260D
2920.785	1.6	2980624	WORD	n/a	wordpools/wordpool_categorized_EN.txt	GUITAR	Instruments	3	21	[0, 0, 0]	n/a	catFR1	0	R1260D
2922.401	0.834	2982240	WORD_OFF	n/a	n/a	GUITAR	n/a	3	21	[0, 0, 0]	n/a	catFR1	0	R1260D
2923.235	1.6	2983074	WORD	n/a	wordpools/wordpool_categorized_EN.txt	ORGAN	Instruments	4	21	[0, 0, 0]	n/a	catFR1	0	R1260D
2924.852	0.934	2984691	WORD_OFF	n/a	n/a	ORGAN	n/a	4	21	[0, 0, 0]	n/a	catFR1	0	R1260D
2925.786	1.6	2985625	WORD	n/a	wordpools/wordpool_categorized_EN.txt	REFRIGERATOR	Appliances	5	21	[0, 0, 0]	n/a	catFR1	0	R1260D
2927.402	0.983	2987241	WORD_OFF	n/a	n/a	REFRIGERATOR	n/a	5	21	[0, 0, 0]	n/a	catFR1	0	R1260D
2928.385	1.6	2988224	WORD	n/a	wordpools/wordpool_categorized_EN.txt	VACUUM	Appliances	6	21	[0, 0, 0]	n/a	catFR1	0	R1260D
2929.987	0.933	2989826	WORD_OFF	n/a	n/a	VACUUM	n/a	6	21	[0, 0, 0]	n/a	catFR1	0	R1260D
2930.92	1.6	2990758	WORD	n/a	wordpools/wordpool_categorized_EN.txt	FISH	OceanAnimals	7	21	[0, 0, 0]	n/a	catFR1	0	R1260D
2932.536	0.8	2992374	WORD_OFF	n/a	n/a	FISH	n/a	7	21	[0, 0, 0]	n/a	catFR1	0	R1260D
2933.336	1.6	2993174	WORD	n/a	wordpools/wordpool_categorized_EN.txt	PLANKTON	OceanAnimals	8	21	[0, 0, 0]	n/a	catFR1	0	R1260D
2934.954	0.901	2994792	WORD_OFF	n/a	n/a	PLANKTON	n/a	8	21	[0, 0, 0]	n/a	catFR1	0	R1260D
