onset	duration	sample	trial_type	response_time	stim_file	item_name	category	serialpos	list	test	answer	experiment	session	subject
0.0	1.08	12786	INSTRUCT_START	n/a	n/a	n/a	n/a	-999	-999	[0, 0, 0]	n/a	catFR1	4	R1541T
1.08	30.799	13869	INSTRUCT_END	n/a	n/a	n/a	n/a	-999	-999	[0, 0, 0]	n/a	catFR1	4	R1541T
31.879	10.349	44667	COUNTDOWN_START	n/a	n/a	n/a	n/a	-999	-999	[0, 0, 0]	n/a	catFR1	4	R1541T
42.228	0.001	55015	COUNTDOWN_END	n/a	n/a	n/a	n/a	-999	-999	[0, 0, 0]	n/a	catFR1	4	R1541T
42.229	2.066	55015	ENCODING_START	n/a	n/a	n/a	n/a	-999	-1	[0, 0, 0]	n/a	catFR1	4	R1541T
44.295	1.601	57080	WORD	n/a	n/a	DUCK	Birds	1	-1	[0, 0, 0]	n/a	catFR1	4	R1541T
45.896	0.8	58682	WORD_OFF	n/a	n/a	DUCK	Birds	1	-1	[0, 0, 0]	n/a	catFR1	4	R1541T
46.696	1.616	59483	WORD	n/a	n/a	HAWK	Birds	2	-1	[0, 0, 0]	n/a	catFR1	4	R1541T
48.312	0.884	61094	WORD_OFF	n/a	n/a	HAWK	Birds	2	-1	[0, 0, 0]	n/a	catFR1	4	R1541T
49.196	1.616	61977	WORD	n/a	n/a	PAPER	OfficeSupplies	3	-1	[0, 0, 0]	n/a	catFR1	4	R1541T
50.812	0.817	63597	WORD_OFF	n/a	n/a	PAPER	OfficeSupplies	3	-1	[0, 0, 0]	n/a	catFR1	4	R1541T
51.629	1.616	64416	WORD	n/a	n/a	PEN	OfficeSupplies	4	-1	[0, 0, 0]	n/a	catFR1	4	R1541T
53.245	0.801	66027	WORD_OFF	n/a	n/a	PEN	OfficeSupplies	4	-1	[0, 0, 0]	n/a	catFR1	4	R1541T
54.046	1.6	66828	WORD	n/a	n/a	WIND	Weather	5	-1	[0, 0, 0]	n/a	catFR1	4	R1541T
55.646	0.765	68429	WORD_OFF	n/a	n/a	WIND	Weather	5	-1	[0, 0, 0]	n/a	catFR1	4	R1541T
56.411	1.618	69194	WORD	n/a	n/a	DRIZZLE	Weather	6	-1	[0, 0, 0]	n/a	catFR1	4	R1541T
58.029	0.966	70814	WORD_OFF	n/a	n/a	DRIZZLE	Weather	6	-1	[0, 0, 0]	n/a	catFR1	4	R1541T
58.995	1.6	71778	WORD	n/a	n/a	STAPLER	OfficeSupplies	7	-1	[0, 0, 0]	n/a	catFR1	4	R1541T
60.595	0.95	73380	WORD_OFF	n/a	n/a	STAPLER	OfficeSupplies	7	-1	[0, 0, 0]	n/a	catFR1	4	R1541T
61.545	1.6	74327	WORD	n/a	n/a	GLUE	OfficeSupplies	8	-1	[0, 0, 0]	n/a	catFR1	4	R1541T
63.145	0.8	75928	WORD_OFF	n/a	n/a	GLUE	OfficeSupplies	8	-1	[0, 0, 0]	n/a	catFR1	4	R1541T
63.945	1.6	76729	WORD	n/a	n/a	CLOUD	Weather	9	-1	[0, 0, 0]	n/a	catFR1	4	R1541T
65.545	0.95	78331	WORD_OFF	n/a	n/a	CLOUD	Weather	9	-1	[0, 0, 0]	n/a	catFR1	4	R1541T
66.495	1.617	79278	WORD	n/a	n/a	HUMIDITY	Weather	10	-1	[0, 0, 0]	n/a	catFR1	4	R1541T
68.112	0.95	80898	WORD_OFF	n/a	n/a	HUMIDITY	Weather	10	-1	[0, 0, 0]	n/a	catFR1	4	R1541T
69.062	1.6	81844	WORD	n/a	n/a	CARDINAL	Birds	11	-1	[0, 0, 0]	n/a	catFR1	4	R1541T
70.662	0.816	83446	WORD_OFF	n/a	n/a	CARDINAL	Birds	11	-1	[0, 0, 0]	n/a	catFR1	4	R1541T
71.478	1.617	84265	WORD	n/a	n/a	SPARROW	Birds	12	-1	[0, 0, 0]	n/a	catFR1	4	R1541T
73.095	0.001	85876	WORD_OFF	n/a	n/a	SPARROW	Birds	12	-1	[0, 0, 0]	n/a	catFR1	4	R1541T
73.096	0.0	85882	START	n/a	n/a	n/a	n/a	-999	-1	[-999, -999, -999]	n/a	catFR1	4	R1541T
73.096	0.0	85882	PROB	3.317	n/a	n/a	n/a	-999	-1	[2, 1, 6]	9.0	catFR1	4	R1541T
73.096	0.0	85885	ENCODING_END	n/a	n/a	n/a	n/a	-999	-1	[0, 0, 0]	n/a	catFR1	4	R1541T
73.096	3.333	85885	DISTRACT_START	n/a	n/a	n/a	n/a	-999	-1	[0, 0, 0]	n/a	catFR1	4	R1541T
76.429	3.283	89215	PROB	3.266	n/a	n/a	n/a	-999	-1	[3, 5, 6]	14.0	catFR1	4	R1541T
79.712	2.25	92498	PROB	2.232	n/a	n/a	n/a	-999	-1	[4, 6, 5]	15.0	catFR1	4	R1541T
81.962	2.3	94748	PROB	2.283	n/a	n/a	n/a	-999	-1	[5, 7, 6]	18.0	catFR1	4	R1541T
84.262	2.666	97048	PROB	2.649	n/a	n/a	n/a	-999	-1	[2, 1, 4]	7.0	catFR1	4	R1541T
86.928	2.167	99714	PROB	2.15	n/a	n/a	n/a	-999	-1	[6, 1, 4]	11.0	catFR1	4	R1541T
89.095	2.533	101881	PROB	2.516	n/a	n/a	n/a	-999	-1	[6, 6, 7]	19.0	catFR1	4	R1541T
91.628	2.766	104414	PROB	2.75	n/a	n/a	n/a	-999	-1	[3, 6, 7]	16.0	catFR1	4	R1541T
94.394	0.0	107179	STOP	n/a	n/a	n/a	n/a	-999	-1	[-999, -999, -999]	n/a	catFR1	4	R1541T
94.394	1.634	107181	DISTRACT_END	n/a	n/a	n/a	n/a	-999	-1	[0, 0, 0]	n/a	catFR1	4	R1541T
96.028	1.714	108810	REC_START	n/a	n/a	n/a	n/a	-999	-1	[0, 0, 0]	n/a	catFR1	4	R1541T
97.742	0.717	110527	REC_WORD	1.714	n/a	DUCK	Birds	1	-1	[0, 0, 0]	n/a	catFR1	4	R1541T
98.459	1.1	111244	REC_WORD	2.431	n/a	SPARROW	Birds	12	-1	[0, 0, 0]	n/a	catFR1	4	R1541T
99.559	4.633	112344	REC_WORD	3.531	n/a	WIND	Weather	5	-1	[0, 0, 0]	n/a	catFR1	4	R1541T
104.192	0.941	116977	REC_WORD	8.164	n/a	PEN	OfficeSupplies	4	-1	[0, 0, 0]	n/a	catFR1	4	R1541T
105.133	1.486	117918	REC_WORD	9.105	n/a	PAPER	OfficeSupplies	3	-1	[0, 0, 0]	n/a	catFR1	4	R1541T
106.619	1.576	119404	REC_WORD	10.591	n/a	ERASER	n/a	-999	-1	[0, 0, 0]	n/a	catFR1	4	R1541T
108.195	3.612	120980	REC_WORD	12.167	n/a	HURRICANE	n/a	-999	-1	[0, 0, 0]	n/a	catFR1	4	R1541T
111.807	14.419	124592	REC_WORD	15.779	n/a	CARDINAL	Birds	11	-1	[0, 0, 0]	n/a	catFR1	4	R1541T
126.226	16.317	139007	REC_END	n/a	n/a	n/a	n/a	-999	-1	[0, 0, 0]	n/a	catFR1	4	R1541T
142.543	10.35	155325	COUNTDOWN_START	n/a	n/a	n/a	n/a	-999	1	[0, 0, 0]	n/a	catFR1	4	R1541T
152.893	0.0	165673	COUNTDOWN_END	n/a	n/a	n/a	n/a	-999	1	[0, 0, 0]	n/a	catFR1	4	R1541T
152.893	1.967	165673	ENCODING_START	n/a	n/a	n/a	n/a	-999	1	[0, 0, 0]	n/a	catFR1	4	R1541T
154.86	1.615	167638	WORD	n/a	wordpools/wordpool_categorized_EN.txt	SQUID	OceanAnimals	1	1	[0, 0, 0]	n/a	catFR1	4	R1541T
156.475	0.885	169258	WORD_OFF	n/a	n/a	SQUID	OceanAnimals	1	1	[0, 0, 0]	n/a	catFR1	4	R1541T
157.36	1.616	170141	WORD	n/a	wordpools/wordpool_categorized_EN.txt	WHALE	OceanAnimals	2	1	[0, 0, 0]	n/a	catFR1	4	R1541T
158.976	0.816	171761	WORD_OFF	n/a	n/a	WHALE	OceanAnimals	2	1	[0, 0, 0]	n/a	catFR1	4	R1541T
159.792	1.616	172571	WORD	n/a	wordpools/wordpool_categorized_EN.txt	PENCIL	OfficeSupplies	3	1	[0, 0, 0]	n/a	catFR1	4	R1541T
161.408	0.851	174191	WORD_OFF	n/a	n/a	PENCIL	OfficeSupplies	3	1	[0, 0, 0]	n/a	catFR1	4	R1541T
162.259	1.616	175037	WORD	n/a	wordpools/wordpool_categorized_EN.txt	NOTEBOOK	OfficeSupplies	4	1	[0, 0, 0]	n/a	catFR1	4	R1541T
163.875	0.968	176657	WORD_OFF	n/a	n/a	NOTEBOOK	OfficeSupplies	4	1	[0, 0, 0]	n/a	catFR1	4	R1541T
164.843	1.616	177622	WORD	n/a	wordpools/wordpool_categorized_EN.txt	GOOSE	Birds	5	1	[0, 0, 0]	n/a	catFR1	4	R1541T
166.459	0.867	179242	WORD_OFF	n/a	n/a	GOOSE	Birds	5	1	[0, 0, 0]	n/a	catFR1	4	R1541T
167.326	1.6	180107	WORD	n/a	wordpools/wordpool_categorized_EN.txt	PIGEON	Birds	6	1	[0, 0, 0]	n/a	catFR1	4	R1541T
168.926	0.864	181708	WORD_OFF	n/a	n/a	PIGEON	Birds	6	1	[0, 0, 0]	n/a	catFR1	4	R1541T
169.79	1.603	182573	WORD	n/a	wordpools/wordpool_categorized_EN.txt	TAPE	OfficeSupplies	7	1	[0, 0, 0]	n/a	catFR1	4	R1541T
171.393	0.933	184175	WORD_OFF	n/a	n/a	TAPE	OfficeSupplies	7	1	[0, 0, 0]	n/a	catFR1	4	R1541T
172.326	1.617	185103	WORD	n/a	wordpools/wordpool_categorized_EN.txt	BINDER	OfficeSupplies	8	1	[0, 0, 0]	n/a	catFR1	4	R1541T
173.943	0.8	186723	WORD_OFF	n/a	n/a	BINDER	OfficeSupplies	8	1	[0, 0, 0]	n/a	catFR1	4	R1541T
174.743	1.616	187524	WORD	n/a	wordpools/wordpool_categorized_EN.txt	SHRIMP	OceanAnimals	9	1	[0, 0, 0]	n/a	catFR1	4	R1541T
176.359	0.767	189144	WORD_OFF	n/a	n/a	SHRIMP	OceanAnimals	9	1	[0, 0, 0]	n/a	catFR1	4	R1541T
177.126	1.616	189908	WORD	n/a	wordpools/wordpool_categorized_EN.txt	TURTLE	OceanAnimals	10	1	[0, 0, 0]	n/a	catFR1	4	R1541T
178.742	0.883	191519	WORD_OFF	n/a	n/a	TURTLE	OceanAnimals	10	1	[0, 0, 0]	n/a	catFR1	4	R1541T
179.625	1.601	192402	WORD	n/a	wordpools/wordpool_categorized_EN.txt	ROBIN	Birds	11	1	[0, 0, 0]	n/a	catFR1	4	R1541T
181.226	0.916	194004	WORD_OFF	n/a	n/a	ROBIN	Birds	11	1	[0, 0, 0]	n/a	catFR1	4	R1541T
182.142	1.616	194923	WORD	n/a	wordpools/wordpool_categorized_EN.txt	FINCH	Birds	12	1	[0, 0, 0]	n/a	catFR1	4	R1541T
183.758	0.001	196541	PROB	2.334	n/a	n/a	n/a	-999	1	[7, 2, 2]	11.0	catFR1	4	R1541T
183.759	0.0	196542	START	n/a	n/a	n/a	n/a	-999	1	[-999, -999, -999]	n/a	catFR1	4	R1541T
183.758	0.001	196543	WORD_OFF	n/a	n/a	FINCH	Birds	12	1	[0, 0, 0]	n/a	catFR1	4	R1541T
183.759	0.0	196543	ENCODING_END	n/a	n/a	n/a	n/a	-999	1	[0, 0, 0]	n/a	catFR1	4	R1541T
183.759	2.351	196543	DISTRACT_START	n/a	n/a	n/a	n/a	-999	1	[0, 0, 0]	n/a	catFR1	4	R1541T
186.11	2.116	198893	PROB	2.099	n/a	n/a	n/a	-999	1	[8, 3, 8]	19.0	catFR1	4	R1541T
188.226	1.8	201009	PROB	1.783	n/a	n/a	n/a	-999	1	[2, 2, 2]	6.0	catFR1	4	R1541T
190.026	2.134	202809	PROB	2.116	n/a	n/a	n/a	-999	1	[3, 2, 6]	11.0	catFR1	4	R1541T
192.16	3.067	204943	PROB	3.049	n/a	n/a	n/a	-999	1	[6, 8, 8]	22.0	catFR1	4	R1541T
195.227	2.283	208010	PROB	2.265	n/a	n/a	n/a	-999	1	[3, 5, 7]	15.0	catFR1	4	R1541T
197.51	3.015	210293	PROB	2.999	n/a	n/a	n/a	-999	1	[7, 6, 8]	21.0	catFR1	4	R1541T
200.525	1.867	213308	PROB	1.85	n/a	n/a	n/a	-999	1	[1, 2, 4]	7.0	catFR1	4	R1541T
202.392	2.216	215175	PROB	2.199	n/a	n/a	n/a	-999	1	[3, 4, 3]	10.0	catFR1	4	R1541T
204.608	0.0	217384	DISTRACT_END	n/a	n/a	n/a	n/a	-999	1	[0, 0, 0]	n/a	catFR1	4	R1541T
204.608	1.884	217390	STOP	n/a	n/a	n/a	n/a	-999	1	[-999, -999, -999]	n/a	catFR1	4	R1541T
206.492	1.504	219268	REC_START	n/a	n/a	n/a	n/a	-999	1	[0, 0, 0]	n/a	catFR1	4	R1541T
207.996	1.195	220778	REC_WORD	1.504	n/a	SQUID	OceanAnimals	1	1	[0, 0, 0]	n/a	catFR1	4	R1541T
209.191	2.388	221973	REC_WORD	2.699	n/a	WHALE	OceanAnimals	2	1	[0, 0, 0]	n/a	catFR1	4	R1541T
211.579	0.877	224361	REC_WORD	5.087	n/a	PENCIL	OfficeSupplies	3	1	[0, 0, 0]	n/a	catFR1	4	R1541T
212.456	3.016	225238	REC_WORD	5.964	n/a	NOTEBOOK	OfficeSupplies	4	1	[0, 0, 0]	n/a	catFR1	4	R1541T
215.472	21.21	228254	REC_WORD	8.98	n/a	SPARROW	Birds	-999	1	[0, 0, 0]	n/a	catFR1	4	R1541T
236.682	1.358	249465	REC_END	n/a	n/a	n/a	n/a	-999	1	[0, 0, 0]	n/a	catFR1	4	R1541T
238.04	10.351	250821	COUNTDOWN_START	n/a	n/a	n/a	n/a	-999	2	[0, 0, 0]	n/a	catFR1	4	R1541T
248.391	0.0	261168	COUNTDOWN_END	n/a	n/a	n/a	n/a	-999	2	[0, 0, 0]	n/a	catFR1	4	R1541T
248.391	2.083	261168	ENCODING_START	n/a	n/a	n/a	n/a	-999	2	[0, 0, 0]	n/a	catFR1	4	R1541T
250.474	1.6	263252	WORD	n/a	wordpools/wordpool_categorized_EN.txt	NIGHTSTAND	Furniture	1	2	[0, 0, 0]	n/a	catFR1	4	R1541T
252.074	0.917	264854	WORD_OFF	n/a	n/a	NIGHTSTAND	Furniture	1	2	[0, 0, 0]	n/a	catFR1	4	R1541T
252.991	1.616	265773	WORD	n/a	wordpools/wordpool_categorized_EN.txt	BOOKCASE	Furniture	2	2	[0, 0, 0]	n/a	catFR1	4	R1541T
254.607	0.8	267384	WORD_OFF	n/a	n/a	BOOKCASE	Furniture	2	2	[0, 0, 0]	n/a	catFR1	4	R1541T
255.407	1.617	268185	WORD	n/a	wordpools/wordpool_categorized_EN.txt	MOSQUITO	Insects	3	2	[0, 0, 0]	n/a	catFR1	4	R1541T
257.024	0.85	269805	WORD_OFF	n/a	n/a	MOSQUITO	Insects	3	2	[0, 0, 0]	n/a	catFR1	4	R1541T
257.874	1.6	270652	WORD	n/a	wordpools/wordpool_categorized_EN.txt	ANT	Insects	4	2	[0, 0, 0]	n/a	catFR1	4	R1541T
259.474	0.933	272253	WORD_OFF	n/a	n/a	ANT	Insects	4	2	[0, 0, 0]	n/a	catFR1	4	R1541T
260.407	1.617	273182	WORD	n/a	wordpools/wordpool_categorized_EN.txt	THUNDERSTORM	Weather	5	2	[0, 0, 0]	n/a	catFR1	4	R1541T
262.024	0.832	274802	WORD_OFF	n/a	n/a	THUNDERSTORM	Weather	5	2	[0, 0, 0]	n/a	catFR1	4	R1541T
262.856	1.601	275630	WORD	n/a	wordpools/wordpool_categorized_EN.txt	RAIN	Weather	6	2	[0, 0, 0]	n/a	catFR1	4	R1541T
264.457	0.833	277232	WORD_OFF	n/a	n/a	RAIN	Weather	6	2	[0, 0, 0]	n/a	catFR1	4	R1541T
265.29	1.617	278069	WORD	n/a	wordpools/wordpool_categorized_EN.txt	SPIDER	Insects	7	2	[0, 0, 0]	n/a	catFR1	4	R1541T
266.907	0.883	279689	WORD_OFF	n/a	n/a	SPIDER	Insects	7	2	[0, 0, 0]	n/a	catFR1	4	R1541T
267.79	1.6	280572	WORD	n/a	wordpools/wordpool_categorized_EN.txt	GNAT	Insects	8	2	[0, 0, 0]	n/a	catFR1	4	R1541T
269.39	0.883	282164	WORD_OFF	n/a	n/a	GNAT	Insects	8	2	[0, 0, 0]	n/a	catFR1	4	R1541T
270.273	1.601	283047	WORD	n/a	wordpools/wordpool_categorized_EN.txt	FOG	Weather	9	2	[0, 0, 0]	n/a	catFR1	4	R1541T
271.874	0.9	284649	WORD_OFF	n/a	n/a	FOG	Weather	9	2	[0, 0, 0]	n/a	catFR1	4	R1541T
272.774	1.615	285550	WORD	n/a	wordpools/wordpool_categorized_EN.txt	HURRICANE	Weather	10	2	[0, 0, 0]	n/a	catFR1	4	R1541T
274.389	0.918	287170	WORD_OFF	n/a	n/a	HURRICANE	Weather	10	2	[0, 0, 0]	n/a	catFR1	4	R1541T
275.307	1.616	288089	WORD	n/a	wordpools/wordpool_categorized_EN.txt	BED	Furniture	11	2	[0, 0, 0]	n/a	catFR1	4	R1541T
276.923	0.867	289700	WORD_OFF	n/a	n/a	BED	Furniture	11	2	[0, 0, 0]	n/a	catFR1	4	R1541T
277.79	1.617	290564	WORD	n/a	wordpools/wordpool_categorized_EN.txt	CHAIR	Furniture	12	2	[0, 0, 0]	n/a	catFR1	4	R1541T
279.407	0.001	292184	WORD_OFF	n/a	n/a	CHAIR	Furniture	12	2	[0, 0, 0]	n/a	catFR1	4	R1541T
279.408	0.0	292188	START	n/a	n/a	n/a	n/a	-999	2	[-999, -999, -999]	n/a	catFR1	4	R1541T
279.408	0.0	292188	PROB	2.932	n/a	n/a	n/a	-999	2	[8, 3, 3]	14.0	catFR1	4	R1541T
279.408	0.0	292193	ENCODING_END	n/a	n/a	n/a	n/a	-999	2	[0, 0, 0]	n/a	catFR1	4	R1541T
279.408	2.949	292193	DISTRACT_START	n/a	n/a	n/a	n/a	-999	2	[0, 0, 0]	n/a	catFR1	4	R1541T
282.357	2.084	295137	PROB	2.066	n/a	n/a	n/a	-999	2	[6, 5, 7]	19.0	catFR1	4	R1541T
284.441	2.532	297221	PROB	2.516	n/a	n/a	n/a	-999	2	[8, 6, 6]	20.0	catFR1	4	R1541T
286.973	2.3	299753	PROB	2.283	n/a	n/a	n/a	-999	2	[8, 8, 8]	24.0	catFR1	4	R1541T
289.273	1.951	302053	PROB	1.933	n/a	n/a	n/a	-999	2	[5, 5, 8]	18.0	catFR1	4	R1541T
291.224	1.983	304004	PROB	1.966	n/a	n/a	n/a	-999	2	[8, 4, 7]	19.0	catFR1	4	R1541T
293.207	2.383	305987	PROB	2.366	n/a	n/a	n/a	-999	2	[7, 4, 5]	16.0	catFR1	4	R1541T
295.59	2.3	308370	PROB	2.283	n/a	n/a	n/a	-999	2	[1, 7, 2]	10.0	catFR1	4	R1541T
297.89	2.033	310670	PROB	2.016	n/a	n/a	n/a	-999	2	[2, 2, 1]	5.0	catFR1	4	R1541T
299.923	0.0	312698	DISTRACT_END	n/a	n/a	n/a	n/a	-999	2	[0, 0, 0]	n/a	catFR1	4	R1541T
299.923	1.717	312703	STOP	n/a	n/a	n/a	n/a	-999	2	[-999, -999, -999]	n/a	catFR1	4	R1541T
301.64	3.442	314418	REC_START	n/a	n/a	n/a	n/a	-999	2	[0, 0, 0]	n/a	catFR1	4	R1541T
305.082	0.953	317862	REC_WORD	3.442	n/a	BOOKSHELF	n/a	-999	2	[0, 0, 0]	n/a	catFR1	4	R1541T
306.035	2.986	318815	REC_WORD	4.395	n/a	NIGHTSTAND	Furniture	1	2	[0, 0, 0]	n/a	catFR1	4	R1541T
309.021	8.777	321801	REC_WORD	7.381	n/a	HURRICANE	Weather	10	2	[0, 0, 0]	n/a	catFR1	4	R1541T
317.798	5.447	330577	REC_WORD	16.158	n/a	DESK	n/a	-999	2	[0, 0, 0]	n/a	catFR1	4	R1541T
323.245	2.387	336024	REC_WORD	21.605	n/a	THUNDERSTORM	Weather	5	2	[0, 0, 0]	n/a	catFR1	4	R1541T
325.632	6.197	338411	REC_WORD	23.992	n/a	FOG	Weather	9	2	[0, 0, 0]	n/a	catFR1	4	R1541T
331.829	1.793	344606	REC_END	n/a	n/a	n/a	n/a	-999	2	[0, 0, 0]	n/a	catFR1	4	R1541T
333.622	10.349	346398	COUNTDOWN_START	n/a	n/a	n/a	n/a	-999	3	[0, 0, 0]	n/a	catFR1	4	R1541T
343.971	0.0	356746	COUNTDOWN_END	n/a	n/a	n/a	n/a	-999	3	[0, 0, 0]	n/a	catFR1	4	R1541T
343.971	2.167	356746	ENCODING_START	n/a	n/a	n/a	n/a	-999	3	[0, 0, 0]	n/a	catFR1	4	R1541T
346.138	1.601	358912	WORD	n/a	wordpools/wordpool_categorized_EN.txt	CORKSCREW	KitchenTools	1	3	[0, 0, 0]	n/a	catFR1	4	R1541T
347.739	0.883	360514	WORD_OFF	n/a	n/a	CORKSCREW	KitchenTools	1	3	[0, 0, 0]	n/a	catFR1	4	R1541T
348.622	1.616	361397	WORD	n/a	wordpools/wordpool_categorized_EN.txt	STRAINER	KitchenTools	2	3	[0, 0, 0]	n/a	catFR1	4	R1541T
350.238	0.767	363017	WORD_OFF	n/a	n/a	STRAINER	KitchenTools	2	3	[0, 0, 0]	n/a	catFR1	4	R1541T
351.005	1.617	363781	WORD	n/a	wordpools/wordpool_categorized_EN.txt	HILLS	Landscapes	3	3	[0, 0, 0]	n/a	catFR1	4	R1541T
352.622	0.866	365401	WORD_OFF	n/a	n/a	HILLS	Landscapes	3	3	[0, 0, 0]	n/a	catFR1	4	R1541T
353.488	1.616	366266	WORD	n/a	wordpools/wordpool_categorized_EN.txt	FOREST	Landscapes	4	3	[0, 0, 0]	n/a	catFR1	4	R1541T
355.104	0.883	367877	WORD_OFF	n/a	n/a	FOREST	Landscapes	4	3	[0, 0, 0]	n/a	catFR1	4	R1541T
355.987	1.601	368759	WORD	n/a	wordpools/wordpool_categorized_EN.txt	RATCHET	Tools	5	3	[0, 0, 0]	n/a	catFR1	4	R1541T
357.588	0.817	370361	WORD_OFF	n/a	n/a	RATCHET	Tools	5	3	[0, 0, 0]	n/a	catFR1	4	R1541T
358.405	1.617	371180	WORD	n/a	wordpools/wordpool_categorized_EN.txt	WRENCH	Tools	6	3	[0, 0, 0]	n/a	catFR1	4	R1541T
360.022	0.916	372800	WORD_OFF	n/a	n/a	WRENCH	Tools	6	3	[0, 0, 0]	n/a	catFR1	4	R1541T
360.938	1.616	373710	WORD	n/a	wordpools/wordpool_categorized_EN.txt	RIVER	Landscapes	7	3	[0, 0, 0]	n/a	catFR1	4	R1541T
362.554	0.816	375330	WORD_OFF	n/a	n/a	RIVER	Landscapes	7	3	[0, 0, 0]	n/a	catFR1	4	R1541T
363.37	1.6	376149	WORD	n/a	wordpools/wordpool_categorized_EN.txt	OCEAN	Landscapes	8	3	[0, 0, 0]	n/a	catFR1	4	R1541T
364.97	0.918	377742	WORD_OFF	n/a	n/a	OCEAN	Landscapes	8	3	[0, 0, 0]	n/a	catFR1	4	R1541T
365.888	1.6	378661	WORD	n/a	wordpools/wordpool_categorized_EN.txt	FORK	KitchenTools	9	3	[0, 0, 0]	n/a	catFR1	4	R1541T
367.488	0.898	380263	WORD_OFF	n/a	n/a	FORK	KitchenTools	9	3	[0, 0, 0]	n/a	catFR1	4	R1541T
368.386	1.602	381164	WORD	n/a	wordpools/wordpool_categorized_EN.txt	GRATER	KitchenTools	10	3	[0, 0, 0]	n/a	catFR1	4	R1541T
369.988	0.832	382766	WORD_OFF	n/a	n/a	GRATER	KitchenTools	10	3	[0, 0, 0]	n/a	catFR1	4	R1541T
370.82	1.601	383594	WORD	n/a	wordpools/wordpool_categorized_EN.txt	LEVEL	Tools	11	3	[0, 0, 0]	n/a	catFR1	4	R1541T
372.421	0.85	385196	WORD_OFF	n/a	n/a	LEVEL	Tools	11	3	[0, 0, 0]	n/a	catFR1	4	R1541T
373.271	1.6	386042	WORD	n/a	wordpools/wordpool_categorized_EN.txt	SCREWDRIVER	Tools	12	3	[0, 0, 0]	n/a	catFR1	4	R1541T
374.871	0.002	387644	WORD_OFF	n/a	n/a	SCREWDRIVER	Tools	12	3	[0, 0, 0]	n/a	catFR1	4	R1541T
374.873	0.0	387644	ENCODING_END	n/a	n/a	n/a	n/a	-999	3	[0, 0, 0]	n/a	catFR1	4	R1541T
374.872	0.001	387650	PROB	2.399	n/a	n/a	n/a	-999	3	[3, 8, 5]	16.0	catFR1	4	R1541T
374.873	0.0	387651	START	n/a	n/a	n/a	n/a	-999	3	[-999, -999, -999]	n/a	catFR1	4	R1541T
374.873	2.415	387653	DISTRACT_START	n/a	n/a	n/a	n/a	-999	3	[0, 0, 0]	n/a	catFR1	4	R1541T
377.288	1.701	390066	PROB	1.682	n/a	n/a	n/a	-999	3	[2, 2, 2]	6.0	catFR1	4	R1541T
378.989	2.133	391767	PROB	2.117	n/a	n/a	n/a	-999	3	[8, 8, 1]	17.0	catFR1	4	R1541T
381.122	2.215	393900	PROB	2.199	n/a	n/a	n/a	-999	3	[4, 8, 6]	18.0	catFR1	4	R1541T
383.337	2.085	396115	PROB	2.067	n/a	n/a	n/a	-999	3	[2, 4, 1]	7.0	catFR1	4	R1541T
385.422	2.116	398199	PROB	2.099	n/a	n/a	n/a	-999	3	[3, 7, 6]	16.0	catFR1	4	R1541T
387.538	3.499	400315	PROB	3.483	n/a	n/a	n/a	-999	3	[8, 3, 5]	16.0	catFR1	4	R1541T
391.037	2.735	403814	PROB	2.716	n/a	n/a	n/a	-999	3	[6, 5, 4]	15.0	catFR1	4	R1541T
393.772	3.614	406549	PROB	3.599	n/a	n/a	n/a	-999	3	[6, 8, 1]	15.0	catFR1	4	R1541T
397.386	0.0	410159	DISTRACT_END	n/a	n/a	n/a	n/a	-999	3	[0, 0, 0]	n/a	catFR1	4	R1541T
397.386	1.533	410163	STOP	n/a	n/a	n/a	n/a	-999	3	[-999, -999, -999]	n/a	catFR1	4	R1541T
398.919	0.864	411697	REC_START	n/a	n/a	n/a	n/a	-999	3	[0, 0, 0]	n/a	catFR1	4	R1541T
399.783	1.057	412560	REC_WORD	0.864	n/a	CORKSCREW	KitchenTools	1	3	[0, 0, 0]	n/a	catFR1	4	R1541T
400.84	6.932	413617	REC_WORD	1.921	n/a	STRAINER	KitchenTools	2	3	[0, 0, 0]	n/a	catFR1	4	R1541T
407.772	0.863	420549	REC_WORD	8.853	n/a	WRENCH	Tools	6	3	[0, 0, 0]	n/a	catFR1	4	R1541T
408.635	0.89	421412	REC_WORD	9.716	n/a	RATCHET	Tools	5	3	[0, 0, 0]	n/a	catFR1	4	R1541T
409.525	8.522	422302	REC_WORD	10.606	n/a	HAMMER	n/a	-999	3	[0, 0, 0]	n/a	catFR1	4	R1541T
418.047	11.082	430824	REC_WORD	19.128	n/a	GRATER	KitchenTools	10	3	[0, 0, 0]	n/a	catFR1	4	R1541T
429.129	1.658	441903	REC_END	n/a	n/a	n/a	n/a	-999	3	[0, 0, 0]	n/a	catFR1	4	R1541T
430.787	10.349	443560	COUNTDOWN_START	n/a	n/a	n/a	n/a	-999	4	[0, 0, 0]	n/a	catFR1	4	R1541T
441.136	0.0	453908	COUNTDOWN_END	n/a	n/a	n/a	n/a	-999	4	[0, 0, 0]	n/a	catFR1	4	R1541T
441.136	2.167	453908	ENCODING_START	n/a	n/a	n/a	n/a	-999	4	[0, 0, 0]	n/a	catFR1	4	R1541T
443.303	1.616	456074	WORD	n/a	wordpools/wordpool_categorized_EN.txt	SANDER	Tools	1	4	[0, 0, 0]	n/a	catFR1	4	R1541T
444.919	0.767	457693	WORD_OFF	n/a	n/a	SANDER	Tools	1	4	[0, 0, 0]	n/a	catFR1	4	R1541T
445.686	1.617	458458	WORD	n/a	wordpools/wordpool_categorized_EN.txt	CROWBAR	Tools	2	4	[0, 0, 0]	n/a	catFR1	4	R1541T
447.303	0.95	460078	WORD_OFF	n/a	n/a	CROWBAR	Tools	2	4	[0, 0, 0]	n/a	catFR1	4	R1541T
448.253	1.616	461024	WORD	n/a	wordpools/wordpool_categorized_EN.txt	OVEN	Appliances	3	4	[0, 0, 0]	n/a	catFR1	4	R1541T
449.869	0.783	462644	WORD_OFF	n/a	n/a	OVEN	Appliances	3	4	[0, 0, 0]	n/a	catFR1	4	R1541T
450.652	1.617	463427	WORD	n/a	wordpools/wordpool_categorized_EN.txt	BLENDER	Appliances	4	4	[0, 0, 0]	n/a	catFR1	4	R1541T
452.269	1.0	465038	WORD_OFF	n/a	n/a	BLENDER	Appliances	4	4	[0, 0, 0]	n/a	catFR1	4	R1541T
453.269	1.6	466039	WORD	n/a	wordpools/wordpool_categorized_EN.txt	VALLEY	Landscapes	5	4	[0, 0, 0]	n/a	catFR1	4	R1541T
454.869	0.85	467641	WORD_OFF	n/a	n/a	VALLEY	Landscapes	5	4	[0, 0, 0]	n/a	catFR1	4	R1541T
455.719	1.6	468496	WORD	n/a	wordpools/wordpool_categorized_EN.txt	ISLAND	Landscapes	6	4	[0, 0, 0]	n/a	catFR1	4	R1541T
457.319	0.967	470089	WORD_OFF	n/a	n/a	ISLAND	Landscapes	6	4	[0, 0, 0]	n/a	catFR1	4	R1541T
458.286	1.616	471063	WORD	n/a	wordpools/wordpool_categorized_EN.txt	PLIERS	Tools	7	4	[0, 0, 0]	n/a	catFR1	4	R1541T
459.902	0.816	472674	WORD_OFF	n/a	n/a	PLIERS	Tools	7	4	[0, 0, 0]	n/a	catFR1	4	R1541T
460.718	1.601	473493	WORD	n/a	wordpools/wordpool_categorized_EN.txt	HAMMER	Tools	8	4	[0, 0, 0]	n/a	catFR1	4	R1541T
462.319	0.933	475094	WORD_OFF	n/a	n/a	HAMMER	Tools	8	4	[0, 0, 0]	n/a	catFR1	4	R1541T
463.252	1.617	476023	WORD	n/a	wordpools/wordpool_categorized_EN.txt	DISHWASHER	Appliances	9	4	[0, 0, 0]	n/a	catFR1	4	R1541T
464.869	0.983	477643	WORD_OFF	n/a	n/a	DISHWASHER	Appliances	9	4	[0, 0, 0]	n/a	catFR1	4	R1541T
465.852	1.617	478626	WORD	n/a	wordpools/wordpool_categorized_EN.txt	DRYER	Appliances	10	4	[0, 0, 0]	n/a	catFR1	4	R1541T
467.469	0.966	480246	WORD_OFF	n/a	n/a	DRYER	Appliances	10	4	[0, 0, 0]	n/a	catFR1	4	R1541T
468.435	1.601	481210	WORD	n/a	wordpools/wordpool_categorized_EN.txt	BEACH	Landscapes	11	4	[0, 0, 0]	n/a	catFR1	4	R1541T
470.036	0.833	482812	WORD_OFF	n/a	n/a	BEACH	Landscapes	11	4	[0, 0, 0]	n/a	catFR1	4	R1541T
470.869	1.617	483640	WORD	n/a	wordpools/wordpool_categorized_EN.txt	STREAM	Landscapes	12	4	[0, 0, 0]	n/a	catFR1	4	R1541T
472.486	0.001	485260	WORD_OFF	n/a	n/a	STREAM	Landscapes	12	4	[0, 0, 0]	n/a	catFR1	4	R1541T
472.487	0.0	485260	ENCODING_END	n/a	n/a	n/a	n/a	-999	4	[0, 0, 0]	n/a	catFR1	4	R1541T
472.487	0.0	485260	DISTRACT_START	n/a	n/a	n/a	n/a	-999	4	[0, 0, 0]	n/a	catFR1	4	R1541T
472.486	0.001	485261	PROB	1.916	n/a	n/a	n/a	-999	4	[1, 3, 5]	9.0	catFR1	4	R1541T
472.487	1.932	485262	START	n/a	n/a	n/a	n/a	-999	4	[-999, -999, -999]	n/a	catFR1	4	R1541T
474.419	2.016	487194	PROB	2.0	n/a	n/a	n/a	-999	4	[6, 4, 6]	16.0	catFR1	4	R1541T
476.435	1.884	489210	PROB	1.866	n/a	n/a	n/a	-999	4	[4, 1, 7]	12.0	catFR1	4	R1541T
478.319	2.799	491094	PROB	2.783	n/a	n/a	n/a	-999	4	[2, 7, 7]	16.0	catFR1	4	R1541T
481.118	2.267	493893	PROB	2.249	n/a	n/a	n/a	-999	4	[4, 5, 4]	13.0	catFR1	4	R1541T
483.385	2.301	496160	PROB	2.283	n/a	n/a	n/a	-999	4	[3, 1, 5]	9.0	catFR1	4	R1541T
485.686	3.032	498461	PROB	3.015	n/a	n/a	n/a	-999	4	[8, 5, 4]	17.0	catFR1	4	R1541T
488.718	2.668	501493	PROB	2.65	n/a	n/a	n/a	-999	4	[6, 4, 5]	15.0	catFR1	4	R1541T
491.386	3.664	504161	PROB	3.649	n/a	n/a	n/a	-999	4	[1, 6, 6]	13.0	catFR1	4	R1541T
495.05	0.0	507821	DISTRACT_END	n/a	n/a	n/a	n/a	-999	4	[0, 0, 0]	n/a	catFR1	4	R1541T
495.05	1.551	507824	STOP	n/a	n/a	n/a	n/a	-999	4	[-999, -999, -999]	n/a	catFR1	4	R1541T
496.601	1.622	509378	REC_START	n/a	n/a	n/a	n/a	-999	4	[0, 0, 0]	n/a	catFR1	4	R1541T
498.223	0.772	510997	REC_WORD	1.622	n/a	LEVEL	Tools	-999	4	[0, 0, 0]	n/a	catFR1	4	R1541T
498.995	0.78	511769	REC_WORD	2.394	n/a	HAMMER	Tools	8	4	[0, 0, 0]	n/a	catFR1	4	R1541T
499.775	0.807	512549	REC_WORD	3.174	n/a	VALLEY	Landscapes	5	4	[0, 0, 0]	n/a	catFR1	4	R1541T
500.582	0.649	513356	REC_WORD	3.981	n/a	RIVER	Landscapes	-999	4	[0, 0, 0]	n/a	catFR1	4	R1541T
501.231	4.139	514005	REC_WORD	4.63	n/a	STREAM	Landscapes	12	4	[0, 0, 0]	n/a	catFR1	4	R1541T
505.37	0.725	518144	REC_WORD	8.769	n/a	OVEN	Appliances	3	4	[0, 0, 0]	n/a	catFR1	4	R1541T
506.095	0.689	518869	REC_WORD	9.494	n/a	MICROWAVE	n/a	-999	4	[0, 0, 0]	n/a	catFR1	4	R1541T
506.784	1.199	519558	REC_WORD	10.183	n/a	DISHWASHER	Appliances	9	4	[0, 0, 0]	n/a	catFR1	4	R1541T
507.983	18.843	520757	REC_WORD	11.382	n/a	BLENDER	Appliances	4	4	[0, 0, 0]	n/a	catFR1	4	R1541T
526.826	0.608	539593	REC_END	n/a	n/a	n/a	n/a	-999	4	[0, 0, 0]	n/a	catFR1	4	R1541T
527.434	10.349	540211	COUNTDOWN_START	n/a	n/a	n/a	n/a	-999	5	[0, 0, 0]	n/a	catFR1	4	R1541T
537.783	0.0	550550	COUNTDOWN_END	n/a	n/a	n/a	n/a	-999	5	[0, 0, 0]	n/a	catFR1	4	R1541T
537.783	1.9	550559	ENCODING_START	n/a	n/a	n/a	n/a	-999	5	[0, 0, 0]	n/a	catFR1	4	R1541T
539.683	1.6	552452	WORD	n/a	wordpools/wordpool_categorized_EN.txt	FOOT	BodyParts	1	5	[0, 0, 0]	n/a	catFR1	4	R1541T
541.283	0.818	554054	WORD_OFF	n/a	n/a	FOOT	BodyParts	1	5	[0, 0, 0]	n/a	catFR1	4	R1541T
542.101	1.616	554873	WORD	n/a	wordpools/wordpool_categorized_EN.txt	HAND	BodyParts	2	5	[0, 0, 0]	n/a	catFR1	4	R1541T
543.717	0.9	556484	WORD_OFF	n/a	n/a	HAND	BodyParts	2	5	[0, 0, 0]	n/a	catFR1	4	R1541T
544.617	1.617	557385	WORD	n/a	wordpools/wordpool_categorized_EN.txt	JELLO	Desserts	3	5	[0, 0, 0]	n/a	catFR1	4	R1541T
546.234	0.933	559005	WORD_OFF	n/a	n/a	JELLO	Desserts	3	5	[0, 0, 0]	n/a	catFR1	4	R1541T
547.167	1.617	559933	WORD	n/a	wordpools/wordpool_categorized_EN.txt	CUPCAKE	Desserts	4	5	[0, 0, 0]	n/a	catFR1	4	R1541T
548.784	0.766	561553	WORD_OFF	n/a	n/a	CUPCAKE	Desserts	4	5	[0, 0, 0]	n/a	catFR1	4	R1541T
549.55	1.6	562318	WORD	n/a	wordpools/wordpool_categorized_EN.txt	ORCHID	Flowers	5	5	[0, 0, 0]	n/a	catFR1	4	R1541T
551.15	0.834	563919	WORD_OFF	n/a	n/a	ORCHID	Flowers	5	5	[0, 0, 0]	n/a	catFR1	4	R1541T
551.984	1.599	564757	WORD	n/a	wordpools/wordpool_categorized_EN.txt	DAISY	Flowers	6	5	[0, 0, 0]	n/a	catFR1	4	R1541T
553.583	0.817	566349	WORD_OFF	n/a	n/a	DAISY	Flowers	6	5	[0, 0, 0]	n/a	catFR1	4	R1541T
554.4	1.617	567168	WORD	n/a	wordpools/wordpool_categorized_EN.txt	KNEE	BodyParts	7	5	[0, 0, 0]	n/a	catFR1	4	R1541T
556.017	0.983	568788	WORD_OFF	n/a	n/a	KNEE	BodyParts	7	5	[0, 0, 0]	n/a	catFR1	4	R1541T
557.0	1.617	569771	WORD	n/a	wordpools/wordpool_categorized_EN.txt	NOSE	BodyParts	8	5	[0, 0, 0]	n/a	catFR1	4	R1541T
558.617	0.983	571391	WORD_OFF	n/a	n/a	NOSE	BodyParts	8	5	[0, 0, 0]	n/a	catFR1	4	R1541T
559.6	1.6	572374	WORD	n/a	wordpools/wordpool_categorized_EN.txt	MARIGOLD	Flowers	9	5	[0, 0, 0]	n/a	catFR1	4	R1541T
561.2	0.866	573967	WORD_OFF	n/a	n/a	MARIGOLD	Flowers	9	5	[0, 0, 0]	n/a	catFR1	4	R1541T
562.066	1.601	574840	WORD	n/a	wordpools/wordpool_categorized_EN.txt	CARNATION	Flowers	10	5	[0, 0, 0]	n/a	catFR1	4	R1541T
563.667	0.949	576433	WORD_OFF	n/a	n/a	CARNATION	Flowers	10	5	[0, 0, 0]	n/a	catFR1	4	R1541T
564.616	1.6	577389	WORD	n/a	wordpools/wordpool_categorized_EN.txt	PUDDING	Desserts	11	5	[0, 0, 0]	n/a	catFR1	4	R1541T
566.216	0.901	578990	WORD_OFF	n/a	n/a	PUDDING	Desserts	11	5	[0, 0, 0]	n/a	catFR1	4	R1541T
567.117	1.599	579882	WORD	n/a	wordpools/wordpool_categorized_EN.txt	CAKE	Desserts	12	5	[0, 0, 0]	n/a	catFR1	4	R1541T
568.716	0.001	581484	WORD_OFF	n/a	n/a	CAKE	Desserts	12	5	[0, 0, 0]	n/a	catFR1	4	R1541T
568.717	0.001	581489	PROB	2.399	n/a	n/a	n/a	-999	5	[6, 4, 2]	12.0	catFR1	4	R1541T
568.718	0.0	581490	START	n/a	n/a	n/a	n/a	-999	5	[-999, -999, -999]	n/a	catFR1	4	R1541T
568.718	0.0	581493	ENCODING_END	n/a	n/a	n/a	n/a	-999	5	[0, 0, 0]	n/a	catFR1	4	R1541T
568.718	2.415	581493	DISTRACT_START	n/a	n/a	n/a	n/a	-999	5	[0, 0, 0]	n/a	catFR1	4	R1541T
571.133	2.4	583905	PROB	2.383	n/a	n/a	n/a	-999	5	[2, 8, 3]	13.0	catFR1	4	R1541T
573.533	2.267	586305	PROB	2.25	n/a	n/a	n/a	-999	5	[8, 2, 7]	17.0	catFR1	4	R1541T
575.8	2.55	588572	PROB	2.531	n/a	n/a	n/a	-999	5	[4, 2, 8]	14.0	catFR1	4	R1541T
578.35	2.216	591122	PROB	2.201	n/a	n/a	n/a	-999	5	[5, 2, 2]	9.0	catFR1	4	R1541T
580.566	2.217	593338	PROB	2.199	n/a	n/a	n/a	-999	5	[1, 6, 2]	9.0	catFR1	4	R1541T
582.783	2.55	595555	PROB	2.533	n/a	n/a	n/a	-999	5	[8, 6, 3]	17.0	catFR1	4	R1541T
585.333	2.316	598105	PROB	2.3	n/a	n/a	n/a	-999	5	[1, 3, 8]	12.0	catFR1	4	R1541T
587.649	1.983	600421	PROB	1.967	n/a	n/a	n/a	-999	5	[3, 8, 2]	13.0	catFR1	4	R1541T
589.632	0.0	602398	DISTRACT_END	n/a	n/a	n/a	n/a	-999	5	[0, 0, 0]	n/a	catFR1	4	R1541T
589.632	1.551	602404	STOP	n/a	n/a	n/a	n/a	-999	5	[-999, -999, -999]	n/a	catFR1	4	R1541T
591.183	2.069	603954	REC_START	n/a	n/a	n/a	n/a	-999	5	[0, 0, 0]	n/a	catFR1	4	R1541T
593.252	0.766	606024	REC_WORD	2.069	n/a	CAKE	Desserts	12	5	[0, 0, 0]	n/a	catFR1	4	R1541T
594.018	0.767	606790	REC_WORD	2.835	n/a	CUPCAKE	Desserts	4	5	[0, 0, 0]	n/a	catFR1	4	R1541T
594.785	0.778	607557	REC_WORD	3.602	n/a	JELLO	Desserts	3	5	[0, 0, 0]	n/a	catFR1	4	R1541T
595.563	0.657	608335	REC_WORD	4.38	n/a	PUDDING	Desserts	11	5	[0, 0, 0]	n/a	catFR1	4	R1541T
596.22	0.823	608992	REC_WORD	5.037	n/a	MARIGOLD	Flowers	9	5	[0, 0, 0]	n/a	catFR1	4	R1541T
597.043	6.918	609815	REC_WORD	5.86	n/a	DAISY	Flowers	6	5	[0, 0, 0]	n/a	catFR1	4	R1541T
603.961	1.893	616732	REC_WORD	12.778	n/a	HAND	BodyParts	2	5	[0, 0, 0]	n/a	catFR1	4	R1541T
605.854	0.613	618625	REC_WORD	14.671	n/a	KNEE	BodyParts	7	5	[0, 0, 0]	n/a	catFR1	4	R1541T
606.467	1.179	619238	REC_WORD	15.284	n/a	FOOT	BodyParts	1	5	[0, 0, 0]	n/a	catFR1	4	R1541T
607.646	13.769	620417	REC_WORD	16.463	n/a	NOSE	BodyParts	8	5	[0, 0, 0]	n/a	catFR1	4	R1541T
621.415	1.55	634187	REC_END	n/a	n/a	n/a	n/a	-999	5	[0, 0, 0]	n/a	catFR1	4	R1541T
622.965	10.349	635735	COUNTDOWN_START	n/a	n/a	n/a	n/a	-999	6	[0, 0, 0]	n/a	catFR1	4	R1541T
633.314	0.0	646082	COUNTDOWN_END	n/a	n/a	n/a	n/a	-999	6	[0, 0, 0]	n/a	catFR1	4	R1541T
633.314	2.201	646082	ENCODING_START	n/a	n/a	n/a	n/a	-999	6	[0, 0, 0]	n/a	catFR1	4	R1541T
635.515	1.614	648285	WORD	n/a	wordpools/wordpool_categorized_EN.txt	DOVE	Birds	1	6	[0, 0, 0]	n/a	catFR1	4	R1541T
637.129	0.902	649896	WORD_OFF	n/a	n/a	DOVE	Birds	1	6	[0, 0, 0]	n/a	catFR1	4	R1541T
638.031	1.617	650797	WORD	n/a	wordpools/wordpool_categorized_EN.txt	BLUEBIRD	Birds	2	6	[0, 0, 0]	n/a	catFR1	4	R1541T
639.648	0.999	652417	WORD_OFF	n/a	n/a	BLUEBIRD	Birds	2	6	[0, 0, 0]	n/a	catFR1	4	R1541T
640.647	1.6	653418	WORD	n/a	wordpools/wordpool_categorized_EN.txt	SODA	Beverages	3	6	[0, 0, 0]	n/a	catFR1	4	R1541T
642.247	0.801	655019	WORD_OFF	n/a	n/a	SODA	Beverages	3	6	[0, 0, 0]	n/a	catFR1	4	R1541T
643.048	1.617	655820	WORD	n/a	wordpools/wordpool_categorized_EN.txt	TEA	Beverages	4	6	[0, 0, 0]	n/a	catFR1	4	R1541T
644.665	0.817	657431	WORD_OFF	n/a	n/a	TEA	Beverages	4	6	[0, 0, 0]	n/a	catFR1	4	R1541T
645.482	1.616	658250	WORD	n/a	wordpools/wordpool_categorized_EN.txt	WOOL	Fabric	5	6	[0, 0, 0]	n/a	catFR1	4	R1541T
647.098	0.85	659870	WORD_OFF	n/a	n/a	WOOL	Fabric	5	6	[0, 0, 0]	n/a	catFR1	4	R1541T
647.948	1.616	660717	WORD	n/a	wordpools/wordpool_categorized_EN.txt	NYLON	Fabric	6	6	[0, 0, 0]	n/a	catFR1	4	R1541T
649.564	0.851	662337	WORD_OFF	n/a	n/a	NYLON	Fabric	6	6	[0, 0, 0]	n/a	catFR1	4	R1541T
650.415	1.599	663183	WORD	n/a	wordpools/wordpool_categorized_EN.txt	COFFEE	Beverages	7	6	[0, 0, 0]	n/a	catFR1	4	R1541T
652.014	0.967	664785	WORD_OFF	n/a	n/a	COFFEE	Beverages	7	6	[0, 0, 0]	n/a	catFR1	4	R1541T
652.981	1.616	665749	WORD	n/a	wordpools/wordpool_categorized_EN.txt	LEMONADE	Beverages	8	6	[0, 0, 0]	n/a	catFR1	4	R1541T
654.597	1.001	667369	WORD_OFF	n/a	n/a	LEMONADE	Beverages	8	6	[0, 0, 0]	n/a	catFR1	4	R1541T
655.598	1.616	668361	WORD	n/a	wordpools/wordpool_categorized_EN.txt	SEAGULL	Birds	9	6	[0, 0, 0]	n/a	catFR1	4	R1541T
657.214	0.916	669981	WORD_OFF	n/a	n/a	SEAGULL	Birds	9	6	[0, 0, 0]	n/a	catFR1	4	R1541T
658.13	1.601	670901	WORD	n/a	wordpools/wordpool_categorized_EN.txt	CROW	Birds	10	6	[0, 0, 0]	n/a	catFR1	4	R1541T
659.731	0.8	672502	WORD_OFF	n/a	n/a	CROW	Birds	10	6	[0, 0, 0]	n/a	catFR1	4	R1541T
660.531	1.616	673294	WORD	n/a	wordpools/wordpool_categorized_EN.txt	DENIM	Fabric	11	6	[0, 0, 0]	n/a	catFR1	4	R1541T
662.147	0.9	674914	WORD_OFF	n/a	n/a	DENIM	Fabric	11	6	[0, 0, 0]	n/a	catFR1	4	R1541T
663.047	1.617	675815	WORD	n/a	wordpools/wordpool_categorized_EN.txt	FLEECE	Fabric	12	6	[0, 0, 0]	n/a	catFR1	4	R1541T
664.664	0.0	677434	PROB	3.25	n/a	n/a	n/a	-999	6	[5, 6, 4]	15.0	catFR1	4	R1541T
664.664	0.002	677435	WORD_OFF	n/a	n/a	FLEECE	Fabric	12	6	[0, 0, 0]	n/a	catFR1	4	R1541T
664.666	0.0	677435	ENCODING_END	n/a	n/a	n/a	n/a	-999	6	[0, 0, 0]	n/a	catFR1	4	R1541T
664.666	0.0	677435	DISTRACT_START	n/a	n/a	n/a	n/a	-999	6	[0, 0, 0]	n/a	catFR1	4	R1541T
664.666	3.265	677436	START	n/a	n/a	n/a	n/a	-999	6	[-999, -999, -999]	n/a	catFR1	4	R1541T
667.931	2.117	680701	PROB	2.099	n/a	n/a	n/a	-999	6	[4, 6, 3]	13.0	catFR1	4	R1541T
670.048	2.149	682818	PROB	2.132	n/a	n/a	n/a	-999	6	[1, 5, 5]	11.0	catFR1	4	R1541T
672.197	1.884	684967	PROB	1.865	n/a	n/a	n/a	-999	6	[2, 8, 2]	12.0	catFR1	4	R1541T
674.081	1.683	686851	PROB	1.666	n/a	n/a	n/a	-999	6	[1, 4, 6]	11.0	catFR1	4	R1541T
675.764	3.35	688534	PROB	3.333	n/a	n/a	n/a	-999	6	[8, 6, 7]	21.0	catFR1	4	R1541T
679.114	2.282	691883	PROB	2.266	n/a	n/a	n/a	-999	6	[1, 3, 3]	7.0	catFR1	4	R1541T
681.396	2.968	694165	PROB	2.949	n/a	n/a	n/a	-999	6	[6, 2, 8]	16.0	catFR1	4	R1541T
684.364	3.882	697133	PROB	3.866	n/a	n/a	n/a	-999	6	[4, 4, 6]	14.0	catFR1	4	R1541T
688.246	0.0	701015	DISTRACT_END	n/a	n/a	n/a	n/a	-999	6	[0, 0, 0]	n/a	catFR1	4	R1541T
688.246	1.534	701015	STOP	n/a	n/a	n/a	n/a	-999	6	[-999, -999, -999]	n/a	catFR1	4	R1541T
689.78	1.262	702544	REC_START	n/a	n/a	n/a	n/a	-999	6	[0, 0, 0]	n/a	catFR1	4	R1541T
691.042	0.751	703811	REC_WORD	1.262	n/a	DOVE	Birds	1	6	[0, 0, 0]	n/a	catFR1	4	R1541T
691.793	7.744	704562	REC_WORD	2.013	n/a	SEAGULL	Birds	9	6	[0, 0, 0]	n/a	catFR1	4	R1541T
699.537	0.762	712306	REC_WORD	9.757	n/a	COTTON	n/a	-999	6	[0, 0, 0]	n/a	catFR1	4	R1541T
700.299	0.788	713068	REC_WORD	10.519	n/a	NYLON	Fabric	6	6	[0, 0, 0]	n/a	catFR1	4	R1541T
701.087	18.927	713856	REC_WORD	11.307	n/a	WOOL	Fabric	5	6	[0, 0, 0]	n/a	catFR1	4	R1541T
720.014	2.399	732778	REC_END	n/a	n/a	n/a	n/a	-999	6	[0, 0, 0]	n/a	catFR1	4	R1541T
722.413	10.349	735180	COUNTDOWN_START	n/a	n/a	n/a	n/a	-999	7	[0, 0, 0]	n/a	catFR1	4	R1541T
732.762	0.0	745528	COUNTDOWN_END	n/a	n/a	n/a	n/a	-999	7	[0, 0, 0]	n/a	catFR1	4	R1541T
732.762	2.134	745528	ENCODING_START	n/a	n/a	n/a	n/a	-999	7	[0, 0, 0]	n/a	catFR1	4	R1541T
734.896	1.617	747658	WORD	n/a	wordpools/wordpool_categorized_EN.txt	ELM	Trees	1	7	[0, 0, 0]	n/a	catFR1	4	R1541T
736.513	0.866	749278	WORD_OFF	n/a	n/a	ELM	Trees	1	7	[0, 0, 0]	n/a	catFR1	4	R1541T
737.379	1.601	750142	WORD	n/a	wordpools/wordpool_categorized_EN.txt	PINE	Trees	2	7	[0, 0, 0]	n/a	catFR1	4	R1541T
738.98	0.782	751744	WORD_OFF	n/a	n/a	PINE	Trees	2	7	[0, 0, 0]	n/a	catFR1	4	R1541T
739.762	1.616	752527	WORD	n/a	wordpools/wordpool_categorized_EN.txt	ROOSTER	FarmAnimals	3	7	[0, 0, 0]	n/a	catFR1	4	R1541T
741.378	0.767	754147	WORD_OFF	n/a	n/a	ROOSTER	FarmAnimals	3	7	[0, 0, 0]	n/a	catFR1	4	R1541T
742.145	1.601	754911	WORD	n/a	wordpools/wordpool_categorized_EN.txt	GOAT	FarmAnimals	4	7	[0, 0, 0]	n/a	catFR1	4	R1541T
743.746	0.916	756513	WORD_OFF	n/a	n/a	GOAT	FarmAnimals	4	7	[0, 0, 0]	n/a	catFR1	4	R1541T
744.662	1.616	757423	WORD	n/a	wordpools/wordpool_categorized_EN.txt	SUEDE	Fabric	5	7	[0, 0, 0]	n/a	catFR1	4	R1541T
746.278	0.984	759043	WORD_OFF	n/a	n/a	SUEDE	Fabric	5	7	[0, 0, 0]	n/a	catFR1	4	R1541T
747.262	1.616	760026	WORD	n/a	wordpools/wordpool_categorized_EN.txt	SPANDEX	Fabric	6	7	[0, 0, 0]	n/a	catFR1	4	R1541T
748.878	0.867	761646	WORD_OFF	n/a	n/a	SPANDEX	Fabric	6	7	[0, 0, 0]	n/a	catFR1	4	R1541T
749.745	1.617	762510	WORD	n/a	wordpools/wordpool_categorized_EN.txt	OAK	Trees	7	7	[0, 0, 0]	n/a	catFR1	4	R1541T
751.362	0.867	764130	WORD_OFF	n/a	n/a	OAK	Trees	7	7	[0, 0, 0]	n/a	catFR1	4	R1541T
752.229	1.6	764995	WORD	n/a	wordpools/wordpool_categorized_EN.txt	MAPLE	Trees	8	7	[0, 0, 0]	n/a	catFR1	4	R1541T
753.829	0.85	766597	WORD_OFF	n/a	n/a	MAPLE	Trees	8	7	[0, 0, 0]	n/a	catFR1	4	R1541T
754.679	1.616	767443	WORD	n/a	wordpools/wordpool_categorized_EN.txt	CHICKEN	FarmAnimals	9	7	[0, 0, 0]	n/a	catFR1	4	R1541T
756.295	0.867	769063	WORD_OFF	n/a	n/a	CHICKEN	FarmAnimals	9	7	[0, 0, 0]	n/a	catFR1	4	R1541T
757.162	1.616	769928	WORD	n/a	wordpools/wordpool_categorized_EN.txt	LAMB	FarmAnimals	10	7	[0, 0, 0]	n/a	catFR1	4	R1541T
758.778	0.851	771538	WORD_OFF	n/a	n/a	LAMB	FarmAnimals	10	7	[0, 0, 0]	n/a	catFR1	4	R1541T
759.629	1.615	772394	WORD	n/a	wordpools/wordpool_categorized_EN.txt	LEATHER	Fabric	11	7	[0, 0, 0]	n/a	catFR1	4	R1541T
761.244	0.833	774005	WORD_OFF	n/a	n/a	LEATHER	Fabric	11	7	[0, 0, 0]	n/a	catFR1	4	R1541T
762.077	1.617	774842	WORD	n/a	wordpools/wordpool_categorized_EN.txt	COTTON	Fabric	12	7	[0, 0, 0]	n/a	catFR1	4	R1541T
763.694	0.001	776462	WORD_OFF	n/a	n/a	COTTON	Fabric	12	7	[0, 0, 0]	n/a	catFR1	4	R1541T
763.695	0.001	776462	ENCODING_END	n/a	n/a	n/a	n/a	-999	7	[0, 0, 0]	n/a	catFR1	4	R1541T
763.696	0.0	776462	DISTRACT_START	n/a	n/a	n/a	n/a	-999	7	[0, 0, 0]	n/a	catFR1	4	R1541T
763.695	0.001	776462	PROB	2.533	n/a	n/a	n/a	-999	7	[3, 7, 5]	15.0	catFR1	4	R1541T
763.696	2.549	776463	START	n/a	n/a	n/a	n/a	-999	7	[-999, -999, -999]	n/a	catFR1	4	R1541T
766.245	1.933	779012	PROB	1.916	n/a	n/a	n/a	-999	7	[1, 3, 1]	5.0	catFR1	4	R1541T
768.178	2.084	780945	PROB	2.066	n/a	n/a	n/a	-999	7	[4, 7, 3]	14.0	catFR1	4	R1541T
770.262	2.15	783029	PROB	2.133	n/a	n/a	n/a	-999	7	[1, 2, 3]	6.0	catFR1	4	R1541T
772.412	2.383	785179	PROB	2.366	n/a	n/a	n/a	-999	7	[5, 2, 3]	10.0	catFR1	4	R1541T
774.795	2.601	787562	PROB	2.583	n/a	n/a	n/a	-999	7	[4, 8, 7]	19.0	catFR1	4	R1541T
777.396	3.365	790163	PROB	3.349	n/a	n/a	n/a	-999	7	[1, 6, 5]	12.0	catFR1	4	R1541T
780.761	2.699	793528	PROB	2.683	n/a	n/a	n/a	-999	7	[5, 7, 2]	14.0	catFR1	4	R1541T
783.46	3.601	796227	PROB	3.583	n/a	n/a	n/a	-999	7	[7, 6, 2]	15.0	catFR1	4	R1541T
787.061	0.0	799824	DISTRACT_END	n/a	n/a	n/a	n/a	-999	7	[0, 0, 0]	n/a	catFR1	4	R1541T
787.061	1.817	799827	STOP	n/a	n/a	n/a	n/a	-999	7	[-999, -999, -999]	n/a	catFR1	4	R1541T
788.878	1.593	801644	REC_START	n/a	n/a	n/a	n/a	-999	7	[0, 0, 0]	n/a	catFR1	4	R1541T
790.471	3.445	803237	REC_WORD	1.593	n/a	LEATHER	Fabric	11	7	[0, 0, 0]	n/a	catFR1	4	R1541T
793.916	3.78	806682	REC_WORD	5.038	n/a	SUEDE	Fabric	5	7	[0, 0, 0]	n/a	catFR1	4	R1541T
797.696	1.154	810462	REC_WORD	8.818	n/a	ROOSTER	FarmAnimals	3	7	[0, 0, 0]	n/a	catFR1	4	R1541T
798.85	2.709	811616	REC_WORD	9.972	n/a	DONKEY	n/a	-999	7	[0, 0, 0]	n/a	catFR1	4	R1541T
801.559	8.181	814325	REC_WORD	12.681	n/a	CHICKEN	FarmAnimals	9	7	[0, 0, 0]	n/a	catFR1	4	R1541T
809.74	9.37	822506	REC_WORD	20.862	n/a	POLYESTER	n/a	-999	7	[0, 0, 0]	n/a	catFR1	4	R1541T
819.11	1.75	831877	REC_END	n/a	n/a	n/a	n/a	-999	7	[0, 0, 0]	n/a	catFR1	4	R1541T
820.86	10.35	833625	COUNTDOWN_START	n/a	n/a	n/a	n/a	-999	8	[0, 0, 0]	n/a	catFR1	4	R1541T
831.21	0.0	843973	COUNTDOWN_END	n/a	n/a	n/a	n/a	-999	8	[0, 0, 0]	n/a	catFR1	4	R1541T
831.21	2.267	843973	ENCODING_START	n/a	n/a	n/a	n/a	-999	8	[0, 0, 0]	n/a	catFR1	4	R1541T
833.477	1.616	846239	WORD	n/a	wordpools/wordpool_categorized_EN.txt	SHEEP	FarmAnimals	1	8	[0, 0, 0]	n/a	catFR1	4	R1541T
835.093	0.817	847859	WORD_OFF	n/a	n/a	SHEEP	FarmAnimals	1	8	[0, 0, 0]	n/a	catFR1	4	R1541T
835.91	1.6	848669	WORD	n/a	wordpools/wordpool_categorized_EN.txt	TURKEY	FarmAnimals	2	8	[0, 0, 0]	n/a	catFR1	4	R1541T
837.51	0.783	850270	WORD_OFF	n/a	n/a	TURKEY	FarmAnimals	2	8	[0, 0, 0]	n/a	catFR1	4	R1541T
838.293	1.6	851053	WORD	n/a	wordpools/wordpool_categorized_EN.txt	APPLE	Fruit	3	8	[0, 0, 0]	n/a	catFR1	4	R1541T
839.893	0.801	852655	WORD_OFF	n/a	n/a	APPLE	Fruit	3	8	[0, 0, 0]	n/a	catFR1	4	R1541T
840.694	1.599	853456	WORD	n/a	wordpools/wordpool_categorized_EN.txt	CHERRY	Fruit	4	8	[0, 0, 0]	n/a	catFR1	4	R1541T
842.293	0.867	855057	WORD_OFF	n/a	n/a	CHERRY	Fruit	4	8	[0, 0, 0]	n/a	catFR1	4	R1541T
843.16	1.6	855922	WORD	n/a	wordpools/wordpool_categorized_EN.txt	STOVE	Appliances	5	8	[0, 0, 0]	n/a	catFR1	4	R1541T
844.76	1.0	857524	WORD_OFF	n/a	n/a	STOVE	Appliances	5	8	[0, 0, 0]	n/a	catFR1	4	R1541T
845.76	1.616	858525	WORD	n/a	wordpools/wordpool_categorized_EN.txt	WASHER	Appliances	6	8	[0, 0, 0]	n/a	catFR1	4	R1541T
847.376	0.884	860136	WORD_OFF	n/a	n/a	WASHER	Appliances	6	8	[0, 0, 0]	n/a	catFR1	4	R1541T
848.26	1.616	861019	WORD	n/a	wordpools/wordpool_categorized_EN.txt	ORANGE	Fruit	7	8	[0, 0, 0]	n/a	catFR1	4	R1541T
849.876	0.916	862639	WORD_OFF	n/a	n/a	ORANGE	Fruit	7	8	[0, 0, 0]	n/a	catFR1	4	R1541T
850.792	1.601	863558	WORD	n/a	wordpools/wordpool_categorized_EN.txt	PLUM	Fruit	8	8	[0, 0, 0]	n/a	catFR1	4	R1541T
852.393	0.9	865160	WORD_OFF	n/a	n/a	PLUM	Fruit	8	8	[0, 0, 0]	n/a	catFR1	4	R1541T
853.293	1.616	866051	WORD	n/a	wordpools/wordpool_categorized_EN.txt	REFRIGERATOR	Appliances	9	8	[0, 0, 0]	n/a	catFR1	4	R1541T
854.909	0.833	867671	WORD_OFF	n/a	n/a	REFRIGERATOR	Appliances	9	8	[0, 0, 0]	n/a	catFR1	4	R1541T
855.742	1.6	868500	WORD	n/a	wordpools/wordpool_categorized_EN.txt	IRON	Appliances	10	8	[0, 0, 0]	n/a	catFR1	4	R1541T
857.342	0.817	870101	WORD_OFF	n/a	n/a	IRON	Appliances	10	8	[0, 0, 0]	n/a	catFR1	4	R1541T
858.159	1.616	870920	WORD	n/a	wordpools/wordpool_categorized_EN.txt	HEN	FarmAnimals	11	8	[0, 0, 0]	n/a	catFR1	4	R1541T
859.775	0.951	872540	WORD_OFF	n/a	n/a	HEN	FarmAnimals	11	8	[0, 0, 0]	n/a	catFR1	4	R1541T
860.726	1.6	873487	WORD	n/a	wordpools/wordpool_categorized_EN.txt	BULL	FarmAnimals	12	8	[0, 0, 0]	n/a	catFR1	4	R1541T
862.326	0.001	875089	WORD_OFF	n/a	n/a	BULL	FarmAnimals	12	8	[0, 0, 0]	n/a	catFR1	4	R1541T
862.327	0.0	875089	ENCODING_END	n/a	n/a	n/a	n/a	-999	8	[0, 0, 0]	n/a	catFR1	4	R1541T
862.327	0.0	875089	DISTRACT_START	n/a	n/a	n/a	n/a	-999	8	[0, 0, 0]	n/a	catFR1	4	R1541T
862.327	0.0	875091	START	n/a	n/a	n/a	n/a	-999	8	[-999, -999, -999]	n/a	catFR1	4	R1541T
862.327	3.233	875091	PROB	3.216	n/a	n/a	n/a	-999	8	[5, 6, 5]	16.0	catFR1	4	R1541T
865.56	2.116	878324	PROB	2.099	n/a	n/a	n/a	-999	8	[3, 4, 4]	11.0	catFR1	4	R1541T
867.676	2.5	880440	PROB	2.483	n/a	n/a	n/a	-999	8	[1, 6, 2]	9.0	catFR1	4	R1541T
870.176	2.517	882940	PROB	2.5	n/a	n/a	n/a	-999	8	[3, 5, 2]	10.0	catFR1	4	R1541T
872.693	3.433	885457	PROB	3.415	n/a	n/a	n/a	-999	8	[8, 4, 8]	20.0	catFR1	4	R1541T
876.126	2.6	888890	PROB	2.583	n/a	n/a	n/a	-999	8	[4, 8, 6]	18.0	catFR1	4	R1541T
878.726	2.317	891490	PROB	2.3	n/a	n/a	n/a	-999	8	[7, 1, 1]	9.0	catFR1	4	R1541T
881.043	2.999	893807	PROB	2.983	n/a	n/a	n/a	-999	8	[2, 1, 8]	11.0	catFR1	4	R1541T
884.042	0.0	896803	DISTRACT_END	n/a	n/a	n/a	n/a	-999	8	[0, 0, 0]	n/a	catFR1	4	R1541T
884.042	1.916	896806	STOP	n/a	n/a	n/a	n/a	-999	8	[-999, -999, -999]	n/a	catFR1	4	R1541T
885.958	0.758	898715	REC_START	n/a	n/a	n/a	n/a	-999	8	[0, 0, 0]	n/a	catFR1	4	R1541T
886.716	1.527	899480	REC_WORD	0.758	n/a	SHEEP	FarmAnimals	1	8	[0, 0, 0]	n/a	catFR1	4	R1541T
888.243	5.719	901007	REC_WORD	2.285	n/a	TURKEY	FarmAnimals	2	8	[0, 0, 0]	n/a	catFR1	4	R1541T
893.962	6.418	906726	REC_WORD	8.004	n/a	TOASTER	n/a	-999	8	[0, 0, 0]	n/a	catFR1	4	R1541T
900.38	0.783	913143	REC_WORD	14.422	n/a	COFFEE	Beverages	-999	8	[0, 0, 0]	n/a	catFR1	4	R1541T
901.163	0.577	913926	REC_WORD	15.205	n/a	TEA	Beverages	-999	8	[0, 0, 0]	n/a	catFR1	4	R1541T
901.74	8.478	914503	REC_WORD	15.782	n/a	SODA	Beverages	-999	8	[0, 0, 0]	n/a	catFR1	4	R1541T
910.218	5.968	922981	REC_WORD	24.26	n/a	ELM	Trees	-999	8	[0, 0, 0]	n/a	catFR1	4	R1541T
916.186	2.421	928948	REC_END	n/a	n/a	n/a	n/a	-999	8	[0, 0, 0]	n/a	catFR1	4	R1541T
918.607	10.35	931369	COUNTDOWN_START	n/a	n/a	n/a	n/a	-999	9	[0, 0, 0]	n/a	catFR1	4	R1541T
928.957	0.0	941716	COUNTDOWN_END	n/a	n/a	n/a	n/a	-999	9	[0, 0, 0]	n/a	catFR1	4	R1541T
928.957	2.151	941725	ENCODING_START	n/a	n/a	n/a	n/a	-999	9	[0, 0, 0]	n/a	catFR1	4	R1541T
931.108	1.6	943864	WORD	n/a	wordpools/wordpool_categorized_EN.txt	TRAIN	Vehicles	1	9	[0, 0, 0]	n/a	catFR1	4	R1541T
932.708	0.783	945466	WORD_OFF	n/a	n/a	TRAIN	Vehicles	1	9	[0, 0, 0]	n/a	catFR1	4	R1541T
933.491	1.617	946249	WORD	n/a	wordpools/wordpool_categorized_EN.txt	BOAT	Vehicles	2	9	[0, 0, 0]	n/a	catFR1	4	R1541T
935.108	0.9	947869	WORD_OFF	n/a	n/a	BOAT	Vehicles	2	9	[0, 0, 0]	n/a	catFR1	4	R1541T
936.008	1.616	948770	WORD	n/a	wordpools/wordpool_categorized_EN.txt	MICROWAVE	Electronics	3	9	[0, 0, 0]	n/a	catFR1	4	R1541T
937.624	0.933	950380	WORD_OFF	n/a	n/a	MICROWAVE	Electronics	3	9	[0, 0, 0]	n/a	catFR1	4	R1541T
938.557	1.616	951318	WORD	n/a	wordpools/wordpool_categorized_EN.txt	TABLET	Electronics	4	9	[0, 0, 0]	n/a	catFR1	4	R1541T
940.173	0.817	952929	WORD_OFF	n/a	n/a	TABLET	Electronics	4	9	[0, 0, 0]	n/a	catFR1	4	R1541T
940.99	1.6	953748	WORD	n/a	wordpools/wordpool_categorized_EN.txt	TULIP	Flowers	5	9	[0, 0, 0]	n/a	catFR1	4	R1541T
942.59	0.983	955350	WORD_OFF	n/a	n/a	TULIP	Flowers	5	9	[0, 0, 0]	n/a	catFR1	4	R1541T
943.573	1.6	956332	WORD	n/a	wordpools/wordpool_categorized_EN.txt	SUNFLOWER	Flowers	6	9	[0, 0, 0]	n/a	catFR1	4	R1541T
945.173	0.967	957934	WORD_OFF	n/a	n/a	SUNFLOWER	Flowers	6	9	[0, 0, 0]	n/a	catFR1	4	R1541T
946.14	1.6	958899	WORD	n/a	wordpools/wordpool_categorized_EN.txt	MOTORCYCLE	Vehicles	7	9	[0, 0, 0]	n/a	catFR1	4	R1541T
947.74	0.85	960501	WORD_OFF	n/a	n/a	MOTORCYCLE	Vehicles	7	9	[0, 0, 0]	n/a	catFR1	4	R1541T
948.59	1.6	961347	WORD	n/a	wordpools/wordpool_categorized_EN.txt	TRUCK	Vehicles	8	9	[0, 0, 0]	n/a	catFR1	4	R1541T
950.19	1.001	962949	WORD_OFF	n/a	n/a	TRUCK	Vehicles	8	9	[0, 0, 0]	n/a	catFR1	4	R1541T
951.191	1.6	963950	WORD	n/a	wordpools/wordpool_categorized_EN.txt	RADIO	Electronics	9	9	[0, 0, 0]	n/a	catFR1	4	R1541T
952.791	0.983	965552	WORD_OFF	n/a	n/a	RADIO	Electronics	9	9	[0, 0, 0]	n/a	catFR1	4	R1541T
953.774	1.6	966535	WORD	n/a	wordpools/wordpool_categorized_EN.txt	CALCULATOR	Electronics	10	9	[0, 0, 0]	n/a	catFR1	4	R1541T
955.374	0.867	968136	WORD_OFF	n/a	n/a	CALCULATOR	Electronics	10	9	[0, 0, 0]	n/a	catFR1	4	R1541T
956.241	1.616	969001	WORD	n/a	wordpools/wordpool_categorized_EN.txt	LILY	Flowers	11	9	[0, 0, 0]	n/a	catFR1	4	R1541T
957.857	0.766	970612	WORD_OFF	n/a	n/a	LILY	Flowers	11	9	[0, 0, 0]	n/a	catFR1	4	R1541T
958.623	1.601	971385	WORD	n/a	wordpools/wordpool_categorized_EN.txt	DAFFODIL	Flowers	12	9	[0, 0, 0]	n/a	catFR1	4	R1541T
960.224	0.0	972986	PROB	2.116	n/a	n/a	n/a	-999	9	[4, 2, 2]	8.0	catFR1	4	R1541T
960.224	0.001	972987	WORD_OFF	n/a	n/a	DAFFODIL	Flowers	12	9	[0, 0, 0]	n/a	catFR1	4	R1541T
960.225	0.0	972987	ENCODING_END	n/a	n/a	n/a	n/a	-999	9	[0, 0, 0]	n/a	catFR1	4	R1541T
960.225	0.0	972987	DISTRACT_START	n/a	n/a	n/a	n/a	-999	9	[0, 0, 0]	n/a	catFR1	4	R1541T
960.225	2.133	972987	START	n/a	n/a	n/a	n/a	-999	9	[-999, -999, -999]	n/a	catFR1	4	R1541T
962.358	2.215	975120	PROB	2.199	n/a	n/a	n/a	-999	9	[2, 1, 4]	7.0	catFR1	4	R1541T
964.573	2.267	977335	PROB	2.25	n/a	n/a	n/a	-999	9	[1, 6, 3]	10.0	catFR1	4	R1541T
966.84	2.467	979601	PROB	2.45	n/a	n/a	n/a	-999	9	[8, 4, 5]	17.0	catFR1	4	R1541T
969.307	3.234	982068	PROB	3.216	n/a	n/a	n/a	-999	9	[7, 7, 4]	19.0	catFR1	4	R1541T
972.541	2.083	985302	PROB	2.066	n/a	n/a	n/a	-999	9	[5, 1, 5]	11.0	catFR1	4	R1541T
974.624	3.216	987385	PROB	3.199	n/a	n/a	n/a	-999	9	[5, 4, 6]	15.0	catFR1	4	R1541T
977.84	2.799	990601	PROB	2.783	n/a	n/a	n/a	-999	9	[4, 6, 4]	14.0	catFR1	4	R1541T
980.639	0.0	993400	DISTRACT_END	n/a	n/a	n/a	n/a	-999	9	[0, 0, 0]	n/a	catFR1	4	R1541T
980.639	1.801	993400	STOP	n/a	n/a	n/a	n/a	-999	9	[-999, -999, -999]	n/a	catFR1	4	R1541T
982.44	1.195	995202	REC_START	n/a	n/a	n/a	n/a	-999	9	[0, 0, 0]	n/a	catFR1	4	R1541T
983.635	0.946	996396	REC_WORD	1.195	n/a	TRAIN	Vehicles	1	9	[0, 0, 0]	n/a	catFR1	4	R1541T
984.581	0.808	997342	REC_WORD	2.141	n/a	BOAT	Vehicles	2	9	[0, 0, 0]	n/a	catFR1	4	R1541T
985.389	0.803	998150	REC_WORD	2.949	n/a	TRUCK	Vehicles	8	9	[0, 0, 0]	n/a	catFR1	4	R1541T
986.192	1.386	998953	REC_WORD	3.752	n/a	MOTORCYCLE	Vehicles	7	9	[0, 0, 0]	n/a	catFR1	4	R1541T
987.578	2.382	1000339	REC_WORD	5.138	n/a	DAFFODIL	Flowers	12	9	[0, 0, 0]	n/a	catFR1	4	R1541T
989.96	4.707	1002721	REC_WORD	7.52	n/a	CARNATION	Flowers	-999	9	[0, 0, 0]	n/a	catFR1	4	R1541T
994.667	0.878	1007428	REC_WORD	12.227	n/a	TABLET	Electronics	4	9	[0, 0, 0]	n/a	catFR1	4	R1541T
995.545	17.128	1008306	REC_WORD	13.105	n/a	CALCULATOR	Electronics	10	9	[0, 0, 0]	n/a	catFR1	4	R1541T
1012.673	1.033	1025427	REC_END	n/a	n/a	n/a	n/a	-999	9	[0, 0, 0]	n/a	catFR1	4	R1541T
1013.706	10.348	1026464	COUNTDOWN_START	n/a	n/a	n/a	n/a	-999	10	[0, 0, 0]	n/a	catFR1	4	R1541T
1024.054	0.001	1036812	COUNTDOWN_END	n/a	n/a	n/a	n/a	-999	10	[0, 0, 0]	n/a	catFR1	4	R1541T
1024.055	2.101	1036821	ENCODING_START	n/a	n/a	n/a	n/a	-999	10	[0, 0, 0]	n/a	catFR1	4	R1541T
1026.156	1.599	1038914	WORD	n/a	wordpools/wordpool_categorized_EN.txt	SLINKY	Toys	1	10	[0, 0, 0]	n/a	catFR1	4	R1541T
1027.755	0.851	1040516	WORD_OFF	n/a	n/a	SLINKY	Toys	1	10	[0, 0, 0]	n/a	catFR1	4	R1541T
1028.606	1.615	1041362	WORD	n/a	wordpools/wordpool_categorized_EN.txt	BALL	Toys	2	10	[0, 0, 0]	n/a	catFR1	4	R1541T
1030.221	0.768	1042982	WORD_OFF	n/a	n/a	BALL	Toys	2	10	[0, 0, 0]	n/a	catFR1	4	R1541T
1030.989	1.6	1043747	WORD	n/a	wordpools/wordpool_categorized_EN.txt	LEG	BodyParts	3	10	[0, 0, 0]	n/a	catFR1	4	R1541T
1032.589	0.966	1045348	WORD_OFF	n/a	n/a	LEG	BodyParts	3	10	[0, 0, 0]	n/a	catFR1	4	R1541T
1033.555	1.6	1046313	WORD	n/a	wordpools/wordpool_categorized_EN.txt	TOE	BodyParts	4	10	[0, 0, 0]	n/a	catFR1	4	R1541T
1035.155	0.866	1047915	WORD_OFF	n/a	n/a	TOE	BodyParts	4	10	[0, 0, 0]	n/a	catFR1	4	R1541T
1036.021	1.6	1048780	WORD	n/a	wordpools/wordpool_categorized_EN.txt	STEREO	Electronics	5	10	[0, 0, 0]	n/a	catFR1	4	R1541T
1037.621	0.967	1050381	WORD_OFF	n/a	n/a	STEREO	Electronics	5	10	[0, 0, 0]	n/a	catFR1	4	R1541T
1038.588	1.617	1051346	WORD	n/a	wordpools/wordpool_categorized_EN.txt	COMPUTER	Electronics	6	10	[0, 0, 0]	n/a	catFR1	4	R1541T
1040.205	0.95	1052966	WORD_OFF	n/a	n/a	COMPUTER	Electronics	6	10	[0, 0, 0]	n/a	catFR1	4	R1541T
1041.155	1.617	1053912	WORD	n/a	wordpools/wordpool_categorized_EN.txt	ELBOW	BodyParts	7	10	[0, 0, 0]	n/a	catFR1	4	R1541T
1042.772	0.833	1055532	WORD_OFF	n/a	n/a	ELBOW	BodyParts	7	10	[0, 0, 0]	n/a	catFR1	4	R1541T
1043.605	1.616	1056361	WORD	n/a	wordpools/wordpool_categorized_EN.txt	HEAD	BodyParts	8	10	[0, 0, 0]	n/a	catFR1	4	R1541T
1045.221	0.801	1057981	WORD_OFF	n/a	n/a	HEAD	BodyParts	8	10	[0, 0, 0]	n/a	catFR1	4	R1541T
1046.022	1.6	1058781	WORD	n/a	wordpools/wordpool_categorized_EN.txt	FOOTBALL	Toys	9	10	[0, 0, 0]	n/a	catFR1	4	R1541T
1047.622	0.8	1060374	WORD_OFF	n/a	n/a	FOOTBALL	Toys	9	10	[0, 0, 0]	n/a	catFR1	4	R1541T
1048.422	1.6	1061175	WORD	n/a	wordpools/wordpool_categorized_EN.txt	BARBIE	Toys	10	10	[0, 0, 0]	n/a	catFR1	4	R1541T
1050.022	0.832	1062777	WORD_OFF	n/a	n/a	BARBIE	Toys	10	10	[0, 0, 0]	n/a	catFR1	4	R1541T
1050.854	1.6	1063614	WORD	n/a	wordpools/wordpool_categorized_EN.txt	TELEVISION	Electronics	11	10	[0, 0, 0]	n/a	catFR1	4	R1541T
1052.454	0.968	1065207	WORD_OFF	n/a	n/a	TELEVISION	Electronics	11	10	[0, 0, 0]	n/a	catFR1	4	R1541T
1053.422	1.616	1066180	WORD	n/a	wordpools/wordpool_categorized_EN.txt	SPEAKER	Electronics	12	10	[0, 0, 0]	n/a	catFR1	4	R1541T
1055.038	0.0	1067791	WORD_OFF	n/a	n/a	SPEAKER	Electronics	12	10	[0, 0, 0]	n/a	catFR1	4	R1541T
1055.038	0.002	1067797	PROB	4.232	n/a	n/a	n/a	-999	10	[5, 1, 8]	14.0	catFR1	4	R1541T
1055.04	0.0	1067799	START	n/a	n/a	n/a	n/a	-999	10	[-999, -999, -999]	n/a	catFR1	4	R1541T
1055.04	0.0	1067800	ENCODING_END	n/a	n/a	n/a	n/a	-999	10	[0, 0, 0]	n/a	catFR1	4	R1541T
1055.04	4.249	1067800	DISTRACT_START	n/a	n/a	n/a	n/a	-999	10	[0, 0, 0]	n/a	catFR1	4	R1541T
1059.289	1.866	1072048	PROB	1.848	n/a	n/a	n/a	-999	10	[1, 3, 2]	6.0	catFR1	4	R1541T
1061.155	1.85	1073914	PROB	1.833	n/a	n/a	n/a	-999	10	[1, 1, 4]	6.0	catFR1	4	R1541T
1063.005	2.483	1075764	PROB	2.466	n/a	n/a	n/a	-999	10	[6, 6, 7]	19.0	catFR1	4	R1541T
1065.488	2.15	1078247	PROB	2.133	n/a	n/a	n/a	-999	10	[6, 1, 2]	9.0	catFR1	4	R1541T
1067.638	1.717	1080397	PROB	1.7	n/a	n/a	n/a	-999	10	[1, 2, 3]	6.0	catFR1	4	R1541T
1069.355	2.117	1082114	PROB	2.099	n/a	n/a	n/a	-999	10	[8, 1, 3]	12.0	catFR1	4	R1541T
1071.472	2.8	1084231	PROB	2.782	n/a	n/a	n/a	-999	10	[4, 1, 1]	6.0	catFR1	4	R1541T
1074.272	2.116	1087031	PROB	2.099	n/a	n/a	n/a	-999	10	[7, 7, 7]	21.0	catFR1	4	R1541T
1076.388	0.0	1089142	DISTRACT_END	n/a	n/a	n/a	n/a	-999	10	[0, 0, 0]	n/a	catFR1	4	R1541T
1076.388	1.549	1089146	STOP	n/a	n/a	n/a	n/a	-999	10	[-999, -999, -999]	n/a	catFR1	4	R1541T
1077.937	1.496	1090689	REC_START	n/a	n/a	n/a	n/a	-999	10	[0, 0, 0]	n/a	catFR1	4	R1541T
1079.433	1.001	1092191	REC_WORD	1.496	n/a	SPEAKER	Electronics	12	10	[0, 0, 0]	n/a	catFR1	4	R1541T
1080.434	2.713	1093192	REC_WORD	2.497	n/a	SPEAKER	Electronics	12	10	[0, 0, 0]	n/a	catFR1	4	R1541T
1083.147	0.91	1095905	REC_WORD	5.21	n/a	COMPUTER	Electronics	6	10	[0, 0, 0]	n/a	catFR1	4	R1541T
1084.057	0.649	1096815	REC_WORD	6.12	n/a	TOE	BodyParts	4	10	[0, 0, 0]	n/a	catFR1	4	R1541T
1084.706	23.465	1097464	REC_WORD	6.769	n/a	LEG	BodyParts	3	10	[0, 0, 0]	n/a	catFR1	4	R1541T
1108.171	1.632	1120922	REC_END	n/a	n/a	n/a	n/a	-999	10	[0, 0, 0]	n/a	catFR1	4	R1541T
1109.803	10.35	1122561	COUNTDOWN_START	n/a	n/a	n/a	n/a	-999	11	[0, 0, 0]	n/a	catFR1	4	R1541T
1120.153	0.0	1132908	COUNTDOWN_END	n/a	n/a	n/a	n/a	-999	11	[0, 0, 0]	n/a	catFR1	4	R1541T
1120.153	2.182	1132908	ENCODING_START	n/a	n/a	n/a	n/a	-999	11	[0, 0, 0]	n/a	catFR1	4	R1541T
1122.335	1.617	1135093	WORD	n/a	wordpools/wordpool_categorized_EN.txt	WALNUT	Trees	1	11	[0, 0, 0]	n/a	catFR1	4	R1541T
1123.952	0.818	1136703	WORD_OFF	n/a	n/a	WALNUT	Trees	1	11	[0, 0, 0]	n/a	catFR1	4	R1541T
1124.77	1.6	1137523	WORD	n/a	wordpools/wordpool_categorized_EN.txt	CEDAR	Trees	2	11	[0, 0, 0]	n/a	catFR1	4	R1541T
1126.37	0.866	1139124	WORD_OFF	n/a	n/a	CEDAR	Trees	2	11	[0, 0, 0]	n/a	catFR1	4	R1541T
1127.236	1.616	1139989	WORD	n/a	wordpools/wordpool_categorized_EN.txt	TORNADO	Weather	3	11	[0, 0, 0]	n/a	catFR1	4	R1541T
1128.852	0.834	1141609	WORD_OFF	n/a	n/a	TORNADO	Weather	3	11	[0, 0, 0]	n/a	catFR1	4	R1541T
1129.686	1.617	1142437	WORD	n/a	wordpools/wordpool_categorized_EN.txt	THUNDER	Weather	4	11	[0, 0, 0]	n/a	catFR1	4	R1541T
1131.303	0.816	1144057	WORD_OFF	n/a	n/a	THUNDER	Weather	4	11	[0, 0, 0]	n/a	catFR1	4	R1541T
1132.119	1.6	1144876	WORD	n/a	wordpools/wordpool_categorized_EN.txt	FOLDER	OfficeSupplies	5	11	[0, 0, 0]	n/a	catFR1	4	R1541T
1133.719	0.867	1146469	WORD_OFF	n/a	n/a	FOLDER	OfficeSupplies	5	11	[0, 0, 0]	n/a	catFR1	4	R1541T
1134.586	1.6	1147342	WORD	n/a	wordpools/wordpool_categorized_EN.txt	ERASER	OfficeSupplies	6	11	[0, 0, 0]	n/a	catFR1	4	R1541T
1136.186	0.867	1148944	WORD_OFF	n/a	n/a	ERASER	OfficeSupplies	6	11	[0, 0, 0]	n/a	catFR1	4	R1541T
1137.053	1.6	1149809	WORD	n/a	wordpools/wordpool_categorized_EN.txt	CYPRESS	Trees	7	11	[0, 0, 0]	n/a	catFR1	4	R1541T
1138.653	0.833	1151410	WORD_OFF	n/a	n/a	CYPRESS	Trees	7	11	[0, 0, 0]	n/a	catFR1	4	R1541T
1139.486	1.617	1152239	WORD	n/a	wordpools/wordpool_categorized_EN.txt	EVERGREEN	Trees	8	11	[0, 0, 0]	n/a	catFR1	4	R1541T
1141.103	0.767	1153859	WORD_OFF	n/a	n/a	EVERGREEN	Trees	8	11	[0, 0, 0]	n/a	catFR1	4	R1541T
1141.87	1.615	1154623	WORD	n/a	wordpools/wordpool_categorized_EN.txt	MARKER	OfficeSupplies	9	11	[0, 0, 0]	n/a	catFR1	4	R1541T
1143.485	0.884	1156243	WORD_OFF	n/a	n/a	MARKER	OfficeSupplies	9	11	[0, 0, 0]	n/a	catFR1	4	R1541T
1144.369	1.616	1157126	WORD	n/a	wordpools/wordpool_categorized_EN.txt	RULER	OfficeSupplies	10	11	[0, 0, 0]	n/a	catFR1	4	R1541T
1145.985	0.933	1158737	WORD_OFF	n/a	n/a	RULER	OfficeSupplies	10	11	[0, 0, 0]	n/a	catFR1	4	R1541T
1146.918	1.6	1159674	WORD	n/a	wordpools/wordpool_categorized_EN.txt	LIGHTNING	Weather	11	11	[0, 0, 0]	n/a	catFR1	4	R1541T
1148.518	0.967	1161276	WORD_OFF	n/a	n/a	LIGHTNING	Weather	11	11	[0, 0, 0]	n/a	catFR1	4	R1541T
1149.485	1.6	1162241	WORD	n/a	wordpools/wordpool_categorized_EN.txt	SNOW	Weather	12	11	[0, 0, 0]	n/a	catFR1	4	R1541T
1151.085	0.0	1163841	PROB	3.017	n/a	n/a	n/a	-999	11	[7, 7, 3]	17.0	catFR1	4	R1541T
1151.085	0.002	1163842	WORD_OFF	n/a	n/a	SNOW	Weather	12	11	[0, 0, 0]	n/a	catFR1	4	R1541T
1151.087	0.0	1163842	ENCODING_END	n/a	n/a	n/a	n/a	-999	11	[0, 0, 0]	n/a	catFR1	4	R1541T
1151.087	0.0	1163842	DISTRACT_START	n/a	n/a	n/a	n/a	-999	11	[0, 0, 0]	n/a	catFR1	4	R1541T
1151.087	3.033	1163843	START	n/a	n/a	n/a	n/a	-999	11	[-999, -999, -999]	n/a	catFR1	4	R1541T
1154.12	2.233	1166876	PROB	2.216	n/a	n/a	n/a	-999	11	[6, 6, 8]	20.0	catFR1	4	R1541T
1156.353	2.317	1169109	PROB	2.299	n/a	n/a	n/a	-999	11	[4, 8, 6]	18.0	catFR1	4	R1541T
1158.67	2.283	1171426	PROB	2.266	n/a	n/a	n/a	-999	11	[5, 4, 8]	17.0	catFR1	4	R1541T
1160.953	2.483	1173709	PROB	2.466	n/a	n/a	n/a	-999	11	[1, 6, 1]	8.0	catFR1	4	R1541T
1163.436	2.283	1176192	PROB	2.266	n/a	n/a	n/a	-999	11	[2, 5, 3]	10.0	catFR1	4	R1541T
1165.719	2.55	1178475	PROB	2.533	n/a	n/a	n/a	-999	11	[5, 8, 3]	16.0	catFR1	4	R1541T
1168.269	2.334	1181025	PROB	2.316	n/a	n/a	n/a	-999	11	[1, 8, 7]	16.0	catFR1	4	R1541T
1170.603	2.482	1183359	PROB	2.466	n/a	n/a	n/a	-999	11	[4, 4, 7]	15.0	catFR1	4	R1541T
1173.085	0.0	1185839	DISTRACT_END	n/a	n/a	n/a	n/a	-999	11	[0, 0, 0]	n/a	catFR1	4	R1541T
1173.085	1.667	1185841	STOP	n/a	n/a	n/a	n/a	-999	11	[-999, -999, -999]	n/a	catFR1	4	R1541T
1174.752	0.856	1187505	REC_START	n/a	n/a	n/a	n/a	-999	11	[0, 0, 0]	n/a	catFR1	4	R1541T
1175.608	1.064	1188364	REC_WORD	0.856	n/a	THUNDER	Weather	4	11	[0, 0, 0]	n/a	catFR1	4	R1541T
1176.672	0.819	1189428	REC_WORD	1.92	n/a	LIGHTNING	Weather	11	11	[0, 0, 0]	n/a	catFR1	4	R1541T
1177.491	0.841	1190247	REC_WORD	2.739	n/a	TORNADO	Weather	3	11	[0, 0, 0]	n/a	catFR1	4	R1541T
1178.332	5.995	1191088	REC_WORD	3.58	n/a	WIND	Weather	-999	11	[0, 0, 0]	n/a	catFR1	4	R1541T
1184.327	0.827	1197083	REC_WORD	9.575	n/a	BALL	Toys	-999	11	[0, 0, 0]	n/a	catFR1	4	R1541T
1185.154	1.001	1197909	REC_WORD	10.402	n/a	SLINKY	Toys	-999	11	[0, 0, 0]	n/a	catFR1	4	R1541T
1186.155	0.557	1198910	REC_WORD	11.403	n/a	SLINKY	Toys	-999	11	[0, 0, 0]	n/a	catFR1	4	R1541T
1186.712	6.208	1199467	REC_WORD	11.96	n/a	BARBIE	Toys	-999	11	[0, 0, 0]	n/a	catFR1	4	R1541T
1192.92	0.772	1205675	REC_WORD	18.168	n/a	ELM	Trees	-999	11	[0, 0, 0]	n/a	catFR1	4	R1541T
1193.692	0.823	1206447	REC_WORD	18.94	n/a	CYPRESS	Trees	7	11	[0, 0, 0]	n/a	catFR1	4	R1541T
1194.515	10.469	1207270	REC_WORD	19.763	n/a	WALNUT	Trees	1	11	[0, 0, 0]	n/a	catFR1	4	R1541T
1204.984	2.667	1217738	REC_END	n/a	n/a	n/a	n/a	-999	11	[0, 0, 0]	n/a	catFR1	4	R1541T
1207.651	10.35	1220404	COUNTDOWN_START	n/a	n/a	n/a	n/a	-999	12	[0, 0, 0]	n/a	catFR1	4	R1541T
1218.001	0.0	1230752	COUNTDOWN_END	n/a	n/a	n/a	n/a	-999	12	[0, 0, 0]	n/a	catFR1	4	R1541T
1218.001	2.049	1230752	ENCODING_START	n/a	n/a	n/a	n/a	-999	12	[0, 0, 0]	n/a	catFR1	4	R1541T
1220.05	1.6	1232800	WORD	n/a	wordpools/wordpool_categorized_EN.txt	FINGERS	BodyParts	1	12	[0, 0, 0]	n/a	catFR1	4	R1541T
1221.65	0.95	1234402	WORD_OFF	n/a	n/a	FINGERS	BodyParts	1	12	[0, 0, 0]	n/a	catFR1	4	R1541T
1222.6	1.601	1235348	WORD	n/a	wordpools/wordpool_categorized_EN.txt	EAR	BodyParts	2	12	[0, 0, 0]	n/a	catFR1	4	R1541T
1224.201	0.983	1236950	WORD_OFF	n/a	n/a	EAR	BodyParts	2	12	[0, 0, 0]	n/a	catFR1	4	R1541T
1225.184	1.6	1237933	WORD	n/a	wordpools/wordpool_categorized_EN.txt	WINE	Beverages	3	12	[0, 0, 0]	n/a	catFR1	4	R1541T
1226.784	0.867	1239535	WORD_OFF	n/a	n/a	WINE	Beverages	3	12	[0, 0, 0]	n/a	catFR1	4	R1541T
1227.651	1.616	1240399	WORD	n/a	wordpools/wordpool_categorized_EN.txt	WATER	Beverages	4	12	[0, 0, 0]	n/a	catFR1	4	R1541T
1229.267	0.95	1242019	WORD_OFF	n/a	n/a	WATER	Beverages	4	12	[0, 0, 0]	n/a	catFR1	4	R1541T
1230.217	1.6	1242966	WORD	n/a	wordpools/wordpool_categorized_EN.txt	JEEP	Vehicles	5	12	[0, 0, 0]	n/a	catFR1	4	R1541T
1231.817	0.85	1244567	WORD_OFF	n/a	n/a	JEEP	Vehicles	5	12	[0, 0, 0]	n/a	catFR1	4	R1541T
1232.667	1.616	1245423	WORD	n/a	wordpools/wordpool_categorized_EN.txt	BIKE	Vehicles	6	12	[0, 0, 0]	n/a	catFR1	4	R1541T
1234.283	0.984	1247034	WORD_OFF	n/a	n/a	BIKE	Vehicles	6	12	[0, 0, 0]	n/a	catFR1	4	R1541T
1235.267	1.616	1248017	WORD	n/a	wordpools/wordpool_categorized_EN.txt	ARM	BodyParts	7	12	[0, 0, 0]	n/a	catFR1	4	R1541T
1236.883	0.899	1249637	WORD_OFF	n/a	n/a	ARM	BodyParts	7	12	[0, 0, 0]	n/a	catFR1	4	R1541T
1237.782	1.601	1250538	WORD	n/a	wordpools/wordpool_categorized_EN.txt	EYE	BodyParts	8	12	[0, 0, 0]	n/a	catFR1	4	R1541T
1239.383	0.983	1252130	WORD_OFF	n/a	n/a	EYE	BodyParts	8	12	[0, 0, 0]	n/a	catFR1	4	R1541T
1240.366	1.601	1253122	WORD	n/a	wordpools/wordpool_categorized_EN.txt	RUM	Beverages	9	12	[0, 0, 0]	n/a	catFR1	4	R1541T
1241.967	0.799	1254715	WORD_OFF	n/a	n/a	RUM	Beverages	9	12	[0, 0, 0]	n/a	catFR1	4	R1541T
1242.766	1.601	1255516	WORD	n/a	wordpools/wordpool_categorized_EN.txt	BEER	Beverages	10	12	[0, 0, 0]	n/a	catFR1	4	R1541T
1244.367	0.833	1257118	WORD_OFF	n/a	n/a	BEER	Beverages	10	12	[0, 0, 0]	n/a	catFR1	4	R1541T
1245.2	1.6	1257955	WORD	n/a	wordpools/wordpool_categorized_EN.txt	BUS	Vehicles	11	12	[0, 0, 0]	n/a	catFR1	4	R1541T
1246.8	0.817	1259548	WORD_OFF	n/a	n/a	BUS	Vehicles	11	12	[0, 0, 0]	n/a	catFR1	4	R1541T
1247.617	1.6	1260367	WORD	n/a	wordpools/wordpool_categorized_EN.txt	VAN	Vehicles	12	12	[0, 0, 0]	n/a	catFR1	4	R1541T
1249.217	0.001	1261968	WORD_OFF	n/a	n/a	VAN	Vehicles	12	12	[0, 0, 0]	n/a	catFR1	4	R1541T
1249.218	0.0	1261968	ENCODING_END	n/a	n/a	n/a	n/a	-999	12	[0, 0, 0]	n/a	catFR1	4	R1541T
1249.218	0.0	1261968	DISTRACT_START	n/a	n/a	n/a	n/a	-999	12	[0, 0, 0]	n/a	catFR1	4	R1541T
1249.218	0.0	1261972	START	n/a	n/a	n/a	n/a	-999	12	[-999, -999, -999]	n/a	catFR1	4	R1541T
1249.218	2.616	1261972	PROB	2.599	n/a	n/a	n/a	-999	12	[2, 2, 5]	9.0	catFR1	4	R1541T
1251.834	2.584	1264588	PROB	2.565	n/a	n/a	n/a	-999	12	[1, 8, 7]	16.0	catFR1	4	R1541T
1254.418	3.282	1267172	PROB	3.265	n/a	n/a	n/a	-999	12	[4, 5, 1]	10.0	catFR1	4	R1541T
1257.7	2.1	1270453	PROB	2.083	n/a	n/a	n/a	-999	12	[8, 8, 4]	20.0	catFR1	4	R1541T
1259.8	2.418	1272553	PROB	2.4	n/a	n/a	n/a	-999	12	[7, 2, 8]	17.0	catFR1	4	R1541T
1262.218	2.049	1274971	PROB	2.032	n/a	n/a	n/a	-999	12	[4, 1, 1]	6.0	catFR1	4	R1541T
1264.267	1.95	1277020	PROB	1.932	n/a	n/a	n/a	-999	12	[1, 1, 4]	6.0	catFR1	4	R1541T
1266.217	2.167	1278970	PROB	2.149	n/a	n/a	n/a	-999	12	[5, 3, 2]	10.0	catFR1	4	R1541T
1268.384	2.932	1281137	PROB	2.916	n/a	n/a	n/a	-999	12	[4, 4, 2]	10.0	catFR1	4	R1541T
1271.316	0.0	1284065	DISTRACT_END	n/a	n/a	n/a	n/a	-999	12	[0, 0, 0]	n/a	catFR1	4	R1541T
1271.316	1.65	1284069	STOP	n/a	n/a	n/a	n/a	-999	12	[-999, -999, -999]	n/a	catFR1	4	R1541T
1272.966	0.354	1285713	REC_START	n/a	n/a	n/a	n/a	-999	12	[0, 0, 0]	n/a	catFR1	4	R1541T
1273.32	1.0	1286073	REC_WORD	0.354	n/a	FINGERS	BodyParts	1	12	[0, 0, 0]	n/a	catFR1	4	R1541T
1274.32	0.084	1287073	REC_WORD	1.354	n/a	FINGERS	BodyParts	1	12	[0, 0, 0]	n/a	catFR1	4	R1541T
1274.404	0.73	1287157	REC_WORD	1.438	n/a	EAR	BodyParts	2	12	[0, 0, 0]	n/a	catFR1	4	R1541T
1275.134	0.983	1287887	REC_WORD	2.168	n/a	WINE	Beverages	3	12	[0, 0, 0]	n/a	catFR1	4	R1541T
1276.117	1.655	1288870	REC_WORD	3.151	n/a	RUM	Beverages	9	12	[0, 0, 0]	n/a	catFR1	4	R1541T
1277.772	16.165	1290525	REC_WORD	4.806	n/a	BEER	Beverages	10	12	[0, 0, 0]	n/a	catFR1	4	R1541T
1293.937	9.263	1306689	REC_WORD	20.971	n/a	NOSE	BodyParts	-999	12	[0, 0, 0]	n/a	catFR1	4	R1541T
1303.2	0.0	1315946	REC_END	n/a	n/a	n/a	n/a	-999	12	[0, 0, 0]	n/a	catFR1	4	R1541T
