onset	duration	sample	trial_type	response_time	stim_file	item_name	category	serialpos	list	test	answer	experiment	session	subject
0.0	28.276	19590	SESS_START	n/a	n/a	n/a	n/a	-999	-999	[0, 0, 0]	n/a	catFR1	2	R1144E
28.276	10.428	33727	COUNTDOWN_START	n/a	n/a	n/a	n/a	-999	-999	[0, 0, 0]	n/a	catFR1	2	R1144E
38.704	3.775	38940	COUNTDOWN_END	n/a	n/a	n/a	n/a	-999	-999	[0, 0, 0]	n/a	catFR1	2	R1144E
42.479	2.5	40828	PRACTICE_WORD	n/a	n/a	WATCH	n/a	-999	-999	[0, 0, 0]	n/a	catFR1	2	R1144E
44.979	2.45	42078	PRACTICE_WORD	n/a	n/a	ATTIC	n/a	-999	-999	[0, 0, 0]	n/a	catFR1	2	R1144E
47.429	2.551	43302	PRACTICE_WORD	n/a	n/a	FLOOD	n/a	-999	-999	[0, 0, 0]	n/a	catFR1	2	R1144E
49.98	2.6	44578	PRACTICE_WORD	n/a	n/a	COTTON	n/a	-999	-999	[0, 0, 0]	n/a	catFR1	2	R1144E
52.58	2.551	45878	PRACTICE_WORD	n/a	n/a	TONGUE	n/a	-999	-999	[0, 0, 0]	n/a	catFR1	2	R1144E
55.131	2.484	47153	PRACTICE_WORD	n/a	n/a	IRON	n/a	-999	-999	[0, 0, 0]	n/a	catFR1	2	R1144E
57.615	2.483	48395	PRACTICE_WORD	n/a	n/a	WAGON	n/a	-999	-999	[0, 0, 0]	n/a	catFR1	2	R1144E
60.098	2.567	49637	PRACTICE_WORD	n/a	n/a	RING	n/a	-999	-999	[0, 0, 0]	n/a	catFR1	2	R1144E
62.665	2.467	50920	PRACTICE_WORD	n/a	n/a	RHINO	n/a	-999	-999	[0, 0, 0]	n/a	catFR1	2	R1144E
65.132	2.417	52153	PRACTICE_WORD	n/a	n/a	BEAM	n/a	-999	-999	[0, 0, 0]	n/a	catFR1	2	R1144E
67.549	2.551	53362	PRACTICE_WORD	n/a	n/a	CAMEL	n/a	-999	-999	[0, 0, 0]	n/a	catFR1	2	R1144E
70.1	1.617	54637	PRACTICE_WORD	n/a	n/a	CHEST	n/a	-999	-999	[0, 0, 0]	n/a	catFR1	2	R1144E
71.717	0.0	55446	PRACTICE_DISTRACT_START	n/a	n/a	n/a	n/a	-999	-999	[0, 0, 0]	n/a	catFR1	2	R1144E
71.717	0.017	55446	START	n/a	n/a	n/a	n/a	-999	-1	[-999, -999, -999]	n/a	catFR1	2	R1144E
71.734	8.384	55454	PROB	8.362	n/a	n/a	n/a	-999	-1	[8, 2, 6]	16.0	catFR1	2	R1144E
80.118	6.385	59646	PROB	6.362	n/a	n/a	n/a	-999	-1	[1, 5, 9]	16.0	catFR1	2	R1144E
86.503	8.371	62838	PROB	8.371	n/a	n/a	n/a	-999	-1	[1, 6, 3]	10.0	catFR1	2	R1144E
94.874	0.014	67023	STOP	n/a	n/a	n/a	n/a	-999	-1	[-999, -999, -999]	n/a	catFR1	2	R1144E
94.888	0.635	67030	PRACTICE_DISTRACT_END	n/a	n/a	n/a	n/a	-999	-999	[0, 0, 0]	n/a	catFR1	2	R1144E
95.523	30.514	67348	PRACTICE_REC_START	n/a	n/a	n/a	n/a	-999	-999	[0, 0, 0]	n/a	catFR1	2	R1144E
126.037	37.879	82604	PRACTICE_REC_END	n/a	n/a	n/a	n/a	-999	-999	[0, 0, 0]	n/a	catFR1	2	R1144E
163.916	0.001	101542	COUNTDOWN_START	n/a	n/a	n/a	n/a	-999	1	[0, 0, 0]	n/a	catFR1	2	R1144E
163.917	10.427	101542	TRIAL	n/a	n/a	n/a	n/a	-999	1	[0, 0, 0]	n/a	catFR1	2	R1144E
174.344	0.008	106756	COUNTDOWN_END	n/a	n/a	n/a	n/a	-999	1	[0, 0, 0]	n/a	catFR1	2	R1144E
174.352	3.533	106760	ORIENT	n/a	n/a	n/a	n/a	-999	1	[0, 0, 0]	n/a	catFR1	2	R1144E
177.885	2.384	108526	WORD	n/a	wordpools/wordpool_categorized_EN.txt	CHEETAH	Zoo	1	1	[0, 0, 0]	n/a	catFR1	2	R1144E
180.269	2.584	109718	WORD	n/a	wordpools/wordpool_categorized_EN.txt	BEAR	Zoo	2	1	[0, 0, 0]	n/a	catFR1	2	R1144E
182.853	2.5	111010	WORD	n/a	wordpools/wordpool_categorized_EN.txt	TURTLE	OceanAnimals	3	1	[0, 0, 0]	n/a	catFR1	2	R1144E
185.353	2.534	112260	WORD	n/a	wordpools/wordpool_categorized_EN.txt	OYSTER	OceanAnimals	4	1	[0, 0, 0]	n/a	catFR1	2	R1144E
187.887	2.417	113527	WORD	n/a	wordpools/wordpool_categorized_EN.txt	COLA	Beverages	5	1	[0, 0, 0]	n/a	catFR1	2	R1144E
190.304	2.467	114735	WORD	n/a	wordpools/wordpool_categorized_EN.txt	SODA	Beverages	6	1	[0, 0, 0]	n/a	catFR1	2	R1144E
192.771	2.551	115969	WORD	n/a	wordpools/wordpool_categorized_EN.txt	LOBSTER	OceanAnimals	7	1	[0, 0, 0]	n/a	catFR1	2	R1144E
195.322	2.5	117244	WORD	n/a	wordpools/wordpool_categorized_EN.txt	OCTOPUS	OceanAnimals	8	1	[0, 0, 0]	n/a	catFR1	2	R1144E
197.822	2.384	118494	WORD	n/a	wordpools/wordpool_categorized_EN.txt	MONKEY	Zoo	9	1	[0, 0, 0]	n/a	catFR1	2	R1144E
200.206	2.617	119686	WORD	n/a	wordpools/wordpool_categorized_EN.txt	ZEBRA	Zoo	10	1	[0, 0, 0]	n/a	catFR1	2	R1144E
202.823	2.434	120994	WORD	n/a	wordpools/wordpool_categorized_EN.txt	JUICE	Beverages	11	1	[0, 0, 0]	n/a	catFR1	2	R1144E
205.257	1.617	122211	WORD	n/a	wordpools/wordpool_categorized_EN.txt	COFFEE	Beverages	12	1	[0, 0, 0]	n/a	catFR1	2	R1144E
206.874	0.001	123020	DISTRACT_START	n/a	n/a	n/a	n/a	-999	1	[0, 0, 0]	n/a	catFR1	2	R1144E
206.875	0.016	123020	START	n/a	n/a	n/a	n/a	-999	1	[-999, -999, -999]	n/a	catFR1	2	R1144E
206.891	4.099	123028	PROB	4.065	n/a	n/a	n/a	-999	1	[6, 4, 2]	12.0	catFR1	2	R1144E
210.99	9.786	125077	PROB	9.765	n/a	n/a	n/a	-999	1	[9, 6, 8]	24.0	catFR1	2	R1144E
220.776	5.551	129970	PROB	5.531	n/a	n/a	n/a	-999	1	[5, 5, 6]	16.0	catFR1	2	R1144E
226.327	4.916	132745	PROB	4.916	n/a	n/a	n/a	-999	1	[2, 4, 9]	15.0	catFR1	2	R1144E
231.243	0.018	135203	STOP	n/a	n/a	n/a	n/a	-999	1	[-999, -999, -999]	n/a	catFR1	2	R1144E
231.261	1.074	135212	DISTRACT_END	n/a	n/a	n/a	n/a	-999	1	[0, 0, 0]	n/a	catFR1	2	R1144E
232.335	1.647	135749	REC_START	n/a	n/a	n/a	n/a	-999	1	[0, 0, 0]	n/a	catFR1	2	R1144E
233.982	1.029	136573	REC_WORD	1.647	n/a	CHEETAH	Zoo	1	1	[0, 0, 0]	n/a	catFR1	2	R1144E
235.011	2.193	137087	REC_WORD	2.676	n/a	BEAR	Zoo	2	1	[0, 0, 0]	n/a	catFR1	2	R1144E
237.204	8.056	138183	REC_WORD	4.869	n/a	OYSTER	OceanAnimals	4	1	[0, 0, 0]	n/a	catFR1	2	R1144E
245.26	8.276	142211	REC_WORD	12.925	n/a	ZEBRA	Zoo	10	1	[0, 0, 0]	n/a	catFR1	2	R1144E
253.536	0.693	146349	REC_WORD	21.201	n/a	COFFEE	Beverages	12	1	[0, 0, 0]	n/a	catFR1	2	R1144E
254.229	8.108	146695	REC_WORD	21.894	n/a	JUICE	Beverages	11	1	[0, 0, 0]	n/a	catFR1	2	R1144E
262.337	3.097	150749	REC_END	n/a	n/a	n/a	n/a	-999	1	[0, 0, 0]	n/a	catFR1	2	R1144E
265.434	0.0	152298	TRIAL	n/a	n/a	n/a	n/a	-999	2	[0, 0, 0]	n/a	catFR1	2	R1144E
265.434	10.428	152298	COUNTDOWN_START	n/a	n/a	n/a	n/a	-999	2	[0, 0, 0]	n/a	catFR1	2	R1144E
275.862	0.007	157511	COUNTDOWN_END	n/a	n/a	n/a	n/a	-999	2	[0, 0, 0]	n/a	catFR1	2	R1144E
275.869	3.651	157515	ORIENT	n/a	n/a	n/a	n/a	-999	2	[0, 0, 0]	n/a	catFR1	2	R1144E
279.52	2.533	159340	WORD	n/a	wordpools/wordpool_categorized_EN.txt	SHELF	Furniture	1	2	[0, 0, 0]	n/a	catFR1	2	R1144E
282.053	2.551	160606	WORD	n/a	wordpools/wordpool_categorized_EN.txt	DESK	Furniture	2	2	[0, 0, 0]	n/a	catFR1	2	R1144E
284.604	2.484	161882	WORD	n/a	wordpools/wordpool_categorized_EN.txt	THUNDER	Weather	3	2	[0, 0, 0]	n/a	catFR1	2	R1144E
287.088	2.5	163124	WORD	n/a	wordpools/wordpool_categorized_EN.txt	TORNADO	Weather	4	2	[0, 0, 0]	n/a	catFR1	2	R1144E
289.588	2.384	164374	WORD	n/a	wordpools/wordpool_categorized_EN.txt	CEDAR	Trees	5	2	[0, 0, 0]	n/a	catFR1	2	R1144E
291.972	2.634	165566	WORD	n/a	wordpools/wordpool_categorized_EN.txt	BIRCH	Trees	6	2	[0, 0, 0]	n/a	catFR1	2	R1144E
294.606	2.383	166883	WORD	n/a	wordpools/wordpool_categorized_EN.txt	LIGHTNING	Weather	7	2	[0, 0, 0]	n/a	catFR1	2	R1144E
296.989	2.568	168074	WORD	n/a	wordpools/wordpool_categorized_EN.txt	WIND	Weather	8	2	[0, 0, 0]	n/a	catFR1	2	R1144E
299.557	2.583	169358	WORD	n/a	wordpools/wordpool_categorized_EN.txt	SOFA	Furniture	9	2	[0, 0, 0]	n/a	catFR1	2	R1144E
302.14	2.501	170649	WORD	n/a	wordpools/wordpool_categorized_EN.txt	NIGHTSTAND	Furniture	10	2	[0, 0, 0]	n/a	catFR1	2	R1144E
304.641	2.383	171900	WORD	n/a	wordpools/wordpool_categorized_EN.txt	SPRUCE	Trees	11	2	[0, 0, 0]	n/a	catFR1	2	R1144E
307.024	1.618	173091	WORD	n/a	wordpools/wordpool_categorized_EN.txt	EVERGREEN	Trees	12	2	[0, 0, 0]	n/a	catFR1	2	R1144E
308.642	0.0	173900	DISTRACT_START	n/a	n/a	n/a	n/a	-999	2	[0, 0, 0]	n/a	catFR1	2	R1144E
308.642	0.016	173900	START	n/a	n/a	n/a	n/a	-999	2	[-999, -999, -999]	n/a	catFR1	2	R1144E
308.658	6.384	173908	PROB	6.348	n/a	n/a	n/a	-999	2	[9, 8, 7]	24.0	catFR1	2	R1144E
315.042	5.185	177100	PROB	5.149	n/a	n/a	n/a	-999	2	[7, 8, 1]	16.0	catFR1	2	R1144E
320.227	4.217	179692	PROB	4.196	n/a	n/a	n/a	-999	2	[4, 6, 8]	18.0	catFR1	2	R1144E
324.444	4.307	181801	PROB	4.307	n/a	n/a	n/a	-999	2	[2, 8, 6]	16.0	catFR1	2	R1144E
328.751	0.011	183954	STOP	n/a	n/a	n/a	n/a	-999	2	[-999, -999, -999]	n/a	catFR1	2	R1144E
328.762	1.117	183959	DISTRACT_END	n/a	n/a	n/a	n/a	-999	2	[0, 0, 0]	n/a	catFR1	2	R1144E
329.879	1.124	184518	REC_START	n/a	n/a	n/a	n/a	-999	2	[0, 0, 0]	n/a	catFR1	2	R1144E
331.003	1.062	185080	REC_WORD	1.124	n/a	EVERGREEN	Trees	12	2	[0, 0, 0]	n/a	catFR1	2	R1144E
332.065	1.286	185611	REC_WORD	2.186	n/a	SPRUCE	Trees	11	2	[0, 0, 0]	n/a	catFR1	2	R1144E
333.351	1.952	186254	REC_WORD	3.472	n/a	THUNDER	Weather	3	2	[0, 0, 0]	n/a	catFR1	2	R1144E
335.303	1.7	187230	REC_WORD	5.424	n/a	LIGHTNING	Weather	7	2	[0, 0, 0]	n/a	catFR1	2	R1144E
337.003	6.463	188080	REC_WORD	7.124	n/a	TORNADO	Weather	4	2	[0, 0, 0]	n/a	catFR1	2	R1144E
343.466	1.877	191311	REC_WORD	13.587	n/a	SHELF	Furniture	1	2	[0, 0, 0]	n/a	catFR1	2	R1144E
345.343	14.549	192249	REC_WORD	15.464	n/a	DESK	Furniture	2	2	[0, 0, 0]	n/a	catFR1	2	R1144E
359.892	3.493	199523	REC_END	n/a	n/a	n/a	n/a	-999	2	[0, 0, 0]	n/a	catFR1	2	R1144E
363.385	0.0	201270	COUNTDOWN_START	n/a	n/a	n/a	n/a	-999	3	[0, 0, 0]	n/a	catFR1	2	R1144E
363.385	10.428	201270	TRIAL	n/a	n/a	n/a	n/a	-999	3	[0, 0, 0]	n/a	catFR1	2	R1144E
373.813	0.007	206483	COUNTDOWN_END	n/a	n/a	n/a	n/a	-999	3	[0, 0, 0]	n/a	catFR1	2	R1144E
373.82	3.717	206487	ORIENT	n/a	n/a	n/a	n/a	-999	3	[0, 0, 0]	n/a	catFR1	2	R1144E
377.537	2.483	208345	WORD	n/a	wordpools/wordpool_categorized_EN.txt	BULL	FarmAnimals	1	3	[0, 0, 0]	n/a	catFR1	2	R1144E
380.02	2.418	209587	WORD	n/a	wordpools/wordpool_categorized_EN.txt	GOAT	FarmAnimals	2	3	[0, 0, 0]	n/a	catFR1	2	R1144E
382.438	2.583	210796	WORD	n/a	wordpools/wordpool_categorized_EN.txt	HAND	BodyParts	3	3	[0, 0, 0]	n/a	catFR1	2	R1144E
385.021	2.501	212087	WORD	n/a	wordpools/wordpool_categorized_EN.txt	LEG	BodyParts	4	3	[0, 0, 0]	n/a	catFR1	2	R1144E
387.522	2.499	213337	WORD	n/a	wordpools/wordpool_categorized_EN.txt	BROCCOLI	Vegetables	5	3	[0, 0, 0]	n/a	catFR1	2	R1144E
390.021	2.568	214587	WORD	n/a	wordpools/wordpool_categorized_EN.txt	CELERY	Vegetables	6	3	[0, 0, 0]	n/a	catFR1	2	R1144E
392.589	2.518	215871	WORD	n/a	wordpools/wordpool_categorized_EN.txt	FOOT	BodyParts	7	3	[0, 0, 0]	n/a	catFR1	2	R1144E
395.107	2.634	217130	WORD	n/a	wordpools/wordpool_categorized_EN.txt	EAR	BodyParts	8	3	[0, 0, 0]	n/a	catFR1	2	R1144E
397.741	2.5	218447	WORD	n/a	wordpools/wordpool_categorized_EN.txt	HORSE	FarmAnimals	9	3	[0, 0, 0]	n/a	catFR1	2	R1144E
400.241	2.467	219696	WORD	n/a	wordpools/wordpool_categorized_EN.txt	LAMB	FarmAnimals	10	3	[0, 0, 0]	n/a	catFR1	2	R1144E
402.708	2.501	220930	WORD	n/a	wordpools/wordpool_categorized_EN.txt	CARROT	Vegetables	11	3	[0, 0, 0]	n/a	catFR1	2	R1144E
405.209	1.616	222180	WORD	n/a	wordpools/wordpool_categorized_EN.txt	ONION	Vegetables	12	3	[0, 0, 0]	n/a	catFR1	2	R1144E
406.825	0.001	222988	DISTRACT_START	n/a	n/a	n/a	n/a	-999	3	[0, 0, 0]	n/a	catFR1	2	R1144E
406.826	0.016	222989	START	n/a	n/a	n/a	n/a	-999	3	[-999, -999, -999]	n/a	catFR1	2	R1144E
406.842	3.567	222997	PROB	3.536	n/a	n/a	n/a	-999	3	[2, 2, 2]	6.0	catFR1	2	R1144E
410.409	6.502	224780	PROB	6.473	n/a	n/a	n/a	-999	3	[9, 6, 3]	18.0	catFR1	2	R1144E
416.911	5.133	228031	PROB	5.098	n/a	n/a	n/a	-999	3	[6, 4, 3]	13.0	catFR1	2	R1144E
422.044	4.168	230597	PROB	4.134	n/a	n/a	n/a	-999	3	[9, 9, 4]	22.0	catFR1	2	R1144E
426.212	4.246	232681	PROB	4.246	n/a	n/a	n/a	-999	3	[8, 8, 3]	19.0	catFR1	2	R1144E
430.458	0.022	234804	STOP	n/a	n/a	n/a	n/a	-999	3	[-999, -999, -999]	n/a	catFR1	2	R1144E
430.48	1.15	234815	DISTRACT_END	n/a	n/a	n/a	n/a	-999	3	[0, 0, 0]	n/a	catFR1	2	R1144E
431.63	5.683	235390	REC_START	n/a	n/a	n/a	n/a	-999	3	[0, 0, 0]	n/a	catFR1	2	R1144E
437.313	2.605	238231	REC_WORD	5.683	n/a	CARROT	Vegetables	11	3	[0, 0, 0]	n/a	catFR1	2	R1144E
439.918	2.108	239534	REC_WORD	8.288	n/a	ONION	Vegetables	12	3	[0, 0, 0]	n/a	catFR1	2	R1144E
442.026	19.617	240588	REC_WORD	10.396	n/a	BULL	FarmAnimals	1	3	[0, 0, 0]	n/a	catFR1	2	R1144E
461.643	3.676	250395	REC_END	n/a	n/a	n/a	n/a	-999	3	[0, 0, 0]	n/a	catFR1	2	R1144E
465.319	0.0	252233	TRIAL	n/a	n/a	n/a	n/a	-999	4	[0, 0, 0]	n/a	catFR1	2	R1144E
465.319	10.428	252233	COUNTDOWN_START	n/a	n/a	n/a	n/a	-999	4	[0, 0, 0]	n/a	catFR1	2	R1144E
475.747	0.007	257447	COUNTDOWN_END	n/a	n/a	n/a	n/a	-999	4	[0, 0, 0]	n/a	catFR1	2	R1144E
475.754	3.801	257450	ORIENT	n/a	n/a	n/a	n/a	-999	4	[0, 0, 0]	n/a	catFR1	2	R1144E
479.555	2.449	259351	WORD	n/a	wordpools/wordpool_categorized_EN.txt	BOOKCASE	Furniture	1	4	[0, 0, 0]	n/a	catFR1	2	R1144E
482.004	2.602	260575	WORD	n/a	wordpools/wordpool_categorized_EN.txt	CABINET	Furniture	2	4	[0, 0, 0]	n/a	catFR1	2	R1144E
484.606	2.517	261876	WORD	n/a	wordpools/wordpool_categorized_EN.txt	MARBLES	Toys	3	4	[0, 0, 0]	n/a	catFR1	2	R1144E
487.123	2.434	263134	WORD	n/a	wordpools/wordpool_categorized_EN.txt	FOOTBALL	Toys	4	4	[0, 0, 0]	n/a	catFR1	2	R1144E
489.557	2.466	264351	WORD	n/a	wordpools/wordpool_categorized_EN.txt	RUM	Beverages	5	4	[0, 0, 0]	n/a	catFR1	2	R1144E
492.023	2.434	265584	WORD	n/a	wordpools/wordpool_categorized_EN.txt	LEMONADE	Beverages	6	4	[0, 0, 0]	n/a	catFR1	2	R1144E
494.457	2.451	266801	WORD	n/a	wordpools/wordpool_categorized_EN.txt	BED	Furniture	7	4	[0, 0, 0]	n/a	catFR1	2	R1144E
496.908	2.55	268027	WORD	n/a	wordpools/wordpool_categorized_EN.txt	COUCH	Furniture	8	4	[0, 0, 0]	n/a	catFR1	2	R1144E
499.458	2.434	269302	WORD	n/a	wordpools/wordpool_categorized_EN.txt	WATER	Beverages	9	4	[0, 0, 0]	n/a	catFR1	2	R1144E
501.892	2.6	270518	WORD	n/a	wordpools/wordpool_categorized_EN.txt	TEA	Beverages	10	4	[0, 0, 0]	n/a	catFR1	2	R1144E
504.492	2.584	271818	WORD	n/a	wordpools/wordpool_categorized_EN.txt	BARBIE	Toys	11	4	[0, 0, 0]	n/a	catFR1	2	R1144E
507.076	1.617	273110	WORD	n/a	wordpools/wordpool_categorized_EN.txt	FRISBEE	Toys	12	4	[0, 0, 0]	n/a	catFR1	2	R1144E
508.693	0.001	273919	DISTRACT_START	n/a	n/a	n/a	n/a	-999	4	[0, 0, 0]	n/a	catFR1	2	R1144E
508.694	0.016	273919	START	n/a	n/a	n/a	n/a	-999	4	[-999, -999, -999]	n/a	catFR1	2	R1144E
508.71	4.567	273927	PROB	4.535	n/a	n/a	n/a	-999	4	[6, 1, 7]	14.0	catFR1	2	R1144E
513.277	6.452	276211	PROB	6.431	n/a	n/a	n/a	-999	4	[7, 6, 9]	22.0	catFR1	2	R1144E
519.729	5.134	279436	PROB	5.099	n/a	n/a	n/a	-999	4	[9, 5, 2]	16.0	catFR1	2	R1144E
524.863	4.564	282003	PROB	4.564	n/a	n/a	n/a	-999	4	[8, 4, 1]	13.0	catFR1	2	R1144E
529.427	0.003	284285	STOP	n/a	n/a	n/a	n/a	-999	4	[-999, -999, -999]	n/a	catFR1	2	R1144E
529.43	1.218	284287	DISTRACT_END	n/a	n/a	n/a	n/a	-999	4	[0, 0, 0]	n/a	catFR1	2	R1144E
530.648	1.675	284895	REC_START	n/a	n/a	n/a	n/a	-999	4	[0, 0, 0]	n/a	catFR1	2	R1144E
532.323	4.448	285733	REC_WORD	1.675	n/a	FOOTBALL	Toys	4	4	[0, 0, 0]	n/a	catFR1	2	R1144E
536.771	2.043	287957	REC_WORD	6.123	n/a	BOOKCASE	Furniture	1	4	[0, 0, 0]	n/a	catFR1	2	R1144E
538.814	21.843	288978	REC_WORD	8.166	n/a	BED	Furniture	7	4	[0, 0, 0]	n/a	catFR1	2	R1144E
560.657	8.664	299899	REC_END	n/a	n/a	n/a	n/a	-999	4	[0, 0, 0]	n/a	catFR1	2	R1144E
569.321	0.0	304231	TRIAL	n/a	n/a	n/a	n/a	-999	5	[0, 0, 0]	n/a	catFR1	2	R1144E
569.321	10.428	304231	COUNTDOWN_START	n/a	n/a	n/a	n/a	-999	5	[0, 0, 0]	n/a	catFR1	2	R1144E
579.749	0.007	309444	COUNTDOWN_END	n/a	n/a	n/a	n/a	-999	5	[0, 0, 0]	n/a	catFR1	2	R1144E
579.756	3.5	309448	ORIENT	n/a	n/a	n/a	n/a	-999	5	[0, 0, 0]	n/a	catFR1	2	R1144E
583.256	2.401	311198	WORD	n/a	wordpools/wordpool_categorized_EN.txt	SQUID	OceanAnimals	1	5	[0, 0, 0]	n/a	catFR1	2	R1144E
585.657	2.433	312398	WORD	n/a	wordpools/wordpool_categorized_EN.txt	DOLPHIN	OceanAnimals	2	5	[0, 0, 0]	n/a	catFR1	2	R1144E
588.09	2.568	313615	WORD	n/a	wordpools/wordpool_categorized_EN.txt	SHORTS	Clothing	3	5	[0, 0, 0]	n/a	catFR1	2	R1144E
590.658	2.6	314898	WORD	n/a	wordpools/wordpool_categorized_EN.txt	UNDERWEAR	Clothing	4	5	[0, 0, 0]	n/a	catFR1	2	R1144E
593.258	2.434	316198	WORD	n/a	wordpools/wordpool_categorized_EN.txt	WASHER	Appliances	5	5	[0, 0, 0]	n/a	catFR1	2	R1144E
595.692	2.384	317415	WORD	n/a	wordpools/wordpool_categorized_EN.txt	REFRIGERATOR	Appliances	6	5	[0, 0, 0]	n/a	catFR1	2	R1144E
598.076	2.5	318607	WORD	n/a	wordpools/wordpool_categorized_EN.txt	SHIRT	Clothing	7	5	[0, 0, 0]	n/a	catFR1	2	R1144E
600.576	2.4	319857	WORD	n/a	wordpools/wordpool_categorized_EN.txt	JEANS	Clothing	8	5	[0, 0, 0]	n/a	catFR1	2	R1144E
602.976	2.584	321057	WORD	n/a	wordpools/wordpool_categorized_EN.txt	PLANKTON	OceanAnimals	9	5	[0, 0, 0]	n/a	catFR1	2	R1144E
605.56	2.601	322349	WORD	n/a	wordpools/wordpool_categorized_EN.txt	JELLYFISH	OceanAnimals	10	5	[0, 0, 0]	n/a	catFR1	2	R1144E
608.161	2.483	323649	WORD	n/a	wordpools/wordpool_categorized_EN.txt	BLENDER	Appliances	11	5	[0, 0, 0]	n/a	catFR1	2	R1144E
610.644	1.617	324891	WORD	n/a	wordpools/wordpool_categorized_EN.txt	MIXER	Appliances	12	5	[0, 0, 0]	n/a	catFR1	2	R1144E
612.261	0.001	325699	DISTRACT_START	n/a	n/a	n/a	n/a	-999	5	[0, 0, 0]	n/a	catFR1	2	R1144E
612.262	0.016	325700	START	n/a	n/a	n/a	n/a	-999	5	[-999, -999, -999]	n/a	catFR1	2	R1144E
612.278	4.851	325708	PROB	4.82	n/a	n/a	n/a	-999	5	[3, 1, 5]	9.0	catFR1	2	R1144E
617.129	5.434	328133	PROB	5.409	n/a	n/a	n/a	-999	5	[9, 9, 8]	26.0	catFR1	2	R1144E
622.563	5.168	330850	PROB	5.143	n/a	n/a	n/a	-999	5	[9, 2, 7]	18.0	catFR1	2	R1144E
627.731	3.901	333434	PROB	3.871	n/a	n/a	n/a	-999	5	[2, 5, 2]	9.0	catFR1	2	R1144E
631.632	4.97	335384	PROB	4.97	n/a	n/a	n/a	-999	5	[7, 8, 3]	18.0	catFR1	2	R1144E
636.602	0.014	337869	STOP	n/a	n/a	n/a	n/a	-999	5	[-999, -999, -999]	n/a	catFR1	2	R1144E
636.616	1.05	337876	DISTRACT_END	n/a	n/a	n/a	n/a	-999	5	[0, 0, 0]	n/a	catFR1	2	R1144E
637.666	1.34	338401	REC_START	n/a	n/a	n/a	n/a	-999	5	[0, 0, 0]	n/a	catFR1	2	R1144E
639.006	2.012	339071	REC_WORD	1.34	n/a	SHORTS	Clothing	3	5	[0, 0, 0]	n/a	catFR1	2	R1144E
641.018	0.951	340077	REC_WORD	3.352	n/a	SHORTS	Clothing	3	5	[0, 0, 0]	n/a	catFR1	2	R1144E
641.969	1.665	340552	REC_WORD	4.303	n/a	SHIRT	Clothing	7	5	[0, 0, 0]	n/a	catFR1	2	R1144E
643.634	1.709	341385	REC_WORD	5.968	n/a	UNDERWEAR	Clothing	4	5	[0, 0, 0]	n/a	catFR1	2	R1144E
645.343	1.8	342239	REC_WORD	7.677	n/a	JEANS	Clothing	8	5	[0, 0, 0]	n/a	catFR1	2	R1144E
647.143	4.189	343139	REC_WORD	9.477	n/a	WASHER	Appliances	5	5	[0, 0, 0]	n/a	catFR1	2	R1144E
651.332	3.535	345233	REC_WORD	13.666	n/a	SQUID	OceanAnimals	1	5	[0, 0, 0]	n/a	catFR1	2	R1144E
654.867	12.812	347001	REC_WORD	17.201	n/a	DOLPHIN	OceanAnimals	2	5	[0, 0, 0]	n/a	catFR1	2	R1144E
667.679	3.308	353406	REC_END	n/a	n/a	n/a	n/a	-999	5	[0, 0, 0]	n/a	catFR1	2	R1144E
670.987	0.0	355060	TRIAL	n/a	n/a	n/a	n/a	-999	6	[0, 0, 0]	n/a	catFR1	2	R1144E
670.987	10.428	355060	COUNTDOWN_START	n/a	n/a	n/a	n/a	-999	6	[0, 0, 0]	n/a	catFR1	2	R1144E
681.415	0.008	360274	COUNTDOWN_END	n/a	n/a	n/a	n/a	-999	6	[0, 0, 0]	n/a	catFR1	2	R1144E
681.423	3.768	360278	ORIENT	n/a	n/a	n/a	n/a	-999	6	[0, 0, 0]	n/a	catFR1	2	R1144E
685.191	2.534	362162	WORD	n/a	wordpools/wordpool_categorized_EN.txt	FINGERS	BodyParts	1	6	[0, 0, 0]	n/a	catFR1	2	R1144E
687.725	2.433	363429	WORD	n/a	wordpools/wordpool_categorized_EN.txt	ELBOW	BodyParts	2	6	[0, 0, 0]	n/a	catFR1	2	R1144E
690.158	2.417	364645	WORD	n/a	wordpools/wordpool_categorized_EN.txt	OVEN	Appliances	3	6	[0, 0, 0]	n/a	catFR1	2	R1144E
692.575	2.483	365853	WORD	n/a	wordpools/wordpool_categorized_EN.txt	TOASTER	Appliances	4	6	[0, 0, 0]	n/a	catFR1	2	R1144E
695.058	2.518	367095	WORD	n/a	wordpools/wordpool_categorized_EN.txt	PASTRY	Desserts	5	6	[0, 0, 0]	n/a	catFR1	2	R1144E
697.576	2.401	368354	WORD	n/a	wordpools/wordpool_categorized_EN.txt	CUPCAKE	Desserts	6	6	[0, 0, 0]	n/a	catFR1	2	R1144E
699.977	2.567	369554	WORD	n/a	wordpools/wordpool_categorized_EN.txt	DISHWASHER	Appliances	7	6	[0, 0, 0]	n/a	catFR1	2	R1144E
702.544	2.617	370838	WORD	n/a	wordpools/wordpool_categorized_EN.txt	FREEZER	Appliances	8	6	[0, 0, 0]	n/a	catFR1	2	R1144E
705.161	2.4	372146	WORD	n/a	wordpools/wordpool_categorized_EN.txt	HEAD	BodyParts	9	6	[0, 0, 0]	n/a	catFR1	2	R1144E
707.561	2.601	373346	WORD	n/a	wordpools/wordpool_categorized_EN.txt	NOSE	BodyParts	10	6	[0, 0, 0]	n/a	catFR1	2	R1144E
710.162	2.567	374646	WORD	n/a	wordpools/wordpool_categorized_EN.txt	CHEESECAKE	Desserts	11	6	[0, 0, 0]	n/a	catFR1	2	R1144E
712.729	1.617	375930	WORD	n/a	wordpools/wordpool_categorized_EN.txt	COOKIE	Desserts	12	6	[0, 0, 0]	n/a	catFR1	2	R1144E
714.346	0.001	376738	DISTRACT_START	n/a	n/a	n/a	n/a	-999	6	[0, 0, 0]	n/a	catFR1	2	R1144E
714.347	0.016	376739	START	n/a	n/a	n/a	n/a	-999	6	[-999, -999, -999]	n/a	catFR1	2	R1144E
714.363	5.0	376747	PROB	4.97	n/a	n/a	n/a	-999	6	[5, 5, 5]	15.0	catFR1	2	R1144E
719.363	6.402	379247	PROB	6.382	n/a	n/a	n/a	-999	6	[6, 6, 7]	19.0	catFR1	2	R1144E
725.765	4.134	382447	PROB	4.108	n/a	n/a	n/a	-999	6	[4, 7, 7]	18.0	catFR1	2	R1144E
729.899	4.87	384514	PROB	4.87	n/a	n/a	n/a	-999	6	[2, 9, 2]	13.0	catFR1	2	R1144E
734.769	0.014	386949	STOP	n/a	n/a	n/a	n/a	-999	6	[-999, -999, -999]	n/a	catFR1	2	R1144E
734.783	1.216	386956	DISTRACT_END	n/a	n/a	n/a	n/a	-999	6	[0, 0, 0]	n/a	catFR1	2	R1144E
735.999	1.108	387564	REC_START	n/a	n/a	n/a	n/a	-999	6	[0, 0, 0]	n/a	catFR1	2	R1144E
737.107	1.409	388118	REC_WORD	1.108	n/a	FINGERS	BodyParts	1	6	[0, 0, 0]	n/a	catFR1	2	R1144E
738.516	1.917	388822	REC_WORD	2.517	n/a	ELBOW	BodyParts	2	6	[0, 0, 0]	n/a	catFR1	2	R1144E
740.433	1.554	389781	REC_WORD	4.434	n/a	HEAD	BodyParts	9	6	[0, 0, 0]	n/a	catFR1	2	R1144E
741.987	6.343	390558	REC_WORD	5.988	n/a	NOSE	BodyParts	10	6	[0, 0, 0]	n/a	catFR1	2	R1144E
748.33	2.305	393729	REC_WORD	12.331	n/a	CUPCAKE	Desserts	6	6	[0, 0, 0]	n/a	catFR1	2	R1144E
750.635	3.144	394881	REC_WORD	14.636	n/a	COOKIE	Desserts	12	6	[0, 0, 0]	n/a	catFR1	2	R1144E
753.779	2.686	396453	REC_WORD	17.78	n/a	TOASTER	Appliances	4	6	[0, 0, 0]	n/a	catFR1	2	R1144E
756.465	1.394	397796	REC_WORD	20.466	n/a	FREEZER	Appliances	8	6	[0, 0, 0]	n/a	catFR1	2	R1144E
757.859	8.153	398493	REC_WORD	21.86	n/a	DISHWASHER	Appliances	7	6	[0, 0, 0]	n/a	catFR1	2	R1144E
766.012	3.46	402569	REC_END	n/a	n/a	n/a	n/a	-999	6	[0, 0, 0]	n/a	catFR1	2	R1144E
769.472	0.0	404299	TRIAL	n/a	n/a	n/a	n/a	-999	7	[0, 0, 0]	n/a	catFR1	2	R1144E
769.472	10.428	404299	COUNTDOWN_START	n/a	n/a	n/a	n/a	-999	7	[0, 0, 0]	n/a	catFR1	2	R1144E
779.9	0.007	409513	COUNTDOWN_END	n/a	n/a	n/a	n/a	-999	7	[0, 0, 0]	n/a	catFR1	2	R1144E
779.907	3.917	409516	ORIENT	n/a	n/a	n/a	n/a	-999	7	[0, 0, 0]	n/a	catFR1	2	R1144E
783.824	2.451	411475	WORD	n/a	wordpools/wordpool_categorized_EN.txt	TABLET	Electronics	1	7	[0, 0, 0]	n/a	catFR1	2	R1144E
786.275	2.484	412700	WORD	n/a	wordpools/wordpool_categorized_EN.txt	CALCULATOR	Electronics	2	7	[0, 0, 0]	n/a	catFR1	2	R1144E
788.759	2.567	413942	WORD	n/a	wordpools/wordpool_categorized_EN.txt	ISLAND	Landscapes	3	7	[0, 0, 0]	n/a	catFR1	2	R1144E
791.326	2.6	415226	WORD	n/a	wordpools/wordpool_categorized_EN.txt	FOREST	Landscapes	4	7	[0, 0, 0]	n/a	catFR1	2	R1144E
793.926	2.434	416526	WORD	n/a	wordpools/wordpool_categorized_EN.txt	ORANGE	Fruit	5	7	[0, 0, 0]	n/a	catFR1	2	R1144E
796.36	2.567	417742	WORD	n/a	wordpools/wordpool_categorized_EN.txt	GRAPE	Fruit	6	7	[0, 0, 0]	n/a	catFR1	2	R1144E
798.927	2.501	419026	WORD	n/a	wordpools/wordpool_categorized_EN.txt	CREEK	Landscapes	7	7	[0, 0, 0]	n/a	catFR1	2	R1144E
801.428	2.583	420276	WORD	n/a	wordpools/wordpool_categorized_EN.txt	STREAM	Landscapes	8	7	[0, 0, 0]	n/a	catFR1	2	R1144E
804.011	2.601	421568	WORD	n/a	wordpools/wordpool_categorized_EN.txt	SCANNER	Electronics	9	7	[0, 0, 0]	n/a	catFR1	2	R1144E
806.612	2.601	422868	WORD	n/a	wordpools/wordpool_categorized_EN.txt	HEADPHONES	Electronics	10	7	[0, 0, 0]	n/a	catFR1	2	R1144E
809.213	2.483	424168	WORD	n/a	wordpools/wordpool_categorized_EN.txt	STRAWBERRY	Fruit	11	7	[0, 0, 0]	n/a	catFR1	2	R1144E
811.696	1.617	425410	WORD	n/a	wordpools/wordpool_categorized_EN.txt	APPLE	Fruit	12	7	[0, 0, 0]	n/a	catFR1	2	R1144E
813.313	0.001	426218	DISTRACT_START	n/a	n/a	n/a	n/a	-999	7	[0, 0, 0]	n/a	catFR1	2	R1144E
813.314	0.016	426219	START	n/a	n/a	n/a	n/a	-999	7	[-999, -999, -999]	n/a	catFR1	2	R1144E
813.33	6.201	426227	PROB	6.168	n/a	n/a	n/a	-999	7	[3, 7, 8]	18.0	catFR1	2	R1144E
819.531	6.718	429327	PROB	6.689	n/a	n/a	n/a	-999	7	[5, 4, 6]	15.0	catFR1	2	R1144E
826.249	6.767	432686	PROB	6.732	n/a	n/a	n/a	-999	7	[4, 8, 9]	21.0	catFR1	2	R1144E
833.016	7.495	436069	PROB	7.495	n/a	n/a	n/a	-999	7	[4, 7, 9]	20.0	catFR1	2	R1144E
840.511	0.007	439816	STOP	n/a	n/a	n/a	n/a	-999	7	[-999, -999, -999]	n/a	catFR1	2	R1144E
840.518	1.068	439820	DISTRACT_END	n/a	n/a	n/a	n/a	-999	7	[0, 0, 0]	n/a	catFR1	2	R1144E
841.586	1.591	440354	REC_START	n/a	n/a	n/a	n/a	-999	7	[0, 0, 0]	n/a	catFR1	2	R1144E
843.177	2.458	441149	REC_WORD	1.591	n/a	TABLET	Electronics	1	7	[0, 0, 0]	n/a	catFR1	2	R1144E
845.635	2.286	442378	REC_WORD	4.049	n/a	FOLDER	n/a	-999	7	[0, 0, 0]	n/a	catFR1	2	R1144E
847.921	7.077	443521	REC_WORD	6.335	n/a	HEADPHONES	Electronics	10	7	[0, 0, 0]	n/a	catFR1	2	R1144E
854.998	2.46	447059	REC_WORD	13.412	n/a	ORANGE	Fruit	5	7	[0, 0, 0]	n/a	catFR1	2	R1144E
857.458	14.137	448289	REC_WORD	15.872	n/a	GRAPE	Fruit	6	7	[0, 0, 0]	n/a	catFR1	2	R1144E
871.595	4.579	455357	REC_END	n/a	n/a	n/a	n/a	-999	7	[0, 0, 0]	n/a	catFR1	2	R1144E
876.174	0.0	457647	COUNTDOWN_START	n/a	n/a	n/a	n/a	-999	8	[0, 0, 0]	n/a	catFR1	2	R1144E
876.174	10.428	457647	TRIAL	n/a	n/a	n/a	n/a	-999	8	[0, 0, 0]	n/a	catFR1	2	R1144E
886.602	0.007	462860	COUNTDOWN_END	n/a	n/a	n/a	n/a	-999	8	[0, 0, 0]	n/a	catFR1	2	R1144E
886.609	3.818	462864	ORIENT	n/a	n/a	n/a	n/a	-999	8	[0, 0, 0]	n/a	catFR1	2	R1144E
890.427	2.583	464773	WORD	n/a	wordpools/wordpool_categorized_EN.txt	ARM	BodyParts	1	8	[0, 0, 0]	n/a	catFR1	2	R1144E
893.01	2.518	466064	WORD	n/a	wordpools/wordpool_categorized_EN.txt	EYE	BodyParts	2	8	[0, 0, 0]	n/a	catFR1	2	R1144E
895.528	2.417	467323	WORD	n/a	wordpools/wordpool_categorized_EN.txt	DUCK	Birds	3	8	[0, 0, 0]	n/a	catFR1	2	R1144E
897.945	2.45	468531	WORD	n/a	wordpools/wordpool_categorized_EN.txt	PIGEON	Birds	4	8	[0, 0, 0]	n/a	catFR1	2	R1144E
900.395	2.551	469756	WORD	n/a	wordpools/wordpool_categorized_EN.txt	OCEAN	Landscapes	5	8	[0, 0, 0]	n/a	catFR1	2	R1144E
902.946	2.433	471032	WORD	n/a	wordpools/wordpool_categorized_EN.txt	MOUNTAIN	Landscapes	6	8	[0, 0, 0]	n/a	catFR1	2	R1144E
905.379	2.584	472248	WORD	n/a	wordpools/wordpool_categorized_EN.txt	KNEE	BodyParts	7	8	[0, 0, 0]	n/a	catFR1	2	R1144E
907.963	2.434	473540	WORD	n/a	wordpools/wordpool_categorized_EN.txt	TOE	BodyParts	8	8	[0, 0, 0]	n/a	catFR1	2	R1144E
910.397	2.567	474757	WORD	n/a	wordpools/wordpool_categorized_EN.txt	HILLS	Landscapes	9	8	[0, 0, 0]	n/a	catFR1	2	R1144E
912.964	2.417	476040	WORD	n/a	wordpools/wordpool_categorized_EN.txt	WOODS	Landscapes	10	8	[0, 0, 0]	n/a	catFR1	2	R1144E
915.381	2.451	477249	WORD	n/a	wordpools/wordpool_categorized_EN.txt	BLUEBIRD	Birds	11	8	[0, 0, 0]	n/a	catFR1	2	R1144E
917.832	1.617	478474	WORD	n/a	wordpools/wordpool_categorized_EN.txt	DOVE	Birds	12	8	[0, 0, 0]	n/a	catFR1	2	R1144E
919.449	0.0	479283	DISTRACT_START	n/a	n/a	n/a	n/a	-999	8	[0, 0, 0]	n/a	catFR1	2	R1144E
919.449	0.016	479283	START	n/a	n/a	n/a	n/a	-999	8	[-999, -999, -999]	n/a	catFR1	2	R1144E
919.465	5.368	479291	PROB	5.347	n/a	n/a	n/a	-999	8	[6, 9, 2]	17.0	catFR1	2	R1144E
924.833	4.617	481975	PROB	4.587	n/a	n/a	n/a	-999	8	[8, 4, 1]	13.0	catFR1	2	R1144E
929.45	3.668	484283	PROB	3.642	n/a	n/a	n/a	-999	8	[3, 5, 1]	9.0	catFR1	2	R1144E
933.118	6.117	486117	PROB	6.094	n/a	n/a	n/a	-999	8	[8, 5, 6]	19.0	catFR1	2	R1144E
939.235	5.665	489175	PROB	5.665	n/a	n/a	n/a	-999	8	[6, 5, 7]	18.0	catFR1	2	R1144E
944.9	0.003	492007	STOP	n/a	n/a	n/a	n/a	-999	8	[-999, -999, -999]	n/a	catFR1	2	R1144E
944.903	1.167	492009	DISTRACT_END	n/a	n/a	n/a	n/a	-999	8	[0, 0, 0]	n/a	catFR1	2	R1144E
946.07	1.071	492592	REC_START	n/a	n/a	n/a	n/a	-999	8	[0, 0, 0]	n/a	catFR1	2	R1144E
947.141	1.297	493128	REC_WORD	1.071	n/a	ARM	BodyParts	1	8	[0, 0, 0]	n/a	catFR1	2	R1144E
948.438	1.736	493776	REC_WORD	2.368	n/a	EYE	BodyParts	2	8	[0, 0, 0]	n/a	catFR1	2	R1144E
950.174	1.623	494644	REC_WORD	4.104	n/a	KNEE	BodyParts	7	8	[0, 0, 0]	n/a	catFR1	2	R1144E
951.797	1.844	495456	REC_WORD	5.727	n/a	TOE	BodyParts	8	8	[0, 0, 0]	n/a	catFR1	2	R1144E
953.641	3.449	496378	REC_WORD	7.571	n/a	HILLS	Landscapes	9	8	[0, 0, 0]	n/a	catFR1	2	R1144E
957.09	4.185	498102	REC_WORD	11.02	n/a	RIVER	n/a	-999	8	[0, 0, 0]	n/a	catFR1	2	R1144E
961.275	6.179	500194	REC_WORD	15.205	n/a	CREEK	n/a	-999	8	[0, 0, 0]	n/a	catFR1	2	R1144E
967.454	8.629	503284	REC_WORD	21.384	n/a	MOUNTAIN	Landscapes	6	8	[0, 0, 0]	n/a	catFR1	2	R1144E
976.083	4.709	507598	REC_END	n/a	n/a	n/a	n/a	-999	8	[0, 0, 0]	n/a	catFR1	2	R1144E
980.792	0.001	509952	COUNTDOWN_START	n/a	n/a	n/a	n/a	-999	9	[0, 0, 0]	n/a	catFR1	2	R1144E
980.793	10.427	509953	TRIAL	n/a	n/a	n/a	n/a	-999	9	[0, 0, 0]	n/a	catFR1	2	R1144E
991.22	0.008	515166	COUNTDOWN_END	n/a	n/a	n/a	n/a	-999	9	[0, 0, 0]	n/a	catFR1	2	R1144E
991.228	3.484	515170	ORIENT	n/a	n/a	n/a	n/a	-999	9	[0, 0, 0]	n/a	catFR1	2	R1144E
994.712	2.4	516912	WORD	n/a	wordpools/wordpool_categorized_EN.txt	CHICKEN	FarmAnimals	1	9	[0, 0, 0]	n/a	catFR1	2	R1144E
997.112	2.534	518112	WORD	n/a	wordpools/wordpool_categorized_EN.txt	COW	FarmAnimals	2	9	[0, 0, 0]	n/a	catFR1	2	R1144E
999.646	2.534	519379	WORD	n/a	wordpools/wordpool_categorized_EN.txt	SANDER	Tools	3	9	[0, 0, 0]	n/a	catFR1	2	R1144E
1002.18	2.6	520645	WORD	n/a	wordpools/wordpool_categorized_EN.txt	AXE	Tools	4	9	[0, 0, 0]	n/a	catFR1	2	R1144E
1004.78	2.517	521945	WORD	n/a	wordpools/wordpool_categorized_EN.txt	MOTORCYCLE	Vehicles	5	9	[0, 0, 0]	n/a	catFR1	2	R1144E
1007.297	2.617	523204	WORD	n/a	wordpools/wordpool_categorized_EN.txt	TRUCK	Vehicles	6	9	[0, 0, 0]	n/a	catFR1	2	R1144E
1009.914	2.601	524512	WORD	n/a	wordpools/wordpool_categorized_EN.txt	PIG	FarmAnimals	7	9	[0, 0, 0]	n/a	catFR1	2	R1144E
1012.515	2.45	525813	WORD	n/a	wordpools/wordpool_categorized_EN.txt	SHEEP	FarmAnimals	8	9	[0, 0, 0]	n/a	catFR1	2	R1144E
1014.965	2.484	527037	WORD	n/a	wordpools/wordpool_categorized_EN.txt	SCOOTER	Vehicles	9	9	[0, 0, 0]	n/a	catFR1	2	R1144E
1017.449	2.384	528279	WORD	n/a	wordpools/wordpool_categorized_EN.txt	JEEP	Vehicles	10	9	[0, 0, 0]	n/a	catFR1	2	R1144E
1019.833	2.434	529471	WORD	n/a	wordpools/wordpool_categorized_EN.txt	CROWBAR	Tools	11	9	[0, 0, 0]	n/a	catFR1	2	R1144E
1022.267	1.617	530688	WORD	n/a	wordpools/wordpool_categorized_EN.txt	RATCHET	Tools	12	9	[0, 0, 0]	n/a	catFR1	2	R1144E
1023.884	0.0	531497	DISTRACT_START	n/a	n/a	n/a	n/a	-999	9	[0, 0, 0]	n/a	catFR1	2	R1144E
1023.884	0.016	531497	START	n/a	n/a	n/a	n/a	-999	9	[-999, -999, -999]	n/a	catFR1	2	R1144E
1023.9	5.117	531505	PROB	5.085	n/a	n/a	n/a	-999	9	[4, 1, 6]	11.0	catFR1	2	R1144E
1029.017	6.785	534063	PROB	6.76	n/a	n/a	n/a	-999	9	[2, 4, 1]	7.0	catFR1	2	R1144E
1035.802	4.368	537455	PROB	4.335	n/a	n/a	n/a	-999	9	[1, 3, 4]	8.0	catFR1	2	R1144E
1040.17	3.719	539639	PROB	3.719	n/a	n/a	n/a	-999	9	[2, 2, 8]	12.0	catFR1	2	R1144E
1043.889	0.015	541498	STOP	n/a	n/a	n/a	n/a	-999	9	[-999, -999, -999]	n/a	catFR1	2	R1144E
1043.904	1.067	541506	DISTRACT_END	n/a	n/a	n/a	n/a	-999	9	[0, 0, 0]	n/a	catFR1	2	R1144E
1044.971	1.55	542039	REC_START	n/a	n/a	n/a	n/a	-999	9	[0, 0, 0]	n/a	catFR1	2	R1144E
1046.521	1.382	542814	REC_WORD	1.55	n/a	CHICKEN	FarmAnimals	1	9	[0, 0, 0]	n/a	catFR1	2	R1144E
1047.903	1.373	543505	REC_WORD	2.932	n/a	COW	FarmAnimals	2	9	[0, 0, 0]	n/a	catFR1	2	R1144E
1049.276	1.434	544192	REC_WORD	4.305	n/a	PIG	FarmAnimals	7	9	[0, 0, 0]	n/a	catFR1	2	R1144E
1050.71	1.966	544909	REC_WORD	5.739	n/a	AXE	Tools	4	9	[0, 0, 0]	n/a	catFR1	2	R1144E
1052.676	5.127	545892	REC_WORD	7.705	n/a	MOTORCYCLE	Vehicles	5	9	[0, 0, 0]	n/a	catFR1	2	R1144E
1057.803	3.849	548455	REC_WORD	12.832	n/a	TRUCK	Vehicles	6	9	[0, 0, 0]	n/a	catFR1	2	R1144E
1061.652	0.631	550379	REC_WORD	16.681	n/a	JEEP	Vehicles	10	9	[0, 0, 0]	n/a	catFR1	2	R1144E
1062.283	12.701	550695	REC_WORD	17.312	n/a	JEEP	Vehicles	10	9	[0, 0, 0]	n/a	catFR1	2	R1144E
1074.984	4.509	557045	REC_END	n/a	n/a	n/a	n/a	-999	9	[0, 0, 0]	n/a	catFR1	2	R1144E
1079.493	0.001	559299	COUNTDOWN_START	n/a	n/a	n/a	n/a	-999	10	[0, 0, 0]	n/a	catFR1	2	R1144E
1079.494	10.427	559300	TRIAL	n/a	n/a	n/a	n/a	-999	10	[0, 0, 0]	n/a	catFR1	2	R1144E
1089.921	0.007	564513	COUNTDOWN_END	n/a	n/a	n/a	n/a	-999	10	[0, 0, 0]	n/a	catFR1	2	R1144E
1089.928	3.835	564516	ORIENT	n/a	n/a	n/a	n/a	-999	10	[0, 0, 0]	n/a	catFR1	2	R1144E
1093.763	2.6	566434	WORD	n/a	wordpools/wordpool_categorized_EN.txt	SCREWDRIVER	Tools	1	10	[0, 0, 0]	n/a	catFR1	2	R1144E
1096.363	2.55	567734	WORD	n/a	wordpools/wordpool_categorized_EN.txt	LEVEL	Tools	2	10	[0, 0, 0]	n/a	catFR1	2	R1144E
1098.913	2.551	569009	WORD	n/a	wordpools/wordpool_categorized_EN.txt	FUDGE	Desserts	3	10	[0, 0, 0]	n/a	catFR1	2	R1144E
1101.464	2.549	570284	WORD	n/a	wordpools/wordpool_categorized_EN.txt	CAKE	Desserts	4	10	[0, 0, 0]	n/a	catFR1	2	R1144E
1104.013	2.585	571558	WORD	n/a	wordpools/wordpool_categorized_EN.txt	TUBA	Instruments	5	10	[0, 0, 0]	n/a	catFR1	2	R1144E
1106.598	2.55	572851	WORD	n/a	wordpools/wordpool_categorized_EN.txt	CELLO	Instruments	6	10	[0, 0, 0]	n/a	catFR1	2	R1144E
1109.148	2.584	574126	WORD	n/a	wordpools/wordpool_categorized_EN.txt	JELLO	Desserts	7	10	[0, 0, 0]	n/a	catFR1	2	R1144E
1111.732	2.617	575418	WORD	n/a	wordpools/wordpool_categorized_EN.txt	PUDDING	Desserts	8	10	[0, 0, 0]	n/a	catFR1	2	R1144E
1114.349	2.451	576726	WORD	n/a	wordpools/wordpool_categorized_EN.txt	SHOVEL	Tools	9	10	[0, 0, 0]	n/a	catFR1	2	R1144E
1116.8	2.534	577952	WORD	n/a	wordpools/wordpool_categorized_EN.txt	PLIERS	Tools	10	10	[0, 0, 0]	n/a	catFR1	2	R1144E
1119.334	2.6	579218	WORD	n/a	wordpools/wordpool_categorized_EN.txt	VIOLIN	Instruments	11	10	[0, 0, 0]	n/a	catFR1	2	R1144E
1121.934	1.617	580518	WORD	n/a	wordpools/wordpool_categorized_EN.txt	TROMBONE	Instruments	12	10	[0, 0, 0]	n/a	catFR1	2	R1144E
1123.551	0.001	581327	DISTRACT_START	n/a	n/a	n/a	n/a	-999	10	[0, 0, 0]	n/a	catFR1	2	R1144E
1123.552	0.016	581327	START	n/a	n/a	n/a	n/a	-999	10	[-999, -999, -999]	n/a	catFR1	2	R1144E
1123.568	5.433	581335	PROB	5.414	n/a	n/a	n/a	-999	10	[9, 3, 3]	15.0	catFR1	2	R1144E
1129.001	5.252	584052	PROB	5.229	n/a	n/a	n/a	-999	10	[6, 9, 9]	24.0	catFR1	2	R1144E
1134.253	5.117	586677	PROB	5.089	n/a	n/a	n/a	-999	10	[8, 4, 8]	20.0	catFR1	2	R1144E
1139.37	7.268	589236	PROB	7.268	n/a	n/a	n/a	-999	10	[4, 9, 4]	17.0	catFR1	2	R1144E
1146.638	0.017	592869	STOP	n/a	n/a	n/a	n/a	-999	10	[-999, -999, -999]	n/a	catFR1	2	R1144E
1146.655	1.101	592878	DISTRACT_END	n/a	n/a	n/a	n/a	-999	10	[0, 0, 0]	n/a	catFR1	2	R1144E
1147.756	2.172	593428	REC_START	n/a	n/a	n/a	n/a	-999	10	[0, 0, 0]	n/a	catFR1	2	R1144E
1149.928	9.268	594514	REC_WORD	2.172	n/a	TUBA	Instruments	5	10	[0, 0, 0]	n/a	catFR1	2	R1144E
1159.196	1.209	599148	REC_WORD	11.44	n/a	PLIERS	Tools	10	10	[0, 0, 0]	n/a	catFR1	2	R1144E
1160.405	7.232	599753	REC_WORD	12.649	n/a	LEVEL	Tools	2	10	[0, 0, 0]	n/a	catFR1	2	R1144E
1167.637	4.389	603368	REC_WORD	19.881	n/a	DRUM	n/a	-999	10	[0, 0, 0]	n/a	catFR1	2	R1144E
1172.026	5.738	605563	REC_WORD	24.27	n/a	VIOLIN	Instruments	11	10	[0, 0, 0]	n/a	catFR1	2	R1144E
1177.764	9.132	608431	REC_END	n/a	n/a	n/a	n/a	-999	10	[0, 0, 0]	n/a	catFR1	2	R1144E
1186.896	0.0	612997	TRIAL	n/a	n/a	n/a	n/a	-999	11	[0, 0, 0]	n/a	catFR1	2	R1144E
1186.896	10.428	612997	COUNTDOWN_START	n/a	n/a	n/a	n/a	-999	11	[0, 0, 0]	n/a	catFR1	2	R1144E
1197.324	0.007	618211	COUNTDOWN_END	n/a	n/a	n/a	n/a	-999	11	[0, 0, 0]	n/a	catFR1	2	R1144E
1197.331	3.6	618214	ORIENT	n/a	n/a	n/a	n/a	-999	11	[0, 0, 0]	n/a	catFR1	2	R1144E
1200.931	2.567	620014	WORD	n/a	wordpools/wordpool_categorized_EN.txt	CROW	Birds	1	11	[0, 0, 0]	n/a	catFR1	2	R1144E
1203.498	2.584	621298	WORD	n/a	wordpools/wordpool_categorized_EN.txt	HAWK	Birds	2	11	[0, 0, 0]	n/a	catFR1	2	R1144E
1206.082	2.501	622589	WORD	n/a	wordpools/wordpool_categorized_EN.txt	TELEVISION	Electronics	3	11	[0, 0, 0]	n/a	catFR1	2	R1144E
1208.583	2.449	623840	WORD	n/a	wordpools/wordpool_categorized_EN.txt	PRINTER	Electronics	4	11	[0, 0, 0]	n/a	catFR1	2	R1144E
1211.032	2.401	625064	WORD	n/a	wordpools/wordpool_categorized_EN.txt	CEILING	Building	5	11	[0, 0, 0]	n/a	catFR1	2	R1144E
1213.433	2.451	626265	WORD	n/a	wordpools/wordpool_categorized_EN.txt	BATHROOM	Building	6	11	[0, 0, 0]	n/a	catFR1	2	R1144E
1215.884	2.567	627490	WORD	n/a	wordpools/wordpool_categorized_EN.txt	ROBIN	Birds	7	11	[0, 0, 0]	n/a	catFR1	2	R1144E
1218.451	2.467	628774	WORD	n/a	wordpools/wordpool_categorized_EN.txt	SEAGULL	Birds	8	11	[0, 0, 0]	n/a	catFR1	2	R1144E
1220.918	2.601	630007	WORD	n/a	wordpools/wordpool_categorized_EN.txt	FLOOR	Building	9	11	[0, 0, 0]	n/a	catFR1	2	R1144E
1223.519	2.532	631307	WORD	n/a	wordpools/wordpool_categorized_EN.txt	WINDOW	Building	10	11	[0, 0, 0]	n/a	catFR1	2	R1144E
1226.051	2.452	632573	WORD	n/a	wordpools/wordpool_categorized_EN.txt	STEREO	Electronics	11	11	[0, 0, 0]	n/a	catFR1	2	R1144E
1228.503	1.617	633799	WORD	n/a	wordpools/wordpool_categorized_EN.txt	PHONE	Electronics	12	11	[0, 0, 0]	n/a	catFR1	2	R1144E
1230.12	0.0	634608	DISTRACT_START	n/a	n/a	n/a	n/a	-999	11	[0, 0, 0]	n/a	catFR1	2	R1144E
1230.12	0.016	634608	START	n/a	n/a	n/a	n/a	-999	11	[-999, -999, -999]	n/a	catFR1	2	R1144E
1230.136	5.285	634616	PROB	5.25	n/a	n/a	n/a	-999	11	[7, 9, 7]	23.0	catFR1	2	R1144E
1235.421	4.534	637258	PROB	4.501	n/a	n/a	n/a	-999	11	[6, 9, 1]	16.0	catFR1	2	R1144E
1239.955	4.017	639525	PROB	3.983	n/a	n/a	n/a	-999	11	[5, 5, 1]	11.0	catFR1	2	R1144E
1243.972	5.518	641533	PROB	5.493	n/a	n/a	n/a	-999	11	[9, 5, 6]	20.0	catFR1	2	R1144E
1249.49	4.04	644292	PROB	4.04	n/a	n/a	n/a	-999	11	[2, 1, 4]	7.0	catFR1	2	R1144E
1253.53	0.01	646312	STOP	n/a	n/a	n/a	n/a	-999	11	[-999, -999, -999]	n/a	catFR1	2	R1144E
1253.54	1.104	646317	DISTRACT_END	n/a	n/a	n/a	n/a	-999	11	[0, 0, 0]	n/a	catFR1	2	R1144E
1254.644	1.205	646869	REC_START	n/a	n/a	n/a	n/a	-999	11	[0, 0, 0]	n/a	catFR1	2	R1144E
1255.849	1.107	647471	REC_WORD	1.205	n/a	CROW	Birds	1	11	[0, 0, 0]	n/a	catFR1	2	R1144E
1256.956	1.284	648025	REC_WORD	2.312	n/a	HAWK	Birds	2	11	[0, 0, 0]	n/a	catFR1	2	R1144E
1258.24	1.166	648667	REC_WORD	3.596	n/a	ROBIN	Birds	7	11	[0, 0, 0]	n/a	catFR1	2	R1144E
1259.406	1.6	649250	REC_WORD	4.762	n/a	SEAGULL	Birds	8	11	[0, 0, 0]	n/a	catFR1	2	R1144E
1261.006	1.576	650050	REC_WORD	6.362	n/a	TELEVISION	Electronics	3	11	[0, 0, 0]	n/a	catFR1	2	R1144E
1262.582	2.256	650838	REC_WORD	7.938	n/a	WINDOW	Building	10	11	[0, 0, 0]	n/a	catFR1	2	R1144E
1264.838	1.073	651965	REC_WORD	10.194	n/a	WALL	n/a	-999	11	[0, 0, 0]	n/a	catFR1	2	R1144E
1265.911	9.074	652502	REC_WORD	11.267	n/a	FLOOR	Building	9	11	[0, 0, 0]	n/a	catFR1	2	R1144E
1274.985	2.454	657039	REC_WORD	20.341	n/a	STEREO	Electronics	11	11	[0, 0, 0]	n/a	catFR1	2	R1144E
1277.439	7.211	658266	REC_WORD	22.795	n/a	SPEAKER	n/a	-999	11	[0, 0, 0]	n/a	catFR1	2	R1144E
1284.65	4.097	661871	REC_END	n/a	n/a	n/a	n/a	-999	11	[0, 0, 0]	n/a	catFR1	2	R1144E
1288.747	0.0	663919	TRIAL	n/a	n/a	n/a	n/a	-999	12	[0, 0, 0]	n/a	catFR1	2	R1144E
1288.747	10.428	663919	COUNTDOWN_START	n/a	n/a	n/a	n/a	-999	12	[0, 0, 0]	n/a	catFR1	2	R1144E
1299.175	0.007	669133	COUNTDOWN_END	n/a	n/a	n/a	n/a	-999	12	[0, 0, 0]	n/a	catFR1	2	R1144E
1299.182	3.667	669136	ORIENT	n/a	n/a	n/a	n/a	-999	12	[0, 0, 0]	n/a	catFR1	2	R1144E
1302.849	2.434	670970	WORD	n/a	wordpools/wordpool_categorized_EN.txt	GLUE	OfficeSupplies	1	12	[0, 0, 0]	n/a	catFR1	2	R1144E
1305.283	2.384	672187	WORD	n/a	wordpools/wordpool_categorized_EN.txt	NOTEBOOK	OfficeSupplies	2	12	[0, 0, 0]	n/a	catFR1	2	R1144E
1307.667	2.55	673379	WORD	n/a	wordpools/wordpool_categorized_EN.txt	PEAS	Vegetables	3	12	[0, 0, 0]	n/a	catFR1	2	R1144E
1310.217	2.467	674653	WORD	n/a	wordpools/wordpool_categorized_EN.txt	CORN	Vegetables	4	12	[0, 0, 0]	n/a	catFR1	2	R1144E
1312.684	2.617	675887	WORD	n/a	wordpools/wordpool_categorized_EN.txt	VACUUM	Appliances	5	12	[0, 0, 0]	n/a	catFR1	2	R1144E
1315.301	2.617	677195	WORD	n/a	wordpools/wordpool_categorized_EN.txt	IRON	Appliances	6	12	[0, 0, 0]	n/a	catFR1	2	R1144E
1317.918	2.518	678504	WORD	n/a	wordpools/wordpool_categorized_EN.txt	PAPER	OfficeSupplies	7	12	[0, 0, 0]	n/a	catFR1	2	R1144E
1320.436	2.599	679763	WORD	n/a	wordpools/wordpool_categorized_EN.txt	FOLDER	OfficeSupplies	8	12	[0, 0, 0]	n/a	catFR1	2	R1144E
1323.035	2.418	681062	WORD	n/a	wordpools/wordpool_categorized_EN.txt	DRYER	Appliances	9	12	[0, 0, 0]	n/a	catFR1	2	R1144E
1325.453	2.384	682271	WORD	n/a	wordpools/wordpool_categorized_EN.txt	STOVE	Appliances	10	12	[0, 0, 0]	n/a	catFR1	2	R1144E
1327.837	2.417	683463	WORD	n/a	wordpools/wordpool_categorized_EN.txt	CAULIFLOWER	Vegetables	11	12	[0, 0, 0]	n/a	catFR1	2	R1144E
1330.254	1.617	684671	WORD	n/a	wordpools/wordpool_categorized_EN.txt	CUCUMBER	Vegetables	12	12	[0, 0, 0]	n/a	catFR1	2	R1144E
1331.871	0.001	685480	DISTRACT_START	n/a	n/a	n/a	n/a	-999	12	[0, 0, 0]	n/a	catFR1	2	R1144E
1331.872	0.016	685480	START	n/a	n/a	n/a	n/a	-999	12	[-999, -999, -999]	n/a	catFR1	2	R1144E
1331.888	8.401	685488	PROB	8.371	n/a	n/a	n/a	-999	12	[6, 8, 1]	15.0	catFR1	2	R1144E
1340.289	6.351	689688	PROB	6.322	n/a	n/a	n/a	-999	12	[6, 7, 4]	17.0	catFR1	2	R1144E
1346.64	5.828	692864	PROB	5.828	n/a	n/a	n/a	-999	12	[7, 5, 1]	13.0	catFR1	2	R1144E
1352.468	0.006	695777	STOP	n/a	n/a	n/a	n/a	-999	12	[-999, -999, -999]	n/a	catFR1	2	R1144E
1352.474	1.202	695780	DISTRACT_END	n/a	n/a	n/a	n/a	-999	12	[0, 0, 0]	n/a	catFR1	2	R1144E
1353.676	1.202	696381	REC_START	n/a	n/a	n/a	n/a	-999	12	[0, 0, 0]	n/a	catFR1	2	R1144E
1354.878	1.785	696982	REC_WORD	1.202	n/a	PEAS	Vegetables	3	12	[0, 0, 0]	n/a	catFR1	2	R1144E
1356.663	1.851	697875	REC_WORD	2.987	n/a	CORN	Vegetables	4	12	[0, 0, 0]	n/a	catFR1	2	R1144E
1358.514	2.745	698800	REC_WORD	4.838	n/a	CAULIFLOWER	Vegetables	11	12	[0, 0, 0]	n/a	catFR1	2	R1144E
1361.259	8.661	700173	REC_WORD	7.583	n/a	CUCUMBER	Vegetables	12	12	[0, 0, 0]	n/a	catFR1	2	R1144E
1369.92	2.093	704503	REC_WORD	16.244	n/a	PAPER	OfficeSupplies	7	12	[0, 0, 0]	n/a	catFR1	2	R1144E
1372.013	3.662	705549	REC_WORD	18.337	n/a	FOLDER	OfficeSupplies	8	12	[0, 0, 0]	n/a	catFR1	2	R1144E
1375.675	8.009	707380	REC_WORD	21.999	n/a	NOTEBOOK	OfficeSupplies	2	12	[0, 0, 0]	n/a	catFR1	2	R1144E
1383.684	6.53	711384	REC_END	n/a	n/a	n/a	n/a	-999	12	[0, 0, 0]	n/a	catFR1	2	R1144E
1390.214	0.001	714649	COUNTDOWN_START	n/a	n/a	n/a	n/a	-999	13	[0, 0, 0]	n/a	catFR1	2	R1144E
1390.215	10.427	714650	TRIAL	n/a	n/a	n/a	n/a	-999	13	[0, 0, 0]	n/a	catFR1	2	R1144E
1400.642	0.008	719863	COUNTDOWN_END	n/a	n/a	n/a	n/a	-999	13	[0, 0, 0]	n/a	catFR1	2	R1144E
1400.65	3.867	719867	ORIENT	n/a	n/a	n/a	n/a	-999	13	[0, 0, 0]	n/a	catFR1	2	R1144E
1404.517	2.584	721800	WORD	n/a	wordpools/wordpool_categorized_EN.txt	PIANO	Instruments	1	13	[0, 0, 0]	n/a	catFR1	2	R1144E
1407.101	2.467	723092	WORD	n/a	wordpools/wordpool_categorized_EN.txt	FLUTE	Instruments	2	13	[0, 0, 0]	n/a	catFR1	2	R1144E
1409.568	2.55	724326	WORD	n/a	wordpools/wordpool_categorized_EN.txt	CHAIR	Furniture	3	13	[0, 0, 0]	n/a	catFR1	2	R1144E
1412.118	2.417	725600	WORD	n/a	wordpools/wordpool_categorized_EN.txt	TABLE	Furniture	4	13	[0, 0, 0]	n/a	catFR1	2	R1144E
1414.535	2.434	726809	WORD	n/a	wordpools/wordpool_categorized_EN.txt	ORCHID	Flowers	5	13	[0, 0, 0]	n/a	catFR1	2	R1144E
1416.969	2.551	728026	WORD	n/a	wordpools/wordpool_categorized_EN.txt	DAISY	Flowers	6	13	[0, 0, 0]	n/a	catFR1	2	R1144E
1419.52	2.583	729301	WORD	n/a	wordpools/wordpool_categorized_EN.txt	DRESSER	Furniture	7	13	[0, 0, 0]	n/a	catFR1	2	R1144E
1422.103	2.501	730593	WORD	n/a	wordpools/wordpool_categorized_EN.txt	RECLINER	Furniture	8	13	[0, 0, 0]	n/a	catFR1	2	R1144E
1424.604	2.449	731843	WORD	n/a	wordpools/wordpool_categorized_EN.txt	BANJO	Instruments	9	13	[0, 0, 0]	n/a	catFR1	2	R1144E
1427.053	2.618	733067	WORD	n/a	wordpools/wordpool_categorized_EN.txt	GUITAR	Instruments	10	13	[0, 0, 0]	n/a	catFR1	2	R1144E
1429.671	2.518	734376	WORD	n/a	wordpools/wordpool_categorized_EN.txt	PETUNIA	Flowers	11	13	[0, 0, 0]	n/a	catFR1	2	R1144E
1432.189	1.617	735635	WORD	n/a	wordpools/wordpool_categorized_EN.txt	CARNATION	Flowers	12	13	[0, 0, 0]	n/a	catFR1	2	R1144E
1433.806	0.0	736444	DISTRACT_START	n/a	n/a	n/a	n/a	-999	13	[0, 0, 0]	n/a	catFR1	2	R1144E
1433.806	0.016	736444	START	n/a	n/a	n/a	n/a	-999	13	[-999, -999, -999]	n/a	catFR1	2	R1144E
1433.822	5.051	736452	PROB	5.02	n/a	n/a	n/a	-999	13	[6, 8, 8]	22.0	catFR1	2	R1144E
1438.873	4.568	738977	PROB	4.545	n/a	n/a	n/a	-999	13	[9, 2, 1]	12.0	catFR1	2	R1144E
1443.441	3.683	741261	PROB	3.649	n/a	n/a	n/a	-999	13	[2, 4, 6]	12.0	catFR1	2	R1144E
1447.124	4.235	743102	PROB	4.214	n/a	n/a	n/a	-999	13	[9, 1, 4]	14.0	catFR1	2	R1144E
1451.359	7.463	745220	PROB	7.463	n/a	n/a	n/a	-999	13	[8, 9, 3]	20.0	catFR1	2	R1144E
1458.822	0.005	748951	STOP	n/a	n/a	n/a	n/a	-999	13	[-999, -999, -999]	n/a	catFR1	2	R1144E
1458.827	1.101	748953	DISTRACT_END	n/a	n/a	n/a	n/a	-999	13	[0, 0, 0]	n/a	catFR1	2	R1144E
1459.928	1.517	749504	REC_START	n/a	n/a	n/a	n/a	-999	13	[0, 0, 0]	n/a	catFR1	2	R1144E
1461.445	1.878	750262	REC_WORD	1.517	n/a	PIANO	Instruments	1	13	[0, 0, 0]	n/a	catFR1	2	R1144E
1463.323	4.995	751201	REC_WORD	3.395	n/a	FLUTE	Instruments	2	13	[0, 0, 0]	n/a	catFR1	2	R1144E
1468.318	1.518	753699	REC_WORD	8.39	n/a	DRESSER	Furniture	7	13	[0, 0, 0]	n/a	catFR1	2	R1144E
1469.836	1.237	754457	REC_WORD	9.908	n/a	TABLE	Furniture	4	13	[0, 0, 0]	n/a	catFR1	2	R1144E
1471.073	6.557	755076	REC_WORD	11.145	n/a	RECLINER	Furniture	8	13	[0, 0, 0]	n/a	catFR1	2	R1144E
1477.63	1.328	758354	REC_WORD	17.702	n/a	BANJO	Instruments	9	13	[0, 0, 0]	n/a	catFR1	2	R1144E
1478.958	5.474	759018	REC_WORD	19.03	n/a	GUITAR	Instruments	10	13	[0, 0, 0]	n/a	catFR1	2	R1144E
1484.432	5.514	761755	REC_WORD	24.504	n/a	CHAIR	Furniture	3	13	[0, 0, 0]	n/a	catFR1	2	R1144E
1489.946	4.87	764512	REC_END	n/a	n/a	n/a	n/a	-999	13	[0, 0, 0]	n/a	catFR1	2	R1144E
1494.816	0.0	766947	TRIAL	n/a	n/a	n/a	n/a	-999	14	[0, 0, 0]	n/a	catFR1	2	R1144E
1494.816	10.428	766947	COUNTDOWN_START	n/a	n/a	n/a	n/a	-999	14	[0, 0, 0]	n/a	catFR1	2	R1144E
1505.244	0.007	772160	COUNTDOWN_END	n/a	n/a	n/a	n/a	-999	14	[0, 0, 0]	n/a	catFR1	2	R1144E
1505.251	3.818	772164	ORIENT	n/a	n/a	n/a	n/a	-999	14	[0, 0, 0]	n/a	catFR1	2	R1144E
1509.069	2.384	774073	WORD	n/a	wordpools/wordpool_categorized_EN.txt	PEAR	Fruit	1	14	[0, 0, 0]	n/a	catFR1	2	R1144E
1511.453	2.617	775265	WORD	n/a	wordpools/wordpool_categorized_EN.txt	LEMON	Fruit	2	14	[0, 0, 0]	n/a	catFR1	2	R1144E
1514.07	2.467	776573	WORD	n/a	wordpools/wordpool_categorized_EN.txt	CORKSCREW	KitchenTools	3	14	[0, 0, 0]	n/a	catFR1	2	R1144E
1516.537	2.4	777806	WORD	n/a	wordpools/wordpool_categorized_EN.txt	SPATULA	KitchenTools	4	14	[0, 0, 0]	n/a	catFR1	2	R1144E
1518.937	2.384	779006	WORD	n/a	wordpools/wordpool_categorized_EN.txt	DRESS	Clothing	5	14	[0, 0, 0]	n/a	catFR1	2	R1144E
1521.321	2.434	780198	WORD	n/a	wordpools/wordpool_categorized_EN.txt	JACKET	Clothing	6	14	[0, 0, 0]	n/a	catFR1	2	R1144E
1523.755	2.517	781415	WORD	n/a	wordpools/wordpool_categorized_EN.txt	KNIFE	KitchenTools	7	14	[0, 0, 0]	n/a	catFR1	2	R1144E
1526.272	2.517	782674	WORD	n/a	wordpools/wordpool_categorized_EN.txt	TONGS	KitchenTools	8	14	[0, 0, 0]	n/a	catFR1	2	R1144E
1528.789	2.6	783932	WORD	n/a	wordpools/wordpool_categorized_EN.txt	BANANA	Fruit	9	14	[0, 0, 0]	n/a	catFR1	2	R1144E
1531.389	2.401	785232	WORD	n/a	wordpools/wordpool_categorized_EN.txt	PEACH	Fruit	10	14	[0, 0, 0]	n/a	catFR1	2	R1144E
1533.79	2.55	786432	WORD	n/a	wordpools/wordpool_categorized_EN.txt	PANTS	Clothing	11	14	[0, 0, 0]	n/a	catFR1	2	R1144E
1536.34	1.617	787707	WORD	n/a	wordpools/wordpool_categorized_EN.txt	BLOUSE	Clothing	12	14	[0, 0, 0]	n/a	catFR1	2	R1144E
1537.957	0.001	788516	DISTRACT_START	n/a	n/a	n/a	n/a	-999	14	[0, 0, 0]	n/a	catFR1	2	R1144E
1537.958	0.016	788516	START	n/a	n/a	n/a	n/a	-999	14	[-999, -999, -999]	n/a	catFR1	2	R1144E
1537.974	6.101	788524	PROB	6.079	n/a	n/a	n/a	-999	14	[5, 7, 2]	14.0	catFR1	2	R1144E
1544.075	4.734	791574	PROB	4.706	n/a	n/a	n/a	-999	14	[1, 4, 7]	12.0	catFR1	2	R1144E
1548.809	3.801	793941	PROB	3.765	n/a	n/a	n/a	-999	14	[3, 5, 5]	13.0	catFR1	2	R1144E
1552.61	4.217	795842	PROB	4.187	n/a	n/a	n/a	-999	14	[6, 4, 7]	17.0	catFR1	2	R1144E
1556.827	4.282	797950	PROB	4.282	n/a	n/a	n/a	-999	14	[1, 6, 1]	8.0	catFR1	2	R1144E
1561.109	0.019	800091	STOP	n/a	n/a	n/a	n/a	-999	14	[-999, -999, -999]	n/a	catFR1	2	R1144E
1561.128	1.051	800100	DISTRACT_END	n/a	n/a	n/a	n/a	-999	14	[0, 0, 0]	n/a	catFR1	2	R1144E
1562.179	1.325	800626	REC_START	n/a	n/a	n/a	n/a	-999	14	[0, 0, 0]	n/a	catFR1	2	R1144E
1563.504	1.537	801288	REC_WORD	1.325	n/a	PEAR	Fruit	1	14	[0, 0, 0]	n/a	catFR1	2	R1144E
1565.041	1.891	802057	REC_WORD	2.862	n/a	BANANA	Fruit	9	14	[0, 0, 0]	n/a	catFR1	2	R1144E
1566.932	1.786	803002	REC_WORD	4.753	n/a	PEACH	Fruit	10	14	[0, 0, 0]	n/a	catFR1	2	R1144E
1568.718	2.034	803895	REC_WORD	6.539	n/a	PANTS	Clothing	11	14	[0, 0, 0]	n/a	catFR1	2	R1144E
1570.752	2.003	804912	REC_WORD	8.573	n/a	DRESS	Clothing	5	14	[0, 0, 0]	n/a	catFR1	2	R1144E
1572.755	2.726	805913	REC_WORD	10.576	n/a	CORKSCREW	KitchenTools	3	14	[0, 0, 0]	n/a	catFR1	2	R1144E
1575.481	16.706	807276	REC_WORD	13.302	n/a	SPATULA	KitchenTools	4	14	[0, 0, 0]	n/a	catFR1	2	R1144E
1592.187	4.714	815629	REC_END	n/a	n/a	n/a	n/a	-999	14	[0, 0, 0]	n/a	catFR1	2	R1144E
1596.901	0.0	817986	COUNTDOWN_START	n/a	n/a	n/a	n/a	-999	15	[0, 0, 0]	n/a	catFR1	2	R1144E
1596.901	10.428	817986	TRIAL	n/a	n/a	n/a	n/a	-999	15	[0, 0, 0]	n/a	catFR1	2	R1144E
1607.329	0.007	823199	COUNTDOWN_END	n/a	n/a	n/a	n/a	-999	15	[0, 0, 0]	n/a	catFR1	2	R1144E
1607.336	3.65	823203	ORIENT	n/a	n/a	n/a	n/a	-999	15	[0, 0, 0]	n/a	catFR1	2	R1144E
1610.986	2.451	825028	WORD	n/a	wordpools/wordpool_categorized_EN.txt	MOSQUITO	Insects	1	15	[0, 0, 0]	n/a	catFR1	2	R1144E
1613.437	2.417	826253	WORD	n/a	wordpools/wordpool_categorized_EN.txt	FLY	Insects	2	15	[0, 0, 0]	n/a	catFR1	2	R1144E
1615.854	2.501	827462	WORD	n/a	wordpools/wordpool_categorized_EN.txt	ORGAN	Instruments	3	15	[0, 0, 0]	n/a	catFR1	2	R1144E
1618.355	2.45	828712	WORD	n/a	wordpools/wordpool_categorized_EN.txt	DRUM	Instruments	4	15	[0, 0, 0]	n/a	catFR1	2	R1144E
1620.805	2.434	829937	WORD	n/a	wordpools/wordpool_categorized_EN.txt	SHOES	Clothing	5	15	[0, 0, 0]	n/a	catFR1	2	R1144E
1623.239	2.483	831154	WORD	n/a	wordpools/wordpool_categorized_EN.txt	COAT	Clothing	6	15	[0, 0, 0]	n/a	catFR1	2	R1144E
1625.722	2.384	832395	WORD	n/a	wordpools/wordpool_categorized_EN.txt	ROACH	Insects	7	15	[0, 0, 0]	n/a	catFR1	2	R1144E
1628.106	2.517	833587	WORD	n/a	wordpools/wordpool_categorized_EN.txt	GNAT	Insects	8	15	[0, 0, 0]	n/a	catFR1	2	R1144E
1630.623	2.468	834846	WORD	n/a	wordpools/wordpool_categorized_EN.txt	SKIRT	Clothing	9	15	[0, 0, 0]	n/a	catFR1	2	R1144E
1633.091	2.567	836079	WORD	n/a	wordpools/wordpool_categorized_EN.txt	SOCKS	Clothing	10	15	[0, 0, 0]	n/a	catFR1	2	R1144E
1635.658	2.517	837363	WORD	n/a	wordpools/wordpool_categorized_EN.txt	TRUMPET	Instruments	11	15	[0, 0, 0]	n/a	catFR1	2	R1144E
1638.175	1.617	838621	WORD	n/a	wordpools/wordpool_categorized_EN.txt	BASS	Instruments	12	15	[0, 0, 0]	n/a	catFR1	2	R1144E
1639.792	0.0	839430	DISTRACT_START	n/a	n/a	n/a	n/a	-999	15	[0, 0, 0]	n/a	catFR1	2	R1144E
1639.792	0.016	839430	START	n/a	n/a	n/a	n/a	-999	15	[-999, -999, -999]	n/a	catFR1	2	R1144E
1639.808	6.085	839438	PROB	6.05	n/a	n/a	n/a	-999	15	[8, 2, 4]	14.0	catFR1	2	R1144E
1645.893	4.534	842480	PROB	4.509	n/a	n/a	n/a	-999	15	[3, 6, 1]	10.0	catFR1	2	R1144E
1650.427	2.934	844747	PROB	2.903	n/a	n/a	n/a	-999	15	[6, 1, 1]	8.0	catFR1	2	R1144E
1653.361	5.217	846214	PROB	5.184	n/a	n/a	n/a	-999	15	[9, 6, 9]	24.0	catFR1	2	R1144E
1658.578	5.56	848822	PROB	5.56	n/a	n/a	n/a	-999	15	[8, 8, 2]	18.0	catFR1	2	R1144E
1664.138	0.008	851602	STOP	n/a	n/a	n/a	n/a	-999	15	[-999, -999, -999]	n/a	catFR1	2	R1144E
1664.146	1.184	851606	DISTRACT_END	n/a	n/a	n/a	n/a	-999	15	[0, 0, 0]	n/a	catFR1	2	R1144E
1665.33	1.013	852198	REC_START	n/a	n/a	n/a	n/a	-999	15	[0, 0, 0]	n/a	catFR1	2	R1144E
1666.343	2.17	852704	REC_WORD	1.013	n/a	ORGAN	Instruments	3	15	[0, 0, 0]	n/a	catFR1	2	R1144E
1668.513	1.807	853789	REC_WORD	3.183	n/a	DRUM	Instruments	4	15	[0, 0, 0]	n/a	catFR1	2	R1144E
1670.32	9.834	854693	REC_WORD	4.99	n/a	TRUMPET	Instruments	11	15	[0, 0, 0]	n/a	catFR1	2	R1144E
1680.154	1.742	859609	REC_WORD	14.824	n/a	FLY	Insects	2	15	[0, 0, 0]	n/a	catFR1	2	R1144E
1681.896	1.511	860480	REC_WORD	16.566	n/a	GNAT	Insects	8	15	[0, 0, 0]	n/a	catFR1	2	R1144E
1683.407	11.931	861236	REC_WORD	18.077	n/a	MOSQUITO	Insects	1	15	[0, 0, 0]	n/a	catFR1	2	R1144E
1695.338	6.564	867201	REC_END	n/a	n/a	n/a	n/a	-999	15	[0, 0, 0]	n/a	catFR1	2	R1144E
1701.902	0.0	870483	TRIAL	n/a	n/a	n/a	n/a	-999	16	[0, 0, 0]	n/a	catFR1	2	R1144E
1701.902	10.428	870483	COUNTDOWN_START	n/a	n/a	n/a	n/a	-999	16	[0, 0, 0]	n/a	catFR1	2	R1144E
1712.33	0.008	875696	COUNTDOWN_END	n/a	n/a	n/a	n/a	-999	16	[0, 0, 0]	n/a	catFR1	2	R1144E
1712.338	3.767	875700	ORIENT	n/a	n/a	n/a	n/a	-999	16	[0, 0, 0]	n/a	catFR1	2	R1144E
1716.105	2.384	877584	WORD	n/a	wordpools/wordpool_categorized_EN.txt	STAIRS	Building	1	16	[0, 0, 0]	n/a	catFR1	2	R1144E
1718.489	2.6	878776	WORD	n/a	wordpools/wordpool_categorized_EN.txt	FOUNDATION	Building	2	16	[0, 0, 0]	n/a	catFR1	2	R1144E
1721.089	2.601	880075	WORD	n/a	wordpools/wordpool_categorized_EN.txt	WILLOW	Trees	3	16	[0, 0, 0]	n/a	catFR1	2	R1144E
1723.69	2.55	881376	WORD	n/a	wordpools/wordpool_categorized_EN.txt	MAPLE	Trees	4	16	[0, 0, 0]	n/a	catFR1	2	R1144E
1726.24	2.401	882651	WORD	n/a	wordpools/wordpool_categorized_EN.txt	SPOON	KitchenTools	5	16	[0, 0, 0]	n/a	catFR1	2	R1144E
1728.641	2.533	883851	WORD	n/a	wordpools/wordpool_categorized_EN.txt	FORK	KitchenTools	6	16	[0, 0, 0]	n/a	catFR1	2	R1144E
1731.174	2.534	885118	WORD	n/a	wordpools/wordpool_categorized_EN.txt	HALLWAY	Building	7	16	[0, 0, 0]	n/a	catFR1	2	R1144E
1733.708	2.601	886384	WORD	n/a	wordpools/wordpool_categorized_EN.txt	ROOM	Building	8	16	[0, 0, 0]	n/a	catFR1	2	R1144E
1736.309	2.467	887685	WORD	n/a	wordpools/wordpool_categorized_EN.txt	WHISK	KitchenTools	9	16	[0, 0, 0]	n/a	catFR1	2	R1144E
1738.776	2.4	888918	WORD	n/a	wordpools/wordpool_categorized_EN.txt	LADLE	KitchenTools	10	16	[0, 0, 0]	n/a	catFR1	2	R1144E
1741.176	2.434	890118	WORD	n/a	wordpools/wordpool_categorized_EN.txt	PINE	Trees	11	16	[0, 0, 0]	n/a	catFR1	2	R1144E
1743.61	1.617	891335	WORD	n/a	wordpools/wordpool_categorized_EN.txt	ELM	Trees	12	16	[0, 0, 0]	n/a	catFR1	2	R1144E
1745.227	0.001	892144	DISTRACT_START	n/a	n/a	n/a	n/a	-999	16	[0, 0, 0]	n/a	catFR1	2	R1144E
1745.228	0.016	892144	START	n/a	n/a	n/a	n/a	-999	16	[-999, -999, -999]	n/a	catFR1	2	R1144E
1745.244	5.284	892152	PROB	5.256	n/a	n/a	n/a	-999	16	[7, 3, 2]	12.0	catFR1	2	R1144E
1750.528	3.734	894794	PROB	3.708	n/a	n/a	n/a	-999	16	[9, 3, 1]	13.0	catFR1	2	R1144E
1754.262	4.967	896661	PROB	4.934	n/a	n/a	n/a	-999	16	[8, 2, 8]	18.0	catFR1	2	R1144E
1759.229	4.734	899144	PROB	4.704	n/a	n/a	n/a	-999	16	[6, 8, 4]	16.0	catFR1	2	R1144E
1763.963	6.195	901511	PROB	6.195	n/a	n/a	n/a	-999	16	[6, 7, 9]	22.0	catFR1	2	R1144E
1770.158	0.007	904608	STOP	n/a	n/a	n/a	n/a	-999	16	[-999, -999, -999]	n/a	catFR1	2	R1144E
1770.165	1.1	904612	DISTRACT_END	n/a	n/a	n/a	n/a	-999	16	[0, 0, 0]	n/a	catFR1	2	R1144E
1771.265	1.295	905162	REC_START	n/a	n/a	n/a	n/a	-999	16	[0, 0, 0]	n/a	catFR1	2	R1144E
1772.56	2.489	905809	REC_WORD	1.295	n/a	STAIRS	Building	1	16	[0, 0, 0]	n/a	catFR1	2	R1144E
1775.049	13.434	907054	REC_WORD	3.784	n/a	FOUNDATION	Building	2	16	[0, 0, 0]	n/a	catFR1	2	R1144E
1788.483	2.207	913770	REC_WORD	17.218	n/a	WINDOW	n/a	-999	16	[0, 0, 0]	n/a	catFR1	2	R1144E
1790.69	2.629	914874	REC_WORD	19.425	n/a	WALL	n/a	-999	16	[0, 0, 0]	n/a	catFR1	2	R1144E
1793.319	7.959	916188	REC_WORD	22.054	n/a	ATTIC	n/a	-999	16	[0, 0, 0]	n/a	catFR1	2	R1144E
1801.278	12.544	920167	REC_END	n/a	n/a	n/a	n/a	-999	16	[0, 0, 0]	n/a	catFR1	2	R1144E
1813.822	0.0	926439	TRIAL	n/a	n/a	n/a	n/a	-999	17	[0, 0, 0]	n/a	catFR1	2	R1144E
1813.822	10.428	926439	COUNTDOWN_START	n/a	n/a	n/a	n/a	-999	17	[0, 0, 0]	n/a	catFR1	2	R1144E
1824.25	0.007	931652	COUNTDOWN_END	n/a	n/a	n/a	n/a	-999	17	[0, 0, 0]	n/a	catFR1	2	R1144E
1824.257	3.783	931656	ORIENT	n/a	n/a	n/a	n/a	-999	17	[0, 0, 0]	n/a	catFR1	2	R1144E
1828.04	2.385	933547	WORD	n/a	wordpools/wordpool_categorized_EN.txt	DAFFODIL	Flowers	1	17	[0, 0, 0]	n/a	catFR1	2	R1144E
1830.425	2.384	934740	WORD	n/a	wordpools/wordpool_categorized_EN.txt	MARIGOLD	Flowers	2	17	[0, 0, 0]	n/a	catFR1	2	R1144E
1832.809	2.6	935932	WORD	n/a	wordpools/wordpool_categorized_EN.txt	TAPE	OfficeSupplies	3	17	[0, 0, 0]	n/a	catFR1	2	R1144E
1835.409	2.534	937232	WORD	n/a	wordpools/wordpool_categorized_EN.txt	MARKER	OfficeSupplies	4	17	[0, 0, 0]	n/a	catFR1	2	R1144E
1837.943	2.417	938498	WORD	n/a	wordpools/wordpool_categorized_EN.txt	STRAINER	KitchenTools	5	17	[0, 0, 0]	n/a	catFR1	2	R1144E
1840.36	2.517	939707	WORD	n/a	wordpools/wordpool_categorized_EN.txt	GRATER	KitchenTools	6	17	[0, 0, 0]	n/a	catFR1	2	R1144E
1842.877	2.451	940965	WORD	n/a	wordpools/wordpool_categorized_EN.txt	STAPLER	OfficeSupplies	7	17	[0, 0, 0]	n/a	catFR1	2	R1144E
1845.328	2.567	942191	WORD	n/a	wordpools/wordpool_categorized_EN.txt	RULER	OfficeSupplies	8	17	[0, 0, 0]	n/a	catFR1	2	R1144E
1847.895	2.417	943474	WORD	n/a	wordpools/wordpool_categorized_EN.txt	LILY	Flowers	9	17	[0, 0, 0]	n/a	catFR1	2	R1144E
1850.312	2.6	944683	WORD	n/a	wordpools/wordpool_categorized_EN.txt	ROSE	Flowers	10	17	[0, 0, 0]	n/a	catFR1	2	R1144E
1852.912	2.551	945982	WORD	n/a	wordpools/wordpool_categorized_EN.txt	COLANDER	KitchenTools	11	17	[0, 0, 0]	n/a	catFR1	2	R1144E
1855.463	1.617	947258	WORD	n/a	wordpools/wordpool_categorized_EN.txt	PEELER	KitchenTools	12	17	[0, 0, 0]	n/a	catFR1	2	R1144E
1857.08	0.001	948066	DISTRACT_START	n/a	n/a	n/a	n/a	-999	17	[0, 0, 0]	n/a	catFR1	2	R1144E
1857.081	0.015	948067	START	n/a	n/a	n/a	n/a	-999	17	[-999, -999, -999]	n/a	catFR1	2	R1144E
1857.096	6.552	948074	PROB	6.53	n/a	n/a	n/a	-999	17	[1, 8, 3]	12.0	catFR1	2	R1144E
1863.648	5.817	951350	PROB	5.786	n/a	n/a	n/a	-999	17	[7, 5, 8]	20.0	catFR1	2	R1144E
1869.465	5.068	954258	PROB	5.041	n/a	n/a	n/a	-999	17	[8, 2, 7]	17.0	catFR1	2	R1144E
1874.533	4.293	956792	PROB	4.293	n/a	n/a	n/a	-999	17	[4, 3, 7]	14.0	catFR1	2	R1144E
1878.826	0.008	958939	STOP	n/a	n/a	n/a	n/a	-999	17	[-999, -999, -999]	n/a	catFR1	2	R1144E
1878.834	1.234	958943	DISTRACT_END	n/a	n/a	n/a	n/a	-999	17	[0, 0, 0]	n/a	catFR1	2	R1144E
1880.068	1.263	959560	REC_START	n/a	n/a	n/a	n/a	-999	17	[0, 0, 0]	n/a	catFR1	2	R1144E
1881.331	1.255	960191	REC_WORD	1.263	n/a	TAPE	OfficeSupplies	3	17	[0, 0, 0]	n/a	catFR1	2	R1144E
1882.586	3.116	960818	REC_WORD	2.518	n/a	STAPLER	OfficeSupplies	7	17	[0, 0, 0]	n/a	catFR1	2	R1144E
1885.702	5.295	962376	REC_WORD	5.634	n/a	RULER	OfficeSupplies	8	17	[0, 0, 0]	n/a	catFR1	2	R1144E
1890.997	1.55	965024	REC_WORD	10.929	n/a	ELM	n/a	-999	17	[0, 0, 0]	n/a	catFR1	2	R1144E
1892.547	5.706	965799	REC_WORD	12.479	n/a	PINE	n/a	-999	17	[0, 0, 0]	n/a	catFR1	2	R1144E
1898.253	11.823	968651	REC_WORD	18.185	n/a	DAFFODIL	Flowers	1	17	[0, 0, 0]	n/a	catFR1	2	R1144E
1910.076	4.581	974562	REC_END	n/a	n/a	n/a	n/a	-999	17	[0, 0, 0]	n/a	catFR1	2	R1144E
1914.657	0.0	976853	TRIAL	n/a	n/a	n/a	n/a	-999	18	[0, 0, 0]	n/a	catFR1	2	R1144E
1914.657	10.428	976853	COUNTDOWN_START	n/a	n/a	n/a	n/a	-999	18	[0, 0, 0]	n/a	catFR1	2	R1144E
1925.085	0.007	982066	COUNTDOWN_END	n/a	n/a	n/a	n/a	-999	18	[0, 0, 0]	n/a	catFR1	2	R1144E
1925.092	3.55	982070	ORIENT	n/a	n/a	n/a	n/a	-999	18	[0, 0, 0]	n/a	catFR1	2	R1144E
1928.642	2.568	983845	WORD	n/a	wordpools/wordpool_categorized_EN.txt	WHALE	OceanAnimals	1	18	[0, 0, 0]	n/a	catFR1	2	R1144E
1931.21	2.6	985129	WORD	n/a	wordpools/wordpool_categorized_EN.txt	SHRIMP	OceanAnimals	2	18	[0, 0, 0]	n/a	catFR1	2	R1144E
1933.81	2.484	986429	WORD	n/a	wordpools/wordpool_categorized_EN.txt	VIOLET	Flowers	3	18	[0, 0, 0]	n/a	catFR1	2	R1144E
1936.294	2.467	987671	WORD	n/a	wordpools/wordpool_categorized_EN.txt	LILAC	Flowers	4	18	[0, 0, 0]	n/a	catFR1	2	R1144E
1938.761	2.4	988904	WORD	n/a	wordpools/wordpool_categorized_EN.txt	BALL	Toys	5	18	[0, 0, 0]	n/a	catFR1	2	R1144E
1941.161	2.567	990104	WORD	n/a	wordpools/wordpool_categorized_EN.txt	BASEBALL	Toys	6	18	[0, 0, 0]	n/a	catFR1	2	R1144E
1943.728	2.518	991387	WORD	n/a	wordpools/wordpool_categorized_EN.txt	FISH	OceanAnimals	7	18	[0, 0, 0]	n/a	catFR1	2	R1144E
1946.246	2.55	992646	WORD	n/a	wordpools/wordpool_categorized_EN.txt	CRAB	OceanAnimals	8	18	[0, 0, 0]	n/a	catFR1	2	R1144E
1948.796	2.384	993921	WORD	n/a	wordpools/wordpool_categorized_EN.txt	PUZZLE	Toys	9	18	[0, 0, 0]	n/a	catFR1	2	R1144E
1951.18	2.383	995113	WORD	n/a	wordpools/wordpool_categorized_EN.txt	BLOCKS	Toys	10	18	[0, 0, 0]	n/a	catFR1	2	R1144E
1953.563	2.584	996304	WORD	n/a	wordpools/wordpool_categorized_EN.txt	SUNFLOWER	Flowers	11	18	[0, 0, 0]	n/a	catFR1	2	R1144E
1956.147	1.617	997596	WORD	n/a	wordpools/wordpool_categorized_EN.txt	TULIP	Flowers	12	18	[0, 0, 0]	n/a	catFR1	2	R1144E
1957.764	0.001	998405	DISTRACT_START	n/a	n/a	n/a	n/a	-999	18	[0, 0, 0]	n/a	catFR1	2	R1144E
1957.765	0.016	998405	START	n/a	n/a	n/a	n/a	-999	18	[-999, -999, -999]	n/a	catFR1	2	R1144E
1957.781	10.052	998413	PROB	10.019	n/a	n/a	n/a	-999	18	[6, 7, 5]	18.0	catFR1	2	R1144E
1967.833	5.084	1003439	PROB	5.063	n/a	n/a	n/a	-999	18	[8, 8, 2]	18.0	catFR1	2	R1144E
1972.917	4.667	1005981	PROB	4.638	n/a	n/a	n/a	-999	18	[1, 4, 4]	9.0	catFR1	2	R1144E
1977.584	6.179	1008314	PROB	6.179	n/a	n/a	n/a	-999	18	[7, 2, 4]	13.0	catFR1	2	R1144E
1983.763	0.006	1011403	STOP	n/a	n/a	n/a	n/a	-999	18	[-999, -999, -999]	n/a	catFR1	2	R1144E
1983.769	1.167	1011406	DISTRACT_END	n/a	n/a	n/a	n/a	-999	18	[0, 0, 0]	n/a	catFR1	2	R1144E
1984.936	1.38	1011990	REC_START	n/a	n/a	n/a	n/a	-999	18	[0, 0, 0]	n/a	catFR1	2	R1144E
1986.316	1.543	1012680	REC_WORD	1.38	n/a	WHALE	OceanAnimals	1	18	[0, 0, 0]	n/a	catFR1	2	R1144E
1987.859	2.397	1013451	REC_WORD	2.923	n/a	SHRIMP	OceanAnimals	2	18	[0, 0, 0]	n/a	catFR1	2	R1144E
1990.256	2.385	1014650	REC_WORD	5.32	n/a	FISH	OceanAnimals	7	18	[0, 0, 0]	n/a	catFR1	2	R1144E
1992.641	1.943	1015842	REC_WORD	7.705	n/a	BALL	Toys	5	18	[0, 0, 0]	n/a	catFR1	2	R1144E
1994.584	20.365	1016814	REC_WORD	9.648	n/a	BASEBALL	Toys	6	18	[0, 0, 0]	n/a	catFR1	2	R1144E
2014.949	5.659	1026995	REC_END	n/a	n/a	n/a	n/a	-999	18	[0, 0, 0]	n/a	catFR1	2	R1144E
2020.608	0.0	1029825	TRIAL	n/a	n/a	n/a	n/a	-999	19	[0, 0, 0]	n/a	catFR1	2	R1144E
2020.608	10.428	1029825	COUNTDOWN_START	n/a	n/a	n/a	n/a	-999	19	[0, 0, 0]	n/a	catFR1	2	R1144E
2031.036	0.007	1035038	COUNTDOWN_END	n/a	n/a	n/a	n/a	-999	19	[0, 0, 0]	n/a	catFR1	2	R1144E
2031.043	3.635	1035042	ORIENT	n/a	n/a	n/a	n/a	-999	19	[0, 0, 0]	n/a	catFR1	2	R1144E
2034.678	2.55	1036859	WORD	n/a	wordpools/wordpool_categorized_EN.txt	CABBAGE	Vegetables	1	19	[0, 0, 0]	n/a	catFR1	2	R1144E
2037.228	2.384	1038134	WORD	n/a	wordpools/wordpool_categorized_EN.txt	LETTUCE	Vegetables	2	19	[0, 0, 0]	n/a	catFR1	2	R1144E
2039.612	2.517	1039326	WORD	n/a	wordpools/wordpool_categorized_EN.txt	GIRAFFE	Zoo	3	19	[0, 0, 0]	n/a	catFR1	2	R1144E
2042.129	2.584	1040584	WORD	n/a	wordpools/wordpool_categorized_EN.txt	LION	Zoo	4	19	[0, 0, 0]	n/a	catFR1	2	R1144E
2044.713	2.6	1041876	WORD	n/a	wordpools/wordpool_categorized_EN.txt	FOG	Weather	5	19	[0, 0, 0]	n/a	catFR1	2	R1144E
2047.313	2.384	1043176	WORD	n/a	wordpools/wordpool_categorized_EN.txt	RAIN	Weather	6	19	[0, 0, 0]	n/a	catFR1	2	R1144E
2049.697	2.584	1044368	WORD	n/a	wordpools/wordpool_categorized_EN.txt	ELEPHANT	Zoo	7	19	[0, 0, 0]	n/a	catFR1	2	R1144E
2052.281	2.534	1045660	WORD	n/a	wordpools/wordpool_categorized_EN.txt	PANDA	Zoo	8	19	[0, 0, 0]	n/a	catFR1	2	R1144E
2054.815	2.4	1046927	WORD	n/a	wordpools/wordpool_categorized_EN.txt	POTATO	Vegetables	9	19	[0, 0, 0]	n/a	catFR1	2	R1144E
2057.215	2.4	1048127	WORD	n/a	wordpools/wordpool_categorized_EN.txt	SPINACH	Vegetables	10	19	[0, 0, 0]	n/a	catFR1	2	R1144E
2059.615	2.518	1049327	WORD	n/a	wordpools/wordpool_categorized_EN.txt	HURRICANE	Weather	11	19	[0, 0, 0]	n/a	catFR1	2	R1144E
2062.133	1.616	1050586	WORD	n/a	wordpools/wordpool_categorized_EN.txt	SNOW	Weather	12	19	[0, 0, 0]	n/a	catFR1	2	R1144E
2063.749	0.001	1051394	DISTRACT_START	n/a	n/a	n/a	n/a	-999	19	[0, 0, 0]	n/a	catFR1	2	R1144E
2063.75	0.016	1051394	START	n/a	n/a	n/a	n/a	-999	19	[-999, -999, -999]	n/a	catFR1	2	R1144E
2063.766	6.551	1051402	PROB	6.523	n/a	n/a	n/a	-999	19	[6, 6, 8]	20.0	catFR1	2	R1144E
2070.317	4.368	1054678	PROB	4.332	n/a	n/a	n/a	-999	19	[1, 9, 6]	16.0	catFR1	2	R1144E
2074.685	4.2	1056861	PROB	4.18	n/a	n/a	n/a	-999	19	[5, 3, 2]	10.0	catFR1	2	R1144E
2078.885	6.479	1058961	PROB	6.479	n/a	n/a	n/a	-999	19	[2, 7, 5]	14.0	catFR1	2	R1144E
2085.364	0.006	1062201	STOP	n/a	n/a	n/a	n/a	-999	19	[-999, -999, -999]	n/a	catFR1	2	R1144E
2085.37	1.134	1062204	DISTRACT_END	n/a	n/a	n/a	n/a	-999	19	[0, 0, 0]	n/a	catFR1	2	R1144E
2086.504	0.956	1062770	REC_START	n/a	n/a	n/a	n/a	-999	19	[0, 0, 0]	n/a	catFR1	2	R1144E
2087.46	1.869	1063248	REC_WORD	0.956	n/a	CABBAGE	Vegetables	1	19	[0, 0, 0]	n/a	catFR1	2	R1144E
2089.329	3.936	1064183	REC_WORD	2.825	n/a	LETTUCE	Vegetables	2	19	[0, 0, 0]	n/a	catFR1	2	R1144E
2093.265	8.741	1066151	REC_WORD	6.761	n/a	GIRAFFE	Zoo	3	19	[0, 0, 0]	n/a	catFR1	2	R1144E
2102.006	1.448	1070521	REC_WORD	15.502	n/a	FOG	Weather	5	19	[0, 0, 0]	n/a	catFR1	2	R1144E
2103.454	1.172	1071245	REC_WORD	16.95	n/a	RAIN	Weather	6	19	[0, 0, 0]	n/a	catFR1	2	R1144E
2104.626	1.364	1071831	REC_WORD	18.122	n/a	SNOW	Weather	12	19	[0, 0, 0]	n/a	catFR1	2	R1144E
2105.99	10.527	1072513	REC_WORD	19.486	n/a	THUNDER	n/a	-999	19	[0, 0, 0]	n/a	catFR1	2	R1144E
2116.517	5.508	1077776	REC_END	n/a	n/a	n/a	n/a	-999	19	[0, 0, 0]	n/a	catFR1	2	R1144E
2122.025	0.001	1080530	COUNTDOWN_START	n/a	n/a	n/a	n/a	-999	20	[0, 0, 0]	n/a	catFR1	2	R1144E
2122.026	10.427	1080530	TRIAL	n/a	n/a	n/a	n/a	-999	20	[0, 0, 0]	n/a	catFR1	2	R1144E
2132.453	0.009	1085743	COUNTDOWN_END	n/a	n/a	n/a	n/a	-999	20	[0, 0, 0]	n/a	catFR1	2	R1144E
2132.462	3.617	1085748	ORIENT	n/a	n/a	n/a	n/a	-999	20	[0, 0, 0]	n/a	catFR1	2	R1144E
2136.079	2.534	1087556	WORD	n/a	wordpools/wordpool_categorized_EN.txt	DOLL	Toys	1	20	[0, 0, 0]	n/a	catFR1	2	R1144E
2138.613	2.5	1088823	WORD	n/a	wordpools/wordpool_categorized_EN.txt	BASKETBALL	Toys	2	20	[0, 0, 0]	n/a	catFR1	2	R1144E
2141.113	2.417	1090073	WORD	n/a	wordpools/wordpool_categorized_EN.txt	CHERRY	Fruit	3	20	[0, 0, 0]	n/a	catFR1	2	R1144E
2143.53	2.434	1091282	WORD	n/a	wordpools/wordpool_categorized_EN.txt	BLUEBERRY	Fruit	4	20	[0, 0, 0]	n/a	catFR1	2	R1144E
2145.964	2.417	1092498	WORD	n/a	wordpools/wordpool_categorized_EN.txt	CARDINAL	Birds	5	20	[0, 0, 0]	n/a	catFR1	2	R1144E
2148.381	2.5	1093707	WORD	n/a	wordpools/wordpool_categorized_EN.txt	GOOSE	Birds	6	20	[0, 0, 0]	n/a	catFR1	2	R1144E
2150.881	2.401	1094957	WORD	n/a	wordpools/wordpool_categorized_EN.txt	SLINKY	Toys	7	20	[0, 0, 0]	n/a	catFR1	2	R1144E
2153.282	2.567	1096157	WORD	n/a	wordpools/wordpool_categorized_EN.txt	DOLLHOUSE	Toys	8	20	[0, 0, 0]	n/a	catFR1	2	R1144E
2155.849	2.584	1097441	WORD	n/a	wordpools/wordpool_categorized_EN.txt	FINCH	Birds	9	20	[0, 0, 0]	n/a	catFR1	2	R1144E
2158.433	2.45	1098733	WORD	n/a	wordpools/wordpool_categorized_EN.txt	SPARROW	Birds	10	20	[0, 0, 0]	n/a	catFR1	2	R1144E
2160.883	2.501	1099957	WORD	n/a	wordpools/wordpool_categorized_EN.txt	PLUM	Fruit	11	20	[0, 0, 0]	n/a	catFR1	2	R1144E
2163.384	1.616	1101208	WORD	n/a	wordpools/wordpool_categorized_EN.txt	LIME	Fruit	12	20	[0, 0, 0]	n/a	catFR1	2	R1144E
2165.0	0.0	1102016	DISTRACT_START	n/a	n/a	n/a	n/a	-999	20	[0, 0, 0]	n/a	catFR1	2	R1144E
2165.0	0.016	1102016	START	n/a	n/a	n/a	n/a	-999	20	[-999, -999, -999]	n/a	catFR1	2	R1144E
2165.016	3.935	1102024	PROB	3.906	n/a	n/a	n/a	-999	20	[4, 4, 4]	12.0	catFR1	2	R1144E
2168.951	4.151	1103991	PROB	4.123	n/a	n/a	n/a	-999	20	[6, 6, 2]	14.0	catFR1	2	R1144E
2173.102	3.95	1106067	PROB	3.915	n/a	n/a	n/a	-999	20	[3, 1, 4]	8.0	catFR1	2	R1144E
2177.052	7.635	1108041	PROB	7.615	n/a	n/a	n/a	-999	20	[3, 9, 6]	18.0	catFR1	2	R1144E
2184.687	4.772	1111859	PROB	4.772	n/a	n/a	n/a	-999	20	[1, 4, 9]	14.0	catFR1	2	R1144E
2189.459	0.013	1114244	STOP	n/a	n/a	n/a	n/a	-999	20	[-999, -999, -999]	n/a	catFR1	2	R1144E
2189.472	1.184	1114251	DISTRACT_END	n/a	n/a	n/a	n/a	-999	20	[0, 0, 0]	n/a	catFR1	2	R1144E
2190.656	1.561	1114843	REC_START	n/a	n/a	n/a	n/a	-999	20	[0, 0, 0]	n/a	catFR1	2	R1144E
2192.217	1.542	1115623	REC_WORD	1.561	n/a	DOLL	Toys	1	20	[0, 0, 0]	n/a	catFR1	2	R1144E
2193.759	2.85	1116394	REC_WORD	3.103	n/a	DOLLHOUSE	Toys	8	20	[0, 0, 0]	n/a	catFR1	2	R1144E
2196.609	24.055	1117819	REC_WORD	5.953	n/a	BASKETBALL	Toys	2	20	[0, 0, 0]	n/a	catFR1	2	R1144E
2220.664	8.481	1129846	REC_END	n/a	n/a	n/a	n/a	-999	20	[0, 0, 0]	n/a	catFR1	2	R1144E
2229.145	0.0	1134086	TRIAL	n/a	n/a	n/a	n/a	-999	21	[0, 0, 0]	n/a	catFR1	2	R1144E
2229.145	10.428	1134086	COUNTDOWN_START	n/a	n/a	n/a	n/a	-999	21	[0, 0, 0]	n/a	catFR1	2	R1144E
2239.573	0.007	1139300	COUNTDOWN_END	n/a	n/a	n/a	n/a	-999	21	[0, 0, 0]	n/a	catFR1	2	R1144E
2239.58	3.734	1139303	ORIENT	n/a	n/a	n/a	n/a	-999	21	[0, 0, 0]	n/a	catFR1	2	R1144E
2243.314	2.401	1141170	WORD	n/a	wordpools/wordpool_categorized_EN.txt	CHIMPANZEE	Zoo	1	21	[0, 0, 0]	n/a	catFR1	2	R1144E
2245.715	2.45	1142371	WORD	n/a	wordpools/wordpool_categorized_EN.txt	GORILLA	Zoo	2	21	[0, 0, 0]	n/a	catFR1	2	R1144E
2248.165	2.584	1143595	WORD	n/a	wordpools/wordpool_categorized_EN.txt	HEN	FarmAnimals	3	21	[0, 0, 0]	n/a	catFR1	2	R1144E
2250.749	2.6	1144887	WORD	n/a	wordpools/wordpool_categorized_EN.txt	ROOSTER	FarmAnimals	4	21	[0, 0, 0]	n/a	catFR1	2	R1144E
2253.349	2.568	1146187	WORD	n/a	wordpools/wordpool_categorized_EN.txt	BROWNIES	Desserts	5	21	[0, 0, 0]	n/a	catFR1	2	R1144E
2255.917	2.516	1147471	WORD	n/a	wordpools/wordpool_categorized_EN.txt	PIE	Desserts	6	21	[0, 0, 0]	n/a	catFR1	2	R1144E
2258.433	2.635	1148729	WORD	n/a	wordpools/wordpool_categorized_EN.txt	ORANGUTAN	Zoo	7	21	[0, 0, 0]	n/a	catFR1	2	R1144E
2261.068	2.417	1150047	WORD	n/a	wordpools/wordpool_categorized_EN.txt	TIGER	Zoo	8	21	[0, 0, 0]	n/a	catFR1	2	R1144E
2263.485	2.516	1151255	WORD	n/a	wordpools/wordpool_categorized_EN.txt	MOUSSE	Desserts	9	21	[0, 0, 0]	n/a	catFR1	2	R1144E
2266.001	2.585	1152513	WORD	n/a	wordpools/wordpool_categorized_EN.txt	COBBLER	Desserts	10	21	[0, 0, 0]	n/a	catFR1	2	R1144E
2268.586	2.4	1153805	WORD	n/a	wordpools/wordpool_categorized_EN.txt	CALF	FarmAnimals	11	21	[0, 0, 0]	n/a	catFR1	2	R1144E
2270.986	1.617	1155005	WORD	n/a	wordpools/wordpool_categorized_EN.txt	TURKEY	FarmAnimals	12	21	[0, 0, 0]	n/a	catFR1	2	R1144E
2272.603	0.001	1155814	DISTRACT_START	n/a	n/a	n/a	n/a	-999	21	[0, 0, 0]	n/a	catFR1	2	R1144E
2272.604	0.016	1155814	START	n/a	n/a	n/a	n/a	-999	21	[-999, -999, -999]	n/a	catFR1	2	R1144E
2272.62	6.201	1155822	PROB	6.175	n/a	n/a	n/a	-999	21	[3, 9, 1]	13.0	catFR1	2	R1144E
2278.821	6.134	1158922	PROB	6.11	n/a	n/a	n/a	-999	21	[8, 9, 9]	26.0	catFR1	2	R1144E
2284.955	5.033	1161989	PROB	5.008	n/a	n/a	n/a	-999	21	[8, 6, 1]	15.0	catFR1	2	R1144E
2289.988	4.311	1164506	PROB	4.311	n/a	n/a	n/a	-999	21	[3, 9, 9]	21.0	catFR1	2	R1144E
2294.299	0.008	1166661	STOP	n/a	n/a	n/a	n/a	-999	21	[-999, -999, -999]	n/a	catFR1	2	R1144E
2294.307	1.184	1166665	DISTRACT_END	n/a	n/a	n/a	n/a	-999	21	[0, 0, 0]	n/a	catFR1	2	R1144E
2295.491	1.57	1167257	REC_START	n/a	n/a	n/a	n/a	-999	21	[0, 0, 0]	n/a	catFR1	2	R1144E
2297.061	2.344	1168042	REC_WORD	1.57	n/a	CHIMPANZEE	Zoo	1	21	[0, 0, 0]	n/a	catFR1	2	R1144E
2299.405	1.817	1169214	REC_WORD	3.914	n/a	GORILLA	Zoo	2	21	[0, 0, 0]	n/a	catFR1	2	R1144E
2301.222	4.246	1170122	REC_WORD	5.731	n/a	ORANGUTAN	Zoo	7	21	[0, 0, 0]	n/a	catFR1	2	R1144E
2305.468	1.239	1172245	REC_WORD	9.977	n/a	COOKIE	n/a	-999	21	[0, 0, 0]	n/a	catFR1	2	R1144E
2306.707	18.792	1172864	REC_WORD	11.216	n/a	COBBLER	Desserts	10	21	[0, 0, 0]	n/a	catFR1	2	R1144E
2325.499	9.848	1182260	REC_END	n/a	n/a	n/a	n/a	-999	21	[0, 0, 0]	n/a	catFR1	2	R1144E
2335.347	0.001	1187183	COUNTDOWN_START	n/a	n/a	n/a	n/a	-999	22	[0, 0, 0]	n/a	catFR1	2	R1144E
2335.348	10.427	1187184	TRIAL	n/a	n/a	n/a	n/a	-999	22	[0, 0, 0]	n/a	catFR1	2	R1144E
2345.775	0.007	1192397	COUNTDOWN_END	n/a	n/a	n/a	n/a	-999	22	[0, 0, 0]	n/a	catFR1	2	R1144E
2345.782	3.401	1192401	ORIENT	n/a	n/a	n/a	n/a	-999	22	[0, 0, 0]	n/a	catFR1	2	R1144E
2349.183	2.551	1194101	WORD	n/a	wordpools/wordpool_categorized_EN.txt	SAW	Tools	1	22	[0, 0, 0]	n/a	catFR1	2	R1144E
2351.734	2.55	1195376	WORD	n/a	wordpools/wordpool_categorized_EN.txt	DRILL	Tools	2	22	[0, 0, 0]	n/a	catFR1	2	R1144E
2354.284	2.417	1196651	WORD	n/a	wordpools/wordpool_categorized_EN.txt	BEER	Beverages	3	22	[0, 0, 0]	n/a	catFR1	2	R1144E
2356.701	2.417	1197860	WORD	n/a	wordpools/wordpool_categorized_EN.txt	WINE	Beverages	4	22	[0, 0, 0]	n/a	catFR1	2	R1144E
2359.118	2.451	1199068	WORD	n/a	wordpools/wordpool_categorized_EN.txt	CYPRESS	Trees	5	22	[0, 0, 0]	n/a	catFR1	2	R1144E
2361.569	2.4	1200294	WORD	n/a	wordpools/wordpool_categorized_EN.txt	HICKORY	Trees	6	22	[0, 0, 0]	n/a	catFR1	2	R1144E
2363.969	2.45	1201494	WORD	n/a	wordpools/wordpool_categorized_EN.txt	WRENCH	Tools	7	22	[0, 0, 0]	n/a	catFR1	2	R1144E
2366.419	2.567	1202718	WORD	n/a	wordpools/wordpool_categorized_EN.txt	HAMMER	Tools	8	22	[0, 0, 0]	n/a	catFR1	2	R1144E
2368.986	2.434	1204002	WORD	n/a	wordpools/wordpool_categorized_EN.txt	OAK	Trees	9	22	[0, 0, 0]	n/a	catFR1	2	R1144E
2371.42	2.417	1205219	WORD	n/a	wordpools/wordpool_categorized_EN.txt	WALNUT	Trees	10	22	[0, 0, 0]	n/a	catFR1	2	R1144E
2373.837	2.601	1206427	WORD	n/a	wordpools/wordpool_categorized_EN.txt	MILK	Beverages	11	22	[0, 0, 0]	n/a	catFR1	2	R1144E
2376.438	1.616	1207728	WORD	n/a	wordpools/wordpool_categorized_EN.txt	CIDER	Beverages	12	22	[0, 0, 0]	n/a	catFR1	2	R1144E
2378.054	0.001	1208536	DISTRACT_START	n/a	n/a	n/a	n/a	-999	22	[0, 0, 0]	n/a	catFR1	2	R1144E
2378.055	0.016	1208536	START	n/a	n/a	n/a	n/a	-999	22	[-999, -999, -999]	n/a	catFR1	2	R1144E
2378.071	7.168	1208544	PROB	7.134	n/a	n/a	n/a	-999	22	[4, 2, 8]	14.0	catFR1	2	R1144E
2385.239	4.834	1212128	PROB	4.797	n/a	n/a	n/a	-999	22	[8, 9, 1]	18.0	catFR1	2	R1144E
2390.073	4.451	1214545	PROB	4.428	n/a	n/a	n/a	-999	22	[6, 9, 1]	16.0	catFR1	2	R1144E
2394.524	6.025	1216770	PROB	6.025	n/a	n/a	n/a	-999	22	[4, 9, 2]	15.0	catFR1	2	R1144E
2400.549	0.01	1219782	STOP	n/a	n/a	n/a	n/a	-999	22	[-999, -999, -999]	n/a	catFR1	2	R1144E
2400.559	1.034	1219787	DISTRACT_END	n/a	n/a	n/a	n/a	-999	22	[0, 0, 0]	n/a	catFR1	2	R1144E
2401.593	0.989	1220304	REC_START	n/a	n/a	n/a	n/a	-999	22	[0, 0, 0]	n/a	catFR1	2	R1144E
2402.582	1.617	1220799	REC_WORD	0.989	n/a	SAW	Tools	1	22	[0, 0, 0]	n/a	catFR1	2	R1144E
2404.199	1.594	1221607	REC_WORD	2.606	n/a	DRILL	Tools	2	22	[0, 0, 0]	n/a	catFR1	2	R1144E
2405.793	1.64	1222404	REC_WORD	4.2	n/a	WRENCH	Tools	7	22	[0, 0, 0]	n/a	catFR1	2	R1144E
2407.433	3.012	1223224	REC_WORD	5.84	n/a	HAMMER	Tools	8	22	[0, 0, 0]	n/a	catFR1	2	R1144E
2410.445	2.902	1224730	REC_WORD	8.852	n/a	BEER	Beverages	3	22	[0, 0, 0]	n/a	catFR1	2	R1144E
2413.347	8.362	1226181	REC_WORD	11.754	n/a	WINE	Beverages	4	22	[0, 0, 0]	n/a	catFR1	2	R1144E
2421.709	1.61	1230362	REC_WORD	20.116	n/a	OAK	Trees	9	22	[0, 0, 0]	n/a	catFR1	2	R1144E
2423.319	2.326	1231166	REC_WORD	21.726	n/a	ELM	n/a	-999	22	[0, 0, 0]	n/a	catFR1	2	R1144E
2425.645	1.598	1232329	REC_WORD	24.052	n/a	PINE	n/a	-999	22	[0, 0, 0]	n/a	catFR1	2	R1144E
2427.243	4.358	1233128	REC_WORD	25.65	n/a	CYPRESS	Trees	5	22	[0, 0, 0]	n/a	catFR1	2	R1144E
2431.601	6.531	1235307	REC_END	n/a	n/a	n/a	n/a	-999	22	[0, 0, 0]	n/a	catFR1	2	R1144E
2438.132	0.0	1238572	TRIAL	n/a	n/a	n/a	n/a	-999	23	[0, 0, 0]	n/a	catFR1	2	R1144E
2438.132	10.428	1238572	COUNTDOWN_START	n/a	n/a	n/a	n/a	-999	23	[0, 0, 0]	n/a	catFR1	2	R1144E
2448.56	0.007	1243786	COUNTDOWN_END	n/a	n/a	n/a	n/a	-999	23	[0, 0, 0]	n/a	catFR1	2	R1144E
2448.567	3.701	1243790	ORIENT	n/a	n/a	n/a	n/a	-999	23	[0, 0, 0]	n/a	catFR1	2	R1144E
2452.268	2.4	1245640	WORD	n/a	wordpools/wordpool_categorized_EN.txt	BEACH	Landscapes	1	23	[0, 0, 0]	n/a	catFR1	2	R1144E
2454.668	2.383	1246840	WORD	n/a	wordpools/wordpool_categorized_EN.txt	VALLEY	Landscapes	2	23	[0, 0, 0]	n/a	catFR1	2	R1144E
2457.051	2.535	1248031	WORD	n/a	wordpools/wordpool_categorized_EN.txt	PLANE	Vehicles	3	23	[0, 0, 0]	n/a	catFR1	2	R1144E
2459.586	2.517	1249299	WORD	n/a	wordpools/wordpool_categorized_EN.txt	BOAT	Vehicles	4	23	[0, 0, 0]	n/a	catFR1	2	R1144E
2462.103	2.5	1250557	WORD	n/a	wordpools/wordpool_categorized_EN.txt	THUNDERSTORM	Weather	5	23	[0, 0, 0]	n/a	catFR1	2	R1144E
2464.603	2.584	1251807	WORD	n/a	wordpools/wordpool_categorized_EN.txt	DRIZZLE	Weather	6	23	[0, 0, 0]	n/a	catFR1	2	R1144E
2467.187	2.401	1253099	WORD	n/a	wordpools/wordpool_categorized_EN.txt	LAKE	Landscapes	7	23	[0, 0, 0]	n/a	catFR1	2	R1144E
2469.588	2.432	1254299	WORD	n/a	wordpools/wordpool_categorized_EN.txt	RIVER	Landscapes	8	23	[0, 0, 0]	n/a	catFR1	2	R1144E
2472.02	2.518	1255515	WORD	n/a	wordpools/wordpool_categorized_EN.txt	CLOUD	Weather	9	23	[0, 0, 0]	n/a	catFR1	2	R1144E
2474.538	2.401	1256774	WORD	n/a	wordpools/wordpool_categorized_EN.txt	HUMIDITY	Weather	10	23	[0, 0, 0]	n/a	catFR1	2	R1144E
2476.939	2.4	1257975	WORD	n/a	wordpools/wordpool_categorized_EN.txt	BUS	Vehicles	11	23	[0, 0, 0]	n/a	catFR1	2	R1144E
2479.339	1.617	1259175	WORD	n/a	wordpools/wordpool_categorized_EN.txt	BIKE	Vehicles	12	23	[0, 0, 0]	n/a	catFR1	2	R1144E
2480.956	0.001	1259983	DISTRACT_START	n/a	n/a	n/a	n/a	-999	23	[0, 0, 0]	n/a	catFR1	2	R1144E
2480.957	0.016	1259984	START	n/a	n/a	n/a	n/a	-999	23	[-999, -999, -999]	n/a	catFR1	2	R1144E
2480.973	5.601	1259992	PROB	5.576	n/a	n/a	n/a	-999	23	[6, 4, 8]	18.0	catFR1	2	R1144E
2486.574	5.001	1262792	PROB	4.965	n/a	n/a	n/a	-999	23	[1, 2, 5]	8.0	catFR1	2	R1144E
2491.575	4.817	1265292	PROB	4.797	n/a	n/a	n/a	-999	23	[8, 1, 8]	17.0	catFR1	2	R1144E
2496.392	5.435	1267701	PROB	5.435	n/a	n/a	n/a	-999	23	[7, 4, 7]	18.0	catFR1	2	R1144E
2501.827	0.016	1270418	STOP	n/a	n/a	n/a	n/a	-999	23	[-999, -999, -999]	n/a	catFR1	2	R1144E
2501.843	1.034	1270426	DISTRACT_END	n/a	n/a	n/a	n/a	-999	23	[0, 0, 0]	n/a	catFR1	2	R1144E
2502.877	1.494	1270943	REC_START	n/a	n/a	n/a	n/a	-999	23	[0, 0, 0]	n/a	catFR1	2	R1144E
2504.371	1.305	1271690	REC_WORD	1.494	n/a	BEACH	Landscapes	1	23	[0, 0, 0]	n/a	catFR1	2	R1144E
2505.676	1.628	1272342	REC_WORD	2.799	n/a	VALLEY	Landscapes	2	23	[0, 0, 0]	n/a	catFR1	2	R1144E
2507.304	1.713	1273156	REC_WORD	4.427	n/a	THUNDERSTORM	Weather	5	23	[0, 0, 0]	n/a	catFR1	2	R1144E
2509.017	3.71	1274013	REC_WORD	6.14	n/a	DRIZZLE	Weather	6	23	[0, 0, 0]	n/a	catFR1	2	R1144E
2512.727	9.325	1275867	REC_WORD	9.85	n/a	LAKE	Landscapes	7	23	[0, 0, 0]	n/a	catFR1	2	R1144E
2522.052	2.239	1280530	REC_WORD	19.175	n/a	RAIN	n/a	-999	23	[0, 0, 0]	n/a	catFR1	2	R1144E
2524.291	2.598	1281649	REC_WORD	21.414	n/a	RIVER	Landscapes	8	23	[0, 0, 0]	n/a	catFR1	2	R1144E
2526.889	5.748	1282948	REC_WORD	24.012	n/a	CREEK	n/a	-999	23	[0, 0, 0]	n/a	catFR1	2	R1144E
2532.637	0.254	1285822	REC_WORD_VV	29.76	n/a	<>	n/a	-999	23	[0, 0, 0]	n/a	catFR1	2	R1144E
2532.891	5.742	1285949	REC_END	n/a	n/a	n/a	n/a	-999	23	[0, 0, 0]	n/a	catFR1	2	R1144E
2538.633	0.0	1288820	COUNTDOWN_START	n/a	n/a	n/a	n/a	-999	24	[0, 0, 0]	n/a	catFR1	2	R1144E
2538.633	10.428	1288820	TRIAL	n/a	n/a	n/a	n/a	-999	24	[0, 0, 0]	n/a	catFR1	2	R1144E
2549.061	0.007	1294033	COUNTDOWN_END	n/a	n/a	n/a	n/a	-999	24	[0, 0, 0]	n/a	catFR1	2	R1144E
2549.068	3.668	1294037	ORIENT	n/a	n/a	n/a	n/a	-999	24	[0, 0, 0]	n/a	catFR1	2	R1144E
2552.736	2.5	1295871	WORD	n/a	wordpools/wordpool_categorized_EN.txt	TRAIN	Vehicles	1	24	[0, 0, 0]	n/a	catFR1	2	R1144E
2555.236	2.45	1297120	WORD	n/a	wordpools/wordpool_categorized_EN.txt	CAR	Vehicles	2	24	[0, 0, 0]	n/a	catFR1	2	R1144E
2557.686	2.567	1298345	WORD	n/a	wordpools/wordpool_categorized_EN.txt	WALL	Building	3	24	[0, 0, 0]	n/a	catFR1	2	R1144E
2560.253	2.618	1299629	WORD	n/a	wordpools/wordpool_categorized_EN.txt	ATTIC	Building	4	24	[0, 0, 0]	n/a	catFR1	2	R1144E
2562.871	2.533	1300938	WORD	n/a	wordpools/wordpool_categorized_EN.txt	ANT	Insects	5	24	[0, 0, 0]	n/a	catFR1	2	R1144E
2565.404	2.583	1302204	WORD	n/a	wordpools/wordpool_categorized_EN.txt	BEETLE	Insects	6	24	[0, 0, 0]	n/a	catFR1	2	R1144E
2567.987	2.518	1303496	WORD	n/a	wordpools/wordpool_categorized_EN.txt	VAN	Vehicles	7	24	[0, 0, 0]	n/a	catFR1	2	R1144E
2570.505	2.483	1304754	WORD	n/a	wordpools/wordpool_categorized_EN.txt	MOPED	Vehicles	8	24	[0, 0, 0]	n/a	catFR1	2	R1144E
2572.988	2.635	1305996	WORD	n/a	wordpools/wordpool_categorized_EN.txt	LADYBUG	Insects	9	24	[0, 0, 0]	n/a	catFR1	2	R1144E
2575.623	2.534	1307313	WORD	n/a	wordpools/wordpool_categorized_EN.txt	SPIDER	Insects	10	24	[0, 0, 0]	n/a	catFR1	2	R1144E
2578.157	2.617	1308580	WORD	n/a	wordpools/wordpool_categorized_EN.txt	ROOF	Building	11	24	[0, 0, 0]	n/a	catFR1	2	R1144E
2580.774	1.617	1309889	WORD	n/a	wordpools/wordpool_categorized_EN.txt	DOOR	Building	12	24	[0, 0, 0]	n/a	catFR1	2	R1144E
2582.391	0.001	1310697	DISTRACT_START	n/a	n/a	n/a	n/a	-999	24	[0, 0, 0]	n/a	catFR1	2	R1144E
2582.392	0.015	1310698	START	n/a	n/a	n/a	n/a	-999	24	[-999, -999, -999]	n/a	catFR1	2	R1144E
2582.407	5.118	1310705	PROB	5.096	n/a	n/a	n/a	-999	24	[1, 5, 2]	8.0	catFR1	2	R1144E
2587.525	4.967	1313264	PROB	4.938	n/a	n/a	n/a	-999	24	[7, 2, 7]	16.0	catFR1	2	R1144E
2592.492	5.685	1315747	PROB	5.655	n/a	n/a	n/a	-999	24	[4, 5, 3]	12.0	catFR1	2	R1144E
2598.177	5.378	1318590	PROB	5.378	n/a	n/a	n/a	-999	24	[3, 8, 5]	16.0	catFR1	2	R1144E
2603.555	0.006	1321278	STOP	n/a	n/a	n/a	n/a	-999	24	[-999, -999, -999]	n/a	catFR1	2	R1144E
2603.561	1.134	1321281	DISTRACT_END	n/a	n/a	n/a	n/a	-999	24	[0, 0, 0]	n/a	catFR1	2	R1144E
2604.695	3.588	1321848	REC_START	n/a	n/a	n/a	n/a	-999	24	[0, 0, 0]	n/a	catFR1	2	R1144E
2608.283	0.721	1323642	REC_WORD	3.588	n/a	ATTIC	Building	4	24	[0, 0, 0]	n/a	catFR1	2	R1144E
2609.004	1.273	1324003	REC_WORD	4.309	n/a	STAIRS	n/a	-999	24	[0, 0, 0]	n/a	catFR1	2	R1144E
2610.277	1.82	1324639	REC_WORD	5.582	n/a	WALL	Building	3	24	[0, 0, 0]	n/a	catFR1	2	R1144E
2612.097	2.492	1325549	REC_WORD	7.402	n/a	TRAIN	Vehicles	1	24	[0, 0, 0]	n/a	catFR1	2	R1144E
2614.589	3.827	1326795	REC_WORD	9.894	n/a	BUS	n/a	-999	24	[0, 0, 0]	n/a	catFR1	2	R1144E
2618.416	13.395	1328708	REC_WORD	13.721	n/a	CAR	Vehicles	2	24	[0, 0, 0]	n/a	catFR1	2	R1144E
2631.811	2.897	1335405	REC_WORD	27.116	n/a	MOPED	Vehicles	8	24	[0, 0, 0]	n/a	catFR1	2	R1144E
2634.708	5.21	1336854	REC_END	n/a	n/a	n/a	n/a	-999	24	[0, 0, 0]	n/a	catFR1	2	R1144E
2639.918	0.0	1339459	TRIAL	n/a	n/a	n/a	n/a	-999	25	[0, 0, 0]	n/a	catFR1	2	R1144E
2639.918	10.428	1339459	COUNTDOWN_START	n/a	n/a	n/a	n/a	-999	25	[0, 0, 0]	n/a	catFR1	2	R1144E
2650.346	0.007	1344672	COUNTDOWN_END	n/a	n/a	n/a	n/a	-999	25	[0, 0, 0]	n/a	catFR1	2	R1144E
2650.353	3.834	1344676	ORIENT	n/a	n/a	n/a	n/a	-999	25	[0, 0, 0]	n/a	catFR1	2	R1144E
2654.187	2.4	1346593	WORD	n/a	wordpools/wordpool_categorized_EN.txt	BINDER	OfficeSupplies	1	25	[0, 0, 0]	n/a	catFR1	2	R1144E
2656.587	2.617	1347793	WORD	n/a	wordpools/wordpool_categorized_EN.txt	PEN	OfficeSupplies	2	25	[0, 0, 0]	n/a	catFR1	2	R1144E
2659.204	2.617	1349101	WORD	n/a	wordpools/wordpool_categorized_EN.txt	CRICKET	Insects	3	25	[0, 0, 0]	n/a	catFR1	2	R1144E
2661.821	2.601	1350409	WORD	n/a	wordpools/wordpool_categorized_EN.txt	BEE	Insects	4	25	[0, 0, 0]	n/a	catFR1	2	R1144E
2664.422	2.467	1351710	WORD	n/a	wordpools/wordpool_categorized_EN.txt	COMPUTER	Electronics	5	25	[0, 0, 0]	n/a	catFR1	2	R1144E
2666.889	2.45	1352943	WORD	n/a	wordpools/wordpool_categorized_EN.txt	RADIO	Electronics	6	25	[0, 0, 0]	n/a	catFR1	2	R1144E
2669.339	2.484	1354168	WORD	n/a	wordpools/wordpool_categorized_EN.txt	MOTH	Insects	7	25	[0, 0, 0]	n/a	catFR1	2	R1144E
2671.823	2.534	1355410	WORD	n/a	wordpools/wordpool_categorized_EN.txt	BUTTERFLY	Insects	8	25	[0, 0, 0]	n/a	catFR1	2	R1144E
2674.357	2.417	1356677	WORD	n/a	wordpools/wordpool_categorized_EN.txt	PENCIL	OfficeSupplies	9	25	[0, 0, 0]	n/a	catFR1	2	R1144E
2676.774	2.617	1357885	WORD	n/a	wordpools/wordpool_categorized_EN.txt	ERASER	OfficeSupplies	10	25	[0, 0, 0]	n/a	catFR1	2	R1144E
2679.391	2.501	1359194	WORD	n/a	wordpools/wordpool_categorized_EN.txt	MICROWAVE	Electronics	11	25	[0, 0, 0]	n/a	catFR1	2	R1144E
2681.892	1.617	1360444	WORD	n/a	wordpools/wordpool_categorized_EN.txt	SPEAKER	Electronics	12	25	[0, 0, 0]	n/a	catFR1	2	R1144E
2683.509	0.0	1361253	DISTRACT_START	n/a	n/a	n/a	n/a	-999	25	[0, 0, 0]	n/a	catFR1	2	R1144E
2683.509	0.016	1361253	START	n/a	n/a	n/a	n/a	-999	25	[-999, -999, -999]	n/a	catFR1	2	R1144E
2683.525	6.218	1361261	PROB	6.19	n/a	n/a	n/a	-999	25	[5, 2, 2]	9.0	catFR1	2	R1144E
2689.743	5.984	1364369	PROB	5.956	n/a	n/a	n/a	-999	25	[6, 6, 9]	21.0	catFR1	2	R1144E
2695.727	4.751	1367361	PROB	4.716	n/a	n/a	n/a	-999	25	[8, 8, 4]	20.0	catFR1	2	R1144E
2700.478	4.077	1369737	PROB	4.077	n/a	n/a	n/a	-999	25	[5, 3, 5]	13.0	catFR1	2	R1144E
2704.555	0.007	1371775	STOP	n/a	n/a	n/a	n/a	-999	25	[-999, -999, -999]	n/a	catFR1	2	R1144E
2704.562	1.151	1371778	DISTRACT_END	n/a	n/a	n/a	n/a	-999	25	[0, 0, 0]	n/a	catFR1	2	R1144E
2705.713	1.583	1372354	REC_START	n/a	n/a	n/a	n/a	-999	25	[0, 0, 0]	n/a	catFR1	2	R1144E
2707.296	1.354	1373145	REC_WORD	1.583	n/a	PENCIL	OfficeSupplies	9	25	[0, 0, 0]	n/a	catFR1	2	R1144E
2708.65	1.258	1373822	REC_WORD	2.937	n/a	PEN	OfficeSupplies	2	25	[0, 0, 0]	n/a	catFR1	2	R1144E
2709.908	1.87	1374451	REC_WORD	4.195	n/a	ERASER	OfficeSupplies	10	25	[0, 0, 0]	n/a	catFR1	2	R1144E
2711.778	1.695	1375386	REC_WORD	6.065	n/a	COMPUTER	Electronics	5	25	[0, 0, 0]	n/a	catFR1	2	R1144E
2713.473	5.882	1376234	REC_WORD	7.76	n/a	BINDER	OfficeSupplies	1	25	[0, 0, 0]	n/a	catFR1	2	R1144E
2719.355	1.374	1379174	REC_WORD	13.642	n/a	BUTTERFLY	Insects	8	25	[0, 0, 0]	n/a	catFR1	2	R1144E
2720.729	14.993	1379861	REC_WORD	15.016	n/a	MOTH	Insects	7	25	[0, 0, 0]	n/a	catFR1	2	R1144E
2735.722	99.413	1387357	REC_END	n/a	n/a	n/a	n/a	-999	25	[0, 0, 0]	n/a	catFR1	2	R1144E
2835.135	0.0	1437060	SESS_END	n/a	n/a	n/a	n/a	-999	25	[0, 0, 0]	n/a	catFR1	2	R1144E
