onset	duration	sample	trial_type	response_time	stim_file	item_name	category	serialpos	list	test	answer	experiment	session	subject
0.0	25.261	1385	INSTRUCT_START	n/a	n/a	n/a	n/a	-999	-999	[0, 0, 0]	n/a	catFR1	2	R1354E
25.261	3.634	26645	INSTRUCT_END	n/a	n/a	n/a	n/a	-999	-999	[0, 0, 0]	n/a	catFR1	2	R1354E
28.895	9.167	30279	MIC TEST_START	n/a	n/a	n/a	n/a	-999	-999	[0, 0, 0]	n/a	catFR1	2	R1354E
38.062	0.016	39445	MIC TEST_END	n/a	n/a	n/a	n/a	-999	-999	[0, 0, 0]	n/a	catFR1	2	R1354E
38.078	0.001	39461	TRIAL_START	n/a	n/a	n/a	n/a	-999	-1	[0, 0, 0]	n/a	catFR1	2	R1354E
38.079	0.0	39462	TRIAL	n/a	n/a	n/a	n/a	-999	-1	[0, 0, 0]	n/a	catFR1	2	R1354E
38.079	2.635	39462	WAITING_START	n/a	n/a	n/a	n/a	-999	-1	[0, 0, 0]	n/a	catFR1	2	R1354E
40.714	0.0	42097	COUNTDOWN_START	n/a	n/a	n/a	n/a	-999	-1	[0, 0, 0]	n/a	catFR1	2	R1354E
40.714	10.429	42097	WAITING_END	n/a	n/a	n/a	n/a	-999	-1	[0, 0, 0]	n/a	catFR1	2	R1354E
51.143	0.001	52526	COUNTDOWN_END	n/a	n/a	n/a	n/a	-999	-1	[0, 0, 0]	n/a	catFR1	2	R1354E
51.144	1.138	52527	ORIENT_START	n/a	n/a	n/a	n/a	-999	-1	[0, 0, 0]	n/a	catFR1	2	R1354E
52.282	0.001	53665	ORIENT_END	n/a	n/a	n/a	n/a	-999	-1	[0, 0, 0]	n/a	catFR1	2	R1354E
52.283	0.756	53666	ENCODING_START	n/a	n/a	n/a	n/a	-999	-1	[0, 0, 0]	n/a	catFR1	2	R1354E
53.039	1.627	54422	WORD	n/a	n/a	WOOL	n/a	1	-1	[0, 0, 0]	n/a	catFR1	2	R1354E
54.666	0.894	56049	WORD_OFF	n/a	n/a	WOOL	n/a	1	-1	[0, 0, 0]	n/a	catFR1	2	R1354E
55.56	1.623	56943	WORD	n/a	n/a	FIREMAN	n/a	2	-1	[0, 0, 0]	n/a	catFR1	2	R1354E
57.183	0.835	58566	WORD_OFF	n/a	n/a	FIREMAN	n/a	2	-1	[0, 0, 0]	n/a	catFR1	2	R1354E
58.018	1.632	59401	WORD	n/a	n/a	DAY	n/a	3	-1	[0, 0, 0]	n/a	catFR1	2	R1354E
59.65	1.133	61032	WORD_OFF	n/a	n/a	DAY	n/a	3	-1	[0, 0, 0]	n/a	catFR1	2	R1354E
60.783	1.635	62165	WORD	n/a	n/a	PLUMBER	n/a	4	-1	[0, 0, 0]	n/a	catFR1	2	R1354E
62.418	0.908	63800	WORD_OFF	n/a	n/a	PLUMBER	n/a	4	-1	[0, 0, 0]	n/a	catFR1	2	R1354E
63.326	1.625	64708	WORD	n/a	n/a	SILK	n/a	5	-1	[0, 0, 0]	n/a	catFR1	2	R1354E
64.951	1.007	66333	WORD_OFF	n/a	n/a	SILK	n/a	5	-1	[0, 0, 0]	n/a	catFR1	2	R1354E
65.958	1.627	67340	WORD	n/a	n/a	HOUR	n/a	6	-1	[0, 0, 0]	n/a	catFR1	2	R1354E
67.585	1.09	68967	WORD_OFF	n/a	n/a	HOUR	n/a	6	-1	[0, 0, 0]	n/a	catFR1	2	R1354E
68.675	1.627	70057	WORD	n/a	n/a	MINUTE	n/a	7	-1	[0, 0, 0]	n/a	catFR1	2	R1354E
70.302	1.038	71684	WORD_OFF	n/a	n/a	MINUTE	n/a	7	-1	[0, 0, 0]	n/a	catFR1	2	R1354E
71.34	1.629	72722	WORD	n/a	n/a	FARMER	n/a	8	-1	[0, 0, 0]	n/a	catFR1	2	R1354E
72.969	0.957	74351	WORD_OFF	n/a	n/a	FARMER	n/a	8	-1	[0, 0, 0]	n/a	catFR1	2	R1354E
73.926	1.627	75308	WORD	n/a	n/a	DENIM	n/a	9	-1	[0, 0, 0]	n/a	catFR1	2	R1354E
75.553	0.917	76935	WORD_OFF	n/a	n/a	DENIM	n/a	9	-1	[0, 0, 0]	n/a	catFR1	2	R1354E
76.47	1.633	77852	WORD	n/a	n/a	TEACHER	n/a	10	-1	[0, 0, 0]	n/a	catFR1	2	R1354E
78.103	1.096	79485	WORD_OFF	n/a	n/a	TEACHER	n/a	10	-1	[0, 0, 0]	n/a	catFR1	2	R1354E
79.199	1.621	80581	WORD	n/a	n/a	SECOND	n/a	11	-1	[0, 0, 0]	n/a	catFR1	2	R1354E
80.82	0.78	82202	WORD_OFF	n/a	n/a	SECOND	n/a	11	-1	[0, 0, 0]	n/a	catFR1	2	R1354E
81.6	1.638	82982	WORD	n/a	n/a	LEATHER	n/a	12	-1	[0, 0, 0]	n/a	catFR1	2	R1354E
83.238	0.0	84620	DISTRACT_START	n/a	n/a	n/a	n/a	-999	-1	[0, 0, 0]	n/a	catFR1	2	R1354E
83.238	0.0	84620	ENCODING_END	n/a	n/a	n/a	n/a	-999	-1	[0, 0, 0]	n/a	catFR1	2	R1354E
83.238	0.001	84620	WORD_OFF	n/a	n/a	LEATHER	n/a	12	-1	[0, 0, 0]	n/a	catFR1	2	R1354E
83.239	0.015	84621	START	n/a	n/a	n/a	n/a	-999	-1	[-999, -999, -999]	n/a	catFR1	2	R1354E
83.254	2.467	84636	PROB	2.436	n/a	n/a	n/a	-999	-1	[2, 2, 6]	10.0	catFR1	2	R1354E
85.721	1.584	87103	PROB	1.553	n/a	n/a	n/a	-999	-1	[8, 3, 1]	12.0	catFR1	2	R1354E
87.305	1.051	88686	PROB	1.019	n/a	n/a	n/a	-999	-1	[1, 4, 7]	12.0	catFR1	2	R1354E
88.356	1.549	89737	PROB	1.518	n/a	n/a	n/a	-999	-1	[2, 1, 6]	9.0	catFR1	2	R1354E
89.905	1.418	91286	PROB	1.394	n/a	n/a	n/a	-999	-1	[9, 6, 4]	19.0	catFR1	2	R1354E
91.323	1.599	92704	PROB	1.568	n/a	n/a	n/a	-999	-1	[7, 8, 3]	18.0	catFR1	2	R1354E
92.922	1.767	94303	PROB	1.744	n/a	n/a	n/a	-999	-1	[1, 2, 8]	11.0	catFR1	2	R1354E
94.689	1.702	96070	PROB	1.674	n/a	n/a	n/a	-999	-1	[9, 7, 1]	17.0	catFR1	2	R1354E
96.391	1.182	97772	PROB	1.155	n/a	n/a	n/a	-999	-1	[9, 1, 9]	19.0	catFR1	2	R1354E
97.573	1.818	98954	PROB	1.791	n/a	n/a	n/a	-999	-1	[1, 8, 7]	16.0	catFR1	2	R1354E
99.391	3.25	100772	PROB	3.219	n/a	n/a	n/a	-999	-1	[6, 3, 3]	12.0	catFR1	2	R1354E
102.641	2.834	104022	PROB	2.834	n/a	n/a	n/a	-999	-1	[5, 2, 9]	6.0	catFR1	2	R1354E
105.475	0.016	106856	STOP	n/a	n/a	n/a	n/a	-999	-1	[-999, -999, -999]	n/a	catFR1	2	R1354E
105.491	0.613	106872	DISTRACT_END	n/a	n/a	n/a	n/a	-999	-1	[0, 0, 0]	n/a	catFR1	2	R1354E
106.104	1.571	107485	RETRIEVAL_ORIENT_START	n/a	n/a	n/a	n/a	-999	-1	[0, 0, 0]	n/a	catFR1	2	R1354E
107.675	0.0	109056	RETRIEVAL_ORIENT_END	n/a	n/a	n/a	n/a	-999	-1	[0, 0, 0]	n/a	catFR1	2	R1354E
107.675	0.551	109056	REC_START	n/a	n/a	n/a	n/a	-999	-1	[0, 0, 0]	n/a	catFR1	2	R1354E
108.226	1.362	109607	REC_WORD	0.551	n/a	TEACHER	n/a	10	-1	[0, 0, 0]	n/a	catFR1	2	R1354E
109.588	1.526	110969	REC_WORD	1.913	n/a	DENIM	n/a	9	-1	[0, 0, 0]	n/a	catFR1	2	R1354E
111.114	1.287	112495	REC_WORD	3.439	n/a	HOUR	n/a	6	-1	[0, 0, 0]	n/a	catFR1	2	R1354E
112.401	3.207	113782	REC_WORD	4.726	n/a	MINUTE	n/a	7	-1	[0, 0, 0]	n/a	catFR1	2	R1354E
115.608	22.08	116988	REC_WORD_VV	7.933	n/a	<>	n/a	-999	-1	[0, 0, 0]	n/a	catFR1	2	R1354E
137.688	0.0	139068	REC_END	n/a	n/a	n/a	n/a	-999	-1	[0, 0, 0]	n/a	catFR1	2	R1354E
137.688	12.829	139068	PRACTICE_POST_INSTRUCT_START	n/a	n/a	n/a	n/a	-999	-1	[0, 0, 0]	n/a	catFR1	2	R1354E
150.517	0.0	151896	PRACTICE_POST_INSTRUCT_END	n/a	n/a	n/a	n/a	-999	-1	[0, 0, 0]	n/a	catFR1	2	R1354E
150.517	0.028	151896	TRIAL_END	n/a	n/a	n/a	n/a	-999	-1	[0, 0, 0]	n/a	catFR1	2	R1354E
150.545	0.0	151924	TRIAL_START	n/a	n/a	n/a	n/a	-999	1	[0, 0, 0]	n/a	catFR1	2	R1354E
150.545	0.0	151924	TRIAL	n/a	n/a	n/a	n/a	-999	1	[0, 0, 0]	n/a	catFR1	2	R1354E
150.545	2.171	151924	WAITING_START	n/a	n/a	n/a	n/a	-999	1	[0, 0, 0]	n/a	catFR1	2	R1354E
152.716	0.001	154095	WAITING_END	n/a	n/a	n/a	n/a	-999	1	[0, 0, 0]	n/a	catFR1	2	R1354E
152.717	10.428	154096	COUNTDOWN_START	n/a	n/a	n/a	n/a	-999	1	[0, 0, 0]	n/a	catFR1	2	R1354E
163.145	0.001	164524	COUNTDOWN_END	n/a	n/a	n/a	n/a	-999	1	[0, 0, 0]	n/a	catFR1	2	R1354E
163.146	1.139	164525	ORIENT_START	n/a	n/a	n/a	n/a	-999	1	[0, 0, 0]	n/a	catFR1	2	R1354E
164.285	0.0	165664	ORIENT_END	n/a	n/a	n/a	n/a	-999	1	[0, 0, 0]	n/a	catFR1	2	R1354E
164.285	0.976	165664	ENCODING_START	n/a	n/a	n/a	n/a	-999	1	[0, 0, 0]	n/a	catFR1	2	R1354E
165.261	1.624	166640	WORD	n/a	wordpools/wordpool_categorized_EN.txt	PEACH	Fruit	1	1	[0, 0, 0]	n/a	catFR1	2	R1354E
166.885	0.92	168264	WORD_OFF	n/a	n/a	PEACH	Fruit	1	1	[0, 0, 0]	n/a	catFR1	2	R1354E
167.805	1.632	169184	WORD	n/a	wordpools/wordpool_categorized_EN.txt	GRAPE	Fruit	2	1	[0, 0, 0]	n/a	catFR1	2	R1354E
169.437	0.908	170816	WORD_OFF	n/a	n/a	GRAPE	Fruit	2	1	[0, 0, 0]	n/a	catFR1	2	R1354E
170.345	1.625	171724	WORD	n/a	wordpools/wordpool_categorized_EN.txt	SPRUCE	Trees	3	1	[0, 0, 0]	n/a	catFR1	2	R1354E
171.97	0.815	173349	WORD_OFF	n/a	n/a	SPRUCE	Trees	3	1	[0, 0, 0]	n/a	catFR1	2	R1354E
172.785	1.619	174163	WORD	n/a	wordpools/wordpool_categorized_EN.txt	PINE	Trees	4	1	[0, 0, 0]	n/a	catFR1	2	R1354E
174.404	1.093	175782	WORD_OFF	n/a	n/a	PINE	Trees	4	1	[0, 0, 0]	n/a	catFR1	2	R1354E
175.497	1.607	176875	WORD	n/a	wordpools/wordpool_categorized_EN.txt	DRIZZLE	Weather	5	1	[0, 0, 0]	n/a	catFR1	2	R1354E
177.104	0.965	178482	WORD_OFF	n/a	n/a	DRIZZLE	Weather	5	1	[0, 0, 0]	n/a	catFR1	2	R1354E
178.069	1.635	179447	WORD	n/a	wordpools/wordpool_categorized_EN.txt	CLOUD	Weather	6	1	[0, 0, 0]	n/a	catFR1	2	R1354E
179.704	0.854	181082	WORD_OFF	n/a	n/a	CLOUD	Weather	6	1	[0, 0, 0]	n/a	catFR1	2	R1354E
180.558	1.63	181936	WORD	n/a	wordpools/wordpool_categorized_EN.txt	ORANGE	Fruit	7	1	[0, 0, 0]	n/a	catFR1	2	R1354E
182.188	1.131	183566	WORD_OFF	n/a	n/a	ORANGE	Fruit	7	1	[0, 0, 0]	n/a	catFR1	2	R1354E
183.319	1.636	184697	WORD	n/a	wordpools/wordpool_categorized_EN.txt	STRAWBERRY	Fruit	8	1	[0, 0, 0]	n/a	catFR1	2	R1354E
184.955	0.927	186333	WORD_OFF	n/a	n/a	STRAWBERRY	Fruit	8	1	[0, 0, 0]	n/a	catFR1	2	R1354E
185.882	1.624	187260	WORD	n/a	wordpools/wordpool_categorized_EN.txt	LIGHTNING	Weather	9	1	[0, 0, 0]	n/a	catFR1	2	R1354E
187.506	0.806	188884	WORD_OFF	n/a	n/a	LIGHTNING	Weather	9	1	[0, 0, 0]	n/a	catFR1	2	R1354E
188.312	1.627	189690	WORD	n/a	wordpools/wordpool_categorized_EN.txt	TORNADO	Weather	10	1	[0, 0, 0]	n/a	catFR1	2	R1354E
189.939	1.067	191317	WORD_OFF	n/a	n/a	TORNADO	Weather	10	1	[0, 0, 0]	n/a	catFR1	2	R1354E
191.006	1.634	192384	WORD	n/a	wordpools/wordpool_categorized_EN.txt	OAK	Trees	11	1	[0, 0, 0]	n/a	catFR1	2	R1354E
192.64	0.767	194018	WORD_OFF	n/a	n/a	OAK	Trees	11	1	[0, 0, 0]	n/a	catFR1	2	R1354E
193.407	1.633	194785	WORD	n/a	wordpools/wordpool_categorized_EN.txt	WILLOW	Trees	12	1	[0, 0, 0]	n/a	catFR1	2	R1354E
195.04	0.001	196418	WORD_OFF	n/a	n/a	WILLOW	Trees	12	1	[0, 0, 0]	n/a	catFR1	2	R1354E
195.041	0.0	196419	ENCODING_END	n/a	n/a	n/a	n/a	-999	1	[0, 0, 0]	n/a	catFR1	2	R1354E
195.041	0.0	196419	DISTRACT_START	n/a	n/a	n/a	n/a	-999	1	[0, 0, 0]	n/a	catFR1	2	R1354E
195.041	0.016	196419	START	n/a	n/a	n/a	n/a	-999	1	[-999, -999, -999]	n/a	catFR1	2	R1354E
195.057	1.8	196435	PROB	1.777	n/a	n/a	n/a	-999	1	[9, 9, 2]	20.0	catFR1	2	R1354E
196.857	1.234	198235	PROB	1.209	n/a	n/a	n/a	-999	1	[1, 8, 3]	12.0	catFR1	2	R1354E
198.091	1.033	199469	PROB	0.999	n/a	n/a	n/a	-999	1	[1, 1, 7]	9.0	catFR1	2	R1354E
199.124	1.318	200502	PROB	1.279	n/a	n/a	n/a	-999	1	[3, 9, 7]	19.0	catFR1	2	R1354E
200.442	1.033	201820	PROB	1.008	n/a	n/a	n/a	-999	1	[1, 4, 5]	10.0	catFR1	2	R1354E
201.475	1.166	202852	PROB	1.143	n/a	n/a	n/a	-999	1	[3, 5, 5]	13.0	catFR1	2	R1354E
202.641	1.201	204018	PROB	1.177	n/a	n/a	n/a	-999	1	[1, 5, 7]	13.0	catFR1	2	R1354E
203.842	1.15	205219	PROB	1.121	n/a	n/a	n/a	-999	1	[5, 4, 2]	11.0	catFR1	2	R1354E
204.992	1.167	206369	PROB	1.129	n/a	n/a	n/a	-999	1	[2, 2, 2]	6.0	catFR1	2	R1354E
206.159	2.0	207536	PROB	1.963	n/a	n/a	n/a	-999	1	[9, 9, 5]	13.0	catFR1	2	R1354E
208.159	1.334	209536	PROB	1.307	n/a	n/a	n/a	-999	1	[5, 1, 1]	7.0	catFR1	2	R1354E
209.493	1.851	210870	PROB	1.823	n/a	n/a	n/a	-999	1	[8, 3, 7]	18.0	catFR1	2	R1354E
211.344	1.683	212721	PROB	1.657	n/a	n/a	n/a	-999	1	[3, 7, 4]	14.0	catFR1	2	R1354E
213.027	1.351	214404	PROB	1.32	n/a	n/a	n/a	-999	1	[2, 2, 6]	10.0	catFR1	2	R1354E
214.378	1.001	215755	PROB	1.001	n/a	n/a	n/a	-999	1	[3, 3, 5]	11.0	catFR1	2	R1354E
215.379	0.016	216756	STOP	n/a	n/a	n/a	n/a	-999	1	[-999, -999, -999]	n/a	catFR1	2	R1354E
215.395	0.544	216772	DISTRACT_END	n/a	n/a	n/a	n/a	-999	1	[0, 0, 0]	n/a	catFR1	2	R1354E
215.939	1.622	217316	RETRIEVAL_ORIENT_START	n/a	n/a	n/a	n/a	-999	1	[0, 0, 0]	n/a	catFR1	2	R1354E
217.561	0.0	218938	RETRIEVAL_ORIENT_END	n/a	n/a	n/a	n/a	-999	1	[0, 0, 0]	n/a	catFR1	2	R1354E
217.561	0.599	218938	REC_START	n/a	n/a	n/a	n/a	-999	1	[0, 0, 0]	n/a	catFR1	2	R1354E
218.16	0.77	219537	REC_WORD	0.599	n/a	LIGHTNING	Weather	9	1	[0, 0, 0]	n/a	catFR1	2	R1354E
218.93	0.886	220307	REC_WORD	1.369	n/a	DRIZZLE	Weather	5	1	[0, 0, 0]	n/a	catFR1	2	R1354E
219.816	0.88	221193	REC_WORD	2.255	n/a	CLOUD	Weather	6	1	[0, 0, 0]	n/a	catFR1	2	R1354E
220.696	0.97	222073	REC_WORD	3.135	n/a	ORANGE	Fruit	7	1	[0, 0, 0]	n/a	catFR1	2	R1354E
221.666	0.795	223043	REC_WORD	4.105	n/a	PEACH	Fruit	1	1	[0, 0, 0]	n/a	catFR1	2	R1354E
222.461	1.0	223838	REC_WORD	4.9	n/a	STRAWBERRY	Fruit	8	1	[0, 0, 0]	n/a	catFR1	2	R1354E
223.461	4.087	224838	REC_WORD_VV	5.9	n/a	<>	n/a	-999	1	[0, 0, 0]	n/a	catFR1	2	R1354E
227.548	20.028	228925	REC_WORD	9.987	n/a	PINE	Trees	4	1	[0, 0, 0]	n/a	catFR1	2	R1354E
247.576	0.001	248952	REC_END	n/a	n/a	n/a	n/a	-999	1	[0, 0, 0]	n/a	catFR1	2	R1354E
247.577	0.025	248953	TRIAL_END	n/a	n/a	n/a	n/a	-999	1	[0, 0, 0]	n/a	catFR1	2	R1354E
247.602	0.0	248978	TRIAL_START	n/a	n/a	n/a	n/a	-999	2	[0, 0, 0]	n/a	catFR1	2	R1354E
247.602	0.001	248978	TRIAL	n/a	n/a	n/a	n/a	-999	2	[0, 0, 0]	n/a	catFR1	2	R1354E
247.603	26.819	248979	WAITING_START	n/a	n/a	n/a	n/a	-999	2	[0, 0, 0]	n/a	catFR1	2	R1354E
274.422	0.0	275797	WAITING_END	n/a	n/a	n/a	n/a	-999	2	[0, 0, 0]	n/a	catFR1	2	R1354E
274.422	10.428	275797	COUNTDOWN_START	n/a	n/a	n/a	n/a	-999	2	[0, 0, 0]	n/a	catFR1	2	R1354E
284.85	0.001	286225	COUNTDOWN_END	n/a	n/a	n/a	n/a	-999	2	[0, 0, 0]	n/a	catFR1	2	R1354E
284.851	1.055	286226	ORIENT_START	n/a	n/a	n/a	n/a	-999	2	[0, 0, 0]	n/a	catFR1	2	R1354E
285.906	0.001	287281	ORIENT_END	n/a	n/a	n/a	n/a	-999	2	[0, 0, 0]	n/a	catFR1	2	R1354E
285.907	0.797	287282	ENCODING_START	n/a	n/a	n/a	n/a	-999	2	[0, 0, 0]	n/a	catFR1	2	R1354E
286.704	1.62	288079	WORD	n/a	wordpools/wordpool_categorized_EN.txt	DESK	Furniture	1	2	[0, 0, 0]	n/a	catFR1	2	R1354E
288.324	0.785	289698	WORD_OFF	n/a	n/a	DESK	Furniture	1	2	[0, 0, 0]	n/a	catFR1	2	R1354E
289.109	1.631	290483	WORD	n/a	wordpools/wordpool_categorized_EN.txt	CHAIR	Furniture	2	2	[0, 0, 0]	n/a	catFR1	2	R1354E
290.74	0.988	292114	WORD_OFF	n/a	n/a	CHAIR	Furniture	2	2	[0, 0, 0]	n/a	catFR1	2	R1354E
291.728	1.613	293102	WORD	n/a	wordpools/wordpool_categorized_EN.txt	CRAB	OceanAnimals	3	2	[0, 0, 0]	n/a	catFR1	2	R1354E
293.341	1.054	294715	WORD_OFF	n/a	n/a	CRAB	OceanAnimals	3	2	[0, 0, 0]	n/a	catFR1	2	R1354E
294.395	1.63	295769	WORD	n/a	wordpools/wordpool_categorized_EN.txt	LOBSTER	OceanAnimals	4	2	[0, 0, 0]	n/a	catFR1	2	R1354E
296.025	1.088	297399	WORD_OFF	n/a	n/a	LOBSTER	OceanAnimals	4	2	[0, 0, 0]	n/a	catFR1	2	R1354E
297.113	1.629	298487	WORD	n/a	wordpools/wordpool_categorized_EN.txt	THUNDER	Weather	5	2	[0, 0, 0]	n/a	catFR1	2	R1354E
298.742	0.781	300116	WORD_OFF	n/a	n/a	THUNDER	Weather	5	2	[0, 0, 0]	n/a	catFR1	2	R1354E
299.523	1.636	300897	WORD	n/a	wordpools/wordpool_categorized_EN.txt	HURRICANE	Weather	6	2	[0, 0, 0]	n/a	catFR1	2	R1354E
301.159	0.841	302533	WORD_OFF	n/a	n/a	HURRICANE	Weather	6	2	[0, 0, 0]	n/a	catFR1	2	R1354E
302.0	1.626	303374	WORD	n/a	wordpools/wordpool_categorized_EN.txt	TABLE	Furniture	7	2	[0, 0, 0]	n/a	catFR1	2	R1354E
303.626	1.139	305000	WORD_OFF	n/a	n/a	TABLE	Furniture	7	2	[0, 0, 0]	n/a	catFR1	2	R1354E
304.765	1.629	306139	WORD	n/a	wordpools/wordpool_categorized_EN.txt	SHELF	Furniture	8	2	[0, 0, 0]	n/a	catFR1	2	R1354E
306.394	1.127	307768	WORD_OFF	n/a	n/a	SHELF	Furniture	8	2	[0, 0, 0]	n/a	catFR1	2	R1354E
307.521	1.623	308895	WORD	n/a	wordpools/wordpool_categorized_EN.txt	WHALE	OceanAnimals	9	2	[0, 0, 0]	n/a	catFR1	2	R1354E
309.144	0.94	310518	WORD_OFF	n/a	n/a	WHALE	OceanAnimals	9	2	[0, 0, 0]	n/a	catFR1	2	R1354E
310.084	1.627	311458	WORD	n/a	wordpools/wordpool_categorized_EN.txt	TURTLE	OceanAnimals	10	2	[0, 0, 0]	n/a	catFR1	2	R1354E
311.711	0.889	313085	WORD_OFF	n/a	n/a	TURTLE	OceanAnimals	10	2	[0, 0, 0]	n/a	catFR1	2	R1354E
312.6	1.628	313974	WORD	n/a	wordpools/wordpool_categorized_EN.txt	WIND	Weather	11	2	[0, 0, 0]	n/a	catFR1	2	R1354E
314.228	0.945	315602	WORD_OFF	n/a	n/a	WIND	Weather	11	2	[0, 0, 0]	n/a	catFR1	2	R1354E
315.173	1.638	316547	WORD	n/a	wordpools/wordpool_categorized_EN.txt	THUNDERSTORM	Weather	12	2	[0, 0, 0]	n/a	catFR1	2	R1354E
316.811	0.001	318184	WORD_OFF	n/a	n/a	THUNDERSTORM	Weather	12	2	[0, 0, 0]	n/a	catFR1	2	R1354E
316.812	0.0	318185	ENCODING_END	n/a	n/a	n/a	n/a	-999	2	[0, 0, 0]	n/a	catFR1	2	R1354E
316.812	0.0	318185	DISTRACT_START	n/a	n/a	n/a	n/a	-999	2	[0, 0, 0]	n/a	catFR1	2	R1354E
316.812	0.016	318185	START	n/a	n/a	n/a	n/a	-999	2	[-999, -999, -999]	n/a	catFR1	2	R1354E
316.828	1.867	318201	PROB	1.842	n/a	n/a	n/a	-999	2	[3, 3, 4]	10.0	catFR1	2	R1354E
318.695	1.434	320068	PROB	1.399	n/a	n/a	n/a	-999	2	[8, 3, 2]	13.0	catFR1	2	R1354E
320.129	1.8	321502	PROB	1.765	n/a	n/a	n/a	-999	2	[9, 5, 3]	17.0	catFR1	2	R1354E
321.929	1.167	323302	PROB	1.141	n/a	n/a	n/a	-999	2	[5, 6, 2]	13.0	catFR1	2	R1354E
323.096	2.383	324469	PROB	2.352	n/a	n/a	n/a	-999	2	[8, 5, 3]	16.0	catFR1	2	R1354E
325.479	1.717	326852	PROB	1.687	n/a	n/a	n/a	-999	2	[7, 2, 9]	18.0	catFR1	2	R1354E
327.196	2.351	328569	PROB	2.322	n/a	n/a	n/a	-999	2	[8, 1, 3]	12.0	catFR1	2	R1354E
329.547	1.801	330920	PROB	1.773	n/a	n/a	n/a	-999	2	[5, 2, 8]	15.0	catFR1	2	R1354E
331.348	1.699	332721	PROB	1.675	n/a	n/a	n/a	-999	2	[8, 7, 3]	18.0	catFR1	2	R1354E
333.047	1.352	334420	PROB	1.313	n/a	n/a	n/a	-999	2	[3, 1, 3]	7.0	catFR1	2	R1354E
334.399	1.649	335772	PROB	1.623	n/a	n/a	n/a	-999	2	[7, 5, 5]	17.0	catFR1	2	R1354E
336.048	2.142	337421	PROB	2.142	n/a	n/a	n/a	-999	2	[7, 9, 7]	23.0	catFR1	2	R1354E
338.19	0.009	339563	STOP	n/a	n/a	n/a	n/a	-999	2	[-999, -999, -999]	n/a	catFR1	2	R1354E
338.199	0.525	339572	DISTRACT_END	n/a	n/a	n/a	n/a	-999	2	[0, 0, 0]	n/a	catFR1	2	R1354E
338.724	1.626	340097	RETRIEVAL_ORIENT_START	n/a	n/a	n/a	n/a	-999	2	[0, 0, 0]	n/a	catFR1	2	R1354E
340.35	0.0	341723	RETRIEVAL_ORIENT_END	n/a	n/a	n/a	n/a	-999	2	[0, 0, 0]	n/a	catFR1	2	R1354E
340.35	0.0	341723	REC_START	n/a	n/a	n/a	n/a	-999	2	[0, 0, 0]	n/a	catFR1	2	R1354E
340.35	1.206	341723	REC_WORD	0.0	n/a	WIND	Weather	11	2	[0, 0, 0]	n/a	catFR1	2	R1354E
341.556	1.685	342929	REC_WORD	1.206	n/a	THUNDERSTORM	Weather	12	2	[0, 0, 0]	n/a	catFR1	2	R1354E
343.241	11.786	344614	REC_WORD	2.891	n/a	TORNADO	Weather	-999	2	[0, 0, 0]	n/a	catFR1	2	R1354E
355.027	2.508	356399	REC_WORD	14.677	n/a	LOBSTER	OceanAnimals	4	2	[0, 0, 0]	n/a	catFR1	2	R1354E
357.535	2.542	358907	REC_WORD	17.185	n/a	CRAB	OceanAnimals	3	2	[0, 0, 0]	n/a	catFR1	2	R1354E
360.077	1.0	361449	REC_WORD	19.727	n/a	SHELLFISH	n/a	-999	2	[0, 0, 0]	n/a	catFR1	2	R1354E
361.077	9.285	362449	REC_WORD_VV	20.727	n/a	<>	n/a	-999	2	[0, 0, 0]	n/a	catFR1	2	R1354E
370.362	0.0	371734	REC_END	n/a	n/a	n/a	n/a	-999	2	[0, 0, 0]	n/a	catFR1	2	R1354E
370.362	0.026	371734	TRIAL_END	n/a	n/a	n/a	n/a	-999	2	[0, 0, 0]	n/a	catFR1	2	R1354E
370.388	0.001	371760	TRIAL_START	n/a	n/a	n/a	n/a	-999	3	[0, 0, 0]	n/a	catFR1	2	R1354E
370.389	0.0	371761	WAITING_START	n/a	n/a	n/a	n/a	-999	3	[0, 0, 0]	n/a	catFR1	2	R1354E
370.389	3.833	371761	TRIAL	n/a	n/a	n/a	n/a	-999	3	[0, 0, 0]	n/a	catFR1	2	R1354E
374.222	0.0	375593	WAITING_END	n/a	n/a	n/a	n/a	-999	3	[0, 0, 0]	n/a	catFR1	2	R1354E
374.222	10.429	375593	COUNTDOWN_START	n/a	n/a	n/a	n/a	-999	3	[0, 0, 0]	n/a	catFR1	2	R1354E
384.651	0.0	386022	COUNTDOWN_END	n/a	n/a	n/a	n/a	-999	3	[0, 0, 0]	n/a	catFR1	2	R1354E
384.651	1.206	386022	ORIENT_START	n/a	n/a	n/a	n/a	-999	3	[0, 0, 0]	n/a	catFR1	2	R1354E
385.857	0.0	387228	ORIENT_END	n/a	n/a	n/a	n/a	-999	3	[0, 0, 0]	n/a	catFR1	2	R1354E
385.857	0.838	387228	ENCODING_START	n/a	n/a	n/a	n/a	-999	3	[0, 0, 0]	n/a	catFR1	2	R1354E
386.695	1.63	388066	WORD	n/a	wordpools/wordpool_categorized_EN.txt	MOUSSE	Desserts	1	3	[0, 0, 0]	n/a	catFR1	2	R1354E
388.325	1.077	389696	WORD_OFF	n/a	n/a	MOUSSE	Desserts	1	3	[0, 0, 0]	n/a	catFR1	2	R1354E
389.402	1.623	390773	WORD	n/a	wordpools/wordpool_categorized_EN.txt	PUDDING	Desserts	2	3	[0, 0, 0]	n/a	catFR1	2	R1354E
391.025	0.889	392396	WORD_OFF	n/a	n/a	PUDDING	Desserts	2	3	[0, 0, 0]	n/a	catFR1	2	R1354E
391.914	1.627	393285	WORD	n/a	wordpools/wordpool_categorized_EN.txt	HEN	FarmAnimals	3	3	[0, 0, 0]	n/a	catFR1	2	R1354E
393.541	0.946	394912	WORD_OFF	n/a	n/a	HEN	FarmAnimals	3	3	[0, 0, 0]	n/a	catFR1	2	R1354E
394.487	1.622	395858	WORD	n/a	wordpools/wordpool_categorized_EN.txt	ROOSTER	FarmAnimals	4	3	[0, 0, 0]	n/a	catFR1	2	R1354E
396.109	1.022	397480	WORD_OFF	n/a	n/a	ROOSTER	FarmAnimals	4	3	[0, 0, 0]	n/a	catFR1	2	R1354E
397.131	1.628	398502	WORD	n/a	wordpools/wordpool_categorized_EN.txt	ORGAN	Instruments	5	3	[0, 0, 0]	n/a	catFR1	2	R1354E
398.759	1.106	400130	WORD_OFF	n/a	n/a	ORGAN	Instruments	5	3	[0, 0, 0]	n/a	catFR1	2	R1354E
399.865	1.628	401236	WORD	n/a	wordpools/wordpool_categorized_EN.txt	CELLO	Instruments	6	3	[0, 0, 0]	n/a	catFR1	2	R1354E
401.493	0.826	402863	WORD_OFF	n/a	n/a	CELLO	Instruments	6	3	[0, 0, 0]	n/a	catFR1	2	R1354E
402.319	1.624	403689	WORD	n/a	wordpools/wordpool_categorized_EN.txt	CUPCAKE	Desserts	7	3	[0, 0, 0]	n/a	catFR1	2	R1354E
403.943	1.146	405313	WORD_OFF	n/a	n/a	CUPCAKE	Desserts	7	3	[0, 0, 0]	n/a	catFR1	2	R1354E
405.089	1.621	406459	WORD	n/a	wordpools/wordpool_categorized_EN.txt	CAKE	Desserts	8	3	[0, 0, 0]	n/a	catFR1	2	R1354E
406.71	0.893	408080	WORD_OFF	n/a	n/a	CAKE	Desserts	8	3	[0, 0, 0]	n/a	catFR1	2	R1354E
407.603	1.624	408973	WORD	n/a	wordpools/wordpool_categorized_EN.txt	TRUMPET	Instruments	9	3	[0, 0, 0]	n/a	catFR1	2	R1354E
409.227	0.759	410597	WORD_OFF	n/a	n/a	TRUMPET	Instruments	9	3	[0, 0, 0]	n/a	catFR1	2	R1354E
409.986	1.625	411356	WORD	n/a	wordpools/wordpool_categorized_EN.txt	TROMBONE	Instruments	10	3	[0, 0, 0]	n/a	catFR1	2	R1354E
411.611	0.888	412981	WORD_OFF	n/a	n/a	TROMBONE	Instruments	10	3	[0, 0, 0]	n/a	catFR1	2	R1354E
412.499	1.629	413869	WORD	n/a	wordpools/wordpool_categorized_EN.txt	LAMB	FarmAnimals	11	3	[0, 0, 0]	n/a	catFR1	2	R1354E
414.128	0.999	415498	WORD_OFF	n/a	n/a	LAMB	FarmAnimals	11	3	[0, 0, 0]	n/a	catFR1	2	R1354E
415.127	1.635	416497	WORD	n/a	wordpools/wordpool_categorized_EN.txt	CHICKEN	FarmAnimals	12	3	[0, 0, 0]	n/a	catFR1	2	R1354E
416.762	0.001	418132	WORD_OFF	n/a	n/a	CHICKEN	FarmAnimals	12	3	[0, 0, 0]	n/a	catFR1	2	R1354E
416.763	0.0	418133	ENCODING_END	n/a	n/a	n/a	n/a	-999	3	[0, 0, 0]	n/a	catFR1	2	R1354E
416.763	0.0	418133	DISTRACT_START	n/a	n/a	n/a	n/a	-999	3	[0, 0, 0]	n/a	catFR1	2	R1354E
416.763	0.016	418133	START	n/a	n/a	n/a	n/a	-999	3	[-999, -999, -999]	n/a	catFR1	2	R1354E
416.779	2.484	418149	PROB	2.449	n/a	n/a	n/a	-999	3	[5, 9, 8]	2.0	catFR1	2	R1354E
419.263	2.25	420633	PROB	2.222	n/a	n/a	n/a	-999	3	[6, 2, 7]	15.0	catFR1	2	R1354E
421.513	1.283	422883	PROB	1.26	n/a	n/a	n/a	-999	3	[1, 6, 2]	9.0	catFR1	2	R1354E
422.796	1.317	424166	PROB	1.288	n/a	n/a	n/a	-999	3	[4, 1, 6]	11.0	catFR1	2	R1354E
424.113	2.501	425483	PROB	2.468	n/a	n/a	n/a	-999	3	[5, 9, 8]	22.0	catFR1	2	R1354E
426.614	1.1	427984	PROB	1.07	n/a	n/a	n/a	-999	3	[3, 3, 3]	9.0	catFR1	2	R1354E
427.714	1.583	429084	PROB	1.547	n/a	n/a	n/a	-999	3	[4, 8, 5]	17.0	catFR1	2	R1354E
429.297	1.451	430667	PROB	1.42	n/a	n/a	n/a	-999	3	[9, 8, 2]	19.0	catFR1	2	R1354E
430.748	1.35	432117	PROB	1.32	n/a	n/a	n/a	-999	3	[7, 3, 8]	18.0	catFR1	2	R1354E
432.098	1.367	433467	PROB	1.332	n/a	n/a	n/a	-999	3	[7, 1, 3]	11.0	catFR1	2	R1354E
433.465	1.317	434834	PROB	1.283	n/a	n/a	n/a	-999	3	[9, 7, 3]	19.0	catFR1	2	R1354E
434.782	1.967	436151	PROB	1.967	n/a	n/a	n/a	-999	3	[4, 5, 6]	15.0	catFR1	2	R1354E
436.749	0.017	438118	STOP	n/a	n/a	n/a	n/a	-999	3	[-999, -999, -999]	n/a	catFR1	2	R1354E
436.766	0.589	438135	DISTRACT_END	n/a	n/a	n/a	n/a	-999	3	[0, 0, 0]	n/a	catFR1	2	R1354E
437.355	1.694	438724	RETRIEVAL_ORIENT_START	n/a	n/a	n/a	n/a	-999	3	[0, 0, 0]	n/a	catFR1	2	R1354E
439.049	0.001	440418	RETRIEVAL_ORIENT_END	n/a	n/a	n/a	n/a	-999	3	[0, 0, 0]	n/a	catFR1	2	R1354E
439.05	0.0	440419	REC_WORD	0.0	n/a	LAMB	FarmAnimals	11	3	[0, 0, 0]	n/a	catFR1	2	R1354E
439.05	4.739	440419	REC_START	n/a	n/a	n/a	n/a	-999	3	[0, 0, 0]	n/a	catFR1	2	R1354E
443.789	25.272	445158	REC_WORD	4.739	n/a	ROOSTER	FarmAnimals	4	3	[0, 0, 0]	n/a	catFR1	2	R1354E
469.061	0.001	470429	REC_END	n/a	n/a	n/a	n/a	-999	3	[0, 0, 0]	n/a	catFR1	2	R1354E
469.062	0.029	470430	TRIAL_END	n/a	n/a	n/a	n/a	-999	3	[0, 0, 0]	n/a	catFR1	2	R1354E
469.091	0.001	470459	TRIAL_START	n/a	n/a	n/a	n/a	-999	4	[0, 0, 0]	n/a	catFR1	2	R1354E
469.092	0.0	470460	TRIAL	n/a	n/a	n/a	n/a	-999	4	[0, 0, 0]	n/a	catFR1	2	R1354E
469.092	2.314	470460	WAITING_START	n/a	n/a	n/a	n/a	-999	4	[0, 0, 0]	n/a	catFR1	2	R1354E
471.406	0.0	472774	COUNTDOWN_START	n/a	n/a	n/a	n/a	-999	4	[0, 0, 0]	n/a	catFR1	2	R1354E
471.406	10.43	472774	WAITING_END	n/a	n/a	n/a	n/a	-999	4	[0, 0, 0]	n/a	catFR1	2	R1354E
481.836	0.0	483204	COUNTDOWN_END	n/a	n/a	n/a	n/a	-999	4	[0, 0, 0]	n/a	catFR1	2	R1354E
481.836	1.071	483204	ORIENT_START	n/a	n/a	n/a	n/a	-999	4	[0, 0, 0]	n/a	catFR1	2	R1354E
482.907	0.0	484275	ORIENT_END	n/a	n/a	n/a	n/a	-999	4	[0, 0, 0]	n/a	catFR1	2	R1354E
482.907	1.017	484275	ENCODING_START	n/a	n/a	n/a	n/a	-999	4	[0, 0, 0]	n/a	catFR1	2	R1354E
483.924	1.634	485292	WORD	n/a	wordpools/wordpool_categorized_EN.txt	PIGEON	Birds	1	4	[0, 0, 0]	n/a	catFR1	2	R1354E
485.558	0.805	486926	WORD_OFF	n/a	n/a	PIGEON	Birds	1	4	[0, 0, 0]	n/a	catFR1	2	R1354E
486.363	1.628	487731	WORD	n/a	wordpools/wordpool_categorized_EN.txt	SEAGULL	Birds	2	4	[0, 0, 0]	n/a	catFR1	2	R1354E
487.991	1.066	489358	WORD_OFF	n/a	n/a	SEAGULL	Birds	2	4	[0, 0, 0]	n/a	catFR1	2	R1354E
489.057	1.635	490424	WORD	n/a	wordpools/wordpool_categorized_EN.txt	COBBLER	Desserts	3	4	[0, 0, 0]	n/a	catFR1	2	R1354E
490.692	1.073	492059	WORD_OFF	n/a	n/a	COBBLER	Desserts	3	4	[0, 0, 0]	n/a	catFR1	2	R1354E
491.765	1.628	493132	WORD	n/a	wordpools/wordpool_categorized_EN.txt	PIE	Desserts	4	4	[0, 0, 0]	n/a	catFR1	2	R1354E
493.393	0.824	494760	WORD_OFF	n/a	n/a	PIE	Desserts	4	4	[0, 0, 0]	n/a	catFR1	2	R1354E
494.217	1.626	495584	WORD	n/a	wordpools/wordpool_categorized_EN.txt	DAFFODIL	Flowers	5	4	[0, 0, 0]	n/a	catFR1	2	R1354E
495.843	0.775	497210	WORD_OFF	n/a	n/a	DAFFODIL	Flowers	5	4	[0, 0, 0]	n/a	catFR1	2	R1354E
496.618	1.625	497985	WORD	n/a	wordpools/wordpool_categorized_EN.txt	DAISY	Flowers	6	4	[0, 0, 0]	n/a	catFR1	2	R1354E
498.243	0.892	499610	WORD_OFF	n/a	n/a	DAISY	Flowers	6	4	[0, 0, 0]	n/a	catFR1	2	R1354E
499.135	1.625	500502	WORD	n/a	wordpools/wordpool_categorized_EN.txt	PASTRY	Desserts	7	4	[0, 0, 0]	n/a	catFR1	2	R1354E
500.76	0.951	502127	WORD_OFF	n/a	n/a	PASTRY	Desserts	7	4	[0, 0, 0]	n/a	catFR1	2	R1354E
501.711	1.634	503078	WORD	n/a	wordpools/wordpool_categorized_EN.txt	CHEESECAKE	Desserts	8	4	[0, 0, 0]	n/a	catFR1	2	R1354E
503.345	1.015	504712	WORD_OFF	n/a	n/a	CHEESECAKE	Desserts	8	4	[0, 0, 0]	n/a	catFR1	2	R1354E
504.36	1.634	505727	WORD	n/a	wordpools/wordpool_categorized_EN.txt	BLUEBIRD	Birds	9	4	[0, 0, 0]	n/a	catFR1	2	R1354E
505.994	0.794	507361	WORD_OFF	n/a	n/a	BLUEBIRD	Birds	9	4	[0, 0, 0]	n/a	catFR1	2	R1354E
506.788	1.608	508155	WORD	n/a	wordpools/wordpool_categorized_EN.txt	CROW	Birds	10	4	[0, 0, 0]	n/a	catFR1	2	R1354E
508.396	0.837	509763	WORD_OFF	n/a	n/a	CROW	Birds	10	4	[0, 0, 0]	n/a	catFR1	2	R1354E
509.233	1.629	510600	WORD	n/a	wordpools/wordpool_categorized_EN.txt	LILY	Flowers	11	4	[0, 0, 0]	n/a	catFR1	2	R1354E
510.862	1.087	512229	WORD_OFF	n/a	n/a	LILY	Flowers	11	4	[0, 0, 0]	n/a	catFR1	2	R1354E
511.949	1.63	513316	WORD	n/a	wordpools/wordpool_categorized_EN.txt	TULIP	Flowers	12	4	[0, 0, 0]	n/a	catFR1	2	R1354E
513.579	0.0	514946	WORD_OFF	n/a	n/a	TULIP	Flowers	12	4	[0, 0, 0]	n/a	catFR1	2	R1354E
513.579	0.001	514946	ENCODING_END	n/a	n/a	n/a	n/a	-999	4	[0, 0, 0]	n/a	catFR1	2	R1354E
513.58	0.0	514947	DISTRACT_START	n/a	n/a	n/a	n/a	-999	4	[0, 0, 0]	n/a	catFR1	2	R1354E
513.58	0.015	514947	START	n/a	n/a	n/a	n/a	-999	4	[-999, -999, -999]	n/a	catFR1	2	R1354E
513.595	2.451	514962	PROB	2.415	n/a	n/a	n/a	-999	4	[2, 7, 7]	16.0	catFR1	2	R1354E
516.046	1.784	517412	PROB	1.747	n/a	n/a	n/a	-999	4	[8, 3, 7]	18.0	catFR1	2	R1354E
517.83	1.551	519196	PROB	1.516	n/a	n/a	n/a	-999	4	[1, 3, 5]	6.0	catFR1	2	R1354E
519.381	1.116	520747	PROB	1.092	n/a	n/a	n/a	-999	4	[1, 1, 1]	3.0	catFR1	2	R1354E
520.497	1.667	521863	PROB	1.632	n/a	n/a	n/a	-999	4	[7, 7, 9]	23.0	catFR1	2	R1354E
522.164	1.617	523530	PROB	1.589	n/a	n/a	n/a	-999	4	[2, 1, 4]	7.0	catFR1	2	R1354E
523.781	1.667	525147	PROB	1.645	n/a	n/a	n/a	-999	4	[3, 6, 6]	15.0	catFR1	2	R1354E
525.448	2.0	526814	PROB	1.97	n/a	n/a	n/a	-999	4	[5, 6, 5]	16.0	catFR1	2	R1354E
527.448	1.985	528814	PROB	1.947	n/a	n/a	n/a	-999	4	[4, 3, 5]	13.0	catFR1	2	R1354E
529.433	1.149	530799	PROB	1.12	n/a	n/a	n/a	-999	4	[1, 1, 3]	5.0	catFR1	2	R1354E
530.582	1.751	531948	PROB	1.723	n/a	n/a	n/a	-999	4	[7, 9, 1]	17.0	catFR1	2	R1354E
532.333	1.956	533699	PROB	1.956	n/a	n/a	n/a	-999	4	[5, 7, 8]	20.0	catFR1	2	R1354E
534.289	0.01	535655	STOP	n/a	n/a	n/a	n/a	-999	4	[-999, -999, -999]	n/a	catFR1	2	R1354E
534.299	0.689	535665	DISTRACT_END	n/a	n/a	n/a	n/a	-999	4	[0, 0, 0]	n/a	catFR1	2	R1354E
534.988	1.678	536354	RETRIEVAL_ORIENT_START	n/a	n/a	n/a	n/a	-999	4	[0, 0, 0]	n/a	catFR1	2	R1354E
536.666	0.001	538032	RETRIEVAL_ORIENT_END	n/a	n/a	n/a	n/a	-999	4	[0, 0, 0]	n/a	catFR1	2	R1354E
536.667	0.0	538033	REC_START	n/a	n/a	n/a	n/a	-999	4	[0, 0, 0]	n/a	catFR1	2	R1354E
536.667	1.179	538033	REC_WORD	0.0	n/a	LILY	Flowers	11	4	[0, 0, 0]	n/a	catFR1	2	R1354E
537.846	2.247	539212	REC_WORD	1.179	n/a	TULIP	Flowers	12	4	[0, 0, 0]	n/a	catFR1	2	R1354E
540.093	2.033	541459	REC_WORD	3.426	n/a	DAISY	Flowers	6	4	[0, 0, 0]	n/a	catFR1	2	R1354E
542.126	6.946	543492	REC_WORD	5.459	n/a	COBBLER	Desserts	3	4	[0, 0, 0]	n/a	catFR1	2	R1354E
549.072	17.607	550437	REC_WORD	12.405	n/a	TULIP	Flowers	12	4	[0, 0, 0]	n/a	catFR1	2	R1354E
566.679	0.0	568044	REC_END	n/a	n/a	n/a	n/a	-999	4	[0, 0, 0]	n/a	catFR1	2	R1354E
566.679	0.026	568044	TRIAL_END	n/a	n/a	n/a	n/a	-999	4	[0, 0, 0]	n/a	catFR1	2	R1354E
566.705	0.0	568070	TRIAL_START	n/a	n/a	n/a	n/a	-999	5	[0, 0, 0]	n/a	catFR1	2	R1354E
566.705	0.001	568070	TRIAL	n/a	n/a	n/a	n/a	-999	5	[0, 0, 0]	n/a	catFR1	2	R1354E
566.706	23.12	568071	WAITING_START	n/a	n/a	n/a	n/a	-999	5	[0, 0, 0]	n/a	catFR1	2	R1354E
589.826	0.0	591190	WAITING_END	n/a	n/a	n/a	n/a	-999	5	[0, 0, 0]	n/a	catFR1	2	R1354E
589.826	10.429	591190	COUNTDOWN_START	n/a	n/a	n/a	n/a	-999	5	[0, 0, 0]	n/a	catFR1	2	R1354E
600.255	0.0	601619	ORIENT_START	n/a	n/a	n/a	n/a	-999	5	[0, 0, 0]	n/a	catFR1	2	R1354E
600.255	1.09	601619	COUNTDOWN_END	n/a	n/a	n/a	n/a	-999	5	[0, 0, 0]	n/a	catFR1	2	R1354E
601.345	0.001	602708	ORIENT_END	n/a	n/a	n/a	n/a	-999	5	[0, 0, 0]	n/a	catFR1	2	R1354E
601.346	1.058	602709	ENCODING_START	n/a	n/a	n/a	n/a	-999	5	[0, 0, 0]	n/a	catFR1	2	R1354E
602.404	1.624	603767	WORD	n/a	wordpools/wordpool_categorized_EN.txt	KNIFE	KitchenTools	1	5	[0, 0, 0]	n/a	catFR1	2	R1354E
604.028	1.08	605391	WORD_OFF	n/a	n/a	KNIFE	KitchenTools	1	5	[0, 0, 0]	n/a	catFR1	2	R1354E
605.108	1.637	606471	WORD	n/a	wordpools/wordpool_categorized_EN.txt	SPATULA	KitchenTools	2	5	[0, 0, 0]	n/a	catFR1	2	R1354E
606.745	0.919	608108	WORD_OFF	n/a	n/a	SPATULA	KitchenTools	2	5	[0, 0, 0]	n/a	catFR1	2	R1354E
607.664	1.632	609027	WORD	n/a	wordpools/wordpool_categorized_EN.txt	RATCHET	Tools	3	5	[0, 0, 0]	n/a	catFR1	2	R1354E
609.296	1.015	610659	WORD_OFF	n/a	n/a	RATCHET	Tools	3	5	[0, 0, 0]	n/a	catFR1	2	R1354E
610.311	1.635	611674	WORD	n/a	wordpools/wordpool_categorized_EN.txt	HAMMER	Tools	4	5	[0, 0, 0]	n/a	catFR1	2	R1354E
611.946	0.796	613309	WORD_OFF	n/a	n/a	HAMMER	Tools	4	5	[0, 0, 0]	n/a	catFR1	2	R1354E
612.742	1.605	614105	WORD	n/a	wordpools/wordpool_categorized_EN.txt	ELEPHANT	Zoo	5	5	[0, 0, 0]	n/a	catFR1	2	R1354E
614.347	1.035	615710	WORD_OFF	n/a	n/a	ELEPHANT	Zoo	5	5	[0, 0, 0]	n/a	catFR1	2	R1354E
615.382	1.632	616745	WORD	n/a	wordpools/wordpool_categorized_EN.txt	CHIMPANZEE	Zoo	6	5	[0, 0, 0]	n/a	catFR1	2	R1354E
617.014	1.061	618377	WORD_OFF	n/a	n/a	CHIMPANZEE	Zoo	6	5	[0, 0, 0]	n/a	catFR1	2	R1354E
618.075	1.623	619438	WORD	n/a	wordpools/wordpool_categorized_EN.txt	LADLE	KitchenTools	7	5	[0, 0, 0]	n/a	catFR1	2	R1354E
619.698	0.988	621061	WORD_OFF	n/a	n/a	LADLE	KitchenTools	7	5	[0, 0, 0]	n/a	catFR1	2	R1354E
620.686	1.63	622049	WORD	n/a	wordpools/wordpool_categorized_EN.txt	PEELER	KitchenTools	8	5	[0, 0, 0]	n/a	catFR1	2	R1354E
622.316	0.89	623679	WORD_OFF	n/a	n/a	PEELER	KitchenTools	8	5	[0, 0, 0]	n/a	catFR1	2	R1354E
623.206	1.626	624569	WORD	n/a	wordpools/wordpool_categorized_EN.txt	MONKEY	Zoo	9	5	[0, 0, 0]	n/a	catFR1	2	R1354E
624.832	0.971	626195	WORD_OFF	n/a	n/a	MONKEY	Zoo	9	5	[0, 0, 0]	n/a	catFR1	2	R1354E
625.803	1.63	627166	WORD	n/a	wordpools/wordpool_categorized_EN.txt	PANDA	Zoo	10	5	[0, 0, 0]	n/a	catFR1	2	R1354E
627.433	1.021	628796	WORD_OFF	n/a	n/a	PANDA	Zoo	10	5	[0, 0, 0]	n/a	catFR1	2	R1354E
628.454	1.629	629817	WORD	n/a	wordpools/wordpool_categorized_EN.txt	PLIERS	Tools	11	5	[0, 0, 0]	n/a	catFR1	2	R1354E
630.083	1.127	631445	WORD_OFF	n/a	n/a	PLIERS	Tools	11	5	[0, 0, 0]	n/a	catFR1	2	R1354E
631.21	1.623	632572	WORD	n/a	wordpools/wordpool_categorized_EN.txt	DRILL	Tools	12	5	[0, 0, 0]	n/a	catFR1	2	R1354E
632.833	0.001	634195	WORD_OFF	n/a	n/a	DRILL	Tools	12	5	[0, 0, 0]	n/a	catFR1	2	R1354E
632.834	0.0	634196	DISTRACT_START	n/a	n/a	n/a	n/a	-999	5	[0, 0, 0]	n/a	catFR1	2	R1354E
632.834	0.0	634196	ENCODING_END	n/a	n/a	n/a	n/a	-999	5	[0, 0, 0]	n/a	catFR1	2	R1354E
632.834	0.016	634196	START	n/a	n/a	n/a	n/a	-999	5	[-999, -999, -999]	n/a	catFR1	2	R1354E
632.85	2.2	634212	PROB	2.172	n/a	n/a	n/a	-999	5	[8, 6, 1]	15.0	catFR1	2	R1354E
635.05	1.834	636412	PROB	1.795	n/a	n/a	n/a	-999	5	[9, 3, 8]	20.0	catFR1	2	R1354E
636.884	2.133	638246	PROB	2.097	n/a	n/a	n/a	-999	5	[2, 1, 4]	7.0	catFR1	2	R1354E
639.017	1.801	640379	PROB	1.773	n/a	n/a	n/a	-999	5	[8, 3, 9]	20.0	catFR1	2	R1354E
640.818	1.367	642180	PROB	1.339	n/a	n/a	n/a	-999	5	[4, 2, 2]	8.0	catFR1	2	R1354E
642.185	1.201	643547	PROB	1.166	n/a	n/a	n/a	-999	5	[3, 1, 4]	8.0	catFR1	2	R1354E
643.386	2.017	644748	PROB	1.98	n/a	n/a	n/a	-999	5	[7, 4, 5]	16.0	catFR1	2	R1354E
645.403	1.566	646765	PROB	1.54	n/a	n/a	n/a	-999	5	[2, 7, 4]	13.0	catFR1	2	R1354E
646.969	1.2	648331	PROB	1.173	n/a	n/a	n/a	-999	5	[4, 1, 8]	13.0	catFR1	2	R1354E
648.169	1.684	649531	PROB	1.653	n/a	n/a	n/a	-999	5	[9, 8, 5]	22.0	catFR1	2	R1354E
649.853	1.733	651215	PROB	1.704	n/a	n/a	n/a	-999	5	[5, 7, 6]	18.0	catFR1	2	R1354E
651.586	1.134	652948	PROB	1.108	n/a	n/a	n/a	-999	5	[1, 6, 1]	8.0	catFR1	2	R1354E
652.72	1.046	654082	PROB	1.046	n/a	n/a	n/a	-999	5	[1, 9, 1]	11.0	catFR1	2	R1354E
653.766	0.021	655128	STOP	n/a	n/a	n/a	n/a	-999	5	[-999, -999, -999]	n/a	catFR1	2	R1354E
653.787	0.677	655149	DISTRACT_END	n/a	n/a	n/a	n/a	-999	5	[0, 0, 0]	n/a	catFR1	2	R1354E
654.464	1.657	655826	RETRIEVAL_ORIENT_START	n/a	n/a	n/a	n/a	-999	5	[0, 0, 0]	n/a	catFR1	2	R1354E
656.121	0.0	657483	RETRIEVAL_ORIENT_END	n/a	n/a	n/a	n/a	-999	5	[0, 0, 0]	n/a	catFR1	2	R1354E
656.121	0.245	657483	REC_START	n/a	n/a	n/a	n/a	-999	5	[0, 0, 0]	n/a	catFR1	2	R1354E
656.366	1.275	657728	REC_WORD	0.245	n/a	PEELER	KitchenTools	8	5	[0, 0, 0]	n/a	catFR1	2	R1354E
657.641	1.608	659002	REC_WORD	1.52	n/a	SPATULA	KitchenTools	2	5	[0, 0, 0]	n/a	catFR1	2	R1354E
659.249	1.592	660610	REC_WORD	3.128	n/a	KNIFE	KitchenTools	1	5	[0, 0, 0]	n/a	catFR1	2	R1354E
660.841	1.491	662202	REC_WORD	4.72	n/a	WRENCH	n/a	-999	5	[0, 0, 0]	n/a	catFR1	2	R1354E
662.332	2.798	663693	REC_WORD	6.211	n/a	HAMMER	Tools	4	5	[0, 0, 0]	n/a	catFR1	2	R1354E
665.13	21.002	666491	REC_WORD	9.009	n/a	DRILL	Tools	12	5	[0, 0, 0]	n/a	catFR1	2	R1354E
686.132	0.001	687492	REC_END	n/a	n/a	n/a	n/a	-999	5	[0, 0, 0]	n/a	catFR1	2	R1354E
686.133	0.026	687493	TRIAL_END	n/a	n/a	n/a	n/a	-999	5	[0, 0, 0]	n/a	catFR1	2	R1354E
686.159	0.0	687519	TRIAL_START	n/a	n/a	n/a	n/a	-999	6	[0, 0, 0]	n/a	catFR1	2	R1354E
686.159	0.0	687519	TRIAL	n/a	n/a	n/a	n/a	-999	6	[0, 0, 0]	n/a	catFR1	2	R1354E
686.159	2.467	687519	WAITING_START	n/a	n/a	n/a	n/a	-999	6	[0, 0, 0]	n/a	catFR1	2	R1354E
688.626	0.001	689986	WAITING_END	n/a	n/a	n/a	n/a	-999	6	[0, 0, 0]	n/a	catFR1	2	R1354E
688.627	10.429	689987	COUNTDOWN_START	n/a	n/a	n/a	n/a	-999	6	[0, 0, 0]	n/a	catFR1	2	R1354E
699.056	0.0	700416	ORIENT_START	n/a	n/a	n/a	n/a	-999	6	[0, 0, 0]	n/a	catFR1	2	R1354E
699.056	1.172	700416	COUNTDOWN_END	n/a	n/a	n/a	n/a	-999	6	[0, 0, 0]	n/a	catFR1	2	R1354E
700.228	0.001	701588	ORIENT_END	n/a	n/a	n/a	n/a	-999	6	[0, 0, 0]	n/a	catFR1	2	R1354E
700.229	0.787	701589	ENCODING_START	n/a	n/a	n/a	n/a	-999	6	[0, 0, 0]	n/a	catFR1	2	R1354E
701.016	1.629	702376	WORD	n/a	wordpools/wordpool_categorized_EN.txt	STEREO	Electronics	1	6	[0, 0, 0]	n/a	catFR1	2	R1354E
702.645	0.949	704005	WORD_OFF	n/a	n/a	STEREO	Electronics	1	6	[0, 0, 0]	n/a	catFR1	2	R1354E
703.594	1.635	704954	WORD	n/a	wordpools/wordpool_categorized_EN.txt	RADIO	Electronics	2	6	[0, 0, 0]	n/a	catFR1	2	R1354E
705.229	1.061	706589	WORD_OFF	n/a	n/a	RADIO	Electronics	2	6	[0, 0, 0]	n/a	catFR1	2	R1354E
706.29	1.623	707650	WORD	n/a	wordpools/wordpool_categorized_EN.txt	CORKSCREW	KitchenTools	3	6	[0, 0, 0]	n/a	catFR1	2	R1354E
707.913	0.902	709273	WORD_OFF	n/a	n/a	CORKSCREW	KitchenTools	3	6	[0, 0, 0]	n/a	catFR1	2	R1354E
708.815	1.616	710175	WORD	n/a	wordpools/wordpool_categorized_EN.txt	WHISK	KitchenTools	4	6	[0, 0, 0]	n/a	catFR1	2	R1354E
710.431	0.838	711791	WORD_OFF	n/a	n/a	WHISK	KitchenTools	4	6	[0, 0, 0]	n/a	catFR1	2	R1354E
711.269	1.628	712629	WORD	n/a	wordpools/wordpool_categorized_EN.txt	OCTOPUS	OceanAnimals	5	6	[0, 0, 0]	n/a	catFR1	2	R1354E
712.897	0.821	714257	WORD_OFF	n/a	n/a	OCTOPUS	OceanAnimals	5	6	[0, 0, 0]	n/a	catFR1	2	R1354E
713.718	1.631	715078	WORD	n/a	wordpools/wordpool_categorized_EN.txt	FISH	OceanAnimals	6	6	[0, 0, 0]	n/a	catFR1	2	R1354E
715.349	1.006	716708	WORD_OFF	n/a	n/a	FISH	OceanAnimals	6	6	[0, 0, 0]	n/a	catFR1	2	R1354E
716.355	1.626	717714	WORD	n/a	wordpools/wordpool_categorized_EN.txt	SCANNER	Electronics	7	6	[0, 0, 0]	n/a	catFR1	2	R1354E
717.981	1.134	719340	WORD_OFF	n/a	n/a	SCANNER	Electronics	7	6	[0, 0, 0]	n/a	catFR1	2	R1354E
719.115	1.633	720474	WORD	n/a	wordpools/wordpool_categorized_EN.txt	SPEAKER	Electronics	8	6	[0, 0, 0]	n/a	catFR1	2	R1354E
720.748	1.029	722107	WORD_OFF	n/a	n/a	SPEAKER	Electronics	8	6	[0, 0, 0]	n/a	catFR1	2	R1354E
721.777	1.606	723136	WORD	n/a	wordpools/wordpool_categorized_EN.txt	STRAINER	KitchenTools	9	6	[0, 0, 0]	n/a	catFR1	2	R1354E
723.383	0.77	724742	WORD_OFF	n/a	n/a	STRAINER	KitchenTools	9	6	[0, 0, 0]	n/a	catFR1	2	R1354E
724.153	1.63	725512	WORD	n/a	wordpools/wordpool_categorized_EN.txt	FORK	KitchenTools	10	6	[0, 0, 0]	n/a	catFR1	2	R1354E
725.783	1.099	727142	WORD_OFF	n/a	n/a	FORK	KitchenTools	10	6	[0, 0, 0]	n/a	catFR1	2	R1354E
726.882	1.635	728241	WORD	n/a	wordpools/wordpool_categorized_EN.txt	SQUID	OceanAnimals	11	6	[0, 0, 0]	n/a	catFR1	2	R1354E
728.517	0.783	729876	WORD_OFF	n/a	n/a	SQUID	OceanAnimals	11	6	[0, 0, 0]	n/a	catFR1	2	R1354E
729.3	1.634	730659	WORD	n/a	wordpools/wordpool_categorized_EN.txt	OYSTER	OceanAnimals	12	6	[0, 0, 0]	n/a	catFR1	2	R1354E
730.934	0.0	732293	WORD_OFF	n/a	n/a	OYSTER	OceanAnimals	12	6	[0, 0, 0]	n/a	catFR1	2	R1354E
730.934	0.0	732293	ENCODING_END	n/a	n/a	n/a	n/a	-999	6	[0, 0, 0]	n/a	catFR1	2	R1354E
730.934	0.0	732293	DISTRACT_START	n/a	n/a	n/a	n/a	-999	6	[0, 0, 0]	n/a	catFR1	2	R1354E
730.934	0.016	732293	START	n/a	n/a	n/a	n/a	-999	6	[-999, -999, -999]	n/a	catFR1	2	R1354E
730.95	3.134	732309	PROB	3.099	n/a	n/a	n/a	-999	6	[5, 7, 2]	14.0	catFR1	2	R1354E
734.084	1.634	735443	PROB	1.597	n/a	n/a	n/a	-999	6	[2, 4, 5]	11.0	catFR1	2	R1354E
735.718	1.2	737077	PROB	1.171	n/a	n/a	n/a	-999	6	[5, 7, 1]	12.0	catFR1	2	R1354E
736.918	2.634	738277	PROB	2.595	n/a	n/a	n/a	-999	6	[2, 7, 7]	16.0	catFR1	2	R1354E
739.552	1.967	740911	PROB	1.938	n/a	n/a	n/a	-999	6	[2, 6, 8]	16.0	catFR1	2	R1354E
741.519	1.133	742878	PROB	1.106	n/a	n/a	n/a	-999	6	[4, 1, 6]	11.0	catFR1	2	R1354E
742.652	2.134	744011	PROB	2.101	n/a	n/a	n/a	-999	6	[3, 2, 4]	9.0	catFR1	2	R1354E
744.786	2.384	746144	PROB	2.359	n/a	n/a	n/a	-999	6	[4, 8, 8]	20.0	catFR1	2	R1354E
747.17	1.733	748528	PROB	1.704	n/a	n/a	n/a	-999	6	[8, 3, 9]	20.0	catFR1	2	R1354E
748.903	2.067	750261	PROB	2.067	n/a	n/a	n/a	-999	6	[5, 8, 3]	14.0	catFR1	2	R1354E
750.97	0.017	752328	STOP	n/a	n/a	n/a	n/a	-999	6	[-999, -999, -999]	n/a	catFR1	2	R1354E
750.987	0.556	752345	DISTRACT_END	n/a	n/a	n/a	n/a	-999	6	[0, 0, 0]	n/a	catFR1	2	R1354E
751.543	1.644	752901	RETRIEVAL_ORIENT_START	n/a	n/a	n/a	n/a	-999	6	[0, 0, 0]	n/a	catFR1	2	R1354E
753.187	0.001	754545	RETRIEVAL_ORIENT_END	n/a	n/a	n/a	n/a	-999	6	[0, 0, 0]	n/a	catFR1	2	R1354E
753.188	1.469	754546	REC_START	n/a	n/a	n/a	n/a	-999	6	[0, 0, 0]	n/a	catFR1	2	R1354E
754.657	2.384	756015	REC_WORD	1.469	n/a	STRAINER	KitchenTools	9	6	[0, 0, 0]	n/a	catFR1	2	R1354E
757.041	1.895	758399	REC_WORD	3.853	n/a	FORK	KitchenTools	10	6	[0, 0, 0]	n/a	catFR1	2	R1354E
758.936	8.167	760294	REC_WORD	5.748	n/a	CORKSCREW	KitchenTools	3	6	[0, 0, 0]	n/a	catFR1	2	R1354E
767.103	16.096	768461	REC_WORD	13.915	n/a	WHISK	KitchenTools	4	6	[0, 0, 0]	n/a	catFR1	2	R1354E
783.199	0.0	784556	TRIAL_END	n/a	n/a	n/a	n/a	-999	6	[0, 0, 0]	n/a	catFR1	2	R1354E
783.199	0.026	784556	REC_END	n/a	n/a	n/a	n/a	-999	6	[0, 0, 0]	n/a	catFR1	2	R1354E
783.225	0.0	784582	TRIAL_START	n/a	n/a	n/a	n/a	-999	7	[0, 0, 0]	n/a	catFR1	2	R1354E
783.225	0.0	784582	TRIAL	n/a	n/a	n/a	n/a	-999	7	[0, 0, 0]	n/a	catFR1	2	R1354E
783.225	1.951	784582	WAITING_START	n/a	n/a	n/a	n/a	-999	7	[0, 0, 0]	n/a	catFR1	2	R1354E
785.176	0.0	786533	WAITING_END	n/a	n/a	n/a	n/a	-999	7	[0, 0, 0]	n/a	catFR1	2	R1354E
785.176	10.429	786533	COUNTDOWN_START	n/a	n/a	n/a	n/a	-999	7	[0, 0, 0]	n/a	catFR1	2	R1354E
795.605	0.001	796962	COUNTDOWN_END	n/a	n/a	n/a	n/a	-999	7	[0, 0, 0]	n/a	catFR1	2	R1354E
795.606	1.239	796963	ORIENT_START	n/a	n/a	n/a	n/a	-999	7	[0, 0, 0]	n/a	catFR1	2	R1354E
796.845	0.001	798202	ORIENT_END	n/a	n/a	n/a	n/a	-999	7	[0, 0, 0]	n/a	catFR1	2	R1354E
796.846	0.986	798203	ENCODING_START	n/a	n/a	n/a	n/a	-999	7	[0, 0, 0]	n/a	catFR1	2	R1354E
797.832	1.63	799189	WORD	n/a	wordpools/wordpool_categorized_EN.txt	SODA	Beverages	1	7	[0, 0, 0]	n/a	catFR1	2	R1354E
799.462	0.869	800819	WORD_OFF	n/a	n/a	SODA	Beverages	1	7	[0, 0, 0]	n/a	catFR1	2	R1354E
800.331	1.632	801687	WORD	n/a	wordpools/wordpool_categorized_EN.txt	RUM	Beverages	2	7	[0, 0, 0]	n/a	catFR1	2	R1354E
801.963	1.072	803319	WORD_OFF	n/a	n/a	RUM	Beverages	2	7	[0, 0, 0]	n/a	catFR1	2	R1354E
803.035	1.628	804391	WORD	n/a	wordpools/wordpool_categorized_EN.txt	STREAM	Landscapes	3	7	[0, 0, 0]	n/a	catFR1	2	R1354E
804.663	0.962	806019	WORD_OFF	n/a	n/a	STREAM	Landscapes	3	7	[0, 0, 0]	n/a	catFR1	2	R1354E
805.625	1.622	806981	WORD	n/a	wordpools/wordpool_categorized_EN.txt	ISLAND	Landscapes	4	7	[0, 0, 0]	n/a	catFR1	2	R1354E
807.247	0.902	808603	WORD_OFF	n/a	n/a	ISLAND	Landscapes	4	7	[0, 0, 0]	n/a	catFR1	2	R1354E
808.149	1.632	809505	WORD	n/a	wordpools/wordpool_categorized_EN.txt	PLANKTON	OceanAnimals	5	7	[0, 0, 0]	n/a	catFR1	2	R1354E
809.781	0.957	811137	WORD_OFF	n/a	n/a	PLANKTON	OceanAnimals	5	7	[0, 0, 0]	n/a	catFR1	2	R1354E
810.738	1.611	812094	WORD	n/a	wordpools/wordpool_categorized_EN.txt	JELLYFISH	OceanAnimals	6	7	[0, 0, 0]	n/a	catFR1	2	R1354E
812.349	1.054	813705	WORD_OFF	n/a	n/a	JELLYFISH	OceanAnimals	6	7	[0, 0, 0]	n/a	catFR1	2	R1354E
813.403	1.629	814759	WORD	n/a	wordpools/wordpool_categorized_EN.txt	BEER	Beverages	7	7	[0, 0, 0]	n/a	catFR1	2	R1354E
815.032	1.009	816388	WORD_OFF	n/a	n/a	BEER	Beverages	7	7	[0, 0, 0]	n/a	catFR1	2	R1354E
816.041	1.624	817397	WORD	n/a	wordpools/wordpool_categorized_EN.txt	COLA	Beverages	8	7	[0, 0, 0]	n/a	catFR1	2	R1354E
817.665	0.76	819021	WORD_OFF	n/a	n/a	COLA	Beverages	8	7	[0, 0, 0]	n/a	catFR1	2	R1354E
818.425	1.624	819781	WORD	n/a	wordpools/wordpool_categorized_EN.txt	FOREST	Landscapes	9	7	[0, 0, 0]	n/a	catFR1	2	R1354E
820.049	1.034	821405	WORD_OFF	n/a	n/a	FOREST	Landscapes	9	7	[0, 0, 0]	n/a	catFR1	2	R1354E
821.083	1.633	822439	WORD	n/a	wordpools/wordpool_categorized_EN.txt	LAKE	Landscapes	10	7	[0, 0, 0]	n/a	catFR1	2	R1354E
822.716	0.996	824072	WORD_OFF	n/a	n/a	LAKE	Landscapes	10	7	[0, 0, 0]	n/a	catFR1	2	R1354E
823.712	1.605	825068	WORD	n/a	wordpools/wordpool_categorized_EN.txt	SHRIMP	OceanAnimals	11	7	[0, 0, 0]	n/a	catFR1	2	R1354E
825.317	1.016	826673	WORD_OFF	n/a	n/a	SHRIMP	OceanAnimals	11	7	[0, 0, 0]	n/a	catFR1	2	R1354E
826.333	1.634	827689	WORD	n/a	wordpools/wordpool_categorized_EN.txt	DOLPHIN	OceanAnimals	12	7	[0, 0, 0]	n/a	catFR1	2	R1354E
827.967	0.001	829323	WORD_OFF	n/a	n/a	DOLPHIN	OceanAnimals	12	7	[0, 0, 0]	n/a	catFR1	2	R1354E
827.968	0.0	829324	ENCODING_END	n/a	n/a	n/a	n/a	-999	7	[0, 0, 0]	n/a	catFR1	2	R1354E
827.968	0.0	829324	DISTRACT_START	n/a	n/a	n/a	n/a	-999	7	[0, 0, 0]	n/a	catFR1	2	R1354E
827.968	0.016	829324	START	n/a	n/a	n/a	n/a	-999	7	[-999, -999, -999]	n/a	catFR1	2	R1354E
827.984	1.95	829340	PROB	1.913	n/a	n/a	n/a	-999	7	[2, 9, 8]	19.0	catFR1	2	R1354E
829.934	2.034	831289	PROB	2.011	n/a	n/a	n/a	-999	7	[5, 9, 1]	15.0	catFR1	2	R1354E
831.968	1.667	833323	PROB	1.634	n/a	n/a	n/a	-999	7	[5, 7, 7]	19.0	catFR1	2	R1354E
833.635	2.017	834990	PROB	1.991	n/a	n/a	n/a	-999	7	[6, 7, 5]	18.0	catFR1	2	R1354E
835.652	1.751	837007	PROB	1.718	n/a	n/a	n/a	-999	7	[8, 2, 4]	14.0	catFR1	2	R1354E
837.403	1.499	838758	PROB	1.462	n/a	n/a	n/a	-999	7	[5, 8, 1]	14.0	catFR1	2	R1354E
838.902	2.801	840257	PROB	2.772	n/a	n/a	n/a	-999	7	[5, 2, 6]	13.0	catFR1	2	R1354E
841.703	1.233	843058	PROB	1.202	n/a	n/a	n/a	-999	7	[9, 1, 9]	19.0	catFR1	2	R1354E
842.936	1.334	844291	PROB	1.305	n/a	n/a	n/a	-999	7	[3, 1, 3]	7.0	catFR1	2	R1354E
844.27	1.35	845625	PROB	1.323	n/a	n/a	n/a	-999	7	[1, 1, 2]	4.0	catFR1	2	R1354E
845.62	1.267	846975	PROB	1.229	n/a	n/a	n/a	-999	7	[6, 2, 1]	9.0	catFR1	2	R1354E
846.887	2.306	848242	PROB	2.306	n/a	n/a	n/a	-999	7	[6, 6, 8]	20.0	catFR1	2	R1354E
849.193	0.011	850548	STOP	n/a	n/a	n/a	n/a	-999	7	[-999, -999, -999]	n/a	catFR1	2	R1354E
849.204	0.646	850559	DISTRACT_END	n/a	n/a	n/a	n/a	-999	7	[0, 0, 0]	n/a	catFR1	2	R1354E
849.85	1.705	851205	RETRIEVAL_ORIENT_START	n/a	n/a	n/a	n/a	-999	7	[0, 0, 0]	n/a	catFR1	2	R1354E
851.555	0.0	852910	REC_START	n/a	n/a	n/a	n/a	-999	7	[0, 0, 0]	n/a	catFR1	2	R1354E
851.555	0.081	852910	RETRIEVAL_ORIENT_END	n/a	n/a	n/a	n/a	-999	7	[0, 0, 0]	n/a	catFR1	2	R1354E
851.636	2.137	852991	REC_WORD	0.081	n/a	SODA	Beverages	1	7	[0, 0, 0]	n/a	catFR1	2	R1354E
853.773	1.575	855128	REC_WORD	2.218	n/a	BEER	Beverages	7	7	[0, 0, 0]	n/a	catFR1	2	R1354E
855.348	3.802	856703	REC_WORD	3.793	n/a	RUM	Beverages	2	7	[0, 0, 0]	n/a	catFR1	2	R1354E
859.15	22.416	860504	REC_WORD	7.595	n/a	COLA	Beverages	8	7	[0, 0, 0]	n/a	catFR1	2	R1354E
881.566	0.0	882920	REC_END	n/a	n/a	n/a	n/a	-999	7	[0, 0, 0]	n/a	catFR1	2	R1354E
881.566	0.028	882920	TRIAL_END	n/a	n/a	n/a	n/a	-999	7	[0, 0, 0]	n/a	catFR1	2	R1354E
881.594	0.0	882948	TRIAL_START	n/a	n/a	n/a	n/a	-999	8	[0, 0, 0]	n/a	catFR1	2	R1354E
881.594	0.001	882948	TRIAL	n/a	n/a	n/a	n/a	-999	8	[0, 0, 0]	n/a	catFR1	2	R1354E
881.595	1.965	882949	WAITING_START	n/a	n/a	n/a	n/a	-999	8	[0, 0, 0]	n/a	catFR1	2	R1354E
883.56	0.001	884914	WAITING_END	n/a	n/a	n/a	n/a	-999	8	[0, 0, 0]	n/a	catFR1	2	R1354E
883.561	10.429	884915	COUNTDOWN_START	n/a	n/a	n/a	n/a	-999	8	[0, 0, 0]	n/a	catFR1	2	R1354E
893.99	0.001	895343	COUNTDOWN_END	n/a	n/a	n/a	n/a	-999	8	[0, 0, 0]	n/a	catFR1	2	R1354E
893.991	1.155	895344	ORIENT_START	n/a	n/a	n/a	n/a	-999	8	[0, 0, 0]	n/a	catFR1	2	R1354E
895.146	0.0	896499	ORIENT_END	n/a	n/a	n/a	n/a	-999	8	[0, 0, 0]	n/a	catFR1	2	R1354E
895.146	0.906	896499	ENCODING_START	n/a	n/a	n/a	n/a	-999	8	[0, 0, 0]	n/a	catFR1	2	R1354E
896.052	1.627	897405	WORD	n/a	wordpools/wordpool_categorized_EN.txt	JACKET	Clothing	1	8	[0, 0, 0]	n/a	catFR1	2	R1354E
897.679	1.034	899032	WORD_OFF	n/a	n/a	JACKET	Clothing	1	8	[0, 0, 0]	n/a	catFR1	2	R1354E
898.713	1.617	900066	WORD	n/a	wordpools/wordpool_categorized_EN.txt	DRESS	Clothing	2	8	[0, 0, 0]	n/a	catFR1	2	R1354E
900.33	0.959	901683	WORD_OFF	n/a	n/a	DRESS	Clothing	2	8	[0, 0, 0]	n/a	catFR1	2	R1354E
901.289	1.625	902642	WORD	n/a	wordpools/wordpool_categorized_EN.txt	BROWNIES	Desserts	3	8	[0, 0, 0]	n/a	catFR1	2	R1354E
902.914	0.869	904267	WORD_OFF	n/a	n/a	BROWNIES	Desserts	3	8	[0, 0, 0]	n/a	catFR1	2	R1354E
903.783	1.616	905136	WORD	n/a	wordpools/wordpool_categorized_EN.txt	COOKIE	Desserts	4	8	[0, 0, 0]	n/a	catFR1	2	R1354E
905.399	1.011	906752	WORD_OFF	n/a	n/a	COOKIE	Desserts	4	8	[0, 0, 0]	n/a	catFR1	2	R1354E
906.41	1.621	907763	WORD	n/a	wordpools/wordpool_categorized_EN.txt	BASEBALL	Toys	5	8	[0, 0, 0]	n/a	catFR1	2	R1354E
908.031	0.899	909384	WORD_OFF	n/a	n/a	BASEBALL	Toys	5	8	[0, 0, 0]	n/a	catFR1	2	R1354E
908.93	1.635	910283	WORD	n/a	wordpools/wordpool_categorized_EN.txt	DOLL	Toys	6	8	[0, 0, 0]	n/a	catFR1	2	R1354E
910.565	1.082	911918	WORD_OFF	n/a	n/a	DOLL	Toys	6	8	[0, 0, 0]	n/a	catFR1	2	R1354E
911.647	1.635	913000	WORD	n/a	wordpools/wordpool_categorized_EN.txt	JEANS	Clothing	7	8	[0, 0, 0]	n/a	catFR1	2	R1354E
913.282	0.83	914635	WORD_OFF	n/a	n/a	JEANS	Clothing	7	8	[0, 0, 0]	n/a	catFR1	2	R1354E
914.112	1.621	915465	WORD	n/a	wordpools/wordpool_categorized_EN.txt	COAT	Clothing	8	8	[0, 0, 0]	n/a	catFR1	2	R1354E
915.733	0.901	917085	WORD_OFF	n/a	n/a	COAT	Clothing	8	8	[0, 0, 0]	n/a	catFR1	2	R1354E
916.634	1.632	917986	WORD	n/a	wordpools/wordpool_categorized_EN.txt	JELLO	Desserts	9	8	[0, 0, 0]	n/a	catFR1	2	R1354E
918.266	1.106	919618	WORD_OFF	n/a	n/a	JELLO	Desserts	9	8	[0, 0, 0]	n/a	catFR1	2	R1354E
919.372	1.628	920724	WORD	n/a	wordpools/wordpool_categorized_EN.txt	FUDGE	Desserts	10	8	[0, 0, 0]	n/a	catFR1	2	R1354E
921.0	0.925	922352	WORD_OFF	n/a	n/a	FUDGE	Desserts	10	8	[0, 0, 0]	n/a	catFR1	2	R1354E
921.925	1.626	923277	WORD	n/a	wordpools/wordpool_categorized_EN.txt	SLINKY	Toys	11	8	[0, 0, 0]	n/a	catFR1	2	R1354E
923.551	0.786	924903	WORD_OFF	n/a	n/a	SLINKY	Toys	11	8	[0, 0, 0]	n/a	catFR1	2	R1354E
924.337	1.631	925689	WORD	n/a	wordpools/wordpool_categorized_EN.txt	BALL	Toys	12	8	[0, 0, 0]	n/a	catFR1	2	R1354E
925.968	0.0	927320	WORD_OFF	n/a	n/a	BALL	Toys	12	8	[0, 0, 0]	n/a	catFR1	2	R1354E
925.968	0.0	927320	ENCODING_END	n/a	n/a	n/a	n/a	-999	8	[0, 0, 0]	n/a	catFR1	2	R1354E
925.968	0.0	927320	DISTRACT_START	n/a	n/a	n/a	n/a	-999	8	[0, 0, 0]	n/a	catFR1	2	R1354E
925.968	0.016	927320	START	n/a	n/a	n/a	n/a	-999	8	[-999, -999, -999]	n/a	catFR1	2	R1354E
925.984	2.317	927336	PROB	2.294	n/a	n/a	n/a	-999	8	[8, 4, 9]	21.0	catFR1	2	R1354E
928.301	1.6	929653	PROB	1.577	n/a	n/a	n/a	-999	8	[6, 2, 3]	11.0	catFR1	2	R1354E
929.901	3.134	931253	PROB	3.105	n/a	n/a	n/a	-999	8	[5, 7, 8]	20.0	catFR1	2	R1354E
933.035	1.551	934387	PROB	1.523	n/a	n/a	n/a	-999	8	[7, 2, 4]	15.0	catFR1	2	R1354E
934.586	2.2	935938	PROB	2.172	n/a	n/a	n/a	-999	8	[9, 7, 6]	22.0	catFR1	2	R1354E
936.786	1.383	938138	PROB	1.356	n/a	n/a	n/a	-999	8	[2, 4, 9]	13.0	catFR1	2	R1354E
938.169	2.434	939521	PROB	2.405	n/a	n/a	n/a	-999	8	[2, 9, 4]	15.0	catFR1	2	R1354E
940.603	1.617	941955	PROB	1.587	n/a	n/a	n/a	-999	8	[7, 5, 5]	17.0	catFR1	2	R1354E
942.22	1.851	943572	PROB	1.826	n/a	n/a	n/a	-999	8	[9, 4, 7]	21.0	catFR1	2	R1354E
944.071	1.992	945422	PROB	1.992	n/a	n/a	n/a	-999	8	[5, 6, 2]	13.0	catFR1	2	R1354E
946.063	0.008	947414	STOP	n/a	n/a	n/a	n/a	-999	8	[-999, -999, -999]	n/a	catFR1	2	R1354E
946.071	0.518	947422	DISTRACT_END	n/a	n/a	n/a	n/a	-999	8	[0, 0, 0]	n/a	catFR1	2	R1354E
946.589	1.549	947940	RETRIEVAL_ORIENT_START	n/a	n/a	n/a	n/a	-999	8	[0, 0, 0]	n/a	catFR1	2	R1354E
948.138	0.0	949489	RETRIEVAL_ORIENT_END	n/a	n/a	n/a	n/a	-999	8	[0, 0, 0]	n/a	catFR1	2	R1354E
948.138	0.283	949489	REC_START	n/a	n/a	n/a	n/a	-999	8	[0, 0, 0]	n/a	catFR1	2	R1354E
948.421	1.18	949772	REC_WORD	0.283	n/a	FUDGE	Desserts	10	8	[0, 0, 0]	n/a	catFR1	2	R1354E
949.601	1.713	950952	REC_WORD	1.463	n/a	SLINKY	Toys	11	8	[0, 0, 0]	n/a	catFR1	2	R1354E
951.314	2.099	952665	REC_WORD	3.176	n/a	BALL	Toys	12	8	[0, 0, 0]	n/a	catFR1	2	R1354E
953.413	24.738	954764	REC_WORD	5.275	n/a	COOKIE	Desserts	4	8	[0, 0, 0]	n/a	catFR1	2	R1354E
978.151	0.0	979501	REC_END	n/a	n/a	n/a	n/a	-999	8	[0, 0, 0]	n/a	catFR1	2	R1354E
978.151	0.029	979501	TRIAL_END	n/a	n/a	n/a	n/a	-999	8	[0, 0, 0]	n/a	catFR1	2	R1354E
978.18	0.001	979530	TRIAL_START	n/a	n/a	n/a	n/a	-999	9	[0, 0, 0]	n/a	catFR1	2	R1354E
978.181	0.0	979531	TRIAL	n/a	n/a	n/a	n/a	-999	9	[0, 0, 0]	n/a	catFR1	2	R1354E
978.181	1.313	979531	WAITING_START	n/a	n/a	n/a	n/a	-999	9	[0, 0, 0]	n/a	catFR1	2	R1354E
979.494	0.0	980844	COUNTDOWN_START	n/a	n/a	n/a	n/a	-999	9	[0, 0, 0]	n/a	catFR1	2	R1354E
979.494	10.428	980844	WAITING_END	n/a	n/a	n/a	n/a	-999	9	[0, 0, 0]	n/a	catFR1	2	R1354E
989.922	0.001	991272	COUNTDOWN_END	n/a	n/a	n/a	n/a	-999	9	[0, 0, 0]	n/a	catFR1	2	R1354E
989.923	1.256	991273	ORIENT_START	n/a	n/a	n/a	n/a	-999	9	[0, 0, 0]	n/a	catFR1	2	R1354E
991.179	0.0	992529	ORIENT_END	n/a	n/a	n/a	n/a	-999	9	[0, 0, 0]	n/a	catFR1	2	R1354E
991.179	0.863	992529	ENCODING_START	n/a	n/a	n/a	n/a	-999	9	[0, 0, 0]	n/a	catFR1	2	R1354E
992.042	1.637	993392	WORD	n/a	wordpools/wordpool_categorized_EN.txt	COW	FarmAnimals	1	9	[0, 0, 0]	n/a	catFR1	2	R1354E
993.679	0.852	995029	WORD_OFF	n/a	n/a	COW	FarmAnimals	1	9	[0, 0, 0]	n/a	catFR1	2	R1354E
994.531	1.632	995881	WORD	n/a	wordpools/wordpool_categorized_EN.txt	TURKEY	FarmAnimals	2	9	[0, 0, 0]	n/a	catFR1	2	R1354E
996.163	0.889	997513	WORD_OFF	n/a	n/a	TURKEY	FarmAnimals	2	9	[0, 0, 0]	n/a	catFR1	2	R1354E
997.052	1.628	998402	WORD	n/a	wordpools/wordpool_categorized_EN.txt	BUTTERFLY	Insects	3	9	[0, 0, 0]	n/a	catFR1	2	R1354E
998.68	0.786	1000030	WORD_OFF	n/a	n/a	BUTTERFLY	Insects	3	9	[0, 0, 0]	n/a	catFR1	2	R1354E
999.466	1.631	1000816	WORD	n/a	wordpools/wordpool_categorized_EN.txt	SPIDER	Insects	4	9	[0, 0, 0]	n/a	catFR1	2	R1354E
1001.097	1.085	1002446	WORD_OFF	n/a	n/a	SPIDER	Insects	4	9	[0, 0, 0]	n/a	catFR1	2	R1354E
1002.182	1.632	1003531	WORD	n/a	wordpools/wordpool_categorized_EN.txt	DRUM	Instruments	5	9	[0, 0, 0]	n/a	catFR1	2	R1354E
1003.814	1.114	1005163	WORD_OFF	n/a	n/a	DRUM	Instruments	5	9	[0, 0, 0]	n/a	catFR1	2	R1354E
1004.928	1.637	1006277	WORD	n/a	wordpools/wordpool_categorized_EN.txt	PIANO	Instruments	6	9	[0, 0, 0]	n/a	catFR1	2	R1354E
1006.565	1.006	1007914	WORD_OFF	n/a	n/a	PIANO	Instruments	6	9	[0, 0, 0]	n/a	catFR1	2	R1354E
1007.571	1.628	1008920	WORD	n/a	wordpools/wordpool_categorized_EN.txt	GOAT	FarmAnimals	7	9	[0, 0, 0]	n/a	catFR1	2	R1354E
1009.199	1.072	1010548	WORD_OFF	n/a	n/a	GOAT	FarmAnimals	7	9	[0, 0, 0]	n/a	catFR1	2	R1354E
1010.271	1.628	1011620	WORD	n/a	wordpools/wordpool_categorized_EN.txt	BULL	FarmAnimals	8	9	[0, 0, 0]	n/a	catFR1	2	R1354E
1011.899	1.091	1013248	WORD_OFF	n/a	n/a	BULL	FarmAnimals	8	9	[0, 0, 0]	n/a	catFR1	2	R1354E
1012.99	1.626	1014339	WORD	n/a	wordpools/wordpool_categorized_EN.txt	VIOLIN	Instruments	9	9	[0, 0, 0]	n/a	catFR1	2	R1354E
1014.616	1.049	1015965	WORD_OFF	n/a	n/a	VIOLIN	Instruments	9	9	[0, 0, 0]	n/a	catFR1	2	R1354E
1015.665	1.635	1017014	WORD	n/a	wordpools/wordpool_categorized_EN.txt	BASS	Instruments	10	9	[0, 0, 0]	n/a	catFR1	2	R1354E
1017.3	0.76	1018649	WORD_OFF	n/a	n/a	BASS	Instruments	10	9	[0, 0, 0]	n/a	catFR1	2	R1354E
1018.06	1.624	1019409	WORD	n/a	wordpools/wordpool_categorized_EN.txt	ANT	Insects	11	9	[0, 0, 0]	n/a	catFR1	2	R1354E
1019.684	1.021	1021033	WORD_OFF	n/a	n/a	ANT	Insects	11	9	[0, 0, 0]	n/a	catFR1	2	R1354E
1020.705	1.614	1022054	WORD	n/a	wordpools/wordpool_categorized_EN.txt	LADYBUG	Insects	12	9	[0, 0, 0]	n/a	catFR1	2	R1354E
1022.319	0.0	1023668	ENCODING_END	n/a	n/a	n/a	n/a	-999	9	[0, 0, 0]	n/a	catFR1	2	R1354E
1022.319	0.001	1023668	WORD_OFF	n/a	n/a	LADYBUG	Insects	12	9	[0, 0, 0]	n/a	catFR1	2	R1354E
1022.32	0.0	1023669	DISTRACT_START	n/a	n/a	n/a	n/a	-999	9	[0, 0, 0]	n/a	catFR1	2	R1354E
1022.32	0.015	1023669	START	n/a	n/a	n/a	n/a	-999	9	[-999, -999, -999]	n/a	catFR1	2	R1354E
1022.335	1.866	1023684	PROB	1.837	n/a	n/a	n/a	-999	9	[1, 9, 9]	1.0	catFR1	2	R1354E
1024.201	2.185	1025550	PROB	2.148	n/a	n/a	n/a	-999	9	[1, 5, 8]	14.0	catFR1	2	R1354E
1026.386	1.883	1027735	PROB	1.85	n/a	n/a	n/a	-999	9	[2, 3, 3]	8.0	catFR1	2	R1354E
1028.269	1.583	1029618	PROB	1.551	n/a	n/a	n/a	-999	9	[2, 5, 6]	13.0	catFR1	2	R1354E
1029.852	2.067	1031200	PROB	2.032	n/a	n/a	n/a	-999	9	[8, 9, 5]	22.0	catFR1	2	R1354E
1031.919	2.435	1033267	PROB	2.406	n/a	n/a	n/a	-999	9	[7, 5, 4]	16.0	catFR1	2	R1354E
1034.354	1.833	1035702	PROB	1.794	n/a	n/a	n/a	-999	9	[2, 7, 1]	10.0	catFR1	2	R1354E
1036.187	1.3	1037535	PROB	1.273	n/a	n/a	n/a	-999	9	[5, 3, 5]	13.0	catFR1	2	R1354E
1037.487	1.517	1038835	PROB	1.494	n/a	n/a	n/a	-999	9	[3, 5, 6]	14.0	catFR1	2	R1354E
1039.004	1.7	1040352	PROB	1.673	n/a	n/a	n/a	-999	9	[6, 6, 2]	14.0	catFR1	2	R1354E
1040.704	1.604	1042052	PROB	1.604	n/a	n/a	n/a	-999	9	[4, 8, 6]	18.0	catFR1	2	R1354E
1042.308	0.014	1043656	STOP	n/a	n/a	n/a	n/a	-999	9	[-999, -999, -999]	n/a	catFR1	2	R1354E
1042.322	0.653	1043670	DISTRACT_END	n/a	n/a	n/a	n/a	-999	9	[0, 0, 0]	n/a	catFR1	2	R1354E
1042.975	1.546	1044323	RETRIEVAL_ORIENT_START	n/a	n/a	n/a	n/a	-999	9	[0, 0, 0]	n/a	catFR1	2	R1354E
1044.521	0.001	1045869	RETRIEVAL_ORIENT_END	n/a	n/a	n/a	n/a	-999	9	[0, 0, 0]	n/a	catFR1	2	R1354E
1044.522	0.449	1045870	REC_START	n/a	n/a	n/a	n/a	-999	9	[0, 0, 0]	n/a	catFR1	2	R1354E
1044.971	1.32	1046319	REC_WORD	0.449	n/a	LADYBUG	Insects	12	9	[0, 0, 0]	n/a	catFR1	2	R1354E
1046.291	0.972	1047639	REC_WORD	1.769	n/a	ANT	Insects	11	9	[0, 0, 0]	n/a	catFR1	2	R1354E
1047.263	1.755	1048611	REC_WORD	2.741	n/a	VIOLIN	Instruments	9	9	[0, 0, 0]	n/a	catFR1	2	R1354E
1049.018	25.515	1050366	REC_WORD	4.496	n/a	BASS	Instruments	10	9	[0, 0, 0]	n/a	catFR1	2	R1354E
1074.533	0.001	1075880	REC_END	n/a	n/a	n/a	n/a	-999	9	[0, 0, 0]	n/a	catFR1	2	R1354E
1074.534	0.03	1075881	TRIAL_END	n/a	n/a	n/a	n/a	-999	9	[0, 0, 0]	n/a	catFR1	2	R1354E
1074.564	0.0	1075911	TRIAL_START	n/a	n/a	n/a	n/a	-999	10	[0, 0, 0]	n/a	catFR1	2	R1354E
1074.564	0.0	1075911	TRIAL	n/a	n/a	n/a	n/a	-999	10	[0, 0, 0]	n/a	catFR1	2	R1354E
1074.564	9.866	1075911	WAITING_START	n/a	n/a	n/a	n/a	-999	10	[0, 0, 0]	n/a	catFR1	2	R1354E
1084.43	0.0	1085777	WAITING_END	n/a	n/a	n/a	n/a	-999	10	[0, 0, 0]	n/a	catFR1	2	R1354E
1084.43	10.429	1085777	COUNTDOWN_START	n/a	n/a	n/a	n/a	-999	10	[0, 0, 0]	n/a	catFR1	2	R1354E
1094.859	0.0	1096205	ORIENT_START	n/a	n/a	n/a	n/a	-999	10	[0, 0, 0]	n/a	catFR1	2	R1354E
1094.859	1.138	1096205	COUNTDOWN_END	n/a	n/a	n/a	n/a	-999	10	[0, 0, 0]	n/a	catFR1	2	R1354E
1095.997	0.001	1097343	ORIENT_END	n/a	n/a	n/a	n/a	-999	10	[0, 0, 0]	n/a	catFR1	2	R1354E
1095.998	1.089	1097344	ENCODING_START	n/a	n/a	n/a	n/a	-999	10	[0, 0, 0]	n/a	catFR1	2	R1354E
1097.087	1.627	1098433	WORD	n/a	wordpools/wordpool_categorized_EN.txt	ROBIN	Birds	1	10	[0, 0, 0]	n/a	catFR1	2	R1354E
1098.714	1.029	1100060	WORD_OFF	n/a	n/a	ROBIN	Birds	1	10	[0, 0, 0]	n/a	catFR1	2	R1354E
1099.743	1.623	1101089	WORD	n/a	wordpools/wordpool_categorized_EN.txt	DOVE	Birds	2	10	[0, 0, 0]	n/a	catFR1	2	R1354E
1101.366	1.145	1102712	WORD_OFF	n/a	n/a	DOVE	Birds	2	10	[0, 0, 0]	n/a	catFR1	2	R1354E
1102.511	1.638	1103857	WORD	n/a	wordpools/wordpool_categorized_EN.txt	PRINTER	Electronics	3	10	[0, 0, 0]	n/a	catFR1	2	R1354E
1104.149	0.985	1105495	WORD_OFF	n/a	n/a	PRINTER	Electronics	3	10	[0, 0, 0]	n/a	catFR1	2	R1354E
1105.134	1.632	1106480	WORD	n/a	wordpools/wordpool_categorized_EN.txt	CALCULATOR	Electronics	4	10	[0, 0, 0]	n/a	catFR1	2	R1354E
1106.766	0.953	1108112	WORD_OFF	n/a	n/a	CALCULATOR	Electronics	4	10	[0, 0, 0]	n/a	catFR1	2	R1354E
1107.719	1.615	1109065	WORD	n/a	wordpools/wordpool_categorized_EN.txt	SHOVEL	Tools	5	10	[0, 0, 0]	n/a	catFR1	2	R1354E
1109.334	0.759	1110680	WORD_OFF	n/a	n/a	SHOVEL	Tools	5	10	[0, 0, 0]	n/a	catFR1	2	R1354E
1110.093	1.624	1111439	WORD	n/a	wordpools/wordpool_categorized_EN.txt	CROWBAR	Tools	6	10	[0, 0, 0]	n/a	catFR1	2	R1354E
1111.717	1.044	1113063	WORD_OFF	n/a	n/a	CROWBAR	Tools	6	10	[0, 0, 0]	n/a	catFR1	2	R1354E
1112.761	1.624	1114107	WORD	n/a	wordpools/wordpool_categorized_EN.txt	SPARROW	Birds	7	10	[0, 0, 0]	n/a	catFR1	2	R1354E
1114.385	1.023	1115730	WORD_OFF	n/a	n/a	SPARROW	Birds	7	10	[0, 0, 0]	n/a	catFR1	2	R1354E
1115.408	1.626	1116753	WORD	n/a	wordpools/wordpool_categorized_EN.txt	HAWK	Birds	8	10	[0, 0, 0]	n/a	catFR1	2	R1354E
1117.034	1.131	1118379	WORD_OFF	n/a	n/a	HAWK	Birds	8	10	[0, 0, 0]	n/a	catFR1	2	R1354E
1118.165	1.62	1119510	WORD	n/a	wordpools/wordpool_categorized_EN.txt	SAW	Tools	9	10	[0, 0, 0]	n/a	catFR1	2	R1354E
1119.785	1.005	1121130	WORD_OFF	n/a	n/a	SAW	Tools	9	10	[0, 0, 0]	n/a	catFR1	2	R1354E
1120.79	1.63	1122135	WORD	n/a	wordpools/wordpool_categorized_EN.txt	LEVEL	Tools	10	10	[0, 0, 0]	n/a	catFR1	2	R1354E
1122.42	1.135	1123765	WORD_OFF	n/a	n/a	LEVEL	Tools	10	10	[0, 0, 0]	n/a	catFR1	2	R1354E
1123.555	1.631	1124900	WORD	n/a	wordpools/wordpool_categorized_EN.txt	MICROWAVE	Electronics	11	10	[0, 0, 0]	n/a	catFR1	2	R1354E
1125.186	0.893	1126531	WORD_OFF	n/a	n/a	MICROWAVE	Electronics	11	10	[0, 0, 0]	n/a	catFR1	2	R1354E
1126.079	1.624	1127424	WORD	n/a	wordpools/wordpool_categorized_EN.txt	COMPUTER	Electronics	12	10	[0, 0, 0]	n/a	catFR1	2	R1354E
1127.703	0.0	1129048	WORD_OFF	n/a	n/a	COMPUTER	Electronics	12	10	[0, 0, 0]	n/a	catFR1	2	R1354E
1127.703	0.0	1129048	ENCODING_END	n/a	n/a	n/a	n/a	-999	10	[0, 0, 0]	n/a	catFR1	2	R1354E
1127.703	0.001	1129048	DISTRACT_START	n/a	n/a	n/a	n/a	-999	10	[0, 0, 0]	n/a	catFR1	2	R1354E
1127.704	0.015	1129049	START	n/a	n/a	n/a	n/a	-999	10	[-999, -999, -999]	n/a	catFR1	2	R1354E
1127.719	2.584	1129064	PROB	2.559	n/a	n/a	n/a	-999	10	[3, 8, 7]	18.0	catFR1	2	R1354E
1130.303	1.85	1131648	PROB	1.816	n/a	n/a	n/a	-999	10	[2, 7, 5]	14.0	catFR1	2	R1354E
1132.153	2.084	1133498	PROB	2.045	n/a	n/a	n/a	-999	10	[3, 8, 5]	16.0	catFR1	2	R1354E
1134.237	1.617	1135582	PROB	1.578	n/a	n/a	n/a	-999	10	[8, 4, 8]	20.0	catFR1	2	R1354E
1135.854	1.95	1137199	PROB	1.912	n/a	n/a	n/a	-999	10	[7, 3, 5]	15.0	catFR1	2	R1354E
1137.804	3.552	1139149	PROB	3.515	n/a	n/a	n/a	-999	10	[7, 3, 8]	18.0	catFR1	2	R1354E
1141.356	2.0	1142701	PROB	1.964	n/a	n/a	n/a	-999	10	[7, 1, 5]	13.0	catFR1	2	R1354E
1143.356	1.883	1144700	PROB	1.851	n/a	n/a	n/a	-999	10	[4, 7, 4]	15.0	catFR1	2	R1354E
1145.239	2.101	1146583	PROB	2.063	n/a	n/a	n/a	-999	10	[6, 9, 3]	18.0	catFR1	2	R1354E
1147.34	2.571	1148684	PROB	2.571	n/a	n/a	n/a	-999	10	[8, 6, 2]	16.0	catFR1	2	R1354E
1149.911	0.012	1151255	STOP	n/a	n/a	n/a	n/a	-999	10	[-999, -999, -999]	n/a	catFR1	2	R1354E
1149.923	0.62	1151267	DISTRACT_END	n/a	n/a	n/a	n/a	-999	10	[0, 0, 0]	n/a	catFR1	2	R1354E
1150.543	1.714	1151887	RETRIEVAL_ORIENT_START	n/a	n/a	n/a	n/a	-999	10	[0, 0, 0]	n/a	catFR1	2	R1354E
1152.257	0.0	1153601	RETRIEVAL_ORIENT_END	n/a	n/a	n/a	n/a	-999	10	[0, 0, 0]	n/a	catFR1	2	R1354E
1152.257	1.281	1153601	REC_START	n/a	n/a	n/a	n/a	-999	10	[0, 0, 0]	n/a	catFR1	2	R1354E
1153.538	13.652	1154882	REC_WORD	1.281	n/a	HAWK	Birds	8	10	[0, 0, 0]	n/a	catFR1	2	R1354E
1167.19	15.08	1168534	REC_WORD	14.933	n/a	SHOVEL	Tools	5	10	[0, 0, 0]	n/a	catFR1	2	R1354E
1182.27	0.0	1183613	REC_END	n/a	n/a	n/a	n/a	-999	10	[0, 0, 0]	n/a	catFR1	2	R1354E
1182.27	0.026	1183613	TRIAL_END	n/a	n/a	n/a	n/a	-999	10	[0, 0, 0]	n/a	catFR1	2	R1354E
1182.296	0.001	1183639	TRIAL_START	n/a	n/a	n/a	n/a	-999	11	[0, 0, 0]	n/a	catFR1	2	R1354E
1182.297	0.0	1183640	WAITING_START	n/a	n/a	n/a	n/a	-999	11	[0, 0, 0]	n/a	catFR1	2	R1354E
1182.297	1.582	1183640	TRIAL	n/a	n/a	n/a	n/a	-999	11	[0, 0, 0]	n/a	catFR1	2	R1354E
1183.879	0.001	1185222	WAITING_END	n/a	n/a	n/a	n/a	-999	11	[0, 0, 0]	n/a	catFR1	2	R1354E
1183.88	10.428	1185223	COUNTDOWN_START	n/a	n/a	n/a	n/a	-999	11	[0, 0, 0]	n/a	catFR1	2	R1354E
1194.308	0.001	1195651	COUNTDOWN_END	n/a	n/a	n/a	n/a	-999	11	[0, 0, 0]	n/a	catFR1	2	R1354E
1194.309	1.107	1195652	ORIENT_START	n/a	n/a	n/a	n/a	-999	11	[0, 0, 0]	n/a	catFR1	2	R1354E
1195.416	0.0	1196759	ORIENT_END	n/a	n/a	n/a	n/a	-999	11	[0, 0, 0]	n/a	catFR1	2	R1354E
1195.416	0.912	1196759	ENCODING_START	n/a	n/a	n/a	n/a	-999	11	[0, 0, 0]	n/a	catFR1	2	R1354E
1196.328	1.62	1197671	WORD	n/a	wordpools/wordpool_categorized_EN.txt	FINCH	Birds	1	11	[0, 0, 0]	n/a	catFR1	2	R1354E
1197.948	1.047	1199291	WORD_OFF	n/a	n/a	FINCH	Birds	1	11	[0, 0, 0]	n/a	catFR1	2	R1354E
1198.995	1.637	1200338	WORD	n/a	wordpools/wordpool_categorized_EN.txt	GOOSE	Birds	2	11	[0, 0, 0]	n/a	catFR1	2	R1354E
1200.632	1.1	1201974	WORD_OFF	n/a	n/a	GOOSE	Birds	2	11	[0, 0, 0]	n/a	catFR1	2	R1354E
1201.732	1.635	1203074	WORD	n/a	wordpools/wordpool_categorized_EN.txt	BANJO	Instruments	3	11	[0, 0, 0]	n/a	catFR1	2	R1354E
1203.367	1.038	1204709	WORD_OFF	n/a	n/a	BANJO	Instruments	3	11	[0, 0, 0]	n/a	catFR1	2	R1354E
1204.405	1.628	1205747	WORD	n/a	wordpools/wordpool_categorized_EN.txt	FLUTE	Instruments	4	11	[0, 0, 0]	n/a	catFR1	2	R1354E
1206.033	0.869	1207375	WORD_OFF	n/a	n/a	FLUTE	Instruments	4	11	[0, 0, 0]	n/a	catFR1	2	R1354E
1206.902	1.615	1208244	WORD	n/a	wordpools/wordpool_categorized_EN.txt	GIRAFFE	Zoo	5	11	[0, 0, 0]	n/a	catFR1	2	R1354E
1208.517	0.829	1209859	WORD_OFF	n/a	n/a	GIRAFFE	Zoo	5	11	[0, 0, 0]	n/a	catFR1	2	R1354E
1209.346	1.621	1210688	WORD	n/a	wordpools/wordpool_categorized_EN.txt	BEAR	Zoo	6	11	[0, 0, 0]	n/a	catFR1	2	R1354E
1210.967	1.125	1212309	WORD_OFF	n/a	n/a	BEAR	Zoo	6	11	[0, 0, 0]	n/a	catFR1	2	R1354E
1212.092	1.626	1213434	WORD	n/a	wordpools/wordpool_categorized_EN.txt	CARDINAL	Birds	7	11	[0, 0, 0]	n/a	catFR1	2	R1354E
1213.718	1.141	1215060	WORD_OFF	n/a	n/a	CARDINAL	Birds	7	11	[0, 0, 0]	n/a	catFR1	2	R1354E
1214.859	1.626	1216201	WORD	n/a	wordpools/wordpool_categorized_EN.txt	DUCK	Birds	8	11	[0, 0, 0]	n/a	catFR1	2	R1354E
1216.485	0.968	1217827	WORD_OFF	n/a	n/a	DUCK	Birds	8	11	[0, 0, 0]	n/a	catFR1	2	R1354E
1217.453	1.632	1218795	WORD	n/a	wordpools/wordpool_categorized_EN.txt	GUITAR	Instruments	9	11	[0, 0, 0]	n/a	catFR1	2	R1354E
1219.085	1.069	1220427	WORD_OFF	n/a	n/a	GUITAR	Instruments	9	11	[0, 0, 0]	n/a	catFR1	2	R1354E
1220.154	1.632	1221496	WORD	n/a	wordpools/wordpool_categorized_EN.txt	TUBA	Instruments	10	11	[0, 0, 0]	n/a	catFR1	2	R1354E
1221.786	0.99	1223128	WORD_OFF	n/a	n/a	TUBA	Instruments	10	11	[0, 0, 0]	n/a	catFR1	2	R1354E
1222.776	1.628	1224118	WORD	n/a	wordpools/wordpool_categorized_EN.txt	LION	Zoo	11	11	[0, 0, 0]	n/a	catFR1	2	R1354E
1224.404	0.927	1225746	WORD_OFF	n/a	n/a	LION	Zoo	11	11	[0, 0, 0]	n/a	catFR1	2	R1354E
1225.331	1.622	1226673	WORD	n/a	wordpools/wordpool_categorized_EN.txt	ZEBRA	Zoo	12	11	[0, 0, 0]	n/a	catFR1	2	R1354E
1226.953	0.001	1228295	WORD_OFF	n/a	n/a	ZEBRA	Zoo	12	11	[0, 0, 0]	n/a	catFR1	2	R1354E
1226.954	0.0	1228296	ENCODING_END	n/a	n/a	n/a	n/a	-999	11	[0, 0, 0]	n/a	catFR1	2	R1354E
1226.954	0.0	1228296	DISTRACT_START	n/a	n/a	n/a	n/a	-999	11	[0, 0, 0]	n/a	catFR1	2	R1354E
1226.954	0.016	1228296	START	n/a	n/a	n/a	n/a	-999	11	[-999, -999, -999]	n/a	catFR1	2	R1354E
1226.97	2.167	1228312	PROB	2.143	n/a	n/a	n/a	-999	11	[1, 7, 8]	16.0	catFR1	2	R1354E
1229.137	1.617	1230478	PROB	1.592	n/a	n/a	n/a	-999	11	[1, 5, 9]	15.0	catFR1	2	R1354E
1230.754	1.534	1232095	PROB	1.503	n/a	n/a	n/a	-999	11	[7, 2, 3]	12.0	catFR1	2	R1354E
1232.288	1.433	1233629	PROB	1.401	n/a	n/a	n/a	-999	11	[6, 4, 8]	18.0	catFR1	2	R1354E
1233.721	2.467	1235062	PROB	2.432	n/a	n/a	n/a	-999	11	[7, 2, 5]	14.0	catFR1	2	R1354E
1236.188	1.35	1237529	PROB	1.317	n/a	n/a	n/a	-999	11	[6, 5, 2]	13.0	catFR1	2	R1354E
1237.538	2.819	1238879	PROB	2.792	n/a	n/a	n/a	-999	11	[9, 7, 9]	25.0	catFR1	2	R1354E
1240.357	2.749	1241698	PROB	2.724	n/a	n/a	n/a	-999	11	[7, 8, 5]	29.0	catFR1	2	R1354E
1243.106	2.984	1244447	PROB	2.959	n/a	n/a	n/a	-999	11	[8, 2, 9]	19.0	catFR1	2	R1354E
1246.09	2.336	1247431	PROB	2.336	n/a	n/a	n/a	-999	11	[1, 3, 5]	9.0	catFR1	2	R1354E
1248.426	0.016	1249767	STOP	n/a	n/a	n/a	n/a	-999	11	[-999, -999, -999]	n/a	catFR1	2	R1354E
1248.442	0.604	1249783	DISTRACT_END	n/a	n/a	n/a	n/a	-999	11	[0, 0, 0]	n/a	catFR1	2	R1354E
1249.046	1.595	1250387	RETRIEVAL_ORIENT_START	n/a	n/a	n/a	n/a	-999	11	[0, 0, 0]	n/a	catFR1	2	R1354E
1250.641	0.0	1251982	RETRIEVAL_ORIENT_END	n/a	n/a	n/a	n/a	-999	11	[0, 0, 0]	n/a	catFR1	2	R1354E
1250.641	0.363	1251982	REC_START	n/a	n/a	n/a	n/a	-999	11	[0, 0, 0]	n/a	catFR1	2	R1354E
1251.004	0.747	1252345	REC_WORD	0.363	n/a	DUCK	Birds	8	11	[0, 0, 0]	n/a	catFR1	2	R1354E
1251.751	177.767	1253092	REC_WORD	1.11	n/a	LION	Zoo	11	11	[0, 0, 0]	n/a	catFR1	2	R1354E
1429.518	21.759	1430852	INSTRUCT_START	n/a	n/a	n/a	n/a	-999	11	[0, 0, 0]	n/a	catFR1	2	R1354E
1451.277	3.65	1452611	INSTRUCT_END	n/a	n/a	n/a	n/a	-999	11	[0, 0, 0]	n/a	catFR1	2	R1354E
1454.927	8.442	1456261	MIC TEST_START	n/a	n/a	n/a	n/a	-999	11	[0, 0, 0]	n/a	catFR1	2	R1354E
1463.369	0.013	1464702	MIC TEST_END	n/a	n/a	n/a	n/a	-999	11	[0, 0, 0]	n/a	catFR1	2	R1354E
1463.382	0.0	1464715	TRIAL_START	n/a	n/a	n/a	n/a	-999	-1	[0, 0, 0]	n/a	catFR1	2	R1354E
1463.382	0.0	1464715	TRIAL	n/a	n/a	n/a	n/a	-999	-1	[0, 0, 0]	n/a	catFR1	2	R1354E
1463.382	0.998	1464715	WAITING_START	n/a	n/a	n/a	n/a	-999	-1	[0, 0, 0]	n/a	catFR1	2	R1354E
1464.38	0.0	1465713	COUNTDOWN_START	n/a	n/a	n/a	n/a	-999	-1	[0, 0, 0]	n/a	catFR1	2	R1354E
1464.38	10.43	1465713	WAITING_END	n/a	n/a	n/a	n/a	-999	-1	[0, 0, 0]	n/a	catFR1	2	R1354E
1474.81	0.0	1476143	COUNTDOWN_END	n/a	n/a	n/a	n/a	-999	-1	[0, 0, 0]	n/a	catFR1	2	R1354E
1474.81	1.121	1476143	ORIENT_START	n/a	n/a	n/a	n/a	-999	-1	[0, 0, 0]	n/a	catFR1	2	R1354E
1475.931	0.0	1477264	ORIENT_END	n/a	n/a	n/a	n/a	-999	-1	[0, 0, 0]	n/a	catFR1	2	R1354E
1475.931	0.826	1477264	ENCODING_START	n/a	n/a	n/a	n/a	-999	-1	[0, 0, 0]	n/a	catFR1	2	R1354E
1476.757	1.609	1478090	WORD	n/a	n/a	WOOL	n/a	1	-1	[0, 0, 0]	n/a	catFR1	2	R1354E
1478.366	0.832	1479699	WORD_OFF	n/a	n/a	WOOL	n/a	1	-1	[0, 0, 0]	n/a	catFR1	2	R1354E
1479.198	1.634	1480531	WORD	n/a	n/a	FIREMAN	n/a	2	-1	[0, 0, 0]	n/a	catFR1	2	R1354E
1480.832	0.921	1482165	WORD_OFF	n/a	n/a	FIREMAN	n/a	2	-1	[0, 0, 0]	n/a	catFR1	2	R1354E
1481.753	1.63	1483086	WORD	n/a	n/a	DAY	n/a	3	-1	[0, 0, 0]	n/a	catFR1	2	R1354E
1483.383	1.146	1484716	WORD_OFF	n/a	n/a	DAY	n/a	3	-1	[0, 0, 0]	n/a	catFR1	2	R1354E
1484.529	1.637	1485862	WORD	n/a	n/a	PLUMBER	n/a	4	-1	[0, 0, 0]	n/a	catFR1	2	R1354E
1486.166	0.952	1487498	WORD_OFF	n/a	n/a	PLUMBER	n/a	4	-1	[0, 0, 0]	n/a	catFR1	2	R1354E
1487.118	1.632	1488450	WORD	n/a	n/a	SILK	n/a	5	-1	[0, 0, 0]	n/a	catFR1	2	R1354E
1488.75	0.927	1490082	WORD_OFF	n/a	n/a	SILK	n/a	5	-1	[0, 0, 0]	n/a	catFR1	2	R1354E
1489.677	1.623	1491009	WORD	n/a	n/a	HOUR	n/a	6	-1	[0, 0, 0]	n/a	catFR1	2	R1354E
1491.3	0.822	1492632	WORD_OFF	n/a	n/a	HOUR	n/a	6	-1	[0, 0, 0]	n/a	catFR1	2	R1354E
1492.122	1.629	1493454	WORD	n/a	n/a	MINUTE	n/a	7	-1	[0, 0, 0]	n/a	catFR1	2	R1354E
1493.751	1.033	1495083	WORD_OFF	n/a	n/a	MINUTE	n/a	7	-1	[0, 0, 0]	n/a	catFR1	2	R1354E
1494.784	1.635	1496116	WORD	n/a	n/a	FARMER	n/a	8	-1	[0, 0, 0]	n/a	catFR1	2	R1354E
1496.419	0.986	1497751	WORD_OFF	n/a	n/a	FARMER	n/a	8	-1	[0, 0, 0]	n/a	catFR1	2	R1354E
1497.405	1.63	1498737	WORD	n/a	n/a	DENIM	n/a	9	-1	[0, 0, 0]	n/a	catFR1	2	R1354E
1499.035	0.836	1500367	WORD_OFF	n/a	n/a	DENIM	n/a	9	-1	[0, 0, 0]	n/a	catFR1	2	R1354E
1499.871	1.631	1501203	WORD	n/a	n/a	TEACHER	n/a	10	-1	[0, 0, 0]	n/a	catFR1	2	R1354E
1501.502	1.121	1502834	WORD_OFF	n/a	n/a	TEACHER	n/a	10	-1	[0, 0, 0]	n/a	catFR1	2	R1354E
1502.623	1.629	1503955	WORD	n/a	n/a	SECOND	n/a	11	-1	[0, 0, 0]	n/a	catFR1	2	R1354E
1504.252	1.014	1505584	WORD_OFF	n/a	n/a	SECOND	n/a	11	-1	[0, 0, 0]	n/a	catFR1	2	R1354E
1505.266	1.637	1506598	WORD	n/a	n/a	LEATHER	n/a	12	-1	[0, 0, 0]	n/a	catFR1	2	R1354E
1506.903	0.0	1508235	DISTRACT_START	n/a	n/a	n/a	n/a	-999	-1	[0, 0, 0]	n/a	catFR1	2	R1354E
1506.903	0.0	1508235	WORD_OFF	n/a	n/a	LEATHER	n/a	12	-1	[0, 0, 0]	n/a	catFR1	2	R1354E
1506.903	0.001	1508235	ENCODING_END	n/a	n/a	n/a	n/a	-999	-1	[0, 0, 0]	n/a	catFR1	2	R1354E
1506.904	0.015	1508236	START	n/a	n/a	n/a	n/a	-999	12	[-999, -999, -999]	n/a	catFR1	2	R1354E
1506.919	3.184	1508251	PROB	3.162	n/a	n/a	n/a	-999	12	[7, 5, 7]	19.0	catFR1	2	R1354E
1510.103	2.684	1511435	PROB	2.65	n/a	n/a	n/a	-999	12	[4, 5, 4]	13.0	catFR1	2	R1354E
1512.787	2.801	1514119	PROB	2.774	n/a	n/a	n/a	-999	12	[8, 7, 9]	24.0	catFR1	2	R1354E
1515.588	1.333	1516919	PROB	1.31	n/a	n/a	n/a	-999	12	[4, 5, 1]	10.0	catFR1	2	R1354E
1516.921	1.334	1518252	PROB	1.297	n/a	n/a	n/a	-999	12	[5, 2, 3]	10.0	catFR1	2	R1354E
1518.255	1.5	1519586	PROB	1.466	n/a	n/a	n/a	-999	12	[9, 8, 2]	19.0	catFR1	2	R1354E
1519.755	1.267	1521086	PROB	1.23	n/a	n/a	n/a	-999	12	[2, 5, 5]	12.0	catFR1	2	R1354E
1521.022	1.033	1522353	PROB	0.996	n/a	n/a	n/a	-999	12	[1, 1, 7]	9.0	catFR1	2	R1354E
1522.055	1.867	1523386	PROB	1.843	n/a	n/a	n/a	-999	12	[5, 8, 6]	19.0	catFR1	2	R1354E
1523.922	1.917	1525253	PROB	1.887	n/a	n/a	n/a	-999	12	[7, 4, 5]	16.0	catFR1	2	R1354E
1525.839	1.283	1527170	PROB	1.283	n/a	n/a	n/a	-999	12	[1, 4, 1]	6.0	catFR1	2	R1354E
1527.122	0.018	1528453	STOP	n/a	n/a	n/a	n/a	-999	12	[-999, -999, -999]	n/a	catFR1	2	R1354E
1527.14	0.509	1528471	DISTRACT_END	n/a	n/a	n/a	n/a	-999	-1	[0, 0, 0]	n/a	catFR1	2	R1354E
1527.649	1.725	1528980	RETRIEVAL_ORIENT_START	n/a	n/a	n/a	n/a	-999	-1	[0, 0, 0]	n/a	catFR1	2	R1354E
1529.374	0.001	1530705	RETRIEVAL_ORIENT_END	n/a	n/a	n/a	n/a	-999	-1	[0, 0, 0]	n/a	catFR1	2	R1354E
1529.375	0.551	1530706	REC_START	n/a	n/a	n/a	n/a	-999	-1	[0, 0, 0]	n/a	catFR1	2	R1354E
1529.926	1.362	1531257	REC_WORD	0.551	n/a	TEACHER	n/a	10	-1	[0, 0, 0]	n/a	catFR1	2	R1354E
1531.288	1.526	1532619	REC_WORD	1.913	n/a	DENIM	n/a	9	-1	[0, 0, 0]	n/a	catFR1	2	R1354E
1532.814	1.287	1534145	REC_WORD	3.439	n/a	HOUR	n/a	6	-1	[0, 0, 0]	n/a	catFR1	2	R1354E
1534.101	3.207	1535432	REC_WORD	4.726	n/a	MINUTE	n/a	7	-1	[0, 0, 0]	n/a	catFR1	2	R1354E
1537.308	22.077	1538639	REC_WORD_VV	7.933	n/a	<>	n/a	-999	-1	[0, 0, 0]	n/a	catFR1	2	R1354E
1559.385	0.0	1560715	REC_END	n/a	n/a	n/a	n/a	-999	-1	[0, 0, 0]	n/a	catFR1	2	R1354E
1559.385	49.503	1560715	PRACTICE_POST_INSTRUCT_START	n/a	n/a	n/a	n/a	-999	-1	[0, 0, 0]	n/a	catFR1	2	R1354E
1608.888	0.0	1610216	PRACTICE_POST_INSTRUCT_END	n/a	n/a	n/a	n/a	-999	-1	[0, 0, 0]	n/a	catFR1	2	R1354E
1608.888	0.031	1610216	TRIAL_END	n/a	n/a	n/a	n/a	-999	-1	[0, 0, 0]	n/a	catFR1	2	R1354E
1608.919	0.001	1610247	TRIAL_START	n/a	n/a	n/a	n/a	-999	1	[0, 0, 0]	n/a	catFR1	2	R1354E
1608.92	0.0	1610248	TRIAL	n/a	n/a	n/a	n/a	-999	1	[0, 0, 0]	n/a	catFR1	2	R1354E
1608.92	0.0	1610248	WAITING_START	n/a	n/a	n/a	n/a	-999	1	[0, 0, 0]	n/a	catFR1	2	R1354E
