onset	duration	sample	trial_type	response_time	stim_file	item_name	category	serialpos	list	test	answer	experiment	session	subject
0.0	8.666	358304	INSTRUCT_START	n/a	n/a	n/a	n/a	-999	-999	[0, 0, 0]	n/a	catFR1	3	R1527J
8.666	27.981	366966	INSTRUCT_END	n/a	n/a	n/a	n/a	-999	-999	[0, 0, 0]	n/a	catFR1	3	R1527J
36.647	10.352	394944	COUNTDOWN_START	n/a	n/a	n/a	n/a	-999	-999	[0, 0, 0]	n/a	catFR1	3	R1527J
46.999	0.0	405296	COUNTDOWN_END	n/a	n/a	n/a	n/a	-999	-999	[0, 0, 0]	n/a	catFR1	3	R1527J
46.999	2.067	405305	ENCODING_START	n/a	n/a	n/a	n/a	-999	-1	[0, 0, 0]	n/a	catFR1	3	R1527J
49.066	1.6	407362	WORD	n/a	n/a	JEANS	Clothing	1	-1	[0, 0, 0]	n/a	catFR1	3	R1527J
50.666	0.767	408960	WORD_OFF	n/a	n/a	JEANS	Clothing	1	-1	[0, 0, 0]	n/a	catFR1	3	R1527J
51.433	1.599	409732	WORD	n/a	n/a	BLOUSE	Clothing	2	-1	[0, 0, 0]	n/a	catFR1	3	R1527J
53.032	0.799	411330	WORD_OFF	n/a	n/a	BLOUSE	Clothing	2	-1	[0, 0, 0]	n/a	catFR1	3	R1527J
53.831	1.602	412129	WORD	n/a	n/a	BULL	FarmAnimals	3	-1	[0, 0, 0]	n/a	catFR1	3	R1527J
55.433	0.783	413728	WORD_OFF	n/a	n/a	BULL	FarmAnimals	3	-1	[0, 0, 0]	n/a	catFR1	3	R1527J
56.216	1.616	414518	WORD	n/a	n/a	TURKEY	FarmAnimals	4	-1	[0, 0, 0]	n/a	catFR1	3	R1527J
57.832	0.934	416125	WORD_OFF	n/a	n/a	TURKEY	FarmAnimals	4	-1	[0, 0, 0]	n/a	catFR1	3	R1527J
58.766	1.617	417062	WORD	n/a	n/a	DOOR	Building	5	-1	[0, 0, 0]	n/a	catFR1	3	R1527J
60.383	0.799	418678	WORD_OFF	n/a	n/a	DOOR	Building	5	-1	[0, 0, 0]	n/a	catFR1	3	R1527J
61.182	1.617	419478	WORD	n/a	n/a	FLOOR	Building	6	-1	[0, 0, 0]	n/a	catFR1	3	R1527J
62.799	0.967	421094	WORD_OFF	n/a	n/a	FLOOR	Building	6	-1	[0, 0, 0]	n/a	catFR1	3	R1527J
63.766	1.6	422059	WORD	n/a	n/a	ROOSTER	FarmAnimals	7	-1	[0, 0, 0]	n/a	catFR1	3	R1527J
65.366	0.866	423666	WORD_OFF	n/a	n/a	ROOSTER	FarmAnimals	7	-1	[0, 0, 0]	n/a	catFR1	3	R1527J
66.232	1.615	424529	WORD	n/a	n/a	COW	FarmAnimals	8	-1	[0, 0, 0]	n/a	catFR1	3	R1527J
67.847	0.885	426146	WORD_OFF	n/a	n/a	COW	FarmAnimals	8	-1	[0, 0, 0]	n/a	catFR1	3	R1527J
68.732	1.6	427028	WORD	n/a	n/a	DRESS	Clothing	9	-1	[0, 0, 0]	n/a	catFR1	3	R1527J
70.332	0.866	428626	WORD_OFF	n/a	n/a	DRESS	Clothing	9	-1	[0, 0, 0]	n/a	catFR1	3	R1527J
71.198	1.617	429499	WORD	n/a	n/a	SOCKS	Clothing	10	-1	[0, 0, 0]	n/a	catFR1	3	R1527J
72.815	0.916	431115	WORD_OFF	n/a	n/a	SOCKS	Clothing	10	-1	[0, 0, 0]	n/a	catFR1	3	R1527J
73.731	1.601	432024	WORD	n/a	n/a	ROOM	Building	11	-1	[0, 0, 0]	n/a	catFR1	3	R1527J
75.332	0.766	433632	WORD_OFF	n/a	n/a	ROOM	Building	11	-1	[0, 0, 0]	n/a	catFR1	3	R1527J
76.098	1.617	434394	WORD	n/a	n/a	WALL	Building	12	-1	[0, 0, 0]	n/a	catFR1	3	R1527J
77.715	0.001	436011	WORD_OFF	n/a	n/a	WALL	Building	12	-1	[0, 0, 0]	n/a	catFR1	3	R1527J
77.716	0.0	436011	ENCODING_END	n/a	n/a	n/a	n/a	-999	-1	[0, 0, 0]	n/a	catFR1	3	R1527J
77.716	0.0	436011	DISTRACT_START	n/a	n/a	n/a	n/a	-999	-1	[0, 0, 0]	n/a	catFR1	3	R1527J
77.716	0.0	436012	START	n/a	n/a	n/a	n/a	-999	-1	[-999, -999, -999]	n/a	catFR1	3	R1527J
77.716	3.266	436012	PROB	3.25	n/a	n/a	n/a	-999	-1	[7, 3, 7]	17.0	catFR1	3	R1527J
80.982	2.217	439278	PROB	2.199	n/a	n/a	n/a	-999	-1	[8, 6, 4]	18.0	catFR1	3	R1527J
83.199	3.501	441495	PROB	3.483	n/a	n/a	n/a	-999	-1	[5, 2, 7]	14.0	catFR1	3	R1527J
86.7	4.132	444996	PROB	4.115	n/a	n/a	n/a	-999	-1	[3, 5, 7]	15.0	catFR1	3	R1527J
90.832	4.25	449127	PROB	4.233	n/a	n/a	n/a	-999	-1	[6, 7, 7]	20.0	catFR1	3	R1527J
95.082	2.849	453377	PROB	2.832	n/a	n/a	n/a	-999	-1	[6, 7, 3]	16.0	catFR1	3	R1527J
97.931	0.0	456226	STOP	n/a	n/a	n/a	n/a	-999	-1	[-999, -999, -999]	n/a	catFR1	3	R1527J
97.931	1.534	456227	DISTRACT_END	n/a	n/a	n/a	n/a	-999	-1	[0, 0, 0]	n/a	catFR1	3	R1527J
99.465	1.227	457761	REC_START	n/a	n/a	n/a	n/a	-999	-1	[0, 0, 0]	n/a	catFR1	3	R1527J
100.692	1.354	458987	REC_WORD	1.227	n/a	JEANS	Clothing	1	-1	[0, 0, 0]	n/a	catFR1	3	R1527J
102.046	1.565	460341	REC_WORD	2.581	n/a	BLOUSE	Clothing	2	-1	[0, 0, 0]	n/a	catFR1	3	R1527J
103.611	1.256	461906	REC_WORD	4.146	n/a	BULL	FarmAnimals	3	-1	[0, 0, 0]	n/a	catFR1	3	R1527J
104.867	1.745	463162	REC_WORD	5.402	n/a	TURKEY	FarmAnimals	4	-1	[0, 0, 0]	n/a	catFR1	3	R1527J
106.612	1.321	464907	REC_WORD	7.147	n/a	FLOOR	Building	6	-1	[0, 0, 0]	n/a	catFR1	3	R1527J
107.933	2.248	466228	REC_WORD	8.468	n/a	WALL	Building	12	-1	[0, 0, 0]	n/a	catFR1	3	R1527J
110.181	6.86	468475	REC_WORD	10.716	n/a	SOCKS	Clothing	10	-1	[0, 0, 0]	n/a	catFR1	3	R1527J
117.041	12.599	475335	REC_WORD_VV	17.576	n/a	<>	n/a	-999	-1	[0, 0, 0]	n/a	catFR1	3	R1527J
129.64	4.876	487935	REC_END	n/a	n/a	n/a	n/a	-999	-1	[0, 0, 0]	n/a	catFR1	3	R1527J
134.516	10.35	492812	COUNTDOWN_START	n/a	n/a	n/a	n/a	-999	1	[0, 0, 0]	n/a	catFR1	3	R1527J
144.866	0.001	503154	COUNTDOWN_END	n/a	n/a	n/a	n/a	-999	1	[0, 0, 0]	n/a	catFR1	3	R1527J
144.867	2.099	503164	ENCODING_START	n/a	n/a	n/a	n/a	-999	1	[0, 0, 0]	n/a	catFR1	3	R1527J
146.966	1.617	505258	WORD	n/a	wordpools/wordpool_categorized_EN.txt	CARDINAL	Birds	1	1	[0, 0, 0]	n/a	catFR1	3	R1527J
148.583	0.949	506874	WORD_OFF	n/a	n/a	CARDINAL	Birds	1	1	[0, 0, 0]	n/a	catFR1	3	R1527J
149.532	1.6	507821	WORD	n/a	wordpools/wordpool_categorized_EN.txt	SEAGULL	Birds	2	1	[0, 0, 0]	n/a	catFR1	3	R1527J
151.132	0.8	509428	WORD_OFF	n/a	n/a	SEAGULL	Birds	2	1	[0, 0, 0]	n/a	catFR1	3	R1527J
151.932	1.6	510227	WORD	n/a	wordpools/wordpool_categorized_EN.txt	SATIN	Fabric	3	1	[0, 0, 0]	n/a	catFR1	3	R1527J
153.532	0.816	511825	WORD_OFF	n/a	n/a	SATIN	Fabric	3	1	[0, 0, 0]	n/a	catFR1	3	R1527J
154.348	1.601	512643	WORD	n/a	wordpools/wordpool_categorized_EN.txt	LEATHER	Fabric	4	1	[0, 0, 0]	n/a	catFR1	3	R1527J
155.949	0.815	514241	WORD_OFF	n/a	n/a	LEATHER	Fabric	4	1	[0, 0, 0]	n/a	catFR1	3	R1527J
156.764	1.602	515058	WORD	n/a	wordpools/wordpool_categorized_EN.txt	PAPER	OfficeSupplies	5	1	[0, 0, 0]	n/a	catFR1	3	R1527J
158.366	0.916	516657	WORD_OFF	n/a	n/a	PAPER	OfficeSupplies	5	1	[0, 0, 0]	n/a	catFR1	3	R1527J
159.282	1.616	517575	WORD	n/a	wordpools/wordpool_categorized_EN.txt	ERASER	OfficeSupplies	6	1	[0, 0, 0]	n/a	catFR1	3	R1527J
160.898	0.917	519192	WORD_OFF	n/a	n/a	ERASER	OfficeSupplies	6	1	[0, 0, 0]	n/a	catFR1	3	R1527J
161.815	1.616	520110	WORD	n/a	wordpools/wordpool_categorized_EN.txt	NYLON	Fabric	7	1	[0, 0, 0]	n/a	catFR1	3	R1527J
163.431	0.902	521727	WORD_OFF	n/a	n/a	NYLON	Fabric	7	1	[0, 0, 0]	n/a	catFR1	3	R1527J
164.333	1.616	522627	WORD	n/a	wordpools/wordpool_categorized_EN.txt	COTTON	Fabric	8	1	[0, 0, 0]	n/a	catFR1	3	R1527J
165.949	0.782	524244	WORD_OFF	n/a	n/a	COTTON	Fabric	8	1	[0, 0, 0]	n/a	catFR1	3	R1527J
166.731	1.6	525024	WORD	n/a	wordpools/wordpool_categorized_EN.txt	PEN	OfficeSupplies	9	1	[0, 0, 0]	n/a	catFR1	3	R1527J
168.331	0.85	526623	WORD_OFF	n/a	n/a	PEN	OfficeSupplies	9	1	[0, 0, 0]	n/a	catFR1	3	R1527J
169.181	1.618	527477	WORD	n/a	wordpools/wordpool_categorized_EN.txt	BINDER	OfficeSupplies	10	1	[0, 0, 0]	n/a	catFR1	3	R1527J
170.799	0.8	529093	WORD_OFF	n/a	n/a	BINDER	OfficeSupplies	10	1	[0, 0, 0]	n/a	catFR1	3	R1527J
171.599	1.616	529893	WORD	n/a	wordpools/wordpool_categorized_EN.txt	CROW	Birds	11	1	[0, 0, 0]	n/a	catFR1	3	R1527J
173.215	0.983	531509	WORD_OFF	n/a	n/a	CROW	Birds	11	1	[0, 0, 0]	n/a	catFR1	3	R1527J
174.198	1.6	532492	WORD	n/a	wordpools/wordpool_categorized_EN.txt	PIGEON	Birds	12	1	[0, 0, 0]	n/a	catFR1	3	R1527J
175.798	0.001	534090	WORD_OFF	n/a	n/a	PIGEON	Birds	12	1	[0, 0, 0]	n/a	catFR1	3	R1527J
175.799	0.0	534090	ENCODING_END	n/a	n/a	n/a	n/a	-999	1	[0, 0, 0]	n/a	catFR1	3	R1527J
175.799	0.0	534090	DISTRACT_START	n/a	n/a	n/a	n/a	-999	1	[0, 0, 0]	n/a	catFR1	3	R1527J
175.799	0.0	534090	START	n/a	n/a	n/a	n/a	-999	1	[-999, -999, -999]	n/a	catFR1	3	R1527J
175.799	3.55	534090	PROB	3.533	n/a	n/a	n/a	-999	1	[8, 8, 4]	20.0	catFR1	3	R1527J
179.349	3.017	537640	PROB	3.0	n/a	n/a	n/a	-999	1	[2, 7, 5]	14.0	catFR1	3	R1527J
182.366	2.35	540657	PROB	2.332	n/a	n/a	n/a	-999	1	[2, 7, 5]	14.0	catFR1	3	R1527J
184.716	2.583	543006	PROB	2.565	n/a	n/a	n/a	-999	1	[4, 4, 2]	10.0	catFR1	3	R1527J
187.299	2.583	545589	PROB	2.565	n/a	n/a	n/a	-999	1	[7, 3, 4]	14.0	catFR1	3	R1527J
189.882	2.232	548172	PROB	2.216	n/a	n/a	n/a	-999	1	[5, 3, 3]	11.0	catFR1	3	R1527J
192.114	2.835	550404	PROB	2.816	n/a	n/a	n/a	-999	1	[6, 3, 5]	14.0	catFR1	3	R1527J
194.949	2.633	553239	PROB	2.617	n/a	n/a	n/a	-999	1	[2, 5, 8]	15.0	catFR1	3	R1527J
197.582	0.0	555872	STOP	n/a	n/a	n/a	n/a	-999	1	[-999, -999, -999]	n/a	catFR1	3	R1527J
197.582	1.665	555877	DISTRACT_END	n/a	n/a	n/a	n/a	-999	1	[0, 0, 0]	n/a	catFR1	3	R1527J
199.247	1.327	557540	REC_START	n/a	n/a	n/a	n/a	-999	1	[0, 0, 0]	n/a	catFR1	3	R1527J
200.574	0.869	558864	REC_WORD	1.327	n/a	CARDINAL	Birds	1	1	[0, 0, 0]	n/a	catFR1	3	R1527J
201.443	1.419	559733	REC_WORD	2.196	n/a	SEAGULL	Birds	2	1	[0, 0, 0]	n/a	catFR1	3	R1527J
202.862	5.364	561151	REC_WORD	3.615	n/a	CROW	Birds	11	1	[0, 0, 0]	n/a	catFR1	3	R1527J
208.226	0.689	566515	REC_WORD	8.979	n/a	PAPER	OfficeSupplies	5	1	[0, 0, 0]	n/a	catFR1	3	R1527J
208.915	1.617	567204	REC_WORD	9.668	n/a	ERASER	OfficeSupplies	6	1	[0, 0, 0]	n/a	catFR1	3	R1527J
210.532	3.375	568821	REC_WORD	11.285	n/a	BINDER	OfficeSupplies	10	1	[0, 0, 0]	n/a	catFR1	3	R1527J
213.907	1.645	572196	REC_WORD	14.66	n/a	SATIN	Fabric	3	1	[0, 0, 0]	n/a	catFR1	3	R1527J
215.552	1.823	573841	REC_WORD	16.305	n/a	LEATHER	Fabric	4	1	[0, 0, 0]	n/a	catFR1	3	R1527J
217.375	12.054	575664	REC_WORD	18.128	n/a	NYLON	Fabric	7	1	[0, 0, 0]	n/a	catFR1	3	R1527J
229.429	1.054	587717	REC_END	n/a	n/a	n/a	n/a	-999	1	[0, 0, 0]	n/a	catFR1	3	R1527J
230.483	10.348	588770	COUNTDOWN_START	n/a	n/a	n/a	n/a	-999	2	[0, 0, 0]	n/a	catFR1	3	R1527J
240.831	0.0	599121	COUNTDOWN_END	n/a	n/a	n/a	n/a	-999	2	[0, 0, 0]	n/a	catFR1	3	R1527J
240.831	2.184	599121	ENCODING_START	n/a	n/a	n/a	n/a	-999	2	[0, 0, 0]	n/a	catFR1	3	R1527J
243.015	1.601	601307	WORD	n/a	wordpools/wordpool_categorized_EN.txt	CEILING	Building	1	2	[0, 0, 0]	n/a	catFR1	3	R1527J
244.616	0.983	602906	WORD_OFF	n/a	n/a	CEILING	Building	1	2	[0, 0, 0]	n/a	catFR1	3	R1527J
245.599	1.6	603888	WORD	n/a	wordpools/wordpool_categorized_EN.txt	STAIRS	Building	2	2	[0, 0, 0]	n/a	catFR1	3	R1527J
247.199	0.951	605487	WORD_OFF	n/a	n/a	STAIRS	Building	2	2	[0, 0, 0]	n/a	catFR1	3	R1527J
248.15	1.616	606442	WORD	n/a	wordpools/wordpool_categorized_EN.txt	VAN	Vehicles	3	2	[0, 0, 0]	n/a	catFR1	3	R1527J
249.766	0.849	608049	WORD_OFF	n/a	n/a	VAN	Vehicles	3	2	[0, 0, 0]	n/a	catFR1	3	R1527J
250.615	1.601	608903	WORD	n/a	wordpools/wordpool_categorized_EN.txt	BIKE	Vehicles	4	2	[0, 0, 0]	n/a	catFR1	3	R1527J
252.216	0.833	610502	WORD_OFF	n/a	n/a	BIKE	Vehicles	4	2	[0, 0, 0]	n/a	catFR1	3	R1527J
253.049	1.6	611338	WORD	n/a	wordpools/wordpool_categorized_EN.txt	HURRICANE	Weather	5	2	[0, 0, 0]	n/a	catFR1	3	R1527J
254.649	0.816	612936	WORD_OFF	n/a	n/a	HURRICANE	Weather	5	2	[0, 0, 0]	n/a	catFR1	3	R1527J
255.465	1.601	613753	WORD	n/a	wordpools/wordpool_categorized_EN.txt	THUNDERSTORM	Weather	6	2	[0, 0, 0]	n/a	catFR1	3	R1527J
257.066	0.899	615351	WORD_OFF	n/a	n/a	THUNDERSTORM	Weather	6	2	[0, 0, 0]	n/a	catFR1	3	R1527J
257.965	1.6	616252	WORD	n/a	wordpools/wordpool_categorized_EN.txt	ROOF	Building	7	2	[0, 0, 0]	n/a	catFR1	3	R1527J
259.565	0.834	617850	WORD_OFF	n/a	n/a	ROOF	Building	7	2	[0, 0, 0]	n/a	catFR1	3	R1527J
260.399	1.617	618686	WORD	n/a	wordpools/wordpool_categorized_EN.txt	WINDOW	Building	8	2	[0, 0, 0]	n/a	catFR1	3	R1527J
262.016	0.933	620302	WORD_OFF	n/a	n/a	WINDOW	Building	8	2	[0, 0, 0]	n/a	catFR1	3	R1527J
262.949	1.616	621239	WORD	n/a	wordpools/wordpool_categorized_EN.txt	JEEP	Vehicles	9	2	[0, 0, 0]	n/a	catFR1	3	R1527J
264.565	0.868	622856	WORD_OFF	n/a	n/a	JEEP	Vehicles	9	2	[0, 0, 0]	n/a	catFR1	3	R1527J
265.433	1.614	623719	WORD	n/a	wordpools/wordpool_categorized_EN.txt	TRUCK	Vehicles	10	2	[0, 0, 0]	n/a	catFR1	3	R1527J
267.047	0.918	625336	WORD_OFF	n/a	n/a	TRUCK	Vehicles	10	2	[0, 0, 0]	n/a	catFR1	3	R1527J
267.965	1.616	626254	WORD	n/a	wordpools/wordpool_categorized_EN.txt	RAIN	Weather	11	2	[0, 0, 0]	n/a	catFR1	3	R1527J
269.581	0.868	627871	WORD_OFF	n/a	n/a	RAIN	Weather	11	2	[0, 0, 0]	n/a	catFR1	3	R1527J
270.449	1.616	628734	WORD	n/a	wordpools/wordpool_categorized_EN.txt	WIND	Weather	12	2	[0, 0, 0]	n/a	catFR1	3	R1527J
272.065	0.001	630351	WORD_OFF	n/a	n/a	WIND	Weather	12	2	[0, 0, 0]	n/a	catFR1	3	R1527J
272.066	0.0	630351	ENCODING_END	n/a	n/a	n/a	n/a	-999	2	[0, 0, 0]	n/a	catFR1	3	R1527J
272.066	0.0	630351	DISTRACT_START	n/a	n/a	n/a	n/a	-999	2	[0, 0, 0]	n/a	catFR1	3	R1527J
272.066	0.0	630352	START	n/a	n/a	n/a	n/a	-999	2	[-999, -999, -999]	n/a	catFR1	3	R1527J
272.066	2.967	630352	PROB	2.95	n/a	n/a	n/a	-999	2	[4, 5, 5]	14.0	catFR1	3	R1527J
275.033	6.016	633319	PROB	5.999	n/a	n/a	n/a	-999	2	[7, 4, 4]	15.0	catFR1	3	R1527J
281.049	2.933	639334	PROB	2.916	n/a	n/a	n/a	-999	2	[1, 3, 2]	5.0	catFR1	3	R1527J
283.982	3.4	642267	PROB	3.382	n/a	n/a	n/a	-999	2	[8, 8, 3]	19.0	catFR1	3	R1527J
287.382	2.216	645667	PROB	2.199	n/a	n/a	n/a	-999	2	[1, 1, 3]	5.0	catFR1	3	R1527J
289.598	2.467	647883	PROB	2.449	n/a	n/a	n/a	-999	2	[3, 5, 2]	10.0	catFR1	3	R1527J
292.065	0.0	650347	DISTRACT_END	n/a	n/a	n/a	n/a	-999	2	[0, 0, 0]	n/a	catFR1	3	R1527J
292.065	1.767	650350	STOP	n/a	n/a	n/a	n/a	-999	2	[-999, -999, -999]	n/a	catFR1	3	R1527J
293.832	0.853	652120	REC_START	n/a	n/a	n/a	n/a	-999	2	[0, 0, 0]	n/a	catFR1	3	R1527J
294.685	1.357	652970	REC_WORD	0.853	n/a	CEILING	Building	1	2	[0, 0, 0]	n/a	catFR1	3	R1527J
296.042	1.512	654326	REC_WORD	2.21	n/a	STAIRS	Building	2	2	[0, 0, 0]	n/a	catFR1	3	R1527J
297.554	1.791	655838	REC_WORD	3.722	n/a	VAN	Vehicles	3	2	[0, 0, 0]	n/a	catFR1	3	R1527J
299.345	2.259	657629	REC_WORD	5.513	n/a	TRUCK	Vehicles	10	2	[0, 0, 0]	n/a	catFR1	3	R1527J
301.604	2.861	659888	REC_WORD	7.772	n/a	BIKE	Vehicles	4	2	[0, 0, 0]	n/a	catFR1	3	R1527J
304.465	1.063	662749	REC_WORD	10.633	n/a	HURRICANE	Weather	5	2	[0, 0, 0]	n/a	catFR1	3	R1527J
305.528	1.0	663812	REC_WORD	11.696	n/a	THUNDERSTORM	Weather	6	2	[0, 0, 0]	n/a	catFR1	3	R1527J
306.528	1.072	664812	REC_WORD_VV	12.696	n/a	<>	n/a	-999	2	[0, 0, 0]	n/a	catFR1	3	R1527J
307.6	2.101	665884	REC_WORD	13.768	n/a	WIND	Weather	12	2	[0, 0, 0]	n/a	catFR1	3	R1527J
309.701	5.841	667985	REC_WORD	15.869	n/a	RAIN	Weather	11	2	[0, 0, 0]	n/a	catFR1	3	R1527J
315.542	8.498	673825	REC_WORD_VV	21.71	n/a	<>	n/a	-999	2	[0, 0, 0]	n/a	catFR1	3	R1527J
324.04	1.176	682321	REC_END	n/a	n/a	n/a	n/a	-999	2	[0, 0, 0]	n/a	catFR1	3	R1527J
325.216	10.349	683505	COUNTDOWN_START	n/a	n/a	n/a	n/a	-999	3	[0, 0, 0]	n/a	catFR1	3	R1527J
335.565	0.0	693848	COUNTDOWN_END	n/a	n/a	n/a	n/a	-999	3	[0, 0, 0]	n/a	catFR1	3	R1527J
335.565	1.935	693848	ENCODING_START	n/a	n/a	n/a	n/a	-999	3	[0, 0, 0]	n/a	catFR1	3	R1527J
337.5	1.616	695786	WORD	n/a	wordpools/wordpool_categorized_EN.txt	CARNATION	Flowers	1	3	[0, 0, 0]	n/a	catFR1	3	R1527J
339.116	0.999	697403	WORD_OFF	n/a	n/a	CARNATION	Flowers	1	3	[0, 0, 0]	n/a	catFR1	3	R1527J
340.115	1.601	698395	WORD	n/a	wordpools/wordpool_categorized_EN.txt	LILY	Flowers	2	3	[0, 0, 0]	n/a	catFR1	3	R1527J
341.716	0.966	700002	WORD_OFF	n/a	n/a	LILY	Flowers	2	3	[0, 0, 0]	n/a	catFR1	3	R1527J
342.682	1.617	700967	WORD	n/a	wordpools/wordpool_categorized_EN.txt	CUCUMBER	Vegetables	3	3	[0, 0, 0]	n/a	catFR1	3	R1527J
344.299	0.951	702583	WORD_OFF	n/a	n/a	CUCUMBER	Vegetables	3	3	[0, 0, 0]	n/a	catFR1	3	R1527J
345.25	1.615	703529	WORD	n/a	wordpools/wordpool_categorized_EN.txt	CARROT	Vegetables	4	3	[0, 0, 0]	n/a	catFR1	3	R1527J
346.865	0.884	705146	WORD_OFF	n/a	n/a	CARROT	Vegetables	4	3	[0, 0, 0]	n/a	catFR1	3	R1527J
347.749	1.616	706028	WORD	n/a	wordpools/wordpool_categorized_EN.txt	WOOL	Fabric	5	3	[0, 0, 0]	n/a	catFR1	3	R1527J
349.365	0.884	707644	WORD_OFF	n/a	n/a	WOOL	Fabric	5	3	[0, 0, 0]	n/a	catFR1	3	R1527J
350.249	1.6	708535	WORD	n/a	wordpools/wordpool_categorized_EN.txt	LINEN	Fabric	6	3	[0, 0, 0]	n/a	catFR1	3	R1527J
351.849	0.95	710133	WORD_OFF	n/a	n/a	LINEN	Fabric	6	3	[0, 0, 0]	n/a	catFR1	3	R1527J
352.799	1.6	711079	WORD	n/a	wordpools/wordpool_categorized_EN.txt	DAFFODIL	Flowers	7	3	[0, 0, 0]	n/a	catFR1	3	R1527J
354.399	0.9	712678	WORD_OFF	n/a	n/a	DAFFODIL	Flowers	7	3	[0, 0, 0]	n/a	catFR1	3	R1527J
355.299	1.616	713578	WORD	n/a	wordpools/wordpool_categorized_EN.txt	ORCHID	Flowers	8	3	[0, 0, 0]	n/a	catFR1	3	R1527J
356.915	0.801	715194	WORD_OFF	n/a	n/a	ORCHID	Flowers	8	3	[0, 0, 0]	n/a	catFR1	3	R1527J
357.716	1.616	715993	WORD	n/a	wordpools/wordpool_categorized_EN.txt	PEAS	Vegetables	9	3	[0, 0, 0]	n/a	catFR1	3	R1527J
359.332	0.916	717610	WORD_OFF	n/a	n/a	PEAS	Vegetables	9	3	[0, 0, 0]	n/a	catFR1	3	R1527J
360.248	1.616	718529	WORD	n/a	wordpools/wordpool_categorized_EN.txt	CELERY	Vegetables	10	3	[0, 0, 0]	n/a	catFR1	3	R1527J
361.864	0.785	720145	WORD_OFF	n/a	n/a	CELERY	Vegetables	10	3	[0, 0, 0]	n/a	catFR1	3	R1527J
362.649	1.617	720926	WORD	n/a	wordpools/wordpool_categorized_EN.txt	SILK	Fabric	11	3	[0, 0, 0]	n/a	catFR1	3	R1527J
364.266	0.931	722542	WORD_OFF	n/a	n/a	SILK	Fabric	11	3	[0, 0, 0]	n/a	catFR1	3	R1527J
365.197	1.601	723479	WORD	n/a	wordpools/wordpool_categorized_EN.txt	SPANDEX	Fabric	12	3	[0, 0, 0]	n/a	catFR1	3	R1527J
366.798	0.001	725078	WORD_OFF	n/a	n/a	SPANDEX	Fabric	12	3	[0, 0, 0]	n/a	catFR1	3	R1527J
366.799	0.0	725078	ENCODING_END	n/a	n/a	n/a	n/a	-999	3	[0, 0, 0]	n/a	catFR1	3	R1527J
366.799	0.0	725080	START	n/a	n/a	n/a	n/a	-999	3	[-999, -999, -999]	n/a	catFR1	3	R1527J
366.799	0.0	725080	PROB	6.15	n/a	n/a	n/a	-999	3	[8, 6, 5]	19.0	catFR1	3	R1527J
366.799	6.166	725087	DISTRACT_START	n/a	n/a	n/a	n/a	-999	3	[0, 0, 0]	n/a	catFR1	3	R1527J
372.965	3.667	731245	PROB	3.649	n/a	n/a	n/a	-999	3	[8, 2, 7]	17.0	catFR1	3	R1527J
376.632	3.318	734912	PROB	3.3	n/a	n/a	n/a	-999	3	[7, 6, 4]	17.0	catFR1	3	R1527J
379.95	2.347	738230	PROB	2.332	n/a	n/a	n/a	-999	3	[8, 5, 3]	16.0	catFR1	3	R1527J
382.297	4.369	740577	PROB	4.351	n/a	n/a	n/a	-999	3	[3, 6, 4]	13.0	catFR1	3	R1527J
386.666	1.782	744946	PROB	1.766	n/a	n/a	n/a	-999	3	[5, 5, 7]	17.0	catFR1	3	R1527J
388.448	0.0	746727	DISTRACT_END	n/a	n/a	n/a	n/a	-999	3	[0, 0, 0]	n/a	catFR1	3	R1527J
388.448	1.667	746728	STOP	n/a	n/a	n/a	n/a	-999	3	[-999, -999, -999]	n/a	catFR1	3	R1527J
390.115	1.182	748390	REC_START	n/a	n/a	n/a	n/a	-999	3	[0, 0, 0]	n/a	catFR1	3	R1527J
391.297	2.035	749576	REC_WORD	1.182	n/a	CARNATION	Flowers	1	3	[0, 0, 0]	n/a	catFR1	3	R1527J
393.332	1.623	751611	REC_WORD	3.217	n/a	DAFFODIL	Flowers	7	3	[0, 0, 0]	n/a	catFR1	3	R1527J
394.955	1.549	753234	REC_WORD	4.84	n/a	ORCHID	Flowers	8	3	[0, 0, 0]	n/a	catFR1	3	R1527J
396.504	2.074	754783	REC_WORD	6.389	n/a	CARROT	Vegetables	4	3	[0, 0, 0]	n/a	catFR1	3	R1527J
398.578	1.604	756857	REC_WORD	8.463	n/a	PEAS	Vegetables	9	3	[0, 0, 0]	n/a	catFR1	3	R1527J
400.182	2.857	758461	REC_WORD	10.067	n/a	CUCUMBER	Vegetables	3	3	[0, 0, 0]	n/a	catFR1	3	R1527J
403.039	9.686	761318	REC_WORD	12.924	n/a	SILK	Fabric	11	3	[0, 0, 0]	n/a	catFR1	3	R1527J
412.725	0.419	771003	REC_WORD_VV	22.61	n/a	<>	n/a	-999	3	[0, 0, 0]	n/a	catFR1	3	R1527J
413.144	7.183	771422	REC_WORD	23.029	n/a	LILY	Flowers	2	3	[0, 0, 0]	n/a	catFR1	3	R1527J
420.327	1.206	778609	REC_END	n/a	n/a	n/a	n/a	-999	3	[0, 0, 0]	n/a	catFR1	3	R1527J
421.533	10.349	779812	COUNTDOWN_START	n/a	n/a	n/a	n/a	-999	4	[0, 0, 0]	n/a	catFR1	3	R1527J
431.882	0.0	790164	COUNTDOWN_END	n/a	n/a	n/a	n/a	-999	4	[0, 0, 0]	n/a	catFR1	3	R1527J
431.882	2.183	790164	ENCODING_START	n/a	n/a	n/a	n/a	-999	4	[0, 0, 0]	n/a	catFR1	3	R1527J
434.065	1.601	792341	WORD	n/a	wordpools/wordpool_categorized_EN.txt	LEVEL	Tools	1	4	[0, 0, 0]	n/a	catFR1	3	R1527J
435.666	0.766	793948	WORD_OFF	n/a	n/a	LEVEL	Tools	1	4	[0, 0, 0]	n/a	catFR1	3	R1527J
436.432	1.601	794710	WORD	n/a	wordpools/wordpool_categorized_EN.txt	SANDER	Tools	2	4	[0, 0, 0]	n/a	catFR1	3	R1527J
438.033	0.881	796309	WORD_OFF	n/a	n/a	SANDER	Tools	2	4	[0, 0, 0]	n/a	catFR1	3	R1527J
438.914	1.602	797190	WORD	n/a	wordpools/wordpool_categorized_EN.txt	FOLDER	OfficeSupplies	3	4	[0, 0, 0]	n/a	catFR1	3	R1527J
440.516	0.85	798789	WORD_OFF	n/a	n/a	FOLDER	OfficeSupplies	3	4	[0, 0, 0]	n/a	catFR1	3	R1527J
441.366	1.616	799643	WORD	n/a	wordpools/wordpool_categorized_EN.txt	PENCIL	OfficeSupplies	4	4	[0, 0, 0]	n/a	catFR1	3	R1527J
442.982	0.817	801259	WORD_OFF	n/a	n/a	PENCIL	OfficeSupplies	4	4	[0, 0, 0]	n/a	catFR1	3	R1527J
443.799	1.617	802077	WORD	n/a	wordpools/wordpool_categorized_EN.txt	JELLYFISH	OceanAnimals	5	4	[0, 0, 0]	n/a	catFR1	3	R1527J
445.416	0.782	803694	WORD_OFF	n/a	n/a	JELLYFISH	OceanAnimals	5	4	[0, 0, 0]	n/a	catFR1	3	R1527J
446.198	1.601	804474	WORD	n/a	wordpools/wordpool_categorized_EN.txt	TURTLE	OceanAnimals	6	4	[0, 0, 0]	n/a	catFR1	3	R1527J
447.799	0.999	806073	WORD_OFF	n/a	n/a	TURTLE	OceanAnimals	6	4	[0, 0, 0]	n/a	catFR1	3	R1527J
448.798	1.601	807074	WORD	n/a	wordpools/wordpool_categorized_EN.txt	RULER	OfficeSupplies	7	4	[0, 0, 0]	n/a	catFR1	3	R1527J
450.399	1.0	808672	WORD_OFF	n/a	n/a	RULER	OfficeSupplies	7	4	[0, 0, 0]	n/a	catFR1	3	R1527J
451.399	1.617	809673	WORD	n/a	wordpools/wordpool_categorized_EN.txt	STAPLER	OfficeSupplies	8	4	[0, 0, 0]	n/a	catFR1	3	R1527J
453.016	0.848	811290	WORD_OFF	n/a	n/a	STAPLER	OfficeSupplies	8	4	[0, 0, 0]	n/a	catFR1	3	R1527J
453.864	1.602	812144	WORD	n/a	wordpools/wordpool_categorized_EN.txt	SHRIMP	OceanAnimals	9	4	[0, 0, 0]	n/a	catFR1	3	R1527J
455.466	0.982	813742	WORD_OFF	n/a	n/a	SHRIMP	OceanAnimals	9	4	[0, 0, 0]	n/a	catFR1	3	R1527J
456.448	1.6	814725	WORD	n/a	wordpools/wordpool_categorized_EN.txt	FISH	OceanAnimals	10	4	[0, 0, 0]	n/a	catFR1	3	R1527J
458.048	0.851	816323	WORD_OFF	n/a	n/a	FISH	OceanAnimals	10	4	[0, 0, 0]	n/a	catFR1	3	R1527J
458.899	1.617	817177	WORD	n/a	wordpools/wordpool_categorized_EN.txt	PLIERS	Tools	11	4	[0, 0, 0]	n/a	catFR1	3	R1527J
460.516	0.849	818794	WORD_OFF	n/a	n/a	PLIERS	Tools	11	4	[0, 0, 0]	n/a	catFR1	3	R1527J
461.365	1.617	819639	WORD	n/a	wordpools/wordpool_categorized_EN.txt	SAW	Tools	12	4	[0, 0, 0]	n/a	catFR1	3	R1527J
462.982	0.0	821256	WORD_OFF	n/a	n/a	SAW	Tools	12	4	[0, 0, 0]	n/a	catFR1	3	R1527J
462.981	0.002	821257	PROB	2.7	n/a	n/a	n/a	-999	4	[4, 3, 8]	15.0	catFR1	3	R1527J
462.983	0.0	821259	START	n/a	n/a	n/a	n/a	-999	4	[-999, -999, -999]	n/a	catFR1	3	R1527J
462.983	0.0	821265	ENCODING_END	n/a	n/a	n/a	n/a	-999	4	[0, 0, 0]	n/a	catFR1	3	R1527J
462.983	2.716	821265	DISTRACT_START	n/a	n/a	n/a	n/a	-999	4	[0, 0, 0]	n/a	catFR1	3	R1527J
465.699	2.583	823974	PROB	2.566	n/a	n/a	n/a	-999	4	[7, 3, 4]	14.0	catFR1	3	R1527J
468.282	2.65	826557	PROB	2.632	n/a	n/a	n/a	-999	4	[3, 6, 7]	16.0	catFR1	3	R1527J
470.932	2.902	829207	PROB	2.883	n/a	n/a	n/a	-999	4	[1, 2, 7]	10.0	catFR1	3	R1527J
473.834	4.699	832109	PROB	4.682	n/a	n/a	n/a	-999	4	[4, 3, 5]	12.0	catFR1	3	R1527J
478.533	2.967	836808	PROB	2.949	n/a	n/a	n/a	-999	4	[4, 2, 7]	13.0	catFR1	3	R1527J
481.5	3.482	839775	PROB	3.466	n/a	n/a	n/a	-999	4	[2, 3, 8]	1.0	catFR1	3	R1527J
484.982	0.0	843254	DISTRACT_END	n/a	n/a	n/a	n/a	-999	4	[0, 0, 0]	n/a	catFR1	3	R1527J
484.982	1.649	843256	STOP	n/a	n/a	n/a	n/a	-999	4	[-999, -999, -999]	n/a	catFR1	3	R1527J
486.631	0.958	844907	REC_START	n/a	n/a	n/a	n/a	-999	4	[0, 0, 0]	n/a	catFR1	3	R1527J
487.589	1.0	845863	REC_WORD_VV	0.958	n/a	<>	n/a	-999	4	[0, 0, 0]	n/a	catFR1	3	R1527J
488.589	1.419	846863	REC_WORD_VV	1.958	n/a	<>	n/a	-999	4	[0, 0, 0]	n/a	catFR1	3	R1527J
490.008	1.799	848282	REC_WORD	3.377	n/a	RULER	OfficeSupplies	7	4	[0, 0, 0]	n/a	catFR1	3	R1527J
491.807	1.781	850081	REC_WORD	5.176	n/a	LEVEL	Tools	1	4	[0, 0, 0]	n/a	catFR1	3	R1527J
493.588	3.325	851862	REC_WORD	6.957	n/a	PLIERS	Tools	11	4	[0, 0, 0]	n/a	catFR1	3	R1527J
496.913	3.637	855187	REC_WORD	10.282	n/a	SHRIMP	OceanAnimals	9	4	[0, 0, 0]	n/a	catFR1	3	R1527J
500.55	1.524	858824	REC_WORD	13.919	n/a	OCTOPUS	n/a	-999	4	[0, 0, 0]	n/a	catFR1	3	R1527J
502.074	0.104	860347	REC_WORD_VV	15.443	n/a	<>	n/a	-999	4	[0, 0, 0]	n/a	catFR1	3	R1527J
502.178	1.052	860451	REC_WORD	15.547	n/a	SQUID	n/a	-999	4	[0, 0, 0]	n/a	catFR1	3	R1527J
503.23	1.554	861503	REC_WORD_VV	16.599	n/a	<>	n/a	-999	4	[0, 0, 0]	n/a	catFR1	3	R1527J
504.784	11.546	863057	REC_WORD	18.153	n/a	SANDER	Tools	2	4	[0, 0, 0]	n/a	catFR1	3	R1527J
516.33	0.5	874603	REC_WORD_VV	29.699	n/a	<>	n/a	-999	4	[0, 0, 0]	n/a	catFR1	3	R1527J
516.83	1.353	875099	REC_END	n/a	n/a	n/a	n/a	-999	4	[0, 0, 0]	n/a	catFR1	3	R1527J
518.183	10.349	876459	COUNTDOWN_START	n/a	n/a	n/a	n/a	-999	5	[0, 0, 0]	n/a	catFR1	3	R1527J
528.532	0.0	886801	COUNTDOWN_END	n/a	n/a	n/a	n/a	-999	5	[0, 0, 0]	n/a	catFR1	3	R1527J
528.532	1.784	886810	ENCODING_START	n/a	n/a	n/a	n/a	-999	5	[0, 0, 0]	n/a	catFR1	3	R1527J
530.316	1.6	888592	WORD	n/a	wordpools/wordpool_categorized_EN.txt	CABBAGE	Vegetables	1	5	[0, 0, 0]	n/a	catFR1	3	R1527J
531.916	0.983	890190	WORD_OFF	n/a	n/a	CABBAGE	Vegetables	1	5	[0, 0, 0]	n/a	catFR1	3	R1527J
532.899	1.617	891173	WORD	n/a	wordpools/wordpool_categorized_EN.txt	CORN	Vegetables	2	5	[0, 0, 0]	n/a	catFR1	3	R1527J
534.516	0.883	892790	WORD_OFF	n/a	n/a	CORN	Vegetables	2	5	[0, 0, 0]	n/a	catFR1	3	R1527J
535.399	1.6	893672	WORD	n/a	wordpools/wordpool_categorized_EN.txt	FREEZER	Appliances	3	5	[0, 0, 0]	n/a	catFR1	3	R1527J
536.999	0.767	895270	WORD_OFF	n/a	n/a	FREEZER	Appliances	3	5	[0, 0, 0]	n/a	catFR1	3	R1527J
537.766	1.6	896041	WORD	n/a	wordpools/wordpool_categorized_EN.txt	OVEN	Appliances	4	5	[0, 0, 0]	n/a	catFR1	3	R1527J
539.366	0.816	897640	WORD_OFF	n/a	n/a	OVEN	Appliances	4	5	[0, 0, 0]	n/a	catFR1	3	R1527J
540.182	1.6	898457	WORD	n/a	wordpools/wordpool_categorized_EN.txt	MOSQUITO	Insects	5	5	[0, 0, 0]	n/a	catFR1	3	R1527J
541.782	0.917	900055	WORD_OFF	n/a	n/a	MOSQUITO	Insects	5	5	[0, 0, 0]	n/a	catFR1	3	R1527J
542.699	1.617	900974	WORD	n/a	wordpools/wordpool_categorized_EN.txt	BEETLE	Insects	6	5	[0, 0, 0]	n/a	catFR1	3	R1527J
544.316	0.816	902590	WORD_OFF	n/a	n/a	BEETLE	Insects	6	5	[0, 0, 0]	n/a	catFR1	3	R1527J
545.132	1.6	903408	WORD	n/a	wordpools/wordpool_categorized_EN.txt	BROCCOLI	Vegetables	7	5	[0, 0, 0]	n/a	catFR1	3	R1527J
546.732	0.833	905006	WORD_OFF	n/a	n/a	BROCCOLI	Vegetables	7	5	[0, 0, 0]	n/a	catFR1	3	R1527J
547.565	1.6	905833	WORD	n/a	wordpools/wordpool_categorized_EN.txt	LETTUCE	Vegetables	8	5	[0, 0, 0]	n/a	catFR1	3	R1527J
549.165	1.0	907440	WORD_OFF	n/a	n/a	LETTUCE	Vegetables	8	5	[0, 0, 0]	n/a	catFR1	3	R1527J
550.165	1.6	908432	WORD	n/a	wordpools/wordpool_categorized_EN.txt	WASHER	Appliances	9	5	[0, 0, 0]	n/a	catFR1	3	R1527J
551.765	0.883	910040	WORD_OFF	n/a	n/a	WASHER	Appliances	9	5	[0, 0, 0]	n/a	catFR1	3	R1527J
552.648	1.617	910921	WORD	n/a	wordpools/wordpool_categorized_EN.txt	BLENDER	Appliances	10	5	[0, 0, 0]	n/a	catFR1	3	R1527J
554.265	0.783	912538	WORD_OFF	n/a	n/a	BLENDER	Appliances	10	5	[0, 0, 0]	n/a	catFR1	3	R1527J
555.048	1.6	913319	WORD	n/a	wordpools/wordpool_categorized_EN.txt	MOTH	Insects	11	5	[0, 0, 0]	n/a	catFR1	3	R1527J
556.648	0.983	914917	WORD_OFF	n/a	n/a	MOTH	Insects	11	5	[0, 0, 0]	n/a	catFR1	3	R1527J
557.631	1.601	915900	WORD	n/a	wordpools/wordpool_categorized_EN.txt	GNAT	Insects	12	5	[0, 0, 0]	n/a	catFR1	3	R1527J
559.232	0.0	917498	WORD_OFF	n/a	n/a	GNAT	Insects	12	5	[0, 0, 0]	n/a	catFR1	3	R1527J
559.232	0.001	917502	PROB	3.033	n/a	n/a	n/a	-999	5	[1, 3, 2]	6.0	catFR1	3	R1527J
559.233	0.0	917503	START	n/a	n/a	n/a	n/a	-999	5	[-999, -999, -999]	n/a	catFR1	3	R1527J
559.233	0.0	917507	ENCODING_END	n/a	n/a	n/a	n/a	-999	5	[0, 0, 0]	n/a	catFR1	3	R1527J
559.233	3.049	917507	DISTRACT_START	n/a	n/a	n/a	n/a	-999	5	[0, 0, 0]	n/a	catFR1	3	R1527J
562.282	1.884	920552	PROB	1.866	n/a	n/a	n/a	-999	5	[7, 2, 3]	12.0	catFR1	3	R1527J
564.166	2.216	922436	PROB	2.199	n/a	n/a	n/a	-999	5	[4, 1, 2]	7.0	catFR1	3	R1527J
566.382	3.068	924652	PROB	3.05	n/a	n/a	n/a	-999	5	[8, 6, 3]	17.0	catFR1	3	R1527J
569.45	3.298	927720	PROB	3.282	n/a	n/a	n/a	-999	5	[6, 3, 2]	11.0	catFR1	3	R1527J
572.748	1.767	931018	PROB	1.751	n/a	n/a	n/a	-999	5	[2, 7, 3]	12.0	catFR1	3	R1527J
574.515	2.635	932785	PROB	2.616	n/a	n/a	n/a	-999	5	[2, 4, 3]	9.0	catFR1	3	R1527J
577.15	5.198	935419	PROB	5.182	n/a	n/a	n/a	-999	5	[6, 6, 7]	17.0	catFR1	3	R1527J
582.348	0.0	940617	DISTRACT_END	n/a	n/a	n/a	n/a	-999	5	[0, 0, 0]	n/a	catFR1	3	R1527J
582.348	1.867	940617	STOP	n/a	n/a	n/a	n/a	-999	5	[-999, -999, -999]	n/a	catFR1	3	R1527J
584.215	0.957	942482	REC_START	n/a	n/a	n/a	n/a	-999	5	[0, 0, 0]	n/a	catFR1	3	R1527J
585.172	0.654	943441	REC_WORD_VV	0.957	n/a	<>	n/a	-999	5	[0, 0, 0]	n/a	catFR1	3	R1527J
585.826	1.55	944095	REC_WORD	1.611	n/a	FREEZER	Appliances	3	5	[0, 0, 0]	n/a	catFR1	3	R1527J
587.376	1.556	945645	REC_WORD	3.161	n/a	CABBAGE	Vegetables	1	5	[0, 0, 0]	n/a	catFR1	3	R1527J
588.932	1.677	947201	REC_WORD	4.717	n/a	CORN	Vegetables	2	5	[0, 0, 0]	n/a	catFR1	3	R1527J
590.609	2.223	948878	REC_WORD	6.394	n/a	OVEN	Appliances	4	5	[0, 0, 0]	n/a	catFR1	3	R1527J
592.832	1.999	951101	REC_WORD	8.617	n/a	MOSQUITO	Insects	5	5	[0, 0, 0]	n/a	catFR1	3	R1527J
594.831	10.217	953100	REC_WORD	10.616	n/a	GNAT	Insects	12	5	[0, 0, 0]	n/a	catFR1	3	R1527J
605.048	9.394	963316	REC_WORD_VV	20.833	n/a	<>	n/a	-999	5	[0, 0, 0]	n/a	catFR1	3	R1527J
614.442	4.607	972710	REC_END	n/a	n/a	n/a	n/a	-999	5	[0, 0, 0]	n/a	catFR1	3	R1527J
619.049	10.351	977321	COUNTDOWN_START	n/a	n/a	n/a	n/a	-999	6	[0, 0, 0]	n/a	catFR1	3	R1527J
629.4	0.0	987664	COUNTDOWN_END	n/a	n/a	n/a	n/a	-999	6	[0, 0, 0]	n/a	catFR1	3	R1527J
629.4	2.316	987673	ENCODING_START	n/a	n/a	n/a	n/a	-999	6	[0, 0, 0]	n/a	catFR1	3	R1527J
631.716	1.616	989987	WORD	n/a	wordpools/wordpool_categorized_EN.txt	ORANGUTAN	Zoo	1	6	[0, 0, 0]	n/a	catFR1	3	R1527J
633.332	0.85	991595	WORD_OFF	n/a	n/a	ORANGUTAN	Zoo	1	6	[0, 0, 0]	n/a	catFR1	3	R1527J
634.182	1.6	992449	WORD	n/a	wordpools/wordpool_categorized_EN.txt	CHEETAH	Zoo	2	6	[0, 0, 0]	n/a	catFR1	3	R1527J
635.782	0.999	994047	WORD_OFF	n/a	n/a	CHEETAH	Zoo	2	6	[0, 0, 0]	n/a	catFR1	3	R1527J
636.781	1.602	995048	WORD	n/a	wordpools/wordpool_categorized_EN.txt	CAULIFLOWER	Vegetables	3	6	[0, 0, 0]	n/a	catFR1	3	R1527J
638.383	1.0	996647	WORD_OFF	n/a	n/a	CAULIFLOWER	Vegetables	3	6	[0, 0, 0]	n/a	catFR1	3	R1527J
639.383	1.615	997648	WORD	n/a	wordpools/wordpool_categorized_EN.txt	POTATO	Vegetables	4	6	[0, 0, 0]	n/a	catFR1	3	R1527J
640.998	0.801	999264	WORD_OFF	n/a	n/a	POTATO	Vegetables	4	6	[0, 0, 0]	n/a	catFR1	3	R1527J
641.799	1.616	1000064	WORD	n/a	wordpools/wordpool_categorized_EN.txt	RUM	Beverages	5	6	[0, 0, 0]	n/a	catFR1	3	R1527J
643.415	0.901	1001680	WORD_OFF	n/a	n/a	RUM	Beverages	5	6	[0, 0, 0]	n/a	catFR1	3	R1527J
644.316	1.601	1002580	WORD	n/a	wordpools/wordpool_categorized_EN.txt	COFFEE	Beverages	6	6	[0, 0, 0]	n/a	catFR1	3	R1527J
645.917	0.93	1004183	WORD_OFF	n/a	n/a	COFFEE	Beverages	6	6	[0, 0, 0]	n/a	catFR1	3	R1527J
646.847	1.6	1005115	WORD	n/a	wordpools/wordpool_categorized_EN.txt	SPINACH	Vegetables	7	6	[0, 0, 0]	n/a	catFR1	3	R1527J
648.447	0.817	1006714	WORD_OFF	n/a	n/a	SPINACH	Vegetables	7	6	[0, 0, 0]	n/a	catFR1	3	R1527J
649.264	1.6	1007531	WORD	n/a	wordpools/wordpool_categorized_EN.txt	ONION	Vegetables	8	6	[0, 0, 0]	n/a	catFR1	3	R1527J
650.864	0.768	1009129	WORD_OFF	n/a	n/a	ONION	Vegetables	8	6	[0, 0, 0]	n/a	catFR1	3	R1527J
651.632	1.617	1009901	WORD	n/a	wordpools/wordpool_categorized_EN.txt	WATER	Beverages	9	6	[0, 0, 0]	n/a	catFR1	3	R1527J
653.249	0.767	1011517	WORD_OFF	n/a	n/a	WATER	Beverages	9	6	[0, 0, 0]	n/a	catFR1	3	R1527J
654.016	1.6	1012280	WORD	n/a	wordpools/wordpool_categorized_EN.txt	MILK	Beverages	10	6	[0, 0, 0]	n/a	catFR1	3	R1527J
655.616	0.999	1013878	WORD_OFF	n/a	n/a	MILK	Beverages	10	6	[0, 0, 0]	n/a	catFR1	3	R1527J
656.615	1.6	1014879	WORD	n/a	wordpools/wordpool_categorized_EN.txt	ELEPHANT	Zoo	11	6	[0, 0, 0]	n/a	catFR1	3	R1527J
658.215	0.916	1016477	WORD_OFF	n/a	n/a	ELEPHANT	Zoo	11	6	[0, 0, 0]	n/a	catFR1	3	R1527J
659.131	1.616	1017396	WORD	n/a	wordpools/wordpool_categorized_EN.txt	BEAR	Zoo	12	6	[0, 0, 0]	n/a	catFR1	3	R1527J
660.747	0.001	1019013	WORD_OFF	n/a	n/a	BEAR	Zoo	12	6	[0, 0, 0]	n/a	catFR1	3	R1527J
660.748	0.0	1019013	ENCODING_END	n/a	n/a	n/a	n/a	-999	6	[0, 0, 0]	n/a	catFR1	3	R1527J
660.748	0.0	1019013	DISTRACT_START	n/a	n/a	n/a	n/a	-999	6	[0, 0, 0]	n/a	catFR1	3	R1527J
660.748	0.0	1019013	START	n/a	n/a	n/a	n/a	-999	6	[-999, -999, -999]	n/a	catFR1	3	R1527J
660.748	4.235	1019013	PROB	4.218	n/a	n/a	n/a	-999	6	[6, 4, 5]	15.0	catFR1	3	R1527J
664.983	1.733	1023248	PROB	1.716	n/a	n/a	n/a	-999	6	[1, 7, 3]	11.0	catFR1	3	R1527J
666.716	3.383	1024981	PROB	3.367	n/a	n/a	n/a	-999	6	[5, 6, 8]	19.0	catFR1	3	R1527J
670.099	2.783	1028364	PROB	2.766	n/a	n/a	n/a	-999	6	[1, 4, 7]	12.0	catFR1	3	R1527J
672.882	2.833	1031146	PROB	2.817	n/a	n/a	n/a	-999	6	[6, 8, 1]	15.0	catFR1	3	R1527J
675.715	1.9	1033979	PROB	1.883	n/a	n/a	n/a	-999	6	[8, 8, 1]	17.0	catFR1	3	R1527J
677.615	2.216	1035879	PROB	2.199	n/a	n/a	n/a	-999	6	[2, 4, 3]	9.0	catFR1	3	R1527J
679.831	2.633	1038095	PROB	2.618	n/a	n/a	n/a	-999	6	[5, 1, 6]	12.0	catFR1	3	R1527J
682.464	0.0	1040726	DISTRACT_END	n/a	n/a	n/a	n/a	-999	6	[0, 0, 0]	n/a	catFR1	3	R1527J
682.464	1.8	1040728	STOP	n/a	n/a	n/a	n/a	-999	6	[-999, -999, -999]	n/a	catFR1	3	R1527J
684.264	1.208	1042527	REC_START	n/a	n/a	n/a	n/a	-999	6	[0, 0, 0]	n/a	catFR1	3	R1527J
685.472	1.289	1043736	REC_WORD	1.208	n/a	ORANGUTAN	Zoo	1	6	[0, 0, 0]	n/a	catFR1	3	R1527J
686.761	1.62	1045025	REC_WORD	2.497	n/a	CHEETAH	Zoo	2	6	[0, 0, 0]	n/a	catFR1	3	R1527J
688.381	1.33	1046645	REC_WORD	4.117	n/a	BEAR	Zoo	12	6	[0, 0, 0]	n/a	catFR1	3	R1527J
689.711	1.632	1047974	REC_WORD	5.447	n/a	MILK	Beverages	10	6	[0, 0, 0]	n/a	catFR1	3	R1527J
691.343	5.432	1049606	REC_WORD	7.079	n/a	ELEPHANT	Zoo	11	6	[0, 0, 0]	n/a	catFR1	3	R1527J
696.775	5.618	1055038	REC_WORD_VV	12.511	n/a	<>	n/a	-999	6	[0, 0, 0]	n/a	catFR1	3	R1527J
702.393	0.781	1060656	REC_WORD	18.129	n/a	POTATO	Vegetables	4	6	[0, 0, 0]	n/a	catFR1	3	R1527J
703.174	1.264	1061437	REC_WORD	18.91	n/a	RUM	Beverages	5	6	[0, 0, 0]	n/a	catFR1	3	R1527J
704.438	1.211	1062701	REC_WORD	20.174	n/a	COFFEE	Beverages	6	6	[0, 0, 0]	n/a	catFR1	3	R1527J
705.649	1.146	1063912	REC_WORD	21.385	n/a	ONION	Vegetables	8	6	[0, 0, 0]	n/a	catFR1	3	R1527J
706.795	7.673	1065058	REC_WORD	22.531	n/a	CAULIFLOWER	Vegetables	3	6	[0, 0, 0]	n/a	catFR1	3	R1527J
714.468	1.149	1072727	REC_END	n/a	n/a	n/a	n/a	-999	6	[0, 0, 0]	n/a	catFR1	3	R1527J
715.617	10.348	1073885	COUNTDOWN_START	n/a	n/a	n/a	n/a	-999	7	[0, 0, 0]	n/a	catFR1	3	R1527J
725.965	0.0	1084227	COUNTDOWN_END	n/a	n/a	n/a	n/a	-999	7	[0, 0, 0]	n/a	catFR1	3	R1527J
725.965	2.218	1084227	ENCODING_START	n/a	n/a	n/a	n/a	-999	7	[0, 0, 0]	n/a	catFR1	3	R1527J
728.183	1.616	1086441	WORD	n/a	wordpools/wordpool_categorized_EN.txt	HEAD	BodyParts	1	7	[0, 0, 0]	n/a	catFR1	3	R1527J
729.799	0.833	1088058	WORD_OFF	n/a	n/a	HEAD	BodyParts	1	7	[0, 0, 0]	n/a	catFR1	3	R1527J
730.632	1.616	1088893	WORD	n/a	wordpools/wordpool_categorized_EN.txt	TOE	BodyParts	2	7	[0, 0, 0]	n/a	catFR1	3	R1527J
732.248	1.0	1090510	WORD_OFF	n/a	n/a	TOE	BodyParts	2	7	[0, 0, 0]	n/a	catFR1	3	R1527J
733.248	1.601	1091511	WORD	n/a	wordpools/wordpool_categorized_EN.txt	VIOLIN	Instruments	3	7	[0, 0, 0]	n/a	catFR1	3	R1527J
734.849	0.966	1093109	WORD_OFF	n/a	n/a	VIOLIN	Instruments	3	7	[0, 0, 0]	n/a	catFR1	3	R1527J
735.815	1.618	1094074	WORD	n/a	wordpools/wordpool_categorized_EN.txt	TROMBONE	Instruments	4	7	[0, 0, 0]	n/a	catFR1	3	R1527J
737.433	0.765	1095690	WORD_OFF	n/a	n/a	TROMBONE	Instruments	4	7	[0, 0, 0]	n/a	catFR1	3	R1527J
738.198	1.617	1096462	WORD	n/a	wordpools/wordpool_categorized_EN.txt	CHICKEN	FarmAnimals	5	7	[0, 0, 0]	n/a	catFR1	3	R1527J
739.815	0.851	1098079	WORD_OFF	n/a	n/a	CHICKEN	FarmAnimals	5	7	[0, 0, 0]	n/a	catFR1	3	R1527J
740.666	1.6	1098924	WORD	n/a	wordpools/wordpool_categorized_EN.txt	GOAT	FarmAnimals	6	7	[0, 0, 0]	n/a	catFR1	3	R1527J
742.266	0.816	1100531	WORD_OFF	n/a	n/a	GOAT	FarmAnimals	6	7	[0, 0, 0]	n/a	catFR1	3	R1527J
743.082	1.616	1101348	WORD	n/a	wordpools/wordpool_categorized_EN.txt	NOSE	BodyParts	7	7	[0, 0, 0]	n/a	catFR1	3	R1527J
744.698	0.816	1102956	WORD_OFF	n/a	n/a	NOSE	BodyParts	7	7	[0, 0, 0]	n/a	catFR1	3	R1527J
745.514	1.602	1103773	WORD	n/a	wordpools/wordpool_categorized_EN.txt	FINGERS	BodyParts	8	7	[0, 0, 0]	n/a	catFR1	3	R1527J
747.116	1.0	1105381	WORD_OFF	n/a	n/a	FINGERS	BodyParts	8	7	[0, 0, 0]	n/a	catFR1	3	R1527J
748.116	1.615	1106373	WORD	n/a	wordpools/wordpool_categorized_EN.txt	ORGAN	Instruments	9	7	[0, 0, 0]	n/a	catFR1	3	R1527J
749.731	0.85	1107989	WORD_OFF	n/a	n/a	ORGAN	Instruments	9	7	[0, 0, 0]	n/a	catFR1	3	R1527J
750.581	1.601	1108844	WORD	n/a	wordpools/wordpool_categorized_EN.txt	CELLO	Instruments	10	7	[0, 0, 0]	n/a	catFR1	3	R1527J
752.182	0.934	1110442	WORD_OFF	n/a	n/a	CELLO	Instruments	10	7	[0, 0, 0]	n/a	catFR1	3	R1527J
753.116	1.616	1111379	WORD	n/a	wordpools/wordpool_categorized_EN.txt	LAMB	FarmAnimals	11	7	[0, 0, 0]	n/a	catFR1	3	R1527J
754.732	0.882	1112995	WORD_OFF	n/a	n/a	LAMB	FarmAnimals	11	7	[0, 0, 0]	n/a	catFR1	3	R1527J
755.614	1.601	1113877	WORD	n/a	wordpools/wordpool_categorized_EN.txt	PIG	FarmAnimals	12	7	[0, 0, 0]	n/a	catFR1	3	R1527J
757.215	0.001	1115475	WORD_OFF	n/a	n/a	PIG	FarmAnimals	12	7	[0, 0, 0]	n/a	catFR1	3	R1527J
757.216	0.0	1115475	ENCODING_END	n/a	n/a	n/a	n/a	-999	7	[0, 0, 0]	n/a	catFR1	3	R1527J
757.216	0.0	1115475	DISTRACT_START	n/a	n/a	n/a	n/a	-999	7	[0, 0, 0]	n/a	catFR1	3	R1527J
757.216	0.0	1115476	START	n/a	n/a	n/a	n/a	-999	7	[-999, -999, -999]	n/a	catFR1	3	R1527J
757.216	2.982	1115476	PROB	2.966	n/a	n/a	n/a	-999	7	[2, 5, 7]	14.0	catFR1	3	R1527J
760.198	2.567	1118458	PROB	2.55	n/a	n/a	n/a	-999	7	[6, 3, 2]	11.0	catFR1	3	R1527J
762.765	4.517	1121025	PROB	4.5	n/a	n/a	n/a	-999	7	[8, 1, 3]	12.0	catFR1	3	R1527J
767.282	2.2	1125541	PROB	2.183	n/a	n/a	n/a	-999	7	[5, 5, 2]	12.0	catFR1	3	R1527J
769.482	1.883	1127741	PROB	1.865	n/a	n/a	n/a	-999	7	[5, 2, 5]	12.0	catFR1	3	R1527J
771.365	2.45	1129624	PROB	2.433	n/a	n/a	n/a	-999	7	[6, 2, 4]	12.0	catFR1	3	R1527J
773.815	5.082	1132074	PROB	5.066	n/a	n/a	n/a	-999	7	[5, 6, 6]	17.0	catFR1	3	R1527J
778.897	0.0	1137152	DISTRACT_END	n/a	n/a	n/a	n/a	-999	7	[0, 0, 0]	n/a	catFR1	3	R1527J
778.897	1.685	1137156	STOP	n/a	n/a	n/a	n/a	-999	7	[-999, -999, -999]	n/a	catFR1	3	R1527J
780.582	1.541	1138842	REC_START	n/a	n/a	n/a	n/a	-999	7	[0, 0, 0]	n/a	catFR1	3	R1527J
782.123	1.034	1140382	REC_WORD	1.541	n/a	HEAD	BodyParts	1	7	[0, 0, 0]	n/a	catFR1	3	R1527J
783.157	1.211	1141416	REC_WORD	2.575	n/a	TOE	BodyParts	2	7	[0, 0, 0]	n/a	catFR1	3	R1527J
784.368	1.334	1142626	REC_WORD	3.786	n/a	FINGERS	BodyParts	8	7	[0, 0, 0]	n/a	catFR1	3	R1527J
785.702	1.47	1143960	REC_WORD	5.12	n/a	NOSE	BodyParts	7	7	[0, 0, 0]	n/a	catFR1	3	R1527J
787.172	1.721	1145430	REC_WORD	6.59	n/a	CHICKEN	FarmAnimals	5	7	[0, 0, 0]	n/a	catFR1	3	R1527J
788.893	2.065	1147151	REC_WORD	8.311	n/a	GOAT	FarmAnimals	6	7	[0, 0, 0]	n/a	catFR1	3	R1527J
790.958	2.038	1149216	REC_WORD	10.376	n/a	TROMBONE	Instruments	4	7	[0, 0, 0]	n/a	catFR1	3	R1527J
792.996	17.812	1151254	REC_WORD	12.414	n/a	VIOLIN	Instruments	3	7	[0, 0, 0]	n/a	catFR1	3	R1527J
810.808	1.425	1169062	REC_END	n/a	n/a	n/a	n/a	-999	7	[0, 0, 0]	n/a	catFR1	3	R1527J
812.233	10.349	1170495	COUNTDOWN_START	n/a	n/a	n/a	n/a	-999	8	[0, 0, 0]	n/a	catFR1	3	R1527J
822.582	0.0	1180837	COUNTDOWN_END	n/a	n/a	n/a	n/a	-999	8	[0, 0, 0]	n/a	catFR1	3	R1527J
822.582	2.051	1180837	ENCODING_START	n/a	n/a	n/a	n/a	-999	8	[0, 0, 0]	n/a	catFR1	3	R1527J
824.633	1.599	1182885	WORD	n/a	wordpools/wordpool_categorized_EN.txt	BED	Furniture	1	8	[0, 0, 0]	n/a	catFR1	3	R1527J
826.232	0.851	1184493	WORD_OFF	n/a	n/a	BED	Furniture	1	8	[0, 0, 0]	n/a	catFR1	3	R1527J
827.083	1.616	1185338	WORD	n/a	wordpools/wordpool_categorized_EN.txt	RECLINER	Furniture	2	8	[0, 0, 0]	n/a	catFR1	3	R1527J
828.699	0.85	1186954	WORD_OFF	n/a	n/a	RECLINER	Furniture	2	8	[0, 0, 0]	n/a	catFR1	3	R1527J
829.549	1.617	1187809	WORD	n/a	wordpools/wordpool_categorized_EN.txt	DAISY	Flowers	3	8	[0, 0, 0]	n/a	catFR1	3	R1527J
831.166	1.0	1189425	WORD_OFF	n/a	n/a	DAISY	Flowers	3	8	[0, 0, 0]	n/a	catFR1	3	R1527J
832.166	1.616	1190426	WORD	n/a	wordpools/wordpool_categorized_EN.txt	LILAC	Flowers	4	8	[0, 0, 0]	n/a	catFR1	3	R1527J
833.782	0.916	1192043	WORD_OFF	n/a	n/a	LILAC	Flowers	4	8	[0, 0, 0]	n/a	catFR1	3	R1527J
834.698	1.6	1192952	WORD	n/a	wordpools/wordpool_categorized_EN.txt	OCTOPUS	OceanAnimals	5	8	[0, 0, 0]	n/a	catFR1	3	R1527J
836.298	0.884	1194551	WORD_OFF	n/a	n/a	OCTOPUS	OceanAnimals	5	8	[0, 0, 0]	n/a	catFR1	3	R1527J
837.182	1.616	1195441	WORD	n/a	wordpools/wordpool_categorized_EN.txt	OYSTER	OceanAnimals	6	8	[0, 0, 0]	n/a	catFR1	3	R1527J
838.798	0.9	1197058	WORD_OFF	n/a	n/a	OYSTER	OceanAnimals	6	8	[0, 0, 0]	n/a	catFR1	3	R1527J
839.698	1.601	1197958	WORD	n/a	wordpools/wordpool_categorized_EN.txt	TULIP	Flowers	7	8	[0, 0, 0]	n/a	catFR1	3	R1527J
841.299	0.767	1199556	WORD_OFF	n/a	n/a	TULIP	Flowers	7	8	[0, 0, 0]	n/a	catFR1	3	R1527J
842.066	1.615	1200319	WORD	n/a	wordpools/wordpool_categorized_EN.txt	MARIGOLD	Flowers	8	8	[0, 0, 0]	n/a	catFR1	3	R1527J
843.681	0.933	1201935	WORD_OFF	n/a	n/a	MARIGOLD	Flowers	8	8	[0, 0, 0]	n/a	catFR1	3	R1527J
844.614	1.601	1202872	WORD	n/a	wordpools/wordpool_categorized_EN.txt	CHAIR	Furniture	9	8	[0, 0, 0]	n/a	catFR1	3	R1527J
846.215	0.783	1204470	WORD_OFF	n/a	n/a	CHAIR	Furniture	9	8	[0, 0, 0]	n/a	catFR1	3	R1527J
846.998	1.6	1205251	WORD	n/a	wordpools/wordpool_categorized_EN.txt	NIGHTSTAND	Furniture	10	8	[0, 0, 0]	n/a	catFR1	3	R1527J
848.598	0.967	1206849	WORD_OFF	n/a	n/a	NIGHTSTAND	Furniture	10	8	[0, 0, 0]	n/a	catFR1	3	R1527J
849.565	1.6	1207823	WORD	n/a	wordpools/wordpool_categorized_EN.txt	CRAB	OceanAnimals	11	8	[0, 0, 0]	n/a	catFR1	3	R1527J
851.165	0.867	1209421	WORD_OFF	n/a	n/a	CRAB	OceanAnimals	11	8	[0, 0, 0]	n/a	catFR1	3	R1527J
852.032	1.6	1210285	WORD	n/a	wordpools/wordpool_categorized_EN.txt	LOBSTER	OceanAnimals	12	8	[0, 0, 0]	n/a	catFR1	3	R1527J
853.632	0.0	1211887	PROB	2.999	n/a	n/a	n/a	-999	8	[3, 6, 3]	12.0	catFR1	3	R1527J
853.632	0.003	1211888	WORD_OFF	n/a	n/a	LOBSTER	OceanAnimals	12	8	[0, 0, 0]	n/a	catFR1	3	R1527J
853.635	0.0	1211890	START	n/a	n/a	n/a	n/a	-999	8	[-999, -999, -999]	n/a	catFR1	3	R1527J
853.635	0.0	1211892	ENCODING_END	n/a	n/a	n/a	n/a	-999	8	[0, 0, 0]	n/a	catFR1	3	R1527J
853.635	3.014	1211892	DISTRACT_START	n/a	n/a	n/a	n/a	-999	8	[0, 0, 0]	n/a	catFR1	3	R1527J
856.649	4.199	1214904	PROB	4.183	n/a	n/a	n/a	-999	8	[3, 1, 6]	11.0	catFR1	3	R1527J
860.848	5.569	1219102	PROB	5.549	n/a	n/a	n/a	-999	8	[3, 4, 3]	10.0	catFR1	3	R1527J
866.417	2.415	1224671	PROB	2.398	n/a	n/a	n/a	-999	8	[2, 1, 6]	9.0	catFR1	3	R1527J
868.832	3.949	1227086	PROB	3.932	n/a	n/a	n/a	-999	8	[8, 8, 8]	16.0	catFR1	3	R1527J
872.781	4.167	1231035	PROB	4.15	n/a	n/a	n/a	-999	8	[3, 1, 2]	6.0	catFR1	3	R1527J
876.948	0.0	1235201	STOP	n/a	n/a	n/a	n/a	-999	8	[-999, -999, -999]	n/a	catFR1	3	R1527J
876.948	1.733	1235204	DISTRACT_END	n/a	n/a	n/a	n/a	-999	8	[0, 0, 0]	n/a	catFR1	3	R1527J
878.681	0.841	1236931	REC_START	n/a	n/a	n/a	n/a	-999	8	[0, 0, 0]	n/a	catFR1	3	R1527J
879.522	1.162	1237775	REC_WORD_VV	0.841	n/a	<>	n/a	-999	8	[0, 0, 0]	n/a	catFR1	3	R1527J
880.684	2.083	1238937	REC_WORD	2.003	n/a	RECLINER	Furniture	2	8	[0, 0, 0]	n/a	catFR1	3	R1527J
882.767	2.295	1241020	REC_WORD	4.086	n/a	BED	Furniture	1	8	[0, 0, 0]	n/a	catFR1	3	R1527J
885.062	0.927	1243315	REC_WORD_VV	6.381	n/a	<>	n/a	-999	8	[0, 0, 0]	n/a	catFR1	3	R1527J
885.989	1.638	1244242	REC_WORD	7.308	n/a	TULIP	Flowers	7	8	[0, 0, 0]	n/a	catFR1	3	R1527J
887.627	1.327	1245880	REC_WORD	8.946	n/a	CHAIR	Furniture	9	8	[0, 0, 0]	n/a	catFR1	3	R1527J
888.954	9.278	1247207	REC_WORD	10.273	n/a	NIGHTSTAND	Furniture	10	8	[0, 0, 0]	n/a	catFR1	3	R1527J
898.232	1.272	1256484	REC_WORD	19.551	n/a	OYSTER	OceanAnimals	6	8	[0, 0, 0]	n/a	catFR1	3	R1527J
899.504	9.401	1257756	REC_WORD	20.823	n/a	OCTOPUS	OceanAnimals	5	8	[0, 0, 0]	n/a	catFR1	3	R1527J
908.905	1.828	1267159	REC_END	n/a	n/a	n/a	n/a	-999	8	[0, 0, 0]	n/a	catFR1	3	R1527J
910.733	10.349	1268987	COUNTDOWN_START	n/a	n/a	n/a	n/a	-999	9	[0, 0, 0]	n/a	catFR1	3	R1527J
921.082	0.0	1279330	COUNTDOWN_END	n/a	n/a	n/a	n/a	-999	9	[0, 0, 0]	n/a	catFR1	3	R1527J
921.082	2.016	1279339	ENCODING_START	n/a	n/a	n/a	n/a	-999	9	[0, 0, 0]	n/a	catFR1	3	R1527J
923.098	1.601	1281350	WORD	n/a	wordpools/wordpool_categorized_EN.txt	COUCH	Furniture	1	9	[0, 0, 0]	n/a	catFR1	3	R1527J
924.699	0.867	1282949	WORD_OFF	n/a	n/a	COUCH	Furniture	1	9	[0, 0, 0]	n/a	catFR1	3	R1527J
925.566	1.6	1283820	WORD	n/a	wordpools/wordpool_categorized_EN.txt	TABLE	Furniture	2	9	[0, 0, 0]	n/a	catFR1	3	R1527J
927.166	0.865	1285419	WORD_OFF	n/a	n/a	TABLE	Furniture	2	9	[0, 0, 0]	n/a	catFR1	3	R1527J
928.031	1.601	1286283	WORD	n/a	wordpools/wordpool_categorized_EN.txt	ANT	Insects	3	9	[0, 0, 0]	n/a	catFR1	3	R1527J
929.632	0.816	1287881	WORD_OFF	n/a	n/a	ANT	Insects	3	9	[0, 0, 0]	n/a	catFR1	3	R1527J
930.448	1.6	1288699	WORD	n/a	wordpools/wordpool_categorized_EN.txt	ROACH	Insects	4	9	[0, 0, 0]	n/a	catFR1	3	R1527J
932.048	0.867	1290297	WORD_OFF	n/a	n/a	ROACH	Insects	4	9	[0, 0, 0]	n/a	catFR1	3	R1527J
932.915	1.6	1291169	WORD	n/a	wordpools/wordpool_categorized_EN.txt	COOKIE	Desserts	5	9	[0, 0, 0]	n/a	catFR1	3	R1527J
934.515	0.951	1292768	WORD_OFF	n/a	n/a	COOKIE	Desserts	5	9	[0, 0, 0]	n/a	catFR1	3	R1527J
935.466	1.616	1293714	WORD	n/a	wordpools/wordpool_categorized_EN.txt	COBBLER	Desserts	6	9	[0, 0, 0]	n/a	catFR1	3	R1527J
937.082	0.782	1295330	WORD_OFF	n/a	n/a	COBBLER	Desserts	6	9	[0, 0, 0]	n/a	catFR1	3	R1527J
937.864	1.6	1296111	WORD	n/a	wordpools/wordpool_categorized_EN.txt	BUTTERFLY	Insects	7	9	[0, 0, 0]	n/a	catFR1	3	R1527J
939.464	0.901	1297718	WORD_OFF	n/a	n/a	BUTTERFLY	Insects	7	9	[0, 0, 0]	n/a	catFR1	3	R1527J
940.365	1.6	1298619	WORD	n/a	wordpools/wordpool_categorized_EN.txt	LADYBUG	Insects	8	9	[0, 0, 0]	n/a	catFR1	3	R1527J
941.965	0.867	1300217	WORD_OFF	n/a	n/a	LADYBUG	Insects	8	9	[0, 0, 0]	n/a	catFR1	3	R1527J
942.832	1.599	1301080	WORD	n/a	wordpools/wordpool_categorized_EN.txt	BOOKCASE	Furniture	9	9	[0, 0, 0]	n/a	catFR1	3	R1527J
944.431	0.833	1302678	WORD_OFF	n/a	n/a	BOOKCASE	Furniture	9	9	[0, 0, 0]	n/a	catFR1	3	R1527J
945.264	1.601	1303514	WORD	n/a	wordpools/wordpool_categorized_EN.txt	DRESSER	Furniture	10	9	[0, 0, 0]	n/a	catFR1	3	R1527J
946.865	0.983	1305113	WORD_OFF	n/a	n/a	DRESSER	Furniture	10	9	[0, 0, 0]	n/a	catFR1	3	R1527J
947.848	1.601	1306095	WORD	n/a	wordpools/wordpool_categorized_EN.txt	CUPCAKE	Desserts	11	9	[0, 0, 0]	n/a	catFR1	3	R1527J
949.449	0.783	1307703	WORD_OFF	n/a	n/a	CUPCAKE	Desserts	11	9	[0, 0, 0]	n/a	catFR1	3	R1527J
950.232	1.599	1308483	WORD	n/a	wordpools/wordpool_categorized_EN.txt	PUDDING	Desserts	12	9	[0, 0, 0]	n/a	catFR1	3	R1527J
951.831	0.0	1310081	PROB	3.75	n/a	n/a	n/a	-999	9	[3, 7, 3]	13.0	catFR1	3	R1527J
951.831	0.002	1310082	WORD_OFF	n/a	n/a	PUDDING	Desserts	12	9	[0, 0, 0]	n/a	catFR1	3	R1527J
951.833	0.0	1310082	ENCODING_END	n/a	n/a	n/a	n/a	-999	9	[0, 0, 0]	n/a	catFR1	3	R1527J
951.833	0.0	1310082	DISTRACT_START	n/a	n/a	n/a	n/a	-999	9	[0, 0, 0]	n/a	catFR1	3	R1527J
951.833	3.767	1310083	START	n/a	n/a	n/a	n/a	-999	9	[-999, -999, -999]	n/a	catFR1	3	R1527J
955.6	3.133	1313849	PROB	3.115	n/a	n/a	n/a	-999	9	[3, 4, 4]	11.0	catFR1	3	R1527J
958.733	2.618	1316982	PROB	2.599	n/a	n/a	n/a	-999	9	[8, 4, 6]	18.0	catFR1	3	R1527J
961.351	3.68	1319600	PROB	3.665	n/a	n/a	n/a	-999	9	[6, 6, 8]	20.0	catFR1	3	R1527J
965.031	2.8	1323280	PROB	2.783	n/a	n/a	n/a	-999	9	[5, 4, 1]	10.0	catFR1	3	R1527J
967.831	3.784	1326080	PROB	3.766	n/a	n/a	n/a	-999	9	[8, 4, 1]	13.0	catFR1	3	R1527J
971.615	5.75	1329863	PROB	5.733	n/a	n/a	n/a	-999	9	[5, 6, 6]	17.0	catFR1	3	R1527J
977.365	0.0	1335613	STOP	n/a	n/a	n/a	n/a	-999	9	[-999, -999, -999]	n/a	catFR1	3	R1527J
977.365	1.85	1335616	DISTRACT_END	n/a	n/a	n/a	n/a	-999	9	[0, 0, 0]	n/a	catFR1	3	R1527J
979.215	0.53	1337463	REC_START	n/a	n/a	n/a	n/a	-999	9	[0, 0, 0]	n/a	catFR1	3	R1527J
979.745	1.148	1337993	REC_WORD	0.53	n/a	COUCH	Furniture	1	9	[0, 0, 0]	n/a	catFR1	3	R1527J
980.893	1.501	1339141	REC_WORD	1.678	n/a	TABLE	Furniture	2	9	[0, 0, 0]	n/a	catFR1	3	R1527J
982.394	4.338	1340642	REC_WORD	3.179	n/a	ANT	Insects	3	9	[0, 0, 0]	n/a	catFR1	3	R1527J
986.732	10.664	1344980	REC_WORD_VV	7.517	n/a	<>	n/a	-999	9	[0, 0, 0]	n/a	catFR1	3	R1527J
997.396	4.801	1355643	REC_WORD_VV	18.181	n/a	<>	n/a	-999	9	[0, 0, 0]	n/a	catFR1	3	R1527J
1002.197	0.281	1360444	REC_WORD	22.982	n/a	COUCH	Furniture	1	9	[0, 0, 0]	n/a	catFR1	3	R1527J
1002.478	0.243	1360725	REC_WORD	23.263	n/a	TABLE	Furniture	2	9	[0, 0, 0]	n/a	catFR1	3	R1527J
1002.721	6.726	1360968	REC_WORD	23.506	n/a	ANT	Insects	3	9	[0, 0, 0]	n/a	catFR1	3	R1527J
1009.447	1.269	1367691	REC_END	n/a	n/a	n/a	n/a	-999	9	[0, 0, 0]	n/a	catFR1	3	R1527J
1010.716	10.35	1368968	COUNTDOWN_START	n/a	n/a	n/a	n/a	-999	10	[0, 0, 0]	n/a	catFR1	3	R1527J
1021.066	0.001	1379310	COUNTDOWN_END	n/a	n/a	n/a	n/a	-999	10	[0, 0, 0]	n/a	catFR1	3	R1527J
1021.067	2.215	1379310	ENCODING_START	n/a	n/a	n/a	n/a	-999	10	[0, 0, 0]	n/a	catFR1	3	R1527J
1023.282	1.6	1381533	WORD	n/a	wordpools/wordpool_categorized_EN.txt	STOVE	Appliances	1	10	[0, 0, 0]	n/a	catFR1	3	R1527J
1024.882	0.917	1383131	WORD_OFF	n/a	n/a	STOVE	Appliances	1	10	[0, 0, 0]	n/a	catFR1	3	R1527J
1025.799	1.616	1384050	WORD	n/a	wordpools/wordpool_categorized_EN.txt	REFRIGERATOR	Appliances	2	10	[0, 0, 0]	n/a	catFR1	3	R1527J
1027.415	0.9	1385657	WORD_OFF	n/a	n/a	REFRIGERATOR	Appliances	2	10	[0, 0, 0]	n/a	catFR1	3	R1527J
1028.315	1.617	1386567	WORD	n/a	wordpools/wordpool_categorized_EN.txt	SPATULA	KitchenTools	3	10	[0, 0, 0]	n/a	catFR1	3	R1527J
1029.932	0.983	1388174	WORD_OFF	n/a	n/a	SPATULA	KitchenTools	3	10	[0, 0, 0]	n/a	catFR1	3	R1527J
1030.915	1.601	1389157	WORD	n/a	wordpools/wordpool_categorized_EN.txt	PEELER	KitchenTools	4	10	[0, 0, 0]	n/a	catFR1	3	R1527J
1032.516	0.782	1390764	WORD_OFF	n/a	n/a	PEELER	KitchenTools	4	10	[0, 0, 0]	n/a	catFR1	3	R1527J
1033.298	1.6	1391545	WORD	n/a	wordpools/wordpool_categorized_EN.txt	TIGER	Zoo	5	10	[0, 0, 0]	n/a	catFR1	3	R1527J
1034.898	0.985	1393143	WORD_OFF	n/a	n/a	TIGER	Zoo	5	10	[0, 0, 0]	n/a	catFR1	3	R1527J
1035.883	1.615	1394126	WORD	n/a	wordpools/wordpool_categorized_EN.txt	MONKEY	Zoo	6	10	[0, 0, 0]	n/a	catFR1	3	R1527J
1037.498	0.9	1395743	WORD_OFF	n/a	n/a	MONKEY	Zoo	6	10	[0, 0, 0]	n/a	catFR1	3	R1527J
1038.398	1.617	1396643	WORD	n/a	wordpools/wordpool_categorized_EN.txt	FORK	KitchenTools	7	10	[0, 0, 0]	n/a	catFR1	3	R1527J
1040.015	0.966	1398259	WORD_OFF	n/a	n/a	FORK	KitchenTools	7	10	[0, 0, 0]	n/a	catFR1	3	R1527J
1040.981	1.601	1399224	WORD	n/a	wordpools/wordpool_categorized_EN.txt	LADLE	KitchenTools	8	10	[0, 0, 0]	n/a	catFR1	3	R1527J
1042.582	0.966	1400831	WORD_OFF	n/a	n/a	LADLE	KitchenTools	8	10	[0, 0, 0]	n/a	catFR1	3	R1527J
1043.548	1.6	1401796	WORD	n/a	wordpools/wordpool_categorized_EN.txt	ZEBRA	Zoo	9	10	[0, 0, 0]	n/a	catFR1	3	R1527J
1045.148	0.866	1403394	WORD_OFF	n/a	n/a	ZEBRA	Zoo	9	10	[0, 0, 0]	n/a	catFR1	3	R1527J
1046.014	1.6	1404257	WORD	n/a	wordpools/wordpool_categorized_EN.txt	CHIMPANZEE	Zoo	10	10	[0, 0, 0]	n/a	catFR1	3	R1527J
1047.614	0.801	1405856	WORD_OFF	n/a	n/a	CHIMPANZEE	Zoo	10	10	[0, 0, 0]	n/a	catFR1	3	R1527J
1048.415	1.617	1406664	WORD	n/a	wordpools/wordpool_categorized_EN.txt	MIXER	Appliances	11	10	[0, 0, 0]	n/a	catFR1	3	R1527J
1050.032	0.967	1408280	WORD_OFF	n/a	n/a	MIXER	Appliances	11	10	[0, 0, 0]	n/a	catFR1	3	R1527J
1050.999	1.615	1409245	WORD	n/a	wordpools/wordpool_categorized_EN.txt	DISHWASHER	Appliances	12	10	[0, 0, 0]	n/a	catFR1	3	R1527J
1052.614	0.002	1410858	PROB	4.217	n/a	n/a	n/a	-999	10	[2, 6, 7]	15.0	catFR1	3	R1527J
1052.616	0.0	1410860	START	n/a	n/a	n/a	n/a	-999	10	[-999, -999, -999]	n/a	catFR1	3	R1527J
1052.615	0.001	1410861	WORD_OFF	n/a	n/a	DISHWASHER	Appliances	12	10	[0, 0, 0]	n/a	catFR1	3	R1527J
1052.616	0.0	1410861	ENCODING_END	n/a	n/a	n/a	n/a	-999	10	[0, 0, 0]	n/a	catFR1	3	R1527J
1052.616	4.233	1410861	DISTRACT_START	n/a	n/a	n/a	n/a	-999	10	[0, 0, 0]	n/a	catFR1	3	R1527J
1056.849	2.65	1415093	PROB	2.632	n/a	n/a	n/a	-999	10	[2, 7, 1]	10.0	catFR1	3	R1527J
1059.499	4.549	1417743	PROB	4.532	n/a	n/a	n/a	-999	10	[2, 6, 8]	16.0	catFR1	3	R1527J
1064.048	3.783	1422292	PROB	3.766	n/a	n/a	n/a	-999	10	[8, 6, 5]	19.0	catFR1	3	R1527J
1067.831	4.367	1426074	PROB	4.349	n/a	n/a	n/a	-999	10	[2, 3, 8]	13.0	catFR1	3	R1527J
1072.198	3.7	1430441	PROB	3.683	n/a	n/a	n/a	-999	10	[8, 1, 6]	15.0	catFR1	3	R1527J
1075.898	0.0	1434141	STOP	n/a	n/a	n/a	n/a	-999	10	[-999, -999, -999]	n/a	catFR1	3	R1527J
1075.898	1.533	1434146	DISTRACT_END	n/a	n/a	n/a	n/a	-999	10	[0, 0, 0]	n/a	catFR1	3	R1527J
1077.431	0.624	1435671	REC_START	n/a	n/a	n/a	n/a	-999	10	[0, 0, 0]	n/a	catFR1	3	R1527J
1078.055	1.875	1436298	REC_WORD_VV	0.624	n/a	<>	n/a	-999	10	[0, 0, 0]	n/a	catFR1	3	R1527J
1079.93	1.256	1438173	REC_WORD	2.499	n/a	TIGER	Zoo	5	10	[0, 0, 0]	n/a	catFR1	3	R1527J
1081.186	1.184	1439429	REC_WORD	3.755	n/a	MONKEY	Zoo	6	10	[0, 0, 0]	n/a	catFR1	3	R1527J
1082.37	2.11	1440613	REC_WORD	4.939	n/a	SPATULA	KitchenTools	3	10	[0, 0, 0]	n/a	catFR1	3	R1527J
1084.48	9.351	1442722	REC_WORD	7.049	n/a	PEELER	KitchenTools	4	10	[0, 0, 0]	n/a	catFR1	3	R1527J
1093.831	12.882	1452073	REC_WORD_VV	16.4	n/a	<>	n/a	-999	10	[0, 0, 0]	n/a	catFR1	3	R1527J
1106.713	0.942	1464954	REC_WORD_VV	29.282	n/a	<>	n/a	-999	10	[0, 0, 0]	n/a	catFR1	3	R1527J
1107.655	1.161	1465899	REC_END	n/a	n/a	n/a	n/a	-999	10	[0, 0, 0]	n/a	catFR1	3	R1527J
1108.816	10.348	1467056	COUNTDOWN_START	n/a	n/a	n/a	n/a	-999	11	[0, 0, 0]	n/a	catFR1	3	R1527J
1119.164	0.0	1477408	COUNTDOWN_END	n/a	n/a	n/a	n/a	-999	11	[0, 0, 0]	n/a	catFR1	3	R1527J
1119.164	1.852	1477408	ENCODING_START	n/a	n/a	n/a	n/a	-999	11	[0, 0, 0]	n/a	catFR1	3	R1527J
1121.016	1.6	1479254	WORD	n/a	wordpools/wordpool_categorized_EN.txt	ARM	BodyParts	1	11	[0, 0, 0]	n/a	catFR1	3	R1527J
1122.616	0.949	1480853	WORD_OFF	n/a	n/a	ARM	BodyParts	1	11	[0, 0, 0]	n/a	catFR1	3	R1527J
1123.565	1.601	1481808	WORD	n/a	wordpools/wordpool_categorized_EN.txt	EAR	BodyParts	2	11	[0, 0, 0]	n/a	catFR1	3	R1527J
1125.166	0.768	1483406	WORD_OFF	n/a	n/a	EAR	BodyParts	2	11	[0, 0, 0]	n/a	catFR1	3	R1527J
1125.934	1.598	1484178	WORD	n/a	wordpools/wordpool_categorized_EN.txt	PANDA	Zoo	3	11	[0, 0, 0]	n/a	catFR1	3	R1527J
1127.532	0.767	1485776	WORD_OFF	n/a	n/a	PANDA	Zoo	3	11	[0, 0, 0]	n/a	catFR1	3	R1527J
1128.299	1.617	1486538	WORD	n/a	wordpools/wordpool_categorized_EN.txt	GORILLA	Zoo	4	11	[0, 0, 0]	n/a	catFR1	3	R1527J
1129.916	0.999	1488155	WORD_OFF	n/a	n/a	GORILLA	Zoo	4	11	[0, 0, 0]	n/a	catFR1	3	R1527J
1130.915	1.6	1489156	WORD	n/a	wordpools/wordpool_categorized_EN.txt	KNIFE	KitchenTools	5	11	[0, 0, 0]	n/a	catFR1	3	R1527J
1132.515	0.9	1490754	WORD_OFF	n/a	n/a	KNIFE	KitchenTools	5	11	[0, 0, 0]	n/a	catFR1	3	R1527J
1133.415	1.601	1491654	WORD	n/a	wordpools/wordpool_categorized_EN.txt	TONGS	KitchenTools	6	11	[0, 0, 0]	n/a	catFR1	3	R1527J
1135.016	0.949	1493253	WORD_OFF	n/a	n/a	TONGS	KitchenTools	6	11	[0, 0, 0]	n/a	catFR1	3	R1527J
1135.965	1.6	1494208	WORD	n/a	wordpools/wordpool_categorized_EN.txt	LEG	BodyParts	7	11	[0, 0, 0]	n/a	catFR1	3	R1527J
1137.565	0.883	1495806	WORD_OFF	n/a	n/a	LEG	BodyParts	7	11	[0, 0, 0]	n/a	catFR1	3	R1527J
1138.448	1.6	1496688	WORD	n/a	wordpools/wordpool_categorized_EN.txt	FOOT	BodyParts	8	11	[0, 0, 0]	n/a	catFR1	3	R1527J
1140.048	0.851	1498286	WORD_OFF	n/a	n/a	FOOT	BodyParts	8	11	[0, 0, 0]	n/a	catFR1	3	R1527J
1140.899	1.616	1499140	WORD	n/a	wordpools/wordpool_categorized_EN.txt	CORKSCREW	KitchenTools	9	11	[0, 0, 0]	n/a	catFR1	3	R1527J
1142.515	0.983	1500757	WORD_OFF	n/a	n/a	CORKSCREW	KitchenTools	9	11	[0, 0, 0]	n/a	catFR1	3	R1527J
1143.498	1.601	1501740	WORD	n/a	wordpools/wordpool_categorized_EN.txt	SPOON	KitchenTools	10	11	[0, 0, 0]	n/a	catFR1	3	R1527J
1145.099	0.916	1503338	WORD_OFF	n/a	n/a	SPOON	KitchenTools	10	11	[0, 0, 0]	n/a	catFR1	3	R1527J
1146.015	1.616	1504256	WORD	n/a	wordpools/wordpool_categorized_EN.txt	GIRAFFE	Zoo	11	11	[0, 0, 0]	n/a	catFR1	3	R1527J
1147.631	0.951	1505873	WORD_OFF	n/a	n/a	GIRAFFE	Zoo	11	11	[0, 0, 0]	n/a	catFR1	3	R1527J
1148.582	1.6	1506819	WORD	n/a	wordpools/wordpool_categorized_EN.txt	LION	Zoo	12	11	[0, 0, 0]	n/a	catFR1	3	R1527J
1150.182	0.001	1508421	PROB	3.716	n/a	n/a	n/a	-999	11	[6, 5, 4]	15.0	catFR1	3	R1527J
1150.183	0.0	1508422	START	n/a	n/a	n/a	n/a	-999	11	[-999, -999, -999]	n/a	catFR1	3	R1527J
1150.182	0.001	1508426	WORD_OFF	n/a	n/a	LION	Zoo	12	11	[0, 0, 0]	n/a	catFR1	3	R1527J
1150.183	0.0	1508426	ENCODING_END	n/a	n/a	n/a	n/a	-999	11	[0, 0, 0]	n/a	catFR1	3	R1527J
1150.183	3.733	1508426	DISTRACT_START	n/a	n/a	n/a	n/a	-999	11	[0, 0, 0]	n/a	catFR1	3	R1527J
1153.916	5.533	1512155	PROB	5.515	n/a	n/a	n/a	-999	11	[3, 5, 6]	14.0	catFR1	3	R1527J
1159.449	2.85	1517687	PROB	2.832	n/a	n/a	n/a	-999	11	[7, 4, 4]	15.0	catFR1	3	R1527J
1162.299	2.215	1520537	PROB	2.198	n/a	n/a	n/a	-999	11	[2, 2, 4]	8.0	catFR1	3	R1527J
1164.514	2.353	1522752	PROB	2.334	n/a	n/a	n/a	-999	11	[2, 4, 2]	8.0	catFR1	3	R1527J
1166.867	2.332	1525105	PROB	2.316	n/a	n/a	n/a	-999	11	[8, 3, 7]	18.0	catFR1	3	R1527J
1169.199	3.632	1527437	PROB	3.616	n/a	n/a	n/a	-999	11	[4, 8, 6]	18.0	catFR1	3	R1527J
1172.831	0.0	1531068	DISTRACT_END	n/a	n/a	n/a	n/a	-999	11	[0, 0, 0]	n/a	catFR1	3	R1527J
1172.831	1.667	1531069	STOP	n/a	n/a	n/a	n/a	-999	11	[-999, -999, -999]	n/a	catFR1	3	R1527J
1174.498	1.456	1532740	REC_START	n/a	n/a	n/a	n/a	-999	11	[0, 0, 0]	n/a	catFR1	3	R1527J
1175.954	1.086	1534192	REC_WORD	1.456	n/a	ARM	BodyParts	1	11	[0, 0, 0]	n/a	catFR1	3	R1527J
1177.04	1.844	1535277	REC_WORD	2.542	n/a	EAR	BodyParts	2	11	[0, 0, 0]	n/a	catFR1	3	R1527J
1178.884	1.294	1537121	REC_WORD	4.386	n/a	LEG	BodyParts	7	11	[0, 0, 0]	n/a	catFR1	3	R1527J
1180.178	1.753	1538415	REC_WORD	5.68	n/a	PANDA	Zoo	3	11	[0, 0, 0]	n/a	catFR1	3	R1527J
1181.931	1.995	1540168	REC_WORD	7.433	n/a	GORILLA	Zoo	4	11	[0, 0, 0]	n/a	catFR1	3	R1527J
1183.926	8.488	1542163	REC_WORD	9.428	n/a	GIRAFFE	Zoo	11	11	[0, 0, 0]	n/a	catFR1	3	R1527J
1192.414	12.311	1550651	REC_WORD_VV	17.916	n/a	<>	n/a	-999	11	[0, 0, 0]	n/a	catFR1	3	R1527J
1204.725	1.273	1562959	REC_END	n/a	n/a	n/a	n/a	-999	11	[0, 0, 0]	n/a	catFR1	3	R1527J
1205.998	10.35	1564236	COUNTDOWN_START	n/a	n/a	n/a	n/a	-999	12	[0, 0, 0]	n/a	catFR1	3	R1527J
1216.348	0.0	1574587	COUNTDOWN_END	n/a	n/a	n/a	n/a	-999	12	[0, 0, 0]	n/a	catFR1	3	R1527J
1216.348	2.101	1574587	ENCODING_START	n/a	n/a	n/a	n/a	-999	12	[0, 0, 0]	n/a	catFR1	3	R1527J
1218.449	1.6	1576682	WORD	n/a	wordpools/wordpool_categorized_EN.txt	COMPUTER	Electronics	1	12	[0, 0, 0]	n/a	catFR1	3	R1527J
1220.049	0.917	1578289	WORD_OFF	n/a	n/a	COMPUTER	Electronics	1	12	[0, 0, 0]	n/a	catFR1	3	R1527J
1220.966	1.6	1579198	WORD	n/a	wordpools/wordpool_categorized_EN.txt	PHONE	Electronics	2	12	[0, 0, 0]	n/a	catFR1	3	R1527J
1222.566	0.999	1580806	WORD_OFF	n/a	n/a	PHONE	Electronics	2	12	[0, 0, 0]	n/a	catFR1	3	R1527J
1223.565	1.616	1581798	WORD	n/a	wordpools/wordpool_categorized_EN.txt	BEE	Insects	3	12	[0, 0, 0]	n/a	catFR1	3	R1527J
1225.181	1.001	1583414	WORD_OFF	n/a	n/a	BEE	Insects	3	12	[0, 0, 0]	n/a	catFR1	3	R1527J
1226.182	1.616	1584415	WORD	n/a	wordpools/wordpool_categorized_EN.txt	FLY	Insects	4	12	[0, 0, 0]	n/a	catFR1	3	R1527J
1227.798	0.866	1586032	WORD_OFF	n/a	n/a	FLY	Insects	4	12	[0, 0, 0]	n/a	catFR1	3	R1527J
1228.664	1.601	1586895	WORD	n/a	wordpools/wordpool_categorized_EN.txt	GRATER	KitchenTools	5	12	[0, 0, 0]	n/a	catFR1	3	R1527J
1230.265	0.983	1588503	WORD_OFF	n/a	n/a	GRATER	KitchenTools	5	12	[0, 0, 0]	n/a	catFR1	3	R1527J
1231.248	1.617	1589486	WORD	n/a	wordpools/wordpool_categorized_EN.txt	STRAINER	KitchenTools	6	12	[0, 0, 0]	n/a	catFR1	3	R1527J
1232.865	0.883	1591102	WORD_OFF	n/a	n/a	STRAINER	KitchenTools	6	12	[0, 0, 0]	n/a	catFR1	3	R1527J
1233.748	1.6	1591984	WORD	n/a	wordpools/wordpool_categorized_EN.txt	CRICKET	Insects	7	12	[0, 0, 0]	n/a	catFR1	3	R1527J
1235.348	0.85	1593582	WORD_OFF	n/a	n/a	CRICKET	Insects	7	12	[0, 0, 0]	n/a	catFR1	3	R1527J
1236.198	1.6	1594436	WORD	n/a	wordpools/wordpool_categorized_EN.txt	SPIDER	Insects	8	12	[0, 0, 0]	n/a	catFR1	3	R1527J
1237.798	0.818	1596035	WORD_OFF	n/a	n/a	SPIDER	Insects	8	12	[0, 0, 0]	n/a	catFR1	3	R1527J
1238.616	1.6	1596852	WORD	n/a	wordpools/wordpool_categorized_EN.txt	PRINTER	Electronics	9	12	[0, 0, 0]	n/a	catFR1	3	R1527J
1240.216	0.95	1598450	WORD_OFF	n/a	n/a	PRINTER	Electronics	9	12	[0, 0, 0]	n/a	catFR1	3	R1527J
1241.166	1.616	1599396	WORD	n/a	wordpools/wordpool_categorized_EN.txt	HEADPHONES	Electronics	10	12	[0, 0, 0]	n/a	catFR1	3	R1527J
1242.782	0.933	1601013	WORD_OFF	n/a	n/a	HEADPHONES	Electronics	10	12	[0, 0, 0]	n/a	catFR1	3	R1527J
1243.715	1.6	1601950	WORD	n/a	wordpools/wordpool_categorized_EN.txt	COLANDER	KitchenTools	11	12	[0, 0, 0]	n/a	catFR1	3	R1527J
1245.315	0.867	1603548	WORD_OFF	n/a	n/a	COLANDER	KitchenTools	11	12	[0, 0, 0]	n/a	catFR1	3	R1527J
1246.182	1.617	1604421	WORD	n/a	wordpools/wordpool_categorized_EN.txt	WHISK	KitchenTools	12	12	[0, 0, 0]	n/a	catFR1	3	R1527J
1247.799	0.002	1606033	PROB	2.916	n/a	n/a	n/a	-999	12	[4, 6, 8]	18.0	catFR1	3	R1527J
1247.801	0.0	1606035	START	n/a	n/a	n/a	n/a	-999	12	[-999, -999, -999]	n/a	catFR1	3	R1527J
1247.799	0.002	1606037	WORD_OFF	n/a	n/a	WHISK	KitchenTools	12	12	[0, 0, 0]	n/a	catFR1	3	R1527J
1247.801	0.0	1606037	ENCODING_END	n/a	n/a	n/a	n/a	-999	12	[0, 0, 0]	n/a	catFR1	3	R1527J
1247.801	2.93	1606037	DISTRACT_START	n/a	n/a	n/a	n/a	-999	12	[0, 0, 0]	n/a	catFR1	3	R1527J
1250.731	1.933	1608965	PROB	1.917	n/a	n/a	n/a	-999	12	[5, 2, 5]	12.0	catFR1	3	R1527J
1252.664	2.236	1610897	PROB	2.217	n/a	n/a	n/a	-999	12	[1, 2, 3]	6.0	catFR1	3	R1527J
1254.9	3.698	1613133	PROB	3.682	n/a	n/a	n/a	-999	12	[4, 5, 3]	12.0	catFR1	3	R1527J
1258.598	3.1	1616831	PROB	3.083	n/a	n/a	n/a	-999	12	[1, 8, 8]	17.0	catFR1	3	R1527J
1261.698	3.567	1619931	PROB	3.549	n/a	n/a	n/a	-999	12	[2, 7, 5]	14.0	catFR1	3	R1527J
1265.265	12.817	1623498	PROB	12.8	n/a	n/a	n/a	-999	12	[7, 6, 8]	18.0	catFR1	3	R1527J
1278.082	0.0	1636312	DISTRACT_END	n/a	n/a	n/a	n/a	-999	12	[0, 0, 0]	n/a	catFR1	3	R1527J
1278.082	1.75	1636314	STOP	n/a	n/a	n/a	n/a	-999	12	[-999, -999, -999]	n/a	catFR1	3	R1527J
1279.832	0.202	1638066	REC_START	n/a	n/a	n/a	n/a	-999	12	[0, 0, 0]	n/a	catFR1	3	R1527J
1280.034	8.037	1638266	REC_WORD_VV	0.202	n/a	<>	n/a	-999	12	[0, 0, 0]	n/a	catFR1	3	R1527J
1288.071	1.594	1646303	REC_WORD	8.239	n/a	BEE	Insects	3	12	[0, 0, 0]	n/a	catFR1	3	R1527J
1289.665	1.0	1647896	REC_WORD	9.833	n/a	FLY	Insects	4	12	[0, 0, 0]	n/a	catFR1	3	R1527J
1290.665	1.192	1648896	REC_WORD_VV	10.833	n/a	<>	n/a	-999	12	[0, 0, 0]	n/a	catFR1	3	R1527J
1291.857	1.307	1650088	REC_WORD	12.025	n/a	COMPUTER	Electronics	1	12	[0, 0, 0]	n/a	catFR1	3	R1527J
1293.164	1.985	1651395	REC_WORD	13.332	n/a	PHONE	Electronics	2	12	[0, 0, 0]	n/a	catFR1	3	R1527J
1295.149	1.032	1653380	REC_WORD	15.317	n/a	COLANDER	KitchenTools	11	12	[0, 0, 0]	n/a	catFR1	3	R1527J
1296.181	1.635	1654412	REC_WORD	16.349	n/a	STRAINER	KitchenTools	6	12	[0, 0, 0]	n/a	catFR1	3	R1527J
1297.816	12.241	1656047	REC_WORD	17.984	n/a	GRAINER	n/a	-999	12	[0, 0, 0]	n/a	catFR1	3	R1527J
1310.057	0.0	1668285	REC_END	n/a	n/a	n/a	n/a	-999	12	[0, 0, 0]	n/a	catFR1	3	R1527J
