onset	duration	sample	trial_type	response_time	stim_file	item_name	category	serialpos	list	test	answer	experiment	session	subject
0.0	74.748	99815	SESS_START	n/a	n/a	n/a	n/a	-999	-999	[0, 0, 0]	n/a	catFR1	0	R1108J
74.748	10.428	174563	COUNTDOWN_START	n/a	n/a	n/a	n/a	-999	-999	[0, 0, 0]	n/a	catFR1	0	R1108J
85.176	3.641	184991	COUNTDOWN_END	n/a	n/a	n/a	n/a	-999	-999	[0, 0, 0]	n/a	catFR1	0	R1108J
88.817	2.533	188632	PRACTICE_WORD	n/a	n/a	RING	n/a	-999	-999	[0, 0, 0]	n/a	catFR1	0	R1108J
91.35	2.501	191165	PRACTICE_WORD	n/a	n/a	RHINO	n/a	-999	-999	[0, 0, 0]	n/a	catFR1	0	R1108J
93.851	2.583	193666	PRACTICE_WORD	n/a	n/a	ATTIC	n/a	-999	-999	[0, 0, 0]	n/a	catFR1	0	R1108J
96.434	2.434	196249	PRACTICE_WORD	n/a	n/a	COTTON	n/a	-999	-999	[0, 0, 0]	n/a	catFR1	0	R1108J
98.868	2.5	198683	PRACTICE_WORD	n/a	n/a	BEAM	n/a	-999	-999	[0, 0, 0]	n/a	catFR1	0	R1108J
101.368	2.501	201183	PRACTICE_WORD	n/a	n/a	CAMEL	n/a	-999	-999	[0, 0, 0]	n/a	catFR1	0	R1108J
103.869	2.582	203684	PRACTICE_WORD	n/a	n/a	CHEST	n/a	-999	-999	[0, 0, 0]	n/a	catFR1	0	R1108J
106.451	2.368	206266	PRACTICE_WORD	n/a	n/a	TONGUE	n/a	-999	-999	[0, 0, 0]	n/a	catFR1	0	R1108J
108.819	2.451	208634	PRACTICE_WORD	n/a	n/a	WATCH	n/a	-999	-999	[0, 0, 0]	n/a	catFR1	0	R1108J
111.27	2.4	211085	PRACTICE_WORD	n/a	n/a	IRON	n/a	-999	-999	[0, 0, 0]	n/a	catFR1	0	R1108J
113.67	2.567	213485	PRACTICE_WORD	n/a	n/a	WAGON	n/a	-999	-999	[0, 0, 0]	n/a	catFR1	0	R1108J
116.237	1.617	216052	PRACTICE_WORD	n/a	n/a	FLOOD	n/a	-999	-999	[0, 0, 0]	n/a	catFR1	0	R1108J
117.854	0.0	217669	PRACTICE_DISTRACT_START	n/a	n/a	n/a	n/a	-999	-999	[0, 0, 0]	n/a	catFR1	0	R1108J
117.854	0.016	217669	START	n/a	n/a	n/a	n/a	-999	-1	[-999, -999, -999]	n/a	catFR1	0	R1108J
117.87	4.284	217685	PROB	4.261	n/a	n/a	n/a	-999	-1	[2, 1, 4]	7.0	catFR1	0	R1108J
122.154	7.184	221969	PROB	7.16	n/a	n/a	n/a	-999	-1	[5, 2, 8]	15.0	catFR1	0	R1108J
129.338	9.336	229153	PROB	9.336	n/a	n/a	n/a	-999	-1	[6, 1, 8]	15.0	catFR1	0	R1108J
138.674	0.016	238489	STOP	n/a	n/a	n/a	n/a	-999	-1	[-999, -999, -999]	n/a	catFR1	0	R1108J
138.69	0.586	238505	PRACTICE_DISTRACT_END	n/a	n/a	n/a	n/a	-999	-999	[0, 0, 0]	n/a	catFR1	0	R1108J
139.276	30.514	239091	PRACTICE_REC_START	n/a	n/a	n/a	n/a	-999	-999	[0, 0, 0]	n/a	catFR1	0	R1108J
169.79	9.787	269605	PRACTICE_REC_END	n/a	n/a	n/a	n/a	-999	-999	[0, 0, 0]	n/a	catFR1	0	R1108J
179.577	0.0	279392	TRIAL	n/a	n/a	n/a	n/a	-999	1	[0, 0, 0]	n/a	catFR1	0	R1108J
179.577	10.428	279392	COUNTDOWN_START	n/a	n/a	n/a	n/a	-999	1	[0, 0, 0]	n/a	catFR1	0	R1108J
190.005	0.008	289820	COUNTDOWN_END	n/a	n/a	n/a	n/a	-999	1	[0, 0, 0]	n/a	catFR1	0	R1108J
190.013	3.4	289828	ORIENT	n/a	n/a	n/a	n/a	-999	1	[0, 0, 0]	n/a	catFR1	0	R1108J
193.413	2.45	293228	WORD	n/a	wordpools/wordpool_categorized_EN.txt	ROACH	Insects	1	1	[0, 0, 0]	n/a	catFR1	0	R1108J
195.863	2.583	295678	WORD	n/a	wordpools/wordpool_categorized_EN.txt	LADYBUG	Insects	2	1	[0, 0, 0]	n/a	catFR1	0	R1108J
198.446	2.402	298261	WORD	n/a	wordpools/wordpool_categorized_EN.txt	JEEP	Vehicles	3	1	[0, 0, 0]	n/a	catFR1	0	R1108J
200.848	2.517	300663	WORD	n/a	wordpools/wordpool_categorized_EN.txt	VAN	Vehicles	4	1	[0, 0, 0]	n/a	catFR1	0	R1108J
203.365	2.433	303180	WORD	n/a	wordpools/wordpool_categorized_EN.txt	FOG	Weather	5	1	[0, 0, 0]	n/a	catFR1	0	R1108J
205.798	2.4	305613	WORD	n/a	wordpools/wordpool_categorized_EN.txt	HUMIDITY	Weather	6	1	[0, 0, 0]	n/a	catFR1	0	R1108J
208.198	2.517	308013	WORD	n/a	wordpools/wordpool_categorized_EN.txt	SPIDER	Insects	7	1	[0, 0, 0]	n/a	catFR1	0	R1108J
210.715	2.568	310530	WORD	n/a	wordpools/wordpool_categorized_EN.txt	BEETLE	Insects	8	1	[0, 0, 0]	n/a	catFR1	0	R1108J
213.283	2.483	313098	WORD	n/a	wordpools/wordpool_categorized_EN.txt	LIGHTNING	Weather	9	1	[0, 0, 0]	n/a	catFR1	0	R1108J
215.766	2.5	315581	WORD	n/a	wordpools/wordpool_categorized_EN.txt	THUNDERSTORM	Weather	10	1	[0, 0, 0]	n/a	catFR1	0	R1108J
218.266	2.617	318081	WORD	n/a	wordpools/wordpool_categorized_EN.txt	MOPED	Vehicles	11	1	[0, 0, 0]	n/a	catFR1	0	R1108J
220.883	1.616	320698	WORD	n/a	wordpools/wordpool_categorized_EN.txt	CAR	Vehicles	12	1	[0, 0, 0]	n/a	catFR1	0	R1108J
222.499	0.002	322313	DISTRACT_START	n/a	n/a	n/a	n/a	-999	1	[0, 0, 0]	n/a	catFR1	0	R1108J
222.501	0.015	322315	START	n/a	n/a	n/a	n/a	-999	1	[-999, -999, -999]	n/a	catFR1	0	R1108J
222.516	4.451	322330	PROB	4.418	n/a	n/a	n/a	-999	1	[3, 4, 4]	11.0	catFR1	0	R1108J
226.967	3.701	326781	PROB	3.679	n/a	n/a	n/a	-999	1	[5, 5, 8]	18.0	catFR1	0	R1108J
230.668	9.051	330482	PROB	9.018	n/a	n/a	n/a	-999	1	[7, 8, 8]	23.0	catFR1	0	R1108J
239.719	11.822	339533	PROB	11.822	n/a	n/a	n/a	-999	1	[8, 9, 4]	21.0	catFR1	0	R1108J
251.541	0.012	351355	STOP	n/a	n/a	n/a	n/a	-999	1	[-999, -999, -999]	n/a	catFR1	0	R1108J
251.553	1.056	351367	DISTRACT_END	n/a	n/a	n/a	n/a	-999	1	[0, 0, 0]	n/a	catFR1	0	R1108J
252.609	0.804	352423	REC_START	n/a	n/a	n/a	n/a	-999	1	[0, 0, 0]	n/a	catFR1	0	R1108J
253.413	0.673	353227	REC_WORD	0.804	n/a	LADYBUG	Insects	2	1	[0, 0, 0]	n/a	catFR1	0	R1108J
254.086	1.625	353900	REC_WORD	1.477	n/a	BEETLE	Insects	8	1	[0, 0, 0]	n/a	catFR1	0	R1108J
255.711	1.703	355525	REC_WORD	3.102	n/a	ROACH	Insects	1	1	[0, 0, 0]	n/a	catFR1	0	R1108J
257.414	1.138	357228	REC_WORD	4.805	n/a	MOPED	Vehicles	11	1	[0, 0, 0]	n/a	catFR1	0	R1108J
258.552	1.061	358366	REC_WORD	5.943	n/a	CAR	Vehicles	12	1	[0, 0, 0]	n/a	catFR1	0	R1108J
259.613	1.62	359427	REC_WORD	7.004	n/a	VAN	Vehicles	4	1	[0, 0, 0]	n/a	catFR1	0	R1108J
261.233	2.261	361047	REC_WORD_VV	8.624	n/a	<>	n/a	-999	1	[0, 0, 0]	n/a	catFR1	0	R1108J
263.494	1.0	363308	REC_WORD	10.885	n/a	THUNDERSTORM	Weather	10	1	[0, 0, 0]	n/a	catFR1	0	R1108J
264.494	0.118	364308	REC_WORD_VV	11.885	n/a	<>	n/a	-999	1	[0, 0, 0]	n/a	catFR1	0	R1108J
264.612	18.001	364426	REC_WORD	12.003	n/a	LIGHTNING	Weather	9	1	[0, 0, 0]	n/a	catFR1	0	R1108J
282.613	8.146	382427	REC_END	n/a	n/a	n/a	n/a	-999	1	[0, 0, 0]	n/a	catFR1	0	R1108J
290.759	0.0	390573	TRIAL	n/a	n/a	n/a	n/a	-999	2	[0, 0, 0]	n/a	catFR1	0	R1108J
290.759	10.428	390573	COUNTDOWN_START	n/a	n/a	n/a	n/a	-999	2	[0, 0, 0]	n/a	catFR1	0	R1108J
301.187	0.007	401001	COUNTDOWN_END	n/a	n/a	n/a	n/a	-999	2	[0, 0, 0]	n/a	catFR1	0	R1108J
301.194	3.633	401008	ORIENT	n/a	n/a	n/a	n/a	-999	2	[0, 0, 0]	n/a	catFR1	0	R1108J
304.827	2.417	404641	WORD	n/a	wordpools/wordpool_categorized_EN.txt	HORSE	FarmAnimals	1	2	[0, 0, 0]	n/a	catFR1	0	R1108J
307.244	2.451	407058	WORD	n/a	wordpools/wordpool_categorized_EN.txt	GOAT	FarmAnimals	2	2	[0, 0, 0]	n/a	catFR1	0	R1108J
309.695	2.617	409509	WORD	n/a	wordpools/wordpool_categorized_EN.txt	STOVE	Appliances	3	2	[0, 0, 0]	n/a	catFR1	0	R1108J
312.312	2.566	412126	WORD	n/a	wordpools/wordpool_categorized_EN.txt	MIXER	Appliances	4	2	[0, 0, 0]	n/a	catFR1	0	R1108J
314.878	2.401	414692	WORD	n/a	wordpools/wordpool_categorized_EN.txt	BATHROOM	Building	5	2	[0, 0, 0]	n/a	catFR1	0	R1108J
317.279	2.4	417093	WORD	n/a	wordpools/wordpool_categorized_EN.txt	STAIRS	Building	6	2	[0, 0, 0]	n/a	catFR1	0	R1108J
319.679	2.617	419493	WORD	n/a	wordpools/wordpool_categorized_EN.txt	ROOSTER	FarmAnimals	7	2	[0, 0, 0]	n/a	catFR1	0	R1108J
322.296	2.501	422110	WORD	n/a	wordpools/wordpool_categorized_EN.txt	BULL	FarmAnimals	8	2	[0, 0, 0]	n/a	catFR1	0	R1108J
324.797	2.433	424611	WORD	n/a	wordpools/wordpool_categorized_EN.txt	WALL	Building	9	2	[0, 0, 0]	n/a	catFR1	0	R1108J
327.23	2.467	427044	WORD	n/a	wordpools/wordpool_categorized_EN.txt	ATTIC	Building	10	2	[0, 0, 0]	n/a	catFR1	0	R1108J
329.697	2.384	429511	WORD	n/a	wordpools/wordpool_categorized_EN.txt	REFRIGERATOR	Appliances	11	2	[0, 0, 0]	n/a	catFR1	0	R1108J
332.081	1.617	431895	WORD	n/a	wordpools/wordpool_categorized_EN.txt	DISHWASHER	Appliances	12	2	[0, 0, 0]	n/a	catFR1	0	R1108J
333.698	0.0	433512	DISTRACT_START	n/a	n/a	n/a	n/a	-999	2	[0, 0, 0]	n/a	catFR1	0	R1108J
333.698	0.017	433512	START	n/a	n/a	n/a	n/a	-999	2	[-999, -999, -999]	n/a	catFR1	0	R1108J
333.715	6.55	433529	PROB	6.527	n/a	n/a	n/a	-999	2	[3, 3, 7]	13.0	catFR1	0	R1108J
340.265	10.902	440079	PROB	10.88	n/a	n/a	n/a	-999	2	[9, 4, 4]	17.0	catFR1	0	R1108J
351.167	5.194	450981	PROB	5.194	n/a	n/a	n/a	-999	2	[9, 2, 2]	13.0	catFR1	0	R1108J
356.361	0.006	456175	STOP	n/a	n/a	n/a	n/a	-999	2	[-999, -999, -999]	n/a	catFR1	0	R1108J
356.367	1.183	456181	DISTRACT_END	n/a	n/a	n/a	n/a	-999	2	[0, 0, 0]	n/a	catFR1	0	R1108J
357.55	1.264	457364	REC_START	n/a	n/a	n/a	n/a	-999	2	[0, 0, 0]	n/a	catFR1	0	R1108J
358.814	0.585	458628	REC_WORD	1.264	n/a	DISHWASHER	Appliances	12	2	[0, 0, 0]	n/a	catFR1	0	R1108J
359.399	1.721	459213	REC_WORD	1.849	n/a	REFRIGERATOR	Appliances	11	2	[0, 0, 0]	n/a	catFR1	0	R1108J
361.12	0.579	460934	REC_WORD	3.57	n/a	GOAT	FarmAnimals	2	2	[0, 0, 0]	n/a	catFR1	0	R1108J
361.699	1.338	461513	REC_WORD	4.149	n/a	HORSE	FarmAnimals	1	2	[0, 0, 0]	n/a	catFR1	0	R1108J
363.037	1.0	462851	REC_WORD_VV	5.487	n/a	<>	n/a	-999	2	[0, 0, 0]	n/a	catFR1	0	R1108J
364.037	4.589	463851	REC_WORD_VV	6.487	n/a	<>	n/a	-999	2	[0, 0, 0]	n/a	catFR1	0	R1108J
368.626	2.205	468440	REC_WORD	11.076	n/a	STAIRS	Building	6	2	[0, 0, 0]	n/a	catFR1	0	R1108J
370.831	1.691	470645	REC_WORD	13.281	n/a	BATHROOM	Building	5	2	[0, 0, 0]	n/a	catFR1	0	R1108J
372.522	1.71	472336	REC_WORD	14.972	n/a	WALL	Building	9	2	[0, 0, 0]	n/a	catFR1	0	R1108J
374.232	13.33	474046	REC_WORD_VV	16.682	n/a	<>	n/a	-999	2	[0, 0, 0]	n/a	catFR1	0	R1108J
387.562	2.543	487376	REC_END	n/a	n/a	n/a	n/a	-999	2	[0, 0, 0]	n/a	catFR1	0	R1108J
390.105	0.0	489919	COUNTDOWN_START	n/a	n/a	n/a	n/a	-999	3	[0, 0, 0]	n/a	catFR1	0	R1108J
390.105	10.428	489919	TRIAL	n/a	n/a	n/a	n/a	-999	3	[0, 0, 0]	n/a	catFR1	0	R1108J
400.533	0.006	500347	COUNTDOWN_END	n/a	n/a	n/a	n/a	-999	3	[0, 0, 0]	n/a	catFR1	0	R1108J
400.539	3.835	500353	ORIENT	n/a	n/a	n/a	n/a	-999	3	[0, 0, 0]	n/a	catFR1	0	R1108J
404.374	2.583	504188	WORD	n/a	wordpools/wordpool_categorized_EN.txt	BOAT	Vehicles	1	3	[0, 0, 0]	n/a	catFR1	0	R1108J
406.957	2.417	506771	WORD	n/a	wordpools/wordpool_categorized_EN.txt	SCOOTER	Vehicles	2	3	[0, 0, 0]	n/a	catFR1	0	R1108J
409.374	2.45	509188	WORD	n/a	wordpools/wordpool_categorized_EN.txt	SHOES	Clothing	3	3	[0, 0, 0]	n/a	catFR1	0	R1108J
411.824	2.551	511638	WORD	n/a	wordpools/wordpool_categorized_EN.txt	JACKET	Clothing	4	3	[0, 0, 0]	n/a	catFR1	0	R1108J
414.375	2.417	514189	WORD	n/a	wordpools/wordpool_categorized_EN.txt	LION	Zoo	5	3	[0, 0, 0]	n/a	catFR1	0	R1108J
416.792	2.6	516606	WORD	n/a	wordpools/wordpool_categorized_EN.txt	GORILLA	Zoo	6	3	[0, 0, 0]	n/a	catFR1	0	R1108J
419.392	2.517	519206	WORD	n/a	wordpools/wordpool_categorized_EN.txt	MOTORCYCLE	Vehicles	7	3	[0, 0, 0]	n/a	catFR1	0	R1108J
421.909	2.401	521723	WORD	n/a	wordpools/wordpool_categorized_EN.txt	BIKE	Vehicles	8	3	[0, 0, 0]	n/a	catFR1	0	R1108J
424.31	2.533	524124	WORD	n/a	wordpools/wordpool_categorized_EN.txt	BEAR	Zoo	9	3	[0, 0, 0]	n/a	catFR1	0	R1108J
426.843	2.584	526657	WORD	n/a	wordpools/wordpool_categorized_EN.txt	CHEETAH	Zoo	10	3	[0, 0, 0]	n/a	catFR1	0	R1108J
429.427	2.517	529241	WORD	n/a	wordpools/wordpool_categorized_EN.txt	BLOUSE	Clothing	11	3	[0, 0, 0]	n/a	catFR1	0	R1108J
431.944	1.616	531758	WORD	n/a	wordpools/wordpool_categorized_EN.txt	UNDERWEAR	Clothing	12	3	[0, 0, 0]	n/a	catFR1	0	R1108J
433.56	0.001	533374	DISTRACT_START	n/a	n/a	n/a	n/a	-999	3	[0, 0, 0]	n/a	catFR1	0	R1108J
433.561	0.015	533375	START	n/a	n/a	n/a	n/a	-999	3	[-999, -999, -999]	n/a	catFR1	0	R1108J
433.576	4.017	533390	PROB	3.996	n/a	n/a	n/a	-999	3	[3, 3, 2]	8.0	catFR1	0	R1108J
437.593	10.753	537407	PROB	10.717	n/a	n/a	n/a	-999	3	[7, 1, 5]	11.0	catFR1	0	R1108J
448.346	15.043	548160	PROB	15.043	n/a	n/a	n/a	-999	3	[5, 8, 8]	21.0	catFR1	0	R1108J
463.389	0.009	563203	STOP	n/a	n/a	n/a	n/a	-999	3	[-999, -999, -999]	n/a	catFR1	0	R1108J
463.398	1.166	563212	DISTRACT_END	n/a	n/a	n/a	n/a	-999	3	[0, 0, 0]	n/a	catFR1	0	R1108J
464.564	0.757	564378	REC_START	n/a	n/a	n/a	n/a	-999	3	[0, 0, 0]	n/a	catFR1	0	R1108J
465.321	0.842	565135	REC_WORD	0.757	n/a	MOTORCYCLE	Vehicles	7	3	[0, 0, 0]	n/a	catFR1	0	R1108J
466.163	1.247	565977	REC_WORD	1.599	n/a	CHEETAH	Zoo	10	3	[0, 0, 0]	n/a	catFR1	0	R1108J
467.41	1.793	567224	REC_WORD	2.846	n/a	BEAR	Zoo	9	3	[0, 0, 0]	n/a	catFR1	0	R1108J
469.203	1.974	569017	REC_WORD	4.639	n/a	BOAT	Vehicles	1	3	[0, 0, 0]	n/a	catFR1	0	R1108J
471.177	1.818	570991	REC_WORD	6.613	n/a	UNDERWEAR	Clothing	12	3	[0, 0, 0]	n/a	catFR1	0	R1108J
472.995	2.049	572809	REC_WORD	8.431	n/a	SHOES	Clothing	3	3	[0, 0, 0]	n/a	catFR1	0	R1108J
475.044	19.535	574858	REC_WORD_VV	10.48	n/a	<>	n/a	-999	3	[0, 0, 0]	n/a	catFR1	0	R1108J
494.579	2.323	594393	REC_END	n/a	n/a	n/a	n/a	-999	3	[0, 0, 0]	n/a	catFR1	0	R1108J
496.902	0.0	596716	TRIAL	n/a	n/a	n/a	n/a	-999	4	[0, 0, 0]	n/a	catFR1	0	R1108J
496.902	10.428	596716	COUNTDOWN_START	n/a	n/a	n/a	n/a	-999	4	[0, 0, 0]	n/a	catFR1	0	R1108J
507.33	0.006	607144	COUNTDOWN_END	n/a	n/a	n/a	n/a	-999	4	[0, 0, 0]	n/a	catFR1	0	R1108J
507.336	3.834	607150	ORIENT	n/a	n/a	n/a	n/a	-999	4	[0, 0, 0]	n/a	catFR1	0	R1108J
511.17	2.417	610984	WORD	n/a	wordpools/wordpool_categorized_EN.txt	THUNDER	Weather	1	4	[0, 0, 0]	n/a	catFR1	0	R1108J
513.587	2.534	613401	WORD	n/a	wordpools/wordpool_categorized_EN.txt	CLOUD	Weather	2	4	[0, 0, 0]	n/a	catFR1	0	R1108J
516.121	2.483	615935	WORD	n/a	wordpools/wordpool_categorized_EN.txt	COLA	Beverages	3	4	[0, 0, 0]	n/a	catFR1	0	R1108J
518.604	2.518	618418	WORD	n/a	wordpools/wordpool_categorized_EN.txt	CIDER	Beverages	4	4	[0, 0, 0]	n/a	catFR1	0	R1108J
521.122	2.533	620936	WORD	n/a	wordpools/wordpool_categorized_EN.txt	DRESS	Clothing	5	4	[0, 0, 0]	n/a	catFR1	0	R1108J
523.655	2.5	623469	WORD	n/a	wordpools/wordpool_categorized_EN.txt	PANTS	Clothing	6	4	[0, 0, 0]	n/a	catFR1	0	R1108J
526.155	2.484	625969	WORD	n/a	wordpools/wordpool_categorized_EN.txt	WIND	Weather	7	4	[0, 0, 0]	n/a	catFR1	0	R1108J
528.639	2.417	628453	WORD	n/a	wordpools/wordpool_categorized_EN.txt	RAIN	Weather	8	4	[0, 0, 0]	n/a	catFR1	0	R1108J
531.056	2.499	630870	WORD	n/a	wordpools/wordpool_categorized_EN.txt	SOCKS	Clothing	9	4	[0, 0, 0]	n/a	catFR1	0	R1108J
533.555	2.618	633369	WORD	n/a	wordpools/wordpool_categorized_EN.txt	SHIRT	Clothing	10	4	[0, 0, 0]	n/a	catFR1	0	R1108J
536.173	2.383	635987	WORD	n/a	wordpools/wordpool_categorized_EN.txt	WINE	Beverages	11	4	[0, 0, 0]	n/a	catFR1	0	R1108J
538.556	1.601	638370	WORD	n/a	wordpools/wordpool_categorized_EN.txt	TEA	Beverages	12	4	[0, 0, 0]	n/a	catFR1	0	R1108J
540.157	0.001	639971	DISTRACT_START	n/a	n/a	n/a	n/a	-999	4	[0, 0, 0]	n/a	catFR1	0	R1108J
540.158	0.016	639972	START	n/a	n/a	n/a	n/a	-999	4	[-999, -999, -999]	n/a	catFR1	0	R1108J
540.174	4.784	639988	PROB	4.755	n/a	n/a	n/a	-999	4	[5, 8, 5]	18.0	catFR1	0	R1108J
544.958	4.067	644772	PROB	4.035	n/a	n/a	n/a	-999	4	[2, 2, 5]	9.0	catFR1	0	R1108J
549.025	20.959	648839	PROB	20.959	n/a	n/a	n/a	-999	4	[7, 8, 7]	22.0	catFR1	0	R1108J
569.984	0.011	669798	STOP	n/a	n/a	n/a	n/a	-999	4	[-999, -999, -999]	n/a	catFR1	0	R1108J
569.995	1.117	669809	DISTRACT_END	n/a	n/a	n/a	n/a	-999	4	[0, 0, 0]	n/a	catFR1	0	R1108J
571.112	4.239	670926	REC_START	n/a	n/a	n/a	n/a	-999	4	[0, 0, 0]	n/a	catFR1	0	R1108J
575.351	0.889	675165	REC_WORD	4.239	n/a	SOCKS	Clothing	9	4	[0, 0, 0]	n/a	catFR1	0	R1108J
576.24	2.014	676054	REC_WORD	5.128	n/a	SHOES	n/a	-999	4	[0, 0, 0]	n/a	catFR1	0	R1108J
578.254	2.367	678068	REC_WORD	7.142	n/a	DRESS	Clothing	5	4	[0, 0, 0]	n/a	catFR1	0	R1108J
580.621	1.896	680435	REC_WORD	9.509	n/a	PANTS	Clothing	6	4	[0, 0, 0]	n/a	catFR1	0	R1108J
582.517	1.955	682331	REC_WORD	11.405	n/a	WINE	Beverages	11	4	[0, 0, 0]	n/a	catFR1	0	R1108J
584.472	2.281	684286	REC_WORD_VV	13.36	n/a	<>	n/a	-999	4	[0, 0, 0]	n/a	catFR1	0	R1108J
586.753	1.867	686567	REC_WORD	15.641	n/a	CIDER	Beverages	4	4	[0, 0, 0]	n/a	catFR1	0	R1108J
588.62	12.503	688434	REC_WORD_VV	17.508	n/a	<>	n/a	-999	4	[0, 0, 0]	n/a	catFR1	0	R1108J
601.123	2.143	700937	REC_END	n/a	n/a	n/a	n/a	-999	4	[0, 0, 0]	n/a	catFR1	0	R1108J
603.266	0.0	703080	TRIAL	n/a	n/a	n/a	n/a	-999	5	[0, 0, 0]	n/a	catFR1	0	R1108J
603.266	10.428	703080	COUNTDOWN_START	n/a	n/a	n/a	n/a	-999	5	[0, 0, 0]	n/a	catFR1	0	R1108J
613.694	0.006	713508	COUNTDOWN_END	n/a	n/a	n/a	n/a	-999	5	[0, 0, 0]	n/a	catFR1	0	R1108J
613.7	3.934	713514	ORIENT	n/a	n/a	n/a	n/a	-999	5	[0, 0, 0]	n/a	catFR1	0	R1108J
617.634	2.55	717448	WORD	n/a	wordpools/wordpool_categorized_EN.txt	CHICKEN	FarmAnimals	1	5	[0, 0, 0]	n/a	catFR1	0	R1108J
620.184	2.601	719998	WORD	n/a	wordpools/wordpool_categorized_EN.txt	COW	FarmAnimals	2	5	[0, 0, 0]	n/a	catFR1	0	R1108J
622.785	2.616	722599	WORD	n/a	wordpools/wordpool_categorized_EN.txt	BROCCOLI	Vegetables	3	5	[0, 0, 0]	n/a	catFR1	0	R1108J
625.401	2.401	725215	WORD	n/a	wordpools/wordpool_categorized_EN.txt	POTATO	Vegetables	4	5	[0, 0, 0]	n/a	catFR1	0	R1108J
627.802	2.517	727616	WORD	n/a	wordpools/wordpool_categorized_EN.txt	NOSE	BodyParts	5	5	[0, 0, 0]	n/a	catFR1	0	R1108J
630.319	2.55	730133	WORD	n/a	wordpools/wordpool_categorized_EN.txt	TOE	BodyParts	6	5	[0, 0, 0]	n/a	catFR1	0	R1108J
632.869	2.567	732683	WORD	n/a	wordpools/wordpool_categorized_EN.txt	PEAS	Vegetables	7	5	[0, 0, 0]	n/a	catFR1	0	R1108J
635.436	2.617	735250	WORD	n/a	wordpools/wordpool_categorized_EN.txt	CELERY	Vegetables	8	5	[0, 0, 0]	n/a	catFR1	0	R1108J
638.053	2.483	737867	WORD	n/a	wordpools/wordpool_categorized_EN.txt	PIG	FarmAnimals	9	5	[0, 0, 0]	n/a	catFR1	0	R1108J
640.536	2.468	740350	WORD	n/a	wordpools/wordpool_categorized_EN.txt	CALF	FarmAnimals	10	5	[0, 0, 0]	n/a	catFR1	0	R1108J
643.004	2.599	742818	WORD	n/a	wordpools/wordpool_categorized_EN.txt	HAND	BodyParts	11	5	[0, 0, 0]	n/a	catFR1	0	R1108J
645.603	1.618	745417	WORD	n/a	wordpools/wordpool_categorized_EN.txt	EYE	BodyParts	12	5	[0, 0, 0]	n/a	catFR1	0	R1108J
647.221	0.001	747034	DISTRACT_START	n/a	n/a	n/a	n/a	-999	5	[0, 0, 0]	n/a	catFR1	0	R1108J
647.222	0.016	747035	START	n/a	n/a	n/a	n/a	-999	5	[-999, -999, -999]	n/a	catFR1	0	R1108J
647.238	4.216	747051	PROB	4.183	n/a	n/a	n/a	-999	5	[5, 5, 4]	14.0	catFR1	0	R1108J
651.454	4.435	751267	PROB	4.407	n/a	n/a	n/a	-999	5	[2, 2, 7]	11.0	catFR1	0	R1108J
655.889	10.951	755702	PROB	10.931	n/a	n/a	n/a	-999	5	[4, 6, 4]	14.0	catFR1	0	R1108J
666.84	5.42	766653	PROB	5.42	n/a	n/a	n/a	-999	5	[3, 9, 2]	14.0	catFR1	0	R1108J
672.26	0.014	772073	STOP	n/a	n/a	n/a	n/a	-999	5	[-999, -999, -999]	n/a	catFR1	0	R1108J
672.274	1.184	772087	DISTRACT_END	n/a	n/a	n/a	n/a	-999	5	[0, 0, 0]	n/a	catFR1	0	R1108J
673.458	2.329	773271	REC_START	n/a	n/a	n/a	n/a	-999	5	[0, 0, 0]	n/a	catFR1	0	R1108J
675.787	0.832	775600	REC_WORD	2.329	n/a	COW	FarmAnimals	2	5	[0, 0, 0]	n/a	catFR1	0	R1108J
676.619	0.857	776432	REC_WORD	3.161	n/a	PIG	FarmAnimals	9	5	[0, 0, 0]	n/a	catFR1	0	R1108J
677.476	1.701	777289	REC_WORD	4.018	n/a	CHICKEN	FarmAnimals	1	5	[0, 0, 0]	n/a	catFR1	0	R1108J
679.177	2.794	778990	REC_WORD_VV	5.719	n/a	<>	n/a	-999	5	[0, 0, 0]	n/a	catFR1	0	R1108J
681.971	1.144	781784	REC_WORD	8.513	n/a	CALF	FarmAnimals	10	5	[0, 0, 0]	n/a	catFR1	0	R1108J
683.115	0.945	782928	REC_WORD	9.657	n/a	HAND	BodyParts	11	5	[0, 0, 0]	n/a	catFR1	0	R1108J
684.06	1.697	783873	REC_WORD	10.602	n/a	TOE	BodyParts	6	5	[0, 0, 0]	n/a	catFR1	0	R1108J
685.757	17.712	785570	REC_WORD_VV	12.299	n/a	<>	n/a	-999	5	[0, 0, 0]	n/a	catFR1	0	R1108J
703.469	2.209	803282	REC_END	n/a	n/a	n/a	n/a	-999	5	[0, 0, 0]	n/a	catFR1	0	R1108J
705.678	0.001	805491	COUNTDOWN_START	n/a	n/a	n/a	n/a	-999	6	[0, 0, 0]	n/a	catFR1	0	R1108J
705.679	10.427	805492	TRIAL	n/a	n/a	n/a	n/a	-999	6	[0, 0, 0]	n/a	catFR1	0	R1108J
716.106	0.007	815919	COUNTDOWN_END	n/a	n/a	n/a	n/a	-999	6	[0, 0, 0]	n/a	catFR1	0	R1108J
716.113	3.651	815926	ORIENT	n/a	n/a	n/a	n/a	-999	6	[0, 0, 0]	n/a	catFR1	0	R1108J
719.764	2.45	819577	WORD	n/a	wordpools/wordpool_categorized_EN.txt	CABBAGE	Vegetables	1	6	[0, 0, 0]	n/a	catFR1	0	R1108J
722.214	2.45	822027	WORD	n/a	wordpools/wordpool_categorized_EN.txt	CUCUMBER	Vegetables	2	6	[0, 0, 0]	n/a	catFR1	0	R1108J
724.664	2.534	824477	WORD	n/a	wordpools/wordpool_categorized_EN.txt	HURRICANE	Weather	3	6	[0, 0, 0]	n/a	catFR1	0	R1108J
727.198	2.467	827011	WORD	n/a	wordpools/wordpool_categorized_EN.txt	TORNADO	Weather	4	6	[0, 0, 0]	n/a	catFR1	0	R1108J
729.665	2.567	829478	WORD	n/a	wordpools/wordpool_categorized_EN.txt	SHELF	Furniture	5	6	[0, 0, 0]	n/a	catFR1	0	R1108J
732.232	2.467	832045	WORD	n/a	wordpools/wordpool_categorized_EN.txt	DRESSER	Furniture	6	6	[0, 0, 0]	n/a	catFR1	0	R1108J
734.699	2.55	834512	WORD	n/a	wordpools/wordpool_categorized_EN.txt	DRIZZLE	Weather	7	6	[0, 0, 0]	n/a	catFR1	0	R1108J
737.249	2.601	837062	WORD	n/a	wordpools/wordpool_categorized_EN.txt	SNOW	Weather	8	6	[0, 0, 0]	n/a	catFR1	0	R1108J
739.85	2.417	839663	WORD	n/a	wordpools/wordpool_categorized_EN.txt	SPINACH	Vegetables	9	6	[0, 0, 0]	n/a	catFR1	0	R1108J
742.267	2.383	842080	WORD	n/a	wordpools/wordpool_categorized_EN.txt	LETTUCE	Vegetables	10	6	[0, 0, 0]	n/a	catFR1	0	R1108J
744.65	2.534	844463	WORD	n/a	wordpools/wordpool_categorized_EN.txt	CHAIR	Furniture	11	6	[0, 0, 0]	n/a	catFR1	0	R1108J
747.184	1.617	846997	WORD	n/a	wordpools/wordpool_categorized_EN.txt	COUCH	Furniture	12	6	[0, 0, 0]	n/a	catFR1	0	R1108J
748.801	0.001	848614	DISTRACT_START	n/a	n/a	n/a	n/a	-999	6	[0, 0, 0]	n/a	catFR1	0	R1108J
748.802	0.015	848615	START	n/a	n/a	n/a	n/a	-999	6	[-999, -999, -999]	n/a	catFR1	0	R1108J
748.817	3.584	848630	PROB	3.552	n/a	n/a	n/a	-999	6	[6, 1, 6]	13.0	catFR1	0	R1108J
752.401	7.668	852214	PROB	7.647	n/a	n/a	n/a	-999	6	[4, 7, 4]	15.0	catFR1	0	R1108J
760.069	16.394	859882	PROB	16.394	n/a	n/a	n/a	-999	6	[8, 9, 3]	20.0	catFR1	0	R1108J
776.463	0.007	876276	STOP	n/a	n/a	n/a	n/a	-999	6	[-999, -999, -999]	n/a	catFR1	0	R1108J
776.47	1.168	876283	DISTRACT_END	n/a	n/a	n/a	n/a	-999	6	[0, 0, 0]	n/a	catFR1	0	R1108J
777.638	1.475	877451	REC_START	n/a	n/a	n/a	n/a	-999	6	[0, 0, 0]	n/a	catFR1	0	R1108J
779.113	0.629	878926	REC_WORD	1.475	n/a	CABBAGE	Vegetables	1	6	[0, 0, 0]	n/a	catFR1	0	R1108J
779.742	1.499	879555	REC_WORD	2.104	n/a	CUCUMBER	Vegetables	2	6	[0, 0, 0]	n/a	catFR1	0	R1108J
781.241	0.832	881054	REC_WORD	3.603	n/a	SPINACH	Vegetables	9	6	[0, 0, 0]	n/a	catFR1	0	R1108J
782.073	0.681	881886	REC_WORD	4.435	n/a	COUCH	Furniture	12	6	[0, 0, 0]	n/a	catFR1	0	R1108J
782.754	1.534	882567	REC_WORD	5.116	n/a	CHAIR	Furniture	11	6	[0, 0, 0]	n/a	catFR1	0	R1108J
784.288	3.84	884101	REC_WORD_VV	6.65	n/a	<>	n/a	-999	6	[0, 0, 0]	n/a	catFR1	0	R1108J
788.128	0.861	887941	REC_WORD	10.49	n/a	DRESSER	Furniture	6	6	[0, 0, 0]	n/a	catFR1	0	R1108J
788.989	8.946	888802	REC_WORD	11.351	n/a	SHELF	Furniture	5	6	[0, 0, 0]	n/a	catFR1	0	R1108J
797.935	2.125	897748	REC_WORD	20.297	n/a	BROCCOLI	n/a	-999	6	[0, 0, 0]	n/a	catFR1	0	R1108J
800.06	0.744	899873	REC_WORD_VV	22.422	n/a	<>	n/a	-999	6	[0, 0, 0]	n/a	catFR1	0	R1108J
800.804	0.346	900617	REC_WORD	23.166	n/a	SPINACH	Vegetables	9	6	[0, 0, 0]	n/a	catFR1	0	R1108J
801.15	6.503	900963	REC_WORD_VV	23.512	n/a	<>	n/a	-999	6	[0, 0, 0]	n/a	catFR1	0	R1108J
807.653	2.189	907466	REC_END	n/a	n/a	n/a	n/a	-999	6	[0, 0, 0]	n/a	catFR1	0	R1108J
809.842	0.0	909655	TRIAL	n/a	n/a	n/a	n/a	-999	7	[0, 0, 0]	n/a	catFR1	0	R1108J
809.842	10.428	909655	COUNTDOWN_START	n/a	n/a	n/a	n/a	-999	7	[0, 0, 0]	n/a	catFR1	0	R1108J
820.27	0.007	920083	COUNTDOWN_END	n/a	n/a	n/a	n/a	-999	7	[0, 0, 0]	n/a	catFR1	0	R1108J
820.277	3.583	920090	ORIENT	n/a	n/a	n/a	n/a	-999	7	[0, 0, 0]	n/a	catFR1	0	R1108J
823.86	2.433	923673	WORD	n/a	wordpools/wordpool_categorized_EN.txt	OYSTER	OceanAnimals	1	7	[0, 0, 0]	n/a	catFR1	0	R1108J
826.293	2.485	926106	WORD	n/a	wordpools/wordpool_categorized_EN.txt	WHALE	OceanAnimals	2	7	[0, 0, 0]	n/a	catFR1	0	R1108J
828.778	2.567	928591	WORD	n/a	wordpools/wordpool_categorized_EN.txt	MOSQUITO	Insects	3	7	[0, 0, 0]	n/a	catFR1	0	R1108J
831.345	2.6	931158	WORD	n/a	wordpools/wordpool_categorized_EN.txt	FLY	Insects	4	7	[0, 0, 0]	n/a	catFR1	0	R1108J
833.945	2.632	933758	WORD	n/a	wordpools/wordpool_categorized_EN.txt	TONGS	KitchenTools	5	7	[0, 0, 0]	n/a	catFR1	0	R1108J
836.577	2.602	936390	WORD	n/a	wordpools/wordpool_categorized_EN.txt	FORK	KitchenTools	6	7	[0, 0, 0]	n/a	catFR1	0	R1108J
839.179	2.55	938992	WORD	n/a	wordpools/wordpool_categorized_EN.txt	BUTTERFLY	Insects	7	7	[0, 0, 0]	n/a	catFR1	0	R1108J
841.729	2.434	941542	WORD	n/a	wordpools/wordpool_categorized_EN.txt	GNAT	Insects	8	7	[0, 0, 0]	n/a	catFR1	0	R1108J
844.163	2.55	943976	WORD	n/a	wordpools/wordpool_categorized_EN.txt	FISH	OceanAnimals	9	7	[0, 0, 0]	n/a	catFR1	0	R1108J
846.713	2.434	946526	WORD	n/a	wordpools/wordpool_categorized_EN.txt	CRAB	OceanAnimals	10	7	[0, 0, 0]	n/a	catFR1	0	R1108J
849.147	2.567	948960	WORD	n/a	wordpools/wordpool_categorized_EN.txt	STRAINER	KitchenTools	11	7	[0, 0, 0]	n/a	catFR1	0	R1108J
851.714	1.617	951527	WORD	n/a	wordpools/wordpool_categorized_EN.txt	WHISK	KitchenTools	12	7	[0, 0, 0]	n/a	catFR1	0	R1108J
853.331	0.0	953144	DISTRACT_START	n/a	n/a	n/a	n/a	-999	7	[0, 0, 0]	n/a	catFR1	0	R1108J
853.331	0.017	953144	START	n/a	n/a	n/a	n/a	-999	7	[-999, -999, -999]	n/a	catFR1	0	R1108J
853.348	5.116	953161	PROB	5.095	n/a	n/a	n/a	-999	7	[9, 3, 2]	14.0	catFR1	0	R1108J
858.464	7.585	958277	PROB	7.563	n/a	n/a	n/a	-999	7	[3, 2, 2]	7.0	catFR1	0	R1108J
866.049	8.506	965862	PROB	8.506	n/a	n/a	n/a	-999	7	[9, 1, 7]	17.0	catFR1	0	R1108J
874.555	0.011	974368	STOP	n/a	n/a	n/a	n/a	-999	7	[-999, -999, -999]	n/a	catFR1	0	R1108J
874.566	1.118	974379	DISTRACT_END	n/a	n/a	n/a	n/a	-999	7	[0, 0, 0]	n/a	catFR1	0	R1108J
875.684	1.325	975497	REC_START	n/a	n/a	n/a	n/a	-999	7	[0, 0, 0]	n/a	catFR1	0	R1108J
877.009	1.004	976822	REC_WORD	1.325	n/a	FLY	Insects	4	7	[0, 0, 0]	n/a	catFR1	0	R1108J
878.013	2.565	977826	REC_WORD	2.329	n/a	MOSQUITO	Insects	3	7	[0, 0, 0]	n/a	catFR1	0	R1108J
880.578	0.62	980391	REC_WORD_VV	4.894	n/a	<>	n/a	-999	7	[0, 0, 0]	n/a	catFR1	0	R1108J
881.198	4.037	981011	REC_WORD	5.514	n/a	WHALE	OceanAnimals	2	7	[0, 0, 0]	n/a	catFR1	0	R1108J
885.235	2.37	985048	REC_WORD	9.551	n/a	OYSTER	OceanAnimals	1	7	[0, 0, 0]	n/a	catFR1	0	R1108J
887.605	2.971	987418	REC_WORD_VV	11.921	n/a	<>	n/a	-999	7	[0, 0, 0]	n/a	catFR1	0	R1108J
890.576	1.013	990389	REC_WORD	14.892	n/a	STRAINER	KitchenTools	11	7	[0, 0, 0]	n/a	catFR1	0	R1108J
891.589	1.01	991402	REC_WORD	15.905	n/a	TONGS	KitchenTools	5	7	[0, 0, 0]	n/a	catFR1	0	R1108J
892.599	1.447	992412	REC_WORD	16.915	n/a	FORK	KitchenTools	6	7	[0, 0, 0]	n/a	catFR1	0	R1108J
894.046	10.982	993859	REC_WORD_VV	18.362	n/a	<>	n/a	-999	7	[0, 0, 0]	n/a	catFR1	0	R1108J
905.028	0.667	1004841	REC_WORD	29.344	n/a	BUTTERFLY	Insects	7	7	[0, 0, 0]	n/a	catFR1	0	R1108J
905.695	3.476	1005508	REC_END	n/a	n/a	n/a	n/a	-999	7	[0, 0, 0]	n/a	catFR1	0	R1108J
909.171	0.0	1008984	TRIAL	n/a	n/a	n/a	n/a	-999	8	[0, 0, 0]	n/a	catFR1	0	R1108J
909.171	10.428	1008984	COUNTDOWN_START	n/a	n/a	n/a	n/a	-999	8	[0, 0, 0]	n/a	catFR1	0	R1108J
919.599	0.006	1019412	COUNTDOWN_END	n/a	n/a	n/a	n/a	-999	8	[0, 0, 0]	n/a	catFR1	0	R1108J
919.605	3.818	1019418	ORIENT	n/a	n/a	n/a	n/a	-999	8	[0, 0, 0]	n/a	catFR1	0	R1108J
923.423	2.567	1023236	WORD	n/a	wordpools/wordpool_categorized_EN.txt	BASKETBALL	Toys	1	8	[0, 0, 0]	n/a	catFR1	0	R1108J
925.99	2.499	1025803	WORD	n/a	wordpools/wordpool_categorized_EN.txt	DOLL	Toys	2	8	[0, 0, 0]	n/a	catFR1	0	R1108J
928.489	2.602	1028302	WORD	n/a	wordpools/wordpool_categorized_EN.txt	CUPCAKE	Desserts	3	8	[0, 0, 0]	n/a	catFR1	0	R1108J
931.091	2.382	1030904	WORD	n/a	wordpools/wordpool_categorized_EN.txt	COOKIE	Desserts	4	8	[0, 0, 0]	n/a	catFR1	0	R1108J
933.473	2.385	1033286	WORD	n/a	wordpools/wordpool_categorized_EN.txt	BLENDER	Appliances	5	8	[0, 0, 0]	n/a	catFR1	0	R1108J
935.858	2.434	1035671	WORD	n/a	wordpools/wordpool_categorized_EN.txt	DRYER	Appliances	6	8	[0, 0, 0]	n/a	catFR1	0	R1108J
938.292	2.567	1038105	WORD	n/a	wordpools/wordpool_categorized_EN.txt	CAKE	Desserts	7	8	[0, 0, 0]	n/a	catFR1	0	R1108J
940.859	2.417	1040672	WORD	n/a	wordpools/wordpool_categorized_EN.txt	PUDDING	Desserts	8	8	[0, 0, 0]	n/a	catFR1	0	R1108J
943.276	2.433	1043089	WORD	n/a	wordpools/wordpool_categorized_EN.txt	MARBLES	Toys	9	8	[0, 0, 0]	n/a	catFR1	0	R1108J
945.709	2.484	1045522	WORD	n/a	wordpools/wordpool_categorized_EN.txt	BASEBALL	Toys	10	8	[0, 0, 0]	n/a	catFR1	0	R1108J
948.193	2.567	1048006	WORD	n/a	wordpools/wordpool_categorized_EN.txt	TOASTER	Appliances	11	8	[0, 0, 0]	n/a	catFR1	0	R1108J
950.76	1.617	1050573	WORD	n/a	wordpools/wordpool_categorized_EN.txt	VACUUM	Appliances	12	8	[0, 0, 0]	n/a	catFR1	0	R1108J
952.377	0.001	1052190	DISTRACT_START	n/a	n/a	n/a	n/a	-999	8	[0, 0, 0]	n/a	catFR1	0	R1108J
952.378	0.016	1052191	START	n/a	n/a	n/a	n/a	-999	8	[-999, -999, -999]	n/a	catFR1	0	R1108J
952.394	4.617	1052207	PROB	4.582	n/a	n/a	n/a	-999	8	[1, 5, 3]	9.0	catFR1	0	R1108J
957.011	17.621	1056824	PROB	17.621	n/a	n/a	n/a	-999	8	[5, 2, 7]	14.0	catFR1	0	R1108J
974.632	0.014	1074445	STOP	n/a	n/a	n/a	n/a	-999	8	[-999, -999, -999]	n/a	catFR1	0	R1108J
974.646	1.101	1074459	DISTRACT_END	n/a	n/a	n/a	n/a	-999	8	[0, 0, 0]	n/a	catFR1	0	R1108J
975.747	0.868	1075560	REC_START	n/a	n/a	n/a	n/a	-999	8	[0, 0, 0]	n/a	catFR1	0	R1108J
976.615	1.454	1076428	REC_WORD	0.868	n/a	BASKETBALL	Toys	1	8	[0, 0, 0]	n/a	catFR1	0	R1108J
978.069	0.959	1077882	REC_WORD	2.322	n/a	BASEBALL	Toys	10	8	[0, 0, 0]	n/a	catFR1	0	R1108J
979.028	1.578	1078841	REC_WORD	3.281	n/a	MARBLES	Toys	9	8	[0, 0, 0]	n/a	catFR1	0	R1108J
980.606	2.146	1080419	REC_WORD_VV	4.859	n/a	<>	n/a	-999	8	[0, 0, 0]	n/a	catFR1	0	R1108J
982.752	3.014	1082565	REC_WORD	7.005	n/a	DRYER	Appliances	6	8	[0, 0, 0]	n/a	catFR1	0	R1108J
985.766	1.677	1085579	REC_WORD	10.019	n/a	BLENDER	Appliances	5	8	[0, 0, 0]	n/a	catFR1	0	R1108J
987.443	18.313	1087256	REC_WORD_VV	11.696	n/a	<>	n/a	-999	8	[0, 0, 0]	n/a	catFR1	0	R1108J
1005.756	2.411	1105569	REC_END	n/a	n/a	n/a	n/a	-999	8	[0, 0, 0]	n/a	catFR1	0	R1108J
1008.167	0.0	1107980	TRIAL	n/a	n/a	n/a	n/a	-999	9	[0, 0, 0]	n/a	catFR1	0	R1108J
1008.167	10.428	1107980	COUNTDOWN_START	n/a	n/a	n/a	n/a	-999	9	[0, 0, 0]	n/a	catFR1	0	R1108J
1018.595	0.006	1118408	COUNTDOWN_END	n/a	n/a	n/a	n/a	-999	9	[0, 0, 0]	n/a	catFR1	0	R1108J
1018.601	3.601	1118414	ORIENT	n/a	n/a	n/a	n/a	-999	9	[0, 0, 0]	n/a	catFR1	0	R1108J
1022.202	2.517	1122015	WORD	n/a	wordpools/wordpool_categorized_EN.txt	PINE	Trees	1	9	[0, 0, 0]	n/a	catFR1	0	R1108J
1024.719	2.617	1124532	WORD	n/a	wordpools/wordpool_categorized_EN.txt	WALNUT	Trees	2	9	[0, 0, 0]	n/a	catFR1	0	R1108J
1027.336	2.501	1127149	WORD	n/a	wordpools/wordpool_categorized_EN.txt	GOOSE	Birds	3	9	[0, 0, 0]	n/a	catFR1	0	R1108J
1029.837	2.483	1129650	WORD	n/a	wordpools/wordpool_categorized_EN.txt	ROBIN	Birds	4	9	[0, 0, 0]	n/a	catFR1	0	R1108J
1032.32	2.45	1132133	WORD	n/a	wordpools/wordpool_categorized_EN.txt	SPATULA	KitchenTools	5	9	[0, 0, 0]	n/a	catFR1	0	R1108J
1034.77	2.567	1134583	WORD	n/a	wordpools/wordpool_categorized_EN.txt	GRATER	KitchenTools	6	9	[0, 0, 0]	n/a	catFR1	0	R1108J
1037.337	2.618	1137150	WORD	n/a	wordpools/wordpool_categorized_EN.txt	WILLOW	Trees	7	9	[0, 0, 0]	n/a	catFR1	0	R1108J
1039.955	2.632	1139768	WORD	n/a	wordpools/wordpool_categorized_EN.txt	CEDAR	Trees	8	9	[0, 0, 0]	n/a	catFR1	0	R1108J
1042.587	2.585	1142400	WORD	n/a	wordpools/wordpool_categorized_EN.txt	COLANDER	KitchenTools	9	9	[0, 0, 0]	n/a	catFR1	0	R1108J
1045.172	2.6	1144985	WORD	n/a	wordpools/wordpool_categorized_EN.txt	LADLE	KitchenTools	10	9	[0, 0, 0]	n/a	catFR1	0	R1108J
1047.772	2.567	1147585	WORD	n/a	wordpools/wordpool_categorized_EN.txt	DUCK	Birds	11	9	[0, 0, 0]	n/a	catFR1	0	R1108J
1050.339	1.617	1150152	WORD	n/a	wordpools/wordpool_categorized_EN.txt	HAWK	Birds	12	9	[0, 0, 0]	n/a	catFR1	0	R1108J
1051.956	0.001	1151769	DISTRACT_START	n/a	n/a	n/a	n/a	-999	9	[0, 0, 0]	n/a	catFR1	0	R1108J
1051.957	0.016	1151770	START	n/a	n/a	n/a	n/a	-999	9	[-999, -999, -999]	n/a	catFR1	0	R1108J
1051.973	11.685	1151786	PROB	11.655	n/a	n/a	n/a	-999	9	[7, 8, 1]	16.0	catFR1	0	R1108J
1063.658	5.95	1163471	PROB	5.921	n/a	n/a	n/a	-999	9	[9, 6, 3]	18.0	catFR1	0	R1108J
1069.608	5.235	1169421	PROB	5.235	n/a	n/a	n/a	-999	9	[6, 4, 2]	12.0	catFR1	0	R1108J
1074.843	0.016	1174655	STOP	n/a	n/a	n/a	n/a	-999	9	[-999, -999, -999]	n/a	catFR1	0	R1108J
1074.859	1.2	1174671	DISTRACT_END	n/a	n/a	n/a	n/a	-999	9	[0, 0, 0]	n/a	catFR1	0	R1108J
1076.059	5.639	1175871	REC_START	n/a	n/a	n/a	n/a	-999	9	[0, 0, 0]	n/a	catFR1	0	R1108J
1081.698	1.0	1181510	REC_WORD	5.639	n/a	SPATULA	KitchenTools	5	9	[0, 0, 0]	n/a	catFR1	0	R1108J
1082.698	0.685	1182510	REC_WORD_VV	6.639	n/a	<>	n/a	-999	9	[0, 0, 0]	n/a	catFR1	0	R1108J
1083.383	6.129	1183195	REC_WORD_VV	7.324	n/a	<>	n/a	-999	9	[0, 0, 0]	n/a	catFR1	0	R1108J
1089.512	1.58	1189324	REC_WORD	13.453	n/a	HAWK	Birds	12	9	[0, 0, 0]	n/a	catFR1	0	R1108J
1091.092	1.537	1190904	REC_WORD	15.033	n/a	DUCK	Birds	11	9	[0, 0, 0]	n/a	catFR1	0	R1108J
1092.629	13.445	1192441	REC_WORD_VV	16.57	n/a	<>	n/a	-999	9	[0, 0, 0]	n/a	catFR1	0	R1108J
1106.074	3.856	1205886	REC_END	n/a	n/a	n/a	n/a	-999	9	[0, 0, 0]	n/a	catFR1	0	R1108J
1109.93	0.0	1209742	COUNTDOWN_START	n/a	n/a	n/a	n/a	-999	10	[0, 0, 0]	n/a	catFR1	0	R1108J
1109.93	10.428	1209742	TRIAL	n/a	n/a	n/a	n/a	-999	10	[0, 0, 0]	n/a	catFR1	0	R1108J
1120.358	0.007	1220170	COUNTDOWN_END	n/a	n/a	n/a	n/a	-999	10	[0, 0, 0]	n/a	catFR1	0	R1108J
1120.365	3.851	1220177	ORIENT	n/a	n/a	n/a	n/a	-999	10	[0, 0, 0]	n/a	catFR1	0	R1108J
1124.216	2.583	1224028	WORD	n/a	wordpools/wordpool_categorized_EN.txt	ORANGUTAN	Zoo	1	10	[0, 0, 0]	n/a	catFR1	0	R1108J
1126.799	2.534	1226611	WORD	n/a	wordpools/wordpool_categorized_EN.txt	ELEPHANT	Zoo	2	10	[0, 0, 0]	n/a	catFR1	0	R1108J
1129.333	2.383	1229145	WORD	n/a	wordpools/wordpool_categorized_EN.txt	BANJO	Instruments	3	10	[0, 0, 0]	n/a	catFR1	0	R1108J
1131.716	2.584	1231528	WORD	n/a	wordpools/wordpool_categorized_EN.txt	TROMBONE	Instruments	4	10	[0, 0, 0]	n/a	catFR1	0	R1108J
1134.3	2.584	1234112	WORD	n/a	wordpools/wordpool_categorized_EN.txt	WATER	Beverages	5	10	[0, 0, 0]	n/a	catFR1	0	R1108J
1136.884	2.517	1236696	WORD	n/a	wordpools/wordpool_categorized_EN.txt	SODA	Beverages	6	10	[0, 0, 0]	n/a	catFR1	0	R1108J
1139.401	2.483	1239213	WORD	n/a	wordpools/wordpool_categorized_EN.txt	CHIMPANZEE	Zoo	7	10	[0, 0, 0]	n/a	catFR1	0	R1108J
1141.884	2.484	1241696	WORD	n/a	wordpools/wordpool_categorized_EN.txt	PANDA	Zoo	8	10	[0, 0, 0]	n/a	catFR1	0	R1108J
1144.368	2.617	1244180	WORD	n/a	wordpools/wordpool_categorized_EN.txt	COFFEE	Beverages	9	10	[0, 0, 0]	n/a	catFR1	0	R1108J
1146.985	2.616	1246797	WORD	n/a	wordpools/wordpool_categorized_EN.txt	LEMONADE	Beverages	10	10	[0, 0, 0]	n/a	catFR1	0	R1108J
1149.601	2.551	1249413	WORD	n/a	wordpools/wordpool_categorized_EN.txt	DRUM	Instruments	11	10	[0, 0, 0]	n/a	catFR1	0	R1108J
1152.152	1.617	1251964	WORD	n/a	wordpools/wordpool_categorized_EN.txt	FLUTE	Instruments	12	10	[0, 0, 0]	n/a	catFR1	0	R1108J
1153.769	0.001	1253581	DISTRACT_START	n/a	n/a	n/a	n/a	-999	10	[0, 0, 0]	n/a	catFR1	0	R1108J
1153.77	0.016	1253582	START	n/a	n/a	n/a	n/a	-999	10	[-999, -999, -999]	n/a	catFR1	0	R1108J
1153.786	6.517	1253598	PROB	6.494	n/a	n/a	n/a	-999	10	[4, 9, 2]	15.0	catFR1	0	R1108J
1160.303	7.018	1260115	PROB	6.985	n/a	n/a	n/a	-999	10	[5, 6, 3]	14.0	catFR1	0	R1108J
1167.321	10.366	1267133	PROB	10.366	n/a	n/a	n/a	-999	10	[9, 2, 5]	16.0	catFR1	0	R1108J
1177.687	0.018	1277499	STOP	n/a	n/a	n/a	n/a	-999	10	[-999, -999, -999]	n/a	catFR1	0	R1108J
1177.705	1.068	1277517	DISTRACT_END	n/a	n/a	n/a	n/a	-999	10	[0, 0, 0]	n/a	catFR1	0	R1108J
1178.773	1.853	1278585	REC_START	n/a	n/a	n/a	n/a	-999	10	[0, 0, 0]	n/a	catFR1	0	R1108J
1180.626	1.187	1280438	REC_WORD	1.853	n/a	ORANGUTAN	Zoo	1	10	[0, 0, 0]	n/a	catFR1	0	R1108J
1181.813	1.0	1281625	REC_WORD	3.04	n/a	CHIMPANZEE	Zoo	7	10	[0, 0, 0]	n/a	catFR1	0	R1108J
1182.813	0.615	1282625	REC_WORD_VV	4.04	n/a	<>	n/a	-999	10	[0, 0, 0]	n/a	catFR1	0	R1108J
1183.428	1.462	1283240	REC_WORD	4.655	n/a	PANDA	Zoo	8	10	[0, 0, 0]	n/a	catFR1	0	R1108J
1184.89	4.799	1284702	REC_WORD_VV	6.117	n/a	<>	n/a	-999	10	[0, 0, 0]	n/a	catFR1	0	R1108J
1189.689	0.885	1289501	REC_WORD	10.916	n/a	LEMONADE	Beverages	10	10	[0, 0, 0]	n/a	catFR1	0	R1108J
1190.574	0.84	1290386	REC_WORD	11.801	n/a	WATER	Beverages	5	10	[0, 0, 0]	n/a	catFR1	0	R1108J
1191.414	2.587	1291226	REC_WORD	12.641	n/a	SODA	Beverages	6	10	[0, 0, 0]	n/a	catFR1	0	R1108J
1194.001	8.738	1293813	REC_WORD_VV	15.228	n/a	<>	n/a	-999	10	[0, 0, 0]	n/a	catFR1	0	R1108J
1202.739	5.564	1302551	REC_WORD	23.966	n/a	GORILLA	n/a	-999	10	[0, 0, 0]	n/a	catFR1	0	R1108J
1208.303	0.479	1308115	REC_WORD_VV	29.53	n/a	<>	n/a	-999	10	[0, 0, 0]	n/a	catFR1	0	R1108J
1208.782	4.028	1308594	REC_END	n/a	n/a	n/a	n/a	-999	10	[0, 0, 0]	n/a	catFR1	0	R1108J
1212.81	0.0	1312622	TRIAL	n/a	n/a	n/a	n/a	-999	11	[0, 0, 0]	n/a	catFR1	0	R1108J
1212.81	10.428	1312622	COUNTDOWN_START	n/a	n/a	n/a	n/a	-999	11	[0, 0, 0]	n/a	catFR1	0	R1108J
1223.238	0.007	1323050	COUNTDOWN_END	n/a	n/a	n/a	n/a	-999	11	[0, 0, 0]	n/a	catFR1	0	R1108J
1223.245	3.7	1323057	ORIENT	n/a	n/a	n/a	n/a	-999	11	[0, 0, 0]	n/a	catFR1	0	R1108J
1226.945	2.484	1326757	WORD	n/a	wordpools/wordpool_categorized_EN.txt	NIGHTSTAND	Furniture	1	11	[0, 0, 0]	n/a	catFR1	0	R1108J
1229.429	2.517	1329241	WORD	n/a	wordpools/wordpool_categorized_EN.txt	RECLINER	Furniture	2	11	[0, 0, 0]	n/a	catFR1	0	R1108J
1231.946	2.566	1331758	WORD	n/a	wordpools/wordpool_categorized_EN.txt	TURKEY	FarmAnimals	3	11	[0, 0, 0]	n/a	catFR1	0	R1108J
1234.512	2.384	1334324	WORD	n/a	wordpools/wordpool_categorized_EN.txt	SHEEP	FarmAnimals	4	11	[0, 0, 0]	n/a	catFR1	0	R1108J
1236.896	2.401	1336708	WORD	n/a	wordpools/wordpool_categorized_EN.txt	JEANS	Clothing	5	11	[0, 0, 0]	n/a	catFR1	0	R1108J
1239.297	2.483	1339109	WORD	n/a	wordpools/wordpool_categorized_EN.txt	SHORTS	Clothing	6	11	[0, 0, 0]	n/a	catFR1	0	R1108J
1241.78	2.451	1341592	WORD	n/a	wordpools/wordpool_categorized_EN.txt	HEN	FarmAnimals	7	11	[0, 0, 0]	n/a	catFR1	0	R1108J
1244.231	2.533	1344043	WORD	n/a	wordpools/wordpool_categorized_EN.txt	LAMB	FarmAnimals	8	11	[0, 0, 0]	n/a	catFR1	0	R1108J
1246.764	2.417	1346576	WORD	n/a	wordpools/wordpool_categorized_EN.txt	DESK	Furniture	9	11	[0, 0, 0]	n/a	catFR1	0	R1108J
1249.181	2.551	1348993	WORD	n/a	wordpools/wordpool_categorized_EN.txt	CABINET	Furniture	10	11	[0, 0, 0]	n/a	catFR1	0	R1108J
1251.732	2.567	1351544	WORD	n/a	wordpools/wordpool_categorized_EN.txt	COAT	Clothing	11	11	[0, 0, 0]	n/a	catFR1	0	R1108J
1254.299	1.616	1354111	WORD	n/a	wordpools/wordpool_categorized_EN.txt	SKIRT	Clothing	12	11	[0, 0, 0]	n/a	catFR1	0	R1108J
1255.915	0.001	1355727	DISTRACT_START	n/a	n/a	n/a	n/a	-999	11	[0, 0, 0]	n/a	catFR1	0	R1108J
1255.916	0.016	1355728	START	n/a	n/a	n/a	n/a	-999	11	[-999, -999, -999]	n/a	catFR1	0	R1108J
1255.932	5.018	1355744	PROB	4.992	n/a	n/a	n/a	-999	11	[8, 8, 3]	19.0	catFR1	0	R1108J
1260.95	5.967	1360762	PROB	5.924	n/a	n/a	n/a	-999	11	[5, 3, 6]	14.0	catFR1	0	R1108J
1266.917	14.926	1366729	PROB	14.926	n/a	n/a	n/a	-999	11	[8, 5, 4]	18.0	catFR1	0	R1108J
1281.843	0.009	1381655	STOP	n/a	n/a	n/a	n/a	-999	11	[-999, -999, -999]	n/a	catFR1	0	R1108J
1281.852	1.134	1381664	DISTRACT_END	n/a	n/a	n/a	n/a	-999	11	[0, 0, 0]	n/a	catFR1	0	R1108J
1282.986	2.07	1382798	REC_START	n/a	n/a	n/a	n/a	-999	11	[0, 0, 0]	n/a	catFR1	0	R1108J
1285.056	1.039	1384868	REC_WORD	2.07	n/a	GOAT	n/a	-999	11	[0, 0, 0]	n/a	catFR1	0	R1108J
1286.095	0.899	1385907	REC_WORD	3.109	n/a	HEN	FarmAnimals	7	11	[0, 0, 0]	n/a	catFR1	0	R1108J
1286.994	1.709	1386806	REC_WORD	4.008	n/a	TURKEY	FarmAnimals	3	11	[0, 0, 0]	n/a	catFR1	0	R1108J
1288.703	5.419	1388515	REC_WORD_VV	5.717	n/a	<>	n/a	-999	11	[0, 0, 0]	n/a	catFR1	0	R1108J
1294.122	7.221	1393934	REC_WORD	11.136	n/a	NIGHTSTAND	Furniture	1	11	[0, 0, 0]	n/a	catFR1	0	R1108J
1301.343	0.923	1401155	REC_WORD	18.357	n/a	SHORTS	Clothing	6	11	[0, 0, 0]	n/a	catFR1	0	R1108J
1302.266	1.648	1402078	REC_WORD	19.28	n/a	SHIRT	n/a	-999	11	[0, 0, 0]	n/a	catFR1	0	R1108J
1303.914	0.591	1403726	REC_WORD_VV	20.928	n/a	<>	n/a	-999	11	[0, 0, 0]	n/a	catFR1	0	R1108J
1304.505	7.145	1404317	REC_WORD	21.519	n/a	JEANS	Clothing	5	11	[0, 0, 0]	n/a	catFR1	0	R1108J
1311.65	1.349	1411462	REC_WORD	28.664	n/a	LAMB	FarmAnimals	8	11	[0, 0, 0]	n/a	catFR1	0	R1108J
1312.999	4.424	1412811	REC_END	n/a	n/a	n/a	n/a	-999	11	[0, 0, 0]	n/a	catFR1	0	R1108J
1317.423	0.0	1417235	TRIAL	n/a	n/a	n/a	n/a	-999	12	[0, 0, 0]	n/a	catFR1	0	R1108J
1317.423	10.428	1417235	COUNTDOWN_START	n/a	n/a	n/a	n/a	-999	12	[0, 0, 0]	n/a	catFR1	0	R1108J
1327.851	0.007	1427663	COUNTDOWN_END	n/a	n/a	n/a	n/a	-999	12	[0, 0, 0]	n/a	catFR1	0	R1108J
1327.858	3.65	1427670	ORIENT	n/a	n/a	n/a	n/a	-999	12	[0, 0, 0]	n/a	catFR1	0	R1108J
1331.508	2.618	1431320	WORD	n/a	wordpools/wordpool_categorized_EN.txt	PETUNIA	Flowers	1	12	[0, 0, 0]	n/a	catFR1	0	R1108J
1334.126	2.6	1433938	WORD	n/a	wordpools/wordpool_categorized_EN.txt	LILAC	Flowers	2	12	[0, 0, 0]	n/a	catFR1	0	R1108J
1336.726	2.55	1436538	WORD	n/a	wordpools/wordpool_categorized_EN.txt	TURTLE	OceanAnimals	3	12	[0, 0, 0]	n/a	catFR1	0	R1108J
1339.276	2.417	1439088	WORD	n/a	wordpools/wordpool_categorized_EN.txt	SHRIMP	OceanAnimals	4	12	[0, 0, 0]	n/a	catFR1	0	R1108J
1341.693	2.617	1441505	WORD	n/a	wordpools/wordpool_categorized_EN.txt	CEILING	Building	5	12	[0, 0, 0]	n/a	catFR1	0	R1108J
1344.31	2.384	1444122	WORD	n/a	wordpools/wordpool_categorized_EN.txt	ROOF	Building	6	12	[0, 0, 0]	n/a	catFR1	0	R1108J
1346.694	2.55	1446506	WORD	n/a	wordpools/wordpool_categorized_EN.txt	LOBSTER	OceanAnimals	7	12	[0, 0, 0]	n/a	catFR1	0	R1108J
1349.244	2.484	1449056	WORD	n/a	wordpools/wordpool_categorized_EN.txt	OCTOPUS	OceanAnimals	8	12	[0, 0, 0]	n/a	catFR1	0	R1108J
1351.728	2.484	1451540	WORD	n/a	wordpools/wordpool_categorized_EN.txt	VIOLET	Flowers	9	12	[0, 0, 0]	n/a	catFR1	0	R1108J
1354.212	2.433	1454024	WORD	n/a	wordpools/wordpool_categorized_EN.txt	ORCHID	Flowers	10	12	[0, 0, 0]	n/a	catFR1	0	R1108J
1356.645	2.484	1456457	WORD	n/a	wordpools/wordpool_categorized_EN.txt	DOOR	Building	11	12	[0, 0, 0]	n/a	catFR1	0	R1108J
1359.129	1.617	1458941	WORD	n/a	wordpools/wordpool_categorized_EN.txt	FOUNDATION	Building	12	12	[0, 0, 0]	n/a	catFR1	0	R1108J
1360.746	0.001	1460558	DISTRACT_START	n/a	n/a	n/a	n/a	-999	12	[0, 0, 0]	n/a	catFR1	0	R1108J
1360.747	0.015	1460559	START	n/a	n/a	n/a	n/a	-999	12	[-999, -999, -999]	n/a	catFR1	0	R1108J
1360.762	4.867	1460574	PROB	4.836	n/a	n/a	n/a	-999	12	[2, 2, 3]	7.0	catFR1	0	R1108J
1365.629	6.151	1465441	PROB	6.13	n/a	n/a	n/a	-999	12	[8, 3, 8]	19.0	catFR1	0	R1108J
1371.78	4.251	1471592	PROB	4.219	n/a	n/a	n/a	-999	12	[7, 7, 2]	16.0	catFR1	0	R1108J
1376.031	12.247	1475843	PROB	12.247	n/a	n/a	n/a	-999	12	[4, 4, 5]	14.0	catFR1	0	R1108J
1388.278	0.004	1488090	STOP	n/a	n/a	n/a	n/a	-999	12	[-999, -999, -999]	n/a	catFR1	0	R1108J
1388.282	1.085	1488094	DISTRACT_END	n/a	n/a	n/a	n/a	-999	12	[0, 0, 0]	n/a	catFR1	0	R1108J
1389.367	1.609	1489179	REC_START	n/a	n/a	n/a	n/a	-999	12	[0, 0, 0]	n/a	catFR1	0	R1108J
1390.976	1.225	1490788	REC_WORD	1.609	n/a	OCTOPUS	OceanAnimals	8	12	[0, 0, 0]	n/a	catFR1	0	R1108J
1392.201	1.63	1492013	REC_WORD	2.834	n/a	SHRIMP	OceanAnimals	4	12	[0, 0, 0]	n/a	catFR1	0	R1108J
1393.831	4.735	1493643	REC_WORD_VV	4.464	n/a	<>	n/a	-999	12	[0, 0, 0]	n/a	catFR1	0	R1108J
1398.566	0.845	1498378	REC_WORD	9.199	n/a	VIOLET	Flowers	9	12	[0, 0, 0]	n/a	catFR1	0	R1108J
1399.411	1.876	1499223	REC_WORD	10.044	n/a	ORCHID	Flowers	10	12	[0, 0, 0]	n/a	catFR1	0	R1108J
1401.287	1.574	1501099	REC_WORD	11.92	n/a	PETUNIA	Flowers	1	12	[0, 0, 0]	n/a	catFR1	0	R1108J
1402.861	16.517	1502673	REC_WORD_VV	13.494	n/a	<>	n/a	-999	12	[0, 0, 0]	n/a	catFR1	0	R1108J
1419.378	2.742	1519190	REC_END	n/a	n/a	n/a	n/a	-999	12	[0, 0, 0]	n/a	catFR1	0	R1108J
1422.12	0.0	1521932	TRIAL	n/a	n/a	n/a	n/a	-999	13	[0, 0, 0]	n/a	catFR1	0	R1108J
1422.12	10.428	1521932	COUNTDOWN_START	n/a	n/a	n/a	n/a	-999	13	[0, 0, 0]	n/a	catFR1	0	R1108J
1432.548	0.006	1532360	COUNTDOWN_END	n/a	n/a	n/a	n/a	-999	13	[0, 0, 0]	n/a	catFR1	0	R1108J
1432.554	3.95	1532366	ORIENT	n/a	n/a	n/a	n/a	-999	13	[0, 0, 0]	n/a	catFR1	0	R1108J
1436.504	2.401	1536316	WORD	n/a	wordpools/wordpool_categorized_EN.txt	FINCH	Birds	1	13	[0, 0, 0]	n/a	catFR1	0	R1108J
1438.905	2.518	1538717	WORD	n/a	wordpools/wordpool_categorized_EN.txt	SEAGULL	Birds	2	13	[0, 0, 0]	n/a	catFR1	0	R1108J
1441.423	2.433	1541235	WORD	n/a	wordpools/wordpool_categorized_EN.txt	DOLLHOUSE	Toys	3	13	[0, 0, 0]	n/a	catFR1	0	R1108J
1443.856	2.599	1543668	WORD	n/a	wordpools/wordpool_categorized_EN.txt	PUZZLE	Toys	4	13	[0, 0, 0]	n/a	catFR1	0	R1108J
1446.455	2.535	1546267	WORD	n/a	wordpools/wordpool_categorized_EN.txt	ARM	BodyParts	5	13	[0, 0, 0]	n/a	catFR1	0	R1108J
1448.99	2.384	1548802	WORD	n/a	wordpools/wordpool_categorized_EN.txt	FINGERS	BodyParts	6	13	[0, 0, 0]	n/a	catFR1	0	R1108J
1451.374	2.583	1551186	WORD	n/a	wordpools/wordpool_categorized_EN.txt	BLUEBIRD	Birds	7	13	[0, 0, 0]	n/a	catFR1	0	R1108J
1453.957	2.434	1553769	WORD	n/a	wordpools/wordpool_categorized_EN.txt	DOVE	Birds	8	13	[0, 0, 0]	n/a	catFR1	0	R1108J
1456.391	2.617	1556203	WORD	n/a	wordpools/wordpool_categorized_EN.txt	EAR	BodyParts	9	13	[0, 0, 0]	n/a	catFR1	0	R1108J
1459.008	2.466	1558820	WORD	n/a	wordpools/wordpool_categorized_EN.txt	KNEE	BodyParts	10	13	[0, 0, 0]	n/a	catFR1	0	R1108J
1461.474	2.368	1561286	WORD	n/a	wordpools/wordpool_categorized_EN.txt	FRISBEE	Toys	11	13	[0, 0, 0]	n/a	catFR1	0	R1108J
1463.842	1.616	1563654	WORD	n/a	wordpools/wordpool_categorized_EN.txt	BARBIE	Toys	12	13	[0, 0, 0]	n/a	catFR1	0	R1108J
1465.458	0.001	1565270	DISTRACT_START	n/a	n/a	n/a	n/a	-999	13	[0, 0, 0]	n/a	catFR1	0	R1108J
1465.459	0.015	1565271	START	n/a	n/a	n/a	n/a	-999	13	[-999, -999, -999]	n/a	catFR1	0	R1108J
1465.474	5.869	1565286	PROB	5.833	n/a	n/a	n/a	-999	13	[1, 9, 7]	17.0	catFR1	0	R1108J
1471.343	13.052	1571155	PROB	13.02	n/a	n/a	n/a	-999	13	[6, 2, 5]	13.0	catFR1	0	R1108J
1484.395	10.15	1584207	PROB	10.15	n/a	n/a	n/a	-999	13	[3, 3, 9]	15.0	catFR1	0	R1108J
1494.545	0.017	1594357	STOP	n/a	n/a	n/a	n/a	-999	13	[-999, -999, -999]	n/a	catFR1	0	R1108J
1494.562	1.201	1594374	DISTRACT_END	n/a	n/a	n/a	n/a	-999	13	[0, 0, 0]	n/a	catFR1	0	R1108J
1495.763	1.85	1595575	REC_START	n/a	n/a	n/a	n/a	-999	13	[0, 0, 0]	n/a	catFR1	0	R1108J
1497.613	1.132	1597425	REC_WORD	1.85	n/a	SEAGULL	Birds	2	13	[0, 0, 0]	n/a	catFR1	0	R1108J
1498.745	0.832	1598556	REC_WORD	2.982	n/a	DOVE	Birds	8	13	[0, 0, 0]	n/a	catFR1	0	R1108J
1499.577	1.37	1599388	REC_WORD	3.814	n/a	BLUEBIRD	Birds	7	13	[0, 0, 0]	n/a	catFR1	0	R1108J
1500.947	2.404	1600758	REC_WORD_VV	5.184	n/a	<>	n/a	-999	13	[0, 0, 0]	n/a	catFR1	0	R1108J
1503.351	2.574	1603162	REC_WORD	7.588	n/a	FINGERS	BodyParts	6	13	[0, 0, 0]	n/a	catFR1	0	R1108J
1505.925	0.996	1605736	REC_WORD_VV	10.162	n/a	<>	n/a	-999	13	[0, 0, 0]	n/a	catFR1	0	R1108J
1506.921	1.033	1606732	REC_WORD	11.158	n/a	EAR	BodyParts	9	13	[0, 0, 0]	n/a	catFR1	0	R1108J
1507.954	1.874	1607765	REC_WORD	12.191	n/a	ARM	BodyParts	5	13	[0, 0, 0]	n/a	catFR1	0	R1108J
1509.828	15.95	1609639	REC_WORD_VV	14.065	n/a	<>	n/a	-999	13	[0, 0, 0]	n/a	catFR1	0	R1108J
1525.778	967.501	1625589	REC_END	n/a	n/a	n/a	n/a	-999	13	[0, 0, 0]	n/a	catFR1	0	R1108J
2493.279	0.0	2593088	COUNTDOWN_START	n/a	n/a	n/a	n/a	-999	14	[0, 0, 0]	n/a	catFR1	0	R1108J
2493.279	10.428	2593088	TRIAL	n/a	n/a	n/a	n/a	-999	14	[0, 0, 0]	n/a	catFR1	0	R1108J
2503.707	0.006	2603516	COUNTDOWN_END	n/a	n/a	n/a	n/a	-999	14	[0, 0, 0]	n/a	catFR1	0	R1108J
2503.713	3.667	2603522	ORIENT	n/a	n/a	n/a	n/a	-999	14	[0, 0, 0]	n/a	catFR1	0	R1108J
2507.38	2.45	2607189	WORD	n/a	wordpools/wordpool_categorized_EN.txt	CYPRESS	Trees	1	14	[0, 0, 0]	n/a	catFR1	0	R1108J
2509.83	2.584	2609639	WORD	n/a	wordpools/wordpool_categorized_EN.txt	BIRCH	Trees	2	14	[0, 0, 0]	n/a	catFR1	0	R1108J
2512.414	2.434	2612223	WORD	n/a	wordpools/wordpool_categorized_EN.txt	GRAPE	Fruit	3	14	[0, 0, 0]	n/a	catFR1	0	R1108J
2514.848	2.5	2614657	WORD	n/a	wordpools/wordpool_categorized_EN.txt	PLUM	Fruit	4	14	[0, 0, 0]	n/a	catFR1	0	R1108J
2517.348	2.584	2617157	WORD	n/a	wordpools/wordpool_categorized_EN.txt	DOLPHIN	OceanAnimals	5	14	[0, 0, 0]	n/a	catFR1	0	R1108J
2519.932	2.4	2619741	WORD	n/a	wordpools/wordpool_categorized_EN.txt	PLANKTON	OceanAnimals	6	14	[0, 0, 0]	n/a	catFR1	0	R1108J
2522.332	2.584	2622141	WORD	n/a	wordpools/wordpool_categorized_EN.txt	BLUEBERRY	Fruit	7	14	[0, 0, 0]	n/a	catFR1	0	R1108J
2524.916	2.434	2624725	WORD	n/a	wordpools/wordpool_categorized_EN.txt	LEMON	Fruit	8	14	[0, 0, 0]	n/a	catFR1	0	R1108J
2527.35	2.517	2627159	WORD	n/a	wordpools/wordpool_categorized_EN.txt	MAPLE	Trees	9	14	[0, 0, 0]	n/a	catFR1	0	R1108J
2529.867	2.467	2629676	WORD	n/a	wordpools/wordpool_categorized_EN.txt	EVERGREEN	Trees	10	14	[0, 0, 0]	n/a	catFR1	0	R1108J
2532.334	2.4	2632143	WORD	n/a	wordpools/wordpool_categorized_EN.txt	JELLYFISH	OceanAnimals	11	14	[0, 0, 0]	n/a	catFR1	0	R1108J
2534.734	1.617	2634543	WORD	n/a	wordpools/wordpool_categorized_EN.txt	SQUID	OceanAnimals	12	14	[0, 0, 0]	n/a	catFR1	0	R1108J
2536.351	0.001	2636160	DISTRACT_START	n/a	n/a	n/a	n/a	-999	14	[0, 0, 0]	n/a	catFR1	0	R1108J
2536.352	0.015	2636161	START	n/a	n/a	n/a	n/a	-999	14	[-999, -999, -999]	n/a	catFR1	0	R1108J
2536.367	7.268	2636176	PROB	7.246	n/a	n/a	n/a	-999	14	[4, 7, 4]	15.0	catFR1	0	R1108J
2543.635	9.451	2643444	PROB	9.425	n/a	n/a	n/a	-999	14	[9, 4, 1]	14.0	catFR1	0	R1108J
2553.086	4.428	2652895	PROB	4.428	n/a	n/a	n/a	-999	14	[1, 5, 6]	12.0	catFR1	0	R1108J
2557.514	0.005	2657323	STOP	n/a	n/a	n/a	n/a	-999	14	[-999, -999, -999]	n/a	catFR1	0	R1108J
2557.519	1.034	2657328	DISTRACT_END	n/a	n/a	n/a	n/a	-999	14	[0, 0, 0]	n/a	catFR1	0	R1108J
2558.553	2.48	2658362	REC_START	n/a	n/a	n/a	n/a	-999	14	[0, 0, 0]	n/a	catFR1	0	R1108J
2561.033	0.576	2660842	REC_WORD_VV	2.48	n/a	<>	n/a	-999	14	[0, 0, 0]	n/a	catFR1	0	R1108J
2561.609	0.96	2661418	REC_WORD	3.056	n/a	JELLYFISH	OceanAnimals	11	14	[0, 0, 0]	n/a	catFR1	0	R1108J
2562.569	1.736	2662378	REC_WORD	4.016	n/a	PLANKTON	OceanAnimals	6	14	[0, 0, 0]	n/a	catFR1	0	R1108J
2564.305	1.164	2664114	REC_WORD	5.752	n/a	LEMON	Fruit	8	14	[0, 0, 0]	n/a	catFR1	0	R1108J
2565.469	1.0	2665278	REC_WORD	6.916	n/a	BLUEBERRY	Fruit	7	14	[0, 0, 0]	n/a	catFR1	0	R1108J
2566.469	0.763	2666278	REC_WORD_VV	7.916	n/a	<>	n/a	-999	14	[0, 0, 0]	n/a	catFR1	0	R1108J
2567.232	0.589	2667041	REC_WORD_VV	8.679	n/a	<>	n/a	-999	14	[0, 0, 0]	n/a	catFR1	0	R1108J
2567.821	1.712	2667630	REC_WORD	9.268	n/a	CYPRESS	Trees	1	14	[0, 0, 0]	n/a	catFR1	0	R1108J
2569.533	1.394	2669342	REC_WORD	10.98	n/a	BIRCH	Trees	2	14	[0, 0, 0]	n/a	catFR1	0	R1108J
2570.927	1.941	2670736	REC_WORD	12.374	n/a	EVERGREEN	Trees	10	14	[0, 0, 0]	n/a	catFR1	0	R1108J
2572.868	2.366	2672677	REC_WORD_VV	14.315	n/a	<>	n/a	-999	14	[0, 0, 0]	n/a	catFR1	0	R1108J
2575.234	1.356	2675043	REC_WORD	16.681	n/a	GRAPE	Fruit	3	14	[0, 0, 0]	n/a	catFR1	0	R1108J
2576.59	1.0	2676399	REC_WORD_VV	18.037	n/a	<>	n/a	-999	14	[0, 0, 0]	n/a	catFR1	0	R1108J
2577.59	10.975	2677399	REC_WORD_VV	19.037	n/a	<>	n/a	-999	14	[0, 0, 0]	n/a	catFR1	0	R1108J
2588.565	13.762	2688374	REC_END	n/a	n/a	n/a	n/a	-999	14	[0, 0, 0]	n/a	catFR1	0	R1108J
2602.327	0.0	2702136	COUNTDOWN_START	n/a	n/a	n/a	n/a	-999	15	[0, 0, 0]	n/a	catFR1	0	R1108J
2602.327	10.428	2702136	TRIAL	n/a	n/a	n/a	n/a	-999	15	[0, 0, 0]	n/a	catFR1	0	R1108J
2612.755	0.006	2712564	COUNTDOWN_END	n/a	n/a	n/a	n/a	-999	15	[0, 0, 0]	n/a	catFR1	0	R1108J
2612.761	3.667	2712570	ORIENT	n/a	n/a	n/a	n/a	-999	15	[0, 0, 0]	n/a	catFR1	0	R1108J
2616.428	2.45	2716237	WORD	n/a	wordpools/wordpool_categorized_EN.txt	PAPER	OfficeSupplies	1	15	[0, 0, 0]	n/a	catFR1	0	R1108J
2618.878	2.633	2718687	WORD	n/a	wordpools/wordpool_categorized_EN.txt	TAPE	OfficeSupplies	2	15	[0, 0, 0]	n/a	catFR1	0	R1108J
2621.511	2.502	2721320	WORD	n/a	wordpools/wordpool_categorized_EN.txt	LEG	BodyParts	3	15	[0, 0, 0]	n/a	catFR1	0	R1108J
2624.013	2.532	2723822	WORD	n/a	wordpools/wordpool_categorized_EN.txt	ELBOW	BodyParts	4	15	[0, 0, 0]	n/a	catFR1	0	R1108J
2626.545	2.568	2726354	WORD	n/a	wordpools/wordpool_categorized_EN.txt	MILK	Beverages	5	15	[0, 0, 0]	n/a	catFR1	0	R1108J
2629.113	2.45	2728922	WORD	n/a	wordpools/wordpool_categorized_EN.txt	BEER	Beverages	6	15	[0, 0, 0]	n/a	catFR1	0	R1108J
2631.563	2.434	2731372	WORD	n/a	wordpools/wordpool_categorized_EN.txt	FOOT	BodyParts	7	15	[0, 0, 0]	n/a	catFR1	0	R1108J
2633.997	2.516	2733806	WORD	n/a	wordpools/wordpool_categorized_EN.txt	HEAD	BodyParts	8	15	[0, 0, 0]	n/a	catFR1	0	R1108J
2636.513	2.435	2736322	WORD	n/a	wordpools/wordpool_categorized_EN.txt	MARKER	OfficeSupplies	9	15	[0, 0, 0]	n/a	catFR1	0	R1108J
2638.948	2.566	2738757	WORD	n/a	wordpools/wordpool_categorized_EN.txt	PENCIL	OfficeSupplies	10	15	[0, 0, 0]	n/a	catFR1	0	R1108J
2641.514	2.601	2741323	WORD	n/a	wordpools/wordpool_categorized_EN.txt	RUM	Beverages	11	15	[0, 0, 0]	n/a	catFR1	0	R1108J
2644.115	1.617	2743924	WORD	n/a	wordpools/wordpool_categorized_EN.txt	JUICE	Beverages	12	15	[0, 0, 0]	n/a	catFR1	0	R1108J
2645.732	0.001	2745541	DISTRACT_START	n/a	n/a	n/a	n/a	-999	15	[0, 0, 0]	n/a	catFR1	0	R1108J
2645.733	0.016	2745542	START	n/a	n/a	n/a	n/a	-999	15	[-999, -999, -999]	n/a	catFR1	0	R1108J
2645.749	8.685	2745558	PROB	8.652	n/a	n/a	n/a	-999	15	[4, 6, 4]	14.0	catFR1	0	R1108J
2654.434	14.286	2754243	PROB	14.286	n/a	n/a	n/a	-999	15	[5, 9, 4]	18.0	catFR1	0	R1108J
2668.72	0.015	2768529	STOP	n/a	n/a	n/a	n/a	-999	15	[-999, -999, -999]	n/a	catFR1	0	R1108J
2668.735	1.218	2768544	DISTRACT_END	n/a	n/a	n/a	n/a	-999	15	[0, 0, 0]	n/a	catFR1	0	R1108J
2669.953	3.46	2769762	REC_START	n/a	n/a	n/a	n/a	-999	15	[0, 0, 0]	n/a	catFR1	0	R1108J
2673.413	0.969	2773222	REC_WORD	3.46	n/a	LEG	BodyParts	3	15	[0, 0, 0]	n/a	catFR1	0	R1108J
2674.382	1.786	2774191	REC_WORD	4.429	n/a	HEAD	BodyParts	8	15	[0, 0, 0]	n/a	catFR1	0	R1108J
2676.168	3.145	2775977	REC_WORD_VV	6.215	n/a	<>	n/a	-999	15	[0, 0, 0]	n/a	catFR1	0	R1108J
2679.313	1.752	2779122	REC_WORD	9.36	n/a	BEER	Beverages	6	15	[0, 0, 0]	n/a	catFR1	0	R1108J
2681.065	12.282	2780874	REC_WORD_VV	11.112	n/a	<>	n/a	-999	15	[0, 0, 0]	n/a	catFR1	0	R1108J
2693.347	1.643	2793156	REC_WORD_VV	23.394	n/a	<>	n/a	-999	15	[0, 0, 0]	n/a	catFR1	0	R1108J
2694.99	4.974	2794799	REC_WORD_VV	25.037	n/a	<>	n/a	-999	15	[0, 0, 0]	n/a	catFR1	0	R1108J
2699.964	16.244	2799773	REC_END	n/a	n/a	n/a	n/a	-999	15	[0, 0, 0]	n/a	catFR1	0	R1108J
2716.208	0.0	2816017	TRIAL	n/a	n/a	n/a	n/a	-999	16	[0, 0, 0]	n/a	catFR1	0	R1108J
2716.208	10.428	2816017	COUNTDOWN_START	n/a	n/a	n/a	n/a	-999	16	[0, 0, 0]	n/a	catFR1	0	R1108J
2726.636	0.007	2826445	COUNTDOWN_END	n/a	n/a	n/a	n/a	-999	16	[0, 0, 0]	n/a	catFR1	0	R1108J
2726.643	3.784	2826452	ORIENT	n/a	n/a	n/a	n/a	-999	16	[0, 0, 0]	n/a	catFR1	0	R1108J
2730.427	2.417	2830236	WORD	n/a	wordpools/wordpool_categorized_EN.txt	VIOLIN	Instruments	1	16	[0, 0, 0]	n/a	catFR1	0	R1108J
2732.844	2.5	2832653	WORD	n/a	wordpools/wordpool_categorized_EN.txt	GUITAR	Instruments	2	16	[0, 0, 0]	n/a	catFR1	0	R1108J
2735.344	2.4	2835153	WORD	n/a	wordpools/wordpool_categorized_EN.txt	SCANNER	Electronics	3	16	[0, 0, 0]	n/a	catFR1	0	R1108J
2737.744	2.618	2837553	WORD	n/a	wordpools/wordpool_categorized_EN.txt	TABLET	Electronics	4	16	[0, 0, 0]	n/a	catFR1	0	R1108J
2740.362	2.483	2840171	WORD	n/a	wordpools/wordpool_categorized_EN.txt	BANANA	Fruit	5	16	[0, 0, 0]	n/a	catFR1	0	R1108J
2742.845	2.584	2842654	WORD	n/a	wordpools/wordpool_categorized_EN.txt	ORANGE	Fruit	6	16	[0, 0, 0]	n/a	catFR1	0	R1108J
2745.429	2.6	2845238	WORD	n/a	wordpools/wordpool_categorized_EN.txt	SPEAKER	Electronics	7	16	[0, 0, 0]	n/a	catFR1	0	R1108J
2748.029	2.466	2847838	WORD	n/a	wordpools/wordpool_categorized_EN.txt	STEREO	Electronics	8	16	[0, 0, 0]	n/a	catFR1	0	R1108J
2750.495	2.402	2850304	WORD	n/a	wordpools/wordpool_categorized_EN.txt	CELLO	Instruments	9	16	[0, 0, 0]	n/a	catFR1	0	R1108J
2752.897	2.449	2852706	WORD	n/a	wordpools/wordpool_categorized_EN.txt	TRUMPET	Instruments	10	16	[0, 0, 0]	n/a	catFR1	0	R1108J
2755.346	2.434	2855155	WORD	n/a	wordpools/wordpool_categorized_EN.txt	PEACH	Fruit	11	16	[0, 0, 0]	n/a	catFR1	0	R1108J
2757.78	1.617	2857589	WORD	n/a	wordpools/wordpool_categorized_EN.txt	PEAR	Fruit	12	16	[0, 0, 0]	n/a	catFR1	0	R1108J
2759.397	0.001	2859206	DISTRACT_START	n/a	n/a	n/a	n/a	-999	16	[0, 0, 0]	n/a	catFR1	0	R1108J
2759.398	0.016	2859207	START	n/a	n/a	n/a	n/a	-999	16	[-999, -999, -999]	n/a	catFR1	0	R1108J
2759.414	4.1	2859223	PROB	4.077	n/a	n/a	n/a	-999	16	[2, 1, 9]	12.0	catFR1	0	R1108J
2763.514	6.568	2863323	PROB	6.546	n/a	n/a	n/a	-999	16	[3, 7, 3]	13.0	catFR1	0	R1108J
2770.082	5.467	2869891	PROB	5.433	n/a	n/a	n/a	-999	16	[5, 3, 4]	12.0	catFR1	0	R1108J
2775.549	4.791	2875357	PROB	4.791	n/a	n/a	n/a	-999	16	[7, 2, 3]	12.0	catFR1	0	R1108J
2780.34	0.01	2880148	STOP	n/a	n/a	n/a	n/a	-999	16	[-999, -999, -999]	n/a	catFR1	0	R1108J
2780.35	1.051	2880158	DISTRACT_END	n/a	n/a	n/a	n/a	-999	16	[0, 0, 0]	n/a	catFR1	0	R1108J
2781.401	1.029	2881209	REC_START	n/a	n/a	n/a	n/a	-999	16	[0, 0, 0]	n/a	catFR1	0	R1108J
2782.43	0.719	2882238	REC_WORD	1.029	n/a	PEACH	Fruit	11	16	[0, 0, 0]	n/a	catFR1	0	R1108J
2783.149	0.717	2882957	REC_WORD_VV	1.748	n/a	<>	n/a	-999	16	[0, 0, 0]	n/a	catFR1	0	R1108J
2783.866	1.584	2883674	REC_WORD	2.465	n/a	ORANGE	Fruit	6	16	[0, 0, 0]	n/a	catFR1	0	R1108J
2785.45	3.586	2885258	REC_WORD_VV	4.049	n/a	<>	n/a	-999	16	[0, 0, 0]	n/a	catFR1	0	R1108J
2789.036	0.629	2888844	REC_WORD	7.635	n/a	CELLO	Instruments	9	16	[0, 0, 0]	n/a	catFR1	0	R1108J
2789.665	0.722	2889473	REC_WORD	8.264	n/a	GUITAR	Instruments	2	16	[0, 0, 0]	n/a	catFR1	0	R1108J
2790.387	1.772	2890195	REC_WORD	8.986	n/a	VIOLIN	Instruments	1	16	[0, 0, 0]	n/a	catFR1	0	R1108J
2792.159	1.006	2891967	REC_WORD_VV	10.758	n/a	<>	n/a	-999	16	[0, 0, 0]	n/a	catFR1	0	R1108J
2793.165	18.248	2892973	REC_WORD	11.764	n/a	TRUMPET	Instruments	10	16	[0, 0, 0]	n/a	catFR1	0	R1108J
2811.413	2.008	2911221	REC_END	n/a	n/a	n/a	n/a	-999	16	[0, 0, 0]	n/a	catFR1	0	R1108J
2813.421	0.001	2913229	COUNTDOWN_START	n/a	n/a	n/a	n/a	-999	17	[0, 0, 0]	n/a	catFR1	0	R1108J
2813.422	10.427	2913230	TRIAL	n/a	n/a	n/a	n/a	-999	17	[0, 0, 0]	n/a	catFR1	0	R1108J
2823.849	0.007	2923657	COUNTDOWN_END	n/a	n/a	n/a	n/a	-999	17	[0, 0, 0]	n/a	catFR1	0	R1108J
2823.856	3.867	2923664	ORIENT	n/a	n/a	n/a	n/a	-999	17	[0, 0, 0]	n/a	catFR1	0	R1108J
2827.723	2.401	2927531	WORD	n/a	wordpools/wordpool_categorized_EN.txt	PIANO	Instruments	1	17	[0, 0, 0]	n/a	catFR1	0	R1108J
2830.124	2.433	2929932	WORD	n/a	wordpools/wordpool_categorized_EN.txt	ORGAN	Instruments	2	17	[0, 0, 0]	n/a	catFR1	0	R1108J
2832.557	2.601	2932365	WORD	n/a	wordpools/wordpool_categorized_EN.txt	DAISY	Flowers	3	17	[0, 0, 0]	n/a	catFR1	0	R1108J
2835.158	2.399	2934966	WORD	n/a	wordpools/wordpool_categorized_EN.txt	TULIP	Flowers	4	17	[0, 0, 0]	n/a	catFR1	0	R1108J
2837.557	2.401	2937365	WORD	n/a	wordpools/wordpool_categorized_EN.txt	LEVEL	Tools	5	17	[0, 0, 0]	n/a	catFR1	0	R1108J
2839.958	2.567	2939766	WORD	n/a	wordpools/wordpool_categorized_EN.txt	CROWBAR	Tools	6	17	[0, 0, 0]	n/a	catFR1	0	R1108J
2842.525	2.45	2942333	WORD	n/a	wordpools/wordpool_categorized_EN.txt	TUBA	Instruments	7	17	[0, 0, 0]	n/a	catFR1	0	R1108J
2844.975	2.533	2944783	WORD	n/a	wordpools/wordpool_categorized_EN.txt	BASS	Instruments	8	17	[0, 0, 0]	n/a	catFR1	0	R1108J
2847.508	2.535	2947316	WORD	n/a	wordpools/wordpool_categorized_EN.txt	AXE	Tools	9	17	[0, 0, 0]	n/a	catFR1	0	R1108J
2850.043	2.567	2949851	WORD	n/a	wordpools/wordpool_categorized_EN.txt	SANDER	Tools	10	17	[0, 0, 0]	n/a	catFR1	0	R1108J
2852.61	2.533	2952418	WORD	n/a	wordpools/wordpool_categorized_EN.txt	DAFFODIL	Flowers	11	17	[0, 0, 0]	n/a	catFR1	0	R1108J
2855.143	1.617	2954951	WORD	n/a	wordpools/wordpool_categorized_EN.txt	ROSE	Flowers	12	17	[0, 0, 0]	n/a	catFR1	0	R1108J
2856.76	0.001	2956568	DISTRACT_START	n/a	n/a	n/a	n/a	-999	17	[0, 0, 0]	n/a	catFR1	0	R1108J
2856.761	0.016	2956569	START	n/a	n/a	n/a	n/a	-999	17	[-999, -999, -999]	n/a	catFR1	0	R1108J
2856.777	8.717	2956585	PROB	8.687	n/a	n/a	n/a	-999	17	[8, 3, 4]	15.0	catFR1	0	R1108J
2865.494	15.098	2965302	PROB	15.098	n/a	n/a	n/a	-999	17	[4, 6, 8]	18.0	catFR1	0	R1108J
2880.592	0.004	2980400	STOP	n/a	n/a	n/a	n/a	-999	17	[-999, -999, -999]	n/a	catFR1	0	R1108J
2880.596	1.102	2980404	DISTRACT_END	n/a	n/a	n/a	n/a	-999	17	[0, 0, 0]	n/a	catFR1	0	R1108J
2881.698	1.43	2981506	REC_START	n/a	n/a	n/a	n/a	-999	17	[0, 0, 0]	n/a	catFR1	0	R1108J
2883.128	1.0	2982936	REC_WORD	1.43	n/a	DAFFODIL	Flowers	11	17	[0, 0, 0]	n/a	catFR1	0	R1108J
2884.128	1.0	2983936	REC_WORD	2.43	n/a	ROSE	Flowers	12	17	[0, 0, 0]	n/a	catFR1	0	R1108J
2885.128	0.752	2984936	REC_WORD_VV	3.43	n/a	<>	n/a	-999	17	[0, 0, 0]	n/a	catFR1	0	R1108J
2885.88	1.207	2985688	REC_WORD_VV	4.182	n/a	<>	n/a	-999	17	[0, 0, 0]	n/a	catFR1	0	R1108J
2887.087	1.983	2986895	REC_WORD	5.389	n/a	ORGAN	Instruments	2	17	[0, 0, 0]	n/a	catFR1	0	R1108J
2889.07	0.916	2988878	REC_WORD	7.372	n/a	VIOLIN	n/a	-999	17	[0, 0, 0]	n/a	catFR1	0	R1108J
2889.986	1.18	2989794	REC_WORD_VV	8.288	n/a	<>	n/a	-999	17	[0, 0, 0]	n/a	catFR1	0	R1108J
2891.166	1.556	2990974	REC_WORD_VV	9.468	n/a	<>	n/a	-999	17	[0, 0, 0]	n/a	catFR1	0	R1108J
2892.722	2.59	2992530	REC_WORD	11.024	n/a	PIANO	Instruments	1	17	[0, 0, 0]	n/a	catFR1	0	R1108J
2895.312	5.666	2995120	REC_WORD_VV	13.614	n/a	<>	n/a	-999	17	[0, 0, 0]	n/a	catFR1	0	R1108J
2900.978	1.173	3000786	REC_WORD	19.28	n/a	CROWBAR	Tools	6	17	[0, 0, 0]	n/a	catFR1	0	R1108J
2902.151	0.987	3001959	REC_WORD	20.453	n/a	AXE	Tools	9	17	[0, 0, 0]	n/a	catFR1	0	R1108J
2903.138	1.523	3002946	REC_WORD	21.44	n/a	TUBA	Instruments	7	17	[0, 0, 0]	n/a	catFR1	0	R1108J
2904.661	4.774	3004469	REC_WORD_VV	22.963	n/a	<>	n/a	-999	17	[0, 0, 0]	n/a	catFR1	0	R1108J
2909.435	2.272	3009243	REC_WORD	27.737	n/a	LEVEL	Tools	5	17	[0, 0, 0]	n/a	catFR1	0	R1108J
2911.707	20.714	3011515	REC_END	n/a	n/a	n/a	n/a	-999	17	[0, 0, 0]	n/a	catFR1	0	R1108J
2932.421	0.0	3032229	TRIAL	n/a	n/a	n/a	n/a	-999	18	[0, 0, 0]	n/a	catFR1	0	R1108J
2932.421	10.428	3032229	COUNTDOWN_START	n/a	n/a	n/a	n/a	-999	18	[0, 0, 0]	n/a	catFR1	0	R1108J
2942.849	0.006	3042657	COUNTDOWN_END	n/a	n/a	n/a	n/a	-999	18	[0, 0, 0]	n/a	catFR1	0	R1108J
2942.855	3.6	3042663	ORIENT	n/a	n/a	n/a	n/a	-999	18	[0, 0, 0]	n/a	catFR1	0	R1108J
2946.455	2.401	3046263	WORD	n/a	wordpools/wordpool_categorized_EN.txt	PHONE	Electronics	1	18	[0, 0, 0]	n/a	catFR1	0	R1108J
2948.856	2.551	3048664	WORD	n/a	wordpools/wordpool_categorized_EN.txt	TELEVISION	Electronics	2	18	[0, 0, 0]	n/a	catFR1	0	R1108J
2951.407	2.467	3051215	WORD	n/a	wordpools/wordpool_categorized_EN.txt	NOTEBOOK	OfficeSupplies	3	18	[0, 0, 0]	n/a	catFR1	0	R1108J
2953.874	2.632	3053682	WORD	n/a	wordpools/wordpool_categorized_EN.txt	RULER	OfficeSupplies	4	18	[0, 0, 0]	n/a	catFR1	0	R1108J
2956.506	2.485	3056314	WORD	n/a	wordpools/wordpool_categorized_EN.txt	VALLEY	Landscapes	5	18	[0, 0, 0]	n/a	catFR1	0	R1108J
2958.991	2.449	3058799	WORD	n/a	wordpools/wordpool_categorized_EN.txt	CREEK	Landscapes	6	18	[0, 0, 0]	n/a	catFR1	0	R1108J
2961.44	2.452	3061248	WORD	n/a	wordpools/wordpool_categorized_EN.txt	FOLDER	OfficeSupplies	7	18	[0, 0, 0]	n/a	catFR1	0	R1108J
2963.892	2.549	3063700	WORD	n/a	wordpools/wordpool_categorized_EN.txt	BINDER	OfficeSupplies	8	18	[0, 0, 0]	n/a	catFR1	0	R1108J
2966.441	2.468	3066249	WORD	n/a	wordpools/wordpool_categorized_EN.txt	COMPUTER	Electronics	9	18	[0, 0, 0]	n/a	catFR1	0	R1108J
2968.909	2.451	3068717	WORD	n/a	wordpools/wordpool_categorized_EN.txt	MICROWAVE	Electronics	10	18	[0, 0, 0]	n/a	catFR1	0	R1108J
2971.36	2.516	3071168	WORD	n/a	wordpools/wordpool_categorized_EN.txt	RIVER	Landscapes	11	18	[0, 0, 0]	n/a	catFR1	0	R1108J
2973.876	1.616	3073684	WORD	n/a	wordpools/wordpool_categorized_EN.txt	HILLS	Landscapes	12	18	[0, 0, 0]	n/a	catFR1	0	R1108J
2975.492	0.001	3075300	DISTRACT_START	n/a	n/a	n/a	n/a	-999	18	[0, 0, 0]	n/a	catFR1	0	R1108J
2975.493	0.016	3075301	START	n/a	n/a	n/a	n/a	-999	18	[-999, -999, -999]	n/a	catFR1	0	R1108J
2975.509	8.769	3075317	PROB	8.744	n/a	n/a	n/a	-999	18	[3, 5, 4]	12.0	catFR1	0	R1108J
2984.278	12.317	3084086	PROB	12.317	n/a	n/a	n/a	-999	18	[9, 2, 7]	18.0	catFR1	0	R1108J
2996.595	0.017	3096403	STOP	n/a	n/a	n/a	n/a	-999	18	[-999, -999, -999]	n/a	catFR1	0	R1108J
2996.612	1.202	3096420	DISTRACT_END	n/a	n/a	n/a	n/a	-999	18	[0, 0, 0]	n/a	catFR1	0	R1108J
2997.814	0.933	3097622	REC_START	n/a	n/a	n/a	n/a	-999	18	[0, 0, 0]	n/a	catFR1	0	R1108J
2998.747	0.901	3098555	REC_WORD	0.933	n/a	NOTEBOOK	OfficeSupplies	3	18	[0, 0, 0]	n/a	catFR1	0	R1108J
2999.648	0.86	3099456	REC_WORD	1.834	n/a	RIVER	Landscapes	11	18	[0, 0, 0]	n/a	catFR1	0	R1108J
3000.508	0.745	3100316	REC_WORD	2.694	n/a	HILLS	Landscapes	12	18	[0, 0, 0]	n/a	catFR1	0	R1108J
3001.253	1.383	3101061	REC_WORD	3.439	n/a	VALLEY	Landscapes	5	18	[0, 0, 0]	n/a	catFR1	0	R1108J
3002.636	1.134	3102444	REC_WORD	4.822	n/a	FOLDER	OfficeSupplies	7	18	[0, 0, 0]	n/a	catFR1	0	R1108J
3003.77	1.303	3103578	REC_WORD	5.956	n/a	RULER	OfficeSupplies	4	18	[0, 0, 0]	n/a	catFR1	0	R1108J
3005.073	1.0	3104881	REC_WORD_VV	7.259	n/a	<>	n/a	-999	18	[0, 0, 0]	n/a	catFR1	0	R1108J
3006.073	21.752	3105881	REC_WORD_VV	8.259	n/a	<>	n/a	-999	18	[0, 0, 0]	n/a	catFR1	0	R1108J
3027.825	2.426	3127633	REC_END	n/a	n/a	n/a	n/a	-999	18	[0, 0, 0]	n/a	catFR1	0	R1108J
3030.251	0.0	3130059	COUNTDOWN_START	n/a	n/a	n/a	n/a	-999	19	[0, 0, 0]	n/a	catFR1	0	R1108J
3030.251	10.428	3130059	TRIAL	n/a	n/a	n/a	n/a	-999	19	[0, 0, 0]	n/a	catFR1	0	R1108J
3040.679	0.006	3140487	COUNTDOWN_END	n/a	n/a	n/a	n/a	-999	19	[0, 0, 0]	n/a	catFR1	0	R1108J
3040.685	3.767	3140493	ORIENT	n/a	n/a	n/a	n/a	-999	19	[0, 0, 0]	n/a	catFR1	0	R1108J
3044.452	2.601	3144260	WORD	n/a	wordpools/wordpool_categorized_EN.txt	APPLE	Fruit	1	19	[0, 0, 0]	n/a	catFR1	0	R1108J
3047.053	2.516	3146861	WORD	n/a	wordpools/wordpool_categorized_EN.txt	CHERRY	Fruit	2	19	[0, 0, 0]	n/a	catFR1	0	R1108J
3049.569	2.518	3149377	WORD	n/a	wordpools/wordpool_categorized_EN.txt	FLOOR	Building	3	19	[0, 0, 0]	n/a	catFR1	0	R1108J
3052.087	2.483	3151895	WORD	n/a	wordpools/wordpool_categorized_EN.txt	ROOM	Building	4	19	[0, 0, 0]	n/a	catFR1	0	R1108J
3054.57	2.584	3154378	WORD	n/a	wordpools/wordpool_categorized_EN.txt	FUDGE	Desserts	5	19	[0, 0, 0]	n/a	catFR1	0	R1108J
3057.154	2.416	3156962	WORD	n/a	wordpools/wordpool_categorized_EN.txt	MOUSSE	Desserts	6	19	[0, 0, 0]	n/a	catFR1	0	R1108J
3059.57	2.368	3159378	WORD	n/a	wordpools/wordpool_categorized_EN.txt	HALLWAY	Building	7	19	[0, 0, 0]	n/a	catFR1	0	R1108J
3061.938	2.566	3161746	WORD	n/a	wordpools/wordpool_categorized_EN.txt	WINDOW	Building	8	19	[0, 0, 0]	n/a	catFR1	0	R1108J
3064.504	2.402	3164312	WORD	n/a	wordpools/wordpool_categorized_EN.txt	STRAWBERRY	Fruit	9	19	[0, 0, 0]	n/a	catFR1	0	R1108J
3066.906	2.549	3166714	WORD	n/a	wordpools/wordpool_categorized_EN.txt	LIME	Fruit	10	19	[0, 0, 0]	n/a	catFR1	0	R1108J
3069.455	2.451	3169263	WORD	n/a	wordpools/wordpool_categorized_EN.txt	CHEESECAKE	Desserts	11	19	[0, 0, 0]	n/a	catFR1	0	R1108J
3071.906	1.616	3171714	WORD	n/a	wordpools/wordpool_categorized_EN.txt	COBBLER	Desserts	12	19	[0, 0, 0]	n/a	catFR1	0	R1108J
3073.522	0.001	3173330	DISTRACT_START	n/a	n/a	n/a	n/a	-999	19	[0, 0, 0]	n/a	catFR1	0	R1108J
3073.523	0.016	3173331	START	n/a	n/a	n/a	n/a	-999	19	[-999, -999, -999]	n/a	catFR1	0	R1108J
3073.539	5.05	3173347	PROB	5.03	n/a	n/a	n/a	-999	19	[5, 4, 2]	11.0	catFR1	0	R1108J
3078.589	6.369	3178397	PROB	6.34	n/a	n/a	n/a	-999	19	[3, 8, 2]	13.0	catFR1	0	R1108J
3084.958	8.018	3184766	PROB	7.987	n/a	n/a	n/a	-999	19	[2, 9, 8]	19.0	catFR1	0	R1108J
3092.976	9.584	3192784	PROB	9.584	n/a	n/a	n/a	-999	19	[4, 8, 9]	21.0	catFR1	0	R1108J
3102.56	0.016	3202368	STOP	n/a	n/a	n/a	n/a	-999	19	[-999, -999, -999]	n/a	catFR1	0	R1108J
3102.576	1.052	3202384	DISTRACT_END	n/a	n/a	n/a	n/a	-999	19	[0, 0, 0]	n/a	catFR1	0	R1108J
3103.628	1.077	3203436	REC_START	n/a	n/a	n/a	n/a	-999	19	[0, 0, 0]	n/a	catFR1	0	R1108J
3104.705	1.0	3204513	REC_WORD	1.077	n/a	COBBLER	Desserts	12	19	[0, 0, 0]	n/a	catFR1	0	R1108J
3105.705	0.632	3205513	REC_WORD_VV	2.077	n/a	<>	n/a	-999	19	[0, 0, 0]	n/a	catFR1	0	R1108J
3106.337	1.0	3206145	REC_WORD_VV	2.709	n/a	<>	n/a	-999	19	[0, 0, 0]	n/a	catFR1	0	R1108J
3107.337	5.665	3207145	REC_WORD_VV	3.709	n/a	<>	n/a	-999	19	[0, 0, 0]	n/a	catFR1	0	R1108J
3113.002	1.889	3212810	REC_WORD	9.374	n/a	CHEESECAKE	Desserts	11	19	[0, 0, 0]	n/a	catFR1	0	R1108J
3114.891	9.609	3214699	REC_WORD_VV	11.263	n/a	<>	n/a	-999	19	[0, 0, 0]	n/a	catFR1	0	R1108J
3124.5	1.0	3224308	REC_WORD	20.872	n/a	STRAWBERRY	Fruit	9	19	[0, 0, 0]	n/a	catFR1	0	R1108J
3125.5	1.122	3225308	REC_WORD_VV	21.872	n/a	<>	n/a	-999	19	[0, 0, 0]	n/a	catFR1	0	R1108J
3126.622	7.016	3226430	REC_WORD_VV	22.994	n/a	<>	n/a	-999	19	[0, 0, 0]	n/a	catFR1	0	R1108J
3133.638	2.177	3233446	REC_END	n/a	n/a	n/a	n/a	-999	19	[0, 0, 0]	n/a	catFR1	0	R1108J
3135.815	0.0	3235623	TRIAL	n/a	n/a	n/a	n/a	-999	20	[0, 0, 0]	n/a	catFR1	0	R1108J
3135.815	10.428	3235623	COUNTDOWN_START	n/a	n/a	n/a	n/a	-999	20	[0, 0, 0]	n/a	catFR1	0	R1108J
3146.243	0.007	3246051	COUNTDOWN_END	n/a	n/a	n/a	n/a	-999	20	[0, 0, 0]	n/a	catFR1	0	R1108J
3146.25	3.883	3246058	ORIENT	n/a	n/a	n/a	n/a	-999	20	[0, 0, 0]	n/a	catFR1	0	R1108J
3150.133	2.534	3249941	WORD	n/a	wordpools/wordpool_categorized_EN.txt	BROWNIES	Desserts	1	20	[0, 0, 0]	n/a	catFR1	0	R1108J
3152.667	2.467	3252475	WORD	n/a	wordpools/wordpool_categorized_EN.txt	JELLO	Desserts	2	20	[0, 0, 0]	n/a	catFR1	0	R1108J
3155.134	2.567	3254942	WORD	n/a	wordpools/wordpool_categorized_EN.txt	ZEBRA	Zoo	3	20	[0, 0, 0]	n/a	catFR1	0	R1108J
3157.701	2.617	3257509	WORD	n/a	wordpools/wordpool_categorized_EN.txt	TIGER	Zoo	4	20	[0, 0, 0]	n/a	catFR1	0	R1108J
3160.318	2.517	3260126	WORD	n/a	wordpools/wordpool_categorized_EN.txt	GLUE	OfficeSupplies	5	20	[0, 0, 0]	n/a	catFR1	0	R1108J
3162.835	2.484	3262643	WORD	n/a	wordpools/wordpool_categorized_EN.txt	ERASER	OfficeSupplies	6	20	[0, 0, 0]	n/a	catFR1	0	R1108J
3165.319	2.4	3265127	WORD	n/a	wordpools/wordpool_categorized_EN.txt	MONKEY	Zoo	7	20	[0, 0, 0]	n/a	catFR1	0	R1108J
3167.719	2.4	3267527	WORD	n/a	wordpools/wordpool_categorized_EN.txt	GIRAFFE	Zoo	8	20	[0, 0, 0]	n/a	catFR1	0	R1108J
3170.119	2.467	3269927	WORD	n/a	wordpools/wordpool_categorized_EN.txt	PIE	Desserts	9	20	[0, 0, 0]	n/a	catFR1	0	R1108J
3172.586	2.467	3272394	WORD	n/a	wordpools/wordpool_categorized_EN.txt	PASTRY	Desserts	10	20	[0, 0, 0]	n/a	catFR1	0	R1108J
3175.053	2.4	3274861	WORD	n/a	wordpools/wordpool_categorized_EN.txt	PEN	OfficeSupplies	11	20	[0, 0, 0]	n/a	catFR1	0	R1108J
3177.453	1.618	3277261	WORD	n/a	wordpools/wordpool_categorized_EN.txt	STAPLER	OfficeSupplies	12	20	[0, 0, 0]	n/a	catFR1	0	R1108J
3179.071	0.001	3278879	DISTRACT_START	n/a	n/a	n/a	n/a	-999	20	[0, 0, 0]	n/a	catFR1	0	R1108J
3179.072	0.015	3278880	START	n/a	n/a	n/a	n/a	-999	20	[-999, -999, -999]	n/a	catFR1	0	R1108J
3179.087	4.784	3278895	PROB	4.759	n/a	n/a	n/a	-999	20	[4, 3, 3]	10.0	catFR1	0	R1108J
3183.871	4.151	3283679	PROB	4.119	n/a	n/a	n/a	-999	20	[3, 1, 4]	8.0	catFR1	0	R1108J
3188.022	4.234	3287830	PROB	4.208	n/a	n/a	n/a	-999	20	[7, 3, 2]	12.0	catFR1	0	R1108J
3192.256	9.653	3292064	PROB	9.653	n/a	n/a	n/a	-999	20	[9, 3, 5]	17.0	catFR1	0	R1108J
3201.909	0.015	3301716	STOP	n/a	n/a	n/a	n/a	-999	20	[-999, -999, -999]	n/a	catFR1	0	R1108J
3201.924	1.184	3301731	DISTRACT_END	n/a	n/a	n/a	n/a	-999	20	[0, 0, 0]	n/a	catFR1	0	R1108J
3203.108	1.355	3302915	REC_START	n/a	n/a	n/a	n/a	-999	20	[0, 0, 0]	n/a	catFR1	0	R1108J
3204.463	0.929	3304270	REC_WORD	1.355	n/a	ZEBRA	Zoo	3	20	[0, 0, 0]	n/a	catFR1	0	R1108J
3205.392	1.821	3305199	REC_WORD	2.284	n/a	GIRAFFE	Zoo	8	20	[0, 0, 0]	n/a	catFR1	0	R1108J
3207.213	1.703	3307020	REC_WORD_VV	4.105	n/a	<>	n/a	-999	20	[0, 0, 0]	n/a	catFR1	0	R1108J
3208.916	1.966	3308723	REC_WORD	5.808	n/a	PASTRY	Desserts	10	20	[0, 0, 0]	n/a	catFR1	0	R1108J
3210.882	1.726	3310689	REC_WORD	7.774	n/a	PIE	Desserts	9	20	[0, 0, 0]	n/a	catFR1	0	R1108J
3212.608	11.409	3312415	REC_WORD_VV	9.5	n/a	<>	n/a	-999	20	[0, 0, 0]	n/a	catFR1	0	R1108J
3224.017	1.985	3323824	REC_WORD	20.909	n/a	STAPLER	OfficeSupplies	12	20	[0, 0, 0]	n/a	catFR1	0	R1108J
3226.002	7.115	3325809	REC_WORD_VV	22.894	n/a	<>	n/a	-999	20	[0, 0, 0]	n/a	catFR1	0	R1108J
3233.117	2.577	3332924	REC_END	n/a	n/a	n/a	n/a	-999	20	[0, 0, 0]	n/a	catFR1	0	R1108J
3235.694	0.0	3335501	COUNTDOWN_START	n/a	n/a	n/a	n/a	-999	21	[0, 0, 0]	n/a	catFR1	0	R1108J
3235.694	10.428	3335501	TRIAL	n/a	n/a	n/a	n/a	-999	21	[0, 0, 0]	n/a	catFR1	0	R1108J
3246.122	0.007	3345929	COUNTDOWN_END	n/a	n/a	n/a	n/a	-999	21	[0, 0, 0]	n/a	catFR1	0	R1108J
3246.129	3.551	3345936	ORIENT	n/a	n/a	n/a	n/a	-999	21	[0, 0, 0]	n/a	catFR1	0	R1108J
3249.68	2.634	3349487	WORD	n/a	wordpools/wordpool_categorized_EN.txt	SAW	Tools	1	21	[0, 0, 0]	n/a	catFR1	0	R1108J
3252.314	2.383	3352121	WORD	n/a	wordpools/wordpool_categorized_EN.txt	PLIERS	Tools	2	21	[0, 0, 0]	n/a	catFR1	0	R1108J
3254.697	2.617	3354504	WORD	n/a	wordpools/wordpool_categorized_EN.txt	BOOKCASE	Furniture	3	21	[0, 0, 0]	n/a	catFR1	0	R1108J
3257.314	2.467	3357121	WORD	n/a	wordpools/wordpool_categorized_EN.txt	SOFA	Furniture	4	21	[0, 0, 0]	n/a	catFR1	0	R1108J
3259.781	2.517	3359588	WORD	n/a	wordpools/wordpool_categorized_EN.txt	CROW	Birds	5	21	[0, 0, 0]	n/a	catFR1	0	R1108J
3262.298	2.45	3362105	WORD	n/a	wordpools/wordpool_categorized_EN.txt	PIGEON	Birds	6	21	[0, 0, 0]	n/a	catFR1	0	R1108J
3264.748	2.418	3364555	WORD	n/a	wordpools/wordpool_categorized_EN.txt	SHOVEL	Tools	7	21	[0, 0, 0]	n/a	catFR1	0	R1108J
3267.166	2.467	3366973	WORD	n/a	wordpools/wordpool_categorized_EN.txt	RATCHET	Tools	8	21	[0, 0, 0]	n/a	catFR1	0	R1108J
3269.633	2.533	3369440	WORD	n/a	wordpools/wordpool_categorized_EN.txt	CARDINAL	Birds	9	21	[0, 0, 0]	n/a	catFR1	0	R1108J
3272.166	2.467	3371973	WORD	n/a	wordpools/wordpool_categorized_EN.txt	SPARROW	Birds	10	21	[0, 0, 0]	n/a	catFR1	0	R1108J
3274.633	2.5	3374440	WORD	n/a	wordpools/wordpool_categorized_EN.txt	TABLE	Furniture	11	21	[0, 0, 0]	n/a	catFR1	0	R1108J
3277.133	1.617	3376940	WORD	n/a	wordpools/wordpool_categorized_EN.txt	BED	Furniture	12	21	[0, 0, 0]	n/a	catFR1	0	R1108J
3278.75	0.001	3378557	DISTRACT_START	n/a	n/a	n/a	n/a	-999	21	[0, 0, 0]	n/a	catFR1	0	R1108J
3278.751	0.016	3378558	START	n/a	n/a	n/a	n/a	-999	21	[-999, -999, -999]	n/a	catFR1	0	R1108J
3278.767	6.484	3378574	PROB	6.451	n/a	n/a	n/a	-999	21	[9, 2, 5]	16.0	catFR1	0	R1108J
3285.251	6.684	3385058	PROB	6.655	n/a	n/a	n/a	-999	21	[2, 5, 2]	9.0	catFR1	0	R1108J
3291.935	9.003	3391742	PROB	9.003	n/a	n/a	n/a	-999	21	[3, 1, 2]	6.0	catFR1	0	R1108J
3300.938	0.015	3400745	STOP	n/a	n/a	n/a	n/a	-999	21	[-999, -999, -999]	n/a	catFR1	0	R1108J
3300.953	1.084	3400760	DISTRACT_END	n/a	n/a	n/a	n/a	-999	21	[0, 0, 0]	n/a	catFR1	0	R1108J
3302.037	0.806	3401844	REC_START	n/a	n/a	n/a	n/a	-999	21	[0, 0, 0]	n/a	catFR1	0	R1108J
3302.843	0.787	3402650	REC_WORD	0.806	n/a	PIGEON	Birds	6	21	[0, 0, 0]	n/a	catFR1	0	R1108J
3303.63	1.668	3403437	REC_WORD	1.593	n/a	SPARROW	Birds	10	21	[0, 0, 0]	n/a	catFR1	0	R1108J
3305.298	2.916	3405105	REC_WORD_VV	3.261	n/a	<>	n/a	-999	21	[0, 0, 0]	n/a	catFR1	0	R1108J
3308.214	1.0	3408021	REC_WORD	6.177	n/a	PLIERS	Tools	2	21	[0, 0, 0]	n/a	catFR1	0	R1108J
3309.214	1.165	3409021	REC_WORD_VV	7.177	n/a	<>	n/a	-999	21	[0, 0, 0]	n/a	catFR1	0	R1108J
3310.379	2.632	3410186	REC_WORD_VV	8.342	n/a	<>	n/a	-999	21	[0, 0, 0]	n/a	catFR1	0	R1108J
3313.011	1.0	3412818	REC_WORD	10.974	n/a	BOOKCASE	Furniture	3	21	[0, 0, 0]	n/a	catFR1	0	R1108J
3314.011	1.091	3413818	REC_WORD_VV	11.974	n/a	<>	n/a	-999	21	[0, 0, 0]	n/a	catFR1	0	R1108J
3315.102	1.675	3414909	REC_WORD	13.065	n/a	SOFA	Furniture	4	21	[0, 0, 0]	n/a	catFR1	0	R1108J
3316.777	2.432	3416584	REC_WORD_VV	14.74	n/a	<>	n/a	-999	21	[0, 0, 0]	n/a	catFR1	0	R1108J
3319.209	12.839	3419016	REC_WORD	17.172	n/a	SAW	Tools	1	21	[0, 0, 0]	n/a	catFR1	0	R1108J
3332.048	2.86	3431855	REC_END	n/a	n/a	n/a	n/a	-999	21	[0, 0, 0]	n/a	catFR1	0	R1108J
3334.908	0.0	3434715	TRIAL	n/a	n/a	n/a	n/a	-999	22	[0, 0, 0]	n/a	catFR1	0	R1108J
3334.908	10.428	3434715	COUNTDOWN_START	n/a	n/a	n/a	n/a	-999	22	[0, 0, 0]	n/a	catFR1	0	R1108J
3345.336	0.007	3445143	COUNTDOWN_END	n/a	n/a	n/a	n/a	-999	22	[0, 0, 0]	n/a	catFR1	0	R1108J
3345.343	3.617	3445150	ORIENT	n/a	n/a	n/a	n/a	-999	22	[0, 0, 0]	n/a	catFR1	0	R1108J
3348.96	2.467	3448767	WORD	n/a	wordpools/wordpool_categorized_EN.txt	CALCULATOR	Electronics	1	22	[0, 0, 0]	n/a	catFR1	0	R1108J
3351.427	2.534	3451234	WORD	n/a	wordpools/wordpool_categorized_EN.txt	RADIO	Electronics	2	22	[0, 0, 0]	n/a	catFR1	0	R1108J
3353.961	2.532	3453768	WORD	n/a	wordpools/wordpool_categorized_EN.txt	KNIFE	KitchenTools	3	22	[0, 0, 0]	n/a	catFR1	0	R1108J
3356.493	2.585	3456300	WORD	n/a	wordpools/wordpool_categorized_EN.txt	CORKSCREW	KitchenTools	4	22	[0, 0, 0]	n/a	catFR1	0	R1108J
3359.078	2.482	3458885	WORD	n/a	wordpools/wordpool_categorized_EN.txt	PLANE	Vehicles	5	22	[0, 0, 0]	n/a	catFR1	0	R1108J
3361.56	2.485	3461367	WORD	n/a	wordpools/wordpool_categorized_EN.txt	TRUCK	Vehicles	6	22	[0, 0, 0]	n/a	catFR1	0	R1108J
3364.045	2.45	3463852	WORD	n/a	wordpools/wordpool_categorized_EN.txt	PRINTER	Electronics	7	22	[0, 0, 0]	n/a	catFR1	0	R1108J
3366.495	2.451	3466302	WORD	n/a	wordpools/wordpool_categorized_EN.txt	HEADPHONES	Electronics	8	22	[0, 0, 0]	n/a	catFR1	0	R1108J
3368.946	2.401	3468753	WORD	n/a	wordpools/wordpool_categorized_EN.txt	TRAIN	Vehicles	9	22	[0, 0, 0]	n/a	catFR1	0	R1108J
3371.347	2.416	3471154	WORD	n/a	wordpools/wordpool_categorized_EN.txt	BUS	Vehicles	10	22	[0, 0, 0]	n/a	catFR1	0	R1108J
3373.763	2.451	3473570	WORD	n/a	wordpools/wordpool_categorized_EN.txt	SPOON	KitchenTools	11	22	[0, 0, 0]	n/a	catFR1	0	R1108J
3376.214	1.616	3476021	WORD	n/a	wordpools/wordpool_categorized_EN.txt	PEELER	KitchenTools	12	22	[0, 0, 0]	n/a	catFR1	0	R1108J
3377.83	0.001	3477637	DISTRACT_START	n/a	n/a	n/a	n/a	-999	22	[0, 0, 0]	n/a	catFR1	0	R1108J
3377.831	0.016	3477638	START	n/a	n/a	n/a	n/a	-999	22	[-999, -999, -999]	n/a	catFR1	0	R1108J
3377.847	7.068	3477654	PROB	7.04	n/a	n/a	n/a	-999	22	[8, 4, 4]	16.0	catFR1	0	R1108J
3384.915	4.683	3484722	PROB	4.659	n/a	n/a	n/a	-999	22	[5, 8, 5]	18.0	catFR1	0	R1108J
3389.598	6.151	3489405	PROB	6.12	n/a	n/a	n/a	-999	22	[2, 8, 4]	14.0	catFR1	0	R1108J
3395.749	10.625	3495556	PROB	10.625	n/a	n/a	n/a	-999	22	[9, 5, 7]	21.0	catFR1	0	R1108J
3406.374	0.01	3506181	STOP	n/a	n/a	n/a	n/a	-999	22	[-999, -999, -999]	n/a	catFR1	0	R1108J
3406.384	1.15	3506191	DISTRACT_END	n/a	n/a	n/a	n/a	-999	22	[0, 0, 0]	n/a	catFR1	0	R1108J
3407.534	0.751	3507341	REC_START	n/a	n/a	n/a	n/a	-999	22	[0, 0, 0]	n/a	catFR1	0	R1108J
3408.285	1.599	3508092	REC_WORD	0.751	n/a	PEELER	KitchenTools	12	22	[0, 0, 0]	n/a	catFR1	0	R1108J
3409.884	1.666	3509691	REC_WORD_VV	2.35	n/a	<>	n/a	-999	22	[0, 0, 0]	n/a	catFR1	0	R1108J
3411.55	1.981	3511357	REC_WORD	4.016	n/a	CORKSCREW	KitchenTools	4	22	[0, 0, 0]	n/a	catFR1	0	R1108J
3413.531	24.014	3513338	REC_WORD_VV	5.997	n/a	<>	n/a	-999	22	[0, 0, 0]	n/a	catFR1	0	R1108J
3437.545	3.893	3537352	REC_END	n/a	n/a	n/a	n/a	-999	22	[0, 0, 0]	n/a	catFR1	0	R1108J
3441.438	0.0	3541245	TRIAL	n/a	n/a	n/a	n/a	-999	23	[0, 0, 0]	n/a	catFR1	0	R1108J
3441.438	10.428	3541245	COUNTDOWN_START	n/a	n/a	n/a	n/a	-999	23	[0, 0, 0]	n/a	catFR1	0	R1108J
3451.866	0.024	3551673	COUNTDOWN_END	n/a	n/a	n/a	n/a	-999	23	[0, 0, 0]	n/a	catFR1	0	R1108J
3451.89	3.666	3551697	ORIENT	n/a	n/a	n/a	n/a	-999	23	[0, 0, 0]	n/a	catFR1	0	R1108J
3455.556	2.485	3555363	WORD	n/a	wordpools/wordpool_categorized_EN.txt	FOOTBALL	Toys	1	23	[0, 0, 0]	n/a	catFR1	0	R1108J
3458.041	2.567	3557848	WORD	n/a	wordpools/wordpool_categorized_EN.txt	BLOCKS	Toys	2	23	[0, 0, 0]	n/a	catFR1	0	R1108J
3460.608	2.417	3560415	WORD	n/a	wordpools/wordpool_categorized_EN.txt	ISLAND	Landscapes	3	23	[0, 0, 0]	n/a	catFR1	0	R1108J
3463.025	2.566	3562832	WORD	n/a	wordpools/wordpool_categorized_EN.txt	MOUNTAIN	Landscapes	4	23	[0, 0, 0]	n/a	catFR1	0	R1108J
3465.591	2.585	3565398	WORD	n/a	wordpools/wordpool_categorized_EN.txt	ANT	Insects	5	23	[0, 0, 0]	n/a	catFR1	0	R1108J
3468.176	2.5	3567983	WORD	n/a	wordpools/wordpool_categorized_EN.txt	BEE	Insects	6	23	[0, 0, 0]	n/a	catFR1	0	R1108J
3470.676	2.617	3570483	WORD	n/a	wordpools/wordpool_categorized_EN.txt	BALL	Toys	7	23	[0, 0, 0]	n/a	catFR1	0	R1108J
3473.293	2.483	3573100	WORD	n/a	wordpools/wordpool_categorized_EN.txt	SLINKY	Toys	8	23	[0, 0, 0]	n/a	catFR1	0	R1108J
3475.776	2.601	3575583	WORD	n/a	wordpools/wordpool_categorized_EN.txt	CRICKET	Insects	9	23	[0, 0, 0]	n/a	catFR1	0	R1108J
3478.377	2.417	3578184	WORD	n/a	wordpools/wordpool_categorized_EN.txt	MOTH	Insects	10	23	[0, 0, 0]	n/a	catFR1	0	R1108J
3480.794	2.484	3580601	WORD	n/a	wordpools/wordpool_categorized_EN.txt	LAKE	Landscapes	11	23	[0, 0, 0]	n/a	catFR1	0	R1108J
3483.278	1.617	3583085	WORD	n/a	wordpools/wordpool_categorized_EN.txt	STREAM	Landscapes	12	23	[0, 0, 0]	n/a	catFR1	0	R1108J
3484.895	0.0	3584702	DISTRACT_START	n/a	n/a	n/a	n/a	-999	23	[0, 0, 0]	n/a	catFR1	0	R1108J
3484.895	0.016	3584702	START	n/a	n/a	n/a	n/a	-999	23	[-999, -999, -999]	n/a	catFR1	0	R1108J
3484.911	7.684	3584718	PROB	7.651	n/a	n/a	n/a	-999	23	[2, 5, 8]	15.0	catFR1	0	R1108J
3492.595	10.052	3592402	PROB	10.024	n/a	n/a	n/a	-999	23	[3, 9, 3]	15.0	catFR1	0	R1108J
3502.647	3.859	3602454	PROB	3.859	n/a	n/a	n/a	-999	23	[2, 1, 8]	11.0	catFR1	0	R1108J
3506.506	0.007	3606313	STOP	n/a	n/a	n/a	n/a	-999	23	[-999, -999, -999]	n/a	catFR1	0	R1108J
3506.513	1.152	3606320	DISTRACT_END	n/a	n/a	n/a	n/a	-999	23	[0, 0, 0]	n/a	catFR1	0	R1108J
3507.665	1.03	3607472	REC_START	n/a	n/a	n/a	n/a	-999	23	[0, 0, 0]	n/a	catFR1	0	R1108J
3508.695	1.728	3608502	REC_WORD	1.03	n/a	CRICKET	Insects	9	23	[0, 0, 0]	n/a	catFR1	0	R1108J
3510.423	1.0	3610230	REC_WORD_VV	2.758	n/a	<>	n/a	-999	23	[0, 0, 0]	n/a	catFR1	0	R1108J
3511.423	2.583	3611230	REC_WORD_VV	3.758	n/a	<>	n/a	-999	23	[0, 0, 0]	n/a	catFR1	0	R1108J
3514.006	0.694	3613813	REC_WORD	6.341	n/a	ISLAND	Landscapes	3	23	[0, 0, 0]	n/a	catFR1	0	R1108J
3514.7	1.0	3614507	REC_WORD	7.035	n/a	FOOTBALL	Toys	1	23	[0, 0, 0]	n/a	catFR1	0	R1108J
3515.7	0.905	3615507	REC_WORD_VV	8.035	n/a	<>	n/a	-999	23	[0, 0, 0]	n/a	catFR1	0	R1108J
3516.605	1.0	3616412	REC_WORD	8.94	n/a	SLINKY	Toys	8	23	[0, 0, 0]	n/a	catFR1	0	R1108J
3517.605	0.607	3617412	REC_WORD_VV	9.94	n/a	<>	n/a	-999	23	[0, 0, 0]	n/a	catFR1	0	R1108J
3518.212	1.0	3618019	REC_WORD_VV	10.547	n/a	<>	n/a	-999	23	[0, 0, 0]	n/a	catFR1	0	R1108J
3519.212	15.924	3619019	REC_WORD_VV	11.547	n/a	<>	n/a	-999	23	[0, 0, 0]	n/a	catFR1	0	R1108J
3535.136	2.346	3634943	REC_WORD	27.471	n/a	MOTH	Insects	10	23	[0, 0, 0]	n/a	catFR1	0	R1108J
3537.482	0.198	3637289	REC_WORD_VV	29.817	n/a	<>	n/a	-999	23	[0, 0, 0]	n/a	catFR1	0	R1108J
3537.68	2.788	3637487	REC_END	n/a	n/a	n/a	n/a	-999	23	[0, 0, 0]	n/a	catFR1	0	R1108J
3540.468	0.0	3640275	TRIAL	n/a	n/a	n/a	n/a	-999	24	[0, 0, 0]	n/a	catFR1	0	R1108J
3540.468	10.428	3640275	COUNTDOWN_START	n/a	n/a	n/a	n/a	-999	24	[0, 0, 0]	n/a	catFR1	0	R1108J
3550.896	0.008	3650703	COUNTDOWN_END	n/a	n/a	n/a	n/a	-999	24	[0, 0, 0]	n/a	catFR1	0	R1108J
3550.904	3.599	3650711	ORIENT	n/a	n/a	n/a	n/a	-999	24	[0, 0, 0]	n/a	catFR1	0	R1108J
3554.503	2.584	3654310	WORD	n/a	wordpools/wordpool_categorized_EN.txt	LILY	Flowers	1	24	[0, 0, 0]	n/a	catFR1	0	R1108J
3557.087	2.568	3656894	WORD	n/a	wordpools/wordpool_categorized_EN.txt	CARNATION	Flowers	2	24	[0, 0, 0]	n/a	catFR1	0	R1108J
3559.655	2.483	3659462	WORD	n/a	wordpools/wordpool_categorized_EN.txt	HICKORY	Trees	3	24	[0, 0, 0]	n/a	catFR1	0	R1108J
3562.138	2.416	3661945	WORD	n/a	wordpools/wordpool_categorized_EN.txt	ELM	Trees	4	24	[0, 0, 0]	n/a	catFR1	0	R1108J
3564.554	2.451	3664361	WORD	n/a	wordpools/wordpool_categorized_EN.txt	OCEAN	Landscapes	5	24	[0, 0, 0]	n/a	catFR1	0	R1108J
3567.005	2.6	3666812	WORD	n/a	wordpools/wordpool_categorized_EN.txt	BEACH	Landscapes	6	24	[0, 0, 0]	n/a	catFR1	0	R1108J
3569.605	2.368	3669412	WORD	n/a	wordpools/wordpool_categorized_EN.txt	MARIGOLD	Flowers	7	24	[0, 0, 0]	n/a	catFR1	0	R1108J
3571.973	2.616	3671780	WORD	n/a	wordpools/wordpool_categorized_EN.txt	SUNFLOWER	Flowers	8	24	[0, 0, 0]	n/a	catFR1	0	R1108J
3574.589	2.601	3674396	WORD	n/a	wordpools/wordpool_categorized_EN.txt	FOREST	Landscapes	9	24	[0, 0, 0]	n/a	catFR1	0	R1108J
3577.19	2.534	3676997	WORD	n/a	wordpools/wordpool_categorized_EN.txt	WOODS	Landscapes	10	24	[0, 0, 0]	n/a	catFR1	0	R1108J
3579.724	2.6	3679531	WORD	n/a	wordpools/wordpool_categorized_EN.txt	OAK	Trees	11	24	[0, 0, 0]	n/a	catFR1	0	R1108J
3582.324	1.617	3682131	WORD	n/a	wordpools/wordpool_categorized_EN.txt	SPRUCE	Trees	12	24	[0, 0, 0]	n/a	catFR1	0	R1108J
3583.941	0.001	3683748	DISTRACT_START	n/a	n/a	n/a	n/a	-999	24	[0, 0, 0]	n/a	catFR1	0	R1108J
3583.942	0.016	3683749	START	n/a	n/a	n/a	n/a	-999	24	[-999, -999, -999]	n/a	catFR1	0	R1108J
3583.958	4.499	3683765	PROB	4.466	n/a	n/a	n/a	-999	24	[1, 4, 9]	14.0	catFR1	0	R1108J
3588.457	6.835	3688264	PROB	6.814	n/a	n/a	n/a	-999	24	[5, 2, 5]	12.0	catFR1	0	R1108J
3595.292	8.001	3695099	PROB	7.971	n/a	n/a	n/a	-999	24	[5, 9, 9]	23.0	catFR1	0	R1108J
3603.293	7.914	3703100	PROB	7.914	n/a	n/a	n/a	-999	24	[5, 6, 6]	17.0	catFR1	0	R1108J
3611.207	0.004	3711014	STOP	n/a	n/a	n/a	n/a	-999	24	[-999, -999, -999]	n/a	catFR1	0	R1108J
3611.211	1.035	3711018	DISTRACT_END	n/a	n/a	n/a	n/a	-999	24	[0, 0, 0]	n/a	catFR1	0	R1108J
3612.246	1.652	3712053	REC_START	n/a	n/a	n/a	n/a	-999	24	[0, 0, 0]	n/a	catFR1	0	R1108J
3613.898	1.0	3713705	REC_WORD	1.652	n/a	SUNFLOWER	Flowers	8	24	[0, 0, 0]	n/a	catFR1	0	R1108J
3614.898	0.174	3714705	REC_WORD_VV	2.652	n/a	<>	n/a	-999	24	[0, 0, 0]	n/a	catFR1	0	R1108J
3615.072	1.349	3714879	REC_WORD	2.826	n/a	LILY	Flowers	1	24	[0, 0, 0]	n/a	catFR1	0	R1108J
3616.421	1.834	3716228	REC_WORD	4.175	n/a	SPRUCE	Trees	12	24	[0, 0, 0]	n/a	catFR1	0	R1108J
3618.255	12.721	3718062	REC_WORD_VV	6.009	n/a	<>	n/a	-999	24	[0, 0, 0]	n/a	catFR1	0	R1108J
3630.976	11.281	3730782	REC_WORD	18.73	n/a	ORCHID	n/a	-999	24	[0, 0, 0]	n/a	catFR1	0	R1108J
3642.257	2.258	3742063	REC_END	n/a	n/a	n/a	n/a	-999	24	[0, 0, 0]	n/a	catFR1	0	R1108J
3644.515	0.0	3744321	TRIAL	n/a	n/a	n/a	n/a	-999	25	[0, 0, 0]	n/a	catFR1	0	R1108J
3644.515	10.428	3744321	COUNTDOWN_START	n/a	n/a	n/a	n/a	-999	25	[0, 0, 0]	n/a	catFR1	0	R1108J
3654.943	0.007	3754749	COUNTDOWN_END	n/a	n/a	n/a	n/a	-999	25	[0, 0, 0]	n/a	catFR1	0	R1108J
3654.95	3.468	3754756	ORIENT	n/a	n/a	n/a	n/a	-999	25	[0, 0, 0]	n/a	catFR1	0	R1108J
3658.418	2.617	3758224	WORD	n/a	wordpools/wordpool_categorized_EN.txt	WASHER	Appliances	1	25	[0, 0, 0]	n/a	catFR1	0	R1108J
3661.035	2.583	3760841	WORD	n/a	wordpools/wordpool_categorized_EN.txt	IRON	Appliances	2	25	[0, 0, 0]	n/a	catFR1	0	R1108J
3663.618	2.534	3763424	WORD	n/a	wordpools/wordpool_categorized_EN.txt	HAMMER	Tools	3	25	[0, 0, 0]	n/a	catFR1	0	R1108J
3666.152	2.45	3765958	WORD	n/a	wordpools/wordpool_categorized_EN.txt	DRILL	Tools	4	25	[0, 0, 0]	n/a	catFR1	0	R1108J
3668.602	2.518	3768408	WORD	n/a	wordpools/wordpool_categorized_EN.txt	CAULIFLOWER	Vegetables	5	25	[0, 0, 0]	n/a	catFR1	0	R1108J
3671.12	2.482	3770926	WORD	n/a	wordpools/wordpool_categorized_EN.txt	CORN	Vegetables	6	25	[0, 0, 0]	n/a	catFR1	0	R1108J
3673.602	2.502	3773408	WORD	n/a	wordpools/wordpool_categorized_EN.txt	SCREWDRIVER	Tools	7	25	[0, 0, 0]	n/a	catFR1	0	R1108J
3676.104	2.466	3775910	WORD	n/a	wordpools/wordpool_categorized_EN.txt	WRENCH	Tools	8	25	[0, 0, 0]	n/a	catFR1	0	R1108J
3678.57	2.584	3778376	WORD	n/a	wordpools/wordpool_categorized_EN.txt	OVEN	Appliances	9	25	[0, 0, 0]	n/a	catFR1	0	R1108J
3681.154	2.601	3780960	WORD	n/a	wordpools/wordpool_categorized_EN.txt	FREEZER	Appliances	10	25	[0, 0, 0]	n/a	catFR1	0	R1108J
3683.755	2.45	3783561	WORD	n/a	wordpools/wordpool_categorized_EN.txt	CARROT	Vegetables	11	25	[0, 0, 0]	n/a	catFR1	0	R1108J
3686.205	1.617	3786011	WORD	n/a	wordpools/wordpool_categorized_EN.txt	ONION	Vegetables	12	25	[0, 0, 0]	n/a	catFR1	0	R1108J
3687.822	0.001	3787628	DISTRACT_START	n/a	n/a	n/a	n/a	-999	25	[0, 0, 0]	n/a	catFR1	0	R1108J
3687.823	0.015	3787629	START	n/a	n/a	n/a	n/a	-999	25	[-999, -999, -999]	n/a	catFR1	0	R1108J
3687.838	8.051	3787644	PROB	8.029	n/a	n/a	n/a	-999	25	[7, 8, 7]	21.0	catFR1	0	R1108J
3695.889	12.378	3795695	PROB	12.378	n/a	n/a	n/a	-999	25	[7, 4, 6]	17.0	catFR1	0	R1108J
3708.267	0.007	3808073	STOP	n/a	n/a	n/a	n/a	-999	25	[-999, -999, -999]	n/a	catFR1	0	R1108J
3708.274	1.134	3808080	DISTRACT_END	n/a	n/a	n/a	n/a	-999	25	[0, 0, 0]	n/a	catFR1	0	R1108J
3709.408	1.477	3809214	REC_START	n/a	n/a	n/a	n/a	-999	25	[0, 0, 0]	n/a	catFR1	0	R1108J
3710.885	0.484	3810691	REC_WORD	1.477	n/a	ONION	Vegetables	12	25	[0, 0, 0]	n/a	catFR1	0	R1108J
3711.369	0.915	3811175	REC_WORD	1.961	n/a	CAULIFLOWER	Vegetables	5	25	[0, 0, 0]	n/a	catFR1	0	R1108J
3712.284	1.66	3812090	REC_WORD	2.876	n/a	CARROT	Vegetables	11	25	[0, 0, 0]	n/a	catFR1	0	R1108J
3713.944	2.12	3813750	REC_WORD_VV	4.536	n/a	<>	n/a	-999	25	[0, 0, 0]	n/a	catFR1	0	R1108J
3716.064	1.0	3815870	REC_WORD	6.656	n/a	SCREWDRIVER	Tools	7	25	[0, 0, 0]	n/a	catFR1	0	R1108J
3717.064	2.258	3816870	REC_WORD_VV	7.656	n/a	<>	n/a	-999	25	[0, 0, 0]	n/a	catFR1	0	R1108J
3719.322	1.0	3819128	REC_WORD_VV	9.914	n/a	<>	n/a	-999	25	[0, 0, 0]	n/a	catFR1	0	R1108J
3720.322	19.098	3820128	REC_WORD_VV	10.914	n/a	<>	n/a	-999	25	[0, 0, 0]	n/a	catFR1	0	R1108J
3739.42	6.009	3839226	REC_END	n/a	n/a	n/a	n/a	-999	25	[0, 0, 0]	n/a	catFR1	0	R1108J
3745.429	0.0	3845235	SESS_END	n/a	n/a	n/a	n/a	-999	25	[0, 0, 0]	n/a	catFR1	0	R1108J
