onset	duration	sample	trial_type	response_time	stim_file	item_name	category	serialpos	list	test	answer	experiment	session	subject
0.0	42.153	272042	SESS_START	n/a	n/a	n/a	n/a	-999	-999	[0, 0, 0]	n/a	catFR1	0	R1013E
42.153	10.428	314192	COUNTDOWN_START	n/a	n/a	n/a	n/a	-999	-999	[0, 0, 0]	n/a	catFR1	0	R1013E
52.581	3.941	324619	COUNTDOWN_END	n/a	n/a	n/a	n/a	-999	-999	[0, 0, 0]	n/a	catFR1	0	R1013E
56.522	2.467	328560	PRACTICE_WORD	n/a	n/a	TONGUE	n/a	-999	-999	[0, 0, 0]	n/a	catFR1	0	R1013E
58.989	2.584	331027	PRACTICE_WORD	n/a	n/a	RING	n/a	-999	-999	[0, 0, 0]	n/a	catFR1	0	R1013E
61.573	2.533	333610	PRACTICE_WORD	n/a	n/a	CAMEL	n/a	-999	-999	[0, 0, 0]	n/a	catFR1	0	R1013E
64.106	2.451	336143	PRACTICE_WORD	n/a	n/a	WAGON	n/a	-999	-999	[0, 0, 0]	n/a	catFR1	0	R1013E
66.557	2.567	338594	PRACTICE_WORD	n/a	n/a	RHINO	n/a	-999	-999	[0, 0, 0]	n/a	catFR1	0	R1013E
69.124	2.567	341161	PRACTICE_WORD	n/a	n/a	WATCH	n/a	-999	-999	[0, 0, 0]	n/a	catFR1	0	R1013E
71.691	2.567	343728	PRACTICE_WORD	n/a	n/a	CHEST	n/a	-999	-999	[0, 0, 0]	n/a	catFR1	0	R1013E
74.258	2.467	346294	PRACTICE_WORD	n/a	n/a	COTTON	n/a	-999	-999	[0, 0, 0]	n/a	catFR1	0	R1013E
76.725	2.566	348761	PRACTICE_WORD	n/a	n/a	ATTIC	n/a	-999	-999	[0, 0, 0]	n/a	catFR1	0	R1013E
79.291	2.468	351327	PRACTICE_WORD	n/a	n/a	FLOOD	n/a	-999	-999	[0, 0, 0]	n/a	catFR1	0	R1013E
81.759	2.484	353795	PRACTICE_WORD	n/a	n/a	IRON	n/a	-999	-999	[0, 0, 0]	n/a	catFR1	0	R1013E
84.243	1.617	356279	PRACTICE_WORD	n/a	n/a	BEAM	n/a	-999	-999	[0, 0, 0]	n/a	catFR1	0	R1013E
85.86	0.0	357896	PRACTICE_DISTRACT_START	n/a	n/a	n/a	n/a	-999	-999	[0, 0, 0]	n/a	catFR1	0	R1013E
85.86	0.017	357896	START	n/a	n/a	n/a	n/a	-999	-1	[-999, -999, -999]	n/a	catFR1	0	R1013E
85.877	6.168	357913	PROB	6.134	n/a	n/a	n/a	-999	-1	[9, 1, 3]	13.0	catFR1	0	R1013E
92.045	10.267	364080	PROB	10.242	n/a	n/a	n/a	-999	-1	[9, 5, 9]	23.0	catFR1	0	R1013E
102.312	4.672	374347	PROB	4.672	n/a	n/a	n/a	-999	-1	[1, 7, 6]	14.0	catFR1	0	R1013E
106.984	0.013	379018	STOP	n/a	n/a	n/a	n/a	-999	-1	[-999, -999, -999]	n/a	catFR1	0	R1013E
106.997	0.535	379031	PRACTICE_DISTRACT_END	n/a	n/a	n/a	n/a	-999	-999	[0, 0, 0]	n/a	catFR1	0	R1013E
107.532	30.516	379566	PRACTICE_REC_START	n/a	n/a	n/a	n/a	-999	-999	[0, 0, 0]	n/a	catFR1	0	R1013E
138.048	20.041	410080	PRACTICE_REC_END	n/a	n/a	n/a	n/a	-999	-999	[0, 0, 0]	n/a	catFR1	0	R1013E
158.089	0.001	430120	COUNTDOWN_START	n/a	n/a	n/a	n/a	-999	1	[0, 0, 0]	n/a	catFR1	0	R1013E
158.09	10.427	430121	TRIAL	n/a	n/a	n/a	n/a	-999	1	[0, 0, 0]	n/a	catFR1	0	R1013E
168.517	0.008	440547	COUNTDOWN_END	n/a	n/a	n/a	n/a	-999	1	[0, 0, 0]	n/a	catFR1	0	R1013E
168.525	3.766	440555	ORIENT	n/a	n/a	n/a	n/a	-999	1	[0, 0, 0]	n/a	catFR1	0	R1013E
172.291	2.535	444321	WORD	n/a	wordpools/wordpool_categorized_EN.txt	CORKSCREW	KitchenTools	1	1	[0, 0, 0]	n/a	catFR1	0	R1013E
174.826	2.499	446856	WORD	n/a	wordpools/wordpool_categorized_EN.txt	KNIFE	KitchenTools	2	1	[0, 0, 0]	n/a	catFR1	0	R1013E
177.325	2.585	449355	WORD	n/a	wordpools/wordpool_categorized_EN.txt	CHERRY	Fruit	3	1	[0, 0, 0]	n/a	catFR1	0	R1013E
179.91	2.534	451939	WORD	n/a	wordpools/wordpool_categorized_EN.txt	BLUEBERRY	Fruit	4	1	[0, 0, 0]	n/a	catFR1	0	R1013E
182.444	2.45	454473	WORD	n/a	wordpools/wordpool_categorized_EN.txt	SCOOTER	Vehicles	5	1	[0, 0, 0]	n/a	catFR1	0	R1013E
184.894	2.567	456923	WORD	n/a	wordpools/wordpool_categorized_EN.txt	PLANE	Vehicles	6	1	[0, 0, 0]	n/a	catFR1	0	R1013E
187.461	2.517	459490	WORD	n/a	wordpools/wordpool_categorized_EN.txt	BANANA	Fruit	7	1	[0, 0, 0]	n/a	catFR1	0	R1013E
189.978	2.4	462007	WORD	n/a	wordpools/wordpool_categorized_EN.txt	PEAR	Fruit	8	1	[0, 0, 0]	n/a	catFR1	0	R1013E
192.378	2.401	464406	WORD	n/a	wordpools/wordpool_categorized_EN.txt	GRATER	KitchenTools	9	1	[0, 0, 0]	n/a	catFR1	0	R1013E
194.779	2.533	466807	WORD	n/a	wordpools/wordpool_categorized_EN.txt	STRAINER	KitchenTools	10	1	[0, 0, 0]	n/a	catFR1	0	R1013E
197.312	2.618	469340	WORD	n/a	wordpools/wordpool_categorized_EN.txt	MOPED	Vehicles	11	1	[0, 0, 0]	n/a	catFR1	0	R1013E
199.93	1.617	471958	WORD	n/a	wordpools/wordpool_categorized_EN.txt	BUS	Vehicles	12	1	[0, 0, 0]	n/a	catFR1	0	R1013E
201.547	0.001	473575	DISTRACT_START	n/a	n/a	n/a	n/a	-999	1	[0, 0, 0]	n/a	catFR1	0	R1013E
201.548	0.016	473576	START	n/a	n/a	n/a	n/a	-999	1	[-999, -999, -999]	n/a	catFR1	0	R1013E
201.564	3.584	473592	PROB	3.562	n/a	n/a	n/a	-999	1	[5, 1, 2]	8.0	catFR1	0	R1013E
205.148	3.233	477176	PROB	3.21	n/a	n/a	n/a	-999	1	[2, 1, 9]	12.0	catFR1	0	R1013E
208.381	3.801	480408	PROB	3.778	n/a	n/a	n/a	-999	1	[2, 9, 6]	17.0	catFR1	0	R1013E
212.182	3.351	484209	PROB	3.321	n/a	n/a	n/a	-999	1	[5, 8, 5]	18.0	catFR1	0	R1013E
215.533	4.284	487560	PROB	4.258	n/a	n/a	n/a	-999	1	[9, 6, 5]	20.0	catFR1	0	R1013E
219.817	4.572	491844	PROB	4.572	n/a	n/a	n/a	-999	1	[8, 1, 5]	14.0	catFR1	0	R1013E
224.389	0.011	496415	STOP	n/a	n/a	n/a	n/a	-999	1	[-999, -999, -999]	n/a	catFR1	0	R1013E
224.4	1.118	496426	DISTRACT_END	n/a	n/a	n/a	n/a	-999	1	[0, 0, 0]	n/a	catFR1	0	R1013E
225.518	2.67	497544	REC_START	n/a	n/a	n/a	n/a	-999	1	[0, 0, 0]	n/a	catFR1	0	R1013E
228.188	2.11	500214	REC_WORD	2.67	n/a	MOPED	Vehicles	11	1	[0, 0, 0]	n/a	catFR1	0	R1013E
230.298	0.439	502324	REC_WORD	4.78	n/a	CHERRY	Fruit	3	1	[0, 0, 0]	n/a	catFR1	0	R1013E
230.737	1.321	502763	REC_WORD	5.219	n/a	BANANA	Fruit	7	1	[0, 0, 0]	n/a	catFR1	0	R1013E
232.058	0.562	504084	REC_WORD	6.54	n/a	GRATER	KitchenTools	9	1	[0, 0, 0]	n/a	catFR1	0	R1013E
232.62	4.941	504646	REC_WORD	7.102	n/a	STRAINER	KitchenTools	10	1	[0, 0, 0]	n/a	catFR1	0	R1013E
237.561	8.683	509586	REC_WORD	12.043	n/a	BUS	Vehicles	12	1	[0, 0, 0]	n/a	catFR1	0	R1013E
246.244	2.627	518269	REC_WORD	20.726	n/a	CORKSCREW	KitchenTools	1	1	[0, 0, 0]	n/a	catFR1	0	R1013E
248.871	6.663	520896	REC_WORD	23.353	n/a	KNIFE	KitchenTools	2	1	[0, 0, 0]	n/a	catFR1	0	R1013E
255.534	8.541	527558	REC_END	n/a	n/a	n/a	n/a	-999	1	[0, 0, 0]	n/a	catFR1	0	R1013E
264.075	0.0	536099	TRIAL	n/a	n/a	n/a	n/a	-999	2	[0, 0, 0]	n/a	catFR1	0	R1013E
264.075	10.428	536099	COUNTDOWN_START	n/a	n/a	n/a	n/a	-999	2	[0, 0, 0]	n/a	catFR1	0	R1013E
274.503	0.007	546526	COUNTDOWN_END	n/a	n/a	n/a	n/a	-999	2	[0, 0, 0]	n/a	catFR1	0	R1013E
274.51	3.766	546533	ORIENT	n/a	n/a	n/a	n/a	-999	2	[0, 0, 0]	n/a	catFR1	0	R1013E
278.276	2.418	550299	WORD	n/a	wordpools/wordpool_categorized_EN.txt	BEETLE	Insects	1	2	[0, 0, 0]	n/a	catFR1	0	R1013E
280.694	2.384	552717	WORD	n/a	wordpools/wordpool_categorized_EN.txt	BEE	Insects	2	2	[0, 0, 0]	n/a	catFR1	0	R1013E
283.078	2.517	555100	WORD	n/a	wordpools/wordpool_categorized_EN.txt	TULIP	Flowers	3	2	[0, 0, 0]	n/a	catFR1	0	R1013E
285.595	2.584	557617	WORD	n/a	wordpools/wordpool_categorized_EN.txt	DAISY	Flowers	4	2	[0, 0, 0]	n/a	catFR1	0	R1013E
288.179	2.5	560201	WORD	n/a	wordpools/wordpool_categorized_EN.txt	FORK	KitchenTools	5	2	[0, 0, 0]	n/a	catFR1	0	R1013E
290.679	2.401	562701	WORD	n/a	wordpools/wordpool_categorized_EN.txt	SPOON	KitchenTools	6	2	[0, 0, 0]	n/a	catFR1	0	R1013E
293.08	2.417	565102	WORD	n/a	wordpools/wordpool_categorized_EN.txt	LILAC	Flowers	7	2	[0, 0, 0]	n/a	catFR1	0	R1013E
295.497	2.517	567519	WORD	n/a	wordpools/wordpool_categorized_EN.txt	DAFFODIL	Flowers	8	2	[0, 0, 0]	n/a	catFR1	0	R1013E
298.014	2.55	570035	WORD	n/a	wordpools/wordpool_categorized_EN.txt	MOTH	Insects	9	2	[0, 0, 0]	n/a	catFR1	0	R1013E
300.564	2.501	572585	WORD	n/a	wordpools/wordpool_categorized_EN.txt	ROACH	Insects	10	2	[0, 0, 0]	n/a	catFR1	0	R1013E
303.065	2.4	575086	WORD	n/a	wordpools/wordpool_categorized_EN.txt	LADLE	KitchenTools	11	2	[0, 0, 0]	n/a	catFR1	0	R1013E
305.465	1.617	577486	WORD	n/a	wordpools/wordpool_categorized_EN.txt	PEELER	KitchenTools	12	2	[0, 0, 0]	n/a	catFR1	0	R1013E
307.082	0.001	579103	DISTRACT_START	n/a	n/a	n/a	n/a	-999	2	[0, 0, 0]	n/a	catFR1	0	R1013E
307.083	0.016	579104	START	n/a	n/a	n/a	n/a	-999	2	[-999, -999, -999]	n/a	catFR1	0	R1013E
307.099	5.918	579120	PROB	5.892	n/a	n/a	n/a	-999	2	[9, 4, 6]	19.0	catFR1	0	R1013E
313.017	4.283	585037	PROB	4.261	n/a	n/a	n/a	-999	2	[7, 6, 8]	21.0	catFR1	0	R1013E
317.3	4.134	589320	PROB	4.107	n/a	n/a	n/a	-999	2	[8, 1, 6]	15.0	catFR1	0	R1013E
321.434	4.118	593454	PROB	4.093	n/a	n/a	n/a	-999	2	[2, 8, 4]	14.0	catFR1	0	R1013E
325.552	3.328	597571	PROB	3.328	n/a	n/a	n/a	-999	2	[5, 5, 6]	16.0	catFR1	0	R1013E
328.88	0.006	600899	STOP	n/a	n/a	n/a	n/a	-999	2	[-999, -999, -999]	n/a	catFR1	0	R1013E
328.886	1.184	600905	DISTRACT_END	n/a	n/a	n/a	n/a	-999	2	[0, 0, 0]	n/a	catFR1	0	R1013E
330.07	4.234	602089	REC_START	n/a	n/a	n/a	n/a	-999	2	[0, 0, 0]	n/a	catFR1	0	R1013E
334.304	0.546	606323	REC_WORD	4.234	n/a	BEETLE	Insects	1	2	[0, 0, 0]	n/a	catFR1	0	R1013E
334.85	1.674	606869	REC_WORD	4.78	n/a	BEE	Insects	2	2	[0, 0, 0]	n/a	catFR1	0	R1013E
336.524	5.098	608543	REC_WORD	6.454	n/a	LADLE	KitchenTools	11	2	[0, 0, 0]	n/a	catFR1	0	R1013E
341.622	1.579	613640	REC_WORD	11.552	n/a	DAFFODIL	Flowers	8	2	[0, 0, 0]	n/a	catFR1	0	R1013E
343.201	16.886	615219	REC_WORD	13.131	n/a	TULIP	Flowers	3	2	[0, 0, 0]	n/a	catFR1	0	R1013E
360.087	4.405	632104	REC_END	n/a	n/a	n/a	n/a	-999	2	[0, 0, 0]	n/a	catFR1	0	R1013E
364.492	0.0	636509	TRIAL	n/a	n/a	n/a	n/a	-999	3	[0, 0, 0]	n/a	catFR1	0	R1013E
364.492	10.428	636509	COUNTDOWN_START	n/a	n/a	n/a	n/a	-999	3	[0, 0, 0]	n/a	catFR1	0	R1013E
374.92	0.007	646936	COUNTDOWN_END	n/a	n/a	n/a	n/a	-999	3	[0, 0, 0]	n/a	catFR1	0	R1013E
374.927	3.518	646943	ORIENT	n/a	n/a	n/a	n/a	-999	3	[0, 0, 0]	n/a	catFR1	0	R1013E
378.445	2.433	650461	WORD	n/a	wordpools/wordpool_categorized_EN.txt	MOUSSE	Desserts	1	3	[0, 0, 0]	n/a	catFR1	0	R1013E
380.878	2.584	652894	WORD	n/a	wordpools/wordpool_categorized_EN.txt	FUDGE	Desserts	2	3	[0, 0, 0]	n/a	catFR1	0	R1013E
383.462	2.501	655478	WORD	n/a	wordpools/wordpool_categorized_EN.txt	COLANDER	KitchenTools	3	3	[0, 0, 0]	n/a	catFR1	0	R1013E
385.963	2.382	657978	WORD	n/a	wordpools/wordpool_categorized_EN.txt	TONGS	KitchenTools	4	3	[0, 0, 0]	n/a	catFR1	0	R1013E
388.345	2.535	660360	WORD	n/a	wordpools/wordpool_categorized_EN.txt	FINCH	Birds	5	3	[0, 0, 0]	n/a	catFR1	0	R1013E
390.88	2.466	662895	WORD	n/a	wordpools/wordpool_categorized_EN.txt	CARDINAL	Birds	6	3	[0, 0, 0]	n/a	catFR1	0	R1013E
393.346	2.468	665361	WORD	n/a	wordpools/wordpool_categorized_EN.txt	BROWNIES	Desserts	7	3	[0, 0, 0]	n/a	catFR1	0	R1013E
395.814	2.417	667829	WORD	n/a	wordpools/wordpool_categorized_EN.txt	CAKE	Desserts	8	3	[0, 0, 0]	n/a	catFR1	0	R1013E
398.231	2.518	670246	WORD	n/a	wordpools/wordpool_categorized_EN.txt	SEAGULL	Birds	9	3	[0, 0, 0]	n/a	catFR1	0	R1013E
400.749	2.467	672763	WORD	n/a	wordpools/wordpool_categorized_EN.txt	SPARROW	Birds	10	3	[0, 0, 0]	n/a	catFR1	0	R1013E
403.216	2.467	675230	WORD	n/a	wordpools/wordpool_categorized_EN.txt	WHISK	KitchenTools	11	3	[0, 0, 0]	n/a	catFR1	0	R1013E
405.683	1.616	677697	WORD	n/a	wordpools/wordpool_categorized_EN.txt	SPATULA	KitchenTools	12	3	[0, 0, 0]	n/a	catFR1	0	R1013E
407.299	0.0	679313	DISTRACT_START	n/a	n/a	n/a	n/a	-999	3	[0, 0, 0]	n/a	catFR1	0	R1013E
407.299	0.016	679313	START	n/a	n/a	n/a	n/a	-999	3	[-999, -999, -999]	n/a	catFR1	0	R1013E
407.315	4.436	679329	PROB	4.411	n/a	n/a	n/a	-999	3	[8, 5, 1]	14.0	catFR1	0	R1013E
411.751	7.851	683765	PROB	7.825	n/a	n/a	n/a	-999	3	[2, 8, 2]	12.0	catFR1	0	R1013E
419.602	4.484	691615	PROB	4.462	n/a	n/a	n/a	-999	3	[7, 5, 3]	15.0	catFR1	0	R1013E
424.086	3.05	696099	PROB	3.018	n/a	n/a	n/a	-999	3	[5, 5, 3]	13.0	catFR1	0	R1013E
427.136	3.207	699149	PROB	3.207	n/a	n/a	n/a	-999	3	[3, 7, 7]	17.0	catFR1	0	R1013E
430.343	0.01	702355	STOP	n/a	n/a	n/a	n/a	-999	3	[-999, -999, -999]	n/a	catFR1	0	R1013E
430.353	1.034	702365	DISTRACT_END	n/a	n/a	n/a	n/a	-999	3	[0, 0, 0]	n/a	catFR1	0	R1013E
431.387	30.0	703399	REC_START	n/a	n/a	n/a	n/a	-999	3	[0, 0, 0]	n/a	catFR1	0	R1013E
461.387	0.012	733397	REC_WORD_VV	30.0	n/a	<>	n/a	-999	3	[0, 0, 0]	n/a	catFR1	0	R1013E
461.399	12.396	733409	REC_END	n/a	n/a	n/a	n/a	-999	3	[0, 0, 0]	n/a	catFR1	0	R1013E
473.795	0.0	745804	COUNTDOWN_START	n/a	n/a	n/a	n/a	-999	4	[0, 0, 0]	n/a	catFR1	0	R1013E
473.795	10.428	745804	TRIAL	n/a	n/a	n/a	n/a	-999	4	[0, 0, 0]	n/a	catFR1	0	R1013E
484.223	0.007	756232	COUNTDOWN_END	n/a	n/a	n/a	n/a	-999	4	[0, 0, 0]	n/a	catFR1	0	R1013E
484.23	3.85	756239	ORIENT	n/a	n/a	n/a	n/a	-999	4	[0, 0, 0]	n/a	catFR1	0	R1013E
488.08	2.418	760089	WORD	n/a	wordpools/wordpool_categorized_EN.txt	NOTEBOOK	OfficeSupplies	1	4	[0, 0, 0]	n/a	catFR1	0	R1013E
490.498	2.583	762506	WORD	n/a	wordpools/wordpool_categorized_EN.txt	GLUE	OfficeSupplies	2	4	[0, 0, 0]	n/a	catFR1	0	R1013E
493.081	2.401	765089	WORD	n/a	wordpools/wordpool_categorized_EN.txt	PEAS	Vegetables	3	4	[0, 0, 0]	n/a	catFR1	0	R1013E
495.482	2.4	767490	WORD	n/a	wordpools/wordpool_categorized_EN.txt	CORN	Vegetables	4	4	[0, 0, 0]	n/a	catFR1	0	R1013E
497.882	2.617	769890	WORD	n/a	wordpools/wordpool_categorized_EN.txt	SCREWDRIVER	Tools	5	4	[0, 0, 0]	n/a	catFR1	0	R1013E
500.499	2.617	772507	WORD	n/a	wordpools/wordpool_categorized_EN.txt	DRILL	Tools	6	4	[0, 0, 0]	n/a	catFR1	0	R1013E
503.116	2.451	775123	WORD	n/a	wordpools/wordpool_categorized_EN.txt	TAPE	OfficeSupplies	7	4	[0, 0, 0]	n/a	catFR1	0	R1013E
505.567	2.517	777574	WORD	n/a	wordpools/wordpool_categorized_EN.txt	PAPER	OfficeSupplies	8	4	[0, 0, 0]	n/a	catFR1	0	R1013E
508.084	2.467	780091	WORD	n/a	wordpools/wordpool_categorized_EN.txt	LEVEL	Tools	9	4	[0, 0, 0]	n/a	catFR1	0	R1013E
510.551	2.45	782558	WORD	n/a	wordpools/wordpool_categorized_EN.txt	SAW	Tools	10	4	[0, 0, 0]	n/a	catFR1	0	R1013E
513.001	2.383	785008	WORD	n/a	wordpools/wordpool_categorized_EN.txt	CELERY	Vegetables	11	4	[0, 0, 0]	n/a	catFR1	0	R1013E
515.384	1.601	787391	WORD	n/a	wordpools/wordpool_categorized_EN.txt	LETTUCE	Vegetables	12	4	[0, 0, 0]	n/a	catFR1	0	R1013E
516.985	0.001	788992	DISTRACT_START	n/a	n/a	n/a	n/a	-999	4	[0, 0, 0]	n/a	catFR1	0	R1013E
516.986	0.016	788993	START	n/a	n/a	n/a	n/a	-999	4	[-999, -999, -999]	n/a	catFR1	0	R1013E
517.002	4.251	789009	PROB	4.231	n/a	n/a	n/a	-999	4	[3, 7, 3]	13.0	catFR1	0	R1013E
521.253	2.917	793259	PROB	2.884	n/a	n/a	n/a	-999	4	[4, 9, 1]	14.0	catFR1	0	R1013E
524.17	3.301	796176	PROB	3.271	n/a	n/a	n/a	-999	4	[3, 7, 6]	16.0	catFR1	0	R1013E
527.471	3.534	799477	PROB	3.506	n/a	n/a	n/a	-999	4	[4, 3, 5]	12.0	catFR1	0	R1013E
531.005	4.967	803011	PROB	4.933	n/a	n/a	n/a	-999	4	[3, 8, 6]	17.0	catFR1	0	R1013E
535.972	2.998	807977	PROB	2.998	n/a	n/a	n/a	-999	4	[4, 1, 4]	9.0	catFR1	0	R1013E
538.97	0.019	810975	STOP	n/a	n/a	n/a	n/a	-999	4	[-999, -999, -999]	n/a	catFR1	0	R1013E
538.989	1.118	810994	DISTRACT_END	n/a	n/a	n/a	n/a	-999	4	[0, 0, 0]	n/a	catFR1	0	R1013E
540.107	24.707	812112	REC_START	n/a	n/a	n/a	n/a	-999	4	[0, 0, 0]	n/a	catFR1	0	R1013E
564.814	5.305	836817	REC_WORD	24.707	n/a	MOUSSE	n/a	-999	4	[0, 0, 0]	n/a	catFR1	0	R1013E
570.119	14.478	842122	REC_END	n/a	n/a	n/a	n/a	-999	4	[0, 0, 0]	n/a	catFR1	0	R1013E
584.597	0.001	856599	COUNTDOWN_START	n/a	n/a	n/a	n/a	-999	5	[0, 0, 0]	n/a	catFR1	0	R1013E
584.598	10.427	856600	TRIAL	n/a	n/a	n/a	n/a	-999	5	[0, 0, 0]	n/a	catFR1	0	R1013E
595.025	0.007	867026	COUNTDOWN_END	n/a	n/a	n/a	n/a	-999	5	[0, 0, 0]	n/a	catFR1	0	R1013E
595.032	3.918	867033	ORIENT	n/a	n/a	n/a	n/a	-999	5	[0, 0, 0]	n/a	catFR1	0	R1013E
598.95	2.449	870951	WORD	n/a	wordpools/wordpool_categorized_EN.txt	OAK	Trees	1	5	[0, 0, 0]	n/a	catFR1	0	R1013E
601.399	2.418	873400	WORD	n/a	wordpools/wordpool_categorized_EN.txt	EVERGREEN	Trees	2	5	[0, 0, 0]	n/a	catFR1	0	R1013E
603.817	2.617	875818	WORD	n/a	wordpools/wordpool_categorized_EN.txt	PLIERS	Tools	3	5	[0, 0, 0]	n/a	catFR1	0	R1013E
606.434	2.534	878435	WORD	n/a	wordpools/wordpool_categorized_EN.txt	AXE	Tools	4	5	[0, 0, 0]	n/a	catFR1	0	R1013E
608.968	2.501	880968	WORD	n/a	wordpools/wordpool_categorized_EN.txt	MONKEY	Zoo	5	5	[0, 0, 0]	n/a	catFR1	0	R1013E
611.469	2.534	883469	WORD	n/a	wordpools/wordpool_categorized_EN.txt	GIRAFFE	Zoo	6	5	[0, 0, 0]	n/a	catFR1	0	R1013E
614.003	2.583	886003	WORD	n/a	wordpools/wordpool_categorized_EN.txt	SANDER	Tools	7	5	[0, 0, 0]	n/a	catFR1	0	R1013E
616.586	2.601	888586	WORD	n/a	wordpools/wordpool_categorized_EN.txt	CROWBAR	Tools	8	5	[0, 0, 0]	n/a	catFR1	0	R1013E
619.187	2.567	891187	WORD	n/a	wordpools/wordpool_categorized_EN.txt	MAPLE	Trees	9	5	[0, 0, 0]	n/a	catFR1	0	R1013E
621.754	2.516	893753	WORD	n/a	wordpools/wordpool_categorized_EN.txt	SPRUCE	Trees	10	5	[0, 0, 0]	n/a	catFR1	0	R1013E
624.27	2.568	896269	WORD	n/a	wordpools/wordpool_categorized_EN.txt	ORANGUTAN	Zoo	11	5	[0, 0, 0]	n/a	catFR1	0	R1013E
626.838	1.617	898837	WORD	n/a	wordpools/wordpool_categorized_EN.txt	GORILLA	Zoo	12	5	[0, 0, 0]	n/a	catFR1	0	R1013E
628.455	0.001	900454	DISTRACT_START	n/a	n/a	n/a	n/a	-999	5	[0, 0, 0]	n/a	catFR1	0	R1013E
628.456	0.016	900455	START	n/a	n/a	n/a	n/a	-999	5	[-999, -999, -999]	n/a	catFR1	0	R1013E
628.472	3.167	900471	PROB	3.145	n/a	n/a	n/a	-999	5	[1, 1, 7]	9.0	catFR1	0	R1013E
631.639	2.967	903638	PROB	2.938	n/a	n/a	n/a	-999	5	[5, 5, 1]	11.0	catFR1	0	R1013E
634.606	3.384	906605	PROB	3.363	n/a	n/a	n/a	-999	5	[5, 3, 2]	10.0	catFR1	0	R1013E
637.99	4.467	909988	PROB	4.434	n/a	n/a	n/a	-999	5	[2, 3, 9]	14.0	catFR1	0	R1013E
642.457	4.401	914455	PROB	4.368	n/a	n/a	n/a	-999	5	[3, 5, 2]	10.0	catFR1	0	R1013E
646.858	3.775	918856	PROB	3.775	n/a	n/a	n/a	-999	5	[9, 3, 8]	20.0	catFR1	0	R1013E
650.633	0.009	922631	STOP	n/a	n/a	n/a	n/a	-999	5	[-999, -999, -999]	n/a	catFR1	0	R1013E
650.642	1.101	922640	DISTRACT_END	n/a	n/a	n/a	n/a	-999	5	[0, 0, 0]	n/a	catFR1	0	R1013E
651.743	1.589	923740	REC_START	n/a	n/a	n/a	n/a	-999	5	[0, 0, 0]	n/a	catFR1	0	R1013E
653.332	0.833	925329	REC_WORD	1.589	n/a	ORANGUTAN	Zoo	11	5	[0, 0, 0]	n/a	catFR1	0	R1013E
654.165	1.363	926162	REC_WORD	2.422	n/a	GORILLA	Zoo	12	5	[0, 0, 0]	n/a	catFR1	0	R1013E
655.528	26.227	927525	REC_WORD_VV	3.785	n/a	<>	n/a	-999	5	[0, 0, 0]	n/a	catFR1	0	R1013E
681.755	16.062	953750	REC_END	n/a	n/a	n/a	n/a	-999	5	[0, 0, 0]	n/a	catFR1	0	R1013E
697.817	0.0	969811	TRIAL	n/a	n/a	n/a	n/a	-999	6	[0, 0, 0]	n/a	catFR1	0	R1013E
697.817	10.428	969811	COUNTDOWN_START	n/a	n/a	n/a	n/a	-999	6	[0, 0, 0]	n/a	catFR1	0	R1013E
708.245	0.007	980239	COUNTDOWN_END	n/a	n/a	n/a	n/a	-999	6	[0, 0, 0]	n/a	catFR1	0	R1013E
708.252	3.584	980246	ORIENT	n/a	n/a	n/a	n/a	-999	6	[0, 0, 0]	n/a	catFR1	0	R1013E
711.836	2.516	983829	WORD	n/a	wordpools/wordpool_categorized_EN.txt	RECLINER	Furniture	1	6	[0, 0, 0]	n/a	catFR1	0	R1013E
714.352	2.552	986345	WORD	n/a	wordpools/wordpool_categorized_EN.txt	DESK	Furniture	2	6	[0, 0, 0]	n/a	catFR1	0	R1013E
716.904	2.584	988897	WORD	n/a	wordpools/wordpool_categorized_EN.txt	TRUCK	Vehicles	3	6	[0, 0, 0]	n/a	catFR1	0	R1013E
719.488	2.55	991481	WORD	n/a	wordpools/wordpool_categorized_EN.txt	VAN	Vehicles	4	6	[0, 0, 0]	n/a	catFR1	0	R1013E
722.038	2.383	994031	WORD	n/a	wordpools/wordpool_categorized_EN.txt	PINE	Trees	5	6	[0, 0, 0]	n/a	catFR1	0	R1013E
724.421	2.535	996414	WORD	n/a	wordpools/wordpool_categorized_EN.txt	CYPRESS	Trees	6	6	[0, 0, 0]	n/a	catFR1	0	R1013E
726.956	2.6	998948	WORD	n/a	wordpools/wordpool_categorized_EN.txt	TRAIN	Vehicles	7	6	[0, 0, 0]	n/a	catFR1	0	R1013E
729.556	2.45	1001548	WORD	n/a	wordpools/wordpool_categorized_EN.txt	CAR	Vehicles	8	6	[0, 0, 0]	n/a	catFR1	0	R1013E
732.006	2.534	1003998	WORD	n/a	wordpools/wordpool_categorized_EN.txt	SHELF	Furniture	9	6	[0, 0, 0]	n/a	catFR1	0	R1013E
734.54	2.551	1006532	WORD	n/a	wordpools/wordpool_categorized_EN.txt	NIGHTSTAND	Furniture	10	6	[0, 0, 0]	n/a	catFR1	0	R1013E
737.091	2.583	1009083	WORD	n/a	wordpools/wordpool_categorized_EN.txt	ELM	Trees	11	6	[0, 0, 0]	n/a	catFR1	0	R1013E
739.674	1.616	1011665	WORD	n/a	wordpools/wordpool_categorized_EN.txt	HICKORY	Trees	12	6	[0, 0, 0]	n/a	catFR1	0	R1013E
741.29	0.001	1013281	DISTRACT_START	n/a	n/a	n/a	n/a	-999	6	[0, 0, 0]	n/a	catFR1	0	R1013E
741.291	0.016	1013282	START	n/a	n/a	n/a	n/a	-999	6	[-999, -999, -999]	n/a	catFR1	0	R1013E
741.307	4.919	1013298	PROB	4.892	n/a	n/a	n/a	-999	6	[2, 5, 1]	8.0	catFR1	0	R1013E
746.226	3.3	1018217	PROB	3.269	n/a	n/a	n/a	-999	6	[2, 1, 2]	5.0	catFR1	0	R1013E
749.526	4.251	1021517	PROB	4.225	n/a	n/a	n/a	-999	6	[9, 4, 6]	19.0	catFR1	0	R1013E
753.777	5.318	1025768	PROB	5.294	n/a	n/a	n/a	-999	6	[5, 6, 9]	20.0	catFR1	0	R1013E
759.095	12.171	1031085	PROB	12.171	n/a	n/a	n/a	-999	6	[4, 7, 7]	18.0	catFR1	0	R1013E
771.266	0.013	1043255	STOP	n/a	n/a	n/a	n/a	-999	6	[-999, -999, -999]	n/a	catFR1	0	R1013E
771.279	1.202	1043268	DISTRACT_END	n/a	n/a	n/a	n/a	-999	6	[0, 0, 0]	n/a	catFR1	0	R1013E
772.481	2.543	1044470	REC_START	n/a	n/a	n/a	n/a	-999	6	[0, 0, 0]	n/a	catFR1	0	R1013E
775.024	0.458	1047013	REC_WORD	2.543	n/a	CAR	Vehicles	8	6	[0, 0, 0]	n/a	catFR1	0	R1013E
775.482	1.916	1047471	REC_WORD	3.001	n/a	TRUCK	Vehicles	3	6	[0, 0, 0]	n/a	catFR1	0	R1013E
777.398	1.425	1049387	REC_WORD	4.917	n/a	RECLINER	Furniture	1	6	[0, 0, 0]	n/a	catFR1	0	R1013E
778.823	11.069	1050812	REC_WORD	6.342	n/a	DESK	Furniture	2	6	[0, 0, 0]	n/a	catFR1	0	R1013E
789.892	12.601	1061880	REC_WORD	17.411	n/a	ELM	Trees	11	6	[0, 0, 0]	n/a	catFR1	0	R1013E
802.493	3.343	1074480	REC_END	n/a	n/a	n/a	n/a	-999	6	[0, 0, 0]	n/a	catFR1	0	R1013E
805.836	0.0	1077823	TRIAL	n/a	n/a	n/a	n/a	-999	7	[0, 0, 0]	n/a	catFR1	0	R1013E
805.836	10.428	1077823	COUNTDOWN_START	n/a	n/a	n/a	n/a	-999	7	[0, 0, 0]	n/a	catFR1	0	R1013E
816.264	0.006	1088250	COUNTDOWN_END	n/a	n/a	n/a	n/a	-999	7	[0, 0, 0]	n/a	catFR1	0	R1013E
816.27	3.869	1088256	ORIENT	n/a	n/a	n/a	n/a	-999	7	[0, 0, 0]	n/a	catFR1	0	R1013E
820.139	2.55	1092125	WORD	n/a	wordpools/wordpool_categorized_EN.txt	HAND	BodyParts	1	7	[0, 0, 0]	n/a	catFR1	0	R1013E
822.689	2.567	1094675	WORD	n/a	wordpools/wordpool_categorized_EN.txt	EAR	BodyParts	2	7	[0, 0, 0]	n/a	catFR1	0	R1013E
825.256	2.601	1097242	WORD	n/a	wordpools/wordpool_categorized_EN.txt	BIRCH	Trees	3	7	[0, 0, 0]	n/a	catFR1	0	R1013E
827.857	2.549	1099843	WORD	n/a	wordpools/wordpool_categorized_EN.txt	WILLOW	Trees	4	7	[0, 0, 0]	n/a	catFR1	0	R1013E
830.406	2.551	1102391	WORD	n/a	wordpools/wordpool_categorized_EN.txt	DRUM	Instruments	5	7	[0, 0, 0]	n/a	catFR1	0	R1013E
832.957	2.45	1104942	WORD	n/a	wordpools/wordpool_categorized_EN.txt	BANJO	Instruments	6	7	[0, 0, 0]	n/a	catFR1	0	R1013E
835.407	2.418	1107392	WORD	n/a	wordpools/wordpool_categorized_EN.txt	CEDAR	Trees	7	7	[0, 0, 0]	n/a	catFR1	0	R1013E
837.825	2.384	1109810	WORD	n/a	wordpools/wordpool_categorized_EN.txt	WALNUT	Trees	8	7	[0, 0, 0]	n/a	catFR1	0	R1013E
840.209	2.45	1112194	WORD	n/a	wordpools/wordpool_categorized_EN.txt	FOOT	BodyParts	9	7	[0, 0, 0]	n/a	catFR1	0	R1013E
842.659	2.517	1114644	WORD	n/a	wordpools/wordpool_categorized_EN.txt	LEG	BodyParts	10	7	[0, 0, 0]	n/a	catFR1	0	R1013E
845.176	2.517	1117160	WORD	n/a	wordpools/wordpool_categorized_EN.txt	GUITAR	Instruments	11	7	[0, 0, 0]	n/a	catFR1	0	R1013E
847.693	1.616	1119677	WORD	n/a	wordpools/wordpool_categorized_EN.txt	CELLO	Instruments	12	7	[0, 0, 0]	n/a	catFR1	0	R1013E
849.309	0.001	1121293	DISTRACT_START	n/a	n/a	n/a	n/a	-999	7	[0, 0, 0]	n/a	catFR1	0	R1013E
849.31	0.016	1121294	START	n/a	n/a	n/a	n/a	-999	7	[-999, -999, -999]	n/a	catFR1	0	R1013E
849.326	7.252	1121310	PROB	7.23	n/a	n/a	n/a	-999	7	[7, 5, 6]	19.0	catFR1	0	R1013E
856.578	3.783	1128562	PROB	3.761	n/a	n/a	n/a	-999	7	[7, 1, 9]	17.0	catFR1	0	R1013E
860.361	9.848	1132344	PROB	9.848	n/a	n/a	n/a	-999	7	[3, 7, 9]	19.0	catFR1	0	R1013E
870.209	0.005	1142192	STOP	n/a	n/a	n/a	n/a	-999	7	[-999, -999, -999]	n/a	catFR1	0	R1013E
870.214	1.166	1142197	DISTRACT_END	n/a	n/a	n/a	n/a	-999	7	[0, 0, 0]	n/a	catFR1	0	R1013E
871.38	3.776	1143363	REC_START	n/a	n/a	n/a	n/a	-999	7	[0, 0, 0]	n/a	catFR1	0	R1013E
875.156	0.466	1147138	REC_WORD	3.776	n/a	HAND	BodyParts	1	7	[0, 0, 0]	n/a	catFR1	0	R1013E
875.622	0.633	1147604	REC_WORD	4.242	n/a	FOOT	BodyParts	9	7	[0, 0, 0]	n/a	catFR1	0	R1013E
876.255	8.705	1148237	REC_WORD	4.875	n/a	DRUM	Instruments	5	7	[0, 0, 0]	n/a	catFR1	0	R1013E
884.96	0.35	1156942	REC_WORD	13.58	n/a	BIRCH	Trees	3	7	[0, 0, 0]	n/a	catFR1	0	R1013E
885.31	16.087	1157292	REC_WORD	13.93	n/a	WILLOW	Trees	4	7	[0, 0, 0]	n/a	catFR1	0	R1013E
901.397	3.04	1173378	REC_END	n/a	n/a	n/a	n/a	-999	7	[0, 0, 0]	n/a	catFR1	0	R1013E
904.437	0.0	1176417	TRIAL	n/a	n/a	n/a	n/a	-999	8	[0, 0, 0]	n/a	catFR1	0	R1013E
904.437	10.428	1176417	COUNTDOWN_START	n/a	n/a	n/a	n/a	-999	8	[0, 0, 0]	n/a	catFR1	0	R1013E
914.865	0.007	1186845	COUNTDOWN_END	n/a	n/a	n/a	n/a	-999	8	[0, 0, 0]	n/a	catFR1	0	R1013E
914.872	3.85	1186852	ORIENT	n/a	n/a	n/a	n/a	-999	8	[0, 0, 0]	n/a	catFR1	0	R1013E
918.722	2.518	1190701	WORD	n/a	wordpools/wordpool_categorized_EN.txt	ROOSTER	FarmAnimals	1	8	[0, 0, 0]	n/a	catFR1	0	R1013E
921.24	2.433	1193219	WORD	n/a	wordpools/wordpool_categorized_EN.txt	PIG	FarmAnimals	2	8	[0, 0, 0]	n/a	catFR1	0	R1013E
923.673	2.434	1195652	WORD	n/a	wordpools/wordpool_categorized_EN.txt	MOUNTAIN	Landscapes	3	8	[0, 0, 0]	n/a	catFR1	0	R1013E
926.107	2.534	1198086	WORD	n/a	wordpools/wordpool_categorized_EN.txt	STREAM	Landscapes	4	8	[0, 0, 0]	n/a	catFR1	0	R1013E
928.641	2.534	1200620	WORD	n/a	wordpools/wordpool_categorized_EN.txt	REFRIGERATOR	Appliances	5	8	[0, 0, 0]	n/a	catFR1	0	R1013E
931.175	2.6	1203154	WORD	n/a	wordpools/wordpool_categorized_EN.txt	TOASTER	Appliances	6	8	[0, 0, 0]	n/a	catFR1	0	R1013E
933.775	2.533	1205753	WORD	n/a	wordpools/wordpool_categorized_EN.txt	FOREST	Landscapes	7	8	[0, 0, 0]	n/a	catFR1	0	R1013E
936.308	2.518	1208286	WORD	n/a	wordpools/wordpool_categorized_EN.txt	WOODS	Landscapes	8	8	[0, 0, 0]	n/a	catFR1	0	R1013E
938.826	2.516	1210804	WORD	n/a	wordpools/wordpool_categorized_EN.txt	HORSE	FarmAnimals	9	8	[0, 0, 0]	n/a	catFR1	0	R1013E
941.342	2.418	1213320	WORD	n/a	wordpools/wordpool_categorized_EN.txt	BULL	FarmAnimals	10	8	[0, 0, 0]	n/a	catFR1	0	R1013E
943.76	2.549	1215738	WORD	n/a	wordpools/wordpool_categorized_EN.txt	FREEZER	Appliances	11	8	[0, 0, 0]	n/a	catFR1	0	R1013E
946.309	1.602	1218287	WORD	n/a	wordpools/wordpool_categorized_EN.txt	WASHER	Appliances	12	8	[0, 0, 0]	n/a	catFR1	0	R1013E
947.911	0.001	1219888	DISTRACT_START	n/a	n/a	n/a	n/a	-999	8	[0, 0, 0]	n/a	catFR1	0	R1013E
947.912	0.015	1219889	START	n/a	n/a	n/a	n/a	-999	8	[-999, -999, -999]	n/a	catFR1	0	R1013E
947.927	6.618	1219904	PROB	6.588	n/a	n/a	n/a	-999	8	[7, 7, 8]	22.0	catFR1	0	R1013E
954.545	4.118	1226522	PROB	4.082	n/a	n/a	n/a	-999	8	[6, 1, 8]	15.0	catFR1	0	R1013E
958.663	4.434	1230640	PROB	4.41	n/a	n/a	n/a	-999	8	[7, 8, 5]	20.0	catFR1	0	R1013E
963.097	3.784	1235073	PROB	3.752	n/a	n/a	n/a	-999	8	[4, 3, 3]	10.0	catFR1	0	R1013E
966.881	3.368	1238857	PROB	3.368	n/a	n/a	n/a	-999	8	[5, 5, 5]	15.0	catFR1	0	R1013E
970.249	0.016	1242225	STOP	n/a	n/a	n/a	n/a	-999	8	[-999, -999, -999]	n/a	catFR1	0	R1013E
970.265	1.133	1242241	DISTRACT_END	n/a	n/a	n/a	n/a	-999	8	[0, 0, 0]	n/a	catFR1	0	R1013E
971.398	4.621	1243374	REC_START	n/a	n/a	n/a	n/a	-999	8	[0, 0, 0]	n/a	catFR1	0	R1013E
976.019	0.725	1247995	REC_WORD	4.621	n/a	MOUNTAIN	Landscapes	3	8	[0, 0, 0]	n/a	catFR1	0	R1013E
976.744	12.419	1248719	REC_WORD	5.346	n/a	WOODS	Landscapes	8	8	[0, 0, 0]	n/a	catFR1	0	R1013E
989.163	1.121	1261138	REC_WORD	17.765	n/a	HORSE	FarmAnimals	9	8	[0, 0, 0]	n/a	catFR1	0	R1013E
990.284	2.216	1262259	REC_WORD	18.886	n/a	PIG	FarmAnimals	2	8	[0, 0, 0]	n/a	catFR1	0	R1013E
992.5	8.91	1264474	REC_WORD	21.102	n/a	BULL	FarmAnimals	10	8	[0, 0, 0]	n/a	catFR1	0	R1013E
1001.41	7.911	1273384	REC_END	n/a	n/a	n/a	n/a	-999	8	[0, 0, 0]	n/a	catFR1	0	R1013E
1009.321	0.0	1281294	TRIAL	n/a	n/a	n/a	n/a	-999	9	[0, 0, 0]	n/a	catFR1	0	R1013E
1009.321	10.428	1281294	COUNTDOWN_START	n/a	n/a	n/a	n/a	-999	9	[0, 0, 0]	n/a	catFR1	0	R1013E
1019.749	0.008	1291722	COUNTDOWN_END	n/a	n/a	n/a	n/a	-999	9	[0, 0, 0]	n/a	catFR1	0	R1013E
1019.757	3.7	1291730	ORIENT	n/a	n/a	n/a	n/a	-999	9	[0, 0, 0]	n/a	catFR1	0	R1013E
1023.457	2.584	1295429	WORD	n/a	wordpools/wordpool_categorized_EN.txt	TABLE	Furniture	1	9	[0, 0, 0]	n/a	catFR1	0	R1013E
1026.041	2.501	1298013	WORD	n/a	wordpools/wordpool_categorized_EN.txt	SOFA	Furniture	2	9	[0, 0, 0]	n/a	catFR1	0	R1013E
1028.542	2.433	1300514	WORD	n/a	wordpools/wordpool_categorized_EN.txt	PANDA	Zoo	3	9	[0, 0, 0]	n/a	catFR1	0	R1013E
1030.975	2.4	1302947	WORD	n/a	wordpools/wordpool_categorized_EN.txt	ELEPHANT	Zoo	4	9	[0, 0, 0]	n/a	catFR1	0	R1013E
1033.375	2.568	1305347	WORD	n/a	wordpools/wordpool_categorized_EN.txt	HILLS	Landscapes	5	9	[0, 0, 0]	n/a	catFR1	0	R1013E
1035.943	2.383	1307914	WORD	n/a	wordpools/wordpool_categorized_EN.txt	RIVER	Landscapes	6	9	[0, 0, 0]	n/a	catFR1	0	R1013E
1038.326	2.451	1310297	WORD	n/a	wordpools/wordpool_categorized_EN.txt	DRESSER	Furniture	7	9	[0, 0, 0]	n/a	catFR1	0	R1013E
1040.777	2.417	1312748	WORD	n/a	wordpools/wordpool_categorized_EN.txt	BOOKCASE	Furniture	8	9	[0, 0, 0]	n/a	catFR1	0	R1013E
1043.194	2.551	1315165	WORD	n/a	wordpools/wordpool_categorized_EN.txt	CREEK	Landscapes	9	9	[0, 0, 0]	n/a	catFR1	0	R1013E
1045.745	2.582	1317716	WORD	n/a	wordpools/wordpool_categorized_EN.txt	BEACH	Landscapes	10	9	[0, 0, 0]	n/a	catFR1	0	R1013E
1048.327	2.435	1320298	WORD	n/a	wordpools/wordpool_categorized_EN.txt	BEAR	Zoo	11	9	[0, 0, 0]	n/a	catFR1	0	R1013E
1050.762	1.616	1322732	WORD	n/a	wordpools/wordpool_categorized_EN.txt	CHIMPANZEE	Zoo	12	9	[0, 0, 0]	n/a	catFR1	0	R1013E
1052.378	0.001	1324348	DISTRACT_START	n/a	n/a	n/a	n/a	-999	9	[0, 0, 0]	n/a	catFR1	0	R1013E
1052.379	0.016	1324349	START	n/a	n/a	n/a	n/a	-999	9	[-999, -999, -999]	n/a	catFR1	0	R1013E
1052.395	4.917	1324365	PROB	4.887	n/a	n/a	n/a	-999	9	[3, 1, 6]	10.0	catFR1	0	R1013E
1057.312	2.935	1329282	PROB	2.915	n/a	n/a	n/a	-999	9	[3, 7, 1]	11.0	catFR1	0	R1013E
1060.247	3.701	1332217	PROB	3.675	n/a	n/a	n/a	-999	9	[7, 5, 8]	20.0	catFR1	0	R1013E
1063.948	4.951	1335918	PROB	4.927	n/a	n/a	n/a	-999	9	[4, 7, 5]	16.0	catFR1	0	R1013E
1068.899	3.479	1340868	PROB	3.479	n/a	n/a	n/a	-999	9	[1, 5, 8]	14.0	catFR1	0	R1013E
1072.378	0.003	1344347	STOP	n/a	n/a	n/a	n/a	-999	9	[-999, -999, -999]	n/a	catFR1	0	R1013E
1072.381	1.219	1344350	DISTRACT_END	n/a	n/a	n/a	n/a	-999	9	[0, 0, 0]	n/a	catFR1	0	R1013E
1073.6	3.106	1345569	REC_START	n/a	n/a	n/a	n/a	-999	9	[0, 0, 0]	n/a	catFR1	0	R1013E
1076.706	0.855	1348675	REC_WORD	3.106	n/a	BEACH	Landscapes	10	9	[0, 0, 0]	n/a	catFR1	0	R1013E
1077.561	6.687	1349530	REC_WORD	3.961	n/a	STREAM	n/a	-999	9	[0, 0, 0]	n/a	catFR1	0	R1013E
1084.248	19.365	1356216	REC_WORD	10.648	n/a	CHIMPANZEE	Zoo	12	9	[0, 0, 0]	n/a	catFR1	0	R1013E
1103.613	4.476	1375580	REC_END	n/a	n/a	n/a	n/a	-999	9	[0, 0, 0]	n/a	catFR1	0	R1013E
1108.089	0.0	1380056	COUNTDOWN_START	n/a	n/a	n/a	n/a	-999	10	[0, 0, 0]	n/a	catFR1	0	R1013E
1108.089	10.428	1380056	TRIAL	n/a	n/a	n/a	n/a	-999	10	[0, 0, 0]	n/a	catFR1	0	R1013E
1118.517	0.007	1390483	COUNTDOWN_END	n/a	n/a	n/a	n/a	-999	10	[0, 0, 0]	n/a	catFR1	0	R1013E
1118.524	3.684	1390490	ORIENT	n/a	n/a	n/a	n/a	-999	10	[0, 0, 0]	n/a	catFR1	0	R1013E
1122.208	2.5	1394174	WORD	n/a	wordpools/wordpool_categorized_EN.txt	VIOLET	Flowers	1	10	[0, 0, 0]	n/a	catFR1	0	R1013E
1124.708	2.583	1396673	WORD	n/a	wordpools/wordpool_categorized_EN.txt	SUNFLOWER	Flowers	2	10	[0, 0, 0]	n/a	catFR1	0	R1013E
1127.291	2.418	1399256	WORD	n/a	wordpools/wordpool_categorized_EN.txt	HEN	FarmAnimals	3	10	[0, 0, 0]	n/a	catFR1	0	R1013E
1129.709	2.401	1401674	WORD	n/a	wordpools/wordpool_categorized_EN.txt	CALF	FarmAnimals	4	10	[0, 0, 0]	n/a	catFR1	0	R1013E
1132.11	2.5	1404075	WORD	n/a	wordpools/wordpool_categorized_EN.txt	SHRIMP	OceanAnimals	5	10	[0, 0, 0]	n/a	catFR1	0	R1013E
1134.61	2.451	1406575	WORD	n/a	wordpools/wordpool_categorized_EN.txt	FISH	OceanAnimals	6	10	[0, 0, 0]	n/a	catFR1	0	R1013E
1137.061	2.417	1409026	WORD	n/a	wordpools/wordpool_categorized_EN.txt	ORCHID	Flowers	7	10	[0, 0, 0]	n/a	catFR1	0	R1013E
1139.478	2.467	1411442	WORD	n/a	wordpools/wordpool_categorized_EN.txt	ROSE	Flowers	8	10	[0, 0, 0]	n/a	catFR1	0	R1013E
1141.945	2.466	1413909	WORD	n/a	wordpools/wordpool_categorized_EN.txt	OCTOPUS	OceanAnimals	9	10	[0, 0, 0]	n/a	catFR1	0	R1013E
1144.411	2.551	1416375	WORD	n/a	wordpools/wordpool_categorized_EN.txt	CRAB	OceanAnimals	10	10	[0, 0, 0]	n/a	catFR1	0	R1013E
1146.962	2.383	1418926	WORD	n/a	wordpools/wordpool_categorized_EN.txt	SHEEP	FarmAnimals	11	10	[0, 0, 0]	n/a	catFR1	0	R1013E
1149.345	1.601	1421309	WORD	n/a	wordpools/wordpool_categorized_EN.txt	COW	FarmAnimals	12	10	[0, 0, 0]	n/a	catFR1	0	R1013E
1150.946	0.001	1422910	DISTRACT_START	n/a	n/a	n/a	n/a	-999	10	[0, 0, 0]	n/a	catFR1	0	R1013E
1150.947	0.016	1422911	START	n/a	n/a	n/a	n/a	-999	10	[-999, -999, -999]	n/a	catFR1	0	R1013E
1150.963	2.817	1422927	PROB	2.797	n/a	n/a	n/a	-999	10	[7, 3, 7]	13.0	catFR1	0	R1013E
1153.78	5.901	1425743	PROB	5.868	n/a	n/a	n/a	-999	10	[8, 5, 2]	15.0	catFR1	0	R1013E
1159.681	2.683	1431644	PROB	2.654	n/a	n/a	n/a	-999	10	[1, 2, 9]	12.0	catFR1	0	R1013E
1162.364	4.685	1434327	PROB	4.652	n/a	n/a	n/a	-999	10	[1, 9, 7]	17.0	catFR1	0	R1013E
1167.049	5.388	1439012	PROB	5.388	n/a	n/a	n/a	-999	10	[9, 7, 2]	18.0	catFR1	0	R1013E
1172.437	0.013	1444399	STOP	n/a	n/a	n/a	n/a	-999	10	[-999, -999, -999]	n/a	catFR1	0	R1013E
1172.45	1.217	1444412	DISTRACT_END	n/a	n/a	n/a	n/a	-999	10	[0, 0, 0]	n/a	catFR1	0	R1013E
1173.667	2.434	1445629	REC_START	n/a	n/a	n/a	n/a	-999	10	[0, 0, 0]	n/a	catFR1	0	R1013E
1176.101	0.566	1448063	REC_WORD	2.434	n/a	ORCHID	Flowers	7	10	[0, 0, 0]	n/a	catFR1	0	R1013E
1176.667	3.456	1448629	REC_WORD	3.0	n/a	ROSE	Flowers	8	10	[0, 0, 0]	n/a	catFR1	0	R1013E
1180.123	23.56	1452085	REC_WORD	6.456	n/a	SUNFLOWER	Flowers	2	10	[0, 0, 0]	n/a	catFR1	0	R1013E
1203.683	5.739	1475643	REC_END	n/a	n/a	n/a	n/a	-999	10	[0, 0, 0]	n/a	catFR1	0	R1013E
1209.422	0.0	1481382	TRIAL	n/a	n/a	n/a	n/a	-999	11	[0, 0, 0]	n/a	catFR1	0	R1013E
1209.422	10.428	1481382	COUNTDOWN_START	n/a	n/a	n/a	n/a	-999	11	[0, 0, 0]	n/a	catFR1	0	R1013E
1219.85	0.008	1491809	COUNTDOWN_END	n/a	n/a	n/a	n/a	-999	11	[0, 0, 0]	n/a	catFR1	0	R1013E
1219.858	3.684	1491817	ORIENT	n/a	n/a	n/a	n/a	-999	11	[0, 0, 0]	n/a	catFR1	0	R1013E
1223.542	2.468	1495501	WORD	n/a	wordpools/wordpool_categorized_EN.txt	POTATO	Vegetables	1	11	[0, 0, 0]	n/a	catFR1	0	R1013E
1226.01	2.583	1497969	WORD	n/a	wordpools/wordpool_categorized_EN.txt	CUCUMBER	Vegetables	2	11	[0, 0, 0]	n/a	catFR1	0	R1013E
1228.593	2.384	1500551	WORD	n/a	wordpools/wordpool_categorized_EN.txt	CABINET	Furniture	3	11	[0, 0, 0]	n/a	catFR1	0	R1013E
1230.977	2.383	1502935	WORD	n/a	wordpools/wordpool_categorized_EN.txt	CHAIR	Furniture	4	11	[0, 0, 0]	n/a	catFR1	0	R1013E
1233.36	2.535	1505318	WORD	n/a	wordpools/wordpool_categorized_EN.txt	DRYER	Appliances	5	11	[0, 0, 0]	n/a	catFR1	0	R1013E
1235.895	2.499	1507853	WORD	n/a	wordpools/wordpool_categorized_EN.txt	MIXER	Appliances	6	11	[0, 0, 0]	n/a	catFR1	0	R1013E
1238.394	2.368	1510352	WORD	n/a	wordpools/wordpool_categorized_EN.txt	ONION	Vegetables	7	11	[0, 0, 0]	n/a	catFR1	0	R1013E
1240.762	2.549	1512720	WORD	n/a	wordpools/wordpool_categorized_EN.txt	CARROT	Vegetables	8	11	[0, 0, 0]	n/a	catFR1	0	R1013E
1243.311	2.569	1515268	WORD	n/a	wordpools/wordpool_categorized_EN.txt	VACUUM	Appliances	9	11	[0, 0, 0]	n/a	catFR1	0	R1013E
1245.88	2.399	1517837	WORD	n/a	wordpools/wordpool_categorized_EN.txt	OVEN	Appliances	10	11	[0, 0, 0]	n/a	catFR1	0	R1013E
1248.279	2.551	1520236	WORD	n/a	wordpools/wordpool_categorized_EN.txt	COUCH	Furniture	11	11	[0, 0, 0]	n/a	catFR1	0	R1013E
1250.83	1.617	1522787	WORD	n/a	wordpools/wordpool_categorized_EN.txt	BED	Furniture	12	11	[0, 0, 0]	n/a	catFR1	0	R1013E
1252.447	0.001	1524404	DISTRACT_START	n/a	n/a	n/a	n/a	-999	11	[0, 0, 0]	n/a	catFR1	0	R1013E
1252.448	0.016	1524405	START	n/a	n/a	n/a	n/a	-999	11	[-999, -999, -999]	n/a	catFR1	0	R1013E
1252.464	4.368	1524421	PROB	4.338	n/a	n/a	n/a	-999	11	[3, 7, 5]	15.0	catFR1	0	R1013E
1256.832	3.433	1528789	PROB	3.411	n/a	n/a	n/a	-999	11	[1, 1, 7]	9.0	catFR1	0	R1013E
1260.265	2.768	1532221	PROB	2.738	n/a	n/a	n/a	-999	11	[7, 2, 2]	11.0	catFR1	0	R1013E
1263.033	4.634	1534989	PROB	4.602	n/a	n/a	n/a	-999	11	[9, 5, 4]	18.0	catFR1	0	R1013E
1267.667	10.233	1539623	PROB	10.233	n/a	n/a	n/a	-999	11	[9, 2, 8]	19.0	catFR1	0	R1013E
1277.9	0.019	1549855	STOP	n/a	n/a	n/a	n/a	-999	11	[-999, -999, -999]	n/a	catFR1	0	R1013E
1277.919	1.05	1549874	DISTRACT_END	n/a	n/a	n/a	n/a	-999	11	[0, 0, 0]	n/a	catFR1	0	R1013E
1278.969	30.0	1550924	REC_START	n/a	n/a	n/a	n/a	-999	11	[0, 0, 0]	n/a	catFR1	0	R1013E
1308.969	0.012	1580922	REC_WORD_VV	30.0	n/a	<>	n/a	-999	11	[0, 0, 0]	n/a	catFR1	0	R1013E
1308.981	3.194	1580934	REC_END	n/a	n/a	n/a	n/a	-999	11	[0, 0, 0]	n/a	catFR1	0	R1013E
1312.175	0.0	1584128	TRIAL	n/a	n/a	n/a	n/a	-999	12	[0, 0, 0]	n/a	catFR1	0	R1013E
1312.175	10.428	1584128	COUNTDOWN_START	n/a	n/a	n/a	n/a	-999	12	[0, 0, 0]	n/a	catFR1	0	R1013E
1322.603	0.007	1594555	COUNTDOWN_END	n/a	n/a	n/a	n/a	-999	12	[0, 0, 0]	n/a	catFR1	0	R1013E
1322.61	3.749	1594562	ORIENT	n/a	n/a	n/a	n/a	-999	12	[0, 0, 0]	n/a	catFR1	0	R1013E
1326.359	2.435	1598311	WORD	n/a	wordpools/wordpool_categorized_EN.txt	ATTIC	Building	1	12	[0, 0, 0]	n/a	catFR1	0	R1013E
1328.794	2.45	1600746	WORD	n/a	wordpools/wordpool_categorized_EN.txt	DOOR	Building	2	12	[0, 0, 0]	n/a	catFR1	0	R1013E
1331.244	2.401	1603195	WORD	n/a	wordpools/wordpool_categorized_EN.txt	PLANKTON	OceanAnimals	3	12	[0, 0, 0]	n/a	catFR1	0	R1013E
1333.645	2.434	1605596	WORD	n/a	wordpools/wordpool_categorized_EN.txt	SQUID	OceanAnimals	4	12	[0, 0, 0]	n/a	catFR1	0	R1013E
1336.079	2.634	1608030	WORD	n/a	wordpools/wordpool_categorized_EN.txt	LAKE	Landscapes	5	12	[0, 0, 0]	n/a	catFR1	0	R1013E
1338.713	2.566	1610664	WORD	n/a	wordpools/wordpool_categorized_EN.txt	OCEAN	Landscapes	6	12	[0, 0, 0]	n/a	catFR1	0	R1013E
1341.279	2.501	1613230	WORD	n/a	wordpools/wordpool_categorized_EN.txt	TURTLE	OceanAnimals	7	12	[0, 0, 0]	n/a	catFR1	0	R1013E
1343.78	2.451	1615731	WORD	n/a	wordpools/wordpool_categorized_EN.txt	JELLYFISH	OceanAnimals	8	12	[0, 0, 0]	n/a	catFR1	0	R1013E
1346.231	2.6	1618181	WORD	n/a	wordpools/wordpool_categorized_EN.txt	FOUNDATION	Building	9	12	[0, 0, 0]	n/a	catFR1	0	R1013E
1348.831	2.516	1620781	WORD	n/a	wordpools/wordpool_categorized_EN.txt	HALLWAY	Building	10	12	[0, 0, 0]	n/a	catFR1	0	R1013E
1351.347	2.602	1623297	WORD	n/a	wordpools/wordpool_categorized_EN.txt	ISLAND	Landscapes	11	12	[0, 0, 0]	n/a	catFR1	0	R1013E
1353.949	1.617	1625899	WORD	n/a	wordpools/wordpool_categorized_EN.txt	VALLEY	Landscapes	12	12	[0, 0, 0]	n/a	catFR1	0	R1013E
1355.566	0.0	1627516	DISTRACT_START	n/a	n/a	n/a	n/a	-999	12	[0, 0, 0]	n/a	catFR1	0	R1013E
1355.566	0.016	1627516	START	n/a	n/a	n/a	n/a	-999	12	[-999, -999, -999]	n/a	catFR1	0	R1013E
1355.582	3.651	1627532	PROB	3.62	n/a	n/a	n/a	-999	12	[1, 1, 2]	4.0	catFR1	0	R1013E
1359.233	4.0	1631183	PROB	3.97	n/a	n/a	n/a	-999	12	[5, 3, 6]	14.0	catFR1	0	R1013E
1363.233	3.1	1635182	PROB	3.072	n/a	n/a	n/a	-999	12	[6, 7, 4]	18.0	catFR1	0	R1013E
1366.333	4.402	1638282	PROB	4.381	n/a	n/a	n/a	-999	12	[2, 8, 5]	15.0	catFR1	0	R1013E
1370.735	5.183	1642684	PROB	5.183	n/a	n/a	n/a	-999	12	[5, 8, 9]	22.0	catFR1	0	R1013E
1375.918	0.018	1647866	STOP	n/a	n/a	n/a	n/a	-999	12	[-999, -999, -999]	n/a	catFR1	0	R1013E
1375.936	1.217	1647884	DISTRACT_END	n/a	n/a	n/a	n/a	-999	12	[0, 0, 0]	n/a	catFR1	0	R1013E
1377.153	15.082	1649101	REC_START	n/a	n/a	n/a	n/a	-999	12	[0, 0, 0]	n/a	catFR1	0	R1013E
1392.235	0.561	1664182	REC_WORD	15.082	n/a	OCEAN	Landscapes	6	12	[0, 0, 0]	n/a	catFR1	0	R1013E
1392.796	14.37	1664743	REC_WORD	15.643	n/a	SQUID	OceanAnimals	4	12	[0, 0, 0]	n/a	catFR1	0	R1013E
1407.166	10.827	1679112	REC_END	n/a	n/a	n/a	n/a	-999	12	[0, 0, 0]	n/a	catFR1	0	R1013E
1417.993	0.0	1689939	TRIAL	n/a	n/a	n/a	n/a	-999	13	[0, 0, 0]	n/a	catFR1	0	R1013E
1417.993	10.428	1689939	COUNTDOWN_START	n/a	n/a	n/a	n/a	-999	13	[0, 0, 0]	n/a	catFR1	0	R1013E
1428.421	0.006	1700366	COUNTDOWN_END	n/a	n/a	n/a	n/a	-999	13	[0, 0, 0]	n/a	catFR1	0	R1013E
1428.427	3.635	1700372	ORIENT	n/a	n/a	n/a	n/a	-999	13	[0, 0, 0]	n/a	catFR1	0	R1013E
1432.062	2.601	1704007	WORD	n/a	wordpools/wordpool_categorized_EN.txt	ELBOW	BodyParts	1	13	[0, 0, 0]	n/a	catFR1	0	R1013E
1434.663	2.6	1706607	WORD	n/a	wordpools/wordpool_categorized_EN.txt	ARM	BodyParts	2	13	[0, 0, 0]	n/a	catFR1	0	R1013E
1437.263	2.434	1709207	WORD	n/a	wordpools/wordpool_categorized_EN.txt	CRICKET	Insects	3	13	[0, 0, 0]	n/a	catFR1	0	R1013E
1439.697	2.616	1711641	WORD	n/a	wordpools/wordpool_categorized_EN.txt	GNAT	Insects	4	13	[0, 0, 0]	n/a	catFR1	0	R1013E
1442.313	2.368	1714257	WORD	n/a	wordpools/wordpool_categorized_EN.txt	LEMON	Fruit	5	13	[0, 0, 0]	n/a	catFR1	0	R1013E
1444.681	2.616	1716625	WORD	n/a	wordpools/wordpool_categorized_EN.txt	PEACH	Fruit	6	13	[0, 0, 0]	n/a	catFR1	0	R1013E
1447.297	2.602	1719241	WORD	n/a	wordpools/wordpool_categorized_EN.txt	FINGERS	BodyParts	7	13	[0, 0, 0]	n/a	catFR1	0	R1013E
1449.899	2.416	1721842	WORD	n/a	wordpools/wordpool_categorized_EN.txt	TOE	BodyParts	8	13	[0, 0, 0]	n/a	catFR1	0	R1013E
1452.315	2.418	1724258	WORD	n/a	wordpools/wordpool_categorized_EN.txt	LIME	Fruit	9	13	[0, 0, 0]	n/a	catFR1	0	R1013E
1454.733	2.566	1726676	WORD	n/a	wordpools/wordpool_categorized_EN.txt	PLUM	Fruit	10	13	[0, 0, 0]	n/a	catFR1	0	R1013E
1457.299	2.601	1729242	WORD	n/a	wordpools/wordpool_categorized_EN.txt	SPIDER	Insects	11	13	[0, 0, 0]	n/a	catFR1	0	R1013E
1459.9	1.617	1731843	WORD	n/a	wordpools/wordpool_categorized_EN.txt	BUTTERFLY	Insects	12	13	[0, 0, 0]	n/a	catFR1	0	R1013E
1461.517	0.001	1733460	DISTRACT_START	n/a	n/a	n/a	n/a	-999	13	[0, 0, 0]	n/a	catFR1	0	R1013E
1461.518	0.016	1733461	START	n/a	n/a	n/a	n/a	-999	13	[-999, -999, -999]	n/a	catFR1	0	R1013E
1461.534	3.701	1733477	PROB	3.673	n/a	n/a	n/a	-999	13	[2, 7, 7]	16.0	catFR1	0	R1013E
1465.235	2.883	1737177	PROB	2.852	n/a	n/a	n/a	-999	13	[4, 9, 4]	17.0	catFR1	0	R1013E
1468.118	2.167	1740060	PROB	2.146	n/a	n/a	n/a	-999	13	[2, 8, 2]	12.0	catFR1	0	R1013E
1470.285	3.818	1742227	PROB	3.795	n/a	n/a	n/a	-999	13	[3, 8, 9]	20.0	catFR1	0	R1013E
1474.103	2.8	1746045	PROB	2.777	n/a	n/a	n/a	-999	13	[1, 6, 2]	9.0	catFR1	0	R1013E
1476.903	3.734	1748845	PROB	3.705	n/a	n/a	n/a	-999	13	[6, 6, 2]	14.0	catFR1	0	R1013E
1480.637	3.139	1752578	PROB	3.139	n/a	n/a	n/a	-999	13	[2, 7, 2]	11.0	catFR1	0	R1013E
1483.776	0.012	1755717	STOP	n/a	n/a	n/a	n/a	-999	13	[-999, -999, -999]	n/a	catFR1	0	R1013E
1483.788	1.138	1755729	DISTRACT_END	n/a	n/a	n/a	n/a	-999	13	[0, 0, 0]	n/a	catFR1	0	R1013E
1484.926	3.547	1756867	REC_START	n/a	n/a	n/a	n/a	-999	13	[0, 0, 0]	n/a	catFR1	0	R1013E
1488.473	0.436	1760414	REC_WORD	3.547	n/a	ARM	BodyParts	2	13	[0, 0, 0]	n/a	catFR1	0	R1013E
1488.909	1.844	1760850	REC_WORD	3.983	n/a	FINGERS	BodyParts	7	13	[0, 0, 0]	n/a	catFR1	0	R1013E
1490.753	16.645	1762694	REC_WORD	5.827	n/a	ELBOW	BodyParts	1	13	[0, 0, 0]	n/a	catFR1	0	R1013E
1507.398	5.929	1779338	REC_WORD	22.472	n/a	ATTIC	n/a	-999	13	[0, 0, 0]	n/a	catFR1	0	R1013E
1513.327	1.607	1785266	REC_WORD	28.401	n/a	DOOR	n/a	-999	13	[0, 0, 0]	n/a	catFR1	0	R1013E
1514.934	7.227	1786873	REC_END	n/a	n/a	n/a	n/a	-999	13	[0, 0, 0]	n/a	catFR1	0	R1013E
1522.161	0.0	1794100	TRIAL	n/a	n/a	n/a	n/a	-999	14	[0, 0, 0]	n/a	catFR1	0	R1013E
1522.161	10.428	1794100	COUNTDOWN_START	n/a	n/a	n/a	n/a	-999	14	[0, 0, 0]	n/a	catFR1	0	R1013E
1532.589	0.007	1804527	COUNTDOWN_END	n/a	n/a	n/a	n/a	-999	14	[0, 0, 0]	n/a	catFR1	0	R1013E
1532.596	3.484	1804534	ORIENT	n/a	n/a	n/a	n/a	-999	14	[0, 0, 0]	n/a	catFR1	0	R1013E
1536.08	2.384	1808018	WORD	n/a	wordpools/wordpool_categorized_EN.txt	DUCK	Birds	1	14	[0, 0, 0]	n/a	catFR1	0	R1013E
1538.464	2.467	1810401	WORD	n/a	wordpools/wordpool_categorized_EN.txt	ROBIN	Birds	2	14	[0, 0, 0]	n/a	catFR1	0	R1013E
1540.931	2.601	1812868	WORD	n/a	wordpools/wordpool_categorized_EN.txt	DISHWASHER	Appliances	3	14	[0, 0, 0]	n/a	catFR1	0	R1013E
1543.532	2.4	1815469	WORD	n/a	wordpools/wordpool_categorized_EN.txt	IRON	Appliances	4	14	[0, 0, 0]	n/a	catFR1	0	R1013E
1545.932	2.4	1817869	WORD	n/a	wordpools/wordpool_categorized_EN.txt	BASS	Instruments	5	14	[0, 0, 0]	n/a	catFR1	0	R1013E
1548.332	2.518	1820269	WORD	n/a	wordpools/wordpool_categorized_EN.txt	ORGAN	Instruments	6	14	[0, 0, 0]	n/a	catFR1	0	R1013E
1550.85	2.566	1822787	WORD	n/a	wordpools/wordpool_categorized_EN.txt	DOVE	Birds	7	14	[0, 0, 0]	n/a	catFR1	0	R1013E
1553.416	2.551	1825352	WORD	n/a	wordpools/wordpool_categorized_EN.txt	CROW	Birds	8	14	[0, 0, 0]	n/a	catFR1	0	R1013E
1555.967	2.383	1827903	WORD	n/a	wordpools/wordpool_categorized_EN.txt	PIANO	Instruments	9	14	[0, 0, 0]	n/a	catFR1	0	R1013E
1558.35	2.385	1830286	WORD	n/a	wordpools/wordpool_categorized_EN.txt	TUBA	Instruments	10	14	[0, 0, 0]	n/a	catFR1	0	R1013E
1560.735	2.533	1832671	WORD	n/a	wordpools/wordpool_categorized_EN.txt	STOVE	Appliances	11	14	[0, 0, 0]	n/a	catFR1	0	R1013E
1563.268	1.617	1835204	WORD	n/a	wordpools/wordpool_categorized_EN.txt	BLENDER	Appliances	12	14	[0, 0, 0]	n/a	catFR1	0	R1013E
1564.885	0.001	1836821	DISTRACT_START	n/a	n/a	n/a	n/a	-999	14	[0, 0, 0]	n/a	catFR1	0	R1013E
1564.886	0.016	1836822	START	n/a	n/a	n/a	n/a	-999	14	[-999, -999, -999]	n/a	catFR1	0	R1013E
1564.902	3.017	1836838	PROB	2.983	n/a	n/a	n/a	-999	14	[1, 6, 6]	13.0	catFR1	0	R1013E
1567.919	5.735	1839854	PROB	5.702	n/a	n/a	n/a	-999	14	[6, 8, 8]	18.0	catFR1	0	R1013E
1573.654	5.484	1845589	PROB	5.452	n/a	n/a	n/a	-999	14	[7, 2, 4]	13.0	catFR1	0	R1013E
1579.138	4.317	1851073	PROB	4.295	n/a	n/a	n/a	-999	14	[3, 9, 7]	19.0	catFR1	0	R1013E
1583.455	5.786	1855389	PROB	5.786	n/a	n/a	n/a	-999	14	[6, 4, 9]	19.0	catFR1	0	R1013E
1589.241	0.015	1861175	STOP	n/a	n/a	n/a	n/a	-999	14	[-999, -999, -999]	n/a	catFR1	0	R1013E
1589.256	1.05	1861190	DISTRACT_END	n/a	n/a	n/a	n/a	-999	14	[0, 0, 0]	n/a	catFR1	0	R1013E
1590.306	30.0	1862240	REC_START	n/a	n/a	n/a	n/a	-999	14	[0, 0, 0]	n/a	catFR1	0	R1013E
1620.306	0.013	1892238	REC_WORD_VV	30.0	n/a	<>	n/a	-999	14	[0, 0, 0]	n/a	catFR1	0	R1013E
1620.319	6.494	1892251	REC_END	n/a	n/a	n/a	n/a	-999	14	[0, 0, 0]	n/a	catFR1	0	R1013E
1626.813	0.0	1898745	TRIAL	n/a	n/a	n/a	n/a	-999	15	[0, 0, 0]	n/a	catFR1	0	R1013E
1626.813	10.428	1898745	COUNTDOWN_START	n/a	n/a	n/a	n/a	-999	15	[0, 0, 0]	n/a	catFR1	0	R1013E
1637.241	0.007	1909172	COUNTDOWN_END	n/a	n/a	n/a	n/a	-999	15	[0, 0, 0]	n/a	catFR1	0	R1013E
1637.248	3.634	1909179	ORIENT	n/a	n/a	n/a	n/a	-999	15	[0, 0, 0]	n/a	catFR1	0	R1013E
1640.882	2.384	1912813	WORD	n/a	wordpools/wordpool_categorized_EN.txt	SCANNER	Electronics	1	15	[0, 0, 0]	n/a	catFR1	0	R1013E
1643.266	2.567	1915196	WORD	n/a	wordpools/wordpool_categorized_EN.txt	PHONE	Electronics	2	15	[0, 0, 0]	n/a	catFR1	0	R1013E
1645.833	2.449	1917763	WORD	n/a	wordpools/wordpool_categorized_EN.txt	GOOSE	Birds	3	15	[0, 0, 0]	n/a	catFR1	0	R1013E
1648.282	2.469	1920212	WORD	n/a	wordpools/wordpool_categorized_EN.txt	HAWK	Birds	4	15	[0, 0, 0]	n/a	catFR1	0	R1013E
1650.751	2.549	1922681	WORD	n/a	wordpools/wordpool_categorized_EN.txt	COFFEE	Beverages	5	15	[0, 0, 0]	n/a	catFR1	0	R1013E
1653.3	2.568	1925230	WORD	n/a	wordpools/wordpool_categorized_EN.txt	SODA	Beverages	6	15	[0, 0, 0]	n/a	catFR1	0	R1013E
1655.868	2.566	1927798	WORD	n/a	wordpools/wordpool_categorized_EN.txt	TABLET	Electronics	7	15	[0, 0, 0]	n/a	catFR1	0	R1013E
1658.434	2.568	1930363	WORD	n/a	wordpools/wordpool_categorized_EN.txt	RADIO	Electronics	8	15	[0, 0, 0]	n/a	catFR1	0	R1013E
1661.002	2.467	1932931	WORD	n/a	wordpools/wordpool_categorized_EN.txt	WATER	Beverages	9	15	[0, 0, 0]	n/a	catFR1	0	R1013E
1663.469	2.401	1935398	WORD	n/a	wordpools/wordpool_categorized_EN.txt	JUICE	Beverages	10	15	[0, 0, 0]	n/a	catFR1	0	R1013E
1665.87	2.399	1937799	WORD	n/a	wordpools/wordpool_categorized_EN.txt	BLUEBIRD	Birds	11	15	[0, 0, 0]	n/a	catFR1	0	R1013E
1668.269	1.601	1940198	WORD	n/a	wordpools/wordpool_categorized_EN.txt	PIGEON	Birds	12	15	[0, 0, 0]	n/a	catFR1	0	R1013E
1669.87	0.001	1941799	DISTRACT_START	n/a	n/a	n/a	n/a	-999	15	[0, 0, 0]	n/a	catFR1	0	R1013E
1669.871	0.016	1941800	START	n/a	n/a	n/a	n/a	-999	15	[-999, -999, -999]	n/a	catFR1	0	R1013E
1669.887	5.684	1941816	PROB	5.657	n/a	n/a	n/a	-999	15	[7, 3, 8]	18.0	catFR1	0	R1013E
1675.571	3.468	1947499	PROB	3.437	n/a	n/a	n/a	-999	15	[7, 4, 9]	20.0	catFR1	0	R1013E
1679.039	5.35	1950967	PROB	5.319	n/a	n/a	n/a	-999	15	[8, 2, 4]	14.0	catFR1	0	R1013E
1684.389	2.751	1956317	PROB	2.73	n/a	n/a	n/a	-999	15	[9, 4, 1]	14.0	catFR1	0	R1013E
1687.14	4.555	1959067	PROB	4.555	n/a	n/a	n/a	-999	15	[7, 9, 2]	18.0	catFR1	0	R1013E
1691.695	0.013	1963622	STOP	n/a	n/a	n/a	n/a	-999	15	[-999, -999, -999]	n/a	catFR1	0	R1013E
1691.708	1.05	1963635	DISTRACT_END	n/a	n/a	n/a	n/a	-999	15	[0, 0, 0]	n/a	catFR1	0	R1013E
1692.758	5.839	1964685	REC_START	n/a	n/a	n/a	n/a	-999	15	[0, 0, 0]	n/a	catFR1	0	R1013E
1698.597	0.474	1970524	REC_WORD	5.839	n/a	COFFEE	Beverages	5	15	[0, 0, 0]	n/a	catFR1	0	R1013E
1699.071	0.454	1970998	REC_WORD	6.313	n/a	WATER	Beverages	9	15	[0, 0, 0]	n/a	catFR1	0	R1013E
1699.525	23.25	1971452	REC_WORD	6.767	n/a	JUICE	Beverages	10	15	[0, 0, 0]	n/a	catFR1	0	R1013E
1722.775	4.638	1994700	REC_END	n/a	n/a	n/a	n/a	-999	15	[0, 0, 0]	n/a	catFR1	0	R1013E
1727.413	0.0	1999338	COUNTDOWN_START	n/a	n/a	n/a	n/a	-999	16	[0, 0, 0]	n/a	catFR1	0	R1013E
1727.413	10.428	1999338	TRIAL	n/a	n/a	n/a	n/a	-999	16	[0, 0, 0]	n/a	catFR1	0	R1013E
1737.841	0.008	2009765	COUNTDOWN_END	n/a	n/a	n/a	n/a	-999	16	[0, 0, 0]	n/a	catFR1	0	R1013E
1737.849	3.483	2009773	ORIENT	n/a	n/a	n/a	n/a	-999	16	[0, 0, 0]	n/a	catFR1	0	R1013E
1741.332	2.451	2013256	WORD	n/a	wordpools/wordpool_categorized_EN.txt	SHOVEL	Tools	1	16	[0, 0, 0]	n/a	catFR1	0	R1013E
1743.783	2.384	2015707	WORD	n/a	wordpools/wordpool_categorized_EN.txt	RATCHET	Tools	2	16	[0, 0, 0]	n/a	catFR1	0	R1013E
1746.167	2.451	2018090	WORD	n/a	wordpools/wordpool_categorized_EN.txt	BEER	Beverages	3	16	[0, 0, 0]	n/a	catFR1	0	R1013E
1748.618	2.566	2020541	WORD	n/a	wordpools/wordpool_categorized_EN.txt	CIDER	Beverages	4	16	[0, 0, 0]	n/a	catFR1	0	R1013E
1751.184	2.401	2023107	WORD	n/a	wordpools/wordpool_categorized_EN.txt	BOAT	Vehicles	5	16	[0, 0, 0]	n/a	catFR1	0	R1013E
1753.585	2.517	2025508	WORD	n/a	wordpools/wordpool_categorized_EN.txt	BIKE	Vehicles	6	16	[0, 0, 0]	n/a	catFR1	0	R1013E
1756.102	2.517	2028025	WORD	n/a	wordpools/wordpool_categorized_EN.txt	HAMMER	Tools	7	16	[0, 0, 0]	n/a	catFR1	0	R1013E
1758.619	2.601	2030542	WORD	n/a	wordpools/wordpool_categorized_EN.txt	WRENCH	Tools	8	16	[0, 0, 0]	n/a	catFR1	0	R1013E
1761.22	2.467	2033142	WORD	n/a	wordpools/wordpool_categorized_EN.txt	JEEP	Vehicles	9	16	[0, 0, 0]	n/a	catFR1	0	R1013E
1763.687	2.467	2035609	WORD	n/a	wordpools/wordpool_categorized_EN.txt	MOTORCYCLE	Vehicles	10	16	[0, 0, 0]	n/a	catFR1	0	R1013E
1766.154	2.384	2038076	WORD	n/a	wordpools/wordpool_categorized_EN.txt	WINE	Beverages	11	16	[0, 0, 0]	n/a	catFR1	0	R1013E
1768.538	1.617	2040460	WORD	n/a	wordpools/wordpool_categorized_EN.txt	COLA	Beverages	12	16	[0, 0, 0]	n/a	catFR1	0	R1013E
1770.155	0.0	2042077	DISTRACT_START	n/a	n/a	n/a	n/a	-999	16	[0, 0, 0]	n/a	catFR1	0	R1013E
1770.155	0.016	2042077	START	n/a	n/a	n/a	n/a	-999	16	[-999, -999, -999]	n/a	catFR1	0	R1013E
1770.171	2.718	2042093	PROB	2.691	n/a	n/a	n/a	-999	16	[9, 1, 2]	12.0	catFR1	0	R1013E
1772.889	3.767	2044811	PROB	3.733	n/a	n/a	n/a	-999	16	[2, 3, 4]	9.0	catFR1	0	R1013E
1776.656	3.834	2048577	PROB	3.808	n/a	n/a	n/a	-999	16	[6, 1, 1]	8.0	catFR1	0	R1013E
1780.49	3.467	2052411	PROB	3.446	n/a	n/a	n/a	-999	16	[5, 6, 5]	16.0	catFR1	0	R1013E
1783.957	5.218	2055878	PROB	5.187	n/a	n/a	n/a	-999	16	[6, 2, 9]	17.0	catFR1	0	R1013E
1789.175	4.593	2061096	PROB	4.593	n/a	n/a	n/a	-999	16	[9, 5, 3]	17.0	catFR1	0	R1013E
1793.768	0.007	2065688	STOP	n/a	n/a	n/a	n/a	-999	16	[-999, -999, -999]	n/a	catFR1	0	R1013E
1793.775	1.106	2065695	DISTRACT_END	n/a	n/a	n/a	n/a	-999	16	[0, 0, 0]	n/a	catFR1	0	R1013E
1794.881	1.585	2066801	REC_START	n/a	n/a	n/a	n/a	-999	16	[0, 0, 0]	n/a	catFR1	0	R1013E
1796.466	0.343	2068386	REC_WORD	1.585	n/a	BEER	Beverages	3	16	[0, 0, 0]	n/a	catFR1	0	R1013E
1796.809	11.757	2068729	REC_WORD	1.928	n/a	CIDER	Beverages	4	16	[0, 0, 0]	n/a	catFR1	0	R1013E
1808.566	0.722	2080485	REC_WORD	13.685	n/a	HAMMER	Tools	7	16	[0, 0, 0]	n/a	catFR1	0	R1013E
1809.288	7.636	2081207	REC_WORD	14.407	n/a	RATCHET	Tools	2	16	[0, 0, 0]	n/a	catFR1	0	R1013E
1816.924	7.965	2088843	REC_WORD	22.043	n/a	SHOVEL	Tools	1	16	[0, 0, 0]	n/a	catFR1	0	R1013E
1824.889	6.409	2096807	REC_END	n/a	n/a	n/a	n/a	-999	16	[0, 0, 0]	n/a	catFR1	0	R1013E
1831.298	0.0	2103216	TRIAL	n/a	n/a	n/a	n/a	-999	17	[0, 0, 0]	n/a	catFR1	0	R1013E
1831.298	10.428	2103216	COUNTDOWN_START	n/a	n/a	n/a	n/a	-999	17	[0, 0, 0]	n/a	catFR1	0	R1013E
1841.726	0.008	2113643	COUNTDOWN_END	n/a	n/a	n/a	n/a	-999	17	[0, 0, 0]	n/a	catFR1	0	R1013E
1841.734	3.917	2113651	ORIENT	n/a	n/a	n/a	n/a	-999	17	[0, 0, 0]	n/a	catFR1	0	R1013E
1845.651	2.567	2117568	WORD	n/a	wordpools/wordpool_categorized_EN.txt	LIGHTNING	Weather	1	17	[0, 0, 0]	n/a	catFR1	0	R1013E
1848.218	2.617	2120135	WORD	n/a	wordpools/wordpool_categorized_EN.txt	HUMIDITY	Weather	2	17	[0, 0, 0]	n/a	catFR1	0	R1013E
1850.835	2.583	2122751	WORD	n/a	wordpools/wordpool_categorized_EN.txt	PEN	OfficeSupplies	3	17	[0, 0, 0]	n/a	catFR1	0	R1013E
1853.418	2.402	2125334	WORD	n/a	wordpools/wordpool_categorized_EN.txt	STAPLER	OfficeSupplies	4	17	[0, 0, 0]	n/a	catFR1	0	R1013E
1855.82	2.617	2127736	WORD	n/a	wordpools/wordpool_categorized_EN.txt	DOLL	Toys	5	17	[0, 0, 0]	n/a	catFR1	0	R1013E
1858.437	2.517	2130353	WORD	n/a	wordpools/wordpool_categorized_EN.txt	BALL	Toys	6	17	[0, 0, 0]	n/a	catFR1	0	R1013E
1860.954	2.433	2132870	WORD	n/a	wordpools/wordpool_categorized_EN.txt	PENCIL	OfficeSupplies	7	17	[0, 0, 0]	n/a	catFR1	0	R1013E
1863.387	2.618	2135303	WORD	n/a	wordpools/wordpool_categorized_EN.txt	MARKER	OfficeSupplies	8	17	[0, 0, 0]	n/a	catFR1	0	R1013E
1866.005	2.517	2137920	WORD	n/a	wordpools/wordpool_categorized_EN.txt	THUNDERSTORM	Weather	9	17	[0, 0, 0]	n/a	catFR1	0	R1013E
1868.522	2.467	2140437	WORD	n/a	wordpools/wordpool_categorized_EN.txt	RAIN	Weather	10	17	[0, 0, 0]	n/a	catFR1	0	R1013E
1870.989	2.551	2142904	WORD	n/a	wordpools/wordpool_categorized_EN.txt	FOOTBALL	Toys	11	17	[0, 0, 0]	n/a	catFR1	0	R1013E
1873.54	1.616	2145455	WORD	n/a	wordpools/wordpool_categorized_EN.txt	PUZZLE	Toys	12	17	[0, 0, 0]	n/a	catFR1	0	R1013E
1875.156	0.001	2147071	DISTRACT_START	n/a	n/a	n/a	n/a	-999	17	[0, 0, 0]	n/a	catFR1	0	R1013E
1875.157	0.016	2147072	START	n/a	n/a	n/a	n/a	-999	17	[-999, -999, -999]	n/a	catFR1	0	R1013E
1875.173	4.518	2147088	PROB	4.495	n/a	n/a	n/a	-999	17	[6, 4, 7]	17.0	catFR1	0	R1013E
1879.691	3.583	2151605	PROB	3.562	n/a	n/a	n/a	-999	17	[7, 4, 2]	13.0	catFR1	0	R1013E
1883.274	5.017	2155188	PROB	4.994	n/a	n/a	n/a	-999	17	[5, 6, 7]	18.0	catFR1	0	R1013E
1888.291	2.885	2160205	PROB	2.857	n/a	n/a	n/a	-999	17	[1, 6, 9]	16.0	catFR1	0	R1013E
1891.176	6.756	2163090	PROB	6.756	n/a	n/a	n/a	-999	17	[6, 9, 2]	17.0	catFR1	0	R1013E
1897.932	0.012	2169845	STOP	n/a	n/a	n/a	n/a	-999	17	[-999, -999, -999]	n/a	catFR1	0	R1013E
1897.944	1.117	2169857	DISTRACT_END	n/a	n/a	n/a	n/a	-999	17	[0, 0, 0]	n/a	catFR1	0	R1013E
1899.061	2.002	2170974	REC_START	n/a	n/a	n/a	n/a	-999	17	[0, 0, 0]	n/a	catFR1	0	R1013E
1901.063	0.76	2172976	REC_WORD	2.002	n/a	DOLL	Toys	5	17	[0, 0, 0]	n/a	catFR1	0	R1013E
1901.823	7.178	2173736	REC_WORD	2.762	n/a	BALL	Toys	6	17	[0, 0, 0]	n/a	catFR1	0	R1013E
1909.001	2.072	2180913	REC_WORD	9.94	n/a	LIGHTNING	Weather	1	17	[0, 0, 0]	n/a	catFR1	0	R1013E
1911.073	1.531	2182985	REC_WORD	12.012	n/a	THUNDERSTORM	Weather	9	17	[0, 0, 0]	n/a	catFR1	0	R1013E
1912.604	16.47	2184516	REC_WORD	13.543	n/a	RAIN	Weather	10	17	[0, 0, 0]	n/a	catFR1	0	R1013E
1929.074	3.909	2200985	REC_END	n/a	n/a	n/a	n/a	-999	17	[0, 0, 0]	n/a	catFR1	0	R1013E
1932.983	0.0	2204894	TRIAL	n/a	n/a	n/a	n/a	-999	18	[0, 0, 0]	n/a	catFR1	0	R1013E
1932.983	10.428	2204894	COUNTDOWN_START	n/a	n/a	n/a	n/a	-999	18	[0, 0, 0]	n/a	catFR1	0	R1013E
1943.411	0.006	2215321	COUNTDOWN_END	n/a	n/a	n/a	n/a	-999	18	[0, 0, 0]	n/a	catFR1	0	R1013E
1943.417	3.769	2215327	ORIENT	n/a	n/a	n/a	n/a	-999	18	[0, 0, 0]	n/a	catFR1	0	R1013E
1947.186	2.6	2219096	WORD	n/a	wordpools/wordpool_categorized_EN.txt	RUM	Beverages	1	18	[0, 0, 0]	n/a	catFR1	0	R1013E
1949.786	2.384	2221696	WORD	n/a	wordpools/wordpool_categorized_EN.txt	LEMONADE	Beverages	2	18	[0, 0, 0]	n/a	catFR1	0	R1013E
1952.17	2.617	2224079	WORD	n/a	wordpools/wordpool_categorized_EN.txt	SLINKY	Toys	3	18	[0, 0, 0]	n/a	catFR1	0	R1013E
1954.787	2.45	2226696	WORD	n/a	wordpools/wordpool_categorized_EN.txt	MARBLES	Toys	4	18	[0, 0, 0]	n/a	catFR1	0	R1013E
1957.237	2.451	2229146	WORD	n/a	wordpools/wordpool_categorized_EN.txt	CUPCAKE	Desserts	5	18	[0, 0, 0]	n/a	catFR1	0	R1013E
1959.688	2.616	2231597	WORD	n/a	wordpools/wordpool_categorized_EN.txt	PUDDING	Desserts	6	18	[0, 0, 0]	n/a	catFR1	0	R1013E
1962.304	2.618	2234213	WORD	n/a	wordpools/wordpool_categorized_EN.txt	MILK	Beverages	7	18	[0, 0, 0]	n/a	catFR1	0	R1013E
1964.922	2.617	2236831	WORD	n/a	wordpools/wordpool_categorized_EN.txt	TEA	Beverages	8	18	[0, 0, 0]	n/a	catFR1	0	R1013E
1967.539	2.417	2239447	WORD	n/a	wordpools/wordpool_categorized_EN.txt	COBBLER	Desserts	9	18	[0, 0, 0]	n/a	catFR1	0	R1013E
1969.956	2.484	2241864	WORD	n/a	wordpools/wordpool_categorized_EN.txt	PIE	Desserts	10	18	[0, 0, 0]	n/a	catFR1	0	R1013E
1972.44	2.467	2244348	WORD	n/a	wordpools/wordpool_categorized_EN.txt	BARBIE	Toys	11	18	[0, 0, 0]	n/a	catFR1	0	R1013E
1974.907	1.617	2246815	WORD	n/a	wordpools/wordpool_categorized_EN.txt	FRISBEE	Toys	12	18	[0, 0, 0]	n/a	catFR1	0	R1013E
1976.524	0.001	2248432	DISTRACT_START	n/a	n/a	n/a	n/a	-999	18	[0, 0, 0]	n/a	catFR1	0	R1013E
1976.525	0.016	2248433	START	n/a	n/a	n/a	n/a	-999	18	[-999, -999, -999]	n/a	catFR1	0	R1013E
1976.541	4.667	2248449	PROB	4.633	n/a	n/a	n/a	-999	18	[2, 1, 7]	10.0	catFR1	0	R1013E
1981.208	2.551	2253116	PROB	2.526	n/a	n/a	n/a	-999	18	[2, 1, 1]	4.0	catFR1	0	R1013E
1983.759	6.067	2255666	PROB	6.035	n/a	n/a	n/a	-999	18	[7, 7, 9]	23.0	catFR1	0	R1013E
1989.826	4.935	2261733	PROB	4.904	n/a	n/a	n/a	-999	18	[5, 7, 4]	16.0	catFR1	0	R1013E
1994.761	4.942	2266668	PROB	4.942	n/a	n/a	n/a	-999	18	[9, 5, 8]	22.0	catFR1	0	R1013E
1999.703	0.009	2271609	STOP	n/a	n/a	n/a	n/a	-999	18	[-999, -999, -999]	n/a	catFR1	0	R1013E
1999.712	1.205	2271618	DISTRACT_END	n/a	n/a	n/a	n/a	-999	18	[0, 0, 0]	n/a	catFR1	0	R1013E
2000.917	1.092	2272823	REC_START	n/a	n/a	n/a	n/a	-999	18	[0, 0, 0]	n/a	catFR1	0	R1013E
2002.009	2.99	2273915	REC_WORD	1.092	n/a	BARBIE	Toys	11	18	[0, 0, 0]	n/a	catFR1	0	R1013E
2004.999	2.965	2276905	REC_WORD	4.082	n/a	MARBLES	Toys	4	18	[0, 0, 0]	n/a	catFR1	0	R1013E
2007.964	19.11	2279870	REC_WORD	7.047	n/a	SLINKY	Toys	3	18	[0, 0, 0]	n/a	catFR1	0	R1013E
2027.074	0.322	2298978	REC_WORD	26.157	n/a	RUM	Beverages	1	18	[0, 0, 0]	n/a	catFR1	0	R1013E
2027.396	3.529	2299300	REC_WORD	26.479	n/a	LEMONADE	Beverages	2	18	[0, 0, 0]	n/a	catFR1	0	R1013E
2030.925	6.16	2302829	REC_END	n/a	n/a	n/a	n/a	-999	18	[0, 0, 0]	n/a	catFR1	0	R1013E
2037.085	0.0	2308989	TRIAL	n/a	n/a	n/a	n/a	-999	19	[0, 0, 0]	n/a	catFR1	0	R1013E
2037.085	10.428	2308989	COUNTDOWN_START	n/a	n/a	n/a	n/a	-999	19	[0, 0, 0]	n/a	catFR1	0	R1013E
2047.513	0.007	2319416	COUNTDOWN_END	n/a	n/a	n/a	n/a	-999	19	[0, 0, 0]	n/a	catFR1	0	R1013E
2047.52	3.701	2319423	ORIENT	n/a	n/a	n/a	n/a	-999	19	[0, 0, 0]	n/a	catFR1	0	R1013E
2051.221	2.383	2323124	WORD	n/a	wordpools/wordpool_categorized_EN.txt	RULER	OfficeSupplies	1	19	[0, 0, 0]	n/a	catFR1	0	R1013E
2053.604	2.567	2325507	WORD	n/a	wordpools/wordpool_categorized_EN.txt	FOLDER	OfficeSupplies	2	19	[0, 0, 0]	n/a	catFR1	0	R1013E
2056.171	2.417	2328073	WORD	n/a	wordpools/wordpool_categorized_EN.txt	VIOLIN	Instruments	3	19	[0, 0, 0]	n/a	catFR1	0	R1013E
2058.588	2.434	2330490	WORD	n/a	wordpools/wordpool_categorized_EN.txt	TROMBONE	Instruments	4	19	[0, 0, 0]	n/a	catFR1	0	R1013E
2061.022	2.451	2332924	WORD	n/a	wordpools/wordpool_categorized_EN.txt	FLY	Insects	5	19	[0, 0, 0]	n/a	catFR1	0	R1013E
2063.473	2.584	2335375	WORD	n/a	wordpools/wordpool_categorized_EN.txt	LADYBUG	Insects	6	19	[0, 0, 0]	n/a	catFR1	0	R1013E
2066.057	2.483	2337959	WORD	n/a	wordpools/wordpool_categorized_EN.txt	TRUMPET	Instruments	7	19	[0, 0, 0]	n/a	catFR1	0	R1013E
2068.54	2.534	2340442	WORD	n/a	wordpools/wordpool_categorized_EN.txt	FLUTE	Instruments	8	19	[0, 0, 0]	n/a	catFR1	0	R1013E
2071.074	2.467	2342975	WORD	n/a	wordpools/wordpool_categorized_EN.txt	ERASER	OfficeSupplies	9	19	[0, 0, 0]	n/a	catFR1	0	R1013E
2073.541	2.567	2345442	WORD	n/a	wordpools/wordpool_categorized_EN.txt	BINDER	OfficeSupplies	10	19	[0, 0, 0]	n/a	catFR1	0	R1013E
2076.108	2.55	2348009	WORD	n/a	wordpools/wordpool_categorized_EN.txt	MOSQUITO	Insects	11	19	[0, 0, 0]	n/a	catFR1	0	R1013E
2078.658	1.617	2350559	WORD	n/a	wordpools/wordpool_categorized_EN.txt	ANT	Insects	12	19	[0, 0, 0]	n/a	catFR1	0	R1013E
2080.275	0.001	2352176	DISTRACT_START	n/a	n/a	n/a	n/a	-999	19	[0, 0, 0]	n/a	catFR1	0	R1013E
2080.276	0.015	2352177	START	n/a	n/a	n/a	n/a	-999	19	[-999, -999, -999]	n/a	catFR1	0	R1013E
2080.291	5.486	2352192	PROB	5.456	n/a	n/a	n/a	-999	19	[8, 1, 6]	13.0	catFR1	0	R1013E
2085.777	2.867	2357677	PROB	2.842	n/a	n/a	n/a	-999	19	[2, 5, 2]	9.0	catFR1	0	R1013E
2088.644	3.749	2360544	PROB	3.717	n/a	n/a	n/a	-999	19	[3, 5, 2]	10.0	catFR1	0	R1013E
2092.393	8.937	2364293	PROB	8.937	n/a	n/a	n/a	-999	19	[5, 6, 6]	17.0	catFR1	0	R1013E
2101.33	0.015	2373229	STOP	n/a	n/a	n/a	n/a	-999	19	[-999, -999, -999]	n/a	catFR1	0	R1013E
2101.345	1.118	2373244	DISTRACT_END	n/a	n/a	n/a	n/a	-999	19	[0, 0, 0]	n/a	catFR1	0	R1013E
2102.463	5.904	2374362	REC_START	n/a	n/a	n/a	n/a	-999	19	[0, 0, 0]	n/a	catFR1	0	R1013E
2108.367	24.113	2380266	REC_WORD	5.904	n/a	LADYBUG	Insects	6	19	[0, 0, 0]	n/a	catFR1	0	R1013E
2132.48	9.423	2404377	REC_END	n/a	n/a	n/a	n/a	-999	19	[0, 0, 0]	n/a	catFR1	0	R1013E
2141.903	0.0	2413800	COUNTDOWN_START	n/a	n/a	n/a	n/a	-999	20	[0, 0, 0]	n/a	catFR1	0	R1013E
2141.903	10.428	2413800	TRIAL	n/a	n/a	n/a	n/a	-999	20	[0, 0, 0]	n/a	catFR1	0	R1013E
2152.331	0.006	2424227	COUNTDOWN_END	n/a	n/a	n/a	n/a	-999	20	[0, 0, 0]	n/a	catFR1	0	R1013E
2152.337	3.619	2424233	ORIENT	n/a	n/a	n/a	n/a	-999	20	[0, 0, 0]	n/a	catFR1	0	R1013E
2155.956	2.6	2427852	WORD	n/a	wordpools/wordpool_categorized_EN.txt	OYSTER	OceanAnimals	1	20	[0, 0, 0]	n/a	catFR1	0	R1013E
2158.556	2.434	2430452	WORD	n/a	wordpools/wordpool_categorized_EN.txt	DOLPHIN	OceanAnimals	2	20	[0, 0, 0]	n/a	catFR1	0	R1013E
2160.99	2.45	2432885	WORD	n/a	wordpools/wordpool_categorized_EN.txt	JELLO	Desserts	3	20	[0, 0, 0]	n/a	catFR1	0	R1013E
2163.44	2.384	2435335	WORD	n/a	wordpools/wordpool_categorized_EN.txt	PASTRY	Desserts	4	20	[0, 0, 0]	n/a	catFR1	0	R1013E
2165.824	2.599	2437719	WORD	n/a	wordpools/wordpool_categorized_EN.txt	CABBAGE	Vegetables	5	20	[0, 0, 0]	n/a	catFR1	0	R1013E
2168.423	2.452	2440318	WORD	n/a	wordpools/wordpool_categorized_EN.txt	CAULIFLOWER	Vegetables	6	20	[0, 0, 0]	n/a	catFR1	0	R1013E
2170.875	2.466	2442770	WORD	n/a	wordpools/wordpool_categorized_EN.txt	WHALE	OceanAnimals	7	20	[0, 0, 0]	n/a	catFR1	0	R1013E
2173.341	2.401	2445236	WORD	n/a	wordpools/wordpool_categorized_EN.txt	LOBSTER	OceanAnimals	8	20	[0, 0, 0]	n/a	catFR1	0	R1013E
2175.742	2.401	2447636	WORD	n/a	wordpools/wordpool_categorized_EN.txt	SPINACH	Vegetables	9	20	[0, 0, 0]	n/a	catFR1	0	R1013E
2178.143	2.534	2450037	WORD	n/a	wordpools/wordpool_categorized_EN.txt	BROCCOLI	Vegetables	10	20	[0, 0, 0]	n/a	catFR1	0	R1013E
2180.677	2.533	2452571	WORD	n/a	wordpools/wordpool_categorized_EN.txt	CHEESECAKE	Desserts	11	20	[0, 0, 0]	n/a	catFR1	0	R1013E
2183.21	1.617	2455104	WORD	n/a	wordpools/wordpool_categorized_EN.txt	COOKIE	Desserts	12	20	[0, 0, 0]	n/a	catFR1	0	R1013E
2184.827	0.001	2456721	DISTRACT_START	n/a	n/a	n/a	n/a	-999	20	[0, 0, 0]	n/a	catFR1	0	R1013E
2184.828	0.016	2456722	START	n/a	n/a	n/a	n/a	-999	20	[-999, -999, -999]	n/a	catFR1	0	R1013E
2184.844	3.851	2456738	PROB	3.817	n/a	n/a	n/a	-999	20	[9, 5, 5]	19.0	catFR1	0	R1013E
2188.695	4.35	2460589	PROB	4.326	n/a	n/a	n/a	-999	20	[3, 4, 5]	12.0	catFR1	0	R1013E
2193.045	4.134	2464938	PROB	4.104	n/a	n/a	n/a	-999	20	[1, 5, 2]	8.0	catFR1	0	R1013E
2197.179	6.217	2469072	PROB	6.196	n/a	n/a	n/a	-999	20	[8, 9, 7]	24.0	catFR1	0	R1013E
2203.396	7.673	2475289	PROB	7.673	n/a	n/a	n/a	-999	20	[8, 6, 3]	17.0	catFR1	0	R1013E
2211.069	0.013	2482961	STOP	n/a	n/a	n/a	n/a	-999	20	[-999, -999, -999]	n/a	catFR1	0	R1013E
2211.082	1.117	2482974	DISTRACT_END	n/a	n/a	n/a	n/a	-999	20	[0, 0, 0]	n/a	catFR1	0	R1013E
2212.199	2.214	2484091	REC_START	n/a	n/a	n/a	n/a	-999	20	[0, 0, 0]	n/a	catFR1	0	R1013E
2214.413	0.824	2486305	REC_WORD	2.214	n/a	SPINACH	Vegetables	9	20	[0, 0, 0]	n/a	catFR1	0	R1013E
2215.237	1.565	2487129	REC_WORD	3.038	n/a	BROCCOLI	Vegetables	10	20	[0, 0, 0]	n/a	catFR1	0	R1013E
2216.802	7.393	2488694	REC_WORD	4.603	n/a	CHEESECAKE	Desserts	11	20	[0, 0, 0]	n/a	catFR1	0	R1013E
2224.195	0.676	2496086	REC_WORD	11.996	n/a	LOBSTER	OceanAnimals	8	20	[0, 0, 0]	n/a	catFR1	0	R1013E
2224.871	17.345	2496762	REC_WORD	12.672	n/a	OYSTER	OceanAnimals	1	20	[0, 0, 0]	n/a	catFR1	0	R1013E
2242.216	5.389	2514106	REC_END	n/a	n/a	n/a	n/a	-999	20	[0, 0, 0]	n/a	catFR1	0	R1013E
2247.605	0.0	2519495	TRIAL	n/a	n/a	n/a	n/a	-999	21	[0, 0, 0]	n/a	catFR1	0	R1013E
2247.605	10.428	2519495	COUNTDOWN_START	n/a	n/a	n/a	n/a	-999	21	[0, 0, 0]	n/a	catFR1	0	R1013E
2258.033	0.007	2529922	COUNTDOWN_END	n/a	n/a	n/a	n/a	-999	21	[0, 0, 0]	n/a	catFR1	0	R1013E
2258.04	3.651	2529929	ORIENT	n/a	n/a	n/a	n/a	-999	21	[0, 0, 0]	n/a	catFR1	0	R1013E
2261.691	2.467	2533580	WORD	n/a	wordpools/wordpool_categorized_EN.txt	BASKETBALL	Toys	1	21	[0, 0, 0]	n/a	catFR1	0	R1013E
2264.158	2.55	2536046	WORD	n/a	wordpools/wordpool_categorized_EN.txt	DOLLHOUSE	Toys	2	21	[0, 0, 0]	n/a	catFR1	0	R1013E
2266.708	2.401	2538596	WORD	n/a	wordpools/wordpool_categorized_EN.txt	HEAD	BodyParts	3	21	[0, 0, 0]	n/a	catFR1	0	R1013E
2269.109	2.45	2540997	WORD	n/a	wordpools/wordpool_categorized_EN.txt	KNEE	BodyParts	4	21	[0, 0, 0]	n/a	catFR1	0	R1013E
2271.559	2.551	2543447	WORD	n/a	wordpools/wordpool_categorized_EN.txt	FLOOR	Building	5	21	[0, 0, 0]	n/a	catFR1	0	R1013E
2274.11	2.433	2545998	WORD	n/a	wordpools/wordpool_categorized_EN.txt	CEILING	Building	6	21	[0, 0, 0]	n/a	catFR1	0	R1013E
2276.543	2.551	2548431	WORD	n/a	wordpools/wordpool_categorized_EN.txt	EYE	BodyParts	7	21	[0, 0, 0]	n/a	catFR1	0	R1013E
2279.094	2.55	2550981	WORD	n/a	wordpools/wordpool_categorized_EN.txt	NOSE	BodyParts	8	21	[0, 0, 0]	n/a	catFR1	0	R1013E
2281.644	2.601	2553531	WORD	n/a	wordpools/wordpool_categorized_EN.txt	BASEBALL	Toys	9	21	[0, 0, 0]	n/a	catFR1	0	R1013E
2284.245	2.417	2556132	WORD	n/a	wordpools/wordpool_categorized_EN.txt	BLOCKS	Toys	10	21	[0, 0, 0]	n/a	catFR1	0	R1013E
2286.662	2.534	2558549	WORD	n/a	wordpools/wordpool_categorized_EN.txt	ROOF	Building	11	21	[0, 0, 0]	n/a	catFR1	0	R1013E
2289.196	1.617	2561083	WORD	n/a	wordpools/wordpool_categorized_EN.txt	ROOM	Building	12	21	[0, 0, 0]	n/a	catFR1	0	R1013E
2290.813	0.0	2562700	DISTRACT_START	n/a	n/a	n/a	n/a	-999	21	[0, 0, 0]	n/a	catFR1	0	R1013E
2290.813	0.016	2562700	START	n/a	n/a	n/a	n/a	-999	21	[-999, -999, -999]	n/a	catFR1	0	R1013E
2290.829	3.184	2562716	PROB	3.155	n/a	n/a	n/a	-999	21	[1, 1, 5]	7.0	catFR1	0	R1013E
2294.013	3.151	2565899	PROB	3.115	n/a	n/a	n/a	-999	21	[6, 2, 5]	13.0	catFR1	0	R1013E
2297.164	6.717	2569050	PROB	6.687	n/a	n/a	n/a	-999	21	[7, 6, 5]	17.0	catFR1	0	R1013E
2303.881	3.985	2575767	PROB	3.954	n/a	n/a	n/a	-999	21	[9, 2, 8]	19.0	catFR1	0	R1013E
2307.866	2.333	2579751	PROB	2.313	n/a	n/a	n/a	-999	21	[1, 9, 2]	12.0	catFR1	0	R1013E
2310.199	3.772	2582084	PROB	3.772	n/a	n/a	n/a	-999	21	[1, 8, 5]	14.0	catFR1	0	R1013E
2313.971	0.012	2585856	STOP	n/a	n/a	n/a	n/a	-999	21	[-999, -999, -999]	n/a	catFR1	0	R1013E
2313.983	1.118	2585868	DISTRACT_END	n/a	n/a	n/a	n/a	-999	21	[0, 0, 0]	n/a	catFR1	0	R1013E
2315.101	13.653	2586986	REC_START	n/a	n/a	n/a	n/a	-999	21	[0, 0, 0]	n/a	catFR1	0	R1013E
2328.754	0.404	2600638	REC_WORD	13.653	n/a	HEAD	BodyParts	3	21	[0, 0, 0]	n/a	catFR1	0	R1013E
2329.158	6.933	2601042	REC_WORD	14.057	n/a	EYE	BodyParts	7	21	[0, 0, 0]	n/a	catFR1	0	R1013E
2336.091	0.996	2607975	REC_WORD	20.99	n/a	NOSE	BodyParts	8	21	[0, 0, 0]	n/a	catFR1	0	R1013E
2337.087	1.035	2608970	REC_WORD	21.986	n/a	KNEE	BodyParts	4	21	[0, 0, 0]	n/a	catFR1	0	R1013E
2338.122	6.991	2610005	REC_WORD	23.021	n/a	FLOOR	Building	5	21	[0, 0, 0]	n/a	catFR1	0	R1013E
2345.113	8.577	2616996	REC_END	n/a	n/a	n/a	n/a	-999	21	[0, 0, 0]	n/a	catFR1	0	R1013E
2353.69	0.0	2625572	TRIAL	n/a	n/a	n/a	n/a	-999	22	[0, 0, 0]	n/a	catFR1	0	R1013E
2353.69	10.428	2625572	COUNTDOWN_START	n/a	n/a	n/a	n/a	-999	22	[0, 0, 0]	n/a	catFR1	0	R1013E
2364.118	0.007	2636000	COUNTDOWN_END	n/a	n/a	n/a	n/a	-999	22	[0, 0, 0]	n/a	catFR1	0	R1013E
2364.125	3.401	2636007	ORIENT	n/a	n/a	n/a	n/a	-999	22	[0, 0, 0]	n/a	catFR1	0	R1013E
2367.526	2.534	2639407	WORD	n/a	wordpools/wordpool_categorized_EN.txt	LILY	Flowers	1	22	[0, 0, 0]	n/a	catFR1	0	R1013E
2370.06	2.6	2641941	WORD	n/a	wordpools/wordpool_categorized_EN.txt	CARNATION	Flowers	2	22	[0, 0, 0]	n/a	catFR1	0	R1013E
2372.66	2.567	2644541	WORD	n/a	wordpools/wordpool_categorized_EN.txt	STEREO	Electronics	3	22	[0, 0, 0]	n/a	catFR1	0	R1013E
2375.227	2.434	2647108	WORD	n/a	wordpools/wordpool_categorized_EN.txt	CALCULATOR	Electronics	4	22	[0, 0, 0]	n/a	catFR1	0	R1013E
2377.661	2.601	2649542	WORD	n/a	wordpools/wordpool_categorized_EN.txt	THUNDER	Weather	5	22	[0, 0, 0]	n/a	catFR1	0	R1013E
2380.262	2.567	2652143	WORD	n/a	wordpools/wordpool_categorized_EN.txt	SNOW	Weather	6	22	[0, 0, 0]	n/a	catFR1	0	R1013E
2382.829	2.599	2654709	WORD	n/a	wordpools/wordpool_categorized_EN.txt	SPEAKER	Electronics	7	22	[0, 0, 0]	n/a	catFR1	0	R1013E
2385.428	2.468	2657308	WORD	n/a	wordpools/wordpool_categorized_EN.txt	HEADPHONES	Electronics	8	22	[0, 0, 0]	n/a	catFR1	0	R1013E
2387.896	2.567	2659776	WORD	n/a	wordpools/wordpool_categorized_EN.txt	PETUNIA	Flowers	9	22	[0, 0, 0]	n/a	catFR1	0	R1013E
2390.463	2.617	2662343	WORD	n/a	wordpools/wordpool_categorized_EN.txt	MARIGOLD	Flowers	10	22	[0, 0, 0]	n/a	catFR1	0	R1013E
2393.08	2.401	2664960	WORD	n/a	wordpools/wordpool_categorized_EN.txt	WIND	Weather	11	22	[0, 0, 0]	n/a	catFR1	0	R1013E
2395.481	1.617	2667361	WORD	n/a	wordpools/wordpool_categorized_EN.txt	FOG	Weather	12	22	[0, 0, 0]	n/a	catFR1	0	R1013E
2397.098	0.001	2668977	DISTRACT_START	n/a	n/a	n/a	n/a	-999	22	[0, 0, 0]	n/a	catFR1	0	R1013E
2397.099	0.016	2668978	START	n/a	n/a	n/a	n/a	-999	22	[-999, -999, -999]	n/a	catFR1	0	R1013E
2397.115	5.934	2668994	PROB	5.911	n/a	n/a	n/a	-999	22	[9, 9, 8]	26.0	catFR1	0	R1013E
2403.049	3.167	2674928	PROB	3.145	n/a	n/a	n/a	-999	22	[8, 6, 7]	21.0	catFR1	0	R1013E
2406.216	2.934	2678095	PROB	2.906	n/a	n/a	n/a	-999	22	[4, 7, 7]	18.0	catFR1	0	R1013E
2409.15	2.9	2681029	PROB	2.869	n/a	n/a	n/a	-999	22	[3, 2, 7]	12.0	catFR1	0	R1013E
2412.05	3.034	2683928	PROB	3.0	n/a	n/a	n/a	-999	22	[6, 1, 3]	10.0	catFR1	0	R1013E
2415.084	2.879	2686962	PROB	2.879	n/a	n/a	n/a	-999	22	[5, 2, 4]	11.0	catFR1	0	R1013E
2417.963	0.005	2689841	STOP	n/a	n/a	n/a	n/a	-999	22	[-999, -999, -999]	n/a	catFR1	0	R1013E
2417.968	1.167	2689846	DISTRACT_END	n/a	n/a	n/a	n/a	-999	22	[0, 0, 0]	n/a	catFR1	0	R1013E
2419.135	30.017	2691013	REC_START	n/a	n/a	n/a	n/a	-999	22	[0, 0, 0]	n/a	catFR1	0	R1013E
2449.152	0.008	2721028	REC_WORD_VV	30.017	n/a	<>	n/a	-999	22	[0, 0, 0]	n/a	catFR1	0	R1013E
2449.16	9.699	2721036	REC_END	n/a	n/a	n/a	n/a	-999	22	[0, 0, 0]	n/a	catFR1	0	R1013E
2458.859	0.0	2730734	TRIAL	n/a	n/a	n/a	n/a	-999	23	[0, 0, 0]	n/a	catFR1	0	R1013E
2458.859	10.428	2730734	COUNTDOWN_START	n/a	n/a	n/a	n/a	-999	23	[0, 0, 0]	n/a	catFR1	0	R1013E
2469.287	0.006	2741162	COUNTDOWN_END	n/a	n/a	n/a	n/a	-999	23	[0, 0, 0]	n/a	catFR1	0	R1013E
2469.293	3.918	2741168	ORIENT	n/a	n/a	n/a	n/a	-999	23	[0, 0, 0]	n/a	catFR1	0	R1013E
2473.211	2.401	2745085	WORD	n/a	wordpools/wordpool_categorized_EN.txt	STRAWBERRY	Fruit	1	23	[0, 0, 0]	n/a	catFR1	0	R1013E
2475.612	2.383	2747486	WORD	n/a	wordpools/wordpool_categorized_EN.txt	APPLE	Fruit	2	23	[0, 0, 0]	n/a	catFR1	0	R1013E
2477.995	2.517	2749869	WORD	n/a	wordpools/wordpool_categorized_EN.txt	HURRICANE	Weather	3	23	[0, 0, 0]	n/a	catFR1	0	R1013E
2480.512	2.434	2752386	WORD	n/a	wordpools/wordpool_categorized_EN.txt	DRIZZLE	Weather	4	23	[0, 0, 0]	n/a	catFR1	0	R1013E
2482.946	2.466	2754820	WORD	n/a	wordpools/wordpool_categorized_EN.txt	SHORTS	Clothing	5	23	[0, 0, 0]	n/a	catFR1	0	R1013E
2485.412	2.535	2757285	WORD	n/a	wordpools/wordpool_categorized_EN.txt	SHOES	Clothing	6	23	[0, 0, 0]	n/a	catFR1	0	R1013E
2487.947	2.501	2759820	WORD	n/a	wordpools/wordpool_categorized_EN.txt	ORANGE	Fruit	7	23	[0, 0, 0]	n/a	catFR1	0	R1013E
2490.448	2.416	2762321	WORD	n/a	wordpools/wordpool_categorized_EN.txt	GRAPE	Fruit	8	23	[0, 0, 0]	n/a	catFR1	0	R1013E
2492.864	2.55	2764737	WORD	n/a	wordpools/wordpool_categorized_EN.txt	SOCKS	Clothing	9	23	[0, 0, 0]	n/a	catFR1	0	R1013E
2495.414	2.518	2767287	WORD	n/a	wordpools/wordpool_categorized_EN.txt	JACKET	Clothing	10	23	[0, 0, 0]	n/a	catFR1	0	R1013E
2497.932	2.517	2769805	WORD	n/a	wordpools/wordpool_categorized_EN.txt	TORNADO	Weather	11	23	[0, 0, 0]	n/a	catFR1	0	R1013E
2500.449	1.617	2772321	WORD	n/a	wordpools/wordpool_categorized_EN.txt	CLOUD	Weather	12	23	[0, 0, 0]	n/a	catFR1	0	R1013E
2502.066	0.001	2773938	DISTRACT_START	n/a	n/a	n/a	n/a	-999	23	[0, 0, 0]	n/a	catFR1	0	R1013E
2502.067	0.016	2773939	START	n/a	n/a	n/a	n/a	-999	23	[-999, -999, -999]	n/a	catFR1	0	R1013E
2502.083	4.501	2773955	PROB	4.479	n/a	n/a	n/a	-999	23	[5, 8, 3]	16.0	catFR1	0	R1013E
2506.584	3.117	2778456	PROB	3.082	n/a	n/a	n/a	-999	23	[7, 3, 8]	18.0	catFR1	0	R1013E
2509.701	1.984	2781573	PROB	1.957	n/a	n/a	n/a	-999	23	[6, 1, 4]	11.0	catFR1	0	R1013E
2511.685	3.15	2783557	PROB	3.125	n/a	n/a	n/a	-999	23	[3, 1, 5]	9.0	catFR1	0	R1013E
2514.835	3.784	2786706	PROB	3.751	n/a	n/a	n/a	-999	23	[3, 6, 3]	12.0	catFR1	0	R1013E
2518.619	2.817	2790490	PROB	2.782	n/a	n/a	n/a	-999	23	[6, 2, 5]	13.0	catFR1	0	R1013E
2521.436	3.358	2793307	PROB	3.358	n/a	n/a	n/a	-999	23	[9, 6, 2]	17.0	catFR1	0	R1013E
2524.794	0.009	2796665	STOP	n/a	n/a	n/a	n/a	-999	23	[-999, -999, -999]	n/a	catFR1	0	R1013E
2524.803	1.068	2796674	DISTRACT_END	n/a	n/a	n/a	n/a	-999	23	[0, 0, 0]	n/a	catFR1	0	R1013E
2525.871	2.307	2797742	REC_START	n/a	n/a	n/a	n/a	-999	23	[0, 0, 0]	n/a	catFR1	0	R1013E
2528.178	0.907	2800049	REC_WORD	2.307	n/a	TORNADO	Weather	11	23	[0, 0, 0]	n/a	catFR1	0	R1013E
2529.085	26.794	2800955	REC_WORD	3.214	n/a	DRIZZLE	Weather	4	23	[0, 0, 0]	n/a	catFR1	0	R1013E
2555.879	8.447	2827748	REC_END	n/a	n/a	n/a	n/a	-999	23	[0, 0, 0]	n/a	catFR1	0	R1013E
2564.326	0.0	2836194	TRIAL	n/a	n/a	n/a	n/a	-999	24	[0, 0, 0]	n/a	catFR1	0	R1013E
2564.326	10.428	2836194	COUNTDOWN_START	n/a	n/a	n/a	n/a	-999	24	[0, 0, 0]	n/a	catFR1	0	R1013E
2574.754	0.008	2846621	COUNTDOWN_END	n/a	n/a	n/a	n/a	-999	24	[0, 0, 0]	n/a	catFR1	0	R1013E
2574.762	3.467	2846629	ORIENT	n/a	n/a	n/a	n/a	-999	24	[0, 0, 0]	n/a	catFR1	0	R1013E
2578.229	2.501	2850096	WORD	n/a	wordpools/wordpool_categorized_EN.txt	TIGER	Zoo	1	24	[0, 0, 0]	n/a	catFR1	0	R1013E
2580.73	2.384	2852597	WORD	n/a	wordpools/wordpool_categorized_EN.txt	ZEBRA	Zoo	2	24	[0, 0, 0]	n/a	catFR1	0	R1013E
2583.114	2.517	2854981	WORD	n/a	wordpools/wordpool_categorized_EN.txt	BATHROOM	Building	3	24	[0, 0, 0]	n/a	catFR1	0	R1013E
2585.631	2.434	2857498	WORD	n/a	wordpools/wordpool_categorized_EN.txt	WALL	Building	4	24	[0, 0, 0]	n/a	catFR1	0	R1013E
2588.065	2.45	2859931	WORD	n/a	wordpools/wordpool_categorized_EN.txt	PANTS	Clothing	5	24	[0, 0, 0]	n/a	catFR1	0	R1013E
2590.515	2.517	2862381	WORD	n/a	wordpools/wordpool_categorized_EN.txt	BLOUSE	Clothing	6	24	[0, 0, 0]	n/a	catFR1	0	R1013E
2593.032	2.534	2864898	WORD	n/a	wordpools/wordpool_categorized_EN.txt	WINDOW	Building	7	24	[0, 0, 0]	n/a	catFR1	0	R1013E
2595.566	2.567	2867432	WORD	n/a	wordpools/wordpool_categorized_EN.txt	STAIRS	Building	8	24	[0, 0, 0]	n/a	catFR1	0	R1013E
2598.133	2.451	2869999	WORD	n/a	wordpools/wordpool_categorized_EN.txt	CHEETAH	Zoo	9	24	[0, 0, 0]	n/a	catFR1	0	R1013E
2600.584	2.467	2872450	WORD	n/a	wordpools/wordpool_categorized_EN.txt	LION	Zoo	10	24	[0, 0, 0]	n/a	catFR1	0	R1013E
2603.051	2.533	2874916	WORD	n/a	wordpools/wordpool_categorized_EN.txt	SKIRT	Clothing	11	24	[0, 0, 0]	n/a	catFR1	0	R1013E
2605.584	1.617	2877449	WORD	n/a	wordpools/wordpool_categorized_EN.txt	DRESS	Clothing	12	24	[0, 0, 0]	n/a	catFR1	0	R1013E
2607.201	0.001	2879066	DISTRACT_START	n/a	n/a	n/a	n/a	-999	24	[0, 0, 0]	n/a	catFR1	0	R1013E
2607.202	0.016	2879067	START	n/a	n/a	n/a	n/a	-999	24	[-999, -999, -999]	n/a	catFR1	0	R1013E
2607.218	4.718	2879083	PROB	4.687	n/a	n/a	n/a	-999	24	[8, 5, 2]	15.0	catFR1	0	R1013E
2611.936	2.5	2883801	PROB	2.472	n/a	n/a	n/a	-999	24	[7, 5, 5]	17.0	catFR1	0	R1013E
2614.436	3.667	2886301	PROB	3.637	n/a	n/a	n/a	-999	24	[5, 3, 2]	10.0	catFR1	0	R1013E
2618.103	3.384	2889967	PROB	3.362	n/a	n/a	n/a	-999	24	[4, 2, 7]	13.0	catFR1	0	R1013E
2621.487	2.883	2893351	PROB	2.849	n/a	n/a	n/a	-999	24	[5, 5, 7]	17.0	catFR1	0	R1013E
2624.37	3.599	2896234	PROB	3.599	n/a	n/a	n/a	-999	24	[2, 2, 6]	10.0	catFR1	0	R1013E
2627.969	0.019	2899833	STOP	n/a	n/a	n/a	n/a	-999	24	[-999, -999, -999]	n/a	catFR1	0	R1013E
2627.988	1.184	2899852	DISTRACT_END	n/a	n/a	n/a	n/a	-999	24	[0, 0, 0]	n/a	catFR1	0	R1013E
2629.172	1.694	2901036	REC_START	n/a	n/a	n/a	n/a	-999	24	[0, 0, 0]	n/a	catFR1	0	R1013E
2630.866	0.803	2902730	REC_WORD	1.694	n/a	CHEETAH	Zoo	9	24	[0, 0, 0]	n/a	catFR1	0	R1013E
2631.669	1.829	2903533	REC_WORD	2.497	n/a	LION	Zoo	10	24	[0, 0, 0]	n/a	catFR1	0	R1013E
2633.498	0.615	2905361	REC_WORD	4.326	n/a	SKIRT	Clothing	11	24	[0, 0, 0]	n/a	catFR1	0	R1013E
2634.113	3.934	2905976	REC_WORD	4.941	n/a	DRESS	Clothing	12	24	[0, 0, 0]	n/a	catFR1	0	R1013E
2638.047	7.521	2909910	REC_WORD	8.875	n/a	PANTS	Clothing	5	24	[0, 0, 0]	n/a	catFR1	0	R1013E
2645.568	0.596	2917431	REC_WORD	16.396	n/a	BATHROOM	Building	3	24	[0, 0, 0]	n/a	catFR1	0	R1013E
2646.164	2.748	2918027	REC_WORD	16.992	n/a	WALL	Building	4	24	[0, 0, 0]	n/a	catFR1	0	R1013E
2648.912	0.561	2920774	REC_WORD	19.74	n/a	WINDOW	Building	7	24	[0, 0, 0]	n/a	catFR1	0	R1013E
2649.473	9.714	2921335	REC_WORD	20.301	n/a	STAIRS	Building	8	24	[0, 0, 0]	n/a	catFR1	0	R1013E
2659.187	9.091	2931049	REC_END	n/a	n/a	n/a	n/a	-999	24	[0, 0, 0]	n/a	catFR1	0	R1013E
2668.278	0.0	2940139	TRIAL	n/a	n/a	n/a	n/a	-999	25	[0, 0, 0]	n/a	catFR1	0	R1013E
2668.278	10.428	2940139	COUNTDOWN_START	n/a	n/a	n/a	n/a	-999	25	[0, 0, 0]	n/a	catFR1	0	R1013E
2678.706	0.008	2950566	COUNTDOWN_END	n/a	n/a	n/a	n/a	-999	25	[0, 0, 0]	n/a	catFR1	0	R1013E
2678.714	3.517	2950574	ORIENT	n/a	n/a	n/a	n/a	-999	25	[0, 0, 0]	n/a	catFR1	0	R1013E
2682.231	2.634	2954091	WORD	n/a	wordpools/wordpool_categorized_EN.txt	CHICKEN	FarmAnimals	1	25	[0, 0, 0]	n/a	catFR1	0	R1013E
2684.865	2.416	2956725	WORD	n/a	wordpools/wordpool_categorized_EN.txt	TURKEY	FarmAnimals	2	25	[0, 0, 0]	n/a	catFR1	0	R1013E
2687.281	2.468	2959141	WORD	n/a	wordpools/wordpool_categorized_EN.txt	JEANS	Clothing	3	25	[0, 0, 0]	n/a	catFR1	0	R1013E
2689.749	2.55	2961609	WORD	n/a	wordpools/wordpool_categorized_EN.txt	UNDERWEAR	Clothing	4	25	[0, 0, 0]	n/a	catFR1	0	R1013E
2692.299	2.401	2964158	WORD	n/a	wordpools/wordpool_categorized_EN.txt	TELEVISION	Electronics	5	25	[0, 0, 0]	n/a	catFR1	0	R1013E
2694.7	2.616	2966559	WORD	n/a	wordpools/wordpool_categorized_EN.txt	PRINTER	Electronics	6	25	[0, 0, 0]	n/a	catFR1	0	R1013E
2697.316	2.418	2969175	WORD	n/a	wordpools/wordpool_categorized_EN.txt	GOAT	FarmAnimals	7	25	[0, 0, 0]	n/a	catFR1	0	R1013E
2699.734	2.417	2971593	WORD	n/a	wordpools/wordpool_categorized_EN.txt	LAMB	FarmAnimals	8	25	[0, 0, 0]	n/a	catFR1	0	R1013E
2702.151	2.501	2974010	WORD	n/a	wordpools/wordpool_categorized_EN.txt	MICROWAVE	Electronics	9	25	[0, 0, 0]	n/a	catFR1	0	R1013E
2704.652	2.383	2976511	WORD	n/a	wordpools/wordpool_categorized_EN.txt	COMPUTER	Electronics	10	25	[0, 0, 0]	n/a	catFR1	0	R1013E
2707.035	2.418	2978893	WORD	n/a	wordpools/wordpool_categorized_EN.txt	COAT	Clothing	11	25	[0, 0, 0]	n/a	catFR1	0	R1013E
2709.453	1.617	2981311	WORD	n/a	wordpools/wordpool_categorized_EN.txt	SHIRT	Clothing	12	25	[0, 0, 0]	n/a	catFR1	0	R1013E
2711.07	0.0	2982928	DISTRACT_START	n/a	n/a	n/a	n/a	-999	25	[0, 0, 0]	n/a	catFR1	0	R1013E
2711.07	0.016	2982928	START	n/a	n/a	n/a	n/a	-999	25	[-999, -999, -999]	n/a	catFR1	0	R1013E
2711.086	4.668	2982944	PROB	4.636	n/a	n/a	n/a	-999	25	[1, 4, 7]	12.0	catFR1	0	R1013E
2715.754	2.833	2987612	PROB	2.801	n/a	n/a	n/a	-999	25	[2, 4, 6]	12.0	catFR1	0	R1013E
2718.587	3.634	2990445	PROB	3.607	n/a	n/a	n/a	-999	25	[8, 7, 4]	19.0	catFR1	0	R1013E
2722.221	3.1	2994078	PROB	3.076	n/a	n/a	n/a	-999	25	[1, 5, 5]	11.0	catFR1	0	R1013E
2725.321	2.801	2997178	PROB	2.77	n/a	n/a	n/a	-999	25	[4, 6, 5]	15.0	catFR1	0	R1013E
2728.122	3.64	2999979	PROB	3.64	n/a	n/a	n/a	-999	25	[6, 5, 9]	20.0	catFR1	0	R1013E
2731.762	0.011	3003619	STOP	n/a	n/a	n/a	n/a	-999	25	[-999, -999, -999]	n/a	catFR1	0	R1013E
2731.773	1.118	3003630	DISTRACT_END	n/a	n/a	n/a	n/a	-999	25	[0, 0, 0]	n/a	catFR1	0	R1013E
2732.891	30.017	3004748	REC_START	n/a	n/a	n/a	n/a	-999	25	[0, 0, 0]	n/a	catFR1	0	R1013E
2762.908	0.005	3034763	REC_WORD_VV	30.017	n/a	<>	n/a	-999	25	[0, 0, 0]	n/a	catFR1	0	R1013E
2762.913	39.939	3034768	REC_END	n/a	n/a	n/a	n/a	-999	25	[0, 0, 0]	n/a	catFR1	0	R1013E
2802.852	0.0	-1	SESS_END	n/a	n/a	n/a	n/a	-999	25	[0, 0, 0]	n/a	catFR1	0	R1013E
