onset	duration	sample	trial_type	response_time	stim_file	item_name	category	serialpos	list	test	answer	experiment	session	subject
0.0	1.878	15558	INSTRUCT_START	n/a	n/a	n/a	n/a	-999	-999	[0, 0, 0]	n/a	catFR1	1	R1383J
1.878	4.054	17438	INSTRUCT_END	n/a	n/a	n/a	n/a	-999	-999	[0, 0, 0]	n/a	catFR1	1	R1383J
5.932	161.651	21493	INSTRUCT_START	n/a	n/a	n/a	n/a	-999	-999	[0, 0, 0]	n/a	catFR1	1	R1383J
167.583	21.448	183137	INSTRUCT_END	n/a	n/a	n/a	n/a	-999	-999	[0, 0, 0]	n/a	catFR1	1	R1383J
189.031	10.0	204586	COUNTDOWN_START	n/a	n/a	n/a	n/a	-999	-999	[0, 0, 0]	n/a	catFR1	1	R1383J
199.39	0.001	214941	COUNTDOWN_END	n/a	n/a	n/a	n/a	-999	-999	[0, 0, 0]	n/a	catFR1	1	R1383J
199.391	2.041	214941	ENCODING_START	n/a	n/a	n/a	n/a	-999	-1	[0, 0, 0]	n/a	catFR1	1	R1383J
201.432	1.6	216986	WORD	n/a	n/a	WOOL	Materials	1	-1	[0, 0, 0]	n/a	catFR1	1	R1383J
203.048	0.9	218596	WORD_OFF	n/a	n/a	WOOL	Materials	1	-1	[0, 0, 0]	n/a	catFR1	1	R1383J
203.948	1.6	219501	WORD	n/a	n/a	DENIM	Materials	2	-1	[0, 0, 0]	n/a	catFR1	1	R1383J
205.548	0.817	221102	WORD_OFF	n/a	n/a	DENIM	Materials	2	-1	[0, 0, 0]	n/a	catFR1	1	R1383J
206.365	1.6	221920	WORD	n/a	n/a	MINUTE	Times	3	-1	[0, 0, 0]	n/a	catFR1	1	R1383J
207.982	0.983	223530	WORD_OFF	n/a	n/a	MINUTE	Times	3	-1	[0, 0, 0]	n/a	catFR1	1	R1383J
208.965	1.6	224513	WORD	n/a	n/a	HOUR	Times	4	-1	[0, 0, 0]	n/a	catFR1	1	R1383J
210.581	1.001	226132	WORD_OFF	n/a	n/a	HOUR	Times	4	-1	[0, 0, 0]	n/a	catFR1	1	R1383J
211.582	1.6	227133	WORD	n/a	n/a	FIREMAN	Professions	5	-1	[0, 0, 0]	n/a	catFR1	1	R1383J
213.198	0.9	228751	WORD_OFF	n/a	n/a	FIREMAN	Professions	5	-1	[0, 0, 0]	n/a	catFR1	1	R1383J
214.098	1.6	229647	WORD	n/a	n/a	PLUMBER	Professions	6	-1	[0, 0, 0]	n/a	catFR1	1	R1383J
215.698	0.783	231249	WORD_OFF	n/a	n/a	PLUMBER	Professions	6	-1	[0, 0, 0]	n/a	catFR1	1	R1383J
216.481	1.6	232032	WORD	n/a	n/a	LEATHER	Materials	7	-1	[0, 0, 0]	n/a	catFR1	1	R1383J
218.097	0.934	233650	WORD_OFF	n/a	n/a	LEATHER	Materials	7	-1	[0, 0, 0]	n/a	catFR1	1	R1383J
219.031	1.6	234581	WORD	n/a	n/a	SILK	Materials	8	-1	[0, 0, 0]	n/a	catFR1	1	R1383J
220.648	0.784	236200	WORD_OFF	n/a	n/a	SILK	Materials	8	-1	[0, 0, 0]	n/a	catFR1	1	R1383J
221.432	1.6	236983	WORD	n/a	n/a	SECOND	Times	9	-1	[0, 0, 0]	n/a	catFR1	1	R1383J
223.048	0.899	238602	WORD_OFF	n/a	n/a	SECOND	Times	9	-1	[0, 0, 0]	n/a	catFR1	1	R1383J
223.947	1.6	239498	WORD	n/a	n/a	DAY	Times	10	-1	[0, 0, 0]	n/a	catFR1	1	R1383J
225.548	0.85	241099	WORD_OFF	n/a	n/a	DAY	Times	10	-1	[0, 0, 0]	n/a	catFR1	1	R1383J
226.398	1.6	241952	WORD	n/a	n/a	FARMER	Professions	11	-1	[0, 0, 0]	n/a	catFR1	1	R1383J
228.015	0.917	243561	WORD_OFF	n/a	n/a	FARMER	Professions	11	-1	[0, 0, 0]	n/a	catFR1	1	R1383J
228.932	1.6	244484	WORD	n/a	n/a	TEACHER	Professions	12	-1	[0, 0, 0]	n/a	catFR1	1	R1383J
230.548	0.001	246094	WORD_OFF	n/a	n/a	TEACHER	Professions	12	-1	[0, 0, 0]	n/a	catFR1	1	R1383J
230.549	0.0	246098	START	n/a	n/a	n/a	n/a	-999	-1	[-999, -999, -999]	n/a	catFR1	1	R1383J
230.549	0.0	246098	PROB	13.616	n/a	n/a	n/a	-999	-1	[6, 5, 8]	19.0	catFR1	1	R1383J
230.549	0.0	246102	ENCODING_END	n/a	n/a	n/a	n/a	-999	-1	[0, 0, 0]	n/a	catFR1	1	R1383J
230.549	13.632	246102	DISTRACT_START	n/a	n/a	n/a	n/a	-999	-1	[0, 0, 0]	n/a	catFR1	1	R1383J
244.181	6.633	259730	PROB	6.616	n/a	n/a	n/a	-999	-1	[1, 4, 2]	7.0	catFR1	1	R1383J
250.814	0.0	266360	DISTRACT_END	n/a	n/a	n/a	n/a	-999	-1	[0, 0, 0]	n/a	catFR1	1	R1383J
250.814	1.134	266362	STOP	n/a	n/a	n/a	n/a	-999	-1	[-999, -999, -999]	n/a	catFR1	1	R1383J
251.948	10.739	267500	REC_START	n/a	n/a	n/a	n/a	-999	-1	[0, 0, 0]	n/a	catFR1	1	R1383J
262.687	1.0	278235	REC_WORD_VV	10.739	n/a	<>	n/a	-999	-1	[0, 0, 0]	n/a	catFR1	1	R1383J
263.687	2.998	279235	REC_WORD_VV	11.739	n/a	<>	n/a	-999	-1	[0, 0, 0]	n/a	catFR1	1	R1383J
266.685	1.053	282233	REC_WORD	14.737	n/a	WOOL	Materials	1	-1	[0, 0, 0]	n/a	catFR1	1	R1383J
267.738	0.862	283286	REC_WORD	15.79	n/a	DENIM	Materials	2	-1	[0, 0, 0]	n/a	catFR1	1	R1383J
268.6	2.678	284148	REC_WORD	16.652	n/a	LEATHER	Materials	7	-1	[0, 0, 0]	n/a	catFR1	1	R1383J
271.278	0.769	286825	REC_WORD	19.33	n/a	MINUTE	Times	3	-1	[0, 0, 0]	n/a	catFR1	1	R1383J
272.047	0.685	287594	REC_WORD	20.099	n/a	SECOND	Times	9	-1	[0, 0, 0]	n/a	catFR1	1	R1383J
272.732	0.712	288279	REC_WORD	20.784	n/a	DAY	Times	10	-1	[0, 0, 0]	n/a	catFR1	1	R1383J
273.444	8.725	288991	REC_WORD	21.496	n/a	FARMER	Professions	11	-1	[0, 0, 0]	n/a	catFR1	1	R1383J
282.169	17.163	297721	REC_END	n/a	n/a	n/a	n/a	-999	-1	[0, 0, 0]	n/a	catFR1	1	R1383J
299.332	10.0	314881	COUNTDOWN_START	n/a	n/a	n/a	n/a	-999	1	[0, 0, 0]	n/a	catFR1	1	R1383J
309.691	0.0	325236	COUNTDOWN_END	n/a	n/a	n/a	n/a	-999	1	[0, 0, 0]	n/a	catFR1	1	R1383J
309.691	2.141	325236	ENCODING_START	n/a	n/a	n/a	n/a	-999	1	[0, 0, 0]	n/a	catFR1	1	R1383J
311.832	1.6	327377	WORD	n/a	wordpools/wordpool_categorized_EN.txt	DRIZZLE	Weather	1	1	[0, 0, 0]	n/a	catFR1	1	R1383J
313.448	0.867	328995	WORD_OFF	n/a	n/a	DRIZZLE	Weather	1	1	[0, 0, 0]	n/a	catFR1	1	R1383J
314.315	1.6	329865	WORD	n/a	wordpools/wordpool_categorized_EN.txt	HUMIDITY	Weather	2	1	[0, 0, 0]	n/a	catFR1	1	R1383J
315.915	1.0	331458	WORD_OFF	n/a	n/a	HUMIDITY	Weather	2	1	[0, 0, 0]	n/a	catFR1	1	R1383J
316.915	1.6	332459	WORD	n/a	wordpools/wordpool_categorized_EN.txt	HAMMER	Tools	3	1	[0, 0, 0]	n/a	catFR1	1	R1383J
318.531	0.834	334077	WORD_OFF	n/a	n/a	HAMMER	Tools	3	1	[0, 0, 0]	n/a	catFR1	1	R1383J
319.365	1.6	334912	WORD	n/a	wordpools/wordpool_categorized_EN.txt	PLIERS	Tools	4	1	[0, 0, 0]	n/a	catFR1	1	R1383J
320.965	0.883	336514	WORD_OFF	n/a	n/a	PLIERS	Tools	4	1	[0, 0, 0]	n/a	catFR1	1	R1383J
321.848	1.6	337392	WORD	n/a	wordpools/wordpool_categorized_EN.txt	SOFA	Furniture	5	1	[0, 0, 0]	n/a	catFR1	1	R1383J
323.448	0.933	338994	WORD_OFF	n/a	n/a	SOFA	Furniture	5	1	[0, 0, 0]	n/a	catFR1	1	R1383J
324.381	1.6	339925	WORD	n/a	wordpools/wordpool_categorized_EN.txt	SHELF	Furniture	6	1	[0, 0, 0]	n/a	catFR1	1	R1383J
325.998	0.933	341543	WORD_OFF	n/a	n/a	SHELF	Furniture	6	1	[0, 0, 0]	n/a	catFR1	1	R1383J
326.931	1.6	342474	WORD	n/a	wordpools/wordpool_categorized_EN.txt	CROWBAR	Tools	7	1	[0, 0, 0]	n/a	catFR1	1	R1383J
328.548	0.917	344093	WORD_OFF	n/a	n/a	CROWBAR	Tools	7	1	[0, 0, 0]	n/a	catFR1	1	R1383J
329.465	1.6	345006	WORD	n/a	wordpools/wordpool_categorized_EN.txt	SCREWDRIVER	Tools	8	1	[0, 0, 0]	n/a	catFR1	1	R1383J
331.081	0.884	346625	WORD_OFF	n/a	n/a	SCREWDRIVER	Tools	8	1	[0, 0, 0]	n/a	catFR1	1	R1383J
331.965	1.6	347513	WORD	n/a	wordpools/wordpool_categorized_EN.txt	DRESSER	Furniture	9	1	[0, 0, 0]	n/a	catFR1	1	R1383J
333.581	0.783	349131	WORD_OFF	n/a	n/a	DRESSER	Furniture	9	1	[0, 0, 0]	n/a	catFR1	1	R1383J
334.364	1.6	349914	WORD	n/a	wordpools/wordpool_categorized_EN.txt	TABLE	Furniture	10	1	[0, 0, 0]	n/a	catFR1	1	R1383J
335.964	0.784	351507	WORD_OFF	n/a	n/a	TABLE	Furniture	10	1	[0, 0, 0]	n/a	catFR1	1	R1383J
336.748	1.6	352290	WORD	n/a	wordpools/wordpool_categorized_EN.txt	LIGHTNING	Weather	11	1	[0, 0, 0]	n/a	catFR1	1	R1383J
338.364	0.983	353908	WORD_OFF	n/a	n/a	LIGHTNING	Weather	11	1	[0, 0, 0]	n/a	catFR1	1	R1383J
339.347	1.6	354892	WORD	n/a	wordpools/wordpool_categorized_EN.txt	CLOUD	Weather	12	1	[0, 0, 0]	n/a	catFR1	1	R1383J
340.947	0.002	356493	WORD_OFF	n/a	n/a	CLOUD	Weather	12	1	[0, 0, 0]	n/a	catFR1	1	R1383J
340.949	0.0	356493	ENCODING_END	n/a	n/a	n/a	n/a	-999	1	[0, 0, 0]	n/a	catFR1	1	R1383J
340.949	0.0	356493	DISTRACT_START	n/a	n/a	n/a	n/a	-999	1	[0, 0, 0]	n/a	catFR1	1	R1383J
340.948	0.001	356493	PROB	6.299	n/a	n/a	n/a	-999	1	[3, 8, 4]	15.0	catFR1	1	R1383J
340.949	6.316	356494	START	n/a	n/a	n/a	n/a	-999	1	[-999, -999, -999]	n/a	catFR1	1	R1383J
347.265	5.216	362809	PROB	5.199	n/a	n/a	n/a	-999	1	[4, 7, 1]	12.0	catFR1	1	R1383J
352.481	7.95	368025	PROB	7.934	n/a	n/a	n/a	-999	1	[7, 5, 2]	14.0	catFR1	1	R1383J
360.431	5.6	375975	PROB	5.584	n/a	n/a	n/a	-999	1	[3, 3, 6]	12.0	catFR1	1	R1383J
366.031	0.0	381572	DISTRACT_END	n/a	n/a	n/a	n/a	-999	1	[0, 0, 0]	n/a	catFR1	1	R1383J
366.031	1.4	381575	STOP	n/a	n/a	n/a	n/a	-999	1	[-999, -999, -999]	n/a	catFR1	1	R1383J
367.431	7.815	382972	REC_START	n/a	n/a	n/a	n/a	-999	1	[0, 0, 0]	n/a	catFR1	1	R1383J
375.246	0.662	390789	REC_WORD	7.815	n/a	PLIERS	Tools	4	1	[0, 0, 0]	n/a	catFR1	1	R1383J
375.908	0.669	391451	REC_WORD	8.477	n/a	HAMMER	Tools	3	1	[0, 0, 0]	n/a	catFR1	1	R1383J
376.577	1.602	392120	REC_WORD	9.146	n/a	CROWBAR	Tools	7	1	[0, 0, 0]	n/a	catFR1	1	R1383J
378.179	1.925	393722	REC_WORD	10.748	n/a	LIGHTNING	Weather	11	1	[0, 0, 0]	n/a	catFR1	1	R1383J
380.104	3.828	395647	REC_WORD	12.673	n/a	DRIZZLE	Weather	1	1	[0, 0, 0]	n/a	catFR1	1	R1383J
383.932	13.745	399475	REC_WORD	16.501	n/a	HUMIDITY	Weather	2	1	[0, 0, 0]	n/a	catFR1	1	R1383J
397.677	3.054	413220	REC_END	n/a	n/a	n/a	n/a	-999	1	[0, 0, 0]	n/a	catFR1	1	R1383J
400.731	10.0	416274	COUNTDOWN_START	n/a	n/a	n/a	n/a	-999	2	[0, 0, 0]	n/a	catFR1	1	R1383J
411.089	0.001	426629	COUNTDOWN_END	n/a	n/a	n/a	n/a	-999	2	[0, 0, 0]	n/a	catFR1	1	R1383J
411.09	2.157	426638	ENCODING_START	n/a	n/a	n/a	n/a	-999	2	[0, 0, 0]	n/a	catFR1	1	R1383J
413.247	1.6	428787	WORD	n/a	wordpools/wordpool_categorized_EN.txt	PASTRY	Desserts	1	2	[0, 0, 0]	n/a	catFR1	1	R1383J
414.847	0.967	430388	WORD_OFF	n/a	n/a	PASTRY	Desserts	1	2	[0, 0, 0]	n/a	catFR1	1	R1383J
415.814	1.6	431354	WORD	n/a	wordpools/wordpool_categorized_EN.txt	MOUSSE	Desserts	2	2	[0, 0, 0]	n/a	catFR1	1	R1383J
417.414	1.0	432955	WORD_OFF	n/a	n/a	MOUSSE	Desserts	2	2	[0, 0, 0]	n/a	catFR1	1	R1383J
418.414	1.6	433956	WORD	n/a	wordpools/wordpool_categorized_EN.txt	FOOT	Bodyparts	3	2	[0, 0, 0]	n/a	catFR1	1	R1383J
420.031	0.85	435574	WORD_OFF	n/a	n/a	FOOT	Bodyparts	3	2	[0, 0, 0]	n/a	catFR1	1	R1383J
420.881	1.6	436427	WORD	n/a	wordpools/wordpool_categorized_EN.txt	ELBOW	Bodyparts	4	2	[0, 0, 0]	n/a	catFR1	1	R1383J
422.498	0.849	438037	WORD_OFF	n/a	n/a	ELBOW	Bodyparts	4	2	[0, 0, 0]	n/a	catFR1	1	R1383J
423.347	1.6	438890	WORD	n/a	wordpools/wordpool_categorized_EN.txt	ANT	Insects	5	2	[0, 0, 0]	n/a	catFR1	1	R1383J
424.947	0.934	440491	WORD_OFF	n/a	n/a	ANT	Insects	5	2	[0, 0, 0]	n/a	catFR1	1	R1383J
425.881	1.6	441422	WORD	n/a	wordpools/wordpool_categorized_EN.txt	ROACH	Insects	6	2	[0, 0, 0]	n/a	catFR1	1	R1383J
427.497	0.801	443040	WORD_OFF	n/a	n/a	ROACH	Insects	6	2	[0, 0, 0]	n/a	catFR1	1	R1383J
428.298	1.6	443841	WORD	n/a	wordpools/wordpool_categorized_EN.txt	BROWNIES	Desserts	7	2	[0, 0, 0]	n/a	catFR1	1	R1383J
429.914	0.817	445459	WORD_OFF	n/a	n/a	BROWNIES	Desserts	7	2	[0, 0, 0]	n/a	catFR1	1	R1383J
430.731	1.6	446269	WORD	n/a	wordpools/wordpool_categorized_EN.txt	COOKIE	Desserts	8	2	[0, 0, 0]	n/a	catFR1	1	R1383J
432.348	0.966	447887	WORD_OFF	n/a	n/a	COOKIE	Desserts	8	2	[0, 0, 0]	n/a	catFR1	1	R1383J
433.314	1.6	448853	WORD	n/a	wordpools/wordpool_categorized_EN.txt	LEG	Bodyparts	9	2	[0, 0, 0]	n/a	catFR1	1	R1383J
434.914	0.767	450454	WORD_OFF	n/a	n/a	LEG	Bodyparts	9	2	[0, 0, 0]	n/a	catFR1	1	R1383J
435.681	1.6	451220	WORD	n/a	wordpools/wordpool_categorized_EN.txt	ARM	Bodyparts	10	2	[0, 0, 0]	n/a	catFR1	1	R1383J
437.297	0.967	452839	WORD_OFF	n/a	n/a	ARM	Bodyparts	10	2	[0, 0, 0]	n/a	catFR1	1	R1383J
438.264	1.6	453804	WORD	n/a	wordpools/wordpool_categorized_EN.txt	BUTTERFLY	Insects	11	2	[0, 0, 0]	n/a	catFR1	1	R1383J
439.864	0.766	455406	WORD_OFF	n/a	n/a	BUTTERFLY	Insects	11	2	[0, 0, 0]	n/a	catFR1	1	R1383J
440.63	1.6	456171	WORD	n/a	wordpools/wordpool_categorized_EN.txt	GNAT	Insects	12	2	[0, 0, 0]	n/a	catFR1	1	R1383J
442.231	0.001	457772	WORD_OFF	n/a	n/a	GNAT	Insects	12	2	[0, 0, 0]	n/a	catFR1	1	R1383J
442.232	0.0	457772	ENCODING_END	n/a	n/a	n/a	n/a	-999	2	[0, 0, 0]	n/a	catFR1	1	R1383J
442.232	0.0	457772	DISTRACT_START	n/a	n/a	n/a	n/a	-999	2	[0, 0, 0]	n/a	catFR1	1	R1383J
442.231	0.001	457772	PROB	7.283	n/a	n/a	n/a	-999	2	[8, 1, 7]	16.0	catFR1	1	R1383J
442.232	7.299	457773	START	n/a	n/a	n/a	n/a	-999	2	[-999, -999, -999]	n/a	catFR1	1	R1383J
449.531	9.5	465071	PROB	9.484	n/a	n/a	n/a	-999	2	[1, 8, 8]	17.0	catFR1	1	R1383J
459.031	6.599	474571	PROB	6.584	n/a	n/a	n/a	-999	2	[2, 4, 2]	8.0	catFR1	1	R1383J
465.63	0.0	481170	STOP	n/a	n/a	n/a	n/a	-999	2	[-999, -999, -999]	n/a	catFR1	1	R1383J
465.63	1.234	481171	DISTRACT_END	n/a	n/a	n/a	n/a	-999	2	[0, 0, 0]	n/a	catFR1	1	R1383J
466.864	4.839	482407	REC_START	n/a	n/a	n/a	n/a	-999	2	[0, 0, 0]	n/a	catFR1	1	R1383J
471.703	0.927	487242	REC_WORD	4.839	n/a	PASTRY	Desserts	1	2	[0, 0, 0]	n/a	catFR1	1	R1383J
472.63	1.353	488169	REC_WORD	5.766	n/a	BROWNIES	Desserts	7	2	[0, 0, 0]	n/a	catFR1	1	R1383J
473.983	0.759	489522	REC_WORD	7.119	n/a	ELBOW	Bodyparts	4	2	[0, 0, 0]	n/a	catFR1	1	R1383J
474.742	4.671	490281	REC_WORD	7.878	n/a	ARM	Bodyparts	10	2	[0, 0, 0]	n/a	catFR1	1	R1383J
479.413	1.079	494952	REC_WORD	12.549	n/a	ROACH	Insects	6	2	[0, 0, 0]	n/a	catFR1	1	R1383J
480.492	16.607	496031	REC_WORD	13.628	n/a	GNAT	Insects	12	2	[0, 0, 0]	n/a	catFR1	1	R1383J
497.099	3.149	512637	REC_END	n/a	n/a	n/a	n/a	-999	2	[0, 0, 0]	n/a	catFR1	1	R1383J
500.248	10.0	515787	COUNTDOWN_START	n/a	n/a	n/a	n/a	-999	3	[0, 0, 0]	n/a	catFR1	1	R1383J
510.607	0.0	526142	COUNTDOWN_END	n/a	n/a	n/a	n/a	-999	3	[0, 0, 0]	n/a	catFR1	1	R1383J
510.607	1.941	526151	ENCODING_START	n/a	n/a	n/a	n/a	-999	3	[0, 0, 0]	n/a	catFR1	1	R1383J
512.548	1.6	528086	WORD	n/a	wordpools/wordpool_categorized_EN.txt	CAR	Vehicles	1	3	[0, 0, 0]	n/a	catFR1	1	R1383J
514.148	0.917	529684	WORD_OFF	n/a	n/a	CAR	Vehicles	1	3	[0, 0, 0]	n/a	catFR1	1	R1383J
515.065	1.6	530606	WORD	n/a	wordpools/wordpool_categorized_EN.txt	JEEP	Vehicles	2	3	[0, 0, 0]	n/a	catFR1	1	R1383J
516.665	0.85	532207	WORD_OFF	n/a	n/a	JEEP	Vehicles	2	3	[0, 0, 0]	n/a	catFR1	1	R1383J
517.515	1.6	533051	WORD	n/a	wordpools/wordpool_categorized_EN.txt	NIGHTSTAND	Furniture	3	3	[0, 0, 0]	n/a	catFR1	1	R1383J
519.115	0.8	534652	WORD_OFF	n/a	n/a	NIGHTSTAND	Furniture	3	3	[0, 0, 0]	n/a	catFR1	1	R1383J
519.915	1.6	535453	WORD	n/a	wordpools/wordpool_categorized_EN.txt	BED	Furniture	4	3	[0, 0, 0]	n/a	catFR1	1	R1383J
521.531	0.9	537072	WORD_OFF	n/a	n/a	BED	Furniture	4	3	[0, 0, 0]	n/a	catFR1	1	R1383J
522.431	1.6	537968	WORD	n/a	wordpools/wordpool_categorized_EN.txt	RUM	Beverages	5	3	[0, 0, 0]	n/a	catFR1	1	R1383J
524.048	0.966	539586	WORD_OFF	n/a	n/a	RUM	Beverages	5	3	[0, 0, 0]	n/a	catFR1	1	R1383J
525.014	1.6	540552	WORD	n/a	wordpools/wordpool_categorized_EN.txt	BEER	Beverages	6	3	[0, 0, 0]	n/a	catFR1	1	R1383J
526.614	0.917	542153	WORD_OFF	n/a	n/a	BEER	Beverages	6	3	[0, 0, 0]	n/a	catFR1	1	R1383J
527.531	1.6	543067	WORD	n/a	wordpools/wordpool_categorized_EN.txt	BOAT	Vehicles	7	3	[0, 0, 0]	n/a	catFR1	1	R1383J
529.147	0.917	544686	WORD_OFF	n/a	n/a	BOAT	Vehicles	7	3	[0, 0, 0]	n/a	catFR1	1	R1383J
530.064	1.6	545599	WORD	n/a	wordpools/wordpool_categorized_EN.txt	SCOOTER	Vehicles	8	3	[0, 0, 0]	n/a	catFR1	1	R1383J
531.681	0.833	547218	WORD_OFF	n/a	n/a	SCOOTER	Vehicles	8	3	[0, 0, 0]	n/a	catFR1	1	R1383J
532.514	1.6	548053	WORD	n/a	wordpools/wordpool_categorized_EN.txt	WATER	Beverages	9	3	[0, 0, 0]	n/a	catFR1	1	R1383J
534.114	0.817	549654	WORD_OFF	n/a	n/a	WATER	Beverages	9	3	[0, 0, 0]	n/a	catFR1	1	R1383J
534.931	1.6	550472	WORD	n/a	wordpools/wordpool_categorized_EN.txt	SODA	Beverages	10	3	[0, 0, 0]	n/a	catFR1	1	R1383J
536.531	0.866	552065	WORD_OFF	n/a	n/a	SODA	Beverages	10	3	[0, 0, 0]	n/a	catFR1	1	R1383J
537.397	1.6	552935	WORD	n/a	wordpools/wordpool_categorized_EN.txt	DESK	Furniture	11	3	[0, 0, 0]	n/a	catFR1	1	R1383J
539.014	0.767	554553	WORD_OFF	n/a	n/a	DESK	Furniture	11	3	[0, 0, 0]	n/a	catFR1	1	R1383J
539.781	1.6	555319	WORD	n/a	wordpools/wordpool_categorized_EN.txt	RECLINER	Furniture	12	3	[0, 0, 0]	n/a	catFR1	1	R1383J
541.381	0.001	556918	PROB	9.2	n/a	n/a	n/a	-999	3	[7, 8, 4]	21.0	catFR1	1	R1383J
541.382	0.0	556919	START	n/a	n/a	n/a	n/a	-999	3	[-999, -999, -999]	n/a	catFR1	1	R1383J
541.381	0.001	556920	WORD_OFF	n/a	n/a	RECLINER	Furniture	12	3	[0, 0, 0]	n/a	catFR1	1	R1383J
541.382	0.0	556920	ENCODING_END	n/a	n/a	n/a	n/a	-999	3	[0, 0, 0]	n/a	catFR1	1	R1383J
541.382	9.215	556920	DISTRACT_START	n/a	n/a	n/a	n/a	-999	3	[0, 0, 0]	n/a	catFR1	1	R1383J
550.597	6.45	566133	PROB	6.433	n/a	n/a	n/a	-999	3	[8, 7, 7]	222.0	catFR1	1	R1383J
557.047	10.417	572583	PROB	10.401	n/a	n/a	n/a	-999	3	[1, 3, 1]	5.0	catFR1	1	R1383J
567.464	0.0	582999	DISTRACT_END	n/a	n/a	n/a	n/a	-999	3	[0, 0, 0]	n/a	catFR1	1	R1383J
567.464	1.234	583000	STOP	n/a	n/a	n/a	n/a	-999	3	[-999, -999, -999]	n/a	catFR1	1	R1383J
568.698	5.118	584235	REC_START	n/a	n/a	n/a	n/a	-999	3	[0, 0, 0]	n/a	catFR1	1	R1383J
573.816	1.134	589351	REC_WORD	5.118	n/a	DESK	Furniture	11	3	[0, 0, 0]	n/a	catFR1	1	R1383J
574.95	3.462	590485	REC_WORD	6.252	n/a	RECLINER	Furniture	12	3	[0, 0, 0]	n/a	catFR1	1	R1383J
578.412	0.673	593947	REC_WORD	9.714	n/a	CAR	Vehicles	1	3	[0, 0, 0]	n/a	catFR1	1	R1383J
579.085	1.536	594620	REC_WORD	10.387	n/a	JEEP	Vehicles	2	3	[0, 0, 0]	n/a	catFR1	1	R1383J
580.621	18.314	596156	REC_WORD	11.923	n/a	SCOOTER	Vehicles	8	3	[0, 0, 0]	n/a	catFR1	1	R1383J
598.935	3.097	614474	REC_END	n/a	n/a	n/a	n/a	-999	3	[0, 0, 0]	n/a	catFR1	1	R1383J
602.032	10.0	617571	COUNTDOWN_START	n/a	n/a	n/a	n/a	-999	4	[0, 0, 0]	n/a	catFR1	1	R1383J
612.389	0.0	627926	COUNTDOWN_END	n/a	n/a	n/a	n/a	-999	4	[0, 0, 0]	n/a	catFR1	1	R1383J
612.389	2.243	627926	ENCODING_START	n/a	n/a	n/a	n/a	-999	4	[0, 0, 0]	n/a	catFR1	1	R1383J
614.632	1.6	630163	WORD	n/a	wordpools/wordpool_categorized_EN.txt	STOVE	Appliances	1	4	[0, 0, 0]	n/a	catFR1	1	R1383J
616.248	0.85	631781	WORD_OFF	n/a	n/a	STOVE	Appliances	1	4	[0, 0, 0]	n/a	catFR1	1	R1383J
617.098	1.6	632634	WORD	n/a	wordpools/wordpool_categorized_EN.txt	VACUUM	Appliances	2	4	[0, 0, 0]	n/a	catFR1	1	R1383J
618.698	0.817	634235	WORD_OFF	n/a	n/a	VACUUM	Appliances	2	4	[0, 0, 0]	n/a	catFR1	1	R1383J
619.515	1.6	635053	WORD	n/a	wordpools/wordpool_categorized_EN.txt	CABINET	Furniture	3	4	[0, 0, 0]	n/a	catFR1	1	R1383J
621.115	0.867	636646	WORD_OFF	n/a	n/a	CABINET	Furniture	3	4	[0, 0, 0]	n/a	catFR1	1	R1383J
621.982	1.6	637516	WORD	n/a	wordpools/wordpool_categorized_EN.txt	BOOKCASE	Furniture	4	4	[0, 0, 0]	n/a	catFR1	1	R1383J
623.582	0.833	639117	WORD_OFF	n/a	n/a	BOOKCASE	Furniture	4	4	[0, 0, 0]	n/a	catFR1	1	R1383J
624.415	1.6	639952	WORD	n/a	wordpools/wordpool_categorized_EN.txt	BINDER	Officesupplies	5	4	[0, 0, 0]	n/a	catFR1	1	R1383J
626.015	0.9	641553	WORD_OFF	n/a	n/a	BINDER	Officesupplies	5	4	[0, 0, 0]	n/a	catFR1	1	R1383J
626.915	1.6	642450	WORD	n/a	wordpools/wordpool_categorized_EN.txt	NOTEBOOK	Officesupplies	6	4	[0, 0, 0]	n/a	catFR1	1	R1383J
628.532	0.95	644068	WORD_OFF	n/a	n/a	NOTEBOOK	Officesupplies	6	4	[0, 0, 0]	n/a	catFR1	1	R1383J
629.482	1.6	645017	WORD	n/a	wordpools/wordpool_categorized_EN.txt	FREEZER	Appliances	7	4	[0, 0, 0]	n/a	catFR1	1	R1383J
631.097	0.768	646635	WORD_OFF	n/a	n/a	FREEZER	Appliances	7	4	[0, 0, 0]	n/a	catFR1	1	R1383J
631.865	1.6	647401	WORD	n/a	wordpools/wordpool_categorized_EN.txt	DISHWASHER	Appliances	8	4	[0, 0, 0]	n/a	catFR1	1	R1383J
633.465	0.883	649002	WORD_OFF	n/a	n/a	DISHWASHER	Appliances	8	4	[0, 0, 0]	n/a	catFR1	1	R1383J
634.348	1.6	649881	WORD	n/a	wordpools/wordpool_categorized_EN.txt	CHAIR	Furniture	9	4	[0, 0, 0]	n/a	catFR1	1	R1383J
635.965	0.982	651500	WORD_OFF	n/a	n/a	CHAIR	Furniture	9	4	[0, 0, 0]	n/a	catFR1	1	R1383J
636.947	1.6	652483	WORD	n/a	wordpools/wordpool_categorized_EN.txt	COUCH	Furniture	10	4	[0, 0, 0]	n/a	catFR1	1	R1383J
638.548	0.867	654084	WORD_OFF	n/a	n/a	COUCH	Furniture	10	4	[0, 0, 0]	n/a	catFR1	1	R1383J
639.415	1.6	654945	WORD	n/a	wordpools/wordpool_categorized_EN.txt	GLUE	Officesupplies	11	4	[0, 0, 0]	n/a	catFR1	1	R1383J
641.031	1.0	656564	WORD_OFF	n/a	n/a	GLUE	Officesupplies	11	4	[0, 0, 0]	n/a	catFR1	1	R1383J
642.031	1.6	657565	WORD	n/a	wordpools/wordpool_categorized_EN.txt	MARKER	Officesupplies	12	4	[0, 0, 0]	n/a	catFR1	1	R1383J
643.632	0.001	659164	PROB	7.032	n/a	n/a	n/a	-999	4	[4, 4, 8]	16.0	catFR1	1	R1383J
643.633	0.0	659165	START	n/a	n/a	n/a	n/a	-999	4	[-999, -999, -999]	n/a	catFR1	1	R1383J
643.631	0.002	659166	WORD_OFF	n/a	n/a	MARKER	Officesupplies	12	4	[0, 0, 0]	n/a	catFR1	1	R1383J
643.633	0.0	659166	ENCODING_END	n/a	n/a	n/a	n/a	-999	4	[0, 0, 0]	n/a	catFR1	1	R1383J
643.633	7.048	659166	DISTRACT_START	n/a	n/a	n/a	n/a	-999	4	[0, 0, 0]	n/a	catFR1	1	R1383J
650.681	4.434	666213	PROB	4.417	n/a	n/a	n/a	-999	4	[1, 1, 5]	7.0	catFR1	1	R1383J
655.115	5.566	670647	PROB	5.549	n/a	n/a	n/a	-999	4	[6, 8, 7]	21.0	catFR1	1	R1383J
660.681	3.317	676213	PROB	3.3	n/a	n/a	n/a	-999	4	[3, 4, 6]	11.0	catFR1	1	R1383J
663.998	0.0	679528	DISTRACT_END	n/a	n/a	n/a	n/a	-999	4	[0, 0, 0]	n/a	catFR1	1	R1383J
663.998	1.3	679530	STOP	n/a	n/a	n/a	n/a	-999	4	[-999, -999, -999]	n/a	catFR1	1	R1383J
665.298	4.246	680833	REC_START	n/a	n/a	n/a	n/a	-999	4	[0, 0, 0]	n/a	catFR1	1	R1383J
669.544	1.201	685075	REC_WORD	4.246	n/a	STOVE	Appliances	1	4	[0, 0, 0]	n/a	catFR1	1	R1383J
670.745	1.599	686276	REC_WORD	5.447	n/a	DISHWASHER	Appliances	8	4	[0, 0, 0]	n/a	catFR1	1	R1383J
672.344	2.612	687875	REC_WORD	7.046	n/a	BINDER	Officesupplies	5	4	[0, 0, 0]	n/a	catFR1	1	R1383J
674.956	20.562	690487	REC_WORD	9.658	n/a	BOOKCASE	Furniture	4	4	[0, 0, 0]	n/a	catFR1	1	R1383J
695.518	5.014	711046	REC_END	n/a	n/a	n/a	n/a	-999	4	[0, 0, 0]	n/a	catFR1	1	R1383J
700.532	10.0	716066	COUNTDOWN_START	n/a	n/a	n/a	n/a	-999	5	[0, 0, 0]	n/a	catFR1	1	R1383J
710.891	0.0	726422	COUNTDOWN_END	n/a	n/a	n/a	n/a	-999	5	[0, 0, 0]	n/a	catFR1	1	R1383J
710.891	1.99	726422	ENCODING_START	n/a	n/a	n/a	n/a	-999	5	[0, 0, 0]	n/a	catFR1	1	R1383J
712.881	1.6	728414	WORD	n/a	wordpools/wordpool_categorized_EN.txt	DOLL	Toys	1	5	[0, 0, 0]	n/a	catFR1	1	R1383J
714.481	0.85	730015	WORD_OFF	n/a	n/a	DOLL	Toys	1	5	[0, 0, 0]	n/a	catFR1	1	R1383J
715.331	1.6	730859	WORD	n/a	wordpools/wordpool_categorized_EN.txt	BARBIE	Toys	2	5	[0, 0, 0]	n/a	catFR1	1	R1383J
716.947	0.817	732478	WORD_OFF	n/a	n/a	BARBIE	Toys	2	5	[0, 0, 0]	n/a	catFR1	1	R1383J
717.764	1.6	733296	WORD	n/a	wordpools/wordpool_categorized_EN.txt	CELLO	Instruments	3	5	[0, 0, 0]	n/a	catFR1	1	R1383J
719.364	0.767	734897	WORD_OFF	n/a	n/a	CELLO	Instruments	3	5	[0, 0, 0]	n/a	catFR1	1	R1383J
720.131	1.6	735663	WORD	n/a	wordpools/wordpool_categorized_EN.txt	TUBA	Instruments	4	5	[0, 0, 0]	n/a	catFR1	1	R1383J
721.731	0.95	737264	WORD_OFF	n/a	n/a	TUBA	Instruments	4	5	[0, 0, 0]	n/a	catFR1	1	R1383J
722.681	1.6	738212	WORD	n/a	wordpools/wordpool_categorized_EN.txt	HURRICANE	Weather	5	5	[0, 0, 0]	n/a	catFR1	1	R1383J
724.281	1.0	739814	WORD_OFF	n/a	n/a	HURRICANE	Weather	5	5	[0, 0, 0]	n/a	catFR1	1	R1383J
725.281	1.6	740814	WORD	n/a	wordpools/wordpool_categorized_EN.txt	THUNDER	Weather	6	5	[0, 0, 0]	n/a	catFR1	1	R1383J
726.881	0.833	742407	WORD_OFF	n/a	n/a	THUNDER	Weather	6	5	[0, 0, 0]	n/a	catFR1	1	R1383J
727.714	1.6	743242	WORD	n/a	wordpools/wordpool_categorized_EN.txt	DOLLHOUSE	Toys	7	5	[0, 0, 0]	n/a	catFR1	1	R1383J
729.331	0.966	744861	WORD_OFF	n/a	n/a	DOLLHOUSE	Toys	7	5	[0, 0, 0]	n/a	catFR1	1	R1383J
730.297	1.6	745826	WORD	n/a	wordpools/wordpool_categorized_EN.txt	FRISBEE	Toys	8	5	[0, 0, 0]	n/a	catFR1	1	R1383J
731.897	0.85	747428	WORD_OFF	n/a	n/a	FRISBEE	Toys	8	5	[0, 0, 0]	n/a	catFR1	1	R1383J
732.747	1.6	748280	WORD	n/a	wordpools/wordpool_categorized_EN.txt	FOG	Weather	9	5	[0, 0, 0]	n/a	catFR1	1	R1383J
734.364	0.883	749890	WORD_OFF	n/a	n/a	FOG	Weather	9	5	[0, 0, 0]	n/a	catFR1	1	R1383J
735.247	1.6	750778	WORD	n/a	wordpools/wordpool_categorized_EN.txt	RAIN	Weather	10	5	[0, 0, 0]	n/a	catFR1	1	R1383J
736.847	0.833	752379	WORD_OFF	n/a	n/a	RAIN	Weather	10	5	[0, 0, 0]	n/a	catFR1	1	R1383J
737.68	1.6	753214	WORD	n/a	wordpools/wordpool_categorized_EN.txt	FLUTE	Instruments	11	5	[0, 0, 0]	n/a	catFR1	1	R1383J
739.281	0.85	754807	WORD_OFF	n/a	n/a	FLUTE	Instruments	11	5	[0, 0, 0]	n/a	catFR1	1	R1383J
740.131	1.6	755659	WORD	n/a	wordpools/wordpool_categorized_EN.txt	TRUMPET	Instruments	12	5	[0, 0, 0]	n/a	catFR1	1	R1383J
741.747	0.001	757276	PROB	8.7	n/a	n/a	n/a	-999	5	[6, 1, 4]	11.0	catFR1	1	R1383J
741.748	0.0	757277	START	n/a	n/a	n/a	n/a	-999	5	[-999, -999, -999]	n/a	catFR1	1	R1383J
741.747	0.001	757278	WORD_OFF	n/a	n/a	TRUMPET	Instruments	12	5	[0, 0, 0]	n/a	catFR1	1	R1383J
741.748	0.0	757278	ENCODING_END	n/a	n/a	n/a	n/a	-999	5	[0, 0, 0]	n/a	catFR1	1	R1383J
741.748	8.718	757278	DISTRACT_START	n/a	n/a	n/a	n/a	-999	5	[0, 0, 0]	n/a	catFR1	1	R1383J
750.466	9.115	765994	PROB	9.099	n/a	n/a	n/a	-999	5	[8, 2, 1]	11.0	catFR1	1	R1383J
759.581	9.901	775109	PROB	9.883	n/a	n/a	n/a	-999	5	[5, 4, 1]	1.0	catFR1	1	R1383J
769.482	0.0	785009	STOP	n/a	n/a	n/a	n/a	-999	5	[-999, -999, -999]	n/a	catFR1	1	R1383J
769.482	1.149	785010	DISTRACT_END	n/a	n/a	n/a	n/a	-999	5	[0, 0, 0]	n/a	catFR1	1	R1383J
770.631	4.613	786159	REC_START	n/a	n/a	n/a	n/a	-999	5	[0, 0, 0]	n/a	catFR1	1	R1383J
775.244	0.922	790771	REC_WORD	4.613	n/a	DOLL	Toys	1	5	[0, 0, 0]	n/a	catFR1	1	R1383J
776.166	13.261	791693	REC_WORD	5.535	n/a	BARBIE	Toys	2	5	[0, 0, 0]	n/a	catFR1	1	R1383J
789.427	0.603	804954	REC_WORD	18.796	n/a	RAIN	Weather	10	5	[0, 0, 0]	n/a	catFR1	1	R1383J
790.03	2.226	805557	REC_WORD	19.399	n/a	THUNDER	Weather	6	5	[0, 0, 0]	n/a	catFR1	1	R1383J
792.256	8.626	807783	REC_WORD	21.625	n/a	FRISBEE	Toys	8	5	[0, 0, 0]	n/a	catFR1	1	R1383J
800.882	14.183	816406	REC_END	n/a	n/a	n/a	n/a	-999	5	[0, 0, 0]	n/a	catFR1	1	R1383J
815.065	10.0	830590	COUNTDOWN_START	n/a	n/a	n/a	n/a	-999	6	[0, 0, 0]	n/a	catFR1	1	R1383J
825.425	0.0	840954	COUNTDOWN_END	n/a	n/a	n/a	n/a	-999	6	[0, 0, 0]	n/a	catFR1	1	R1383J
825.425	2.04	840954	ENCODING_START	n/a	n/a	n/a	n/a	-999	6	[0, 0, 0]	n/a	catFR1	1	R1383J
827.465	1.6	842990	WORD	n/a	wordpools/wordpool_categorized_EN.txt	BEETLE	Insects	1	6	[0, 0, 0]	n/a	catFR1	1	R1383J
829.065	0.95	844591	WORD_OFF	n/a	n/a	BEETLE	Insects	1	6	[0, 0, 0]	n/a	catFR1	1	R1383J
830.015	1.6	845540	WORD	n/a	wordpools/wordpool_categorized_EN.txt	BEE	Insects	2	6	[0, 0, 0]	n/a	catFR1	1	R1383J
831.631	1.0	847158	WORD_OFF	n/a	n/a	BEE	Insects	2	6	[0, 0, 0]	n/a	catFR1	1	R1383J
832.631	1.6	848159	WORD	n/a	wordpools/wordpool_categorized_EN.txt	CORN	Vegetables	3	6	[0, 0, 0]	n/a	catFR1	1	R1383J
834.232	0.983	849760	WORD_OFF	n/a	n/a	CORN	Vegetables	3	6	[0, 0, 0]	n/a	catFR1	1	R1383J
835.215	1.6	850743	WORD	n/a	wordpools/wordpool_categorized_EN.txt	CAULIFLOWER	Vegetables	4	6	[0, 0, 0]	n/a	catFR1	1	R1383J
836.815	0.85	852336	WORD_OFF	n/a	n/a	CAULIFLOWER	Vegetables	4	6	[0, 0, 0]	n/a	catFR1	1	R1383J
837.665	1.6	853189	WORD	n/a	wordpools/wordpool_categorized_EN.txt	ORANGE	Fruit	5	6	[0, 0, 0]	n/a	catFR1	1	R1383J
839.265	0.966	854790	WORD_OFF	n/a	n/a	ORANGE	Fruit	5	6	[0, 0, 0]	n/a	catFR1	1	R1383J
840.231	1.6	855756	WORD	n/a	wordpools/wordpool_categorized_EN.txt	LIME	Fruit	6	6	[0, 0, 0]	n/a	catFR1	1	R1383J
841.848	0.983	857374	WORD_OFF	n/a	n/a	LIME	Fruit	6	6	[0, 0, 0]	n/a	catFR1	1	R1383J
842.831	1.6	858357	WORD	n/a	wordpools/wordpool_categorized_EN.txt	MOSQUITO	Insects	7	6	[0, 0, 0]	n/a	catFR1	1	R1383J
844.431	0.95	859959	WORD_OFF	n/a	n/a	MOSQUITO	Insects	7	6	[0, 0, 0]	n/a	catFR1	1	R1383J
845.381	1.6	860907	WORD	n/a	wordpools/wordpool_categorized_EN.txt	CRICKET	Insects	8	6	[0, 0, 0]	n/a	catFR1	1	R1383J
846.981	0.884	862508	WORD_OFF	n/a	n/a	CRICKET	Insects	8	6	[0, 0, 0]	n/a	catFR1	1	R1383J
847.865	1.6	863387	WORD	n/a	wordpools/wordpool_categorized_EN.txt	SPINACH	Vegetables	9	6	[0, 0, 0]	n/a	catFR1	1	R1383J
849.465	0.783	864988	WORD_OFF	n/a	n/a	SPINACH	Vegetables	9	6	[0, 0, 0]	n/a	catFR1	1	R1383J
850.248	1.6	865771	WORD	n/a	wordpools/wordpool_categorized_EN.txt	LETTUCE	Vegetables	10	6	[0, 0, 0]	n/a	catFR1	1	R1383J
851.865	0.833	867390	WORD_OFF	n/a	n/a	LETTUCE	Vegetables	10	6	[0, 0, 0]	n/a	catFR1	1	R1383J
852.698	1.6	868225	WORD	n/a	wordpools/wordpool_categorized_EN.txt	BLUEBERRY	Fruit	11	6	[0, 0, 0]	n/a	catFR1	1	R1383J
854.298	0.783	869826	WORD_OFF	n/a	n/a	BLUEBERRY	Fruit	11	6	[0, 0, 0]	n/a	catFR1	1	R1383J
855.081	1.6	870610	WORD	n/a	wordpools/wordpool_categorized_EN.txt	PEACH	Fruit	12	6	[0, 0, 0]	n/a	catFR1	1	R1383J
856.681	0.001	872202	WORD_OFF	n/a	n/a	PEACH	Fruit	12	6	[0, 0, 0]	n/a	catFR1	1	R1383J
856.682	0.0	872206	PROB	8.316	n/a	n/a	n/a	-999	6	[5, 7, 2]	14.0	catFR1	1	R1383J
856.682	0.0	872206	START	n/a	n/a	n/a	n/a	-999	6	[-999, -999, -999]	n/a	catFR1	1	R1383J
856.682	0.0	872211	ENCODING_END	n/a	n/a	n/a	n/a	-999	6	[0, 0, 0]	n/a	catFR1	1	R1383J
856.682	8.333	872211	DISTRACT_START	n/a	n/a	n/a	n/a	-999	6	[0, 0, 0]	n/a	catFR1	1	R1383J
865.015	7.35	880539	PROB	7.333	n/a	n/a	n/a	-999	6	[5, 3, 2]	1.0	catFR1	1	R1383J
872.365	4.466	887888	PROB	4.45	n/a	n/a	n/a	-999	6	[4, 6, 3]	13.0	catFR1	1	R1383J
876.831	0.0	892354	STOP	n/a	n/a	n/a	n/a	-999	6	[-999, -999, -999]	n/a	catFR1	1	R1383J
876.831	1.099	892355	DISTRACT_END	n/a	n/a	n/a	n/a	-999	6	[0, 0, 0]	n/a	catFR1	1	R1383J
877.93	8.196	893452	REC_START	n/a	n/a	n/a	n/a	-999	6	[0, 0, 0]	n/a	catFR1	1	R1383J
886.126	22.04	901649	REC_WORD	8.196	n/a	LIME	Fruit	6	6	[0, 0, 0]	n/a	catFR1	1	R1383J
908.166	4.766	923690	REC_END	n/a	n/a	n/a	n/a	-999	6	[0, 0, 0]	n/a	catFR1	1	R1383J
912.932	10.0	928459	COUNTDOWN_START	n/a	n/a	n/a	n/a	-999	7	[0, 0, 0]	n/a	catFR1	1	R1383J
923.291	0.0	938814	COUNTDOWN_END	n/a	n/a	n/a	n/a	-999	7	[0, 0, 0]	n/a	catFR1	1	R1383J
923.291	2.224	938814	ENCODING_START	n/a	n/a	n/a	n/a	-999	7	[0, 0, 0]	n/a	catFR1	1	R1383J
925.515	1.6	941033	WORD	n/a	wordpools/wordpool_categorized_EN.txt	FOLDER	Officesupplies	1	7	[0, 0, 0]	n/a	catFR1	1	R1383J
927.115	0.85	942634	WORD_OFF	n/a	n/a	FOLDER	Officesupplies	1	7	[0, 0, 0]	n/a	catFR1	1	R1383J
927.965	1.6	943487	WORD	n/a	wordpools/wordpool_categorized_EN.txt	ERASER	Officesupplies	2	7	[0, 0, 0]	n/a	catFR1	1	R1383J
929.565	0.983	945088	WORD_OFF	n/a	n/a	ERASER	Officesupplies	2	7	[0, 0, 0]	n/a	catFR1	1	R1383J
930.548	1.6	946071	WORD	n/a	wordpools/wordpool_categorized_EN.txt	OAK	Trees	3	7	[0, 0, 0]	n/a	catFR1	1	R1383J
932.164	0.884	947681	WORD_OFF	n/a	n/a	OAK	Trees	3	7	[0, 0, 0]	n/a	catFR1	1	R1383J
933.048	1.6	948569	WORD	n/a	wordpools/wordpool_categorized_EN.txt	EVERGREEN	Trees	4	7	[0, 0, 0]	n/a	catFR1	1	R1383J
934.665	0.966	950187	WORD_OFF	n/a	n/a	EVERGREEN	Trees	4	7	[0, 0, 0]	n/a	catFR1	1	R1383J
935.631	1.6	951153	WORD	n/a	wordpools/wordpool_categorized_EN.txt	TORNADO	Weather	5	7	[0, 0, 0]	n/a	catFR1	1	R1383J
937.232	0.983	952754	WORD_OFF	n/a	n/a	TORNADO	Weather	5	7	[0, 0, 0]	n/a	catFR1	1	R1383J
938.215	1.6	953737	WORD	n/a	wordpools/wordpool_categorized_EN.txt	WIND	Weather	6	7	[0, 0, 0]	n/a	catFR1	1	R1383J
939.815	0.949	955338	WORD_OFF	n/a	n/a	WIND	Weather	6	7	[0, 0, 0]	n/a	catFR1	1	R1383J
940.764	1.6	956287	WORD	n/a	wordpools/wordpool_categorized_EN.txt	ELM	Trees	7	7	[0, 0, 0]	n/a	catFR1	1	R1383J
942.365	0.766	957888	WORD_OFF	n/a	n/a	ELM	Trees	7	7	[0, 0, 0]	n/a	catFR1	1	R1383J
943.131	1.6	958654	WORD	n/a	wordpools/wordpool_categorized_EN.txt	WALNUT	Trees	8	7	[0, 0, 0]	n/a	catFR1	1	R1383J
944.732	0.999	960255	WORD_OFF	n/a	n/a	WALNUT	Trees	8	7	[0, 0, 0]	n/a	catFR1	1	R1383J
945.731	1.6	961256	WORD	n/a	wordpools/wordpool_categorized_EN.txt	PENCIL	Officesupplies	9	7	[0, 0, 0]	n/a	catFR1	1	R1383J
947.348	0.95	962865	WORD_OFF	n/a	n/a	PENCIL	Officesupplies	9	7	[0, 0, 0]	n/a	catFR1	1	R1383J
948.298	1.6	963823	WORD	n/a	wordpools/wordpool_categorized_EN.txt	PAPER	Officesupplies	10	7	[0, 0, 0]	n/a	catFR1	1	R1383J
949.915	0.9	965432	WORD_OFF	n/a	n/a	PAPER	Officesupplies	10	7	[0, 0, 0]	n/a	catFR1	1	R1383J
950.815	1.6	966337	WORD	n/a	wordpools/wordpool_categorized_EN.txt	SNOW	Weather	11	7	[0, 0, 0]	n/a	catFR1	1	R1383J
952.415	0.833	967939	WORD_OFF	n/a	n/a	SNOW	Weather	11	7	[0, 0, 0]	n/a	catFR1	1	R1383J
953.248	1.6	968765	WORD	n/a	wordpools/wordpool_categorized_EN.txt	THUNDERSTORM	Weather	12	7	[0, 0, 0]	n/a	catFR1	1	R1383J
954.865	0.001	970384	WORD_OFF	n/a	n/a	THUNDERSTORM	Weather	12	7	[0, 0, 0]	n/a	catFR1	1	R1383J
954.866	0.0	970384	ENCODING_END	n/a	n/a	n/a	n/a	-999	7	[0, 0, 0]	n/a	catFR1	1	R1383J
954.865	0.001	970385	PROB	5.316	n/a	n/a	n/a	-999	7	[5, 3, 5]	13.0	catFR1	1	R1383J
954.866	0.0	970386	START	n/a	n/a	n/a	n/a	-999	7	[-999, -999, -999]	n/a	catFR1	1	R1383J
954.866	5.332	970392	DISTRACT_START	n/a	n/a	n/a	n/a	-999	7	[0, 0, 0]	n/a	catFR1	1	R1383J
960.198	4.951	975718	PROB	4.932	n/a	n/a	n/a	-999	7	[6, 4, 2]	12.0	catFR1	1	R1383J
965.149	6.7	980669	PROB	6.683	n/a	n/a	n/a	-999	7	[2, 6, 7]	15.0	catFR1	1	R1383J
971.849	9.115	987368	PROB	9.098	n/a	n/a	n/a	-999	7	[8, 7, 4]	19.0	catFR1	1	R1383J
980.964	0.0	996480	DISTRACT_END	n/a	n/a	n/a	n/a	-999	7	[0, 0, 0]	n/a	catFR1	1	R1383J
980.964	1.234	996483	STOP	n/a	n/a	n/a	n/a	-999	7	[-999, -999, -999]	n/a	catFR1	1	R1383J
982.198	4.797	997716	REC_START	n/a	n/a	n/a	n/a	-999	7	[0, 0, 0]	n/a	catFR1	1	R1383J
986.995	1.19	1002514	REC_WORD	4.797	n/a	TORNADO	Weather	5	7	[0, 0, 0]	n/a	catFR1	1	R1383J
988.185	3.982	1003704	REC_WORD	5.987	n/a	THUNDERSTORM	Weather	12	7	[0, 0, 0]	n/a	catFR1	1	R1383J
992.167	0.917	1007685	REC_WORD	9.969	n/a	OAK	Trees	3	7	[0, 0, 0]	n/a	catFR1	1	R1383J
993.084	1.386	1008602	REC_WORD	10.886	n/a	ELM	Trees	7	7	[0, 0, 0]	n/a	catFR1	1	R1383J
994.47	1.365	1009988	REC_WORD	12.272	n/a	WALNUT	Trees	8	7	[0, 0, 0]	n/a	catFR1	1	R1383J
995.835	1.253	1011353	REC_WORD	13.637	n/a	DESK	Furniture	-999	7	[0, 0, 0]	n/a	catFR1	1	R1383J
997.088	15.344	1012606	REC_WORD	14.89	n/a	ERASER	Officesupplies	2	7	[0, 0, 0]	n/a	catFR1	1	R1383J
1012.432	4.016	1027946	REC_END	n/a	n/a	n/a	n/a	-999	7	[0, 0, 0]	n/a	catFR1	1	R1383J
1016.448	10.0	1031966	COUNTDOWN_START	n/a	n/a	n/a	n/a	-999	8	[0, 0, 0]	n/a	catFR1	1	R1383J
1026.809	0.0	1042330	COUNTDOWN_END	n/a	n/a	n/a	n/a	-999	8	[0, 0, 0]	n/a	catFR1	1	R1383J
1026.809	2.056	1042330	ENCODING_START	n/a	n/a	n/a	n/a	-999	8	[0, 0, 0]	n/a	catFR1	1	R1383J
1028.865	1.6	1044383	WORD	n/a	wordpools/wordpool_categorized_EN.txt	NOSE	Bodyparts	1	8	[0, 0, 0]	n/a	catFR1	1	R1383J
1030.465	0.833	1045985	WORD_OFF	n/a	n/a	NOSE	Bodyparts	1	8	[0, 0, 0]	n/a	catFR1	1	R1383J
1031.298	1.6	1046820	WORD	n/a	wordpools/wordpool_categorized_EN.txt	HEAD	Bodyparts	2	8	[0, 0, 0]	n/a	catFR1	1	R1383J
1032.898	0.867	1048412	WORD_OFF	n/a	n/a	HEAD	Bodyparts	2	8	[0, 0, 0]	n/a	catFR1	1	R1383J
1033.765	1.6	1049283	WORD	n/a	wordpools/wordpool_categorized_EN.txt	BANJO	Instruments	3	8	[0, 0, 0]	n/a	catFR1	1	R1383J
1035.365	0.85	1050884	WORD_OFF	n/a	n/a	BANJO	Instruments	3	8	[0, 0, 0]	n/a	catFR1	1	R1383J
1036.215	1.6	1051736	WORD	n/a	wordpools/wordpool_categorized_EN.txt	BASS	Instruments	4	8	[0, 0, 0]	n/a	catFR1	1	R1383J
1037.815	0.916	1053329	WORD_OFF	n/a	n/a	BASS	Instruments	4	8	[0, 0, 0]	n/a	catFR1	1	R1383J
1038.731	1.6	1054251	WORD	n/a	wordpools/wordpool_categorized_EN.txt	BALL	Toys	5	8	[0, 0, 0]	n/a	catFR1	1	R1383J
1040.331	0.85	1055852	WORD_OFF	n/a	n/a	BALL	Toys	5	8	[0, 0, 0]	n/a	catFR1	1	R1383J
1041.181	1.6	1056696	WORD	n/a	wordpools/wordpool_categorized_EN.txt	FOOTBALL	Toys	6	8	[0, 0, 0]	n/a	catFR1	1	R1383J
1042.782	0.933	1058298	WORD_OFF	n/a	n/a	FOOTBALL	Toys	6	8	[0, 0, 0]	n/a	catFR1	1	R1383J
1043.715	1.6	1059229	WORD	n/a	wordpools/wordpool_categorized_EN.txt	EAR	Bodyparts	7	8	[0, 0, 0]	n/a	catFR1	1	R1383J
1045.33	0.785	1060847	WORD_OFF	n/a	n/a	EAR	Bodyparts	7	8	[0, 0, 0]	n/a	catFR1	1	R1383J
1046.115	1.6	1061630	WORD	n/a	wordpools/wordpool_categorized_EN.txt	FINGERS	Bodyparts	8	8	[0, 0, 0]	n/a	catFR1	1	R1383J
1047.715	0.766	1063231	WORD_OFF	n/a	n/a	FINGERS	Bodyparts	8	8	[0, 0, 0]	n/a	catFR1	1	R1383J
1048.481	1.6	1063997	WORD	n/a	wordpools/wordpool_categorized_EN.txt	DRUM	Instruments	9	8	[0, 0, 0]	n/a	catFR1	1	R1383J
1050.081	0.8	1065598	WORD_OFF	n/a	n/a	DRUM	Instruments	9	8	[0, 0, 0]	n/a	catFR1	1	R1383J
1050.881	1.6	1066399	WORD	n/a	wordpools/wordpool_categorized_EN.txt	PIANO	Instruments	10	8	[0, 0, 0]	n/a	catFR1	1	R1383J
1052.498	0.999	1068017	WORD_OFF	n/a	n/a	PIANO	Instruments	10	8	[0, 0, 0]	n/a	catFR1	1	R1383J
1053.497	1.6	1069009	WORD	n/a	wordpools/wordpool_categorized_EN.txt	BASEBALL	Toys	11	8	[0, 0, 0]	n/a	catFR1	1	R1383J
1055.098	0.882	1070619	WORD_OFF	n/a	n/a	BASEBALL	Toys	11	8	[0, 0, 0]	n/a	catFR1	1	R1383J
1055.98	1.6	1071498	WORD	n/a	wordpools/wordpool_categorized_EN.txt	SLINKY	Toys	12	8	[0, 0, 0]	n/a	catFR1	1	R1383J
1057.582	0.0	1073098	PROB	7.849	n/a	n/a	n/a	-999	8	[6, 1, 7]	14.0	catFR1	1	R1383J
1057.582	0.001	1073099	WORD_OFF	n/a	n/a	SLINKY	Toys	12	8	[0, 0, 0]	n/a	catFR1	1	R1383J
1057.583	0.0	1073099	ENCODING_END	n/a	n/a	n/a	n/a	-999	8	[0, 0, 0]	n/a	catFR1	1	R1383J
1057.583	0.0	1073099	DISTRACT_START	n/a	n/a	n/a	n/a	-999	8	[0, 0, 0]	n/a	catFR1	1	R1383J
1057.583	7.866	1073099	START	n/a	n/a	n/a	n/a	-999	8	[-999, -999, -999]	n/a	catFR1	1	R1383J
1065.449	11.365	1080965	PROB	11.349	n/a	n/a	n/a	-999	8	[6, 8, 5]	19.0	catFR1	1	R1383J
1076.814	6.201	1092329	PROB	6.183	n/a	n/a	n/a	-999	8	[2, 2, 3]	7.0	catFR1	1	R1383J
1083.015	0.0	1098526	DISTRACT_END	n/a	n/a	n/a	n/a	-999	8	[0, 0, 0]	n/a	catFR1	1	R1383J
1083.015	1.1	1098530	STOP	n/a	n/a	n/a	n/a	-999	8	[-999, -999, -999]	n/a	catFR1	1	R1383J
1084.115	11.824	1099631	REC_START	n/a	n/a	n/a	n/a	-999	8	[0, 0, 0]	n/a	catFR1	1	R1383J
1095.939	1.0	1111453	REC_WORD	11.824	n/a	SLINKY	Toys	12	8	[0, 0, 0]	n/a	catFR1	1	R1383J
1096.939	0.573	1112453	REC_WORD_VV	12.824	n/a	<>	n/a	-999	8	[0, 0, 0]	n/a	catFR1	1	R1383J
1097.512	0.909	1113026	REC_WORD	13.397	n/a	HEAD	Bodyparts	2	8	[0, 0, 0]	n/a	catFR1	1	R1383J
1098.421	0.985	1113935	REC_WORD	14.306	n/a	EAR	Bodyparts	7	8	[0, 0, 0]	n/a	catFR1	1	R1383J
1099.406	14.943	1114920	REC_WORD	15.291	n/a	NOSE	Bodyparts	1	8	[0, 0, 0]	n/a	catFR1	1	R1383J
1114.349	11.966	1129861	REC_END	n/a	n/a	n/a	n/a	-999	8	[0, 0, 0]	n/a	catFR1	1	R1383J
1126.315	10.0	1141834	COUNTDOWN_START	n/a	n/a	n/a	n/a	-999	9	[0, 0, 0]	n/a	catFR1	1	R1383J
1136.676	0.0	1152189	COUNTDOWN_END	n/a	n/a	n/a	n/a	-999	9	[0, 0, 0]	n/a	catFR1	1	R1383J
1136.676	2.122	1152189	ENCODING_START	n/a	n/a	n/a	n/a	-999	9	[0, 0, 0]	n/a	catFR1	1	R1383J
1138.798	1.6	1154313	WORD	n/a	wordpools/wordpool_categorized_EN.txt	ORCHID	Flowers	1	9	[0, 0, 0]	n/a	catFR1	1	R1383J
1140.398	0.817	1155914	WORD_OFF	n/a	n/a	ORCHID	Flowers	1	9	[0, 0, 0]	n/a	catFR1	1	R1383J
1141.215	1.6	1156723	WORD	n/a	wordpools/wordpool_categorized_EN.txt	MARIGOLD	Flowers	2	9	[0, 0, 0]	n/a	catFR1	1	R1383J
1142.83	0.885	1158342	WORD_OFF	n/a	n/a	MARIGOLD	Flowers	2	9	[0, 0, 0]	n/a	catFR1	1	R1383J
1143.715	1.6	1159229	WORD	n/a	wordpools/wordpool_categorized_EN.txt	FOUNDATION	Building	3	9	[0, 0, 0]	n/a	catFR1	1	R1383J
1145.315	0.816	1160830	WORD_OFF	n/a	n/a	FOUNDATION	Building	3	9	[0, 0, 0]	n/a	catFR1	1	R1383J
1146.131	1.6	1161648	WORD	n/a	wordpools/wordpool_categorized_EN.txt	WINDOW	Building	4	9	[0, 0, 0]	n/a	catFR1	1	R1383J
1147.747	0.951	1163258	WORD_OFF	n/a	n/a	WINDOW	Building	4	9	[0, 0, 0]	n/a	catFR1	1	R1383J
1148.698	1.6	1164215	WORD	n/a	wordpools/wordpool_categorized_EN.txt	CYPRESS	Trees	5	9	[0, 0, 0]	n/a	catFR1	1	R1383J
1150.298	0.767	1165808	WORD_OFF	n/a	n/a	CYPRESS	Trees	5	9	[0, 0, 0]	n/a	catFR1	1	R1383J
1151.065	1.6	1166573	WORD	n/a	wordpools/wordpool_categorized_EN.txt	PINE	Trees	6	9	[0, 0, 0]	n/a	catFR1	1	R1383J
1152.665	0.983	1168175	WORD_OFF	n/a	n/a	PINE	Trees	6	9	[0, 0, 0]	n/a	catFR1	1	R1383J
1153.648	1.6	1169158	WORD	n/a	wordpools/wordpool_categorized_EN.txt	ROOM	Building	7	9	[0, 0, 0]	n/a	catFR1	1	R1383J
1155.248	0.85	1170759	WORD_OFF	n/a	n/a	ROOM	Building	7	9	[0, 0, 0]	n/a	catFR1	1	R1383J
1156.098	1.6	1171612	WORD	n/a	wordpools/wordpool_categorized_EN.txt	WALL	Building	8	9	[0, 0, 0]	n/a	catFR1	1	R1383J
1157.714	0.884	1173230	WORD_OFF	n/a	n/a	WALL	Building	8	9	[0, 0, 0]	n/a	catFR1	1	R1383J
1158.598	1.6	1174109	WORD	n/a	wordpools/wordpool_categorized_EN.txt	PETUNIA	Flowers	9	9	[0, 0, 0]	n/a	catFR1	1	R1383J
1160.198	0.983	1175710	WORD_OFF	n/a	n/a	PETUNIA	Flowers	9	9	[0, 0, 0]	n/a	catFR1	1	R1383J
1161.181	1.6	1176694	WORD	n/a	wordpools/wordpool_categorized_EN.txt	TULIP	Flowers	10	9	[0, 0, 0]	n/a	catFR1	1	R1383J
1162.782	0.815	1178295	WORD_OFF	n/a	n/a	TULIP	Flowers	10	9	[0, 0, 0]	n/a	catFR1	1	R1383J
1163.597	1.6	1179113	WORD	n/a	wordpools/wordpool_categorized_EN.txt	WILLOW	Trees	11	9	[0, 0, 0]	n/a	catFR1	1	R1383J
1165.198	0.8	1180714	WORD_OFF	n/a	n/a	WILLOW	Trees	11	9	[0, 0, 0]	n/a	catFR1	1	R1383J
1165.998	1.6	1181506	WORD	n/a	wordpools/wordpool_categorized_EN.txt	CEDAR	Trees	12	9	[0, 0, 0]	n/a	catFR1	1	R1383J
1167.598	0.001	1183107	WORD_OFF	n/a	n/a	CEDAR	Trees	12	9	[0, 0, 0]	n/a	catFR1	1	R1383J
1167.599	0.001	1183110	PROB	6.766	n/a	n/a	n/a	-999	9	[2, 1, 4]	7.0	catFR1	1	R1383J
1167.6	0.0	1183111	START	n/a	n/a	n/a	n/a	-999	9	[-999, -999, -999]	n/a	catFR1	1	R1383J
1167.6	0.0	1183115	ENCODING_END	n/a	n/a	n/a	n/a	-999	9	[0, 0, 0]	n/a	catFR1	1	R1383J
1167.6	6.782	1183115	DISTRACT_START	n/a	n/a	n/a	n/a	-999	9	[0, 0, 0]	n/a	catFR1	1	R1383J
1174.382	6.9	1189893	PROB	6.883	n/a	n/a	n/a	-999	9	[4, 6, 8]	18.0	catFR1	1	R1383J
1181.282	6.133	1196793	PROB	6.116	n/a	n/a	n/a	-999	9	[1, 8, 1]	10.0	catFR1	1	R1383J
1187.415	7.432	1202926	PROB	7.416	n/a	n/a	n/a	-999	9	[6, 6, 2]	14.0	catFR1	1	R1383J
1194.847	0.0	1210357	STOP	n/a	n/a	n/a	n/a	-999	9	[-999, -999, -999]	n/a	catFR1	1	R1383J
1194.847	1.018	1210361	DISTRACT_END	n/a	n/a	n/a	n/a	-999	9	[0, 0, 0]	n/a	catFR1	1	R1383J
1195.865	5.719	1211379	REC_START	n/a	n/a	n/a	n/a	-999	9	[0, 0, 0]	n/a	catFR1	1	R1383J
1201.584	1.0	1217094	REC_WORD	5.719	n/a	CYPRESS	Trees	5	9	[0, 0, 0]	n/a	catFR1	1	R1383J
1202.584	1.056	1218094	REC_WORD_VV	6.719	n/a	<>	n/a	-999	9	[0, 0, 0]	n/a	catFR1	1	R1383J
1203.64	2.377	1219150	REC_WORD	7.775	n/a	ORCHID	Flowers	1	9	[0, 0, 0]	n/a	catFR1	1	R1383J
1206.017	2.456	1221527	REC_WORD	10.152	n/a	MARIGOLD	Flowers	2	9	[0, 0, 0]	n/a	catFR1	1	R1383J
1208.473	2.08	1223983	REC_WORD	12.608	n/a	FOUNDATION	Building	3	9	[0, 0, 0]	n/a	catFR1	1	R1383J
1210.553	15.547	1226063	REC_WORD	14.688	n/a	WINDOW	Building	4	9	[0, 0, 0]	n/a	catFR1	1	R1383J
1226.1	7.281	1241609	REC_END	n/a	n/a	n/a	n/a	-999	9	[0, 0, 0]	n/a	catFR1	1	R1383J
1233.381	10.0	1248892	COUNTDOWN_START	n/a	n/a	n/a	n/a	-999	10	[0, 0, 0]	n/a	catFR1	1	R1383J
1243.744	0.001	1259256	COUNTDOWN_END	n/a	n/a	n/a	n/a	-999	10	[0, 0, 0]	n/a	catFR1	1	R1383J
1243.745	2.203	1259256	ENCODING_START	n/a	n/a	n/a	n/a	-999	10	[0, 0, 0]	n/a	catFR1	1	R1383J
1245.948	1.6	1261457	WORD	n/a	wordpools/wordpool_categorized_EN.txt	BIRCH	Trees	1	10	[0, 0, 0]	n/a	catFR1	1	R1383J
1247.565	0.932	1263076	WORD_OFF	n/a	n/a	BIRCH	Trees	1	10	[0, 0, 0]	n/a	catFR1	1	R1383J
1248.497	1.6	1264007	WORD	n/a	wordpools/wordpool_categorized_EN.txt	MAPLE	Trees	2	10	[0, 0, 0]	n/a	catFR1	1	R1383J
1250.098	0.949	1265608	WORD_OFF	n/a	n/a	MAPLE	Trees	2	10	[0, 0, 0]	n/a	catFR1	1	R1383J
1251.047	1.6	1266557	WORD	n/a	wordpools/wordpool_categorized_EN.txt	DRESS	Clothing	3	10	[0, 0, 0]	n/a	catFR1	1	R1383J
1252.648	0.867	1268158	WORD_OFF	n/a	n/a	DRESS	Clothing	3	10	[0, 0, 0]	n/a	catFR1	1	R1383J
1253.515	1.6	1269019	WORD	n/a	wordpools/wordpool_categorized_EN.txt	JEANS	Clothing	4	10	[0, 0, 0]	n/a	catFR1	1	R1383J
1255.115	0.966	1270620	WORD_OFF	n/a	n/a	JEANS	Clothing	4	10	[0, 0, 0]	n/a	catFR1	1	R1383J
1256.081	1.6	1271586	WORD	n/a	wordpools/wordpool_categorized_EN.txt	MIXER	Appliances	5	10	[0, 0, 0]	n/a	catFR1	1	R1383J
1257.681	0.767	1273187	WORD_OFF	n/a	n/a	MIXER	Appliances	5	10	[0, 0, 0]	n/a	catFR1	1	R1383J
1258.448	1.6	1273953	WORD	n/a	wordpools/wordpool_categorized_EN.txt	REFRIGERATOR	Appliances	6	10	[0, 0, 0]	n/a	catFR1	1	R1383J
1260.048	0.933	1275554	WORD_OFF	n/a	n/a	REFRIGERATOR	Appliances	6	10	[0, 0, 0]	n/a	catFR1	1	R1383J
1260.981	1.6	1276494	WORD	n/a	wordpools/wordpool_categorized_EN.txt	SHOES	Clothing	7	10	[0, 0, 0]	n/a	catFR1	1	R1383J
1262.597	1.001	1278104	WORD_OFF	n/a	n/a	SHOES	Clothing	7	10	[0, 0, 0]	n/a	catFR1	1	R1383J
1263.598	1.6	1279104	WORD	n/a	wordpools/wordpool_categorized_EN.txt	SHIRT	Clothing	8	10	[0, 0, 0]	n/a	catFR1	1	R1383J
1265.215	0.85	1280723	WORD_OFF	n/a	n/a	SHIRT	Clothing	8	10	[0, 0, 0]	n/a	catFR1	1	R1383J
1266.065	1.6	1281576	WORD	n/a	wordpools/wordpool_categorized_EN.txt	SPRUCE	Trees	9	10	[0, 0, 0]	n/a	catFR1	1	R1383J
1267.665	0.833	1283168	WORD_OFF	n/a	n/a	SPRUCE	Trees	9	10	[0, 0, 0]	n/a	catFR1	1	R1383J
1268.498	1.6	1284004	WORD	n/a	wordpools/wordpool_categorized_EN.txt	HICKORY	Trees	10	10	[0, 0, 0]	n/a	catFR1	1	R1383J
1270.114	0.951	1285622	WORD_OFF	n/a	n/a	HICKORY	Trees	10	10	[0, 0, 0]	n/a	catFR1	1	R1383J
1271.065	1.6	1286571	WORD	n/a	wordpools/wordpool_categorized_EN.txt	OVEN	Appliances	11	10	[0, 0, 0]	n/a	catFR1	1	R1383J
1272.665	0.95	1288172	WORD_OFF	n/a	n/a	OVEN	Appliances	11	10	[0, 0, 0]	n/a	catFR1	1	R1383J
1273.615	1.6	1289120	WORD	n/a	wordpools/wordpool_categorized_EN.txt	WASHER	Appliances	12	10	[0, 0, 0]	n/a	catFR1	1	R1383J
1275.215	0.001	1290721	WORD_OFF	n/a	n/a	WASHER	Appliances	12	10	[0, 0, 0]	n/a	catFR1	1	R1383J
1275.216	0.0	1290721	ENCODING_END	n/a	n/a	n/a	n/a	-999	10	[0, 0, 0]	n/a	catFR1	1	R1383J
1275.216	0.0	1290721	DISTRACT_START	n/a	n/a	n/a	n/a	-999	10	[0, 0, 0]	n/a	catFR1	1	R1383J
1275.216	0.0	1290723	START	n/a	n/a	n/a	n/a	-999	10	[-999, -999, -999]	n/a	catFR1	1	R1383J
1275.216	6.932	1290723	PROB	6.916	n/a	n/a	n/a	-999	10	[4, 5, 4]	13.0	catFR1	1	R1383J
1282.148	6.433	1297655	PROB	6.416	n/a	n/a	n/a	-999	10	[4, 7, 2]	13.0	catFR1	1	R1383J
1288.581	9.116	1304088	PROB	9.1	n/a	n/a	n/a	-999	10	[6, 1, 8]	15.0	catFR1	1	R1383J
1297.697	0.0	1313203	STOP	n/a	n/a	n/a	n/a	-999	10	[-999, -999, -999]	n/a	catFR1	1	R1383J
1297.697	1.2	1313207	DISTRACT_END	n/a	n/a	n/a	n/a	-999	10	[0, 0, 0]	n/a	catFR1	1	R1383J
1298.897	21.538	1314407	REC_START	n/a	n/a	n/a	n/a	-999	10	[0, 0, 0]	n/a	catFR1	1	R1383J
1320.435	3.074	1335940	REC_WORD	21.538	n/a	HICKORY	Trees	10	10	[0, 0, 0]	n/a	catFR1	1	R1383J
1323.509	4.458	1339014	REC_WORD	24.612	n/a	MAPLE	Trees	2	10	[0, 0, 0]	n/a	catFR1	1	R1383J
1327.967	1.164	1343472	REC_WORD	29.07	n/a	ELM	Trees	-999	10	[0, 0, 0]	n/a	catFR1	1	R1383J
1329.131	6.25	1344637	REC_END	n/a	n/a	n/a	n/a	-999	10	[0, 0, 0]	n/a	catFR1	1	R1383J
1335.381	10.0	1350885	COUNTDOWN_START	n/a	n/a	n/a	n/a	-999	11	[0, 0, 0]	n/a	catFR1	1	R1383J
1345.741	0.0	1361249	COUNTDOWN_END	n/a	n/a	n/a	n/a	-999	11	[0, 0, 0]	n/a	catFR1	1	R1383J
1345.741	1.957	1361249	ENCODING_START	n/a	n/a	n/a	n/a	-999	11	[0, 0, 0]	n/a	catFR1	1	R1383J
1347.698	1.6	1363207	WORD	n/a	wordpools/wordpool_categorized_EN.txt	CARROT	Vegetables	1	11	[0, 0, 0]	n/a	catFR1	1	R1383J
1349.298	1.0	1364799	WORD_OFF	n/a	n/a	CARROT	Vegetables	1	11	[0, 0, 0]	n/a	catFR1	1	R1383J
1350.298	1.6	1365800	WORD	n/a	wordpools/wordpool_categorized_EN.txt	ONION	Vegetables	2	11	[0, 0, 0]	n/a	catFR1	1	R1383J
1351.898	0.951	1367401	WORD_OFF	n/a	n/a	ONION	Vegetables	2	11	[0, 0, 0]	n/a	catFR1	1	R1383J
1352.849	1.6	1368350	WORD	n/a	wordpools/wordpool_categorized_EN.txt	CHEETAH	Zoo	3	11	[0, 0, 0]	n/a	catFR1	1	R1383J
1354.448	0.817	1369951	WORD_OFF	n/a	n/a	CHEETAH	Zoo	3	11	[0, 0, 0]	n/a	catFR1	1	R1383J
1355.265	1.6	1370769	WORD	n/a	wordpools/wordpool_categorized_EN.txt	TIGER	Zoo	4	11	[0, 0, 0]	n/a	catFR1	1	R1383J
1356.866	0.965	1372370	WORD_OFF	n/a	n/a	TIGER	Zoo	4	11	[0, 0, 0]	n/a	catFR1	1	R1383J
1357.831	1.6	1373336	WORD	n/a	wordpools/wordpool_categorized_EN.txt	LAKE	Landscapes	5	11	[0, 0, 0]	n/a	catFR1	1	R1383J
1359.432	0.865	1374937	WORD_OFF	n/a	n/a	LAKE	Landscapes	5	11	[0, 0, 0]	n/a	catFR1	1	R1383J
1360.297	1.6	1375798	WORD	n/a	wordpools/wordpool_categorized_EN.txt	WOODS	Landscapes	6	11	[0, 0, 0]	n/a	catFR1	1	R1383J
1361.898	0.984	1377399	WORD_OFF	n/a	n/a	WOODS	Landscapes	6	11	[0, 0, 0]	n/a	catFR1	1	R1383J
1362.882	1.6	1378383	WORD	n/a	wordpools/wordpool_categorized_EN.txt	PANDA	Zoo	7	11	[0, 0, 0]	n/a	catFR1	1	R1383J
1364.482	0.8	1379993	WORD_OFF	n/a	n/a	PANDA	Zoo	7	11	[0, 0, 0]	n/a	catFR1	1	R1383J
1365.282	1.6	1380784	WORD	n/a	wordpools/wordpool_categorized_EN.txt	ZEBRA	Zoo	8	11	[0, 0, 0]	n/a	catFR1	1	R1383J
1366.898	0.817	1382403	WORD_OFF	n/a	n/a	ZEBRA	Zoo	8	11	[0, 0, 0]	n/a	catFR1	1	R1383J
1367.715	1.6	1383221	WORD	n/a	wordpools/wordpool_categorized_EN.txt	CREEK	Landscapes	9	11	[0, 0, 0]	n/a	catFR1	1	R1383J
1369.332	0.95	1384839	WORD_OFF	n/a	n/a	CREEK	Landscapes	9	11	[0, 0, 0]	n/a	catFR1	1	R1383J
1370.282	1.6	1385788	WORD	n/a	wordpools/wordpool_categorized_EN.txt	BEACH	Landscapes	10	11	[0, 0, 0]	n/a	catFR1	1	R1383J
1371.898	1.0	1387406	WORD_OFF	n/a	n/a	BEACH	Landscapes	10	11	[0, 0, 0]	n/a	catFR1	1	R1383J
1372.898	1.6	1388398	WORD	n/a	wordpools/wordpool_categorized_EN.txt	POTATO	Vegetables	11	11	[0, 0, 0]	n/a	catFR1	1	R1383J
1374.515	0.933	1390017	WORD_OFF	n/a	n/a	POTATO	Vegetables	11	11	[0, 0, 0]	n/a	catFR1	1	R1383J
1375.448	1.6	1390948	WORD	n/a	wordpools/wordpool_categorized_EN.txt	CUCUMBER	Vegetables	12	11	[0, 0, 0]	n/a	catFR1	1	R1383J
1377.065	0.0	1392567	WORD_OFF	n/a	n/a	CUCUMBER	Vegetables	12	11	[0, 0, 0]	n/a	catFR1	1	R1383J
1377.065	0.002	1392568	PROB	8.733	n/a	n/a	n/a	-999	11	[2, 7, 8]	17.0	catFR1	1	R1383J
1377.067	0.0	1392570	START	n/a	n/a	n/a	n/a	-999	11	[-999, -999, -999]	n/a	catFR1	1	R1383J
1377.067	0.0	1392575	ENCODING_END	n/a	n/a	n/a	n/a	-999	11	[0, 0, 0]	n/a	catFR1	1	R1383J
1377.067	8.749	1392575	DISTRACT_START	n/a	n/a	n/a	n/a	-999	11	[0, 0, 0]	n/a	catFR1	1	R1383J
1385.816	8.549	1401319	PROB	8.532	n/a	n/a	n/a	-999	11	[1, 5, 2]	8.0	catFR1	1	R1383J
1394.365	6.699	1409867	PROB	6.683	n/a	n/a	n/a	-999	11	[1, 4, 1]	6.0	catFR1	1	R1383J
1401.064	0.0	1416566	DISTRACT_END	n/a	n/a	n/a	n/a	-999	11	[0, 0, 0]	n/a	catFR1	1	R1383J
1401.064	1.233	1416566	STOP	n/a	n/a	n/a	n/a	-999	11	[-999, -999, -999]	n/a	catFR1	1	R1383J
1402.297	4.558	1417802	REC_START	n/a	n/a	n/a	n/a	-999	11	[0, 0, 0]	n/a	catFR1	1	R1383J
1406.855	0.13	1422357	REC_WORD_VV	4.558	n/a	<>	n/a	-999	11	[0, 0, 0]	n/a	catFR1	1	R1383J
1406.985	1.378	1422487	REC_WORD	4.688	n/a	ZEBRA	Zoo	8	11	[0, 0, 0]	n/a	catFR1	1	R1383J
1408.363	3.631	1423865	REC_WORD	6.066	n/a	CHEETAH	Zoo	3	11	[0, 0, 0]	n/a	catFR1	1	R1383J
1411.994	2.805	1427496	REC_WORD	9.697	n/a	CARROT	Vegetables	1	11	[0, 0, 0]	n/a	catFR1	1	R1383J
1414.799	17.729	1430300	REC_WORD	12.502	n/a	ONION	Vegetables	2	11	[0, 0, 0]	n/a	catFR1	1	R1383J
1432.528	10.92	1448032	REC_END	n/a	n/a	n/a	n/a	-999	11	[0, 0, 0]	n/a	catFR1	1	R1383J
1443.448	10.0	1458952	COUNTDOWN_START	n/a	n/a	n/a	n/a	-999	12	[0, 0, 0]	n/a	catFR1	1	R1383J
1453.815	0.0	1469316	COUNTDOWN_END	n/a	n/a	n/a	n/a	-999	12	[0, 0, 0]	n/a	catFR1	1	R1383J
1453.815	2.133	1469316	ENCODING_START	n/a	n/a	n/a	n/a	-999	12	[0, 0, 0]	n/a	catFR1	1	R1383J
1455.948	1.6	1471448	WORD	n/a	wordpools/wordpool_categorized_EN.txt	CABBAGE	Vegetables	1	12	[0, 0, 0]	n/a	catFR1	1	R1383J
1457.548	0.8	1473049	WORD_OFF	n/a	n/a	CABBAGE	Vegetables	1	12	[0, 0, 0]	n/a	catFR1	1	R1383J
1458.348	1.6	1473850	WORD	n/a	wordpools/wordpool_categorized_EN.txt	PEAS	Vegetables	2	12	[0, 0, 0]	n/a	catFR1	1	R1383J
1459.965	0.95	1475468	WORD_OFF	n/a	n/a	PEAS	Vegetables	2	12	[0, 0, 0]	n/a	catFR1	1	R1383J
1460.915	1.6	1476417	WORD	n/a	wordpools/wordpool_categorized_EN.txt	FOREST	Landscapes	3	12	[0, 0, 0]	n/a	catFR1	1	R1383J
1462.515	0.967	1478018	WORD_OFF	n/a	n/a	FOREST	Landscapes	3	12	[0, 0, 0]	n/a	catFR1	1	R1383J
1463.482	1.6	1478984	WORD	n/a	wordpools/wordpool_categorized_EN.txt	ISLAND	Landscapes	4	12	[0, 0, 0]	n/a	catFR1	1	R1383J
1465.082	1.0	1480585	WORD_OFF	n/a	n/a	ISLAND	Landscapes	4	12	[0, 0, 0]	n/a	catFR1	1	R1383J
1466.082	1.6	1481585	WORD	n/a	wordpools/wordpool_categorized_EN.txt	OYSTER	Oceananimals	5	12	[0, 0, 0]	n/a	catFR1	1	R1383J
1467.682	0.783	1483178	WORD_OFF	n/a	n/a	OYSTER	Oceananimals	5	12	[0, 0, 0]	n/a	catFR1	1	R1383J
1468.465	1.6	1483961	WORD	n/a	wordpools/wordpool_categorized_EN.txt	LOBSTER	Oceananimals	6	12	[0, 0, 0]	n/a	catFR1	1	R1383J
1470.065	0.833	1485562	WORD_OFF	n/a	n/a	LOBSTER	Oceananimals	6	12	[0, 0, 0]	n/a	catFR1	1	R1383J
1470.898	1.6	1486398	WORD	n/a	wordpools/wordpool_categorized_EN.txt	HILLS	Landscapes	7	12	[0, 0, 0]	n/a	catFR1	1	R1383J
1472.514	0.968	1488016	WORD_OFF	n/a	n/a	HILLS	Landscapes	7	12	[0, 0, 0]	n/a	catFR1	1	R1383J
1473.482	1.6	1488982	WORD	n/a	wordpools/wordpool_categorized_EN.txt	STREAM	Landscapes	8	12	[0, 0, 0]	n/a	catFR1	1	R1383J
1475.082	0.866	1490583	WORD_OFF	n/a	n/a	STREAM	Landscapes	8	12	[0, 0, 0]	n/a	catFR1	1	R1383J
1475.948	1.6	1491445	WORD	n/a	wordpools/wordpool_categorized_EN.txt	BROCCOLI	Vegetables	9	12	[0, 0, 0]	n/a	catFR1	1	R1383J
1477.548	1.0	1493046	WORD_OFF	n/a	n/a	BROCCOLI	Vegetables	9	12	[0, 0, 0]	n/a	catFR1	1	R1383J
1478.548	1.6	1494046	WORD	n/a	wordpools/wordpool_categorized_EN.txt	CELERY	Vegetables	10	12	[0, 0, 0]	n/a	catFR1	1	R1383J
1480.148	0.917	1495648	WORD_OFF	n/a	n/a	CELERY	Vegetables	10	12	[0, 0, 0]	n/a	catFR1	1	R1383J
1481.065	1.6	1496561	WORD	n/a	wordpools/wordpool_categorized_EN.txt	PLANKTON	Oceananimals	11	12	[0, 0, 0]	n/a	catFR1	1	R1383J
1482.681	1.001	1498180	WORD_OFF	n/a	n/a	PLANKTON	Oceananimals	11	12	[0, 0, 0]	n/a	catFR1	1	R1383J
1483.682	1.6	1499180	WORD	n/a	wordpools/wordpool_categorized_EN.txt	OCTOPUS	Oceananimals	12	12	[0, 0, 0]	n/a	catFR1	1	R1383J
1485.282	0.002	1500782	WORD_OFF	n/a	n/a	OCTOPUS	Oceananimals	12	12	[0, 0, 0]	n/a	catFR1	1	R1383J
1485.284	0.0	1500782	ENCODING_END	n/a	n/a	n/a	n/a	-999	12	[0, 0, 0]	n/a	catFR1	1	R1383J
1485.284	0.0	1500782	DISTRACT_START	n/a	n/a	n/a	n/a	-999	12	[0, 0, 0]	n/a	catFR1	1	R1383J
1485.283	0.001	1500782	PROB	7.215	n/a	n/a	n/a	-999	12	[7, 7, 7]	21.0	catFR1	1	R1383J
1485.284	7.232	1500783	START	n/a	n/a	n/a	n/a	-999	12	[-999, -999, -999]	n/a	catFR1	1	R1383J
1492.516	6.133	1508014	PROB	6.116	n/a	n/a	n/a	-999	12	[5, 5, 6]	16.0	catFR1	1	R1383J
1498.649	4.483	1514147	PROB	4.466	n/a	n/a	n/a	-999	12	[5, 3, 1]	9.0	catFR1	1	R1383J
1503.132	9.249	1518630	PROB	9.233	n/a	n/a	n/a	-999	12	[8, 4, 8]	20.0	catFR1	1	R1383J
1512.381	0.0	1527879	DISTRACT_END	n/a	n/a	n/a	n/a	-999	12	[0, 0, 0]	n/a	catFR1	1	R1383J
1512.381	1.1	1527879	STOP	n/a	n/a	n/a	n/a	-999	12	[-999, -999, -999]	n/a	catFR1	1	R1383J
1513.481	3.263	1528975	REC_START	n/a	n/a	n/a	n/a	-999	12	[0, 0, 0]	n/a	catFR1	1	R1383J
1516.744	1.086	1532241	REC_WORD	3.263	n/a	CABBAGE	Vegetables	1	12	[0, 0, 0]	n/a	catFR1	1	R1383J
1517.83	0.979	1533327	REC_WORD	4.349	n/a	BROCCOLI	Vegetables	9	12	[0, 0, 0]	n/a	catFR1	1	R1383J
1518.809	0.82	1534306	REC_WORD	5.328	n/a	PEAS	Vegetables	2	12	[0, 0, 0]	n/a	catFR1	1	R1383J
1519.629	5.977	1535126	REC_WORD	6.148	n/a	CELERY	Vegetables	10	12	[0, 0, 0]	n/a	catFR1	1	R1383J
1525.606	1.0	1541103	REC_WORD	12.125	n/a	OCTOPUS	Oceananimals	12	12	[0, 0, 0]	n/a	catFR1	1	R1383J
1526.606	4.562	1542103	REC_WORD_VV	13.125	n/a	<>	n/a	-999	12	[0, 0, 0]	n/a	catFR1	1	R1383J
1531.168	1.457	1546665	REC_WORD	17.687	n/a	ISLAND	Landscapes	4	12	[0, 0, 0]	n/a	catFR1	1	R1383J
1532.625	11.088	1548122	REC_WORD	19.144	n/a	HILLS	Landscapes	7	12	[0, 0, 0]	n/a	catFR1	1	R1383J
1543.713	0.0	1559212	REC_END	n/a	n/a	n/a	n/a	-999	12	[0, 0, 0]	n/a	catFR1	1	R1383J
