onset	duration	sample	trial_type	response_time	stim_file	item_name	category	serialpos	list	test	answer	experiment	session	subject
0.0	3.165	1680	INSTRUCT_START	n/a	n/a	n/a	n/a	-999	-999	[0, 0, 0]	n/a	catFR1	3	R1488T
3.165	23.133	4941	INSTRUCT_END	n/a	n/a	n/a	n/a	-999	-999	[0, 0, 0]	n/a	catFR1	3	R1488T
26.298	10.35	28078	COUNTDOWN_START	n/a	n/a	n/a	n/a	-999	-999	[0, 0, 0]	n/a	catFR1	3	R1488T
36.648	0.0	38423	COUNTDOWN_END	n/a	n/a	n/a	n/a	-999	-999	[0, 0, 0]	n/a	catFR1	3	R1488T
36.648	2.367	38432	ENCODING_START	n/a	n/a	n/a	n/a	-999	-1	[0, 0, 0]	n/a	catFR1	3	R1488T
39.015	1.616	40794	WORD	n/a	n/a	VIOLIN	Instruments	1	-1	[0, 0, 0]	n/a	catFR1	3	R1488T
40.631	0.767	42410	WORD_OFF	n/a	n/a	VIOLIN	Instruments	1	-1	[0, 0, 0]	n/a	catFR1	3	R1488T
41.398	1.617	43175	WORD	n/a	n/a	TUBA	Instruments	2	-1	[0, 0, 0]	n/a	catFR1	3	R1488T
43.015	0.966	44791	WORD_OFF	n/a	n/a	TUBA	Instruments	2	-1	[0, 0, 0]	n/a	catFR1	3	R1488T
43.981	1.601	45754	WORD	n/a	n/a	THUNDER	Weather	3	-1	[0, 0, 0]	n/a	catFR1	3	R1488T
45.582	0.799	47360	WORD_OFF	n/a	n/a	THUNDER	Weather	3	-1	[0, 0, 0]	n/a	catFR1	3	R1488T
46.381	1.617	48163	WORD	n/a	n/a	HURRICANE	Weather	4	-1	[0, 0, 0]	n/a	catFR1	3	R1488T
47.998	0.866	49779	WORD_OFF	n/a	n/a	HURRICANE	Weather	4	-1	[0, 0, 0]	n/a	catFR1	3	R1488T
48.864	1.601	50639	WORD	n/a	n/a	PEELER	KitchenTools	5	-1	[0, 0, 0]	n/a	catFR1	3	R1488T
50.465	0.933	52245	WORD_OFF	n/a	n/a	PEELER	KitchenTools	5	-1	[0, 0, 0]	n/a	catFR1	3	R1488T
51.398	1.616	53180	WORD	n/a	n/a	FORK	KitchenTools	6	-1	[0, 0, 0]	n/a	catFR1	3	R1488T
53.014	0.8	54796	WORD_OFF	n/a	n/a	FORK	KitchenTools	6	-1	[0, 0, 0]	n/a	catFR1	3	R1488T
53.814	1.601	55589	WORD	n/a	n/a	DRIZZLE	Weather	7	-1	[0, 0, 0]	n/a	catFR1	3	R1488T
55.415	0.766	57195	WORD_OFF	n/a	n/a	DRIZZLE	Weather	7	-1	[0, 0, 0]	n/a	catFR1	3	R1488T
56.181	1.617	57961	WORD	n/a	n/a	WIND	Weather	8	-1	[0, 0, 0]	n/a	catFR1	3	R1488T
57.798	0.85	59576	WORD_OFF	n/a	n/a	WIND	Weather	8	-1	[0, 0, 0]	n/a	catFR1	3	R1488T
58.648	1.6	60426	WORD	n/a	n/a	SPATULA	KitchenTools	9	-1	[0, 0, 0]	n/a	catFR1	3	R1488T
60.248	0.782	62023	WORD_OFF	n/a	n/a	SPATULA	KitchenTools	9	-1	[0, 0, 0]	n/a	catFR1	3	R1488T
61.03	1.618	62807	WORD	n/a	n/a	COLANDER	KitchenTools	10	-1	[0, 0, 0]	n/a	catFR1	3	R1488T
62.648	0.95	64423	WORD_OFF	n/a	n/a	COLANDER	KitchenTools	10	-1	[0, 0, 0]	n/a	catFR1	3	R1488T
63.598	1.617	65377	WORD	n/a	n/a	BANJO	Instruments	11	-1	[0, 0, 0]	n/a	catFR1	3	R1488T
65.215	0.85	66993	WORD_OFF	n/a	n/a	BANJO	Instruments	11	-1	[0, 0, 0]	n/a	catFR1	3	R1488T
66.065	1.6	67843	WORD	n/a	n/a	CELLO	Instruments	12	-1	[0, 0, 0]	n/a	catFR1	3	R1488T
67.665	0.001	69439	WORD_OFF	n/a	n/a	CELLO	Instruments	12	-1	[0, 0, 0]	n/a	catFR1	3	R1488T
67.666	0.0	69439	ENCODING_END	n/a	n/a	n/a	n/a	-999	-1	[0, 0, 0]	n/a	catFR1	3	R1488T
67.666	0.0	69445	START	n/a	n/a	n/a	n/a	-999	-1	[-999, -999, -999]	n/a	catFR1	3	R1488T
67.666	0.0	69445	PROB	0.0	n/a	n/a	n/a	-999	-1	[2, 7, 3]	12	catFR1	3	R1488T
67.666	8.083	69449	DISTRACT_START	n/a	n/a	n/a	n/a	-999	-1	[0, 0, 0]	n/a	catFR1	3	R1488T
75.749	5.983	77527	PROB	5.983	n/a	n/a	n/a	-999	-1	[1, 5, 2]	8	catFR1	3	R1488T
81.732	9.482	83510	PROB	9.482	n/a	n/a	n/a	-999	-1	[6, 8, 5]	19	catFR1	3	R1488T
91.214	0.0	92992	DISTRACT_END	n/a	n/a	n/a	n/a	-999	-1	[0, 0, 0]	n/a	catFR1	3	R1488T
91.214	1.384	92992	STOP	n/a	n/a	n/a	n/a	-999	-1	[-999, -999, -999]	n/a	catFR1	3	R1488T
92.598	3.08	94372	REC_START	n/a	n/a	n/a	n/a	-999	-1	[0, 0, 0]	n/a	catFR1	3	R1488T
95.678	1.37	97455	REC_WORD	1.37	n/a	CELLO	Instruments	12	-1	[0, 0, 0]	n/a	catFR1	3	R1488T
97.048	1.7	98825	REC_WORD	1.7	n/a	TROMBONE	n/a	-999	-1	[0, 0, 0]	n/a	catFR1	3	R1488T
98.748	1.42	100525	REC_WORD	1.42	n/a	TUBA	Instruments	2	-1	[0, 0, 0]	n/a	catFR1	3	R1488T
100.168	20.767	101945	REC_WORD	20.767	n/a	FLUTE	n/a	-999	-1	[0, 0, 0]	n/a	catFR1	3	R1488T
120.935	1.0	122711	REC_WORD	1.0	n/a	FORK	KitchenTools	6	-1	[0, 0, 0]	n/a	catFR1	3	R1488T
121.935	1.877	123711	REC_WORD	1.877	n/a	FORK	KitchenTools	6	-1	[0, 0, 0]	n/a	catFR1	3	R1488T
123.812	10.403	125587	REC_END	n/a	n/a	n/a	n/a	-999	-1	[0, 0, 0]	n/a	catFR1	3	R1488T
134.215	10.349	135988	COUNTDOWN_START	n/a	n/a	n/a	n/a	-999	1	[0, 0, 0]	n/a	catFR1	3	R1488T
144.564	0.0	146334	COUNTDOWN_END	n/a	n/a	n/a	n/a	-999	1	[0, 0, 0]	n/a	catFR1	3	R1488T
144.564	2.051	146334	ENCODING_START	n/a	n/a	n/a	n/a	-999	1	[0, 0, 0]	n/a	catFR1	3	R1488T
146.615	1.616	148384	WORD	n/a	wordpools/wordpool_categorized_EN.txt	CROW	Birds	1	1	[0, 0, 0]	n/a	catFR1	3	R1488T
148.231	0.951	149999	WORD_OFF	n/a	n/a	CROW	Birds	1	1	[0, 0, 0]	n/a	catFR1	3	R1488T
149.182	1.616	150953	WORD	n/a	wordpools/wordpool_categorized_EN.txt	ROBIN	Birds	2	1	[0, 0, 0]	n/a	catFR1	3	R1488T
150.798	0.967	152569	WORD_OFF	n/a	n/a	ROBIN	Birds	2	1	[0, 0, 0]	n/a	catFR1	3	R1488T
151.765	1.6	153533	WORD	n/a	wordpools/wordpool_categorized_EN.txt	SCOOTER	Vehicles	3	1	[0, 0, 0]	n/a	catFR1	3	R1488T
153.365	0.766	155139	WORD_OFF	n/a	n/a	SCOOTER	Vehicles	3	1	[0, 0, 0]	n/a	catFR1	3	R1488T
154.131	1.6	155904	WORD	n/a	wordpools/wordpool_categorized_EN.txt	BUS	Vehicles	4	1	[0, 0, 0]	n/a	catFR1	3	R1488T
155.731	0.984	157501	WORD_OFF	n/a	n/a	BUS	Vehicles	4	1	[0, 0, 0]	n/a	catFR1	3	R1488T
156.715	1.6	158483	WORD	n/a	wordpools/wordpool_categorized_EN.txt	BLUEBERRY	Fruit	5	1	[0, 0, 0]	n/a	catFR1	3	R1488T
158.315	0.833	160089	WORD_OFF	n/a	n/a	BLUEBERRY	Fruit	5	1	[0, 0, 0]	n/a	catFR1	3	R1488T
159.148	1.6	160921	WORD	n/a	wordpools/wordpool_categorized_EN.txt	LIME	Fruit	6	1	[0, 0, 0]	n/a	catFR1	3	R1488T
160.748	0.9	162517	WORD_OFF	n/a	n/a	LIME	Fruit	6	1	[0, 0, 0]	n/a	catFR1	3	R1488T
161.648	1.617	163415	WORD	n/a	wordpools/wordpool_categorized_EN.txt	PIGEON	Birds	7	1	[0, 0, 0]	n/a	catFR1	3	R1488T
163.265	0.85	165040	WORD_OFF	n/a	n/a	PIGEON	Birds	7	1	[0, 0, 0]	n/a	catFR1	3	R1488T
164.115	1.615	165890	WORD	n/a	wordpools/wordpool_categorized_EN.txt	DOVE	Birds	8	1	[0, 0, 0]	n/a	catFR1	3	R1488T
165.73	0.902	167506	WORD_OFF	n/a	n/a	DOVE	Birds	8	1	[0, 0, 0]	n/a	catFR1	3	R1488T
166.632	1.616	168403	WORD	n/a	wordpools/wordpool_categorized_EN.txt	BANANA	Fruit	9	1	[0, 0, 0]	n/a	catFR1	3	R1488T
168.248	0.8	170019	WORD_OFF	n/a	n/a	BANANA	Fruit	9	1	[0, 0, 0]	n/a	catFR1	3	R1488T
169.048	1.6	170822	WORD	n/a	wordpools/wordpool_categorized_EN.txt	LEMON	Fruit	10	1	[0, 0, 0]	n/a	catFR1	3	R1488T
170.648	0.917	172418	WORD_OFF	n/a	n/a	LEMON	Fruit	10	1	[0, 0, 0]	n/a	catFR1	3	R1488T
171.565	1.6	173335	WORD	n/a	wordpools/wordpool_categorized_EN.txt	CAR	Vehicles	11	1	[0, 0, 0]	n/a	catFR1	3	R1488T
173.165	0.866	174932	WORD_OFF	n/a	n/a	CAR	Vehicles	11	1	[0, 0, 0]	n/a	catFR1	3	R1488T
174.031	1.617	175801	WORD	n/a	wordpools/wordpool_categorized_EN.txt	VAN	Vehicles	12	1	[0, 0, 0]	n/a	catFR1	3	R1488T
175.648	0.001	177416	WORD_OFF	n/a	n/a	VAN	Vehicles	12	1	[0, 0, 0]	n/a	catFR1	3	R1488T
175.649	0.0	177416	ENCODING_END	n/a	n/a	n/a	n/a	-999	1	[0, 0, 0]	n/a	catFR1	3	R1488T
175.648	0.001	177421	PROB	0.001	n/a	n/a	n/a	-999	1	[6, 2, 7]	15	catFR1	3	R1488T
175.649	0.0	177422	START	n/a	n/a	n/a	n/a	-999	1	[-999, -999, -999]	n/a	catFR1	3	R1488T
175.649	7.016	177426	DISTRACT_START	n/a	n/a	n/a	n/a	-999	1	[0, 0, 0]	n/a	catFR1	3	R1488T
182.665	7.317	184438	PROB	7.317	n/a	n/a	n/a	-999	1	[7, 6, 7]	20	catFR1	3	R1488T
189.982	12.033	191755	PROB	12.033	n/a	n/a	n/a	-999	1	[5, 8, 5]	18	catFR1	3	R1488T
202.015	0.0	203785	DISTRACT_END	n/a	n/a	n/a	n/a	-999	1	[0, 0, 0]	n/a	catFR1	3	R1488T
202.015	1.3	203787	STOP	n/a	n/a	n/a	n/a	-999	1	[-999, -999, -999]	n/a	catFR1	3	R1488T
203.315	8.194	205088	REC_START	n/a	n/a	n/a	n/a	-999	1	[0, 0, 0]	n/a	catFR1	3	R1488T
211.509	2.622	213281	REC_WORD_VV	2.622	n/a	<>	n/a	-999	1	[0, 0, 0]	n/a	catFR1	3	R1488T
214.131	1.0	215902	REC_WORD_VV	1.0	n/a	<>	n/a	-999	1	[0, 0, 0]	n/a	catFR1	3	R1488T
215.131	1.04	216902	REC_WORD_VV	1.04	n/a	<>	n/a	-999	1	[0, 0, 0]	n/a	catFR1	3	R1488T
216.171	0.334	217942	REC_WORD	0.334	n/a	BUS	Vehicles	4	1	[0, 0, 0]	n/a	catFR1	3	R1488T
216.505	17.985	218276	REC_WORD	17.985	n/a	SCREWDRIVER	n/a	-999	1	[0, 0, 0]	n/a	catFR1	3	R1488T
234.49	9.674	236256	REC_END	n/a	n/a	n/a	n/a	-999	1	[0, 0, 0]	n/a	catFR1	3	R1488T
244.164	10.35	245930	COUNTDOWN_START	n/a	n/a	n/a	n/a	-999	1	[0, 0, 0]	n/a	catFR1	3	R1488T
254.514	0.0	256285	COUNTDOWN_END	n/a	n/a	n/a	n/a	-999	1	[0, 0, 0]	n/a	catFR1	3	R1488T
254.514	2.084	256285	ENCODING_START	n/a	n/a	n/a	n/a	-999	2	[0, 0, 0]	n/a	catFR1	3	R1488T
256.598	1.6	258363	WORD	n/a	wordpools/wordpool_categorized_EN.txt	DOLPHIN	OceanAnimals	1	2	[0, 0, 0]	n/a	catFR1	3	R1488T
258.198	0.783	259969	WORD_OFF	n/a	n/a	DOLPHIN	OceanAnimals	1	2	[0, 0, 0]	n/a	catFR1	3	R1488T
258.981	1.6	260744	WORD	n/a	wordpools/wordpool_categorized_EN.txt	OYSTER	OceanAnimals	2	2	[0, 0, 0]	n/a	catFR1	3	R1488T
260.581	0.967	262350	WORD_OFF	n/a	n/a	OYSTER	OceanAnimals	2	2	[0, 0, 0]	n/a	catFR1	3	R1488T
261.548	1.6	263314	WORD	n/a	wordpools/wordpool_categorized_EN.txt	JEEP	Vehicles	3	2	[0, 0, 0]	n/a	catFR1	3	R1488T
263.148	0.9	264911	WORD_OFF	n/a	n/a	JEEP	Vehicles	3	2	[0, 0, 0]	n/a	catFR1	3	R1488T
264.048	1.617	265818	WORD	n/a	wordpools/wordpool_categorized_EN.txt	MOPED	Vehicles	4	2	[0, 0, 0]	n/a	catFR1	3	R1488T
265.665	0.767	267433	WORD_OFF	n/a	n/a	MOPED	Vehicles	4	2	[0, 0, 0]	n/a	catFR1	3	R1488T
266.432	1.616	268198	WORD	n/a	wordpools/wordpool_categorized_EN.txt	HAMMER	Tools	5	2	[0, 0, 0]	n/a	catFR1	3	R1488T
268.048	0.833	269814	WORD_OFF	n/a	n/a	HAMMER	Tools	5	2	[0, 0, 0]	n/a	catFR1	3	R1488T
268.881	1.6	270645	WORD	n/a	wordpools/wordpool_categorized_EN.txt	SANDER	Tools	6	2	[0, 0, 0]	n/a	catFR1	3	R1488T
270.481	0.9	272251	WORD_OFF	n/a	n/a	SANDER	Tools	6	2	[0, 0, 0]	n/a	catFR1	3	R1488T
271.381	1.617	273149	WORD	n/a	wordpools/wordpool_categorized_EN.txt	BOAT	Vehicles	7	2	[0, 0, 0]	n/a	catFR1	3	R1488T
272.998	0.917	274764	WORD_OFF	n/a	n/a	BOAT	Vehicles	7	2	[0, 0, 0]	n/a	catFR1	3	R1488T
273.915	1.616	275681	WORD	n/a	wordpools/wordpool_categorized_EN.txt	TRAIN	Vehicles	8	2	[0, 0, 0]	n/a	catFR1	3	R1488T
275.531	0.817	277296	WORD_OFF	n/a	n/a	TRAIN	Vehicles	8	2	[0, 0, 0]	n/a	catFR1	3	R1488T
276.348	1.615	278118	WORD	n/a	wordpools/wordpool_categorized_EN.txt	SHRIMP	OceanAnimals	9	2	[0, 0, 0]	n/a	catFR1	3	R1488T
277.963	0.868	279724	WORD_OFF	n/a	n/a	SHRIMP	OceanAnimals	9	2	[0, 0, 0]	n/a	catFR1	3	R1488T
278.831	1.601	280594	WORD	n/a	wordpools/wordpool_categorized_EN.txt	TURTLE	OceanAnimals	10	2	[0, 0, 0]	n/a	catFR1	3	R1488T
280.432	0.916	282200	WORD_OFF	n/a	n/a	TURTLE	OceanAnimals	10	2	[0, 0, 0]	n/a	catFR1	3	R1488T
281.348	1.6	283116	WORD	n/a	wordpools/wordpool_categorized_EN.txt	PLIERS	Tools	11	2	[0, 0, 0]	n/a	catFR1	3	R1488T
282.948	0.817	284713	WORD_OFF	n/a	n/a	PLIERS	Tools	11	2	[0, 0, 0]	n/a	catFR1	3	R1488T
283.765	1.6	285525	WORD	n/a	wordpools/wordpool_categorized_EN.txt	LEVEL	Tools	12	2	[0, 0, 0]	n/a	catFR1	3	R1488T
285.365	0.004	287131	WORD_OFF	n/a	n/a	LEVEL	Tools	12	2	[0, 0, 0]	n/a	catFR1	3	R1488T
285.369	0.0	287131	ENCODING_END	n/a	n/a	n/a	n/a	-999	2	[0, 0, 0]	n/a	catFR1	3	R1488T
285.369	0.0	287131	DISTRACT_START	n/a	n/a	n/a	n/a	-999	2	[0, 0, 0]	n/a	catFR1	3	R1488T
285.366	0.003	287134	PROB	0.003	n/a	n/a	n/a	-999	2	[1, 2, 4]	7	catFR1	3	R1488T
285.369	7.713	287137	START	n/a	n/a	n/a	n/a	-999	2	[-999, -999, -999]	n/a	catFR1	3	R1488T
293.082	6.883	294849	PROB	6.883	n/a	n/a	n/a	-999	2	[8, 5, 4]	17	catFR1	3	R1488T
299.965	6.45	301732	PROB	6.45	n/a	n/a	n/a	-999	2	[6, 3, 2]	11	catFR1	3	R1488T
306.415	0.0	308181	DISTRACT_END	n/a	n/a	n/a	n/a	-999	2	[0, 0, 0]	n/a	catFR1	3	R1488T
306.415	1.399	308182	STOP	n/a	n/a	n/a	n/a	-999	2	[-999, -999, -999]	n/a	catFR1	3	R1488T
307.814	1.657	309579	REC_START	n/a	n/a	n/a	n/a	-999	2	[0, 0, 0]	n/a	catFR1	3	R1488T
309.471	1.772	311238	REC_WORD_VV	1.772	n/a	<>	n/a	-999	2	[0, 0, 0]	n/a	catFR1	3	R1488T
311.243	7.813	313009	REC_WORD	7.813	n/a	DOLPHIN	OceanAnimals	1	2	[0, 0, 0]	n/a	catFR1	3	R1488T
319.056	19.977	320822	REC_WORD	19.977	n/a	JEEP	Vehicles	3	2	[0, 0, 0]	n/a	catFR1	3	R1488T
339.033	4.631	340794	REC_END	n/a	n/a	n/a	n/a	-999	2	[0, 0, 0]	n/a	catFR1	3	R1488T
343.664	10.35	345423	COUNTDOWN_START	n/a	n/a	n/a	n/a	-999	2	[0, 0, 0]	n/a	catFR1	3	R1488T
354.014	0.0	355778	COUNTDOWN_END	n/a	n/a	n/a	n/a	-999	2	[0, 0, 0]	n/a	catFR1	3	R1488T
354.014	2.017	355778	ENCODING_START	n/a	n/a	n/a	n/a	-999	3	[0, 0, 0]	n/a	catFR1	3	R1488T
356.031	1.616	357790	WORD	n/a	wordpools/wordpool_categorized_EN.txt	NOTEBOOK	OfficeSupplies	1	3	[0, 0, 0]	n/a	catFR1	3	R1488T
357.647	0.818	359406	WORD_OFF	n/a	n/a	NOTEBOOK	OfficeSupplies	1	3	[0, 0, 0]	n/a	catFR1	3	R1488T
358.465	1.6	360228	WORD	n/a	wordpools/wordpool_categorized_EN.txt	PAPER	OfficeSupplies	2	3	[0, 0, 0]	n/a	catFR1	3	R1488T
360.065	0.883	361824	WORD_OFF	n/a	n/a	PAPER	OfficeSupplies	2	3	[0, 0, 0]	n/a	catFR1	3	R1488T
360.948	1.6	362712	WORD	n/a	wordpools/wordpool_categorized_EN.txt	FLY	Insects	3	3	[0, 0, 0]	n/a	catFR1	3	R1488T
362.548	0.917	364309	WORD_OFF	n/a	n/a	FLY	Insects	3	3	[0, 0, 0]	n/a	catFR1	3	R1488T
363.465	1.601	365225	WORD	n/a	wordpools/wordpool_categorized_EN.txt	LADYBUG	Insects	4	3	[0, 0, 0]	n/a	catFR1	3	R1488T
365.066	0.965	366831	WORD_OFF	n/a	n/a	LADYBUG	Insects	4	3	[0, 0, 0]	n/a	catFR1	3	R1488T
366.031	1.6	367795	WORD	n/a	wordpools/wordpool_categorized_EN.txt	CARNATION	Flowers	5	3	[0, 0, 0]	n/a	catFR1	3	R1488T
367.631	0.934	369392	WORD_OFF	n/a	n/a	CARNATION	Flowers	5	3	[0, 0, 0]	n/a	catFR1	3	R1488T
368.565	1.6	370327	WORD	n/a	wordpools/wordpool_categorized_EN.txt	LILY	Flowers	6	3	[0, 0, 0]	n/a	catFR1	3	R1488T
370.165	1.0	371924	WORD_OFF	n/a	n/a	LILY	Flowers	6	3	[0, 0, 0]	n/a	catFR1	3	R1488T
371.165	1.6	372925	WORD	n/a	wordpools/wordpool_categorized_EN.txt	STAPLER	OfficeSupplies	7	3	[0, 0, 0]	n/a	catFR1	3	R1488T
372.765	0.833	374522	WORD_OFF	n/a	n/a	STAPLER	OfficeSupplies	7	3	[0, 0, 0]	n/a	catFR1	3	R1488T
373.598	1.617	375363	WORD	n/a	wordpools/wordpool_categorized_EN.txt	PEN	OfficeSupplies	8	3	[0, 0, 0]	n/a	catFR1	3	R1488T
375.215	0.95	376978	WORD_OFF	n/a	n/a	PEN	OfficeSupplies	8	3	[0, 0, 0]	n/a	catFR1	3	R1488T
376.165	1.616	377923	WORD	n/a	wordpools/wordpool_categorized_EN.txt	SUNFLOWER	Flowers	9	3	[0, 0, 0]	n/a	catFR1	3	R1488T
377.781	0.834	379538	WORD_OFF	n/a	n/a	SUNFLOWER	Flowers	9	3	[0, 0, 0]	n/a	catFR1	3	R1488T
378.615	1.616	380379	WORD	n/a	wordpools/wordpool_categorized_EN.txt	DAFFODIL	Flowers	10	3	[0, 0, 0]	n/a	catFR1	3	R1488T
380.231	0.817	381995	WORD_OFF	n/a	n/a	DAFFODIL	Flowers	10	3	[0, 0, 0]	n/a	catFR1	3	R1488T
381.048	1.617	382807	WORD	n/a	wordpools/wordpool_categorized_EN.txt	MOSQUITO	Insects	11	3	[0, 0, 0]	n/a	catFR1	3	R1488T
382.665	0.833	384423	WORD_OFF	n/a	n/a	MOSQUITO	Insects	11	3	[0, 0, 0]	n/a	catFR1	3	R1488T
383.498	1.617	385254	WORD	n/a	wordpools/wordpool_categorized_EN.txt	ANT	Insects	12	3	[0, 0, 0]	n/a	catFR1	3	R1488T
385.115	0.0	386878	PROB	0.0	n/a	n/a	n/a	-999	3	[1, 8, 7]	16	catFR1	3	R1488T
385.115	0.001	386879	WORD_OFF	n/a	n/a	ANT	Insects	12	3	[0, 0, 0]	n/a	catFR1	3	R1488T
385.116	0.0	386879	ENCODING_END	n/a	n/a	n/a	n/a	-999	3	[0, 0, 0]	n/a	catFR1	3	R1488T
385.116	0.0	386879	DISTRACT_START	n/a	n/a	n/a	n/a	-999	3	[0, 0, 0]	n/a	catFR1	3	R1488T
385.116	7.783	386879	START	n/a	n/a	n/a	n/a	-999	3	[-999, -999, -999]	n/a	catFR1	3	R1488T
392.899	8.282	394661	PROB	8.282	n/a	n/a	n/a	-999	3	[6, 5, 6]	17	catFR1	3	R1488T
401.181	6.784	402943	PROB	6.784	n/a	n/a	n/a	-999	3	[4, 6, 4]	14	catFR1	3	R1488T
407.965	0.0	409724	DISTRACT_END	n/a	n/a	n/a	n/a	-999	3	[0, 0, 0]	n/a	catFR1	3	R1488T
407.965	1.332	409727	STOP	n/a	n/a	n/a	n/a	-999	3	[-999, -999, -999]	n/a	catFR1	3	R1488T
409.297	1.154	411056	REC_START	n/a	n/a	n/a	n/a	-999	3	[0, 0, 0]	n/a	catFR1	3	R1488T
410.451	0.496	412212	REC_WORD_VV	0.496	n/a	<>	n/a	-999	3	[0, 0, 0]	n/a	catFR1	3	R1488T
410.947	1.145	412708	REC_WORD	1.145	n/a	NOTEBOOK	OfficeSupplies	1	3	[0, 0, 0]	n/a	catFR1	3	R1488T
412.092	3.896	413853	REC_WORD	3.896	n/a	PAPER	OfficeSupplies	2	3	[0, 0, 0]	n/a	catFR1	3	R1488T
415.988	1.0	417749	REC_WORD	1.0	n/a	FLY	Insects	3	3	[0, 0, 0]	n/a	catFR1	3	R1488T
416.988	0.93	418749	REC_WORD	0.93	n/a	FLY	Insects	3	3	[0, 0, 0]	n/a	catFR1	3	R1488T
417.918	0.999	419679	REC_WORD	0.999	n/a	LADYBUG	Insects	4	3	[0, 0, 0]	n/a	catFR1	3	R1488T
418.917	0.724	420678	REC_WORD	0.724	n/a	LADYBUG	Insects	4	3	[0, 0, 0]	n/a	catFR1	3	R1488T
419.641	0.996	421402	REC_WORD	0.996	n/a	DANDELION	n/a	-999	3	[0, 0, 0]	n/a	catFR1	3	R1488T
420.637	7.364	422398	REC_WORD	7.364	n/a	DANDELION	n/a	-999	3	[0, 0, 0]	n/a	catFR1	3	R1488T
428.001	2.496	429762	REC_WORD	2.496	n/a	NOTEBOOK	OfficeSupplies	1	3	[0, 0, 0]	n/a	catFR1	3	R1488T
430.497	0.661	432257	REC_WORD	0.661	n/a	PAPER	OfficeSupplies	2	3	[0, 0, 0]	n/a	catFR1	3	R1488T
431.158	1.584	432918	REC_WORD	1.584	n/a	FLY	Insects	3	3	[0, 0, 0]	n/a	catFR1	3	R1488T
432.742	1.593	434502	REC_WORD	1.593	n/a	LADYBUG	Insects	4	3	[0, 0, 0]	n/a	catFR1	3	R1488T
434.335	6.197	436095	REC_WORD	6.197	n/a	DANDELION	n/a	-999	3	[0, 0, 0]	n/a	catFR1	3	R1488T
440.532	2.833	442290	REC_END	n/a	n/a	n/a	n/a	-999	3	[0, 0, 0]	n/a	catFR1	3	R1488T
443.365	10.349	445124	COUNTDOWN_START	n/a	n/a	n/a	n/a	-999	3	[0, 0, 0]	n/a	catFR1	3	R1488T
453.714	0.0	455469	COUNTDOWN_END	n/a	n/a	n/a	n/a	-999	3	[0, 0, 0]	n/a	catFR1	3	R1488T
453.714	2.251	455469	ENCODING_START	n/a	n/a	n/a	n/a	-999	4	[0, 0, 0]	n/a	catFR1	3	R1488T
455.965	1.6	457717	WORD	n/a	wordpools/wordpool_categorized_EN.txt	RAIN	Weather	1	4	[0, 0, 0]	n/a	catFR1	3	R1488T
457.565	0.933	459324	WORD_OFF	n/a	n/a	RAIN	Weather	1	4	[0, 0, 0]	n/a	catFR1	3	R1488T
458.498	1.617	460259	WORD	n/a	wordpools/wordpool_categorized_EN.txt	FOG	Weather	2	4	[0, 0, 0]	n/a	catFR1	3	R1488T
460.115	1.0	461874	WORD_OFF	n/a	n/a	FOG	Weather	2	4	[0, 0, 0]	n/a	catFR1	3	R1488T
461.115	1.6	462866	WORD	n/a	wordpools/wordpool_categorized_EN.txt	WINDOW	Building	3	4	[0, 0, 0]	n/a	catFR1	3	R1488T
462.715	0.833	464473	WORD_OFF	n/a	n/a	WINDOW	Building	3	4	[0, 0, 0]	n/a	catFR1	3	R1488T
463.548	1.617	465304	WORD	n/a	wordpools/wordpool_categorized_EN.txt	DOOR	Building	4	4	[0, 0, 0]	n/a	catFR1	3	R1488T
465.165	0.983	466919	WORD_OFF	n/a	n/a	DOOR	Building	4	4	[0, 0, 0]	n/a	catFR1	3	R1488T
466.148	1.6	467902	WORD	n/a	wordpools/wordpool_categorized_EN.txt	HEADPHONES	Electronics	5	4	[0, 0, 0]	n/a	catFR1	3	R1488T
467.748	0.883	469508	WORD_OFF	n/a	n/a	HEADPHONES	Electronics	5	4	[0, 0, 0]	n/a	catFR1	3	R1488T
468.631	1.6	470387	WORD	n/a	wordpools/wordpool_categorized_EN.txt	RADIO	Electronics	6	4	[0, 0, 0]	n/a	catFR1	3	R1488T
470.231	0.917	471983	WORD_OFF	n/a	n/a	RADIO	Electronics	6	4	[0, 0, 0]	n/a	catFR1	3	R1488T
471.148	1.616	472900	WORD	n/a	wordpools/wordpool_categorized_EN.txt	LIGHTNING	Weather	7	4	[0, 0, 0]	n/a	catFR1	3	R1488T
472.764	0.85	474515	WORD_OFF	n/a	n/a	LIGHTNING	Weather	7	4	[0, 0, 0]	n/a	catFR1	3	R1488T
473.614	1.601	475366	WORD	n/a	wordpools/wordpool_categorized_EN.txt	CLOUD	Weather	8	4	[0, 0, 0]	n/a	catFR1	3	R1488T
475.215	0.983	476972	WORD_OFF	n/a	n/a	CLOUD	Weather	8	4	[0, 0, 0]	n/a	catFR1	3	R1488T
476.198	1.617	477954	WORD	n/a	wordpools/wordpool_categorized_EN.txt	CALCULATOR	Electronics	9	4	[0, 0, 0]	n/a	catFR1	3	R1488T
477.815	0.85	479570	WORD_OFF	n/a	n/a	CALCULATOR	Electronics	9	4	[0, 0, 0]	n/a	catFR1	3	R1488T
478.665	1.617	480420	WORD	n/a	wordpools/wordpool_categorized_EN.txt	MICROWAVE	Electronics	10	4	[0, 0, 0]	n/a	catFR1	3	R1488T
480.282	1.0	482036	WORD_OFF	n/a	n/a	MICROWAVE	Electronics	10	4	[0, 0, 0]	n/a	catFR1	3	R1488T
481.282	1.616	483037	WORD	n/a	wordpools/wordpool_categorized_EN.txt	WALL	Building	11	4	[0, 0, 0]	n/a	catFR1	3	R1488T
482.898	0.983	484653	WORD_OFF	n/a	n/a	WALL	Building	11	4	[0, 0, 0]	n/a	catFR1	3	R1488T
483.881	1.601	485635	WORD	n/a	wordpools/wordpool_categorized_EN.txt	BATHROOM	Building	12	4	[0, 0, 0]	n/a	catFR1	3	R1488T
485.482	0.0	487232	WORD_OFF	n/a	n/a	BATHROOM	Building	12	4	[0, 0, 0]	n/a	catFR1	3	R1488T
485.482	0.001	487240	PROB	0.001	n/a	n/a	n/a	-999	4	[1, 2, 1]	4	catFR1	3	R1488T
485.483	0.0	487241	ENCODING_END	n/a	n/a	n/a	n/a	-999	4	[0, 0, 0]	n/a	catFR1	3	R1488T
485.483	0.0	487241	DISTRACT_START	n/a	n/a	n/a	n/a	-999	4	[0, 0, 0]	n/a	catFR1	3	R1488T
485.483	5.932	487241	START	n/a	n/a	n/a	n/a	-999	4	[-999, -999, -999]	n/a	catFR1	3	R1488T
491.415	10.233	493172	PROB	10.233	n/a	n/a	n/a	-999	4	[7, 1, 8]	16	catFR1	3	R1488T
501.648	16.683	503405	PROB	16.683	n/a	n/a	n/a	-999	4	[4, 5, 4]	13	catFR1	3	R1488T
518.331	0.0	520081	DISTRACT_END	n/a	n/a	n/a	n/a	-999	4	[0, 0, 0]	n/a	catFR1	3	R1488T
518.331	1.266	520087	STOP	n/a	n/a	n/a	n/a	-999	4	[-999, -999, -999]	n/a	catFR1	3	R1488T
519.597	7.352	521347	REC_START	n/a	n/a	n/a	n/a	-999	4	[0, 0, 0]	n/a	catFR1	3	R1488T
526.949	0.998	528704	REC_WORD	0.998	n/a	CAULIFLOWER	n/a	-999	4	[0, 0, 0]	n/a	catFR1	3	R1488T
527.947	7.734	529702	REC_WORD	7.734	n/a	CAULIFLOWER	n/a	-999	4	[0, 0, 0]	n/a	catFR1	3	R1488T
535.681	2.264	537436	REC_WORD	2.264	n/a	DOOR	Building	4	4	[0, 0, 0]	n/a	catFR1	3	R1488T
537.945	1.258	539700	REC_WORD	1.258	n/a	WINDOW	Building	3	4	[0, 0, 0]	n/a	catFR1	3	R1488T
539.203	1.102	540958	REC_WORD	1.102	n/a	RAIN	Weather	1	4	[0, 0, 0]	n/a	catFR1	3	R1488T
540.305	2.108	542060	REC_WORD	2.108	n/a	FOG	Weather	2	4	[0, 0, 0]	n/a	catFR1	3	R1488T
542.413	8.425	544168	REC_WORD	8.425	n/a	WINDOW	Building	3	4	[0, 0, 0]	n/a	catFR1	3	R1488T
550.838	4.343	552590	REC_END	n/a	n/a	n/a	n/a	-999	4	[0, 0, 0]	n/a	catFR1	3	R1488T
555.181	10.35	556936	COUNTDOWN_START	n/a	n/a	n/a	n/a	-999	4	[0, 0, 0]	n/a	catFR1	3	R1488T
565.531	0.0	567281	COUNTDOWN_END	n/a	n/a	n/a	n/a	-999	4	[0, 0, 0]	n/a	catFR1	3	R1488T
565.531	1.9	567281	ENCODING_START	n/a	n/a	n/a	n/a	-999	5	[0, 0, 0]	n/a	catFR1	3	R1488T
567.431	1.617	569180	WORD	n/a	wordpools/wordpool_categorized_EN.txt	SKIRT	Clothing	1	5	[0, 0, 0]	n/a	catFR1	3	R1488T
569.048	0.799	570796	WORD_OFF	n/a	n/a	SKIRT	Clothing	1	5	[0, 0, 0]	n/a	catFR1	3	R1488T
569.847	1.601	571599	WORD	n/a	wordpools/wordpool_categorized_EN.txt	SOCKS	Clothing	2	5	[0, 0, 0]	n/a	catFR1	3	R1488T
571.448	0.816	573196	WORD_OFF	n/a	n/a	SOCKS	Clothing	2	5	[0, 0, 0]	n/a	catFR1	3	R1488T
572.264	1.6	574018	WORD	n/a	wordpools/wordpool_categorized_EN.txt	TABLE	Furniture	3	5	[0, 0, 0]	n/a	catFR1	3	R1488T
573.864	0.917	575614	WORD_OFF	n/a	n/a	TABLE	Furniture	3	5	[0, 0, 0]	n/a	catFR1	3	R1488T
574.781	1.6	576531	WORD	n/a	wordpools/wordpool_categorized_EN.txt	BED	Furniture	4	5	[0, 0, 0]	n/a	catFR1	3	R1488T
576.381	0.834	578127	WORD_OFF	n/a	n/a	BED	Furniture	4	5	[0, 0, 0]	n/a	catFR1	3	R1488T
577.215	1.616	578968	WORD	n/a	wordpools/wordpool_categorized_EN.txt	LION	Zoo	5	5	[0, 0, 0]	n/a	catFR1	3	R1488T
578.831	0.784	580584	WORD_OFF	n/a	n/a	LION	Zoo	5	5	[0, 0, 0]	n/a	catFR1	3	R1488T
579.615	1.616	581368	WORD	n/a	wordpools/wordpool_categorized_EN.txt	GORILLA	Zoo	6	5	[0, 0, 0]	n/a	catFR1	3	R1488T
581.231	0.8	582983	WORD_OFF	n/a	n/a	GORILLA	Zoo	6	5	[0, 0, 0]	n/a	catFR1	3	R1488T
582.031	1.601	583780	WORD	n/a	wordpools/wordpool_categorized_EN.txt	DRESSER	Furniture	7	5	[0, 0, 0]	n/a	catFR1	3	R1488T
583.632	0.932	585383	WORD_OFF	n/a	n/a	DRESSER	Furniture	7	5	[0, 0, 0]	n/a	catFR1	3	R1488T
584.564	1.601	586318	WORD	n/a	wordpools/wordpool_categorized_EN.txt	COUCH	Furniture	8	5	[0, 0, 0]	n/a	catFR1	3	R1488T
586.165	0.9	587915	WORD_OFF	n/a	n/a	COUCH	Furniture	8	5	[0, 0, 0]	n/a	catFR1	3	R1488T
587.065	1.6	588813	WORD	n/a	wordpools/wordpool_categorized_EN.txt	CHIMPANZEE	Zoo	9	5	[0, 0, 0]	n/a	catFR1	3	R1488T
588.665	0.8	590419	WORD_OFF	n/a	n/a	CHIMPANZEE	Zoo	9	5	[0, 0, 0]	n/a	catFR1	3	R1488T
589.465	1.6	591212	WORD	n/a	wordpools/wordpool_categorized_EN.txt	ORANGUTAN	Zoo	10	5	[0, 0, 0]	n/a	catFR1	3	R1488T
591.065	0.866	592818	WORD_OFF	n/a	n/a	ORANGUTAN	Zoo	10	5	[0, 0, 0]	n/a	catFR1	3	R1488T
591.931	1.617	593678	WORD	n/a	wordpools/wordpool_categorized_EN.txt	SHOES	Clothing	11	5	[0, 0, 0]	n/a	catFR1	3	R1488T
593.548	0.8	595294	WORD_OFF	n/a	n/a	SHOES	Clothing	11	5	[0, 0, 0]	n/a	catFR1	3	R1488T
594.348	1.6	596097	WORD	n/a	wordpools/wordpool_categorized_EN.txt	DRESS	Clothing	12	5	[0, 0, 0]	n/a	catFR1	3	R1488T
595.948	0.0	597693	WORD_OFF	n/a	n/a	DRESS	Clothing	12	5	[0, 0, 0]	n/a	catFR1	3	R1488T
595.948	0.002	597700	PROB	0.002	n/a	n/a	n/a	-999	5	[7, 1, 8]	16	catFR1	3	R1488T
595.95	0.0	597702	START	n/a	n/a	n/a	n/a	-999	5	[-999, -999, -999]	n/a	catFR1	3	R1488T
595.95	0.0	597703	ENCODING_END	n/a	n/a	n/a	n/a	-999	5	[0, 0, 0]	n/a	catFR1	3	R1488T
595.95	8.298	597703	DISTRACT_START	n/a	n/a	n/a	n/a	-999	5	[0, 0, 0]	n/a	catFR1	3	R1488T
604.248	4.851	606000	PROB	4.851	n/a	n/a	n/a	-999	5	[3, 3, 5]	11	catFR1	3	R1488T
609.099	8.565	610850	PROB	8.565	n/a	n/a	n/a	-999	5	[3, 2, 2]	7	catFR1	3	R1488T
617.664	0.0	619413	DISTRACT_END	n/a	n/a	n/a	n/a	-999	5	[0, 0, 0]	n/a	catFR1	3	R1488T
617.664	1.3	619415	STOP	n/a	n/a	n/a	n/a	-999	5	[-999, -999, -999]	n/a	catFR1	3	R1488T
618.964	1.031	620717	REC_START	n/a	n/a	n/a	n/a	-999	5	[0, 0, 0]	n/a	catFR1	3	R1488T
619.995	1.688	621746	REC_WORD_VV	1.688	n/a	<>	n/a	-999	5	[0, 0, 0]	n/a	catFR1	3	R1488T
621.683	2.046	623434	REC_WORD	2.046	n/a	SKIRT	Clothing	1	5	[0, 0, 0]	n/a	catFR1	3	R1488T
623.729	1.003	625480	REC_WORD	1.003	n/a	SOCKS	Clothing	2	5	[0, 0, 0]	n/a	catFR1	3	R1488T
624.732	1.201	626483	REC_WORD	1.201	n/a	SOCKS	Clothing	2	5	[0, 0, 0]	n/a	catFR1	3	R1488T
625.933	1.976	627683	REC_WORD	1.976	n/a	SHOES	Clothing	11	5	[0, 0, 0]	n/a	catFR1	3	R1488T
627.909	5.055	629659	REC_WORD	5.055	n/a	BED	Furniture	4	5	[0, 0, 0]	n/a	catFR1	3	R1488T
632.964	0.872	634714	REC_WORD	0.872	n/a	ORANGUTAN	Zoo	10	5	[0, 0, 0]	n/a	catFR1	3	R1488T
633.836	7.717	635586	REC_WORD	7.717	n/a	CHIMPANZEE	Zoo	9	5	[0, 0, 0]	n/a	catFR1	3	R1488T
641.553	0.659	643303	REC_WORD_VV	0.659	n/a	<>	n/a	-999	5	[0, 0, 0]	n/a	catFR1	3	R1488T
642.212	0.212	643962	REC_WORD	0.212	n/a	BED	Furniture	4	5	[0, 0, 0]	n/a	catFR1	3	R1488T
642.424	7.776	644174	REC_WORD_VV	7.776	n/a	<>	n/a	-999	5	[0, 0, 0]	n/a	catFR1	3	R1488T
650.2	5.415	651951	REC_END	n/a	n/a	n/a	n/a	-999	5	[0, 0, 0]	n/a	catFR1	3	R1488T
655.615	10.349	657364	COUNTDOWN_START	n/a	n/a	n/a	n/a	-999	5	[0, 0, 0]	n/a	catFR1	3	R1488T
665.964	0.0	667710	COUNTDOWN_END	n/a	n/a	n/a	n/a	-999	5	[0, 0, 0]	n/a	catFR1	3	R1488T
665.964	2.033	667710	ENCODING_START	n/a	n/a	n/a	n/a	-999	6	[0, 0, 0]	n/a	catFR1	3	R1488T
667.997	1.601	669741	WORD	n/a	wordpools/wordpool_categorized_EN.txt	STRAINER	KitchenTools	1	6	[0, 0, 0]	n/a	catFR1	3	R1488T
669.598	0.783	671347	WORD_OFF	n/a	n/a	STRAINER	KitchenTools	1	6	[0, 0, 0]	n/a	catFR1	3	R1488T
670.381	1.617	672131	WORD	n/a	wordpools/wordpool_categorized_EN.txt	KNIFE	KitchenTools	2	6	[0, 0, 0]	n/a	catFR1	3	R1488T
671.998	0.949	673747	WORD_OFF	n/a	n/a	KNIFE	KitchenTools	2	6	[0, 0, 0]	n/a	catFR1	3	R1488T
672.947	1.601	674691	WORD	n/a	wordpools/wordpool_categorized_EN.txt	GNAT	Insects	3	6	[0, 0, 0]	n/a	catFR1	3	R1488T
674.548	0.916	676297	WORD_OFF	n/a	n/a	GNAT	Insects	3	6	[0, 0, 0]	n/a	catFR1	3	R1488T
675.464	1.601	677204	WORD	n/a	wordpools/wordpool_categorized_EN.txt	BEETLE	Insects	4	6	[0, 0, 0]	n/a	catFR1	3	R1488T
677.065	1.0	678811	WORD_OFF	n/a	n/a	BEETLE	Insects	4	6	[0, 0, 0]	n/a	catFR1	3	R1488T
678.065	1.6	679812	WORD	n/a	wordpools/wordpool_categorized_EN.txt	LILAC	Flowers	5	6	[0, 0, 0]	n/a	catFR1	3	R1488T
679.665	0.883	681409	WORD_OFF	n/a	n/a	LILAC	Flowers	5	6	[0, 0, 0]	n/a	catFR1	3	R1488T
680.548	1.616	682297	WORD	n/a	wordpools/wordpool_categorized_EN.txt	DAISY	Flowers	6	6	[0, 0, 0]	n/a	catFR1	3	R1488T
682.164	0.801	683912	WORD_OFF	n/a	n/a	DAISY	Flowers	6	6	[0, 0, 0]	n/a	catFR1	3	R1488T
682.965	1.616	684706	WORD	n/a	wordpools/wordpool_categorized_EN.txt	CORKSCREW	KitchenTools	7	6	[0, 0, 0]	n/a	catFR1	3	R1488T
684.581	0.95	686331	WORD_OFF	n/a	n/a	CORKSCREW	KitchenTools	7	6	[0, 0, 0]	n/a	catFR1	3	R1488T
685.531	1.617	687276	WORD	n/a	wordpools/wordpool_categorized_EN.txt	GRATER	KitchenTools	8	6	[0, 0, 0]	n/a	catFR1	3	R1488T
687.148	0.85	688891	WORD_OFF	n/a	n/a	GRATER	KitchenTools	8	6	[0, 0, 0]	n/a	catFR1	3	R1488T
687.998	1.617	689741	WORD	n/a	wordpools/wordpool_categorized_EN.txt	BEE	Insects	9	6	[0, 0, 0]	n/a	catFR1	3	R1488T
689.615	0.8	691357	WORD_OFF	n/a	n/a	BEE	Insects	9	6	[0, 0, 0]	n/a	catFR1	3	R1488T
690.415	1.615	692160	WORD	n/a	wordpools/wordpool_categorized_EN.txt	MOTH	Insects	10	6	[0, 0, 0]	n/a	catFR1	3	R1488T
692.03	0.918	693776	WORD_OFF	n/a	n/a	MOTH	Insects	10	6	[0, 0, 0]	n/a	catFR1	3	R1488T
692.948	1.616	694692	WORD	n/a	wordpools/wordpool_categorized_EN.txt	MARIGOLD	Flowers	11	6	[0, 0, 0]	n/a	catFR1	3	R1488T
694.564	0.934	696308	WORD_OFF	n/a	n/a	MARIGOLD	Flowers	11	6	[0, 0, 0]	n/a	catFR1	3	R1488T
695.498	1.617	697243	WORD	n/a	wordpools/wordpool_categorized_EN.txt	VIOLET	Flowers	12	6	[0, 0, 0]	n/a	catFR1	3	R1488T
697.115	0.001	698858	WORD_OFF	n/a	n/a	VIOLET	Flowers	12	6	[0, 0, 0]	n/a	catFR1	3	R1488T
697.116	0.0	698858	ENCODING_END	n/a	n/a	n/a	n/a	-999	6	[0, 0, 0]	n/a	catFR1	3	R1488T
697.116	0.0	698863	PROB	0.0	n/a	n/a	n/a	-999	6	[4, 5, 6]	11	catFR1	3	R1488T
697.116	0.0	698863	START	n/a	n/a	n/a	n/a	-999	6	[-999, -999, -999]	n/a	catFR1	3	R1488T
697.116	5.933	698868	DISTRACT_START	n/a	n/a	n/a	n/a	-999	6	[0, 0, 0]	n/a	catFR1	3	R1488T
703.049	6.316	704796	PROB	6.316	n/a	n/a	n/a	-999	6	[3, 6, 1]	10	catFR1	3	R1488T
709.365	11.649	711111	PROB	11.649	n/a	n/a	n/a	-999	6	[6, 8, 5]	19	catFR1	3	R1488T
721.014	0.0	722760	STOP	n/a	n/a	n/a	n/a	-999	6	[-999, -999, -999]	n/a	catFR1	3	R1488T
721.014	1.267	722761	DISTRACT_END	n/a	n/a	n/a	n/a	-999	6	[0, 0, 0]	n/a	catFR1	3	R1488T
722.281	2.342	724027	REC_START	n/a	n/a	n/a	n/a	-999	6	[0, 0, 0]	n/a	catFR1	3	R1488T
724.623	0.931	726368	REC_WORD	0.931	n/a	BEE	Insects	9	6	[0, 0, 0]	n/a	catFR1	3	R1488T
725.554	1.35	727299	REC_WORD	1.35	n/a	LILAC	Flowers	5	6	[0, 0, 0]	n/a	catFR1	3	R1488T
726.904	1.793	728649	REC_WORD	1.793	n/a	CORN	n/a	-999	6	[0, 0, 0]	n/a	catFR1	3	R1488T
728.697	1.905	730442	REC_WORD	1.905	n/a	SHUCK	n/a	-999	6	[0, 0, 0]	n/a	catFR1	3	R1488T
730.602	1.003	732347	REC_WORD_VV	1.003	n/a	<>	n/a	-999	6	[0, 0, 0]	n/a	catFR1	3	R1488T
731.605	1.0	733350	REC_WORD_VV	1.0	n/a	<>	n/a	-999	6	[0, 0, 0]	n/a	catFR1	3	R1488T
732.605	7.964	734350	REC_WORD_VV	7.964	n/a	<>	n/a	-999	6	[0, 0, 0]	n/a	catFR1	3	R1488T
740.569	12.945	742314	REC_WORD	12.945	n/a	VIOLET	Flowers	12	6	[0, 0, 0]	n/a	catFR1	3	R1488T
753.514	3.435	755251	REC_END	n/a	n/a	n/a	n/a	-999	6	[0, 0, 0]	n/a	catFR1	3	R1488T
756.949	10.348	758690	COUNTDOWN_START	n/a	n/a	n/a	n/a	-999	6	[0, 0, 0]	n/a	catFR1	3	R1488T
767.297	0.0	769035	COUNTDOWN_END	n/a	n/a	n/a	n/a	-999	6	[0, 0, 0]	n/a	catFR1	3	R1488T
767.297	1.968	769035	ENCODING_START	n/a	n/a	n/a	n/a	-999	7	[0, 0, 0]	n/a	catFR1	3	R1488T
769.265	1.616	771008	WORD	n/a	wordpools/wordpool_categorized_EN.txt	SNOW	Weather	1	7	[0, 0, 0]	n/a	catFR1	3	R1488T
770.881	0.783	772625	WORD_OFF	n/a	n/a	SNOW	Weather	1	7	[0, 0, 0]	n/a	catFR1	3	R1488T
771.664	1.601	773409	WORD	n/a	wordpools/wordpool_categorized_EN.txt	TORNADO	Weather	2	7	[0, 0, 0]	n/a	catFR1	3	R1488T
773.265	0.9	775006	WORD_OFF	n/a	n/a	TORNADO	Weather	2	7	[0, 0, 0]	n/a	catFR1	3	R1488T
774.165	1.616	775904	WORD	n/a	wordpools/wordpool_categorized_EN.txt	ERASER	OfficeSupplies	3	7	[0, 0, 0]	n/a	catFR1	3	R1488T
775.781	0.917	777519	WORD_OFF	n/a	n/a	ERASER	OfficeSupplies	3	7	[0, 0, 0]	n/a	catFR1	3	R1488T
776.698	1.615	778436	WORD	n/a	wordpools/wordpool_categorized_EN.txt	FOLDER	OfficeSupplies	4	7	[0, 0, 0]	n/a	catFR1	3	R1488T
778.313	1.001	780051	WORD_OFF	n/a	n/a	FOLDER	OfficeSupplies	4	7	[0, 0, 0]	n/a	catFR1	3	R1488T
779.314	1.601	781053	WORD	n/a	wordpools/wordpool_categorized_EN.txt	MONKEY	Zoo	5	7	[0, 0, 0]	n/a	catFR1	3	R1488T
780.915	0.766	782659	WORD_OFF	n/a	n/a	MONKEY	Zoo	5	7	[0, 0, 0]	n/a	catFR1	3	R1488T
781.681	1.617	783424	WORD	n/a	wordpools/wordpool_categorized_EN.txt	CHEETAH	Zoo	6	7	[0, 0, 0]	n/a	catFR1	3	R1488T
783.298	0.883	785039	WORD_OFF	n/a	n/a	CHEETAH	Zoo	6	7	[0, 0, 0]	n/a	catFR1	3	R1488T
784.181	1.616	785918	WORD	n/a	wordpools/wordpool_categorized_EN.txt	RULER	OfficeSupplies	7	7	[0, 0, 0]	n/a	catFR1	3	R1488T
785.797	0.984	787543	WORD_OFF	n/a	n/a	RULER	OfficeSupplies	7	7	[0, 0, 0]	n/a	catFR1	3	R1488T
786.781	1.617	788516	WORD	n/a	wordpools/wordpool_categorized_EN.txt	GLUE	OfficeSupplies	8	7	[0, 0, 0]	n/a	catFR1	3	R1488T
788.398	0.833	790141	WORD_OFF	n/a	n/a	GLUE	OfficeSupplies	8	7	[0, 0, 0]	n/a	catFR1	3	R1488T
789.231	1.617	790973	WORD	n/a	wordpools/wordpool_categorized_EN.txt	ELEPHANT	Zoo	9	7	[0, 0, 0]	n/a	catFR1	3	R1488T
790.848	0.917	792588	WORD_OFF	n/a	n/a	ELEPHANT	Zoo	9	7	[0, 0, 0]	n/a	catFR1	3	R1488T
791.765	1.601	793505	WORD	n/a	wordpools/wordpool_categorized_EN.txt	TIGER	Zoo	10	7	[0, 0, 0]	n/a	catFR1	3	R1488T
793.366	0.965	795101	WORD_OFF	n/a	n/a	TIGER	Zoo	10	7	[0, 0, 0]	n/a	catFR1	3	R1488T
794.331	1.601	796074	WORD	n/a	wordpools/wordpool_categorized_EN.txt	HUMIDITY	Weather	11	7	[0, 0, 0]	n/a	catFR1	3	R1488T
795.932	0.916	797671	WORD_OFF	n/a	n/a	HUMIDITY	Weather	11	7	[0, 0, 0]	n/a	catFR1	3	R1488T
796.848	1.617	798587	WORD	n/a	wordpools/wordpool_categorized_EN.txt	THUNDERSTORM	Weather	12	7	[0, 0, 0]	n/a	catFR1	3	R1488T
798.465	0.001	800203	WORD_OFF	n/a	n/a	THUNDERSTORM	Weather	12	7	[0, 0, 0]	n/a	catFR1	3	R1488T
798.466	0.0	800203	ENCODING_END	n/a	n/a	n/a	n/a	-999	7	[0, 0, 0]	n/a	catFR1	3	R1488T
798.465	0.001	800207	PROB	0.001	n/a	n/a	n/a	-999	7	[6, 5, 2]	13	catFR1	3	R1488T
798.466	0.0	800208	START	n/a	n/a	n/a	n/a	-999	7	[-999, -999, -999]	n/a	catFR1	3	R1488T
798.466	7.166	800212	DISTRACT_START	n/a	n/a	n/a	n/a	-999	7	[0, 0, 0]	n/a	catFR1	3	R1488T
805.632	17.215	807373	PROB	17.215	n/a	n/a	n/a	-999	7	[4, 3, 8]	15	catFR1	3	R1488T
822.847	0.0	824587	DISTRACT_END	n/a	n/a	n/a	n/a	-999	7	[0, 0, 0]	n/a	catFR1	3	R1488T
822.847	1.15	824587	STOP	n/a	n/a	n/a	n/a	-999	7	[-999, -999, -999]	n/a	catFR1	3	R1488T
823.997	4.3	825730	REC_START	n/a	n/a	n/a	n/a	-999	7	[0, 0, 0]	n/a	catFR1	3	R1488T
828.297	1.0	830037	REC_WORD_VV	1.0	n/a	<>	n/a	-999	7	[0, 0, 0]	n/a	catFR1	3	R1488T
829.297	4.37	831037	REC_WORD_VV	4.37	n/a	<>	n/a	-999	7	[0, 0, 0]	n/a	catFR1	3	R1488T
833.667	0.528	835407	REC_WORD	0.528	n/a	ELEPHANT	Zoo	9	7	[0, 0, 0]	n/a	catFR1	3	R1488T
834.195	3.844	835935	REC_WORD	3.844	n/a	TIGER	Zoo	10	7	[0, 0, 0]	n/a	catFR1	3	R1488T
838.039	17.211	839779	REC_WORD	17.211	n/a	MONKEY	Zoo	5	7	[0, 0, 0]	n/a	catFR1	3	R1488T
855.25	4.331	856983	REC_END	n/a	n/a	n/a	n/a	-999	7	[0, 0, 0]	n/a	catFR1	3	R1488T
859.581	10.35	861320	COUNTDOWN_START	n/a	n/a	n/a	n/a	-999	7	[0, 0, 0]	n/a	catFR1	3	R1488T
869.931	0.0	871665	COUNTDOWN_END	n/a	n/a	n/a	n/a	-999	7	[0, 0, 0]	n/a	catFR1	3	R1488T
869.931	2.317	871665	ENCODING_START	n/a	n/a	n/a	n/a	-999	8	[0, 0, 0]	n/a	catFR1	3	R1488T
872.248	1.617	873979	WORD	n/a	wordpools/wordpool_categorized_EN.txt	SAW	Tools	1	8	[0, 0, 0]	n/a	catFR1	3	R1488T
873.865	0.949	875604	WORD_OFF	n/a	n/a	SAW	Tools	1	8	[0, 0, 0]	n/a	catFR1	3	R1488T
874.814	1.601	876549	WORD	n/a	wordpools/wordpool_categorized_EN.txt	DRILL	Tools	2	8	[0, 0, 0]	n/a	catFR1	3	R1488T
876.415	0.867	878146	WORD_OFF	n/a	n/a	DRILL	Tools	2	8	[0, 0, 0]	n/a	catFR1	3	R1488T
877.282	1.616	879015	WORD	n/a	wordpools/wordpool_categorized_EN.txt	PENCIL	OfficeSupplies	3	8	[0, 0, 0]	n/a	catFR1	3	R1488T
878.898	0.85	880630	WORD_OFF	n/a	n/a	PENCIL	OfficeSupplies	3	8	[0, 0, 0]	n/a	catFR1	3	R1488T
879.748	1.617	881481	WORD	n/a	wordpools/wordpool_categorized_EN.txt	BINDER	OfficeSupplies	4	8	[0, 0, 0]	n/a	catFR1	3	R1488T
881.365	0.85	883096	WORD_OFF	n/a	n/a	BINDER	OfficeSupplies	4	8	[0, 0, 0]	n/a	catFR1	3	R1488T
882.215	1.616	883947	WORD	n/a	wordpools/wordpool_categorized_EN.txt	SHELF	Furniture	5	8	[0, 0, 0]	n/a	catFR1	3	R1488T
883.831	0.967	885562	WORD_OFF	n/a	n/a	SHELF	Furniture	5	8	[0, 0, 0]	n/a	catFR1	3	R1488T
884.798	1.617	886535	WORD	n/a	wordpools/wordpool_categorized_EN.txt	CABINET	Furniture	6	8	[0, 0, 0]	n/a	catFR1	3	R1488T
886.415	0.833	888151	WORD_OFF	n/a	n/a	CABINET	Furniture	6	8	[0, 0, 0]	n/a	catFR1	3	R1488T
887.248	1.617	888982	WORD	n/a	wordpools/wordpool_categorized_EN.txt	TAPE	OfficeSupplies	7	8	[0, 0, 0]	n/a	catFR1	3	R1488T
888.865	0.866	890598	WORD_OFF	n/a	n/a	TAPE	OfficeSupplies	7	8	[0, 0, 0]	n/a	catFR1	3	R1488T
889.731	1.617	891467	WORD	n/a	wordpools/wordpool_categorized_EN.txt	MARKER	OfficeSupplies	8	8	[0, 0, 0]	n/a	catFR1	3	R1488T
891.348	0.967	893082	WORD_OFF	n/a	n/a	MARKER	OfficeSupplies	8	8	[0, 0, 0]	n/a	catFR1	3	R1488T
892.315	1.6	894046	WORD	n/a	wordpools/wordpool_categorized_EN.txt	AXE	Tools	9	8	[0, 0, 0]	n/a	catFR1	3	R1488T
893.915	0.983	895652	WORD_OFF	n/a	n/a	AXE	Tools	9	8	[0, 0, 0]	n/a	catFR1	3	R1488T
894.898	1.6	896635	WORD	n/a	wordpools/wordpool_categorized_EN.txt	RATCHET	Tools	10	8	[0, 0, 0]	n/a	catFR1	3	R1488T
896.498	0.883	898231	WORD_OFF	n/a	n/a	RATCHET	Tools	10	8	[0, 0, 0]	n/a	catFR1	3	R1488T
897.381	1.617	899119	WORD	n/a	wordpools/wordpool_categorized_EN.txt	RECLINER	Furniture	11	8	[0, 0, 0]	n/a	catFR1	3	R1488T
898.998	0.933	900735	WORD_OFF	n/a	n/a	RECLINER	Furniture	11	8	[0, 0, 0]	n/a	catFR1	3	R1488T
899.931	1.6	901661	WORD	n/a	wordpools/wordpool_categorized_EN.txt	BOOKCASE	Furniture	12	8	[0, 0, 0]	n/a	catFR1	3	R1488T
901.531	0.004	903267	WORD_OFF	n/a	n/a	BOOKCASE	Furniture	12	8	[0, 0, 0]	n/a	catFR1	3	R1488T
901.535	0.0	903267	ENCODING_END	n/a	n/a	n/a	n/a	-999	8	[0, 0, 0]	n/a	catFR1	3	R1488T
901.535	0.0	903267	DISTRACT_START	n/a	n/a	n/a	n/a	-999	8	[0, 0, 0]	n/a	catFR1	3	R1488T
901.532	0.003	903268	PROB	0.003	n/a	n/a	n/a	-999	8	[5, 2, 8]	15	catFR1	3	R1488T
901.535	6.713	903271	START	n/a	n/a	n/a	n/a	-999	8	[-999, -999, -999]	n/a	catFR1	3	R1488T
908.248	6.15	909984	PROB	6.15	n/a	n/a	n/a	-999	8	[2, 3, 3]	8	catFR1	3	R1488T
914.398	5.667	916134	PROB	5.667	n/a	n/a	n/a	-999	8	[1, 1, 3]	5	catFR1	3	R1488T
920.065	6.617	921800	PROB	6.617	n/a	n/a	n/a	-999	8	[1, 8, 8]	17	catFR1	3	R1488T
926.682	0.0	928416	DISTRACT_END	n/a	n/a	n/a	n/a	-999	8	[0, 0, 0]	n/a	catFR1	3	R1488T
926.682	1.099	928417	STOP	n/a	n/a	n/a	n/a	-999	8	[-999, -999, -999]	n/a	catFR1	3	R1488T
927.781	3.07	929512	REC_START	n/a	n/a	n/a	n/a	-999	8	[0, 0, 0]	n/a	catFR1	3	R1488T
930.851	1.149	932586	REC_WORD	1.149	n/a	BOOKCASE	Furniture	12	8	[0, 0, 0]	n/a	catFR1	3	R1488T
932.0	1.519	933735	REC_WORD	1.519	n/a	SHELF	Furniture	5	8	[0, 0, 0]	n/a	catFR1	3	R1488T
933.519	20.164	935254	REC_WORD_VV	20.164	n/a	<>	n/a	-999	8	[0, 0, 0]	n/a	catFR1	3	R1488T
953.683	5.334	955417	REC_WORD_VV	5.334	n/a	<>	n/a	-999	8	[0, 0, 0]	n/a	catFR1	3	R1488T
959.017	4.997	960746	REC_END	n/a	n/a	n/a	n/a	-999	8	[0, 0, 0]	n/a	catFR1	3	R1488T
964.014	10.35	965744	COUNTDOWN_START	n/a	n/a	n/a	n/a	-999	8	[0, 0, 0]	n/a	catFR1	3	R1488T
974.364	0.0	976099	COUNTDOWN_END	n/a	n/a	n/a	n/a	-999	8	[0, 0, 0]	n/a	catFR1	3	R1488T
974.364	2.234	976099	ENCODING_START	n/a	n/a	n/a	n/a	-999	9	[0, 0, 0]	n/a	catFR1	3	R1488T
976.598	1.617	978328	WORD	n/a	wordpools/wordpool_categorized_EN.txt	CRICKET	Insects	1	9	[0, 0, 0]	n/a	catFR1	3	R1488T
978.215	0.766	979944	WORD_OFF	n/a	n/a	CRICKET	Insects	1	9	[0, 0, 0]	n/a	catFR1	3	R1488T
978.981	1.617	980709	WORD	n/a	wordpools/wordpool_categorized_EN.txt	SPIDER	Insects	2	9	[0, 0, 0]	n/a	catFR1	3	R1488T
980.598	0.817	982325	WORD_OFF	n/a	n/a	SPIDER	Insects	2	9	[0, 0, 0]	n/a	catFR1	3	R1488T
981.415	1.616	983146	WORD	n/a	wordpools/wordpool_categorized_EN.txt	MAPLE	Trees	3	9	[0, 0, 0]	n/a	catFR1	3	R1488T
983.031	0.95	984762	WORD_OFF	n/a	n/a	MAPLE	Trees	3	9	[0, 0, 0]	n/a	catFR1	3	R1488T
983.981	1.617	985707	WORD	n/a	wordpools/wordpool_categorized_EN.txt	CEDAR	Trees	4	9	[0, 0, 0]	n/a	catFR1	3	R1488T
985.598	1.0	987332	WORD_OFF	n/a	n/a	CEDAR	Trees	4	9	[0, 0, 0]	n/a	catFR1	3	R1488T
986.598	1.6	988324	WORD	n/a	wordpools/wordpool_categorized_EN.txt	NYLON	Fabric	5	9	[0, 0, 0]	n/a	catFR1	3	R1488T
988.198	0.816	989930	WORD_OFF	n/a	n/a	NYLON	Fabric	5	9	[0, 0, 0]	n/a	catFR1	3	R1488T
989.014	1.601	990742	WORD	n/a	wordpools/wordpool_categorized_EN.txt	COTTON	Fabric	6	9	[0, 0, 0]	n/a	catFR1	3	R1488T
990.615	0.833	992348	WORD_OFF	n/a	n/a	COTTON	Fabric	6	9	[0, 0, 0]	n/a	catFR1	3	R1488T
991.448	1.6	993180	WORD	n/a	wordpools/wordpool_categorized_EN.txt	WILLOW	Trees	7	9	[0, 0, 0]	n/a	catFR1	3	R1488T
993.048	0.983	994776	WORD_OFF	n/a	n/a	WILLOW	Trees	7	9	[0, 0, 0]	n/a	catFR1	3	R1488T
994.031	1.617	995759	WORD	n/a	wordpools/wordpool_categorized_EN.txt	CYPRESS	Trees	8	9	[0, 0, 0]	n/a	catFR1	3	R1488T
995.648	0.817	997375	WORD_OFF	n/a	n/a	CYPRESS	Trees	8	9	[0, 0, 0]	n/a	catFR1	3	R1488T
996.465	1.616	998197	WORD	n/a	wordpools/wordpool_categorized_EN.txt	LINEN	Fabric	9	9	[0, 0, 0]	n/a	catFR1	3	R1488T
998.081	0.817	999812	WORD_OFF	n/a	n/a	LINEN	Fabric	9	9	[0, 0, 0]	n/a	catFR1	3	R1488T
998.898	1.617	1000625	WORD	n/a	wordpools/wordpool_categorized_EN.txt	SILK	Fabric	10	9	[0, 0, 0]	n/a	catFR1	3	R1488T
1000.515	0.816	1002240	WORD_OFF	n/a	n/a	SILK	Fabric	10	9	[0, 0, 0]	n/a	catFR1	3	R1488T
1001.331	1.617	1003062	WORD	n/a	wordpools/wordpool_categorized_EN.txt	ROACH	Insects	11	9	[0, 0, 0]	n/a	catFR1	3	R1488T
1002.948	0.784	1004678	WORD_OFF	n/a	n/a	ROACH	Insects	11	9	[0, 0, 0]	n/a	catFR1	3	R1488T
1003.732	1.616	1005462	WORD	n/a	wordpools/wordpool_categorized_EN.txt	BUTTERFLY	Insects	12	9	[0, 0, 0]	n/a	catFR1	3	R1488T
1005.348	0.001	1007077	WORD_OFF	n/a	n/a	BUTTERFLY	Insects	12	9	[0, 0, 0]	n/a	catFR1	3	R1488T
1005.349	0.0	1007077	ENCODING_END	n/a	n/a	n/a	n/a	-999	9	[0, 0, 0]	n/a	catFR1	3	R1488T
1005.349	0.0	1007077	DISTRACT_START	n/a	n/a	n/a	n/a	-999	9	[0, 0, 0]	n/a	catFR1	3	R1488T
1005.349	0.0	1007080	START	n/a	n/a	n/a	n/a	-999	9	[-999, -999, -999]	n/a	catFR1	3	R1488T
1005.349	8.017	1007080	PROB	8.017	n/a	n/a	n/a	-999	9	[7, 4, 6]	17	catFR1	3	R1488T
1013.366	4.316	1015097	PROB	4.316	n/a	n/a	n/a	-999	9	[2, 6, 4]	12	catFR1	3	R1488T
1017.682	4.55	1019413	PROB	4.55	n/a	n/a	n/a	-999	9	[3, 5, 5]	13	catFR1	3	R1488T
1022.232	8.298	1023962	PROB	8.298	n/a	n/a	n/a	-999	9	[3, 8, 5]	16	catFR1	3	R1488T
1030.53	0.0	1032255	DISTRACT_END	n/a	n/a	n/a	n/a	-999	9	[0, 0, 0]	n/a	catFR1	3	R1488T
1030.53	1.2	1032260	STOP	n/a	n/a	n/a	n/a	-999	9	[-999, -999, -999]	n/a	catFR1	3	R1488T
1031.73	3.049	1033455	REC_START	n/a	n/a	n/a	n/a	-999	9	[0, 0, 0]	n/a	catFR1	3	R1488T
1034.779	1.48	1036509	REC_WORD	1.48	n/a	CEDAR	Trees	4	9	[0, 0, 0]	n/a	catFR1	3	R1488T
1036.259	1.022	1037989	REC_WORD	1.022	n/a	CYPRESS	Trees	8	9	[0, 0, 0]	n/a	catFR1	3	R1488T
1037.281	5.8	1039011	REC_WORD	5.8	n/a	MAPLE	Trees	3	9	[0, 0, 0]	n/a	catFR1	3	R1488T
1043.081	3.938	1044810	REC_WORD	3.938	n/a	SILK	Fabric	10	9	[0, 0, 0]	n/a	catFR1	3	R1488T
1047.019	11.684	1048748	REC_WORD	11.684	n/a	BUTTERFLY	Insects	12	9	[0, 0, 0]	n/a	catFR1	3	R1488T
1058.703	2.166	1060431	REC_WORD	2.166	n/a	ELK	n/a	-999	9	[0, 0, 0]	n/a	catFR1	3	R1488T
1060.869	2.078	1062597	REC_WORD_VV	2.078	n/a	<>	n/a	-999	9	[0, 0, 0]	n/a	catFR1	3	R1488T
1062.947	4.268	1064670	REC_END	n/a	n/a	n/a	n/a	-999	9	[0, 0, 0]	n/a	catFR1	3	R1488T
1067.215	10.349	1068940	COUNTDOWN_START	n/a	n/a	n/a	n/a	-999	9	[0, 0, 0]	n/a	catFR1	3	R1488T
1077.564	0.0	1079285	COUNTDOWN_END	n/a	n/a	n/a	n/a	-999	9	[0, 0, 0]	n/a	catFR1	3	R1488T
1077.564	2.017	1079295	ENCODING_START	n/a	n/a	n/a	n/a	-999	10	[0, 0, 0]	n/a	catFR1	3	R1488T
1079.581	1.6	1081307	WORD	n/a	wordpools/wordpool_categorized_EN.txt	BEAR	Zoo	1	10	[0, 0, 0]	n/a	catFR1	3	R1488T
1081.181	0.95	1082904	WORD_OFF	n/a	n/a	BEAR	Zoo	1	10	[0, 0, 0]	n/a	catFR1	3	R1488T
1082.131	1.617	1083858	WORD	n/a	wordpools/wordpool_categorized_EN.txt	PANDA	Zoo	2	10	[0, 0, 0]	n/a	catFR1	3	R1488T
1083.748	0.834	1085474	WORD_OFF	n/a	n/a	PANDA	Zoo	2	10	[0, 0, 0]	n/a	catFR1	3	R1488T
1084.582	1.616	1086305	WORD	n/a	wordpools/wordpool_categorized_EN.txt	BULL	FarmAnimals	3	10	[0, 0, 0]	n/a	catFR1	3	R1488T
1086.198	0.85	1087920	WORD_OFF	n/a	n/a	BULL	FarmAnimals	3	10	[0, 0, 0]	n/a	catFR1	3	R1488T
1087.048	1.601	1088771	WORD	n/a	wordpools/wordpool_categorized_EN.txt	SHEEP	FarmAnimals	4	10	[0, 0, 0]	n/a	catFR1	3	R1488T
1088.649	0.915	1090377	WORD_OFF	n/a	n/a	SHEEP	FarmAnimals	4	10	[0, 0, 0]	n/a	catFR1	3	R1488T
1089.564	1.601	1091284	WORD	n/a	wordpools/wordpool_categorized_EN.txt	FOUNDATION	Building	5	10	[0, 0, 0]	n/a	catFR1	3	R1488T
1091.165	0.983	1092890	WORD_OFF	n/a	n/a	FOUNDATION	Building	5	10	[0, 0, 0]	n/a	catFR1	3	R1488T
1092.148	1.6	1093872	WORD	n/a	wordpools/wordpool_categorized_EN.txt	HALLWAY	Building	6	10	[0, 0, 0]	n/a	catFR1	3	R1488T
1093.748	0.783	1095469	WORD_OFF	n/a	n/a	HALLWAY	Building	6	10	[0, 0, 0]	n/a	catFR1	3	R1488T
1094.531	1.618	1096253	WORD	n/a	wordpools/wordpool_categorized_EN.txt	ZEBRA	Zoo	7	10	[0, 0, 0]	n/a	catFR1	3	R1488T
1096.149	0.783	1097869	WORD_OFF	n/a	n/a	ZEBRA	Zoo	7	10	[0, 0, 0]	n/a	catFR1	3	R1488T
1096.932	1.616	1098653	WORD	n/a	wordpools/wordpool_categorized_EN.txt	GIRAFFE	Zoo	8	10	[0, 0, 0]	n/a	catFR1	3	R1488T
1098.548	0.817	1100269	WORD_OFF	n/a	n/a	GIRAFFE	Zoo	8	10	[0, 0, 0]	n/a	catFR1	3	R1488T
1099.365	1.6	1101090	WORD	n/a	wordpools/wordpool_categorized_EN.txt	COW	FarmAnimals	9	10	[0, 0, 0]	n/a	catFR1	3	R1488T
1100.965	0.966	1102687	WORD_OFF	n/a	n/a	COW	FarmAnimals	9	10	[0, 0, 0]	n/a	catFR1	3	R1488T
1101.931	1.601	1103651	WORD	n/a	wordpools/wordpool_categorized_EN.txt	HEN	FarmAnimals	10	10	[0, 0, 0]	n/a	catFR1	3	R1488T
1103.532	0.783	1105257	WORD_OFF	n/a	n/a	HEN	FarmAnimals	10	10	[0, 0, 0]	n/a	catFR1	3	R1488T
1104.315	1.616	1106041	WORD	n/a	wordpools/wordpool_categorized_EN.txt	ROOF	Building	11	10	[0, 0, 0]	n/a	catFR1	3	R1488T
1105.931	0.934	1107657	WORD_OFF	n/a	n/a	ROOF	Building	11	10	[0, 0, 0]	n/a	catFR1	3	R1488T
1106.865	1.615	1108592	WORD	n/a	wordpools/wordpool_categorized_EN.txt	STAIRS	Building	12	10	[0, 0, 0]	n/a	catFR1	3	R1488T
1108.48	0.0	1110206	PROB	0.0	n/a	n/a	n/a	-999	10	[7, 2, 3]	12	catFR1	3	R1488T
1108.48	0.002	1110207	WORD_OFF	n/a	n/a	STAIRS	Building	12	10	[0, 0, 0]	n/a	catFR1	3	R1488T
1108.482	0.0	1110207	ENCODING_END	n/a	n/a	n/a	n/a	-999	10	[0, 0, 0]	n/a	catFR1	3	R1488T
1108.482	0.0	1110207	DISTRACT_START	n/a	n/a	n/a	n/a	-999	10	[0, 0, 0]	n/a	catFR1	3	R1488T
1108.482	6.417	1110208	START	n/a	n/a	n/a	n/a	-999	10	[-999, -999, -999]	n/a	catFR1	3	R1488T
1114.899	6.683	1116625	PROB	6.683	n/a	n/a	n/a	-999	10	[2, 4, 2]	8	catFR1	3	R1488T
1121.582	7.649	1123307	PROB	7.649	n/a	n/a	n/a	-999	10	[6, 5, 3]	14	catFR1	3	R1488T
1129.231	0.0	1130954	DISTRACT_END	n/a	n/a	n/a	n/a	-999	10	[0, 0, 0]	n/a	catFR1	3	R1488T
1129.231	1.233	1130956	STOP	n/a	n/a	n/a	n/a	-999	10	[-999, -999, -999]	n/a	catFR1	3	R1488T
1130.464	3.608	1132183	REC_START	n/a	n/a	n/a	n/a	-999	10	[0, 0, 0]	n/a	catFR1	3	R1488T
1134.072	2.754	1135797	REC_WORD	2.754	n/a	BEAR	Zoo	1	10	[0, 0, 0]	n/a	catFR1	3	R1488T
1136.826	4.54	1138550	REC_WORD	4.54	n/a	PANDA	Zoo	2	10	[0, 0, 0]	n/a	catFR1	3	R1488T
1141.366	2.423	1143090	REC_WORD	2.423	n/a	POOL	n/a	-999	10	[0, 0, 0]	n/a	catFR1	3	R1488T
1143.789	7.649	1145513	REC_WORD	7.649	n/a	GIRAFFE	Zoo	8	10	[0, 0, 0]	n/a	catFR1	3	R1488T
1151.438	3.693	1153162	REC_WORD	3.693	n/a	GIFT	n/a	-999	10	[0, 0, 0]	n/a	catFR1	3	R1488T
1155.131	4.627	1156855	REC_WORD_VV	4.627	n/a	<>	n/a	-999	10	[0, 0, 0]	n/a	catFR1	3	R1488T
1159.758	1.925	1161481	REC_WORD	1.925	n/a	HALLWAY	Building	6	10	[0, 0, 0]	n/a	catFR1	3	R1488T
1161.683	5.215	1163407	REC_END	n/a	n/a	n/a	n/a	-999	10	[0, 0, 0]	n/a	catFR1	3	R1488T
1166.898	10.349	1168622	COUNTDOWN_START	n/a	n/a	n/a	n/a	-999	10	[0, 0, 0]	n/a	catFR1	3	R1488T
1177.247	0.0	1178967	COUNTDOWN_END	n/a	n/a	n/a	n/a	-999	10	[0, 0, 0]	n/a	catFR1	3	R1488T
1177.247	2.135	1178967	ENCODING_START	n/a	n/a	n/a	n/a	-999	11	[0, 0, 0]	n/a	catFR1	3	R1488T
1179.382	1.599	1181102	WORD	n/a	wordpools/wordpool_categorized_EN.txt	SATIN	Fabric	1	11	[0, 0, 0]	n/a	catFR1	3	R1488T
1180.981	0.801	1182699	WORD_OFF	n/a	n/a	SATIN	Fabric	1	11	[0, 0, 0]	n/a	catFR1	3	R1488T
1181.782	1.616	1183502	WORD	n/a	wordpools/wordpool_categorized_EN.txt	SPANDEX	Fabric	2	11	[0, 0, 0]	n/a	catFR1	3	R1488T
1183.398	0.983	1185118	WORD_OFF	n/a	n/a	SPANDEX	Fabric	2	11	[0, 0, 0]	n/a	catFR1	3	R1488T
1184.381	1.617	1186100	WORD	n/a	wordpools/wordpool_categorized_EN.txt	FLOOR	Building	3	11	[0, 0, 0]	n/a	catFR1	3	R1488T
1185.998	0.833	1187716	WORD_OFF	n/a	n/a	FLOOR	Building	3	11	[0, 0, 0]	n/a	catFR1	3	R1488T
1186.831	1.6	1188547	WORD	n/a	wordpools/wordpool_categorized_EN.txt	ATTIC	Building	4	11	[0, 0, 0]	n/a	catFR1	3	R1488T
1188.431	0.984	1190153	WORD_OFF	n/a	n/a	ATTIC	Building	4	11	[0, 0, 0]	n/a	catFR1	3	R1488T
1189.415	1.616	1191136	WORD	n/a	wordpools/wordpool_categorized_EN.txt	SPRUCE	Trees	5	11	[0, 0, 0]	n/a	catFR1	3	R1488T
1191.031	0.951	1192751	WORD_OFF	n/a	n/a	SPRUCE	Trees	5	11	[0, 0, 0]	n/a	catFR1	3	R1488T
1191.982	1.616	1193705	WORD	n/a	wordpools/wordpool_categorized_EN.txt	OAK	Trees	6	11	[0, 0, 0]	n/a	catFR1	3	R1488T
1193.598	0.817	1195321	WORD_OFF	n/a	n/a	OAK	Trees	6	11	[0, 0, 0]	n/a	catFR1	3	R1488T
1194.415	1.6	1196133	WORD	n/a	wordpools/wordpool_categorized_EN.txt	SUEDE	Fabric	7	11	[0, 0, 0]	n/a	catFR1	3	R1488T
1196.015	0.883	1197730	WORD_OFF	n/a	n/a	SUEDE	Fabric	7	11	[0, 0, 0]	n/a	catFR1	3	R1488T
1196.898	1.6	1198618	WORD	n/a	wordpools/wordpool_categorized_EN.txt	LEATHER	Fabric	8	11	[0, 0, 0]	n/a	catFR1	3	R1488T
1198.498	0.783	1200215	WORD_OFF	n/a	n/a	LEATHER	Fabric	8	11	[0, 0, 0]	n/a	catFR1	3	R1488T
1199.281	1.6	1200999	WORD	n/a	wordpools/wordpool_categorized_EN.txt	ELM	Trees	9	11	[0, 0, 0]	n/a	catFR1	3	R1488T
1200.881	0.85	1202596	WORD_OFF	n/a	n/a	ELM	Trees	9	11	[0, 0, 0]	n/a	catFR1	3	R1488T
1201.731	1.601	1203446	WORD	n/a	wordpools/wordpool_categorized_EN.txt	EVERGREEN	Trees	10	11	[0, 0, 0]	n/a	catFR1	3	R1488T
1203.332	0.866	1205052	WORD_OFF	n/a	n/a	EVERGREEN	Trees	10	11	[0, 0, 0]	n/a	catFR1	3	R1488T
1204.198	1.617	1205921	WORD	n/a	wordpools/wordpool_categorized_EN.txt	ROOM	Building	11	11	[0, 0, 0]	n/a	catFR1	3	R1488T
1205.815	0.783	1207537	WORD_OFF	n/a	n/a	ROOM	Building	11	11	[0, 0, 0]	n/a	catFR1	3	R1488T
1206.598	1.6	1208321	WORD	n/a	wordpools/wordpool_categorized_EN.txt	CEILING	Building	12	11	[0, 0, 0]	n/a	catFR1	3	R1488T
1208.198	0.001	1209918	WORD_OFF	n/a	n/a	CEILING	Building	12	11	[0, 0, 0]	n/a	catFR1	3	R1488T
1208.199	0.0	1209918	ENCODING_END	n/a	n/a	n/a	n/a	-999	11	[0, 0, 0]	n/a	catFR1	3	R1488T
1208.199	0.0	1209918	DISTRACT_START	n/a	n/a	n/a	n/a	-999	11	[0, 0, 0]	n/a	catFR1	3	R1488T
1208.199	0.001	1209920	START	n/a	n/a	n/a	n/a	-999	11	[-999, -999, -999]	n/a	catFR1	3	R1488T
1208.2	11.181	1209921	PROB	11.181	n/a	n/a	n/a	-999	11	[5, 1, 8]	14	catFR1	3	R1488T
1219.381	6.534	1221101	PROB	6.534	n/a	n/a	n/a	-999	11	[5, 8, 6]	19	catFR1	3	R1488T
1225.915	7.432	1227635	PROB	7.432	n/a	n/a	n/a	-999	11	[7, 6, 8]	21	catFR1	3	R1488T
1233.347	0.0	1235067	DISTRACT_END	n/a	n/a	n/a	n/a	-999	11	[0, 0, 0]	n/a	catFR1	3	R1488T
1233.347	1.267	1235067	STOP	n/a	n/a	n/a	n/a	-999	11	[-999, -999, -999]	n/a	catFR1	3	R1488T
1234.614	2.97	1236333	REC_START	n/a	n/a	n/a	n/a	-999	11	[0, 0, 0]	n/a	catFR1	3	R1488T
1237.584	1.088	1239303	REC_WORD	1.088	n/a	SPRUCE	Trees	5	11	[0, 0, 0]	n/a	catFR1	3	R1488T
1238.672	3.385	1240391	REC_WORD	3.385	n/a	EVERGREEN	Trees	10	11	[0, 0, 0]	n/a	catFR1	3	R1488T
1242.057	6.354	1243776	REC_WORD	6.354	n/a	ELM	Trees	9	11	[0, 0, 0]	n/a	catFR1	3	R1488T
1248.411	4.65	1250130	REC_WORD	4.65	n/a	MOSQUITO	Insects	-999	11	[0, 0, 0]	n/a	catFR1	3	R1488T
1253.061	12.777	1254780	REC_WORD	12.777	n/a	PINE	n/a	-999	11	[0, 0, 0]	n/a	catFR1	3	R1488T
1265.838	4.81	1267557	REC_END	n/a	n/a	n/a	n/a	-999	11	[0, 0, 0]	n/a	catFR1	3	R1488T
1270.648	10.349	1272366	COUNTDOWN_START	n/a	n/a	n/a	n/a	-999	11	[0, 0, 0]	n/a	catFR1	3	R1488T
1280.997	0.0	1282711	COUNTDOWN_END	n/a	n/a	n/a	n/a	-999	11	[0, 0, 0]	n/a	catFR1	3	R1488T
1280.997	2.151	1282711	ENCODING_START	n/a	n/a	n/a	n/a	-999	12	[0, 0, 0]	n/a	catFR1	3	R1488T
1283.148	1.6	1284865	WORD	n/a	wordpools/wordpool_categorized_EN.txt	WALNUT	Trees	1	12	[0, 0, 0]	n/a	catFR1	3	R1488T
1284.748	0.8	1286462	WORD_OFF	n/a	n/a	WALNUT	Trees	1	12	[0, 0, 0]	n/a	catFR1	3	R1488T
1285.548	1.617	1287265	WORD	n/a	wordpools/wordpool_categorized_EN.txt	BIRCH	Trees	2	12	[0, 0, 0]	n/a	catFR1	3	R1488T
1287.165	0.9	1288881	WORD_OFF	n/a	n/a	BIRCH	Trees	2	12	[0, 0, 0]	n/a	catFR1	3	R1488T
1288.065	1.6	1289778	WORD	n/a	wordpools/wordpool_categorized_EN.txt	TELEVISION	Electronics	3	12	[0, 0, 0]	n/a	catFR1	3	R1488T
1289.665	0.783	1291375	WORD_OFF	n/a	n/a	TELEVISION	Electronics	3	12	[0, 0, 0]	n/a	catFR1	3	R1488T
1290.448	1.617	1292159	WORD	n/a	wordpools/wordpool_categorized_EN.txt	STEREO	Electronics	4	12	[0, 0, 0]	n/a	catFR1	3	R1488T
1292.065	0.833	1293775	WORD_OFF	n/a	n/a	STEREO	Electronics	4	12	[0, 0, 0]	n/a	catFR1	3	R1488T
1292.898	1.617	1294615	WORD	n/a	wordpools/wordpool_categorized_EN.txt	LAMB	FarmAnimals	5	12	[0, 0, 0]	n/a	catFR1	3	R1488T
1294.515	1.0	1296231	WORD_OFF	n/a	n/a	LAMB	FarmAnimals	5	12	[0, 0, 0]	n/a	catFR1	3	R1488T
1295.515	1.616	1297232	WORD	n/a	wordpools/wordpool_categorized_EN.txt	CHICKEN	FarmAnimals	6	12	[0, 0, 0]	n/a	catFR1	3	R1488T
1297.131	0.884	1298848	WORD_OFF	n/a	n/a	CHICKEN	FarmAnimals	6	12	[0, 0, 0]	n/a	catFR1	3	R1488T
1298.015	1.615	1299727	WORD	n/a	wordpools/wordpool_categorized_EN.txt	PHONE	Electronics	7	12	[0, 0, 0]	n/a	catFR1	3	R1488T
1299.63	0.851	1301342	WORD_OFF	n/a	n/a	PHONE	Electronics	7	12	[0, 0, 0]	n/a	catFR1	3	R1488T
1300.481	1.601	1302192	WORD	n/a	wordpools/wordpool_categorized_EN.txt	PRINTER	Electronics	8	12	[0, 0, 0]	n/a	catFR1	3	R1488T
1302.082	0.899	1303798	WORD_OFF	n/a	n/a	PRINTER	Electronics	8	12	[0, 0, 0]	n/a	catFR1	3	R1488T
1302.981	1.601	1304696	WORD	n/a	wordpools/wordpool_categorized_EN.txt	HORSE	FarmAnimals	9	12	[0, 0, 0]	n/a	catFR1	3	R1488T
1304.582	0.899	1306293	WORD_OFF	n/a	n/a	HORSE	FarmAnimals	9	12	[0, 0, 0]	n/a	catFR1	3	R1488T
1305.481	1.6	1307190	WORD	n/a	wordpools/wordpool_categorized_EN.txt	ROOSTER	FarmAnimals	10	12	[0, 0, 0]	n/a	catFR1	3	R1488T
1307.081	0.8	1308796	WORD_OFF	n/a	n/a	ROOSTER	FarmAnimals	10	12	[0, 0, 0]	n/a	catFR1	3	R1488T
1307.881	1.617	1309599	WORD	n/a	wordpools/wordpool_categorized_EN.txt	PINE	Trees	11	12	[0, 0, 0]	n/a	catFR1	3	R1488T
1309.498	0.883	1311215	WORD_OFF	n/a	n/a	PINE	Trees	11	12	[0, 0, 0]	n/a	catFR1	3	R1488T
1310.381	1.6	1312093	WORD	n/a	wordpools/wordpool_categorized_EN.txt	HICKORY	Trees	12	12	[0, 0, 0]	n/a	catFR1	3	R1488T
1311.981	0.001	1313690	WORD_OFF	n/a	n/a	HICKORY	Trees	12	12	[0, 0, 0]	n/a	catFR1	3	R1488T
1311.982	0.001	1313698	PROB	0.001	n/a	n/a	n/a	-999	12	[1, 6, 3]	10	catFR1	3	R1488T
1311.983	0.0	1313699	START	n/a	n/a	n/a	n/a	-999	12	[-999, -999, -999]	n/a	catFR1	3	R1488T
1311.983	0.0	1313700	ENCODING_END	n/a	n/a	n/a	n/a	-999	12	[0, 0, 0]	n/a	catFR1	3	R1488T
1311.983	6.632	1313700	DISTRACT_START	n/a	n/a	n/a	n/a	-999	12	[0, 0, 0]	n/a	catFR1	3	R1488T
1318.615	5.934	1320330	PROB	5.934	n/a	n/a	n/a	-999	12	[8, 3, 2]	13	catFR1	3	R1488T
1324.549	6.433	1326264	PROB	6.433	n/a	n/a	n/a	-999	12	[1, 5, 3]	9	catFR1	3	R1488T
1330.982	8.165	1332697	PROB	8.165	n/a	n/a	n/a	-999	12	[5, 3, 4]	12	catFR1	3	R1488T
1339.147	0.0	1340861	DISTRACT_END	n/a	n/a	n/a	n/a	-999	12	[0, 0, 0]	n/a	catFR1	3	R1488T
1339.147	1.3	1340861	STOP	n/a	n/a	n/a	n/a	-999	12	[-999, -999, -999]	n/a	catFR1	3	R1488T
1340.447	2.481	1342156	REC_START	n/a	n/a	n/a	n/a	-999	12	[0, 0, 0]	n/a	catFR1	3	R1488T
1342.928	0.734	1344642	REC_WORD	0.734	n/a	HICKORY	Trees	12	12	[0, 0, 0]	n/a	catFR1	3	R1488T
1343.662	1.621	1345376	REC_WORD	1.621	n/a	BIRCH	Trees	2	12	[0, 0, 0]	n/a	catFR1	3	R1488T
1345.283	2.754	1346997	REC_WORD	2.754	n/a	WALNUT	Trees	1	12	[0, 0, 0]	n/a	catFR1	3	R1488T
1348.037	7.588	1349751	REC_WORD	7.588	n/a	TELEVISION	Electronics	3	12	[0, 0, 0]	n/a	catFR1	3	R1488T
1355.625	16.041	1357338	REC_WORD	16.041	n/a	TABLE	Furniture	-999	12	[0, 0, 0]	n/a	catFR1	3	R1488T
1371.666	0.0	1373371	REC_END	n/a	n/a	n/a	n/a	-999	12	[0, 0, 0]	n/a	catFR1	3	R1488T
