onset	duration	sample	trial_type	response_time	stim_file	item_name	category	serialpos	list	test	answer	experiment	session	subject
0.0	0.83	313854	INSTRUCT_START	n/a	n/a	n/a	n/a	-999	-999	[0, 0, 0]	n/a	catFR1	2	R1475J
0.83	35.934	314691	INSTRUCT_END	n/a	n/a	n/a	n/a	-999	-999	[0, 0, 0]	n/a	catFR1	2	R1475J
36.764	10.0	350620	COUNTDOWN_START	n/a	n/a	n/a	n/a	-999	-999	[0, 0, 0]	n/a	catFR1	2	R1475J
47.113	0.0	360963	COUNTDOWN_END	n/a	n/a	n/a	n/a	-999	-999	[0, 0, 0]	n/a	catFR1	2	R1475J
47.113	1.917	360974	ENCODING_START	n/a	n/a	n/a	n/a	-999	-1	[0, 0, 0]	n/a	catFR1	2	R1475J
49.03	1.6	362885	WORD	n/a	n/a	CYPRESS	Trees	1	-1	[0, 0, 0]	n/a	catFR1	2	R1475J
50.631	0.915	364487	WORD_OFF	n/a	n/a	CYPRESS	Trees	1	-1	[0, 0, 0]	n/a	catFR1	2	R1475J
51.546	1.6	365396	WORD	n/a	n/a	CEDAR	Trees	2	-1	[0, 0, 0]	n/a	catFR1	2	R1475J
53.163	0.816	367019	WORD_OFF	n/a	n/a	CEDAR	Trees	2	-1	[0, 0, 0]	n/a	catFR1	2	R1475J
53.979	1.6	367835	WORD	n/a	n/a	REFRIGERATOR	Appliances	3	-1	[0, 0, 0]	n/a	catFR1	2	R1475J
55.58	0.799	369437	WORD_OFF	n/a	n/a	REFRIGERATOR	Appliances	3	-1	[0, 0, 0]	n/a	catFR1	2	R1475J
56.379	1.6	370232	WORD	n/a	n/a	IRON	Appliances	4	-1	[0, 0, 0]	n/a	catFR1	2	R1475J
57.979	0.934	371834	WORD_OFF	n/a	n/a	IRON	Appliances	4	-1	[0, 0, 0]	n/a	catFR1	2	R1475J
58.913	1.6	372764	WORD	n/a	n/a	SHELF	Furniture	5	-1	[0, 0, 0]	n/a	catFR1	2	R1475J
60.529	0.984	374386	WORD_OFF	n/a	n/a	SHELF	Furniture	5	-1	[0, 0, 0]	n/a	catFR1	2	R1475J
61.513	1.6	375368	WORD	n/a	n/a	DESK	Furniture	6	-1	[0, 0, 0]	n/a	catFR1	2	R1475J
63.129	0.917	376980	WORD_OFF	n/a	n/a	DESK	Furniture	6	-1	[0, 0, 0]	n/a	catFR1	2	R1475J
64.046	1.6	377900	WORD	n/a	n/a	WILLOW	Trees	7	-1	[0, 0, 0]	n/a	catFR1	2	R1475J
65.646	0.967	379501	WORD_OFF	n/a	n/a	WILLOW	Trees	7	-1	[0, 0, 0]	n/a	catFR1	2	R1475J
66.613	1.6	380462	WORD	n/a	n/a	MAPLE	Trees	8	-1	[0, 0, 0]	n/a	catFR1	2	R1475J
68.23	0.8	382085	WORD_OFF	n/a	n/a	MAPLE	Trees	8	-1	[0, 0, 0]	n/a	catFR1	2	R1475J
69.03	1.6	382880	WORD	n/a	n/a	COUCH	Furniture	9	-1	[0, 0, 0]	n/a	catFR1	2	R1475J
70.646	1.0	384503	WORD_OFF	n/a	n/a	COUCH	Furniture	9	-1	[0, 0, 0]	n/a	catFR1	2	R1475J
71.646	1.6	385495	WORD	n/a	n/a	CHAIR	Furniture	10	-1	[0, 0, 0]	n/a	catFR1	2	R1475J
73.265	0.78	387117	WORD_OFF	n/a	n/a	CHAIR	Furniture	10	-1	[0, 0, 0]	n/a	catFR1	2	R1475J
74.045	1.6	387902	WORD	n/a	n/a	BLENDER	Appliances	11	-1	[0, 0, 0]	n/a	catFR1	2	R1475J
75.646	0.9	389494	WORD_OFF	n/a	n/a	BLENDER	Appliances	11	-1	[0, 0, 0]	n/a	catFR1	2	R1475J
76.546	1.6	390403	WORD	n/a	n/a	MIXER	Appliances	12	-1	[0, 0, 0]	n/a	catFR1	2	R1475J
78.146	0.002	391994	WORD_OFF	n/a	n/a	MIXER	Appliances	12	-1	[0, 0, 0]	n/a	catFR1	2	R1475J
78.148	0.0	391996	START	n/a	n/a	n/a	n/a	-999	-1	[-999, -999, -999]	n/a	catFR1	2	R1475J
78.148	0.0	391996	PROB	6.632	n/a	n/a	n/a	-999	-1	[6, 7, 2]	15.0	catFR1	2	R1475J
78.148	0.0	392005	ENCODING_END	n/a	n/a	n/a	n/a	-999	-1	[0, 0, 0]	n/a	catFR1	2	R1475J
78.148	6.648	392005	DISTRACT_START	n/a	n/a	n/a	n/a	-999	-1	[0, 0, 0]	n/a	catFR1	2	R1475J
84.796	8.5	398643	PROB	8.482	n/a	n/a	n/a	-999	-1	[3, 7, 7]	17.0	catFR1	2	R1475J
93.296	8.817	407143	PROB	8.8	n/a	n/a	n/a	-999	-1	[6, 4, 1]	11.0	catFR1	2	R1475J
102.113	0.0	415960	STOP	n/a	n/a	n/a	n/a	-999	-1	[-999, -999, -999]	n/a	catFR1	2	R1475J
102.113	2.066	415968	DISTRACT_END	n/a	n/a	n/a	n/a	-999	-1	[0, 0, 0]	n/a	catFR1	2	R1475J
104.179	0.734	418032	REC_START	n/a	n/a	n/a	n/a	-999	-1	[0, 0, 0]	n/a	catFR1	2	R1475J
104.913	1.194	418760	REC_WORD	0.734	n/a	REFRIGERATOR	Appliances	3	-1	[0, 0, 0]	n/a	catFR1	2	R1475J
106.107	0.71	419954	REC_WORD	1.928	n/a	BLENDER	Appliances	11	-1	[0, 0, 0]	n/a	catFR1	2	R1475J
106.817	1.834	420664	REC_WORD	2.638	n/a	IRON	Appliances	4	-1	[0, 0, 0]	n/a	catFR1	2	R1475J
108.651	25.743	422498	REC_WORD	4.472	n/a	CYPRESS	Trees	1	-1	[0, 0, 0]	n/a	catFR1	2	R1475J
134.394	28.885	448249	REC_END	n/a	n/a	n/a	n/a	-999	-1	[0, 0, 0]	n/a	catFR1	2	R1475J
163.279	10.0	477131	COUNTDOWN_START	n/a	n/a	n/a	n/a	-999	1	[0, 0, 0]	n/a	catFR1	2	R1475J
173.629	0.0	487474	COUNTDOWN_END	n/a	n/a	n/a	n/a	-999	1	[0, 0, 0]	n/a	catFR1	2	R1475J
173.629	2.267	487485	ENCODING_START	n/a	n/a	n/a	n/a	-999	1	[0, 0, 0]	n/a	catFR1	2	R1475J
175.896	1.6	489748	WORD	n/a	wordpools/wordpool_categorized_EN.txt	CRICKET	Insects	1	1	[0, 0, 0]	n/a	catFR1	2	R1475J
177.496	0.933	491339	WORD_OFF	n/a	n/a	CRICKET	Insects	1	1	[0, 0, 0]	n/a	catFR1	2	R1475J
178.429	1.6	492279	WORD	n/a	wordpools/wordpool_categorized_EN.txt	ROACH	Insects	2	1	[0, 0, 0]	n/a	catFR1	2	R1475J
180.045	0.884	493891	WORD_OFF	n/a	n/a	ROACH	Insects	2	1	[0, 0, 0]	n/a	catFR1	2	R1475J
180.929	1.6	494780	WORD	n/a	wordpools/wordpool_categorized_EN.txt	FOLDER	OfficeSupplies	3	1	[0, 0, 0]	n/a	catFR1	2	R1475J
182.546	0.95	496392	WORD_OFF	n/a	n/a	FOLDER	OfficeSupplies	3	1	[0, 0, 0]	n/a	catFR1	2	R1475J
183.496	1.6	497343	WORD	n/a	wordpools/wordpool_categorized_EN.txt	NOTEBOOK	OfficeSupplies	4	1	[0, 0, 0]	n/a	catFR1	2	R1475J
185.096	0.882	498944	WORD_OFF	n/a	n/a	NOTEBOOK	OfficeSupplies	4	1	[0, 0, 0]	n/a	catFR1	2	R1475J
185.978	1.6	499823	WORD	n/a	wordpools/wordpool_categorized_EN.txt	NIGHTSTAND	Furniture	5	1	[0, 0, 0]	n/a	catFR1	2	R1475J
187.579	0.867	501424	WORD_OFF	n/a	n/a	NIGHTSTAND	Furniture	5	1	[0, 0, 0]	n/a	catFR1	2	R1475J
188.446	1.6	502292	WORD	n/a	wordpools/wordpool_categorized_EN.txt	CABINET	Furniture	6	1	[0, 0, 0]	n/a	catFR1	2	R1475J
190.046	0.815	503894	WORD_OFF	n/a	n/a	CABINET	Furniture	6	1	[0, 0, 0]	n/a	catFR1	2	R1475J
190.861	1.6	504710	WORD	n/a	wordpools/wordpool_categorized_EN.txt	ANT	Insects	7	1	[0, 0, 0]	n/a	catFR1	2	R1475J
192.462	0.935	506312	WORD_OFF	n/a	n/a	ANT	Insects	7	1	[0, 0, 0]	n/a	catFR1	2	R1475J
193.397	1.6	507242	WORD	n/a	wordpools/wordpool_categorized_EN.txt	LADYBUG	Insects	8	1	[0, 0, 0]	n/a	catFR1	2	R1475J
195.012	0.8	508864	WORD_OFF	n/a	n/a	LADYBUG	Insects	8	1	[0, 0, 0]	n/a	catFR1	2	R1475J
195.812	1.6	509660	WORD	n/a	wordpools/wordpool_categorized_EN.txt	TAPE	OfficeSupplies	9	1	[0, 0, 0]	n/a	catFR1	2	R1475J
197.429	0.95	511272	WORD_OFF	n/a	n/a	TAPE	OfficeSupplies	9	1	[0, 0, 0]	n/a	catFR1	2	R1475J
198.379	1.6	512223	WORD	n/a	wordpools/wordpool_categorized_EN.txt	ERASER	OfficeSupplies	10	1	[0, 0, 0]	n/a	catFR1	2	R1475J
199.979	0.967	513824	WORD_OFF	n/a	n/a	ERASER	OfficeSupplies	10	1	[0, 0, 0]	n/a	catFR1	2	R1475J
200.946	1.6	514796	WORD	n/a	wordpools/wordpool_categorized_EN.txt	BOOKCASE	Furniture	11	1	[0, 0, 0]	n/a	catFR1	2	R1475J
202.562	0.867	516408	WORD_OFF	n/a	n/a	BOOKCASE	Furniture	11	1	[0, 0, 0]	n/a	catFR1	2	R1475J
203.429	1.6	517276	WORD	n/a	wordpools/wordpool_categorized_EN.txt	SOFA	Furniture	12	1	[0, 0, 0]	n/a	catFR1	2	R1475J
205.03	0.0	518872	START	n/a	n/a	n/a	n/a	-999	1	[-999, -999, -999]	n/a	catFR1	2	R1475J
205.03	0.0	518872	PROB	6.783	n/a	n/a	n/a	-999	1	[2, 2, 3]	7.0	catFR1	2	R1475J
205.029	0.001	518877	WORD_OFF	n/a	n/a	SOFA	Furniture	12	1	[0, 0, 0]	n/a	catFR1	2	R1475J
205.03	0.0	518877	ENCODING_END	n/a	n/a	n/a	n/a	-999	1	[0, 0, 0]	n/a	catFR1	2	R1475J
205.03	6.8	518877	DISTRACT_START	n/a	n/a	n/a	n/a	-999	1	[0, 0, 0]	n/a	catFR1	2	R1475J
211.83	4.132	525672	PROB	4.117	n/a	n/a	n/a	-999	1	[2, 3, 6]	11.0	catFR1	2	R1475J
215.962	6.034	529804	PROB	6.017	n/a	n/a	n/a	-999	1	[5, 2, 2]	9.0	catFR1	2	R1475J
221.996	5.132	535838	PROB	5.117	n/a	n/a	n/a	-999	1	[5, 1, 1]	7.0	catFR1	2	R1475J
227.128	0.0	540970	DISTRACT_END	n/a	n/a	n/a	n/a	-999	1	[0, 0, 0]	n/a	catFR1	2	R1475J
227.128	2.084	540970	STOP	n/a	n/a	n/a	n/a	-999	1	[-999, -999, -999]	n/a	catFR1	2	R1475J
229.212	3.023	543055	REC_START	n/a	n/a	n/a	n/a	-999	1	[0, 0, 0]	n/a	catFR1	2	R1475J
232.235	10.088	546076	REC_WORD	3.023	n/a	LADYBUG	Insects	8	1	[0, 0, 0]	n/a	catFR1	2	R1475J
242.323	17.115	556164	REC_WORD	13.111	n/a	CRICKET	Insects	1	1	[0, 0, 0]	n/a	catFR1	2	R1475J
259.438	3.391	573282	REC_END	n/a	n/a	n/a	n/a	-999	1	[0, 0, 0]	n/a	catFR1	2	R1475J
262.829	10.0	576671	COUNTDOWN_START	n/a	n/a	n/a	n/a	-999	2	[0, 0, 0]	n/a	catFR1	2	R1475J
273.18	0.0	587025	COUNTDOWN_END	n/a	n/a	n/a	n/a	-999	2	[0, 0, 0]	n/a	catFR1	2	R1475J
273.18	2.133	587025	ENCODING_START	n/a	n/a	n/a	n/a	-999	2	[0, 0, 0]	n/a	catFR1	2	R1475J
275.313	1.6	589154	WORD	n/a	wordpools/wordpool_categorized_EN.txt	OYSTER	OceanAnimals	1	2	[0, 0, 0]	n/a	catFR1	2	R1475J
276.93	0.766	590776	WORD_OFF	n/a	n/a	OYSTER	OceanAnimals	1	2	[0, 0, 0]	n/a	catFR1	2	R1475J
277.696	1.6	591541	WORD	n/a	wordpools/wordpool_categorized_EN.txt	DOLPHIN	OceanAnimals	2	2	[0, 0, 0]	n/a	catFR1	2	R1475J
279.296	0.9	593143	WORD_OFF	n/a	n/a	DOLPHIN	OceanAnimals	2	2	[0, 0, 0]	n/a	catFR1	2	R1475J
280.196	1.6	594042	WORD	n/a	wordpools/wordpool_categorized_EN.txt	FRISBEE	Toys	3	2	[0, 0, 0]	n/a	catFR1	2	R1475J
281.812	0.9	595654	WORD_OFF	n/a	n/a	FRISBEE	Toys	3	2	[0, 0, 0]	n/a	catFR1	2	R1475J
282.712	1.6	596553	WORD	n/a	wordpools/wordpool_categorized_EN.txt	DOLLHOUSE	Toys	4	2	[0, 0, 0]	n/a	catFR1	2	R1475J
284.33	0.916	598175	WORD_OFF	n/a	n/a	DOLLHOUSE	Toys	4	2	[0, 0, 0]	n/a	catFR1	2	R1475J
285.246	1.6	599084	WORD	n/a	wordpools/wordpool_categorized_EN.txt	ORANGUTAN	Zoo	5	2	[0, 0, 0]	n/a	catFR1	2	R1475J
286.863	0.916	600707	WORD_OFF	n/a	n/a	ORANGUTAN	Zoo	5	2	[0, 0, 0]	n/a	catFR1	2	R1475J
287.779	1.6	601626	WORD	n/a	wordpools/wordpool_categorized_EN.txt	LION	Zoo	6	2	[0, 0, 0]	n/a	catFR1	2	R1475J
289.397	0.882	603238	WORD_OFF	n/a	n/a	LION	Zoo	6	2	[0, 0, 0]	n/a	catFR1	2	R1475J
290.279	1.6	604127	WORD	n/a	wordpools/wordpool_categorized_EN.txt	BASEBALL	Toys	7	2	[0, 0, 0]	n/a	catFR1	2	R1475J
291.879	0.8	605718	WORD_OFF	n/a	n/a	BASEBALL	Toys	7	2	[0, 0, 0]	n/a	catFR1	2	R1475J
292.679	1.6	606524	WORD	n/a	wordpools/wordpool_categorized_EN.txt	BARBIE	Toys	8	2	[0, 0, 0]	n/a	catFR1	2	R1475J
294.279	0.799	608126	WORD_OFF	n/a	n/a	BARBIE	Toys	8	2	[0, 0, 0]	n/a	catFR1	2	R1475J
295.078	1.6	608922	WORD	n/a	wordpools/wordpool_categorized_EN.txt	BEAR	Zoo	9	2	[0, 0, 0]	n/a	catFR1	2	R1475J
296.679	0.867	610523	WORD_OFF	n/a	n/a	BEAR	Zoo	9	2	[0, 0, 0]	n/a	catFR1	2	R1475J
297.546	1.6	611391	WORD	n/a	wordpools/wordpool_categorized_EN.txt	GIRAFFE	Zoo	10	2	[0, 0, 0]	n/a	catFR1	2	R1475J
299.146	0.883	612993	WORD_OFF	n/a	n/a	GIRAFFE	Zoo	10	2	[0, 0, 0]	n/a	catFR1	2	R1475J
300.029	1.6	613871	WORD	n/a	wordpools/wordpool_categorized_EN.txt	SQUID	OceanAnimals	11	2	[0, 0, 0]	n/a	catFR1	2	R1475J
301.629	0.783	615473	WORD_OFF	n/a	n/a	SQUID	OceanAnimals	11	2	[0, 0, 0]	n/a	catFR1	2	R1475J
302.412	1.6	616258	WORD	n/a	wordpools/wordpool_categorized_EN.txt	SHRIMP	OceanAnimals	12	2	[0, 0, 0]	n/a	catFR1	2	R1475J
304.013	0.0	617851	START	n/a	n/a	n/a	n/a	-999	2	[-999, -999, -999]	n/a	catFR1	2	R1475J
304.013	0.0	617851	PROB	8.016	n/a	n/a	n/a	-999	2	[4, 7, 3]	14.0	catFR1	2	R1475J
304.012	0.001	617860	WORD_OFF	n/a	n/a	SHRIMP	OceanAnimals	12	2	[0, 0, 0]	n/a	catFR1	2	R1475J
304.013	0.0	617860	ENCODING_END	n/a	n/a	n/a	n/a	-999	2	[0, 0, 0]	n/a	catFR1	2	R1475J
304.013	8.033	617860	DISTRACT_START	n/a	n/a	n/a	n/a	-999	2	[0, 0, 0]	n/a	catFR1	2	R1475J
312.046	6.199	625884	PROB	6.182	n/a	n/a	n/a	-999	2	[8, 8, 5]	21.0	catFR1	2	R1475J
318.245	8.317	632083	PROB	8.3	n/a	n/a	n/a	-999	2	[5, 3, 7]	15.0	catFR1	2	R1475J
326.562	0.0	640399	STOP	n/a	n/a	n/a	n/a	-999	2	[-999, -999, -999]	n/a	catFR1	2	R1475J
326.562	2.033	640407	DISTRACT_END	n/a	n/a	n/a	n/a	-999	2	[0, 0, 0]	n/a	catFR1	2	R1475J
328.595	1.574	642441	REC_START	n/a	n/a	n/a	n/a	-999	2	[0, 0, 0]	n/a	catFR1	2	R1475J
330.169	7.499	644006	REC_WORD	1.574	n/a	WINE	n/a	-999	2	[0, 0, 0]	n/a	catFR1	2	R1475J
337.668	21.128	651505	REC_WORD	9.073	n/a	GIRAFFE	Zoo	10	2	[0, 0, 0]	n/a	catFR1	2	R1475J
358.796	2.768	672637	REC_END	n/a	n/a	n/a	n/a	-999	2	[0, 0, 0]	n/a	catFR1	2	R1475J
361.564	10.0	675406	COUNTDOWN_START	n/a	n/a	n/a	n/a	-999	3	[0, 0, 0]	n/a	catFR1	2	R1475J
371.914	0.0	685750	COUNTDOWN_END	n/a	n/a	n/a	n/a	-999	3	[0, 0, 0]	n/a	catFR1	2	R1475J
371.914	2.132	685760	ENCODING_START	n/a	n/a	n/a	n/a	-999	3	[0, 0, 0]	n/a	catFR1	2	R1475J
374.046	1.6	687889	WORD	n/a	wordpools/wordpool_categorized_EN.txt	LEMON	Fruit	1	3	[0, 0, 0]	n/a	catFR1	2	R1475J
375.647	0.899	689491	WORD_OFF	n/a	n/a	LEMON	Fruit	1	3	[0, 0, 0]	n/a	catFR1	2	R1475J
376.546	1.6	690390	WORD	n/a	wordpools/wordpool_categorized_EN.txt	BANANA	Fruit	2	3	[0, 0, 0]	n/a	catFR1	2	R1475J
378.147	0.85	691991	WORD_OFF	n/a	n/a	BANANA	Fruit	2	3	[0, 0, 0]	n/a	catFR1	2	R1475J
378.997	1.6	692839	WORD	n/a	wordpools/wordpool_categorized_EN.txt	OAK	Trees	3	3	[0, 0, 0]	n/a	catFR1	2	R1475J
380.597	0.867	694440	WORD_OFF	n/a	n/a	OAK	Trees	3	3	[0, 0, 0]	n/a	catFR1	2	R1475J
381.464	1.6	695308	WORD	n/a	wordpools/wordpool_categorized_EN.txt	BIRCH	Trees	4	3	[0, 0, 0]	n/a	catFR1	2	R1475J
383.064	0.9	696900	WORD_OFF	n/a	n/a	BIRCH	Trees	4	3	[0, 0, 0]	n/a	catFR1	2	R1475J
383.964	1.6	697799	WORD	n/a	wordpools/wordpool_categorized_EN.txt	LEG	BodyParts	5	3	[0, 0, 0]	n/a	catFR1	2	R1475J
385.581	0.816	699421	WORD_OFF	n/a	n/a	LEG	BodyParts	5	3	[0, 0, 0]	n/a	catFR1	2	R1475J
386.397	1.6	700237	WORD	n/a	wordpools/wordpool_categorized_EN.txt	FOOT	BodyParts	6	3	[0, 0, 0]	n/a	catFR1	2	R1475J
387.997	0.884	701839	WORD_OFF	n/a	n/a	FOOT	BodyParts	6	3	[0, 0, 0]	n/a	catFR1	2	R1475J
388.881	1.6	702717	WORD	n/a	wordpools/wordpool_categorized_EN.txt	HICKORY	Trees	7	3	[0, 0, 0]	n/a	catFR1	2	R1475J
390.497	0.917	704340	WORD_OFF	n/a	n/a	HICKORY	Trees	7	3	[0, 0, 0]	n/a	catFR1	2	R1475J
391.414	1.6	705249	WORD	n/a	wordpools/wordpool_categorized_EN.txt	ELM	Trees	8	3	[0, 0, 0]	n/a	catFR1	2	R1475J
393.014	0.95	706851	WORD_OFF	n/a	n/a	ELM	Trees	8	3	[0, 0, 0]	n/a	catFR1	2	R1475J
393.964	1.6	707801	WORD	n/a	wordpools/wordpool_categorized_EN.txt	EAR	BodyParts	9	3	[0, 0, 0]	n/a	catFR1	2	R1475J
395.564	0.767	709403	WORD_OFF	n/a	n/a	EAR	BodyParts	9	3	[0, 0, 0]	n/a	catFR1	2	R1475J
396.331	1.6	710168	WORD	n/a	wordpools/wordpool_categorized_EN.txt	NOSE	BodyParts	10	3	[0, 0, 0]	n/a	catFR1	2	R1475J
397.931	0.866	711769	WORD_OFF	n/a	n/a	NOSE	BodyParts	10	3	[0, 0, 0]	n/a	catFR1	2	R1475J
398.797	1.6	712637	WORD	n/a	wordpools/wordpool_categorized_EN.txt	LIME	Fruit	11	3	[0, 0, 0]	n/a	catFR1	2	R1475J
400.414	0.933	714249	WORD_OFF	n/a	n/a	LIME	Fruit	11	3	[0, 0, 0]	n/a	catFR1	2	R1475J
401.347	1.6	715190	WORD	n/a	wordpools/wordpool_categorized_EN.txt	ORANGE	Fruit	12	3	[0, 0, 0]	n/a	catFR1	2	R1475J
402.964	0.001	716798	PROB	7.6	n/a	n/a	n/a	-999	3	[4, 8, 3]	15.0	catFR1	2	R1475J
402.965	0.0	716799	START	n/a	n/a	n/a	n/a	-999	3	[-999, -999, -999]	n/a	catFR1	2	R1475J
402.964	0.001	716802	WORD_OFF	n/a	n/a	ORANGE	Fruit	12	3	[0, 0, 0]	n/a	catFR1	2	R1475J
402.965	0.0	716802	ENCODING_END	n/a	n/a	n/a	n/a	-999	3	[0, 0, 0]	n/a	catFR1	2	R1475J
402.965	7.616	716812	DISTRACT_START	n/a	n/a	n/a	n/a	-999	3	[0, 0, 0]	n/a	catFR1	2	R1475J
410.581	4.05	724415	PROB	4.033	n/a	n/a	n/a	-999	3	[1, 3, 2]	6.0	catFR1	2	R1475J
414.631	7.366	728465	PROB	7.35	n/a	n/a	n/a	-999	3	[3, 1, 4]	8.0	catFR1	2	R1475J
421.997	4.717	735830	PROB	4.699	n/a	n/a	n/a	-999	3	[1, 3, 3]	7.0	catFR1	2	R1475J
426.714	0.0	740547	STOP	n/a	n/a	n/a	n/a	-999	3	[-999, -999, -999]	n/a	catFR1	2	R1475J
426.714	2.383	740548	DISTRACT_END	n/a	n/a	n/a	n/a	-999	3	[0, 0, 0]	n/a	catFR1	2	R1475J
429.097	0.981	742932	REC_START	n/a	n/a	n/a	n/a	-999	3	[0, 0, 0]	n/a	catFR1	2	R1475J
430.078	6.786	743911	REC_WORD	0.981	n/a	ORANGE	Fruit	12	3	[0, 0, 0]	n/a	catFR1	2	R1475J
436.864	11.991	750697	REC_WORD	7.767	n/a	DOLLHOUSE	Toys	-999	3	[0, 0, 0]	n/a	catFR1	2	R1475J
448.855	0.631	762687	REC_WORD	19.758	n/a	LEG	BodyParts	5	3	[0, 0, 0]	n/a	catFR1	2	R1475J
449.486	4.819	763318	REC_WORD	20.389	n/a	FOOT	BodyParts	6	3	[0, 0, 0]	n/a	catFR1	2	R1475J
454.305	5.009	768137	REC_WORD	25.208	n/a	BARBIE	Toys	-999	3	[0, 0, 0]	n/a	catFR1	2	R1475J
459.314	6.366	773149	REC_END	n/a	n/a	n/a	n/a	-999	3	[0, 0, 0]	n/a	catFR1	2	R1475J
465.68	10.0	779515	COUNTDOWN_START	n/a	n/a	n/a	n/a	-999	4	[0, 0, 0]	n/a	catFR1	2	R1475J
476.031	0.0	789869	COUNTDOWN_END	n/a	n/a	n/a	n/a	-999	4	[0, 0, 0]	n/a	catFR1	2	R1475J
476.031	1.882	789869	ENCODING_START	n/a	n/a	n/a	n/a	-999	4	[0, 0, 0]	n/a	catFR1	2	R1475J
477.913	1.6	791749	WORD	n/a	wordpools/wordpool_categorized_EN.txt	HAWK	Birds	1	4	[0, 0, 0]	n/a	catFR1	2	R1475J
479.514	0.867	793351	WORD_OFF	n/a	n/a	HAWK	Birds	1	4	[0, 0, 0]	n/a	catFR1	2	R1475J
480.381	1.6	794219	WORD	n/a	wordpools/wordpool_categorized_EN.txt	BLUEBIRD	Birds	2	4	[0, 0, 0]	n/a	catFR1	2	R1475J
481.981	0.833	795821	WORD_OFF	n/a	n/a	BLUEBIRD	Birds	2	4	[0, 0, 0]	n/a	catFR1	2	R1475J
482.814	1.6	796647	WORD	n/a	wordpools/wordpool_categorized_EN.txt	CUCUMBER	Vegetables	3	4	[0, 0, 0]	n/a	catFR1	2	R1475J
484.431	0.85	798270	WORD_OFF	n/a	n/a	CUCUMBER	Vegetables	3	4	[0, 0, 0]	n/a	catFR1	2	R1475J
485.281	1.6	799117	WORD	n/a	wordpools/wordpool_categorized_EN.txt	CORN	Vegetables	4	4	[0, 0, 0]	n/a	catFR1	2	R1475J
486.896	0.868	800729	WORD_OFF	n/a	n/a	CORN	Vegetables	4	4	[0, 0, 0]	n/a	catFR1	2	R1475J
487.764	1.6	801597	WORD	n/a	wordpools/wordpool_categorized_EN.txt	TONGS	KitchenTools	5	4	[0, 0, 0]	n/a	catFR1	2	R1475J
489.364	0.983	803199	WORD_OFF	n/a	n/a	TONGS	KitchenTools	5	4	[0, 0, 0]	n/a	catFR1	2	R1475J
490.347	1.6	804180	WORD	n/a	wordpools/wordpool_categorized_EN.txt	PEELER	KitchenTools	6	4	[0, 0, 0]	n/a	catFR1	2	R1475J
491.947	0.767	805782	WORD_OFF	n/a	n/a	PEELER	KitchenTools	6	4	[0, 0, 0]	n/a	catFR1	2	R1475J
492.714	1.6	806547	WORD	n/a	wordpools/wordpool_categorized_EN.txt	ONION	Vegetables	7	4	[0, 0, 0]	n/a	catFR1	2	R1475J
494.33	0.967	808169	WORD_OFF	n/a	n/a	ONION	Vegetables	7	4	[0, 0, 0]	n/a	catFR1	2	R1475J
495.297	1.6	809130	WORD	n/a	wordpools/wordpool_categorized_EN.txt	CAULIFLOWER	Vegetables	8	4	[0, 0, 0]	n/a	catFR1	2	R1475J
496.897	0.984	810732	WORD_OFF	n/a	n/a	CAULIFLOWER	Vegetables	8	4	[0, 0, 0]	n/a	catFR1	2	R1475J
497.881	1.6	811713	WORD	n/a	wordpools/wordpool_categorized_EN.txt	FORK	KitchenTools	9	4	[0, 0, 0]	n/a	catFR1	2	R1475J
499.481	0.816	813315	WORD_OFF	n/a	n/a	FORK	KitchenTools	9	4	[0, 0, 0]	n/a	catFR1	2	R1475J
500.297	1.6	814131	WORD	n/a	wordpools/wordpool_categorized_EN.txt	KNIFE	KitchenTools	10	4	[0, 0, 0]	n/a	catFR1	2	R1475J
501.914	0.95	815743	WORD_OFF	n/a	n/a	KNIFE	KitchenTools	10	4	[0, 0, 0]	n/a	catFR1	2	R1475J
502.864	1.6	816704	WORD	n/a	wordpools/wordpool_categorized_EN.txt	CROW	Birds	11	4	[0, 0, 0]	n/a	catFR1	2	R1475J
504.464	0.817	818296	WORD_OFF	n/a	n/a	CROW	Birds	11	4	[0, 0, 0]	n/a	catFR1	2	R1475J
505.281	1.6	819112	WORD	n/a	wordpools/wordpool_categorized_EN.txt	SPARROW	Birds	12	4	[0, 0, 0]	n/a	catFR1	2	R1475J
506.881	0.0	820711	PROB	5.483	n/a	n/a	n/a	-999	4	[3, 7, 7]	17.0	catFR1	2	R1475J
506.881	0.003	820714	WORD_OFF	n/a	n/a	SPARROW	Birds	12	4	[0, 0, 0]	n/a	catFR1	2	R1475J
506.884	0.0	820714	ENCODING_END	n/a	n/a	n/a	n/a	-999	4	[0, 0, 0]	n/a	catFR1	2	R1475J
506.884	0.0	820714	START	n/a	n/a	n/a	n/a	-999	4	[-999, -999, -999]	n/a	catFR1	2	R1475J
506.884	5.497	820724	DISTRACT_START	n/a	n/a	n/a	n/a	-999	4	[0, 0, 0]	n/a	catFR1	2	R1475J
512.381	10.433	826211	PROB	10.416	n/a	n/a	n/a	-999	4	[8, 2, 5]	15.0	catFR1	2	R1475J
522.814	7.466	836643	PROB	7.449	n/a	n/a	n/a	-999	4	[6, 3, 4]	13.0	catFR1	2	R1475J
530.28	0.0	844108	DISTRACT_END	n/a	n/a	n/a	n/a	-999	4	[0, 0, 0]	n/a	catFR1	2	R1475J
530.28	2.116	844109	STOP	n/a	n/a	n/a	n/a	-999	4	[-999, -999, -999]	n/a	catFR1	2	R1475J
532.396	0.648	846228	REC_START	n/a	n/a	n/a	n/a	-999	4	[0, 0, 0]	n/a	catFR1	2	R1475J
533.044	0.987	846873	REC_WORD	0.648	n/a	SPARROW	Birds	12	4	[0, 0, 0]	n/a	catFR1	2	R1475J
534.031	2.835	847860	REC_WORD	1.635	n/a	CROW	Birds	11	4	[0, 0, 0]	n/a	catFR1	2	R1475J
536.866	3.566	850695	REC_WORD	4.47	n/a	LEMON	Fruit	-999	4	[0, 0, 0]	n/a	catFR1	2	R1475J
540.432	22.186	854261	REC_WORD	8.036	n/a	HAWK	Birds	1	4	[0, 0, 0]	n/a	catFR1	2	R1475J
562.618	2.529	876452	REC_END	n/a	n/a	n/a	n/a	-999	4	[0, 0, 0]	n/a	catFR1	2	R1475J
565.147	10.0	878983	COUNTDOWN_START	n/a	n/a	n/a	n/a	-999	5	[0, 0, 0]	n/a	catFR1	2	R1475J
575.497	0.0	889327	COUNTDOWN_END	n/a	n/a	n/a	n/a	-999	5	[0, 0, 0]	n/a	catFR1	2	R1475J
575.497	2.016	889327	ENCODING_START	n/a	n/a	n/a	n/a	-999	5	[0, 0, 0]	n/a	catFR1	2	R1475J
577.513	1.6	891342	WORD	n/a	wordpools/wordpool_categorized_EN.txt	SPOON	KitchenTools	1	5	[0, 0, 0]	n/a	catFR1	2	R1475J
579.114	0.899	892944	WORD_OFF	n/a	n/a	SPOON	KitchenTools	1	5	[0, 0, 0]	n/a	catFR1	2	R1475J
580.013	1.6	893843	WORD	n/a	wordpools/wordpool_categorized_EN.txt	STRAINER	KitchenTools	2	5	[0, 0, 0]	n/a	catFR1	2	R1475J
581.631	0.85	895465	WORD_OFF	n/a	n/a	STRAINER	KitchenTools	2	5	[0, 0, 0]	n/a	catFR1	2	R1475J
582.481	1.6	896312	WORD	n/a	wordpools/wordpool_categorized_EN.txt	FUDGE	Desserts	3	5	[0, 0, 0]	n/a	catFR1	2	R1475J
584.081	0.766	897914	WORD_OFF	n/a	n/a	FUDGE	Desserts	3	5	[0, 0, 0]	n/a	catFR1	2	R1475J
584.847	1.6	898679	WORD	n/a	wordpools/wordpool_categorized_EN.txt	CHEESECAKE	Desserts	4	5	[0, 0, 0]	n/a	catFR1	2	R1475J
586.447	0.767	900280	WORD_OFF	n/a	n/a	CHEESECAKE	Desserts	4	5	[0, 0, 0]	n/a	catFR1	2	R1475J
587.214	1.6	901045	WORD	n/a	wordpools/wordpool_categorized_EN.txt	GOOSE	Birds	5	5	[0, 0, 0]	n/a	catFR1	2	R1475J
588.829	0.934	902657	WORD_OFF	n/a	n/a	GOOSE	Birds	5	5	[0, 0, 0]	n/a	catFR1	2	R1475J
589.763	1.6	903597	WORD	n/a	wordpools/wordpool_categorized_EN.txt	DUCK	Birds	6	5	[0, 0, 0]	n/a	catFR1	2	R1475J
591.381	0.85	905209	WORD_OFF	n/a	n/a	DUCK	Birds	6	5	[0, 0, 0]	n/a	catFR1	2	R1475J
592.231	1.6	906067	WORD	n/a	wordpools/wordpool_categorized_EN.txt	MOUSSE	Desserts	7	5	[0, 0, 0]	n/a	catFR1	2	R1475J
593.831	0.8	907658	WORD_OFF	n/a	n/a	MOUSSE	Desserts	7	5	[0, 0, 0]	n/a	catFR1	2	R1475J
594.631	1.6	908464	WORD	n/a	wordpools/wordpool_categorized_EN.txt	COOKIE	Desserts	8	5	[0, 0, 0]	n/a	catFR1	2	R1475J
596.246	0.985	910076	WORD_OFF	n/a	n/a	COOKIE	Desserts	8	5	[0, 0, 0]	n/a	catFR1	2	R1475J
597.231	1.6	911058	WORD	n/a	wordpools/wordpool_categorized_EN.txt	SEAGULL	Birds	9	5	[0, 0, 0]	n/a	catFR1	2	R1475J
598.847	0.934	912680	WORD_OFF	n/a	n/a	SEAGULL	Birds	9	5	[0, 0, 0]	n/a	catFR1	2	R1475J
599.781	1.6	913610	WORD	n/a	wordpools/wordpool_categorized_EN.txt	CARDINAL	Birds	10	5	[0, 0, 0]	n/a	catFR1	2	R1475J
601.381	0.85	915212	WORD_OFF	n/a	n/a	CARDINAL	Birds	10	5	[0, 0, 0]	n/a	catFR1	2	R1475J
602.231	1.6	916059	WORD	n/a	wordpools/wordpool_categorized_EN.txt	WHISK	KitchenTools	11	5	[0, 0, 0]	n/a	catFR1	2	R1475J
603.831	0.982	917661	WORD_OFF	n/a	n/a	WHISK	KitchenTools	11	5	[0, 0, 0]	n/a	catFR1	2	R1475J
604.813	1.6	918643	WORD	n/a	wordpools/wordpool_categorized_EN.txt	CORKSCREW	KitchenTools	12	5	[0, 0, 0]	n/a	catFR1	2	R1475J
606.414	0.003	920240	PROB	10.716	n/a	n/a	n/a	-999	5	[6, 5, 7]	18.0	catFR1	2	R1475J
606.417	0.0	920243	START	n/a	n/a	n/a	n/a	-999	5	[-999, -999, -999]	n/a	catFR1	2	R1475J
606.414	0.003	920244	WORD_OFF	n/a	n/a	CORKSCREW	KitchenTools	12	5	[0, 0, 0]	n/a	catFR1	2	R1475J
606.417	0.0	920244	ENCODING_END	n/a	n/a	n/a	n/a	-999	5	[0, 0, 0]	n/a	catFR1	2	R1475J
606.417	10.73	920244	DISTRACT_START	n/a	n/a	n/a	n/a	-999	5	[0, 0, 0]	n/a	catFR1	2	R1475J
617.147	7.282	930972	PROB	7.266	n/a	n/a	n/a	-999	5	[6, 3, 6]	15.0	catFR1	2	R1475J
624.429	6.717	938254	PROB	6.7	n/a	n/a	n/a	-999	5	[4, 1, 3]	8.0	catFR1	2	R1475J
631.146	0.0	944971	STOP	n/a	n/a	n/a	n/a	-999	5	[-999, -999, -999]	n/a	catFR1	2	R1475J
631.146	2.3	944972	DISTRACT_END	n/a	n/a	n/a	n/a	-999	5	[0, 0, 0]	n/a	catFR1	2	R1475J
633.446	11.844	947274	REC_START	n/a	n/a	n/a	n/a	-999	5	[0, 0, 0]	n/a	catFR1	2	R1475J
645.29	18.403	959114	REC_WORD	11.844	n/a	SPOON	KitchenTools	1	5	[0, 0, 0]	n/a	catFR1	2	R1475J
663.693	135.069	977522	REC_END	n/a	n/a	n/a	n/a	-999	5	[0, 0, 0]	n/a	catFR1	2	R1475J
798.762	10.0	1112589	COUNTDOWN_START	n/a	n/a	n/a	n/a	-999	6	[0, 0, 0]	n/a	catFR1	2	R1475J
809.113	0.0	1122932	COUNTDOWN_END	n/a	n/a	n/a	n/a	-999	6	[0, 0, 0]	n/a	catFR1	2	R1475J
809.113	1.899	1122933	ENCODING_START	n/a	n/a	n/a	n/a	-999	6	[0, 0, 0]	n/a	catFR1	2	R1475J
811.012	1.6	1124834	WORD	n/a	wordpools/wordpool_categorized_EN.txt	BEETLE	Insects	1	6	[0, 0, 0]	n/a	catFR1	2	R1475J
812.612	0.833	1126435	WORD_OFF	n/a	n/a	BEETLE	Insects	1	6	[0, 0, 0]	n/a	catFR1	2	R1475J
813.445	1.6	1127262	WORD	n/a	wordpools/wordpool_categorized_EN.txt	MOTH	Insects	2	6	[0, 0, 0]	n/a	catFR1	2	R1475J
815.045	0.95	1128864	WORD_OFF	n/a	n/a	MOTH	Insects	2	6	[0, 0, 0]	n/a	catFR1	2	R1475J
815.995	1.6	1129814	WORD	n/a	wordpools/wordpool_categorized_EN.txt	LADLE	KitchenTools	3	6	[0, 0, 0]	n/a	catFR1	2	R1475J
817.595	0.967	1131416	WORD_OFF	n/a	n/a	LADLE	KitchenTools	3	6	[0, 0, 0]	n/a	catFR1	2	R1475J
818.562	1.6	1132387	WORD	n/a	wordpools/wordpool_categorized_EN.txt	GRATER	KitchenTools	4	6	[0, 0, 0]	n/a	catFR1	2	R1475J
820.162	0.9	1133979	WORD_OFF	n/a	n/a	GRATER	KitchenTools	4	6	[0, 0, 0]	n/a	catFR1	2	R1475J
821.062	1.6	1134888	WORD	n/a	wordpools/wordpool_categorized_EN.txt	PASTRY	Desserts	5	6	[0, 0, 0]	n/a	catFR1	2	R1475J
822.662	0.834	1136479	WORD_OFF	n/a	n/a	PASTRY	Desserts	5	6	[0, 0, 0]	n/a	catFR1	2	R1475J
823.496	1.6	1137316	WORD	n/a	wordpools/wordpool_categorized_EN.txt	JELLO	Desserts	6	6	[0, 0, 0]	n/a	catFR1	2	R1475J
825.095	0.784	1138918	WORD_OFF	n/a	n/a	JELLO	Desserts	6	6	[0, 0, 0]	n/a	catFR1	2	R1475J
825.879	1.6	1139703	WORD	n/a	wordpools/wordpool_categorized_EN.txt	SPIDER	Insects	7	6	[0, 0, 0]	n/a	catFR1	2	R1475J
827.479	0.934	1141305	WORD_OFF	n/a	n/a	SPIDER	Insects	7	6	[0, 0, 0]	n/a	catFR1	2	R1475J
828.413	1.6	1142235	WORD	n/a	wordpools/wordpool_categorized_EN.txt	BEE	Insects	8	6	[0, 0, 0]	n/a	catFR1	2	R1475J
830.03	0.833	1143847	WORD_OFF	n/a	n/a	BEE	Insects	8	6	[0, 0, 0]	n/a	catFR1	2	R1475J
830.863	1.6	1144684	WORD	n/a	wordpools/wordpool_categorized_EN.txt	SPATULA	KitchenTools	9	6	[0, 0, 0]	n/a	catFR1	2	R1475J
832.48	0.783	1146296	WORD_OFF	n/a	n/a	SPATULA	KitchenTools	9	6	[0, 0, 0]	n/a	catFR1	2	R1475J
833.263	1.6	1147081	WORD	n/a	wordpools/wordpool_categorized_EN.txt	COLANDER	KitchenTools	10	6	[0, 0, 0]	n/a	catFR1	2	R1475J
834.88	0.916	1148704	WORD_OFF	n/a	n/a	COLANDER	KitchenTools	10	6	[0, 0, 0]	n/a	catFR1	2	R1475J
835.796	1.6	1149613	WORD	n/a	wordpools/wordpool_categorized_EN.txt	CAKE	Desserts	11	6	[0, 0, 0]	n/a	catFR1	2	R1475J
837.396	0.883	1151215	WORD_OFF	n/a	n/a	CAKE	Desserts	11	6	[0, 0, 0]	n/a	catFR1	2	R1475J
838.279	1.6	1152103	WORD	n/a	wordpools/wordpool_categorized_EN.txt	PUDDING	Desserts	12	6	[0, 0, 0]	n/a	catFR1	2	R1475J
839.896	0.001	1153712	PROB	5.466	n/a	n/a	n/a	-999	6	[1, 7, 7]	15.0	catFR1	2	R1475J
839.897	0.0	1153713	START	n/a	n/a	n/a	n/a	-999	6	[-999, -999, -999]	n/a	catFR1	2	R1475J
839.896	0.001	1153715	WORD_OFF	n/a	n/a	PUDDING	Desserts	12	6	[0, 0, 0]	n/a	catFR1	2	R1475J
839.897	0.0	1153715	ENCODING_END	n/a	n/a	n/a	n/a	-999	6	[0, 0, 0]	n/a	catFR1	2	R1475J
839.897	5.483	1153715	DISTRACT_START	n/a	n/a	n/a	n/a	-999	6	[0, 0, 0]	n/a	catFR1	2	R1475J
845.38	5.1	1159196	PROB	5.082	n/a	n/a	n/a	-999	6	[3, 4, 4]	11.0	catFR1	2	R1475J
850.48	7.201	1164296	PROB	7.183	n/a	n/a	n/a	-999	6	[4, 4, 5]	13.0	catFR1	2	R1475J
857.681	9.748	1171496	PROB	9.733	n/a	n/a	n/a	-999	6	[8, 4, 5]	17.0	catFR1	2	R1475J
867.429	0.0	1181244	STOP	n/a	n/a	n/a	n/a	-999	6	[-999, -999, -999]	n/a	catFR1	2	R1475J
867.429	2.316	1181254	DISTRACT_END	n/a	n/a	n/a	n/a	-999	6	[0, 0, 0]	n/a	catFR1	2	R1475J
869.745	30.015	1183566	REC_START	n/a	n/a	n/a	n/a	-999	6	[0, 0, 0]	n/a	catFR1	2	R1475J
899.76	0.211	1213574	REC_WORD_VV	30.015	n/a	<>	n/a	-999	6	[0, 0, 0]	n/a	catFR1	2	R1475J
899.971	21.208	1213793	REC_END	n/a	n/a	n/a	n/a	-999	6	[0, 0, 0]	n/a	catFR1	2	R1475J
921.179	10.0	1234997	COUNTDOWN_START	n/a	n/a	n/a	n/a	-999	7	[0, 0, 0]	n/a	catFR1	2	R1475J
931.529	0.001	1245351	COUNTDOWN_END	n/a	n/a	n/a	n/a	-999	7	[0, 0, 0]	n/a	catFR1	2	R1475J
931.53	2.0	1245351	ENCODING_START	n/a	n/a	n/a	n/a	-999	7	[0, 0, 0]	n/a	catFR1	2	R1475J
933.53	1.6	1247346	WORD	n/a	wordpools/wordpool_categorized_EN.txt	FREEZER	Appliances	1	7	[0, 0, 0]	n/a	catFR1	2	R1475J
935.146	0.933	1248958	WORD_OFF	n/a	n/a	FREEZER	Appliances	1	7	[0, 0, 0]	n/a	catFR1	2	R1475J
936.079	1.6	1249898	WORD	n/a	wordpools/wordpool_categorized_EN.txt	TOASTER	Appliances	2	7	[0, 0, 0]	n/a	catFR1	2	R1475J
937.696	0.784	1251510	WORD_OFF	n/a	n/a	TOASTER	Appliances	2	7	[0, 0, 0]	n/a	catFR1	2	R1475J
938.48	1.6	1252295	WORD	n/a	wordpools/wordpool_categorized_EN.txt	MARKER	OfficeSupplies	3	7	[0, 0, 0]	n/a	catFR1	2	R1475J
940.096	0.867	1253907	WORD_OFF	n/a	n/a	MARKER	OfficeSupplies	3	7	[0, 0, 0]	n/a	catFR1	2	R1475J
940.963	1.6	1254775	WORD	n/a	wordpools/wordpool_categorized_EN.txt	PENCIL	OfficeSupplies	4	7	[0, 0, 0]	n/a	catFR1	2	R1475J
942.579	0.966	1256398	WORD_OFF	n/a	n/a	PENCIL	OfficeSupplies	4	7	[0, 0, 0]	n/a	catFR1	2	R1475J
943.545	1.6	1257359	WORD	n/a	wordpools/wordpool_categorized_EN.txt	ZEBRA	Zoo	5	7	[0, 0, 0]	n/a	catFR1	2	R1475J
945.146	0.933	1258960	WORD_OFF	n/a	n/a	ZEBRA	Zoo	5	7	[0, 0, 0]	n/a	catFR1	2	R1475J
946.079	1.6	1259901	WORD	n/a	wordpools/wordpool_categorized_EN.txt	CHIMPANZEE	Zoo	6	7	[0, 0, 0]	n/a	catFR1	2	R1475J
947.681	0.833	1261502	WORD_OFF	n/a	n/a	CHIMPANZEE	Zoo	6	7	[0, 0, 0]	n/a	catFR1	2	R1475J
948.514	1.6	1262329	WORD	n/a	wordpools/wordpool_categorized_EN.txt	STAPLER	OfficeSupplies	7	7	[0, 0, 0]	n/a	catFR1	2	R1475J
950.114	0.933	1263931	WORD_OFF	n/a	n/a	STAPLER	OfficeSupplies	7	7	[0, 0, 0]	n/a	catFR1	2	R1475J
951.047	1.6	1264861	WORD	n/a	wordpools/wordpool_categorized_EN.txt	PAPER	OfficeSupplies	8	7	[0, 0, 0]	n/a	catFR1	2	R1475J
952.647	0.934	1266462	WORD_OFF	n/a	n/a	PAPER	OfficeSupplies	8	7	[0, 0, 0]	n/a	catFR1	2	R1475J
953.581	1.6	1267392	WORD	n/a	wordpools/wordpool_categorized_EN.txt	STOVE	Appliances	9	7	[0, 0, 0]	n/a	catFR1	2	R1475J
955.181	0.817	1268994	WORD_OFF	n/a	n/a	STOVE	Appliances	9	7	[0, 0, 0]	n/a	catFR1	2	R1475J
955.998	1.6	1269810	WORD	n/a	wordpools/wordpool_categorized_EN.txt	DRYER	Appliances	10	7	[0, 0, 0]	n/a	catFR1	2	R1475J
957.614	0.967	1271433	WORD_OFF	n/a	n/a	DRYER	Appliances	10	7	[0, 0, 0]	n/a	catFR1	2	R1475J
958.581	1.6	1272394	WORD	n/a	wordpools/wordpool_categorized_EN.txt	TIGER	Zoo	11	7	[0, 0, 0]	n/a	catFR1	2	R1475J
960.181	0.849	1273995	WORD_OFF	n/a	n/a	TIGER	Zoo	11	7	[0, 0, 0]	n/a	catFR1	2	R1475J
961.03	1.6	1274843	WORD	n/a	wordpools/wordpool_categorized_EN.txt	MONKEY	Zoo	12	7	[0, 0, 0]	n/a	catFR1	2	R1475J
962.631	0.001	1276442	PROB	5.9	n/a	n/a	n/a	-999	7	[1, 7, 4]	12.0	catFR1	2	R1475J
962.632	0.0	1276443	START	n/a	n/a	n/a	n/a	-999	7	[-999, -999, -999]	n/a	catFR1	2	R1475J
962.63	0.002	1276444	WORD_OFF	n/a	n/a	MONKEY	Zoo	12	7	[0, 0, 0]	n/a	catFR1	2	R1475J
962.632	0.0	1276444	ENCODING_END	n/a	n/a	n/a	n/a	-999	7	[0, 0, 0]	n/a	catFR1	2	R1475J
962.632	5.915	1276444	DISTRACT_START	n/a	n/a	n/a	n/a	-999	7	[0, 0, 0]	n/a	catFR1	2	R1475J
968.547	12.668	1282358	PROB	12.65	n/a	n/a	n/a	-999	7	[4, 5, 8]	17.0	catFR1	2	R1475J
981.215	12.782	1295025	PROB	12.766	n/a	n/a	n/a	-999	7	[2, 6, 5]	13.0	catFR1	2	R1475J
993.997	0.0	1307807	STOP	n/a	n/a	n/a	n/a	-999	7	[-999, -999, -999]	n/a	catFR1	2	R1475J
993.997	2.284	1307816	DISTRACT_END	n/a	n/a	n/a	n/a	-999	7	[0, 0, 0]	n/a	catFR1	2	R1475J
996.281	5.816	1310098	REC_START	n/a	n/a	n/a	n/a	-999	7	[0, 0, 0]	n/a	catFR1	2	R1475J
1002.097	24.421	1315906	REC_WORD	5.816	n/a	CHIMPANZEE	Zoo	6	7	[0, 0, 0]	n/a	catFR1	2	R1475J
1026.518	3.578	1340335	REC_END	n/a	n/a	n/a	n/a	-999	7	[0, 0, 0]	n/a	catFR1	2	R1475J
1030.096	10.0	1343911	COUNTDOWN_START	n/a	n/a	n/a	n/a	-999	8	[0, 0, 0]	n/a	catFR1	2	R1475J
1040.447	0.001	1354265	COUNTDOWN_END	n/a	n/a	n/a	n/a	-999	8	[0, 0, 0]	n/a	catFR1	2	R1475J
1040.448	2.166	1354265	ENCODING_START	n/a	n/a	n/a	n/a	-999	8	[0, 0, 0]	n/a	catFR1	2	R1475J
1042.614	1.6	1356424	WORD	n/a	wordpools/wordpool_categorized_EN.txt	GRAPE	Fruit	1	8	[0, 0, 0]	n/a	catFR1	2	R1475J
1044.231	0.966	1358047	WORD_OFF	n/a	n/a	GRAPE	Fruit	1	8	[0, 0, 0]	n/a	catFR1	2	R1475J
1045.197	1.6	1359008	WORD	n/a	wordpools/wordpool_categorized_EN.txt	BLUEBERRY	Fruit	2	8	[0, 0, 0]	n/a	catFR1	2	R1475J
1046.798	0.833	1360609	WORD_OFF	n/a	n/a	BLUEBERRY	Fruit	2	8	[0, 0, 0]	n/a	catFR1	2	R1475J
1047.631	1.6	1361446	WORD	n/a	wordpools/wordpool_categorized_EN.txt	MOUNTAIN	Landscapes	3	8	[0, 0, 0]	n/a	catFR1	2	R1475J
1049.247	0.783	1363058	WORD_OFF	n/a	n/a	MOUNTAIN	Landscapes	3	8	[0, 0, 0]	n/a	catFR1	2	R1475J
1050.03	1.6	1363844	WORD	n/a	wordpools/wordpool_categorized_EN.txt	ISLAND	Landscapes	4	8	[0, 0, 0]	n/a	catFR1	2	R1475J
1051.647	0.966	1365456	WORD_OFF	n/a	n/a	ISLAND	Landscapes	4	8	[0, 0, 0]	n/a	catFR1	2	R1475J
1052.613	1.6	1366427	WORD	n/a	wordpools/wordpool_categorized_EN.txt	WASHER	Appliances	5	8	[0, 0, 0]	n/a	catFR1	2	R1475J
1054.213	0.917	1368029	WORD_OFF	n/a	n/a	WASHER	Appliances	5	8	[0, 0, 0]	n/a	catFR1	2	R1475J
1055.13	1.6	1368938	WORD	n/a	wordpools/wordpool_categorized_EN.txt	DISHWASHER	Appliances	6	8	[0, 0, 0]	n/a	catFR1	2	R1475J
1056.73	0.867	1370540	WORD_OFF	n/a	n/a	DISHWASHER	Appliances	6	8	[0, 0, 0]	n/a	catFR1	2	R1475J
1057.597	1.6	1371408	WORD	n/a	wordpools/wordpool_categorized_EN.txt	CREEK	Landscapes	7	8	[0, 0, 0]	n/a	catFR1	2	R1475J
1059.197	0.933	1373009	WORD_OFF	n/a	n/a	CREEK	Landscapes	7	8	[0, 0, 0]	n/a	catFR1	2	R1475J
1060.13	1.6	1373939	WORD	n/a	wordpools/wordpool_categorized_EN.txt	HILLS	Landscapes	8	8	[0, 0, 0]	n/a	catFR1	2	R1475J
1061.731	0.999	1375541	WORD_OFF	n/a	n/a	HILLS	Landscapes	8	8	[0, 0, 0]	n/a	catFR1	2	R1475J
1062.73	1.6	1376543	WORD	n/a	wordpools/wordpool_categorized_EN.txt	VACUUM	Appliances	9	8	[0, 0, 0]	n/a	catFR1	2	R1475J
1064.33	0.801	1378145	WORD_OFF	n/a	n/a	VACUUM	Appliances	9	8	[0, 0, 0]	n/a	catFR1	2	R1475J
1065.131	1.6	1378941	WORD	n/a	wordpools/wordpool_categorized_EN.txt	OVEN	Appliances	10	8	[0, 0, 0]	n/a	catFR1	2	R1475J
1066.731	0.78	1380542	WORD_OFF	n/a	n/a	OVEN	Appliances	10	8	[0, 0, 0]	n/a	catFR1	2	R1475J
1067.511	1.6	1381317	WORD	n/a	wordpools/wordpool_categorized_EN.txt	STRAWBERRY	Fruit	11	8	[0, 0, 0]	n/a	catFR1	2	R1475J
1069.113	0.834	1382929	WORD_OFF	n/a	n/a	STRAWBERRY	Fruit	11	8	[0, 0, 0]	n/a	catFR1	2	R1475J
1069.947	1.6	1383756	WORD	n/a	wordpools/wordpool_categorized_EN.txt	APPLE	Fruit	12	8	[0, 0, 0]	n/a	catFR1	2	R1475J
1071.548	0.001	1385354	PROB	6.482	n/a	n/a	n/a	-999	8	[1, 4, 2]	7.0	catFR1	2	R1475J
1071.549	0.003	1385358	WORD_OFF	n/a	n/a	APPLE	Fruit	12	8	[0, 0, 0]	n/a	catFR1	2	R1475J
1071.552	0.0	1385358	START	n/a	n/a	n/a	n/a	-999	8	[-999, -999, -999]	n/a	catFR1	2	R1475J
1071.552	0.0	1385368	ENCODING_END	n/a	n/a	n/a	n/a	-999	8	[0, 0, 0]	n/a	catFR1	2	R1475J
1071.552	6.496	1385368	DISTRACT_START	n/a	n/a	n/a	n/a	-999	8	[0, 0, 0]	n/a	catFR1	2	R1475J
1078.048	5.132	1391854	PROB	5.115	n/a	n/a	n/a	-999	8	[3, 2, 7]	12.0	catFR1	2	R1475J
1083.18	7.735	1396986	PROB	7.716	n/a	n/a	n/a	-999	8	[7, 4, 5]	16.0	catFR1	2	R1475J
1090.915	4.981	1404721	PROB	4.966	n/a	n/a	n/a	-999	8	[3, 2, 6]	11.0	catFR1	2	R1475J
1095.896	0.0	1409701	STOP	n/a	n/a	n/a	n/a	-999	8	[-999, -999, -999]	n/a	catFR1	2	R1475J
1095.896	2.085	1409703	DISTRACT_END	n/a	n/a	n/a	n/a	-999	8	[0, 0, 0]	n/a	catFR1	2	R1475J
1097.981	6.644	1411788	REC_START	n/a	n/a	n/a	n/a	-999	8	[0, 0, 0]	n/a	catFR1	2	R1475J
1104.625	7.167	1418430	REC_WORD	6.644	n/a	STRAWBERRY	Fruit	11	8	[0, 0, 0]	n/a	catFR1	2	R1475J
1111.792	5.288	1425597	REC_WORD	13.811	n/a	APPLE	Fruit	12	8	[0, 0, 0]	n/a	catFR1	2	R1475J
1117.08	11.116	1430885	REC_WORD	19.099	n/a	BLUEBERRY	Fruit	2	8	[0, 0, 0]	n/a	catFR1	2	R1475J
1128.196	2.401	1442005	REC_END	n/a	n/a	n/a	n/a	-999	8	[0, 0, 0]	n/a	catFR1	2	R1475J
1130.597	10.0	1444413	COUNTDOWN_START	n/a	n/a	n/a	n/a	-999	9	[0, 0, 0]	n/a	catFR1	2	R1475J
1140.947	0.001	1454756	COUNTDOWN_END	n/a	n/a	n/a	n/a	-999	9	[0, 0, 0]	n/a	catFR1	2	R1475J
1140.948	191.847	1454756	ENCODING_START	n/a	n/a	n/a	n/a	-999	9	[0, 0, 0]	n/a	catFR1	2	R1475J
1332.795	1.6	1646594	WORD	n/a	wordpools/wordpool_categorized_EN.txt	PEAR	Fruit	1	9	[0, 0, 0]	n/a	catFR1	2	R1475J
1334.396	0.917	1648196	WORD_OFF	n/a	n/a	PEAR	Fruit	1	9	[0, 0, 0]	n/a	catFR1	2	R1475J
1335.313	1.6	1649116	WORD	n/a	wordpools/wordpool_categorized_EN.txt	PEACH	Fruit	2	9	[0, 0, 0]	n/a	catFR1	2	R1475J
1336.929	0.767	1650728	WORD_OFF	n/a	n/a	PEACH	Fruit	2	9	[0, 0, 0]	n/a	catFR1	2	R1475J
1337.696	1.6	1651492	WORD	n/a	wordpools/wordpool_categorized_EN.txt	PANTS	Clothing	3	9	[0, 0, 0]	n/a	catFR1	2	R1475J
1339.312	0.767	1653115	WORD_OFF	n/a	n/a	PANTS	Clothing	3	9	[0, 0, 0]	n/a	catFR1	2	R1475J
1340.079	1.6	1653879	WORD	n/a	wordpools/wordpool_categorized_EN.txt	SHIRT	Clothing	4	9	[0, 0, 0]	n/a	catFR1	2	R1475J
1341.679	0.967	1655491	WORD_OFF	n/a	n/a	SHIRT	Clothing	4	9	[0, 0, 0]	n/a	catFR1	2	R1475J
1342.646	1.6	1656442	WORD	n/a	wordpools/wordpool_categorized_EN.txt	DRUM	Instruments	5	9	[0, 0, 0]	n/a	catFR1	2	R1475J
1344.263	0.782	1658064	WORD_OFF	n/a	n/a	DRUM	Instruments	5	9	[0, 0, 0]	n/a	catFR1	2	R1475J
1345.045	1.6	1658850	WORD	n/a	wordpools/wordpool_categorized_EN.txt	TROMBONE	Instruments	6	9	[0, 0, 0]	n/a	catFR1	2	R1475J
1346.646	0.832	1660441	WORD_OFF	n/a	n/a	TROMBONE	Instruments	6	9	[0, 0, 0]	n/a	catFR1	2	R1475J
1347.478	1.6	1661278	WORD	n/a	wordpools/wordpool_categorized_EN.txt	PLUM	Fruit	7	9	[0, 0, 0]	n/a	catFR1	2	R1475J
1349.079	0.834	1662880	WORD_OFF	n/a	n/a	PLUM	Fruit	7	9	[0, 0, 0]	n/a	catFR1	2	R1475J
1349.913	1.6	1663717	WORD	n/a	wordpools/wordpool_categorized_EN.txt	CHERRY	Fruit	8	9	[0, 0, 0]	n/a	catFR1	2	R1475J
1351.529	0.817	1665329	WORD_OFF	n/a	n/a	CHERRY	Fruit	8	9	[0, 0, 0]	n/a	catFR1	2	R1475J
1352.346	1.6	1666145	WORD	n/a	wordpools/wordpool_categorized_EN.txt	CELLO	Instruments	9	9	[0, 0, 0]	n/a	catFR1	2	R1475J
1353.962	0.85	1667767	WORD_OFF	n/a	n/a	CELLO	Instruments	9	9	[0, 0, 0]	n/a	catFR1	2	R1475J
1354.812	1.6	1668615	WORD	n/a	wordpools/wordpool_categorized_EN.txt	VIOLIN	Instruments	10	9	[0, 0, 0]	n/a	catFR1	2	R1475J
1356.429	0.883	1670227	WORD_OFF	n/a	n/a	VIOLIN	Instruments	10	9	[0, 0, 0]	n/a	catFR1	2	R1475J
1357.312	1.6	1671115	WORD	n/a	wordpools/wordpool_categorized_EN.txt	SKIRT	Clothing	11	9	[0, 0, 0]	n/a	catFR1	2	R1475J
1358.912	0.917	1672707	WORD_OFF	n/a	n/a	SKIRT	Clothing	11	9	[0, 0, 0]	n/a	catFR1	2	R1475J
1359.829	1.6	1673626	WORD	n/a	wordpools/wordpool_categorized_EN.txt	JEANS	Clothing	12	9	[0, 0, 0]	n/a	catFR1	2	R1475J
1361.43	0.002	1675224	PROB	6.716	n/a	n/a	n/a	-999	9	[5, 8, 8]	21.0	catFR1	2	R1475J
1361.432	0.0	1675226	START	n/a	n/a	n/a	n/a	-999	9	[-999, -999, -999]	n/a	catFR1	2	R1475J
1361.429	0.003	1675228	WORD_OFF	n/a	n/a	JEANS	Clothing	12	9	[0, 0, 0]	n/a	catFR1	2	R1475J
1361.432	0.0	1675228	ENCODING_END	n/a	n/a	n/a	n/a	-999	9	[0, 0, 0]	n/a	catFR1	2	R1475J
1361.432	6.731	1675228	DISTRACT_START	n/a	n/a	n/a	n/a	-999	9	[0, 0, 0]	n/a	catFR1	2	R1475J
1368.163	7.9	1681957	PROB	7.883	n/a	n/a	n/a	-999	9	[1, 7, 6]	14.0	catFR1	2	R1475J
1376.063	9.165	1689857	PROB	9.149	n/a	n/a	n/a	-999	9	[5, 4, 1]	10.0	catFR1	2	R1475J
1385.228	0.0	1699021	STOP	n/a	n/a	n/a	n/a	-999	9	[-999, -999, -999]	n/a	catFR1	2	R1475J
1385.228	2.284	1699026	DISTRACT_END	n/a	n/a	n/a	n/a	-999	9	[0, 0, 0]	n/a	catFR1	2	R1475J
1387.512	1.039	1701307	REC_START	n/a	n/a	n/a	n/a	-999	9	[0, 0, 0]	n/a	catFR1	2	R1475J
1388.551	4.493	1702344	REC_WORD	1.039	n/a	TROMBONE	Instruments	6	9	[0, 0, 0]	n/a	catFR1	2	R1475J
1393.044	24.673	1706837	REC_WORD	5.532	n/a	CELLO	Instruments	9	9	[0, 0, 0]	n/a	catFR1	2	R1475J
1417.717	2.697	1731514	REC_END	n/a	n/a	n/a	n/a	-999	9	[0, 0, 0]	n/a	catFR1	2	R1475J
1420.414	10.0	1734211	COUNTDOWN_START	n/a	n/a	n/a	n/a	-999	10	[0, 0, 0]	n/a	catFR1	2	R1475J
1430.764	0.0	1744565	COUNTDOWN_END	n/a	n/a	n/a	n/a	-999	10	[0, 0, 0]	n/a	catFR1	2	R1475J
1430.764	1.917	1744565	ENCODING_START	n/a	n/a	n/a	n/a	-999	10	[0, 0, 0]	n/a	catFR1	2	R1475J
1432.681	1.6	1746476	WORD	n/a	wordpools/wordpool_categorized_EN.txt	BALL	Toys	1	10	[0, 0, 0]	n/a	catFR1	2	R1475J
1434.281	0.85	1748078	WORD_OFF	n/a	n/a	BALL	Toys	1	10	[0, 0, 0]	n/a	catFR1	2	R1475J
1435.131	1.6	1748925	WORD	n/a	wordpools/wordpool_categorized_EN.txt	SLINKY	Toys	2	10	[0, 0, 0]	n/a	catFR1	2	R1475J
1436.731	0.766	1750527	WORD_OFF	n/a	n/a	SLINKY	Toys	2	10	[0, 0, 0]	n/a	catFR1	2	R1475J
1437.497	1.6	1751292	WORD	n/a	wordpools/wordpool_categorized_EN.txt	LAKE	Landscapes	3	10	[0, 0, 0]	n/a	catFR1	2	R1475J
1439.114	0.884	1752914	WORD_OFF	n/a	n/a	LAKE	Landscapes	3	10	[0, 0, 0]	n/a	catFR1	2	R1475J
1439.998	1.6	1753792	WORD	n/a	wordpools/wordpool_categorized_EN.txt	STREAM	Landscapes	4	10	[0, 0, 0]	n/a	catFR1	2	R1475J
1441.613	0.984	1755404	WORD_OFF	n/a	n/a	STREAM	Landscapes	4	10	[0, 0, 0]	n/a	catFR1	2	R1475J
1442.597	1.6	1756396	WORD	n/a	wordpools/wordpool_categorized_EN.txt	TUBA	Instruments	5	10	[0, 0, 0]	n/a	catFR1	2	R1475J
1444.197	0.884	1757988	WORD_OFF	n/a	n/a	TUBA	Instruments	5	10	[0, 0, 0]	n/a	catFR1	2	R1475J
1445.081	1.6	1758876	WORD	n/a	wordpools/wordpool_categorized_EN.txt	TRUMPET	Instruments	6	10	[0, 0, 0]	n/a	catFR1	2	R1475J
1446.681	0.966	1760478	WORD_OFF	n/a	n/a	TRUMPET	Instruments	6	10	[0, 0, 0]	n/a	catFR1	2	R1475J
1447.647	1.6	1761439	WORD	n/a	wordpools/wordpool_categorized_EN.txt	VALLEY	Landscapes	7	10	[0, 0, 0]	n/a	catFR1	2	R1475J
1449.263	1.001	1763061	WORD_OFF	n/a	n/a	VALLEY	Landscapes	7	10	[0, 0, 0]	n/a	catFR1	2	R1475J
1450.264	1.6	1764064	WORD	n/a	wordpools/wordpool_categorized_EN.txt	RIVER	Landscapes	8	10	[0, 0, 0]	n/a	catFR1	2	R1475J
1451.864	0.85	1765655	WORD_OFF	n/a	n/a	RIVER	Landscapes	8	10	[0, 0, 0]	n/a	catFR1	2	R1475J
1452.714	1.6	1766513	WORD	n/a	wordpools/wordpool_categorized_EN.txt	BLOCKS	Toys	9	10	[0, 0, 0]	n/a	catFR1	2	R1475J
1454.331	0.932	1768125	WORD_OFF	n/a	n/a	BLOCKS	Toys	9	10	[0, 0, 0]	n/a	catFR1	2	R1475J
1455.263	1.6	1769055	WORD	n/a	wordpools/wordpool_categorized_EN.txt	DOLL	Toys	10	10	[0, 0, 0]	n/a	catFR1	2	R1475J
1456.864	0.867	1770656	WORD_OFF	n/a	n/a	DOLL	Toys	10	10	[0, 0, 0]	n/a	catFR1	2	R1475J
1457.731	1.6	1771524	WORD	n/a	wordpools/wordpool_categorized_EN.txt	FLUTE	Instruments	11	10	[0, 0, 0]	n/a	catFR1	2	R1475J
1459.331	0.8	1773126	WORD_OFF	n/a	n/a	FLUTE	Instruments	11	10	[0, 0, 0]	n/a	catFR1	2	R1475J
1460.131	1.6	1773922	WORD	n/a	wordpools/wordpool_categorized_EN.txt	PIANO	Instruments	12	10	[0, 0, 0]	n/a	catFR1	2	R1475J
1461.748	0.003	1775538	PROB	5.516	n/a	n/a	n/a	-999	10	[6, 6, 4]	16.0	catFR1	2	R1475J
1461.751	0.0	1775541	START	n/a	n/a	n/a	n/a	-999	10	[-999, -999, -999]	n/a	catFR1	2	R1475J
1461.747	0.004	1775544	WORD_OFF	n/a	n/a	PIANO	Instruments	12	10	[0, 0, 0]	n/a	catFR1	2	R1475J
1461.751	0.0	1775544	ENCODING_END	n/a	n/a	n/a	n/a	-999	10	[0, 0, 0]	n/a	catFR1	2	R1475J
1461.751	5.53	1775544	DISTRACT_START	n/a	n/a	n/a	n/a	-999	10	[0, 0, 0]	n/a	catFR1	2	R1475J
1467.281	6.185	1781071	PROB	6.166	n/a	n/a	n/a	-999	10	[8, 5, 8]	21.0	catFR1	2	R1475J
1473.466	5.031	1787256	PROB	5.016	n/a	n/a	n/a	-999	10	[1, 7, 1]	9.0	catFR1	2	R1475J
1478.497	7.799	1792286	PROB	7.784	n/a	n/a	n/a	-999	10	[4, 6, 3]	13.0	catFR1	2	R1475J
1486.296	0.0	1800085	STOP	n/a	n/a	n/a	n/a	-999	10	[-999, -999, -999]	n/a	catFR1	2	R1475J
1486.296	2.351	1800086	DISTRACT_END	n/a	n/a	n/a	n/a	-999	10	[0, 0, 0]	n/a	catFR1	2	R1475J
1488.647	1.576	1802439	REC_START	n/a	n/a	n/a	n/a	-999	10	[0, 0, 0]	n/a	catFR1	2	R1475J
1490.223	0.47	1804012	REC_WORD	1.576	n/a	DOLL	Toys	10	10	[0, 0, 0]	n/a	catFR1	2	R1475J
1490.693	2.652	1804482	REC_WORD	2.046	n/a	FLUTE	Instruments	11	10	[0, 0, 0]	n/a	catFR1	2	R1475J
1493.345	25.542	1807134	REC_WORD	4.698	n/a	TRUMPET	Instruments	6	10	[0, 0, 0]	n/a	catFR1	2	R1475J
1518.887	5.109	1832677	REC_END	n/a	n/a	n/a	n/a	-999	10	[0, 0, 0]	n/a	catFR1	2	R1475J
1523.996	10.0	1837792	COUNTDOWN_START	n/a	n/a	n/a	n/a	-999	11	[0, 0, 0]	n/a	catFR1	2	R1475J
1534.346	0.0	1848136	COUNTDOWN_END	n/a	n/a	n/a	n/a	-999	11	[0, 0, 0]	n/a	catFR1	2	R1475J
1534.346	2.134	1848136	ENCODING_START	n/a	n/a	n/a	n/a	-999	11	[0, 0, 0]	n/a	catFR1	2	R1475J
1536.48	1.6	1850275	WORD	n/a	wordpools/wordpool_categorized_EN.txt	MARIGOLD	Flowers	1	11	[0, 0, 0]	n/a	catFR1	2	R1475J
1538.096	0.9	1851887	WORD_OFF	n/a	n/a	MARIGOLD	Flowers	1	11	[0, 0, 0]	n/a	catFR1	2	R1475J
1538.996	1.6	1852786	WORD	n/a	wordpools/wordpool_categorized_EN.txt	LILY	Flowers	2	11	[0, 0, 0]	n/a	catFR1	2	R1475J
1540.597	0.915	1854387	WORD_OFF	n/a	n/a	LILY	Flowers	2	11	[0, 0, 0]	n/a	catFR1	2	R1475J
1541.512	1.6	1855307	WORD	n/a	wordpools/wordpool_categorized_EN.txt	PLANE	Vehicles	3	11	[0, 0, 0]	n/a	catFR1	2	R1475J
1543.13	0.783	1856919	WORD_OFF	n/a	n/a	PLANE	Vehicles	3	11	[0, 0, 0]	n/a	catFR1	2	R1475J
1543.913	1.6	1857704	WORD	n/a	wordpools/wordpool_categorized_EN.txt	BUS	Vehicles	4	11	[0, 0, 0]	n/a	catFR1	2	R1475J
1545.529	0.983	1859316	WORD_OFF	n/a	n/a	BUS	Vehicles	4	11	[0, 0, 0]	n/a	catFR1	2	R1475J
1546.512	1.6	1860308	WORD	n/a	wordpools/wordpool_categorized_EN.txt	GUITAR	Instruments	5	11	[0, 0, 0]	n/a	catFR1	2	R1475J
1548.112	1.001	1861900	WORD_OFF	n/a	n/a	GUITAR	Instruments	5	11	[0, 0, 0]	n/a	catFR1	2	R1475J
1549.113	1.6	1862902	WORD	n/a	wordpools/wordpool_categorized_EN.txt	BASS	Instruments	6	11	[0, 0, 0]	n/a	catFR1	2	R1475J
1550.729	0.899	1864524	WORD_OFF	n/a	n/a	BASS	Instruments	6	11	[0, 0, 0]	n/a	catFR1	2	R1475J
1551.628	1.6	1865423	WORD	n/a	wordpools/wordpool_categorized_EN.txt	TULIP	Flowers	7	11	[0, 0, 0]	n/a	catFR1	2	R1475J
1553.229	0.867	1867025	WORD_OFF	n/a	n/a	TULIP	Flowers	7	11	[0, 0, 0]	n/a	catFR1	2	R1475J
1554.096	1.6	1867883	WORD	n/a	wordpools/wordpool_categorized_EN.txt	SUNFLOWER	Flowers	8	11	[0, 0, 0]	n/a	catFR1	2	R1475J
1555.712	0.85	1869505	WORD_OFF	n/a	n/a	SUNFLOWER	Flowers	8	11	[0, 0, 0]	n/a	catFR1	2	R1475J
1556.562	1.6	1870352	WORD	n/a	wordpools/wordpool_categorized_EN.txt	BANJO	Instruments	9	11	[0, 0, 0]	n/a	catFR1	2	R1475J
1558.162	0.95	1871954	WORD_OFF	n/a	n/a	BANJO	Instruments	9	11	[0, 0, 0]	n/a	catFR1	2	R1475J
1559.112	1.6	1872905	WORD	n/a	wordpools/wordpool_categorized_EN.txt	ORGAN	Instruments	10	11	[0, 0, 0]	n/a	catFR1	2	R1475J
1560.713	0.967	1874506	WORD_OFF	n/a	n/a	ORGAN	Instruments	10	11	[0, 0, 0]	n/a	catFR1	2	R1475J
1561.68	1.6	1875467	WORD	n/a	wordpools/wordpool_categorized_EN.txt	MOTORCYCLE	Vehicles	11	11	[0, 0, 0]	n/a	catFR1	2	R1475J
1563.279	0.866	1877069	WORD_OFF	n/a	n/a	MOTORCYCLE	Vehicles	11	11	[0, 0, 0]	n/a	catFR1	2	R1475J
1564.145	1.6	1877937	WORD	n/a	wordpools/wordpool_categorized_EN.txt	BOAT	Vehicles	12	11	[0, 0, 0]	n/a	catFR1	2	R1475J
1565.746	0.002	1879532	PROB	5.499	n/a	n/a	n/a	-999	11	[6, 1, 6]	13.0	catFR1	2	R1475J
1565.748	0.0	1879534	START	n/a	n/a	n/a	n/a	-999	11	[-999, -999, -999]	n/a	catFR1	2	R1475J
1565.746	0.002	1879539	WORD_OFF	n/a	n/a	BOAT	Vehicles	12	11	[0, 0, 0]	n/a	catFR1	2	R1475J
1565.748	0.0	1879539	ENCODING_END	n/a	n/a	n/a	n/a	-999	11	[0, 0, 0]	n/a	catFR1	2	R1475J
1565.748	5.518	1879539	DISTRACT_START	n/a	n/a	n/a	n/a	-999	11	[0, 0, 0]	n/a	catFR1	2	R1475J
1571.266	6.929	1885052	PROB	6.916	n/a	n/a	n/a	-999	11	[7, 6, 3]	16.0	catFR1	2	R1475J
1578.195	5.968	1891980	PROB	5.95	n/a	n/a	n/a	-999	11	[7, 3, 7]	17.0	catFR1	2	R1475J
1584.163	5.382	1897948	PROB	5.366	n/a	n/a	n/a	-999	11	[4, 8, 1]	13.0	catFR1	2	R1475J
1589.545	0.0	1903330	STOP	n/a	n/a	n/a	n/a	-999	11	[-999, -999, -999]	n/a	catFR1	2	R1475J
1589.545	2.2	1903336	DISTRACT_END	n/a	n/a	n/a	n/a	-999	11	[0, 0, 0]	n/a	catFR1	2	R1475J
1591.745	17.469	1905535	REC_START	n/a	n/a	n/a	n/a	-999	11	[0, 0, 0]	n/a	catFR1	2	R1475J
1609.214	12.737	1922998	REC_WORD	17.469	n/a	BANJO	Instruments	9	11	[0, 0, 0]	n/a	catFR1	2	R1475J
1621.951	8.73	1935742	REC_END	n/a	n/a	n/a	n/a	-999	11	[0, 0, 0]	n/a	catFR1	2	R1475J
1630.681	10.0	1944473	COUNTDOWN_START	n/a	n/a	n/a	n/a	-999	12	[0, 0, 0]	n/a	catFR1	2	R1475J
1641.03	0.0	1954817	COUNTDOWN_END	n/a	n/a	n/a	n/a	-999	12	[0, 0, 0]	n/a	catFR1	2	R1475J
1641.03	2.117	1954817	ENCODING_START	n/a	n/a	n/a	n/a	-999	12	[0, 0, 0]	n/a	catFR1	2	R1475J
1643.147	1.6	1956935	WORD	n/a	wordpools/wordpool_categorized_EN.txt	WOODS	Landscapes	1	12	[0, 0, 0]	n/a	catFR1	2	R1475J
1644.747	0.95	1958537	WORD_OFF	n/a	n/a	WOODS	Landscapes	1	12	[0, 0, 0]	n/a	catFR1	2	R1475J
1645.697	1.6	1959488	WORD	n/a	wordpools/wordpool_categorized_EN.txt	FOREST	Landscapes	2	12	[0, 0, 0]	n/a	catFR1	2	R1475J
1647.314	0.883	1961100	WORD_OFF	n/a	n/a	FOREST	Landscapes	2	12	[0, 0, 0]	n/a	catFR1	2	R1475J
1648.197	1.6	1961988	WORD	n/a	wordpools/wordpool_categorized_EN.txt	DAISY	Flowers	3	12	[0, 0, 0]	n/a	catFR1	2	R1475J
1649.814	0.85	1963600	WORD_OFF	n/a	n/a	DAISY	Flowers	3	12	[0, 0, 0]	n/a	catFR1	2	R1475J
1650.664	1.6	1964448	WORD	n/a	wordpools/wordpool_categorized_EN.txt	ROSE	Flowers	4	12	[0, 0, 0]	n/a	catFR1	2	R1475J
1652.281	0.966	1966070	WORD_OFF	n/a	n/a	ROSE	Flowers	4	12	[0, 0, 0]	n/a	catFR1	2	R1475J
1653.247	1.6	1967031	WORD	n/a	wordpools/wordpool_categorized_EN.txt	GNAT	Insects	5	12	[0, 0, 0]	n/a	catFR1	2	R1475J
1654.864	0.833	1968653	WORD_OFF	n/a	n/a	GNAT	Insects	5	12	[0, 0, 0]	n/a	catFR1	2	R1475J
1655.697	1.6	1969480	WORD	n/a	wordpools/wordpool_categorized_EN.txt	BUTTERFLY	Insects	6	12	[0, 0, 0]	n/a	catFR1	2	R1475J
1657.298	0.783	1971082	WORD_OFF	n/a	n/a	BUTTERFLY	Insects	6	12	[0, 0, 0]	n/a	catFR1	2	R1475J
1658.081	1.6	1971867	WORD	n/a	wordpools/wordpool_categorized_EN.txt	PETUNIA	Flowers	7	12	[0, 0, 0]	n/a	catFR1	2	R1475J
1659.681	0.85	1973469	WORD_OFF	n/a	n/a	PETUNIA	Flowers	7	12	[0, 0, 0]	n/a	catFR1	2	R1475J
1660.531	1.6	1974316	WORD	n/a	wordpools/wordpool_categorized_EN.txt	LILAC	Flowers	8	12	[0, 0, 0]	n/a	catFR1	2	R1475J
1662.148	0.849	1975938	WORD_OFF	n/a	n/a	LILAC	Flowers	8	12	[0, 0, 0]	n/a	catFR1	2	R1475J
1662.997	1.6	1976786	WORD	n/a	wordpools/wordpool_categorized_EN.txt	BEACH	Landscapes	9	12	[0, 0, 0]	n/a	catFR1	2	R1475J
1664.615	0.765	1978398	WORD_OFF	n/a	n/a	BEACH	Landscapes	9	12	[0, 0, 0]	n/a	catFR1	2	R1475J
1665.38	1.6	1979162	WORD	n/a	wordpools/wordpool_categorized_EN.txt	OCEAN	Landscapes	10	12	[0, 0, 0]	n/a	catFR1	2	R1475J
1666.997	0.817	1980785	WORD_OFF	n/a	n/a	OCEAN	Landscapes	10	12	[0, 0, 0]	n/a	catFR1	2	R1475J
1667.814	1.6	1981601	WORD	n/a	wordpools/wordpool_categorized_EN.txt	MOSQUITO	Insects	11	12	[0, 0, 0]	n/a	catFR1	2	R1475J
1669.414	0.833	1983202	WORD_OFF	n/a	n/a	MOSQUITO	Insects	11	12	[0, 0, 0]	n/a	catFR1	2	R1475J
1670.247	1.6	1984039	WORD	n/a	wordpools/wordpool_categorized_EN.txt	FLY	Insects	12	12	[0, 0, 0]	n/a	catFR1	2	R1475J
1671.848	0.0	1985629	PROB	5.416	n/a	n/a	n/a	-999	12	[1, 2, 6]	9.0	catFR1	2	R1475J
1671.847	0.004	1985631	WORD_OFF	n/a	n/a	FLY	Insects	12	12	[0, 0, 0]	n/a	catFR1	2	R1475J
1671.851	0.0	1985632	START	n/a	n/a	n/a	n/a	-999	12	[-999, -999, -999]	n/a	catFR1	2	R1475J
1671.851	0.0	1985641	ENCODING_END	n/a	n/a	n/a	n/a	-999	12	[0, 0, 0]	n/a	catFR1	2	R1475J
1671.851	5.43	1985641	DISTRACT_START	n/a	n/a	n/a	n/a	-999	12	[0, 0, 0]	n/a	catFR1	2	R1475J
1677.281	15.748	1991062	PROB	15.732	n/a	n/a	n/a	-999	12	[5, 6, 8]	19.0	catFR1	2	R1475J
1693.029	0.0	2006809	STOP	n/a	n/a	n/a	n/a	-999	12	[-999, -999, -999]	n/a	catFR1	2	R1475J
1693.029	2.251	2006814	DISTRACT_END	n/a	n/a	n/a	n/a	-999	12	[0, 0, 0]	n/a	catFR1	2	R1475J
1695.28	0.887	2009064	REC_START	n/a	n/a	n/a	n/a	-999	12	[0, 0, 0]	n/a	catFR1	2	R1475J
1696.167	0.87	2009947	REC_WORD	0.887	n/a	LILAC	Flowers	8	12	[0, 0, 0]	n/a	catFR1	2	R1475J
1697.037	1.461	2010817	REC_WORD	1.757	n/a	PETUNIA	Flowers	7	12	[0, 0, 0]	n/a	catFR1	2	R1475J
1698.498	11.33	2012278	REC_WORD	3.218	n/a	BUTTERFLY	Insects	6	12	[0, 0, 0]	n/a	catFR1	2	R1475J
1709.828	7.68	2023608	REC_WORD	14.548	n/a	MOSQUITO	Insects	11	12	[0, 0, 0]	n/a	catFR1	2	R1475J
1717.508	7.999	2031288	REC_WORD	22.228	n/a	WOODS	Landscapes	1	12	[0, 0, 0]	n/a	catFR1	2	R1475J
1725.507	0.0	2039292	REC_END	n/a	n/a	n/a	n/a	-999	12	[0, 0, 0]	n/a	catFR1	2	R1475J
