onset	duration	sample	trial_type	response_time	stim_file	item_name	category	serialpos	list	test	answer	experiment	session	subject
0.0	34.913	312	INSTRUCT_START	n/a	n/a	n/a	n/a	-999	-999	[0, 0, 0]	n/a	catFR1	1	R1354E
34.913	4.334	35224	INSTRUCT_END	n/a	n/a	n/a	n/a	-999	-999	[0, 0, 0]	n/a	catFR1	1	R1354E
39.247	9.19	39558	MIC TEST_START	n/a	n/a	n/a	n/a	-999	-999	[0, 0, 0]	n/a	catFR1	1	R1354E
48.437	0.012	48747	MIC TEST_END	n/a	n/a	n/a	n/a	-999	-999	[0, 0, 0]	n/a	catFR1	1	R1354E
48.449	0.0	48759	TRIAL_START	n/a	n/a	n/a	n/a	-999	-1	[0, 0, 0]	n/a	catFR1	1	R1354E
48.449	0.0	48759	TRIAL	n/a	n/a	n/a	n/a	-999	-1	[0, 0, 0]	n/a	catFR1	1	R1354E
48.449	8.284	48759	WAITING_START	n/a	n/a	n/a	n/a	-999	-1	[0, 0, 0]	n/a	catFR1	1	R1354E
56.733	0.001	57043	WAITING_END	n/a	n/a	n/a	n/a	-999	-1	[0, 0, 0]	n/a	catFR1	1	R1354E
56.734	10.0	57044	COUNTDOWN_START	n/a	n/a	n/a	n/a	-999	-1	[0, 0, 0]	n/a	catFR1	1	R1354E
67.163	0.0	67473	COUNTDOWN_END	n/a	n/a	n/a	n/a	-999	-1	[0, 0, 0]	n/a	catFR1	1	R1354E
67.163	1.255	67473	ORIENT_START	n/a	n/a	n/a	n/a	-999	-1	[0, 0, 0]	n/a	catFR1	1	R1354E
68.418	0.001	68728	ORIENT_END	n/a	n/a	n/a	n/a	-999	-1	[0, 0, 0]	n/a	catFR1	1	R1354E
68.419	1.096	68729	ENCODING_START	n/a	n/a	n/a	n/a	-999	-1	[0, 0, 0]	n/a	catFR1	1	R1354E
69.515	1.6	69824	WORD	n/a	n/a	SECOND	n/a	1	-1	[0, 0, 0]	n/a	catFR1	1	R1354E
71.152	0.771	71461	WORD_OFF	n/a	n/a	SECOND	n/a	1	-1	[0, 0, 0]	n/a	catFR1	1	R1354E
71.923	1.6	72232	WORD	n/a	n/a	MINUTE	n/a	2	-1	[0, 0, 0]	n/a	catFR1	1	R1354E
73.553	1.122	73862	WORD_OFF	n/a	n/a	MINUTE	n/a	2	-1	[0, 0, 0]	n/a	catFR1	1	R1354E
74.675	1.6	74984	WORD	n/a	n/a	WOOL	n/a	3	-1	[0, 0, 0]	n/a	catFR1	1	R1354E
76.302	0.928	76611	WORD_OFF	n/a	n/a	WOOL	n/a	3	-1	[0, 0, 0]	n/a	catFR1	1	R1354E
77.23	1.6	77539	WORD	n/a	n/a	LEATHER	n/a	4	-1	[0, 0, 0]	n/a	catFR1	1	R1354E
78.853	0.876	79162	WORD_OFF	n/a	n/a	LEATHER	n/a	4	-1	[0, 0, 0]	n/a	catFR1	1	R1354E
79.729	1.6	80038	WORD	n/a	n/a	SILK	n/a	5	-1	[0, 0, 0]	n/a	catFR1	1	R1354E
81.353	0.964	81662	WORD_OFF	n/a	n/a	SILK	n/a	5	-1	[0, 0, 0]	n/a	catFR1	1	R1354E
82.317	1.6	82626	WORD	n/a	n/a	HOUR	n/a	6	-1	[0, 0, 0]	n/a	catFR1	1	R1354E
83.937	0.792	84246	WORD_OFF	n/a	n/a	HOUR	n/a	6	-1	[0, 0, 0]	n/a	catFR1	1	R1354E
84.729	1.6	85038	WORD	n/a	n/a	FARMER	n/a	7	-1	[0, 0, 0]	n/a	catFR1	1	R1354E
86.354	1.068	86663	WORD_OFF	n/a	n/a	FARMER	n/a	7	-1	[0, 0, 0]	n/a	catFR1	1	R1354E
87.422	1.6	87731	WORD	n/a	n/a	FIREMAN	n/a	8	-1	[0, 0, 0]	n/a	catFR1	1	R1354E
89.055	0.773	89364	WORD_OFF	n/a	n/a	FIREMAN	n/a	8	-1	[0, 0, 0]	n/a	catFR1	1	R1354E
89.828	1.6	90137	WORD	n/a	n/a	TEACHER	n/a	9	-1	[0, 0, 0]	n/a	catFR1	1	R1354E
91.456	1.006	91765	WORD_OFF	n/a	n/a	TEACHER	n/a	9	-1	[0, 0, 0]	n/a	catFR1	1	R1354E
92.462	1.6	92771	WORD	n/a	n/a	DAY	n/a	10	-1	[0, 0, 0]	n/a	catFR1	1	R1354E
94.089	0.824	94398	WORD_OFF	n/a	n/a	DAY	n/a	10	-1	[0, 0, 0]	n/a	catFR1	1	R1354E
94.913	1.6	95222	WORD	n/a	n/a	PLUMBER	n/a	11	-1	[0, 0, 0]	n/a	catFR1	1	R1354E
96.54	1.053	96849	WORD_OFF	n/a	n/a	PLUMBER	n/a	11	-1	[0, 0, 0]	n/a	catFR1	1	R1354E
97.593	1.6	97901	WORD	n/a	n/a	DENIM	n/a	12	-1	[0, 0, 0]	n/a	catFR1	1	R1354E
99.224	0.0	99532	WORD_OFF	n/a	n/a	DENIM	n/a	12	-1	[0, 0, 0]	n/a	catFR1	1	R1354E
99.224	0.001	99532	ENCODING_END	n/a	n/a	n/a	n/a	-999	-1	[0, 0, 0]	n/a	catFR1	1	R1354E
99.225	0.0	99533	DISTRACT_START	n/a	n/a	n/a	n/a	-999	-1	[0, 0, 0]	n/a	catFR1	1	R1354E
99.225	0.015	99533	START	n/a	n/a	n/a	n/a	-999	-1	[-999, -999, -999]	n/a	catFR1	1	R1354E
99.24	2.884	99548	PROB	2.853	n/a	n/a	n/a	-999	-1	[7, 6, 9]	22.0	catFR1	1	R1354E
102.124	4.251	102432	PROB	4.217	n/a	n/a	n/a	-999	-1	[8, 9, 8]	27.0	catFR1	1	R1354E
106.375	1.467	106683	PROB	1.439	n/a	n/a	n/a	-999	-1	[1, 3, 2]	6.0	catFR1	1	R1354E
107.842	2.0	108150	PROB	1.971	n/a	n/a	n/a	-999	-1	[8, 8, 5]	21.0	catFR1	1	R1354E
109.842	2.667	110150	PROB	2.636	n/a	n/a	n/a	-999	-1	[4, 7, 9]	17.0	catFR1	1	R1354E
112.509	2.134	112817	PROB	2.112	n/a	n/a	n/a	-999	-1	[5, 1, 7]	13.0	catFR1	1	R1354E
114.643	2.1	114951	PROB	2.067	n/a	n/a	n/a	-999	-1	[3, 1, 9]	13.0	catFR1	1	R1354E
116.743	1.717	117051	PROB	1.687	n/a	n/a	n/a	-999	-1	[8, 3, 3]	14.0	catFR1	1	R1354E
118.46	1.449	118768	PROB	1.449	n/a	n/a	n/a	-999	-1	[2, 4, 6]	12.0	catFR1	1	R1354E
119.909	0.018	120217	STOP	n/a	n/a	n/a	n/a	-999	-1	[-999, -999, -999]	n/a	catFR1	1	R1354E
119.927	0.538	120235	DISTRACT_END	n/a	n/a	n/a	n/a	-999	-1	[0, 0, 0]	n/a	catFR1	1	R1354E
120.465	1.6	120773	RETRIEVAL_ORIENT_START	n/a	n/a	n/a	n/a	-999	-1	[0, 0, 0]	n/a	catFR1	1	R1354E
122.161	0.0	122469	RETRIEVAL_ORIENT_END	n/a	n/a	n/a	n/a	-999	-1	[0, 0, 0]	n/a	catFR1	1	R1354E
122.161	1.29	122469	REC_START	n/a	n/a	n/a	n/a	-999	-1	[0, 0, 0]	n/a	catFR1	1	R1354E
123.451	1.607	123759	REC_WORD	1.29	n/a	FIREMAN	n/a	8	-1	[0, 0, 0]	n/a	catFR1	1	R1354E
125.058	0.887	125366	REC_WORD	2.897	n/a	DAY	n/a	10	-1	[0, 0, 0]	n/a	catFR1	1	R1354E
125.945	1.046	126252	REC_WORD	3.784	n/a	TEACHER	n/a	9	-1	[0, 0, 0]	n/a	catFR1	1	R1354E
126.991	0.717	127298	REC_WORD	4.83	n/a	WEATHER	n/a	-999	-1	[0, 0, 0]	n/a	catFR1	1	R1354E
127.708	2.079	128015	REC_WORD	5.547	n/a	WOOL	n/a	3	-1	[0, 0, 0]	n/a	catFR1	1	R1354E
129.787	0.895	130094	REC_WORD_VV	7.626	n/a	<>	n/a	-999	-1	[0, 0, 0]	n/a	catFR1	1	R1354E
130.682	21.494	130989	REC_WORD	8.521	n/a	SILK	n/a	5	-1	[0, 0, 0]	n/a	catFR1	1	R1354E
152.176	0.001	152483	REC_END	n/a	n/a	n/a	n/a	-999	-1	[0, 0, 0]	n/a	catFR1	1	R1354E
152.177	4.624	152484	PRACTICE_POST_INSTRUCT_START	n/a	n/a	n/a	n/a	-999	-1	[0, 0, 0]	n/a	catFR1	1	R1354E
156.801	0.0	157107	PRACTICE_POST_INSTRUCT_END	n/a	n/a	n/a	n/a	-999	-1	[0, 0, 0]	n/a	catFR1	1	R1354E
156.801	0.028	157107	TRIAL_END	n/a	n/a	n/a	n/a	-999	-1	[0, 0, 0]	n/a	catFR1	1	R1354E
156.829	0.001	157135	TRIAL_START	n/a	n/a	n/a	n/a	-999	1	[0, 0, 0]	n/a	catFR1	1	R1354E
156.83	0.0	157136	TRIAL	n/a	n/a	n/a	n/a	-999	1	[0, 0, 0]	n/a	catFR1	1	R1354E
156.83	4.605	157136	WAITING_START	n/a	n/a	n/a	n/a	-999	1	[0, 0, 0]	n/a	catFR1	1	R1354E
161.435	0.0	161741	WAITING_END	n/a	n/a	n/a	n/a	-999	1	[0, 0, 0]	n/a	catFR1	1	R1354E
161.435	10.0	161741	COUNTDOWN_START	n/a	n/a	n/a	n/a	-999	1	[0, 0, 0]	n/a	catFR1	1	R1354E
171.864	0.001	172170	COUNTDOWN_END	n/a	n/a	n/a	n/a	-999	1	[0, 0, 0]	n/a	catFR1	1	R1354E
171.865	1.122	172171	ORIENT_START	n/a	n/a	n/a	n/a	-999	1	[0, 0, 0]	n/a	catFR1	1	R1354E
172.987	0.0	173293	ORIENT_END	n/a	n/a	n/a	n/a	-999	1	[0, 0, 0]	n/a	catFR1	1	R1354E
172.987	0.851	173293	ENCODING_START	n/a	n/a	n/a	n/a	-999	1	[0, 0, 0]	n/a	catFR1	1	R1354E
173.838	1.6	174144	WORD	n/a	wordpools/wordpool_categorized_EN.txt	HEN	FarmAnimals	1	1	[0, 0, 0]	n/a	catFR1	1	R1354E
175.47	0.961	175776	WORD_OFF	n/a	n/a	HEN	FarmAnimals	1	1	[0, 0, 0]	n/a	catFR1	1	R1354E
176.431	1.6	176737	WORD	n/a	wordpools/wordpool_categorized_EN.txt	SHEEP	FarmAnimals	2	1	[0, 0, 0]	n/a	catFR1	1	R1354E
178.054	0.876	178360	WORD_OFF	n/a	n/a	SHEEP	FarmAnimals	2	1	[0, 0, 0]	n/a	catFR1	1	R1354E
178.93	1.6	179236	WORD	n/a	wordpools/wordpool_categorized_EN.txt	BEE	Insects	3	1	[0, 0, 0]	n/a	catFR1	1	R1354E
180.554	0.8	180860	WORD_OFF	n/a	n/a	BEE	Insects	3	1	[0, 0, 0]	n/a	catFR1	1	R1354E
181.354	1.6	181660	WORD	n/a	wordpools/wordpool_categorized_EN.txt	SPIDER	Insects	4	1	[0, 0, 0]	n/a	catFR1	1	R1354E
182.988	1.007	183293	WORD_OFF	n/a	n/a	SPIDER	Insects	4	1	[0, 0, 0]	n/a	catFR1	1	R1354E
183.995	1.6	184300	WORD	n/a	wordpools/wordpool_categorized_EN.txt	HUMIDITY	Weather	5	1	[0, 0, 0]	n/a	catFR1	1	R1354E
185.622	0.918	185927	WORD_OFF	n/a	n/a	HUMIDITY	Weather	5	1	[0, 0, 0]	n/a	catFR1	1	R1354E
186.54	1.6	186845	WORD	n/a	wordpools/wordpool_categorized_EN.txt	THUNDERSTORM	Weather	6	1	[0, 0, 0]	n/a	catFR1	1	R1354E
188.173	1.076	188478	WORD_OFF	n/a	n/a	THUNDERSTORM	Weather	6	1	[0, 0, 0]	n/a	catFR1	1	R1354E
189.249	1.6	189554	WORD	n/a	wordpools/wordpool_categorized_EN.txt	CALF	FarmAnimals	7	1	[0, 0, 0]	n/a	catFR1	1	R1354E
190.873	0.985	191178	WORD_OFF	n/a	n/a	CALF	FarmAnimals	7	1	[0, 0, 0]	n/a	catFR1	1	R1354E
191.858	1.6	192163	WORD	n/a	wordpools/wordpool_categorized_EN.txt	COW	FarmAnimals	8	1	[0, 0, 0]	n/a	catFR1	1	R1354E
193.49	0.804	193795	WORD_OFF	n/a	n/a	COW	FarmAnimals	8	1	[0, 0, 0]	n/a	catFR1	1	R1354E
194.294	1.6	194599	WORD	n/a	wordpools/wordpool_categorized_EN.txt	FLY	Insects	9	1	[0, 0, 0]	n/a	catFR1	1	R1354E
195.924	1.053	196229	WORD_OFF	n/a	n/a	FLY	Insects	9	1	[0, 0, 0]	n/a	catFR1	1	R1354E
196.977	1.6	197282	WORD	n/a	wordpools/wordpool_categorized_EN.txt	GNAT	Insects	10	1	[0, 0, 0]	n/a	catFR1	1	R1354E
198.608	1.15	198913	WORD_OFF	n/a	n/a	GNAT	Insects	10	1	[0, 0, 0]	n/a	catFR1	1	R1354E
199.758	1.6	200063	WORD	n/a	wordpools/wordpool_categorized_EN.txt	DRIZZLE	Weather	11	1	[0, 0, 0]	n/a	catFR1	1	R1354E
201.391	0.971	201696	WORD_OFF	n/a	n/a	DRIZZLE	Weather	11	1	[0, 0, 0]	n/a	catFR1	1	R1354E
202.362	1.6	202667	WORD	n/a	wordpools/wordpool_categorized_EN.txt	TORNADO	Weather	12	1	[0, 0, 0]	n/a	catFR1	1	R1354E
203.992	0.0	204297	WORD_OFF	n/a	n/a	TORNADO	Weather	12	1	[0, 0, 0]	n/a	catFR1	1	R1354E
203.992	0.001	204297	ENCODING_END	n/a	n/a	n/a	n/a	-999	1	[0, 0, 0]	n/a	catFR1	1	R1354E
203.993	0.0	204298	DISTRACT_START	n/a	n/a	n/a	n/a	-999	1	[0, 0, 0]	n/a	catFR1	1	R1354E
203.993	0.015	204298	START	n/a	n/a	n/a	n/a	-999	1	[-999, -999, -999]	n/a	catFR1	1	R1354E
204.008	3.201	204313	PROB	3.175	n/a	n/a	n/a	-999	1	[9, 1, 9]	19.0	catFR1	1	R1354E
207.209	2.5	207514	PROB	2.469	n/a	n/a	n/a	-999	1	[6, 8, 5]	19.0	catFR1	1	R1354E
209.709	1.551	210014	PROB	1.521	n/a	n/a	n/a	-999	1	[5, 4, 5]	14.0	catFR1	1	R1354E
211.26	1.5	211564	PROB	1.467	n/a	n/a	n/a	-999	1	[9, 8, 2]	19.0	catFR1	1	R1354E
212.76	1.599	213064	PROB	1.574	n/a	n/a	n/a	-999	1	[8, 8, 1]	17.0	catFR1	1	R1354E
214.359	1.718	214663	PROB	1.68	n/a	n/a	n/a	-999	1	[2, 7, 4]	13.0	catFR1	1	R1354E
216.077	2.417	216381	PROB	2.394	n/a	n/a	n/a	-999	1	[4, 9, 5]	18.0	catFR1	1	R1354E
218.494	1.484	218798	PROB	1.457	n/a	n/a	n/a	-999	1	[5, 5, 7]	17.0	catFR1	1	R1354E
219.978	1.316	220282	PROB	1.285	n/a	n/a	n/a	-999	1	[1, 2, 1]	4.0	catFR1	1	R1354E
221.294	1.384	221598	PROB	1.36	n/a	n/a	n/a	-999	1	[9, 8, 1]	8.0	catFR1	1	R1354E
222.678	1.873	222982	PROB	1.873	n/a	n/a	n/a	-999	1	[3, 7, 3]	3.0	catFR1	1	R1354E
224.551	0.011	224855	STOP	n/a	n/a	n/a	n/a	-999	1	[-999, -999, -999]	n/a	catFR1	1	R1354E
224.562	0.605	224866	DISTRACT_END	n/a	n/a	n/a	n/a	-999	1	[0, 0, 0]	n/a	catFR1	1	R1354E
225.167	1.6	225471	RETRIEVAL_ORIENT_START	n/a	n/a	n/a	n/a	-999	1	[0, 0, 0]	n/a	catFR1	1	R1354E
226.729	0.0	227033	RETRIEVAL_ORIENT_END	n/a	n/a	n/a	n/a	-999	1	[0, 0, 0]	n/a	catFR1	1	R1354E
226.729	0.63	227033	REC_START	n/a	n/a	n/a	n/a	-999	1	[0, 0, 0]	n/a	catFR1	1	R1354E
227.359	0.663	227663	REC_WORD_VV	0.63	n/a	<>	n/a	-999	1	[0, 0, 0]	n/a	catFR1	1	R1354E
228.022	0.952	228326	REC_WORD	1.293	n/a	WIRE	n/a	-999	1	[0, 0, 0]	n/a	catFR1	1	R1354E
228.974	6.475	229278	REC_WORD	2.245	n/a	GNAT	Insects	10	1	[0, 0, 0]	n/a	catFR1	1	R1354E
235.449	21.292	235753	REC_WORD	8.72	n/a	HEN	FarmAnimals	1	1	[0, 0, 0]	n/a	catFR1	1	R1354E
256.741	0.0	257044	REC_END	n/a	n/a	n/a	n/a	-999	1	[0, 0, 0]	n/a	catFR1	1	R1354E
256.741	0.026	257044	TRIAL_END	n/a	n/a	n/a	n/a	-999	1	[0, 0, 0]	n/a	catFR1	1	R1354E
256.767	0.0	257070	TRIAL_START	n/a	n/a	n/a	n/a	-999	2	[0, 0, 0]	n/a	catFR1	1	R1354E
256.767	0.0	257070	TRIAL	n/a	n/a	n/a	n/a	-999	2	[0, 0, 0]	n/a	catFR1	1	R1354E
256.767	2.718	257070	WAITING_START	n/a	n/a	n/a	n/a	-999	2	[0, 0, 0]	n/a	catFR1	1	R1354E
259.485	0.0	259788	WAITING_END	n/a	n/a	n/a	n/a	-999	2	[0, 0, 0]	n/a	catFR1	1	R1354E
259.485	10.0	259788	COUNTDOWN_START	n/a	n/a	n/a	n/a	-999	2	[0, 0, 0]	n/a	catFR1	1	R1354E
269.913	0.001	270215	COUNTDOWN_END	n/a	n/a	n/a	n/a	-999	2	[0, 0, 0]	n/a	catFR1	1	R1354E
269.914	1.156	270216	ORIENT_START	n/a	n/a	n/a	n/a	-999	2	[0, 0, 0]	n/a	catFR1	1	R1354E
271.07	0.001	271372	ORIENT_END	n/a	n/a	n/a	n/a	-999	2	[0, 0, 0]	n/a	catFR1	1	R1354E
271.071	1.078	271373	ENCODING_START	n/a	n/a	n/a	n/a	-999	2	[0, 0, 0]	n/a	catFR1	1	R1354E
272.149	1.6	272451	WORD	n/a	wordpools/wordpool_categorized_EN.txt	BATHROOM	Building	1	2	[0, 0, 0]	n/a	catFR1	1	R1354E
273.787	1.034	274089	WORD_OFF	n/a	n/a	BATHROOM	Building	1	2	[0, 0, 0]	n/a	catFR1	1	R1354E
274.821	1.6	275123	WORD	n/a	wordpools/wordpool_categorized_EN.txt	FOUNDATION	Building	2	2	[0, 0, 0]	n/a	catFR1	1	R1354E
276.454	0.905	276756	WORD_OFF	n/a	n/a	FOUNDATION	Building	2	2	[0, 0, 0]	n/a	catFR1	1	R1354E
277.359	1.6	277661	WORD	n/a	wordpools/wordpool_categorized_EN.txt	UNDERWEAR	Clothing	3	2	[0, 0, 0]	n/a	catFR1	1	R1354E
278.988	1.001	279290	WORD_OFF	n/a	n/a	UNDERWEAR	Clothing	3	2	[0, 0, 0]	n/a	catFR1	1	R1354E
279.989	1.6	280291	WORD	n/a	wordpools/wordpool_categorized_EN.txt	JEANS	Clothing	4	2	[0, 0, 0]	n/a	catFR1	1	R1354E
281.622	0.959	281924	WORD_OFF	n/a	n/a	JEANS	Clothing	4	2	[0, 0, 0]	n/a	catFR1	1	R1354E
282.581	1.6	282883	WORD	n/a	wordpools/wordpool_categorized_EN.txt	BASEBALL	Toys	5	2	[0, 0, 0]	n/a	catFR1	1	R1354E
284.206	0.79	284508	WORD_OFF	n/a	n/a	BASEBALL	Toys	5	2	[0, 0, 0]	n/a	catFR1	1	R1354E
284.996	1.6	285298	WORD	n/a	wordpools/wordpool_categorized_EN.txt	BLOCKS	Toys	6	2	[0, 0, 0]	n/a	catFR1	1	R1354E
286.623	0.938	286925	WORD_OFF	n/a	n/a	BLOCKS	Toys	6	2	[0, 0, 0]	n/a	catFR1	1	R1354E
287.561	1.6	287863	WORD	n/a	wordpools/wordpool_categorized_EN.txt	STAIRS	Building	7	2	[0, 0, 0]	n/a	catFR1	1	R1354E
289.19	0.929	289492	WORD_OFF	n/a	n/a	STAIRS	Building	7	2	[0, 0, 0]	n/a	catFR1	1	R1354E
290.119	1.6	290421	WORD	n/a	wordpools/wordpool_categorized_EN.txt	ROOM	Building	8	2	[0, 0, 0]	n/a	catFR1	1	R1354E
291.74	0.983	292042	WORD_OFF	n/a	n/a	ROOM	Building	8	2	[0, 0, 0]	n/a	catFR1	1	R1354E
292.723	1.6	293025	WORD	n/a	wordpools/wordpool_categorized_EN.txt	SHIRT	Clothing	9	2	[0, 0, 0]	n/a	catFR1	1	R1354E
294.357	0.841	294658	WORD_OFF	n/a	n/a	SHIRT	Clothing	9	2	[0, 0, 0]	n/a	catFR1	1	R1354E
295.198	1.6	295499	WORD	n/a	wordpools/wordpool_categorized_EN.txt	SOCKS	Clothing	10	2	[0, 0, 0]	n/a	catFR1	1	R1354E
296.825	1.088	297126	WORD_OFF	n/a	n/a	SOCKS	Clothing	10	2	[0, 0, 0]	n/a	catFR1	1	R1354E
297.913	1.6	298214	WORD	n/a	wordpools/wordpool_categorized_EN.txt	FRISBEE	Toys	11	2	[0, 0, 0]	n/a	catFR1	1	R1354E
299.542	1.105	299843	WORD_OFF	n/a	n/a	FRISBEE	Toys	11	2	[0, 0, 0]	n/a	catFR1	1	R1354E
300.647	1.6	300948	WORD	n/a	wordpools/wordpool_categorized_EN.txt	SLINKY	Toys	12	2	[0, 0, 0]	n/a	catFR1	1	R1354E
302.276	0.0	302577	WORD_OFF	n/a	n/a	SLINKY	Toys	12	2	[0, 0, 0]	n/a	catFR1	1	R1354E
302.276	0.0	302577	ENCODING_END	n/a	n/a	n/a	n/a	-999	2	[0, 0, 0]	n/a	catFR1	1	R1354E
302.276	0.0	302577	DISTRACT_START	n/a	n/a	n/a	n/a	-999	2	[0, 0, 0]	n/a	catFR1	1	R1354E
302.276	0.015	302577	START	n/a	n/a	n/a	n/a	-999	2	[-999, -999, -999]	n/a	catFR1	1	R1354E
302.291	3.768	302592	PROB	3.741	n/a	n/a	n/a	-999	2	[6, 3, 4]	13.0	catFR1	1	R1354E
306.059	3.351	306360	PROB	3.316	n/a	n/a	n/a	-999	2	[5, 7, 3]	15.0	catFR1	1	R1354E
309.41	2.784	309711	PROB	2.758	n/a	n/a	n/a	-999	2	[4, 1, 6]	11.0	catFR1	1	R1354E
312.194	2.5	312495	PROB	2.47	n/a	n/a	n/a	-999	2	[6, 8, 5]	19.0	catFR1	1	R1354E
314.694	2.184	314995	PROB	2.154	n/a	n/a	n/a	-999	2	[3, 7, 6]	16.0	catFR1	1	R1354E
316.878	1.917	317179	PROB	1.881	n/a	n/a	n/a	-999	2	[3, 9, 8]	20.0	catFR1	1	R1354E
318.795	7.431	319096	PROB	7.431	n/a	n/a	n/a	-999	2	[9, 8, 8]	25.0	catFR1	1	R1354E
326.226	0.02	326526	STOP	n/a	n/a	n/a	n/a	-999	2	[-999, -999, -999]	n/a	catFR1	1	R1354E
326.246	0.701	326546	DISTRACT_END	n/a	n/a	n/a	n/a	-999	2	[0, 0, 0]	n/a	catFR1	1	R1354E
326.947	1.6	327247	RETRIEVAL_ORIENT_START	n/a	n/a	n/a	n/a	-999	2	[0, 0, 0]	n/a	catFR1	1	R1354E
328.497	0.0	328797	RETRIEVAL_ORIENT_END	n/a	n/a	n/a	n/a	-999	2	[0, 0, 0]	n/a	catFR1	1	R1354E
328.497	6.319	328797	REC_START	n/a	n/a	n/a	n/a	-999	2	[0, 0, 0]	n/a	catFR1	1	R1354E
334.816	0.681	335116	REC_WORD	6.319	n/a	BATHROOM	Building	1	2	[0, 0, 0]	n/a	catFR1	1	R1354E
335.497	0.858	335797	REC_WORD	7.0	n/a	FOUNDATION	Building	2	2	[0, 0, 0]	n/a	catFR1	1	R1354E
336.355	0.767	336655	REC_WORD	7.858	n/a	UNDERWEAR	Clothing	3	2	[0, 0, 0]	n/a	catFR1	1	R1354E
337.122	12.989	337422	REC_WORD	8.625	n/a	JEANS	Clothing	4	2	[0, 0, 0]	n/a	catFR1	1	R1354E
350.111	4.625	350411	REC_WORD	21.614	n/a	DENIM	n/a	-999	2	[0, 0, 0]	n/a	catFR1	1	R1354E
354.736	3.773	355035	REC_WORD	26.239	n/a	BATHROOM	Building	1	2	[0, 0, 0]	n/a	catFR1	1	R1354E
358.509	0.0	358808	REC_END	n/a	n/a	n/a	n/a	-999	2	[0, 0, 0]	n/a	catFR1	1	R1354E
358.509	0.026	358808	TRIAL_END	n/a	n/a	n/a	n/a	-999	2	[0, 0, 0]	n/a	catFR1	1	R1354E
358.535	0.0	358834	TRIAL_START	n/a	n/a	n/a	n/a	-999	3	[0, 0, 0]	n/a	catFR1	1	R1354E
358.535	0.0	358834	TRIAL	n/a	n/a	n/a	n/a	-999	3	[0, 0, 0]	n/a	catFR1	1	R1354E
358.535	2.267	358834	WAITING_START	n/a	n/a	n/a	n/a	-999	3	[0, 0, 0]	n/a	catFR1	1	R1354E
360.802	0.001	361101	WAITING_END	n/a	n/a	n/a	n/a	-999	3	[0, 0, 0]	n/a	catFR1	1	R1354E
360.803	10.0	361102	COUNTDOWN_START	n/a	n/a	n/a	n/a	-999	3	[0, 0, 0]	n/a	catFR1	1	R1354E
371.231	0.001	371530	COUNTDOWN_END	n/a	n/a	n/a	n/a	-999	3	[0, 0, 0]	n/a	catFR1	1	R1354E
371.232	1.139	371531	ORIENT_START	n/a	n/a	n/a	n/a	-999	3	[0, 0, 0]	n/a	catFR1	1	R1354E
372.371	0.0	372670	ORIENT_END	n/a	n/a	n/a	n/a	-999	3	[0, 0, 0]	n/a	catFR1	1	R1354E
372.371	1.0	372670	ENCODING_START	n/a	n/a	n/a	n/a	-999	3	[0, 0, 0]	n/a	catFR1	1	R1354E
373.371	1.6	373670	WORD	n/a	wordpools/wordpool_categorized_EN.txt	ORCHID	Flowers	1	3	[0, 0, 0]	n/a	catFR1	1	R1354E
375.005	1.091	375304	WORD_OFF	n/a	n/a	ORCHID	Flowers	1	3	[0, 0, 0]	n/a	catFR1	1	R1354E
376.096	1.6	376395	WORD	n/a	wordpools/wordpool_categorized_EN.txt	TULIP	Flowers	2	3	[0, 0, 0]	n/a	catFR1	1	R1354E
377.722	0.939	378021	WORD_OFF	n/a	n/a	TULIP	Flowers	2	3	[0, 0, 0]	n/a	catFR1	1	R1354E
378.661	1.6	378960	WORD	n/a	wordpools/wordpool_categorized_EN.txt	ANT	Insects	3	3	[0, 0, 0]	n/a	catFR1	1	R1354E
380.289	1.093	380587	WORD_OFF	n/a	n/a	ANT	Insects	3	3	[0, 0, 0]	n/a	catFR1	1	R1354E
381.382	1.6	381680	WORD	n/a	wordpools/wordpool_categorized_EN.txt	MOTH	Insects	4	3	[0, 0, 0]	n/a	catFR1	1	R1354E
383.006	0.849	383304	WORD_OFF	n/a	n/a	MOTH	Insects	4	3	[0, 0, 0]	n/a	catFR1	1	R1354E
383.855	1.6	384153	WORD	n/a	wordpools/wordpool_categorized_EN.txt	ELM	Trees	5	3	[0, 0, 0]	n/a	catFR1	1	R1354E
385.49	0.759	385788	WORD_OFF	n/a	n/a	ELM	Trees	5	3	[0, 0, 0]	n/a	catFR1	1	R1354E
386.249	1.6	386547	WORD	n/a	wordpools/wordpool_categorized_EN.txt	HICKORY	Trees	6	3	[0, 0, 0]	n/a	catFR1	1	R1354E
387.874	0.986	388172	WORD_OFF	n/a	n/a	HICKORY	Trees	6	3	[0, 0, 0]	n/a	catFR1	1	R1354E
388.86	1.6	389158	WORD	n/a	wordpools/wordpool_categorized_EN.txt	DAISY	Flowers	7	3	[0, 0, 0]	n/a	catFR1	1	R1354E
390.491	0.823	390789	WORD_OFF	n/a	n/a	DAISY	Flowers	7	3	[0, 0, 0]	n/a	catFR1	1	R1354E
391.314	1.6	391612	WORD	n/a	wordpools/wordpool_categorized_EN.txt	MARIGOLD	Flowers	8	3	[0, 0, 0]	n/a	catFR1	1	R1354E
392.924	0.984	393222	WORD_OFF	n/a	n/a	MARIGOLD	Flowers	8	3	[0, 0, 0]	n/a	catFR1	1	R1354E
393.908	1.6	394206	WORD	n/a	wordpools/wordpool_categorized_EN.txt	OAK	Trees	9	3	[0, 0, 0]	n/a	catFR1	1	R1354E
395.542	0.951	395840	WORD_OFF	n/a	n/a	OAK	Trees	9	3	[0, 0, 0]	n/a	catFR1	1	R1354E
396.493	1.6	396791	WORD	n/a	wordpools/wordpool_categorized_EN.txt	WALNUT	Trees	10	3	[0, 0, 0]	n/a	catFR1	1	R1354E
398.126	0.95	398424	WORD_OFF	n/a	n/a	WALNUT	Trees	10	3	[0, 0, 0]	n/a	catFR1	1	R1354E
399.076	1.6	399374	WORD	n/a	wordpools/wordpool_categorized_EN.txt	ROACH	Insects	11	3	[0, 0, 0]	n/a	catFR1	1	R1354E
400.709	0.997	401007	WORD_OFF	n/a	n/a	ROACH	Insects	11	3	[0, 0, 0]	n/a	catFR1	1	R1354E
401.706	1.6	402004	WORD	n/a	wordpools/wordpool_categorized_EN.txt	CRICKET	Insects	12	3	[0, 0, 0]	n/a	catFR1	1	R1354E
403.342	0.001	403640	WORD_OFF	n/a	n/a	CRICKET	Insects	12	3	[0, 0, 0]	n/a	catFR1	1	R1354E
403.343	0.0	403641	ENCODING_END	n/a	n/a	n/a	n/a	-999	3	[0, 0, 0]	n/a	catFR1	1	R1354E
403.343	0.0	403641	DISTRACT_START	n/a	n/a	n/a	n/a	-999	3	[0, 0, 0]	n/a	catFR1	1	R1354E
403.343	0.016	403641	START	n/a	n/a	n/a	n/a	-999	3	[-999, -999, -999]	n/a	catFR1	1	R1354E
403.359	3.984	403657	PROB	3.952	n/a	n/a	n/a	-999	3	[2, 2, 8]	12.0	catFR1	1	R1354E
407.343	4.218	407640	PROB	4.191	n/a	n/a	n/a	-999	3	[6, 7, 2]	15.0	catFR1	1	R1354E
411.561	1.817	411858	PROB	1.779	n/a	n/a	n/a	-999	3	[7, 9, 1]	17.0	catFR1	1	R1354E
413.378	1.75	413675	PROB	1.715	n/a	n/a	n/a	-999	3	[1, 5, 7]	13.0	catFR1	1	R1354E
415.128	1.634	415425	PROB	1.598	n/a	n/a	n/a	-999	3	[2, 2, 5]	9.0	catFR1	1	R1354E
416.762	1.767	417059	PROB	1.731	n/a	n/a	n/a	-999	3	[1, 4, 2]	7.0	catFR1	1	R1354E
418.529	3.134	418826	PROB	3.099	n/a	n/a	n/a	-999	3	[1, 6, 3]	10.0	catFR1	1	R1354E
421.663	1.701	421960	PROB	1.701	n/a	n/a	n/a	-999	3	[5, 5, 4]	14.0	catFR1	1	R1354E
423.364	0.016	423661	STOP	n/a	n/a	n/a	n/a	-999	3	[-999, -999, -999]	n/a	catFR1	1	R1354E
423.38	0.534	423677	DISTRACT_END	n/a	n/a	n/a	n/a	-999	3	[0, 0, 0]	n/a	catFR1	1	R1354E
423.914	1.6	424211	RETRIEVAL_ORIENT_START	n/a	n/a	n/a	n/a	-999	3	[0, 0, 0]	n/a	catFR1	1	R1354E
425.614	0.0	425911	RETRIEVAL_ORIENT_END	n/a	n/a	n/a	n/a	-999	3	[0, 0, 0]	n/a	catFR1	1	R1354E
425.614	0.132	425911	REC_START	n/a	n/a	n/a	n/a	-999	3	[0, 0, 0]	n/a	catFR1	1	R1354E
425.746	0.956	426043	REC_WORD	0.132	n/a	ORCHID	Flowers	1	3	[0, 0, 0]	n/a	catFR1	1	R1354E
426.702	0.887	426999	REC_WORD	1.088	n/a	TULIP	Flowers	2	3	[0, 0, 0]	n/a	catFR1	1	R1354E
427.589	4.078	427886	REC_WORD	1.975	n/a	MIST	n/a	-999	3	[0, 0, 0]	n/a	catFR1	1	R1354E
431.667	23.958	431964	REC_WORD	6.053	n/a	LILY	n/a	-999	3	[0, 0, 0]	n/a	catFR1	1	R1354E
455.625	0.0	455921	REC_END	n/a	n/a	n/a	n/a	-999	3	[0, 0, 0]	n/a	catFR1	1	R1354E
455.625	0.026	455921	TRIAL_END	n/a	n/a	n/a	n/a	-999	3	[0, 0, 0]	n/a	catFR1	1	R1354E
455.651	0.0	455947	TRIAL_START	n/a	n/a	n/a	n/a	-999	4	[0, 0, 0]	n/a	catFR1	1	R1354E
455.651	0.001	455947	TRIAL	n/a	n/a	n/a	n/a	-999	4	[0, 0, 0]	n/a	catFR1	1	R1354E
455.652	14.503	455948	WAITING_START	n/a	n/a	n/a	n/a	-999	4	[0, 0, 0]	n/a	catFR1	1	R1354E
470.155	0.0	470450	WAITING_END	n/a	n/a	n/a	n/a	-999	4	[0, 0, 0]	n/a	catFR1	1	R1354E
470.155	10.0	470450	COUNTDOWN_START	n/a	n/a	n/a	n/a	-999	4	[0, 0, 0]	n/a	catFR1	1	R1354E
480.584	0.0	480879	COUNTDOWN_END	n/a	n/a	n/a	n/a	-999	4	[0, 0, 0]	n/a	catFR1	1	R1354E
480.584	1.239	480879	ORIENT_START	n/a	n/a	n/a	n/a	-999	4	[0, 0, 0]	n/a	catFR1	1	R1354E
481.823	0.001	482118	ORIENT_END	n/a	n/a	n/a	n/a	-999	4	[0, 0, 0]	n/a	catFR1	1	R1354E
481.824	0.763	482119	ENCODING_START	n/a	n/a	n/a	n/a	-999	4	[0, 0, 0]	n/a	catFR1	1	R1354E
482.587	1.6	482882	WORD	n/a	wordpools/wordpool_categorized_EN.txt	FOOT	BodyParts	1	4	[0, 0, 0]	n/a	catFR1	1	R1354E
484.224	0.949	484519	WORD_OFF	n/a	n/a	FOOT	BodyParts	1	4	[0, 0, 0]	n/a	catFR1	1	R1354E
485.173	1.6	485468	WORD	n/a	wordpools/wordpool_categorized_EN.txt	HAND	BodyParts	2	4	[0, 0, 0]	n/a	catFR1	1	R1354E
486.808	0.947	487103	WORD_OFF	n/a	n/a	HAND	BodyParts	2	4	[0, 0, 0]	n/a	catFR1	1	R1354E
487.755	1.6	488050	WORD	n/a	wordpools/wordpool_categorized_EN.txt	PIANO	Instruments	3	4	[0, 0, 0]	n/a	catFR1	1	R1354E
489.391	0.956	489686	WORD_OFF	n/a	n/a	PIANO	Instruments	3	4	[0, 0, 0]	n/a	catFR1	1	R1354E
490.347	1.6	490642	WORD	n/a	wordpools/wordpool_categorized_EN.txt	DRUM	Instruments	4	4	[0, 0, 0]	n/a	catFR1	1	R1354E
491.975	0.973	492269	WORD_OFF	n/a	n/a	DRUM	Instruments	4	4	[0, 0, 0]	n/a	catFR1	1	R1354E
492.948	1.6	493242	WORD	n/a	wordpools/wordpool_categorized_EN.txt	SPINACH	Vegetables	5	4	[0, 0, 0]	n/a	catFR1	1	R1354E
494.576	0.834	494870	WORD_OFF	n/a	n/a	SPINACH	Vegetables	5	4	[0, 0, 0]	n/a	catFR1	1	R1354E
495.41	1.6	495704	WORD	n/a	wordpools/wordpool_categorized_EN.txt	ONION	Vegetables	6	4	[0, 0, 0]	n/a	catFR1	1	R1354E
497.043	1.113	497337	WORD_OFF	n/a	n/a	ONION	Vegetables	6	4	[0, 0, 0]	n/a	catFR1	1	R1354E
498.156	1.6	498450	WORD	n/a	wordpools/wordpool_categorized_EN.txt	EYE	BodyParts	7	4	[0, 0, 0]	n/a	catFR1	1	R1354E
499.777	0.911	500071	WORD_OFF	n/a	n/a	EYE	BodyParts	7	4	[0, 0, 0]	n/a	catFR1	1	R1354E
500.688	1.6	500982	WORD	n/a	wordpools/wordpool_categorized_EN.txt	LEG	BodyParts	8	4	[0, 0, 0]	n/a	catFR1	1	R1354E
502.309	0.971	502603	WORD_OFF	n/a	n/a	LEG	BodyParts	8	4	[0, 0, 0]	n/a	catFR1	1	R1354E
503.28	1.6	503574	WORD	n/a	wordpools/wordpool_categorized_EN.txt	CELERY	Vegetables	9	4	[0, 0, 0]	n/a	catFR1	1	R1354E
504.911	0.776	505205	WORD_OFF	n/a	n/a	CELERY	Vegetables	9	4	[0, 0, 0]	n/a	catFR1	1	R1354E
505.687	1.6	505981	WORD	n/a	wordpools/wordpool_categorized_EN.txt	CABBAGE	Vegetables	10	4	[0, 0, 0]	n/a	catFR1	1	R1354E
507.31	0.928	507604	WORD_OFF	n/a	n/a	CABBAGE	Vegetables	10	4	[0, 0, 0]	n/a	catFR1	1	R1354E
508.238	1.6	508532	WORD	n/a	wordpools/wordpool_categorized_EN.txt	CELLO	Instruments	11	4	[0, 0, 0]	n/a	catFR1	1	R1354E
509.862	1.004	510156	WORD_OFF	n/a	n/a	CELLO	Instruments	11	4	[0, 0, 0]	n/a	catFR1	1	R1354E
510.866	1.6	511160	WORD	n/a	wordpools/wordpool_categorized_EN.txt	VIOLIN	Instruments	12	4	[0, 0, 0]	n/a	catFR1	1	R1354E
512.496	0.0	512790	WORD_OFF	n/a	n/a	VIOLIN	Instruments	12	4	[0, 0, 0]	n/a	catFR1	1	R1354E
512.496	0.0	512790	ENCODING_END	n/a	n/a	n/a	n/a	-999	4	[0, 0, 0]	n/a	catFR1	1	R1354E
512.496	0.0	512790	DISTRACT_START	n/a	n/a	n/a	n/a	-999	4	[0, 0, 0]	n/a	catFR1	1	R1354E
512.496	0.016	512790	START	n/a	n/a	n/a	n/a	-999	4	[-999, -999, -999]	n/a	catFR1	1	R1354E
512.512	2.367	512806	PROB	2.329	n/a	n/a	n/a	-999	4	[9, 7, 7]	23.0	catFR1	1	R1354E
514.879	2.684	515173	PROB	2.658	n/a	n/a	n/a	-999	4	[6, 6, 9]	21.0	catFR1	1	R1354E
517.563	2.217	517857	PROB	2.181	n/a	n/a	n/a	-999	4	[3, 9, 5]	17.0	catFR1	1	R1354E
519.78	1.532	520073	PROB	1.5	n/a	n/a	n/a	-999	4	[7, 7, 1]	15.0	catFR1	1	R1354E
521.312	2.569	521605	PROB	2.545	n/a	n/a	n/a	-999	4	[7, 8, 8]	23.0	catFR1	1	R1354E
523.881	2.55	524174	PROB	2.52	n/a	n/a	n/a	-999	4	[7, 7, 3]	17.0	catFR1	1	R1354E
526.431	1.6	526724	PROB	1.577	n/a	n/a	n/a	-999	4	[9, 7, 7]	23.0	catFR1	1	R1354E
528.031	2.484	528324	PROB	2.45	n/a	n/a	n/a	-999	4	[5, 9, 8]	22.0	catFR1	1	R1354E
530.515	1.45	530808	PROB	1.422	n/a	n/a	n/a	-999	4	[1, 9, 3]	13.0	catFR1	1	R1354E
531.965	1.956	532258	PROB	1.956	n/a	n/a	n/a	-999	4	[7, 2, 8]	17.0	catFR1	1	R1354E
533.921	0.012	534214	STOP	n/a	n/a	n/a	n/a	-999	4	[-999, -999, -999]	n/a	catFR1	1	R1354E
533.933	0.567	534226	DISTRACT_END	n/a	n/a	n/a	n/a	-999	4	[0, 0, 0]	n/a	catFR1	1	R1354E
534.5	1.6	534793	RETRIEVAL_ORIENT_START	n/a	n/a	n/a	n/a	-999	4	[0, 0, 0]	n/a	catFR1	1	R1354E
536.133	0.0	536426	RETRIEVAL_ORIENT_END	n/a	n/a	n/a	n/a	-999	4	[0, 0, 0]	n/a	catFR1	1	R1354E
536.133	0.144	536426	REC_START	n/a	n/a	n/a	n/a	-999	4	[0, 0, 0]	n/a	catFR1	1	R1354E
536.277	0.485	536570	REC_WORD	0.144	n/a	CELLO	Instruments	11	4	[0, 0, 0]	n/a	catFR1	1	R1354E
536.762	0.883	537055	REC_WORD	0.629	n/a	VIOLIN	Instruments	12	4	[0, 0, 0]	n/a	catFR1	1	R1354E
537.645	0.601	537938	REC_WORD	1.512	n/a	HAND	BodyParts	2	4	[0, 0, 0]	n/a	catFR1	1	R1354E
538.246	1.14	538539	REC_WORD	2.113	n/a	FOOT	BodyParts	1	4	[0, 0, 0]	n/a	catFR1	1	R1354E
539.386	0.777	539679	REC_WORD	3.253	n/a	EYE	BodyParts	7	4	[0, 0, 0]	n/a	catFR1	1	R1354E
540.163	0.724	540456	REC_WORD	4.03	n/a	CABBAGE	Vegetables	10	4	[0, 0, 0]	n/a	catFR1	1	R1354E
540.887	5.697	541180	REC_WORD	4.754	n/a	SPINACH	Vegetables	5	4	[0, 0, 0]	n/a	catFR1	1	R1354E
546.584	1.0	546877	REC_WORD	10.451	n/a	DRUM	Instruments	4	4	[0, 0, 0]	n/a	catFR1	1	R1354E
547.584	18.561	547877	REC_WORD_VV	11.451	n/a	<>	n/a	-999	4	[0, 0, 0]	n/a	catFR1	1	R1354E
566.145	0.001	566437	REC_END	n/a	n/a	n/a	n/a	-999	4	[0, 0, 0]	n/a	catFR1	1	R1354E
566.146	0.025	566438	TRIAL_END	n/a	n/a	n/a	n/a	-999	4	[0, 0, 0]	n/a	catFR1	1	R1354E
566.171	0.0	566463	TRIAL_START	n/a	n/a	n/a	n/a	-999	5	[0, 0, 0]	n/a	catFR1	1	R1354E
566.171	0.001	566463	TRIAL	n/a	n/a	n/a	n/a	-999	5	[0, 0, 0]	n/a	catFR1	1	R1354E
566.172	8.801	566464	WAITING_START	n/a	n/a	n/a	n/a	-999	5	[0, 0, 0]	n/a	catFR1	1	R1354E
574.973	0.0	575265	WAITING_END	n/a	n/a	n/a	n/a	-999	5	[0, 0, 0]	n/a	catFR1	1	R1354E
574.973	10.0	575265	COUNTDOWN_START	n/a	n/a	n/a	n/a	-999	5	[0, 0, 0]	n/a	catFR1	1	R1354E
585.403	0.0	585694	COUNTDOWN_END	n/a	n/a	n/a	n/a	-999	5	[0, 0, 0]	n/a	catFR1	1	R1354E
585.403	1.222	585694	ORIENT_START	n/a	n/a	n/a	n/a	-999	5	[0, 0, 0]	n/a	catFR1	1	R1354E
586.625	0.0	586916	ORIENT_END	n/a	n/a	n/a	n/a	-999	5	[0, 0, 0]	n/a	catFR1	1	R1354E
586.625	0.937	586916	ENCODING_START	n/a	n/a	n/a	n/a	-999	5	[0, 0, 0]	n/a	catFR1	1	R1354E
587.562	1.6	587853	WORD	n/a	wordpools/wordpool_categorized_EN.txt	PEN	OfficeSupplies	1	5	[0, 0, 0]	n/a	catFR1	1	R1354E
589.192	0.857	589483	WORD_OFF	n/a	n/a	PEN	OfficeSupplies	1	5	[0, 0, 0]	n/a	catFR1	1	R1354E
590.049	1.6	590340	WORD	n/a	wordpools/wordpool_categorized_EN.txt	FOLDER	OfficeSupplies	2	5	[0, 0, 0]	n/a	catFR1	1	R1354E
591.676	0.801	591967	WORD_OFF	n/a	n/a	FOLDER	OfficeSupplies	2	5	[0, 0, 0]	n/a	catFR1	1	R1354E
592.477	1.6	592768	WORD	n/a	wordpools/wordpool_categorized_EN.txt	MARBLES	Toys	3	5	[0, 0, 0]	n/a	catFR1	1	R1354E
594.11	1.065	594401	WORD_OFF	n/a	n/a	MARBLES	Toys	3	5	[0, 0, 0]	n/a	catFR1	1	R1354E
595.175	1.6	595466	WORD	n/a	wordpools/wordpool_categorized_EN.txt	DOLLHOUSE	Toys	4	5	[0, 0, 0]	n/a	catFR1	1	R1354E
596.81	0.769	597101	WORD_OFF	n/a	n/a	DOLLHOUSE	Toys	4	5	[0, 0, 0]	n/a	catFR1	1	R1354E
597.579	1.6	597870	WORD	n/a	wordpools/wordpool_categorized_EN.txt	FOG	Weather	5	5	[0, 0, 0]	n/a	catFR1	1	R1354E
599.211	0.982	599502	WORD_OFF	n/a	n/a	FOG	Weather	5	5	[0, 0, 0]	n/a	catFR1	1	R1354E
600.193	1.6	600484	WORD	n/a	wordpools/wordpool_categorized_EN.txt	SNOW	Weather	6	5	[0, 0, 0]	n/a	catFR1	1	R1354E
601.828	0.968	602119	WORD_OFF	n/a	n/a	SNOW	Weather	6	5	[0, 0, 0]	n/a	catFR1	1	R1354E
602.796	1.6	603087	WORD	n/a	wordpools/wordpool_categorized_EN.txt	PUZZLE	Toys	7	5	[0, 0, 0]	n/a	catFR1	1	R1354E
604.428	0.997	604718	WORD_OFF	n/a	n/a	PUZZLE	Toys	7	5	[0, 0, 0]	n/a	catFR1	1	R1354E
605.425	1.6	605715	WORD	n/a	wordpools/wordpool_categorized_EN.txt	BALL	Toys	8	5	[0, 0, 0]	n/a	catFR1	1	R1354E
607.062	0.92	607352	WORD_OFF	n/a	n/a	BALL	Toys	8	5	[0, 0, 0]	n/a	catFR1	1	R1354E
607.982	1.6	608272	WORD	n/a	wordpools/wordpool_categorized_EN.txt	PAPER	OfficeSupplies	9	5	[0, 0, 0]	n/a	catFR1	1	R1354E
609.612	1.14	609902	WORD_OFF	n/a	n/a	PAPER	OfficeSupplies	9	5	[0, 0, 0]	n/a	catFR1	1	R1354E
610.752	1.6	611042	WORD	n/a	wordpools/wordpool_categorized_EN.txt	MARKER	OfficeSupplies	10	5	[0, 0, 0]	n/a	catFR1	1	R1354E
612.38	0.758	612670	WORD_OFF	n/a	n/a	MARKER	OfficeSupplies	10	5	[0, 0, 0]	n/a	catFR1	1	R1354E
613.138	1.6	613428	WORD	n/a	wordpools/wordpool_categorized_EN.txt	WIND	Weather	11	5	[0, 0, 0]	n/a	catFR1	1	R1354E
614.763	0.757	615053	WORD_OFF	n/a	n/a	WIND	Weather	11	5	[0, 0, 0]	n/a	catFR1	1	R1354E
615.52	1.6	615810	WORD	n/a	wordpools/wordpool_categorized_EN.txt	THUNDER	Weather	12	5	[0, 0, 0]	n/a	catFR1	1	R1354E
617.147	0.0	617437	WORD_OFF	n/a	n/a	THUNDER	Weather	12	5	[0, 0, 0]	n/a	catFR1	1	R1354E
617.147	0.001	617437	ENCODING_END	n/a	n/a	n/a	n/a	-999	5	[0, 0, 0]	n/a	catFR1	1	R1354E
617.148	0.0	617438	DISTRACT_START	n/a	n/a	n/a	n/a	-999	5	[0, 0, 0]	n/a	catFR1	1	R1354E
617.148	0.015	617438	START	n/a	n/a	n/a	n/a	-999	5	[-999, -999, -999]	n/a	catFR1	1	R1354E
617.163	1.934	617453	PROB	1.911	n/a	n/a	n/a	-999	5	[9, 8, 1]	18.0	catFR1	1	R1354E
619.097	2.301	619387	PROB	2.265	n/a	n/a	n/a	-999	5	[3, 9, 7]	19.0	catFR1	1	R1354E
621.398	1.383	621688	PROB	1.348	n/a	n/a	n/a	-999	5	[3, 5, 3]	11.0	catFR1	1	R1354E
622.781	1.834	623071	PROB	1.805	n/a	n/a	n/a	-999	5	[7, 1, 8]	16.0	catFR1	1	R1354E
624.615	1.433	624905	PROB	1.396	n/a	n/a	n/a	-999	5	[2, 4, 6]	12.0	catFR1	1	R1354E
626.048	1.667	626338	PROB	1.643	n/a	n/a	n/a	-999	5	[9, 2, 9]	20.0	catFR1	1	R1354E
627.715	1.167	628005	PROB	1.144	n/a	n/a	n/a	-999	5	[5, 1, 5]	11.0	catFR1	1	R1354E
628.882	1.7	629172	PROB	1.665	n/a	n/a	n/a	-999	5	[4, 4, 5]	13.0	catFR1	1	R1354E
630.582	1.517	630872	PROB	1.493	n/a	n/a	n/a	-999	5	[7, 3, 3]	13.0	catFR1	1	R1354E
632.099	2.25	632388	PROB	2.214	n/a	n/a	n/a	-999	5	[1, 7, 5]	13.0	catFR1	1	R1354E
634.349	1.484	634638	PROB	1.462	n/a	n/a	n/a	-999	5	[7, 1, 4]	13.0	catFR1	1	R1354E
635.833	2.185	636122	PROB	2.185	n/a	n/a	n/a	-999	5	[6, 3, 3]	12.0	catFR1	1	R1354E
638.018	0.016	638307	STOP	n/a	n/a	n/a	n/a	-999	5	[-999, -999, -999]	n/a	catFR1	1	R1354E
638.034	0.688	638323	DISTRACT_END	n/a	n/a	n/a	n/a	-999	5	[0, 0, 0]	n/a	catFR1	1	R1354E
638.722	1.6	639011	RETRIEVAL_ORIENT_START	n/a	n/a	n/a	n/a	-999	5	[0, 0, 0]	n/a	catFR1	1	R1354E
640.317	0.0	640606	RETRIEVAL_ORIENT_END	n/a	n/a	n/a	n/a	-999	5	[0, 0, 0]	n/a	catFR1	1	R1354E
640.317	0.168	640606	REC_START	n/a	n/a	n/a	n/a	-999	5	[0, 0, 0]	n/a	catFR1	1	R1354E
640.485	0.653	640774	REC_WORD	0.168	n/a	FOG	Weather	5	5	[0, 0, 0]	n/a	catFR1	1	R1354E
641.138	2.204	641427	REC_WORD	0.821	n/a	THUNDER	Weather	12	5	[0, 0, 0]	n/a	catFR1	1	R1354E
643.342	0.825	643631	REC_WORD	3.025	n/a	PAPER	OfficeSupplies	9	5	[0, 0, 0]	n/a	catFR1	1	R1354E
644.167	4.625	644456	REC_WORD	3.85	n/a	BALL	Toys	8	5	[0, 0, 0]	n/a	catFR1	1	R1354E
648.792	21.536	649081	REC_WORD	8.475	n/a	DOLLHOUSE	Toys	4	5	[0, 0, 0]	n/a	catFR1	1	R1354E
670.328	0.0	670616	REC_END	n/a	n/a	n/a	n/a	-999	5	[0, 0, 0]	n/a	catFR1	1	R1354E
670.328	0.026	670616	TRIAL_END	n/a	n/a	n/a	n/a	-999	5	[0, 0, 0]	n/a	catFR1	1	R1354E
670.354	0.0	670642	TRIAL_START	n/a	n/a	n/a	n/a	-999	6	[0, 0, 0]	n/a	catFR1	1	R1354E
670.354	0.0	670642	TRIAL	n/a	n/a	n/a	n/a	-999	6	[0, 0, 0]	n/a	catFR1	1	R1354E
670.354	2.553	670642	WAITING_START	n/a	n/a	n/a	n/a	-999	6	[0, 0, 0]	n/a	catFR1	1	R1354E
672.907	0.0	673195	WAITING_END	n/a	n/a	n/a	n/a	-999	6	[0, 0, 0]	n/a	catFR1	1	R1354E
672.907	10.0	673195	COUNTDOWN_START	n/a	n/a	n/a	n/a	-999	6	[0, 0, 0]	n/a	catFR1	1	R1354E
683.336	0.0	683624	COUNTDOWN_END	n/a	n/a	n/a	n/a	-999	6	[0, 0, 0]	n/a	catFR1	1	R1354E
683.336	1.173	683624	ORIENT_START	n/a	n/a	n/a	n/a	-999	6	[0, 0, 0]	n/a	catFR1	1	R1354E
684.509	0.0	684797	ORIENT_END	n/a	n/a	n/a	n/a	-999	6	[0, 0, 0]	n/a	catFR1	1	R1354E
684.509	1.046	684797	ENCODING_START	n/a	n/a	n/a	n/a	-999	6	[0, 0, 0]	n/a	catFR1	1	R1354E
685.555	1.6	685843	WORD	n/a	wordpools/wordpool_categorized_EN.txt	SHORTS	Clothing	1	6	[0, 0, 0]	n/a	catFR1	1	R1354E
687.193	1.046	687481	WORD_OFF	n/a	n/a	SHORTS	Clothing	1	6	[0, 0, 0]	n/a	catFR1	1	R1354E
688.239	1.6	688527	WORD	n/a	wordpools/wordpool_categorized_EN.txt	BLOUSE	Clothing	2	6	[0, 0, 0]	n/a	catFR1	1	R1354E
689.876	1.144	690163	WORD_OFF	n/a	n/a	BLOUSE	Clothing	2	6	[0, 0, 0]	n/a	catFR1	1	R1354E
691.02	1.6	691307	WORD	n/a	wordpools/wordpool_categorized_EN.txt	SHOVEL	Tools	3	6	[0, 0, 0]	n/a	catFR1	1	R1354E
692.643	0.88	692930	WORD_OFF	n/a	n/a	SHOVEL	Tools	3	6	[0, 0, 0]	n/a	catFR1	1	R1354E
693.523	1.6	693810	WORD	n/a	wordpools/wordpool_categorized_EN.txt	SANDER	Tools	4	6	[0, 0, 0]	n/a	catFR1	1	R1354E
695.161	0.992	695448	WORD_OFF	n/a	n/a	SANDER	Tools	4	6	[0, 0, 0]	n/a	catFR1	1	R1354E
696.153	1.6	696440	WORD	n/a	wordpools/wordpool_categorized_EN.txt	ORANGUTAN	Zoo	5	6	[0, 0, 0]	n/a	catFR1	1	R1354E
697.778	0.981	698065	WORD_OFF	n/a	n/a	ORANGUTAN	Zoo	5	6	[0, 0, 0]	n/a	catFR1	1	R1354E
698.759	1.6	699046	WORD	n/a	wordpools/wordpool_categorized_EN.txt	CHEETAH	Zoo	6	6	[0, 0, 0]	n/a	catFR1	1	R1354E
700.395	0.919	700682	WORD_OFF	n/a	n/a	CHEETAH	Zoo	6	6	[0, 0, 0]	n/a	catFR1	1	R1354E
701.314	1.6	701601	WORD	n/a	wordpools/wordpool_categorized_EN.txt	PANTS	Clothing	7	6	[0, 0, 0]	n/a	catFR1	1	R1354E
702.928	0.783	703215	WORD_OFF	n/a	n/a	PANTS	Clothing	7	6	[0, 0, 0]	n/a	catFR1	1	R1354E
703.711	1.6	703998	WORD	n/a	wordpools/wordpool_categorized_EN.txt	SHOES	Clothing	8	6	[0, 0, 0]	n/a	catFR1	1	R1354E
705.345	0.878	705632	WORD_OFF	n/a	n/a	SHOES	Clothing	8	6	[0, 0, 0]	n/a	catFR1	1	R1354E
706.223	1.6	706510	WORD	n/a	wordpools/wordpool_categorized_EN.txt	AXE	Tools	9	6	[0, 0, 0]	n/a	catFR1	1	R1354E
707.846	0.948	708133	WORD_OFF	n/a	n/a	AXE	Tools	9	6	[0, 0, 0]	n/a	catFR1	1	R1354E
708.794	1.6	709081	WORD	n/a	wordpools/wordpool_categorized_EN.txt	HAMMER	Tools	10	6	[0, 0, 0]	n/a	catFR1	1	R1354E
710.43	1.063	710717	WORD_OFF	n/a	n/a	HAMMER	Tools	10	6	[0, 0, 0]	n/a	catFR1	1	R1354E
711.493	1.6	711780	WORD	n/a	wordpools/wordpool_categorized_EN.txt	CHIMPANZEE	Zoo	11	6	[0, 0, 0]	n/a	catFR1	1	R1354E
713.13	1.1	713417	WORD_OFF	n/a	n/a	CHIMPANZEE	Zoo	11	6	[0, 0, 0]	n/a	catFR1	1	R1354E
714.23	1.6	714517	WORD	n/a	wordpools/wordpool_categorized_EN.txt	MONKEY	Zoo	12	6	[0, 0, 0]	n/a	catFR1	1	R1354E
715.864	0.001	716151	WORD_OFF	n/a	n/a	MONKEY	Zoo	12	6	[0, 0, 0]	n/a	catFR1	1	R1354E
715.865	0.0	716152	ENCODING_END	n/a	n/a	n/a	n/a	-999	6	[0, 0, 0]	n/a	catFR1	1	R1354E
715.865	0.0	716152	DISTRACT_START	n/a	n/a	n/a	n/a	-999	6	[0, 0, 0]	n/a	catFR1	1	R1354E
715.865	0.016	716152	START	n/a	n/a	n/a	n/a	-999	6	[-999, -999, -999]	n/a	catFR1	1	R1354E
715.881	2.4	716168	PROB	2.373	n/a	n/a	n/a	-999	6	[2, 7, 8]	17.0	catFR1	1	R1354E
718.281	1.75	718567	PROB	1.716	n/a	n/a	n/a	-999	6	[5, 5, 7]	17.0	catFR1	1	R1354E
720.031	1.717	720317	PROB	1.695	n/a	n/a	n/a	-999	6	[3, 7, 4]	14.0	catFR1	1	R1354E
721.748	2.549	722034	PROB	2.521	n/a	n/a	n/a	-999	6	[6, 9, 7]	22.0	catFR1	1	R1354E
724.297	1.385	724583	PROB	1.356	n/a	n/a	n/a	-999	6	[3, 3, 9]	15.0	catFR1	1	R1354E
725.682	1.584	725968	PROB	1.547	n/a	n/a	n/a	-999	6	[2, 3, 8]	13.0	catFR1	1	R1354E
727.266	1.467	727552	PROB	1.444	n/a	n/a	n/a	-999	6	[3, 1, 6]	10.0	catFR1	1	R1354E
728.733	1.267	729019	PROB	1.232	n/a	n/a	n/a	-999	6	[7, 5, 1]	12.0	catFR1	1	R1354E
730.0	1.883	730286	PROB	1.853	n/a	n/a	n/a	-999	6	[1, 8, 6]	15.0	catFR1	1	R1354E
731.883	1.734	732169	PROB	1.706	n/a	n/a	n/a	-999	6	[8, 5, 2]	15.0	catFR1	1	R1354E
733.617	1.417	733903	PROB	1.389	n/a	n/a	n/a	-999	6	[1, 3, 2]	6.0	catFR1	1	R1354E
735.034	1.547	735320	PROB	1.547	n/a	n/a	n/a	-999	6	[8, 8, 5]	21.0	catFR1	1	R1354E
736.581	0.02	736867	STOP	n/a	n/a	n/a	n/a	-999	6	[-999, -999, -999]	n/a	catFR1	1	R1354E
736.601	0.672	736887	DISTRACT_END	n/a	n/a	n/a	n/a	-999	6	[0, 0, 0]	n/a	catFR1	1	R1354E
737.273	1.6	737559	RETRIEVAL_ORIENT_START	n/a	n/a	n/a	n/a	-999	6	[0, 0, 0]	n/a	catFR1	1	R1354E
738.902	0.0	739188	RETRIEVAL_ORIENT_END	n/a	n/a	n/a	n/a	-999	6	[0, 0, 0]	n/a	catFR1	1	R1354E
738.902	0.0	739188	REC_START	n/a	n/a	n/a	n/a	-999	6	[0, 0, 0]	n/a	catFR1	1	R1354E
738.902	0.455	739188	REC_WORD	0.0	n/a	MONKEY	Zoo	12	6	[0, 0, 0]	n/a	catFR1	1	R1354E
739.357	1.0	739643	REC_WORD	0.455	n/a	CHIMPANZEE	Zoo	11	6	[0, 0, 0]	n/a	catFR1	1	R1354E
740.357	0.562	740643	REC_WORD_VV	1.455	n/a	<>	n/a	-999	6	[0, 0, 0]	n/a	catFR1	1	R1354E
740.919	1.182	741205	REC_WORD	2.017	n/a	AXE	Tools	9	6	[0, 0, 0]	n/a	catFR1	1	R1354E
742.101	26.812	742387	REC_WORD	3.199	n/a	ORANGUTAN	Zoo	5	6	[0, 0, 0]	n/a	catFR1	1	R1354E
768.913	0.0	769198	REC_END	n/a	n/a	n/a	n/a	-999	6	[0, 0, 0]	n/a	catFR1	1	R1354E
768.913	0.025	769198	TRIAL_END	n/a	n/a	n/a	n/a	-999	6	[0, 0, 0]	n/a	catFR1	1	R1354E
768.938	0.001	769223	TRIAL_START	n/a	n/a	n/a	n/a	-999	7	[0, 0, 0]	n/a	catFR1	1	R1354E
768.939	0.0	769224	TRIAL	n/a	n/a	n/a	n/a	-999	7	[0, 0, 0]	n/a	catFR1	1	R1354E
768.939	3.735	769224	WAITING_START	n/a	n/a	n/a	n/a	-999	7	[0, 0, 0]	n/a	catFR1	1	R1354E
772.674	0.0	772959	WAITING_END	n/a	n/a	n/a	n/a	-999	7	[0, 0, 0]	n/a	catFR1	1	R1354E
772.674	10.0	772959	COUNTDOWN_START	n/a	n/a	n/a	n/a	-999	7	[0, 0, 0]	n/a	catFR1	1	R1354E
783.103	0.0	783387	COUNTDOWN_END	n/a	n/a	n/a	n/a	-999	7	[0, 0, 0]	n/a	catFR1	1	R1354E
783.103	1.09	783387	ORIENT_START	n/a	n/a	n/a	n/a	-999	7	[0, 0, 0]	n/a	catFR1	1	R1354E
784.193	0.0	784477	ORIENT_END	n/a	n/a	n/a	n/a	-999	7	[0, 0, 0]	n/a	catFR1	1	R1354E
784.193	1.071	784477	ENCODING_START	n/a	n/a	n/a	n/a	-999	7	[0, 0, 0]	n/a	catFR1	1	R1354E
785.264	1.6	785548	WORD	n/a	wordpools/wordpool_categorized_EN.txt	FUDGE	Desserts	1	7	[0, 0, 0]	n/a	catFR1	1	R1354E
786.893	0.794	787177	WORD_OFF	n/a	n/a	FUDGE	Desserts	1	7	[0, 0, 0]	n/a	catFR1	1	R1354E
787.687	1.6	787971	WORD	n/a	wordpools/wordpool_categorized_EN.txt	CAKE	Desserts	2	7	[0, 0, 0]	n/a	catFR1	1	R1354E
789.309	1.04	789593	WORD_OFF	n/a	n/a	CAKE	Desserts	2	7	[0, 0, 0]	n/a	catFR1	1	R1354E
790.349	1.6	790633	WORD	n/a	wordpools/wordpool_categorized_EN.txt	TRUMPET	Instruments	3	7	[0, 0, 0]	n/a	catFR1	1	R1354E
791.978	0.975	792262	WORD_OFF	n/a	n/a	TRUMPET	Instruments	3	7	[0, 0, 0]	n/a	catFR1	1	R1354E
792.953	1.6	793237	WORD	n/a	wordpools/wordpool_categorized_EN.txt	FLUTE	Instruments	4	7	[0, 0, 0]	n/a	catFR1	1	R1354E
794.578	1.121	794862	WORD_OFF	n/a	n/a	FLUTE	Instruments	4	7	[0, 0, 0]	n/a	catFR1	1	R1354E
795.699	1.6	795983	WORD	n/a	wordpools/wordpool_categorized_EN.txt	MOUNTAIN	Landscapes	5	7	[0, 0, 0]	n/a	catFR1	1	R1354E
797.327	1.041	797611	WORD_OFF	n/a	n/a	MOUNTAIN	Landscapes	5	7	[0, 0, 0]	n/a	catFR1	1	R1354E
798.368	1.6	798652	WORD	n/a	wordpools/wordpool_categorized_EN.txt	CREEK	Landscapes	6	7	[0, 0, 0]	n/a	catFR1	1	R1354E
799.996	1.06	800280	WORD_OFF	n/a	n/a	CREEK	Landscapes	6	7	[0, 0, 0]	n/a	catFR1	1	R1354E
801.056	1.6	801339	WORD	n/a	wordpools/wordpool_categorized_EN.txt	BANJO	Instruments	7	7	[0, 0, 0]	n/a	catFR1	1	R1354E
802.679	1.132	802962	WORD_OFF	n/a	n/a	BANJO	Instruments	7	7	[0, 0, 0]	n/a	catFR1	1	R1354E
803.811	1.6	804094	WORD	n/a	wordpools/wordpool_categorized_EN.txt	GUITAR	Instruments	8	7	[0, 0, 0]	n/a	catFR1	1	R1354E
805.447	0.86	805730	WORD_OFF	n/a	n/a	GUITAR	Instruments	8	7	[0, 0, 0]	n/a	catFR1	1	R1354E
806.307	1.6	806590	WORD	n/a	wordpools/wordpool_categorized_EN.txt	VALLEY	Landscapes	9	7	[0, 0, 0]	n/a	catFR1	1	R1354E
807.913	1.143	808196	WORD_OFF	n/a	n/a	VALLEY	Landscapes	9	7	[0, 0, 0]	n/a	catFR1	1	R1354E
809.056	1.6	809339	WORD	n/a	wordpools/wordpool_categorized_EN.txt	OCEAN	Landscapes	10	7	[0, 0, 0]	n/a	catFR1	1	R1354E
810.681	0.876	810964	WORD_OFF	n/a	n/a	OCEAN	Landscapes	10	7	[0, 0, 0]	n/a	catFR1	1	R1354E
811.557	1.6	811840	WORD	n/a	wordpools/wordpool_categorized_EN.txt	COOKIE	Desserts	11	7	[0, 0, 0]	n/a	catFR1	1	R1354E
813.181	0.817	813464	WORD_OFF	n/a	n/a	COOKIE	Desserts	11	7	[0, 0, 0]	n/a	catFR1	1	R1354E
813.998	1.6	814281	WORD	n/a	wordpools/wordpool_categorized_EN.txt	JELLO	Desserts	12	7	[0, 0, 0]	n/a	catFR1	1	R1354E
815.632	0.0	815915	WORD_OFF	n/a	n/a	JELLO	Desserts	12	7	[0, 0, 0]	n/a	catFR1	1	R1354E
815.632	0.0	815915	ENCODING_END	n/a	n/a	n/a	n/a	-999	7	[0, 0, 0]	n/a	catFR1	1	R1354E
815.632	0.0	815915	DISTRACT_START	n/a	n/a	n/a	n/a	-999	7	[0, 0, 0]	n/a	catFR1	1	R1354E
815.632	0.016	815915	START	n/a	n/a	n/a	n/a	-999	7	[-999, -999, -999]	n/a	catFR1	1	R1354E
815.648	2.05	815931	PROB	2.02	n/a	n/a	n/a	-999	7	[5, 3, 2]	10.0	catFR1	1	R1354E
817.698	2.001	817981	PROB	1.978	n/a	n/a	n/a	-999	7	[1, 9, 9]	19.0	catFR1	1	R1354E
819.699	3.367	819982	PROB	3.338	n/a	n/a	n/a	-999	7	[2, 9, 4]	15.0	catFR1	1	R1354E
823.066	1.867	823349	PROB	1.834	n/a	n/a	n/a	-999	7	[1, 2, 9]	12.0	catFR1	1	R1354E
824.933	1.534	825216	PROB	1.496	n/a	n/a	n/a	-999	7	[5, 3, 5]	13.0	catFR1	1	R1354E
826.467	1.416	826750	PROB	1.393	n/a	n/a	n/a	-999	7	[6, 1, 5]	12.0	catFR1	1	R1354E
827.883	2.801	828166	PROB	2.777	n/a	n/a	n/a	-999	7	[2, 8, 7]	17.0	catFR1	1	R1354E
830.684	1.284	830966	PROB	1.256	n/a	n/a	n/a	-999	7	[5, 5, 5]	15.0	catFR1	1	R1354E
831.968	2.017	832250	PROB	1.988	n/a	n/a	n/a	-999	7	[5, 8, 9]	22.0	catFR1	1	R1354E
833.985	2.115	834267	PROB	2.115	n/a	n/a	n/a	-999	7	[3, 8, 2]	13.0	catFR1	1	R1354E
836.1	0.019	836382	STOP	n/a	n/a	n/a	n/a	-999	7	[-999, -999, -999]	n/a	catFR1	1	R1354E
836.119	0.663	836401	DISTRACT_END	n/a	n/a	n/a	n/a	-999	7	[0, 0, 0]	n/a	catFR1	1	R1354E
836.782	1.6	837064	RETRIEVAL_ORIENT_START	n/a	n/a	n/a	n/a	-999	7	[0, 0, 0]	n/a	catFR1	1	R1354E
838.419	0.0	838701	RETRIEVAL_ORIENT_END	n/a	n/a	n/a	n/a	-999	7	[0, 0, 0]	n/a	catFR1	1	R1354E
838.419	0.081	838701	REC_START	n/a	n/a	n/a	n/a	-999	7	[0, 0, 0]	n/a	catFR1	1	R1354E
838.5	0.613	838782	REC_WORD	0.081	n/a	BANJO	Instruments	7	7	[0, 0, 0]	n/a	catFR1	1	R1354E
839.113	29.318	839395	REC_WORD	0.694	n/a	FLUTE	Instruments	4	7	[0, 0, 0]	n/a	catFR1	1	R1354E
868.431	0.0	868712	REC_END	n/a	n/a	n/a	n/a	-999	7	[0, 0, 0]	n/a	catFR1	1	R1354E
868.431	0.025	868712	TRIAL_END	n/a	n/a	n/a	n/a	-999	7	[0, 0, 0]	n/a	catFR1	1	R1354E
868.456	0.0	868737	TRIAL_START	n/a	n/a	n/a	n/a	-999	8	[0, 0, 0]	n/a	catFR1	1	R1354E
868.456	0.0	868737	TRIAL	n/a	n/a	n/a	n/a	-999	8	[0, 0, 0]	n/a	catFR1	1	R1354E
868.456	9.553	868737	WAITING_START	n/a	n/a	n/a	n/a	-999	8	[0, 0, 0]	n/a	catFR1	1	R1354E
878.009	0.0	878290	WAITING_END	n/a	n/a	n/a	n/a	-999	8	[0, 0, 0]	n/a	catFR1	1	R1354E
878.009	10.0	878290	COUNTDOWN_START	n/a	n/a	n/a	n/a	-999	8	[0, 0, 0]	n/a	catFR1	1	R1354E
888.438	0.0	888718	COUNTDOWN_END	n/a	n/a	n/a	n/a	-999	8	[0, 0, 0]	n/a	catFR1	1	R1354E
888.438	1.223	888718	ORIENT_START	n/a	n/a	n/a	n/a	-999	8	[0, 0, 0]	n/a	catFR1	1	R1354E
889.661	0.0	889941	ORIENT_END	n/a	n/a	n/a	n/a	-999	8	[0, 0, 0]	n/a	catFR1	1	R1354E
889.661	0.872	889941	ENCODING_START	n/a	n/a	n/a	n/a	-999	8	[0, 0, 0]	n/a	catFR1	1	R1354E
890.533	1.6	890813	WORD	n/a	wordpools/wordpool_categorized_EN.txt	LEMONADE	Beverages	1	8	[0, 0, 0]	n/a	catFR1	1	R1354E
892.162	1.065	892442	WORD_OFF	n/a	n/a	LEMONADE	Beverages	1	8	[0, 0, 0]	n/a	catFR1	1	R1354E
893.227	1.6	893507	WORD	n/a	wordpools/wordpool_categorized_EN.txt	COLA	Beverages	2	8	[0, 0, 0]	n/a	catFR1	1	R1354E
894.862	0.955	895142	WORD_OFF	n/a	n/a	COLA	Beverages	2	8	[0, 0, 0]	n/a	catFR1	1	R1354E
895.817	1.6	896097	WORD	n/a	wordpools/wordpool_categorized_EN.txt	HEAD	BodyParts	3	8	[0, 0, 0]	n/a	catFR1	1	R1354E
897.446	0.788	897726	WORD_OFF	n/a	n/a	HEAD	BodyParts	3	8	[0, 0, 0]	n/a	catFR1	1	R1354E
898.234	1.6	898514	WORD	n/a	wordpools/wordpool_categorized_EN.txt	ELBOW	BodyParts	4	8	[0, 0, 0]	n/a	catFR1	1	R1354E
899.863	0.777	900143	WORD_OFF	n/a	n/a	ELBOW	BodyParts	4	8	[0, 0, 0]	n/a	catFR1	1	R1354E
900.64	1.6	900920	WORD	n/a	wordpools/wordpool_categorized_EN.txt	NIGHTSTAND	Furniture	5	8	[0, 0, 0]	n/a	catFR1	1	R1354E
902.263	0.992	902543	WORD_OFF	n/a	n/a	NIGHTSTAND	Furniture	5	8	[0, 0, 0]	n/a	catFR1	1	R1354E
903.255	1.6	903535	WORD	n/a	wordpools/wordpool_categorized_EN.txt	TABLE	Furniture	6	8	[0, 0, 0]	n/a	catFR1	1	R1354E
904.88	1.146	905160	WORD_OFF	n/a	n/a	TABLE	Furniture	6	8	[0, 0, 0]	n/a	catFR1	1	R1354E
906.026	1.6	906306	WORD	n/a	wordpools/wordpool_categorized_EN.txt	ARM	BodyParts	7	8	[0, 0, 0]	n/a	catFR1	1	R1354E
907.648	0.866	907928	WORD_OFF	n/a	n/a	ARM	BodyParts	7	8	[0, 0, 0]	n/a	catFR1	1	R1354E
908.514	1.6	908794	WORD	n/a	wordpools/wordpool_categorized_EN.txt	EAR	BodyParts	8	8	[0, 0, 0]	n/a	catFR1	1	R1354E
910.148	1.09	910428	WORD_OFF	n/a	n/a	EAR	BodyParts	8	8	[0, 0, 0]	n/a	catFR1	1	R1354E
911.238	1.6	911518	WORD	n/a	wordpools/wordpool_categorized_EN.txt	TEA	Beverages	9	8	[0, 0, 0]	n/a	catFR1	1	R1354E
912.865	0.803	913145	WORD_OFF	n/a	n/a	TEA	Beverages	9	8	[0, 0, 0]	n/a	catFR1	1	R1354E
913.668	1.6	913947	WORD	n/a	wordpools/wordpool_categorized_EN.txt	JUICE	Beverages	10	8	[0, 0, 0]	n/a	catFR1	1	R1354E
915.298	1.092	915577	WORD_OFF	n/a	n/a	JUICE	Beverages	10	8	[0, 0, 0]	n/a	catFR1	1	R1354E
916.39	1.6	916669	WORD	n/a	wordpools/wordpool_categorized_EN.txt	DRESSER	Furniture	11	8	[0, 0, 0]	n/a	catFR1	1	R1354E
918.016	1.121	918295	WORD_OFF	n/a	n/a	DRESSER	Furniture	11	8	[0, 0, 0]	n/a	catFR1	1	R1354E
919.137	1.6	919416	WORD	n/a	wordpools/wordpool_categorized_EN.txt	RECLINER	Furniture	12	8	[0, 0, 0]	n/a	catFR1	1	R1354E
920.767	0.0	921046	WORD_OFF	n/a	n/a	RECLINER	Furniture	12	8	[0, 0, 0]	n/a	catFR1	1	R1354E
920.767	0.0	921046	ENCODING_END	n/a	n/a	n/a	n/a	-999	8	[0, 0, 0]	n/a	catFR1	1	R1354E
920.767	0.0	921046	DISTRACT_START	n/a	n/a	n/a	n/a	-999	8	[0, 0, 0]	n/a	catFR1	1	R1354E
920.767	0.016	921046	START	n/a	n/a	n/a	n/a	-999	8	[-999, -999, -999]	n/a	catFR1	1	R1354E
920.783	2.15	921062	PROB	2.117	n/a	n/a	n/a	-999	8	[9, 5, 3]	17.0	catFR1	1	R1354E
922.933	1.767	923212	PROB	1.744	n/a	n/a	n/a	-999	8	[7, 3, 6]	16.0	catFR1	1	R1354E
924.7	1.767	924979	PROB	1.745	n/a	n/a	n/a	-999	8	[8, 1, 6]	15.0	catFR1	1	R1354E
926.467	1.951	926746	PROB	1.921	n/a	n/a	n/a	-999	8	[3, 9, 5]	17.0	catFR1	1	R1354E
928.418	1.45	928697	PROB	1.419	n/a	n/a	n/a	-999	8	[2, 6, 2]	10.0	catFR1	1	R1354E
929.868	1.084	930147	PROB	1.048	n/a	n/a	n/a	-999	8	[4, 3, 3]	10.0	catFR1	1	R1354E
930.952	1.2	931231	PROB	1.172	n/a	n/a	n/a	-999	8	[1, 9, 2]	12.0	catFR1	1	R1354E
932.152	1.583	932431	PROB	1.548	n/a	n/a	n/a	-999	8	[6, 7, 7]	20.0	catFR1	1	R1354E
933.735	1.6	934014	PROB	1.572	n/a	n/a	n/a	-999	8	[4, 6, 4]	14.0	catFR1	1	R1354E
935.335	1.951	935614	PROB	1.925	n/a	n/a	n/a	-999	8	[9, 7, 5]	17.0	catFR1	1	R1354E
937.286	1.684	937565	PROB	1.654	n/a	n/a	n/a	-999	8	[5, 7, 3]	15.0	catFR1	1	R1354E
938.97	1.566	939249	PROB	1.538	n/a	n/a	n/a	-999	8	[1, 2, 9]	12.0	catFR1	1	R1354E
940.536	2.316	940815	PROB	2.316	n/a	n/a	n/a	-999	8	[7, 9, 5]	19.0	catFR1	1	R1354E
942.852	0.018	943130	STOP	n/a	n/a	n/a	n/a	-999	8	[-999, -999, -999]	n/a	catFR1	1	R1354E
942.87	0.636	943148	DISTRACT_END	n/a	n/a	n/a	n/a	-999	8	[0, 0, 0]	n/a	catFR1	1	R1354E
943.506	1.6	943784	RETRIEVAL_ORIENT_START	n/a	n/a	n/a	n/a	-999	8	[0, 0, 0]	n/a	catFR1	1	R1354E
945.088	0.0	945366	RETRIEVAL_ORIENT_END	n/a	n/a	n/a	n/a	-999	8	[0, 0, 0]	n/a	catFR1	1	R1354E
945.088	0.407	945366	REC_START	n/a	n/a	n/a	n/a	-999	8	[0, 0, 0]	n/a	catFR1	1	R1354E
945.495	1.035	945773	REC_WORD	0.407	n/a	ELBOW	BodyParts	4	8	[0, 0, 0]	n/a	catFR1	1	R1354E
946.53	0.879	946808	REC_WORD	1.442	n/a	ARM	BodyParts	7	8	[0, 0, 0]	n/a	catFR1	1	R1354E
947.409	0.885	947687	REC_WORD	2.321	n/a	LEMONADE	Beverages	1	8	[0, 0, 0]	n/a	catFR1	1	R1354E
948.294	1.086	948572	REC_WORD	3.206	n/a	TEA	Beverages	9	8	[0, 0, 0]	n/a	catFR1	1	R1354E
949.38	1.533	949658	REC_WORD	4.292	n/a	COLA	Beverages	2	8	[0, 0, 0]	n/a	catFR1	1	R1354E
950.913	6.018	951191	REC_WORD	5.825	n/a	JUICE	Beverages	10	8	[0, 0, 0]	n/a	catFR1	1	R1354E
956.931	1.486	957209	REC_WORD	11.843	n/a	NIGHTSTAND	Furniture	5	8	[0, 0, 0]	n/a	catFR1	1	R1354E
958.417	16.682	958695	REC_WORD	13.329	n/a	TABLE	Furniture	6	8	[0, 0, 0]	n/a	catFR1	1	R1354E
975.099	0.0	975376	REC_END	n/a	n/a	n/a	n/a	-999	8	[0, 0, 0]	n/a	catFR1	1	R1354E
975.099	0.026	975376	TRIAL_END	n/a	n/a	n/a	n/a	-999	8	[0, 0, 0]	n/a	catFR1	1	R1354E
975.125	0.0	975402	TRIAL_START	n/a	n/a	n/a	n/a	-999	9	[0, 0, 0]	n/a	catFR1	1	R1354E
975.125	0.0	975402	TRIAL	n/a	n/a	n/a	n/a	-999	9	[0, 0, 0]	n/a	catFR1	1	R1354E
975.125	6.719	975402	WAITING_START	n/a	n/a	n/a	n/a	-999	9	[0, 0, 0]	n/a	catFR1	1	R1354E
981.844	0.0	982121	WAITING_END	n/a	n/a	n/a	n/a	-999	9	[0, 0, 0]	n/a	catFR1	1	R1354E
981.844	10.0	982121	COUNTDOWN_START	n/a	n/a	n/a	n/a	-999	9	[0, 0, 0]	n/a	catFR1	1	R1354E
992.274	0.0	992551	COUNTDOWN_END	n/a	n/a	n/a	n/a	-999	9	[0, 0, 0]	n/a	catFR1	1	R1354E
992.274	1.021	992551	ORIENT_START	n/a	n/a	n/a	n/a	-999	9	[0, 0, 0]	n/a	catFR1	1	R1354E
993.295	0.0	993572	ORIENT_END	n/a	n/a	n/a	n/a	-999	9	[0, 0, 0]	n/a	catFR1	1	R1354E
993.295	0.94	993572	ENCODING_START	n/a	n/a	n/a	n/a	-999	9	[0, 0, 0]	n/a	catFR1	1	R1354E
994.235	1.6	994512	WORD	n/a	wordpools/wordpool_categorized_EN.txt	ISLAND	Landscapes	1	9	[0, 0, 0]	n/a	catFR1	1	R1354E
995.863	1.083	996140	WORD_OFF	n/a	n/a	ISLAND	Landscapes	1	9	[0, 0, 0]	n/a	catFR1	1	R1354E
996.946	1.6	997223	WORD	n/a	wordpools/wordpool_categorized_EN.txt	LAKE	Landscapes	2	9	[0, 0, 0]	n/a	catFR1	1	R1354E
998.58	1.084	998856	WORD_OFF	n/a	n/a	LAKE	Landscapes	2	9	[0, 0, 0]	n/a	catFR1	1	R1354E
999.664	1.6	999940	WORD	n/a	wordpools/wordpool_categorized_EN.txt	TRAIN	Vehicles	3	9	[0, 0, 0]	n/a	catFR1	1	R1354E
1001.296	0.784	1001572	WORD_OFF	n/a	n/a	TRAIN	Vehicles	3	9	[0, 0, 0]	n/a	catFR1	1	R1354E
1002.08	1.6	1002356	WORD	n/a	wordpools/wordpool_categorized_EN.txt	BOAT	Vehicles	4	9	[0, 0, 0]	n/a	catFR1	1	R1354E
1003.714	0.951	1003990	WORD_OFF	n/a	n/a	BOAT	Vehicles	4	9	[0, 0, 0]	n/a	catFR1	1	R1354E
1004.665	1.6	1004941	WORD	n/a	wordpools/wordpool_categorized_EN.txt	LIGHTNING	Weather	5	9	[0, 0, 0]	n/a	catFR1	1	R1354E
1006.297	0.826	1006573	WORD_OFF	n/a	n/a	LIGHTNING	Weather	5	9	[0, 0, 0]	n/a	catFR1	1	R1354E
1007.123	1.6	1007399	WORD	n/a	wordpools/wordpool_categorized_EN.txt	CLOUD	Weather	6	9	[0, 0, 0]	n/a	catFR1	1	R1354E
1008.749	0.964	1009025	WORD_OFF	n/a	n/a	CLOUD	Weather	6	9	[0, 0, 0]	n/a	catFR1	1	R1354E
1009.713	1.6	1009989	WORD	n/a	wordpools/wordpool_categorized_EN.txt	RIVER	Landscapes	7	9	[0, 0, 0]	n/a	catFR1	1	R1354E
1011.348	0.9	1011624	WORD_OFF	n/a	n/a	RIVER	Landscapes	7	9	[0, 0, 0]	n/a	catFR1	1	R1354E
1012.248	1.6	1012524	WORD	n/a	wordpools/wordpool_categorized_EN.txt	STREAM	Landscapes	8	9	[0, 0, 0]	n/a	catFR1	1	R1354E
1013.883	0.881	1014159	WORD_OFF	n/a	n/a	STREAM	Landscapes	8	9	[0, 0, 0]	n/a	catFR1	1	R1354E
1014.764	1.6	1015040	WORD	n/a	wordpools/wordpool_categorized_EN.txt	PLANE	Vehicles	9	9	[0, 0, 0]	n/a	catFR1	1	R1354E
1016.4	1.094	1016676	WORD_OFF	n/a	n/a	PLANE	Vehicles	9	9	[0, 0, 0]	n/a	catFR1	1	R1354E
1017.494	1.6	1017770	WORD	n/a	wordpools/wordpool_categorized_EN.txt	CAR	Vehicles	10	9	[0, 0, 0]	n/a	catFR1	1	R1354E
1019.117	1.089	1019393	WORD_OFF	n/a	n/a	CAR	Vehicles	10	9	[0, 0, 0]	n/a	catFR1	1	R1354E
1020.206	1.6	1020482	WORD	n/a	wordpools/wordpool_categorized_EN.txt	HURRICANE	Weather	11	9	[0, 0, 0]	n/a	catFR1	1	R1354E
1021.834	1.142	1022110	WORD_OFF	n/a	n/a	HURRICANE	Weather	11	9	[0, 0, 0]	n/a	catFR1	1	R1354E
1022.976	1.6	1023252	WORD	n/a	wordpools/wordpool_categorized_EN.txt	RAIN	Weather	12	9	[0, 0, 0]	n/a	catFR1	1	R1354E
1024.601	0.001	1024877	WORD_OFF	n/a	n/a	RAIN	Weather	12	9	[0, 0, 0]	n/a	catFR1	1	R1354E
1024.602	0.0	1024878	ENCODING_END	n/a	n/a	n/a	n/a	-999	9	[0, 0, 0]	n/a	catFR1	1	R1354E
1024.602	0.0	1024878	DISTRACT_START	n/a	n/a	n/a	n/a	-999	9	[0, 0, 0]	n/a	catFR1	1	R1354E
1024.602	0.016	1024878	START	n/a	n/a	n/a	n/a	-999	9	[-999, -999, -999]	n/a	catFR1	1	R1354E
1024.618	1.6	1024894	PROB	1.561	n/a	n/a	n/a	-999	9	[3, 1, 1]	5.0	catFR1	1	R1354E
1026.218	1.667	1026493	PROB	1.642	n/a	n/a	n/a	-999	9	[9, 1, 8]	19.0	catFR1	1	R1354E
1027.885	1.717	1028160	PROB	1.679	n/a	n/a	n/a	-999	9	[6, 7, 7]	20.0	catFR1	1	R1354E
1029.602	1.8	1029877	PROB	1.777	n/a	n/a	n/a	-999	9	[4, 9, 4]	17.0	catFR1	1	R1354E
1031.402	1.45	1031677	PROB	1.417	n/a	n/a	n/a	-999	9	[2, 8, 3]	13.0	catFR1	1	R1354E
1032.852	2.884	1033127	PROB	2.847	n/a	n/a	n/a	-999	9	[4, 7, 9]	20.0	catFR1	1	R1354E
1035.736	2.551	1036011	PROB	2.523	n/a	n/a	n/a	-999	9	[6, 9, 8]	23.0	catFR1	1	R1354E
1038.287	1.717	1038562	PROB	1.684	n/a	n/a	n/a	-999	9	[3, 7, 4]	14.0	catFR1	1	R1354E
1040.004	1.332	1040279	PROB	1.303	n/a	n/a	n/a	-999	9	[9, 9, 1]	19.0	catFR1	1	R1354E
1041.336	1.818	1041611	PROB	1.78	n/a	n/a	n/a	-999	9	[4, 5, 2]	11.0	catFR1	1	R1354E
1043.154	1.451	1043429	PROB	1.426	n/a	n/a	n/a	-999	9	[2, 3, 8]	13.0	catFR1	1	R1354E
1044.605	1.454	1044880	PROB	1.454	n/a	n/a	n/a	-999	9	[6, 4, 6]	16.0	catFR1	1	R1354E
1046.059	0.013	1046334	STOP	n/a	n/a	n/a	n/a	-999	9	[-999, -999, -999]	n/a	catFR1	1	R1354E
1046.072	0.617	1046347	DISTRACT_END	n/a	n/a	n/a	n/a	-999	9	[0, 0, 0]	n/a	catFR1	1	R1354E
1046.689	1.6	1046964	RETRIEVAL_ORIENT_START	n/a	n/a	n/a	n/a	-999	9	[0, 0, 0]	n/a	catFR1	1	R1354E
1048.406	0.0	1048681	RETRIEVAL_ORIENT_END	n/a	n/a	n/a	n/a	-999	9	[0, 0, 0]	n/a	catFR1	1	R1354E
1048.406	0.0	1048681	REC_START	n/a	n/a	n/a	n/a	-999	9	[0, 0, 0]	n/a	catFR1	1	R1354E
1048.406	0.525	1048681	REC_WORD_VV	0.0	n/a	<>	n/a	-999	9	[0, 0, 0]	n/a	catFR1	1	R1354E
1048.931	0.571	1049206	REC_WORD	0.525	n/a	PLANE	Vehicles	9	9	[0, 0, 0]	n/a	catFR1	1	R1354E
1049.502	0.553	1049777	REC_WORD	1.096	n/a	BOAT	Vehicles	4	9	[0, 0, 0]	n/a	catFR1	1	R1354E
1050.055	0.541	1050330	REC_WORD	1.649	n/a	CAR	Vehicles	10	9	[0, 0, 0]	n/a	catFR1	1	R1354E
1050.596	0.948	1050871	REC_WORD	2.19	n/a	TRAIN	Vehicles	3	9	[0, 0, 0]	n/a	catFR1	1	R1354E
1051.544	2.313	1051819	REC_WORD	3.138	n/a	RAIN	Weather	12	9	[0, 0, 0]	n/a	catFR1	1	R1354E
1053.857	0.64	1054132	REC_WORD	5.451	n/a	LIGHTNING	Weather	5	9	[0, 0, 0]	n/a	catFR1	1	R1354E
1054.497	23.921	1054771	REC_WORD	6.091	n/a	HURRICANE	Weather	11	9	[0, 0, 0]	n/a	catFR1	1	R1354E
1078.418	0.0	1078692	REC_END	n/a	n/a	n/a	n/a	-999	9	[0, 0, 0]	n/a	catFR1	1	R1354E
1078.418	0.026	1078692	TRIAL_END	n/a	n/a	n/a	n/a	-999	9	[0, 0, 0]	n/a	catFR1	1	R1354E
1078.444	0.0	1078718	TRIAL_START	n/a	n/a	n/a	n/a	-999	10	[0, 0, 0]	n/a	catFR1	1	R1354E
1078.444	0.0	1078718	TRIAL	n/a	n/a	n/a	n/a	-999	10	[0, 0, 0]	n/a	catFR1	1	R1354E
1078.444	3.968	1078718	WAITING_START	n/a	n/a	n/a	n/a	-999	10	[0, 0, 0]	n/a	catFR1	1	R1354E
1082.412	0.0	1082685	WAITING_END	n/a	n/a	n/a	n/a	-999	10	[0, 0, 0]	n/a	catFR1	1	R1354E
1082.412	10.0	1082685	COUNTDOWN_START	n/a	n/a	n/a	n/a	-999	10	[0, 0, 0]	n/a	catFR1	1	R1354E
1092.841	0.0	1093114	COUNTDOWN_END	n/a	n/a	n/a	n/a	-999	10	[0, 0, 0]	n/a	catFR1	1	R1354E
1092.841	1.122	1093114	ORIENT_START	n/a	n/a	n/a	n/a	-999	10	[0, 0, 0]	n/a	catFR1	1	R1354E
1093.963	0.001	1094236	ORIENT_END	n/a	n/a	n/a	n/a	-999	10	[0, 0, 0]	n/a	catFR1	1	R1354E
1093.964	0.797	1094237	ENCODING_START	n/a	n/a	n/a	n/a	-999	10	[0, 0, 0]	n/a	catFR1	1	R1354E
1094.761	1.6	1095034	WORD	n/a	wordpools/wordpool_categorized_EN.txt	DUCK	Birds	1	10	[0, 0, 0]	n/a	catFR1	1	R1354E
1096.397	0.832	1096670	WORD_OFF	n/a	n/a	DUCK	Birds	1	10	[0, 0, 0]	n/a	catFR1	1	R1354E
1097.229	1.6	1097502	WORD	n/a	wordpools/wordpool_categorized_EN.txt	BLUEBIRD	Birds	2	10	[0, 0, 0]	n/a	catFR1	1	R1354E
1098.864	1.12	1099137	WORD_OFF	n/a	n/a	BLUEBIRD	Birds	2	10	[0, 0, 0]	n/a	catFR1	1	R1354E
1099.984	1.6	1100257	WORD	n/a	wordpools/wordpool_categorized_EN.txt	WOODS	Landscapes	3	10	[0, 0, 0]	n/a	catFR1	1	R1354E
1101.615	1.077	1101888	WORD_OFF	n/a	n/a	WOODS	Landscapes	3	10	[0, 0, 0]	n/a	catFR1	1	R1354E
1102.692	1.6	1102965	WORD	n/a	wordpools/wordpool_categorized_EN.txt	HILLS	Landscapes	4	10	[0, 0, 0]	n/a	catFR1	1	R1354E
1104.314	0.955	1104587	WORD_OFF	n/a	n/a	HILLS	Landscapes	4	10	[0, 0, 0]	n/a	catFR1	1	R1354E
1105.269	1.6	1105542	WORD	n/a	wordpools/wordpool_categorized_EN.txt	BASKETBALL	Toys	5	10	[0, 0, 0]	n/a	catFR1	1	R1354E
1106.899	0.953	1107172	WORD_OFF	n/a	n/a	BASKETBALL	Toys	5	10	[0, 0, 0]	n/a	catFR1	1	R1354E
1107.852	1.6	1108125	WORD	n/a	wordpools/wordpool_categorized_EN.txt	FOOTBALL	Toys	6	10	[0, 0, 0]	n/a	catFR1	1	R1354E
1109.483	0.79	1109756	WORD_OFF	n/a	n/a	FOOTBALL	Toys	6	10	[0, 0, 0]	n/a	catFR1	1	R1354E
1110.273	1.6	1110546	WORD	n/a	wordpools/wordpool_categorized_EN.txt	FOREST	Landscapes	7	10	[0, 0, 0]	n/a	catFR1	1	R1354E
1111.9	0.959	1112172	WORD_OFF	n/a	n/a	FOREST	Landscapes	7	10	[0, 0, 0]	n/a	catFR1	1	R1354E
1112.859	1.6	1113131	WORD	n/a	wordpools/wordpool_categorized_EN.txt	BEACH	Landscapes	8	10	[0, 0, 0]	n/a	catFR1	1	R1354E
1114.484	0.889	1114756	WORD_OFF	n/a	n/a	BEACH	Landscapes	8	10	[0, 0, 0]	n/a	catFR1	1	R1354E
1115.373	1.6	1115645	WORD	n/a	wordpools/wordpool_categorized_EN.txt	DOLL	Toys	9	10	[0, 0, 0]	n/a	catFR1	1	R1354E
1117.001	1.134	1117273	WORD_OFF	n/a	n/a	DOLL	Toys	9	10	[0, 0, 0]	n/a	catFR1	1	R1354E
1118.135	1.6	1118407	WORD	n/a	wordpools/wordpool_categorized_EN.txt	BARBIE	Toys	10	10	[0, 0, 0]	n/a	catFR1	1	R1354E
1119.768	0.964	1120040	WORD_OFF	n/a	n/a	BARBIE	Toys	10	10	[0, 0, 0]	n/a	catFR1	1	R1354E
1120.732	1.6	1121004	WORD	n/a	wordpools/wordpool_categorized_EN.txt	PIGEON	Birds	11	10	[0, 0, 0]	n/a	catFR1	1	R1354E
1122.368	1.022	1122640	WORD_OFF	n/a	n/a	PIGEON	Birds	11	10	[0, 0, 0]	n/a	catFR1	1	R1354E
1123.39	1.6	1123662	WORD	n/a	wordpools/wordpool_categorized_EN.txt	ROBIN	Birds	12	10	[0, 0, 0]	n/a	catFR1	1	R1354E
1125.019	0.0	1125291	WORD_OFF	n/a	n/a	ROBIN	Birds	12	10	[0, 0, 0]	n/a	catFR1	1	R1354E
1125.019	0.001	1125291	ENCODING_END	n/a	n/a	n/a	n/a	-999	10	[0, 0, 0]	n/a	catFR1	1	R1354E
1125.02	0.0	1125292	DISTRACT_START	n/a	n/a	n/a	n/a	-999	10	[0, 0, 0]	n/a	catFR1	1	R1354E
1125.02	0.015	1125292	START	n/a	n/a	n/a	n/a	-999	10	[-999, -999, -999]	n/a	catFR1	1	R1354E
1125.035	2.051	1125307	PROB	2.024	n/a	n/a	n/a	-999	10	[6, 1, 7]	14.0	catFR1	1	R1354E
1127.086	2.383	1127358	PROB	2.358	n/a	n/a	n/a	-999	10	[9, 4, 2]	15.0	catFR1	1	R1354E
1129.469	2.001	1129741	PROB	1.974	n/a	n/a	n/a	-999	10	[8, 3, 8]	19.0	catFR1	1	R1354E
1131.47	2.25	1131742	PROB	2.214	n/a	n/a	n/a	-999	10	[4, 7, 9]	20.0	catFR1	1	R1354E
1133.72	1.784	1133992	PROB	1.747	n/a	n/a	n/a	-999	10	[4, 2, 1]	7.0	catFR1	1	R1354E
1135.504	1.4	1135776	PROB	1.372	n/a	n/a	n/a	-999	10	[1, 7, 5]	13.0	catFR1	1	R1354E
1136.904	2.534	1137176	PROB	2.499	n/a	n/a	n/a	-999	10	[7, 2, 7]	16.0	catFR1	1	R1354E
1139.438	1.583	1139709	PROB	1.55	n/a	n/a	n/a	-999	10	[3, 2, 5]	10.0	catFR1	1	R1354E
1141.021	1.634	1141292	PROB	1.599	n/a	n/a	n/a	-999	10	[7, 6, 3]	16.0	catFR1	1	R1354E
1142.655	2.017	1142926	PROB	1.98	n/a	n/a	n/a	-999	10	[4, 7, 2]	13.0	catFR1	1	R1354E
1144.672	1.092	1144943	PROB	1.092	n/a	n/a	n/a	-999	10	[4, 4, 4]	12.0	catFR1	1	R1354E
1145.764	0.008	1146035	STOP	n/a	n/a	n/a	n/a	-999	10	[-999, -999, -999]	n/a	catFR1	1	R1354E
1145.772	0.609	1146043	DISTRACT_END	n/a	n/a	n/a	n/a	-999	10	[0, 0, 0]	n/a	catFR1	1	R1354E
1146.381	1.6	1146652	RETRIEVAL_ORIENT_START	n/a	n/a	n/a	n/a	-999	10	[0, 0, 0]	n/a	catFR1	1	R1354E
1148.056	0.0	1148327	RETRIEVAL_ORIENT_END	n/a	n/a	n/a	n/a	-999	10	[0, 0, 0]	n/a	catFR1	1	R1354E
1148.056	0.343	1148327	REC_START	n/a	n/a	n/a	n/a	-999	10	[0, 0, 0]	n/a	catFR1	1	R1354E
1148.399	1.076	1148670	REC_WORD	0.343	n/a	WOODS	Landscapes	3	10	[0, 0, 0]	n/a	catFR1	1	R1354E
1149.475	0.557	1149746	REC_WORD	1.419	n/a	DOLL	Toys	9	10	[0, 0, 0]	n/a	catFR1	1	R1354E
1150.032	1.872	1150303	REC_WORD	1.976	n/a	BARBIE	Toys	10	10	[0, 0, 0]	n/a	catFR1	1	R1354E
1151.904	0.718	1152175	REC_WORD	3.848	n/a	BASKETBALL	Toys	5	10	[0, 0, 0]	n/a	catFR1	1	R1354E
1152.622	25.446	1152893	REC_WORD	4.566	n/a	FOOTBALL	Toys	6	10	[0, 0, 0]	n/a	catFR1	1	R1354E
1178.068	0.0	1178338	REC_END	n/a	n/a	n/a	n/a	-999	10	[0, 0, 0]	n/a	catFR1	1	R1354E
1178.068	0.025	1178338	TRIAL_END	n/a	n/a	n/a	n/a	-999	10	[0, 0, 0]	n/a	catFR1	1	R1354E
1178.093	0.001	1178363	TRIAL_START	n/a	n/a	n/a	n/a	-999	11	[0, 0, 0]	n/a	catFR1	1	R1354E
1178.094	0.0	1178364	TRIAL	n/a	n/a	n/a	n/a	-999	11	[0, 0, 0]	n/a	catFR1	1	R1354E
1178.094	1.834	1178364	WAITING_START	n/a	n/a	n/a	n/a	-999	11	[0, 0, 0]	n/a	catFR1	1	R1354E
1179.928	0.001	1180198	WAITING_END	n/a	n/a	n/a	n/a	-999	11	[0, 0, 0]	n/a	catFR1	1	R1354E
1179.929	10.0	1180199	COUNTDOWN_START	n/a	n/a	n/a	n/a	-999	11	[0, 0, 0]	n/a	catFR1	1	R1354E
1190.357	0.001	1190627	COUNTDOWN_END	n/a	n/a	n/a	n/a	-999	11	[0, 0, 0]	n/a	catFR1	1	R1354E
1190.358	1.106	1190628	ORIENT_START	n/a	n/a	n/a	n/a	-999	11	[0, 0, 0]	n/a	catFR1	1	R1354E
1191.464	0.0	1191734	ORIENT_END	n/a	n/a	n/a	n/a	-999	11	[0, 0, 0]	n/a	catFR1	1	R1354E
1191.464	0.94	1191734	ENCODING_START	n/a	n/a	n/a	n/a	-999	11	[0, 0, 0]	n/a	catFR1	1	R1354E
1192.404	1.6	1192674	WORD	n/a	wordpools/wordpool_categorized_EN.txt	KNEE	BodyParts	1	11	[0, 0, 0]	n/a	catFR1	1	R1354E
1194.031	0.801	1194301	WORD_OFF	n/a	n/a	KNEE	BodyParts	1	11	[0, 0, 0]	n/a	catFR1	1	R1354E
1194.832	1.6	1195102	WORD	n/a	wordpools/wordpool_categorized_EN.txt	TOE	BodyParts	2	11	[0, 0, 0]	n/a	catFR1	1	R1354E
1196.465	0.972	1196734	WORD_OFF	n/a	n/a	TOE	BodyParts	2	11	[0, 0, 0]	n/a	catFR1	1	R1354E
1197.437	1.6	1197706	WORD	n/a	wordpools/wordpool_categorized_EN.txt	SPEAKER	Electronics	3	11	[0, 0, 0]	n/a	catFR1	1	R1354E
1199.065	0.807	1199334	WORD_OFF	n/a	n/a	SPEAKER	Electronics	3	11	[0, 0, 0]	n/a	catFR1	1	R1354E
1199.872	1.6	1200141	WORD	n/a	wordpools/wordpool_categorized_EN.txt	PHONE	Electronics	4	11	[0, 0, 0]	n/a	catFR1	1	R1354E
1201.499	1.103	1201768	WORD_OFF	n/a	n/a	PHONE	Electronics	4	11	[0, 0, 0]	n/a	catFR1	1	R1354E
1202.602	1.6	1202871	WORD	n/a	wordpools/wordpool_categorized_EN.txt	GIRAFFE	Zoo	5	11	[0, 0, 0]	n/a	catFR1	1	R1354E
1204.233	0.948	1204502	WORD_OFF	n/a	n/a	GIRAFFE	Zoo	5	11	[0, 0, 0]	n/a	catFR1	1	R1354E
1205.181	1.6	1205450	WORD	n/a	wordpools/wordpool_categorized_EN.txt	BEAR	Zoo	6	11	[0, 0, 0]	n/a	catFR1	1	R1354E
1206.816	0.905	1207085	WORD_OFF	n/a	n/a	BEAR	Zoo	6	11	[0, 0, 0]	n/a	catFR1	1	R1354E
1207.721	1.6	1207990	WORD	n/a	wordpools/wordpool_categorized_EN.txt	FINGERS	BodyParts	7	11	[0, 0, 0]	n/a	catFR1	1	R1354E
1209.349	0.842	1209618	WORD_OFF	n/a	n/a	FINGERS	BodyParts	7	11	[0, 0, 0]	n/a	catFR1	1	R1354E
1210.191	1.6	1210460	WORD	n/a	wordpools/wordpool_categorized_EN.txt	NOSE	BodyParts	8	11	[0, 0, 0]	n/a	catFR1	1	R1354E
1211.817	0.856	1212086	WORD_OFF	n/a	n/a	NOSE	BodyParts	8	11	[0, 0, 0]	n/a	catFR1	1	R1354E
1212.673	1.6	1212942	WORD	n/a	wordpools/wordpool_categorized_EN.txt	CALCULATOR	Electronics	9	11	[0, 0, 0]	n/a	catFR1	1	R1354E
1214.3	0.894	1214569	WORD_OFF	n/a	n/a	CALCULATOR	Electronics	9	11	[0, 0, 0]	n/a	catFR1	1	R1354E
1215.194	1.6	1215463	WORD	n/a	wordpools/wordpool_categorized_EN.txt	TABLET	Electronics	10	11	[0, 0, 0]	n/a	catFR1	1	R1354E
1216.818	1.099	1217087	WORD_OFF	n/a	n/a	TABLET	Electronics	10	11	[0, 0, 0]	n/a	catFR1	1	R1354E
1217.917	1.6	1218186	WORD	n/a	wordpools/wordpool_categorized_EN.txt	GORILLA	Zoo	11	11	[0, 0, 0]	n/a	catFR1	1	R1354E
1219.552	0.872	1219821	WORD_OFF	n/a	n/a	GORILLA	Zoo	11	11	[0, 0, 0]	n/a	catFR1	1	R1354E
1220.424	1.6	1220693	WORD	n/a	wordpools/wordpool_categorized_EN.txt	TIGER	Zoo	12	11	[0, 0, 0]	n/a	catFR1	1	R1354E
1222.052	0.001	1222321	WORD_OFF	n/a	n/a	TIGER	Zoo	12	11	[0, 0, 0]	n/a	catFR1	1	R1354E
1222.053	0.0	1222322	ENCODING_END	n/a	n/a	n/a	n/a	-999	11	[0, 0, 0]	n/a	catFR1	1	R1354E
1222.053	0.0	1222322	DISTRACT_START	n/a	n/a	n/a	n/a	-999	11	[0, 0, 0]	n/a	catFR1	1	R1354E
1222.053	0.016	1222322	START	n/a	n/a	n/a	n/a	-999	11	[-999, -999, -999]	n/a	catFR1	1	R1354E
1222.069	2.3	1222338	PROB	2.266	n/a	n/a	n/a	-999	11	[2, 3, 7]	12.0	catFR1	1	R1354E
1224.369	1.634	1224637	PROB	1.599	n/a	n/a	n/a	-999	11	[3, 6, 8]	16.0	catFR1	1	R1354E
1226.003	2.534	1226271	PROB	2.508	n/a	n/a	n/a	-999	11	[4, 4, 6]	14.0	catFR1	1	R1354E
1228.537	1.633	1228805	PROB	1.608	n/a	n/a	n/a	-999	11	[4, 3, 1]	8.0	catFR1	1	R1354E
1230.17	1.301	1230438	PROB	1.278	n/a	n/a	n/a	-999	11	[9, 1, 1]	11.0	catFR1	1	R1354E
1231.471	4.833	1231739	PROB	4.809	n/a	n/a	n/a	-999	11	[7, 8, 5]	20.0	catFR1	1	R1354E
1236.304	2.518	1236572	PROB	2.488	n/a	n/a	n/a	-999	11	[8, 8, 9]	25.0	catFR1	1	R1354E
1238.822	1.55	1239090	PROB	1.521	n/a	n/a	n/a	-999	11	[1, 7, 8]	16.0	catFR1	1	R1354E
1240.372	1.852	1240640	PROB	1.852	n/a	n/a	n/a	-999	11	[1, 3, 9]	13.0	catFR1	1	R1354E
1242.224	0.015	1242492	STOP	n/a	n/a	n/a	n/a	-999	11	[-999, -999, -999]	n/a	catFR1	1	R1354E
1242.239	0.69	1242507	DISTRACT_END	n/a	n/a	n/a	n/a	-999	11	[0, 0, 0]	n/a	catFR1	1	R1354E
1242.929	1.6	1243197	RETRIEVAL_ORIENT_START	n/a	n/a	n/a	n/a	-999	11	[0, 0, 0]	n/a	catFR1	1	R1354E
1244.523	0.0	1244791	RETRIEVAL_ORIENT_END	n/a	n/a	n/a	n/a	-999	11	[0, 0, 0]	n/a	catFR1	1	R1354E
1244.523	0.258	1244791	REC_START	n/a	n/a	n/a	n/a	-999	11	[0, 0, 0]	n/a	catFR1	1	R1354E
1244.781	0.667	1245049	REC_WORD	0.258	n/a	SPEAKER	Electronics	3	11	[0, 0, 0]	n/a	catFR1	1	R1354E
1245.448	1.268	1245716	REC_WORD	0.925	n/a	PHONE	Electronics	4	11	[0, 0, 0]	n/a	catFR1	1	R1354E
1246.716	2.085	1246984	REC_WORD	2.193	n/a	NOSE	BodyParts	8	11	[0, 0, 0]	n/a	catFR1	1	R1354E
1248.801	0.992	1249069	REC_WORD	4.278	n/a	KNEE	BodyParts	1	11	[0, 0, 0]	n/a	catFR1	1	R1354E
1249.793	24.743	1250061	REC_WORD	5.27	n/a	TOE	BodyParts	2	11	[0, 0, 0]	n/a	catFR1	1	R1354E
1274.536	0.0	1274803	REC_END	n/a	n/a	n/a	n/a	-999	11	[0, 0, 0]	n/a	catFR1	1	R1354E
1274.536	0.026	1274803	TRIAL_END	n/a	n/a	n/a	n/a	-999	11	[0, 0, 0]	n/a	catFR1	1	R1354E
1274.562	0.001	1274829	TRIAL_START	n/a	n/a	n/a	n/a	-999	12	[0, 0, 0]	n/a	catFR1	1	R1354E
1274.563	0.0	1274830	TRIAL	n/a	n/a	n/a	n/a	-999	12	[0, 0, 0]	n/a	catFR1	1	R1354E
1274.563	3.866	1274830	WAITING_START	n/a	n/a	n/a	n/a	-999	12	[0, 0, 0]	n/a	catFR1	1	R1354E
1278.429	0.0	1278696	WAITING_END	n/a	n/a	n/a	n/a	-999	12	[0, 0, 0]	n/a	catFR1	1	R1354E
1278.429	10.0	1278696	COUNTDOWN_START	n/a	n/a	n/a	n/a	-999	12	[0, 0, 0]	n/a	catFR1	1	R1354E
1288.859	0.001	1289125	COUNTDOWN_END	n/a	n/a	n/a	n/a	-999	12	[0, 0, 0]	n/a	catFR1	1	R1354E
1288.86	1.188	1289126	ORIENT_START	n/a	n/a	n/a	n/a	-999	12	[0, 0, 0]	n/a	catFR1	1	R1354E
1290.048	0.0	1290314	ORIENT_END	n/a	n/a	n/a	n/a	-999	12	[0, 0, 0]	n/a	catFR1	1	R1354E
1290.048	1.063	1290314	ENCODING_START	n/a	n/a	n/a	n/a	-999	12	[0, 0, 0]	n/a	catFR1	1	R1354E
1291.111	1.6	1291377	WORD	n/a	wordpools/wordpool_categorized_EN.txt	CABINET	Furniture	1	12	[0, 0, 0]	n/a	catFR1	1	R1354E
1292.748	0.815	1293014	WORD_OFF	n/a	n/a	CABINET	Furniture	1	12	[0, 0, 0]	n/a	catFR1	1	R1354E
1293.563	1.6	1293829	WORD	n/a	wordpools/wordpool_categorized_EN.txt	BOOKCASE	Furniture	2	12	[0, 0, 0]	n/a	catFR1	1	R1354E
1295.199	0.812	1295465	WORD_OFF	n/a	n/a	BOOKCASE	Furniture	2	12	[0, 0, 0]	n/a	catFR1	1	R1354E
1296.011	1.6	1296277	WORD	n/a	wordpools/wordpool_categorized_EN.txt	BUTTERFLY	Insects	3	12	[0, 0, 0]	n/a	catFR1	1	R1354E
1297.649	1.008	1297915	WORD_OFF	n/a	n/a	BUTTERFLY	Insects	3	12	[0, 0, 0]	n/a	catFR1	1	R1354E
1298.657	1.6	1298923	WORD	n/a	wordpools/wordpool_categorized_EN.txt	BEETLE	Insects	4	12	[0, 0, 0]	n/a	catFR1	1	R1354E
1300.283	1.104	1300549	WORD_OFF	n/a	n/a	BEETLE	Insects	4	12	[0, 0, 0]	n/a	catFR1	1	R1354E
1301.387	1.6	1301653	WORD	n/a	wordpools/wordpool_categorized_EN.txt	TAPE	OfficeSupplies	5	12	[0, 0, 0]	n/a	catFR1	1	R1354E
1303.017	1.051	1303283	WORD_OFF	n/a	n/a	TAPE	OfficeSupplies	5	12	[0, 0, 0]	n/a	catFR1	1	R1354E
1304.068	1.6	1304334	WORD	n/a	wordpools/wordpool_categorized_EN.txt	NOTEBOOK	OfficeSupplies	6	12	[0, 0, 0]	n/a	catFR1	1	R1354E
1305.7	0.904	1305966	WORD_OFF	n/a	n/a	NOTEBOOK	OfficeSupplies	6	12	[0, 0, 0]	n/a	catFR1	1	R1354E
1306.604	1.6	1306870	WORD	n/a	wordpools/wordpool_categorized_EN.txt	MOSQUITO	Insects	7	12	[0, 0, 0]	n/a	catFR1	1	R1354E
1308.234	1.033	1308499	WORD_OFF	n/a	n/a	MOSQUITO	Insects	7	12	[0, 0, 0]	n/a	catFR1	1	R1354E
1309.267	1.6	1309532	WORD	n/a	wordpools/wordpool_categorized_EN.txt	LADYBUG	Insects	8	12	[0, 0, 0]	n/a	catFR1	1	R1354E
1310.901	0.847	1311166	WORD_OFF	n/a	n/a	LADYBUG	Insects	8	12	[0, 0, 0]	n/a	catFR1	1	R1354E
1311.748	1.6	1312013	WORD	n/a	wordpools/wordpool_categorized_EN.txt	SHELF	Furniture	9	12	[0, 0, 0]	n/a	catFR1	1	R1354E
1313.385	0.773	1313650	WORD_OFF	n/a	n/a	SHELF	Furniture	9	12	[0, 0, 0]	n/a	catFR1	1	R1354E
1314.158	1.6	1314423	WORD	n/a	wordpools/wordpool_categorized_EN.txt	SOFA	Furniture	10	12	[0, 0, 0]	n/a	catFR1	1	R1354E
1315.786	0.847	1316051	WORD_OFF	n/a	n/a	SOFA	Furniture	10	12	[0, 0, 0]	n/a	catFR1	1	R1354E
1316.633	1.6	1316898	WORD	n/a	wordpools/wordpool_categorized_EN.txt	GLUE	OfficeSupplies	11	12	[0, 0, 0]	n/a	catFR1	1	R1354E
1318.269	1.12	1318534	WORD_OFF	n/a	n/a	GLUE	OfficeSupplies	11	12	[0, 0, 0]	n/a	catFR1	1	R1354E
1319.389	1.6	1319654	WORD	n/a	wordpools/wordpool_categorized_EN.txt	PENCIL	OfficeSupplies	12	12	[0, 0, 0]	n/a	catFR1	1	R1354E
1321.02	0.0	1321285	WORD_OFF	n/a	n/a	PENCIL	OfficeSupplies	12	12	[0, 0, 0]	n/a	catFR1	1	R1354E
1321.02	0.001	1321285	ENCODING_END	n/a	n/a	n/a	n/a	-999	12	[0, 0, 0]	n/a	catFR1	1	R1354E
1321.021	0.0	1321286	DISTRACT_START	n/a	n/a	n/a	n/a	-999	12	[0, 0, 0]	n/a	catFR1	1	R1354E
1321.021	0.015	1321286	START	n/a	n/a	n/a	n/a	-999	12	[-999, -999, -999]	n/a	catFR1	1	R1354E
1321.036	3.017	1321301	PROB	2.984	n/a	n/a	n/a	-999	12	[7, 4, 2]	13.0	catFR1	1	R1354E
1324.053	1.283	1324318	PROB	1.245	n/a	n/a	n/a	-999	12	[3, 1, 3]	7.0	catFR1	1	R1354E
1325.336	1.484	1325601	PROB	1.452	n/a	n/a	n/a	-999	12	[1, 9, 8]	18.0	catFR1	1	R1354E
1326.82	2.118	1327085	PROB	2.08	n/a	n/a	n/a	-999	12	[1, 5, 9]	15.0	catFR1	1	R1354E
1328.938	2.25	1329203	PROB	2.225	n/a	n/a	n/a	-999	12	[4, 5, 8]	17.0	catFR1	1	R1354E
1331.188	1.717	1331453	PROB	1.68	n/a	n/a	n/a	-999	12	[1, 5, 1]	7.0	catFR1	1	R1354E
1332.905	2.167	1333170	PROB	2.138	n/a	n/a	n/a	-999	12	[3, 7, 7]	17.0	catFR1	1	R1354E
1335.072	1.917	1335337	PROB	1.891	n/a	n/a	n/a	-999	12	[8, 5, 3]	16.0	catFR1	1	R1354E
1336.989	1.967	1337253	PROB	1.935	n/a	n/a	n/a	-999	12	[9, 6, 2]	18.0	catFR1	1	R1354E
1338.956	2.832	1339220	PROB	2.832	n/a	n/a	n/a	-999	12	[9, 2, 3]	14.0	catFR1	1	R1354E
1341.788	0.019	1342052	STOP	n/a	n/a	n/a	n/a	-999	12	[-999, -999, -999]	n/a	catFR1	1	R1354E
1341.807	0.511	1342071	DISTRACT_END	n/a	n/a	n/a	n/a	-999	12	[0, 0, 0]	n/a	catFR1	1	R1354E
1342.318	1.6	1342582	RETRIEVAL_ORIENT_START	n/a	n/a	n/a	n/a	-999	12	[0, 0, 0]	n/a	catFR1	1	R1354E
1343.957	0.0	1344221	RETRIEVAL_ORIENT_END	n/a	n/a	n/a	n/a	-999	12	[0, 0, 0]	n/a	catFR1	1	R1354E
1343.957	0.0	1344221	REC_START	n/a	n/a	n/a	n/a	-999	12	[0, 0, 0]	n/a	catFR1	1	R1354E
1343.957	1.097	1344221	REC_WORD	0.0	n/a	NOTEBOOK	OfficeSupplies	6	12	[0, 0, 0]	n/a	catFR1	1	R1354E
1345.054	28.916	1345318	REC_WORD	1.097	n/a	TAPE	OfficeSupplies	5	12	[0, 0, 0]	n/a	catFR1	1	R1354E
1373.97	0.0	1374233	REC_END	n/a	n/a	n/a	n/a	-999	12	[0, 0, 0]	n/a	catFR1	1	R1354E
1373.97	0.025	1374233	TRIAL_END	n/a	n/a	n/a	n/a	-999	12	[0, 0, 0]	n/a	catFR1	1	R1354E
1373.995	0.001	1374258	TRIAL_START	n/a	n/a	n/a	n/a	-999	13	[0, 0, 0]	n/a	catFR1	1	R1354E
1373.996	0.0	1374259	TRIAL	n/a	n/a	n/a	n/a	-999	13	[0, 0, 0]	n/a	catFR1	1	R1354E
1373.996	3.15	1374259	WAITING_START	n/a	n/a	n/a	n/a	-999	13	[0, 0, 0]	n/a	catFR1	1	R1354E
1377.146	0.001	1377409	WAITING_END	n/a	n/a	n/a	n/a	-999	13	[0, 0, 0]	n/a	catFR1	1	R1354E
1377.147	10.0	1377410	COUNTDOWN_START	n/a	n/a	n/a	n/a	-999	13	[0, 0, 0]	n/a	catFR1	1	R1354E
1387.576	0.0	1387839	COUNTDOWN_END	n/a	n/a	n/a	n/a	-999	13	[0, 0, 0]	n/a	catFR1	1	R1354E
1387.576	1.272	1387839	ORIENT_START	n/a	n/a	n/a	n/a	-999	13	[0, 0, 0]	n/a	catFR1	1	R1354E
1388.848	0.001	1389111	ORIENT_END	n/a	n/a	n/a	n/a	-999	13	[0, 0, 0]	n/a	catFR1	1	R1354E
1388.849	1.056	1389112	ENCODING_START	n/a	n/a	n/a	n/a	-999	13	[0, 0, 0]	n/a	catFR1	1	R1354E
1389.905	1.6	1390168	WORD	n/a	wordpools/wordpool_categorized_EN.txt	TONGS	KitchenTools	1	13	[0, 0, 0]	n/a	catFR1	1	R1354E
1391.532	0.883	1391795	WORD_OFF	n/a	n/a	TONGS	KitchenTools	1	13	[0, 0, 0]	n/a	catFR1	1	R1354E
1392.415	1.6	1392677	WORD	n/a	wordpools/wordpool_categorized_EN.txt	CORKSCREW	KitchenTools	2	13	[0, 0, 0]	n/a	catFR1	1	R1354E
1394.049	0.893	1394311	WORD_OFF	n/a	n/a	CORKSCREW	KitchenTools	2	13	[0, 0, 0]	n/a	catFR1	1	R1354E
1394.942	1.6	1395204	WORD	n/a	wordpools/wordpool_categorized_EN.txt	TURTLE	OceanAnimals	3	13	[0, 0, 0]	n/a	catFR1	1	R1354E
1396.566	0.831	1396828	WORD_OFF	n/a	n/a	TURTLE	OceanAnimals	3	13	[0, 0, 0]	n/a	catFR1	1	R1354E
1397.397	1.6	1397659	WORD	n/a	wordpools/wordpool_categorized_EN.txt	SHRIMP	OceanAnimals	4	13	[0, 0, 0]	n/a	catFR1	1	R1354E
1399.033	0.812	1399295	WORD_OFF	n/a	n/a	SHRIMP	OceanAnimals	4	13	[0, 0, 0]	n/a	catFR1	1	R1354E
1399.845	1.6	1400107	WORD	n/a	wordpools/wordpool_categorized_EN.txt	PANDA	Zoo	5	13	[0, 0, 0]	n/a	catFR1	1	R1354E
1401.467	0.869	1401729	WORD_OFF	n/a	n/a	PANDA	Zoo	5	13	[0, 0, 0]	n/a	catFR1	1	R1354E
1402.336	1.6	1402598	WORD	n/a	wordpools/wordpool_categorized_EN.txt	LION	Zoo	6	13	[0, 0, 0]	n/a	catFR1	1	R1354E
1403.951	0.91	1404213	WORD_OFF	n/a	n/a	LION	Zoo	6	13	[0, 0, 0]	n/a	catFR1	1	R1354E
1404.861	1.6	1405123	WORD	n/a	wordpools/wordpool_categorized_EN.txt	DOLPHIN	OceanAnimals	7	13	[0, 0, 0]	n/a	catFR1	1	R1354E
1406.485	0.913	1406747	WORD_OFF	n/a	n/a	DOLPHIN	OceanAnimals	7	13	[0, 0, 0]	n/a	catFR1	1	R1354E
1407.398	1.6	1407660	WORD	n/a	wordpools/wordpool_categorized_EN.txt	FISH	OceanAnimals	8	13	[0, 0, 0]	n/a	catFR1	1	R1354E
1409.019	0.833	1409281	WORD_OFF	n/a	n/a	FISH	OceanAnimals	8	13	[0, 0, 0]	n/a	catFR1	1	R1354E
1409.852	1.6	1410114	WORD	n/a	wordpools/wordpool_categorized_EN.txt	WHISK	KitchenTools	9	13	[0, 0, 0]	n/a	catFR1	1	R1354E
1411.486	0.912	1411748	WORD_OFF	n/a	n/a	WHISK	KitchenTools	9	13	[0, 0, 0]	n/a	catFR1	1	R1354E
1412.398	1.6	1412660	WORD	n/a	wordpools/wordpool_categorized_EN.txt	GRATER	KitchenTools	10	13	[0, 0, 0]	n/a	catFR1	1	R1354E
1414.019	0.984	1414281	WORD_OFF	n/a	n/a	GRATER	KitchenTools	10	13	[0, 0, 0]	n/a	catFR1	1	R1354E
1415.003	1.6	1415265	WORD	n/a	wordpools/wordpool_categorized_EN.txt	ZEBRA	Zoo	11	13	[0, 0, 0]	n/a	catFR1	1	R1354E
1416.636	1.035	1416898	WORD_OFF	n/a	n/a	ZEBRA	Zoo	11	13	[0, 0, 0]	n/a	catFR1	1	R1354E
1417.671	1.6	1417933	WORD	n/a	wordpools/wordpool_categorized_EN.txt	ELEPHANT	Zoo	12	13	[0, 0, 0]	n/a	catFR1	1	R1354E
1419.287	0.0	1419549	WORD_OFF	n/a	n/a	ELEPHANT	Zoo	12	13	[0, 0, 0]	n/a	catFR1	1	R1354E
1419.287	0.0	1419549	ENCODING_END	n/a	n/a	n/a	n/a	-999	13	[0, 0, 0]	n/a	catFR1	1	R1354E
1419.287	0.001	1419549	DISTRACT_START	n/a	n/a	n/a	n/a	-999	13	[0, 0, 0]	n/a	catFR1	1	R1354E
1419.288	0.014	1419550	START	n/a	n/a	n/a	n/a	-999	13	[-999, -999, -999]	n/a	catFR1	1	R1354E
1419.302	2.669	1419564	PROB	2.642	n/a	n/a	n/a	-999	13	[9, 5, 4]	18.0	catFR1	1	R1354E
1421.971	1.933	1422232	PROB	1.908	n/a	n/a	n/a	-999	13	[4, 2, 5]	11.0	catFR1	1	R1354E
1423.904	1.367	1424165	PROB	1.344	n/a	n/a	n/a	-999	13	[3, 9, 9]	21.0	catFR1	1	R1354E
1425.271	2.167	1425532	PROB	2.128	n/a	n/a	n/a	-999	13	[3, 6, 6]	15.0	catFR1	1	R1354E
1427.438	1.834	1427699	PROB	1.801	n/a	n/a	n/a	-999	13	[3, 7, 6]	16.0	catFR1	1	R1354E
1429.272	2.217	1429533	PROB	2.192	n/a	n/a	n/a	-999	13	[7, 3, 7]	17.0	catFR1	1	R1354E
1431.489	2.4	1431750	PROB	2.375	n/a	n/a	n/a	-999	13	[8, 2, 4]	14.0	catFR1	1	R1354E
1433.889	1.717	1434150	PROB	1.679	n/a	n/a	n/a	-999	13	[6, 9, 7]	22.0	catFR1	1	R1354E
1435.606	3.184	1435867	PROB	3.146	n/a	n/a	n/a	-999	13	[6, 9, 5]	20.0	catFR1	1	R1354E
1438.79	2.489	1439051	PROB	2.489	n/a	n/a	n/a	-999	13	[7, 9, 3]	20.0	catFR1	1	R1354E
1441.279	0.011	1441540	STOP	n/a	n/a	n/a	n/a	-999	13	[-999, -999, -999]	n/a	catFR1	1	R1354E
1441.29	0.642	1441551	DISTRACT_END	n/a	n/a	n/a	n/a	-999	13	[0, 0, 0]	n/a	catFR1	1	R1354E
1441.932	1.6	1442193	RETRIEVAL_ORIENT_START	n/a	n/a	n/a	n/a	-999	13	[0, 0, 0]	n/a	catFR1	1	R1354E
1443.575	0.0	1443836	RETRIEVAL_ORIENT_END	n/a	n/a	n/a	n/a	-999	13	[0, 0, 0]	n/a	catFR1	1	R1354E
1443.575	0.135	1443836	REC_START	n/a	n/a	n/a	n/a	-999	13	[0, 0, 0]	n/a	catFR1	1	R1354E
1443.71	0.849	1443971	REC_WORD	0.135	n/a	ZEBRA	Zoo	11	13	[0, 0, 0]	n/a	catFR1	1	R1354E
1444.559	0.999	1444820	REC_WORD	0.984	n/a	ELEPHANT	Zoo	12	13	[0, 0, 0]	n/a	catFR1	1	R1354E
1445.558	0.967	1445819	REC_WORD	1.983	n/a	TONGS	KitchenTools	1	13	[0, 0, 0]	n/a	catFR1	1	R1354E
1446.525	1.486	1446786	REC_WORD	2.95	n/a	CORKSCREW	KitchenTools	2	13	[0, 0, 0]	n/a	catFR1	1	R1354E
1448.011	25.576	1448272	REC_WORD	4.436	n/a	CABINET	Furniture	-999	13	[0, 0, 0]	n/a	catFR1	1	R1354E
1473.587	0.0	1473847	REC_END	n/a	n/a	n/a	n/a	-999	13	[0, 0, 0]	n/a	catFR1	1	R1354E
1473.587	0.026	1473847	TRIAL_END	n/a	n/a	n/a	n/a	-999	13	[0, 0, 0]	n/a	catFR1	1	R1354E
1473.613	0.0	1473873	TRIAL_START	n/a	n/a	n/a	n/a	-999	14	[0, 0, 0]	n/a	catFR1	1	R1354E
1473.613	0.0	1473873	TRIAL	n/a	n/a	n/a	n/a	-999	14	[0, 0, 0]	n/a	catFR1	1	R1354E
1473.613	1.884	1473873	WAITING_START	n/a	n/a	n/a	n/a	-999	14	[0, 0, 0]	n/a	catFR1	1	R1354E
1475.497	0.0	1475757	WAITING_END	n/a	n/a	n/a	n/a	-999	14	[0, 0, 0]	n/a	catFR1	1	R1354E
1475.497	10.0	1475757	COUNTDOWN_START	n/a	n/a	n/a	n/a	-999	14	[0, 0, 0]	n/a	catFR1	1	R1354E
1485.926	0.0	1486185	COUNTDOWN_END	n/a	n/a	n/a	n/a	-999	14	[0, 0, 0]	n/a	catFR1	1	R1354E
1485.926	1.139	1486185	ORIENT_START	n/a	n/a	n/a	n/a	-999	14	[0, 0, 0]	n/a	catFR1	1	R1354E
1487.065	0.001	1487324	ORIENT_END	n/a	n/a	n/a	n/a	-999	14	[0, 0, 0]	n/a	catFR1	1	R1354E
1487.066	1.043	1487325	ENCODING_START	n/a	n/a	n/a	n/a	-999	14	[0, 0, 0]	n/a	catFR1	1	R1354E
1488.109	1.6	1488368	WORD	n/a	wordpools/wordpool_categorized_EN.txt	WATER	Beverages	1	14	[0, 0, 0]	n/a	catFR1	1	R1354E
1489.733	1.095	1489992	WORD_OFF	n/a	n/a	WATER	Beverages	1	14	[0, 0, 0]	n/a	catFR1	1	R1354E
1490.828	1.6	1491087	WORD	n/a	wordpools/wordpool_categorized_EN.txt	COFFEE	Beverages	2	14	[0, 0, 0]	n/a	catFR1	1	R1354E
1492.45	1.125	1492709	WORD_OFF	n/a	n/a	COFFEE	Beverages	2	14	[0, 0, 0]	n/a	catFR1	1	R1354E
1493.575	1.6	1493834	WORD	n/a	wordpools/wordpool_categorized_EN.txt	STRAWBERRY	Fruit	3	14	[0, 0, 0]	n/a	catFR1	1	R1354E
1495.2	1.077	1495459	WORD_OFF	n/a	n/a	STRAWBERRY	Fruit	3	14	[0, 0, 0]	n/a	catFR1	1	R1354E
1496.277	1.6	1496536	WORD	n/a	wordpools/wordpool_categorized_EN.txt	PEACH	Fruit	4	14	[0, 0, 0]	n/a	catFR1	1	R1354E
1497.901	0.844	1498160	WORD_OFF	n/a	n/a	PEACH	Fruit	4	14	[0, 0, 0]	n/a	catFR1	1	R1354E
1498.745	1.6	1499004	WORD	n/a	wordpools/wordpool_categorized_EN.txt	SQUID	OceanAnimals	5	14	[0, 0, 0]	n/a	catFR1	1	R1354E
1500.368	1.103	1500627	WORD_OFF	n/a	n/a	SQUID	OceanAnimals	5	14	[0, 0, 0]	n/a	catFR1	1	R1354E
1501.471	1.6	1501730	WORD	n/a	wordpools/wordpool_categorized_EN.txt	CRAB	OceanAnimals	6	14	[0, 0, 0]	n/a	catFR1	1	R1354E
1503.102	0.925	1503361	WORD_OFF	n/a	n/a	CRAB	OceanAnimals	6	14	[0, 0, 0]	n/a	catFR1	1	R1354E
1504.027	1.6	1504286	WORD	n/a	wordpools/wordpool_categorized_EN.txt	WINE	Beverages	7	14	[0, 0, 0]	n/a	catFR1	1	R1354E
1505.652	0.756	1505910	WORD_OFF	n/a	n/a	WINE	Beverages	7	14	[0, 0, 0]	n/a	catFR1	1	R1354E
1506.408	1.6	1506666	WORD	n/a	wordpools/wordpool_categorized_EN.txt	SODA	Beverages	8	14	[0, 0, 0]	n/a	catFR1	1	R1354E
1508.036	0.77	1508294	WORD_OFF	n/a	n/a	SODA	Beverages	8	14	[0, 0, 0]	n/a	catFR1	1	R1354E
1508.806	1.6	1509064	WORD	n/a	wordpools/wordpool_categorized_EN.txt	BANANA	Fruit	9	14	[0, 0, 0]	n/a	catFR1	1	R1354E
1510.436	1.051	1510694	WORD_OFF	n/a	n/a	BANANA	Fruit	9	14	[0, 0, 0]	n/a	catFR1	1	R1354E
1511.487	1.6	1511745	WORD	n/a	wordpools/wordpool_categorized_EN.txt	PEAR	Fruit	10	14	[0, 0, 0]	n/a	catFR1	1	R1354E
1513.12	0.884	1513378	WORD_OFF	n/a	n/a	PEAR	Fruit	10	14	[0, 0, 0]	n/a	catFR1	1	R1354E
1514.004	1.6	1514262	WORD	n/a	wordpools/wordpool_categorized_EN.txt	OCTOPUS	OceanAnimals	11	14	[0, 0, 0]	n/a	catFR1	1	R1354E
1515.637	0.997	1515895	WORD_OFF	n/a	n/a	OCTOPUS	OceanAnimals	11	14	[0, 0, 0]	n/a	catFR1	1	R1354E
1516.634	1.6	1516892	WORD	n/a	wordpools/wordpool_categorized_EN.txt	OYSTER	OceanAnimals	12	14	[0, 0, 0]	n/a	catFR1	1	R1354E
1518.271	0.0	1518529	WORD_OFF	n/a	n/a	OYSTER	OceanAnimals	12	14	[0, 0, 0]	n/a	catFR1	1	R1354E
1518.271	0.0	1518529	ENCODING_END	n/a	n/a	n/a	n/a	-999	14	[0, 0, 0]	n/a	catFR1	1	R1354E
1518.271	0.001	1518529	DISTRACT_START	n/a	n/a	n/a	n/a	-999	14	[0, 0, 0]	n/a	catFR1	1	R1354E
1518.272	0.015	1518530	START	n/a	n/a	n/a	n/a	-999	14	[-999, -999, -999]	n/a	catFR1	1	R1354E
1518.287	1.834	1518545	PROB	1.796	n/a	n/a	n/a	-999	14	[1, 4, 2]	7.0	catFR1	1	R1354E
1520.121	1.233	1520379	PROB	1.201	n/a	n/a	n/a	-999	14	[1, 7, 1]	9.0	catFR1	1	R1354E
1521.354	1.251	1521612	PROB	1.217	n/a	n/a	n/a	-999	14	[7, 2, 1]	10.0	catFR1	1	R1354E
1522.605	2.517	1522863	PROB	2.478	n/a	n/a	n/a	-999	14	[7, 5, 8]	20.0	catFR1	1	R1354E
1525.122	1.4	1525380	PROB	1.377	n/a	n/a	n/a	-999	14	[3, 1, 7]	11.0	catFR1	1	R1354E
1526.522	2.567	1526780	PROB	2.536	n/a	n/a	n/a	-999	14	[4, 7, 6]	17.0	catFR1	1	R1354E
1529.089	1.934	1529347	PROB	1.899	n/a	n/a	n/a	-999	14	[2, 6, 8]	26.0	catFR1	1	R1354E
1531.023	2.85	1531281	PROB	2.812	n/a	n/a	n/a	-999	14	[9, 4, 3]	16.0	catFR1	1	R1354E
1533.873	1.367	1534130	PROB	1.338	n/a	n/a	n/a	-999	14	[1, 5, 1]	7.0	catFR1	1	R1354E
1535.24	2.734	1535497	PROB	2.699	n/a	n/a	n/a	-999	14	[8, 6, 5]	19.0	catFR1	1	R1354E
1537.974	1.413	1538231	PROB	1.413	n/a	n/a	n/a	-999	14	[9, 1, 9]	19.0	catFR1	1	R1354E
1539.387	0.021	1539644	STOP	n/a	n/a	n/a	n/a	-999	14	[-999, -999, -999]	n/a	catFR1	1	R1354E
1539.408	0.661	1539665	DISTRACT_END	n/a	n/a	n/a	n/a	-999	14	[0, 0, 0]	n/a	catFR1	1	R1354E
1540.069	1.6	1540326	RETRIEVAL_ORIENT_START	n/a	n/a	n/a	n/a	-999	14	[0, 0, 0]	n/a	catFR1	1	R1354E
1541.775	0.0	1542032	RETRIEVAL_ORIENT_END	n/a	n/a	n/a	n/a	-999	14	[0, 0, 0]	n/a	catFR1	1	R1354E
1541.775	0.049	1542032	REC_START	n/a	n/a	n/a	n/a	-999	14	[0, 0, 0]	n/a	catFR1	1	R1354E
1541.824	0.755	1542081	REC_WORD	0.049	n/a	WATER	Beverages	1	14	[0, 0, 0]	n/a	catFR1	1	R1354E
1542.579	0.57	1542836	REC_WORD	0.804	n/a	PEAR	Fruit	10	14	[0, 0, 0]	n/a	catFR1	1	R1354E
1543.149	2.306	1543406	REC_WORD	1.374	n/a	WINE	Beverages	7	14	[0, 0, 0]	n/a	catFR1	1	R1354E
1545.455	1.434	1545712	REC_WORD	3.68	n/a	SQUID	OceanAnimals	5	14	[0, 0, 0]	n/a	catFR1	1	R1354E
1546.889	3.188	1547146	REC_WORD	5.114	n/a	CRAB	OceanAnimals	6	14	[0, 0, 0]	n/a	catFR1	1	R1354E
1550.077	0.454	1550334	REC_WORD	8.302	n/a	PEAR	Fruit	10	14	[0, 0, 0]	n/a	catFR1	1	R1354E
1550.531	3.243	1550788	REC_WORD	8.756	n/a	BANANA	Fruit	9	14	[0, 0, 0]	n/a	catFR1	1	R1354E
1553.774	18.014	1554031	REC_WORD	11.999	n/a	SQUID	OceanAnimals	5	14	[0, 0, 0]	n/a	catFR1	1	R1354E
1571.788	0.0	1572044	REC_END	n/a	n/a	n/a	n/a	-999	14	[0, 0, 0]	n/a	catFR1	1	R1354E
1571.788	0.027	1572044	TRIAL_END	n/a	n/a	n/a	n/a	-999	14	[0, 0, 0]	n/a	catFR1	1	R1354E
1571.815	0.0	1572071	TRIAL_START	n/a	n/a	n/a	n/a	-999	15	[0, 0, 0]	n/a	catFR1	1	R1354E
1571.815	0.0	1572071	TRIAL	n/a	n/a	n/a	n/a	-999	15	[0, 0, 0]	n/a	catFR1	1	R1354E
1571.815	3.733	1572071	WAITING_START	n/a	n/a	n/a	n/a	-999	15	[0, 0, 0]	n/a	catFR1	1	R1354E
1575.548	0.0	1575804	WAITING_END	n/a	n/a	n/a	n/a	-999	15	[0, 0, 0]	n/a	catFR1	1	R1354E
1575.548	10.0	1575804	COUNTDOWN_START	n/a	n/a	n/a	n/a	-999	15	[0, 0, 0]	n/a	catFR1	1	R1354E
1585.976	0.0	1586232	COUNTDOWN_END	n/a	n/a	n/a	n/a	-999	15	[0, 0, 0]	n/a	catFR1	1	R1354E
1585.976	1.224	1586232	ORIENT_START	n/a	n/a	n/a	n/a	-999	15	[0, 0, 0]	n/a	catFR1	1	R1354E
1587.2	0.0	1587456	ORIENT_END	n/a	n/a	n/a	n/a	-999	15	[0, 0, 0]	n/a	catFR1	1	R1354E
1587.2	0.938	1587456	ENCODING_START	n/a	n/a	n/a	n/a	-999	15	[0, 0, 0]	n/a	catFR1	1	R1354E
1588.138	1.6	1588394	WORD	n/a	wordpools/wordpool_categorized_EN.txt	CIDER	Beverages	1	15	[0, 0, 0]	n/a	catFR1	1	R1354E
1589.767	1.086	1590022	WORD_OFF	n/a	n/a	CIDER	Beverages	1	15	[0, 0, 0]	n/a	catFR1	1	R1354E
1590.853	1.6	1591108	WORD	n/a	wordpools/wordpool_categorized_EN.txt	RUM	Beverages	2	15	[0, 0, 0]	n/a	catFR1	1	R1354E
1592.484	1.138	1592739	WORD_OFF	n/a	n/a	RUM	Beverages	2	15	[0, 0, 0]	n/a	catFR1	1	R1354E
1593.622	1.6	1593877	WORD	n/a	wordpools/wordpool_categorized_EN.txt	MOUSSE	Desserts	3	15	[0, 0, 0]	n/a	catFR1	1	R1354E
1595.251	0.991	1595506	WORD_OFF	n/a	n/a	MOUSSE	Desserts	3	15	[0, 0, 0]	n/a	catFR1	1	R1354E
1596.242	1.6	1596497	WORD	n/a	wordpools/wordpool_categorized_EN.txt	PUDDING	Desserts	4	15	[0, 0, 0]	n/a	catFR1	1	R1354E
1597.868	0.856	1598123	WORD_OFF	n/a	n/a	PUDDING	Desserts	4	15	[0, 0, 0]	n/a	catFR1	1	R1354E
1598.724	1.6	1598979	WORD	n/a	wordpools/wordpool_categorized_EN.txt	VAN	Vehicles	5	15	[0, 0, 0]	n/a	catFR1	1	R1354E
1600.351	0.861	1600606	WORD_OFF	n/a	n/a	VAN	Vehicles	5	15	[0, 0, 0]	n/a	catFR1	1	R1354E
1601.212	1.6	1601467	WORD	n/a	wordpools/wordpool_categorized_EN.txt	JEEP	Vehicles	6	15	[0, 0, 0]	n/a	catFR1	1	R1354E
1602.836	0.859	1603091	WORD_OFF	n/a	n/a	JEEP	Vehicles	6	15	[0, 0, 0]	n/a	catFR1	1	R1354E
1603.695	1.6	1603950	WORD	n/a	wordpools/wordpool_categorized_EN.txt	PASTRY	Desserts	7	15	[0, 0, 0]	n/a	catFR1	1	R1354E
1605.318	0.804	1605573	WORD_OFF	n/a	n/a	PASTRY	Desserts	7	15	[0, 0, 0]	n/a	catFR1	1	R1354E
1606.122	1.6	1606377	WORD	n/a	wordpools/wordpool_categorized_EN.txt	CUPCAKE	Desserts	8	15	[0, 0, 0]	n/a	catFR1	1	R1354E
1607.753	1.066	1608008	WORD_OFF	n/a	n/a	CUPCAKE	Desserts	8	15	[0, 0, 0]	n/a	catFR1	1	R1354E
1608.819	1.6	1609074	WORD	n/a	wordpools/wordpool_categorized_EN.txt	BEER	Beverages	9	15	[0, 0, 0]	n/a	catFR1	1	R1354E
1610.454	0.915	1610709	WORD_OFF	n/a	n/a	BEER	Beverages	9	15	[0, 0, 0]	n/a	catFR1	1	R1354E
1611.369	1.6	1611624	WORD	n/a	wordpools/wordpool_categorized_EN.txt	MILK	Beverages	10	15	[0, 0, 0]	n/a	catFR1	1	R1354E
1613.004	0.991	1613259	WORD_OFF	n/a	n/a	MILK	Beverages	10	15	[0, 0, 0]	n/a	catFR1	1	R1354E
1613.995	1.6	1614250	WORD	n/a	wordpools/wordpool_categorized_EN.txt	MOTORCYCLE	Vehicles	11	15	[0, 0, 0]	n/a	catFR1	1	R1354E
1615.621	1.069	1615876	WORD_OFF	n/a	n/a	MOTORCYCLE	Vehicles	11	15	[0, 0, 0]	n/a	catFR1	1	R1354E
1616.69	1.6	1616945	WORD	n/a	wordpools/wordpool_categorized_EN.txt	BIKE	Vehicles	12	15	[0, 0, 0]	n/a	catFR1	1	R1354E
1618.321	0.0	1618575	WORD_OFF	n/a	n/a	BIKE	Vehicles	12	15	[0, 0, 0]	n/a	catFR1	1	R1354E
1618.321	0.0	1618575	ENCODING_END	n/a	n/a	n/a	n/a	-999	15	[0, 0, 0]	n/a	catFR1	1	R1354E
1618.321	0.001	1618575	DISTRACT_START	n/a	n/a	n/a	n/a	-999	15	[0, 0, 0]	n/a	catFR1	1	R1354E
1618.322	0.015	1618576	START	n/a	n/a	n/a	n/a	-999	15	[-999, -999, -999]	n/a	catFR1	1	R1354E
1618.337	2.552	1618591	PROB	2.526	n/a	n/a	n/a	-999	15	[7, 6, 5]	18.0	catFR1	1	R1354E
1620.889	1.116	1621143	PROB	1.078	n/a	n/a	n/a	-999	15	[2, 1, 2]	5.0	catFR1	1	R1354E
1622.005	3.101	1622259	PROB	3.067	n/a	n/a	n/a	-999	15	[7, 4, 9]	20.0	catFR1	1	R1354E
1625.106	1.85	1625360	PROB	1.814	n/a	n/a	n/a	-999	15	[4, 3, 3]	10.0	catFR1	1	R1354E
1626.956	1.417	1627210	PROB	1.379	n/a	n/a	n/a	-999	15	[9, 1, 4]	14.0	catFR1	1	R1354E
1628.373	2.167	1628627	PROB	2.139	n/a	n/a	n/a	-999	15	[9, 6, 3]	18.0	catFR1	1	R1354E
1630.54	2.084	1630794	PROB	2.06	n/a	n/a	n/a	-999	15	[4, 5, 7]	16.0	catFR1	1	R1354E
1632.624	2.95	1632878	PROB	2.912	n/a	n/a	n/a	-999	15	[4, 5, 8]	17.0	catFR1	1	R1354E
1635.574	1.884	1635828	PROB	1.858	n/a	n/a	n/a	-999	15	[6, 5, 4]	15.0	catFR1	1	R1354E
1637.458	1.574	1637712	PROB	1.574	n/a	n/a	n/a	-999	15	[7, 2, 2]	11.0	catFR1	1	R1354E
1639.032	0.01	1639286	STOP	n/a	n/a	n/a	n/a	-999	15	[-999, -999, -999]	n/a	catFR1	1	R1354E
1639.042	0.578	1639296	DISTRACT_END	n/a	n/a	n/a	n/a	-999	15	[0, 0, 0]	n/a	catFR1	1	R1354E
1639.62	1.6	1639874	RETRIEVAL_ORIENT_START	n/a	n/a	n/a	n/a	-999	15	[0, 0, 0]	n/a	catFR1	1	R1354E
1641.242	0.001	1641496	RETRIEVAL_ORIENT_END	n/a	n/a	n/a	n/a	-999	15	[0, 0, 0]	n/a	catFR1	1	R1354E
1641.243	0.2	1641497	REC_START	n/a	n/a	n/a	n/a	-999	15	[0, 0, 0]	n/a	catFR1	1	R1354E
1641.443	0.428	1641697	REC_WORD	0.2	n/a	BEER	Beverages	9	15	[0, 0, 0]	n/a	catFR1	1	R1354E
1641.871	1.14	1642125	REC_WORD	0.628	n/a	MOTORCYCLE	Vehicles	11	15	[0, 0, 0]	n/a	catFR1	1	R1354E
1643.011	1.145	1643265	REC_WORD	1.768	n/a	BIKE	Vehicles	12	15	[0, 0, 0]	n/a	catFR1	1	R1354E
1644.156	0.883	1644410	REC_WORD	2.913	n/a	RUM	Beverages	2	15	[0, 0, 0]	n/a	catFR1	1	R1354E
1645.039	0.882	1645293	REC_WORD	3.796	n/a	MOUSSE	Desserts	3	15	[0, 0, 0]	n/a	catFR1	1	R1354E
1645.921	25.333	1646174	REC_WORD	4.678	n/a	CIDER	Beverages	1	15	[0, 0, 0]	n/a	catFR1	1	R1354E
1671.254	0.001	1671507	REC_END	n/a	n/a	n/a	n/a	-999	15	[0, 0, 0]	n/a	catFR1	1	R1354E
1671.255	0.025	1671508	TRIAL_END	n/a	n/a	n/a	n/a	-999	15	[0, 0, 0]	n/a	catFR1	1	R1354E
1671.28	0.001	1671533	TRIAL_START	n/a	n/a	n/a	n/a	-999	16	[0, 0, 0]	n/a	catFR1	1	R1354E
1671.281	0.0	1671534	TRIAL	n/a	n/a	n/a	n/a	-999	16	[0, 0, 0]	n/a	catFR1	1	R1354E
1671.281	2.033	1671534	WAITING_START	n/a	n/a	n/a	n/a	-999	16	[0, 0, 0]	n/a	catFR1	1	R1354E
1673.314	0.0	1673567	WAITING_END	n/a	n/a	n/a	n/a	-999	16	[0, 0, 0]	n/a	catFR1	1	R1354E
1673.314	10.0	1673567	COUNTDOWN_START	n/a	n/a	n/a	n/a	-999	16	[0, 0, 0]	n/a	catFR1	1	R1354E
1683.742	0.001	1683994	COUNTDOWN_END	n/a	n/a	n/a	n/a	-999	16	[0, 0, 0]	n/a	catFR1	1	R1354E
1683.743	1.141	1683995	ORIENT_START	n/a	n/a	n/a	n/a	-999	16	[0, 0, 0]	n/a	catFR1	1	R1354E
1684.884	0.0	1685136	ORIENT_END	n/a	n/a	n/a	n/a	-999	16	[0, 0, 0]	n/a	catFR1	1	R1354E
1684.884	0.881	1685136	ENCODING_START	n/a	n/a	n/a	n/a	-999	16	[0, 0, 0]	n/a	catFR1	1	R1354E
1685.765	1.6	1686017	WORD	n/a	wordpools/wordpool_categorized_EN.txt	CHEESECAKE	Desserts	1	16	[0, 0, 0]	n/a	catFR1	1	R1354E
1687.4	1.144	1687652	WORD_OFF	n/a	n/a	CHEESECAKE	Desserts	1	16	[0, 0, 0]	n/a	catFR1	1	R1354E
1688.544	1.6	1688796	WORD	n/a	wordpools/wordpool_categorized_EN.txt	COBBLER	Desserts	2	16	[0, 0, 0]	n/a	catFR1	1	R1354E
1690.168	0.972	1690420	WORD_OFF	n/a	n/a	COBBLER	Desserts	2	16	[0, 0, 0]	n/a	catFR1	1	R1354E
1691.14	1.6	1691392	WORD	n/a	wordpools/wordpool_categorized_EN.txt	COMPUTER	Electronics	3	16	[0, 0, 0]	n/a	catFR1	1	R1354E
1692.768	0.792	1693020	WORD_OFF	n/a	n/a	COMPUTER	Electronics	3	16	[0, 0, 0]	n/a	catFR1	1	R1354E
1693.56	1.6	1693812	WORD	n/a	wordpools/wordpool_categorized_EN.txt	SCANNER	Electronics	4	16	[0, 0, 0]	n/a	catFR1	1	R1354E
1695.185	0.776	1695437	WORD_OFF	n/a	n/a	SCANNER	Electronics	4	16	[0, 0, 0]	n/a	catFR1	1	R1354E
1695.961	1.6	1696213	WORD	n/a	wordpools/wordpool_categorized_EN.txt	CHICKEN	FarmAnimals	5	16	[0, 0, 0]	n/a	catFR1	1	R1354E
1697.585	0.925	1697837	WORD_OFF	n/a	n/a	CHICKEN	FarmAnimals	5	16	[0, 0, 0]	n/a	catFR1	1	R1354E
1698.51	1.6	1698762	WORD	n/a	wordpools/wordpool_categorized_EN.txt	ROOSTER	FarmAnimals	6	16	[0, 0, 0]	n/a	catFR1	1	R1354E
1700.136	1.047	1700388	WORD_OFF	n/a	n/a	ROOSTER	FarmAnimals	6	16	[0, 0, 0]	n/a	catFR1	1	R1354E
1701.183	1.6	1701435	WORD	n/a	wordpools/wordpool_categorized_EN.txt	STEREO	Electronics	7	16	[0, 0, 0]	n/a	catFR1	1	R1354E
1702.82	0.806	1703071	WORD_OFF	n/a	n/a	STEREO	Electronics	7	16	[0, 0, 0]	n/a	catFR1	1	R1354E
1703.626	1.6	1703877	WORD	n/a	wordpools/wordpool_categorized_EN.txt	HEADPHONES	Electronics	8	16	[0, 0, 0]	n/a	catFR1	1	R1354E
1705.254	0.858	1705505	WORD_OFF	n/a	n/a	HEADPHONES	Electronics	8	16	[0, 0, 0]	n/a	catFR1	1	R1354E
1706.112	1.6	1706363	WORD	n/a	wordpools/wordpool_categorized_EN.txt	BULL	FarmAnimals	9	16	[0, 0, 0]	n/a	catFR1	1	R1354E
1707.737	1.038	1707988	WORD_OFF	n/a	n/a	BULL	FarmAnimals	9	16	[0, 0, 0]	n/a	catFR1	1	R1354E
1708.775	1.6	1709026	WORD	n/a	wordpools/wordpool_categorized_EN.txt	PIG	FarmAnimals	10	16	[0, 0, 0]	n/a	catFR1	1	R1354E
1710.405	0.928	1710656	WORD_OFF	n/a	n/a	PIG	FarmAnimals	10	16	[0, 0, 0]	n/a	catFR1	1	R1354E
1711.333	1.6	1711584	WORD	n/a	wordpools/wordpool_categorized_EN.txt	BROWNIES	Desserts	11	16	[0, 0, 0]	n/a	catFR1	1	R1354E
1712.955	0.923	1713206	WORD_OFF	n/a	n/a	BROWNIES	Desserts	11	16	[0, 0, 0]	n/a	catFR1	1	R1354E
1713.878	1.6	1714129	WORD	n/a	wordpools/wordpool_categorized_EN.txt	PIE	Desserts	12	16	[0, 0, 0]	n/a	catFR1	1	R1354E
1715.505	0.001	1715756	WORD_OFF	n/a	n/a	PIE	Desserts	12	16	[0, 0, 0]	n/a	catFR1	1	R1354E
1715.506	0.0	1715757	ENCODING_END	n/a	n/a	n/a	n/a	-999	16	[0, 0, 0]	n/a	catFR1	1	R1354E
1715.506	0.0	1715757	DISTRACT_START	n/a	n/a	n/a	n/a	-999	16	[0, 0, 0]	n/a	catFR1	1	R1354E
1715.506	0.016	1715757	START	n/a	n/a	n/a	n/a	-999	16	[-999, -999, -999]	n/a	catFR1	1	R1354E
1715.522	2.1	1715773	PROB	2.062	n/a	n/a	n/a	-999	16	[2, 7, 3]	12.0	catFR1	1	R1354E
1717.622	1.767	1717873	PROB	1.729	n/a	n/a	n/a	-999	16	[4, 8, 4]	16.0	catFR1	1	R1354E
1719.389	3.317	1719640	PROB	3.282	n/a	n/a	n/a	-999	16	[6, 7, 5]	18.0	catFR1	1	R1354E
1722.706	1.351	1722957	PROB	1.317	n/a	n/a	n/a	-999	16	[9, 7, 2]	18.0	catFR1	1	R1354E
1724.057	1.333	1724308	PROB	1.302	n/a	n/a	n/a	-999	16	[2, 5, 2]	9.0	catFR1	1	R1354E
1725.39	1.167	1725641	PROB	1.138	n/a	n/a	n/a	-999	16	[1, 2, 3]	6.0	catFR1	1	R1354E
1726.557	2.334	1726808	PROB	2.307	n/a	n/a	n/a	-999	16	[7, 9, 7]	23.0	catFR1	1	R1354E
1728.891	1.5	1729142	PROB	1.469	n/a	n/a	n/a	-999	16	[6, 5, 2]	13.0	catFR1	1	R1354E
1730.391	1.284	1730641	PROB	1.248	n/a	n/a	n/a	-999	16	[8, 4, 1]	13.0	catFR1	1	R1354E
1731.675	1.317	1731925	PROB	1.277	n/a	n/a	n/a	-999	16	[5, 4, 5]	14.0	catFR1	1	R1354E
1732.992	4.197	1733242	PROB	4.197	n/a	n/a	n/a	-999	16	[9, 7, 6]	2.0	catFR1	1	R1354E
1737.189	0.02	1737439	STOP	n/a	n/a	n/a	n/a	-999	16	[-999, -999, -999]	n/a	catFR1	1	R1354E
1737.209	0.681	1737459	DISTRACT_END	n/a	n/a	n/a	n/a	-999	16	[0, 0, 0]	n/a	catFR1	1	R1354E
1737.89	1.6	1738140	RETRIEVAL_ORIENT_START	n/a	n/a	n/a	n/a	-999	16	[0, 0, 0]	n/a	catFR1	1	R1354E
1739.476	0.001	1739726	RETRIEVAL_ORIENT_END	n/a	n/a	n/a	n/a	-999	16	[0, 0, 0]	n/a	catFR1	1	R1354E
1739.477	0.17	1739727	REC_START	n/a	n/a	n/a	n/a	-999	16	[0, 0, 0]	n/a	catFR1	1	R1354E
1739.647	0.841	1739897	REC_WORD	0.17	n/a	CHEESECAKE	Desserts	1	16	[0, 0, 0]	n/a	catFR1	1	R1354E
1740.488	2.636	1740738	REC_WORD	1.011	n/a	COBBLER	Desserts	2	16	[0, 0, 0]	n/a	catFR1	1	R1354E
1743.124	26.364	1743374	REC_WORD	3.647	n/a	PIE	Desserts	12	16	[0, 0, 0]	n/a	catFR1	1	R1354E
1769.488	0.0	1769737	REC_END	n/a	n/a	n/a	n/a	-999	16	[0, 0, 0]	n/a	catFR1	1	R1354E
1769.488	0.026	1769737	TRIAL_END	n/a	n/a	n/a	n/a	-999	16	[0, 0, 0]	n/a	catFR1	1	R1354E
1769.514	0.0	1769763	TRIAL_START	n/a	n/a	n/a	n/a	-999	17	[0, 0, 0]	n/a	catFR1	1	R1354E
1769.514	0.0	1769763	TRIAL	n/a	n/a	n/a	n/a	-999	17	[0, 0, 0]	n/a	catFR1	1	R1354E
1769.514	2.018	1769763	WAITING_START	n/a	n/a	n/a	n/a	-999	17	[0, 0, 0]	n/a	catFR1	1	R1354E
1771.532	0.0	1771781	WAITING_END	n/a	n/a	n/a	n/a	-999	17	[0, 0, 0]	n/a	catFR1	1	R1354E
1771.532	10.0	1771781	COUNTDOWN_START	n/a	n/a	n/a	n/a	-999	17	[0, 0, 0]	n/a	catFR1	1	R1354E
1781.961	0.001	1782210	COUNTDOWN_END	n/a	n/a	n/a	n/a	-999	17	[0, 0, 0]	n/a	catFR1	1	R1354E
1781.962	1.239	1782211	ORIENT_START	n/a	n/a	n/a	n/a	-999	17	[0, 0, 0]	n/a	catFR1	1	R1354E
1783.201	0.0	1783450	ORIENT_END	n/a	n/a	n/a	n/a	-999	17	[0, 0, 0]	n/a	catFR1	1	R1354E
1783.201	0.889	1783450	ENCODING_START	n/a	n/a	n/a	n/a	-999	17	[0, 0, 0]	n/a	catFR1	1	R1354E
1784.09	1.6	1784339	WORD	n/a	wordpools/wordpool_categorized_EN.txt	SEAGULL	Birds	1	17	[0, 0, 0]	n/a	catFR1	1	R1354E
1785.718	0.876	1785967	WORD_OFF	n/a	n/a	SEAGULL	Birds	1	17	[0, 0, 0]	n/a	catFR1	1	R1354E
1786.594	1.6	1786842	WORD	n/a	wordpools/wordpool_categorized_EN.txt	GOOSE	Birds	2	17	[0, 0, 0]	n/a	catFR1	1	R1354E
1788.218	0.893	1788466	WORD_OFF	n/a	n/a	GOOSE	Birds	2	17	[0, 0, 0]	n/a	catFR1	1	R1354E
1789.111	1.6	1789359	WORD	n/a	wordpools/wordpool_categorized_EN.txt	DRESS	Clothing	3	17	[0, 0, 0]	n/a	catFR1	1	R1354E
1790.735	0.752	1790983	WORD_OFF	n/a	n/a	DRESS	Clothing	3	17	[0, 0, 0]	n/a	catFR1	1	R1354E
1791.487	1.6	1791735	WORD	n/a	wordpools/wordpool_categorized_EN.txt	SKIRT	Clothing	4	17	[0, 0, 0]	n/a	catFR1	1	R1354E
1793.119	1.013	1793367	WORD_OFF	n/a	n/a	SKIRT	Clothing	4	17	[0, 0, 0]	n/a	catFR1	1	R1354E
1794.132	1.6	1794380	WORD	n/a	wordpools/wordpool_categorized_EN.txt	BASS	Instruments	5	17	[0, 0, 0]	n/a	catFR1	1	R1354E
1795.753	0.948	1796001	WORD_OFF	n/a	n/a	BASS	Instruments	5	17	[0, 0, 0]	n/a	catFR1	1	R1354E
1796.701	1.6	1796949	WORD	n/a	wordpools/wordpool_categorized_EN.txt	TUBA	Instruments	6	17	[0, 0, 0]	n/a	catFR1	1	R1354E
1798.335	0.764	1798583	WORD_OFF	n/a	n/a	TUBA	Instruments	6	17	[0, 0, 0]	n/a	catFR1	1	R1354E
1799.099	1.6	1799347	WORD	n/a	wordpools/wordpool_categorized_EN.txt	DOVE	Birds	7	17	[0, 0, 0]	n/a	catFR1	1	R1354E
1800.72	0.782	1800968	WORD_OFF	n/a	n/a	DOVE	Birds	7	17	[0, 0, 0]	n/a	catFR1	1	R1354E
1801.502	1.6	1801750	WORD	n/a	wordpools/wordpool_categorized_EN.txt	FINCH	Birds	8	17	[0, 0, 0]	n/a	catFR1	1	R1354E
1803.137	0.751	1803385	WORD_OFF	n/a	n/a	FINCH	Birds	8	17	[0, 0, 0]	n/a	catFR1	1	R1354E
1803.888	1.6	1804136	WORD	n/a	wordpools/wordpool_categorized_EN.txt	TROMBONE	Instruments	9	17	[0, 0, 0]	n/a	catFR1	1	R1354E
1805.521	0.846	1805769	WORD_OFF	n/a	n/a	TROMBONE	Instruments	9	17	[0, 0, 0]	n/a	catFR1	1	R1354E
1806.367	1.6	1806615	WORD	n/a	wordpools/wordpool_categorized_EN.txt	ORGAN	Instruments	10	17	[0, 0, 0]	n/a	catFR1	1	R1354E
1807.988	1.062	1808236	WORD_OFF	n/a	n/a	ORGAN	Instruments	10	17	[0, 0, 0]	n/a	catFR1	1	R1354E
1809.05	1.6	1809298	WORD	n/a	wordpools/wordpool_categorized_EN.txt	JACKET	Clothing	11	17	[0, 0, 0]	n/a	catFR1	1	R1354E
1810.672	1.06	1810920	WORD_OFF	n/a	n/a	JACKET	Clothing	11	17	[0, 0, 0]	n/a	catFR1	1	R1354E
1811.732	1.6	1811980	WORD	n/a	wordpools/wordpool_categorized_EN.txt	COAT	Clothing	12	17	[0, 0, 0]	n/a	catFR1	1	R1354E
1813.355	0.0	1813603	WORD_OFF	n/a	n/a	COAT	Clothing	12	17	[0, 0, 0]	n/a	catFR1	1	R1354E
1813.355	0.0	1813603	ENCODING_END	n/a	n/a	n/a	n/a	-999	17	[0, 0, 0]	n/a	catFR1	1	R1354E
1813.355	0.001	1813603	DISTRACT_START	n/a	n/a	n/a	n/a	-999	17	[0, 0, 0]	n/a	catFR1	1	R1354E
1813.356	0.016	1813604	START	n/a	n/a	n/a	n/a	-999	17	[-999, -999, -999]	n/a	catFR1	1	R1354E
1813.372	2.384	1813620	PROB	2.349	n/a	n/a	n/a	-999	17	[4, 6, 8]	18.0	catFR1	1	R1354E
1815.756	1.717	1816003	PROB	1.685	n/a	n/a	n/a	-999	17	[7, 8, 4]	19.0	catFR1	1	R1354E
1817.473	2.2	1817720	PROB	2.168	n/a	n/a	n/a	-999	17	[9, 8, 5]	22.0	catFR1	1	R1354E
1819.673	1.584	1819920	PROB	1.552	n/a	n/a	n/a	-999	17	[5, 1, 9]	15.0	catFR1	1	R1354E
1821.257	1.2	1821504	PROB	1.175	n/a	n/a	n/a	-999	17	[2, 5, 5]	12.0	catFR1	1	R1354E
1822.457	1.833	1822704	PROB	1.799	n/a	n/a	n/a	-999	17	[7, 9, 8]	24.0	catFR1	1	R1354E
1824.29	1.818	1824537	PROB	1.79	n/a	n/a	n/a	-999	17	[3, 4, 1]	8.0	catFR1	1	R1354E
1826.108	1.95	1826355	PROB	1.925	n/a	n/a	n/a	-999	17	[4, 8, 6]	18.0	catFR1	1	R1354E
1828.058	1.734	1828305	PROB	1.703	n/a	n/a	n/a	-999	17	[2, 7, 8]	17.0	catFR1	1	R1354E
1829.792	2.2	1830039	PROB	2.168	n/a	n/a	n/a	-999	17	[8, 6, 7]	21.0	catFR1	1	R1354E
1831.992	1.528	1832239	PROB	1.528	n/a	n/a	n/a	-999	17	[8, 5, 3]	16.0	catFR1	1	R1354E
1833.52	0.006	1833767	STOP	n/a	n/a	n/a	n/a	-999	17	[-999, -999, -999]	n/a	catFR1	1	R1354E
1833.526	0.571	1833773	DISTRACT_END	n/a	n/a	n/a	n/a	-999	17	[0, 0, 0]	n/a	catFR1	1	R1354E
1834.097	1.6	1834344	RETRIEVAL_ORIENT_START	n/a	n/a	n/a	n/a	-999	17	[0, 0, 0]	n/a	catFR1	1	R1354E
1835.71	0.0	1835957	RETRIEVAL_ORIENT_END	n/a	n/a	n/a	n/a	-999	17	[0, 0, 0]	n/a	catFR1	1	R1354E
1835.71	0.0	1835957	REC_START	n/a	n/a	n/a	n/a	-999	17	[0, 0, 0]	n/a	catFR1	1	R1354E
1835.71	0.593	1835957	REC_WORD	0.0	n/a	TUBA	Instruments	6	17	[0, 0, 0]	n/a	catFR1	1	R1354E
1836.303	2.353	1836550	REC_WORD	0.593	n/a	TROMBONE	Instruments	9	17	[0, 0, 0]	n/a	catFR1	1	R1354E
1838.656	0.892	1838903	REC_WORD	2.946	n/a	DRESS	Clothing	3	17	[0, 0, 0]	n/a	catFR1	1	R1354E
1839.548	10.366	1839795	REC_WORD	3.838	n/a	BLOUSE	Clothing	-999	17	[0, 0, 0]	n/a	catFR1	1	R1354E
1849.914	8.564	1850160	REC_WORD	14.204	n/a	ORGAN	Instruments	10	17	[0, 0, 0]	n/a	catFR1	1	R1354E
1858.478	7.245	1858724	REC_WORD	22.768	n/a	SEAGULL	Birds	1	17	[0, 0, 0]	n/a	catFR1	1	R1354E
1865.723	0.0	1865969	REC_END	n/a	n/a	n/a	n/a	-999	17	[0, 0, 0]	n/a	catFR1	1	R1354E
1865.723	0.027	1865969	TRIAL_END	n/a	n/a	n/a	n/a	-999	17	[0, 0, 0]	n/a	catFR1	1	R1354E
1865.75	0.0	1865996	TRIAL_START	n/a	n/a	n/a	n/a	-999	18	[0, 0, 0]	n/a	catFR1	1	R1354E
1865.75	0.0	1865996	TRIAL	n/a	n/a	n/a	n/a	-999	18	[0, 0, 0]	n/a	catFR1	1	R1354E
1865.75	5.466	1865996	WAITING_START	n/a	n/a	n/a	n/a	-999	18	[0, 0, 0]	n/a	catFR1	1	R1354E
1871.216	0.0	1871461	WAITING_END	n/a	n/a	n/a	n/a	-999	18	[0, 0, 0]	n/a	catFR1	1	R1354E
1871.216	10.0	1871461	COUNTDOWN_START	n/a	n/a	n/a	n/a	-999	18	[0, 0, 0]	n/a	catFR1	1	R1354E
1881.645	0.001	1881890	COUNTDOWN_END	n/a	n/a	n/a	n/a	-999	18	[0, 0, 0]	n/a	catFR1	1	R1354E
1881.646	1.105	1881891	ORIENT_START	n/a	n/a	n/a	n/a	-999	18	[0, 0, 0]	n/a	catFR1	1	R1354E
1882.751	0.001	1882996	ORIENT_END	n/a	n/a	n/a	n/a	-999	18	[0, 0, 0]	n/a	catFR1	1	R1354E
