onset	duration	sample	trial_type	response_time	stim_file	item_name	category	serialpos	list	test	answer	experiment	session	subject
0.0	5.432	257575	INSTRUCT_START	n/a	n/a	n/a	n/a	-999	-999	[0, 0, 0]	n/a	catFR1	0	R1454M
5.432	4.966	263006	INSTRUCT_END	n/a	n/a	n/a	n/a	-999	-999	[0, 0, 0]	n/a	catFR1	0	R1454M
10.398	2.733	267991	INSTRUCT_START	n/a	n/a	n/a	n/a	-999	-999	[0, 0, 0]	n/a	catFR1	0	R1454M
13.131	36.183	270719	INSTRUCT_END	n/a	n/a	n/a	n/a	-999	-999	[0, 0, 0]	n/a	catFR1	0	R1454M
49.314	10.0	306902	COUNTDOWN_START	n/a	n/a	n/a	n/a	-999	-999	[0, 0, 0]	n/a	catFR1	0	R1454M
59.715	0.0	317294	COUNTDOWN_END	n/a	n/a	n/a	n/a	-999	-999	[0, 0, 0]	n/a	catFR1	0	R1454M
59.715	2.133	317294	ENCODING_START	n/a	n/a	n/a	n/a	-999	-1	[0, 0, 0]	n/a	catFR1	0	R1454M
61.848	1.6	319426	WORD	n/a	n/a	SPINACH	Vegetables	1	-1	[0, 0, 0]	n/a	catFR1	0	R1454M
63.448	0.866	321034	WORD_OFF	n/a	n/a	SPINACH	Vegetables	1	-1	[0, 0, 0]	n/a	catFR1	0	R1454M
64.314	1.6	321902	WORD	n/a	n/a	BROCCOLI	Vegetables	2	-1	[0, 0, 0]	n/a	catFR1	0	R1454M
65.931	0.9	323514	WORD_OFF	n/a	n/a	BROCCOLI	Vegetables	2	-1	[0, 0, 0]	n/a	catFR1	0	R1454M
66.831	1.6	324411	WORD	n/a	n/a	DOOR	Building	3	-1	[0, 0, 0]	n/a	catFR1	0	R1454M
68.448	0.899	326023	WORD_OFF	n/a	n/a	DOOR	Building	3	-1	[0, 0, 0]	n/a	catFR1	0	R1454M
69.347	1.6	326916	WORD	n/a	n/a	BATHROOM	Building	4	-1	[0, 0, 0]	n/a	catFR1	0	R1454M
70.964	0.967	328553	WORD_OFF	n/a	n/a	BATHROOM	Building	4	-1	[0, 0, 0]	n/a	catFR1	0	R1454M
71.931	1.6	329515	WORD	n/a	n/a	GORILLA	Zoo	5	-1	[0, 0, 0]	n/a	catFR1	0	R1454M
73.548	0.933	331132	WORD_OFF	n/a	n/a	GORILLA	Zoo	5	-1	[0, 0, 0]	n/a	catFR1	0	R1454M
74.481	1.6	332050	WORD	n/a	n/a	LION	Zoo	6	-1	[0, 0, 0]	n/a	catFR1	0	R1454M
76.081	0.783	333662	WORD_OFF	n/a	n/a	LION	Zoo	6	-1	[0, 0, 0]	n/a	catFR1	0	R1454M
76.864	1.6	334455	WORD	n/a	n/a	HALLWAY	Building	7	-1	[0, 0, 0]	n/a	catFR1	0	R1454M
78.481	0.966	336062	WORD_OFF	n/a	n/a	HALLWAY	Building	7	-1	[0, 0, 0]	n/a	catFR1	0	R1454M
79.447	1.6	337034	WORD	n/a	n/a	WALL	Building	8	-1	[0, 0, 0]	n/a	catFR1	0	R1454M
81.047	0.95	338622	WORD_OFF	n/a	n/a	WALL	Building	8	-1	[0, 0, 0]	n/a	catFR1	0	R1454M
81.997	1.6	339584	WORD	n/a	n/a	CUCUMBER	Vegetables	9	-1	[0, 0, 0]	n/a	catFR1	0	R1454M
83.597	0.883	341176	WORD_OFF	n/a	n/a	CUCUMBER	Vegetables	9	-1	[0, 0, 0]	n/a	catFR1	0	R1454M
84.48	1.6	342064	WORD	n/a	n/a	ONION	Vegetables	10	-1	[0, 0, 0]	n/a	catFR1	0	R1454M
86.097	0.916	343681	WORD_OFF	n/a	n/a	ONION	Vegetables	10	-1	[0, 0, 0]	n/a	catFR1	0	R1454M
87.013	1.6	344594	WORD	n/a	n/a	CHEETAH	Zoo	11	-1	[0, 0, 0]	n/a	catFR1	0	R1454M
88.614	0.8	346186	WORD_OFF	n/a	n/a	CHEETAH	Zoo	11	-1	[0, 0, 0]	n/a	catFR1	0	R1454M
89.414	1.6	347004	WORD	n/a	n/a	GIRAFFE	Zoo	12	-1	[0, 0, 0]	n/a	catFR1	0	R1454M
91.014	0.002	348591	WORD_OFF	n/a	n/a	GIRAFFE	Zoo	12	-1	[0, 0, 0]	n/a	catFR1	0	R1454M
91.016	0.0	348591	ENCODING_END	n/a	n/a	n/a	n/a	-999	-1	[0, 0, 0]	n/a	catFR1	0	R1454M
91.016	0.0	348591	DISTRACT_START	n/a	n/a	n/a	n/a	-999	-1	[0, 0, 0]	n/a	catFR1	0	R1454M
91.015	0.001	348591	PROB	3.783	n/a	n/a	n/a	-999	-1	[2, 5, 1]	8.0	catFR1	0	R1454M
91.016	3.798	348592	START	n/a	n/a	n/a	n/a	-999	-1	[-999, -999, -999]	n/a	catFR1	0	R1454M
94.814	3.518	352390	PROB	3.5	n/a	n/a	n/a	-999	-1	[7, 8, 6]	21.0	catFR1	0	R1454M
98.332	3.6	355908	PROB	3.584	n/a	n/a	n/a	-999	-1	[2, 2, 5]	9.0	catFR1	0	R1454M
101.932	3.499	359507	PROB	3.483	n/a	n/a	n/a	-999	-1	[2, 2, 4]	8.0	catFR1	0	R1454M
105.431	3.901	363006	PROB	3.882	n/a	n/a	n/a	-999	-1	[8, 8, 2]	18.0	catFR1	0	R1454M
109.332	3.732	366907	PROB	3.716	n/a	n/a	n/a	-999	-1	[4, 4, 3]	11.0	catFR1	0	R1454M
113.064	0.0	370638	DISTRACT_END	n/a	n/a	n/a	n/a	-999	-1	[0, 0, 0]	n/a	catFR1	0	R1454M
113.064	2.316	370639	STOP	n/a	n/a	n/a	n/a	-999	-1	[-999, -999, -999]	n/a	catFR1	0	R1454M
115.38	0.943	372953	REC_START	n/a	n/a	n/a	n/a	-999	-1	[0, 0, 0]	n/a	catFR1	0	R1454M
116.323	1.001	373898	REC_WORD	0.943	n/a	SPINACH	Vegetables	1	-1	[0, 0, 0]	n/a	catFR1	0	R1454M
117.324	0.789	374899	REC_WORD_VV	1.944	n/a	<>	n/a	-999	-1	[0, 0, 0]	n/a	catFR1	0	R1454M
118.113	1.893	375688	REC_WORD	2.733	n/a	CHEETAH	Zoo	11	-1	[0, 0, 0]	n/a	catFR1	0	R1454M
120.006	2.565	377581	REC_WORD	4.626	n/a	LION	Zoo	6	-1	[0, 0, 0]	n/a	catFR1	0	R1454M
122.571	5.192	380145	REC_WORD_VV	7.191	n/a	<>	n/a	-999	-1	[0, 0, 0]	n/a	catFR1	0	R1454M
127.763	17.859	385337	REC_WORD	12.383	n/a	BROCCOLI	Vegetables	2	-1	[0, 0, 0]	n/a	catFR1	0	R1454M
145.622	28.658	403201	REC_END	n/a	n/a	n/a	n/a	-999	-1	[0, 0, 0]	n/a	catFR1	0	R1454M
174.28	10.0	431865	COUNTDOWN_START	n/a	n/a	n/a	n/a	-999	1	[0, 0, 0]	n/a	catFR1	0	R1454M
184.631	0.0	442211	COUNTDOWN_END	n/a	n/a	n/a	n/a	-999	1	[0, 0, 0]	n/a	catFR1	0	R1454M
184.631	2.133	442211	ENCODING_START	n/a	n/a	n/a	n/a	-999	1	[0, 0, 0]	n/a	catFR1	0	R1454M
186.764	1.6	444339	WORD	n/a	wordpools/wordpool_categorized_EN.txt	CRAB	OceanAnimals	1	1	[0, 0, 0]	n/a	catFR1	0	R1454M
188.364	0.767	445931	WORD_OFF	n/a	n/a	CRAB	OceanAnimals	1	1	[0, 0, 0]	n/a	catFR1	0	R1454M
189.131	1.6	446700	WORD	n/a	wordpools/wordpool_categorized_EN.txt	OYSTER	OceanAnimals	2	1	[0, 0, 0]	n/a	catFR1	0	R1454M
190.731	0.784	448312	WORD_OFF	n/a	n/a	OYSTER	OceanAnimals	2	1	[0, 0, 0]	n/a	catFR1	0	R1454M
191.515	1.6	449081	WORD	n/a	wordpools/wordpool_categorized_EN.txt	CAKE	Desserts	3	1	[0, 0, 0]	n/a	catFR1	0	R1454M
193.115	0.784	450693	WORD_OFF	n/a	n/a	CAKE	Desserts	3	1	[0, 0, 0]	n/a	catFR1	0	R1454M
193.899	1.6	451461	WORD	n/a	wordpools/wordpool_categorized_EN.txt	COBBLER	Desserts	4	1	[0, 0, 0]	n/a	catFR1	0	R1454M
195.514	0.984	453093	WORD_OFF	n/a	n/a	COBBLER	Desserts	4	1	[0, 0, 0]	n/a	catFR1	0	R1454M
196.498	1.6	454065	WORD	n/a	wordpools/wordpool_categorized_EN.txt	PEN	OfficeSupplies	5	1	[0, 0, 0]	n/a	catFR1	0	R1454M
198.098	0.766	455677	WORD_OFF	n/a	n/a	PEN	OfficeSupplies	5	1	[0, 0, 0]	n/a	catFR1	0	R1454M
198.864	1.6	456441	WORD	n/a	wordpools/wordpool_categorized_EN.txt	ERASER	OfficeSupplies	6	1	[0, 0, 0]	n/a	catFR1	0	R1454M
200.464	0.817	458033	WORD_OFF	n/a	n/a	ERASER	OfficeSupplies	6	1	[0, 0, 0]	n/a	catFR1	0	R1454M
201.281	1.6	458852	WORD	n/a	wordpools/wordpool_categorized_EN.txt	JELLYFISH	OceanAnimals	7	1	[0, 0, 0]	n/a	catFR1	0	R1454M
202.898	0.916	460464	WORD_OFF	n/a	n/a	JELLYFISH	OceanAnimals	7	1	[0, 0, 0]	n/a	catFR1	0	R1454M
203.814	1.6	461381	WORD	n/a	wordpools/wordpool_categorized_EN.txt	PLANKTON	OceanAnimals	8	1	[0, 0, 0]	n/a	catFR1	0	R1454M
205.431	0.866	462993	WORD_OFF	n/a	n/a	PLANKTON	OceanAnimals	8	1	[0, 0, 0]	n/a	catFR1	0	R1454M
206.297	1.6	463861	WORD	n/a	wordpools/wordpool_categorized_EN.txt	BINDER	OfficeSupplies	9	1	[0, 0, 0]	n/a	catFR1	0	R1454M
207.913	0.934	465493	WORD_OFF	n/a	n/a	BINDER	OfficeSupplies	9	1	[0, 0, 0]	n/a	catFR1	0	R1454M
208.847	1.6	466416	WORD	n/a	wordpools/wordpool_categorized_EN.txt	FOLDER	OfficeSupplies	10	1	[0, 0, 0]	n/a	catFR1	0	R1454M
210.448	0.799	468028	WORD_OFF	n/a	n/a	FOLDER	OfficeSupplies	10	1	[0, 0, 0]	n/a	catFR1	0	R1454M
211.247	1.6	468821	WORD	n/a	wordpools/wordpool_categorized_EN.txt	COOKIE	Desserts	11	1	[0, 0, 0]	n/a	catFR1	0	R1454M
212.848	0.983	470429	WORD_OFF	n/a	n/a	COOKIE	Desserts	11	1	[0, 0, 0]	n/a	catFR1	0	R1454M
213.831	1.6	471401	WORD	n/a	wordpools/wordpool_categorized_EN.txt	PIE	Desserts	12	1	[0, 0, 0]	n/a	catFR1	0	R1454M
215.432	0.0	473002	START	n/a	n/a	n/a	n/a	-999	1	[-999, -999, -999]	n/a	catFR1	0	R1454M
215.432	0.0	473002	PROB	3.916	n/a	n/a	n/a	-999	1	[3, 2, 5]	10.0	catFR1	0	R1454M
215.431	0.001	473013	WORD_OFF	n/a	n/a	PIE	Desserts	12	1	[0, 0, 0]	n/a	catFR1	0	R1454M
215.432	0.0	473013	ENCODING_END	n/a	n/a	n/a	n/a	-999	1	[0, 0, 0]	n/a	catFR1	0	R1454M
215.432	3.933	473013	DISTRACT_START	n/a	n/a	n/a	n/a	-999	1	[0, 0, 0]	n/a	catFR1	0	R1454M
219.365	3.767	476935	PROB	3.749	n/a	n/a	n/a	-999	1	[6, 3, 1]	10.0	catFR1	0	R1454M
223.132	4.033	480702	PROB	4.016	n/a	n/a	n/a	-999	1	[8, 3, 4]	15.0	catFR1	0	R1454M
227.165	3.467	484734	PROB	3.449	n/a	n/a	n/a	-999	1	[4, 6, 2]	12.0	catFR1	0	R1454M
230.632	2.965	488201	PROB	2.949	n/a	n/a	n/a	-999	1	[2, 1, 1]	4.0	catFR1	0	R1454M
233.597	3.15	491166	PROB	3.134	n/a	n/a	n/a	-999	1	[1, 2, 8]	11.0	catFR1	0	R1454M
236.747	0.0	494316	DISTRACT_END	n/a	n/a	n/a	n/a	-999	1	[0, 0, 0]	n/a	catFR1	0	R1454M
236.747	2.034	494316	STOP	n/a	n/a	n/a	n/a	-999	1	[-999, -999, -999]	n/a	catFR1	0	R1454M
238.781	1.472	496352	REC_START	n/a	n/a	n/a	n/a	-999	1	[0, 0, 0]	n/a	catFR1	0	R1454M
240.253	1.005	497822	REC_WORD	1.472	n/a	CRAB	OceanAnimals	1	1	[0, 0, 0]	n/a	catFR1	0	R1454M
241.258	2.261	498827	REC_WORD	2.477	n/a	OYSTER	OceanAnimals	2	1	[0, 0, 0]	n/a	catFR1	0	R1454M
243.519	4.047	501088	REC_WORD	4.738	n/a	CAKE	Desserts	3	1	[0, 0, 0]	n/a	catFR1	0	R1454M
247.566	4.002	505134	REC_WORD	8.785	n/a	JELLYFISH	OceanAnimals	7	1	[0, 0, 0]	n/a	catFR1	0	R1454M
251.568	7.554	509136	REC_WORD	12.787	n/a	PLANKTON	OceanAnimals	8	1	[0, 0, 0]	n/a	catFR1	0	R1454M
259.122	9.935	516690	REC_WORD_VV	20.341	n/a	<>	n/a	-999	1	[0, 0, 0]	n/a	catFR1	0	R1454M
269.057	11.391	526630	REC_END	n/a	n/a	n/a	n/a	-999	1	[0, 0, 0]	n/a	catFR1	0	R1454M
280.448	10.0	538013	COUNTDOWN_START	n/a	n/a	n/a	n/a	-999	2	[0, 0, 0]	n/a	catFR1	0	R1454M
290.797	0.0	548375	COUNTDOWN_END	n/a	n/a	n/a	n/a	-999	2	[0, 0, 0]	n/a	catFR1	0	R1454M
290.797	2.234	548380	ENCODING_START	n/a	n/a	n/a	n/a	-999	2	[0, 0, 0]	n/a	catFR1	0	R1454M
293.031	1.6	550607	WORD	n/a	wordpools/wordpool_categorized_EN.txt	BUS	Vehicles	1	2	[0, 0, 0]	n/a	catFR1	0	R1454M
294.631	0.883	552199	WORD_OFF	n/a	n/a	BUS	Vehicles	1	2	[0, 0, 0]	n/a	catFR1	0	R1454M
295.514	1.6	553087	WORD	n/a	wordpools/wordpool_categorized_EN.txt	BOAT	Vehicles	2	2	[0, 0, 0]	n/a	catFR1	0	R1454M
297.114	0.916	554679	WORD_OFF	n/a	n/a	BOAT	Vehicles	2	2	[0, 0, 0]	n/a	catFR1	0	R1454M
298.03	1.6	555596	WORD	n/a	wordpools/wordpool_categorized_EN.txt	LOBSTER	OceanAnimals	3	2	[0, 0, 0]	n/a	catFR1	0	R1454M
299.646	0.785	557208	WORD_OFF	n/a	n/a	LOBSTER	OceanAnimals	3	2	[0, 0, 0]	n/a	catFR1	0	R1454M
300.431	1.6	558002	WORD	n/a	wordpools/wordpool_categorized_EN.txt	SQUID	OceanAnimals	4	2	[0, 0, 0]	n/a	catFR1	0	R1454M
302.031	0.983	559589	WORD_OFF	n/a	n/a	SQUID	OceanAnimals	4	2	[0, 0, 0]	n/a	catFR1	0	R1454M
303.014	1.6	560581	WORD	n/a	wordpools/wordpool_categorized_EN.txt	JELLO	Desserts	5	2	[0, 0, 0]	n/a	catFR1	0	R1454M
304.614	0.9	562188	WORD_OFF	n/a	n/a	JELLO	Desserts	5	2	[0, 0, 0]	n/a	catFR1	0	R1454M
305.514	1.6	563086	WORD	n/a	wordpools/wordpool_categorized_EN.txt	CUPCAKE	Desserts	6	2	[0, 0, 0]	n/a	catFR1	0	R1454M
307.114	0.934	564673	WORD_OFF	n/a	n/a	CUPCAKE	Desserts	6	2	[0, 0, 0]	n/a	catFR1	0	R1454M
308.048	1.6	565616	WORD	n/a	wordpools/wordpool_categorized_EN.txt	TURTLE	OceanAnimals	7	2	[0, 0, 0]	n/a	catFR1	0	R1454M
309.648	0.899	567223	WORD_OFF	n/a	n/a	TURTLE	OceanAnimals	7	2	[0, 0, 0]	n/a	catFR1	0	R1454M
310.547	1.6	568120	WORD	n/a	wordpools/wordpool_categorized_EN.txt	DOLPHIN	OceanAnimals	8	2	[0, 0, 0]	n/a	catFR1	0	R1454M
312.148	0.8	569708	WORD_OFF	n/a	n/a	DOLPHIN	OceanAnimals	8	2	[0, 0, 0]	n/a	catFR1	0	R1454M
312.948	1.6	570521	WORD	n/a	wordpools/wordpool_categorized_EN.txt	CAR	Vehicles	9	2	[0, 0, 0]	n/a	catFR1	0	R1454M
314.548	0.933	572113	WORD_OFF	n/a	n/a	CAR	Vehicles	9	2	[0, 0, 0]	n/a	catFR1	0	R1454M
315.481	1.6	573056	WORD	n/a	wordpools/wordpool_categorized_EN.txt	TRAIN	Vehicles	10	2	[0, 0, 0]	n/a	catFR1	0	R1454M
317.081	0.916	574643	WORD_OFF	n/a	n/a	TRAIN	Vehicles	10	2	[0, 0, 0]	n/a	catFR1	0	R1454M
317.997	1.6	575560	WORD	n/a	wordpools/wordpool_categorized_EN.txt	PUDDING	Desserts	11	2	[0, 0, 0]	n/a	catFR1	0	R1454M
319.614	0.782	577172	WORD_OFF	n/a	n/a	PUDDING	Desserts	11	2	[0, 0, 0]	n/a	catFR1	0	R1454M
320.396	1.6	577966	WORD	n/a	wordpools/wordpool_categorized_EN.txt	PASTRY	Desserts	12	2	[0, 0, 0]	n/a	catFR1	0	R1454M
321.998	0.001	579563	PROB	3.816	n/a	n/a	n/a	-999	2	[6, 4, 2]	12.0	catFR1	0	R1454M
321.999	0.0	579564	START	n/a	n/a	n/a	n/a	-999	2	[-999, -999, -999]	n/a	catFR1	0	R1454M
321.998	0.001	579573	WORD_OFF	n/a	n/a	PASTRY	Desserts	12	2	[0, 0, 0]	n/a	catFR1	0	R1454M
321.999	0.0	579578	ENCODING_END	n/a	n/a	n/a	n/a	-999	2	[0, 0, 0]	n/a	catFR1	0	R1454M
321.999	3.833	579578	DISTRACT_START	n/a	n/a	n/a	n/a	-999	2	[0, 0, 0]	n/a	catFR1	0	R1454M
325.832	3.916	583397	PROB	3.899	n/a	n/a	n/a	-999	2	[2, 5, 6]	13.0	catFR1	0	R1454M
329.748	5.3	587312	PROB	5.283	n/a	n/a	n/a	-999	2	[6, 6, 2]	8.0	catFR1	0	R1454M
335.048	4.817	592612	PROB	4.799	n/a	n/a	n/a	-999	2	[3, 4, 3]	10.0	catFR1	0	R1454M
339.865	2.682	597429	PROB	2.666	n/a	n/a	n/a	-999	2	[1, 2, 3]	6.0	catFR1	0	R1454M
342.547	0.0	600111	STOP	n/a	n/a	n/a	n/a	-999	2	[-999, -999, -999]	n/a	catFR1	0	R1454M
342.547	2.201	600112	DISTRACT_END	n/a	n/a	n/a	n/a	-999	2	[0, 0, 0]	n/a	catFR1	0	R1454M
344.748	1.344	602323	REC_START	n/a	n/a	n/a	n/a	-999	2	[0, 0, 0]	n/a	catFR1	0	R1454M
346.092	1.888	603656	REC_WORD	1.344	n/a	PASTRY	Desserts	12	2	[0, 0, 0]	n/a	catFR1	0	R1454M
347.98	3.13	605544	REC_WORD	3.232	n/a	CAKE	Desserts	-999	2	[0, 0, 0]	n/a	catFR1	0	R1454M
351.11	3.584	608673	REC_WORD	6.362	n/a	LOBSTER	OceanAnimals	3	2	[0, 0, 0]	n/a	catFR1	0	R1454M
354.694	4.853	612257	REC_WORD	9.946	n/a	CRAB	OceanAnimals	-999	2	[0, 0, 0]	n/a	catFR1	0	R1454M
359.547	2.226	617110	REC_WORD_VV	14.799	n/a	<>	n/a	-999	2	[0, 0, 0]	n/a	catFR1	0	R1454M
361.773	2.189	619336	REC_WORD	17.025	n/a	BUS	Vehicles	1	2	[0, 0, 0]	n/a	catFR1	0	R1454M
363.962	3.022	621525	REC_WORD	19.214	n/a	BOAT	Vehicles	2	2	[0, 0, 0]	n/a	catFR1	0	R1454M
366.984	8.009	624547	REC_WORD	22.236	n/a	TRAIN	Vehicles	10	2	[0, 0, 0]	n/a	catFR1	0	R1454M
374.993	23.372	632551	REC_END	n/a	n/a	n/a	n/a	-999	2	[0, 0, 0]	n/a	catFR1	0	R1454M
398.365	10.0	655937	COUNTDOWN_START	n/a	n/a	n/a	n/a	-999	3	[0, 0, 0]	n/a	catFR1	0	R1454M
408.715	0.0	666279	COUNTDOWN_END	n/a	n/a	n/a	n/a	-999	3	[0, 0, 0]	n/a	catFR1	0	R1454M
408.715	1.983	666279	ENCODING_START	n/a	n/a	n/a	n/a	-999	3	[0, 0, 0]	n/a	catFR1	0	R1454M
410.698	1.6	668263	WORD	n/a	wordpools/wordpool_categorized_EN.txt	COUCH	Furniture	1	3	[0, 0, 0]	n/a	catFR1	0	R1454M
412.298	0.866	669870	WORD_OFF	n/a	n/a	COUCH	Furniture	1	3	[0, 0, 0]	n/a	catFR1	0	R1454M
413.164	1.6	670718	WORD	n/a	wordpools/wordpool_categorized_EN.txt	RECLINER	Furniture	2	3	[0, 0, 0]	n/a	catFR1	0	R1454M
414.764	0.934	672330	WORD_OFF	n/a	n/a	RECLINER	Furniture	2	3	[0, 0, 0]	n/a	catFR1	0	R1454M
415.698	1.6	673267	WORD	n/a	wordpools/wordpool_categorized_EN.txt	SCOOTER	Vehicles	3	3	[0, 0, 0]	n/a	catFR1	0	R1454M
417.298	0.916	674859	WORD_OFF	n/a	n/a	SCOOTER	Vehicles	3	3	[0, 0, 0]	n/a	catFR1	0	R1454M
418.214	1.6	675777	WORD	n/a	wordpools/wordpool_categorized_EN.txt	TRUCK	Vehicles	4	3	[0, 0, 0]	n/a	catFR1	0	R1454M
419.831	0.817	677389	WORD_OFF	n/a	n/a	TRUCK	Vehicles	4	3	[0, 0, 0]	n/a	catFR1	0	R1454M
420.648	1.6	678207	WORD	n/a	wordpools/wordpool_categorized_EN.txt	VIOLIN	Instruments	5	3	[0, 0, 0]	n/a	catFR1	0	R1454M
422.264	0.9	679819	WORD_OFF	n/a	n/a	VIOLIN	Instruments	5	3	[0, 0, 0]	n/a	catFR1	0	R1454M
423.164	1.6	680737	WORD	n/a	wordpools/wordpool_categorized_EN.txt	GUITAR	Instruments	6	3	[0, 0, 0]	n/a	catFR1	0	R1454M
424.781	0.833	682344	WORD_OFF	n/a	n/a	GUITAR	Instruments	6	3	[0, 0, 0]	n/a	catFR1	0	R1454M
425.614	1.6	683167	WORD	n/a	wordpools/wordpool_categorized_EN.txt	VAN	Vehicles	7	3	[0, 0, 0]	n/a	catFR1	0	R1454M
427.214	0.917	684779	WORD_OFF	n/a	n/a	VAN	Vehicles	7	3	[0, 0, 0]	n/a	catFR1	0	R1454M
428.131	1.6	685697	WORD	n/a	wordpools/wordpool_categorized_EN.txt	BIKE	Vehicles	8	3	[0, 0, 0]	n/a	catFR1	0	R1454M
429.748	0.983	687309	WORD_OFF	n/a	n/a	BIKE	Vehicles	8	3	[0, 0, 0]	n/a	catFR1	0	R1454M
430.731	1.6	688296	WORD	n/a	wordpools/wordpool_categorized_EN.txt	CABINET	Furniture	9	3	[0, 0, 0]	n/a	catFR1	0	R1454M
432.331	1.0	689888	WORD_OFF	n/a	n/a	CABINET	Furniture	9	3	[0, 0, 0]	n/a	catFR1	0	R1454M
433.331	1.6	690900	WORD	n/a	wordpools/wordpool_categorized_EN.txt	BOOKCASE	Furniture	10	3	[0, 0, 0]	n/a	catFR1	0	R1454M
434.931	0.799	692492	WORD_OFF	n/a	n/a	BOOKCASE	Furniture	10	3	[0, 0, 0]	n/a	catFR1	0	R1454M
435.73	1.6	693286	WORD	n/a	wordpools/wordpool_categorized_EN.txt	PIANO	Instruments	11	3	[0, 0, 0]	n/a	catFR1	0	R1454M
437.347	0.951	694918	WORD_OFF	n/a	n/a	PIANO	Instruments	11	3	[0, 0, 0]	n/a	catFR1	0	R1454M
438.298	1.6	695865	WORD	n/a	wordpools/wordpool_categorized_EN.txt	CELLO	Instruments	12	3	[0, 0, 0]	n/a	catFR1	0	R1454M
439.914	0.001	697473	PROB	3.349	n/a	n/a	n/a	-999	3	[2, 1, 3]	6.0	catFR1	0	R1454M
439.915	0.0	697474	START	n/a	n/a	n/a	n/a	-999	3	[-999, -999, -999]	n/a	catFR1	0	R1454M
439.914	0.001	697477	WORD_OFF	n/a	n/a	CELLO	Instruments	12	3	[0, 0, 0]	n/a	catFR1	0	R1454M
439.915	0.0	697477	ENCODING_END	n/a	n/a	n/a	n/a	-999	3	[0, 0, 0]	n/a	catFR1	0	R1454M
439.915	3.366	697477	DISTRACT_START	n/a	n/a	n/a	n/a	-999	3	[0, 0, 0]	n/a	catFR1	0	R1454M
443.281	3.401	700840	PROB	3.382	n/a	n/a	n/a	-999	3	[4, 4, 4]	12.0	catFR1	0	R1454M
446.682	3.182	704241	PROB	3.166	n/a	n/a	n/a	-999	3	[1, 5, 2]	8.0	catFR1	0	R1454M
449.864	3.75	707423	PROB	3.733	n/a	n/a	n/a	-999	3	[8, 3, 1]	12.0	catFR1	0	R1454M
453.614	3.101	711172	PROB	3.083	n/a	n/a	n/a	-999	3	[7, 1, 4]	12.0	catFR1	0	R1454M
456.715	3.216	714273	PROB	3.199	n/a	n/a	n/a	-999	3	[6, 1, 6]	13.0	catFR1	0	R1454M
459.931	0.0	717489	STOP	n/a	n/a	n/a	n/a	-999	3	[-999, -999, -999]	n/a	catFR1	0	R1454M
459.931	2.183	717491	DISTRACT_END	n/a	n/a	n/a	n/a	-999	3	[0, 0, 0]	n/a	catFR1	0	R1454M
462.114	1.178	719676	REC_START	n/a	n/a	n/a	n/a	-999	3	[0, 0, 0]	n/a	catFR1	0	R1454M
463.292	1.005	720850	REC_WORD	1.178	n/a	GUITAR	Instruments	6	3	[0, 0, 0]	n/a	catFR1	0	R1454M
464.297	0.771	721855	REC_WORD_VV	2.183	n/a	<>	n/a	-999	3	[0, 0, 0]	n/a	catFR1	0	R1454M
465.068	3.798	722626	REC_WORD	2.954	n/a	CELLO	Instruments	12	3	[0, 0, 0]	n/a	catFR1	0	R1454M
468.866	4.653	726424	REC_WORD	6.752	n/a	TRUCK	Vehicles	4	3	[0, 0, 0]	n/a	catFR1	0	R1454M
473.519	6.572	731076	REC_WORD	11.405	n/a	BUS	Vehicles	-999	3	[0, 0, 0]	n/a	catFR1	0	R1454M
480.091	12.263	737648	REC_WORD_VV	17.977	n/a	<>	n/a	-999	3	[0, 0, 0]	n/a	catFR1	0	R1454M
492.354	6.477	749904	REC_END	n/a	n/a	n/a	n/a	-999	3	[0, 0, 0]	n/a	catFR1	0	R1454M
498.831	10.0	756402	COUNTDOWN_START	n/a	n/a	n/a	n/a	-999	4	[0, 0, 0]	n/a	catFR1	0	R1454M
509.182	0.0	766743	COUNTDOWN_END	n/a	n/a	n/a	n/a	-999	4	[0, 0, 0]	n/a	catFR1	0	R1454M
509.182	2.332	766743	ENCODING_START	n/a	n/a	n/a	n/a	-999	4	[0, 0, 0]	n/a	catFR1	0	R1454M
511.514	1.6	769074	WORD	n/a	wordpools/wordpool_categorized_EN.txt	SODA	Beverages	1	4	[0, 0, 0]	n/a	catFR1	0	R1454M
513.114	0.884	770682	WORD_OFF	n/a	n/a	SODA	Beverages	1	4	[0, 0, 0]	n/a	catFR1	0	R1454M
513.998	1.6	771554	WORD	n/a	wordpools/wordpool_categorized_EN.txt	TEA	Beverages	2	4	[0, 0, 0]	n/a	catFR1	0	R1454M
515.598	0.933	773162	WORD_OFF	n/a	n/a	TEA	Beverages	2	4	[0, 0, 0]	n/a	catFR1	0	R1454M
516.531	1.6	774084	WORD	n/a	wordpools/wordpool_categorized_EN.txt	MOSQUITO	Insects	3	4	[0, 0, 0]	n/a	catFR1	0	R1454M
518.131	0.817	775691	WORD_OFF	n/a	n/a	MOSQUITO	Insects	3	4	[0, 0, 0]	n/a	catFR1	0	R1454M
518.948	1.6	776514	WORD	n/a	wordpools/wordpool_categorized_EN.txt	LADYBUG	Insects	4	4	[0, 0, 0]	n/a	catFR1	0	R1454M
520.548	0.766	778102	WORD_OFF	n/a	n/a	LADYBUG	Insects	4	4	[0, 0, 0]	n/a	catFR1	0	R1454M
521.314	1.6	778870	WORD	n/a	wordpools/wordpool_categorized_EN.txt	LILY	Flowers	5	4	[0, 0, 0]	n/a	catFR1	0	R1454M
522.914	0.8	780482	WORD_OFF	n/a	n/a	LILY	Flowers	5	4	[0, 0, 0]	n/a	catFR1	0	R1454M
523.714	1.6	781276	WORD	n/a	wordpools/wordpool_categorized_EN.txt	VIOLET	Flowers	6	4	[0, 0, 0]	n/a	catFR1	0	R1454M
525.314	0.933	782863	WORD_OFF	n/a	n/a	VIOLET	Flowers	6	4	[0, 0, 0]	n/a	catFR1	0	R1454M
526.247	1.6	783806	WORD	n/a	wordpools/wordpool_categorized_EN.txt	COFFEE	Beverages	7	4	[0, 0, 0]	n/a	catFR1	0	R1454M
527.866	0.797	785418	WORD_OFF	n/a	n/a	COFFEE	Beverages	7	4	[0, 0, 0]	n/a	catFR1	0	R1454M
528.663	1.6	786211	WORD	n/a	wordpools/wordpool_categorized_EN.txt	CIDER	Beverages	8	4	[0, 0, 0]	n/a	catFR1	0	R1454M
530.264	0.834	787823	WORD_OFF	n/a	n/a	CIDER	Beverages	8	4	[0, 0, 0]	n/a	catFR1	0	R1454M
531.098	1.6	788662	WORD	n/a	wordpools/wordpool_categorized_EN.txt	BUTTERFLY	Insects	9	4	[0, 0, 0]	n/a	catFR1	0	R1454M
532.698	0.983	790254	WORD_OFF	n/a	n/a	BUTTERFLY	Insects	9	4	[0, 0, 0]	n/a	catFR1	0	R1454M
533.681	1.6	791246	WORD	n/a	wordpools/wordpool_categorized_EN.txt	MOTH	Insects	10	4	[0, 0, 0]	n/a	catFR1	0	R1454M
535.281	0.783	792833	WORD_OFF	n/a	n/a	MOTH	Insects	10	4	[0, 0, 0]	n/a	catFR1	0	R1454M
536.064	1.6	793622	WORD	n/a	wordpools/wordpool_categorized_EN.txt	CARNATION	Flowers	11	4	[0, 0, 0]	n/a	catFR1	0	R1454M
537.664	0.95	795214	WORD_OFF	n/a	n/a	CARNATION	Flowers	11	4	[0, 0, 0]	n/a	catFR1	0	R1454M
538.614	1.6	796176	WORD	n/a	wordpools/wordpool_categorized_EN.txt	ORCHID	Flowers	12	4	[0, 0, 0]	n/a	catFR1	0	R1454M
540.214	0.002	797768	WORD_OFF	n/a	n/a	ORCHID	Flowers	12	4	[0, 0, 0]	n/a	catFR1	0	R1454M
540.216	0.0	797768	ENCODING_END	n/a	n/a	n/a	n/a	-999	4	[0, 0, 0]	n/a	catFR1	0	R1454M
540.216	0.0	797768	DISTRACT_START	n/a	n/a	n/a	n/a	-999	4	[0, 0, 0]	n/a	catFR1	0	R1454M
540.215	0.001	797769	PROB	4.316	n/a	n/a	n/a	-999	4	[6, 3, 4]	13.0	catFR1	0	R1454M
540.216	4.332	797770	START	n/a	n/a	n/a	n/a	-999	4	[-999, -999, -999]	n/a	catFR1	0	R1454M
544.548	3.1	802102	PROB	3.083	n/a	n/a	n/a	-999	4	[1, 5, 1]	7.0	catFR1	0	R1454M
547.648	3.2	805202	PROB	3.182	n/a	n/a	n/a	-999	4	[8, 2, 4]	14.0	catFR1	0	R1454M
550.848	3.9	808402	PROB	3.883	n/a	n/a	n/a	-999	4	[5, 8, 6]	19.0	catFR1	0	R1454M
554.748	4.033	812301	PROB	4.016	n/a	n/a	n/a	-999	4	[1, 6, 2]	9.0	catFR1	0	R1454M
558.781	2.9	816334	PROB	2.882	n/a	n/a	n/a	-999	4	[3, 1, 2]	6.0	catFR1	0	R1454M
561.681	0.0	819234	STOP	n/a	n/a	n/a	n/a	-999	4	[-999, -999, -999]	n/a	catFR1	0	R1454M
561.681	2.116	819245	DISTRACT_END	n/a	n/a	n/a	n/a	-999	4	[0, 0, 0]	n/a	catFR1	0	R1454M
563.797	1.811	821361	REC_START	n/a	n/a	n/a	n/a	-999	4	[0, 0, 0]	n/a	catFR1	0	R1454M
565.608	1.541	823161	REC_WORD	1.811	n/a	ORCHID	Flowers	12	4	[0, 0, 0]	n/a	catFR1	0	R1454M
567.149	12.194	824702	REC_WORD	3.352	n/a	LILY	Flowers	5	4	[0, 0, 0]	n/a	catFR1	0	R1454M
579.343	1.46	836895	REC_WORD	15.546	n/a	CELLO	Instruments	-999	4	[0, 0, 0]	n/a	catFR1	0	R1454M
580.803	13.249	838355	REC_WORD	17.006	n/a	GUITAR	Instruments	-999	4	[0, 0, 0]	n/a	catFR1	0	R1454M
594.052	21.211	851609	REC_END	n/a	n/a	n/a	n/a	-999	4	[0, 0, 0]	n/a	catFR1	0	R1454M
615.263	10.0	872813	COUNTDOWN_START	n/a	n/a	n/a	n/a	-999	5	[0, 0, 0]	n/a	catFR1	0	R1454M
625.615	0.0	883174	COUNTDOWN_END	n/a	n/a	n/a	n/a	-999	5	[0, 0, 0]	n/a	catFR1	0	R1454M
625.615	1.966	883179	ENCODING_START	n/a	n/a	n/a	n/a	-999	5	[0, 0, 0]	n/a	catFR1	0	R1454M
627.581	1.6	885138	WORD	n/a	wordpools/wordpool_categorized_EN.txt	LADLE	KitchenTools	1	5	[0, 0, 0]	n/a	catFR1	0	R1454M
629.181	1.0	886725	WORD_OFF	n/a	n/a	LADLE	KitchenTools	1	5	[0, 0, 0]	n/a	catFR1	0	R1454M
630.181	1.6	887737	WORD	n/a	wordpools/wordpool_categorized_EN.txt	TONGS	KitchenTools	2	5	[0, 0, 0]	n/a	catFR1	0	R1454M
631.781	0.967	889329	WORD_OFF	n/a	n/a	TONGS	KitchenTools	2	5	[0, 0, 0]	n/a	catFR1	0	R1454M
632.748	1.6	890297	WORD	n/a	wordpools/wordpool_categorized_EN.txt	LAKE	Landscapes	3	5	[0, 0, 0]	n/a	catFR1	0	R1454M
634.348	0.866	891909	WORD_OFF	n/a	n/a	LAKE	Landscapes	3	5	[0, 0, 0]	n/a	catFR1	0	R1454M
635.214	1.6	892772	WORD	n/a	wordpools/wordpool_categorized_EN.txt	FOREST	Landscapes	4	5	[0, 0, 0]	n/a	catFR1	0	R1454M
636.814	0.85	894364	WORD_OFF	n/a	n/a	FOREST	Landscapes	4	5	[0, 0, 0]	n/a	catFR1	0	R1454M
637.664	1.6	895207	WORD	n/a	wordpools/wordpool_categorized_EN.txt	VELVET	Fabric	5	5	[0, 0, 0]	n/a	catFR1	0	R1454M
639.281	1.0	896839	WORD_OFF	n/a	n/a	VELVET	Fabric	5	5	[0, 0, 0]	n/a	catFR1	0	R1454M
640.281	1.6	897836	WORD	n/a	wordpools/wordpool_categorized_EN.txt	WOOL	Fabric	6	5	[0, 0, 0]	n/a	catFR1	0	R1454M
641.881	0.817	899423	WORD_OFF	n/a	n/a	WOOL	Fabric	6	5	[0, 0, 0]	n/a	catFR1	0	R1454M
642.698	1.6	900241	WORD	n/a	wordpools/wordpool_categorized_EN.txt	SPOON	KitchenTools	7	5	[0, 0, 0]	n/a	catFR1	0	R1454M
644.314	1.0	901873	WORD_OFF	n/a	n/a	SPOON	KitchenTools	7	5	[0, 0, 0]	n/a	catFR1	0	R1454M
645.314	1.6	902870	WORD	n/a	wordpools/wordpool_categorized_EN.txt	GRATER	KitchenTools	8	5	[0, 0, 0]	n/a	catFR1	0	R1454M
646.931	0.899	904482	WORD_OFF	n/a	n/a	GRATER	KitchenTools	8	5	[0, 0, 0]	n/a	catFR1	0	R1454M
647.83	1.6	905375	WORD	n/a	wordpools/wordpool_categorized_EN.txt	HILLS	Landscapes	9	5	[0, 0, 0]	n/a	catFR1	0	R1454M
649.431	0.8	906987	WORD_OFF	n/a	n/a	HILLS	Landscapes	9	5	[0, 0, 0]	n/a	catFR1	0	R1454M
650.231	1.6	907781	WORD	n/a	wordpools/wordpool_categorized_EN.txt	WOODS	Landscapes	10	5	[0, 0, 0]	n/a	catFR1	0	R1454M
651.831	0.95	909393	WORD_OFF	n/a	n/a	WOODS	Landscapes	10	5	[0, 0, 0]	n/a	catFR1	0	R1454M
652.781	1.6	910335	WORD	n/a	wordpools/wordpool_categorized_EN.txt	NYLON	Fabric	11	5	[0, 0, 0]	n/a	catFR1	0	R1454M
654.398	0.85	911947	WORD_OFF	n/a	n/a	NYLON	Fabric	11	5	[0, 0, 0]	n/a	catFR1	0	R1454M
655.248	1.6	912790	WORD	n/a	wordpools/wordpool_categorized_EN.txt	LINEN	Fabric	12	5	[0, 0, 0]	n/a	catFR1	0	R1454M
656.848	0.001	914397	PROB	3.599	n/a	n/a	n/a	-999	5	[7, 2, 2]	11.0	catFR1	0	R1454M
656.849	0.0	914398	START	n/a	n/a	n/a	n/a	-999	5	[-999, -999, -999]	n/a	catFR1	0	R1454M
656.848	0.001	914402	WORD_OFF	n/a	n/a	LINEN	Fabric	12	5	[0, 0, 0]	n/a	catFR1	0	R1454M
656.849	0.0	914402	ENCODING_END	n/a	n/a	n/a	n/a	-999	5	[0, 0, 0]	n/a	catFR1	0	R1454M
656.849	3.616	914402	DISTRACT_START	n/a	n/a	n/a	n/a	-999	5	[0, 0, 0]	n/a	catFR1	0	R1454M
660.465	3.249	918013	PROB	3.232	n/a	n/a	n/a	-999	5	[1, 6, 7]	14.0	catFR1	0	R1454M
663.714	4.249	921262	PROB	4.233	n/a	n/a	n/a	-999	5	[8, 5, 5]	18.0	catFR1	0	R1454M
667.963	4.152	925511	PROB	4.134	n/a	n/a	n/a	-999	5	[2, 7, 1]	10.0	catFR1	0	R1454M
672.115	3.716	929663	PROB	3.699	n/a	n/a	n/a	-999	5	[8, 7, 5]	20.0	catFR1	0	R1454M
675.831	4.866	933379	PROB	4.849	n/a	n/a	n/a	-999	5	[2, 7, 5]	14.0	catFR1	0	R1454M
680.697	0.0	938244	STOP	n/a	n/a	n/a	n/a	-999	5	[-999, -999, -999]	n/a	catFR1	0	R1454M
680.697	2.367	938255	DISTRACT_END	n/a	n/a	n/a	n/a	-999	5	[0, 0, 0]	n/a	catFR1	0	R1454M
683.064	0.73	940624	REC_START	n/a	n/a	n/a	n/a	-999	5	[0, 0, 0]	n/a	catFR1	0	R1454M
683.794	1.246	941341	REC_WORD	0.73	n/a	LADLE	KitchenTools	1	5	[0, 0, 0]	n/a	catFR1	0	R1454M
685.04	1.83	942587	REC_WORD	1.976	n/a	TONGS	KitchenTools	2	5	[0, 0, 0]	n/a	catFR1	0	R1454M
686.87	1.094	944417	REC_WORD	3.806	n/a	LAKE	Landscapes	3	5	[0, 0, 0]	n/a	catFR1	0	R1454M
687.964	25.368	945511	REC_WORD	4.9	n/a	FOREST	Landscapes	4	5	[0, 0, 0]	n/a	catFR1	0	R1454M
713.332	28.098	970872	REC_END	n/a	n/a	n/a	n/a	-999	5	[0, 0, 0]	n/a	catFR1	0	R1454M
741.43	10.0	998970	COUNTDOWN_START	n/a	n/a	n/a	n/a	-999	6	[0, 0, 0]	n/a	catFR1	0	R1454M
751.782	0.0	1009336	COUNTDOWN_END	n/a	n/a	n/a	n/a	-999	6	[0, 0, 0]	n/a	catFR1	0	R1454M
751.782	2.067	1009336	ENCODING_START	n/a	n/a	n/a	n/a	-999	6	[0, 0, 0]	n/a	catFR1	0	R1454M
753.849	1.6	1011395	WORD	n/a	wordpools/wordpool_categorized_EN.txt	MOUNTAIN	Landscapes	1	6	[0, 0, 0]	n/a	catFR1	0	R1454M
755.448	0.883	1013002	WORD_OFF	n/a	n/a	MOUNTAIN	Landscapes	1	6	[0, 0, 0]	n/a	catFR1	0	R1454M
756.331	1.6	1013875	WORD	n/a	wordpools/wordpool_categorized_EN.txt	OCEAN	Landscapes	2	6	[0, 0, 0]	n/a	catFR1	0	R1454M
757.931	0.8	1015487	WORD_OFF	n/a	n/a	OCEAN	Landscapes	2	6	[0, 0, 0]	n/a	catFR1	0	R1454M
758.731	1.6	1016280	WORD	n/a	wordpools/wordpool_categorized_EN.txt	EAR	BodyParts	3	6	[0, 0, 0]	n/a	catFR1	0	R1454M
760.348	0.766	1017892	WORD_OFF	n/a	n/a	EAR	BodyParts	3	6	[0, 0, 0]	n/a	catFR1	0	R1454M
761.114	1.6	1018661	WORD	n/a	wordpools/wordpool_categorized_EN.txt	LEG	BodyParts	4	6	[0, 0, 0]	n/a	catFR1	0	R1454M
762.714	0.883	1020268	WORD_OFF	n/a	n/a	LEG	BodyParts	4	6	[0, 0, 0]	n/a	catFR1	0	R1454M
763.597	1.6	1021141	WORD	n/a	wordpools/wordpool_categorized_EN.txt	LAMB	FarmAnimals	5	6	[0, 0, 0]	n/a	catFR1	0	R1454M
765.214	0.983	1022753	WORD_OFF	n/a	n/a	LAMB	FarmAnimals	5	6	[0, 0, 0]	n/a	catFR1	0	R1454M
766.197	1.6	1023745	WORD	n/a	wordpools/wordpool_categorized_EN.txt	BULL	FarmAnimals	6	6	[0, 0, 0]	n/a	catFR1	0	R1454M
767.797	0.8	1025352	WORD_OFF	n/a	n/a	BULL	FarmAnimals	6	6	[0, 0, 0]	n/a	catFR1	0	R1454M
768.597	1.6	1026146	WORD	n/a	wordpools/wordpool_categorized_EN.txt	FOOT	BodyParts	7	6	[0, 0, 0]	n/a	catFR1	0	R1454M
770.213	0.984	1027763	WORD_OFF	n/a	n/a	FOOT	BodyParts	7	6	[0, 0, 0]	n/a	catFR1	0	R1454M
771.197	1.6	1028750	WORD	n/a	wordpools/wordpool_categorized_EN.txt	ARM	BodyParts	8	6	[0, 0, 0]	n/a	catFR1	0	R1454M
772.797	0.817	1030342	WORD_OFF	n/a	n/a	ARM	BodyParts	8	6	[0, 0, 0]	n/a	catFR1	0	R1454M
773.614	1.6	1031160	WORD	n/a	wordpools/wordpool_categorized_EN.txt	BEACH	Landscapes	9	6	[0, 0, 0]	n/a	catFR1	0	R1454M
775.214	0.966	1032768	WORD_OFF	n/a	n/a	BEACH	Landscapes	9	6	[0, 0, 0]	n/a	catFR1	0	R1454M
776.18	1.6	1033715	WORD	n/a	wordpools/wordpool_categorized_EN.txt	STREAM	Landscapes	10	6	[0, 0, 0]	n/a	catFR1	0	R1454M
777.78	0.8	1035327	WORD_OFF	n/a	n/a	STREAM	Landscapes	10	6	[0, 0, 0]	n/a	catFR1	0	R1454M
778.58	1.6	1036120	WORD	n/a	wordpools/wordpool_categorized_EN.txt	PIG	FarmAnimals	11	6	[0, 0, 0]	n/a	catFR1	0	R1454M
780.18	0.984	1037728	WORD_OFF	n/a	n/a	PIG	FarmAnimals	11	6	[0, 0, 0]	n/a	catFR1	0	R1454M
781.164	1.6	1038700	WORD	n/a	wordpools/wordpool_categorized_EN.txt	TURKEY	FarmAnimals	12	6	[0, 0, 0]	n/a	catFR1	0	R1454M
782.781	0.001	1040323	PROB	4.433	n/a	n/a	n/a	-999	6	[1, 8, 6]	15.0	catFR1	0	R1454M
782.782	0.0	1040324	START	n/a	n/a	n/a	n/a	-999	6	[-999, -999, -999]	n/a	catFR1	0	R1454M
782.78	0.002	1040332	WORD_OFF	n/a	n/a	TURKEY	FarmAnimals	12	6	[0, 0, 0]	n/a	catFR1	0	R1454M
782.782	0.0	1040336	ENCODING_END	n/a	n/a	n/a	n/a	-999	6	[0, 0, 0]	n/a	catFR1	0	R1454M
782.782	4.448	1040336	DISTRACT_START	n/a	n/a	n/a	n/a	-999	6	[0, 0, 0]	n/a	catFR1	0	R1454M
787.23	3.551	1044772	PROB	3.533	n/a	n/a	n/a	-999	6	[8, 8, 2]	18.0	catFR1	0	R1454M
790.781	4.233	1048323	PROB	4.216	n/a	n/a	n/a	-999	6	[4, 2, 4]	10.0	catFR1	0	R1454M
795.014	3.6	1052556	PROB	3.583	n/a	n/a	n/a	-999	6	[5, 8, 5]	18.0	catFR1	0	R1454M
798.614	3.583	1056156	PROB	3.566	n/a	n/a	n/a	-999	6	[2, 3, 5]	10.0	catFR1	0	R1454M
802.197	3.751	1059739	PROB	3.734	n/a	n/a	n/a	-999	6	[5, 1, 7]	13.0	catFR1	0	R1454M
805.948	0.0	1063489	STOP	n/a	n/a	n/a	n/a	-999	6	[-999, -999, -999]	n/a	catFR1	0	R1454M
805.948	2.283	1063500	DISTRACT_END	n/a	n/a	n/a	n/a	-999	6	[0, 0, 0]	n/a	catFR1	0	R1454M
808.231	1.403	1065765	REC_START	n/a	n/a	n/a	n/a	-999	6	[0, 0, 0]	n/a	catFR1	0	R1454M
809.634	1.271	1067175	REC_WORD_VV	1.403	n/a	<>	n/a	-999	6	[0, 0, 0]	n/a	catFR1	0	R1454M
810.905	2.325	1068446	REC_WORD	2.674	n/a	OCEAN	Landscapes	2	6	[0, 0, 0]	n/a	catFR1	0	R1454M
813.23	2.487	1070771	REC_WORD	4.999	n/a	LEG	BodyParts	4	6	[0, 0, 0]	n/a	catFR1	0	R1454M
815.717	2.631	1073258	REC_WORD	7.486	n/a	ARM	BodyParts	8	6	[0, 0, 0]	n/a	catFR1	0	R1454M
818.348	20.181	1075889	REC_WORD	10.117	n/a	FOOT	BodyParts	7	6	[0, 0, 0]	n/a	catFR1	0	R1454M
838.529	5.919	1096062	REC_END	n/a	n/a	n/a	n/a	-999	6	[0, 0, 0]	n/a	catFR1	0	R1454M
844.448	10.0	1101989	COUNTDOWN_START	n/a	n/a	n/a	n/a	-999	7	[0, 0, 0]	n/a	catFR1	0	R1454M
854.798	0.0	1112331	COUNTDOWN_END	n/a	n/a	n/a	n/a	-999	7	[0, 0, 0]	n/a	catFR1	0	R1454M
854.798	2.032	1112351	ENCODING_START	n/a	n/a	n/a	n/a	-999	7	[0, 0, 0]	n/a	catFR1	0	R1454M
856.83	1.6	1114364	WORD	n/a	wordpools/wordpool_categorized_EN.txt	CEILING	Building	1	7	[0, 0, 0]	n/a	catFR1	0	R1454M
858.431	0.983	1115976	WORD_OFF	n/a	n/a	CEILING	Building	1	7	[0, 0, 0]	n/a	catFR1	0	R1454M
859.414	1.6	1116963	WORD	n/a	wordpools/wordpool_categorized_EN.txt	WINDOW	Building	2	7	[0, 0, 0]	n/a	catFR1	0	R1454M
861.014	0.867	1118555	WORD_OFF	n/a	n/a	WINDOW	Building	2	7	[0, 0, 0]	n/a	catFR1	0	R1454M
861.881	1.6	1119423	WORD	n/a	wordpools/wordpool_categorized_EN.txt	OAK	Trees	3	7	[0, 0, 0]	n/a	catFR1	0	R1454M
863.497	0.934	1121035	WORD_OFF	n/a	n/a	OAK	Trees	3	7	[0, 0, 0]	n/a	catFR1	0	R1454M
864.431	1.6	1121973	WORD	n/a	wordpools/wordpool_categorized_EN.txt	ELM	Trees	4	7	[0, 0, 0]	n/a	catFR1	0	R1454M
866.031	0.916	1123565	WORD_OFF	n/a	n/a	ELM	Trees	4	7	[0, 0, 0]	n/a	catFR1	0	R1454M
866.947	1.6	1124483	WORD	n/a	wordpools/wordpool_categorized_EN.txt	ISLAND	Landscapes	5	7	[0, 0, 0]	n/a	catFR1	0	R1454M
868.548	0.899	1126095	WORD_OFF	n/a	n/a	ISLAND	Landscapes	5	7	[0, 0, 0]	n/a	catFR1	0	R1454M
869.447	1.6	1126987	WORD	n/a	wordpools/wordpool_categorized_EN.txt	CREEK	Landscapes	6	7	[0, 0, 0]	n/a	catFR1	0	R1454M
871.047	0.967	1128595	WORD_OFF	n/a	n/a	CREEK	Landscapes	6	7	[0, 0, 0]	n/a	catFR1	0	R1454M
872.014	1.6	1129567	WORD	n/a	wordpools/wordpool_categorized_EN.txt	FOUNDATION	Building	7	7	[0, 0, 0]	n/a	catFR1	0	R1454M
873.631	0.849	1131174	WORD_OFF	n/a	n/a	FOUNDATION	Building	7	7	[0, 0, 0]	n/a	catFR1	0	R1454M
874.48	1.6	1132022	WORD	n/a	wordpools/wordpool_categorized_EN.txt	ROOF	Building	8	7	[0, 0, 0]	n/a	catFR1	0	R1454M
876.08	0.916	1133629	WORD_OFF	n/a	n/a	ROOF	Building	8	7	[0, 0, 0]	n/a	catFR1	0	R1454M
876.996	1.6	1134527	WORD	n/a	wordpools/wordpool_categorized_EN.txt	VALLEY	Landscapes	9	7	[0, 0, 0]	n/a	catFR1	0	R1454M
878.597	0.85	1136139	WORD_OFF	n/a	n/a	VALLEY	Landscapes	9	7	[0, 0, 0]	n/a	catFR1	0	R1454M
879.447	1.6	1136982	WORD	n/a	wordpools/wordpool_categorized_EN.txt	RIVER	Landscapes	10	7	[0, 0, 0]	n/a	catFR1	0	R1454M
881.064	0.783	1138594	WORD_OFF	n/a	n/a	RIVER	Landscapes	10	7	[0, 0, 0]	n/a	catFR1	0	R1454M
881.847	1.6	1139387	WORD	n/a	wordpools/wordpool_categorized_EN.txt	HICKORY	Trees	11	7	[0, 0, 0]	n/a	catFR1	0	R1454M
883.464	0.866	1140999	WORD_OFF	n/a	n/a	HICKORY	Trees	11	7	[0, 0, 0]	n/a	catFR1	0	R1454M
884.33	1.6	1141867	WORD	n/a	wordpools/wordpool_categorized_EN.txt	PINE	Trees	12	7	[0, 0, 0]	n/a	catFR1	0	R1454M
885.931	0.001	1143468	PROB	4.633	n/a	n/a	n/a	-999	7	[7, 8, 5]	20.0	catFR1	0	R1454M
885.932	0.0	1143469	START	n/a	n/a	n/a	n/a	-999	7	[-999, -999, -999]	n/a	catFR1	0	R1454M
885.93	0.002	1143475	WORD_OFF	n/a	n/a	PINE	Trees	12	7	[0, 0, 0]	n/a	catFR1	0	R1454M
885.932	0.0	1143479	ENCODING_END	n/a	n/a	n/a	n/a	-999	7	[0, 0, 0]	n/a	catFR1	0	R1454M
885.932	4.649	1143479	DISTRACT_START	n/a	n/a	n/a	n/a	-999	7	[0, 0, 0]	n/a	catFR1	0	R1454M
890.581	3.249	1148118	PROB	3.233	n/a	n/a	n/a	-999	7	[1, 7, 2]	10.0	catFR1	0	R1454M
893.83	3.6	1151367	PROB	3.583	n/a	n/a	n/a	-999	7	[3, 3, 4]	10.0	catFR1	0	R1454M
897.43	4.851	1154967	PROB	4.833	n/a	n/a	n/a	-999	7	[6, 8, 8]	22.0	catFR1	0	R1454M
902.281	3.95	1159818	PROB	3.933	n/a	n/a	n/a	-999	7	[3, 4, 6]	13.0	catFR1	0	R1454M
906.231	0.0	1163766	DISTRACT_END	n/a	n/a	n/a	n/a	-999	7	[0, 0, 0]	n/a	catFR1	0	R1454M
906.231	2.25	1163767	STOP	n/a	n/a	n/a	n/a	-999	7	[-999, -999, -999]	n/a	catFR1	0	R1454M
908.481	0.791	1166026	REC_START	n/a	n/a	n/a	n/a	-999	7	[0, 0, 0]	n/a	catFR1	0	R1454M
909.272	1.599	1166808	REC_WORD	0.791	n/a	HICKORY	Trees	11	7	[0, 0, 0]	n/a	catFR1	0	R1454M
910.871	3.258	1168407	REC_WORD	2.39	n/a	PINE	Trees	12	7	[0, 0, 0]	n/a	catFR1	0	R1454M
914.129	2.547	1171665	REC_WORD	5.648	n/a	VALLEY	Landscapes	9	7	[0, 0, 0]	n/a	catFR1	0	R1454M
916.676	3.848	1174212	REC_WORD	8.195	n/a	RIVER	Landscapes	10	7	[0, 0, 0]	n/a	catFR1	0	R1454M
920.524	3.664	1178060	REC_WORD_VV	12.043	n/a	<>	n/a	-999	7	[0, 0, 0]	n/a	catFR1	0	R1454M
924.188	2.068	1181724	REC_WORD	15.707	n/a	ELM	Trees	4	7	[0, 0, 0]	n/a	catFR1	0	R1454M
926.256	12.51	1183792	REC_WORD	17.775	n/a	OAK	Trees	3	7	[0, 0, 0]	n/a	catFR1	0	R1454M
938.766	7.798	1196303	REC_END	n/a	n/a	n/a	n/a	-999	7	[0, 0, 0]	n/a	catFR1	0	R1454M
946.564	10.0	1204115	COUNTDOWN_START	n/a	n/a	n/a	n/a	-999	8	[0, 0, 0]	n/a	catFR1	0	R1454M
956.915	0.0	1214457	COUNTDOWN_END	n/a	n/a	n/a	n/a	-999	8	[0, 0, 0]	n/a	catFR1	0	R1454M
956.915	2.016	1214457	ENCODING_START	n/a	n/a	n/a	n/a	-999	8	[0, 0, 0]	n/a	catFR1	0	R1454M
958.931	1.6	1216466	WORD	n/a	wordpools/wordpool_categorized_EN.txt	PANTS	Clothing	1	8	[0, 0, 0]	n/a	catFR1	0	R1454M
960.547	0.917	1218078	WORD_OFF	n/a	n/a	PANTS	Clothing	1	8	[0, 0, 0]	n/a	catFR1	0	R1454M
961.464	1.6	1218995	WORD	n/a	wordpools/wordpool_categorized_EN.txt	BLOUSE	Clothing	2	8	[0, 0, 0]	n/a	catFR1	0	R1454M
963.081	0.833	1220607	WORD_OFF	n/a	n/a	BLOUSE	Clothing	2	8	[0, 0, 0]	n/a	catFR1	0	R1454M
963.914	1.6	1221450	WORD	n/a	wordpools/wordpool_categorized_EN.txt	BLUEBERRY	Fruit	3	8	[0, 0, 0]	n/a	catFR1	0	R1454M
965.531	0.983	1223062	WORD_OFF	n/a	n/a	BLUEBERRY	Fruit	3	8	[0, 0, 0]	n/a	catFR1	0	R1454M
966.514	1.6	1224054	WORD	n/a	wordpools/wordpool_categorized_EN.txt	CHERRY	Fruit	4	8	[0, 0, 0]	n/a	catFR1	0	R1454M
968.114	0.917	1225642	WORD_OFF	n/a	n/a	CHERRY	Fruit	4	8	[0, 0, 0]	n/a	catFR1	0	R1454M
969.031	1.6	1226559	WORD	n/a	wordpools/wordpool_categorized_EN.txt	MICROWAVE	Electronics	5	8	[0, 0, 0]	n/a	catFR1	0	R1454M
970.631	0.766	1228171	WORD_OFF	n/a	n/a	MICROWAVE	Electronics	5	8	[0, 0, 0]	n/a	catFR1	0	R1454M
971.397	1.6	1228940	WORD	n/a	wordpools/wordpool_categorized_EN.txt	CALCULATOR	Electronics	6	8	[0, 0, 0]	n/a	catFR1	0	R1454M
972.997	0.95	1230527	WORD_OFF	n/a	n/a	CALCULATOR	Electronics	6	8	[0, 0, 0]	n/a	catFR1	0	R1454M
973.947	1.6	1231494	WORD	n/a	wordpools/wordpool_categorized_EN.txt	PEAR	Fruit	7	8	[0, 0, 0]	n/a	catFR1	0	R1454M
975.547	0.884	1233082	WORD_OFF	n/a	n/a	PEAR	Fruit	7	8	[0, 0, 0]	n/a	catFR1	0	R1454M
976.431	1.6	1233974	WORD	n/a	wordpools/wordpool_categorized_EN.txt	GRAPE	Fruit	8	8	[0, 0, 0]	n/a	catFR1	0	R1454M
978.031	0.833	1235562	WORD_OFF	n/a	n/a	GRAPE	Fruit	8	8	[0, 0, 0]	n/a	catFR1	0	R1454M
978.864	1.6	1236400	WORD	n/a	wordpools/wordpool_categorized_EN.txt	COMPUTER	Electronics	9	8	[0, 0, 0]	n/a	catFR1	0	R1454M
980.464	0.866	1237992	WORD_OFF	n/a	n/a	COMPUTER	Electronics	9	8	[0, 0, 0]	n/a	catFR1	0	R1454M
981.33	1.6	1238860	WORD	n/a	wordpools/wordpool_categorized_EN.txt	HEADPHONES	Electronics	10	8	[0, 0, 0]	n/a	catFR1	0	R1454M
982.93	0.834	1240472	WORD_OFF	n/a	n/a	HEADPHONES	Electronics	10	8	[0, 0, 0]	n/a	catFR1	0	R1454M
983.764	1.6	1241290	WORD	n/a	wordpools/wordpool_categorized_EN.txt	SKIRT	Clothing	11	8	[0, 0, 0]	n/a	catFR1	0	R1454M
985.381	0.799	1242922	WORD_OFF	n/a	n/a	SKIRT	Clothing	11	8	[0, 0, 0]	n/a	catFR1	0	R1454M
986.18	1.6	1243721	WORD	n/a	wordpools/wordpool_categorized_EN.txt	UNDERWEAR	Clothing	12	8	[0, 0, 0]	n/a	catFR1	0	R1454M
987.78	0.002	1245308	WORD_OFF	n/a	n/a	UNDERWEAR	Clothing	12	8	[0, 0, 0]	n/a	catFR1	0	R1454M
987.782	0.0	1245308	ENCODING_END	n/a	n/a	n/a	n/a	-999	8	[0, 0, 0]	n/a	catFR1	0	R1454M
987.781	0.001	1245314	PROB	2.866	n/a	n/a	n/a	-999	8	[4, 1, 1]	6.0	catFR1	0	R1454M
987.782	0.0	1245315	START	n/a	n/a	n/a	n/a	-999	8	[-999, -999, -999]	n/a	catFR1	0	R1454M
987.782	2.882	1245328	DISTRACT_START	n/a	n/a	n/a	n/a	-999	8	[0, 0, 0]	n/a	catFR1	0	R1454M
990.664	3.783	1248196	PROB	3.766	n/a	n/a	n/a	-999	8	[5, 8, 5]	18.0	catFR1	0	R1454M
994.447	3.384	1251979	PROB	3.366	n/a	n/a	n/a	-999	8	[4, 4, 2]	10.0	catFR1	0	R1454M
997.831	3.266	1255363	PROB	3.249	n/a	n/a	n/a	-999	8	[3, 7, 5]	15.0	catFR1	0	R1454M
1001.097	4.15	1258629	PROB	4.133	n/a	n/a	n/a	-999	8	[7, 1, 4]	12.0	catFR1	0	R1454M
1005.247	3.617	1262779	PROB	3.6	n/a	n/a	n/a	-999	8	[6, 6, 8]	20.0	catFR1	0	R1454M
1008.864	0.0	1266388	DISTRACT_END	n/a	n/a	n/a	n/a	-999	8	[0, 0, 0]	n/a	catFR1	0	R1454M
1008.864	2.1	1266396	STOP	n/a	n/a	n/a	n/a	-999	8	[-999, -999, -999]	n/a	catFR1	0	R1454M
1010.964	0.905	1268504	REC_START	n/a	n/a	n/a	n/a	-999	8	[0, 0, 0]	n/a	catFR1	0	R1454M
1011.869	1.363	1269400	REC_WORD	0.905	n/a	BLUEBERRY	Fruit	3	8	[0, 0, 0]	n/a	catFR1	0	R1454M
1013.232	17.746	1270763	REC_WORD	2.268	n/a	CHERRY	Fruit	4	8	[0, 0, 0]	n/a	catFR1	0	R1454M
1030.978	10.268	1288508	REC_WORD	20.014	n/a	GRAPE	Fruit	8	8	[0, 0, 0]	n/a	catFR1	0	R1454M
1041.246	23.252	1298777	REC_END	n/a	n/a	n/a	n/a	-999	8	[0, 0, 0]	n/a	catFR1	0	R1454M
1064.498	10.0	1322039	COUNTDOWN_START	n/a	n/a	n/a	n/a	-999	9	[0, 0, 0]	n/a	catFR1	0	R1454M
1074.848	0.0	1332381	COUNTDOWN_END	n/a	n/a	n/a	n/a	-999	9	[0, 0, 0]	n/a	catFR1	0	R1454M
1074.848	2.083	1332381	ENCODING_START	n/a	n/a	n/a	n/a	-999	9	[0, 0, 0]	n/a	catFR1	0	R1454M
1076.931	1.6	1334464	WORD	n/a	wordpools/wordpool_categorized_EN.txt	TELEVISION	Electronics	1	9	[0, 0, 0]	n/a	catFR1	0	R1454M
1078.547	0.867	1336076	WORD_OFF	n/a	n/a	TELEVISION	Electronics	1	9	[0, 0, 0]	n/a	catFR1	0	R1454M
1079.414	1.6	1336944	WORD	n/a	wordpools/wordpool_categorized_EN.txt	TABLET	Electronics	2	9	[0, 0, 0]	n/a	catFR1	0	R1454M
1081.014	0.967	1338551	WORD_OFF	n/a	n/a	TABLET	Electronics	2	9	[0, 0, 0]	n/a	catFR1	0	R1454M
1081.981	1.6	1339518	WORD	n/a	wordpools/wordpool_categorized_EN.txt	TOASTER	Appliances	3	9	[0, 0, 0]	n/a	catFR1	0	R1454M
1083.581	0.966	1341110	WORD_OFF	n/a	n/a	TOASTER	Appliances	3	9	[0, 0, 0]	n/a	catFR1	0	R1454M
1084.547	1.6	1342077	WORD	n/a	wordpools/wordpool_categorized_EN.txt	MIXER	Appliances	4	9	[0, 0, 0]	n/a	catFR1	0	R1454M
1086.148	0.8	1343689	WORD_OFF	n/a	n/a	MIXER	Appliances	4	9	[0, 0, 0]	n/a	catFR1	0	R1454M
1086.948	1.6	1344483	WORD	n/a	wordpools/wordpool_categorized_EN.txt	CEDAR	Trees	5	9	[0, 0, 0]	n/a	catFR1	0	R1454M
1088.548	0.866	1346070	WORD_OFF	n/a	n/a	CEDAR	Trees	5	9	[0, 0, 0]	n/a	catFR1	0	R1454M
1089.414	1.6	1346938	WORD	n/a	wordpools/wordpool_categorized_EN.txt	MAPLE	Trees	6	9	[0, 0, 0]	n/a	catFR1	0	R1454M
1091.014	0.9	1348550	WORD_OFF	n/a	n/a	MAPLE	Trees	6	9	[0, 0, 0]	n/a	catFR1	0	R1454M
1091.914	1.6	1349443	WORD	n/a	wordpools/wordpool_categorized_EN.txt	SPEAKER	Electronics	7	9	[0, 0, 0]	n/a	catFR1	0	R1454M
1093.531	0.883	1351080	WORD_OFF	n/a	n/a	SPEAKER	Electronics	7	9	[0, 0, 0]	n/a	catFR1	0	R1454M
1094.414	1.6	1351948	WORD	n/a	wordpools/wordpool_categorized_EN.txt	SCANNER	Electronics	8	9	[0, 0, 0]	n/a	catFR1	0	R1454M
1096.013	0.984	1353535	WORD_OFF	n/a	n/a	SCANNER	Electronics	8	9	[0, 0, 0]	n/a	catFR1	0	R1454M
1096.997	1.6	1354527	WORD	n/a	wordpools/wordpool_categorized_EN.txt	WALNUT	Trees	9	9	[0, 0, 0]	n/a	catFR1	0	R1454M
1098.597	0.933	1356134	WORD_OFF	n/a	n/a	WALNUT	Trees	9	9	[0, 0, 0]	n/a	catFR1	0	R1454M
1099.53	1.6	1357057	WORD	n/a	wordpools/wordpool_categorized_EN.txt	CYPRESS	Trees	10	9	[0, 0, 0]	n/a	catFR1	0	R1454M
1101.13	0.967	1358669	WORD_OFF	n/a	n/a	CYPRESS	Trees	10	9	[0, 0, 0]	n/a	catFR1	0	R1454M
1102.097	1.6	1359631	WORD	n/a	wordpools/wordpool_categorized_EN.txt	DRYER	Appliances	11	9	[0, 0, 0]	n/a	catFR1	0	R1454M
1103.698	0.882	1361223	WORD_OFF	n/a	n/a	DRYER	Appliances	11	9	[0, 0, 0]	n/a	catFR1	0	R1454M
1104.58	1.6	1362116	WORD	n/a	wordpools/wordpool_categorized_EN.txt	STOVE	Appliances	12	9	[0, 0, 0]	n/a	catFR1	0	R1454M
1106.181	0.002	1363703	WORD_OFF	n/a	n/a	STOVE	Appliances	12	9	[0, 0, 0]	n/a	catFR1	0	R1454M
1106.183	0.0	1363703	ENCODING_END	n/a	n/a	n/a	n/a	-999	9	[0, 0, 0]	n/a	catFR1	0	R1454M
1106.181	0.002	1363708	PROB	3.983	n/a	n/a	n/a	-999	9	[2, 4, 8]	14.0	catFR1	0	R1454M
1106.183	0.0	1363710	START	n/a	n/a	n/a	n/a	-999	9	[-999, -999, -999]	n/a	catFR1	0	R1454M
1106.183	3.997	1363723	DISTRACT_START	n/a	n/a	n/a	n/a	-999	9	[0, 0, 0]	n/a	catFR1	0	R1454M
1110.18	3.052	1367707	PROB	3.033	n/a	n/a	n/a	-999	9	[3, 3, 1]	7.0	catFR1	0	R1454M
1113.232	3.282	1370758	PROB	3.265	n/a	n/a	n/a	-999	9	[3, 4, 2]	9.0	catFR1	0	R1454M
1116.514	3.868	1374040	PROB	3.85	n/a	n/a	n/a	-999	9	[3, 3, 4]	10.0	catFR1	0	R1454M
1120.382	3.45	1377908	PROB	3.432	n/a	n/a	n/a	-999	9	[5, 8, 2]	15.0	catFR1	0	R1454M
1123.832	3.316	1381358	PROB	3.299	n/a	n/a	n/a	-999	9	[1, 6, 5]	12.0	catFR1	0	R1454M
1127.148	0.0	1384674	STOP	n/a	n/a	n/a	n/a	-999	9	[-999, -999, -999]	n/a	catFR1	0	R1454M
1127.148	2.099	1384679	DISTRACT_END	n/a	n/a	n/a	n/a	-999	9	[0, 0, 0]	n/a	catFR1	0	R1454M
1129.247	0.936	1386775	REC_START	n/a	n/a	n/a	n/a	-999	9	[0, 0, 0]	n/a	catFR1	0	R1454M
1130.183	1.404	1387709	REC_WORD	0.936	n/a	WALNUT	Trees	9	9	[0, 0, 0]	n/a	catFR1	0	R1454M
1131.587	1.002	1389113	REC_WORD	2.34	n/a	CYPRESS	Trees	10	9	[0, 0, 0]	n/a	catFR1	0	R1454M
1132.589	10.104	1390115	REC_WORD_VV	3.342	n/a	<>	n/a	-999	9	[0, 0, 0]	n/a	catFR1	0	R1454M
1142.693	6.053	1400218	REC_WORD	13.446	n/a	TELEVISION	Electronics	1	9	[0, 0, 0]	n/a	catFR1	0	R1454M
1148.746	7.146	1406271	REC_WORD	19.499	n/a	CEDAR	Trees	5	9	[0, 0, 0]	n/a	catFR1	0	R1454M
1155.892	3.614	1413416	REC_WORD	26.645	n/a	TOASTER	Appliances	3	9	[0, 0, 0]	n/a	catFR1	0	R1454M
1159.506	13.025	1417046	REC_END	n/a	n/a	n/a	n/a	-999	9	[0, 0, 0]	n/a	catFR1	0	R1454M
1172.531	10.0	1430066	COUNTDOWN_START	n/a	n/a	n/a	n/a	-999	10	[0, 0, 0]	n/a	catFR1	0	R1454M
1182.881	0.0	1440407	COUNTDOWN_END	n/a	n/a	n/a	n/a	-999	10	[0, 0, 0]	n/a	catFR1	0	R1454M
1182.881	2.266	1440407	ENCODING_START	n/a	n/a	n/a	n/a	-999	10	[0, 0, 0]	n/a	catFR1	0	R1454M
1185.147	1.6	1442664	WORD	n/a	wordpools/wordpool_categorized_EN.txt	BED	Furniture	1	10	[0, 0, 0]	n/a	catFR1	0	R1454M
1186.747	0.783	1444276	WORD_OFF	n/a	n/a	BED	Furniture	1	10	[0, 0, 0]	n/a	catFR1	0	R1454M
1187.53	1.6	1445065	WORD	n/a	wordpools/wordpool_categorized_EN.txt	NIGHTSTAND	Furniture	2	10	[0, 0, 0]	n/a	catFR1	0	R1454M
1189.13	0.933	1446657	WORD_OFF	n/a	n/a	NIGHTSTAND	Furniture	2	10	[0, 0, 0]	n/a	catFR1	0	R1454M
1190.063	1.6	1447594	WORD	n/a	wordpools/wordpool_categorized_EN.txt	COAT	Clothing	3	10	[0, 0, 0]	n/a	catFR1	0	R1454M
1191.664	0.833	1449186	WORD_OFF	n/a	n/a	COAT	Clothing	3	10	[0, 0, 0]	n/a	catFR1	0	R1454M
1192.497	1.6	1450025	WORD	n/a	wordpools/wordpool_categorized_EN.txt	JACKET	Clothing	4	10	[0, 0, 0]	n/a	catFR1	0	R1454M
1194.097	0.95	1451617	WORD_OFF	n/a	n/a	JACKET	Clothing	4	10	[0, 0, 0]	n/a	catFR1	0	R1454M
1195.047	1.6	1452579	WORD	n/a	wordpools/wordpool_categorized_EN.txt	COW	FarmAnimals	5	10	[0, 0, 0]	n/a	catFR1	0	R1454M
1196.647	0.967	1454171	WORD_OFF	n/a	n/a	COW	FarmAnimals	5	10	[0, 0, 0]	n/a	catFR1	0	R1454M
1197.614	1.6	1455138	WORD	n/a	wordpools/wordpool_categorized_EN.txt	SHEEP	FarmAnimals	6	10	[0, 0, 0]	n/a	catFR1	0	R1454M
1199.23	0.95	1456750	WORD_OFF	n/a	n/a	SHEEP	FarmAnimals	6	10	[0, 0, 0]	n/a	catFR1	0	R1454M
1200.18	1.6	1457718	WORD	n/a	wordpools/wordpool_categorized_EN.txt	SHIRT	Clothing	7	10	[0, 0, 0]	n/a	catFR1	0	R1454M
1201.78	0.917	1459305	WORD_OFF	n/a	n/a	SHIRT	Clothing	7	10	[0, 0, 0]	n/a	catFR1	0	R1454M
1202.697	1.6	1460222	WORD	n/a	wordpools/wordpool_categorized_EN.txt	SHOES	Clothing	8	10	[0, 0, 0]	n/a	catFR1	0	R1454M
1204.313	0.8	1461834	WORD_OFF	n/a	n/a	SHOES	Clothing	8	10	[0, 0, 0]	n/a	catFR1	0	R1454M
1205.113	1.6	1462648	WORD	n/a	wordpools/wordpool_categorized_EN.txt	CHAIR	Furniture	9	10	[0, 0, 0]	n/a	catFR1	0	R1454M
1206.713	1.0	1464240	WORD_OFF	n/a	n/a	CHAIR	Furniture	9	10	[0, 0, 0]	n/a	catFR1	0	R1454M
1207.713	1.6	1465232	WORD	n/a	wordpools/wordpool_categorized_EN.txt	DESK	Furniture	10	10	[0, 0, 0]	n/a	catFR1	0	R1454M
1209.33	0.883	1466844	WORD_OFF	n/a	n/a	DESK	Furniture	10	10	[0, 0, 0]	n/a	catFR1	0	R1454M
1210.213	1.6	1467737	WORD	n/a	wordpools/wordpool_categorized_EN.txt	CALF	FarmAnimals	11	10	[0, 0, 0]	n/a	catFR1	0	R1454M
1211.813	0.9	1469349	WORD_OFF	n/a	n/a	CALF	FarmAnimals	11	10	[0, 0, 0]	n/a	catFR1	0	R1454M
1212.713	1.6	1470242	WORD	n/a	wordpools/wordpool_categorized_EN.txt	GOAT	FarmAnimals	12	10	[0, 0, 0]	n/a	catFR1	0	R1454M
1214.314	0.0	1471829	WORD_OFF	n/a	n/a	GOAT	FarmAnimals	12	10	[0, 0, 0]	n/a	catFR1	0	R1454M
1214.314	0.002	1471836	PROB	3.15	n/a	n/a	n/a	-999	10	[3, 3, 1]	7.0	catFR1	0	R1454M
1214.316	0.0	1471838	START	n/a	n/a	n/a	n/a	-999	10	[-999, -999, -999]	n/a	catFR1	0	R1454M
1214.316	0.0	1471849	ENCODING_END	n/a	n/a	n/a	n/a	-999	10	[0, 0, 0]	n/a	catFR1	0	R1454M
1214.316	3.166	1471854	DISTRACT_START	n/a	n/a	n/a	n/a	-999	10	[0, 0, 0]	n/a	catFR1	0	R1454M
1217.482	3.883	1475003	PROB	3.867	n/a	n/a	n/a	-999	10	[5, 7, 2]	14.0	catFR1	0	R1454M
1221.365	3.35	1478886	PROB	3.333	n/a	n/a	n/a	-999	10	[2, 5, 6]	13.0	catFR1	0	R1454M
1224.715	4.449	1482236	PROB	4.432	n/a	n/a	n/a	-999	10	[3, 2, 3]	8.0	catFR1	0	R1454M
1229.164	4.567	1486685	PROB	4.55	n/a	n/a	n/a	-999	10	[4, 4, 7]	15.0	catFR1	0	R1454M
1233.731	4.133	1491252	PROB	4.116	n/a	n/a	n/a	-999	10	[7, 6, 3]	16.0	catFR1	0	R1454M
1237.864	0.0	1495384	STOP	n/a	n/a	n/a	n/a	-999	10	[-999, -999, -999]	n/a	catFR1	0	R1454M
1237.864	2.317	1495389	DISTRACT_END	n/a	n/a	n/a	n/a	-999	10	[0, 0, 0]	n/a	catFR1	0	R1454M
1240.181	1.23	1497703	REC_START	n/a	n/a	n/a	n/a	-999	10	[0, 0, 0]	n/a	catFR1	0	R1454M
1241.411	1.364	1498931	REC_WORD	1.23	n/a	BED	Furniture	1	10	[0, 0, 0]	n/a	catFR1	0	R1454M
1242.775	2.562	1500295	REC_WORD	2.594	n/a	NIGHTSTAND	Furniture	2	10	[0, 0, 0]	n/a	catFR1	0	R1454M
1245.337	1.965	1502857	REC_WORD	5.156	n/a	COW	FarmAnimals	5	10	[0, 0, 0]	n/a	catFR1	0	R1454M
1247.302	11.505	1504822	REC_WORD	7.121	n/a	SHEEP	FarmAnimals	6	10	[0, 0, 0]	n/a	catFR1	0	R1454M
1258.807	11.632	1516326	REC_WORD	18.626	n/a	GOAT	FarmAnimals	12	10	[0, 0, 0]	n/a	catFR1	0	R1454M
1270.439	24.558	1527951	REC_END	n/a	n/a	n/a	n/a	-999	10	[0, 0, 0]	n/a	catFR1	0	R1454M
1294.997	10.0	1552528	COUNTDOWN_START	n/a	n/a	n/a	n/a	-999	11	[0, 0, 0]	n/a	catFR1	0	R1454M
1305.347	0.0	1562869	COUNTDOWN_END	n/a	n/a	n/a	n/a	-999	11	[0, 0, 0]	n/a	catFR1	0	R1454M
1305.347	2.166	1562869	ENCODING_START	n/a	n/a	n/a	n/a	-999	11	[0, 0, 0]	n/a	catFR1	0	R1454M
1307.513	1.6	1565027	WORD	n/a	wordpools/wordpool_categorized_EN.txt	SHORTS	Clothing	1	11	[0, 0, 0]	n/a	catFR1	0	R1454M
1309.113	0.783	1566639	WORD_OFF	n/a	n/a	SHORTS	Clothing	1	11	[0, 0, 0]	n/a	catFR1	0	R1454M
1309.896	1.6	1567408	WORD	n/a	wordpools/wordpool_categorized_EN.txt	SOCKS	Clothing	2	11	[0, 0, 0]	n/a	catFR1	0	R1454M
1311.497	0.9	1569020	WORD_OFF	n/a	n/a	SOCKS	Clothing	2	11	[0, 0, 0]	n/a	catFR1	0	R1454M
1312.397	1.6	1569913	WORD	n/a	wordpools/wordpool_categorized_EN.txt	SAW	Tools	3	11	[0, 0, 0]	n/a	catFR1	0	R1454M
1313.997	0.766	1571525	WORD_OFF	n/a	n/a	SAW	Tools	3	11	[0, 0, 0]	n/a	catFR1	0	R1454M
1314.763	1.6	1572293	WORD	n/a	wordpools/wordpool_categorized_EN.txt	LEVEL	Tools	4	11	[0, 0, 0]	n/a	catFR1	0	R1454M
1316.364	0.783	1573881	WORD_OFF	n/a	n/a	LEVEL	Tools	4	11	[0, 0, 0]	n/a	catFR1	0	R1454M
1317.147	1.6	1574674	WORD	n/a	wordpools/wordpool_categorized_EN.txt	PHONE	Electronics	5	11	[0, 0, 0]	n/a	catFR1	0	R1454M
1318.748	0.966	1576261	WORD_OFF	n/a	n/a	PHONE	Electronics	5	11	[0, 0, 0]	n/a	catFR1	0	R1454M
1319.714	1.6	1577229	WORD	n/a	wordpools/wordpool_categorized_EN.txt	RADIO	Electronics	6	11	[0, 0, 0]	n/a	catFR1	0	R1454M
1321.315	0.867	1578841	WORD_OFF	n/a	n/a	RADIO	Electronics	6	11	[0, 0, 0]	n/a	catFR1	0	R1454M
1322.182	1.6	1579704	WORD	n/a	wordpools/wordpool_categorized_EN.txt	JEANS	Clothing	7	11	[0, 0, 0]	n/a	catFR1	0	R1454M
1323.782	0.783	1581296	WORD_OFF	n/a	n/a	JEANS	Clothing	7	11	[0, 0, 0]	n/a	catFR1	0	R1454M
1324.565	1.6	1582089	WORD	n/a	wordpools/wordpool_categorized_EN.txt	DRESS	Clothing	8	11	[0, 0, 0]	n/a	catFR1	0	R1454M
1326.181	0.783	1583701	WORD_OFF	n/a	n/a	DRESS	Clothing	8	11	[0, 0, 0]	n/a	catFR1	0	R1454M
1326.964	1.6	1584495	WORD	n/a	wordpools/wordpool_categorized_EN.txt	STEREO	Electronics	9	11	[0, 0, 0]	n/a	catFR1	0	R1454M
1328.564	0.984	1586082	WORD_OFF	n/a	n/a	STEREO	Electronics	9	11	[0, 0, 0]	n/a	catFR1	0	R1454M
1329.548	1.6	1587074	WORD	n/a	wordpools/wordpool_categorized_EN.txt	PRINTER	Electronics	10	11	[0, 0, 0]	n/a	catFR1	0	R1454M
1331.164	0.949	1588686	WORD_OFF	n/a	n/a	PRINTER	Electronics	10	11	[0, 0, 0]	n/a	catFR1	0	R1454M
1332.113	1.6	1589629	WORD	n/a	wordpools/wordpool_categorized_EN.txt	HAMMER	Tools	11	11	[0, 0, 0]	n/a	catFR1	0	R1454M
1333.714	1.0	1591236	WORD_OFF	n/a	n/a	HAMMER	Tools	11	11	[0, 0, 0]	n/a	catFR1	0	R1454M
1334.714	1.6	1592233	WORD	n/a	wordpools/wordpool_categorized_EN.txt	SANDER	Tools	12	11	[0, 0, 0]	n/a	catFR1	0	R1454M
1336.331	0.002	1593845	WORD_OFF	n/a	n/a	SANDER	Tools	12	11	[0, 0, 0]	n/a	catFR1	0	R1454M
1336.333	0.0	1593845	ENCODING_END	n/a	n/a	n/a	n/a	-999	11	[0, 0, 0]	n/a	catFR1	0	R1454M
1336.333	0.0	1593845	DISTRACT_START	n/a	n/a	n/a	n/a	-999	11	[0, 0, 0]	n/a	catFR1	0	R1454M
1336.332	0.001	1593848	PROB	3.799	n/a	n/a	n/a	-999	11	[4, 7, 1]	12.0	catFR1	0	R1454M
1336.333	3.814	1593849	START	n/a	n/a	n/a	n/a	-999	11	[-999, -999, -999]	n/a	catFR1	0	R1454M
1340.147	3.534	1597662	PROB	3.517	n/a	n/a	n/a	-999	11	[6, 2, 4]	12.0	catFR1	0	R1454M
1343.681	2.95	1601196	PROB	2.933	n/a	n/a	n/a	-999	11	[1, 1, 3]	5.0	catFR1	0	R1454M
1346.631	3.0	1604146	PROB	2.982	n/a	n/a	n/a	-999	11	[1, 6, 2]	9.0	catFR1	0	R1454M
1349.631	4.184	1607146	PROB	4.167	n/a	n/a	n/a	-999	11	[2, 8, 6]	16.0	catFR1	0	R1454M
1353.815	4.316	1611330	PROB	4.299	n/a	n/a	n/a	-999	11	[6, 3, 7]	16.0	catFR1	0	R1454M
1358.131	0.0	1615644	DISTRACT_END	n/a	n/a	n/a	n/a	-999	11	[0, 0, 0]	n/a	catFR1	0	R1454M
1358.131	2.216	1615646	STOP	n/a	n/a	n/a	n/a	-999	11	[-999, -999, -999]	n/a	catFR1	0	R1454M
1360.347	0.922	1617859	REC_START	n/a	n/a	n/a	n/a	-999	11	[0, 0, 0]	n/a	catFR1	0	R1454M
1361.269	1.312	1618784	REC_WORD	0.922	n/a	PANTS	Clothing	-999	11	[0, 0, 0]	n/a	catFR1	0	R1454M
1362.581	2.024	1620095	REC_WORD	2.234	n/a	SOCKS	Clothing	2	11	[0, 0, 0]	n/a	catFR1	0	R1454M
1364.605	2.051	1622119	REC_WORD	4.258	n/a	LEVEL	Tools	4	11	[0, 0, 0]	n/a	catFR1	0	R1454M
1366.656	17.524	1624170	REC_WORD	6.309	n/a	SANDER	Tools	12	11	[0, 0, 0]	n/a	catFR1	0	R1454M
1384.18	6.447	1641693	REC_WORD	23.833	n/a	HAMMER	Tools	11	11	[0, 0, 0]	n/a	catFR1	0	R1454M
1390.627	7.17	1648152	REC_END	n/a	n/a	n/a	n/a	-999	11	[0, 0, 0]	n/a	catFR1	0	R1454M
1397.797	10.0	1655324	COUNTDOWN_START	n/a	n/a	n/a	n/a	-999	12	[0, 0, 0]	n/a	catFR1	0	R1454M
1408.147	0.001	1665665	COUNTDOWN_END	n/a	n/a	n/a	n/a	-999	12	[0, 0, 0]	n/a	catFR1	0	R1454M
1408.148	2.082	1665665	ENCODING_START	n/a	n/a	n/a	n/a	-999	12	[0, 0, 0]	n/a	catFR1	0	R1454M
1410.23	1.6	1667749	WORD	n/a	wordpools/wordpool_categorized_EN.txt	ROOSTER	FarmAnimals	1	12	[0, 0, 0]	n/a	catFR1	0	R1454M
1411.83	1.0	1669336	WORD_OFF	n/a	n/a	ROOSTER	FarmAnimals	1	12	[0, 0, 0]	n/a	catFR1	0	R1454M
1412.83	1.6	1670348	WORD	n/a	wordpools/wordpool_categorized_EN.txt	HEN	FarmAnimals	2	12	[0, 0, 0]	n/a	catFR1	0	R1454M
1414.446	0.818	1671965	WORD_OFF	n/a	n/a	HEN	FarmAnimals	2	12	[0, 0, 0]	n/a	catFR1	0	R1454M
1415.264	1.6	1672778	WORD	n/a	wordpools/wordpool_categorized_EN.txt	ATTIC	Building	3	12	[0, 0, 0]	n/a	catFR1	0	R1454M
1416.88	0.85	1674395	WORD_OFF	n/a	n/a	ATTIC	Building	3	12	[0, 0, 0]	n/a	catFR1	0	R1454M
1417.73	1.6	1675238	WORD	n/a	wordpools/wordpool_categorized_EN.txt	FLOOR	Building	4	12	[0, 0, 0]	n/a	catFR1	0	R1454M
1419.331	0.949	1676850	WORD_OFF	n/a	n/a	FLOOR	Building	4	12	[0, 0, 0]	n/a	catFR1	0	R1454M
1420.28	1.6	1677793	WORD	n/a	wordpools/wordpool_categorized_EN.txt	SHOVEL	Tools	5	12	[0, 0, 0]	n/a	catFR1	0	R1454M
1421.881	0.85	1679400	WORD_OFF	n/a	n/a	SHOVEL	Tools	5	12	[0, 0, 0]	n/a	catFR1	0	R1454M
1422.731	1.6	1680248	WORD	n/a	wordpools/wordpool_categorized_EN.txt	SCREWDRIVER	Tools	6	12	[0, 0, 0]	n/a	catFR1	0	R1454M
1424.331	0.966	1681835	WORD_OFF	n/a	n/a	SCREWDRIVER	Tools	6	12	[0, 0, 0]	n/a	catFR1	0	R1454M
1425.297	1.6	1682802	WORD	n/a	wordpools/wordpool_categorized_EN.txt	STAIRS	Building	7	12	[0, 0, 0]	n/a	catFR1	0	R1454M
1426.899	0.999	1684414	WORD_OFF	n/a	n/a	STAIRS	Building	7	12	[0, 0, 0]	n/a	catFR1	0	R1454M
1427.898	1.6	1685406	WORD	n/a	wordpools/wordpool_categorized_EN.txt	ROOM	Building	8	12	[0, 0, 0]	n/a	catFR1	0	R1454M
1429.514	0.882	1687018	WORD_OFF	n/a	n/a	ROOM	Building	8	12	[0, 0, 0]	n/a	catFR1	0	R1454M
1430.396	1.6	1687911	WORD	n/a	wordpools/wordpool_categorized_EN.txt	WRENCH	Tools	9	12	[0, 0, 0]	n/a	catFR1	0	R1454M
1431.998	0.883	1689523	WORD_OFF	n/a	n/a	WRENCH	Tools	9	12	[0, 0, 0]	n/a	catFR1	0	R1454M
1432.881	1.6	1690391	WORD	n/a	wordpools/wordpool_categorized_EN.txt	CROWBAR	Tools	10	12	[0, 0, 0]	n/a	catFR1	0	R1454M
1434.498	0.783	1692003	WORD_OFF	n/a	n/a	CROWBAR	Tools	10	12	[0, 0, 0]	n/a	catFR1	0	R1454M
1435.281	1.6	1692796	WORD	n/a	wordpools/wordpool_categorized_EN.txt	HORSE	FarmAnimals	11	12	[0, 0, 0]	n/a	catFR1	0	R1454M
1436.898	0.9	1694408	WORD_OFF	n/a	n/a	HORSE	FarmAnimals	11	12	[0, 0, 0]	n/a	catFR1	0	R1454M
1437.798	1.6	1695301	WORD	n/a	wordpools/wordpool_categorized_EN.txt	CHICKEN	FarmAnimals	12	12	[0, 0, 0]	n/a	catFR1	0	R1454M
1439.398	0.001	1696909	PROB	3.616	n/a	n/a	n/a	-999	12	[2, 2, 1]	5.0	catFR1	0	R1454M
1439.399	0.0	1696910	START	n/a	n/a	n/a	n/a	-999	12	[-999, -999, -999]	n/a	catFR1	0	R1454M
1439.398	0.001	1696913	WORD_OFF	n/a	n/a	CHICKEN	FarmAnimals	12	12	[0, 0, 0]	n/a	catFR1	0	R1454M
1439.399	0.0	1696913	ENCODING_END	n/a	n/a	n/a	n/a	-999	12	[0, 0, 0]	n/a	catFR1	0	R1454M
1439.399	3.633	1696913	DISTRACT_START	n/a	n/a	n/a	n/a	-999	12	[0, 0, 0]	n/a	catFR1	0	R1454M
1443.032	4.533	1700543	PROB	4.515	n/a	n/a	n/a	-999	12	[7, 7, 5]	19.0	catFR1	0	R1454M
1447.565	3.3	1705075	PROB	3.283	n/a	n/a	n/a	-999	12	[1, 7, 3]	11.0	catFR1	0	R1454M
1450.865	4.017	1708375	PROB	3.998	n/a	n/a	n/a	-999	12	[1, 1, 4]	6.0	catFR1	0	R1454M
1454.882	5.331	1712392	PROB	5.315	n/a	n/a	n/a	-999	12	[3, 8, 6]	17.0	catFR1	0	R1454M
1460.213	0.0	1717720	DISTRACT_END	n/a	n/a	n/a	n/a	-999	12	[0, 0, 0]	n/a	catFR1	0	R1454M
1460.213	2.135	1717723	STOP	n/a	n/a	n/a	n/a	-999	12	[-999, -999, -999]	n/a	catFR1	0	R1454M
1462.348	0.984	1719861	REC_START	n/a	n/a	n/a	n/a	-999	12	[0, 0, 0]	n/a	catFR1	0	R1454M
1463.332	1.248	1720842	REC_WORD	0.984	n/a	ROOSTER	FarmAnimals	1	12	[0, 0, 0]	n/a	catFR1	0	R1454M
1464.58	2.154	1722090	REC_WORD	2.232	n/a	HEN	FarmAnimals	2	12	[0, 0, 0]	n/a	catFR1	0	R1454M
1466.734	2.101	1724243	REC_WORD	4.386	n/a	CHICKEN	FarmAnimals	12	12	[0, 0, 0]	n/a	catFR1	0	R1454M
1468.835	1.0	1726344	REC_WORD	6.487	n/a	SCREWDRIVER	Tools	6	12	[0, 0, 0]	n/a	catFR1	0	R1454M
1469.835	4.905	1727344	REC_WORD_VV	7.487	n/a	<>	n/a	-999	12	[0, 0, 0]	n/a	catFR1	0	R1454M
1474.74	17.88	1732249	REC_WORD	12.392	n/a	CROWBAR	Tools	10	12	[0, 0, 0]	n/a	catFR1	0	R1454M
1492.62	0.0	1750134	REC_END	n/a	n/a	n/a	n/a	-999	12	[0, 0, 0]	n/a	catFR1	0	R1454M
