onset	duration	sample	trial_type	response_time	stim_file	item_name	category	serialpos	list	test	answer	experiment	session	subject
0.0	3.33	3026	INSTRUCT_START	n/a	n/a	n/a	n/a	-999	-999	[0, 0, 0]	n/a	catFR1	4	R1489E
3.33	116.873	6346	INSTRUCT_END	n/a	n/a	n/a	n/a	-999	-999	[0, 0, 0]	n/a	catFR1	4	R1489E
120.203	10.351	123210	COUNTDOWN_START	n/a	n/a	n/a	n/a	-999	-999	[0, 0, 0]	n/a	catFR1	4	R1489E
130.554	0.0	133565	COUNTDOWN_END	n/a	n/a	n/a	n/a	-999	-999	[0, 0, 0]	n/a	catFR1	4	R1489E
130.554	2.085	133565	ENCODING_START	n/a	n/a	n/a	n/a	-999	-1	[0, 0, 0]	n/a	catFR1	4	R1489E
132.639	1.6	135650	WORD	n/a	n/a	MOPED	Vehicles	1	-1	[0, 0, 0]	n/a	catFR1	4	R1489E
134.239	0.8	137250	WORD_OFF	n/a	n/a	MOPED	Vehicles	1	-1	[0, 0, 0]	n/a	catFR1	4	R1489E
135.039	1.6	138049	WORD	n/a	n/a	VAN	Vehicles	2	-1	[0, 0, 0]	n/a	catFR1	4	R1489E
136.639	0.883	139649	WORD_OFF	n/a	n/a	VAN	Vehicles	2	-1	[0, 0, 0]	n/a	catFR1	4	R1489E
137.522	1.617	140529	WORD	n/a	n/a	CHEESECAKE	Desserts	3	-1	[0, 0, 0]	n/a	catFR1	4	R1489E
139.139	0.766	142149	WORD_OFF	n/a	n/a	CHEESECAKE	Desserts	3	-1	[0, 0, 0]	n/a	catFR1	4	R1489E
139.905	1.601	142908	WORD	n/a	n/a	MOUSSE	Desserts	4	-1	[0, 0, 0]	n/a	catFR1	4	R1489E
141.506	1.0	144508	WORD_OFF	n/a	n/a	MOUSSE	Desserts	4	-1	[0, 0, 0]	n/a	catFR1	4	R1489E
142.506	1.617	145510	WORD	n/a	n/a	CARDINAL	Birds	5	-1	[0, 0, 0]	n/a	catFR1	4	R1489E
144.123	0.85	147129	WORD_OFF	n/a	n/a	CARDINAL	Birds	5	-1	[0, 0, 0]	n/a	catFR1	4	R1489E
144.973	1.6	147980	WORD	n/a	n/a	SPARROW	Birds	6	-1	[0, 0, 0]	n/a	catFR1	4	R1489E
146.573	0.916	149579	WORD_OFF	n/a	n/a	SPARROW	Birds	6	-1	[0, 0, 0]	n/a	catFR1	4	R1489E
147.489	1.6	150490	WORD	n/a	n/a	TRUCK	Vehicles	7	-1	[0, 0, 0]	n/a	catFR1	4	R1489E
149.089	0.984	152099	WORD_OFF	n/a	n/a	TRUCK	Vehicles	7	-1	[0, 0, 0]	n/a	catFR1	4	R1489E
150.073	1.617	153081	WORD	n/a	n/a	BOAT	Vehicles	8	-1	[0, 0, 0]	n/a	catFR1	4	R1489E
151.69	0.783	154691	WORD_OFF	n/a	n/a	BOAT	Vehicles	8	-1	[0, 0, 0]	n/a	catFR1	4	R1489E
152.473	1.6	155480	WORD	n/a	n/a	COOKIE	Desserts	9	-1	[0, 0, 0]	n/a	catFR1	4	R1489E
154.073	1.001	157080	WORD_OFF	n/a	n/a	COOKIE	Desserts	9	-1	[0, 0, 0]	n/a	catFR1	4	R1489E
155.074	1.599	158082	WORD	n/a	n/a	COBBLER	Desserts	10	-1	[0, 0, 0]	n/a	catFR1	4	R1489E
156.673	0.901	159681	WORD_OFF	n/a	n/a	COBBLER	Desserts	10	-1	[0, 0, 0]	n/a	catFR1	4	R1489E
157.574	1.616	160582	WORD	n/a	n/a	SEAGULL	Birds	11	-1	[0, 0, 0]	n/a	catFR1	4	R1489E
159.19	0.883	162191	WORD_OFF	n/a	n/a	SEAGULL	Birds	11	-1	[0, 0, 0]	n/a	catFR1	4	R1489E
160.073	1.602	163072	WORD	n/a	n/a	FINCH	Birds	12	-1	[0, 0, 0]	n/a	catFR1	4	R1489E
161.675	0.0	164679	START	n/a	n/a	n/a	n/a	-999	-1	[-999, -999, -999]	n/a	catFR1	4	R1489E
161.675	0.0	164679	PROB	0.0	n/a	n/a	n/a	-999	-1	[3, 5, 2]	10	catFR1	4	R1489E
161.674	0.001	164682	WORD_OFF	n/a	n/a	FINCH	Birds	12	-1	[0, 0, 0]	n/a	catFR1	4	R1489E
161.675	0.0	164682	ENCODING_END	n/a	n/a	n/a	n/a	-999	-1	[0, 0, 0]	n/a	catFR1	4	R1489E
161.675	3.916	164682	DISTRACT_START	n/a	n/a	n/a	n/a	-999	-1	[0, 0, 0]	n/a	catFR1	4	R1489E
165.591	2.517	168595	PROB	2.517	n/a	n/a	n/a	-999	-1	[4, 6, 1]	11	catFR1	4	R1489E
168.108	2.118	171112	PROB	2.118	n/a	n/a	n/a	-999	-1	[1, 6, 5]	12	catFR1	4	R1489E
170.226	3.481	173229	PROB	3.481	n/a	n/a	n/a	-999	-1	[2, 6, 7]	15	catFR1	4	R1489E
173.707	3.251	176710	PROB	3.251	n/a	n/a	n/a	-999	-1	[4, 7, 6]	17	catFR1	4	R1489E
176.958	4.017	179961	PROB	4.017	n/a	n/a	n/a	-999	-1	[8, 5, 1]	14	catFR1	4	R1489E
180.975	2.566	183977	PROB	2.566	n/a	n/a	n/a	-999	-1	[6, 6, 5]	17	catFR1	4	R1489E
183.541	0.0	186543	STOP	n/a	n/a	n/a	n/a	-999	-1	[-999, -999, -999]	n/a	catFR1	4	R1489E
183.541	2.033	186546	DISTRACT_END	n/a	n/a	n/a	n/a	-999	-1	[0, 0, 0]	n/a	catFR1	4	R1489E
185.574	1.068	188578	REC_START	n/a	n/a	n/a	n/a	-999	-1	[0, 0, 0]	n/a	catFR1	4	R1489E
186.642	0.815	189644	REC_WORD	0.815	n/a	CARDINAL	Birds	5	-1	[0, 0, 0]	n/a	catFR1	4	R1489E
187.457	1.101	190459	REC_WORD	1.101	n/a	SEAGULL	Birds	11	-1	[0, 0, 0]	n/a	catFR1	4	R1489E
188.558	1.09	191560	REC_WORD	1.09	n/a	FINCH	Birds	12	-1	[0, 0, 0]	n/a	catFR1	4	R1489E
189.648	1.028	192650	REC_WORD	1.028	n/a	CHEESECAKE	Desserts	3	-1	[0, 0, 0]	n/a	catFR1	4	R1489E
190.676	3.444	193677	REC_WORD	3.444	n/a	MOUSSE	Desserts	4	-1	[0, 0, 0]	n/a	catFR1	4	R1489E
194.12	0.532	197121	REC_WORD_VV	0.532	n/a	<>	n/a	-999	-1	[0, 0, 0]	n/a	catFR1	4	R1489E
194.652	0.776	197653	REC_WORD	0.776	n/a	TRUCK	Vehicles	7	-1	[0, 0, 0]	n/a	catFR1	4	R1489E
195.428	1.435	198429	REC_WORD	1.435	n/a	MOPED	Vehicles	1	-1	[0, 0, 0]	n/a	catFR1	4	R1489E
196.863	6.751	199864	REC_WORD	6.751	n/a	BUS	n/a	-999	-1	[0, 0, 0]	n/a	catFR1	4	R1489E
203.614	8.366	206614	REC_WORD	8.366	n/a	CARDINAL	Birds	5	-1	[0, 0, 0]	n/a	catFR1	4	R1489E
211.98	0.424	214979	REC_WORD_VV	0.424	n/a	<>	n/a	-999	-1	[0, 0, 0]	n/a	catFR1	4	R1489E
212.404	0.482	215403	REC_WORD	0.482	n/a	BOAT	Vehicles	8	-1	[0, 0, 0]	n/a	catFR1	4	R1489E
212.886	0.151	215885	REC_WORD_VV	0.151	n/a	<>	n/a	-999	-1	[0, 0, 0]	n/a	catFR1	4	R1489E
213.037	0.383	216036	REC_WORD	0.383	n/a	PLANE	n/a	-999	-1	[0, 0, 0]	n/a	catFR1	4	R1489E
213.42	2.383	216419	REC_WORD_VV	2.383	n/a	<>	n/a	-999	-1	[0, 0, 0]	n/a	catFR1	4	R1489E
215.803	17.125	218806	REC_END	n/a	n/a	n/a	n/a	-999	-1	[0, 0, 0]	n/a	catFR1	4	R1489E
232.928	10.35	235923	COUNTDOWN_START	n/a	n/a	n/a	n/a	-999	1	[0, 0, 0]	n/a	catFR1	4	R1489E
243.278	0.0	246279	COUNTDOWN_END	n/a	n/a	n/a	n/a	-999	1	[0, 0, 0]	n/a	catFR1	4	R1489E
243.278	2.184	246279	ENCODING_START	n/a	n/a	n/a	n/a	-999	1	[0, 0, 0]	n/a	catFR1	4	R1489E
245.462	1.6	248455	WORD	n/a	wordpools/wordpool_categorized_EN.txt	PHONE	Electronics	1	1	[0, 0, 0]	n/a	catFR1	4	R1489E
247.062	0.984	250054	WORD_OFF	n/a	n/a	PHONE	Electronics	1	1	[0, 0, 0]	n/a	catFR1	4	R1489E
248.046	1.616	251046	WORD	n/a	wordpools/wordpool_categorized_EN.txt	SPEAKER	Electronics	2	1	[0, 0, 0]	n/a	catFR1	4	R1489E
249.662	0.934	252656	WORD_OFF	n/a	n/a	SPEAKER	Electronics	2	1	[0, 0, 0]	n/a	catFR1	4	R1489E
250.596	1.617	253587	WORD	n/a	wordpools/wordpool_categorized_EN.txt	THUNDERSTORM	Weather	3	1	[0, 0, 0]	n/a	catFR1	4	R1489E
252.213	0.967	255207	WORD_OFF	n/a	n/a	THUNDERSTORM	Weather	3	1	[0, 0, 0]	n/a	catFR1	4	R1489E
253.18	1.6	256178	WORD	n/a	wordpools/wordpool_categorized_EN.txt	FOG	Weather	4	1	[0, 0, 0]	n/a	catFR1	4	R1489E
254.78	0.917	257778	WORD_OFF	n/a	n/a	FOG	Weather	4	1	[0, 0, 0]	n/a	catFR1	4	R1489E
255.697	1.599	258689	WORD	n/a	wordpools/wordpool_categorized_EN.txt	BOOKCASE	Furniture	5	1	[0, 0, 0]	n/a	catFR1	4	R1489E
257.296	0.784	260288	WORD_OFF	n/a	n/a	BOOKCASE	Furniture	5	1	[0, 0, 0]	n/a	catFR1	4	R1489E
258.08	1.6	261078	WORD	n/a	wordpools/wordpool_categorized_EN.txt	CABINET	Furniture	6	1	[0, 0, 0]	n/a	catFR1	4	R1489E
259.68	0.817	262677	WORD_OFF	n/a	n/a	CABINET	Furniture	6	1	[0, 0, 0]	n/a	catFR1	4	R1489E
260.497	1.6	263487	WORD	n/a	wordpools/wordpool_categorized_EN.txt	RAIN	Weather	7	1	[0, 0, 0]	n/a	catFR1	4	R1489E
262.097	0.916	265086	WORD_OFF	n/a	n/a	RAIN	Weather	7	1	[0, 0, 0]	n/a	catFR1	4	R1489E
263.013	1.601	266007	WORD	n/a	wordpools/wordpool_categorized_EN.txt	LIGHTNING	Weather	8	1	[0, 0, 0]	n/a	catFR1	4	R1489E
264.614	0.999	267607	WORD_OFF	n/a	n/a	LIGHTNING	Weather	8	1	[0, 0, 0]	n/a	catFR1	4	R1489E
265.613	1.601	268609	WORD	n/a	wordpools/wordpool_categorized_EN.txt	CALCULATOR	Electronics	9	1	[0, 0, 0]	n/a	catFR1	4	R1489E
267.214	0.85	270208	WORD_OFF	n/a	n/a	CALCULATOR	Electronics	9	1	[0, 0, 0]	n/a	catFR1	4	R1489E
268.064	1.616	271058	WORD	n/a	wordpools/wordpool_categorized_EN.txt	RADIO	Electronics	10	1	[0, 0, 0]	n/a	catFR1	4	R1489E
269.68	1.0	272668	WORD_OFF	n/a	n/a	RADIO	Electronics	10	1	[0, 0, 0]	n/a	catFR1	4	R1489E
270.68	1.617	273670	WORD	n/a	wordpools/wordpool_categorized_EN.txt	NIGHTSTAND	Furniture	11	1	[0, 0, 0]	n/a	catFR1	4	R1489E
272.297	0.95	275289	WORD_OFF	n/a	n/a	NIGHTSTAND	Furniture	11	1	[0, 0, 0]	n/a	catFR1	4	R1489E
273.247	1.601	276241	WORD	n/a	wordpools/wordpool_categorized_EN.txt	RECLINER	Furniture	12	1	[0, 0, 0]	n/a	catFR1	4	R1489E
274.848	0.001	277840	WORD_OFF	n/a	n/a	RECLINER	Furniture	12	1	[0, 0, 0]	n/a	catFR1	4	R1489E
274.849	0.0	277840	ENCODING_END	n/a	n/a	n/a	n/a	-999	1	[0, 0, 0]	n/a	catFR1	4	R1489E
274.849	0.0	277840	DISTRACT_START	n/a	n/a	n/a	n/a	-999	1	[0, 0, 0]	n/a	catFR1	4	R1489E
274.849	0.001	277842	START	n/a	n/a	n/a	n/a	-999	1	[-999, -999, -999]	n/a	catFR1	4	R1489E
274.85	3.231	277843	PROB	3.231	n/a	n/a	n/a	-999	1	[8, 8, 8]	24	catFR1	4	R1489E
278.081	3.034	281074	PROB	3.034	n/a	n/a	n/a	-999	1	[7, 8, 8]	23	catFR1	4	R1489E
281.115	2.817	284108	PROB	2.817	n/a	n/a	n/a	-999	1	[8, 6, 4]	18	catFR1	4	R1489E
283.932	2.267	286924	PROB	2.267	n/a	n/a	n/a	-999	1	[7, 2, 1]	10	catFR1	4	R1489E
286.199	2.234	289191	PROB	2.234	n/a	n/a	n/a	-999	1	[3, 1, 1]	5	catFR1	4	R1489E
288.433	3.933	291425	PROB	3.933	n/a	n/a	n/a	-999	1	[3, 8, 5]	16	catFR1	4	R1489E
292.366	2.749	295357	PROB	2.749	n/a	n/a	n/a	-999	1	[4, 5, 5]	14	catFR1	4	R1489E
295.115	0.0	298105	DISTRACT_END	n/a	n/a	n/a	n/a	-999	1	[0, 0, 0]	n/a	catFR1	4	R1489E
295.115	2.3	298106	STOP	n/a	n/a	n/a	n/a	-999	1	[-999, -999, -999]	n/a	catFR1	4	R1489E
297.415	1.496	300401	REC_START	n/a	n/a	n/a	n/a	-999	1	[0, 0, 0]	n/a	catFR1	4	R1489E
298.911	0.934	301902	REC_WORD	0.934	n/a	PHONE	Electronics	1	1	[0, 0, 0]	n/a	catFR1	4	R1489E
299.845	2.277	302836	REC_WORD	2.277	n/a	SPEAKER	Electronics	2	1	[0, 0, 0]	n/a	catFR1	4	R1489E
302.122	1.312	305113	REC_WORD	1.312	n/a	CABINET	Furniture	6	1	[0, 0, 0]	n/a	catFR1	4	R1489E
303.434	1.015	306424	REC_WORD	1.015	n/a	DESK	n/a	-999	1	[0, 0, 0]	n/a	catFR1	4	R1489E
304.449	3.773	307439	REC_WORD	3.773	n/a	BOOKCASE	Furniture	5	1	[0, 0, 0]	n/a	catFR1	4	R1489E
308.222	0.892	311212	REC_WORD	0.892	n/a	THUNDERSTORM	Weather	3	1	[0, 0, 0]	n/a	catFR1	4	R1489E
309.114	0.988	312104	REC_WORD	0.988	n/a	FOG	Weather	4	1	[0, 0, 0]	n/a	catFR1	4	R1489E
310.102	0.897	313092	REC_WORD	0.897	n/a	RAIN	Weather	7	1	[0, 0, 0]	n/a	catFR1	4	R1489E
310.999	7.738	313989	REC_WORD	7.738	n/a	LIGHTNING	Weather	8	1	[0, 0, 0]	n/a	catFR1	4	R1489E
318.737	8.909	321726	REC_WORD	8.909	n/a	RADIO	Electronics	10	1	[0, 0, 0]	n/a	catFR1	4	R1489E
327.646	8.638	330629	REC_END	n/a	n/a	n/a	n/a	-999	1	[0, 0, 0]	n/a	catFR1	4	R1489E
336.284	10.35	339273	COUNTDOWN_START	n/a	n/a	n/a	n/a	-999	2	[0, 0, 0]	n/a	catFR1	4	R1489E
346.634	0.001	349619	COUNTDOWN_END	n/a	n/a	n/a	n/a	-999	2	[0, 0, 0]	n/a	catFR1	4	R1489E
346.635	2.032	349619	ENCODING_START	n/a	n/a	n/a	n/a	-999	2	[0, 0, 0]	n/a	catFR1	4	R1489E
348.667	1.6	351653	WORD	n/a	wordpools/wordpool_categorized_EN.txt	ZEBRA	Zoo	1	2	[0, 0, 0]	n/a	catFR1	4	R1489E
350.267	0.852	353253	WORD_OFF	n/a	n/a	ZEBRA	Zoo	1	2	[0, 0, 0]	n/a	catFR1	4	R1489E
351.119	1.6	354103	WORD	n/a	wordpools/wordpool_categorized_EN.txt	ORANGUTAN	Zoo	2	2	[0, 0, 0]	n/a	catFR1	4	R1489E
352.719	0.766	355702	WORD_OFF	n/a	n/a	ORANGUTAN	Zoo	2	2	[0, 0, 0]	n/a	catFR1	4	R1489E
353.485	1.6	356471	WORD	n/a	wordpools/wordpool_categorized_EN.txt	LOBSTER	OceanAnimals	3	2	[0, 0, 0]	n/a	catFR1	4	R1489E
355.085	0.884	358071	WORD_OFF	n/a	n/a	LOBSTER	OceanAnimals	3	2	[0, 0, 0]	n/a	catFR1	4	R1489E
355.969	1.6	358951	WORD	n/a	wordpools/wordpool_categorized_EN.txt	CRAB	OceanAnimals	4	2	[0, 0, 0]	n/a	catFR1	4	R1489E
357.569	0.85	360551	WORD_OFF	n/a	n/a	CRAB	OceanAnimals	4	2	[0, 0, 0]	n/a	catFR1	4	R1489E
358.419	1.616	361401	WORD	n/a	wordpools/wordpool_categorized_EN.txt	WIND	Weather	5	2	[0, 0, 0]	n/a	catFR1	4	R1489E
360.035	0.901	363021	WORD_OFF	n/a	n/a	WIND	Weather	5	2	[0, 0, 0]	n/a	catFR1	4	R1489E
360.936	1.6	363922	WORD	n/a	wordpools/wordpool_categorized_EN.txt	HUMIDITY	Weather	6	2	[0, 0, 0]	n/a	catFR1	4	R1489E
362.536	0.967	365521	WORD_OFF	n/a	n/a	HUMIDITY	Weather	6	2	[0, 0, 0]	n/a	catFR1	4	R1489E
363.503	1.6	366483	WORD	n/a	wordpools/wordpool_categorized_EN.txt	TURTLE	OceanAnimals	7	2	[0, 0, 0]	n/a	catFR1	4	R1489E
365.103	0.9	368082	WORD_OFF	n/a	n/a	TURTLE	OceanAnimals	7	2	[0, 0, 0]	n/a	catFR1	4	R1489E
366.003	1.617	368983	WORD	n/a	wordpools/wordpool_categorized_EN.txt	WHALE	OceanAnimals	8	2	[0, 0, 0]	n/a	catFR1	4	R1489E
367.62	0.934	370602	WORD_OFF	n/a	n/a	WHALE	OceanAnimals	8	2	[0, 0, 0]	n/a	catFR1	4	R1489E
368.554	1.6	371534	WORD	n/a	wordpools/wordpool_categorized_EN.txt	THUNDER	Weather	9	2	[0, 0, 0]	n/a	catFR1	4	R1489E
370.154	0.85	373133	WORD_OFF	n/a	n/a	THUNDER	Weather	9	2	[0, 0, 0]	n/a	catFR1	4	R1489E
371.004	1.6	373983	WORD	n/a	wordpools/wordpool_categorized_EN.txt	DRIZZLE	Weather	10	2	[0, 0, 0]	n/a	catFR1	4	R1489E
372.604	0.816	375583	WORD_OFF	n/a	n/a	DRIZZLE	Weather	10	2	[0, 0, 0]	n/a	catFR1	4	R1489E
373.42	1.6	376403	WORD	n/a	wordpools/wordpool_categorized_EN.txt	PANDA	Zoo	11	2	[0, 0, 0]	n/a	catFR1	4	R1489E
375.02	0.801	378002	WORD_OFF	n/a	n/a	PANDA	Zoo	11	2	[0, 0, 0]	n/a	catFR1	4	R1489E
375.821	1.616	378802	WORD	n/a	wordpools/wordpool_categorized_EN.txt	LION	Zoo	12	2	[0, 0, 0]	n/a	catFR1	4	R1489E
377.437	0.002	380421	WORD_OFF	n/a	n/a	LION	Zoo	12	2	[0, 0, 0]	n/a	catFR1	4	R1489E
377.439	0.0	380421	ENCODING_END	n/a	n/a	n/a	n/a	-999	2	[0, 0, 0]	n/a	catFR1	4	R1489E
377.439	0.0	380421	DISTRACT_START	n/a	n/a	n/a	n/a	-999	2	[0, 0, 0]	n/a	catFR1	4	R1489E
377.438	0.001	380421	PROB	0.001	n/a	n/a	n/a	-999	2	[1, 1, 6]	8	catFR1	4	R1489E
377.439	3.165	380422	START	n/a	n/a	n/a	n/a	-999	2	[-999, -999, -999]	n/a	catFR1	4	R1489E
380.604	3.249	383587	PROB	3.249	n/a	n/a	n/a	-999	2	[8, 6, 1]	15	catFR1	4	R1489E
383.853	2.902	386835	PROB	2.902	n/a	n/a	n/a	-999	2	[5, 2, 8]	15	catFR1	4	R1489E
386.755	3.651	389737	PROB	3.651	n/a	n/a	n/a	-999	2	[7, 7, 4]	18	catFR1	4	R1489E
390.406	2.7	393388	PROB	2.7	n/a	n/a	n/a	-999	2	[6, 7, 5]	18	catFR1	4	R1489E
393.106	2.283	396088	PROB	2.283	n/a	n/a	n/a	-999	2	[1, 3, 1]	5	catFR1	4	R1489E
395.389	2.898	398370	PROB	2.898	n/a	n/a	n/a	-999	2	[4, 2, 2]	8	catFR1	4	R1489E
398.287	0.0	401263	DISTRACT_END	n/a	n/a	n/a	n/a	-999	2	[0, 0, 0]	n/a	catFR1	4	R1489E
398.287	2.167	401268	STOP	n/a	n/a	n/a	n/a	-999	2	[-999, -999, -999]	n/a	catFR1	4	R1489E
400.454	0.93	403437	REC_START	n/a	n/a	n/a	n/a	-999	2	[0, 0, 0]	n/a	catFR1	4	R1489E
401.384	0.735	404365	REC_WORD	0.735	n/a	TIGER	n/a	-999	2	[0, 0, 0]	n/a	catFR1	4	R1489E
402.119	0.934	405100	REC_WORD	0.934	n/a	LION	Zoo	12	2	[0, 0, 0]	n/a	catFR1	4	R1489E
403.053	1.169	406034	REC_WORD	1.169	n/a	ORANGUTAN	Zoo	2	2	[0, 0, 0]	n/a	catFR1	4	R1489E
404.222	1.561	407203	REC_WORD	1.561	n/a	PANDA	Zoo	11	2	[0, 0, 0]	n/a	catFR1	4	R1489E
405.783	1.142	408763	REC_WORD	1.142	n/a	LOBSTER	OceanAnimals	3	2	[0, 0, 0]	n/a	catFR1	4	R1489E
406.925	1.21	409905	REC_WORD	1.21	n/a	CRAB	OceanAnimals	4	2	[0, 0, 0]	n/a	catFR1	4	R1489E
408.135	1.307	411115	REC_WORD	1.307	n/a	TURTLE	OceanAnimals	7	2	[0, 0, 0]	n/a	catFR1	4	R1489E
409.442	1.046	412422	REC_WORD	1.046	n/a	DRIZZLE	Weather	10	2	[0, 0, 0]	n/a	catFR1	4	R1489E
410.488	1.861	413468	REC_WORD	1.861	n/a	STORM	n/a	-999	2	[0, 0, 0]	n/a	catFR1	4	R1489E
412.349	2.251	415329	REC_WORD	2.251	n/a	HUMIDITY	Weather	6	2	[0, 0, 0]	n/a	catFR1	4	R1489E
414.6	8.609	417580	REC_WORD	8.609	n/a	RAIN	Weather	-999	2	[0, 0, 0]	n/a	catFR1	4	R1489E
423.209	7.468	426188	REC_WORD	7.468	n/a	ZEBRA	Zoo	1	2	[0, 0, 0]	n/a	catFR1	4	R1489E
430.677	2.613	433655	REC_END	n/a	n/a	n/a	n/a	-999	2	[0, 0, 0]	n/a	catFR1	4	R1489E
433.29	10.35	436267	COUNTDOWN_START	n/a	n/a	n/a	n/a	-999	3	[0, 0, 0]	n/a	catFR1	4	R1489E
443.64	0.0	446612	COUNTDOWN_END	n/a	n/a	n/a	n/a	-999	3	[0, 0, 0]	n/a	catFR1	4	R1489E
443.64	2.1	446622	ENCODING_START	n/a	n/a	n/a	n/a	-999	3	[0, 0, 0]	n/a	catFR1	4	R1489E
445.74	1.6	448717	WORD	n/a	wordpools/wordpool_categorized_EN.txt	PIG	FarmAnimals	1	3	[0, 0, 0]	n/a	catFR1	4	R1489E
447.34	0.783	450317	WORD_OFF	n/a	n/a	PIG	FarmAnimals	1	3	[0, 0, 0]	n/a	catFR1	4	R1489E
448.123	1.6	451096	WORD	n/a	wordpools/wordpool_categorized_EN.txt	COW	FarmAnimals	2	3	[0, 0, 0]	n/a	catFR1	4	R1489E
449.723	0.817	452695	WORD_OFF	n/a	n/a	COW	FarmAnimals	2	3	[0, 0, 0]	n/a	catFR1	4	R1489E
450.54	1.601	453515	WORD	n/a	wordpools/wordpool_categorized_EN.txt	ONION	Vegetables	3	3	[0, 0, 0]	n/a	catFR1	4	R1489E
452.141	0.868	455115	WORD_OFF	n/a	n/a	ONION	Vegetables	3	3	[0, 0, 0]	n/a	catFR1	4	R1489E
453.009	1.6	455985	WORD	n/a	wordpools/wordpool_categorized_EN.txt	CABBAGE	Vegetables	4	3	[0, 0, 0]	n/a	catFR1	4	R1489E
454.609	0.95	457585	WORD_OFF	n/a	n/a	CABBAGE	Vegetables	4	3	[0, 0, 0]	n/a	catFR1	4	R1489E
455.559	1.6	458536	WORD	n/a	wordpools/wordpool_categorized_EN.txt	PENCIL	OfficeSupplies	5	3	[0, 0, 0]	n/a	catFR1	4	R1489E
457.159	1.0	460135	WORD_OFF	n/a	n/a	PENCIL	OfficeSupplies	5	3	[0, 0, 0]	n/a	catFR1	4	R1489E
458.159	1.6	461138	WORD	n/a	wordpools/wordpool_categorized_EN.txt	STAPLER	OfficeSupplies	6	3	[0, 0, 0]	n/a	catFR1	4	R1489E
459.759	0.916	462737	WORD_OFF	n/a	n/a	STAPLER	OfficeSupplies	6	3	[0, 0, 0]	n/a	catFR1	4	R1489E
460.675	1.601	463648	WORD	n/a	wordpools/wordpool_categorized_EN.txt	TURKEY	FarmAnimals	7	3	[0, 0, 0]	n/a	catFR1	4	R1489E
462.276	0.967	465247	WORD_OFF	n/a	n/a	TURKEY	FarmAnimals	7	3	[0, 0, 0]	n/a	catFR1	4	R1489E
463.243	1.6	466219	WORD	n/a	wordpools/wordpool_categorized_EN.txt	ROOSTER	FarmAnimals	8	3	[0, 0, 0]	n/a	catFR1	4	R1489E
464.843	0.883	467818	WORD_OFF	n/a	n/a	ROOSTER	FarmAnimals	8	3	[0, 0, 0]	n/a	catFR1	4	R1489E
465.726	1.6	468699	WORD	n/a	wordpools/wordpool_categorized_EN.txt	BINDER	OfficeSupplies	9	3	[0, 0, 0]	n/a	catFR1	4	R1489E
467.326	1.0	470298	WORD_OFF	n/a	n/a	BINDER	OfficeSupplies	9	3	[0, 0, 0]	n/a	catFR1	4	R1489E
468.326	1.6	471300	WORD	n/a	wordpools/wordpool_categorized_EN.txt	FOLDER	OfficeSupplies	10	3	[0, 0, 0]	n/a	catFR1	4	R1489E
469.926	0.884	472900	WORD_OFF	n/a	n/a	FOLDER	OfficeSupplies	10	3	[0, 0, 0]	n/a	catFR1	4	R1489E
470.81	1.6	473780	WORD	n/a	wordpools/wordpool_categorized_EN.txt	PEAS	Vegetables	11	3	[0, 0, 0]	n/a	catFR1	4	R1489E
472.41	0.8	475380	WORD_OFF	n/a	n/a	PEAS	Vegetables	11	3	[0, 0, 0]	n/a	catFR1	4	R1489E
473.21	1.6	476179	WORD	n/a	wordpools/wordpool_categorized_EN.txt	SPINACH	Vegetables	12	3	[0, 0, 0]	n/a	catFR1	4	R1489E
474.81	0.001	477779	WORD_OFF	n/a	n/a	SPINACH	Vegetables	12	3	[0, 0, 0]	n/a	catFR1	4	R1489E
474.811	0.0	477785	PROB	0.0	n/a	n/a	n/a	-999	3	[2, 8, 1]	11	catFR1	4	R1489E
474.811	0.0	477785	START	n/a	n/a	n/a	n/a	-999	3	[-999, -999, -999]	n/a	catFR1	4	R1489E
474.811	0.0	477789	ENCODING_END	n/a	n/a	n/a	n/a	-999	3	[0, 0, 0]	n/a	catFR1	4	R1489E
474.811	2.983	477789	DISTRACT_START	n/a	n/a	n/a	n/a	-999	3	[0, 0, 0]	n/a	catFR1	4	R1489E
477.794	2.751	480767	PROB	2.751	n/a	n/a	n/a	-999	3	[1, 3, 6]	10	catFR1	4	R1489E
480.545	2.632	483518	PROB	2.632	n/a	n/a	n/a	-999	3	[4, 4, 6]	14	catFR1	4	R1489E
483.177	5.951	486150	PROB	5.951	n/a	n/a	n/a	-999	3	[4, 6, 7]	17	catFR1	4	R1489E
489.128	2.15	492100	PROB	2.15	n/a	n/a	n/a	-999	3	[4, 5, 2]	11	catFR1	4	R1489E
491.278	2.699	494250	PROB	2.699	n/a	n/a	n/a	-999	3	[8, 4, 1]	13	catFR1	4	R1489E
493.977	2.983	496949	PROB	2.983	n/a	n/a	n/a	-999	3	[6, 2, 4]	12	catFR1	4	R1489E
496.96	0.0	499927	DISTRACT_END	n/a	n/a	n/a	n/a	-999	3	[0, 0, 0]	n/a	catFR1	4	R1489E
496.96	2.118	499931	STOP	n/a	n/a	n/a	n/a	-999	3	[-999, -999, -999]	n/a	catFR1	4	R1489E
499.078	1.266	502050	REC_START	n/a	n/a	n/a	n/a	-999	3	[0, 0, 0]	n/a	catFR1	4	R1489E
500.344	0.819	503315	REC_WORD	0.819	n/a	PIG	FarmAnimals	1	3	[0, 0, 0]	n/a	catFR1	4	R1489E
501.163	0.896	504134	REC_WORD	0.896	n/a	COW	FarmAnimals	2	3	[0, 0, 0]	n/a	catFR1	4	R1489E
502.059	1.753	505030	REC_WORD	1.753	n/a	ROOSTER	FarmAnimals	8	3	[0, 0, 0]	n/a	catFR1	4	R1489E
503.812	0.771	506783	REC_WORD	0.771	n/a	PEAS	Vegetables	11	3	[0, 0, 0]	n/a	catFR1	4	R1489E
504.583	0.992	507554	REC_WORD	0.992	n/a	CABBAGE	Vegetables	4	3	[0, 0, 0]	n/a	catFR1	4	R1489E
505.575	0.519	508546	REC_WORD	0.519	n/a	ONION	Vegetables	3	3	[0, 0, 0]	n/a	catFR1	4	R1489E
506.094	3.01	509065	REC_WORD	3.01	n/a	SPINACH	Vegetables	12	3	[0, 0, 0]	n/a	catFR1	4	R1489E
509.104	1.753	512074	REC_WORD	1.753	n/a	PENCIL	OfficeSupplies	5	3	[0, 0, 0]	n/a	catFR1	4	R1489E
510.857	1.227	513827	REC_WORD	1.227	n/a	STAPLER	OfficeSupplies	6	3	[0, 0, 0]	n/a	catFR1	4	R1489E
512.084	1.619	515054	REC_WORD	1.619	n/a	FOLDER	OfficeSupplies	10	3	[0, 0, 0]	n/a	catFR1	4	R1489E
513.703	0.992	516673	REC_WORD	0.992	n/a	BINDER	OfficeSupplies	9	3	[0, 0, 0]	n/a	catFR1	4	R1489E
514.695	14.605	517665	REC_WORD	14.605	n/a	DESK	n/a	-999	3	[0, 0, 0]	n/a	catFR1	4	R1489E
529.3	6.614	532268	REC_END	n/a	n/a	n/a	n/a	-999	3	[0, 0, 0]	n/a	catFR1	4	R1489E
535.914	10.35	538888	COUNTDOWN_START	n/a	n/a	n/a	n/a	-999	4	[0, 0, 0]	n/a	catFR1	4	R1489E
546.264	0.0	549233	COUNTDOWN_END	n/a	n/a	n/a	n/a	-999	4	[0, 0, 0]	n/a	catFR1	4	R1489E
546.264	1.834	549233	ENCODING_START	n/a	n/a	n/a	n/a	-999	4	[0, 0, 0]	n/a	catFR1	4	R1489E
548.098	1.615	551065	WORD	n/a	wordpools/wordpool_categorized_EN.txt	SHEEP	FarmAnimals	1	4	[0, 0, 0]	n/a	catFR1	4	R1489E
549.713	0.818	552675	WORD_OFF	n/a	n/a	SHEEP	FarmAnimals	1	4	[0, 0, 0]	n/a	catFR1	4	R1489E
550.531	1.601	553495	WORD	n/a	wordpools/wordpool_categorized_EN.txt	LAMB	FarmAnimals	2	4	[0, 0, 0]	n/a	catFR1	4	R1489E
552.132	0.883	555094	WORD_OFF	n/a	n/a	LAMB	FarmAnimals	2	4	[0, 0, 0]	n/a	catFR1	4	R1489E
553.015	1.6	555985	WORD	n/a	wordpools/wordpool_categorized_EN.txt	IRON	Appliances	3	4	[0, 0, 0]	n/a	catFR1	4	R1489E
554.615	0.852	557584	WORD_OFF	n/a	n/a	IRON	Appliances	3	4	[0, 0, 0]	n/a	catFR1	4	R1489E
555.467	1.598	558434	WORD	n/a	wordpools/wordpool_categorized_EN.txt	REFRIGERATOR	Appliances	4	4	[0, 0, 0]	n/a	catFR1	4	R1489E
557.065	0.784	560034	WORD_OFF	n/a	n/a	REFRIGERATOR	Appliances	4	4	[0, 0, 0]	n/a	catFR1	4	R1489E
557.849	1.6	560813	WORD	n/a	wordpools/wordpool_categorized_EN.txt	WALNUT	Trees	5	4	[0, 0, 0]	n/a	catFR1	4	R1489E
559.449	0.933	562413	WORD_OFF	n/a	n/a	WALNUT	Trees	5	4	[0, 0, 0]	n/a	catFR1	4	R1489E
560.382	1.6	563354	WORD	n/a	wordpools/wordpool_categorized_EN.txt	ELM	Trees	6	4	[0, 0, 0]	n/a	catFR1	4	R1489E
561.982	1.0	564943	WORD_OFF	n/a	n/a	ELM	Trees	6	4	[0, 0, 0]	n/a	catFR1	4	R1489E
562.982	1.617	565945	WORD	n/a	wordpools/wordpool_categorized_EN.txt	VACUUM	Appliances	7	4	[0, 0, 0]	n/a	catFR1	4	R1489E
564.599	0.766	567565	WORD_OFF	n/a	n/a	VACUUM	Appliances	7	4	[0, 0, 0]	n/a	catFR1	4	R1489E
565.365	1.6	568334	WORD	n/a	wordpools/wordpool_categorized_EN.txt	DISHWASHER	Appliances	8	4	[0, 0, 0]	n/a	catFR1	4	R1489E
566.965	0.884	569934	WORD_OFF	n/a	n/a	DISHWASHER	Appliances	8	4	[0, 0, 0]	n/a	catFR1	4	R1489E
567.849	1.6	570814	WORD	n/a	wordpools/wordpool_categorized_EN.txt	CHICKEN	FarmAnimals	9	4	[0, 0, 0]	n/a	catFR1	4	R1489E
569.449	0.8	572414	WORD_OFF	n/a	n/a	CHICKEN	FarmAnimals	9	4	[0, 0, 0]	n/a	catFR1	4	R1489E
570.249	1.601	573213	WORD	n/a	wordpools/wordpool_categorized_EN.txt	CALF	FarmAnimals	10	4	[0, 0, 0]	n/a	catFR1	4	R1489E
571.85	0.983	574813	WORD_OFF	n/a	n/a	CALF	FarmAnimals	10	4	[0, 0, 0]	n/a	catFR1	4	R1489E
572.833	1.616	575794	WORD	n/a	wordpools/wordpool_categorized_EN.txt	CEDAR	Trees	11	4	[0, 0, 0]	n/a	catFR1	4	R1489E
574.449	0.949	577414	WORD_OFF	n/a	n/a	CEDAR	Trees	11	4	[0, 0, 0]	n/a	catFR1	4	R1489E
575.398	1.602	578366	WORD	n/a	wordpools/wordpool_categorized_EN.txt	OAK	Trees	12	4	[0, 0, 0]	n/a	catFR1	4	R1489E
577.0	0.0	579964	PROB	0.0	n/a	n/a	n/a	-999	4	[7, 6, 3]	16	catFR1	4	R1489E
577.0	0.001	579965	WORD_OFF	n/a	n/a	OAK	Trees	12	4	[0, 0, 0]	n/a	catFR1	4	R1489E
577.001	0.0	579965	ENCODING_END	n/a	n/a	n/a	n/a	-999	4	[0, 0, 0]	n/a	catFR1	4	R1489E
577.001	0.0	579965	DISTRACT_START	n/a	n/a	n/a	n/a	-999	4	[0, 0, 0]	n/a	catFR1	4	R1489E
577.001	3.466	579965	START	n/a	n/a	n/a	n/a	-999	4	[-999, -999, -999]	n/a	catFR1	4	R1489E
580.467	2.801	583430	PROB	2.801	n/a	n/a	n/a	-999	4	[8, 7, 6]	21	catFR1	4	R1489E
583.268	3.932	586231	PROB	3.932	n/a	n/a	n/a	-999	4	[3, 7, 7]	17	catFR1	4	R1489E
587.2	3.651	590163	PROB	3.651	n/a	n/a	n/a	-999	4	[7, 5, 7]	19	catFR1	4	R1489E
590.851	2.683	593813	PROB	2.683	n/a	n/a	n/a	-999	4	[7, 3, 7]	17	catFR1	4	R1489E
593.534	3.134	596496	PROB	3.134	n/a	n/a	n/a	-999	4	[3, 6, 1]	10	catFR1	4	R1489E
596.668	2.666	599630	PROB	2.666	n/a	n/a	n/a	-999	4	[5, 8, 5]	18	catFR1	4	R1489E
599.334	0.0	602295	DISTRACT_END	n/a	n/a	n/a	n/a	-999	4	[0, 0, 0]	n/a	catFR1	4	R1489E
599.334	2.201	602295	STOP	n/a	n/a	n/a	n/a	-999	4	[-999, -999, -999]	n/a	catFR1	4	R1489E
601.535	1.076	604500	REC_START	n/a	n/a	n/a	n/a	-999	4	[0, 0, 0]	n/a	catFR1	4	R1489E
602.611	0.944	605572	REC_WORD	0.944	n/a	SHEEP	FarmAnimals	1	4	[0, 0, 0]	n/a	catFR1	4	R1489E
603.555	1.06	606516	REC_WORD	1.06	n/a	LAMB	FarmAnimals	2	4	[0, 0, 0]	n/a	catFR1	4	R1489E
604.615	12.643	607576	REC_WORD	12.643	n/a	CHICKEN	FarmAnimals	9	4	[0, 0, 0]	n/a	catFR1	4	R1489E
617.258	2.78	620218	REC_WORD	2.78	n/a	IRON	Appliances	3	4	[0, 0, 0]	n/a	catFR1	4	R1489E
620.038	2.049	622997	REC_WORD	2.049	n/a	REFRIGERATOR	Appliances	4	4	[0, 0, 0]	n/a	catFR1	4	R1489E
622.087	2.113	625046	REC_WORD	2.113	n/a	VACUUM	Appliances	7	4	[0, 0, 0]	n/a	catFR1	4	R1489E
624.2	1.99	627159	REC_WORD	1.99	n/a	DISHWASHER	Appliances	8	4	[0, 0, 0]	n/a	catFR1	4	R1489E
626.19	5.578	629149	REC_WORD	5.578	n/a	DRYER	n/a	-999	4	[0, 0, 0]	n/a	catFR1	4	R1489E
631.768	2.735	634727	REC_END	n/a	n/a	n/a	n/a	-999	4	[0, 0, 0]	n/a	catFR1	4	R1489E
634.503	10.351	637460	COUNTDOWN_START	n/a	n/a	n/a	n/a	-999	5	[0, 0, 0]	n/a	catFR1	4	R1489E
644.854	0.0	647805	COUNTDOWN_END	n/a	n/a	n/a	n/a	-999	5	[0, 0, 0]	n/a	catFR1	4	R1489E
644.854	2.184	647816	ENCODING_START	n/a	n/a	n/a	n/a	-999	5	[0, 0, 0]	n/a	catFR1	4	R1489E
647.038	1.616	649992	WORD	n/a	wordpools/wordpool_categorized_EN.txt	GLUE	OfficeSupplies	1	5	[0, 0, 0]	n/a	catFR1	4	R1489E
648.654	0.817	651612	WORD_OFF	n/a	n/a	GLUE	OfficeSupplies	1	5	[0, 0, 0]	n/a	catFR1	4	R1489E
649.471	1.6	652431	WORD	n/a	wordpools/wordpool_categorized_EN.txt	PEN	OfficeSupplies	2	5	[0, 0, 0]	n/a	catFR1	4	R1489E
651.071	0.983	654031	WORD_OFF	n/a	n/a	PEN	OfficeSupplies	2	5	[0, 0, 0]	n/a	catFR1	4	R1489E
652.054	1.6	655013	WORD	n/a	wordpools/wordpool_categorized_EN.txt	PINE	Trees	3	5	[0, 0, 0]	n/a	catFR1	4	R1489E
653.654	0.951	656612	WORD_OFF	n/a	n/a	PINE	Trees	3	5	[0, 0, 0]	n/a	catFR1	4	R1489E
654.605	1.6	657564	WORD	n/a	wordpools/wordpool_categorized_EN.txt	HICKORY	Trees	4	5	[0, 0, 0]	n/a	catFR1	4	R1489E
656.205	0.949	659163	WORD_OFF	n/a	n/a	HICKORY	Trees	4	5	[0, 0, 0]	n/a	catFR1	4	R1489E
657.154	1.601	660114	WORD	n/a	wordpools/wordpool_categorized_EN.txt	PEELER	KitchenTools	5	5	[0, 0, 0]	n/a	catFR1	4	R1489E
658.755	0.999	661714	WORD_OFF	n/a	n/a	PEELER	KitchenTools	5	5	[0, 0, 0]	n/a	catFR1	4	R1489E
659.754	1.616	662706	WORD	n/a	wordpools/wordpool_categorized_EN.txt	FORK	KitchenTools	6	5	[0, 0, 0]	n/a	catFR1	4	R1489E
661.37	0.952	664325	WORD_OFF	n/a	n/a	FORK	KitchenTools	6	5	[0, 0, 0]	n/a	catFR1	4	R1489E
662.322	1.6	665277	WORD	n/a	wordpools/wordpool_categorized_EN.txt	RULER	OfficeSupplies	7	5	[0, 0, 0]	n/a	catFR1	4	R1489E
663.922	0.933	666876	WORD_OFF	n/a	n/a	RULER	OfficeSupplies	7	5	[0, 0, 0]	n/a	catFR1	4	R1489E
664.855	1.6	667807	WORD	n/a	wordpools/wordpool_categorized_EN.txt	TAPE	OfficeSupplies	8	5	[0, 0, 0]	n/a	catFR1	4	R1489E
666.455	0.9	669407	WORD_OFF	n/a	n/a	TAPE	OfficeSupplies	8	5	[0, 0, 0]	n/a	catFR1	4	R1489E
667.355	1.6	670308	WORD	n/a	wordpools/wordpool_categorized_EN.txt	COLANDER	KitchenTools	9	5	[0, 0, 0]	n/a	catFR1	4	R1489E
668.955	0.784	671907	WORD_OFF	n/a	n/a	COLANDER	KitchenTools	9	5	[0, 0, 0]	n/a	catFR1	4	R1489E
669.739	1.617	672697	WORD	n/a	wordpools/wordpool_categorized_EN.txt	GRATER	KitchenTools	10	5	[0, 0, 0]	n/a	catFR1	4	R1489E
671.356	0.866	674306	WORD_OFF	n/a	n/a	GRATER	KitchenTools	10	5	[0, 0, 0]	n/a	catFR1	4	R1489E
672.222	1.601	675177	WORD	n/a	wordpools/wordpool_categorized_EN.txt	EVERGREEN	Trees	11	5	[0, 0, 0]	n/a	catFR1	4	R1489E
673.823	0.85	676776	WORD_OFF	n/a	n/a	EVERGREEN	Trees	11	5	[0, 0, 0]	n/a	catFR1	4	R1489E
674.673	1.6	677626	WORD	n/a	wordpools/wordpool_categorized_EN.txt	BIRCH	Trees	12	5	[0, 0, 0]	n/a	catFR1	4	R1489E
676.273	0.001	679226	WORD_OFF	n/a	n/a	BIRCH	Trees	12	5	[0, 0, 0]	n/a	catFR1	4	R1489E
676.274	0.0	679226	ENCODING_END	n/a	n/a	n/a	n/a	-999	5	[0, 0, 0]	n/a	catFR1	4	R1489E
676.274	0.0	679226	DISTRACT_START	n/a	n/a	n/a	n/a	-999	5	[0, 0, 0]	n/a	catFR1	4	R1489E
676.273	0.001	679227	PROB	0.001	n/a	n/a	n/a	-999	5	[1, 6, 6]	13	catFR1	4	R1489E
676.274	3.898	679228	START	n/a	n/a	n/a	n/a	-999	5	[-999, -999, -999]	n/a	catFR1	4	R1489E
680.172	4.035	683126	PROB	4.035	n/a	n/a	n/a	-999	5	[7, 8, 4]	19	catFR1	4	R1489E
684.207	3.316	687160	PROB	3.316	n/a	n/a	n/a	-999	5	[3, 3, 7]	13	catFR1	4	R1489E
687.523	2.951	690476	PROB	2.951	n/a	n/a	n/a	-999	5	[2, 8, 1]	11	catFR1	4	R1489E
690.474	2.817	693427	PROB	2.817	n/a	n/a	n/a	-999	5	[1, 5, 3]	9	catFR1	4	R1489E
693.291	3.4	696243	PROB	3.4	n/a	n/a	n/a	-999	5	[2, 3, 3]	8	catFR1	4	R1489E
696.691	0.0	699642	DISTRACT_END	n/a	n/a	n/a	n/a	-999	5	[0, 0, 0]	n/a	catFR1	4	R1489E
696.691	2.35	699643	STOP	n/a	n/a	n/a	n/a	-999	5	[-999, -999, -999]	n/a	catFR1	4	R1489E
699.041	1.006	701989	REC_START	n/a	n/a	n/a	n/a	-999	5	[0, 0, 0]	n/a	catFR1	4	R1489E
700.047	0.832	702999	REC_WORD	0.832	n/a	GLUE	OfficeSupplies	1	5	[0, 0, 0]	n/a	catFR1	4	R1489E
700.879	0.717	703831	REC_WORD	0.717	n/a	PEN	OfficeSupplies	2	5	[0, 0, 0]	n/a	catFR1	4	R1489E
701.596	0.981	704548	REC_WORD	0.981	n/a	RULER	OfficeSupplies	7	5	[0, 0, 0]	n/a	catFR1	4	R1489E
702.577	1.161	705528	REC_WORD	1.161	n/a	TAPE	OfficeSupplies	8	5	[0, 0, 0]	n/a	catFR1	4	R1489E
703.738	0.965	706689	REC_WORD	0.965	n/a	PEELER	KitchenTools	5	5	[0, 0, 0]	n/a	catFR1	4	R1489E
704.703	1.577	707654	REC_WORD	1.577	n/a	COLANDER	KitchenTools	9	5	[0, 0, 0]	n/a	catFR1	4	R1489E
706.28	1.663	709231	REC_WORD	1.663	n/a	FORK	KitchenTools	6	5	[0, 0, 0]	n/a	catFR1	4	R1489E
707.943	1.822	710894	REC_WORD	1.822	n/a	EVERGREEN	Trees	11	5	[0, 0, 0]	n/a	catFR1	4	R1489E
709.765	0.672	712716	REC_WORD	0.672	n/a	PINE	Trees	3	5	[0, 0, 0]	n/a	catFR1	4	R1489E
710.437	0.891	713388	REC_WORD	0.891	n/a	OAK	Trees	-999	5	[0, 0, 0]	n/a	catFR1	4	R1489E
711.328	17.921	714279	REC_WORD	17.921	n/a	SPRUCE	n/a	-999	5	[0, 0, 0]	n/a	catFR1	4	R1489E
729.249	1.793	732196	REC_END	n/a	n/a	n/a	n/a	-999	5	[0, 0, 0]	n/a	catFR1	4	R1489E
731.042	10.35	733988	COUNTDOWN_START	n/a	n/a	n/a	n/a	-999	6	[0, 0, 0]	n/a	catFR1	4	R1489E
741.392	0.0	744343	COUNTDOWN_END	n/a	n/a	n/a	n/a	-999	6	[0, 0, 0]	n/a	catFR1	4	R1489E
741.392	2.252	744343	ENCODING_START	n/a	n/a	n/a	n/a	-999	6	[0, 0, 0]	n/a	catFR1	4	R1489E
743.644	1.6	746590	WORD	n/a	wordpools/wordpool_categorized_EN.txt	BEETLE	Insects	1	6	[0, 0, 0]	n/a	catFR1	4	R1489E
745.244	0.917	748190	WORD_OFF	n/a	n/a	BEETLE	Insects	1	6	[0, 0, 0]	n/a	catFR1	4	R1489E
746.161	1.616	749111	WORD	n/a	wordpools/wordpool_categorized_EN.txt	ANT	Insects	2	6	[0, 0, 0]	n/a	catFR1	4	R1489E
747.777	0.95	750720	WORD_OFF	n/a	n/a	ANT	Insects	2	6	[0, 0, 0]	n/a	catFR1	4	R1489E
748.727	1.616	751672	WORD	n/a	wordpools/wordpool_categorized_EN.txt	DOLPHIN	OceanAnimals	3	6	[0, 0, 0]	n/a	catFR1	4	R1489E
750.343	0.768	753291	WORD_OFF	n/a	n/a	DOLPHIN	OceanAnimals	3	6	[0, 0, 0]	n/a	catFR1	4	R1489E
751.111	1.617	754061	WORD	n/a	wordpools/wordpool_categorized_EN.txt	SHRIMP	OceanAnimals	4	6	[0, 0, 0]	n/a	catFR1	4	R1489E
752.728	0.833	755670	WORD_OFF	n/a	n/a	SHRIMP	OceanAnimals	4	6	[0, 0, 0]	n/a	catFR1	4	R1489E
753.561	1.6	756510	WORD	n/a	wordpools/wordpool_categorized_EN.txt	TRUMPET	Instruments	5	6	[0, 0, 0]	n/a	catFR1	4	R1489E
755.161	0.767	758110	WORD_OFF	n/a	n/a	TRUMPET	Instruments	5	6	[0, 0, 0]	n/a	catFR1	4	R1489E
755.928	1.616	758869	WORD	n/a	wordpools/wordpool_categorized_EN.txt	PIANO	Instruments	6	6	[0, 0, 0]	n/a	catFR1	4	R1489E
757.544	0.851	760488	WORD_OFF	n/a	n/a	PIANO	Instruments	6	6	[0, 0, 0]	n/a	catFR1	4	R1489E
758.395	1.599	761339	WORD	n/a	wordpools/wordpool_categorized_EN.txt	BEE	Insects	7	6	[0, 0, 0]	n/a	catFR1	4	R1489E
759.994	0.884	762938	WORD_OFF	n/a	n/a	BEE	Insects	7	6	[0, 0, 0]	n/a	catFR1	4	R1489E
760.878	1.6	763819	WORD	n/a	wordpools/wordpool_categorized_EN.txt	GNAT	Insects	8	6	[0, 0, 0]	n/a	catFR1	4	R1489E
762.478	0.835	765428	WORD_OFF	n/a	n/a	GNAT	Insects	8	6	[0, 0, 0]	n/a	catFR1	4	R1489E
763.313	1.615	766258	WORD	n/a	wordpools/wordpool_categorized_EN.txt	OYSTER	OceanAnimals	9	6	[0, 0, 0]	n/a	catFR1	4	R1489E
764.928	0.966	767878	WORD_OFF	n/a	n/a	OYSTER	OceanAnimals	9	6	[0, 0, 0]	n/a	catFR1	4	R1489E
765.894	1.601	768840	WORD	n/a	wordpools/wordpool_categorized_EN.txt	PLANKTON	OceanAnimals	10	6	[0, 0, 0]	n/a	catFR1	4	R1489E
767.495	0.836	770439	WORD_OFF	n/a	n/a	PLANKTON	OceanAnimals	10	6	[0, 0, 0]	n/a	catFR1	4	R1489E
768.331	1.614	771279	WORD	n/a	wordpools/wordpool_categorized_EN.txt	BASS	Instruments	11	6	[0, 0, 0]	n/a	catFR1	4	R1489E
769.945	0.817	772888	WORD_OFF	n/a	n/a	BASS	Instruments	11	6	[0, 0, 0]	n/a	catFR1	4	R1489E
770.762	1.602	773708	WORD	n/a	wordpools/wordpool_categorized_EN.txt	TROMBONE	Instruments	12	6	[0, 0, 0]	n/a	catFR1	4	R1489E
772.364	0.001	775308	WORD_OFF	n/a	n/a	TROMBONE	Instruments	12	6	[0, 0, 0]	n/a	catFR1	4	R1489E
772.365	0.001	775308	ENCODING_END	n/a	n/a	n/a	n/a	-999	6	[0, 0, 0]	n/a	catFR1	4	R1489E
772.366	0.0	775308	DISTRACT_START	n/a	n/a	n/a	n/a	-999	6	[0, 0, 0]	n/a	catFR1	4	R1489E
772.365	0.001	775310	PROB	0.001	n/a	n/a	n/a	-999	6	[2, 3, 3]	8	catFR1	4	R1489E
772.366	3.013	775311	START	n/a	n/a	n/a	n/a	-999	6	[-999, -999, -999]	n/a	catFR1	4	R1489E
775.379	2.95	778323	PROB	2.95	n/a	n/a	n/a	-999	6	[7, 5, 8]	23	catFR1	4	R1489E
778.329	2.917	781273	PROB	2.917	n/a	n/a	n/a	-999	6	[2, 2, 6]	10	catFR1	4	R1489E
781.246	2.817	784190	PROB	2.817	n/a	n/a	n/a	-999	6	[7, 8, 4]	19	catFR1	4	R1489E
784.063	2.283	787006	PROB	2.283	n/a	n/a	n/a	-999	6	[7, 2, 2]	11	catFR1	4	R1489E
786.346	3.135	789289	PROB	3.135	n/a	n/a	n/a	-999	6	[7, 8, 2]	17	catFR1	4	R1489E
789.481	2.998	792424	PROB	2.998	n/a	n/a	n/a	-999	6	[2, 4, 4]	10	catFR1	4	R1489E
792.479	0.0	795421	DISTRACT_END	n/a	n/a	n/a	n/a	-999	6	[0, 0, 0]	n/a	catFR1	4	R1489E
792.479	2.334	795422	STOP	n/a	n/a	n/a	n/a	-999	6	[-999, -999, -999]	n/a	catFR1	4	R1489E
794.813	0.748	797757	REC_START	n/a	n/a	n/a	n/a	-999	6	[0, 0, 0]	n/a	catFR1	4	R1489E
795.561	0.787	798503	REC_WORD	0.787	n/a	TRUMPET	Instruments	5	6	[0, 0, 0]	n/a	catFR1	4	R1489E
796.348	1.156	799290	REC_WORD	1.156	n/a	PIANO	Instruments	6	6	[0, 0, 0]	n/a	catFR1	4	R1489E
797.504	0.685	800446	REC_WORD	0.685	n/a	BASS	Instruments	11	6	[0, 0, 0]	n/a	catFR1	4	R1489E
798.189	1.202	801131	REC_WORD	1.202	n/a	TROMBONE	Instruments	12	6	[0, 0, 0]	n/a	catFR1	4	R1489E
799.391	1.986	802333	REC_WORD	1.986	n/a	PLANKTON	OceanAnimals	10	6	[0, 0, 0]	n/a	catFR1	4	R1489E
801.377	2.511	804319	REC_WORD	2.511	n/a	DOLPHIN	OceanAnimals	3	6	[0, 0, 0]	n/a	catFR1	4	R1489E
803.888	5.187	806830	REC_WORD	5.187	n/a	CRAB	OceanAnimals	-999	6	[0, 0, 0]	n/a	catFR1	4	R1489E
809.075	2.952	812016	REC_WORD	2.952	n/a	OYSTER	OceanAnimals	9	6	[0, 0, 0]	n/a	catFR1	4	R1489E
812.027	0.438	814968	REC_WORD_VV	0.438	n/a	<>	n/a	-999	6	[0, 0, 0]	n/a	catFR1	4	R1489E
812.465	0.751	815406	REC_WORD	0.751	n/a	BEE	Insects	7	6	[0, 0, 0]	n/a	catFR1	4	R1489E
813.216	1.233	816157	REC_WORD	1.233	n/a	GNAT	Insects	8	6	[0, 0, 0]	n/a	catFR1	4	R1489E
814.449	3.694	817389	REC_WORD	3.694	n/a	BEETLE	Insects	1	6	[0, 0, 0]	n/a	catFR1	4	R1489E
818.143	6.874	821083	REC_WORD_VV	6.874	n/a	<>	n/a	-999	6	[0, 0, 0]	n/a	catFR1	4	R1489E
825.017	2.313	827955	REC_END	n/a	n/a	n/a	n/a	-999	6	[0, 0, 0]	n/a	catFR1	4	R1489E
827.33	10.353	830273	COUNTDOWN_START	n/a	n/a	n/a	n/a	-999	7	[0, 0, 0]	n/a	catFR1	4	R1489E
837.683	0.0	840618	COUNTDOWN_END	n/a	n/a	n/a	n/a	-999	7	[0, 0, 0]	n/a	catFR1	4	R1489E
837.683	1.849	840618	ENCODING_START	n/a	n/a	n/a	n/a	-999	7	[0, 0, 0]	n/a	catFR1	4	R1489E
839.532	1.601	842470	WORD	n/a	wordpools/wordpool_categorized_EN.txt	JELLYFISH	OceanAnimals	1	7	[0, 0, 0]	n/a	catFR1	4	R1489E
841.133	0.9	844069	WORD_OFF	n/a	n/a	JELLYFISH	OceanAnimals	1	7	[0, 0, 0]	n/a	catFR1	4	R1489E
842.033	1.6	844970	WORD	n/a	wordpools/wordpool_categorized_EN.txt	SQUID	OceanAnimals	2	7	[0, 0, 0]	n/a	catFR1	4	R1489E
843.633	0.784	846570	WORD_OFF	n/a	n/a	SQUID	OceanAnimals	2	7	[0, 0, 0]	n/a	catFR1	4	R1489E
844.417	1.616	847349	WORD	n/a	wordpools/wordpool_categorized_EN.txt	SODA	Beverages	3	7	[0, 0, 0]	n/a	catFR1	4	R1489E
846.033	0.917	848969	WORD_OFF	n/a	n/a	SODA	Beverages	3	7	[0, 0, 0]	n/a	catFR1	4	R1489E
846.95	1.6	849890	WORD	n/a	wordpools/wordpool_categorized_EN.txt	WATER	Beverages	4	7	[0, 0, 0]	n/a	catFR1	4	R1489E
848.55	0.884	851489	WORD_OFF	n/a	n/a	WATER	Beverages	4	7	[0, 0, 0]	n/a	catFR1	4	R1489E
849.434	1.615	852370	WORD	n/a	wordpools/wordpool_categorized_EN.txt	ELEPHANT	Zoo	5	7	[0, 0, 0]	n/a	catFR1	4	R1489E
851.049	0.985	853989	WORD_OFF	n/a	n/a	ELEPHANT	Zoo	5	7	[0, 0, 0]	n/a	catFR1	4	R1489E
852.034	1.6	854971	WORD	n/a	wordpools/wordpool_categorized_EN.txt	GORILLA	Zoo	6	7	[0, 0, 0]	n/a	catFR1	4	R1489E
853.634	0.915	856571	WORD_OFF	n/a	n/a	GORILLA	Zoo	6	7	[0, 0, 0]	n/a	catFR1	4	R1489E
854.549	1.602	857482	WORD	n/a	wordpools/wordpool_categorized_EN.txt	RUM	Beverages	7	7	[0, 0, 0]	n/a	catFR1	4	R1489E
856.151	0.849	859091	WORD_OFF	n/a	n/a	RUM	Beverages	7	7	[0, 0, 0]	n/a	catFR1	4	R1489E
857.0	1.601	859931	WORD	n/a	wordpools/wordpool_categorized_EN.txt	WINE	Beverages	8	7	[0, 0, 0]	n/a	catFR1	4	R1489E
858.601	0.85	861541	WORD_OFF	n/a	n/a	WINE	Beverages	8	7	[0, 0, 0]	n/a	catFR1	4	R1489E
859.451	1.6	862381	WORD	n/a	wordpools/wordpool_categorized_EN.txt	FISH	OceanAnimals	9	7	[0, 0, 0]	n/a	catFR1	4	R1489E
861.051	0.849	863990	WORD_OFF	n/a	n/a	FISH	OceanAnimals	9	7	[0, 0, 0]	n/a	catFR1	4	R1489E
861.9	1.618	864831	WORD	n/a	wordpools/wordpool_categorized_EN.txt	OCTOPUS	OceanAnimals	10	7	[0, 0, 0]	n/a	catFR1	4	R1489E
863.518	0.883	866450	WORD_OFF	n/a	n/a	OCTOPUS	OceanAnimals	10	7	[0, 0, 0]	n/a	catFR1	4	R1489E
864.401	1.6	867331	WORD	n/a	wordpools/wordpool_categorized_EN.txt	MONKEY	Zoo	11	7	[0, 0, 0]	n/a	catFR1	4	R1489E
866.001	0.867	868940	WORD_OFF	n/a	n/a	MONKEY	Zoo	11	7	[0, 0, 0]	n/a	catFR1	4	R1489E
866.868	1.616	869801	WORD	n/a	wordpools/wordpool_categorized_EN.txt	CHEETAH	Zoo	12	7	[0, 0, 0]	n/a	catFR1	4	R1489E
868.484	0.002	871420	WORD_OFF	n/a	n/a	CHEETAH	Zoo	12	7	[0, 0, 0]	n/a	catFR1	4	R1489E
868.486	0.0	871420	ENCODING_END	n/a	n/a	n/a	n/a	-999	7	[0, 0, 0]	n/a	catFR1	4	R1489E
868.486	0.0	871420	DISTRACT_START	n/a	n/a	n/a	n/a	-999	7	[0, 0, 0]	n/a	catFR1	4	R1489E
868.485	0.001	871420	PROB	0.001	n/a	n/a	n/a	-999	7	[6, 3, 5]	14	catFR1	4	R1489E
868.486	3.466	871421	START	n/a	n/a	n/a	n/a	-999	7	[-999, -999, -999]	n/a	catFR1	4	R1489E
871.952	3.103	874887	PROB	3.103	n/a	n/a	n/a	-999	7	[7, 1, 4]	12	catFR1	4	R1489E
875.055	2.713	877989	PROB	2.713	n/a	n/a	n/a	-999	7	[7, 5, 7]	19	catFR1	4	R1489E
877.768	4.452	880702	PROB	4.452	n/a	n/a	n/a	-999	7	[8, 3, 5]	16	catFR1	4	R1489E
882.22	3.333	885154	PROB	3.333	n/a	n/a	n/a	-999	7	[1, 8, 4]	13	catFR1	4	R1489E
885.553	4.719	888486	PROB	4.719	n/a	n/a	n/a	-999	7	[6, 2, 7]	15	catFR1	4	R1489E
890.272	0.0	893204	DISTRACT_END	n/a	n/a	n/a	n/a	-999	7	[0, 0, 0]	n/a	catFR1	4	R1489E
890.272	2.148	893205	STOP	n/a	n/a	n/a	n/a	-999	7	[-999, -999, -999]	n/a	catFR1	4	R1489E
892.42	0.622	895348	REC_START	n/a	n/a	n/a	n/a	-999	7	[0, 0, 0]	n/a	catFR1	4	R1489E
893.042	1.098	895975	REC_WORD	1.098	n/a	ELEPHANT	Zoo	5	7	[0, 0, 0]	n/a	catFR1	4	R1489E
894.14	0.842	897073	REC_WORD	0.842	n/a	CHEETAH	Zoo	12	7	[0, 0, 0]	n/a	catFR1	4	R1489E
894.982	0.997	897915	REC_WORD	0.997	n/a	GORILLA	Zoo	6	7	[0, 0, 0]	n/a	catFR1	4	R1489E
895.979	2.614	898912	REC_WORD	2.614	n/a	ORANGUTAN	Zoo	-999	7	[0, 0, 0]	n/a	catFR1	4	R1489E
898.593	1.143	901525	REC_WORD	1.143	n/a	SQUID	OceanAnimals	2	7	[0, 0, 0]	n/a	catFR1	4	R1489E
899.736	1.09	902668	REC_WORD	1.09	n/a	OCTOPUS	OceanAnimals	10	7	[0, 0, 0]	n/a	catFR1	4	R1489E
900.826	5.279	903758	REC_WORD	5.279	n/a	JELLYFISH	OceanAnimals	1	7	[0, 0, 0]	n/a	catFR1	4	R1489E
906.105	1.654	909037	REC_WORD	1.654	n/a	FISH	OceanAnimals	9	7	[0, 0, 0]	n/a	catFR1	4	R1489E
907.759	1.02	910690	REC_WORD	1.02	n/a	WATER	Beverages	4	7	[0, 0, 0]	n/a	catFR1	4	R1489E
908.779	1.053	911710	REC_WORD	1.053	n/a	WINE	Beverages	8	7	[0, 0, 0]	n/a	catFR1	4	R1489E
909.832	12.813	912763	REC_WORD	12.813	n/a	RUM	Beverages	7	7	[0, 0, 0]	n/a	catFR1	4	R1489E
922.645	1.875	925575	REC_END	n/a	n/a	n/a	n/a	-999	7	[0, 0, 0]	n/a	catFR1	4	R1489E
924.52	10.353	927448	COUNTDOWN_START	n/a	n/a	n/a	n/a	-999	8	[0, 0, 0]	n/a	catFR1	4	R1489E
934.873	0.0	937803	COUNTDOWN_END	n/a	n/a	n/a	n/a	-999	8	[0, 0, 0]	n/a	catFR1	4	R1489E
934.873	2.033	937803	ENCODING_START	n/a	n/a	n/a	n/a	-999	8	[0, 0, 0]	n/a	catFR1	4	R1489E
936.906	1.6	939838	WORD	n/a	wordpools/wordpool_categorized_EN.txt	MARKER	OfficeSupplies	1	8	[0, 0, 0]	n/a	catFR1	4	R1489E
938.506	0.816	941437	WORD_OFF	n/a	n/a	MARKER	OfficeSupplies	1	8	[0, 0, 0]	n/a	catFR1	4	R1489E
939.322	1.601	942247	WORD	n/a	wordpools/wordpool_categorized_EN.txt	PAPER	OfficeSupplies	2	8	[0, 0, 0]	n/a	catFR1	4	R1489E
940.923	0.832	943846	WORD_OFF	n/a	n/a	PAPER	OfficeSupplies	2	8	[0, 0, 0]	n/a	catFR1	4	R1489E
941.755	1.6	944687	WORD	n/a	wordpools/wordpool_categorized_EN.txt	CIDER	Beverages	3	8	[0, 0, 0]	n/a	catFR1	4	R1489E
943.355	0.869	946286	WORD_OFF	n/a	n/a	CIDER	Beverages	3	8	[0, 0, 0]	n/a	catFR1	4	R1489E
944.224	1.615	947156	WORD	n/a	wordpools/wordpool_categorized_EN.txt	MILK	Beverages	4	8	[0, 0, 0]	n/a	catFR1	4	R1489E
945.839	0.833	948766	WORD_OFF	n/a	n/a	MILK	Beverages	4	8	[0, 0, 0]	n/a	catFR1	4	R1489E
946.672	1.601	949596	WORD	n/a	wordpools/wordpool_categorized_EN.txt	ROOF	Building	5	8	[0, 0, 0]	n/a	catFR1	4	R1489E
948.273	0.817	951195	WORD_OFF	n/a	n/a	ROOF	Building	5	8	[0, 0, 0]	n/a	catFR1	4	R1489E
949.09	1.6	952015	WORD	n/a	wordpools/wordpool_categorized_EN.txt	CEILING	Building	6	8	[0, 0, 0]	n/a	catFR1	4	R1489E
950.69	0.867	953615	WORD_OFF	n/a	n/a	CEILING	Building	6	8	[0, 0, 0]	n/a	catFR1	4	R1489E
951.557	1.617	954485	WORD	n/a	wordpools/wordpool_categorized_EN.txt	ERASER	OfficeSupplies	7	8	[0, 0, 0]	n/a	catFR1	4	R1489E
953.174	1.0	956095	WORD_OFF	n/a	n/a	ERASER	OfficeSupplies	7	8	[0, 0, 0]	n/a	catFR1	4	R1489E
954.174	1.6	957097	WORD	n/a	wordpools/wordpool_categorized_EN.txt	NOTEBOOK	OfficeSupplies	8	8	[0, 0, 0]	n/a	catFR1	4	R1489E
955.774	0.95	958696	WORD_OFF	n/a	n/a	NOTEBOOK	OfficeSupplies	8	8	[0, 0, 0]	n/a	catFR1	4	R1489E
956.724	1.615	959648	WORD	n/a	wordpools/wordpool_categorized_EN.txt	BATHROOM	Building	9	8	[0, 0, 0]	n/a	catFR1	4	R1489E
958.339	0.934	961267	WORD_OFF	n/a	n/a	BATHROOM	Building	9	8	[0, 0, 0]	n/a	catFR1	4	R1489E
959.273	1.6	962198	WORD	n/a	wordpools/wordpool_categorized_EN.txt	HALLWAY	Building	10	8	[0, 0, 0]	n/a	catFR1	4	R1489E
960.873	0.85	963798	WORD_OFF	n/a	n/a	HALLWAY	Building	10	8	[0, 0, 0]	n/a	catFR1	4	R1489E
961.723	1.6	964648	WORD	n/a	wordpools/wordpool_categorized_EN.txt	LEMONADE	Beverages	11	8	[0, 0, 0]	n/a	catFR1	4	R1489E
963.323	0.834	966247	WORD_OFF	n/a	n/a	LEMONADE	Beverages	11	8	[0, 0, 0]	n/a	catFR1	4	R1489E
964.157	1.617	967077	WORD	n/a	wordpools/wordpool_categorized_EN.txt	COLA	Beverages	12	8	[0, 0, 0]	n/a	catFR1	4	R1489E
965.774	0.001	968697	WORD_OFF	n/a	n/a	COLA	Beverages	12	8	[0, 0, 0]	n/a	catFR1	4	R1489E
965.775	0.0	968697	ENCODING_END	n/a	n/a	n/a	n/a	-999	8	[0, 0, 0]	n/a	catFR1	4	R1489E
965.775	0.0	968697	DISTRACT_START	n/a	n/a	n/a	n/a	-999	8	[0, 0, 0]	n/a	catFR1	4	R1489E
965.774	0.001	968700	PROB	0.001	n/a	n/a	n/a	-999	8	[7, 5, 5]	17	catFR1	4	R1489E
965.775	3.582	968701	START	n/a	n/a	n/a	n/a	-999	8	[-999, -999, -999]	n/a	catFR1	4	R1489E
969.357	4.004	972282	PROB	4.004	n/a	n/a	n/a	-999	8	[2, 3, 6]	11	catFR1	4	R1489E
973.361	2.298	976286	PROB	2.298	n/a	n/a	n/a	-999	8	[6, 2, 2]	10	catFR1	4	R1489E
975.659	2.383	978584	PROB	2.383	n/a	n/a	n/a	-999	8	[2, 4, 7]	13	catFR1	4	R1489E
978.042	3.267	980966	PROB	3.267	n/a	n/a	n/a	-999	8	[8, 5, 3]	16	catFR1	4	R1489E
981.309	3.617	984233	PROB	3.617	n/a	n/a	n/a	-999	8	[6, 6, 5]	17	catFR1	4	R1489E
984.926	3.733	987850	PROB	3.733	n/a	n/a	n/a	-999	8	[4, 8, 8]	20	catFR1	4	R1489E
988.659	0.0	991582	STOP	n/a	n/a	n/a	n/a	-999	8	[-999, -999, -999]	n/a	catFR1	4	R1489E
988.659	2.316	991584	DISTRACT_END	n/a	n/a	n/a	n/a	-999	8	[0, 0, 0]	n/a	catFR1	4	R1489E
990.975	0.681	993900	REC_START	n/a	n/a	n/a	n/a	-999	8	[0, 0, 0]	n/a	catFR1	4	R1489E
991.656	0.876	994579	REC_WORD	0.876	n/a	MARKER	OfficeSupplies	1	8	[0, 0, 0]	n/a	catFR1	4	R1489E
992.532	0.997	995455	REC_WORD	0.997	n/a	ERASER	OfficeSupplies	7	8	[0, 0, 0]	n/a	catFR1	4	R1489E
993.529	0.905	996452	REC_WORD	0.905	n/a	PAPER	OfficeSupplies	2	8	[0, 0, 0]	n/a	catFR1	4	R1489E
994.434	0.952	997357	REC_WORD	0.952	n/a	NOTEBOOK	OfficeSupplies	8	8	[0, 0, 0]	n/a	catFR1	4	R1489E
995.386	1.232	998309	REC_WORD	1.232	n/a	SODA	Beverages	-999	8	[0, 0, 0]	n/a	catFR1	4	R1489E
996.618	6.883	999541	REC_WORD	6.883	n/a	WATER	Beverages	-999	8	[0, 0, 0]	n/a	catFR1	4	R1489E
1003.501	6.964	1006423	REC_WORD	6.964	n/a	CIDER	Beverages	3	8	[0, 0, 0]	n/a	catFR1	4	R1489E
1010.465	0.66	1013386	REC_WORD	0.66	n/a	ROOF	Building	5	8	[0, 0, 0]	n/a	catFR1	4	R1489E
1011.125	2.344	1014046	REC_WORD	2.344	n/a	CEILING	Building	6	8	[0, 0, 0]	n/a	catFR1	4	R1489E
1013.469	0.771	1016390	REC_WORD	0.771	n/a	BEDROOM	n/a	-999	8	[0, 0, 0]	n/a	catFR1	4	R1489E
1014.24	1.942	1017161	REC_WORD	1.942	n/a	WALL	n/a	-999	8	[0, 0, 0]	n/a	catFR1	4	R1489E
1016.182	5.034	1019103	REC_WORD	5.034	n/a	HALLWAY	Building	10	8	[0, 0, 0]	n/a	catFR1	4	R1489E
1021.216	2.845	1024138	REC_END	n/a	n/a	n/a	n/a	-999	8	[0, 0, 0]	n/a	catFR1	4	R1489E
1024.061	10.35	1026982	COUNTDOWN_START	n/a	n/a	n/a	n/a	-999	9	[0, 0, 0]	n/a	catFR1	4	R1489E
1034.411	0.0	1037327	COUNTDOWN_END	n/a	n/a	n/a	n/a	-999	9	[0, 0, 0]	n/a	catFR1	4	R1489E
1034.411	2.334	1037327	ENCODING_START	n/a	n/a	n/a	n/a	-999	9	[0, 0, 0]	n/a	catFR1	4	R1489E
1036.745	1.616	1039665	WORD	n/a	wordpools/wordpool_categorized_EN.txt	SILK	Fabric	1	9	[0, 0, 0]	n/a	catFR1	4	R1489E
1038.361	0.868	1041275	WORD_OFF	n/a	n/a	SILK	Fabric	1	9	[0, 0, 0]	n/a	catFR1	4	R1489E
1039.229	1.6	1042145	WORD	n/a	wordpools/wordpool_categorized_EN.txt	LEATHER	Fabric	2	9	[0, 0, 0]	n/a	catFR1	4	R1489E
1040.829	0.917	1043745	WORD_OFF	n/a	n/a	LEATHER	Fabric	2	9	[0, 0, 0]	n/a	catFR1	4	R1489E
1041.746	1.6	1044666	WORD	n/a	wordpools/wordpool_categorized_EN.txt	BLENDER	Appliances	3	9	[0, 0, 0]	n/a	catFR1	4	R1489E
1043.346	0.933	1046265	WORD_OFF	n/a	n/a	BLENDER	Appliances	3	9	[0, 0, 0]	n/a	catFR1	4	R1489E
1044.279	1.6	1047197	WORD	n/a	wordpools/wordpool_categorized_EN.txt	STOVE	Appliances	4	9	[0, 0, 0]	n/a	catFR1	4	R1489E
1045.879	0.9	1048796	WORD_OFF	n/a	n/a	STOVE	Appliances	4	9	[0, 0, 0]	n/a	catFR1	4	R1489E
1046.779	1.6	1049697	WORD	n/a	wordpools/wordpool_categorized_EN.txt	BARBIE	Toys	5	9	[0, 0, 0]	n/a	catFR1	4	R1489E
1048.379	1.0	1051296	WORD_OFF	n/a	n/a	BARBIE	Toys	5	9	[0, 0, 0]	n/a	catFR1	4	R1489E
1049.379	1.6	1052298	WORD	n/a	wordpools/wordpool_categorized_EN.txt	BALL	Toys	6	9	[0, 0, 0]	n/a	catFR1	4	R1489E
1050.979	0.883	1053898	WORD_OFF	n/a	n/a	BALL	Toys	6	9	[0, 0, 0]	n/a	catFR1	4	R1489E
1051.862	1.601	1054778	WORD	n/a	wordpools/wordpool_categorized_EN.txt	SATIN	Fabric	7	9	[0, 0, 0]	n/a	catFR1	4	R1489E
1053.463	0.999	1056378	WORD_OFF	n/a	n/a	SATIN	Fabric	7	9	[0, 0, 0]	n/a	catFR1	4	R1489E
1054.462	1.601	1057380	WORD	n/a	wordpools/wordpool_categorized_EN.txt	COTTON	Fabric	8	9	[0, 0, 0]	n/a	catFR1	4	R1489E
1056.063	0.916	1058979	WORD_OFF	n/a	n/a	COTTON	Fabric	8	9	[0, 0, 0]	n/a	catFR1	4	R1489E
1056.979	1.617	1059900	WORD	n/a	wordpools/wordpool_categorized_EN.txt	SLINKY	Toys	9	9	[0, 0, 0]	n/a	catFR1	4	R1489E
1058.596	0.783	1061510	WORD_OFF	n/a	n/a	SLINKY	Toys	9	9	[0, 0, 0]	n/a	catFR1	4	R1489E
1059.379	1.601	1062299	WORD	n/a	wordpools/wordpool_categorized_EN.txt	FOOTBALL	Toys	10	9	[0, 0, 0]	n/a	catFR1	4	R1489E
1060.98	1.0	1063899	WORD_OFF	n/a	n/a	FOOTBALL	Toys	10	9	[0, 0, 0]	n/a	catFR1	4	R1489E
1061.98	1.6	1064901	WORD	n/a	wordpools/wordpool_categorized_EN.txt	FREEZER	Appliances	11	9	[0, 0, 0]	n/a	catFR1	4	R1489E
1063.58	0.917	1066500	WORD_OFF	n/a	n/a	FREEZER	Appliances	11	9	[0, 0, 0]	n/a	catFR1	4	R1489E
1064.497	1.617	1067411	WORD	n/a	wordpools/wordpool_categorized_EN.txt	MIXER	Appliances	12	9	[0, 0, 0]	n/a	catFR1	4	R1489E
1066.114	0.0	1069030	PROB	0.0	n/a	n/a	n/a	-999	9	[7, 6, 7]	20	catFR1	4	R1489E
1066.114	0.001	1069031	WORD_OFF	n/a	n/a	MIXER	Appliances	12	9	[0, 0, 0]	n/a	catFR1	4	R1489E
1066.115	0.0	1069031	ENCODING_END	n/a	n/a	n/a	n/a	-999	9	[0, 0, 0]	n/a	catFR1	4	R1489E
1066.115	0.0	1069031	DISTRACT_START	n/a	n/a	n/a	n/a	-999	9	[0, 0, 0]	n/a	catFR1	4	R1489E
1066.115	6.599	1069031	START	n/a	n/a	n/a	n/a	-999	9	[-999, -999, -999]	n/a	catFR1	4	R1489E
1072.714	3.151	1075629	PROB	3.151	n/a	n/a	n/a	-999	9	[7, 3, 5]	15	catFR1	4	R1489E
1075.865	3.317	1078780	PROB	3.317	n/a	n/a	n/a	-999	9	[6, 2, 1]	9	catFR1	4	R1489E
1079.182	3.249	1082097	PROB	3.249	n/a	n/a	n/a	-999	9	[5, 8, 3]	16	catFR1	4	R1489E
1082.431	4.801	1085345	PROB	4.801	n/a	n/a	n/a	-999	9	[2, 4, 8]	14	catFR1	4	R1489E
1087.232	0.0	1090146	DISTRACT_END	n/a	n/a	n/a	n/a	-999	9	[0, 0, 0]	n/a	catFR1	4	R1489E
1087.232	2.383	1090146	STOP	n/a	n/a	n/a	n/a	-999	9	[-999, -999, -999]	n/a	catFR1	4	R1489E
1089.615	0.903	1092533	REC_START	n/a	n/a	n/a	n/a	-999	9	[0, 0, 0]	n/a	catFR1	4	R1489E
1090.518	1.435	1093432	REC_WORD	1.435	n/a	FOOTBALL	Toys	10	9	[0, 0, 0]	n/a	catFR1	4	R1489E
1091.953	2.138	1094866	REC_WORD	2.138	n/a	BARBIE	Toys	5	9	[0, 0, 0]	n/a	catFR1	4	R1489E
1094.091	1.168	1097004	REC_WORD	1.168	n/a	BLOCKS	n/a	-999	9	[0, 0, 0]	n/a	catFR1	4	R1489E
1095.259	2.275	1098172	REC_WORD	2.275	n/a	SLINKY	Toys	9	9	[0, 0, 0]	n/a	catFR1	4	R1489E
1097.534	0.904	1100447	REC_WORD	0.904	n/a	SILK	Fabric	1	9	[0, 0, 0]	n/a	catFR1	4	R1489E
1098.438	1.03	1101351	REC_WORD	1.03	n/a	SATIN	Fabric	7	9	[0, 0, 0]	n/a	catFR1	4	R1489E
1099.468	1.056	1102381	REC_WORD	1.056	n/a	COTTON	Fabric	8	9	[0, 0, 0]	n/a	catFR1	4	R1489E
1100.524	1.296	1103437	REC_WORD	1.296	n/a	LEATHER	Fabric	2	9	[0, 0, 0]	n/a	catFR1	4	R1489E
1101.82	1.553	1104732	REC_WORD	1.553	n/a	DENIM	n/a	-999	9	[0, 0, 0]	n/a	catFR1	4	R1489E
1103.373	0.887	1106285	REC_WORD	0.887	n/a	BLENDER	Appliances	3	9	[0, 0, 0]	n/a	catFR1	4	R1489E
1104.26	1.025	1107172	REC_WORD	1.025	n/a	MIXER	Appliances	12	9	[0, 0, 0]	n/a	catFR1	4	R1489E
1105.285	1.567	1108197	REC_WORD	1.567	n/a	STOVE	Appliances	4	9	[0, 0, 0]	n/a	catFR1	4	R1489E
1106.852	12.991	1109764	REC_WORD	12.991	n/a	FREEZER	Appliances	11	9	[0, 0, 0]	n/a	catFR1	4	R1489E
1119.843	1.924	1122750	REC_END	n/a	n/a	n/a	n/a	-999	9	[0, 0, 0]	n/a	catFR1	4	R1489E
1121.767	10.35	1124684	COUNTDOWN_START	n/a	n/a	n/a	n/a	-999	10	[0, 0, 0]	n/a	catFR1	4	R1489E
1132.117	0.0	1135029	COUNTDOWN_END	n/a	n/a	n/a	n/a	-999	10	[0, 0, 0]	n/a	catFR1	4	R1489E
1132.117	2.1	1135029	ENCODING_START	n/a	n/a	n/a	n/a	-999	10	[0, 0, 0]	n/a	catFR1	4	R1489E
1134.217	1.601	1137124	WORD	n/a	wordpools/wordpool_categorized_EN.txt	SUEDE	Fabric	1	10	[0, 0, 0]	n/a	catFR1	4	R1489E
1135.818	0.95	1138724	WORD_OFF	n/a	n/a	SUEDE	Fabric	1	10	[0, 0, 0]	n/a	catFR1	4	R1489E
1136.768	1.619	1139675	WORD	n/a	wordpools/wordpool_categorized_EN.txt	SPANDEX	Fabric	2	10	[0, 0, 0]	n/a	catFR1	4	R1489E
1138.387	0.765	1141295	WORD_OFF	n/a	n/a	SPANDEX	Fabric	2	10	[0, 0, 0]	n/a	catFR1	4	R1489E
1139.152	1.6	1142064	WORD	n/a	wordpools/wordpool_categorized_EN.txt	FLY	Insects	3	10	[0, 0, 0]	n/a	catFR1	4	R1489E
1140.752	1.0	1143663	WORD_OFF	n/a	n/a	FLY	Insects	3	10	[0, 0, 0]	n/a	catFR1	4	R1489E
1141.752	1.616	1144655	WORD	n/a	wordpools/wordpool_categorized_EN.txt	LADYBUG	Insects	4	10	[0, 0, 0]	n/a	catFR1	4	R1489E
1143.368	1.0	1146275	WORD_OFF	n/a	n/a	LADYBUG	Insects	4	10	[0, 0, 0]	n/a	catFR1	4	R1489E
1144.368	1.601	1147277	WORD	n/a	wordpools/wordpool_categorized_EN.txt	HEADPHONES	Electronics	5	10	[0, 0, 0]	n/a	catFR1	4	R1489E
1145.969	0.982	1148876	WORD_OFF	n/a	n/a	HEADPHONES	Electronics	5	10	[0, 0, 0]	n/a	catFR1	4	R1489E
1146.951	1.6	1149858	WORD	n/a	wordpools/wordpool_categorized_EN.txt	TABLET	Electronics	6	10	[0, 0, 0]	n/a	catFR1	4	R1489E
1148.551	0.984	1151458	WORD_OFF	n/a	n/a	TABLET	Electronics	6	10	[0, 0, 0]	n/a	catFR1	4	R1489E
1149.535	1.6	1152440	WORD	n/a	wordpools/wordpool_categorized_EN.txt	ROACH	Insects	7	10	[0, 0, 0]	n/a	catFR1	4	R1489E
1151.135	0.85	1154039	WORD_OFF	n/a	n/a	ROACH	Insects	7	10	[0, 0, 0]	n/a	catFR1	4	R1489E
1151.985	1.601	1154889	WORD	n/a	wordpools/wordpool_categorized_EN.txt	MOTH	Insects	8	10	[0, 0, 0]	n/a	catFR1	4	R1489E
1153.586	0.767	1156489	WORD_OFF	n/a	n/a	MOTH	Insects	8	10	[0, 0, 0]	n/a	catFR1	4	R1489E
1154.353	1.616	1157258	WORD	n/a	wordpools/wordpool_categorized_EN.txt	PRINTER	Electronics	9	10	[0, 0, 0]	n/a	catFR1	4	R1489E
1155.969	0.767	1158877	WORD_OFF	n/a	n/a	PRINTER	Electronics	9	10	[0, 0, 0]	n/a	catFR1	4	R1489E
1156.736	1.6	1159647	WORD	n/a	wordpools/wordpool_categorized_EN.txt	SCANNER	Electronics	10	10	[0, 0, 0]	n/a	catFR1	4	R1489E
1158.336	0.85	1161246	WORD_OFF	n/a	n/a	SCANNER	Electronics	10	10	[0, 0, 0]	n/a	catFR1	4	R1489E
1159.186	1.601	1162096	WORD	n/a	wordpools/wordpool_categorized_EN.txt	FLEECE	Fabric	11	10	[0, 0, 0]	n/a	catFR1	4	R1489E
1160.787	0.882	1163696	WORD_OFF	n/a	n/a	FLEECE	Fabric	11	10	[0, 0, 0]	n/a	catFR1	4	R1489E
1161.669	1.601	1164576	WORD	n/a	wordpools/wordpool_categorized_EN.txt	LINEN	Fabric	12	10	[0, 0, 0]	n/a	catFR1	4	R1489E
1163.27	0.001	1166176	WORD_OFF	n/a	n/a	LINEN	Fabric	12	10	[0, 0, 0]	n/a	catFR1	4	R1489E
1163.271	0.001	1166176	ENCODING_END	n/a	n/a	n/a	n/a	-999	10	[0, 0, 0]	n/a	catFR1	4	R1489E
1163.272	0.0	1166176	DISTRACT_START	n/a	n/a	n/a	n/a	-999	10	[0, 0, 0]	n/a	catFR1	4	R1489E
1163.271	0.001	1166177	PROB	0.001	n/a	n/a	n/a	-999	10	[8, 5, 7]	20	catFR1	4	R1489E
1163.272	5.065	1166178	START	n/a	n/a	n/a	n/a	-999	10	[-999, -999, -999]	n/a	catFR1	4	R1489E
1168.337	3.134	1171243	PROB	3.134	n/a	n/a	n/a	-999	10	[8, 8, 4]	20	catFR1	4	R1489E
1171.471	3.201	1174376	PROB	3.201	n/a	n/a	n/a	-999	10	[3, 5, 5]	13	catFR1	4	R1489E
1174.672	4.75	1177577	PROB	4.75	n/a	n/a	n/a	-999	10	[3, 7, 6]	16	catFR1	4	R1489E
1179.422	3.532	1182327	PROB	3.532	n/a	n/a	n/a	-999	10	[7, 3, 1]	11	catFR1	4	R1489E
1182.954	2.701	1185858	PROB	2.701	n/a	n/a	n/a	-999	10	[1, 8, 8]	17	catFR1	4	R1489E
1185.655	0.0	1188556	DISTRACT_END	n/a	n/a	n/a	n/a	-999	10	[0, 0, 0]	n/a	catFR1	4	R1489E
1185.655	2.35	1188559	STOP	n/a	n/a	n/a	n/a	-999	10	[-999, -999, -999]	n/a	catFR1	4	R1489E
1188.005	0.376	1190913	REC_START	n/a	n/a	n/a	n/a	-999	10	[0, 0, 0]	n/a	catFR1	4	R1489E
1188.381	0.87	1191285	REC_WORD	0.87	n/a	SILK	Fabric	-999	10	[0, 0, 0]	n/a	catFR1	4	R1489E
1189.251	0.861	1192155	REC_WORD	0.861	n/a	SATIN	Fabric	-999	10	[0, 0, 0]	n/a	catFR1	4	R1489E
1190.112	0.878	1193016	REC_WORD	0.878	n/a	FLEECE	Fabric	11	10	[0, 0, 0]	n/a	catFR1	4	R1489E
1190.99	0.778	1193894	REC_WORD	0.778	n/a	LINEN	Fabric	12	10	[0, 0, 0]	n/a	catFR1	4	R1489E
1191.768	6.075	1194672	REC_WORD	6.075	n/a	SPANDEX	Fabric	2	10	[0, 0, 0]	n/a	catFR1	4	R1489E
1197.843	0.703	1200746	REC_WORD	0.703	n/a	TABLET	Electronics	6	10	[0, 0, 0]	n/a	catFR1	4	R1489E
1198.546	1.223	1201449	REC_WORD	1.223	n/a	SCANNER	Electronics	10	10	[0, 0, 0]	n/a	catFR1	4	R1489E
1199.769	1.578	1202672	REC_WORD	1.578	n/a	PRINTER	Electronics	9	10	[0, 0, 0]	n/a	catFR1	4	R1489E
1201.347	16.904	1204250	REC_WORD	16.904	n/a	STEREO	n/a	-999	10	[0, 0, 0]	n/a	catFR1	4	R1489E
1218.251	2.755	1221151	REC_END	n/a	n/a	n/a	n/a	-999	10	[0, 0, 0]	n/a	catFR1	4	R1489E
1221.006	10.351	1223904	COUNTDOWN_START	n/a	n/a	n/a	n/a	-999	11	[0, 0, 0]	n/a	catFR1	4	R1489E
1231.357	0.0	1234259	COUNTDOWN_END	n/a	n/a	n/a	n/a	-999	11	[0, 0, 0]	n/a	catFR1	4	R1489E
1231.357	1.867	1234259	ENCODING_START	n/a	n/a	n/a	n/a	-999	11	[0, 0, 0]	n/a	catFR1	4	R1489E
1233.224	1.617	1236122	WORD	n/a	wordpools/wordpool_categorized_EN.txt	CRICKET	Insects	1	11	[0, 0, 0]	n/a	catFR1	4	R1489E
1234.841	0.95	1237741	WORD_OFF	n/a	n/a	CRICKET	Insects	1	11	[0, 0, 0]	n/a	catFR1	4	R1489E
1235.791	1.616	1238693	WORD	n/a	wordpools/wordpool_categorized_EN.txt	MOSQUITO	Insects	2	11	[0, 0, 0]	n/a	catFR1	4	R1489E
1237.407	0.767	1240302	WORD_OFF	n/a	n/a	MOSQUITO	Insects	2	11	[0, 0, 0]	n/a	catFR1	4	R1489E
1238.174	1.6	1241072	WORD	n/a	wordpools/wordpool_categorized_EN.txt	SPOON	KitchenTools	3	11	[0, 0, 0]	n/a	catFR1	4	R1489E
1239.774	0.8	1242671	WORD_OFF	n/a	n/a	SPOON	KitchenTools	3	11	[0, 0, 0]	n/a	catFR1	4	R1489E
1240.574	1.617	1243471	WORD	n/a	wordpools/wordpool_categorized_EN.txt	KNIFE	KitchenTools	4	11	[0, 0, 0]	n/a	catFR1	4	R1489E
1242.191	0.85	1245090	WORD_OFF	n/a	n/a	KNIFE	KitchenTools	4	11	[0, 0, 0]	n/a	catFR1	4	R1489E
1243.041	1.601	1245941	WORD	n/a	wordpools/wordpool_categorized_EN.txt	SHIRT	Clothing	5	11	[0, 0, 0]	n/a	catFR1	4	R1489E
1244.642	0.8	1247540	WORD_OFF	n/a	n/a	SHIRT	Clothing	5	11	[0, 0, 0]	n/a	catFR1	4	R1489E
1245.442	1.6	1248340	WORD	n/a	wordpools/wordpool_categorized_EN.txt	JEANS	Clothing	6	11	[0, 0, 0]	n/a	catFR1	4	R1489E
1247.042	0.883	1249939	WORD_OFF	n/a	n/a	JEANS	Clothing	6	11	[0, 0, 0]	n/a	catFR1	4	R1489E
1247.925	1.6	1250820	WORD	n/a	wordpools/wordpool_categorized_EN.txt	SPATULA	KitchenTools	7	11	[0, 0, 0]	n/a	catFR1	4	R1489E
1249.525	1.0	1252419	WORD_OFF	n/a	n/a	SPATULA	KitchenTools	7	11	[0, 0, 0]	n/a	catFR1	4	R1489E
1250.525	1.601	1253421	WORD	n/a	wordpools/wordpool_categorized_EN.txt	LADLE	KitchenTools	8	11	[0, 0, 0]	n/a	catFR1	4	R1489E
1252.126	0.833	1255020	WORD_OFF	n/a	n/a	LADLE	KitchenTools	8	11	[0, 0, 0]	n/a	catFR1	4	R1489E
1252.959	1.6	1255850	WORD	n/a	wordpools/wordpool_categorized_EN.txt	BUTTERFLY	Insects	9	11	[0, 0, 0]	n/a	catFR1	4	R1489E
1254.559	0.886	1257460	WORD_OFF	n/a	n/a	BUTTERFLY	Insects	9	11	[0, 0, 0]	n/a	catFR1	4	R1489E
1255.445	1.598	1258341	WORD	n/a	wordpools/wordpool_categorized_EN.txt	SPIDER	Insects	10	11	[0, 0, 0]	n/a	catFR1	4	R1489E
1257.043	0.848	1259940	WORD_OFF	n/a	n/a	SPIDER	Insects	10	11	[0, 0, 0]	n/a	catFR1	4	R1489E
1257.891	1.601	1260790	WORD	n/a	wordpools/wordpool_categorized_EN.txt	JACKET	Clothing	11	11	[0, 0, 0]	n/a	catFR1	4	R1489E
1259.492	0.767	1262390	WORD_OFF	n/a	n/a	JACKET	Clothing	11	11	[0, 0, 0]	n/a	catFR1	4	R1489E
1260.259	1.617	1263159	WORD	n/a	wordpools/wordpool_categorized_EN.txt	SOCKS	Clothing	12	11	[0, 0, 0]	n/a	catFR1	4	R1489E
1261.876	0.0	1264768	WORD_OFF	n/a	n/a	SOCKS	Clothing	12	11	[0, 0, 0]	n/a	catFR1	4	R1489E
1261.876	0.002	1264773	PROB	0.002	n/a	n/a	n/a	-999	11	[4, 2, 4]	10	catFR1	4	R1489E
1261.878	0.0	1264775	START	n/a	n/a	n/a	n/a	-999	11	[-999, -999, -999]	n/a	catFR1	4	R1489E
1261.877	0.001	1264778	ENCODING_END	n/a	n/a	n/a	n/a	-999	11	[0, 0, 0]	n/a	catFR1	4	R1489E
1261.878	3.116	1264778	DISTRACT_START	n/a	n/a	n/a	n/a	-999	11	[0, 0, 0]	n/a	catFR1	4	R1489E
1264.994	3.549	1267890	PROB	3.549	n/a	n/a	n/a	-999	11	[8, 1, 6]	15	catFR1	4	R1489E
1268.543	2.734	1271439	PROB	2.734	n/a	n/a	n/a	-999	11	[4, 1, 5]	10	catFR1	4	R1489E
1271.277	2.7	1274173	PROB	2.7	n/a	n/a	n/a	-999	11	[3, 4, 3]	10	catFR1	4	R1489E
1273.977	2.7	1276872	PROB	2.7	n/a	n/a	n/a	-999	11	[3, 8, 4]	15	catFR1	4	R1489E
1276.677	2.518	1279572	PROB	2.518	n/a	n/a	n/a	-999	11	[8, 4, 2]	14	catFR1	4	R1489E
1279.195	2.798	1282090	PROB	2.798	n/a	n/a	n/a	-999	11	[7, 2, 4]	13	catFR1	4	R1489E
1281.993	0.0	1284882	DISTRACT_END	n/a	n/a	n/a	n/a	-999	11	[0, 0, 0]	n/a	catFR1	4	R1489E
1281.993	2.168	1284888	STOP	n/a	n/a	n/a	n/a	-999	11	[-999, -999, -999]	n/a	catFR1	4	R1489E
1284.161	2.886	1287056	REC_START	n/a	n/a	n/a	n/a	-999	11	[0, 0, 0]	n/a	catFR1	4	R1489E
1287.047	1.034	1289941	REC_WORD	1.034	n/a	SPOON	KitchenTools	3	11	[0, 0, 0]	n/a	catFR1	4	R1489E
1288.081	0.683	1290975	REC_WORD	0.683	n/a	LADLE	KitchenTools	8	11	[0, 0, 0]	n/a	catFR1	4	R1489E
1288.764	2.854	1291658	REC_WORD	2.854	n/a	SPATULA	KitchenTools	7	11	[0, 0, 0]	n/a	catFR1	4	R1489E
1291.618	1.016	1294512	REC_WORD	1.016	n/a	JACKET	Clothing	11	11	[0, 0, 0]	n/a	catFR1	4	R1489E
1292.634	1.745	1295528	REC_WORD	1.745	n/a	JEANS	Clothing	6	11	[0, 0, 0]	n/a	catFR1	4	R1489E
1294.379	5.317	1297273	REC_WORD	5.317	n/a	SHIRT	Clothing	5	11	[0, 0, 0]	n/a	catFR1	4	R1489E
1299.696	1.057	1302589	REC_WORD	1.057	n/a	BUTTERFLY	Insects	9	11	[0, 0, 0]	n/a	catFR1	4	R1489E
1300.753	5.931	1303646	REC_WORD	5.931	n/a	FLY	Insects	-999	11	[0, 0, 0]	n/a	catFR1	4	R1489E
1306.684	3.147	1309576	REC_WORD	3.147	n/a	BUMBLEBEE	n/a	-999	11	[0, 0, 0]	n/a	catFR1	4	R1489E
1309.831	1.647	1312723	REC_WORD	1.647	n/a	SOCKS	Clothing	12	11	[0, 0, 0]	n/a	catFR1	4	R1489E
1311.478	2.931	1314370	REC_WORD	2.931	n/a	SHOES	n/a	-999	11	[0, 0, 0]	n/a	catFR1	4	R1489E
1314.409	4.771	1317304	REC_END	n/a	n/a	n/a	n/a	-999	11	[0, 0, 0]	n/a	catFR1	4	R1489E
1319.18	10.35	1322071	COUNTDOWN_START	n/a	n/a	n/a	n/a	-999	12	[0, 0, 0]	n/a	catFR1	4	R1489E
1329.53	0.0	1332417	COUNTDOWN_END	n/a	n/a	n/a	n/a	-999	12	[0, 0, 0]	n/a	catFR1	4	R1489E
1329.53	2.066	1332417	ENCODING_START	n/a	n/a	n/a	n/a	-999	12	[0, 0, 0]	n/a	catFR1	4	R1489E
1331.596	1.6	1334482	WORD	n/a	wordpools/wordpool_categorized_EN.txt	FRISBEE	Toys	1	12	[0, 0, 0]	n/a	catFR1	4	R1489E
1333.196	0.817	1336081	WORD_OFF	n/a	n/a	FRISBEE	Toys	1	12	[0, 0, 0]	n/a	catFR1	4	R1489E
1334.013	1.601	1336901	WORD	n/a	wordpools/wordpool_categorized_EN.txt	DOLL	Toys	2	12	[0, 0, 0]	n/a	catFR1	4	R1489E
1335.614	0.916	1338500	WORD_OFF	n/a	n/a	DOLL	Toys	2	12	[0, 0, 0]	n/a	catFR1	4	R1489E
1336.53	1.6	1339421	WORD	n/a	wordpools/wordpool_categorized_EN.txt	COMPUTER	Electronics	3	12	[0, 0, 0]	n/a	catFR1	4	R1489E
1338.13	0.801	1341021	WORD_OFF	n/a	n/a	COMPUTER	Electronics	3	12	[0, 0, 0]	n/a	catFR1	4	R1489E
1338.931	1.6	1341820	WORD	n/a	wordpools/wordpool_categorized_EN.txt	STEREO	Electronics	4	12	[0, 0, 0]	n/a	catFR1	4	R1489E
1340.531	0.818	1343420	WORD_OFF	n/a	n/a	STEREO	Electronics	4	12	[0, 0, 0]	n/a	catFR1	4	R1489E
1341.349	1.616	1344240	WORD	n/a	wordpools/wordpool_categorized_EN.txt	TONGS	KitchenTools	5	12	[0, 0, 0]	n/a	catFR1	4	R1489E
1342.965	0.915	1345849	WORD_OFF	n/a	n/a	TONGS	KitchenTools	5	12	[0, 0, 0]	n/a	catFR1	4	R1489E
1343.88	1.6	1346770	WORD	n/a	wordpools/wordpool_categorized_EN.txt	STRAINER	KitchenTools	6	12	[0, 0, 0]	n/a	catFR1	4	R1489E
1345.48	0.901	1348370	WORD_OFF	n/a	n/a	STRAINER	KitchenTools	6	12	[0, 0, 0]	n/a	catFR1	4	R1489E
1346.381	1.601	1349270	WORD	n/a	wordpools/wordpool_categorized_EN.txt	TELEVISION	Electronics	7	12	[0, 0, 0]	n/a	catFR1	4	R1489E
1347.982	0.783	1350870	WORD_OFF	n/a	n/a	TELEVISION	Electronics	7	12	[0, 0, 0]	n/a	catFR1	4	R1489E
1348.765	1.6	1351649	WORD	n/a	wordpools/wordpool_categorized_EN.txt	MICROWAVE	Electronics	8	12	[0, 0, 0]	n/a	catFR1	4	R1489E
1350.365	0.883	1353249	WORD_OFF	n/a	n/a	MICROWAVE	Electronics	8	12	[0, 0, 0]	n/a	catFR1	4	R1489E
1351.248	1.601	1354139	WORD	n/a	wordpools/wordpool_categorized_EN.txt	CORKSCREW	KitchenTools	9	12	[0, 0, 0]	n/a	catFR1	4	R1489E
1352.849	0.967	1355739	WORD_OFF	n/a	n/a	CORKSCREW	KitchenTools	9	12	[0, 0, 0]	n/a	catFR1	4	R1489E
1353.816	1.618	1356700	WORD	n/a	wordpools/wordpool_categorized_EN.txt	WHISK	KitchenTools	10	12	[0, 0, 0]	n/a	catFR1	4	R1489E
1355.434	0.898	1358320	WORD_OFF	n/a	n/a	WHISK	KitchenTools	10	12	[0, 0, 0]	n/a	catFR1	4	R1489E
1356.332	1.6	1359221	WORD	n/a	wordpools/wordpool_categorized_EN.txt	PUZZLE	Toys	11	12	[0, 0, 0]	n/a	catFR1	4	R1489E
1357.932	0.884	1360820	WORD_OFF	n/a	n/a	PUZZLE	Toys	11	12	[0, 0, 0]	n/a	catFR1	4	R1489E
1358.816	1.6	1361701	WORD	n/a	wordpools/wordpool_categorized_EN.txt	BASKETBALL	Toys	12	12	[0, 0, 0]	n/a	catFR1	4	R1489E
1360.416	0.001	1363300	WORD_OFF	n/a	n/a	BASKETBALL	Toys	12	12	[0, 0, 0]	n/a	catFR1	4	R1489E
1360.417	0.0	1363300	ENCODING_END	n/a	n/a	n/a	n/a	-999	12	[0, 0, 0]	n/a	catFR1	4	R1489E
1360.416	0.001	1363303	PROB	0.001	n/a	n/a	n/a	-999	12	[6, 1, 6]	13	catFR1	4	R1489E
1360.417	0.0	1363304	START	n/a	n/a	n/a	n/a	-999	12	[-999, -999, -999]	n/a	catFR1	4	R1489E
1360.417	3.567	1363310	DISTRACT_START	n/a	n/a	n/a	n/a	-999	12	[0, 0, 0]	n/a	catFR1	4	R1489E
1363.984	2.333	1366871	PROB	2.333	n/a	n/a	n/a	-999	12	[5, 4, 3]	12	catFR1	4	R1489E
1366.317	3.033	1369203	PROB	3.033	n/a	n/a	n/a	-999	12	[5, 5, 8]	18	catFR1	4	R1489E
1369.35	2.517	1372236	PROB	2.517	n/a	n/a	n/a	-999	12	[8, 5, 8]	21	catFR1	4	R1489E
1371.867	2.55	1374753	PROB	2.55	n/a	n/a	n/a	-999	12	[1, 3, 4]	8	catFR1	4	R1489E
1374.417	2.683	1377303	PROB	2.683	n/a	n/a	n/a	-999	12	[5, 3, 6]	14	catFR1	4	R1489E
1377.1	2.717	1379985	PROB	2.717	n/a	n/a	n/a	-999	12	[3, 7, 6]	16	catFR1	4	R1489E
1379.817	2.55	1382702	PROB	2.55	n/a	n/a	n/a	-999	12	[8, 3, 3]	14	catFR1	4	R1489E
1382.367	0.0	1385246	DISTRACT_END	n/a	n/a	n/a	n/a	-999	12	[0, 0, 0]	n/a	catFR1	4	R1489E
1382.367	2.033	1385252	STOP	n/a	n/a	n/a	n/a	-999	12	[-999, -999, -999]	n/a	catFR1	4	R1489E
1384.4	0.389	1387288	REC_START	n/a	n/a	n/a	n/a	-999	12	[0, 0, 0]	n/a	catFR1	4	R1489E
1384.789	0.805	1387674	REC_WORD	0.805	n/a	PUZZLE	Toys	11	12	[0, 0, 0]	n/a	catFR1	4	R1489E
1385.594	1.602	1388479	REC_WORD	1.602	n/a	DOLL	Toys	2	12	[0, 0, 0]	n/a	catFR1	4	R1489E
1387.196	0.832	1390081	REC_WORD	0.832	n/a	BASKETBALL	Toys	12	12	[0, 0, 0]	n/a	catFR1	4	R1489E
1388.028	2.763	1390912	REC_WORD	2.763	n/a	FRISBEE	Toys	1	12	[0, 0, 0]	n/a	catFR1	4	R1489E
1390.791	1.015	1393675	REC_WORD	1.015	n/a	TONGS	KitchenTools	5	12	[0, 0, 0]	n/a	catFR1	4	R1489E
1391.806	2.11	1394690	REC_WORD	2.11	n/a	WHISK	KitchenTools	10	12	[0, 0, 0]	n/a	catFR1	4	R1489E
1393.916	0.998	1396800	REC_WORD	0.998	n/a	SPATULA	KitchenTools	-999	12	[0, 0, 0]	n/a	catFR1	4	R1489E
1394.914	2.325	1397798	REC_WORD	2.325	n/a	MICROWAVE	Electronics	8	12	[0, 0, 0]	n/a	catFR1	4	R1489E
1397.239	0.979	1400123	REC_WORD	0.979	n/a	COMPUTER	Electronics	3	12	[0, 0, 0]	n/a	catFR1	4	R1489E
1398.218	3.6	1401101	REC_WORD	3.6	n/a	STEREO	Electronics	4	12	[0, 0, 0]	n/a	catFR1	4	R1489E
1401.818	7.085	1404701	REC_WORD	7.085	n/a	SPEAKER	Electronics	-999	12	[0, 0, 0]	n/a	catFR1	4	R1489E
1408.903	5.743	1411785	REC_WORD	5.743	n/a	STRAINER	KitchenTools	6	12	[0, 0, 0]	n/a	catFR1	4	R1489E
1414.646	0.0	1417526	REC_END	n/a	n/a	n/a	n/a	-999	12	[0, 0, 0]	n/a	catFR1	4	R1489E
