onset	duration	sample	trial_type	response_time	stim_file	item_name	category	serialpos	list	test	answer	experiment	session	subject
0.0	0.011	31814	SESS_START	n/a	n/a	n/a	n/a	-999	0	[0, 0, 0]	n/a	catFR1	1	R1672T
0.011	5.728	31825	TRIAL	n/a	n/a	n/a	n/a	-999	1	[0, 0, 0]	n/a	catFR1	1	R1672T
5.739	10.366	37553	COUNTDOWN	n/a	n/a	n/a	n/a	-999	1	[0, 0, 0]	n/a	catFR1	1	R1672T
16.105	1.884	47919	ENCODING_START	n/a	n/a	n/a	n/a	-999	1	[0, 0, 0]	n/a	catFR1	1	R1672T
17.989	2.432	49803	WORD	n/a	wordpools/wordpool_categorized_EN.txt	OYSTER	OceanAnimals	1	1	[0, 0, 0]	n/a	catFR1	1	R1672T
20.421	2.417	52235	WORD	n/a	wordpools/wordpool_categorized_EN.txt	CRAB	OceanAnimals	2	1	[0, 0, 0]	n/a	catFR1	1	R1672T
22.838	2.416	54652	WORD	n/a	wordpools/wordpool_categorized_EN.txt	SPRUCE	Trees	3	1	[0, 0, 0]	n/a	catFR1	1	R1672T
25.254	2.4	57068	WORD	n/a	wordpools/wordpool_categorized_EN.txt	BIRCH	Trees	4	1	[0, 0, 0]	n/a	catFR1	1	R1672T
27.654	2.616	59468	WORD	n/a	wordpools/wordpool_categorized_EN.txt	SPINACH	Vegetables	5	1	[0, 0, 0]	n/a	catFR1	1	R1672T
30.27	2.617	62084	WORD	n/a	wordpools/wordpool_categorized_EN.txt	BROCCOLI	Vegetables	6	1	[0, 0, 0]	n/a	catFR1	1	R1672T
32.887	2.434	64701	WORD	n/a	wordpools/wordpool_categorized_EN.txt	MAPLE	Trees	7	1	[0, 0, 0]	n/a	catFR1	1	R1672T
35.321	2.583	67135	WORD	n/a	wordpools/wordpool_categorized_EN.txt	CEDAR	Trees	8	1	[0, 0, 0]	n/a	catFR1	1	R1672T
37.904	2.515	69718	WORD	n/a	wordpools/wordpool_categorized_EN.txt	SHRIMP	OceanAnimals	9	1	[0, 0, 0]	n/a	catFR1	1	R1672T
40.419	2.533	72233	WORD	n/a	wordpools/wordpool_categorized_EN.txt	JELLYFISH	OceanAnimals	10	1	[0, 0, 0]	n/a	catFR1	1	R1672T
42.952	2.418	74766	WORD	n/a	wordpools/wordpool_categorized_EN.txt	CABBAGE	Vegetables	11	1	[0, 0, 0]	n/a	catFR1	1	R1672T
45.37	1.617	77184	WORD	n/a	wordpools/wordpool_categorized_EN.txt	CAULIFLOWER	Vegetables	12	1	[0, 0, 0]	n/a	catFR1	1	R1672T
46.987	0.001	78801	DISTRACT_START	n/a	n/a	n/a	n/a	-999	0	[0, 0, 0]	n/a	catFR1	1	R1672T
46.988	5.565	78802	PROB	5.55	n/a	n/a	n/a	-999	0	[8, 7, 7]	22.0	catFR1	1	R1672T
52.553	4.717	84367	PROB	4.699	n/a	n/a	n/a	-999	0	[2, 8, 4]	14.0	catFR1	1	R1672T
57.27	5.849	89084	PROB	5.832	n/a	n/a	n/a	-999	0	[6, 5, 5]	16.0	catFR1	1	R1672T
63.119	7.178	94933	PROB	4.999	n/a	n/a	n/a	-999	0	[4, 3, 4]	11.0	catFR1	1	R1672T
70.297	1.069	102111	REC_START	n/a	n/a	n/a	n/a	-999	1	[0, 0, 0]	n/a	catFR1	1	R1672T
71.366	3.238	103180	REC_WORD_VV	1.069	n/a	<>	n/a	-999	1	[0, 0, 0]	n/a	catFR1	1	R1672T
74.604	1.44	106418	REC_WORD_VV	4.307	n/a	<>	n/a	-999	1	[0, 0, 0]	n/a	catFR1	1	R1672T
76.044	1.0	107858	REC_WORD	5.747	n/a	CAULIFLOWER	Vegetables	12	1	[0, 0, 0]	n/a	catFR1	1	R1672T
77.044	0.272	108858	REC_WORD_VV	6.747	n/a	<>	n/a	-999	1	[0, 0, 0]	n/a	catFR1	1	R1672T
77.316	0.887	109130	REC_WORD	7.019	n/a	OYSTER	OceanAnimals	1	1	[0, 0, 0]	n/a	catFR1	1	R1672T
78.203	1.632	110017	REC_WORD	7.906	n/a	SHRIMP	OceanAnimals	9	1	[0, 0, 0]	n/a	catFR1	1	R1672T
79.835	1.0	111649	REC_WORD	9.538	n/a	JELLYFISH	OceanAnimals	10	1	[0, 0, 0]	n/a	catFR1	1	R1672T
80.835	1.696	112649	REC_WORD_VV	10.538	n/a	<>	n/a	-999	1	[0, 0, 0]	n/a	catFR1	1	R1672T
82.531	3.924	114345	REC_WORD_VV	12.234	n/a	<>	n/a	-999	1	[0, 0, 0]	n/a	catFR1	1	R1672T
86.455	0.404	118269	REC_WORD_VV	16.158	n/a	<>	n/a	-999	1	[0, 0, 0]	n/a	catFR1	1	R1672T
86.859	1.202	118673	REC_WORD	16.562	n/a	CAULIFLOWER	Vegetables	12	1	[0, 0, 0]	n/a	catFR1	1	R1672T
88.061	2.06	119875	REC_WORD	17.764	n/a	BROCCOLI	Vegetables	6	1	[0, 0, 0]	n/a	catFR1	1	R1672T
90.121	10.357	121935	REC_WORD_VV	19.824	n/a	<>	n/a	-999	1	[0, 0, 0]	n/a	catFR1	1	R1672T
100.478	10.037	132292	TRIAL	n/a	n/a	n/a	n/a	-999	2	[0, 0, 0]	n/a	catFR1	1	R1672T
110.515	10.351	142329	COUNTDOWN	n/a	n/a	n/a	n/a	-999	2	[0, 0, 0]	n/a	catFR1	1	R1672T
120.866	1.932	152680	ENCODING_START	n/a	n/a	n/a	n/a	-999	2	[0, 0, 0]	n/a	catFR1	1	R1672T
122.798	2.568	154612	WORD	n/a	wordpools/wordpool_categorized_EN.txt	CUPCAKE	Desserts	1	2	[0, 0, 0]	n/a	catFR1	1	R1672T
125.366	2.499	157180	WORD	n/a	wordpools/wordpool_categorized_EN.txt	JELLO	Desserts	2	2	[0, 0, 0]	n/a	catFR1	1	R1672T
127.865	2.584	159679	WORD	n/a	wordpools/wordpool_categorized_EN.txt	CROWBAR	Tools	3	2	[0, 0, 0]	n/a	catFR1	1	R1672T
130.449	2.416	162263	WORD	n/a	wordpools/wordpool_categorized_EN.txt	HAMMER	Tools	4	2	[0, 0, 0]	n/a	catFR1	1	R1672T
132.865	2.484	164679	WORD	n/a	wordpools/wordpool_categorized_EN.txt	GUITAR	Instruments	5	2	[0, 0, 0]	n/a	catFR1	1	R1672T
135.349	2.616	167163	WORD	n/a	wordpools/wordpool_categorized_EN.txt	BANJO	Instruments	6	2	[0, 0, 0]	n/a	catFR1	1	R1672T
137.965	2.449	169779	WORD	n/a	wordpools/wordpool_categorized_EN.txt	SCREWDRIVER	Tools	7	2	[0, 0, 0]	n/a	catFR1	1	R1672T
140.414	2.55	172228	WORD	n/a	wordpools/wordpool_categorized_EN.txt	AXE	Tools	8	2	[0, 0, 0]	n/a	catFR1	1	R1672T
142.964	2.434	174778	WORD	n/a	wordpools/wordpool_categorized_EN.txt	DRUM	Instruments	9	2	[0, 0, 0]	n/a	catFR1	1	R1672T
145.398	2.365	177212	WORD	n/a	wordpools/wordpool_categorized_EN.txt	PIANO	Instruments	10	2	[0, 0, 0]	n/a	catFR1	1	R1672T
147.763	2.551	179577	WORD	n/a	wordpools/wordpool_categorized_EN.txt	BROWNIES	Desserts	11	2	[0, 0, 0]	n/a	catFR1	1	R1672T
150.314	1.618	182128	WORD	n/a	wordpools/wordpool_categorized_EN.txt	PASTRY	Desserts	12	2	[0, 0, 0]	n/a	catFR1	1	R1672T
151.932	0.0	183746	DISTRACT_START	n/a	n/a	n/a	n/a	-999	1	[0, 0, 0]	n/a	catFR1	1	R1672T
151.932	6.983	183746	PROB	6.965	n/a	n/a	n/a	-999	1	[8, 6, 5]	19.0	catFR1	1	R1672T
158.915	3.215	190729	PROB	3.199	n/a	n/a	n/a	-999	1	[5, 2, 2]	9.0	catFR1	1	R1672T
162.13	5.5	193944	PROB	5.483	n/a	n/a	n/a	-999	1	[4, 4, 8]	16.0	catFR1	1	R1672T
167.63	3.117	199444	PROB	3.099	n/a	n/a	n/a	-999	1	[3, 5, 1]	9.0	catFR1	1	R1672T
170.747	5.483	202561	PROB	3.366	n/a	n/a	n/a	-999	1	[3, 3, 1]	7.0	catFR1	1	R1672T
176.23	0.954	208044	REC_START	n/a	n/a	n/a	n/a	-999	2	[0, 0, 0]	n/a	catFR1	1	R1672T
177.184	1.0	208998	REC_WORD_VV	0.954	n/a	<>	n/a	-999	2	[0, 0, 0]	n/a	catFR1	1	R1672T
178.184	0.844	209998	REC_WORD_VV	1.954	n/a	<>	n/a	-999	2	[0, 0, 0]	n/a	catFR1	1	R1672T
179.028	3.593	210842	REC_WORD	2.798	n/a	CROWBAR	Tools	3	2	[0, 0, 0]	n/a	catFR1	1	R1672T
182.621	1.0	214435	REC_WORD_VV	6.391	n/a	<>	n/a	-999	2	[0, 0, 0]	n/a	catFR1	1	R1672T
183.621	1.0	215435	REC_WORD_VV	7.391	n/a	<>	n/a	-999	2	[0, 0, 0]	n/a	catFR1	1	R1672T
184.621	1.0	216435	REC_WORD_VV	8.391	n/a	<>	n/a	-999	2	[0, 0, 0]	n/a	catFR1	1	R1672T
185.621	1.0	217435	REC_WORD_VV	9.391	n/a	<>	n/a	-999	2	[0, 0, 0]	n/a	catFR1	1	R1672T
186.621	1.0	218435	REC_WORD_VV	10.391	n/a	<>	n/a	-999	2	[0, 0, 0]	n/a	catFR1	1	R1672T
187.621	10.954	219435	REC_WORD_VV	11.391	n/a	<>	n/a	-999	2	[0, 0, 0]	n/a	catFR1	1	R1672T
198.575	0.843	230389	REC_WORD	22.345	n/a	CROWBAR	Tools	3	2	[0, 0, 0]	n/a	catFR1	1	R1672T
199.418	1.0	231232	REC_WORD_VV	23.188	n/a	<>	n/a	-999	2	[0, 0, 0]	n/a	catFR1	1	R1672T
200.418	1.418	232232	REC_WORD_VV	24.188	n/a	<>	n/a	-999	2	[0, 0, 0]	n/a	catFR1	1	R1672T
201.836	4.541	233650	REC_WORD_VV	25.606	n/a	<>	n/a	-999	2	[0, 0, 0]	n/a	catFR1	1	R1672T
206.377	12.583	238191	TRIAL	n/a	n/a	n/a	n/a	-999	3	[0, 0, 0]	n/a	catFR1	1	R1672T
218.96	10.35	250774	COUNTDOWN	n/a	n/a	n/a	n/a	-999	3	[0, 0, 0]	n/a	catFR1	1	R1672T
229.31	2.001	261124	ENCODING_START	n/a	n/a	n/a	n/a	-999	3	[0, 0, 0]	n/a	catFR1	1	R1672T
231.311	2.599	263125	WORD	n/a	wordpools/wordpool_categorized_EN.txt	HORSE	FarmAnimals	1	3	[0, 0, 0]	n/a	catFR1	1	R1672T
233.91	2.483	265724	WORD	n/a	wordpools/wordpool_categorized_EN.txt	HEN	FarmAnimals	2	3	[0, 0, 0]	n/a	catFR1	1	R1672T
236.393	2.617	268207	WORD	n/a	wordpools/wordpool_categorized_EN.txt	SHOES	Clothing	3	3	[0, 0, 0]	n/a	catFR1	1	R1672T
239.01	2.4	270824	WORD	n/a	wordpools/wordpool_categorized_EN.txt	JEANS	Clothing	4	3	[0, 0, 0]	n/a	catFR1	1	R1672T
241.41	2.432	273224	WORD	n/a	wordpools/wordpool_categorized_EN.txt	CHERRY	Fruit	5	3	[0, 0, 0]	n/a	catFR1	1	R1672T
243.842	2.434	275656	WORD	n/a	wordpools/wordpool_categorized_EN.txt	PEACH	Fruit	6	3	[0, 0, 0]	n/a	catFR1	1	R1672T
246.276	2.483	278090	WORD	n/a	wordpools/wordpool_categorized_EN.txt	UNDERWEAR	Clothing	7	3	[0, 0, 0]	n/a	catFR1	1	R1672T
248.759	2.451	280573	WORD	n/a	wordpools/wordpool_categorized_EN.txt	JACKET	Clothing	8	3	[0, 0, 0]	n/a	catFR1	1	R1672T
251.21	2.55	283024	WORD	n/a	wordpools/wordpool_categorized_EN.txt	ORANGE	Fruit	9	3	[0, 0, 0]	n/a	catFR1	1	R1672T
253.76	2.615	285574	WORD	n/a	wordpools/wordpool_categorized_EN.txt	LIME	Fruit	10	3	[0, 0, 0]	n/a	catFR1	1	R1672T
256.375	2.551	288189	WORD	n/a	wordpools/wordpool_categorized_EN.txt	ROOSTER	FarmAnimals	11	3	[0, 0, 0]	n/a	catFR1	1	R1672T
258.926	1.616	290740	WORD	n/a	wordpools/wordpool_categorized_EN.txt	LAMB	FarmAnimals	12	3	[0, 0, 0]	n/a	catFR1	1	R1672T
260.542	0.001	292356	PROB	6.216	n/a	n/a	n/a	-999	2	[5, 4, 4]	13.0	catFR1	1	R1672T
260.543	6.233	292357	DISTRACT_START	n/a	n/a	n/a	n/a	-999	2	[0, 0, 0]	n/a	catFR1	1	R1672T
266.776	8.049	298590	PROB	8.033	n/a	n/a	n/a	-999	2	[3, 8, 2]	13.0	catFR1	1	R1672T
274.825	4.467	306639	PROB	4.449	n/a	n/a	n/a	-999	2	[2, 5, 1]	8.0	catFR1	1	R1672T
279.292	8.279	311106	PROB	6.032	n/a	n/a	n/a	-999	2	[7, 2, 5]	14.0	catFR1	1	R1672T
287.571	0.818	319385	REC_START	n/a	n/a	n/a	n/a	-999	3	[0, 0, 0]	n/a	catFR1	1	R1672T
288.389	1.053	320203	REC_WORD	0.818	n/a	HORSE	FarmAnimals	1	3	[0, 0, 0]	n/a	catFR1	1	R1672T
289.442	2.203	321256	REC_WORD	1.871	n/a	HEN	FarmAnimals	2	3	[0, 0, 0]	n/a	catFR1	1	R1672T
291.645	2.146	323459	REC_WORD	4.074	n/a	SHOES	Clothing	3	3	[0, 0, 0]	n/a	catFR1	1	R1672T
293.791	2.089	325605	REC_WORD	6.22	n/a	UNDERWEAR	Clothing	7	3	[0, 0, 0]	n/a	catFR1	1	R1672T
295.88	2.25	327694	REC_WORD	8.309	n/a	JACKET	Clothing	8	3	[0, 0, 0]	n/a	catFR1	1	R1672T
298.13	2.977	329944	REC_WORD	10.559	n/a	LIME	Fruit	10	3	[0, 0, 0]	n/a	catFR1	1	R1672T
301.107	3.79	332921	REC_WORD_VV	13.536	n/a	<>	n/a	-999	3	[0, 0, 0]	n/a	catFR1	1	R1672T
304.897	3.837	336711	REC_WORD_VV	17.326	n/a	<>	n/a	-999	3	[0, 0, 0]	n/a	catFR1	1	R1672T
308.734	0.614	340548	REC_WORD	21.163	n/a	ORANGE	Fruit	9	3	[0, 0, 0]	n/a	catFR1	1	R1672T
309.348	6.092	341162	REC_WORD_VV	21.777	n/a	<>	n/a	-999	3	[0, 0, 0]	n/a	catFR1	1	R1672T
315.44	2.274	347254	REC_WORD_VV	27.869	n/a	<>	n/a	-999	3	[0, 0, 0]	n/a	catFR1	1	R1672T
317.714	7.342	349528	TRIAL	n/a	n/a	n/a	n/a	-999	4	[0, 0, 0]	n/a	catFR1	1	R1672T
325.056	10.366	356870	COUNTDOWN	n/a	n/a	n/a	n/a	-999	4	[0, 0, 0]	n/a	catFR1	1	R1672T
335.422	2.083	367236	ENCODING_START	n/a	n/a	n/a	n/a	-999	4	[0, 0, 0]	n/a	catFR1	1	R1672T
337.505	2.4	369319	WORD	n/a	wordpools/wordpool_categorized_EN.txt	WALL	Building	1	4	[0, 0, 0]	n/a	catFR1	1	R1672T
339.905	2.45	371719	WORD	n/a	wordpools/wordpool_categorized_EN.txt	HALLWAY	Building	2	4	[0, 0, 0]	n/a	catFR1	1	R1672T
342.355	2.548	374169	WORD	n/a	wordpools/wordpool_categorized_EN.txt	BARBIE	Toys	3	4	[0, 0, 0]	n/a	catFR1	1	R1672T
344.903	2.435	376717	WORD	n/a	wordpools/wordpool_categorized_EN.txt	BASKETBALL	Toys	4	4	[0, 0, 0]	n/a	catFR1	1	R1672T
347.338	2.4	379152	WORD	n/a	wordpools/wordpool_categorized_EN.txt	FORK	KitchenTools	5	4	[0, 0, 0]	n/a	catFR1	1	R1672T
349.738	2.433	381552	WORD	n/a	wordpools/wordpool_categorized_EN.txt	TONGS	KitchenTools	6	4	[0, 0, 0]	n/a	catFR1	1	R1672T
352.171	2.417	383985	WORD	n/a	wordpools/wordpool_categorized_EN.txt	PUZZLE	Toys	7	4	[0, 0, 0]	n/a	catFR1	1	R1672T
354.588	2.466	386402	WORD	n/a	wordpools/wordpool_categorized_EN.txt	MARBLES	Toys	8	4	[0, 0, 0]	n/a	catFR1	1	R1672T
357.054	2.482	388868	WORD	n/a	wordpools/wordpool_categorized_EN.txt	SPATULA	KitchenTools	9	4	[0, 0, 0]	n/a	catFR1	1	R1672T
359.536	2.435	391350	WORD	n/a	wordpools/wordpool_categorized_EN.txt	COLANDER	KitchenTools	10	4	[0, 0, 0]	n/a	catFR1	1	R1672T
361.971	2.6	393785	WORD	n/a	wordpools/wordpool_categorized_EN.txt	BATHROOM	Building	11	4	[0, 0, 0]	n/a	catFR1	1	R1672T
364.571	1.617	396385	WORD	n/a	wordpools/wordpool_categorized_EN.txt	ATTIC	Building	12	4	[0, 0, 0]	n/a	catFR1	1	R1672T
366.188	0.0	398002	DISTRACT_START	n/a	n/a	n/a	n/a	-999	3	[0, 0, 0]	n/a	catFR1	1	R1672T
366.188	5.299	398002	PROB	5.283	n/a	n/a	n/a	-999	3	[3, 7, 1]	11.0	catFR1	1	R1672T
371.487	4.383	403301	PROB	4.366	n/a	n/a	n/a	-999	3	[5, 3, 5]	13.0	catFR1	1	R1672T
375.87	4.932	407684	PROB	4.917	n/a	n/a	n/a	-999	3	[7, 1, 2]	10.0	catFR1	1	R1672T
380.802	4.917	412616	PROB	4.899	n/a	n/a	n/a	-999	3	[4, 2, 7]	13.0	catFR1	1	R1672T
385.719	7.172	417533	PROB	5.033	n/a	n/a	n/a	-999	3	[8, 1, 7]	16.0	catFR1	1	R1672T
392.891	0.0	424705	REC_WORD_VV	0.0	n/a	<>	n/a	-999	4	[0, 0, 0]	n/a	catFR1	1	R1672T
392.891	1.965	424705	REC_START	n/a	n/a	n/a	n/a	-999	4	[0, 0, 0]	n/a	catFR1	1	R1672T
394.856	1.605	426670	REC_WORD_VV	1.965	n/a	<>	n/a	-999	4	[0, 0, 0]	n/a	catFR1	1	R1672T
396.461	2.557	428275	REC_WORD	3.57	n/a	COLANDER	KitchenTools	10	4	[0, 0, 0]	n/a	catFR1	1	R1672T
399.018	1.852	430832	REC_WORD	6.127	n/a	TONGS	KitchenTools	6	4	[0, 0, 0]	n/a	catFR1	1	R1672T
400.87	2.55	432684	REC_WORD	7.979	n/a	SPATULA	KitchenTools	9	4	[0, 0, 0]	n/a	catFR1	1	R1672T
403.42	3.034	435234	REC_WORD_VV	10.529	n/a	<>	n/a	-999	4	[0, 0, 0]	n/a	catFR1	1	R1672T
406.454	0.892	438268	REC_WORD	13.563	n/a	LADLE	n/a	-999	4	[0, 0, 0]	n/a	catFR1	1	R1672T
407.346	2.009	439160	REC_WORD_VV	14.455	n/a	<>	n/a	-999	4	[0, 0, 0]	n/a	catFR1	1	R1672T
409.355	2.312	441169	REC_WORD_VV	16.464	n/a	<>	n/a	-999	4	[0, 0, 0]	n/a	catFR1	1	R1672T
411.667	11.009	443481	REC_WORD_VV	18.776	n/a	<>	n/a	-999	4	[0, 0, 0]	n/a	catFR1	1	R1672T
422.676	0.353	454490	REC_WORD_VV	29.785	n/a	<>	n/a	-999	4	[0, 0, 0]	n/a	catFR1	1	R1672T
423.029	8.922	454843	TRIAL	n/a	n/a	n/a	n/a	-999	5	[0, 0, 0]	n/a	catFR1	1	R1672T
431.951	10.349	463765	COUNTDOWN	n/a	n/a	n/a	n/a	-999	5	[0, 0, 0]	n/a	catFR1	1	R1672T
442.3	2.067	474114	ENCODING_START	n/a	n/a	n/a	n/a	-999	5	[0, 0, 0]	n/a	catFR1	1	R1672T
444.367	2.399	476181	WORD	n/a	wordpools/wordpool_categorized_EN.txt	CORN	Vegetables	1	5	[0, 0, 0]	n/a	catFR1	1	R1672T
446.766	2.583	478580	WORD	n/a	wordpools/wordpool_categorized_EN.txt	PEAS	Vegetables	2	5	[0, 0, 0]	n/a	catFR1	1	R1672T
449.349	2.533	481163	WORD	n/a	wordpools/wordpool_categorized_EN.txt	LEVEL	Tools	3	5	[0, 0, 0]	n/a	catFR1	1	R1672T
451.882	2.617	483696	WORD	n/a	wordpools/wordpool_categorized_EN.txt	RATCHET	Tools	4	5	[0, 0, 0]	n/a	catFR1	1	R1672T
454.499	2.4	486313	WORD	n/a	wordpools/wordpool_categorized_EN.txt	RIVER	Landscapes	5	5	[0, 0, 0]	n/a	catFR1	1	R1672T
456.899	2.432	488713	WORD	n/a	wordpools/wordpool_categorized_EN.txt	LAKE	Landscapes	6	5	[0, 0, 0]	n/a	catFR1	1	R1672T
459.331	2.518	491145	WORD	n/a	wordpools/wordpool_categorized_EN.txt	CELERY	Vegetables	7	5	[0, 0, 0]	n/a	catFR1	1	R1672T
461.849	2.5	493663	WORD	n/a	wordpools/wordpool_categorized_EN.txt	ONION	Vegetables	8	5	[0, 0, 0]	n/a	catFR1	1	R1672T
464.349	2.4	496163	WORD	n/a	wordpools/wordpool_categorized_EN.txt	SHOVEL	Tools	9	5	[0, 0, 0]	n/a	catFR1	1	R1672T
466.749	2.583	498563	WORD	n/a	wordpools/wordpool_categorized_EN.txt	DRILL	Tools	10	5	[0, 0, 0]	n/a	catFR1	1	R1672T
469.332	2.583	501146	WORD	n/a	wordpools/wordpool_categorized_EN.txt	OCEAN	Landscapes	11	5	[0, 0, 0]	n/a	catFR1	1	R1672T
471.915	1.617	503729	WORD	n/a	wordpools/wordpool_categorized_EN.txt	HILLS	Landscapes	12	5	[0, 0, 0]	n/a	catFR1	1	R1672T
473.532	0.001	505346	PROB	5.683	n/a	n/a	n/a	-999	4	[7, 7, 2]	16.0	catFR1	1	R1672T
473.533	5.699	505347	DISTRACT_START	n/a	n/a	n/a	n/a	-999	4	[0, 0, 0]	n/a	catFR1	1	R1672T
479.232	4.65	511046	PROB	4.633	n/a	n/a	n/a	-999	4	[6, 7, 4]	17.0	catFR1	1	R1672T
483.882	5.483	515696	PROB	5.466	n/a	n/a	n/a	-999	4	[5, 3, 5]	13.0	catFR1	1	R1672T
489.365	6.576	521179	PROB	4.499	n/a	n/a	n/a	-999	4	[7, 5, 1]	13.0	catFR1	1	R1672T
495.941	0.568	527755	REC_START	n/a	n/a	n/a	n/a	-999	5	[0, 0, 0]	n/a	catFR1	1	R1672T
496.509	0.648	528323	REC_WORD	0.568	n/a	CORN	Vegetables	1	5	[0, 0, 0]	n/a	catFR1	1	R1672T
497.157	1.273	528971	REC_WORD	1.216	n/a	PEAS	Vegetables	2	5	[0, 0, 0]	n/a	catFR1	1	R1672T
498.43	1.301	530244	REC_WORD_VV	2.489	n/a	<>	n/a	-999	5	[0, 0, 0]	n/a	catFR1	1	R1672T
499.731	1.08	531545	REC_WORD	3.79	n/a	RIVER	Landscapes	5	5	[0, 0, 0]	n/a	catFR1	1	R1672T
500.811	1.358	532625	REC_WORD	4.87	n/a	LAKE	Landscapes	6	5	[0, 0, 0]	n/a	catFR1	1	R1672T
502.169	2.759	533983	REC_WORD	6.228	n/a	OCEAN	Landscapes	11	5	[0, 0, 0]	n/a	catFR1	1	R1672T
504.928	1.0	536742	REC_WORD_VV	8.987	n/a	<>	n/a	-999	5	[0, 0, 0]	n/a	catFR1	1	R1672T
505.928	1.068	537742	REC_WORD_VV	9.987	n/a	<>	n/a	-999	5	[0, 0, 0]	n/a	catFR1	1	R1672T
506.996	1.906	538810	REC_WORD_VV	11.055	n/a	<>	n/a	-999	5	[0, 0, 0]	n/a	catFR1	1	R1672T
508.902	0.531	540716	REC_WORD_VV	12.961	n/a	<>	n/a	-999	5	[0, 0, 0]	n/a	catFR1	1	R1672T
509.433	0.594	541247	REC_WORD	13.492	n/a	WATERFALL	n/a	-999	5	[0, 0, 0]	n/a	catFR1	1	R1672T
510.027	1.332	541841	REC_WORD_VV	14.086	n/a	<>	n/a	-999	5	[0, 0, 0]	n/a	catFR1	1	R1672T
511.359	2.399	543173	REC_WORD_VV	15.418	n/a	<>	n/a	-999	5	[0, 0, 0]	n/a	catFR1	1	R1672T
513.758	4.312	545572	REC_WORD	17.817	n/a	STREAM	n/a	-999	5	[0, 0, 0]	n/a	catFR1	1	R1672T
518.07	5.025	549884	REC_WORD_VV	22.129	n/a	<>	n/a	-999	5	[0, 0, 0]	n/a	catFR1	1	R1672T
523.095	1.0	554909	REC_WORD_VV	27.154	n/a	<>	n/a	-999	5	[0, 0, 0]	n/a	catFR1	1	R1672T
524.095	1.984	555909	REC_WORD_VV	28.154	n/a	<>	n/a	-999	5	[0, 0, 0]	n/a	catFR1	1	R1672T
526.079	25.415	557893	TRIAL	n/a	n/a	n/a	n/a	-999	6	[0, 0, 0]	n/a	catFR1	1	R1672T
551.494	10.367	583308	COUNTDOWN	n/a	n/a	n/a	n/a	-999	6	[0, 0, 0]	n/a	catFR1	1	R1672T
561.861	1.966	593675	ENCODING_START	n/a	n/a	n/a	n/a	-999	6	[0, 0, 0]	n/a	catFR1	1	R1672T
563.827	2.5	595641	WORD	n/a	wordpools/wordpool_categorized_EN.txt	TELEVISION	Electronics	1	6	[0, 0, 0]	n/a	catFR1	1	R1672T
566.327	2.467	598141	WORD	n/a	wordpools/wordpool_categorized_EN.txt	SCANNER	Electronics	2	6	[0, 0, 0]	n/a	catFR1	1	R1672T
568.794	2.482	600608	WORD	n/a	wordpools/wordpool_categorized_EN.txt	RULER	OfficeSupplies	3	6	[0, 0, 0]	n/a	catFR1	1	R1672T
571.276	2.434	603090	WORD	n/a	wordpools/wordpool_categorized_EN.txt	MARKER	OfficeSupplies	4	6	[0, 0, 0]	n/a	catFR1	1	R1672T
573.71	2.433	605524	WORD	n/a	wordpools/wordpool_categorized_EN.txt	CARNATION	Flowers	5	6	[0, 0, 0]	n/a	catFR1	1	R1672T
576.143	2.584	607957	WORD	n/a	wordpools/wordpool_categorized_EN.txt	ROSE	Flowers	6	6	[0, 0, 0]	n/a	catFR1	1	R1672T
578.727	2.566	610541	WORD	n/a	wordpools/wordpool_categorized_EN.txt	HEADPHONES	Electronics	7	6	[0, 0, 0]	n/a	catFR1	1	R1672T
581.293	2.533	613107	WORD	n/a	wordpools/wordpool_categorized_EN.txt	PRINTER	Electronics	8	6	[0, 0, 0]	n/a	catFR1	1	R1672T
583.826	2.533	615640	WORD	n/a	wordpools/wordpool_categorized_EN.txt	DAFFODIL	Flowers	9	6	[0, 0, 0]	n/a	catFR1	1	R1672T
586.359	2.434	618173	WORD	n/a	wordpools/wordpool_categorized_EN.txt	LILY	Flowers	10	6	[0, 0, 0]	n/a	catFR1	1	R1672T
588.793	2.517	620607	WORD	n/a	wordpools/wordpool_categorized_EN.txt	NOTEBOOK	OfficeSupplies	11	6	[0, 0, 0]	n/a	catFR1	1	R1672T
591.31	1.617	623124	WORD	n/a	wordpools/wordpool_categorized_EN.txt	TAPE	OfficeSupplies	12	6	[0, 0, 0]	n/a	catFR1	1	R1672T
592.927	0.0	624741	DISTRACT_START	n/a	n/a	n/a	n/a	-999	5	[0, 0, 0]	n/a	catFR1	1	R1672T
592.927	6.382	624741	PROB	6.365	n/a	n/a	n/a	-999	5	[8, 2, 6]	16.0	catFR1	1	R1672T
599.309	5.467	631123	PROB	5.449	n/a	n/a	n/a	-999	5	[2, 7, 7]	16.0	catFR1	1	R1672T
604.776	5.016	636590	PROB	5.0	n/a	n/a	n/a	-999	5	[1, 5, 8]	14.0	catFR1	1	R1672T
609.792	9.471	641606	PROB	7.049	n/a	n/a	n/a	-999	5	[8, 8, 8]	24.0	catFR1	1	R1672T
619.263	0.93	651077	REC_START	n/a	n/a	n/a	n/a	-999	6	[0, 0, 0]	n/a	catFR1	1	R1672T
620.193	1.14	652007	REC_WORD	0.93	n/a	CARNATION	Flowers	5	6	[0, 0, 0]	n/a	catFR1	1	R1672T
621.333	1.701	653147	REC_WORD	2.07	n/a	ROSE	Flowers	6	6	[0, 0, 0]	n/a	catFR1	1	R1672T
623.034	0.294	654848	REC_WORD_VV	3.771	n/a	<>	n/a	-999	6	[0, 0, 0]	n/a	catFR1	1	R1672T
623.328	1.97	655142	REC_WORD	4.065	n/a	HEADPHONES	Electronics	7	6	[0, 0, 0]	n/a	catFR1	1	R1672T
625.298	2.828	657112	REC_WORD	6.035	n/a	LILY	Flowers	10	6	[0, 0, 0]	n/a	catFR1	1	R1672T
628.126	1.72	659940	REC_WORD_VV	8.863	n/a	<>	n/a	-999	6	[0, 0, 0]	n/a	catFR1	1	R1672T
629.846	0.764	661660	REC_WORD	10.583	n/a	DAFFODIL	Flowers	9	6	[0, 0, 0]	n/a	catFR1	1	R1672T
630.61	1.952	662424	REC_WORD_VV	11.347	n/a	<>	n/a	-999	6	[0, 0, 0]	n/a	catFR1	1	R1672T
632.562	12.08	664376	REC_WORD_VV	13.299	n/a	<>	n/a	-999	6	[0, 0, 0]	n/a	catFR1	1	R1672T
644.642	1.0	676456	REC_WORD_VV	25.379	n/a	<>	n/a	-999	6	[0, 0, 0]	n/a	catFR1	1	R1672T
645.642	1.0	677456	REC_WORD_VV	26.379	n/a	<>	n/a	-999	6	[0, 0, 0]	n/a	catFR1	1	R1672T
646.642	2.753	678456	REC_WORD_VV	27.379	n/a	<>	n/a	-999	6	[0, 0, 0]	n/a	catFR1	1	R1672T
649.395	2.061	681209	TRIAL	n/a	n/a	n/a	n/a	-999	7	[0, 0, 0]	n/a	catFR1	1	R1672T
651.456	10.366	683270	COUNTDOWN	n/a	n/a	n/a	n/a	-999	7	[0, 0, 0]	n/a	catFR1	1	R1672T
661.822	2.284	693636	ENCODING_START	n/a	n/a	n/a	n/a	-999	7	[0, 0, 0]	n/a	catFR1	1	R1672T
664.106	2.566	695920	WORD	n/a	wordpools/wordpool_categorized_EN.txt	RUM	Beverages	1	7	[0, 0, 0]	n/a	catFR1	1	R1672T
666.672	2.45	698486	WORD	n/a	wordpools/wordpool_categorized_EN.txt	BEER	Beverages	2	7	[0, 0, 0]	n/a	catFR1	1	R1672T
669.122	2.517	700936	WORD	n/a	wordpools/wordpool_categorized_EN.txt	PETUNIA	Flowers	3	7	[0, 0, 0]	n/a	catFR1	1	R1672T
671.639	2.483	703453	WORD	n/a	wordpools/wordpool_categorized_EN.txt	ORCHID	Flowers	4	7	[0, 0, 0]	n/a	catFR1	1	R1672T
674.122	2.383	705936	WORD	n/a	wordpools/wordpool_categorized_EN.txt	CAR	Vehicles	5	7	[0, 0, 0]	n/a	catFR1	1	R1672T
676.505	2.467	708319	WORD	n/a	wordpools/wordpool_categorized_EN.txt	JEEP	Vehicles	6	7	[0, 0, 0]	n/a	catFR1	1	R1672T
678.972	2.616	710786	WORD	n/a	wordpools/wordpool_categorized_EN.txt	COLA	Beverages	7	7	[0, 0, 0]	n/a	catFR1	1	R1672T
681.588	2.483	713402	WORD	n/a	wordpools/wordpool_categorized_EN.txt	SODA	Beverages	8	7	[0, 0, 0]	n/a	catFR1	1	R1672T
684.071	2.584	715885	WORD	n/a	wordpools/wordpool_categorized_EN.txt	LILAC	Flowers	9	7	[0, 0, 0]	n/a	catFR1	1	R1672T
686.655	2.566	718469	WORD	n/a	wordpools/wordpool_categorized_EN.txt	MARIGOLD	Flowers	10	7	[0, 0, 0]	n/a	catFR1	1	R1672T
689.221	2.45	721035	WORD	n/a	wordpools/wordpool_categorized_EN.txt	MOPED	Vehicles	11	7	[0, 0, 0]	n/a	catFR1	1	R1672T
691.671	1.6	723485	WORD	n/a	wordpools/wordpool_categorized_EN.txt	PLANE	Vehicles	12	7	[0, 0, 0]	n/a	catFR1	1	R1672T
693.271	0.002	725085	PROB	5.783	n/a	n/a	n/a	-999	6	[2, 2, 7]	11.0	catFR1	1	R1672T
693.273	5.798	725087	DISTRACT_START	n/a	n/a	n/a	n/a	-999	6	[0, 0, 0]	n/a	catFR1	1	R1672T
699.071	6.15	730885	PROB	6.133	n/a	n/a	n/a	-999	6	[6, 6, 2]	14.0	catFR1	1	R1672T
705.221	4.566	737035	PROB	4.549	n/a	n/a	n/a	-999	6	[2, 5, 5]	12.0	catFR1	1	R1672T
709.787	5.836	741601	PROB	3.733	n/a	n/a	n/a	-999	6	[3, 2, 7]	12.0	catFR1	1	R1672T
715.623	0.266	747437	REC_START	n/a	n/a	n/a	n/a	-999	7	[0, 0, 0]	n/a	catFR1	1	R1672T
715.889	0.716	747703	REC_WORD_VV	0.266	n/a	<>	n/a	-999	7	[0, 0, 0]	n/a	catFR1	1	R1672T
716.605	0.331	748419	REC_WORD	0.982	n/a	RUM	Beverages	1	7	[0, 0, 0]	n/a	catFR1	1	R1672T
716.936	0.212	748750	REC_WORD_VV	1.313	n/a	<>	n/a	-999	7	[0, 0, 0]	n/a	catFR1	1	R1672T
717.148	1.001	748962	REC_WORD	1.525	n/a	BEER	Beverages	2	7	[0, 0, 0]	n/a	catFR1	1	R1672T
718.149	1.28	749963	REC_WORD_VV	2.526	n/a	<>	n/a	-999	7	[0, 0, 0]	n/a	catFR1	1	R1672T
719.429	1.219	751243	REC_WORD_VV	3.806	n/a	<>	n/a	-999	7	[0, 0, 0]	n/a	catFR1	1	R1672T
720.648	0.929	752462	REC_WORD	5.025	n/a	CAR	Vehicles	5	7	[0, 0, 0]	n/a	catFR1	1	R1672T
721.577	0.897	753391	REC_WORD	5.954	n/a	MOPED	Vehicles	11	7	[0, 0, 0]	n/a	catFR1	1	R1672T
722.474	0.382	754288	REC_WORD	6.851	n/a	TRUCK	n/a	-999	7	[0, 0, 0]	n/a	catFR1	1	R1672T
722.856	2.492	754670	REC_WORD	7.233	n/a	AIRPLANE	n/a	-999	7	[0, 0, 0]	n/a	catFR1	1	R1672T
725.348	0.522	757162	REC_WORD_VV	9.725	n/a	<>	n/a	-999	7	[0, 0, 0]	n/a	catFR1	1	R1672T
725.87	1.175	757684	REC_WORD	10.247	n/a	LILAC	Flowers	9	7	[0, 0, 0]	n/a	catFR1	1	R1672T
727.045	2.068	758859	REC_WORD_VV	11.422	n/a	<>	n/a	-999	7	[0, 0, 0]	n/a	catFR1	1	R1672T
729.113	1.381	760927	REC_WORD_VV	13.49	n/a	<>	n/a	-999	7	[0, 0, 0]	n/a	catFR1	1	R1672T
730.494	0.68	762308	REC_WORD	14.871	n/a	TULIP	n/a	-999	7	[0, 0, 0]	n/a	catFR1	1	R1672T
731.174	5.35	762988	REC_WORD_VV	15.551	n/a	<>	n/a	-999	7	[0, 0, 0]	n/a	catFR1	1	R1672T
736.524	1.0	768338	REC_WORD_VV	20.901	n/a	<>	n/a	-999	7	[0, 0, 0]	n/a	catFR1	1	R1672T
737.524	4.373	769338	REC_WORD_VV	21.901	n/a	<>	n/a	-999	7	[0, 0, 0]	n/a	catFR1	1	R1672T
741.897	0.433	773711	REC_WORD_VV	26.274	n/a	<>	n/a	-999	7	[0, 0, 0]	n/a	catFR1	1	R1672T
742.33	0.224	774144	REC_WORD	26.707	n/a	RUM	Beverages	1	7	[0, 0, 0]	n/a	catFR1	1	R1672T
742.554	0.183	774368	REC_WORD_VV	26.931	n/a	<>	n/a	-999	7	[0, 0, 0]	n/a	catFR1	1	R1672T
742.737	0.268	774551	REC_WORD	27.114	n/a	BEER	Beverages	2	7	[0, 0, 0]	n/a	catFR1	1	R1672T
743.005	1.0	774819	REC_WORD_VV	27.382	n/a	<>	n/a	-999	7	[0, 0, 0]	n/a	catFR1	1	R1672T
744.005	1.0	775819	REC_WORD_VV	28.382	n/a	<>	n/a	-999	7	[0, 0, 0]	n/a	catFR1	1	R1672T
745.005	0.751	776819	REC_WORD_VV	29.382	n/a	<>	n/a	-999	7	[0, 0, 0]	n/a	catFR1	1	R1672T
745.756	2.829	777570	TRIAL	n/a	n/a	n/a	n/a	-999	8	[0, 0, 0]	n/a	catFR1	1	R1672T
748.585	10.365	780399	COUNTDOWN	n/a	n/a	n/a	n/a	-999	8	[0, 0, 0]	n/a	catFR1	1	R1672T
758.95	2.284	790764	ENCODING_START	n/a	n/a	n/a	n/a	-999	8	[0, 0, 0]	n/a	catFR1	1	R1672T
761.234	2.483	793048	WORD	n/a	wordpools/wordpool_categorized_EN.txt	FLEECE	Fabric	1	8	[0, 0, 0]	n/a	catFR1	1	R1672T
763.717	2.566	795531	WORD	n/a	wordpools/wordpool_categorized_EN.txt	SPANDEX	Fabric	2	8	[0, 0, 0]	n/a	catFR1	1	R1672T
766.283	2.435	798097	WORD	n/a	wordpools/wordpool_categorized_EN.txt	COFFEE	Beverages	3	8	[0, 0, 0]	n/a	catFR1	1	R1672T
768.718	2.6	800532	WORD	n/a	wordpools/wordpool_categorized_EN.txt	MILK	Beverages	4	8	[0, 0, 0]	n/a	catFR1	1	R1672T
771.318	2.483	803132	WORD	n/a	wordpools/wordpool_categorized_EN.txt	DUCK	Birds	5	8	[0, 0, 0]	n/a	catFR1	1	R1672T
773.801	2.533	805615	WORD	n/a	wordpools/wordpool_categorized_EN.txt	FINCH	Birds	6	8	[0, 0, 0]	n/a	catFR1	1	R1672T
776.334	2.599	808148	WORD	n/a	wordpools/wordpool_categorized_EN.txt	TEA	Beverages	7	8	[0, 0, 0]	n/a	catFR1	1	R1672T
778.933	2.533	810747	WORD	n/a	wordpools/wordpool_categorized_EN.txt	JUICE	Beverages	8	8	[0, 0, 0]	n/a	catFR1	1	R1672T
781.466	2.433	813280	WORD	n/a	wordpools/wordpool_categorized_EN.txt	VELVET	Fabric	9	8	[0, 0, 0]	n/a	catFR1	1	R1672T
783.899	2.55	815713	WORD	n/a	wordpools/wordpool_categorized_EN.txt	DENIM	Fabric	10	8	[0, 0, 0]	n/a	catFR1	1	R1672T
786.449	2.584	818263	WORD	n/a	wordpools/wordpool_categorized_EN.txt	SPARROW	Birds	11	8	[0, 0, 0]	n/a	catFR1	1	R1672T
789.033	1.616	820847	WORD	n/a	wordpools/wordpool_categorized_EN.txt	CROW	Birds	12	8	[0, 0, 0]	n/a	catFR1	1	R1672T
790.649	0.002	822463	PROB	5.45	n/a	n/a	n/a	-999	7	[2, 5, 5]	12.0	catFR1	1	R1672T
790.651	5.465	822465	DISTRACT_START	n/a	n/a	n/a	n/a	-999	7	[0, 0, 0]	n/a	catFR1	1	R1672T
796.116	6.1	827930	PROB	6.083	n/a	n/a	n/a	-999	7	[4, 4, 8]	16.0	catFR1	1	R1672T
802.216	5.282	834030	PROB	5.266	n/a	n/a	n/a	-999	7	[1, 7, 7]	15.0	catFR1	1	R1672T
807.498	7.268	839312	PROB	5.1	n/a	n/a	n/a	-999	7	[7, 5, 8]	20.0	catFR1	1	R1672T
814.766	0.083	846580	REC_START	n/a	n/a	n/a	n/a	-999	8	[0, 0, 0]	n/a	catFR1	1	R1672T
814.849	1.056	846663	REC_WORD	0.083	n/a	FLEECE	Fabric	1	8	[0, 0, 0]	n/a	catFR1	1	R1672T
815.905	1.0	847719	REC_WORD	1.139	n/a	SPANDEX	Fabric	2	8	[0, 0, 0]	n/a	catFR1	1	R1672T
816.905	1.149	848719	REC_WORD_VV	2.139	n/a	<>	n/a	-999	8	[0, 0, 0]	n/a	catFR1	1	R1672T
818.054	1.333	849868	REC_WORD	3.288	n/a	COFFEE	Beverages	3	8	[0, 0, 0]	n/a	catFR1	1	R1672T
819.387	1.327	851201	REC_WORD	4.621	n/a	TEA	Beverages	7	8	[0, 0, 0]	n/a	catFR1	1	R1672T
820.714	1.279	852528	REC_WORD	5.948	n/a	MILK	Beverages	4	8	[0, 0, 0]	n/a	catFR1	1	R1672T
821.993	2.071	853807	REC_WORD	7.227	n/a	JUICE	Beverages	8	8	[0, 0, 0]	n/a	catFR1	1	R1672T
824.064	2.188	855878	REC_WORD	9.298	n/a	DENIM	Fabric	10	8	[0, 0, 0]	n/a	catFR1	1	R1672T
826.252	1.0	858066	REC_WORD_VV	11.486	n/a	<>	n/a	-999	8	[0, 0, 0]	n/a	catFR1	1	R1672T
827.252	2.864	859066	REC_WORD_VV	12.486	n/a	<>	n/a	-999	8	[0, 0, 0]	n/a	catFR1	1	R1672T
830.116	0.468	861930	REC_WORD	15.35	n/a	COFFEE	Beverages	3	8	[0, 0, 0]	n/a	catFR1	1	R1672T
830.584	0.956	862398	REC_WORD	15.818	n/a	FLEECE	Fabric	1	8	[0, 0, 0]	n/a	catFR1	1	R1672T
831.54	1.0	863354	REC_WORD	16.774	n/a	SPANDEX	Fabric	2	8	[0, 0, 0]	n/a	catFR1	1	R1672T
832.54	4.03	864354	REC_WORD_VV	17.774	n/a	<>	n/a	-999	8	[0, 0, 0]	n/a	catFR1	1	R1672T
836.57	6.041	868384	REC_WORD	21.804	n/a	VELVET	Fabric	9	8	[0, 0, 0]	n/a	catFR1	1	R1672T
842.611	2.294	874425	REC_WORD_VV	27.845	n/a	<>	n/a	-999	8	[0, 0, 0]	n/a	catFR1	1	R1672T
844.905	3.542	876719	TRIAL	n/a	n/a	n/a	n/a	-999	9	[0, 0, 0]	n/a	catFR1	1	R1672T
848.447	10.349	880261	COUNTDOWN	n/a	n/a	n/a	n/a	-999	9	[0, 0, 0]	n/a	catFR1	1	R1672T
858.796	1.983	890610	ENCODING_START	n/a	n/a	n/a	n/a	-999	9	[0, 0, 0]	n/a	catFR1	1	R1672T
860.779	2.499	892593	WORD	n/a	wordpools/wordpool_categorized_EN.txt	WOOL	Fabric	1	9	[0, 0, 0]	n/a	catFR1	1	R1672T
863.278	2.401	895092	WORD	n/a	wordpools/wordpool_categorized_EN.txt	NYLON	Fabric	2	9	[0, 0, 0]	n/a	catFR1	1	R1672T
865.679	2.55	897493	WORD	n/a	wordpools/wordpool_categorized_EN.txt	WHALE	OceanAnimals	3	9	[0, 0, 0]	n/a	catFR1	1	R1672T
868.229	2.584	900043	WORD	n/a	wordpools/wordpool_categorized_EN.txt	OCTOPUS	OceanAnimals	4	9	[0, 0, 0]	n/a	catFR1	1	R1672T
870.813	2.566	902627	WORD	n/a	wordpools/wordpool_categorized_EN.txt	BUS	Vehicles	5	9	[0, 0, 0]	n/a	catFR1	1	R1672T
873.379	2.467	905193	WORD	n/a	wordpools/wordpool_categorized_EN.txt	SCOOTER	Vehicles	6	9	[0, 0, 0]	n/a	catFR1	1	R1672T
875.846	2.449	907660	WORD	n/a	wordpools/wordpool_categorized_EN.txt	SILK	Fabric	7	9	[0, 0, 0]	n/a	catFR1	1	R1672T
878.295	2.584	910109	WORD	n/a	wordpools/wordpool_categorized_EN.txt	SATIN	Fabric	8	9	[0, 0, 0]	n/a	catFR1	1	R1672T
880.879	2.449	912693	WORD	n/a	wordpools/wordpool_categorized_EN.txt	BIKE	Vehicles	9	9	[0, 0, 0]	n/a	catFR1	1	R1672T
883.328	2.45	915142	WORD	n/a	wordpools/wordpool_categorized_EN.txt	TRAIN	Vehicles	10	9	[0, 0, 0]	n/a	catFR1	1	R1672T
885.778	2.5	917592	WORD	n/a	wordpools/wordpool_categorized_EN.txt	FISH	OceanAnimals	11	9	[0, 0, 0]	n/a	catFR1	1	R1672T
888.278	1.616	920092	WORD	n/a	wordpools/wordpool_categorized_EN.txt	LOBSTER	OceanAnimals	12	9	[0, 0, 0]	n/a	catFR1	1	R1672T
889.894	0.002	921708	PROB	8.067	n/a	n/a	n/a	-999	8	[7, 5, 7]	19.0	catFR1	1	R1672T
889.896	8.082	921710	DISTRACT_START	n/a	n/a	n/a	n/a	-999	8	[0, 0, 0]	n/a	catFR1	1	R1672T
897.978	10.065	929792	PROB	10.049	n/a	n/a	n/a	-999	8	[3, 5, 6]	15.0	catFR1	1	R1672T
908.043	6.48	939857	PROB	4.283	n/a	n/a	n/a	-999	8	[3, 3, 3]	9.0	catFR1	1	R1672T
914.523	1.0	946337	REC_START	n/a	n/a	n/a	n/a	-999	9	[0, 0, 0]	n/a	catFR1	1	R1672T
915.523	0.759	947337	REC_WORD	1.0	n/a	WHALE	OceanAnimals	3	9	[0, 0, 0]	n/a	catFR1	1	R1672T
916.282	1.0	948096	REC_WORD	1.759	n/a	OCTOPUS	OceanAnimals	4	9	[0, 0, 0]	n/a	catFR1	1	R1672T
917.282	3.008	949096	REC_WORD_VV	2.759	n/a	<>	n/a	-999	9	[0, 0, 0]	n/a	catFR1	1	R1672T
920.29	1.156	952104	REC_WORD_VV	5.767	n/a	<>	n/a	-999	9	[0, 0, 0]	n/a	catFR1	1	R1672T
921.446	7.686	953260	REC_WORD	6.923	n/a	BIKE	Vehicles	9	9	[0, 0, 0]	n/a	catFR1	1	R1672T
929.132	0.683	960946	REC_WORD	14.609	n/a	WHALE	OceanAnimals	3	9	[0, 0, 0]	n/a	catFR1	1	R1672T
929.815	1.0	961629	REC_WORD	15.292	n/a	OCTOPUS	OceanAnimals	4	9	[0, 0, 0]	n/a	catFR1	1	R1672T
930.815	5.658	962629	REC_WORD_VV	16.292	n/a	<>	n/a	-999	9	[0, 0, 0]	n/a	catFR1	1	R1672T
936.473	1.0	968287	REC_WORD_VV	21.95	n/a	<>	n/a	-999	9	[0, 0, 0]	n/a	catFR1	1	R1672T
937.473	1.0	969287	REC_WORD_VV	22.95	n/a	<>	n/a	-999	9	[0, 0, 0]	n/a	catFR1	1	R1672T
938.473	1.0	970287	REC_WORD_VV	23.95	n/a	<>	n/a	-999	9	[0, 0, 0]	n/a	catFR1	1	R1672T
939.473	5.176	971287	REC_WORD_VV	24.95	n/a	<>	n/a	-999	9	[0, 0, 0]	n/a	catFR1	1	R1672T
944.649	9.909	976463	TRIAL	n/a	n/a	n/a	n/a	-999	10	[0, 0, 0]	n/a	catFR1	1	R1672T
954.558	10.349	986372	COUNTDOWN	n/a	n/a	n/a	n/a	-999	10	[0, 0, 0]	n/a	catFR1	1	R1672T
964.907	2.034	996721	ENCODING_START	n/a	n/a	n/a	n/a	-999	10	[0, 0, 0]	n/a	catFR1	1	R1672T
966.941	2.514	998755	WORD	n/a	wordpools/wordpool_categorized_EN.txt	BLUEBERRY	Fruit	1	10	[0, 0, 0]	n/a	catFR1	1	R1672T
969.455	2.568	1001269	WORD	n/a	wordpools/wordpool_categorized_EN.txt	LEMON	Fruit	2	10	[0, 0, 0]	n/a	catFR1	1	R1672T
972.023	2.534	1003837	WORD	n/a	wordpools/wordpool_categorized_EN.txt	VAN	Vehicles	3	10	[0, 0, 0]	n/a	catFR1	1	R1672T
974.557	2.398	1006371	WORD	n/a	wordpools/wordpool_categorized_EN.txt	MOTORCYCLE	Vehicles	4	10	[0, 0, 0]	n/a	catFR1	1	R1672T
976.955	2.469	1008769	WORD	n/a	wordpools/wordpool_categorized_EN.txt	BUTTERFLY	Insects	5	10	[0, 0, 0]	n/a	catFR1	1	R1672T
979.424	2.383	1011238	WORD	n/a	wordpools/wordpool_categorized_EN.txt	MOSQUITO	Insects	6	10	[0, 0, 0]	n/a	catFR1	1	R1672T
981.807	2.599	1013621	WORD	n/a	wordpools/wordpool_categorized_EN.txt	TRUCK	Vehicles	7	10	[0, 0, 0]	n/a	catFR1	1	R1672T
984.406	2.501	1016220	WORD	n/a	wordpools/wordpool_categorized_EN.txt	BOAT	Vehicles	8	10	[0, 0, 0]	n/a	catFR1	1	R1672T
986.907	2.4	1018721	WORD	n/a	wordpools/wordpool_categorized_EN.txt	PLUM	Fruit	9	10	[0, 0, 0]	n/a	catFR1	1	R1672T
989.307	2.516	1021121	WORD	n/a	wordpools/wordpool_categorized_EN.txt	APPLE	Fruit	10	10	[0, 0, 0]	n/a	catFR1	1	R1672T
991.823	2.466	1023637	WORD	n/a	wordpools/wordpool_categorized_EN.txt	ANT	Insects	11	10	[0, 0, 0]	n/a	catFR1	1	R1672T
994.289	1.618	1026103	WORD	n/a	wordpools/wordpool_categorized_EN.txt	GNAT	Insects	12	10	[0, 0, 0]	n/a	catFR1	1	R1672T
995.907	0.001	1027721	PROB	5.282	n/a	n/a	n/a	-999	9	[6, 3, 6]	15.0	catFR1	1	R1672T
995.908	5.298	1027722	DISTRACT_START	n/a	n/a	n/a	n/a	-999	9	[0, 0, 0]	n/a	catFR1	1	R1672T
1001.206	5.134	1033020	PROB	5.116	n/a	n/a	n/a	-999	9	[3, 4, 7]	14.0	catFR1	1	R1672T
1006.34	5.1	1038154	PROB	5.082	n/a	n/a	n/a	-999	9	[7, 5, 7]	19.0	catFR1	1	R1672T
1011.44	3.232	1043254	PROB	3.216	n/a	n/a	n/a	-999	9	[1, 2, 2]	5.0	catFR1	1	R1672T
1014.672	5.858	1046486	PROB	3.599	n/a	n/a	n/a	-999	9	[3, 2, 2]	7.0	catFR1	1	R1672T
1020.53	0.0	1052344	REC_START	n/a	n/a	n/a	n/a	-999	10	[0, 0, 0]	n/a	catFR1	1	R1672T
1020.53	0.6	1052344	REC_WORD_VV	0.0	n/a	<>	n/a	-999	10	[0, 0, 0]	n/a	catFR1	1	R1672T
1021.13	0.599	1052944	REC_WORD	0.6	n/a	ANT	Insects	11	10	[0, 0, 0]	n/a	catFR1	1	R1672T
1021.729	0.203	1053543	REC_WORD_VV	1.199	n/a	<>	n/a	-999	10	[0, 0, 0]	n/a	catFR1	1	R1672T
1021.932	1.398	1053746	REC_WORD	1.402	n/a	GNAT	Insects	12	10	[0, 0, 0]	n/a	catFR1	1	R1672T
1023.33	2.057	1055144	REC_WORD_VV	2.8	n/a	<>	n/a	-999	10	[0, 0, 0]	n/a	catFR1	1	R1672T
1025.387	1.0	1057201	REC_WORD_VV	4.857	n/a	<>	n/a	-999	10	[0, 0, 0]	n/a	catFR1	1	R1672T
1026.387	1.0	1058201	REC_WORD_VV	5.857	n/a	<>	n/a	-999	10	[0, 0, 0]	n/a	catFR1	1	R1672T
1027.387	3.962	1059201	REC_WORD_VV	6.857	n/a	<>	n/a	-999	10	[0, 0, 0]	n/a	catFR1	1	R1672T
1031.349	1.0	1063163	REC_WORD_VV	10.819	n/a	<>	n/a	-999	10	[0, 0, 0]	n/a	catFR1	1	R1672T
1032.349	4.313	1064163	REC_WORD_VV	11.819	n/a	<>	n/a	-999	10	[0, 0, 0]	n/a	catFR1	1	R1672T
1036.662	0.289	1068476	REC_WORD	16.132	n/a	ANT	Insects	11	10	[0, 0, 0]	n/a	catFR1	1	R1672T
1036.951	0.352	1068765	REC_WORD	16.421	n/a	GNAT	Insects	12	10	[0, 0, 0]	n/a	catFR1	1	R1672T
1037.303	1.0	1069117	REC_WORD_VV	16.773	n/a	<>	n/a	-999	10	[0, 0, 0]	n/a	catFR1	1	R1672T
1038.303	1.596	1070117	REC_WORD_VV	17.773	n/a	<>	n/a	-999	10	[0, 0, 0]	n/a	catFR1	1	R1672T
1039.899	10.78	1071713	REC_WORD_VV	19.369	n/a	<>	n/a	-999	10	[0, 0, 0]	n/a	catFR1	1	R1672T
1050.679	3.207	1082493	TRIAL	n/a	n/a	n/a	n/a	-999	11	[0, 0, 0]	n/a	catFR1	1	R1672T
1053.886	10.35	1085700	COUNTDOWN	n/a	n/a	n/a	n/a	-999	11	[0, 0, 0]	n/a	catFR1	1	R1672T
1064.236	1.865	1096050	ENCODING_START	n/a	n/a	n/a	n/a	-999	11	[0, 0, 0]	n/a	catFR1	1	R1672T
1066.101	2.485	1097915	WORD	n/a	wordpools/wordpool_categorized_EN.txt	ROACH	Insects	1	11	[0, 0, 0]	n/a	catFR1	1	R1672T
1068.586	2.399	1100400	WORD	n/a	wordpools/wordpool_categorized_EN.txt	FLY	Insects	2	11	[0, 0, 0]	n/a	catFR1	1	R1672T
1070.985	2.384	1102799	WORD	n/a	wordpools/wordpool_categorized_EN.txt	GRAPE	Fruit	3	11	[0, 0, 0]	n/a	catFR1	1	R1672T
1073.369	2.466	1105183	WORD	n/a	wordpools/wordpool_categorized_EN.txt	STRAWBERRY	Fruit	4	11	[0, 0, 0]	n/a	catFR1	1	R1672T
1075.835	2.55	1107649	WORD	n/a	wordpools/wordpool_categorized_EN.txt	ERASER	OfficeSupplies	5	11	[0, 0, 0]	n/a	catFR1	1	R1672T
1078.385	2.449	1110199	WORD	n/a	wordpools/wordpool_categorized_EN.txt	PAPER	OfficeSupplies	6	11	[0, 0, 0]	n/a	catFR1	1	R1672T
1080.834	2.601	1112648	WORD	n/a	wordpools/wordpool_categorized_EN.txt	MOTH	Insects	7	11	[0, 0, 0]	n/a	catFR1	1	R1672T
1083.435	2.467	1115249	WORD	n/a	wordpools/wordpool_categorized_EN.txt	LADYBUG	Insects	8	11	[0, 0, 0]	n/a	catFR1	1	R1672T
1085.902	2.483	1117716	WORD	n/a	wordpools/wordpool_categorized_EN.txt	FOLDER	OfficeSupplies	9	11	[0, 0, 0]	n/a	catFR1	1	R1672T
1088.385	2.533	1120199	WORD	n/a	wordpools/wordpool_categorized_EN.txt	STAPLER	OfficeSupplies	10	11	[0, 0, 0]	n/a	catFR1	1	R1672T
1090.918	2.415	1122732	WORD	n/a	wordpools/wordpool_categorized_EN.txt	PEAR	Fruit	11	11	[0, 0, 0]	n/a	catFR1	1	R1672T
1093.333	1.602	1125147	WORD	n/a	wordpools/wordpool_categorized_EN.txt	BANANA	Fruit	12	11	[0, 0, 0]	n/a	catFR1	1	R1672T
1094.935	0.001	1126749	PROB	6.349	n/a	n/a	n/a	-999	10	[7, 1, 8]	16.0	catFR1	1	R1672T
1094.936	6.366	1126750	DISTRACT_START	n/a	n/a	n/a	n/a	-999	10	[0, 0, 0]	n/a	catFR1	1	R1672T
1101.302	6.866	1133116	PROB	6.849	n/a	n/a	n/a	-999	10	[5, 8, 1]	14.0	catFR1	1	R1672T
1108.168	4.883	1139982	PROB	4.865	n/a	n/a	n/a	-999	10	[5, 3, 6]	14.0	catFR1	1	R1672T
1113.051	7.35	1144865	PROB	5.133	n/a	n/a	n/a	-999	10	[3, 8, 7]	18.0	catFR1	1	R1672T
1120.401	0.483	1152215	REC_START	n/a	n/a	n/a	n/a	-999	11	[0, 0, 0]	n/a	catFR1	1	R1672T
1120.884	1.025	1152698	REC_WORD	0.483	n/a	ROACH	Insects	1	11	[0, 0, 0]	n/a	catFR1	1	R1672T
1121.909	2.091	1153723	REC_WORD	1.508	n/a	FLY	Insects	2	11	[0, 0, 0]	n/a	catFR1	1	R1672T
1124.0	1.0	1155814	REC_WORD_VV	3.599	n/a	<>	n/a	-999	11	[0, 0, 0]	n/a	catFR1	1	R1672T
1125.0	1.447	1156814	REC_WORD_VV	4.599	n/a	<>	n/a	-999	11	[0, 0, 0]	n/a	catFR1	1	R1672T
1126.447	2.85	1158261	REC_WORD	6.046	n/a	ANT	Insects	-999	11	[0, 0, 0]	n/a	catFR1	1	R1672T
1129.297	5.326	1161111	REC_WORD_VV	8.896	n/a	<>	n/a	-999	11	[0, 0, 0]	n/a	catFR1	1	R1672T
1134.623	4.367	1166437	REC_WORD_VV	14.222	n/a	<>	n/a	-999	11	[0, 0, 0]	n/a	catFR1	1	R1672T
1138.99	0.33	1170804	REC_WORD_VV	18.589	n/a	<>	n/a	-999	11	[0, 0, 0]	n/a	catFR1	1	R1672T
1139.32	2.761	1171134	REC_WORD	18.919	n/a	LADYBUG	Insects	8	11	[0, 0, 0]	n/a	catFR1	1	R1672T
1142.081	1.221	1173895	REC_WORD	21.68	n/a	BEETLE	n/a	-999	11	[0, 0, 0]	n/a	catFR1	1	R1672T
1143.302	0.629	1175116	REC_WORD_VV	22.901	n/a	<>	n/a	-999	11	[0, 0, 0]	n/a	catFR1	1	R1672T
1143.931	3.036	1175745	REC_WORD	23.53	n/a	BEETLE	n/a	-999	11	[0, 0, 0]	n/a	catFR1	1	R1672T
1146.967	3.258	1178781	REC_WORD_VV	26.566	n/a	<>	n/a	-999	11	[0, 0, 0]	n/a	catFR1	1	R1672T
1150.225	0.315	1182039	REC_WORD_VV	29.824	n/a	<>	n/a	-999	11	[0, 0, 0]	n/a	catFR1	1	R1672T
1150.54	5.341	1182354	TRIAL	n/a	n/a	n/a	n/a	-999	12	[0, 0, 0]	n/a	catFR1	1	R1672T
1155.881	10.37	1187695	COUNTDOWN	n/a	n/a	n/a	n/a	-999	12	[0, 0, 0]	n/a	catFR1	1	R1672T
1166.251	2.279	1198065	ENCODING_START	n/a	n/a	n/a	n/a	-999	12	[0, 0, 0]	n/a	catFR1	1	R1672T
1168.53	2.55	1200344	WORD	n/a	wordpools/wordpool_categorized_EN.txt	PENCIL	OfficeSupplies	1	12	[0, 0, 0]	n/a	catFR1	1	R1672T
1171.08	2.367	1202894	WORD	n/a	wordpools/wordpool_categorized_EN.txt	BINDER	OfficeSupplies	2	12	[0, 0, 0]	n/a	catFR1	1	R1672T
1173.447	2.367	1205261	WORD	n/a	wordpools/wordpool_categorized_EN.txt	VIOLET	Flowers	3	12	[0, 0, 0]	n/a	catFR1	1	R1672T
1175.814	2.433	1207628	WORD	n/a	wordpools/wordpool_categorized_EN.txt	SUNFLOWER	Flowers	4	12	[0, 0, 0]	n/a	catFR1	1	R1672T
1178.247	2.431	1210061	WORD	n/a	wordpools/wordpool_categorized_EN.txt	GOOSE	Birds	5	12	[0, 0, 0]	n/a	catFR1	1	R1672T
1180.678	2.469	1212492	WORD	n/a	wordpools/wordpool_categorized_EN.txt	ROBIN	Birds	6	12	[0, 0, 0]	n/a	catFR1	1	R1672T
1183.147	2.6	1214961	WORD	n/a	wordpools/wordpool_categorized_EN.txt	TULIP	Flowers	7	12	[0, 0, 0]	n/a	catFR1	1	R1672T
1185.747	2.55	1217561	WORD	n/a	wordpools/wordpool_categorized_EN.txt	DAISY	Flowers	8	12	[0, 0, 0]	n/a	catFR1	1	R1672T
1188.297	2.615	1220111	WORD	n/a	wordpools/wordpool_categorized_EN.txt	CARDINAL	Birds	9	12	[0, 0, 0]	n/a	catFR1	1	R1672T
1190.912	2.6	1222726	WORD	n/a	wordpools/wordpool_categorized_EN.txt	BLUEBIRD	Birds	10	12	[0, 0, 0]	n/a	catFR1	1	R1672T
1193.512	2.367	1225326	WORD	n/a	wordpools/wordpool_categorized_EN.txt	PEN	OfficeSupplies	11	12	[0, 0, 0]	n/a	catFR1	1	R1672T
1195.879	1.618	1227693	WORD	n/a	wordpools/wordpool_categorized_EN.txt	GLUE	OfficeSupplies	12	12	[0, 0, 0]	n/a	catFR1	1	R1672T
1197.497	0.0	1229311	DISTRACT_START	n/a	n/a	n/a	n/a	-999	11	[0, 0, 0]	n/a	catFR1	1	R1672T
1197.497	6.517	1229311	PROB	6.499	n/a	n/a	n/a	-999	11	[3, 4, 1]	8.0	catFR1	1	R1672T
1204.014	6.382	1235828	PROB	6.365	n/a	n/a	n/a	-999	11	[3, 8, 5]	16.0	catFR1	1	R1672T
1210.396	5.966	1242210	PROB	5.948	n/a	n/a	n/a	-999	11	[3, 8, 3]	14.0	catFR1	1	R1672T
1216.362	7.75	1248176	PROB	5.449	n/a	n/a	n/a	-999	11	[2, 3, 6]	11.0	catFR1	1	R1672T
1224.112	0.786	1255926	REC_START	n/a	n/a	n/a	n/a	-999	12	[0, 0, 0]	n/a	catFR1	1	R1672T
1224.898	0.99	1256712	REC_WORD	0.786	n/a	ROBIN	Birds	6	12	[0, 0, 0]	n/a	catFR1	1	R1672T
1225.888	1.479	1257702	REC_WORD	1.776	n/a	TULIP	Flowers	7	12	[0, 0, 0]	n/a	catFR1	1	R1672T
1227.367	1.944	1259181	REC_WORD	3.255	n/a	DAISY	Flowers	8	12	[0, 0, 0]	n/a	catFR1	1	R1672T
1229.311	3.332	1261125	REC_WORD	5.199	n/a	CARDINAL	Birds	9	12	[0, 0, 0]	n/a	catFR1	1	R1672T
1232.643	2.797	1264457	REC_WORD_VV	8.531	n/a	<>	n/a	-999	12	[0, 0, 0]	n/a	catFR1	1	R1672T
1235.44	6.375	1267254	REC_WORD	11.328	n/a	LILAC	Flowers	-999	12	[0, 0, 0]	n/a	catFR1	1	R1672T
1241.815	1.0	1273629	REC_WORD_VV	17.703	n/a	<>	n/a	-999	12	[0, 0, 0]	n/a	catFR1	1	R1672T
1242.815	1.0	1274629	REC_WORD_VV	18.703	n/a	<>	n/a	-999	12	[0, 0, 0]	n/a	catFR1	1	R1672T
1243.815	1.34	1275629	REC_WORD_VV	19.703	n/a	<>	n/a	-999	12	[0, 0, 0]	n/a	catFR1	1	R1672T
1245.155	7.759	1276969	REC_WORD_VV	21.043	n/a	<>	n/a	-999	12	[0, 0, 0]	n/a	catFR1	1	R1672T
1252.914	1.334	1284728	REC_WORD_VV	28.802	n/a	<>	n/a	-999	12	[0, 0, 0]	n/a	catFR1	1	R1672T
1254.248	0.0	1286062	SESS_END	n/a	n/a	n/a	n/a	-999	12	[0, 0, 0]	n/a	catFR1	1	R1672T
