onset	duration	sample	trial_type	response_time	stim_file	item_name	category	serialpos	list	test	answer	experiment	session	subject
0.0	2.098	15544	INSTRUCT_START	n/a	n/a	n/a	n/a	-999	-999	[0, 0, 0]	n/a	catFR1	2	R1541T
2.098	26.114	17637	INSTRUCT_END	n/a	n/a	n/a	n/a	-999	-999	[0, 0, 0]	n/a	catFR1	2	R1541T
28.212	10.352	43757	COUNTDOWN_START	n/a	n/a	n/a	n/a	-999	-999	[0, 0, 0]	n/a	catFR1	2	R1541T
38.564	0.0	54104	COUNTDOWN_END	n/a	n/a	n/a	n/a	-999	-999	[0, 0, 0]	n/a	catFR1	2	R1541T
38.564	2.216	54104	ENCODING_START	n/a	n/a	n/a	n/a	-999	-1	[0, 0, 0]	n/a	catFR1	2	R1541T
40.78	1.616	56325	WORD	n/a	n/a	PUDDING	Desserts	1	-1	[0, 0, 0]	n/a	catFR1	2	R1541T
42.396	0.817	57936	WORD_OFF	n/a	n/a	PUDDING	Desserts	1	-1	[0, 0, 0]	n/a	catFR1	2	R1541T
43.213	1.617	58755	WORD	n/a	n/a	CUPCAKE	Desserts	2	-1	[0, 0, 0]	n/a	catFR1	2	R1541T
44.83	0.916	60375	WORD_OFF	n/a	n/a	CUPCAKE	Desserts	2	-1	[0, 0, 0]	n/a	catFR1	2	R1541T
45.746	1.617	61285	WORD	n/a	n/a	TELEVISION	Electronics	3	-1	[0, 0, 0]	n/a	catFR1	2	R1541T
47.363	0.933	62905	WORD_OFF	n/a	n/a	TELEVISION	Electronics	3	-1	[0, 0, 0]	n/a	catFR1	2	R1541T
48.296	1.616	63842	WORD	n/a	n/a	SPEAKER	Electronics	4	-1	[0, 0, 0]	n/a	catFR1	2	R1541T
49.912	1.001	65453	WORD_OFF	n/a	n/a	SPEAKER	Electronics	4	-1	[0, 0, 0]	n/a	catFR1	2	R1541T
50.913	1.616	66454	WORD	n/a	n/a	CROW	Birds	5	-1	[0, 0, 0]	n/a	catFR1	2	R1541T
52.529	0.784	68074	WORD_OFF	n/a	n/a	CROW	Birds	5	-1	[0, 0, 0]	n/a	catFR1	2	R1541T
53.313	1.616	68857	WORD	n/a	n/a	FINCH	Birds	6	-1	[0, 0, 0]	n/a	catFR1	2	R1541T
54.929	0.967	70468	WORD_OFF	n/a	n/a	FINCH	Birds	6	-1	[0, 0, 0]	n/a	catFR1	2	R1541T
55.896	1.616	71442	WORD	n/a	n/a	MICROWAVE	Electronics	7	-1	[0, 0, 0]	n/a	catFR1	2	R1541T
57.512	0.801	73053	WORD_OFF	n/a	n/a	MICROWAVE	Electronics	7	-1	[0, 0, 0]	n/a	catFR1	2	R1541T
58.313	1.6	73853	WORD	n/a	n/a	CALCULATOR	Electronics	8	-1	[0, 0, 0]	n/a	catFR1	2	R1541T
59.913	0.933	75455	WORD_OFF	n/a	n/a	CALCULATOR	Electronics	8	-1	[0, 0, 0]	n/a	catFR1	2	R1541T
60.846	1.617	76383	WORD	n/a	n/a	CAKE	Desserts	9	-1	[0, 0, 0]	n/a	catFR1	2	R1541T
62.463	0.766	78003	WORD_OFF	n/a	n/a	CAKE	Desserts	9	-1	[0, 0, 0]	n/a	catFR1	2	R1541T
63.229	1.616	78768	WORD	n/a	n/a	JELLO	Desserts	10	-1	[0, 0, 0]	n/a	catFR1	2	R1541T
64.845	0.901	80388	WORD_OFF	n/a	n/a	JELLO	Desserts	10	-1	[0, 0, 0]	n/a	catFR1	2	R1541T
65.746	1.616	81289	WORD	n/a	n/a	DOVE	Birds	11	-1	[0, 0, 0]	n/a	catFR1	2	R1541T
67.362	0.966	82900	WORD_OFF	n/a	n/a	DOVE	Birds	11	-1	[0, 0, 0]	n/a	catFR1	2	R1541T
68.328	1.6	83864	WORD	n/a	n/a	HAWK	Birds	12	-1	[0, 0, 0]	n/a	catFR1	2	R1541T
69.928	0.002	85466	WORD_OFF	n/a	n/a	HAWK	Birds	12	-1	[0, 0, 0]	n/a	catFR1	2	R1541T
69.93	0.0	85466	START	n/a	n/a	n/a	n/a	-999	-1	[-999, -999, -999]	n/a	catFR1	2	R1541T
69.93	0.0	85466	PROB	0.0	n/a	n/a	n/a	-999	-1	[1, 4, 1]	6	catFR1	2	R1541T
69.93	0.0	85475	ENCODING_END	n/a	n/a	n/a	n/a	-999	-1	[0, 0, 0]	n/a	catFR1	2	R1541T
69.93	2.849	85475	DISTRACT_START	n/a	n/a	n/a	n/a	-999	-1	[0, 0, 0]	n/a	catFR1	2	R1541T
72.779	2.584	88315	PROB	2.584	n/a	n/a	n/a	-999	-1	[4, 2, 5]	11	catFR1	2	R1541T
75.363	2.716	90899	PROB	2.716	n/a	n/a	n/a	-999	-1	[5, 8, 2]	14	catFR1	2	R1541T
78.079	4.317	93615	PROB	4.317	n/a	n/a	n/a	-999	-1	[7, 6, 5]	18	catFR1	2	R1541T
82.396	3.0	97932	PROB	3.0	n/a	n/a	n/a	-999	-1	[1, 8, 7]	16	catFR1	2	R1541T
85.396	3.0	100932	PROB	3.0	n/a	n/a	n/a	-999	-1	[7, 4, 5]	16	catFR1	2	R1541T
88.396	2.415	103932	PROB	2.415	n/a	n/a	n/a	-999	-1	[1, 1, 7]	9	catFR1	2	R1541T
90.811	0.0	106347	STOP	n/a	n/a	n/a	n/a	-999	-1	[-999, -999, -999]	n/a	catFR1	2	R1541T
90.811	1.633	106353	DISTRACT_END	n/a	n/a	n/a	n/a	-999	-1	[0, 0, 0]	n/a	catFR1	2	R1541T
92.444	2.348	107982	REC_START	n/a	n/a	n/a	n/a	-999	-1	[0, 0, 0]	n/a	catFR1	2	R1541T
94.792	0.893	110328	REC_WORD	0.893	n/a	CROW	Birds	5	-1	[0, 0, 0]	n/a	catFR1	2	R1541T
95.685	1.032	111221	REC_WORD	1.032	n/a	FINCH	Birds	6	-1	[0, 0, 0]	n/a	catFR1	2	R1541T
96.717	0.917	112253	REC_WORD	0.917	n/a	DOVE	Birds	11	-1	[0, 0, 0]	n/a	catFR1	2	R1541T
97.634	0.982	113170	REC_WORD	0.982	n/a	CUPCAKE	Desserts	2	-1	[0, 0, 0]	n/a	catFR1	2	R1541T
98.616	0.922	114152	REC_WORD	0.922	n/a	PUDDING	Desserts	1	-1	[0, 0, 0]	n/a	catFR1	2	R1541T
99.538	23.112	115073	REC_WORD	23.112	n/a	CAKE	Desserts	9	-1	[0, 0, 0]	n/a	catFR1	2	R1541T
122.65	9.044	138188	REC_END	n/a	n/a	n/a	n/a	-999	-1	[0, 0, 0]	n/a	catFR1	2	R1541T
131.694	10.348	147234	COUNTDOWN_START	n/a	n/a	n/a	n/a	-999	1	[0, 0, 0]	n/a	catFR1	2	R1541T
142.042	0.0	157582	COUNTDOWN_END	n/a	n/a	n/a	n/a	-999	1	[0, 0, 0]	n/a	catFR1	2	R1541T
142.042	2.102	157582	ENCODING_START	n/a	n/a	n/a	n/a	-999	1	[0, 0, 0]	n/a	catFR1	2	R1541T
144.144	1.6	159684	WORD	n/a	wordpools/wordpool_categorized_EN.txt	PIGEON	Birds	1	1	[0, 0, 0]	n/a	catFR1	2	R1541T
145.744	0.933	161286	WORD_OFF	n/a	n/a	PIGEON	Birds	1	1	[0, 0, 0]	n/a	catFR1	2	R1541T
146.677	1.616	162214	WORD	n/a	wordpools/wordpool_categorized_EN.txt	ROBIN	Birds	2	1	[0, 0, 0]	n/a	catFR1	2	R1541T
148.293	0.867	163834	WORD_OFF	n/a	n/a	ROBIN	Birds	2	1	[0, 0, 0]	n/a	catFR1	2	R1541T
149.16	1.601	164699	WORD	n/a	wordpools/wordpool_categorized_EN.txt	STOVE	Appliances	3	1	[0, 0, 0]	n/a	catFR1	2	R1541T
150.761	0.983	166300	WORD_OFF	n/a	n/a	STOVE	Appliances	3	1	[0, 0, 0]	n/a	catFR1	2	R1541T
151.744	1.6	167283	WORD	n/a	wordpools/wordpool_categorized_EN.txt	DISHWASHER	Appliances	4	1	[0, 0, 0]	n/a	catFR1	2	R1541T
153.344	0.8	168885	WORD_OFF	n/a	n/a	DISHWASHER	Appliances	4	1	[0, 0, 0]	n/a	catFR1	2	R1541T
154.144	1.617	169686	WORD	n/a	wordpools/wordpool_categorized_EN.txt	BIKE	Vehicles	5	1	[0, 0, 0]	n/a	catFR1	2	R1541T
155.761	0.899	171297	WORD_OFF	n/a	n/a	BIKE	Vehicles	5	1	[0, 0, 0]	n/a	catFR1	2	R1541T
156.66	1.617	172198	WORD	n/a	wordpools/wordpool_categorized_EN.txt	MOTORCYCLE	Vehicles	6	1	[0, 0, 0]	n/a	catFR1	2	R1541T
158.277	0.75	173818	WORD_OFF	n/a	n/a	MOTORCYCLE	Vehicles	6	1	[0, 0, 0]	n/a	catFR1	2	R1541T
159.027	1.617	174564	WORD	n/a	wordpools/wordpool_categorized_EN.txt	BLUEBIRD	Birds	7	1	[0, 0, 0]	n/a	catFR1	2	R1541T
160.644	0.83	176184	WORD_OFF	n/a	n/a	BLUEBIRD	Birds	7	1	[0, 0, 0]	n/a	catFR1	2	R1541T
161.474	1.602	177012	WORD	n/a	wordpools/wordpool_categorized_EN.txt	SPARROW	Birds	8	1	[0, 0, 0]	n/a	catFR1	2	R1541T
163.076	0.867	178614	WORD_OFF	n/a	n/a	SPARROW	Birds	8	1	[0, 0, 0]	n/a	catFR1	2	R1541T
163.943	1.6	179479	WORD	n/a	wordpools/wordpool_categorized_EN.txt	DRYER	Appliances	9	1	[0, 0, 0]	n/a	catFR1	2	R1541T
165.543	0.8	181080	WORD_OFF	n/a	n/a	DRYER	Appliances	9	1	[0, 0, 0]	n/a	catFR1	2	R1541T
166.343	1.6	181881	WORD	n/a	wordpools/wordpool_categorized_EN.txt	OVEN	Appliances	10	1	[0, 0, 0]	n/a	catFR1	2	R1541T
167.943	0.817	183483	WORD_OFF	n/a	n/a	OVEN	Appliances	10	1	[0, 0, 0]	n/a	catFR1	2	R1541T
168.76	1.6	184302	WORD	n/a	wordpools/wordpool_categorized_EN.txt	VAN	Vehicles	11	1	[0, 0, 0]	n/a	catFR1	2	R1541T
170.36	0.933	185895	WORD_OFF	n/a	n/a	VAN	Vehicles	11	1	[0, 0, 0]	n/a	catFR1	2	R1541T
171.293	1.601	186832	WORD	n/a	wordpools/wordpool_categorized_EN.txt	TRAIN	Vehicles	12	1	[0, 0, 0]	n/a	catFR1	2	R1541T
172.894	0.001	188427	PROB	0.001	n/a	n/a	n/a	-999	1	[7, 8, 7]	22	catFR1	2	R1541T
172.895	0.0	188428	START	n/a	n/a	n/a	n/a	-999	1	[-999, -999, -999]	n/a	catFR1	2	R1541T
172.894	0.001	188434	WORD_OFF	n/a	n/a	TRAIN	Vehicles	12	1	[0, 0, 0]	n/a	catFR1	2	R1541T
172.895	0.0	188434	ENCODING_END	n/a	n/a	n/a	n/a	-999	1	[0, 0, 0]	n/a	catFR1	2	R1541T
172.895	2.632	188434	DISTRACT_START	n/a	n/a	n/a	n/a	-999	1	[0, 0, 0]	n/a	catFR1	2	R1541T
175.527	2.316	191060	PROB	2.316	n/a	n/a	n/a	-999	1	[2, 3, 7]	12	catFR1	2	R1541T
177.843	1.818	193376	PROB	1.818	n/a	n/a	n/a	-999	1	[8, 2, 1]	11	catFR1	2	R1541T
179.661	2.367	195194	PROB	2.367	n/a	n/a	n/a	-999	1	[6, 1, 7]	14	catFR1	2	R1541T
182.028	2.248	197561	PROB	2.248	n/a	n/a	n/a	-999	1	[2, 6, 6]	14	catFR1	2	R1541T
184.276	2.751	199809	PROB	2.751	n/a	n/a	n/a	-999	1	[6, 3, 8]	17	catFR1	2	R1541T
187.027	2.483	202560	PROB	2.483	n/a	n/a	n/a	-999	1	[8, 7, 6]	21	catFR1	2	R1541T
189.51	2.683	205043	PROB	2.683	n/a	n/a	n/a	-999	1	[8, 6, 5]	19	catFR1	2	R1541T
192.193	2.616	207726	PROB	2.616	n/a	n/a	n/a	-999	1	[5, 8, 7]	20	catFR1	2	R1541T
194.809	0.0	210342	STOP	n/a	n/a	n/a	n/a	-999	1	[-999, -999, -999]	n/a	catFR1	2	R1541T
194.809	1.784	210349	DISTRACT_END	n/a	n/a	n/a	n/a	-999	1	[0, 0, 0]	n/a	catFR1	2	R1541T
196.593	1.805	212133	REC_START	n/a	n/a	n/a	n/a	-999	1	[0, 0, 0]	n/a	catFR1	2	R1541T
198.398	0.783	213931	REC_WORD	0.783	n/a	BIKE	Vehicles	5	1	[0, 0, 0]	n/a	catFR1	2	R1541T
199.181	1.0	214714	REC_WORD	1.0	n/a	MOTORCYCLE	Vehicles	6	1	[0, 0, 0]	n/a	catFR1	2	R1541T
200.181	0.035	215714	REC_WORD_VV	0.035	n/a	<>	n/a	-999	1	[0, 0, 0]	n/a	catFR1	2	R1541T
200.216	3.211	215749	REC_WORD	3.211	n/a	VAN	Vehicles	11	1	[0, 0, 0]	n/a	catFR1	2	R1541T
203.427	1.0	218960	REC_WORD	1.0	n/a	DISHWASHER	Appliances	4	1	[0, 0, 0]	n/a	catFR1	2	R1541T
204.427	0.144	219960	REC_WORD_VV	0.144	n/a	<>	n/a	-999	1	[0, 0, 0]	n/a	catFR1	2	R1541T
204.571	1.153	220104	REC_WORD	1.153	n/a	STOVE	Appliances	3	1	[0, 0, 0]	n/a	catFR1	2	R1541T
205.724	0.865	221257	REC_WORD	0.865	n/a	OVEN	Appliances	10	1	[0, 0, 0]	n/a	catFR1	2	R1541T
206.589	3.417	222122	REC_WORD	3.417	n/a	MICROWAVE	Electronics	-999	1	[0, 0, 0]	n/a	catFR1	2	R1541T
210.006	3.928	225538	REC_WORD	3.928	n/a	ROBIN	Birds	2	1	[0, 0, 0]	n/a	catFR1	2	R1541T
213.934	2.001	229466	REC_WORD	2.001	n/a	PIGEON	Birds	1	1	[0, 0, 0]	n/a	catFR1	2	R1541T
215.935	10.846	231467	REC_WORD	10.846	n/a	BLUEBIRD	Birds	7	1	[0, 0, 0]	n/a	catFR1	2	R1541T
226.781	2.328	242320	REC_END	n/a	n/a	n/a	n/a	-999	1	[0, 0, 0]	n/a	catFR1	2	R1541T
229.109	10.349	244650	COUNTDOWN_START	n/a	n/a	n/a	n/a	-999	1	[0, 0, 0]	n/a	catFR1	2	R1541T
239.458	0.0	254998	COUNTDOWN_END	n/a	n/a	n/a	n/a	-999	1	[0, 0, 0]	n/a	catFR1	2	R1541T
239.458	1.85	254998	ENCODING_START	n/a	n/a	n/a	n/a	-999	2	[0, 0, 0]	n/a	catFR1	2	R1541T
241.308	1.618	256845	WORD	n/a	wordpools/wordpool_categorized_EN.txt	LAMB	FarmAnimals	1	2	[0, 0, 0]	n/a	catFR1	2	R1541T
242.926	0.982	258465	WORD_OFF	n/a	n/a	LAMB	FarmAnimals	1	2	[0, 0, 0]	n/a	catFR1	2	R1541T
243.908	1.617	259448	WORD	n/a	wordpools/wordpool_categorized_EN.txt	TURKEY	FarmAnimals	2	2	[0, 0, 0]	n/a	catFR1	2	R1541T
245.525	0.85	261059	WORD_OFF	n/a	n/a	TURKEY	FarmAnimals	2	2	[0, 0, 0]	n/a	catFR1	2	R1541T
246.375	1.614	261915	WORD	n/a	wordpools/wordpool_categorized_EN.txt	SEAGULL	Birds	3	2	[0, 0, 0]	n/a	catFR1	2	R1541T
247.989	0.969	263526	WORD_OFF	n/a	n/a	SEAGULL	Birds	3	2	[0, 0, 0]	n/a	catFR1	2	R1541T
248.958	1.616	264490	WORD	n/a	wordpools/wordpool_categorized_EN.txt	CARDINAL	Birds	4	2	[0, 0, 0]	n/a	catFR1	2	R1541T
250.574	0.816	266110	WORD_OFF	n/a	n/a	CARDINAL	Birds	4	2	[0, 0, 0]	n/a	catFR1	2	R1541T
251.39	1.601	266929	WORD	n/a	wordpools/wordpool_categorized_EN.txt	IRON	Appliances	5	2	[0, 0, 0]	n/a	catFR1	2	R1541T
252.991	0.983	268528	WORD_OFF	n/a	n/a	IRON	Appliances	5	2	[0, 0, 0]	n/a	catFR1	2	R1541T
253.974	1.6	269514	WORD	n/a	wordpools/wordpool_categorized_EN.txt	WASHER	Appliances	6	2	[0, 0, 0]	n/a	catFR1	2	R1541T
255.574	0.951	271107	WORD_OFF	n/a	n/a	WASHER	Appliances	6	2	[0, 0, 0]	n/a	catFR1	2	R1541T
256.525	1.616	272062	WORD	n/a	wordpools/wordpool_categorized_EN.txt	GOOSE	Birds	7	2	[0, 0, 0]	n/a	catFR1	2	R1541T
258.141	0.834	273673	WORD_OFF	n/a	n/a	GOOSE	Birds	7	2	[0, 0, 0]	n/a	catFR1	2	R1541T
258.975	1.616	274510	WORD	n/a	wordpools/wordpool_categorized_EN.txt	DUCK	Birds	8	2	[0, 0, 0]	n/a	catFR1	2	R1541T
260.591	0.817	276130	WORD_OFF	n/a	n/a	DUCK	Birds	8	2	[0, 0, 0]	n/a	catFR1	2	R1541T
261.408	1.6	276940	WORD	n/a	wordpools/wordpool_categorized_EN.txt	ROOSTER	FarmAnimals	9	2	[0, 0, 0]	n/a	catFR1	2	R1541T
263.008	0.883	278542	WORD_OFF	n/a	n/a	ROOSTER	FarmAnimals	9	2	[0, 0, 0]	n/a	catFR1	2	R1541T
263.891	1.617	279425	WORD	n/a	wordpools/wordpool_categorized_EN.txt	GOAT	FarmAnimals	10	2	[0, 0, 0]	n/a	catFR1	2	R1541T
265.508	0.916	281045	WORD_OFF	n/a	n/a	GOAT	FarmAnimals	10	2	[0, 0, 0]	n/a	catFR1	2	R1541T
266.424	1.6	281964	WORD	n/a	wordpools/wordpool_categorized_EN.txt	BLENDER	Appliances	11	2	[0, 0, 0]	n/a	catFR1	2	R1541T
268.024	0.767	283557	WORD_OFF	n/a	n/a	BLENDER	Appliances	11	2	[0, 0, 0]	n/a	catFR1	2	R1541T
268.791	1.617	284330	WORD	n/a	wordpools/wordpool_categorized_EN.txt	REFRIGERATOR	Appliances	12	2	[0, 0, 0]	n/a	catFR1	2	R1541T
270.408	0.001	285939	PROB	0.001	n/a	n/a	n/a	-999	2	[8, 8, 6]	22	catFR1	2	R1541T
270.409	0.0	285940	START	n/a	n/a	n/a	n/a	-999	2	[-999, -999, -999]	n/a	catFR1	2	R1541T
270.408	0.001	285941	WORD_OFF	n/a	n/a	REFRIGERATOR	Appliances	12	2	[0, 0, 0]	n/a	catFR1	2	R1541T
270.409	0.0	285941	ENCODING_END	n/a	n/a	n/a	n/a	-999	2	[0, 0, 0]	n/a	catFR1	2	R1541T
270.409	3.448	285950	DISTRACT_START	n/a	n/a	n/a	n/a	-999	2	[0, 0, 0]	n/a	catFR1	2	R1541T
273.857	1.868	289388	PROB	1.868	n/a	n/a	n/a	-999	2	[2, 3, 8]	13	catFR1	2	R1541T
275.725	1.733	291256	PROB	1.733	n/a	n/a	n/a	-999	2	[6, 1, 5]	12	catFR1	2	R1541T
277.458	2.016	292989	PROB	2.016	n/a	n/a	n/a	-999	2	[7, 3, 4]	14	catFR1	2	R1541T
279.474	2.6	295005	PROB	2.6	n/a	n/a	n/a	-999	2	[6, 7, 5]	18	catFR1	2	R1541T
282.074	2.549	297605	PROB	2.549	n/a	n/a	n/a	-999	2	[6, 6, 4]	16	catFR1	2	R1541T
284.623	2.202	300153	PROB	2.202	n/a	n/a	n/a	-999	2	[5, 7, 5]	17	catFR1	2	R1541T
286.825	2.733	302355	PROB	2.733	n/a	n/a	n/a	-999	2	[2, 3, 1]	6	catFR1	2	R1541T
289.558	2.633	305088	PROB	2.633	n/a	n/a	n/a	-999	2	[3, 7, 7]	17	catFR1	2	R1541T
292.191	0.0	307721	STOP	n/a	n/a	n/a	n/a	-999	2	[-999, -999, -999]	n/a	catFR1	2	R1541T
292.191	1.916	307729	DISTRACT_END	n/a	n/a	n/a	n/a	-999	2	[0, 0, 0]	n/a	catFR1	2	R1541T
294.107	1.38	309640	REC_START	n/a	n/a	n/a	n/a	-999	2	[0, 0, 0]	n/a	catFR1	2	R1541T
295.487	1.199	311017	REC_WORD	1.199	n/a	LAMB	FarmAnimals	1	2	[0, 0, 0]	n/a	catFR1	2	R1541T
296.686	7.97	312216	REC_WORD	7.97	n/a	TURKEY	FarmAnimals	2	2	[0, 0, 0]	n/a	catFR1	2	R1541T
304.656	1.0	320186	REC_WORD	1.0	n/a	REFRIGERATOR	Appliances	12	2	[0, 0, 0]	n/a	catFR1	2	R1541T
305.656	4.853	321186	REC_WORD_VV	4.853	n/a	<>	n/a	-999	2	[0, 0, 0]	n/a	catFR1	2	R1541T
310.509	8.965	326039	REC_WORD	8.965	n/a	ROOSTER	FarmAnimals	9	2	[0, 0, 0]	n/a	catFR1	2	R1541T
319.474	4.843	335003	REC_WORD	4.843	n/a	DOVE	Birds	-999	2	[0, 0, 0]	n/a	catFR1	2	R1541T
324.317	3.173	339855	REC_END	n/a	n/a	n/a	n/a	-999	2	[0, 0, 0]	n/a	catFR1	2	R1541T
327.49	10.35	343022	COUNTDOWN_START	n/a	n/a	n/a	n/a	-999	2	[0, 0, 0]	n/a	catFR1	2	R1541T
337.84	0.0	353370	COUNTDOWN_END	n/a	n/a	n/a	n/a	-999	2	[0, 0, 0]	n/a	catFR1	2	R1541T
337.84	2.248	353379	ENCODING_START	n/a	n/a	n/a	n/a	-999	3	[0, 0, 0]	n/a	catFR1	2	R1541T
340.088	1.601	355618	WORD	n/a	wordpools/wordpool_categorized_EN.txt	BEER	Beverages	1	3	[0, 0, 0]	n/a	catFR1	2	R1541T
341.689	0.999	357219	WORD_OFF	n/a	n/a	BEER	Beverages	1	3	[0, 0, 0]	n/a	catFR1	2	R1541T
342.688	1.601	358221	WORD	n/a	wordpools/wordpool_categorized_EN.txt	RUM	Beverages	2	3	[0, 0, 0]	n/a	catFR1	2	R1541T
344.289	0.999	359822	WORD_OFF	n/a	n/a	RUM	Beverages	2	3	[0, 0, 0]	n/a	catFR1	2	R1541T
345.288	1.601	360823	WORD	n/a	wordpools/wordpool_categorized_EN.txt	GRATER	KitchenTools	3	3	[0, 0, 0]	n/a	catFR1	2	R1541T
346.889	0.883	362425	WORD_OFF	n/a	n/a	GRATER	KitchenTools	3	3	[0, 0, 0]	n/a	catFR1	2	R1541T
347.772	1.616	363308	WORD	n/a	wordpools/wordpool_categorized_EN.txt	CORKSCREW	KitchenTools	4	3	[0, 0, 0]	n/a	catFR1	2	R1541T
349.388	0.767	364919	WORD_OFF	n/a	n/a	CORKSCREW	KitchenTools	4	3	[0, 0, 0]	n/a	catFR1	2	R1541T
350.155	1.601	365692	WORD	n/a	wordpools/wordpool_categorized_EN.txt	FOOT	BodyParts	5	3	[0, 0, 0]	n/a	catFR1	2	R1541T
351.756	0.899	367285	WORD_OFF	n/a	n/a	FOOT	BodyParts	5	3	[0, 0, 0]	n/a	catFR1	2	R1541T
352.655	1.601	368186	WORD	n/a	wordpools/wordpool_categorized_EN.txt	ELBOW	BodyParts	6	3	[0, 0, 0]	n/a	catFR1	2	R1541T
354.256	0.766	369788	WORD_OFF	n/a	n/a	ELBOW	BodyParts	6	3	[0, 0, 0]	n/a	catFR1	2	R1541T
355.022	1.601	370552	WORD	n/a	wordpools/wordpool_categorized_EN.txt	WATER	Beverages	7	3	[0, 0, 0]	n/a	catFR1	2	R1541T
356.623	0.949	372154	WORD_OFF	n/a	n/a	WATER	Beverages	7	3	[0, 0, 0]	n/a	catFR1	2	R1541T
357.572	1.616	373100	WORD	n/a	wordpools/wordpool_categorized_EN.txt	WINE	Beverages	8	3	[0, 0, 0]	n/a	catFR1	2	R1541T
359.188	0.784	374720	WORD_OFF	n/a	n/a	WINE	Beverages	8	3	[0, 0, 0]	n/a	catFR1	2	R1541T
359.972	1.617	375503	WORD	n/a	wordpools/wordpool_categorized_EN.txt	LEG	BodyParts	9	3	[0, 0, 0]	n/a	catFR1	2	R1541T
361.589	0.833	377123	WORD_OFF	n/a	n/a	LEG	BodyParts	9	3	[0, 0, 0]	n/a	catFR1	2	R1541T
362.422	1.6	377951	WORD	n/a	wordpools/wordpool_categorized_EN.txt	HEAD	BodyParts	10	3	[0, 0, 0]	n/a	catFR1	2	R1541T
364.022	0.782	379553	WORD_OFF	n/a	n/a	HEAD	BodyParts	10	3	[0, 0, 0]	n/a	catFR1	2	R1541T
364.804	1.601	380336	WORD	n/a	wordpools/wordpool_categorized_EN.txt	FORK	KitchenTools	11	3	[0, 0, 0]	n/a	catFR1	2	R1541T
366.405	0.767	381937	WORD_OFF	n/a	n/a	FORK	KitchenTools	11	3	[0, 0, 0]	n/a	catFR1	2	R1541T
367.172	1.618	382702	WORD	n/a	wordpools/wordpool_categorized_EN.txt	STRAINER	KitchenTools	12	3	[0, 0, 0]	n/a	catFR1	2	R1541T
368.79	0.0	384318	PROB	0.0	n/a	n/a	n/a	-999	3	[1, 1, 6]	8	catFR1	2	R1541T
368.79	0.0	384318	START	n/a	n/a	n/a	n/a	-999	3	[-999, -999, -999]	n/a	catFR1	2	R1541T
368.789	0.001	384322	WORD_OFF	n/a	n/a	STRAINER	KitchenTools	12	3	[0, 0, 0]	n/a	catFR1	2	R1541T
368.79	0.0	384322	ENCODING_END	n/a	n/a	n/a	n/a	-999	3	[0, 0, 0]	n/a	catFR1	2	R1541T
368.79	2.416	384322	DISTRACT_START	n/a	n/a	n/a	n/a	-999	3	[0, 0, 0]	n/a	catFR1	2	R1541T
371.206	2.183	386734	PROB	2.183	n/a	n/a	n/a	-999	3	[1, 5, 2]	8	catFR1	2	R1541T
373.389	2.551	388917	PROB	2.551	n/a	n/a	n/a	-999	3	[2, 2, 8]	12	catFR1	2	R1541T
375.94	2.582	391468	PROB	2.582	n/a	n/a	n/a	-999	3	[2, 2, 8]	12	catFR1	2	R1541T
378.522	2.551	394050	PROB	2.551	n/a	n/a	n/a	-999	3	[4, 1, 3]	8	catFR1	2	R1541T
381.073	2.916	396601	PROB	2.916	n/a	n/a	n/a	-999	3	[4, 5, 5]	14	catFR1	2	R1541T
383.989	2.233	399517	PROB	2.233	n/a	n/a	n/a	-999	3	[3, 5, 1]	9	catFR1	2	R1541T
386.222	3.265	401750	PROB	3.265	n/a	n/a	n/a	-999	3	[4, 3, 7]	14	catFR1	2	R1541T
389.487	0.0	405015	STOP	n/a	n/a	n/a	n/a	-999	3	[-999, -999, -999]	n/a	catFR1	2	R1541T
389.487	1.718	405017	DISTRACT_END	n/a	n/a	n/a	n/a	-999	3	[0, 0, 0]	n/a	catFR1	2	R1541T
391.205	0.69	406737	REC_START	n/a	n/a	n/a	n/a	-999	3	[0, 0, 0]	n/a	catFR1	2	R1541T
391.895	1.007	407423	REC_WORD	1.007	n/a	BEER	Beverages	1	3	[0, 0, 0]	n/a	catFR1	2	R1541T
392.902	1.086	408429	REC_WORD	1.086	n/a	RUM	Beverages	2	3	[0, 0, 0]	n/a	catFR1	2	R1541T
393.988	2.152	409515	REC_WORD	2.152	n/a	WINE	Beverages	8	3	[0, 0, 0]	n/a	catFR1	2	R1541T
396.14	15.321	411667	REC_WORD	15.321	n/a	GRATER	KitchenTools	3	3	[0, 0, 0]	n/a	catFR1	2	R1541T
411.461	9.977	426988	REC_WORD	9.977	n/a	FORK	KitchenTools	11	3	[0, 0, 0]	n/a	catFR1	2	R1541T
421.438	2.466	436971	REC_END	n/a	n/a	n/a	n/a	-999	3	[0, 0, 0]	n/a	catFR1	2	R1541T
423.904	10.349	439437	COUNTDOWN_START	n/a	n/a	n/a	n/a	-999	3	[0, 0, 0]	n/a	catFR1	2	R1541T
434.253	0.0	449785	COUNTDOWN_END	n/a	n/a	n/a	n/a	-999	3	[0, 0, 0]	n/a	catFR1	2	R1541T
434.253	2.283	449785	ENCODING_START	n/a	n/a	n/a	n/a	-999	4	[0, 0, 0]	n/a	catFR1	2	R1541T
436.536	1.617	452069	WORD	n/a	wordpools/wordpool_categorized_EN.txt	TULIP	Flowers	1	4	[0, 0, 0]	n/a	catFR1	2	R1541T
438.153	0.751	453680	WORD_OFF	n/a	n/a	TULIP	Flowers	1	4	[0, 0, 0]	n/a	catFR1	2	R1541T
438.904	1.616	454435	WORD	n/a	wordpools/wordpool_categorized_EN.txt	SUNFLOWER	Flowers	2	4	[0, 0, 0]	n/a	catFR1	2	R1541T
440.52	0.933	456055	WORD_OFF	n/a	n/a	SUNFLOWER	Flowers	2	4	[0, 0, 0]	n/a	catFR1	2	R1541T
441.453	1.6	456984	WORD	n/a	wordpools/wordpool_categorized_EN.txt	PENCIL	OfficeSupplies	3	4	[0, 0, 0]	n/a	catFR1	2	R1541T
443.053	0.967	458585	WORD_OFF	n/a	n/a	PENCIL	OfficeSupplies	3	4	[0, 0, 0]	n/a	catFR1	2	R1541T
444.02	1.617	459550	WORD	n/a	wordpools/wordpool_categorized_EN.txt	TAPE	OfficeSupplies	4	4	[0, 0, 0]	n/a	catFR1	2	R1541T
445.637	0.932	461170	WORD_OFF	n/a	n/a	TAPE	OfficeSupplies	4	4	[0, 0, 0]	n/a	catFR1	2	R1541T
446.569	1.601	462098	WORD	n/a	wordpools/wordpool_categorized_EN.txt	PLUM	Fruit	5	4	[0, 0, 0]	n/a	catFR1	2	R1541T
448.17	0.85	463700	WORD_OFF	n/a	n/a	PLUM	Fruit	5	4	[0, 0, 0]	n/a	catFR1	2	R1541T
449.02	1.6	464546	WORD	n/a	wordpools/wordpool_categorized_EN.txt	APPLE	Fruit	6	4	[0, 0, 0]	n/a	catFR1	2	R1541T
450.62	0.932	466148	WORD_OFF	n/a	n/a	APPLE	Fruit	6	4	[0, 0, 0]	n/a	catFR1	2	R1541T
451.552	1.601	467086	WORD	n/a	wordpools/wordpool_categorized_EN.txt	ORCHID	Flowers	7	4	[0, 0, 0]	n/a	catFR1	2	R1541T
453.153	0.916	468687	WORD_OFF	n/a	n/a	ORCHID	Flowers	7	4	[0, 0, 0]	n/a	catFR1	2	R1541T
454.069	1.601	469597	WORD	n/a	wordpools/wordpool_categorized_EN.txt	CARNATION	Flowers	8	4	[0, 0, 0]	n/a	catFR1	2	R1541T
455.67	0.866	471199	WORD_OFF	n/a	n/a	CARNATION	Flowers	8	4	[0, 0, 0]	n/a	catFR1	2	R1541T
456.536	1.6	472064	WORD	n/a	wordpools/wordpool_categorized_EN.txt	ORANGE	Fruit	9	4	[0, 0, 0]	n/a	catFR1	2	R1541T
458.136	0.967	473666	WORD_OFF	n/a	n/a	ORANGE	Fruit	9	4	[0, 0, 0]	n/a	catFR1	2	R1541T
459.103	1.6	474630	WORD	n/a	wordpools/wordpool_categorized_EN.txt	CHERRY	Fruit	10	4	[0, 0, 0]	n/a	catFR1	2	R1541T
460.703	0.767	476232	WORD_OFF	n/a	n/a	CHERRY	Fruit	10	4	[0, 0, 0]	n/a	catFR1	2	R1541T
461.47	1.616	476997	WORD	n/a	wordpools/wordpool_categorized_EN.txt	MARKER	OfficeSupplies	11	4	[0, 0, 0]	n/a	catFR1	2	R1541T
463.086	0.917	478616	WORD_OFF	n/a	n/a	MARKER	OfficeSupplies	11	4	[0, 0, 0]	n/a	catFR1	2	R1541T
464.003	1.601	479536	WORD	n/a	wordpools/wordpool_categorized_EN.txt	PAPER	OfficeSupplies	12	4	[0, 0, 0]	n/a	catFR1	2	R1541T
465.604	0.002	481130	PROB	0.002	n/a	n/a	n/a	-999	4	[7, 5, 2]	14	catFR1	2	R1541T
465.606	0.0	481132	START	n/a	n/a	n/a	n/a	-999	4	[-999, -999, -999]	n/a	catFR1	2	R1541T
465.603	0.003	481137	WORD_OFF	n/a	n/a	PAPER	OfficeSupplies	12	4	[0, 0, 0]	n/a	catFR1	2	R1541T
465.606	0.0	481137	ENCODING_END	n/a	n/a	n/a	n/a	-999	4	[0, 0, 0]	n/a	catFR1	2	R1541T
465.606	2.913	481137	DISTRACT_START	n/a	n/a	n/a	n/a	-999	4	[0, 0, 0]	n/a	catFR1	2	R1541T
468.519	2.118	484044	PROB	2.118	n/a	n/a	n/a	-999	4	[1, 5, 7]	13	catFR1	2	R1541T
470.637	2.333	486162	PROB	2.333	n/a	n/a	n/a	-999	4	[6, 1, 5]	12	catFR1	2	R1541T
472.97	2.218	488495	PROB	2.218	n/a	n/a	n/a	-999	4	[5, 6, 2]	13	catFR1	2	R1541T
475.188	2.649	490713	PROB	2.649	n/a	n/a	n/a	-999	4	[1, 3, 5]	9	catFR1	2	R1541T
477.837	2.783	493362	PROB	2.783	n/a	n/a	n/a	-999	4	[8, 4, 5]	17	catFR1	2	R1541T
480.62	3.398	496145	PROB	3.398	n/a	n/a	n/a	-999	4	[4, 4, 8]	16	catFR1	2	R1541T
484.018	2.434	499543	PROB	2.434	n/a	n/a	n/a	-999	4	[3, 7, 4]	14	catFR1	2	R1541T
486.452	0.0	501977	STOP	n/a	n/a	n/a	n/a	-999	4	[-999, -999, -999]	n/a	catFR1	2	R1541T
486.452	1.767	501979	DISTRACT_END	n/a	n/a	n/a	n/a	-999	4	[0, 0, 0]	n/a	catFR1	2	R1541T
488.219	1.398	503753	REC_START	n/a	n/a	n/a	n/a	-999	4	[0, 0, 0]	n/a	catFR1	2	R1541T
489.617	0.874	505142	REC_WORD	0.874	n/a	TULIP	Flowers	1	4	[0, 0, 0]	n/a	catFR1	2	R1541T
490.491	1.0	506016	REC_WORD	1.0	n/a	SUNFLOWER	Flowers	2	4	[0, 0, 0]	n/a	catFR1	2	R1541T
491.491	0.252	507016	REC_WORD_VV	0.252	n/a	<>	n/a	-999	4	[0, 0, 0]	n/a	catFR1	2	R1541T
491.743	1.125	507268	REC_WORD	1.125	n/a	DAISY	n/a	-999	4	[0, 0, 0]	n/a	catFR1	2	R1541T
492.868	11.006	508393	REC_WORD	11.006	n/a	MARKER	OfficeSupplies	11	4	[0, 0, 0]	n/a	catFR1	2	R1541T
503.874	14.581	519398	REC_WORD	14.581	n/a	CHERRY	Fruit	10	4	[0, 0, 0]	n/a	catFR1	2	R1541T
518.455	5.696	533986	REC_END	n/a	n/a	n/a	n/a	-999	4	[0, 0, 0]	n/a	catFR1	2	R1541T
524.151	10.35	539684	COUNTDOWN_START	n/a	n/a	n/a	n/a	-999	4	[0, 0, 0]	n/a	catFR1	2	R1541T
534.501	0.0	550031	COUNTDOWN_END	n/a	n/a	n/a	n/a	-999	4	[0, 0, 0]	n/a	catFR1	2	R1541T
534.501	1.95	550031	ENCODING_START	n/a	n/a	n/a	n/a	-999	5	[0, 0, 0]	n/a	catFR1	2	R1541T
536.451	1.6	551979	WORD	n/a	wordpools/wordpool_categorized_EN.txt	SODA	Beverages	1	5	[0, 0, 0]	n/a	catFR1	2	R1541T
538.051	0.767	553581	WORD_OFF	n/a	n/a	SODA	Beverages	1	5	[0, 0, 0]	n/a	catFR1	2	R1541T
538.818	1.617	554345	WORD	n/a	wordpools/wordpool_categorized_EN.txt	COFFEE	Beverages	2	5	[0, 0, 0]	n/a	catFR1	2	R1541T
540.435	0.933	555965	WORD_OFF	n/a	n/a	COFFEE	Beverages	2	5	[0, 0, 0]	n/a	catFR1	2	R1541T
541.368	1.6	556893	WORD	n/a	wordpools/wordpool_categorized_EN.txt	COTTON	Fabric	3	5	[0, 0, 0]	n/a	catFR1	2	R1541T
542.968	0.965	558495	WORD_OFF	n/a	n/a	COTTON	Fabric	3	5	[0, 0, 0]	n/a	catFR1	2	R1541T
543.933	1.601	559460	WORD	n/a	wordpools/wordpool_categorized_EN.txt	SPANDEX	Fabric	4	5	[0, 0, 0]	n/a	catFR1	2	R1541T
545.534	0.8	561062	WORD_OFF	n/a	n/a	SPANDEX	Fabric	4	5	[0, 0, 0]	n/a	catFR1	2	R1541T
546.334	1.617	561863	WORD	n/a	wordpools/wordpool_categorized_EN.txt	LILY	Flowers	5	5	[0, 0, 0]	n/a	catFR1	2	R1541T
547.951	0.931	563482	WORD_OFF	n/a	n/a	LILY	Flowers	5	5	[0, 0, 0]	n/a	catFR1	2	R1541T
548.882	1.602	564411	WORD	n/a	wordpools/wordpool_categorized_EN.txt	DAFFODIL	Flowers	6	5	[0, 0, 0]	n/a	catFR1	2	R1541T
550.484	1.0	566013	WORD_OFF	n/a	n/a	DAFFODIL	Flowers	6	5	[0, 0, 0]	n/a	catFR1	2	R1541T
551.484	1.616	567014	WORD	n/a	wordpools/wordpool_categorized_EN.txt	TEA	Beverages	7	5	[0, 0, 0]	n/a	catFR1	2	R1541T
553.1	0.784	568624	WORD_OFF	n/a	n/a	TEA	Beverages	7	5	[0, 0, 0]	n/a	catFR1	2	R1541T
553.884	1.6	569416	WORD	n/a	wordpools/wordpool_categorized_EN.txt	LEMONADE	Beverages	8	5	[0, 0, 0]	n/a	catFR1	2	R1541T
555.484	0.817	571009	WORD_OFF	n/a	n/a	LEMONADE	Beverages	8	5	[0, 0, 0]	n/a	catFR1	2	R1541T
556.301	1.616	571828	WORD	n/a	wordpools/wordpool_categorized_EN.txt	DAISY	Flowers	9	5	[0, 0, 0]	n/a	catFR1	2	R1541T
557.917	0.783	573448	WORD_OFF	n/a	n/a	DAISY	Flowers	9	5	[0, 0, 0]	n/a	catFR1	2	R1541T
558.7	1.601	574231	WORD	n/a	wordpools/wordpool_categorized_EN.txt	MARIGOLD	Flowers	10	5	[0, 0, 0]	n/a	catFR1	2	R1541T
560.301	0.8	575832	WORD_OFF	n/a	n/a	MARIGOLD	Flowers	10	5	[0, 0, 0]	n/a	catFR1	2	R1541T
561.101	1.6	576624	WORD	n/a	wordpools/wordpool_categorized_EN.txt	SUEDE	Fabric	11	5	[0, 0, 0]	n/a	catFR1	2	R1541T
562.701	0.966	578226	WORD_OFF	n/a	n/a	SUEDE	Fabric	11	5	[0, 0, 0]	n/a	catFR1	2	R1541T
563.667	1.616	579191	WORD	n/a	wordpools/wordpool_categorized_EN.txt	LEATHER	Fabric	12	5	[0, 0, 0]	n/a	catFR1	2	R1541T
565.283	0.0	580806	START	n/a	n/a	n/a	n/a	-999	5	[-999, -999, -999]	n/a	catFR1	2	R1541T
565.283	0.0	580806	PROB	0.0	n/a	n/a	n/a	-999	5	[7, 1, 1]	9	catFR1	2	R1541T
565.282	0.001	580811	WORD_OFF	n/a	n/a	LEATHER	Fabric	12	5	[0, 0, 0]	n/a	catFR1	2	R1541T
565.283	0.0	580811	ENCODING_END	n/a	n/a	n/a	n/a	-999	5	[0, 0, 0]	n/a	catFR1	2	R1541T
565.283	2.918	580811	DISTRACT_START	n/a	n/a	n/a	n/a	-999	5	[0, 0, 0]	n/a	catFR1	2	R1541T
568.201	2.65	583724	PROB	2.65	n/a	n/a	n/a	-999	5	[8, 1, 4]	13	catFR1	2	R1541T
570.851	2.617	586374	PROB	2.617	n/a	n/a	n/a	-999	5	[3, 2, 5]	10	catFR1	2	R1541T
573.468	2.334	588991	PROB	2.334	n/a	n/a	n/a	-999	5	[2, 2, 2]	6	catFR1	2	R1541T
575.802	4.248	591324	PROB	4.248	n/a	n/a	n/a	-999	5	[6, 8, 2]	16	catFR1	2	R1541T
580.05	3.784	595572	PROB	3.784	n/a	n/a	n/a	-999	5	[5, 1, 4]	10	catFR1	2	R1541T
583.834	2.666	599356	PROB	2.666	n/a	n/a	n/a	-999	5	[6, 5, 3]	14	catFR1	2	R1541T
586.5	0.0	602022	STOP	n/a	n/a	n/a	n/a	-999	5	[-999, -999, -999]	n/a	catFR1	2	R1541T
586.5	1.867	602025	DISTRACT_END	n/a	n/a	n/a	n/a	-999	5	[0, 0, 0]	n/a	catFR1	2	R1541T
588.367	1.129	603891	REC_START	n/a	n/a	n/a	n/a	-999	5	[0, 0, 0]	n/a	catFR1	2	R1541T
589.496	0.94	605018	REC_WORD	0.94	n/a	SODA	Beverages	1	5	[0, 0, 0]	n/a	catFR1	2	R1541T
590.436	0.817	605958	REC_WORD	0.817	n/a	COFFEE	Beverages	2	5	[0, 0, 0]	n/a	catFR1	2	R1541T
591.253	0.836	606775	REC_WORD	0.836	n/a	TEA	Beverages	7	5	[0, 0, 0]	n/a	catFR1	2	R1541T
592.089	0.812	607611	REC_WORD	0.812	n/a	WATER	Beverages	-999	5	[0, 0, 0]	n/a	catFR1	2	R1541T
592.901	0.914	608423	REC_WORD	0.914	n/a	LEMONADE	Beverages	8	5	[0, 0, 0]	n/a	catFR1	2	R1541T
593.815	2.127	609337	REC_WORD	2.127	n/a	DAFFODIL	Flowers	6	5	[0, 0, 0]	n/a	catFR1	2	R1541T
595.942	1.0	611464	REC_WORD	1.0	n/a	SPANDEX	Fabric	4	5	[0, 0, 0]	n/a	catFR1	2	R1541T
596.942	0.168	612464	REC_WORD_VV	0.168	n/a	<>	n/a	-999	5	[0, 0, 0]	n/a	catFR1	2	R1541T
597.11	0.795	612632	REC_WORD	0.795	n/a	COTTON	Fabric	3	5	[0, 0, 0]	n/a	catFR1	2	R1541T
597.905	6.597	613427	REC_WORD	6.597	n/a	SILK	n/a	-999	5	[0, 0, 0]	n/a	catFR1	2	R1541T
604.502	4.127	620024	REC_WORD	4.127	n/a	VELVET	n/a	-999	5	[0, 0, 0]	n/a	catFR1	2	R1541T
608.629	9.965	624151	REC_WORD	9.965	n/a	MARIGOLD	Flowers	10	5	[0, 0, 0]	n/a	catFR1	2	R1541T
618.594	25.054	634124	REC_END	n/a	n/a	n/a	n/a	-999	5	[0, 0, 0]	n/a	catFR1	2	R1541T
643.648	10.35	659179	COUNTDOWN_START	n/a	n/a	n/a	n/a	-999	5	[0, 0, 0]	n/a	catFR1	2	R1541T
653.998	0.0	669526	COUNTDOWN_END	n/a	n/a	n/a	n/a	-999	5	[0, 0, 0]	n/a	catFR1	2	R1541T
653.998	1.95	669526	ENCODING_START	n/a	n/a	n/a	n/a	-999	6	[0, 0, 0]	n/a	catFR1	2	R1541T
655.948	1.616	671474	WORD	n/a	wordpools/wordpool_categorized_EN.txt	DENIM	Fabric	1	6	[0, 0, 0]	n/a	catFR1	2	R1541T
657.564	0.951	673085	WORD_OFF	n/a	n/a	DENIM	Fabric	1	6	[0, 0, 0]	n/a	catFR1	2	R1541T
658.515	1.616	674040	WORD	n/a	wordpools/wordpool_categorized_EN.txt	WOOL	Fabric	2	6	[0, 0, 0]	n/a	catFR1	2	R1541T
660.131	1.0	675660	WORD_OFF	n/a	n/a	WOOL	Fabric	2	6	[0, 0, 0]	n/a	catFR1	2	R1541T
661.131	1.601	676652	WORD	n/a	wordpools/wordpool_categorized_EN.txt	CEDAR	Trees	3	6	[0, 0, 0]	n/a	catFR1	2	R1541T
662.732	0.833	678254	WORD_OFF	n/a	n/a	CEDAR	Trees	3	6	[0, 0, 0]	n/a	catFR1	2	R1541T
663.565	1.617	679091	WORD	n/a	wordpools/wordpool_categorized_EN.txt	OAK	Trees	4	6	[0, 0, 0]	n/a	catFR1	2	R1541T
665.182	0.999	680702	WORD_OFF	n/a	n/a	OAK	Trees	4	6	[0, 0, 0]	n/a	catFR1	2	R1541T
666.181	1.617	681703	WORD	n/a	wordpools/wordpool_categorized_EN.txt	RULER	OfficeSupplies	5	6	[0, 0, 0]	n/a	catFR1	2	R1541T
667.798	0.95	683323	WORD_OFF	n/a	n/a	RULER	OfficeSupplies	5	6	[0, 0, 0]	n/a	catFR1	2	R1541T
668.748	1.6	684270	WORD	n/a	wordpools/wordpool_categorized_EN.txt	BINDER	OfficeSupplies	6	6	[0, 0, 0]	n/a	catFR1	2	R1541T
670.348	1.0	685872	WORD_OFF	n/a	n/a	BINDER	OfficeSupplies	6	6	[0, 0, 0]	n/a	catFR1	2	R1541T
671.348	1.6	686873	WORD	n/a	wordpools/wordpool_categorized_EN.txt	ELM	Trees	7	6	[0, 0, 0]	n/a	catFR1	2	R1541T
672.948	0.867	688474	WORD_OFF	n/a	n/a	ELM	Trees	7	6	[0, 0, 0]	n/a	catFR1	2	R1541T
673.815	1.6	689339	WORD	n/a	wordpools/wordpool_categorized_EN.txt	EVERGREEN	Trees	8	6	[0, 0, 0]	n/a	catFR1	2	R1541T
675.415	1.0	690941	WORD_OFF	n/a	n/a	EVERGREEN	Trees	8	6	[0, 0, 0]	n/a	catFR1	2	R1541T
676.415	1.616	691942	WORD	n/a	wordpools/wordpool_categorized_EN.txt	FLEECE	Fabric	9	6	[0, 0, 0]	n/a	catFR1	2	R1541T
678.031	0.85	693553	WORD_OFF	n/a	n/a	FLEECE	Fabric	9	6	[0, 0, 0]	n/a	catFR1	2	R1541T
678.881	1.6	694408	WORD	n/a	wordpools/wordpool_categorized_EN.txt	NYLON	Fabric	10	6	[0, 0, 0]	n/a	catFR1	2	R1541T
680.481	0.834	696001	WORD_OFF	n/a	n/a	NYLON	Fabric	10	6	[0, 0, 0]	n/a	catFR1	2	R1541T
681.315	1.616	696838	WORD	n/a	wordpools/wordpool_categorized_EN.txt	PEN	OfficeSupplies	11	6	[0, 0, 0]	n/a	catFR1	2	R1541T
682.931	0.983	698458	WORD_OFF	n/a	n/a	PEN	OfficeSupplies	11	6	[0, 0, 0]	n/a	catFR1	2	R1541T
683.914	1.601	699441	WORD	n/a	wordpools/wordpool_categorized_EN.txt	STAPLER	OfficeSupplies	12	6	[0, 0, 0]	n/a	catFR1	2	R1541T
685.515	0.001	701035	PROB	0.001	n/a	n/a	n/a	-999	6	[3, 8, 3]	14	catFR1	2	R1541T
685.516	0.0	701036	START	n/a	n/a	n/a	n/a	-999	6	[-999, -999, -999]	n/a	catFR1	2	R1541T
685.514	0.002	701043	WORD_OFF	n/a	n/a	STAPLER	OfficeSupplies	12	6	[0, 0, 0]	n/a	catFR1	2	R1541T
685.516	0.0	701043	ENCODING_END	n/a	n/a	n/a	n/a	-999	6	[0, 0, 0]	n/a	catFR1	2	R1541T
685.516	4.066	701043	DISTRACT_START	n/a	n/a	n/a	n/a	-999	6	[0, 0, 0]	n/a	catFR1	2	R1541T
689.582	4.265	705101	PROB	4.265	n/a	n/a	n/a	-999	6	[7, 4, 7]	18	catFR1	2	R1541T
693.847	2.468	709366	PROB	2.468	n/a	n/a	n/a	-999	6	[7, 3, 4]	14	catFR1	2	R1541T
696.315	2.55	711834	PROB	2.55	n/a	n/a	n/a	-999	6	[7, 2, 7]	16	catFR1	2	R1541T
698.865	2.865	714384	PROB	2.865	n/a	n/a	n/a	-999	6	[8, 8, 8]	24	catFR1	2	R1541T
701.73	2.65	717249	PROB	2.65	n/a	n/a	n/a	-999	6	[2, 3, 5]	10	catFR1	2	R1541T
704.38	2.666	719899	PROB	2.666	n/a	n/a	n/a	-999	6	[5, 8, 4]	17	catFR1	2	R1541T
707.046	0.0	722565	STOP	n/a	n/a	n/a	n/a	-999	6	[-999, -999, -999]	n/a	catFR1	2	R1541T
707.046	1.684	722566	DISTRACT_END	n/a	n/a	n/a	n/a	-999	6	[0, 0, 0]	n/a	catFR1	2	R1541T
708.73	2.149	724250	REC_START	n/a	n/a	n/a	n/a	-999	6	[0, 0, 0]	n/a	catFR1	2	R1541T
710.879	0.868	726398	REC_WORD	0.868	n/a	DENIM	Fabric	1	6	[0, 0, 0]	n/a	catFR1	2	R1541T
711.747	0.712	727266	REC_WORD	0.712	n/a	WOOL	Fabric	2	6	[0, 0, 0]	n/a	catFR1	2	R1541T
712.459	1.156	727978	REC_WORD	1.156	n/a	FLEECE	Fabric	9	6	[0, 0, 0]	n/a	catFR1	2	R1541T
713.615	1.018	729134	REC_WORD	1.018	n/a	CEDAR	Trees	3	6	[0, 0, 0]	n/a	catFR1	2	R1541T
714.633	1.002	730152	REC_WORD	1.002	n/a	OAK	Trees	4	6	[0, 0, 0]	n/a	catFR1	2	R1541T
715.635	23.321	731154	REC_WORD	23.321	n/a	EVERGREEN	Trees	8	6	[0, 0, 0]	n/a	catFR1	2	R1541T
738.956	2.04	754483	REC_END	n/a	n/a	n/a	n/a	-999	6	[0, 0, 0]	n/a	catFR1	2	R1541T
740.996	10.35	756522	COUNTDOWN_START	n/a	n/a	n/a	n/a	-999	6	[0, 0, 0]	n/a	catFR1	2	R1541T
751.346	0.0	766870	COUNTDOWN_END	n/a	n/a	n/a	n/a	-999	6	[0, 0, 0]	n/a	catFR1	2	R1541T
751.346	1.799	766870	ENCODING_START	n/a	n/a	n/a	n/a	-999	7	[0, 0, 0]	n/a	catFR1	2	R1541T
753.145	1.618	768672	WORD	n/a	wordpools/wordpool_categorized_EN.txt	WHALE	OceanAnimals	1	7	[0, 0, 0]	n/a	catFR1	2	R1541T
754.763	0.949	770283	WORD_OFF	n/a	n/a	WHALE	OceanAnimals	1	7	[0, 0, 0]	n/a	catFR1	2	R1541T
755.712	1.601	771238	WORD	n/a	wordpools/wordpool_categorized_EN.txt	SHRIMP	OceanAnimals	2	7	[0, 0, 0]	n/a	catFR1	2	R1541T
757.313	0.816	772832	WORD_OFF	n/a	n/a	SHRIMP	OceanAnimals	2	7	[0, 0, 0]	n/a	catFR1	2	R1541T
758.129	1.617	773650	WORD	n/a	wordpools/wordpool_categorized_EN.txt	MOSQUITO	Insects	3	7	[0, 0, 0]	n/a	catFR1	2	R1541T
759.746	0.817	775270	WORD_OFF	n/a	n/a	MOSQUITO	Insects	3	7	[0, 0, 0]	n/a	catFR1	2	R1541T
760.563	1.616	776089	WORD	n/a	wordpools/wordpool_categorized_EN.txt	ANT	Insects	4	7	[0, 0, 0]	n/a	catFR1	2	R1541T
762.179	0.883	777700	WORD_OFF	n/a	n/a	ANT	Insects	4	7	[0, 0, 0]	n/a	catFR1	2	R1541T
763.062	1.6	778583	WORD	n/a	wordpools/wordpool_categorized_EN.txt	STREAM	Landscapes	5	7	[0, 0, 0]	n/a	catFR1	2	R1541T
764.662	0.85	780184	WORD_OFF	n/a	n/a	STREAM	Landscapes	5	7	[0, 0, 0]	n/a	catFR1	2	R1541T
765.512	1.6	781031	WORD	n/a	wordpools/wordpool_categorized_EN.txt	OCEAN	Landscapes	6	7	[0, 0, 0]	n/a	catFR1	2	R1541T
767.112	0.818	782632	WORD_OFF	n/a	n/a	OCEAN	Landscapes	6	7	[0, 0, 0]	n/a	catFR1	2	R1541T
767.93	1.616	783452	WORD	n/a	wordpools/wordpool_categorized_EN.txt	SPIDER	Insects	7	7	[0, 0, 0]	n/a	catFR1	2	R1541T
769.546	1.0	785071	WORD_OFF	n/a	n/a	SPIDER	Insects	7	7	[0, 0, 0]	n/a	catFR1	2	R1541T
770.546	1.616	786063	WORD	n/a	wordpools/wordpool_categorized_EN.txt	GNAT	Insects	8	7	[0, 0, 0]	n/a	catFR1	2	R1541T
772.162	0.867	787683	WORD_OFF	n/a	n/a	GNAT	Insects	8	7	[0, 0, 0]	n/a	catFR1	2	R1541T
773.029	1.6	788548	WORD	n/a	wordpools/wordpool_categorized_EN.txt	HILLS	Landscapes	9	7	[0, 0, 0]	n/a	catFR1	2	R1541T
774.629	0.767	790150	WORD_OFF	n/a	n/a	HILLS	Landscapes	9	7	[0, 0, 0]	n/a	catFR1	2	R1541T
775.396	1.599	790914	WORD	n/a	wordpools/wordpool_categorized_EN.txt	VALLEY	Landscapes	10	7	[0, 0, 0]	n/a	catFR1	2	R1541T
776.995	0.935	792516	WORD_OFF	n/a	n/a	VALLEY	Landscapes	10	7	[0, 0, 0]	n/a	catFR1	2	R1541T
777.93	1.599	793453	WORD	n/a	wordpools/wordpool_categorized_EN.txt	SQUID	OceanAnimals	11	7	[0, 0, 0]	n/a	catFR1	2	R1541T
779.529	0.766	795046	WORD_OFF	n/a	n/a	SQUID	OceanAnimals	11	7	[0, 0, 0]	n/a	catFR1	2	R1541T
780.295	1.601	795820	WORD	n/a	wordpools/wordpool_categorized_EN.txt	TURTLE	OceanAnimals	12	7	[0, 0, 0]	n/a	catFR1	2	R1541T
781.896	0.001	797413	PROB	0.001	n/a	n/a	n/a	-999	7	[4, 6, 7]	17	catFR1	2	R1541T
781.897	0.0	797414	START	n/a	n/a	n/a	n/a	-999	7	[-999, -999, -999]	n/a	catFR1	2	R1541T
781.895	0.002	797421	WORD_OFF	n/a	n/a	TURTLE	OceanAnimals	12	7	[0, 0, 0]	n/a	catFR1	2	R1541T
781.897	0.0	797421	ENCODING_END	n/a	n/a	n/a	n/a	-999	7	[0, 0, 0]	n/a	catFR1	2	R1541T
781.897	3.132	797421	DISTRACT_START	n/a	n/a	n/a	n/a	-999	7	[0, 0, 0]	n/a	catFR1	2	R1541T
785.029	2.667	800546	PROB	2.667	n/a	n/a	n/a	-999	7	[1, 8, 7]	16	catFR1	2	R1541T
787.696	2.5	803213	PROB	2.5	n/a	n/a	n/a	-999	7	[4, 8, 6]	18	catFR1	2	R1541T
790.196	2.115	805713	PROB	2.115	n/a	n/a	n/a	-999	7	[2, 5, 4]	11	catFR1	2	R1541T
792.311	2.65	807828	PROB	2.65	n/a	n/a	n/a	-999	7	[7, 1, 6]	14	catFR1	2	R1541T
794.961	2.817	810478	PROB	2.817	n/a	n/a	n/a	-999	7	[4, 4, 1]	9	catFR1	2	R1541T
797.778	2.35	813294	PROB	2.35	n/a	n/a	n/a	-999	7	[5, 8, 7]	20	catFR1	2	R1541T
800.128	2.733	815644	PROB	2.733	n/a	n/a	n/a	-999	7	[7, 6, 8]	21	catFR1	2	R1541T
802.861	0.0	818377	STOP	n/a	n/a	n/a	n/a	-999	7	[-999, -999, -999]	n/a	catFR1	2	R1541T
802.861	1.833	818381	DISTRACT_END	n/a	n/a	n/a	n/a	-999	7	[0, 0, 0]	n/a	catFR1	2	R1541T
804.694	1.041	820219	REC_START	n/a	n/a	n/a	n/a	-999	7	[0, 0, 0]	n/a	catFR1	2	R1541T
805.735	0.975	821251	REC_WORD	0.975	n/a	WHALE	OceanAnimals	1	7	[0, 0, 0]	n/a	catFR1	2	R1541T
806.71	0.934	822226	REC_WORD	0.934	n/a	SHRIMP	OceanAnimals	2	7	[0, 0, 0]	n/a	catFR1	2	R1541T
807.644	2.723	823160	REC_WORD	2.723	n/a	SQUID	OceanAnimals	11	7	[0, 0, 0]	n/a	catFR1	2	R1541T
810.367	1.086	825883	REC_WORD	1.086	n/a	OCEAN	Landscapes	6	7	[0, 0, 0]	n/a	catFR1	2	R1541T
811.453	0.964	826969	REC_WORD	0.964	n/a	STREAM	Landscapes	5	7	[0, 0, 0]	n/a	catFR1	2	R1541T
812.417	0.935	827933	REC_WORD	0.935	n/a	VALLEY	Landscapes	10	7	[0, 0, 0]	n/a	catFR1	2	R1541T
813.352	5.109	828868	REC_WORD	5.109	n/a	HILLS	Landscapes	9	7	[0, 0, 0]	n/a	catFR1	2	R1541T
818.461	7.012	833977	REC_WORD	7.012	n/a	RIVER	n/a	-999	7	[0, 0, 0]	n/a	catFR1	2	R1541T
825.473	9.458	840989	REC_WORD	9.458	n/a	TURTLE	OceanAnimals	12	7	[0, 0, 0]	n/a	catFR1	2	R1541T
834.931	1.863	850452	REC_END	n/a	n/a	n/a	n/a	-999	7	[0, 0, 0]	n/a	catFR1	2	R1541T
836.794	10.35	852318	COUNTDOWN_START	n/a	n/a	n/a	n/a	-999	7	[0, 0, 0]	n/a	catFR1	2	R1541T
847.144	0.0	862666	COUNTDOWN_END	n/a	n/a	n/a	n/a	-999	7	[0, 0, 0]	n/a	catFR1	2	R1541T
847.144	2.332	862666	ENCODING_START	n/a	n/a	n/a	n/a	-999	8	[0, 0, 0]	n/a	catFR1	2	R1541T
849.476	1.601	864996	WORD	n/a	wordpools/wordpool_categorized_EN.txt	STEREO	Electronics	1	8	[0, 0, 0]	n/a	catFR1	2	R1541T
851.077	0.816	866597	WORD_OFF	n/a	n/a	STEREO	Electronics	1	8	[0, 0, 0]	n/a	catFR1	2	R1541T
851.893	1.601	867417	WORD	n/a	wordpools/wordpool_categorized_EN.txt	COMPUTER	Electronics	2	8	[0, 0, 0]	n/a	catFR1	2	R1541T
853.494	0.932	869010	WORD_OFF	n/a	n/a	COMPUTER	Electronics	2	8	[0, 0, 0]	n/a	catFR1	2	R1541T
854.426	1.6	869947	WORD	n/a	wordpools/wordpool_categorized_EN.txt	CLOUD	Weather	3	8	[0, 0, 0]	n/a	catFR1	2	R1541T
856.026	0.833	871548	WORD_OFF	n/a	n/a	CLOUD	Weather	3	8	[0, 0, 0]	n/a	catFR1	2	R1541T
856.859	1.601	872377	WORD	n/a	wordpools/wordpool_categorized_EN.txt	TORNADO	Weather	4	8	[0, 0, 0]	n/a	catFR1	2	R1541T
858.46	0.817	873978	WORD_OFF	n/a	n/a	TORNADO	Weather	4	8	[0, 0, 0]	n/a	catFR1	2	R1541T
859.277	1.6	874797	WORD	n/a	wordpools/wordpool_categorized_EN.txt	ISLAND	Landscapes	5	8	[0, 0, 0]	n/a	catFR1	2	R1541T
860.877	0.8	876399	WORD_OFF	n/a	n/a	ISLAND	Landscapes	5	8	[0, 0, 0]	n/a	catFR1	2	R1541T
861.677	1.6	877200	WORD	n/a	wordpools/wordpool_categorized_EN.txt	BEACH	Landscapes	6	8	[0, 0, 0]	n/a	catFR1	2	R1541T
863.277	0.983	878793	WORD_OFF	n/a	n/a	BEACH	Landscapes	6	8	[0, 0, 0]	n/a	catFR1	2	R1541T
864.26	1.616	879776	WORD	n/a	wordpools/wordpool_categorized_EN.txt	RADIO	Electronics	7	8	[0, 0, 0]	n/a	catFR1	2	R1541T
865.876	0.967	881396	WORD_OFF	n/a	n/a	RADIO	Electronics	7	8	[0, 0, 0]	n/a	catFR1	2	R1541T
866.843	1.617	882360	WORD	n/a	wordpools/wordpool_categorized_EN.txt	TABLET	Electronics	8	8	[0, 0, 0]	n/a	catFR1	2	R1541T
868.46	0.983	883980	WORD_OFF	n/a	n/a	TABLET	Electronics	8	8	[0, 0, 0]	n/a	catFR1	2	R1541T
869.443	1.6	884963	WORD	n/a	wordpools/wordpool_categorized_EN.txt	THUNDERSTORM	Weather	9	8	[0, 0, 0]	n/a	catFR1	2	R1541T
871.043	1.0	886565	WORD_OFF	n/a	n/a	THUNDERSTORM	Weather	9	8	[0, 0, 0]	n/a	catFR1	2	R1541T
872.043	1.601	887566	WORD	n/a	wordpools/wordpool_categorized_EN.txt	RAIN	Weather	10	8	[0, 0, 0]	n/a	catFR1	2	R1541T
873.644	0.849	889159	WORD_OFF	n/a	n/a	RAIN	Weather	10	8	[0, 0, 0]	n/a	catFR1	2	R1541T
874.493	1.617	890023	WORD	n/a	wordpools/wordpool_categorized_EN.txt	RIVER	Landscapes	11	8	[0, 0, 0]	n/a	catFR1	2	R1541T
876.11	1.0	891625	WORD_OFF	n/a	n/a	RIVER	Landscapes	11	8	[0, 0, 0]	n/a	catFR1	2	R1541T
877.11	1.616	892626	WORD	n/a	wordpools/wordpool_categorized_EN.txt	FOREST	Landscapes	12	8	[0, 0, 0]	n/a	catFR1	2	R1541T
878.726	0.004	894240	PROB	0.004	n/a	n/a	n/a	-999	8	[2, 3, 2]	7	catFR1	2	R1541T
878.73	0.0	894244	START	n/a	n/a	n/a	n/a	-999	8	[-999, -999, -999]	n/a	catFR1	2	R1541T
878.726	0.004	894246	WORD_OFF	n/a	n/a	FOREST	Landscapes	12	8	[0, 0, 0]	n/a	catFR1	2	R1541T
878.73	0.0	894246	ENCODING_END	n/a	n/a	n/a	n/a	-999	8	[0, 0, 0]	n/a	catFR1	2	R1541T
878.73	2.514	894246	DISTRACT_START	n/a	n/a	n/a	n/a	-999	8	[0, 0, 0]	n/a	catFR1	2	R1541T
881.244	2.382	896758	PROB	2.382	n/a	n/a	n/a	-999	8	[2, 3, 7]	12	catFR1	2	R1541T
883.626	2.484	899140	PROB	2.484	n/a	n/a	n/a	-999	8	[3, 7, 7]	17	catFR1	2	R1541T
886.11	2.566	901624	PROB	2.566	n/a	n/a	n/a	-999	8	[1, 1, 4]	6	catFR1	2	R1541T
888.676	2.7	904190	PROB	2.7	n/a	n/a	n/a	-999	8	[2, 5, 7]	14	catFR1	2	R1541T
891.376	4.867	906890	PROB	4.867	n/a	n/a	n/a	-999	8	[4, 8, 3]	15	catFR1	2	R1541T
896.243	2.033	911757	PROB	2.033	n/a	n/a	n/a	-999	8	[1, 2, 8]	11	catFR1	2	R1541T
898.276	2.3	913790	PROB	2.3	n/a	n/a	n/a	-999	8	[5, 5, 4]	14	catFR1	2	R1541T
900.576	0.0	916090	STOP	n/a	n/a	n/a	n/a	-999	8	[-999, -999, -999]	n/a	catFR1	2	R1541T
900.576	1.566	916097	DISTRACT_END	n/a	n/a	n/a	n/a	-999	8	[0, 0, 0]	n/a	catFR1	2	R1541T
902.142	2.386	917663	REC_START	n/a	n/a	n/a	n/a	-999	8	[0, 0, 0]	n/a	catFR1	2	R1541T
904.528	1.399	920042	REC_WORD	1.399	n/a	TORNADO	Weather	4	8	[0, 0, 0]	n/a	catFR1	2	R1541T
905.927	1.895	921440	REC_WORD	1.895	n/a	STORM	n/a	-999	8	[0, 0, 0]	n/a	catFR1	2	R1541T
907.822	2.798	923335	REC_WORD	2.798	n/a	BEACH	Landscapes	6	8	[0, 0, 0]	n/a	catFR1	2	R1541T
910.62	8.222	926133	REC_WORD	8.222	n/a	THUNDERSTORM	Weather	9	8	[0, 0, 0]	n/a	catFR1	2	R1541T
918.842	13.53	934355	REC_WORD	13.53	n/a	RULER	OfficeSupplies	-999	8	[0, 0, 0]	n/a	catFR1	2	R1541T
932.372	2.635	947887	REC_END	n/a	n/a	n/a	n/a	-999	8	[0, 0, 0]	n/a	catFR1	2	R1541T
935.007	10.352	950526	COUNTDOWN_START	n/a	n/a	n/a	n/a	-999	8	[0, 0, 0]	n/a	catFR1	2	R1541T
945.359	0.0	960874	COUNTDOWN_END	n/a	n/a	n/a	n/a	-999	8	[0, 0, 0]	n/a	catFR1	2	R1541T
945.359	2.249	960874	ENCODING_START	n/a	n/a	n/a	n/a	-999	9	[0, 0, 0]	n/a	catFR1	2	R1541T
947.608	1.617	963122	WORD	n/a	wordpools/wordpool_categorized_EN.txt	NIGHTSTAND	Furniture	1	9	[0, 0, 0]	n/a	catFR1	2	R1541T
949.225	0.882	964742	WORD_OFF	n/a	n/a	NIGHTSTAND	Furniture	1	9	[0, 0, 0]	n/a	catFR1	2	R1541T
950.107	1.6	965624	WORD	n/a	wordpools/wordpool_categorized_EN.txt	BOOKCASE	Furniture	2	9	[0, 0, 0]	n/a	catFR1	2	R1541T
951.707	0.968	967226	WORD_OFF	n/a	n/a	BOOKCASE	Furniture	2	9	[0, 0, 0]	n/a	catFR1	2	R1541T
952.675	1.616	968191	WORD	n/a	wordpools/wordpool_categorized_EN.txt	BALL	Toys	3	9	[0, 0, 0]	n/a	catFR1	2	R1541T
954.291	0.817	969811	WORD_OFF	n/a	n/a	BALL	Toys	3	9	[0, 0, 0]	n/a	catFR1	2	R1541T
955.108	1.616	970621	WORD	n/a	wordpools/wordpool_categorized_EN.txt	SLINKY	Toys	4	9	[0, 0, 0]	n/a	catFR1	2	R1541T
956.724	0.917	972241	WORD_OFF	n/a	n/a	SLINKY	Toys	4	9	[0, 0, 0]	n/a	catFR1	2	R1541T
957.641	1.617	973160	WORD	n/a	wordpools/wordpool_categorized_EN.txt	HEN	FarmAnimals	5	9	[0, 0, 0]	n/a	catFR1	2	R1541T
959.258	0.85	974771	WORD_OFF	n/a	n/a	HEN	FarmAnimals	5	9	[0, 0, 0]	n/a	catFR1	2	R1541T
960.108	1.6	975626	WORD	n/a	wordpools/wordpool_categorized_EN.txt	CHICKEN	FarmAnimals	6	9	[0, 0, 0]	n/a	catFR1	2	R1541T
961.708	0.85	977228	WORD_OFF	n/a	n/a	CHICKEN	FarmAnimals	6	9	[0, 0, 0]	n/a	catFR1	2	R1541T
962.558	1.6	978075	WORD	n/a	wordpools/wordpool_categorized_EN.txt	FOOTBALL	Toys	7	9	[0, 0, 0]	n/a	catFR1	2	R1541T
964.158	0.966	979676	WORD_OFF	n/a	n/a	FOOTBALL	Toys	7	9	[0, 0, 0]	n/a	catFR1	2	R1541T
965.124	1.617	980641	WORD	n/a	wordpools/wordpool_categorized_EN.txt	BARBIE	Toys	8	9	[0, 0, 0]	n/a	catFR1	2	R1541T
966.741	0.883	982261	WORD_OFF	n/a	n/a	BARBIE	Toys	8	9	[0, 0, 0]	n/a	catFR1	2	R1541T
967.624	1.6	983144	WORD	n/a	wordpools/wordpool_categorized_EN.txt	SHEEP	FarmAnimals	9	9	[0, 0, 0]	n/a	catFR1	2	R1541T
969.224	0.849	984745	WORD_OFF	n/a	n/a	SHEEP	FarmAnimals	9	9	[0, 0, 0]	n/a	catFR1	2	R1541T
970.073	1.601	985592	WORD	n/a	wordpools/wordpool_categorized_EN.txt	BULL	FarmAnimals	10	9	[0, 0, 0]	n/a	catFR1	2	R1541T
971.674	1.0	987194	WORD_OFF	n/a	n/a	BULL	FarmAnimals	10	9	[0, 0, 0]	n/a	catFR1	2	R1541T
972.674	1.6	988193	WORD	n/a	wordpools/wordpool_categorized_EN.txt	CHAIR	Furniture	11	9	[0, 0, 0]	n/a	catFR1	2	R1541T
974.274	0.883	989787	WORD_OFF	n/a	n/a	CHAIR	Furniture	11	9	[0, 0, 0]	n/a	catFR1	2	R1541T
975.157	1.617	990670	WORD	n/a	wordpools/wordpool_categorized_EN.txt	BED	Furniture	12	9	[0, 0, 0]	n/a	catFR1	2	R1541T
976.774	0.002	992286	PROB	0.002	n/a	n/a	n/a	-999	9	[5, 3, 4]	12	catFR1	2	R1541T
976.776	0.0	992288	START	n/a	n/a	n/a	n/a	-999	9	[-999, -999, -999]	n/a	catFR1	2	R1541T
976.773	0.003	992290	WORD_OFF	n/a	n/a	BED	Furniture	12	9	[0, 0, 0]	n/a	catFR1	2	R1541T
976.776	0.0	992290	ENCODING_END	n/a	n/a	n/a	n/a	-999	9	[0, 0, 0]	n/a	catFR1	2	R1541T
976.776	3.714	992291	DISTRACT_START	n/a	n/a	n/a	n/a	-999	9	[0, 0, 0]	n/a	catFR1	2	R1541T
980.49	2.7	996001	PROB	2.7	n/a	n/a	n/a	-999	9	[2, 6, 5]	13	catFR1	2	R1541T
983.19	2.917	998701	PROB	2.917	n/a	n/a	n/a	-999	9	[8, 8, 3]	19	catFR1	2	R1541T
986.107	2.034	1001618	PROB	2.034	n/a	n/a	n/a	-999	9	[6, 1, 4]	11	catFR1	2	R1541T
988.141	2.267	1003652	PROB	2.267	n/a	n/a	n/a	-999	9	[6, 8, 4]	18	catFR1	2	R1541T
990.408	2.25	1005919	PROB	2.25	n/a	n/a	n/a	-999	9	[1, 3, 6]	10	catFR1	2	R1541T
992.658	2.1	1008169	PROB	2.1	n/a	n/a	n/a	-999	9	[5, 3, 3]	11	catFR1	2	R1541T
994.758	2.416	1010269	PROB	2.416	n/a	n/a	n/a	-999	9	[7, 7, 2]	16	catFR1	2	R1541T
997.174	0.0	1012685	DISTRACT_END	n/a	n/a	n/a	n/a	-999	9	[0, 0, 0]	n/a	catFR1	2	R1541T
997.174	1.583	1012685	STOP	n/a	n/a	n/a	n/a	-999	9	[-999, -999, -999]	n/a	catFR1	2	R1541T
998.757	1.115	1014269	REC_START	n/a	n/a	n/a	n/a	-999	9	[0, 0, 0]	n/a	catFR1	2	R1541T
999.872	1.138	1015383	REC_WORD	1.138	n/a	DESK	n/a	-999	9	[0, 0, 0]	n/a	catFR1	2	R1541T
1001.01	9.222	1016521	REC_WORD	9.222	n/a	BOOKCASE	Furniture	2	9	[0, 0, 0]	n/a	catFR1	2	R1541T
1010.232	18.741	1025743	REC_WORD	18.741	n/a	PEN	OfficeSupplies	-999	9	[0, 0, 0]	n/a	catFR1	2	R1541T
1028.973	1.566	1044484	REC_END	n/a	n/a	n/a	n/a	-999	9	[0, 0, 0]	n/a	catFR1	2	R1541T
1030.539	10.349	1046058	COUNTDOWN_START	n/a	n/a	n/a	n/a	-999	9	[0, 0, 0]	n/a	catFR1	2	R1541T
1040.888	0.001	1056406	COUNTDOWN_END	n/a	n/a	n/a	n/a	-999	9	[0, 0, 0]	n/a	catFR1	2	R1541T
1040.889	1.916	1056406	ENCODING_START	n/a	n/a	n/a	n/a	-999	10	[0, 0, 0]	n/a	catFR1	2	R1541T
1042.805	1.601	1058317	WORD	n/a	wordpools/wordpool_categorized_EN.txt	EAR	BodyParts	1	10	[0, 0, 0]	n/a	catFR1	2	R1541T
1044.406	0.816	1059919	WORD_OFF	n/a	n/a	EAR	BodyParts	1	10	[0, 0, 0]	n/a	catFR1	2	R1541T
1045.222	1.617	1060738	WORD	n/a	wordpools/wordpool_categorized_EN.txt	EYE	BodyParts	2	10	[0, 0, 0]	n/a	catFR1	2	R1541T
1046.839	0.983	1062349	WORD_OFF	n/a	n/a	EYE	BodyParts	2	10	[0, 0, 0]	n/a	catFR1	2	R1541T
1047.822	1.616	1063332	WORD	n/a	wordpools/wordpool_categorized_EN.txt	HUMIDITY	Weather	3	10	[0, 0, 0]	n/a	catFR1	2	R1541T
1049.438	0.851	1064961	WORD_OFF	n/a	n/a	HUMIDITY	Weather	3	10	[0, 0, 0]	n/a	catFR1	2	R1541T
1050.289	1.6	1065807	WORD	n/a	wordpools/wordpool_categorized_EN.txt	DRIZZLE	Weather	4	10	[0, 0, 0]	n/a	catFR1	2	R1541T
1051.889	0.95	1067400	WORD_OFF	n/a	n/a	DRIZZLE	Weather	4	10	[0, 0, 0]	n/a	catFR1	2	R1541T
1052.839	1.617	1068356	WORD	n/a	wordpools/wordpool_categorized_EN.txt	SANDER	Tools	5	10	[0, 0, 0]	n/a	catFR1	2	R1541T
1054.456	0.783	1069966	WORD_OFF	n/a	n/a	SANDER	Tools	5	10	[0, 0, 0]	n/a	catFR1	2	R1541T
1055.239	1.6	1070749	WORD	n/a	wordpools/wordpool_categorized_EN.txt	PLIERS	Tools	6	10	[0, 0, 0]	n/a	catFR1	2	R1541T
1056.839	0.95	1072351	WORD_OFF	n/a	n/a	PLIERS	Tools	6	10	[0, 0, 0]	n/a	catFR1	2	R1541T
1057.789	1.6	1073306	WORD	n/a	wordpools/wordpool_categorized_EN.txt	FOG	Weather	7	10	[0, 0, 0]	n/a	catFR1	2	R1541T
1059.389	0.85	1074899	WORD_OFF	n/a	n/a	FOG	Weather	7	10	[0, 0, 0]	n/a	catFR1	2	R1541T
1060.239	1.616	1075755	WORD	n/a	wordpools/wordpool_categorized_EN.txt	SNOW	Weather	8	10	[0, 0, 0]	n/a	catFR1	2	R1541T
1061.855	0.917	1077365	WORD_OFF	n/a	n/a	SNOW	Weather	8	10	[0, 0, 0]	n/a	catFR1	2	R1541T
1062.772	1.617	1078285	WORD	n/a	wordpools/wordpool_categorized_EN.txt	ARM	BodyParts	9	10	[0, 0, 0]	n/a	catFR1	2	R1541T
1064.389	0.799	1079905	WORD_OFF	n/a	n/a	ARM	BodyParts	9	10	[0, 0, 0]	n/a	catFR1	2	R1541T
1065.188	1.601	1080706	WORD	n/a	wordpools/wordpool_categorized_EN.txt	NOSE	BodyParts	10	10	[0, 0, 0]	n/a	catFR1	2	R1541T
1066.789	0.798	1082298	WORD_OFF	n/a	n/a	NOSE	BodyParts	10	10	[0, 0, 0]	n/a	catFR1	2	R1541T
1067.587	1.601	1083099	WORD	n/a	wordpools/wordpool_categorized_EN.txt	CROWBAR	Tools	11	10	[0, 0, 0]	n/a	catFR1	2	R1541T
1069.188	0.784	1084701	WORD_OFF	n/a	n/a	CROWBAR	Tools	11	10	[0, 0, 0]	n/a	catFR1	2	R1541T
1069.972	1.616	1085483	WORD	n/a	wordpools/wordpool_categorized_EN.txt	HAMMER	Tools	12	10	[0, 0, 0]	n/a	catFR1	2	R1541T
1071.588	0.001	1087097	PROB	0.001	n/a	n/a	n/a	-999	10	[4, 5, 1]	10	catFR1	2	R1541T
1071.589	0.0	1087098	START	n/a	n/a	n/a	n/a	-999	10	[-999, -999, -999]	n/a	catFR1	2	R1541T
1071.587	0.002	1087103	WORD_OFF	n/a	n/a	HAMMER	Tools	12	10	[0, 0, 0]	n/a	catFR1	2	R1541T
1071.589	0.0	1087103	ENCODING_END	n/a	n/a	n/a	n/a	-999	10	[0, 0, 0]	n/a	catFR1	2	R1541T
1071.589	3.149	1087103	DISTRACT_START	n/a	n/a	n/a	n/a	-999	10	[0, 0, 0]	n/a	catFR1	2	R1541T
1074.738	2.317	1090247	PROB	2.317	n/a	n/a	n/a	-999	10	[3, 3, 3]	9	catFR1	2	R1541T
1077.055	2.933	1092564	PROB	2.933	n/a	n/a	n/a	-999	10	[7, 7, 8]	22	catFR1	2	R1541T
1079.988	1.917	1095497	PROB	1.917	n/a	n/a	n/a	-999	10	[2, 2, 1]	5	catFR1	2	R1541T
1081.905	2.401	1097414	PROB	2.401	n/a	n/a	n/a	-999	10	[1, 3, 5]	9	catFR1	2	R1541T
1084.306	2.633	1099815	PROB	2.633	n/a	n/a	n/a	-999	10	[7, 6, 2]	15	catFR1	2	R1541T
1086.939	2.733	1102448	PROB	2.733	n/a	n/a	n/a	-999	10	[2, 5, 8]	15	catFR1	2	R1541T
1089.672	2.582	1105180	PROB	2.582	n/a	n/a	n/a	-999	10	[5, 2, 5]	12	catFR1	2	R1541T
1092.254	0.0	1107762	STOP	n/a	n/a	n/a	n/a	-999	10	[-999, -999, -999]	n/a	catFR1	2	R1541T
1092.254	1.6	1107763	DISTRACT_END	n/a	n/a	n/a	n/a	-999	10	[0, 0, 0]	n/a	catFR1	2	R1541T
1093.854	0.628	1109364	REC_START	n/a	n/a	n/a	n/a	-999	10	[0, 0, 0]	n/a	catFR1	2	R1541T
1094.482	0.904	1109990	REC_WORD	0.904	n/a	CROWBAR	Tools	11	10	[0, 0, 0]	n/a	catFR1	2	R1541T
1095.386	4.112	1110894	REC_WORD	4.112	n/a	SANDER	Tools	5	10	[0, 0, 0]	n/a	catFR1	2	R1541T
1099.498	1.685	1115006	REC_WORD	1.685	n/a	HUMIDITY	Weather	3	10	[0, 0, 0]	n/a	catFR1	2	R1541T
1101.183	4.25	1116691	REC_WORD	4.25	n/a	DRIZZLE	Weather	4	10	[0, 0, 0]	n/a	catFR1	2	R1541T
1105.433	1.139	1120941	REC_WORD	1.139	n/a	RAIN	Weather	-999	10	[0, 0, 0]	n/a	catFR1	2	R1541T
1106.572	1.627	1122080	REC_WORD	1.627	n/a	EYE	BodyParts	2	10	[0, 0, 0]	n/a	catFR1	2	R1541T
1108.199	0.874	1123707	REC_WORD	0.874	n/a	NOSE	BodyParts	10	10	[0, 0, 0]	n/a	catFR1	2	R1541T
1109.073	15.012	1124581	REC_WORD	15.012	n/a	EAR	BodyParts	1	10	[0, 0, 0]	n/a	catFR1	2	R1541T
1124.085	1.518	1139598	REC_END	n/a	n/a	n/a	n/a	-999	10	[0, 0, 0]	n/a	catFR1	2	R1541T
1125.603	10.35	1141117	COUNTDOWN_START	n/a	n/a	n/a	n/a	-999	10	[0, 0, 0]	n/a	catFR1	2	R1541T
1135.953	0.0	1151465	COUNTDOWN_END	n/a	n/a	n/a	n/a	-999	10	[0, 0, 0]	n/a	catFR1	2	R1541T
1135.953	2.301	1151465	ENCODING_START	n/a	n/a	n/a	n/a	-999	11	[0, 0, 0]	n/a	catFR1	2	R1541T
1138.254	1.6	1153768	WORD	n/a	wordpools/wordpool_categorized_EN.txt	JEEP	Vehicles	1	11	[0, 0, 0]	n/a	catFR1	2	R1541T
1139.854	0.966	1155369	WORD_OFF	n/a	n/a	JEEP	Vehicles	1	11	[0, 0, 0]	n/a	catFR1	2	R1541T
1140.82	1.6	1156334	WORD	n/a	wordpools/wordpool_categorized_EN.txt	BOAT	Vehicles	2	11	[0, 0, 0]	n/a	catFR1	2	R1541T
1142.42	0.967	1157927	WORD_OFF	n/a	n/a	BOAT	Vehicles	2	11	[0, 0, 0]	n/a	catFR1	2	R1541T
1143.387	1.616	1158901	WORD	n/a	wordpools/wordpool_categorized_EN.txt	HAND	BodyParts	3	11	[0, 0, 0]	n/a	catFR1	2	R1541T
1145.003	0.767	1160511	WORD_OFF	n/a	n/a	HAND	BodyParts	3	11	[0, 0, 0]	n/a	catFR1	2	R1541T
1145.77	1.617	1161285	WORD	n/a	wordpools/wordpool_categorized_EN.txt	KNEE	BodyParts	4	11	[0, 0, 0]	n/a	catFR1	2	R1541T
1147.387	0.849	1162896	WORD_OFF	n/a	n/a	KNEE	BodyParts	4	11	[0, 0, 0]	n/a	catFR1	2	R1541T
1148.236	1.601	1163751	WORD	n/a	wordpools/wordpool_categorized_EN.txt	RATCHET	Tools	5	11	[0, 0, 0]	n/a	catFR1	2	R1541T
1149.837	0.916	1165344	WORD_OFF	n/a	n/a	RATCHET	Tools	5	11	[0, 0, 0]	n/a	catFR1	2	R1541T
1150.753	1.616	1166263	WORD	n/a	wordpools/wordpool_categorized_EN.txt	LEVEL	Tools	6	11	[0, 0, 0]	n/a	catFR1	2	R1541T
1152.369	0.983	1167883	WORD_OFF	n/a	n/a	LEVEL	Tools	6	11	[0, 0, 0]	n/a	catFR1	2	R1541T
1153.352	1.601	1168866	WORD	n/a	wordpools/wordpool_categorized_EN.txt	BUS	Vehicles	7	11	[0, 0, 0]	n/a	catFR1	2	R1541T
1154.953	0.932	1170468	WORD_OFF	n/a	n/a	BUS	Vehicles	7	11	[0, 0, 0]	n/a	catFR1	2	R1541T
1155.885	1.6	1171396	WORD	n/a	wordpools/wordpool_categorized_EN.txt	TRUCK	Vehicles	8	11	[0, 0, 0]	n/a	catFR1	2	R1541T
1157.485	0.851	1172998	WORD_OFF	n/a	n/a	TRUCK	Vehicles	8	11	[0, 0, 0]	n/a	catFR1	2	R1541T
1158.336	1.616	1173844	WORD	n/a	wordpools/wordpool_categorized_EN.txt	FINGERS	BodyParts	9	11	[0, 0, 0]	n/a	catFR1	2	R1541T
1159.952	0.917	1175464	WORD_OFF	n/a	n/a	FINGERS	BodyParts	9	11	[0, 0, 0]	n/a	catFR1	2	R1541T
1160.869	1.6	1176383	WORD	n/a	wordpools/wordpool_categorized_EN.txt	TOE	BodyParts	10	11	[0, 0, 0]	n/a	catFR1	2	R1541T
1162.469	0.867	1177976	WORD_OFF	n/a	n/a	TOE	BodyParts	10	11	[0, 0, 0]	n/a	catFR1	2	R1541T
1163.336	1.616	1178850	WORD	n/a	wordpools/wordpool_categorized_EN.txt	WRENCH	Tools	11	11	[0, 0, 0]	n/a	catFR1	2	R1541T
1164.952	0.999	1180461	WORD_OFF	n/a	n/a	WRENCH	Tools	11	11	[0, 0, 0]	n/a	catFR1	2	R1541T
1165.951	1.602	1181462	WORD	n/a	wordpools/wordpool_categorized_EN.txt	SCREWDRIVER	Tools	12	11	[0, 0, 0]	n/a	catFR1	2	R1541T
1167.553	0.003	1183059	PROB	0.003	n/a	n/a	n/a	-999	11	[3, 1, 2]	6	catFR1	2	R1541T
1167.556	0.0	1183062	START	n/a	n/a	n/a	n/a	-999	11	[-999, -999, -999]	n/a	catFR1	2	R1541T
1167.553	0.003	1183063	WORD_OFF	n/a	n/a	SCREWDRIVER	Tools	12	11	[0, 0, 0]	n/a	catFR1	2	R1541T
1167.556	0.0	1183063	ENCODING_END	n/a	n/a	n/a	n/a	-999	11	[0, 0, 0]	n/a	catFR1	2	R1541T
1167.556	3.83	1183073	DISTRACT_START	n/a	n/a	n/a	n/a	-999	11	[0, 0, 0]	n/a	catFR1	2	R1541T
1171.386	2.267	1186892	PROB	2.267	n/a	n/a	n/a	-999	11	[8, 1, 4]	13	catFR1	2	R1541T
1173.653	2.266	1189159	PROB	2.266	n/a	n/a	n/a	-999	11	[2, 2, 6]	10	catFR1	2	R1541T
1175.919	2.317	1191425	PROB	2.317	n/a	n/a	n/a	-999	11	[8, 3, 8]	19	catFR1	2	R1541T
1178.236	2.483	1193742	PROB	2.483	n/a	n/a	n/a	-999	11	[5, 1, 1]	7	catFR1	2	R1541T
1180.719	2.633	1196225	PROB	2.633	n/a	n/a	n/a	-999	11	[5, 7, 4]	16	catFR1	2	R1541T
1183.352	2.285	1198858	PROB	2.285	n/a	n/a	n/a	-999	11	[4, 2, 3]	9	catFR1	2	R1541T
1185.637	2.415	1201143	PROB	2.415	n/a	n/a	n/a	-999	11	[5, 5, 5]	15	catFR1	2	R1541T
1188.052	0.0	1203558	STOP	n/a	n/a	n/a	n/a	-999	11	[-999, -999, -999]	n/a	catFR1	2	R1541T
1188.052	1.567	1203559	DISTRACT_END	n/a	n/a	n/a	n/a	-999	11	[0, 0, 0]	n/a	catFR1	2	R1541T
1189.619	2.351	1205133	REC_START	n/a	n/a	n/a	n/a	-999	11	[0, 0, 0]	n/a	catFR1	2	R1541T
1191.97	0.905	1207476	REC_WORD	0.905	n/a	WRENCH	Tools	11	11	[0, 0, 0]	n/a	catFR1	2	R1541T
1192.875	0.914	1208381	REC_WORD	0.914	n/a	RATCHET	Tools	5	11	[0, 0, 0]	n/a	catFR1	2	R1541T
1193.789	8.249	1209295	REC_WORD	8.249	n/a	HAMMER	Tools	-999	11	[0, 0, 0]	n/a	catFR1	2	R1541T
1202.038	1.263	1217543	REC_WORD	1.263	n/a	KNEE	BodyParts	4	11	[0, 0, 0]	n/a	catFR1	2	R1541T
1203.301	1.235	1218806	REC_WORD	1.235	n/a	ELBOW	BodyParts	-999	11	[0, 0, 0]	n/a	catFR1	2	R1541T
1204.536	4.029	1220041	REC_WORD	4.029	n/a	ARM	BodyParts	-999	11	[0, 0, 0]	n/a	catFR1	2	R1541T
1208.565	11.287	1224070	REC_WORD	11.287	n/a	FOOT	BodyParts	-999	11	[0, 0, 0]	n/a	catFR1	2	R1541T
1219.852	4.333	1235357	REC_END	n/a	n/a	n/a	n/a	-999	11	[0, 0, 0]	n/a	catFR1	2	R1541T
1224.185	10.348	1239698	COUNTDOWN_START	n/a	n/a	n/a	n/a	-999	11	[0, 0, 0]	n/a	catFR1	2	R1541T
1234.533	0.0	1250046	COUNTDOWN_END	n/a	n/a	n/a	n/a	-999	11	[0, 0, 0]	n/a	catFR1	2	R1541T
1234.533	2.052	1250046	ENCODING_START	n/a	n/a	n/a	n/a	-999	12	[0, 0, 0]	n/a	catFR1	2	R1541T
1236.585	1.616	1252094	WORD	n/a	wordpools/wordpool_categorized_EN.txt	THUNDER	Weather	1	12	[0, 0, 0]	n/a	catFR1	2	R1541T
1238.201	0.799	1253714	WORD_OFF	n/a	n/a	THUNDER	Weather	1	12	[0, 0, 0]	n/a	catFR1	2	R1541T
1239.0	1.6	1254506	WORD	n/a	wordpools/wordpool_categorized_EN.txt	HURRICANE	Weather	2	12	[0, 0, 0]	n/a	catFR1	2	R1541T
1240.6	0.934	1256107	WORD_OFF	n/a	n/a	HURRICANE	Weather	2	12	[0, 0, 0]	n/a	catFR1	2	R1541T
1241.534	1.617	1257045	WORD	n/a	wordpools/wordpool_categorized_EN.txt	FOLDER	OfficeSupplies	3	12	[0, 0, 0]	n/a	catFR1	2	R1541T
1243.151	1.0	1258665	WORD_OFF	n/a	n/a	FOLDER	OfficeSupplies	3	12	[0, 0, 0]	n/a	catFR1	2	R1541T
1244.151	1.6	1259657	WORD	n/a	wordpools/wordpool_categorized_EN.txt	NOTEBOOK	OfficeSupplies	4	12	[0, 0, 0]	n/a	catFR1	2	R1541T
1245.751	0.915	1261258	WORD_OFF	n/a	n/a	NOTEBOOK	OfficeSupplies	4	12	[0, 0, 0]	n/a	catFR1	2	R1541T
1246.666	1.618	1262178	WORD	n/a	wordpools/wordpool_categorized_EN.txt	WALNUT	Trees	5	12	[0, 0, 0]	n/a	catFR1	2	R1541T
1248.284	0.899	1263789	WORD_OFF	n/a	n/a	WALNUT	Trees	5	12	[0, 0, 0]	n/a	catFR1	2	R1541T
1249.183	1.617	1264690	WORD	n/a	wordpools/wordpool_categorized_EN.txt	MAPLE	Trees	6	12	[0, 0, 0]	n/a	catFR1	2	R1541T
1250.8	0.782	1266309	WORD_OFF	n/a	n/a	MAPLE	Trees	6	12	[0, 0, 0]	n/a	catFR1	2	R1541T
1251.582	1.601	1267092	WORD	n/a	wordpools/wordpool_categorized_EN.txt	WIND	Weather	7	12	[0, 0, 0]	n/a	catFR1	2	R1541T
1253.183	0.767	1268694	WORD_OFF	n/a	n/a	WIND	Weather	7	12	[0, 0, 0]	n/a	catFR1	2	R1541T
1253.95	1.601	1269458	WORD	n/a	wordpools/wordpool_categorized_EN.txt	LIGHTNING	Weather	8	12	[0, 0, 0]	n/a	catFR1	2	R1541T
1255.551	0.866	1271060	WORD_OFF	n/a	n/a	LIGHTNING	Weather	8	12	[0, 0, 0]	n/a	catFR1	2	R1541T
1256.417	1.6	1271925	WORD	n/a	wordpools/wordpool_categorized_EN.txt	CYPRESS	Trees	9	12	[0, 0, 0]	n/a	catFR1	2	R1541T
1258.017	0.85	1273527	WORD_OFF	n/a	n/a	CYPRESS	Trees	9	12	[0, 0, 0]	n/a	catFR1	2	R1541T
1258.867	1.616	1274373	WORD	n/a	wordpools/wordpool_categorized_EN.txt	PINE	Trees	10	12	[0, 0, 0]	n/a	catFR1	2	R1541T
1260.483	0.834	1275993	WORD_OFF	n/a	n/a	PINE	Trees	10	12	[0, 0, 0]	n/a	catFR1	2	R1541T
1261.317	1.617	1276830	WORD	n/a	wordpools/wordpool_categorized_EN.txt	ERASER	OfficeSupplies	11	12	[0, 0, 0]	n/a	catFR1	2	R1541T
1262.934	0.933	1278441	WORD_OFF	n/a	n/a	ERASER	OfficeSupplies	11	12	[0, 0, 0]	n/a	catFR1	2	R1541T
1263.867	1.617	1279378	WORD	n/a	wordpools/wordpool_categorized_EN.txt	GLUE	OfficeSupplies	12	12	[0, 0, 0]	n/a	catFR1	2	R1541T
1265.484	0.001	1280989	WORD_OFF	n/a	n/a	GLUE	OfficeSupplies	12	12	[0, 0, 0]	n/a	catFR1	2	R1541T
1265.485	0.002	1280989	PROB	0.002	n/a	n/a	n/a	-999	12	[5, 3, 5]	13	catFR1	2	R1541T
1265.487	0.0	1280991	START	n/a	n/a	n/a	n/a	-999	12	[-999, -999, -999]	n/a	catFR1	2	R1541T
1265.487	0.0	1280998	ENCODING_END	n/a	n/a	n/a	n/a	-999	12	[0, 0, 0]	n/a	catFR1	2	R1541T
1265.487	6.414	1280998	DISTRACT_START	n/a	n/a	n/a	n/a	-999	12	[0, 0, 0]	n/a	catFR1	2	R1541T
1271.901	2.467	1287405	PROB	2.467	n/a	n/a	n/a	-999	12	[8, 3, 5]	16	catFR1	2	R1541T
1274.368	2.216	1289871	PROB	2.216	n/a	n/a	n/a	-999	12	[1, 1, 8]	10	catFR1	2	R1541T
1276.584	2.116	1292087	PROB	2.116	n/a	n/a	n/a	-999	12	[3, 4, 2]	9	catFR1	2	R1541T
1278.7	1.751	1294203	PROB	1.751	n/a	n/a	n/a	-999	12	[2, 1, 1]	5	catFR1	2	R1541T
1280.451	2.532	1295954	PROB	2.532	n/a	n/a	n/a	-999	12	[4, 3, 2]	9	catFR1	2	R1541T
1282.983	2.433	1298486	PROB	2.433	n/a	n/a	n/a	-999	12	[8, 1, 5]	14	catFR1	2	R1541T
1285.416	2.586	1300919	PROB	2.586	n/a	n/a	n/a	-999	12	[5, 3, 5]	13	catFR1	2	R1541T
1288.002	0.0	1303505	STOP	n/a	n/a	n/a	n/a	-999	12	[-999, -999, -999]	n/a	catFR1	2	R1541T
1288.002	1.848	1303514	DISTRACT_END	n/a	n/a	n/a	n/a	-999	12	[0, 0, 0]	n/a	catFR1	2	R1541T
1289.85	1.268	1305353	REC_START	n/a	n/a	n/a	n/a	-999	12	[0, 0, 0]	n/a	catFR1	2	R1541T
1291.118	1.06	1306621	REC_WORD	1.06	n/a	THUNDER	Weather	1	12	[0, 0, 0]	n/a	catFR1	2	R1541T
1292.178	1.614	1307681	REC_WORD	1.614	n/a	HURRICANE	Weather	2	12	[0, 0, 0]	n/a	catFR1	2	R1541T
1293.792	2.045	1309295	REC_WORD	2.045	n/a	WIND	Weather	7	12	[0, 0, 0]	n/a	catFR1	2	R1541T
1295.837	1.532	1311340	REC_WORD	1.532	n/a	LIGHTNING	Weather	8	12	[0, 0, 0]	n/a	catFR1	2	R1541T
1297.369	1.497	1312872	REC_WORD	1.497	n/a	NOTEBOOK	OfficeSupplies	4	12	[0, 0, 0]	n/a	catFR1	2	R1541T
1298.866	6.998	1314369	REC_WORD	6.998	n/a	BINDER	OfficeSupplies	-999	12	[0, 0, 0]	n/a	catFR1	2	R1541T
1305.864	1.0	1321367	REC_WORD	1.0	n/a	CYPRESS	Trees	9	12	[0, 0, 0]	n/a	catFR1	2	R1541T
1306.864	2.281	1322367	REC_WORD_VV	2.281	n/a	<>	n/a	-999	12	[0, 0, 0]	n/a	catFR1	2	R1541T
1309.145	10.136	1324648	REC_WORD	10.136	n/a	WALNUT	Trees	5	12	[0, 0, 0]	n/a	catFR1	2	R1541T
1319.281	0.8	1334783	REC_WORD	0.8	n/a	OAK	Trees	-999	12	[0, 0, 0]	n/a	catFR1	2	R1541T
1320.081	0.0	1335586	REC_END	n/a	n/a	n/a	n/a	-999	12	[0, 0, 0]	n/a	catFR1	2	R1541T
