onset	duration	sample	trial_type	response_time	stim_file	item_name	category	serialpos	list	test	answer	experiment	session	subject
0.0	29.665	-1	SESS_START	n/a	n/a	n/a	n/a	-999	-999	[0, 0, 0]	n/a	catFR1	0	R1094T
29.665	10.428	-1	COUNTDOWN_START	n/a	n/a	n/a	n/a	-999	-999	[0, 0, 0]	n/a	catFR1	0	R1094T
40.093	3.608	-1	COUNTDOWN_END	n/a	n/a	n/a	n/a	-999	-999	[0, 0, 0]	n/a	catFR1	0	R1094T
43.701	2.517	-1	PRACTICE_WORD	n/a	n/a	ATICO	n/a	-999	-999	[0, 0, 0]	n/a	catFR1	0	R1094T
46.218	2.501	-1	PRACTICE_WORD	n/a	n/a	ANILLO	n/a	-999	-999	[0, 0, 0]	n/a	catFR1	0	R1094T
48.719	2.483	-1	PRACTICE_WORD	n/a	n/a	HAZ	n/a	-999	-999	[0, 0, 0]	n/a	catFR1	0	R1094T
51.202	2.602	-1	PRACTICE_WORD	n/a	n/a	HIERRO	n/a	-999	-999	[0, 0, 0]	n/a	catFR1	0	R1094T
53.804	2.599	-1	PRACTICE_WORD	n/a	n/a	CAMELLO	n/a	-999	-999	[0, 0, 0]	n/a	catFR1	0	R1094T
56.403	2.485	-1	PRACTICE_WORD	n/a	n/a	ALGODON	n/a	-999	-999	[0, 0, 0]	n/a	catFR1	0	R1094T
58.888	2.45	926	PRACTICE_WORD	n/a	n/a	RINOCERONTE	n/a	-999	-999	[0, 0, 0]	n/a	catFR1	0	R1094T
61.338	2.384	3376	PRACTICE_WORD	n/a	n/a	VAGON	n/a	-999	-999	[0, 0, 0]	n/a	catFR1	0	R1094T
63.722	2.616	5760	PRACTICE_WORD	n/a	n/a	RELOJ	n/a	-999	-999	[0, 0, 0]	n/a	catFR1	0	R1094T
66.338	2.569	8376	PRACTICE_WORD	n/a	n/a	LENGUA	n/a	-999	-999	[0, 0, 0]	n/a	catFR1	0	R1094T
68.907	2.582	10944	PRACTICE_WORD	n/a	n/a	INUNDACION	n/a	-999	-999	[0, 0, 0]	n/a	catFR1	0	R1094T
71.489	1.617	13526	PRACTICE_WORD	n/a	n/a	PECHO	n/a	-999	-999	[0, 0, 0]	n/a	catFR1	0	R1094T
73.106	0.001	15143	PRACTICE_DISTRACT_START	n/a	n/a	n/a	n/a	-999	-999	[0, 0, 0]	n/a	catFR1	0	R1094T
73.107	0.016	15144	START	n/a	n/a	n/a	n/a	-999	-1	[-999, -999, -999]	n/a	catFR1	0	R1094T
73.123	7.702	15160	PROB	7.676	n/a	n/a	n/a	-999	-1	[9, 4, 8]	21.0	catFR1	0	R1094T
80.825	5.918	22862	PROB	5.887	n/a	n/a	n/a	-999	-1	[4, 9, 1]	14.0	catFR1	0	R1094T
86.743	9.848	28780	PROB	9.848	n/a	n/a	n/a	-999	-1	[5, 8, 9]	23.0	catFR1	0	R1094T
96.591	0.02	38627	STOP	n/a	n/a	n/a	n/a	-999	-1	[-999, -999, -999]	n/a	catFR1	0	R1094T
96.611	0.535	38647	PRACTICE_DISTRACT_END	n/a	n/a	n/a	n/a	-999	-999	[0, 0, 0]	n/a	catFR1	0	R1094T
97.146	30.515	39182	PRACTICE_REC_START	n/a	n/a	n/a	n/a	-999	-999	[0, 0, 0]	n/a	catFR1	0	R1094T
127.661	37.762	69696	PRACTICE_REC_END	n/a	n/a	n/a	n/a	-999	-999	[0, 0, 0]	n/a	catFR1	0	R1094T
165.423	0.0	107456	TRIAL	n/a	n/a	n/a	n/a	-999	1	[0, 0, 0]	n/a	catFR1	0	R1094T
165.423	10.428	107456	COUNTDOWN_START	n/a	n/a	n/a	n/a	-999	1	[0, 0, 0]	n/a	catFR1	0	R1094T
175.851	0.008	117883	COUNTDOWN_END	n/a	n/a	n/a	n/a	-999	1	[0, 0, 0]	n/a	catFR1	0	R1094T
175.859	3.517	117891	ORIENT	n/a	n/a	n/a	n/a	-999	1	[0, 0, 0]	n/a	catFR1	0	R1094T
179.376	2.534	121408	WORD	n/a	wordpools/wordpool_categorized_SP.txt	PARLANTE	Electronics	1	1	[0, 0, 0]	n/a	catFR1	0	R1094T
181.91	2.467	123942	WORD	n/a	wordpools/wordpool_categorized_SP.txt	CALCULADORA	Electronics	2	1	[0, 0, 0]	n/a	catFR1	0	R1094T
184.377	2.401	126409	WORD	n/a	wordpools/wordpool_categorized_SP.txt	PEGAMENTO	OfficeSupplies	3	1	[0, 0, 0]	n/a	catFR1	0	R1094T
186.778	2.416	128810	WORD	n/a	wordpools/wordpool_categorized_SP.txt	BOLIGRAFO	OfficeSupplies	4	1	[0, 0, 0]	n/a	catFR1	0	R1094T
189.194	2.568	131226	WORD	n/a	wordpools/wordpool_categorized_SP.txt	BOSQUE	Landscapes	5	1	[0, 0, 0]	n/a	catFR1	0	R1094T
191.762	2.583	133793	WORD	n/a	wordpools/wordpool_categorized_SP.txt	MAR	Landscapes	6	1	[0, 0, 0]	n/a	catFR1	0	R1094T
194.345	2.485	136376	WORD	n/a	wordpools/wordpool_categorized_SP.txt	COMPUTADOR	Electronics	7	1	[0, 0, 0]	n/a	catFR1	0	R1094T
196.83	2.499	138861	WORD	n/a	wordpools/wordpool_categorized_SP.txt	MICROONDAS	Electronics	8	1	[0, 0, 0]	n/a	catFR1	0	R1094T
199.329	2.518	141360	WORD	n/a	wordpools/wordpool_categorized_SP.txt	MONTANA	Landscapes	9	1	[0, 0, 0]	n/a	catFR1	0	R1094T
201.847	2.5	143878	WORD	n/a	wordpools/wordpool_categorized_SP.txt	RIO	Landscapes	10	1	[0, 0, 0]	n/a	catFR1	0	R1094T
204.347	2.384	146378	WORD	n/a	wordpools/wordpool_categorized_SP.txt	BORRADOR	OfficeSupplies	11	1	[0, 0, 0]	n/a	catFR1	0	R1094T
206.731	1.616	148762	WORD	n/a	wordpools/wordpool_categorized_SP.txt	MARCADOR	OfficeSupplies	12	1	[0, 0, 0]	n/a	catFR1	0	R1094T
208.347	0.001	150378	DISTRACT_START	n/a	n/a	n/a	n/a	-999	1	[0, 0, 0]	n/a	catFR1	0	R1094T
208.348	0.016	150379	START	n/a	n/a	n/a	n/a	-999	1	[-999, -999, -999]	n/a	catFR1	0	R1094T
208.364	5.402	150395	PROB	5.371	n/a	n/a	n/a	-999	1	[1, 4, 4]	9.0	catFR1	0	R1094T
213.766	6.634	155796	PROB	6.601	n/a	n/a	n/a	-999	1	[3, 6, 3]	12.0	catFR1	0	R1094T
220.4	6.368	162430	PROB	6.344	n/a	n/a	n/a	-999	1	[2, 9, 2]	13.0	catFR1	0	R1094T
226.768	8.415	168798	PROB	8.415	n/a	n/a	n/a	-999	1	[6, 7, 9]	22.0	catFR1	0	R1094T
235.183	0.019	177212	STOP	n/a	n/a	n/a	n/a	-999	1	[-999, -999, -999]	n/a	catFR1	0	R1094T
235.202	1.139	177231	DISTRACT_END	n/a	n/a	n/a	n/a	-999	1	[0, 0, 0]	n/a	catFR1	0	R1094T
236.341	1.369	178370	REC_START	n/a	n/a	n/a	n/a	-999	1	[0, 0, 0]	n/a	catFR1	0	R1094T
237.71	2.338	179739	REC_WORD	1.369	n/a	BORRADOR	OfficeSupplies	11	1	[0, 0, 0]	n/a	catFR1	0	R1094T
240.048	3.617	182077	REC_WORD	3.707	n/a	MICROONDAS	Electronics	8	1	[0, 0, 0]	n/a	catFR1	0	R1094T
243.665	7.69	185694	REC_WORD	7.324	n/a	PARLANTE	Electronics	1	1	[0, 0, 0]	n/a	catFR1	0	R1094T
251.355	12.126	193383	REC_WORD	15.014	n/a	MAR	Landscapes	6	1	[0, 0, 0]	n/a	catFR1	0	R1094T
263.481	2.868	205509	REC_WORD	27.14	n/a	BOLIGRAFO	OfficeSupplies	4	1	[0, 0, 0]	n/a	catFR1	0	R1094T
266.349	2.377	208377	REC_END	n/a	n/a	n/a	n/a	-999	1	[0, 0, 0]	n/a	catFR1	0	R1094T
268.726	0.0	210754	TRIAL	n/a	n/a	n/a	n/a	-999	2	[0, 0, 0]	n/a	catFR1	0	R1094T
268.726	10.428	210754	COUNTDOWN_START	n/a	n/a	n/a	n/a	-999	2	[0, 0, 0]	n/a	catFR1	0	R1094T
279.154	0.006	221181	COUNTDOWN_END	n/a	n/a	n/a	n/a	-999	2	[0, 0, 0]	n/a	catFR1	0	R1094T
279.16	3.835	221187	ORIENT	n/a	n/a	n/a	n/a	-999	2	[0, 0, 0]	n/a	catFR1	0	R1094T
282.995	2.416	225022	WORD	n/a	wordpools/wordpool_categorized_SP.txt	PANTALONES	Clothing	1	2	[0, 0, 0]	n/a	catFR1	0	R1094T
285.411	2.385	227438	WORD	n/a	wordpools/wordpool_categorized_SP.txt	CHAQUETA	Clothing	2	2	[0, 0, 0]	n/a	catFR1	0	R1094T
287.796	2.566	229823	WORD	n/a	wordpools/wordpool_categorized_SP.txt	BANO	Building	3	2	[0, 0, 0]	n/a	catFR1	0	R1094T
290.362	2.369	232389	WORD	n/a	wordpools/wordpool_categorized_SP.txt	PASILLO	Building	4	2	[0, 0, 0]	n/a	catFR1	0	R1094T
292.731	2.599	234757	WORD	n/a	wordpools/wordpool_categorized_SP.txt	PLANCTON	OceanAnimals	5	2	[0, 0, 0]	n/a	catFR1	0	R1094T
295.33	2.452	237356	WORD	n/a	wordpools/wordpool_categorized_SP.txt	BALLENA	OceanAnimals	6	2	[0, 0, 0]	n/a	catFR1	0	R1094T
297.782	2.599	239808	WORD	n/a	wordpools/wordpool_categorized_SP.txt	SHORT	Clothing	7	2	[0, 0, 0]	n/a	catFR1	0	R1094T
300.381	2.401	242407	WORD	n/a	wordpools/wordpool_categorized_SP.txt	JEANS	Clothing	8	2	[0, 0, 0]	n/a	catFR1	0	R1094T
302.782	2.567	244808	WORD	n/a	wordpools/wordpool_categorized_SP.txt	PULPO	OceanAnimals	9	2	[0, 0, 0]	n/a	catFR1	0	R1094T
305.349	2.384	247375	WORD	n/a	wordpools/wordpool_categorized_SP.txt	CALAMAR	OceanAnimals	10	2	[0, 0, 0]	n/a	catFR1	0	R1094T
307.733	2.6	249759	WORD	n/a	wordpools/wordpool_categorized_SP.txt	TECHO	Building	11	2	[0, 0, 0]	n/a	catFR1	0	R1094T
310.333	1.618	252359	WORD	n/a	wordpools/wordpool_categorized_SP.txt	ESCALERAS	Building	12	2	[0, 0, 0]	n/a	catFR1	0	R1094T
311.951	0.001	253976	DISTRACT_START	n/a	n/a	n/a	n/a	-999	2	[0, 0, 0]	n/a	catFR1	0	R1094T
311.952	0.015	253977	START	n/a	n/a	n/a	n/a	-999	2	[-999, -999, -999]	n/a	catFR1	0	R1094T
311.967	6.601	253992	PROB	6.576	n/a	n/a	n/a	-999	2	[9, 8, 8]	17.0	catFR1	0	R1094T
318.568	5.435	260593	PROB	5.408	n/a	n/a	n/a	-999	2	[1, 7, 3]	10.0	catFR1	0	R1094T
324.003	7.017	266028	PROB	6.997	n/a	n/a	n/a	-999	2	[3, 7, 5]	15.0	catFR1	0	R1094T
331.02	7.01	273045	PROB	7.01	n/a	n/a	n/a	-999	2	[5, 4, 1]	10.0	catFR1	0	R1094T
338.03	0.008	280054	STOP	n/a	n/a	n/a	n/a	-999	2	[-999, -999, -999]	n/a	catFR1	0	R1094T
338.038	1.034	280062	DISTRACT_END	n/a	n/a	n/a	n/a	-999	2	[0, 0, 0]	n/a	catFR1	0	R1094T
339.072	3.028	281096	REC_START	n/a	n/a	n/a	n/a	-999	2	[0, 0, 0]	n/a	catFR1	0	R1094T
342.1	3.849	284124	REC_WORD	3.028	n/a	CALAMAR	OceanAnimals	10	2	[0, 0, 0]	n/a	catFR1	0	R1094T
345.949	3.807	287973	REC_WORD	6.877	n/a	TECHO	Building	11	2	[0, 0, 0]	n/a	catFR1	0	R1094T
349.756	19.327	291780	REC_WORD	10.684	n/a	PULPO	OceanAnimals	9	2	[0, 0, 0]	n/a	catFR1	0	R1094T
369.083	1.994	311106	REC_END	n/a	n/a	n/a	n/a	-999	2	[0, 0, 0]	n/a	catFR1	0	R1094T
371.077	0.0	313100	TRIAL	n/a	n/a	n/a	n/a	-999	3	[0, 0, 0]	n/a	catFR1	0	R1094T
371.077	10.428	313100	COUNTDOWN_START	n/a	n/a	n/a	n/a	-999	3	[0, 0, 0]	n/a	catFR1	0	R1094T
381.505	0.007	323527	COUNTDOWN_END	n/a	n/a	n/a	n/a	-999	3	[0, 0, 0]	n/a	catFR1	0	R1094T
381.512	3.751	323534	ORIENT	n/a	n/a	n/a	n/a	-999	3	[0, 0, 0]	n/a	catFR1	0	R1094T
385.263	2.568	327285	WORD	n/a	wordpools/wordpool_categorized_SP.txt	LIJADORA	Tools	1	3	[0, 0, 0]	n/a	catFR1	0	R1094T
387.831	2.433	329853	WORD	n/a	wordpools/wordpool_categorized_SP.txt	MARTILLO	Tools	2	3	[0, 0, 0]	n/a	catFR1	0	R1094T
390.264	2.417	332286	WORD	n/a	wordpools/wordpool_categorized_SP.txt	COLA	Beverages	3	3	[0, 0, 0]	n/a	catFR1	0	R1094T
392.681	2.567	334703	WORD	n/a	wordpools/wordpool_categorized_SP.txt	TE	Beverages	4	3	[0, 0, 0]	n/a	catFR1	0	R1094T
395.248	2.417	337269	WORD	n/a	wordpools/wordpool_categorized_SP.txt	BATIDOR	KitchenTools	5	3	[0, 0, 0]	n/a	catFR1	0	R1094T
397.665	2.417	339686	WORD	n/a	wordpools/wordpool_categorized_SP.txt	COLADOR	KitchenTools	6	3	[0, 0, 0]	n/a	catFR1	0	R1094T
400.082	2.384	342103	WORD	n/a	wordpools/wordpool_categorized_SP.txt	VINO	Beverages	7	3	[0, 0, 0]	n/a	catFR1	0	R1094T
402.466	2.402	344487	WORD	n/a	wordpools/wordpool_categorized_SP.txt	LIMONADA	Beverages	8	3	[0, 0, 0]	n/a	catFR1	0	R1094T
404.868	2.432	346889	WORD	n/a	wordpools/wordpool_categorized_SP.txt	ALICATES	Tools	9	3	[0, 0, 0]	n/a	catFR1	0	R1094T
407.3	2.418	349321	WORD	n/a	wordpools/wordpool_categorized_SP.txt	TALADRO	Tools	10	3	[0, 0, 0]	n/a	catFR1	0	R1094T
409.718	2.617	351739	WORD	n/a	wordpools/wordpool_categorized_SP.txt	RALLADOR	KitchenTools	11	3	[0, 0, 0]	n/a	catFR1	0	R1094T
412.335	1.618	354356	WORD	n/a	wordpools/wordpool_categorized_SP.txt	ESCURRIDOR	KitchenTools	12	3	[0, 0, 0]	n/a	catFR1	0	R1094T
413.953	0.001	355973	DISTRACT_START	n/a	n/a	n/a	n/a	-999	3	[0, 0, 0]	n/a	catFR1	0	R1094T
413.954	0.015	355974	START	n/a	n/a	n/a	n/a	-999	3	[-999, -999, -999]	n/a	catFR1	0	R1094T
413.969	6.3	355989	PROB	6.278	n/a	n/a	n/a	-999	3	[1, 6, 7]	14.0	catFR1	0	R1094T
420.269	5.935	362289	PROB	5.906	n/a	n/a	n/a	-999	3	[9, 3, 4]	16.0	catFR1	0	R1094T
426.204	5.051	368224	PROB	5.019	n/a	n/a	n/a	-999	3	[3, 9, 9]	21.0	catFR1	0	R1094T
431.255	5.199	373275	PROB	5.199	n/a	n/a	n/a	-999	3	[8, 8, 3]	19.0	catFR1	0	R1094T
436.454	0.018	378473	STOP	n/a	n/a	n/a	n/a	-999	3	[-999, -999, -999]	n/a	catFR1	0	R1094T
436.472	1.035	378491	DISTRACT_END	n/a	n/a	n/a	n/a	-999	3	[0, 0, 0]	n/a	catFR1	0	R1094T
437.507	1.859	379526	REC_START	n/a	n/a	n/a	n/a	-999	3	[0, 0, 0]	n/a	catFR1	0	R1094T
439.366	2.242	381385	REC_WORD	1.859	n/a	INTRUSION	n/a	-999	3	[0, 0, 0]	n/a	catFR1	0	R1094T
441.608	1.74	383627	REC_WORD	4.101	n/a	COLADOR	KitchenTools	6	3	[0, 0, 0]	n/a	catFR1	0	R1094T
443.348	12.266	385367	REC_WORD	5.841	n/a	LICUADORA	n/a	-999	3	[0, 0, 0]	n/a	catFR1	0	R1094T
455.614	11.904	397632	REC_WORD	18.107	n/a	LIJADORA	Tools	1	3	[0, 0, 0]	n/a	catFR1	0	R1094T
467.518	2.077	409536	REC_END	n/a	n/a	n/a	n/a	-999	3	[0, 0, 0]	n/a	catFR1	0	R1094T
469.595	0.0	411613	TRIAL	n/a	n/a	n/a	n/a	-999	4	[0, 0, 0]	n/a	catFR1	0	R1094T
469.595	10.428	411613	COUNTDOWN_START	n/a	n/a	n/a	n/a	-999	4	[0, 0, 0]	n/a	catFR1	0	R1094T
480.023	0.007	422040	COUNTDOWN_END	n/a	n/a	n/a	n/a	-999	4	[0, 0, 0]	n/a	catFR1	0	R1094T
480.03	3.819	422047	ORIENT	n/a	n/a	n/a	n/a	-999	4	[0, 0, 0]	n/a	catFR1	0	R1094T
483.849	2.599	425866	WORD	n/a	wordpools/wordpool_categorized_SP.txt	DEDOS	BodyParts	1	4	[0, 0, 0]	n/a	catFR1	0	R1094T
486.448	2.567	428465	WORD	n/a	wordpools/wordpool_categorized_SP.txt	DEDO	BodyParts	2	4	[0, 0, 0]	n/a	catFR1	0	R1094T
489.015	2.617	431032	WORD	n/a	wordpools/wordpool_categorized_SP.txt	LANGOSTA	OceanAnimals	3	4	[0, 0, 0]	n/a	catFR1	0	R1094T
491.632	2.501	433649	WORD	n/a	wordpools/wordpool_categorized_SP.txt	MEDUSA	OceanAnimals	4	4	[0, 0, 0]	n/a	catFR1	0	R1094T
494.133	2.484	436150	WORD	n/a	wordpools/wordpool_categorized_SP.txt	GALLO	FarmAnimals	5	4	[0, 0, 0]	n/a	catFR1	0	R1094T
496.617	2.45	438633	WORD	n/a	wordpools/wordpool_categorized_SP.txt	CABRA	FarmAnimals	6	4	[0, 0, 0]	n/a	catFR1	0	R1094T
499.067	2.484	441083	WORD	n/a	wordpools/wordpool_categorized_SP.txt	NARIZ	BodyParts	7	4	[0, 0, 0]	n/a	catFR1	0	R1094T
501.551	2.534	443567	WORD	n/a	wordpools/wordpool_categorized_SP.txt	BRAZO	BodyParts	8	4	[0, 0, 0]	n/a	catFR1	0	R1094T
504.085	2.483	446101	WORD	n/a	wordpools/wordpool_categorized_SP.txt	TORO	FarmAnimals	9	4	[0, 0, 0]	n/a	catFR1	0	R1094T
506.568	2.468	448584	WORD	n/a	wordpools/wordpool_categorized_SP.txt	OVEJA	FarmAnimals	10	4	[0, 0, 0]	n/a	catFR1	0	R1094T
509.036	2.517	451052	WORD	n/a	wordpools/wordpool_categorized_SP.txt	TORTUGA	OceanAnimals	11	4	[0, 0, 0]	n/a	catFR1	0	R1094T
511.553	1.617	453569	WORD	n/a	wordpools/wordpool_categorized_SP.txt	DELFIN	OceanAnimals	12	4	[0, 0, 0]	n/a	catFR1	0	R1094T
513.17	0.001	455186	DISTRACT_START	n/a	n/a	n/a	n/a	-999	4	[0, 0, 0]	n/a	catFR1	0	R1094T
513.171	0.015	455187	START	n/a	n/a	n/a	n/a	-999	4	[-999, -999, -999]	n/a	catFR1	0	R1094T
513.186	4.334	455202	PROB	4.309	n/a	n/a	n/a	-999	4	[2, 2, 9]	13.0	catFR1	0	R1094T
517.52	9.835	459535	PROB	9.807	n/a	n/a	n/a	-999	4	[3, 2, 1]	1.0	catFR1	0	R1094T
527.355	5.685	469370	PROB	5.66	n/a	n/a	n/a	-999	4	[4, 8, 2]	14.0	catFR1	0	R1094T
533.04	4.167	475055	PROB	4.167	n/a	n/a	n/a	-999	4	[3, 1, 5]	9.0	catFR1	0	R1094T
537.207	0.017	479221	STOP	n/a	n/a	n/a	n/a	-999	4	[-999, -999, -999]	n/a	catFR1	0	R1094T
537.224	1.134	479238	DISTRACT_END	n/a	n/a	n/a	n/a	-999	4	[0, 0, 0]	n/a	catFR1	0	R1094T
538.358	5.074	480372	REC_START	n/a	n/a	n/a	n/a	-999	4	[0, 0, 0]	n/a	catFR1	0	R1094T
543.432	24.938	485446	REC_WORD	5.074	n/a	DEDOS	BodyParts	1	4	[0, 0, 0]	n/a	catFR1	0	R1094T
568.37	1.843	510383	REC_END	n/a	n/a	n/a	n/a	-999	4	[0, 0, 0]	n/a	catFR1	0	R1094T
570.213	0.0	512226	TRIAL	n/a	n/a	n/a	n/a	-999	5	[0, 0, 0]	n/a	catFR1	0	R1094T
570.213	10.428	512226	COUNTDOWN_START	n/a	n/a	n/a	n/a	-999	5	[0, 0, 0]	n/a	catFR1	0	R1094T
580.641	0.008	522653	COUNTDOWN_END	n/a	n/a	n/a	n/a	-999	5	[0, 0, 0]	n/a	catFR1	0	R1094T
580.649	3.567	522661	ORIENT	n/a	n/a	n/a	n/a	-999	5	[0, 0, 0]	n/a	catFR1	0	R1094T
584.216	2.584	526228	WORD	n/a	wordpools/wordpool_categorized_SP.txt	VIENTO	Weather	1	5	[0, 0, 0]	n/a	catFR1	0	R1094T
586.8	2.55	528812	WORD	n/a	wordpools/wordpool_categorized_SP.txt	HUMEDAD	Weather	2	5	[0, 0, 0]	n/a	catFR1	0	R1094T
589.35	2.418	531362	WORD	n/a	wordpools/wordpool_categorized_SP.txt	CAMISA	Clothing	3	5	[0, 0, 0]	n/a	catFR1	0	R1094T
591.768	2.566	533780	WORD	n/a	wordpools/wordpool_categorized_SP.txt	SACO	Clothing	4	5	[0, 0, 0]	n/a	catFR1	0	R1094T
594.334	2.568	536346	WORD	n/a	wordpools/wordpool_categorized_SP.txt	CARDENAL	Birds	5	5	[0, 0, 0]	n/a	catFR1	0	R1094T
596.902	2.383	538913	WORD	n/a	wordpools/wordpool_categorized_SP.txt	GORRION	Birds	6	5	[0, 0, 0]	n/a	catFR1	0	R1094T
599.285	2.535	541296	WORD	n/a	wordpools/wordpool_categorized_SP.txt	BLUSA	Clothing	7	5	[0, 0, 0]	n/a	catFR1	0	R1094T
601.82	2.383	543831	WORD	n/a	wordpools/wordpool_categorized_SP.txt	MEDIAS	Clothing	8	5	[0, 0, 0]	n/a	catFR1	0	R1094T
604.203	2.568	546214	WORD	n/a	wordpools/wordpool_categorized_SP.txt	RELAMPAGO	Weather	9	5	[0, 0, 0]	n/a	catFR1	0	R1094T
606.771	2.616	548782	WORD	n/a	wordpools/wordpool_categorized_SP.txt	NUBE	Weather	10	5	[0, 0, 0]	n/a	catFR1	0	R1094T
609.387	2.568	551398	WORD	n/a	wordpools/wordpool_categorized_SP.txt	GAVIOTA	Birds	11	5	[0, 0, 0]	n/a	catFR1	0	R1094T
611.955	1.616	553966	WORD	n/a	wordpools/wordpool_categorized_SP.txt	HALCON	Birds	12	5	[0, 0, 0]	n/a	catFR1	0	R1094T
613.571	0.001	555582	DISTRACT_START	n/a	n/a	n/a	n/a	-999	5	[0, 0, 0]	n/a	catFR1	0	R1094T
613.572	0.016	555583	START	n/a	n/a	n/a	n/a	-999	5	[-999, -999, -999]	n/a	catFR1	0	R1094T
613.588	5.484	555599	PROB	5.451	n/a	n/a	n/a	-999	5	[1, 6, 9]	16.0	catFR1	0	R1094T
619.072	4.584	561082	PROB	4.551	n/a	n/a	n/a	-999	5	[4, 1, 8]	13.0	catFR1	0	R1094T
623.656	5.336	565666	PROB	5.312	n/a	n/a	n/a	-999	5	[4, 6, 6]	16.0	catFR1	0	R1094T
628.992	3.95	571002	PROB	3.928	n/a	n/a	n/a	-999	5	[1, 4, 6]	11.0	catFR1	0	R1094T
632.942	6.385	574952	PROB	6.385	n/a	n/a	n/a	-999	5	[3, 3, 8]	14.0	catFR1	0	R1094T
639.327	0.015	581336	STOP	n/a	n/a	n/a	n/a	-999	5	[-999, -999, -999]	n/a	catFR1	0	R1094T
639.342	1.153	581351	DISTRACT_END	n/a	n/a	n/a	n/a	-999	5	[0, 0, 0]	n/a	catFR1	0	R1094T
640.495	2.376	582504	REC_START	n/a	n/a	n/a	n/a	-999	5	[0, 0, 0]	n/a	catFR1	0	R1094T
642.871	27.634	584880	REC_WORD	2.376	n/a	GORRION	Birds	6	5	[0, 0, 0]	n/a	catFR1	0	R1094T
670.505	2.043	612513	REC_END	n/a	n/a	n/a	n/a	-999	5	[0, 0, 0]	n/a	catFR1	0	R1094T
672.548	0.001	614556	COUNTDOWN_START	n/a	n/a	n/a	n/a	-999	6	[0, 0, 0]	n/a	catFR1	0	R1094T
672.549	10.427	614557	TRIAL	n/a	n/a	n/a	n/a	-999	6	[0, 0, 0]	n/a	catFR1	0	R1094T
682.976	0.009	624983	COUNTDOWN_END	n/a	n/a	n/a	n/a	-999	6	[0, 0, 0]	n/a	catFR1	0	R1094T
682.985	3.616	624992	ORIENT	n/a	n/a	n/a	n/a	-999	6	[0, 0, 0]	n/a	catFR1	0	R1094T
686.601	2.434	628608	WORD	n/a	wordpools/wordpool_categorized_SP.txt	GELATINA	Desserts	1	6	[0, 0, 0]	n/a	catFR1	0	R1094T
689.035	2.384	631042	WORD	n/a	wordpools/wordpool_categorized_SP.txt	MOUSSE	Desserts	2	6	[0, 0, 0]	n/a	catFR1	0	R1094T
691.419	2.584	633426	WORD	n/a	wordpools/wordpool_categorized_SP.txt	RADIO	Electronics	3	6	[0, 0, 0]	n/a	catFR1	0	R1094T
694.003	2.567	636010	WORD	n/a	wordpools/wordpool_categorized_SP.txt	TELEVISION	Electronics	4	6	[0, 0, 0]	n/a	catFR1	0	R1094T
696.57	2.434	638577	WORD	n/a	wordpools/wordpool_categorized_SP.txt	LECHUGA	Vegetables	5	6	[0, 0, 0]	n/a	catFR1	0	R1094T
699.004	2.433	641010	WORD	n/a	wordpools/wordpool_categorized_SP.txt	ZANAHORIA	Vegetables	6	6	[0, 0, 0]	n/a	catFR1	0	R1094T
701.437	2.418	643443	WORD	n/a	wordpools/wordpool_categorized_SP.txt	GALLETA	Desserts	7	6	[0, 0, 0]	n/a	catFR1	0	R1094T
703.855	2.416	645861	WORD	n/a	wordpools/wordpool_categorized_SP.txt	MASA	Desserts	8	6	[0, 0, 0]	n/a	catFR1	0	R1094T
706.271	2.552	648277	WORD	n/a	wordpools/wordpool_categorized_SP.txt	CEBOLLA	Vegetables	9	6	[0, 0, 0]	n/a	catFR1	0	R1094T
708.823	2.499	650829	WORD	n/a	wordpools/wordpool_categorized_SP.txt	ARVEJA	Vegetables	10	6	[0, 0, 0]	n/a	catFR1	0	R1094T
711.322	2.418	653328	WORD	n/a	wordpools/wordpool_categorized_SP.txt	ESCANER	Electronics	11	6	[0, 0, 0]	n/a	catFR1	0	R1094T
713.74	1.616	655746	WORD	n/a	wordpools/wordpool_categorized_SP.txt	TELEFONO	Electronics	12	6	[0, 0, 0]	n/a	catFR1	0	R1094T
715.356	0.001	657362	DISTRACT_START	n/a	n/a	n/a	n/a	-999	6	[0, 0, 0]	n/a	catFR1	0	R1094T
715.357	0.016	657363	START	n/a	n/a	n/a	n/a	-999	6	[-999, -999, -999]	n/a	catFR1	0	R1094T
715.373	6.552	657379	PROB	6.531	n/a	n/a	n/a	-999	6	[1, 9, 5]	15.0	catFR1	0	R1094T
721.925	4.133	663930	PROB	4.097	n/a	n/a	n/a	-999	6	[3, 9, 1]	13.0	catFR1	0	R1094T
726.058	3.719	668063	PROB	3.694	n/a	n/a	n/a	-999	6	[5, 5, 2]	12.0	catFR1	0	R1094T
729.777	5.614	671782	PROB	5.614	n/a	n/a	n/a	-999	6	[6, 7, 6]	19.0	catFR1	0	R1094T
735.391	0.019	677396	STOP	n/a	n/a	n/a	n/a	-999	6	[-999, -999, -999]	n/a	catFR1	0	R1094T
735.41	1.151	677415	DISTRACT_END	n/a	n/a	n/a	n/a	-999	6	[0, 0, 0]	n/a	catFR1	0	R1094T
736.561	17.438	678566	REC_START	n/a	n/a	n/a	n/a	-999	6	[0, 0, 0]	n/a	catFR1	0	R1094T
753.999	12.573	696003	REC_WORD	17.438	n/a	CALAMAR	n/a	-999	6	[0, 0, 0]	n/a	catFR1	0	R1094T
766.572	1.561	708575	REC_END	n/a	n/a	n/a	n/a	-999	6	[0, 0, 0]	n/a	catFR1	0	R1094T
768.133	0.0	710136	TRIAL	n/a	n/a	n/a	n/a	-999	7	[0, 0, 0]	n/a	catFR1	0	R1094T
768.133	10.428	710136	COUNTDOWN_START	n/a	n/a	n/a	n/a	-999	7	[0, 0, 0]	n/a	catFR1	0	R1094T
778.561	0.007	720564	COUNTDOWN_END	n/a	n/a	n/a	n/a	-999	7	[0, 0, 0]	n/a	catFR1	0	R1094T
778.568	3.684	720571	ORIENT	n/a	n/a	n/a	n/a	-999	7	[0, 0, 0]	n/a	catFR1	0	R1094T
782.252	2.434	724254	WORD	n/a	wordpools/wordpool_categorized_SP.txt	HABITACION	Building	1	7	[0, 0, 0]	n/a	catFR1	0	R1094T
784.686	2.533	726688	WORD	n/a	wordpools/wordpool_categorized_SP.txt	FUNDACION	Building	2	7	[0, 0, 0]	n/a	catFR1	0	R1094T
787.219	2.451	729221	WORD	n/a	wordpools/wordpool_categorized_SP.txt	PIERNA	BodyParts	3	7	[0, 0, 0]	n/a	catFR1	0	R1094T
789.67	2.484	731672	WORD	n/a	wordpools/wordpool_categorized_SP.txt	CODO	BodyParts	4	7	[0, 0, 0]	n/a	catFR1	0	R1094T
792.154	2.433	734156	WORD	n/a	wordpools/wordpool_categorized_SP.txt	OLMO	Trees	5	7	[0, 0, 0]	n/a	catFR1	0	R1094T
794.587	2.518	736589	WORD	n/a	wordpools/wordpool_categorized_SP.txt	CEDRO	Trees	6	7	[0, 0, 0]	n/a	catFR1	0	R1094T
797.105	2.6	739107	WORD	n/a	wordpools/wordpool_categorized_SP.txt	PUERTA	Building	7	7	[0, 0, 0]	n/a	catFR1	0	R1094T
799.705	2.484	741707	WORD	n/a	wordpools/wordpool_categorized_SP.txt	TEJADO	Building	8	7	[0, 0, 0]	n/a	catFR1	0	R1094T
802.189	2.551	744190	WORD	n/a	wordpools/wordpool_categorized_SP.txt	ROBLE	Trees	9	7	[0, 0, 0]	n/a	catFR1	0	R1094T
804.74	2.533	746741	WORD	n/a	wordpools/wordpool_categorized_SP.txt	CIPRES	Trees	10	7	[0, 0, 0]	n/a	catFR1	0	R1094T
807.273	2.568	749274	WORD	n/a	wordpools/wordpool_categorized_SP.txt	OREJA	BodyParts	11	7	[0, 0, 0]	n/a	catFR1	0	R1094T
809.841	1.616	751842	WORD	n/a	wordpools/wordpool_categorized_SP.txt	PIE	BodyParts	12	7	[0, 0, 0]	n/a	catFR1	0	R1094T
811.457	0.001	753458	DISTRACT_START	n/a	n/a	n/a	n/a	-999	7	[0, 0, 0]	n/a	catFR1	0	R1094T
811.458	0.016	753459	START	n/a	n/a	n/a	n/a	-999	7	[-999, -999, -999]	n/a	catFR1	0	R1094T
811.474	5.718	753475	PROB	5.684	n/a	n/a	n/a	-999	7	[9, 9, 1]	19.0	catFR1	0	R1094T
817.192	6.718	759193	PROB	6.696	n/a	n/a	n/a	-999	7	[9, 6, 5]	20.0	catFR1	0	R1094T
823.91	4.117	765910	PROB	4.082	n/a	n/a	n/a	-999	7	[1, 9, 9]	19.0	catFR1	0	R1094T
828.027	6.828	770027	PROB	6.828	n/a	n/a	n/a	-999	7	[8, 2, 6]	16.0	catFR1	0	R1094T
834.855	0.007	776855	STOP	n/a	n/a	n/a	n/a	-999	7	[-999, -999, -999]	n/a	catFR1	0	R1094T
834.862	1.2	776862	DISTRACT_END	n/a	n/a	n/a	n/a	-999	7	[0, 0, 0]	n/a	catFR1	0	R1094T
836.062	17.229	778062	REC_START	n/a	n/a	n/a	n/a	-999	7	[0, 0, 0]	n/a	catFR1	0	R1094T
853.291	12.786	795290	REC_WORD	17.229	n/a	PUERTA	Building	7	7	[0, 0, 0]	n/a	catFR1	0	R1094T
866.077	2.174	808075	REC_END	n/a	n/a	n/a	n/a	-999	7	[0, 0, 0]	n/a	catFR1	0	R1094T
868.251	0.0	810249	TRIAL	n/a	n/a	n/a	n/a	-999	8	[0, 0, 0]	n/a	catFR1	0	R1094T
868.251	10.428	810249	COUNTDOWN_START	n/a	n/a	n/a	n/a	-999	8	[0, 0, 0]	n/a	catFR1	0	R1094T
878.679	0.007	820677	COUNTDOWN_END	n/a	n/a	n/a	n/a	-999	8	[0, 0, 0]	n/a	catFR1	0	R1094T
878.686	3.917	820684	ORIENT	n/a	n/a	n/a	n/a	-999	8	[0, 0, 0]	n/a	catFR1	0	R1094T
882.603	2.434	824600	WORD	n/a	wordpools/wordpool_categorized_SP.txt	DULCE	Desserts	1	8	[0, 0, 0]	n/a	catFR1	0	R1094T
885.037	2.517	827034	WORD	n/a	wordpools/wordpool_categorized_SP.txt	TORTA	Desserts	2	8	[0, 0, 0]	n/a	catFR1	0	R1094T
887.554	2.385	829551	WORD	n/a	wordpools/wordpool_categorized_SP.txt	CUCARACHA	Insects	3	8	[0, 0, 0]	n/a	catFR1	0	R1094T
889.939	2.616	831936	WORD	n/a	wordpools/wordpool_categorized_SP.txt	MOSCA	Insects	4	8	[0, 0, 0]	n/a	catFR1	0	R1094T
892.555	2.435	834552	WORD	n/a	wordpools/wordpool_categorized_SP.txt	BLOQUE	Toys	5	8	[0, 0, 0]	n/a	catFR1	0	R1094T
894.99	2.449	836987	WORD	n/a	wordpools/wordpool_categorized_SP.txt	BALONCESTO	Toys	6	8	[0, 0, 0]	n/a	catFR1	0	R1094T
897.439	2.617	839436	WORD	n/a	wordpools/wordpool_categorized_SP.txt	ABEJA	Insects	7	8	[0, 0, 0]	n/a	catFR1	0	R1094T
900.056	2.518	842053	WORD	n/a	wordpools/wordpool_categorized_SP.txt	MOSQUITO	Insects	8	8	[0, 0, 0]	n/a	catFR1	0	R1094T
902.574	2.567	844570	WORD	n/a	wordpools/wordpool_categorized_SP.txt	BIZCOCHO	Desserts	9	8	[0, 0, 0]	n/a	catFR1	0	R1094T
905.141	2.534	847137	WORD	n/a	wordpools/wordpool_categorized_SP.txt	TARTA	Desserts	10	8	[0, 0, 0]	n/a	catFR1	0	R1094T
907.675	2.417	849671	WORD	n/a	wordpools/wordpool_categorized_SP.txt	BEISBOL	Toys	11	8	[0, 0, 0]	n/a	catFR1	0	R1094T
910.092	1.618	852088	WORD	n/a	wordpools/wordpool_categorized_SP.txt	FRISBEE	Toys	12	8	[0, 0, 0]	n/a	catFR1	0	R1094T
911.71	0.001	853706	DISTRACT_START	n/a	n/a	n/a	n/a	-999	8	[0, 0, 0]	n/a	catFR1	0	R1094T
911.711	0.015	853707	START	n/a	n/a	n/a	n/a	-999	8	[-999, -999, -999]	n/a	catFR1	0	R1094T
911.726	6.985	853722	PROB	6.953	n/a	n/a	n/a	-999	8	[6, 2, 7]	15.0	catFR1	0	R1094T
918.711	4.117	860707	PROB	4.081	n/a	n/a	n/a	-999	8	[2, 2, 7]	11.0	catFR1	0	R1094T
922.828	4.734	864823	PROB	4.699	n/a	n/a	n/a	-999	8	[9, 4, 9]	22.0	catFR1	0	R1094T
927.562	4.14	869557	PROB	4.14	n/a	n/a	n/a	-999	8	[2, 2, 8]	12.0	catFR1	0	R1094T
931.702	0.011	873697	STOP	n/a	n/a	n/a	n/a	-999	8	[-999, -999, -999]	n/a	catFR1	0	R1094T
931.713	1.184	873708	DISTRACT_END	n/a	n/a	n/a	n/a	-999	8	[0, 0, 0]	n/a	catFR1	0	R1094T
932.897	0.971	874892	REC_START	n/a	n/a	n/a	n/a	-999	8	[0, 0, 0]	n/a	catFR1	0	R1094T
933.868	1.397	875863	REC_WORD	0.971	n/a	PUERTA	n/a	-999	8	[0, 0, 0]	n/a	catFR1	0	R1094T
935.265	11.287	877260	REC_WORD	2.368	n/a	TARTA	Desserts	10	8	[0, 0, 0]	n/a	catFR1	0	R1094T
946.552	13.159	888546	REC_WORD	13.655	n/a	PIE	n/a	-999	8	[0, 0, 0]	n/a	catFR1	0	R1094T
959.711	3.198	901705	REC_WORD	26.814	n/a	BIZCOCHO	Desserts	9	8	[0, 0, 0]	n/a	catFR1	0	R1094T
962.909	1.559	904903	REC_END	n/a	n/a	n/a	n/a	-999	8	[0, 0, 0]	n/a	catFR1	0	R1094T
964.468	0.001	906461	COUNTDOWN_START	n/a	n/a	n/a	n/a	-999	9	[0, 0, 0]	n/a	catFR1	0	R1094T
964.469	10.427	906462	TRIAL	n/a	n/a	n/a	n/a	-999	9	[0, 0, 0]	n/a	catFR1	0	R1094T
974.896	0.009	916889	COUNTDOWN_END	n/a	n/a	n/a	n/a	-999	9	[0, 0, 0]	n/a	catFR1	0	R1094T
974.905	3.566	916898	ORIENT	n/a	n/a	n/a	n/a	-999	9	[0, 0, 0]	n/a	catFR1	0	R1094T
978.471	2.567	920464	WORD	n/a	wordpools/wordpool_categorized_SP.txt	MANO	BodyParts	1	9	[0, 0, 0]	n/a	catFR1	0	R1094T
981.038	2.534	923031	WORD	n/a	wordpools/wordpool_categorized_SP.txt	CABEZA	BodyParts	2	9	[0, 0, 0]	n/a	catFR1	0	R1094T
983.572	2.517	925564	WORD	n/a	wordpools/wordpool_categorized_SP.txt	TIGRE	Zoo	3	9	[0, 0, 0]	n/a	catFR1	0	R1094T
986.089	2.567	928081	WORD	n/a	wordpools/wordpool_categorized_SP.txt	CEBRA	Zoo	4	9	[0, 0, 0]	n/a	catFR1	0	R1094T
988.656	2.617	930648	WORD	n/a	wordpools/wordpool_categorized_SP.txt	SILLA	Furniture	5	9	[0, 0, 0]	n/a	catFR1	0	R1094T
991.273	2.502	933265	WORD	n/a	wordpools/wordpool_categorized_SP.txt	MECEDORA	Furniture	6	9	[0, 0, 0]	n/a	catFR1	0	R1094T
993.775	2.532	935767	WORD	n/a	wordpools/wordpool_categorized_SP.txt	GUEPARDO	Zoo	7	9	[0, 0, 0]	n/a	catFR1	0	R1094T
996.307	2.368	938299	WORD	n/a	wordpools/wordpool_categorized_SP.txt	MONO	Zoo	8	9	[0, 0, 0]	n/a	catFR1	0	R1094T
998.675	2.45	940667	WORD	n/a	wordpools/wordpool_categorized_SP.txt	OJO	BodyParts	9	9	[0, 0, 0]	n/a	catFR1	0	R1094T
1001.125	2.585	943117	WORD	n/a	wordpools/wordpool_categorized_SP.txt	RODILLA	BodyParts	10	9	[0, 0, 0]	n/a	catFR1	0	R1094T
1003.71	2.416	945702	WORD	n/a	wordpools/wordpool_categorized_SP.txt	ESTANTE	Furniture	11	9	[0, 0, 0]	n/a	catFR1	0	R1094T
1006.126	1.618	948117	WORD	n/a	wordpools/wordpool_categorized_SP.txt	SOFA	Furniture	12	9	[0, 0, 0]	n/a	catFR1	0	R1094T
1007.744	0.001	949735	DISTRACT_START	n/a	n/a	n/a	n/a	-999	9	[0, 0, 0]	n/a	catFR1	0	R1094T
1007.745	0.016	949736	START	n/a	n/a	n/a	n/a	-999	9	[-999, -999, -999]	n/a	catFR1	0	R1094T
1007.761	4.649	949752	PROB	4.614	n/a	n/a	n/a	-999	9	[2, 1, 5]	8.0	catFR1	0	R1094T
1012.41	6.001	954401	PROB	5.981	n/a	n/a	n/a	-999	9	[4, 6, 8]	18.0	catFR1	0	R1094T
1018.411	4.951	960402	PROB	4.931	n/a	n/a	n/a	-999	9	[2, 6, 5]	13.0	catFR1	0	R1094T
1023.362	4.869	965353	PROB	4.869	n/a	n/a	n/a	-999	9	[3, 4, 5]	12.0	catFR1	0	R1094T
1028.231	0.016	970221	STOP	n/a	n/a	n/a	n/a	-999	9	[-999, -999, -999]	n/a	catFR1	0	R1094T
1028.247	1.05	970237	DISTRACT_END	n/a	n/a	n/a	n/a	-999	9	[0, 0, 0]	n/a	catFR1	0	R1094T
1029.297	4.573	971287	REC_START	n/a	n/a	n/a	n/a	-999	9	[0, 0, 0]	n/a	catFR1	0	R1094T
1033.87	7.129	975860	REC_WORD	4.573	n/a	ESTANTE	Furniture	11	9	[0, 0, 0]	n/a	catFR1	0	R1094T
1040.999	18.31	982989	REC_WORD	11.702	n/a	MONO	Zoo	8	9	[0, 0, 0]	n/a	catFR1	0	R1094T
1059.309	1.727	1001298	REC_END	n/a	n/a	n/a	n/a	-999	9	[0, 0, 0]	n/a	catFR1	0	R1094T
1061.036	0.0	1003025	COUNTDOWN_START	n/a	n/a	n/a	n/a	-999	10	[0, 0, 0]	n/a	catFR1	0	R1094T
1061.036	10.428	1003025	TRIAL	n/a	n/a	n/a	n/a	-999	10	[0, 0, 0]	n/a	catFR1	0	R1094T
1071.464	0.007	1013452	COUNTDOWN_END	n/a	n/a	n/a	n/a	-999	10	[0, 0, 0]	n/a	catFR1	0	R1094T
1071.471	3.418	1013459	ORIENT	n/a	n/a	n/a	n/a	-999	10	[0, 0, 0]	n/a	catFR1	0	R1094T
1074.889	2.616	1016877	WORD	n/a	wordpools/wordpool_categorized_SP.txt	SAUCE	Trees	1	10	[0, 0, 0]	n/a	catFR1	0	R1094T
1077.505	2.435	1019493	WORD	n/a	wordpools/wordpool_categorized_SP.txt	ABEDUL	Trees	2	10	[0, 0, 0]	n/a	catFR1	0	R1094T
1079.94	2.416	1021928	WORD	n/a	wordpools/wordpool_categorized_SP.txt	CUCHILLO	KitchenTools	3	10	[0, 0, 0]	n/a	catFR1	0	R1094T
1082.356	2.452	1024344	WORD	n/a	wordpools/wordpool_categorized_SP.txt	CUCHARON	KitchenTools	4	10	[0, 0, 0]	n/a	catFR1	0	R1094T
1084.808	2.416	1026796	WORD	n/a	wordpools/wordpool_categorized_SP.txt	BALERO	Toys	5	10	[0, 0, 0]	n/a	catFR1	0	R1094T
1087.224	2.601	1029211	WORD	n/a	wordpools/wordpool_categorized_SP.txt	ROMPECABEZAS	Toys	6	10	[0, 0, 0]	n/a	catFR1	0	R1094T
1089.825	2.433	1031812	WORD	n/a	wordpools/wordpool_categorized_SP.txt	ARCE	Trees	7	10	[0, 0, 0]	n/a	catFR1	0	R1094T
1092.258	2.518	1034245	WORD	n/a	wordpools/wordpool_categorized_SP.txt	NOGAL	Trees	8	10	[0, 0, 0]	n/a	catFR1	0	R1094T
1094.776	2.583	1036763	WORD	n/a	wordpools/wordpool_categorized_SP.txt	BOLA	Toys	9	10	[0, 0, 0]	n/a	catFR1	0	R1094T
1097.359	2.602	1039346	WORD	n/a	wordpools/wordpool_categorized_SP.txt	BARBIE	Toys	10	10	[0, 0, 0]	n/a	catFR1	0	R1094T
1099.961	2.616	1041948	WORD	n/a	wordpools/wordpool_categorized_SP.txt	CUCHARA	KitchenTools	11	10	[0, 0, 0]	n/a	catFR1	0	R1094T
1102.577	1.617	1044564	WORD	n/a	wordpools/wordpool_categorized_SP.txt	SACACORCHOS	KitchenTools	12	10	[0, 0, 0]	n/a	catFR1	0	R1094T
1104.194	0.001	1046181	DISTRACT_START	n/a	n/a	n/a	n/a	-999	10	[0, 0, 0]	n/a	catFR1	0	R1094T
1104.195	0.015	1046182	START	n/a	n/a	n/a	n/a	-999	10	[-999, -999, -999]	n/a	catFR1	0	R1094T
1104.21	4.502	1046197	PROB	4.476	n/a	n/a	n/a	-999	10	[1, 5, 6]	12.0	catFR1	0	R1094T
1108.712	4.333	1050698	PROB	4.303	n/a	n/a	n/a	-999	10	[4, 8, 1]	13.0	catFR1	0	R1094T
1113.045	4.802	1055031	PROB	4.779	n/a	n/a	n/a	-999	10	[2, 5, 8]	15.0	catFR1	0	R1094T
1117.847	4.717	1059833	PROB	4.695	n/a	n/a	n/a	-999	10	[1, 4, 5]	10.0	catFR1	0	R1094T
1122.564	5.547	1064550	PROB	5.547	n/a	n/a	n/a	-999	10	[8, 3, 6]	17.0	catFR1	0	R1094T
1128.111	0.003	1070096	STOP	n/a	n/a	n/a	n/a	-999	10	[-999, -999, -999]	n/a	catFR1	0	R1094T
1128.114	1.052	1070099	DISTRACT_END	n/a	n/a	n/a	n/a	-999	10	[0, 0, 0]	n/a	catFR1	0	R1094T
1129.166	0.813	1071151	REC_START	n/a	n/a	n/a	n/a	-999	10	[0, 0, 0]	n/a	catFR1	0	R1094T
1129.979	3.769	1071964	REC_WORD	0.813	n/a	SACACORCHOS	KitchenTools	12	10	[0, 0, 0]	n/a	catFR1	0	R1094T
1133.748	7.343	1075733	REC_WORD	4.582	n/a	BARBIE	Toys	10	10	[0, 0, 0]	n/a	catFR1	0	R1094T
1141.091	14.661	1083076	REC_WORD	11.925	n/a	DULCE	n/a	-999	10	[0, 0, 0]	n/a	catFR1	0	R1094T
1155.752	3.422	1097736	REC_WORD	26.586	n/a	CUCHARA	KitchenTools	11	10	[0, 0, 0]	n/a	catFR1	0	R1094T
1159.174	2.263	1101158	REC_END	n/a	n/a	n/a	n/a	-999	10	[0, 0, 0]	n/a	catFR1	0	R1094T
1161.437	0.001	1103421	COUNTDOWN_START	n/a	n/a	n/a	n/a	-999	11	[0, 0, 0]	n/a	catFR1	0	R1094T
1161.438	10.427	1103422	TRIAL	n/a	n/a	n/a	n/a	-999	11	[0, 0, 0]	n/a	catFR1	0	R1094T
1171.865	0.009	1113848	COUNTDOWN_END	n/a	n/a	n/a	n/a	-999	11	[0, 0, 0]	n/a	catFR1	0	R1094T
1171.874	3.716	1113857	ORIENT	n/a	n/a	n/a	n/a	-999	11	[0, 0, 0]	n/a	catFR1	0	R1094T
1175.59	2.567	1117573	WORD	n/a	wordpools/wordpool_categorized_SP.txt	JIRAFA	Zoo	1	11	[0, 0, 0]	n/a	catFR1	0	R1094T
1178.157	2.552	1120140	WORD	n/a	wordpools/wordpool_categorized_SP.txt	OSO	Zoo	2	11	[0, 0, 0]	n/a	catFR1	0	R1094T
1180.709	2.566	1122692	WORD	n/a	wordpools/wordpool_categorized_SP.txt	NUEZ	Trees	3	11	[0, 0, 0]	n/a	catFR1	0	R1094T
1183.275	2.417	1125258	WORD	n/a	wordpools/wordpool_categorized_SP.txt	PINO	Trees	4	11	[0, 0, 0]	n/a	catFR1	0	R1094T
1185.692	2.5	1127675	WORD	n/a	wordpools/wordpool_categorized_SP.txt	NARCISO	Flowers	5	11	[0, 0, 0]	n/a	catFR1	0	R1094T
1188.192	2.451	1130174	WORD	n/a	wordpools/wordpool_categorized_SP.txt	TULIPAN	Flowers	6	11	[0, 0, 0]	n/a	catFR1	0	R1094T
1190.643	2.617	1132625	WORD	n/a	wordpools/wordpool_categorized_SP.txt	ELEFANTE	Zoo	7	11	[0, 0, 0]	n/a	catFR1	0	R1094T
1193.26	2.568	1135242	WORD	n/a	wordpools/wordpool_categorized_SP.txt	GORILA	Zoo	8	11	[0, 0, 0]	n/a	catFR1	0	R1094T
1195.828	2.533	1137810	WORD	n/a	wordpools/wordpool_categorized_SP.txt	CALENDULA	Flowers	9	11	[0, 0, 0]	n/a	catFR1	0	R1094T
1198.361	2.451	1140343	WORD	n/a	wordpools/wordpool_categorized_SP.txt	VIOLETA	Flowers	10	11	[0, 0, 0]	n/a	catFR1	0	R1094T
1200.812	2.45	1142794	WORD	n/a	wordpools/wordpool_categorized_SP.txt	ABETO	Trees	11	11	[0, 0, 0]	n/a	catFR1	0	R1094T
1203.262	1.618	1145244	WORD	n/a	wordpools/wordpool_categorized_SP.txt	PERENNE	Trees	12	11	[0, 0, 0]	n/a	catFR1	0	R1094T
1204.88	0.001	1146862	DISTRACT_START	n/a	n/a	n/a	n/a	-999	11	[0, 0, 0]	n/a	catFR1	0	R1094T
1204.881	0.015	1146863	START	n/a	n/a	n/a	n/a	-999	11	[-999, -999, -999]	n/a	catFR1	0	R1094T
1204.896	6.852	1146878	PROB	6.824	n/a	n/a	n/a	-999	11	[7, 8, 3]	18.0	catFR1	0	R1094T
1211.748	3.433	1153729	PROB	3.403	n/a	n/a	n/a	-999	11	[5, 2, 5]	12.0	catFR1	0	R1094T
1215.181	4.801	1157162	PROB	4.771	n/a	n/a	n/a	-999	11	[6, 1, 5]	12.0	catFR1	0	R1094T
1219.982	4.018	1161963	PROB	3.985	n/a	n/a	n/a	-999	11	[2, 2, 6]	10.0	catFR1	0	R1094T
1224.0	7.567	1165981	PROB	7.567	n/a	n/a	n/a	-999	11	[1, 7, 6]	21.0	catFR1	0	R1094T
1231.567	0.017	1173547	STOP	n/a	n/a	n/a	n/a	-999	11	[-999, -999, -999]	n/a	catFR1	0	R1094T
1231.584	1.185	1173564	DISTRACT_END	n/a	n/a	n/a	n/a	-999	11	[0, 0, 0]	n/a	catFR1	0	R1094T
1232.769	3.3	1174749	REC_START	n/a	n/a	n/a	n/a	-999	11	[0, 0, 0]	n/a	catFR1	0	R1094T
1236.069	4.884	1178049	REC_WORD	3.3	n/a	VIOLETA	Flowers	10	11	[0, 0, 0]	n/a	catFR1	0	R1094T
1240.953	7.006	1182933	REC_WORD	8.184	n/a	ABEDUL	n/a	-999	11	[0, 0, 0]	n/a	catFR1	0	R1094T
1247.959	14.821	1189939	REC_WORD	15.19	n/a	INTRUSION	n/a	-999	11	[0, 0, 0]	n/a	catFR1	0	R1094T
1262.78	2.376	1204759	REC_END	n/a	n/a	n/a	n/a	-999	11	[0, 0, 0]	n/a	catFR1	0	R1094T
1265.156	0.001	1207135	COUNTDOWN_START	n/a	n/a	n/a	n/a	-999	12	[0, 0, 0]	n/a	catFR1	0	R1094T
1265.157	10.427	1207136	TRIAL	n/a	n/a	n/a	n/a	-999	12	[0, 0, 0]	n/a	catFR1	0	R1094T
1275.584	0.008	1217562	COUNTDOWN_END	n/a	n/a	n/a	n/a	-999	12	[0, 0, 0]	n/a	catFR1	0	R1094T
1275.592	3.834	1217570	ORIENT	n/a	n/a	n/a	n/a	-999	12	[0, 0, 0]	n/a	catFR1	0	R1094T
1279.426	2.617	1221404	WORD	n/a	wordpools/wordpool_categorized_SP.txt	PELADOR	KitchenTools	1	12	[0, 0, 0]	n/a	catFR1	0	R1094T
1282.043	2.45	1224021	WORD	n/a	wordpools/wordpool_categorized_SP.txt	TENEDOR	KitchenTools	2	12	[0, 0, 0]	n/a	catFR1	0	R1094T
1284.493	2.385	1226471	WORD	n/a	wordpools/wordpool_categorized_SP.txt	PAPA	Vegetables	3	12	[0, 0, 0]	n/a	catFR1	0	R1094T
1286.878	2.433	1228856	WORD	n/a	wordpools/wordpool_categorized_SP.txt	BROCOLI	Vegetables	4	12	[0, 0, 0]	n/a	catFR1	0	R1094T
1289.311	2.401	1231288	WORD	n/a	wordpools/wordpool_categorized_SP.txt	TUBA	Instruments	5	12	[0, 0, 0]	n/a	catFR1	0	R1094T
1291.712	2.516	1233689	WORD	n/a	wordpools/wordpool_categorized_SP.txt	BANJO	Instruments	6	12	[0, 0, 0]	n/a	catFR1	0	R1094T
1294.228	2.535	1236205	WORD	n/a	wordpools/wordpool_categorized_SP.txt	PEPINO	Vegetables	7	12	[0, 0, 0]	n/a	catFR1	0	R1094T
1296.763	2.416	1238740	WORD	n/a	wordpools/wordpool_categorized_SP.txt	ESPINACA	Vegetables	8	12	[0, 0, 0]	n/a	catFR1	0	R1094T
1299.179	2.417	1241156	WORD	n/a	wordpools/wordpool_categorized_SP.txt	ESPATULA	KitchenTools	9	12	[0, 0, 0]	n/a	catFR1	0	R1094T
1301.596	2.484	1243573	WORD	n/a	wordpools/wordpool_categorized_SP.txt	TENAZAS	KitchenTools	10	12	[0, 0, 0]	n/a	catFR1	0	R1094T
1304.08	2.617	1246057	WORD	n/a	wordpools/wordpool_categorized_SP.txt	FLAUTA	Instruments	11	12	[0, 0, 0]	n/a	catFR1	0	R1094T
1306.697	1.617	1248674	WORD	n/a	wordpools/wordpool_categorized_SP.txt	ORGANO	Instruments	12	12	[0, 0, 0]	n/a	catFR1	0	R1094T
1308.314	0.001	1250291	DISTRACT_START	n/a	n/a	n/a	n/a	-999	12	[0, 0, 0]	n/a	catFR1	0	R1094T
1308.315	0.016	1250292	START	n/a	n/a	n/a	n/a	-999	12	[-999, -999, -999]	n/a	catFR1	0	R1094T
1308.331	4.251	1250308	PROB	4.22	n/a	n/a	n/a	-999	12	[1, 7, 3]	11.0	catFR1	0	R1094T
1312.582	3.984	1254558	PROB	3.961	n/a	n/a	n/a	-999	12	[7, 1, 7]	15.0	catFR1	0	R1094T
1316.566	3.967	1258542	PROB	3.945	n/a	n/a	n/a	-999	12	[8, 1, 2]	11.0	catFR1	0	R1094T
1320.533	3.851	1262509	PROB	3.818	n/a	n/a	n/a	-999	12	[2, 1, 5]	8.0	catFR1	0	R1094T
1324.384	4.687	1266360	PROB	4.687	n/a	n/a	n/a	-999	12	[4, 2, 8]	14.0	catFR1	0	R1094T
1329.071	0.014	1271047	STOP	n/a	n/a	n/a	n/a	-999	12	[-999, -999, -999]	n/a	catFR1	0	R1094T
1329.085	1.134	1271061	DISTRACT_END	n/a	n/a	n/a	n/a	-999	12	[0, 0, 0]	n/a	catFR1	0	R1094T
1330.219	1.711	1272194	REC_START	n/a	n/a	n/a	n/a	-999	12	[0, 0, 0]	n/a	catFR1	0	R1094T
1331.93	2.802	1273905	REC_WORD	1.711	n/a	ESPINACA	Vegetables	8	12	[0, 0, 0]	n/a	catFR1	0	R1094T
1334.732	25.498	1276707	REC_WORD	4.513	n/a	PEPINO	Vegetables	7	12	[0, 0, 0]	n/a	catFR1	0	R1094T
1360.23	2.06	1302204	REC_END	n/a	n/a	n/a	n/a	-999	12	[0, 0, 0]	n/a	catFR1	0	R1094T
1362.29	0.001	1304264	COUNTDOWN_START	n/a	n/a	n/a	n/a	-999	13	[0, 0, 0]	n/a	catFR1	0	R1094T
1362.291	10.427	1304265	TRIAL	n/a	n/a	n/a	n/a	-999	13	[0, 0, 0]	n/a	catFR1	0	R1094T
1372.718	0.009	1314691	COUNTDOWN_END	n/a	n/a	n/a	n/a	-999	13	[0, 0, 0]	n/a	catFR1	0	R1094T
1372.727	3.75	1314700	ORIENT	n/a	n/a	n/a	n/a	-999	13	[0, 0, 0]	n/a	catFR1	0	R1094T
1376.477	2.518	1318450	WORD	n/a	wordpools/wordpool_categorized_SP.txt	UVA	Fruit	1	13	[0, 0, 0]	n/a	catFR1	0	R1094T
1378.995	2.582	1320968	WORD	n/a	wordpools/wordpool_categorized_SP.txt	LIMA	Fruit	2	13	[0, 0, 0]	n/a	catFR1	0	R1094T
1381.577	2.518	1323550	WORD	n/a	wordpools/wordpool_categorized_SP.txt	ZAPATERO	Desserts	3	13	[0, 0, 0]	n/a	catFR1	0	R1094T
1384.095	2.433	1326068	WORD	n/a	wordpools/wordpool_categorized_SP.txt	PUDIN	Desserts	4	13	[0, 0, 0]	n/a	catFR1	0	R1094T
1386.528	2.452	1328501	WORD	n/a	wordpools/wordpool_categorized_SP.txt	TROMBON	Instruments	5	13	[0, 0, 0]	n/a	catFR1	0	R1094T
1388.98	2.499	1330953	WORD	n/a	wordpools/wordpool_categorized_SP.txt	TAMBOR	Instruments	6	13	[0, 0, 0]	n/a	catFR1	0	R1094T
1391.479	2.518	1333451	WORD	n/a	wordpools/wordpool_categorized_SP.txt	LIMON	Fruit	7	13	[0, 0, 0]	n/a	catFR1	0	R1094T
1393.997	2.45	1335969	WORD	n/a	wordpools/wordpool_categorized_SP.txt	PERA	Fruit	8	13	[0, 0, 0]	n/a	catFR1	0	R1094T
1396.447	2.617	1338419	WORD	n/a	wordpools/wordpool_categorized_SP.txt	VIOLIN	Instruments	9	13	[0, 0, 0]	n/a	catFR1	0	R1094T
1399.064	2.534	1341036	WORD	n/a	wordpools/wordpool_categorized_SP.txt	GUITARRA	Instruments	10	13	[0, 0, 0]	n/a	catFR1	0	R1094T
1401.598	2.467	1343570	WORD	n/a	wordpools/wordpool_categorized_SP.txt	PASTELILLO	Desserts	11	13	[0, 0, 0]	n/a	catFR1	0	R1094T
1404.065	1.617	1346037	WORD	n/a	wordpools/wordpool_categorized_SP.txt	PAY	Desserts	12	13	[0, 0, 0]	n/a	catFR1	0	R1094T
1405.682	0.001	1347654	DISTRACT_START	n/a	n/a	n/a	n/a	-999	13	[0, 0, 0]	n/a	catFR1	0	R1094T
1405.683	0.016	1347655	START	n/a	n/a	n/a	n/a	-999	13	[-999, -999, -999]	n/a	catFR1	0	R1094T
1405.699	5.467	1347671	PROB	5.436	n/a	n/a	n/a	-999	13	[7, 7, 4]	18.0	catFR1	0	R1094T
1411.166	4.168	1353137	PROB	4.145	n/a	n/a	n/a	-999	13	[2, 2, 4]	8.0	catFR1	0	R1094T
1415.334	4.134	1357305	PROB	4.097	n/a	n/a	n/a	-999	13	[7, 3, 1]	11.0	catFR1	0	R1094T
1419.468	3.485	1361439	PROB	3.46	n/a	n/a	n/a	-999	13	[1, 4, 3]	8.0	catFR1	0	R1094T
1422.953	4.462	1364924	PROB	4.462	n/a	n/a	n/a	-999	13	[8, 5, 1]	14.0	catFR1	0	R1094T
1427.415	0.004	1369386	STOP	n/a	n/a	n/a	n/a	-999	13	[-999, -999, -999]	n/a	catFR1	0	R1094T
1427.419	1.068	1369390	DISTRACT_END	n/a	n/a	n/a	n/a	-999	13	[0, 0, 0]	n/a	catFR1	0	R1094T
1428.487	0.782	1370458	REC_START	n/a	n/a	n/a	n/a	-999	13	[0, 0, 0]	n/a	catFR1	0	R1094T
1429.269	2.717	1371240	REC_WORD	0.782	n/a	PASTELILLO	Desserts	11	13	[0, 0, 0]	n/a	catFR1	0	R1094T
1431.986	26.512	1373956	REC_WORD	3.499	n/a	PAY	Desserts	12	13	[0, 0, 0]	n/a	catFR1	0	R1094T
1458.498	1.644	1400467	REC_END	n/a	n/a	n/a	n/a	-999	13	[0, 0, 0]	n/a	catFR1	0	R1094T
1460.142	0.0	1402111	TRIAL	n/a	n/a	n/a	n/a	-999	14	[0, 0, 0]	n/a	catFR1	0	R1094T
1460.142	10.428	1402111	COUNTDOWN_START	n/a	n/a	n/a	n/a	-999	14	[0, 0, 0]	n/a	catFR1	0	R1094T
1470.57	0.007	1412539	COUNTDOWN_END	n/a	n/a	n/a	n/a	-999	14	[0, 0, 0]	n/a	catFR1	0	R1094T
1470.577	3.617	1412546	ORIENT	n/a	n/a	n/a	n/a	-999	14	[0, 0, 0]	n/a	catFR1	0	R1094T
1474.194	2.384	1416162	WORD	n/a	wordpools/wordpool_categorized_SP.txt	ZAPATOS	Clothing	1	14	[0, 0, 0]	n/a	catFR1	0	R1094T
1476.578	2.567	1418546	WORD	n/a	wordpools/wordpool_categorized_SP.txt	FALDA	Clothing	2	14	[0, 0, 0]	n/a	catFR1	0	R1094T
1479.145	2.585	1421113	WORD	n/a	wordpools/wordpool_categorized_SP.txt	CABALLO	FarmAnimals	3	14	[0, 0, 0]	n/a	catFR1	0	R1094T
1481.73	2.433	1423698	WORD	n/a	wordpools/wordpool_categorized_SP.txt	PAVO	FarmAnimals	4	14	[0, 0, 0]	n/a	catFR1	0	R1094T
1484.163	2.467	1426131	WORD	n/a	wordpools/wordpool_categorized_SP.txt	LAGO	Landscapes	5	14	[0, 0, 0]	n/a	catFR1	0	R1094T
1486.63	2.484	1428598	WORD	n/a	wordpools/wordpool_categorized_SP.txt	OCEANO	Landscapes	6	14	[0, 0, 0]	n/a	catFR1	0	R1094T
1489.114	2.467	1431082	WORD	n/a	wordpools/wordpool_categorized_SP.txt	VACA	FarmAnimals	7	14	[0, 0, 0]	n/a	catFR1	0	R1094T
1491.581	2.617	1433549	WORD	n/a	wordpools/wordpool_categorized_SP.txt	POLLO	FarmAnimals	8	14	[0, 0, 0]	n/a	catFR1	0	R1094T
1494.198	2.384	1436165	WORD	n/a	wordpools/wordpool_categorized_SP.txt	CALZON	Clothing	9	14	[0, 0, 0]	n/a	catFR1	0	R1094T
1496.582	2.484	1438549	WORD	n/a	wordpools/wordpool_categorized_SP.txt	VESTIDO	Clothing	10	14	[0, 0, 0]	n/a	catFR1	0	R1094T
1499.066	2.433	1441033	WORD	n/a	wordpools/wordpool_categorized_SP.txt	PLAYA	Landscapes	11	14	[0, 0, 0]	n/a	catFR1	0	R1094T
1501.499	1.617	1443466	WORD	n/a	wordpools/wordpool_categorized_SP.txt	ARROYO	Landscapes	12	14	[0, 0, 0]	n/a	catFR1	0	R1094T
1503.116	0.001	1445083	DISTRACT_START	n/a	n/a	n/a	n/a	-999	14	[0, 0, 0]	n/a	catFR1	0	R1094T
1503.117	0.016	1445084	START	n/a	n/a	n/a	n/a	-999	14	[-999, -999, -999]	n/a	catFR1	0	R1094T
1503.133	5.384	1445100	PROB	5.362	n/a	n/a	n/a	-999	14	[3, 7, 2]	12.0	catFR1	0	R1094T
1508.517	5.635	1450484	PROB	5.602	n/a	n/a	n/a	-999	14	[6, 7, 6]	19.0	catFR1	0	R1094T
1514.152	7.569	1456118	PROB	7.534	n/a	n/a	n/a	-999	14	[9, 1, 8]	18.0	catFR1	0	R1094T
1521.721	7.247	1463687	PROB	7.247	n/a	n/a	n/a	-999	14	[3, 9, 8]	20.0	catFR1	0	R1094T
1528.968	0.004	1470934	STOP	n/a	n/a	n/a	n/a	-999	14	[-999, -999, -999]	n/a	catFR1	0	R1094T
1528.972	1.133	1470938	DISTRACT_END	n/a	n/a	n/a	n/a	-999	14	[0, 0, 0]	n/a	catFR1	0	R1094T
1530.105	30.005	1472071	REC_START	n/a	n/a	n/a	n/a	-999	14	[0, 0, 0]	n/a	catFR1	0	R1094T
1560.11	0.009	1502074	REC_WORD_VV	30.005	n/a	<>	n/a	-999	14	[0, 0, 0]	n/a	catFR1	0	R1094T
1560.119	1.225	1502083	REC_END	n/a	n/a	n/a	n/a	-999	14	[0, 0, 0]	n/a	catFR1	0	R1094T
1561.344	0.0	1503308	TRIAL	n/a	n/a	n/a	n/a	-999	15	[0, 0, 0]	n/a	catFR1	0	R1094T
1561.344	10.428	1503308	COUNTDOWN_START	n/a	n/a	n/a	n/a	-999	15	[0, 0, 0]	n/a	catFR1	0	R1094T
1571.772	0.008	1513736	COUNTDOWN_END	n/a	n/a	n/a	n/a	-999	15	[0, 0, 0]	n/a	catFR1	0	R1094T
1571.78	3.699	1513744	ORIENT	n/a	n/a	n/a	n/a	-999	15	[0, 0, 0]	n/a	catFR1	0	R1094T
1575.479	2.485	1517442	WORD	n/a	wordpools/wordpool_categorized_SP.txt	COLIFLOR	Vegetables	1	15	[0, 0, 0]	n/a	catFR1	0	R1094T
1577.964	2.466	1519927	WORD	n/a	wordpools/wordpool_categorized_SP.txt	MAIZ	Vegetables	2	15	[0, 0, 0]	n/a	catFR1	0	R1094T
1580.43	2.418	1522393	WORD	n/a	wordpools/wordpool_categorized_SP.txt	CAMION	Vehicles	3	15	[0, 0, 0]	n/a	catFR1	0	R1094T
1582.848	2.45	1524811	WORD	n/a	wordpools/wordpool_categorized_SP.txt	BICICLETA	Vehicles	4	15	[0, 0, 0]	n/a	catFR1	0	R1094T
1585.298	2.418	1527261	WORD	n/a	wordpools/wordpool_categorized_SP.txt	LIBRETA	OfficeSupplies	5	15	[0, 0, 0]	n/a	catFR1	0	R1094T
1587.716	2.399	1529679	WORD	n/a	wordpools/wordpool_categorized_SP.txt	LAPIZ	OfficeSupplies	6	15	[0, 0, 0]	n/a	catFR1	0	R1094T
1590.115	2.551	1532078	WORD	n/a	wordpools/wordpool_categorized_SP.txt	REPOLLO	Vegetables	7	15	[0, 0, 0]	n/a	catFR1	0	R1094T
1592.666	2.517	1534629	WORD	n/a	wordpools/wordpool_categorized_SP.txt	APIO	Vegetables	8	15	[0, 0, 0]	n/a	catFR1	0	R1094T
1595.183	2.384	1537145	WORD	n/a	wordpools/wordpool_categorized_SP.txt	REGLA	OfficeSupplies	9	15	[0, 0, 0]	n/a	catFR1	0	R1094T
1597.567	2.55	1539529	WORD	n/a	wordpools/wordpool_categorized_SP.txt	CARPETA	OfficeSupplies	10	15	[0, 0, 0]	n/a	catFR1	0	R1094T
1600.117	2.384	1542079	WORD	n/a	wordpools/wordpool_categorized_SP.txt	BOTE	Vehicles	11	15	[0, 0, 0]	n/a	catFR1	0	R1094T
1602.501	1.617	1544463	WORD	n/a	wordpools/wordpool_categorized_SP.txt	CICLOMOTOR	Vehicles	12	15	[0, 0, 0]	n/a	catFR1	0	R1094T
1604.118	0.001	1546080	DISTRACT_START	n/a	n/a	n/a	n/a	-999	15	[0, 0, 0]	n/a	catFR1	0	R1094T
1604.119	0.016	1546081	START	n/a	n/a	n/a	n/a	-999	15	[-999, -999, -999]	n/a	catFR1	0	R1094T
1604.135	7.451	1546097	PROB	7.416	n/a	n/a	n/a	-999	15	[6, 4, 7]	17.0	catFR1	0	R1094T
1611.586	4.118	1553548	PROB	4.085	n/a	n/a	n/a	-999	15	[9, 9, 3]	21.0	catFR1	0	R1094T
1615.704	5.4	1557665	PROB	5.375	n/a	n/a	n/a	-999	15	[5, 9, 1]	15.0	catFR1	0	R1094T
1621.104	6.696	1563065	PROB	6.696	n/a	n/a	n/a	-999	15	[6, 9, 4]	19.0	catFR1	0	R1094T
1627.8	0.007	1569761	STOP	n/a	n/a	n/a	n/a	-999	15	[-999, -999, -999]	n/a	catFR1	0	R1094T
1627.807	1.067	1569768	DISTRACT_END	n/a	n/a	n/a	n/a	-999	15	[0, 0, 0]	n/a	catFR1	0	R1094T
1628.874	15.749	1570835	REC_START	n/a	n/a	n/a	n/a	-999	15	[0, 0, 0]	n/a	catFR1	0	R1094T
1644.623	14.266	1586583	REC_WORD	15.749	n/a	ZAPATOS	n/a	-999	15	[0, 0, 0]	n/a	catFR1	0	R1094T
1658.889	1.639	1600848	REC_END	n/a	n/a	n/a	n/a	-999	15	[0, 0, 0]	n/a	catFR1	0	R1094T
1660.528	0.0	1602487	TRIAL	n/a	n/a	n/a	n/a	-999	16	[0, 0, 0]	n/a	catFR1	0	R1094T
1660.528	10.428	1602487	COUNTDOWN_START	n/a	n/a	n/a	n/a	-999	16	[0, 0, 0]	n/a	catFR1	0	R1094T
1670.956	0.009	1612915	COUNTDOWN_END	n/a	n/a	n/a	n/a	-999	16	[0, 0, 0]	n/a	catFR1	0	R1094T
1670.965	3.633	1612924	ORIENT	n/a	n/a	n/a	n/a	-999	16	[0, 0, 0]	n/a	catFR1	0	R1094T
1674.598	2.384	1616557	WORD	n/a	wordpools/wordpool_categorized_SP.txt	RON	Beverages	1	16	[0, 0, 0]	n/a	catFR1	0	R1094T
1676.982	2.483	1618940	WORD	n/a	wordpools/wordpool_categorized_SP.txt	CAFE	Beverages	2	16	[0, 0, 0]	n/a	catFR1	0	R1094T
1679.465	2.551	1621423	WORD	n/a	wordpools/wordpool_categorized_SP.txt	MESA	Furniture	3	16	[0, 0, 0]	n/a	catFR1	0	R1094T
1682.016	2.616	1623974	WORD	n/a	wordpools/wordpool_categorized_SP.txt	CATRE	Furniture	4	16	[0, 0, 0]	n/a	catFR1	0	R1094T
1684.632	2.601	1626590	WORD	n/a	wordpools/wordpool_categorized_SP.txt	ORQUIDEA	Flowers	5	16	[0, 0, 0]	n/a	catFR1	0	R1094T
1687.233	2.401	1629191	WORD	n/a	wordpools/wordpool_categorized_SP.txt	LIRIO	Flowers	6	16	[0, 0, 0]	n/a	catFR1	0	R1094T
1689.634	2.5	1631592	WORD	n/a	wordpools/wordpool_categorized_SP.txt	BIBLIOTECA	Furniture	7	16	[0, 0, 0]	n/a	catFR1	0	R1094T
1692.134	2.517	1634092	WORD	n/a	wordpools/wordpool_categorized_SP.txt	GABINETE	Furniture	8	16	[0, 0, 0]	n/a	catFR1	0	R1094T
1694.651	2.484	1636609	WORD	n/a	wordpools/wordpool_categorized_SP.txt	JUGO	Beverages	9	16	[0, 0, 0]	n/a	catFR1	0	R1094T
1697.135	2.618	1639092	WORD	n/a	wordpools/wordpool_categorized_SP.txt	AGUA	Beverages	10	16	[0, 0, 0]	n/a	catFR1	0	R1094T
1699.753	2.433	1641710	WORD	n/a	wordpools/wordpool_categorized_SP.txt	ROSA	Flowers	11	16	[0, 0, 0]	n/a	catFR1	0	R1094T
1702.186	1.601	1644143	WORD	n/a	wordpools/wordpool_categorized_SP.txt	GIRASOL	Flowers	12	16	[0, 0, 0]	n/a	catFR1	0	R1094T
1703.787	0.001	1645744	DISTRACT_START	n/a	n/a	n/a	n/a	-999	16	[0, 0, 0]	n/a	catFR1	0	R1094T
1703.788	0.016	1645745	START	n/a	n/a	n/a	n/a	-999	16	[-999, -999, -999]	n/a	catFR1	0	R1094T
1703.804	4.666	1645761	PROB	4.643	n/a	n/a	n/a	-999	16	[9, 1, 4]	14.0	catFR1	0	R1094T
1708.47	3.634	1650427	PROB	3.601	n/a	n/a	n/a	-999	16	[1, 5, 5]	11.0	catFR1	0	R1094T
1712.104	6.268	1654061	PROB	6.247	n/a	n/a	n/a	-999	16	[8, 3, 9]	20.0	catFR1	0	R1094T
1718.372	3.284	1660328	PROB	3.251	n/a	n/a	n/a	-999	16	[2, 5, 5]	12.0	catFR1	0	R1094T
1721.656	7.454	1663612	PROB	7.454	n/a	n/a	n/a	-999	16	[6, 5, 9]	20.0	catFR1	0	R1094T
1729.11	0.014	1671066	STOP	n/a	n/a	n/a	n/a	-999	16	[-999, -999, -999]	n/a	catFR1	0	R1094T
1729.124	1.218	1671080	DISTRACT_END	n/a	n/a	n/a	n/a	-999	16	[0, 0, 0]	n/a	catFR1	0	R1094T
1730.342	30.0	1672298	REC_START	n/a	n/a	n/a	n/a	-999	16	[0, 0, 0]	n/a	catFR1	0	R1094T
1760.342	0.011	1702296	REC_WORD_VV	30.0	n/a	<>	n/a	-999	16	[0, 0, 0]	n/a	catFR1	0	R1094T
1760.353	1.611	1702307	REC_END	n/a	n/a	n/a	n/a	-999	16	[0, 0, 0]	n/a	catFR1	0	R1094T
1761.964	0.0	1703918	TRIAL	n/a	n/a	n/a	n/a	-999	17	[0, 0, 0]	n/a	catFR1	0	R1094T
1761.964	10.428	1703918	COUNTDOWN_START	n/a	n/a	n/a	n/a	-999	17	[0, 0, 0]	n/a	catFR1	0	R1094T
1772.392	0.007	1714346	COUNTDOWN_END	n/a	n/a	n/a	n/a	-999	17	[0, 0, 0]	n/a	catFR1	0	R1094T
1772.399	3.734	1714353	ORIENT	n/a	n/a	n/a	n/a	-999	17	[0, 0, 0]	n/a	catFR1	0	R1094T
1776.133	2.45	1718087	WORD	n/a	wordpools/wordpool_categorized_SP.txt	CAMARON	OceanAnimals	1	17	[0, 0, 0]	n/a	catFR1	0	R1094T
1778.583	2.418	1720536	WORD	n/a	wordpools/wordpool_categorized_SP.txt	OSTRA	OceanAnimals	2	17	[0, 0, 0]	n/a	catFR1	0	R1094T
1781.001	2.483	1722954	WORD	n/a	wordpools/wordpool_categorized_SP.txt	CASITA	Toys	3	17	[0, 0, 0]	n/a	catFR1	0	R1094T
1783.484	2.418	1725437	WORD	n/a	wordpools/wordpool_categorized_SP.txt	FUTBOL	Toys	4	17	[0, 0, 0]	n/a	catFR1	0	R1094T
1785.902	2.5	1727855	WORD	n/a	wordpools/wordpool_categorized_SP.txt	TOCADOR	Furniture	5	17	[0, 0, 0]	n/a	catFR1	0	R1094T
1788.402	2.518	1730355	WORD	n/a	wordpools/wordpool_categorized_SP.txt	CAMA	Furniture	6	17	[0, 0, 0]	n/a	catFR1	0	R1094T
1790.92	2.599	1732873	WORD	n/a	wordpools/wordpool_categorized_SP.txt	CANGREJO	OceanAnimals	7	17	[0, 0, 0]	n/a	catFR1	0	R1094T
1793.519	2.617	1735472	WORD	n/a	wordpools/wordpool_categorized_SP.txt	PEZ	OceanAnimals	8	17	[0, 0, 0]	n/a	catFR1	0	R1094T
1796.136	2.534	1738089	WORD	n/a	wordpools/wordpool_categorized_SP.txt	ESCRITORIO	Furniture	9	17	[0, 0, 0]	n/a	catFR1	0	R1094T
1798.67	2.484	1740622	WORD	n/a	wordpools/wordpool_categorized_SP.txt	BURO	Furniture	10	17	[0, 0, 0]	n/a	catFR1	0	R1094T
1801.154	2.45	1743106	WORD	n/a	wordpools/wordpool_categorized_SP.txt	MUNECO	Toys	11	17	[0, 0, 0]	n/a	catFR1	0	R1094T
1803.604	1.617	1745556	WORD	n/a	wordpools/wordpool_categorized_SP.txt	CANICAS	Toys	12	17	[0, 0, 0]	n/a	catFR1	0	R1094T
1805.221	0.001	1747173	DISTRACT_START	n/a	n/a	n/a	n/a	-999	17	[0, 0, 0]	n/a	catFR1	0	R1094T
1805.222	0.016	1747174	START	n/a	n/a	n/a	n/a	-999	17	[-999, -999, -999]	n/a	catFR1	0	R1094T
1805.238	6.652	1747190	PROB	6.617	n/a	n/a	n/a	-999	17	[6, 3, 7]	16.0	catFR1	0	R1094T
1811.89	6.901	1753842	PROB	6.878	n/a	n/a	n/a	-999	17	[8, 6, 2]	16.0	catFR1	0	R1094T
1818.791	5.051	1760742	PROB	5.017	n/a	n/a	n/a	-999	17	[4, 4, 4]	12.0	catFR1	0	R1094T
1823.842	4.701	1765793	PROB	4.701	n/a	n/a	n/a	-999	17	[6, 4, 2]	12.0	catFR1	0	R1094T
1828.543	0.016	1770494	STOP	n/a	n/a	n/a	n/a	-999	17	[-999, -999, -999]	n/a	catFR1	0	R1094T
1828.559	1.134	1770510	DISTRACT_END	n/a	n/a	n/a	n/a	-999	17	[0, 0, 0]	n/a	catFR1	0	R1094T
1829.693	0.648	1771644	REC_START	n/a	n/a	n/a	n/a	-999	17	[0, 0, 0]	n/a	catFR1	0	R1094T
1830.341	29.363	1772292	REC_WORD	0.648	n/a	CAMARON	OceanAnimals	1	17	[0, 0, 0]	n/a	catFR1	0	R1094T
1859.704	1.927	1801653	REC_END	n/a	n/a	n/a	n/a	-999	17	[0, 0, 0]	n/a	catFR1	0	R1094T
1861.631	0.0	1803580	TRIAL	n/a	n/a	n/a	n/a	-999	18	[0, 0, 0]	n/a	catFR1	0	R1094T
1861.631	10.428	1803580	COUNTDOWN_START	n/a	n/a	n/a	n/a	-999	18	[0, 0, 0]	n/a	catFR1	0	R1094T
1872.059	0.008	1814008	COUNTDOWN_END	n/a	n/a	n/a	n/a	-999	18	[0, 0, 0]	n/a	catFR1	0	R1094T
1872.067	3.484	1814016	ORIENT	n/a	n/a	n/a	n/a	-999	18	[0, 0, 0]	n/a	catFR1	0	R1094T
1875.551	2.484	1817500	WORD	n/a	wordpools/wordpool_categorized_SP.txt	CIRUELA	Fruit	1	18	[0, 0, 0]	n/a	catFR1	0	R1094T
1878.035	2.433	1819984	WORD	n/a	wordpools/wordpool_categorized_SP.txt	PLATANO	Fruit	2	18	[0, 0, 0]	n/a	catFR1	0	R1094T
1880.468	2.601	1822416	WORD	n/a	wordpools/wordpool_categorized_SP.txt	PETIRROJO	Birds	3	18	[0, 0, 0]	n/a	catFR1	0	R1094T
1883.069	2.55	1825017	WORD	n/a	wordpools/wordpool_categorized_SP.txt	GANZO	Birds	4	18	[0, 0, 0]	n/a	catFR1	0	R1094T
1885.619	2.467	1827567	WORD	n/a	wordpools/wordpool_categorized_SP.txt	BECERRO	FarmAnimals	5	18	[0, 0, 0]	n/a	catFR1	0	R1094T
1888.086	2.551	1830034	WORD	n/a	wordpools/wordpool_categorized_SP.txt	CORDERO	FarmAnimals	6	18	[0, 0, 0]	n/a	catFR1	0	R1094T
1890.637	2.534	1832585	WORD	n/a	wordpools/wordpool_categorized_SP.txt	PATO	Birds	7	18	[0, 0, 0]	n/a	catFR1	0	R1094T
1893.171	2.4	1835119	WORD	n/a	wordpools/wordpool_categorized_SP.txt	PICHON	Birds	8	18	[0, 0, 0]	n/a	catFR1	0	R1094T
1895.571	2.567	1837519	WORD	n/a	wordpools/wordpool_categorized_SP.txt	ARANDANO	Fruit	9	18	[0, 0, 0]	n/a	catFR1	0	R1094T
1898.138	2.384	1840086	WORD	n/a	wordpools/wordpool_categorized_SP.txt	NARANJA	Fruit	10	18	[0, 0, 0]	n/a	catFR1	0	R1094T
1900.522	2.468	1842469	WORD	n/a	wordpools/wordpool_categorized_SP.txt	CERDO	FarmAnimals	11	18	[0, 0, 0]	n/a	catFR1	0	R1094T
1902.99	1.616	1844937	WORD	n/a	wordpools/wordpool_categorized_SP.txt	GALLINA	FarmAnimals	12	18	[0, 0, 0]	n/a	catFR1	0	R1094T
1904.606	0.001	1846553	DISTRACT_START	n/a	n/a	n/a	n/a	-999	18	[0, 0, 0]	n/a	catFR1	0	R1094T
1904.607	0.016	1846554	START	n/a	n/a	n/a	n/a	-999	18	[-999, -999, -999]	n/a	catFR1	0	R1094T
1904.623	4.417	1846570	PROB	4.385	n/a	n/a	n/a	-999	18	[2, 4, 2]	8.0	catFR1	0	R1094T
1909.04	5.852	1850987	PROB	5.824	n/a	n/a	n/a	-999	18	[9, 6, 9]	24.0	catFR1	0	R1094T
1914.892	6.952	1856839	PROB	6.924	n/a	n/a	n/a	-999	18	[7, 8, 3]	18.0	catFR1	0	R1094T
1921.844	4.515	1863790	PROB	4.515	n/a	n/a	n/a	-999	18	[4, 2, 8]	13.0	catFR1	0	R1094T
1926.359	0.018	1868305	STOP	n/a	n/a	n/a	n/a	-999	18	[-999, -999, -999]	n/a	catFR1	0	R1094T
1926.377	1.184	1868323	DISTRACT_END	n/a	n/a	n/a	n/a	-999	18	[0, 0, 0]	n/a	catFR1	0	R1094T
1927.561	1.52	1869507	REC_START	n/a	n/a	n/a	n/a	-999	18	[0, 0, 0]	n/a	catFR1	0	R1094T
1929.081	1.551	1871027	REC_WORD	1.52	n/a	ARANDANO	Fruit	9	18	[0, 0, 0]	n/a	catFR1	0	R1094T
1930.632	26.94	1872578	REC_WORD	3.071	n/a	PICHON	Birds	8	18	[0, 0, 0]	n/a	catFR1	0	R1094T
1957.572	1.727	1899517	REC_END	n/a	n/a	n/a	n/a	-999	18	[0, 0, 0]	n/a	catFR1	0	R1094T
1959.299	0.001	1901244	COUNTDOWN_START	n/a	n/a	n/a	n/a	-999	19	[0, 0, 0]	n/a	catFR1	0	R1094T
1959.3	10.427	1901245	TRIAL	n/a	n/a	n/a	n/a	-999	19	[0, 0, 0]	n/a	catFR1	0	R1094T
1969.727	0.009	1911671	COUNTDOWN_END	n/a	n/a	n/a	n/a	-999	19	[0, 0, 0]	n/a	catFR1	0	R1094T
1969.736	3.984	1911680	ORIENT	n/a	n/a	n/a	n/a	-999	19	[0, 0, 0]	n/a	catFR1	0	R1094T
1973.72	2.582	1915664	WORD	n/a	wordpools/wordpool_categorized_SP.txt	AVION	Vehicles	1	19	[0, 0, 0]	n/a	catFR1	0	R1094T
1976.302	2.502	1918246	WORD	n/a	wordpools/wordpool_categorized_SP.txt	CAMIONETA	Vehicles	2	19	[0, 0, 0]	n/a	catFR1	0	R1094T
1978.804	2.616	1920748	WORD	n/a	wordpools/wordpool_categorized_SP.txt	LLAVE	Tools	3	19	[0, 0, 0]	n/a	catFR1	0	R1094T
1981.42	2.552	1923363	WORD	n/a	wordpools/wordpool_categorized_SP.txt	PALA	Tools	4	19	[0, 0, 0]	n/a	catFR1	0	R1094T
1983.972	2.416	1925915	WORD	n/a	wordpools/wordpool_categorized_SP.txt	MARIPOSA	Insects	5	19	[0, 0, 0]	n/a	catFR1	0	R1094T
1986.388	2.467	1928331	WORD	n/a	wordpools/wordpool_categorized_SP.txt	GRILLO	Insects	6	19	[0, 0, 0]	n/a	catFR1	0	R1094T
1988.855	2.617	1930798	WORD	n/a	wordpools/wordpool_categorized_SP.txt	DESTORNILLADOR	Tools	7	19	[0, 0, 0]	n/a	catFR1	0	R1094T
1991.472	2.584	1933415	WORD	n/a	wordpools/wordpool_categorized_SP.txt	TRINQUETE	Tools	8	19	[0, 0, 0]	n/a	catFR1	0	R1094T
1994.056	2.5	1935999	WORD	n/a	wordpools/wordpool_categorized_SP.txt	AUTOBUS	Vehicles	9	19	[0, 0, 0]	n/a	catFR1	0	R1094T
1996.556	2.435	1938499	WORD	n/a	wordpools/wordpool_categorized_SP.txt	AUTO	Vehicles	10	19	[0, 0, 0]	n/a	catFR1	0	R1094T
1998.991	2.599	1940934	WORD	n/a	wordpools/wordpool_categorized_SP.txt	ESCARABAJO	Insects	11	19	[0, 0, 0]	n/a	catFR1	0	R1094T
2001.59	1.617	1943533	WORD	n/a	wordpools/wordpool_categorized_SP.txt	MARIQUITA	Insects	12	19	[0, 0, 0]	n/a	catFR1	0	R1094T
2003.207	0.001	1945149	DISTRACT_START	n/a	n/a	n/a	n/a	-999	19	[0, 0, 0]	n/a	catFR1	0	R1094T
2003.208	0.016	1945150	START	n/a	n/a	n/a	n/a	-999	19	[-999, -999, -999]	n/a	catFR1	0	R1094T
2003.224	6.851	1945166	PROB	6.823	n/a	n/a	n/a	-999	19	[9, 2, 8]	19.0	catFR1	0	R1094T
2010.075	3.869	1952017	PROB	3.837	n/a	n/a	n/a	-999	19	[8, 1, 2]	11.0	catFR1	0	R1094T
2013.944	4.7	1955886	PROB	4.679	n/a	n/a	n/a	-999	19	[6, 5, 5]	16.0	catFR1	0	R1094T
2018.644	4.747	1960586	PROB	4.747	n/a	n/a	n/a	-999	19	[9, 4, 1]	14.0	catFR1	0	R1094T
2023.391	0.02	1965332	STOP	n/a	n/a	n/a	n/a	-999	19	[-999, -999, -999]	n/a	catFR1	0	R1094T
2023.411	1.151	1965352	DISTRACT_END	n/a	n/a	n/a	n/a	-999	19	[0, 0, 0]	n/a	catFR1	0	R1094T
2024.562	0.857	1966503	REC_START	n/a	n/a	n/a	n/a	-999	19	[0, 0, 0]	n/a	catFR1	0	R1094T
2025.419	1.985	1967360	REC_WORD	0.857	n/a	DESTORNILLADOR	Tools	7	19	[0, 0, 0]	n/a	catFR1	0	R1094T
2027.404	3.724	1969345	REC_WORD	2.842	n/a	TRINQUETE	Tools	8	19	[0, 0, 0]	n/a	catFR1	0	R1094T
2031.128	17.607	1973069	REC_WORD	6.566	n/a	ESCARABAJO	Insects	11	19	[0, 0, 0]	n/a	catFR1	0	R1094T
2048.735	5.838	1990675	REC_WORD	24.173	n/a	CANGREJO	n/a	-999	19	[0, 0, 0]	n/a	catFR1	0	R1094T
2054.573	1.977	1996513	REC_END	n/a	n/a	n/a	n/a	-999	19	[0, 0, 0]	n/a	catFR1	0	R1094T
2056.55	0.001	1998490	COUNTDOWN_START	n/a	n/a	n/a	n/a	-999	20	[0, 0, 0]	n/a	catFR1	0	R1094T
2056.551	10.427	1998491	TRIAL	n/a	n/a	n/a	n/a	-999	20	[0, 0, 0]	n/a	catFR1	0	R1094T
2066.978	0.009	2008917	COUNTDOWN_END	n/a	n/a	n/a	n/a	-999	20	[0, 0, 0]	n/a	catFR1	0	R1094T
2066.987	3.599	2008926	ORIENT	n/a	n/a	n/a	n/a	-999	20	[0, 0, 0]	n/a	catFR1	0	R1094T
2070.586	2.517	2012525	WORD	n/a	wordpools/wordpool_categorized_SP.txt	HORNO	Appliances	1	20	[0, 0, 0]	n/a	catFR1	0	R1094T
2073.103	2.619	2015042	WORD	n/a	wordpools/wordpool_categorized_SP.txt	TOSTADORA	Appliances	2	20	[0, 0, 0]	n/a	catFR1	0	R1094T
2075.722	2.382	2017661	WORD	n/a	wordpools/wordpool_categorized_SP.txt	CEREZA	Fruit	3	20	[0, 0, 0]	n/a	catFR1	0	R1094T
2078.104	2.601	2020043	WORD	n/a	wordpools/wordpool_categorized_SP.txt	FRESA	Fruit	4	20	[0, 0, 0]	n/a	catFR1	0	R1094T
2080.705	2.384	2022644	WORD	n/a	wordpools/wordpool_categorized_SP.txt	PALANCA	Tools	5	20	[0, 0, 0]	n/a	catFR1	0	R1094T
2083.089	2.583	2025028	WORD	n/a	wordpools/wordpool_categorized_SP.txt	NIVEL	Tools	6	20	[0, 0, 0]	n/a	catFR1	0	R1094T
2085.672	2.451	2027610	WORD	n/a	wordpools/wordpool_categorized_SP.txt	MANZANA	Fruit	7	20	[0, 0, 0]	n/a	catFR1	0	R1094T
2088.123	2.55	2030061	WORD	n/a	wordpools/wordpool_categorized_SP.txt	DURAZNO	Fruit	8	20	[0, 0, 0]	n/a	catFR1	0	R1094T
2090.673	2.434	2032611	WORD	n/a	wordpools/wordpool_categorized_SP.txt	ESTUFA	Appliances	9	20	[0, 0, 0]	n/a	catFR1	0	R1094T
2093.107	2.417	2035045	WORD	n/a	wordpools/wordpool_categorized_SP.txt	CONGELADOR	Appliances	10	20	[0, 0, 0]	n/a	catFR1	0	R1094T
2095.524	2.601	2037462	WORD	n/a	wordpools/wordpool_categorized_SP.txt	HACHA	Tools	11	20	[0, 0, 0]	n/a	catFR1	0	R1094T
2098.125	1.618	2040063	WORD	n/a	wordpools/wordpool_categorized_SP.txt	SIERRA	Tools	12	20	[0, 0, 0]	n/a	catFR1	0	R1094T
2099.743	0.001	2041681	DISTRACT_START	n/a	n/a	n/a	n/a	-999	20	[0, 0, 0]	n/a	catFR1	0	R1094T
2099.744	0.015	2041682	START	n/a	n/a	n/a	n/a	-999	20	[-999, -999, -999]	n/a	catFR1	0	R1094T
2099.759	7.784	2041697	PROB	7.76	n/a	n/a	n/a	-999	20	[6, 3, 6]	15.0	catFR1	0	R1094T
2107.543	4.784	2049480	PROB	4.76	n/a	n/a	n/a	-999	20	[5, 8, 1]	14.0	catFR1	0	R1094T
2112.327	5.851	2054264	PROB	5.824	n/a	n/a	n/a	-999	20	[9, 2, 6]	17.0	catFR1	0	R1094T
2118.178	5.822	2060115	PROB	5.822	n/a	n/a	n/a	-999	20	[2, 7, 5]	14.0	catFR1	0	R1094T
2124.0	0.013	2065936	STOP	n/a	n/a	n/a	n/a	-999	20	[-999, -999, -999]	n/a	catFR1	0	R1094T
2124.013	1.084	2065949	DISTRACT_END	n/a	n/a	n/a	n/a	-999	20	[0, 0, 0]	n/a	catFR1	0	R1094T
2125.097	5.78	2067033	REC_START	n/a	n/a	n/a	n/a	-999	20	[0, 0, 0]	n/a	catFR1	0	R1094T
2130.877	19.48	2072813	REC_WORD	5.78	n/a	TOSTADORA	Appliances	2	20	[0, 0, 0]	n/a	catFR1	0	R1094T
2150.357	4.751	2092292	REC_WORD	25.26	n/a	AGUA	n/a	-999	20	[0, 0, 0]	n/a	catFR1	0	R1094T
2155.108	1.778	2097043	REC_END	n/a	n/a	n/a	n/a	-999	20	[0, 0, 0]	n/a	catFR1	0	R1094T
2156.886	0.001	2098821	COUNTDOWN_START	n/a	n/a	n/a	n/a	-999	21	[0, 0, 0]	n/a	catFR1	0	R1094T
2156.887	10.427	2098822	TRIAL	n/a	n/a	n/a	n/a	-999	21	[0, 0, 0]	n/a	catFR1	0	R1094T
2167.314	0.007	2109248	COUNTDOWN_END	n/a	n/a	n/a	n/a	-999	21	[0, 0, 0]	n/a	catFR1	0	R1094T
2167.321	3.85	2109255	ORIENT	n/a	n/a	n/a	n/a	-999	21	[0, 0, 0]	n/a	catFR1	0	R1094T
2171.171	2.501	2113105	WORD	n/a	wordpools/wordpool_categorized_SP.txt	LAVADORA	Appliances	1	21	[0, 0, 0]	n/a	catFR1	0	R1094T
2173.672	2.384	2115606	WORD	n/a	wordpools/wordpool_categorized_SP.txt	MEZCLA	Appliances	2	21	[0, 0, 0]	n/a	catFR1	0	R1094T
2176.056	2.633	2117990	WORD	n/a	wordpools/wordpool_categorized_SP.txt	ISLA	Landscapes	3	21	[0, 0, 0]	n/a	catFR1	0	R1094T
2178.689	2.501	2120623	WORD	n/a	wordpools/wordpool_categorized_SP.txt	COLINAS	Landscapes	4	21	[0, 0, 0]	n/a	catFR1	0	R1094T
2181.19	2.618	2123124	WORD	n/a	wordpools/wordpool_categorized_SP.txt	ARANA	Insects	5	21	[0, 0, 0]	n/a	catFR1	0	R1094T
2183.808	2.466	2125742	WORD	n/a	wordpools/wordpool_categorized_SP.txt	POLILLA	Insects	6	21	[0, 0, 0]	n/a	catFR1	0	R1094T
2186.274	2.485	2128207	WORD	n/a	wordpools/wordpool_categorized_SP.txt	LICUADORA	Appliances	7	21	[0, 0, 0]	n/a	catFR1	0	R1094T
2188.759	2.499	2130692	WORD	n/a	wordpools/wordpool_categorized_SP.txt	REFRIGERADOR	Appliances	8	21	[0, 0, 0]	n/a	catFR1	0	R1094T
2191.258	2.367	2133191	WORD	n/a	wordpools/wordpool_categorized_SP.txt	HORMIGA	Insects	9	21	[0, 0, 0]	n/a	catFR1	0	R1094T
2193.625	2.401	2135558	WORD	n/a	wordpools/wordpool_categorized_SP.txt	ZANCUDO	Insects	10	21	[0, 0, 0]	n/a	catFR1	0	R1094T
2196.026	2.534	2137959	WORD	n/a	wordpools/wordpool_categorized_SP.txt	CORRIENTE	Landscapes	11	21	[0, 0, 0]	n/a	catFR1	0	R1094T
2198.56	1.617	2140493	WORD	n/a	wordpools/wordpool_categorized_SP.txt	VALLE	Landscapes	12	21	[0, 0, 0]	n/a	catFR1	0	R1094T
2200.177	0.001	2142110	DISTRACT_START	n/a	n/a	n/a	n/a	-999	21	[0, 0, 0]	n/a	catFR1	0	R1094T
2200.178	0.015	2142111	START	n/a	n/a	n/a	n/a	-999	21	[-999, -999, -999]	n/a	catFR1	0	R1094T
2200.193	5.401	2142126	PROB	5.374	n/a	n/a	n/a	-999	21	[3, 4, 9]	16.0	catFR1	0	R1094T
2205.594	5.818	2147526	PROB	5.789	n/a	n/a	n/a	-999	21	[7, 5, 3]	15.0	catFR1	0	R1094T
2211.412	6.018	2153344	PROB	5.987	n/a	n/a	n/a	-999	21	[8, 1, 9]	18.0	catFR1	0	R1094T
2217.43	8.848	2159362	PROB	8.848	n/a	n/a	n/a	-999	21	[7, 6, 5]	18.0	catFR1	0	R1094T
2226.278	0.02	2168209	STOP	n/a	n/a	n/a	n/a	-999	21	[-999, -999, -999]	n/a	catFR1	0	R1094T
2226.298	1.034	2168229	DISTRACT_END	n/a	n/a	n/a	n/a	-999	21	[0, 0, 0]	n/a	catFR1	0	R1094T
2227.332	0.526	2169263	REC_START	n/a	n/a	n/a	n/a	-999	21	[0, 0, 0]	n/a	catFR1	0	R1094T
2227.858	29.489	2169789	REC_WORD	0.526	n/a	LICUADORA	Appliances	7	21	[0, 0, 0]	n/a	catFR1	0	R1094T
2257.347	1.29	2199277	REC_END	n/a	n/a	n/a	n/a	-999	21	[0, 0, 0]	n/a	catFR1	0	R1094T
2258.637	0.0	2200567	TRIAL	n/a	n/a	n/a	n/a	-999	22	[0, 0, 0]	n/a	catFR1	0	R1094T
2258.637	10.428	2200567	COUNTDOWN_START	n/a	n/a	n/a	n/a	-999	22	[0, 0, 0]	n/a	catFR1	0	R1094T
2269.065	0.007	2210994	COUNTDOWN_END	n/a	n/a	n/a	n/a	-999	22	[0, 0, 0]	n/a	catFR1	0	R1094T
2269.072	3.902	2211001	ORIENT	n/a	n/a	n/a	n/a	-999	22	[0, 0, 0]	n/a	catFR1	0	R1094T
2272.974	2.383	2214903	WORD	n/a	wordpools/wordpool_categorized_SP.txt	ORANGUTAN	Zoo	1	22	[0, 0, 0]	n/a	catFR1	0	R1094T
2275.357	2.568	2217286	WORD	n/a	wordpools/wordpool_categorized_SP.txt	CHIMPANCE	Zoo	2	22	[0, 0, 0]	n/a	catFR1	0	R1094T
2277.925	2.516	2219854	WORD	n/a	wordpools/wordpool_categorized_SP.txt	SECADORA	Appliances	3	22	[0, 0, 0]	n/a	catFR1	0	R1094T
2280.441	2.568	2222370	WORD	n/a	wordpools/wordpool_categorized_SP.txt	HIERRO	Appliances	4	22	[0, 0, 0]	n/a	catFR1	0	R1094T
2283.009	2.483	2224938	WORD	n/a	wordpools/wordpool_categorized_SP.txt	MOTOCICLETA	Vehicles	5	22	[0, 0, 0]	n/a	catFR1	0	R1094T
2285.492	2.435	2227421	WORD	n/a	wordpools/wordpool_categorized_SP.txt	JEEP	Vehicles	6	22	[0, 0, 0]	n/a	catFR1	0	R1094T
2287.927	2.516	2229855	WORD	n/a	wordpools/wordpool_categorized_SP.txt	LAVAPLATOS	Appliances	7	22	[0, 0, 0]	n/a	catFR1	0	R1094T
2290.443	2.485	2232371	WORD	n/a	wordpools/wordpool_categorized_SP.txt	ASPIRADORA	Appliances	8	22	[0, 0, 0]	n/a	catFR1	0	R1094T
2292.928	2.549	2234856	WORD	n/a	wordpools/wordpool_categorized_SP.txt	LEON	Zoo	9	22	[0, 0, 0]	n/a	catFR1	0	R1094T
2295.477	2.534	2237405	WORD	n/a	wordpools/wordpool_categorized_SP.txt	PANDA	Zoo	10	22	[0, 0, 0]	n/a	catFR1	0	R1094T
2298.011	2.584	2239939	WORD	n/a	wordpools/wordpool_categorized_SP.txt	PATINETA	Vehicles	11	22	[0, 0, 0]	n/a	catFR1	0	R1094T
2300.595	1.617	2242523	WORD	n/a	wordpools/wordpool_categorized_SP.txt	TREN	Vehicles	12	22	[0, 0, 0]	n/a	catFR1	0	R1094T
2302.212	0.001	2244140	DISTRACT_START	n/a	n/a	n/a	n/a	-999	22	[0, 0, 0]	n/a	catFR1	0	R1094T
2302.213	0.016	2244141	START	n/a	n/a	n/a	n/a	-999	22	[-999, -999, -999]	n/a	catFR1	0	R1094T
2302.229	4.568	2244157	PROB	4.539	n/a	n/a	n/a	-999	22	[1, 2, 3]	6.0	catFR1	0	R1094T
2306.797	3.733	2248725	PROB	3.713	n/a	n/a	n/a	-999	22	[3, 4, 1]	8.0	catFR1	0	R1094T
2310.53	3.634	2252457	PROB	3.613	n/a	n/a	n/a	-999	22	[2, 1, 1]	4.0	catFR1	0	R1094T
2314.164	5.151	2256091	PROB	5.123	n/a	n/a	n/a	-999	22	[8, 4, 1]	13.0	catFR1	0	R1094T
2319.315	5.212	2261242	PROB	5.212	n/a	n/a	n/a	-999	22	[4, 7, 7]	18.0	catFR1	0	R1094T
2324.527	0.006	2266454	STOP	n/a	n/a	n/a	n/a	-999	22	[-999, -999, -999]	n/a	catFR1	0	R1094T
2324.533	1.1	2266460	DISTRACT_END	n/a	n/a	n/a	n/a	-999	22	[0, 0, 0]	n/a	catFR1	0	R1094T
2325.633	29.994	2267560	REC_START	n/a	n/a	n/a	n/a	-999	22	[0, 0, 0]	n/a	catFR1	0	R1094T
2355.627	0.018	2297552	REC_WORD_VV	29.994	n/a	<>	n/a	-999	22	[0, 0, 0]	n/a	catFR1	0	R1094T
2355.645	1.56	2297570	REC_END	n/a	n/a	n/a	n/a	-999	22	[0, 0, 0]	n/a	catFR1	0	R1094T
2357.205	0.0	2299130	TRIAL	n/a	n/a	n/a	n/a	-999	23	[0, 0, 0]	n/a	catFR1	0	R1094T
2357.205	10.428	2299130	COUNTDOWN_START	n/a	n/a	n/a	n/a	-999	23	[0, 0, 0]	n/a	catFR1	0	R1094T
2367.633	0.007	2309558	COUNTDOWN_END	n/a	n/a	n/a	n/a	-999	23	[0, 0, 0]	n/a	catFR1	0	R1094T
2367.64	3.468	2309565	ORIENT	n/a	n/a	n/a	n/a	-999	23	[0, 0, 0]	n/a	catFR1	0	R1094T
2371.108	2.384	2313032	WORD	n/a	wordpools/wordpool_categorized_SP.txt	CERVEZA	Beverages	1	23	[0, 0, 0]	n/a	catFR1	0	R1094T
2373.492	2.533	2315416	WORD	n/a	wordpools/wordpool_categorized_SP.txt	SIDRA	Beverages	2	23	[0, 0, 0]	n/a	catFR1	0	R1094T
2376.025	2.551	2317949	WORD	n/a	wordpools/wordpool_categorized_SP.txt	TRUENO	Weather	3	23	[0, 0, 0]	n/a	catFR1	0	R1094T
2378.576	2.401	2320500	WORD	n/a	wordpools/wordpool_categorized_SP.txt	NIEVE	Weather	4	23	[0, 0, 0]	n/a	catFR1	0	R1094T
2380.977	2.55	2322901	WORD	n/a	wordpools/wordpool_categorized_SP.txt	PISO	Building	5	23	[0, 0, 0]	n/a	catFR1	0	R1094T
2383.527	2.434	2325451	WORD	n/a	wordpools/wordpool_categorized_SP.txt	PARED	Building	6	23	[0, 0, 0]	n/a	catFR1	0	R1094T
2385.961	2.417	2327885	WORD	n/a	wordpools/wordpool_categorized_SP.txt	SODA	Beverages	7	23	[0, 0, 0]	n/a	catFR1	0	R1094T
2388.378	2.534	2330302	WORD	n/a	wordpools/wordpool_categorized_SP.txt	LECHE	Beverages	8	23	[0, 0, 0]	n/a	catFR1	0	R1094T
2390.912	2.383	2332835	WORD	n/a	wordpools/wordpool_categorized_SP.txt	VENTANA	Building	9	23	[0, 0, 0]	n/a	catFR1	0	R1094T
2393.295	2.585	2335218	WORD	n/a	wordpools/wordpool_categorized_SP.txt	ATICO	Building	10	23	[0, 0, 0]	n/a	catFR1	0	R1094T
2395.88	2.449	2337803	WORD	n/a	wordpools/wordpool_categorized_SP.txt	LLOVIZNA	Weather	11	23	[0, 0, 0]	n/a	catFR1	0	R1094T
2398.329	1.601	2340252	WORD	n/a	wordpools/wordpool_categorized_SP.txt	TORMENTA	Weather	12	23	[0, 0, 0]	n/a	catFR1	0	R1094T
2399.93	0.002	2341853	DISTRACT_START	n/a	n/a	n/a	n/a	-999	23	[0, 0, 0]	n/a	catFR1	0	R1094T
2399.932	0.015	2341855	START	n/a	n/a	n/a	n/a	-999	23	[-999, -999, -999]	n/a	catFR1	0	R1094T
2399.947	4.4	2341870	PROB	4.364	n/a	n/a	n/a	-999	23	[1, 2, 3]	6.0	catFR1	0	R1094T
2404.347	5.419	2346270	PROB	5.389	n/a	n/a	n/a	-999	23	[8, 2, 5]	15.0	catFR1	0	R1094T
2409.766	5.151	2351688	PROB	5.13	n/a	n/a	n/a	-999	23	[6, 2, 2]	10.0	catFR1	0	R1094T
2414.917	6.754	2356839	PROB	6.754	n/a	n/a	n/a	-999	23	[4, 4, 7]	15.0	catFR1	0	R1094T
2421.671	0.013	2363593	STOP	n/a	n/a	n/a	n/a	-999	23	[-999, -999, -999]	n/a	catFR1	0	R1094T
2421.684	1.202	2363606	DISTRACT_END	n/a	n/a	n/a	n/a	-999	23	[0, 0, 0]	n/a	catFR1	0	R1094T
2422.886	30.0	2364808	REC_START	n/a	n/a	n/a	n/a	-999	23	[0, 0, 0]	n/a	catFR1	0	R1094T
2452.886	0.011	2394806	REC_WORD_VV	30.0	n/a	<>	n/a	-999	23	[0, 0, 0]	n/a	catFR1	0	R1094T
2452.897	1.426	2394817	REC_END	n/a	n/a	n/a	n/a	-999	23	[0, 0, 0]	n/a	catFR1	0	R1094T
2454.323	0.0	2396243	TRIAL	n/a	n/a	n/a	n/a	-999	24	[0, 0, 0]	n/a	catFR1	0	R1094T
2454.323	10.428	2396243	COUNTDOWN_START	n/a	n/a	n/a	n/a	-999	24	[0, 0, 0]	n/a	catFR1	0	R1094T
2464.751	0.025	2406671	COUNTDOWN_END	n/a	n/a	n/a	n/a	-999	24	[0, 0, 0]	n/a	catFR1	0	R1094T
2464.776	3.516	2406696	ORIENT	n/a	n/a	n/a	n/a	-999	24	[0, 0, 0]	n/a	catFR1	0	R1094T
2468.292	2.585	2410212	WORD	n/a	wordpools/wordpool_categorized_SP.txt	PAPEL	OfficeSupplies	1	24	[0, 0, 0]	n/a	catFR1	0	R1094T
2470.877	2.449	2412796	WORD	n/a	wordpools/wordpool_categorized_SP.txt	CINTA	OfficeSupplies	2	24	[0, 0, 0]	n/a	catFR1	0	R1094T
2473.326	2.468	2415245	WORD	n/a	wordpools/wordpool_categorized_SP.txt	LILA	Flowers	3	24	[0, 0, 0]	n/a	catFR1	0	R1094T
2475.794	2.433	2417713	WORD	n/a	wordpools/wordpool_categorized_SP.txt	CLAVEL	Flowers	4	24	[0, 0, 0]	n/a	catFR1	0	R1094T
2478.227	2.502	2420146	WORD	n/a	wordpools/wordpool_categorized_SP.txt	PINZON	Birds	5	24	[0, 0, 0]	n/a	catFR1	0	R1094T
2480.729	2.516	2422648	WORD	n/a	wordpools/wordpool_categorized_SP.txt	CUERVO	Birds	6	24	[0, 0, 0]	n/a	catFR1	0	R1094T
2483.245	2.367	2425164	WORD	n/a	wordpools/wordpool_categorized_SP.txt	GRAPADORA	OfficeSupplies	7	24	[0, 0, 0]	n/a	catFR1	0	R1094T
2485.612	2.617	2427531	WORD	n/a	wordpools/wordpool_categorized_SP.txt	ENCUADERNADO	OfficeSupplies	8	24	[0, 0, 0]	n/a	catFR1	0	R1094T
2488.229	2.467	2430148	WORD	n/a	wordpools/wordpool_categorized_SP.txt	AGUILA	Birds	9	24	[0, 0, 0]	n/a	catFR1	0	R1094T
2490.696	2.567	2432614	WORD	n/a	wordpools/wordpool_categorized_SP.txt	PALOMA	Birds	10	24	[0, 0, 0]	n/a	catFR1	0	R1094T
2493.263	2.535	2435181	WORD	n/a	wordpools/wordpool_categorized_SP.txt	PETUNIA	Flowers	11	24	[0, 0, 0]	n/a	catFR1	0	R1094T
2495.798	1.616	2437716	WORD	n/a	wordpools/wordpool_categorized_SP.txt	MARGARITA	Flowers	12	24	[0, 0, 0]	n/a	catFR1	0	R1094T
2497.414	0.001	2439332	DISTRACT_START	n/a	n/a	n/a	n/a	-999	24	[0, 0, 0]	n/a	catFR1	0	R1094T
2497.415	0.016	2439333	START	n/a	n/a	n/a	n/a	-999	24	[-999, -999, -999]	n/a	catFR1	0	R1094T
2497.431	3.917	2439349	PROB	3.888	n/a	n/a	n/a	-999	24	[6, 1, 2]	9.0	catFR1	0	R1094T
2501.348	6.386	2443266	PROB	6.354	n/a	n/a	n/a	-999	24	[9, 6, 4]	19.0	catFR1	0	R1094T
2507.734	6.85	2449652	PROB	6.825	n/a	n/a	n/a	-999	24	[8, 7, 6]	21.0	catFR1	0	R1094T
2514.584	6.703	2456501	PROB	6.703	n/a	n/a	n/a	-999	24	[3, 9, 7]	19.0	catFR1	0	R1094T
2521.287	0.015	2463204	STOP	n/a	n/a	n/a	n/a	-999	24	[-999, -999, -999]	n/a	catFR1	0	R1094T
2521.302	1.184	2463219	DISTRACT_END	n/a	n/a	n/a	n/a	-999	24	[0, 0, 0]	n/a	catFR1	0	R1094T
2522.486	1.233	2464403	REC_START	n/a	n/a	n/a	n/a	-999	24	[0, 0, 0]	n/a	catFR1	0	R1094T
2523.719	1.748	2465636	REC_WORD	1.233	n/a	PETUNIA	Flowers	11	24	[0, 0, 0]	n/a	catFR1	0	R1094T
2525.467	27.03	2467384	REC_WORD	2.981	n/a	ENCUADERNADO	OfficeSupplies	8	24	[0, 0, 0]	n/a	catFR1	0	R1094T
2552.497	1.611	2494412	REC_END	n/a	n/a	n/a	n/a	-999	24	[0, 0, 0]	n/a	catFR1	0	R1094T
2554.108	0.0	2496023	TRIAL	n/a	n/a	n/a	n/a	-999	25	[0, 0, 0]	n/a	catFR1	0	R1094T
2554.108	10.428	2496023	COUNTDOWN_START	n/a	n/a	n/a	n/a	-999	25	[0, 0, 0]	n/a	catFR1	0	R1094T
2564.536	0.007	2506451	COUNTDOWN_END	n/a	n/a	n/a	n/a	-999	25	[0, 0, 0]	n/a	catFR1	0	R1094T
2564.543	3.817	2506458	ORIENT	n/a	n/a	n/a	n/a	-999	25	[0, 0, 0]	n/a	catFR1	0	R1094T
2568.36	2.602	2510275	WORD	n/a	wordpools/wordpool_categorized_SP.txt	ESTEREO	Electronics	1	25	[0, 0, 0]	n/a	catFR1	0	R1094T
2570.962	2.466	2512877	WORD	n/a	wordpools/wordpool_categorized_SP.txt	IMPRESORA	Electronics	2	25	[0, 0, 0]	n/a	catFR1	0	R1094T
2573.428	2.485	2515342	WORD	n/a	wordpools/wordpool_categorized_SP.txt	BAJO	Instruments	3	25	[0, 0, 0]	n/a	catFR1	0	R1094T
2575.913	2.399	2517827	WORD	n/a	wordpools/wordpool_categorized_SP.txt	VIOLONCHELO	Instruments	4	25	[0, 0, 0]	n/a	catFR1	0	R1094T
2578.312	2.435	2520226	WORD	n/a	wordpools/wordpool_categorized_SP.txt	LLUVIA	Weather	5	25	[0, 0, 0]	n/a	catFR1	0	R1094T
2580.747	2.449	2522661	WORD	n/a	wordpools/wordpool_categorized_SP.txt	TORNADO	Weather	6	25	[0, 0, 0]	n/a	catFR1	0	R1094T
2583.196	2.401	2525110	WORD	n/a	wordpools/wordpool_categorized_SP.txt	TROMPETA	Instruments	7	25	[0, 0, 0]	n/a	catFR1	0	R1094T
2585.597	2.5	2527511	WORD	n/a	wordpools/wordpool_categorized_SP.txt	PIANO	Instruments	8	25	[0, 0, 0]	n/a	catFR1	0	R1094T
2588.097	2.451	2530011	WORD	n/a	wordpools/wordpool_categorized_SP.txt	TABLETA	Electronics	9	25	[0, 0, 0]	n/a	catFR1	0	R1094T
2590.548	2.584	2532462	WORD	n/a	wordpools/wordpool_categorized_SP.txt	AUDIFONOS	Electronics	10	25	[0, 0, 0]	n/a	catFR1	0	R1094T
2593.132	2.55	2535045	WORD	n/a	wordpools/wordpool_categorized_SP.txt	NIEBLA	Weather	11	25	[0, 0, 0]	n/a	catFR1	0	R1094T
2595.682	1.617	2537595	WORD	n/a	wordpools/wordpool_categorized_SP.txt	HURACAN	Weather	12	25	[0, 0, 0]	n/a	catFR1	0	R1094T
2597.299	0.001	2539212	DISTRACT_START	n/a	n/a	n/a	n/a	-999	25	[0, 0, 0]	n/a	catFR1	0	R1094T
2597.3	0.016	2539213	START	n/a	n/a	n/a	n/a	-999	25	[-999, -999, -999]	n/a	catFR1	0	R1094T
2597.316	4.967	2539229	PROB	4.938	n/a	n/a	n/a	-999	25	[3, 2, 1]	6.0	catFR1	0	R1094T
2602.283	5.719	2544196	PROB	5.685	n/a	n/a	n/a	-999	25	[8, 3, 6]	17.0	catFR1	0	R1094T
2608.002	6.4	2549915	PROB	6.365	n/a	n/a	n/a	-999	25	[4, 5, 7]	16.0	catFR1	0	R1094T
2614.402	7.534	2556314	PROB	7.534	n/a	n/a	n/a	-999	25	[3, 5, 7]	15.0	catFR1	0	R1094T
2621.936	0.018	2563848	STOP	n/a	n/a	n/a	n/a	-999	25	[-999, -999, -999]	n/a	catFR1	0	R1094T
2621.954	1.084	2563866	DISTRACT_END	n/a	n/a	n/a	n/a	-999	25	[0, 0, 0]	n/a	catFR1	0	R1094T
2623.038	30.0	2564950	REC_START	n/a	n/a	n/a	n/a	-999	25	[0, 0, 0]	n/a	catFR1	0	R1094T
2653.038	0.011	2594949	REC_WORD_VV	30.0	n/a	<>	n/a	-999	25	[0, 0, 0]	n/a	catFR1	0	R1094T
2653.049	1.394	2594960	REC_END	n/a	n/a	n/a	n/a	-999	25	[0, 0, 0]	n/a	catFR1	0	R1094T
2654.443	0.0	2596353	SESS_END	n/a	n/a	n/a	n/a	-999	25	[0, 0, 0]	n/a	catFR1	0	R1094T
