onset	duration	sample	trial_type	response_time	stim_file	item_name	category	serialpos	list	test	answer	experiment	session	subject
0.0	16.683	924254	SESS_START	n/a	n/a	n/a	n/a	-999	-999	[0, 0, 0]	n/a	catFR1	1	R1067P
16.683	10.428	932595	COUNTDOWN_START	n/a	n/a	n/a	n/a	-999	-999	[0, 0, 0]	n/a	catFR1	1	R1067P
27.111	3.625	937809	COUNTDOWN_END	n/a	n/a	n/a	n/a	-999	-999	[0, 0, 0]	n/a	catFR1	1	R1067P
30.736	2.518	939621	PRACTICE_WORD	n/a	n/a	FLOOD	n/a	-999	-999	[0, 0, 0]	n/a	catFR1	1	R1067P
33.254	2.399	940880	PRACTICE_WORD	n/a	n/a	RING	n/a	-999	-999	[0, 0, 0]	n/a	catFR1	1	R1067P
35.653	2.418	942079	PRACTICE_WORD	n/a	n/a	IRON	n/a	-999	-999	[0, 0, 0]	n/a	catFR1	1	R1067P
38.071	2.466	943288	PRACTICE_WORD	n/a	n/a	WAGON	n/a	-999	-999	[0, 0, 0]	n/a	catFR1	1	R1067P
40.537	2.552	944521	PRACTICE_WORD	n/a	n/a	TONGUE	n/a	-999	-999	[0, 0, 0]	n/a	catFR1	1	R1067P
43.089	2.617	945797	PRACTICE_WORD	n/a	n/a	ATTIC	n/a	-999	-999	[0, 0, 0]	n/a	catFR1	1	R1067P
45.706	2.4	947106	PRACTICE_WORD	n/a	n/a	WATCH	n/a	-999	-999	[0, 0, 0]	n/a	catFR1	1	R1067P
48.106	2.601	948306	PRACTICE_WORD	n/a	n/a	CAMEL	n/a	-999	-999	[0, 0, 0]	n/a	catFR1	1	R1067P
50.707	2.5	949606	PRACTICE_WORD	n/a	n/a	CHEST	n/a	-999	-999	[0, 0, 0]	n/a	catFR1	1	R1067P
53.207	2.567	950856	PRACTICE_WORD	n/a	n/a	COTTON	n/a	-999	-999	[0, 0, 0]	n/a	catFR1	1	R1067P
55.774	2.384	952139	PRACTICE_WORD	n/a	n/a	BEAM	n/a	-999	-999	[0, 0, 0]	n/a	catFR1	1	R1067P
58.158	1.617	953331	PRACTICE_WORD	n/a	n/a	RHINO	n/a	-999	-999	[0, 0, 0]	n/a	catFR1	1	R1067P
59.775	0.001	954140	PRACTICE_DISTRACT_START	n/a	n/a	n/a	n/a	-999	-999	[0, 0, 0]	n/a	catFR1	1	R1067P
59.776	0.016	954140	START	n/a	n/a	n/a	n/a	-999	-1	[-999, -999, -999]	n/a	catFR1	1	R1067P
59.792	4.783	954148	PROB	4.783	n/a	n/a	n/a	-999	-1	[5, 9, 7]	21	catFR1	1	R1067P
64.575	3.668	956540	PROB	3.668	n/a	n/a	n/a	-999	-1	[1, 1, 6]	8	catFR1	1	R1067P
68.243	3.601	958374	PROB	3.601	n/a	n/a	n/a	-999	-1	[4, 6, 8]	18	catFR1	1	R1067P
71.844	4.151	960174	PROB	4.151	n/a	n/a	n/a	-999	-1	[8, 7, 1]	16	catFR1	1	R1067P
75.995	3.807	962249	PROB	3.807	n/a	n/a	n/a	-999	-1	[2, 8, 8]	18	catFR1	1	R1067P
79.802	0.01	964153	STOP	n/a	n/a	n/a	n/a	-999	-1	[-999, -999, -999]	n/a	catFR1	1	R1067P
79.812	0.685	964158	PRACTICE_DISTRACT_END	n/a	n/a	n/a	n/a	-999	-999	[0, 0, 0]	n/a	catFR1	1	R1067P
80.497	30.515	964500	PRACTICE_REC_START	n/a	n/a	n/a	n/a	-999	-999	[0, 0, 0]	n/a	catFR1	1	R1067P
111.012	6.124	979757	PRACTICE_REC_END	n/a	n/a	n/a	n/a	-999	-999	[0, 0, 0]	n/a	catFR1	1	R1067P
117.136	0.0	982819	TRIAL	n/a	n/a	n/a	n/a	-999	1	[0, 0, 0]	n/a	catFR1	1	R1067P
117.136	10.428	982819	COUNTDOWN_START	n/a	n/a	n/a	n/a	-999	1	[0, 0, 0]	n/a	catFR1	1	R1067P
127.564	0.006	988033	COUNTDOWN_END	n/a	n/a	n/a	n/a	-999	1	[0, 0, 0]	n/a	catFR1	1	R1067P
127.57	3.718	988036	ORIENT	n/a	n/a	n/a	n/a	-999	1	[0, 0, 0]	n/a	catFR1	1	R1067P
131.288	2.451	989895	WORD	n/a	wordpools/wordpool_categorized_EN.txt	FORK	KitchenTools	1	1	[0, 0, 0]	n/a	catFR1	1	R1067P
133.739	2.4	991120	WORD	n/a	wordpools/wordpool_categorized_EN.txt	COLANDER	KitchenTools	2	1	[0, 0, 0]	n/a	catFR1	1	R1067P
136.139	2.467	992320	WORD	n/a	wordpools/wordpool_categorized_EN.txt	MOTH	Insects	3	1	[0, 0, 0]	n/a	catFR1	1	R1067P
138.606	2.451	993553	WORD	n/a	wordpools/wordpool_categorized_EN.txt	LADYBUG	Insects	4	1	[0, 0, 0]	n/a	catFR1	1	R1067P
141.057	2.616	994779	WORD	n/a	wordpools/wordpool_categorized_EN.txt	OCEAN	Landscapes	5	1	[0, 0, 0]	n/a	catFR1	1	R1067P
143.673	2.502	996087	WORD	n/a	wordpools/wordpool_categorized_EN.txt	STREAM	Landscapes	6	1	[0, 0, 0]	n/a	catFR1	1	R1067P
146.175	2.432	997338	WORD	n/a	wordpools/wordpool_categorized_EN.txt	TONGS	KitchenTools	7	1	[0, 0, 0]	n/a	catFR1	1	R1067P
148.607	2.585	998554	WORD	n/a	wordpools/wordpool_categorized_EN.txt	GRATER	KitchenTools	8	1	[0, 0, 0]	n/a	catFR1	1	R1067P
151.192	2.483	999846	WORD	n/a	wordpools/wordpool_categorized_EN.txt	MOUNTAIN	Landscapes	9	1	[0, 0, 0]	n/a	catFR1	1	R1067P
153.675	2.618	1001087	WORD	n/a	wordpools/wordpool_categorized_EN.txt	VALLEY	Landscapes	10	1	[0, 0, 0]	n/a	catFR1	1	R1067P
156.293	2.501	1002396	WORD	n/a	wordpools/wordpool_categorized_EN.txt	CRICKET	Insects	11	1	[0, 0, 0]	n/a	catFR1	1	R1067P
158.794	1.615	1003647	WORD	n/a	wordpools/wordpool_categorized_EN.txt	BEE	Insects	12	1	[0, 0, 0]	n/a	catFR1	1	R1067P
160.409	0.001	1004454	DISTRACT_START	n/a	n/a	n/a	n/a	-999	1	[0, 0, 0]	n/a	catFR1	1	R1067P
160.41	0.016	1004455	START	n/a	n/a	n/a	n/a	-999	1	[-999, -999, -999]	n/a	catFR1	1	R1067P
160.426	6.218	1004463	PROB	6.218	n/a	n/a	n/a	-999	1	[5, 8, 6]	19	catFR1	1	R1067P
166.644	4.052	1007572	PROB	4.052	n/a	n/a	n/a	-999	1	[2, 7, 8]	17	catFR1	1	R1067P
170.696	5.301	1009598	PROB	5.301	n/a	n/a	n/a	-999	1	[1, 8, 8]	17	catFR1	1	R1067P
175.997	4.516	1012248	PROB	4.516	n/a	n/a	n/a	-999	1	[5, 6, 3]	14	catFR1	1	R1067P
180.513	0.017	1014506	STOP	n/a	n/a	n/a	n/a	-999	1	[-999, -999, -999]	n/a	catFR1	1	R1067P
180.53	1.068	1014514	DISTRACT_END	n/a	n/a	n/a	n/a	-999	1	[0, 0, 0]	n/a	catFR1	1	R1067P
181.598	0.502	1015048	REC_START	n/a	n/a	n/a	n/a	-999	1	[0, 0, 0]	n/a	catFR1	1	R1067P
182.1	0.699	1015299	REC_WORD_VV	0.699	n/a	<>	n/a	-999	1	[0, 0, 0]	n/a	catFR1	1	R1067P
182.799	9.267	1015649	REC_WORD	9.267	n/a	COLANDER	KitchenTools	2	1	[0, 0, 0]	n/a	catFR1	1	R1067P
192.066	2.702	1020282	REC_WORD	2.702	n/a	MOUNTAIN	Landscapes	9	1	[0, 0, 0]	n/a	catFR1	1	R1067P
194.768	2.436	1021633	REC_WORD_VV	2.436	n/a	<>	n/a	-999	1	[0, 0, 0]	n/a	catFR1	1	R1067P
197.204	0.225	1022851	REC_WORD_VV	0.225	n/a	<>	n/a	-999	1	[0, 0, 0]	n/a	catFR1	1	R1067P
197.429	14.18	1022963	REC_WORD	14.18	n/a	MOTH	Insects	3	1	[0, 0, 0]	n/a	catFR1	1	R1067P
211.609	3.195	1030053	REC_END	n/a	n/a	n/a	n/a	-999	1	[0, 0, 0]	n/a	catFR1	1	R1067P
214.804	0.001	1031650	COUNTDOWN_START	n/a	n/a	n/a	n/a	-999	2	[0, 0, 0]	n/a	catFR1	1	R1067P
214.805	10.427	1031651	TRIAL	n/a	n/a	n/a	n/a	-999	2	[0, 0, 0]	n/a	catFR1	1	R1067P
225.232	0.007	1036864	COUNTDOWN_END	n/a	n/a	n/a	n/a	-999	2	[0, 0, 0]	n/a	catFR1	1	R1067P
225.239	3.618	1036868	ORIENT	n/a	n/a	n/a	n/a	-999	2	[0, 0, 0]	n/a	catFR1	1	R1067P
228.857	2.434	1038677	WORD	n/a	wordpools/wordpool_categorized_EN.txt	STAPLER	OfficeSupplies	1	2	[0, 0, 0]	n/a	catFR1	1	R1067P
231.291	2.533	1039894	WORD	n/a	wordpools/wordpool_categorized_EN.txt	PEN	OfficeSupplies	2	2	[0, 0, 0]	n/a	catFR1	1	R1067P
233.824	2.434	1041160	WORD	n/a	wordpools/wordpool_categorized_EN.txt	DOLPHIN	OceanAnimals	3	2	[0, 0, 0]	n/a	catFR1	1	R1067P
236.258	2.383	1042377	WORD	n/a	wordpools/wordpool_categorized_EN.txt	JELLYFISH	OceanAnimals	4	2	[0, 0, 0]	n/a	catFR1	1	R1067P
238.641	2.585	1043568	WORD	n/a	wordpools/wordpool_categorized_EN.txt	OVEN	Appliances	5	2	[0, 0, 0]	n/a	catFR1	1	R1067P
241.226	2.484	1044861	WORD	n/a	wordpools/wordpool_categorized_EN.txt	DRYER	Appliances	6	2	[0, 0, 0]	n/a	catFR1	1	R1067P
243.71	2.55	1046103	WORD	n/a	wordpools/wordpool_categorized_EN.txt	LOBSTER	OceanAnimals	7	2	[0, 0, 0]	n/a	catFR1	1	R1067P
246.26	2.534	1047378	WORD	n/a	wordpools/wordpool_categorized_EN.txt	SHRIMP	OceanAnimals	8	2	[0, 0, 0]	n/a	catFR1	1	R1067P
248.794	2.434	1048645	WORD	n/a	wordpools/wordpool_categorized_EN.txt	GLUE	OfficeSupplies	9	2	[0, 0, 0]	n/a	catFR1	1	R1067P
251.228	2.416	1049862	WORD	n/a	wordpools/wordpool_categorized_EN.txt	PENCIL	OfficeSupplies	10	2	[0, 0, 0]	n/a	catFR1	1	R1067P
253.644	2.468	1051069	WORD	n/a	wordpools/wordpool_categorized_EN.txt	TOASTER	Appliances	11	2	[0, 0, 0]	n/a	catFR1	1	R1067P
256.112	1.617	1052303	WORD	n/a	wordpools/wordpool_categorized_EN.txt	DISHWASHER	Appliances	12	2	[0, 0, 0]	n/a	catFR1	1	R1067P
257.729	0.001	1053112	DISTRACT_START	n/a	n/a	n/a	n/a	-999	2	[0, 0, 0]	n/a	catFR1	1	R1067P
257.73	0.016	1053112	START	n/a	n/a	n/a	n/a	-999	2	[-999, -999, -999]	n/a	catFR1	1	R1067P
257.746	4.749	1053120	PROB	4.749	n/a	n/a	n/a	-999	2	[1, 9, 3]	13	catFR1	1	R1067P
262.495	4.669	1055495	PROB	4.669	n/a	n/a	n/a	-999	2	[8, 8, 4]	20	catFR1	1	R1067P
267.164	3.383	1057829	PROB	3.383	n/a	n/a	n/a	-999	2	[4, 5, 5]	14	catFR1	1	R1067P
270.547	3.834	1059521	PROB	3.834	n/a	n/a	n/a	-999	2	[6, 5, 7]	19	catFR1	1	R1067P
274.381	5.124	1061437	PROB	5.124	n/a	n/a	n/a	-999	2	[9, 1, 3]	13	catFR1	1	R1067P
279.505	0.01	1063999	STOP	n/a	n/a	n/a	n/a	-999	2	[-999, -999, -999]	n/a	catFR1	1	R1067P
279.515	1.034	1064004	DISTRACT_END	n/a	n/a	n/a	n/a	-999	2	[0, 0, 0]	n/a	catFR1	1	R1067P
280.549	0.986	1064521	REC_START	n/a	n/a	n/a	n/a	-999	2	[0, 0, 0]	n/a	catFR1	1	R1067P
281.535	0.451	1065014	REC_WORD_VV	0.451	n/a	<>	n/a	-999	2	[0, 0, 0]	n/a	catFR1	1	R1067P
281.986	1.549	1065240	REC_WORD_VV	1.549	n/a	<>	n/a	-999	2	[0, 0, 0]	n/a	catFR1	1	R1067P
283.535	1.554	1066014	REC_WORD	1.554	n/a	PENCIL	OfficeSupplies	10	2	[0, 0, 0]	n/a	catFR1	1	R1067P
285.089	0.321	1066791	REC_WORD_VV	0.321	n/a	<>	n/a	-999	2	[0, 0, 0]	n/a	catFR1	1	R1067P
285.41	4.104	1066952	REC_WORD	4.104	n/a	GLUE	OfficeSupplies	9	2	[0, 0, 0]	n/a	catFR1	1	R1067P
289.514	0.377	1069004	REC_WORD_VV	0.377	n/a	<>	n/a	-999	2	[0, 0, 0]	n/a	catFR1	1	R1067P
289.891	1.324	1069192	REC_WORD	1.324	n/a	COLANDER	n/a	-999	2	[0, 0, 0]	n/a	catFR1	1	R1067P
291.215	1.932	1069854	REC_WORD_VV	1.932	n/a	<>	n/a	-999	2	[0, 0, 0]	n/a	catFR1	1	R1067P
293.147	7.328	1070820	REC_WORD_VV	7.328	n/a	<>	n/a	-999	2	[0, 0, 0]	n/a	catFR1	1	R1067P
300.475	3.127	1074484	REC_WORD	3.127	n/a	GLASSES	n/a	-999	2	[0, 0, 0]	n/a	catFR1	1	R1067P
303.602	6.962	1076047	REC_WORD	6.962	n/a	SHARPENER	n/a	-999	2	[0, 0, 0]	n/a	catFR1	1	R1067P
310.564	3.542	1079528	REC_END	n/a	n/a	n/a	n/a	-999	2	[0, 0, 0]	n/a	catFR1	1	R1067P
314.106	0.0	1081299	COUNTDOWN_START	n/a	n/a	n/a	n/a	-999	3	[0, 0, 0]	n/a	catFR1	1	R1067P
314.106	10.428	1081299	TRIAL	n/a	n/a	n/a	n/a	-999	3	[0, 0, 0]	n/a	catFR1	1	R1067P
324.534	0.006	1086513	COUNTDOWN_END	n/a	n/a	n/a	n/a	-999	3	[0, 0, 0]	n/a	catFR1	1	R1067P
324.54	3.968	1086516	ORIENT	n/a	n/a	n/a	n/a	-999	3	[0, 0, 0]	n/a	catFR1	1	R1067P
328.508	2.435	1088500	WORD	n/a	wordpools/wordpool_categorized_EN.txt	SANDER	Tools	1	3	[0, 0, 0]	n/a	catFR1	1	R1067P
330.943	2.482	1089717	WORD	n/a	wordpools/wordpool_categorized_EN.txt	CROWBAR	Tools	2	3	[0, 0, 0]	n/a	catFR1	1	R1067P
333.425	2.485	1090958	WORD	n/a	wordpools/wordpool_categorized_EN.txt	SHEEP	FarmAnimals	3	3	[0, 0, 0]	n/a	catFR1	1	R1067P
335.91	2.451	1092200	WORD	n/a	wordpools/wordpool_categorized_EN.txt	PIG	FarmAnimals	4	3	[0, 0, 0]	n/a	catFR1	1	R1067P
338.361	2.583	1093426	WORD	n/a	wordpools/wordpool_categorized_EN.txt	RAIN	Weather	5	3	[0, 0, 0]	n/a	catFR1	1	R1067P
340.944	2.617	1094717	WORD	n/a	wordpools/wordpool_categorized_EN.txt	DRIZZLE	Weather	6	3	[0, 0, 0]	n/a	catFR1	1	R1067P
343.561	2.584	1096026	WORD	n/a	wordpools/wordpool_categorized_EN.txt	COW	FarmAnimals	7	3	[0, 0, 0]	n/a	catFR1	1	R1067P
346.145	2.5	1097318	WORD	n/a	wordpools/wordpool_categorized_EN.txt	GOAT	FarmAnimals	8	3	[0, 0, 0]	n/a	catFR1	1	R1067P
348.645	2.534	1098568	WORD	n/a	wordpools/wordpool_categorized_EN.txt	WRENCH	Tools	9	3	[0, 0, 0]	n/a	catFR1	1	R1067P
351.179	2.4	1099835	WORD	n/a	wordpools/wordpool_categorized_EN.txt	AXE	Tools	10	3	[0, 0, 0]	n/a	catFR1	1	R1067P
353.579	2.452	1101034	WORD	n/a	wordpools/wordpool_categorized_EN.txt	THUNDER	Weather	11	3	[0, 0, 0]	n/a	catFR1	1	R1067P
356.031	1.616	1102260	WORD	n/a	wordpools/wordpool_categorized_EN.txt	THUNDERSTORM	Weather	12	3	[0, 0, 0]	n/a	catFR1	1	R1067P
357.647	0.001	1103068	DISTRACT_START	n/a	n/a	n/a	n/a	-999	3	[0, 0, 0]	n/a	catFR1	1	R1067P
357.648	0.015	1103069	START	n/a	n/a	n/a	n/a	-999	3	[-999, -999, -999]	n/a	catFR1	1	R1067P
357.663	4.585	1103076	PROB	4.585	n/a	n/a	n/a	-999	3	[8, 2, 1]	11	catFR1	1	R1067P
362.248	3.768	1105369	PROB	3.768	n/a	n/a	n/a	-999	3	[7, 7, 6]	20	catFR1	1	R1067P
366.016	3.583	1107253	PROB	3.583	n/a	n/a	n/a	-999	3	[5, 3, 9]	21	catFR1	1	R1067P
369.599	7.352	1109044	PROB	7.352	n/a	n/a	n/a	-999	3	[9, 1, 8]	18	catFR1	1	R1067P
376.951	4.698	1112720	PROB	4.698	n/a	n/a	n/a	-999	3	[3, 8, 4]	15	catFR1	1	R1067P
381.649	0.019	1115069	STOP	n/a	n/a	n/a	n/a	-999	3	[-999, -999, -999]	n/a	catFR1	1	R1067P
381.668	1.168	1115078	DISTRACT_END	n/a	n/a	n/a	n/a	-999	3	[0, 0, 0]	n/a	catFR1	1	R1067P
382.836	0.848	1115662	REC_START	n/a	n/a	n/a	n/a	-999	3	[0, 0, 0]	n/a	catFR1	1	R1067P
383.684	1.281	1116086	REC_WORD_VV	1.281	n/a	<>	n/a	-999	3	[0, 0, 0]	n/a	catFR1	1	R1067P
384.965	4.02	1116727	REC_WORD_VV	4.02	n/a	<>	n/a	-999	3	[0, 0, 0]	n/a	catFR1	1	R1067P
388.985	1.0	1118737	REC_WORD_VV	1.0	n/a	<>	n/a	-999	3	[0, 0, 0]	n/a	catFR1	1	R1067P
389.985	2.786	1119237	REC_WORD_VV	2.786	n/a	<>	n/a	-999	3	[0, 0, 0]	n/a	catFR1	1	R1067P
392.771	2.115	1120629	REC_WORD_VV	2.115	n/a	<>	n/a	-999	3	[0, 0, 0]	n/a	catFR1	1	R1067P
394.886	0.531	1121687	REC_WORD_VV	0.531	n/a	<>	n/a	-999	3	[0, 0, 0]	n/a	catFR1	1	R1067P
395.417	0.443	1121952	REC_WORD	0.443	n/a	THUNDER	Weather	11	3	[0, 0, 0]	n/a	catFR1	1	R1067P
395.86	0.192	1122174	REC_WORD_VV	0.192	n/a	<>	n/a	-999	3	[0, 0, 0]	n/a	catFR1	1	R1067P
396.052	16.798	1122270	REC_WORD	16.798	n/a	THUNDERSTORM	Weather	12	3	[0, 0, 0]	n/a	catFR1	1	R1067P
412.85	2.791	1130668	REC_END	n/a	n/a	n/a	n/a	-999	3	[0, 0, 0]	n/a	catFR1	1	R1067P
415.641	0.0	1132064	TRIAL	n/a	n/a	n/a	n/a	-999	4	[0, 0, 0]	n/a	catFR1	1	R1067P
415.641	10.428	1132064	COUNTDOWN_START	n/a	n/a	n/a	n/a	-999	4	[0, 0, 0]	n/a	catFR1	1	R1067P
426.069	0.008	1137278	COUNTDOWN_END	n/a	n/a	n/a	n/a	-999	4	[0, 0, 0]	n/a	catFR1	1	R1067P
426.077	3.717	1137282	ORIENT	n/a	n/a	n/a	n/a	-999	4	[0, 0, 0]	n/a	catFR1	1	R1067P
429.794	2.451	1139140	WORD	n/a	wordpools/wordpool_categorized_EN.txt	BASKETBALL	Toys	1	4	[0, 0, 0]	n/a	catFR1	1	R1067P
432.245	2.45	1140365	WORD	n/a	wordpools/wordpool_categorized_EN.txt	DOLL	Toys	2	4	[0, 0, 0]	n/a	catFR1	1	R1067P
434.695	2.584	1141590	WORD	n/a	wordpools/wordpool_categorized_EN.txt	CARROT	Vegetables	3	4	[0, 0, 0]	n/a	catFR1	1	R1067P
437.279	2.567	1142882	WORD	n/a	wordpools/wordpool_categorized_EN.txt	PEAS	Vegetables	4	4	[0, 0, 0]	n/a	catFR1	1	R1067P
439.846	2.467	1144166	WORD	n/a	wordpools/wordpool_categorized_EN.txt	CEDAR	Trees	5	4	[0, 0, 0]	n/a	catFR1	1	R1067P
442.313	2.517	1145399	WORD	n/a	wordpools/wordpool_categorized_EN.txt	WILLOW	Trees	6	4	[0, 0, 0]	n/a	catFR1	1	R1067P
444.83	2.583	1146658	WORD	n/a	wordpools/wordpool_categorized_EN.txt	LETTUCE	Vegetables	7	4	[0, 0, 0]	n/a	catFR1	1	R1067P
447.413	2.452	1147949	WORD	n/a	wordpools/wordpool_categorized_EN.txt	SPINACH	Vegetables	8	4	[0, 0, 0]	n/a	catFR1	1	R1067P
449.865	2.383	1149175	WORD	n/a	wordpools/wordpool_categorized_EN.txt	BARBIE	Toys	9	4	[0, 0, 0]	n/a	catFR1	1	R1067P
452.248	2.518	1150366	WORD	n/a	wordpools/wordpool_categorized_EN.txt	PUZZLE	Toys	10	4	[0, 0, 0]	n/a	catFR1	1	R1067P
454.766	2.533	1151625	WORD	n/a	wordpools/wordpool_categorized_EN.txt	MAPLE	Trees	11	4	[0, 0, 0]	n/a	catFR1	1	R1067P
457.299	1.618	1152892	WORD	n/a	wordpools/wordpool_categorized_EN.txt	OAK	Trees	12	4	[0, 0, 0]	n/a	catFR1	1	R1067P
458.917	0.001	1153701	DISTRACT_START	n/a	n/a	n/a	n/a	-999	4	[0, 0, 0]	n/a	catFR1	1	R1067P
458.918	0.015	1153701	START	n/a	n/a	n/a	n/a	-999	4	[-999, -999, -999]	n/a	catFR1	1	R1067P
458.933	5.534	1153709	PROB	5.534	n/a	n/a	n/a	-999	4	[4, 9, 2]	15	catFR1	1	R1067P
464.467	4.468	1156476	PROB	4.468	n/a	n/a	n/a	-999	4	[1, 4, 2]	7	catFR1	1	R1067P
468.935	3.767	1158710	PROB	3.767	n/a	n/a	n/a	-999	4	[6, 5, 9]	20	catFR1	1	R1067P
472.702	6.572	1160593	PROB	6.572	n/a	n/a	n/a	-999	4	[8, 9, 4]	21	catFR1	1	R1067P
479.274	0.013	1163879	STOP	n/a	n/a	n/a	n/a	-999	4	[-999, -999, -999]	n/a	catFR1	1	R1067P
479.287	1.184	1163885	DISTRACT_END	n/a	n/a	n/a	n/a	-999	4	[0, 0, 0]	n/a	catFR1	1	R1067P
480.471	0.974	1164477	REC_START	n/a	n/a	n/a	n/a	-999	4	[0, 0, 0]	n/a	catFR1	1	R1067P
481.445	7.391	1164964	REC_WORD_VV	7.391	n/a	<>	n/a	-999	4	[0, 0, 0]	n/a	catFR1	1	R1067P
488.836	0.2	1168660	REC_WORD_VV	0.2	n/a	<>	n/a	-999	4	[0, 0, 0]	n/a	catFR1	1	R1067P
489.036	9.527	1168760	REC_WORD	9.527	n/a	WILLOW	Trees	6	4	[0, 0, 0]	n/a	catFR1	1	R1067P
498.563	11.919	1173523	REC_WORD	11.919	n/a	BASKETBALL	Toys	1	4	[0, 0, 0]	n/a	catFR1	1	R1067P
510.482	2.745	1179482	REC_END	n/a	n/a	n/a	n/a	-999	4	[0, 0, 0]	n/a	catFR1	1	R1067P
513.227	0.0	1180854	TRIAL	n/a	n/a	n/a	n/a	-999	5	[0, 0, 0]	n/a	catFR1	1	R1067P
513.227	10.428	1180854	COUNTDOWN_START	n/a	n/a	n/a	n/a	-999	5	[0, 0, 0]	n/a	catFR1	1	R1067P
523.655	0.006	1186068	COUNTDOWN_END	n/a	n/a	n/a	n/a	-999	5	[0, 0, 0]	n/a	catFR1	1	R1067P
523.661	3.568	1186071	ORIENT	n/a	n/a	n/a	n/a	-999	5	[0, 0, 0]	n/a	catFR1	1	R1067P
527.229	2.467	1187855	WORD	n/a	wordpools/wordpool_categorized_EN.txt	BLENDER	Appliances	1	5	[0, 0, 0]	n/a	catFR1	1	R1067P
529.696	2.484	1189089	WORD	n/a	wordpools/wordpool_categorized_EN.txt	STOVE	Appliances	2	5	[0, 0, 0]	n/a	catFR1	1	R1067P
532.18	2.383	1190330	WORD	n/a	wordpools/wordpool_categorized_EN.txt	MICROWAVE	Electronics	3	5	[0, 0, 0]	n/a	catFR1	1	R1067P
534.563	2.585	1191522	WORD	n/a	wordpools/wordpool_categorized_EN.txt	TABLET	Electronics	4	5	[0, 0, 0]	n/a	catFR1	1	R1067P
537.148	2.466	1192814	WORD	n/a	wordpools/wordpool_categorized_EN.txt	JUICE	Beverages	5	5	[0, 0, 0]	n/a	catFR1	1	R1067P
539.614	2.385	1194047	WORD	n/a	wordpools/wordpool_categorized_EN.txt	WATER	Beverages	6	5	[0, 0, 0]	n/a	catFR1	1	R1067P
541.999	2.599	1195240	WORD	n/a	wordpools/wordpool_categorized_EN.txt	TELEVISION	Electronics	7	5	[0, 0, 0]	n/a	catFR1	1	R1067P
544.598	2.585	1196539	WORD	n/a	wordpools/wordpool_categorized_EN.txt	HEADPHONES	Electronics	8	5	[0, 0, 0]	n/a	catFR1	1	R1067P
547.183	2.5	1197832	WORD	n/a	wordpools/wordpool_categorized_EN.txt	MIXER	Appliances	9	5	[0, 0, 0]	n/a	catFR1	1	R1067P
549.683	2.401	1199082	WORD	n/a	wordpools/wordpool_categorized_EN.txt	REFRIGERATOR	Appliances	10	5	[0, 0, 0]	n/a	catFR1	1	R1067P
552.084	2.533	1200282	WORD	n/a	wordpools/wordpool_categorized_EN.txt	COLA	Beverages	11	5	[0, 0, 0]	n/a	catFR1	1	R1067P
554.617	1.618	1201548	WORD	n/a	wordpools/wordpool_categorized_EN.txt	COFFEE	Beverages	12	5	[0, 0, 0]	n/a	catFR1	1	R1067P
556.235	0.001	1202357	DISTRACT_START	n/a	n/a	n/a	n/a	-999	5	[0, 0, 0]	n/a	catFR1	1	R1067P
556.236	0.015	1202358	START	n/a	n/a	n/a	n/a	-999	5	[-999, -999, -999]	n/a	catFR1	1	R1067P
556.251	7.085	1202365	PROB	7.085	n/a	n/a	n/a	-999	5	[6, 7, 8]	21	catFR1	1	R1067P
563.336	3.467	1205908	PROB	3.467	n/a	n/a	n/a	-999	5	[6, 4, 3]	13	catFR1	1	R1067P
566.803	6.151	1207641	PROB	6.151	n/a	n/a	n/a	-999	5	[6, 7, 4]	17	catFR1	1	R1067P
572.954	3.284	1210716	PROB	3.284	n/a	n/a	n/a	-999	5	[4, 3, 3]	11	catFR1	1	R1067P
576.238	6.996	1212358	PROB	6.996	n/a	n/a	n/a	-999	5	[6, 7, 5]	18	catFR1	1	R1067P
583.234	0.006	1215856	STOP	n/a	n/a	n/a	n/a	-999	5	[-999, -999, -999]	n/a	catFR1	1	R1067P
583.24	1.101	1215859	DISTRACT_END	n/a	n/a	n/a	n/a	-999	5	[0, 0, 0]	n/a	catFR1	1	R1067P
584.341	0.864	1216410	REC_START	n/a	n/a	n/a	n/a	-999	5	[0, 0, 0]	n/a	catFR1	1	R1067P
585.205	1.065	1216842	REC_WORD_VV	1.065	n/a	<>	n/a	-999	5	[0, 0, 0]	n/a	catFR1	1	R1067P
586.27	0.635	1217374	REC_WORD	0.635	n/a	COLA	Beverages	11	5	[0, 0, 0]	n/a	catFR1	1	R1067P
586.905	0.405	1217692	REC_WORD_VV	0.405	n/a	<>	n/a	-999	5	[0, 0, 0]	n/a	catFR1	1	R1067P
587.31	0.842	1217894	REC_WORD	0.842	n/a	REFRIGERATOR	Appliances	10	5	[0, 0, 0]	n/a	catFR1	1	R1067P
588.152	0.443	1218315	REC_WORD_VV	0.443	n/a	<>	n/a	-999	5	[0, 0, 0]	n/a	catFR1	1	R1067P
588.595	1.008	1218537	REC_WORD	1.008	n/a	MICROWAVE	Electronics	3	5	[0, 0, 0]	n/a	catFR1	1	R1067P
589.603	0.253	1219041	REC_WORD_VV	0.253	n/a	<>	n/a	-999	5	[0, 0, 0]	n/a	catFR1	1	R1067P
589.856	7.055	1219167	REC_WORD	7.055	n/a	COFFEE	Beverages	12	5	[0, 0, 0]	n/a	catFR1	1	R1067P
596.911	2.426	1222694	REC_WORD_VV	2.426	n/a	<>	n/a	-999	5	[0, 0, 0]	n/a	catFR1	1	R1067P
599.337	0.949	1223907	REC_WORD_VV	0.949	n/a	<>	n/a	-999	5	[0, 0, 0]	n/a	catFR1	1	R1067P
600.286	0.718	1224382	REC_WORD	0.718	n/a	MICROWAVE	Electronics	3	5	[0, 0, 0]	n/a	catFR1	1	R1067P
601.004	11.018	1224741	REC_WORD	11.018	n/a	REFRIGERATOR	Appliances	10	5	[0, 0, 0]	n/a	catFR1	1	R1067P
612.022	2.331	1230249	REC_WORD	2.331	n/a	WATER	Beverages	6	5	[0, 0, 0]	n/a	catFR1	1	R1067P
614.353	7.961	1231415	REC_END	n/a	n/a	n/a	n/a	-999	5	[0, 0, 0]	n/a	catFR1	1	R1067P
622.314	0.0	1235395	TRIAL	n/a	n/a	n/a	n/a	-999	6	[0, 0, 0]	n/a	catFR1	1	R1067P
622.314	10.428	1235395	COUNTDOWN_START	n/a	n/a	n/a	n/a	-999	6	[0, 0, 0]	n/a	catFR1	1	R1067P
632.742	0.007	1240609	COUNTDOWN_END	n/a	n/a	n/a	n/a	-999	6	[0, 0, 0]	n/a	catFR1	1	R1067P
632.749	3.567	1240612	ORIENT	n/a	n/a	n/a	n/a	-999	6	[0, 0, 0]	n/a	catFR1	1	R1067P
636.316	2.417	1242396	WORD	n/a	wordpools/wordpool_categorized_EN.txt	TULIP	Flowers	1	6	[0, 0, 0]	n/a	catFR1	1	R1067P
638.733	2.468	1243604	WORD	n/a	wordpools/wordpool_categorized_EN.txt	SUNFLOWER	Flowers	2	6	[0, 0, 0]	n/a	catFR1	1	R1067P
641.201	2.466	1244838	WORD	n/a	wordpools/wordpool_categorized_EN.txt	WASHER	Appliances	3	6	[0, 0, 0]	n/a	catFR1	1	R1067P
643.667	2.618	1246071	WORD	n/a	wordpools/wordpool_categorized_EN.txt	VACUUM	Appliances	4	6	[0, 0, 0]	n/a	catFR1	1	R1067P
646.285	2.517	1247380	WORD	n/a	wordpools/wordpool_categorized_EN.txt	FINCH	Birds	5	6	[0, 0, 0]	n/a	catFR1	1	R1067P
648.802	2.434	1248639	WORD	n/a	wordpools/wordpool_categorized_EN.txt	HAWK	Birds	6	6	[0, 0, 0]	n/a	catFR1	1	R1067P
651.236	2.433	1249855	WORD	n/a	wordpools/wordpool_categorized_EN.txt	LILAC	Flowers	7	6	[0, 0, 0]	n/a	catFR1	1	R1067P
653.669	2.434	1251072	WORD	n/a	wordpools/wordpool_categorized_EN.txt	MARIGOLD	Flowers	8	6	[0, 0, 0]	n/a	catFR1	1	R1067P
656.103	2.55	1252289	WORD	n/a	wordpools/wordpool_categorized_EN.txt	SPARROW	Birds	9	6	[0, 0, 0]	n/a	catFR1	1	R1067P
658.653	2.435	1253564	WORD	n/a	wordpools/wordpool_categorized_EN.txt	BLUEBIRD	Birds	10	6	[0, 0, 0]	n/a	catFR1	1	R1067P
661.088	2.617	1254781	WORD	n/a	wordpools/wordpool_categorized_EN.txt	FREEZER	Appliances	11	6	[0, 0, 0]	n/a	catFR1	1	R1067P
663.705	1.617	1256090	WORD	n/a	wordpools/wordpool_categorized_EN.txt	IRON	Appliances	12	6	[0, 0, 0]	n/a	catFR1	1	R1067P
665.322	0.001	1256898	DISTRACT_START	n/a	n/a	n/a	n/a	-999	6	[0, 0, 0]	n/a	catFR1	1	R1067P
665.323	0.015	1256899	START	n/a	n/a	n/a	n/a	-999	6	[-999, -999, -999]	n/a	catFR1	1	R1067P
665.338	5.435	1256906	PROB	5.435	n/a	n/a	n/a	-999	6	[4, 3, 8]	15	catFR1	1	R1067P
670.773	7.201	1259623	PROB	7.201	n/a	n/a	n/a	-999	6	[7, 9, 7]	22	catFR1	1	R1067P
677.974	3.167	1263224	PROB	3.167	n/a	n/a	n/a	-999	6	[2, 1, 8]	11	catFR1	1	R1067P
681.141	3.918	1264807	PROB	3.918	n/a	n/a	n/a	-999	6	[4, 6, 6]	16	catFR1	1	R1067P
685.059	3.727	1266766	PROB	3.727	n/a	n/a	n/a	-999	6	[8, 4, 6]	18	catFR1	1	R1067P
688.786	0.007	1268630	STOP	n/a	n/a	n/a	n/a	-999	6	[-999, -999, -999]	n/a	catFR1	1	R1067P
688.793	1.117	1268633	DISTRACT_END	n/a	n/a	n/a	n/a	-999	6	[0, 0, 0]	n/a	catFR1	1	R1067P
689.91	0.73	1269192	REC_START	n/a	n/a	n/a	n/a	-999	6	[0, 0, 0]	n/a	catFR1	1	R1067P
690.64	1.943	1269556	REC_WORD_VV	1.943	n/a	<>	n/a	-999	6	[0, 0, 0]	n/a	catFR1	1	R1067P
692.583	1.0	1270528	REC_WORD_VV	1.0	n/a	<>	n/a	-999	6	[0, 0, 0]	n/a	catFR1	1	R1067P
693.583	0.303	1271028	REC_WORD_VV	0.303	n/a	<>	n/a	-999	6	[0, 0, 0]	n/a	catFR1	1	R1067P
693.886	4.372	1271179	REC_WORD	4.372	n/a	SPARROW	Birds	9	6	[0, 0, 0]	n/a	catFR1	1	R1067P
698.258	1.516	1273365	REC_WORD	1.516	n/a	HAWK	Birds	6	6	[0, 0, 0]	n/a	catFR1	1	R1067P
699.774	1.07	1274123	REC_WORD	1.07	n/a	REFRIGERATOR	n/a	-999	6	[0, 0, 0]	n/a	catFR1	1	R1067P
700.844	1.0	1274658	REC_WORD_VV	1.0	n/a	<>	n/a	-999	6	[0, 0, 0]	n/a	catFR1	1	R1067P
701.844	1.0	1275158	REC_WORD_VV	1.0	n/a	<>	n/a	-999	6	[0, 0, 0]	n/a	catFR1	1	R1067P
702.844	1.0	1275658	REC_WORD_VV	1.0	n/a	<>	n/a	-999	6	[0, 0, 0]	n/a	catFR1	1	R1067P
703.844	1.0	1276158	REC_WORD_VV	1.0	n/a	<>	n/a	-999	6	[0, 0, 0]	n/a	catFR1	1	R1067P
704.844	3.086	1276658	REC_WORD_VV	3.086	n/a	<>	n/a	-999	6	[0, 0, 0]	n/a	catFR1	1	R1067P
707.93	0.692	1278201	REC_WORD_VV	0.692	n/a	<>	n/a	-999	6	[0, 0, 0]	n/a	catFR1	1	R1067P
708.622	6.176	1278547	REC_WORD	6.176	n/a	LILAC	Flowers	7	6	[0, 0, 0]	n/a	catFR1	1	R1067P
714.798	0.318	1281635	REC_WORD_VV	0.318	n/a	<>	n/a	-999	6	[0, 0, 0]	n/a	catFR1	1	R1067P
715.116	0.509	1281794	REC_WORD	0.509	n/a	HAWK	Birds	6	6	[0, 0, 0]	n/a	catFR1	1	R1067P
715.625	4.3	1282048	REC_WORD	4.3	n/a	SPARROW	Birds	9	6	[0, 0, 0]	n/a	catFR1	1	R1067P
719.925	3.024	1284198	REC_END	n/a	n/a	n/a	n/a	-999	6	[0, 0, 0]	n/a	catFR1	1	R1067P
722.949	0.0	1285710	TRIAL	n/a	n/a	n/a	n/a	-999	7	[0, 0, 0]	n/a	catFR1	1	R1067P
722.949	10.428	1285710	COUNTDOWN_START	n/a	n/a	n/a	n/a	-999	7	[0, 0, 0]	n/a	catFR1	1	R1067P
733.377	0.007	1290924	COUNTDOWN_END	n/a	n/a	n/a	n/a	-999	7	[0, 0, 0]	n/a	catFR1	1	R1067P
733.384	3.635	1290927	ORIENT	n/a	n/a	n/a	n/a	-999	7	[0, 0, 0]	n/a	catFR1	1	R1067P
737.019	2.432	1292745	WORD	n/a	wordpools/wordpool_categorized_EN.txt	ONION	Vegetables	1	7	[0, 0, 0]	n/a	catFR1	1	R1067P
739.451	2.485	1293961	WORD	n/a	wordpools/wordpool_categorized_EN.txt	CUCUMBER	Vegetables	2	7	[0, 0, 0]	n/a	catFR1	1	R1067P
741.936	2.483	1295203	WORD	n/a	wordpools/wordpool_categorized_EN.txt	LIME	Fruit	3	7	[0, 0, 0]	n/a	catFR1	1	R1067P
744.419	2.418	1296445	WORD	n/a	wordpools/wordpool_categorized_EN.txt	STRAWBERRY	Fruit	4	7	[0, 0, 0]	n/a	catFR1	1	R1067P
746.837	2.517	1297654	WORD	n/a	wordpools/wordpool_categorized_EN.txt	BED	Furniture	5	7	[0, 0, 0]	n/a	catFR1	1	R1067P
749.354	2.501	1298912	WORD	n/a	wordpools/wordpool_categorized_EN.txt	DRESSER	Furniture	6	7	[0, 0, 0]	n/a	catFR1	1	R1067P
751.855	2.467	1300162	WORD	n/a	wordpools/wordpool_categorized_EN.txt	CORN	Vegetables	7	7	[0, 0, 0]	n/a	catFR1	1	R1067P
754.322	2.6	1301396	WORD	n/a	wordpools/wordpool_categorized_EN.txt	CABBAGE	Vegetables	8	7	[0, 0, 0]	n/a	catFR1	1	R1067P
756.922	2.499	1302696	WORD	n/a	wordpools/wordpool_categorized_EN.txt	TABLE	Furniture	9	7	[0, 0, 0]	n/a	catFR1	1	R1067P
759.421	2.502	1303945	WORD	n/a	wordpools/wordpool_categorized_EN.txt	BOOKCASE	Furniture	10	7	[0, 0, 0]	n/a	catFR1	1	R1067P
761.923	2.483	1305196	WORD	n/a	wordpools/wordpool_categorized_EN.txt	PEACH	Fruit	11	7	[0, 0, 0]	n/a	catFR1	1	R1067P
764.406	1.601	1306438	WORD	n/a	wordpools/wordpool_categorized_EN.txt	LEMON	Fruit	12	7	[0, 0, 0]	n/a	catFR1	1	R1067P
766.007	0.001	1307238	DISTRACT_START	n/a	n/a	n/a	n/a	-999	7	[0, 0, 0]	n/a	catFR1	1	R1067P
766.008	0.016	1307239	START	n/a	n/a	n/a	n/a	-999	7	[-999, -999, -999]	n/a	catFR1	1	R1067P
766.024	4.6	1307247	PROB	4.6	n/a	n/a	n/a	-999	7	[5, 8, 7]	21	catFR1	1	R1067P
770.624	12.203	1309546	PROB	12.203	n/a	n/a	n/a	-999	7	[2, 5, 1]	8	catFR1	1	R1067P
782.827	6.871	1315648	PROB	6.871	n/a	n/a	n/a	-999	7	[9, 7, 2]	17	catFR1	1	R1067P
789.698	0.014	1319083	STOP	n/a	n/a	n/a	n/a	-999	7	[-999, -999, -999]	n/a	catFR1	1	R1067P
789.712	1.101	1319090	DISTRACT_END	n/a	n/a	n/a	n/a	-999	7	[0, 0, 0]	n/a	catFR1	1	R1067P
790.813	4.817	1319640	REC_START	n/a	n/a	n/a	n/a	-999	7	[0, 0, 0]	n/a	catFR1	1	R1067P
795.63	1.0	1322049	REC_WORD_VV	1.0	n/a	<>	n/a	-999	7	[0, 0, 0]	n/a	catFR1	1	R1067P
796.63	3.39	1322549	REC_WORD_VV	3.39	n/a	<>	n/a	-999	7	[0, 0, 0]	n/a	catFR1	1	R1067P
800.02	1.0	1324244	REC_WORD_VV	1.0	n/a	<>	n/a	-999	7	[0, 0, 0]	n/a	catFR1	1	R1067P
801.02	1.0	1324744	REC_WORD_VV	1.0	n/a	<>	n/a	-999	7	[0, 0, 0]	n/a	catFR1	1	R1067P
802.02	18.804	1325244	REC_WORD_VV	18.804	n/a	<>	n/a	-999	7	[0, 0, 0]	n/a	catFR1	1	R1067P
820.824	4.311	1334645	REC_END	n/a	n/a	n/a	n/a	-999	7	[0, 0, 0]	n/a	catFR1	1	R1067P
825.135	0.0	1336801	TRIAL	n/a	n/a	n/a	n/a	-999	8	[0, 0, 0]	n/a	catFR1	1	R1067P
825.135	10.428	1336801	COUNTDOWN_START	n/a	n/a	n/a	n/a	-999	8	[0, 0, 0]	n/a	catFR1	1	R1067P
835.563	0.006	1342014	COUNTDOWN_END	n/a	n/a	n/a	n/a	-999	8	[0, 0, 0]	n/a	catFR1	1	R1067P
835.569	3.785	1342017	ORIENT	n/a	n/a	n/a	n/a	-999	8	[0, 0, 0]	n/a	catFR1	1	R1067P
839.354	2.617	1343910	WORD	n/a	wordpools/wordpool_categorized_EN.txt	CARDINAL	Birds	1	8	[0, 0, 0]	n/a	catFR1	1	R1067P
841.971	2.384	1345218	WORD	n/a	wordpools/wordpool_categorized_EN.txt	DUCK	Birds	2	8	[0, 0, 0]	n/a	catFR1	1	R1067P
844.355	2.484	1346410	WORD	n/a	wordpools/wordpool_categorized_EN.txt	EAR	BodyParts	3	8	[0, 0, 0]	n/a	catFR1	1	R1067P
846.839	2.5	1347652	WORD	n/a	wordpools/wordpool_categorized_EN.txt	HAND	BodyParts	4	8	[0, 0, 0]	n/a	catFR1	1	R1067P
849.339	2.434	1348902	WORD	n/a	wordpools/wordpool_categorized_EN.txt	LION	Zoo	5	8	[0, 0, 0]	n/a	catFR1	1	R1067P
851.773	2.384	1350119	WORD	n/a	wordpools/wordpool_categorized_EN.txt	ELEPHANT	Zoo	6	8	[0, 0, 0]	n/a	catFR1	1	R1067P
854.157	2.4	1351311	WORD	n/a	wordpools/wordpool_categorized_EN.txt	PIGEON	Birds	7	8	[0, 0, 0]	n/a	catFR1	1	R1067P
856.557	2.384	1352511	WORD	n/a	wordpools/wordpool_categorized_EN.txt	ROBIN	Birds	8	8	[0, 0, 0]	n/a	catFR1	1	R1067P
858.941	2.6	1353703	WORD	n/a	wordpools/wordpool_categorized_EN.txt	CHEETAH	Zoo	9	8	[0, 0, 0]	n/a	catFR1	1	R1067P
861.541	2.468	1355003	WORD	n/a	wordpools/wordpool_categorized_EN.txt	ORANGUTAN	Zoo	10	8	[0, 0, 0]	n/a	catFR1	1	R1067P
864.009	2.583	1356237	WORD	n/a	wordpools/wordpool_categorized_EN.txt	FOOT	BodyParts	11	8	[0, 0, 0]	n/a	catFR1	1	R1067P
866.592	1.618	1357528	WORD	n/a	wordpools/wordpool_categorized_EN.txt	FINGERS	BodyParts	12	8	[0, 0, 0]	n/a	catFR1	1	R1067P
868.21	0.001	1358337	DISTRACT_START	n/a	n/a	n/a	n/a	-999	8	[0, 0, 0]	n/a	catFR1	1	R1067P
868.211	0.015	1358338	START	n/a	n/a	n/a	n/a	-999	8	[-999, -999, -999]	n/a	catFR1	1	R1067P
868.226	7.652	1358345	PROB	7.652	n/a	n/a	n/a	-999	8	[4, 4, 6]	14	catFR1	1	R1067P
875.878	4.317	1362171	PROB	4.317	n/a	n/a	n/a	-999	8	[4, 6, 7]	17	catFR1	1	R1067P
880.195	6.434	1364329	PROB	6.434	n/a	n/a	n/a	-999	8	[8, 5, 7]	20	catFR1	1	R1067P
886.629	4.349	1367546	PROB	4.349	n/a	n/a	n/a	-999	8	[5, 4, 5]	14	catFR1	1	R1067P
890.978	0.003	1369720	STOP	n/a	n/a	n/a	n/a	-999	8	[-999, -999, -999]	n/a	catFR1	1	R1067P
890.981	1.134	1369722	DISTRACT_END	n/a	n/a	n/a	n/a	-999	8	[0, 0, 0]	n/a	catFR1	1	R1067P
892.115	0.414	1370289	REC_START	n/a	n/a	n/a	n/a	-999	8	[0, 0, 0]	n/a	catFR1	1	R1067P
892.529	0.548	1370496	REC_WORD_VV	0.548	n/a	<>	n/a	-999	8	[0, 0, 0]	n/a	catFR1	1	R1067P
893.077	2.734	1370770	REC_WORD	2.734	n/a	ORANGUTAN	Zoo	10	8	[0, 0, 0]	n/a	catFR1	1	R1067P
895.811	12.421	1372137	REC_WORD_VV	12.421	n/a	<>	n/a	-999	8	[0, 0, 0]	n/a	catFR1	1	R1067P
908.232	1.077	1378347	REC_WORD	1.077	n/a	FOOT	BodyParts	11	8	[0, 0, 0]	n/a	catFR1	1	R1067P
909.309	12.817	1378886	REC_WORD	12.817	n/a	HAND	BodyParts	4	8	[0, 0, 0]	n/a	catFR1	1	R1067P
922.126	2.778	1385294	REC_END	n/a	n/a	n/a	n/a	-999	8	[0, 0, 0]	n/a	catFR1	1	R1067P
924.904	0.0	1386683	TRIAL	n/a	n/a	n/a	n/a	-999	9	[0, 0, 0]	n/a	catFR1	1	R1067P
924.904	10.428	1386683	COUNTDOWN_START	n/a	n/a	n/a	n/a	-999	9	[0, 0, 0]	n/a	catFR1	1	R1067P
935.332	0.007	1391896	COUNTDOWN_END	n/a	n/a	n/a	n/a	-999	9	[0, 0, 0]	n/a	catFR1	1	R1067P
935.339	3.9	1391900	ORIENT	n/a	n/a	n/a	n/a	-999	9	[0, 0, 0]	n/a	catFR1	1	R1067P
939.239	2.433	1393850	WORD	n/a	wordpools/wordpool_categorized_EN.txt	FLOOR	Building	1	9	[0, 0, 0]	n/a	catFR1	1	R1067P
941.672	2.452	1395066	WORD	n/a	wordpools/wordpool_categorized_EN.txt	BATHROOM	Building	2	9	[0, 0, 0]	n/a	catFR1	1	R1067P
944.124	2.433	1396292	WORD	n/a	wordpools/wordpool_categorized_EN.txt	DESK	Furniture	3	9	[0, 0, 0]	n/a	catFR1	1	R1067P
946.557	2.568	1397509	WORD	n/a	wordpools/wordpool_categorized_EN.txt	SHELF	Furniture	4	9	[0, 0, 0]	n/a	catFR1	1	R1067P
949.125	2.567	1398793	WORD	n/a	wordpools/wordpool_categorized_EN.txt	STRAINER	KitchenTools	5	9	[0, 0, 0]	n/a	catFR1	1	R1067P
951.692	2.5	1400076	WORD	n/a	wordpools/wordpool_categorized_EN.txt	PEELER	KitchenTools	6	9	[0, 0, 0]	n/a	catFR1	1	R1067P
954.192	2.467	1401326	WORD	n/a	wordpools/wordpool_categorized_EN.txt	HALLWAY	Building	7	9	[0, 0, 0]	n/a	catFR1	1	R1067P
956.659	2.434	1402559	WORD	n/a	wordpools/wordpool_categorized_EN.txt	ROOM	Building	8	9	[0, 0, 0]	n/a	catFR1	1	R1067P
959.093	2.567	1403776	WORD	n/a	wordpools/wordpool_categorized_EN.txt	WHISK	KitchenTools	9	9	[0, 0, 0]	n/a	catFR1	1	R1067P
961.66	2.518	1405060	WORD	n/a	wordpools/wordpool_categorized_EN.txt	KNIFE	KitchenTools	10	9	[0, 0, 0]	n/a	catFR1	1	R1067P
964.178	2.617	1406319	WORD	n/a	wordpools/wordpool_categorized_EN.txt	RECLINER	Furniture	11	9	[0, 0, 0]	n/a	catFR1	1	R1067P
966.795	1.616	1407627	WORD	n/a	wordpools/wordpool_categorized_EN.txt	CHAIR	Furniture	12	9	[0, 0, 0]	n/a	catFR1	1	R1067P
968.411	0.001	1408435	DISTRACT_START	n/a	n/a	n/a	n/a	-999	9	[0, 0, 0]	n/a	catFR1	1	R1067P
968.412	0.015	1408436	START	n/a	n/a	n/a	n/a	-999	9	[-999, -999, -999]	n/a	catFR1	1	R1067P
968.427	5.802	1408443	PROB	5.802	n/a	n/a	n/a	-999	9	[8, 8, 1]	17	catFR1	1	R1067P
974.229	3.718	1411344	PROB	3.718	n/a	n/a	n/a	-999	9	[1, 9, 5]	15	catFR1	1	R1067P
977.947	7.885	1413203	PROB	7.885	n/a	n/a	n/a	-999	9	[9, 7, 2]	18	catFR1	1	R1067P
985.832	5.506	1417145	PROB	5.506	n/a	n/a	n/a	-999	9	[6, 7, 7]	20	catFR1	1	R1067P
991.338	0.011	1419898	STOP	n/a	n/a	n/a	n/a	-999	9	[-999, -999, -999]	n/a	catFR1	1	R1067P
991.349	1.151	1419903	DISTRACT_END	n/a	n/a	n/a	n/a	-999	9	[0, 0, 0]	n/a	catFR1	1	R1067P
992.5	0.693	1420479	REC_START	n/a	n/a	n/a	n/a	-999	9	[0, 0, 0]	n/a	catFR1	1	R1067P
993.193	0.63	1420825	REC_WORD_VV	0.63	n/a	<>	n/a	-999	9	[0, 0, 0]	n/a	catFR1	1	R1067P
993.823	0.262	1421140	REC_WORD_VV	0.262	n/a	<>	n/a	-999	9	[0, 0, 0]	n/a	catFR1	1	R1067P
994.085	1.135	1421271	REC_WORD	1.135	n/a	HALLWAY	Building	7	9	[0, 0, 0]	n/a	catFR1	1	R1067P
995.22	0.575	1421839	REC_WORD_VV	0.575	n/a	<>	n/a	-999	9	[0, 0, 0]	n/a	catFR1	1	R1067P
995.795	1.037	1422126	REC_WORD	1.037	n/a	BATHROOM	Building	2	9	[0, 0, 0]	n/a	catFR1	1	R1067P
996.832	0.211	1422645	REC_WORD_VV	0.211	n/a	<>	n/a	-999	9	[0, 0, 0]	n/a	catFR1	1	R1067P
997.043	4.915	1422750	REC_WORD	4.915	n/a	FLOOR	Building	1	9	[0, 0, 0]	n/a	catFR1	1	R1067P
1001.958	0.249	1425208	REC_WORD_VV	0.249	n/a	<>	n/a	-999	9	[0, 0, 0]	n/a	catFR1	1	R1067P
1002.207	0.979	1425332	REC_WORD	0.979	n/a	SPATULA	n/a	-999	9	[0, 0, 0]	n/a	catFR1	1	R1067P
1003.186	5.293	1425822	REC_WORD	5.293	n/a	STRAINER	KitchenTools	5	9	[0, 0, 0]	n/a	catFR1	1	R1067P
1008.479	14.032	1428468	REC_WORD	14.032	n/a	STAIRS	n/a	-999	9	[0, 0, 0]	n/a	catFR1	1	R1067P
1022.511	3.395	1435484	REC_END	n/a	n/a	n/a	n/a	-999	9	[0, 0, 0]	n/a	catFR1	1	R1067P
1025.906	0.0	1437181	TRIAL	n/a	n/a	n/a	n/a	-999	10	[0, 0, 0]	n/a	catFR1	1	R1067P
1025.906	10.428	1437181	COUNTDOWN_START	n/a	n/a	n/a	n/a	-999	10	[0, 0, 0]	n/a	catFR1	1	R1067P
1036.334	0.007	1442395	COUNTDOWN_END	n/a	n/a	n/a	n/a	-999	10	[0, 0, 0]	n/a	catFR1	1	R1067P
1036.341	3.584	1442398	ORIENT	n/a	n/a	n/a	n/a	-999	10	[0, 0, 0]	n/a	catFR1	1	R1067P
1039.925	2.566	1444190	WORD	n/a	wordpools/wordpool_categorized_EN.txt	HUMIDITY	Weather	1	10	[0, 0, 0]	n/a	catFR1	1	R1067P
1042.491	2.385	1445473	WORD	n/a	wordpools/wordpool_categorized_EN.txt	WIND	Weather	2	10	[0, 0, 0]	n/a	catFR1	1	R1067P
1044.876	2.417	1446666	WORD	n/a	wordpools/wordpool_categorized_EN.txt	SPATULA	KitchenTools	3	10	[0, 0, 0]	n/a	catFR1	1	R1067P
1047.293	2.567	1447874	WORD	n/a	wordpools/wordpool_categorized_EN.txt	LADLE	KitchenTools	4	10	[0, 0, 0]	n/a	catFR1	1	R1067P
1049.86	2.484	1449157	WORD	n/a	wordpools/wordpool_categorized_EN.txt	BALL	Toys	5	10	[0, 0, 0]	n/a	catFR1	1	R1067P
1052.344	2.501	1450399	WORD	n/a	wordpools/wordpool_categorized_EN.txt	BLOCKS	Toys	6	10	[0, 0, 0]	n/a	catFR1	1	R1067P
1054.845	2.467	1451650	WORD	n/a	wordpools/wordpool_categorized_EN.txt	CORKSCREW	KitchenTools	7	10	[0, 0, 0]	n/a	catFR1	1	R1067P
1057.312	2.584	1452883	WORD	n/a	wordpools/wordpool_categorized_EN.txt	SPOON	KitchenTools	8	10	[0, 0, 0]	n/a	catFR1	1	R1067P
1059.896	2.499	1454175	WORD	n/a	wordpools/wordpool_categorized_EN.txt	TORNADO	Weather	9	10	[0, 0, 0]	n/a	catFR1	1	R1067P
1062.395	2.501	1455425	WORD	n/a	wordpools/wordpool_categorized_EN.txt	SNOW	Weather	10	10	[0, 0, 0]	n/a	catFR1	1	R1067P
1064.896	2.483	1456675	WORD	n/a	wordpools/wordpool_categorized_EN.txt	FOOTBALL	Toys	11	10	[0, 0, 0]	n/a	catFR1	1	R1067P
1067.379	1.601	1457917	WORD	n/a	wordpools/wordpool_categorized_EN.txt	FRISBEE	Toys	12	10	[0, 0, 0]	n/a	catFR1	1	R1067P
1068.98	0.001	1458717	DISTRACT_START	n/a	n/a	n/a	n/a	-999	10	[0, 0, 0]	n/a	catFR1	1	R1067P
1068.981	0.016	1458717	START	n/a	n/a	n/a	n/a	-999	10	[-999, -999, -999]	n/a	catFR1	1	R1067P
1068.997	7.052	1458725	PROB	7.052	n/a	n/a	n/a	-999	10	[2, 1, 3]	6	catFR1	1	R1067P
1076.049	5.101	1462251	PROB	5.101	n/a	n/a	n/a	-999	10	[1, 3, 9]	13	catFR1	1	R1067P
1081.15	4.433	1464802	PROB	4.433	n/a	n/a	n/a	-999	10	[4, 9, 8]	21	catFR1	1	R1067P
1085.583	2.651	1467018	PROB	2.651	n/a	n/a	n/a	-999	10	[3, 3, 5]	11	catFR1	1	R1067P
1088.234	2.647	1468344	PROB	2.647	n/a	n/a	n/a	-999	10	[2, 1, 6]	9	catFR1	1	R1067P
1090.881	0.02	1469667	STOP	n/a	n/a	n/a	n/a	-999	10	[-999, -999, -999]	n/a	catFR1	1	R1067P
1090.901	1.151	1469677	DISTRACT_END	n/a	n/a	n/a	n/a	-999	10	[0, 0, 0]	n/a	catFR1	1	R1067P
1092.052	0.816	1470252	REC_START	n/a	n/a	n/a	n/a	-999	10	[0, 0, 0]	n/a	catFR1	1	R1067P
1092.868	4.279	1470660	REC_WORD_VV	4.279	n/a	<>	n/a	-999	10	[0, 0, 0]	n/a	catFR1	1	R1067P
1097.147	1.394	1472800	REC_WORD	1.394	n/a	FOOTBALL	Toys	11	10	[0, 0, 0]	n/a	catFR1	1	R1067P
1098.541	7.055	1473497	REC_WORD	7.055	n/a	FRISBEE	Toys	12	10	[0, 0, 0]	n/a	catFR1	1	R1067P
1105.596	16.472	1477024	REC_WORD	16.472	n/a	SNOW	Weather	10	10	[0, 0, 0]	n/a	catFR1	1	R1067P
1122.068	2.79	1485260	REC_END	n/a	n/a	n/a	n/a	-999	10	[0, 0, 0]	n/a	catFR1	1	R1067P
1124.858	0.0	1486655	COUNTDOWN_START	n/a	n/a	n/a	n/a	-999	11	[0, 0, 0]	n/a	catFR1	1	R1067P
1124.858	10.428	1486655	TRIAL	n/a	n/a	n/a	n/a	-999	11	[0, 0, 0]	n/a	catFR1	1	R1067P
1135.286	0.007	1491868	COUNTDOWN_END	n/a	n/a	n/a	n/a	-999	11	[0, 0, 0]	n/a	catFR1	1	R1067P
1135.293	3.951	1491872	ORIENT	n/a	n/a	n/a	n/a	-999	11	[0, 0, 0]	n/a	catFR1	1	R1067P
1139.244	2.584	1493847	WORD	n/a	wordpools/wordpool_categorized_EN.txt	LILY	Flowers	1	11	[0, 0, 0]	n/a	catFR1	1	R1067P
1141.828	2.599	1495139	WORD	n/a	wordpools/wordpool_categorized_EN.txt	VIOLET	Flowers	2	11	[0, 0, 0]	n/a	catFR1	1	R1067P
1144.427	2.551	1496439	WORD	n/a	wordpools/wordpool_categorized_EN.txt	FOG	Weather	3	11	[0, 0, 0]	n/a	catFR1	1	R1067P
1146.978	2.384	1497714	WORD	n/a	wordpools/wordpool_categorized_EN.txt	LIGHTNING	Weather	4	11	[0, 0, 0]	n/a	catFR1	1	R1067P
1149.362	2.401	1498906	WORD	n/a	wordpools/wordpool_categorized_EN.txt	PUDDING	Desserts	5	11	[0, 0, 0]	n/a	catFR1	1	R1067P
1151.763	2.533	1500106	WORD	n/a	wordpools/wordpool_categorized_EN.txt	CUPCAKE	Desserts	6	11	[0, 0, 0]	n/a	catFR1	1	R1067P
1154.296	2.434	1501373	WORD	n/a	wordpools/wordpool_categorized_EN.txt	CLOUD	Weather	7	11	[0, 0, 0]	n/a	catFR1	1	R1067P
1156.73	2.617	1502590	WORD	n/a	wordpools/wordpool_categorized_EN.txt	HURRICANE	Weather	8	11	[0, 0, 0]	n/a	catFR1	1	R1067P
1159.347	2.384	1503898	WORD	n/a	wordpools/wordpool_categorized_EN.txt	ROSE	Flowers	9	11	[0, 0, 0]	n/a	catFR1	1	R1067P
1161.731	2.517	1505090	WORD	n/a	wordpools/wordpool_categorized_EN.txt	DAISY	Flowers	10	11	[0, 0, 0]	n/a	catFR1	1	R1067P
1164.248	2.467	1506349	WORD	n/a	wordpools/wordpool_categorized_EN.txt	PASTRY	Desserts	11	11	[0, 0, 0]	n/a	catFR1	1	R1067P
1166.715	1.618	1507582	WORD	n/a	wordpools/wordpool_categorized_EN.txt	FUDGE	Desserts	12	11	[0, 0, 0]	n/a	catFR1	1	R1067P
1168.333	0.001	1508391	DISTRACT_START	n/a	n/a	n/a	n/a	-999	11	[0, 0, 0]	n/a	catFR1	1	R1067P
1168.334	0.015	1508392	START	n/a	n/a	n/a	n/a	-999	11	[-999, -999, -999]	n/a	catFR1	1	R1067P
1168.349	5.651	1508399	PROB	5.651	n/a	n/a	n/a	-999	11	[5, 6, 6]	17	catFR1	1	R1067P
1174.0	6.285	1511224	PROB	6.285	n/a	n/a	n/a	-999	11	[4, 7, 6]	17	catFR1	1	R1067P
1180.285	6.418	1514367	PROB	6.418	n/a	n/a	n/a	-999	11	[4, 9, 3]	16	catFR1	1	R1067P
1186.703	3.714	1517576	PROB	3.714	n/a	n/a	n/a	-999	11	[2, 1, 3]	6	catFR1	1	R1067P
1190.417	0.019	1519432	STOP	n/a	n/a	n/a	n/a	-999	11	[-999, -999, -999]	n/a	catFR1	1	R1067P
1190.436	1.103	1519442	DISTRACT_END	n/a	n/a	n/a	n/a	-999	11	[0, 0, 0]	n/a	catFR1	1	R1067P
1191.539	1.344	1519993	REC_START	n/a	n/a	n/a	n/a	-999	11	[0, 0, 0]	n/a	catFR1	1	R1067P
1192.883	0.406	1520665	REC_WORD_VV	0.406	n/a	<>	n/a	-999	11	[0, 0, 0]	n/a	catFR1	1	R1067P
1193.289	8.081	1520868	REC_WORD	8.081	n/a	PASTRY	Desserts	11	11	[0, 0, 0]	n/a	catFR1	1	R1067P
1201.37	1.268	1524909	REC_WORD	1.268	n/a	LILAC	n/a	-999	11	[0, 0, 0]	n/a	catFR1	1	R1067P
1202.638	18.216	1525543	REC_WORD	18.216	n/a	LILY	Flowers	1	11	[0, 0, 0]	n/a	catFR1	1	R1067P
1220.854	0.695	1534650	REC_WORD_VV	0.695	n/a	<>	n/a	-999	11	[0, 0, 0]	n/a	catFR1	1	R1067P
1221.549	2.727	1534998	REC_END	n/a	n/a	n/a	n/a	-999	11	[0, 0, 0]	n/a	catFR1	1	R1067P
1224.276	0.001	1536361	COUNTDOWN_START	n/a	n/a	n/a	n/a	-999	12	[0, 0, 0]	n/a	catFR1	1	R1067P
1224.277	10.427	1536362	TRIAL	n/a	n/a	n/a	n/a	-999	12	[0, 0, 0]	n/a	catFR1	1	R1067P
1234.704	0.008	1541575	COUNTDOWN_END	n/a	n/a	n/a	n/a	-999	12	[0, 0, 0]	n/a	catFR1	1	R1067P
1234.712	3.883	1541579	ORIENT	n/a	n/a	n/a	n/a	-999	12	[0, 0, 0]	n/a	catFR1	1	R1067P
1238.595	2.618	1543520	WORD	n/a	wordpools/wordpool_categorized_EN.txt	CHICKEN	FarmAnimals	1	12	[0, 0, 0]	n/a	catFR1	1	R1067P
1241.213	2.383	1544829	WORD	n/a	wordpools/wordpool_categorized_EN.txt	HORSE	FarmAnimals	2	12	[0, 0, 0]	n/a	catFR1	1	R1067P
1243.596	2.434	1546021	WORD	n/a	wordpools/wordpool_categorized_EN.txt	CELLO	Instruments	3	12	[0, 0, 0]	n/a	catFR1	1	R1067P
1246.03	2.5	1547238	WORD	n/a	wordpools/wordpool_categorized_EN.txt	DRUM	Instruments	4	12	[0, 0, 0]	n/a	catFR1	1	R1067P
1248.53	2.518	1548487	WORD	n/a	wordpools/wordpool_categorized_EN.txt	BANANA	Fruit	5	12	[0, 0, 0]	n/a	catFR1	1	R1067P
1251.048	2.399	1549746	WORD	n/a	wordpools/wordpool_categorized_EN.txt	ORANGE	Fruit	6	12	[0, 0, 0]	n/a	catFR1	1	R1067P
1253.447	2.435	1550946	WORD	n/a	wordpools/wordpool_categorized_EN.txt	CALF	FarmAnimals	7	12	[0, 0, 0]	n/a	catFR1	1	R1067P
1255.882	2.6	1552163	WORD	n/a	wordpools/wordpool_categorized_EN.txt	LAMB	FarmAnimals	8	12	[0, 0, 0]	n/a	catFR1	1	R1067P
1258.482	2.434	1553463	WORD	n/a	wordpools/wordpool_categorized_EN.txt	BLUEBERRY	Fruit	9	12	[0, 0, 0]	n/a	catFR1	1	R1067P
1260.916	2.418	1554680	WORD	n/a	wordpools/wordpool_categorized_EN.txt	GRAPE	Fruit	10	12	[0, 0, 0]	n/a	catFR1	1	R1067P
1263.334	2.6	1555889	WORD	n/a	wordpools/wordpool_categorized_EN.txt	PIANO	Instruments	11	12	[0, 0, 0]	n/a	catFR1	1	R1067P
1265.934	1.616	1557189	WORD	n/a	wordpools/wordpool_categorized_EN.txt	TUBA	Instruments	12	12	[0, 0, 0]	n/a	catFR1	1	R1067P
1267.55	0.001	1557997	DISTRACT_START	n/a	n/a	n/a	n/a	-999	12	[0, 0, 0]	n/a	catFR1	1	R1067P
1267.551	0.016	1557998	START	n/a	n/a	n/a	n/a	-999	12	[-999, -999, -999]	n/a	catFR1	1	R1067P
1267.567	6.034	1558006	PROB	6.034	n/a	n/a	n/a	-999	12	[3, 4, 8]	15	catFR1	1	R1067P
1273.601	3.735	1561022	PROB	3.735	n/a	n/a	n/a	-999	12	[8, 5, 6]	19	catFR1	1	R1067P
1277.336	3.884	1562890	PROB	3.884	n/a	n/a	n/a	-999	12	[4, 2, 6]	12	catFR1	1	R1067P
1281.22	2.484	1564832	PROB	2.484	n/a	n/a	n/a	-999	12	[5, 5, 1]	11	catFR1	1	R1067P
1283.704	12.586	1566074	PROB	12.586	n/a	n/a	n/a	-999	12	[3, 8, 1]	12	catFR1	1	R1067P
1296.29	0.016	1572366	STOP	n/a	n/a	n/a	n/a	-999	12	[-999, -999, -999]	n/a	catFR1	1	R1067P
1296.306	1.035	1572374	DISTRACT_END	n/a	n/a	n/a	n/a	-999	12	[0, 0, 0]	n/a	catFR1	1	R1067P
1297.341	2.678	1572892	REC_START	n/a	n/a	n/a	n/a	-999	12	[0, 0, 0]	n/a	catFR1	1	R1067P
1300.019	16.077	1574231	REC_WORD_VV	16.077	n/a	<>	n/a	-999	12	[0, 0, 0]	n/a	catFR1	1	R1067P
1316.096	0.192	1582269	REC_WORD_VV	0.192	n/a	<>	n/a	-999	12	[0, 0, 0]	n/a	catFR1	1	R1067P
1316.288	2.071	1582365	REC_WORD	2.071	n/a	BANANA	Fruit	5	12	[0, 0, 0]	n/a	catFR1	1	R1067P
1318.359	1.0	1583400	REC_WORD_VV	1.0	n/a	<>	n/a	-999	12	[0, 0, 0]	n/a	catFR1	1	R1067P
1319.359	1.0	1583900	REC_WORD_VV	1.0	n/a	<>	n/a	-999	12	[0, 0, 0]	n/a	catFR1	1	R1067P
1320.359	0.658	1584400	REC_WORD_VV	0.658	n/a	<>	n/a	-999	12	[0, 0, 0]	n/a	catFR1	1	R1067P
1321.017	0.538	1584729	REC_WORD	0.538	n/a	BANANA	Fruit	5	12	[0, 0, 0]	n/a	catFR1	1	R1067P
1321.555	1.0	1584998	REC_WORD_VV	1.0	n/a	<>	n/a	-999	12	[0, 0, 0]	n/a	catFR1	1	R1067P
1322.555	1.0	1585498	REC_WORD_VV	1.0	n/a	<>	n/a	-999	12	[0, 0, 0]	n/a	catFR1	1	R1067P
1323.555	2.192	1585998	REC_WORD_VV	2.192	n/a	<>	n/a	-999	12	[0, 0, 0]	n/a	catFR1	1	R1067P
1325.747	1.606	1587094	REC_WORD_VV	1.606	n/a	<>	n/a	-999	12	[0, 0, 0]	n/a	catFR1	1	R1067P
1327.353	3.71	1587897	REC_END	n/a	n/a	n/a	n/a	-999	12	[0, 0, 0]	n/a	catFR1	1	R1067P
1331.063	0.0	1589752	TRIAL	n/a	n/a	n/a	n/a	-999	13	[0, 0, 0]	n/a	catFR1	1	R1067P
1331.063	10.428	1589752	COUNTDOWN_START	n/a	n/a	n/a	n/a	-999	13	[0, 0, 0]	n/a	catFR1	1	R1067P
1341.491	0.006	1594966	COUNTDOWN_END	n/a	n/a	n/a	n/a	-999	13	[0, 0, 0]	n/a	catFR1	1	R1067P
1341.497	3.951	1594969	ORIENT	n/a	n/a	n/a	n/a	-999	13	[0, 0, 0]	n/a	catFR1	1	R1067P
1345.448	2.401	1596944	WORD	n/a	wordpools/wordpool_categorized_EN.txt	CRAB	OceanAnimals	1	13	[0, 0, 0]	n/a	catFR1	1	R1067P
1347.849	2.484	1598144	WORD	n/a	wordpools/wordpool_categorized_EN.txt	PLANKTON	OceanAnimals	2	13	[0, 0, 0]	n/a	catFR1	1	R1067P
1350.333	2.467	1599386	WORD	n/a	wordpools/wordpool_categorized_EN.txt	DOVE	Birds	3	13	[0, 0, 0]	n/a	catFR1	1	R1067P
1352.8	2.417	1600620	WORD	n/a	wordpools/wordpool_categorized_EN.txt	CROW	Birds	4	13	[0, 0, 0]	n/a	catFR1	1	R1067P
1355.217	2.383	1601828	WORD	n/a	wordpools/wordpool_categorized_EN.txt	BEACH	Landscapes	5	13	[0, 0, 0]	n/a	catFR1	1	R1067P
1357.6	2.602	1603020	WORD	n/a	wordpools/wordpool_categorized_EN.txt	HILLS	Landscapes	6	13	[0, 0, 0]	n/a	catFR1	1	R1067P
1360.202	2.449	1604321	WORD	n/a	wordpools/wordpool_categorized_EN.txt	SEAGULL	Birds	7	13	[0, 0, 0]	n/a	catFR1	1	R1067P
1362.651	2.468	1605545	WORD	n/a	wordpools/wordpool_categorized_EN.txt	GOOSE	Birds	8	13	[0, 0, 0]	n/a	catFR1	1	R1067P
1365.119	2.466	1606779	WORD	n/a	wordpools/wordpool_categorized_EN.txt	FISH	OceanAnimals	9	13	[0, 0, 0]	n/a	catFR1	1	R1067P
1367.585	2.569	1608012	WORD	n/a	wordpools/wordpool_categorized_EN.txt	OYSTER	OceanAnimals	10	13	[0, 0, 0]	n/a	catFR1	1	R1067P
1370.154	2.532	1609296	WORD	n/a	wordpools/wordpool_categorized_EN.txt	RIVER	Landscapes	11	13	[0, 0, 0]	n/a	catFR1	1	R1067P
1372.686	1.601	1610562	WORD	n/a	wordpools/wordpool_categorized_EN.txt	LAKE	Landscapes	12	13	[0, 0, 0]	n/a	catFR1	1	R1067P
1374.287	0.002	1611363	DISTRACT_START	n/a	n/a	n/a	n/a	-999	13	[0, 0, 0]	n/a	catFR1	1	R1067P
1374.289	0.015	1611364	START	n/a	n/a	n/a	n/a	-999	13	[-999, -999, -999]	n/a	catFR1	1	R1067P
1374.304	6.502	1611371	PROB	6.502	n/a	n/a	n/a	-999	13	[1, 8, 3]	12	catFR1	1	R1067P
1380.806	3.766	1614622	PROB	3.766	n/a	n/a	n/a	-999	13	[2, 6, 2]	10	catFR1	1	R1067P
1384.572	4.101	1616505	PROB	4.101	n/a	n/a	n/a	-999	13	[4, 6, 5]	15	catFR1	1	R1067P
1388.673	4.518	1618555	PROB	4.518	n/a	n/a	n/a	-999	13	[9, 6, 2]	17	catFR1	1	R1067P
1393.191	3.723	1620814	PROB	3.723	n/a	n/a	n/a	-999	13	[4, 3, 5]	13	catFR1	1	R1067P
1396.914	0.011	1622676	STOP	n/a	n/a	n/a	n/a	-999	13	[-999, -999, -999]	n/a	catFR1	1	R1067P
1396.925	1.134	1622681	DISTRACT_END	n/a	n/a	n/a	n/a	-999	13	[0, 0, 0]	n/a	catFR1	1	R1067P
1398.059	4.081	1623248	REC_START	n/a	n/a	n/a	n/a	-999	13	[0, 0, 0]	n/a	catFR1	1	R1067P
1402.14	2.272	1625289	REC_WORD_VV	2.272	n/a	<>	n/a	-999	13	[0, 0, 0]	n/a	catFR1	1	R1067P
1404.412	1.0	1626425	REC_WORD_VV	1.0	n/a	<>	n/a	-999	13	[0, 0, 0]	n/a	catFR1	1	R1067P
1405.412	2.006	1626925	REC_WORD_VV	2.006	n/a	<>	n/a	-999	13	[0, 0, 0]	n/a	catFR1	1	R1067P
1407.418	1.0	1627927	REC_WORD_VV	1.0	n/a	<>	n/a	-999	13	[0, 0, 0]	n/a	catFR1	1	R1067P
1408.418	1.0	1628427	REC_WORD_VV	1.0	n/a	<>	n/a	-999	13	[0, 0, 0]	n/a	catFR1	1	R1067P
1409.418	1.0	1628927	REC_WORD_VV	1.0	n/a	<>	n/a	-999	13	[0, 0, 0]	n/a	catFR1	1	R1067P
1410.418	1.0	1629427	REC_WORD_VV	1.0	n/a	<>	n/a	-999	13	[0, 0, 0]	n/a	catFR1	1	R1067P
1411.418	1.0	1629927	REC_WORD_VV	1.0	n/a	<>	n/a	-999	13	[0, 0, 0]	n/a	catFR1	1	R1067P
1412.418	1.0	1630427	REC_WORD_VV	1.0	n/a	<>	n/a	-999	13	[0, 0, 0]	n/a	catFR1	1	R1067P
1413.418	1.0	1630927	REC_WORD_VV	1.0	n/a	<>	n/a	-999	13	[0, 0, 0]	n/a	catFR1	1	R1067P
1414.418	1.0	1631427	REC_WORD_VV	1.0	n/a	<>	n/a	-999	13	[0, 0, 0]	n/a	catFR1	1	R1067P
1415.418	1.652	1631927	REC_WORD_VV	1.652	n/a	<>	n/a	-999	13	[0, 0, 0]	n/a	catFR1	1	R1067P
1417.07	1.178	1632753	REC_WORD_VV	1.178	n/a	<>	n/a	-999	13	[0, 0, 0]	n/a	catFR1	1	R1067P
1418.248	2.929	1633342	REC_WORD_VV	2.929	n/a	<>	n/a	-999	13	[0, 0, 0]	n/a	catFR1	1	R1067P
1421.177	2.043	1634807	REC_WORD_VV	2.043	n/a	<>	n/a	-999	13	[0, 0, 0]	n/a	catFR1	1	R1067P
1423.22	1.0	1635828	REC_WORD_VV	1.0	n/a	<>	n/a	-999	13	[0, 0, 0]	n/a	catFR1	1	R1067P
1424.22	1.0	1636328	REC_WORD_VV	1.0	n/a	<>	n/a	-999	13	[0, 0, 0]	n/a	catFR1	1	R1067P
1425.22	1.0	1636828	REC_WORD_VV	1.0	n/a	<>	n/a	-999	13	[0, 0, 0]	n/a	catFR1	1	R1067P
1426.22	1.855	1637328	REC_WORD_VV	1.855	n/a	<>	n/a	-999	13	[0, 0, 0]	n/a	catFR1	1	R1067P
1428.075	6.791	1638255	REC_END	n/a	n/a	n/a	n/a	-999	13	[0, 0, 0]	n/a	catFR1	1	R1067P
1434.866	0.0	1641651	TRIAL	n/a	n/a	n/a	n/a	-999	14	[0, 0, 0]	n/a	catFR1	1	R1067P
1434.866	10.428	1641651	COUNTDOWN_START	n/a	n/a	n/a	n/a	-999	14	[0, 0, 0]	n/a	catFR1	1	R1067P
1445.294	0.007	1646865	COUNTDOWN_END	n/a	n/a	n/a	n/a	-999	14	[0, 0, 0]	n/a	catFR1	1	R1067P
1445.301	3.851	1646868	ORIENT	n/a	n/a	n/a	n/a	-999	14	[0, 0, 0]	n/a	catFR1	1	R1067P
1449.152	2.482	1648793	WORD	n/a	wordpools/wordpool_categorized_EN.txt	CABINET	Furniture	1	14	[0, 0, 0]	n/a	catFR1	1	R1067P
1451.634	2.435	1650034	WORD	n/a	wordpools/wordpool_categorized_EN.txt	NIGHTSTAND	Furniture	2	14	[0, 0, 0]	n/a	catFR1	1	R1067P
1454.069	2.533	1651252	WORD	n/a	wordpools/wordpool_categorized_EN.txt	DRILL	Tools	3	14	[0, 0, 0]	n/a	catFR1	1	R1067P
1456.602	2.602	1652518	WORD	n/a	wordpools/wordpool_categorized_EN.txt	SCREWDRIVER	Tools	4	14	[0, 0, 0]	n/a	catFR1	1	R1067P
1459.204	2.382	1653819	WORD	n/a	wordpools/wordpool_categorized_EN.txt	CAKE	Desserts	5	14	[0, 0, 0]	n/a	catFR1	1	R1067P
1461.586	2.568	1655010	WORD	n/a	wordpools/wordpool_categorized_EN.txt	CHEESECAKE	Desserts	6	14	[0, 0, 0]	n/a	catFR1	1	R1067P
1464.154	2.5	1656294	WORD	n/a	wordpools/wordpool_categorized_EN.txt	SOFA	Furniture	7	14	[0, 0, 0]	n/a	catFR1	1	R1067P
1466.654	2.585	1657544	WORD	n/a	wordpools/wordpool_categorized_EN.txt	COUCH	Furniture	8	14	[0, 0, 0]	n/a	catFR1	1	R1067P
1469.239	2.567	1658836	WORD	n/a	wordpools/wordpool_categorized_EN.txt	COOKIE	Desserts	9	14	[0, 0, 0]	n/a	catFR1	1	R1067P
1471.806	2.616	1660120	WORD	n/a	wordpools/wordpool_categorized_EN.txt	MOUSSE	Desserts	10	14	[0, 0, 0]	n/a	catFR1	1	R1067P
1474.422	2.535	1661428	WORD	n/a	wordpools/wordpool_categorized_EN.txt	PLIERS	Tools	11	14	[0, 0, 0]	n/a	catFR1	1	R1067P
1476.957	1.616	1662695	WORD	n/a	wordpools/wordpool_categorized_EN.txt	SHOVEL	Tools	12	14	[0, 0, 0]	n/a	catFR1	1	R1067P
1478.573	0.001	1663503	DISTRACT_START	n/a	n/a	n/a	n/a	-999	14	[0, 0, 0]	n/a	catFR1	1	R1067P
1478.574	0.016	1663504	START	n/a	n/a	n/a	n/a	-999	14	[-999, -999, -999]	n/a	catFR1	1	R1067P
1478.59	4.401	1663512	PROB	4.401	n/a	n/a	n/a	-999	14	[7, 7, 7]	21	catFR1	1	R1067P
1482.991	6.868	1665712	PROB	6.868	n/a	n/a	n/a	-999	14	[7, 1, 9]	17	catFR1	1	R1067P
1489.859	4.567	1669146	PROB	4.567	n/a	n/a	n/a	-999	14	[1, 6, 1]	8	catFR1	1	R1067P
1494.426	5.664	1671429	PROB	5.664	n/a	n/a	n/a	-999	14	[6, 8, 3]	17	catFR1	1	R1067P
1500.09	0.004	1674261	STOP	n/a	n/a	n/a	n/a	-999	14	[-999, -999, -999]	n/a	catFR1	1	R1067P
1500.094	1.152	1674263	DISTRACT_END	n/a	n/a	n/a	n/a	-999	14	[0, 0, 0]	n/a	catFR1	1	R1067P
1501.246	0.487	1674839	REC_START	n/a	n/a	n/a	n/a	-999	14	[0, 0, 0]	n/a	catFR1	1	R1067P
1501.733	0.709	1675083	REC_WORD_VV	0.709	n/a	<>	n/a	-999	14	[0, 0, 0]	n/a	catFR1	1	R1067P
1502.442	0.867	1675437	REC_WORD	0.867	n/a	PLIERS	Tools	11	14	[0, 0, 0]	n/a	catFR1	1	R1067P
1503.309	0.357	1675871	REC_WORD_VV	0.357	n/a	<>	n/a	-999	14	[0, 0, 0]	n/a	catFR1	1	R1067P
1503.666	3.753	1676049	REC_WORD_VV	3.753	n/a	<>	n/a	-999	14	[0, 0, 0]	n/a	catFR1	1	R1067P
1507.419	0.542	1677925	REC_WORD_VV	0.542	n/a	<>	n/a	-999	14	[0, 0, 0]	n/a	catFR1	1	R1067P
1507.961	0.591	1678196	REC_WORD	0.591	n/a	SOFA	Furniture	7	14	[0, 0, 0]	n/a	catFR1	1	R1067P
1508.552	0.104	1678492	REC_WORD_VV	0.104	n/a	<>	n/a	-999	14	[0, 0, 0]	n/a	catFR1	1	R1067P
1508.656	0.392	1678544	REC_WORD	0.392	n/a	COUCH	Furniture	8	14	[0, 0, 0]	n/a	catFR1	1	R1067P
1509.048	0.045	1678740	REC_WORD_VV	0.045	n/a	<>	n/a	-999	14	[0, 0, 0]	n/a	catFR1	1	R1067P
1509.093	0.358	1678762	REC_WORD	0.358	n/a	SOFA	Furniture	7	14	[0, 0, 0]	n/a	catFR1	1	R1067P
1509.451	3.217	1678941	REC_WORD_VV	3.217	n/a	<>	n/a	-999	14	[0, 0, 0]	n/a	catFR1	1	R1067P
1512.668	3.628	1680550	REC_WORD_VV	3.628	n/a	<>	n/a	-999	14	[0, 0, 0]	n/a	catFR1	1	R1067P
1516.296	4.894	1682364	REC_WORD	4.894	n/a	STATUE	n/a	-999	14	[0, 0, 0]	n/a	catFR1	1	R1067P
1521.19	2.739	1684811	REC_WORD_VV	2.739	n/a	<>	n/a	-999	14	[0, 0, 0]	n/a	catFR1	1	R1067P
1523.929	4.543	1686180	REC_WORD	4.543	n/a	OWL	n/a	-999	14	[0, 0, 0]	n/a	catFR1	1	R1067P
1528.472	0.317	1688451	REC_WORD_VV	0.317	n/a	<>	n/a	-999	14	[0, 0, 0]	n/a	catFR1	1	R1067P
1528.789	0.645	1688610	REC_WORD	0.645	n/a	CAKE	Desserts	5	14	[0, 0, 0]	n/a	catFR1	1	R1067P
1529.434	1.0	1688932	REC_WORD_VV	1.0	n/a	<>	n/a	-999	14	[0, 0, 0]	n/a	catFR1	1	R1067P
1530.434	0.15	1689432	REC_WORD_VV	0.15	n/a	<>	n/a	-999	14	[0, 0, 0]	n/a	catFR1	1	R1067P
1530.584	0.347	1689507	REC_WORD	0.347	n/a	CAKE	Desserts	5	14	[0, 0, 0]	n/a	catFR1	1	R1067P
1530.931	0.327	1689681	REC_WORD_VV	0.327	n/a	<>	n/a	-999	14	[0, 0, 0]	n/a	catFR1	1	R1067P
1531.258	8.176	1689844	REC_END	n/a	n/a	n/a	n/a	-999	14	[0, 0, 0]	n/a	catFR1	1	R1067P
1539.434	0.0	1693932	COUNTDOWN_START	n/a	n/a	n/a	n/a	-999	15	[0, 0, 0]	n/a	catFR1	1	R1067P
1539.434	10.428	1693932	TRIAL	n/a	n/a	n/a	n/a	-999	15	[0, 0, 0]	n/a	catFR1	1	R1067P
1549.862	0.009	1699146	COUNTDOWN_END	n/a	n/a	n/a	n/a	-999	15	[0, 0, 0]	n/a	catFR1	1	R1067P
1549.871	3.816	1699150	ORIENT	n/a	n/a	n/a	n/a	-999	15	[0, 0, 0]	n/a	catFR1	1	R1067P
1553.687	2.468	1701058	WORD	n/a	wordpools/wordpool_categorized_EN.txt	FOUNDATION	Building	1	15	[0, 0, 0]	n/a	catFR1	1	R1067P
1556.155	2.601	1702292	WORD	n/a	wordpools/wordpool_categorized_EN.txt	ATTIC	Building	2	15	[0, 0, 0]	n/a	catFR1	1	R1067P
1558.756	2.55	1703593	WORD	n/a	wordpools/wordpool_categorized_EN.txt	RUM	Beverages	3	15	[0, 0, 0]	n/a	catFR1	1	R1067P
1561.306	2.534	1704868	WORD	n/a	wordpools/wordpool_categorized_EN.txt	MILK	Beverages	4	15	[0, 0, 0]	n/a	catFR1	1	R1067P
1563.84	2.599	1706135	WORD	n/a	wordpools/wordpool_categorized_EN.txt	KNEE	BodyParts	5	15	[0, 0, 0]	n/a	catFR1	1	R1067P
1566.439	2.585	1707434	WORD	n/a	wordpools/wordpool_categorized_EN.txt	ELBOW	BodyParts	6	15	[0, 0, 0]	n/a	catFR1	1	R1067P
1569.024	2.616	1708726	WORD	n/a	wordpools/wordpool_categorized_EN.txt	SODA	Beverages	7	15	[0, 0, 0]	n/a	catFR1	1	R1067P
1571.64	2.368	1710034	WORD	n/a	wordpools/wordpool_categorized_EN.txt	TEA	Beverages	8	15	[0, 0, 0]	n/a	catFR1	1	R1067P
1574.008	2.433	1711218	WORD	n/a	wordpools/wordpool_categorized_EN.txt	WALL	Building	9	15	[0, 0, 0]	n/a	catFR1	1	R1067P
1576.441	2.535	1712435	WORD	n/a	wordpools/wordpool_categorized_EN.txt	ROOF	Building	10	15	[0, 0, 0]	n/a	catFR1	1	R1067P
1578.976	2.466	1713702	WORD	n/a	wordpools/wordpool_categorized_EN.txt	EYE	BodyParts	11	15	[0, 0, 0]	n/a	catFR1	1	R1067P
1581.442	1.618	1714935	WORD	n/a	wordpools/wordpool_categorized_EN.txt	LEG	BodyParts	12	15	[0, 0, 0]	n/a	catFR1	1	R1067P
1583.06	0.001	1715744	DISTRACT_START	n/a	n/a	n/a	n/a	-999	15	[0, 0, 0]	n/a	catFR1	1	R1067P
1583.061	0.016	1715745	START	n/a	n/a	n/a	n/a	-999	15	[-999, -999, -999]	n/a	catFR1	1	R1067P
1583.077	6.6	1715753	PROB	6.6	n/a	n/a	n/a	-999	15	[7, 2, 7]	15	catFR1	1	R1067P
1589.677	3.452	1719052	PROB	3.452	n/a	n/a	n/a	-999	15	[1, 5, 1]	7	catFR1	1	R1067P
1593.129	10.793	1720778	PROB	10.793	n/a	n/a	n/a	-999	15	[9, 7, 1]	17	catFR1	1	R1067P
1603.922	0.009	1726175	STOP	n/a	n/a	n/a	n/a	-999	15	[-999, -999, -999]	n/a	catFR1	1	R1067P
1603.931	1.15	1726179	DISTRACT_END	n/a	n/a	n/a	n/a	-999	15	[0, 0, 0]	n/a	catFR1	1	R1067P
1605.081	0.498	1726754	REC_START	n/a	n/a	n/a	n/a	-999	15	[0, 0, 0]	n/a	catFR1	1	R1067P
1605.579	1.616	1727003	REC_WORD_VV	1.616	n/a	<>	n/a	-999	15	[0, 0, 0]	n/a	catFR1	1	R1067P
1607.195	5.426	1727811	REC_WORD	5.426	n/a	ATTIC	Building	2	15	[0, 0, 0]	n/a	catFR1	1	R1067P
1612.621	1.91	1730524	REC_WORD	1.91	n/a	FOUNDATION	Building	1	15	[0, 0, 0]	n/a	catFR1	1	R1067P
1614.531	2.65	1731479	REC_WORD	2.65	n/a	WALL	Building	9	15	[0, 0, 0]	n/a	catFR1	1	R1067P
1617.181	0.3	1732804	REC_WORD_VV	0.3	n/a	<>	n/a	-999	15	[0, 0, 0]	n/a	catFR1	1	R1067P
1617.481	2.515	1732954	REC_WORD	2.515	n/a	FLOOR	n/a	-999	15	[0, 0, 0]	n/a	catFR1	1	R1067P
1619.996	0.761	1734211	REC_WORD_VV	0.761	n/a	<>	n/a	-999	15	[0, 0, 0]	n/a	catFR1	1	R1067P
1620.757	1.0	1734592	REC_WORD_VV	1.0	n/a	<>	n/a	-999	15	[0, 0, 0]	n/a	catFR1	1	R1067P
1621.757	3.92	1735092	REC_WORD_VV	3.92	n/a	<>	n/a	-999	15	[0, 0, 0]	n/a	catFR1	1	R1067P
1625.677	3.316	1737052	REC_WORD	3.316	n/a	TEA	Beverages	8	15	[0, 0, 0]	n/a	catFR1	1	R1067P
1628.993	4.261	1738709	REC_WORD	4.261	n/a	SODA	Beverages	7	15	[0, 0, 0]	n/a	catFR1	1	R1067P
1633.254	1.842	1740840	REC_WORD_VV	1.842	n/a	<>	n/a	-999	15	[0, 0, 0]	n/a	catFR1	1	R1067P
1635.096	3.141	1741761	REC_END	n/a	n/a	n/a	n/a	-999	15	[0, 0, 0]	n/a	catFR1	1	R1067P
1638.237	0.0	1743331	TRIAL	n/a	n/a	n/a	n/a	-999	16	[0, 0, 0]	n/a	catFR1	1	R1067P
1638.237	10.428	1743331	COUNTDOWN_START	n/a	n/a	n/a	n/a	-999	16	[0, 0, 0]	n/a	catFR1	1	R1067P
1648.665	0.006	1748545	COUNTDOWN_END	n/a	n/a	n/a	n/a	-999	16	[0, 0, 0]	n/a	catFR1	1	R1067P
1648.671	3.669	1748548	ORIENT	n/a	n/a	n/a	n/a	-999	16	[0, 0, 0]	n/a	catFR1	1	R1067P
1652.34	2.5	1750382	WORD	n/a	wordpools/wordpool_categorized_EN.txt	RATCHET	Tools	1	16	[0, 0, 0]	n/a	catFR1	1	R1067P
1654.84	2.484	1751632	WORD	n/a	wordpools/wordpool_categorized_EN.txt	HAMMER	Tools	2	16	[0, 0, 0]	n/a	catFR1	1	R1067P
1657.324	2.384	1752874	WORD	n/a	wordpools/wordpool_categorized_EN.txt	MONKEY	Zoo	3	16	[0, 0, 0]	n/a	catFR1	1	R1067P
1659.708	2.384	1754066	WORD	n/a	wordpools/wordpool_categorized_EN.txt	TIGER	Zoo	4	16	[0, 0, 0]	n/a	catFR1	1	R1067P
1662.092	2.532	1755258	WORD	n/a	wordpools/wordpool_categorized_EN.txt	CYPRESS	Trees	5	16	[0, 0, 0]	n/a	catFR1	1	R1067P
1664.624	2.368	1756524	WORD	n/a	wordpools/wordpool_categorized_EN.txt	PINE	Trees	6	16	[0, 0, 0]	n/a	catFR1	1	R1067P
1666.992	2.467	1757708	WORD	n/a	wordpools/wordpool_categorized_EN.txt	SAW	Tools	7	16	[0, 0, 0]	n/a	catFR1	1	R1067P
1669.459	2.418	1758941	WORD	n/a	wordpools/wordpool_categorized_EN.txt	LEVEL	Tools	8	16	[0, 0, 0]	n/a	catFR1	1	R1067P
1671.877	2.4	1760150	WORD	n/a	wordpools/wordpool_categorized_EN.txt	SPRUCE	Trees	9	16	[0, 0, 0]	n/a	catFR1	1	R1067P
1674.277	2.383	1761350	WORD	n/a	wordpools/wordpool_categorized_EN.txt	HICKORY	Trees	10	16	[0, 0, 0]	n/a	catFR1	1	R1067P
1676.66	2.601	1762542	WORD	n/a	wordpools/wordpool_categorized_EN.txt	BEAR	Zoo	11	16	[0, 0, 0]	n/a	catFR1	1	R1067P
1679.261	1.617	1763842	WORD	n/a	wordpools/wordpool_categorized_EN.txt	CHIMPANZEE	Zoo	12	16	[0, 0, 0]	n/a	catFR1	1	R1067P
1680.878	0.001	1764651	DISTRACT_START	n/a	n/a	n/a	n/a	-999	16	[0, 0, 0]	n/a	catFR1	1	R1067P
1680.879	0.016	1764651	START	n/a	n/a	n/a	n/a	-999	16	[-999, -999, -999]	n/a	catFR1	1	R1067P
1680.895	5.268	1764659	PROB	5.268	n/a	n/a	n/a	-999	16	[7, 2, 1]	10	catFR1	1	R1067P
1686.163	4.266	1767293	PROB	4.266	n/a	n/a	n/a	-999	16	[9, 3, 6]	18	catFR1	1	R1067P
1690.429	3.769	1769426	PROB	3.769	n/a	n/a	n/a	-999	16	[3, 4, 2]	9	catFR1	1	R1067P
1694.198	4.399	1771310	PROB	4.399	n/a	n/a	n/a	-999	16	[6, 7, 1]	14	catFR1	1	R1067P
1698.597	4.996	1773510	PROB	4.996	n/a	n/a	n/a	-999	16	[2, 1, 4]	7	catFR1	1	R1067P
1703.593	0.005	1776008	STOP	n/a	n/a	n/a	n/a	-999	16	[-999, -999, -999]	n/a	catFR1	1	R1067P
1703.598	1.068	1776010	DISTRACT_END	n/a	n/a	n/a	n/a	-999	16	[0, 0, 0]	n/a	catFR1	1	R1067P
1704.666	0.196	1776544	REC_START	n/a	n/a	n/a	n/a	-999	16	[0, 0, 0]	n/a	catFR1	1	R1067P
1704.862	0.608	1776642	REC_WORD_VV	0.608	n/a	<>	n/a	-999	16	[0, 0, 0]	n/a	catFR1	1	R1067P
1705.47	0.329	1776946	REC_WORD_VV	0.329	n/a	<>	n/a	-999	16	[0, 0, 0]	n/a	catFR1	1	R1067P
1705.799	0.466	1777111	REC_WORD	0.466	n/a	BEAR	Zoo	11	16	[0, 0, 0]	n/a	catFR1	1	R1067P
1706.265	0.182	1777343	REC_WORD_VV	0.182	n/a	<>	n/a	-999	16	[0, 0, 0]	n/a	catFR1	1	R1067P
1706.447	1.0	1777434	REC_WORD	1.0	n/a	CHIMPANZEE	Zoo	12	16	[0, 0, 0]	n/a	catFR1	1	R1067P
1707.447	27.231	1777934	REC_WORD_VV	27.231	n/a	<>	n/a	-999	16	[0, 0, 0]	n/a	catFR1	1	R1067P
1734.678	2.777	1791549	REC_END	n/a	n/a	n/a	n/a	-999	16	[0, 0, 0]	n/a	catFR1	1	R1067P
1737.455	0.0	1792938	TRIAL	n/a	n/a	n/a	n/a	-999	17	[0, 0, 0]	n/a	catFR1	1	R1067P
1737.455	10.428	1792938	COUNTDOWN_START	n/a	n/a	n/a	n/a	-999	17	[0, 0, 0]	n/a	catFR1	1	R1067P
1747.883	0.008	1798151	COUNTDOWN_END	n/a	n/a	n/a	n/a	-999	17	[0, 0, 0]	n/a	catFR1	1	R1067P
1747.891	3.817	1798155	ORIENT	n/a	n/a	n/a	n/a	-999	17	[0, 0, 0]	n/a	catFR1	1	R1067P
1751.708	2.634	1800064	WORD	n/a	wordpools/wordpool_categorized_EN.txt	SPIDER	Insects	1	17	[0, 0, 0]	n/a	catFR1	1	R1067P
1754.342	2.451	1801381	WORD	n/a	wordpools/wordpool_categorized_EN.txt	ROACH	Insects	2	17	[0, 0, 0]	n/a	catFR1	1	R1067P
1756.793	2.416	1802606	WORD	n/a	wordpools/wordpool_categorized_EN.txt	WALNUT	Trees	3	17	[0, 0, 0]	n/a	catFR1	1	R1067P
1759.209	2.568	1803814	WORD	n/a	wordpools/wordpool_categorized_EN.txt	EVERGREEN	Trees	4	17	[0, 0, 0]	n/a	catFR1	1	R1067P
1761.777	2.534	1805098	WORD	n/a	wordpools/wordpool_categorized_EN.txt	WINE	Beverages	5	17	[0, 0, 0]	n/a	catFR1	1	R1067P
1764.311	2.5	1806365	WORD	n/a	wordpools/wordpool_categorized_EN.txt	CIDER	Beverages	6	17	[0, 0, 0]	n/a	catFR1	1	R1067P
1766.811	2.566	1807615	WORD	n/a	wordpools/wordpool_categorized_EN.txt	GNAT	Insects	7	17	[0, 0, 0]	n/a	catFR1	1	R1067P
1769.377	2.552	1808898	WORD	n/a	wordpools/wordpool_categorized_EN.txt	BEETLE	Insects	8	17	[0, 0, 0]	n/a	catFR1	1	R1067P
1771.929	2.4	1810174	WORD	n/a	wordpools/wordpool_categorized_EN.txt	BEER	Beverages	9	17	[0, 0, 0]	n/a	catFR1	1	R1067P
1774.329	2.517	1811374	WORD	n/a	wordpools/wordpool_categorized_EN.txt	LEMONADE	Beverages	10	17	[0, 0, 0]	n/a	catFR1	1	R1067P
1776.846	2.401	1812632	WORD	n/a	wordpools/wordpool_categorized_EN.txt	BIRCH	Trees	11	17	[0, 0, 0]	n/a	catFR1	1	R1067P
1779.247	1.617	1813833	WORD	n/a	wordpools/wordpool_categorized_EN.txt	ELM	Trees	12	17	[0, 0, 0]	n/a	catFR1	1	R1067P
1780.864	0.001	1814641	DISTRACT_START	n/a	n/a	n/a	n/a	-999	17	[0, 0, 0]	n/a	catFR1	1	R1067P
1780.865	0.015	1814642	START	n/a	n/a	n/a	n/a	-999	17	[-999, -999, -999]	n/a	catFR1	1	R1067P
1780.88	6.052	1814649	PROB	6.052	n/a	n/a	n/a	-999	17	[1, 9, 7]	17	catFR1	1	R1067P
1786.932	4.483	1817675	PROB	4.483	n/a	n/a	n/a	-999	17	[6, 9, 7]	22	catFR1	1	R1067P
1791.415	4.167	1819916	PROB	4.167	n/a	n/a	n/a	-999	17	[1, 2, 3]	6	catFR1	1	R1067P
1795.582	3.535	1822000	PROB	3.535	n/a	n/a	n/a	-999	17	[3, 9, 6]	18	catFR1	1	R1067P
1799.117	7.125	1823767	PROB	7.125	n/a	n/a	n/a	-999	17	[2, 7, 6]	15	catFR1	1	R1067P
1806.242	0.01	1827329	STOP	n/a	n/a	n/a	n/a	-999	17	[-999, -999, -999]	n/a	catFR1	1	R1067P
1806.252	1.183	1827334	DISTRACT_END	n/a	n/a	n/a	n/a	-999	17	[0, 0, 0]	n/a	catFR1	1	R1067P
1807.435	1.56	1827926	REC_START	n/a	n/a	n/a	n/a	-999	17	[0, 0, 0]	n/a	catFR1	1	R1067P
1808.995	0.894	1828706	REC_WORD_VV	0.894	n/a	<>	n/a	-999	17	[0, 0, 0]	n/a	catFR1	1	R1067P
1809.889	0.714	1829153	REC_WORD	0.714	n/a	LEMONADE	Beverages	10	17	[0, 0, 0]	n/a	catFR1	1	R1067P
1810.603	0.436	1829510	REC_WORD	0.436	n/a	BEER	Beverages	9	17	[0, 0, 0]	n/a	catFR1	1	R1067P
1811.039	0.222	1829728	REC_WORD_VV	0.222	n/a	<>	n/a	-999	17	[0, 0, 0]	n/a	catFR1	1	R1067P
1811.261	26.186	1829839	REC_WORD	26.186	n/a	BIRCH	Trees	11	17	[0, 0, 0]	n/a	catFR1	1	R1067P
1837.447	3.295	1842931	REC_END	n/a	n/a	n/a	n/a	-999	17	[0, 0, 0]	n/a	catFR1	1	R1067P
1840.742	0.0	1844579	TRIAL	n/a	n/a	n/a	n/a	-999	18	[0, 0, 0]	n/a	catFR1	1	R1067P
1840.742	10.428	1844579	COUNTDOWN_START	n/a	n/a	n/a	n/a	-999	18	[0, 0, 0]	n/a	catFR1	1	R1067P
1851.17	0.007	1849792	COUNTDOWN_END	n/a	n/a	n/a	n/a	-999	18	[0, 0, 0]	n/a	catFR1	1	R1067P
1851.177	3.483	1849796	ORIENT	n/a	n/a	n/a	n/a	-999	18	[0, 0, 0]	n/a	catFR1	1	R1067P
1854.66	2.518	1851537	WORD	n/a	wordpools/wordpool_categorized_EN.txt	HEN	FarmAnimals	1	18	[0, 0, 0]	n/a	catFR1	1	R1067P
1857.178	2.517	1852796	WORD	n/a	wordpools/wordpool_categorized_EN.txt	BULL	FarmAnimals	2	18	[0, 0, 0]	n/a	catFR1	1	R1067P
1859.695	2.434	1854055	WORD	n/a	wordpools/wordpool_categorized_EN.txt	STAIRS	Building	3	18	[0, 0, 0]	n/a	catFR1	1	R1067P
1862.129	2.499	1855272	WORD	n/a	wordpools/wordpool_categorized_EN.txt	WINDOW	Building	4	18	[0, 0, 0]	n/a	catFR1	1	R1067P
1864.628	2.602	1856521	WORD	n/a	wordpools/wordpool_categorized_EN.txt	JEEP	Vehicles	5	18	[0, 0, 0]	n/a	catFR1	1	R1067P
1867.23	2.517	1857822	WORD	n/a	wordpools/wordpool_categorized_EN.txt	BIKE	Vehicles	6	18	[0, 0, 0]	n/a	catFR1	1	R1067P
1869.747	2.417	1859080	WORD	n/a	wordpools/wordpool_categorized_EN.txt	DOOR	Building	7	18	[0, 0, 0]	n/a	catFR1	1	R1067P
1872.164	2.5	1860289	WORD	n/a	wordpools/wordpool_categorized_EN.txt	CEILING	Building	8	18	[0, 0, 0]	n/a	catFR1	1	R1067P
1874.664	2.518	1861539	WORD	n/a	wordpools/wordpool_categorized_EN.txt	TURKEY	FarmAnimals	9	18	[0, 0, 0]	n/a	catFR1	1	R1067P
1877.182	2.482	1862798	WORD	n/a	wordpools/wordpool_categorized_EN.txt	ROOSTER	FarmAnimals	10	18	[0, 0, 0]	n/a	catFR1	1	R1067P
1879.664	2.585	1864039	WORD	n/a	wordpools/wordpool_categorized_EN.txt	SCOOTER	Vehicles	11	18	[0, 0, 0]	n/a	catFR1	1	R1067P
1882.249	1.617	1865331	WORD	n/a	wordpools/wordpool_categorized_EN.txt	PLANE	Vehicles	12	18	[0, 0, 0]	n/a	catFR1	1	R1067P
1883.866	0.001	1866140	DISTRACT_START	n/a	n/a	n/a	n/a	-999	18	[0, 0, 0]	n/a	catFR1	1	R1067P
1883.867	0.016	1866140	START	n/a	n/a	n/a	n/a	-999	18	[-999, -999, -999]	n/a	catFR1	1	R1067P
1883.883	4.451	1866148	PROB	4.451	n/a	n/a	n/a	-999	18	[3, 1, 7]	11	catFR1	1	R1067P
1888.334	4.601	1868373	PROB	4.601	n/a	n/a	n/a	-999	18	[9, 2, 4]	15	catFR1	1	R1067P
1892.935	7.401	1870674	PROB	7.401	n/a	n/a	n/a	-999	18	[3, 5, 7]	15	catFR1	1	R1067P
1900.336	5.193	1874374	PROB	5.193	n/a	n/a	n/a	-999	18	[5, 6, 1]	12	catFR1	1	R1067P
1905.529	0.007	1876970	STOP	n/a	n/a	n/a	n/a	-999	18	[-999, -999, -999]	n/a	catFR1	1	R1067P
1905.536	1.153	1876974	DISTRACT_END	n/a	n/a	n/a	n/a	-999	18	[0, 0, 0]	n/a	catFR1	1	R1067P
1906.689	1.587	1877550	REC_START	n/a	n/a	n/a	n/a	-999	18	[0, 0, 0]	n/a	catFR1	1	R1067P
1908.276	0.441	1878344	REC_WORD	0.441	n/a	TURKEY	FarmAnimals	9	18	[0, 0, 0]	n/a	catFR1	1	R1067P
1908.717	0.693	1878564	REC_WORD	0.693	n/a	SCOOTER	Vehicles	11	18	[0, 0, 0]	n/a	catFR1	1	R1067P
1909.41	0.207	1878911	REC_WORD_VV	0.207	n/a	<>	n/a	-999	18	[0, 0, 0]	n/a	catFR1	1	R1067P
1909.617	4.402	1879014	REC_WORD	4.402	n/a	PLANE	Vehicles	12	18	[0, 0, 0]	n/a	catFR1	1	R1067P
1914.019	1.0	1881215	REC_WORD_VV	1.0	n/a	<>	n/a	-999	18	[0, 0, 0]	n/a	catFR1	1	R1067P
1915.019	1.0	1881715	REC_WORD_VV	1.0	n/a	<>	n/a	-999	18	[0, 0, 0]	n/a	catFR1	1	R1067P
1916.019	1.288	1882215	REC_WORD_VV	1.288	n/a	<>	n/a	-999	18	[0, 0, 0]	n/a	catFR1	1	R1067P
1917.307	1.0	1882859	REC_WORD_VV	1.0	n/a	<>	n/a	-999	18	[0, 0, 0]	n/a	catFR1	1	R1067P
1918.307	0.773	1883359	REC_WORD_VV	0.773	n/a	<>	n/a	-999	18	[0, 0, 0]	n/a	catFR1	1	R1067P
1919.08	0.347	1883746	REC_WORD	0.347	n/a	TURKEY	FarmAnimals	9	18	[0, 0, 0]	n/a	catFR1	1	R1067P
1919.427	0.47	1883919	REC_WORD	0.47	n/a	SCOOTER	Vehicles	11	18	[0, 0, 0]	n/a	catFR1	1	R1067P
1919.897	0.983	1884154	REC_WORD	0.983	n/a	BIKE	Vehicles	6	18	[0, 0, 0]	n/a	catFR1	1	R1067P
1920.88	1.0	1884646	REC_WORD_VV	1.0	n/a	<>	n/a	-999	18	[0, 0, 0]	n/a	catFR1	1	R1067P
1921.88	3.56	1885146	REC_WORD_VV	3.56	n/a	<>	n/a	-999	18	[0, 0, 0]	n/a	catFR1	1	R1067P
1925.44	11.259	1886925	REC_WORD_VV	11.259	n/a	<>	n/a	-999	18	[0, 0, 0]	n/a	catFR1	1	R1067P
1936.699	3.91	1892555	REC_END	n/a	n/a	n/a	n/a	-999	18	[0, 0, 0]	n/a	catFR1	1	R1067P
1940.609	0.0	1894510	TRIAL	n/a	n/a	n/a	n/a	-999	19	[0, 0, 0]	n/a	catFR1	1	R1067P
1940.609	10.428	1894510	COUNTDOWN_START	n/a	n/a	n/a	n/a	-999	19	[0, 0, 0]	n/a	catFR1	1	R1067P
1951.037	0.009	1899723	COUNTDOWN_END	n/a	n/a	n/a	n/a	-999	19	[0, 0, 0]	n/a	catFR1	1	R1067P
1951.046	3.566	1899728	ORIENT	n/a	n/a	n/a	n/a	-999	19	[0, 0, 0]	n/a	catFR1	1	R1067P
1954.612	2.468	1901511	WORD	n/a	wordpools/wordpool_categorized_EN.txt	CALCULATOR	Electronics	1	19	[0, 0, 0]	n/a	catFR1	1	R1067P
1957.08	2.55	1902745	WORD	n/a	wordpools/wordpool_categorized_EN.txt	PRINTER	Electronics	2	19	[0, 0, 0]	n/a	catFR1	1	R1067P
1959.63	2.568	1904020	WORD	n/a	wordpools/wordpool_categorized_EN.txt	FOREST	Landscapes	3	19	[0, 0, 0]	n/a	catFR1	1	R1067P
1962.198	2.55	1905304	WORD	n/a	wordpools/wordpool_categorized_EN.txt	ISLAND	Landscapes	4	19	[0, 0, 0]	n/a	catFR1	1	R1067P
1964.748	2.484	1906579	WORD	n/a	wordpools/wordpool_categorized_EN.txt	FLUTE	Instruments	5	19	[0, 0, 0]	n/a	catFR1	1	R1067P
1967.232	2.517	1907820	WORD	n/a	wordpools/wordpool_categorized_EN.txt	TRUMPET	Instruments	6	19	[0, 0, 0]	n/a	catFR1	1	R1067P
1969.749	2.584	1909079	WORD	n/a	wordpools/wordpool_categorized_EN.txt	WOODS	Landscapes	7	19	[0, 0, 0]	n/a	catFR1	1	R1067P
1972.333	2.467	1910371	WORD	n/a	wordpools/wordpool_categorized_EN.txt	CREEK	Landscapes	8	19	[0, 0, 0]	n/a	catFR1	1	R1067P
1974.8	2.434	1911604	WORD	n/a	wordpools/wordpool_categorized_EN.txt	SPEAKER	Electronics	9	19	[0, 0, 0]	n/a	catFR1	1	R1067P
1977.234	2.567	1912821	WORD	n/a	wordpools/wordpool_categorized_EN.txt	SCANNER	Electronics	10	19	[0, 0, 0]	n/a	catFR1	1	R1067P
1979.801	2.583	1914105	WORD	n/a	wordpools/wordpool_categorized_EN.txt	TROMBONE	Instruments	11	19	[0, 0, 0]	n/a	catFR1	1	R1067P
1982.384	1.601	1915396	WORD	n/a	wordpools/wordpool_categorized_EN.txt	GUITAR	Instruments	12	19	[0, 0, 0]	n/a	catFR1	1	R1067P
1983.985	0.001	1916197	DISTRACT_START	n/a	n/a	n/a	n/a	-999	19	[0, 0, 0]	n/a	catFR1	1	R1067P
1983.986	0.016	1916197	START	n/a	n/a	n/a	n/a	-999	19	[-999, -999, -999]	n/a	catFR1	1	R1067P
1984.002	6.517	1916205	PROB	6.517	n/a	n/a	n/a	-999	19	[9, 5, 9]	23	catFR1	1	R1067P
1990.519	3.435	1919463	PROB	3.435	n/a	n/a	n/a	-999	19	[6, 2, 6]	14	catFR1	1	R1067P
1993.954	3.649	1921181	PROB	3.649	n/a	n/a	n/a	-999	19	[9, 3, 5]	17	catFR1	1	R1067P
1997.603	3.652	1923005	PROB	3.652	n/a	n/a	n/a	-999	19	[1, 1, 9]	11	catFR1	1	R1067P
2001.255	5.027	1924831	PROB	5.027	n/a	n/a	n/a	-999	19	[7, 7, 9]	23	catFR1	1	R1067P
2006.282	0.007	1927344	STOP	n/a	n/a	n/a	n/a	-999	19	[-999, -999, -999]	n/a	catFR1	1	R1067P
2006.289	1.1	1927348	DISTRACT_END	n/a	n/a	n/a	n/a	-999	19	[0, 0, 0]	n/a	catFR1	1	R1067P
2007.389	0.804	1927898	REC_START	n/a	n/a	n/a	n/a	-999	19	[0, 0, 0]	n/a	catFR1	1	R1067P
2008.193	2.903	1928300	REC_WORD_VV	2.903	n/a	<>	n/a	-999	19	[0, 0, 0]	n/a	catFR1	1	R1067P
2011.096	26.304	1929751	REC_WORD_VV	26.304	n/a	<>	n/a	-999	19	[0, 0, 0]	n/a	catFR1	1	R1067P
2037.4	2.762	1942903	REC_END	n/a	n/a	n/a	n/a	-999	19	[0, 0, 0]	n/a	catFR1	1	R1067P
2040.162	0.0	1944284	TRIAL	n/a	n/a	n/a	n/a	-999	20	[0, 0, 0]	n/a	catFR1	1	R1067P
2040.162	10.428	1944284	COUNTDOWN_START	n/a	n/a	n/a	n/a	-999	20	[0, 0, 0]	n/a	catFR1	1	R1067P
2050.59	0.007	1949497	COUNTDOWN_END	n/a	n/a	n/a	n/a	-999	20	[0, 0, 0]	n/a	catFR1	1	R1067P
2050.597	3.751	1949501	ORIENT	n/a	n/a	n/a	n/a	-999	20	[0, 0, 0]	n/a	catFR1	1	R1067P
2054.348	2.534	1951376	WORD	n/a	wordpools/wordpool_categorized_EN.txt	PHONE	Electronics	1	20	[0, 0, 0]	n/a	catFR1	1	R1067P
2056.882	2.566	1952643	WORD	n/a	wordpools/wordpool_categorized_EN.txt	STEREO	Electronics	2	20	[0, 0, 0]	n/a	catFR1	1	R1067P
2059.448	2.552	1953926	WORD	n/a	wordpools/wordpool_categorized_EN.txt	SKIRT	Clothing	3	20	[0, 0, 0]	n/a	catFR1	1	R1067P
2062.0	2.549	1955202	WORD	n/a	wordpools/wordpool_categorized_EN.txt	PANTS	Clothing	4	20	[0, 0, 0]	n/a	catFR1	1	R1067P
2064.549	2.368	1956477	WORD	n/a	wordpools/wordpool_categorized_EN.txt	CAULIFLOWER	Vegetables	5	20	[0, 0, 0]	n/a	catFR1	1	R1067P
2066.917	2.451	1957660	WORD	n/a	wordpools/wordpool_categorized_EN.txt	CELERY	Vegetables	6	20	[0, 0, 0]	n/a	catFR1	1	R1067P
2069.368	2.383	1958886	WORD	n/a	wordpools/wordpool_categorized_EN.txt	RADIO	Electronics	7	20	[0, 0, 0]	n/a	catFR1	1	R1067P
2071.751	2.484	1960077	WORD	n/a	wordpools/wordpool_categorized_EN.txt	COMPUTER	Electronics	8	20	[0, 0, 0]	n/a	catFR1	1	R1067P
2074.235	2.584	1961319	WORD	n/a	wordpools/wordpool_categorized_EN.txt	BROCCOLI	Vegetables	9	20	[0, 0, 0]	n/a	catFR1	1	R1067P
2076.819	2.616	1962611	WORD	n/a	wordpools/wordpool_categorized_EN.txt	POTATO	Vegetables	10	20	[0, 0, 0]	n/a	catFR1	1	R1067P
2079.435	2.535	1963919	WORD	n/a	wordpools/wordpool_categorized_EN.txt	SHORTS	Clothing	11	20	[0, 0, 0]	n/a	catFR1	1	R1067P
2081.97	1.616	1965187	WORD	n/a	wordpools/wordpool_categorized_EN.txt	JEANS	Clothing	12	20	[0, 0, 0]	n/a	catFR1	1	R1067P
2083.586	0.001	1965995	DISTRACT_START	n/a	n/a	n/a	n/a	-999	20	[0, 0, 0]	n/a	catFR1	1	R1067P
2083.587	0.016	1965995	START	n/a	n/a	n/a	n/a	-999	20	[-999, -999, -999]	n/a	catFR1	1	R1067P
2083.603	5.118	1966003	PROB	5.118	n/a	n/a	n/a	-999	20	[9, 1, 4]	14	catFR1	1	R1067P
2088.721	5.585	1968562	PROB	5.585	n/a	n/a	n/a	-999	20	[7, 5, 7]	21	catFR1	1	R1067P
2094.306	5.066	1971354	PROB	5.066	n/a	n/a	n/a	-999	20	[8, 4, 4]	16	catFR1	1	R1067P
2099.372	3.619	1973887	PROB	3.619	n/a	n/a	n/a	-999	20	[4, 6, 2]	12	catFR1	1	R1067P
2102.991	3.866	1975697	PROB	3.866	n/a	n/a	n/a	-999	20	[4, 1, 5]	10	catFR1	1	R1067P
2106.857	0.018	1977629	STOP	n/a	n/a	n/a	n/a	-999	20	[-999, -999, -999]	n/a	catFR1	1	R1067P
2106.875	1.051	1977638	DISTRACT_END	n/a	n/a	n/a	n/a	-999	20	[0, 0, 0]	n/a	catFR1	1	R1067P
2107.926	0.512	1978164	REC_START	n/a	n/a	n/a	n/a	-999	20	[0, 0, 0]	n/a	catFR1	1	R1067P
2108.438	2.38	1978420	REC_WORD_VV	2.38	n/a	<>	n/a	-999	20	[0, 0, 0]	n/a	catFR1	1	R1067P
2110.818	2.094	1979610	REC_WORD	2.094	n/a	SHORTS	Clothing	11	20	[0, 0, 0]	n/a	catFR1	1	R1067P
2112.912	0.437	1980657	REC_WORD_VV	0.437	n/a	<>	n/a	-999	20	[0, 0, 0]	n/a	catFR1	1	R1067P
2113.349	5.42	1980875	REC_WORD	5.42	n/a	CALCULATOR	n/a	-999	20	[0, 0, 0]	n/a	catFR1	1	R1067P
2118.769	2.049	1983585	REC_WORD_VV	2.049	n/a	<>	n/a	-999	20	[0, 0, 0]	n/a	catFR1	1	R1067P
2120.818	12.096	1984610	REC_WORD	12.096	n/a	MAKEUP	n/a	-999	20	[0, 0, 0]	n/a	catFR1	1	R1067P
2132.914	2.71	1990657	REC_WORD	2.71	n/a	CAULIFLOWER	Vegetables	5	20	[0, 0, 0]	n/a	catFR1	1	R1067P
2135.624	2.313	1992012	REC_WORD	2.313	n/a	BROCCOLI	Vegetables	9	20	[0, 0, 0]	n/a	catFR1	1	R1067P
2137.937	9.129	1993169	REC_END	n/a	n/a	n/a	n/a	-999	20	[0, 0, 0]	n/a	catFR1	1	R1067P
2147.066	0.0	1997733	TRIAL	n/a	n/a	n/a	n/a	-999	21	[0, 0, 0]	n/a	catFR1	1	R1067P
2147.066	10.428	1997733	COUNTDOWN_START	n/a	n/a	n/a	n/a	-999	21	[0, 0, 0]	n/a	catFR1	1	R1067P
2157.494	0.006	2002947	COUNTDOWN_END	n/a	n/a	n/a	n/a	-999	21	[0, 0, 0]	n/a	catFR1	1	R1067P
2157.5	3.485	2002950	ORIENT	n/a	n/a	n/a	n/a	-999	21	[0, 0, 0]	n/a	catFR1	1	R1067P
2160.985	2.416	2004692	WORD	n/a	wordpools/wordpool_categorized_EN.txt	APPLE	Fruit	1	21	[0, 0, 0]	n/a	catFR1	1	R1067P
2163.401	2.535	2005900	WORD	n/a	wordpools/wordpool_categorized_EN.txt	PLUM	Fruit	2	21	[0, 0, 0]	n/a	catFR1	1	R1067P
2165.936	2.417	2007167	WORD	n/a	wordpools/wordpool_categorized_EN.txt	ERASER	OfficeSupplies	3	21	[0, 0, 0]	n/a	catFR1	1	R1067P
2168.353	2.484	2008376	WORD	n/a	wordpools/wordpool_categorized_EN.txt	NOTEBOOK	OfficeSupplies	4	21	[0, 0, 0]	n/a	catFR1	1	R1067P
2170.837	2.533	2009618	WORD	n/a	wordpools/wordpool_categorized_EN.txt	UNDERWEAR	Clothing	5	21	[0, 0, 0]	n/a	catFR1	1	R1067P
2173.37	2.384	2010884	WORD	n/a	wordpools/wordpool_categorized_EN.txt	JACKET	Clothing	6	21	[0, 0, 0]	n/a	catFR1	1	R1067P
2175.754	2.567	2012076	WORD	n/a	wordpools/wordpool_categorized_EN.txt	PEAR	Fruit	7	21	[0, 0, 0]	n/a	catFR1	1	R1067P
2178.321	2.618	2013360	WORD	n/a	wordpools/wordpool_categorized_EN.txt	CHERRY	Fruit	8	21	[0, 0, 0]	n/a	catFR1	1	R1067P
2180.939	2.482	2014669	WORD	n/a	wordpools/wordpool_categorized_EN.txt	DRESS	Clothing	9	21	[0, 0, 0]	n/a	catFR1	1	R1067P
2183.421	2.585	2015910	WORD	n/a	wordpools/wordpool_categorized_EN.txt	SHOES	Clothing	10	21	[0, 0, 0]	n/a	catFR1	1	R1067P
2186.006	2.516	2017202	WORD	n/a	wordpools/wordpool_categorized_EN.txt	RULER	OfficeSupplies	11	21	[0, 0, 0]	n/a	catFR1	1	R1067P
2188.522	1.601	2018460	WORD	n/a	wordpools/wordpool_categorized_EN.txt	MARKER	OfficeSupplies	12	21	[0, 0, 0]	n/a	catFR1	1	R1067P
2190.123	0.001	2019260	DISTRACT_START	n/a	n/a	n/a	n/a	-999	21	[0, 0, 0]	n/a	catFR1	1	R1067P
2190.124	0.016	2019261	START	n/a	n/a	n/a	n/a	-999	21	[-999, -999, -999]	n/a	catFR1	1	R1067P
2190.14	5.517	2019269	PROB	5.517	n/a	n/a	n/a	-999	21	[8, 1, 9]	18	catFR1	1	R1067P
2195.657	3.602	2022027	PROB	3.602	n/a	n/a	n/a	-999	21	[4, 4, 3]	11	catFR1	1	R1067P
2199.259	3.817	2023828	PROB	3.817	n/a	n/a	n/a	-999	21	[1, 3, 9]	13	catFR1	1	R1067P
2203.076	6.567	2025737	PROB	6.567	n/a	n/a	n/a	-999	21	[7, 9, 1]	17	catFR1	1	R1067P
2209.643	4.038	2029020	PROB	4.038	n/a	n/a	n/a	-999	21	[1, 8, 8]	17	catFR1	1	R1067P
2213.681	0.014	2031039	STOP	n/a	n/a	n/a	n/a	-999	21	[-999, -999, -999]	n/a	catFR1	1	R1067P
2213.695	1.051	2031046	DISTRACT_END	n/a	n/a	n/a	n/a	-999	21	[0, 0, 0]	n/a	catFR1	1	R1067P
2214.746	0.57	2031571	REC_START	n/a	n/a	n/a	n/a	-999	21	[0, 0, 0]	n/a	catFR1	1	R1067P
2215.316	1.78	2031856	REC_WORD_VV	1.78	n/a	<>	n/a	-999	21	[0, 0, 0]	n/a	catFR1	1	R1067P
2217.096	0.222	2032746	REC_WORD_VV	0.222	n/a	<>	n/a	-999	21	[0, 0, 0]	n/a	catFR1	1	R1067P
2217.318	10.858	2032857	REC_WORD	10.858	n/a	APPLE	Fruit	1	21	[0, 0, 0]	n/a	catFR1	1	R1067P
2228.176	16.581	2038286	REC_WORD	16.581	n/a	WATERMELON	n/a	-999	21	[0, 0, 0]	n/a	catFR1	1	R1067P
2244.757	4.494	2046576	REC_END	n/a	n/a	n/a	n/a	-999	21	[0, 0, 0]	n/a	catFR1	1	R1067P
2249.251	0.001	2048823	COUNTDOWN_START	n/a	n/a	n/a	n/a	-999	22	[0, 0, 0]	n/a	catFR1	1	R1067P
2249.252	10.427	2048823	TRIAL	n/a	n/a	n/a	n/a	-999	22	[0, 0, 0]	n/a	catFR1	1	R1067P
2259.679	0.007	2054037	COUNTDOWN_END	n/a	n/a	n/a	n/a	-999	22	[0, 0, 0]	n/a	catFR1	1	R1067P
2259.686	3.485	2054040	ORIENT	n/a	n/a	n/a	n/a	-999	22	[0, 0, 0]	n/a	catFR1	1	R1067P
2263.171	2.583	2055783	WORD	n/a	wordpools/wordpool_categorized_EN.txt	TRAIN	Vehicles	1	22	[0, 0, 0]	n/a	catFR1	1	R1067P
2265.754	2.434	2057074	WORD	n/a	wordpools/wordpool_categorized_EN.txt	BOAT	Vehicles	2	22	[0, 0, 0]	n/a	catFR1	1	R1067P
2268.188	2.617	2058291	WORD	n/a	wordpools/wordpool_categorized_EN.txt	SLINKY	Toys	3	22	[0, 0, 0]	n/a	catFR1	1	R1067P
2270.805	2.384	2059599	WORD	n/a	wordpools/wordpool_categorized_EN.txt	MARBLES	Toys	4	22	[0, 0, 0]	n/a	catFR1	1	R1067P
2273.189	2.483	2060791	WORD	n/a	wordpools/wordpool_categorized_EN.txt	GORILLA	Zoo	5	22	[0, 0, 0]	n/a	catFR1	1	R1067P
2275.672	2.368	2062033	WORD	n/a	wordpools/wordpool_categorized_EN.txt	GIRAFFE	Zoo	6	22	[0, 0, 0]	n/a	catFR1	1	R1067P
2278.04	2.466	2063217	WORD	n/a	wordpools/wordpool_categorized_EN.txt	DOLLHOUSE	Toys	7	22	[0, 0, 0]	n/a	catFR1	1	R1067P
2280.506	2.418	2064450	WORD	n/a	wordpools/wordpool_categorized_EN.txt	BASEBALL	Toys	8	22	[0, 0, 0]	n/a	catFR1	1	R1067P
2282.924	2.616	2065659	WORD	n/a	wordpools/wordpool_categorized_EN.txt	MOTORCYCLE	Vehicles	9	22	[0, 0, 0]	n/a	catFR1	1	R1067P
2285.54	2.369	2066966	WORD	n/a	wordpools/wordpool_categorized_EN.txt	MOPED	Vehicles	10	22	[0, 0, 0]	n/a	catFR1	1	R1067P
2287.909	2.45	2068151	WORD	n/a	wordpools/wordpool_categorized_EN.txt	ZEBRA	Zoo	11	22	[0, 0, 0]	n/a	catFR1	1	R1067P
2290.359	1.617	2069376	WORD	n/a	wordpools/wordpool_categorized_EN.txt	PANDA	Zoo	12	22	[0, 0, 0]	n/a	catFR1	1	R1067P
2291.976	0.001	2070184	DISTRACT_START	n/a	n/a	n/a	n/a	-999	22	[0, 0, 0]	n/a	catFR1	1	R1067P
2291.977	0.016	2070185	START	n/a	n/a	n/a	n/a	-999	22	[-999, -999, -999]	n/a	catFR1	1	R1067P
2291.993	4.416	2070193	PROB	4.416	n/a	n/a	n/a	-999	22	[1, 4, 7]	12	catFR1	1	R1067P
2296.409	5.251	2072401	PROB	5.251	n/a	n/a	n/a	-999	22	[1, 3, 9]	13	catFR1	1	R1067P
2301.66	3.834	2075026	PROB	3.834	n/a	n/a	n/a	-999	22	[6, 4, 2]	12	catFR1	1	R1067P
2305.494	6.051	2076943	PROB	6.051	n/a	n/a	n/a	-999	22	[9, 7, 5]	21	catFR1	1	R1067P
2311.545	4.321	2079968	PROB	4.321	n/a	n/a	n/a	-999	22	[4, 5, 1]	10	catFR1	1	R1067P
2315.866	0.014	2082129	STOP	n/a	n/a	n/a	n/a	-999	22	[-999, -999, -999]	n/a	catFR1	1	R1067P
2315.88	1.151	2082136	DISTRACT_END	n/a	n/a	n/a	n/a	-999	22	[0, 0, 0]	n/a	catFR1	1	R1067P
2317.031	30.011	2082711	REC_START	n/a	n/a	n/a	n/a	-999	22	[0, 0, 0]	n/a	catFR1	1	R1067P
2347.042	0.005	2097716	REC_WORD_VV	0.005	n/a	<>	n/a	-999	22	[0, 0, 0]	n/a	catFR1	1	R1067P
2347.047	4.073	2097718	REC_END	n/a	n/a	n/a	n/a	-999	22	[0, 0, 0]	n/a	catFR1	1	R1067P
2351.12	0.001	2099755	COUNTDOWN_START	n/a	n/a	n/a	n/a	-999	23	[0, 0, 0]	n/a	catFR1	1	R1067P
2351.121	10.427	2099755	TRIAL	n/a	n/a	n/a	n/a	-999	23	[0, 0, 0]	n/a	catFR1	1	R1067P
2361.548	0.007	2104969	COUNTDOWN_END	n/a	n/a	n/a	n/a	-999	23	[0, 0, 0]	n/a	catFR1	1	R1067P
2361.555	3.685	2104972	ORIENT	n/a	n/a	n/a	n/a	-999	23	[0, 0, 0]	n/a	catFR1	1	R1067P
2365.24	2.55	2106814	WORD	n/a	wordpools/wordpool_categorized_EN.txt	OCTOPUS	OceanAnimals	1	23	[0, 0, 0]	n/a	catFR1	1	R1067P
2367.79	2.534	2108089	WORD	n/a	wordpools/wordpool_categorized_EN.txt	TURTLE	OceanAnimals	2	23	[0, 0, 0]	n/a	catFR1	1	R1067P
2370.324	2.584	2109356	WORD	n/a	wordpools/wordpool_categorized_EN.txt	JELLO	Desserts	3	23	[0, 0, 0]	n/a	catFR1	1	R1067P
2372.908	2.533	2110648	WORD	n/a	wordpools/wordpool_categorized_EN.txt	BROWNIES	Desserts	4	23	[0, 0, 0]	n/a	catFR1	1	R1067P
2375.441	2.451	2111915	WORD	n/a	wordpools/wordpool_categorized_EN.txt	HEAD	BodyParts	5	23	[0, 0, 0]	n/a	catFR1	1	R1067P
2377.892	2.467	2113140	WORD	n/a	wordpools/wordpool_categorized_EN.txt	ARM	BodyParts	6	23	[0, 0, 0]	n/a	catFR1	1	R1067P
2380.359	2.634	2114374	WORD	n/a	wordpools/wordpool_categorized_EN.txt	WHALE	OceanAnimals	7	23	[0, 0, 0]	n/a	catFR1	1	R1067P
2382.993	2.549	2115691	WORD	n/a	wordpools/wordpool_categorized_EN.txt	SQUID	OceanAnimals	8	23	[0, 0, 0]	n/a	catFR1	1	R1067P
2385.542	2.552	2116965	WORD	n/a	wordpools/wordpool_categorized_EN.txt	NOSE	BodyParts	9	23	[0, 0, 0]	n/a	catFR1	1	R1067P
2388.094	2.549	2118241	WORD	n/a	wordpools/wordpool_categorized_EN.txt	TOE	BodyParts	10	23	[0, 0, 0]	n/a	catFR1	1	R1067P
2390.643	2.519	2119515	WORD	n/a	wordpools/wordpool_categorized_EN.txt	COBBLER	Desserts	11	23	[0, 0, 0]	n/a	catFR1	1	R1067P
2393.162	1.617	2120775	WORD	n/a	wordpools/wordpool_categorized_EN.txt	PIE	Desserts	12	23	[0, 0, 0]	n/a	catFR1	1	R1067P
2394.779	0.001	2121583	DISTRACT_START	n/a	n/a	n/a	n/a	-999	23	[0, 0, 0]	n/a	catFR1	1	R1067P
2394.78	0.015	2121584	START	n/a	n/a	n/a	n/a	-999	23	[-999, -999, -999]	n/a	catFR1	1	R1067P
2394.795	5.051	2121591	PROB	5.051	n/a	n/a	n/a	-999	23	[7, 5, 8]	20	catFR1	1	R1067P
2399.846	4.168	2124117	PROB	4.168	n/a	n/a	n/a	-999	23	[9, 2, 2]	13	catFR1	1	R1067P
2404.014	3.633	2126200	PROB	3.633	n/a	n/a	n/a	-999	23	[3, 7, 3]	13	catFR1	1	R1067P
2407.647	4.201	2128017	PROB	4.201	n/a	n/a	n/a	-999	23	[2, 8, 1]	11	catFR1	1	R1067P
2411.848	3.753	2130117	PROB	3.753	n/a	n/a	n/a	-999	23	[3, 4, 6]	13	catFR1	1	R1067P
2415.601	0.014	2131994	STOP	n/a	n/a	n/a	n/a	-999	23	[-999, -999, -999]	n/a	catFR1	1	R1067P
2415.615	1.202	2132001	DISTRACT_END	n/a	n/a	n/a	n/a	-999	23	[0, 0, 0]	n/a	catFR1	1	R1067P
2416.817	1.013	2132602	REC_START	n/a	n/a	n/a	n/a	-999	23	[0, 0, 0]	n/a	catFR1	1	R1067P
2417.83	1.802	2133108	REC_WORD_VV	1.802	n/a	<>	n/a	-999	23	[0, 0, 0]	n/a	catFR1	1	R1067P
2419.632	1.791	2134009	REC_WORD	1.791	n/a	COBBLER	Desserts	11	23	[0, 0, 0]	n/a	catFR1	1	R1067P
2421.423	0.729	2134905	REC_WORD_VV	0.729	n/a	<>	n/a	-999	23	[0, 0, 0]	n/a	catFR1	1	R1067P
2422.152	0.324	2135269	REC_WORD_VV	0.324	n/a	<>	n/a	-999	23	[0, 0, 0]	n/a	catFR1	1	R1067P
2422.476	5.144	2135431	REC_WORD	5.144	n/a	APPLE	n/a	-999	23	[0, 0, 0]	n/a	catFR1	1	R1067P
2427.62	19.208	2138003	REC_WORD_VV	19.208	n/a	<>	n/a	-999	23	[0, 0, 0]	n/a	catFR1	1	R1067P
2446.828	2.81	2147606	REC_END	n/a	n/a	n/a	n/a	-999	23	[0, 0, 0]	n/a	catFR1	1	R1067P
2449.638	0.0	2149011	COUNTDOWN_START	n/a	n/a	n/a	n/a	-999	24	[0, 0, 0]	n/a	catFR1	1	R1067P
2449.638	10.428	2149011	TRIAL	n/a	n/a	n/a	n/a	-999	24	[0, 0, 0]	n/a	catFR1	1	R1067P
2460.066	0.008	2154225	COUNTDOWN_END	n/a	n/a	n/a	n/a	-999	24	[0, 0, 0]	n/a	catFR1	1	R1067P
2460.074	3.951	2154229	ORIENT	n/a	n/a	n/a	n/a	-999	24	[0, 0, 0]	n/a	catFR1	1	R1067P
2464.025	2.549	2156204	WORD	n/a	wordpools/wordpool_categorized_EN.txt	ORGAN	Instruments	1	24	[0, 0, 0]	n/a	catFR1	1	R1067P
2466.574	2.519	2157479	WORD	n/a	wordpools/wordpool_categorized_EN.txt	BASS	Instruments	2	24	[0, 0, 0]	n/a	catFR1	1	R1067P
2469.093	2.399	2158738	WORD	n/a	wordpools/wordpool_categorized_EN.txt	ORCHID	Flowers	3	24	[0, 0, 0]	n/a	catFR1	1	R1067P
2471.492	2.585	2159938	WORD	n/a	wordpools/wordpool_categorized_EN.txt	PETUNIA	Flowers	4	24	[0, 0, 0]	n/a	catFR1	1	R1067P
2474.077	2.566	2161230	WORD	n/a	wordpools/wordpool_categorized_EN.txt	SOCKS	Clothing	5	24	[0, 0, 0]	n/a	catFR1	1	R1067P
2476.643	2.601	2162513	WORD	n/a	wordpools/wordpool_categorized_EN.txt	COAT	Clothing	6	24	[0, 0, 0]	n/a	catFR1	1	R1067P
2479.244	2.4	2163814	WORD	n/a	wordpools/wordpool_categorized_EN.txt	DAFFODIL	Flowers	7	24	[0, 0, 0]	n/a	catFR1	1	R1067P
2481.644	2.418	2165014	WORD	n/a	wordpools/wordpool_categorized_EN.txt	CARNATION	Flowers	8	24	[0, 0, 0]	n/a	catFR1	1	R1067P
2484.062	2.516	2166222	WORD	n/a	wordpools/wordpool_categorized_EN.txt	BANJO	Instruments	9	24	[0, 0, 0]	n/a	catFR1	1	R1067P
2486.578	2.502	2167480	WORD	n/a	wordpools/wordpool_categorized_EN.txt	VIOLIN	Instruments	10	24	[0, 0, 0]	n/a	catFR1	1	R1067P
2489.08	2.633	2168731	WORD	n/a	wordpools/wordpool_categorized_EN.txt	SHIRT	Clothing	11	24	[0, 0, 0]	n/a	catFR1	1	R1067P
2491.713	1.617	2170048	WORD	n/a	wordpools/wordpool_categorized_EN.txt	BLOUSE	Clothing	12	24	[0, 0, 0]	n/a	catFR1	1	R1067P
2493.33	0.001	2170856	DISTRACT_START	n/a	n/a	n/a	n/a	-999	24	[0, 0, 0]	n/a	catFR1	1	R1067P
2493.331	0.016	2170857	START	n/a	n/a	n/a	n/a	-999	24	[-999, -999, -999]	n/a	catFR1	1	R1067P
2493.347	7.651	2170865	PROB	7.651	n/a	n/a	n/a	-999	24	[1, 7, 8]	16	catFR1	1	R1067P
2500.998	4.55	2174690	PROB	4.55	n/a	n/a	n/a	-999	24	[7, 3, 6]	16	catFR1	1	R1067P
2505.548	4.968	2176965	PROB	4.968	n/a	n/a	n/a	-999	24	[2, 2, 3]	7	catFR1	1	R1067P
2510.516	3.734	2179449	PROB	3.734	n/a	n/a	n/a	-999	24	[1, 8, 1]	10	catFR1	1	R1067P
2514.25	0.018	2181316	STOP	n/a	n/a	n/a	n/a	-999	24	[-999, -999, -999]	n/a	catFR1	1	R1067P
2514.268	1.1	2181325	DISTRACT_END	n/a	n/a	n/a	n/a	-999	24	[0, 0, 0]	n/a	catFR1	1	R1067P
2515.368	30.011	2181875	REC_START	n/a	n/a	n/a	n/a	-999	24	[0, 0, 0]	n/a	catFR1	1	R1067P
2545.379	0.003	2196879	REC_WORD_VV	0.003	n/a	<>	n/a	-999	24	[0, 0, 0]	n/a	catFR1	1	R1067P
2545.382	2.775	2196881	REC_END	n/a	n/a	n/a	n/a	-999	24	[0, 0, 0]	n/a	catFR1	1	R1067P
2548.157	0.0	2198268	TRIAL	n/a	n/a	n/a	n/a	-999	25	[0, 0, 0]	n/a	catFR1	1	R1067P
2548.157	10.428	2198268	COUNTDOWN_START	n/a	n/a	n/a	n/a	-999	25	[0, 0, 0]	n/a	catFR1	1	R1067P
2558.585	0.007	2203482	COUNTDOWN_END	n/a	n/a	n/a	n/a	-999	25	[0, 0, 0]	n/a	catFR1	1	R1067P
2558.592	3.585	2203486	ORIENT	n/a	n/a	n/a	n/a	-999	25	[0, 0, 0]	n/a	catFR1	1	R1067P
2562.177	2.482	2205278	WORD	n/a	wordpools/wordpool_categorized_EN.txt	FOLDER	OfficeSupplies	1	25	[0, 0, 0]	n/a	catFR1	1	R1067P
2564.659	2.452	2206519	WORD	n/a	wordpools/wordpool_categorized_EN.txt	TAPE	OfficeSupplies	2	25	[0, 0, 0]	n/a	catFR1	1	R1067P
2567.111	2.416	2207745	WORD	n/a	wordpools/wordpool_categorized_EN.txt	CAR	Vehicles	3	25	[0, 0, 0]	n/a	catFR1	1	R1067P
2569.527	2.535	2208953	WORD	n/a	wordpools/wordpool_categorized_EN.txt	VAN	Vehicles	4	25	[0, 0, 0]	n/a	catFR1	1	R1067P
2572.062	2.599	2210220	WORD	n/a	wordpools/wordpool_categorized_EN.txt	ANT	Insects	5	25	[0, 0, 0]	n/a	catFR1	1	R1067P
2574.661	2.618	2211520	WORD	n/a	wordpools/wordpool_categorized_EN.txt	MOSQUITO	Insects	6	25	[0, 0, 0]	n/a	catFR1	1	R1067P
2577.279	2.484	2212829	WORD	n/a	wordpools/wordpool_categorized_EN.txt	BINDER	OfficeSupplies	7	25	[0, 0, 0]	n/a	catFR1	1	R1067P
2579.763	2.401	2214071	WORD	n/a	wordpools/wordpool_categorized_EN.txt	PAPER	OfficeSupplies	8	25	[0, 0, 0]	n/a	catFR1	1	R1067P
2582.164	2.55	2215271	WORD	n/a	wordpools/wordpool_categorized_EN.txt	FLY	Insects	9	25	[0, 0, 0]	n/a	catFR1	1	R1067P
2584.714	2.534	2216546	WORD	n/a	wordpools/wordpool_categorized_EN.txt	BUTTERFLY	Insects	10	25	[0, 0, 0]	n/a	catFR1	1	R1067P
2587.248	2.534	2217813	WORD	n/a	wordpools/wordpool_categorized_EN.txt	BUS	Vehicles	11	25	[0, 0, 0]	n/a	catFR1	1	R1067P
2589.782	1.616	2219080	WORD	n/a	wordpools/wordpool_categorized_EN.txt	TRUCK	Vehicles	12	25	[0, 0, 0]	n/a	catFR1	1	R1067P
2591.398	0.001	2219888	DISTRACT_START	n/a	n/a	n/a	n/a	-999	25	[0, 0, 0]	n/a	catFR1	1	R1067P
2591.399	0.015	2219888	START	n/a	n/a	n/a	n/a	-999	25	[-999, -999, -999]	n/a	catFR1	1	R1067P
2591.414	7.703	2219896	PROB	7.703	n/a	n/a	n/a	-999	25	[6, 5, 4]	15	catFR1	1	R1067P
2599.117	3.951	2223747	PROB	3.951	n/a	n/a	n/a	-999	25	[3, 8, 1]	12	catFR1	1	R1067P
2603.068	4.267	2225722	PROB	4.267	n/a	n/a	n/a	-999	25	[3, 9, 7]	19	catFR1	1	R1067P
2607.335	3.25	2227856	PROB	3.25	n/a	n/a	n/a	-999	25	[6, 6, 1]	13	catFR1	1	R1067P
2610.585	3.96	2229481	PROB	3.96	n/a	n/a	n/a	-999	25	[8, 8, 2]	18	catFR1	1	R1067P
2614.545	0.007	2231461	STOP	n/a	n/a	n/a	n/a	-999	25	[-999, -999, -999]	n/a	catFR1	1	R1067P
2614.552	1.168	2231464	DISTRACT_END	n/a	n/a	n/a	n/a	-999	25	[0, 0, 0]	n/a	catFR1	1	R1067P
2615.72	0.836	2232048	REC_START	n/a	n/a	n/a	n/a	-999	25	[0, 0, 0]	n/a	catFR1	1	R1067P
2616.556	1.182	2232466	REC_WORD	1.182	n/a	BUTTERFLY	Insects	10	25	[0, 0, 0]	n/a	catFR1	1	R1067P
2617.738	1.492	2233057	REC_WORD	1.492	n/a	BUS	Vehicles	11	25	[0, 0, 0]	n/a	catFR1	1	R1067P
2619.23	20.023	2233803	REC_WORD	20.023	n/a	TRUCK	Vehicles	12	25	[0, 0, 0]	n/a	catFR1	1	R1067P
2639.253	6.482	2243814	REC_WORD	6.482	n/a	VAN	Vehicles	4	25	[0, 0, 0]	n/a	catFR1	1	R1067P
2645.735	7.741	2247055	REC_END	n/a	n/a	n/a	n/a	-999	25	[0, 0, 0]	n/a	catFR1	1	R1067P
2653.476	0.0	2250925	SESS_END	n/a	n/a	n/a	n/a	-999	25	[0, 0, 0]	n/a	catFR1	1	R1067P
