onset	duration	sample	trial_type	response_time	stim_file	item_name	category	serialpos	list	test	answer	experiment	session	subject
0.0	0.01	79156	SESS_START	n/a	n/a	n/a	n/a	-999	0	[0, 0, 0]	n/a	catFR1	2	R1678T
0.01	57.161	79166	TRIAL	n/a	n/a	n/a	n/a	-999	-1	[0, 0, 0]	n/a	catFR1	2	R1678T
57.171	10.0	136327	COUNTDOWN	n/a	n/a	n/a	n/a	-999	-1	[0, 0, 0]	n/a	catFR1	2	R1678T
67.52	2.101	146676	ENCODING_START	n/a	n/a	n/a	n/a	-999	-1	[0, 0, 0]	n/a	catFR1	2	R1678T
69.621	1.6	148777	WORD	n/a	n/a	SANDER	Tools	1	-1	[0, 0, 0]	n/a	catFR1	2	R1678T
72.236	1.6	151392	WORD	n/a	n/a	RATCHET	Tools	2	-1	[0, 0, 0]	n/a	catFR1	2	R1678T
74.82	1.6	153976	WORD	n/a	n/a	UNDERWEAR	Clothing	3	-1	[0, 0, 0]	n/a	catFR1	2	R1678T
77.286	1.6	156442	WORD	n/a	n/a	PANTS	Clothing	4	-1	[0, 0, 0]	n/a	catFR1	2	R1678T
79.819	1.6	158975	WORD	n/a	n/a	DISHWASHER	Appliances	5	-1	[0, 0, 0]	n/a	catFR1	2	R1678T
82.353	1.6	161509	WORD	n/a	n/a	REFRIGERATOR	Appliances	6	-1	[0, 0, 0]	n/a	catFR1	2	R1678T
84.886	1.6	164042	WORD	n/a	n/a	SHORTS	Clothing	7	-1	[0, 0, 0]	n/a	catFR1	2	R1678T
87.385	1.6	166541	WORD	n/a	n/a	JACKET	Clothing	8	-1	[0, 0, 0]	n/a	catFR1	2	R1678T
89.801	1.6	168957	WORD	n/a	n/a	SHOVEL	Tools	9	-1	[0, 0, 0]	n/a	catFR1	2	R1678T
92.218	1.6	171374	WORD	n/a	n/a	PLIERS	Tools	10	-1	[0, 0, 0]	n/a	catFR1	2	R1678T
94.835	1.6	173991	WORD	n/a	n/a	BLENDER	Appliances	11	-1	[0, 0, 0]	n/a	catFR1	2	R1678T
97.402	1.6	176558	WORD	n/a	n/a	DRYER	Appliances	12	-1	[0, 0, 0]	n/a	catFR1	2	R1678T
99.018	0.001	178174	DISTRACT_START	n/a	n/a	n/a	n/a	-999	0	[0, 0, 0]	n/a	catFR1	2	R1678T
99.019	3.766	178175	PROB	3.75	n/a	n/a	n/a	-999	0	[3, 1, 1]	5.0	catFR1	2	R1678T
102.785	4.916	181941	PROB	4.899	n/a	n/a	n/a	-999	0	[5, 6, 5]	16.0	catFR1	2	R1678T
107.701	8.25	186857	PROB	8.232	n/a	n/a	n/a	-999	0	[5, 1, 7]	13.0	catFR1	2	R1678T
115.951	8.143	195107	PROB	5.965	n/a	n/a	n/a	-999	0	[1, 8, 7]	16.0	catFR1	2	R1678T
124.094	0.437	203250	REC_START	n/a	n/a	n/a	n/a	-999	-1	[0, 0, 0]	n/a	catFR1	2	R1678T
124.531	1.047	203687	REC_WORD_VV	0.437	n/a	<>	n/a	-999	-1	[0, 0, 0]	n/a	catFR1	2	R1678T
125.578	2.746	204734	REC_WORD	1.484	n/a	SOCKET	n/a	-999	-1	[0, 0, 0]	n/a	catFR1	2	R1678T
128.324	4.231	207480	REC_WORD_VV	4.23	n/a	<>	n/a	-999	-1	[0, 0, 0]	n/a	catFR1	2	R1678T
132.555	2.335	211711	REC_WORD	8.461	n/a	RATCHET	Tools	2	-1	[0, 0, 0]	n/a	catFR1	2	R1678T
134.89	0.315	214046	REC_WORD_VV	10.796	n/a	<>	n/a	-999	-1	[0, 0, 0]	n/a	catFR1	2	R1678T
135.205	1.43	214361	REC_WORD	11.111	n/a	UNDERWEAR	Clothing	3	-1	[0, 0, 0]	n/a	catFR1	2	R1678T
136.635	7.381	215791	REC_WORD	12.541	n/a	PANTS	Clothing	4	-1	[0, 0, 0]	n/a	catFR1	2	R1678T
144.016	3.307	223172	REC_WORD_VV	19.922	n/a	<>	n/a	-999	-1	[0, 0, 0]	n/a	catFR1	2	R1678T
147.323	0.418	226479	REC_WORD	23.229	n/a	BLENDER	Appliances	11	-1	[0, 0, 0]	n/a	catFR1	2	R1678T
147.741	1.0	226897	REC_WORD	23.647	n/a	SOCKS	n/a	-999	-1	[0, 0, 0]	n/a	catFR1	2	R1678T
148.741	0.829	227897	REC_WORD_VV	24.647	n/a	<>	n/a	-999	-1	[0, 0, 0]	n/a	catFR1	2	R1678T
149.57	1.0	228726	REC_WORD_VV	25.476	n/a	<>	n/a	-999	-1	[0, 0, 0]	n/a	catFR1	2	R1678T
150.57	0.121	229726	REC_WORD_VV	26.476	n/a	<>	n/a	-999	-1	[0, 0, 0]	n/a	catFR1	2	R1678T
150.691	3.564	229847	REC_WORD	26.597	n/a	SHORTS	Clothing	7	-1	[0, 0, 0]	n/a	catFR1	2	R1678T
154.255	31.476	233411	TRIAL	n/a	n/a	n/a	n/a	-999	1	[0, 0, 0]	n/a	catFR1	2	R1678T
185.731	10.0	264887	COUNTDOWN	n/a	n/a	n/a	n/a	-999	1	[0, 0, 0]	n/a	catFR1	2	R1678T
196.08	2.133	275236	ENCODING_START	n/a	n/a	n/a	n/a	-999	1	[0, 0, 0]	n/a	catFR1	2	R1678T
198.213	1.6	277369	WORD	n/a	wordpools/wordpool_categorized_EN.txt	MIXER	Appliances	1	1	[0, 0, 0]	n/a	catFR1	2	R1678T
200.796	1.6	279952	WORD	n/a	wordpools/wordpool_categorized_EN.txt	STOVE	Appliances	2	1	[0, 0, 0]	n/a	catFR1	2	R1678T
203.346	1.6	282502	WORD	n/a	wordpools/wordpool_categorized_EN.txt	OCTOPUS	OceanAnimals	3	1	[0, 0, 0]	n/a	catFR1	2	R1678T
205.763	1.6	284919	WORD	n/a	wordpools/wordpool_categorized_EN.txt	JELLYFISH	OceanAnimals	4	1	[0, 0, 0]	n/a	catFR1	2	R1678T
208.313	1.6	287469	WORD	n/a	wordpools/wordpool_categorized_EN.txt	BATHROOM	Building	5	1	[0, 0, 0]	n/a	catFR1	2	R1678T
210.729	1.6	289885	WORD	n/a	wordpools/wordpool_categorized_EN.txt	DOOR	Building	6	1	[0, 0, 0]	n/a	catFR1	2	R1678T
213.346	1.6	292502	WORD	n/a	wordpools/wordpool_categorized_EN.txt	IRON	Appliances	7	1	[0, 0, 0]	n/a	catFR1	2	R1678T
215.963	1.6	295119	WORD	n/a	wordpools/wordpool_categorized_EN.txt	FREEZER	Appliances	8	1	[0, 0, 0]	n/a	catFR1	2	R1678T
218.496	1.6	297652	WORD	n/a	wordpools/wordpool_categorized_EN.txt	WALL	Building	9	1	[0, 0, 0]	n/a	catFR1	2	R1678T
220.979	1.6	300135	WORD	n/a	wordpools/wordpool_categorized_EN.txt	HALLWAY	Building	10	1	[0, 0, 0]	n/a	catFR1	2	R1678T
223.595	1.6	302751	WORD	n/a	wordpools/wordpool_categorized_EN.txt	SQUID	OceanAnimals	11	1	[0, 0, 0]	n/a	catFR1	2	R1678T
226.079	1.6	305235	WORD	n/a	wordpools/wordpool_categorized_EN.txt	CRAB	OceanAnimals	12	1	[0, 0, 0]	n/a	catFR1	2	R1678T
227.696	0.001	306852	PROB	5.849	n/a	n/a	n/a	-999	1	[7, 1, 5]	13.0	catFR1	2	R1678T
227.697	5.864	306853	DISTRACT_START	n/a	n/a	n/a	n/a	-999	1	[0, 0, 0]	n/a	catFR1	2	R1678T
233.561	5.35	312717	PROB	5.333	n/a	n/a	n/a	-999	1	[2, 7, 6]	15.0	catFR1	2	R1678T
238.911	7.483	318067	PROB	7.466	n/a	n/a	n/a	-999	1	[7, 5, 2]	14.0	catFR1	2	R1678T
246.394	9.269	325550	PROB	6.883	n/a	n/a	n/a	-999	1	[7, 1, 4]	12.0	catFR1	2	R1678T
255.663	0.325	334819	REC_START	n/a	n/a	n/a	n/a	-999	1	[0, 0, 0]	n/a	catFR1	2	R1678T
255.988	1.0	335144	REC_WORD_VV	0.325	n/a	<>	n/a	-999	1	[0, 0, 0]	n/a	catFR1	2	R1678T
256.988	1.0	336144	REC_WORD_VV	1.325	n/a	<>	n/a	-999	1	[0, 0, 0]	n/a	catFR1	2	R1678T
257.988	2.375	337144	REC_WORD_VV	2.325	n/a	<>	n/a	-999	1	[0, 0, 0]	n/a	catFR1	2	R1678T
260.363	1.0	339519	REC_WORD	4.7	n/a	OCTOPUS	OceanAnimals	3	1	[0, 0, 0]	n/a	catFR1	2	R1678T
261.363	0.77	340519	REC_WORD_VV	5.7	n/a	<>	n/a	-999	1	[0, 0, 0]	n/a	catFR1	2	R1678T
262.133	1.704	341289	REC_WORD	6.47	n/a	JELLYFISH	OceanAnimals	4	1	[0, 0, 0]	n/a	catFR1	2	R1678T
263.837	6.715	342993	REC_WORD_VV	8.174	n/a	<>	n/a	-999	1	[0, 0, 0]	n/a	catFR1	2	R1678T
270.552	1.778	349708	REC_WORD_VV	14.889	n/a	<>	n/a	-999	1	[0, 0, 0]	n/a	catFR1	2	R1678T
272.33	2.605	351486	REC_WORD	16.667	n/a	CRAB	OceanAnimals	12	1	[0, 0, 0]	n/a	catFR1	2	R1678T
274.935	1.0	354091	REC_WORD_VV	19.272	n/a	<>	n/a	-999	1	[0, 0, 0]	n/a	catFR1	2	R1678T
275.935	4.399	355091	REC_WORD_VV	20.272	n/a	<>	n/a	-999	1	[0, 0, 0]	n/a	catFR1	2	R1678T
280.334	1.0	359490	REC_WORD_VV	24.671	n/a	<>	n/a	-999	1	[0, 0, 0]	n/a	catFR1	2	R1678T
281.334	4.469	360490	REC_WORD_VV	25.671	n/a	<>	n/a	-999	1	[0, 0, 0]	n/a	catFR1	2	R1678T
285.803	29.305	364959	TRIAL	n/a	n/a	n/a	n/a	-999	2	[0, 0, 0]	n/a	catFR1	2	R1678T
315.108	10.0	394264	COUNTDOWN	n/a	n/a	n/a	n/a	-999	2	[0, 0, 0]	n/a	catFR1	2	R1678T
325.457	2.034	404613	ENCODING_START	n/a	n/a	n/a	n/a	-999	2	[0, 0, 0]	n/a	catFR1	2	R1678T
327.491	1.6	406647	WORD	n/a	wordpools/wordpool_categorized_EN.txt	PEN	OfficeSupplies	1	2	[0, 0, 0]	n/a	catFR1	2	R1678T
330.024	1.6	409180	WORD	n/a	wordpools/wordpool_categorized_EN.txt	BINDER	OfficeSupplies	2	2	[0, 0, 0]	n/a	catFR1	2	R1678T
332.607	1.6	411763	WORD	n/a	wordpools/wordpool_categorized_EN.txt	JEANS	Clothing	3	2	[0, 0, 0]	n/a	catFR1	2	R1678T
335.157	1.6	414313	WORD	n/a	wordpools/wordpool_categorized_EN.txt	SHOES	Clothing	4	2	[0, 0, 0]	n/a	catFR1	2	R1678T
337.657	1.6	416813	WORD	n/a	wordpools/wordpool_categorized_EN.txt	SUEDE	Fabric	5	2	[0, 0, 0]	n/a	catFR1	2	R1678T
340.04	1.6	419196	WORD	n/a	wordpools/wordpool_categorized_EN.txt	FLEECE	Fabric	6	2	[0, 0, 0]	n/a	catFR1	2	R1678T
342.523	1.6	421679	WORD	n/a	wordpools/wordpool_categorized_EN.txt	SHIRT	Clothing	7	2	[0, 0, 0]	n/a	catFR1	2	R1678T
345.039	1.6	424195	WORD	n/a	wordpools/wordpool_categorized_EN.txt	SOCKS	Clothing	8	2	[0, 0, 0]	n/a	catFR1	2	R1678T
347.638	1.6	426794	WORD	n/a	wordpools/wordpool_categorized_EN.txt	MARKER	OfficeSupplies	9	2	[0, 0, 0]	n/a	catFR1	2	R1678T
350.19	1.6	429346	WORD	n/a	wordpools/wordpool_categorized_EN.txt	NOTEBOOK	OfficeSupplies	10	2	[0, 0, 0]	n/a	catFR1	2	R1678T
352.64	1.6	431796	WORD	n/a	wordpools/wordpool_categorized_EN.txt	VELVET	Fabric	11	2	[0, 0, 0]	n/a	catFR1	2	R1678T
355.123	1.6	434279	WORD	n/a	wordpools/wordpool_categorized_EN.txt	SATIN	Fabric	12	2	[0, 0, 0]	n/a	catFR1	2	R1678T
356.74	0.001	435896	PROB	5.249	n/a	n/a	n/a	-999	2	[1, 6, 2]	9.0	catFR1	2	R1678T
356.741	5.265	435897	DISTRACT_START	n/a	n/a	n/a	n/a	-999	2	[0, 0, 0]	n/a	catFR1	2	R1678T
362.006	7.232	441162	PROB	7.216	n/a	n/a	n/a	-999	2	[2, 4, 2]	8.0	catFR1	2	R1678T
369.238	10.997	448394	PROB	8.566	n/a	n/a	n/a	-999	2	[1, 8, 5]	15.0	catFR1	2	R1678T
380.235	3.417	459391	REC_START	n/a	n/a	n/a	n/a	-999	2	[0, 0, 0]	n/a	catFR1	2	R1678T
383.652	2.04	462808	REC_WORD_VV	3.417	n/a	<>	n/a	-999	2	[0, 0, 0]	n/a	catFR1	2	R1678T
385.692	2.067	464848	REC_WORD	5.457	n/a	PANTS	Clothing	-999	2	[0, 0, 0]	n/a	catFR1	2	R1678T
387.759	4.5	466915	REC_WORD_VV	7.524	n/a	<>	n/a	-999	2	[0, 0, 0]	n/a	catFR1	2	R1678T
392.259	1.251	471415	REC_WORD_VV	12.024	n/a	<>	n/a	-999	2	[0, 0, 0]	n/a	catFR1	2	R1678T
393.51	2.082	472666	REC_WORD	13.275	n/a	JEANS	Clothing	3	2	[0, 0, 0]	n/a	catFR1	2	R1678T
395.592	1.0	474748	REC_WORD	15.357	n/a	SUEDE	Fabric	5	2	[0, 0, 0]	n/a	catFR1	2	R1678T
396.592	5.221	475748	REC_WORD_VV	16.357	n/a	<>	n/a	-999	2	[0, 0, 0]	n/a	catFR1	2	R1678T
401.813	2.857	480969	REC_WORD	21.578	n/a	BATHROOM	Building	-999	2	[0, 0, 0]	n/a	catFR1	2	R1678T
404.67	0.28	483826	REC_WORD_VV	24.435	n/a	<>	n/a	-999	2	[0, 0, 0]	n/a	catFR1	2	R1678T
404.95	4.96	484106	REC_WORD	24.715	n/a	SOCKS	Clothing	8	2	[0, 0, 0]	n/a	catFR1	2	R1678T
409.91	0.473	489066	REC_WORD_VV	29.675	n/a	<>	n/a	-999	2	[0, 0, 0]	n/a	catFR1	2	R1678T
410.383	7.486	489539	TRIAL	n/a	n/a	n/a	n/a	-999	3	[0, 0, 0]	n/a	catFR1	2	R1678T
417.869	10.0	497025	COUNTDOWN	n/a	n/a	n/a	n/a	-999	3	[0, 0, 0]	n/a	catFR1	2	R1678T
428.218	2.184	507374	ENCODING_START	n/a	n/a	n/a	n/a	-999	3	[0, 0, 0]	n/a	catFR1	2	R1678T
430.402	1.6	509558	WORD	n/a	wordpools/wordpool_categorized_EN.txt	COW	FarmAnimals	1	3	[0, 0, 0]	n/a	catFR1	2	R1678T
432.97	1.6	512126	WORD	n/a	wordpools/wordpool_categorized_EN.txt	PIG	FarmAnimals	2	3	[0, 0, 0]	n/a	catFR1	2	R1678T
435.485	1.6	514641	WORD	n/a	wordpools/wordpool_categorized_EN.txt	CAR	Vehicles	3	3	[0, 0, 0]	n/a	catFR1	2	R1678T
437.969	1.6	517125	WORD	n/a	wordpools/wordpool_categorized_EN.txt	MOPED	Vehicles	4	3	[0, 0, 0]	n/a	catFR1	2	R1678T
440.435	1.6	519591	WORD	n/a	wordpools/wordpool_categorized_EN.txt	TELEVISION	Electronics	5	3	[0, 0, 0]	n/a	catFR1	2	R1678T
442.851	1.6	522007	WORD	n/a	wordpools/wordpool_categorized_EN.txt	PRINTER	Electronics	6	3	[0, 0, 0]	n/a	catFR1	2	R1678T
445.268	1.6	524424	WORD	n/a	wordpools/wordpool_categorized_EN.txt	SHEEP	FarmAnimals	7	3	[0, 0, 0]	n/a	catFR1	2	R1678T
447.851	1.6	527007	WORD	n/a	wordpools/wordpool_categorized_EN.txt	TURKEY	FarmAnimals	8	3	[0, 0, 0]	n/a	catFR1	2	R1678T
450.368	1.6	529524	WORD	n/a	wordpools/wordpool_categorized_EN.txt	BIKE	Vehicles	9	3	[0, 0, 0]	n/a	catFR1	2	R1678T
452.801	1.6	531957	WORD	n/a	wordpools/wordpool_categorized_EN.txt	TRAIN	Vehicles	10	3	[0, 0, 0]	n/a	catFR1	2	R1678T
455.267	1.6	534423	WORD	n/a	wordpools/wordpool_categorized_EN.txt	CALCULATOR	Electronics	11	3	[0, 0, 0]	n/a	catFR1	2	R1678T
457.735	1.6	536891	WORD	n/a	wordpools/wordpool_categorized_EN.txt	HEADPHONES	Electronics	12	3	[0, 0, 0]	n/a	catFR1	2	R1678T
459.351	0.001	538507	PROB	6.049	n/a	n/a	n/a	-999	3	[4, 8, 8]	20.0	catFR1	2	R1678T
459.352	6.066	538508	DISTRACT_START	n/a	n/a	n/a	n/a	-999	3	[0, 0, 0]	n/a	catFR1	2	R1678T
465.418	3.332	544574	PROB	3.316	n/a	n/a	n/a	-999	3	[1, 1, 4]	6.0	catFR1	2	R1678T
468.75	6.25	547906	PROB	6.233	n/a	n/a	n/a	-999	3	[7, 3, 3]	13.0	catFR1	2	R1678T
475.0	7.458	554156	PROB	5.117	n/a	n/a	n/a	-999	3	[6, 5, 5]	16.0	catFR1	2	R1678T
482.458	0.364	561614	REC_START	n/a	n/a	n/a	n/a	-999	3	[0, 0, 0]	n/a	catFR1	2	R1678T
482.822	0.72	561978	REC_WORD_VV	0.364	n/a	<>	n/a	-999	3	[0, 0, 0]	n/a	catFR1	2	R1678T
483.542	1.555	562698	REC_WORD	1.084	n/a	COW	FarmAnimals	1	3	[0, 0, 0]	n/a	catFR1	2	R1678T
485.097	1.917	564253	REC_WORD	2.639	n/a	PIG	FarmAnimals	2	3	[0, 0, 0]	n/a	catFR1	2	R1678T
487.014	1.0	566170	REC_WORD_VV	4.556	n/a	<>	n/a	-999	3	[0, 0, 0]	n/a	catFR1	2	R1678T
488.014	7.898	567170	REC_WORD_VV	5.556	n/a	<>	n/a	-999	3	[0, 0, 0]	n/a	catFR1	2	R1678T
495.912	0.395	575068	REC_WORD_VV	13.454	n/a	<>	n/a	-999	3	[0, 0, 0]	n/a	catFR1	2	R1678T
496.307	0.841	575463	REC_WORD	13.849	n/a	PRINTER	Electronics	6	3	[0, 0, 0]	n/a	catFR1	2	R1678T
497.148	2.026	576304	REC_WORD_VV	14.69	n/a	<>	n/a	-999	3	[0, 0, 0]	n/a	catFR1	2	R1678T
499.174	1.584	578330	REC_WORD_VV	16.716	n/a	<>	n/a	-999	3	[0, 0, 0]	n/a	catFR1	2	R1678T
500.758	1.145	579914	REC_WORD_VV	18.3	n/a	<>	n/a	-999	3	[0, 0, 0]	n/a	catFR1	2	R1678T
501.903	1.0	581059	REC_WORD	19.445	n/a	SATIN	Fabric	-999	3	[0, 0, 0]	n/a	catFR1	2	R1678T
502.903	3.209	582059	REC_WORD_VV	20.445	n/a	<>	n/a	-999	3	[0, 0, 0]	n/a	catFR1	2	R1678T
506.112	0.997	585268	REC_WORD	23.654	n/a	SUEDE	Fabric	-999	3	[0, 0, 0]	n/a	catFR1	2	R1678T
507.109	2.151	586265	REC_WORD	24.651	n/a	VELVET	Fabric	-999	3	[0, 0, 0]	n/a	catFR1	2	R1678T
509.26	3.361	588416	REC_WORD_VV	26.802	n/a	<>	n/a	-999	3	[0, 0, 0]	n/a	catFR1	2	R1678T
512.621	5.377	591777	TRIAL	n/a	n/a	n/a	n/a	-999	4	[0, 0, 0]	n/a	catFR1	2	R1678T
517.998	10.0	597154	COUNTDOWN	n/a	n/a	n/a	n/a	-999	4	[0, 0, 0]	n/a	catFR1	2	R1678T
528.365	2.333	607521	ENCODING_START	n/a	n/a	n/a	n/a	-999	4	[0, 0, 0]	n/a	catFR1	2	R1678T
530.698	1.6	609854	WORD	n/a	wordpools/wordpool_categorized_EN.txt	DOVE	Birds	1	4	[0, 0, 0]	n/a	catFR1	2	R1678T
533.214	1.6	612370	WORD	n/a	wordpools/wordpool_categorized_EN.txt	CARDINAL	Birds	2	4	[0, 0, 0]	n/a	catFR1	2	R1678T
535.697	1.6	614853	WORD	n/a	wordpools/wordpool_categorized_EN.txt	HURRICANE	Weather	3	4	[0, 0, 0]	n/a	catFR1	2	R1678T
538.213	1.6	617369	WORD	n/a	wordpools/wordpool_categorized_EN.txt	DRIZZLE	Weather	4	4	[0, 0, 0]	n/a	catFR1	2	R1678T
540.648	1.6	619804	WORD	n/a	wordpools/wordpool_categorized_EN.txt	SPEAKER	Electronics	5	4	[0, 0, 0]	n/a	catFR1	2	R1678T
543.13	1.6	622286	WORD	n/a	wordpools/wordpool_categorized_EN.txt	SCANNER	Electronics	6	4	[0, 0, 0]	n/a	catFR1	2	R1678T
545.496	1.6	624652	WORD	n/a	wordpools/wordpool_categorized_EN.txt	GOOSE	Birds	7	4	[0, 0, 0]	n/a	catFR1	2	R1678T
548.095	1.6	627251	WORD	n/a	wordpools/wordpool_categorized_EN.txt	DUCK	Birds	8	4	[0, 0, 0]	n/a	catFR1	2	R1678T
550.68	1.6	629836	WORD	n/a	wordpools/wordpool_categorized_EN.txt	TABLET	Electronics	9	4	[0, 0, 0]	n/a	catFR1	2	R1678T
553.213	1.6	632369	WORD	n/a	wordpools/wordpool_categorized_EN.txt	COMPUTER	Electronics	10	4	[0, 0, 0]	n/a	catFR1	2	R1678T
555.597	1.6	634753	WORD	n/a	wordpools/wordpool_categorized_EN.txt	HUMIDITY	Weather	11	4	[0, 0, 0]	n/a	catFR1	2	R1678T
558.196	1.6	637352	WORD	n/a	wordpools/wordpool_categorized_EN.txt	WIND	Weather	12	4	[0, 0, 0]	n/a	catFR1	2	R1678T
559.813	0.002	638969	PROB	4.233	n/a	n/a	n/a	-999	4	[2, 2, 7]	11.0	catFR1	2	R1678T
559.815	4.248	638971	DISTRACT_START	n/a	n/a	n/a	n/a	-999	4	[0, 0, 0]	n/a	catFR1	2	R1678T
564.063	4.2	643219	PROB	4.183	n/a	n/a	n/a	-999	4	[5, 6, 1]	12.0	catFR1	2	R1678T
568.263	8.683	647419	PROB	8.666	n/a	n/a	n/a	-999	4	[6, 8, 5]	19.0	catFR1	2	R1678T
576.946	8.691	656102	PROB	6.383	n/a	n/a	n/a	-999	4	[7, 1, 2]	10.0	catFR1	2	R1678T
585.637	0.758	664793	REC_START	n/a	n/a	n/a	n/a	-999	4	[0, 0, 0]	n/a	catFR1	2	R1678T
586.395	1.777	665551	REC_WORD	0.758	n/a	DOVE	Birds	1	4	[0, 0, 0]	n/a	catFR1	2	R1678T
588.172	2.063	667328	REC_WORD	2.535	n/a	CARDINAL	Birds	2	4	[0, 0, 0]	n/a	catFR1	2	R1678T
590.235	2.326	669391	REC_WORD_VV	4.598	n/a	<>	n/a	-999	4	[0, 0, 0]	n/a	catFR1	2	R1678T
592.561	4.636	671717	REC_WORD	6.924	n/a	HURRICANE	Weather	3	4	[0, 0, 0]	n/a	catFR1	2	R1678T
597.197	1.0	676353	REC_WORD	11.56	n/a	DOVE	Birds	1	4	[0, 0, 0]	n/a	catFR1	2	R1678T
598.197	3.492	677353	REC_WORD_VV	12.56	n/a	<>	n/a	-999	4	[0, 0, 0]	n/a	catFR1	2	R1678T
601.689	0.35	680845	REC_WORD_VV	16.052	n/a	<>	n/a	-999	4	[0, 0, 0]	n/a	catFR1	2	R1678T
602.039	5.487	681195	REC_WORD	16.402	n/a	TURKEY	FarmAnimals	-999	4	[0, 0, 0]	n/a	catFR1	2	R1678T
607.526	1.0	686682	REC_WORD_VV	21.889	n/a	<>	n/a	-999	4	[0, 0, 0]	n/a	catFR1	2	R1678T
608.526	4.286	687682	REC_WORD_VV	22.889	n/a	<>	n/a	-999	4	[0, 0, 0]	n/a	catFR1	2	R1678T
612.812	2.988	691968	REC_WORD	27.175	n/a	GOOSE	Birds	7	4	[0, 0, 0]	n/a	catFR1	2	R1678T
615.8	11.544	694956	TRIAL	n/a	n/a	n/a	n/a	-999	5	[0, 0, 0]	n/a	catFR1	2	R1678T
627.344	10.0	706500	COUNTDOWN	n/a	n/a	n/a	n/a	-999	5	[0, 0, 0]	n/a	catFR1	2	R1678T
637.693	2.3	716849	ENCODING_START	n/a	n/a	n/a	n/a	-999	5	[0, 0, 0]	n/a	catFR1	2	R1678T
639.993	1.6	719149	WORD	n/a	wordpools/wordpool_categorized_EN.txt	DESK	Furniture	1	5	[0, 0, 0]	n/a	catFR1	2	R1678T
642.559	1.6	721715	WORD	n/a	wordpools/wordpool_categorized_EN.txt	CHAIR	Furniture	2	5	[0, 0, 0]	n/a	catFR1	2	R1678T
645.076	1.6	724232	WORD	n/a	wordpools/wordpool_categorized_EN.txt	STEREO	Electronics	3	5	[0, 0, 0]	n/a	catFR1	2	R1678T
647.509	1.6	726665	WORD	n/a	wordpools/wordpool_categorized_EN.txt	PHONE	Electronics	4	5	[0, 0, 0]	n/a	catFR1	2	R1678T
649.975	1.6	729131	WORD	n/a	wordpools/wordpool_categorized_EN.txt	DRESS	Clothing	5	5	[0, 0, 0]	n/a	catFR1	2	R1678T
652.575	1.6	731731	WORD	n/a	wordpools/wordpool_categorized_EN.txt	BLOUSE	Clothing	6	5	[0, 0, 0]	n/a	catFR1	2	R1678T
655.142	1.6	734298	WORD	n/a	wordpools/wordpool_categorized_EN.txt	TABLE	Furniture	7	5	[0, 0, 0]	n/a	catFR1	2	R1678T
657.708	1.6	736864	WORD	n/a	wordpools/wordpool_categorized_EN.txt	CABINET	Furniture	8	5	[0, 0, 0]	n/a	catFR1	2	R1678T
660.226	1.6	739382	WORD	n/a	wordpools/wordpool_categorized_EN.txt	SKIRT	Clothing	9	5	[0, 0, 0]	n/a	catFR1	2	R1678T
662.841	1.6	741997	WORD	n/a	wordpools/wordpool_categorized_EN.txt	COAT	Clothing	10	5	[0, 0, 0]	n/a	catFR1	2	R1678T
665.325	1.6	744481	WORD	n/a	wordpools/wordpool_categorized_EN.txt	RADIO	Electronics	11	5	[0, 0, 0]	n/a	catFR1	2	R1678T
667.791	1.6	746947	WORD	n/a	wordpools/wordpool_categorized_EN.txt	MICROWAVE	Electronics	12	5	[0, 0, 0]	n/a	catFR1	2	R1678T
669.409	0.0	748565	DISTRACT_START	n/a	n/a	n/a	n/a	-999	5	[0, 0, 0]	n/a	catFR1	2	R1678T
669.409	15.466	748565	PROB	15.449	n/a	n/a	n/a	-999	5	[6, 7, 4]	17.0	catFR1	2	R1678T
684.875	7.93	764031	PROB	5.649	n/a	n/a	n/a	-999	5	[1, 6, 4]	11.0	catFR1	2	R1678T
692.805	0.0	771961	REC_START	n/a	n/a	n/a	n/a	-999	5	[0, 0, 0]	n/a	catFR1	2	R1678T
692.805	1.0	771961	REC_WORD_VV	0.0	n/a	<>	n/a	-999	5	[0, 0, 0]	n/a	catFR1	2	R1678T
693.805	3.335	772961	REC_WORD_VV	1.0	n/a	<>	n/a	-999	5	[0, 0, 0]	n/a	catFR1	2	R1678T
697.14	0.75	776296	REC_WORD_VV	4.335	n/a	<>	n/a	-999	5	[0, 0, 0]	n/a	catFR1	2	R1678T
697.89	1.596	777046	REC_WORD	5.085	n/a	DESK	Furniture	1	5	[0, 0, 0]	n/a	catFR1	2	R1678T
699.486	1.854	778642	REC_WORD	6.681	n/a	CHAIR	Furniture	2	5	[0, 0, 0]	n/a	catFR1	2	R1678T
701.34	2.375	780496	REC_WORD	8.535	n/a	STEREO	Electronics	3	5	[0, 0, 0]	n/a	catFR1	2	R1678T
703.715	1.0	782871	REC_WORD_VV	10.91	n/a	<>	n/a	-999	5	[0, 0, 0]	n/a	catFR1	2	R1678T
704.715	3.379	783871	REC_WORD_VV	11.91	n/a	<>	n/a	-999	5	[0, 0, 0]	n/a	catFR1	2	R1678T
708.094	0.555	787250	REC_WORD_VV	15.289	n/a	<>	n/a	-999	5	[0, 0, 0]	n/a	catFR1	2	R1678T
708.649	1.731	787805	REC_WORD	15.844	n/a	STEREO	Electronics	3	5	[0, 0, 0]	n/a	catFR1	2	R1678T
710.38	2.785	789536	REC_WORD	17.575	n/a	BLOUSE	Clothing	6	5	[0, 0, 0]	n/a	catFR1	2	R1678T
713.165	2.461	792321	REC_WORD	20.36	n/a	DRESS	Clothing	5	5	[0, 0, 0]	n/a	catFR1	2	R1678T
715.626	1.0	794782	REC_WORD	22.821	n/a	SKIRT	Clothing	9	5	[0, 0, 0]	n/a	catFR1	2	R1678T
716.626	3.083	795782	REC_WORD_VV	23.821	n/a	<>	n/a	-999	5	[0, 0, 0]	n/a	catFR1	2	R1678T
719.709	1.0	798865	REC_WORD_VV	26.904	n/a	<>	n/a	-999	5	[0, 0, 0]	n/a	catFR1	2	R1678T
720.709	1.0	799865	REC_WORD_VV	27.904	n/a	<>	n/a	-999	5	[0, 0, 0]	n/a	catFR1	2	R1678T
721.709	1.228	800865	REC_WORD_VV	28.904	n/a	<>	n/a	-999	5	[0, 0, 0]	n/a	catFR1	2	R1678T
722.937	11.584	802093	TRIAL	n/a	n/a	n/a	n/a	-999	6	[0, 0, 0]	n/a	catFR1	2	R1678T
734.521	10.0	813677	COUNTDOWN	n/a	n/a	n/a	n/a	-999	6	[0, 0, 0]	n/a	catFR1	2	R1678T
744.872	2.166	824028	ENCODING_START	n/a	n/a	n/a	n/a	-999	6	[0, 0, 0]	n/a	catFR1	2	R1678T
747.038	1.6	826194	WORD	n/a	wordpools/wordpool_categorized_EN.txt	EVERGREEN	Trees	1	6	[0, 0, 0]	n/a	catFR1	2	R1678T
749.571	1.6	828727	WORD	n/a	wordpools/wordpool_categorized_EN.txt	OAK	Trees	2	6	[0, 0, 0]	n/a	catFR1	2	R1678T
752.054	1.6	831210	WORD	n/a	wordpools/wordpool_categorized_EN.txt	PIANO	Instruments	3	6	[0, 0, 0]	n/a	catFR1	2	R1678T
754.486	1.6	833642	WORD	n/a	wordpools/wordpool_categorized_EN.txt	DRUM	Instruments	4	6	[0, 0, 0]	n/a	catFR1	2	R1678T
756.92	1.6	836076	WORD	n/a	wordpools/wordpool_categorized_EN.txt	CHICKEN	FarmAnimals	5	6	[0, 0, 0]	n/a	catFR1	2	R1678T
759.336	1.6	838492	WORD	n/a	wordpools/wordpool_categorized_EN.txt	CALF	FarmAnimals	6	6	[0, 0, 0]	n/a	catFR1	2	R1678T
761.836	1.6	840992	WORD	n/a	wordpools/wordpool_categorized_EN.txt	TRUMPET	Instruments	7	6	[0, 0, 0]	n/a	catFR1	2	R1678T
764.421	1.6	843577	WORD	n/a	wordpools/wordpool_categorized_EN.txt	VIOLIN	Instruments	8	6	[0, 0, 0]	n/a	catFR1	2	R1678T
766.903	1.6	846059	WORD	n/a	wordpools/wordpool_categorized_EN.txt	BULL	FarmAnimals	9	6	[0, 0, 0]	n/a	catFR1	2	R1678T
769.487	1.6	848643	WORD	n/a	wordpools/wordpool_categorized_EN.txt	HEN	FarmAnimals	10	6	[0, 0, 0]	n/a	catFR1	2	R1678T
772.086	1.6	851242	WORD	n/a	wordpools/wordpool_categorized_EN.txt	CYPRESS	Trees	11	6	[0, 0, 0]	n/a	catFR1	2	R1678T
774.619	1.6	853775	WORD	n/a	wordpools/wordpool_categorized_EN.txt	WILLOW	Trees	12	6	[0, 0, 0]	n/a	catFR1	2	R1678T
776.237	0.001	855393	PROB	6.248	n/a	n/a	n/a	-999	6	[1, 8, 1]	10.0	catFR1	2	R1678T
776.238	6.264	855394	DISTRACT_START	n/a	n/a	n/a	n/a	-999	6	[0, 0, 0]	n/a	catFR1	2	R1678T
782.502	3.751	861658	PROB	3.734	n/a	n/a	n/a	-999	6	[8, 1, 2]	11.0	catFR1	2	R1678T
786.253	5.533	865409	PROB	5.516	n/a	n/a	n/a	-999	6	[7, 7, 6]	20.0	catFR1	2	R1678T
791.786	7.371	870942	PROB	4.949	n/a	n/a	n/a	-999	6	[5, 2, 1]	8.0	catFR1	2	R1678T
799.157	0.266	878313	REC_START	n/a	n/a	n/a	n/a	-999	6	[0, 0, 0]	n/a	catFR1	2	R1678T
799.423	2.048	878579	REC_WORD	0.266	n/a	EVERGREEN	Trees	1	6	[0, 0, 0]	n/a	catFR1	2	R1678T
801.471	2.18	880627	REC_WORD	2.314	n/a	OAK	Trees	2	6	[0, 0, 0]	n/a	catFR1	2	R1678T
803.651	1.0	882807	REC_WORD_VV	4.494	n/a	<>	n/a	-999	6	[0, 0, 0]	n/a	catFR1	2	R1678T
804.651	1.731	883807	REC_WORD_VV	5.494	n/a	<>	n/a	-999	6	[0, 0, 0]	n/a	catFR1	2	R1678T
806.382	1.0	885538	REC_WORD_VV	7.225	n/a	<>	n/a	-999	6	[0, 0, 0]	n/a	catFR1	2	R1678T
807.382	0.753	886538	REC_WORD_VV	8.225	n/a	<>	n/a	-999	6	[0, 0, 0]	n/a	catFR1	2	R1678T
808.135	4.937	887291	REC_WORD	8.978	n/a	VIOLIN	Instruments	8	6	[0, 0, 0]	n/a	catFR1	2	R1678T
813.072	1.925	892228	REC_WORD_VV	13.915	n/a	<>	n/a	-999	6	[0, 0, 0]	n/a	catFR1	2	R1678T
814.997	1.424	894153	REC_WORD	15.84	n/a	TRUMPET	Instruments	7	6	[0, 0, 0]	n/a	catFR1	2	R1678T
816.421	1.0	895577	REC_WORD_VV	17.264	n/a	<>	n/a	-999	6	[0, 0, 0]	n/a	catFR1	2	R1678T
817.421	1.23	896577	REC_WORD_VV	18.264	n/a	<>	n/a	-999	6	[0, 0, 0]	n/a	catFR1	2	R1678T
818.651	1.0	897807	REC_WORD	19.494	n/a	CYPRESS	Trees	11	6	[0, 0, 0]	n/a	catFR1	2	R1678T
819.651	2.624	898807	REC_WORD_VV	20.494	n/a	<>	n/a	-999	6	[0, 0, 0]	n/a	catFR1	2	R1678T
822.275	2.539	901431	REC_WORD_VV	23.118	n/a	<>	n/a	-999	6	[0, 0, 0]	n/a	catFR1	2	R1678T
824.814	4.478	903970	REC_WORD	25.657	n/a	CHAIR	Furniture	-999	6	[0, 0, 0]	n/a	catFR1	2	R1678T
829.292	5.459	908448	TRIAL	n/a	n/a	n/a	n/a	-999	7	[0, 0, 0]	n/a	catFR1	2	R1678T
834.751	10.0	913907	COUNTDOWN	n/a	n/a	n/a	n/a	-999	7	[0, 0, 0]	n/a	catFR1	2	R1678T
845.116	2.216	924272	ENCODING_START	n/a	n/a	n/a	n/a	-999	7	[0, 0, 0]	n/a	catFR1	2	R1678T
847.332	1.6	926488	WORD	n/a	wordpools/wordpool_categorized_EN.txt	ERASER	OfficeSupplies	1	7	[0, 0, 0]	n/a	catFR1	2	R1678T
849.915	1.6	929071	WORD	n/a	wordpools/wordpool_categorized_EN.txt	PENCIL	OfficeSupplies	2	7	[0, 0, 0]	n/a	catFR1	2	R1678T
852.514	1.6	931670	WORD	n/a	wordpools/wordpool_categorized_EN.txt	BED	Furniture	3	7	[0, 0, 0]	n/a	catFR1	2	R1678T
855.116	1.6	934272	WORD	n/a	wordpools/wordpool_categorized_EN.txt	RECLINER	Furniture	4	7	[0, 0, 0]	n/a	catFR1	2	R1678T
857.732	1.6	936888	WORD	n/a	wordpools/wordpool_categorized_EN.txt	CORN	Vegetables	5	7	[0, 0, 0]	n/a	catFR1	2	R1678T
860.149	1.6	939305	WORD	n/a	wordpools/wordpool_categorized_EN.txt	POTATO	Vegetables	6	7	[0, 0, 0]	n/a	catFR1	2	R1678T
862.731	1.6	941887	WORD	n/a	wordpools/wordpool_categorized_EN.txt	COUCH	Furniture	7	7	[0, 0, 0]	n/a	catFR1	2	R1678T
865.199	1.6	944355	WORD	n/a	wordpools/wordpool_categorized_EN.txt	SOFA	Furniture	8	7	[0, 0, 0]	n/a	catFR1	2	R1678T
867.566	1.6	946722	WORD	n/a	wordpools/wordpool_categorized_EN.txt	RULER	OfficeSupplies	9	7	[0, 0, 0]	n/a	catFR1	2	R1678T
869.981	1.6	949137	WORD	n/a	wordpools/wordpool_categorized_EN.txt	STAPLER	OfficeSupplies	10	7	[0, 0, 0]	n/a	catFR1	2	R1678T
872.382	1.6	951538	WORD	n/a	wordpools/wordpool_categorized_EN.txt	CUCUMBER	Vegetables	11	7	[0, 0, 0]	n/a	catFR1	2	R1678T
874.965	1.6	954121	WORD	n/a	wordpools/wordpool_categorized_EN.txt	LETTUCE	Vegetables	12	7	[0, 0, 0]	n/a	catFR1	2	R1678T
876.581	0.001	955737	PROB	7.599	n/a	n/a	n/a	-999	7	[5, 8, 1]	14.0	catFR1	2	R1678T
876.582	7.615	955738	DISTRACT_START	n/a	n/a	n/a	n/a	-999	7	[0, 0, 0]	n/a	catFR1	2	R1678T
884.197	6.652	963353	PROB	6.634	n/a	n/a	n/a	-999	7	[3, 6, 4]	13.0	catFR1	2	R1678T
890.849	4.216	970005	PROB	4.199	n/a	n/a	n/a	-999	7	[3, 2, 4]	9.0	catFR1	2	R1678T
895.065	8.35	974221	PROB	6.133	n/a	n/a	n/a	-999	7	[3, 6, 3]	12.0	catFR1	2	R1678T
903.415	0.402	982571	REC_START	n/a	n/a	n/a	n/a	-999	7	[0, 0, 0]	n/a	catFR1	2	R1678T
903.817	0.134	982973	REC_WORD_VV	0.402	n/a	<>	n/a	-999	7	[0, 0, 0]	n/a	catFR1	2	R1678T
903.951	1.0	983107	REC_WORD	0.536	n/a	ERASER	OfficeSupplies	1	7	[0, 0, 0]	n/a	catFR1	2	R1678T
904.951	1.263	984107	REC_WORD_VV	1.536	n/a	<>	n/a	-999	7	[0, 0, 0]	n/a	catFR1	2	R1678T
906.214	1.911	985370	REC_WORD	2.799	n/a	PEN	OfficeSupplies	-999	7	[0, 0, 0]	n/a	catFR1	2	R1678T
908.125	2.268	987281	REC_WORD	4.71	n/a	BED	Furniture	3	7	[0, 0, 0]	n/a	catFR1	2	R1678T
910.393	1.136	989549	REC_WORD_VV	6.978	n/a	<>	n/a	-999	7	[0, 0, 0]	n/a	catFR1	2	R1678T
911.529	1.27	990685	REC_WORD	8.114	n/a	CHAIR	Furniture	-999	7	[0, 0, 0]	n/a	catFR1	2	R1678T
912.799	2.347	991955	REC_WORD_VV	9.384	n/a	<>	n/a	-999	7	[0, 0, 0]	n/a	catFR1	2	R1678T
915.146	1.0	994302	REC_WORD_VV	11.731	n/a	<>	n/a	-999	7	[0, 0, 0]	n/a	catFR1	2	R1678T
916.146	4.65	995302	REC_WORD_VV	12.731	n/a	<>	n/a	-999	7	[0, 0, 0]	n/a	catFR1	2	R1678T
920.796	4.26	999952	REC_WORD_VV	17.381	n/a	<>	n/a	-999	7	[0, 0, 0]	n/a	catFR1	2	R1678T
925.056	0.29	1004212	REC_WORD_VV	21.641	n/a	<>	n/a	-999	7	[0, 0, 0]	n/a	catFR1	2	R1678T
925.346	1.58	1004502	REC_WORD	21.931	n/a	COUCH	Furniture	7	7	[0, 0, 0]	n/a	catFR1	2	R1678T
926.926	2.376	1006082	REC_WORD	23.511	n/a	SOFA	Furniture	8	7	[0, 0, 0]	n/a	catFR1	2	R1678T
929.302	2.197	1008458	REC_WORD_VV	25.887	n/a	<>	n/a	-999	7	[0, 0, 0]	n/a	catFR1	2	R1678T
931.499	0.365	1010655	REC_WORD_VV	28.084	n/a	<>	n/a	-999	7	[0, 0, 0]	n/a	catFR1	2	R1678T
931.864	1.672	1011020	REC_WORD	28.449	n/a	TABLE	Furniture	-999	7	[0, 0, 0]	n/a	catFR1	2	R1678T
933.536	6.442	1012692	TRIAL	n/a	n/a	n/a	n/a	-999	8	[0, 0, 0]	n/a	catFR1	2	R1678T
939.978	10.0	1019134	COUNTDOWN	n/a	n/a	n/a	n/a	-999	8	[0, 0, 0]	n/a	catFR1	2	R1678T
950.345	2.0	1029501	ENCODING_START	n/a	n/a	n/a	n/a	-999	8	[0, 0, 0]	n/a	catFR1	2	R1678T
952.345	1.6	1031501	WORD	n/a	wordpools/wordpool_categorized_EN.txt	TAPE	OfficeSupplies	1	8	[0, 0, 0]	n/a	catFR1	2	R1678T
954.728	1.6	1033884	WORD	n/a	wordpools/wordpool_categorized_EN.txt	FOLDER	OfficeSupplies	2	8	[0, 0, 0]	n/a	catFR1	2	R1678T
957.161	1.6	1036317	WORD	n/a	wordpools/wordpool_categorized_EN.txt	MAPLE	Trees	3	8	[0, 0, 0]	n/a	catFR1	2	R1678T
959.711	1.6	1038867	WORD	n/a	wordpools/wordpool_categorized_EN.txt	ELM	Trees	4	8	[0, 0, 0]	n/a	catFR1	2	R1678T
962.278	1.6	1041434	WORD	n/a	wordpools/wordpool_categorized_EN.txt	DOLPHIN	OceanAnimals	5	8	[0, 0, 0]	n/a	catFR1	2	R1678T
964.761	1.6	1043917	WORD	n/a	wordpools/wordpool_categorized_EN.txt	PLANKTON	OceanAnimals	6	8	[0, 0, 0]	n/a	catFR1	2	R1678T
967.211	1.6	1046367	WORD	n/a	wordpools/wordpool_categorized_EN.txt	PAPER	OfficeSupplies	7	8	[0, 0, 0]	n/a	catFR1	2	R1678T
969.794	1.6	1048950	WORD	n/a	wordpools/wordpool_categorized_EN.txt	GLUE	OfficeSupplies	8	8	[0, 0, 0]	n/a	catFR1	2	R1678T
972.377	1.6	1051533	WORD	n/a	wordpools/wordpool_categorized_EN.txt	OYSTER	OceanAnimals	9	8	[0, 0, 0]	n/a	catFR1	2	R1678T
974.978	1.6	1054134	WORD	n/a	wordpools/wordpool_categorized_EN.txt	SHRIMP	OceanAnimals	10	8	[0, 0, 0]	n/a	catFR1	2	R1678T
977.394	1.6	1056550	WORD	n/a	wordpools/wordpool_categorized_EN.txt	PINE	Trees	11	8	[0, 0, 0]	n/a	catFR1	2	R1678T
979.827	1.6	1058983	WORD	n/a	wordpools/wordpool_categorized_EN.txt	SPRUCE	Trees	12	8	[0, 0, 0]	n/a	catFR1	2	R1678T
981.444	0.001	1060600	PROB	22.165	n/a	n/a	n/a	-999	8	[6, 7, 8]	21.0	catFR1	2	R1678T
981.445	24.619	1060601	DISTRACT_START	n/a	n/a	n/a	n/a	-999	8	[0, 0, 0]	n/a	catFR1	2	R1678T
1006.064	1.488	1085220	REC_START	n/a	n/a	n/a	n/a	-999	8	[0, 0, 0]	n/a	catFR1	2	R1678T
1007.552	2.553	1086708	REC_WORD_VV	1.488	n/a	<>	n/a	-999	8	[0, 0, 0]	n/a	catFR1	2	R1678T
1010.105	0.411	1089261	REC_WORD_VV	4.041	n/a	<>	n/a	-999	8	[0, 0, 0]	n/a	catFR1	2	R1678T
1010.516	1.798	1089672	REC_WORD	4.452	n/a	PEN	OfficeSupplies	-999	8	[0, 0, 0]	n/a	catFR1	2	R1678T
1012.314	5.904	1091470	REC_WORD	6.25	n/a	PAPER	OfficeSupplies	7	8	[0, 0, 0]	n/a	catFR1	2	R1678T
1018.218	0.23	1097374	REC_WORD_VV	12.154	n/a	<>	n/a	-999	8	[0, 0, 0]	n/a	catFR1	2	R1678T
1018.448	1.0	1097604	REC_WORD	12.384	n/a	CYPRESS	Trees	-999	8	[0, 0, 0]	n/a	catFR1	2	R1678T
1019.448	1.38	1098604	REC_WORD_VV	13.384	n/a	<>	n/a	-999	8	[0, 0, 0]	n/a	catFR1	2	R1678T
1020.828	1.0	1099984	REC_WORD	14.764	n/a	SPRUCE	Trees	12	8	[0, 0, 0]	n/a	catFR1	2	R1678T
1021.828	4.598	1100984	REC_WORD_VV	15.764	n/a	<>	n/a	-999	8	[0, 0, 0]	n/a	catFR1	2	R1678T
1026.426	9.774	1105582	REC_WORD_VV	20.362	n/a	<>	n/a	-999	8	[0, 0, 0]	n/a	catFR1	2	R1678T
1036.2	5.641	1115356	TRIAL	n/a	n/a	n/a	n/a	-999	9	[0, 0, 0]	n/a	catFR1	2	R1678T
1041.841	10.0	1120997	COUNTDOWN	n/a	n/a	n/a	n/a	-999	9	[0, 0, 0]	n/a	catFR1	2	R1678T
1052.208	1.815	1131364	ENCODING_START	n/a	n/a	n/a	n/a	-999	9	[0, 0, 0]	n/a	catFR1	2	R1678T
1054.023	1.6	1133179	WORD	n/a	wordpools/wordpool_categorized_EN.txt	LAKE	Landscapes	1	9	[0, 0, 0]	n/a	catFR1	2	R1678T
1056.573	1.6	1135729	WORD	n/a	wordpools/wordpool_categorized_EN.txt	CREEK	Landscapes	2	9	[0, 0, 0]	n/a	catFR1	2	R1678T
1059.021	1.6	1138177	WORD	n/a	wordpools/wordpool_categorized_EN.txt	FISH	OceanAnimals	3	9	[0, 0, 0]	n/a	catFR1	2	R1678T
1061.555	1.6	1140711	WORD	n/a	wordpools/wordpool_categorized_EN.txt	TURTLE	OceanAnimals	4	9	[0, 0, 0]	n/a	catFR1	2	R1678T
1063.989	1.6	1143145	WORD	n/a	wordpools/wordpool_categorized_EN.txt	SPINACH	Vegetables	5	9	[0, 0, 0]	n/a	catFR1	2	R1678T
1066.389	1.6	1145545	WORD	n/a	wordpools/wordpool_categorized_EN.txt	CABBAGE	Vegetables	6	9	[0, 0, 0]	n/a	catFR1	2	R1678T
1068.939	1.6	1148095	WORD	n/a	wordpools/wordpool_categorized_EN.txt	LOBSTER	OceanAnimals	7	9	[0, 0, 0]	n/a	catFR1	2	R1678T
1071.406	1.6	1150562	WORD	n/a	wordpools/wordpool_categorized_EN.txt	WHALE	OceanAnimals	8	9	[0, 0, 0]	n/a	catFR1	2	R1678T
1073.989	1.6	1153145	WORD	n/a	wordpools/wordpool_categorized_EN.txt	MOUNTAIN	Landscapes	9	9	[0, 0, 0]	n/a	catFR1	2	R1678T
1076.506	1.6	1155662	WORD	n/a	wordpools/wordpool_categorized_EN.txt	FOREST	Landscapes	10	9	[0, 0, 0]	n/a	catFR1	2	R1678T
1078.906	1.6	1158062	WORD	n/a	wordpools/wordpool_categorized_EN.txt	ONION	Vegetables	11	9	[0, 0, 0]	n/a	catFR1	2	R1678T
1081.456	1.6	1160612	WORD	n/a	wordpools/wordpool_categorized_EN.txt	CELERY	Vegetables	12	9	[0, 0, 0]	n/a	catFR1	2	R1678T
1083.073	0.0	1162229	DISTRACT_START	n/a	n/a	n/a	n/a	-999	9	[0, 0, 0]	n/a	catFR1	2	R1678T
1083.073	3.965	1162229	PROB	3.949	n/a	n/a	n/a	-999	9	[5, 5, 8]	18.0	catFR1	2	R1678T
1087.038	3.468	1166194	PROB	3.45	n/a	n/a	n/a	-999	9	[1, 1, 4]	6.0	catFR1	2	R1678T
1090.506	4.0	1169662	PROB	3.983	n/a	n/a	n/a	-999	9	[4, 8, 2]	14.0	catFR1	2	R1678T
1094.506	4.133	1173662	PROB	4.116	n/a	n/a	n/a	-999	9	[1, 3, 7]	11.0	catFR1	2	R1678T
1098.639	8.446	1177795	PROB	6.299	n/a	n/a	n/a	-999	9	[6, 1, 7]	14.0	catFR1	2	R1678T
1107.085	0.24	1186241	REC_START	n/a	n/a	n/a	n/a	-999	9	[0, 0, 0]	n/a	catFR1	2	R1678T
1107.325	1.487	1186481	REC_WORD	0.24	n/a	LAKE	Landscapes	1	9	[0, 0, 0]	n/a	catFR1	2	R1678T
1108.812	1.853	1187968	REC_WORD	1.727	n/a	CREEK	Landscapes	2	9	[0, 0, 0]	n/a	catFR1	2	R1678T
1110.665	3.42	1189821	REC_WORD_VV	3.58	n/a	<>	n/a	-999	9	[0, 0, 0]	n/a	catFR1	2	R1678T
1114.085	3.193	1193241	REC_WORD_VV	7.0	n/a	<>	n/a	-999	9	[0, 0, 0]	n/a	catFR1	2	R1678T
1117.278	1.0	1196434	REC_WORD_VV	10.193	n/a	<>	n/a	-999	9	[0, 0, 0]	n/a	catFR1	2	R1678T
1118.278	1.0	1197434	REC_WORD_VV	11.193	n/a	<>	n/a	-999	9	[0, 0, 0]	n/a	catFR1	2	R1678T
1119.278	0.468	1198434	REC_WORD_VV	12.193	n/a	<>	n/a	-999	9	[0, 0, 0]	n/a	catFR1	2	R1678T
1119.746	3.752	1198902	REC_WORD	12.661	n/a	CREEK	Landscapes	2	9	[0, 0, 0]	n/a	catFR1	2	R1678T
1123.498	0.43	1202654	REC_WORD_VV	16.413	n/a	<>	n/a	-999	9	[0, 0, 0]	n/a	catFR1	2	R1678T
1123.928	2.973	1203084	REC_WORD	16.843	n/a	TURTLE	OceanAnimals	4	9	[0, 0, 0]	n/a	catFR1	2	R1678T
1126.901	6.064	1206057	REC_WORD_VV	19.816	n/a	<>	n/a	-999	9	[0, 0, 0]	n/a	catFR1	2	R1678T
1132.965	1.845	1212121	REC_WORD	25.88	n/a	ELM	Trees	-999	9	[0, 0, 0]	n/a	catFR1	2	R1678T
1134.81	2.415	1213966	REC_WORD_VV	27.725	n/a	<>	n/a	-999	9	[0, 0, 0]	n/a	catFR1	2	R1678T
1137.225	5.845	1216381	TRIAL	n/a	n/a	n/a	n/a	-999	10	[0, 0, 0]	n/a	catFR1	2	R1678T
1143.07	10.0	1222226	COUNTDOWN	n/a	n/a	n/a	n/a	-999	10	[0, 0, 0]	n/a	catFR1	2	R1678T
1153.42	2.232	1232576	ENCODING_START	n/a	n/a	n/a	n/a	-999	10	[0, 0, 0]	n/a	catFR1	2	R1678T
1155.652	1.6	1234808	WORD	n/a	wordpools/wordpool_categorized_EN.txt	ROOSTER	FarmAnimals	1	10	[0, 0, 0]	n/a	catFR1	2	R1678T
1158.035	1.6	1237191	WORD	n/a	wordpools/wordpool_categorized_EN.txt	LAMB	FarmAnimals	2	10	[0, 0, 0]	n/a	catFR1	2	R1678T
1160.469	1.6	1239625	WORD	n/a	wordpools/wordpool_categorized_EN.txt	SILK	Fabric	3	10	[0, 0, 0]	n/a	catFR1	2	R1678T
1162.984	1.6	1242140	WORD	n/a	wordpools/wordpool_categorized_EN.txt	SPANDEX	Fabric	4	10	[0, 0, 0]	n/a	catFR1	2	R1678T
1165.551	1.6	1244707	WORD	n/a	wordpools/wordpool_categorized_EN.txt	LION	Zoo	5	10	[0, 0, 0]	n/a	catFR1	2	R1678T
1168.118	1.6	1247274	WORD	n/a	wordpools/wordpool_categorized_EN.txt	CHIMPANZEE	Zoo	6	10	[0, 0, 0]	n/a	catFR1	2	R1678T
1170.501	1.6	1249657	WORD	n/a	wordpools/wordpool_categorized_EN.txt	NYLON	Fabric	7	10	[0, 0, 0]	n/a	catFR1	2	R1678T
1173.068	1.6	1252224	WORD	n/a	wordpools/wordpool_categorized_EN.txt	LEATHER	Fabric	8	10	[0, 0, 0]	n/a	catFR1	2	R1678T
1175.569	1.6	1254725	WORD	n/a	wordpools/wordpool_categorized_EN.txt	GOAT	FarmAnimals	9	10	[0, 0, 0]	n/a	catFR1	2	R1678T
1177.952	1.6	1257108	WORD	n/a	wordpools/wordpool_categorized_EN.txt	HORSE	FarmAnimals	10	10	[0, 0, 0]	n/a	catFR1	2	R1678T
1180.351	1.6	1259507	WORD	n/a	wordpools/wordpool_categorized_EN.txt	ELEPHANT	Zoo	11	10	[0, 0, 0]	n/a	catFR1	2	R1678T
1182.85	1.6	1262006	WORD	n/a	wordpools/wordpool_categorized_EN.txt	PANDA	Zoo	12	10	[0, 0, 0]	n/a	catFR1	2	R1678T
1184.452	0.001	1263608	PROB	5.798	n/a	n/a	n/a	-999	10	[6, 6, 7]	19.0	catFR1	2	R1678T
1184.453	5.815	1263609	DISTRACT_START	n/a	n/a	n/a	n/a	-999	10	[0, 0, 0]	n/a	catFR1	2	R1678T
1190.268	4.099	1269424	PROB	4.083	n/a	n/a	n/a	-999	10	[5, 4, 1]	10.0	catFR1	2	R1678T
1194.367	3.733	1273523	PROB	3.715	n/a	n/a	n/a	-999	10	[6, 4, 1]	11.0	catFR1	2	R1678T
1198.1	3.651	1277256	PROB	3.633	n/a	n/a	n/a	-999	10	[8, 2, 2]	12.0	catFR1	2	R1678T
1201.751	5.533	1280907	PROB	3.299	n/a	n/a	n/a	-999	10	[1, 5, 5]	11.0	catFR1	2	R1678T
1207.284	0.292	1286440	REC_START	n/a	n/a	n/a	n/a	-999	10	[0, 0, 0]	n/a	catFR1	2	R1678T
1207.576	1.546	1286732	REC_WORD_VV	0.292	n/a	<>	n/a	-999	10	[0, 0, 0]	n/a	catFR1	2	R1678T
1209.122	0.429	1288278	REC_WORD_VV	1.838	n/a	<>	n/a	-999	10	[0, 0, 0]	n/a	catFR1	2	R1678T
1209.551	1.0	1288707	REC_WORD	2.267	n/a	LION	Zoo	5	10	[0, 0, 0]	n/a	catFR1	2	R1678T
1210.551	3.57	1289707	REC_WORD_VV	3.267	n/a	<>	n/a	-999	10	[0, 0, 0]	n/a	catFR1	2	R1678T
1214.121	1.0	1293277	REC_WORD	6.837	n/a	CHIMPANZEE	Zoo	6	10	[0, 0, 0]	n/a	catFR1	2	R1678T
1215.121	2.957	1294277	REC_WORD_VV	7.837	n/a	<>	n/a	-999	10	[0, 0, 0]	n/a	catFR1	2	R1678T
1218.078	1.0	1297234	REC_WORD_VV	10.794	n/a	<>	n/a	-999	10	[0, 0, 0]	n/a	catFR1	2	R1678T
1219.078	1.0	1298234	REC_WORD_VV	11.794	n/a	<>	n/a	-999	10	[0, 0, 0]	n/a	catFR1	2	R1678T
1220.078	6.959	1299234	REC_WORD_VV	12.794	n/a	<>	n/a	-999	10	[0, 0, 0]	n/a	catFR1	2	R1678T
1227.037	3.473	1306193	REC_WORD_VV	19.753	n/a	<>	n/a	-999	10	[0, 0, 0]	n/a	catFR1	2	R1678T
1230.51	3.019	1309666	REC_WORD	23.226	n/a	ROOSTER	FarmAnimals	1	10	[0, 0, 0]	n/a	catFR1	2	R1678T
1233.529	0.298	1312685	REC_WORD_VV	26.245	n/a	<>	n/a	-999	10	[0, 0, 0]	n/a	catFR1	2	R1678T
1233.827	1.63	1312983	REC_WORD	26.543	n/a	SILK	Fabric	3	10	[0, 0, 0]	n/a	catFR1	2	R1678T
1235.457	1.0	1314613	REC_WORD	28.173	n/a	SPANDEX	Fabric	4	10	[0, 0, 0]	n/a	catFR1	2	R1678T
1236.457	0.975	1315613	REC_WORD_VV	29.173	n/a	<>	n/a	-999	10	[0, 0, 0]	n/a	catFR1	2	R1678T
1237.432	7.317	1316588	TRIAL	n/a	n/a	n/a	n/a	-999	11	[0, 0, 0]	n/a	catFR1	2	R1678T
1244.749	10.0	1323905	COUNTDOWN	n/a	n/a	n/a	n/a	-999	11	[0, 0, 0]	n/a	catFR1	2	R1678T
1255.114	1.984	1334270	ENCODING_START	n/a	n/a	n/a	n/a	-999	11	[0, 0, 0]	n/a	catFR1	2	R1678T
1257.098	1.6	1336254	WORD	n/a	wordpools/wordpool_categorized_EN.txt	COTTON	Fabric	1	11	[0, 0, 0]	n/a	catFR1	2	R1678T
1259.514	1.6	1338670	WORD	n/a	wordpools/wordpool_categorized_EN.txt	DENIM	Fabric	2	11	[0, 0, 0]	n/a	catFR1	2	R1678T
1261.914	1.6	1341070	WORD	n/a	wordpools/wordpool_categorized_EN.txt	RIVER	Landscapes	3	11	[0, 0, 0]	n/a	catFR1	2	R1678T
1264.33	1.6	1343486	WORD	n/a	wordpools/wordpool_categorized_EN.txt	VALLEY	Landscapes	4	11	[0, 0, 0]	n/a	catFR1	2	R1678T
1266.831	1.6	1345987	WORD	n/a	wordpools/wordpool_categorized_EN.txt	CROWBAR	Tools	5	11	[0, 0, 0]	n/a	catFR1	2	R1678T
1269.397	1.6	1348553	WORD	n/a	wordpools/wordpool_categorized_EN.txt	LEVEL	Tools	6	11	[0, 0, 0]	n/a	catFR1	2	R1678T
1271.847	1.6	1351003	WORD	n/a	wordpools/wordpool_categorized_EN.txt	WOOL	Fabric	7	11	[0, 0, 0]	n/a	catFR1	2	R1678T
1274.397	1.6	1353553	WORD	n/a	wordpools/wordpool_categorized_EN.txt	LINEN	Fabric	8	11	[0, 0, 0]	n/a	catFR1	2	R1678T
1276.846	1.6	1356002	WORD	n/a	wordpools/wordpool_categorized_EN.txt	HAMMER	Tools	9	11	[0, 0, 0]	n/a	catFR1	2	R1678T
1279.247	1.6	1358403	WORD	n/a	wordpools/wordpool_categorized_EN.txt	SCREWDRIVER	Tools	10	11	[0, 0, 0]	n/a	catFR1	2	R1678T
1281.847	1.6	1361003	WORD	n/a	wordpools/wordpool_categorized_EN.txt	STREAM	Landscapes	11	11	[0, 0, 0]	n/a	catFR1	2	R1678T
1284.23	1.6	1363386	WORD	n/a	wordpools/wordpool_categorized_EN.txt	HILLS	Landscapes	12	11	[0, 0, 0]	n/a	catFR1	2	R1678T
1285.846	0.001	1365002	DISTRACT_START	n/a	n/a	n/a	n/a	-999	11	[0, 0, 0]	n/a	catFR1	2	R1678T
1285.847	3.499	1365003	PROB	3.483	n/a	n/a	n/a	-999	11	[7, 7, 7]	21.0	catFR1	2	R1678T
1289.346	4.467	1368502	PROB	4.45	n/a	n/a	n/a	-999	11	[3, 6, 3]	12.0	catFR1	2	R1678T
1293.813	7.218	1372969	PROB	7.199	n/a	n/a	n/a	-999	11	[3, 5, 7]	15.0	catFR1	2	R1678T
1301.031	10.801	1380187	PROB	8.382	n/a	n/a	n/a	-999	11	[4, 6, 4]	14.0	catFR1	2	R1678T
1311.832	0.628	1390988	REC_START	n/a	n/a	n/a	n/a	-999	11	[0, 0, 0]	n/a	catFR1	2	R1678T
1312.46	0.982	1391616	REC_WORD_VV	0.628	n/a	<>	n/a	-999	11	[0, 0, 0]	n/a	catFR1	2	R1678T
1313.442	2.098	1392598	REC_WORD	1.61	n/a	COTTON	Fabric	1	11	[0, 0, 0]	n/a	catFR1	2	R1678T
1315.54	2.092	1394696	REC_WORD	3.708	n/a	LINEN	Fabric	8	11	[0, 0, 0]	n/a	catFR1	2	R1678T
1317.632	6.573	1396788	REC_WORD_VV	5.8	n/a	<>	n/a	-999	11	[0, 0, 0]	n/a	catFR1	2	R1678T
1324.205	4.086	1403361	REC_WORD_VV	12.373	n/a	<>	n/a	-999	11	[0, 0, 0]	n/a	catFR1	2	R1678T
1328.291	8.063	1407447	REC_WORD_VV	16.459	n/a	<>	n/a	-999	11	[0, 0, 0]	n/a	catFR1	2	R1678T
1336.354	5.615	1415510	REC_WORD_VV	24.522	n/a	<>	n/a	-999	11	[0, 0, 0]	n/a	catFR1	2	R1678T
1341.969	6.525	1421125	TRIAL	n/a	n/a	n/a	n/a	-999	12	[0, 0, 0]	n/a	catFR1	2	R1678T
1348.494	10.0	1427650	COUNTDOWN	n/a	n/a	n/a	n/a	-999	12	[0, 0, 0]	n/a	catFR1	2	R1678T
1358.844	2.099	1438000	ENCODING_START	n/a	n/a	n/a	n/a	-999	12	[0, 0, 0]	n/a	catFR1	2	R1678T
1360.943	1.6	1440099	WORD	n/a	wordpools/wordpool_categorized_EN.txt	GORILLA	Zoo	1	12	[0, 0, 0]	n/a	catFR1	2	R1678T
1363.326	1.6	1442482	WORD	n/a	wordpools/wordpool_categorized_EN.txt	MONKEY	Zoo	2	12	[0, 0, 0]	n/a	catFR1	2	R1678T
1365.809	1.6	1444965	WORD	n/a	wordpools/wordpool_categorized_EN.txt	PEELER	KitchenTools	3	12	[0, 0, 0]	n/a	catFR1	2	R1678T
1368.393	1.6	1447549	WORD	n/a	wordpools/wordpool_categorized_EN.txt	SPATULA	KitchenTools	4	12	[0, 0, 0]	n/a	catFR1	2	R1678T
1370.992	1.6	1450148	WORD	n/a	wordpools/wordpool_categorized_EN.txt	WOODS	Landscapes	5	12	[0, 0, 0]	n/a	catFR1	2	R1678T
1373.542	1.6	1452698	WORD	n/a	wordpools/wordpool_categorized_EN.txt	OCEAN	Landscapes	6	12	[0, 0, 0]	n/a	catFR1	2	R1678T
1376.042	1.6	1455198	WORD	n/a	wordpools/wordpool_categorized_EN.txt	ORANGUTAN	Zoo	7	12	[0, 0, 0]	n/a	catFR1	2	R1678T
1378.442	1.6	1457598	WORD	n/a	wordpools/wordpool_categorized_EN.txt	GIRAFFE	Zoo	8	12	[0, 0, 0]	n/a	catFR1	2	R1678T
1380.859	1.6	1460015	WORD	n/a	wordpools/wordpool_categorized_EN.txt	COLANDER	KitchenTools	9	12	[0, 0, 0]	n/a	catFR1	2	R1678T
1383.226	1.6	1462382	WORD	n/a	wordpools/wordpool_categorized_EN.txt	KNIFE	KitchenTools	10	12	[0, 0, 0]	n/a	catFR1	2	R1678T
1385.808	1.6	1464964	WORD	n/a	wordpools/wordpool_categorized_EN.txt	BEACH	Landscapes	11	12	[0, 0, 0]	n/a	catFR1	2	R1678T
1388.242	1.6	1467398	WORD	n/a	wordpools/wordpool_categorized_EN.txt	ISLAND	Landscapes	12	12	[0, 0, 0]	n/a	catFR1	2	R1678T
1389.841	0.002	1468997	PROB	6.033	n/a	n/a	n/a	-999	12	[3, 2, 4]	9.0	catFR1	2	R1678T
1389.843	6.049	1468999	DISTRACT_START	n/a	n/a	n/a	n/a	-999	12	[0, 0, 0]	n/a	catFR1	2	R1678T
1395.892	5.898	1475048	PROB	5.883	n/a	n/a	n/a	-999	12	[1, 8, 8]	17.0	catFR1	2	R1678T
1401.79	10.406	1480946	PROB	8.083	n/a	n/a	n/a	-999	12	[1, 8, 7]	16.0	catFR1	2	R1678T
1412.196	1.035	1491352	REC_START	n/a	n/a	n/a	n/a	-999	12	[0, 0, 0]	n/a	catFR1	2	R1678T
1413.231	1.865	1492387	REC_WORD	1.035	n/a	GORILLA	Zoo	1	12	[0, 0, 0]	n/a	catFR1	2	R1678T
1415.096	1.662	1494252	REC_WORD	2.9	n/a	MONKEY	Zoo	2	12	[0, 0, 0]	n/a	catFR1	2	R1678T
1416.758	2.565	1495914	REC_WORD	4.562	n/a	COLANDER	KitchenTools	9	12	[0, 0, 0]	n/a	catFR1	2	R1678T
1419.323	4.876	1498479	REC_WORD_VV	7.127	n/a	<>	n/a	-999	12	[0, 0, 0]	n/a	catFR1	2	R1678T
1424.199	0.543	1503355	REC_WORD	12.003	n/a	KNIFE	KitchenTools	10	12	[0, 0, 0]	n/a	catFR1	2	R1678T
1424.742	1.0	1503898	REC_WORD_VV	12.546	n/a	<>	n/a	-999	12	[0, 0, 0]	n/a	catFR1	2	R1678T
1425.742	3.646	1504898	REC_WORD_VV	13.546	n/a	<>	n/a	-999	12	[0, 0, 0]	n/a	catFR1	2	R1678T
1429.388	1.0	1508544	REC_WORD_VV	17.192	n/a	<>	n/a	-999	12	[0, 0, 0]	n/a	catFR1	2	R1678T
1430.388	1.0	1509544	REC_WORD_VV	18.192	n/a	<>	n/a	-999	12	[0, 0, 0]	n/a	catFR1	2	R1678T
1431.388	6.572	1510544	REC_WORD_VV	19.192	n/a	<>	n/a	-999	12	[0, 0, 0]	n/a	catFR1	2	R1678T
1437.96	4.367	1517116	REC_WORD_VV	25.764	n/a	<>	n/a	-999	12	[0, 0, 0]	n/a	catFR1	2	R1678T
1442.327	0.0	1521483	SESS_END	n/a	n/a	n/a	n/a	-999	12	[0, 0, 0]	n/a	catFR1	2	R1678T
