onset	duration	sample	trial_type	response_time	stim_file	item_name	category	serialpos	list	test	answer	experiment	session	subject
0.0	0.0	8073	INSTRUCT_START	n/a	n/a	n/a	n/a	-999	-999	[0, 0, 0]	n/a	catFR1	1	R1243T
0.0	11.003	8073	INSTRUCT_END	n/a	n/a	n/a	n/a	-999	-999	[0, 0, 0]	n/a	catFR1	1	R1243T
11.003	0.0	19075	SESS_START	n/a	n/a	n/a	n/a	-999	-999	[0, 0, 0]	n/a	catFR1	1	R1243T
11.003	40.0	19075	MIC_TEST	n/a	n/a	n/a	n/a	-999	-999	[0, 0, 0]	n/a	catFR1	1	R1243T
51.003	26.645	59073	PRACTICE_TRIAL	n/a	n/a	n/a	n/a	-999	-1	[0, 0, 0]	n/a	catFR1	1	R1243T
77.648	10.428	85716	COUNTDOWN_START	n/a	n/a	n/a	n/a	-999	-1	[0, 0, 0]	n/a	catFR1	1	R1243T
88.076	0.007	96144	COUNTDOWN_END	n/a	n/a	n/a	n/a	-999	-1	[0, 0, 0]	n/a	catFR1	1	R1243T
88.083	1.617	96151	PRACTICE_ORIENT	n/a	n/a	n/a	n/a	-999	-1	[0, 0, 0]	n/a	catFR1	1	R1243T
89.7	1.917	97768	PRACTICE_ORIENT_OFF	n/a	n/a	n/a	n/a	-999	-1	[0, 0, 0]	n/a	catFR1	1	R1243T
91.617	1.617	99685	PRACTICE_WORD	n/a	n/a	RING	n/a	-1	-1	[0, 0, 0]	n/a	catFR1	1	R1243T
93.234	0.817	101301	PRACTICE_WORD_OFF	n/a	n/a	RING	n/a	-999	-1	[0, 0, 0]	n/a	catFR1	1	R1243T
94.051	1.616	102118	PRACTICE_WORD	n/a	n/a	RHINO	n/a	-1	-1	[0, 0, 0]	n/a	catFR1	1	R1243T
95.667	0.983	103734	PRACTICE_WORD_OFF	n/a	n/a	RHINO	n/a	-999	-1	[0, 0, 0]	n/a	catFR1	1	R1243T
96.65	1.618	104717	PRACTICE_WORD	n/a	n/a	ATTIC	n/a	-1	-1	[0, 0, 0]	n/a	catFR1	1	R1243T
98.268	0.984	106335	PRACTICE_WORD_OFF	n/a	n/a	ATTIC	n/a	-999	-1	[0, 0, 0]	n/a	catFR1	1	R1243T
99.252	1.616	107319	PRACTICE_WORD	n/a	n/a	WAGON	n/a	-1	-1	[0, 0, 0]	n/a	catFR1	1	R1243T
100.868	0.984	108935	PRACTICE_WORD_OFF	n/a	n/a	WAGON	n/a	-999	-1	[0, 0, 0]	n/a	catFR1	1	R1243T
101.852	1.617	109919	PRACTICE_WORD	n/a	n/a	FLOOD	n/a	-1	-1	[0, 0, 0]	n/a	catFR1	1	R1243T
103.469	0.8	111536	PRACTICE_WORD_OFF	n/a	n/a	FLOOD	n/a	-999	-1	[0, 0, 0]	n/a	catFR1	1	R1243T
104.269	1.617	112336	PRACTICE_WORD	n/a	n/a	IRON	n/a	-1	-1	[0, 0, 0]	n/a	catFR1	1	R1243T
105.886	0.817	113953	PRACTICE_WORD_OFF	n/a	n/a	IRON	n/a	-999	-1	[0, 0, 0]	n/a	catFR1	1	R1243T
106.703	1.617	114770	PRACTICE_WORD	n/a	n/a	BEAM	n/a	-1	-1	[0, 0, 0]	n/a	catFR1	1	R1243T
108.32	0.8	116387	PRACTICE_WORD_OFF	n/a	n/a	BEAM	n/a	-999	-1	[0, 0, 0]	n/a	catFR1	1	R1243T
109.12	1.617	117186	PRACTICE_WORD	n/a	n/a	TONGUE	n/a	-1	-1	[0, 0, 0]	n/a	catFR1	1	R1243T
110.737	0.8	118803	PRACTICE_WORD_OFF	n/a	n/a	TONGUE	n/a	-999	-1	[0, 0, 0]	n/a	catFR1	1	R1243T
111.537	1.617	119603	PRACTICE_WORD	n/a	n/a	CAMEL	n/a	-1	-1	[0, 0, 0]	n/a	catFR1	1	R1243T
113.154	0.95	121220	PRACTICE_WORD_OFF	n/a	n/a	CAMEL	n/a	-999	-1	[0, 0, 0]	n/a	catFR1	1	R1243T
114.104	1.617	122170	PRACTICE_WORD	n/a	n/a	CHEST	n/a	-1	-1	[0, 0, 0]	n/a	catFR1	1	R1243T
115.721	0.85	123787	PRACTICE_WORD_OFF	n/a	n/a	CHEST	n/a	-999	-1	[0, 0, 0]	n/a	catFR1	1	R1243T
116.571	1.617	124637	PRACTICE_WORD	n/a	n/a	WATCH	n/a	-1	-1	[0, 0, 0]	n/a	catFR1	1	R1243T
118.188	0.917	126254	PRACTICE_WORD_OFF	n/a	n/a	WATCH	n/a	-999	-1	[0, 0, 0]	n/a	catFR1	1	R1243T
119.105	1.617	127171	PRACTICE_WORD	n/a	n/a	COTTON	n/a	-1	-1	[0, 0, 0]	n/a	catFR1	1	R1243T
120.722	0.0	128788	PRACTICE_WORD_OFF	n/a	n/a	COTTON	n/a	-999	-1	[0, 0, 0]	n/a	catFR1	1	R1243T
120.722	0.001	128788	ENCODING_END	n/a	n/a	n/a	n/a	-999	-1	[0, 0, 0]	n/a	catFR1	1	R1243T
120.723	0.0	128789	DISTRACT_START	n/a	n/a	n/a	n/a	-999	-1	[0, 0, 0]	n/a	catFR1	1	R1243T
120.723	0.016	128789	START	n/a	n/a	n/a	n/a	-999	-1	[-999, -999, -999]	n/a	catFR1	1	R1243T
120.739	5.434	128805	PROB	5.434	n/a	n/a	n/a	-999	-1	[1, 3, 3]	7	catFR1	1	R1243T
126.173	6.435	134238	PROB	6.435	n/a	n/a	n/a	-999	-1	[1, 4, 5]	10	catFR1	1	R1243T
132.608	4.65	140673	PROB	4.65	n/a	n/a	n/a	-999	-1	[9, 8, 4]	21	catFR1	1	R1243T
137.258	8.276	145323	PROB	8.276	n/a	n/a	n/a	-999	-1	[2, 6, 3]	11	catFR1	1	R1243T
145.534	0.01	153598	STOP	n/a	n/a	n/a	n/a	-999	-1	[-999, -999, -999]	n/a	catFR1	1	R1243T
145.544	0.549	153608	DISTRACT_END	n/a	n/a	n/a	n/a	-999	-1	[0, 0, 0]	n/a	catFR1	1	R1243T
146.093	0.518	154157	RETRIEVAL_ORIENT	n/a	n/a	n/a	n/a	-999	-1	[0, 0, 0]	n/a	catFR1	1	R1243T
146.611	30.011	154675	PRACTICE_REC_START	n/a	n/a	n/a	n/a	-999	-1	[0, 0, 0]	n/a	catFR1	1	R1243T
176.622	14.546	184684	PRACTICE_REC_END	n/a	n/a	n/a	n/a	-999	-1	[0, 0, 0]	n/a	catFR1	1	R1243T
191.168	0.5	199230	TRIAL	n/a	n/a	n/a	n/a	-999	1	[0, 0, 0]	n/a	catFR1	1	R1243T
191.668	10.428	199730	COUNTDOWN_START	n/a	n/a	n/a	n/a	-999	1	[0, 0, 0]	n/a	catFR1	1	R1243T
202.096	0.008	210157	COUNTDOWN_END	n/a	n/a	n/a	n/a	-999	1	[0, 0, 0]	n/a	catFR1	1	R1243T
202.104	1.617	210165	ORIENT	n/a	n/a	n/a	n/a	-999	1	[0, 0, 0]	n/a	catFR1	1	R1243T
203.721	2.1	211782	ORIENT_OFF	n/a	n/a	n/a	n/a	-999	1	[0, 0, 0]	n/a	catFR1	1	R1243T
205.821	1.617	213882	WORD	n/a	wordpools/wordpool_categorized_EN.txt	JEANS	Clothing	1	1	[0, 0, 0]	n/a	catFR1	1	R1243T
207.438	0.817	215499	WORD_OFF	n/a	n/a	JEANS	n/a	1	1	[0, 0, 0]	n/a	catFR1	1	R1243T
208.255	1.617	216316	WORD	n/a	wordpools/wordpool_categorized_EN.txt	SKIRT	Clothing	2	1	[0, 0, 0]	n/a	catFR1	1	R1243T
209.872	0.967	217932	WORD_OFF	n/a	n/a	SKIRT	n/a	2	1	[0, 0, 0]	n/a	catFR1	1	R1243T
210.839	1.617	218899	WORD	n/a	wordpools/wordpool_categorized_EN.txt	DAFFODIL	Flowers	3	1	[0, 0, 0]	n/a	catFR1	1	R1243T
212.456	0.9	220516	WORD_OFF	n/a	n/a	DAFFODIL	n/a	3	1	[0, 0, 0]	n/a	catFR1	1	R1243T
213.356	1.617	221416	WORD	n/a	wordpools/wordpool_categorized_EN.txt	ORCHID	Flowers	4	1	[0, 0, 0]	n/a	catFR1	1	R1243T
214.973	0.9	223033	WORD_OFF	n/a	n/a	ORCHID	n/a	4	1	[0, 0, 0]	n/a	catFR1	1	R1243T
215.873	1.617	223933	WORD	n/a	wordpools/wordpool_categorized_EN.txt	CRICKET	Insects	5	1	[0, 0, 0]	n/a	catFR1	1	R1243T
217.49	0.8	225550	WORD_OFF	n/a	n/a	CRICKET	n/a	5	1	[0, 0, 0]	n/a	catFR1	1	R1243T
218.29	1.617	226350	WORD	n/a	wordpools/wordpool_categorized_EN.txt	BEE	Insects	6	1	[0, 0, 0]	n/a	catFR1	1	R1243T
219.907	0.867	227967	WORD_OFF	n/a	n/a	BEE	n/a	6	1	[0, 0, 0]	n/a	catFR1	1	R1243T
220.774	1.617	228834	WORD	n/a	wordpools/wordpool_categorized_EN.txt	SHOES	Clothing	7	1	[0, 0, 0]	n/a	catFR1	1	R1243T
222.391	0.916	230451	WORD_OFF	n/a	n/a	SHOES	n/a	7	1	[0, 0, 0]	n/a	catFR1	1	R1243T
223.307	1.617	231367	WORD	n/a	wordpools/wordpool_categorized_EN.txt	SHORTS	Clothing	8	1	[0, 0, 0]	n/a	catFR1	1	R1243T
224.924	0.784	232984	WORD_OFF	n/a	n/a	SHORTS	n/a	8	1	[0, 0, 0]	n/a	catFR1	1	R1243T
225.708	1.617	233767	WORD	n/a	wordpools/wordpool_categorized_EN.txt	SUNFLOWER	Flowers	9	1	[0, 0, 0]	n/a	catFR1	1	R1243T
227.325	1.0	235384	WORD_OFF	n/a	n/a	SUNFLOWER	n/a	9	1	[0, 0, 0]	n/a	catFR1	1	R1243T
228.325	1.617	236384	WORD	n/a	wordpools/wordpool_categorized_EN.txt	PETUNIA	Flowers	10	1	[0, 0, 0]	n/a	catFR1	1	R1243T
229.942	0.817	238001	WORD_OFF	n/a	n/a	PETUNIA	n/a	10	1	[0, 0, 0]	n/a	catFR1	1	R1243T
230.759	1.617	238818	WORD	n/a	wordpools/wordpool_categorized_EN.txt	SPIDER	Insects	11	1	[0, 0, 0]	n/a	catFR1	1	R1243T
232.376	0.833	240435	WORD_OFF	n/a	n/a	SPIDER	n/a	11	1	[0, 0, 0]	n/a	catFR1	1	R1243T
233.209	1.617	241268	WORD	n/a	wordpools/wordpool_categorized_EN.txt	BEETLE	Insects	12	1	[0, 0, 0]	n/a	catFR1	1	R1243T
234.826	0.0	242885	ENCODING_END	n/a	n/a	n/a	n/a	-999	1	[0, 0, 0]	n/a	catFR1	1	R1243T
234.826	0.134	242885	WORD_OFF	n/a	n/a	BEETLE	n/a	12	1	[0, 0, 0]	n/a	catFR1	1	R1243T
234.96	0.0	243019	DISTRACT_START	n/a	n/a	n/a	n/a	-999	1	[0, 0, 0]	n/a	catFR1	1	R1243T
234.96	0.016	243019	START	n/a	n/a	n/a	n/a	-999	1	[-999, -999, -999]	n/a	catFR1	1	R1243T
234.976	7.285	243035	PROB	7.285	n/a	n/a	n/a	-999	1	[5, 4, 3]	12	catFR1	1	R1243T
242.261	4.184	250319	PROB	4.184	n/a	n/a	n/a	-999	1	[7, 4, 1]	12	catFR1	1	R1243T
246.445	5.384	254503	PROB	5.384	n/a	n/a	n/a	-999	1	[2, 5, 3]	10	catFR1	1	R1243T
251.829	5.402	259887	PROB	5.402	n/a	n/a	n/a	-999	1	[9, 3, 2]	14	catFR1	1	R1243T
257.231	0.016	265289	STOP	n/a	n/a	n/a	n/a	-999	1	[-999, -999, -999]	n/a	catFR1	1	R1243T
257.247	0.55	265305	DISTRACT_END	n/a	n/a	n/a	n/a	-999	1	[0, 0, 0]	n/a	catFR1	1	R1243T
257.797	0.518	265855	RETRIEVAL_ORIENT	n/a	n/a	n/a	n/a	-999	1	[0, 0, 0]	n/a	catFR1	1	R1243T
258.315	1.988	266372	REC_START	n/a	n/a	n/a	n/a	-999	1	[0, 0, 0]	n/a	catFR1	1	R1243T
260.303	1.126	268360	REC_WORD	1.126	n/a	JEANS	Clothing	1	1	[0, 0, 0]	n/a	catFR1	1	R1243T
261.429	2.735	269486	REC_WORD	2.735	n/a	SKIRT	Clothing	2	1	[0, 0, 0]	n/a	catFR1	1	R1243T
264.164	1.0	272221	REC_WORD	1.0	n/a	SHOES	Clothing	7	1	[0, 0, 0]	n/a	catFR1	1	R1243T
265.164	5.631	273221	REC_WORD_VV	5.631	n/a	<>	n/a	-999	1	[0, 0, 0]	n/a	catFR1	1	R1243T
270.795	4.804	278852	REC_WORD	4.804	n/a	DAFFODIL	Flowers	3	1	[0, 0, 0]	n/a	catFR1	1	R1243T
275.599	12.725	283655	REC_WORD	12.725	n/a	PETUNIA	Flowers	10	1	[0, 0, 0]	n/a	catFR1	1	R1243T
288.324	7.547	296380	REC_END	n/a	n/a	n/a	n/a	-999	1	[0, 0, 0]	n/a	catFR1	1	R1243T
295.871	0.5	303926	TRIAL	n/a	n/a	n/a	n/a	-999	2	[0, 0, 0]	n/a	catFR1	1	R1243T
296.371	10.428	304426	COUNTDOWN_START	n/a	n/a	n/a	n/a	-999	2	[0, 0, 0]	n/a	catFR1	1	R1243T
306.799	0.007	314854	COUNTDOWN_END	n/a	n/a	n/a	n/a	-999	2	[0, 0, 0]	n/a	catFR1	1	R1243T
306.806	1.617	314861	ORIENT	n/a	n/a	n/a	n/a	-999	2	[0, 0, 0]	n/a	catFR1	1	R1243T
308.423	1.934	316477	ORIENT_OFF	n/a	n/a	n/a	n/a	-999	2	[0, 0, 0]	n/a	catFR1	1	R1243T
310.357	1.617	318411	WORD	n/a	wordpools/wordpool_categorized_EN.txt	CABBAGE	Vegetables	1	2	[0, 0, 0]	n/a	catFR1	1	R1243T
311.974	0.983	320028	WORD_OFF	n/a	n/a	CABBAGE	n/a	1	2	[0, 0, 0]	n/a	catFR1	1	R1243T
312.957	1.617	321011	WORD	n/a	wordpools/wordpool_categorized_EN.txt	CARROT	Vegetables	2	2	[0, 0, 0]	n/a	catFR1	1	R1243T
314.574	0.834	322628	WORD_OFF	n/a	n/a	CARROT	n/a	2	2	[0, 0, 0]	n/a	catFR1	1	R1243T
315.408	1.616	323462	WORD	n/a	wordpools/wordpool_categorized_EN.txt	CREEK	Landscapes	3	2	[0, 0, 0]	n/a	catFR1	1	R1243T
317.024	0.951	325078	WORD_OFF	n/a	n/a	CREEK	n/a	3	2	[0, 0, 0]	n/a	catFR1	1	R1243T
317.975	1.617	326029	WORD	n/a	wordpools/wordpool_categorized_EN.txt	WOODS	Landscapes	4	2	[0, 0, 0]	n/a	catFR1	1	R1243T
319.592	0.883	327646	WORD_OFF	n/a	n/a	WOODS	n/a	4	2	[0, 0, 0]	n/a	catFR1	1	R1243T
320.475	1.617	328529	WORD	n/a	wordpools/wordpool_categorized_EN.txt	PAPER	OfficeSupplies	5	2	[0, 0, 0]	n/a	catFR1	1	R1243T
322.092	0.9	330146	WORD_OFF	n/a	n/a	PAPER	n/a	5	2	[0, 0, 0]	n/a	catFR1	1	R1243T
322.992	1.617	331046	WORD	n/a	wordpools/wordpool_categorized_EN.txt	TAPE	OfficeSupplies	6	2	[0, 0, 0]	n/a	catFR1	1	R1243T
324.609	0.9	332662	WORD_OFF	n/a	n/a	TAPE	n/a	6	2	[0, 0, 0]	n/a	catFR1	1	R1243T
325.509	1.617	333562	WORD	n/a	wordpools/wordpool_categorized_EN.txt	HILLS	Landscapes	7	2	[0, 0, 0]	n/a	catFR1	1	R1243T
327.126	0.867	335179	WORD_OFF	n/a	n/a	HILLS	n/a	7	2	[0, 0, 0]	n/a	catFR1	1	R1243T
327.993	1.617	336046	WORD	n/a	wordpools/wordpool_categorized_EN.txt	MOUNTAIN	Landscapes	8	2	[0, 0, 0]	n/a	catFR1	1	R1243T
329.61	0.884	337663	WORD_OFF	n/a	n/a	MOUNTAIN	n/a	8	2	[0, 0, 0]	n/a	catFR1	1	R1243T
330.494	1.617	338547	WORD	n/a	wordpools/wordpool_categorized_EN.txt	BROCCOLI	Vegetables	9	2	[0, 0, 0]	n/a	catFR1	1	R1243T
332.111	0.916	340164	WORD_OFF	n/a	n/a	BROCCOLI	n/a	9	2	[0, 0, 0]	n/a	catFR1	1	R1243T
333.027	1.616	341080	WORD	n/a	wordpools/wordpool_categorized_EN.txt	CELERY	Vegetables	10	2	[0, 0, 0]	n/a	catFR1	1	R1243T
334.643	0.935	342696	WORD_OFF	n/a	n/a	CELERY	n/a	10	2	[0, 0, 0]	n/a	catFR1	1	R1243T
335.578	1.617	343631	WORD	n/a	wordpools/wordpool_categorized_EN.txt	MARKER	OfficeSupplies	11	2	[0, 0, 0]	n/a	catFR1	1	R1243T
337.195	0.984	345248	WORD_OFF	n/a	n/a	MARKER	n/a	11	2	[0, 0, 0]	n/a	catFR1	1	R1243T
338.179	1.616	346232	WORD	n/a	wordpools/wordpool_categorized_EN.txt	NOTEBOOK	OfficeSupplies	12	2	[0, 0, 0]	n/a	catFR1	1	R1243T
339.795	0.001	347848	WORD_OFF	n/a	n/a	NOTEBOOK	n/a	12	2	[0, 0, 0]	n/a	catFR1	1	R1243T
339.796	0.104	347849	ENCODING_END	n/a	n/a	n/a	n/a	-999	2	[0, 0, 0]	n/a	catFR1	1	R1243T
339.9	0.0	347953	DISTRACT_START	n/a	n/a	n/a	n/a	-999	2	[0, 0, 0]	n/a	catFR1	1	R1243T
339.9	0.012	347953	START	n/a	n/a	n/a	n/a	-999	2	[-999, -999, -999]	n/a	catFR1	1	R1243T
339.912	5.534	347965	PROB	5.534	n/a	n/a	n/a	-999	2	[6, 1, 6]	13	catFR1	1	R1243T
345.446	6.785	353498	PROB	6.785	n/a	n/a	n/a	-999	2	[8, 9, 8]	26	catFR1	1	R1243T
352.231	10.502	360283	PROB	10.502	n/a	n/a	n/a	-999	2	[9, 4, 5]	18	catFR1	1	R1243T
362.733	0.017	370784	STOP	n/a	n/a	n/a	n/a	-999	2	[-999, -999, -999]	n/a	catFR1	1	R1243T
362.75	0.683	370801	DISTRACT_END	n/a	n/a	n/a	n/a	-999	2	[0, 0, 0]	n/a	catFR1	1	R1243T
363.433	0.518	371484	RETRIEVAL_ORIENT	n/a	n/a	n/a	n/a	-999	2	[0, 0, 0]	n/a	catFR1	1	R1243T
363.951	8.859	372002	REC_START	n/a	n/a	n/a	n/a	-999	2	[0, 0, 0]	n/a	catFR1	1	R1243T
372.81	5.139	380861	REC_WORD	5.139	n/a	BROCCOLI	Vegetables	9	2	[0, 0, 0]	n/a	catFR1	1	R1243T
377.949	1.654	385999	REC_WORD	1.654	n/a	MOUNTAINS	n/a	-999	2	[0, 0, 0]	n/a	catFR1	1	R1243T
379.603	4.115	387653	REC_WORD	4.115	n/a	VALLEY	n/a	-999	2	[0, 0, 0]	n/a	catFR1	1	R1243T
383.718	0.922	391768	REC_WORD	0.922	n/a	HILLS	Landscapes	7	2	[0, 0, 0]	n/a	catFR1	1	R1243T
384.64	9.322	392690	REC_WORD	9.322	n/a	WOODS	Landscapes	4	2	[0, 0, 0]	n/a	catFR1	1	R1243T
393.962	9.045	402011	REC_END	n/a	n/a	n/a	n/a	-999	2	[0, 0, 0]	n/a	catFR1	1	R1243T
403.007	0.5	411056	TRIAL	n/a	n/a	n/a	n/a	-999	3	[0, 0, 0]	n/a	catFR1	1	R1243T
403.507	10.428	411556	COUNTDOWN_START	n/a	n/a	n/a	n/a	-999	3	[0, 0, 0]	n/a	catFR1	1	R1243T
413.935	0.007	421983	COUNTDOWN_END	n/a	n/a	n/a	n/a	-999	3	[0, 0, 0]	n/a	catFR1	1	R1243T
413.942	1.617	421990	ORIENT	n/a	n/a	n/a	n/a	-999	3	[0, 0, 0]	n/a	catFR1	1	R1243T
415.559	1.834	423607	ORIENT_OFF	n/a	n/a	n/a	n/a	-999	3	[0, 0, 0]	n/a	catFR1	1	R1243T
417.393	1.617	425441	WORD	n/a	wordpools/wordpool_categorized_EN.txt	CHEETAH	Zoo	1	3	[0, 0, 0]	n/a	catFR1	1	R1243T
419.01	0.833	427058	WORD_OFF	n/a	n/a	CHEETAH	n/a	1	3	[0, 0, 0]	n/a	catFR1	1	R1243T
419.843	1.617	427891	WORD	n/a	wordpools/wordpool_categorized_EN.txt	ELEPHANT	Zoo	2	3	[0, 0, 0]	n/a	catFR1	1	R1243T
421.46	0.967	429508	WORD_OFF	n/a	n/a	ELEPHANT	n/a	2	3	[0, 0, 0]	n/a	catFR1	1	R1243T
422.427	1.617	430475	WORD	n/a	wordpools/wordpool_categorized_EN.txt	COUCH	Furniture	3	3	[0, 0, 0]	n/a	catFR1	1	R1243T
424.044	0.95	432091	WORD_OFF	n/a	n/a	COUCH	n/a	3	3	[0, 0, 0]	n/a	catFR1	1	R1243T
424.994	1.617	433041	WORD	n/a	wordpools/wordpool_categorized_EN.txt	SHELF	Furniture	4	3	[0, 0, 0]	n/a	catFR1	1	R1243T
426.611	0.834	434658	WORD_OFF	n/a	n/a	SHELF	n/a	4	3	[0, 0, 0]	n/a	catFR1	1	R1243T
427.445	1.617	435492	WORD	n/a	wordpools/wordpool_categorized_EN.txt	BUTTERFLY	Insects	5	3	[0, 0, 0]	n/a	catFR1	1	R1243T
429.062	0.883	437109	WORD_OFF	n/a	n/a	BUTTERFLY	n/a	5	3	[0, 0, 0]	n/a	catFR1	1	R1243T
429.945	1.617	437992	WORD	n/a	wordpools/wordpool_categorized_EN.txt	FLY	Insects	6	3	[0, 0, 0]	n/a	catFR1	1	R1243T
431.562	0.817	439609	WORD_OFF	n/a	n/a	FLY	n/a	6	3	[0, 0, 0]	n/a	catFR1	1	R1243T
432.379	1.617	440426	WORD	n/a	wordpools/wordpool_categorized_EN.txt	TIGER	Zoo	7	3	[0, 0, 0]	n/a	catFR1	1	R1243T
433.996	0.8	442043	WORD_OFF	n/a	n/a	TIGER	n/a	7	3	[0, 0, 0]	n/a	catFR1	1	R1243T
434.796	1.617	442843	WORD	n/a	wordpools/wordpool_categorized_EN.txt	LION	Zoo	8	3	[0, 0, 0]	n/a	catFR1	1	R1243T
436.413	0.8	444460	WORD_OFF	n/a	n/a	LION	n/a	8	3	[0, 0, 0]	n/a	catFR1	1	R1243T
437.213	1.617	445260	WORD	n/a	wordpools/wordpool_categorized_EN.txt	RECLINER	Furniture	9	3	[0, 0, 0]	n/a	catFR1	1	R1243T
438.83	0.967	446877	WORD_OFF	n/a	n/a	RECLINER	n/a	9	3	[0, 0, 0]	n/a	catFR1	1	R1243T
439.797	1.617	447844	WORD	n/a	wordpools/wordpool_categorized_EN.txt	TABLE	Furniture	10	3	[0, 0, 0]	n/a	catFR1	1	R1243T
441.414	0.883	449460	WORD_OFF	n/a	n/a	TABLE	n/a	10	3	[0, 0, 0]	n/a	catFR1	1	R1243T
442.297	1.617	450343	WORD	n/a	wordpools/wordpool_categorized_EN.txt	MOTH	Insects	11	3	[0, 0, 0]	n/a	catFR1	1	R1243T
443.914	0.934	451960	WORD_OFF	n/a	n/a	MOTH	n/a	11	3	[0, 0, 0]	n/a	catFR1	1	R1243T
444.848	1.617	452894	WORD	n/a	wordpools/wordpool_categorized_EN.txt	GNAT	Insects	12	3	[0, 0, 0]	n/a	catFR1	1	R1243T
446.465	0.0	454511	ENCODING_END	n/a	n/a	n/a	n/a	-999	3	[0, 0, 0]	n/a	catFR1	1	R1243T
446.465	0.1	454511	WORD_OFF	n/a	n/a	GNAT	n/a	12	3	[0, 0, 0]	n/a	catFR1	1	R1243T
446.565	0.0	454611	DISTRACT_START	n/a	n/a	n/a	n/a	-999	3	[0, 0, 0]	n/a	catFR1	1	R1243T
446.565	0.016	454611	START	n/a	n/a	n/a	n/a	-999	3	[-999, -999, -999]	n/a	catFR1	1	R1243T
446.581	6.618	454627	PROB	6.618	n/a	n/a	n/a	-999	3	[4, 2, 7]	13	catFR1	1	R1243T
453.199	4.918	461245	PROB	4.918	n/a	n/a	n/a	-999	3	[3, 4, 4]	11	catFR1	1	R1243T
458.117	5.168	466162	PROB	5.168	n/a	n/a	n/a	-999	3	[5, 3, 4]	12	catFR1	1	R1243T
463.285	8.769	471330	PROB	8.769	n/a	n/a	n/a	-999	3	[8, 9, 8]	25	catFR1	1	R1243T
472.054	0.016	480099	STOP	n/a	n/a	n/a	n/a	-999	3	[-999, -999, -999]	n/a	catFR1	1	R1243T
472.07	0.582	480115	DISTRACT_END	n/a	n/a	n/a	n/a	-999	3	[0, 0, 0]	n/a	catFR1	1	R1243T
472.652	0.519	480697	RETRIEVAL_ORIENT	n/a	n/a	n/a	n/a	-999	3	[0, 0, 0]	n/a	catFR1	1	R1243T
473.171	3.434	481216	REC_START	n/a	n/a	n/a	n/a	-999	3	[0, 0, 0]	n/a	catFR1	1	R1243T
476.605	0.753	484649	REC_WORD	0.753	n/a	CHEETAH	Zoo	1	3	[0, 0, 0]	n/a	catFR1	1	R1243T
477.358	0.789	485402	REC_WORD	0.789	n/a	LION	Zoo	8	3	[0, 0, 0]	n/a	catFR1	1	R1243T
478.147	3.746	486191	REC_WORD	3.746	n/a	TIGER	Zoo	7	3	[0, 0, 0]	n/a	catFR1	1	R1243T
481.893	2.952	489937	REC_WORD	2.952	n/a	ELEPHANTS	n/a	-999	3	[0, 0, 0]	n/a	catFR1	1	R1243T
484.845	8.363	492889	REC_WORD	8.363	n/a	FLY	Insects	6	3	[0, 0, 0]	n/a	catFR1	1	R1243T
493.208	0.56	501251	REC_WORD	0.56	n/a	TIGER	Zoo	7	3	[0, 0, 0]	n/a	catFR1	1	R1243T
493.768	9.412	501811	REC_WORD_VV	9.412	n/a	<>	n/a	-999	3	[0, 0, 0]	n/a	catFR1	1	R1243T
503.18	5.613	511223	REC_END	n/a	n/a	n/a	n/a	-999	3	[0, 0, 0]	n/a	catFR1	1	R1243T
508.793	0.5	516835	TRIAL	n/a	n/a	n/a	n/a	-999	4	[0, 0, 0]	n/a	catFR1	1	R1243T
509.293	10.428	517335	COUNTDOWN_START	n/a	n/a	n/a	n/a	-999	4	[0, 0, 0]	n/a	catFR1	1	R1243T
519.721	0.007	527763	COUNTDOWN_END	n/a	n/a	n/a	n/a	-999	4	[0, 0, 0]	n/a	catFR1	1	R1243T
519.728	1.617	527770	ORIENT	n/a	n/a	n/a	n/a	-999	4	[0, 0, 0]	n/a	catFR1	1	R1243T
521.345	2.134	529387	ORIENT_OFF	n/a	n/a	n/a	n/a	-999	4	[0, 0, 0]	n/a	catFR1	1	R1243T
523.479	1.617	531520	WORD	n/a	wordpools/wordpool_categorized_EN.txt	BOAT	Vehicles	1	4	[0, 0, 0]	n/a	catFR1	1	R1243T
525.096	0.833	533137	WORD_OFF	n/a	n/a	BOAT	n/a	1	4	[0, 0, 0]	n/a	catFR1	1	R1243T
525.929	1.617	533970	WORD	n/a	wordpools/wordpool_categorized_EN.txt	VAN	Vehicles	2	4	[0, 0, 0]	n/a	catFR1	1	R1243T
527.546	0.934	535587	WORD_OFF	n/a	n/a	VAN	n/a	2	4	[0, 0, 0]	n/a	catFR1	1	R1243T
528.48	1.617	536521	WORD	n/a	wordpools/wordpool_categorized_EN.txt	FOREST	Landscapes	3	4	[0, 0, 0]	n/a	catFR1	1	R1243T
530.097	0.916	538138	WORD_OFF	n/a	n/a	FOREST	n/a	3	4	[0, 0, 0]	n/a	catFR1	1	R1243T
531.013	1.617	539054	WORD	n/a	wordpools/wordpool_categorized_EN.txt	OCEAN	Landscapes	4	4	[0, 0, 0]	n/a	catFR1	1	R1243T
532.63	0.767	540671	WORD_OFF	n/a	n/a	OCEAN	n/a	4	4	[0, 0, 0]	n/a	catFR1	1	R1243T
533.397	1.617	541438	WORD	n/a	wordpools/wordpool_categorized_EN.txt	APPLE	Fruit	5	4	[0, 0, 0]	n/a	catFR1	1	R1243T
535.014	0.884	543055	WORD_OFF	n/a	n/a	APPLE	n/a	5	4	[0, 0, 0]	n/a	catFR1	1	R1243T
535.898	1.617	543939	WORD	n/a	wordpools/wordpool_categorized_EN.txt	PEAR	Fruit	6	4	[0, 0, 0]	n/a	catFR1	1	R1243T
537.515	0.95	545556	WORD_OFF	n/a	n/a	PEAR	n/a	6	4	[0, 0, 0]	n/a	catFR1	1	R1243T
538.465	1.617	546506	WORD	n/a	wordpools/wordpool_categorized_EN.txt	BUS	Vehicles	7	4	[0, 0, 0]	n/a	catFR1	1	R1243T
540.082	1.0	548122	WORD_OFF	n/a	n/a	BUS	n/a	7	4	[0, 0, 0]	n/a	catFR1	1	R1243T
541.082	1.617	549122	WORD	n/a	wordpools/wordpool_categorized_EN.txt	CAR	Vehicles	8	4	[0, 0, 0]	n/a	catFR1	1	R1243T
542.699	0.933	550739	WORD_OFF	n/a	n/a	CAR	n/a	8	4	[0, 0, 0]	n/a	catFR1	1	R1243T
543.632	1.617	551672	WORD	n/a	wordpools/wordpool_categorized_EN.txt	LAKE	Landscapes	9	4	[0, 0, 0]	n/a	catFR1	1	R1243T
545.249	0.967	553289	WORD_OFF	n/a	n/a	LAKE	n/a	9	4	[0, 0, 0]	n/a	catFR1	1	R1243T
546.216	1.617	554256	WORD	n/a	wordpools/wordpool_categorized_EN.txt	VALLEY	Landscapes	10	4	[0, 0, 0]	n/a	catFR1	1	R1243T
547.833	0.95	555873	WORD_OFF	n/a	n/a	VALLEY	n/a	10	4	[0, 0, 0]	n/a	catFR1	1	R1243T
548.783	1.617	556823	WORD	n/a	wordpools/wordpool_categorized_EN.txt	PEACH	Fruit	11	4	[0, 0, 0]	n/a	catFR1	1	R1243T
550.4	0.917	558440	WORD_OFF	n/a	n/a	PEACH	n/a	11	4	[0, 0, 0]	n/a	catFR1	1	R1243T
551.317	1.617	559357	WORD	n/a	wordpools/wordpool_categorized_EN.txt	CHERRY	Fruit	12	4	[0, 0, 0]	n/a	catFR1	1	R1243T
552.934	0.0	560974	WORD_OFF	n/a	n/a	CHERRY	n/a	12	4	[0, 0, 0]	n/a	catFR1	1	R1243T
552.934	0.137	560974	ENCODING_END	n/a	n/a	n/a	n/a	-999	4	[0, 0, 0]	n/a	catFR1	1	R1243T
553.071	0.0	561111	DISTRACT_START	n/a	n/a	n/a	n/a	-999	4	[0, 0, 0]	n/a	catFR1	1	R1243T
553.071	0.013	561111	START	n/a	n/a	n/a	n/a	-999	4	[-999, -999, -999]	n/a	catFR1	1	R1243T
553.084	6.318	561124	PROB	6.318	n/a	n/a	n/a	-999	4	[2, 2, 9]	13	catFR1	1	R1243T
559.402	7.318	567441	PROB	7.318	n/a	n/a	n/a	-999	4	[8, 4, 3]	15	catFR1	1	R1243T
566.72	7.398	574759	PROB	7.398	n/a	n/a	n/a	-999	4	[8, 9, 9]	27	catFR1	1	R1243T
574.118	0.02	582156	STOP	n/a	n/a	n/a	n/a	-999	4	[-999, -999, -999]	n/a	catFR1	1	R1243T
574.138	0.667	582176	DISTRACT_END	n/a	n/a	n/a	n/a	-999	4	[0, 0, 0]	n/a	catFR1	1	R1243T
574.805	0.518	582843	RETRIEVAL_ORIENT	n/a	n/a	n/a	n/a	-999	4	[0, 0, 0]	n/a	catFR1	1	R1243T
575.323	10.969	583361	REC_START	n/a	n/a	n/a	n/a	-999	4	[0, 0, 0]	n/a	catFR1	1	R1243T
586.292	1.089	594330	REC_WORD	1.089	n/a	MOUNTAIN	n/a	-999	4	[0, 0, 0]	n/a	catFR1	1	R1243T
587.381	7.513	595419	REC_WORD	7.513	n/a	VALLEY	Landscapes	10	4	[0, 0, 0]	n/a	catFR1	1	R1243T
594.894	3.015	602931	REC_WORD	3.015	n/a	BUS	Vehicles	7	4	[0, 0, 0]	n/a	catFR1	1	R1243T
597.909	7.425	605946	REC_WORD	7.425	n/a	CAR	Vehicles	8	4	[0, 0, 0]	n/a	catFR1	1	R1243T
605.334	6.578	613371	REC_END	n/a	n/a	n/a	n/a	-999	4	[0, 0, 0]	n/a	catFR1	1	R1243T
611.912	0.5	619948	TRIAL	n/a	n/a	n/a	n/a	-999	5	[0, 0, 0]	n/a	catFR1	1	R1243T
612.412	10.428	620448	COUNTDOWN_START	n/a	n/a	n/a	n/a	-999	5	[0, 0, 0]	n/a	catFR1	1	R1243T
622.84	0.007	630875	COUNTDOWN_END	n/a	n/a	n/a	n/a	-999	5	[0, 0, 0]	n/a	catFR1	1	R1243T
622.847	1.617	630882	ORIENT	n/a	n/a	n/a	n/a	-999	5	[0, 0, 0]	n/a	catFR1	1	R1243T
624.464	2.134	632499	ORIENT_OFF	n/a	n/a	n/a	n/a	-999	5	[0, 0, 0]	n/a	catFR1	1	R1243T
626.598	1.617	634633	WORD	n/a	wordpools/wordpool_categorized_EN.txt	CRAB	OceanAnimals	1	5	[0, 0, 0]	n/a	catFR1	1	R1243T
628.215	0.85	636250	WORD_OFF	n/a	n/a	CRAB	n/a	1	5	[0, 0, 0]	n/a	catFR1	1	R1243T
629.065	1.616	637100	WORD	n/a	wordpools/wordpool_categorized_EN.txt	SQUID	OceanAnimals	2	5	[0, 0, 0]	n/a	catFR1	1	R1243T
630.681	0.934	638716	WORD_OFF	n/a	n/a	SQUID	n/a	2	5	[0, 0, 0]	n/a	catFR1	1	R1243T
631.615	1.617	639650	WORD	n/a	wordpools/wordpool_categorized_EN.txt	TOASTER	Appliances	3	5	[0, 0, 0]	n/a	catFR1	1	R1243T
633.232	1.0	641267	WORD_OFF	n/a	n/a	TOASTER	n/a	3	5	[0, 0, 0]	n/a	catFR1	1	R1243T
634.232	1.617	642267	WORD	n/a	wordpools/wordpool_categorized_EN.txt	BLENDER	Appliances	4	5	[0, 0, 0]	n/a	catFR1	1	R1243T
635.849	0.934	643884	WORD_OFF	n/a	n/a	BLENDER	n/a	4	5	[0, 0, 0]	n/a	catFR1	1	R1243T
636.783	1.617	644818	WORD	n/a	wordpools/wordpool_categorized_EN.txt	COW	FarmAnimals	5	5	[0, 0, 0]	n/a	catFR1	1	R1243T
638.4	0.783	646435	WORD_OFF	n/a	n/a	COW	n/a	5	5	[0, 0, 0]	n/a	catFR1	1	R1243T
639.183	1.617	647218	WORD	n/a	wordpools/wordpool_categorized_EN.txt	CHICKEN	FarmAnimals	6	5	[0, 0, 0]	n/a	catFR1	1	R1243T
640.8	0.934	648834	WORD_OFF	n/a	n/a	CHICKEN	n/a	6	5	[0, 0, 0]	n/a	catFR1	1	R1243T
641.734	1.617	649768	WORD	n/a	wordpools/wordpool_categorized_EN.txt	SHRIMP	OceanAnimals	7	5	[0, 0, 0]	n/a	catFR1	1	R1243T
643.351	0.833	651385	WORD_OFF	n/a	n/a	SHRIMP	n/a	7	5	[0, 0, 0]	n/a	catFR1	1	R1243T
644.184	1.617	652218	WORD	n/a	wordpools/wordpool_categorized_EN.txt	LOBSTER	OceanAnimals	8	5	[0, 0, 0]	n/a	catFR1	1	R1243T
645.801	0.817	653835	WORD_OFF	n/a	n/a	LOBSTER	n/a	8	5	[0, 0, 0]	n/a	catFR1	1	R1243T
646.618	1.617	654652	WORD	n/a	wordpools/wordpool_categorized_EN.txt	FREEZER	Appliances	9	5	[0, 0, 0]	n/a	catFR1	1	R1243T
648.235	0.967	656269	WORD_OFF	n/a	n/a	FREEZER	n/a	9	5	[0, 0, 0]	n/a	catFR1	1	R1243T
649.202	1.617	657236	WORD	n/a	wordpools/wordpool_categorized_EN.txt	OVEN	Appliances	10	5	[0, 0, 0]	n/a	catFR1	1	R1243T
650.819	0.966	658853	WORD_OFF	n/a	n/a	OVEN	n/a	10	5	[0, 0, 0]	n/a	catFR1	1	R1243T
651.785	1.617	659819	WORD	n/a	wordpools/wordpool_categorized_EN.txt	HORSE	FarmAnimals	11	5	[0, 0, 0]	n/a	catFR1	1	R1243T
653.402	0.967	661436	WORD_OFF	n/a	n/a	HORSE	n/a	11	5	[0, 0, 0]	n/a	catFR1	1	R1243T
654.369	1.617	662403	WORD	n/a	wordpools/wordpool_categorized_EN.txt	CALF	FarmAnimals	12	5	[0, 0, 0]	n/a	catFR1	1	R1243T
655.986	0.0	664019	ENCODING_END	n/a	n/a	n/a	n/a	-999	5	[0, 0, 0]	n/a	catFR1	1	R1243T
655.986	0.105	664019	WORD_OFF	n/a	n/a	CALF	n/a	12	5	[0, 0, 0]	n/a	catFR1	1	R1243T
656.091	0.0	664124	DISTRACT_START	n/a	n/a	n/a	n/a	-999	5	[0, 0, 0]	n/a	catFR1	1	R1243T
656.091	0.012	664124	START	n/a	n/a	n/a	n/a	-999	5	[-999, -999, -999]	n/a	catFR1	1	R1243T
656.103	7.918	664136	PROB	7.918	n/a	n/a	n/a	-999	5	[6, 6, 8]	20	catFR1	1	R1243T
664.021	7.768	672054	PROB	7.768	n/a	n/a	n/a	-999	5	[4, 2, 8]	14	catFR1	1	R1243T
671.789	8.017	679822	PROB	8.017	n/a	n/a	n/a	-999	5	[8, 4, 8]	20	catFR1	1	R1243T
679.806	0.018	687838	STOP	n/a	n/a	n/a	n/a	-999	5	[-999, -999, -999]	n/a	catFR1	1	R1243T
679.824	0.667	687856	DISTRACT_END	n/a	n/a	n/a	n/a	-999	5	[0, 0, 0]	n/a	catFR1	1	R1243T
680.491	0.517	688523	RETRIEVAL_ORIENT	n/a	n/a	n/a	n/a	-999	5	[0, 0, 0]	n/a	catFR1	1	R1243T
681.008	2.859	689040	REC_START	n/a	n/a	n/a	n/a	-999	5	[0, 0, 0]	n/a	catFR1	1	R1243T
683.867	5.477	691899	REC_WORD_VV	5.477	n/a	<>	n/a	-999	5	[0, 0, 0]	n/a	catFR1	1	R1243T
689.344	1.204	697375	REC_WORD	1.204	n/a	LAKE	n/a	-999	5	[0, 0, 0]	n/a	catFR1	1	R1243T
690.548	3.37	698579	REC_WORD	3.37	n/a	OCEAN	n/a	-999	5	[0, 0, 0]	n/a	catFR1	1	R1243T
693.918	11.838	701949	REC_WORD	11.838	n/a	MOUNTAIN	n/a	-999	5	[0, 0, 0]	n/a	catFR1	1	R1243T
705.756	1.178	713786	REC_WORD	1.178	n/a	APPLE	n/a	-999	5	[0, 0, 0]	n/a	catFR1	1	R1243T
706.934	0.715	714964	REC_WORD	0.715	n/a	CHERRY	n/a	-999	5	[0, 0, 0]	n/a	catFR1	1	R1243T
707.649	3.368	715679	REC_WORD	3.368	n/a	PEACH	n/a	-999	5	[0, 0, 0]	n/a	catFR1	1	R1243T
711.017	581.852	719047	REC_END	n/a	n/a	n/a	n/a	-999	5	[0, 0, 0]	n/a	catFR1	1	R1243T
1292.869	0.5	1300864	TRIAL	n/a	n/a	n/a	n/a	-999	6	[0, 0, 0]	n/a	catFR1	1	R1243T
1293.369	10.428	1301364	COUNTDOWN_START	n/a	n/a	n/a	n/a	-999	6	[0, 0, 0]	n/a	catFR1	1	R1243T
1303.797	0.007	1311791	COUNTDOWN_END	n/a	n/a	n/a	n/a	-999	6	[0, 0, 0]	n/a	catFR1	1	R1243T
1303.804	1.617	1311798	ORIENT	n/a	n/a	n/a	n/a	-999	6	[0, 0, 0]	n/a	catFR1	1	R1243T
1305.421	2.367	1313415	ORIENT_OFF	n/a	n/a	n/a	n/a	-999	6	[0, 0, 0]	n/a	catFR1	1	R1243T
1307.788	1.617	1315782	WORD	n/a	wordpools/wordpool_categorized_EN.txt	SLINKY	Toys	1	6	[0, 0, 0]	n/a	catFR1	1	R1243T
1309.405	1.0	1317399	WORD_OFF	n/a	n/a	SLINKY	n/a	1	6	[0, 0, 0]	n/a	catFR1	1	R1243T
1310.405	1.617	1318399	WORD	n/a	wordpools/wordpool_categorized_EN.txt	BASEBALL	Toys	2	6	[0, 0, 0]	n/a	catFR1	1	R1243T
1312.022	0.883	1320016	WORD_OFF	n/a	n/a	BASEBALL	n/a	2	6	[0, 0, 0]	n/a	catFR1	1	R1243T
1312.905	1.617	1320899	WORD	n/a	wordpools/wordpool_categorized_EN.txt	PLUM	Fruit	3	6	[0, 0, 0]	n/a	catFR1	1	R1243T
1314.522	0.917	1322516	WORD_OFF	n/a	n/a	PLUM	n/a	3	6	[0, 0, 0]	n/a	catFR1	1	R1243T
1315.439	1.617	1323433	WORD	n/a	wordpools/wordpool_categorized_EN.txt	LIME	Fruit	4	6	[0, 0, 0]	n/a	catFR1	1	R1243T
1317.056	0.8	1325050	WORD_OFF	n/a	n/a	LIME	n/a	4	6	[0, 0, 0]	n/a	catFR1	1	R1243T
1317.856	1.617	1325850	WORD	n/a	wordpools/wordpool_categorized_EN.txt	FINGERS	BodyParts	5	6	[0, 0, 0]	n/a	catFR1	1	R1243T
1319.473	0.967	1327466	WORD_OFF	n/a	n/a	FINGERS	n/a	5	6	[0, 0, 0]	n/a	catFR1	1	R1243T
1320.44	1.617	1328433	WORD	n/a	wordpools/wordpool_categorized_EN.txt	ELBOW	BodyParts	6	6	[0, 0, 0]	n/a	catFR1	1	R1243T
1322.057	0.884	1330050	WORD_OFF	n/a	n/a	ELBOW	n/a	6	6	[0, 0, 0]	n/a	catFR1	1	R1243T
1322.941	1.617	1330934	WORD	n/a	wordpools/wordpool_categorized_EN.txt	FRISBEE	Toys	7	6	[0, 0, 0]	n/a	catFR1	1	R1243T
1324.558	0.95	1332551	WORD_OFF	n/a	n/a	FRISBEE	n/a	7	6	[0, 0, 0]	n/a	catFR1	1	R1243T
1325.508	1.617	1333501	WORD	n/a	wordpools/wordpool_categorized_EN.txt	BARBIE	Toys	8	6	[0, 0, 0]	n/a	catFR1	1	R1243T
1327.125	0.833	1335118	WORD_OFF	n/a	n/a	BARBIE	n/a	8	6	[0, 0, 0]	n/a	catFR1	1	R1243T
1327.958	1.617	1335951	WORD	n/a	wordpools/wordpool_categorized_EN.txt	LEMON	Fruit	9	6	[0, 0, 0]	n/a	catFR1	1	R1243T
1329.575	1.0	1337568	WORD_OFF	n/a	n/a	LEMON	n/a	9	6	[0, 0, 0]	n/a	catFR1	1	R1243T
1330.575	1.617	1338568	WORD	n/a	wordpools/wordpool_categorized_EN.txt	STRAWBERRY	Fruit	10	6	[0, 0, 0]	n/a	catFR1	1	R1243T
1332.192	0.834	1340185	WORD_OFF	n/a	n/a	STRAWBERRY	n/a	10	6	[0, 0, 0]	n/a	catFR1	1	R1243T
1333.026	1.616	1341019	WORD	n/a	wordpools/wordpool_categorized_EN.txt	ARM	BodyParts	11	6	[0, 0, 0]	n/a	catFR1	1	R1243T
1334.642	0.834	1342635	WORD_OFF	n/a	n/a	ARM	n/a	11	6	[0, 0, 0]	n/a	catFR1	1	R1243T
1335.476	1.617	1343468	WORD	n/a	wordpools/wordpool_categorized_EN.txt	NOSE	BodyParts	12	6	[0, 0, 0]	n/a	catFR1	1	R1243T
1337.093	0.0	1345085	WORD_OFF	n/a	n/a	NOSE	n/a	12	6	[0, 0, 0]	n/a	catFR1	1	R1243T
1337.093	0.133	1345085	ENCODING_END	n/a	n/a	n/a	n/a	-999	6	[0, 0, 0]	n/a	catFR1	1	R1243T
1337.226	0.0	1345218	DISTRACT_START	n/a	n/a	n/a	n/a	-999	6	[0, 0, 0]	n/a	catFR1	1	R1243T
1337.226	0.017	1345218	START	n/a	n/a	n/a	n/a	-999	6	[-999, -999, -999]	n/a	catFR1	1	R1243T
1337.243	6.585	1345235	PROB	6.585	n/a	n/a	n/a	-999	6	[1, 3, 7]	11	catFR1	1	R1243T
1343.828	11.002	1351820	PROB	11.002	n/a	n/a	n/a	-999	6	[6, 1, 2]	9	catFR1	1	R1243T
1354.83	5.664	1362821	PROB	5.664	n/a	n/a	n/a	-999	6	[5, 9, 9]	24	catFR1	1	R1243T
1360.494	0.02	1368485	STOP	n/a	n/a	n/a	n/a	-999	6	[-999, -999, -999]	n/a	catFR1	1	R1243T
1360.514	0.667	1368505	DISTRACT_END	n/a	n/a	n/a	n/a	-999	6	[0, 0, 0]	n/a	catFR1	1	R1243T
1361.181	0.517	1369172	RETRIEVAL_ORIENT	n/a	n/a	n/a	n/a	-999	6	[0, 0, 0]	n/a	catFR1	1	R1243T
1361.698	7.768	1369689	REC_START	n/a	n/a	n/a	n/a	-999	6	[0, 0, 0]	n/a	catFR1	1	R1243T
1369.466	4.786	1377456	REC_WORD	4.786	n/a	STRAWBERRY	Fruit	10	6	[0, 0, 0]	n/a	catFR1	1	R1243T
1374.252	3.901	1382242	REC_WORD	3.901	n/a	RASPBERRY	n/a	-999	6	[0, 0, 0]	n/a	catFR1	1	R1243T
1378.153	13.555	1386143	REC_WORD	13.555	n/a	ARM	BodyParts	11	6	[0, 0, 0]	n/a	catFR1	1	R1243T
1391.708	5.429	1399697	REC_END	n/a	n/a	n/a	n/a	-999	6	[0, 0, 0]	n/a	catFR1	1	R1243T
1397.137	0.5	1405126	TRIAL	n/a	n/a	n/a	n/a	-999	7	[0, 0, 0]	n/a	catFR1	1	R1243T
1397.637	10.428	1405626	COUNTDOWN_START	n/a	n/a	n/a	n/a	-999	7	[0, 0, 0]	n/a	catFR1	1	R1243T
1408.065	0.008	1416053	COUNTDOWN_END	n/a	n/a	n/a	n/a	-999	7	[0, 0, 0]	n/a	catFR1	1	R1243T
1408.073	1.616	1416061	ORIENT	n/a	n/a	n/a	n/a	-999	7	[0, 0, 0]	n/a	catFR1	1	R1243T
1409.689	2.101	1417677	ORIENT_OFF	n/a	n/a	n/a	n/a	-999	7	[0, 0, 0]	n/a	catFR1	1	R1243T
1411.79	1.617	1419778	WORD	n/a	wordpools/wordpool_categorized_EN.txt	DAISY	Flowers	1	7	[0, 0, 0]	n/a	catFR1	1	R1243T
1413.407	1.0	1421395	WORD_OFF	n/a	n/a	DAISY	n/a	1	7	[0, 0, 0]	n/a	catFR1	1	R1243T
1414.407	1.617	1422395	WORD	n/a	wordpools/wordpool_categorized_EN.txt	MARIGOLD	Flowers	2	7	[0, 0, 0]	n/a	catFR1	1	R1243T
1416.024	0.85	1424012	WORD_OFF	n/a	n/a	MARIGOLD	n/a	2	7	[0, 0, 0]	n/a	catFR1	1	R1243T
1416.874	1.617	1424862	WORD	n/a	wordpools/wordpool_categorized_EN.txt	PIG	FarmAnimals	3	7	[0, 0, 0]	n/a	catFR1	1	R1243T
1418.491	0.934	1426478	WORD_OFF	n/a	n/a	PIG	n/a	3	7	[0, 0, 0]	n/a	catFR1	1	R1243T
1419.425	1.617	1427412	WORD	n/a	wordpools/wordpool_categorized_EN.txt	GOAT	FarmAnimals	4	7	[0, 0, 0]	n/a	catFR1	1	R1243T
1421.042	0.9	1429029	WORD_OFF	n/a	n/a	GOAT	n/a	4	7	[0, 0, 0]	n/a	catFR1	1	R1243T
1421.942	1.617	1429929	WORD	n/a	wordpools/wordpool_categorized_EN.txt	HAMMER	Tools	5	7	[0, 0, 0]	n/a	catFR1	1	R1243T
1423.559	0.85	1431546	WORD_OFF	n/a	n/a	HAMMER	n/a	5	7	[0, 0, 0]	n/a	catFR1	1	R1243T
1424.409	1.617	1432396	WORD	n/a	wordpools/wordpool_categorized_EN.txt	CROWBAR	Tools	6	7	[0, 0, 0]	n/a	catFR1	1	R1243T
1426.026	0.984	1434013	WORD_OFF	n/a	n/a	CROWBAR	n/a	6	7	[0, 0, 0]	n/a	catFR1	1	R1243T
1427.01	1.617	1434997	WORD	n/a	wordpools/wordpool_categorized_EN.txt	TULIP	Flowers	7	7	[0, 0, 0]	n/a	catFR1	1	R1243T
1428.627	0.933	1436614	WORD_OFF	n/a	n/a	TULIP	n/a	7	7	[0, 0, 0]	n/a	catFR1	1	R1243T
1429.56	1.617	1437547	WORD	n/a	wordpools/wordpool_categorized_EN.txt	VIOLET	Flowers	8	7	[0, 0, 0]	n/a	catFR1	1	R1243T
1431.177	0.783	1439164	WORD_OFF	n/a	n/a	VIOLET	n/a	8	7	[0, 0, 0]	n/a	catFR1	1	R1243T
1431.96	1.617	1439947	WORD	n/a	wordpools/wordpool_categorized_EN.txt	SHEEP	FarmAnimals	9	7	[0, 0, 0]	n/a	catFR1	1	R1243T
1433.577	0.851	1441564	WORD_OFF	n/a	n/a	SHEEP	n/a	9	7	[0, 0, 0]	n/a	catFR1	1	R1243T
1434.428	1.617	1442415	WORD	n/a	wordpools/wordpool_categorized_EN.txt	TURKEY	FarmAnimals	10	7	[0, 0, 0]	n/a	catFR1	1	R1243T
1436.045	1.016	1444031	WORD_OFF	n/a	n/a	TURKEY	n/a	10	7	[0, 0, 0]	n/a	catFR1	1	R1243T
1437.061	1.616	1445047	WORD	n/a	wordpools/wordpool_categorized_EN.txt	SANDER	Tools	11	7	[0, 0, 0]	n/a	catFR1	1	R1243T
1438.677	0.902	1446663	WORD_OFF	n/a	n/a	SANDER	n/a	11	7	[0, 0, 0]	n/a	catFR1	1	R1243T
1439.579	1.617	1447565	WORD	n/a	wordpools/wordpool_categorized_EN.txt	RATCHET	Tools	12	7	[0, 0, 0]	n/a	catFR1	1	R1243T
1441.196	0.0	1449182	ENCODING_END	n/a	n/a	n/a	n/a	-999	7	[0, 0, 0]	n/a	catFR1	1	R1243T
1441.196	0.131	1449182	WORD_OFF	n/a	n/a	RATCHET	n/a	12	7	[0, 0, 0]	n/a	catFR1	1	R1243T
1441.327	0.0	1449313	DISTRACT_START	n/a	n/a	n/a	n/a	-999	7	[0, 0, 0]	n/a	catFR1	1	R1243T
1441.327	0.019	1449313	START	n/a	n/a	n/a	n/a	-999	7	[-999, -999, -999]	n/a	catFR1	1	R1243T
1441.346	5.284	1449332	PROB	5.284	n/a	n/a	n/a	-999	7	[4, 3, 3]	10	catFR1	1	R1243T
1446.63	3.651	1454616	PROB	3.651	n/a	n/a	n/a	-999	7	[6, 2, 4]	12	catFR1	1	R1243T
1450.281	7.168	1458267	PROB	7.168	n/a	n/a	n/a	-999	7	[9, 9, 4]	23	catFR1	1	R1243T
1457.449	8.037	1465434	PROB	8.037	n/a	n/a	n/a	-999	7	[4, 5, 4]	16	catFR1	1	R1243T
1465.486	0.014	1473471	STOP	n/a	n/a	n/a	n/a	-999	7	[-999, -999, -999]	n/a	catFR1	1	R1243T
1465.5	0.55	1473485	DISTRACT_END	n/a	n/a	n/a	n/a	-999	7	[0, 0, 0]	n/a	catFR1	1	R1243T
1466.05	0.518	1474035	RETRIEVAL_ORIENT	n/a	n/a	n/a	n/a	-999	7	[0, 0, 0]	n/a	catFR1	1	R1243T
1466.568	10.735	1474553	REC_START	n/a	n/a	n/a	n/a	-999	7	[0, 0, 0]	n/a	catFR1	1	R1243T
1477.303	8.313	1485287	REC_WORD	8.313	n/a	CROWBAR	Tools	6	7	[0, 0, 0]	n/a	catFR1	1	R1243T
1485.616	4.196	1493599	REC_WORD	4.196	n/a	DAISY	Flowers	1	7	[0, 0, 0]	n/a	catFR1	1	R1243T
1489.812	6.766	1497795	REC_WORD	6.766	n/a	HAMMER	Tools	5	7	[0, 0, 0]	n/a	catFR1	1	R1243T
1496.578	5.962	1504561	REC_END	n/a	n/a	n/a	n/a	-999	7	[0, 0, 0]	n/a	catFR1	1	R1243T
1502.54	0.5	1510522	TRIAL	n/a	n/a	n/a	n/a	-999	8	[0, 0, 0]	n/a	catFR1	1	R1243T
1503.04	10.428	1511022	COUNTDOWN_START	n/a	n/a	n/a	n/a	-999	8	[0, 0, 0]	n/a	catFR1	1	R1243T
1513.468	0.007	1521450	COUNTDOWN_END	n/a	n/a	n/a	n/a	-999	8	[0, 0, 0]	n/a	catFR1	1	R1243T
1513.475	1.617	1521457	ORIENT	n/a	n/a	n/a	n/a	-999	8	[0, 0, 0]	n/a	catFR1	1	R1243T
1515.092	2.117	1523074	ORIENT_OFF	n/a	n/a	n/a	n/a	-999	8	[0, 0, 0]	n/a	catFR1	1	R1243T
1517.209	1.617	1525191	WORD	n/a	wordpools/wordpool_categorized_EN.txt	DOLLHOUSE	Toys	1	8	[0, 0, 0]	n/a	catFR1	1	R1243T
1518.826	0.901	1526807	WORD_OFF	n/a	n/a	DOLLHOUSE	n/a	1	8	[0, 0, 0]	n/a	catFR1	1	R1243T
1519.727	1.616	1527708	WORD	n/a	wordpools/wordpool_categorized_EN.txt	MARBLES	Toys	2	8	[0, 0, 0]	n/a	catFR1	1	R1243T
1521.343	0.851	1529324	WORD_OFF	n/a	n/a	MARBLES	n/a	2	8	[0, 0, 0]	n/a	catFR1	1	R1243T
1522.194	1.617	1530175	WORD	n/a	wordpools/wordpool_categorized_EN.txt	BEACH	Landscapes	3	8	[0, 0, 0]	n/a	catFR1	1	R1243T
1523.811	0.9	1531792	WORD_OFF	n/a	n/a	BEACH	n/a	3	8	[0, 0, 0]	n/a	catFR1	1	R1243T
1524.711	1.617	1532692	WORD	n/a	wordpools/wordpool_categorized_EN.txt	RIVER	Landscapes	4	8	[0, 0, 0]	n/a	catFR1	1	R1243T
1526.328	0.783	1534309	WORD_OFF	n/a	n/a	RIVER	n/a	4	8	[0, 0, 0]	n/a	catFR1	1	R1243T
1527.111	1.617	1535092	WORD	n/a	wordpools/wordpool_categorized_EN.txt	WILLOW	Trees	5	8	[0, 0, 0]	n/a	catFR1	1	R1243T
1528.728	0.784	1536709	WORD_OFF	n/a	n/a	WILLOW	n/a	5	8	[0, 0, 0]	n/a	catFR1	1	R1243T
1529.512	1.617	1537493	WORD	n/a	wordpools/wordpool_categorized_EN.txt	PINE	Trees	6	8	[0, 0, 0]	n/a	catFR1	1	R1243T
1531.129	0.866	1539110	WORD_OFF	n/a	n/a	PINE	n/a	6	8	[0, 0, 0]	n/a	catFR1	1	R1243T
1531.995	1.617	1539976	WORD	n/a	wordpools/wordpool_categorized_EN.txt	STREAM	Landscapes	7	8	[0, 0, 0]	n/a	catFR1	1	R1243T
1533.612	0.851	1541593	WORD_OFF	n/a	n/a	STREAM	n/a	7	8	[0, 0, 0]	n/a	catFR1	1	R1243T
1534.463	1.616	1542443	WORD	n/a	wordpools/wordpool_categorized_EN.txt	ISLAND	Landscapes	8	8	[0, 0, 0]	n/a	catFR1	1	R1243T
1536.079	0.884	1544059	WORD_OFF	n/a	n/a	ISLAND	n/a	8	8	[0, 0, 0]	n/a	catFR1	1	R1243T
1536.963	1.617	1544943	WORD	n/a	wordpools/wordpool_categorized_EN.txt	BASKETBALL	Toys	9	8	[0, 0, 0]	n/a	catFR1	1	R1243T
1538.58	0.817	1546560	WORD_OFF	n/a	n/a	BASKETBALL	n/a	9	8	[0, 0, 0]	n/a	catFR1	1	R1243T
1539.397	1.617	1547377	WORD	n/a	wordpools/wordpool_categorized_EN.txt	PUZZLE	Toys	10	8	[0, 0, 0]	n/a	catFR1	1	R1243T
1541.014	0.85	1548994	WORD_OFF	n/a	n/a	PUZZLE	n/a	10	8	[0, 0, 0]	n/a	catFR1	1	R1243T
1541.864	1.617	1549844	WORD	n/a	wordpools/wordpool_categorized_EN.txt	MAPLE	Trees	11	8	[0, 0, 0]	n/a	catFR1	1	R1243T
1543.481	0.95	1551461	WORD_OFF	n/a	n/a	MAPLE	n/a	11	8	[0, 0, 0]	n/a	catFR1	1	R1243T
1544.431	1.617	1552411	WORD	n/a	wordpools/wordpool_categorized_EN.txt	CEDAR	Trees	12	8	[0, 0, 0]	n/a	catFR1	1	R1243T
1546.048	0.0	1554028	ENCODING_END	n/a	n/a	n/a	n/a	-999	8	[0, 0, 0]	n/a	catFR1	1	R1243T
1546.048	0.106	1554028	WORD_OFF	n/a	n/a	CEDAR	n/a	12	8	[0, 0, 0]	n/a	catFR1	1	R1243T
1546.154	0.0	1554134	DISTRACT_START	n/a	n/a	n/a	n/a	-999	8	[0, 0, 0]	n/a	catFR1	1	R1243T
1546.154	0.011	1554134	START	n/a	n/a	n/a	n/a	-999	8	[-999, -999, -999]	n/a	catFR1	1	R1243T
1546.165	6.851	1554145	PROB	6.851	n/a	n/a	n/a	-999	8	[5, 8, 1]	14	catFR1	1	R1243T
1553.016	5.217	1560995	PROB	5.217	n/a	n/a	n/a	-999	8	[2, 5, 6]	13	catFR1	1	R1243T
1558.233	3.751	1566212	PROB	3.751	n/a	n/a	n/a	-999	8	[3, 3, 8]	14	catFR1	1	R1243T
1561.984	5.078	1569963	PROB	5.078	n/a	n/a	n/a	-999	8	[4, 3, 9]	16	catFR1	1	R1243T
1567.062	0.006	1575041	STOP	n/a	n/a	n/a	n/a	-999	8	[-999, -999, -999]	n/a	catFR1	1	R1243T
1567.068	0.651	1575047	DISTRACT_END	n/a	n/a	n/a	n/a	-999	8	[0, 0, 0]	n/a	catFR1	1	R1243T
1567.719	0.517	1575697	RETRIEVAL_ORIENT	n/a	n/a	n/a	n/a	-999	8	[0, 0, 0]	n/a	catFR1	1	R1243T
1568.236	3.747	1576214	REC_START	n/a	n/a	n/a	n/a	-999	8	[0, 0, 0]	n/a	catFR1	1	R1243T
1571.983	1.296	1579961	REC_WORD	1.296	n/a	BEACH	Landscapes	3	8	[0, 0, 0]	n/a	catFR1	1	R1243T
1573.279	2.509	1581257	REC_WORD	2.509	n/a	RIVER	Landscapes	4	8	[0, 0, 0]	n/a	catFR1	1	R1243T
1575.788	16.526	1583766	REC_WORD	16.526	n/a	DOLLHOUSE	Toys	1	8	[0, 0, 0]	n/a	catFR1	1	R1243T
1592.314	5.932	1600291	REC_WORD	5.932	n/a	WATER	n/a	-999	8	[0, 0, 0]	n/a	catFR1	1	R1243T
1598.246	76.042	1606223	REC_END	n/a	n/a	n/a	n/a	-999	8	[0, 0, 0]	n/a	catFR1	1	R1243T
1674.288	0.5	1682260	TRIAL	n/a	n/a	n/a	n/a	-999	9	[0, 0, 0]	n/a	catFR1	1	R1243T
1674.788	10.428	1682760	COUNTDOWN_START	n/a	n/a	n/a	n/a	-999	9	[0, 0, 0]	n/a	catFR1	1	R1243T
1685.216	0.007	1693187	COUNTDOWN_END	n/a	n/a	n/a	n/a	-999	9	[0, 0, 0]	n/a	catFR1	1	R1243T
1685.223	1.617	1693194	ORIENT	n/a	n/a	n/a	n/a	-999	9	[0, 0, 0]	n/a	catFR1	1	R1243T
1686.84	2.084	1694811	ORIENT_OFF	n/a	n/a	n/a	n/a	-999	9	[0, 0, 0]	n/a	catFR1	1	R1243T
1688.924	1.617	1696895	WORD	n/a	wordpools/wordpool_categorized_EN.txt	DOVE	Birds	1	9	[0, 0, 0]	n/a	catFR1	1	R1243T
1690.541	0.9	1698512	WORD_OFF	n/a	n/a	DOVE	n/a	1	9	[0, 0, 0]	n/a	catFR1	1	R1243T
1691.441	1.617	1699412	WORD	n/a	wordpools/wordpool_categorized_EN.txt	HAWK	Birds	2	9	[0, 0, 0]	n/a	catFR1	1	R1243T
1693.058	0.884	1701029	WORD_OFF	n/a	n/a	HAWK	n/a	2	9	[0, 0, 0]	n/a	catFR1	1	R1243T
1693.942	1.617	1701913	WORD	n/a	wordpools/wordpool_categorized_EN.txt	CAULIFLOWER	Vegetables	3	9	[0, 0, 0]	n/a	catFR1	1	R1243T
1695.559	0.8	1703530	WORD_OFF	n/a	n/a	CAULIFLOWER	n/a	3	9	[0, 0, 0]	n/a	catFR1	1	R1243T
1696.359	1.617	1704330	WORD	n/a	wordpools/wordpool_categorized_EN.txt	LETTUCE	Vegetables	4	9	[0, 0, 0]	n/a	catFR1	1	R1243T
1697.976	0.917	1705947	WORD_OFF	n/a	n/a	LETTUCE	n/a	4	9	[0, 0, 0]	n/a	catFR1	1	R1243T
1698.893	1.616	1706864	WORD	n/a	wordpools/wordpool_categorized_EN.txt	CARNATION	Flowers	5	9	[0, 0, 0]	n/a	catFR1	1	R1243T
1700.509	0.851	1708479	WORD_OFF	n/a	n/a	CARNATION	n/a	5	9	[0, 0, 0]	n/a	catFR1	1	R1243T
1701.36	1.617	1709330	WORD	n/a	wordpools/wordpool_categorized_EN.txt	LILAC	Flowers	6	9	[0, 0, 0]	n/a	catFR1	1	R1243T
1702.977	0.933	1710947	WORD_OFF	n/a	n/a	LILAC	n/a	6	9	[0, 0, 0]	n/a	catFR1	1	R1243T
1703.91	1.617	1711880	WORD	n/a	wordpools/wordpool_categorized_EN.txt	POTATO	Vegetables	7	9	[0, 0, 0]	n/a	catFR1	1	R1243T
1705.527	0.834	1713497	WORD_OFF	n/a	n/a	POTATO	n/a	7	9	[0, 0, 0]	n/a	catFR1	1	R1243T
1706.361	1.616	1714331	WORD	n/a	wordpools/wordpool_categorized_EN.txt	SPINACH	Vegetables	8	9	[0, 0, 0]	n/a	catFR1	1	R1243T
1707.977	0.784	1715947	WORD_OFF	n/a	n/a	SPINACH	n/a	8	9	[0, 0, 0]	n/a	catFR1	1	R1243T
1708.761	1.617	1716731	WORD	n/a	wordpools/wordpool_categorized_EN.txt	BLUEBIRD	Birds	9	9	[0, 0, 0]	n/a	catFR1	1	R1243T
1710.378	0.9	1718348	WORD_OFF	n/a	n/a	BLUEBIRD	n/a	9	9	[0, 0, 0]	n/a	catFR1	1	R1243T
1711.278	1.617	1719248	WORD	n/a	wordpools/wordpool_categorized_EN.txt	CARDINAL	Birds	10	9	[0, 0, 0]	n/a	catFR1	1	R1243T
1712.895	0.967	1720865	WORD_OFF	n/a	n/a	CARDINAL	n/a	10	9	[0, 0, 0]	n/a	catFR1	1	R1243T
1713.862	1.617	1721832	WORD	n/a	wordpools/wordpool_categorized_EN.txt	LILY	Flowers	11	9	[0, 0, 0]	n/a	catFR1	1	R1243T
1715.479	0.967	1723449	WORD_OFF	n/a	n/a	LILY	n/a	11	9	[0, 0, 0]	n/a	catFR1	1	R1243T
1716.446	1.617	1724415	WORD	n/a	wordpools/wordpool_categorized_EN.txt	ROSE	Flowers	12	9	[0, 0, 0]	n/a	catFR1	1	R1243T
1718.063	0.0	1726032	ENCODING_END	n/a	n/a	n/a	n/a	-999	9	[0, 0, 0]	n/a	catFR1	1	R1243T
1718.063	0.132	1726032	WORD_OFF	n/a	n/a	ROSE	n/a	12	9	[0, 0, 0]	n/a	catFR1	1	R1243T
1718.195	0.0	1726164	DISTRACT_START	n/a	n/a	n/a	n/a	-999	9	[0, 0, 0]	n/a	catFR1	1	R1243T
1718.195	0.018	1726164	START	n/a	n/a	n/a	n/a	-999	9	[-999, -999, -999]	n/a	catFR1	1	R1243T
1718.213	8.351	1726182	PROB	8.351	n/a	n/a	n/a	-999	9	[3, 8, 7]	18	catFR1	1	R1243T
1726.564	5.835	1734533	PROB	5.835	n/a	n/a	n/a	-999	9	[5, 3, 1]	9	catFR1	1	R1243T
1732.399	4.35	1740368	PROB	4.35	n/a	n/a	n/a	-999	9	[6, 6, 4]	16	catFR1	1	R1243T
1736.749	6.609	1744717	PROB	6.609	n/a	n/a	n/a	-999	9	[7, 6, 8]	21	catFR1	1	R1243T
1743.358	0.009	1751326	STOP	n/a	n/a	n/a	n/a	-999	9	[-999, -999, -999]	n/a	catFR1	1	R1243T
1743.367	0.667	1751335	DISTRACT_END	n/a	n/a	n/a	n/a	-999	9	[0, 0, 0]	n/a	catFR1	1	R1243T
1744.034	0.517	1752002	RETRIEVAL_ORIENT	n/a	n/a	n/a	n/a	-999	9	[0, 0, 0]	n/a	catFR1	1	R1243T
1744.551	7.699	1752519	REC_START	n/a	n/a	n/a	n/a	-999	9	[0, 0, 0]	n/a	catFR1	1	R1243T
1752.25	1.406	1760217	REC_WORD	1.406	n/a	DOVE	Birds	1	9	[0, 0, 0]	n/a	catFR1	1	R1243T
1753.656	2.864	1761623	REC_WORD	2.864	n/a	HAWK	Birds	2	9	[0, 0, 0]	n/a	catFR1	1	R1243T
1756.52	18.042	1764487	REC_WORD	18.042	n/a	CAULIFLOWER	Vegetables	3	9	[0, 0, 0]	n/a	catFR1	1	R1243T
1774.562	5.111	1782528	REC_END	n/a	n/a	n/a	n/a	-999	9	[0, 0, 0]	n/a	catFR1	1	R1243T
1779.673	0.5	1787639	TRIAL	n/a	n/a	n/a	n/a	-999	10	[0, 0, 0]	n/a	catFR1	1	R1243T
1780.173	10.428	1788139	COUNTDOWN_START	n/a	n/a	n/a	n/a	-999	10	[0, 0, 0]	n/a	catFR1	1	R1243T
1790.601	0.008	1798566	COUNTDOWN_END	n/a	n/a	n/a	n/a	-999	10	[0, 0, 0]	n/a	catFR1	1	R1243T
1790.609	1.617	1798574	ORIENT	n/a	n/a	n/a	n/a	-999	10	[0, 0, 0]	n/a	catFR1	1	R1243T
1792.226	2.101	1800191	ORIENT_OFF	n/a	n/a	n/a	n/a	-999	10	[0, 0, 0]	n/a	catFR1	1	R1243T
1794.327	1.616	1802292	WORD	n/a	wordpools/wordpool_categorized_EN.txt	CORKSCREW	KitchenTools	1	10	[0, 0, 0]	n/a	catFR1	1	R1243T
1795.943	0.817	1803908	WORD_OFF	n/a	n/a	CORKSCREW	n/a	1	10	[0, 0, 0]	n/a	catFR1	1	R1243T
1796.76	1.617	1804725	WORD	n/a	wordpools/wordpool_categorized_EN.txt	WHISK	KitchenTools	2	10	[0, 0, 0]	n/a	catFR1	1	R1243T
1798.377	0.784	1806342	WORD_OFF	n/a	n/a	WHISK	n/a	2	10	[0, 0, 0]	n/a	catFR1	1	R1243T
1799.161	1.617	1807125	WORD	n/a	wordpools/wordpool_categorized_EN.txt	RADIO	Electronics	3	10	[0, 0, 0]	n/a	catFR1	1	R1243T
1800.778	0.899	1808742	WORD_OFF	n/a	n/a	RADIO	n/a	3	10	[0, 0, 0]	n/a	catFR1	1	R1243T
1801.677	1.601	1809641	WORD	n/a	wordpools/wordpool_categorized_EN.txt	TABLET	Electronics	4	10	[0, 0, 0]	n/a	catFR1	1	R1243T
1803.278	0.934	1811242	WORD_OFF	n/a	n/a	TABLET	n/a	4	10	[0, 0, 0]	n/a	catFR1	1	R1243T
1804.212	1.617	1812176	WORD	n/a	wordpools/wordpool_categorized_EN.txt	DOLPHIN	OceanAnimals	5	10	[0, 0, 0]	n/a	catFR1	1	R1243T
1805.829	0.917	1813793	WORD_OFF	n/a	n/a	DOLPHIN	n/a	5	10	[0, 0, 0]	n/a	catFR1	1	R1243T
1806.746	1.616	1814710	WORD	n/a	wordpools/wordpool_categorized_EN.txt	OCTOPUS	OceanAnimals	6	10	[0, 0, 0]	n/a	catFR1	1	R1243T
1808.362	0.917	1816326	WORD_OFF	n/a	n/a	OCTOPUS	n/a	6	10	[0, 0, 0]	n/a	catFR1	1	R1243T
1809.279	1.617	1817243	WORD	n/a	wordpools/wordpool_categorized_EN.txt	SPATULA	KitchenTools	7	10	[0, 0, 0]	n/a	catFR1	1	R1243T
1810.896	0.799	1818860	WORD_OFF	n/a	n/a	SPATULA	n/a	7	10	[0, 0, 0]	n/a	catFR1	1	R1243T
1811.695	1.602	1819659	WORD	n/a	wordpools/wordpool_categorized_EN.txt	FORK	KitchenTools	8	10	[0, 0, 0]	n/a	catFR1	1	R1243T
1813.297	0.833	1821261	WORD_OFF	n/a	n/a	FORK	n/a	8	10	[0, 0, 0]	n/a	catFR1	1	R1243T
1814.13	1.617	1822094	WORD	n/a	wordpools/wordpool_categorized_EN.txt	TELEVISION	Electronics	9	10	[0, 0, 0]	n/a	catFR1	1	R1243T
1815.747	0.817	1823710	WORD_OFF	n/a	n/a	TELEVISION	n/a	9	10	[0, 0, 0]	n/a	catFR1	1	R1243T
1816.564	1.617	1824527	WORD	n/a	wordpools/wordpool_categorized_EN.txt	SCANNER	Electronics	10	10	[0, 0, 0]	n/a	catFR1	1	R1243T
1818.181	0.983	1826144	WORD_OFF	n/a	n/a	SCANNER	n/a	10	10	[0, 0, 0]	n/a	catFR1	1	R1243T
1819.164	1.617	1827127	WORD	n/a	wordpools/wordpool_categorized_EN.txt	FISH	OceanAnimals	11	10	[0, 0, 0]	n/a	catFR1	1	R1243T
1820.781	0.916	1828744	WORD_OFF	n/a	n/a	FISH	n/a	11	10	[0, 0, 0]	n/a	catFR1	1	R1243T
1821.697	1.601	1829660	WORD	n/a	wordpools/wordpool_categorized_EN.txt	PLANKTON	OceanAnimals	12	10	[0, 0, 0]	n/a	catFR1	1	R1243T
1823.298	0.0	1831261	ENCODING_END	n/a	n/a	n/a	n/a	-999	10	[0, 0, 0]	n/a	catFR1	1	R1243T
1823.298	0.106	1831261	WORD_OFF	n/a	n/a	PLANKTON	n/a	12	10	[0, 0, 0]	n/a	catFR1	1	R1243T
1823.404	0.0	1831367	DISTRACT_START	n/a	n/a	n/a	n/a	-999	10	[0, 0, 0]	n/a	catFR1	1	R1243T
1823.404	0.011	1831367	START	n/a	n/a	n/a	n/a	-999	10	[-999, -999, -999]	n/a	catFR1	1	R1243T
1823.415	8.102	1831378	PROB	8.102	n/a	n/a	n/a	-999	10	[6, 5, 2]	13	catFR1	1	R1243T
1831.517	4.967	1839480	PROB	4.967	n/a	n/a	n/a	-999	10	[1, 4, 9]	14	catFR1	1	R1243T
1836.484	8.53	1844446	PROB	8.53	n/a	n/a	n/a	-999	10	[4, 4, 7]	15	catFR1	1	R1243T
1845.014	0.022	1852976	STOP	n/a	n/a	n/a	n/a	-999	10	[-999, -999, -999]	n/a	catFR1	1	R1243T
1845.036	0.583	1852998	DISTRACT_END	n/a	n/a	n/a	n/a	-999	10	[0, 0, 0]	n/a	catFR1	1	R1243T
1845.619	0.518	1853581	RETRIEVAL_ORIENT	n/a	n/a	n/a	n/a	-999	10	[0, 0, 0]	n/a	catFR1	1	R1243T
1846.137	2.028	1854099	REC_START	n/a	n/a	n/a	n/a	-999	10	[0, 0, 0]	n/a	catFR1	1	R1243T
1848.165	6.279	1856127	REC_WORD	6.279	n/a	PLANKTON	OceanAnimals	12	10	[0, 0, 0]	n/a	catFR1	1	R1243T
1854.444	6.782	1862405	REC_WORD	6.782	n/a	OCEAN	n/a	-999	10	[0, 0, 0]	n/a	catFR1	1	R1243T
1861.226	4.458	1869187	REC_WORD	4.458	n/a	LUMBER	n/a	-999	10	[0, 0, 0]	n/a	catFR1	1	R1243T
1865.684	7.503	1873644	REC_WORD	7.503	n/a	TREES	n/a	-999	10	[0, 0, 0]	n/a	catFR1	1	R1243T
1873.187	1.687	1881147	REC_WORD	1.687	n/a	MOUNTAIN	n/a	-999	10	[0, 0, 0]	n/a	catFR1	1	R1243T
1874.874	0.34	1882834	REC_WORD_VV	0.34	n/a	<>	n/a	-999	10	[0, 0, 0]	n/a	catFR1	1	R1243T
1875.214	0.933	1883174	REC_WORD	0.933	n/a	MOUNTAIN	n/a	-999	10	[0, 0, 0]	n/a	catFR1	1	R1243T
1876.147	5.896	1884107	REC_END	n/a	n/a	n/a	n/a	-999	10	[0, 0, 0]	n/a	catFR1	1	R1243T
1882.043	0.5	1890002	TRIAL	n/a	n/a	n/a	n/a	-999	11	[0, 0, 0]	n/a	catFR1	1	R1243T
1882.543	10.428	1890502	COUNTDOWN_START	n/a	n/a	n/a	n/a	-999	11	[0, 0, 0]	n/a	catFR1	1	R1243T
1892.971	0.007	1900930	COUNTDOWN_END	n/a	n/a	n/a	n/a	-999	11	[0, 0, 0]	n/a	catFR1	1	R1243T
1892.978	1.617	1900937	ORIENT	n/a	n/a	n/a	n/a	-999	11	[0, 0, 0]	n/a	catFR1	1	R1243T
1894.595	2.234	1902554	ORIENT_OFF	n/a	n/a	n/a	n/a	-999	11	[0, 0, 0]	n/a	catFR1	1	R1243T
1896.829	1.617	1904788	WORD	n/a	wordpools/wordpool_categorized_EN.txt	BULL	FarmAnimals	1	11	[0, 0, 0]	n/a	catFR1	1	R1243T
1898.446	0.766	1906405	WORD_OFF	n/a	n/a	BULL	n/a	1	11	[0, 0, 0]	n/a	catFR1	1	R1243T
1899.212	1.617	1907170	WORD	n/a	wordpools/wordpool_categorized_EN.txt	LAMB	FarmAnimals	2	11	[0, 0, 0]	n/a	catFR1	1	R1243T
1900.829	0.917	1908787	WORD_OFF	n/a	n/a	LAMB	n/a	2	11	[0, 0, 0]	n/a	catFR1	1	R1243T
1901.746	1.617	1909704	WORD	n/a	wordpools/wordpool_categorized_EN.txt	PRINTER	Electronics	3	11	[0, 0, 0]	n/a	catFR1	1	R1243T
1903.363	1.0	1911321	WORD_OFF	n/a	n/a	PRINTER	n/a	3	11	[0, 0, 0]	n/a	catFR1	1	R1243T
1904.363	1.617	1912321	WORD	n/a	wordpools/wordpool_categorized_EN.txt	CALCULATOR	Electronics	4	11	[0, 0, 0]	n/a	catFR1	1	R1243T
1905.98	0.867	1913938	WORD_OFF	n/a	n/a	CALCULATOR	n/a	4	11	[0, 0, 0]	n/a	catFR1	1	R1243T
1906.847	1.617	1914805	WORD	n/a	wordpools/wordpool_categorized_EN.txt	LEMONADE	Beverages	5	11	[0, 0, 0]	n/a	catFR1	1	R1243T
1908.464	0.85	1916422	WORD_OFF	n/a	n/a	LEMONADE	n/a	5	11	[0, 0, 0]	n/a	catFR1	1	R1243T
1909.314	1.617	1917272	WORD	n/a	wordpools/wordpool_categorized_EN.txt	SODA	Beverages	6	11	[0, 0, 0]	n/a	catFR1	1	R1243T
1910.931	0.934	1918889	WORD_OFF	n/a	n/a	SODA	n/a	6	11	[0, 0, 0]	n/a	catFR1	1	R1243T
1911.865	1.617	1919823	WORD	n/a	wordpools/wordpool_categorized_EN.txt	PHONE	Electronics	7	11	[0, 0, 0]	n/a	catFR1	1	R1243T
1913.482	0.816	1921440	WORD_OFF	n/a	n/a	PHONE	n/a	7	11	[0, 0, 0]	n/a	catFR1	1	R1243T
1914.298	1.617	1922256	WORD	n/a	wordpools/wordpool_categorized_EN.txt	HEADPHONES	Electronics	8	11	[0, 0, 0]	n/a	catFR1	1	R1243T
1915.915	0.867	1923872	WORD_OFF	n/a	n/a	HEADPHONES	n/a	8	11	[0, 0, 0]	n/a	catFR1	1	R1243T
1916.782	1.617	1924739	WORD	n/a	wordpools/wordpool_categorized_EN.txt	ROOSTER	FarmAnimals	9	11	[0, 0, 0]	n/a	catFR1	1	R1243T
1918.399	0.784	1926356	WORD_OFF	n/a	n/a	ROOSTER	n/a	9	11	[0, 0, 0]	n/a	catFR1	1	R1243T
1919.183	1.617	1927140	WORD	n/a	wordpools/wordpool_categorized_EN.txt	HEN	FarmAnimals	10	11	[0, 0, 0]	n/a	catFR1	1	R1243T
1920.8	0.983	1928757	WORD_OFF	n/a	n/a	HEN	n/a	10	11	[0, 0, 0]	n/a	catFR1	1	R1243T
1921.783	1.617	1929740	WORD	n/a	wordpools/wordpool_categorized_EN.txt	CIDER	Beverages	11	11	[0, 0, 0]	n/a	catFR1	1	R1243T
1923.4	1.0	1931357	WORD_OFF	n/a	n/a	CIDER	n/a	11	11	[0, 0, 0]	n/a	catFR1	1	R1243T
1924.4	1.617	1932357	WORD	n/a	wordpools/wordpool_categorized_EN.txt	RUM	Beverages	12	11	[0, 0, 0]	n/a	catFR1	1	R1243T
1926.017	0.0	1933974	ENCODING_END	n/a	n/a	n/a	n/a	-999	11	[0, 0, 0]	n/a	catFR1	1	R1243T
1926.017	0.104	1933974	WORD_OFF	n/a	n/a	RUM	n/a	12	11	[0, 0, 0]	n/a	catFR1	1	R1243T
1926.121	0.0	1934078	DISTRACT_START	n/a	n/a	n/a	n/a	-999	11	[0, 0, 0]	n/a	catFR1	1	R1243T
1926.121	0.013	1934078	START	n/a	n/a	n/a	n/a	-999	11	[-999, -999, -999]	n/a	catFR1	1	R1243T
1926.134	13.336	1934091	PROB	13.336	n/a	n/a	n/a	-999	11	[7, 4, 9]	20	catFR1	1	R1243T
1939.47	3.334	1947426	PROB	3.334	n/a	n/a	n/a	-999	11	[8, 2, 5]	15	catFR1	1	R1243T
1942.804	8.09	1950760	PROB	8.09	n/a	n/a	n/a	-999	11	[8, 8, 6]	24	catFR1	1	R1243T
1950.894	0.011	1958849	STOP	n/a	n/a	n/a	n/a	-999	11	[-999, -999, -999]	n/a	catFR1	1	R1243T
1950.905	0.7	1958860	DISTRACT_END	n/a	n/a	n/a	n/a	-999	11	[0, 0, 0]	n/a	catFR1	1	R1243T
1951.605	0.518	1959560	RETRIEVAL_ORIENT	n/a	n/a	n/a	n/a	-999	11	[0, 0, 0]	n/a	catFR1	1	R1243T
1952.123	8.433	1960078	REC_START	n/a	n/a	n/a	n/a	-999	11	[0, 0, 0]	n/a	catFR1	1	R1243T
1960.556	0.776	1968511	REC_WORD	0.776	n/a	RUM	Beverages	12	11	[0, 0, 0]	n/a	catFR1	1	R1243T
1961.332	20.8	1969287	REC_WORD	20.8	n/a	CIDER	Beverages	11	11	[0, 0, 0]	n/a	catFR1	1	R1243T
1982.132	5.63	1990085	REC_END	n/a	n/a	n/a	n/a	-999	11	[0, 0, 0]	n/a	catFR1	1	R1243T
1987.762	0.5	1995715	TRIAL	n/a	n/a	n/a	n/a	-999	12	[0, 0, 0]	n/a	catFR1	1	R1243T
1988.262	10.428	1996215	COUNTDOWN_START	n/a	n/a	n/a	n/a	-999	12	[0, 0, 0]	n/a	catFR1	1	R1243T
1998.69	0.006	2006642	COUNTDOWN_END	n/a	n/a	n/a	n/a	-999	12	[0, 0, 0]	n/a	catFR1	1	R1243T
1998.696	1.618	2006648	ORIENT	n/a	n/a	n/a	n/a	-999	12	[0, 0, 0]	n/a	catFR1	1	R1243T
2000.314	1.867	2008266	ORIENT_OFF	n/a	n/a	n/a	n/a	-999	12	[0, 0, 0]	n/a	catFR1	1	R1243T
2002.181	1.617	2010133	WORD	n/a	wordpools/wordpool_categorized_EN.txt	CUPCAKE	Desserts	1	12	[0, 0, 0]	n/a	catFR1	1	R1243T
2003.798	0.95	2011750	WORD_OFF	n/a	n/a	CUPCAKE	n/a	1	12	[0, 0, 0]	n/a	catFR1	1	R1243T
2004.748	1.617	2012700	WORD	n/a	wordpools/wordpool_categorized_EN.txt	COBBLER	Desserts	2	12	[0, 0, 0]	n/a	catFR1	1	R1243T
2006.365	1.017	2014317	WORD_OFF	n/a	n/a	COBBLER	n/a	2	12	[0, 0, 0]	n/a	catFR1	1	R1243T
2007.382	1.617	2015334	WORD	n/a	wordpools/wordpool_categorized_EN.txt	SPARROW	Birds	3	12	[0, 0, 0]	n/a	catFR1	1	R1243T
2008.999	0.934	2016951	WORD_OFF	n/a	n/a	SPARROW	n/a	3	12	[0, 0, 0]	n/a	catFR1	1	R1243T
2009.933	1.617	2017885	WORD	n/a	wordpools/wordpool_categorized_EN.txt	FINCH	Birds	4	12	[0, 0, 0]	n/a	catFR1	1	R1243T
2011.55	0.9	2019502	WORD_OFF	n/a	n/a	FINCH	n/a	4	12	[0, 0, 0]	n/a	catFR1	1	R1243T
2012.45	1.617	2020402	WORD	n/a	wordpools/wordpool_categorized_EN.txt	IRON	Appliances	5	12	[0, 0, 0]	n/a	catFR1	1	R1243T
2014.067	0.9	2022019	WORD_OFF	n/a	n/a	IRON	n/a	5	12	[0, 0, 0]	n/a	catFR1	1	R1243T
2014.967	1.617	2022918	WORD	n/a	wordpools/wordpool_categorized_EN.txt	WASHER	Appliances	6	12	[0, 0, 0]	n/a	catFR1	1	R1243T
2016.584	0.967	2024535	WORD_OFF	n/a	n/a	WASHER	n/a	6	12	[0, 0, 0]	n/a	catFR1	1	R1243T
2017.551	1.617	2025502	WORD	n/a	wordpools/wordpool_categorized_EN.txt	PIGEON	Birds	7	12	[0, 0, 0]	n/a	catFR1	1	R1243T
2019.168	0.866	2027119	WORD_OFF	n/a	n/a	PIGEON	n/a	7	12	[0, 0, 0]	n/a	catFR1	1	R1243T
2020.034	1.616	2027985	WORD	n/a	wordpools/wordpool_categorized_EN.txt	DUCK	Birds	8	12	[0, 0, 0]	n/a	catFR1	1	R1243T
2021.65	0.985	2029601	WORD_OFF	n/a	n/a	DUCK	n/a	8	12	[0, 0, 0]	n/a	catFR1	1	R1243T
2022.635	1.617	2030586	WORD	n/a	wordpools/wordpool_categorized_EN.txt	JELLO	Desserts	9	12	[0, 0, 0]	n/a	catFR1	1	R1243T
2024.252	0.85	2032203	WORD_OFF	n/a	n/a	JELLO	n/a	9	12	[0, 0, 0]	n/a	catFR1	1	R1243T
2025.102	1.617	2033053	WORD	n/a	wordpools/wordpool_categorized_EN.txt	PIE	Desserts	10	12	[0, 0, 0]	n/a	catFR1	1	R1243T
2026.719	1.0	2034670	WORD_OFF	n/a	n/a	PIE	n/a	10	12	[0, 0, 0]	n/a	catFR1	1	R1243T
2027.719	1.617	2035670	WORD	n/a	wordpools/wordpool_categorized_EN.txt	MIXER	Appliances	11	12	[0, 0, 0]	n/a	catFR1	1	R1243T
2029.336	0.784	2037287	WORD_OFF	n/a	n/a	MIXER	n/a	11	12	[0, 0, 0]	n/a	catFR1	1	R1243T
2030.12	1.617	2038071	WORD	n/a	wordpools/wordpool_categorized_EN.txt	DISHWASHER	Appliances	12	12	[0, 0, 0]	n/a	catFR1	1	R1243T
2031.737	0.0	2039687	ENCODING_END	n/a	n/a	n/a	n/a	-999	12	[0, 0, 0]	n/a	catFR1	1	R1243T
2031.737	0.139	2039687	WORD_OFF	n/a	n/a	DISHWASHER	n/a	12	12	[0, 0, 0]	n/a	catFR1	1	R1243T
2031.876	0.0	2039826	DISTRACT_START	n/a	n/a	n/a	n/a	-999	12	[0, 0, 0]	n/a	catFR1	1	R1243T
2031.876	0.011	2039826	START	n/a	n/a	n/a	n/a	-999	12	[-999, -999, -999]	n/a	catFR1	1	R1243T
2031.887	6.134	2039837	PROB	6.134	n/a	n/a	n/a	-999	12	[1, 7, 7]	15	catFR1	1	R1243T
2038.021	3.751	2045971	PROB	3.751	n/a	n/a	n/a	-999	12	[3, 1, 7]	11	catFR1	1	R1243T
2041.772	4.883	2049722	PROB	4.883	n/a	n/a	n/a	-999	12	[4, 6, 6]	16	catFR1	1	R1243T
2046.655	7.527	2054605	PROB	7.527	n/a	n/a	n/a	-999	12	[7, 5, 3]	15	catFR1	1	R1243T
2054.182	0.009	2062131	STOP	n/a	n/a	n/a	n/a	-999	12	[-999, -999, -999]	n/a	catFR1	1	R1243T
2054.191	0.666	2062140	DISTRACT_END	n/a	n/a	n/a	n/a	-999	12	[0, 0, 0]	n/a	catFR1	1	R1243T
2054.857	0.518	2062806	RETRIEVAL_ORIENT	n/a	n/a	n/a	n/a	-999	12	[0, 0, 0]	n/a	catFR1	1	R1243T
2055.375	5.34	2063324	REC_START	n/a	n/a	n/a	n/a	-999	12	[0, 0, 0]	n/a	catFR1	1	R1243T
2060.715	0.629	2068664	REC_WORD	0.629	n/a	JELLO	Desserts	9	12	[0, 0, 0]	n/a	catFR1	1	R1243T
2061.344	10.108	2069293	REC_WORD	10.108	n/a	CUPCAKE	Desserts	1	12	[0, 0, 0]	n/a	catFR1	1	R1243T
2071.452	1.625	2079400	REC_WORD	1.625	n/a	PRINTER	n/a	-999	12	[0, 0, 0]	n/a	catFR1	1	R1243T
2073.077	12.309	2081025	REC_WORD	12.309	n/a	COMPUTER	n/a	-999	12	[0, 0, 0]	n/a	catFR1	1	R1243T
2085.386	13.896	2093333	REC_END	n/a	n/a	n/a	n/a	-999	12	[0, 0, 0]	n/a	catFR1	1	R1243T
2099.282	0.5	2107228	TRIAL	n/a	n/a	n/a	n/a	-999	13	[0, 0, 0]	n/a	catFR1	1	R1243T
2099.782	10.428	2107728	COUNTDOWN_START	n/a	n/a	n/a	n/a	-999	13	[0, 0, 0]	n/a	catFR1	1	R1243T
2110.21	0.007	2118156	COUNTDOWN_END	n/a	n/a	n/a	n/a	-999	13	[0, 0, 0]	n/a	catFR1	1	R1243T
2110.217	1.617	2118163	ORIENT	n/a	n/a	n/a	n/a	-999	13	[0, 0, 0]	n/a	catFR1	1	R1243T
2111.834	1.968	2119780	ORIENT_OFF	n/a	n/a	n/a	n/a	-999	13	[0, 0, 0]	n/a	catFR1	1	R1243T
2113.802	1.616	2121748	WORD	n/a	wordpools/wordpool_categorized_EN.txt	DOOR	Building	1	13	[0, 0, 0]	n/a	catFR1	1	R1243T
2115.418	0.867	2123363	WORD_OFF	n/a	n/a	DOOR	n/a	1	13	[0, 0, 0]	n/a	catFR1	1	R1243T
2116.285	1.617	2124230	WORD	n/a	wordpools/wordpool_categorized_EN.txt	ATTIC	Building	2	13	[0, 0, 0]	n/a	catFR1	1	R1243T
2117.902	0.967	2125847	WORD_OFF	n/a	n/a	ATTIC	n/a	2	13	[0, 0, 0]	n/a	catFR1	1	R1243T
2118.869	1.617	2126814	WORD	n/a	wordpools/wordpool_categorized_EN.txt	FOOT	BodyParts	3	13	[0, 0, 0]	n/a	catFR1	1	R1243T
2120.486	0.767	2128431	WORD_OFF	n/a	n/a	FOOT	n/a	3	13	[0, 0, 0]	n/a	catFR1	1	R1243T
2121.253	1.617	2129198	WORD	n/a	wordpools/wordpool_categorized_EN.txt	EAR	BodyParts	4	13	[0, 0, 0]	n/a	catFR1	1	R1243T
2122.87	0.983	2130815	WORD_OFF	n/a	n/a	EAR	n/a	4	13	[0, 0, 0]	n/a	catFR1	1	R1243T
2123.853	1.617	2131798	WORD	n/a	wordpools/wordpool_categorized_EN.txt	DRYER	Appliances	5	13	[0, 0, 0]	n/a	catFR1	1	R1243T
2125.47	0.967	2133415	WORD_OFF	n/a	n/a	DRYER	n/a	5	13	[0, 0, 0]	n/a	catFR1	1	R1243T
2126.437	1.617	2134382	WORD	n/a	wordpools/wordpool_categorized_EN.txt	STOVE	Appliances	6	13	[0, 0, 0]	n/a	catFR1	1	R1243T
2128.054	0.934	2135999	WORD_OFF	n/a	n/a	STOVE	n/a	6	13	[0, 0, 0]	n/a	catFR1	1	R1243T
2128.988	1.617	2136933	WORD	n/a	wordpools/wordpool_categorized_EN.txt	BATHROOM	Building	7	13	[0, 0, 0]	n/a	catFR1	1	R1243T
2130.605	1.0	2138549	WORD_OFF	n/a	n/a	BATHROOM	n/a	7	13	[0, 0, 0]	n/a	catFR1	1	R1243T
2131.605	1.617	2139549	WORD	n/a	wordpools/wordpool_categorized_EN.txt	STAIRS	Building	8	13	[0, 0, 0]	n/a	catFR1	1	R1243T
2133.222	0.983	2141166	WORD_OFF	n/a	n/a	STAIRS	n/a	8	13	[0, 0, 0]	n/a	catFR1	1	R1243T
2134.205	1.617	2142149	WORD	n/a	wordpools/wordpool_categorized_EN.txt	EYE	BodyParts	9	13	[0, 0, 0]	n/a	catFR1	1	R1243T
2135.822	0.883	2143766	WORD_OFF	n/a	n/a	EYE	n/a	9	13	[0, 0, 0]	n/a	catFR1	1	R1243T
2136.705	1.618	2144649	WORD	n/a	wordpools/wordpool_categorized_EN.txt	KNEE	BodyParts	10	13	[0, 0, 0]	n/a	catFR1	1	R1243T
2138.323	0.816	2146267	WORD_OFF	n/a	n/a	KNEE	n/a	10	13	[0, 0, 0]	n/a	catFR1	1	R1243T
2139.139	1.617	2147083	WORD	n/a	wordpools/wordpool_categorized_EN.txt	VACUUM	Appliances	11	13	[0, 0, 0]	n/a	catFR1	1	R1243T
2140.756	0.933	2148700	WORD_OFF	n/a	n/a	VACUUM	n/a	11	13	[0, 0, 0]	n/a	catFR1	1	R1243T
2141.689	1.601	2149633	WORD	n/a	wordpools/wordpool_categorized_EN.txt	REFRIGERATOR	Appliances	12	13	[0, 0, 0]	n/a	catFR1	1	R1243T
2143.29	0.0	2151234	WORD_OFF	n/a	n/a	REFRIGERATOR	n/a	12	13	[0, 0, 0]	n/a	catFR1	1	R1243T
2143.29	0.104	2151234	ENCODING_END	n/a	n/a	n/a	n/a	-999	13	[0, 0, 0]	n/a	catFR1	1	R1243T
2143.394	0.0	2151338	DISTRACT_START	n/a	n/a	n/a	n/a	-999	13	[0, 0, 0]	n/a	catFR1	1	R1243T
2143.394	0.013	2151338	START	n/a	n/a	n/a	n/a	-999	13	[-999, -999, -999]	n/a	catFR1	1	R1243T
2143.407	7.985	2151351	PROB	7.985	n/a	n/a	n/a	-999	13	[8, 7, 7]	22	catFR1	1	R1243T
2151.392	6.818	2159335	PROB	6.818	n/a	n/a	n/a	-999	13	[8, 9, 3]	20	catFR1	1	R1243T
2158.21	4.834	2166153	PROB	4.834	n/a	n/a	n/a	-999	13	[2, 5, 3]	10	catFR1	1	R1243T
2163.044	4.473	2170987	PROB	4.473	n/a	n/a	n/a	-999	13	[3, 2, 9]	14	catFR1	1	R1243T
2167.517	0.011	2175459	STOP	n/a	n/a	n/a	n/a	-999	13	[-999, -999, -999]	n/a	catFR1	1	R1243T
2167.528	0.583	2175470	DISTRACT_END	n/a	n/a	n/a	n/a	-999	13	[0, 0, 0]	n/a	catFR1	1	R1243T
2168.111	0.518	2176053	RETRIEVAL_ORIENT	n/a	n/a	n/a	n/a	-999	13	[0, 0, 0]	n/a	catFR1	1	R1243T
2168.629	2.901	2176571	REC_START	n/a	n/a	n/a	n/a	-999	13	[0, 0, 0]	n/a	catFR1	1	R1243T
2171.53	0.961	2179472	REC_WORD	0.961	n/a	REFRIGERATOR	Appliances	12	13	[0, 0, 0]	n/a	catFR1	1	R1243T
2172.491	1.554	2180433	REC_WORD	1.554	n/a	STAIRS	Building	8	13	[0, 0, 0]	n/a	catFR1	1	R1243T
2174.045	3.476	2181987	REC_WORD	3.476	n/a	DOOR	Building	1	13	[0, 0, 0]	n/a	catFR1	1	R1243T
2177.521	6.114	2185463	REC_WORD	6.114	n/a	KITCHEN	n/a	-999	13	[0, 0, 0]	n/a	catFR1	1	R1243T
2183.635	8.747	2191576	REC_WORD	8.747	n/a	FLOOR	n/a	-999	13	[0, 0, 0]	n/a	catFR1	1	R1243T
2192.382	6.256	2200323	REC_WORD	6.256	n/a	STAIRS	Building	8	13	[0, 0, 0]	n/a	catFR1	1	R1243T
2198.638	6.747	2206578	REC_END	n/a	n/a	n/a	n/a	-999	13	[0, 0, 0]	n/a	catFR1	1	R1243T
2205.385	0.5	2213325	TRIAL	n/a	n/a	n/a	n/a	-999	14	[0, 0, 0]	n/a	catFR1	1	R1243T
2205.885	10.428	2213825	COUNTDOWN_START	n/a	n/a	n/a	n/a	-999	14	[0, 0, 0]	n/a	catFR1	1	R1243T
2216.313	0.007	2224252	COUNTDOWN_END	n/a	n/a	n/a	n/a	-999	14	[0, 0, 0]	n/a	catFR1	1	R1243T
2216.32	1.617	2224259	ORIENT	n/a	n/a	n/a	n/a	-999	14	[0, 0, 0]	n/a	catFR1	1	R1243T
2217.937	2.051	2225876	ORIENT_OFF	n/a	n/a	n/a	n/a	-999	14	[0, 0, 0]	n/a	catFR1	1	R1243T
2219.988	1.617	2227927	WORD	n/a	wordpools/wordpool_categorized_EN.txt	MONKEY	Zoo	1	14	[0, 0, 0]	n/a	catFR1	1	R1243T
2221.605	0.833	2229544	WORD_OFF	n/a	n/a	MONKEY	n/a	1	14	[0, 0, 0]	n/a	catFR1	1	R1243T
2222.438	1.617	2230377	WORD	n/a	wordpools/wordpool_categorized_EN.txt	GORILLA	Zoo	2	14	[0, 0, 0]	n/a	catFR1	1	R1243T
2224.055	0.767	2231994	WORD_OFF	n/a	n/a	GORILLA	n/a	2	14	[0, 0, 0]	n/a	catFR1	1	R1243T
2224.822	1.617	2232761	WORD	n/a	wordpools/wordpool_categorized_EN.txt	ORGAN	Instruments	3	14	[0, 0, 0]	n/a	catFR1	1	R1243T
2226.439	0.883	2234378	WORD_OFF	n/a	n/a	ORGAN	n/a	3	14	[0, 0, 0]	n/a	catFR1	1	R1243T
2227.322	1.617	2235261	WORD	n/a	wordpools/wordpool_categorized_EN.txt	TRUMPET	Instruments	4	14	[0, 0, 0]	n/a	catFR1	1	R1243T
2228.939	0.867	2236878	WORD_OFF	n/a	n/a	TRUMPET	n/a	4	14	[0, 0, 0]	n/a	catFR1	1	R1243T
2229.806	1.617	2237745	WORD	n/a	wordpools/wordpool_categorized_EN.txt	PUDDING	Desserts	5	14	[0, 0, 0]	n/a	catFR1	1	R1243T
2231.423	0.967	2239361	WORD_OFF	n/a	n/a	PUDDING	n/a	5	14	[0, 0, 0]	n/a	catFR1	1	R1243T
2232.39	1.617	2240328	WORD	n/a	wordpools/wordpool_categorized_EN.txt	COOKIE	Desserts	6	14	[0, 0, 0]	n/a	catFR1	1	R1243T
2234.007	0.767	2241945	WORD_OFF	n/a	n/a	COOKIE	n/a	6	14	[0, 0, 0]	n/a	catFR1	1	R1243T
2234.774	1.616	2242712	WORD	n/a	wordpools/wordpool_categorized_EN.txt	BEAR	Zoo	7	14	[0, 0, 0]	n/a	catFR1	1	R1243T
2236.39	0.917	2244328	WORD_OFF	n/a	n/a	BEAR	n/a	7	14	[0, 0, 0]	n/a	catFR1	1	R1243T
2237.307	1.617	2245245	WORD	n/a	wordpools/wordpool_categorized_EN.txt	GIRAFFE	Zoo	8	14	[0, 0, 0]	n/a	catFR1	1	R1243T
2238.924	0.984	2246862	WORD_OFF	n/a	n/a	GIRAFFE	n/a	8	14	[0, 0, 0]	n/a	catFR1	1	R1243T
2239.908	1.617	2247846	WORD	n/a	wordpools/wordpool_categorized_EN.txt	BANJO	Instruments	9	14	[0, 0, 0]	n/a	catFR1	1	R1243T
2241.525	1.0	2249463	WORD_OFF	n/a	n/a	BANJO	n/a	9	14	[0, 0, 0]	n/a	catFR1	1	R1243T
2242.525	1.617	2250463	WORD	n/a	wordpools/wordpool_categorized_EN.txt	CELLO	Instruments	10	14	[0, 0, 0]	n/a	catFR1	1	R1243T
2244.142	1.0	2252080	WORD_OFF	n/a	n/a	CELLO	n/a	10	14	[0, 0, 0]	n/a	catFR1	1	R1243T
2245.142	1.617	2253080	WORD	n/a	wordpools/wordpool_categorized_EN.txt	MOUSSE	Desserts	11	14	[0, 0, 0]	n/a	catFR1	1	R1243T
2246.759	0.784	2254696	WORD_OFF	n/a	n/a	MOUSSE	n/a	11	14	[0, 0, 0]	n/a	catFR1	1	R1243T
2247.543	1.617	2255480	WORD	n/a	wordpools/wordpool_categorized_EN.txt	CAKE	Desserts	12	14	[0, 0, 0]	n/a	catFR1	1	R1243T
2249.16	0.0	2257097	ENCODING_END	n/a	n/a	n/a	n/a	-999	14	[0, 0, 0]	n/a	catFR1	1	R1243T
2249.16	0.102	2257097	WORD_OFF	n/a	n/a	CAKE	n/a	12	14	[0, 0, 0]	n/a	catFR1	1	R1243T
2249.262	0.0	2257199	DISTRACT_START	n/a	n/a	n/a	n/a	-999	14	[0, 0, 0]	n/a	catFR1	1	R1243T
2249.262	0.014	2257199	START	n/a	n/a	n/a	n/a	-999	14	[-999, -999, -999]	n/a	catFR1	1	R1243T
2249.276	9.985	2257213	PROB	9.985	n/a	n/a	n/a	-999	14	[6, 1, 5]	12	catFR1	1	R1243T
2259.261	6.268	2267198	PROB	6.268	n/a	n/a	n/a	-999	14	[5, 6, 2]	13	catFR1	1	R1243T
2265.529	5.846	2273465	PROB	5.846	n/a	n/a	n/a	-999	14	[5, 9, 7]	21	catFR1	1	R1243T
2271.375	0.005	2279311	STOP	n/a	n/a	n/a	n/a	-999	14	[-999, -999, -999]	n/a	catFR1	1	R1243T
2271.38	0.584	2279316	DISTRACT_END	n/a	n/a	n/a	n/a	-999	14	[0, 0, 0]	n/a	catFR1	1	R1243T
2271.964	0.517	2279900	RETRIEVAL_ORIENT	n/a	n/a	n/a	n/a	-999	14	[0, 0, 0]	n/a	catFR1	1	R1243T
2272.481	1.932	2280417	REC_START	n/a	n/a	n/a	n/a	-999	14	[0, 0, 0]	n/a	catFR1	1	R1243T
2274.413	0.774	2282349	REC_WORD	0.774	n/a	MONKEY	Zoo	1	14	[0, 0, 0]	n/a	catFR1	1	R1243T
2275.187	1.988	2283123	REC_WORD	1.988	n/a	GORILLA	Zoo	2	14	[0, 0, 0]	n/a	catFR1	1	R1243T
2277.175	25.317	2285111	REC_WORD	25.317	n/a	ORGAN	Instruments	3	14	[0, 0, 0]	n/a	catFR1	1	R1243T
2302.492	5.212	2310426	REC_END	n/a	n/a	n/a	n/a	-999	14	[0, 0, 0]	n/a	catFR1	1	R1243T
2307.704	0.5	2315638	TRIAL	n/a	n/a	n/a	n/a	-999	15	[0, 0, 0]	n/a	catFR1	1	R1243T
2308.204	10.428	2316138	COUNTDOWN_START	n/a	n/a	n/a	n/a	-999	15	[0, 0, 0]	n/a	catFR1	1	R1243T
2318.632	0.007	2326565	COUNTDOWN_END	n/a	n/a	n/a	n/a	-999	15	[0, 0, 0]	n/a	catFR1	1	R1243T
2318.639	1.617	2326572	ORIENT	n/a	n/a	n/a	n/a	-999	15	[0, 0, 0]	n/a	catFR1	1	R1243T
2320.256	1.85	2328189	ORIENT_OFF	n/a	n/a	n/a	n/a	-999	15	[0, 0, 0]	n/a	catFR1	1	R1243T
2322.106	1.617	2330039	WORD	n/a	wordpools/wordpool_categorized_EN.txt	GLUE	OfficeSupplies	1	15	[0, 0, 0]	n/a	catFR1	1	R1243T
2323.723	0.8	2331656	WORD_OFF	n/a	n/a	GLUE	n/a	1	15	[0, 0, 0]	n/a	catFR1	1	R1243T
2324.523	1.617	2332456	WORD	n/a	wordpools/wordpool_categorized_EN.txt	PENCIL	OfficeSupplies	2	15	[0, 0, 0]	n/a	catFR1	1	R1243T
2326.14	0.967	2334073	WORD_OFF	n/a	n/a	PENCIL	n/a	2	15	[0, 0, 0]	n/a	catFR1	1	R1243T
2327.107	1.617	2335040	WORD	n/a	wordpools/wordpool_categorized_EN.txt	HICKORY	Trees	3	15	[0, 0, 0]	n/a	catFR1	1	R1243T
2328.724	0.767	2336657	WORD_OFF	n/a	n/a	HICKORY	n/a	3	15	[0, 0, 0]	n/a	catFR1	1	R1243T
2329.491	1.617	2337423	WORD	n/a	wordpools/wordpool_categorized_EN.txt	WALNUT	Trees	4	15	[0, 0, 0]	n/a	catFR1	1	R1243T
2331.108	1.0	2339040	WORD_OFF	n/a	n/a	WALNUT	n/a	4	15	[0, 0, 0]	n/a	catFR1	1	R1243T
2332.108	1.617	2340040	WORD	n/a	wordpools/wordpool_categorized_EN.txt	COMPUTER	Electronics	5	15	[0, 0, 0]	n/a	catFR1	1	R1243T
2333.725	0.817	2341657	WORD_OFF	n/a	n/a	COMPUTER	n/a	5	15	[0, 0, 0]	n/a	catFR1	1	R1243T
2334.542	1.617	2342474	WORD	n/a	wordpools/wordpool_categorized_EN.txt	STEREO	Electronics	6	15	[0, 0, 0]	n/a	catFR1	1	R1243T
2336.159	0.983	2344091	WORD_OFF	n/a	n/a	STEREO	n/a	6	15	[0, 0, 0]	n/a	catFR1	1	R1243T
2337.142	1.617	2345074	WORD	n/a	wordpools/wordpool_categorized_EN.txt	BIRCH	Trees	7	15	[0, 0, 0]	n/a	catFR1	1	R1243T
2338.759	0.867	2346691	WORD_OFF	n/a	n/a	BIRCH	n/a	7	15	[0, 0, 0]	n/a	catFR1	1	R1243T
2339.626	1.617	2347558	WORD	n/a	wordpools/wordpool_categorized_EN.txt	ELM	Trees	8	15	[0, 0, 0]	n/a	catFR1	1	R1243T
2341.243	0.783	2349175	WORD_OFF	n/a	n/a	ELM	n/a	8	15	[0, 0, 0]	n/a	catFR1	1	R1243T
2342.026	1.616	2349958	WORD	n/a	wordpools/wordpool_categorized_EN.txt	ERASER	OfficeSupplies	9	15	[0, 0, 0]	n/a	catFR1	1	R1243T
2343.642	0.935	2351574	WORD_OFF	n/a	n/a	ERASER	n/a	9	15	[0, 0, 0]	n/a	catFR1	1	R1243T
2344.577	1.617	2352509	WORD	n/a	wordpools/wordpool_categorized_EN.txt	STAPLER	OfficeSupplies	10	15	[0, 0, 0]	n/a	catFR1	1	R1243T
2346.194	0.85	2354125	WORD_OFF	n/a	n/a	STAPLER	n/a	10	15	[0, 0, 0]	n/a	catFR1	1	R1243T
2347.044	1.616	2354975	WORD	n/a	wordpools/wordpool_categorized_EN.txt	MICROWAVE	Electronics	11	15	[0, 0, 0]	n/a	catFR1	1	R1243T
2348.66	0.918	2356591	WORD_OFF	n/a	n/a	MICROWAVE	n/a	11	15	[0, 0, 0]	n/a	catFR1	1	R1243T
2349.578	1.617	2357509	WORD	n/a	wordpools/wordpool_categorized_EN.txt	SPEAKER	Electronics	12	15	[0, 0, 0]	n/a	catFR1	1	R1243T
2351.195	0.0	2359126	ENCODING_END	n/a	n/a	n/a	n/a	-999	15	[0, 0, 0]	n/a	catFR1	1	R1243T
2351.195	0.136	2359126	WORD_OFF	n/a	n/a	SPEAKER	n/a	12	15	[0, 0, 0]	n/a	catFR1	1	R1243T
2351.331	0.0	2359262	DISTRACT_START	n/a	n/a	n/a	n/a	-999	15	[0, 0, 0]	n/a	catFR1	1	R1243T
2351.331	0.014	2359262	START	n/a	n/a	n/a	n/a	-999	15	[-999, -999, -999]	n/a	catFR1	1	R1243T
2351.345	6.634	2359276	PROB	6.634	n/a	n/a	n/a	-999	15	[4, 2, 3]	9	catFR1	1	R1243T
2357.979	7.785	2365910	PROB	7.785	n/a	n/a	n/a	-999	15	[7, 6, 2]	15	catFR1	1	R1243T
2365.764	7.834	2373694	PROB	7.834	n/a	n/a	n/a	-999	15	[5, 7, 9]	21	catFR1	1	R1243T
2373.598	0.018	2381528	STOP	n/a	n/a	n/a	n/a	-999	15	[-999, -999, -999]	n/a	catFR1	1	R1243T
2373.616	0.683	2381546	DISTRACT_END	n/a	n/a	n/a	n/a	-999	15	[0, 0, 0]	n/a	catFR1	1	R1243T
2374.299	0.518	2382229	RETRIEVAL_ORIENT	n/a	n/a	n/a	n/a	-999	15	[0, 0, 0]	n/a	catFR1	1	R1243T
2374.817	11.213	2382747	REC_START	n/a	n/a	n/a	n/a	-999	15	[0, 0, 0]	n/a	catFR1	1	R1243T
2386.03	3.429	2393959	REC_WORD	3.429	n/a	COMPUTER	Electronics	5	15	[0, 0, 0]	n/a	catFR1	1	R1243T
2389.459	15.369	2397388	REC_WORD	15.369	n/a	PENCIL	OfficeSupplies	2	15	[0, 0, 0]	n/a	catFR1	1	R1243T
2404.828	4.694	2412756	REC_END	n/a	n/a	n/a	n/a	-999	15	[0, 0, 0]	n/a	catFR1	1	R1243T
2409.522	0.5	2417450	TRIAL	n/a	n/a	n/a	n/a	-999	16	[0, 0, 0]	n/a	catFR1	1	R1243T
2410.022	10.428	2417950	COUNTDOWN_START	n/a	n/a	n/a	n/a	-999	16	[0, 0, 0]	n/a	catFR1	1	R1243T
2420.45	0.007	2428377	COUNTDOWN_END	n/a	n/a	n/a	n/a	-999	16	[0, 0, 0]	n/a	catFR1	1	R1243T
2420.457	1.617	2428384	ORIENT	n/a	n/a	n/a	n/a	-999	16	[0, 0, 0]	n/a	catFR1	1	R1243T
2422.074	1.884	2430001	ORIENT_OFF	n/a	n/a	n/a	n/a	-999	16	[0, 0, 0]	n/a	catFR1	1	R1243T
2423.958	1.617	2431885	WORD	n/a	wordpools/wordpool_categorized_EN.txt	SPRUCE	Trees	1	16	[0, 0, 0]	n/a	catFR1	1	R1243T
2425.575	0.85	2433502	WORD_OFF	n/a	n/a	SPRUCE	n/a	1	16	[0, 0, 0]	n/a	catFR1	1	R1243T
2426.425	1.617	2434352	WORD	n/a	wordpools/wordpool_categorized_EN.txt	CYPRESS	Trees	2	16	[0, 0, 0]	n/a	catFR1	1	R1243T
2428.042	0.967	2435969	WORD_OFF	n/a	n/a	CYPRESS	n/a	2	16	[0, 0, 0]	n/a	catFR1	1	R1243T
2429.009	1.617	2436935	WORD	n/a	wordpools/wordpool_categorized_EN.txt	CUCUMBER	Vegetables	3	16	[0, 0, 0]	n/a	catFR1	1	R1243T
2430.626	0.967	2438552	WORD_OFF	n/a	n/a	CUCUMBER	n/a	3	16	[0, 0, 0]	n/a	catFR1	1	R1243T
2431.593	1.617	2439519	WORD	n/a	wordpools/wordpool_categorized_EN.txt	ONION	Vegetables	4	16	[0, 0, 0]	n/a	catFR1	1	R1243T
2433.21	0.917	2441136	WORD_OFF	n/a	n/a	ONION	n/a	4	16	[0, 0, 0]	n/a	catFR1	1	R1243T
2434.127	1.617	2442053	WORD	n/a	wordpools/wordpool_categorized_EN.txt	PASTRY	Desserts	5	16	[0, 0, 0]	n/a	catFR1	1	R1243T
2435.744	0.983	2443670	WORD_OFF	n/a	n/a	PASTRY	n/a	5	16	[0, 0, 0]	n/a	catFR1	1	R1243T
2436.727	1.617	2444653	WORD	n/a	wordpools/wordpool_categorized_EN.txt	BROWNIES	Desserts	6	16	[0, 0, 0]	n/a	catFR1	1	R1243T
2438.344	0.9	2446270	WORD_OFF	n/a	n/a	BROWNIES	n/a	6	16	[0, 0, 0]	n/a	catFR1	1	R1243T
2439.244	1.617	2447170	WORD	n/a	wordpools/wordpool_categorized_EN.txt	CORN	Vegetables	7	16	[0, 0, 0]	n/a	catFR1	1	R1243T
2440.861	0.867	2448787	WORD_OFF	n/a	n/a	CORN	n/a	7	16	[0, 0, 0]	n/a	catFR1	1	R1243T
2441.728	1.617	2449654	WORD	n/a	wordpools/wordpool_categorized_EN.txt	PEAS	Vegetables	8	16	[0, 0, 0]	n/a	catFR1	1	R1243T
2443.345	0.983	2451271	WORD_OFF	n/a	n/a	PEAS	n/a	8	16	[0, 0, 0]	n/a	catFR1	1	R1243T
2444.328	1.617	2452254	WORD	n/a	wordpools/wordpool_categorized_EN.txt	EVERGREEN	Trees	9	16	[0, 0, 0]	n/a	catFR1	1	R1243T
2445.945	1.017	2453870	WORD_OFF	n/a	n/a	EVERGREEN	n/a	9	16	[0, 0, 0]	n/a	catFR1	1	R1243T
2446.962	1.617	2454887	WORD	n/a	wordpools/wordpool_categorized_EN.txt	OAK	Trees	10	16	[0, 0, 0]	n/a	catFR1	1	R1243T
2448.579	0.934	2456504	WORD_OFF	n/a	n/a	OAK	n/a	10	16	[0, 0, 0]	n/a	catFR1	1	R1243T
2449.513	1.617	2457438	WORD	n/a	wordpools/wordpool_categorized_EN.txt	CHEESECAKE	Desserts	11	16	[0, 0, 0]	n/a	catFR1	1	R1243T
2451.13	0.817	2459055	WORD_OFF	n/a	n/a	CHEESECAKE	n/a	11	16	[0, 0, 0]	n/a	catFR1	1	R1243T
2451.947	1.617	2459872	WORD	n/a	wordpools/wordpool_categorized_EN.txt	FUDGE	Desserts	12	16	[0, 0, 0]	n/a	catFR1	1	R1243T
2453.564	0.0	2461489	ENCODING_END	n/a	n/a	n/a	n/a	-999	16	[0, 0, 0]	n/a	catFR1	1	R1243T
2453.564	0.105	2461489	WORD_OFF	n/a	n/a	FUDGE	n/a	12	16	[0, 0, 0]	n/a	catFR1	1	R1243T
2453.669	0.0	2461594	DISTRACT_START	n/a	n/a	n/a	n/a	-999	16	[0, 0, 0]	n/a	catFR1	1	R1243T
2453.669	0.01	2461594	START	n/a	n/a	n/a	n/a	-999	16	[-999, -999, -999]	n/a	catFR1	1	R1243T
2453.679	5.152	2461604	PROB	5.152	n/a	n/a	n/a	-999	16	[1, 9, 1]	11	catFR1	1	R1243T
2458.831	6.218	2466756	PROB	6.218	n/a	n/a	n/a	-999	16	[5, 6, 6]	17	catFR1	1	R1243T
2465.049	5.201	2472973	PROB	5.201	n/a	n/a	n/a	-999	16	[2, 2, 6]	10	catFR1	1	R1243T
2470.25	6.523	2478174	PROB	6.523	n/a	n/a	n/a	-999	16	[3, 7, 7]	17	catFR1	1	R1243T
2476.773	0.012	2484697	STOP	n/a	n/a	n/a	n/a	-999	16	[-999, -999, -999]	n/a	catFR1	1	R1243T
2476.785	0.65	2484709	DISTRACT_END	n/a	n/a	n/a	n/a	-999	16	[0, 0, 0]	n/a	catFR1	1	R1243T
2477.435	0.517	2485359	RETRIEVAL_ORIENT	n/a	n/a	n/a	n/a	-999	16	[0, 0, 0]	n/a	catFR1	1	R1243T
2477.952	6.6	2485876	REC_START	n/a	n/a	n/a	n/a	-999	16	[0, 0, 0]	n/a	catFR1	1	R1243T
2484.552	15.844	2492475	REC_WORD	15.844	n/a	CUCUMBER	Vegetables	3	16	[0, 0, 0]	n/a	catFR1	1	R1243T
2500.396	3.616	2508318	REC_WORD	3.616	n/a	PEAS	Vegetables	8	16	[0, 0, 0]	n/a	catFR1	1	R1243T
2504.012	3.95	2511934	REC_WORD	3.95	n/a	CORN	Vegetables	7	16	[0, 0, 0]	n/a	catFR1	1	R1243T
2507.962	5.979	2515884	REC_END	n/a	n/a	n/a	n/a	-999	16	[0, 0, 0]	n/a	catFR1	1	R1243T
2513.941	0.5	2521862	TRIAL	n/a	n/a	n/a	n/a	-999	17	[0, 0, 0]	n/a	catFR1	1	R1243T
2514.441	10.428	2522362	COUNTDOWN_START	n/a	n/a	n/a	n/a	-999	17	[0, 0, 0]	n/a	catFR1	1	R1243T
2524.869	0.007	2532790	COUNTDOWN_END	n/a	n/a	n/a	n/a	-999	17	[0, 0, 0]	n/a	catFR1	1	R1243T
2524.876	1.618	2532797	ORIENT	n/a	n/a	n/a	n/a	-999	17	[0, 0, 0]	n/a	catFR1	1	R1243T
2526.494	2.133	2534415	ORIENT_OFF	n/a	n/a	n/a	n/a	-999	17	[0, 0, 0]	n/a	catFR1	1	R1243T
2528.627	1.617	2536547	WORD	n/a	wordpools/wordpool_categorized_EN.txt	BALL	Toys	1	17	[0, 0, 0]	n/a	catFR1	1	R1243T
2530.244	0.9	2538164	WORD_OFF	n/a	n/a	BALL	n/a	1	17	[0, 0, 0]	n/a	catFR1	1	R1243T
2531.144	1.617	2539064	WORD	n/a	wordpools/wordpool_categorized_EN.txt	BLOCKS	Toys	2	17	[0, 0, 0]	n/a	catFR1	1	R1243T
2532.761	0.867	2540681	WORD_OFF	n/a	n/a	BLOCKS	n/a	2	17	[0, 0, 0]	n/a	catFR1	1	R1243T
2533.628	1.617	2541548	WORD	n/a	wordpools/wordpool_categorized_EN.txt	CHIMPANZEE	Zoo	3	17	[0, 0, 0]	n/a	catFR1	1	R1243T
2535.245	0.917	2543165	WORD_OFF	n/a	n/a	CHIMPANZEE	n/a	3	17	[0, 0, 0]	n/a	catFR1	1	R1243T
2536.162	1.617	2544082	WORD	n/a	wordpools/wordpool_categorized_EN.txt	ORANGUTAN	Zoo	4	17	[0, 0, 0]	n/a	catFR1	1	R1243T
2537.779	0.933	2545699	WORD_OFF	n/a	n/a	ORANGUTAN	n/a	4	17	[0, 0, 0]	n/a	catFR1	1	R1243T
2538.712	1.617	2546632	WORD	n/a	wordpools/wordpool_categorized_EN.txt	TRUCK	Vehicles	5	17	[0, 0, 0]	n/a	catFR1	1	R1243T
2540.329	0.951	2548249	WORD_OFF	n/a	n/a	TRUCK	n/a	5	17	[0, 0, 0]	n/a	catFR1	1	R1243T
2541.28	1.616	2549200	WORD	n/a	wordpools/wordpool_categorized_EN.txt	JEEP	Vehicles	6	17	[0, 0, 0]	n/a	catFR1	1	R1243T
2542.896	0.884	2550816	WORD_OFF	n/a	n/a	JEEP	n/a	6	17	[0, 0, 0]	n/a	catFR1	1	R1243T
2543.78	1.617	2551700	WORD	n/a	wordpools/wordpool_categorized_EN.txt	PANDA	Zoo	7	17	[0, 0, 0]	n/a	catFR1	1	R1243T
2545.397	0.8	2553316	WORD_OFF	n/a	n/a	PANDA	n/a	7	17	[0, 0, 0]	n/a	catFR1	1	R1243T
2546.197	1.617	2554116	WORD	n/a	wordpools/wordpool_categorized_EN.txt	ZEBRA	Zoo	8	17	[0, 0, 0]	n/a	catFR1	1	R1243T
2547.814	0.9	2555733	WORD_OFF	n/a	n/a	ZEBRA	n/a	8	17	[0, 0, 0]	n/a	catFR1	1	R1243T
2548.714	1.617	2556633	WORD	n/a	wordpools/wordpool_categorized_EN.txt	DOLL	Toys	9	17	[0, 0, 0]	n/a	catFR1	1	R1243T
2550.331	0.867	2558250	WORD_OFF	n/a	n/a	DOLL	n/a	9	17	[0, 0, 0]	n/a	catFR1	1	R1243T
2551.198	1.617	2559117	WORD	n/a	wordpools/wordpool_categorized_EN.txt	FOOTBALL	Toys	10	17	[0, 0, 0]	n/a	catFR1	1	R1243T
2552.815	0.8	2560734	WORD_OFF	n/a	n/a	FOOTBALL	n/a	10	17	[0, 0, 0]	n/a	catFR1	1	R1243T
2553.615	1.617	2561534	WORD	n/a	wordpools/wordpool_categorized_EN.txt	MOPED	Vehicles	11	17	[0, 0, 0]	n/a	catFR1	1	R1243T
2555.232	0.9	2563151	WORD_OFF	n/a	n/a	MOPED	n/a	11	17	[0, 0, 0]	n/a	catFR1	1	R1243T
2556.132	1.617	2564051	WORD	n/a	wordpools/wordpool_categorized_EN.txt	TRAIN	Vehicles	12	17	[0, 0, 0]	n/a	catFR1	1	R1243T
2557.749	0.0	2565668	ENCODING_END	n/a	n/a	n/a	n/a	-999	17	[0, 0, 0]	n/a	catFR1	1	R1243T
2557.749	0.104	2565668	WORD_OFF	n/a	n/a	TRAIN	n/a	12	17	[0, 0, 0]	n/a	catFR1	1	R1243T
2557.853	0.0	2565772	DISTRACT_START	n/a	n/a	n/a	n/a	-999	17	[0, 0, 0]	n/a	catFR1	1	R1243T
2557.853	0.013	2565772	START	n/a	n/a	n/a	n/a	-999	17	[-999, -999, -999]	n/a	catFR1	1	R1243T
2557.866	7.551	2565785	PROB	7.551	n/a	n/a	n/a	-999	17	[9, 8, 1]	18	catFR1	1	R1243T
2565.417	4.384	2573335	PROB	4.384	n/a	n/a	n/a	-999	17	[2, 2, 8]	12	catFR1	1	R1243T
2569.801	6.018	2577719	PROB	6.018	n/a	n/a	n/a	-999	17	[4, 4, 8]	16	catFR1	1	R1243T
2575.819	5.77	2583737	PROB	5.77	n/a	n/a	n/a	-999	17	[3, 4, 3]	10	catFR1	1	R1243T
2581.589	0.015	2589506	STOP	n/a	n/a	n/a	n/a	-999	17	[-999, -999, -999]	n/a	catFR1	1	R1243T
2581.604	0.566	2589521	DISTRACT_END	n/a	n/a	n/a	n/a	-999	17	[0, 0, 0]	n/a	catFR1	1	R1243T
2582.17	0.517	2590087	RETRIEVAL_ORIENT	n/a	n/a	n/a	n/a	-999	17	[0, 0, 0]	n/a	catFR1	1	R1243T
2582.687	1.96	2590604	REC_START	n/a	n/a	n/a	n/a	-999	17	[0, 0, 0]	n/a	catFR1	1	R1243T
2584.647	2.107	2592564	REC_WORD	2.107	n/a	CHIMPANZEE	Zoo	3	17	[0, 0, 0]	n/a	catFR1	1	R1243T
2586.754	1.601	2594671	REC_WORD	1.601	n/a	TRUCK	Vehicles	5	17	[0, 0, 0]	n/a	catFR1	1	R1243T
2588.355	12.533	2596272	REC_WORD	12.533	n/a	JEEP	Vehicles	6	17	[0, 0, 0]	n/a	catFR1	1	R1243T
2600.888	2.43	2608804	REC_WORD	2.43	n/a	TIGER	n/a	-999	17	[0, 0, 0]	n/a	catFR1	1	R1243T
2603.318	9.381	2611234	REC_WORD	9.381	n/a	LION	n/a	-999	17	[0, 0, 0]	n/a	catFR1	1	R1243T
2612.699	5.977	2620614	REC_END	n/a	n/a	n/a	n/a	-999	17	[0, 0, 0]	n/a	catFR1	1	R1243T
2618.676	0.5	2626591	TRIAL	n/a	n/a	n/a	n/a	-999	18	[0, 0, 0]	n/a	catFR1	1	R1243T
2619.176	10.428	2627091	COUNTDOWN_START	n/a	n/a	n/a	n/a	-999	18	[0, 0, 0]	n/a	catFR1	1	R1243T
2629.604	0.008	2637518	COUNTDOWN_END	n/a	n/a	n/a	n/a	-999	18	[0, 0, 0]	n/a	catFR1	1	R1243T
2629.612	1.617	2637526	ORIENT	n/a	n/a	n/a	n/a	-999	18	[0, 0, 0]	n/a	catFR1	1	R1243T
2631.229	2.184	2639143	ORIENT_OFF	n/a	n/a	n/a	n/a	-999	18	[0, 0, 0]	n/a	catFR1	1	R1243T
2633.413	1.617	2641327	WORD	n/a	wordpools/wordpool_categorized_EN.txt	HEAD	BodyParts	1	18	[0, 0, 0]	n/a	catFR1	1	R1243T
2635.03	0.95	2642944	WORD_OFF	n/a	n/a	HEAD	n/a	1	18	[0, 0, 0]	n/a	catFR1	1	R1243T
2635.98	1.617	2643894	WORD	n/a	wordpools/wordpool_categorized_EN.txt	HAND	BodyParts	2	18	[0, 0, 0]	n/a	catFR1	1	R1243T
2637.597	0.817	2645511	WORD_OFF	n/a	n/a	HAND	n/a	2	18	[0, 0, 0]	n/a	catFR1	1	R1243T
2638.414	1.617	2646328	WORD	n/a	wordpools/wordpool_categorized_EN.txt	GOOSE	Birds	3	18	[0, 0, 0]	n/a	catFR1	1	R1243T
2640.031	0.95	2647945	WORD_OFF	n/a	n/a	GOOSE	n/a	3	18	[0, 0, 0]	n/a	catFR1	1	R1243T
2640.981	1.617	2648895	WORD	n/a	wordpools/wordpool_categorized_EN.txt	CROW	Birds	4	18	[0, 0, 0]	n/a	catFR1	1	R1243T
2642.598	0.783	2650512	WORD_OFF	n/a	n/a	CROW	n/a	4	18	[0, 0, 0]	n/a	catFR1	1	R1243T
2643.381	1.617	2651295	WORD	n/a	wordpools/wordpool_categorized_EN.txt	PEELER	KitchenTools	5	18	[0, 0, 0]	n/a	catFR1	1	R1243T
2644.998	0.834	2652911	WORD_OFF	n/a	n/a	PEELER	n/a	5	18	[0, 0, 0]	n/a	catFR1	1	R1243T
2645.832	1.617	2653745	WORD	n/a	wordpools/wordpool_categorized_EN.txt	KNIFE	KitchenTools	6	18	[0, 0, 0]	n/a	catFR1	1	R1243T
2647.449	0.983	2655362	WORD_OFF	n/a	n/a	KNIFE	n/a	6	18	[0, 0, 0]	n/a	catFR1	1	R1243T
2648.432	1.617	2656345	WORD	n/a	wordpools/wordpool_categorized_EN.txt	LEG	BodyParts	7	18	[0, 0, 0]	n/a	catFR1	1	R1243T
2650.049	0.984	2657962	WORD_OFF	n/a	n/a	LEG	n/a	7	18	[0, 0, 0]	n/a	catFR1	1	R1243T
2651.033	1.616	2658946	WORD	n/a	wordpools/wordpool_categorized_EN.txt	TOE	BodyParts	8	18	[0, 0, 0]	n/a	catFR1	1	R1243T
2652.649	0.934	2660562	WORD_OFF	n/a	n/a	TOE	n/a	8	18	[0, 0, 0]	n/a	catFR1	1	R1243T
2653.583	1.617	2661496	WORD	n/a	wordpools/wordpool_categorized_EN.txt	SEAGULL	Birds	9	18	[0, 0, 0]	n/a	catFR1	1	R1243T
2655.2	0.8	2663113	WORD_OFF	n/a	n/a	SEAGULL	n/a	9	18	[0, 0, 0]	n/a	catFR1	1	R1243T
2656.0	1.618	2663913	WORD	n/a	wordpools/wordpool_categorized_EN.txt	ROBIN	Birds	10	18	[0, 0, 0]	n/a	catFR1	1	R1243T
2657.618	0.816	2665531	WORD_OFF	n/a	n/a	ROBIN	n/a	10	18	[0, 0, 0]	n/a	catFR1	1	R1243T
2658.434	1.617	2666347	WORD	n/a	wordpools/wordpool_categorized_EN.txt	TONGS	KitchenTools	11	18	[0, 0, 0]	n/a	catFR1	1	R1243T
2660.051	0.867	2667964	WORD_OFF	n/a	n/a	TONGS	n/a	11	18	[0, 0, 0]	n/a	catFR1	1	R1243T
2660.918	1.617	2668830	WORD	n/a	wordpools/wordpool_categorized_EN.txt	GRATER	KitchenTools	12	18	[0, 0, 0]	n/a	catFR1	1	R1243T
2662.535	0.0	2670447	WORD_OFF	n/a	n/a	GRATER	n/a	12	18	[0, 0, 0]	n/a	catFR1	1	R1243T
2662.535	0.132	2670447	ENCODING_END	n/a	n/a	n/a	n/a	-999	18	[0, 0, 0]	n/a	catFR1	1	R1243T
2662.667	0.0	2670579	DISTRACT_START	n/a	n/a	n/a	n/a	-999	18	[0, 0, 0]	n/a	catFR1	1	R1243T
2662.667	0.017	2670579	START	n/a	n/a	n/a	n/a	-999	18	[-999, -999, -999]	n/a	catFR1	1	R1243T
2662.684	6.052	2670596	PROB	6.052	n/a	n/a	n/a	-999	18	[5, 6, 1]	12	catFR1	1	R1243T
2668.736	3.95	2676648	PROB	3.95	n/a	n/a	n/a	-999	18	[1, 1, 3]	5	catFR1	1	R1243T
2672.686	5.935	2680598	PROB	5.935	n/a	n/a	n/a	-999	18	[6, 3, 3]	12	catFR1	1	R1243T
2678.621	4.344	2686532	PROB	4.344	n/a	n/a	n/a	-999	18	[3, 4, 5]	11	catFR1	1	R1243T
2682.965	0.007	2690876	STOP	n/a	n/a	n/a	n/a	-999	18	[-999, -999, -999]	n/a	catFR1	1	R1243T
2682.972	0.533	2690883	DISTRACT_END	n/a	n/a	n/a	n/a	-999	18	[0, 0, 0]	n/a	catFR1	1	R1243T
2683.505	0.518	2691416	RETRIEVAL_ORIENT	n/a	n/a	n/a	n/a	-999	18	[0, 0, 0]	n/a	catFR1	1	R1243T
2684.023	9.454	2691934	REC_START	n/a	n/a	n/a	n/a	-999	18	[0, 0, 0]	n/a	catFR1	1	R1243T
2693.477	2.224	2701388	REC_WORD	2.224	n/a	HAND	BodyParts	2	18	[0, 0, 0]	n/a	catFR1	1	R1243T
2695.701	2.457	2703611	REC_WORD	2.457	n/a	LEG	BodyParts	7	18	[0, 0, 0]	n/a	catFR1	1	R1243T
2698.158	3.82	2706068	REC_WORD	3.82	n/a	TOE	BodyParts	8	18	[0, 0, 0]	n/a	catFR1	1	R1243T
2701.978	4.753	2709888	REC_WORD	4.753	n/a	TONGUE	n/a	-999	18	[0, 0, 0]	n/a	catFR1	1	R1243T
2706.731	7.302	2714641	REC_WORD	7.302	n/a	TONGS	KitchenTools	11	18	[0, 0, 0]	n/a	catFR1	1	R1243T
2714.033	5.962	2721942	REC_END	n/a	n/a	n/a	n/a	-999	18	[0, 0, 0]	n/a	catFR1	1	R1243T
2719.995	0.5	2727904	TRIAL	n/a	n/a	n/a	n/a	-999	19	[0, 0, 0]	n/a	catFR1	1	R1243T
2720.495	10.428	2728404	COUNTDOWN_START	n/a	n/a	n/a	n/a	-999	19	[0, 0, 0]	n/a	catFR1	1	R1243T
2730.923	0.008	2738831	COUNTDOWN_END	n/a	n/a	n/a	n/a	-999	19	[0, 0, 0]	n/a	catFR1	1	R1243T
2730.931	1.617	2738839	ORIENT	n/a	n/a	n/a	n/a	-999	19	[0, 0, 0]	n/a	catFR1	1	R1243T
2732.548	2.067	2740456	ORIENT_OFF	n/a	n/a	n/a	n/a	-999	19	[0, 0, 0]	n/a	catFR1	1	R1243T
2734.615	1.617	2742523	WORD	n/a	wordpools/wordpool_categorized_EN.txt	CEILING	Building	1	19	[0, 0, 0]	n/a	catFR1	1	R1243T
2736.232	0.883	2744140	WORD_OFF	n/a	n/a	CEILING	n/a	1	19	[0, 0, 0]	n/a	catFR1	1	R1243T
2737.115	1.617	2745023	WORD	n/a	wordpools/wordpool_categorized_EN.txt	WALL	Building	2	19	[0, 0, 0]	n/a	catFR1	1	R1243T
2738.732	1.017	2746640	WORD_OFF	n/a	n/a	WALL	n/a	2	19	[0, 0, 0]	n/a	catFR1	1	R1243T
2739.749	1.617	2747657	WORD	n/a	wordpools/wordpool_categorized_EN.txt	PEN	OfficeSupplies	3	19	[0, 0, 0]	n/a	catFR1	1	R1243T
2741.366	0.867	2749274	WORD_OFF	n/a	n/a	PEN	n/a	3	19	[0, 0, 0]	n/a	catFR1	1	R1243T
2742.233	1.617	2750141	WORD	n/a	wordpools/wordpool_categorized_EN.txt	RULER	OfficeSupplies	4	19	[0, 0, 0]	n/a	catFR1	1	R1243T
2743.85	0.832	2751757	WORD_OFF	n/a	n/a	RULER	n/a	4	19	[0, 0, 0]	n/a	catFR1	1	R1243T
2744.682	1.601	2752589	WORD	n/a	wordpools/wordpool_categorized_EN.txt	ORANGE	Fruit	5	19	[0, 0, 0]	n/a	catFR1	1	R1243T
2746.283	0.801	2754190	WORD_OFF	n/a	n/a	ORANGE	n/a	5	19	[0, 0, 0]	n/a	catFR1	1	R1243T
2747.084	1.617	2754991	WORD	n/a	wordpools/wordpool_categorized_EN.txt	BANANA	Fruit	6	19	[0, 0, 0]	n/a	catFR1	1	R1243T
2748.701	0.783	2756608	WORD_OFF	n/a	n/a	BANANA	n/a	6	19	[0, 0, 0]	n/a	catFR1	1	R1243T
2749.484	1.617	2757391	WORD	n/a	wordpools/wordpool_categorized_EN.txt	BINDER	OfficeSupplies	7	19	[0, 0, 0]	n/a	catFR1	1	R1243T
2751.101	0.95	2759008	WORD_OFF	n/a	n/a	BINDER	n/a	7	19	[0, 0, 0]	n/a	catFR1	1	R1243T
2752.051	1.616	2759958	WORD	n/a	wordpools/wordpool_categorized_EN.txt	FOLDER	OfficeSupplies	8	19	[0, 0, 0]	n/a	catFR1	1	R1243T
2753.667	0.885	2761574	WORD_OFF	n/a	n/a	FOLDER	n/a	8	19	[0, 0, 0]	n/a	catFR1	1	R1243T
2754.552	1.617	2762459	WORD	n/a	wordpools/wordpool_categorized_EN.txt	ROOF	Building	9	19	[0, 0, 0]	n/a	catFR1	1	R1243T
2756.169	0.783	2764076	WORD_OFF	n/a	n/a	ROOF	n/a	9	19	[0, 0, 0]	n/a	catFR1	1	R1243T
2756.952	1.617	2764859	WORD	n/a	wordpools/wordpool_categorized_EN.txt	HALLWAY	Building	10	19	[0, 0, 0]	n/a	catFR1	1	R1243T
2758.569	0.85	2766476	WORD_OFF	n/a	n/a	HALLWAY	n/a	10	19	[0, 0, 0]	n/a	catFR1	1	R1243T
2759.419	1.617	2767326	WORD	n/a	wordpools/wordpool_categorized_EN.txt	GRAPE	Fruit	11	19	[0, 0, 0]	n/a	catFR1	1	R1243T
2761.036	0.784	2768942	WORD_OFF	n/a	n/a	GRAPE	n/a	11	19	[0, 0, 0]	n/a	catFR1	1	R1243T
2761.82	1.617	2769726	WORD	n/a	wordpools/wordpool_categorized_EN.txt	BLUEBERRY	Fruit	12	19	[0, 0, 0]	n/a	catFR1	1	R1243T
2763.437	0.0	2771343	ENCODING_END	n/a	n/a	n/a	n/a	-999	19	[0, 0, 0]	n/a	catFR1	1	R1243T
2763.437	0.103	2771343	WORD_OFF	n/a	n/a	BLUEBERRY	n/a	12	19	[0, 0, 0]	n/a	catFR1	1	R1243T
2763.54	0.0	2771446	DISTRACT_START	n/a	n/a	n/a	n/a	-999	19	[0, 0, 0]	n/a	catFR1	1	R1243T
2763.54	0.013	2771446	START	n/a	n/a	n/a	n/a	-999	19	[-999, -999, -999]	n/a	catFR1	1	R1243T
2763.553	9.652	2771459	PROB	9.652	n/a	n/a	n/a	-999	19	[7, 1, 5]	13	catFR1	1	R1243T
2773.205	5.601	2781111	PROB	5.601	n/a	n/a	n/a	-999	19	[6, 2, 4]	12	catFR1	1	R1243T
2778.806	5.593	2786711	PROB	5.593	n/a	n/a	n/a	-999	19	[3, 3, 4]	10	catFR1	1	R1243T
2784.399	0.008	2792304	STOP	n/a	n/a	n/a	n/a	-999	19	[-999, -999, -999]	n/a	catFR1	1	R1243T
2784.407	0.7	2792312	DISTRACT_END	n/a	n/a	n/a	n/a	-999	19	[0, 0, 0]	n/a	catFR1	1	R1243T
2785.107	0.518	2793012	RETRIEVAL_ORIENT	n/a	n/a	n/a	n/a	-999	19	[0, 0, 0]	n/a	catFR1	1	R1243T
2785.625	1.872	2793530	REC_START	n/a	n/a	n/a	n/a	-999	19	[0, 0, 0]	n/a	catFR1	1	R1243T
2787.497	1.811	2795402	REC_WORD	1.811	n/a	CEILING	Building	1	19	[0, 0, 0]	n/a	catFR1	1	R1243T
2789.308	1.96	2797213	REC_WORD	1.96	n/a	WALL	Building	2	19	[0, 0, 0]	n/a	catFR1	1	R1243T
2791.268	3.598	2799173	REC_WORD	3.598	n/a	ROOF	Building	9	19	[0, 0, 0]	n/a	catFR1	1	R1243T
2794.866	20.767	2802770	REC_WORD	20.767	n/a	HALLWAY	Building	10	19	[0, 0, 0]	n/a	catFR1	1	R1243T
2815.633	5.898	2823536	REC_END	n/a	n/a	n/a	n/a	-999	19	[0, 0, 0]	n/a	catFR1	1	R1243T
2821.531	0.5	2829434	TRIAL	n/a	n/a	n/a	n/a	-999	20	[0, 0, 0]	n/a	catFR1	1	R1243T
2822.031	10.428	2829934	COUNTDOWN_START	n/a	n/a	n/a	n/a	-999	20	[0, 0, 0]	n/a	catFR1	1	R1243T
2832.459	0.007	2840361	COUNTDOWN_END	n/a	n/a	n/a	n/a	-999	20	[0, 0, 0]	n/a	catFR1	1	R1243T
2832.466	1.617	2840368	ORIENT	n/a	n/a	n/a	n/a	-999	20	[0, 0, 0]	n/a	catFR1	1	R1243T
2834.083	2.25	2841985	ORIENT_OFF	n/a	n/a	n/a	n/a	-999	20	[0, 0, 0]	n/a	catFR1	1	R1243T
2836.333	1.617	2844235	WORD	n/a	wordpools/wordpool_categorized_EN.txt	DRIZZLE	Weather	1	20	[0, 0, 0]	n/a	catFR1	1	R1243T
2837.95	0.817	2845852	WORD_OFF	n/a	n/a	DRIZZLE	n/a	1	20	[0, 0, 0]	n/a	catFR1	1	R1243T
2838.767	1.617	2846669	WORD	n/a	wordpools/wordpool_categorized_EN.txt	SNOW	Weather	2	20	[0, 0, 0]	n/a	catFR1	1	R1243T
2840.384	0.967	2848286	WORD_OFF	n/a	n/a	SNOW	n/a	2	20	[0, 0, 0]	n/a	catFR1	1	R1243T
2841.351	1.617	2849253	WORD	n/a	wordpools/wordpool_categorized_EN.txt	SPOON	KitchenTools	3	20	[0, 0, 0]	n/a	catFR1	1	R1243T
2842.968	0.85	2850869	WORD_OFF	n/a	n/a	SPOON	n/a	3	20	[0, 0, 0]	n/a	catFR1	1	R1243T
2843.818	1.617	2851719	WORD	n/a	wordpools/wordpool_categorized_EN.txt	LADLE	KitchenTools	4	20	[0, 0, 0]	n/a	catFR1	1	R1243T
2845.435	0.834	2853336	WORD_OFF	n/a	n/a	LADLE	n/a	4	20	[0, 0, 0]	n/a	catFR1	1	R1243T
2846.269	1.616	2854170	WORD	n/a	wordpools/wordpool_categorized_EN.txt	LADYBUG	Insects	5	20	[0, 0, 0]	n/a	catFR1	1	R1243T
2847.885	0.834	2855786	WORD_OFF	n/a	n/a	LADYBUG	n/a	5	20	[0, 0, 0]	n/a	catFR1	1	R1243T
2848.719	1.617	2856620	WORD	n/a	wordpools/wordpool_categorized_EN.txt	ROACH	Insects	6	20	[0, 0, 0]	n/a	catFR1	1	R1243T
2850.336	0.883	2858237	WORD_OFF	n/a	n/a	ROACH	n/a	6	20	[0, 0, 0]	n/a	catFR1	1	R1243T
2851.219	1.617	2859120	WORD	n/a	wordpools/wordpool_categorized_EN.txt	WIND	Weather	7	20	[0, 0, 0]	n/a	catFR1	1	R1243T
2852.836	0.784	2860737	WORD_OFF	n/a	n/a	WIND	n/a	7	20	[0, 0, 0]	n/a	catFR1	1	R1243T
2853.62	1.617	2861521	WORD	n/a	wordpools/wordpool_categorized_EN.txt	THUNDER	Weather	8	20	[0, 0, 0]	n/a	catFR1	1	R1243T
2855.237	0.783	2863138	WORD_OFF	n/a	n/a	THUNDER	n/a	8	20	[0, 0, 0]	n/a	catFR1	1	R1243T
2856.02	1.617	2863921	WORD	n/a	wordpools/wordpool_categorized_EN.txt	COLANDER	KitchenTools	9	20	[0, 0, 0]	n/a	catFR1	1	R1243T
2857.637	0.85	2865538	WORD_OFF	n/a	n/a	COLANDER	n/a	9	20	[0, 0, 0]	n/a	catFR1	1	R1243T
2858.487	1.617	2866388	WORD	n/a	wordpools/wordpool_categorized_EN.txt	STRAINER	KitchenTools	10	20	[0, 0, 0]	n/a	catFR1	1	R1243T
2860.104	0.867	2868004	WORD_OFF	n/a	n/a	STRAINER	n/a	10	20	[0, 0, 0]	n/a	catFR1	1	R1243T
2860.971	1.617	2868871	WORD	n/a	wordpools/wordpool_categorized_EN.txt	ANT	Insects	11	20	[0, 0, 0]	n/a	catFR1	1	R1243T
2862.588	0.9	2870488	WORD_OFF	n/a	n/a	ANT	n/a	11	20	[0, 0, 0]	n/a	catFR1	1	R1243T
2863.488	1.617	2871388	WORD	n/a	wordpools/wordpool_categorized_EN.txt	MOSQUITO	Insects	12	20	[0, 0, 0]	n/a	catFR1	1	R1243T
2865.105	0.0	2873005	WORD_OFF	n/a	n/a	MOSQUITO	n/a	12	20	[0, 0, 0]	n/a	catFR1	1	R1243T
2865.105	0.106	2873005	ENCODING_END	n/a	n/a	n/a	n/a	-999	20	[0, 0, 0]	n/a	catFR1	1	R1243T
2865.211	0.0	2873111	DISTRACT_START	n/a	n/a	n/a	n/a	-999	20	[0, 0, 0]	n/a	catFR1	1	R1243T
2865.211	0.011	2873111	START	n/a	n/a	n/a	n/a	-999	20	[-999, -999, -999]	n/a	catFR1	1	R1243T
2865.222	6.651	2873122	PROB	6.651	n/a	n/a	n/a	-999	20	[6, 1, 1]	8	catFR1	1	R1243T
2871.873	7.985	2879773	PROB	7.985	n/a	n/a	n/a	-999	20	[6, 8, 6]	20	catFR1	1	R1243T
2879.858	3.951	2887757	PROB	3.951	n/a	n/a	n/a	-999	20	[6, 1, 1]	8	catFR1	1	R1243T
2883.809	8.236	2891708	PROB	8.236	n/a	n/a	n/a	-999	20	[6, 2, 7]	15	catFR1	1	R1243T
2892.045	0.015	2899944	STOP	n/a	n/a	n/a	n/a	-999	20	[-999, -999, -999]	n/a	catFR1	1	R1243T
2892.06	0.534	2899959	DISTRACT_END	n/a	n/a	n/a	n/a	-999	20	[0, 0, 0]	n/a	catFR1	1	R1243T
2892.594	0.517	2900493	RETRIEVAL_ORIENT	n/a	n/a	n/a	n/a	-999	20	[0, 0, 0]	n/a	catFR1	1	R1243T
2893.111	4.509	2901009	REC_START	n/a	n/a	n/a	n/a	-999	20	[0, 0, 0]	n/a	catFR1	1	R1243T
2897.62	3.732	2905518	REC_WORD	3.732	n/a	MOSQUITO	Insects	12	20	[0, 0, 0]	n/a	catFR1	1	R1243T
2901.352	9.94	2909250	REC_WORD	9.94	n/a	FLY	n/a	-999	20	[0, 0, 0]	n/a	catFR1	1	R1243T
2911.292	7.379	2919189	REC_WORD	7.379	n/a	COW	n/a	-999	20	[0, 0, 0]	n/a	catFR1	1	R1243T
2918.671	4.448	2926568	REC_WORD	4.448	n/a	HOOF	n/a	-999	20	[0, 0, 0]	n/a	catFR1	1	R1243T
2923.119	5.53	2931016	REC_END	n/a	n/a	n/a	n/a	-999	20	[0, 0, 0]	n/a	catFR1	1	R1243T
2928.649	0.5	2936545	TRIAL	n/a	n/a	n/a	n/a	-999	21	[0, 0, 0]	n/a	catFR1	1	R1243T
2929.149	10.428	2937045	COUNTDOWN_START	n/a	n/a	n/a	n/a	-999	21	[0, 0, 0]	n/a	catFR1	1	R1243T
2939.577	0.009	2947473	COUNTDOWN_END	n/a	n/a	n/a	n/a	-999	21	[0, 0, 0]	n/a	catFR1	1	R1243T
2939.586	1.616	2947482	ORIENT	n/a	n/a	n/a	n/a	-999	21	[0, 0, 0]	n/a	catFR1	1	R1243T
2941.202	2.051	2949098	ORIENT_OFF	n/a	n/a	n/a	n/a	-999	21	[0, 0, 0]	n/a	catFR1	1	R1243T
2943.253	1.617	2951148	WORD	n/a	wordpools/wordpool_categorized_EN.txt	WINE	Beverages	1	21	[0, 0, 0]	n/a	catFR1	1	R1243T
2944.87	0.933	2952765	WORD_OFF	n/a	n/a	WINE	n/a	1	21	[0, 0, 0]	n/a	catFR1	1	R1243T
2945.803	1.617	2953698	WORD	n/a	wordpools/wordpool_categorized_EN.txt	MILK	Beverages	2	21	[0, 0, 0]	n/a	catFR1	1	R1243T
2947.42	0.85	2955315	WORD_OFF	n/a	n/a	MILK	n/a	2	21	[0, 0, 0]	n/a	catFR1	1	R1243T
2948.27	1.617	2956165	WORD	n/a	wordpools/wordpool_categorized_EN.txt	SCREWDRIVER	Tools	3	21	[0, 0, 0]	n/a	catFR1	1	R1243T
2949.887	0.834	2957782	WORD_OFF	n/a	n/a	SCREWDRIVER	n/a	3	21	[0, 0, 0]	n/a	catFR1	1	R1243T
2950.721	1.617	2958616	WORD	n/a	wordpools/wordpool_categorized_EN.txt	LEVEL	Tools	4	21	[0, 0, 0]	n/a	catFR1	1	R1243T
2952.338	0.85	2960233	WORD_OFF	n/a	n/a	LEVEL	n/a	4	21	[0, 0, 0]	n/a	catFR1	1	R1243T
2953.188	1.617	2961083	WORD	n/a	wordpools/wordpool_categorized_EN.txt	CHAIR	Furniture	5	21	[0, 0, 0]	n/a	catFR1	1	R1243T
2954.805	0.95	2962700	WORD_OFF	n/a	n/a	CHAIR	n/a	5	21	[0, 0, 0]	n/a	catFR1	1	R1243T
2955.755	1.617	2963650	WORD	n/a	wordpools/wordpool_categorized_EN.txt	SOFA	Furniture	6	21	[0, 0, 0]	n/a	catFR1	1	R1243T
2957.372	0.9	2965267	WORD_OFF	n/a	n/a	SOFA	n/a	6	21	[0, 0, 0]	n/a	catFR1	1	R1243T
2958.272	1.617	2966167	WORD	n/a	wordpools/wordpool_categorized_EN.txt	PLIERS	Tools	7	21	[0, 0, 0]	n/a	catFR1	1	R1243T
2959.889	0.95	2967783	WORD_OFF	n/a	n/a	PLIERS	n/a	7	21	[0, 0, 0]	n/a	catFR1	1	R1243T
2960.839	1.617	2968733	WORD	n/a	wordpools/wordpool_categorized_EN.txt	SAW	Tools	8	21	[0, 0, 0]	n/a	catFR1	1	R1243T
2962.456	0.784	2970350	WORD_OFF	n/a	n/a	SAW	n/a	8	21	[0, 0, 0]	n/a	catFR1	1	R1243T
2963.24	1.617	2971134	WORD	n/a	wordpools/wordpool_categorized_EN.txt	WATER	Beverages	9	21	[0, 0, 0]	n/a	catFR1	1	R1243T
2964.857	0.816	2972751	WORD_OFF	n/a	n/a	WATER	n/a	9	21	[0, 0, 0]	n/a	catFR1	1	R1243T
2965.673	1.618	2973567	WORD	n/a	wordpools/wordpool_categorized_EN.txt	TEA	Beverages	10	21	[0, 0, 0]	n/a	catFR1	1	R1243T
2967.291	0.916	2975185	WORD_OFF	n/a	n/a	TEA	n/a	10	21	[0, 0, 0]	n/a	catFR1	1	R1243T
2968.207	1.617	2976101	WORD	n/a	wordpools/wordpool_categorized_EN.txt	DESK	Furniture	11	21	[0, 0, 0]	n/a	catFR1	1	R1243T
2969.824	0.934	2977718	WORD_OFF	n/a	n/a	DESK	n/a	11	21	[0, 0, 0]	n/a	catFR1	1	R1243T
2970.758	1.617	2978652	WORD	n/a	wordpools/wordpool_categorized_EN.txt	CABINET	Furniture	12	21	[0, 0, 0]	n/a	catFR1	1	R1243T
2972.375	0.0	2980269	ENCODING_END	n/a	n/a	n/a	n/a	-999	21	[0, 0, 0]	n/a	catFR1	1	R1243T
2972.375	0.129	2980269	WORD_OFF	n/a	n/a	CABINET	n/a	12	21	[0, 0, 0]	n/a	catFR1	1	R1243T
2972.504	0.0	2980398	DISTRACT_START	n/a	n/a	n/a	n/a	-999	21	[0, 0, 0]	n/a	catFR1	1	R1243T
2972.504	0.021	2980398	START	n/a	n/a	n/a	n/a	-999	21	[-999, -999, -999]	n/a	catFR1	1	R1243T
2972.525	7.001	2980419	PROB	7.001	n/a	n/a	n/a	-999	21	[1, 8, 6]	15	catFR1	1	R1243T
2979.526	4.468	2987419	PROB	4.468	n/a	n/a	n/a	-999	21	[1, 2, 8]	11	catFR1	1	R1243T
2983.994	5.617	2991887	PROB	5.617	n/a	n/a	n/a	-999	21	[5, 4, 6]	15	catFR1	1	R1243T
2989.611	4.554	2997504	PROB	4.554	n/a	n/a	n/a	-999	21	[5, 5, 3]	13	catFR1	1	R1243T
2994.165	0.014	3002057	STOP	n/a	n/a	n/a	n/a	-999	21	[-999, -999, -999]	n/a	catFR1	1	R1243T
2994.179	0.55	3002071	DISTRACT_END	n/a	n/a	n/a	n/a	-999	21	[0, 0, 0]	n/a	catFR1	1	R1243T
2994.729	0.517	3002621	RETRIEVAL_ORIENT	n/a	n/a	n/a	n/a	-999	21	[0, 0, 0]	n/a	catFR1	1	R1243T
2995.246	2.264	3003138	REC_START	n/a	n/a	n/a	n/a	-999	21	[0, 0, 0]	n/a	catFR1	1	R1243T
2997.51	0.626	3005402	REC_WORD	0.626	n/a	WINE	Beverages	1	21	[0, 0, 0]	n/a	catFR1	1	R1243T
2998.136	25.33	3006028	REC_WORD	25.33	n/a	MILK	Beverages	2	21	[0, 0, 0]	n/a	catFR1	1	R1243T
3023.466	1.62	3031357	REC_WORD	1.62	n/a	PLIERS	Tools	7	21	[0, 0, 0]	n/a	catFR1	1	R1243T
3025.086	0.172	3032977	REC_WORD_VV	0.172	n/a	<>	n/a	-999	21	[0, 0, 0]	n/a	catFR1	1	R1243T
3025.258	5.561	3033148	REC_END	n/a	n/a	n/a	n/a	-999	21	[0, 0, 0]	n/a	catFR1	1	R1243T
3030.819	0.5	3038709	TRIAL	n/a	n/a	n/a	n/a	-999	22	[0, 0, 0]	n/a	catFR1	1	R1243T
3031.319	10.428	3039209	COUNTDOWN_START	n/a	n/a	n/a	n/a	-999	22	[0, 0, 0]	n/a	catFR1	1	R1243T
3041.747	0.007	3049637	COUNTDOWN_END	n/a	n/a	n/a	n/a	-999	22	[0, 0, 0]	n/a	catFR1	1	R1243T
3041.754	1.617	3049644	ORIENT	n/a	n/a	n/a	n/a	-999	22	[0, 0, 0]	n/a	catFR1	1	R1243T
3043.371	2.0	3051260	ORIENT_OFF	n/a	n/a	n/a	n/a	-999	22	[0, 0, 0]	n/a	catFR1	1	R1243T
3045.371	1.617	3053260	WORD	n/a	wordpools/wordpool_categorized_EN.txt	NIGHTSTAND	Furniture	1	22	[0, 0, 0]	n/a	catFR1	1	R1243T
3046.988	1.001	3054877	WORD_OFF	n/a	n/a	NIGHTSTAND	n/a	1	22	[0, 0, 0]	n/a	catFR1	1	R1243T
3047.989	1.617	3055878	WORD	n/a	wordpools/wordpool_categorized_EN.txt	DRESSER	Furniture	2	22	[0, 0, 0]	n/a	catFR1	1	R1243T
3049.606	0.833	3057495	WORD_OFF	n/a	n/a	DRESSER	n/a	2	22	[0, 0, 0]	n/a	catFR1	1	R1243T
3050.439	1.617	3058328	WORD	n/a	wordpools/wordpool_categorized_EN.txt	WHALE	OceanAnimals	3	22	[0, 0, 0]	n/a	catFR1	1	R1243T
3052.056	0.95	3059945	WORD_OFF	n/a	n/a	WHALE	n/a	3	22	[0, 0, 0]	n/a	catFR1	1	R1243T
3053.006	1.617	3060895	WORD	n/a	wordpools/wordpool_categorized_EN.txt	TURTLE	OceanAnimals	4	22	[0, 0, 0]	n/a	catFR1	1	R1243T
3054.623	0.984	3062512	WORD_OFF	n/a	n/a	TURTLE	n/a	4	22	[0, 0, 0]	n/a	catFR1	1	R1243T
3055.607	1.617	3063496	WORD	n/a	wordpools/wordpool_categorized_EN.txt	JACKET	Clothing	5	22	[0, 0, 0]	n/a	catFR1	1	R1243T
3057.224	0.817	3065113	WORD_OFF	n/a	n/a	JACKET	n/a	5	22	[0, 0, 0]	n/a	catFR1	1	R1243T
3058.041	1.615	3065930	WORD	n/a	wordpools/wordpool_categorized_EN.txt	BLOUSE	Clothing	6	22	[0, 0, 0]	n/a	catFR1	1	R1243T
3059.656	0.785	3067544	WORD_OFF	n/a	n/a	BLOUSE	n/a	6	22	[0, 0, 0]	n/a	catFR1	1	R1243T
3060.441	1.617	3068329	WORD	n/a	wordpools/wordpool_categorized_EN.txt	BED	Furniture	7	22	[0, 0, 0]	n/a	catFR1	1	R1243T
3062.058	0.833	3069946	WORD_OFF	n/a	n/a	BED	n/a	7	22	[0, 0, 0]	n/a	catFR1	1	R1243T
3062.891	1.617	3070779	WORD	n/a	wordpools/wordpool_categorized_EN.txt	BOOKCASE	Furniture	8	22	[0, 0, 0]	n/a	catFR1	1	R1243T
3064.508	0.95	3072396	WORD_OFF	n/a	n/a	BOOKCASE	n/a	8	22	[0, 0, 0]	n/a	catFR1	1	R1243T
3065.458	1.618	3073346	WORD	n/a	wordpools/wordpool_categorized_EN.txt	JELLYFISH	OceanAnimals	9	22	[0, 0, 0]	n/a	catFR1	1	R1243T
3067.076	0.783	3074964	WORD_OFF	n/a	n/a	JELLYFISH	n/a	9	22	[0, 0, 0]	n/a	catFR1	1	R1243T
3067.859	1.617	3075747	WORD	n/a	wordpools/wordpool_categorized_EN.txt	OYSTER	OceanAnimals	10	22	[0, 0, 0]	n/a	catFR1	1	R1243T
3069.476	0.933	3077364	WORD_OFF	n/a	n/a	OYSTER	n/a	10	22	[0, 0, 0]	n/a	catFR1	1	R1243T
3070.409	1.617	3078297	WORD	n/a	wordpools/wordpool_categorized_EN.txt	SOCKS	Clothing	11	22	[0, 0, 0]	n/a	catFR1	1	R1243T
3072.026	0.901	3079914	WORD_OFF	n/a	n/a	SOCKS	n/a	11	22	[0, 0, 0]	n/a	catFR1	1	R1243T
3072.927	1.616	3080815	WORD	n/a	wordpools/wordpool_categorized_EN.txt	COAT	Clothing	12	22	[0, 0, 0]	n/a	catFR1	1	R1243T
3074.543	0.001	3082431	WORD_OFF	n/a	n/a	COAT	n/a	12	22	[0, 0, 0]	n/a	catFR1	1	R1243T
3074.544	0.1	3082432	ENCODING_END	n/a	n/a	n/a	n/a	-999	22	[0, 0, 0]	n/a	catFR1	1	R1243T
3074.644	0.0	3082532	DISTRACT_START	n/a	n/a	n/a	n/a	-999	22	[0, 0, 0]	n/a	catFR1	1	R1243T
3074.644	0.015	3082532	START	n/a	n/a	n/a	n/a	-999	22	[-999, -999, -999]	n/a	catFR1	1	R1243T
3074.659	10.887	3082547	PROB	10.887	n/a	n/a	n/a	-999	22	[9, 7, 7]	23	catFR1	1	R1243T
3085.546	7.451	3093433	PROB	7.451	n/a	n/a	n/a	-999	22	[7, 8, 7]	22	catFR1	1	R1243T
3092.997	5.514	3100883	PROB	5.514	n/a	n/a	n/a	-999	22	[5, 8, 2]	15	catFR1	1	R1243T
3098.511	0.02	3106397	STOP	n/a	n/a	n/a	n/a	-999	22	[-999, -999, -999]	n/a	catFR1	1	R1243T
3098.531	0.7	3106417	DISTRACT_END	n/a	n/a	n/a	n/a	-999	22	[0, 0, 0]	n/a	catFR1	1	R1243T
3099.231	0.518	3107117	RETRIEVAL_ORIENT	n/a	n/a	n/a	n/a	-999	22	[0, 0, 0]	n/a	catFR1	1	R1243T
3099.749	26.883	3107635	REC_START	n/a	n/a	n/a	n/a	-999	22	[0, 0, 0]	n/a	catFR1	1	R1243T
3126.632	1.026	3134516	REC_WORD	1.026	n/a	BED	Furniture	7	22	[0, 0, 0]	n/a	catFR1	1	R1243T
3127.658	2.005	3135542	REC_WORD	2.005	n/a	BRICK	n/a	-999	22	[0, 0, 0]	n/a	catFR1	1	R1243T
3129.663	0.096	3137547	REC_WORD_VV	0.096	n/a	<>	n/a	-999	22	[0, 0, 0]	n/a	catFR1	1	R1243T
3129.759	5.746	3137643	REC_END	n/a	n/a	n/a	n/a	-999	22	[0, 0, 0]	n/a	catFR1	1	R1243T
3135.505	0.5	3143389	TRIAL	n/a	n/a	n/a	n/a	-999	23	[0, 0, 0]	n/a	catFR1	1	R1243T
3136.005	10.428	3143889	COUNTDOWN_START	n/a	n/a	n/a	n/a	-999	23	[0, 0, 0]	n/a	catFR1	1	R1243T
3146.433	0.007	3154316	COUNTDOWN_END	n/a	n/a	n/a	n/a	-999	23	[0, 0, 0]	n/a	catFR1	1	R1243T
3146.44	1.617	3154323	ORIENT	n/a	n/a	n/a	n/a	-999	23	[0, 0, 0]	n/a	catFR1	1	R1243T
3148.057	2.034	3155940	ORIENT_OFF	n/a	n/a	n/a	n/a	-999	23	[0, 0, 0]	n/a	catFR1	1	R1243T
3150.091	1.617	3157974	WORD	n/a	wordpools/wordpool_categorized_EN.txt	SHIRT	Clothing	1	23	[0, 0, 0]	n/a	catFR1	1	R1243T
3151.708	0.917	3159591	WORD_OFF	n/a	n/a	SHIRT	n/a	1	23	[0, 0, 0]	n/a	catFR1	1	R1243T
3152.625	1.616	3160508	WORD	n/a	wordpools/wordpool_categorized_EN.txt	UNDERWEAR	Clothing	2	23	[0, 0, 0]	n/a	catFR1	1	R1243T
3154.241	0.817	3162124	WORD_OFF	n/a	n/a	UNDERWEAR	n/a	2	23	[0, 0, 0]	n/a	catFR1	1	R1243T
3155.058	1.616	3162941	WORD	n/a	wordpools/wordpool_categorized_EN.txt	TUBA	Instruments	3	23	[0, 0, 0]	n/a	catFR1	1	R1243T
3156.674	0.835	3164557	WORD_OFF	n/a	n/a	TUBA	n/a	3	23	[0, 0, 0]	n/a	catFR1	1	R1243T
3157.509	1.617	3165392	WORD	n/a	wordpools/wordpool_categorized_EN.txt	FLUTE	Instruments	4	23	[0, 0, 0]	n/a	catFR1	1	R1243T
3159.126	0.783	3167008	WORD_OFF	n/a	n/a	FLUTE	n/a	4	23	[0, 0, 0]	n/a	catFR1	1	R1243T
3159.909	1.617	3167791	WORD	n/a	wordpools/wordpool_categorized_EN.txt	FOG	Weather	5	23	[0, 0, 0]	n/a	catFR1	1	R1243T
3161.526	0.817	3169408	WORD_OFF	n/a	n/a	FOG	n/a	5	23	[0, 0, 0]	n/a	catFR1	1	R1243T
3162.343	1.617	3170225	WORD	n/a	wordpools/wordpool_categorized_EN.txt	HURRICANE	Weather	6	23	[0, 0, 0]	n/a	catFR1	1	R1243T
3163.96	0.917	3171842	WORD_OFF	n/a	n/a	HURRICANE	n/a	6	23	[0, 0, 0]	n/a	catFR1	1	R1243T
