onset	duration	sample	trial_type	response_time	stim_file	item_name	category	serialpos	list	test	answer	experiment	session	subject
0.0	0.0	6633	INSTRUCT_VIDEO	n/a	n/a	n/a	n/a	-999	-999	[0, 0, 0]	n/a	catFR1	0	R1231M
0.0	11.103	6633	INSTRUCT_VIDEO	n/a	n/a	n/a	n/a	-999	-999	[0, 0, 0]	n/a	catFR1	0	R1231M
11.103	0.0	17736	SESS_START	n/a	n/a	n/a	n/a	-999	-999	[0, 0, 0]	n/a	catFR1	0	R1231M
11.103	11.5	17736	MIC_TEST	n/a	n/a	n/a	n/a	-999	-999	[0, 0, 0]	n/a	catFR1	0	R1231M
22.603	3.352	29235	PRACTICE_TRIAL	n/a	n/a	n/a	n/a	-999	-999	[0, 0, 0]	n/a	catFR1	0	R1231M
25.955	10.0	32587	COUNTDOWN_START	n/a	n/a	n/a	n/a	-999	-999	[0, 0, 0]	n/a	catFR1	0	R1231M
36.383	0.007	43014	COUNTDOWN_END	n/a	n/a	n/a	n/a	-999	-999	[0, 0, 0]	n/a	catFR1	0	R1231M
36.39	1.6	43021	PRACTICE_ORIENT	n/a	n/a	n/a	n/a	-999	-999	[0, 0, 0]	n/a	catFR1	0	R1231M
38.007	1.934	44638	PRACTICE_ORIENT_OFF	n/a	n/a	n/a	n/a	-999	-999	[0, 0, 0]	n/a	catFR1	0	R1231M
39.941	1.6	46572	PRACTICE_WORD	n/a	n/a	CHEST	n/a	-999	-999	[0, 0, 0]	n/a	catFR1	0	R1231M
41.558	0.9	48189	PRACTICE_WORD_OFF	n/a	n/a	n/a	n/a	-999	-999	[0, 0, 0]	n/a	catFR1	0	R1231M
42.458	1.6	49089	PRACTICE_WORD	n/a	n/a	RING	n/a	-999	-999	[0, 0, 0]	n/a	catFR1	0	R1231M
44.075	1.0	50706	PRACTICE_WORD_OFF	n/a	n/a	n/a	n/a	-999	-999	[0, 0, 0]	n/a	catFR1	0	R1231M
45.075	1.6	51706	PRACTICE_WORD	n/a	n/a	CAMEL	n/a	-999	-999	[0, 0, 0]	n/a	catFR1	0	R1231M
46.693	0.833	53324	PRACTICE_WORD_OFF	n/a	n/a	n/a	n/a	-999	-999	[0, 0, 0]	n/a	catFR1	0	R1231M
47.526	1.6	54157	PRACTICE_WORD	n/a	n/a	WAGON	n/a	-999	-999	[0, 0, 0]	n/a	catFR1	0	R1231M
49.143	0.866	55773	PRACTICE_WORD_OFF	n/a	n/a	n/a	n/a	-999	-999	[0, 0, 0]	n/a	catFR1	0	R1231M
50.009	1.6	56639	PRACTICE_WORD	n/a	n/a	COTTON	n/a	-999	-999	[0, 0, 0]	n/a	catFR1	0	R1231M
51.627	0.783	58257	PRACTICE_WORD_OFF	n/a	n/a	n/a	n/a	-999	-999	[0, 0, 0]	n/a	catFR1	0	R1231M
52.41	1.6	59040	PRACTICE_WORD	n/a	n/a	WATCH	n/a	-999	-999	[0, 0, 0]	n/a	catFR1	0	R1231M
54.027	1.0	60657	PRACTICE_WORD_OFF	n/a	n/a	n/a	n/a	-999	-999	[0, 0, 0]	n/a	catFR1	0	R1231M
55.027	1.6	61657	PRACTICE_WORD	n/a	n/a	IRON	n/a	-999	-999	[0, 0, 0]	n/a	catFR1	0	R1231M
56.645	0.967	63275	PRACTICE_WORD_OFF	n/a	n/a	n/a	n/a	-999	-999	[0, 0, 0]	n/a	catFR1	0	R1231M
57.612	1.6	64242	PRACTICE_WORD	n/a	n/a	RHINO	n/a	-999	-999	[0, 0, 0]	n/a	catFR1	0	R1231M
59.228	1.0	65858	PRACTICE_WORD_OFF	n/a	n/a	n/a	n/a	-999	-999	[0, 0, 0]	n/a	catFR1	0	R1231M
60.228	1.6	66858	PRACTICE_WORD	n/a	n/a	ATTIC	n/a	-999	-999	[0, 0, 0]	n/a	catFR1	0	R1231M
61.845	0.785	68475	PRACTICE_WORD_OFF	n/a	n/a	n/a	n/a	-999	-999	[0, 0, 0]	n/a	catFR1	0	R1231M
62.63	1.6	69260	PRACTICE_WORD	n/a	n/a	FLOOD	n/a	-999	-999	[0, 0, 0]	n/a	catFR1	0	R1231M
64.246	0.883	70876	PRACTICE_WORD_OFF	n/a	n/a	n/a	n/a	-999	-999	[0, 0, 0]	n/a	catFR1	0	R1231M
65.129	1.6	71759	PRACTICE_WORD	n/a	n/a	TONGUE	n/a	-999	-999	[0, 0, 0]	n/a	catFR1	0	R1231M
66.73	0.951	73359	PRACTICE_WORD_OFF	n/a	n/a	n/a	n/a	-999	-999	[0, 0, 0]	n/a	catFR1	0	R1231M
67.681	1.6	74310	PRACTICE_WORD	n/a	n/a	BEAM	n/a	-999	-999	[0, 0, 0]	n/a	catFR1	0	R1231M
69.297	0.0	75926	ENCODING_END	n/a	n/a	n/a	n/a	-999	-999	[0, 0, 0]	n/a	catFR1	0	R1231M
69.297	0.0	75926	PRACTICE_WORD_OFF	n/a	n/a	n/a	n/a	-999	-999	[0, 0, 0]	n/a	catFR1	0	R1231M
69.297	0.0	75926	DISTRACT_START	n/a	n/a	n/a	n/a	-999	-999	[0, 0, 0]	n/a	catFR1	0	R1231M
69.297	0.016	75926	START	n/a	n/a	n/a	n/a	-999	1	[-999, -999, -999]	n/a	catFR1	0	R1231M
69.313	59.163	75942	PROB	59.163	n/a	n/a	n/a	-999	1	[4, 1, 2]	7.0	catFR1	0	R1231M
128.476	0.016	135102	STOP	n/a	n/a	n/a	n/a	-999	1	[-999, -999, -999]	n/a	catFR1	0	R1231M
128.492	0.549	135118	DISTRACT_END	n/a	n/a	n/a	n/a	-999	-999	[0, 0, 0]	n/a	catFR1	0	R1231M
129.041	60.195	135667	RETRIEVAL_ORIENT	n/a	n/a	n/a	n/a	-999	-999	[0, 0, 0]	n/a	catFR1	0	R1231M
189.236	0.5	195858	TRIAL	n/a	n/a	n/a	n/a	-999	1	[0, 0, 0]	n/a	catFR1	0	R1231M
189.736	10.0	196358	COUNTDOWN_START	n/a	n/a	n/a	n/a	-999	1	[0, 0, 0]	n/a	catFR1	0	R1231M
200.164	0.008	206786	COUNTDOWN_END	n/a	n/a	n/a	n/a	-999	1	[0, 0, 0]	n/a	catFR1	0	R1231M
200.172	1.6	206794	ORIENT	n/a	n/a	n/a	n/a	-999	1	[0, 0, 0]	n/a	catFR1	0	R1231M
201.773	2.049	208395	ORIENT_OFF	n/a	n/a	n/a	n/a	-999	1	[0, 0, 0]	n/a	catFR1	0	R1231M
203.822	1.6	210444	WORD	n/a	wordpools/wordpool_categorized_EN.txt	HEAD	BodyParts	1	1	[0, 0, 0]	n/a	catFR1	0	R1231M
205.439	0.767	212060	WORD_OFF	n/a	n/a	n/a	n/a	-999	1	[0, 0, 0]	n/a	catFR1	0	R1231M
206.206	1.6	212827	WORD	n/a	wordpools/wordpool_categorized_EN.txt	FOOT	BodyParts	2	1	[0, 0, 0]	n/a	catFR1	0	R1231M
207.823	0.918	214444	WORD_OFF	n/a	n/a	n/a	n/a	-999	1	[0, 0, 0]	n/a	catFR1	0	R1231M
208.741	1.6	215362	WORD	n/a	wordpools/wordpool_categorized_EN.txt	TROMBONE	Instruments	3	1	[0, 0, 0]	n/a	catFR1	0	R1231M
210.357	0.933	216978	WORD_OFF	n/a	n/a	n/a	n/a	-999	1	[0, 0, 0]	n/a	catFR1	0	R1231M
211.29	1.6	217911	WORD	n/a	wordpools/wordpool_categorized_EN.txt	PIANO	Instruments	4	1	[0, 0, 0]	n/a	catFR1	0	R1231M
212.907	0.951	219528	WORD_OFF	n/a	n/a	n/a	n/a	-999	1	[0, 0, 0]	n/a	catFR1	0	R1231M
213.858	1.6	220479	WORD	n/a	wordpools/wordpool_categorized_EN.txt	SHRIMP	OceanAnimals	5	1	[0, 0, 0]	n/a	catFR1	0	R1231M
215.475	0.766	222096	WORD_OFF	n/a	n/a	n/a	n/a	-999	1	[0, 0, 0]	n/a	catFR1	0	R1231M
216.241	1.6	222862	WORD	n/a	wordpools/wordpool_categorized_EN.txt	SQUID	OceanAnimals	6	1	[0, 0, 0]	n/a	catFR1	0	R1231M
217.858	0.768	224479	WORD_OFF	n/a	n/a	n/a	n/a	-999	1	[0, 0, 0]	n/a	catFR1	0	R1231M
218.626	1.6	225247	WORD	n/a	wordpools/wordpool_categorized_EN.txt	FLUTE	Instruments	7	1	[0, 0, 0]	n/a	catFR1	0	R1231M
220.242	1.0	226863	WORD_OFF	n/a	n/a	n/a	n/a	-999	1	[0, 0, 0]	n/a	catFR1	0	R1231M
221.242	1.6	227863	WORD	n/a	wordpools/wordpool_categorized_EN.txt	GUITAR	Instruments	8	1	[0, 0, 0]	n/a	catFR1	0	R1231M
222.859	0.835	229479	WORD_OFF	n/a	n/a	n/a	n/a	-999	1	[0, 0, 0]	n/a	catFR1	0	R1231M
223.694	1.6	230314	WORD	n/a	wordpools/wordpool_categorized_EN.txt	FINGERS	BodyParts	9	1	[0, 0, 0]	n/a	catFR1	0	R1231M
225.31	0.95	231930	WORD_OFF	n/a	n/a	n/a	n/a	-999	1	[0, 0, 0]	n/a	catFR1	0	R1231M
226.26	1.6	232880	WORD	n/a	wordpools/wordpool_categorized_EN.txt	EYE	BodyParts	10	1	[0, 0, 0]	n/a	catFR1	0	R1231M
227.877	1.0	234497	WORD_OFF	n/a	n/a	n/a	n/a	-999	1	[0, 0, 0]	n/a	catFR1	0	R1231M
228.877	1.6	235497	WORD	n/a	wordpools/wordpool_categorized_EN.txt	TURTLE	OceanAnimals	11	1	[0, 0, 0]	n/a	catFR1	0	R1231M
230.494	0.934	237114	WORD_OFF	n/a	n/a	n/a	n/a	-999	1	[0, 0, 0]	n/a	catFR1	0	R1231M
231.428	1.6	238048	WORD	n/a	wordpools/wordpool_categorized_EN.txt	FISH	OceanAnimals	12	1	[0, 0, 0]	n/a	catFR1	0	R1231M
233.045	0.0	239665	ENCODING_END	n/a	n/a	n/a	n/a	-999	1	[0, 0, 0]	n/a	catFR1	0	R1231M
233.045	0.136	239665	WORD_OFF	n/a	n/a	n/a	n/a	-999	1	[0, 0, 0]	n/a	catFR1	0	R1231M
233.181	0.0	239801	DISTRACT_START	n/a	n/a	n/a	n/a	-999	1	[0, 0, 0]	n/a	catFR1	0	R1231M
233.181	0.014	239801	START	n/a	n/a	n/a	n/a	-999	2	[-999, -999, -999]	n/a	catFR1	0	R1231M
233.195	11.985	239815	PROB	11.946	n/a	n/a	n/a	-999	2	[7, 3, 9]	19.0	catFR1	0	R1231M
245.18	13.483	251799	PROB	13.483	n/a	n/a	n/a	-999	2	[7, 5, 6]	18.0	catFR1	0	R1231M
258.663	0.021	265281	STOP	n/a	n/a	n/a	n/a	-999	2	[-999, -999, -999]	n/a	catFR1	0	R1231M
258.684	0.666	265302	DISTRACT_END	n/a	n/a	n/a	n/a	-999	1	[0, 0, 0]	n/a	catFR1	0	R1231M
259.35	0.517	265968	RETRIEVAL_ORIENT	n/a	n/a	n/a	n/a	-999	1	[0, 0, 0]	n/a	catFR1	0	R1231M
259.867	8.978	266485	REC_START	n/a	n/a	n/a	n/a	-999	1	[0, 0, 0]	n/a	catFR1	0	R1231M
268.845	0.862	275463	REC_WORD	8.978	n/a	TURTLE	OceanAnimals	11	1	[0, 0, 0]	n/a	catFR1	0	R1231M
269.707	1.338	276325	REC_WORD	9.84	n/a	FISH	OceanAnimals	12	1	[0, 0, 0]	n/a	catFR1	0	R1231M
271.045	1.216	277663	REC_WORD	11.178	n/a	FLUTE	Instruments	7	1	[0, 0, 0]	n/a	catFR1	0	R1231M
272.261	8.564	278879	REC_WORD	12.394	n/a	GUITAR	Instruments	8	1	[0, 0, 0]	n/a	catFR1	0	R1231M
280.825	1.609	287442	REC_WORD	20.958	n/a	FOOT	BodyParts	2	1	[0, 0, 0]	n/a	catFR1	0	R1231M
282.434	7.445	289051	REC_WORD	22.567	n/a	HEAD	BodyParts	1	1	[0, 0, 0]	n/a	catFR1	0	R1231M
289.879	16.698	296496	REC_END	n/a	n/a	n/a	n/a	-999	1	[0, 0, 0]	n/a	catFR1	0	R1231M
306.577	0.5	313193	TRIAL	n/a	n/a	n/a	n/a	-999	2	[0, 0, 0]	n/a	catFR1	0	R1231M
307.077	10.0	313693	COUNTDOWN_START	n/a	n/a	n/a	n/a	-999	2	[0, 0, 0]	n/a	catFR1	0	R1231M
317.505	0.006	324120	COUNTDOWN_END	n/a	n/a	n/a	n/a	-999	2	[0, 0, 0]	n/a	catFR1	0	R1231M
317.511	1.6	324126	ORIENT	n/a	n/a	n/a	n/a	-999	2	[0, 0, 0]	n/a	catFR1	0	R1231M
319.128	2.05	325743	ORIENT_OFF	n/a	n/a	n/a	n/a	-999	2	[0, 0, 0]	n/a	catFR1	0	R1231M
321.178	1.6	327793	WORD	n/a	wordpools/wordpool_categorized_EN.txt	PIGEON	Birds	1	2	[0, 0, 0]	n/a	catFR1	0	R1231M
322.779	0.884	329394	WORD_OFF	n/a	n/a	n/a	n/a	-999	2	[0, 0, 0]	n/a	catFR1	0	R1231M
323.663	1.6	330278	WORD	n/a	wordpools/wordpool_categorized_EN.txt	HAWK	Birds	2	2	[0, 0, 0]	n/a	catFR1	0	R1231M
325.279	0.984	331894	WORD_OFF	n/a	n/a	n/a	n/a	-999	2	[0, 0, 0]	n/a	catFR1	0	R1231M
326.263	1.6	332877	WORD	n/a	wordpools/wordpool_categorized_EN.txt	RULER	OfficeSupplies	3	2	[0, 0, 0]	n/a	catFR1	0	R1231M
327.88	0.983	334494	WORD_OFF	n/a	n/a	n/a	n/a	-999	2	[0, 0, 0]	n/a	catFR1	0	R1231M
328.863	1.6	335477	WORD	n/a	wordpools/wordpool_categorized_EN.txt	STAPLER	OfficeSupplies	4	2	[0, 0, 0]	n/a	catFR1	0	R1231M
330.48	0.8	337094	WORD_OFF	n/a	n/a	n/a	n/a	-999	2	[0, 0, 0]	n/a	catFR1	0	R1231M
331.28	1.6	337894	WORD	n/a	wordpools/wordpool_categorized_EN.txt	CABBAGE	Vegetables	5	2	[0, 0, 0]	n/a	catFR1	0	R1231M
332.897	0.818	339511	WORD_OFF	n/a	n/a	n/a	n/a	-999	2	[0, 0, 0]	n/a	catFR1	0	R1231M
333.715	1.6	340329	WORD	n/a	wordpools/wordpool_categorized_EN.txt	CAULIFLOWER	Vegetables	6	2	[0, 0, 0]	n/a	catFR1	0	R1231M
335.331	0.934	341945	WORD_OFF	n/a	n/a	n/a	n/a	-999	2	[0, 0, 0]	n/a	catFR1	0	R1231M
336.265	1.6	342879	WORD	n/a	wordpools/wordpool_categorized_EN.txt	BLUEBIRD	Birds	7	2	[0, 0, 0]	n/a	catFR1	0	R1231M
337.882	0.784	344496	WORD_OFF	n/a	n/a	n/a	n/a	-999	2	[0, 0, 0]	n/a	catFR1	0	R1231M
338.666	1.6	345280	WORD	n/a	wordpools/wordpool_categorized_EN.txt	GOOSE	Birds	8	2	[0, 0, 0]	n/a	catFR1	0	R1231M
340.282	0.95	346896	WORD_OFF	n/a	n/a	n/a	n/a	-999	2	[0, 0, 0]	n/a	catFR1	0	R1231M
341.232	1.6	347846	WORD	n/a	wordpools/wordpool_categorized_EN.txt	PAPER	OfficeSupplies	9	2	[0, 0, 0]	n/a	catFR1	0	R1231M
342.849	0.885	349462	WORD_OFF	n/a	n/a	n/a	n/a	-999	2	[0, 0, 0]	n/a	catFR1	0	R1231M
343.734	1.6	350347	WORD	n/a	wordpools/wordpool_categorized_EN.txt	PENCIL	OfficeSupplies	10	2	[0, 0, 0]	n/a	catFR1	0	R1231M
345.35	0.9	351963	WORD_OFF	n/a	n/a	n/a	n/a	-999	2	[0, 0, 0]	n/a	catFR1	0	R1231M
346.25	1.6	352863	WORD	n/a	wordpools/wordpool_categorized_EN.txt	CORN	Vegetables	11	2	[0, 0, 0]	n/a	catFR1	0	R1231M
347.867	0.901	354480	WORD_OFF	n/a	n/a	n/a	n/a	-999	2	[0, 0, 0]	n/a	catFR1	0	R1231M
348.768	1.6	355381	WORD	n/a	wordpools/wordpool_categorized_EN.txt	CUCUMBER	Vegetables	12	2	[0, 0, 0]	n/a	catFR1	0	R1231M
350.384	0.0	356997	ENCODING_END	n/a	n/a	n/a	n/a	-999	2	[0, 0, 0]	n/a	catFR1	0	R1231M
350.384	0.109	356997	WORD_OFF	n/a	n/a	n/a	n/a	-999	2	[0, 0, 0]	n/a	catFR1	0	R1231M
350.493	0.0	357106	DISTRACT_START	n/a	n/a	n/a	n/a	-999	2	[0, 0, 0]	n/a	catFR1	0	R1231M
350.493	0.024	357106	START	n/a	n/a	n/a	n/a	-999	3	[-999, -999, -999]	n/a	catFR1	0	R1231M
350.517	20.769	357130	PROB	20.769	n/a	n/a	n/a	-999	3	[9, 3, 9]	21.0	catFR1	0	R1231M
371.286	0.019	377898	STOP	n/a	n/a	n/a	n/a	-999	3	[-999, -999, -999]	n/a	catFR1	0	R1231M
371.305	0.516	377917	DISTRACT_END	n/a	n/a	n/a	n/a	-999	2	[0, 0, 0]	n/a	catFR1	0	R1231M
371.821	0.518	378433	RETRIEVAL_ORIENT	n/a	n/a	n/a	n/a	-999	2	[0, 0, 0]	n/a	catFR1	0	R1231M
372.339	4.034	378951	REC_START	n/a	n/a	n/a	n/a	-999	2	[0, 0, 0]	n/a	catFR1	0	R1231M
376.373	0.962	382985	REC_WORD	4.034	n/a	PIGEON	Birds	1	2	[0, 0, 0]	n/a	catFR1	0	R1231M
377.335	8.97	383947	REC_WORD	4.996	n/a	HAWK	Birds	2	2	[0, 0, 0]	n/a	catFR1	0	R1231M
386.305	15.549	392916	REC_WORD	13.966	n/a	STAPLER	OfficeSupplies	4	2	[0, 0, 0]	n/a	catFR1	0	R1231M
401.854	0.499	408464	REC_WORD	29.515	n/a	CAULIFLOWER	Vegetables	6	2	[0, 0, 0]	n/a	catFR1	0	R1231M
402.353	27.18	408963	REC_END	n/a	n/a	n/a	n/a	-999	2	[0, 0, 0]	n/a	catFR1	0	R1231M
429.533	0.5	436141	TRIAL	n/a	n/a	n/a	n/a	-999	3	[0, 0, 0]	n/a	catFR1	0	R1231M
430.033	10.0	436641	COUNTDOWN_START	n/a	n/a	n/a	n/a	-999	3	[0, 0, 0]	n/a	catFR1	0	R1231M
440.461	0.007	447069	COUNTDOWN_END	n/a	n/a	n/a	n/a	-999	3	[0, 0, 0]	n/a	catFR1	0	R1231M
440.468	1.6	447076	ORIENT	n/a	n/a	n/a	n/a	-999	3	[0, 0, 0]	n/a	catFR1	0	R1231M
442.085	1.95	448693	ORIENT_OFF	n/a	n/a	n/a	n/a	-999	3	[0, 0, 0]	n/a	catFR1	0	R1231M
444.035	1.6	450643	WORD	n/a	wordpools/wordpool_categorized_EN.txt	ORANGUTAN	Zoo	1	3	[0, 0, 0]	n/a	catFR1	0	R1231M
445.653	0.951	452261	WORD_OFF	n/a	n/a	n/a	n/a	-999	3	[0, 0, 0]	n/a	catFR1	0	R1231M
446.604	1.6	453212	WORD	n/a	wordpools/wordpool_categorized_EN.txt	ZEBRA	Zoo	2	3	[0, 0, 0]	n/a	catFR1	0	R1231M
448.219	0.834	454826	WORD_OFF	n/a	n/a	n/a	n/a	-999	3	[0, 0, 0]	n/a	catFR1	0	R1231M
449.053	1.6	455660	WORD	n/a	wordpools/wordpool_categorized_EN.txt	HAND	BodyParts	3	3	[0, 0, 0]	n/a	catFR1	0	R1231M
450.671	0.849	457278	WORD_OFF	n/a	n/a	n/a	n/a	-999	3	[0, 0, 0]	n/a	catFR1	0	R1231M
451.52	1.6	458127	WORD	n/a	wordpools/wordpool_categorized_EN.txt	ARM	BodyParts	4	3	[0, 0, 0]	n/a	catFR1	0	R1231M
453.137	0.834	459744	WORD_OFF	n/a	n/a	n/a	n/a	-999	3	[0, 0, 0]	n/a	catFR1	0	R1231M
453.971	1.6	460578	WORD	n/a	wordpools/wordpool_categorized_EN.txt	PEAS	Vegetables	5	3	[0, 0, 0]	n/a	catFR1	0	R1231M
455.589	0.965	462196	WORD_OFF	n/a	n/a	n/a	n/a	-999	3	[0, 0, 0]	n/a	catFR1	0	R1231M
456.554	1.6	463161	WORD	n/a	wordpools/wordpool_categorized_EN.txt	CELERY	Vegetables	6	3	[0, 0, 0]	n/a	catFR1	0	R1231M
458.171	0.834	464778	WORD_OFF	n/a	n/a	n/a	n/a	-999	3	[0, 0, 0]	n/a	catFR1	0	R1231M
459.005	1.6	465612	WORD	n/a	wordpools/wordpool_categorized_EN.txt	LEG	BodyParts	7	3	[0, 0, 0]	n/a	catFR1	0	R1231M
460.623	0.849	467230	WORD_OFF	n/a	n/a	n/a	n/a	-999	3	[0, 0, 0]	n/a	catFR1	0	R1231M
461.472	1.6	468079	WORD	n/a	wordpools/wordpool_categorized_EN.txt	NOSE	BodyParts	8	3	[0, 0, 0]	n/a	catFR1	0	R1231M
463.089	0.817	469696	WORD_OFF	n/a	n/a	n/a	n/a	-999	3	[0, 0, 0]	n/a	catFR1	0	R1231M
463.906	1.6	470513	WORD	n/a	wordpools/wordpool_categorized_EN.txt	CHIMPANZEE	Zoo	9	3	[0, 0, 0]	n/a	catFR1	0	R1231M
465.523	0.783	472129	WORD_OFF	n/a	n/a	n/a	n/a	-999	3	[0, 0, 0]	n/a	catFR1	0	R1231M
466.306	1.6	472912	WORD	n/a	wordpools/wordpool_categorized_EN.txt	PANDA	Zoo	10	3	[0, 0, 0]	n/a	catFR1	0	R1231M
467.923	0.851	474529	WORD_OFF	n/a	n/a	n/a	n/a	-999	3	[0, 0, 0]	n/a	catFR1	0	R1231M
468.774	1.6	475380	WORD	n/a	wordpools/wordpool_categorized_EN.txt	CARROT	Vegetables	11	3	[0, 0, 0]	n/a	catFR1	0	R1231M
470.39	1.0	476996	WORD_OFF	n/a	n/a	n/a	n/a	-999	3	[0, 0, 0]	n/a	catFR1	0	R1231M
471.39	1.6	477996	WORD	n/a	wordpools/wordpool_categorized_EN.txt	ONION	Vegetables	12	3	[0, 0, 0]	n/a	catFR1	0	R1231M
473.008	0.0	479614	ENCODING_END	n/a	n/a	n/a	n/a	-999	3	[0, 0, 0]	n/a	catFR1	0	R1231M
473.008	0.105	479614	WORD_OFF	n/a	n/a	n/a	n/a	-999	3	[0, 0, 0]	n/a	catFR1	0	R1231M
473.113	0.0	479719	DISTRACT_START	n/a	n/a	n/a	n/a	-999	3	[0, 0, 0]	n/a	catFR1	0	R1231M
473.113	0.011	479719	START	n/a	n/a	n/a	n/a	-999	4	[-999, -999, -999]	n/a	catFR1	0	R1231M
473.124	6.785	479730	PROB	6.761	n/a	n/a	n/a	-999	4	[7, 4, 4]	14.0	catFR1	0	R1231M
479.909	6.018	486515	PROB	5.991	n/a	n/a	n/a	-999	4	[9, 8, 1]	18.0	catFR1	0	R1231M
485.927	16.213	492532	PROB	16.213	n/a	n/a	n/a	-999	4	[6, 8, 1]	15.0	catFR1	0	R1231M
502.14	0.007	508744	STOP	n/a	n/a	n/a	n/a	-999	4	[-999, -999, -999]	n/a	catFR1	0	R1231M
502.147	0.699	508751	DISTRACT_END	n/a	n/a	n/a	n/a	-999	3	[0, 0, 0]	n/a	catFR1	0	R1231M
502.846	0.518	509450	RETRIEVAL_ORIENT	n/a	n/a	n/a	n/a	-999	3	[0, 0, 0]	n/a	catFR1	0	R1231M
503.364	1.963	509968	REC_START	n/a	n/a	n/a	n/a	-999	3	[0, 0, 0]	n/a	catFR1	0	R1231M
505.327	1.548	511931	REC_WORD	1.963	n/a	CHIMPANZEE	Zoo	9	3	[0, 0, 0]	n/a	catFR1	0	R1231M
506.875	4.396	513479	REC_WORD	3.511	n/a	PANDA	Zoo	10	3	[0, 0, 0]	n/a	catFR1	0	R1231M
511.271	14.556	517875	REC_WORD_VV	7.907	n/a	<>	n/a	-999	3	[0, 0, 0]	n/a	catFR1	0	R1231M
525.827	7.548	532430	REC_WORD_VV	22.463	n/a	<>	n/a	-999	3	[0, 0, 0]	n/a	catFR1	0	R1231M
533.375	25.833	539977	REC_END	n/a	n/a	n/a	n/a	-999	3	[0, 0, 0]	n/a	catFR1	0	R1231M
559.208	0.5	565809	TRIAL	n/a	n/a	n/a	n/a	-999	4	[0, 0, 0]	n/a	catFR1	0	R1231M
559.708	10.0	566309	COUNTDOWN_START	n/a	n/a	n/a	n/a	-999	4	[0, 0, 0]	n/a	catFR1	0	R1231M
570.136	0.007	576736	COUNTDOWN_END	n/a	n/a	n/a	n/a	-999	4	[0, 0, 0]	n/a	catFR1	0	R1231M
570.143	1.6	576743	ORIENT	n/a	n/a	n/a	n/a	-999	4	[0, 0, 0]	n/a	catFR1	0	R1231M
571.761	2.066	578361	ORIENT_OFF	n/a	n/a	n/a	n/a	-999	4	[0, 0, 0]	n/a	catFR1	0	R1231M
573.827	1.6	580427	WORD	n/a	wordpools/wordpool_categorized_EN.txt	BASS	Instruments	1	4	[0, 0, 0]	n/a	catFR1	0	R1231M
575.444	0.85	582044	WORD_OFF	n/a	n/a	n/a	n/a	-999	4	[0, 0, 0]	n/a	catFR1	0	R1231M
576.294	1.6	582894	WORD	n/a	wordpools/wordpool_categorized_EN.txt	ORGAN	Instruments	2	4	[0, 0, 0]	n/a	catFR1	0	R1231M
577.911	0.885	584511	WORD_OFF	n/a	n/a	n/a	n/a	-999	4	[0, 0, 0]	n/a	catFR1	0	R1231M
578.796	1.6	585396	WORD	n/a	wordpools/wordpool_categorized_EN.txt	POTATO	Vegetables	3	4	[0, 0, 0]	n/a	catFR1	0	R1231M
580.412	0.983	587012	WORD_OFF	n/a	n/a	n/a	n/a	-999	4	[0, 0, 0]	n/a	catFR1	0	R1231M
581.395	1.6	587995	WORD	n/a	wordpools/wordpool_categorized_EN.txt	SPINACH	Vegetables	4	4	[0, 0, 0]	n/a	catFR1	0	R1231M
583.012	0.785	589612	WORD_OFF	n/a	n/a	n/a	n/a	-999	4	[0, 0, 0]	n/a	catFR1	0	R1231M
583.797	1.6	590397	WORD	n/a	wordpools/wordpool_categorized_EN.txt	DOOR	Building	5	4	[0, 0, 0]	n/a	catFR1	0	R1231M
585.412	0.917	592011	WORD_OFF	n/a	n/a	n/a	n/a	-999	4	[0, 0, 0]	n/a	catFR1	0	R1231M
586.329	1.6	592928	WORD	n/a	wordpools/wordpool_categorized_EN.txt	ROOF	Building	6	4	[0, 0, 0]	n/a	catFR1	0	R1231M
587.946	0.768	594545	WORD_OFF	n/a	n/a	n/a	n/a	-999	4	[0, 0, 0]	n/a	catFR1	0	R1231M
588.714	1.6	595313	WORD	n/a	wordpools/wordpool_categorized_EN.txt	BROCCOLI	Vegetables	7	4	[0, 0, 0]	n/a	catFR1	0	R1231M
590.33	0.817	596929	WORD_OFF	n/a	n/a	n/a	n/a	-999	4	[0, 0, 0]	n/a	catFR1	0	R1231M
591.147	1.6	597746	WORD	n/a	wordpools/wordpool_categorized_EN.txt	LETTUCE	Vegetables	8	4	[0, 0, 0]	n/a	catFR1	0	R1231M
592.765	0.867	599364	WORD_OFF	n/a	n/a	n/a	n/a	-999	4	[0, 0, 0]	n/a	catFR1	0	R1231M
593.632	1.6	600231	WORD	n/a	wordpools/wordpool_categorized_EN.txt	BANJO	Instruments	9	4	[0, 0, 0]	n/a	catFR1	0	R1231M
595.248	0.917	601847	WORD_OFF	n/a	n/a	n/a	n/a	-999	4	[0, 0, 0]	n/a	catFR1	0	R1231M
596.165	1.6	602764	WORD	n/a	wordpools/wordpool_categorized_EN.txt	CELLO	Instruments	10	4	[0, 0, 0]	n/a	catFR1	0	R1231M
597.783	0.933	604382	WORD_OFF	n/a	n/a	n/a	n/a	-999	4	[0, 0, 0]	n/a	catFR1	0	R1231M
598.716	1.6	605315	WORD	n/a	wordpools/wordpool_categorized_EN.txt	ROOM	Building	11	4	[0, 0, 0]	n/a	catFR1	0	R1231M
600.332	0.784	606931	WORD_OFF	n/a	n/a	n/a	n/a	-999	4	[0, 0, 0]	n/a	catFR1	0	R1231M
601.116	1.6	607715	WORD	n/a	wordpools/wordpool_categorized_EN.txt	ATTIC	Building	12	4	[0, 0, 0]	n/a	catFR1	0	R1231M
602.734	0.0	609332	ENCODING_END	n/a	n/a	n/a	n/a	-999	4	[0, 0, 0]	n/a	catFR1	0	R1231M
602.734	0.132	609332	WORD_OFF	n/a	n/a	n/a	n/a	-999	4	[0, 0, 0]	n/a	catFR1	0	R1231M
602.866	0.001	609464	DISTRACT_START	n/a	n/a	n/a	n/a	-999	4	[0, 0, 0]	n/a	catFR1	0	R1231M
602.867	0.016	609465	START	n/a	n/a	n/a	n/a	-999	5	[-999, -999, -999]	n/a	catFR1	0	R1231M
602.883	5.768	609481	PROB	5.73	n/a	n/a	n/a	-999	5	[5, 5, 1]	11.0	catFR1	0	R1231M
608.651	11.735	615249	PROB	11.706	n/a	n/a	n/a	-999	5	[3, 6, 2]	11.0	catFR1	0	R1231M
620.386	7.788	626983	PROB	7.788	n/a	n/a	n/a	-999	5	[3, 2, 2]	7.0	catFR1	0	R1231M
628.174	0.014	634771	STOP	n/a	n/a	n/a	n/a	-999	5	[-999, -999, -999]	n/a	catFR1	0	R1231M
628.188	0.567	634785	DISTRACT_END	n/a	n/a	n/a	n/a	-999	4	[0, 0, 0]	n/a	catFR1	0	R1231M
628.755	0.517	635352	RETRIEVAL_ORIENT	n/a	n/a	n/a	n/a	-999	4	[0, 0, 0]	n/a	catFR1	0	R1231M
629.272	1.819	635869	REC_START	n/a	n/a	n/a	n/a	-999	4	[0, 0, 0]	n/a	catFR1	0	R1231M
631.091	0.831	637688	REC_WORD	1.819	n/a	ATTIC	Building	12	4	[0, 0, 0]	n/a	catFR1	0	R1231M
631.922	6.458	638519	REC_WORD	2.65	n/a	ROOM	Building	11	4	[0, 0, 0]	n/a	catFR1	0	R1231M
638.38	1.898	644976	REC_WORD	9.108	n/a	CELLO	Instruments	10	4	[0, 0, 0]	n/a	catFR1	0	R1231M
640.278	8.873	646874	REC_WORD	11.006	n/a	BASS	Instruments	1	4	[0, 0, 0]	n/a	catFR1	0	R1231M
649.151	7.699	655747	REC_WORD_VV	19.879	n/a	<>	n/a	-999	4	[0, 0, 0]	n/a	catFR1	0	R1231M
656.85	0.997	663445	REC_WORD_VV	27.578	n/a	<>	n/a	-999	4	[0, 0, 0]	n/a	catFR1	0	R1231M
657.847	1.437	664442	REC_WORD_VV	28.575	n/a	<>	n/a	-999	4	[0, 0, 0]	n/a	catFR1	0	R1231M
659.284	10.162	665879	REC_END	n/a	n/a	n/a	n/a	-999	4	[0, 0, 0]	n/a	catFR1	0	R1231M
669.446	0.5	676041	TRIAL	n/a	n/a	n/a	n/a	-999	5	[0, 0, 0]	n/a	catFR1	0	R1231M
669.946	10.0	676541	COUNTDOWN_START	n/a	n/a	n/a	n/a	-999	5	[0, 0, 0]	n/a	catFR1	0	R1231M
680.374	0.007	686968	COUNTDOWN_END	n/a	n/a	n/a	n/a	-999	5	[0, 0, 0]	n/a	catFR1	0	R1231M
680.381	1.6	686975	ORIENT	n/a	n/a	n/a	n/a	-999	5	[0, 0, 0]	n/a	catFR1	0	R1231M
681.998	1.967	688592	ORIENT_OFF	n/a	n/a	n/a	n/a	-999	5	[0, 0, 0]	n/a	catFR1	0	R1231M
683.965	1.6	690559	WORD	n/a	wordpools/wordpool_categorized_EN.txt	COFFEE	Beverages	1	5	[0, 0, 0]	n/a	catFR1	0	R1231M
685.583	0.933	692177	WORD_OFF	n/a	n/a	n/a	n/a	-999	5	[0, 0, 0]	n/a	catFR1	0	R1231M
686.516	1.6	693110	WORD	n/a	wordpools/wordpool_categorized_EN.txt	RUM	Beverages	2	5	[0, 0, 0]	n/a	catFR1	0	R1231M
688.132	0.834	694726	WORD_OFF	n/a	n/a	n/a	n/a	-999	5	[0, 0, 0]	n/a	catFR1	0	R1231M
688.966	1.6	695559	WORD	n/a	wordpools/wordpool_categorized_EN.txt	BLOCKS	Toys	3	5	[0, 0, 0]	n/a	catFR1	0	R1231M
690.584	0.816	697177	WORD_OFF	n/a	n/a	n/a	n/a	-999	5	[0, 0, 0]	n/a	catFR1	0	R1231M
691.4	1.6	697993	WORD	n/a	wordpools/wordpool_categorized_EN.txt	BASKETBALL	Toys	4	5	[0, 0, 0]	n/a	catFR1	0	R1231M
693.017	0.833	699610	WORD_OFF	n/a	n/a	n/a	n/a	-999	5	[0, 0, 0]	n/a	catFR1	0	R1231M
693.85	1.6	700443	WORD	n/a	wordpools/wordpool_categorized_EN.txt	HORSE	FarmAnimals	5	5	[0, 0, 0]	n/a	catFR1	0	R1231M
695.467	0.867	702060	WORD_OFF	n/a	n/a	n/a	n/a	-999	5	[0, 0, 0]	n/a	catFR1	0	R1231M
696.334	1.6	702927	WORD	n/a	wordpools/wordpool_categorized_EN.txt	CALF	FarmAnimals	6	5	[0, 0, 0]	n/a	catFR1	0	R1231M
697.951	0.917	704544	WORD_OFF	n/a	n/a	n/a	n/a	-999	5	[0, 0, 0]	n/a	catFR1	0	R1231M
698.868	1.6	705461	WORD	n/a	wordpools/wordpool_categorized_EN.txt	SLINKY	Toys	7	5	[0, 0, 0]	n/a	catFR1	0	R1231M
700.485	0.783	707078	WORD_OFF	n/a	n/a	n/a	n/a	-999	5	[0, 0, 0]	n/a	catFR1	0	R1231M
701.268	1.6	707861	WORD	n/a	wordpools/wordpool_categorized_EN.txt	MARBLES	Toys	8	5	[0, 0, 0]	n/a	catFR1	0	R1231M
702.885	0.917	709478	WORD_OFF	n/a	n/a	n/a	n/a	-999	5	[0, 0, 0]	n/a	catFR1	0	R1231M
703.802	1.6	710395	WORD	n/a	wordpools/wordpool_categorized_EN.txt	WINE	Beverages	9	5	[0, 0, 0]	n/a	catFR1	0	R1231M
705.419	0.867	712012	WORD_OFF	n/a	n/a	n/a	n/a	-999	5	[0, 0, 0]	n/a	catFR1	0	R1231M
706.286	1.6	712878	WORD	n/a	wordpools/wordpool_categorized_EN.txt	LEMONADE	Beverages	10	5	[0, 0, 0]	n/a	catFR1	0	R1231M
707.903	0.801	714495	WORD_OFF	n/a	n/a	n/a	n/a	-999	5	[0, 0, 0]	n/a	catFR1	0	R1231M
708.704	1.6	715296	WORD	n/a	wordpools/wordpool_categorized_EN.txt	CHICKEN	FarmAnimals	11	5	[0, 0, 0]	n/a	catFR1	0	R1231M
710.32	0.834	716912	WORD_OFF	n/a	n/a	n/a	n/a	-999	5	[0, 0, 0]	n/a	catFR1	0	R1231M
711.154	1.6	717746	WORD	n/a	wordpools/wordpool_categorized_EN.txt	ROOSTER	FarmAnimals	12	5	[0, 0, 0]	n/a	catFR1	0	R1231M
712.772	0.0	719364	ENCODING_END	n/a	n/a	n/a	n/a	-999	5	[0, 0, 0]	n/a	catFR1	0	R1231M
712.772	0.104	719364	WORD_OFF	n/a	n/a	n/a	n/a	-999	5	[0, 0, 0]	n/a	catFR1	0	R1231M
712.876	0.0	719468	DISTRACT_START	n/a	n/a	n/a	n/a	-999	5	[0, 0, 0]	n/a	catFR1	0	R1231M
712.876	0.011	719468	START	n/a	n/a	n/a	n/a	-999	6	[-999, -999, -999]	n/a	catFR1	0	R1231M
712.887	61.095	719479	PROB	61.095	n/a	n/a	n/a	-999	6	[6, 9, 8]	23.0	catFR1	0	R1231M
773.982	0.017	780571	STOP	n/a	n/a	n/a	n/a	-999	6	[-999, -999, -999]	n/a	catFR1	0	R1231M
773.999	0.517	780588	DISTRACT_END	n/a	n/a	n/a	n/a	-999	5	[0, 0, 0]	n/a	catFR1	0	R1231M
774.516	0.517	781105	RETRIEVAL_ORIENT	n/a	n/a	n/a	n/a	-999	5	[0, 0, 0]	n/a	catFR1	0	R1231M
775.033	2.27	781622	REC_START	n/a	n/a	n/a	n/a	-999	5	[0, 0, 0]	n/a	catFR1	0	R1231M
777.303	6.381	783891	REC_WORD	2.27	n/a	SLINKY	Toys	7	5	[0, 0, 0]	n/a	catFR1	0	R1231M
783.684	1.247	790272	REC_WORD	8.651	n/a	RUM	Beverages	2	5	[0, 0, 0]	n/a	catFR1	0	R1231M
784.931	19.802	791519	REC_WORD	9.898	n/a	LEMONADE	Beverages	10	5	[0, 0, 0]	n/a	catFR1	0	R1231M
804.733	0.314	811320	REC_WORD_VV	29.7	n/a	<>	n/a	-999	5	[0, 0, 0]	n/a	catFR1	0	R1231M
805.047	7.96	811634	REC_END	n/a	n/a	n/a	n/a	-999	5	[0, 0, 0]	n/a	catFR1	0	R1231M
813.007	0.5	819593	TRIAL	n/a	n/a	n/a	n/a	-999	6	[0, 0, 0]	n/a	catFR1	0	R1231M
813.507	10.0	820093	COUNTDOWN_START	n/a	n/a	n/a	n/a	-999	6	[0, 0, 0]	n/a	catFR1	0	R1231M
823.935	0.007	830521	COUNTDOWN_END	n/a	n/a	n/a	n/a	-999	6	[0, 0, 0]	n/a	catFR1	0	R1231M
823.942	1.6	830528	ORIENT	n/a	n/a	n/a	n/a	-999	6	[0, 0, 0]	n/a	catFR1	0	R1231M
825.559	1.817	832145	ORIENT_OFF	n/a	n/a	n/a	n/a	-999	6	[0, 0, 0]	n/a	catFR1	0	R1231M
827.376	1.6	833961	WORD	n/a	wordpools/wordpool_categorized_EN.txt	SOFA	Furniture	1	6	[0, 0, 0]	n/a	catFR1	0	R1231M
828.993	0.768	835578	WORD_OFF	n/a	n/a	n/a	n/a	-999	6	[0, 0, 0]	n/a	catFR1	0	R1231M
829.761	1.6	836346	WORD	n/a	wordpools/wordpool_categorized_EN.txt	TABLE	Furniture	2	6	[0, 0, 0]	n/a	catFR1	0	R1231M
831.377	0.8	837962	WORD_OFF	n/a	n/a	n/a	n/a	-999	6	[0, 0, 0]	n/a	catFR1	0	R1231M
832.177	1.6	838762	WORD	n/a	wordpools/wordpool_categorized_EN.txt	SHEEP	FarmAnimals	3	6	[0, 0, 0]	n/a	catFR1	0	R1231M
833.795	0.8	840380	WORD_OFF	n/a	n/a	n/a	n/a	-999	6	[0, 0, 0]	n/a	catFR1	0	R1231M
834.595	1.6	841180	WORD	n/a	wordpools/wordpool_categorized_EN.txt	COW	FarmAnimals	4	6	[0, 0, 0]	n/a	catFR1	0	R1231M
836.211	0.95	842796	WORD_OFF	n/a	n/a	n/a	n/a	-999	6	[0, 0, 0]	n/a	catFR1	0	R1231M
837.161	1.6	843746	WORD	n/a	wordpools/wordpool_categorized_EN.txt	MOTH	Insects	5	6	[0, 0, 0]	n/a	catFR1	0	R1231M
838.762	0.967	845347	WORD_OFF	n/a	n/a	n/a	n/a	-999	6	[0, 0, 0]	n/a	catFR1	0	R1231M
839.729	1.6	846314	WORD	n/a	wordpools/wordpool_categorized_EN.txt	SPIDER	Insects	6	6	[0, 0, 0]	n/a	catFR1	0	R1231M
841.345	0.934	847930	WORD_OFF	n/a	n/a	n/a	n/a	-999	6	[0, 0, 0]	n/a	catFR1	0	R1231M
842.279	1.6	848864	WORD	n/a	wordpools/wordpool_categorized_EN.txt	COUCH	Furniture	7	6	[0, 0, 0]	n/a	catFR1	0	R1231M
843.896	0.868	850481	WORD_OFF	n/a	n/a	n/a	n/a	-999	6	[0, 0, 0]	n/a	catFR1	0	R1231M
844.764	1.6	851348	WORD	n/a	wordpools/wordpool_categorized_EN.txt	BOOKCASE	Furniture	8	6	[0, 0, 0]	n/a	catFR1	0	R1231M
846.38	0.85	852964	WORD_OFF	n/a	n/a	n/a	n/a	-999	6	[0, 0, 0]	n/a	catFR1	0	R1231M
847.23	1.6	853814	WORD	n/a	wordpools/wordpool_categorized_EN.txt	TURKEY	FarmAnimals	9	6	[0, 0, 0]	n/a	catFR1	0	R1231M
848.847	0.967	855431	WORD_OFF	n/a	n/a	n/a	n/a	-999	6	[0, 0, 0]	n/a	catFR1	0	R1231M
849.814	1.6	856398	WORD	n/a	wordpools/wordpool_categorized_EN.txt	BULL	FarmAnimals	10	6	[0, 0, 0]	n/a	catFR1	0	R1231M
851.431	1.0	858015	WORD_OFF	n/a	n/a	n/a	n/a	-999	6	[0, 0, 0]	n/a	catFR1	0	R1231M
852.431	1.6	859015	WORD	n/a	wordpools/wordpool_categorized_EN.txt	BEE	Insects	11	6	[0, 0, 0]	n/a	catFR1	0	R1231M
854.048	0.9	860632	WORD_OFF	n/a	n/a	n/a	n/a	-999	6	[0, 0, 0]	n/a	catFR1	0	R1231M
854.948	1.6	861532	WORD	n/a	wordpools/wordpool_categorized_EN.txt	BUTTERFLY	Insects	12	6	[0, 0, 0]	n/a	catFR1	0	R1231M
856.565	0.0	863149	ENCODING_END	n/a	n/a	n/a	n/a	-999	6	[0, 0, 0]	n/a	catFR1	0	R1231M
856.565	0.106	863149	WORD_OFF	n/a	n/a	n/a	n/a	-999	6	[0, 0, 0]	n/a	catFR1	0	R1231M
856.671	0.0	863255	DISTRACT_START	n/a	n/a	n/a	n/a	-999	6	[0, 0, 0]	n/a	catFR1	0	R1231M
856.671	0.012	863255	START	n/a	n/a	n/a	n/a	-999	7	[-999, -999, -999]	n/a	catFR1	0	R1231M
856.683	9.634	863267	PROB	9.602	n/a	n/a	n/a	-999	7	[2, 2, 9]	13.0	catFR1	0	R1231M
866.317	9.118	872900	PROB	9.08	n/a	n/a	n/a	-999	7	[8, 2, 8]	18.0	catFR1	0	R1231M
875.435	14.33	882018	PROB	14.33	n/a	n/a	n/a	-999	7	[4, 3, 8]	15.0	catFR1	0	R1231M
889.765	0.008	896347	STOP	n/a	n/a	n/a	n/a	-999	7	[-999, -999, -999]	n/a	catFR1	0	R1231M
889.773	0.682	896355	DISTRACT_END	n/a	n/a	n/a	n/a	-999	6	[0, 0, 0]	n/a	catFR1	0	R1231M
890.455	0.518	897037	RETRIEVAL_ORIENT	n/a	n/a	n/a	n/a	-999	6	[0, 0, 0]	n/a	catFR1	0	R1231M
890.973	2.35	897555	REC_START	n/a	n/a	n/a	n/a	-999	6	[0, 0, 0]	n/a	catFR1	0	R1231M
893.323	4.327	899905	REC_WORD	2.35	n/a	SOFA	Furniture	1	6	[0, 0, 0]	n/a	catFR1	0	R1231M
897.65	2.853	904231	REC_WORD	6.677	n/a	TABLE	Furniture	2	6	[0, 0, 0]	n/a	catFR1	0	R1231M
900.503	1.907	907084	REC_WORD	9.53	n/a	COW	FarmAnimals	4	6	[0, 0, 0]	n/a	catFR1	0	R1231M
902.41	5.189	908991	REC_WORD	11.437	n/a	SHEEP	FarmAnimals	3	6	[0, 0, 0]	n/a	catFR1	0	R1231M
907.599	13.389	914180	REC_WORD	16.626	n/a	SPIDER	Insects	6	6	[0, 0, 0]	n/a	catFR1	0	R1231M
920.988	9.875	927568	REC_END	n/a	n/a	n/a	n/a	-999	6	[0, 0, 0]	n/a	catFR1	0	R1231M
930.863	0.5	937443	TRIAL	n/a	n/a	n/a	n/a	-999	7	[0, 0, 0]	n/a	catFR1	0	R1231M
931.363	10.0	937942	COUNTDOWN_START	n/a	n/a	n/a	n/a	-999	7	[0, 0, 0]	n/a	catFR1	0	R1231M
941.791	0.007	948370	COUNTDOWN_END	n/a	n/a	n/a	n/a	-999	7	[0, 0, 0]	n/a	catFR1	0	R1231M
941.798	1.6	948377	ORIENT	n/a	n/a	n/a	n/a	-999	7	[0, 0, 0]	n/a	catFR1	0	R1231M
943.415	2.185	949994	ORIENT_OFF	n/a	n/a	n/a	n/a	-999	7	[0, 0, 0]	n/a	catFR1	0	R1231M
945.6	1.6	952179	WORD	n/a	wordpools/wordpool_categorized_EN.txt	THUNDERSTORM	Weather	1	7	[0, 0, 0]	n/a	catFR1	0	R1231M
947.216	0.983	953795	WORD_OFF	n/a	n/a	n/a	n/a	-999	7	[0, 0, 0]	n/a	catFR1	0	R1231M
948.199	1.6	954778	WORD	n/a	wordpools/wordpool_categorized_EN.txt	FOG	Weather	2	7	[0, 0, 0]	n/a	catFR1	0	R1231M
949.816	0.802	956394	WORD_OFF	n/a	n/a	n/a	n/a	-999	7	[0, 0, 0]	n/a	catFR1	0	R1231M
950.618	1.6	957196	WORD	n/a	wordpools/wordpool_categorized_EN.txt	CABINET	Furniture	3	7	[0, 0, 0]	n/a	catFR1	0	R1231M
952.234	0.916	958812	WORD_OFF	n/a	n/a	n/a	n/a	-999	7	[0, 0, 0]	n/a	catFR1	0	R1231M
953.15	1.6	959728	WORD	n/a	wordpools/wordpool_categorized_EN.txt	CHAIR	Furniture	4	7	[0, 0, 0]	n/a	catFR1	0	R1231M
954.768	0.867	961346	WORD_OFF	n/a	n/a	n/a	n/a	-999	7	[0, 0, 0]	n/a	catFR1	0	R1231M
955.635	1.6	962213	WORD	n/a	wordpools/wordpool_categorized_EN.txt	ORANGE	Fruit	5	7	[0, 0, 0]	n/a	catFR1	0	R1231M
957.251	0.867	963829	WORD_OFF	n/a	n/a	n/a	n/a	-999	7	[0, 0, 0]	n/a	catFR1	0	R1231M
958.118	1.6	964696	WORD	n/a	wordpools/wordpool_categorized_EN.txt	LIME	Fruit	6	7	[0, 0, 0]	n/a	catFR1	0	R1231M
959.736	0.85	966314	WORD_OFF	n/a	n/a	n/a	n/a	-999	7	[0, 0, 0]	n/a	catFR1	0	R1231M
960.586	1.6	967164	WORD	n/a	wordpools/wordpool_categorized_EN.txt	THUNDER	Weather	7	7	[0, 0, 0]	n/a	catFR1	0	R1231M
962.202	0.834	968780	WORD_OFF	n/a	n/a	n/a	n/a	-999	7	[0, 0, 0]	n/a	catFR1	0	R1231M
963.036	1.6	969614	WORD	n/a	wordpools/wordpool_categorized_EN.txt	SNOW	Weather	8	7	[0, 0, 0]	n/a	catFR1	0	R1231M
964.654	0.799	971232	WORD_OFF	n/a	n/a	n/a	n/a	-999	7	[0, 0, 0]	n/a	catFR1	0	R1231M
965.453	1.6	972031	WORD	n/a	wordpools/wordpool_categorized_EN.txt	DESK	Furniture	9	7	[0, 0, 0]	n/a	catFR1	0	R1231M
967.07	0.983	973647	WORD_OFF	n/a	n/a	n/a	n/a	-999	7	[0, 0, 0]	n/a	catFR1	0	R1231M
968.053	1.6	974630	WORD	n/a	wordpools/wordpool_categorized_EN.txt	RECLINER	Furniture	10	7	[0, 0, 0]	n/a	catFR1	0	R1231M
969.654	0.866	976231	WORD_OFF	n/a	n/a	n/a	n/a	-999	7	[0, 0, 0]	n/a	catFR1	0	R1231M
970.52	1.6	977097	WORD	n/a	wordpools/wordpool_categorized_EN.txt	PLUM	Fruit	11	7	[0, 0, 0]	n/a	catFR1	0	R1231M
972.137	0.967	978714	WORD_OFF	n/a	n/a	n/a	n/a	-999	7	[0, 0, 0]	n/a	catFR1	0	R1231M
973.104	1.6	979681	WORD	n/a	wordpools/wordpool_categorized_EN.txt	PEACH	Fruit	12	7	[0, 0, 0]	n/a	catFR1	0	R1231M
974.722	0.0	981299	ENCODING_END	n/a	n/a	n/a	n/a	-999	7	[0, 0, 0]	n/a	catFR1	0	R1231M
974.722	0.133	981299	WORD_OFF	n/a	n/a	n/a	n/a	-999	7	[0, 0, 0]	n/a	catFR1	0	R1231M
974.855	0.0	981432	DISTRACT_START	n/a	n/a	n/a	n/a	-999	7	[0, 0, 0]	n/a	catFR1	0	R1231M
974.855	0.016	981432	START	n/a	n/a	n/a	n/a	-999	8	[-999, -999, -999]	n/a	catFR1	0	R1231M
974.871	20.974	981448	PROB	20.974	n/a	n/a	n/a	-999	8	[8, 8, 6]	22.0	catFR1	0	R1231M
995.845	0.014	1002421	STOP	n/a	n/a	n/a	n/a	-999	8	[-999, -999, -999]	n/a	catFR1	0	R1231M
995.859	0.566	1002435	DISTRACT_END	n/a	n/a	n/a	n/a	-999	7	[0, 0, 0]	n/a	catFR1	0	R1231M
996.425	0.518	1003001	RETRIEVAL_ORIENT	n/a	n/a	n/a	n/a	-999	7	[0, 0, 0]	n/a	catFR1	0	R1231M
996.943	2.89	1003519	REC_START	n/a	n/a	n/a	n/a	-999	7	[0, 0, 0]	n/a	catFR1	0	R1231M
999.833	6.244	1006409	REC_WORD	2.89	n/a	THUNDERSTORM	Weather	1	7	[0, 0, 0]	n/a	catFR1	0	R1231M
1006.077	5.935	1012652	REC_WORD	9.134	n/a	FOG	Weather	2	7	[0, 0, 0]	n/a	catFR1	0	R1231M
1012.012	2.545	1018587	REC_WORD	15.069	n/a	ORANGE	Fruit	5	7	[0, 0, 0]	n/a	catFR1	0	R1231M
1014.557	12.399	1021132	REC_WORD	17.614	n/a	LIME	Fruit	6	7	[0, 0, 0]	n/a	catFR1	0	R1231M
1026.956	16.429	1033530	REC_END	n/a	n/a	n/a	n/a	-999	7	[0, 0, 0]	n/a	catFR1	0	R1231M
1043.385	0.5	1049958	TRIAL	n/a	n/a	n/a	n/a	-999	8	[0, 0, 0]	n/a	catFR1	0	R1231M
1043.885	10.0	1050458	COUNTDOWN_START	n/a	n/a	n/a	n/a	-999	8	[0, 0, 0]	n/a	catFR1	0	R1231M
1054.313	0.007	1060885	COUNTDOWN_END	n/a	n/a	n/a	n/a	-999	8	[0, 0, 0]	n/a	catFR1	0	R1231M
1054.32	1.6	1060892	ORIENT	n/a	n/a	n/a	n/a	-999	8	[0, 0, 0]	n/a	catFR1	0	R1231M
1055.937	1.917	1062509	ORIENT_OFF	n/a	n/a	n/a	n/a	-999	8	[0, 0, 0]	n/a	catFR1	0	R1231M
1057.854	1.6	1064426	WORD	n/a	wordpools/wordpool_categorized_EN.txt	PIE	Desserts	1	8	[0, 0, 0]	n/a	catFR1	0	R1231M
1059.471	0.817	1066043	WORD_OFF	n/a	n/a	n/a	n/a	-999	8	[0, 0, 0]	n/a	catFR1	0	R1231M
1060.288	1.6	1066860	WORD	n/a	wordpools/wordpool_categorized_EN.txt	PASTRY	Desserts	2	8	[0, 0, 0]	n/a	catFR1	0	R1231M
1061.905	0.851	1068477	WORD_OFF	n/a	n/a	n/a	n/a	-999	8	[0, 0, 0]	n/a	catFR1	0	R1231M
1062.756	1.6	1069328	WORD	n/a	wordpools/wordpool_categorized_EN.txt	LAKE	Landscapes	3	8	[0, 0, 0]	n/a	catFR1	0	R1231M
1064.372	0.916	1070944	WORD_OFF	n/a	n/a	n/a	n/a	-999	8	[0, 0, 0]	n/a	catFR1	0	R1231M
1065.288	1.6	1071860	WORD	n/a	wordpools/wordpool_categorized_EN.txt	STREAM	Landscapes	4	8	[0, 0, 0]	n/a	catFR1	0	R1231M
1066.906	0.933	1073478	WORD_OFF	n/a	n/a	n/a	n/a	-999	8	[0, 0, 0]	n/a	catFR1	0	R1231M
1067.839	1.6	1074411	WORD	n/a	wordpools/wordpool_categorized_EN.txt	BED	Furniture	5	8	[0, 0, 0]	n/a	catFR1	0	R1231M
1069.456	0.934	1076027	WORD_OFF	n/a	n/a	n/a	n/a	-999	8	[0, 0, 0]	n/a	catFR1	0	R1231M
1070.39	1.6	1076961	WORD	n/a	wordpools/wordpool_categorized_EN.txt	SHELF	Furniture	6	8	[0, 0, 0]	n/a	catFR1	0	R1231M
1072.007	0.833	1078578	WORD_OFF	n/a	n/a	n/a	n/a	-999	8	[0, 0, 0]	n/a	catFR1	0	R1231M
1072.84	1.6	1079411	WORD	n/a	wordpools/wordpool_categorized_EN.txt	MOUNTAIN	Landscapes	7	8	[0, 0, 0]	n/a	catFR1	0	R1231M
1074.457	0.834	1081028	WORD_OFF	n/a	n/a	n/a	n/a	-999	8	[0, 0, 0]	n/a	catFR1	0	R1231M
1075.291	1.6	1081862	WORD	n/a	wordpools/wordpool_categorized_EN.txt	BEACH	Landscapes	8	8	[0, 0, 0]	n/a	catFR1	0	R1231M
1076.908	0.868	1083479	WORD_OFF	n/a	n/a	n/a	n/a	-999	8	[0, 0, 0]	n/a	catFR1	0	R1231M
1077.776	1.6	1084347	WORD	n/a	wordpools/wordpool_categorized_EN.txt	PUDDING	Desserts	9	8	[0, 0, 0]	n/a	catFR1	0	R1231M
1079.391	1.001	1085962	WORD_OFF	n/a	n/a	n/a	n/a	-999	8	[0, 0, 0]	n/a	catFR1	0	R1231M
1080.392	1.6	1086963	WORD	n/a	wordpools/wordpool_categorized_EN.txt	CAKE	Desserts	10	8	[0, 0, 0]	n/a	catFR1	0	R1231M
1082.009	0.784	1088580	WORD_OFF	n/a	n/a	n/a	n/a	-999	8	[0, 0, 0]	n/a	catFR1	0	R1231M
1082.793	1.6	1089364	WORD	n/a	wordpools/wordpool_categorized_EN.txt	DRESSER	Furniture	11	8	[0, 0, 0]	n/a	catFR1	0	R1231M
1084.409	0.8	1090980	WORD_OFF	n/a	n/a	n/a	n/a	-999	8	[0, 0, 0]	n/a	catFR1	0	R1231M
1085.209	1.6	1091780	WORD	n/a	wordpools/wordpool_categorized_EN.txt	NIGHTSTAND	Furniture	12	8	[0, 0, 0]	n/a	catFR1	0	R1231M
1086.826	0.0	1093396	ENCODING_END	n/a	n/a	n/a	n/a	-999	8	[0, 0, 0]	n/a	catFR1	0	R1231M
1086.826	0.105	1093396	WORD_OFF	n/a	n/a	n/a	n/a	-999	8	[0, 0, 0]	n/a	catFR1	0	R1231M
1086.931	0.0	1093501	DISTRACT_START	n/a	n/a	n/a	n/a	-999	8	[0, 0, 0]	n/a	catFR1	0	R1231M
1086.931	0.012	1093501	START	n/a	n/a	n/a	n/a	-999	9	[-999, -999, -999]	n/a	catFR1	0	R1231M
1086.943	17.32	1093513	PROB	17.287	n/a	n/a	n/a	-999	9	[8, 8, 8]	24.0	catFR1	0	R1231M
1104.263	31.03	1110832	PROB	31.03	n/a	n/a	n/a	-999	9	[7, 6, 3]	16.0	catFR1	0	R1231M
1135.293	0.009	1141861	STOP	n/a	n/a	n/a	n/a	-999	9	[-999, -999, -999]	n/a	catFR1	0	R1231M
1135.302	0.65	1141870	DISTRACT_END	n/a	n/a	n/a	n/a	-999	8	[0, 0, 0]	n/a	catFR1	0	R1231M
1135.952	0.518	1142520	RETRIEVAL_ORIENT	n/a	n/a	n/a	n/a	-999	8	[0, 0, 0]	n/a	catFR1	0	R1231M
1136.47	3.378	1143038	REC_START	n/a	n/a	n/a	n/a	-999	8	[0, 0, 0]	n/a	catFR1	0	R1231M
1139.848	1.922	1146415	REC_WORD	3.378	n/a	PIE	Desserts	1	8	[0, 0, 0]	n/a	catFR1	0	R1231M
1141.77	1.943	1148337	REC_WORD	5.3	n/a	PASTRY	Desserts	2	8	[0, 0, 0]	n/a	catFR1	0	R1231M
1143.713	5.635	1150280	REC_WORD	7.243	n/a	SHELF	Furniture	6	8	[0, 0, 0]	n/a	catFR1	0	R1231M
1149.348	8.756	1155915	REC_WORD	12.878	n/a	BED	Furniture	5	8	[0, 0, 0]	n/a	catFR1	0	R1231M
1158.104	8.378	1164670	REC_WORD_VV	21.634	n/a	<>	n/a	-999	8	[0, 0, 0]	n/a	catFR1	0	R1231M
1166.482	12.562	1173048	REC_END	n/a	n/a	n/a	n/a	-999	8	[0, 0, 0]	n/a	catFR1	0	R1231M
1179.044	0.5	1185609	TRIAL	n/a	n/a	n/a	n/a	-999	9	[0, 0, 0]	n/a	catFR1	0	R1231M
1179.544	10.0	1186109	COUNTDOWN_START	n/a	n/a	n/a	n/a	-999	9	[0, 0, 0]	n/a	catFR1	0	R1231M
1189.972	0.007	1196537	COUNTDOWN_END	n/a	n/a	n/a	n/a	-999	9	[0, 0, 0]	n/a	catFR1	0	R1231M
1189.979	1.6	1196544	ORIENT	n/a	n/a	n/a	n/a	-999	9	[0, 0, 0]	n/a	catFR1	0	R1231M
1191.581	2.0	1198145	ORIENT_OFF	n/a	n/a	n/a	n/a	-999	9	[0, 0, 0]	n/a	catFR1	0	R1231M
1193.581	1.6	1200145	WORD	n/a	wordpools/wordpool_categorized_EN.txt	SUNFLOWER	Flowers	1	9	[0, 0, 0]	n/a	catFR1	0	R1231M
1195.197	0.884	1201761	WORD_OFF	n/a	n/a	n/a	n/a	-999	9	[0, 0, 0]	n/a	catFR1	0	R1231M
1196.081	1.6	1202645	WORD	n/a	wordpools/wordpool_categorized_EN.txt	DAFFODIL	Flowers	2	9	[0, 0, 0]	n/a	catFR1	0	R1231M
1197.699	0.832	1204263	WORD_OFF	n/a	n/a	n/a	n/a	-999	9	[0, 0, 0]	n/a	catFR1	0	R1231M
1198.531	1.6	1205095	WORD	n/a	wordpools/wordpool_categorized_EN.txt	ROACH	Insects	3	9	[0, 0, 0]	n/a	catFR1	0	R1231M
1200.148	0.784	1206712	WORD_OFF	n/a	n/a	n/a	n/a	-999	9	[0, 0, 0]	n/a	catFR1	0	R1231M
1200.932	1.6	1207496	WORD	n/a	wordpools/wordpool_categorized_EN.txt	CRICKET	Insects	4	9	[0, 0, 0]	n/a	catFR1	0	R1231M
1202.549	0.883	1209113	WORD_OFF	n/a	n/a	n/a	n/a	-999	9	[0, 0, 0]	n/a	catFR1	0	R1231M
1203.432	1.6	1209996	WORD	n/a	wordpools/wordpool_categorized_EN.txt	DRUM	Instruments	5	9	[0, 0, 0]	n/a	catFR1	0	R1231M
1205.049	0.9	1211613	WORD_OFF	n/a	n/a	n/a	n/a	-999	9	[0, 0, 0]	n/a	catFR1	0	R1231M
1205.949	1.6	1212513	WORD	n/a	wordpools/wordpool_categorized_EN.txt	TUBA	Instruments	6	9	[0, 0, 0]	n/a	catFR1	0	R1231M
1207.566	0.884	1214130	WORD_OFF	n/a	n/a	n/a	n/a	-999	9	[0, 0, 0]	n/a	catFR1	0	R1231M
1208.45	1.6	1215013	WORD	n/a	wordpools/wordpool_categorized_EN.txt	LILY	Flowers	7	9	[0, 0, 0]	n/a	catFR1	0	R1231M
1210.067	0.783	1216630	WORD_OFF	n/a	n/a	n/a	n/a	-999	9	[0, 0, 0]	n/a	catFR1	0	R1231M
1210.85	1.6	1217413	WORD	n/a	wordpools/wordpool_categorized_EN.txt	DAISY	Flowers	8	9	[0, 0, 0]	n/a	catFR1	0	R1231M
1212.467	0.834	1219030	WORD_OFF	n/a	n/a	n/a	n/a	-999	9	[0, 0, 0]	n/a	catFR1	0	R1231M
1213.301	1.6	1219864	WORD	n/a	wordpools/wordpool_categorized_EN.txt	MOSQUITO	Insects	9	9	[0, 0, 0]	n/a	catFR1	0	R1231M
1214.918	0.9	1221481	WORD_OFF	n/a	n/a	n/a	n/a	-999	9	[0, 0, 0]	n/a	catFR1	0	R1231M
1215.818	1.6	1222381	WORD	n/a	wordpools/wordpool_categorized_EN.txt	ANT	Insects	10	9	[0, 0, 0]	n/a	catFR1	0	R1231M
1217.435	0.933	1223998	WORD_OFF	n/a	n/a	n/a	n/a	-999	9	[0, 0, 0]	n/a	catFR1	0	R1231M
1218.368	1.6	1224931	WORD	n/a	wordpools/wordpool_categorized_EN.txt	TRUMPET	Instruments	11	9	[0, 0, 0]	n/a	catFR1	0	R1231M
1219.985	0.901	1226548	WORD_OFF	n/a	n/a	n/a	n/a	-999	9	[0, 0, 0]	n/a	catFR1	0	R1231M
1220.886	1.6	1227449	WORD	n/a	wordpools/wordpool_categorized_EN.txt	VIOLIN	Instruments	12	9	[0, 0, 0]	n/a	catFR1	0	R1231M
1222.502	0.001	1229065	WORD_OFF	n/a	n/a	n/a	n/a	-999	9	[0, 0, 0]	n/a	catFR1	0	R1231M
1222.503	0.136	1229066	ENCODING_END	n/a	n/a	n/a	n/a	-999	9	[0, 0, 0]	n/a	catFR1	0	R1231M
1222.639	0.0	1229202	DISTRACT_START	n/a	n/a	n/a	n/a	-999	9	[0, 0, 0]	n/a	catFR1	0	R1231M
1222.639	0.015	1229202	START	n/a	n/a	n/a	n/a	-999	10	[-999, -999, -999]	n/a	catFR1	0	R1231M
1222.654	16.936	1229217	PROB	16.903	n/a	n/a	n/a	-999	10	[3, 4, 8]	15.0	catFR1	0	R1231M
1239.59	33.447	1246152	PROB	33.447	n/a	n/a	n/a	-999	10	[4, 5, 6]	15.0	catFR1	0	R1231M
1273.037	0.009	1279597	STOP	n/a	n/a	n/a	n/a	-999	10	[-999, -999, -999]	n/a	catFR1	0	R1231M
1273.046	0.567	1279606	DISTRACT_END	n/a	n/a	n/a	n/a	-999	9	[0, 0, 0]	n/a	catFR1	0	R1231M
1273.613	0.517	1280173	RETRIEVAL_ORIENT	n/a	n/a	n/a	n/a	-999	9	[0, 0, 0]	n/a	catFR1	0	R1231M
1274.13	2.525	1280690	REC_START	n/a	n/a	n/a	n/a	-999	9	[0, 0, 0]	n/a	catFR1	0	R1231M
1276.655	1.822	1283215	REC_WORD	2.525	n/a	ROACH	Insects	3	9	[0, 0, 0]	n/a	catFR1	0	R1231M
1278.477	3.398	1285036	REC_WORD	4.347	n/a	CRICKET	Insects	4	9	[0, 0, 0]	n/a	catFR1	0	R1231M
1281.875	7.581	1288434	REC_WORD	7.745	n/a	DAISY	Flowers	8	9	[0, 0, 0]	n/a	catFR1	0	R1231M
1289.456	4.638	1296015	REC_WORD	15.326	n/a	DAFFODIL	Flowers	2	9	[0, 0, 0]	n/a	catFR1	0	R1231M
1294.094	10.048	1300653	REC_WORD	19.964	n/a	LILY	Flowers	7	9	[0, 0, 0]	n/a	catFR1	0	R1231M
1304.142	6.928	1310700	REC_END	n/a	n/a	n/a	n/a	-999	9	[0, 0, 0]	n/a	catFR1	0	R1231M
1311.07	0.5	1317628	TRIAL	n/a	n/a	n/a	n/a	-999	10	[0, 0, 0]	n/a	catFR1	0	R1231M
1311.57	10.0	1318127	COUNTDOWN_START	n/a	n/a	n/a	n/a	-999	10	[0, 0, 0]	n/a	catFR1	0	R1231M
1321.998	0.007	1328555	COUNTDOWN_END	n/a	n/a	n/a	n/a	-999	10	[0, 0, 0]	n/a	catFR1	0	R1231M
1322.005	1.6	1328562	ORIENT	n/a	n/a	n/a	n/a	-999	10	[0, 0, 0]	n/a	catFR1	0	R1231M
1323.623	1.816	1330180	ORIENT_OFF	n/a	n/a	n/a	n/a	-999	10	[0, 0, 0]	n/a	catFR1	0	R1231M
1325.439	1.6	1331996	WORD	n/a	wordpools/wordpool_categorized_EN.txt	DRIZZLE	Weather	1	10	[0, 0, 0]	n/a	catFR1	0	R1231M
1327.056	0.9	1333613	WORD_OFF	n/a	n/a	n/a	n/a	-999	10	[0, 0, 0]	n/a	catFR1	0	R1231M
1327.956	1.6	1334513	WORD	n/a	wordpools/wordpool_categorized_EN.txt	RAIN	Weather	2	10	[0, 0, 0]	n/a	catFR1	0	R1231M
1329.574	0.966	1336130	WORD_OFF	n/a	n/a	n/a	n/a	-999	10	[0, 0, 0]	n/a	catFR1	0	R1231M
1330.54	1.6	1337096	WORD	n/a	wordpools/wordpool_categorized_EN.txt	HICKORY	Trees	3	10	[0, 0, 0]	n/a	catFR1	0	R1231M
1332.157	0.85	1338713	WORD_OFF	n/a	n/a	n/a	n/a	-999	10	[0, 0, 0]	n/a	catFR1	0	R1231M
1333.007	1.6	1339563	WORD	n/a	wordpools/wordpool_categorized_EN.txt	WILLOW	Trees	4	10	[0, 0, 0]	n/a	catFR1	0	R1231M
1334.608	0.8	1341164	WORD_OFF	n/a	n/a	n/a	n/a	-999	10	[0, 0, 0]	n/a	catFR1	0	R1231M
1335.408	1.6	1341964	WORD	n/a	wordpools/wordpool_categorized_EN.txt	MILK	Beverages	5	10	[0, 0, 0]	n/a	catFR1	0	R1231M
1337.025	0.916	1343581	WORD_OFF	n/a	n/a	n/a	n/a	-999	10	[0, 0, 0]	n/a	catFR1	0	R1231M
1337.941	1.6	1344497	WORD	n/a	wordpools/wordpool_categorized_EN.txt	WATER	Beverages	6	10	[0, 0, 0]	n/a	catFR1	0	R1231M
1339.558	0.984	1346114	WORD_OFF	n/a	n/a	n/a	n/a	-999	10	[0, 0, 0]	n/a	catFR1	0	R1231M
1340.542	1.6	1347098	WORD	n/a	wordpools/wordpool_categorized_EN.txt	OAK	Trees	7	10	[0, 0, 0]	n/a	catFR1	0	R1231M
1342.159	0.933	1348715	WORD_OFF	n/a	n/a	n/a	n/a	-999	10	[0, 0, 0]	n/a	catFR1	0	R1231M
1343.092	1.6	1349648	WORD	n/a	wordpools/wordpool_categorized_EN.txt	BIRCH	Trees	8	10	[0, 0, 0]	n/a	catFR1	0	R1231M
1344.694	0.933	1351250	WORD_OFF	n/a	n/a	n/a	n/a	-999	10	[0, 0, 0]	n/a	catFR1	0	R1231M
1345.627	1.6	1352183	WORD	n/a	wordpools/wordpool_categorized_EN.txt	LIGHTNING	Weather	9	10	[0, 0, 0]	n/a	catFR1	0	R1231M
1347.243	0.884	1353798	WORD_OFF	n/a	n/a	n/a	n/a	-999	10	[0, 0, 0]	n/a	catFR1	0	R1231M
1348.127	1.6	1354682	WORD	n/a	wordpools/wordpool_categorized_EN.txt	TORNADO	Weather	10	10	[0, 0, 0]	n/a	catFR1	0	R1231M
1349.745	0.883	1356300	WORD_OFF	n/a	n/a	n/a	n/a	-999	10	[0, 0, 0]	n/a	catFR1	0	R1231M
1350.628	1.6	1357183	WORD	n/a	wordpools/wordpool_categorized_EN.txt	BEER	Beverages	11	10	[0, 0, 0]	n/a	catFR1	0	R1231M
1352.244	0.95	1358799	WORD_OFF	n/a	n/a	n/a	n/a	-999	10	[0, 0, 0]	n/a	catFR1	0	R1231M
1353.194	1.6	1359749	WORD	n/a	wordpools/wordpool_categorized_EN.txt	SODA	Beverages	12	10	[0, 0, 0]	n/a	catFR1	0	R1231M
1354.795	0.001	1361350	WORD_OFF	n/a	n/a	n/a	n/a	-999	10	[0, 0, 0]	n/a	catFR1	0	R1231M
1354.796	0.13	1361351	ENCODING_END	n/a	n/a	n/a	n/a	-999	10	[0, 0, 0]	n/a	catFR1	0	R1231M
1354.926	0.0	1361481	DISTRACT_START	n/a	n/a	n/a	n/a	-999	10	[0, 0, 0]	n/a	catFR1	0	R1231M
1354.926	0.019	1361481	START	n/a	n/a	n/a	n/a	-999	11	[-999, -999, -999]	n/a	catFR1	0	R1231M
1354.945	7.151	1361500	PROB	7.116	n/a	n/a	n/a	-999	11	[2, 8, 6]	16.0	catFR1	0	R1231M
1362.096	21.438	1368651	PROB	21.438	n/a	n/a	n/a	-999	11	[6, 7, 9]	21.0	catFR1	0	R1231M
1383.534	0.017	1390087	STOP	n/a	n/a	n/a	n/a	-999	11	[-999, -999, -999]	n/a	catFR1	0	R1231M
1383.551	0.649	1390104	DISTRACT_END	n/a	n/a	n/a	n/a	-999	10	[0, 0, 0]	n/a	catFR1	0	R1231M
1384.2	0.519	1390753	RETRIEVAL_ORIENT	n/a	n/a	n/a	n/a	-999	10	[0, 0, 0]	n/a	catFR1	0	R1231M
1384.719	2.926	1391272	REC_START	n/a	n/a	n/a	n/a	-999	10	[0, 0, 0]	n/a	catFR1	0	R1231M
1387.645	1.546	1394198	REC_WORD	2.926	n/a	BEER	Beverages	11	10	[0, 0, 0]	n/a	catFR1	0	R1231M
1389.191	2.302	1395744	REC_WORD	4.472	n/a	SODA	Beverages	12	10	[0, 0, 0]	n/a	catFR1	0	R1231M
1391.493	4.748	1398046	REC_WORD	6.774	n/a	LIGHTNING	Weather	9	10	[0, 0, 0]	n/a	catFR1	0	R1231M
1396.241	2.588	1402794	REC_WORD	11.522	n/a	TORNADO	Weather	10	10	[0, 0, 0]	n/a	catFR1	0	R1231M
1398.829	3.502	1405381	REC_WORD	14.11	n/a	OAK	Trees	7	10	[0, 0, 0]	n/a	catFR1	0	R1231M
1402.331	8.383	1408883	REC_WORD	17.612	n/a	WOOD	n/a	-999	10	[0, 0, 0]	n/a	catFR1	0	R1231M
1410.714	1.805	1417266	REC_WORD	25.995	n/a	DRIZZLE	Weather	1	10	[0, 0, 0]	n/a	catFR1	0	R1231M
1412.519	2.212	1419071	REC_WORD	27.8	n/a	RAIN	Weather	2	10	[0, 0, 0]	n/a	catFR1	0	R1231M
1414.731	13.178	1421283	REC_END	n/a	n/a	n/a	n/a	-999	10	[0, 0, 0]	n/a	catFR1	0	R1231M
1427.909	0.5	1434460	TRIAL	n/a	n/a	n/a	n/a	-999	11	[0, 0, 0]	n/a	catFR1	0	R1231M
1428.409	10.0	1434960	COUNTDOWN_START	n/a	n/a	n/a	n/a	-999	11	[0, 0, 0]	n/a	catFR1	0	R1231M
1438.837	0.007	1445387	COUNTDOWN_END	n/a	n/a	n/a	n/a	-999	11	[0, 0, 0]	n/a	catFR1	0	R1231M
1438.844	1.6	1445394	ORIENT	n/a	n/a	n/a	n/a	-999	11	[0, 0, 0]	n/a	catFR1	0	R1231M
1440.461	1.917	1447011	ORIENT_OFF	n/a	n/a	n/a	n/a	-999	11	[0, 0, 0]	n/a	catFR1	0	R1231M
1442.378	1.6	1448928	WORD	n/a	wordpools/wordpool_categorized_EN.txt	IRON	Appliances	1	11	[0, 0, 0]	n/a	catFR1	0	R1231M
1443.995	0.867	1450545	WORD_OFF	n/a	n/a	n/a	n/a	-999	11	[0, 0, 0]	n/a	catFR1	0	R1231M
1444.862	1.6	1451412	WORD	n/a	wordpools/wordpool_categorized_EN.txt	STOVE	Appliances	2	11	[0, 0, 0]	n/a	catFR1	0	R1231M
1446.479	0.917	1453029	WORD_OFF	n/a	n/a	n/a	n/a	-999	11	[0, 0, 0]	n/a	catFR1	0	R1231M
1447.396	1.6	1453946	WORD	n/a	wordpools/wordpool_categorized_EN.txt	APPLE	Fruit	3	11	[0, 0, 0]	n/a	catFR1	0	R1231M
1449.013	0.817	1455563	WORD_OFF	n/a	n/a	n/a	n/a	-999	11	[0, 0, 0]	n/a	catFR1	0	R1231M
1449.83	1.6	1456380	WORD	n/a	wordpools/wordpool_categorized_EN.txt	PEAR	Fruit	4	11	[0, 0, 0]	n/a	catFR1	0	R1231M
1451.447	0.866	1457996	WORD_OFF	n/a	n/a	n/a	n/a	-999	11	[0, 0, 0]	n/a	catFR1	0	R1231M
1452.313	1.6	1458862	WORD	n/a	wordpools/wordpool_categorized_EN.txt	SPARROW	Birds	5	11	[0, 0, 0]	n/a	catFR1	0	R1231M
1453.931	0.95	1460480	WORD_OFF	n/a	n/a	n/a	n/a	-999	11	[0, 0, 0]	n/a	catFR1	0	R1231M
1454.881	1.6	1461430	WORD	n/a	wordpools/wordpool_categorized_EN.txt	CROW	Birds	6	11	[0, 0, 0]	n/a	catFR1	0	R1231M
1456.498	0.966	1463047	WORD_OFF	n/a	n/a	n/a	n/a	-999	11	[0, 0, 0]	n/a	catFR1	0	R1231M
1457.464	1.6	1464013	WORD	n/a	wordpools/wordpool_categorized_EN.txt	DISHWASHER	Appliances	7	11	[0, 0, 0]	n/a	catFR1	0	R1231M
1459.082	0.85	1465631	WORD_OFF	n/a	n/a	n/a	n/a	-999	11	[0, 0, 0]	n/a	catFR1	0	R1231M
1459.932	1.6	1466481	WORD	n/a	wordpools/wordpool_categorized_EN.txt	VACUUM	Appliances	8	11	[0, 0, 0]	n/a	catFR1	0	R1231M
1461.549	0.767	1468098	WORD_OFF	n/a	n/a	n/a	n/a	-999	11	[0, 0, 0]	n/a	catFR1	0	R1231M
1462.316	1.6	1468865	WORD	n/a	wordpools/wordpool_categorized_EN.txt	BLUEBERRY	Fruit	9	11	[0, 0, 0]	n/a	catFR1	0	R1231M
1463.933	0.933	1470482	WORD_OFF	n/a	n/a	n/a	n/a	-999	11	[0, 0, 0]	n/a	catFR1	0	R1231M
1464.866	1.6	1471415	WORD	n/a	wordpools/wordpool_categorized_EN.txt	GRAPE	Fruit	10	11	[0, 0, 0]	n/a	catFR1	0	R1231M
1466.483	0.934	1473032	WORD_OFF	n/a	n/a	n/a	n/a	-999	11	[0, 0, 0]	n/a	catFR1	0	R1231M
1467.417	1.6	1473965	WORD	n/a	wordpools/wordpool_categorized_EN.txt	DOVE	Birds	11	11	[0, 0, 0]	n/a	catFR1	0	R1231M
1469.033	0.967	1475581	WORD_OFF	n/a	n/a	n/a	n/a	-999	11	[0, 0, 0]	n/a	catFR1	0	R1231M
1470.0	1.6	1476548	WORD	n/a	wordpools/wordpool_categorized_EN.txt	ROBIN	Birds	12	11	[0, 0, 0]	n/a	catFR1	0	R1231M
1471.618	0.001	1478166	WORD_OFF	n/a	n/a	n/a	n/a	-999	11	[0, 0, 0]	n/a	catFR1	0	R1231M
1471.619	0.109	1478167	ENCODING_END	n/a	n/a	n/a	n/a	-999	11	[0, 0, 0]	n/a	catFR1	0	R1231M
1471.728	0.0	1478276	DISTRACT_START	n/a	n/a	n/a	n/a	-999	11	[0, 0, 0]	n/a	catFR1	0	R1231M
1471.728	0.024	1478276	START	n/a	n/a	n/a	n/a	-999	12	[-999, -999, -999]	n/a	catFR1	0	R1231M
1471.752	10.818	1478300	PROB	10.78	n/a	n/a	n/a	-999	12	[4, 3, 5]	12.0	catFR1	0	R1231M
1482.57	25.101	1489118	PROB	25.101	n/a	n/a	n/a	-999	12	[3, 5, 6]	14.0	catFR1	0	R1231M
1507.671	0.021	1514217	STOP	n/a	n/a	n/a	n/a	-999	12	[-999, -999, -999]	n/a	catFR1	0	R1231M
1507.692	0.582	1514238	DISTRACT_END	n/a	n/a	n/a	n/a	-999	11	[0, 0, 0]	n/a	catFR1	0	R1231M
1508.274	0.519	1514820	RETRIEVAL_ORIENT	n/a	n/a	n/a	n/a	-999	11	[0, 0, 0]	n/a	catFR1	0	R1231M
1508.793	4.12	1515339	REC_START	n/a	n/a	n/a	n/a	-999	11	[0, 0, 0]	n/a	catFR1	0	R1231M
1512.913	2.462	1519459	REC_WORD	4.12	n/a	DOVE	Birds	11	11	[0, 0, 0]	n/a	catFR1	0	R1231M
1515.375	2.402	1521921	REC_WORD	6.582	n/a	ROBIN	Birds	12	11	[0, 0, 0]	n/a	catFR1	0	R1231M
1517.777	2.065	1524323	REC_WORD	8.984	n/a	DISHWASHER	Appliances	7	11	[0, 0, 0]	n/a	catFR1	0	R1231M
1519.842	2.697	1526387	REC_WORD	11.049	n/a	VACUUM	Appliances	8	11	[0, 0, 0]	n/a	catFR1	0	R1231M
1522.539	2.49	1529084	REC_WORD	13.746	n/a	IRON	Appliances	1	11	[0, 0, 0]	n/a	catFR1	0	R1231M
1525.029	10.16	1531574	REC_WORD	16.236	n/a	STOVE	Appliances	2	11	[0, 0, 0]	n/a	catFR1	0	R1231M
1535.189	1.474	1541734	REC_WORD	26.396	n/a	ORANGE	n/a	-999	11	[0, 0, 0]	n/a	catFR1	0	R1231M
1536.663	2.141	1543207	REC_WORD	27.87	n/a	GRAPE	Fruit	10	11	[0, 0, 0]	n/a	catFR1	0	R1231M
1538.804	32.999	1545348	REC_END	n/a	n/a	n/a	n/a	-999	11	[0, 0, 0]	n/a	catFR1	0	R1231M
1571.803	0.5	1578345	TRIAL	n/a	n/a	n/a	n/a	-999	12	[0, 0, 0]	n/a	catFR1	0	R1231M
1572.303	10.0	1578845	COUNTDOWN_START	n/a	n/a	n/a	n/a	-999	12	[0, 0, 0]	n/a	catFR1	0	R1231M
1582.731	0.009	1589273	COUNTDOWN_END	n/a	n/a	n/a	n/a	-999	12	[0, 0, 0]	n/a	catFR1	0	R1231M
1582.74	1.6	1589282	ORIENT	n/a	n/a	n/a	n/a	-999	12	[0, 0, 0]	n/a	catFR1	0	R1231M
1584.356	2.184	1590898	ORIENT_OFF	n/a	n/a	n/a	n/a	-999	12	[0, 0, 0]	n/a	catFR1	0	R1231M
1586.54	1.6	1593082	WORD	n/a	wordpools/wordpool_categorized_EN.txt	STAIRS	Building	1	12	[0, 0, 0]	n/a	catFR1	0	R1231M
1588.157	0.95	1594699	WORD_OFF	n/a	n/a	n/a	n/a	-999	12	[0, 0, 0]	n/a	catFR1	0	R1231M
1589.107	1.6	1595648	WORD	n/a	wordpools/wordpool_categorized_EN.txt	HALLWAY	Building	2	12	[0, 0, 0]	n/a	catFR1	0	R1231M
1590.725	1.0	1597266	WORD_OFF	n/a	n/a	n/a	n/a	-999	12	[0, 0, 0]	n/a	catFR1	0	R1231M
1591.725	1.6	1598266	WORD	n/a	wordpools/wordpool_categorized_EN.txt	BEAR	Zoo	3	12	[0, 0, 0]	n/a	catFR1	0	R1231M
1593.341	0.917	1599882	WORD_OFF	n/a	n/a	n/a	n/a	-999	12	[0, 0, 0]	n/a	catFR1	0	R1231M
1594.258	1.6	1600799	WORD	n/a	wordpools/wordpool_categorized_EN.txt	LION	Zoo	4	12	[0, 0, 0]	n/a	catFR1	0	R1231M
1595.875	0.884	1602416	WORD_OFF	n/a	n/a	n/a	n/a	-999	12	[0, 0, 0]	n/a	catFR1	0	R1231M
1596.759	1.6	1603300	WORD	n/a	wordpools/wordpool_categorized_EN.txt	CYPRESS	Trees	5	12	[0, 0, 0]	n/a	catFR1	0	R1231M
1598.375	0.9	1604916	WORD_OFF	n/a	n/a	n/a	n/a	-999	12	[0, 0, 0]	n/a	catFR1	0	R1231M
1599.275	1.6	1605816	WORD	n/a	wordpools/wordpool_categorized_EN.txt	EVERGREEN	Trees	6	12	[0, 0, 0]	n/a	catFR1	0	R1231M
1600.892	0.967	1607433	WORD_OFF	n/a	n/a	n/a	n/a	-999	12	[0, 0, 0]	n/a	catFR1	0	R1231M
1601.859	1.6	1608400	WORD	n/a	wordpools/wordpool_categorized_EN.txt	TIGER	Zoo	7	12	[0, 0, 0]	n/a	catFR1	0	R1231M
1603.476	0.817	1610017	WORD_OFF	n/a	n/a	n/a	n/a	-999	12	[0, 0, 0]	n/a	catFR1	0	R1231M
1604.293	1.6	1610834	WORD	n/a	wordpools/wordpool_categorized_EN.txt	GORILLA	Zoo	8	12	[0, 0, 0]	n/a	catFR1	0	R1231M
1605.91	0.9	1612450	WORD_OFF	n/a	n/a	n/a	n/a	-999	12	[0, 0, 0]	n/a	catFR1	0	R1231M
1606.81	1.6	1613350	WORD	n/a	wordpools/wordpool_categorized_EN.txt	WALL	Building	9	12	[0, 0, 0]	n/a	catFR1	0	R1231M
1608.427	0.817	1614967	WORD_OFF	n/a	n/a	n/a	n/a	-999	12	[0, 0, 0]	n/a	catFR1	0	R1231M
1609.244	1.6	1615784	WORD	n/a	wordpools/wordpool_categorized_EN.txt	WINDOW	Building	10	12	[0, 0, 0]	n/a	catFR1	0	R1231M
1610.861	0.834	1617401	WORD_OFF	n/a	n/a	n/a	n/a	-999	12	[0, 0, 0]	n/a	catFR1	0	R1231M
1611.695	1.6	1618235	WORD	n/a	wordpools/wordpool_categorized_EN.txt	PINE	Trees	11	12	[0, 0, 0]	n/a	catFR1	0	R1231M
1613.311	0.901	1619851	WORD_OFF	n/a	n/a	n/a	n/a	-999	12	[0, 0, 0]	n/a	catFR1	0	R1231M
1614.212	1.6	1620752	WORD	n/a	wordpools/wordpool_categorized_EN.txt	ELM	Trees	12	12	[0, 0, 0]	n/a	catFR1	0	R1231M
1615.829	0.0	1622369	ENCODING_END	n/a	n/a	n/a	n/a	-999	12	[0, 0, 0]	n/a	catFR1	0	R1231M
1615.829	0.144	1622369	WORD_OFF	n/a	n/a	n/a	n/a	-999	12	[0, 0, 0]	n/a	catFR1	0	R1231M
1615.973	0.001	1622513	DISTRACT_START	n/a	n/a	n/a	n/a	-999	12	[0, 0, 0]	n/a	catFR1	0	R1231M
1615.974	0.021	1622514	START	n/a	n/a	n/a	n/a	-999	13	[-999, -999, -999]	n/a	catFR1	0	R1231M
1615.995	8.885	1622535	PROB	8.851	n/a	n/a	n/a	-999	13	[1, 2, 5]	8.0	catFR1	0	R1231M
1624.88	4.702	1631419	PROB	4.677	n/a	n/a	n/a	-999	13	[4, 4, 2]	10.0	catFR1	0	R1231M
1629.582	12.294	1636121	PROB	12.294	n/a	n/a	n/a	-999	13	[3, 5, 8]	16.0	catFR1	0	R1231M
1641.876	0.008	1648414	STOP	n/a	n/a	n/a	n/a	-999	13	[-999, -999, -999]	n/a	catFR1	0	R1231M
1641.884	0.6	1648422	DISTRACT_END	n/a	n/a	n/a	n/a	-999	12	[0, 0, 0]	n/a	catFR1	0	R1231M
1642.484	0.517	1649022	RETRIEVAL_ORIENT	n/a	n/a	n/a	n/a	-999	12	[0, 0, 0]	n/a	catFR1	0	R1231M
1643.001	6.269	1649539	REC_START	n/a	n/a	n/a	n/a	-999	12	[0, 0, 0]	n/a	catFR1	0	R1231M
1649.27	5.477	1655808	REC_WORD	6.269	n/a	TIGER	Zoo	7	12	[0, 0, 0]	n/a	catFR1	0	R1231M
1654.747	4.204	1661285	REC_WORD	11.746	n/a	PINE	Trees	11	12	[0, 0, 0]	n/a	catFR1	0	R1231M
1658.951	4.112	1665488	REC_WORD	15.95	n/a	ELM	Trees	12	12	[0, 0, 0]	n/a	catFR1	0	R1231M
1663.063	9.952	1669600	REC_WORD	20.062	n/a	WINDOW	Building	10	12	[0, 0, 0]	n/a	catFR1	0	R1231M
1673.015	33.948	1679552	REC_END	n/a	n/a	n/a	n/a	-999	12	[0, 0, 0]	n/a	catFR1	0	R1231M
1706.963	0.5	1713498	TRIAL	n/a	n/a	n/a	n/a	-999	13	[0, 0, 0]	n/a	catFR1	0	R1231M
1707.463	10.0	1713998	COUNTDOWN_START	n/a	n/a	n/a	n/a	-999	13	[0, 0, 0]	n/a	catFR1	0	R1231M
1717.891	0.007	1724425	COUNTDOWN_END	n/a	n/a	n/a	n/a	-999	13	[0, 0, 0]	n/a	catFR1	0	R1231M
1717.898	1.6	1724432	ORIENT	n/a	n/a	n/a	n/a	-999	13	[0, 0, 0]	n/a	catFR1	0	R1231M
1719.515	2.218	1726049	ORIENT_OFF	n/a	n/a	n/a	n/a	-999	13	[0, 0, 0]	n/a	catFR1	0	R1231M
1721.733	1.6	1728267	WORD	n/a	wordpools/wordpool_categorized_EN.txt	SPRUCE	Trees	1	13	[0, 0, 0]	n/a	catFR1	0	R1231M
1723.349	0.834	1729883	WORD_OFF	n/a	n/a	n/a	n/a	-999	13	[0, 0, 0]	n/a	catFR1	0	R1231M
1724.183	1.6	1730717	WORD	n/a	wordpools/wordpool_categorized_EN.txt	CEDAR	Trees	2	13	[0, 0, 0]	n/a	catFR1	0	R1231M
1725.8	0.801	1732334	WORD_OFF	n/a	n/a	n/a	n/a	-999	13	[0, 0, 0]	n/a	catFR1	0	R1231M
1726.601	1.6	1733135	WORD	n/a	wordpools/wordpool_categorized_EN.txt	CARDINAL	Birds	3	13	[0, 0, 0]	n/a	catFR1	0	R1231M
1728.217	0.8	1734750	WORD_OFF	n/a	n/a	n/a	n/a	-999	13	[0, 0, 0]	n/a	catFR1	0	R1231M
1729.017	1.6	1735550	WORD	n/a	wordpools/wordpool_categorized_EN.txt	DUCK	Birds	4	13	[0, 0, 0]	n/a	catFR1	0	R1231M
1730.635	0.883	1737168	WORD_OFF	n/a	n/a	n/a	n/a	-999	13	[0, 0, 0]	n/a	catFR1	0	R1231M
1731.518	1.6	1738051	WORD	n/a	wordpools/wordpool_categorized_EN.txt	TRUCK	Vehicles	5	13	[0, 0, 0]	n/a	catFR1	0	R1231M
1733.135	0.85	1739668	WORD_OFF	n/a	n/a	n/a	n/a	-999	13	[0, 0, 0]	n/a	catFR1	0	R1231M
1733.985	1.6	1740518	WORD	n/a	wordpools/wordpool_categorized_EN.txt	BIKE	Vehicles	6	13	[0, 0, 0]	n/a	catFR1	0	R1231M
1735.603	0.932	1742136	WORD_OFF	n/a	n/a	n/a	n/a	-999	13	[0, 0, 0]	n/a	catFR1	0	R1231M
1736.535	1.6	1743068	WORD	n/a	wordpools/wordpool_categorized_EN.txt	FINCH	Birds	7	13	[0, 0, 0]	n/a	catFR1	0	R1231M
1738.152	0.834	1744685	WORD_OFF	n/a	n/a	n/a	n/a	-999	13	[0, 0, 0]	n/a	catFR1	0	R1231M
1738.986	1.6	1745519	WORD	n/a	wordpools/wordpool_categorized_EN.txt	SEAGULL	Birds	8	13	[0, 0, 0]	n/a	catFR1	0	R1231M
1740.604	0.882	1747137	WORD_OFF	n/a	n/a	n/a	n/a	-999	13	[0, 0, 0]	n/a	catFR1	0	R1231M
1741.486	1.6	1748019	WORD	n/a	wordpools/wordpool_categorized_EN.txt	MAPLE	Trees	9	13	[0, 0, 0]	n/a	catFR1	0	R1231M
1743.103	0.984	1749636	WORD_OFF	n/a	n/a	n/a	n/a	-999	13	[0, 0, 0]	n/a	catFR1	0	R1231M
1744.087	1.6	1750619	WORD	n/a	wordpools/wordpool_categorized_EN.txt	WALNUT	Trees	10	13	[0, 0, 0]	n/a	catFR1	0	R1231M
1745.705	0.95	1752237	WORD_OFF	n/a	n/a	n/a	n/a	-999	13	[0, 0, 0]	n/a	catFR1	0	R1231M
1746.655	1.6	1753187	WORD	n/a	wordpools/wordpool_categorized_EN.txt	MOTORCYCLE	Vehicles	11	13	[0, 0, 0]	n/a	catFR1	0	R1231M
1748.271	0.8	1754803	WORD_OFF	n/a	n/a	n/a	n/a	-999	13	[0, 0, 0]	n/a	catFR1	0	R1231M
1749.071	1.6	1755603	WORD	n/a	wordpools/wordpool_categorized_EN.txt	PLANE	Vehicles	12	13	[0, 0, 0]	n/a	catFR1	0	R1231M
1750.689	0.0	1757221	ENCODING_END	n/a	n/a	n/a	n/a	-999	13	[0, 0, 0]	n/a	catFR1	0	R1231M
1750.689	0.105	1757221	WORD_OFF	n/a	n/a	n/a	n/a	-999	13	[0, 0, 0]	n/a	catFR1	0	R1231M
1750.794	0.0	1757326	DISTRACT_START	n/a	n/a	n/a	n/a	-999	13	[0, 0, 0]	n/a	catFR1	0	R1231M
1750.794	0.011	1757326	START	n/a	n/a	n/a	n/a	-999	14	[-999, -999, -999]	n/a	catFR1	0	R1231M
1750.805	7.434	1757337	PROB	7.401	n/a	n/a	n/a	-999	14	[6, 2, 7]	15.0	catFR1	0	R1231M
1758.239	10.819	1764771	PROB	10.79	n/a	n/a	n/a	-999	14	[5, 2, 9]	16.0	catFR1	0	R1231M
1769.058	11.315	1775589	PROB	11.315	n/a	n/a	n/a	-999	14	[3, 8, 5]	16.0	catFR1	0	R1231M
1780.373	0.021	1786903	STOP	n/a	n/a	n/a	n/a	-999	14	[-999, -999, -999]	n/a	catFR1	0	R1231M
1780.394	0.633	1786924	DISTRACT_END	n/a	n/a	n/a	n/a	-999	13	[0, 0, 0]	n/a	catFR1	0	R1231M
1781.027	0.518	1787557	RETRIEVAL_ORIENT	n/a	n/a	n/a	n/a	-999	13	[0, 0, 0]	n/a	catFR1	0	R1231M
1781.545	7.116	1788075	REC_START	n/a	n/a	n/a	n/a	-999	13	[0, 0, 0]	n/a	catFR1	0	R1231M
1788.661	1.729	1795191	REC_WORD	7.116	n/a	MOTORCYCLE	Vehicles	11	13	[0, 0, 0]	n/a	catFR1	0	R1231M
1790.39	9.762	1796920	REC_WORD	8.845	n/a	DUCK	Birds	4	13	[0, 0, 0]	n/a	catFR1	0	R1231M
1800.152	7.64	1806681	REC_WORD	18.607	n/a	ELM	n/a	-999	13	[0, 0, 0]	n/a	catFR1	0	R1231M
1807.792	3.764	1814321	REC_WORD	26.247	n/a	PLANE	Vehicles	12	13	[0, 0, 0]	n/a	catFR1	0	R1231M
1811.556	97.929	1818085	REC_END	n/a	n/a	n/a	n/a	-999	13	[0, 0, 0]	n/a	catFR1	0	R1231M
1909.485	0.5	1916008	TRIAL	n/a	n/a	n/a	n/a	-999	14	[0, 0, 0]	n/a	catFR1	0	R1231M
1909.985	10.0	1916508	COUNTDOWN_START	n/a	n/a	n/a	n/a	-999	14	[0, 0, 0]	n/a	catFR1	0	R1231M
1920.413	0.008	1926935	COUNTDOWN_END	n/a	n/a	n/a	n/a	-999	14	[0, 0, 0]	n/a	catFR1	0	R1231M
1920.421	1.6	1926943	ORIENT	n/a	n/a	n/a	n/a	-999	14	[0, 0, 0]	n/a	catFR1	0	R1231M
1922.038	1.95	1928560	ORIENT_OFF	n/a	n/a	n/a	n/a	-999	14	[0, 0, 0]	n/a	catFR1	0	R1231M
1923.988	1.6	1930510	WORD	n/a	wordpools/wordpool_categorized_EN.txt	JACKET	Clothing	1	14	[0, 0, 0]	n/a	catFR1	0	R1231M
1925.606	1.017	1932128	WORD_OFF	n/a	n/a	n/a	n/a	-999	14	[0, 0, 0]	n/a	catFR1	0	R1231M
1926.623	1.6	1933145	WORD	n/a	wordpools/wordpool_categorized_EN.txt	SHOES	Clothing	2	14	[0, 0, 0]	n/a	catFR1	0	R1231M
1928.239	0.967	1934761	WORD_OFF	n/a	n/a	n/a	n/a	-999	14	[0, 0, 0]	n/a	catFR1	0	R1231M
1929.206	1.6	1935728	WORD	n/a	wordpools/wordpool_categorized_EN.txt	CLOUD	Weather	3	14	[0, 0, 0]	n/a	catFR1	0	R1231M
1930.823	0.784	1937345	WORD_OFF	n/a	n/a	n/a	n/a	-999	14	[0, 0, 0]	n/a	catFR1	0	R1231M
1931.607	1.6	1938129	WORD	n/a	wordpools/wordpool_categorized_EN.txt	WIND	Weather	4	14	[0, 0, 0]	n/a	catFR1	0	R1231M
1933.223	0.801	1939745	WORD_OFF	n/a	n/a	n/a	n/a	-999	14	[0, 0, 0]	n/a	catFR1	0	R1231M
1934.024	1.6	1940546	WORD	n/a	wordpools/wordpool_categorized_EN.txt	WRENCH	Tools	5	14	[0, 0, 0]	n/a	catFR1	0	R1231M
1935.641	0.866	1942162	WORD_OFF	n/a	n/a	n/a	n/a	-999	14	[0, 0, 0]	n/a	catFR1	0	R1231M
1936.507	1.6	1943028	WORD	n/a	wordpools/wordpool_categorized_EN.txt	CROWBAR	Tools	6	14	[0, 0, 0]	n/a	catFR1	0	R1231M
1938.124	0.9	1944645	WORD_OFF	n/a	n/a	n/a	n/a	-999	14	[0, 0, 0]	n/a	catFR1	0	R1231M
1939.024	1.6	1945545	WORD	n/a	wordpools/wordpool_categorized_EN.txt	HUMIDITY	Weather	7	14	[0, 0, 0]	n/a	catFR1	0	R1231M
1940.626	0.799	1947147	WORD_OFF	n/a	n/a	n/a	n/a	-999	14	[0, 0, 0]	n/a	catFR1	0	R1231M
1941.425	1.6	1947946	WORD	n/a	wordpools/wordpool_categorized_EN.txt	HURRICANE	Weather	8	14	[0, 0, 0]	n/a	catFR1	0	R1231M
1943.042	0.917	1949563	WORD_OFF	n/a	n/a	n/a	n/a	-999	14	[0, 0, 0]	n/a	catFR1	0	R1231M
1943.959	1.6	1950480	WORD	n/a	wordpools/wordpool_categorized_EN.txt	JEANS	Clothing	9	14	[0, 0, 0]	n/a	catFR1	0	R1231M
1945.577	1.0	1952098	WORD_OFF	n/a	n/a	n/a	n/a	-999	14	[0, 0, 0]	n/a	catFR1	0	R1231M
1946.577	1.6	1953098	WORD	n/a	wordpools/wordpool_categorized_EN.txt	SOCKS	Clothing	10	14	[0, 0, 0]	n/a	catFR1	0	R1231M
1948.193	0.933	1954714	WORD_OFF	n/a	n/a	n/a	n/a	-999	14	[0, 0, 0]	n/a	catFR1	0	R1231M
1949.126	1.6	1955647	WORD	n/a	wordpools/wordpool_categorized_EN.txt	DRILL	Tools	11	14	[0, 0, 0]	n/a	catFR1	0	R1231M
1950.744	0.884	1957265	WORD_OFF	n/a	n/a	n/a	n/a	-999	14	[0, 0, 0]	n/a	catFR1	0	R1231M
1951.628	1.6	1958148	WORD	n/a	wordpools/wordpool_categorized_EN.txt	HAMMER	Tools	12	14	[0, 0, 0]	n/a	catFR1	0	R1231M
1953.244	0.0	1959764	ENCODING_END	n/a	n/a	n/a	n/a	-999	14	[0, 0, 0]	n/a	catFR1	0	R1231M
1953.244	0.104	1959764	WORD_OFF	n/a	n/a	n/a	n/a	-999	14	[0, 0, 0]	n/a	catFR1	0	R1231M
1953.348	0.0	1959868	DISTRACT_START	n/a	n/a	n/a	n/a	-999	14	[0, 0, 0]	n/a	catFR1	0	R1231M
1953.348	0.013	1959868	START	n/a	n/a	n/a	n/a	-999	15	[-999, -999, -999]	n/a	catFR1	0	R1231M
1953.361	6.101	1959881	PROB	6.076	n/a	n/a	n/a	-999	15	[7, 4, 7]	18.0	catFR1	0	R1231M
1959.462	16.966	1965982	PROB	16.966	n/a	n/a	n/a	-999	15	[8, 7, 2]	17.0	catFR1	0	R1231M
1976.428	0.021	1982947	STOP	n/a	n/a	n/a	n/a	-999	15	[-999, -999, -999]	n/a	catFR1	0	R1231M
1976.449	0.533	1982968	DISTRACT_END	n/a	n/a	n/a	n/a	-999	14	[0, 0, 0]	n/a	catFR1	0	R1231M
1976.982	0.517	1983501	RETRIEVAL_ORIENT	n/a	n/a	n/a	n/a	-999	14	[0, 0, 0]	n/a	catFR1	0	R1231M
1977.499	5.084	1984018	REC_START	n/a	n/a	n/a	n/a	-999	14	[0, 0, 0]	n/a	catFR1	0	R1231M
1982.583	1.068	1989102	REC_WORD	5.084	n/a	JEANS	Clothing	9	14	[0, 0, 0]	n/a	catFR1	0	R1231M
1983.651	9.005	1990170	REC_WORD	6.152	n/a	SOCKS	Clothing	10	14	[0, 0, 0]	n/a	catFR1	0	R1231M
1992.656	4.722	1999174	REC_WORD	15.157	n/a	HUMIDITY	Weather	7	14	[0, 0, 0]	n/a	catFR1	0	R1231M
1997.378	2.642	2003896	REC_WORD	19.879	n/a	CLOUD	Weather	3	14	[0, 0, 0]	n/a	catFR1	0	R1231M
2000.02	7.492	2006538	REC_WORD	22.521	n/a	JACKET	Clothing	1	14	[0, 0, 0]	n/a	catFR1	0	R1231M
2007.512	20.197	2014029	REC_END	n/a	n/a	n/a	n/a	-999	14	[0, 0, 0]	n/a	catFR1	0	R1231M
2027.709	0.5	2034225	TRIAL	n/a	n/a	n/a	n/a	-999	15	[0, 0, 0]	n/a	catFR1	0	R1231M
2028.209	10.0	2034725	COUNTDOWN_START	n/a	n/a	n/a	n/a	-999	15	[0, 0, 0]	n/a	catFR1	0	R1231M
2038.637	0.008	2045152	COUNTDOWN_END	n/a	n/a	n/a	n/a	-999	15	[0, 0, 0]	n/a	catFR1	0	R1231M
2038.645	1.6	2045160	ORIENT	n/a	n/a	n/a	n/a	-999	15	[0, 0, 0]	n/a	catFR1	0	R1231M
2040.261	2.067	2046776	ORIENT_OFF	n/a	n/a	n/a	n/a	-999	15	[0, 0, 0]	n/a	catFR1	0	R1231M
2042.328	1.6	2048843	WORD	n/a	wordpools/wordpool_categorized_EN.txt	PEN	OfficeSupplies	1	15	[0, 0, 0]	n/a	catFR1	0	R1231M
2043.945	1.0	2050460	WORD_OFF	n/a	n/a	n/a	n/a	-999	15	[0, 0, 0]	n/a	catFR1	0	R1231M
2044.945	1.6	2051460	WORD	n/a	wordpools/wordpool_categorized_EN.txt	NOTEBOOK	OfficeSupplies	2	15	[0, 0, 0]	n/a	catFR1	0	R1231M
2046.562	0.883	2053077	WORD_OFF	n/a	n/a	n/a	n/a	-999	15	[0, 0, 0]	n/a	catFR1	0	R1231M
2047.445	1.6	2053960	WORD	n/a	wordpools/wordpool_categorized_EN.txt	FLOOR	Building	3	15	[0, 0, 0]	n/a	catFR1	0	R1231M
2049.062	0.851	2055577	WORD_OFF	n/a	n/a	n/a	n/a	-999	15	[0, 0, 0]	n/a	catFR1	0	R1231M
2049.913	1.6	2056428	WORD	n/a	wordpools/wordpool_categorized_EN.txt	BATHROOM	Building	4	15	[0, 0, 0]	n/a	catFR1	0	R1231M
2051.53	0.966	2058045	WORD_OFF	n/a	n/a	n/a	n/a	-999	15	[0, 0, 0]	n/a	catFR1	0	R1231M
2052.496	1.6	2059011	WORD	n/a	wordpools/wordpool_categorized_EN.txt	STRAWBERRY	Fruit	5	15	[0, 0, 0]	n/a	catFR1	0	R1231M
2054.113	0.934	2060628	WORD_OFF	n/a	n/a	n/a	n/a	-999	15	[0, 0, 0]	n/a	catFR1	0	R1231M
2055.047	1.6	2061562	WORD	n/a	wordpools/wordpool_categorized_EN.txt	CHERRY	Fruit	6	15	[0, 0, 0]	n/a	catFR1	0	R1231M
2056.665	1.0	2063179	WORD_OFF	n/a	n/a	n/a	n/a	-999	15	[0, 0, 0]	n/a	catFR1	0	R1231M
2057.665	1.6	2064179	WORD	n/a	wordpools/wordpool_categorized_EN.txt	FOLDER	OfficeSupplies	7	15	[0, 0, 0]	n/a	catFR1	0	R1231M
2059.281	0.85	2065795	WORD_OFF	n/a	n/a	n/a	n/a	-999	15	[0, 0, 0]	n/a	catFR1	0	R1231M
2060.131	1.6	2066645	WORD	n/a	wordpools/wordpool_categorized_EN.txt	BINDER	OfficeSupplies	8	15	[0, 0, 0]	n/a	catFR1	0	R1231M
2061.732	0.766	2068246	WORD_OFF	n/a	n/a	n/a	n/a	-999	15	[0, 0, 0]	n/a	catFR1	0	R1231M
2062.498	1.6	2069012	WORD	n/a	wordpools/wordpool_categorized_EN.txt	FOUNDATION	Building	9	15	[0, 0, 0]	n/a	catFR1	0	R1231M
2064.115	0.784	2070629	WORD_OFF	n/a	n/a	n/a	n/a	-999	15	[0, 0, 0]	n/a	catFR1	0	R1231M
2064.899	1.6	2071413	WORD	n/a	wordpools/wordpool_categorized_EN.txt	CEILING	Building	10	15	[0, 0, 0]	n/a	catFR1	0	R1231M
2066.516	0.85	2073030	WORD_OFF	n/a	n/a	n/a	n/a	-999	15	[0, 0, 0]	n/a	catFR1	0	R1231M
2067.366	1.6	2073880	WORD	n/a	wordpools/wordpool_categorized_EN.txt	BANANA	Fruit	11	15	[0, 0, 0]	n/a	catFR1	0	R1231M
2068.983	0.9	2075497	WORD_OFF	n/a	n/a	n/a	n/a	-999	15	[0, 0, 0]	n/a	catFR1	0	R1231M
2069.883	1.6	2076397	WORD	n/a	wordpools/wordpool_categorized_EN.txt	LEMON	Fruit	12	15	[0, 0, 0]	n/a	catFR1	0	R1231M
2071.5	0.0	2078014	ENCODING_END	n/a	n/a	n/a	n/a	-999	15	[0, 0, 0]	n/a	catFR1	0	R1231M
2071.5	0.143	2078014	WORD_OFF	n/a	n/a	n/a	n/a	-999	15	[0, 0, 0]	n/a	catFR1	0	R1231M
2071.643	0.0	2078157	DISTRACT_START	n/a	n/a	n/a	n/a	-999	15	[0, 0, 0]	n/a	catFR1	0	R1231M
2071.643	0.008	2078157	START	n/a	n/a	n/a	n/a	-999	16	[-999, -999, -999]	n/a	catFR1	0	R1231M
2071.651	16.686	2078165	PROB	16.658	n/a	n/a	n/a	-999	16	[4, 9, 3]	18.0	catFR1	0	R1231M
2088.337	5.342	2094850	PROB	5.342	n/a	n/a	n/a	-999	16	[7, 7, 4]	18.0	catFR1	0	R1231M
2093.679	0.01	2100191	STOP	n/a	n/a	n/a	n/a	-999	16	[-999, -999, -999]	n/a	catFR1	0	R1231M
2093.689	0.682	2100201	DISTRACT_END	n/a	n/a	n/a	n/a	-999	15	[0, 0, 0]	n/a	catFR1	0	R1231M
2094.371	0.518	2100883	RETRIEVAL_ORIENT	n/a	n/a	n/a	n/a	-999	15	[0, 0, 0]	n/a	catFR1	0	R1231M
2094.889	3.9	2101401	REC_START	n/a	n/a	n/a	n/a	-999	15	[0, 0, 0]	n/a	catFR1	0	R1231M
2098.789	3.867	2105301	REC_WORD	3.9	n/a	PEN	OfficeSupplies	1	15	[0, 0, 0]	n/a	catFR1	0	R1231M
2102.656	2.994	2109168	REC_WORD	7.767	n/a	NOTEBOOK	OfficeSupplies	2	15	[0, 0, 0]	n/a	catFR1	0	R1231M
2105.65	6.58	2112162	REC_WORD	10.761	n/a	BINDER	OfficeSupplies	8	15	[0, 0, 0]	n/a	catFR1	0	R1231M
2112.23	3.815	2118741	REC_WORD	17.341	n/a	FOUNDATION	Building	9	15	[0, 0, 0]	n/a	catFR1	0	R1231M
2116.045	8.856	2122556	REC_WORD	21.156	n/a	CEILING	Building	10	15	[0, 0, 0]	n/a	catFR1	0	R1231M
2124.901	8.294	2131411	REC_END	n/a	n/a	n/a	n/a	-999	15	[0, 0, 0]	n/a	catFR1	0	R1231M
2133.195	0.5	2139705	TRIAL	n/a	n/a	n/a	n/a	-999	16	[0, 0, 0]	n/a	catFR1	0	R1231M
2133.695	10.0	2140205	COUNTDOWN_START	n/a	n/a	n/a	n/a	-999	16	[0, 0, 0]	n/a	catFR1	0	R1231M
2144.123	0.008	2150632	COUNTDOWN_END	n/a	n/a	n/a	n/a	-999	16	[0, 0, 0]	n/a	catFR1	0	R1231M
2144.131	1.6	2150640	ORIENT	n/a	n/a	n/a	n/a	-999	16	[0, 0, 0]	n/a	catFR1	0	R1231M
2145.749	2.199	2152258	ORIENT_OFF	n/a	n/a	n/a	n/a	-999	16	[0, 0, 0]	n/a	catFR1	0	R1231M
2147.948	1.6	2154457	WORD	n/a	wordpools/wordpool_categorized_EN.txt	SPOON	KitchenTools	1	16	[0, 0, 0]	n/a	catFR1	0	R1231M
2149.565	0.984	2156074	WORD_OFF	n/a	n/a	n/a	n/a	-999	16	[0, 0, 0]	n/a	catFR1	0	R1231M
2150.549	1.6	2157058	WORD	n/a	wordpools/wordpool_categorized_EN.txt	CORKSCREW	KitchenTools	2	16	[0, 0, 0]	n/a	catFR1	0	R1231M
2152.166	0.783	2158675	WORD_OFF	n/a	n/a	n/a	n/a	-999	16	[0, 0, 0]	n/a	catFR1	0	R1231M
2152.949	1.6	2159458	WORD	n/a	wordpools/wordpool_categorized_EN.txt	MONKEY	Zoo	3	16	[0, 0, 0]	n/a	catFR1	0	R1231M
2154.566	0.967	2161075	WORD_OFF	n/a	n/a	n/a	n/a	-999	16	[0, 0, 0]	n/a	catFR1	0	R1231M
2155.533	1.6	2162042	WORD	n/a	wordpools/wordpool_categorized_EN.txt	ELEPHANT	Zoo	4	16	[0, 0, 0]	n/a	catFR1	0	R1231M
2157.15	0.867	2163659	WORD_OFF	n/a	n/a	n/a	n/a	-999	16	[0, 0, 0]	n/a	catFR1	0	R1231M
2158.017	1.6	2164526	WORD	n/a	wordpools/wordpool_categorized_EN.txt	RADIO	Electronics	5	16	[0, 0, 0]	n/a	catFR1	0	R1231M
2159.635	0.882	2166143	WORD_OFF	n/a	n/a	n/a	n/a	-999	16	[0, 0, 0]	n/a	catFR1	0	R1231M
2160.517	1.6	2167025	WORD	n/a	wordpools/wordpool_categorized_EN.txt	CALCULATOR	Electronics	6	16	[0, 0, 0]	n/a	catFR1	0	R1231M
2162.134	0.967	2168642	WORD_OFF	n/a	n/a	n/a	n/a	-999	16	[0, 0, 0]	n/a	catFR1	0	R1231M
2163.101	1.6	2169609	WORD	n/a	wordpools/wordpool_categorized_EN.txt	GRATER	KitchenTools	7	16	[0, 0, 0]	n/a	catFR1	0	R1231M
2164.719	0.833	2171227	WORD_OFF	n/a	n/a	n/a	n/a	-999	16	[0, 0, 0]	n/a	catFR1	0	R1231M
2165.552	1.6	2172060	WORD	n/a	wordpools/wordpool_categorized_EN.txt	FORK	KitchenTools	8	16	[0, 0, 0]	n/a	catFR1	0	R1231M
2167.169	0.967	2173677	WORD_OFF	n/a	n/a	n/a	n/a	-999	16	[0, 0, 0]	n/a	catFR1	0	R1231M
2168.136	1.6	2174644	WORD	n/a	wordpools/wordpool_categorized_EN.txt	GIRAFFE	Zoo	9	16	[0, 0, 0]	n/a	catFR1	0	R1231M
2169.753	0.951	2176261	WORD_OFF	n/a	n/a	n/a	n/a	-999	16	[0, 0, 0]	n/a	catFR1	0	R1231M
2170.704	1.6	2177212	WORD	n/a	wordpools/wordpool_categorized_EN.txt	CHEETAH	Zoo	10	16	[0, 0, 0]	n/a	catFR1	0	R1231M
2172.32	0.983	2178828	WORD_OFF	n/a	n/a	n/a	n/a	-999	16	[0, 0, 0]	n/a	catFR1	0	R1231M
2173.303	1.6	2179811	WORD	n/a	wordpools/wordpool_categorized_EN.txt	MICROWAVE	Electronics	11	16	[0, 0, 0]	n/a	catFR1	0	R1231M
2174.92	0.884	2181428	WORD_OFF	n/a	n/a	n/a	n/a	-999	16	[0, 0, 0]	n/a	catFR1	0	R1231M
2175.804	1.6	2182312	WORD	n/a	wordpools/wordpool_categorized_EN.txt	SPEAKER	Electronics	12	16	[0, 0, 0]	n/a	catFR1	0	R1231M
2177.421	0.0	2183928	ENCODING_END	n/a	n/a	n/a	n/a	-999	16	[0, 0, 0]	n/a	catFR1	0	R1231M
2177.421	0.105	2183928	WORD_OFF	n/a	n/a	n/a	n/a	-999	16	[0, 0, 0]	n/a	catFR1	0	R1231M
2177.526	0.0	2184033	DISTRACT_START	n/a	n/a	n/a	n/a	-999	16	[0, 0, 0]	n/a	catFR1	0	R1231M
2177.526	0.011	2184033	START	n/a	n/a	n/a	n/a	-999	17	[-999, -999, -999]	n/a	catFR1	0	R1231M
2177.537	33.772	2184044	PROB	33.772	n/a	n/a	n/a	-999	17	[1, 4, 6]	11.0	catFR1	0	R1231M
2211.309	0.018	2217814	STOP	n/a	n/a	n/a	n/a	-999	17	[-999, -999, -999]	n/a	catFR1	0	R1231M
2211.327	0.684	2217832	DISTRACT_END	n/a	n/a	n/a	n/a	-999	16	[0, 0, 0]	n/a	catFR1	0	R1231M
2212.011	0.517	2218516	RETRIEVAL_ORIENT	n/a	n/a	n/a	n/a	-999	16	[0, 0, 0]	n/a	catFR1	0	R1231M
2212.528	1.431	2219033	REC_START	n/a	n/a	n/a	n/a	-999	16	[0, 0, 0]	n/a	catFR1	0	R1231M
2213.959	2.278	2220464	REC_WORD	1.431	n/a	SPOON	KitchenTools	1	16	[0, 0, 0]	n/a	catFR1	0	R1231M
2216.237	5.972	2222742	REC_WORD	3.709	n/a	FORK	KitchenTools	8	16	[0, 0, 0]	n/a	catFR1	0	R1231M
2222.209	2.421	2228714	REC_WORD	9.681	n/a	MONKEY	Zoo	3	16	[0, 0, 0]	n/a	catFR1	0	R1231M
2224.63	3.285	2231135	REC_WORD	12.102	n/a	ELEPHANT	Zoo	4	16	[0, 0, 0]	n/a	catFR1	0	R1231M
2227.915	2.707	2234420	REC_WORD	15.387	n/a	CHEETAH	Zoo	10	16	[0, 0, 0]	n/a	catFR1	0	R1231M
2230.622	9.643	2237126	REC_WORD	18.094	n/a	GIRAFFE	Zoo	9	16	[0, 0, 0]	n/a	catFR1	0	R1231M
2240.265	2.277	2246769	REC_WORD	27.737	n/a	MICROWAVE	Electronics	11	16	[0, 0, 0]	n/a	catFR1	0	R1231M
2242.542	12.96	2249046	REC_END	n/a	n/a	n/a	n/a	-999	16	[0, 0, 0]	n/a	catFR1	0	R1231M
2255.502	0.5	2262005	TRIAL	n/a	n/a	n/a	n/a	-999	17	[0, 0, 0]	n/a	catFR1	0	R1231M
2256.002	10.0	2262505	COUNTDOWN_START	n/a	n/a	n/a	n/a	-999	17	[0, 0, 0]	n/a	catFR1	0	R1231M
2266.43	0.008	2272932	COUNTDOWN_END	n/a	n/a	n/a	n/a	-999	17	[0, 0, 0]	n/a	catFR1	0	R1231M
2266.438	1.6	2272940	ORIENT	n/a	n/a	n/a	n/a	-999	17	[0, 0, 0]	n/a	catFR1	0	R1231M
2268.055	2.167	2274557	ORIENT_OFF	n/a	n/a	n/a	n/a	-999	17	[0, 0, 0]	n/a	catFR1	0	R1231M
2270.222	1.6	2276724	WORD	n/a	wordpools/wordpool_categorized_EN.txt	LOBSTER	OceanAnimals	1	17	[0, 0, 0]	n/a	catFR1	0	R1231M
2271.839	0.884	2278341	WORD_OFF	n/a	n/a	n/a	n/a	-999	17	[0, 0, 0]	n/a	catFR1	0	R1231M
2272.723	1.6	2279225	WORD	n/a	wordpools/wordpool_categorized_EN.txt	WHALE	OceanAnimals	2	17	[0, 0, 0]	n/a	catFR1	0	R1231M
2274.339	0.784	2280841	WORD_OFF	n/a	n/a	n/a	n/a	-999	17	[0, 0, 0]	n/a	catFR1	0	R1231M
2275.123	1.6	2281625	WORD	n/a	wordpools/wordpool_categorized_EN.txt	HILLS	Landscapes	3	17	[0, 0, 0]	n/a	catFR1	0	R1231M
2276.741	0.917	2283243	WORD_OFF	n/a	n/a	n/a	n/a	-999	17	[0, 0, 0]	n/a	catFR1	0	R1231M
2277.658	1.6	2284160	WORD	n/a	wordpools/wordpool_categorized_EN.txt	CREEK	Landscapes	4	17	[0, 0, 0]	n/a	catFR1	0	R1231M
2279.274	0.983	2285776	WORD_OFF	n/a	n/a	n/a	n/a	-999	17	[0, 0, 0]	n/a	catFR1	0	R1231M
2280.257	1.6	2286758	WORD	n/a	wordpools/wordpool_categorized_EN.txt	JEEP	Vehicles	5	17	[0, 0, 0]	n/a	catFR1	0	R1231M
2281.874	0.785	2288375	WORD_OFF	n/a	n/a	n/a	n/a	-999	17	[0, 0, 0]	n/a	catFR1	0	R1231M
2282.659	1.6	2289160	WORD	n/a	wordpools/wordpool_categorized_EN.txt	VAN	Vehicles	6	17	[0, 0, 0]	n/a	catFR1	0	R1231M
2284.275	0.767	2290776	WORD_OFF	n/a	n/a	n/a	n/a	-999	17	[0, 0, 0]	n/a	catFR1	0	R1231M
2285.042	1.6	2291543	WORD	n/a	wordpools/wordpool_categorized_EN.txt	OYSTER	OceanAnimals	7	17	[0, 0, 0]	n/a	catFR1	0	R1231M
2286.659	1.001	2293160	WORD_OFF	n/a	n/a	n/a	n/a	-999	17	[0, 0, 0]	n/a	catFR1	0	R1231M
2287.66	1.6	2294161	WORD	n/a	wordpools/wordpool_categorized_EN.txt	DOLPHIN	OceanAnimals	8	17	[0, 0, 0]	n/a	catFR1	0	R1231M
2289.276	0.8	2295777	WORD_OFF	n/a	n/a	n/a	n/a	-999	17	[0, 0, 0]	n/a	catFR1	0	R1231M
2290.076	1.6	2296577	WORD	n/a	wordpools/wordpool_categorized_EN.txt	ISLAND	Landscapes	9	17	[0, 0, 0]	n/a	catFR1	0	R1231M
2291.694	0.766	2298195	WORD_OFF	n/a	n/a	n/a	n/a	-999	17	[0, 0, 0]	n/a	catFR1	0	R1231M
2292.46	1.6	2298961	WORD	n/a	wordpools/wordpool_categorized_EN.txt	RIVER	Landscapes	10	17	[0, 0, 0]	n/a	catFR1	0	R1231M
2294.077	0.933	2300578	WORD_OFF	n/a	n/a	n/a	n/a	-999	17	[0, 0, 0]	n/a	catFR1	0	R1231M
2295.01	1.6	2301511	WORD	n/a	wordpools/wordpool_categorized_EN.txt	SCOOTER	Vehicles	11	17	[0, 0, 0]	n/a	catFR1	0	R1231M
2296.628	0.799	2303129	WORD_OFF	n/a	n/a	n/a	n/a	-999	17	[0, 0, 0]	n/a	catFR1	0	R1231M
2297.427	1.6	2303928	WORD	n/a	wordpools/wordpool_categorized_EN.txt	MOPED	Vehicles	12	17	[0, 0, 0]	n/a	catFR1	0	R1231M
2299.044	0.0	2305544	ENCODING_END	n/a	n/a	n/a	n/a	-999	17	[0, 0, 0]	n/a	catFR1	0	R1231M
2299.044	0.105	2305544	WORD_OFF	n/a	n/a	n/a	n/a	-999	17	[0, 0, 0]	n/a	catFR1	0	R1231M
2299.149	0.001	2305649	DISTRACT_START	n/a	n/a	n/a	n/a	-999	17	[0, 0, 0]	n/a	catFR1	0	R1231M
2299.15	0.011	2305650	START	n/a	n/a	n/a	n/a	-999	18	[-999, -999, -999]	n/a	catFR1	0	R1231M
2299.161	6.668	2305661	PROB	6.637	n/a	n/a	n/a	-999	18	[3, 3, 2]	8.0	catFR1	0	R1231M
2305.829	5.318	2312329	PROB	5.28	n/a	n/a	n/a	-999	18	[1, 1, 3]	5.0	catFR1	0	R1231M
2311.147	6.968	2317647	PROB	6.938	n/a	n/a	n/a	-999	18	[9, 1, 2]	12.0	catFR1	0	R1231M
2318.115	8.226	2324614	PROB	8.226	n/a	n/a	n/a	-999	18	[1, 7, 9]	17.0	catFR1	0	R1231M
2326.341	0.009	2332840	STOP	n/a	n/a	n/a	n/a	-999	18	[-999, -999, -999]	n/a	catFR1	0	R1231M
2326.35	0.65	2332849	DISTRACT_END	n/a	n/a	n/a	n/a	-999	17	[0, 0, 0]	n/a	catFR1	0	R1231M
2327.0	0.517	2333499	RETRIEVAL_ORIENT	n/a	n/a	n/a	n/a	-999	17	[0, 0, 0]	n/a	catFR1	0	R1231M
2327.517	1.327	2334016	REC_START	n/a	n/a	n/a	n/a	-999	17	[0, 0, 0]	n/a	catFR1	0	R1231M
2328.844	4.407	2335343	REC_WORD	1.327	n/a	LOBSTER	OceanAnimals	1	17	[0, 0, 0]	n/a	catFR1	0	R1231M
2333.251	2.439	2339749	REC_WORD	5.734	n/a	WHALE	OceanAnimals	2	17	[0, 0, 0]	n/a	catFR1	0	R1231M
2335.69	6.377	2342188	REC_WORD	8.173	n/a	SCOOTER	Vehicles	11	17	[0, 0, 0]	n/a	catFR1	0	R1231M
2342.067	15.46	2348565	REC_WORD	14.55	n/a	VAN	Vehicles	6	17	[0, 0, 0]	n/a	catFR1	0	R1231M
2357.527	17.549	2364024	REC_END	n/a	n/a	n/a	n/a	-999	17	[0, 0, 0]	n/a	catFR1	0	R1231M
2375.076	0.5	2381572	TRIAL	n/a	n/a	n/a	n/a	-999	18	[0, 0, 0]	n/a	catFR1	0	R1231M
2375.576	10.0	2382072	COUNTDOWN_START	n/a	n/a	n/a	n/a	-999	18	[0, 0, 0]	n/a	catFR1	0	R1231M
2386.004	0.007	2392499	COUNTDOWN_END	n/a	n/a	n/a	n/a	-999	18	[0, 0, 0]	n/a	catFR1	0	R1231M
2386.011	1.6	2392506	ORIENT	n/a	n/a	n/a	n/a	-999	18	[0, 0, 0]	n/a	catFR1	0	R1231M
2387.612	1.933	2394107	ORIENT_OFF	n/a	n/a	n/a	n/a	-999	18	[0, 0, 0]	n/a	catFR1	0	R1231M
2389.545	1.6	2396040	WORD	n/a	wordpools/wordpool_categorized_EN.txt	WHISK	KitchenTools	1	18	[0, 0, 0]	n/a	catFR1	0	R1231M
2391.162	0.95	2397657	WORD_OFF	n/a	n/a	n/a	n/a	-999	18	[0, 0, 0]	n/a	catFR1	0	R1231M
2392.112	1.6	2398607	WORD	n/a	wordpools/wordpool_categorized_EN.txt	COLANDER	KitchenTools	2	18	[0, 0, 0]	n/a	catFR1	0	R1231M
2393.73	1.0	2400225	WORD_OFF	n/a	n/a	n/a	n/a	-999	18	[0, 0, 0]	n/a	catFR1	0	R1231M
2394.73	1.6	2401225	WORD	n/a	wordpools/wordpool_categorized_EN.txt	FREEZER	Appliances	3	18	[0, 0, 0]	n/a	catFR1	0	R1231M
2396.346	1.017	2402841	WORD_OFF	n/a	n/a	n/a	n/a	-999	18	[0, 0, 0]	n/a	catFR1	0	R1231M
2397.363	1.6	2403858	WORD	n/a	wordpools/wordpool_categorized_EN.txt	OVEN	Appliances	4	18	[0, 0, 0]	n/a	catFR1	0	R1231M
2398.98	0.934	2405475	WORD_OFF	n/a	n/a	n/a	n/a	-999	18	[0, 0, 0]	n/a	catFR1	0	R1231M
2399.914	1.6	2406409	WORD	n/a	wordpools/wordpool_categorized_EN.txt	DRESS	Clothing	5	18	[0, 0, 0]	n/a	catFR1	0	R1231M
2401.531	0.817	2408025	WORD_OFF	n/a	n/a	n/a	n/a	-999	18	[0, 0, 0]	n/a	catFR1	0	R1231M
2402.348	1.6	2408842	WORD	n/a	wordpools/wordpool_categorized_EN.txt	COAT	Clothing	6	18	[0, 0, 0]	n/a	catFR1	0	R1231M
2403.965	0.784	2410459	WORD_OFF	n/a	n/a	n/a	n/a	-999	18	[0, 0, 0]	n/a	catFR1	0	R1231M
2404.749	1.6	2411243	WORD	n/a	wordpools/wordpool_categorized_EN.txt	PEELER	KitchenTools	7	18	[0, 0, 0]	n/a	catFR1	0	R1231M
2406.365	0.817	2412859	WORD_OFF	n/a	n/a	n/a	n/a	-999	18	[0, 0, 0]	n/a	catFR1	0	R1231M
2407.182	1.6	2413676	WORD	n/a	wordpools/wordpool_categorized_EN.txt	KNIFE	KitchenTools	8	18	[0, 0, 0]	n/a	catFR1	0	R1231M
2408.799	0.834	2415293	WORD_OFF	n/a	n/a	n/a	n/a	-999	18	[0, 0, 0]	n/a	catFR1	0	R1231M
2409.633	1.6	2416127	WORD	n/a	wordpools/wordpool_categorized_EN.txt	BLENDER	Appliances	9	18	[0, 0, 0]	n/a	catFR1	0	R1231M
2411.249	0.767	2417743	WORD_OFF	n/a	n/a	n/a	n/a	-999	18	[0, 0, 0]	n/a	catFR1	0	R1231M
2412.016	1.6	2418510	WORD	n/a	wordpools/wordpool_categorized_EN.txt	WASHER	Appliances	10	18	[0, 0, 0]	n/a	catFR1	0	R1231M
2413.617	0.766	2420111	WORD_OFF	n/a	n/a	n/a	n/a	-999	18	[0, 0, 0]	n/a	catFR1	0	R1231M
2414.383	1.6	2420877	WORD	n/a	wordpools/wordpool_categorized_EN.txt	SKIRT	Clothing	11	18	[0, 0, 0]	n/a	catFR1	0	R1231M
2416.0	0.85	2422494	WORD_OFF	n/a	n/a	n/a	n/a	-999	18	[0, 0, 0]	n/a	catFR1	0	R1231M
2416.85	1.6	2423344	WORD	n/a	wordpools/wordpool_categorized_EN.txt	BLOUSE	Clothing	12	18	[0, 0, 0]	n/a	catFR1	0	R1231M
2418.467	0.001	2424961	WORD_OFF	n/a	n/a	n/a	n/a	-999	18	[0, 0, 0]	n/a	catFR1	0	R1231M
2418.468	0.138	2424962	ENCODING_END	n/a	n/a	n/a	n/a	-999	18	[0, 0, 0]	n/a	catFR1	0	R1231M
2418.606	0.0	2425100	DISTRACT_START	n/a	n/a	n/a	n/a	-999	18	[0, 0, 0]	n/a	catFR1	0	R1231M
2418.606	0.012	2425100	START	n/a	n/a	n/a	n/a	-999	19	[-999, -999, -999]	n/a	catFR1	0	R1231M
2418.618	5.234	2425111	PROB	5.211	n/a	n/a	n/a	-999	19	[7, 7, 1]	15.0	catFR1	0	R1231M
2423.852	30.289	2430345	PROB	30.289	n/a	n/a	n/a	-999	19	[9, 8, 9]	24.0	catFR1	0	R1231M
2454.141	0.017	2460632	STOP	n/a	n/a	n/a	n/a	-999	19	[-999, -999, -999]	n/a	catFR1	0	R1231M
2454.158	0.601	2460649	DISTRACT_END	n/a	n/a	n/a	n/a	-999	18	[0, 0, 0]	n/a	catFR1	0	R1231M
2454.759	0.516	2461250	RETRIEVAL_ORIENT	n/a	n/a	n/a	n/a	-999	18	[0, 0, 0]	n/a	catFR1	0	R1231M
2455.275	4.269	2461766	REC_START	n/a	n/a	n/a	n/a	-999	18	[0, 0, 0]	n/a	catFR1	0	R1231M
2459.544	1.907	2466035	REC_WORD	4.269	n/a	KNIFE	KitchenTools	8	18	[0, 0, 0]	n/a	catFR1	0	R1231M
2461.451	4.157	2467942	REC_WORD	6.176	n/a	PEELER	KitchenTools	7	18	[0, 0, 0]	n/a	catFR1	0	R1231M
2465.608	19.68	2472099	REC_WORD	10.333	n/a	WHISK	KitchenTools	1	18	[0, 0, 0]	n/a	catFR1	0	R1231M
2485.288	25.432	2491778	REC_END	n/a	n/a	n/a	n/a	-999	18	[0, 0, 0]	n/a	catFR1	0	R1231M
2510.72	0.5	2517208	TRIAL	n/a	n/a	n/a	n/a	-999	19	[0, 0, 0]	n/a	catFR1	0	R1231M
2511.22	10.0	2517708	COUNTDOWN_START	n/a	n/a	n/a	n/a	-999	19	[0, 0, 0]	n/a	catFR1	0	R1231M
2521.648	0.007	2528136	COUNTDOWN_END	n/a	n/a	n/a	n/a	-999	19	[0, 0, 0]	n/a	catFR1	0	R1231M
2521.655	1.6	2528143	ORIENT	n/a	n/a	n/a	n/a	-999	19	[0, 0, 0]	n/a	catFR1	0	R1231M
2523.271	2.15	2529758	ORIENT_OFF	n/a	n/a	n/a	n/a	-999	19	[0, 0, 0]	n/a	catFR1	0	R1231M
2525.421	1.6	2531908	WORD	n/a	wordpools/wordpool_categorized_EN.txt	SHORTS	Clothing	1	19	[0, 0, 0]	n/a	catFR1	0	R1231M
2527.038	0.984	2533525	WORD_OFF	n/a	n/a	n/a	n/a	-999	19	[0, 0, 0]	n/a	catFR1	0	R1231M
2528.022	1.6	2534509	WORD	n/a	wordpools/wordpool_categorized_EN.txt	UNDERWEAR	Clothing	2	19	[0, 0, 0]	n/a	catFR1	0	R1231M
2529.623	0.766	2536110	WORD_OFF	n/a	n/a	n/a	n/a	-999	19	[0, 0, 0]	n/a	catFR1	0	R1231M
2530.389	1.6	2536876	WORD	n/a	wordpools/wordpool_categorized_EN.txt	FRISBEE	Toys	3	19	[0, 0, 0]	n/a	catFR1	0	R1231M
2532.006	0.884	2538493	WORD_OFF	n/a	n/a	n/a	n/a	-999	19	[0, 0, 0]	n/a	catFR1	0	R1231M
2532.89	1.6	2539377	WORD	n/a	wordpools/wordpool_categorized_EN.txt	BARBIE	Toys	4	19	[0, 0, 0]	n/a	catFR1	0	R1231M
2534.507	0.933	2540994	WORD_OFF	n/a	n/a	n/a	n/a	-999	19	[0, 0, 0]	n/a	catFR1	0	R1231M
2535.44	1.6	2541927	WORD	n/a	wordpools/wordpool_categorized_EN.txt	TRAIN	Vehicles	5	19	[0, 0, 0]	n/a	catFR1	0	R1231M
2537.057	0.817	2543544	WORD_OFF	n/a	n/a	n/a	n/a	-999	19	[0, 0, 0]	n/a	catFR1	0	R1231M
2537.874	1.6	2544361	WORD	n/a	wordpools/wordpool_categorized_EN.txt	BOAT	Vehicles	6	19	[0, 0, 0]	n/a	catFR1	0	R1231M
2539.491	0.8	2545978	WORD_OFF	n/a	n/a	n/a	n/a	-999	19	[0, 0, 0]	n/a	catFR1	0	R1231M
2540.291	1.6	2546777	WORD	n/a	wordpools/wordpool_categorized_EN.txt	DOLLHOUSE	Toys	7	19	[0, 0, 0]	n/a	catFR1	0	R1231M
2541.908	1.0	2548394	WORD_OFF	n/a	n/a	n/a	n/a	-999	19	[0, 0, 0]	n/a	catFR1	0	R1231M
2542.908	1.6	2549394	WORD	n/a	wordpools/wordpool_categorized_EN.txt	PUZZLE	Toys	8	19	[0, 0, 0]	n/a	catFR1	0	R1231M
2544.525	0.917	2551011	WORD_OFF	n/a	n/a	n/a	n/a	-999	19	[0, 0, 0]	n/a	catFR1	0	R1231M
2545.442	1.6	2551928	WORD	n/a	wordpools/wordpool_categorized_EN.txt	SHIRT	Clothing	9	19	[0, 0, 0]	n/a	catFR1	0	R1231M
2547.059	0.817	2553545	WORD_OFF	n/a	n/a	n/a	n/a	-999	19	[0, 0, 0]	n/a	catFR1	0	R1231M
2547.876	1.6	2554362	WORD	n/a	wordpools/wordpool_categorized_EN.txt	PANTS	Clothing	10	19	[0, 0, 0]	n/a	catFR1	0	R1231M
2549.493	0.983	2555979	WORD_OFF	n/a	n/a	n/a	n/a	-999	19	[0, 0, 0]	n/a	catFR1	0	R1231M
2550.476	1.6	2556962	WORD	n/a	wordpools/wordpool_categorized_EN.txt	CAR	Vehicles	11	19	[0, 0, 0]	n/a	catFR1	0	R1231M
2552.093	0.867	2558579	WORD_OFF	n/a	n/a	n/a	n/a	-999	19	[0, 0, 0]	n/a	catFR1	0	R1231M
2552.96	1.6	2559446	WORD	n/a	wordpools/wordpool_categorized_EN.txt	BUS	Vehicles	12	19	[0, 0, 0]	n/a	catFR1	0	R1231M
2554.578	0.0	2561064	ENCODING_END	n/a	n/a	n/a	n/a	-999	19	[0, 0, 0]	n/a	catFR1	0	R1231M
2554.578	0.104	2561064	WORD_OFF	n/a	n/a	n/a	n/a	-999	19	[0, 0, 0]	n/a	catFR1	0	R1231M
2554.682	0.001	2561168	DISTRACT_START	n/a	n/a	n/a	n/a	-999	19	[0, 0, 0]	n/a	catFR1	0	R1231M
2554.683	0.012	2561169	START	n/a	n/a	n/a	n/a	-999	20	[-999, -999, -999]	n/a	catFR1	0	R1231M
2554.695	13.335	2561181	PROB	13.311	n/a	n/a	n/a	-999	20	[6, 2, 7]	15.0	catFR1	0	R1231M
2568.03	22.615	2574515	PROB	22.615	n/a	n/a	n/a	-999	20	[5, 4, 8]	17.0	catFR1	0	R1231M
2590.645	0.007	2597129	STOP	n/a	n/a	n/a	n/a	-999	20	[-999, -999, -999]	n/a	catFR1	0	R1231M
2590.652	0.649	2597136	DISTRACT_END	n/a	n/a	n/a	n/a	-999	19	[0, 0, 0]	n/a	catFR1	0	R1231M
2591.301	0.517	2597785	RETRIEVAL_ORIENT	n/a	n/a	n/a	n/a	-999	19	[0, 0, 0]	n/a	catFR1	0	R1231M
2591.818	1.841	2598301	REC_START	n/a	n/a	n/a	n/a	-999	19	[0, 0, 0]	n/a	catFR1	0	R1231M
2593.659	2.844	2600142	REC_WORD	1.841	n/a	FRISBEE	Toys	3	19	[0, 0, 0]	n/a	catFR1	0	R1231M
2596.503	1.128	2602986	REC_WORD	4.685	n/a	BARBIE	Toys	4	19	[0, 0, 0]	n/a	catFR1	0	R1231M
2597.631	4.043	2604114	REC_WORD	5.813	n/a	PUZZLE	Toys	8	19	[0, 0, 0]	n/a	catFR1	0	R1231M
2601.674	16.931	2608157	REC_WORD	9.856	n/a	TRAIN	Vehicles	5	19	[0, 0, 0]	n/a	catFR1	0	R1231M
2618.605	1.827	2625087	REC_WORD	26.787	n/a	SHORTS	Clothing	1	19	[0, 0, 0]	n/a	catFR1	0	R1231M
2620.432	1.4	2626914	REC_WORD	28.614	n/a	UNDERWEAR	Clothing	2	19	[0, 0, 0]	n/a	catFR1	0	R1231M
2621.832	12.094	2628314	REC_END	n/a	n/a	n/a	n/a	-999	19	[0, 0, 0]	n/a	catFR1	0	R1231M
2633.926	0.5	2640407	TRIAL	n/a	n/a	n/a	n/a	-999	20	[0, 0, 0]	n/a	catFR1	0	R1231M
2634.426	10.0	2640907	COUNTDOWN_START	n/a	n/a	n/a	n/a	-999	20	[0, 0, 0]	n/a	catFR1	0	R1231M
2644.854	0.007	2651334	COUNTDOWN_END	n/a	n/a	n/a	n/a	-999	20	[0, 0, 0]	n/a	catFR1	0	R1231M
2644.861	1.6	2651341	ORIENT	n/a	n/a	n/a	n/a	-999	20	[0, 0, 0]	n/a	catFR1	0	R1231M
2646.478	1.867	2652958	ORIENT_OFF	n/a	n/a	n/a	n/a	-999	20	[0, 0, 0]	n/a	catFR1	0	R1231M
2648.345	1.6	2654825	WORD	n/a	wordpools/wordpool_categorized_EN.txt	MOUSSE	Desserts	1	20	[0, 0, 0]	n/a	catFR1	0	R1231M
2649.962	0.917	2656442	WORD_OFF	n/a	n/a	n/a	n/a	-999	20	[0, 0, 0]	n/a	catFR1	0	R1231M
2650.879	1.6	2657359	WORD	n/a	wordpools/wordpool_categorized_EN.txt	CUPCAKE	Desserts	2	20	[0, 0, 0]	n/a	catFR1	0	R1231M
2652.496	0.85	2658976	WORD_OFF	n/a	n/a	n/a	n/a	-999	20	[0, 0, 0]	n/a	catFR1	0	R1231M
2653.346	1.6	2659826	WORD	n/a	wordpools/wordpool_categorized_EN.txt	LILAC	Flowers	3	20	[0, 0, 0]	n/a	catFR1	0	R1231M
2654.963	1.0	2661443	WORD_OFF	n/a	n/a	n/a	n/a	-999	20	[0, 0, 0]	n/a	catFR1	0	R1231M
2655.963	1.6	2662443	WORD	n/a	wordpools/wordpool_categorized_EN.txt	ROSE	Flowers	4	20	[0, 0, 0]	n/a	catFR1	0	R1231M
2657.581	0.783	2664061	WORD_OFF	n/a	n/a	n/a	n/a	-999	20	[0, 0, 0]	n/a	catFR1	0	R1231M
2658.364	1.6	2664844	WORD	n/a	wordpools/wordpool_categorized_EN.txt	DOLL	Toys	5	20	[0, 0, 0]	n/a	catFR1	0	R1231M
2659.981	0.95	2666461	WORD_OFF	n/a	n/a	n/a	n/a	-999	20	[0, 0, 0]	n/a	catFR1	0	R1231M
2660.931	1.6	2667410	WORD	n/a	wordpools/wordpool_categorized_EN.txt	BASEBALL	Toys	6	20	[0, 0, 0]	n/a	catFR1	0	R1231M
2662.548	0.85	2669027	WORD_OFF	n/a	n/a	n/a	n/a	-999	20	[0, 0, 0]	n/a	catFR1	0	R1231M
2663.398	1.6	2669877	WORD	n/a	wordpools/wordpool_categorized_EN.txt	ORCHID	Flowers	7	20	[0, 0, 0]	n/a	catFR1	0	R1231M
2665.015	0.768	2671494	WORD_OFF	n/a	n/a	n/a	n/a	-999	20	[0, 0, 0]	n/a	catFR1	0	R1231M
2665.783	1.6	2672262	WORD	n/a	wordpools/wordpool_categorized_EN.txt	PETUNIA	Flowers	8	20	[0, 0, 0]	n/a	catFR1	0	R1231M
2667.399	0.917	2673878	WORD_OFF	n/a	n/a	n/a	n/a	-999	20	[0, 0, 0]	n/a	catFR1	0	R1231M
2668.316	1.6	2674795	WORD	n/a	wordpools/wordpool_categorized_EN.txt	COBBLER	Desserts	9	20	[0, 0, 0]	n/a	catFR1	0	R1231M
2669.933	0.867	2676412	WORD_OFF	n/a	n/a	n/a	n/a	-999	20	[0, 0, 0]	n/a	catFR1	0	R1231M
2670.8	1.6	2677279	WORD	n/a	wordpools/wordpool_categorized_EN.txt	FUDGE	Desserts	10	20	[0, 0, 0]	n/a	catFR1	0	R1231M
2672.417	0.983	2678896	WORD_OFF	n/a	n/a	n/a	n/a	-999	20	[0, 0, 0]	n/a	catFR1	0	R1231M
2673.4	1.6	2679879	WORD	n/a	wordpools/wordpool_categorized_EN.txt	BALL	Toys	11	20	[0, 0, 0]	n/a	catFR1	0	R1231M
2675.017	0.884	2681496	WORD_OFF	n/a	n/a	n/a	n/a	-999	20	[0, 0, 0]	n/a	catFR1	0	R1231M
2675.901	1.6	2682380	WORD	n/a	wordpools/wordpool_categorized_EN.txt	FOOTBALL	Toys	12	20	[0, 0, 0]	n/a	catFR1	0	R1231M
2677.518	0.0	2683997	ENCODING_END	n/a	n/a	n/a	n/a	-999	20	[0, 0, 0]	n/a	catFR1	0	R1231M
2677.518	0.106	2683997	WORD_OFF	n/a	n/a	n/a	n/a	-999	20	[0, 0, 0]	n/a	catFR1	0	R1231M
2677.624	0.0	2684103	DISTRACT_START	n/a	n/a	n/a	n/a	-999	20	[0, 0, 0]	n/a	catFR1	0	R1231M
2677.624	0.011	2684103	START	n/a	n/a	n/a	n/a	-999	21	[-999, -999, -999]	n/a	catFR1	0	R1231M
2677.635	21.697	2684114	PROB	21.697	n/a	n/a	n/a	-999	21	[4, 3, 4]	11.0	catFR1	0	R1231M
2699.332	0.007	2705809	STOP	n/a	n/a	n/a	n/a	-999	21	[-999, -999, -999]	n/a	catFR1	0	R1231M
2699.339	0.566	2705816	DISTRACT_END	n/a	n/a	n/a	n/a	-999	20	[0, 0, 0]	n/a	catFR1	0	R1231M
2699.905	0.518	2706382	RETRIEVAL_ORIENT	n/a	n/a	n/a	n/a	-999	20	[0, 0, 0]	n/a	catFR1	0	R1231M
2700.423	1.705	2706900	REC_START	n/a	n/a	n/a	n/a	-999	20	[0, 0, 0]	n/a	catFR1	0	R1231M
2702.128	2.695	2708605	REC_WORD	1.705	n/a	MOUSSE	Desserts	1	20	[0, 0, 0]	n/a	catFR1	0	R1231M
2704.823	1.612	2711300	REC_WORD	4.4	n/a	CUPCAKE	Desserts	2	20	[0, 0, 0]	n/a	catFR1	0	R1231M
2706.435	1.263	2712912	REC_WORD	6.012	n/a	DOLL	Toys	5	20	[0, 0, 0]	n/a	catFR1	0	R1231M
2707.698	2.604	2714175	REC_WORD	7.275	n/a	BASKETBALL	n/a	-999	20	[0, 0, 0]	n/a	catFR1	0	R1231M
2710.302	2.725	2716779	REC_WORD	9.879	n/a	LILAC	Flowers	3	20	[0, 0, 0]	n/a	catFR1	0	R1231M
2713.027	16.614	2719503	REC_WORD	12.604	n/a	ORCHID	Flowers	7	20	[0, 0, 0]	n/a	catFR1	0	R1231M
2729.641	0.793	2736117	REC_WORD_VV	29.218	n/a	<>	n/a	-999	20	[0, 0, 0]	n/a	catFR1	0	R1231M
2730.434	23.283	2736909	REC_END	n/a	n/a	n/a	n/a	-999	20	[0, 0, 0]	n/a	catFR1	0	R1231M
2753.717	0.5	2760191	TRIAL	n/a	n/a	n/a	n/a	-999	21	[0, 0, 0]	n/a	catFR1	0	R1231M
2754.217	10.0	2760691	COUNTDOWN_START	n/a	n/a	n/a	n/a	-999	21	[0, 0, 0]	n/a	catFR1	0	R1231M
2764.645	0.007	2771118	COUNTDOWN_END	n/a	n/a	n/a	n/a	-999	21	[0, 0, 0]	n/a	catFR1	0	R1231M
2764.652	1.6	2771125	ORIENT	n/a	n/a	n/a	n/a	-999	21	[0, 0, 0]	n/a	catFR1	0	R1231M
2766.268	2.034	2772741	ORIENT_OFF	n/a	n/a	n/a	n/a	-999	21	[0, 0, 0]	n/a	catFR1	0	R1231M
2768.302	1.6	2774775	WORD	n/a	wordpools/wordpool_categorized_EN.txt	DRYER	Appliances	1	21	[0, 0, 0]	n/a	catFR1	0	R1231M
2769.919	0.767	2776392	WORD_OFF	n/a	n/a	n/a	n/a	-999	21	[0, 0, 0]	n/a	catFR1	0	R1231M
2770.686	1.6	2777159	WORD	n/a	wordpools/wordpool_categorized_EN.txt	REFRIGERATOR	Appliances	2	21	[0, 0, 0]	n/a	catFR1	0	R1231M
2772.303	0.9	2778776	WORD_OFF	n/a	n/a	n/a	n/a	-999	21	[0, 0, 0]	n/a	catFR1	0	R1231M
2773.203	1.6	2779676	WORD	n/a	wordpools/wordpool_categorized_EN.txt	CIDER	Beverages	3	21	[0, 0, 0]	n/a	catFR1	0	R1231M
2774.82	0.784	2781293	WORD_OFF	n/a	n/a	n/a	n/a	-999	21	[0, 0, 0]	n/a	catFR1	0	R1231M
2775.604	1.6	2782077	WORD	n/a	wordpools/wordpool_categorized_EN.txt	JUICE	Beverages	4	21	[0, 0, 0]	n/a	catFR1	0	R1231M
2777.22	0.784	2783693	WORD_OFF	n/a	n/a	n/a	n/a	-999	21	[0, 0, 0]	n/a	catFR1	0	R1231M
2778.004	1.6	2784477	WORD	n/a	wordpools/wordpool_categorized_EN.txt	FOREST	Landscapes	5	21	[0, 0, 0]	n/a	catFR1	0	R1231M
2779.622	0.95	2786095	WORD_OFF	n/a	n/a	n/a	n/a	-999	21	[0, 0, 0]	n/a	catFR1	0	R1231M
2780.572	1.6	2787045	WORD	n/a	wordpools/wordpool_categorized_EN.txt	OCEAN	Landscapes	6	21	[0, 0, 0]	n/a	catFR1	0	R1231M
2782.188	0.8	2788660	WORD_OFF	n/a	n/a	n/a	n/a	-999	21	[0, 0, 0]	n/a	catFR1	0	R1231M
2782.988	1.6	2789460	WORD	n/a	wordpools/wordpool_categorized_EN.txt	TEA	Beverages	7	21	[0, 0, 0]	n/a	catFR1	0	R1231M
2784.606	0.949	2791078	WORD_OFF	n/a	n/a	n/a	n/a	-999	21	[0, 0, 0]	n/a	catFR1	0	R1231M
2785.555	1.6	2792027	WORD	n/a	wordpools/wordpool_categorized_EN.txt	COLA	Beverages	8	21	[0, 0, 0]	n/a	catFR1	0	R1231M
2787.172	0.8	2793644	WORD_OFF	n/a	n/a	n/a	n/a	-999	21	[0, 0, 0]	n/a	catFR1	0	R1231M
2787.972	1.6	2794444	WORD	n/a	wordpools/wordpool_categorized_EN.txt	TOASTER	Appliances	9	21	[0, 0, 0]	n/a	catFR1	0	R1231M
2789.573	0.833	2796045	WORD_OFF	n/a	n/a	n/a	n/a	-999	21	[0, 0, 0]	n/a	catFR1	0	R1231M
2790.406	1.6	2796878	WORD	n/a	wordpools/wordpool_categorized_EN.txt	MIXER	Appliances	10	21	[0, 0, 0]	n/a	catFR1	0	R1231M
2792.023	0.9	2798495	WORD_OFF	n/a	n/a	n/a	n/a	-999	21	[0, 0, 0]	n/a	catFR1	0	R1231M
2792.923	1.6	2799395	WORD	n/a	wordpools/wordpool_categorized_EN.txt	WOODS	Landscapes	11	21	[0, 0, 0]	n/a	catFR1	0	R1231M
2794.54	0.967	2801012	WORD_OFF	n/a	n/a	n/a	n/a	-999	21	[0, 0, 0]	n/a	catFR1	0	R1231M
2795.507	1.6	2801979	WORD	n/a	wordpools/wordpool_categorized_EN.txt	VALLEY	Landscapes	12	21	[0, 0, 0]	n/a	catFR1	0	R1231M
2797.124	0.0	2803596	ENCODING_END	n/a	n/a	n/a	n/a	-999	21	[0, 0, 0]	n/a	catFR1	0	R1231M
2797.124	0.138	2803596	WORD_OFF	n/a	n/a	n/a	n/a	-999	21	[0, 0, 0]	n/a	catFR1	0	R1231M
2797.262	0.0	2803734	DISTRACT_START	n/a	n/a	n/a	n/a	-999	21	[0, 0, 0]	n/a	catFR1	0	R1231M
2797.262	0.012	2803734	START	n/a	n/a	n/a	n/a	-999	22	[-999, -999, -999]	n/a	catFR1	0	R1231M
2797.274	12.337	2803746	PROB	12.308	n/a	n/a	n/a	-999	22	[7, 4, 3]	14.0	catFR1	0	R1231M
2809.611	14.403	2816082	PROB	14.403	n/a	n/a	n/a	-999	22	[6, 7, 2]	15.0	catFR1	0	R1231M
2824.014	0.016	2830484	STOP	n/a	n/a	n/a	n/a	-999	22	[-999, -999, -999]	n/a	catFR1	0	R1231M
2824.03	0.7	2830500	DISTRACT_END	n/a	n/a	n/a	n/a	-999	21	[0, 0, 0]	n/a	catFR1	0	R1231M
2824.73	0.517	2831200	RETRIEVAL_ORIENT	n/a	n/a	n/a	n/a	-999	21	[0, 0, 0]	n/a	catFR1	0	R1231M
2825.247	1.654	2831717	REC_START	n/a	n/a	n/a	n/a	-999	21	[0, 0, 0]	n/a	catFR1	0	R1231M
2826.901	5.997	2833371	REC_WORD	1.654	n/a	TOASTER	Appliances	9	21	[0, 0, 0]	n/a	catFR1	0	R1231M
2832.898	3.923	2839368	REC_WORD	7.651	n/a	MIXER	Appliances	10	21	[0, 0, 0]	n/a	catFR1	0	R1231M
2836.821	2.39	2843290	REC_WORD	11.574	n/a	CIDER	Beverages	3	21	[0, 0, 0]	n/a	catFR1	0	R1231M
2839.211	2.549	2845680	REC_WORD	13.964	n/a	JUICE	Beverages	4	21	[0, 0, 0]	n/a	catFR1	0	R1231M
2841.76	2.91	2848229	REC_WORD	16.513	n/a	DRYER	Appliances	1	21	[0, 0, 0]	n/a	catFR1	0	R1231M
2844.67	10.588	2851139	REC_WORD	19.423	n/a	REFRIGERATOR	Appliances	2	21	[0, 0, 0]	n/a	catFR1	0	R1231M
2855.258	24.132	2861726	REC_END	n/a	n/a	n/a	n/a	-999	21	[0, 0, 0]	n/a	catFR1	0	R1231M
2879.39	0.5	2885857	TRIAL	n/a	n/a	n/a	n/a	-999	22	[0, 0, 0]	n/a	catFR1	0	R1231M
2879.89	10.0	2886357	COUNTDOWN_START	n/a	n/a	n/a	n/a	-999	22	[0, 0, 0]	n/a	catFR1	0	R1231M
2890.318	0.007	2896784	COUNTDOWN_END	n/a	n/a	n/a	n/a	-999	22	[0, 0, 0]	n/a	catFR1	0	R1231M
2890.325	1.6	2896791	ORIENT	n/a	n/a	n/a	n/a	-999	22	[0, 0, 0]	n/a	catFR1	0	R1231M
2891.942	2.051	2898408	ORIENT_OFF	n/a	n/a	n/a	n/a	-999	22	[0, 0, 0]	n/a	catFR1	0	R1231M
2893.993	1.6	2900459	WORD	n/a	wordpools/wordpool_categorized_EN.txt	PRINTER	Electronics	1	22	[0, 0, 0]	n/a	catFR1	0	R1231M
2895.594	0.866	2902060	WORD_OFF	n/a	n/a	n/a	n/a	-999	22	[0, 0, 0]	n/a	catFR1	0	R1231M
2896.46	1.6	2902926	WORD	n/a	wordpools/wordpool_categorized_EN.txt	COMPUTER	Electronics	2	22	[0, 0, 0]	n/a	catFR1	0	R1231M
2898.077	0.917	2904543	WORD_OFF	n/a	n/a	n/a	n/a	-999	22	[0, 0, 0]	n/a	catFR1	0	R1231M
2898.994	1.6	2905460	WORD	n/a	wordpools/wordpool_categorized_EN.txt	FLY	Insects	3	22	[0, 0, 0]	n/a	catFR1	0	R1231M
2900.612	0.832	2907078	WORD_OFF	n/a	n/a	n/a	n/a	-999	22	[0, 0, 0]	n/a	catFR1	0	R1231M
2901.444	1.6	2907910	WORD	n/a	wordpools/wordpool_categorized_EN.txt	BEETLE	Insects	4	22	[0, 0, 0]	n/a	catFR1	0	R1231M
2903.061	0.867	2909526	WORD_OFF	n/a	n/a	n/a	n/a	-999	22	[0, 0, 0]	n/a	catFR1	0	R1231M
2903.928	1.6	2910393	WORD	n/a	wordpools/wordpool_categorized_EN.txt	SCREWDRIVER	Tools	5	22	[0, 0, 0]	n/a	catFR1	0	R1231M
2905.545	1.0	2912010	WORD_OFF	n/a	n/a	n/a	n/a	-999	22	[0, 0, 0]	n/a	catFR1	0	R1231M
2906.545	1.6	2913010	WORD	n/a	wordpools/wordpool_categorized_EN.txt	PLIERS	Tools	6	22	[0, 0, 0]	n/a	catFR1	0	R1231M
2908.162	0.984	2914627	WORD_OFF	n/a	n/a	n/a	n/a	-999	22	[0, 0, 0]	n/a	catFR1	0	R1231M
2909.146	1.6	2915611	WORD	n/a	wordpools/wordpool_categorized_EN.txt	STEREO	Electronics	7	22	[0, 0, 0]	n/a	catFR1	0	R1231M
2910.747	0.9	2917212	WORD_OFF	n/a	n/a	n/a	n/a	-999	22	[0, 0, 0]	n/a	catFR1	0	R1231M
2911.647	1.6	2918112	WORD	n/a	wordpools/wordpool_categorized_EN.txt	TABLET	Electronics	8	22	[0, 0, 0]	n/a	catFR1	0	R1231M
2913.263	0.817	2919728	WORD_OFF	n/a	n/a	n/a	n/a	-999	22	[0, 0, 0]	n/a	catFR1	0	R1231M
2914.08	1.6	2920545	WORD	n/a	wordpools/wordpool_categorized_EN.txt	GNAT	Insects	9	22	[0, 0, 0]	n/a	catFR1	0	R1231M
2915.681	0.883	2922146	WORD_OFF	n/a	n/a	n/a	n/a	-999	22	[0, 0, 0]	n/a	catFR1	0	R1231M
2916.564	1.6	2923029	WORD	n/a	wordpools/wordpool_categorized_EN.txt	LADYBUG	Insects	10	22	[0, 0, 0]	n/a	catFR1	0	R1231M
2918.181	0.817	2924646	WORD_OFF	n/a	n/a	n/a	n/a	-999	22	[0, 0, 0]	n/a	catFR1	0	R1231M
2918.998	1.6	2925463	WORD	n/a	wordpools/wordpool_categorized_EN.txt	LEVEL	Tools	11	22	[0, 0, 0]	n/a	catFR1	0	R1231M
2920.616	0.765	2927080	WORD_OFF	n/a	n/a	n/a	n/a	-999	22	[0, 0, 0]	n/a	catFR1	0	R1231M
2921.381	1.6	2927845	WORD	n/a	wordpools/wordpool_categorized_EN.txt	SHOVEL	Tools	12	22	[0, 0, 0]	n/a	catFR1	0	R1231M
2922.998	0.001	2929462	WORD_OFF	n/a	n/a	n/a	n/a	-999	22	[0, 0, 0]	n/a	catFR1	0	R1231M
2922.999	0.104	2929463	ENCODING_END	n/a	n/a	n/a	n/a	-999	22	[0, 0, 0]	n/a	catFR1	0	R1231M
2923.103	0.001	2929567	DISTRACT_START	n/a	n/a	n/a	n/a	-999	22	[0, 0, 0]	n/a	catFR1	0	R1231M
2923.104	0.011	2929568	START	n/a	n/a	n/a	n/a	-999	23	[-999, -999, -999]	n/a	catFR1	0	R1231M
2923.115	7.852	2929579	PROB	7.818	n/a	n/a	n/a	-999	23	[1, 4, 1]	6.0	catFR1	0	R1231M
2930.967	8.935	2937431	PROB	8.902	n/a	n/a	n/a	-999	23	[8, 4, 4]	16.0	catFR1	0	R1231M
2939.902	50.825	2946365	PROB	50.825	n/a	n/a	n/a	-999	23	[6, 7, 8]	21.0	catFR1	0	R1231M
2990.727	0.019	2997187	STOP	n/a	n/a	n/a	n/a	-999	23	[-999, -999, -999]	n/a	catFR1	0	R1231M
2990.746	0.649	2997206	DISTRACT_END	n/a	n/a	n/a	n/a	-999	22	[0, 0, 0]	n/a	catFR1	0	R1231M
2991.395	0.518	2997855	RETRIEVAL_ORIENT	n/a	n/a	n/a	n/a	-999	22	[0, 0, 0]	n/a	catFR1	0	R1231M
2991.913	2.462	2998373	REC_START	n/a	n/a	n/a	n/a	-999	22	[0, 0, 0]	n/a	catFR1	0	R1231M
2994.375	4.786	3000835	REC_WORD	2.462	n/a	STEREO	Electronics	7	22	[0, 0, 0]	n/a	catFR1	0	R1231M
2999.161	2.116	3005621	REC_WORD	7.248	n/a	TABLET	Electronics	8	22	[0, 0, 0]	n/a	catFR1	0	R1231M
3001.277	4.407	3007737	REC_WORD	9.364	n/a	LAPTOP	n/a	-999	22	[0, 0, 0]	n/a	catFR1	0	R1231M
3005.684	4.237	3012144	REC_WORD	13.771	n/a	FLY	Insects	3	22	[0, 0, 0]	n/a	catFR1	0	R1231M
3009.921	7.831	3016380	REC_WORD	18.008	n/a	BEETLE	Insects	4	22	[0, 0, 0]	n/a	catFR1	0	R1231M
3017.752	4.171	3024211	REC_WORD_VV	25.839	n/a	<>	n/a	-999	22	[0, 0, 0]	n/a	catFR1	0	R1231M
3021.923	17.381	3028382	REC_END	n/a	n/a	n/a	n/a	-999	22	[0, 0, 0]	n/a	catFR1	0	R1231M
3039.304	0.5	3045762	TRIAL	n/a	n/a	n/a	n/a	-999	23	[0, 0, 0]	n/a	catFR1	0	R1231M
3039.804	10.0	3046262	COUNTDOWN_START	n/a	n/a	n/a	n/a	-999	23	[0, 0, 0]	n/a	catFR1	0	R1231M
3050.232	0.008	3056689	COUNTDOWN_END	n/a	n/a	n/a	n/a	-999	23	[0, 0, 0]	n/a	catFR1	0	R1231M
3050.24	1.6	3056697	ORIENT	n/a	n/a	n/a	n/a	-999	23	[0, 0, 0]	n/a	catFR1	0	R1231M
3051.857	2.2	3058314	ORIENT_OFF	n/a	n/a	n/a	n/a	-999	23	[0, 0, 0]	n/a	catFR1	0	R1231M
3054.057	1.6	3060514	WORD	n/a	wordpools/wordpool_categorized_EN.txt	OCTOPUS	OceanAnimals	1	23	[0, 0, 0]	n/a	catFR1	0	R1231M
3055.675	0.783	3062132	WORD_OFF	n/a	n/a	n/a	n/a	-999	23	[0, 0, 0]	n/a	catFR1	0	R1231M
3056.458	1.6	3062915	WORD	n/a	wordpools/wordpool_categorized_EN.txt	JELLYFISH	OceanAnimals	2	23	[0, 0, 0]	n/a	catFR1	0	R1231M
3058.075	0.933	3064532	WORD_OFF	n/a	n/a	n/a	n/a	-999	23	[0, 0, 0]	n/a	catFR1	0	R1231M
3059.008	1.6	3065464	WORD	n/a	wordpools/wordpool_categorized_EN.txt	CARNATION	Flowers	3	23	[0, 0, 0]	n/a	catFR1	0	R1231M
3060.626	0.95	3067082	WORD_OFF	n/a	n/a	n/a	n/a	-999	23	[0, 0, 0]	n/a	catFR1	0	R1231M
3061.576	1.6	3068032	WORD	n/a	wordpools/wordpool_categorized_EN.txt	VIOLET	Flowers	4	23	[0, 0, 0]	n/a	catFR1	0	R1231M
3063.192	0.784	3069648	WORD_OFF	n/a	n/a	n/a	n/a	-999	23	[0, 0, 0]	n/a	catFR1	0	R1231M
3063.976	1.6	3070432	WORD	n/a	wordpools/wordpool_categorized_EN.txt	TONGS	KitchenTools	5	23	[0, 0, 0]	n/a	catFR1	0	R1231M
3065.594	0.916	3072050	WORD_OFF	n/a	n/a	n/a	n/a	-999	23	[0, 0, 0]	n/a	catFR1	0	R1231M
3066.51	1.6	3072966	WORD	n/a	wordpools/wordpool_categorized_EN.txt	LADLE	KitchenTools	6	23	[0, 0, 0]	n/a	catFR1	0	R1231M
3068.127	0.85	3074583	WORD_OFF	n/a	n/a	n/a	n/a	-999	23	[0, 0, 0]	n/a	catFR1	0	R1231M
3068.977	1.6	3075433	WORD	n/a	wordpools/wordpool_categorized_EN.txt	MARIGOLD	Flowers	7	23	[0, 0, 0]	n/a	catFR1	0	R1231M
3070.595	0.949	3077051	WORD_OFF	n/a	n/a	n/a	n/a	-999	23	[0, 0, 0]	n/a	catFR1	0	R1231M
3071.544	1.6	3078000	WORD	n/a	wordpools/wordpool_categorized_EN.txt	TULIP	Flowers	8	23	[0, 0, 0]	n/a	catFR1	0	R1231M
3073.161	0.767	3079617	WORD_OFF	n/a	n/a	n/a	n/a	-999	23	[0, 0, 0]	n/a	catFR1	0	R1231M
3073.928	1.6	3080384	WORD	n/a	wordpools/wordpool_categorized_EN.txt	PLANKTON	OceanAnimals	9	23	[0, 0, 0]	n/a	catFR1	0	R1231M
3075.545	0.933	3082001	WORD_OFF	n/a	n/a	n/a	n/a	-999	23	[0, 0, 0]	n/a	catFR1	0	R1231M
3076.478	1.6	3082933	WORD	n/a	wordpools/wordpool_categorized_EN.txt	CRAB	OceanAnimals	10	23	[0, 0, 0]	n/a	catFR1	0	R1231M
3078.095	0.767	3084550	WORD_OFF	n/a	n/a	n/a	n/a	-999	23	[0, 0, 0]	n/a	catFR1	0	R1231M
3078.862	1.6	3085317	WORD	n/a	wordpools/wordpool_categorized_EN.txt	STRAINER	KitchenTools	11	23	[0, 0, 0]	n/a	catFR1	0	R1231M
3080.479	0.917	3086934	WORD_OFF	n/a	n/a	n/a	n/a	-999	23	[0, 0, 0]	n/a	catFR1	0	R1231M
3081.396	1.6	3087851	WORD	n/a	wordpools/wordpool_categorized_EN.txt	SPATULA	KitchenTools	12	23	[0, 0, 0]	n/a	catFR1	0	R1231M
3083.013	0.0	3089468	ENCODING_END	n/a	n/a	n/a	n/a	-999	23	[0, 0, 0]	n/a	catFR1	0	R1231M
3083.013	0.101	3089468	WORD_OFF	n/a	n/a	n/a	n/a	-999	23	[0, 0, 0]	n/a	catFR1	0	R1231M
