onset	duration	sample	trial_type	response_time	stim_file	item_name	category	serialpos	list	test	answer	experiment	session	subject
0.0	10.379	5891	COUNTDOWN_START	n/a	n/a	n/a	n/a	-999	4	[0, 0, 0]	n/a	catFR1	0	R1668S
10.379	0.001	16271	COUNTDOWN_END	n/a	n/a	n/a	n/a	-999	4	[0, 0, 0]	n/a	catFR1	0	R1668S
10.38	2.296	16271	ENCODING_START	n/a	n/a	n/a	n/a	-999	5	[0, 0, 0]	n/a	catFR1	0	R1668S
12.676	0.0	18569	WORD	n/a	wordpools/wordpool_categorized_EN.txt	FINCH	Birds	1	5	[0, 0, 0]	n/a	catFR1	0	R1668S
-104383.725	104398.004	19694	INSTRUCT_START	n/a	n/a	n/a	n/a	-999	-999	[0, 0, 0]	n/a	catFR1	0	R1668S
14.279	0.924	20166	WORD_OFF	n/a	n/a	FINCH	Birds	1	5	[0, 0, 0]	n/a	catFR1	0	R1668S
15.203	1.599	21098	WORD	n/a	wordpools/wordpool_categorized_EN.txt	DUCK	Birds	2	5	[0, 0, 0]	n/a	catFR1	0	R1668S
16.802	0.933	22695	WORD_OFF	n/a	n/a	DUCK	Birds	2	5	[0, 0, 0]	n/a	catFR1	0	R1668S
17.735	1.608	23626	WORD	n/a	wordpools/wordpool_categorized_EN.txt	PHONE	Electronics	3	5	[0, 0, 0]	n/a	catFR1	0	R1668S
19.343	0.76	25235	WORD_OFF	n/a	n/a	PHONE	Electronics	3	5	[0, 0, 0]	n/a	catFR1	0	R1668S
20.103	1.6	25997	WORD	n/a	wordpools/wordpool_categorized_EN.txt	COMPUTER	Electronics	4	5	[0, 0, 0]	n/a	catFR1	0	R1668S
21.703	0.857	27594	WORD_OFF	n/a	n/a	COMPUTER	Electronics	4	5	[0, 0, 0]	n/a	catFR1	0	R1668S
22.56	1.601	28453	WORD	n/a	wordpools/wordpool_categorized_EN.txt	FLUTE	Instruments	5	5	[0, 0, 0]	n/a	catFR1	0	R1668S
24.161	0.79	30050	WORD_OFF	n/a	n/a	FLUTE	Instruments	5	5	[0, 0, 0]	n/a	catFR1	0	R1668S
24.951	1.601	30836	WORD	n/a	wordpools/wordpool_categorized_EN.txt	BANJO	Instruments	6	5	[0, 0, 0]	n/a	catFR1	0	R1668S
26.552	0.884	32445	WORD_OFF	n/a	n/a	BANJO	Instruments	6	5	[0, 0, 0]	n/a	catFR1	0	R1668S
27.436	1.607	33328	WORD	n/a	wordpools/wordpool_categorized_EN.txt	HEADPHONES	Electronics	7	5	[0, 0, 0]	n/a	catFR1	0	R1668S
29.043	0.978	34937	WORD_OFF	n/a	n/a	HEADPHONES	Electronics	7	5	[0, 0, 0]	n/a	catFR1	0	R1668S
30.021	1.605	35917	WORD	n/a	wordpools/wordpool_categorized_EN.txt	TELEVISION	Electronics	8	5	[0, 0, 0]	n/a	catFR1	0	R1668S
31.626	0.826	37514	WORD_OFF	n/a	n/a	TELEVISION	Electronics	8	5	[0, 0, 0]	n/a	catFR1	0	R1668S
32.452	1.601	38349	WORD	n/a	wordpools/wordpool_categorized_EN.txt	ORGAN	Instruments	9	5	[0, 0, 0]	n/a	catFR1	0	R1668S
34.053	0.781	39946	WORD_OFF	n/a	n/a	ORGAN	Instruments	9	5	[0, 0, 0]	n/a	catFR1	0	R1668S
34.834	1.602	40720	WORD	n/a	wordpools/wordpool_categorized_EN.txt	DRUM	Instruments	10	5	[0, 0, 0]	n/a	catFR1	0	R1668S
36.436	0.908	42329	WORD_OFF	n/a	n/a	DRUM	Instruments	10	5	[0, 0, 0]	n/a	catFR1	0	R1668S
37.344	1.6	43236	WORD	n/a	wordpools/wordpool_categorized_EN.txt	DOVE	Birds	11	5	[0, 0, 0]	n/a	catFR1	0	R1668S
38.944	0.8	44833	WORD_OFF	n/a	n/a	DOVE	Birds	11	5	[0, 0, 0]	n/a	catFR1	0	R1668S
39.744	1.609	45644	WORD	n/a	wordpools/wordpool_categorized_EN.txt	SEAGULL	Birds	12	5	[0, 0, 0]	n/a	catFR1	0	R1668S
41.353	0.005	47240	WORD_OFF	n/a	n/a	SEAGULL	Birds	12	5	[0, 0, 0]	n/a	catFR1	0	R1668S
41.358	0.004	47247	START	n/a	n/a	n/a	n/a	-999	5	[-999, -999, -999]	n/a	catFR1	0	R1668S
41.362	0.0	47251	PROB	0.0	n/a	n/a	n/a	-999	5	[1, 2, 4]	7	catFR1	0	R1668S
41.357	0.001	47253	ENCODING_END	n/a	n/a	n/a	n/a	-999	5	[0, 0, 0]	n/a	catFR1	0	R1668S
41.358	3.477	47253	DISTRACT_START	n/a	n/a	n/a	n/a	-999	5	[0, 0, 0]	n/a	catFR1	0	R1668S
44.835	4.849	50724	PROB	4.849	n/a	n/a	n/a	-999	5	[1, 5, 8]	14	catFR1	0	R1668S
49.684	3.652	55573	PROB	3.652	n/a	n/a	n/a	-999	5	[2, 3, 5]	10	catFR1	0	R1668S
53.336	3.591	59225	PROB	3.591	n/a	n/a	n/a	-999	5	[3, 1, 4]	8	catFR1	0	R1668S
56.927	7.895	62816	PROB	7.895	n/a	n/a	n/a	-999	5	[7, 8, 5]	20	catFR1	0	R1668S
64.822	0.0	70710	DISTRACT_END	n/a	n/a	n/a	n/a	-999	5	[0, 0, 0]	n/a	catFR1	0	R1668S
64.822	2.098	70711	STOP	n/a	n/a	n/a	n/a	-999	5	[-999, -999, -999]	n/a	catFR1	0	R1668S
66.92	2.874	72815	REC_START	n/a	n/a	n/a	n/a	-999	5	[0, 0, 0]	n/a	catFR1	0	R1668S
69.794	4.96	75683	REC_WORD	4.96	n/a	SEAGULL	Birds	12	5	[0, 0, 0]	n/a	catFR1	0	R1668S
74.754	6.753	80643	REC_WORD	6.753	n/a	ROSE	n/a	-999	5	[0, 0, 0]	n/a	catFR1	0	R1668S
81.507	15.599	87396	REC_WORD	15.599	n/a	COMPUTER	Electronics	4	5	[0, 0, 0]	n/a	catFR1	0	R1668S
97.106	3.892	102998	REC_END	n/a	n/a	n/a	n/a	-999	5	[0, 0, 0]	n/a	catFR1	0	R1668S
100.998	10.339	106894	COUNTDOWN_START	n/a	n/a	n/a	n/a	-999	5	[0, 0, 0]	n/a	catFR1	0	R1668S
111.337	0.0	117225	COUNTDOWN_END	n/a	n/a	n/a	n/a	-999	5	[0, 0, 0]	n/a	catFR1	0	R1668S
111.337	2.098	117225	ENCODING_START	n/a	n/a	n/a	n/a	-999	6	[0, 0, 0]	n/a	catFR1	0	R1668S
113.435	1.601	119330	WORD	n/a	wordpools/wordpool_categorized_EN.txt	BALL	Toys	1	6	[0, 0, 0]	n/a	catFR1	0	R1668S
115.036	0.806	120927	WORD_OFF	n/a	n/a	BALL	Toys	1	6	[0, 0, 0]	n/a	catFR1	0	R1668S
115.842	1.611	121737	WORD	n/a	wordpools/wordpool_categorized_EN.txt	BASEBALL	Toys	2	6	[0, 0, 0]	n/a	catFR1	0	R1668S
117.453	0.956	123346	WORD_OFF	n/a	n/a	BASEBALL	Toys	2	6	[0, 0, 0]	n/a	catFR1	0	R1668S
118.409	1.6	124302	WORD	n/a	wordpools/wordpool_categorized_EN.txt	CORN	Vegetables	3	6	[0, 0, 0]	n/a	catFR1	0	R1668S
120.009	0.868	125899	WORD_OFF	n/a	n/a	CORN	Vegetables	3	6	[0, 0, 0]	n/a	catFR1	0	R1668S
120.877	1.609	126770	WORD	n/a	wordpools/wordpool_categorized_EN.txt	CABBAGE	Vegetables	4	6	[0, 0, 0]	n/a	catFR1	0	R1668S
122.486	0.966	128379	WORD_OFF	n/a	n/a	CABBAGE	Vegetables	4	6	[0, 0, 0]	n/a	catFR1	0	R1668S
123.452	1.607	129347	WORD	n/a	wordpools/wordpool_categorized_EN.txt	TEA	Beverages	5	6	[0, 0, 0]	n/a	catFR1	0	R1668S
125.059	0.827	130956	WORD_OFF	n/a	n/a	TEA	Beverages	5	6	[0, 0, 0]	n/a	catFR1	0	R1668S
125.886	1.606	131778	WORD	n/a	wordpools/wordpool_categorized_EN.txt	SODA	Beverages	6	6	[0, 0, 0]	n/a	catFR1	0	R1668S
127.492	0.86	133387	WORD_OFF	n/a	n/a	SODA	Beverages	6	6	[0, 0, 0]	n/a	catFR1	0	R1668S
128.352	1.6	134246	WORD	n/a	wordpools/wordpool_categorized_EN.txt	CUCUMBER	Vegetables	7	6	[0, 0, 0]	n/a	catFR1	0	R1668S
129.952	0.97	135843	WORD_OFF	n/a	n/a	CUCUMBER	Vegetables	7	6	[0, 0, 0]	n/a	catFR1	0	R1668S
130.922	1.604	136811	WORD	n/a	wordpools/wordpool_categorized_EN.txt	ONION	Vegetables	8	6	[0, 0, 0]	n/a	catFR1	0	R1668S
132.526	0.893	138420	WORD_OFF	n/a	n/a	ONION	Vegetables	8	6	[0, 0, 0]	n/a	catFR1	0	R1668S
133.419	1.618	139315	WORD	n/a	wordpools/wordpool_categorized_EN.txt	DOLL	Toys	9	6	[0, 0, 0]	n/a	catFR1	0	R1668S
135.037	0.783	140924	WORD_OFF	n/a	n/a	DOLL	Toys	9	6	[0, 0, 0]	n/a	catFR1	0	R1668S
135.82	1.605	141710	WORD	n/a	wordpools/wordpool_categorized_EN.txt	FRISBEE	Toys	10	6	[0, 0, 0]	n/a	catFR1	0	R1668S
137.425	0.867	143319	WORD_OFF	n/a	n/a	FRISBEE	Toys	10	6	[0, 0, 0]	n/a	catFR1	0	R1668S
138.292	1.601	144178	WORD	n/a	wordpools/wordpool_categorized_EN.txt	MILK	Beverages	11	6	[0, 0, 0]	n/a	catFR1	0	R1668S
139.893	0.967	145787	WORD_OFF	n/a	n/a	MILK	Beverages	11	6	[0, 0, 0]	n/a	catFR1	0	R1668S
140.86	1.61	146755	WORD	n/a	wordpools/wordpool_categorized_EN.txt	COLA	Beverages	12	6	[0, 0, 0]	n/a	catFR1	0	R1668S
142.47	0.002	148359	PROB	0.002	n/a	n/a	n/a	-999	6	[5, 3, 4]	12	catFR1	0	R1668S
142.472	0.0	148361	START	n/a	n/a	n/a	n/a	-999	6	[-999, -999, -999]	n/a	catFR1	0	R1668S
142.469	0.003	148364	WORD_OFF	n/a	n/a	COLA	Beverages	12	6	[0, 0, 0]	n/a	catFR1	0	R1668S
142.472	0.0	148364	ENCODING_END	n/a	n/a	n/a	n/a	-999	6	[0, 0, 0]	n/a	catFR1	0	R1668S
142.472	8.063	148364	DISTRACT_START	n/a	n/a	n/a	n/a	-999	6	[0, 0, 0]	n/a	catFR1	0	R1668S
150.535	3.992	156424	PROB	3.992	n/a	n/a	n/a	-999	6	[3, 2, 4]	9	catFR1	0	R1668S
154.527	8.516	160416	PROB	8.516	n/a	n/a	n/a	-999	6	[8, 6, 7]	21	catFR1	0	R1668S
163.043	0.0	168930	DISTRACT_END	n/a	n/a	n/a	n/a	-999	6	[0, 0, 0]	n/a	catFR1	0	R1668S
163.043	2.275	168932	STOP	n/a	n/a	n/a	n/a	-999	6	[-999, -999, -999]	n/a	catFR1	0	R1668S
165.318	5.866	171204	REC_START	n/a	n/a	n/a	n/a	-999	6	[0, 0, 0]	n/a	catFR1	0	R1668S
171.184	2.175	177073	REC_WORD_VV	2.175	n/a	<>	n/a	-999	6	[0, 0, 0]	n/a	catFR1	0	R1668S
173.359	1.476	179248	REC_WORD	1.476	n/a	ORCHID	n/a	-999	6	[0, 0, 0]	n/a	catFR1	0	R1668S
174.835	0.0	180724	REC_WORD	0.0	n/a	ZEBRA	n/a	-999	6	[0, 0, 0]	n/a	catFR1	0	R1668S
-104216.987	104410.646	186435	INSTRUCT_END	n/a	n/a	n/a	n/a	-999	-999	[0, 0, 0]	n/a	catFR1	0	R1668S
193.659	1.815	199549	REC_WORD_VV	1.815	n/a	<>	n/a	-999	6	[0, 0, 0]	n/a	catFR1	0	R1668S
195.474	1.776	201363	REC_END	n/a	n/a	n/a	n/a	-999	6	[0, 0, 0]	n/a	catFR1	0	R1668S
197.25	10.336	203142	COUNTDOWN_START	n/a	n/a	n/a	n/a	-999	6	[0, 0, 0]	n/a	catFR1	0	R1668S
207.586	0.0	213473	COUNTDOWN_END	n/a	n/a	n/a	n/a	-999	6	[0, 0, 0]	n/a	catFR1	0	R1668S
207.586	1.975	213485	ENCODING_START	n/a	n/a	n/a	n/a	-999	7	[0, 0, 0]	n/a	catFR1	0	R1668S
209.561	1.607	215457	WORD	n/a	wordpools/wordpool_categorized_EN.txt	CHEETAH	Zoo	1	7	[0, 0, 0]	n/a	catFR1	0	R1668S
211.168	0.967	217066	WORD_OFF	n/a	n/a	CHEETAH	Zoo	1	7	[0, 0, 0]	n/a	catFR1	0	R1668S
212.135	1.601	218022	WORD	n/a	wordpools/wordpool_categorized_EN.txt	GIRAFFE	Zoo	2	7	[0, 0, 0]	n/a	catFR1	0	R1668S
213.736	0.908	219631	WORD_OFF	n/a	n/a	GIRAFFE	Zoo	2	7	[0, 0, 0]	n/a	catFR1	0	R1668S
214.644	0.0	220538	WORD	n/a	wordpools/wordpool_categorized_EN.txt	FISH	OceanAnimals	3	7	[0, 0, 0]	n/a	catFR1	0	R1668S
-104182.602	104398.854	220828	COUNTDOWN_START	n/a	n/a	n/a	n/a	-999	-999	[0, 0, 0]	n/a	catFR1	0	R1668S
216.252	0.842	222147	WORD_OFF	n/a	n/a	FISH	OceanAnimals	3	7	[0, 0, 0]	n/a	catFR1	0	R1668S
217.094	1.607	222982	WORD	n/a	wordpools/wordpool_categorized_EN.txt	CRAB	OceanAnimals	4	7	[0, 0, 0]	n/a	catFR1	0	R1668S
218.701	0.843	224591	WORD_OFF	n/a	n/a	CRAB	OceanAnimals	4	7	[0, 0, 0]	n/a	catFR1	0	R1668S
219.544	1.606	225437	WORD	n/a	wordpools/wordpool_categorized_EN.txt	BEETLE	Insects	5	7	[0, 0, 0]	n/a	catFR1	0	R1668S
221.15	0.793	227046	WORD_OFF	n/a	n/a	BEETLE	Insects	5	7	[0, 0, 0]	n/a	catFR1	0	R1668S
221.943	1.608	227833	WORD	n/a	wordpools/wordpool_categorized_EN.txt	MOSQUITO	Insects	6	7	[0, 0, 0]	n/a	catFR1	0	R1668S
223.551	0.916	229442	WORD_OFF	n/a	n/a	MOSQUITO	Insects	6	7	[0, 0, 0]	n/a	catFR1	0	R1668S
224.467	0.0	230361	WORD	n/a	wordpools/wordpool_categorized_EN.txt	WHALE	OceanAnimals	7	7	[0, 0, 0]	n/a	catFR1	0	R1668S
-104172.252	0.001	231172	COUNTDOWN_END	n/a	n/a	n/a	n/a	-999	-999	[0, 0, 0]	n/a	catFR1	0	R1668S
-104172.251	104398.319	231172	ENCODING_START	n/a	n/a	n/a	n/a	-999	-1	[0, 0, 0]	n/a	catFR1	0	R1668S
226.068	0.866	231958	WORD_OFF	n/a	n/a	WHALE	OceanAnimals	7	7	[0, 0, 0]	n/a	catFR1	0	R1668S
226.934	0.0	232829	WORD	n/a	wordpools/wordpool_categorized_EN.txt	SHRIMP	OceanAnimals	8	7	[0, 0, 0]	n/a	catFR1	0	R1668S
-104170.145	104398.679	233277	WORD	n/a	n/a	GRATER	KitchenTools	1	-1	[0, 0, 0]	n/a	catFR1	0	R1668S
228.534	0.0	234426	WORD_OFF	n/a	n/a	SHRIMP	OceanAnimals	8	7	[0, 0, 0]	n/a	catFR1	0	R1668S
-104168.543	104398.044	234886	WORD_OFF	n/a	n/a	GRATER	KitchenTools	1	-1	[0, 0, 0]	n/a	catFR1	0	R1668S
229.501	0.0	235394	WORD	n/a	wordpools/wordpool_categorized_EN.txt	ANT	Insects	9	7	[0, 0, 0]	n/a	catFR1	0	R1668S
-104167.625	104398.735	235805	WORD	n/a	n/a	TONGS	KitchenTools	2	-1	[0, 0, 0]	n/a	catFR1	0	R1668S
231.11	0.0	237003	WORD_OFF	n/a	n/a	ANT	Insects	9	7	[0, 0, 0]	n/a	catFR1	0	R1668S
-104166.018	104397.92	237402	WORD_OFF	n/a	n/a	TONGS	KitchenTools	2	-1	[0, 0, 0]	n/a	catFR1	0	R1668S
231.902	0.0	237801	WORD	n/a	wordpools/wordpool_categorized_EN.txt	FLY	Insects	10	7	[0, 0, 0]	n/a	catFR1	0	R1668S
-104165.218	104398.719	238212	WORD	n/a	n/a	LION	Zoo	3	-1	[0, 0, 0]	n/a	catFR1	0	R1668S
233.501	0.0	239398	WORD_OFF	n/a	n/a	FLY	Insects	10	7	[0, 0, 0]	n/a	catFR1	0	R1668S
-104163.617	104397.926	239809	WORD_OFF	n/a	n/a	LION	Zoo	3	-1	[0, 0, 0]	n/a	catFR1	0	R1668S
234.309	0.0	240196	WORD	n/a	wordpools/wordpool_categorized_EN.txt	ORANGUTAN	Zoo	11	7	[0, 0, 0]	n/a	catFR1	0	R1668S
-104162.761	104398.67	240668	WORD	n/a	n/a	GIRAFFE	Zoo	4	-1	[0, 0, 0]	n/a	catFR1	0	R1668S
235.909	0.0	241805	WORD_OFF	n/a	n/a	ORANGUTAN	Zoo	11	7	[0, 0, 0]	n/a	catFR1	0	R1668S
-104161.152	104398.036	242277	WORD_OFF	n/a	n/a	GIRAFFE	Zoo	4	-1	[0, 0, 0]	n/a	catFR1	0	R1668S
236.884	0.0	242773	WORD	n/a	wordpools/wordpool_categorized_EN.txt	LION	Zoo	12	7	[0, 0, 0]	n/a	catFR1	0	R1668S
-104160.237	104398.722	243184	WORD	n/a	n/a	PETUNIA	Flowers	5	-1	[0, 0, 0]	n/a	catFR1	0	R1668S
238.485	0.003	244375	PROB	0.003	n/a	n/a	n/a	-999	7	[6, 3, 3]	12	catFR1	0	R1668S
238.488	0.0	244378	START	n/a	n/a	n/a	n/a	-999	7	[-999, -999, -999]	n/a	catFR1	0	R1668S
238.484	0.004	244382	WORD_OFF	n/a	n/a	LION	Zoo	12	7	[0, 0, 0]	n/a	catFR1	0	R1668S
238.488	0.0	244382	ENCODING_END	n/a	n/a	n/a	n/a	-999	7	[0, 0, 0]	n/a	catFR1	0	R1668S
238.488	0.0	244382	DISTRACT_START	n/a	n/a	n/a	n/a	-999	7	[0, 0, 0]	n/a	catFR1	0	R1668S
-104158.636	0.984	244793	WORD_OFF	n/a	n/a	PETUNIA	Flowers	5	-1	[0, 0, 0]	n/a	catFR1	0	R1668S
-104157.652	1.601	245773	WORD	n/a	n/a	CARNATION	Flowers	6	-1	[0, 0, 0]	n/a	catFR1	0	R1668S
-104156.051	0.823	247370	WORD_OFF	n/a	n/a	CARNATION	Flowers	6	-1	[0, 0, 0]	n/a	catFR1	0	R1668S
-104155.228	104398.281	248193	WORD	n/a	n/a	TIGER	Zoo	7	-1	[0, 0, 0]	n/a	catFR1	0	R1668S
243.053	0.0	248943	PROB	0.0	n/a	n/a	n/a	-999	7	[8, 2, 1]	11	catFR1	0	R1668S
-104153.627	0.991	249802	WORD_OFF	n/a	n/a	TIGER	Zoo	7	-1	[0, 0, 0]	n/a	catFR1	0	R1668S
-104152.636	104398.63	250794	WORD	n/a	n/a	CHEETAH	Zoo	8	-1	[0, 0, 0]	n/a	catFR1	0	R1668S
245.994	0.0	251884	PROB	0.0	n/a	n/a	n/a	-999	7	[1, 5, 1]	7	catFR1	0	R1668S
-104151.028	0.817	252391	WORD_OFF	n/a	n/a	CHEETAH	Zoo	8	-1	[0, 0, 0]	n/a	catFR1	0	R1668S
-104150.211	104398.646	253213	WORD	n/a	n/a	COLANDER	KitchenTools	9	-1	[0, 0, 0]	n/a	catFR1	0	R1668S
248.435	0.0	254325	PROB	0.0	n/a	n/a	n/a	-999	7	[6, 3, 4]	13	catFR1	0	R1668S
-104148.602	0.782	254822	WORD_OFF	n/a	n/a	COLANDER	KitchenTools	9	-1	[0, 0, 0]	n/a	catFR1	0	R1668S
-104147.82	1.601	255609	WORD	n/a	n/a	KNIFE	KitchenTools	10	-1	[0, 0, 0]	n/a	catFR1	0	R1668S
-104146.219	0.858	257206	WORD_OFF	n/a	n/a	KNIFE	KitchenTools	10	-1	[0, 0, 0]	n/a	catFR1	0	R1668S
-104145.361	104398.93	258064	WORD	n/a	n/a	MARIGOLD	Flowers	11	-1	[0, 0, 0]	n/a	catFR1	0	R1668S
253.569	0.0	259459	PROB	0.0	n/a	n/a	n/a	-999	7	[6, 1, 8]	15	catFR1	0	R1668S
-104143.753	0.942	259673	WORD_OFF	n/a	n/a	MARIGOLD	Flowers	11	-1	[0, 0, 0]	n/a	catFR1	0	R1668S
-104142.811	1.6	260617	WORD	n/a	n/a	LILY	Flowers	12	-1	[0, 0, 0]	n/a	catFR1	0	R1668S
-104141.211	0.004	262214	WORD_OFF	n/a	n/a	LILY	Flowers	12	-1	[0, 0, 0]	n/a	catFR1	0	R1668S
-104141.207	0.0	262214	ENCODING_END	n/a	n/a	n/a	n/a	-999	-1	[0, 0, 0]	n/a	catFR1	0	R1668S
-104141.207	0.0	262214	DISTRACT_START	n/a	n/a	n/a	n/a	-999	-1	[0, 0, 0]	n/a	catFR1	0	R1668S
-104141.207	0.003	262221	START	n/a	n/a	n/a	n/a	-999	-1	[-999, -999, -999]	n/a	catFR1	0	R1668S
-104141.204	104400.139	262224	PROB	104400.139	n/a	n/a	n/a	-999	-1	[1, 8, 4]	13	catFR1	0	R1668S
258.935	0.0	264825	STOP	n/a	n/a	n/a	n/a	-999	7	[-999, -999, -999]	n/a	catFR1	0	R1668S
258.935	2.183	264827	DISTRACT_END	n/a	n/a	n/a	n/a	-999	7	[0, 0, 0]	n/a	catFR1	0	R1668S
261.118	3.271	267005	REC_START	n/a	n/a	n/a	n/a	-999	7	[0, 0, 0]	n/a	catFR1	0	R1668S
264.389	0.0	270279	REC_WORD	0.0	n/a	CHEETAH	Zoo	1	7	[0, 0, 0]	n/a	catFR1	0	R1668S
-104132.785	104401.694	270643	PROB	104401.694	n/a	n/a	n/a	-999	-1	[8, 1, 4]	13	catFR1	0	R1668S
268.909	2.99	274799	REC_WORD	2.99	n/a	ORANGUTAN	Zoo	11	7	[0, 0, 0]	n/a	catFR1	0	R1668S
271.899	0.0	277789	REC_WORD	0.0	n/a	MONKEY	Zoo	-999	7	[0, 0, 0]	n/a	catFR1	0	R1668S
-104125.127	104397.916	278301	PROB	104397.916	n/a	n/a	n/a	-999	-1	[2, 3, 5]	9	catFR1	0	R1668S
272.789	1.61	278679	REC_WORD	1.61	n/a	LION	Zoo	12	7	[0, 0, 0]	n/a	catFR1	0	R1668S
274.399	0.0	280289	REC_WORD	0.0	n/a	TIGER	Zoo	-999	7	[0, 0, 0]	n/a	catFR1	0	R1668S
-104121.025	0.0	282393	DISTRACT_END	n/a	n/a	n/a	n/a	-999	-1	[0, 0, 0]	n/a	catFR1	0	R1668S
-104121.025	2.058	282403	STOP	n/a	n/a	n/a	n/a	-999	-1	[-999, -999, -999]	n/a	catFR1	0	R1668S
-104118.967	3.014	284461	REC_START	n/a	n/a	n/a	n/a	-999	-1	[0, 0, 0]	n/a	catFR1	0	R1668S
-104115.953	1.0	287475	REC_WORD_VV	1.0	n/a	<>	n/a	-999	-1	[0, 0, 0]	n/a	catFR1	0	R1668S
-104114.953	104397.543	288475	REC_WORD_VV	104397.543	n/a	<>	n/a	-999	-1	[0, 0, 0]	n/a	catFR1	0	R1668S
282.59	0.0	288480	REC_WORD	0.0	n/a	MOSQUITO	Insects	6	7	[0, 0, 0]	n/a	catFR1	0	R1668S
-104113.953	2.814	289475	REC_WORD_VV	2.814	n/a	<>	n/a	-999	-1	[0, 0, 0]	n/a	catFR1	0	R1668S
-104111.139	1.0	292289	REC_WORD_VV	1.0	n/a	<>	n/a	-999	-1	[0, 0, 0]	n/a	catFR1	0	R1668S
-104110.139	1.0	293289	REC_WORD_VV	1.0	n/a	<>	n/a	-999	-1	[0, 0, 0]	n/a	catFR1	0	R1668S
-104109.139	1.0	294289	REC_WORD_VV	1.0	n/a	<>	n/a	-999	-1	[0, 0, 0]	n/a	catFR1	0	R1668S
-104108.139	1.0	295289	REC_WORD_VV	1.0	n/a	<>	n/a	-999	-1	[0, 0, 0]	n/a	catFR1	0	R1668S
-104107.139	104397.824	296289	REC_WORD_VV	104397.824	n/a	<>	n/a	-999	-1	[0, 0, 0]	n/a	catFR1	0	R1668S
290.685	0.582	296575	REC_WORD_VV	0.582	n/a	<>	n/a	-999	7	[0, 0, 0]	n/a	catFR1	0	R1668S
291.267	0.0	297164	REC_END	n/a	n/a	n/a	n/a	-999	7	[0, 0, 0]	n/a	catFR1	0	R1668S
-104106.139	104399.748	297289	REC_WORD_VV	104399.748	n/a	<>	n/a	-999	-1	[0, 0, 0]	n/a	catFR1	0	R1668S
293.609	0.0	299499	COUNTDOWN_START	n/a	n/a	n/a	n/a	-999	7	[0, 0, 0]	n/a	catFR1	0	R1668S
-104103.865	1.0	299563	REC_WORD_VV	1.0	n/a	<>	n/a	-999	-1	[0, 0, 0]	n/a	catFR1	0	R1668S
-104102.865	1.245	300563	REC_WORD_VV	1.245	n/a	<>	n/a	-999	-1	[0, 0, 0]	n/a	catFR1	0	R1668S
-104101.62	1.175	301808	REC_WORD_VV	1.175	n/a	<>	n/a	-999	-1	[0, 0, 0]	n/a	catFR1	0	R1668S
-104100.445	1.0	302983	REC_WORD_VV	1.0	n/a	<>	n/a	-999	-1	[0, 0, 0]	n/a	catFR1	0	R1668S
-104099.445	1.0	303983	REC_WORD_VV	1.0	n/a	<>	n/a	-999	-1	[0, 0, 0]	n/a	catFR1	0	R1668S
-104098.445	1.0	304983	REC_WORD_VV	1.0	n/a	<>	n/a	-999	-1	[0, 0, 0]	n/a	catFR1	0	R1668S
-104097.445	0.769	305983	REC_WORD_VV	0.769	n/a	<>	n/a	-999	-1	[0, 0, 0]	n/a	catFR1	0	R1668S
-104096.676	1.037	306752	REC_WORD	1.037	n/a	LION	Zoo	3	-1	[0, 0, 0]	n/a	catFR1	0	R1668S
-104095.639	1.725	307789	REC_WORD	1.725	n/a	CHEETAH	Zoo	8	-1	[0, 0, 0]	n/a	catFR1	0	R1668S
-104093.914	104397.865	309514	REC_WORD	104397.865	n/a	LILY	Flowers	12	-1	[0, 0, 0]	n/a	catFR1	0	R1668S
303.951	0.0	309842	COUNTDOWN_END	n/a	n/a	n/a	n/a	-999	7	[0, 0, 0]	n/a	catFR1	0	R1668S
303.951	0.0	309842	ENCODING_START	n/a	n/a	n/a	n/a	-999	8	[0, 0, 0]	n/a	catFR1	0	R1668S
-104092.68	104398.665	310748	REC_WORD	104398.665	n/a	PETUNIA	Flowers	5	-1	[0, 0, 0]	n/a	catFR1	0	R1668S
305.985	0.0	311874	WORD	n/a	wordpools/wordpool_categorized_EN.txt	BUTTERFLY	Insects	1	8	[0, 0, 0]	n/a	catFR1	0	R1668S
-104090.384	104397.977	313044	REC_WORD	104397.977	n/a	GIANT	n/a	-999	-1	[0, 0, 0]	n/a	catFR1	0	R1668S
307.593	0.9	313483	WORD_OFF	n/a	n/a	BUTTERFLY	Insects	1	8	[0, 0, 0]	n/a	catFR1	0	R1668S
308.493	0.0	314391	WORD	n/a	wordpools/wordpool_categorized_EN.txt	SPIDER	Insects	2	8	[0, 0, 0]	n/a	catFR1	0	R1668S
-104088.809	104398.902	314608	REC_END	n/a	n/a	n/a	n/a	-999	-1	[0, 0, 0]	n/a	catFR1	0	R1668S
310.093	0.885	315988	WORD_OFF	n/a	n/a	SPIDER	Insects	2	8	[0, 0, 0]	n/a	catFR1	0	R1668S
310.978	1.607	316871	WORD	n/a	wordpools/wordpool_categorized_EN.txt	CEILING	Building	3	8	[0, 0, 0]	n/a	catFR1	0	R1668S
312.585	0.9	318480	WORD_OFF	n/a	n/a	CEILING	Building	3	8	[0, 0, 0]	n/a	catFR1	0	R1668S
313.485	1.599	319375	WORD	n/a	wordpools/wordpool_categorized_EN.txt	HALLWAY	Building	4	8	[0, 0, 0]	n/a	catFR1	0	R1668S
315.084	0.959	320972	WORD_OFF	n/a	n/a	HALLWAY	Building	4	8	[0, 0, 0]	n/a	catFR1	0	R1668S
316.043	1.608	321940	WORD	n/a	wordpools/wordpool_categorized_EN.txt	TOE	BodyParts	5	8	[0, 0, 0]	n/a	catFR1	0	R1668S
317.651	0.792	323549	WORD_OFF	n/a	n/a	TOE	BodyParts	5	8	[0, 0, 0]	n/a	catFR1	0	R1668S
318.443	1.6	324335	WORD	n/a	wordpools/wordpool_categorized_EN.txt	KNEE	BodyParts	6	8	[0, 0, 0]	n/a	catFR1	0	R1668S
320.043	0.907	325932	WORD_OFF	n/a	n/a	KNEE	BodyParts	6	8	[0, 0, 0]	n/a	catFR1	0	R1668S
320.95	1.602	326839	WORD	n/a	wordpools/wordpool_categorized_EN.txt	CRICKET	Insects	7	8	[0, 0, 0]	n/a	catFR1	0	R1668S
322.552	0.761	328448	WORD_OFF	n/a	n/a	CRICKET	Insects	7	8	[0, 0, 0]	n/a	catFR1	0	R1668S
323.313	1.603	329210	WORD	n/a	wordpools/wordpool_categorized_EN.txt	ROACH	Insects	8	8	[0, 0, 0]	n/a	catFR1	0	R1668S
324.916	0.934	330807	WORD_OFF	n/a	n/a	ROACH	Insects	8	8	[0, 0, 0]	n/a	catFR1	0	R1668S
325.85	1.601	331739	WORD	n/a	wordpools/wordpool_categorized_EN.txt	NOSE	BodyParts	9	8	[0, 0, 0]	n/a	catFR1	0	R1668S
327.451	0.852	333348	WORD_OFF	n/a	n/a	NOSE	BodyParts	9	8	[0, 0, 0]	n/a	catFR1	0	R1668S
328.303	1.607	334194	WORD	n/a	wordpools/wordpool_categorized_EN.txt	EYE	BodyParts	10	8	[0, 0, 0]	n/a	catFR1	0	R1668S
329.91	0.832	335803	WORD_OFF	n/a	n/a	EYE	BodyParts	10	8	[0, 0, 0]	n/a	catFR1	0	R1668S
330.742	1.601	336638	WORD	n/a	wordpools/wordpool_categorized_EN.txt	WALL	Building	11	8	[0, 0, 0]	n/a	catFR1	0	R1668S
332.343	0.998	338235	WORD_OFF	n/a	n/a	WALL	Building	11	8	[0, 0, 0]	n/a	catFR1	0	R1668S
333.341	1.602	339239	WORD	n/a	wordpools/wordpool_categorized_EN.txt	BATHROOM	Building	12	8	[0, 0, 0]	n/a	catFR1	0	R1668S
334.943	0.0	340833	PROB	0.0	n/a	n/a	n/a	-999	8	[6, 4, 6]	16	catFR1	0	R1668S
334.943	0.003	340836	WORD_OFF	n/a	n/a	BATHROOM	Building	12	8	[0, 0, 0]	n/a	catFR1	0	R1668S
334.946	0.0	340836	ENCODING_END	n/a	n/a	n/a	n/a	-999	8	[0, 0, 0]	n/a	catFR1	0	R1668S
334.946	0.0	340836	DISTRACT_START	n/a	n/a	n/a	n/a	-999	8	[0, 0, 0]	n/a	catFR1	0	R1668S
334.946	5.28	340836	START	n/a	n/a	n/a	n/a	-999	8	[-999, -999, -999]	n/a	catFR1	0	R1668S
340.226	3.292	346116	PROB	3.292	n/a	n/a	n/a	-999	8	[2, 1, 4]	7	catFR1	0	R1668S
343.518	0.0	349408	PROB	0.0	n/a	n/a	n/a	-999	8	[6, 8, 3]	17	catFR1	0	R1668S
-104049.286	104398.72	354143	COUNTDOWN_START	n/a	n/a	n/a	n/a	-999	1	[0, 0, 0]	n/a	catFR1	0	R1668S
349.434	2.634	355324	PROB	2.634	n/a	n/a	n/a	-999	8	[4, 4, 1]	9	catFR1	0	R1668S
352.068	4.224	357958	PROB	4.224	n/a	n/a	n/a	-999	8	[8, 2, 8]	18	catFR1	0	R1668S
356.292	0.0	362182	STOP	n/a	n/a	n/a	n/a	-999	8	[-999, -999, -999]	n/a	catFR1	0	R1668S
356.292	2.059	362188	DISTRACT_END	n/a	n/a	n/a	n/a	-999	8	[0, 0, 0]	n/a	catFR1	0	R1668S
358.351	0.0	364245	REC_START	n/a	n/a	n/a	n/a	-999	8	[0, 0, 0]	n/a	catFR1	0	R1668S
-104038.936	0.0	364487	COUNTDOWN_END	n/a	n/a	n/a	n/a	-999	1	[0, 0, 0]	n/a	catFR1	0	R1668S
-104038.936	2.025	364487	ENCODING_START	n/a	n/a	n/a	n/a	-999	1	[0, 0, 0]	n/a	catFR1	0	R1668S
-104036.911	1.601	366507	WORD	n/a	wordpools/wordpool_categorized_EN.txt	FLUTE	Instruments	1	1	[0, 0, 0]	n/a	catFR1	0	R1668S
-104035.31	0.967	368116	WORD_OFF	n/a	n/a	FLUTE	Instruments	1	1	[0, 0, 0]	n/a	catFR1	0	R1668S
-104034.343	1.606	369084	WORD	n/a	wordpools/wordpool_categorized_EN.txt	BANJO	Instruments	2	1	[0, 0, 0]	n/a	catFR1	0	R1668S
-104032.737	0.901	370693	WORD_OFF	n/a	n/a	BANJO	Instruments	2	1	[0, 0, 0]	n/a	catFR1	0	R1668S
-104031.836	1.609	371588	WORD	n/a	wordpools/wordpool_categorized_EN.txt	LEATHER	Fabric	3	1	[0, 0, 0]	n/a	catFR1	0	R1668S
-104030.227	0.881	373197	WORD_OFF	n/a	n/a	LEATHER	Fabric	3	1	[0, 0, 0]	n/a	catFR1	0	R1668S
-104029.346	1.61	374080	WORD	n/a	wordpools/wordpool_categorized_EN.txt	FLEECE	Fabric	4	1	[0, 0, 0]	n/a	catFR1	0	R1668S
-104027.736	0.876	375689	WORD_OFF	n/a	n/a	FLEECE	Fabric	4	1	[0, 0, 0]	n/a	catFR1	0	R1668S
-104026.86	1.616	376560	WORD	n/a	wordpools/wordpool_categorized_EN.txt	APPLE	Fruit	5	1	[0, 0, 0]	n/a	catFR1	0	R1668S
-104025.244	0.907	378181	WORD_OFF	n/a	n/a	APPLE	Fruit	5	1	[0, 0, 0]	n/a	catFR1	0	R1668S
-104024.337	1.602	379088	WORD	n/a	wordpools/wordpool_categorized_EN.txt	GRAPE	Fruit	6	1	[0, 0, 0]	n/a	catFR1	0	R1668S
-104022.735	0.815	380685	WORD_OFF	n/a	n/a	GRAPE	Fruit	6	1	[0, 0, 0]	n/a	catFR1	0	R1668S
-104021.92	1.601	381508	WORD	n/a	wordpools/wordpool_categorized_EN.txt	ORGAN	Instruments	7	1	[0, 0, 0]	n/a	catFR1	0	R1668S
-104020.319	0.774	383105	WORD_OFF	n/a	n/a	ORGAN	Instruments	7	1	[0, 0, 0]	n/a	catFR1	0	R1668S
-104019.545	1.61	383879	WORD	n/a	wordpools/wordpool_categorized_EN.txt	DRUM	Instruments	8	1	[0, 0, 0]	n/a	catFR1	0	R1668S
-104017.935	104397.778	385488	WORD_OFF	n/a	n/a	DRUM	Instruments	8	1	[0, 0, 0]	n/a	catFR1	0	R1668S
379.843	0.0	385733	REC_WORD_VV	0.0	n/a	<>	n/a	-999	8	[0, 0, 0]	n/a	catFR1	0	R1668S
-104017.095	104397.938	386335	WORD	n/a	wordpools/wordpool_categorized_EN.txt	BANANA	Fruit	9	1	[0, 0, 0]	n/a	catFR1	0	R1668S
380.843	1.0	386733	REC_WORD_VV	1.0	n/a	<>	n/a	-999	8	[0, 0, 0]	n/a	catFR1	0	R1668S
381.843	0.0	387733	REC_WORD_VV	0.0	n/a	<>	n/a	-999	8	[0, 0, 0]	n/a	catFR1	0	R1668S
-104015.495	0.76	387932	WORD_OFF	n/a	n/a	BANANA	Fruit	9	1	[0, 0, 0]	n/a	catFR1	0	R1668S
-104014.735	104397.754	388694	WORD	n/a	wordpools/wordpool_categorized_EN.txt	LEMON	Fruit	10	1	[0, 0, 0]	n/a	catFR1	0	R1668S
383.019	0.0	388909	REC_WORD_VV	0.0	n/a	<>	n/a	-999	8	[0, 0, 0]	n/a	catFR1	0	R1668S
-104013.135	0.999	390291	WORD_OFF	n/a	n/a	LEMON	Fruit	10	1	[0, 0, 0]	n/a	catFR1	0	R1668S
-104012.136	1.607	391295	WORD	n/a	wordpools/wordpool_categorized_EN.txt	VELVET	Fabric	11	1	[0, 0, 0]	n/a	catFR1	0	R1668S
-104010.529	0.786	392892	WORD_OFF	n/a	n/a	VELVET	Fabric	11	1	[0, 0, 0]	n/a	catFR1	0	R1668S
-104009.743	104398.244	393678	WORD	n/a	wordpools/wordpool_categorized_EN.txt	SPANDEX	Fabric	12	1	[0, 0, 0]	n/a	catFR1	0	R1668S
388.501	0.0	394392	REC_END	n/a	n/a	n/a	n/a	-999	8	[0, 0, 0]	n/a	catFR1	0	R1668S
-104008.143	0.0	395275	WORD_OFF	n/a	n/a	SPANDEX	Fabric	12	1	[0, 0, 0]	n/a	catFR1	0	R1668S
-104008.143	0.002	395285	PROB	0.002	n/a	n/a	n/a	-999	1	[7, 7, 8]	22	catFR1	0	R1668S
-104008.141	0.0	395287	ENCODING_END	n/a	n/a	n/a	n/a	-999	1	[0, 0, 0]	n/a	catFR1	0	R1668S
-104008.141	0.0	395287	DISTRACT_START	n/a	n/a	n/a	n/a	-999	1	[0, 0, 0]	n/a	catFR1	0	R1668S
-104008.141	104399.674	395287	START	n/a	n/a	n/a	n/a	-999	1	[-999, -999, -999]	n/a	catFR1	0	R1668S
391.533	0.0	397428	COUNTDOWN_START	n/a	n/a	n/a	n/a	-999	8	[0, 0, 0]	n/a	catFR1	0	R1668S
-103998.977	104400.86	404451	PROB	104400.86	n/a	n/a	n/a	-999	1	[7, 4, 5]	16	catFR1	0	R1668S
401.883	0.0	407772	COUNTDOWN_END	n/a	n/a	n/a	n/a	-999	8	[0, 0, 0]	n/a	catFR1	0	R1668S
401.883	2.251	407772	ENCODING_START	n/a	n/a	n/a	n/a	-999	9	[0, 0, 0]	n/a	catFR1	0	R1668S
404.134	1.609	410022	WORD	n/a	wordpools/wordpool_categorized_EN.txt	SAW	Tools	1	9	[0, 0, 0]	n/a	catFR1	0	R1668S
405.743	0.96	411631	WORD_OFF	n/a	n/a	SAW	Tools	1	9	[0, 0, 0]	n/a	catFR1	0	R1668S
406.703	0.0	412599	WORD	n/a	wordpools/wordpool_categorized_EN.txt	PLIERS	Tools	2	9	[0, 0, 0]	n/a	catFR1	0	R1668S
-103989.527	104397.83	413901	PROB	104397.83	n/a	n/a	n/a	-999	1	[7, 2, 1]	10	catFR1	0	R1668S
408.303	0.93	414196	WORD_OFF	n/a	n/a	PLIERS	Tools	2	9	[0, 0, 0]	n/a	catFR1	0	R1668S
409.233	1.608	415127	WORD	n/a	wordpools/wordpool_categorized_EN.txt	FOOT	BodyParts	3	9	[0, 0, 0]	n/a	catFR1	0	R1668S
410.841	0.858	416736	WORD_OFF	n/a	n/a	FOOT	BodyParts	3	9	[0, 0, 0]	n/a	catFR1	0	R1668S
411.699	1.601	417595	WORD	n/a	wordpools/wordpool_categorized_EN.txt	ARM	BodyParts	4	9	[0, 0, 0]	n/a	catFR1	0	R1668S
413.3	0.0	419192	WORD_OFF	n/a	n/a	ARM	BodyParts	4	9	[0, 0, 0]	n/a	catFR1	0	R1668S
-103984.219	0.0	419204	DISTRACT_END	n/a	n/a	n/a	n/a	-999	1	[0, 0, 0]	n/a	catFR1	0	R1668S
-103984.219	104398.319	419209	STOP	n/a	n/a	n/a	n/a	-999	1	[-999, -999, -999]	n/a	catFR1	0	R1668S
414.1	0.0	419990	WORD	n/a	wordpools/wordpool_categorized_EN.txt	STRAWBERRY	Fruit	5	9	[0, 0, 0]	n/a	catFR1	0	R1668S
-103981.859	104397.567	421563	REC_START	n/a	n/a	n/a	n/a	-999	1	[0, 0, 0]	n/a	catFR1	0	R1668S
415.708	0.801	421599	WORD_OFF	n/a	n/a	STRAWBERRY	Fruit	5	9	[0, 0, 0]	n/a	catFR1	0	R1668S
416.509	1.6	422398	WORD	n/a	wordpools/wordpool_categorized_EN.txt	BANANA	Fruit	6	9	[0, 0, 0]	n/a	catFR1	0	R1668S
418.109	0.842	424007	WORD_OFF	n/a	n/a	BANANA	Fruit	6	9	[0, 0, 0]	n/a	catFR1	0	R1668S
418.951	1.6	424841	WORD	n/a	wordpools/wordpool_categorized_EN.txt	FINGERS	BodyParts	7	9	[0, 0, 0]	n/a	catFR1	0	R1668S
420.551	0.967	426450	WORD_OFF	n/a	n/a	FINGERS	BodyParts	7	9	[0, 0, 0]	n/a	catFR1	0	R1668S
421.518	0.0	427406	WORD	n/a	wordpools/wordpool_categorized_EN.txt	EAR	BodyParts	8	9	[0, 0, 0]	n/a	catFR1	0	R1668S
-103975.974	104399.092	427454	REC_WORD	104399.092	n/a	GIANT	n/a	-999	1	[0, 0, 0]	n/a	catFR1	0	R1668S
423.118	0.0	429015	WORD_OFF	n/a	n/a	EAR	BodyParts	8	9	[0, 0, 0]	n/a	catFR1	0	R1668S
-103974.246	104398.246	429182	REC_WORD	104398.246	n/a	APPLE	Fruit	5	1	[0, 0, 0]	n/a	catFR1	0	R1668S
424.0	0.0	429898	WORD	n/a	wordpools/wordpool_categorized_EN.txt	LEMON	Fruit	9	9	[0, 0, 0]	n/a	catFR1	0	R1668S
-103973.437	104399.038	429991	REC_WORD	104399.038	n/a	GRAPE	Fruit	6	1	[0, 0, 0]	n/a	catFR1	0	R1668S
425.601	0.926	431495	WORD_OFF	n/a	n/a	LEMON	Fruit	9	9	[0, 0, 0]	n/a	catFR1	0	R1668S
426.527	0.0	432414	WORD	n/a	wordpools/wordpool_categorized_EN.txt	CHERRY	Fruit	10	9	[0, 0, 0]	n/a	catFR1	0	R1668S
-103970.772	104398.907	432656	REC_WORD	104398.907	n/a	COLANDER	KitchenTools	-999	1	[0, 0, 0]	n/a	catFR1	0	R1668S
428.135	0.0	434023	WORD_OFF	n/a	n/a	CHERRY	Fruit	10	9	[0, 0, 0]	n/a	catFR1	0	R1668S
-103968.739	104397.79	434689	REC_WORD	104397.79	n/a	VELVET	Fabric	11	1	[0, 0, 0]	n/a	catFR1	0	R1668S
429.051	1.609	434943	WORD	n/a	wordpools/wordpool_categorized_EN.txt	SCREWDRIVER	Tools	11	9	[0, 0, 0]	n/a	catFR1	0	R1668S
430.66	0.833	436552	WORD_OFF	n/a	n/a	SCREWDRIVER	Tools	11	9	[0, 0, 0]	n/a	catFR1	0	R1668S
431.493	1.607	437386	WORD	n/a	wordpools/wordpool_categorized_EN.txt	RATCHET	Tools	12	9	[0, 0, 0]	n/a	catFR1	0	R1668S
433.1	0.003	438990	PROB	0.003	n/a	n/a	n/a	-999	9	[5, 2, 4]	11	catFR1	0	R1668S
433.103	0.0	438993	START	n/a	n/a	n/a	n/a	-999	9	[-999, -999, -999]	n/a	catFR1	0	R1668S
433.1	0.003	438995	WORD_OFF	n/a	n/a	RATCHET	Tools	12	9	[0, 0, 0]	n/a	catFR1	0	R1668S
433.103	0.0	438995	ENCODING_END	n/a	n/a	n/a	n/a	-999	9	[0, 0, 0]	n/a	catFR1	0	R1668S
433.103	0.0	438995	DISTRACT_START	n/a	n/a	n/a	n/a	-999	9	[0, 0, 0]	n/a	catFR1	0	R1668S
-103959.023	1.0	444405	REC_WORD_VV	1.0	n/a	<>	n/a	-999	1	[0, 0, 0]	n/a	catFR1	0	R1668S
-103958.023	104398.083	445405	REC_WORD_VV	104398.083	n/a	<>	n/a	-999	1	[0, 0, 0]	n/a	catFR1	0	R1668S
440.06	0.0	445950	PROB	0.0	n/a	n/a	n/a	-999	9	[7, 4, 6]	17	catFR1	0	R1668S
-103951.715	104398.299	451710	REC_END	n/a	n/a	n/a	n/a	-999	1	[0, 0, 0]	n/a	catFR1	0	R1668S
446.584	0.0	452474	PROB	0.0	n/a	n/a	n/a	-999	9	[8, 6, 6]	20	catFR1	0	R1668S
-103947.77	104401.146	455654	COUNTDOWN_START	n/a	n/a	n/a	n/a	-999	1	[0, 0, 0]	n/a	catFR1	0	R1668S
453.376	0.0	459266	STOP	n/a	n/a	n/a	n/a	-999	9	[-999, -999, -999]	n/a	catFR1	0	R1668S
453.376	2.333	459271	DISTRACT_END	n/a	n/a	n/a	n/a	-999	9	[0, 0, 0]	n/a	catFR1	0	R1668S
455.709	2.45	461606	REC_START	n/a	n/a	n/a	n/a	-999	9	[0, 0, 0]	n/a	catFR1	0	R1668S
458.159	1.154	464049	REC_WORD_VV	1.154	n/a	<>	n/a	-999	9	[0, 0, 0]	n/a	catFR1	0	R1668S
459.313	0.0	465203	REC_WORD	0.0	n/a	CHEETAH	Zoo	-999	9	[0, 0, 0]	n/a	catFR1	0	R1668S
-103937.427	0.001	465997	COUNTDOWN_END	n/a	n/a	n/a	n/a	-999	1	[0, 0, 0]	n/a	catFR1	0	R1668S
-103937.426	2.284	465997	ENCODING_START	n/a	n/a	n/a	n/a	-999	2	[0, 0, 0]	n/a	catFR1	0	R1668S
-103935.142	104398.676	468284	WORD	n/a	wordpools/wordpool_categorized_EN.txt	COFFEE	Beverages	1	2	[0, 0, 0]	n/a	catFR1	0	R1668S
463.534	0.0	469424	REC_WORD	0.0	n/a	PENCIL	n/a	-999	9	[0, 0, 0]	n/a	catFR1	0	R1668S
-103933.537	0.842	469893	WORD_OFF	n/a	n/a	COFFEE	Beverages	1	2	[0, 0, 0]	n/a	catFR1	0	R1668S
-103932.695	104398.429	470727	WORD	n/a	wordpools/wordpool_categorized_EN.txt	WINE	Beverages	2	2	[0, 0, 0]	n/a	catFR1	0	R1668S
465.734	0.0	471624	REC_WORD	0.0	n/a	PEN	n/a	-999	9	[0, 0, 0]	n/a	catFR1	0	R1668S
-103931.094	0.834	472336	WORD_OFF	n/a	n/a	WINE	Beverages	2	2	[0, 0, 0]	n/a	catFR1	0	R1668S
-103930.26	1.607	473171	WORD	n/a	wordpools/wordpool_categorized_EN.txt	COMPUTER	Electronics	3	2	[0, 0, 0]	n/a	catFR1	0	R1668S
-103928.653	0.984	474768	WORD_OFF	n/a	n/a	COMPUTER	Electronics	3	2	[0, 0, 0]	n/a	catFR1	0	R1668S
-103927.669	104398.549	475760	WORD	n/a	wordpools/wordpool_categorized_EN.txt	HEADPHONES	Electronics	4	2	[0, 0, 0]	n/a	catFR1	0	R1668S
470.88	0.0	476770	REC_WORD_VV	0.0	n/a	<>	n/a	-999	9	[0, 0, 0]	n/a	catFR1	0	R1668S
-103926.062	0.768	477369	WORD_OFF	n/a	n/a	HEADPHONES	Electronics	4	2	[0, 0, 0]	n/a	catFR1	0	R1668S
-103925.294	1.608	478131	WORD	n/a	wordpools/wordpool_categorized_EN.txt	CYPRESS	Trees	5	2	[0, 0, 0]	n/a	catFR1	0	R1668S
-103923.686	0.983	479740	WORD_OFF	n/a	n/a	CYPRESS	Trees	5	2	[0, 0, 0]	n/a	catFR1	0	R1668S
-103922.703	104398.873	480720	WORD	n/a	wordpools/wordpool_categorized_EN.txt	EVERGREEN	Trees	6	2	[0, 0, 0]	n/a	catFR1	0	R1668S
476.17	0.0	482060	REC_WORD	0.0	n/a	ANIMAL	n/a	-999	9	[0, 0, 0]	n/a	catFR1	0	R1668S
-103921.103	0.918	482329	WORD_OFF	n/a	n/a	EVERGREEN	Trees	6	2	[0, 0, 0]	n/a	catFR1	0	R1668S
-103920.185	1.607	483236	WORD	n/a	wordpools/wordpool_categorized_EN.txt	TELEVISION	Electronics	7	2	[0, 0, 0]	n/a	catFR1	0	R1668S
-103918.578	0.883	484845	WORD_OFF	n/a	n/a	TELEVISION	Electronics	7	2	[0, 0, 0]	n/a	catFR1	0	R1668S
-103917.695	1.61	485728	WORD	n/a	wordpools/wordpool_categorized_EN.txt	PHONE	Electronics	8	2	[0, 0, 0]	n/a	catFR1	0	R1668S
-103916.085	0.774	487337	WORD_OFF	n/a	n/a	PHONE	Electronics	8	2	[0, 0, 0]	n/a	catFR1	0	R1668S
-103915.311	1.6	488112	WORD	n/a	wordpools/wordpool_categorized_EN.txt	MILK	Beverages	9	2	[0, 0, 0]	n/a	catFR1	0	R1668S
-103913.711	0.833	489709	WORD_OFF	n/a	n/a	MILK	Beverages	9	2	[0, 0, 0]	n/a	catFR1	0	R1668S
-103912.878	104397.834	490555	WORD	n/a	wordpools/wordpool_categorized_EN.txt	COLA	Beverages	10	2	[0, 0, 0]	n/a	catFR1	0	R1668S
484.956	0.9	490846	REC_WORD_VV	0.9	n/a	<>	n/a	-999	9	[0, 0, 0]	n/a	catFR1	0	R1668S
485.856	0.0	491753	REC_END	n/a	n/a	n/a	n/a	-999	9	[0, 0, 0]	n/a	catFR1	0	R1668S
-103911.27	0.807	492152	WORD_OFF	n/a	n/a	COLA	Beverages	10	2	[0, 0, 0]	n/a	catFR1	0	R1668S
-103910.463	1.601	492963	WORD	n/a	wordpools/wordpool_categorized_EN.txt	SPRUCE	Trees	11	2	[0, 0, 0]	n/a	catFR1	0	R1668S
-103908.862	104398.112	494560	WORD_OFF	n/a	n/a	SPRUCE	Trees	11	2	[0, 0, 0]	n/a	catFR1	0	R1668S
489.25	0.0	495140	COUNTDOWN_START	n/a	n/a	n/a	n/a	-999	9	[0, 0, 0]	n/a	catFR1	0	R1668S
-103907.979	1.601	495443	WORD	n/a	wordpools/wordpool_categorized_EN.txt	PINE	Trees	12	2	[0, 0, 0]	n/a	catFR1	0	R1668S
-103906.378	0.0	497050	PROB	0.0	n/a	n/a	n/a	-999	2	[4, 2, 5]	11	catFR1	0	R1668S
-103906.378	0.008	497052	WORD_OFF	n/a	n/a	PINE	Trees	12	2	[0, 0, 0]	n/a	catFR1	0	R1668S
-103906.37	0.0	497052	ENCODING_END	n/a	n/a	n/a	n/a	-999	2	[0, 0, 0]	n/a	catFR1	0	R1668S
-103906.37	0.0	497052	DISTRACT_START	n/a	n/a	n/a	n/a	-999	2	[0, 0, 0]	n/a	catFR1	0	R1668S
-103906.37	6.492	497058	START	n/a	n/a	n/a	n/a	-999	2	[-999, -999, -999]	n/a	catFR1	0	R1668S
-103899.878	104399.478	503550	PROB	104399.478	n/a	n/a	n/a	-999	2	[5, 7, 3]	15	catFR1	0	R1668S
499.6	0.0	505496	COUNTDOWN_END	n/a	n/a	n/a	n/a	-999	9	[0, 0, 0]	n/a	catFR1	0	R1668S
499.6	2.108	505496	ENCODING_START	n/a	n/a	n/a	n/a	-999	10	[0, 0, 0]	n/a	catFR1	0	R1668S
501.708	1.602	507601	WORD	n/a	wordpools/wordpool_categorized_EN.txt	SANDER	Tools	1	10	[0, 0, 0]	n/a	catFR1	0	R1668S
503.31	0.874	509210	WORD_OFF	n/a	n/a	SANDER	Tools	1	10	[0, 0, 0]	n/a	catFR1	0	R1668S
504.184	0.0	510081	WORD	n/a	wordpools/wordpool_categorized_EN.txt	LEVEL	Tools	2	10	[0, 0, 0]	n/a	catFR1	0	R1668S
-103892.962	104398.746	510466	PROB	104398.746	n/a	n/a	n/a	-999	2	[8, 3, 3]	14	catFR1	0	R1668S
505.784	0.791	511678	WORD_OFF	n/a	n/a	LEVEL	Tools	2	10	[0, 0, 0]	n/a	catFR1	0	R1668S
506.575	1.601	512464	WORD	n/a	wordpools/wordpool_categorized_EN.txt	COFFEE	Beverages	3	10	[0, 0, 0]	n/a	catFR1	0	R1668S
508.176	0.865	514073	WORD_OFF	n/a	n/a	COFFEE	Beverages	3	10	[0, 0, 0]	n/a	catFR1	0	R1668S
509.041	1.6	514932	WORD	n/a	wordpools/wordpool_categorized_EN.txt	RUM	Beverages	4	10	[0, 0, 0]	n/a	catFR1	0	R1668S
510.641	0.876	516529	WORD_OFF	n/a	n/a	RUM	Beverages	4	10	[0, 0, 0]	n/a	catFR1	0	R1668S
511.517	1.607	517412	WORD	n/a	wordpools/wordpool_categorized_EN.txt	CREEK	Landscapes	5	10	[0, 0, 0]	n/a	catFR1	0	R1668S
513.124	0.885	519021	WORD_OFF	n/a	n/a	CREEK	Landscapes	5	10	[0, 0, 0]	n/a	catFR1	0	R1668S
514.009	0.0	519904	WORD	n/a	wordpools/wordpool_categorized_EN.txt	OCEAN	Landscapes	6	10	[0, 0, 0]	n/a	catFR1	0	R1668S
-103882.744	0.0	520678	DISTRACT_END	n/a	n/a	n/a	n/a	-999	2	[0, 0, 0]	n/a	catFR1	0	R1668S
-103882.744	104398.353	520684	STOP	n/a	n/a	n/a	n/a	-999	2	[-999, -999, -999]	n/a	catFR1	0	R1668S
515.609	0.891	521501	WORD_OFF	n/a	n/a	OCEAN	Landscapes	6	10	[0, 0, 0]	n/a	catFR1	0	R1668S
516.5	0.0	522396	WORD	n/a	wordpools/wordpool_categorized_EN.txt	WRENCH	Tools	7	10	[0, 0, 0]	n/a	catFR1	0	R1668S
-103880.703	104398.811	522723	REC_START	n/a	n/a	n/a	n/a	-999	2	[0, 0, 0]	n/a	catFR1	0	R1668S
518.108	0.801	524005	WORD_OFF	n/a	n/a	WRENCH	Tools	7	10	[0, 0, 0]	n/a	catFR1	0	R1668S
518.909	0.0	524803	WORD	n/a	wordpools/wordpool_categorized_EN.txt	HAMMER	Tools	8	10	[0, 0, 0]	n/a	catFR1	0	R1668S
-103878.151	104398.669	525277	REC_WORD	104398.669	n/a	WINE	Beverages	2	2	[0, 0, 0]	n/a	catFR1	0	R1668S
520.518	0.833	526412	WORD_OFF	n/a	n/a	HAMMER	Tools	8	10	[0, 0, 0]	n/a	catFR1	0	R1668S
521.351	0.0	527247	WORD	n/a	wordpools/wordpool_categorized_EN.txt	BEER	Beverages	9	10	[0, 0, 0]	n/a	catFR1	0	R1668S
-103875.997	104398.957	527431	REC_WORD	104398.957	n/a	JUICE	n/a	-999	2	[0, 0, 0]	n/a	catFR1	0	R1668S
522.96	0.974	528856	WORD_OFF	n/a	n/a	BEER	Beverages	9	10	[0, 0, 0]	n/a	catFR1	0	R1668S
523.934	1.608	529824	WORD	n/a	wordpools/wordpool_categorized_EN.txt	WINE	Beverages	10	10	[0, 0, 0]	n/a	catFR1	0	R1668S
525.542	0.891	531433	WORD_OFF	n/a	n/a	WINE	Beverages	10	10	[0, 0, 0]	n/a	catFR1	0	R1668S
526.433	1.601	532328	WORD	n/a	wordpools/wordpool_categorized_EN.txt	HILLS	Landscapes	11	10	[0, 0, 0]	n/a	catFR1	0	R1668S
528.034	0.0	533925	WORD_OFF	n/a	n/a	HILLS	Landscapes	11	10	[0, 0, 0]	n/a	catFR1	0	R1668S
-103868.815	104397.623	534613	REC_WORD	104397.623	n/a	WATERMELON	n/a	-999	2	[0, 0, 0]	n/a	catFR1	0	R1668S
528.808	1.609	534699	WORD	n/a	wordpools/wordpool_categorized_EN.txt	BEACH	Landscapes	12	10	[0, 0, 0]	n/a	catFR1	0	R1668S
530.417	0.002	536308	WORD_OFF	n/a	n/a	BEACH	Landscapes	12	10	[0, 0, 0]	n/a	catFR1	0	R1668S
530.419	0.0	536308	ENCODING_END	n/a	n/a	n/a	n/a	-999	10	[0, 0, 0]	n/a	catFR1	0	R1668S
530.419	0.0	536308	DISTRACT_START	n/a	n/a	n/a	n/a	-999	10	[0, 0, 0]	n/a	catFR1	0	R1668S
530.417	0.002	536308	PROB	0.002	n/a	n/a	n/a	-999	10	[1, 5, 4]	10	catFR1	0	R1668S
530.419	0.0	536310	START	n/a	n/a	n/a	n/a	-999	10	[-999, -999, -999]	n/a	catFR1	0	R1668S
-103863.855	104399.98	539573	REC_WORD	104399.98	n/a	BANANA	Fruit	-999	2	[0, 0, 0]	n/a	catFR1	0	R1668S
536.125	5.616	542016	PROB	5.616	n/a	n/a	n/a	-999	10	[7, 6, 1]	14	catFR1	0	R1668S
541.741	0.0	547632	PROB	0.0	n/a	n/a	n/a	-999	10	[6, 6, 8]	20	catFR1	0	R1668S
-103855.173	4.611	548255	REC_WORD_VV	4.611	n/a	<>	n/a	-999	2	[0, 0, 0]	n/a	catFR1	0	R1668S
-103850.562	104400.049	552858	REC_END	n/a	n/a	n/a	n/a	-999	2	[0, 0, 0]	n/a	catFR1	0	R1668S
549.487	0.0	555378	PROB	0.0	n/a	n/a	n/a	-999	10	[4, 5, 7]	17	catFR1	0	R1668S
-103847.563	104403.337	555858	COUNTDOWN_START	n/a	n/a	n/a	n/a	-999	2	[0, 0, 0]	n/a	catFR1	0	R1668S
555.774	0.0	561665	DISTRACT_END	n/a	n/a	n/a	n/a	-999	10	[0, 0, 0]	n/a	catFR1	0	R1668S
555.774	2.143	561665	STOP	n/a	n/a	n/a	n/a	-999	10	[-999, -999, -999]	n/a	catFR1	0	R1668S
557.917	0.0	563806	REC_START	n/a	n/a	n/a	n/a	-999	10	[0, 0, 0]	n/a	catFR1	0	R1668S
-103837.221	0.0	566201	COUNTDOWN_END	n/a	n/a	n/a	n/a	-999	2	[0, 0, 0]	n/a	catFR1	0	R1668S
-103837.221	2.293	566201	ENCODING_START	n/a	n/a	n/a	n/a	-999	3	[0, 0, 0]	n/a	catFR1	0	R1668S
-103834.928	1.609	568500	WORD	n/a	wordpools/wordpool_categorized_EN.txt	HALLWAY	Building	1	3	[0, 0, 0]	n/a	catFR1	0	R1668S
-103833.319	0.899	570109	WORD_OFF	n/a	n/a	HALLWAY	Building	1	3	[0, 0, 0]	n/a	catFR1	0	R1668S
-103832.42	104398.828	571004	WORD	n/a	wordpools/wordpool_categorized_EN.txt	CEILING	Building	2	3	[0, 0, 0]	n/a	catFR1	0	R1668S
566.408	0.0	572299	REC_WORD	0.0	n/a	MONKEY	Zoo	-999	10	[0, 0, 0]	n/a	catFR1	0	R1668S
-103830.811	0.881	572613	WORD_OFF	n/a	n/a	CEILING	Building	2	3	[0, 0, 0]	n/a	catFR1	0	R1668S
-103829.93	104398.532	573496	WORD	n/a	wordpools/wordpool_categorized_EN.txt	GORILLA	Zoo	3	3	[0, 0, 0]	n/a	catFR1	0	R1668S
568.602	0.0	574493	REC_WORD	0.0	n/a	RUM	Beverages	4	10	[0, 0, 0]	n/a	catFR1	0	R1668S
-103828.329	0.868	575093	WORD_OFF	n/a	n/a	GORILLA	Zoo	3	3	[0, 0, 0]	n/a	catFR1	0	R1668S
-103827.461	1.6	575964	WORD	n/a	wordpools/wordpool_categorized_EN.txt	MONKEY	Zoo	4	3	[0, 0, 0]	n/a	catFR1	0	R1668S
-103825.861	104397.705	577561	WORD_OFF	n/a	n/a	MONKEY	Zoo	4	3	[0, 0, 0]	n/a	catFR1	0	R1668S
571.844	0.0	577735	REC_WORD	0.0	n/a	DRINK	n/a	-999	10	[0, 0, 0]	n/a	catFR1	0	R1668S
-103825.069	1.608	578359	WORD	n/a	wordpools/wordpool_categorized_EN.txt	CROWBAR	Tools	5	3	[0, 0, 0]	n/a	catFR1	0	R1668S
-103823.461	0.9	579968	WORD_OFF	n/a	n/a	CROWBAR	Tools	5	3	[0, 0, 0]	n/a	catFR1	0	R1668S
-103822.561	1.599	580863	WORD	n/a	wordpools/wordpool_categorized_EN.txt	SAW	Tools	6	3	[0, 0, 0]	n/a	catFR1	0	R1668S
-103820.962	0.866	582460	WORD_OFF	n/a	n/a	SAW	Tools	6	3	[0, 0, 0]	n/a	catFR1	0	R1668S
-103820.096	1.601	583331	WORD	n/a	wordpools/wordpool_categorized_EN.txt	ORANGUTAN	Zoo	7	3	[0, 0, 0]	n/a	catFR1	0	R1668S
-103818.495	0.934	584928	WORD_OFF	n/a	n/a	ORANGUTAN	Zoo	7	3	[0, 0, 0]	n/a	catFR1	0	R1668S
-103817.561	1.607	585860	WORD	n/a	wordpools/wordpool_categorized_EN.txt	ELEPHANT	Zoo	8	3	[0, 0, 0]	n/a	catFR1	0	R1668S
-103815.954	0.993	587469	WORD_OFF	n/a	n/a	ELEPHANT	Zoo	8	3	[0, 0, 0]	n/a	catFR1	0	R1668S
-103814.961	104398.0	588461	WORD	n/a	wordpools/wordpool_categorized_EN.txt	PLIERS	Tools	9	3	[0, 0, 0]	n/a	catFR1	0	R1668S
583.039	0.0	588930	REC_WORD	0.0	n/a	BOOTS	n/a	-999	10	[0, 0, 0]	n/a	catFR1	0	R1668S
-103813.36	0.924	590070	WORD_OFF	n/a	n/a	PLIERS	Tools	9	3	[0, 0, 0]	n/a	catFR1	0	R1668S
-103812.436	1.6	590989	WORD	n/a	wordpools/wordpool_categorized_EN.txt	DRILL	Tools	10	3	[0, 0, 0]	n/a	catFR1	0	R1668S
-103810.836	0.916	592594	WORD_OFF	n/a	n/a	DRILL	Tools	10	3	[0, 0, 0]	n/a	catFR1	0	R1668S
-103809.92	104397.985	593505	WORD	n/a	wordpools/wordpool_categorized_EN.txt	ROOF	Building	11	3	[0, 0, 0]	n/a	catFR1	0	R1668S
588.065	0.0	593953	REC_END	n/a	n/a	n/a	n/a	-999	10	[0, 0, 0]	n/a	catFR1	0	R1668S
-103808.309	0.956	595114	WORD_OFF	n/a	n/a	ROOF	Building	11	3	[0, 0, 0]	n/a	catFR1	0	R1668S
-103807.353	1.608	596070	WORD	n/a	wordpools/wordpool_categorized_EN.txt	ATTIC	Building	12	3	[0, 0, 0]	n/a	catFR1	0	R1668S
-103805.745	0.003	597679	WORD_OFF	n/a	n/a	ATTIC	Building	12	3	[0, 0, 0]	n/a	catFR1	0	R1668S
-103805.742	0.0	597679	ENCODING_END	n/a	n/a	n/a	n/a	-999	3	[0, 0, 0]	n/a	catFR1	0	R1668S
-103805.742	0.0	597679	DISTRACT_START	n/a	n/a	n/a	n/a	-999	3	[0, 0, 0]	n/a	catFR1	0	R1668S
-103805.746	0.004	597682	PROB	0.004	n/a	n/a	n/a	-999	3	[8, 5, 4]	17	catFR1	0	R1668S
-103805.742	104397.691	597686	START	n/a	n/a	n/a	n/a	-999	3	[-999, -999, -999]	n/a	catFR1	0	R1668S
591.949	0.0	597848	COUNTDOWN_START	n/a	n/a	n/a	n/a	-999	10	[0, 0, 0]	n/a	catFR1	0	R1668S
-103797.871	104400.161	605557	PROB	104400.161	n/a	n/a	n/a	-999	3	[7, 1, 1]	9	catFR1	0	R1668S
602.29	0.0	608180	COUNTDOWN_END	n/a	n/a	n/a	n/a	-999	10	[0, 0, 0]	n/a	catFR1	0	R1668S
602.29	0.0	608180	ENCODING_START	n/a	n/a	n/a	n/a	-999	11	[0, 0, 0]	n/a	catFR1	0	R1668S
-103794.535	104399.159	608893	PROB	104399.159	n/a	n/a	n/a	-999	3	[6, 3, 1]	10	catFR1	0	R1668S
604.624	1.609	610515	WORD	n/a	wordpools/wordpool_categorized_EN.txt	CROWBAR	Tools	1	11	[0, 0, 0]	n/a	catFR1	0	R1668S
606.233	0.925	612124	WORD_OFF	n/a	n/a	CROWBAR	Tools	1	11	[0, 0, 0]	n/a	catFR1	0	R1668S
607.158	0.0	613055	WORD	n/a	wordpools/wordpool_categorized_EN.txt	DRILL	Tools	2	11	[0, 0, 0]	n/a	catFR1	0	R1668S
-103789.253	104398.02	614175	PROB	104398.02	n/a	n/a	n/a	-999	3	[2, 4, 5]	11	catFR1	0	R1668S
608.767	0.941	614664	WORD_OFF	n/a	n/a	DRILL	Tools	2	11	[0, 0, 0]	n/a	catFR1	0	R1668S
609.708	1.609	615596	WORD	n/a	wordpools/wordpool_categorized_EN.txt	CAR	Vehicles	3	11	[0, 0, 0]	n/a	catFR1	0	R1668S
611.317	0.891	617217	WORD_OFF	n/a	n/a	CAR	Vehicles	3	11	[0, 0, 0]	n/a	catFR1	0	R1668S
612.208	1.609	618100	WORD	n/a	wordpools/wordpool_categorized_EN.txt	BIKE	Vehicles	4	11	[0, 0, 0]	n/a	catFR1	0	R1668S
613.817	0.758	619709	WORD_OFF	n/a	n/a	BIKE	Vehicles	4	11	[0, 0, 0]	n/a	catFR1	0	R1668S
614.575	0.0	620471	WORD	n/a	wordpools/wordpool_categorized_EN.txt	COBBLER	Desserts	5	11	[0, 0, 0]	n/a	catFR1	0	R1668S
-103782.804	0.0	620624	STOP	n/a	n/a	n/a	n/a	-999	3	[-999, -999, -999]	n/a	catFR1	0	R1668S
-103782.804	104398.979	620628	DISTRACT_END	n/a	n/a	n/a	n/a	-999	3	[0, 0, 0]	n/a	catFR1	0	R1668S
616.175	0.0	622068	WORD_OFF	n/a	n/a	COBBLER	Desserts	5	11	[0, 0, 0]	n/a	catFR1	0	R1668S
-103780.505	104397.605	622915	REC_START	n/a	n/a	n/a	n/a	-999	3	[0, 0, 0]	n/a	catFR1	0	R1668S
617.1	1.608	622999	WORD	n/a	wordpools/wordpool_categorized_EN.txt	CUPCAKE	Desserts	6	11	[0, 0, 0]	n/a	catFR1	0	R1668S
618.708	0.8	624596	WORD_OFF	n/a	n/a	CUPCAKE	Desserts	6	11	[0, 0, 0]	n/a	catFR1	0	R1668S
619.508	0.0	625407	WORD	n/a	wordpools/wordpool_categorized_EN.txt	SCOOTER	Vehicles	7	11	[0, 0, 0]	n/a	catFR1	0	R1668S
-103776.96	104398.069	626468	REC_WORD	104398.069	n/a	GORILLA	Zoo	3	3	[0, 0, 0]	n/a	catFR1	0	R1668S
621.109	0.0	627004	WORD_OFF	n/a	n/a	SCOOTER	Vehicles	7	11	[0, 0, 0]	n/a	catFR1	0	R1668S
-103775.721	104397.829	627707	REC_WORD	104397.829	n/a	MONKEY	Zoo	4	3	[0, 0, 0]	n/a	catFR1	0	R1668S
622.108	1.599	627996	WORD	n/a	wordpools/wordpool_categorized_EN.txt	MOPED	Vehicles	8	11	[0, 0, 0]	n/a	catFR1	0	R1668S
623.707	0.843	629604	WORD_OFF	n/a	n/a	MOPED	Vehicles	8	11	[0, 0, 0]	n/a	catFR1	0	R1668S
624.55	1.6	630439	WORD	n/a	wordpools/wordpool_categorized_EN.txt	AXE	Tools	9	11	[0, 0, 0]	n/a	catFR1	0	R1668S
626.15	0.883	632048	WORD_OFF	n/a	n/a	AXE	Tools	9	11	[0, 0, 0]	n/a	catFR1	0	R1668S
627.033	0.0	632931	WORD	n/a	wordpools/wordpool_categorized_EN.txt	SHOVEL	Tools	10	11	[0, 0, 0]	n/a	catFR1	0	R1668S
-103770.372	104399.006	633056	REC_WORD	104399.006	n/a	CLUE	n/a	-999	3	[0, 0, 0]	n/a	catFR1	0	R1668S
628.634	1.001	634528	WORD_OFF	n/a	n/a	SHOVEL	Tools	10	11	[0, 0, 0]	n/a	catFR1	0	R1668S
629.635	0.0	635532	WORD	n/a	wordpools/wordpool_categorized_EN.txt	JELLO	Desserts	11	11	[0, 0, 0]	n/a	catFR1	0	R1668S
-103766.832	104398.074	636596	REC_WORD	104398.074	n/a	EVERGREEN	Trees	-999	3	[0, 0, 0]	n/a	catFR1	0	R1668S
631.242	0.948	637129	WORD_OFF	n/a	n/a	JELLO	Desserts	11	11	[0, 0, 0]	n/a	catFR1	0	R1668S
632.19	1.601	638085	WORD	n/a	wordpools/wordpool_categorized_EN.txt	PIE	Desserts	12	11	[0, 0, 0]	n/a	catFR1	0	R1668S
633.791	0.002	639682	WORD_OFF	n/a	n/a	PIE	Desserts	12	11	[0, 0, 0]	n/a	catFR1	0	R1668S
633.793	0.0	639682	ENCODING_END	n/a	n/a	n/a	n/a	-999	11	[0, 0, 0]	n/a	catFR1	0	R1668S
633.791	0.002	639682	PROB	0.002	n/a	n/a	n/a	-999	11	[7, 7, 8]	22	catFR1	0	R1668S
633.793	0.0	639684	START	n/a	n/a	n/a	n/a	-999	11	[-999, -999, -999]	n/a	catFR1	0	R1668S
633.793	9.79	639694	DISTRACT_START	n/a	n/a	n/a	n/a	-999	11	[0, 0, 0]	n/a	catFR1	0	R1668S
643.583	0.0	649474	PROB	0.0	n/a	n/a	n/a	-999	11	[7, 7, 8]	22	catFR1	0	R1668S
-103750.37	104401.737	653050	REC_END	n/a	n/a	n/a	n/a	-999	3	[0, 0, 0]	n/a	catFR1	0	R1668S
651.367	6.849	657258	PROB	6.849	n/a	n/a	n/a	-999	11	[6, 2, 5]	13	catFR1	0	R1668S
658.216	0.0	664107	DISTRACT_END	n/a	n/a	n/a	n/a	-999	11	[0, 0, 0]	n/a	catFR1	0	R1668S
658.216	2.116	664107	STOP	n/a	n/a	n/a	n/a	-999	11	[-999, -999, -999]	n/a	catFR1	0	R1668S
660.332	7.876	666224	REC_START	n/a	n/a	n/a	n/a	-999	11	[0, 0, 0]	n/a	catFR1	0	R1668S
668.208	0.61	674099	REC_WORD	0.61	n/a	MONKEY	Zoo	-999	11	[0, 0, 0]	n/a	catFR1	0	R1668S
668.818	2.72	674709	REC_WORD	2.72	n/a	SCREWDRIVER	Tools	-999	11	[0, 0, 0]	n/a	catFR1	0	R1668S
671.538	18.936	677429	REC_WORD	18.936	n/a	MIRROR	n/a	-999	11	[0, 0, 0]	n/a	catFR1	0	R1668S
690.474	2.193	696371	REC_END	n/a	n/a	n/a	n/a	-999	11	[0, 0, 0]	n/a	catFR1	0	R1668S
692.667	10.344	698561	COUNTDOWN_START	n/a	n/a	n/a	n/a	-999	11	[0, 0, 0]	n/a	catFR1	0	R1668S
703.011	0.0	708904	COUNTDOWN_END	n/a	n/a	n/a	n/a	-999	11	[0, 0, 0]	n/a	catFR1	0	R1668S
703.011	1.972	708904	ENCODING_START	n/a	n/a	n/a	n/a	-999	12	[0, 0, 0]	n/a	catFR1	0	R1668S
704.983	1.601	710876	WORD	n/a	wordpools/wordpool_categorized_EN.txt	BLOCKS	Toys	1	12	[0, 0, 0]	n/a	catFR1	0	R1668S
706.584	0.0	712485	WORD_OFF	n/a	n/a	BLOCKS	Toys	1	12	[0, 0, 0]	n/a	catFR1	0	R1668S
-103690.888	104398.273	712545	COUNTDOWN_START	n/a	n/a	n/a	n/a	-999	3	[0, 0, 0]	n/a	catFR1	0	R1668S
707.385	1.605	713283	WORD	n/a	wordpools/wordpool_categorized_EN.txt	BASKETBALL	Toys	2	12	[0, 0, 0]	n/a	catFR1	0	R1668S
708.99	0.884	714880	WORD_OFF	n/a	n/a	BASKETBALL	Toys	2	12	[0, 0, 0]	n/a	catFR1	0	R1668S
709.874	1.602	715763	WORD	n/a	wordpools/wordpool_categorized_EN.txt	LILY	Flowers	3	12	[0, 0, 0]	n/a	catFR1	0	R1668S
711.476	0.908	717372	WORD_OFF	n/a	n/a	LILY	Flowers	3	12	[0, 0, 0]	n/a	catFR1	0	R1668S
712.384	1.606	718280	WORD	n/a	wordpools/wordpool_categorized_EN.txt	CARNATION	Flowers	4	12	[0, 0, 0]	n/a	catFR1	0	R1668S
713.99	0.992	719889	WORD_OFF	n/a	n/a	CARNATION	Flowers	4	12	[0, 0, 0]	n/a	catFR1	0	R1668S
714.982	1.61	720881	WORD	n/a	wordpools/wordpool_categorized_EN.txt	POTATO	Vegetables	5	12	[0, 0, 0]	n/a	catFR1	0	R1668S
716.592	0.0	722489	WORD_OFF	n/a	n/a	POTATO	Vegetables	5	12	[0, 0, 0]	n/a	catFR1	0	R1668S
-103680.547	0.0	722877	COUNTDOWN_END	n/a	n/a	n/a	n/a	-999	3	[0, 0, 0]	n/a	catFR1	0	R1668S
-103680.547	104398.005	722877	ENCODING_START	n/a	n/a	n/a	n/a	-999	4	[0, 0, 0]	n/a	catFR1	0	R1668S
717.458	0.0	723348	WORD	n/a	wordpools/wordpool_categorized_EN.txt	BROCCOLI	Vegetables	6	12	[0, 0, 0]	n/a	catFR1	0	R1668S
-103678.537	104397.596	724885	WORD	n/a	wordpools/wordpool_categorized_EN.txt	FISH	OceanAnimals	1	4	[0, 0, 0]	n/a	catFR1	0	R1668S
719.059	0.915	724957	WORD_OFF	n/a	n/a	BROCCOLI	Vegetables	6	12	[0, 0, 0]	n/a	catFR1	0	R1668S
719.974	0.0	725865	WORD	n/a	wordpools/wordpool_categorized_EN.txt	PETUNIA	Flowers	7	12	[0, 0, 0]	n/a	catFR1	0	R1668S
-103676.93	0.967	726494	WORD_OFF	n/a	n/a	FISH	OceanAnimals	1	4	[0, 0, 0]	n/a	catFR1	0	R1668S
-103675.963	104397.538	727462	WORD	n/a	wordpools/wordpool_categorized_EN.txt	WHALE	OceanAnimals	2	4	[0, 0, 0]	n/a	catFR1	0	R1668S
721.575	0.941	727474	WORD_OFF	n/a	n/a	PETUNIA	Flowers	7	12	[0, 0, 0]	n/a	catFR1	0	R1668S
722.516	0.0	728417	WORD	n/a	wordpools/wordpool_categorized_EN.txt	MARIGOLD	Flowers	8	12	[0, 0, 0]	n/a	catFR1	0	R1668S
-103674.362	0.81	729071	WORD_OFF	n/a	n/a	WHALE	OceanAnimals	2	4	[0, 0, 0]	n/a	catFR1	0	R1668S
-103673.552	104397.668	729869	WORD	n/a	wordpools/wordpool_categorized_EN.txt	VALLEY	Landscapes	3	4	[0, 0, 0]	n/a	catFR1	0	R1668S
724.116	0.759	730014	WORD_OFF	n/a	n/a	MARIGOLD	Flowers	8	12	[0, 0, 0]	n/a	catFR1	0	R1668S
724.875	0.0	730764	WORD	n/a	wordpools/wordpool_categorized_EN.txt	FOOTBALL	Toys	9	12	[0, 0, 0]	n/a	catFR1	0	R1668S
-103671.947	104398.43	731478	WORD_OFF	n/a	n/a	VALLEY	Landscapes	3	4	[0, 0, 0]	n/a	catFR1	0	R1668S
726.483	0.0	732373	WORD_OFF	n/a	n/a	FOOTBALL	Toys	9	12	[0, 0, 0]	n/a	catFR1	0	R1668S
-103671.037	104398.487	732385	WORD	n/a	wordpools/wordpool_categorized_EN.txt	HILLS	Landscapes	4	4	[0, 0, 0]	n/a	catFR1	0	R1668S
727.45	0.0	733341	WORD	n/a	wordpools/wordpool_categorized_EN.txt	PUZZLE	Toys	10	12	[0, 0, 0]	n/a	catFR1	0	R1668S
-103669.427	0.772	733994	WORD_OFF	n/a	n/a	HILLS	Landscapes	4	4	[0, 0, 0]	n/a	catFR1	0	R1668S
-103668.655	104397.705	734768	WORD	n/a	wordpools/wordpool_categorized_EN.txt	JUICE	Beverages	5	4	[0, 0, 0]	n/a	catFR1	0	R1668S
729.05	0.999	734938	WORD_OFF	n/a	n/a	PUZZLE	Toys	10	12	[0, 0, 0]	n/a	catFR1	0	R1668S
730.049	0.0	735942	WORD	n/a	wordpools/wordpool_categorized_EN.txt	PEAS	Vegetables	11	12	[0, 0, 0]	n/a	catFR1	0	R1668S
-103667.054	0.833	736365	WORD_OFF	n/a	n/a	JUICE	Beverages	5	4	[0, 0, 0]	n/a	catFR1	0	R1668S
-103666.221	104397.87	737200	WORD	n/a	wordpools/wordpool_categorized_EN.txt	RUM	Beverages	6	4	[0, 0, 0]	n/a	catFR1	0	R1668S
731.649	0.942	737539	WORD_OFF	n/a	n/a	PEAS	Vegetables	11	12	[0, 0, 0]	n/a	catFR1	0	R1668S
732.591	0.0	738482	WORD	n/a	wordpools/wordpool_categorized_EN.txt	LETTUCE	Vegetables	12	12	[0, 0, 0]	n/a	catFR1	0	R1668S
-103664.621	1.002	738809	WORD_OFF	n/a	n/a	RUM	Beverages	6	4	[0, 0, 0]	n/a	catFR1	0	R1668S
-103663.619	104397.811	739813	WORD	n/a	wordpools/wordpool_categorized_EN.txt	STREAM	Landscapes	7	4	[0, 0, 0]	n/a	catFR1	0	R1668S
734.192	0.002	740083	PROB	0.002	n/a	n/a	n/a	-999	12	[7, 4, 2]	13	catFR1	0	R1668S
734.194	0.0	740085	START	n/a	n/a	n/a	n/a	-999	12	[-999, -999, -999]	n/a	catFR1	0	R1668S
734.191	0.003	740091	WORD_OFF	n/a	n/a	LETTUCE	Vegetables	12	12	[0, 0, 0]	n/a	catFR1	0	R1668S
734.194	0.0	740091	ENCODING_END	n/a	n/a	n/a	n/a	-999	12	[0, 0, 0]	n/a	catFR1	0	R1668S
734.194	0.0	740091	DISTRACT_START	n/a	n/a	n/a	n/a	-999	12	[0, 0, 0]	n/a	catFR1	0	R1668S
-103662.011	0.96	741410	WORD_OFF	n/a	n/a	STREAM	Landscapes	7	4	[0, 0, 0]	n/a	catFR1	0	R1668S
-103661.051	1.604	742378	WORD	n/a	wordpools/wordpool_categorized_EN.txt	OCEAN	Landscapes	8	4	[0, 0, 0]	n/a	catFR1	0	R1668S
-103659.447	0.801	743975	WORD_OFF	n/a	n/a	OCEAN	Landscapes	8	4	[0, 0, 0]	n/a	catFR1	0	R1668S
-103658.646	1.602	744785	WORD	n/a	wordpools/wordpool_categorized_EN.txt	SODA	Beverages	9	4	[0, 0, 0]	n/a	catFR1	0	R1668S
-103657.044	0.781	746382	WORD_OFF	n/a	n/a	SODA	Beverages	9	4	[0, 0, 0]	n/a	catFR1	0	R1668S
-103656.263	104397.954	747168	WORD	n/a	wordpools/wordpool_categorized_EN.txt	LEMONADE	Beverages	10	4	[0, 0, 0]	n/a	catFR1	0	R1668S
741.691	0.0	747582	PROB	0.0	n/a	n/a	n/a	-999	12	[2, 5, 3]	10	catFR1	0	R1668S
-103654.662	0.842	748765	WORD_OFF	n/a	n/a	LEMONADE	Beverages	10	4	[0, 0, 0]	n/a	catFR1	0	R1668S
-103653.82	1.6	749600	WORD	n/a	wordpools/wordpool_categorized_EN.txt	CRAB	OceanAnimals	11	4	[0, 0, 0]	n/a	catFR1	0	R1668S
-103652.22	0.99	751209	WORD_OFF	n/a	n/a	CRAB	OceanAnimals	11	4	[0, 0, 0]	n/a	catFR1	0	R1668S
-103651.23	104397.754	752189	WORD	n/a	wordpools/wordpool_categorized_EN.txt	SHRIMP	OceanAnimals	12	4	[0, 0, 0]	n/a	catFR1	0	R1668S
746.524	0.0	752415	PROB	0.0	n/a	n/a	n/a	-999	12	[1, 4, 7]	12	catFR1	0	R1668S
-103649.63	0.002	753798	WORD_OFF	n/a	n/a	SHRIMP	OceanAnimals	12	4	[0, 0, 0]	n/a	catFR1	0	R1668S
-103649.628	0.0	753798	ENCODING_END	n/a	n/a	n/a	n/a	-999	4	[0, 0, 0]	n/a	catFR1	0	R1668S
-103649.628	0.0	753798	DISTRACT_START	n/a	n/a	n/a	n/a	-999	4	[0, 0, 0]	n/a	catFR1	0	R1668S
-103649.629	0.001	753799	PROB	0.001	n/a	n/a	n/a	-999	4	[2, 6, 2]	10	catFR1	0	R1668S
-103649.628	104401.187	753800	START	n/a	n/a	n/a	n/a	-999	4	[-999, -999, -999]	n/a	catFR1	0	R1668S
751.559	2.757	757450	PROB	2.757	n/a	n/a	n/a	-999	12	[1, 1, 6]	8	catFR1	0	R1668S
754.316	0.0	760207	STOP	n/a	n/a	n/a	n/a	-999	12	[-999, -999, -999]	n/a	catFR1	0	R1668S
754.316	0.0	760210	DISTRACT_END	n/a	n/a	n/a	n/a	-999	12	[0, 0, 0]	n/a	catFR1	0	R1668S
-103642.438	104399.053	760990	PROB	104399.053	n/a	n/a	n/a	-999	4	[7, 8, 3]	18	catFR1	0	R1668S
756.615	0.0	762508	REC_START	n/a	n/a	n/a	n/a	-999	12	[0, 0, 0]	n/a	catFR1	0	R1668S
-103634.022	3.243	769406	PROB	3.243	n/a	n/a	n/a	-999	4	[2, 7, 2]	11	catFR1	0	R1668S
-103630.779	3.382	772649	PROB	3.382	n/a	n/a	n/a	-999	4	[6, 2, 1]	9	catFR1	0	R1668S
-103627.397	0.0	776031	STOP	n/a	n/a	n/a	n/a	-999	4	[-999, -999, -999]	n/a	catFR1	0	R1668S
-103627.397	2.067	776033	DISTRACT_END	n/a	n/a	n/a	n/a	-999	4	[0, 0, 0]	n/a	catFR1	0	R1668S
-103625.33	3.519	778090	REC_START	n/a	n/a	n/a	n/a	-999	4	[0, 0, 0]	n/a	catFR1	0	R1668S
-103621.811	1.092	781617	REC_WORD	1.092	n/a	OCEAN	Landscapes	8	4	[0, 0, 0]	n/a	catFR1	0	R1668S
-103620.719	104399.342	782709	REC_WORD	104399.342	n/a	SHRIMP	OceanAnimals	12	4	[0, 0, 0]	n/a	catFR1	0	R1668S
778.623	0.0	784514	REC_WORD_VV	0.0	n/a	<>	n/a	-999	12	[0, 0, 0]	n/a	catFR1	0	R1668S
-103618.899	104398.522	784529	REC_WORD	104398.522	n/a	FISH	OceanAnimals	1	4	[0, 0, 0]	n/a	catFR1	0	R1668S
779.623	2.129	785514	REC_WORD_VV	2.129	n/a	<>	n/a	-999	12	[0, 0, 0]	n/a	catFR1	0	R1668S
781.752	0.0	787643	REC_WORD_VV	0.0	n/a	<>	n/a	-999	12	[0, 0, 0]	n/a	catFR1	0	R1668S
-103615.534	104398.286	787894	REC_WORD	104398.286	n/a	WHALE	OceanAnimals	2	4	[0, 0, 0]	n/a	catFR1	0	R1668S
782.752	1.328	788643	REC_WORD_VV	1.328	n/a	<>	n/a	-999	12	[0, 0, 0]	n/a	catFR1	0	R1668S
784.08	1.0	789971	REC_WORD_VV	1.0	n/a	<>	n/a	-999	12	[0, 0, 0]	n/a	catFR1	0	R1668S
785.08	1.679	790971	REC_WORD_VV	1.679	n/a	<>	n/a	-999	12	[0, 0, 0]	n/a	catFR1	0	R1668S
786.759	0.0	792655	REC_END	n/a	n/a	n/a	n/a	-999	12	[0, 0, 0]	n/a	catFR1	0	R1668S
-103598.518	1.0	804910	REC_WORD_VV	1.0	n/a	<>	n/a	-999	4	[0, 0, 0]	n/a	catFR1	0	R1668S
-103597.518	1.0	805910	REC_WORD_VV	1.0	n/a	<>	n/a	-999	4	[0, 0, 0]	n/a	catFR1	0	R1668S
-103596.518	1.33	806910	REC_WORD_VV	1.33	n/a	<>	n/a	-999	4	[0, 0, 0]	n/a	catFR1	0	R1668S
-103595.188	0.0	808237	REC_END	n/a	n/a	n/a	n/a	-999	4	[0, 0, 0]	n/a	catFR1	0	R1668S
