onset	duration	sample	trial_type	response_time	stim_file	item_name	category	serialpos	list	test	answer	experiment	session	subject
0.0	1.266	111592	INSTRUCT_START	n/a	n/a	n/a	n/a	-999	-999	[0, 0, 0]	n/a	catFR1	1	R1505J
1.266	26.102	112851	INSTRUCT_END	n/a	n/a	n/a	n/a	-999	-999	[0, 0, 0]	n/a	catFR1	1	R1505J
27.368	10.0	138954	COUNTDOWN_START	n/a	n/a	n/a	n/a	-999	-999	[0, 0, 0]	n/a	catFR1	1	R1505J
37.718	0.0	149303	COUNTDOWN_END	n/a	n/a	n/a	n/a	-999	-999	[0, 0, 0]	n/a	catFR1	1	R1505J
37.718	2.2	149303	ENCODING_START	n/a	n/a	n/a	n/a	-999	-1	[0, 0, 0]	n/a	catFR1	1	R1505J
39.918	1.6	151509	WORD	n/a	n/a	GUITAR	Instruments	1	-1	[0, 0, 0]	n/a	catFR1	1	R1505J
41.534	0.883	153123	WORD_OFF	n/a	n/a	GUITAR	Instruments	1	-1	[0, 0, 0]	n/a	catFR1	1	R1505J
42.417	1.6	154011	WORD	n/a	n/a	TRUMPET	Instruments	2	-1	[0, 0, 0]	n/a	catFR1	1	R1505J
44.034	0.95	155625	WORD_OFF	n/a	n/a	TRUMPET	Instruments	2	-1	[0, 0, 0]	n/a	catFR1	1	R1505J
44.984	1.6	156573	WORD	n/a	n/a	DAFFODIL	Flowers	3	-1	[0, 0, 0]	n/a	catFR1	1	R1505J
46.6	0.765	158187	WORD_OFF	n/a	n/a	DAFFODIL	Flowers	3	-1	[0, 0, 0]	n/a	catFR1	1	R1505J
47.365	1.6	158956	WORD	n/a	n/a	LILY	Flowers	4	-1	[0, 0, 0]	n/a	catFR1	1	R1505J
48.967	0.783	160555	WORD_OFF	n/a	n/a	LILY	Flowers	4	-1	[0, 0, 0]	n/a	catFR1	1	R1505J
49.75	1.6	161340	WORD	n/a	n/a	BLENDER	Appliances	5	-1	[0, 0, 0]	n/a	catFR1	1	R1505J
51.367	0.831	162954	WORD_OFF	n/a	n/a	BLENDER	Appliances	5	-1	[0, 0, 0]	n/a	catFR1	1	R1505J
52.198	1.6	163783	WORD	n/a	n/a	MIXER	Appliances	6	-1	[0, 0, 0]	n/a	catFR1	1	R1505J
53.798	0.785	165382	WORD_OFF	n/a	n/a	MIXER	Appliances	6	-1	[0, 0, 0]	n/a	catFR1	1	R1505J
54.583	1.6	166167	WORD	n/a	n/a	PIANO	Instruments	7	-1	[0, 0, 0]	n/a	catFR1	1	R1505J
56.199	0.834	167781	WORD_OFF	n/a	n/a	PIANO	Instruments	7	-1	[0, 0, 0]	n/a	catFR1	1	R1505J
57.033	1.6	168625	WORD	n/a	n/a	BANJO	Instruments	8	-1	[0, 0, 0]	n/a	catFR1	1	R1505J
58.65	0.882	170239	WORD_OFF	n/a	n/a	BANJO	Instruments	8	-1	[0, 0, 0]	n/a	catFR1	1	R1505J
59.532	1.6	171127	WORD	n/a	n/a	VIOLET	Flowers	9	-1	[0, 0, 0]	n/a	catFR1	1	R1505J
61.133	0.833	172726	WORD_OFF	n/a	n/a	VIOLET	Flowers	9	-1	[0, 0, 0]	n/a	catFR1	1	R1505J
61.966	1.6	173555	WORD	n/a	n/a	PETUNIA	Flowers	10	-1	[0, 0, 0]	n/a	catFR1	1	R1505J
63.583	0.899	175169	WORD_OFF	n/a	n/a	PETUNIA	Flowers	10	-1	[0, 0, 0]	n/a	catFR1	1	R1505J
64.482	1.6	176072	WORD	n/a	n/a	WASHER	Appliances	11	-1	[0, 0, 0]	n/a	catFR1	1	R1505J
66.099	0.883	177686	WORD_OFF	n/a	n/a	WASHER	Appliances	11	-1	[0, 0, 0]	n/a	catFR1	1	R1505J
66.982	1.6	178574	WORD	n/a	n/a	DISHWASHER	Appliances	12	-1	[0, 0, 0]	n/a	catFR1	1	R1505J
68.584	0.0	180172	PROB	8.115	n/a	n/a	n/a	-999	-1	[3, 1, 5]	9.0	catFR1	1	R1505J
68.583	0.002	180173	WORD_OFF	n/a	n/a	DISHWASHER	Appliances	12	-1	[0, 0, 0]	n/a	catFR1	1	R1505J
68.585	0.0	180173	ENCODING_END	n/a	n/a	n/a	n/a	-999	-1	[0, 0, 0]	n/a	catFR1	1	R1505J
68.585	0.0	180173	DISTRACT_START	n/a	n/a	n/a	n/a	-999	-1	[0, 0, 0]	n/a	catFR1	1	R1505J
68.585	8.131	180173	START	n/a	n/a	n/a	n/a	-999	-1	[-999, -999, -999]	n/a	catFR1	1	R1505J
76.716	11.466	188304	PROB	11.449	n/a	n/a	n/a	-999	-1	[8, 8, 6]	22.0	catFR1	1	R1505J
88.182	6.4	199769	PROB	6.384	n/a	n/a	n/a	-999	-1	[2, 4, 4]	10.0	catFR1	1	R1505J
94.582	0.0	206169	STOP	n/a	n/a	n/a	n/a	-999	-1	[-999, -999, -999]	n/a	catFR1	1	R1505J
94.582	2.018	206173	DISTRACT_END	n/a	n/a	n/a	n/a	-999	-1	[0, 0, 0]	n/a	catFR1	1	R1505J
96.6	1.482	208179	REC_START	n/a	n/a	n/a	n/a	-999	-1	[0, 0, 0]	n/a	catFR1	1	R1505J
98.082	1.439	209669	REC_WORD	1.482	n/a	WASHER	Appliances	11	-1	[0, 0, 0]	n/a	catFR1	1	R1505J
99.521	1.71	211108	REC_WORD	2.921	n/a	DISHWASHER	Appliances	12	-1	[0, 0, 0]	n/a	catFR1	1	R1505J
101.231	2.257	212818	REC_WORD	4.631	n/a	VIOLA	n/a	-999	-1	[0, 0, 0]	n/a	catFR1	1	R1505J
103.488	10.829	215075	REC_WORD	6.888	n/a	VIOLET	Flowers	9	-1	[0, 0, 0]	n/a	catFR1	1	R1505J
114.317	12.476	225903	REC_WORD	17.717	n/a	MICROPHONE	n/a	-999	-1	[0, 0, 0]	n/a	catFR1	1	R1505J
126.793	12.208	238376	REC_END	n/a	n/a	n/a	n/a	-999	-1	[0, 0, 0]	n/a	catFR1	1	R1505J
139.001	10.0	250590	COUNTDOWN_START	n/a	n/a	n/a	n/a	-999	1	[0, 0, 0]	n/a	catFR1	1	R1505J
149.35	0.0	260940	COUNTDOWN_END	n/a	n/a	n/a	n/a	-999	1	[0, 0, 0]	n/a	catFR1	1	R1505J
149.35	2.048	260940	ENCODING_START	n/a	n/a	n/a	n/a	-999	1	[0, 0, 0]	n/a	catFR1	1	R1505J
151.398	1.6	262983	WORD	n/a	wordpools/wordpool_categorized_EN.txt	BLUEBIRD	Birds	1	1	[0, 0, 0]	n/a	catFR1	1	R1505J
153.0	0.883	264582	WORD_OFF	n/a	n/a	BLUEBIRD	Birds	1	1	[0, 0, 0]	n/a	catFR1	1	R1505J
153.883	1.6	265470	WORD	n/a	wordpools/wordpool_categorized_EN.txt	ROBIN	Birds	2	1	[0, 0, 0]	n/a	catFR1	1	R1505J
155.483	0.784	267069	WORD_OFF	n/a	n/a	ROBIN	Birds	2	1	[0, 0, 0]	n/a	catFR1	1	R1505J
156.267	1.6	267854	WORD	n/a	wordpools/wordpool_categorized_EN.txt	ORANGUTAN	Zoo	3	1	[0, 0, 0]	n/a	catFR1	1	R1505J
157.882	0.784	269468	WORD_OFF	n/a	n/a	ORANGUTAN	Zoo	3	1	[0, 0, 0]	n/a	catFR1	1	R1505J
158.666	1.6	270253	WORD	n/a	wordpools/wordpool_categorized_EN.txt	ELEPHANT	Zoo	4	1	[0, 0, 0]	n/a	catFR1	1	R1505J
160.281	0.935	271867	WORD_OFF	n/a	n/a	ELEPHANT	Zoo	4	1	[0, 0, 0]	n/a	catFR1	1	R1505J
161.216	1.6	272799	WORD	n/a	wordpools/wordpool_categorized_EN.txt	BED	Furniture	5	1	[0, 0, 0]	n/a	catFR1	1	R1505J
162.817	0.898	274398	WORD_OFF	n/a	n/a	BED	Furniture	5	1	[0, 0, 0]	n/a	catFR1	1	R1505J
163.715	1.6	275302	WORD	n/a	wordpools/wordpool_categorized_EN.txt	SOFA	Furniture	6	1	[0, 0, 0]	n/a	catFR1	1	R1505J
165.332	0.867	276915	WORD_OFF	n/a	n/a	SOFA	Furniture	6	1	[0, 0, 0]	n/a	catFR1	1	R1505J
166.199	1.6	277789	WORD	n/a	wordpools/wordpool_categorized_EN.txt	MONKEY	Zoo	7	1	[0, 0, 0]	n/a	catFR1	1	R1505J
167.816	0.882	279403	WORD_OFF	n/a	n/a	MONKEY	Zoo	7	1	[0, 0, 0]	n/a	catFR1	1	R1505J
168.698	1.6	280276	WORD	n/a	wordpools/wordpool_categorized_EN.txt	TIGER	Zoo	8	1	[0, 0, 0]	n/a	catFR1	1	R1505J
170.301	0.864	281890	WORD_OFF	n/a	n/a	TIGER	Zoo	8	1	[0, 0, 0]	n/a	catFR1	1	R1505J
171.165	1.6	282749	WORD	n/a	wordpools/wordpool_categorized_EN.txt	COUCH	Furniture	9	1	[0, 0, 0]	n/a	catFR1	1	R1505J
172.783	0.882	284363	WORD_OFF	n/a	n/a	COUCH	Furniture	9	1	[0, 0, 0]	n/a	catFR1	1	R1505J
173.665	1.6	285251	WORD	n/a	wordpools/wordpool_categorized_EN.txt	RECLINER	Furniture	10	1	[0, 0, 0]	n/a	catFR1	1	R1505J
175.266	0.817	286850	WORD_OFF	n/a	n/a	RECLINER	Furniture	10	1	[0, 0, 0]	n/a	catFR1	1	R1505J
176.083	1.6	287665	WORD	n/a	wordpools/wordpool_categorized_EN.txt	SPARROW	Birds	11	1	[0, 0, 0]	n/a	catFR1	1	R1505J
177.699	0.816	289278	WORD_OFF	n/a	n/a	SPARROW	Birds	11	1	[0, 0, 0]	n/a	catFR1	1	R1505J
178.515	1.6	290093	WORD	n/a	wordpools/wordpool_categorized_EN.txt	HAWK	Birds	12	1	[0, 0, 0]	n/a	catFR1	1	R1505J
180.132	0.001	291716	PROB	5.149	n/a	n/a	n/a	-999	1	[4, 2, 5]	11.0	catFR1	1	R1505J
180.133	0.0	291717	START	n/a	n/a	n/a	n/a	-999	1	[-999, -999, -999]	n/a	catFR1	1	R1505J
180.132	0.001	291721	WORD_OFF	n/a	n/a	HAWK	Birds	12	1	[0, 0, 0]	n/a	catFR1	1	R1505J
180.133	0.0	291721	ENCODING_END	n/a	n/a	n/a	n/a	-999	1	[0, 0, 0]	n/a	catFR1	1	R1505J
180.133	5.166	291721	DISTRACT_START	n/a	n/a	n/a	n/a	-999	1	[0, 0, 0]	n/a	catFR1	1	R1505J
185.299	5.951	296882	PROB	5.933	n/a	n/a	n/a	-999	1	[3, 7, 1]	11.0	catFR1	1	R1505J
191.25	8.45	302833	PROB	8.433	n/a	n/a	n/a	-999	1	[7, 8, 2]	17.0	catFR1	1	R1505J
199.7	6.183	311283	PROB	6.166	n/a	n/a	n/a	-999	1	[1, 7, 4]	12.0	catFR1	1	R1505J
205.883	0.0	317465	STOP	n/a	n/a	n/a	n/a	-999	1	[-999, -999, -999]	n/a	catFR1	1	R1505J
205.883	2.233	317469	DISTRACT_END	n/a	n/a	n/a	n/a	-999	1	[0, 0, 0]	n/a	catFR1	1	R1505J
208.116	4.347	319698	REC_START	n/a	n/a	n/a	n/a	-999	1	[0, 0, 0]	n/a	catFR1	1	R1505J
212.463	23.498	324045	REC_WORD	4.347	n/a	BLUEBIRD	Birds	1	1	[0, 0, 0]	n/a	catFR1	1	R1505J
235.961	2.358	347542	REC_WORD	27.845	n/a	VIOLET	Flowers	-999	1	[0, 0, 0]	n/a	catFR1	1	R1505J
238.319	2.715	349894	REC_END	n/a	n/a	n/a	n/a	-999	1	[0, 0, 0]	n/a	catFR1	1	R1505J
241.034	10.0	352618	COUNTDOWN_START	n/a	n/a	n/a	n/a	-999	2	[0, 0, 0]	n/a	catFR1	1	R1505J
251.383	0.0	362968	COUNTDOWN_END	n/a	n/a	n/a	n/a	-999	2	[0, 0, 0]	n/a	catFR1	1	R1505J
251.383	2.084	362968	ENCODING_START	n/a	n/a	n/a	n/a	-999	2	[0, 0, 0]	n/a	catFR1	1	R1505J
253.467	1.6	365040	WORD	n/a	wordpools/wordpool_categorized_EN.txt	TONGS	KitchenTools	1	2	[0, 0, 0]	n/a	catFR1	1	R1505J
255.067	0.949	366654	WORD_OFF	n/a	n/a	TONGS	KitchenTools	1	2	[0, 0, 0]	n/a	catFR1	1	R1505J
256.016	1.6	367602	WORD	n/a	wordpools/wordpool_categorized_EN.txt	SPATULA	KitchenTools	2	2	[0, 0, 0]	n/a	catFR1	1	R1505J
257.632	0.95	369216	WORD_OFF	n/a	n/a	SPATULA	KitchenTools	2	2	[0, 0, 0]	n/a	catFR1	1	R1505J
258.582	1.6	370163	WORD	n/a	wordpools/wordpool_categorized_EN.txt	CAULIFLOWER	Vegetables	3	2	[0, 0, 0]	n/a	catFR1	1	R1505J
260.199	0.982	371777	WORD_OFF	n/a	n/a	CAULIFLOWER	Vegetables	3	2	[0, 0, 0]	n/a	catFR1	1	R1505J
261.181	1.6	372754	WORD	n/a	wordpools/wordpool_categorized_EN.txt	CARROT	Vegetables	4	2	[0, 0, 0]	n/a	catFR1	1	R1505J
262.783	0.799	374368	WORD_OFF	n/a	n/a	CARROT	Vegetables	4	2	[0, 0, 0]	n/a	catFR1	1	R1505J
263.582	1.6	375168	WORD	n/a	wordpools/wordpool_categorized_EN.txt	PAPER	OfficeSupplies	5	2	[0, 0, 0]	n/a	catFR1	1	R1505J
265.199	0.917	376782	WORD_OFF	n/a	n/a	PAPER	OfficeSupplies	5	2	[0, 0, 0]	n/a	catFR1	1	R1505J
266.116	1.6	377700	WORD	n/a	wordpools/wordpool_categorized_EN.txt	TAPE	OfficeSupplies	6	2	[0, 0, 0]	n/a	catFR1	1	R1505J
267.732	0.967	379313	WORD_OFF	n/a	n/a	TAPE	OfficeSupplies	6	2	[0, 0, 0]	n/a	catFR1	1	R1505J
268.699	1.6	380276	WORD	n/a	wordpools/wordpool_categorized_EN.txt	ONION	Vegetables	7	2	[0, 0, 0]	n/a	catFR1	1	R1505J
270.316	0.949	381890	WORD_OFF	n/a	n/a	ONION	Vegetables	7	2	[0, 0, 0]	n/a	catFR1	1	R1505J
271.265	1.6	382837	WORD	n/a	wordpools/wordpool_categorized_EN.txt	CELERY	Vegetables	8	2	[0, 0, 0]	n/a	catFR1	1	R1505J
272.866	0.999	384451	WORD_OFF	n/a	n/a	CELERY	Vegetables	8	2	[0, 0, 0]	n/a	catFR1	1	R1505J
273.865	1.6	385443	WORD	n/a	wordpools/wordpool_categorized_EN.txt	SPOON	KitchenTools	9	2	[0, 0, 0]	n/a	catFR1	1	R1505J
275.466	0.801	387042	WORD_OFF	n/a	n/a	SPOON	KitchenTools	9	2	[0, 0, 0]	n/a	catFR1	1	R1505J
276.267	1.6	387842	WORD	n/a	wordpools/wordpool_categorized_EN.txt	GRATER	KitchenTools	10	2	[0, 0, 0]	n/a	catFR1	1	R1505J
277.882	0.899	389456	WORD_OFF	n/a	n/a	GRATER	KitchenTools	10	2	[0, 0, 0]	n/a	catFR1	1	R1505J
278.781	1.6	390359	WORD	n/a	wordpools/wordpool_categorized_EN.txt	MARKER	OfficeSupplies	11	2	[0, 0, 0]	n/a	catFR1	1	R1505J
280.399	0.783	391973	WORD_OFF	n/a	n/a	MARKER	OfficeSupplies	11	2	[0, 0, 0]	n/a	catFR1	1	R1505J
281.182	1.6	392757	WORD	n/a	wordpools/wordpool_categorized_EN.txt	BINDER	OfficeSupplies	12	2	[0, 0, 0]	n/a	catFR1	1	R1505J
282.783	0.001	394356	WORD_OFF	n/a	n/a	BINDER	OfficeSupplies	12	2	[0, 0, 0]	n/a	catFR1	1	R1505J
282.784	0.0	394356	ENCODING_END	n/a	n/a	n/a	n/a	-999	2	[0, 0, 0]	n/a	catFR1	1	R1505J
282.783	0.001	394362	PROB	5.3	n/a	n/a	n/a	-999	2	[1, 6, 7]	14.0	catFR1	1	R1505J
282.784	0.0	394363	START	n/a	n/a	n/a	n/a	-999	2	[-999, -999, -999]	n/a	catFR1	1	R1505J
282.784	5.316	394371	DISTRACT_START	n/a	n/a	n/a	n/a	-999	2	[0, 0, 0]	n/a	catFR1	1	R1505J
288.1	7.932	399679	PROB	7.915	n/a	n/a	n/a	-999	2	[6, 6, 6]	18.0	catFR1	1	R1505J
296.032	10.983	407611	PROB	10.967	n/a	n/a	n/a	-999	2	[3, 6, 5]	14.0	catFR1	1	R1505J
307.015	0.0	418593	STOP	n/a	n/a	n/a	n/a	-999	2	[-999, -999, -999]	n/a	catFR1	1	R1505J
307.015	2.384	418594	DISTRACT_END	n/a	n/a	n/a	n/a	-999	2	[0, 0, 0]	n/a	catFR1	1	R1505J
309.399	8.327	420971	REC_START	n/a	n/a	n/a	n/a	-999	2	[0, 0, 0]	n/a	catFR1	1	R1505J
317.726	4.941	429304	REC_WORD	8.327	n/a	FLOWER	n/a	-999	2	[0, 0, 0]	n/a	catFR1	1	R1505J
322.667	16.933	434245	REC_WORD	13.268	n/a	CAULIFLOWER	Vegetables	3	2	[0, 0, 0]	n/a	catFR1	1	R1505J
339.6	1.882	451182	REC_END	n/a	n/a	n/a	n/a	-999	2	[0, 0, 0]	n/a	catFR1	1	R1505J
341.482	10.0	453062	COUNTDOWN_START	n/a	n/a	n/a	n/a	-999	3	[0, 0, 0]	n/a	catFR1	1	R1505J
351.833	0.0	463411	COUNTDOWN_END	n/a	n/a	n/a	n/a	-999	3	[0, 0, 0]	n/a	catFR1	1	R1505J
351.833	2.299	463411	ENCODING_START	n/a	n/a	n/a	n/a	-999	3	[0, 0, 0]	n/a	catFR1	1	R1505J
354.132	1.6	465706	WORD	n/a	wordpools/wordpool_categorized_EN.txt	TURKEY	FarmAnimals	1	3	[0, 0, 0]	n/a	catFR1	1	R1505J
355.733	0.917	467305	WORD_OFF	n/a	n/a	TURKEY	FarmAnimals	1	3	[0, 0, 0]	n/a	catFR1	1	R1505J
356.65	1.6	468223	WORD	n/a	wordpools/wordpool_categorized_EN.txt	COW	FarmAnimals	2	3	[0, 0, 0]	n/a	catFR1	1	R1505J
358.25	0.832	469822	WORD_OFF	n/a	n/a	COW	FarmAnimals	2	3	[0, 0, 0]	n/a	catFR1	1	R1505J
359.082	1.6	470651	WORD	n/a	wordpools/wordpool_categorized_EN.txt	RADIO	Electronics	3	3	[0, 0, 0]	n/a	catFR1	1	R1505J
360.682	0.934	472250	WORD_OFF	n/a	n/a	RADIO	Electronics	3	3	[0, 0, 0]	n/a	catFR1	1	R1505J
361.616	1.6	473198	WORD	n/a	wordpools/wordpool_categorized_EN.txt	STEREO	Electronics	4	3	[0, 0, 0]	n/a	catFR1	1	R1505J
363.232	0.951	474812	WORD_OFF	n/a	n/a	STEREO	Electronics	4	3	[0, 0, 0]	n/a	catFR1	1	R1505J
364.183	1.6	475759	WORD	n/a	wordpools/wordpool_categorized_EN.txt	CORKSCREW	KitchenTools	5	3	[0, 0, 0]	n/a	catFR1	1	R1505J
365.799	0.867	477373	WORD_OFF	n/a	n/a	CORKSCREW	KitchenTools	5	3	[0, 0, 0]	n/a	catFR1	1	R1505J
366.666	1.6	478247	WORD	n/a	wordpools/wordpool_categorized_EN.txt	FORK	KitchenTools	6	3	[0, 0, 0]	n/a	catFR1	1	R1505J
368.267	0.832	479846	WORD_OFF	n/a	n/a	FORK	KitchenTools	6	3	[0, 0, 0]	n/a	catFR1	1	R1505J
369.099	1.6	480675	WORD	n/a	wordpools/wordpool_categorized_EN.txt	SCANNER	Electronics	7	3	[0, 0, 0]	n/a	catFR1	1	R1505J
370.715	1.0	482289	WORD_OFF	n/a	n/a	SCANNER	Electronics	7	3	[0, 0, 0]	n/a	catFR1	1	R1505J
371.715	1.6	483296	WORD	n/a	wordpools/wordpool_categorized_EN.txt	PHONE	Electronics	8	3	[0, 0, 0]	n/a	catFR1	1	R1505J
373.316	0.799	484895	WORD_OFF	n/a	n/a	PHONE	Electronics	8	3	[0, 0, 0]	n/a	catFR1	1	R1505J
374.115	1.6	485694	WORD	n/a	wordpools/wordpool_categorized_EN.txt	BULL	FarmAnimals	9	3	[0, 0, 0]	n/a	catFR1	1	R1505J
375.715	0.884	487293	WORD_OFF	n/a	n/a	BULL	FarmAnimals	9	3	[0, 0, 0]	n/a	catFR1	1	R1505J
376.599	1.6	488167	WORD	n/a	wordpools/wordpool_categorized_EN.txt	PIG	FarmAnimals	10	3	[0, 0, 0]	n/a	catFR1	1	R1505J
378.199	0.95	489781	WORD_OFF	n/a	n/a	PIG	FarmAnimals	10	3	[0, 0, 0]	n/a	catFR1	1	R1505J
379.149	1.6	490728	WORD	n/a	wordpools/wordpool_categorized_EN.txt	STRAINER	KitchenTools	11	3	[0, 0, 0]	n/a	catFR1	1	R1505J
380.765	0.934	492342	WORD_OFF	n/a	n/a	STRAINER	KitchenTools	11	3	[0, 0, 0]	n/a	catFR1	1	R1505J
381.699	1.6	493275	WORD	n/a	wordpools/wordpool_categorized_EN.txt	LADLE	KitchenTools	12	3	[0, 0, 0]	n/a	catFR1	1	R1505J
383.315	0.001	494889	WORD_OFF	n/a	n/a	LADLE	KitchenTools	12	3	[0, 0, 0]	n/a	catFR1	1	R1505J
383.316	0.0	494889	ENCODING_END	n/a	n/a	n/a	n/a	-999	3	[0, 0, 0]	n/a	catFR1	1	R1505J
383.316	0.0	494889	DISTRACT_START	n/a	n/a	n/a	n/a	-999	3	[0, 0, 0]	n/a	catFR1	1	R1505J
383.315	0.001	494890	PROB	8.267	n/a	n/a	n/a	-999	3	[6, 1, 8]	15.0	catFR1	1	R1505J
383.316	8.284	494891	START	n/a	n/a	n/a	n/a	-999	3	[-999, -999, -999]	n/a	catFR1	1	R1505J
391.6	7.45	503175	PROB	7.432	n/a	n/a	n/a	-999	3	[6, 8, 8]	22.0	catFR1	1	R1505J
399.05	4.633	510624	PROB	4.616	n/a	n/a	n/a	-999	3	[3, 1, 5]	9.0	catFR1	1	R1505J
403.683	0.0	515257	STOP	n/a	n/a	n/a	n/a	-999	3	[-999, -999, -999]	n/a	catFR1	1	R1505J
403.683	2.215	515262	DISTRACT_END	n/a	n/a	n/a	n/a	-999	3	[0, 0, 0]	n/a	catFR1	1	R1505J
405.898	3.231	517476	REC_START	n/a	n/a	n/a	n/a	-999	3	[0, 0, 0]	n/a	catFR1	1	R1505J
409.129	26.974	520703	REC_WORD	3.231	n/a	LADDER	n/a	-999	3	[0, 0, 0]	n/a	catFR1	1	R1505J
436.103	2.43	547672	REC_END	n/a	n/a	n/a	n/a	-999	3	[0, 0, 0]	n/a	catFR1	1	R1505J
438.533	10.0	550100	COUNTDOWN_START	n/a	n/a	n/a	n/a	-999	4	[0, 0, 0]	n/a	catFR1	1	R1505J
448.883	0.0	560449	COUNTDOWN_END	n/a	n/a	n/a	n/a	-999	4	[0, 0, 0]	n/a	catFR1	1	R1505J
448.883	2.216	560449	ENCODING_START	n/a	n/a	n/a	n/a	-999	4	[0, 0, 0]	n/a	catFR1	1	R1505J
451.099	1.6	562670	WORD	n/a	wordpools/wordpool_categorized_EN.txt	BANANA	Fruit	1	4	[0, 0, 0]	n/a	catFR1	1	R1505J
452.699	1.0	564269	WORD_OFF	n/a	n/a	BANANA	Fruit	1	4	[0, 0, 0]	n/a	catFR1	1	R1505J
453.699	1.6	565276	WORD	n/a	wordpools/wordpool_categorized_EN.txt	PLUM	Fruit	2	4	[0, 0, 0]	n/a	catFR1	1	R1505J
455.316	0.85	566890	WORD_OFF	n/a	n/a	PLUM	Fruit	2	4	[0, 0, 0]	n/a	catFR1	1	R1505J
456.166	1.6	567734	WORD	n/a	wordpools/wordpool_categorized_EN.txt	LOBSTER	OceanAnimals	3	4	[0, 0, 0]	n/a	catFR1	1	R1505J
457.766	0.999	569333	WORD_OFF	n/a	n/a	LOBSTER	OceanAnimals	3	4	[0, 0, 0]	n/a	catFR1	1	R1505J
458.765	1.6	570340	WORD	n/a	wordpools/wordpool_categorized_EN.txt	SHRIMP	OceanAnimals	4	4	[0, 0, 0]	n/a	catFR1	1	R1505J
460.366	0.9	571939	WORD_OFF	n/a	n/a	SHRIMP	OceanAnimals	4	4	[0, 0, 0]	n/a	catFR1	1	R1505J
461.266	1.6	572842	WORD	n/a	wordpools/wordpool_categorized_EN.txt	SUNFLOWER	Flowers	5	4	[0, 0, 0]	n/a	catFR1	1	R1505J
462.882	0.933	574456	WORD_OFF	n/a	n/a	SUNFLOWER	Flowers	5	4	[0, 0, 0]	n/a	catFR1	1	R1505J
463.815	1.6	575389	WORD	n/a	wordpools/wordpool_categorized_EN.txt	LILAC	Flowers	6	4	[0, 0, 0]	n/a	catFR1	1	R1505J
465.416	0.983	576988	WORD_OFF	n/a	n/a	LILAC	Flowers	6	4	[0, 0, 0]	n/a	catFR1	1	R1505J
466.399	1.6	577965	WORD	n/a	wordpools/wordpool_categorized_EN.txt	ORANGE	Fruit	7	4	[0, 0, 0]	n/a	catFR1	1	R1505J
467.999	0.884	579564	WORD_OFF	n/a	n/a	ORANGE	Fruit	7	4	[0, 0, 0]	n/a	catFR1	1	R1505J
468.883	1.6	580452	WORD	n/a	wordpools/wordpool_categorized_EN.txt	PEACH	Fruit	8	4	[0, 0, 0]	n/a	catFR1	1	R1505J
470.483	0.916	582051	WORD_OFF	n/a	n/a	PEACH	Fruit	8	4	[0, 0, 0]	n/a	catFR1	1	R1505J
471.399	1.6	582969	WORD	n/a	wordpools/wordpool_categorized_EN.txt	ORCHID	Flowers	9	4	[0, 0, 0]	n/a	catFR1	1	R1505J
473.016	0.983	584583	WORD_OFF	n/a	n/a	ORCHID	Flowers	9	4	[0, 0, 0]	n/a	catFR1	1	R1505J
473.999	1.6	585575	WORD	n/a	wordpools/wordpool_categorized_EN.txt	TULIP	Flowers	10	4	[0, 0, 0]	n/a	catFR1	1	R1505J
475.599	0.867	587174	WORD_OFF	n/a	n/a	TULIP	Flowers	10	4	[0, 0, 0]	n/a	catFR1	1	R1505J
476.466	1.6	588033	WORD	n/a	wordpools/wordpool_categorized_EN.txt	SQUID	OceanAnimals	11	4	[0, 0, 0]	n/a	catFR1	1	R1505J
478.066	0.783	589632	WORD_OFF	n/a	n/a	SQUID	OceanAnimals	11	4	[0, 0, 0]	n/a	catFR1	1	R1505J
478.849	1.6	590417	WORD	n/a	wordpools/wordpool_categorized_EN.txt	OCTOPUS	OceanAnimals	12	4	[0, 0, 0]	n/a	catFR1	1	R1505J
480.45	0.001	592016	WORD_OFF	n/a	n/a	OCTOPUS	OceanAnimals	12	4	[0, 0, 0]	n/a	catFR1	1	R1505J
480.451	0.0	592016	ENCODING_END	n/a	n/a	n/a	n/a	-999	4	[0, 0, 0]	n/a	catFR1	1	R1505J
480.45	0.001	592021	PROB	5.648	n/a	n/a	n/a	-999	4	[6, 6, 3]	15.0	catFR1	1	R1505J
480.451	0.0	592022	START	n/a	n/a	n/a	n/a	-999	4	[-999, -999, -999]	n/a	catFR1	1	R1505J
480.451	5.665	592031	DISTRACT_START	n/a	n/a	n/a	n/a	-999	4	[0, 0, 0]	n/a	catFR1	1	R1505J
486.116	5.867	597687	PROB	5.85	n/a	n/a	n/a	-999	4	[5, 3, 4]	12.0	catFR1	1	R1505J
491.983	6.933	603553	PROB	6.916	n/a	n/a	n/a	-999	4	[5, 7, 3]	15.0	catFR1	1	R1505J
498.916	14.333	610486	PROB	14.317	n/a	n/a	n/a	-999	4	[5, 3, 8]	16.0	catFR1	1	R1505J
513.249	0.0	624811	DISTRACT_END	n/a	n/a	n/a	n/a	-999	4	[0, 0, 0]	n/a	catFR1	1	R1505J
513.249	2.233	624819	STOP	n/a	n/a	n/a	n/a	-999	4	[-999, -999, -999]	n/a	catFR1	1	R1505J
515.482	8.993	627055	REC_START	n/a	n/a	n/a	n/a	-999	4	[0, 0, 0]	n/a	catFR1	1	R1505J
524.475	21.233	636044	REC_WORD	8.993	n/a	OCTOPUS	OceanAnimals	12	4	[0, 0, 0]	n/a	catFR1	1	R1505J
545.708	2.091	657280	REC_END	n/a	n/a	n/a	n/a	-999	4	[0, 0, 0]	n/a	catFR1	1	R1505J
547.799	10.0	659368	COUNTDOWN_START	n/a	n/a	n/a	n/a	-999	5	[0, 0, 0]	n/a	catFR1	1	R1505J
558.149	0.0	669717	COUNTDOWN_END	n/a	n/a	n/a	n/a	-999	5	[0, 0, 0]	n/a	catFR1	1	R1505J
558.149	1.984	669717	ENCODING_START	n/a	n/a	n/a	n/a	-999	5	[0, 0, 0]	n/a	catFR1	1	R1505J
560.133	1.6	671701	WORD	n/a	wordpools/wordpool_categorized_EN.txt	OVEN	Appliances	1	5	[0, 0, 0]	n/a	catFR1	1	R1505J
561.733	0.85	673300	WORD_OFF	n/a	n/a	OVEN	Appliances	1	5	[0, 0, 0]	n/a	catFR1	1	R1505J
562.583	1.6	674144	WORD	n/a	wordpools/wordpool_categorized_EN.txt	TOASTER	Appliances	2	5	[0, 0, 0]	n/a	catFR1	1	R1505J
564.184	0.798	675758	WORD_OFF	n/a	n/a	TOASTER	Appliances	2	5	[0, 0, 0]	n/a	catFR1	1	R1505J
564.982	1.6	676543	WORD	n/a	wordpools/wordpool_categorized_EN.txt	CRAB	OceanAnimals	3	5	[0, 0, 0]	n/a	catFR1	1	R1505J
566.599	0.85	678172	WORD_OFF	n/a	n/a	CRAB	OceanAnimals	3	5	[0, 0, 0]	n/a	catFR1	1	R1505J
567.449	1.6	679016	WORD	n/a	wordpools/wordpool_categorized_EN.txt	DOLPHIN	OceanAnimals	4	5	[0, 0, 0]	n/a	catFR1	1	R1505J
569.049	0.867	680615	WORD_OFF	n/a	n/a	DOLPHIN	OceanAnimals	4	5	[0, 0, 0]	n/a	catFR1	1	R1505J
569.916	1.6	681488	WORD	n/a	wordpools/wordpool_categorized_EN.txt	MICROWAVE	Electronics	5	5	[0, 0, 0]	n/a	catFR1	1	R1505J
571.517	0.865	683087	WORD_OFF	n/a	n/a	MICROWAVE	Electronics	5	5	[0, 0, 0]	n/a	catFR1	1	R1505J
572.382	1.6	683946	WORD	n/a	wordpools/wordpool_categorized_EN.txt	CALCULATOR	Electronics	6	5	[0, 0, 0]	n/a	catFR1	1	R1505J
573.982	0.784	685545	WORD_OFF	n/a	n/a	CALCULATOR	Electronics	6	5	[0, 0, 0]	n/a	catFR1	1	R1505J
574.766	1.6	686330	WORD	n/a	wordpools/wordpool_categorized_EN.txt	WHALE	OceanAnimals	7	5	[0, 0, 0]	n/a	catFR1	1	R1505J
576.383	0.815	687944	WORD_OFF	n/a	n/a	WHALE	OceanAnimals	7	5	[0, 0, 0]	n/a	catFR1	1	R1505J
577.198	1.6	688758	WORD	n/a	wordpools/wordpool_categorized_EN.txt	PLANKTON	OceanAnimals	8	5	[0, 0, 0]	n/a	catFR1	1	R1505J
578.815	0.884	690387	WORD_OFF	n/a	n/a	PLANKTON	OceanAnimals	8	5	[0, 0, 0]	n/a	catFR1	1	R1505J
579.699	1.6	691260	WORD	n/a	wordpools/wordpool_categorized_EN.txt	HEADPHONES	Electronics	9	5	[0, 0, 0]	n/a	catFR1	1	R1505J
581.316	0.866	692889	WORD_OFF	n/a	n/a	HEADPHONES	Electronics	9	5	[0, 0, 0]	n/a	catFR1	1	R1505J
582.182	1.6	693748	WORD	n/a	wordpools/wordpool_categorized_EN.txt	PRINTER	Electronics	10	5	[0, 0, 0]	n/a	catFR1	1	R1505J
583.798	0.801	695361	WORD_OFF	n/a	n/a	PRINTER	Electronics	10	5	[0, 0, 0]	n/a	catFR1	1	R1505J
584.599	1.6	696161	WORD	n/a	wordpools/wordpool_categorized_EN.txt	REFRIGERATOR	Appliances	11	5	[0, 0, 0]	n/a	catFR1	1	R1505J
586.215	0.999	697775	WORD_OFF	n/a	n/a	REFRIGERATOR	Appliances	11	5	[0, 0, 0]	n/a	catFR1	1	R1505J
587.214	1.6	698782	WORD	n/a	wordpools/wordpool_categorized_EN.txt	DRYER	Appliances	12	5	[0, 0, 0]	n/a	catFR1	1	R1505J
588.816	0.001	700381	WORD_OFF	n/a	n/a	DRYER	Appliances	12	5	[0, 0, 0]	n/a	catFR1	1	R1505J
588.817	0.0	700381	ENCODING_END	n/a	n/a	n/a	n/a	-999	5	[0, 0, 0]	n/a	catFR1	1	R1505J
588.817	0.0	700381	DISTRACT_START	n/a	n/a	n/a	n/a	-999	5	[0, 0, 0]	n/a	catFR1	1	R1505J
588.817	0.0	700383	START	n/a	n/a	n/a	n/a	-999	5	[-999, -999, -999]	n/a	catFR1	1	R1505J
588.817	14.55	700383	PROB	14.532	n/a	n/a	n/a	-999	5	[4, 7, 5]	16.0	catFR1	1	R1505J
603.367	5.366	714933	PROB	5.348	n/a	n/a	n/a	-999	5	[2, 1, 6]	9.0	catFR1	1	R1505J
608.733	4.266	720299	PROB	4.249	n/a	n/a	n/a	-999	5	[6, 1, 7]	14.0	catFR1	1	R1505J
612.999	0.0	724559	DISTRACT_END	n/a	n/a	n/a	n/a	-999	5	[0, 0, 0]	n/a	catFR1	1	R1505J
612.999	2.349	724564	STOP	n/a	n/a	n/a	n/a	-999	5	[-999, -999, -999]	n/a	catFR1	1	R1505J
615.348	21.15	726921	REC_START	n/a	n/a	n/a	n/a	-999	5	[0, 0, 0]	n/a	catFR1	1	R1505J
636.498	3.461	748062	REC_WORD	21.15	n/a	PEANUTBUTTER	n/a	-999	5	[0, 0, 0]	n/a	catFR1	1	R1505J
639.959	5.609	751523	REC_WORD_VV	24.611	n/a	<>	n/a	-999	5	[0, 0, 0]	n/a	catFR1	1	R1505J
645.568	2.766	757132	REC_END	n/a	n/a	n/a	n/a	-999	5	[0, 0, 0]	n/a	catFR1	1	R1505J
648.334	10.0	759901	COUNTDOWN_START	n/a	n/a	n/a	n/a	-999	6	[0, 0, 0]	n/a	catFR1	1	R1505J
658.683	0.0	770250	COUNTDOWN_END	n/a	n/a	n/a	n/a	-999	6	[0, 0, 0]	n/a	catFR1	1	R1505J
658.683	2.051	770250	ENCODING_START	n/a	n/a	n/a	n/a	-999	6	[0, 0, 0]	n/a	catFR1	1	R1505J
660.734	1.6	772293	WORD	n/a	wordpools/wordpool_categorized_EN.txt	SPINACH	Vegetables	1	6	[0, 0, 0]	n/a	catFR1	1	R1505J
662.348	0.819	773907	WORD_OFF	n/a	n/a	SPINACH	Vegetables	1	6	[0, 0, 0]	n/a	catFR1	1	R1505J
663.167	1.6	774736	WORD	n/a	wordpools/wordpool_categorized_EN.txt	BROCCOLI	Vegetables	2	6	[0, 0, 0]	n/a	catFR1	1	R1505J
664.783	0.983	776350	WORD_OFF	n/a	n/a	BROCCOLI	Vegetables	2	6	[0, 0, 0]	n/a	catFR1	1	R1505J
665.766	1.6	777327	WORD	n/a	wordpools/wordpool_categorized_EN.txt	COAT	Clothing	3	6	[0, 0, 0]	n/a	catFR1	1	R1505J
667.383	0.916	778941	WORD_OFF	n/a	n/a	COAT	Clothing	3	6	[0, 0, 0]	n/a	catFR1	1	R1505J
668.299	1.6	779859	WORD	n/a	wordpools/wordpool_categorized_EN.txt	BLOUSE	Clothing	4	6	[0, 0, 0]	n/a	catFR1	1	R1505J
669.915	0.834	781473	WORD_OFF	n/a	n/a	BLOUSE	Clothing	4	6	[0, 0, 0]	n/a	catFR1	1	R1505J
670.749	1.6	782317	WORD	n/a	wordpools/wordpool_categorized_EN.txt	PLIERS	Tools	5	6	[0, 0, 0]	n/a	catFR1	1	R1505J
672.349	0.799	783916	WORD_OFF	n/a	n/a	PLIERS	Tools	5	6	[0, 0, 0]	n/a	catFR1	1	R1505J
673.148	1.6	784715	WORD	n/a	wordpools/wordpool_categorized_EN.txt	AXE	Tools	6	6	[0, 0, 0]	n/a	catFR1	1	R1505J
674.748	0.934	786314	WORD_OFF	n/a	n/a	AXE	Tools	6	6	[0, 0, 0]	n/a	catFR1	1	R1505J
675.682	1.6	787247	WORD	n/a	wordpools/wordpool_categorized_EN.txt	CUCUMBER	Vegetables	7	6	[0, 0, 0]	n/a	catFR1	1	R1505J
677.283	0.982	788846	WORD_OFF	n/a	n/a	CUCUMBER	Vegetables	7	6	[0, 0, 0]	n/a	catFR1	1	R1505J
678.265	1.6	789823	WORD	n/a	wordpools/wordpool_categorized_EN.txt	CORN	Vegetables	8	6	[0, 0, 0]	n/a	catFR1	1	R1505J
679.881	0.985	791437	WORD_OFF	n/a	n/a	CORN	Vegetables	8	6	[0, 0, 0]	n/a	catFR1	1	R1505J
680.866	1.6	792429	WORD	n/a	wordpools/wordpool_categorized_EN.txt	SKIRT	Clothing	9	6	[0, 0, 0]	n/a	catFR1	1	R1505J
682.467	0.782	794028	WORD_OFF	n/a	n/a	SKIRT	Clothing	9	6	[0, 0, 0]	n/a	catFR1	1	R1505J
683.249	1.6	794813	WORD	n/a	wordpools/wordpool_categorized_EN.txt	SOCKS	Clothing	10	6	[0, 0, 0]	n/a	catFR1	1	R1505J
684.864	0.851	796427	WORD_OFF	n/a	n/a	SOCKS	Clothing	10	6	[0, 0, 0]	n/a	catFR1	1	R1505J
685.715	1.6	797271	WORD	n/a	wordpools/wordpool_categorized_EN.txt	SCREWDRIVER	Tools	11	6	[0, 0, 0]	n/a	catFR1	1	R1505J
687.316	0.832	798885	WORD_OFF	n/a	n/a	SCREWDRIVER	Tools	11	6	[0, 0, 0]	n/a	catFR1	1	R1505J
688.148	1.6	799714	WORD	n/a	wordpools/wordpool_categorized_EN.txt	LEVEL	Tools	12	6	[0, 0, 0]	n/a	catFR1	1	R1505J
689.749	0.001	801311	PROB	11.499	n/a	n/a	n/a	-999	6	[4, 8, 7]	19.0	catFR1	1	R1505J
689.75	0.0	801312	START	n/a	n/a	n/a	n/a	-999	6	[-999, -999, -999]	n/a	catFR1	1	R1505J
689.749	0.001	801313	WORD_OFF	n/a	n/a	LEVEL	Tools	12	6	[0, 0, 0]	n/a	catFR1	1	R1505J
689.75	0.0	801313	ENCODING_END	n/a	n/a	n/a	n/a	-999	6	[0, 0, 0]	n/a	catFR1	1	R1505J
689.75	11.516	801313	DISTRACT_START	n/a	n/a	n/a	n/a	-999	6	[0, 0, 0]	n/a	catFR1	1	R1505J
701.266	5.6	812828	PROB	5.582	n/a	n/a	n/a	-999	6	[3, 2, 5]	10.0	catFR1	1	R1505J
706.866	7.349	818427	PROB	7.333	n/a	n/a	n/a	-999	6	[4, 3, 5]	12.0	catFR1	1	R1505J
714.215	0.0	825772	DISTRACT_END	n/a	n/a	n/a	n/a	-999	6	[0, 0, 0]	n/a	catFR1	1	R1505J
714.215	2.3	825776	STOP	n/a	n/a	n/a	n/a	-999	6	[-999, -999, -999]	n/a	catFR1	1	R1505J
716.515	0.288	828075	REC_START	n/a	n/a	n/a	n/a	-999	6	[0, 0, 0]	n/a	catFR1	1	R1505J
716.803	3.927	828364	REC_WORD	0.288	n/a	SCREWDRIVER	Tools	11	6	[0, 0, 0]	n/a	catFR1	1	R1505J
720.73	5.254	832291	REC_WORD	4.215	n/a	BLOUSE	Clothing	4	6	[0, 0, 0]	n/a	catFR1	1	R1505J
725.984	20.762	837545	REC_WORD	9.469	n/a	NAIL	n/a	-999	6	[0, 0, 0]	n/a	catFR1	1	R1505J
746.746	2.671	858301	REC_END	n/a	n/a	n/a	n/a	-999	6	[0, 0, 0]	n/a	catFR1	1	R1505J
749.417	10.0	860981	COUNTDOWN_START	n/a	n/a	n/a	n/a	-999	7	[0, 0, 0]	n/a	catFR1	1	R1505J
759.767	0.0	871330	COUNTDOWN_END	n/a	n/a	n/a	n/a	-999	7	[0, 0, 0]	n/a	catFR1	1	R1505J
759.767	1.95	871330	ENCODING_START	n/a	n/a	n/a	n/a	-999	7	[0, 0, 0]	n/a	catFR1	1	R1505J
761.717	1.6	873270	WORD	n/a	wordpools/wordpool_categorized_EN.txt	WINE	Beverages	1	7	[0, 0, 0]	n/a	catFR1	1	R1505J
763.333	0.917	874898	WORD_OFF	n/a	n/a	WINE	Beverages	1	7	[0, 0, 0]	n/a	catFR1	1	R1505J
764.25	1.6	875816	WORD	n/a	wordpools/wordpool_categorized_EN.txt	MILK	Beverages	2	7	[0, 0, 0]	n/a	catFR1	1	R1505J
765.85	0.95	877415	WORD_OFF	n/a	n/a	MILK	Beverages	2	7	[0, 0, 0]	n/a	catFR1	1	R1505J
766.8	1.6	878363	WORD	n/a	wordpools/wordpool_categorized_EN.txt	WIND	Weather	3	7	[0, 0, 0]	n/a	catFR1	1	R1505J
768.4	0.8	879962	WORD_OFF	n/a	n/a	WIND	Weather	3	7	[0, 0, 0]	n/a	catFR1	1	R1505J
769.2	1.6	880762	WORD	n/a	wordpools/wordpool_categorized_EN.txt	CLOUD	Weather	4	7	[0, 0, 0]	n/a	catFR1	1	R1505J
770.8	0.965	882361	WORD_OFF	n/a	n/a	CLOUD	Weather	4	7	[0, 0, 0]	n/a	catFR1	1	R1505J
771.765	1.6	883323	WORD	n/a	wordpools/wordpool_categorized_EN.txt	JELLYFISH	OceanAnimals	5	7	[0, 0, 0]	n/a	catFR1	1	R1505J
773.367	0.967	884922	WORD_OFF	n/a	n/a	JELLYFISH	OceanAnimals	5	7	[0, 0, 0]	n/a	catFR1	1	R1505J
774.334	1.6	885899	WORD	n/a	wordpools/wordpool_categorized_EN.txt	FISH	OceanAnimals	6	7	[0, 0, 0]	n/a	catFR1	1	R1505J
775.95	0.917	887513	WORD_OFF	n/a	n/a	FISH	OceanAnimals	6	7	[0, 0, 0]	n/a	catFR1	1	R1505J
776.867	1.6	888431	WORD	n/a	wordpools/wordpool_categorized_EN.txt	COLA	Beverages	7	7	[0, 0, 0]	n/a	catFR1	1	R1505J
778.483	0.784	890045	WORD_OFF	n/a	n/a	COLA	Beverages	7	7	[0, 0, 0]	n/a	catFR1	1	R1505J
779.267	1.6	890830	WORD	n/a	wordpools/wordpool_categorized_EN.txt	BEER	Beverages	8	7	[0, 0, 0]	n/a	catFR1	1	R1505J
780.867	0.917	892429	WORD_OFF	n/a	n/a	BEER	Beverages	8	7	[0, 0, 0]	n/a	catFR1	1	R1505J
781.784	1.6	893347	WORD	n/a	wordpools/wordpool_categorized_EN.txt	SNOW	Weather	9	7	[0, 0, 0]	n/a	catFR1	1	R1505J
783.4	0.95	894960	WORD_OFF	n/a	n/a	SNOW	Weather	9	7	[0, 0, 0]	n/a	catFR1	1	R1505J
784.35	1.6	895908	WORD	n/a	wordpools/wordpool_categorized_EN.txt	RAIN	Weather	10	7	[0, 0, 0]	n/a	catFR1	1	R1505J
785.95	0.9	897507	WORD_OFF	n/a	n/a	RAIN	Weather	10	7	[0, 0, 0]	n/a	catFR1	1	R1505J
786.85	1.6	898410	WORD	n/a	wordpools/wordpool_categorized_EN.txt	TURTLE	OceanAnimals	11	7	[0, 0, 0]	n/a	catFR1	1	R1505J
788.45	0.9	900009	WORD_OFF	n/a	n/a	TURTLE	OceanAnimals	11	7	[0, 0, 0]	n/a	catFR1	1	R1505J
789.35	1.6	900912	WORD	n/a	wordpools/wordpool_categorized_EN.txt	OYSTER	OceanAnimals	12	7	[0, 0, 0]	n/a	catFR1	1	R1505J
790.951	0.001	902509	PROB	5.966	n/a	n/a	n/a	-999	7	[6, 6, 4]	16.0	catFR1	1	R1505J
790.952	0.0	902510	START	n/a	n/a	n/a	n/a	-999	7	[-999, -999, -999]	n/a	catFR1	1	R1505J
790.95	0.002	902511	WORD_OFF	n/a	n/a	OYSTER	OceanAnimals	12	7	[0, 0, 0]	n/a	catFR1	1	R1505J
790.952	0.0	902511	ENCODING_END	n/a	n/a	n/a	n/a	-999	7	[0, 0, 0]	n/a	catFR1	1	R1505J
790.952	5.981	902511	DISTRACT_START	n/a	n/a	n/a	n/a	-999	7	[0, 0, 0]	n/a	catFR1	1	R1505J
796.933	7.618	908491	PROB	7.6	n/a	n/a	n/a	-999	7	[7, 2, 4]	13.0	catFR1	1	R1505J
804.551	11.049	916108	PROB	11.033	n/a	n/a	n/a	-999	7	[6, 5, 2]	13.0	catFR1	1	R1505J
815.6	0.0	927157	STOP	n/a	n/a	n/a	n/a	-999	7	[-999, -999, -999]	n/a	catFR1	1	R1505J
815.6	2.217	927163	DISTRACT_END	n/a	n/a	n/a	n/a	-999	7	[0, 0, 0]	n/a	catFR1	1	R1505J
817.817	6.606	929377	REC_START	n/a	n/a	n/a	n/a	-999	7	[0, 0, 0]	n/a	catFR1	1	R1505J
824.423	1.022	935980	REC_WORD	6.606	n/a	JELLY	n/a	-999	7	[0, 0, 0]	n/a	catFR1	1	R1505J
825.445	4.333	937001	REC_WORD	7.628	n/a	JELLYFISH	OceanAnimals	5	7	[0, 0, 0]	n/a	catFR1	1	R1505J
829.778	18.225	941334	REC_WORD	11.961	n/a	SWORD	n/a	-999	7	[0, 0, 0]	n/a	catFR1	1	R1505J
848.003	2.279	959559	REC_END	n/a	n/a	n/a	n/a	-999	7	[0, 0, 0]	n/a	catFR1	1	R1505J
850.282	10.0	961839	COUNTDOWN_START	n/a	n/a	n/a	n/a	-999	8	[0, 0, 0]	n/a	catFR1	1	R1505J
860.634	0.0	972188	COUNTDOWN_END	n/a	n/a	n/a	n/a	-999	8	[0, 0, 0]	n/a	catFR1	1	R1505J
860.634	2.1	972188	ENCODING_START	n/a	n/a	n/a	n/a	-999	8	[0, 0, 0]	n/a	catFR1	1	R1505J
862.734	1.6	974291	WORD	n/a	wordpools/wordpool_categorized_EN.txt	UNDERWEAR	Clothing	1	8	[0, 0, 0]	n/a	catFR1	1	R1505J
864.35	0.9	975905	WORD_OFF	n/a	n/a	UNDERWEAR	Clothing	1	8	[0, 0, 0]	n/a	catFR1	1	R1505J
865.25	1.6	976808	WORD	n/a	wordpools/wordpool_categorized_EN.txt	PANTS	Clothing	2	8	[0, 0, 0]	n/a	catFR1	1	R1505J
866.851	0.848	978407	WORD_OFF	n/a	n/a	PANTS	Clothing	2	8	[0, 0, 0]	n/a	catFR1	1	R1505J
867.699	1.6	979251	WORD	n/a	wordpools/wordpool_categorized_EN.txt	CHICKEN	FarmAnimals	3	8	[0, 0, 0]	n/a	catFR1	1	R1505J
869.301	0.783	980850	WORD_OFF	n/a	n/a	CHICKEN	FarmAnimals	3	8	[0, 0, 0]	n/a	catFR1	1	R1505J
870.084	1.6	981635	WORD	n/a	wordpools/wordpool_categorized_EN.txt	ROOSTER	FarmAnimals	4	8	[0, 0, 0]	n/a	catFR1	1	R1505J
871.698	0.836	983248	WORD_OFF	n/a	n/a	ROOSTER	FarmAnimals	4	8	[0, 0, 0]	n/a	catFR1	1	R1505J
872.534	1.6	984092	WORD	n/a	wordpools/wordpool_categorized_EN.txt	SUEDE	Fabric	5	8	[0, 0, 0]	n/a	catFR1	1	R1505J
874.134	0.983	985691	WORD_OFF	n/a	n/a	SUEDE	Fabric	5	8	[0, 0, 0]	n/a	catFR1	1	R1505J
875.117	1.6	986669	WORD	n/a	wordpools/wordpool_categorized_EN.txt	SILK	Fabric	6	8	[0, 0, 0]	n/a	catFR1	1	R1505J
876.717	0.783	988268	WORD_OFF	n/a	n/a	SILK	Fabric	6	8	[0, 0, 0]	n/a	catFR1	1	R1505J
877.5	1.6	989052	WORD	n/a	wordpools/wordpool_categorized_EN.txt	SHORTS	Clothing	7	8	[0, 0, 0]	n/a	catFR1	1	R1505J
879.1	0.917	990651	WORD_OFF	n/a	n/a	SHORTS	Clothing	7	8	[0, 0, 0]	n/a	catFR1	1	R1505J
880.017	1.6	991569	WORD	n/a	wordpools/wordpool_categorized_EN.txt	JEANS	Clothing	8	8	[0, 0, 0]	n/a	catFR1	1	R1505J
881.634	0.95	993183	WORD_OFF	n/a	n/a	JEANS	Clothing	8	8	[0, 0, 0]	n/a	catFR1	1	R1505J
882.584	1.6	994131	WORD	n/a	wordpools/wordpool_categorized_EN.txt	LINEN	Fabric	9	8	[0, 0, 0]	n/a	catFR1	1	R1505J
884.184	0.8	995745	WORD_OFF	n/a	n/a	LINEN	Fabric	9	8	[0, 0, 0]	n/a	catFR1	1	R1505J
884.984	1.6	996544	WORD	n/a	wordpools/wordpool_categorized_EN.txt	LEATHER	Fabric	10	8	[0, 0, 0]	n/a	catFR1	1	R1505J
886.601	0.883	998158	WORD_OFF	n/a	n/a	LEATHER	Fabric	10	8	[0, 0, 0]	n/a	catFR1	1	R1505J
887.484	1.6	999032	WORD	n/a	wordpools/wordpool_categorized_EN.txt	LAMB	FarmAnimals	11	8	[0, 0, 0]	n/a	catFR1	1	R1505J
889.1	1.001	1000660	WORD_OFF	n/a	n/a	LAMB	FarmAnimals	11	8	[0, 0, 0]	n/a	catFR1	1	R1505J
890.101	1.6	1001652	WORD	n/a	wordpools/wordpool_categorized_EN.txt	SHEEP	FarmAnimals	12	8	[0, 0, 0]	n/a	catFR1	1	R1505J
891.717	0.001	1003266	WORD_OFF	n/a	n/a	SHEEP	FarmAnimals	12	8	[0, 0, 0]	n/a	catFR1	1	R1505J
891.718	0.001	1003266	ENCODING_END	n/a	n/a	n/a	n/a	-999	8	[0, 0, 0]	n/a	catFR1	1	R1505J
891.719	0.0	1003266	DISTRACT_START	n/a	n/a	n/a	n/a	-999	8	[0, 0, 0]	n/a	catFR1	1	R1505J
891.717	0.002	1003271	PROB	7.2	n/a	n/a	n/a	-999	8	[1, 8, 5]	14.0	catFR1	1	R1505J
891.719	7.215	1003273	START	n/a	n/a	n/a	n/a	-999	8	[-999, -999, -999]	n/a	catFR1	1	R1505J
898.934	5.617	1010487	PROB	5.599	n/a	n/a	n/a	-999	8	[8, 2, 5]	15.0	catFR1	1	R1505J
904.551	4.267	1016104	PROB	4.249	n/a	n/a	n/a	-999	8	[2, 1, 1]	4.0	catFR1	1	R1505J
908.818	5.249	1020371	PROB	5.233	n/a	n/a	n/a	-999	8	[8, 2, 4]	14.0	catFR1	1	R1505J
914.067	0.0	1025620	STOP	n/a	n/a	n/a	n/a	-999	8	[-999, -999, -999]	n/a	catFR1	1	R1505J
914.067	2.216	1025623	DISTRACT_END	n/a	n/a	n/a	n/a	-999	8	[0, 0, 0]	n/a	catFR1	1	R1505J
916.283	30.015	1027837	REC_START	n/a	n/a	n/a	n/a	-999	8	[0, 0, 0]	n/a	catFR1	1	R1505J
946.298	0.184	1057849	REC_WORD_VV	30.015	n/a	<>	n/a	-999	8	[0, 0, 0]	n/a	catFR1	1	R1505J
946.482	0.0	1058033	REC_END	n/a	n/a	n/a	n/a	-999	8	[0, 0, 0]	n/a	catFR1	1	R1505J
