onset	duration	sample	trial_type	response_time	stim_file	item_name	category	serialpos	list	test	answer	experiment	session	subject
0.0	0.565	96254	INSTRUCT_START	n/a	n/a	n/a	n/a	-999	-999	[0, 0, 0]	n/a	catFR1	2	R1486J
0.565	261.665	96817	INSTRUCT_END	n/a	n/a	n/a	n/a	-999	-999	[0, 0, 0]	n/a	catFR1	2	R1486J
262.23	10.0	358472	COUNTDOWN_START	n/a	n/a	n/a	n/a	-999	-999	[0, 0, 0]	n/a	catFR1	2	R1486J
272.597	0.0	368835	COUNTDOWN_END	n/a	n/a	n/a	n/a	-999	-999	[0, 0, 0]	n/a	catFR1	2	R1486J
272.597	1.95	368835	ENCODING_START	n/a	n/a	n/a	n/a	-999	-1	[0, 0, 0]	n/a	catFR1	2	R1486J
274.547	1.6	370782	WORD	n/a	n/a	MICROWAVE	Electronics	1	-1	[0, 0, 0]	n/a	catFR1	2	R1486J
276.164	0.867	372405	WORD_OFF	n/a	n/a	MICROWAVE	Electronics	1	-1	[0, 0, 0]	n/a	catFR1	2	R1486J
277.031	1.6	373269	WORD	n/a	n/a	PHONE	Electronics	2	-1	[0, 0, 0]	n/a	catFR1	2	R1486J
278.646	0.884	374885	WORD_OFF	n/a	n/a	PHONE	Electronics	2	-1	[0, 0, 0]	n/a	catFR1	2	R1486J
279.53	1.6	375764	WORD	n/a	n/a	CAKE	Desserts	3	-1	[0, 0, 0]	n/a	catFR1	2	R1486J
281.147	0.999	377388	WORD_OFF	n/a	n/a	CAKE	Desserts	3	-1	[0, 0, 0]	n/a	catFR1	2	R1486J
282.146	1.6	378387	WORD	n/a	n/a	BROWNIES	Desserts	4	-1	[0, 0, 0]	n/a	catFR1	2	R1486J
283.747	0.899	379981	WORD_OFF	n/a	n/a	BROWNIES	Desserts	4	-1	[0, 0, 0]	n/a	catFR1	2	R1486J
284.646	1.6	380882	WORD	n/a	n/a	SHORTS	Clothing	5	-1	[0, 0, 0]	n/a	catFR1	2	R1486J
286.262	0.901	382498	WORD_OFF	n/a	n/a	SHORTS	Clothing	5	-1	[0, 0, 0]	n/a	catFR1	2	R1486J
287.163	1.6	383400	WORD	n/a	n/a	JEANS	Clothing	6	-1	[0, 0, 0]	n/a	catFR1	2	R1486J
288.763	0.933	385001	WORD_OFF	n/a	n/a	JEANS	Clothing	6	-1	[0, 0, 0]	n/a	catFR1	2	R1486J
289.696	1.6	385932	WORD	n/a	n/a	COBBLER	Desserts	7	-1	[0, 0, 0]	n/a	catFR1	2	R1486J
291.296	0.951	387533	WORD_OFF	n/a	n/a	COBBLER	Desserts	7	-1	[0, 0, 0]	n/a	catFR1	2	R1486J
292.247	1.6	388480	WORD	n/a	n/a	FUDGE	Desserts	8	-1	[0, 0, 0]	n/a	catFR1	2	R1486J
293.864	0.898	390103	WORD_OFF	n/a	n/a	FUDGE	Desserts	8	-1	[0, 0, 0]	n/a	catFR1	2	R1486J
294.762	1.6	390998	WORD	n/a	n/a	TELEVISION	Electronics	9	-1	[0, 0, 0]	n/a	catFR1	2	R1486J
296.364	0.899	392598	WORD_OFF	n/a	n/a	TELEVISION	Electronics	9	-1	[0, 0, 0]	n/a	catFR1	2	R1486J
297.263	1.6	393500	WORD	n/a	n/a	PRINTER	Electronics	10	-1	[0, 0, 0]	n/a	catFR1	2	R1486J
298.863	0.832	395101	WORD_OFF	n/a	n/a	PRINTER	Electronics	10	-1	[0, 0, 0]	n/a	catFR1	2	R1486J
299.695	1.6	395935	WORD	n/a	n/a	SKIRT	Clothing	11	-1	[0, 0, 0]	n/a	catFR1	2	R1486J
301.297	0.849	397536	WORD_OFF	n/a	n/a	SKIRT	Clothing	11	-1	[0, 0, 0]	n/a	catFR1	2	R1486J
302.146	1.6	398385	WORD	n/a	n/a	JACKET	Clothing	12	-1	[0, 0, 0]	n/a	catFR1	2	R1486J
303.765	0.0	399999	PROB	4.383	n/a	n/a	n/a	-999	-1	[1, 4, 5]	10.0	catFR1	2	R1486J
303.764	0.004	400001	WORD_OFF	n/a	n/a	JACKET	Clothing	12	-1	[0, 0, 0]	n/a	catFR1	2	R1486J
303.768	0.0	400001	ENCODING_END	n/a	n/a	n/a	n/a	-999	-1	[0, 0, 0]	n/a	catFR1	2	R1486J
303.768	0.0	400002	START	n/a	n/a	n/a	n/a	-999	-1	[-999, -999, -999]	n/a	catFR1	2	R1486J
303.768	4.396	400008	DISTRACT_START	n/a	n/a	n/a	n/a	-999	-1	[0, 0, 0]	n/a	catFR1	2	R1486J
308.164	3.666	404398	PROB	3.65	n/a	n/a	n/a	-999	-1	[8, 5, 7]	20.0	catFR1	2	R1486J
311.83	3.667	408064	PROB	3.65	n/a	n/a	n/a	-999	-1	[8, 5, 2]	15.0	catFR1	2	R1486J
315.497	3.366	411731	PROB	3.35	n/a	n/a	n/a	-999	-1	[8, 1, 3]	12.0	catFR1	2	R1486J
318.863	2.066	415097	PROB	2.049	n/a	n/a	n/a	-999	-1	[1, 1, 1]	3.0	catFR1	2	R1486J
320.929	5.051	417163	PROB	5.034	n/a	n/a	n/a	-999	-1	[5, 3, 8]	16.0	catFR1	2	R1486J
325.98	0.0	422214	STOP	n/a	n/a	n/a	n/a	-999	-1	[-999, -999, -999]	n/a	catFR1	2	R1486J
325.98	2.167	422216	DISTRACT_END	n/a	n/a	n/a	n/a	-999	-1	[0, 0, 0]	n/a	catFR1	2	R1486J
328.147	0.563	424380	REC_START	n/a	n/a	n/a	n/a	-999	-1	[0, 0, 0]	n/a	catFR1	2	R1486J
328.71	0.992	424943	REC_WORD	0.563	n/a	MICROWAVE	Electronics	1	-1	[0, 0, 0]	n/a	catFR1	2	R1486J
329.702	1.66	425935	REC_WORD	1.555	n/a	PHONE	Electronics	2	-1	[0, 0, 0]	n/a	catFR1	2	R1486J
331.362	1.133	427595	REC_WORD	3.215	n/a	FUDGE	Desserts	8	-1	[0, 0, 0]	n/a	catFR1	2	R1486J
332.495	1.953	428728	REC_WORD	4.348	n/a	BROWNIES	Desserts	4	-1	[0, 0, 0]	n/a	catFR1	2	R1486J
334.448	3.442	430681	REC_WORD	6.301	n/a	COBBLER	Desserts	7	-1	[0, 0, 0]	n/a	catFR1	2	R1486J
337.89	4.732	434123	REC_WORD_VV	9.743	n/a	<>	n/a	-999	-1	[0, 0, 0]	n/a	catFR1	2	R1486J
342.622	6.362	438855	REC_WORD	14.475	n/a	CUPCAKE	n/a	-999	-1	[0, 0, 0]	n/a	catFR1	2	R1486J
348.984	1.44	445217	REC_WORD	20.837	n/a	SHORTS	Clothing	5	-1	[0, 0, 0]	n/a	catFR1	2	R1486J
350.424	2.457	446657	REC_WORD	22.277	n/a	SKIRT	Clothing	11	-1	[0, 0, 0]	n/a	catFR1	2	R1486J
352.881	5.023	449113	REC_WORD	24.734	n/a	JACKET	Clothing	12	-1	[0, 0, 0]	n/a	catFR1	2	R1486J
357.904	0.449	454136	REC_WORD_VV	29.757	n/a	<>	n/a	-999	-1	[0, 0, 0]	n/a	catFR1	2	R1486J
358.353	16.244	454590	REC_END	n/a	n/a	n/a	n/a	-999	-1	[0, 0, 0]	n/a	catFR1	2	R1486J
374.597	10.0	470831	COUNTDOWN_START	n/a	n/a	n/a	n/a	-999	1	[0, 0, 0]	n/a	catFR1	2	R1486J
384.946	0.0	481179	COUNTDOWN_END	n/a	n/a	n/a	n/a	-999	1	[0, 0, 0]	n/a	catFR1	2	R1486J
384.946	2.284	481179	ENCODING_START	n/a	n/a	n/a	n/a	-999	1	[0, 0, 0]	n/a	catFR1	2	R1486J
387.23	1.6	483464	WORD	n/a	wordpools/wordpool_categorized_EN.txt	DOLPHIN	OceanAnimals	1	1	[0, 0, 0]	n/a	catFR1	2	R1486J
388.846	0.916	485080	WORD_OFF	n/a	n/a	DOLPHIN	OceanAnimals	1	1	[0, 0, 0]	n/a	catFR1	2	R1486J
389.762	1.6	485997	WORD	n/a	wordpools/wordpool_categorized_EN.txt	TURTLE	OceanAnimals	2	1	[0, 0, 0]	n/a	catFR1	2	R1486J
391.364	0.916	487597	WORD_OFF	n/a	n/a	TURTLE	OceanAnimals	2	1	[0, 0, 0]	n/a	catFR1	2	R1486J
392.28	1.6	488514	WORD	n/a	wordpools/wordpool_categorized_EN.txt	DISHWASHER	Appliances	3	1	[0, 0, 0]	n/a	catFR1	2	R1486J
393.896	0.817	490130	WORD_OFF	n/a	n/a	DISHWASHER	Appliances	3	1	[0, 0, 0]	n/a	catFR1	2	R1486J
394.713	1.6	490949	WORD	n/a	wordpools/wordpool_categorized_EN.txt	VACUUM	Appliances	4	1	[0, 0, 0]	n/a	catFR1	2	R1486J
396.313	0.901	492542	WORD_OFF	n/a	n/a	VACUUM	Appliances	4	1	[0, 0, 0]	n/a	catFR1	2	R1486J
397.214	1.6	493444	WORD	n/a	wordpools/wordpool_categorized_EN.txt	ERASER	OfficeSupplies	5	1	[0, 0, 0]	n/a	catFR1	2	R1486J
398.831	0.932	495067	WORD_OFF	n/a	n/a	ERASER	OfficeSupplies	5	1	[0, 0, 0]	n/a	catFR1	2	R1486J
399.763	1.6	495999	WORD	n/a	wordpools/wordpool_categorized_EN.txt	RULER	OfficeSupplies	6	1	[0, 0, 0]	n/a	catFR1	2	R1486J
401.363	0.834	497592	WORD_OFF	n/a	n/a	RULER	OfficeSupplies	6	1	[0, 0, 0]	n/a	catFR1	2	R1486J
402.197	1.6	498427	WORD	n/a	wordpools/wordpool_categorized_EN.txt	OCTOPUS	OceanAnimals	7	1	[0, 0, 0]	n/a	catFR1	2	R1486J
403.813	0.783	500042	WORD_OFF	n/a	n/a	OCTOPUS	OceanAnimals	7	1	[0, 0, 0]	n/a	catFR1	2	R1486J
404.596	1.6	500824	WORD	n/a	wordpools/wordpool_categorized_EN.txt	WHALE	OceanAnimals	8	1	[0, 0, 0]	n/a	catFR1	2	R1486J
406.197	0.831	502432	WORD_OFF	n/a	n/a	WHALE	OceanAnimals	8	1	[0, 0, 0]	n/a	catFR1	2	R1486J
407.028	1.6	503259	WORD	n/a	wordpools/wordpool_categorized_EN.txt	PEN	OfficeSupplies	9	1	[0, 0, 0]	n/a	catFR1	2	R1486J
408.629	0.967	504867	WORD_OFF	n/a	n/a	PEN	OfficeSupplies	9	1	[0, 0, 0]	n/a	catFR1	2	R1486J
409.596	1.6	505829	WORD	n/a	wordpools/wordpool_categorized_EN.txt	PENCIL	OfficeSupplies	10	1	[0, 0, 0]	n/a	catFR1	2	R1486J
411.196	0.967	507430	WORD_OFF	n/a	n/a	PENCIL	OfficeSupplies	10	1	[0, 0, 0]	n/a	catFR1	2	R1486J
412.163	1.6	508392	WORD	n/a	wordpools/wordpool_categorized_EN.txt	DRYER	Appliances	11	1	[0, 0, 0]	n/a	catFR1	2	R1486J
413.763	0.867	509992	WORD_OFF	n/a	n/a	DRYER	Appliances	11	1	[0, 0, 0]	n/a	catFR1	2	R1486J
414.63	1.6	510864	WORD	n/a	wordpools/wordpool_categorized_EN.txt	TOASTER	Appliances	12	1	[0, 0, 0]	n/a	catFR1	2	R1486J
416.23	0.001	512457	WORD_OFF	n/a	n/a	TOASTER	Appliances	12	1	[0, 0, 0]	n/a	catFR1	2	R1486J
416.231	0.0	512461	START	n/a	n/a	n/a	n/a	-999	1	[-999, -999, -999]	n/a	catFR1	2	R1486J
416.231	0.0	512461	PROB	4.549	n/a	n/a	n/a	-999	1	[2, 5, 6]	13.0	catFR1	2	R1486J
416.231	0.0	512465	ENCODING_END	n/a	n/a	n/a	n/a	-999	1	[0, 0, 0]	n/a	catFR1	2	R1486J
416.231	4.567	512465	DISTRACT_START	n/a	n/a	n/a	n/a	-999	1	[0, 0, 0]	n/a	catFR1	2	R1486J
420.798	3.149	517028	PROB	3.132	n/a	n/a	n/a	-999	1	[2, 7, 1]	10.0	catFR1	2	R1486J
423.947	2.366	520177	PROB	2.349	n/a	n/a	n/a	-999	1	[3, 7, 1]	11.0	catFR1	2	R1486J
426.313	2.368	522542	PROB	2.349	n/a	n/a	n/a	-999	1	[1, 1, 5]	7.0	catFR1	2	R1486J
428.681	3.199	524910	PROB	3.182	n/a	n/a	n/a	-999	1	[1, 5, 7]	13.0	catFR1	2	R1486J
431.88	11.549	528109	PROB	11.533	n/a	n/a	n/a	-999	1	[6, 8, 8]	24.0	catFR1	2	R1486J
443.429	0.0	539658	STOP	n/a	n/a	n/a	n/a	-999	1	[-999, -999, -999]	n/a	catFR1	2	R1486J
443.429	2.3	539662	DISTRACT_END	n/a	n/a	n/a	n/a	-999	1	[0, 0, 0]	n/a	catFR1	2	R1486J
445.729	0.0	541958	REC_WORD	0.0	n/a	DISHWASHER	Appliances	3	1	[0, 0, 0]	n/a	catFR1	2	R1486J
445.729	2.114	541962	REC_START	n/a	n/a	n/a	n/a	-999	1	[0, 0, 0]	n/a	catFR1	2	R1486J
447.843	0.384	544072	REC_WORD_VV	2.114	n/a	<>	n/a	-999	1	[0, 0, 0]	n/a	catFR1	2	R1486J
448.227	1.11	544456	REC_WORD	2.498	n/a	DRYER	Appliances	11	1	[0, 0, 0]	n/a	catFR1	2	R1486J
449.337	1.9	545566	REC_WORD	3.608	n/a	WHALE	OceanAnimals	8	1	[0, 0, 0]	n/a	catFR1	2	R1486J
451.237	2.761	547465	REC_WORD	5.508	n/a	OCTOPUS	OceanAnimals	7	1	[0, 0, 0]	n/a	catFR1	2	R1486J
453.998	1.295	550226	REC_WORD	8.269	n/a	DOLPHIN	OceanAnimals	1	1	[0, 0, 0]	n/a	catFR1	2	R1486J
455.293	2.385	551521	REC_WORD	9.564	n/a	TURTLE	OceanAnimals	2	1	[0, 0, 0]	n/a	catFR1	2	R1486J
457.678	15.347	553906	REC_WORD_VV	11.949	n/a	<>	n/a	-999	1	[0, 0, 0]	n/a	catFR1	2	R1486J
473.025	2.248	569253	REC_WORD	27.296	n/a	MICROWAVE	Electronics	-999	1	[0, 0, 0]	n/a	catFR1	2	R1486J
475.273	0.621	571500	REC_WORD_VV	29.544	n/a	<>	n/a	-999	1	[0, 0, 0]	n/a	catFR1	2	R1486J
475.894	3.287	572120	REC_END	n/a	n/a	n/a	n/a	-999	1	[0, 0, 0]	n/a	catFR1	2	R1486J
479.181	10.0	575412	COUNTDOWN_START	n/a	n/a	n/a	n/a	-999	2	[0, 0, 0]	n/a	catFR1	2	R1486J
489.53	0.0	585760	COUNTDOWN_END	n/a	n/a	n/a	n/a	-999	2	[0, 0, 0]	n/a	catFR1	2	R1486J
489.53	2.001	585760	ENCODING_START	n/a	n/a	n/a	n/a	-999	2	[0, 0, 0]	n/a	catFR1	2	R1486J
491.531	1.6	587759	WORD	n/a	wordpools/wordpool_categorized_EN.txt	MARIGOLD	Flowers	1	2	[0, 0, 0]	n/a	catFR1	2	R1486J
493.147	0.817	589375	WORD_OFF	n/a	n/a	MARIGOLD	Flowers	1	2	[0, 0, 0]	n/a	catFR1	2	R1486J
493.964	1.6	590194	WORD	n/a	wordpools/wordpool_categorized_EN.txt	DAISY	Flowers	2	2	[0, 0, 0]	n/a	catFR1	2	R1486J
495.58	0.983	591810	WORD_OFF	n/a	n/a	DAISY	Flowers	2	2	[0, 0, 0]	n/a	catFR1	2	R1486J
496.563	1.6	592794	WORD	n/a	wordpools/wordpool_categorized_EN.txt	GRATER	KitchenTools	3	2	[0, 0, 0]	n/a	catFR1	2	R1486J
498.179	0.767	594410	WORD_OFF	n/a	n/a	GRATER	KitchenTools	3	2	[0, 0, 0]	n/a	catFR1	2	R1486J
498.946	1.6	595177	WORD	n/a	wordpools/wordpool_categorized_EN.txt	STRAINER	KitchenTools	4	2	[0, 0, 0]	n/a	catFR1	2	R1486J
500.547	0.915	596777	WORD_OFF	n/a	n/a	STRAINER	KitchenTools	4	2	[0, 0, 0]	n/a	catFR1	2	R1486J
501.462	1.6	597694	WORD	n/a	wordpools/wordpool_categorized_EN.txt	CHIMPANZEE	Zoo	5	2	[0, 0, 0]	n/a	catFR1	2	R1486J
503.063	0.817	599287	WORD_OFF	n/a	n/a	CHIMPANZEE	Zoo	5	2	[0, 0, 0]	n/a	catFR1	2	R1486J
503.88	1.6	600107	WORD	n/a	wordpools/wordpool_categorized_EN.txt	GORILLA	Zoo	6	2	[0, 0, 0]	n/a	catFR1	2	R1486J
505.48	0.883	601707	WORD_OFF	n/a	n/a	GORILLA	Zoo	6	2	[0, 0, 0]	n/a	catFR1	2	R1486J
506.363	1.6	602594	WORD	n/a	wordpools/wordpool_categorized_EN.txt	LILY	Flowers	7	2	[0, 0, 0]	n/a	catFR1	2	R1486J
507.979	0.784	604210	WORD_OFF	n/a	n/a	LILY	Flowers	7	2	[0, 0, 0]	n/a	catFR1	2	R1486J
508.763	1.6	604991	WORD	n/a	wordpools/wordpool_categorized_EN.txt	ROSE	Flowers	8	2	[0, 0, 0]	n/a	catFR1	2	R1486J
510.364	0.982	606592	WORD_OFF	n/a	n/a	ROSE	Flowers	8	2	[0, 0, 0]	n/a	catFR1	2	R1486J
511.346	1.6	607577	WORD	n/a	wordpools/wordpool_categorized_EN.txt	SPATULA	KitchenTools	9	2	[0, 0, 0]	n/a	catFR1	2	R1486J
512.947	0.883	609177	WORD_OFF	n/a	n/a	SPATULA	KitchenTools	9	2	[0, 0, 0]	n/a	catFR1	2	R1486J
513.83	1.6	610057	WORD	n/a	wordpools/wordpool_categorized_EN.txt	PEELER	KitchenTools	10	2	[0, 0, 0]	n/a	catFR1	2	R1486J
515.446	0.967	611672	WORD_OFF	n/a	n/a	PEELER	KitchenTools	10	2	[0, 0, 0]	n/a	catFR1	2	R1486J
516.413	1.6	612642	WORD	n/a	wordpools/wordpool_categorized_EN.txt	GIRAFFE	Zoo	11	2	[0, 0, 0]	n/a	catFR1	2	R1486J
518.03	0.8	614258	WORD_OFF	n/a	n/a	GIRAFFE	Zoo	11	2	[0, 0, 0]	n/a	catFR1	2	R1486J
518.83	1.6	615054	WORD	n/a	wordpools/wordpool_categorized_EN.txt	ZEBRA	Zoo	12	2	[0, 0, 0]	n/a	catFR1	2	R1486J
520.446	0.001	616670	WORD_OFF	n/a	n/a	ZEBRA	Zoo	12	2	[0, 0, 0]	n/a	catFR1	2	R1486J
520.447	0.0	616673	START	n/a	n/a	n/a	n/a	-999	2	[-999, -999, -999]	n/a	catFR1	2	R1486J
520.447	0.0	616673	PROB	5.233	n/a	n/a	n/a	-999	2	[3, 5, 8]	16.0	catFR1	2	R1486J
520.447	0.0	616678	ENCODING_END	n/a	n/a	n/a	n/a	-999	2	[0, 0, 0]	n/a	catFR1	2	R1486J
520.447	5.25	616678	DISTRACT_START	n/a	n/a	n/a	n/a	-999	2	[0, 0, 0]	n/a	catFR1	2	R1486J
525.697	3.617	621922	PROB	3.599	n/a	n/a	n/a	-999	2	[6, 8, 3]	17.0	catFR1	2	R1486J
529.314	2.266	625539	PROB	2.249	n/a	n/a	n/a	-999	2	[2, 1, 3]	6.0	catFR1	2	R1486J
531.58	2.95	627805	PROB	2.933	n/a	n/a	n/a	-999	2	[1, 3, 2]	6.0	catFR1	2	R1486J
534.53	3.183	630755	PROB	3.167	n/a	n/a	n/a	-999	2	[2, 7, 6]	15.0	catFR1	2	R1486J
537.713	3.518	633938	PROB	3.5	n/a	n/a	n/a	-999	2	[7, 4, 6]	17.0	catFR1	2	R1486J
541.231	0.0	637456	STOP	n/a	n/a	n/a	n/a	-999	2	[-999, -999, -999]	n/a	catFR1	2	R1486J
541.231	2.398	637457	DISTRACT_END	n/a	n/a	n/a	n/a	-999	2	[0, 0, 0]	n/a	catFR1	2	R1486J
543.629	0.139	639855	REC_START	n/a	n/a	n/a	n/a	-999	2	[0, 0, 0]	n/a	catFR1	2	R1486J
543.768	1.281	639993	REC_WORD	0.139	n/a	GIRAFFE	Zoo	11	2	[0, 0, 0]	n/a	catFR1	2	R1486J
545.049	2.316	641274	REC_WORD	1.42	n/a	ZEBRA	Zoo	12	2	[0, 0, 0]	n/a	catFR1	2	R1486J
547.365	0.405	643589	REC_WORD_VV	3.736	n/a	<>	n/a	-999	2	[0, 0, 0]	n/a	catFR1	2	R1486J
547.77	1.592	643994	REC_WORD	4.141	n/a	SPATULA	KitchenTools	9	2	[0, 0, 0]	n/a	catFR1	2	R1486J
549.362	0.991	645586	REC_WORD	5.733	n/a	PEELER	KitchenTools	10	2	[0, 0, 0]	n/a	catFR1	2	R1486J
550.353	2.297	646577	REC_WORD	6.724	n/a	STRAINER	KitchenTools	4	2	[0, 0, 0]	n/a	catFR1	2	R1486J
552.65	10.315	648874	REC_WORD_VV	9.021	n/a	<>	n/a	-999	2	[0, 0, 0]	n/a	catFR1	2	R1486J
562.965	0.999	659189	REC_WORD_VV	19.336	n/a	<>	n/a	-999	2	[0, 0, 0]	n/a	catFR1	2	R1486J
563.964	0.308	660188	REC_WORD_VV	20.335	n/a	<>	n/a	-999	2	[0, 0, 0]	n/a	catFR1	2	R1486J
564.272	0.577	660496	REC_WORD_VV	20.643	n/a	<>	n/a	-999	2	[0, 0, 0]	n/a	catFR1	2	R1486J
564.849	1.314	661073	REC_WORD	21.22	n/a	LILY	Flowers	7	2	[0, 0, 0]	n/a	catFR1	2	R1486J
566.163	1.05	662387	REC_WORD	22.534	n/a	DAISY	Flowers	2	2	[0, 0, 0]	n/a	catFR1	2	R1486J
567.213	6.583	663437	REC_WORD	23.584	n/a	MARIGOLD	Flowers	1	2	[0, 0, 0]	n/a	catFR1	2	R1486J
573.796	4.169	670020	REC_END	n/a	n/a	n/a	n/a	-999	2	[0, 0, 0]	n/a	catFR1	2	R1486J
577.965	10.0	674191	COUNTDOWN_START	n/a	n/a	n/a	n/a	-999	3	[0, 0, 0]	n/a	catFR1	2	R1486J
588.315	0.0	684539	COUNTDOWN_END	n/a	n/a	n/a	n/a	-999	3	[0, 0, 0]	n/a	catFR1	2	R1486J
588.315	2.183	684539	ENCODING_START	n/a	n/a	n/a	n/a	-999	3	[0, 0, 0]	n/a	catFR1	2	R1486J
590.498	1.6	686726	WORD	n/a	wordpools/wordpool_categorized_EN.txt	CHEESECAKE	Desserts	1	3	[0, 0, 0]	n/a	catFR1	2	R1486J
592.098	0.933	688319	WORD_OFF	n/a	n/a	CHEESECAKE	Desserts	1	3	[0, 0, 0]	n/a	catFR1	2	R1486J
593.031	1.6	689259	WORD	n/a	wordpools/wordpool_categorized_EN.txt	JELLO	Desserts	2	3	[0, 0, 0]	n/a	catFR1	2	R1486J
594.648	0.9	690875	WORD_OFF	n/a	n/a	JELLO	Desserts	2	3	[0, 0, 0]	n/a	catFR1	2	R1486J
595.548	1.6	691769	WORD	n/a	wordpools/wordpool_categorized_EN.txt	TONGS	KitchenTools	3	3	[0, 0, 0]	n/a	catFR1	2	R1486J
597.148	0.967	693370	WORD_OFF	n/a	n/a	TONGS	KitchenTools	3	3	[0, 0, 0]	n/a	catFR1	2	R1486J
598.115	1.6	694339	WORD	n/a	wordpools/wordpool_categorized_EN.txt	LADLE	KitchenTools	4	3	[0, 0, 0]	n/a	catFR1	2	R1486J
599.731	0.849	695955	WORD_OFF	n/a	n/a	LADLE	KitchenTools	4	3	[0, 0, 0]	n/a	catFR1	2	R1486J
600.58	1.6	696804	WORD	n/a	wordpools/wordpool_categorized_EN.txt	SPEAKER	Electronics	5	3	[0, 0, 0]	n/a	catFR1	2	R1486J
602.18	0.834	698405	WORD_OFF	n/a	n/a	SPEAKER	Electronics	5	3	[0, 0, 0]	n/a	catFR1	2	R1486J
603.014	1.6	699239	WORD	n/a	wordpools/wordpool_categorized_EN.txt	SCANNER	Electronics	6	3	[0, 0, 0]	n/a	catFR1	2	R1486J
604.614	0.9	700840	WORD_OFF	n/a	n/a	SCANNER	Electronics	6	3	[0, 0, 0]	n/a	catFR1	2	R1486J
605.514	1.6	701741	WORD	n/a	wordpools/wordpool_categorized_EN.txt	COLANDER	KitchenTools	7	3	[0, 0, 0]	n/a	catFR1	2	R1486J
607.114	0.802	703335	WORD_OFF	n/a	n/a	COLANDER	KitchenTools	7	3	[0, 0, 0]	n/a	catFR1	2	R1486J
607.916	1.6	704139	WORD	n/a	wordpools/wordpool_categorized_EN.txt	KNIFE	KitchenTools	8	3	[0, 0, 0]	n/a	catFR1	2	R1486J
609.514	0.817	705740	WORD_OFF	n/a	n/a	KNIFE	KitchenTools	8	3	[0, 0, 0]	n/a	catFR1	2	R1486J
610.331	1.6	706551	WORD	n/a	wordpools/wordpool_categorized_EN.txt	TABLET	Electronics	9	3	[0, 0, 0]	n/a	catFR1	2	R1486J
611.948	0.783	708174	WORD_OFF	n/a	n/a	TABLET	Electronics	9	3	[0, 0, 0]	n/a	catFR1	2	R1486J
612.731	1.6	708956	WORD	n/a	wordpools/wordpool_categorized_EN.txt	COMPUTER	Electronics	10	3	[0, 0, 0]	n/a	catFR1	2	R1486J
614.331	0.883	710557	WORD_OFF	n/a	n/a	COMPUTER	Electronics	10	3	[0, 0, 0]	n/a	catFR1	2	R1486J
615.214	1.6	711436	WORD	n/a	wordpools/wordpool_categorized_EN.txt	CUPCAKE	Desserts	11	3	[0, 0, 0]	n/a	catFR1	2	R1486J
616.815	0.783	713037	WORD_OFF	n/a	n/a	CUPCAKE	Desserts	11	3	[0, 0, 0]	n/a	catFR1	2	R1486J
617.598	1.6	713818	WORD	n/a	wordpools/wordpool_categorized_EN.txt	PUDDING	Desserts	12	3	[0, 0, 0]	n/a	catFR1	2	R1486J
619.198	0.0	715419	WORD_OFF	n/a	n/a	PUDDING	Desserts	12	3	[0, 0, 0]	n/a	catFR1	2	R1486J
619.198	0.001	715419	PROB	5.083	n/a	n/a	n/a	-999	3	[5, 2, 3]	10.0	catFR1	2	R1486J
619.199	0.0	715420	START	n/a	n/a	n/a	n/a	-999	3	[-999, -999, -999]	n/a	catFR1	2	R1486J
619.199	0.0	715427	ENCODING_END	n/a	n/a	n/a	n/a	-999	3	[0, 0, 0]	n/a	catFR1	2	R1486J
619.199	5.099	715427	DISTRACT_START	n/a	n/a	n/a	n/a	-999	3	[0, 0, 0]	n/a	catFR1	2	R1486J
624.298	2.5	720519	PROB	2.483	n/a	n/a	n/a	-999	3	[4, 6, 2]	12.0	catFR1	2	R1486J
626.798	2.999	723019	PROB	2.982	n/a	n/a	n/a	-999	3	[8, 3, 6]	17.0	catFR1	2	R1486J
629.797	3.051	726018	PROB	3.034	n/a	n/a	n/a	-999	3	[3, 2, 6]	11.0	catFR1	2	R1486J
632.848	3.95	729069	PROB	3.933	n/a	n/a	n/a	-999	3	[3, 5, 7]	15.0	catFR1	2	R1486J
636.798	2.983	733019	PROB	2.966	n/a	n/a	n/a	-999	3	[6, 1, 8]	15.0	catFR1	2	R1486J
639.781	0.0	736002	STOP	n/a	n/a	n/a	n/a	-999	3	[-999, -999, -999]	n/a	catFR1	2	R1486J
639.781	2.283	736003	DISTRACT_END	n/a	n/a	n/a	n/a	-999	3	[0, 0, 0]	n/a	catFR1	2	R1486J
642.064	0.462	738288	REC_START	n/a	n/a	n/a	n/a	-999	3	[0, 0, 0]	n/a	catFR1	2	R1486J
642.526	1.349	738747	REC_WORD	0.462	n/a	COMPUTER	Electronics	10	3	[0, 0, 0]	n/a	catFR1	2	R1486J
643.875	1.78	740095	REC_WORD	1.811	n/a	TABLET	Electronics	9	3	[0, 0, 0]	n/a	catFR1	2	R1486J
645.655	4.114	741875	REC_WORD_VV	3.591	n/a	<>	n/a	-999	3	[0, 0, 0]	n/a	catFR1	2	R1486J
649.769	12.871	745989	REC_WORD_VV	7.705	n/a	<>	n/a	-999	3	[0, 0, 0]	n/a	catFR1	2	R1486J
662.64	0.789	758860	REC_WORD	20.576	n/a	GORILLA	Zoo	-999	3	[0, 0, 0]	n/a	catFR1	2	R1486J
663.429	3.636	759649	REC_WORD	21.365	n/a	CHIMPANZEE	Zoo	-999	3	[0, 0, 0]	n/a	catFR1	2	R1486J
667.065	5.209	763285	REC_WORD_VV	25.001	n/a	<>	n/a	-999	3	[0, 0, 0]	n/a	catFR1	2	R1486J
672.274	22.556	768491	REC_END	n/a	n/a	n/a	n/a	-999	3	[0, 0, 0]	n/a	catFR1	2	R1486J
694.83	10.0	791051	COUNTDOWN_START	n/a	n/a	n/a	n/a	-999	4	[0, 0, 0]	n/a	catFR1	2	R1486J
705.179	0.0	801400	COUNTDOWN_END	n/a	n/a	n/a	n/a	-999	4	[0, 0, 0]	n/a	catFR1	2	R1486J
705.179	1.801	801400	ENCODING_START	n/a	n/a	n/a	n/a	-999	4	[0, 0, 0]	n/a	catFR1	2	R1486J
706.98	1.6	803196	WORD	n/a	wordpools/wordpool_categorized_EN.txt	ORANGUTAN	Zoo	1	4	[0, 0, 0]	n/a	catFR1	2	R1486J
708.597	0.982	804819	WORD_OFF	n/a	n/a	ORANGUTAN	Zoo	1	4	[0, 0, 0]	n/a	catFR1	2	R1486J
709.579	1.6	805796	WORD	n/a	wordpools/wordpool_categorized_EN.txt	MONKEY	Zoo	2	4	[0, 0, 0]	n/a	catFR1	2	R1486J
711.18	0.851	807397	WORD_OFF	n/a	n/a	MONKEY	Zoo	2	4	[0, 0, 0]	n/a	catFR1	2	R1486J
712.031	1.6	808254	WORD	n/a	wordpools/wordpool_categorized_EN.txt	CEDAR	Trees	3	4	[0, 0, 0]	n/a	catFR1	2	R1486J
713.646	0.967	809869	WORD_OFF	n/a	n/a	CEDAR	Trees	3	4	[0, 0, 0]	n/a	catFR1	2	R1486J
714.613	1.6	810831	WORD	n/a	wordpools/wordpool_categorized_EN.txt	BIRCH	Trees	4	4	[0, 0, 0]	n/a	catFR1	2	R1486J
716.213	0.867	812432	WORD_OFF	n/a	n/a	BIRCH	Trees	4	4	[0, 0, 0]	n/a	catFR1	2	R1486J
717.08	1.6	813296	WORD	n/a	wordpools/wordpool_categorized_EN.txt	SPOON	KitchenTools	5	4	[0, 0, 0]	n/a	catFR1	2	R1486J
718.697	0.816	814912	WORD_OFF	n/a	n/a	SPOON	KitchenTools	5	4	[0, 0, 0]	n/a	catFR1	2	R1486J
719.513	1.6	815731	WORD	n/a	wordpools/wordpool_categorized_EN.txt	FORK	KitchenTools	6	4	[0, 0, 0]	n/a	catFR1	2	R1486J
721.129	0.8	817347	WORD_OFF	n/a	n/a	FORK	KitchenTools	6	4	[0, 0, 0]	n/a	catFR1	2	R1486J
721.929	1.6	818151	WORD	n/a	wordpools/wordpool_categorized_EN.txt	EVERGREEN	Trees	7	4	[0, 0, 0]	n/a	catFR1	2	R1486J
723.53	0.85	819752	WORD_OFF	n/a	n/a	EVERGREEN	Trees	7	4	[0, 0, 0]	n/a	catFR1	2	R1486J
724.38	1.6	820601	WORD	n/a	wordpools/wordpool_categorized_EN.txt	ELM	Trees	8	4	[0, 0, 0]	n/a	catFR1	2	R1486J
725.995	0.801	822217	WORD_OFF	n/a	n/a	ELM	Trees	8	4	[0, 0, 0]	n/a	catFR1	2	R1486J
726.796	1.6	823013	WORD	n/a	wordpools/wordpool_categorized_EN.txt	WHISK	KitchenTools	9	4	[0, 0, 0]	n/a	catFR1	2	R1486J
728.413	0.984	824629	WORD_OFF	n/a	n/a	WHISK	KitchenTools	9	4	[0, 0, 0]	n/a	catFR1	2	R1486J
729.397	1.6	825614	WORD	n/a	wordpools/wordpool_categorized_EN.txt	CORKSCREW	KitchenTools	10	4	[0, 0, 0]	n/a	catFR1	2	R1486J
731.013	0.866	827229	WORD_OFF	n/a	n/a	CORKSCREW	KitchenTools	10	4	[0, 0, 0]	n/a	catFR1	2	R1486J
731.879	1.6	828101	WORD	n/a	wordpools/wordpool_categorized_EN.txt	ELEPHANT	Zoo	11	4	[0, 0, 0]	n/a	catFR1	2	R1486J
733.479	0.784	829694	WORD_OFF	n/a	n/a	ELEPHANT	Zoo	11	4	[0, 0, 0]	n/a	catFR1	2	R1486J
734.263	1.6	830483	WORD	n/a	wordpools/wordpool_categorized_EN.txt	BEAR	Zoo	12	4	[0, 0, 0]	n/a	catFR1	2	R1486J
735.863	0.001	832080	PROB	3.916	n/a	n/a	n/a	-999	4	[1, 4, 5]	10.0	catFR1	2	R1486J
735.864	0.0	832081	START	n/a	n/a	n/a	n/a	-999	4	[-999, -999, -999]	n/a	catFR1	2	R1486J
735.863	0.001	832084	WORD_OFF	n/a	n/a	BEAR	Zoo	12	4	[0, 0, 0]	n/a	catFR1	2	R1486J
735.864	0.0	832084	ENCODING_END	n/a	n/a	n/a	n/a	-999	4	[0, 0, 0]	n/a	catFR1	2	R1486J
735.864	3.932	832084	DISTRACT_START	n/a	n/a	n/a	n/a	-999	4	[0, 0, 0]	n/a	catFR1	2	R1486J
739.796	6.384	836012	PROB	6.366	n/a	n/a	n/a	-999	4	[5, 2, 3]	10.0	catFR1	2	R1486J
746.18	4.066	842396	PROB	4.049	n/a	n/a	n/a	-999	4	[8, 8, 1]	17.0	catFR1	2	R1486J
750.246	5.183	846462	PROB	5.166	n/a	n/a	n/a	-999	4	[6, 7, 2]	15.0	catFR1	2	R1486J
755.429	3.452	851645	PROB	3.434	n/a	n/a	n/a	-999	4	[8, 4, 1]	13.0	catFR1	2	R1486J
758.881	0.0	855096	DISTRACT_END	n/a	n/a	n/a	n/a	-999	4	[0, 0, 0]	n/a	catFR1	2	R1486J
758.881	2.3	855097	STOP	n/a	n/a	n/a	n/a	-999	4	[-999, -999, -999]	n/a	catFR1	2	R1486J
761.181	0.033	857396	REC_START	n/a	n/a	n/a	n/a	-999	4	[0, 0, 0]	n/a	catFR1	2	R1486J
761.214	0.723	857430	REC_WORD_VV	0.033	n/a	<>	n/a	-999	4	[0, 0, 0]	n/a	catFR1	2	R1486J
761.937	1.368	858153	REC_WORD	0.756	n/a	ORANGUTAN	Zoo	1	4	[0, 0, 0]	n/a	catFR1	2	R1486J
763.305	2.156	859521	REC_WORD	2.124	n/a	MONKEY	Zoo	2	4	[0, 0, 0]	n/a	catFR1	2	R1486J
765.461	1.496	861676	REC_WORD	4.28	n/a	SPOON	KitchenTools	5	4	[0, 0, 0]	n/a	catFR1	2	R1486J
766.957	2.176	863172	REC_WORD	5.776	n/a	FORK	KitchenTools	6	4	[0, 0, 0]	n/a	catFR1	2	R1486J
769.133	2.59	865348	REC_WORD	7.952	n/a	ELEPHANT	Zoo	11	4	[0, 0, 0]	n/a	catFR1	2	R1486J
771.723	3.326	867938	REC_WORD_VV	10.542	n/a	<>	n/a	-999	4	[0, 0, 0]	n/a	catFR1	2	R1486J
775.049	1.0	871264	REC_WORD_VV	13.868	n/a	<>	n/a	-999	4	[0, 0, 0]	n/a	catFR1	2	R1486J
776.049	5.232	872264	REC_WORD_VV	14.868	n/a	<>	n/a	-999	4	[0, 0, 0]	n/a	catFR1	2	R1486J
781.281	10.119	877496	REC_WORD	20.1	n/a	WHISK	KitchenTools	9	4	[0, 0, 0]	n/a	catFR1	2	R1486J
791.4	149.097	887614	REC_END	n/a	n/a	n/a	n/a	-999	4	[0, 0, 0]	n/a	catFR1	2	R1486J
940.497	10.0	1036707	COUNTDOWN_START	n/a	n/a	n/a	n/a	-999	5	[0, 0, 0]	n/a	catFR1	2	R1486J
950.846	0.0	1047055	COUNTDOWN_END	n/a	n/a	n/a	n/a	-999	5	[0, 0, 0]	n/a	catFR1	2	R1486J
950.846	2.083	1047055	ENCODING_START	n/a	n/a	n/a	n/a	-999	5	[0, 0, 0]	n/a	catFR1	2	R1486J
952.929	1.6	1049137	WORD	n/a	wordpools/wordpool_categorized_EN.txt	BASS	Instruments	1	5	[0, 0, 0]	n/a	catFR1	2	R1486J
954.53	0.85	1050737	WORD_OFF	n/a	n/a	BASS	Instruments	1	5	[0, 0, 0]	n/a	catFR1	2	R1486J
955.38	1.6	1051587	WORD	n/a	wordpools/wordpool_categorized_EN.txt	PIANO	Instruments	2	5	[0, 0, 0]	n/a	catFR1	2	R1486J
956.981	0.766	1053187	WORD_OFF	n/a	n/a	PIANO	Instruments	2	5	[0, 0, 0]	n/a	catFR1	2	R1486J
957.747	1.6	1053954	WORD	n/a	wordpools/wordpool_categorized_EN.txt	JUICE	Beverages	3	5	[0, 0, 0]	n/a	catFR1	2	R1486J
959.347	0.8	1055555	WORD_OFF	n/a	n/a	JUICE	Beverages	3	5	[0, 0, 0]	n/a	catFR1	2	R1486J
960.147	1.6	1056359	WORD	n/a	wordpools/wordpool_categorized_EN.txt	BEER	Beverages	4	5	[0, 0, 0]	n/a	catFR1	2	R1486J
961.746	0.867	1057959	WORD_OFF	n/a	n/a	BEER	Beverages	4	5	[0, 0, 0]	n/a	catFR1	2	R1486J
962.613	1.6	1058824	WORD	n/a	wordpools/wordpool_categorized_EN.txt	APPLE	Fruit	5	5	[0, 0, 0]	n/a	catFR1	2	R1486J
964.214	0.916	1060424	WORD_OFF	n/a	n/a	APPLE	Fruit	5	5	[0, 0, 0]	n/a	catFR1	2	R1486J
965.13	1.6	1061341	WORD	n/a	wordpools/wordpool_categorized_EN.txt	PEACH	Fruit	6	5	[0, 0, 0]	n/a	catFR1	2	R1486J
966.746	0.8	1062957	WORD_OFF	n/a	n/a	PEACH	Fruit	6	5	[0, 0, 0]	n/a	catFR1	2	R1486J
967.546	1.6	1063754	WORD	n/a	wordpools/wordpool_categorized_EN.txt	TRUMPET	Instruments	7	5	[0, 0, 0]	n/a	catFR1	2	R1486J
969.163	0.95	1065369	WORD_OFF	n/a	n/a	TRUMPET	Instruments	7	5	[0, 0, 0]	n/a	catFR1	2	R1486J
970.113	1.6	1066324	WORD	n/a	wordpools/wordpool_categorized_EN.txt	FLUTE	Instruments	8	5	[0, 0, 0]	n/a	catFR1	2	R1486J
971.713	1.0	1067925	WORD_OFF	n/a	n/a	FLUTE	Instruments	8	5	[0, 0, 0]	n/a	catFR1	2	R1486J
972.713	1.6	1068924	WORD	n/a	wordpools/wordpool_categorized_EN.txt	LEMONADE	Beverages	9	5	[0, 0, 0]	n/a	catFR1	2	R1486J
974.313	0.85	1070525	WORD_OFF	n/a	n/a	LEMONADE	Beverages	9	5	[0, 0, 0]	n/a	catFR1	2	R1486J
975.163	1.6	1071374	WORD	n/a	wordpools/wordpool_categorized_EN.txt	COFFEE	Beverages	10	5	[0, 0, 0]	n/a	catFR1	2	R1486J
976.764	0.766	1072975	WORD_OFF	n/a	n/a	COFFEE	Beverages	10	5	[0, 0, 0]	n/a	catFR1	2	R1486J
977.53	1.6	1073741	WORD	n/a	wordpools/wordpool_categorized_EN.txt	LEMON	Fruit	11	5	[0, 0, 0]	n/a	catFR1	2	R1486J
979.147	0.782	1075357	WORD_OFF	n/a	n/a	LEMON	Fruit	11	5	[0, 0, 0]	n/a	catFR1	2	R1486J
979.929	1.6	1076139	WORD	n/a	wordpools/wordpool_categorized_EN.txt	BANANA	Fruit	12	5	[0, 0, 0]	n/a	catFR1	2	R1486J
981.531	0.0	1077737	START	n/a	n/a	n/a	n/a	-999	5	[-999, -999, -999]	n/a	catFR1	2	R1486J
981.531	0.0	1077737	PROB	3.85	n/a	n/a	n/a	-999	5	[2, 8, 8]	18.0	catFR1	2	R1486J
981.53	0.001	1077739	WORD_OFF	n/a	n/a	BANANA	Fruit	12	5	[0, 0, 0]	n/a	catFR1	2	R1486J
981.531	0.0	1077739	ENCODING_END	n/a	n/a	n/a	n/a	-999	5	[0, 0, 0]	n/a	catFR1	2	R1486J
981.531	3.866	1077739	DISTRACT_START	n/a	n/a	n/a	n/a	-999	5	[0, 0, 0]	n/a	catFR1	2	R1486J
985.397	3.266	1081603	PROB	3.251	n/a	n/a	n/a	-999	5	[4, 2, 4]	10.0	catFR1	2	R1486J
988.663	2.417	1084869	PROB	2.4	n/a	n/a	n/a	-999	5	[2, 6, 3]	11.0	catFR1	2	R1486J
991.08	3.2	1087286	PROB	3.183	n/a	n/a	n/a	-999	5	[4, 4, 3]	11.0	catFR1	2	R1486J
994.28	5.334	1090486	PROB	5.317	n/a	n/a	n/a	-999	5	[4, 7, 2]	13.0	catFR1	2	R1486J
999.614	3.382	1095820	PROB	3.366	n/a	n/a	n/a	-999	5	[4, 3, 3]	10.0	catFR1	2	R1486J
1002.996	0.0	1099202	STOP	n/a	n/a	n/a	n/a	-999	5	[-999, -999, -999]	n/a	catFR1	2	R1486J
1002.996	2.217	1099203	DISTRACT_END	n/a	n/a	n/a	n/a	-999	5	[0, 0, 0]	n/a	catFR1	2	R1486J
1005.213	0.691	1101420	REC_START	n/a	n/a	n/a	n/a	-999	5	[0, 0, 0]	n/a	catFR1	2	R1486J
1005.904	0.975	1102110	REC_WORD	0.691	n/a	APPLE	Fruit	5	5	[0, 0, 0]	n/a	catFR1	2	R1486J
1006.879	1.777	1103084	REC_WORD	1.666	n/a	PEACH	Fruit	6	5	[0, 0, 0]	n/a	catFR1	2	R1486J
1008.656	4.317	1104861	REC_WORD_VV	3.443	n/a	<>	n/a	-999	5	[0, 0, 0]	n/a	catFR1	2	R1486J
1012.973	2.766	1109178	REC_WORD	7.76	n/a	FLUTE	Instruments	8	5	[0, 0, 0]	n/a	catFR1	2	R1486J
1015.739	2.39	1111944	REC_WORD	10.526	n/a	BASS	Instruments	1	5	[0, 0, 0]	n/a	catFR1	2	R1486J
1018.129	0.711	1114334	REC_WORD	12.916	n/a	PIANO	Instruments	2	5	[0, 0, 0]	n/a	catFR1	2	R1486J
1018.84	4.621	1115045	REC_WORD	13.627	n/a	TRUMPET	Instruments	7	5	[0, 0, 0]	n/a	catFR1	2	R1486J
1023.461	3.735	1119666	REC_WORD_VV	18.248	n/a	<>	n/a	-999	5	[0, 0, 0]	n/a	catFR1	2	R1486J
1027.196	0.895	1123401	REC_WORD	21.983	n/a	LEMON	Fruit	11	5	[0, 0, 0]	n/a	catFR1	2	R1486J
1028.091	4.556	1124296	REC_WORD	22.878	n/a	LEMONADE	Beverages	9	5	[0, 0, 0]	n/a	catFR1	2	R1486J
1032.647	2.798	1128851	REC_WORD_VV	27.434	n/a	<>	n/a	-999	5	[0, 0, 0]	n/a	catFR1	2	R1486J
1035.445	2.003	1131653	REC_END	n/a	n/a	n/a	n/a	-999	5	[0, 0, 0]	n/a	catFR1	2	R1486J
1037.448	10.0	1133660	COUNTDOWN_START	n/a	n/a	n/a	n/a	-999	6	[0, 0, 0]	n/a	catFR1	2	R1486J
1047.797	0.0	1144000	COUNTDOWN_END	n/a	n/a	n/a	n/a	-999	6	[0, 0, 0]	n/a	catFR1	2	R1486J
1047.797	1.933	1144008	ENCODING_START	n/a	n/a	n/a	n/a	-999	6	[0, 0, 0]	n/a	catFR1	2	R1486J
1049.73	1.6	1145932	WORD	n/a	wordpools/wordpool_categorized_EN.txt	BROCCOLI	Vegetables	1	6	[0, 0, 0]	n/a	catFR1	2	R1486J
1051.33	0.85	1147533	WORD_OFF	n/a	n/a	BROCCOLI	Vegetables	1	6	[0, 0, 0]	n/a	catFR1	2	R1486J
1052.18	1.6	1148382	WORD	n/a	wordpools/wordpool_categorized_EN.txt	ONION	Vegetables	2	6	[0, 0, 0]	n/a	catFR1	2	R1486J
1053.797	0.916	1150005	WORD_OFF	n/a	n/a	ONION	Vegetables	2	6	[0, 0, 0]	n/a	catFR1	2	R1486J
1054.713	1.6	1150922	WORD	n/a	wordpools/wordpool_categorized_EN.txt	ARM	BodyParts	3	6	[0, 0, 0]	n/a	catFR1	2	R1486J
1056.313	0.851	1152515	WORD_OFF	n/a	n/a	ARM	BodyParts	3	6	[0, 0, 0]	n/a	catFR1	2	R1486J
1057.164	1.6	1153372	WORD	n/a	wordpools/wordpool_categorized_EN.txt	NOSE	BodyParts	4	6	[0, 0, 0]	n/a	catFR1	2	R1486J
1058.779	0.818	1154980	WORD_OFF	n/a	n/a	NOSE	BodyParts	4	6	[0, 0, 0]	n/a	catFR1	2	R1486J
1059.597	1.6	1155800	WORD	n/a	wordpools/wordpool_categorized_EN.txt	CROW	Birds	5	6	[0, 0, 0]	n/a	catFR1	2	R1486J
1061.214	0.866	1157422	WORD_OFF	n/a	n/a	CROW	Birds	5	6	[0, 0, 0]	n/a	catFR1	2	R1486J
1062.08	1.6	1158287	WORD	n/a	wordpools/wordpool_categorized_EN.txt	FINCH	Birds	6	6	[0, 0, 0]	n/a	catFR1	2	R1486J
1063.68	0.8	1159887	WORD_OFF	n/a	n/a	FINCH	Birds	6	6	[0, 0, 0]	n/a	catFR1	2	R1486J
1064.48	1.6	1160684	WORD	n/a	wordpools/wordpool_categorized_EN.txt	LETTUCE	Vegetables	7	6	[0, 0, 0]	n/a	catFR1	2	R1486J
1066.096	0.984	1162300	WORD_OFF	n/a	n/a	LETTUCE	Vegetables	7	6	[0, 0, 0]	n/a	catFR1	2	R1486J
1067.08	1.6	1163284	WORD	n/a	wordpools/wordpool_categorized_EN.txt	CAULIFLOWER	Vegetables	8	6	[0, 0, 0]	n/a	catFR1	2	R1486J
1068.68	0.834	1164885	WORD_OFF	n/a	n/a	CAULIFLOWER	Vegetables	8	6	[0, 0, 0]	n/a	catFR1	2	R1486J
1069.514	1.6	1165719	WORD	n/a	wordpools/wordpool_categorized_EN.txt	EAR	BodyParts	9	6	[0, 0, 0]	n/a	catFR1	2	R1486J
1071.13	0.766	1167335	WORD_OFF	n/a	n/a	EAR	BodyParts	9	6	[0, 0, 0]	n/a	catFR1	2	R1486J
1071.896	1.6	1168101	WORD	n/a	wordpools/wordpool_categorized_EN.txt	EYE	BodyParts	10	6	[0, 0, 0]	n/a	catFR1	2	R1486J
1073.496	0.917	1169702	WORD_OFF	n/a	n/a	EYE	BodyParts	10	6	[0, 0, 0]	n/a	catFR1	2	R1486J
1074.413	1.6	1170619	WORD	n/a	wordpools/wordpool_categorized_EN.txt	CARDINAL	Birds	11	6	[0, 0, 0]	n/a	catFR1	2	R1486J
1076.029	0.985	1172235	WORD_OFF	n/a	n/a	CARDINAL	Birds	11	6	[0, 0, 0]	n/a	catFR1	2	R1486J
1077.014	1.6	1173219	WORD	n/a	wordpools/wordpool_categorized_EN.txt	ROBIN	Birds	12	6	[0, 0, 0]	n/a	catFR1	2	R1486J
1078.63	0.001	1174832	PROB	6.165	n/a	n/a	n/a	-999	6	[5, 2, 7]	14.0	catFR1	2	R1486J
1078.631	0.0	1174833	START	n/a	n/a	n/a	n/a	-999	6	[-999, -999, -999]	n/a	catFR1	2	R1486J
1078.63	0.001	1174835	WORD_OFF	n/a	n/a	ROBIN	Birds	12	6	[0, 0, 0]	n/a	catFR1	2	R1486J
1078.631	0.0	1174835	ENCODING_END	n/a	n/a	n/a	n/a	-999	6	[0, 0, 0]	n/a	catFR1	2	R1486J
1078.631	6.181	1174835	DISTRACT_START	n/a	n/a	n/a	n/a	-999	6	[0, 0, 0]	n/a	catFR1	2	R1486J
1084.812	5.75	1181014	PROB	5.734	n/a	n/a	n/a	-999	6	[7, 3, 5]	15.0	catFR1	2	R1486J
1090.562	3.451	1186764	PROB	3.434	n/a	n/a	n/a	-999	6	[8, 5, 7]	20.0	catFR1	2	R1486J
1094.013	4.068	1190215	PROB	4.05	n/a	n/a	n/a	-999	6	[4, 7, 5]	16.0	catFR1	2	R1486J
1098.081	3.615	1194283	PROB	3.598	n/a	n/a	n/a	-999	6	[4, 7, 6]	17.0	catFR1	2	R1486J
1101.696	0.0	1197898	STOP	n/a	n/a	n/a	n/a	-999	6	[-999, -999, -999]	n/a	catFR1	2	R1486J
1101.696	2.4	1197899	DISTRACT_END	n/a	n/a	n/a	n/a	-999	6	[0, 0, 0]	n/a	catFR1	2	R1486J
1104.096	2.5	1200297	REC_START	n/a	n/a	n/a	n/a	-999	6	[0, 0, 0]	n/a	catFR1	2	R1486J
1106.596	1.001	1202797	REC_WORD	2.5	n/a	EYE	BodyParts	10	6	[0, 0, 0]	n/a	catFR1	2	R1486J
1107.597	1.622	1203798	REC_WORD	3.501	n/a	NOSE	BodyParts	4	6	[0, 0, 0]	n/a	catFR1	2	R1486J
1109.219	1.254	1205420	REC_WORD	5.123	n/a	EAR	BodyParts	9	6	[0, 0, 0]	n/a	catFR1	2	R1486J
1110.473	2.821	1206674	REC_WORD	6.377	n/a	ARM	BodyParts	3	6	[0, 0, 0]	n/a	catFR1	2	R1486J
1113.294	3.058	1209495	REC_WORD_VV	9.198	n/a	<>	n/a	-999	6	[0, 0, 0]	n/a	catFR1	2	R1486J
1116.352	2.41	1212553	REC_WORD	12.256	n/a	LETTUCE	Vegetables	7	6	[0, 0, 0]	n/a	catFR1	2	R1486J
1118.762	1.774	1214963	REC_WORD	14.666	n/a	CAULIFLOWER	Vegetables	8	6	[0, 0, 0]	n/a	catFR1	2	R1486J
1120.536	3.019	1216737	REC_WORD	16.44	n/a	BROCCOLI	Vegetables	1	6	[0, 0, 0]	n/a	catFR1	2	R1486J
1123.555	10.768	1219756	REC_WORD_VV	19.459	n/a	<>	n/a	-999	6	[0, 0, 0]	n/a	catFR1	2	R1486J
1134.323	231.19	1230522	REC_END	n/a	n/a	n/a	n/a	-999	6	[0, 0, 0]	n/a	catFR1	2	R1486J
1365.513	10.0	1461711	COUNTDOWN_START	n/a	n/a	n/a	n/a	-999	7	[0, 0, 0]	n/a	catFR1	2	R1486J
1375.863	0.0	1472059	COUNTDOWN_END	n/a	n/a	n/a	n/a	-999	7	[0, 0, 0]	n/a	catFR1	2	R1486J
1375.863	1.967	1472059	ENCODING_START	n/a	n/a	n/a	n/a	-999	7	[0, 0, 0]	n/a	catFR1	2	R1486J
1377.83	1.6	1474021	WORD	n/a	wordpools/wordpool_categorized_EN.txt	IRON	Appliances	1	7	[0, 0, 0]	n/a	catFR1	2	R1486J
1379.43	0.9	1475621	WORD_OFF	n/a	n/a	IRON	Appliances	1	7	[0, 0, 0]	n/a	catFR1	2	R1486J
1380.33	1.6	1476523	WORD	n/a	wordpools/wordpool_categorized_EN.txt	FREEZER	Appliances	2	7	[0, 0, 0]	n/a	catFR1	2	R1486J
1381.946	0.951	1478146	WORD_OFF	n/a	n/a	FREEZER	Appliances	2	7	[0, 0, 0]	n/a	catFR1	2	R1486J
1382.897	1.6	1479086	WORD	n/a	wordpools/wordpool_categorized_EN.txt	TIGER	Zoo	3	7	[0, 0, 0]	n/a	catFR1	2	R1486J
1384.512	0.834	1480702	WORD_OFF	n/a	n/a	TIGER	Zoo	3	7	[0, 0, 0]	n/a	catFR1	2	R1486J
1385.346	1.6	1481536	WORD	n/a	wordpools/wordpool_categorized_EN.txt	PANDA	Zoo	4	7	[0, 0, 0]	n/a	catFR1	2	R1486J
1386.964	0.833	1483159	WORD_OFF	n/a	n/a	PANDA	Zoo	4	7	[0, 0, 0]	n/a	catFR1	2	R1486J
1387.797	1.6	1483986	WORD	n/a	wordpools/wordpool_categorized_EN.txt	LEG	BodyParts	5	7	[0, 0, 0]	n/a	catFR1	2	R1486J
1389.397	0.815	1485586	WORD_OFF	n/a	n/a	LEG	BodyParts	5	7	[0, 0, 0]	n/a	catFR1	2	R1486J
1390.212	1.6	1486406	WORD	n/a	wordpools/wordpool_categorized_EN.txt	KNEE	BodyParts	6	7	[0, 0, 0]	n/a	catFR1	2	R1486J
1391.813	0.917	1488006	WORD_OFF	n/a	n/a	KNEE	BodyParts	6	7	[0, 0, 0]	n/a	catFR1	2	R1486J
1392.73	1.6	1488923	WORD	n/a	wordpools/wordpool_categorized_EN.txt	CHEETAH	Zoo	7	7	[0, 0, 0]	n/a	catFR1	2	R1486J
1394.346	0.783	1490539	WORD_OFF	n/a	n/a	CHEETAH	Zoo	7	7	[0, 0, 0]	n/a	catFR1	2	R1486J
1395.129	1.6	1491320	WORD	n/a	wordpools/wordpool_categorized_EN.txt	LION	Zoo	8	7	[0, 0, 0]	n/a	catFR1	2	R1486J
1396.73	1.0	1492921	WORD_OFF	n/a	n/a	LION	Zoo	8	7	[0, 0, 0]	n/a	catFR1	2	R1486J
1397.73	1.6	1493921	WORD	n/a	wordpools/wordpool_categorized_EN.txt	FINGERS	BodyParts	9	7	[0, 0, 0]	n/a	catFR1	2	R1486J
1399.33	0.866	1495521	WORD_OFF	n/a	n/a	FINGERS	BodyParts	9	7	[0, 0, 0]	n/a	catFR1	2	R1486J
1400.196	1.6	1496386	WORD	n/a	wordpools/wordpool_categorized_EN.txt	HEAD	BodyParts	10	7	[0, 0, 0]	n/a	catFR1	2	R1486J
1401.812	0.851	1498001	WORD_OFF	n/a	n/a	HEAD	BodyParts	10	7	[0, 0, 0]	n/a	catFR1	2	R1486J
1402.663	1.6	1498851	WORD	n/a	wordpools/wordpool_categorized_EN.txt	MIXER	Appliances	11	7	[0, 0, 0]	n/a	catFR1	2	R1486J
1404.28	0.799	1500474	WORD_OFF	n/a	n/a	MIXER	Appliances	11	7	[0, 0, 0]	n/a	catFR1	2	R1486J
1405.079	1.6	1501271	WORD	n/a	wordpools/wordpool_categorized_EN.txt	REFRIGERATOR	Appliances	12	7	[0, 0, 0]	n/a	catFR1	2	R1486J
1406.681	0.0	1502870	PROB	5.115	n/a	n/a	n/a	-999	7	[4, 3, 1]	8.0	catFR1	2	R1486J
1406.68	0.002	1502871	WORD_OFF	n/a	n/a	REFRIGERATOR	Appliances	12	7	[0, 0, 0]	n/a	catFR1	2	R1486J
1406.682	0.0	1502871	ENCODING_END	n/a	n/a	n/a	n/a	-999	7	[0, 0, 0]	n/a	catFR1	2	R1486J
1406.682	0.0	1502871	START	n/a	n/a	n/a	n/a	-999	7	[-999, -999, -999]	n/a	catFR1	2	R1486J
1406.682	5.131	1502879	DISTRACT_START	n/a	n/a	n/a	n/a	-999	7	[0, 0, 0]	n/a	catFR1	2	R1486J
1411.813	2.217	1508002	PROB	2.199	n/a	n/a	n/a	-999	7	[3, 3, 1]	7.0	catFR1	2	R1486J
1414.03	2.984	1510219	PROB	2.966	n/a	n/a	n/a	-999	7	[1, 7, 1]	9.0	catFR1	2	R1486J
1417.014	2.65	1513202	PROB	2.632	n/a	n/a	n/a	-999	7	[1, 6, 3]	10.0	catFR1	2	R1486J
1419.664	2.516	1515852	PROB	2.499	n/a	n/a	n/a	-999	7	[1, 1, 4]	6.0	catFR1	2	R1486J
1422.18	3.783	1518368	PROB	3.766	n/a	n/a	n/a	-999	7	[6, 6, 5]	17.0	catFR1	2	R1486J
1425.963	2.616	1522151	PROB	2.599	n/a	n/a	n/a	-999	7	[7, 8, 1]	16.0	catFR1	2	R1486J
1428.579	0.0	1524767	STOP	n/a	n/a	n/a	n/a	-999	7	[-999, -999, -999]	n/a	catFR1	2	R1486J
1428.579	2.401	1524770	DISTRACT_END	n/a	n/a	n/a	n/a	-999	7	[0, 0, 0]	n/a	catFR1	2	R1486J
1430.98	0.269	1527168	REC_START	n/a	n/a	n/a	n/a	-999	7	[0, 0, 0]	n/a	catFR1	2	R1486J
1431.249	1.317	1527437	REC_WORD	0.269	n/a	MIXER	Appliances	11	7	[0, 0, 0]	n/a	catFR1	2	R1486J
1432.566	1.89	1528754	REC_WORD	1.586	n/a	REFRIGERATOR	Appliances	12	7	[0, 0, 0]	n/a	catFR1	2	R1486J
1434.456	1.439	1530644	REC_WORD	3.476	n/a	IRON	Appliances	1	7	[0, 0, 0]	n/a	catFR1	2	R1486J
1435.895	2.709	1532083	REC_WORD	4.915	n/a	TIGER	Zoo	3	7	[0, 0, 0]	n/a	catFR1	2	R1486J
1438.604	0.658	1534792	REC_WORD_VV	7.624	n/a	<>	n/a	-999	7	[0, 0, 0]	n/a	catFR1	2	R1486J
1439.262	2.726	1535450	REC_WORD	8.282	n/a	PANDA	Zoo	4	7	[0, 0, 0]	n/a	catFR1	2	R1486J
1441.988	7.054	1538176	REC_WORD_VV	11.008	n/a	<>	n/a	-999	7	[0, 0, 0]	n/a	catFR1	2	R1486J
1449.042	3.506	1545229	REC_WORD	18.062	n/a	DISHWASHER	Appliances	-999	7	[0, 0, 0]	n/a	catFR1	2	R1486J
1452.548	1.0	1548735	REC_WORD_VV	21.568	n/a	<>	n/a	-999	7	[0, 0, 0]	n/a	catFR1	2	R1486J
1453.548	1.0	1549735	REC_WORD_VV	22.568	n/a	<>	n/a	-999	7	[0, 0, 0]	n/a	catFR1	2	R1486J
1454.548	2.148	1550735	REC_WORD_VV	23.568	n/a	<>	n/a	-999	7	[0, 0, 0]	n/a	catFR1	2	R1486J
1456.696	3.542	1552883	REC_WORD_VV	25.716	n/a	<>	n/a	-999	7	[0, 0, 0]	n/a	catFR1	2	R1486J
1460.238	0.963	1556425	REC_WORD_VV	29.258	n/a	<>	n/a	-999	7	[0, 0, 0]	n/a	catFR1	2	R1486J
1461.201	15.547	1557386	REC_END	n/a	n/a	n/a	n/a	-999	7	[0, 0, 0]	n/a	catFR1	2	R1486J
1476.748	10.0	1572942	COUNTDOWN_START	n/a	n/a	n/a	n/a	-999	8	[0, 0, 0]	n/a	catFR1	2	R1486J
1487.097	0.0	1583283	COUNTDOWN_END	n/a	n/a	n/a	n/a	-999	8	[0, 0, 0]	n/a	catFR1	2	R1486J
1487.097	2.034	1583283	ENCODING_START	n/a	n/a	n/a	n/a	-999	8	[0, 0, 0]	n/a	catFR1	2	R1486J
1489.131	1.6	1585320	WORD	n/a	wordpools/wordpool_categorized_EN.txt	FOOT	BodyParts	1	8	[0, 0, 0]	n/a	catFR1	2	R1486J
1490.747	0.851	1586936	WORD_OFF	n/a	n/a	FOOT	BodyParts	1	8	[0, 0, 0]	n/a	catFR1	2	R1486J
1491.598	1.6	1587785	WORD	n/a	wordpools/wordpool_categorized_EN.txt	HAND	BodyParts	2	8	[0, 0, 0]	n/a	catFR1	2	R1486J
1493.198	0.932	1589386	WORD_OFF	n/a	n/a	HAND	BodyParts	2	8	[0, 0, 0]	n/a	catFR1	2	R1486J
1494.13	1.6	1590318	WORD	n/a	wordpools/wordpool_categorized_EN.txt	ANT	Insects	3	8	[0, 0, 0]	n/a	catFR1	2	R1486J
1495.731	0.95	1591918	WORD_OFF	n/a	n/a	ANT	Insects	3	8	[0, 0, 0]	n/a	catFR1	2	R1486J
1496.681	1.6	1592865	WORD	n/a	wordpools/wordpool_categorized_EN.txt	ROACH	Insects	4	8	[0, 0, 0]	n/a	catFR1	2	R1486J
1498.296	0.852	1594481	WORD_OFF	n/a	n/a	ROACH	Insects	4	8	[0, 0, 0]	n/a	catFR1	2	R1486J
1499.148	1.6	1595338	WORD	n/a	wordpools/wordpool_categorized_EN.txt	SPARROW	Birds	5	8	[0, 0, 0]	n/a	catFR1	2	R1486J
1500.748	0.883	1596931	WORD_OFF	n/a	n/a	SPARROW	Birds	5	8	[0, 0, 0]	n/a	catFR1	2	R1486J
1501.631	1.6	1597818	WORD	n/a	wordpools/wordpool_categorized_EN.txt	PIGEON	Birds	6	8	[0, 0, 0]	n/a	catFR1	2	R1486J
1503.248	0.8	1599433	WORD_OFF	n/a	n/a	PIGEON	Birds	6	8	[0, 0, 0]	n/a	catFR1	2	R1486J
1504.048	1.6	1600238	WORD	n/a	wordpools/wordpool_categorized_EN.txt	ELBOW	BodyParts	7	8	[0, 0, 0]	n/a	catFR1	2	R1486J
1505.665	0.949	1601853	WORD_OFF	n/a	n/a	ELBOW	BodyParts	7	8	[0, 0, 0]	n/a	catFR1	2	R1486J
1506.614	1.6	1602800	WORD	n/a	wordpools/wordpool_categorized_EN.txt	TOE	BodyParts	8	8	[0, 0, 0]	n/a	catFR1	2	R1486J
1508.23	0.933	1604416	WORD_OFF	n/a	n/a	TOE	BodyParts	8	8	[0, 0, 0]	n/a	catFR1	2	R1486J
1509.163	1.6	1605348	WORD	n/a	wordpools/wordpool_categorized_EN.txt	GOOSE	Birds	9	8	[0, 0, 0]	n/a	catFR1	2	R1486J
1510.765	0.999	1606949	WORD_OFF	n/a	n/a	GOOSE	Birds	9	8	[0, 0, 0]	n/a	catFR1	2	R1486J
1511.764	1.6	1607948	WORD	n/a	wordpools/wordpool_categorized_EN.txt	HAWK	Birds	10	8	[0, 0, 0]	n/a	catFR1	2	R1486J
1513.365	0.866	1609549	WORD_OFF	n/a	n/a	HAWK	Birds	10	8	[0, 0, 0]	n/a	catFR1	2	R1486J
1514.231	1.6	1610421	WORD	n/a	wordpools/wordpool_categorized_EN.txt	MOTH	Insects	11	8	[0, 0, 0]	n/a	catFR1	2	R1486J
1515.848	0.848	1612036	WORD_OFF	n/a	n/a	MOTH	Insects	11	8	[0, 0, 0]	n/a	catFR1	2	R1486J
1516.696	1.6	1612886	WORD	n/a	wordpools/wordpool_categorized_EN.txt	BEE	Insects	12	8	[0, 0, 0]	n/a	catFR1	2	R1486J
1518.297	0.002	1614481	PROB	5.9	n/a	n/a	n/a	-999	8	[8, 4, 3]	15.0	catFR1	2	R1486J
1518.299	0.0	1614483	START	n/a	n/a	n/a	n/a	-999	8	[-999, -999, -999]	n/a	catFR1	2	R1486J
1518.297	0.002	1614486	WORD_OFF	n/a	n/a	BEE	Insects	12	8	[0, 0, 0]	n/a	catFR1	2	R1486J
1518.299	0.0	1614486	ENCODING_END	n/a	n/a	n/a	n/a	-999	8	[0, 0, 0]	n/a	catFR1	2	R1486J
1518.299	5.915	1614486	DISTRACT_START	n/a	n/a	n/a	n/a	-999	8	[0, 0, 0]	n/a	catFR1	2	R1486J
1524.214	3.283	1620398	PROB	3.266	n/a	n/a	n/a	-999	8	[7, 8, 5]	20.0	catFR1	2	R1486J
1527.497	3.1	1623681	PROB	3.083	n/a	n/a	n/a	-999	8	[5, 4, 1]	10.0	catFR1	2	R1486J
1530.597	3.333	1626781	PROB	3.316	n/a	n/a	n/a	-999	8	[4, 3, 8]	15.0	catFR1	2	R1486J
1533.93	3.134	1630114	PROB	3.115	n/a	n/a	n/a	-999	8	[1, 7, 2]	10.0	catFR1	2	R1486J
1537.064	4.016	1633248	PROB	3.999	n/a	n/a	n/a	-999	8	[7, 7, 6]	20.0	catFR1	2	R1486J
1541.08	0.0	1637263	STOP	n/a	n/a	n/a	n/a	-999	8	[-999, -999, -999]	n/a	catFR1	2	R1486J
1541.08	2.132	1637265	DISTRACT_END	n/a	n/a	n/a	n/a	-999	8	[0, 0, 0]	n/a	catFR1	2	R1486J
1543.212	3.642	1639399	REC_START	n/a	n/a	n/a	n/a	-999	8	[0, 0, 0]	n/a	catFR1	2	R1486J
1546.854	3.208	1643037	REC_WORD	3.642	n/a	FOOT	BodyParts	1	8	[0, 0, 0]	n/a	catFR1	2	R1486J
1550.062	1.924	1646245	REC_WORD	6.85	n/a	KNEE	BodyParts	-999	8	[0, 0, 0]	n/a	catFR1	2	R1486J
1551.986	5.822	1648169	REC_WORD	8.774	n/a	MOTH	Insects	11	8	[0, 0, 0]	n/a	catFR1	2	R1486J
1557.808	0.999	1653991	REC_WORD	14.596	n/a	SPARROW	Birds	5	8	[0, 0, 0]	n/a	catFR1	2	R1486J
1558.807	1.335	1654990	REC_WORD_VV	15.595	n/a	<>	n/a	-999	8	[0, 0, 0]	n/a	catFR1	2	R1486J
1560.142	0.819	1656325	REC_WORD_VV	16.93	n/a	<>	n/a	-999	8	[0, 0, 0]	n/a	catFR1	2	R1486J
1560.961	2.263	1657144	REC_WORD_VV	17.749	n/a	<>	n/a	-999	8	[0, 0, 0]	n/a	catFR1	2	R1486J
1563.224	0.974	1659406	REC_WORD	20.012	n/a	ANT	Insects	3	8	[0, 0, 0]	n/a	catFR1	2	R1486J
1564.198	2.402	1660380	REC_WORD	20.986	n/a	ROACH	Insects	4	8	[0, 0, 0]	n/a	catFR1	2	R1486J
1566.6	1.0	1662782	REC_WORD_VV	23.388	n/a	<>	n/a	-999	8	[0, 0, 0]	n/a	catFR1	2	R1486J
1567.6	3.187	1663782	REC_WORD_VV	24.388	n/a	<>	n/a	-999	8	[0, 0, 0]	n/a	catFR1	2	R1486J
1570.787	0.435	1666969	REC_WORD_VV	27.575	n/a	<>	n/a	-999	8	[0, 0, 0]	n/a	catFR1	2	R1486J
1571.222	2.205	1667404	REC_WORD	28.01	n/a	PIGEON	Birds	6	8	[0, 0, 0]	n/a	catFR1	2	R1486J
1573.427	123.403	1669610	REC_END	n/a	n/a	n/a	n/a	-999	8	[0, 0, 0]	n/a	catFR1	2	R1486J
1696.83	10.0	1793009	COUNTDOWN_START	n/a	n/a	n/a	n/a	-999	9	[0, 0, 0]	n/a	catFR1	2	R1486J
1707.179	0.0	1803357	COUNTDOWN_END	n/a	n/a	n/a	n/a	-999	9	[0, 0, 0]	n/a	catFR1	2	R1486J
1707.179	2.217	1803357	ENCODING_START	n/a	n/a	n/a	n/a	-999	9	[0, 0, 0]	n/a	catFR1	2	R1486J
1709.396	1.6	1805574	WORD	n/a	wordpools/wordpool_categorized_EN.txt	PAPER	OfficeSupplies	1	9	[0, 0, 0]	n/a	catFR1	2	R1486J
1710.997	1.0	1807175	WORD_OFF	n/a	n/a	PAPER	OfficeSupplies	1	9	[0, 0, 0]	n/a	catFR1	2	R1486J
1711.997	1.6	1808174	WORD	n/a	wordpools/wordpool_categorized_EN.txt	FOLDER	OfficeSupplies	2	9	[0, 0, 0]	n/a	catFR1	2	R1486J
1713.613	0.984	1809790	WORD_OFF	n/a	n/a	FOLDER	OfficeSupplies	2	9	[0, 0, 0]	n/a	catFR1	2	R1486J
1714.597	1.6	1810774	WORD	n/a	wordpools/wordpool_categorized_EN.txt	PUZZLE	Toys	3	9	[0, 0, 0]	n/a	catFR1	2	R1486J
1716.212	0.817	1812390	WORD_OFF	n/a	n/a	PUZZLE	Toys	3	9	[0, 0, 0]	n/a	catFR1	2	R1486J
1717.029	1.6	1813209	WORD	n/a	wordpools/wordpool_categorized_EN.txt	BLOCKS	Toys	4	9	[0, 0, 0]	n/a	catFR1	2	R1486J
1718.646	0.833	1814825	WORD_OFF	n/a	n/a	BLOCKS	Toys	4	9	[0, 0, 0]	n/a	catFR1	2	R1486J
1719.479	1.6	1815659	WORD	n/a	wordpools/wordpool_categorized_EN.txt	VALLEY	Landscapes	5	9	[0, 0, 0]	n/a	catFR1	2	R1486J
1721.08	0.783	1817260	WORD_OFF	n/a	n/a	VALLEY	Landscapes	5	9	[0, 0, 0]	n/a	catFR1	2	R1486J
1721.863	1.6	1818042	WORD	n/a	wordpools/wordpool_categorized_EN.txt	FOREST	Landscapes	6	9	[0, 0, 0]	n/a	catFR1	2	R1486J
1723.463	0.85	1819642	WORD_OFF	n/a	n/a	FOREST	Landscapes	6	9	[0, 0, 0]	n/a	catFR1	2	R1486J
1724.313	1.6	1820491	WORD	n/a	wordpools/wordpool_categorized_EN.txt	GLUE	OfficeSupplies	7	9	[0, 0, 0]	n/a	catFR1	2	R1486J
1725.914	0.781	1822092	WORD_OFF	n/a	n/a	GLUE	OfficeSupplies	7	9	[0, 0, 0]	n/a	catFR1	2	R1486J
1726.695	1.6	1822874	WORD	n/a	wordpools/wordpool_categorized_EN.txt	BINDER	OfficeSupplies	8	9	[0, 0, 0]	n/a	catFR1	2	R1486J
1728.297	0.885	1824474	WORD_OFF	n/a	n/a	BINDER	OfficeSupplies	8	9	[0, 0, 0]	n/a	catFR1	2	R1486J
1729.182	1.6	1825361	WORD	n/a	wordpools/wordpool_categorized_EN.txt	FOOTBALL	Toys	9	9	[0, 0, 0]	n/a	catFR1	2	R1486J
1730.797	0.999	1826977	WORD_OFF	n/a	n/a	FOOTBALL	Toys	9	9	[0, 0, 0]	n/a	catFR1	2	R1486J
1731.796	1.6	1827977	WORD	n/a	wordpools/wordpool_categorized_EN.txt	FRISBEE	Toys	10	9	[0, 0, 0]	n/a	catFR1	2	R1486J
1733.396	1.0	1829577	WORD_OFF	n/a	n/a	FRISBEE	Toys	10	9	[0, 0, 0]	n/a	catFR1	2	R1486J
1734.396	1.6	1830577	WORD	n/a	wordpools/wordpool_categorized_EN.txt	OCEAN	Landscapes	11	9	[0, 0, 0]	n/a	catFR1	2	R1486J
1735.997	0.784	1832178	WORD_OFF	n/a	n/a	OCEAN	Landscapes	11	9	[0, 0, 0]	n/a	catFR1	2	R1486J
1736.781	1.6	1832959	WORD	n/a	wordpools/wordpool_categorized_EN.txt	ISLAND	Landscapes	12	9	[0, 0, 0]	n/a	catFR1	2	R1486J
1738.398	0.0	1834573	PROB	4.483	n/a	n/a	n/a	-999	9	[8, 8, 5]	21.0	catFR1	2	R1486J
1738.397	0.006	1834575	WORD_OFF	n/a	n/a	ISLAND	Landscapes	12	9	[0, 0, 0]	n/a	catFR1	2	R1486J
1738.403	0.0	1834578	START	n/a	n/a	n/a	n/a	-999	9	[-999, -999, -999]	n/a	catFR1	2	R1486J
1738.403	0.0	1834582	ENCODING_END	n/a	n/a	n/a	n/a	-999	9	[0, 0, 0]	n/a	catFR1	2	R1486J
1738.403	4.494	1834582	DISTRACT_START	n/a	n/a	n/a	n/a	-999	9	[0, 0, 0]	n/a	catFR1	2	R1486J
1742.897	3.217	1839072	PROB	3.199	n/a	n/a	n/a	-999	9	[1, 1, 3]	5.0	catFR1	2	R1486J
1746.114	2.883	1842289	PROB	2.865	n/a	n/a	n/a	-999	9	[6, 6, 8]	20.0	catFR1	2	R1486J
1748.997	3.101	1845172	PROB	3.083	n/a	n/a	n/a	-999	9	[2, 1, 8]	11.0	catFR1	2	R1486J
1752.098	1.948	1848273	PROB	1.932	n/a	n/a	n/a	-999	9	[1, 1, 2]	3.0	catFR1	2	R1486J
1754.046	3.952	1850221	PROB	3.933	n/a	n/a	n/a	-999	9	[1, 1, 7]	9.0	catFR1	2	R1486J
1757.998	3.198	1854172	PROB	3.182	n/a	n/a	n/a	-999	9	[1, 3, 6]	10.0	catFR1	2	R1486J
1761.196	0.0	1857368	DISTRACT_END	n/a	n/a	n/a	n/a	-999	9	[0, 0, 0]	n/a	catFR1	2	R1486J
1761.196	2.033	1857370	STOP	n/a	n/a	n/a	n/a	-999	9	[-999, -999, -999]	n/a	catFR1	2	R1486J
1763.229	0.296	1859405	REC_START	n/a	n/a	n/a	n/a	-999	9	[0, 0, 0]	n/a	catFR1	2	R1486J
1763.525	0.744	1859699	REC_WORD	0.296	n/a	FRISBEE	Toys	10	9	[0, 0, 0]	n/a	catFR1	2	R1486J
1764.269	1.119	1860443	REC_WORD	1.04	n/a	FOOTBALL	Toys	9	9	[0, 0, 0]	n/a	catFR1	2	R1486J
1765.388	5.436	1861562	REC_WORD	2.159	n/a	OCEAN	Landscapes	11	9	[0, 0, 0]	n/a	catFR1	2	R1486J
1770.824	1.674	1866998	REC_WORD	7.595	n/a	PAPER	OfficeSupplies	1	9	[0, 0, 0]	n/a	catFR1	2	R1486J
1772.498	4.496	1868672	REC_WORD	9.269	n/a	BINDER	OfficeSupplies	8	9	[0, 0, 0]	n/a	catFR1	2	R1486J
1776.994	12.009	1873168	REC_WORD_VV	13.765	n/a	<>	n/a	-999	9	[0, 0, 0]	n/a	catFR1	2	R1486J
1789.003	0.667	1885176	REC_WORD_VV	25.774	n/a	<>	n/a	-999	9	[0, 0, 0]	n/a	catFR1	2	R1486J
1789.67	0.441	1885843	REC_WORD	26.441	n/a	PAPER	OfficeSupplies	1	9	[0, 0, 0]	n/a	catFR1	2	R1486J
1790.111	0.739	1886284	REC_WORD	26.882	n/a	BINDER	OfficeSupplies	8	9	[0, 0, 0]	n/a	catFR1	2	R1486J
1790.85	1.197	1887023	REC_WORD_VV	27.621	n/a	<>	n/a	-999	9	[0, 0, 0]	n/a	catFR1	2	R1486J
1792.047	1.403	1888220	REC_WORD	28.818	n/a	ERASER	OfficeSupplies	-999	9	[0, 0, 0]	n/a	catFR1	2	R1486J
1793.45	94.096	1889623	REC_END	n/a	n/a	n/a	n/a	-999	9	[0, 0, 0]	n/a	catFR1	2	R1486J
1887.546	10.0	1983720	COUNTDOWN_START	n/a	n/a	n/a	n/a	-999	10	[0, 0, 0]	n/a	catFR1	2	R1486J
1897.897	0.0	1994069	COUNTDOWN_END	n/a	n/a	n/a	n/a	-999	10	[0, 0, 0]	n/a	catFR1	2	R1486J
1897.897	1.882	1994069	ENCODING_START	n/a	n/a	n/a	n/a	-999	10	[0, 0, 0]	n/a	catFR1	2	R1486J
1899.779	1.6	1995948	WORD	n/a	wordpools/wordpool_categorized_EN.txt	MOPED	Vehicles	1	10	[0, 0, 0]	n/a	catFR1	2	R1486J
1901.38	0.8	1997548	WORD_OFF	n/a	n/a	MOPED	Vehicles	1	10	[0, 0, 0]	n/a	catFR1	2	R1486J
1902.18	1.6	1998352	WORD	n/a	wordpools/wordpool_categorized_EN.txt	TRUCK	Vehicles	2	10	[0, 0, 0]	n/a	catFR1	2	R1486J
1903.796	0.916	1999968	WORD_OFF	n/a	n/a	TRUCK	Vehicles	2	10	[0, 0, 0]	n/a	catFR1	2	R1486J
1904.712	1.6	2000885	WORD	n/a	wordpools/wordpool_categorized_EN.txt	STEREO	Electronics	3	10	[0, 0, 0]	n/a	catFR1	2	R1486J
1906.312	0.967	2002486	WORD_OFF	n/a	n/a	STEREO	Electronics	3	10	[0, 0, 0]	n/a	catFR1	2	R1486J
1907.279	1.6	2003448	WORD	n/a	wordpools/wordpool_categorized_EN.txt	RADIO	Electronics	4	10	[0, 0, 0]	n/a	catFR1	2	R1486J
1908.88	0.8	2005048	WORD_OFF	n/a	n/a	RADIO	Electronics	4	10	[0, 0, 0]	n/a	catFR1	2	R1486J
1909.68	1.6	2005853	WORD	n/a	wordpools/wordpool_categorized_EN.txt	CLOUD	Weather	5	10	[0, 0, 0]	n/a	catFR1	2	R1486J
1911.296	0.899	2007468	WORD_OFF	n/a	n/a	CLOUD	Weather	5	10	[0, 0, 0]	n/a	catFR1	2	R1486J
1912.195	1.6	2008363	WORD	n/a	wordpools/wordpool_categorized_EN.txt	LIGHTNING	Weather	6	10	[0, 0, 0]	n/a	catFR1	2	R1486J
1913.795	0.817	2009963	WORD_OFF	n/a	n/a	LIGHTNING	Weather	6	10	[0, 0, 0]	n/a	catFR1	2	R1486J
1914.612	1.6	2010783	WORD	n/a	wordpools/wordpool_categorized_EN.txt	VAN	Vehicles	7	10	[0, 0, 0]	n/a	catFR1	2	R1486J
1916.212	0.785	2012383	WORD_OFF	n/a	n/a	VAN	Vehicles	7	10	[0, 0, 0]	n/a	catFR1	2	R1486J
1916.997	1.6	2013165	WORD	n/a	wordpools/wordpool_categorized_EN.txt	MOTORCYCLE	Vehicles	8	10	[0, 0, 0]	n/a	catFR1	2	R1486J
1918.597	0.965	2014766	WORD_OFF	n/a	n/a	MOTORCYCLE	Vehicles	8	10	[0, 0, 0]	n/a	catFR1	2	R1486J
1919.562	1.6	2015735	WORD	n/a	wordpools/wordpool_categorized_EN.txt	SNOW	Weather	9	10	[0, 0, 0]	n/a	catFR1	2	R1486J
1921.163	0.817	2017336	WORD_OFF	n/a	n/a	SNOW	Weather	9	10	[0, 0, 0]	n/a	catFR1	2	R1486J
1921.98	1.6	2018147	WORD	n/a	wordpools/wordpool_categorized_EN.txt	HUMIDITY	Weather	10	10	[0, 0, 0]	n/a	catFR1	2	R1486J
1923.58	0.784	2019748	WORD_OFF	n/a	n/a	HUMIDITY	Weather	10	10	[0, 0, 0]	n/a	catFR1	2	R1486J
1924.364	1.6	2020530	WORD	n/a	wordpools/wordpool_categorized_EN.txt	CALCULATOR	Electronics	11	10	[0, 0, 0]	n/a	catFR1	2	R1486J
1925.98	0.9	2022153	WORD_OFF	n/a	n/a	CALCULATOR	Electronics	11	10	[0, 0, 0]	n/a	catFR1	2	R1486J
1926.88	1.6	2023047	WORD	n/a	wordpools/wordpool_categorized_EN.txt	HEADPHONES	Electronics	12	10	[0, 0, 0]	n/a	catFR1	2	R1486J
1928.496	0.001	2024663	WORD_OFF	n/a	n/a	HEADPHONES	Electronics	12	10	[0, 0, 0]	n/a	catFR1	2	R1486J
1928.497	0.0	2024664	START	n/a	n/a	n/a	n/a	-999	10	[-999, -999, -999]	n/a	catFR1	2	R1486J
1928.497	0.0	2024664	PROB	4.282	n/a	n/a	n/a	-999	10	[3, 6, 5]	14.0	catFR1	2	R1486J
1928.497	0.0	2024671	ENCODING_END	n/a	n/a	n/a	n/a	-999	10	[0, 0, 0]	n/a	catFR1	2	R1486J
1928.497	4.301	2024671	DISTRACT_START	n/a	n/a	n/a	n/a	-999	10	[0, 0, 0]	n/a	catFR1	2	R1486J
1932.798	2.448	2028965	PROB	2.433	n/a	n/a	n/a	-999	10	[7, 1, 3]	11.0	catFR1	2	R1486J
1935.246	3.183	2031413	PROB	3.167	n/a	n/a	n/a	-999	10	[3, 3, 6]	12.0	catFR1	2	R1486J
1938.429	2.351	2034596	PROB	2.333	n/a	n/a	n/a	-999	10	[4, 1, 1]	6.0	catFR1	2	R1486J
1940.78	3.634	2036947	PROB	3.617	n/a	n/a	n/a	-999	10	[3, 5, 3]	11.0	catFR1	2	R1486J
1944.414	3.666	2040581	PROB	3.649	n/a	n/a	n/a	-999	10	[3, 8, 6]	17.0	catFR1	2	R1486J
1948.08	4.849	2044247	PROB	4.832	n/a	n/a	n/a	-999	10	[4, 2, 2]	8.0	catFR1	2	R1486J
1952.929	0.0	2049095	DISTRACT_END	n/a	n/a	n/a	n/a	-999	10	[0, 0, 0]	n/a	catFR1	2	R1486J
1952.929	2.101	2049095	STOP	n/a	n/a	n/a	n/a	-999	10	[-999, -999, -999]	n/a	catFR1	2	R1486J
1955.03	0.639	2051199	REC_START	n/a	n/a	n/a	n/a	-999	10	[0, 0, 0]	n/a	catFR1	2	R1486J
1955.669	1.408	2051835	REC_WORD	0.639	n/a	CLOUD	Weather	5	10	[0, 0, 0]	n/a	catFR1	2	R1486J
1957.077	0.707	2053243	REC_WORD_VV	2.047	n/a	<>	n/a	-999	10	[0, 0, 0]	n/a	catFR1	2	R1486J
1957.784	1.074	2053950	REC_WORD	2.754	n/a	MOPED	Vehicles	1	10	[0, 0, 0]	n/a	catFR1	2	R1486J
1958.858	2.785	2055024	REC_WORD	3.828	n/a	VAN	Vehicles	7	10	[0, 0, 0]	n/a	catFR1	2	R1486J
1961.643	1.792	2057809	REC_WORD_VV	6.613	n/a	<>	n/a	-999	10	[0, 0, 0]	n/a	catFR1	2	R1486J
1963.435	3.453	2059601	REC_WORD	8.405	n/a	TRUCK	Vehicles	2	10	[0, 0, 0]	n/a	catFR1	2	R1486J
1966.888	0.313	2063054	REC_WORD_VV	11.858	n/a	<>	n/a	-999	10	[0, 0, 0]	n/a	catFR1	2	R1486J
1967.201	1.051	2063367	REC_WORD	12.171	n/a	CLOUD	Weather	5	10	[0, 0, 0]	n/a	catFR1	2	R1486J
1968.252	1.0	2064418	REC_WORD_VV	13.222	n/a	<>	n/a	-999	10	[0, 0, 0]	n/a	catFR1	2	R1486J
1969.252	8.555	2065418	REC_WORD_VV	14.222	n/a	<>	n/a	-999	10	[0, 0, 0]	n/a	catFR1	2	R1486J
1977.807	7.443	2073972	REC_WORD	22.777	n/a	CALCULATOR	Electronics	11	10	[0, 0, 0]	n/a	catFR1	2	R1486J
1985.25	95.096	2081417	REC_END	n/a	n/a	n/a	n/a	-999	10	[0, 0, 0]	n/a	catFR1	2	R1486J
2080.346	10.0	2176514	COUNTDOWN_START	n/a	n/a	n/a	n/a	-999	11	[0, 0, 0]	n/a	catFR1	2	R1486J
2090.696	0.0	2186855	COUNTDOWN_END	n/a	n/a	n/a	n/a	-999	11	[0, 0, 0]	n/a	catFR1	2	R1486J
2090.696	2.033	2186862	ENCODING_START	n/a	n/a	n/a	n/a	-999	11	[0, 0, 0]	n/a	catFR1	2	R1486J
2092.729	1.6	2188892	WORD	n/a	wordpools/wordpool_categorized_EN.txt	STOVE	Appliances	1	11	[0, 0, 0]	n/a	catFR1	2	R1486J
2094.346	0.833	2190507	WORD_OFF	n/a	n/a	STOVE	Appliances	1	11	[0, 0, 0]	n/a	catFR1	2	R1486J
2095.179	1.6	2191341	WORD	n/a	wordpools/wordpool_categorized_EN.txt	WASHER	Appliances	2	11	[0, 0, 0]	n/a	catFR1	2	R1486J
2096.779	0.967	2192942	WORD_OFF	n/a	n/a	WASHER	Appliances	2	11	[0, 0, 0]	n/a	catFR1	2	R1486J
2097.746	1.6	2193912	WORD	n/a	wordpools/wordpool_categorized_EN.txt	GRAPE	Fruit	3	11	[0, 0, 0]	n/a	catFR1	2	R1486J
2099.362	0.834	2195527	WORD_OFF	n/a	n/a	GRAPE	Fruit	3	11	[0, 0, 0]	n/a	catFR1	2	R1486J
2100.196	1.6	2196362	WORD	n/a	wordpools/wordpool_categorized_EN.txt	BLUEBERRY	Fruit	4	11	[0, 0, 0]	n/a	catFR1	2	R1486J
2101.796	1.0	2197955	WORD_OFF	n/a	n/a	BLUEBERRY	Fruit	4	11	[0, 0, 0]	n/a	catFR1	2	R1486J
2102.796	1.6	2198954	WORD	n/a	wordpools/wordpool_categorized_EN.txt	CIDER	Beverages	5	11	[0, 0, 0]	n/a	catFR1	2	R1486J
2104.412	0.917	2200578	WORD_OFF	n/a	n/a	CIDER	Beverages	5	11	[0, 0, 0]	n/a	catFR1	2	R1486J
2105.329	1.6	2201494	WORD	n/a	wordpools/wordpool_categorized_EN.txt	WINE	Beverages	6	11	[0, 0, 0]	n/a	catFR1	2	R1486J
2106.945	0.901	2203110	WORD_OFF	n/a	n/a	WINE	Beverages	6	11	[0, 0, 0]	n/a	catFR1	2	R1486J
2107.846	1.6	2204004	WORD	n/a	wordpools/wordpool_categorized_EN.txt	BLENDER	Appliances	7	11	[0, 0, 0]	n/a	catFR1	2	R1486J
2109.447	0.967	2205605	WORD_OFF	n/a	n/a	BLENDER	Appliances	7	11	[0, 0, 0]	n/a	catFR1	2	R1486J
2110.414	1.6	2206575	WORD	n/a	wordpools/wordpool_categorized_EN.txt	OVEN	Appliances	8	11	[0, 0, 0]	n/a	catFR1	2	R1486J
2112.03	0.951	2208190	WORD_OFF	n/a	n/a	OVEN	Appliances	8	11	[0, 0, 0]	n/a	catFR1	2	R1486J
2112.981	1.6	2209145	WORD	n/a	wordpools/wordpool_categorized_EN.txt	LIME	Fruit	9	11	[0, 0, 0]	n/a	catFR1	2	R1486J
2114.581	0.982	2210746	WORD_OFF	n/a	n/a	LIME	Fruit	9	11	[0, 0, 0]	n/a	catFR1	2	R1486J
2115.563	1.6	2211723	WORD	n/a	wordpools/wordpool_categorized_EN.txt	CHERRY	Fruit	10	11	[0, 0, 0]	n/a	catFR1	2	R1486J
2117.179	0.834	2213338	WORD_OFF	n/a	n/a	CHERRY	Fruit	10	11	[0, 0, 0]	n/a	catFR1	2	R1486J
2118.013	1.6	2214172	WORD	n/a	wordpools/wordpool_categorized_EN.txt	SODA	Beverages	11	11	[0, 0, 0]	n/a	catFR1	2	R1486J
2119.613	0.816	2215773	WORD_OFF	n/a	n/a	SODA	Beverages	11	11	[0, 0, 0]	n/a	catFR1	2	R1486J
2120.429	1.6	2216592	WORD	n/a	wordpools/wordpool_categorized_EN.txt	MILK	Beverages	12	11	[0, 0, 0]	n/a	catFR1	2	R1486J
2122.03	0.001	2218189	PROB	4.733	n/a	n/a	n/a	-999	11	[2, 3, 8]	13.0	catFR1	2	R1486J
2122.031	0.0	2218190	START	n/a	n/a	n/a	n/a	-999	11	[-999, -999, -999]	n/a	catFR1	2	R1486J
2122.03	0.001	2218193	WORD_OFF	n/a	n/a	MILK	Beverages	12	11	[0, 0, 0]	n/a	catFR1	2	R1486J
2122.031	0.0	2218193	ENCODING_END	n/a	n/a	n/a	n/a	-999	11	[0, 0, 0]	n/a	catFR1	2	R1486J
2122.031	4.749	2218193	DISTRACT_START	n/a	n/a	n/a	n/a	-999	11	[0, 0, 0]	n/a	catFR1	2	R1486J
2126.78	9.234	2222939	PROB	9.216	n/a	n/a	n/a	-999	11	[2, 4, 7]	13.0	catFR1	2	R1486J
2136.014	4.1	2232173	PROB	4.082	n/a	n/a	n/a	-999	11	[4, 8, 7]	19.0	catFR1	2	R1486J
2140.114	2.833	2236273	PROB	2.815	n/a	n/a	n/a	-999	11	[3, 3, 3]	9.0	catFR1	2	R1486J
2142.947	0.0	2239106	STOP	n/a	n/a	n/a	n/a	-999	11	[-999, -999, -999]	n/a	catFR1	2	R1486J
2142.947	2.315	2239108	DISTRACT_END	n/a	n/a	n/a	n/a	-999	11	[0, 0, 0]	n/a	catFR1	2	R1486J
2145.262	0.041	2241423	REC_START	n/a	n/a	n/a	n/a	-999	11	[0, 0, 0]	n/a	catFR1	2	R1486J
2145.303	0.443	2241461	REC_WORD_VV	0.041	n/a	<>	n/a	-999	11	[0, 0, 0]	n/a	catFR1	2	R1486J
2145.746	1.383	2241904	REC_WORD	0.484	n/a	SODA	Beverages	11	11	[0, 0, 0]	n/a	catFR1	2	R1486J
2147.129	1.832	2243287	REC_WORD	1.867	n/a	MILK	Beverages	12	11	[0, 0, 0]	n/a	catFR1	2	R1486J
2148.961	4.607	2245119	REC_WORD_VV	3.699	n/a	<>	n/a	-999	11	[0, 0, 0]	n/a	catFR1	2	R1486J
2153.568	1.658	2249726	REC_WORD	8.306	n/a	STOVE	Appliances	1	11	[0, 0, 0]	n/a	catFR1	2	R1486J
2155.226	2.49	2251384	REC_WORD	9.964	n/a	OVEN	Appliances	8	11	[0, 0, 0]	n/a	catFR1	2	R1486J
2157.716	6.655	2253874	REC_WORD_VV	12.454	n/a	<>	n/a	-999	11	[0, 0, 0]	n/a	catFR1	2	R1486J
2164.371	1.148	2260529	REC_WORD_VV	19.109	n/a	<>	n/a	-999	11	[0, 0, 0]	n/a	catFR1	2	R1486J
2165.519	2.775	2261677	REC_WORD	20.257	n/a	BLUEBERRY	Fruit	4	11	[0, 0, 0]	n/a	catFR1	2	R1486J
2168.294	3.242	2264451	REC_WORD_VV	23.032	n/a	<>	n/a	-999	11	[0, 0, 0]	n/a	catFR1	2	R1486J
2171.536	3.961	2267693	REC_WORD	26.274	n/a	GRAPE	Fruit	3	11	[0, 0, 0]	n/a	catFR1	2	R1486J
2175.497	10.784	2271656	REC_END	n/a	n/a	n/a	n/a	-999	11	[0, 0, 0]	n/a	catFR1	2	R1486J
2186.281	10.0	2282440	COUNTDOWN_START	n/a	n/a	n/a	n/a	-999	12	[0, 0, 0]	n/a	catFR1	2	R1486J
2196.631	0.0	2292788	COUNTDOWN_END	n/a	n/a	n/a	n/a	-999	12	[0, 0, 0]	n/a	catFR1	2	R1486J
2196.631	1.85	2292788	ENCODING_START	n/a	n/a	n/a	n/a	-999	12	[0, 0, 0]	n/a	catFR1	2	R1486J
2198.481	1.6	2294637	WORD	n/a	wordpools/wordpool_categorized_EN.txt	TEA	Beverages	1	12	[0, 0, 0]	n/a	catFR1	2	R1486J
2200.097	0.867	2296253	WORD_OFF	n/a	n/a	TEA	Beverages	1	12	[0, 0, 0]	n/a	catFR1	2	R1486J
2200.964	1.6	2297125	WORD	n/a	wordpools/wordpool_categorized_EN.txt	WATER	Beverages	2	12	[0, 0, 0]	n/a	catFR1	2	R1486J
2202.58	0.817	2298740	WORD_OFF	n/a	n/a	WATER	Beverages	2	12	[0, 0, 0]	n/a	catFR1	2	R1486J
2203.397	1.6	2299552	WORD	n/a	wordpools/wordpool_categorized_EN.txt	PLANE	Vehicles	3	12	[0, 0, 0]	n/a	catFR1	2	R1486J
2205.013	0.834	2301175	WORD_OFF	n/a	n/a	PLANE	Vehicles	3	12	[0, 0, 0]	n/a	catFR1	2	R1486J
2205.847	1.6	2302002	WORD	n/a	wordpools/wordpool_categorized_EN.txt	BUS	Vehicles	4	12	[0, 0, 0]	n/a	catFR1	2	R1486J
2207.463	0.767	2303618	WORD_OFF	n/a	n/a	BUS	Vehicles	4	12	[0, 0, 0]	n/a	catFR1	2	R1486J
2208.23	1.6	2304384	WORD	n/a	wordpools/wordpool_categorized_EN.txt	VIOLIN	Instruments	5	12	[0, 0, 0]	n/a	catFR1	2	R1486J
2209.83	0.85	2305985	WORD_OFF	n/a	n/a	VIOLIN	Instruments	5	12	[0, 0, 0]	n/a	catFR1	2	R1486J
2210.68	1.6	2306834	WORD	n/a	wordpools/wordpool_categorized_EN.txt	CELLO	Instruments	6	12	[0, 0, 0]	n/a	catFR1	2	R1486J
2212.296	0.784	2308458	WORD_OFF	n/a	n/a	CELLO	Instruments	6	12	[0, 0, 0]	n/a	catFR1	2	R1486J
2213.08	1.6	2309239	WORD	n/a	wordpools/wordpool_categorized_EN.txt	COLA	Beverages	7	12	[0, 0, 0]	n/a	catFR1	2	R1486J
2214.697	0.833	2310855	WORD_OFF	n/a	n/a	COLA	Beverages	7	12	[0, 0, 0]	n/a	catFR1	2	R1486J
2215.53	1.6	2311689	WORD	n/a	wordpools/wordpool_categorized_EN.txt	RUM	Beverages	8	12	[0, 0, 0]	n/a	catFR1	2	R1486J
2217.13	0.95	2313290	WORD_OFF	n/a	n/a	RUM	Beverages	8	12	[0, 0, 0]	n/a	catFR1	2	R1486J
2218.08	1.6	2314237	WORD	n/a	wordpools/wordpool_categorized_EN.txt	BIKE	Vehicles	9	12	[0, 0, 0]	n/a	catFR1	2	R1486J
2219.68	0.965	2315837	WORD_OFF	n/a	n/a	BIKE	Vehicles	9	12	[0, 0, 0]	n/a	catFR1	2	R1486J
2220.645	1.6	2316799	WORD	n/a	wordpools/wordpool_categorized_EN.txt	BOAT	Vehicles	10	12	[0, 0, 0]	n/a	catFR1	2	R1486J
2222.247	0.8	2318400	WORD_OFF	n/a	n/a	BOAT	Vehicles	10	12	[0, 0, 0]	n/a	catFR1	2	R1486J
2223.047	1.6	2319204	WORD	n/a	wordpools/wordpool_categorized_EN.txt	DRUM	Instruments	11	12	[0, 0, 0]	n/a	catFR1	2	R1486J
2224.647	0.967	2320805	WORD_OFF	n/a	n/a	DRUM	Instruments	11	12	[0, 0, 0]	n/a	catFR1	2	R1486J
2225.614	1.6	2321774	WORD	n/a	wordpools/wordpool_categorized_EN.txt	ORGAN	Instruments	12	12	[0, 0, 0]	n/a	catFR1	2	R1486J
2227.214	0.004	2323369	PROB	4.582	n/a	n/a	n/a	-999	12	[5, 4, 5]	14.0	catFR1	2	R1486J
2227.218	0.0	2323373	START	n/a	n/a	n/a	n/a	-999	12	[-999, -999, -999]	n/a	catFR1	2	R1486J
2227.214	0.004	2323375	WORD_OFF	n/a	n/a	ORGAN	Instruments	12	12	[0, 0, 0]	n/a	catFR1	2	R1486J
2227.218	0.0	2323375	ENCODING_END	n/a	n/a	n/a	n/a	-999	12	[0, 0, 0]	n/a	catFR1	2	R1486J
2227.218	4.596	2323375	DISTRACT_START	n/a	n/a	n/a	n/a	-999	12	[0, 0, 0]	n/a	catFR1	2	R1486J
2231.814	2.65	2327969	PROB	2.633	n/a	n/a	n/a	-999	12	[5, 5, 2]	12.0	catFR1	2	R1486J
2234.464	3.083	2330619	PROB	3.065	n/a	n/a	n/a	-999	12	[7, 7, 4]	18.0	catFR1	2	R1486J
2237.547	3.715	2333702	PROB	3.699	n/a	n/a	n/a	-999	12	[3, 2, 2]	7.0	catFR1	2	R1486J
2241.262	3.734	2337416	PROB	3.717	n/a	n/a	n/a	-999	12	[3, 5, 7]	15.0	catFR1	2	R1486J
2244.996	2.933	2341150	PROB	2.916	n/a	n/a	n/a	-999	12	[6, 3, 1]	10.0	catFR1	2	R1486J
2247.929	0.0	2344083	STOP	n/a	n/a	n/a	n/a	-999	12	[-999, -999, -999]	n/a	catFR1	2	R1486J
2247.929	2.068	2344087	DISTRACT_END	n/a	n/a	n/a	n/a	-999	12	[0, 0, 0]	n/a	catFR1	2	R1486J
2249.997	1.341	2346154	REC_START	n/a	n/a	n/a	n/a	-999	12	[0, 0, 0]	n/a	catFR1	2	R1486J
2251.338	1.269	2347492	REC_WORD	1.341	n/a	VIOLIN	Instruments	5	12	[0, 0, 0]	n/a	catFR1	2	R1486J
2252.607	2.249	2348761	REC_WORD	2.61	n/a	CELLO	Instruments	6	12	[0, 0, 0]	n/a	catFR1	2	R1486J
2254.856	7.956	2351010	REC_WORD_VV	4.859	n/a	<>	n/a	-999	12	[0, 0, 0]	n/a	catFR1	2	R1486J
2262.812	3.884	2358966	REC_WORD	12.815	n/a	BIKE	Vehicles	9	12	[0, 0, 0]	n/a	catFR1	2	R1486J
2266.696	1.24	2362849	REC_WORD	16.699	n/a	PLANE	Vehicles	3	12	[0, 0, 0]	n/a	catFR1	2	R1486J
2267.936	1.014	2364089	REC_WORD	17.939	n/a	BOAT	Vehicles	10	12	[0, 0, 0]	n/a	catFR1	2	R1486J
2268.95	1.086	2365103	REC_WORD	18.953	n/a	WATER	Beverages	2	12	[0, 0, 0]	n/a	catFR1	2	R1486J
2270.036	1.311	2366189	REC_WORD	20.039	n/a	RUM	Beverages	8	12	[0, 0, 0]	n/a	catFR1	2	R1486J
2271.347	8.865	2367500	REC_WORD	21.35	n/a	COLA	Beverages	7	12	[0, 0, 0]	n/a	catFR1	2	R1486J
2280.212	0.0	2376364	REC_END	n/a	n/a	n/a	n/a	-999	12	[0, 0, 0]	n/a	catFR1	2	R1486J
