onset	duration	sample	trial_type	response_time	stim_file	item_name	category	serialpos	list	test	answer	experiment	session	subject
0.0	644.801	463	INSTRUCT_START	n/a	n/a	n/a	n/a	-999	-999	[0, 0, 0]	n/a	catFR1	0	R1324M
644.801	25.754	645237	INSTRUCT_END	n/a	n/a	n/a	n/a	-999	-999	[0, 0, 0]	n/a	catFR1	0	R1324M
670.555	9.973	670989	MIC TEST_START	n/a	n/a	n/a	n/a	-999	-999	[0, 0, 0]	n/a	catFR1	0	R1324M
680.528	0.015	680962	MIC TEST_END	n/a	n/a	n/a	n/a	-999	-999	[0, 0, 0]	n/a	catFR1	0	R1324M
680.543	0.0	680977	TRIAL_START	n/a	n/a	n/a	n/a	-999	-1	[0, 0, 0]	n/a	catFR1	0	R1324M
680.543	0.0	680977	TRIAL	n/a	n/a	n/a	n/a	-999	-1	[0, 0, 0]	n/a	catFR1	0	R1324M
680.543	4.315	680977	WAITING_START	n/a	n/a	n/a	n/a	-999	-1	[0, 0, 0]	n/a	catFR1	0	R1324M
684.858	0.0	685292	WAITING_END	n/a	n/a	n/a	n/a	-999	-1	[0, 0, 0]	n/a	catFR1	0	R1324M
684.858	10.43	685292	COUNTDOWN_START	n/a	n/a	n/a	n/a	-999	-1	[0, 0, 0]	n/a	catFR1	0	R1324M
695.288	0.0	695721	COUNTDOWN_END	n/a	n/a	n/a	n/a	-999	-1	[0, 0, 0]	n/a	catFR1	0	R1324M
695.288	1.072	695721	ORIENT_START	n/a	n/a	n/a	n/a	-999	-1	[0, 0, 0]	n/a	catFR1	0	R1324M
696.36	0.0	696793	ORIENT_END	n/a	n/a	n/a	n/a	-999	-1	[0, 0, 0]	n/a	catFR1	0	R1324M
696.36	1.061	696793	ENCODING_START	n/a	n/a	n/a	n/a	-999	-1	[0, 0, 0]	n/a	catFR1	0	R1324M
697.421	1.623	697854	WORD	n/a	n/a	LEATHER	n/a	1	-1	[0, 0, 0]	n/a	catFR1	0	R1324M
699.044	0.931	699477	WORD_OFF	n/a	n/a	LEATHER	n/a	1	-1	[0, 0, 0]	n/a	catFR1	0	R1324M
699.975	1.636	700408	WORD	n/a	n/a	DENIM	n/a	2	-1	[0, 0, 0]	n/a	catFR1	0	R1324M
701.611	1.108	702044	WORD_OFF	n/a	n/a	DENIM	n/a	2	-1	[0, 0, 0]	n/a	catFR1	0	R1324M
702.719	1.626	703152	WORD	n/a	n/a	WOOL	n/a	3	-1	[0, 0, 0]	n/a	catFR1	0	R1324M
704.345	0.818	704778	WORD_OFF	n/a	n/a	WOOL	n/a	3	-1	[0, 0, 0]	n/a	catFR1	0	R1324M
705.163	1.632	705596	WORD	n/a	n/a	SECOND	n/a	4	-1	[0, 0, 0]	n/a	catFR1	0	R1324M
706.795	0.848	707228	WORD_OFF	n/a	n/a	SECOND	n/a	4	-1	[0, 0, 0]	n/a	catFR1	0	R1324M
707.643	1.636	708076	WORD	n/a	n/a	FARMER	n/a	5	-1	[0, 0, 0]	n/a	catFR1	0	R1324M
709.279	0.859	709712	WORD_OFF	n/a	n/a	FARMER	n/a	5	-1	[0, 0, 0]	n/a	catFR1	0	R1324M
710.138	1.625	710571	WORD	n/a	n/a	PLUMBER	n/a	6	-1	[0, 0, 0]	n/a	catFR1	0	R1324M
711.763	0.972	712196	WORD_OFF	n/a	n/a	PLUMBER	n/a	6	-1	[0, 0, 0]	n/a	catFR1	0	R1324M
712.735	1.628	713168	WORD	n/a	n/a	FIREMAN	n/a	7	-1	[0, 0, 0]	n/a	catFR1	0	R1324M
714.363	1.128	714796	WORD_OFF	n/a	n/a	FIREMAN	n/a	7	-1	[0, 0, 0]	n/a	catFR1	0	R1324M
715.491	1.623	715924	WORD	n/a	n/a	MINUTE	n/a	8	-1	[0, 0, 0]	n/a	catFR1	0	R1324M
717.114	0.932	717547	WORD_OFF	n/a	n/a	MINUTE	n/a	8	-1	[0, 0, 0]	n/a	catFR1	0	R1324M
718.046	1.635	718478	WORD	n/a	n/a	HOUR	n/a	9	-1	[0, 0, 0]	n/a	catFR1	0	R1324M
719.681	0.834	720113	WORD_OFF	n/a	n/a	HOUR	n/a	9	-1	[0, 0, 0]	n/a	catFR1	0	R1324M
720.515	1.633	720947	WORD	n/a	n/a	TEACHER	n/a	10	-1	[0, 0, 0]	n/a	catFR1	0	R1324M
722.148	0.902	722580	WORD_OFF	n/a	n/a	TEACHER	n/a	10	-1	[0, 0, 0]	n/a	catFR1	0	R1324M
723.05	1.632	723482	WORD	n/a	n/a	DAY	n/a	11	-1	[0, 0, 0]	n/a	catFR1	0	R1324M
724.682	0.98	725114	WORD_OFF	n/a	n/a	DAY	n/a	11	-1	[0, 0, 0]	n/a	catFR1	0	R1324M
725.662	1.62	726094	WORD	n/a	n/a	SILK	n/a	12	-1	[0, 0, 0]	n/a	catFR1	0	R1324M
727.282	0.001	727714	WORD_OFF	n/a	n/a	SILK	n/a	12	-1	[0, 0, 0]	n/a	catFR1	0	R1324M
727.283	0.0	727715	ENCODING_END	n/a	n/a	n/a	n/a	-999	-1	[0, 0, 0]	n/a	catFR1	0	R1324M
727.283	0.0	727715	DISTRACT_START	n/a	n/a	n/a	n/a	-999	-1	[0, 0, 0]	n/a	catFR1	0	R1324M
727.283	0.016	727715	START	n/a	n/a	n/a	n/a	-999	-1	[-999, -999, -999]	n/a	catFR1	0	R1324M
727.299	8.535	727731	PROB	8.498	n/a	n/a	n/a	-999	-1	[2, 7, 5]	14.0	catFR1	0	R1324M
735.834	8.135	736266	PROB	8.106	n/a	n/a	n/a	-999	-1	[7, 3, 3]	13.0	catFR1	0	R1324M
743.969	8.821	744400	PROB	8.821	n/a	n/a	n/a	-999	-1	[7, 3, 1]	11.0	catFR1	0	R1324M
752.79	0.014	753221	STOP	n/a	n/a	n/a	n/a	-999	-1	[-999, -999, -999]	n/a	catFR1	0	R1324M
752.804	0.696	753235	DISTRACT_END	n/a	n/a	n/a	n/a	-999	-1	[0, 0, 0]	n/a	catFR1	0	R1324M
753.5	1.571	753931	RETRIEVAL_ORIENT_START	n/a	n/a	n/a	n/a	-999	-1	[0, 0, 0]	n/a	catFR1	0	R1324M
755.071	0.0	755502	RETRIEVAL_ORIENT_END	n/a	n/a	n/a	n/a	-999	-1	[0, 0, 0]	n/a	catFR1	0	R1324M
755.071	1.297	755502	REC_START	n/a	n/a	n/a	n/a	-999	-1	[0, 0, 0]	n/a	catFR1	0	R1324M
756.368	28.718	756799	REC_WORD	1.297	n/a	LEATHER	n/a	1	-1	[0, 0, 0]	n/a	catFR1	0	R1324M
785.086	0.0	785516	REC_END	n/a	n/a	n/a	n/a	-999	-1	[0, 0, 0]	n/a	catFR1	0	R1324M
785.086	21.962	785516	PRACTICE_POST_INSTRUCT_START	n/a	n/a	n/a	n/a	-999	-1	[0, 0, 0]	n/a	catFR1	0	R1324M
807.048	0.001	807477	PRACTICE_POST_INSTRUCT_END	n/a	n/a	n/a	n/a	-999	-1	[0, 0, 0]	n/a	catFR1	0	R1324M
807.049	0.024	807478	TRIAL_END	n/a	n/a	n/a	n/a	-999	-1	[0, 0, 0]	n/a	catFR1	0	R1324M
807.073	0.001	807502	TRIAL_START	n/a	n/a	n/a	n/a	-999	1	[0, 0, 0]	n/a	catFR1	0	R1324M
807.074	0.0	807503	WAITING_START	n/a	n/a	n/a	n/a	-999	1	[0, 0, 0]	n/a	catFR1	0	R1324M
807.074	3.509	807503	TRIAL	n/a	n/a	n/a	n/a	-999	1	[0, 0, 0]	n/a	catFR1	0	R1324M
810.583	0.0	811012	WAITING_END	n/a	n/a	n/a	n/a	-999	1	[0, 0, 0]	n/a	catFR1	0	R1324M
810.583	10.428	811012	COUNTDOWN_START	n/a	n/a	n/a	n/a	-999	1	[0, 0, 0]	n/a	catFR1	0	R1324M
821.011	0.0	821439	COUNTDOWN_END	n/a	n/a	n/a	n/a	-999	1	[0, 0, 0]	n/a	catFR1	0	R1324M
821.011	1.14	821439	ORIENT_START	n/a	n/a	n/a	n/a	-999	1	[0, 0, 0]	n/a	catFR1	0	R1324M
822.151	0.0	822579	ORIENT_END	n/a	n/a	n/a	n/a	-999	1	[0, 0, 0]	n/a	catFR1	0	R1324M
822.151	0.878	822579	ENCODING_START	n/a	n/a	n/a	n/a	-999	1	[0, 0, 0]	n/a	catFR1	0	R1324M
823.029	1.622	823457	WORD	n/a	wordpools/wordpool_categorized_EN.txt	SEAGULL	Birds	1	1	[0, 0, 0]	n/a	catFR1	0	R1324M
824.651	0.86	825079	WORD_OFF	n/a	n/a	SEAGULL	Birds	1	1	[0, 0, 0]	n/a	catFR1	0	R1324M
825.511	1.624	825939	WORD	n/a	wordpools/wordpool_categorized_EN.txt	DUCK	Birds	2	1	[0, 0, 0]	n/a	catFR1	0	R1324M
827.135	1.072	827563	WORD_OFF	n/a	n/a	DUCK	Birds	2	1	[0, 0, 0]	n/a	catFR1	0	R1324M
828.207	1.629	828635	WORD	n/a	wordpools/wordpool_categorized_EN.txt	HEN	FarmAnimals	3	1	[0, 0, 0]	n/a	catFR1	0	R1324M
829.836	0.93	830264	WORD_OFF	n/a	n/a	HEN	FarmAnimals	3	1	[0, 0, 0]	n/a	catFR1	0	R1324M
830.766	1.637	831194	WORD	n/a	wordpools/wordpool_categorized_EN.txt	HORSE	FarmAnimals	4	1	[0, 0, 0]	n/a	catFR1	0	R1324M
832.403	0.821	832831	WORD_OFF	n/a	n/a	HORSE	FarmAnimals	4	1	[0, 0, 0]	n/a	catFR1	0	R1324M
833.224	1.629	833652	WORD	n/a	wordpools/wordpool_categorized_EN.txt	STRAINER	KitchenTools	5	1	[0, 0, 0]	n/a	catFR1	0	R1324M
834.853	1.104	835281	WORD_OFF	n/a	n/a	STRAINER	KitchenTools	5	1	[0, 0, 0]	n/a	catFR1	0	R1324M
835.957	1.631	836385	WORD	n/a	wordpools/wordpool_categorized_EN.txt	SPATULA	KitchenTools	6	1	[0, 0, 0]	n/a	catFR1	0	R1324M
837.588	1.025	838015	WORD_OFF	n/a	n/a	SPATULA	KitchenTools	6	1	[0, 0, 0]	n/a	catFR1	0	R1324M
838.613	1.625	839040	WORD	n/a	wordpools/wordpool_categorized_EN.txt	PIG	FarmAnimals	7	1	[0, 0, 0]	n/a	catFR1	0	R1324M
840.238	1.01	840665	WORD_OFF	n/a	n/a	PIG	FarmAnimals	7	1	[0, 0, 0]	n/a	catFR1	0	R1324M
841.248	1.623	841675	WORD	n/a	wordpools/wordpool_categorized_EN.txt	GOAT	FarmAnimals	8	1	[0, 0, 0]	n/a	catFR1	0	R1324M
842.871	1.04	843298	WORD_OFF	n/a	n/a	GOAT	FarmAnimals	8	1	[0, 0, 0]	n/a	catFR1	0	R1324M
843.911	1.628	844338	WORD	n/a	wordpools/wordpool_categorized_EN.txt	SPARROW	Birds	9	1	[0, 0, 0]	n/a	catFR1	0	R1324M
845.539	1.066	845966	WORD_OFF	n/a	n/a	SPARROW	Birds	9	1	[0, 0, 0]	n/a	catFR1	0	R1324M
846.605	1.634	847032	WORD	n/a	wordpools/wordpool_categorized_EN.txt	CROW	Birds	10	1	[0, 0, 0]	n/a	catFR1	0	R1324M
848.239	0.824	848666	WORD_OFF	n/a	n/a	CROW	Birds	10	1	[0, 0, 0]	n/a	catFR1	0	R1324M
849.063	1.626	849490	WORD	n/a	wordpools/wordpool_categorized_EN.txt	COLANDER	KitchenTools	11	1	[0, 0, 0]	n/a	catFR1	0	R1324M
850.689	0.813	851116	WORD_OFF	n/a	n/a	COLANDER	KitchenTools	11	1	[0, 0, 0]	n/a	catFR1	0	R1324M
851.502	1.638	851929	WORD	n/a	wordpools/wordpool_categorized_EN.txt	CORKSCREW	KitchenTools	12	1	[0, 0, 0]	n/a	catFR1	0	R1324M
853.14	0.0	853567	WORD_OFF	n/a	n/a	CORKSCREW	KitchenTools	12	1	[0, 0, 0]	n/a	catFR1	0	R1324M
853.14	0.001	853567	ENCODING_END	n/a	n/a	n/a	n/a	-999	1	[0, 0, 0]	n/a	catFR1	0	R1324M
853.141	0.0	853568	DISTRACT_START	n/a	n/a	n/a	n/a	-999	1	[0, 0, 0]	n/a	catFR1	0	R1324M
853.141	0.015	853568	START	n/a	n/a	n/a	n/a	-999	1	[-999, -999, -999]	n/a	catFR1	0	R1324M
853.156	7.752	853583	PROB	7.729	n/a	n/a	n/a	-999	1	[7, 3, 1]	10.0	catFR1	0	R1324M
860.908	10.019	861334	PROB	9.99	n/a	n/a	n/a	-999	1	[5, 8, 5]	18.0	catFR1	0	R1324M
870.927	15.0	871353	PROB	15.0	n/a	n/a	n/a	-999	1	[5, 9, 4]	18.0	catFR1	0	R1324M
885.927	0.019	886352	STOP	n/a	n/a	n/a	n/a	-999	1	[-999, -999, -999]	n/a	catFR1	0	R1324M
885.946	0.647	886371	DISTRACT_END	n/a	n/a	n/a	n/a	-999	1	[0, 0, 0]	n/a	catFR1	0	R1324M
886.593	1.72	887018	RETRIEVAL_ORIENT_START	n/a	n/a	n/a	n/a	-999	1	[0, 0, 0]	n/a	catFR1	0	R1324M
888.313	0.001	888738	RETRIEVAL_ORIENT_END	n/a	n/a	n/a	n/a	-999	1	[0, 0, 0]	n/a	catFR1	0	R1324M
888.314	0.0	888739	REC_START	n/a	n/a	n/a	n/a	-999	1	[0, 0, 0]	n/a	catFR1	0	R1324M
888.314	1.599	888739	REC_WORD	0.0	n/a	SEAGULL	Birds	1	1	[0, 0, 0]	n/a	catFR1	0	R1324M
889.913	4.063	890338	REC_WORD	1.599	n/a	DUCK	Birds	2	1	[0, 0, 0]	n/a	catFR1	0	R1324M
893.976	24.349	894401	REC_WORD	5.662	n/a	BIRD	n/a	-999	1	[0, 0, 0]	n/a	catFR1	0	R1324M
918.325	0.0	918749	REC_END	n/a	n/a	n/a	n/a	-999	1	[0, 0, 0]	n/a	catFR1	0	R1324M
918.325	0.025	918749	TRIAL_END	n/a	n/a	n/a	n/a	-999	1	[0, 0, 0]	n/a	catFR1	0	R1324M
918.35	0.001	918774	TRIAL_START	n/a	n/a	n/a	n/a	-999	2	[0, 0, 0]	n/a	catFR1	0	R1324M
918.351	0.0	918775	TRIAL	n/a	n/a	n/a	n/a	-999	2	[0, 0, 0]	n/a	catFR1	0	R1324M
918.351	4.237	918775	WAITING_START	n/a	n/a	n/a	n/a	-999	2	[0, 0, 0]	n/a	catFR1	0	R1324M
922.588	0.0	923012	WAITING_END	n/a	n/a	n/a	n/a	-999	2	[0, 0, 0]	n/a	catFR1	0	R1324M
922.588	10.428	923012	COUNTDOWN_START	n/a	n/a	n/a	n/a	-999	2	[0, 0, 0]	n/a	catFR1	0	R1324M
933.016	0.0	933439	COUNTDOWN_END	n/a	n/a	n/a	n/a	-999	2	[0, 0, 0]	n/a	catFR1	0	R1324M
933.016	1.089	933439	ORIENT_START	n/a	n/a	n/a	n/a	-999	2	[0, 0, 0]	n/a	catFR1	0	R1324M
934.105	0.001	934528	ORIENT_END	n/a	n/a	n/a	n/a	-999	2	[0, 0, 0]	n/a	catFR1	0	R1324M
934.106	1.095	934529	ENCODING_START	n/a	n/a	n/a	n/a	-999	2	[0, 0, 0]	n/a	catFR1	0	R1324M
935.201	1.622	935624	WORD	n/a	wordpools/wordpool_categorized_EN.txt	JUICE	Beverages	1	2	[0, 0, 0]	n/a	catFR1	0	R1324M
936.823	0.83	937246	WORD_OFF	n/a	n/a	JUICE	Beverages	1	2	[0, 0, 0]	n/a	catFR1	0	R1324M
937.653	1.637	938076	WORD	n/a	wordpools/wordpool_categorized_EN.txt	WATER	Beverages	2	2	[0, 0, 0]	n/a	catFR1	0	R1324M
939.29	0.84	939713	WORD_OFF	n/a	n/a	WATER	Beverages	2	2	[0, 0, 0]	n/a	catFR1	0	R1324M
940.13	1.627	940553	WORD	n/a	wordpools/wordpool_categorized_EN.txt	APPLE	Fruit	3	2	[0, 0, 0]	n/a	catFR1	0	R1324M
941.757	0.768	942180	WORD_OFF	n/a	n/a	APPLE	Fruit	3	2	[0, 0, 0]	n/a	catFR1	0	R1324M
942.525	1.632	942948	WORD	n/a	wordpools/wordpool_categorized_EN.txt	GRAPE	Fruit	4	2	[0, 0, 0]	n/a	catFR1	0	R1324M
944.157	0.76	944580	WORD_OFF	n/a	n/a	GRAPE	Fruit	4	2	[0, 0, 0]	n/a	catFR1	0	R1324M
944.917	1.624	945340	WORD	n/a	wordpools/wordpool_categorized_EN.txt	LAKE	Landscapes	5	2	[0, 0, 0]	n/a	catFR1	0	R1324M
946.541	0.841	946964	WORD_OFF	n/a	n/a	LAKE	Landscapes	5	2	[0, 0, 0]	n/a	catFR1	0	R1324M
947.382	1.626	947805	WORD	n/a	wordpools/wordpool_categorized_EN.txt	OCEAN	Landscapes	6	2	[0, 0, 0]	n/a	catFR1	0	R1324M
949.008	1.077	949431	WORD_OFF	n/a	n/a	OCEAN	Landscapes	6	2	[0, 0, 0]	n/a	catFR1	0	R1324M
950.085	1.624	950508	WORD	n/a	wordpools/wordpool_categorized_EN.txt	CHERRY	Fruit	7	2	[0, 0, 0]	n/a	catFR1	0	R1324M
951.709	1.138	952132	WORD_OFF	n/a	n/a	CHERRY	Fruit	7	2	[0, 0, 0]	n/a	catFR1	0	R1324M
952.847	1.629	953270	WORD	n/a	wordpools/wordpool_categorized_EN.txt	ORANGE	Fruit	8	2	[0, 0, 0]	n/a	catFR1	0	R1324M
954.476	1.094	954899	WORD_OFF	n/a	n/a	ORANGE	Fruit	8	2	[0, 0, 0]	n/a	catFR1	0	R1324M
955.57	1.623	955993	WORD	n/a	wordpools/wordpool_categorized_EN.txt	MOUNTAIN	Landscapes	9	2	[0, 0, 0]	n/a	catFR1	0	R1324M
957.193	0.763	957615	WORD_OFF	n/a	n/a	MOUNTAIN	Landscapes	9	2	[0, 0, 0]	n/a	catFR1	0	R1324M
957.956	1.622	958378	WORD	n/a	wordpools/wordpool_categorized_EN.txt	HILLS	Landscapes	10	2	[0, 0, 0]	n/a	catFR1	0	R1324M
959.578	0.797	960000	WORD_OFF	n/a	n/a	HILLS	Landscapes	10	2	[0, 0, 0]	n/a	catFR1	0	R1324M
960.375	1.636	960797	WORD	n/a	wordpools/wordpool_categorized_EN.txt	COFFEE	Beverages	11	2	[0, 0, 0]	n/a	catFR1	0	R1324M
962.011	0.874	962433	WORD_OFF	n/a	n/a	COFFEE	Beverages	11	2	[0, 0, 0]	n/a	catFR1	0	R1324M
962.885	1.626	963307	WORD	n/a	wordpools/wordpool_categorized_EN.txt	LEMONADE	Beverages	12	2	[0, 0, 0]	n/a	catFR1	0	R1324M
964.511	0.001	964933	WORD_OFF	n/a	n/a	LEMONADE	Beverages	12	2	[0, 0, 0]	n/a	catFR1	0	R1324M
964.512	0.0	964934	ENCODING_END	n/a	n/a	n/a	n/a	-999	2	[0, 0, 0]	n/a	catFR1	0	R1324M
964.512	0.0	964934	DISTRACT_START	n/a	n/a	n/a	n/a	-999	2	[0, 0, 0]	n/a	catFR1	0	R1324M
964.512	0.016	964934	START	n/a	n/a	n/a	n/a	-999	2	[-999, -999, -999]	n/a	catFR1	0	R1324M
964.528	8.551	964950	PROB	8.522	n/a	n/a	n/a	-999	2	[6, 2, 4]	12.0	catFR1	0	R1324M
973.079	6.618	973501	PROB	6.59	n/a	n/a	n/a	-999	2	[2, 9, 1]	12.0	catFR1	0	R1324M
979.697	9.972	980118	PROB	9.972	n/a	n/a	n/a	-999	2	[3, 5, 9]	13.0	catFR1	0	R1324M
989.669	0.014	990090	STOP	n/a	n/a	n/a	n/a	-999	2	[-999, -999, -999]	n/a	catFR1	0	R1324M
989.683	0.518	990104	DISTRACT_END	n/a	n/a	n/a	n/a	-999	2	[0, 0, 0]	n/a	catFR1	0	R1324M
990.201	1.532	990622	RETRIEVAL_ORIENT_START	n/a	n/a	n/a	n/a	-999	2	[0, 0, 0]	n/a	catFR1	0	R1324M
991.733	0.001	992154	RETRIEVAL_ORIENT_END	n/a	n/a	n/a	n/a	-999	2	[0, 0, 0]	n/a	catFR1	0	R1324M
991.734	2.431	992155	REC_START	n/a	n/a	n/a	n/a	-999	2	[0, 0, 0]	n/a	catFR1	0	R1324M
994.165	1.551	994586	REC_WORD	2.431	n/a	JUICE	Beverages	1	2	[0, 0, 0]	n/a	catFR1	0	R1324M
995.716	1.625	996137	REC_WORD	3.982	n/a	CHERRY	Fruit	7	2	[0, 0, 0]	n/a	catFR1	0	R1324M
997.341	1.668	997762	REC_WORD	5.607	n/a	ORANGE	Fruit	8	2	[0, 0, 0]	n/a	catFR1	0	R1324M
999.009	1.692	999430	REC_WORD	7.275	n/a	APPLE	Fruit	3	2	[0, 0, 0]	n/a	catFR1	0	R1324M
1000.701	2.312	1001122	REC_WORD	8.967	n/a	WATER	Beverages	2	2	[0, 0, 0]	n/a	catFR1	0	R1324M
1003.013	18.732	1003434	REC_WORD	11.279	n/a	DRINK	n/a	-999	2	[0, 0, 0]	n/a	catFR1	0	R1324M
1021.745	0.0	1022165	REC_END	n/a	n/a	n/a	n/a	-999	2	[0, 0, 0]	n/a	catFR1	0	R1324M
1021.745	0.022	1022165	TRIAL_END	n/a	n/a	n/a	n/a	-999	2	[0, 0, 0]	n/a	catFR1	0	R1324M
1021.767	0.0	1022187	TRIAL_START	n/a	n/a	n/a	n/a	-999	3	[0, 0, 0]	n/a	catFR1	0	R1324M
1021.767	0.001	1022187	TRIAL	n/a	n/a	n/a	n/a	-999	3	[0, 0, 0]	n/a	catFR1	0	R1324M
1021.768	7.739	1022188	WAITING_START	n/a	n/a	n/a	n/a	-999	3	[0, 0, 0]	n/a	catFR1	0	R1324M
1029.507	0.001	1029926	WAITING_END	n/a	n/a	n/a	n/a	-999	3	[0, 0, 0]	n/a	catFR1	0	R1324M
1029.508	10.428	1029927	COUNTDOWN_START	n/a	n/a	n/a	n/a	-999	3	[0, 0, 0]	n/a	catFR1	0	R1324M
1039.936	0.001	1040355	COUNTDOWN_END	n/a	n/a	n/a	n/a	-999	3	[0, 0, 0]	n/a	catFR1	0	R1324M
1039.937	1.039	1040356	ORIENT_START	n/a	n/a	n/a	n/a	-999	3	[0, 0, 0]	n/a	catFR1	0	R1324M
1040.976	0.0	1041395	ORIENT_END	n/a	n/a	n/a	n/a	-999	3	[0, 0, 0]	n/a	catFR1	0	R1324M
1040.976	0.764	1041395	ENCODING_START	n/a	n/a	n/a	n/a	-999	3	[0, 0, 0]	n/a	catFR1	0	R1324M
1041.74	1.637	1042159	WORD	n/a	wordpools/wordpool_categorized_EN.txt	FINCH	Birds	1	3	[0, 0, 0]	n/a	catFR1	0	R1324M
1043.377	1.017	1043796	WORD_OFF	n/a	n/a	FINCH	Birds	1	3	[0, 0, 0]	n/a	catFR1	0	R1324M
1044.394	1.633	1044813	WORD	n/a	wordpools/wordpool_categorized_EN.txt	HAWK	Birds	2	3	[0, 0, 0]	n/a	catFR1	0	R1324M
1046.027	1.057	1046446	WORD_OFF	n/a	n/a	HAWK	Birds	2	3	[0, 0, 0]	n/a	catFR1	0	R1324M
1047.084	1.627	1047503	WORD	n/a	wordpools/wordpool_categorized_EN.txt	DAFFODIL	Flowers	3	3	[0, 0, 0]	n/a	catFR1	0	R1324M
1048.711	0.751	1049130	WORD_OFF	n/a	n/a	DAFFODIL	Flowers	3	3	[0, 0, 0]	n/a	catFR1	0	R1324M
1049.462	1.633	1049881	WORD	n/a	wordpools/wordpool_categorized_EN.txt	CARNATION	Flowers	4	3	[0, 0, 0]	n/a	catFR1	0	R1324M
1051.095	0.911	1051514	WORD_OFF	n/a	n/a	CARNATION	Flowers	4	3	[0, 0, 0]	n/a	catFR1	0	R1324M
1052.006	1.623	1052424	WORD	n/a	wordpools/wordpool_categorized_EN.txt	CAR	Vehicles	5	3	[0, 0, 0]	n/a	catFR1	0	R1324M
1053.629	0.883	1054047	WORD_OFF	n/a	n/a	CAR	Vehicles	5	3	[0, 0, 0]	n/a	catFR1	0	R1324M
1054.512	1.634	1054930	WORD	n/a	wordpools/wordpool_categorized_EN.txt	VAN	Vehicles	6	3	[0, 0, 0]	n/a	catFR1	0	R1324M
1056.146	1.1	1056564	WORD_OFF	n/a	n/a	VAN	Vehicles	6	3	[0, 0, 0]	n/a	catFR1	0	R1324M
1057.246	1.634	1057664	WORD	n/a	wordpools/wordpool_categorized_EN.txt	ROSE	Flowers	7	3	[0, 0, 0]	n/a	catFR1	0	R1324M
1058.88	0.873	1059298	WORD_OFF	n/a	n/a	ROSE	Flowers	7	3	[0, 0, 0]	n/a	catFR1	0	R1324M
1059.753	1.627	1060171	WORD	n/a	wordpools/wordpool_categorized_EN.txt	TULIP	Flowers	8	3	[0, 0, 0]	n/a	catFR1	0	R1324M
1061.38	1.074	1061798	WORD_OFF	n/a	n/a	TULIP	Flowers	8	3	[0, 0, 0]	n/a	catFR1	0	R1324M
1062.454	1.627	1062872	WORD	n/a	wordpools/wordpool_categorized_EN.txt	BOAT	Vehicles	9	3	[0, 0, 0]	n/a	catFR1	0	R1324M
1064.081	1.039	1064499	WORD_OFF	n/a	n/a	BOAT	Vehicles	9	3	[0, 0, 0]	n/a	catFR1	0	R1324M
1065.12	1.628	1065538	WORD	n/a	wordpools/wordpool_categorized_EN.txt	JEEP	Vehicles	10	3	[0, 0, 0]	n/a	catFR1	0	R1324M
1066.748	0.982	1067166	WORD_OFF	n/a	n/a	JEEP	Vehicles	10	3	[0, 0, 0]	n/a	catFR1	0	R1324M
1067.73	1.635	1068148	WORD	n/a	wordpools/wordpool_categorized_EN.txt	GOOSE	Birds	11	3	[0, 0, 0]	n/a	catFR1	0	R1324M
1069.365	0.931	1069783	WORD_OFF	n/a	n/a	GOOSE	Birds	11	3	[0, 0, 0]	n/a	catFR1	0	R1324M
1070.296	1.636	1070714	WORD	n/a	wordpools/wordpool_categorized_EN.txt	ROBIN	Birds	12	3	[0, 0, 0]	n/a	catFR1	0	R1324M
1071.932	0.0	1072350	WORD_OFF	n/a	n/a	ROBIN	Birds	12	3	[0, 0, 0]	n/a	catFR1	0	R1324M
1071.932	0.001	1072350	ENCODING_END	n/a	n/a	n/a	n/a	-999	3	[0, 0, 0]	n/a	catFR1	0	R1324M
1071.933	0.0	1072351	DISTRACT_START	n/a	n/a	n/a	n/a	-999	3	[0, 0, 0]	n/a	catFR1	0	R1324M
1071.933	0.016	1072351	START	n/a	n/a	n/a	n/a	-999	3	[-999, -999, -999]	n/a	catFR1	0	R1324M
1071.949	11.569	1072367	PROB	11.537	n/a	n/a	n/a	-999	3	[9, 6, 6]	21.0	catFR1	0	R1324M
1083.518	9.962	1083935	PROB	9.962	n/a	n/a	n/a	-999	3	[6, 6, 4]	16.0	catFR1	0	R1324M
1093.48	0.006	1093897	STOP	n/a	n/a	n/a	n/a	-999	3	[-999, -999, -999]	n/a	catFR1	0	R1324M
1093.486	0.596	1093903	DISTRACT_END	n/a	n/a	n/a	n/a	-999	3	[0, 0, 0]	n/a	catFR1	0	R1324M
1094.082	1.588	1094499	RETRIEVAL_ORIENT_START	n/a	n/a	n/a	n/a	-999	3	[0, 0, 0]	n/a	catFR1	0	R1324M
1095.67	0.0	1096087	RETRIEVAL_ORIENT_END	n/a	n/a	n/a	n/a	-999	3	[0, 0, 0]	n/a	catFR1	0	R1324M
1095.67	0.746	1096087	REC_START	n/a	n/a	n/a	n/a	-999	3	[0, 0, 0]	n/a	catFR1	0	R1324M
1096.416	1.843	1096833	REC_WORD	0.746	n/a	FINCH	Birds	1	3	[0, 0, 0]	n/a	catFR1	0	R1324M
1098.259	1.43	1098676	REC_WORD	2.589	n/a	BIRD	n/a	-999	3	[0, 0, 0]	n/a	catFR1	0	R1324M
1099.689	0.998	1100105	REC_WORD	4.019	n/a	SEAGULL	Birds	-999	3	[0, 0, 0]	n/a	catFR1	0	R1324M
1100.687	1.193	1101103	REC_WORD_VV	5.017	n/a	<>	n/a	-999	3	[0, 0, 0]	n/a	catFR1	0	R1324M
1101.88	23.803	1102296	REC_WORD	6.21	n/a	HAWK	Birds	2	3	[0, 0, 0]	n/a	catFR1	0	R1324M
1125.683	0.0	1126098	REC_END	n/a	n/a	n/a	n/a	-999	3	[0, 0, 0]	n/a	catFR1	0	R1324M
1125.683	0.023	1126098	TRIAL_END	n/a	n/a	n/a	n/a	-999	3	[0, 0, 0]	n/a	catFR1	0	R1324M
1125.706	0.001	1126121	TRIAL_START	n/a	n/a	n/a	n/a	-999	4	[0, 0, 0]	n/a	catFR1	0	R1324M
1125.707	0.0	1126122	WAITING_START	n/a	n/a	n/a	n/a	-999	4	[0, 0, 0]	n/a	catFR1	0	R1324M
1125.707	6.037	1126122	TRIAL	n/a	n/a	n/a	n/a	-999	4	[0, 0, 0]	n/a	catFR1	0	R1324M
1131.744	0.0	1132159	WAITING_END	n/a	n/a	n/a	n/a	-999	4	[0, 0, 0]	n/a	catFR1	0	R1324M
1131.744	10.429	1132159	COUNTDOWN_START	n/a	n/a	n/a	n/a	-999	4	[0, 0, 0]	n/a	catFR1	0	R1324M
1142.173	0.0	1142588	COUNTDOWN_END	n/a	n/a	n/a	n/a	-999	4	[0, 0, 0]	n/a	catFR1	0	R1324M
1142.173	1.056	1142588	ORIENT_START	n/a	n/a	n/a	n/a	-999	4	[0, 0, 0]	n/a	catFR1	0	R1324M
1143.229	0.001	1143644	ORIENT_END	n/a	n/a	n/a	n/a	-999	4	[0, 0, 0]	n/a	catFR1	0	R1324M
1143.23	0.762	1143645	ENCODING_START	n/a	n/a	n/a	n/a	-999	4	[0, 0, 0]	n/a	catFR1	0	R1324M
1143.992	1.638	1144407	WORD	n/a	wordpools/wordpool_categorized_EN.txt	LILY	Flowers	1	4	[0, 0, 0]	n/a	catFR1	0	R1324M
1145.63	0.751	1146045	WORD_OFF	n/a	n/a	LILY	Flowers	1	4	[0, 0, 0]	n/a	catFR1	0	R1324M
1146.381	1.632	1146796	WORD	n/a	wordpools/wordpool_categorized_EN.txt	SUNFLOWER	Flowers	2	4	[0, 0, 0]	n/a	catFR1	0	R1324M
1148.013	0.752	1148427	WORD_OFF	n/a	n/a	SUNFLOWER	Flowers	2	4	[0, 0, 0]	n/a	catFR1	0	R1324M
1148.765	1.632	1149179	WORD	n/a	wordpools/wordpool_categorized_EN.txt	DRUM	Instruments	3	4	[0, 0, 0]	n/a	catFR1	0	R1324M
1150.397	1.124	1150811	WORD_OFF	n/a	n/a	DRUM	Instruments	3	4	[0, 0, 0]	n/a	catFR1	0	R1324M
1151.521	1.627	1151935	WORD	n/a	wordpools/wordpool_categorized_EN.txt	PIANO	Instruments	4	4	[0, 0, 0]	n/a	catFR1	0	R1324M
1153.148	0.847	1153562	WORD_OFF	n/a	n/a	PIANO	Instruments	4	4	[0, 0, 0]	n/a	catFR1	0	R1324M
1153.995	1.636	1154409	WORD	n/a	wordpools/wordpool_categorized_EN.txt	PAPER	OfficeSupplies	5	4	[0, 0, 0]	n/a	catFR1	0	R1324M
1155.631	1.076	1156045	WORD_OFF	n/a	n/a	PAPER	OfficeSupplies	5	4	[0, 0, 0]	n/a	catFR1	0	R1324M
1156.707	1.625	1157121	WORD	n/a	wordpools/wordpool_categorized_EN.txt	ERASER	OfficeSupplies	6	4	[0, 0, 0]	n/a	catFR1	0	R1324M
1158.332	0.996	1158746	WORD_OFF	n/a	n/a	ERASER	OfficeSupplies	6	4	[0, 0, 0]	n/a	catFR1	0	R1324M
1159.328	1.638	1159742	WORD	n/a	wordpools/wordpool_categorized_EN.txt	FLUTE	Instruments	7	4	[0, 0, 0]	n/a	catFR1	0	R1324M
1160.966	0.852	1161380	WORD_OFF	n/a	n/a	FLUTE	Instruments	7	4	[0, 0, 0]	n/a	catFR1	0	R1324M
1161.818	1.632	1162232	WORD	n/a	wordpools/wordpool_categorized_EN.txt	CELLO	Instruments	8	4	[0, 0, 0]	n/a	catFR1	0	R1324M
1163.45	0.82	1163864	WORD_OFF	n/a	n/a	CELLO	Instruments	8	4	[0, 0, 0]	n/a	catFR1	0	R1324M
1164.27	1.63	1164684	WORD	n/a	wordpools/wordpool_categorized_EN.txt	PEN	OfficeSupplies	9	4	[0, 0, 0]	n/a	catFR1	0	R1324M
1165.9	0.81	1166314	WORD_OFF	n/a	n/a	PEN	OfficeSupplies	9	4	[0, 0, 0]	n/a	catFR1	0	R1324M
1166.71	1.624	1167124	WORD	n/a	wordpools/wordpool_categorized_EN.txt	RULER	OfficeSupplies	10	4	[0, 0, 0]	n/a	catFR1	0	R1324M
1168.334	1.099	1168748	WORD_OFF	n/a	n/a	RULER	OfficeSupplies	10	4	[0, 0, 0]	n/a	catFR1	0	R1324M
1169.433	1.635	1169847	WORD	n/a	wordpools/wordpool_categorized_EN.txt	MARIGOLD	Flowers	11	4	[0, 0, 0]	n/a	catFR1	0	R1324M
1171.068	1.086	1171481	WORD_OFF	n/a	n/a	MARIGOLD	Flowers	11	4	[0, 0, 0]	n/a	catFR1	0	R1324M
1172.154	1.631	1172567	WORD	n/a	wordpools/wordpool_categorized_EN.txt	LILAC	Flowers	12	4	[0, 0, 0]	n/a	catFR1	0	R1324M
1173.785	0.001	1174198	WORD_OFF	n/a	n/a	LILAC	Flowers	12	4	[0, 0, 0]	n/a	catFR1	0	R1324M
1173.786	0.0	1174199	ENCODING_END	n/a	n/a	n/a	n/a	-999	4	[0, 0, 0]	n/a	catFR1	0	R1324M
1173.786	0.0	1174199	DISTRACT_START	n/a	n/a	n/a	n/a	-999	4	[0, 0, 0]	n/a	catFR1	0	R1324M
1173.786	0.016	1174199	START	n/a	n/a	n/a	n/a	-999	4	[-999, -999, -999]	n/a	catFR1	0	R1324M
1173.802	8.268	1174215	PROB	8.235	n/a	n/a	n/a	-999	4	[7, 2, 2]	11.0	catFR1	0	R1324M
1182.07	8.285	1182483	PROB	8.262	n/a	n/a	n/a	-999	4	[7, 1, 3]	11.0	catFR1	0	R1324M
1190.355	8.93	1190768	PROB	8.93	n/a	n/a	n/a	-999	4	[3, 4, 7]	14.0	catFR1	0	R1324M
1199.285	0.022	1199697	STOP	n/a	n/a	n/a	n/a	-999	4	[-999, -999, -999]	n/a	catFR1	0	R1324M
1199.307	0.518	1199719	DISTRACT_END	n/a	n/a	n/a	n/a	-999	4	[0, 0, 0]	n/a	catFR1	0	R1324M
1199.825	1.532	1200237	RETRIEVAL_ORIENT_START	n/a	n/a	n/a	n/a	-999	4	[0, 0, 0]	n/a	catFR1	0	R1324M
1201.357	0.0	1201769	RETRIEVAL_ORIENT_END	n/a	n/a	n/a	n/a	-999	4	[0, 0, 0]	n/a	catFR1	0	R1324M
1201.357	29.988	1201769	REC_START	n/a	n/a	n/a	n/a	-999	4	[0, 0, 0]	n/a	catFR1	0	R1324M
1231.345	0.026	1231756	REC_WORD_VV	29.988	n/a	<>	n/a	-999	4	[0, 0, 0]	n/a	catFR1	0	R1324M
1231.371	0.0	1231782	REC_END	n/a	n/a	n/a	n/a	-999	4	[0, 0, 0]	n/a	catFR1	0	R1324M
1231.371	0.023	1231782	TRIAL_END	n/a	n/a	n/a	n/a	-999	4	[0, 0, 0]	n/a	catFR1	0	R1324M
1231.394	0.001	1231805	TRIAL_START	n/a	n/a	n/a	n/a	-999	5	[0, 0, 0]	n/a	catFR1	0	R1324M
1231.395	0.0	1231806	TRIAL	n/a	n/a	n/a	n/a	-999	5	[0, 0, 0]	n/a	catFR1	0	R1324M
1231.395	3.319	1231806	WAITING_START	n/a	n/a	n/a	n/a	-999	5	[0, 0, 0]	n/a	catFR1	0	R1324M
1234.714	0.0	1235125	WAITING_END	n/a	n/a	n/a	n/a	-999	5	[0, 0, 0]	n/a	catFR1	0	R1324M
1234.714	10.428	1235125	COUNTDOWN_START	n/a	n/a	n/a	n/a	-999	5	[0, 0, 0]	n/a	catFR1	0	R1324M
1245.142	0.001	1245552	COUNTDOWN_END	n/a	n/a	n/a	n/a	-999	5	[0, 0, 0]	n/a	catFR1	0	R1324M
1245.143	1.206	1245553	ORIENT_START	n/a	n/a	n/a	n/a	-999	5	[0, 0, 0]	n/a	catFR1	0	R1324M
1246.349	0.001	1246759	ORIENT_END	n/a	n/a	n/a	n/a	-999	5	[0, 0, 0]	n/a	catFR1	0	R1324M
1246.35	1.038	1246760	ENCODING_START	n/a	n/a	n/a	n/a	-999	5	[0, 0, 0]	n/a	catFR1	0	R1324M
1247.388	1.628	1247798	WORD	n/a	wordpools/wordpool_categorized_EN.txt	NIGHTSTAND	Furniture	1	5	[0, 0, 0]	n/a	catFR1	0	R1324M
1249.016	1.012	1249426	WORD_OFF	n/a	n/a	NIGHTSTAND	Furniture	1	5	[0, 0, 0]	n/a	catFR1	0	R1324M
1250.028	1.622	1250438	WORD	n/a	wordpools/wordpool_categorized_EN.txt	BED	Furniture	2	5	[0, 0, 0]	n/a	catFR1	0	R1324M
1251.65	0.916	1252060	WORD_OFF	n/a	n/a	BED	Furniture	2	5	[0, 0, 0]	n/a	catFR1	0	R1324M
1252.566	1.635	1252976	WORD	n/a	wordpools/wordpool_categorized_EN.txt	VIOLIN	Instruments	3	5	[0, 0, 0]	n/a	catFR1	0	R1324M
1254.201	0.893	1254611	WORD_OFF	n/a	n/a	VIOLIN	Instruments	3	5	[0, 0, 0]	n/a	catFR1	0	R1324M
1255.094	1.624	1255504	WORD	n/a	wordpools/wordpool_categorized_EN.txt	BANJO	Instruments	4	5	[0, 0, 0]	n/a	catFR1	0	R1324M
1256.718	0.929	1257128	WORD_OFF	n/a	n/a	BANJO	Instruments	4	5	[0, 0, 0]	n/a	catFR1	0	R1324M
1257.647	1.621	1258057	WORD	n/a	wordpools/wordpool_categorized_EN.txt	TAPE	OfficeSupplies	5	5	[0, 0, 0]	n/a	catFR1	0	R1324M
1259.268	0.807	1259678	WORD_OFF	n/a	n/a	TAPE	OfficeSupplies	5	5	[0, 0, 0]	n/a	catFR1	0	R1324M
1260.075	1.627	1260485	WORD	n/a	wordpools/wordpool_categorized_EN.txt	GLUE	OfficeSupplies	6	5	[0, 0, 0]	n/a	catFR1	0	R1324M
1261.702	0.897	1262112	WORD_OFF	n/a	n/a	GLUE	OfficeSupplies	6	5	[0, 0, 0]	n/a	catFR1	0	R1324M
1262.599	1.637	1263009	WORD	n/a	wordpools/wordpool_categorized_EN.txt	RECLINER	Furniture	7	5	[0, 0, 0]	n/a	catFR1	0	R1324M
1264.236	0.899	1264646	WORD_OFF	n/a	n/a	RECLINER	Furniture	7	5	[0, 0, 0]	n/a	catFR1	0	R1324M
1265.135	1.635	1265545	WORD	n/a	wordpools/wordpool_categorized_EN.txt	DRESSER	Furniture	8	5	[0, 0, 0]	n/a	catFR1	0	R1324M
1266.77	0.907	1267179	WORD_OFF	n/a	n/a	DRESSER	Furniture	8	5	[0, 0, 0]	n/a	catFR1	0	R1324M
1267.677	1.627	1268086	WORD	n/a	wordpools/wordpool_categorized_EN.txt	BASS	Instruments	9	5	[0, 0, 0]	n/a	catFR1	0	R1324M
1269.304	1.127	1269713	WORD_OFF	n/a	n/a	BASS	Instruments	9	5	[0, 0, 0]	n/a	catFR1	0	R1324M
1270.431	1.623	1270840	WORD	n/a	wordpools/wordpool_categorized_EN.txt	ORGAN	Instruments	10	5	[0, 0, 0]	n/a	catFR1	0	R1324M
1272.054	1.073	1272463	WORD_OFF	n/a	n/a	ORGAN	Instruments	10	5	[0, 0, 0]	n/a	catFR1	0	R1324M
1273.127	1.628	1273536	WORD	n/a	wordpools/wordpool_categorized_EN.txt	STAPLER	OfficeSupplies	11	5	[0, 0, 0]	n/a	catFR1	0	R1324M
1274.755	0.964	1275164	WORD_OFF	n/a	n/a	STAPLER	OfficeSupplies	11	5	[0, 0, 0]	n/a	catFR1	0	R1324M
1275.719	1.636	1276128	WORD	n/a	wordpools/wordpool_categorized_EN.txt	BINDER	OfficeSupplies	12	5	[0, 0, 0]	n/a	catFR1	0	R1324M
1277.355	0.0	1277764	WORD_OFF	n/a	n/a	BINDER	OfficeSupplies	12	5	[0, 0, 0]	n/a	catFR1	0	R1324M
1277.355	0.001	1277764	ENCODING_END	n/a	n/a	n/a	n/a	-999	5	[0, 0, 0]	n/a	catFR1	0	R1324M
1277.356	0.0	1277765	DISTRACT_START	n/a	n/a	n/a	n/a	-999	5	[0, 0, 0]	n/a	catFR1	0	R1324M
1277.356	0.016	1277765	START	n/a	n/a	n/a	n/a	-999	5	[-999, -999, -999]	n/a	catFR1	0	R1324M
1277.372	14.852	1277781	PROB	14.829	n/a	n/a	n/a	-999	5	[6, 1, 7]	14.0	catFR1	0	R1324M
1292.224	15.232	1292632	PROB	15.232	n/a	n/a	n/a	-999	5	[4, 9, 5]	18.0	catFR1	0	R1324M
1307.456	0.021	1307864	STOP	n/a	n/a	n/a	n/a	-999	5	[-999, -999, -999]	n/a	catFR1	0	R1324M
1307.477	0.581	1307885	DISTRACT_END	n/a	n/a	n/a	n/a	-999	5	[0, 0, 0]	n/a	catFR1	0	R1324M
1308.058	1.538	1308466	RETRIEVAL_ORIENT_START	n/a	n/a	n/a	n/a	-999	5	[0, 0, 0]	n/a	catFR1	0	R1324M
1309.596	0.0	1310004	REC_START	n/a	n/a	n/a	n/a	-999	5	[0, 0, 0]	n/a	catFR1	0	R1324M
1309.596	2.11	1310004	RETRIEVAL_ORIENT_END	n/a	n/a	n/a	n/a	-999	5	[0, 0, 0]	n/a	catFR1	0	R1324M
1311.706	2.126	1312114	REC_WORD	2.11	n/a	NIGHTSTAND	Furniture	1	5	[0, 0, 0]	n/a	catFR1	0	R1324M
1313.832	2.852	1314239	REC_WORD	4.236	n/a	BED	Furniture	2	5	[0, 0, 0]	n/a	catFR1	0	R1324M
1316.684	3.423	1317091	REC_WORD	7.088	n/a	DRESSER	Furniture	8	5	[0, 0, 0]	n/a	catFR1	0	R1324M
1320.107	19.501	1320514	REC_WORD	10.511	n/a	ROOM	n/a	-999	5	[0, 0, 0]	n/a	catFR1	0	R1324M
1339.608	0.0	1340014	REC_END	n/a	n/a	n/a	n/a	-999	5	[0, 0, 0]	n/a	catFR1	0	R1324M
1339.608	0.024	1340014	TRIAL_END	n/a	n/a	n/a	n/a	-999	5	[0, 0, 0]	n/a	catFR1	0	R1324M
1339.632	0.001	1340038	TRIAL_START	n/a	n/a	n/a	n/a	-999	6	[0, 0, 0]	n/a	catFR1	0	R1324M
1339.633	0.0	1340039	WAITING_START	n/a	n/a	n/a	n/a	-999	6	[0, 0, 0]	n/a	catFR1	0	R1324M
1339.633	6.669	1340039	TRIAL	n/a	n/a	n/a	n/a	-999	6	[0, 0, 0]	n/a	catFR1	0	R1324M
1346.302	0.0	1346708	WAITING_END	n/a	n/a	n/a	n/a	-999	6	[0, 0, 0]	n/a	catFR1	0	R1324M
1346.302	10.429	1346708	COUNTDOWN_START	n/a	n/a	n/a	n/a	-999	6	[0, 0, 0]	n/a	catFR1	0	R1324M
1356.731	0.001	1357137	COUNTDOWN_END	n/a	n/a	n/a	n/a	-999	6	[0, 0, 0]	n/a	catFR1	0	R1324M
1356.732	1.205	1357138	ORIENT_START	n/a	n/a	n/a	n/a	-999	6	[0, 0, 0]	n/a	catFR1	0	R1324M
1357.937	0.001	1358343	ORIENT_END	n/a	n/a	n/a	n/a	-999	6	[0, 0, 0]	n/a	catFR1	0	R1324M
1357.938	1.045	1358344	ENCODING_START	n/a	n/a	n/a	n/a	-999	6	[0, 0, 0]	n/a	catFR1	0	R1324M
1358.983	1.623	1359389	WORD	n/a	wordpools/wordpool_categorized_EN.txt	TOE	BodyParts	1	6	[0, 0, 0]	n/a	catFR1	0	R1324M
1360.606	1.03	1361012	WORD_OFF	n/a	n/a	TOE	BodyParts	1	6	[0, 0, 0]	n/a	catFR1	0	R1324M
1361.636	1.636	1362041	WORD	n/a	wordpools/wordpool_categorized_EN.txt	EYE	BodyParts	2	6	[0, 0, 0]	n/a	catFR1	0	R1324M
1363.272	1.109	1363677	WORD_OFF	n/a	n/a	EYE	BodyParts	2	6	[0, 0, 0]	n/a	catFR1	0	R1324M
1364.381	1.625	1364786	WORD	n/a	wordpools/wordpool_categorized_EN.txt	ROOM	Building	3	6	[0, 0, 0]	n/a	catFR1	0	R1324M
1366.006	1.104	1366411	WORD_OFF	n/a	n/a	ROOM	Building	3	6	[0, 0, 0]	n/a	catFR1	0	R1324M
1367.11	1.629	1367515	WORD	n/a	wordpools/wordpool_categorized_EN.txt	WINDOW	Building	4	6	[0, 0, 0]	n/a	catFR1	0	R1324M
1368.739	0.979	1369144	WORD_OFF	n/a	n/a	WINDOW	Building	4	6	[0, 0, 0]	n/a	catFR1	0	R1324M
1369.718	1.639	1370123	WORD	n/a	wordpools/wordpool_categorized_EN.txt	ELEPHANT	Zoo	5	6	[0, 0, 0]	n/a	catFR1	0	R1324M
1371.357	0.869	1371762	WORD_OFF	n/a	n/a	ELEPHANT	Zoo	5	6	[0, 0, 0]	n/a	catFR1	0	R1324M
1372.226	1.631	1372631	WORD	n/a	wordpools/wordpool_categorized_EN.txt	PANDA	Zoo	6	6	[0, 0, 0]	n/a	catFR1	0	R1324M
1373.857	1.009	1374262	WORD_OFF	n/a	n/a	PANDA	Zoo	6	6	[0, 0, 0]	n/a	catFR1	0	R1324M
1374.866	1.625	1375271	WORD	n/a	wordpools/wordpool_categorized_EN.txt	EAR	BodyParts	7	6	[0, 0, 0]	n/a	catFR1	0	R1324M
1376.491	0.874	1376896	WORD_OFF	n/a	n/a	EAR	BodyParts	7	6	[0, 0, 0]	n/a	catFR1	0	R1324M
1377.365	1.626	1377770	WORD	n/a	wordpools/wordpool_categorized_EN.txt	ELBOW	BodyParts	8	6	[0, 0, 0]	n/a	catFR1	0	R1324M
1378.991	1.137	1379396	WORD_OFF	n/a	n/a	ELBOW	BodyParts	8	6	[0, 0, 0]	n/a	catFR1	0	R1324M
1380.128	1.631	1380533	WORD	n/a	wordpools/wordpool_categorized_EN.txt	LION	Zoo	9	6	[0, 0, 0]	n/a	catFR1	0	R1324M
1381.759	0.858	1382164	WORD_OFF	n/a	n/a	LION	Zoo	9	6	[0, 0, 0]	n/a	catFR1	0	R1324M
1382.617	1.625	1383022	WORD	n/a	wordpools/wordpool_categorized_EN.txt	ORANGUTAN	Zoo	10	6	[0, 0, 0]	n/a	catFR1	0	R1324M
1384.242	0.967	1384647	WORD_OFF	n/a	n/a	ORANGUTAN	Zoo	10	6	[0, 0, 0]	n/a	catFR1	0	R1324M
1385.209	1.634	1385613	WORD	n/a	wordpools/wordpool_categorized_EN.txt	WALL	Building	11	6	[0, 0, 0]	n/a	catFR1	0	R1324M
1386.843	1.114	1387247	WORD_OFF	n/a	n/a	WALL	Building	11	6	[0, 0, 0]	n/a	catFR1	0	R1324M
1387.957	1.62	1388361	WORD	n/a	wordpools/wordpool_categorized_EN.txt	STAIRS	Building	12	6	[0, 0, 0]	n/a	catFR1	0	R1324M
1389.577	0.001	1389981	WORD_OFF	n/a	n/a	STAIRS	Building	12	6	[0, 0, 0]	n/a	catFR1	0	R1324M
1389.578	0.0	1389982	ENCODING_END	n/a	n/a	n/a	n/a	-999	6	[0, 0, 0]	n/a	catFR1	0	R1324M
1389.578	0.0	1389982	DISTRACT_START	n/a	n/a	n/a	n/a	-999	6	[0, 0, 0]	n/a	catFR1	0	R1324M
1389.578	0.016	1389982	START	n/a	n/a	n/a	n/a	-999	6	[-999, -999, -999]	n/a	catFR1	0	R1324M
1389.594	19.086	1389998	PROB	19.055	n/a	n/a	n/a	-999	6	[6, 6, 8]	20.0	catFR1	0	R1324M
1408.68	32.192	1409083	PROB	32.192	n/a	n/a	n/a	-999	6	[8, 6, 8]	22.0	catFR1	0	R1324M
1440.872	0.015	1441274	STOP	n/a	n/a	n/a	n/a	-999	6	[-999, -999, -999]	n/a	catFR1	0	R1324M
1440.887	0.516	1441289	DISTRACT_END	n/a	n/a	n/a	n/a	-999	6	[0, 0, 0]	n/a	catFR1	0	R1324M
1441.403	1.601	1441805	RETRIEVAL_ORIENT_START	n/a	n/a	n/a	n/a	-999	6	[0, 0, 0]	n/a	catFR1	0	R1324M
1443.004	0.0	1443406	RETRIEVAL_ORIENT_END	n/a	n/a	n/a	n/a	-999	6	[0, 0, 0]	n/a	catFR1	0	R1324M
1443.004	1.532	1443406	REC_START	n/a	n/a	n/a	n/a	-999	6	[0, 0, 0]	n/a	catFR1	0	R1324M
1444.536	18.18	1444938	REC_WORD_VV	1.532	n/a	<>	n/a	-999	6	[0, 0, 0]	n/a	catFR1	0	R1324M
1462.716	0.977	1463117	REC_WORD_VV	19.712	n/a	<>	n/a	-999	6	[0, 0, 0]	n/a	catFR1	0	R1324M
1463.693	9.323	1464094	REC_WORD_VV	20.689	n/a	<>	n/a	-999	6	[0, 0, 0]	n/a	catFR1	0	R1324M
1473.016	0.0	1473417	REC_END	n/a	n/a	n/a	n/a	-999	6	[0, 0, 0]	n/a	catFR1	0	R1324M
1473.016	0.025	1473417	TRIAL_END	n/a	n/a	n/a	n/a	-999	6	[0, 0, 0]	n/a	catFR1	0	R1324M
1473.041	0.0	1473442	TRIAL_START	n/a	n/a	n/a	n/a	-999	7	[0, 0, 0]	n/a	catFR1	0	R1324M
1473.041	0.0	1473442	TRIAL	n/a	n/a	n/a	n/a	-999	7	[0, 0, 0]	n/a	catFR1	0	R1324M
1473.041	9.854	1473442	WAITING_START	n/a	n/a	n/a	n/a	-999	7	[0, 0, 0]	n/a	catFR1	0	R1324M
1482.895	0.0	1483295	WAITING_END	n/a	n/a	n/a	n/a	-999	7	[0, 0, 0]	n/a	catFR1	0	R1324M
1482.895	10.429	1483295	COUNTDOWN_START	n/a	n/a	n/a	n/a	-999	7	[0, 0, 0]	n/a	catFR1	0	R1324M
1493.324	0.0	1493724	COUNTDOWN_END	n/a	n/a	n/a	n/a	-999	7	[0, 0, 0]	n/a	catFR1	0	R1324M
1493.324	1.056	1493724	ORIENT_START	n/a	n/a	n/a	n/a	-999	7	[0, 0, 0]	n/a	catFR1	0	R1324M
1494.38	0.001	1494780	ORIENT_END	n/a	n/a	n/a	n/a	-999	7	[0, 0, 0]	n/a	catFR1	0	R1324M
1494.381	0.886	1494781	ENCODING_START	n/a	n/a	n/a	n/a	-999	7	[0, 0, 0]	n/a	catFR1	0	R1324M
1495.267	1.63	1495667	WORD	n/a	wordpools/wordpool_categorized_EN.txt	DOVE	Birds	1	7	[0, 0, 0]	n/a	catFR1	0	R1324M
1496.897	0.762	1497297	WORD_OFF	n/a	n/a	DOVE	Birds	1	7	[0, 0, 0]	n/a	catFR1	0	R1324M
1497.659	1.622	1498059	WORD	n/a	wordpools/wordpool_categorized_EN.txt	BLUEBIRD	Birds	2	7	[0, 0, 0]	n/a	catFR1	0	R1324M
1499.281	0.908	1499681	WORD_OFF	n/a	n/a	BLUEBIRD	Birds	2	7	[0, 0, 0]	n/a	catFR1	0	R1324M
1500.189	1.626	1500589	WORD	n/a	wordpools/wordpool_categorized_EN.txt	LIME	Fruit	3	7	[0, 0, 0]	n/a	catFR1	0	R1324M
1501.815	1.015	1502215	WORD_OFF	n/a	n/a	LIME	Fruit	3	7	[0, 0, 0]	n/a	catFR1	0	R1324M
1502.83	1.636	1503230	WORD	n/a	wordpools/wordpool_categorized_EN.txt	BANANA	Fruit	4	7	[0, 0, 0]	n/a	catFR1	0	R1324M
1504.466	0.992	1504865	WORD_OFF	n/a	n/a	BANANA	Fruit	4	7	[0, 0, 0]	n/a	catFR1	0	R1324M
1505.458	1.625	1505857	WORD	n/a	wordpools/wordpool_categorized_EN.txt	HAMMER	Tools	5	7	[0, 0, 0]	n/a	catFR1	0	R1324M
1507.083	1.072	1507482	WORD_OFF	n/a	n/a	HAMMER	Tools	5	7	[0, 0, 0]	n/a	catFR1	0	R1324M
1508.155	1.628	1508554	WORD	n/a	wordpools/wordpool_categorized_EN.txt	SHOVEL	Tools	6	7	[0, 0, 0]	n/a	catFR1	0	R1324M
1509.783	1.026	1510182	WORD_OFF	n/a	n/a	SHOVEL	Tools	6	7	[0, 0, 0]	n/a	catFR1	0	R1324M
1510.809	1.625	1511208	WORD	n/a	wordpools/wordpool_categorized_EN.txt	CARDINAL	Birds	7	7	[0, 0, 0]	n/a	catFR1	0	R1324M
1512.434	0.826	1512833	WORD_OFF	n/a	n/a	CARDINAL	Birds	7	7	[0, 0, 0]	n/a	catFR1	0	R1324M
1513.26	1.624	1513659	WORD	n/a	wordpools/wordpool_categorized_EN.txt	PIGEON	Birds	8	7	[0, 0, 0]	n/a	catFR1	0	R1324M
1514.884	0.765	1515283	WORD_OFF	n/a	n/a	PIGEON	Birds	8	7	[0, 0, 0]	n/a	catFR1	0	R1324M
1515.649	1.636	1516048	WORD	n/a	wordpools/wordpool_categorized_EN.txt	STRAWBERRY	Fruit	9	7	[0, 0, 0]	n/a	catFR1	0	R1324M
1517.285	0.831	1517684	WORD_OFF	n/a	n/a	STRAWBERRY	Fruit	9	7	[0, 0, 0]	n/a	catFR1	0	R1324M
1518.116	1.636	1518515	WORD	n/a	wordpools/wordpool_categorized_EN.txt	LEMON	Fruit	10	7	[0, 0, 0]	n/a	catFR1	0	R1324M
1519.752	0.932	1520151	WORD_OFF	n/a	n/a	LEMON	Fruit	10	7	[0, 0, 0]	n/a	catFR1	0	R1324M
1520.684	1.635	1521083	WORD	n/a	wordpools/wordpool_categorized_EN.txt	DRILL	Tools	11	7	[0, 0, 0]	n/a	catFR1	0	R1324M
1522.319	0.884	1522718	WORD_OFF	n/a	n/a	DRILL	Tools	11	7	[0, 0, 0]	n/a	catFR1	0	R1324M
1523.203	1.633	1523602	WORD	n/a	wordpools/wordpool_categorized_EN.txt	AXE	Tools	12	7	[0, 0, 0]	n/a	catFR1	0	R1324M
1524.836	0.001	1525235	WORD_OFF	n/a	n/a	AXE	Tools	12	7	[0, 0, 0]	n/a	catFR1	0	R1324M
1524.837	0.0	1525236	ENCODING_END	n/a	n/a	n/a	n/a	-999	7	[0, 0, 0]	n/a	catFR1	0	R1324M
1524.837	0.0	1525236	DISTRACT_START	n/a	n/a	n/a	n/a	-999	7	[0, 0, 0]	n/a	catFR1	0	R1324M
1524.837	0.016	1525236	START	n/a	n/a	n/a	n/a	-999	7	[-999, -999, -999]	n/a	catFR1	0	R1324M
1524.853	8.301	1525252	PROB	8.276	n/a	n/a	n/a	-999	7	[1, 9, 1]	11.0	catFR1	0	R1324M
1533.154	18.587	1533552	PROB	18.587	n/a	n/a	n/a	-999	7	[4, 4, 9]	17.0	catFR1	0	R1324M
1551.741	0.017	1552138	STOP	n/a	n/a	n/a	n/a	-999	7	[-999, -999, -999]	n/a	catFR1	0	R1324M
1551.758	0.643	1552155	DISTRACT_END	n/a	n/a	n/a	n/a	-999	7	[0, 0, 0]	n/a	catFR1	0	R1324M
1552.401	1.624	1552798	RETRIEVAL_ORIENT_START	n/a	n/a	n/a	n/a	-999	7	[0, 0, 0]	n/a	catFR1	0	R1324M
1554.025	0.0	1554422	RETRIEVAL_ORIENT_END	n/a	n/a	n/a	n/a	-999	7	[0, 0, 0]	n/a	catFR1	0	R1324M
1554.025	3.656	1554422	REC_START	n/a	n/a	n/a	n/a	-999	7	[0, 0, 0]	n/a	catFR1	0	R1324M
1557.681	0.85	1558078	REC_WORD	3.656	n/a	LIME	Fruit	3	7	[0, 0, 0]	n/a	catFR1	0	R1324M
1558.531	1.087	1558928	REC_WORD	4.506	n/a	BLUEBIRD	Birds	2	7	[0, 0, 0]	n/a	catFR1	0	R1324M
1559.618	7.602	1560015	REC_WORD_VV	5.593	n/a	<>	n/a	-999	7	[0, 0, 0]	n/a	catFR1	0	R1324M
1567.22	0.992	1567617	REC_WORD	13.195	n/a	PIGEON	Birds	8	7	[0, 0, 0]	n/a	catFR1	0	R1324M
1568.212	6.614	1568609	REC_WORD	14.187	n/a	SEAGULL	Birds	-999	7	[0, 0, 0]	n/a	catFR1	0	R1324M
1574.826	9.212	1575223	REC_WORD	20.801	n/a	CARDINAL	Birds	7	7	[0, 0, 0]	n/a	catFR1	0	R1324M
1584.038	0.0	1584434	REC_END	n/a	n/a	n/a	n/a	-999	7	[0, 0, 0]	n/a	catFR1	0	R1324M
1584.038	0.023	1584434	TRIAL_END	n/a	n/a	n/a	n/a	-999	7	[0, 0, 0]	n/a	catFR1	0	R1324M
1584.061	0.0	1584457	TRIAL_START	n/a	n/a	n/a	n/a	-999	8	[0, 0, 0]	n/a	catFR1	0	R1324M
1584.061	0.0	1584457	TRIAL	n/a	n/a	n/a	n/a	-999	8	[0, 0, 0]	n/a	catFR1	0	R1324M
1584.061	7.938	1584457	WAITING_START	n/a	n/a	n/a	n/a	-999	8	[0, 0, 0]	n/a	catFR1	0	R1324M
1591.999	0.001	1592395	WAITING_END	n/a	n/a	n/a	n/a	-999	8	[0, 0, 0]	n/a	catFR1	0	R1324M
1592.0	10.429	1592396	COUNTDOWN_START	n/a	n/a	n/a	n/a	-999	8	[0, 0, 0]	n/a	catFR1	0	R1324M
1602.429	0.0	1602824	COUNTDOWN_END	n/a	n/a	n/a	n/a	-999	8	[0, 0, 0]	n/a	catFR1	0	R1324M
1602.429	1.039	1602824	ORIENT_START	n/a	n/a	n/a	n/a	-999	8	[0, 0, 0]	n/a	catFR1	0	R1324M
1603.468	0.0	1603863	ORIENT_END	n/a	n/a	n/a	n/a	-999	8	[0, 0, 0]	n/a	catFR1	0	R1324M
1603.468	0.993	1603863	ENCODING_START	n/a	n/a	n/a	n/a	-999	8	[0, 0, 0]	n/a	catFR1	0	R1324M
1604.461	1.624	1604856	WORD	n/a	wordpools/wordpool_categorized_EN.txt	DISHWASHER	Appliances	1	8	[0, 0, 0]	n/a	catFR1	0	R1324M
1606.085	1.132	1606480	WORD_OFF	n/a	n/a	DISHWASHER	Appliances	1	8	[0, 0, 0]	n/a	catFR1	0	R1324M
1607.217	1.635	1607612	WORD	n/a	wordpools/wordpool_categorized_EN.txt	VACUUM	Appliances	2	8	[0, 0, 0]	n/a	catFR1	0	R1324M
1608.852	1.037	1609247	WORD_OFF	n/a	n/a	VACUUM	Appliances	2	8	[0, 0, 0]	n/a	catFR1	0	R1324M
1609.889	1.631	1610284	WORD	n/a	wordpools/wordpool_categorized_EN.txt	BLUEBERRY	Fruit	3	8	[0, 0, 0]	n/a	catFR1	0	R1324M
1611.52	0.946	1611915	WORD_OFF	n/a	n/a	BLUEBERRY	Fruit	3	8	[0, 0, 0]	n/a	catFR1	0	R1324M
1612.466	1.621	1612861	WORD	n/a	wordpools/wordpool_categorized_EN.txt	PLUM	Fruit	4	8	[0, 0, 0]	n/a	catFR1	0	R1324M
1614.087	1.09	1614482	WORD_OFF	n/a	n/a	PLUM	Fruit	4	8	[0, 0, 0]	n/a	catFR1	0	R1324M
1615.177	1.627	1615572	WORD	n/a	wordpools/wordpool_categorized_EN.txt	TRUMPET	Instruments	5	8	[0, 0, 0]	n/a	catFR1	0	R1324M
1616.804	0.995	1617199	WORD_OFF	n/a	n/a	TRUMPET	Instruments	5	8	[0, 0, 0]	n/a	catFR1	0	R1324M
1617.799	1.622	1618194	WORD	n/a	wordpools/wordpool_categorized_EN.txt	TROMBONE	Instruments	6	8	[0, 0, 0]	n/a	catFR1	0	R1324M
1619.421	1.129	1619816	WORD_OFF	n/a	n/a	TROMBONE	Instruments	6	8	[0, 0, 0]	n/a	catFR1	0	R1324M
1620.55	1.622	1620945	WORD	n/a	wordpools/wordpool_categorized_EN.txt	FREEZER	Appliances	7	8	[0, 0, 0]	n/a	catFR1	0	R1324M
1622.172	0.864	1622567	WORD_OFF	n/a	n/a	FREEZER	Appliances	7	8	[0, 0, 0]	n/a	catFR1	0	R1324M
1623.036	1.636	1623431	WORD	n/a	wordpools/wordpool_categorized_EN.txt	IRON	Appliances	8	8	[0, 0, 0]	n/a	catFR1	0	R1324M
1624.672	0.912	1625066	WORD_OFF	n/a	n/a	IRON	Appliances	8	8	[0, 0, 0]	n/a	catFR1	0	R1324M
1625.584	1.622	1625978	WORD	n/a	wordpools/wordpool_categorized_EN.txt	PEACH	Fruit	9	8	[0, 0, 0]	n/a	catFR1	0	R1324M
1627.206	1.079	1627600	WORD_OFF	n/a	n/a	PEACH	Fruit	9	8	[0, 0, 0]	n/a	catFR1	0	R1324M
1628.285	1.621	1628679	WORD	n/a	wordpools/wordpool_categorized_EN.txt	PEAR	Fruit	10	8	[0, 0, 0]	n/a	catFR1	0	R1324M
1629.906	1.021	1630300	WORD_OFF	n/a	n/a	PEAR	Fruit	10	8	[0, 0, 0]	n/a	catFR1	0	R1324M
1630.927	1.63	1631321	WORD	n/a	wordpools/wordpool_categorized_EN.txt	GUITAR	Instruments	11	8	[0, 0, 0]	n/a	catFR1	0	R1324M
1632.557	1.082	1632951	WORD_OFF	n/a	n/a	GUITAR	Instruments	11	8	[0, 0, 0]	n/a	catFR1	0	R1324M
1633.639	1.635	1634033	WORD	n/a	wordpools/wordpool_categorized_EN.txt	TUBA	Instruments	12	8	[0, 0, 0]	n/a	catFR1	0	R1324M
1635.274	0.0	1635668	WORD_OFF	n/a	n/a	TUBA	Instruments	12	8	[0, 0, 0]	n/a	catFR1	0	R1324M
1635.274	0.001	1635668	ENCODING_END	n/a	n/a	n/a	n/a	-999	8	[0, 0, 0]	n/a	catFR1	0	R1324M
1635.275	0.0	1635669	DISTRACT_START	n/a	n/a	n/a	n/a	-999	8	[0, 0, 0]	n/a	catFR1	0	R1324M
1635.275	0.016	1635669	START	n/a	n/a	n/a	n/a	-999	8	[-999, -999, -999]	n/a	catFR1	0	R1324M
1635.291	7.751	1635685	PROB	7.726	n/a	n/a	n/a	-999	8	[7, 7, 2]	16.0	catFR1	0	R1324M
1643.042	20.026	1643436	PROB	20.026	n/a	n/a	n/a	-999	8	[5, 8, 7]	20.0	catFR1	0	R1324M
1663.068	0.011	1663461	STOP	n/a	n/a	n/a	n/a	-999	8	[-999, -999, -999]	n/a	catFR1	0	R1324M
1663.079	0.534	1663472	DISTRACT_END	n/a	n/a	n/a	n/a	-999	8	[0, 0, 0]	n/a	catFR1	0	R1324M
1663.613	1.6	1664006	RETRIEVAL_ORIENT_START	n/a	n/a	n/a	n/a	-999	8	[0, 0, 0]	n/a	catFR1	0	R1324M
1665.213	0.001	1665606	RETRIEVAL_ORIENT_END	n/a	n/a	n/a	n/a	-999	8	[0, 0, 0]	n/a	catFR1	0	R1324M
1665.214	1.959	1665607	REC_START	n/a	n/a	n/a	n/a	-999	8	[0, 0, 0]	n/a	catFR1	0	R1324M
1667.173	0.976	1667566	REC_WORD	1.959	n/a	BLUEBIRD	Birds	-999	8	[0, 0, 0]	n/a	catFR1	0	R1324M
1668.149	0.645	1668542	REC_WORD_VV	2.935	n/a	<>	n/a	-999	8	[0, 0, 0]	n/a	catFR1	0	R1324M
1668.794	26.432	1669187	REC_WORD	3.58	n/a	HERON	n/a	-999	8	[0, 0, 0]	n/a	catFR1	0	R1324M
1695.226	0.0	1695617	REC_END	n/a	n/a	n/a	n/a	-999	8	[0, 0, 0]	n/a	catFR1	0	R1324M
1695.226	0.024	1695617	TRIAL_END	n/a	n/a	n/a	n/a	-999	8	[0, 0, 0]	n/a	catFR1	0	R1324M
1695.25	0.0	1695641	TRIAL_START	n/a	n/a	n/a	n/a	-999	9	[0, 0, 0]	n/a	catFR1	0	R1324M
1695.25	0.0	1695641	TRIAL	n/a	n/a	n/a	n/a	-999	9	[0, 0, 0]	n/a	catFR1	0	R1324M
1695.25	25.107	1695641	WAITING_START	n/a	n/a	n/a	n/a	-999	9	[0, 0, 0]	n/a	catFR1	0	R1324M
1720.357	0.001	1720747	WAITING_END	n/a	n/a	n/a	n/a	-999	9	[0, 0, 0]	n/a	catFR1	0	R1324M
1720.358	10.429	1720748	COUNTDOWN_START	n/a	n/a	n/a	n/a	-999	9	[0, 0, 0]	n/a	catFR1	0	R1324M
1730.787	0.001	1731177	COUNTDOWN_END	n/a	n/a	n/a	n/a	-999	9	[0, 0, 0]	n/a	catFR1	0	R1324M
1730.788	1.171	1731178	ORIENT_START	n/a	n/a	n/a	n/a	-999	9	[0, 0, 0]	n/a	catFR1	0	R1324M
1731.959	0.001	1732349	ORIENT_END	n/a	n/a	n/a	n/a	-999	9	[0, 0, 0]	n/a	catFR1	0	R1324M
1731.96	1.066	1732350	ENCODING_START	n/a	n/a	n/a	n/a	-999	9	[0, 0, 0]	n/a	catFR1	0	R1324M
1733.026	1.634	1733416	WORD	n/a	wordpools/wordpool_categorized_EN.txt	RUM	Beverages	1	9	[0, 0, 0]	n/a	catFR1	0	R1324M
1734.66	0.801	1735050	WORD_OFF	n/a	n/a	RUM	Beverages	1	9	[0, 0, 0]	n/a	catFR1	0	R1324M
1735.461	1.633	1735851	WORD	n/a	wordpools/wordpool_categorized_EN.txt	TEA	Beverages	2	9	[0, 0, 0]	n/a	catFR1	0	R1324M
1737.094	0.961	1737484	WORD_OFF	n/a	n/a	TEA	Beverages	2	9	[0, 0, 0]	n/a	catFR1	0	R1324M
1738.055	1.623	1738445	WORD	n/a	wordpools/wordpool_categorized_EN.txt	DESK	Furniture	3	9	[0, 0, 0]	n/a	catFR1	0	R1324M
1739.678	0.868	1740068	WORD_OFF	n/a	n/a	DESK	Furniture	3	9	[0, 0, 0]	n/a	catFR1	0	R1324M
1740.546	1.632	1740936	WORD	n/a	wordpools/wordpool_categorized_EN.txt	COUCH	Furniture	4	9	[0, 0, 0]	n/a	catFR1	0	R1324M
1742.178	0.833	1742568	WORD_OFF	n/a	n/a	COUCH	Furniture	4	9	[0, 0, 0]	n/a	catFR1	0	R1324M
1743.011	1.634	1743400	WORD	n/a	wordpools/wordpool_categorized_EN.txt	BEE	Insects	5	9	[0, 0, 0]	n/a	catFR1	0	R1324M
1744.645	0.786	1745034	WORD_OFF	n/a	n/a	BEE	Insects	5	9	[0, 0, 0]	n/a	catFR1	0	R1324M
1745.431	1.631	1745820	WORD	n/a	wordpools/wordpool_categorized_EN.txt	MOSQUITO	Insects	6	9	[0, 0, 0]	n/a	catFR1	0	R1324M
1747.062	0.782	1747451	WORD_OFF	n/a	n/a	MOSQUITO	Insects	6	9	[0, 0, 0]	n/a	catFR1	0	R1324M
1747.844	1.635	1748233	WORD	n/a	wordpools/wordpool_categorized_EN.txt	COLA	Beverages	7	9	[0, 0, 0]	n/a	catFR1	0	R1324M
1749.479	0.763	1749868	WORD_OFF	n/a	n/a	COLA	Beverages	7	9	[0, 0, 0]	n/a	catFR1	0	R1324M
1750.242	1.621	1750631	WORD	n/a	wordpools/wordpool_categorized_EN.txt	SODA	Beverages	8	9	[0, 0, 0]	n/a	catFR1	0	R1324M
1751.863	0.849	1752252	WORD_OFF	n/a	n/a	SODA	Beverages	8	9	[0, 0, 0]	n/a	catFR1	0	R1324M
1752.712	1.635	1753101	WORD	n/a	wordpools/wordpool_categorized_EN.txt	ROACH	Insects	9	9	[0, 0, 0]	n/a	catFR1	0	R1324M
1754.347	0.953	1754736	WORD_OFF	n/a	n/a	ROACH	Insects	9	9	[0, 0, 0]	n/a	catFR1	0	R1324M
1755.3	1.631	1755689	WORD	n/a	wordpools/wordpool_categorized_EN.txt	LADYBUG	Insects	10	9	[0, 0, 0]	n/a	catFR1	0	R1324M
1756.931	0.816	1757320	WORD_OFF	n/a	n/a	LADYBUG	Insects	10	9	[0, 0, 0]	n/a	catFR1	0	R1324M
1757.747	1.634	1758136	WORD	n/a	wordpools/wordpool_categorized_EN.txt	CHAIR	Furniture	11	9	[0, 0, 0]	n/a	catFR1	0	R1324M
1759.381	1.035	1759770	WORD_OFF	n/a	n/a	CHAIR	Furniture	11	9	[0, 0, 0]	n/a	catFR1	0	R1324M
1760.416	1.633	1760805	WORD	n/a	wordpools/wordpool_categorized_EN.txt	BOOKCASE	Furniture	12	9	[0, 0, 0]	n/a	catFR1	0	R1324M
1762.049	0.0	1762438	WORD_OFF	n/a	n/a	BOOKCASE	Furniture	12	9	[0, 0, 0]	n/a	catFR1	0	R1324M
1762.049	0.0	1762438	ENCODING_END	n/a	n/a	n/a	n/a	-999	9	[0, 0, 0]	n/a	catFR1	0	R1324M
1762.049	0.0	1762438	DISTRACT_START	n/a	n/a	n/a	n/a	-999	9	[0, 0, 0]	n/a	catFR1	0	R1324M
1762.049	0.016	1762438	START	n/a	n/a	n/a	n/a	-999	9	[-999, -999, -999]	n/a	catFR1	0	R1324M
1762.065	12.352	1762454	PROB	12.321	n/a	n/a	n/a	-999	9	[7, 4, 3]	14.0	catFR1	0	R1324M
1774.417	17.921	1774805	PROB	17.921	n/a	n/a	n/a	-999	9	[8, 9, 6]	23.0	catFR1	0	R1324M
1792.338	0.016	1792725	STOP	n/a	n/a	n/a	n/a	-999	9	[-999, -999, -999]	n/a	catFR1	0	R1324M
1792.354	0.686	1792741	DISTRACT_END	n/a	n/a	n/a	n/a	-999	9	[0, 0, 0]	n/a	catFR1	0	R1324M
1793.04	1.632	1793427	RETRIEVAL_ORIENT_START	n/a	n/a	n/a	n/a	-999	9	[0, 0, 0]	n/a	catFR1	0	R1324M
1794.672	0.0	1795059	REC_START	n/a	n/a	n/a	n/a	-999	9	[0, 0, 0]	n/a	catFR1	0	R1324M
1794.672	5.946	1795059	RETRIEVAL_ORIENT_END	n/a	n/a	n/a	n/a	-999	9	[0, 0, 0]	n/a	catFR1	0	R1324M
1800.618	6.805	1801005	REC_WORD	5.946	n/a	ROADRUNNER	n/a	-999	9	[0, 0, 0]	n/a	catFR1	0	R1324M
1807.423	1.114	1807810	REC_WORD_VV	12.751	n/a	<>	n/a	-999	9	[0, 0, 0]	n/a	catFR1	0	R1324M
1808.537	0.66	1808924	REC_WORD_VV	13.865	n/a	<>	n/a	-999	9	[0, 0, 0]	n/a	catFR1	0	R1324M
1809.197	1.1	1809584	REC_WORD_VV	14.525	n/a	<>	n/a	-999	9	[0, 0, 0]	n/a	catFR1	0	R1324M
1810.297	0.922	1810684	REC_WORD_VV	15.625	n/a	<>	n/a	-999	9	[0, 0, 0]	n/a	catFR1	0	R1324M
1811.219	1.158	1811606	REC_WORD_VV	16.547	n/a	<>	n/a	-999	9	[0, 0, 0]	n/a	catFR1	0	R1324M
1812.377	1.085	1812764	REC_WORD	17.705	n/a	RUM	Beverages	1	9	[0, 0, 0]	n/a	catFR1	0	R1324M
1813.462	10.273	1813849	REC_WORD	18.79	n/a	TEA	Beverages	2	9	[0, 0, 0]	n/a	catFR1	0	R1324M
1823.735	0.949	1824121	REC_WORD_VV	29.063	n/a	<>	n/a	-999	9	[0, 0, 0]	n/a	catFR1	0	R1324M
1824.684	0.001	1825070	REC_END	n/a	n/a	n/a	n/a	-999	9	[0, 0, 0]	n/a	catFR1	0	R1324M
1824.685	0.023	1825071	TRIAL_END	n/a	n/a	n/a	n/a	-999	9	[0, 0, 0]	n/a	catFR1	0	R1324M
1824.708	0.0	1825094	TRIAL_START	n/a	n/a	n/a	n/a	-999	10	[0, 0, 0]	n/a	catFR1	0	R1324M
1824.708	0.0	1825094	TRIAL	n/a	n/a	n/a	n/a	-999	10	[0, 0, 0]	n/a	catFR1	0	R1324M
1824.708	7.071	1825094	WAITING_START	n/a	n/a	n/a	n/a	-999	10	[0, 0, 0]	n/a	catFR1	0	R1324M
1831.779	0.0	1832165	COUNTDOWN_START	n/a	n/a	n/a	n/a	-999	10	[0, 0, 0]	n/a	catFR1	0	R1324M
1831.779	10.429	1832165	WAITING_END	n/a	n/a	n/a	n/a	-999	10	[0, 0, 0]	n/a	catFR1	0	R1324M
1842.208	0.0	1842593	COUNTDOWN_END	n/a	n/a	n/a	n/a	-999	10	[0, 0, 0]	n/a	catFR1	0	R1324M
1842.208	1.106	1842593	ORIENT_START	n/a	n/a	n/a	n/a	-999	10	[0, 0, 0]	n/a	catFR1	0	R1324M
1843.314	0.001	1843699	ORIENT_END	n/a	n/a	n/a	n/a	-999	10	[0, 0, 0]	n/a	catFR1	0	R1324M
1843.315	0.878	1843700	ENCODING_START	n/a	n/a	n/a	n/a	-999	10	[0, 0, 0]	n/a	catFR1	0	R1324M
1844.193	1.622	1844578	WORD	n/a	wordpools/wordpool_categorized_EN.txt	CALF	FarmAnimals	1	10	[0, 0, 0]	n/a	catFR1	0	R1324M
1845.815	0.906	1846200	WORD_OFF	n/a	n/a	CALF	FarmAnimals	1	10	[0, 0, 0]	n/a	catFR1	0	R1324M
1846.721	1.611	1847106	WORD	n/a	wordpools/wordpool_categorized_EN.txt	COW	FarmAnimals	2	10	[0, 0, 0]	n/a	catFR1	0	R1324M
1848.332	0.878	1848717	WORD_OFF	n/a	n/a	COW	FarmAnimals	2	10	[0, 0, 0]	n/a	catFR1	0	R1324M
1849.21	1.622	1849595	WORD	n/a	wordpools/wordpool_categorized_EN.txt	CABINET	Furniture	3	10	[0, 0, 0]	n/a	catFR1	0	R1324M
1850.832	1.075	1851217	WORD_OFF	n/a	n/a	CABINET	Furniture	3	10	[0, 0, 0]	n/a	catFR1	0	R1324M
1851.907	1.626	1852292	WORD	n/a	wordpools/wordpool_categorized_EN.txt	TABLE	Furniture	4	10	[0, 0, 0]	n/a	catFR1	0	R1324M
1853.533	0.945	1853918	WORD_OFF	n/a	n/a	TABLE	Furniture	4	10	[0, 0, 0]	n/a	catFR1	0	R1324M
1854.478	1.622	1854863	WORD	n/a	wordpools/wordpool_categorized_EN.txt	BEAR	Zoo	5	10	[0, 0, 0]	n/a	catFR1	0	R1324M
1856.1	0.75	1856485	WORD_OFF	n/a	n/a	BEAR	Zoo	5	10	[0, 0, 0]	n/a	catFR1	0	R1324M
1856.85	1.634	1857235	WORD	n/a	wordpools/wordpool_categorized_EN.txt	ZEBRA	Zoo	6	10	[0, 0, 0]	n/a	catFR1	0	R1324M
1858.484	1.133	1858869	WORD_OFF	n/a	n/a	ZEBRA	Zoo	6	10	[0, 0, 0]	n/a	catFR1	0	R1324M
1859.617	1.634	1860002	WORD	n/a	wordpools/wordpool_categorized_EN.txt	SOFA	Furniture	7	10	[0, 0, 0]	n/a	catFR1	0	R1324M
1861.251	0.999	1861636	WORD_OFF	n/a	n/a	SOFA	Furniture	7	10	[0, 0, 0]	n/a	catFR1	0	R1324M
1862.25	1.635	1862634	WORD	n/a	wordpools/wordpool_categorized_EN.txt	SHELF	Furniture	8	10	[0, 0, 0]	n/a	catFR1	0	R1324M
1863.885	1.055	1864269	WORD_OFF	n/a	n/a	SHELF	Furniture	8	10	[0, 0, 0]	n/a	catFR1	0	R1324M
1864.94	1.629	1865324	WORD	n/a	wordpools/wordpool_categorized_EN.txt	GIRAFFE	Zoo	9	10	[0, 0, 0]	n/a	catFR1	0	R1324M
1866.569	0.859	1866953	WORD_OFF	n/a	n/a	GIRAFFE	Zoo	9	10	[0, 0, 0]	n/a	catFR1	0	R1324M
1867.428	1.625	1867812	WORD	n/a	wordpools/wordpool_categorized_EN.txt	CHEETAH	Zoo	10	10	[0, 0, 0]	n/a	catFR1	0	R1324M
1869.053	0.836	1869437	WORD_OFF	n/a	n/a	CHEETAH	Zoo	10	10	[0, 0, 0]	n/a	catFR1	0	R1324M
1869.889	1.631	1870273	WORD	n/a	wordpools/wordpool_categorized_EN.txt	SHEEP	FarmAnimals	11	10	[0, 0, 0]	n/a	catFR1	0	R1324M
1871.52	0.801	1871904	WORD_OFF	n/a	n/a	SHEEP	FarmAnimals	11	10	[0, 0, 0]	n/a	catFR1	0	R1324M
1872.321	1.632	1872705	WORD	n/a	wordpools/wordpool_categorized_EN.txt	CHICKEN	FarmAnimals	12	10	[0, 0, 0]	n/a	catFR1	0	R1324M
1873.953	0.001	1874337	WORD_OFF	n/a	n/a	CHICKEN	FarmAnimals	12	10	[0, 0, 0]	n/a	catFR1	0	R1324M
1873.954	0.0	1874338	ENCODING_END	n/a	n/a	n/a	n/a	-999	10	[0, 0, 0]	n/a	catFR1	0	R1324M
1873.954	0.0	1874338	DISTRACT_START	n/a	n/a	n/a	n/a	-999	10	[0, 0, 0]	n/a	catFR1	0	R1324M
1873.954	0.016	1874338	START	n/a	n/a	n/a	n/a	-999	10	[-999, -999, -999]	n/a	catFR1	0	R1324M
1873.97	15.87	1874354	PROB	15.838	n/a	n/a	n/a	-999	10	[7, 8, 3]	19.0	catFR1	0	R1324M
1889.84	9.975	1890223	PROB	9.975	n/a	n/a	n/a	-999	10	[7, 8, 7]	22.0	catFR1	0	R1324M
1899.815	0.01	1900198	STOP	n/a	n/a	n/a	n/a	-999	10	[-999, -999, -999]	n/a	catFR1	0	R1324M
1899.825	0.666	1900208	DISTRACT_END	n/a	n/a	n/a	n/a	-999	10	[0, 0, 0]	n/a	catFR1	0	R1324M
1900.491	1.685	1900874	RETRIEVAL_ORIENT_START	n/a	n/a	n/a	n/a	-999	10	[0, 0, 0]	n/a	catFR1	0	R1324M
1902.176	0.0	1902559	RETRIEVAL_ORIENT_END	n/a	n/a	n/a	n/a	-999	10	[0, 0, 0]	n/a	catFR1	0	R1324M
1902.176	29.988	1902559	REC_START	n/a	n/a	n/a	n/a	-999	10	[0, 0, 0]	n/a	catFR1	0	R1324M
1932.164	0.024	1932546	REC_WORD_VV	29.988	n/a	<>	n/a	-999	10	[0, 0, 0]	n/a	catFR1	0	R1324M
1932.188	0.001	1932570	REC_END	n/a	n/a	n/a	n/a	-999	10	[0, 0, 0]	n/a	catFR1	0	R1324M
1932.189	0.023	1932571	TRIAL_END	n/a	n/a	n/a	n/a	-999	10	[0, 0, 0]	n/a	catFR1	0	R1324M
1932.212	0.0	1932594	TRIAL_START	n/a	n/a	n/a	n/a	-999	11	[0, 0, 0]	n/a	catFR1	0	R1324M
1932.212	0.0	1932594	TRIAL	n/a	n/a	n/a	n/a	-999	11	[0, 0, 0]	n/a	catFR1	0	R1324M
1932.212	49.112	1932594	WAITING_START	n/a	n/a	n/a	n/a	-999	11	[0, 0, 0]	n/a	catFR1	0	R1324M
1981.324	0.001	1981703	WAITING_END	n/a	n/a	n/a	n/a	-999	11	[0, 0, 0]	n/a	catFR1	0	R1324M
1981.325	10.429	1981704	COUNTDOWN_START	n/a	n/a	n/a	n/a	-999	11	[0, 0, 0]	n/a	catFR1	0	R1324M
1991.754	0.0	1992133	COUNTDOWN_END	n/a	n/a	n/a	n/a	-999	11	[0, 0, 0]	n/a	catFR1	0	R1324M
1991.754	1.256	1992133	ORIENT_START	n/a	n/a	n/a	n/a	-999	11	[0, 0, 0]	n/a	catFR1	0	R1324M
1993.01	0.0	1993389	ORIENT_END	n/a	n/a	n/a	n/a	-999	11	[0, 0, 0]	n/a	catFR1	0	R1324M
1993.01	0.85	1993389	ENCODING_START	n/a	n/a	n/a	n/a	-999	11	[0, 0, 0]	n/a	catFR1	0	R1324M
1993.86	1.634	1994239	WORD	n/a	wordpools/wordpool_categorized_EN.txt	CIDER	Beverages	1	11	[0, 0, 0]	n/a	catFR1	0	R1324M
1995.494	1.047	1995873	WORD_OFF	n/a	n/a	CIDER	Beverages	1	11	[0, 0, 0]	n/a	catFR1	0	R1324M
1996.541	1.636	1996920	WORD	n/a	wordpools/wordpool_categorized_EN.txt	MILK	Beverages	2	11	[0, 0, 0]	n/a	catFR1	0	R1324M
1998.177	0.873	1998556	WORD_OFF	n/a	n/a	MILK	Beverages	2	11	[0, 0, 0]	n/a	catFR1	0	R1324M
1999.05	1.628	1999429	WORD	n/a	wordpools/wordpool_categorized_EN.txt	LAMB	FarmAnimals	3	11	[0, 0, 0]	n/a	catFR1	0	R1324M
2000.678	0.795	2001057	WORD_OFF	n/a	n/a	LAMB	FarmAnimals	3	11	[0, 0, 0]	n/a	catFR1	0	R1324M
2001.473	1.622	2001852	WORD	n/a	wordpools/wordpool_categorized_EN.txt	BULL	FarmAnimals	4	11	[0, 0, 0]	n/a	catFR1	0	R1324M
2003.095	1.107	2003474	WORD_OFF	n/a	n/a	BULL	FarmAnimals	4	11	[0, 0, 0]	n/a	catFR1	0	R1324M
2004.202	1.627	2004581	WORD	n/a	wordpools/wordpool_categorized_EN.txt	BUTTERFLY	Insects	5	11	[0, 0, 0]	n/a	catFR1	0	R1324M
2005.829	0.928	2006207	WORD_OFF	n/a	n/a	BUTTERFLY	Insects	5	11	[0, 0, 0]	n/a	catFR1	0	R1324M
2006.757	1.622	2007135	WORD	n/a	wordpools/wordpool_categorized_EN.txt	FLY	Insects	6	11	[0, 0, 0]	n/a	catFR1	0	R1324M
2008.379	0.798	2008757	WORD_OFF	n/a	n/a	FLY	Insects	6	11	[0, 0, 0]	n/a	catFR1	0	R1324M
2009.177	1.636	2009555	WORD	n/a	wordpools/wordpool_categorized_EN.txt	WINE	Beverages	7	11	[0, 0, 0]	n/a	catFR1	0	R1324M
2010.813	0.859	2011191	WORD_OFF	n/a	n/a	WINE	Beverages	7	11	[0, 0, 0]	n/a	catFR1	0	R1324M
2011.672	1.625	2012050	WORD	n/a	wordpools/wordpool_categorized_EN.txt	BEER	Beverages	8	11	[0, 0, 0]	n/a	catFR1	0	R1324M
2013.297	1.005	2013675	WORD_OFF	n/a	n/a	BEER	Beverages	8	11	[0, 0, 0]	n/a	catFR1	0	R1324M
2014.302	1.629	2014680	WORD	n/a	wordpools/wordpool_categorized_EN.txt	TURKEY	FarmAnimals	9	11	[0, 0, 0]	n/a	catFR1	0	R1324M
2015.931	0.86	2016309	WORD_OFF	n/a	n/a	TURKEY	FarmAnimals	9	11	[0, 0, 0]	n/a	catFR1	0	R1324M
2016.791	1.624	2017169	WORD	n/a	wordpools/wordpool_categorized_EN.txt	ROOSTER	FarmAnimals	10	11	[0, 0, 0]	n/a	catFR1	0	R1324M
2018.415	0.811	2018793	WORD_OFF	n/a	n/a	ROOSTER	FarmAnimals	10	11	[0, 0, 0]	n/a	catFR1	0	R1324M
2019.226	1.622	2019604	WORD	n/a	wordpools/wordpool_categorized_EN.txt	MOTH	Insects	11	11	[0, 0, 0]	n/a	catFR1	0	R1324M
2020.848	0.927	2021226	WORD_OFF	n/a	n/a	MOTH	Insects	11	11	[0, 0, 0]	n/a	catFR1	0	R1324M
2021.775	1.624	2022153	WORD	n/a	wordpools/wordpool_categorized_EN.txt	ANT	Insects	12	11	[0, 0, 0]	n/a	catFR1	0	R1324M
2023.399	0.0	2023777	WORD_OFF	n/a	n/a	ANT	Insects	12	11	[0, 0, 0]	n/a	catFR1	0	R1324M
2023.399	0.001	2023777	ENCODING_END	n/a	n/a	n/a	n/a	-999	11	[0, 0, 0]	n/a	catFR1	0	R1324M
2023.4	0.0	2023778	DISTRACT_START	n/a	n/a	n/a	n/a	-999	11	[0, 0, 0]	n/a	catFR1	0	R1324M
2023.4	0.015	2023778	START	n/a	n/a	n/a	n/a	-999	11	[-999, -999, -999]	n/a	catFR1	0	R1324M
2023.415	12.536	2023793	PROB	12.507	n/a	n/a	n/a	-999	11	[4, 6, 9]	19.0	catFR1	0	R1324M
2035.951	10.851	2036328	PROB	10.851	n/a	n/a	n/a	-999	11	[9, 9, 4]	17.0	catFR1	0	R1324M
2046.802	0.018	2047179	STOP	n/a	n/a	n/a	n/a	-999	11	[-999, -999, -999]	n/a	catFR1	0	R1324M
2046.82	0.594	2047197	DISTRACT_END	n/a	n/a	n/a	n/a	-999	11	[0, 0, 0]	n/a	catFR1	0	R1324M
2047.414	1.707	2047791	RETRIEVAL_ORIENT_START	n/a	n/a	n/a	n/a	-999	11	[0, 0, 0]	n/a	catFR1	0	R1324M
2049.121	0.0	2049498	RETRIEVAL_ORIENT_END	n/a	n/a	n/a	n/a	-999	11	[0, 0, 0]	n/a	catFR1	0	R1324M
2049.121	1.688	2049498	REC_START	n/a	n/a	n/a	n/a	-999	11	[0, 0, 0]	n/a	catFR1	0	R1324M
2050.809	1.216	2051186	REC_WORD	1.688	n/a	WINE	Beverages	7	11	[0, 0, 0]	n/a	catFR1	0	R1324M
2052.025	1.039	2052402	REC_WORD	2.904	n/a	BEER	Beverages	8	11	[0, 0, 0]	n/a	catFR1	0	R1324M
2053.064	1.377	2053440	REC_WORD	3.943	n/a	MOTH	Insects	11	11	[0, 0, 0]	n/a	catFR1	0	R1324M
2054.441	24.693	2054817	REC_WORD	5.32	n/a	MOSQUITO	Insects	-999	11	[0, 0, 0]	n/a	catFR1	0	R1324M
2079.134	0.0	2079509	REC_END	n/a	n/a	n/a	n/a	-999	11	[0, 0, 0]	n/a	catFR1	0	R1324M
2079.134	0.024	2079509	TRIAL_END	n/a	n/a	n/a	n/a	-999	11	[0, 0, 0]	n/a	catFR1	0	R1324M
2079.158	0.0	2079533	TRIAL_START	n/a	n/a	n/a	n/a	-999	12	[0, 0, 0]	n/a	catFR1	0	R1324M
2079.158	0.0	2079533	TRIAL	n/a	n/a	n/a	n/a	-999	12	[0, 0, 0]	n/a	catFR1	0	R1324M
2079.158	53.996	2079533	WAITING_START	n/a	n/a	n/a	n/a	-999	12	[0, 0, 0]	n/a	catFR1	0	R1324M
2133.154	0.0	2133527	WAITING_END	n/a	n/a	n/a	n/a	-999	12	[0, 0, 0]	n/a	catFR1	0	R1324M
2133.154	0.0	2133527	COUNTDOWN_START	n/a	n/a	n/a	n/a	-999	12	[0, 0, 0]	n/a	catFR1	0	R1324M
