onset	duration	sample	trial_type	response_time	stim_file	item_name	category	serialpos	list	test	answer	experiment	session	subject
0.0	215.601	40	INSTRUCT_START	n/a	n/a	n/a	n/a	-999	-999	[0, 0, 0]	n/a	catFR1	0	R1361C
215.601	44.176	215814	INSTRUCT_END	n/a	n/a	n/a	n/a	-999	-999	[0, 0, 0]	n/a	catFR1	0	R1361C
259.777	10.428	259986	COUNTDOWN_START	n/a	n/a	n/a	n/a	-999	-999	[0, 0, 0]	n/a	catFR1	0	R1361C
270.205	1.041	270388	COUNTDOWN_END	n/a	n/a	n/a	n/a	-999	-999	[0, 0, 0]	n/a	catFR1	0	R1361C
271.246	1.101	271422	ENCODING_START	n/a	n/a	n/a	n/a	-999	-1	[0, 0, 0]	n/a	catFR1	0	R1361C
272.347	1.633	272538	WORD	n/a	n/a	WOOL	n/a	1	-1	[0, 0, 0]	n/a	catFR1	0	R1361C
273.98	0.765	274163	WORD_OFF	n/a	n/a	WOOL	n/a	1	-1	[0, 0, 0]	n/a	catFR1	0	R1361C
274.745	1.634	274935	WORD	n/a	n/a	HOUR	n/a	2	-1	[0, 0, 0]	n/a	catFR1	0	R1361C
276.379	0.976	276561	WORD_OFF	n/a	n/a	HOUR	n/a	2	-1	[0, 0, 0]	n/a	catFR1	0	R1361C
277.355	1.626	277539	WORD	n/a	n/a	FIREMAN	n/a	3	-1	[0, 0, 0]	n/a	catFR1	0	R1361C
278.981	0.789	279165	WORD_OFF	n/a	n/a	FIREMAN	n/a	3	-1	[0, 0, 0]	n/a	catFR1	0	R1361C
279.77	1.627	279964	WORD	n/a	n/a	MINUTE	n/a	4	-1	[0, 0, 0]	n/a	catFR1	0	R1361C
281.397	0.869	281576	WORD_OFF	n/a	n/a	MINUTE	n/a	4	-1	[0, 0, 0]	n/a	catFR1	0	R1361C
282.266	1.632	282458	WORD	n/a	n/a	SILK	n/a	5	-1	[0, 0, 0]	n/a	catFR1	0	R1361C
283.898	1.15	284083	WORD_OFF	n/a	n/a	SILK	n/a	5	-1	[0, 0, 0]	n/a	catFR1	0	R1361C
285.048	1.633	285241	WORD	n/a	n/a	DENIM	n/a	6	-1	[0, 0, 0]	n/a	catFR1	0	R1361C
286.681	0.798	286866	WORD_OFF	n/a	n/a	DENIM	n/a	6	-1	[0, 0, 0]	n/a	catFR1	0	R1361C
287.479	1.636	287679	WORD	n/a	n/a	FARMER	n/a	7	-1	[0, 0, 0]	n/a	catFR1	0	R1361C
289.115	0.857	289291	WORD_OFF	n/a	n/a	FARMER	n/a	7	-1	[0, 0, 0]	n/a	catFR1	0	R1361C
289.972	1.627	290159	WORD	n/a	n/a	PLUMBER	n/a	8	-1	[0, 0, 0]	n/a	catFR1	0	R1361C
291.599	0.762	291771	WORD_OFF	n/a	n/a	PLUMBER	n/a	8	-1	[0, 0, 0]	n/a	catFR1	0	R1361C
292.361	1.623	292543	WORD	n/a	n/a	LEATHER	n/a	9	-1	[0, 0, 0]	n/a	catFR1	0	R1361C
293.984	0.896	294155	WORD_OFF	n/a	n/a	LEATHER	n/a	9	-1	[0, 0, 0]	n/a	catFR1	0	R1361C
294.88	1.637	295078	WORD	n/a	n/a	SECOND	n/a	10	-1	[0, 0, 0]	n/a	catFR1	0	R1361C
296.517	0.995	296690	WORD_OFF	n/a	n/a	SECOND	n/a	10	-1	[0, 0, 0]	n/a	catFR1	0	R1361C
297.512	1.622	297696	WORD	n/a	n/a	TEACHER	n/a	11	-1	[0, 0, 0]	n/a	catFR1	0	R1361C
299.134	0.785	299308	WORD_OFF	n/a	n/a	TEACHER	n/a	11	-1	[0, 0, 0]	n/a	catFR1	0	R1361C
299.919	1.632	300107	WORD	n/a	n/a	DAY	n/a	12	-1	[0, 0, 0]	n/a	catFR1	0	R1361C
301.551	0.0	301746	WORD_OFF	n/a	n/a	DAY	n/a	12	-1	[0, 0, 0]	n/a	catFR1	0	R1361C
301.551	0.001	301746	ENCODING_END	n/a	n/a	n/a	n/a	-999	-1	[0, 0, 0]	n/a	catFR1	0	R1361C
301.552	0.0	301746	DISTRACT_START	n/a	n/a	n/a	n/a	-999	-1	[0, 0, 0]	n/a	catFR1	0	R1361C
301.552	0.015	301752	START	n/a	n/a	n/a	n/a	-999	-1	[-999, -999, -999]	n/a	catFR1	0	R1361C
301.567	16.471	301767	PROB	16.435	n/a	n/a	n/a	-999	-1	[3, 4, 4]	11.0	catFR1	0	R1361C
318.038	7.251	318237	PROB	7.242	n/a	n/a	n/a	-999	-1	[6, 3, 1]	10.0	catFR1	0	R1361C
325.289	0.0	325472	DISTRACT_END	n/a	n/a	n/a	n/a	-999	-1	[0, 0, 0]	n/a	catFR1	0	R1361C
325.28	2.343	325479	STOP	n/a	n/a	n/a	n/a	-999	-1	[-999, -999, -999]	n/a	catFR1	0	R1361C
327.623	6.373	327814	REC_START	n/a	n/a	n/a	n/a	-999	-1	[0, 0, 0]	n/a	catFR1	0	R1361C
333.996	1.5	334195	REC_WORD	6.373	n/a	WOOL	n/a	1	-1	[0, 0, 0]	n/a	catFR1	0	R1361C
335.496	1.633	335695	REC_WORD	7.873	n/a	FIREMAN	n/a	3	-1	[0, 0, 0]	n/a	catFR1	0	R1361C
337.129	2.837	337327	REC_WORD	9.506	n/a	PLUMBER	n/a	8	-1	[0, 0, 0]	n/a	catFR1	0	R1361C
339.966	4.205	340164	REC_WORD	12.343	n/a	SAND	n/a	-999	-1	[0, 0, 0]	n/a	catFR1	0	R1361C
344.171	11.819	344369	REC_WORD_VV	16.548	n/a	<>	n/a	-999	-1	[0, 0, 0]	n/a	catFR1	0	R1361C
355.99	1.644	356187	REC_WORD_VV	28.367	n/a	<>	n/a	-999	-1	[0, 0, 0]	n/a	catFR1	0	R1361C
357.634	47.07	361115	REC_END	n/a	n/a	n/a	n/a	-999	-1	[0, 0, 0]	n/a	catFR1	0	R1361C
404.704	10.431	404914	COUNTDOWN_START	n/a	n/a	n/a	n/a	-999	1	[0, 0, 0]	n/a	catFR1	0	R1361C
415.135	1.221	415317	COUNTDOWN_END	n/a	n/a	n/a	n/a	-999	1	[0, 0, 0]	n/a	catFR1	0	R1361C
416.356	0.916	416529	ENCODING_START	n/a	n/a	n/a	n/a	-999	1	[0, 0, 0]	n/a	catFR1	0	R1361C
417.272	1.635	417466	WORD	n/a	wordpools/wordpool_categorized_EN.txt	FUDGE	Desserts	1	1	[0, 0, 0]	n/a	catFR1	0	R1361C
418.907	0.8	419078	WORD_OFF	n/a	n/a	FUDGE	Desserts	1	1	[0, 0, 0]	n/a	catFR1	0	R1361C
419.707	1.633	419891	WORD	n/a	wordpools/wordpool_categorized_EN.txt	CUPCAKE	Desserts	2	1	[0, 0, 0]	n/a	catFR1	0	R1361C
421.34	1.018	421516	WORD_OFF	n/a	n/a	CUPCAKE	Desserts	2	1	[0, 0, 0]	n/a	catFR1	0	R1361C
422.358	1.616	422550	WORD	n/a	wordpools/wordpool_categorized_EN.txt	COW	FarmAnimals	3	1	[0, 0, 0]	n/a	catFR1	0	R1361C
423.974	1.008	424148	WORD_OFF	n/a	n/a	COW	FarmAnimals	3	1	[0, 0, 0]	n/a	catFR1	0	R1361C
424.982	1.626	425168	WORD	n/a	wordpools/wordpool_categorized_EN.txt	CALF	FarmAnimals	4	1	[0, 0, 0]	n/a	catFR1	0	R1361C
426.608	0.793	426780	WORD_OFF	n/a	n/a	CALF	FarmAnimals	4	1	[0, 0, 0]	n/a	catFR1	0	R1361C
427.401	1.608	427579	WORD	n/a	wordpools/wordpool_categorized_EN.txt	PEAS	Vegetables	5	1	[0, 0, 0]	n/a	catFR1	0	R1361C
429.009	0.799	429177	WORD_OFF	n/a	n/a	PEAS	Vegetables	5	1	[0, 0, 0]	n/a	catFR1	0	R1361C
429.808	1.634	429990	WORD	n/a	wordpools/wordpool_categorized_EN.txt	CUCUMBER	Vegetables	6	1	[0, 0, 0]	n/a	catFR1	0	R1361C
431.442	0.964	431616	WORD_OFF	n/a	n/a	CUCUMBER	Vegetables	6	1	[0, 0, 0]	n/a	catFR1	0	R1361C
432.406	1.637	432594	WORD	n/a	wordpools/wordpool_categorized_EN.txt	JELLO	Desserts	7	1	[0, 0, 0]	n/a	catFR1	0	R1361C
434.043	1.008	434220	WORD_OFF	n/a	n/a	JELLO	Desserts	7	1	[0, 0, 0]	n/a	catFR1	0	R1361C
435.051	1.625	435225	WORD	n/a	wordpools/wordpool_categorized_EN.txt	MOUSSE	Desserts	8	1	[0, 0, 0]	n/a	catFR1	0	R1361C
436.676	0.952	436851	WORD_OFF	n/a	n/a	MOUSSE	Desserts	8	1	[0, 0, 0]	n/a	catFR1	0	R1361C
437.628	1.632	437816	WORD	n/a	wordpools/wordpool_categorized_EN.txt	GOAT	FarmAnimals	9	1	[0, 0, 0]	n/a	catFR1	0	R1361C
439.26	0.956	439428	WORD_OFF	n/a	n/a	GOAT	FarmAnimals	9	1	[0, 0, 0]	n/a	catFR1	0	R1361C
440.216	1.629	440392	WORD	n/a	wordpools/wordpool_categorized_EN.txt	ROOSTER	FarmAnimals	10	1	[0, 0, 0]	n/a	catFR1	0	R1361C
441.845	1.114	442018	WORD_OFF	n/a	n/a	ROOSTER	FarmAnimals	10	1	[0, 0, 0]	n/a	catFR1	0	R1361C
442.959	1.635	443148	WORD	n/a	wordpools/wordpool_categorized_EN.txt	POTATO	Vegetables	11	1	[0, 0, 0]	n/a	catFR1	0	R1361C
444.594	1.105	444760	WORD_OFF	n/a	n/a	POTATO	Vegetables	11	1	[0, 0, 0]	n/a	catFR1	0	R1361C
445.699	1.629	445876	WORD	n/a	wordpools/wordpool_categorized_EN.txt	CAULIFLOWER	Vegetables	12	1	[0, 0, 0]	n/a	catFR1	0	R1361C
447.328	0.001	447515	WORD_OFF	n/a	n/a	CAULIFLOWER	Vegetables	12	1	[0, 0, 0]	n/a	catFR1	0	R1361C
447.329	0.0	447515	ENCODING_END	n/a	n/a	n/a	n/a	-999	1	[0, 0, 0]	n/a	catFR1	0	R1361C
447.329	0.0	447515	DISTRACT_START	n/a	n/a	n/a	n/a	-999	1	[0, 0, 0]	n/a	catFR1	0	R1361C
447.329	0.016	447522	START	n/a	n/a	n/a	n/a	-999	1	[-999, -999, -999]	n/a	catFR1	0	R1361C
447.345	9.368	447538	PROB	9.337	n/a	n/a	n/a	-999	1	[7, 6, 2]	15.0	catFR1	0	R1361C
456.713	7.085	456905	PROB	7.046	n/a	n/a	n/a	-999	1	[1, 1, 2]	4.0	catFR1	0	R1361C
463.798	8.485	463990	PROB	8.464	n/a	n/a	n/a	-999	1	[7, 8, 8]	23.0	catFR1	0	R1361C
472.283	0.0	472453	DISTRACT_END	n/a	n/a	n/a	n/a	-999	1	[0, 0, 0]	n/a	catFR1	0	R1361C
472.262	2.205	472454	STOP	n/a	n/a	n/a	n/a	-999	1	[-999, -999, -999]	n/a	catFR1	0	R1361C
474.467	2.971	474657	REC_START	n/a	n/a	n/a	n/a	-999	1	[0, 0, 0]	n/a	catFR1	0	R1361C
477.438	1.211	477629	REC_WORD	2.971	n/a	COW	FarmAnimals	3	1	[0, 0, 0]	n/a	catFR1	0	R1361C
478.649	1.06	478840	REC_WORD	4.182	n/a	CUPCAKE	Desserts	2	1	[0, 0, 0]	n/a	catFR1	0	R1361C
479.709	1.498	479900	REC_WORD	5.242	n/a	FLOUR	n/a	-999	1	[0, 0, 0]	n/a	catFR1	0	R1361C
481.207	3.935	481398	REC_WORD	6.74	n/a	CAULIFLOWER	Vegetables	12	1	[0, 0, 0]	n/a	catFR1	0	R1361C
485.142	19.336	485333	REC_WORD_VV	10.675	n/a	<>	n/a	-999	1	[0, 0, 0]	n/a	catFR1	0	R1361C
504.478	8.713	504665	REC_END	n/a	n/a	n/a	n/a	-999	1	[0, 0, 0]	n/a	catFR1	0	R1361C
513.191	10.429	513400	COUNTDOWN_START	n/a	n/a	n/a	n/a	-999	2	[0, 0, 0]	n/a	catFR1	0	R1361C
523.62	1.057	523789	COUNTDOWN_END	n/a	n/a	n/a	n/a	-999	2	[0, 0, 0]	n/a	catFR1	0	R1361C
524.677	0.806	524850	ENCODING_START	n/a	n/a	n/a	n/a	-999	2	[0, 0, 0]	n/a	catFR1	0	R1361C
525.483	1.627	525663	WORD	n/a	wordpools/wordpool_categorized_EN.txt	FINGERS	BodyParts	1	2	[0, 0, 0]	n/a	catFR1	0	R1361C
527.11	0.771	527275	WORD_OFF	n/a	n/a	FINGERS	BodyParts	1	2	[0, 0, 0]	n/a	catFR1	0	R1361C
527.881	1.629	528060	WORD	n/a	wordpools/wordpool_categorized_EN.txt	ELBOW	BodyParts	2	2	[0, 0, 0]	n/a	catFR1	0	R1361C
529.51	0.868	529672	WORD_OFF	n/a	n/a	ELBOW	BodyParts	2	2	[0, 0, 0]	n/a	catFR1	0	R1361C
530.378	1.634	530554	WORD	n/a	wordpools/wordpool_categorized_EN.txt	TONGS	KitchenTools	3	2	[0, 0, 0]	n/a	catFR1	0	R1361C
532.012	1.133	532180	WORD_OFF	n/a	n/a	TONGS	KitchenTools	3	2	[0, 0, 0]	n/a	catFR1	0	R1361C
533.145	1.633	533323	WORD	n/a	wordpools/wordpool_categorized_EN.txt	COLANDER	KitchenTools	4	2	[0, 0, 0]	n/a	catFR1	0	R1361C
534.778	1.138	534949	WORD_OFF	n/a	n/a	COLANDER	KitchenTools	4	2	[0, 0, 0]	n/a	catFR1	0	R1361C
535.916	1.629	536092	WORD	n/a	wordpools/wordpool_categorized_EN.txt	WHALE	OceanAnimals	5	2	[0, 0, 0]	n/a	catFR1	0	R1361C
537.545	0.906	537718	WORD_OFF	n/a	n/a	WHALE	OceanAnimals	5	2	[0, 0, 0]	n/a	catFR1	0	R1361C
538.451	1.628	538628	WORD	n/a	wordpools/wordpool_categorized_EN.txt	FISH	OceanAnimals	6	2	[0, 0, 0]	n/a	catFR1	0	R1361C
540.079	1.039	540240	WORD_OFF	n/a	n/a	FISH	OceanAnimals	6	2	[0, 0, 0]	n/a	catFR1	0	R1361C
541.118	1.628	541300	WORD	n/a	wordpools/wordpool_categorized_EN.txt	NOSE	BodyParts	7	2	[0, 0, 0]	n/a	catFR1	0	R1361C
542.746	0.786	542912	WORD_OFF	n/a	n/a	NOSE	BodyParts	7	2	[0, 0, 0]	n/a	catFR1	0	R1361C
543.532	1.631	543711	WORD	n/a	wordpools/wordpool_categorized_EN.txt	HAND	BodyParts	8	2	[0, 0, 0]	n/a	catFR1	0	R1361C
545.163	0.83	545323	WORD_OFF	n/a	n/a	HAND	BodyParts	8	2	[0, 0, 0]	n/a	catFR1	0	R1361C
545.993	1.621	546164	WORD	n/a	wordpools/wordpool_categorized_EN.txt	SPOON	KitchenTools	9	2	[0, 0, 0]	n/a	catFR1	0	R1361C
547.614	0.804	547776	WORD_OFF	n/a	n/a	SPOON	KitchenTools	9	2	[0, 0, 0]	n/a	catFR1	0	R1361C
548.418	1.63	548589	WORD	n/a	wordpools/wordpool_categorized_EN.txt	KNIFE	KitchenTools	10	2	[0, 0, 0]	n/a	catFR1	0	R1361C
550.048	0.763	550215	WORD_OFF	n/a	n/a	KNIFE	KitchenTools	10	2	[0, 0, 0]	n/a	catFR1	0	R1361C
550.811	1.637	551000	WORD	n/a	wordpools/wordpool_categorized_EN.txt	SHRIMP	OceanAnimals	11	2	[0, 0, 0]	n/a	catFR1	0	R1361C
552.448	1.05	552612	WORD_OFF	n/a	n/a	SHRIMP	OceanAnimals	11	2	[0, 0, 0]	n/a	catFR1	0	R1361C
553.498	1.634	553673	WORD	n/a	wordpools/wordpool_categorized_EN.txt	OCTOPUS	OceanAnimals	12	2	[0, 0, 0]	n/a	catFR1	0	R1361C
555.132	0.0	555312	WORD_OFF	n/a	n/a	OCTOPUS	OceanAnimals	12	2	[0, 0, 0]	n/a	catFR1	0	R1361C
555.132	0.001	555312	ENCODING_END	n/a	n/a	n/a	n/a	-999	2	[0, 0, 0]	n/a	catFR1	0	R1361C
555.133	0.0	555312	DISTRACT_START	n/a	n/a	n/a	n/a	-999	2	[0, 0, 0]	n/a	catFR1	0	R1361C
555.133	0.015	555320	START	n/a	n/a	n/a	n/a	-999	2	[-999, -999, -999]	n/a	catFR1	0	R1361C
555.148	8.869	555335	PROB	8.835	n/a	n/a	n/a	-999	2	[1, 5, 8]	14.0	catFR1	0	R1361C
564.017	7.885	564204	PROB	7.855	n/a	n/a	n/a	-999	2	[5, 6, 3]	14.0	catFR1	0	R1361C
571.902	7.251	572089	PROB	7.235	n/a	n/a	n/a	-999	2	[4, 5, 7]	16.0	catFR1	0	R1361C
579.153	0.0	579313	DISTRACT_END	n/a	n/a	n/a	n/a	-999	2	[0, 0, 0]	n/a	catFR1	0	R1361C
579.137	2.233	579323	STOP	n/a	n/a	n/a	n/a	-999	2	[-999, -999, -999]	n/a	catFR1	0	R1361C
581.37	1.755	581545	REC_START	n/a	n/a	n/a	n/a	-999	2	[0, 0, 0]	n/a	catFR1	0	R1361C
583.125	0.967	583311	REC_WORD	1.755	n/a	FINGERS	BodyParts	1	2	[0, 0, 0]	n/a	catFR1	0	R1361C
584.092	1.045	584278	REC_WORD	2.722	n/a	ELBOW	BodyParts	2	2	[0, 0, 0]	n/a	catFR1	0	R1361C
585.137	1.082	585323	REC_WORD	3.767	n/a	TONGS	KitchenTools	3	2	[0, 0, 0]	n/a	catFR1	0	R1361C
586.219	1.245	586405	REC_WORD	4.849	n/a	NOSE	BodyParts	7	2	[0, 0, 0]	n/a	catFR1	0	R1361C
587.464	3.216	587650	REC_WORD	6.094	n/a	HAND	BodyParts	8	2	[0, 0, 0]	n/a	catFR1	0	R1361C
590.68	4.866	590866	REC_WORD	9.31	n/a	COLANDER	KitchenTools	4	2	[0, 0, 0]	n/a	catFR1	0	R1361C
595.546	15.836	595731	REC_WORD_VV	14.176	n/a	<>	n/a	-999	2	[0, 0, 0]	n/a	catFR1	0	R1361C
611.382	5.429	611567	REC_END	n/a	n/a	n/a	n/a	-999	2	[0, 0, 0]	n/a	catFR1	0	R1361C
616.811	10.429	617009	COUNTDOWN_START	n/a	n/a	n/a	n/a	-999	3	[0, 0, 0]	n/a	catFR1	0	R1361C
627.24	1.14	627411	COUNTDOWN_END	n/a	n/a	n/a	n/a	-999	3	[0, 0, 0]	n/a	catFR1	0	R1361C
628.38	0.98	628541	ENCODING_START	n/a	n/a	n/a	n/a	-999	3	[0, 0, 0]	n/a	catFR1	0	R1361C
629.36	1.637	629533	WORD	n/a	wordpools/wordpool_categorized_EN.txt	CALCULATOR	Electronics	1	3	[0, 0, 0]	n/a	catFR1	0	R1361C
630.997	0.92	631159	WORD_OFF	n/a	n/a	CALCULATOR	Electronics	1	3	[0, 0, 0]	n/a	catFR1	0	R1361C
631.917	1.629	632096	WORD	n/a	wordpools/wordpool_categorized_EN.txt	HEADPHONES	Electronics	2	3	[0, 0, 0]	n/a	catFR1	0	R1361C
633.546	1.113	633708	WORD_OFF	n/a	n/a	HEADPHONES	Electronics	2	3	[0, 0, 0]	n/a	catFR1	0	R1361C
634.659	1.621	634824	WORD	n/a	wordpools/wordpool_categorized_EN.txt	BEACH	Landscapes	3	3	[0, 0, 0]	n/a	catFR1	0	R1361C
636.28	0.893	636436	WORD_OFF	n/a	n/a	BEACH	Landscapes	3	3	[0, 0, 0]	n/a	catFR1	0	R1361C
637.173	1.624	637345	WORD	n/a	wordpools/wordpool_categorized_EN.txt	MOUNTAIN	Landscapes	4	3	[0, 0, 0]	n/a	catFR1	0	R1361C
638.797	0.776	638957	WORD_OFF	n/a	n/a	MOUNTAIN	Landscapes	4	3	[0, 0, 0]	n/a	catFR1	0	R1361C
639.573	1.625	639743	WORD	n/a	wordpools/wordpool_categorized_EN.txt	CHIMPANZEE	Zoo	5	3	[0, 0, 0]	n/a	catFR1	0	R1361C
641.198	0.965	641355	WORD_OFF	n/a	n/a	CHIMPANZEE	Zoo	5	3	[0, 0, 0]	n/a	catFR1	0	R1361C
642.163	1.635	642347	WORD	n/a	wordpools/wordpool_categorized_EN.txt	MONKEY	Zoo	6	3	[0, 0, 0]	n/a	catFR1	0	R1361C
643.798	0.902	643959	WORD_OFF	n/a	n/a	MONKEY	Zoo	6	3	[0, 0, 0]	n/a	catFR1	0	R1361C
644.7	1.632	644882	WORD	n/a	wordpools/wordpool_categorized_EN.txt	WOODS	Landscapes	7	3	[0, 0, 0]	n/a	catFR1	0	R1361C
646.332	0.796	646494	WORD_OFF	n/a	n/a	WOODS	Landscapes	7	3	[0, 0, 0]	n/a	catFR1	0	R1361C
647.128	1.638	647307	WORD	n/a	wordpools/wordpool_categorized_EN.txt	ISLAND	Landscapes	8	3	[0, 0, 0]	n/a	catFR1	0	R1361C
648.766	0.818	648932	WORD_OFF	n/a	n/a	ISLAND	Landscapes	8	3	[0, 0, 0]	n/a	catFR1	0	R1361C
649.584	1.632	649759	WORD	n/a	wordpools/wordpool_categorized_EN.txt	MICROWAVE	Electronics	9	3	[0, 0, 0]	n/a	catFR1	0	R1361C
651.216	0.773	651371	WORD_OFF	n/a	n/a	MICROWAVE	Electronics	9	3	[0, 0, 0]	n/a	catFR1	0	R1361C
651.989	1.628	652156	WORD	n/a	wordpools/wordpool_categorized_EN.txt	TABLET	Electronics	10	3	[0, 0, 0]	n/a	catFR1	0	R1361C
653.617	0.905	653782	WORD_OFF	n/a	n/a	TABLET	Electronics	10	3	[0, 0, 0]	n/a	catFR1	0	R1361C
654.522	1.629	654691	WORD	n/a	wordpools/wordpool_categorized_EN.txt	PANDA	Zoo	11	3	[0, 0, 0]	n/a	catFR1	0	R1361C
656.151	0.827	656317	WORD_OFF	n/a	n/a	PANDA	Zoo	11	3	[0, 0, 0]	n/a	catFR1	0	R1361C
656.978	1.623	657144	WORD	n/a	wordpools/wordpool_categorized_EN.txt	GIRAFFE	Zoo	12	3	[0, 0, 0]	n/a	catFR1	0	R1361C
658.601	0.001	658783	WORD_OFF	n/a	n/a	GIRAFFE	Zoo	12	3	[0, 0, 0]	n/a	catFR1	0	R1361C
658.602	0.0	658783	ENCODING_END	n/a	n/a	n/a	n/a	-999	3	[0, 0, 0]	n/a	catFR1	0	R1361C
658.602	0.0	658783	DISTRACT_START	n/a	n/a	n/a	n/a	-999	3	[0, 0, 0]	n/a	catFR1	0	R1361C
658.602	0.016	658784	START	n/a	n/a	n/a	n/a	-999	3	[-999, -999, -999]	n/a	catFR1	0	R1361C
658.618	5.318	658800	PROB	5.29	n/a	n/a	n/a	-999	3	[3, 2, 4]	9.0	catFR1	0	R1361C
663.936	8.668	664118	PROB	8.64	n/a	n/a	n/a	-999	3	[7, 4, 9]	20.0	catFR1	0	R1361C
672.604	7.385	672785	PROB	7.378	n/a	n/a	n/a	-999	3	[3, 8, 5]	16.0	catFR1	0	R1361C
679.989	0.0	680153	DISTRACT_END	n/a	n/a	n/a	n/a	-999	3	[0, 0, 0]	n/a	catFR1	0	R1361C
679.982	2.258	680163	STOP	n/a	n/a	n/a	n/a	-999	3	[-999, -999, -999]	n/a	catFR1	0	R1361C
682.24	2.301	682412	REC_START	n/a	n/a	n/a	n/a	-999	3	[0, 0, 0]	n/a	catFR1	0	R1361C
684.541	1.19	684722	REC_WORD	2.301	n/a	CAULIFLOWER	Vegetables	-999	3	[0, 0, 0]	n/a	catFR1	0	R1361C
685.731	3.239	685912	REC_WORD	3.491	n/a	MOUNTAIN	Landscapes	4	3	[0, 0, 0]	n/a	catFR1	0	R1361C
688.97	3.158	689151	REC_WORD_VV	6.73	n/a	<>	n/a	-999	3	[0, 0, 0]	n/a	catFR1	0	R1361C
692.128	20.122	692308	REC_WORD	9.888	n/a	CHEESE	n/a	-999	3	[0, 0, 0]	n/a	catFR1	0	R1361C
712.25	5.363	712434	REC_END	n/a	n/a	n/a	n/a	-999	3	[0, 0, 0]	n/a	catFR1	0	R1361C
717.613	10.429	717807	COUNTDOWN_START	n/a	n/a	n/a	n/a	-999	4	[0, 0, 0]	n/a	catFR1	0	R1361C
728.042	1.023	728210	COUNTDOWN_END	n/a	n/a	n/a	n/a	-999	4	[0, 0, 0]	n/a	catFR1	0	R1361C
729.065	1.06	729229	ENCODING_START	n/a	n/a	n/a	n/a	-999	4	[0, 0, 0]	n/a	catFR1	0	R1361C
730.125	1.623	730290	WORD	n/a	wordpools/wordpool_categorized_EN.txt	TULIP	Flowers	1	4	[0, 0, 0]	n/a	catFR1	0	R1361C
731.748	1.062	731902	WORD_OFF	n/a	n/a	TULIP	Flowers	1	4	[0, 0, 0]	n/a	catFR1	0	R1361C
732.81	1.639	732990	WORD	n/a	wordpools/wordpool_categorized_EN.txt	VIOLET	Flowers	2	4	[0, 0, 0]	n/a	catFR1	0	R1361C
734.449	0.92	734602	WORD_OFF	n/a	n/a	VIOLET	Flowers	2	4	[0, 0, 0]	n/a	catFR1	0	R1361C
735.369	1.631	735539	WORD	n/a	wordpools/wordpool_categorized_EN.txt	CELLO	Instruments	3	4	[0, 0, 0]	n/a	catFR1	0	R1361C
737.0	0.903	737151	WORD_OFF	n/a	n/a	CELLO	Instruments	3	4	[0, 0, 0]	n/a	catFR1	0	R1361C
737.903	1.63	738074	WORD	n/a	wordpools/wordpool_categorized_EN.txt	GUITAR	Instruments	4	4	[0, 0, 0]	n/a	catFR1	0	R1361C
739.533	0.88	739686	WORD_OFF	n/a	n/a	GUITAR	Instruments	4	4	[0, 0, 0]	n/a	catFR1	0	R1361C
740.413	1.638	740582	WORD	n/a	wordpools/wordpool_categorized_EN.txt	THUNDERSTORM	Weather	5	4	[0, 0, 0]	n/a	catFR1	0	R1361C
742.051	0.989	742208	WORD_OFF	n/a	n/a	THUNDERSTORM	Weather	5	4	[0, 0, 0]	n/a	catFR1	0	R1361C
743.04	1.627	743200	WORD	n/a	wordpools/wordpool_categorized_EN.txt	WIND	Weather	6	4	[0, 0, 0]	n/a	catFR1	0	R1361C
744.667	0.78	744826	WORD_OFF	n/a	n/a	WIND	Weather	6	4	[0, 0, 0]	n/a	catFR1	0	R1361C
745.447	1.637	745625	WORD	n/a	wordpools/wordpool_categorized_EN.txt	MARIGOLD	Flowers	7	4	[0, 0, 0]	n/a	catFR1	0	R1361C
747.084	0.888	747237	WORD_OFF	n/a	n/a	MARIGOLD	Flowers	7	4	[0, 0, 0]	n/a	catFR1	0	R1361C
747.972	1.63	748146	WORD	n/a	wordpools/wordpool_categorized_EN.txt	ROSE	Flowers	8	4	[0, 0, 0]	n/a	catFR1	0	R1361C
749.602	1.124	749758	WORD_OFF	n/a	n/a	ROSE	Flowers	8	4	[0, 0, 0]	n/a	catFR1	0	R1361C
750.726	1.626	750888	WORD	n/a	wordpools/wordpool_categorized_EN.txt	SNOW	Weather	9	4	[0, 0, 0]	n/a	catFR1	0	R1361C
752.352	1.054	752514	WORD_OFF	n/a	n/a	SNOW	Weather	9	4	[0, 0, 0]	n/a	catFR1	0	R1361C
753.406	1.631	753574	WORD	n/a	wordpools/wordpool_categorized_EN.txt	DRIZZLE	Weather	10	4	[0, 0, 0]	n/a	catFR1	0	R1361C
755.037	0.774	755186	WORD_OFF	n/a	n/a	DRIZZLE	Weather	10	4	[0, 0, 0]	n/a	catFR1	0	R1361C
755.811	1.625	755972	WORD	n/a	wordpools/wordpool_categorized_EN.txt	DRUM	Instruments	11	4	[0, 0, 0]	n/a	catFR1	0	R1361C
757.436	1.135	757598	WORD_OFF	n/a	n/a	DRUM	Instruments	11	4	[0, 0, 0]	n/a	catFR1	0	R1361C
758.571	1.632	758741	WORD	n/a	wordpools/wordpool_categorized_EN.txt	ORGAN	Instruments	12	4	[0, 0, 0]	n/a	catFR1	0	R1361C
760.203	0.001	760381	WORD_OFF	n/a	n/a	ORGAN	Instruments	12	4	[0, 0, 0]	n/a	catFR1	0	R1361C
760.204	0.0	760381	ENCODING_END	n/a	n/a	n/a	n/a	-999	4	[0, 0, 0]	n/a	catFR1	0	R1361C
760.204	0.0	760381	DISTRACT_START	n/a	n/a	n/a	n/a	-999	4	[0, 0, 0]	n/a	catFR1	0	R1361C
760.204	0.016	760381	START	n/a	n/a	n/a	n/a	-999	4	[-999, -999, -999]	n/a	catFR1	0	R1361C
760.22	5.118	760397	PROB	5.093	n/a	n/a	n/a	-999	4	[1, 3, 1]	5.0	catFR1	0	R1361C
765.338	5.718	765515	PROB	5.683	n/a	n/a	n/a	-999	4	[3, 1, 4]	8.0	catFR1	0	R1361C
771.056	7.634	771232	PROB	7.595	n/a	n/a	n/a	-999	4	[8, 5, 3]	16.0	catFR1	0	R1361C
778.69	5.868	778866	PROB	5.851	n/a	n/a	n/a	-999	4	[8, 4, 3]	15.0	catFR1	0	R1361C
784.558	0.0	784712	DISTRACT_END	n/a	n/a	n/a	n/a	-999	4	[0, 0, 0]	n/a	catFR1	0	R1361C
784.541	2.386	784717	STOP	n/a	n/a	n/a	n/a	-999	4	[-999, -999, -999]	n/a	catFR1	0	R1361C
786.927	0.89	787096	REC_START	n/a	n/a	n/a	n/a	-999	4	[0, 0, 0]	n/a	catFR1	0	R1361C
787.817	0.942	787993	REC_WORD	0.89	n/a	TULIP	Flowers	1	4	[0, 0, 0]	n/a	catFR1	0	R1361C
788.759	0.821	788934	REC_WORD	1.832	n/a	VIOLET	Flowers	2	4	[0, 0, 0]	n/a	catFR1	0	R1361C
789.58	1.034	789755	REC_WORD	2.653	n/a	THUNDERSTORM	Weather	5	4	[0, 0, 0]	n/a	catFR1	0	R1361C
790.614	1.772	790789	REC_WORD	3.687	n/a	WIND	Weather	6	4	[0, 0, 0]	n/a	catFR1	0	R1361C
792.386	5.031	792561	REC_WORD	5.459	n/a	ROSE	Flowers	8	4	[0, 0, 0]	n/a	catFR1	0	R1361C
797.417	19.52	797592	REC_WORD_VV	10.49	n/a	<>	n/a	-999	4	[0, 0, 0]	n/a	catFR1	0	R1361C
816.937	46.554	817117	REC_END	n/a	n/a	n/a	n/a	-999	4	[0, 0, 0]	n/a	catFR1	0	R1361C
863.491	10.429	863673	COUNTDOWN_START	n/a	n/a	n/a	n/a	-999	5	[0, 0, 0]	n/a	catFR1	0	R1361C
873.92	1.057	874075	COUNTDOWN_END	n/a	n/a	n/a	n/a	-999	5	[0, 0, 0]	n/a	catFR1	0	R1361C
874.977	0.833	875122	ENCODING_START	n/a	n/a	n/a	n/a	-999	5	[0, 0, 0]	n/a	catFR1	0	R1361C
875.81	1.632	875976	WORD	n/a	wordpools/wordpool_categorized_EN.txt	DAISY	Flowers	1	5	[0, 0, 0]	n/a	catFR1	0	R1361C
877.442	1.136	877588	WORD_OFF	n/a	n/a	DAISY	Flowers	1	5	[0, 0, 0]	n/a	catFR1	0	R1361C
878.578	1.631	878745	WORD	n/a	wordpools/wordpool_categorized_EN.txt	ORCHID	Flowers	2	5	[0, 0, 0]	n/a	catFR1	0	R1361C
880.209	0.778	880357	WORD_OFF	n/a	n/a	ORCHID	Flowers	2	5	[0, 0, 0]	n/a	catFR1	0	R1361C
880.987	1.623	881143	WORD	n/a	wordpools/wordpool_categorized_EN.txt	SOFA	Furniture	3	5	[0, 0, 0]	n/a	catFR1	0	R1361C
882.61	1.144	882755	WORD_OFF	n/a	n/a	SOFA	Furniture	3	5	[0, 0, 0]	n/a	catFR1	0	R1361C
883.754	1.623	883912	WORD	n/a	wordpools/wordpool_categorized_EN.txt	SHELF	Furniture	4	5	[0, 0, 0]	n/a	catFR1	0	R1361C
885.377	0.815	885524	WORD_OFF	n/a	n/a	SHELF	Furniture	4	5	[0, 0, 0]	n/a	catFR1	0	R1361C
886.192	1.636	886365	WORD	n/a	wordpools/wordpool_categorized_EN.txt	BROCCOLI	Vegetables	5	5	[0, 0, 0]	n/a	catFR1	0	R1361C
887.828	0.86	887977	WORD_OFF	n/a	n/a	BROCCOLI	Vegetables	5	5	[0, 0, 0]	n/a	catFR1	0	R1361C
888.688	1.623	888845	WORD	n/a	wordpools/wordpool_categorized_EN.txt	CABBAGE	Vegetables	6	5	[0, 0, 0]	n/a	catFR1	0	R1361C
890.311	1.053	890457	WORD_OFF	n/a	n/a	CABBAGE	Vegetables	6	5	[0, 0, 0]	n/a	catFR1	0	R1361C
891.364	1.632	891531	WORD	n/a	wordpools/wordpool_categorized_EN.txt	RECLINER	Furniture	7	5	[0, 0, 0]	n/a	catFR1	0	R1361C
892.996	0.946	893143	WORD_OFF	n/a	n/a	RECLINER	Furniture	7	5	[0, 0, 0]	n/a	catFR1	0	R1361C
893.942	1.637	894108	WORD	n/a	wordpools/wordpool_categorized_EN.txt	CABINET	Furniture	8	5	[0, 0, 0]	n/a	catFR1	0	R1361C
895.579	0.975	895733	WORD_OFF	n/a	n/a	CABINET	Furniture	8	5	[0, 0, 0]	n/a	catFR1	0	R1361C
896.554	1.625	896712	WORD	n/a	wordpools/wordpool_categorized_EN.txt	PETUNIA	Flowers	9	5	[0, 0, 0]	n/a	catFR1	0	R1361C
898.179	1.125	898324	WORD_OFF	n/a	n/a	PETUNIA	Flowers	9	5	[0, 0, 0]	n/a	catFR1	0	R1361C
899.304	1.627	899467	WORD	n/a	wordpools/wordpool_categorized_EN.txt	LILAC	Flowers	10	5	[0, 0, 0]	n/a	catFR1	0	R1361C
900.931	1.069	901079	WORD_OFF	n/a	n/a	LILAC	Flowers	10	5	[0, 0, 0]	n/a	catFR1	0	R1361C
902.0	1.63	902168	WORD	n/a	wordpools/wordpool_categorized_EN.txt	CORN	Vegetables	11	5	[0, 0, 0]	n/a	catFR1	0	R1361C
903.63	1.026	903780	WORD_OFF	n/a	n/a	CORN	Vegetables	11	5	[0, 0, 0]	n/a	catFR1	0	R1361C
904.656	1.625	904813	WORD	n/a	wordpools/wordpool_categorized_EN.txt	LETTUCE	Vegetables	12	5	[0, 0, 0]	n/a	catFR1	0	R1361C
906.281	0.0	906439	WORD_OFF	n/a	n/a	LETTUCE	Vegetables	12	5	[0, 0, 0]	n/a	catFR1	0	R1361C
906.281	0.001	906452	ENCODING_END	n/a	n/a	n/a	n/a	-999	5	[0, 0, 0]	n/a	catFR1	0	R1361C
906.282	0.0	906452	DISTRACT_START	n/a	n/a	n/a	n/a	-999	5	[0, 0, 0]	n/a	catFR1	0	R1361C
906.282	0.015	906452	START	n/a	n/a	n/a	n/a	-999	5	[-999, -999, -999]	n/a	catFR1	0	R1361C
906.297	5.736	906467	PROB	5.706	n/a	n/a	n/a	-999	5	[1, 3, 4]	8.0	catFR1	0	R1361C
912.033	6.8	912202	PROB	6.776	n/a	n/a	n/a	-999	5	[8, 4, 3]	15.0	catFR1	0	R1361C
918.833	7.268	919002	PROB	7.234	n/a	n/a	n/a	-999	5	[2, 1, 9]	12.0	catFR1	0	R1361C
926.101	9.252	926270	PROB	9.23	n/a	n/a	n/a	-999	5	[4, 1, 4]	9.0	catFR1	0	R1361C
935.353	0.0	935496	DISTRACT_END	n/a	n/a	n/a	n/a	-999	5	[0, 0, 0]	n/a	catFR1	0	R1361C
935.331	2.223	935499	STOP	n/a	n/a	n/a	n/a	-999	5	[-999, -999, -999]	n/a	catFR1	0	R1361C
937.554	1.334	937714	REC_START	n/a	n/a	n/a	n/a	-999	5	[0, 0, 0]	n/a	catFR1	0	R1361C
938.888	0.905	939056	REC_WORD	1.334	n/a	DAISY	Flowers	1	5	[0, 0, 0]	n/a	catFR1	0	R1361C
939.793	0.901	939961	REC_WORD	2.239	n/a	ORCHID	Flowers	2	5	[0, 0, 0]	n/a	catFR1	0	R1361C
940.694	0.919	940862	REC_WORD	3.14	n/a	SOFA	Furniture	3	5	[0, 0, 0]	n/a	catFR1	0	R1361C
941.613	1.053	941781	REC_WORD	4.059	n/a	SHELF	Furniture	4	5	[0, 0, 0]	n/a	catFR1	0	R1361C
942.666	3.151	942834	REC_WORD	5.112	n/a	BROCCOLI	Vegetables	5	5	[0, 0, 0]	n/a	catFR1	0	R1361C
945.817	21.748	945985	REC_WORD	8.263	n/a	ROSE	Flowers	-999	5	[0, 0, 0]	n/a	catFR1	0	R1361C
967.565	127.602	967736	REC_END	n/a	n/a	n/a	n/a	-999	5	[0, 0, 0]	n/a	catFR1	0	R1361C
1095.167	0.0	1095332	COUNTDOWN_START	n/a	n/a	n/a	n/a	-999	6	[0, 0, 0]	n/a	catFR1	0	R1361C
