onset	duration	sample	trial_type	response_time	stim_file	item_name	category	serialpos	list	test	answer	experiment	session	subject
0.0	237.816	2097	INSTRUCT_START	n/a	n/a	n/a	n/a	-999	-999	[0, 0, 0]	n/a	catFR1	0	R1328E
237.816	5.917	239904	INSTRUCT_END	n/a	n/a	n/a	n/a	-999	-999	[0, 0, 0]	n/a	catFR1	0	R1328E
243.733	12.708	245821	MIC TEST_START	n/a	n/a	n/a	n/a	-999	-999	[0, 0, 0]	n/a	catFR1	0	R1328E
256.441	0.012	258528	MIC TEST_END	n/a	n/a	n/a	n/a	-999	-999	[0, 0, 0]	n/a	catFR1	0	R1328E
256.453	0.001	258540	TRIAL_START	n/a	n/a	n/a	n/a	-999	-1	[0, 0, 0]	n/a	catFR1	0	R1328E
256.454	0.0	258541	TRIAL	n/a	n/a	n/a	n/a	-999	-1	[0, 0, 0]	n/a	catFR1	0	R1328E
256.454	1.416	258541	WAITING_START	n/a	n/a	n/a	n/a	-999	-1	[0, 0, 0]	n/a	catFR1	0	R1328E
257.87	0.0	259957	COUNTDOWN_START	n/a	n/a	n/a	n/a	-999	-1	[0, 0, 0]	n/a	catFR1	0	R1328E
257.87	10.429	259957	WAITING_END	n/a	n/a	n/a	n/a	-999	-1	[0, 0, 0]	n/a	catFR1	0	R1328E
268.299	0.001	270386	COUNTDOWN_END	n/a	n/a	n/a	n/a	-999	-1	[0, 0, 0]	n/a	catFR1	0	R1328E
268.3	1.222	270387	ORIENT_START	n/a	n/a	n/a	n/a	-999	-1	[0, 0, 0]	n/a	catFR1	0	R1328E
269.522	0.0	271609	ORIENT_END	n/a	n/a	n/a	n/a	-999	-1	[0, 0, 0]	n/a	catFR1	0	R1328E
269.522	1.043	271609	ENCODING_START	n/a	n/a	n/a	n/a	-999	-1	[0, 0, 0]	n/a	catFR1	0	R1328E
270.565	1.624	272652	WORD	n/a	n/a	LEATHER	n/a	1	-1	[0, 0, 0]	n/a	catFR1	0	R1328E
272.189	0.791	274276	WORD_OFF	n/a	n/a	LEATHER	n/a	1	-1	[0, 0, 0]	n/a	catFR1	0	R1328E
272.98	1.626	275067	WORD	n/a	n/a	WOOL	n/a	2	-1	[0, 0, 0]	n/a	catFR1	0	R1328E
274.606	0.773	276692	WORD_OFF	n/a	n/a	WOOL	n/a	2	-1	[0, 0, 0]	n/a	catFR1	0	R1328E
275.379	1.627	277465	WORD	n/a	n/a	DAY	n/a	3	-1	[0, 0, 0]	n/a	catFR1	0	R1328E
277.006	0.924	279092	WORD_OFF	n/a	n/a	DAY	n/a	3	-1	[0, 0, 0]	n/a	catFR1	0	R1328E
277.93	1.627	280016	WORD	n/a	n/a	FIREMAN	n/a	4	-1	[0, 0, 0]	n/a	catFR1	0	R1328E
279.557	0.996	281643	WORD_OFF	n/a	n/a	FIREMAN	n/a	4	-1	[0, 0, 0]	n/a	catFR1	0	R1328E
280.553	1.621	282639	WORD	n/a	n/a	DENIM	n/a	5	-1	[0, 0, 0]	n/a	catFR1	0	R1328E
282.174	0.792	284260	WORD_OFF	n/a	n/a	DENIM	n/a	5	-1	[0, 0, 0]	n/a	catFR1	0	R1328E
282.966	1.625	285052	WORD	n/a	n/a	TEACHER	n/a	6	-1	[0, 0, 0]	n/a	catFR1	0	R1328E
284.591	0.865	286677	WORD_OFF	n/a	n/a	TEACHER	n/a	6	-1	[0, 0, 0]	n/a	catFR1	0	R1328E
285.456	1.635	287542	WORD	n/a	n/a	PLUMBER	n/a	7	-1	[0, 0, 0]	n/a	catFR1	0	R1328E
287.091	0.975	289177	WORD_OFF	n/a	n/a	PLUMBER	n/a	7	-1	[0, 0, 0]	n/a	catFR1	0	R1328E
288.066	1.625	290152	WORD	n/a	n/a	FARMER	n/a	8	-1	[0, 0, 0]	n/a	catFR1	0	R1328E
289.691	0.937	291777	WORD_OFF	n/a	n/a	FARMER	n/a	8	-1	[0, 0, 0]	n/a	catFR1	0	R1328E
290.628	1.631	292714	WORD	n/a	n/a	HOUR	n/a	9	-1	[0, 0, 0]	n/a	catFR1	0	R1328E
292.259	0.873	294345	WORD_OFF	n/a	n/a	HOUR	n/a	9	-1	[0, 0, 0]	n/a	catFR1	0	R1328E
293.132	1.626	295218	WORD	n/a	n/a	SECOND	n/a	10	-1	[0, 0, 0]	n/a	catFR1	0	R1328E
294.758	1.118	296844	WORD_OFF	n/a	n/a	SECOND	n/a	10	-1	[0, 0, 0]	n/a	catFR1	0	R1328E
295.876	1.634	297962	WORD	n/a	n/a	SILK	n/a	11	-1	[0, 0, 0]	n/a	catFR1	0	R1328E
297.51	1.119	299596	WORD_OFF	n/a	n/a	SILK	n/a	11	-1	[0, 0, 0]	n/a	catFR1	0	R1328E
298.629	1.631	300715	WORD	n/a	n/a	MINUTE	n/a	12	-1	[0, 0, 0]	n/a	catFR1	0	R1328E
300.26	0.001	302346	WORD_OFF	n/a	n/a	MINUTE	n/a	12	-1	[0, 0, 0]	n/a	catFR1	0	R1328E
300.261	0.0	302347	DISTRACT_START	n/a	n/a	n/a	n/a	-999	-1	[0, 0, 0]	n/a	catFR1	0	R1328E
300.261	0.0	302347	ENCODING_END	n/a	n/a	n/a	n/a	-999	-1	[0, 0, 0]	n/a	catFR1	0	R1328E
300.261	0.016	302347	START	n/a	n/a	n/a	n/a	-999	-1	[-999, -999, -999]	n/a	catFR1	0	R1328E
300.277	19.469	302363	PROB	19.431	n/a	n/a	n/a	-999	-1	[6, 6, 9]	21.0	catFR1	0	R1328E
319.746	23.092	321831	PROB	23.092	n/a	n/a	n/a	-999	-1	[7, 8, 8]	23.0	catFR1	0	R1328E
342.838	0.012	344922	STOP	n/a	n/a	n/a	n/a	-999	-1	[-999, -999, -999]	n/a	catFR1	0	R1328E
342.85	0.548	344934	DISTRACT_END	n/a	n/a	n/a	n/a	-999	-1	[0, 0, 0]	n/a	catFR1	0	R1328E
343.398	1.687	345482	RETRIEVAL_ORIENT_START	n/a	n/a	n/a	n/a	-999	-1	[0, 0, 0]	n/a	catFR1	0	R1328E
345.085	0.0	347169	RETRIEVAL_ORIENT_END	n/a	n/a	n/a	n/a	-999	-1	[0, 0, 0]	n/a	catFR1	0	R1328E
345.085	0.232	347169	REC_START	n/a	n/a	n/a	n/a	-999	-1	[0, 0, 0]	n/a	catFR1	0	R1328E
345.317	0.991	347401	REC_WORD	0.232	n/a	LEATHER	n/a	1	-1	[0, 0, 0]	n/a	catFR1	0	R1328E
346.308	0.956	348392	REC_WORD	1.223	n/a	WOOL	n/a	2	-1	[0, 0, 0]	n/a	catFR1	0	R1328E
347.264	1.225	349348	REC_WORD	2.179	n/a	SILK	n/a	11	-1	[0, 0, 0]	n/a	catFR1	0	R1328E
348.489	26.611	350573	REC_WORD	3.404	n/a	DAY	n/a	3	-1	[0, 0, 0]	n/a	catFR1	0	R1328E
375.1	0.0	377183	PRACTICE_POST_INSTRUCT_START	n/a	n/a	n/a	n/a	-999	-1	[0, 0, 0]	n/a	catFR1	0	R1328E
375.1	29.896	377183	REC_END	n/a	n/a	n/a	n/a	-999	-1	[0, 0, 0]	n/a	catFR1	0	R1328E
404.996	0.0	407078	PRACTICE_POST_INSTRUCT_END	n/a	n/a	n/a	n/a	-999	-1	[0, 0, 0]	n/a	catFR1	0	R1328E
404.996	0.027	407078	TRIAL_END	n/a	n/a	n/a	n/a	-999	-1	[0, 0, 0]	n/a	catFR1	0	R1328E
405.023	0.001	407105	TRIAL_START	n/a	n/a	n/a	n/a	-999	1	[0, 0, 0]	n/a	catFR1	0	R1328E
405.024	0.0	407106	TRIAL	n/a	n/a	n/a	n/a	-999	1	[0, 0, 0]	n/a	catFR1	0	R1328E
405.024	15.607	407106	WAITING_START	n/a	n/a	n/a	n/a	-999	1	[0, 0, 0]	n/a	catFR1	0	R1328E
420.631	0.001	422712	WAITING_END	n/a	n/a	n/a	n/a	-999	1	[0, 0, 0]	n/a	catFR1	0	R1328E
420.632	10.43	422713	COUNTDOWN_START	n/a	n/a	n/a	n/a	-999	1	[0, 0, 0]	n/a	catFR1	0	R1328E
431.062	0.0	433143	ORIENT_START	n/a	n/a	n/a	n/a	-999	1	[0, 0, 0]	n/a	catFR1	0	R1328E
431.062	1.055	433143	COUNTDOWN_END	n/a	n/a	n/a	n/a	-999	1	[0, 0, 0]	n/a	catFR1	0	R1328E
432.117	0.0	434198	ORIENT_END	n/a	n/a	n/a	n/a	-999	1	[0, 0, 0]	n/a	catFR1	0	R1328E
432.117	0.925	434198	ENCODING_START	n/a	n/a	n/a	n/a	-999	1	[0, 0, 0]	n/a	catFR1	0	R1328E
433.042	1.625	435123	WORD	n/a	wordpools/wordpool_categorized_EN.txt	SEAGULL	Birds	1	1	[0, 0, 0]	n/a	catFR1	0	R1328E
434.667	0.765	436748	WORD_OFF	n/a	n/a	SEAGULL	Birds	1	1	[0, 0, 0]	n/a	catFR1	0	R1328E
435.432	1.636	437513	WORD	n/a	wordpools/wordpool_categorized_EN.txt	ROBIN	Birds	2	1	[0, 0, 0]	n/a	catFR1	0	R1328E
437.068	0.831	439149	WORD_OFF	n/a	n/a	ROBIN	Birds	2	1	[0, 0, 0]	n/a	catFR1	0	R1328E
437.899	1.636	439980	WORD	n/a	wordpools/wordpool_categorized_EN.txt	COMPUTER	Electronics	3	1	[0, 0, 0]	n/a	catFR1	0	R1328E
439.535	1.077	441615	WORD_OFF	n/a	n/a	COMPUTER	Electronics	3	1	[0, 0, 0]	n/a	catFR1	0	R1328E
440.612	1.623	442692	WORD	n/a	wordpools/wordpool_categorized_EN.txt	PRINTER	Electronics	4	1	[0, 0, 0]	n/a	catFR1	0	R1328E
442.235	0.901	444315	WORD_OFF	n/a	n/a	PRINTER	Electronics	4	1	[0, 0, 0]	n/a	catFR1	0	R1328E
443.136	1.632	445216	WORD	n/a	wordpools/wordpool_categorized_EN.txt	BOOKCASE	Furniture	5	1	[0, 0, 0]	n/a	catFR1	0	R1328E
444.768	1.149	446848	WORD_OFF	n/a	n/a	BOOKCASE	Furniture	5	1	[0, 0, 0]	n/a	catFR1	0	R1328E
445.917	1.636	447997	WORD	n/a	wordpools/wordpool_categorized_EN.txt	SOFA	Furniture	6	1	[0, 0, 0]	n/a	catFR1	0	R1328E
447.553	0.829	449633	WORD_OFF	n/a	n/a	SOFA	Furniture	6	1	[0, 0, 0]	n/a	catFR1	0	R1328E
448.382	1.638	450462	WORD	n/a	wordpools/wordpool_categorized_EN.txt	SPARROW	Birds	7	1	[0, 0, 0]	n/a	catFR1	0	R1328E
450.02	1.066	452100	WORD_OFF	n/a	n/a	SPARROW	Birds	7	1	[0, 0, 0]	n/a	catFR1	0	R1328E
451.086	1.633	453166	WORD	n/a	wordpools/wordpool_categorized_EN.txt	BLUEBIRD	Birds	8	1	[0, 0, 0]	n/a	catFR1	0	R1328E
452.719	1.034	454799	WORD_OFF	n/a	n/a	BLUEBIRD	Birds	8	1	[0, 0, 0]	n/a	catFR1	0	R1328E
453.753	1.635	455833	WORD	n/a	wordpools/wordpool_categorized_EN.txt	TABLE	Furniture	9	1	[0, 0, 0]	n/a	catFR1	0	R1328E
455.388	0.947	457468	WORD_OFF	n/a	n/a	TABLE	Furniture	9	1	[0, 0, 0]	n/a	catFR1	0	R1328E
456.335	1.636	458415	WORD	n/a	wordpools/wordpool_categorized_EN.txt	NIGHTSTAND	Furniture	10	1	[0, 0, 0]	n/a	catFR1	0	R1328E
457.971	1.117	460051	WORD_OFF	n/a	n/a	NIGHTSTAND	Furniture	10	1	[0, 0, 0]	n/a	catFR1	0	R1328E
459.088	1.633	461168	WORD	n/a	wordpools/wordpool_categorized_EN.txt	HEADPHONES	Electronics	11	1	[0, 0, 0]	n/a	catFR1	0	R1328E
460.721	0.879	462801	WORD_OFF	n/a	n/a	HEADPHONES	Electronics	11	1	[0, 0, 0]	n/a	catFR1	0	R1328E
461.6	1.622	463680	WORD	n/a	wordpools/wordpool_categorized_EN.txt	TABLET	Electronics	12	1	[0, 0, 0]	n/a	catFR1	0	R1328E
463.222	0.001	465302	WORD_OFF	n/a	n/a	TABLET	Electronics	12	1	[0, 0, 0]	n/a	catFR1	0	R1328E
463.223	0.0	465303	DISTRACT_START	n/a	n/a	n/a	n/a	-999	1	[0, 0, 0]	n/a	catFR1	0	R1328E
463.223	0.0	465303	ENCODING_END	n/a	n/a	n/a	n/a	-999	1	[0, 0, 0]	n/a	catFR1	0	R1328E
463.223	0.016	465303	START	n/a	n/a	n/a	n/a	-999	1	[-999, -999, -999]	n/a	catFR1	0	R1328E
463.239	5.751	465319	PROB	5.717	n/a	n/a	n/a	-999	1	[5, 5, 2]	12.0	catFR1	0	R1328E
468.99	8.285	471069	PROB	8.247	n/a	n/a	n/a	-999	1	[9, 1, 4]	14.0	catFR1	0	R1328E
477.275	5.084	479354	PROB	5.05	n/a	n/a	n/a	-999	1	[7, 7, 7]	21.0	catFR1	0	R1328E
482.359	9.996	484438	PROB	9.996	n/a	n/a	n/a	-999	1	[4, 5, 6]	15.0	catFR1	0	R1328E
492.355	0.005	494434	STOP	n/a	n/a	n/a	n/a	-999	1	[-999, -999, -999]	n/a	catFR1	0	R1328E
492.36	0.52	494439	DISTRACT_END	n/a	n/a	n/a	n/a	-999	1	[0, 0, 0]	n/a	catFR1	0	R1328E
492.88	1.531	494958	RETRIEVAL_ORIENT_START	n/a	n/a	n/a	n/a	-999	1	[0, 0, 0]	n/a	catFR1	0	R1328E
494.411	0.0	496489	RETRIEVAL_ORIENT_END	n/a	n/a	n/a	n/a	-999	1	[0, 0, 0]	n/a	catFR1	0	R1328E
494.411	0.774	496489	REC_START	n/a	n/a	n/a	n/a	-999	1	[0, 0, 0]	n/a	catFR1	0	R1328E
495.185	0.947	497263	REC_WORD	0.774	n/a	COMPUTER	Electronics	3	1	[0, 0, 0]	n/a	catFR1	0	R1328E
496.132	0.79	498210	REC_WORD	1.721	n/a	PRINTER	Electronics	4	1	[0, 0, 0]	n/a	catFR1	0	R1328E
496.922	7.409	499000	REC_WORD	2.511	n/a	TABLET	Electronics	12	1	[0, 0, 0]	n/a	catFR1	0	R1328E
504.331	0.934	506409	REC_WORD	9.92	n/a	TABLE	Furniture	9	1	[0, 0, 0]	n/a	catFR1	0	R1328E
505.265	12.144	507343	REC_WORD	10.854	n/a	STAND	n/a	-999	1	[0, 0, 0]	n/a	catFR1	0	R1328E
517.409	1.428	519487	REC_WORD	22.998	n/a	ROBIN	Birds	2	1	[0, 0, 0]	n/a	catFR1	0	R1328E
518.837	1.104	520915	REC_WORD	24.426	n/a	BLUEBIRD	Birds	8	1	[0, 0, 0]	n/a	catFR1	0	R1328E
519.941	4.483	522019	REC_WORD	25.53	n/a	SEAGULL	Birds	1	1	[0, 0, 0]	n/a	catFR1	0	R1328E
524.424	0.0	526501	REC_END	n/a	n/a	n/a	n/a	-999	1	[0, 0, 0]	n/a	catFR1	0	R1328E
524.424	0.025	526501	TRIAL_END	n/a	n/a	n/a	n/a	-999	1	[0, 0, 0]	n/a	catFR1	0	R1328E
524.449	0.0	526526	TRIAL_START	n/a	n/a	n/a	n/a	-999	2	[0, 0, 0]	n/a	catFR1	0	R1328E
524.449	0.001	526526	TRIAL	n/a	n/a	n/a	n/a	-999	2	[0, 0, 0]	n/a	catFR1	0	R1328E
524.45	40.406	526527	WAITING_START	n/a	n/a	n/a	n/a	-999	2	[0, 0, 0]	n/a	catFR1	0	R1328E
564.856	0.0	566932	WAITING_END	n/a	n/a	n/a	n/a	-999	2	[0, 0, 0]	n/a	catFR1	0	R1328E
564.856	10.43	566932	COUNTDOWN_START	n/a	n/a	n/a	n/a	-999	2	[0, 0, 0]	n/a	catFR1	0	R1328E
575.286	0.001	577361	COUNTDOWN_END	n/a	n/a	n/a	n/a	-999	2	[0, 0, 0]	n/a	catFR1	0	R1328E
575.287	1.072	577362	ORIENT_START	n/a	n/a	n/a	n/a	-999	2	[0, 0, 0]	n/a	catFR1	0	R1328E
576.359	0.0	578434	ORIENT_END	n/a	n/a	n/a	n/a	-999	2	[0, 0, 0]	n/a	catFR1	0	R1328E
576.359	0.872	578434	ENCODING_START	n/a	n/a	n/a	n/a	-999	2	[0, 0, 0]	n/a	catFR1	0	R1328E
577.231	1.627	579306	WORD	n/a	wordpools/wordpool_categorized_EN.txt	SHELF	Furniture	1	2	[0, 0, 0]	n/a	catFR1	0	R1328E
578.858	1.086	580933	WORD_OFF	n/a	n/a	SHELF	Furniture	1	2	[0, 0, 0]	n/a	catFR1	0	R1328E
579.944	1.632	582019	WORD	n/a	wordpools/wordpool_categorized_EN.txt	BED	Furniture	2	2	[0, 0, 0]	n/a	catFR1	0	R1328E
581.576	1.098	583651	WORD_OFF	n/a	n/a	BED	Furniture	2	2	[0, 0, 0]	n/a	catFR1	0	R1328E
582.674	1.619	584749	WORD	n/a	wordpools/wordpool_categorized_EN.txt	CORKSCREW	KitchenTools	3	2	[0, 0, 0]	n/a	catFR1	0	R1328E
584.293	1.022	586368	WORD_OFF	n/a	n/a	CORKSCREW	KitchenTools	3	2	[0, 0, 0]	n/a	catFR1	0	R1328E
585.315	1.629	587390	WORD	n/a	wordpools/wordpool_categorized_EN.txt	PEELER	KitchenTools	4	2	[0, 0, 0]	n/a	catFR1	0	R1328E
586.944	1.074	589019	WORD_OFF	n/a	n/a	PEELER	KitchenTools	4	2	[0, 0, 0]	n/a	catFR1	0	R1328E
588.018	1.626	590093	WORD	n/a	wordpools/wordpool_categorized_EN.txt	FOREST	Landscapes	5	2	[0, 0, 0]	n/a	catFR1	0	R1328E
589.644	0.752	591719	WORD_OFF	n/a	n/a	FOREST	Landscapes	5	2	[0, 0, 0]	n/a	catFR1	0	R1328E
590.396	1.632	592471	WORD	n/a	wordpools/wordpool_categorized_EN.txt	HILLS	Landscapes	6	2	[0, 0, 0]	n/a	catFR1	0	R1328E
592.028	0.969	594103	WORD_OFF	n/a	n/a	HILLS	Landscapes	6	2	[0, 0, 0]	n/a	catFR1	0	R1328E
592.997	1.632	595072	WORD	n/a	wordpools/wordpool_categorized_EN.txt	DRESSER	Furniture	7	2	[0, 0, 0]	n/a	catFR1	0	R1328E
594.629	1.114	596704	WORD_OFF	n/a	n/a	DRESSER	Furniture	7	2	[0, 0, 0]	n/a	catFR1	0	R1328E
595.743	1.636	597818	WORD	n/a	wordpools/wordpool_categorized_EN.txt	CHAIR	Furniture	8	2	[0, 0, 0]	n/a	catFR1	0	R1328E
597.379	1.015	599454	WORD_OFF	n/a	n/a	CHAIR	Furniture	8	2	[0, 0, 0]	n/a	catFR1	0	R1328E
598.394	1.636	600469	WORD	n/a	wordpools/wordpool_categorized_EN.txt	WHISK	KitchenTools	9	2	[0, 0, 0]	n/a	catFR1	0	R1328E
600.03	1.013	602105	WORD_OFF	n/a	n/a	WHISK	KitchenTools	9	2	[0, 0, 0]	n/a	catFR1	0	R1328E
601.043	1.636	603118	WORD	n/a	wordpools/wordpool_categorized_EN.txt	GRATER	KitchenTools	10	2	[0, 0, 0]	n/a	catFR1	0	R1328E
602.679	1.029	604753	WORD_OFF	n/a	n/a	GRATER	KitchenTools	10	2	[0, 0, 0]	n/a	catFR1	0	R1328E
603.708	1.623	605782	WORD	n/a	wordpools/wordpool_categorized_EN.txt	LAKE	Landscapes	11	2	[0, 0, 0]	n/a	catFR1	0	R1328E
605.331	1.045	607405	WORD_OFF	n/a	n/a	LAKE	Landscapes	11	2	[0, 0, 0]	n/a	catFR1	0	R1328E
606.376	1.622	608450	WORD	n/a	wordpools/wordpool_categorized_EN.txt	CREEK	Landscapes	12	2	[0, 0, 0]	n/a	catFR1	0	R1328E
607.998	0.0	610072	ENCODING_END	n/a	n/a	n/a	n/a	-999	2	[0, 0, 0]	n/a	catFR1	0	R1328E
607.998	0.0	610072	DISTRACT_START	n/a	n/a	n/a	n/a	-999	2	[0, 0, 0]	n/a	catFR1	0	R1328E
607.998	0.0	610072	WORD_OFF	n/a	n/a	CREEK	Landscapes	12	2	[0, 0, 0]	n/a	catFR1	0	R1328E
607.998	0.016	610072	START	n/a	n/a	n/a	n/a	-999	2	[-999, -999, -999]	n/a	catFR1	0	R1328E
608.014	19.669	610088	PROB	19.638	n/a	n/a	n/a	-999	2	[7, 3, 6]	16.0	catFR1	0	R1328E
627.683	24.981	629757	PROB	24.981	n/a	n/a	n/a	-999	2	[8, 7, 5]	20.0	catFR1	0	R1328E
652.664	0.007	654737	STOP	n/a	n/a	n/a	n/a	-999	2	[-999, -999, -999]	n/a	catFR1	0	R1328E
652.671	0.583	654744	DISTRACT_END	n/a	n/a	n/a	n/a	-999	2	[0, 0, 0]	n/a	catFR1	0	R1328E
653.254	1.702	655327	RETRIEVAL_ORIENT_START	n/a	n/a	n/a	n/a	-999	2	[0, 0, 0]	n/a	catFR1	0	R1328E
654.956	0.0	657029	RETRIEVAL_ORIENT_END	n/a	n/a	n/a	n/a	-999	2	[0, 0, 0]	n/a	catFR1	0	R1328E
654.956	1.241	657029	REC_START	n/a	n/a	n/a	n/a	-999	2	[0, 0, 0]	n/a	catFR1	0	R1328E
656.197	0.963	658270	REC_WORD	1.241	n/a	DRESSER	Furniture	7	2	[0, 0, 0]	n/a	catFR1	0	R1328E
657.16	1.0	659232	REC_WORD	2.204	n/a	CORKSCREW	KitchenTools	3	2	[0, 0, 0]	n/a	catFR1	0	R1328E
658.16	1.289	660232	REC_WORD_VV	3.204	n/a	<>	n/a	-999	2	[0, 0, 0]	n/a	catFR1	0	R1328E
659.449	5.217	661521	REC_WORD	4.493	n/a	GRATER	KitchenTools	10	2	[0, 0, 0]	n/a	catFR1	0	R1328E
664.666	20.303	666738	REC_WORD	9.71	n/a	SHELF	Furniture	1	2	[0, 0, 0]	n/a	catFR1	0	R1328E
684.969	0.0	687040	REC_END	n/a	n/a	n/a	n/a	-999	2	[0, 0, 0]	n/a	catFR1	0	R1328E
684.969	0.029	687040	TRIAL_END	n/a	n/a	n/a	n/a	-999	2	[0, 0, 0]	n/a	catFR1	0	R1328E
684.998	0.0	687069	TRIAL_START	n/a	n/a	n/a	n/a	-999	3	[0, 0, 0]	n/a	catFR1	0	R1328E
684.998	0.0	687069	TRIAL	n/a	n/a	n/a	n/a	-999	3	[0, 0, 0]	n/a	catFR1	0	R1328E
684.998	16.633	687069	WAITING_START	n/a	n/a	n/a	n/a	-999	3	[0, 0, 0]	n/a	catFR1	0	R1328E
701.631	0.0	703702	WAITING_END	n/a	n/a	n/a	n/a	-999	3	[0, 0, 0]	n/a	catFR1	0	R1328E
701.631	10.429	703702	COUNTDOWN_START	n/a	n/a	n/a	n/a	-999	3	[0, 0, 0]	n/a	catFR1	0	R1328E
712.06	0.0	714130	ORIENT_START	n/a	n/a	n/a	n/a	-999	3	[0, 0, 0]	n/a	catFR1	0	R1328E
712.06	1.073	714130	COUNTDOWN_END	n/a	n/a	n/a	n/a	-999	3	[0, 0, 0]	n/a	catFR1	0	R1328E
713.133	0.0	715203	ENCODING_START	n/a	n/a	n/a	n/a	-999	3	[0, 0, 0]	n/a	catFR1	0	R1328E
713.133	0.904	715203	ORIENT_END	n/a	n/a	n/a	n/a	-999	3	[0, 0, 0]	n/a	catFR1	0	R1328E
714.037	1.629	716107	WORD	n/a	wordpools/wordpool_categorized_EN.txt	JELLO	Desserts	1	3	[0, 0, 0]	n/a	catFR1	0	R1328E
715.666	1.109	717736	WORD_OFF	n/a	n/a	JELLO	Desserts	1	3	[0, 0, 0]	n/a	catFR1	0	R1328E
716.775	1.625	718845	WORD	n/a	wordpools/wordpool_categorized_EN.txt	COOKIE	Desserts	2	3	[0, 0, 0]	n/a	catFR1	0	R1328E
718.4	0.941	720470	WORD_OFF	n/a	n/a	COOKIE	Desserts	2	3	[0, 0, 0]	n/a	catFR1	0	R1328E
719.341	1.626	721411	WORD	n/a	wordpools/wordpool_categorized_EN.txt	CHICKEN	FarmAnimals	3	3	[0, 0, 0]	n/a	catFR1	0	R1328E
720.967	0.944	723037	WORD_OFF	n/a	n/a	CHICKEN	FarmAnimals	3	3	[0, 0, 0]	n/a	catFR1	0	R1328E
721.911	1.624	723981	WORD	n/a	wordpools/wordpool_categorized_EN.txt	SHEEP	FarmAnimals	4	3	[0, 0, 0]	n/a	catFR1	0	R1328E
723.535	0.754	725605	WORD_OFF	n/a	n/a	SHEEP	FarmAnimals	4	3	[0, 0, 0]	n/a	catFR1	0	R1328E
724.289	1.629	726359	WORD	n/a	wordpools/wordpool_categorized_EN.txt	MOUNTAIN	Landscapes	5	3	[0, 0, 0]	n/a	catFR1	0	R1328E
725.918	0.781	727988	WORD_OFF	n/a	n/a	MOUNTAIN	Landscapes	5	3	[0, 0, 0]	n/a	catFR1	0	R1328E
726.699	1.636	728769	WORD	n/a	wordpools/wordpool_categorized_EN.txt	STREAM	Landscapes	6	3	[0, 0, 0]	n/a	catFR1	0	R1328E
728.335	0.923	730405	WORD_OFF	n/a	n/a	STREAM	Landscapes	6	3	[0, 0, 0]	n/a	catFR1	0	R1328E
729.258	1.628	731328	WORD	n/a	wordpools/wordpool_categorized_EN.txt	FUDGE	Desserts	7	3	[0, 0, 0]	n/a	catFR1	0	R1328E
730.886	1.075	732956	WORD_OFF	n/a	n/a	FUDGE	Desserts	7	3	[0, 0, 0]	n/a	catFR1	0	R1328E
731.961	1.625	734031	WORD	n/a	wordpools/wordpool_categorized_EN.txt	CUPCAKE	Desserts	8	3	[0, 0, 0]	n/a	catFR1	0	R1328E
733.586	1.02	735656	WORD_OFF	n/a	n/a	CUPCAKE	Desserts	8	3	[0, 0, 0]	n/a	catFR1	0	R1328E
734.606	1.631	736676	WORD	n/a	wordpools/wordpool_categorized_EN.txt	HORSE	FarmAnimals	9	3	[0, 0, 0]	n/a	catFR1	0	R1328E
736.237	1.072	738307	WORD_OFF	n/a	n/a	HORSE	FarmAnimals	9	3	[0, 0, 0]	n/a	catFR1	0	R1328E
737.309	1.628	739379	WORD	n/a	wordpools/wordpool_categorized_EN.txt	PIG	FarmAnimals	10	3	[0, 0, 0]	n/a	catFR1	0	R1328E
738.937	1.065	741006	WORD_OFF	n/a	n/a	PIG	FarmAnimals	10	3	[0, 0, 0]	n/a	catFR1	0	R1328E
740.002	1.636	742071	WORD	n/a	wordpools/wordpool_categorized_EN.txt	ISLAND	Landscapes	11	3	[0, 0, 0]	n/a	catFR1	0	R1328E
741.638	0.822	743707	WORD_OFF	n/a	n/a	ISLAND	Landscapes	11	3	[0, 0, 0]	n/a	catFR1	0	R1328E
742.46	1.628	744529	WORD	n/a	wordpools/wordpool_categorized_EN.txt	OCEAN	Landscapes	12	3	[0, 0, 0]	n/a	catFR1	0	R1328E
744.088	0.001	746157	WORD_OFF	n/a	n/a	OCEAN	Landscapes	12	3	[0, 0, 0]	n/a	catFR1	0	R1328E
744.089	0.0	746158	ENCODING_END	n/a	n/a	n/a	n/a	-999	3	[0, 0, 0]	n/a	catFR1	0	R1328E
744.089	0.0	746158	DISTRACT_START	n/a	n/a	n/a	n/a	-999	3	[0, 0, 0]	n/a	catFR1	0	R1328E
744.089	0.016	746158	START	n/a	n/a	n/a	n/a	-999	3	[-999, -999, -999]	n/a	catFR1	0	R1328E
744.105	6.633	746174	PROB	6.606	n/a	n/a	n/a	-999	3	[9, 7, 1]	17.0	catFR1	0	R1328E
750.738	33.206	752807	PROB	33.206	n/a	n/a	n/a	-999	3	[3, 3, 5]	11.0	catFR1	0	R1328E
783.944	0.018	786012	STOP	n/a	n/a	n/a	n/a	-999	3	[-999, -999, -999]	n/a	catFR1	0	R1328E
783.962	0.646	786030	DISTRACT_END	n/a	n/a	n/a	n/a	-999	3	[0, 0, 0]	n/a	catFR1	0	R1328E
784.608	1.687	786676	RETRIEVAL_ORIENT_START	n/a	n/a	n/a	n/a	-999	3	[0, 0, 0]	n/a	catFR1	0	R1328E
786.295	0.0	788363	RETRIEVAL_ORIENT_END	n/a	n/a	n/a	n/a	-999	3	[0, 0, 0]	n/a	catFR1	0	R1328E
786.295	0.0	788363	REC_START	n/a	n/a	n/a	n/a	-999	3	[0, 0, 0]	n/a	catFR1	0	R1328E
786.295	1.242	788363	REC_WORD	0.0	n/a	SHEEP	FarmAnimals	4	3	[0, 0, 0]	n/a	catFR1	0	R1328E
787.537	1.563	789605	REC_WORD	1.242	n/a	MOUNTAIN	Landscapes	5	3	[0, 0, 0]	n/a	catFR1	0	R1328E
789.1	4.258	791168	REC_WORD	2.805	n/a	FARM	n/a	-999	3	[0, 0, 0]	n/a	catFR1	0	R1328E
793.358	12.788	795426	REC_WORD	7.063	n/a	JELLO	Desserts	1	3	[0, 0, 0]	n/a	catFR1	0	R1328E
806.146	10.162	808213	REC_WORD	19.851	n/a	COOKIE	Desserts	2	3	[0, 0, 0]	n/a	catFR1	0	R1328E
816.308	0.001	818375	REC_END	n/a	n/a	n/a	n/a	-999	3	[0, 0, 0]	n/a	catFR1	0	R1328E
816.309	0.025	818376	TRIAL_END	n/a	n/a	n/a	n/a	-999	3	[0, 0, 0]	n/a	catFR1	0	R1328E
816.334	0.0	818401	TRIAL_START	n/a	n/a	n/a	n/a	-999	4	[0, 0, 0]	n/a	catFR1	0	R1328E
816.334	0.001	818401	TRIAL	n/a	n/a	n/a	n/a	-999	4	[0, 0, 0]	n/a	catFR1	0	R1328E
816.335	5.033	818402	WAITING_START	n/a	n/a	n/a	n/a	-999	4	[0, 0, 0]	n/a	catFR1	0	R1328E
821.368	0.001	823434	WAITING_END	n/a	n/a	n/a	n/a	-999	4	[0, 0, 0]	n/a	catFR1	0	R1328E
821.369	10.429	823435	COUNTDOWN_START	n/a	n/a	n/a	n/a	-999	4	[0, 0, 0]	n/a	catFR1	0	R1328E
831.798	0.0	833864	COUNTDOWN_END	n/a	n/a	n/a	n/a	-999	4	[0, 0, 0]	n/a	catFR1	0	R1328E
831.798	1.055	833864	ORIENT_START	n/a	n/a	n/a	n/a	-999	4	[0, 0, 0]	n/a	catFR1	0	R1328E
832.853	0.0	834919	ENCODING_START	n/a	n/a	n/a	n/a	-999	4	[0, 0, 0]	n/a	catFR1	0	R1328E
832.853	0.928	834919	ORIENT_END	n/a	n/a	n/a	n/a	-999	4	[0, 0, 0]	n/a	catFR1	0	R1328E
833.781	1.606	835847	WORD	n/a	wordpools/wordpool_categorized_EN.txt	WASHER	Appliances	1	4	[0, 0, 0]	n/a	catFR1	0	R1328E
835.387	1.116	837453	WORD_OFF	n/a	n/a	WASHER	Appliances	1	4	[0, 0, 0]	n/a	catFR1	0	R1328E
836.503	1.635	838569	WORD	n/a	wordpools/wordpool_categorized_EN.txt	MIXER	Appliances	2	4	[0, 0, 0]	n/a	catFR1	0	R1328E
838.138	0.954	840204	WORD_OFF	n/a	n/a	MIXER	Appliances	2	4	[0, 0, 0]	n/a	catFR1	0	R1328E
839.092	1.629	841158	WORD	n/a	wordpools/wordpool_categorized_EN.txt	RADIO	Electronics	3	4	[0, 0, 0]	n/a	catFR1	0	R1328E
840.721	1.052	842787	WORD_OFF	n/a	n/a	RADIO	Electronics	3	4	[0, 0, 0]	n/a	catFR1	0	R1328E
841.773	1.616	843839	WORD	n/a	wordpools/wordpool_categorized_EN.txt	STEREO	Electronics	4	4	[0, 0, 0]	n/a	catFR1	0	R1328E
843.389	0.776	845455	WORD_OFF	n/a	n/a	STEREO	Electronics	4	4	[0, 0, 0]	n/a	catFR1	0	R1328E
844.165	1.623	846231	WORD	n/a	wordpools/wordpool_categorized_EN.txt	WOODS	Landscapes	5	4	[0, 0, 0]	n/a	catFR1	0	R1328E
845.788	0.804	847854	WORD_OFF	n/a	n/a	WOODS	Landscapes	5	4	[0, 0, 0]	n/a	catFR1	0	R1328E
846.592	1.631	848658	WORD	n/a	wordpools/wordpool_categorized_EN.txt	VALLEY	Landscapes	6	4	[0, 0, 0]	n/a	catFR1	0	R1328E
848.223	1.128	850289	WORD_OFF	n/a	n/a	VALLEY	Landscapes	6	4	[0, 0, 0]	n/a	catFR1	0	R1328E
849.351	1.622	851416	WORD	n/a	wordpools/wordpool_categorized_EN.txt	DISHWASHER	Appliances	7	4	[0, 0, 0]	n/a	catFR1	0	R1328E
850.973	0.856	853038	WORD_OFF	n/a	n/a	DISHWASHER	Appliances	7	4	[0, 0, 0]	n/a	catFR1	0	R1328E
851.829	1.628	853894	WORD	n/a	wordpools/wordpool_categorized_EN.txt	STOVE	Appliances	8	4	[0, 0, 0]	n/a	catFR1	0	R1328E
853.457	1.103	855522	WORD_OFF	n/a	n/a	STOVE	Appliances	8	4	[0, 0, 0]	n/a	catFR1	0	R1328E
854.56	1.631	856625	WORD	n/a	wordpools/wordpool_categorized_EN.txt	MICROWAVE	Electronics	9	4	[0, 0, 0]	n/a	catFR1	0	R1328E
856.191	0.932	858256	WORD_OFF	n/a	n/a	MICROWAVE	Electronics	9	4	[0, 0, 0]	n/a	catFR1	0	R1328E
857.123	1.634	859188	WORD	n/a	wordpools/wordpool_categorized_EN.txt	SPEAKER	Electronics	10	4	[0, 0, 0]	n/a	catFR1	0	R1328E
858.757	0.991	860822	WORD_OFF	n/a	n/a	SPEAKER	Electronics	10	4	[0, 0, 0]	n/a	catFR1	0	R1328E
859.748	1.627	861813	WORD	n/a	wordpools/wordpool_categorized_EN.txt	RIVER	Landscapes	11	4	[0, 0, 0]	n/a	catFR1	0	R1328E
861.375	0.784	863440	WORD_OFF	n/a	n/a	RIVER	Landscapes	11	4	[0, 0, 0]	n/a	catFR1	0	R1328E
862.159	1.632	864224	WORD	n/a	wordpools/wordpool_categorized_EN.txt	BEACH	Landscapes	12	4	[0, 0, 0]	n/a	catFR1	0	R1328E
863.791	0.001	865856	WORD_OFF	n/a	n/a	BEACH	Landscapes	12	4	[0, 0, 0]	n/a	catFR1	0	R1328E
863.792	0.0	865857	ENCODING_END	n/a	n/a	n/a	n/a	-999	4	[0, 0, 0]	n/a	catFR1	0	R1328E
863.792	0.0	865857	DISTRACT_START	n/a	n/a	n/a	n/a	-999	4	[0, 0, 0]	n/a	catFR1	0	R1328E
863.792	0.016	865857	START	n/a	n/a	n/a	n/a	-999	4	[-999, -999, -999]	n/a	catFR1	0	R1328E
863.808	6.785	865873	PROB	6.751	n/a	n/a	n/a	-999	4	[4, 3, 8]	15.0	catFR1	0	R1328E
870.593	21.547	872658	PROB	21.547	n/a	n/a	n/a	-999	4	[1, 3, 8]	12.0	catFR1	0	R1328E
892.14	0.007	894204	STOP	n/a	n/a	n/a	n/a	-999	4	[-999, -999, -999]	n/a	catFR1	0	R1328E
892.147	0.665	894211	DISTRACT_END	n/a	n/a	n/a	n/a	-999	4	[0, 0, 0]	n/a	catFR1	0	R1328E
892.812	1.719	894876	RETRIEVAL_ORIENT_START	n/a	n/a	n/a	n/a	-999	4	[0, 0, 0]	n/a	catFR1	0	R1328E
894.531	0.0	896595	REC_START	n/a	n/a	n/a	n/a	-999	4	[0, 0, 0]	n/a	catFR1	0	R1328E
894.531	0.198	896595	RETRIEVAL_ORIENT_END	n/a	n/a	n/a	n/a	-999	4	[0, 0, 0]	n/a	catFR1	0	R1328E
894.729	1.695	896793	REC_WORD	0.198	n/a	STOVE	Appliances	8	4	[0, 0, 0]	n/a	catFR1	0	R1328E
896.424	1.562	898488	REC_WORD	1.893	n/a	REFRIGERATOR	n/a	-999	4	[0, 0, 0]	n/a	catFR1	0	R1328E
897.986	2.561	900050	REC_WORD	3.455	n/a	WASHER	Appliances	1	4	[0, 0, 0]	n/a	catFR1	0	R1328E
900.547	8.47	902611	REC_WORD	6.016	n/a	DISHWASHER	Appliances	7	4	[0, 0, 0]	n/a	catFR1	0	R1328E
909.017	6.286	911080	REC_WORD	14.486	n/a	MICROWAVE	Electronics	9	4	[0, 0, 0]	n/a	catFR1	0	R1328E
915.303	9.244	917366	REC_WORD	20.772	n/a	MIXER	Appliances	2	4	[0, 0, 0]	n/a	catFR1	0	R1328E
924.547	0.001	926610	REC_END	n/a	n/a	n/a	n/a	-999	4	[0, 0, 0]	n/a	catFR1	0	R1328E
924.548	0.025	926611	TRIAL_END	n/a	n/a	n/a	n/a	-999	4	[0, 0, 0]	n/a	catFR1	0	R1328E
924.573	0.0	926636	TRIAL_START	n/a	n/a	n/a	n/a	-999	5	[0, 0, 0]	n/a	catFR1	0	R1328E
924.573	0.001	926636	TRIAL	n/a	n/a	n/a	n/a	-999	5	[0, 0, 0]	n/a	catFR1	0	R1328E
924.574	6.213	926637	WAITING_START	n/a	n/a	n/a	n/a	-999	5	[0, 0, 0]	n/a	catFR1	0	R1328E
930.787	0.0	932849	WAITING_END	n/a	n/a	n/a	n/a	-999	5	[0, 0, 0]	n/a	catFR1	0	R1328E
930.787	10.429	932849	COUNTDOWN_START	n/a	n/a	n/a	n/a	-999	5	[0, 0, 0]	n/a	catFR1	0	R1328E
941.216	0.0	943278	COUNTDOWN_END	n/a	n/a	n/a	n/a	-999	5	[0, 0, 0]	n/a	catFR1	0	R1328E
941.216	1.04	943278	ORIENT_START	n/a	n/a	n/a	n/a	-999	5	[0, 0, 0]	n/a	catFR1	0	R1328E
942.256	0.001	944318	ORIENT_END	n/a	n/a	n/a	n/a	-999	5	[0, 0, 0]	n/a	catFR1	0	R1328E
942.257	0.859	944319	ENCODING_START	n/a	n/a	n/a	n/a	-999	5	[0, 0, 0]	n/a	catFR1	0	R1328E
943.116	1.623	945178	WORD	n/a	wordpools/wordpool_categorized_EN.txt	BANANA	Fruit	1	5	[0, 0, 0]	n/a	catFR1	0	R1328E
944.739	0.947	946801	WORD_OFF	n/a	n/a	BANANA	Fruit	1	5	[0, 0, 0]	n/a	catFR1	0	R1328E
945.686	1.638	947748	WORD	n/a	wordpools/wordpool_categorized_EN.txt	APPLE	Fruit	2	5	[0, 0, 0]	n/a	catFR1	0	R1328E
947.324	0.869	949386	WORD_OFF	n/a	n/a	APPLE	Fruit	2	5	[0, 0, 0]	n/a	catFR1	0	R1328E
948.193	1.63	950255	WORD	n/a	wordpools/wordpool_categorized_EN.txt	CAULIFLOWER	Vegetables	3	5	[0, 0, 0]	n/a	catFR1	0	R1328E
949.823	0.9	951885	WORD_OFF	n/a	n/a	CAULIFLOWER	Vegetables	3	5	[0, 0, 0]	n/a	catFR1	0	R1328E
950.723	1.618	952785	WORD	n/a	wordpools/wordpool_categorized_EN.txt	LETTUCE	Vegetables	4	5	[0, 0, 0]	n/a	catFR1	0	R1328E
952.341	1.046	954403	WORD_OFF	n/a	n/a	LETTUCE	Vegetables	4	5	[0, 0, 0]	n/a	catFR1	0	R1328E
953.387	1.621	955449	WORD	n/a	wordpools/wordpool_categorized_EN.txt	LION	Zoo	5	5	[0, 0, 0]	n/a	catFR1	0	R1328E
955.008	0.944	957070	WORD_OFF	n/a	n/a	LION	Zoo	5	5	[0, 0, 0]	n/a	catFR1	0	R1328E
955.952	1.624	958014	WORD	n/a	wordpools/wordpool_categorized_EN.txt	TIGER	Zoo	6	5	[0, 0, 0]	n/a	catFR1	0	R1328E
957.576	0.787	959638	WORD_OFF	n/a	n/a	TIGER	Zoo	6	5	[0, 0, 0]	n/a	catFR1	0	R1328E
958.363	1.63	960424	WORD	n/a	wordpools/wordpool_categorized_EN.txt	BLUEBERRY	Fruit	7	5	[0, 0, 0]	n/a	catFR1	0	R1328E
959.993	0.764	962054	WORD_OFF	n/a	n/a	BLUEBERRY	Fruit	7	5	[0, 0, 0]	n/a	catFR1	0	R1328E
960.757	1.636	962818	WORD	n/a	wordpools/wordpool_categorized_EN.txt	PEACH	Fruit	8	5	[0, 0, 0]	n/a	catFR1	0	R1328E
962.393	0.862	964454	WORD_OFF	n/a	n/a	PEACH	Fruit	8	5	[0, 0, 0]	n/a	catFR1	0	R1328E
963.255	1.622	965316	WORD	n/a	wordpools/wordpool_categorized_EN.txt	BROCCOLI	Vegetables	9	5	[0, 0, 0]	n/a	catFR1	0	R1328E
964.877	1.099	966938	WORD_OFF	n/a	n/a	BROCCOLI	Vegetables	9	5	[0, 0, 0]	n/a	catFR1	0	R1328E
965.976	1.635	968037	WORD	n/a	wordpools/wordpool_categorized_EN.txt	PEAS	Vegetables	10	5	[0, 0, 0]	n/a	catFR1	0	R1328E
967.611	0.802	969672	WORD_OFF	n/a	n/a	PEAS	Vegetables	10	5	[0, 0, 0]	n/a	catFR1	0	R1328E
968.413	1.631	970474	WORD	n/a	wordpools/wordpool_categorized_EN.txt	BEAR	Zoo	11	5	[0, 0, 0]	n/a	catFR1	0	R1328E
970.044	0.848	972105	WORD_OFF	n/a	n/a	BEAR	Zoo	11	5	[0, 0, 0]	n/a	catFR1	0	R1328E
970.892	1.636	972953	WORD	n/a	wordpools/wordpool_categorized_EN.txt	ELEPHANT	Zoo	12	5	[0, 0, 0]	n/a	catFR1	0	R1328E
972.528	0.001	974589	WORD_OFF	n/a	n/a	ELEPHANT	Zoo	12	5	[0, 0, 0]	n/a	catFR1	0	R1328E
972.529	0.0	974590	ENCODING_END	n/a	n/a	n/a	n/a	-999	5	[0, 0, 0]	n/a	catFR1	0	R1328E
972.529	0.0	974590	DISTRACT_START	n/a	n/a	n/a	n/a	-999	5	[0, 0, 0]	n/a	catFR1	0	R1328E
972.529	0.016	974590	START	n/a	n/a	n/a	n/a	-999	5	[-999, -999, -999]	n/a	catFR1	0	R1328E
972.545	6.651	974606	PROB	6.625	n/a	n/a	n/a	-999	5	[2, 2, 1]	5.0	catFR1	0	R1328E
979.196	6.718	981257	PROB	6.69	n/a	n/a	n/a	-999	5	[2, 6, 8]	16.0	catFR1	0	R1328E
985.914	28.628	987974	PROB	28.628	n/a	n/a	n/a	-999	5	[9, 4, 1]	14.0	catFR1	0	R1328E
1014.542	0.01	1016601	STOP	n/a	n/a	n/a	n/a	-999	5	[-999, -999, -999]	n/a	catFR1	0	R1328E
1014.552	0.696	1016611	DISTRACT_END	n/a	n/a	n/a	n/a	-999	5	[0, 0, 0]	n/a	catFR1	0	R1328E
1015.248	1.603	1017307	RETRIEVAL_ORIENT_START	n/a	n/a	n/a	n/a	-999	5	[0, 0, 0]	n/a	catFR1	0	R1328E
1016.851	0.001	1018910	RETRIEVAL_ORIENT_END	n/a	n/a	n/a	n/a	-999	5	[0, 0, 0]	n/a	catFR1	0	R1328E
1016.852	0.391	1018911	REC_START	n/a	n/a	n/a	n/a	-999	5	[0, 0, 0]	n/a	catFR1	0	R1328E
1017.243	1.393	1019302	REC_WORD	0.391	n/a	CAULIFLOWER	Vegetables	3	5	[0, 0, 0]	n/a	catFR1	0	R1328E
1018.636	1.423	1020695	REC_WORD	1.784	n/a	BROCCOLI	Vegetables	9	5	[0, 0, 0]	n/a	catFR1	0	R1328E
1020.059	1.002	1022118	REC_WORD	3.207	n/a	BLUEBERRY	Fruit	7	5	[0, 0, 0]	n/a	catFR1	0	R1328E
1021.061	1.096	1023120	REC_WORD	4.209	n/a	BANANA	Fruit	1	5	[0, 0, 0]	n/a	catFR1	0	R1328E
1022.157	4.966	1024216	REC_WORD	5.305	n/a	PEACH	Fruit	8	5	[0, 0, 0]	n/a	catFR1	0	R1328E
1027.123	0.834	1029182	REC_WORD	10.271	n/a	BEAR	Zoo	11	5	[0, 0, 0]	n/a	catFR1	0	R1328E
1027.957	1.684	1030016	REC_WORD	11.105	n/a	ELEPHANT	Zoo	12	5	[0, 0, 0]	n/a	catFR1	0	R1328E
1029.641	17.227	1031700	REC_WORD	12.789	n/a	LION	Zoo	5	5	[0, 0, 0]	n/a	catFR1	0	R1328E
1046.868	0.0	1048926	TRIAL_END	n/a	n/a	n/a	n/a	-999	5	[0, 0, 0]	n/a	catFR1	0	R1328E
1046.868	0.026	1048926	REC_END	n/a	n/a	n/a	n/a	-999	5	[0, 0, 0]	n/a	catFR1	0	R1328E
1046.894	0.0	1048952	TRIAL_START	n/a	n/a	n/a	n/a	-999	6	[0, 0, 0]	n/a	catFR1	0	R1328E
1046.894	0.0	1048952	TRIAL	n/a	n/a	n/a	n/a	-999	6	[0, 0, 0]	n/a	catFR1	0	R1328E
1046.894	5.282	1048952	WAITING_START	n/a	n/a	n/a	n/a	-999	6	[0, 0, 0]	n/a	catFR1	0	R1328E
1052.176	0.0	1054234	WAITING_END	n/a	n/a	n/a	n/a	-999	6	[0, 0, 0]	n/a	catFR1	0	R1328E
1052.176	10.429	1054234	COUNTDOWN_START	n/a	n/a	n/a	n/a	-999	6	[0, 0, 0]	n/a	catFR1	0	R1328E
1062.605	0.001	1064663	COUNTDOWN_END	n/a	n/a	n/a	n/a	-999	6	[0, 0, 0]	n/a	catFR1	0	R1328E
1062.606	1.055	1064664	ORIENT_START	n/a	n/a	n/a	n/a	-999	6	[0, 0, 0]	n/a	catFR1	0	R1328E
1063.661	0.0	1065719	ENCODING_START	n/a	n/a	n/a	n/a	-999	6	[0, 0, 0]	n/a	catFR1	0	R1328E
1063.661	0.94	1065719	ORIENT_END	n/a	n/a	n/a	n/a	-999	6	[0, 0, 0]	n/a	catFR1	0	R1328E
1064.601	1.627	1066659	WORD	n/a	wordpools/wordpool_categorized_EN.txt	WATER	Beverages	1	6	[0, 0, 0]	n/a	catFR1	0	R1328E
1066.228	1.115	1068286	WORD_OFF	n/a	n/a	WATER	Beverages	1	6	[0, 0, 0]	n/a	catFR1	0	R1328E
1067.343	1.635	1069400	WORD	n/a	wordpools/wordpool_categorized_EN.txt	COFFEE	Beverages	2	6	[0, 0, 0]	n/a	catFR1	0	R1328E
1068.978	0.908	1071035	WORD_OFF	n/a	n/a	COFFEE	Beverages	2	6	[0, 0, 0]	n/a	catFR1	0	R1328E
1069.886	1.626	1071943	WORD	n/a	wordpools/wordpool_categorized_EN.txt	GRAPE	Fruit	3	6	[0, 0, 0]	n/a	catFR1	0	R1328E
1071.512	0.842	1073569	WORD_OFF	n/a	n/a	GRAPE	Fruit	3	6	[0, 0, 0]	n/a	catFR1	0	R1328E
1072.354	1.625	1074411	WORD	n/a	wordpools/wordpool_categorized_EN.txt	LEMON	Fruit	4	6	[0, 0, 0]	n/a	catFR1	0	R1328E
1073.979	1.115	1076036	WORD_OFF	n/a	n/a	LEMON	Fruit	4	6	[0, 0, 0]	n/a	catFR1	0	R1328E
1075.094	1.635	1077151	WORD	n/a	wordpools/wordpool_categorized_EN.txt	TONGS	KitchenTools	5	6	[0, 0, 0]	n/a	catFR1	0	R1328E
1076.729	1.046	1078786	WORD_OFF	n/a	n/a	TONGS	KitchenTools	5	6	[0, 0, 0]	n/a	catFR1	0	R1328E
1077.775	1.622	1079832	WORD	n/a	wordpools/wordpool_categorized_EN.txt	LADLE	KitchenTools	6	6	[0, 0, 0]	n/a	catFR1	0	R1328E
1079.397	0.951	1081454	WORD_OFF	n/a	n/a	LADLE	KitchenTools	6	6	[0, 0, 0]	n/a	catFR1	0	R1328E
1080.348	1.632	1082405	WORD	n/a	wordpools/wordpool_categorized_EN.txt	CHERRY	Fruit	7	6	[0, 0, 0]	n/a	catFR1	0	R1328E
1081.98	0.871	1084037	WORD_OFF	n/a	n/a	CHERRY	Fruit	7	6	[0, 0, 0]	n/a	catFR1	0	R1328E
1082.851	1.63	1084908	WORD	n/a	wordpools/wordpool_categorized_EN.txt	STRAWBERRY	Fruit	8	6	[0, 0, 0]	n/a	catFR1	0	R1328E
1084.481	1.066	1086538	WORD_OFF	n/a	n/a	STRAWBERRY	Fruit	8	6	[0, 0, 0]	n/a	catFR1	0	R1328E
1085.547	1.634	1087604	WORD	n/a	wordpools/wordpool_categorized_EN.txt	BEER	Beverages	9	6	[0, 0, 0]	n/a	catFR1	0	R1328E
1087.181	0.879	1089238	WORD_OFF	n/a	n/a	BEER	Beverages	9	6	[0, 0, 0]	n/a	catFR1	0	R1328E
1088.06	1.621	1090117	WORD	n/a	wordpools/wordpool_categorized_EN.txt	MILK	Beverages	10	6	[0, 0, 0]	n/a	catFR1	0	R1328E
1089.681	1.007	1091738	WORD_OFF	n/a	n/a	MILK	Beverages	10	6	[0, 0, 0]	n/a	catFR1	0	R1328E
1090.688	1.628	1092745	WORD	n/a	wordpools/wordpool_categorized_EN.txt	SPATULA	KitchenTools	11	6	[0, 0, 0]	n/a	catFR1	0	R1328E
1092.316	0.96	1094373	WORD_OFF	n/a	n/a	SPATULA	KitchenTools	11	6	[0, 0, 0]	n/a	catFR1	0	R1328E
1093.276	1.624	1095333	WORD	n/a	wordpools/wordpool_categorized_EN.txt	FORK	KitchenTools	12	6	[0, 0, 0]	n/a	catFR1	0	R1328E
1094.9	0.0	1096956	WORD_OFF	n/a	n/a	FORK	KitchenTools	12	6	[0, 0, 0]	n/a	catFR1	0	R1328E
1094.9	0.0	1096956	ENCODING_END	n/a	n/a	n/a	n/a	-999	6	[0, 0, 0]	n/a	catFR1	0	R1328E
1094.9	0.0	1096956	DISTRACT_START	n/a	n/a	n/a	n/a	-999	6	[0, 0, 0]	n/a	catFR1	0	R1328E
1094.9	0.016	1096956	START	n/a	n/a	n/a	n/a	-999	6	[-999, -999, -999]	n/a	catFR1	0	R1328E
1094.916	8.035	1096972	PROB	8.003	n/a	n/a	n/a	-999	6	[7, 8, 2]	17.0	catFR1	0	R1328E
1102.951	18.298	1105007	PROB	18.298	n/a	n/a	n/a	-999	6	[7, 1, 4]	12.0	catFR1	0	R1328E
1121.249	0.022	1123305	STOP	n/a	n/a	n/a	n/a	-999	6	[-999, -999, -999]	n/a	catFR1	0	R1328E
1121.271	0.617	1123327	DISTRACT_END	n/a	n/a	n/a	n/a	-999	6	[0, 0, 0]	n/a	catFR1	0	R1328E
1121.888	1.583	1123943	RETRIEVAL_ORIENT_START	n/a	n/a	n/a	n/a	-999	6	[0, 0, 0]	n/a	catFR1	0	R1328E
1123.471	0.0	1125526	REC_START	n/a	n/a	n/a	n/a	-999	6	[0, 0, 0]	n/a	catFR1	0	R1328E
1123.471	1.469	1125526	RETRIEVAL_ORIENT_END	n/a	n/a	n/a	n/a	-999	6	[0, 0, 0]	n/a	catFR1	0	R1328E
1124.94	1.028	1126995	REC_WORD	1.469	n/a	FORK	KitchenTools	12	6	[0, 0, 0]	n/a	catFR1	0	R1328E
1125.968	3.721	1128023	REC_WORD	2.497	n/a	SPATULA	KitchenTools	11	6	[0, 0, 0]	n/a	catFR1	0	R1328E
1129.689	14.547	1131744	REC_WORD	6.218	n/a	BEER	Beverages	9	6	[0, 0, 0]	n/a	catFR1	0	R1328E
1144.236	4.125	1146291	REC_WORD	20.765	n/a	STRAWBERRY	Fruit	8	6	[0, 0, 0]	n/a	catFR1	0	R1328E
1148.361	3.224	1150416	REC_WORD	24.89	n/a	CHERRY	Fruit	7	6	[0, 0, 0]	n/a	catFR1	0	R1328E
1151.585	1.9	1153639	REC_WORD	28.114	n/a	LEMON	Fruit	4	6	[0, 0, 0]	n/a	catFR1	0	R1328E
1153.485	0.0	1155539	TRIAL_END	n/a	n/a	n/a	n/a	-999	6	[0, 0, 0]	n/a	catFR1	0	R1328E
1153.485	0.026	1155539	REC_END	n/a	n/a	n/a	n/a	-999	6	[0, 0, 0]	n/a	catFR1	0	R1328E
1153.511	0.0	1155565	TRIAL	n/a	n/a	n/a	n/a	-999	7	[0, 0, 0]	n/a	catFR1	0	R1328E
1153.511	0.001	1155565	TRIAL_START	n/a	n/a	n/a	n/a	-999	7	[0, 0, 0]	n/a	catFR1	0	R1328E
1153.512	5.949	1155566	WAITING_START	n/a	n/a	n/a	n/a	-999	7	[0, 0, 0]	n/a	catFR1	0	R1328E
1159.461	0.0	1161515	WAITING_END	n/a	n/a	n/a	n/a	-999	7	[0, 0, 0]	n/a	catFR1	0	R1328E
1159.461	10.428	1161515	COUNTDOWN_START	n/a	n/a	n/a	n/a	-999	7	[0, 0, 0]	n/a	catFR1	0	R1328E
1169.889	0.001	1171943	COUNTDOWN_END	n/a	n/a	n/a	n/a	-999	7	[0, 0, 0]	n/a	catFR1	0	R1328E
1169.89	1.206	1171944	ORIENT_START	n/a	n/a	n/a	n/a	-999	7	[0, 0, 0]	n/a	catFR1	0	R1328E
1171.096	0.001	1173150	ORIENT_END	n/a	n/a	n/a	n/a	-999	7	[0, 0, 0]	n/a	catFR1	0	R1328E
1171.097	0.962	1173151	ENCODING_START	n/a	n/a	n/a	n/a	-999	7	[0, 0, 0]	n/a	catFR1	0	R1328E
1172.059	1.637	1174113	WORD	n/a	wordpools/wordpool_categorized_EN.txt	CARDINAL	Birds	1	7	[0, 0, 0]	n/a	catFR1	0	R1328E
1173.696	0.992	1175750	WORD_OFF	n/a	n/a	CARDINAL	Birds	1	7	[0, 0, 0]	n/a	catFR1	0	R1328E
1174.688	1.609	1176742	WORD	n/a	wordpools/wordpool_categorized_EN.txt	GOOSE	Birds	2	7	[0, 0, 0]	n/a	catFR1	0	R1328E
1176.297	0.893	1178351	WORD_OFF	n/a	n/a	GOOSE	Birds	2	7	[0, 0, 0]	n/a	catFR1	0	R1328E
1177.19	1.623	1179243	WORD	n/a	wordpools/wordpool_categorized_EN.txt	PEAR	Fruit	3	7	[0, 0, 0]	n/a	catFR1	0	R1328E
1178.813	0.853	1180866	WORD_OFF	n/a	n/a	PEAR	Fruit	3	7	[0, 0, 0]	n/a	catFR1	0	R1328E
1179.666	1.632	1181719	WORD	n/a	wordpools/wordpool_categorized_EN.txt	ORANGE	Fruit	4	7	[0, 0, 0]	n/a	catFR1	0	R1328E
1181.298	1.093	1183351	WORD_OFF	n/a	n/a	ORANGE	Fruit	4	7	[0, 0, 0]	n/a	catFR1	0	R1328E
1182.391	1.624	1184444	WORD	n/a	wordpools/wordpool_categorized_EN.txt	ORANGUTAN	Zoo	5	7	[0, 0, 0]	n/a	catFR1	0	R1328E
1184.015	1.042	1186068	WORD_OFF	n/a	n/a	ORANGUTAN	Zoo	5	7	[0, 0, 0]	n/a	catFR1	0	R1328E
1185.057	1.624	1187110	WORD	n/a	wordpools/wordpool_categorized_EN.txt	CHIMPANZEE	Zoo	6	7	[0, 0, 0]	n/a	catFR1	0	R1328E
1186.681	0.824	1188734	WORD_OFF	n/a	n/a	CHIMPANZEE	Zoo	6	7	[0, 0, 0]	n/a	catFR1	0	R1328E
1187.505	1.628	1189558	WORD	n/a	wordpools/wordpool_categorized_EN.txt	LIME	Fruit	7	7	[0, 0, 0]	n/a	catFR1	0	R1328E
1189.133	0.906	1191186	WORD_OFF	n/a	n/a	LIME	Fruit	7	7	[0, 0, 0]	n/a	catFR1	0	R1328E
1190.039	1.627	1192092	WORD	n/a	wordpools/wordpool_categorized_EN.txt	PLUM	Fruit	8	7	[0, 0, 0]	n/a	catFR1	0	R1328E
1191.666	0.983	1193719	WORD_OFF	n/a	n/a	PLUM	Fruit	8	7	[0, 0, 0]	n/a	catFR1	0	R1328E
1192.649	1.635	1194702	WORD	n/a	wordpools/wordpool_categorized_EN.txt	PIGEON	Birds	9	7	[0, 0, 0]	n/a	catFR1	0	R1328E
1194.284	0.91	1196337	WORD_OFF	n/a	n/a	PIGEON	Birds	9	7	[0, 0, 0]	n/a	catFR1	0	R1328E
1195.194	1.622	1197247	WORD	n/a	wordpools/wordpool_categorized_EN.txt	CROW	Birds	10	7	[0, 0, 0]	n/a	catFR1	0	R1328E
1196.816	1.038	1198869	WORD_OFF	n/a	n/a	CROW	Birds	10	7	[0, 0, 0]	n/a	catFR1	0	R1328E
1197.854	1.631	1199907	WORD	n/a	wordpools/wordpool_categorized_EN.txt	ZEBRA	Zoo	11	7	[0, 0, 0]	n/a	catFR1	0	R1328E
1199.485	0.773	1201538	WORD_OFF	n/a	n/a	ZEBRA	Zoo	11	7	[0, 0, 0]	n/a	catFR1	0	R1328E
1200.258	1.627	1202311	WORD	n/a	wordpools/wordpool_categorized_EN.txt	GORILLA	Zoo	12	7	[0, 0, 0]	n/a	catFR1	0	R1328E
1201.885	0.0	1203938	WORD_OFF	n/a	n/a	GORILLA	Zoo	12	7	[0, 0, 0]	n/a	catFR1	0	R1328E
1201.885	0.001	1203938	ENCODING_END	n/a	n/a	n/a	n/a	-999	7	[0, 0, 0]	n/a	catFR1	0	R1328E
1201.886	0.0	1203939	DISTRACT_START	n/a	n/a	n/a	n/a	-999	7	[0, 0, 0]	n/a	catFR1	0	R1328E
1201.886	0.015	1203939	START	n/a	n/a	n/a	n/a	-999	7	[-999, -999, -999]	n/a	catFR1	0	R1328E
1201.901	25.612	1203954	PROB	25.612	n/a	n/a	n/a	-999	7	[2, 9, 9]	20.0	catFR1	0	R1328E
1227.513	0.01	1229565	STOP	n/a	n/a	n/a	n/a	-999	7	[-999, -999, -999]	n/a	catFR1	0	R1328E
1227.523	0.66	1229575	DISTRACT_END	n/a	n/a	n/a	n/a	-999	7	[0, 0, 0]	n/a	catFR1	0	R1328E
1228.183	1.589	1230235	RETRIEVAL_ORIENT_START	n/a	n/a	n/a	n/a	-999	7	[0, 0, 0]	n/a	catFR1	0	R1328E
1229.772	0.001	1231824	RETRIEVAL_ORIENT_END	n/a	n/a	n/a	n/a	-999	7	[0, 0, 0]	n/a	catFR1	0	R1328E
1229.773	0.702	1231825	REC_START	n/a	n/a	n/a	n/a	-999	7	[0, 0, 0]	n/a	catFR1	0	R1328E
1230.475	1.506	1232527	REC_WORD	0.702	n/a	CARDINAL	Birds	1	7	[0, 0, 0]	n/a	catFR1	0	R1328E
1231.981	8.082	1234032	REC_WORD	2.208	n/a	GOOSE	Birds	2	7	[0, 0, 0]	n/a	catFR1	0	R1328E
1240.063	1.0	1242114	REC_WORD	10.29	n/a	CHIMPANZEE	Zoo	6	7	[0, 0, 0]	n/a	catFR1	0	R1328E
1241.063	10.34	1243114	REC_WORD_VV	11.29	n/a	<>	n/a	-999	7	[0, 0, 0]	n/a	catFR1	0	R1328E
1251.403	8.382	1253454	REC_WORD	21.63	n/a	GORILLA	Zoo	12	7	[0, 0, 0]	n/a	catFR1	0	R1328E
1259.785	0.001	1261835	REC_END	n/a	n/a	n/a	n/a	-999	7	[0, 0, 0]	n/a	catFR1	0	R1328E
1259.786	0.025	1261836	TRIAL_END	n/a	n/a	n/a	n/a	-999	7	[0, 0, 0]	n/a	catFR1	0	R1328E
1259.811	0.0	1261861	TRIAL_START	n/a	n/a	n/a	n/a	-999	8	[0, 0, 0]	n/a	catFR1	0	R1328E
1259.811	0.0	1261861	TRIAL	n/a	n/a	n/a	n/a	-999	8	[0, 0, 0]	n/a	catFR1	0	R1328E
1259.811	3.285	1261861	WAITING_START	n/a	n/a	n/a	n/a	-999	8	[0, 0, 0]	n/a	catFR1	0	R1328E
1263.096	0.0	1265146	COUNTDOWN_START	n/a	n/a	n/a	n/a	-999	8	[0, 0, 0]	n/a	catFR1	0	R1328E
1263.096	10.428	1265146	WAITING_END	n/a	n/a	n/a	n/a	-999	8	[0, 0, 0]	n/a	catFR1	0	R1328E
1273.524	0.001	1275574	COUNTDOWN_END	n/a	n/a	n/a	n/a	-999	8	[0, 0, 0]	n/a	catFR1	0	R1328E
1273.525	1.139	1275575	ORIENT_START	n/a	n/a	n/a	n/a	-999	8	[0, 0, 0]	n/a	catFR1	0	R1328E
1274.664	0.001	1276714	ORIENT_END	n/a	n/a	n/a	n/a	-999	8	[0, 0, 0]	n/a	catFR1	0	R1328E
1274.665	1.126	1276715	ENCODING_START	n/a	n/a	n/a	n/a	-999	8	[0, 0, 0]	n/a	catFR1	0	R1328E
1275.791	1.624	1277841	WORD	n/a	wordpools/wordpool_categorized_EN.txt	LILAC	Flowers	1	8	[0, 0, 0]	n/a	catFR1	0	R1328E
1277.415	0.753	1279465	WORD_OFF	n/a	n/a	LILAC	Flowers	1	8	[0, 0, 0]	n/a	catFR1	0	R1328E
1278.168	1.63	1280218	WORD	n/a	wordpools/wordpool_categorized_EN.txt	ORCHID	Flowers	2	8	[0, 0, 0]	n/a	catFR1	0	R1328E
1279.798	1.008	1281848	WORD_OFF	n/a	n/a	ORCHID	Flowers	2	8	[0, 0, 0]	n/a	catFR1	0	R1328E
1280.806	1.626	1282856	WORD	n/a	wordpools/wordpool_categorized_EN.txt	NOTEBOOK	OfficeSupplies	3	8	[0, 0, 0]	n/a	catFR1	0	R1328E
1282.432	0.914	1284482	WORD_OFF	n/a	n/a	NOTEBOOK	OfficeSupplies	3	8	[0, 0, 0]	n/a	catFR1	0	R1328E
1283.346	1.637	1285396	WORD	n/a	wordpools/wordpool_categorized_EN.txt	PENCIL	OfficeSupplies	4	8	[0, 0, 0]	n/a	catFR1	0	R1328E
1284.983	1.011	1287033	WORD_OFF	n/a	n/a	PENCIL	OfficeSupplies	4	8	[0, 0, 0]	n/a	catFR1	0	R1328E
1285.994	1.623	1288043	WORD	n/a	wordpools/wordpool_categorized_EN.txt	WALNUT	Trees	5	8	[0, 0, 0]	n/a	catFR1	0	R1328E
1287.617	0.83	1289666	WORD_OFF	n/a	n/a	WALNUT	Trees	5	8	[0, 0, 0]	n/a	catFR1	0	R1328E
1288.447	1.637	1290496	WORD	n/a	wordpools/wordpool_categorized_EN.txt	HICKORY	Trees	6	8	[0, 0, 0]	n/a	catFR1	0	R1328E
1290.084	0.918	1292133	WORD_OFF	n/a	n/a	HICKORY	Trees	6	8	[0, 0, 0]	n/a	catFR1	0	R1328E
1291.002	1.632	1293051	WORD	n/a	wordpools/wordpool_categorized_EN.txt	MARKER	OfficeSupplies	7	8	[0, 0, 0]	n/a	catFR1	0	R1328E
1292.634	0.785	1294683	WORD_OFF	n/a	n/a	MARKER	OfficeSupplies	7	8	[0, 0, 0]	n/a	catFR1	0	R1328E
1293.419	1.632	1295468	WORD	n/a	wordpools/wordpool_categorized_EN.txt	FOLDER	OfficeSupplies	8	8	[0, 0, 0]	n/a	catFR1	0	R1328E
1295.051	0.923	1297100	WORD_OFF	n/a	n/a	FOLDER	OfficeSupplies	8	8	[0, 0, 0]	n/a	catFR1	0	R1328E
1295.974	1.628	1298023	WORD	n/a	wordpools/wordpool_categorized_EN.txt	SUNFLOWER	Flowers	9	8	[0, 0, 0]	n/a	catFR1	0	R1328E
1297.602	1.109	1299651	WORD_OFF	n/a	n/a	SUNFLOWER	Flowers	9	8	[0, 0, 0]	n/a	catFR1	0	R1328E
1298.711	1.625	1300760	WORD	n/a	wordpools/wordpool_categorized_EN.txt	VIOLET	Flowers	10	8	[0, 0, 0]	n/a	catFR1	0	R1328E
1300.336	1.147	1302385	WORD_OFF	n/a	n/a	VIOLET	Flowers	10	8	[0, 0, 0]	n/a	catFR1	0	R1328E
1301.483	1.636	1303532	WORD	n/a	wordpools/wordpool_categorized_EN.txt	PINE	Trees	11	8	[0, 0, 0]	n/a	catFR1	0	R1328E
1303.119	0.766	1305168	WORD_OFF	n/a	n/a	PINE	Trees	11	8	[0, 0, 0]	n/a	catFR1	0	R1328E
1303.885	1.635	1305934	WORD	n/a	wordpools/wordpool_categorized_EN.txt	EVERGREEN	Trees	12	8	[0, 0, 0]	n/a	catFR1	0	R1328E
1305.52	0.0	1307569	DISTRACT_START	n/a	n/a	n/a	n/a	-999	8	[0, 0, 0]	n/a	catFR1	0	R1328E
1305.52	0.0	1307569	ENCODING_END	n/a	n/a	n/a	n/a	-999	8	[0, 0, 0]	n/a	catFR1	0	R1328E
1305.52	0.001	1307569	WORD_OFF	n/a	n/a	EVERGREEN	Trees	12	8	[0, 0, 0]	n/a	catFR1	0	R1328E
1305.521	0.015	1307570	START	n/a	n/a	n/a	n/a	-999	8	[-999, -999, -999]	n/a	catFR1	0	R1328E
1305.536	29.392	1307585	PROB	29.392	n/a	n/a	n/a	-999	8	[2, 9, 8]	19.0	catFR1	0	R1328E
1334.928	0.014	1336976	STOP	n/a	n/a	n/a	n/a	-999	8	[-999, -999, -999]	n/a	catFR1	0	R1328E
1334.942	0.661	1336990	DISTRACT_END	n/a	n/a	n/a	n/a	-999	8	[0, 0, 0]	n/a	catFR1	0	R1328E
1335.603	1.722	1337651	RETRIEVAL_ORIENT_START	n/a	n/a	n/a	n/a	-999	8	[0, 0, 0]	n/a	catFR1	0	R1328E
1337.325	0.001	1339373	RETRIEVAL_ORIENT_END	n/a	n/a	n/a	n/a	-999	8	[0, 0, 0]	n/a	catFR1	0	R1328E
1337.326	1.701	1339374	REC_START	n/a	n/a	n/a	n/a	-999	8	[0, 0, 0]	n/a	catFR1	0	R1328E
1339.027	1.351	1341075	REC_WORD	1.701	n/a	ORCHID	Flowers	2	8	[0, 0, 0]	n/a	catFR1	0	R1328E
1340.378	17.164	1342426	REC_WORD	3.052	n/a	HICKORY	Trees	6	8	[0, 0, 0]	n/a	catFR1	0	R1328E
1357.542	9.797	1359589	REC_WORD	20.216	n/a	OAK	n/a	-999	8	[0, 0, 0]	n/a	catFR1	0	R1328E
1367.339	0.0	1369386	TRIAL_END	n/a	n/a	n/a	n/a	-999	8	[0, 0, 0]	n/a	catFR1	0	R1328E
1367.339	0.025	1369386	REC_END	n/a	n/a	n/a	n/a	-999	8	[0, 0, 0]	n/a	catFR1	0	R1328E
1367.364	0.0	1369411	TRIAL_START	n/a	n/a	n/a	n/a	-999	9	[0, 0, 0]	n/a	catFR1	0	R1328E
1367.364	0.0	1369411	TRIAL	n/a	n/a	n/a	n/a	-999	9	[0, 0, 0]	n/a	catFR1	0	R1328E
1367.364	2.483	1369411	WAITING_START	n/a	n/a	n/a	n/a	-999	9	[0, 0, 0]	n/a	catFR1	0	R1328E
1369.847	0.0	1371893	WAITING_END	n/a	n/a	n/a	n/a	-999	9	[0, 0, 0]	n/a	catFR1	0	R1328E
1369.847	10.428	1371893	COUNTDOWN_START	n/a	n/a	n/a	n/a	-999	9	[0, 0, 0]	n/a	catFR1	0	R1328E
1380.275	0.001	1382321	COUNTDOWN_END	n/a	n/a	n/a	n/a	-999	9	[0, 0, 0]	n/a	catFR1	0	R1328E
1380.276	1.024	1382322	ORIENT_START	n/a	n/a	n/a	n/a	-999	9	[0, 0, 0]	n/a	catFR1	0	R1328E
1381.3	0.0	1383346	ENCODING_START	n/a	n/a	n/a	n/a	-999	9	[0, 0, 0]	n/a	catFR1	0	R1328E
1381.3	0.781	1383346	ORIENT_END	n/a	n/a	n/a	n/a	-999	9	[0, 0, 0]	n/a	catFR1	0	R1328E
1382.081	1.635	1384127	WORD	n/a	wordpools/wordpool_categorized_EN.txt	BLENDER	Appliances	1	9	[0, 0, 0]	n/a	catFR1	0	R1328E
1383.716	1.15	1385762	WORD_OFF	n/a	n/a	BLENDER	Appliances	1	9	[0, 0, 0]	n/a	catFR1	0	R1328E
1384.866	1.635	1386912	WORD	n/a	wordpools/wordpool_categorized_EN.txt	VACUUM	Appliances	2	9	[0, 0, 0]	n/a	catFR1	0	R1328E
1386.501	0.983	1388547	WORD_OFF	n/a	n/a	VACUUM	Appliances	2	9	[0, 0, 0]	n/a	catFR1	0	R1328E
1387.484	1.634	1389530	WORD	n/a	wordpools/wordpool_categorized_EN.txt	BULL	FarmAnimals	3	9	[0, 0, 0]	n/a	catFR1	0	R1328E
1389.118	0.996	1391164	WORD_OFF	n/a	n/a	BULL	FarmAnimals	3	9	[0, 0, 0]	n/a	catFR1	0	R1328E
1390.114	1.62	1392160	WORD	n/a	wordpools/wordpool_categorized_EN.txt	HEN	FarmAnimals	4	9	[0, 0, 0]	n/a	catFR1	0	R1328E
1391.734	0.937	1393780	WORD_OFF	n/a	n/a	HEN	FarmAnimals	4	9	[0, 0, 0]	n/a	catFR1	0	R1328E
1392.671	1.631	1394717	WORD	n/a	wordpools/wordpool_categorized_EN.txt	BEETLE	Insects	5	9	[0, 0, 0]	n/a	catFR1	0	R1328E
1394.302	0.909	1396348	WORD_OFF	n/a	n/a	BEETLE	Insects	5	9	[0, 0, 0]	n/a	catFR1	0	R1328E
1395.211	1.624	1397257	WORD	n/a	wordpools/wordpool_categorized_EN.txt	GNAT	Insects	6	9	[0, 0, 0]	n/a	catFR1	0	R1328E
1396.835	1.075	1398880	WORD_OFF	n/a	n/a	GNAT	Insects	6	9	[0, 0, 0]	n/a	catFR1	0	R1328E
1397.91	1.626	1399955	WORD	n/a	wordpools/wordpool_categorized_EN.txt	REFRIGERATOR	Appliances	7	9	[0, 0, 0]	n/a	catFR1	0	R1328E
1399.536	0.779	1401581	WORD_OFF	n/a	n/a	REFRIGERATOR	Appliances	7	9	[0, 0, 0]	n/a	catFR1	0	R1328E
1400.315	1.622	1402360	WORD	n/a	wordpools/wordpool_categorized_EN.txt	IRON	Appliances	8	9	[0, 0, 0]	n/a	catFR1	0	R1328E
1401.937	1.137	1403982	WORD_OFF	n/a	n/a	IRON	Appliances	8	9	[0, 0, 0]	n/a	catFR1	0	R1328E
1403.074	1.629	1405119	WORD	n/a	wordpools/wordpool_categorized_EN.txt	SPIDER	Insects	9	9	[0, 0, 0]	n/a	catFR1	0	R1328E
1404.703	0.96	1406748	WORD_OFF	n/a	n/a	SPIDER	Insects	9	9	[0, 0, 0]	n/a	catFR1	0	R1328E
1405.663	1.608	1407708	WORD	n/a	wordpools/wordpool_categorized_EN.txt	ROACH	Insects	10	9	[0, 0, 0]	n/a	catFR1	0	R1328E
1407.271	1.028	1409316	WORD_OFF	n/a	n/a	ROACH	Insects	10	9	[0, 0, 0]	n/a	catFR1	0	R1328E
1408.299	1.622	1410344	WORD	n/a	wordpools/wordpool_categorized_EN.txt	ROOSTER	FarmAnimals	11	9	[0, 0, 0]	n/a	catFR1	0	R1328E
1409.921	0.923	1411966	WORD_OFF	n/a	n/a	ROOSTER	FarmAnimals	11	9	[0, 0, 0]	n/a	catFR1	0	R1328E
1410.844	1.628	1412889	WORD	n/a	wordpools/wordpool_categorized_EN.txt	CALF	FarmAnimals	12	9	[0, 0, 0]	n/a	catFR1	0	R1328E
1412.472	0.0	1414517	WORD_OFF	n/a	n/a	CALF	FarmAnimals	12	9	[0, 0, 0]	n/a	catFR1	0	R1328E
1412.472	0.001	1414517	ENCODING_END	n/a	n/a	n/a	n/a	-999	9	[0, 0, 0]	n/a	catFR1	0	R1328E
1412.473	0.0	1414518	DISTRACT_START	n/a	n/a	n/a	n/a	-999	9	[0, 0, 0]	n/a	catFR1	0	R1328E
1412.473	0.015	1414518	START	n/a	n/a	n/a	n/a	-999	9	[-999, -999, -999]	n/a	catFR1	0	R1328E
1412.488	17.603	1414533	PROB	17.567	n/a	n/a	n/a	-999	9	[5, 7, 4]	16.0	catFR1	0	R1328E
1430.091	13.935	1432135	PROB	13.935	n/a	n/a	n/a	-999	9	[1, 3, 4]	8.0	catFR1	0	R1328E
1444.026	0.018	1446070	STOP	n/a	n/a	n/a	n/a	-999	9	[-999, -999, -999]	n/a	catFR1	0	R1328E
1444.044	0.526	1446088	DISTRACT_END	n/a	n/a	n/a	n/a	-999	9	[0, 0, 0]	n/a	catFR1	0	R1328E
1444.57	1.624	1446614	RETRIEVAL_ORIENT_START	n/a	n/a	n/a	n/a	-999	9	[0, 0, 0]	n/a	catFR1	0	R1328E
1446.194	0.001	1448238	RETRIEVAL_ORIENT_END	n/a	n/a	n/a	n/a	-999	9	[0, 0, 0]	n/a	catFR1	0	R1328E
1446.195	0.238	1448239	REC_START	n/a	n/a	n/a	n/a	-999	9	[0, 0, 0]	n/a	catFR1	0	R1328E
1446.433	1.586	1448477	REC_WORD	0.238	n/a	SPIDER	Insects	9	9	[0, 0, 0]	n/a	catFR1	0	R1328E
1448.019	1.223	1450063	REC_WORD	1.824	n/a	BEETLE	Insects	5	9	[0, 0, 0]	n/a	catFR1	0	R1328E
1449.242	26.967	1451286	REC_WORD	3.047	n/a	GNAT	Insects	6	9	[0, 0, 0]	n/a	catFR1	0	R1328E
1476.209	0.0	1478252	REC_END	n/a	n/a	n/a	n/a	-999	9	[0, 0, 0]	n/a	catFR1	0	R1328E
1476.209	0.025	1478252	TRIAL_END	n/a	n/a	n/a	n/a	-999	9	[0, 0, 0]	n/a	catFR1	0	R1328E
1476.234	0.0	1478277	TRIAL	n/a	n/a	n/a	n/a	-999	10	[0, 0, 0]	n/a	catFR1	0	R1328E
1476.234	0.001	1478277	TRIAL_START	n/a	n/a	n/a	n/a	-999	10	[0, 0, 0]	n/a	catFR1	0	R1328E
1476.235	2.448	1478278	WAITING_START	n/a	n/a	n/a	n/a	-999	10	[0, 0, 0]	n/a	catFR1	0	R1328E
1478.683	0.0	1480725	WAITING_END	n/a	n/a	n/a	n/a	-999	10	[0, 0, 0]	n/a	catFR1	0	R1328E
1478.683	10.428	1480725	COUNTDOWN_START	n/a	n/a	n/a	n/a	-999	10	[0, 0, 0]	n/a	catFR1	0	R1328E
1489.111	0.001	1491153	COUNTDOWN_END	n/a	n/a	n/a	n/a	-999	10	[0, 0, 0]	n/a	catFR1	0	R1328E
1489.112	1.207	1491154	ORIENT_START	n/a	n/a	n/a	n/a	-999	10	[0, 0, 0]	n/a	catFR1	0	R1328E
1490.319	0.0	1492361	ORIENT_END	n/a	n/a	n/a	n/a	-999	10	[0, 0, 0]	n/a	catFR1	0	R1328E
1490.319	1.122	1492361	ENCODING_START	n/a	n/a	n/a	n/a	-999	10	[0, 0, 0]	n/a	catFR1	0	R1328E
1491.441	1.628	1493483	WORD	n/a	wordpools/wordpool_categorized_EN.txt	DRYER	Appliances	1	10	[0, 0, 0]	n/a	catFR1	0	R1328E
1493.069	1.012	1495111	WORD_OFF	n/a	n/a	DRYER	Appliances	1	10	[0, 0, 0]	n/a	catFR1	0	R1328E
1494.081	1.621	1496123	WORD	n/a	wordpools/wordpool_categorized_EN.txt	OVEN	Appliances	2	10	[0, 0, 0]	n/a	catFR1	0	R1328E
1495.702	0.896	1497744	WORD_OFF	n/a	n/a	OVEN	Appliances	2	10	[0, 0, 0]	n/a	catFR1	0	R1328E
1496.598	1.622	1498640	WORD	n/a	wordpools/wordpool_categorized_EN.txt	TRUCK	Vehicles	3	10	[0, 0, 0]	n/a	catFR1	0	R1328E
1498.22	1.006	1500262	WORD_OFF	n/a	n/a	TRUCK	Vehicles	3	10	[0, 0, 0]	n/a	catFR1	0	R1328E
1499.226	1.627	1501268	WORD	n/a	wordpools/wordpool_categorized_EN.txt	PLANE	Vehicles	4	10	[0, 0, 0]	n/a	catFR1	0	R1328E
1500.853	0.755	1502895	WORD_OFF	n/a	n/a	PLANE	Vehicles	4	10	[0, 0, 0]	n/a	catFR1	0	R1328E
1501.608	1.63	1503650	WORD	n/a	wordpools/wordpool_categorized_EN.txt	FOG	Weather	5	10	[0, 0, 0]	n/a	catFR1	0	R1328E
1503.238	0.968	1505280	WORD_OFF	n/a	n/a	FOG	Weather	5	10	[0, 0, 0]	n/a	catFR1	0	R1328E
1504.206	1.631	1506248	WORD	n/a	wordpools/wordpool_categorized_EN.txt	SNOW	Weather	6	10	[0, 0, 0]	n/a	catFR1	0	R1328E
1505.837	1.089	1507878	WORD_OFF	n/a	n/a	SNOW	Weather	6	10	[0, 0, 0]	n/a	catFR1	0	R1328E
1506.926	1.629	1508967	WORD	n/a	wordpools/wordpool_categorized_EN.txt	TOASTER	Appliances	7	10	[0, 0, 0]	n/a	catFR1	0	R1328E
1508.555	0.754	1510596	WORD_OFF	n/a	n/a	TOASTER	Appliances	7	10	[0, 0, 0]	n/a	catFR1	0	R1328E
1509.309	1.63	1511350	WORD	n/a	wordpools/wordpool_categorized_EN.txt	FREEZER	Appliances	8	10	[0, 0, 0]	n/a	catFR1	0	R1328E
1510.939	0.859	1512980	WORD_OFF	n/a	n/a	FREEZER	Appliances	8	10	[0, 0, 0]	n/a	catFR1	0	R1328E
1511.798	1.625	1513839	WORD	n/a	wordpools/wordpool_categorized_EN.txt	HURRICANE	Weather	9	10	[0, 0, 0]	n/a	catFR1	0	R1328E
1513.423	1.135	1515464	WORD_OFF	n/a	n/a	HURRICANE	Weather	9	10	[0, 0, 0]	n/a	catFR1	0	R1328E
1514.558	1.632	1516599	WORD	n/a	wordpools/wordpool_categorized_EN.txt	TORNADO	Weather	10	10	[0, 0, 0]	n/a	catFR1	0	R1328E
1516.19	0.928	1518231	WORD_OFF	n/a	n/a	TORNADO	Weather	10	10	[0, 0, 0]	n/a	catFR1	0	R1328E
1517.118	1.622	1519159	WORD	n/a	wordpools/wordpool_categorized_EN.txt	SCOOTER	Vehicles	11	10	[0, 0, 0]	n/a	catFR1	0	R1328E
1518.74	0.925	1520781	WORD_OFF	n/a	n/a	SCOOTER	Vehicles	11	10	[0, 0, 0]	n/a	catFR1	0	R1328E
1519.665	1.626	1521706	WORD	n/a	wordpools/wordpool_categorized_EN.txt	JEEP	Vehicles	12	10	[0, 0, 0]	n/a	catFR1	0	R1328E
1521.291	0.0	1523332	WORD_OFF	n/a	n/a	JEEP	Vehicles	12	10	[0, 0, 0]	n/a	catFR1	0	R1328E
1521.291	0.001	1523332	ENCODING_END	n/a	n/a	n/a	n/a	-999	10	[0, 0, 0]	n/a	catFR1	0	R1328E
1521.292	0.0	1523333	DISTRACT_START	n/a	n/a	n/a	n/a	-999	10	[0, 0, 0]	n/a	catFR1	0	R1328E
1521.292	0.015	1523333	START	n/a	n/a	n/a	n/a	-999	10	[-999, -999, -999]	n/a	catFR1	0	R1328E
1521.307	5.951	1523348	PROB	5.914	n/a	n/a	n/a	-999	10	[1, 2, 4]	7.0	catFR1	0	R1328E
1527.258	38.511	1529299	PROB	38.511	n/a	n/a	n/a	-999	10	[1, 1, 7]	9.0	catFR1	0	R1328E
1565.769	0.012	1567808	STOP	n/a	n/a	n/a	n/a	-999	10	[-999, -999, -999]	n/a	catFR1	0	R1328E
1565.781	0.687	1567820	DISTRACT_END	n/a	n/a	n/a	n/a	-999	10	[0, 0, 0]	n/a	catFR1	0	R1328E
1566.468	1.698	1568507	RETRIEVAL_ORIENT_START	n/a	n/a	n/a	n/a	-999	10	[0, 0, 0]	n/a	catFR1	0	R1328E
1568.166	0.0	1570205	RETRIEVAL_ORIENT_END	n/a	n/a	n/a	n/a	-999	10	[0, 0, 0]	n/a	catFR1	0	R1328E
1568.166	1.421	1570205	REC_START	n/a	n/a	n/a	n/a	-999	10	[0, 0, 0]	n/a	catFR1	0	R1328E
1569.587	1.419	1571626	REC_WORD	1.421	n/a	JAR	n/a	-999	10	[0, 0, 0]	n/a	catFR1	0	R1328E
1571.006	1.413	1573045	REC_WORD	2.84	n/a	OVEN	Appliances	2	10	[0, 0, 0]	n/a	catFR1	0	R1328E
1572.419	25.76	1574458	REC_WORD	4.253	n/a	FREEZER	Appliances	8	10	[0, 0, 0]	n/a	catFR1	0	R1328E
1598.179	0.0	1600217	REC_END	n/a	n/a	n/a	n/a	-999	10	[0, 0, 0]	n/a	catFR1	0	R1328E
1598.179	0.025	1600217	TRIAL_END	n/a	n/a	n/a	n/a	-999	10	[0, 0, 0]	n/a	catFR1	0	R1328E
1598.204	0.001	1600242	TRIAL_START	n/a	n/a	n/a	n/a	-999	11	[0, 0, 0]	n/a	catFR1	0	R1328E
1598.205	0.0	1600243	TRIAL	n/a	n/a	n/a	n/a	-999	11	[0, 0, 0]	n/a	catFR1	0	R1328E
1598.205	3.566	1600243	WAITING_START	n/a	n/a	n/a	n/a	-999	11	[0, 0, 0]	n/a	catFR1	0	R1328E
1601.771	0.0	1603809	WAITING_END	n/a	n/a	n/a	n/a	-999	11	[0, 0, 0]	n/a	catFR1	0	R1328E
1601.771	10.429	1603809	COUNTDOWN_START	n/a	n/a	n/a	n/a	-999	11	[0, 0, 0]	n/a	catFR1	0	R1328E
1612.2	0.0	1614238	ORIENT_START	n/a	n/a	n/a	n/a	-999	11	[0, 0, 0]	n/a	catFR1	0	R1328E
1612.2	1.107	1614238	COUNTDOWN_END	n/a	n/a	n/a	n/a	-999	11	[0, 0, 0]	n/a	catFR1	0	R1328E
1613.307	0.0	1615345	ORIENT_END	n/a	n/a	n/a	n/a	-999	11	[0, 0, 0]	n/a	catFR1	0	R1328E
1613.307	0.789	1615345	ENCODING_START	n/a	n/a	n/a	n/a	-999	11	[0, 0, 0]	n/a	catFR1	0	R1328E
1614.096	1.627	1616134	WORD	n/a	wordpools/wordpool_categorized_EN.txt	PLIERS	Tools	1	11	[0, 0, 0]	n/a	catFR1	0	R1328E
1615.723	0.787	1617760	WORD_OFF	n/a	n/a	PLIERS	Tools	1	11	[0, 0, 0]	n/a	catFR1	0	R1328E
1616.51	1.631	1618547	WORD	n/a	wordpools/wordpool_categorized_EN.txt	CROWBAR	Tools	2	11	[0, 0, 0]	n/a	catFR1	0	R1328E
1618.141	1.007	1620178	WORD_OFF	n/a	n/a	CROWBAR	Tools	2	11	[0, 0, 0]	n/a	catFR1	0	R1328E
1619.148	1.626	1621185	WORD	n/a	wordpools/wordpool_categorized_EN.txt	CARROT	Vegetables	3	11	[0, 0, 0]	n/a	catFR1	0	R1328E
1620.774	0.834	1622811	WORD_OFF	n/a	n/a	CARROT	Vegetables	3	11	[0, 0, 0]	n/a	catFR1	0	R1328E
1621.608	1.634	1623645	WORD	n/a	wordpools/wordpool_categorized_EN.txt	CELERY	Vegetables	4	11	[0, 0, 0]	n/a	catFR1	0	R1328E
1623.242	0.942	1625279	WORD_OFF	n/a	n/a	CELERY	Vegetables	4	11	[0, 0, 0]	n/a	catFR1	0	R1328E
1624.184	1.624	1626221	WORD	n/a	wordpools/wordpool_categorized_EN.txt	MOPED	Vehicles	5	11	[0, 0, 0]	n/a	catFR1	0	R1328E
1625.808	1.009	1627845	WORD_OFF	n/a	n/a	MOPED	Vehicles	5	11	[0, 0, 0]	n/a	catFR1	0	R1328E
1626.817	1.626	1628854	WORD	n/a	wordpools/wordpool_categorized_EN.txt	MOTORCYCLE	Vehicles	6	11	[0, 0, 0]	n/a	catFR1	0	R1328E
1628.443	1.051	1630480	WORD_OFF	n/a	n/a	MOTORCYCLE	Vehicles	6	11	[0, 0, 0]	n/a	catFR1	0	R1328E
1629.494	1.633	1631531	WORD	n/a	wordpools/wordpool_categorized_EN.txt	SANDER	Tools	7	11	[0, 0, 0]	n/a	catFR1	0	R1328E
1631.127	1.047	1633164	WORD_OFF	n/a	n/a	SANDER	Tools	7	11	[0, 0, 0]	n/a	catFR1	0	R1328E
1632.174	1.636	1634211	WORD	n/a	wordpools/wordpool_categorized_EN.txt	WRENCH	Tools	8	11	[0, 0, 0]	n/a	catFR1	0	R1328E
1633.81	0.795	1635847	WORD_OFF	n/a	n/a	WRENCH	Tools	8	11	[0, 0, 0]	n/a	catFR1	0	R1328E
1634.605	1.623	1636642	WORD	n/a	wordpools/wordpool_categorized_EN.txt	BIKE	Vehicles	9	11	[0, 0, 0]	n/a	catFR1	0	R1328E
1636.228	0.958	1638265	WORD_OFF	n/a	n/a	BIKE	Vehicles	9	11	[0, 0, 0]	n/a	catFR1	0	R1328E
1637.186	1.625	1639223	WORD	n/a	wordpools/wordpool_categorized_EN.txt	BUS	Vehicles	10	11	[0, 0, 0]	n/a	catFR1	0	R1328E
1638.811	0.975	1640848	WORD_OFF	n/a	n/a	BUS	Vehicles	10	11	[0, 0, 0]	n/a	catFR1	0	R1328E
1639.786	1.61	1641823	WORD	n/a	wordpools/wordpool_categorized_EN.txt	CABBAGE	Vegetables	11	11	[0, 0, 0]	n/a	catFR1	0	R1328E
1641.396	0.905	1643433	WORD_OFF	n/a	n/a	CABBAGE	Vegetables	11	11	[0, 0, 0]	n/a	catFR1	0	R1328E
1642.301	1.628	1644337	WORD	n/a	wordpools/wordpool_categorized_EN.txt	SPINACH	Vegetables	12	11	[0, 0, 0]	n/a	catFR1	0	R1328E
1643.929	0.001	1645965	WORD_OFF	n/a	n/a	SPINACH	Vegetables	12	11	[0, 0, 0]	n/a	catFR1	0	R1328E
1643.93	0.0	1645966	DISTRACT_START	n/a	n/a	n/a	n/a	-999	11	[0, 0, 0]	n/a	catFR1	0	R1328E
1643.93	0.0	1645966	ENCODING_END	n/a	n/a	n/a	n/a	-999	11	[0, 0, 0]	n/a	catFR1	0	R1328E
1643.93	0.016	1645966	START	n/a	n/a	n/a	n/a	-999	11	[-999, -999, -999]	n/a	catFR1	0	R1328E
1643.946	9.318	1645982	PROB	9.293	n/a	n/a	n/a	-999	11	[5, 1, 4]	10.0	catFR1	0	R1328E
1653.264	31.746	1655300	PROB	31.746	n/a	n/a	n/a	-999	11	[8, 1, 3]	12.0	catFR1	0	R1328E
1685.01	0.01	1687045	STOP	n/a	n/a	n/a	n/a	-999	11	[-999, -999, -999]	n/a	catFR1	0	R1328E
1685.02	0.556	1687055	DISTRACT_END	n/a	n/a	n/a	n/a	-999	11	[0, 0, 0]	n/a	catFR1	0	R1328E
1685.576	1.711	1687611	RETRIEVAL_ORIENT_START	n/a	n/a	n/a	n/a	-999	11	[0, 0, 0]	n/a	catFR1	0	R1328E
1687.287	0.0	1689322	RETRIEVAL_ORIENT_END	n/a	n/a	n/a	n/a	-999	11	[0, 0, 0]	n/a	catFR1	0	R1328E
1687.287	0.812	1689322	REC_START	n/a	n/a	n/a	n/a	-999	11	[0, 0, 0]	n/a	catFR1	0	R1328E
1688.099	1.206	1690134	REC_WORD	0.812	n/a	PLIERS	Tools	1	11	[0, 0, 0]	n/a	catFR1	0	R1328E
1689.305	1.026	1691340	REC_WORD	2.018	n/a	WRENCH	Tools	8	11	[0, 0, 0]	n/a	catFR1	0	R1328E
1690.331	12.143	1692366	REC_WORD	3.044	n/a	SANDER	Tools	7	11	[0, 0, 0]	n/a	catFR1	0	R1328E
1702.474	1.962	1704508	REC_WORD	15.187	n/a	CARROT	Vegetables	3	11	[0, 0, 0]	n/a	catFR1	0	R1328E
1704.436	3.625	1706470	REC_WORD	17.149	n/a	CELERY	Vegetables	4	11	[0, 0, 0]	n/a	catFR1	0	R1328E
1708.061	9.239	1710095	REC_WORD	20.774	n/a	SPINACH	Vegetables	12	11	[0, 0, 0]	n/a	catFR1	0	R1328E
1717.3	0.0	1719334	REC_END	n/a	n/a	n/a	n/a	-999	11	[0, 0, 0]	n/a	catFR1	0	R1328E
1717.3	0.025	1719334	TRIAL_END	n/a	n/a	n/a	n/a	-999	11	[0, 0, 0]	n/a	catFR1	0	R1328E
1717.325	0.001	1719359	TRIAL_START	n/a	n/a	n/a	n/a	-999	12	[0, 0, 0]	n/a	catFR1	0	R1328E
1717.326	0.0	1719360	TRIAL	n/a	n/a	n/a	n/a	-999	12	[0, 0, 0]	n/a	catFR1	0	R1328E
1717.326	4.399	1719360	WAITING_START	n/a	n/a	n/a	n/a	-999	12	[0, 0, 0]	n/a	catFR1	0	R1328E
1721.725	0.001	1723759	WAITING_END	n/a	n/a	n/a	n/a	-999	12	[0, 0, 0]	n/a	catFR1	0	R1328E
1721.726	10.429	1723760	COUNTDOWN_START	n/a	n/a	n/a	n/a	-999	12	[0, 0, 0]	n/a	catFR1	0	R1328E
1732.155	0.0	1734188	ORIENT_START	n/a	n/a	n/a	n/a	-999	12	[0, 0, 0]	n/a	catFR1	0	R1328E
1732.155	1.057	1734188	COUNTDOWN_END	n/a	n/a	n/a	n/a	-999	12	[0, 0, 0]	n/a	catFR1	0	R1328E
1733.212	0.0	1735245	ORIENT_END	n/a	n/a	n/a	n/a	-999	12	[0, 0, 0]	n/a	catFR1	0	R1328E
1733.212	0.9	1735245	ENCODING_START	n/a	n/a	n/a	n/a	-999	12	[0, 0, 0]	n/a	catFR1	0	R1328E
1734.112	1.632	1736145	WORD	n/a	wordpools/wordpool_categorized_EN.txt	SODA	Beverages	1	12	[0, 0, 0]	n/a	catFR1	0	R1328E
1735.744	0.764	1737777	WORD_OFF	n/a	n/a	SODA	Beverages	1	12	[0, 0, 0]	n/a	catFR1	0	R1328E
1736.508	1.621	1738541	WORD	n/a	wordpools/wordpool_categorized_EN.txt	RUM	Beverages	2	12	[0, 0, 0]	n/a	catFR1	0	R1328E
1738.129	0.915	1740162	WORD_OFF	n/a	n/a	RUM	Beverages	2	12	[0, 0, 0]	n/a	catFR1	0	R1328E
1739.044	1.634	1741077	WORD	n/a	wordpools/wordpool_categorized_EN.txt	DAFFODIL	Flowers	3	12	[0, 0, 0]	n/a	catFR1	0	R1328E
1740.678	1.054	1742711	WORD_OFF	n/a	n/a	DAFFODIL	Flowers	3	12	[0, 0, 0]	n/a	catFR1	0	R1328E
1741.732	1.631	1743765	WORD	n/a	wordpools/wordpool_categorized_EN.txt	DAISY	Flowers	4	12	[0, 0, 0]	n/a	catFR1	0	R1328E
1743.363	0.866	1745396	WORD_OFF	n/a	n/a	DAISY	Flowers	4	12	[0, 0, 0]	n/a	catFR1	0	R1328E
1744.229	1.634	1746262	WORD	n/a	wordpools/wordpool_categorized_EN.txt	BARBIE	Toys	5	12	[0, 0, 0]	n/a	catFR1	0	R1328E
1745.863	0.9	1747896	WORD_OFF	n/a	n/a	BARBIE	Toys	5	12	[0, 0, 0]	n/a	catFR1	0	R1328E
1746.763	1.618	1748796	WORD	n/a	wordpools/wordpool_categorized_EN.txt	BLOCKS	Toys	6	12	[0, 0, 0]	n/a	catFR1	0	R1328E
1748.381	0.888	1750414	WORD_OFF	n/a	n/a	BLOCKS	Toys	6	12	[0, 0, 0]	n/a	catFR1	0	R1328E
1749.269	1.629	1751302	WORD	n/a	wordpools/wordpool_categorized_EN.txt	CIDER	Beverages	7	12	[0, 0, 0]	n/a	catFR1	0	R1328E
1750.898	0.92	1752930	WORD_OFF	n/a	n/a	CIDER	Beverages	7	12	[0, 0, 0]	n/a	catFR1	0	R1328E
1751.818	1.614	1753850	WORD	n/a	wordpools/wordpool_categorized_EN.txt	WINE	Beverages	8	12	[0, 0, 0]	n/a	catFR1	0	R1328E
1753.432	0.901	1755464	WORD_OFF	n/a	n/a	WINE	Beverages	8	12	[0, 0, 0]	n/a	catFR1	0	R1328E
1754.333	1.632	1756365	WORD	n/a	wordpools/wordpool_categorized_EN.txt	BALL	Toys	9	12	[0, 0, 0]	n/a	catFR1	0	R1328E
1755.965	1.101	1757997	WORD_OFF	n/a	n/a	BALL	Toys	9	12	[0, 0, 0]	n/a	catFR1	0	R1328E
1757.066	1.632	1759098	WORD	n/a	wordpools/wordpool_categorized_EN.txt	DOLL	Toys	10	12	[0, 0, 0]	n/a	catFR1	0	R1328E
1758.698	0.853	1760730	WORD_OFF	n/a	n/a	DOLL	Toys	10	12	[0, 0, 0]	n/a	catFR1	0	R1328E
1759.551	1.632	1761583	WORD	n/a	wordpools/wordpool_categorized_EN.txt	PETUNIA	Flowers	11	12	[0, 0, 0]	n/a	catFR1	0	R1328E
1761.183	0.897	1763215	WORD_OFF	n/a	n/a	PETUNIA	Flowers	11	12	[0, 0, 0]	n/a	catFR1	0	R1328E
1762.08	1.636	1764112	WORD	n/a	wordpools/wordpool_categorized_EN.txt	TULIP	Flowers	12	12	[0, 0, 0]	n/a	catFR1	0	R1328E
1763.716	0.0	1765748	WORD_OFF	n/a	n/a	TULIP	Flowers	12	12	[0, 0, 0]	n/a	catFR1	0	R1328E
1763.716	0.0	1765748	ENCODING_END	n/a	n/a	n/a	n/a	-999	12	[0, 0, 0]	n/a	catFR1	0	R1328E
1763.716	0.001	1765748	DISTRACT_START	n/a	n/a	n/a	n/a	-999	12	[0, 0, 0]	n/a	catFR1	0	R1328E
1763.717	0.015	1765749	START	n/a	n/a	n/a	n/a	-999	12	[-999, -999, -999]	n/a	catFR1	0	R1328E
1763.732	26.633	1765764	PROB	26.633	n/a	n/a	n/a	-999	12	[4, 2, 2]	8.0	catFR1	0	R1328E
1790.365	0.006	1792396	STOP	n/a	n/a	n/a	n/a	-999	12	[-999, -999, -999]	n/a	catFR1	0	R1328E
1790.371	0.682	1792402	DISTRACT_END	n/a	n/a	n/a	n/a	-999	12	[0, 0, 0]	n/a	catFR1	0	R1328E
1791.053	1.701	1793084	RETRIEVAL_ORIENT_START	n/a	n/a	n/a	n/a	-999	12	[0, 0, 0]	n/a	catFR1	0	R1328E
1792.754	0.001	1794785	RETRIEVAL_ORIENT_END	n/a	n/a	n/a	n/a	-999	12	[0, 0, 0]	n/a	catFR1	0	R1328E
1792.755	0.004	1794786	REC_START	n/a	n/a	n/a	n/a	-999	12	[0, 0, 0]	n/a	catFR1	0	R1328E
1792.759	0.996	1794790	REC_WORD	0.004	n/a	SUNFLOWER	Flowers	-999	12	[0, 0, 0]	n/a	catFR1	0	R1328E
1793.755	0.96	1795786	REC_WORD_VV	1.0	n/a	<>	n/a	-999	12	[0, 0, 0]	n/a	catFR1	0	R1328E
1794.715	1.206	1796746	REC_WORD	1.96	n/a	DAFFODIL	Flowers	3	12	[0, 0, 0]	n/a	catFR1	0	R1328E
1795.921	8.787	1797952	REC_WORD	3.166	n/a	TULIP	Flowers	12	12	[0, 0, 0]	n/a	catFR1	0	R1328E
1804.708	18.059	1806739	REC_WORD_VV	11.953	n/a	<>	n/a	-999	12	[0, 0, 0]	n/a	catFR1	0	R1328E
1822.767	0.0	1824797	TRIAL_END	n/a	n/a	n/a	n/a	-999	12	[0, 0, 0]	n/a	catFR1	0	R1328E
1822.767	0.026	1824797	REC_END	n/a	n/a	n/a	n/a	-999	12	[0, 0, 0]	n/a	catFR1	0	R1328E
1822.793	0.0	1824823	TRIAL_START	n/a	n/a	n/a	n/a	-999	13	[0, 0, 0]	n/a	catFR1	0	R1328E
1822.793	0.0	1824823	TRIAL	n/a	n/a	n/a	n/a	-999	13	[0, 0, 0]	n/a	catFR1	0	R1328E
1822.793	1.984	1824823	WAITING_START	n/a	n/a	n/a	n/a	-999	13	[0, 0, 0]	n/a	catFR1	0	R1328E
1824.777	0.0	1826807	WAITING_END	n/a	n/a	n/a	n/a	-999	13	[0, 0, 0]	n/a	catFR1	0	R1328E
1824.777	10.429	1826807	COUNTDOWN_START	n/a	n/a	n/a	n/a	-999	13	[0, 0, 0]	n/a	catFR1	0	R1328E
1835.206	0.0	1837235	COUNTDOWN_END	n/a	n/a	n/a	n/a	-999	13	[0, 0, 0]	n/a	catFR1	0	R1328E
1835.206	72681.33	1837235	ORIENT_START	n/a	n/a	n/a	n/a	-999	13	[0, 0, 0]	n/a	catFR1	0	R1328E
74516.536	16.284	74515908	INSTRUCT_START	n/a	n/a	n/a	n/a	-999	13	[0, 0, 0]	n/a	catFR1	0	R1328E
74532.82	0.0	74532192	INSTRUCT_END	n/a	n/a	n/a	n/a	-999	13	[0, 0, 0]	n/a	catFR1	0	R1328E
