onset	duration	sample	trial_type	response_time	stim_file	item_name	category	serialpos	list	test	answer	experiment	session	subject
0.0	3.165	1680	INSTRUCT_START	n/a	n/a	n/a	n/a	-999	-999	[0, 0, 0]	n/a	catFR1	3	R1488T
3.165	23.133	4941	INSTRUCT_END	n/a	n/a	n/a	n/a	-999	-999	[0, 0, 0]	n/a	catFR1	3	R1488T
26.298	10.0	28078	COUNTDOWN_START	n/a	n/a	n/a	n/a	-999	-999	[0, 0, 0]	n/a	catFR1	3	R1488T
36.648	0.0	38423	COUNTDOWN_END	n/a	n/a	n/a	n/a	-999	-999	[0, 0, 0]	n/a	catFR1	3	R1488T
36.648	2.367	38432	ENCODING_START	n/a	n/a	n/a	n/a	-999	-1	[0, 0, 0]	n/a	catFR1	3	R1488T
39.015	1.6	40794	WORD	n/a	n/a	VIOLIN	Instruments	1	-1	[0, 0, 0]	n/a	catFR1	3	R1488T
40.631	0.767	42410	WORD_OFF	n/a	n/a	VIOLIN	Instruments	1	-1	[0, 0, 0]	n/a	catFR1	3	R1488T
41.398	1.6	43175	WORD	n/a	n/a	TUBA	Instruments	2	-1	[0, 0, 0]	n/a	catFR1	3	R1488T
43.015	0.966	44791	WORD_OFF	n/a	n/a	TUBA	Instruments	2	-1	[0, 0, 0]	n/a	catFR1	3	R1488T
43.981	1.6	45754	WORD	n/a	n/a	THUNDER	Weather	3	-1	[0, 0, 0]	n/a	catFR1	3	R1488T
45.582	0.799	47360	WORD_OFF	n/a	n/a	THUNDER	Weather	3	-1	[0, 0, 0]	n/a	catFR1	3	R1488T
46.381	1.6	48163	WORD	n/a	n/a	HURRICANE	Weather	4	-1	[0, 0, 0]	n/a	catFR1	3	R1488T
47.998	0.866	49779	WORD_OFF	n/a	n/a	HURRICANE	Weather	4	-1	[0, 0, 0]	n/a	catFR1	3	R1488T
48.864	1.6	50639	WORD	n/a	n/a	PEELER	KitchenTools	5	-1	[0, 0, 0]	n/a	catFR1	3	R1488T
50.465	0.933	52245	WORD_OFF	n/a	n/a	PEELER	KitchenTools	5	-1	[0, 0, 0]	n/a	catFR1	3	R1488T
51.398	1.6	53180	WORD	n/a	n/a	FORK	KitchenTools	6	-1	[0, 0, 0]	n/a	catFR1	3	R1488T
53.014	0.8	54796	WORD_OFF	n/a	n/a	FORK	KitchenTools	6	-1	[0, 0, 0]	n/a	catFR1	3	R1488T
53.814	1.6	55589	WORD	n/a	n/a	DRIZZLE	Weather	7	-1	[0, 0, 0]	n/a	catFR1	3	R1488T
55.415	0.766	57195	WORD_OFF	n/a	n/a	DRIZZLE	Weather	7	-1	[0, 0, 0]	n/a	catFR1	3	R1488T
56.181	1.6	57961	WORD	n/a	n/a	WIND	Weather	8	-1	[0, 0, 0]	n/a	catFR1	3	R1488T
57.798	0.85	59576	WORD_OFF	n/a	n/a	WIND	Weather	8	-1	[0, 0, 0]	n/a	catFR1	3	R1488T
58.648	1.6	60426	WORD	n/a	n/a	SPATULA	KitchenTools	9	-1	[0, 0, 0]	n/a	catFR1	3	R1488T
60.248	0.782	62023	WORD_OFF	n/a	n/a	SPATULA	KitchenTools	9	-1	[0, 0, 0]	n/a	catFR1	3	R1488T
61.03	1.6	62807	WORD	n/a	n/a	COLANDER	KitchenTools	10	-1	[0, 0, 0]	n/a	catFR1	3	R1488T
62.648	0.95	64423	WORD_OFF	n/a	n/a	COLANDER	KitchenTools	10	-1	[0, 0, 0]	n/a	catFR1	3	R1488T
63.598	1.6	65377	WORD	n/a	n/a	BANJO	Instruments	11	-1	[0, 0, 0]	n/a	catFR1	3	R1488T
65.215	0.85	66993	WORD_OFF	n/a	n/a	BANJO	Instruments	11	-1	[0, 0, 0]	n/a	catFR1	3	R1488T
66.065	1.6	67843	WORD	n/a	n/a	CELLO	Instruments	12	-1	[0, 0, 0]	n/a	catFR1	3	R1488T
67.665	0.001	69439	WORD_OFF	n/a	n/a	CELLO	Instruments	12	-1	[0, 0, 0]	n/a	catFR1	3	R1488T
67.666	0.0	69439	ENCODING_END	n/a	n/a	n/a	n/a	-999	-1	[0, 0, 0]	n/a	catFR1	3	R1488T
67.666	0.0	69445	START	n/a	n/a	n/a	n/a	-999	-1	[-999, -999, -999]	n/a	catFR1	3	R1488T
67.666	0.0	69445	PROB	8.066	n/a	n/a	n/a	-999	-1	[2, 7, 3]	12.0	catFR1	3	R1488T
67.666	8.083	69449	DISTRACT_START	n/a	n/a	n/a	n/a	-999	-1	[0, 0, 0]	n/a	catFR1	3	R1488T
75.749	5.983	77527	PROB	5.966	n/a	n/a	n/a	-999	-1	[1, 5, 2]	8.0	catFR1	3	R1488T
81.732	9.482	83510	PROB	9.466	n/a	n/a	n/a	-999	-1	[6, 8, 5]	19.0	catFR1	3	R1488T
91.214	0.0	92992	DISTRACT_END	n/a	n/a	n/a	n/a	-999	-1	[0, 0, 0]	n/a	catFR1	3	R1488T
91.214	2.384	92992	STOP	n/a	n/a	n/a	n/a	-999	-1	[-999, -999, -999]	n/a	catFR1	3	R1488T
93.598	3.08	95372	REC_START	n/a	n/a	n/a	n/a	-999	-1	[0, 0, 0]	n/a	catFR1	3	R1488T
96.678	1.37	98455	REC_WORD	3.08	n/a	CELLO	Instruments	12	-1	[0, 0, 0]	n/a	catFR1	3	R1488T
98.048	1.7	99825	REC_WORD	4.45	n/a	TROMBONE	n/a	-999	-1	[0, 0, 0]	n/a	catFR1	3	R1488T
99.748	1.42	101525	REC_WORD	6.15	n/a	TUBA	Instruments	2	-1	[0, 0, 0]	n/a	catFR1	3	R1488T
101.168	20.767	102945	REC_WORD	7.57	n/a	FLUTE	n/a	-999	-1	[0, 0, 0]	n/a	catFR1	3	R1488T
121.935	1.0	123711	REC_WORD	28.337	n/a	FORK	KitchenTools	6	-1	[0, 0, 0]	n/a	catFR1	3	R1488T
122.935	0.877	124711	REC_WORD	29.337	n/a	FORK	KitchenTools	6	-1	[0, 0, 0]	n/a	catFR1	3	R1488T
123.812	10.403	125587	REC_END	n/a	n/a	n/a	n/a	-999	-1	[0, 0, 0]	n/a	catFR1	3	R1488T
134.215	10.0	135988	COUNTDOWN_START	n/a	n/a	n/a	n/a	-999	1	[0, 0, 0]	n/a	catFR1	3	R1488T
144.564	0.0	146334	COUNTDOWN_END	n/a	n/a	n/a	n/a	-999	1	[0, 0, 0]	n/a	catFR1	3	R1488T
144.564	2.051	146334	ENCODING_START	n/a	n/a	n/a	n/a	-999	1	[0, 0, 0]	n/a	catFR1	3	R1488T
146.615	1.6	148384	WORD	n/a	wordpools/wordpool_categorized_EN.txt	CROW	Birds	1	1	[0, 0, 0]	n/a	catFR1	3	R1488T
148.231	0.951	149999	WORD_OFF	n/a	n/a	CROW	Birds	1	1	[0, 0, 0]	n/a	catFR1	3	R1488T
149.182	1.6	150953	WORD	n/a	wordpools/wordpool_categorized_EN.txt	ROBIN	Birds	2	1	[0, 0, 0]	n/a	catFR1	3	R1488T
150.798	0.967	152569	WORD_OFF	n/a	n/a	ROBIN	Birds	2	1	[0, 0, 0]	n/a	catFR1	3	R1488T
151.765	1.6	153533	WORD	n/a	wordpools/wordpool_categorized_EN.txt	SCOOTER	Vehicles	3	1	[0, 0, 0]	n/a	catFR1	3	R1488T
153.365	0.766	155139	WORD_OFF	n/a	n/a	SCOOTER	Vehicles	3	1	[0, 0, 0]	n/a	catFR1	3	R1488T
154.131	1.6	155904	WORD	n/a	wordpools/wordpool_categorized_EN.txt	BUS	Vehicles	4	1	[0, 0, 0]	n/a	catFR1	3	R1488T
155.731	0.984	157501	WORD_OFF	n/a	n/a	BUS	Vehicles	4	1	[0, 0, 0]	n/a	catFR1	3	R1488T
156.715	1.6	158483	WORD	n/a	wordpools/wordpool_categorized_EN.txt	BLUEBERRY	Fruit	5	1	[0, 0, 0]	n/a	catFR1	3	R1488T
158.315	0.833	160089	WORD_OFF	n/a	n/a	BLUEBERRY	Fruit	5	1	[0, 0, 0]	n/a	catFR1	3	R1488T
159.148	1.6	160921	WORD	n/a	wordpools/wordpool_categorized_EN.txt	LIME	Fruit	6	1	[0, 0, 0]	n/a	catFR1	3	R1488T
160.748	0.9	162517	WORD_OFF	n/a	n/a	LIME	Fruit	6	1	[0, 0, 0]	n/a	catFR1	3	R1488T
161.648	1.6	163415	WORD	n/a	wordpools/wordpool_categorized_EN.txt	PIGEON	Birds	7	1	[0, 0, 0]	n/a	catFR1	3	R1488T
163.265	0.85	165040	WORD_OFF	n/a	n/a	PIGEON	Birds	7	1	[0, 0, 0]	n/a	catFR1	3	R1488T
164.115	1.6	165890	WORD	n/a	wordpools/wordpool_categorized_EN.txt	DOVE	Birds	8	1	[0, 0, 0]	n/a	catFR1	3	R1488T
165.73	0.902	167506	WORD_OFF	n/a	n/a	DOVE	Birds	8	1	[0, 0, 0]	n/a	catFR1	3	R1488T
166.632	1.6	168403	WORD	n/a	wordpools/wordpool_categorized_EN.txt	BANANA	Fruit	9	1	[0, 0, 0]	n/a	catFR1	3	R1488T
168.248	0.8	170019	WORD_OFF	n/a	n/a	BANANA	Fruit	9	1	[0, 0, 0]	n/a	catFR1	3	R1488T
169.048	1.6	170822	WORD	n/a	wordpools/wordpool_categorized_EN.txt	LEMON	Fruit	10	1	[0, 0, 0]	n/a	catFR1	3	R1488T
170.648	0.917	172418	WORD_OFF	n/a	n/a	LEMON	Fruit	10	1	[0, 0, 0]	n/a	catFR1	3	R1488T
171.565	1.6	173335	WORD	n/a	wordpools/wordpool_categorized_EN.txt	CAR	Vehicles	11	1	[0, 0, 0]	n/a	catFR1	3	R1488T
173.165	0.866	174932	WORD_OFF	n/a	n/a	CAR	Vehicles	11	1	[0, 0, 0]	n/a	catFR1	3	R1488T
174.031	1.6	175801	WORD	n/a	wordpools/wordpool_categorized_EN.txt	VAN	Vehicles	12	1	[0, 0, 0]	n/a	catFR1	3	R1488T
175.648	0.001	177416	WORD_OFF	n/a	n/a	VAN	Vehicles	12	1	[0, 0, 0]	n/a	catFR1	3	R1488T
175.649	0.0	177416	ENCODING_END	n/a	n/a	n/a	n/a	-999	1	[0, 0, 0]	n/a	catFR1	3	R1488T
175.648	0.001	177421	PROB	7.0	n/a	n/a	n/a	-999	1	[6, 2, 7]	15.0	catFR1	3	R1488T
175.649	0.0	177422	START	n/a	n/a	n/a	n/a	-999	1	[-999, -999, -999]	n/a	catFR1	3	R1488T
175.649	7.016	177426	DISTRACT_START	n/a	n/a	n/a	n/a	-999	1	[0, 0, 0]	n/a	catFR1	3	R1488T
182.665	7.317	184438	PROB	7.3	n/a	n/a	n/a	-999	1	[7, 6, 7]	20.0	catFR1	3	R1488T
189.982	12.033	191755	PROB	12.016	n/a	n/a	n/a	-999	1	[5, 8, 5]	18.0	catFR1	3	R1488T
202.015	0.0	203785	DISTRACT_END	n/a	n/a	n/a	n/a	-999	1	[0, 0, 0]	n/a	catFR1	3	R1488T
202.015	2.3	203787	STOP	n/a	n/a	n/a	n/a	-999	1	[-999, -999, -999]	n/a	catFR1	3	R1488T
204.315	8.194	206088	REC_START	n/a	n/a	n/a	n/a	-999	1	[0, 0, 0]	n/a	catFR1	3	R1488T
212.509	2.622	214281	REC_WORD_VV	8.194	n/a	<>	n/a	-999	1	[0, 0, 0]	n/a	catFR1	3	R1488T
215.131	1.0	216902	REC_WORD_VV	10.816	n/a	<>	n/a	-999	1	[0, 0, 0]	n/a	catFR1	3	R1488T
216.131	1.04	217902	REC_WORD_VV	11.816	n/a	<>	n/a	-999	1	[0, 0, 0]	n/a	catFR1	3	R1488T
217.171	0.334	218942	REC_WORD	12.856	n/a	BUS	Vehicles	4	1	[0, 0, 0]	n/a	catFR1	3	R1488T
217.505	16.985	219276	REC_WORD	13.19	n/a	SCREWDRIVER	n/a	-999	1	[0, 0, 0]	n/a	catFR1	3	R1488T
234.49	9.674	236256	REC_END	n/a	n/a	n/a	n/a	-999	1	[0, 0, 0]	n/a	catFR1	3	R1488T
244.164	10.0	245930	COUNTDOWN_START	n/a	n/a	n/a	n/a	-999	2	[0, 0, 0]	n/a	catFR1	3	R1488T
254.514	0.0	256285	COUNTDOWN_END	n/a	n/a	n/a	n/a	-999	2	[0, 0, 0]	n/a	catFR1	3	R1488T
254.514	2.084	256285	ENCODING_START	n/a	n/a	n/a	n/a	-999	2	[0, 0, 0]	n/a	catFR1	3	R1488T
256.598	1.6	258363	WORD	n/a	wordpools/wordpool_categorized_EN.txt	DOLPHIN	OceanAnimals	1	2	[0, 0, 0]	n/a	catFR1	3	R1488T
258.198	0.783	259969	WORD_OFF	n/a	n/a	DOLPHIN	OceanAnimals	1	2	[0, 0, 0]	n/a	catFR1	3	R1488T
258.981	1.6	260744	WORD	n/a	wordpools/wordpool_categorized_EN.txt	OYSTER	OceanAnimals	2	2	[0, 0, 0]	n/a	catFR1	3	R1488T
260.581	0.967	262350	WORD_OFF	n/a	n/a	OYSTER	OceanAnimals	2	2	[0, 0, 0]	n/a	catFR1	3	R1488T
261.548	1.6	263314	WORD	n/a	wordpools/wordpool_categorized_EN.txt	JEEP	Vehicles	3	2	[0, 0, 0]	n/a	catFR1	3	R1488T
263.148	0.9	264911	WORD_OFF	n/a	n/a	JEEP	Vehicles	3	2	[0, 0, 0]	n/a	catFR1	3	R1488T
264.048	1.6	265818	WORD	n/a	wordpools/wordpool_categorized_EN.txt	MOPED	Vehicles	4	2	[0, 0, 0]	n/a	catFR1	3	R1488T
265.665	0.767	267433	WORD_OFF	n/a	n/a	MOPED	Vehicles	4	2	[0, 0, 0]	n/a	catFR1	3	R1488T
266.432	1.6	268198	WORD	n/a	wordpools/wordpool_categorized_EN.txt	HAMMER	Tools	5	2	[0, 0, 0]	n/a	catFR1	3	R1488T
268.048	0.833	269814	WORD_OFF	n/a	n/a	HAMMER	Tools	5	2	[0, 0, 0]	n/a	catFR1	3	R1488T
268.881	1.6	270645	WORD	n/a	wordpools/wordpool_categorized_EN.txt	SANDER	Tools	6	2	[0, 0, 0]	n/a	catFR1	3	R1488T
270.481	0.9	272251	WORD_OFF	n/a	n/a	SANDER	Tools	6	2	[0, 0, 0]	n/a	catFR1	3	R1488T
271.381	1.6	273149	WORD	n/a	wordpools/wordpool_categorized_EN.txt	BOAT	Vehicles	7	2	[0, 0, 0]	n/a	catFR1	3	R1488T
272.998	0.917	274764	WORD_OFF	n/a	n/a	BOAT	Vehicles	7	2	[0, 0, 0]	n/a	catFR1	3	R1488T
273.915	1.6	275681	WORD	n/a	wordpools/wordpool_categorized_EN.txt	TRAIN	Vehicles	8	2	[0, 0, 0]	n/a	catFR1	3	R1488T
275.531	0.817	277296	WORD_OFF	n/a	n/a	TRAIN	Vehicles	8	2	[0, 0, 0]	n/a	catFR1	3	R1488T
276.348	1.6	278118	WORD	n/a	wordpools/wordpool_categorized_EN.txt	SHRIMP	OceanAnimals	9	2	[0, 0, 0]	n/a	catFR1	3	R1488T
277.963	0.868	279724	WORD_OFF	n/a	n/a	SHRIMP	OceanAnimals	9	2	[0, 0, 0]	n/a	catFR1	3	R1488T
278.831	1.6	280594	WORD	n/a	wordpools/wordpool_categorized_EN.txt	TURTLE	OceanAnimals	10	2	[0, 0, 0]	n/a	catFR1	3	R1488T
280.432	0.916	282200	WORD_OFF	n/a	n/a	TURTLE	OceanAnimals	10	2	[0, 0, 0]	n/a	catFR1	3	R1488T
281.348	1.6	283116	WORD	n/a	wordpools/wordpool_categorized_EN.txt	PLIERS	Tools	11	2	[0, 0, 0]	n/a	catFR1	3	R1488T
282.948	0.817	284713	WORD_OFF	n/a	n/a	PLIERS	Tools	11	2	[0, 0, 0]	n/a	catFR1	3	R1488T
283.765	1.6	285525	WORD	n/a	wordpools/wordpool_categorized_EN.txt	LEVEL	Tools	12	2	[0, 0, 0]	n/a	catFR1	3	R1488T
285.365	0.004	287131	WORD_OFF	n/a	n/a	LEVEL	Tools	12	2	[0, 0, 0]	n/a	catFR1	3	R1488T
285.369	0.0	287131	ENCODING_END	n/a	n/a	n/a	n/a	-999	2	[0, 0, 0]	n/a	catFR1	3	R1488T
285.369	0.0	287131	DISTRACT_START	n/a	n/a	n/a	n/a	-999	2	[0, 0, 0]	n/a	catFR1	3	R1488T
285.366	0.003	287134	PROB	7.699	n/a	n/a	n/a	-999	2	[1, 2, 4]	7.0	catFR1	3	R1488T
285.369	7.713	287137	START	n/a	n/a	n/a	n/a	-999	2	[-999, -999, -999]	n/a	catFR1	3	R1488T
293.082	6.883	294849	PROB	6.866	n/a	n/a	n/a	-999	2	[8, 5, 4]	17.0	catFR1	3	R1488T
299.965	6.45	301732	PROB	6.432	n/a	n/a	n/a	-999	2	[6, 3, 2]	11.0	catFR1	3	R1488T
306.415	0.0	308181	DISTRACT_END	n/a	n/a	n/a	n/a	-999	2	[0, 0, 0]	n/a	catFR1	3	R1488T
306.415	2.399	308182	STOP	n/a	n/a	n/a	n/a	-999	2	[-999, -999, -999]	n/a	catFR1	3	R1488T
308.814	1.657	310579	REC_START	n/a	n/a	n/a	n/a	-999	2	[0, 0, 0]	n/a	catFR1	3	R1488T
310.471	1.772	312238	REC_WORD_VV	1.657	n/a	<>	n/a	-999	2	[0, 0, 0]	n/a	catFR1	3	R1488T
312.243	7.813	314009	REC_WORD	3.429	n/a	DOLPHIN	OceanAnimals	1	2	[0, 0, 0]	n/a	catFR1	3	R1488T
320.056	18.977	321822	REC_WORD	11.242	n/a	JEEP	Vehicles	3	2	[0, 0, 0]	n/a	catFR1	3	R1488T
339.033	4.631	340794	REC_END	n/a	n/a	n/a	n/a	-999	2	[0, 0, 0]	n/a	catFR1	3	R1488T
343.664	10.0	345423	COUNTDOWN_START	n/a	n/a	n/a	n/a	-999	3	[0, 0, 0]	n/a	catFR1	3	R1488T
354.014	0.0	355778	COUNTDOWN_END	n/a	n/a	n/a	n/a	-999	3	[0, 0, 0]	n/a	catFR1	3	R1488T
354.014	2.017	355778	ENCODING_START	n/a	n/a	n/a	n/a	-999	3	[0, 0, 0]	n/a	catFR1	3	R1488T
356.031	1.6	357790	WORD	n/a	wordpools/wordpool_categorized_EN.txt	NOTEBOOK	OfficeSupplies	1	3	[0, 0, 0]	n/a	catFR1	3	R1488T
357.647	0.818	359406	WORD_OFF	n/a	n/a	NOTEBOOK	OfficeSupplies	1	3	[0, 0, 0]	n/a	catFR1	3	R1488T
358.465	1.6	360228	WORD	n/a	wordpools/wordpool_categorized_EN.txt	PAPER	OfficeSupplies	2	3	[0, 0, 0]	n/a	catFR1	3	R1488T
360.065	0.883	361824	WORD_OFF	n/a	n/a	PAPER	OfficeSupplies	2	3	[0, 0, 0]	n/a	catFR1	3	R1488T
360.948	1.6	362712	WORD	n/a	wordpools/wordpool_categorized_EN.txt	FLY	Insects	3	3	[0, 0, 0]	n/a	catFR1	3	R1488T
362.548	0.917	364309	WORD_OFF	n/a	n/a	FLY	Insects	3	3	[0, 0, 0]	n/a	catFR1	3	R1488T
363.465	1.6	365225	WORD	n/a	wordpools/wordpool_categorized_EN.txt	LADYBUG	Insects	4	3	[0, 0, 0]	n/a	catFR1	3	R1488T
365.066	0.965	366831	WORD_OFF	n/a	n/a	LADYBUG	Insects	4	3	[0, 0, 0]	n/a	catFR1	3	R1488T
366.031	1.6	367795	WORD	n/a	wordpools/wordpool_categorized_EN.txt	CARNATION	Flowers	5	3	[0, 0, 0]	n/a	catFR1	3	R1488T
367.631	0.934	369392	WORD_OFF	n/a	n/a	CARNATION	Flowers	5	3	[0, 0, 0]	n/a	catFR1	3	R1488T
368.565	1.6	370327	WORD	n/a	wordpools/wordpool_categorized_EN.txt	LILY	Flowers	6	3	[0, 0, 0]	n/a	catFR1	3	R1488T
370.165	1.0	371924	WORD_OFF	n/a	n/a	LILY	Flowers	6	3	[0, 0, 0]	n/a	catFR1	3	R1488T
371.165	1.6	372925	WORD	n/a	wordpools/wordpool_categorized_EN.txt	STAPLER	OfficeSupplies	7	3	[0, 0, 0]	n/a	catFR1	3	R1488T
372.765	0.833	374522	WORD_OFF	n/a	n/a	STAPLER	OfficeSupplies	7	3	[0, 0, 0]	n/a	catFR1	3	R1488T
373.598	1.6	375363	WORD	n/a	wordpools/wordpool_categorized_EN.txt	PEN	OfficeSupplies	8	3	[0, 0, 0]	n/a	catFR1	3	R1488T
375.215	0.95	376978	WORD_OFF	n/a	n/a	PEN	OfficeSupplies	8	3	[0, 0, 0]	n/a	catFR1	3	R1488T
376.165	1.6	377923	WORD	n/a	wordpools/wordpool_categorized_EN.txt	SUNFLOWER	Flowers	9	3	[0, 0, 0]	n/a	catFR1	3	R1488T
377.781	0.834	379538	WORD_OFF	n/a	n/a	SUNFLOWER	Flowers	9	3	[0, 0, 0]	n/a	catFR1	3	R1488T
378.615	1.6	380379	WORD	n/a	wordpools/wordpool_categorized_EN.txt	DAFFODIL	Flowers	10	3	[0, 0, 0]	n/a	catFR1	3	R1488T
380.231	0.817	381995	WORD_OFF	n/a	n/a	DAFFODIL	Flowers	10	3	[0, 0, 0]	n/a	catFR1	3	R1488T
381.048	1.6	382807	WORD	n/a	wordpools/wordpool_categorized_EN.txt	MOSQUITO	Insects	11	3	[0, 0, 0]	n/a	catFR1	3	R1488T
382.665	0.833	384423	WORD_OFF	n/a	n/a	MOSQUITO	Insects	11	3	[0, 0, 0]	n/a	catFR1	3	R1488T
383.498	1.6	385254	WORD	n/a	wordpools/wordpool_categorized_EN.txt	ANT	Insects	12	3	[0, 0, 0]	n/a	catFR1	3	R1488T
385.115	0.0	386878	PROB	7.766	n/a	n/a	n/a	-999	3	[1, 8, 7]	16.0	catFR1	3	R1488T
385.115	0.001	386879	WORD_OFF	n/a	n/a	ANT	Insects	12	3	[0, 0, 0]	n/a	catFR1	3	R1488T
385.116	0.0	386879	ENCODING_END	n/a	n/a	n/a	n/a	-999	3	[0, 0, 0]	n/a	catFR1	3	R1488T
385.116	0.0	386879	DISTRACT_START	n/a	n/a	n/a	n/a	-999	3	[0, 0, 0]	n/a	catFR1	3	R1488T
385.116	7.783	386879	START	n/a	n/a	n/a	n/a	-999	3	[-999, -999, -999]	n/a	catFR1	3	R1488T
392.899	8.282	394661	PROB	8.266	n/a	n/a	n/a	-999	3	[6, 5, 6]	17.0	catFR1	3	R1488T
401.181	6.784	402943	PROB	6.767	n/a	n/a	n/a	-999	3	[4, 6, 4]	14.0	catFR1	3	R1488T
407.965	0.0	409724	DISTRACT_END	n/a	n/a	n/a	n/a	-999	3	[0, 0, 0]	n/a	catFR1	3	R1488T
407.965	2.332	409727	STOP	n/a	n/a	n/a	n/a	-999	3	[-999, -999, -999]	n/a	catFR1	3	R1488T
410.297	1.154	412056	REC_START	n/a	n/a	n/a	n/a	-999	3	[0, 0, 0]	n/a	catFR1	3	R1488T
411.451	0.496	413212	REC_WORD_VV	1.154	n/a	<>	n/a	-999	3	[0, 0, 0]	n/a	catFR1	3	R1488T
411.947	1.145	413708	REC_WORD	1.65	n/a	NOTEBOOK	OfficeSupplies	1	3	[0, 0, 0]	n/a	catFR1	3	R1488T
413.092	3.896	414853	REC_WORD	2.795	n/a	PAPER	OfficeSupplies	2	3	[0, 0, 0]	n/a	catFR1	3	R1488T
416.988	1.0	418749	REC_WORD	6.691	n/a	FLY	Insects	3	3	[0, 0, 0]	n/a	catFR1	3	R1488T
417.988	0.93	419749	REC_WORD	7.691	n/a	FLY	Insects	3	3	[0, 0, 0]	n/a	catFR1	3	R1488T
418.918	0.999	420679	REC_WORD	8.621	n/a	LADYBUG	Insects	4	3	[0, 0, 0]	n/a	catFR1	3	R1488T
419.917	0.724	421678	REC_WORD	9.62	n/a	LADYBUG	Insects	4	3	[0, 0, 0]	n/a	catFR1	3	R1488T
420.641	0.996	422402	REC_WORD	10.344	n/a	DANDELION	n/a	-999	3	[0, 0, 0]	n/a	catFR1	3	R1488T
421.637	7.364	423398	REC_WORD	11.34	n/a	DANDELION	n/a	-999	3	[0, 0, 0]	n/a	catFR1	3	R1488T
429.001	2.496	430762	REC_WORD	18.704	n/a	NOTEBOOK	OfficeSupplies	1	3	[0, 0, 0]	n/a	catFR1	3	R1488T
431.497	0.661	433257	REC_WORD	21.2	n/a	PAPER	OfficeSupplies	2	3	[0, 0, 0]	n/a	catFR1	3	R1488T
432.158	1.584	433918	REC_WORD	21.861	n/a	FLY	Insects	3	3	[0, 0, 0]	n/a	catFR1	3	R1488T
433.742	1.593	435502	REC_WORD	23.445	n/a	LADYBUG	Insects	4	3	[0, 0, 0]	n/a	catFR1	3	R1488T
435.335	5.197	437095	REC_WORD	25.038	n/a	DANDELION	n/a	-999	3	[0, 0, 0]	n/a	catFR1	3	R1488T
440.532	2.833	442290	REC_END	n/a	n/a	n/a	n/a	-999	3	[0, 0, 0]	n/a	catFR1	3	R1488T
443.365	10.0	445124	COUNTDOWN_START	n/a	n/a	n/a	n/a	-999	4	[0, 0, 0]	n/a	catFR1	3	R1488T
453.714	0.0	455469	COUNTDOWN_END	n/a	n/a	n/a	n/a	-999	4	[0, 0, 0]	n/a	catFR1	3	R1488T
453.714	2.251	455469	ENCODING_START	n/a	n/a	n/a	n/a	-999	4	[0, 0, 0]	n/a	catFR1	3	R1488T
455.965	1.6	457717	WORD	n/a	wordpools/wordpool_categorized_EN.txt	RAIN	Weather	1	4	[0, 0, 0]	n/a	catFR1	3	R1488T
457.565	0.933	459324	WORD_OFF	n/a	n/a	RAIN	Weather	1	4	[0, 0, 0]	n/a	catFR1	3	R1488T
458.498	1.6	460259	WORD	n/a	wordpools/wordpool_categorized_EN.txt	FOG	Weather	2	4	[0, 0, 0]	n/a	catFR1	3	R1488T
460.115	1.0	461874	WORD_OFF	n/a	n/a	FOG	Weather	2	4	[0, 0, 0]	n/a	catFR1	3	R1488T
461.115	1.6	462866	WORD	n/a	wordpools/wordpool_categorized_EN.txt	WINDOW	Building	3	4	[0, 0, 0]	n/a	catFR1	3	R1488T
462.715	0.833	464473	WORD_OFF	n/a	n/a	WINDOW	Building	3	4	[0, 0, 0]	n/a	catFR1	3	R1488T
463.548	1.6	465304	WORD	n/a	wordpools/wordpool_categorized_EN.txt	DOOR	Building	4	4	[0, 0, 0]	n/a	catFR1	3	R1488T
465.165	0.983	466919	WORD_OFF	n/a	n/a	DOOR	Building	4	4	[0, 0, 0]	n/a	catFR1	3	R1488T
466.148	1.6	467902	WORD	n/a	wordpools/wordpool_categorized_EN.txt	HEADPHONES	Electronics	5	4	[0, 0, 0]	n/a	catFR1	3	R1488T
467.748	0.883	469508	WORD_OFF	n/a	n/a	HEADPHONES	Electronics	5	4	[0, 0, 0]	n/a	catFR1	3	R1488T
468.631	1.6	470387	WORD	n/a	wordpools/wordpool_categorized_EN.txt	RADIO	Electronics	6	4	[0, 0, 0]	n/a	catFR1	3	R1488T
470.231	0.917	471983	WORD_OFF	n/a	n/a	RADIO	Electronics	6	4	[0, 0, 0]	n/a	catFR1	3	R1488T
471.148	1.6	472900	WORD	n/a	wordpools/wordpool_categorized_EN.txt	LIGHTNING	Weather	7	4	[0, 0, 0]	n/a	catFR1	3	R1488T
472.764	0.85	474515	WORD_OFF	n/a	n/a	LIGHTNING	Weather	7	4	[0, 0, 0]	n/a	catFR1	3	R1488T
473.614	1.6	475366	WORD	n/a	wordpools/wordpool_categorized_EN.txt	CLOUD	Weather	8	4	[0, 0, 0]	n/a	catFR1	3	R1488T
475.215	0.983	476972	WORD_OFF	n/a	n/a	CLOUD	Weather	8	4	[0, 0, 0]	n/a	catFR1	3	R1488T
476.198	1.6	477954	WORD	n/a	wordpools/wordpool_categorized_EN.txt	CALCULATOR	Electronics	9	4	[0, 0, 0]	n/a	catFR1	3	R1488T
477.815	0.85	479570	WORD_OFF	n/a	n/a	CALCULATOR	Electronics	9	4	[0, 0, 0]	n/a	catFR1	3	R1488T
478.665	1.6	480420	WORD	n/a	wordpools/wordpool_categorized_EN.txt	MICROWAVE	Electronics	10	4	[0, 0, 0]	n/a	catFR1	3	R1488T
480.282	1.0	482036	WORD_OFF	n/a	n/a	MICROWAVE	Electronics	10	4	[0, 0, 0]	n/a	catFR1	3	R1488T
481.282	1.6	483037	WORD	n/a	wordpools/wordpool_categorized_EN.txt	WALL	Building	11	4	[0, 0, 0]	n/a	catFR1	3	R1488T
482.898	0.983	484653	WORD_OFF	n/a	n/a	WALL	Building	11	4	[0, 0, 0]	n/a	catFR1	3	R1488T
483.881	1.6	485635	WORD	n/a	wordpools/wordpool_categorized_EN.txt	BATHROOM	Building	12	4	[0, 0, 0]	n/a	catFR1	3	R1488T
485.482	0.0	487232	WORD_OFF	n/a	n/a	BATHROOM	Building	12	4	[0, 0, 0]	n/a	catFR1	3	R1488T
485.482	0.001	487240	PROB	5.916	n/a	n/a	n/a	-999	4	[1, 2, 1]	4.0	catFR1	3	R1488T
485.483	0.0	487241	ENCODING_END	n/a	n/a	n/a	n/a	-999	4	[0, 0, 0]	n/a	catFR1	3	R1488T
485.483	0.0	487241	DISTRACT_START	n/a	n/a	n/a	n/a	-999	4	[0, 0, 0]	n/a	catFR1	3	R1488T
485.483	5.932	487241	START	n/a	n/a	n/a	n/a	-999	4	[-999, -999, -999]	n/a	catFR1	3	R1488T
491.415	10.233	493172	PROB	10.215	n/a	n/a	n/a	-999	4	[7, 1, 8]	16.0	catFR1	3	R1488T
501.648	16.683	503405	PROB	16.666	n/a	n/a	n/a	-999	4	[4, 5, 4]	13.0	catFR1	3	R1488T
518.331	0.0	520081	DISTRACT_END	n/a	n/a	n/a	n/a	-999	4	[0, 0, 0]	n/a	catFR1	3	R1488T
518.331	2.266	520087	STOP	n/a	n/a	n/a	n/a	-999	4	[-999, -999, -999]	n/a	catFR1	3	R1488T
520.597	7.352	522347	REC_START	n/a	n/a	n/a	n/a	-999	4	[0, 0, 0]	n/a	catFR1	3	R1488T
527.949	0.998	529704	REC_WORD	7.352	n/a	CAULIFLOWER	n/a	-999	4	[0, 0, 0]	n/a	catFR1	3	R1488T
528.947	7.734	530702	REC_WORD	8.35	n/a	CAULIFLOWER	n/a	-999	4	[0, 0, 0]	n/a	catFR1	3	R1488T
536.681	2.264	538436	REC_WORD	16.084	n/a	DOOR	Building	4	4	[0, 0, 0]	n/a	catFR1	3	R1488T
538.945	1.258	540700	REC_WORD	18.348	n/a	WINDOW	Building	3	4	[0, 0, 0]	n/a	catFR1	3	R1488T
540.203	1.102	541958	REC_WORD	19.606	n/a	RAIN	Weather	1	4	[0, 0, 0]	n/a	catFR1	3	R1488T
541.305	2.108	543060	REC_WORD	20.708	n/a	FOG	Weather	2	4	[0, 0, 0]	n/a	catFR1	3	R1488T
543.413	7.425	545168	REC_WORD	22.816	n/a	WINDOW	Building	3	4	[0, 0, 0]	n/a	catFR1	3	R1488T
550.838	4.343	552590	REC_END	n/a	n/a	n/a	n/a	-999	4	[0, 0, 0]	n/a	catFR1	3	R1488T
555.181	10.0	556936	COUNTDOWN_START	n/a	n/a	n/a	n/a	-999	5	[0, 0, 0]	n/a	catFR1	3	R1488T
565.531	0.0	567281	COUNTDOWN_END	n/a	n/a	n/a	n/a	-999	5	[0, 0, 0]	n/a	catFR1	3	R1488T
565.531	1.9	567281	ENCODING_START	n/a	n/a	n/a	n/a	-999	5	[0, 0, 0]	n/a	catFR1	3	R1488T
567.431	1.6	569180	WORD	n/a	wordpools/wordpool_categorized_EN.txt	SKIRT	Clothing	1	5	[0, 0, 0]	n/a	catFR1	3	R1488T
569.048	0.799	570796	WORD_OFF	n/a	n/a	SKIRT	Clothing	1	5	[0, 0, 0]	n/a	catFR1	3	R1488T
569.847	1.6	571599	WORD	n/a	wordpools/wordpool_categorized_EN.txt	SOCKS	Clothing	2	5	[0, 0, 0]	n/a	catFR1	3	R1488T
571.448	0.816	573196	WORD_OFF	n/a	n/a	SOCKS	Clothing	2	5	[0, 0, 0]	n/a	catFR1	3	R1488T
572.264	1.6	574018	WORD	n/a	wordpools/wordpool_categorized_EN.txt	TABLE	Furniture	3	5	[0, 0, 0]	n/a	catFR1	3	R1488T
573.864	0.917	575614	WORD_OFF	n/a	n/a	TABLE	Furniture	3	5	[0, 0, 0]	n/a	catFR1	3	R1488T
574.781	1.6	576531	WORD	n/a	wordpools/wordpool_categorized_EN.txt	BED	Furniture	4	5	[0, 0, 0]	n/a	catFR1	3	R1488T
576.381	0.834	578127	WORD_OFF	n/a	n/a	BED	Furniture	4	5	[0, 0, 0]	n/a	catFR1	3	R1488T
577.215	1.6	578968	WORD	n/a	wordpools/wordpool_categorized_EN.txt	LION	Zoo	5	5	[0, 0, 0]	n/a	catFR1	3	R1488T
578.831	0.784	580584	WORD_OFF	n/a	n/a	LION	Zoo	5	5	[0, 0, 0]	n/a	catFR1	3	R1488T
579.615	1.6	581368	WORD	n/a	wordpools/wordpool_categorized_EN.txt	GORILLA	Zoo	6	5	[0, 0, 0]	n/a	catFR1	3	R1488T
581.231	0.8	582983	WORD_OFF	n/a	n/a	GORILLA	Zoo	6	5	[0, 0, 0]	n/a	catFR1	3	R1488T
582.031	1.6	583780	WORD	n/a	wordpools/wordpool_categorized_EN.txt	DRESSER	Furniture	7	5	[0, 0, 0]	n/a	catFR1	3	R1488T
583.632	0.932	585383	WORD_OFF	n/a	n/a	DRESSER	Furniture	7	5	[0, 0, 0]	n/a	catFR1	3	R1488T
584.564	1.6	586318	WORD	n/a	wordpools/wordpool_categorized_EN.txt	COUCH	Furniture	8	5	[0, 0, 0]	n/a	catFR1	3	R1488T
586.165	0.9	587915	WORD_OFF	n/a	n/a	COUCH	Furniture	8	5	[0, 0, 0]	n/a	catFR1	3	R1488T
587.065	1.6	588813	WORD	n/a	wordpools/wordpool_categorized_EN.txt	CHIMPANZEE	Zoo	9	5	[0, 0, 0]	n/a	catFR1	3	R1488T
588.665	0.8	590419	WORD_OFF	n/a	n/a	CHIMPANZEE	Zoo	9	5	[0, 0, 0]	n/a	catFR1	3	R1488T
589.465	1.6	591212	WORD	n/a	wordpools/wordpool_categorized_EN.txt	ORANGUTAN	Zoo	10	5	[0, 0, 0]	n/a	catFR1	3	R1488T
591.065	0.866	592818	WORD_OFF	n/a	n/a	ORANGUTAN	Zoo	10	5	[0, 0, 0]	n/a	catFR1	3	R1488T
591.931	1.6	593678	WORD	n/a	wordpools/wordpool_categorized_EN.txt	SHOES	Clothing	11	5	[0, 0, 0]	n/a	catFR1	3	R1488T
593.548	0.8	595294	WORD_OFF	n/a	n/a	SHOES	Clothing	11	5	[0, 0, 0]	n/a	catFR1	3	R1488T
594.348	1.6	596097	WORD	n/a	wordpools/wordpool_categorized_EN.txt	DRESS	Clothing	12	5	[0, 0, 0]	n/a	catFR1	3	R1488T
595.948	0.0	597693	WORD_OFF	n/a	n/a	DRESS	Clothing	12	5	[0, 0, 0]	n/a	catFR1	3	R1488T
595.948	0.002	597700	PROB	8.283	n/a	n/a	n/a	-999	5	[7, 1, 8]	16.0	catFR1	3	R1488T
595.95	0.0	597702	START	n/a	n/a	n/a	n/a	-999	5	[-999, -999, -999]	n/a	catFR1	3	R1488T
595.95	0.0	597703	ENCODING_END	n/a	n/a	n/a	n/a	-999	5	[0, 0, 0]	n/a	catFR1	3	R1488T
595.95	8.298	597703	DISTRACT_START	n/a	n/a	n/a	n/a	-999	5	[0, 0, 0]	n/a	catFR1	3	R1488T
604.248	4.851	606000	PROB	4.833	n/a	n/a	n/a	-999	5	[3, 3, 5]	11.0	catFR1	3	R1488T
609.099	8.565	610850	PROB	8.548	n/a	n/a	n/a	-999	5	[3, 2, 2]	7.0	catFR1	3	R1488T
617.664	0.0	619413	DISTRACT_END	n/a	n/a	n/a	n/a	-999	5	[0, 0, 0]	n/a	catFR1	3	R1488T
617.664	2.3	619415	STOP	n/a	n/a	n/a	n/a	-999	5	[-999, -999, -999]	n/a	catFR1	3	R1488T
619.964	1.031	621717	REC_START	n/a	n/a	n/a	n/a	-999	5	[0, 0, 0]	n/a	catFR1	3	R1488T
620.995	1.688	622746	REC_WORD_VV	1.031	n/a	<>	n/a	-999	5	[0, 0, 0]	n/a	catFR1	3	R1488T
622.683	2.046	624434	REC_WORD	2.719	n/a	SKIRT	Clothing	1	5	[0, 0, 0]	n/a	catFR1	3	R1488T
624.729	1.003	626480	REC_WORD	4.765	n/a	SOCKS	Clothing	2	5	[0, 0, 0]	n/a	catFR1	3	R1488T
625.732	1.201	627483	REC_WORD	5.768	n/a	SOCKS	Clothing	2	5	[0, 0, 0]	n/a	catFR1	3	R1488T
626.933	1.976	628683	REC_WORD	6.969	n/a	SHOES	Clothing	11	5	[0, 0, 0]	n/a	catFR1	3	R1488T
628.909	5.055	630659	REC_WORD	8.945	n/a	BED	Furniture	4	5	[0, 0, 0]	n/a	catFR1	3	R1488T
633.964	0.872	635714	REC_WORD	14.0	n/a	ORANGUTAN	Zoo	10	5	[0, 0, 0]	n/a	catFR1	3	R1488T
634.836	7.717	636586	REC_WORD	14.872	n/a	CHIMPANZEE	Zoo	9	5	[0, 0, 0]	n/a	catFR1	3	R1488T
642.553	0.659	644303	REC_WORD_VV	22.589	n/a	<>	n/a	-999	5	[0, 0, 0]	n/a	catFR1	3	R1488T
643.212	0.212	644962	REC_WORD	23.248	n/a	BED	Furniture	4	5	[0, 0, 0]	n/a	catFR1	3	R1488T
643.424	6.776	645174	REC_WORD_VV	23.46	n/a	<>	n/a	-999	5	[0, 0, 0]	n/a	catFR1	3	R1488T
650.2	5.415	651951	REC_END	n/a	n/a	n/a	n/a	-999	5	[0, 0, 0]	n/a	catFR1	3	R1488T
655.615	10.0	657364	COUNTDOWN_START	n/a	n/a	n/a	n/a	-999	6	[0, 0, 0]	n/a	catFR1	3	R1488T
665.964	0.0	667710	COUNTDOWN_END	n/a	n/a	n/a	n/a	-999	6	[0, 0, 0]	n/a	catFR1	3	R1488T
665.964	2.033	667710	ENCODING_START	n/a	n/a	n/a	n/a	-999	6	[0, 0, 0]	n/a	catFR1	3	R1488T
667.997	1.6	669741	WORD	n/a	wordpools/wordpool_categorized_EN.txt	STRAINER	KitchenTools	1	6	[0, 0, 0]	n/a	catFR1	3	R1488T
669.598	0.783	671347	WORD_OFF	n/a	n/a	STRAINER	KitchenTools	1	6	[0, 0, 0]	n/a	catFR1	3	R1488T
670.381	1.6	672131	WORD	n/a	wordpools/wordpool_categorized_EN.txt	KNIFE	KitchenTools	2	6	[0, 0, 0]	n/a	catFR1	3	R1488T
671.998	0.949	673747	WORD_OFF	n/a	n/a	KNIFE	KitchenTools	2	6	[0, 0, 0]	n/a	catFR1	3	R1488T
672.947	1.6	674691	WORD	n/a	wordpools/wordpool_categorized_EN.txt	GNAT	Insects	3	6	[0, 0, 0]	n/a	catFR1	3	R1488T
674.548	0.916	676297	WORD_OFF	n/a	n/a	GNAT	Insects	3	6	[0, 0, 0]	n/a	catFR1	3	R1488T
675.464	1.6	677204	WORD	n/a	wordpools/wordpool_categorized_EN.txt	BEETLE	Insects	4	6	[0, 0, 0]	n/a	catFR1	3	R1488T
677.065	1.0	678811	WORD_OFF	n/a	n/a	BEETLE	Insects	4	6	[0, 0, 0]	n/a	catFR1	3	R1488T
678.065	1.6	679812	WORD	n/a	wordpools/wordpool_categorized_EN.txt	LILAC	Flowers	5	6	[0, 0, 0]	n/a	catFR1	3	R1488T
679.665	0.883	681409	WORD_OFF	n/a	n/a	LILAC	Flowers	5	6	[0, 0, 0]	n/a	catFR1	3	R1488T
680.548	1.6	682297	WORD	n/a	wordpools/wordpool_categorized_EN.txt	DAISY	Flowers	6	6	[0, 0, 0]	n/a	catFR1	3	R1488T
682.164	0.801	683912	WORD_OFF	n/a	n/a	DAISY	Flowers	6	6	[0, 0, 0]	n/a	catFR1	3	R1488T
682.965	1.6	684706	WORD	n/a	wordpools/wordpool_categorized_EN.txt	CORKSCREW	KitchenTools	7	6	[0, 0, 0]	n/a	catFR1	3	R1488T
684.581	0.95	686331	WORD_OFF	n/a	n/a	CORKSCREW	KitchenTools	7	6	[0, 0, 0]	n/a	catFR1	3	R1488T
685.531	1.6	687276	WORD	n/a	wordpools/wordpool_categorized_EN.txt	GRATER	KitchenTools	8	6	[0, 0, 0]	n/a	catFR1	3	R1488T
687.148	0.85	688891	WORD_OFF	n/a	n/a	GRATER	KitchenTools	8	6	[0, 0, 0]	n/a	catFR1	3	R1488T
687.998	1.6	689741	WORD	n/a	wordpools/wordpool_categorized_EN.txt	BEE	Insects	9	6	[0, 0, 0]	n/a	catFR1	3	R1488T
689.615	0.8	691357	WORD_OFF	n/a	n/a	BEE	Insects	9	6	[0, 0, 0]	n/a	catFR1	3	R1488T
690.415	1.6	692160	WORD	n/a	wordpools/wordpool_categorized_EN.txt	MOTH	Insects	10	6	[0, 0, 0]	n/a	catFR1	3	R1488T
692.03	0.918	693776	WORD_OFF	n/a	n/a	MOTH	Insects	10	6	[0, 0, 0]	n/a	catFR1	3	R1488T
692.948	1.6	694692	WORD	n/a	wordpools/wordpool_categorized_EN.txt	MARIGOLD	Flowers	11	6	[0, 0, 0]	n/a	catFR1	3	R1488T
694.564	0.934	696308	WORD_OFF	n/a	n/a	MARIGOLD	Flowers	11	6	[0, 0, 0]	n/a	catFR1	3	R1488T
695.498	1.6	697243	WORD	n/a	wordpools/wordpool_categorized_EN.txt	VIOLET	Flowers	12	6	[0, 0, 0]	n/a	catFR1	3	R1488T
697.115	0.001	698858	WORD_OFF	n/a	n/a	VIOLET	Flowers	12	6	[0, 0, 0]	n/a	catFR1	3	R1488T
697.116	0.0	698858	ENCODING_END	n/a	n/a	n/a	n/a	-999	6	[0, 0, 0]	n/a	catFR1	3	R1488T
697.116	0.0	698863	PROB	5.916	n/a	n/a	n/a	-999	6	[4, 5, 6]	11.0	catFR1	3	R1488T
697.116	0.0	698863	START	n/a	n/a	n/a	n/a	-999	6	[-999, -999, -999]	n/a	catFR1	3	R1488T
697.116	5.933	698868	DISTRACT_START	n/a	n/a	n/a	n/a	-999	6	[0, 0, 0]	n/a	catFR1	3	R1488T
703.049	6.316	704796	PROB	6.299	n/a	n/a	n/a	-999	6	[3, 6, 1]	10.0	catFR1	3	R1488T
709.365	11.649	711111	PROB	11.632	n/a	n/a	n/a	-999	6	[6, 8, 5]	19.0	catFR1	3	R1488T
721.014	0.0	722760	STOP	n/a	n/a	n/a	n/a	-999	6	[-999, -999, -999]	n/a	catFR1	3	R1488T
721.014	2.267	722761	DISTRACT_END	n/a	n/a	n/a	n/a	-999	6	[0, 0, 0]	n/a	catFR1	3	R1488T
723.281	2.342	725027	REC_START	n/a	n/a	n/a	n/a	-999	6	[0, 0, 0]	n/a	catFR1	3	R1488T
725.623	0.931	727368	REC_WORD	2.342	n/a	BEE	Insects	9	6	[0, 0, 0]	n/a	catFR1	3	R1488T
726.554	1.35	728299	REC_WORD	3.273	n/a	LILAC	Flowers	5	6	[0, 0, 0]	n/a	catFR1	3	R1488T
727.904	1.793	729649	REC_WORD	4.623	n/a	CORN	n/a	-999	6	[0, 0, 0]	n/a	catFR1	3	R1488T
729.697	1.905	731442	REC_WORD	6.416	n/a	SHUCK	n/a	-999	6	[0, 0, 0]	n/a	catFR1	3	R1488T
731.602	1.003	733347	REC_WORD_VV	8.321	n/a	<>	n/a	-999	6	[0, 0, 0]	n/a	catFR1	3	R1488T
732.605	1.0	734350	REC_WORD_VV	9.324	n/a	<>	n/a	-999	6	[0, 0, 0]	n/a	catFR1	3	R1488T
733.605	7.964	735350	REC_WORD_VV	10.324	n/a	<>	n/a	-999	6	[0, 0, 0]	n/a	catFR1	3	R1488T
741.569	11.945	743314	REC_WORD	18.288	n/a	VIOLET	Flowers	12	6	[0, 0, 0]	n/a	catFR1	3	R1488T
753.514	3.435	755251	REC_END	n/a	n/a	n/a	n/a	-999	6	[0, 0, 0]	n/a	catFR1	3	R1488T
756.949	10.0	758690	COUNTDOWN_START	n/a	n/a	n/a	n/a	-999	7	[0, 0, 0]	n/a	catFR1	3	R1488T
767.297	0.0	769035	COUNTDOWN_END	n/a	n/a	n/a	n/a	-999	7	[0, 0, 0]	n/a	catFR1	3	R1488T
767.297	1.968	769035	ENCODING_START	n/a	n/a	n/a	n/a	-999	7	[0, 0, 0]	n/a	catFR1	3	R1488T
769.265	1.6	771008	WORD	n/a	wordpools/wordpool_categorized_EN.txt	SNOW	Weather	1	7	[0, 0, 0]	n/a	catFR1	3	R1488T
770.881	0.783	772625	WORD_OFF	n/a	n/a	SNOW	Weather	1	7	[0, 0, 0]	n/a	catFR1	3	R1488T
771.664	1.6	773409	WORD	n/a	wordpools/wordpool_categorized_EN.txt	TORNADO	Weather	2	7	[0, 0, 0]	n/a	catFR1	3	R1488T
773.265	0.9	775006	WORD_OFF	n/a	n/a	TORNADO	Weather	2	7	[0, 0, 0]	n/a	catFR1	3	R1488T
774.165	1.6	775904	WORD	n/a	wordpools/wordpool_categorized_EN.txt	ERASER	OfficeSupplies	3	7	[0, 0, 0]	n/a	catFR1	3	R1488T
775.781	0.917	777519	WORD_OFF	n/a	n/a	ERASER	OfficeSupplies	3	7	[0, 0, 0]	n/a	catFR1	3	R1488T
776.698	1.6	778436	WORD	n/a	wordpools/wordpool_categorized_EN.txt	FOLDER	OfficeSupplies	4	7	[0, 0, 0]	n/a	catFR1	3	R1488T
778.313	1.001	780051	WORD_OFF	n/a	n/a	FOLDER	OfficeSupplies	4	7	[0, 0, 0]	n/a	catFR1	3	R1488T
779.314	1.6	781053	WORD	n/a	wordpools/wordpool_categorized_EN.txt	MONKEY	Zoo	5	7	[0, 0, 0]	n/a	catFR1	3	R1488T
780.915	0.766	782659	WORD_OFF	n/a	n/a	MONKEY	Zoo	5	7	[0, 0, 0]	n/a	catFR1	3	R1488T
781.681	1.6	783424	WORD	n/a	wordpools/wordpool_categorized_EN.txt	CHEETAH	Zoo	6	7	[0, 0, 0]	n/a	catFR1	3	R1488T
783.298	0.883	785039	WORD_OFF	n/a	n/a	CHEETAH	Zoo	6	7	[0, 0, 0]	n/a	catFR1	3	R1488T
784.181	1.6	785918	WORD	n/a	wordpools/wordpool_categorized_EN.txt	RULER	OfficeSupplies	7	7	[0, 0, 0]	n/a	catFR1	3	R1488T
785.797	0.984	787543	WORD_OFF	n/a	n/a	RULER	OfficeSupplies	7	7	[0, 0, 0]	n/a	catFR1	3	R1488T
786.781	1.6	788516	WORD	n/a	wordpools/wordpool_categorized_EN.txt	GLUE	OfficeSupplies	8	7	[0, 0, 0]	n/a	catFR1	3	R1488T
788.398	0.833	790141	WORD_OFF	n/a	n/a	GLUE	OfficeSupplies	8	7	[0, 0, 0]	n/a	catFR1	3	R1488T
789.231	1.6	790973	WORD	n/a	wordpools/wordpool_categorized_EN.txt	ELEPHANT	Zoo	9	7	[0, 0, 0]	n/a	catFR1	3	R1488T
790.848	0.917	792588	WORD_OFF	n/a	n/a	ELEPHANT	Zoo	9	7	[0, 0, 0]	n/a	catFR1	3	R1488T
791.765	1.6	793505	WORD	n/a	wordpools/wordpool_categorized_EN.txt	TIGER	Zoo	10	7	[0, 0, 0]	n/a	catFR1	3	R1488T
793.366	0.965	795101	WORD_OFF	n/a	n/a	TIGER	Zoo	10	7	[0, 0, 0]	n/a	catFR1	3	R1488T
794.331	1.6	796074	WORD	n/a	wordpools/wordpool_categorized_EN.txt	HUMIDITY	Weather	11	7	[0, 0, 0]	n/a	catFR1	3	R1488T
795.932	0.916	797671	WORD_OFF	n/a	n/a	HUMIDITY	Weather	11	7	[0, 0, 0]	n/a	catFR1	3	R1488T
796.848	1.6	798587	WORD	n/a	wordpools/wordpool_categorized_EN.txt	THUNDERSTORM	Weather	12	7	[0, 0, 0]	n/a	catFR1	3	R1488T
798.465	0.001	800203	WORD_OFF	n/a	n/a	THUNDERSTORM	Weather	12	7	[0, 0, 0]	n/a	catFR1	3	R1488T
798.466	0.0	800203	ENCODING_END	n/a	n/a	n/a	n/a	-999	7	[0, 0, 0]	n/a	catFR1	3	R1488T
798.465	0.001	800207	PROB	7.149	n/a	n/a	n/a	-999	7	[6, 5, 2]	13.0	catFR1	3	R1488T
798.466	0.0	800208	START	n/a	n/a	n/a	n/a	-999	7	[-999, -999, -999]	n/a	catFR1	3	R1488T
798.466	7.166	800212	DISTRACT_START	n/a	n/a	n/a	n/a	-999	7	[0, 0, 0]	n/a	catFR1	3	R1488T
805.632	17.215	807373	PROB	17.199	n/a	n/a	n/a	-999	7	[4, 3, 8]	15.0	catFR1	3	R1488T
822.847	0.0	824587	DISTRACT_END	n/a	n/a	n/a	n/a	-999	7	[0, 0, 0]	n/a	catFR1	3	R1488T
822.847	2.15	824587	STOP	n/a	n/a	n/a	n/a	-999	7	[-999, -999, -999]	n/a	catFR1	3	R1488T
824.997	4.3	826730	REC_START	n/a	n/a	n/a	n/a	-999	7	[0, 0, 0]	n/a	catFR1	3	R1488T
829.297	1.0	831037	REC_WORD_VV	4.3	n/a	<>	n/a	-999	7	[0, 0, 0]	n/a	catFR1	3	R1488T
830.297	4.37	832037	REC_WORD_VV	5.3	n/a	<>	n/a	-999	7	[0, 0, 0]	n/a	catFR1	3	R1488T
834.667	0.528	836407	REC_WORD	9.67	n/a	ELEPHANT	Zoo	9	7	[0, 0, 0]	n/a	catFR1	3	R1488T
835.195	3.844	836935	REC_WORD	10.198	n/a	TIGER	Zoo	10	7	[0, 0, 0]	n/a	catFR1	3	R1488T
839.039	16.211	840779	REC_WORD	14.042	n/a	MONKEY	Zoo	5	7	[0, 0, 0]	n/a	catFR1	3	R1488T
855.25	4.331	856983	REC_END	n/a	n/a	n/a	n/a	-999	7	[0, 0, 0]	n/a	catFR1	3	R1488T
859.581	10.0	861320	COUNTDOWN_START	n/a	n/a	n/a	n/a	-999	8	[0, 0, 0]	n/a	catFR1	3	R1488T
869.931	0.0	871665	COUNTDOWN_END	n/a	n/a	n/a	n/a	-999	8	[0, 0, 0]	n/a	catFR1	3	R1488T
869.931	2.317	871665	ENCODING_START	n/a	n/a	n/a	n/a	-999	8	[0, 0, 0]	n/a	catFR1	3	R1488T
872.248	1.6	873979	WORD	n/a	wordpools/wordpool_categorized_EN.txt	SAW	Tools	1	8	[0, 0, 0]	n/a	catFR1	3	R1488T
873.865	0.949	875604	WORD_OFF	n/a	n/a	SAW	Tools	1	8	[0, 0, 0]	n/a	catFR1	3	R1488T
874.814	1.6	876549	WORD	n/a	wordpools/wordpool_categorized_EN.txt	DRILL	Tools	2	8	[0, 0, 0]	n/a	catFR1	3	R1488T
876.415	0.867	878146	WORD_OFF	n/a	n/a	DRILL	Tools	2	8	[0, 0, 0]	n/a	catFR1	3	R1488T
877.282	1.6	879015	WORD	n/a	wordpools/wordpool_categorized_EN.txt	PENCIL	OfficeSupplies	3	8	[0, 0, 0]	n/a	catFR1	3	R1488T
878.898	0.85	880630	WORD_OFF	n/a	n/a	PENCIL	OfficeSupplies	3	8	[0, 0, 0]	n/a	catFR1	3	R1488T
879.748	1.6	881481	WORD	n/a	wordpools/wordpool_categorized_EN.txt	BINDER	OfficeSupplies	4	8	[0, 0, 0]	n/a	catFR1	3	R1488T
881.365	0.85	883096	WORD_OFF	n/a	n/a	BINDER	OfficeSupplies	4	8	[0, 0, 0]	n/a	catFR1	3	R1488T
882.215	1.6	883947	WORD	n/a	wordpools/wordpool_categorized_EN.txt	SHELF	Furniture	5	8	[0, 0, 0]	n/a	catFR1	3	R1488T
883.831	0.967	885562	WORD_OFF	n/a	n/a	SHELF	Furniture	5	8	[0, 0, 0]	n/a	catFR1	3	R1488T
884.798	1.6	886535	WORD	n/a	wordpools/wordpool_categorized_EN.txt	CABINET	Furniture	6	8	[0, 0, 0]	n/a	catFR1	3	R1488T
886.415	0.833	888151	WORD_OFF	n/a	n/a	CABINET	Furniture	6	8	[0, 0, 0]	n/a	catFR1	3	R1488T
887.248	1.6	888982	WORD	n/a	wordpools/wordpool_categorized_EN.txt	TAPE	OfficeSupplies	7	8	[0, 0, 0]	n/a	catFR1	3	R1488T
888.865	0.866	890598	WORD_OFF	n/a	n/a	TAPE	OfficeSupplies	7	8	[0, 0, 0]	n/a	catFR1	3	R1488T
889.731	1.6	891467	WORD	n/a	wordpools/wordpool_categorized_EN.txt	MARKER	OfficeSupplies	8	8	[0, 0, 0]	n/a	catFR1	3	R1488T
891.348	0.967	893082	WORD_OFF	n/a	n/a	MARKER	OfficeSupplies	8	8	[0, 0, 0]	n/a	catFR1	3	R1488T
892.315	1.6	894046	WORD	n/a	wordpools/wordpool_categorized_EN.txt	AXE	Tools	9	8	[0, 0, 0]	n/a	catFR1	3	R1488T
893.915	0.983	895652	WORD_OFF	n/a	n/a	AXE	Tools	9	8	[0, 0, 0]	n/a	catFR1	3	R1488T
894.898	1.6	896635	WORD	n/a	wordpools/wordpool_categorized_EN.txt	RATCHET	Tools	10	8	[0, 0, 0]	n/a	catFR1	3	R1488T
896.498	0.883	898231	WORD_OFF	n/a	n/a	RATCHET	Tools	10	8	[0, 0, 0]	n/a	catFR1	3	R1488T
897.381	1.6	899119	WORD	n/a	wordpools/wordpool_categorized_EN.txt	RECLINER	Furniture	11	8	[0, 0, 0]	n/a	catFR1	3	R1488T
898.998	0.933	900735	WORD_OFF	n/a	n/a	RECLINER	Furniture	11	8	[0, 0, 0]	n/a	catFR1	3	R1488T
899.931	1.6	901661	WORD	n/a	wordpools/wordpool_categorized_EN.txt	BOOKCASE	Furniture	12	8	[0, 0, 0]	n/a	catFR1	3	R1488T
901.531	0.004	903267	WORD_OFF	n/a	n/a	BOOKCASE	Furniture	12	8	[0, 0, 0]	n/a	catFR1	3	R1488T
901.535	0.0	903267	ENCODING_END	n/a	n/a	n/a	n/a	-999	8	[0, 0, 0]	n/a	catFR1	3	R1488T
901.535	0.0	903267	DISTRACT_START	n/a	n/a	n/a	n/a	-999	8	[0, 0, 0]	n/a	catFR1	3	R1488T
901.532	0.003	903268	PROB	6.699	n/a	n/a	n/a	-999	8	[5, 2, 8]	15.0	catFR1	3	R1488T
901.535	6.713	903271	START	n/a	n/a	n/a	n/a	-999	8	[-999, -999, -999]	n/a	catFR1	3	R1488T
908.248	6.15	909984	PROB	6.133	n/a	n/a	n/a	-999	8	[2, 3, 3]	8.0	catFR1	3	R1488T
914.398	5.667	916134	PROB	5.649	n/a	n/a	n/a	-999	8	[1, 1, 3]	5.0	catFR1	3	R1488T
920.065	6.617	921800	PROB	6.599	n/a	n/a	n/a	-999	8	[1, 8, 8]	17.0	catFR1	3	R1488T
926.682	0.0	928416	DISTRACT_END	n/a	n/a	n/a	n/a	-999	8	[0, 0, 0]	n/a	catFR1	3	R1488T
926.682	2.099	928417	STOP	n/a	n/a	n/a	n/a	-999	8	[-999, -999, -999]	n/a	catFR1	3	R1488T
928.781	3.07	930512	REC_START	n/a	n/a	n/a	n/a	-999	8	[0, 0, 0]	n/a	catFR1	3	R1488T
931.851	1.149	933586	REC_WORD	3.07	n/a	BOOKCASE	Furniture	12	8	[0, 0, 0]	n/a	catFR1	3	R1488T
933.0	1.519	934735	REC_WORD	4.219	n/a	SHELF	Furniture	5	8	[0, 0, 0]	n/a	catFR1	3	R1488T
934.519	20.164	936254	REC_WORD_VV	5.738	n/a	<>	n/a	-999	8	[0, 0, 0]	n/a	catFR1	3	R1488T
954.683	4.334	956417	REC_WORD_VV	25.902	n/a	<>	n/a	-999	8	[0, 0, 0]	n/a	catFR1	3	R1488T
959.017	4.997	960746	REC_END	n/a	n/a	n/a	n/a	-999	8	[0, 0, 0]	n/a	catFR1	3	R1488T
964.014	10.0	965744	COUNTDOWN_START	n/a	n/a	n/a	n/a	-999	9	[0, 0, 0]	n/a	catFR1	3	R1488T
974.364	0.0	976099	COUNTDOWN_END	n/a	n/a	n/a	n/a	-999	9	[0, 0, 0]	n/a	catFR1	3	R1488T
974.364	2.234	976099	ENCODING_START	n/a	n/a	n/a	n/a	-999	9	[0, 0, 0]	n/a	catFR1	3	R1488T
976.598	1.6	978328	WORD	n/a	wordpools/wordpool_categorized_EN.txt	CRICKET	Insects	1	9	[0, 0, 0]	n/a	catFR1	3	R1488T
978.215	0.766	979944	WORD_OFF	n/a	n/a	CRICKET	Insects	1	9	[0, 0, 0]	n/a	catFR1	3	R1488T
978.981	1.6	980709	WORD	n/a	wordpools/wordpool_categorized_EN.txt	SPIDER	Insects	2	9	[0, 0, 0]	n/a	catFR1	3	R1488T
980.598	0.817	982325	WORD_OFF	n/a	n/a	SPIDER	Insects	2	9	[0, 0, 0]	n/a	catFR1	3	R1488T
981.415	1.6	983146	WORD	n/a	wordpools/wordpool_categorized_EN.txt	MAPLE	Trees	3	9	[0, 0, 0]	n/a	catFR1	3	R1488T
983.031	0.95	984762	WORD_OFF	n/a	n/a	MAPLE	Trees	3	9	[0, 0, 0]	n/a	catFR1	3	R1488T
983.981	1.6	985707	WORD	n/a	wordpools/wordpool_categorized_EN.txt	CEDAR	Trees	4	9	[0, 0, 0]	n/a	catFR1	3	R1488T
985.598	1.0	987332	WORD_OFF	n/a	n/a	CEDAR	Trees	4	9	[0, 0, 0]	n/a	catFR1	3	R1488T
986.598	1.6	988324	WORD	n/a	wordpools/wordpool_categorized_EN.txt	NYLON	Fabric	5	9	[0, 0, 0]	n/a	catFR1	3	R1488T
988.198	0.816	989930	WORD_OFF	n/a	n/a	NYLON	Fabric	5	9	[0, 0, 0]	n/a	catFR1	3	R1488T
989.014	1.6	990742	WORD	n/a	wordpools/wordpool_categorized_EN.txt	COTTON	Fabric	6	9	[0, 0, 0]	n/a	catFR1	3	R1488T
990.615	0.833	992348	WORD_OFF	n/a	n/a	COTTON	Fabric	6	9	[0, 0, 0]	n/a	catFR1	3	R1488T
991.448	1.6	993180	WORD	n/a	wordpools/wordpool_categorized_EN.txt	WILLOW	Trees	7	9	[0, 0, 0]	n/a	catFR1	3	R1488T
993.048	0.983	994776	WORD_OFF	n/a	n/a	WILLOW	Trees	7	9	[0, 0, 0]	n/a	catFR1	3	R1488T
994.031	1.6	995759	WORD	n/a	wordpools/wordpool_categorized_EN.txt	CYPRESS	Trees	8	9	[0, 0, 0]	n/a	catFR1	3	R1488T
995.648	0.817	997375	WORD_OFF	n/a	n/a	CYPRESS	Trees	8	9	[0, 0, 0]	n/a	catFR1	3	R1488T
996.465	1.6	998197	WORD	n/a	wordpools/wordpool_categorized_EN.txt	LINEN	Fabric	9	9	[0, 0, 0]	n/a	catFR1	3	R1488T
998.081	0.817	999812	WORD_OFF	n/a	n/a	LINEN	Fabric	9	9	[0, 0, 0]	n/a	catFR1	3	R1488T
998.898	1.6	1000625	WORD	n/a	wordpools/wordpool_categorized_EN.txt	SILK	Fabric	10	9	[0, 0, 0]	n/a	catFR1	3	R1488T
1000.515	0.816	1002240	WORD_OFF	n/a	n/a	SILK	Fabric	10	9	[0, 0, 0]	n/a	catFR1	3	R1488T
1001.331	1.6	1003062	WORD	n/a	wordpools/wordpool_categorized_EN.txt	ROACH	Insects	11	9	[0, 0, 0]	n/a	catFR1	3	R1488T
1002.948	0.784	1004678	WORD_OFF	n/a	n/a	ROACH	Insects	11	9	[0, 0, 0]	n/a	catFR1	3	R1488T
1003.732	1.6	1005462	WORD	n/a	wordpools/wordpool_categorized_EN.txt	BUTTERFLY	Insects	12	9	[0, 0, 0]	n/a	catFR1	3	R1488T
1005.348	0.001	1007077	WORD_OFF	n/a	n/a	BUTTERFLY	Insects	12	9	[0, 0, 0]	n/a	catFR1	3	R1488T
1005.349	0.0	1007077	ENCODING_END	n/a	n/a	n/a	n/a	-999	9	[0, 0, 0]	n/a	catFR1	3	R1488T
1005.349	0.0	1007077	DISTRACT_START	n/a	n/a	n/a	n/a	-999	9	[0, 0, 0]	n/a	catFR1	3	R1488T
1005.349	0.0	1007080	START	n/a	n/a	n/a	n/a	-999	9	[-999, -999, -999]	n/a	catFR1	3	R1488T
1005.349	8.017	1007080	PROB	7.999	n/a	n/a	n/a	-999	9	[7, 4, 6]	17.0	catFR1	3	R1488T
1013.366	4.316	1015097	PROB	4.298	n/a	n/a	n/a	-999	9	[2, 6, 4]	12.0	catFR1	3	R1488T
1017.682	4.55	1019413	PROB	4.532	n/a	n/a	n/a	-999	9	[3, 5, 5]	13.0	catFR1	3	R1488T
1022.232	8.298	1023962	PROB	8.282	n/a	n/a	n/a	-999	9	[3, 8, 5]	16.0	catFR1	3	R1488T
1030.53	0.0	1032255	DISTRACT_END	n/a	n/a	n/a	n/a	-999	9	[0, 0, 0]	n/a	catFR1	3	R1488T
1030.53	2.2	1032260	STOP	n/a	n/a	n/a	n/a	-999	9	[-999, -999, -999]	n/a	catFR1	3	R1488T
1032.73	3.049	1034455	REC_START	n/a	n/a	n/a	n/a	-999	9	[0, 0, 0]	n/a	catFR1	3	R1488T
1035.779	1.48	1037509	REC_WORD	3.049	n/a	CEDAR	Trees	4	9	[0, 0, 0]	n/a	catFR1	3	R1488T
1037.259	1.022	1038989	REC_WORD	4.529	n/a	CYPRESS	Trees	8	9	[0, 0, 0]	n/a	catFR1	3	R1488T
1038.281	5.8	1040011	REC_WORD	5.551	n/a	MAPLE	Trees	3	9	[0, 0, 0]	n/a	catFR1	3	R1488T
1044.081	3.938	1045810	REC_WORD	11.351	n/a	SILK	Fabric	10	9	[0, 0, 0]	n/a	catFR1	3	R1488T
1048.019	11.684	1049748	REC_WORD	15.289	n/a	BUTTERFLY	Insects	12	9	[0, 0, 0]	n/a	catFR1	3	R1488T
1059.703	2.166	1061431	REC_WORD	26.973	n/a	ELK	n/a	-999	9	[0, 0, 0]	n/a	catFR1	3	R1488T
1061.869	1.078	1063597	REC_WORD_VV	29.139	n/a	<>	n/a	-999	9	[0, 0, 0]	n/a	catFR1	3	R1488T
1062.947	4.268	1064670	REC_END	n/a	n/a	n/a	n/a	-999	9	[0, 0, 0]	n/a	catFR1	3	R1488T
1067.215	10.0	1068940	COUNTDOWN_START	n/a	n/a	n/a	n/a	-999	10	[0, 0, 0]	n/a	catFR1	3	R1488T
1077.564	0.0	1079285	COUNTDOWN_END	n/a	n/a	n/a	n/a	-999	10	[0, 0, 0]	n/a	catFR1	3	R1488T
1077.564	2.017	1079295	ENCODING_START	n/a	n/a	n/a	n/a	-999	10	[0, 0, 0]	n/a	catFR1	3	R1488T
1079.581	1.6	1081307	WORD	n/a	wordpools/wordpool_categorized_EN.txt	BEAR	Zoo	1	10	[0, 0, 0]	n/a	catFR1	3	R1488T
1081.181	0.95	1082904	WORD_OFF	n/a	n/a	BEAR	Zoo	1	10	[0, 0, 0]	n/a	catFR1	3	R1488T
1082.131	1.6	1083858	WORD	n/a	wordpools/wordpool_categorized_EN.txt	PANDA	Zoo	2	10	[0, 0, 0]	n/a	catFR1	3	R1488T
1083.748	0.834	1085474	WORD_OFF	n/a	n/a	PANDA	Zoo	2	10	[0, 0, 0]	n/a	catFR1	3	R1488T
1084.582	1.6	1086305	WORD	n/a	wordpools/wordpool_categorized_EN.txt	BULL	FarmAnimals	3	10	[0, 0, 0]	n/a	catFR1	3	R1488T
1086.198	0.85	1087920	WORD_OFF	n/a	n/a	BULL	FarmAnimals	3	10	[0, 0, 0]	n/a	catFR1	3	R1488T
1087.048	1.6	1088771	WORD	n/a	wordpools/wordpool_categorized_EN.txt	SHEEP	FarmAnimals	4	10	[0, 0, 0]	n/a	catFR1	3	R1488T
1088.649	0.915	1090377	WORD_OFF	n/a	n/a	SHEEP	FarmAnimals	4	10	[0, 0, 0]	n/a	catFR1	3	R1488T
1089.564	1.6	1091284	WORD	n/a	wordpools/wordpool_categorized_EN.txt	FOUNDATION	Building	5	10	[0, 0, 0]	n/a	catFR1	3	R1488T
1091.165	0.983	1092890	WORD_OFF	n/a	n/a	FOUNDATION	Building	5	10	[0, 0, 0]	n/a	catFR1	3	R1488T
1092.148	1.6	1093872	WORD	n/a	wordpools/wordpool_categorized_EN.txt	HALLWAY	Building	6	10	[0, 0, 0]	n/a	catFR1	3	R1488T
1093.748	0.783	1095469	WORD_OFF	n/a	n/a	HALLWAY	Building	6	10	[0, 0, 0]	n/a	catFR1	3	R1488T
1094.531	1.6	1096253	WORD	n/a	wordpools/wordpool_categorized_EN.txt	ZEBRA	Zoo	7	10	[0, 0, 0]	n/a	catFR1	3	R1488T
1096.149	0.783	1097869	WORD_OFF	n/a	n/a	ZEBRA	Zoo	7	10	[0, 0, 0]	n/a	catFR1	3	R1488T
1096.932	1.6	1098653	WORD	n/a	wordpools/wordpool_categorized_EN.txt	GIRAFFE	Zoo	8	10	[0, 0, 0]	n/a	catFR1	3	R1488T
1098.548	0.817	1100269	WORD_OFF	n/a	n/a	GIRAFFE	Zoo	8	10	[0, 0, 0]	n/a	catFR1	3	R1488T
1099.365	1.6	1101090	WORD	n/a	wordpools/wordpool_categorized_EN.txt	COW	FarmAnimals	9	10	[0, 0, 0]	n/a	catFR1	3	R1488T
1100.965	0.966	1102687	WORD_OFF	n/a	n/a	COW	FarmAnimals	9	10	[0, 0, 0]	n/a	catFR1	3	R1488T
1101.931	1.6	1103651	WORD	n/a	wordpools/wordpool_categorized_EN.txt	HEN	FarmAnimals	10	10	[0, 0, 0]	n/a	catFR1	3	R1488T
1103.532	0.783	1105257	WORD_OFF	n/a	n/a	HEN	FarmAnimals	10	10	[0, 0, 0]	n/a	catFR1	3	R1488T
1104.315	1.6	1106041	WORD	n/a	wordpools/wordpool_categorized_EN.txt	ROOF	Building	11	10	[0, 0, 0]	n/a	catFR1	3	R1488T
1105.931	0.934	1107657	WORD_OFF	n/a	n/a	ROOF	Building	11	10	[0, 0, 0]	n/a	catFR1	3	R1488T
1106.865	1.6	1108592	WORD	n/a	wordpools/wordpool_categorized_EN.txt	STAIRS	Building	12	10	[0, 0, 0]	n/a	catFR1	3	R1488T
1108.48	0.0	1110206	PROB	6.401	n/a	n/a	n/a	-999	10	[7, 2, 3]	12.0	catFR1	3	R1488T
1108.48	0.002	1110207	WORD_OFF	n/a	n/a	STAIRS	Building	12	10	[0, 0, 0]	n/a	catFR1	3	R1488T
1108.482	0.0	1110207	ENCODING_END	n/a	n/a	n/a	n/a	-999	10	[0, 0, 0]	n/a	catFR1	3	R1488T
1108.482	0.0	1110207	DISTRACT_START	n/a	n/a	n/a	n/a	-999	10	[0, 0, 0]	n/a	catFR1	3	R1488T
1108.482	6.417	1110208	START	n/a	n/a	n/a	n/a	-999	10	[-999, -999, -999]	n/a	catFR1	3	R1488T
1114.899	6.683	1116625	PROB	6.665	n/a	n/a	n/a	-999	10	[2, 4, 2]	8.0	catFR1	3	R1488T
1121.582	7.649	1123307	PROB	7.633	n/a	n/a	n/a	-999	10	[6, 5, 3]	14.0	catFR1	3	R1488T
1129.231	0.0	1130954	DISTRACT_END	n/a	n/a	n/a	n/a	-999	10	[0, 0, 0]	n/a	catFR1	3	R1488T
1129.231	2.233	1130956	STOP	n/a	n/a	n/a	n/a	-999	10	[-999, -999, -999]	n/a	catFR1	3	R1488T
1131.464	3.608	1133183	REC_START	n/a	n/a	n/a	n/a	-999	10	[0, 0, 0]	n/a	catFR1	3	R1488T
1135.072	2.754	1136797	REC_WORD	3.608	n/a	BEAR	Zoo	1	10	[0, 0, 0]	n/a	catFR1	3	R1488T
1137.826	4.54	1139550	REC_WORD	6.362	n/a	PANDA	Zoo	2	10	[0, 0, 0]	n/a	catFR1	3	R1488T
1142.366	2.423	1144090	REC_WORD	10.902	n/a	POOL	n/a	-999	10	[0, 0, 0]	n/a	catFR1	3	R1488T
1144.789	7.649	1146513	REC_WORD	13.325	n/a	GIRAFFE	Zoo	8	10	[0, 0, 0]	n/a	catFR1	3	R1488T
1152.438	3.693	1154162	REC_WORD	20.974	n/a	GIFT	n/a	-999	10	[0, 0, 0]	n/a	catFR1	3	R1488T
1156.131	4.627	1157855	REC_WORD_VV	24.667	n/a	<>	n/a	-999	10	[0, 0, 0]	n/a	catFR1	3	R1488T
1160.758	0.925	1162481	REC_WORD	29.294	n/a	HALLWAY	Building	6	10	[0, 0, 0]	n/a	catFR1	3	R1488T
1161.683	5.215	1163407	REC_END	n/a	n/a	n/a	n/a	-999	10	[0, 0, 0]	n/a	catFR1	3	R1488T
1166.898	10.0	1168622	COUNTDOWN_START	n/a	n/a	n/a	n/a	-999	11	[0, 0, 0]	n/a	catFR1	3	R1488T
1177.247	0.0	1178967	COUNTDOWN_END	n/a	n/a	n/a	n/a	-999	11	[0, 0, 0]	n/a	catFR1	3	R1488T
1177.247	2.135	1178967	ENCODING_START	n/a	n/a	n/a	n/a	-999	11	[0, 0, 0]	n/a	catFR1	3	R1488T
1179.382	1.6	1181102	WORD	n/a	wordpools/wordpool_categorized_EN.txt	SATIN	Fabric	1	11	[0, 0, 0]	n/a	catFR1	3	R1488T
1180.981	0.801	1182699	WORD_OFF	n/a	n/a	SATIN	Fabric	1	11	[0, 0, 0]	n/a	catFR1	3	R1488T
1181.782	1.6	1183502	WORD	n/a	wordpools/wordpool_categorized_EN.txt	SPANDEX	Fabric	2	11	[0, 0, 0]	n/a	catFR1	3	R1488T
1183.398	0.983	1185118	WORD_OFF	n/a	n/a	SPANDEX	Fabric	2	11	[0, 0, 0]	n/a	catFR1	3	R1488T
1184.381	1.6	1186100	WORD	n/a	wordpools/wordpool_categorized_EN.txt	FLOOR	Building	3	11	[0, 0, 0]	n/a	catFR1	3	R1488T
1185.998	0.833	1187716	WORD_OFF	n/a	n/a	FLOOR	Building	3	11	[0, 0, 0]	n/a	catFR1	3	R1488T
1186.831	1.6	1188547	WORD	n/a	wordpools/wordpool_categorized_EN.txt	ATTIC	Building	4	11	[0, 0, 0]	n/a	catFR1	3	R1488T
1188.431	0.984	1190153	WORD_OFF	n/a	n/a	ATTIC	Building	4	11	[0, 0, 0]	n/a	catFR1	3	R1488T
1189.415	1.6	1191136	WORD	n/a	wordpools/wordpool_categorized_EN.txt	SPRUCE	Trees	5	11	[0, 0, 0]	n/a	catFR1	3	R1488T
1191.031	0.951	1192751	WORD_OFF	n/a	n/a	SPRUCE	Trees	5	11	[0, 0, 0]	n/a	catFR1	3	R1488T
1191.982	1.6	1193705	WORD	n/a	wordpools/wordpool_categorized_EN.txt	OAK	Trees	6	11	[0, 0, 0]	n/a	catFR1	3	R1488T
1193.598	0.817	1195321	WORD_OFF	n/a	n/a	OAK	Trees	6	11	[0, 0, 0]	n/a	catFR1	3	R1488T
1194.415	1.6	1196133	WORD	n/a	wordpools/wordpool_categorized_EN.txt	SUEDE	Fabric	7	11	[0, 0, 0]	n/a	catFR1	3	R1488T
1196.015	0.883	1197730	WORD_OFF	n/a	n/a	SUEDE	Fabric	7	11	[0, 0, 0]	n/a	catFR1	3	R1488T
1196.898	1.6	1198618	WORD	n/a	wordpools/wordpool_categorized_EN.txt	LEATHER	Fabric	8	11	[0, 0, 0]	n/a	catFR1	3	R1488T
1198.498	0.783	1200215	WORD_OFF	n/a	n/a	LEATHER	Fabric	8	11	[0, 0, 0]	n/a	catFR1	3	R1488T
1199.281	1.6	1200999	WORD	n/a	wordpools/wordpool_categorized_EN.txt	ELM	Trees	9	11	[0, 0, 0]	n/a	catFR1	3	R1488T
1200.881	0.85	1202596	WORD_OFF	n/a	n/a	ELM	Trees	9	11	[0, 0, 0]	n/a	catFR1	3	R1488T
1201.731	1.6	1203446	WORD	n/a	wordpools/wordpool_categorized_EN.txt	EVERGREEN	Trees	10	11	[0, 0, 0]	n/a	catFR1	3	R1488T
1203.332	0.866	1205052	WORD_OFF	n/a	n/a	EVERGREEN	Trees	10	11	[0, 0, 0]	n/a	catFR1	3	R1488T
1204.198	1.6	1205921	WORD	n/a	wordpools/wordpool_categorized_EN.txt	ROOM	Building	11	11	[0, 0, 0]	n/a	catFR1	3	R1488T
1205.815	0.783	1207537	WORD_OFF	n/a	n/a	ROOM	Building	11	11	[0, 0, 0]	n/a	catFR1	3	R1488T
1206.598	1.6	1208321	WORD	n/a	wordpools/wordpool_categorized_EN.txt	CEILING	Building	12	11	[0, 0, 0]	n/a	catFR1	3	R1488T
1208.198	0.001	1209918	WORD_OFF	n/a	n/a	CEILING	Building	12	11	[0, 0, 0]	n/a	catFR1	3	R1488T
1208.199	0.0	1209918	ENCODING_END	n/a	n/a	n/a	n/a	-999	11	[0, 0, 0]	n/a	catFR1	3	R1488T
1208.199	0.0	1209918	DISTRACT_START	n/a	n/a	n/a	n/a	-999	11	[0, 0, 0]	n/a	catFR1	3	R1488T
1208.199	0.001	1209920	START	n/a	n/a	n/a	n/a	-999	11	[-999, -999, -999]	n/a	catFR1	3	R1488T
1208.2	11.181	1209921	PROB	11.166	n/a	n/a	n/a	-999	11	[5, 1, 8]	14.0	catFR1	3	R1488T
1219.381	6.534	1221101	PROB	6.517	n/a	n/a	n/a	-999	11	[5, 8, 6]	19.0	catFR1	3	R1488T
1225.915	7.432	1227635	PROB	7.416	n/a	n/a	n/a	-999	11	[7, 6, 8]	21.0	catFR1	3	R1488T
1233.347	0.0	1235067	DISTRACT_END	n/a	n/a	n/a	n/a	-999	11	[0, 0, 0]	n/a	catFR1	3	R1488T
1233.347	2.267	1235067	STOP	n/a	n/a	n/a	n/a	-999	11	[-999, -999, -999]	n/a	catFR1	3	R1488T
1235.614	2.97	1237333	REC_START	n/a	n/a	n/a	n/a	-999	11	[0, 0, 0]	n/a	catFR1	3	R1488T
1238.584	1.088	1240303	REC_WORD	2.97	n/a	SPRUCE	Trees	5	11	[0, 0, 0]	n/a	catFR1	3	R1488T
1239.672	3.385	1241391	REC_WORD	4.058	n/a	EVERGREEN	Trees	10	11	[0, 0, 0]	n/a	catFR1	3	R1488T
1243.057	6.354	1244776	REC_WORD	7.443	n/a	ELM	Trees	9	11	[0, 0, 0]	n/a	catFR1	3	R1488T
1249.411	4.65	1251130	REC_WORD	13.797	n/a	MOSQUITO	Insects	-999	11	[0, 0, 0]	n/a	catFR1	3	R1488T
1254.061	11.777	1255780	REC_WORD	18.447	n/a	PINE	n/a	-999	11	[0, 0, 0]	n/a	catFR1	3	R1488T
1265.838	4.81	1267557	REC_END	n/a	n/a	n/a	n/a	-999	11	[0, 0, 0]	n/a	catFR1	3	R1488T
1270.648	10.0	1272366	COUNTDOWN_START	n/a	n/a	n/a	n/a	-999	12	[0, 0, 0]	n/a	catFR1	3	R1488T
1280.997	0.0	1282711	COUNTDOWN_END	n/a	n/a	n/a	n/a	-999	12	[0, 0, 0]	n/a	catFR1	3	R1488T
1280.997	2.151	1282711	ENCODING_START	n/a	n/a	n/a	n/a	-999	12	[0, 0, 0]	n/a	catFR1	3	R1488T
1283.148	1.6	1284865	WORD	n/a	wordpools/wordpool_categorized_EN.txt	WALNUT	Trees	1	12	[0, 0, 0]	n/a	catFR1	3	R1488T
1284.748	0.8	1286462	WORD_OFF	n/a	n/a	WALNUT	Trees	1	12	[0, 0, 0]	n/a	catFR1	3	R1488T
1285.548	1.6	1287265	WORD	n/a	wordpools/wordpool_categorized_EN.txt	BIRCH	Trees	2	12	[0, 0, 0]	n/a	catFR1	3	R1488T
1287.165	0.9	1288881	WORD_OFF	n/a	n/a	BIRCH	Trees	2	12	[0, 0, 0]	n/a	catFR1	3	R1488T
1288.065	1.6	1289778	WORD	n/a	wordpools/wordpool_categorized_EN.txt	TELEVISION	Electronics	3	12	[0, 0, 0]	n/a	catFR1	3	R1488T
1289.665	0.783	1291375	WORD_OFF	n/a	n/a	TELEVISION	Electronics	3	12	[0, 0, 0]	n/a	catFR1	3	R1488T
1290.448	1.6	1292159	WORD	n/a	wordpools/wordpool_categorized_EN.txt	STEREO	Electronics	4	12	[0, 0, 0]	n/a	catFR1	3	R1488T
1292.065	0.833	1293775	WORD_OFF	n/a	n/a	STEREO	Electronics	4	12	[0, 0, 0]	n/a	catFR1	3	R1488T
1292.898	1.6	1294615	WORD	n/a	wordpools/wordpool_categorized_EN.txt	LAMB	FarmAnimals	5	12	[0, 0, 0]	n/a	catFR1	3	R1488T
1294.515	1.0	1296231	WORD_OFF	n/a	n/a	LAMB	FarmAnimals	5	12	[0, 0, 0]	n/a	catFR1	3	R1488T
1295.515	1.6	1297232	WORD	n/a	wordpools/wordpool_categorized_EN.txt	CHICKEN	FarmAnimals	6	12	[0, 0, 0]	n/a	catFR1	3	R1488T
1297.131	0.884	1298848	WORD_OFF	n/a	n/a	CHICKEN	FarmAnimals	6	12	[0, 0, 0]	n/a	catFR1	3	R1488T
1298.015	1.6	1299727	WORD	n/a	wordpools/wordpool_categorized_EN.txt	PHONE	Electronics	7	12	[0, 0, 0]	n/a	catFR1	3	R1488T
1299.63	0.851	1301342	WORD_OFF	n/a	n/a	PHONE	Electronics	7	12	[0, 0, 0]	n/a	catFR1	3	R1488T
1300.481	1.6	1302192	WORD	n/a	wordpools/wordpool_categorized_EN.txt	PRINTER	Electronics	8	12	[0, 0, 0]	n/a	catFR1	3	R1488T
1302.082	0.899	1303798	WORD_OFF	n/a	n/a	PRINTER	Electronics	8	12	[0, 0, 0]	n/a	catFR1	3	R1488T
1302.981	1.6	1304696	WORD	n/a	wordpools/wordpool_categorized_EN.txt	HORSE	FarmAnimals	9	12	[0, 0, 0]	n/a	catFR1	3	R1488T
1304.582	0.899	1306293	WORD_OFF	n/a	n/a	HORSE	FarmAnimals	9	12	[0, 0, 0]	n/a	catFR1	3	R1488T
1305.481	1.6	1307190	WORD	n/a	wordpools/wordpool_categorized_EN.txt	ROOSTER	FarmAnimals	10	12	[0, 0, 0]	n/a	catFR1	3	R1488T
1307.081	0.8	1308796	WORD_OFF	n/a	n/a	ROOSTER	FarmAnimals	10	12	[0, 0, 0]	n/a	catFR1	3	R1488T
1307.881	1.6	1309599	WORD	n/a	wordpools/wordpool_categorized_EN.txt	PINE	Trees	11	12	[0, 0, 0]	n/a	catFR1	3	R1488T
1309.498	0.883	1311215	WORD_OFF	n/a	n/a	PINE	Trees	11	12	[0, 0, 0]	n/a	catFR1	3	R1488T
1310.381	1.6	1312093	WORD	n/a	wordpools/wordpool_categorized_EN.txt	HICKORY	Trees	12	12	[0, 0, 0]	n/a	catFR1	3	R1488T
1311.981	0.001	1313690	WORD_OFF	n/a	n/a	HICKORY	Trees	12	12	[0, 0, 0]	n/a	catFR1	3	R1488T
1311.982	0.001	1313698	PROB	6.615	n/a	n/a	n/a	-999	12	[1, 6, 3]	10.0	catFR1	3	R1488T
1311.983	0.0	1313699	START	n/a	n/a	n/a	n/a	-999	12	[-999, -999, -999]	n/a	catFR1	3	R1488T
1311.983	0.0	1313700	ENCODING_END	n/a	n/a	n/a	n/a	-999	12	[0, 0, 0]	n/a	catFR1	3	R1488T
1311.983	6.632	1313700	DISTRACT_START	n/a	n/a	n/a	n/a	-999	12	[0, 0, 0]	n/a	catFR1	3	R1488T
1318.615	5.934	1320330	PROB	5.916	n/a	n/a	n/a	-999	12	[8, 3, 2]	13.0	catFR1	3	R1488T
1324.549	6.433	1326264	PROB	6.416	n/a	n/a	n/a	-999	12	[1, 5, 3]	9.0	catFR1	3	R1488T
1330.982	8.165	1332697	PROB	8.149	n/a	n/a	n/a	-999	12	[5, 3, 4]	12.0	catFR1	3	R1488T
1339.147	0.0	1340861	DISTRACT_END	n/a	n/a	n/a	n/a	-999	12	[0, 0, 0]	n/a	catFR1	3	R1488T
1339.147	2.3	1340861	STOP	n/a	n/a	n/a	n/a	-999	12	[-999, -999, -999]	n/a	catFR1	3	R1488T
1341.447	2.481	1343156	REC_START	n/a	n/a	n/a	n/a	-999	12	[0, 0, 0]	n/a	catFR1	3	R1488T
1343.928	0.734	1345642	REC_WORD	2.481	n/a	HICKORY	Trees	12	12	[0, 0, 0]	n/a	catFR1	3	R1488T
1344.662	1.621	1346376	REC_WORD	3.215	n/a	BIRCH	Trees	2	12	[0, 0, 0]	n/a	catFR1	3	R1488T
1346.283	2.754	1347997	REC_WORD	4.836	n/a	WALNUT	Trees	1	12	[0, 0, 0]	n/a	catFR1	3	R1488T
1349.037	7.588	1350751	REC_WORD	7.59	n/a	TELEVISION	Electronics	3	12	[0, 0, 0]	n/a	catFR1	3	R1488T
1356.625	15.041	1358338	REC_WORD	15.178	n/a	TABLE	Furniture	-999	12	[0, 0, 0]	n/a	catFR1	3	R1488T
1371.666	0.0	1373371	REC_END	n/a	n/a	n/a	n/a	-999	12	[0, 0, 0]	n/a	catFR1	3	R1488T
