onset	duration	sample	trial_type	response_time	stim_file	item_name	category	serialpos	list	test	answer	experiment	session	subject
0.0	1.383	2063	INSTRUCT_START	n/a	n/a	n/a	n/a	-999	-999	[0, 0, 0]	n/a	catFR1	3	R1501J
1.383	58.117	3452	INSTRUCT_END	n/a	n/a	n/a	n/a	-999	-999	[0, 0, 0]	n/a	catFR1	3	R1501J
59.5	10.349	61556	COUNTDOWN_START	n/a	n/a	n/a	n/a	-999	-999	[0, 0, 0]	n/a	catFR1	3	R1501J
69.849	0.0	71913	COUNTDOWN_END	n/a	n/a	n/a	n/a	-999	-999	[0, 0, 0]	n/a	catFR1	3	R1501J
69.849	2.168	71913	ENCODING_START	n/a	n/a	n/a	n/a	-999	-1	[0, 0, 0]	n/a	catFR1	3	R1501J
72.017	1.599	74082	WORD	n/a	n/a	CEILING	Building	1	-1	[0, 0, 0]	n/a	catFR1	3	R1501J
73.616	0.934	75682	WORD_OFF	n/a	n/a	CEILING	Building	1	-1	[0, 0, 0]	n/a	catFR1	3	R1501J
74.55	1.616	76608	WORD	n/a	n/a	HALLWAY	Building	2	-1	[0, 0, 0]	n/a	catFR1	3	R1501J
76.166	0.784	78222	WORD_OFF	n/a	n/a	HALLWAY	Building	2	-1	[0, 0, 0]	n/a	catFR1	3	R1501J
76.95	1.616	79016	WORD	n/a	n/a	PAPER	OfficeSupplies	3	-1	[0, 0, 0]	n/a	catFR1	3	R1501J
78.566	0.866	80629	WORD_OFF	n/a	n/a	PAPER	OfficeSupplies	3	-1	[0, 0, 0]	n/a	catFR1	3	R1501J
79.432	1.616	81489	WORD	n/a	n/a	GLUE	OfficeSupplies	4	-1	[0, 0, 0]	n/a	catFR1	3	R1501J
81.048	0.901	83103	WORD_OFF	n/a	n/a	GLUE	OfficeSupplies	4	-1	[0, 0, 0]	n/a	catFR1	3	R1501J
81.949	1.617	84002	WORD	n/a	n/a	BLUEBIRD	Birds	5	-1	[0, 0, 0]	n/a	catFR1	3	R1501J
83.566	0.85	85629	WORD_OFF	n/a	n/a	BLUEBIRD	Birds	5	-1	[0, 0, 0]	n/a	catFR1	3	R1501J
84.416	1.616	86475	WORD	n/a	n/a	DUCK	Birds	6	-1	[0, 0, 0]	n/a	catFR1	3	R1501J
86.032	0.817	88089	WORD_OFF	n/a	n/a	DUCK	Birds	6	-1	[0, 0, 0]	n/a	catFR1	3	R1501J
86.849	1.6	88909	WORD	n/a	n/a	STAIRS	Building	7	-1	[0, 0, 0]	n/a	catFR1	3	R1501J
88.449	0.815	90510	WORD_OFF	n/a	n/a	STAIRS	Building	7	-1	[0, 0, 0]	n/a	catFR1	3	R1501J
89.264	1.602	91316	WORD	n/a	n/a	FLOOR	Building	8	-1	[0, 0, 0]	n/a	catFR1	3	R1501J
90.866	0.999	92930	WORD_OFF	n/a	n/a	FLOOR	Building	8	-1	[0, 0, 0]	n/a	catFR1	3	R1501J
91.865	1.6	93922	WORD	n/a	n/a	FOLDER	OfficeSupplies	9	-1	[0, 0, 0]	n/a	catFR1	3	R1501J
93.465	0.817	95522	WORD_OFF	n/a	n/a	FOLDER	OfficeSupplies	9	-1	[0, 0, 0]	n/a	catFR1	3	R1501J
94.282	1.616	96342	WORD	n/a	n/a	RULER	OfficeSupplies	10	-1	[0, 0, 0]	n/a	catFR1	3	R1501J
95.898	0.85	97956	WORD_OFF	n/a	n/a	RULER	OfficeSupplies	10	-1	[0, 0, 0]	n/a	catFR1	3	R1501J
96.748	1.617	98803	WORD	n/a	n/a	FINCH	Birds	11	-1	[0, 0, 0]	n/a	catFR1	3	R1501J
98.365	0.783	100416	WORD_OFF	n/a	n/a	FINCH	Birds	11	-1	[0, 0, 0]	n/a	catFR1	3	R1501J
99.148	1.6	101210	WORD	n/a	n/a	HAWK	Birds	12	-1	[0, 0, 0]	n/a	catFR1	3	R1501J
100.748	0.003	102810	WORD_OFF	n/a	n/a	HAWK	Birds	12	-1	[0, 0, 0]	n/a	catFR1	3	R1501J
100.751	0.0	102810	ENCODING_END	n/a	n/a	n/a	n/a	-999	-1	[0, 0, 0]	n/a	catFR1	3	R1501J
100.751	0.0	102810	DISTRACT_START	n/a	n/a	n/a	n/a	-999	-1	[0, 0, 0]	n/a	catFR1	3	R1501J
100.749	0.002	102813	PROB	8.767	n/a	n/a	n/a	-999	-1	[6, 3, 7]	16.0	catFR1	3	R1501J
100.751	8.781	102815	START	n/a	n/a	n/a	n/a	-999	-1	[-999, -999, -999]	n/a	catFR1	3	R1501J
109.532	8.583	111595	PROB	8.566	n/a	n/a	n/a	-999	-1	[5, 6, 4]	15.0	catFR1	3	R1501J
118.115	3.933	120178	PROB	3.917	n/a	n/a	n/a	-999	-1	[2, 7, 1]	10.0	catFR1	3	R1501J
122.048	0.0	124105	DISTRACT_END	n/a	n/a	n/a	n/a	-999	-1	[0, 0, 0]	n/a	catFR1	3	R1501J
122.048	1.283	124111	STOP	n/a	n/a	n/a	n/a	-999	-1	[-999, -999, -999]	n/a	catFR1	3	R1501J
123.331	0.809	125388	REC_START	n/a	n/a	n/a	n/a	-999	-1	[0, 0, 0]	n/a	catFR1	3	R1501J
124.14	1.23	126203	REC_WORD	0.809	n/a	CEILING	Building	1	-1	[0, 0, 0]	n/a	catFR1	3	R1501J
125.37	1.773	127433	REC_WORD	2.039	n/a	HALLWAY	Building	2	-1	[0, 0, 0]	n/a	catFR1	3	R1501J
127.143	1.212	129205	REC_WORD	3.812	n/a	PAPER	OfficeSupplies	3	-1	[0, 0, 0]	n/a	catFR1	3	R1501J
128.355	1.666	130417	REC_WORD	5.024	n/a	GLUE	OfficeSupplies	4	-1	[0, 0, 0]	n/a	catFR1	3	R1501J
130.021	1.478	132083	REC_WORD	6.69	n/a	BLUEBIRD	Birds	5	-1	[0, 0, 0]	n/a	catFR1	3	R1501J
131.499	3.604	133561	REC_WORD	8.168	n/a	FINCH	Birds	11	-1	[0, 0, 0]	n/a	catFR1	3	R1501J
135.103	3.027	137165	REC_WORD	11.772	n/a	SANDPAPER	n/a	-999	-1	[0, 0, 0]	n/a	catFR1	3	R1501J
138.13	16.391	140192	REC_WORD_VV	14.799	n/a	<>	n/a	-999	-1	[0, 0, 0]	n/a	catFR1	3	R1501J
154.521	10.379	156577	REC_END	n/a	n/a	n/a	n/a	-999	-1	[0, 0, 0]	n/a	catFR1	3	R1501J
164.9	10.349	166960	COUNTDOWN_START	n/a	n/a	n/a	n/a	-999	1	[0, 0, 0]	n/a	catFR1	3	R1501J
175.249	0.0	177303	COUNTDOWN_END	n/a	n/a	n/a	n/a	-999	1	[0, 0, 0]	n/a	catFR1	3	R1501J
175.249	2.084	177303	ENCODING_START	n/a	n/a	n/a	n/a	-999	1	[0, 0, 0]	n/a	catFR1	3	R1501J
177.333	1.616	179393	WORD	n/a	wordpools/wordpool_categorized_EN.txt	HUMIDITY	Weather	1	1	[0, 0, 0]	n/a	catFR1	3	R1501J
178.949	0.933	181006	WORD_OFF	n/a	n/a	HUMIDITY	Weather	1	1	[0, 0, 0]	n/a	catFR1	3	R1501J
179.882	1.617	181932	WORD	n/a	wordpools/wordpool_categorized_EN.txt	SNOW	Weather	2	1	[0, 0, 0]	n/a	catFR1	3	R1501J
181.499	0.849	183559	WORD_OFF	n/a	n/a	SNOW	Weather	2	1	[0, 0, 0]	n/a	catFR1	3	R1501J
182.348	1.601	184406	WORD	n/a	wordpools/wordpool_categorized_EN.txt	GRAPE	Fruit	3	1	[0, 0, 0]	n/a	catFR1	3	R1501J
183.949	0.784	186006	WORD_OFF	n/a	n/a	GRAPE	Fruit	3	1	[0, 0, 0]	n/a	catFR1	3	R1501J
184.733	1.6	186786	WORD	n/a	wordpools/wordpool_categorized_EN.txt	PEACH	Fruit	4	1	[0, 0, 0]	n/a	catFR1	3	R1501J
186.333	0.866	188387	WORD_OFF	n/a	n/a	PEACH	Fruit	4	1	[0, 0, 0]	n/a	catFR1	3	R1501J
187.199	1.616	189260	WORD	n/a	wordpools/wordpool_categorized_EN.txt	BROCCOLI	Vegetables	5	1	[0, 0, 0]	n/a	catFR1	3	R1501J
188.815	0.783	190873	WORD_OFF	n/a	n/a	BROCCOLI	Vegetables	5	1	[0, 0, 0]	n/a	catFR1	3	R1501J
189.598	1.6	191654	WORD	n/a	wordpools/wordpool_categorized_EN.txt	POTATO	Vegetables	6	1	[0, 0, 0]	n/a	catFR1	3	R1501J
191.198	0.85	193254	WORD_OFF	n/a	n/a	POTATO	Vegetables	6	1	[0, 0, 0]	n/a	catFR1	3	R1501J
192.048	1.616	194101	WORD	n/a	wordpools/wordpool_categorized_EN.txt	APPLE	Fruit	7	1	[0, 0, 0]	n/a	catFR1	3	R1501J
193.664	0.901	195714	WORD_OFF	n/a	n/a	APPLE	Fruit	7	1	[0, 0, 0]	n/a	catFR1	3	R1501J
194.565	1.6	196614	WORD	n/a	wordpools/wordpool_categorized_EN.txt	ORANGE	Fruit	8	1	[0, 0, 0]	n/a	catFR1	3	R1501J
196.165	0.882	198214	WORD_OFF	n/a	n/a	ORANGE	Fruit	8	1	[0, 0, 0]	n/a	catFR1	3	R1501J
197.047	1.601	199100	WORD	n/a	wordpools/wordpool_categorized_EN.txt	CAULIFLOWER	Vegetables	9	1	[0, 0, 0]	n/a	catFR1	3	R1501J
198.648	0.784	200701	WORD_OFF	n/a	n/a	CAULIFLOWER	Vegetables	9	1	[0, 0, 0]	n/a	catFR1	3	R1501J
199.432	1.6	201481	WORD	n/a	wordpools/wordpool_categorized_EN.txt	CABBAGE	Vegetables	10	1	[0, 0, 0]	n/a	catFR1	3	R1501J
201.032	0.832	203082	WORD_OFF	n/a	n/a	CABBAGE	Vegetables	10	1	[0, 0, 0]	n/a	catFR1	3	R1501J
201.864	1.601	203915	WORD	n/a	wordpools/wordpool_categorized_EN.txt	TORNADO	Weather	11	1	[0, 0, 0]	n/a	catFR1	3	R1501J
203.465	0.851	205515	WORD_OFF	n/a	n/a	TORNADO	Weather	11	1	[0, 0, 0]	n/a	catFR1	3	R1501J
204.316	1.616	206375	WORD	n/a	wordpools/wordpool_categorized_EN.txt	FOG	Weather	12	1	[0, 0, 0]	n/a	catFR1	3	R1501J
205.932	0.004	207989	WORD_OFF	n/a	n/a	FOG	Weather	12	1	[0, 0, 0]	n/a	catFR1	3	R1501J
205.936	0.0	207989	ENCODING_END	n/a	n/a	n/a	n/a	-999	1	[0, 0, 0]	n/a	catFR1	3	R1501J
205.936	0.0	207989	DISTRACT_START	n/a	n/a	n/a	n/a	-999	1	[0, 0, 0]	n/a	catFR1	3	R1501J
205.933	0.003	207992	PROB	5.566	n/a	n/a	n/a	-999	1	[2, 1, 7]	10.0	catFR1	3	R1501J
205.936	5.58	207995	START	n/a	n/a	n/a	n/a	-999	1	[-999, -999, -999]	n/a	catFR1	3	R1501J
211.516	4.632	213575	PROB	4.616	n/a	n/a	n/a	-999	1	[2, 6, 3]	11.0	catFR1	3	R1501J
216.148	5.15	218207	PROB	5.134	n/a	n/a	n/a	-999	1	[3, 5, 1]	9.0	catFR1	3	R1501J
221.298	3.517	223357	PROB	3.5	n/a	n/a	n/a	-999	1	[7, 8, 1]	16.0	catFR1	3	R1501J
224.815	8.8	226873	PROB	8.783	n/a	n/a	n/a	-999	1	[3, 4, 5]	12.0	catFR1	3	R1501J
233.615	0.0	235672	DISTRACT_END	n/a	n/a	n/a	n/a	-999	1	[0, 0, 0]	n/a	catFR1	3	R1501J
233.615	1.265	235673	STOP	n/a	n/a	n/a	n/a	-999	1	[-999, -999, -999]	n/a	catFR1	3	R1501J
234.88	0.976	236929	REC_START	n/a	n/a	n/a	n/a	-999	1	[0, 0, 0]	n/a	catFR1	3	R1501J
235.856	1.544	237914	REC_WORD	0.976	n/a	HUMIDITY	Weather	1	1	[0, 0, 0]	n/a	catFR1	3	R1501J
237.4	1.665	239458	REC_WORD	2.52	n/a	SNOW	Weather	2	1	[0, 0, 0]	n/a	catFR1	3	R1501J
239.065	1.784	241123	REC_WORD	4.185	n/a	GRAPE	Fruit	3	1	[0, 0, 0]	n/a	catFR1	3	R1501J
240.849	1.8	242907	REC_WORD	5.969	n/a	PEACH	Fruit	4	1	[0, 0, 0]	n/a	catFR1	3	R1501J
242.649	11.206	244707	REC_WORD	7.769	n/a	CAULIFLOWER	Vegetables	9	1	[0, 0, 0]	n/a	catFR1	3	R1501J
253.855	2.258	255912	REC_WORD_VV	18.975	n/a	<>	n/a	-999	1	[0, 0, 0]	n/a	catFR1	3	R1501J
256.113	1.027	258170	REC_WORD	21.233	n/a	CAULIFLOWER	Vegetables	9	1	[0, 0, 0]	n/a	catFR1	3	R1501J
257.14	3.166	259197	REC_WORD	22.26	n/a	BROCCOLI	Vegetables	5	1	[0, 0, 0]	n/a	catFR1	3	R1501J
260.306	5.792	262363	REC_WORD	25.426	n/a	CHICKEN	n/a	-999	1	[0, 0, 0]	n/a	catFR1	3	R1501J
266.098	2.767	268144	REC_END	n/a	n/a	n/a	n/a	-999	1	[0, 0, 0]	n/a	catFR1	3	R1501J
268.865	10.35	270921	COUNTDOWN_START	n/a	n/a	n/a	n/a	-999	2	[0, 0, 0]	n/a	catFR1	3	R1501J
279.215	0.0	281264	COUNTDOWN_END	n/a	n/a	n/a	n/a	-999	2	[0, 0, 0]	n/a	catFR1	3	R1501J
279.215	2.167	281264	ENCODING_START	n/a	n/a	n/a	n/a	-999	2	[0, 0, 0]	n/a	catFR1	3	R1501J
281.382	1.601	283434	WORD	n/a	wordpools/wordpool_categorized_EN.txt	CHICKEN	FarmAnimals	1	2	[0, 0, 0]	n/a	catFR1	3	R1501J
282.983	0.783	285034	WORD_OFF	n/a	n/a	CHICKEN	FarmAnimals	1	2	[0, 0, 0]	n/a	catFR1	3	R1501J
283.766	1.617	285814	WORD	n/a	wordpools/wordpool_categorized_EN.txt	ROOSTER	FarmAnimals	2	2	[0, 0, 0]	n/a	catFR1	3	R1501J
285.383	0.966	287428	WORD_OFF	n/a	n/a	ROOSTER	FarmAnimals	2	2	[0, 0, 0]	n/a	catFR1	3	R1501J
286.349	1.6	288394	WORD	n/a	wordpools/wordpool_categorized_EN.txt	CRAB	OceanAnimals	3	2	[0, 0, 0]	n/a	catFR1	3	R1501J
287.949	0.916	289994	WORD_OFF	n/a	n/a	CRAB	OceanAnimals	3	2	[0, 0, 0]	n/a	catFR1	3	R1501J
288.865	1.617	290920	WORD	n/a	wordpools/wordpool_categorized_EN.txt	TURTLE	OceanAnimals	4	2	[0, 0, 0]	n/a	catFR1	3	R1501J
290.482	0.85	292533	WORD_OFF	n/a	n/a	TURTLE	OceanAnimals	4	2	[0, 0, 0]	n/a	catFR1	3	R1501J
291.332	1.6	293380	WORD	n/a	wordpools/wordpool_categorized_EN.txt	PINE	Trees	5	2	[0, 0, 0]	n/a	catFR1	3	R1501J
292.932	0.933	294980	WORD_OFF	n/a	n/a	PINE	Trees	5	2	[0, 0, 0]	n/a	catFR1	3	R1501J
293.865	1.6	295920	WORD	n/a	wordpools/wordpool_categorized_EN.txt	ELM	Trees	6	2	[0, 0, 0]	n/a	catFR1	3	R1501J
295.465	0.934	297520	WORD_OFF	n/a	n/a	ELM	Trees	6	2	[0, 0, 0]	n/a	catFR1	3	R1501J
296.399	1.616	298446	WORD	n/a	wordpools/wordpool_categorized_EN.txt	OYSTER	OceanAnimals	7	2	[0, 0, 0]	n/a	catFR1	3	R1501J
298.015	0.9	300059	WORD_OFF	n/a	n/a	OYSTER	OceanAnimals	7	2	[0, 0, 0]	n/a	catFR1	3	R1501J
298.915	1.6	300959	WORD	n/a	wordpools/wordpool_categorized_EN.txt	JELLYFISH	OceanAnimals	8	2	[0, 0, 0]	n/a	catFR1	3	R1501J
300.515	0.883	302559	WORD_OFF	n/a	n/a	JELLYFISH	OceanAnimals	8	2	[0, 0, 0]	n/a	catFR1	3	R1501J
301.398	1.617	303445	WORD	n/a	wordpools/wordpool_categorized_EN.txt	WILLOW	Trees	9	2	[0, 0, 0]	n/a	catFR1	3	R1501J
303.015	0.95	305059	WORD_OFF	n/a	n/a	WILLOW	Trees	9	2	[0, 0, 0]	n/a	catFR1	3	R1501J
303.965	1.601	306011	WORD	n/a	wordpools/wordpool_categorized_EN.txt	WALNUT	Trees	10	2	[0, 0, 0]	n/a	catFR1	3	R1501J
305.566	0.849	307612	WORD_OFF	n/a	n/a	WALNUT	Trees	10	2	[0, 0, 0]	n/a	catFR1	3	R1501J
306.415	1.6	308458	WORD	n/a	wordpools/wordpool_categorized_EN.txt	HORSE	FarmAnimals	11	2	[0, 0, 0]	n/a	catFR1	3	R1501J
308.015	0.833	310059	WORD_OFF	n/a	n/a	HORSE	FarmAnimals	11	2	[0, 0, 0]	n/a	catFR1	3	R1501J
308.848	1.6	310892	WORD	n/a	wordpools/wordpool_categorized_EN.txt	COW	FarmAnimals	12	2	[0, 0, 0]	n/a	catFR1	3	R1501J
310.448	0.001	312492	WORD_OFF	n/a	n/a	COW	FarmAnimals	12	2	[0, 0, 0]	n/a	catFR1	3	R1501J
310.449	0.0	312504	START	n/a	n/a	n/a	n/a	-999	2	[-999, -999, -999]	n/a	catFR1	3	R1501J
310.449	0.0	312504	PROB	5.716	n/a	n/a	n/a	-999	2	[7, 5, 5]	17.0	catFR1	3	R1501J
310.449	0.0	312506	ENCODING_END	n/a	n/a	n/a	n/a	-999	2	[0, 0, 0]	n/a	catFR1	3	R1501J
310.449	5.733	312506	DISTRACT_START	n/a	n/a	n/a	n/a	-999	2	[0, 0, 0]	n/a	catFR1	3	R1501J
316.182	4.867	318237	PROB	4.85	n/a	n/a	n/a	-999	2	[1, 1, 2]	4.0	catFR1	3	R1501J
321.049	8.134	323104	PROB	8.117	n/a	n/a	n/a	-999	2	[7, 6, 6]	19.0	catFR1	3	R1501J
329.183	5.365	331237	PROB	5.349	n/a	n/a	n/a	-999	2	[7, 2, 6]	15.0	catFR1	3	R1501J
334.548	0.0	336591	DISTRACT_END	n/a	n/a	n/a	n/a	-999	2	[0, 0, 0]	n/a	catFR1	3	R1501J
334.548	1.266	336602	STOP	n/a	n/a	n/a	n/a	-999	2	[-999, -999, -999]	n/a	catFR1	3	R1501J
335.814	0.326	337861	REC_START	n/a	n/a	n/a	n/a	-999	2	[0, 0, 0]	n/a	catFR1	3	R1501J
336.14	1.213	338194	REC_WORD	0.326	n/a	CHICKEN	FarmAnimals	1	2	[0, 0, 0]	n/a	catFR1	3	R1501J
337.353	1.689	339407	REC_WORD	1.539	n/a	ROOSTER	FarmAnimals	2	2	[0, 0, 0]	n/a	catFR1	3	R1501J
339.042	1.68	341096	REC_WORD_VV	3.228	n/a	<>	n/a	-999	2	[0, 0, 0]	n/a	catFR1	3	R1501J
340.722	1.776	342776	REC_WORD	4.908	n/a	CRAB	OceanAnimals	3	2	[0, 0, 0]	n/a	catFR1	3	R1501J
342.498	1.191	344552	REC_WORD	6.684	n/a	TURTLE	OceanAnimals	4	2	[0, 0, 0]	n/a	catFR1	3	R1501J
343.689	1.74	345743	REC_WORD	7.875	n/a	PINE	Trees	5	2	[0, 0, 0]	n/a	catFR1	3	R1501J
345.429	4.0	347483	REC_WORD	9.615	n/a	ELM	Trees	6	2	[0, 0, 0]	n/a	catFR1	3	R1501J
349.429	14.567	351482	REC_WORD	13.615	n/a	WILLOW	Trees	9	2	[0, 0, 0]	n/a	catFR1	3	R1501J
363.996	3.039	366049	REC_WORD_VV	28.182	n/a	<>	n/a	-999	2	[0, 0, 0]	n/a	catFR1	3	R1501J
367.035	1.697	369089	REC_END	n/a	n/a	n/a	n/a	-999	2	[0, 0, 0]	n/a	catFR1	3	R1501J
368.732	10.349	370782	COUNTDOWN_START	n/a	n/a	n/a	n/a	-999	3	[0, 0, 0]	n/a	catFR1	3	R1501J
379.081	0.0	381126	COUNTDOWN_END	n/a	n/a	n/a	n/a	-999	3	[0, 0, 0]	n/a	catFR1	3	R1501J
379.081	2.318	381126	ENCODING_START	n/a	n/a	n/a	n/a	-999	3	[0, 0, 0]	n/a	catFR1	3	R1501J
381.399	1.616	383440	WORD	n/a	wordpools/wordpool_categorized_EN.txt	HAMMER	Tools	1	3	[0, 0, 0]	n/a	catFR1	3	R1501J
383.015	0.984	385067	WORD_OFF	n/a	n/a	HAMMER	Tools	1	3	[0, 0, 0]	n/a	catFR1	3	R1501J
383.999	1.616	386046	WORD	n/a	wordpools/wordpool_categorized_EN.txt	DRILL	Tools	2	3	[0, 0, 0]	n/a	catFR1	3	R1501J
385.615	0.917	387660	WORD_OFF	n/a	n/a	DRILL	Tools	2	3	[0, 0, 0]	n/a	catFR1	3	R1501J
386.532	1.615	388572	WORD	n/a	wordpools/wordpool_categorized_EN.txt	BASEBALL	Toys	3	3	[0, 0, 0]	n/a	catFR1	3	R1501J
388.147	1.002	390199	WORD_OFF	n/a	n/a	BASEBALL	Toys	3	3	[0, 0, 0]	n/a	catFR1	3	R1501J
389.149	1.6	391191	WORD	n/a	wordpools/wordpool_categorized_EN.txt	BLOCKS	Toys	4	3	[0, 0, 0]	n/a	catFR1	3	R1501J
390.749	0.783	392792	WORD_OFF	n/a	n/a	BLOCKS	Toys	4	3	[0, 0, 0]	n/a	catFR1	3	R1501J
391.532	1.616	393573	WORD	n/a	wordpools/wordpool_categorized_EN.txt	WALL	Building	5	3	[0, 0, 0]	n/a	catFR1	3	R1501J
393.148	0.849	395199	WORD_OFF	n/a	n/a	WALL	Building	5	3	[0, 0, 0]	n/a	catFR1	3	R1501J
393.997	1.602	396045	WORD	n/a	wordpools/wordpool_categorized_EN.txt	DOOR	Building	6	3	[0, 0, 0]	n/a	catFR1	3	R1501J
395.599	0.883	397646	WORD_OFF	n/a	n/a	DOOR	Building	6	3	[0, 0, 0]	n/a	catFR1	3	R1501J
396.482	1.616	398532	WORD	n/a	wordpools/wordpool_categorized_EN.txt	WRENCH	Tools	7	3	[0, 0, 0]	n/a	catFR1	3	R1501J
398.098	0.866	400146	WORD_OFF	n/a	n/a	WRENCH	Tools	7	3	[0, 0, 0]	n/a	catFR1	3	R1501J
398.964	1.601	401005	WORD	n/a	wordpools/wordpool_categorized_EN.txt	SAW	Tools	8	3	[0, 0, 0]	n/a	catFR1	3	R1501J
400.565	0.95	402606	WORD_OFF	n/a	n/a	SAW	Tools	8	3	[0, 0, 0]	n/a	catFR1	3	R1501J
401.515	1.617	403558	WORD	n/a	wordpools/wordpool_categorized_EN.txt	BATHROOM	Building	9	3	[0, 0, 0]	n/a	catFR1	3	R1501J
403.132	0.866	405172	WORD_OFF	n/a	n/a	BATHROOM	Building	9	3	[0, 0, 0]	n/a	catFR1	3	R1501J
403.998	1.617	406045	WORD	n/a	wordpools/wordpool_categorized_EN.txt	WINDOW	Building	10	3	[0, 0, 0]	n/a	catFR1	3	R1501J
405.615	0.816	407658	WORD_OFF	n/a	n/a	WINDOW	Building	10	3	[0, 0, 0]	n/a	catFR1	3	R1501J
406.431	1.601	408478	WORD	n/a	wordpools/wordpool_categorized_EN.txt	MARBLES	Toys	11	3	[0, 0, 0]	n/a	catFR1	3	R1501J
408.032	0.916	410079	WORD_OFF	n/a	n/a	MARBLES	Toys	11	3	[0, 0, 0]	n/a	catFR1	3	R1501J
408.948	1.616	410991	WORD	n/a	wordpools/wordpool_categorized_EN.txt	DOLL	Toys	12	3	[0, 0, 0]	n/a	catFR1	3	R1501J
410.564	0.001	412605	WORD_OFF	n/a	n/a	DOLL	Toys	12	3	[0, 0, 0]	n/a	catFR1	3	R1501J
410.565	0.0	412605	ENCODING_END	n/a	n/a	n/a	n/a	-999	3	[0, 0, 0]	n/a	catFR1	3	R1501J
410.565	0.0	412616	START	n/a	n/a	n/a	n/a	-999	3	[-999, -999, -999]	n/a	catFR1	3	R1501J
410.565	0.0	412616	PROB	6.867	n/a	n/a	n/a	-999	3	[6, 3, 2]	11.0	catFR1	3	R1501J
410.565	6.884	412618	DISTRACT_START	n/a	n/a	n/a	n/a	-999	3	[0, 0, 0]	n/a	catFR1	3	R1501J
417.449	6.849	419500	PROB	6.833	n/a	n/a	n/a	-999	3	[6, 7, 7]	20.0	catFR1	3	R1501J
424.298	5.233	426348	PROB	5.217	n/a	n/a	n/a	-999	3	[8, 8, 4]	20.0	catFR1	3	R1501J
429.531	3.467	431581	PROB	3.451	n/a	n/a	n/a	-999	3	[5, 5, 5]	15.0	catFR1	3	R1501J
432.998	0.0	435037	DISTRACT_END	n/a	n/a	n/a	n/a	-999	3	[0, 0, 0]	n/a	catFR1	3	R1501J
432.998	1.317	435048	STOP	n/a	n/a	n/a	n/a	-999	3	[-999, -999, -999]	n/a	catFR1	3	R1501J
434.315	0.149	436360	REC_START	n/a	n/a	n/a	n/a	-999	3	[0, 0, 0]	n/a	catFR1	3	R1501J
434.464	1.468	436514	REC_WORD	0.149	n/a	HAMMER	Tools	1	3	[0, 0, 0]	n/a	catFR1	3	R1501J
435.932	1.554	437982	REC_WORD	1.617	n/a	DRILL	Tools	2	3	[0, 0, 0]	n/a	catFR1	3	R1501J
437.486	1.573	439536	REC_WORD	3.171	n/a	BASEBALL	Toys	3	3	[0, 0, 0]	n/a	catFR1	3	R1501J
439.059	2.497	441109	REC_WORD	4.744	n/a	BLOCKS	Toys	4	3	[0, 0, 0]	n/a	catFR1	3	R1501J
441.556	5.58	443606	REC_WORD_VV	7.241	n/a	<>	n/a	-999	3	[0, 0, 0]	n/a	catFR1	3	R1501J
447.136	3.419	449185	REC_WORD_VV	12.821	n/a	<>	n/a	-999	3	[0, 0, 0]	n/a	catFR1	3	R1501J
450.555	1.529	452604	REC_WORD	16.24	n/a	BLOCKS	Toys	4	3	[0, 0, 0]	n/a	catFR1	3	R1501J
452.084	13.462	454133	REC_WORD	17.769	n/a	WRENCH	Tools	7	3	[0, 0, 0]	n/a	catFR1	3	R1501J
465.546	2.12	467588	REC_END	n/a	n/a	n/a	n/a	-999	3	[0, 0, 0]	n/a	catFR1	3	R1501J
467.666	10.35	469718	COUNTDOWN_START	n/a	n/a	n/a	n/a	-999	4	[0, 0, 0]	n/a	catFR1	3	R1501J
478.016	0.0	480061	COUNTDOWN_END	n/a	n/a	n/a	n/a	-999	4	[0, 0, 0]	n/a	catFR1	3	R1501J
478.016	2.149	480061	ENCODING_START	n/a	n/a	n/a	n/a	-999	4	[0, 0, 0]	n/a	catFR1	3	R1501J
480.165	1.6	482204	WORD	n/a	wordpools/wordpool_categorized_EN.txt	BARBIE	Toys	1	4	[0, 0, 0]	n/a	catFR1	3	R1501J
481.765	0.9	483804	WORD_OFF	n/a	n/a	BARBIE	Toys	1	4	[0, 0, 0]	n/a	catFR1	3	R1501J
482.665	1.6	484704	WORD	n/a	wordpools/wordpool_categorized_EN.txt	FRISBEE	Toys	2	4	[0, 0, 0]	n/a	catFR1	3	R1501J
484.265	0.784	486304	WORD_OFF	n/a	n/a	FRISBEE	Toys	2	4	[0, 0, 0]	n/a	catFR1	3	R1501J
485.049	1.616	487098	WORD	n/a	wordpools/wordpool_categorized_EN.txt	MAPLE	Trees	3	4	[0, 0, 0]	n/a	catFR1	3	R1501J
486.665	1.0	488711	WORD_OFF	n/a	n/a	MAPLE	Trees	3	4	[0, 0, 0]	n/a	catFR1	3	R1501J
487.665	1.6	489703	WORD	n/a	wordpools/wordpool_categorized_EN.txt	BIRCH	Trees	4	4	[0, 0, 0]	n/a	catFR1	3	R1501J
489.265	0.917	491304	WORD_OFF	n/a	n/a	BIRCH	Trees	4	4	[0, 0, 0]	n/a	catFR1	3	R1501J
490.182	1.615	492229	WORD	n/a	wordpools/wordpool_categorized_EN.txt	PIE	Desserts	5	4	[0, 0, 0]	n/a	catFR1	3	R1501J
491.797	0.785	493843	WORD_OFF	n/a	n/a	PIE	Desserts	5	4	[0, 0, 0]	n/a	catFR1	3	R1501J
492.582	1.6	494624	WORD	n/a	wordpools/wordpool_categorized_EN.txt	BROWNIES	Desserts	6	4	[0, 0, 0]	n/a	catFR1	3	R1501J
494.182	0.983	496224	WORD_OFF	n/a	n/a	BROWNIES	Desserts	6	4	[0, 0, 0]	n/a	catFR1	3	R1501J
495.165	1.6	497203	WORD	n/a	wordpools/wordpool_categorized_EN.txt	CEDAR	Trees	7	4	[0, 0, 0]	n/a	catFR1	3	R1501J
496.765	1.0	498803	WORD_OFF	n/a	n/a	CEDAR	Trees	7	4	[0, 0, 0]	n/a	catFR1	3	R1501J
497.765	1.617	499808	WORD	n/a	wordpools/wordpool_categorized_EN.txt	SPRUCE	Trees	8	4	[0, 0, 0]	n/a	catFR1	3	R1501J
499.382	0.916	501422	WORD_OFF	n/a	n/a	SPRUCE	Trees	8	4	[0, 0, 0]	n/a	catFR1	3	R1501J
500.298	1.601	502335	WORD	n/a	wordpools/wordpool_categorized_EN.txt	DOLLHOUSE	Toys	9	4	[0, 0, 0]	n/a	catFR1	3	R1501J
501.899	0.882	503935	WORD_OFF	n/a	n/a	DOLLHOUSE	Toys	9	4	[0, 0, 0]	n/a	catFR1	3	R1501J
502.781	1.601	504821	WORD	n/a	wordpools/wordpool_categorized_EN.txt	BALL	Toys	10	4	[0, 0, 0]	n/a	catFR1	3	R1501J
504.382	0.85	506422	WORD_OFF	n/a	n/a	BALL	Toys	10	4	[0, 0, 0]	n/a	catFR1	3	R1501J
505.232	1.6	507268	WORD	n/a	wordpools/wordpool_categorized_EN.txt	CUPCAKE	Desserts	11	4	[0, 0, 0]	n/a	catFR1	3	R1501J
506.832	0.766	508869	WORD_OFF	n/a	n/a	CUPCAKE	Desserts	11	4	[0, 0, 0]	n/a	catFR1	3	R1501J
507.598	1.617	509636	WORD	n/a	wordpools/wordpool_categorized_EN.txt	CAKE	Desserts	12	4	[0, 0, 0]	n/a	catFR1	3	R1501J
509.215	0.0	511249	WORD_OFF	n/a	n/a	CAKE	Desserts	12	4	[0, 0, 0]	n/a	catFR1	3	R1501J
509.215	0.001	511263	ENCODING_END	n/a	n/a	n/a	n/a	-999	4	[0, 0, 0]	n/a	catFR1	3	R1501J
509.216	0.0	511263	DISTRACT_START	n/a	n/a	n/a	n/a	-999	4	[0, 0, 0]	n/a	catFR1	3	R1501J
509.216	0.0	511263	START	n/a	n/a	n/a	n/a	-999	4	[-999, -999, -999]	n/a	catFR1	3	R1501J
509.216	10.682	511263	PROB	10.665	n/a	n/a	n/a	-999	4	[8, 4, 5]	17.0	catFR1	3	R1501J
519.898	4.334	521944	PROB	4.317	n/a	n/a	n/a	-999	4	[1, 1, 2]	4.0	catFR1	3	R1501J
524.232	4.217	526278	PROB	4.2	n/a	n/a	n/a	-999	4	[2, 1, 6]	9.0	catFR1	3	R1501J
528.449	13.165	530495	PROB	13.149	n/a	n/a	n/a	-999	4	[6, 4, 5]	15.0	catFR1	3	R1501J
541.614	0.0	543655	DISTRACT_END	n/a	n/a	n/a	n/a	-999	4	[0, 0, 0]	n/a	catFR1	3	R1501J
541.614	1.017	543660	STOP	n/a	n/a	n/a	n/a	-999	4	[-999, -999, -999]	n/a	catFR1	3	R1501J
542.631	0.836	544673	REC_START	n/a	n/a	n/a	n/a	-999	4	[0, 0, 0]	n/a	catFR1	3	R1501J
543.467	1.189	545512	REC_WORD	0.836	n/a	BARBIE	Toys	1	4	[0, 0, 0]	n/a	catFR1	3	R1501J
544.656	2.259	546701	REC_WORD	2.025	n/a	FRISBEE	Toys	2	4	[0, 0, 0]	n/a	catFR1	3	R1501J
546.915	1.323	548960	REC_WORD	4.284	n/a	MAPLE	Trees	3	4	[0, 0, 0]	n/a	catFR1	3	R1501J
548.238	1.341	550283	REC_WORD	5.607	n/a	BIRCH	Trees	4	4	[0, 0, 0]	n/a	catFR1	3	R1501J
549.579	1.929	551624	REC_WORD	6.948	n/a	PIE	Desserts	5	4	[0, 0, 0]	n/a	catFR1	3	R1501J
551.508	1.339	553553	REC_WORD	8.877	n/a	CAKE	Desserts	12	4	[0, 0, 0]	n/a	catFR1	3	R1501J
552.847	4.641	554892	REC_WORD	10.216	n/a	DOLLHOUSE	Toys	9	4	[0, 0, 0]	n/a	catFR1	3	R1501J
557.488	1.511	559533	REC_WORD	14.857	n/a	CUPCAKE	Desserts	11	4	[0, 0, 0]	n/a	catFR1	3	R1501J
558.999	14.862	561044	REC_WORD_VV	16.368	n/a	<>	n/a	-999	4	[0, 0, 0]	n/a	catFR1	3	R1501J
573.861	2.02	575901	REC_END	n/a	n/a	n/a	n/a	-999	4	[0, 0, 0]	n/a	catFR1	3	R1501J
575.881	10.351	577925	COUNTDOWN_START	n/a	n/a	n/a	n/a	-999	5	[0, 0, 0]	n/a	catFR1	3	R1501J
586.232	0.0	588268	COUNTDOWN_END	n/a	n/a	n/a	n/a	-999	5	[0, 0, 0]	n/a	catFR1	3	R1501J
586.232	1.932	588268	ENCODING_START	n/a	n/a	n/a	n/a	-999	5	[0, 0, 0]	n/a	catFR1	3	R1501J
588.164	1.601	590199	WORD	n/a	wordpools/wordpool_categorized_EN.txt	SCANNER	Electronics	1	5	[0, 0, 0]	n/a	catFR1	3	R1501J
589.765	0.784	591800	WORD_OFF	n/a	n/a	SCANNER	Electronics	1	5	[0, 0, 0]	n/a	catFR1	3	R1501J
590.549	1.615	592593	WORD	n/a	wordpools/wordpool_categorized_EN.txt	SPEAKER	Electronics	2	5	[0, 0, 0]	n/a	catFR1	3	R1501J
592.164	0.801	594207	WORD_OFF	n/a	n/a	SPEAKER	Electronics	2	5	[0, 0, 0]	n/a	catFR1	3	R1501J
592.965	1.6	595001	WORD	n/a	wordpools/wordpool_categorized_EN.txt	FLUTE	Instruments	3	5	[0, 0, 0]	n/a	catFR1	3	R1501J
594.565	0.917	596601	WORD_OFF	n/a	n/a	FLUTE	Instruments	3	5	[0, 0, 0]	n/a	catFR1	3	R1501J
595.482	1.6	597514	WORD	n/a	wordpools/wordpool_categorized_EN.txt	TROMBONE	Instruments	4	5	[0, 0, 0]	n/a	catFR1	3	R1501J
597.082	0.9	599114	WORD_OFF	n/a	n/a	TROMBONE	Instruments	4	5	[0, 0, 0]	n/a	catFR1	3	R1501J
597.982	1.6	600014	WORD	n/a	wordpools/wordpool_categorized_EN.txt	ZEBRA	Zoo	5	5	[0, 0, 0]	n/a	catFR1	3	R1501J
599.582	0.899	601614	WORD_OFF	n/a	n/a	ZEBRA	Zoo	5	5	[0, 0, 0]	n/a	catFR1	3	R1501J
600.481	1.601	602513	WORD	n/a	wordpools/wordpool_categorized_EN.txt	LION	Zoo	6	5	[0, 0, 0]	n/a	catFR1	3	R1501J
602.082	0.799	604114	WORD_OFF	n/a	n/a	LION	Zoo	6	5	[0, 0, 0]	n/a	catFR1	3	R1501J
602.881	1.616	604921	WORD	n/a	wordpools/wordpool_categorized_EN.txt	ORGAN	Instruments	7	5	[0, 0, 0]	n/a	catFR1	3	R1501J
604.497	0.968	606534	WORD_OFF	n/a	n/a	ORGAN	Instruments	7	5	[0, 0, 0]	n/a	catFR1	3	R1501J
605.465	1.616	607500	WORD	n/a	wordpools/wordpool_categorized_EN.txt	CELLO	Instruments	8	5	[0, 0, 0]	n/a	catFR1	3	R1501J
607.081	0.933	609113	WORD_OFF	n/a	n/a	CELLO	Instruments	8	5	[0, 0, 0]	n/a	catFR1	3	R1501J
608.014	1.601	610053	WORD	n/a	wordpools/wordpool_categorized_EN.txt	CHIMPANZEE	Zoo	9	5	[0, 0, 0]	n/a	catFR1	3	R1501J
609.615	0.767	611653	WORD_OFF	n/a	n/a	CHIMPANZEE	Zoo	9	5	[0, 0, 0]	n/a	catFR1	3	R1501J
610.382	1.6	612420	WORD	n/a	wordpools/wordpool_categorized_EN.txt	ELEPHANT	Zoo	10	5	[0, 0, 0]	n/a	catFR1	3	R1501J
611.982	0.999	614021	WORD_OFF	n/a	n/a	ELEPHANT	Zoo	10	5	[0, 0, 0]	n/a	catFR1	3	R1501J
612.981	1.616	615013	WORD	n/a	wordpools/wordpool_categorized_EN.txt	PHONE	Electronics	11	5	[0, 0, 0]	n/a	catFR1	3	R1501J
614.597	1.0	616639	WORD_OFF	n/a	n/a	PHONE	Electronics	11	5	[0, 0, 0]	n/a	catFR1	3	R1501J
615.597	1.6	617631	WORD	n/a	wordpools/wordpool_categorized_EN.txt	COMPUTER	Electronics	12	5	[0, 0, 0]	n/a	catFR1	3	R1501J
617.197	0.003	619232	WORD_OFF	n/a	n/a	COMPUTER	Electronics	12	5	[0, 0, 0]	n/a	catFR1	3	R1501J
617.2	0.0	619232	ENCODING_END	n/a	n/a	n/a	n/a	-999	5	[0, 0, 0]	n/a	catFR1	3	R1501J
617.2	0.0	619232	DISTRACT_START	n/a	n/a	n/a	n/a	-999	5	[0, 0, 0]	n/a	catFR1	3	R1501J
617.198	0.002	619240	PROB	10.183	n/a	n/a	n/a	-999	5	[4, 1, 7]	12.0	catFR1	3	R1501J
617.2	10.199	619242	START	n/a	n/a	n/a	n/a	-999	5	[-999, -999, -999]	n/a	catFR1	3	R1501J
627.399	4.1	629441	PROB	4.083	n/a	n/a	n/a	-999	5	[6, 6, 1]	13.0	catFR1	3	R1501J
631.499	6.516	633541	PROB	6.499	n/a	n/a	n/a	-999	5	[7, 6, 7]	20.0	catFR1	3	R1501J
638.015	0.0	640051	DISTRACT_END	n/a	n/a	n/a	n/a	-999	5	[0, 0, 0]	n/a	catFR1	3	R1501J
638.015	1.066	640057	STOP	n/a	n/a	n/a	n/a	-999	5	[-999, -999, -999]	n/a	catFR1	3	R1501J
639.081	0.202	641122	REC_START	n/a	n/a	n/a	n/a	-999	5	[0, 0, 0]	n/a	catFR1	3	R1501J
639.283	3.08	641325	REC_WORD	0.202	n/a	SCANNER	Electronics	1	5	[0, 0, 0]	n/a	catFR1	3	R1501J
642.363	3.286	644404	REC_WORD	3.282	n/a	SPEAKER	Electronics	2	5	[0, 0, 0]	n/a	catFR1	3	R1501J
645.649	1.809	647690	REC_WORD	6.568	n/a	FLUTE	Instruments	3	5	[0, 0, 0]	n/a	catFR1	3	R1501J
647.458	2.852	649499	REC_WORD	8.377	n/a	TROMBONE	Instruments	4	5	[0, 0, 0]	n/a	catFR1	3	R1501J
650.31	20.01	652351	REC_WORD_VV	11.229	n/a	<>	n/a	-999	5	[0, 0, 0]	n/a	catFR1	3	R1501J
670.32	1.845	672350	REC_END	n/a	n/a	n/a	n/a	-999	5	[0, 0, 0]	n/a	catFR1	3	R1501J
672.165	10.351	674202	COUNTDOWN_START	n/a	n/a	n/a	n/a	-999	6	[0, 0, 0]	n/a	catFR1	3	R1501J
682.516	0.0	684545	COUNTDOWN_END	n/a	n/a	n/a	n/a	-999	6	[0, 0, 0]	n/a	catFR1	3	R1501J
682.516	2.132	684558	ENCODING_START	n/a	n/a	n/a	n/a	-999	6	[0, 0, 0]	n/a	catFR1	3	R1501J
684.648	1.601	686688	WORD	n/a	wordpools/wordpool_categorized_EN.txt	LEATHER	Fabric	1	6	[0, 0, 0]	n/a	catFR1	3	R1501J
686.249	0.9	688288	WORD_OFF	n/a	n/a	LEATHER	Fabric	1	6	[0, 0, 0]	n/a	catFR1	3	R1501J
687.149	1.599	689188	WORD	n/a	wordpools/wordpool_categorized_EN.txt	DENIM	Fabric	2	6	[0, 0, 0]	n/a	catFR1	3	R1501J
688.748	0.966	690788	WORD_OFF	n/a	n/a	DENIM	Fabric	2	6	[0, 0, 0]	n/a	catFR1	3	R1501J
689.714	1.601	691754	WORD	n/a	wordpools/wordpool_categorized_EN.txt	BANANA	Fruit	3	6	[0, 0, 0]	n/a	catFR1	3	R1501J
691.315	0.867	693354	WORD_OFF	n/a	n/a	BANANA	Fruit	3	6	[0, 0, 0]	n/a	catFR1	3	R1501J
692.182	1.6	694214	WORD	n/a	wordpools/wordpool_categorized_EN.txt	LIME	Fruit	4	6	[0, 0, 0]	n/a	catFR1	3	R1501J
693.782	0.767	695814	WORD_OFF	n/a	n/a	LIME	Fruit	4	6	[0, 0, 0]	n/a	catFR1	3	R1501J
694.549	1.616	696581	WORD	n/a	wordpools/wordpool_categorized_EN.txt	SHOES	Clothing	5	6	[0, 0, 0]	n/a	catFR1	3	R1501J
696.165	0.85	698195	WORD_OFF	n/a	n/a	SHOES	Clothing	5	6	[0, 0, 0]	n/a	catFR1	3	R1501J
697.015	1.618	699055	WORD	n/a	wordpools/wordpool_categorized_EN.txt	SHORTS	Clothing	6	6	[0, 0, 0]	n/a	catFR1	3	R1501J
698.633	1.0	700668	WORD_OFF	n/a	n/a	SHORTS	Clothing	6	6	[0, 0, 0]	n/a	catFR1	3	R1501J
699.633	1.615	701660	WORD	n/a	wordpools/wordpool_categorized_EN.txt	CHERRY	Fruit	7	6	[0, 0, 0]	n/a	catFR1	3	R1501J
701.248	0.916	703287	WORD_OFF	n/a	n/a	CHERRY	Fruit	7	6	[0, 0, 0]	n/a	catFR1	3	R1501J
702.164	1.601	704200	WORD	n/a	wordpools/wordpool_categorized_EN.txt	STRAWBERRY	Fruit	8	6	[0, 0, 0]	n/a	catFR1	3	R1501J
703.765	0.933	705800	WORD_OFF	n/a	n/a	STRAWBERRY	Fruit	8	6	[0, 0, 0]	n/a	catFR1	3	R1501J
704.698	1.617	706726	WORD	n/a	wordpools/wordpool_categorized_EN.txt	SILK	Fabric	9	6	[0, 0, 0]	n/a	catFR1	3	R1501J
706.315	0.766	708353	WORD_OFF	n/a	n/a	SILK	Fabric	9	6	[0, 0, 0]	n/a	catFR1	3	R1501J
707.081	1.601	709120	WORD	n/a	wordpools/wordpool_categorized_EN.txt	SUEDE	Fabric	10	6	[0, 0, 0]	n/a	catFR1	3	R1501J
708.682	0.933	710721	WORD_OFF	n/a	n/a	SUEDE	Fabric	10	6	[0, 0, 0]	n/a	catFR1	3	R1501J
709.615	1.617	711646	WORD	n/a	wordpools/wordpool_categorized_EN.txt	DRESS	Clothing	11	6	[0, 0, 0]	n/a	catFR1	3	R1501J
711.232	0.867	713260	WORD_OFF	n/a	n/a	DRESS	Clothing	11	6	[0, 0, 0]	n/a	catFR1	3	R1501J
712.099	1.616	714133	WORD	n/a	wordpools/wordpool_categorized_EN.txt	SOCKS	Clothing	12	6	[0, 0, 0]	n/a	catFR1	3	R1501J
713.715	0.003	715747	WORD_OFF	n/a	n/a	SOCKS	Clothing	12	6	[0, 0, 0]	n/a	catFR1	3	R1501J
713.718	0.0	715747	ENCODING_END	n/a	n/a	n/a	n/a	-999	6	[0, 0, 0]	n/a	catFR1	3	R1501J
713.718	0.0	715747	DISTRACT_START	n/a	n/a	n/a	n/a	-999	6	[0, 0, 0]	n/a	catFR1	3	R1501J
713.715	0.003	715753	PROB	12.616	n/a	n/a	n/a	-999	6	[4, 2, 4]	10.0	catFR1	3	R1501J
713.718	12.631	715756	START	n/a	n/a	n/a	n/a	-999	6	[-999, -999, -999]	n/a	catFR1	3	R1501J
726.349	2.899	728387	PROB	2.882	n/a	n/a	n/a	-999	6	[1, 5, 1]	7.0	catFR1	3	R1501J
729.248	5.766	731286	PROB	5.75	n/a	n/a	n/a	-999	6	[3, 4, 3]	10.0	catFR1	3	R1501J
735.014	0.0	737042	DISTRACT_END	n/a	n/a	n/a	n/a	-999	6	[0, 0, 0]	n/a	catFR1	3	R1501J
735.014	1.184	737052	STOP	n/a	n/a	n/a	n/a	-999	6	[-999, -999, -999]	n/a	catFR1	3	R1501J
736.198	0.869	738232	REC_START	n/a	n/a	n/a	n/a	-999	6	[0, 0, 0]	n/a	catFR1	3	R1501J
737.067	1.685	739105	REC_WORD	0.869	n/a	LEATHER	Fabric	1	6	[0, 0, 0]	n/a	catFR1	3	R1501J
738.752	1.732	740789	REC_WORD	2.554	n/a	DENIM	Fabric	2	6	[0, 0, 0]	n/a	catFR1	3	R1501J
740.484	1.515	742521	REC_WORD	4.286	n/a	SHOES	Clothing	5	6	[0, 0, 0]	n/a	catFR1	3	R1501J
741.999	2.509	744036	REC_WORD	5.801	n/a	SUEDE	Fabric	10	6	[0, 0, 0]	n/a	catFR1	3	R1501J
744.508	22.869	746545	REC_WORD	8.31	n/a	DRESS	Clothing	11	6	[0, 0, 0]	n/a	catFR1	3	R1501J
767.377	2.055	769407	REC_END	n/a	n/a	n/a	n/a	-999	6	[0, 0, 0]	n/a	catFR1	3	R1501J
769.432	10.349	771457	COUNTDOWN_START	n/a	n/a	n/a	n/a	-999	7	[0, 0, 0]	n/a	catFR1	3	R1501J
779.781	0.0	781814	COUNTDOWN_END	n/a	n/a	n/a	n/a	-999	7	[0, 0, 0]	n/a	catFR1	3	R1501J
779.781	2.034	781814	ENCODING_START	n/a	n/a	n/a	n/a	-999	7	[0, 0, 0]	n/a	catFR1	3	R1501J
781.815	1.601	783851	WORD	n/a	wordpools/wordpool_categorized_EN.txt	DRESSER	Furniture	1	7	[0, 0, 0]	n/a	catFR1	3	R1501J
783.416	0.866	785451	WORD_OFF	n/a	n/a	DRESSER	Furniture	1	7	[0, 0, 0]	n/a	catFR1	3	R1501J
784.282	1.615	786311	WORD	n/a	wordpools/wordpool_categorized_EN.txt	NIGHTSTAND	Furniture	2	7	[0, 0, 0]	n/a	catFR1	3	R1501J
785.897	0.801	787925	WORD_OFF	n/a	n/a	NIGHTSTAND	Furniture	2	7	[0, 0, 0]	n/a	catFR1	3	R1501J
786.698	1.6	788731	WORD	n/a	wordpools/wordpool_categorized_EN.txt	CALF	FarmAnimals	3	7	[0, 0, 0]	n/a	catFR1	3	R1501J
788.298	0.934	790332	WORD_OFF	n/a	n/a	CALF	FarmAnimals	3	7	[0, 0, 0]	n/a	catFR1	3	R1501J
789.232	1.6	791258	WORD	n/a	wordpools/wordpool_categorized_EN.txt	HEN	FarmAnimals	4	7	[0, 0, 0]	n/a	catFR1	3	R1501J
790.832	1.0	792858	WORD_OFF	n/a	n/a	HEN	FarmAnimals	4	7	[0, 0, 0]	n/a	catFR1	3	R1501J
791.832	1.616	793863	WORD	n/a	wordpools/wordpool_categorized_EN.txt	CORKSCREW	KitchenTools	5	7	[0, 0, 0]	n/a	catFR1	3	R1501J
793.448	0.901	795477	WORD_OFF	n/a	n/a	CORKSCREW	KitchenTools	5	7	[0, 0, 0]	n/a	catFR1	3	R1501J
794.349	1.616	796376	WORD	n/a	wordpools/wordpool_categorized_EN.txt	TONGS	KitchenTools	6	7	[0, 0, 0]	n/a	catFR1	3	R1501J
795.965	0.799	797990	WORD_OFF	n/a	n/a	TONGS	KitchenTools	6	7	[0, 0, 0]	n/a	catFR1	3	R1501J
796.764	1.616	798797	WORD	n/a	wordpools/wordpool_categorized_EN.txt	SOFA	Furniture	7	7	[0, 0, 0]	n/a	catFR1	3	R1501J
798.38	0.884	800411	WORD_OFF	n/a	n/a	SOFA	Furniture	7	7	[0, 0, 0]	n/a	catFR1	3	R1501J
799.264	1.601	801297	WORD	n/a	wordpools/wordpool_categorized_EN.txt	DESK	Furniture	8	7	[0, 0, 0]	n/a	catFR1	3	R1501J
800.865	0.983	802897	WORD_OFF	n/a	n/a	DESK	Furniture	8	7	[0, 0, 0]	n/a	catFR1	3	R1501J
801.848	1.6	803876	WORD	n/a	wordpools/wordpool_categorized_EN.txt	LAMB	FarmAnimals	9	7	[0, 0, 0]	n/a	catFR1	3	R1501J
803.448	1.0	805476	WORD_OFF	n/a	n/a	LAMB	FarmAnimals	9	7	[0, 0, 0]	n/a	catFR1	3	R1501J
804.448	1.616	806482	WORD	n/a	wordpools/wordpool_categorized_EN.txt	BULL	FarmAnimals	10	7	[0, 0, 0]	n/a	catFR1	3	R1501J
806.064	0.883	808095	WORD_OFF	n/a	n/a	BULL	FarmAnimals	10	7	[0, 0, 0]	n/a	catFR1	3	R1501J
806.947	1.6	808981	WORD	n/a	wordpools/wordpool_categorized_EN.txt	WHISK	KitchenTools	11	7	[0, 0, 0]	n/a	catFR1	3	R1501J
808.547	0.967	810582	WORD_OFF	n/a	n/a	WHISK	KitchenTools	11	7	[0, 0, 0]	n/a	catFR1	3	R1501J
809.514	1.6	811547	WORD	n/a	wordpools/wordpool_categorized_EN.txt	STRAINER	KitchenTools	12	7	[0, 0, 0]	n/a	catFR1	3	R1501J
811.114	0.001	813148	WORD_OFF	n/a	n/a	STRAINER	KitchenTools	12	7	[0, 0, 0]	n/a	catFR1	3	R1501J
811.115	0.0	813148	ENCODING_END	n/a	n/a	n/a	n/a	-999	7	[0, 0, 0]	n/a	catFR1	3	R1501J
811.115	0.0	813148	DISTRACT_START	n/a	n/a	n/a	n/a	-999	7	[0, 0, 0]	n/a	catFR1	3	R1501J
811.114	0.001	813148	PROB	8.001	n/a	n/a	n/a	-999	7	[8, 2, 2]	12.0	catFR1	3	R1501J
811.115	8.017	813149	START	n/a	n/a	n/a	n/a	-999	7	[-999, -999, -999]	n/a	catFR1	3	R1501J
819.132	6.149	821166	PROB	6.133	n/a	n/a	n/a	-999	7	[3, 5, 2]	10.0	catFR1	3	R1501J
825.281	3.017	827315	PROB	3.0	n/a	n/a	n/a	-999	7	[6, 6, 6]	18.0	catFR1	3	R1501J
828.298	7.051	830332	PROB	7.033	n/a	n/a	n/a	-999	7	[7, 5, 3]	15.0	catFR1	3	R1501J
835.349	0.0	837379	DISTRACT_END	n/a	n/a	n/a	n/a	-999	7	[0, 0, 0]	n/a	catFR1	3	R1501J
835.349	1.332	837382	STOP	n/a	n/a	n/a	n/a	-999	7	[-999, -999, -999]	n/a	catFR1	3	R1501J
836.681	0.557	838715	REC_START	n/a	n/a	n/a	n/a	-999	7	[0, 0, 0]	n/a	catFR1	3	R1501J
837.238	1.245	839271	REC_WORD	0.557	n/a	DRESSER	Furniture	1	7	[0, 0, 0]	n/a	catFR1	3	R1501J
838.483	1.437	840516	REC_WORD	1.802	n/a	NIGHTSTAND	Furniture	2	7	[0, 0, 0]	n/a	catFR1	3	R1501J
839.92	1.916	841953	REC_WORD	3.239	n/a	CALF	FarmAnimals	3	7	[0, 0, 0]	n/a	catFR1	3	R1501J
841.836	6.139	843869	REC_WORD	5.155	n/a	HEN	FarmAnimals	4	7	[0, 0, 0]	n/a	catFR1	3	R1501J
847.975	3.974	850008	REC_WORD	11.294	n/a	HEN	FarmAnimals	4	7	[0, 0, 0]	n/a	catFR1	3	R1501J
851.949	15.911	853982	REC_WORD_VV	15.268	n/a	<>	n/a	-999	7	[0, 0, 0]	n/a	catFR1	3	R1501J
867.86	1.871	869890	REC_END	n/a	n/a	n/a	n/a	-999	7	[0, 0, 0]	n/a	catFR1	3	R1501J
869.731	10.349	871755	COUNTDOWN_START	n/a	n/a	n/a	n/a	-999	8	[0, 0, 0]	n/a	catFR1	3	R1501J
880.08	0.001	882112	COUNTDOWN_END	n/a	n/a	n/a	n/a	-999	8	[0, 0, 0]	n/a	catFR1	3	R1501J
880.081	1.9	882112	ENCODING_START	n/a	n/a	n/a	n/a	-999	8	[0, 0, 0]	n/a	catFR1	3	R1501J
881.981	1.601	884003	WORD	n/a	wordpools/wordpool_categorized_EN.txt	PEN	OfficeSupplies	1	8	[0, 0, 0]	n/a	catFR1	3	R1501J
883.582	0.916	885603	WORD_OFF	n/a	n/a	PEN	OfficeSupplies	1	8	[0, 0, 0]	n/a	catFR1	3	R1501J
884.498	1.601	886529	WORD	n/a	wordpools/wordpool_categorized_EN.txt	NOTEBOOK	OfficeSupplies	2	8	[0, 0, 0]	n/a	catFR1	3	R1501J
886.099	0.782	888130	WORD_OFF	n/a	n/a	NOTEBOOK	OfficeSupplies	2	8	[0, 0, 0]	n/a	catFR1	3	R1501J
886.881	1.601	888910	WORD	n/a	wordpools/wordpool_categorized_EN.txt	DOLPHIN	OceanAnimals	3	8	[0, 0, 0]	n/a	catFR1	3	R1501J
888.482	0.965	890511	WORD_OFF	n/a	n/a	DOLPHIN	OceanAnimals	3	8	[0, 0, 0]	n/a	catFR1	3	R1501J
889.447	1.601	891476	WORD	n/a	wordpools/wordpool_categorized_EN.txt	SHRIMP	OceanAnimals	4	8	[0, 0, 0]	n/a	catFR1	3	R1501J
891.048	0.967	893077	WORD_OFF	n/a	n/a	SHRIMP	OceanAnimals	4	8	[0, 0, 0]	n/a	catFR1	3	R1501J
892.015	1.616	894042	WORD	n/a	wordpools/wordpool_categorized_EN.txt	TRUMPET	Instruments	5	8	[0, 0, 0]	n/a	catFR1	3	R1501J
893.631	0.835	895656	WORD_OFF	n/a	n/a	TRUMPET	Instruments	5	8	[0, 0, 0]	n/a	catFR1	3	R1501J
894.466	1.6	896489	WORD	n/a	wordpools/wordpool_categorized_EN.txt	BANJO	Instruments	6	8	[0, 0, 0]	n/a	catFR1	3	R1501J
896.066	0.881	898089	WORD_OFF	n/a	n/a	BANJO	Instruments	6	8	[0, 0, 0]	n/a	catFR1	3	R1501J
896.947	1.601	898976	WORD	n/a	wordpools/wordpool_categorized_EN.txt	PENCIL	OfficeSupplies	7	8	[0, 0, 0]	n/a	catFR1	3	R1501J
898.548	0.916	900576	WORD_OFF	n/a	n/a	PENCIL	OfficeSupplies	7	8	[0, 0, 0]	n/a	catFR1	3	R1501J
899.464	1.602	901489	WORD	n/a	wordpools/wordpool_categorized_EN.txt	ERASER	OfficeSupplies	8	8	[0, 0, 0]	n/a	catFR1	3	R1501J
901.066	0.782	903089	WORD_OFF	n/a	n/a	ERASER	OfficeSupplies	8	8	[0, 0, 0]	n/a	catFR1	3	R1501J
901.848	1.601	903869	WORD	n/a	wordpools/wordpool_categorized_EN.txt	PIANO	Instruments	9	8	[0, 0, 0]	n/a	catFR1	3	R1501J
903.449	0.784	905470	WORD_OFF	n/a	n/a	PIANO	Instruments	9	8	[0, 0, 0]	n/a	catFR1	3	R1501J
904.233	1.615	906263	WORD	n/a	wordpools/wordpool_categorized_EN.txt	VIOLIN	Instruments	10	8	[0, 0, 0]	n/a	catFR1	3	R1501J
905.848	0.884	907877	WORD_OFF	n/a	n/a	VIOLIN	Instruments	10	8	[0, 0, 0]	n/a	catFR1	3	R1501J
906.732	1.616	908763	WORD	n/a	wordpools/wordpool_categorized_EN.txt	LOBSTER	OceanAnimals	11	8	[0, 0, 0]	n/a	catFR1	3	R1501J
908.348	0.9	910377	WORD_OFF	n/a	n/a	LOBSTER	OceanAnimals	11	8	[0, 0, 0]	n/a	catFR1	3	R1501J
909.248	1.617	911276	WORD	n/a	wordpools/wordpool_categorized_EN.txt	SQUID	OceanAnimals	12	8	[0, 0, 0]	n/a	catFR1	3	R1501J
910.865	0.001	912890	WORD_OFF	n/a	n/a	SQUID	OceanAnimals	12	8	[0, 0, 0]	n/a	catFR1	3	R1501J
910.866	0.0	912890	ENCODING_END	n/a	n/a	n/a	n/a	-999	8	[0, 0, 0]	n/a	catFR1	3	R1501J
910.866	0.0	912890	DISTRACT_START	n/a	n/a	n/a	n/a	-999	8	[0, 0, 0]	n/a	catFR1	3	R1501J
910.866	0.0	912896	START	n/a	n/a	n/a	n/a	-999	8	[-999, -999, -999]	n/a	catFR1	3	R1501J
910.866	5.483	912896	PROB	5.465	n/a	n/a	n/a	-999	8	[1, 4, 1]	6.0	catFR1	3	R1501J
916.349	5.9	918379	PROB	5.882	n/a	n/a	n/a	-999	8	[8, 8, 4]	20.0	catFR1	3	R1501J
922.249	2.349	924279	PROB	2.332	n/a	n/a	n/a	-999	8	[1, 2, 8]	11.0	catFR1	3	R1501J
924.598	3.95	926628	PROB	3.933	n/a	n/a	n/a	-999	8	[3, 6, 8]	17.0	catFR1	3	R1501J
928.548	2.8	930578	PROB	2.783	n/a	n/a	n/a	-999	8	[1, 5, 4]	10.0	catFR1	3	R1501J
931.348	0.0	933365	DISTRACT_END	n/a	n/a	n/a	n/a	-999	8	[0, 0, 0]	n/a	catFR1	3	R1501J
931.348	1.15	933378	STOP	n/a	n/a	n/a	n/a	-999	8	[-999, -999, -999]	n/a	catFR1	3	R1501J
932.498	0.802	934516	REC_START	n/a	n/a	n/a	n/a	-999	8	[0, 0, 0]	n/a	catFR1	3	R1501J
933.3	1.181	935329	REC_WORD	0.802	n/a	PEN	OfficeSupplies	1	8	[0, 0, 0]	n/a	catFR1	3	R1501J
934.481	5.664	936510	REC_WORD	1.983	n/a	NOTEBOOK	OfficeSupplies	2	8	[0, 0, 0]	n/a	catFR1	3	R1501J
940.145	1.117	942174	REC_WORD	7.647	n/a	DOLPHIN	OceanAnimals	3	8	[0, 0, 0]	n/a	catFR1	3	R1501J
941.262	1.254	943291	REC_WORD	8.764	n/a	SHRIMP	OceanAnimals	4	8	[0, 0, 0]	n/a	catFR1	3	R1501J
942.516	6.114	944545	REC_WORD_VV	10.018	n/a	<>	n/a	-999	8	[0, 0, 0]	n/a	catFR1	3	R1501J
948.63	8.234	950659	REC_WORD	16.132	n/a	VIOLIN	Instruments	10	8	[0, 0, 0]	n/a	catFR1	3	R1501J
956.864	6.844	958893	REC_WORD	24.366	n/a	TRUMPET	Instruments	5	8	[0, 0, 0]	n/a	catFR1	3	R1501J
963.708	1.724	965730	REC_END	n/a	n/a	n/a	n/a	-999	8	[0, 0, 0]	n/a	catFR1	3	R1501J
965.432	10.35	967450	COUNTDOWN_START	n/a	n/a	n/a	n/a	-999	9	[0, 0, 0]	n/a	catFR1	3	R1501J
975.782	0.0	977806	COUNTDOWN_END	n/a	n/a	n/a	n/a	-999	9	[0, 0, 0]	n/a	catFR1	3	R1501J
975.782	1.95	977806	ENCODING_START	n/a	n/a	n/a	n/a	-999	9	[0, 0, 0]	n/a	catFR1	3	R1501J
977.732	1.615	979751	WORD	n/a	wordpools/wordpool_categorized_EN.txt	LIGHTNING	Weather	1	9	[0, 0, 0]	n/a	catFR1	3	R1501J
979.347	0.784	981364	WORD_OFF	n/a	n/a	LIGHTNING	Weather	1	9	[0, 0, 0]	n/a	catFR1	3	R1501J
980.131	1.6	982158	WORD	n/a	wordpools/wordpool_categorized_EN.txt	RAIN	Weather	2	9	[0, 0, 0]	n/a	catFR1	3	R1501J
981.731	0.834	983758	WORD_OFF	n/a	n/a	RAIN	Weather	2	9	[0, 0, 0]	n/a	catFR1	3	R1501J
982.565	1.616	984592	WORD	n/a	wordpools/wordpool_categorized_EN.txt	ROOF	Building	3	9	[0, 0, 0]	n/a	catFR1	3	R1501J
984.181	0.951	986205	WORD_OFF	n/a	n/a	ROOF	Building	3	9	[0, 0, 0]	n/a	catFR1	3	R1501J
985.132	1.6	987158	WORD	n/a	wordpools/wordpool_categorized_EN.txt	ATTIC	Building	4	9	[0, 0, 0]	n/a	catFR1	3	R1501J
986.732	0.932	988758	WORD_OFF	n/a	n/a	ATTIC	Building	4	9	[0, 0, 0]	n/a	catFR1	3	R1501J
987.664	1.6	989684	WORD	n/a	wordpools/wordpool_categorized_EN.txt	SKIRT	Clothing	5	9	[0, 0, 0]	n/a	catFR1	3	R1501J
989.264	0.951	991284	WORD_OFF	n/a	n/a	SKIRT	Clothing	5	9	[0, 0, 0]	n/a	catFR1	3	R1501J
990.215	1.617	992237	WORD	n/a	wordpools/wordpool_categorized_EN.txt	JACKET	Clothing	6	9	[0, 0, 0]	n/a	catFR1	3	R1501J
991.832	0.833	993850	WORD_OFF	n/a	n/a	JACKET	Clothing	6	9	[0, 0, 0]	n/a	catFR1	3	R1501J
992.665	1.6	994684	WORD	n/a	wordpools/wordpool_categorized_EN.txt	ROOM	Building	7	9	[0, 0, 0]	n/a	catFR1	3	R1501J
994.265	0.834	996284	WORD_OFF	n/a	n/a	ROOM	Building	7	9	[0, 0, 0]	n/a	catFR1	3	R1501J
995.099	1.616	997117	WORD	n/a	wordpools/wordpool_categorized_EN.txt	FOUNDATION	Building	8	9	[0, 0, 0]	n/a	catFR1	3	R1501J
996.715	0.783	998731	WORD_OFF	n/a	n/a	FOUNDATION	Building	8	9	[0, 0, 0]	n/a	catFR1	3	R1501J
997.498	1.616	999525	WORD	n/a	wordpools/wordpool_categorized_EN.txt	THUNDERSTORM	Weather	9	9	[0, 0, 0]	n/a	catFR1	3	R1501J
999.114	0.901	1001138	WORD_OFF	n/a	n/a	THUNDERSTORM	Weather	9	9	[0, 0, 0]	n/a	catFR1	3	R1501J
1000.015	1.6	1002038	WORD	n/a	wordpools/wordpool_categorized_EN.txt	HURRICANE	Weather	10	9	[0, 0, 0]	n/a	catFR1	3	R1501J
1001.615	0.967	1003638	WORD_OFF	n/a	n/a	HURRICANE	Weather	10	9	[0, 0, 0]	n/a	catFR1	3	R1501J
1002.582	1.6	1004604	WORD	n/a	wordpools/wordpool_categorized_EN.txt	SHIRT	Clothing	11	9	[0, 0, 0]	n/a	catFR1	3	R1501J
1004.182	0.951	1006204	WORD_OFF	n/a	n/a	SHIRT	Clothing	11	9	[0, 0, 0]	n/a	catFR1	3	R1501J
1005.133	1.616	1007156	WORD	n/a	wordpools/wordpool_categorized_EN.txt	BLOUSE	Clothing	12	9	[0, 0, 0]	n/a	catFR1	3	R1501J
1006.749	0.002	1008770	WORD_OFF	n/a	n/a	BLOUSE	Clothing	12	9	[0, 0, 0]	n/a	catFR1	3	R1501J
1006.751	0.0	1008770	ENCODING_END	n/a	n/a	n/a	n/a	-999	9	[0, 0, 0]	n/a	catFR1	3	R1501J
1006.751	0.0	1008770	DISTRACT_START	n/a	n/a	n/a	n/a	-999	9	[0, 0, 0]	n/a	catFR1	3	R1501J
1006.749	0.002	1008775	PROB	5.015	n/a	n/a	n/a	-999	9	[6, 5, 5]	16.0	catFR1	3	R1501J
1006.751	5.031	1008777	START	n/a	n/a	n/a	n/a	-999	9	[-999, -999, -999]	n/a	catFR1	3	R1501J
1011.782	10.316	1013808	PROB	10.299	n/a	n/a	n/a	-999	9	[6, 8, 2]	16.0	catFR1	3	R1501J
1022.098	10.849	1024124	PROB	10.834	n/a	n/a	n/a	-999	9	[7, 1, 4]	12.0	catFR1	3	R1501J
1032.947	0.0	1034972	DISTRACT_END	n/a	n/a	n/a	n/a	-999	9	[0, 0, 0]	n/a	catFR1	3	R1501J
1032.947	1.068	1034972	STOP	n/a	n/a	n/a	n/a	-999	9	[-999, -999, -999]	n/a	catFR1	3	R1501J
1034.015	1.63	1036030	REC_START	n/a	n/a	n/a	n/a	-999	9	[0, 0, 0]	n/a	catFR1	3	R1501J
1035.645	1.82	1037670	REC_WORD	1.63	n/a	LIGHTNING	Weather	1	9	[0, 0, 0]	n/a	catFR1	3	R1501J
1037.465	1.708	1039490	REC_WORD	3.45	n/a	RAIN	Weather	2	9	[0, 0, 0]	n/a	catFR1	3	R1501J
1039.173	1.528	1041198	REC_WORD	5.158	n/a	ROOF	Building	3	9	[0, 0, 0]	n/a	catFR1	3	R1501J
1040.701	1.016	1042726	REC_WORD	6.686	n/a	ATTIC	Building	4	9	[0, 0, 0]	n/a	catFR1	3	R1501J
1041.717	1.765	1043742	REC_WORD	7.702	n/a	SKIRT	Clothing	5	9	[0, 0, 0]	n/a	catFR1	3	R1501J
1043.482	1.481	1045507	REC_WORD	9.467	n/a	SHIRT	Clothing	11	9	[0, 0, 0]	n/a	catFR1	3	R1501J
1044.963	6.858	1046988	REC_WORD	10.948	n/a	THUNDERSTORM	Weather	9	9	[0, 0, 0]	n/a	catFR1	3	R1501J
1051.821	10.609	1053846	REC_WORD	17.806	n/a	COAT	n/a	-999	9	[0, 0, 0]	n/a	catFR1	3	R1501J
1062.43	0.957	1064454	REC_WORD	28.415	n/a	SHIRT	Clothing	11	9	[0, 0, 0]	n/a	catFR1	3	R1501J
1063.387	0.211	1065411	REC_WORD_VV	29.372	n/a	<>	n/a	-999	9	[0, 0, 0]	n/a	catFR1	3	R1501J
1063.598	1.649	1065622	REC_WORD	29.583	n/a	SKIRT	Clothing	5	9	[0, 0, 0]	n/a	catFR1	3	R1501J
1065.247	1.62	1067258	REC_END	n/a	n/a	n/a	n/a	-999	9	[0, 0, 0]	n/a	catFR1	3	R1501J
1066.867	10.349	1068885	COUNTDOWN_START	n/a	n/a	n/a	n/a	-999	10	[0, 0, 0]	n/a	catFR1	3	R1501J
1077.216	0.0	1079228	COUNTDOWN_END	n/a	n/a	n/a	n/a	-999	10	[0, 0, 0]	n/a	catFR1	3	R1501J
1077.216	2.3	1079242	ENCODING_START	n/a	n/a	n/a	n/a	-999	10	[0, 0, 0]	n/a	catFR1	3	R1501J
1079.516	1.6	1081530	WORD	n/a	wordpools/wordpool_categorized_EN.txt	RADIO	Electronics	1	10	[0, 0, 0]	n/a	catFR1	3	R1501J
1081.116	0.867	1083130	WORD_OFF	n/a	n/a	RADIO	Electronics	1	10	[0, 0, 0]	n/a	catFR1	3	R1501J
1081.983	1.6	1084003	WORD	n/a	wordpools/wordpool_categorized_EN.txt	PRINTER	Electronics	2	10	[0, 0, 0]	n/a	catFR1	3	R1501J
1083.583	0.866	1085604	WORD_OFF	n/a	n/a	PRINTER	Electronics	2	10	[0, 0, 0]	n/a	catFR1	3	R1501J
1084.449	1.601	1086463	WORD	n/a	wordpools/wordpool_categorized_EN.txt	BOOKCASE	Furniture	3	10	[0, 0, 0]	n/a	catFR1	3	R1501J
1086.05	0.816	1088064	WORD_OFF	n/a	n/a	BOOKCASE	Furniture	3	10	[0, 0, 0]	n/a	catFR1	3	R1501J
1086.866	1.617	1088884	WORD	n/a	wordpools/wordpool_categorized_EN.txt	SHELF	Furniture	4	10	[0, 0, 0]	n/a	catFR1	3	R1501J
1088.483	0.982	1090498	WORD_OFF	n/a	n/a	SHELF	Furniture	4	10	[0, 0, 0]	n/a	catFR1	3	R1501J
1089.465	1.601	1091476	WORD	n/a	wordpools/wordpool_categorized_EN.txt	CHEETAH	Zoo	5	10	[0, 0, 0]	n/a	catFR1	3	R1501J
1091.066	0.784	1093090	WORD_OFF	n/a	n/a	CHEETAH	Zoo	5	10	[0, 0, 0]	n/a	catFR1	3	R1501J
1091.85	1.614	1093870	WORD	n/a	wordpools/wordpool_categorized_EN.txt	ORANGUTAN	Zoo	6	10	[0, 0, 0]	n/a	catFR1	3	R1501J
1093.464	0.886	1095484	WORD_OFF	n/a	n/a	ORANGUTAN	Zoo	6	10	[0, 0, 0]	n/a	catFR1	3	R1501J
1094.35	1.615	1096370	WORD	n/a	wordpools/wordpool_categorized_EN.txt	MICROWAVE	Electronics	7	10	[0, 0, 0]	n/a	catFR1	3	R1501J
1095.965	0.934	1097984	WORD_OFF	n/a	n/a	MICROWAVE	Electronics	7	10	[0, 0, 0]	n/a	catFR1	3	R1501J
1096.899	1.6	1098910	WORD	n/a	wordpools/wordpool_categorized_EN.txt	TELEVISION	Electronics	8	10	[0, 0, 0]	n/a	catFR1	3	R1501J
1098.499	0.884	1100510	WORD_OFF	n/a	n/a	TELEVISION	Electronics	8	10	[0, 0, 0]	n/a	catFR1	3	R1501J
1099.383	1.615	1101396	WORD	n/a	wordpools/wordpool_categorized_EN.txt	RECLINER	Furniture	9	10	[0, 0, 0]	n/a	catFR1	3	R1501J
1100.998	0.952	1103010	WORD_OFF	n/a	n/a	RECLINER	Furniture	9	10	[0, 0, 0]	n/a	catFR1	3	R1501J
1101.95	1.6	1103962	WORD	n/a	wordpools/wordpool_categorized_EN.txt	TABLE	Furniture	10	10	[0, 0, 0]	n/a	catFR1	3	R1501J
1103.55	0.765	1105563	WORD_OFF	n/a	n/a	TABLE	Furniture	10	10	[0, 0, 0]	n/a	catFR1	3	R1501J
1104.315	1.601	1106330	WORD	n/a	wordpools/wordpool_categorized_EN.txt	MONKEY	Zoo	11	10	[0, 0, 0]	n/a	catFR1	3	R1501J
1105.916	0.95	1107930	WORD_OFF	n/a	n/a	MONKEY	Zoo	11	10	[0, 0, 0]	n/a	catFR1	3	R1501J
1106.866	1.616	1108883	WORD	n/a	wordpools/wordpool_categorized_EN.txt	BEAR	Zoo	12	10	[0, 0, 0]	n/a	catFR1	3	R1501J
1108.482	0.001	1110496	WORD_OFF	n/a	n/a	BEAR	Zoo	12	10	[0, 0, 0]	n/a	catFR1	3	R1501J
1108.483	0.0	1110496	ENCODING_END	n/a	n/a	n/a	n/a	-999	10	[0, 0, 0]	n/a	catFR1	3	R1501J
1108.483	0.0	1110505	START	n/a	n/a	n/a	n/a	-999	10	[-999, -999, -999]	n/a	catFR1	3	R1501J
1108.483	0.0	1110505	PROB	8.967	n/a	n/a	n/a	-999	10	[8, 4, 4]	16.0	catFR1	3	R1501J
1108.483	8.983	1110509	DISTRACT_START	n/a	n/a	n/a	n/a	-999	10	[0, 0, 0]	n/a	catFR1	3	R1501J
1117.466	8.55	1119488	PROB	8.533	n/a	n/a	n/a	-999	10	[2, 3, 4]	9.0	catFR1	3	R1501J
1126.016	4.816	1128038	PROB	4.799	n/a	n/a	n/a	-999	10	[6, 4, 4]	14.0	catFR1	3	R1501J
1130.832	0.0	1132849	DISTRACT_END	n/a	n/a	n/a	n/a	-999	10	[0, 0, 0]	n/a	catFR1	3	R1501J
1130.832	1.084	1132853	STOP	n/a	n/a	n/a	n/a	-999	10	[-999, -999, -999]	n/a	catFR1	3	R1501J
1131.916	0.472	1133934	REC_START	n/a	n/a	n/a	n/a	-999	10	[0, 0, 0]	n/a	catFR1	3	R1501J
1132.388	1.44	1134409	REC_WORD	0.472	n/a	RADIO	Electronics	1	10	[0, 0, 0]	n/a	catFR1	3	R1501J
1133.828	1.465	1135849	REC_WORD	1.912	n/a	PRINTER	Electronics	2	10	[0, 0, 0]	n/a	catFR1	3	R1501J
1135.293	1.554	1137314	REC_WORD	3.377	n/a	BOOKCASE	Furniture	3	10	[0, 0, 0]	n/a	catFR1	3	R1501J
1136.847	1.597	1138868	REC_WORD	4.931	n/a	SHELF	Furniture	4	10	[0, 0, 0]	n/a	catFR1	3	R1501J
1138.444	3.334	1140465	REC_WORD	6.528	n/a	ORANGUTAN	Zoo	6	10	[0, 0, 0]	n/a	catFR1	3	R1501J
1141.778	2.436	1143799	REC_WORD	9.862	n/a	MONKEY	Zoo	11	10	[0, 0, 0]	n/a	catFR1	3	R1501J
1144.214	1.613	1146235	REC_WORD	12.298	n/a	RECLINER	Furniture	9	10	[0, 0, 0]	n/a	catFR1	3	R1501J
1145.827	1.941	1147848	REC_WORD	13.911	n/a	TABLE	Furniture	10	10	[0, 0, 0]	n/a	catFR1	3	R1501J
1147.768	15.389	1149789	REC_WORD	15.852	n/a	CHAIR	n/a	-999	10	[0, 0, 0]	n/a	catFR1	3	R1501J
1163.157	2.041	1165175	REC_END	n/a	n/a	n/a	n/a	-999	10	[0, 0, 0]	n/a	catFR1	3	R1501J
1165.198	10.35	1167212	COUNTDOWN_START	n/a	n/a	n/a	n/a	-999	11	[0, 0, 0]	n/a	catFR1	3	R1501J
1175.548	0.0	1177555	COUNTDOWN_END	n/a	n/a	n/a	n/a	-999	11	[0, 0, 0]	n/a	catFR1	3	R1501J
1175.548	1.934	1177569	ENCODING_START	n/a	n/a	n/a	n/a	-999	11	[0, 0, 0]	n/a	catFR1	3	R1501J
1177.482	1.617	1179500	WORD	n/a	wordpools/wordpool_categorized_EN.txt	THUNDER	Weather	1	11	[0, 0, 0]	n/a	catFR1	3	R1501J
1179.099	0.8	1181113	WORD_OFF	n/a	n/a	THUNDER	Weather	1	11	[0, 0, 0]	n/a	catFR1	3	R1501J
1179.899	1.616	1181907	WORD	n/a	wordpools/wordpool_categorized_EN.txt	DRIZZLE	Weather	2	11	[0, 0, 0]	n/a	catFR1	3	R1501J
1181.515	0.983	1183534	WORD_OFF	n/a	n/a	DRIZZLE	Weather	2	11	[0, 0, 0]	n/a	catFR1	3	R1501J
1182.498	1.6	1184513	WORD	n/a	wordpools/wordpool_categorized_EN.txt	STEREO	Electronics	3	11	[0, 0, 0]	n/a	catFR1	3	R1501J
1184.098	0.801	1186113	WORD_OFF	n/a	n/a	STEREO	Electronics	3	11	[0, 0, 0]	n/a	catFR1	3	R1501J
1184.899	1.616	1186907	WORD	n/a	wordpools/wordpool_categorized_EN.txt	HEADPHONES	Electronics	4	11	[0, 0, 0]	n/a	catFR1	3	R1501J
1186.515	0.9	1188534	WORD_OFF	n/a	n/a	HEADPHONES	Electronics	4	11	[0, 0, 0]	n/a	catFR1	3	R1501J
1187.415	1.6	1189433	WORD	n/a	wordpools/wordpool_categorized_EN.txt	LAKE	Landscapes	5	11	[0, 0, 0]	n/a	catFR1	3	R1501J
1189.015	0.817	1191033	WORD_OFF	n/a	n/a	LAKE	Landscapes	5	11	[0, 0, 0]	n/a	catFR1	3	R1501J
1189.832	1.617	1191840	WORD	n/a	wordpools/wordpool_categorized_EN.txt	MOUNTAIN	Landscapes	6	11	[0, 0, 0]	n/a	catFR1	3	R1501J
1191.449	0.783	1193467	WORD_OFF	n/a	n/a	MOUNTAIN	Landscapes	6	11	[0, 0, 0]	n/a	catFR1	3	R1501J
1192.232	1.615	1194247	WORD	n/a	wordpools/wordpool_categorized_EN.txt	TABLET	Electronics	7	11	[0, 0, 0]	n/a	catFR1	3	R1501J
1193.847	0.768	1195861	WORD_OFF	n/a	n/a	TABLET	Electronics	7	11	[0, 0, 0]	n/a	catFR1	3	R1501J
1194.615	1.616	1196628	WORD	n/a	wordpools/wordpool_categorized_EN.txt	CALCULATOR	Electronics	8	11	[0, 0, 0]	n/a	catFR1	3	R1501J
1196.231	0.883	1198242	WORD_OFF	n/a	n/a	CALCULATOR	Electronics	8	11	[0, 0, 0]	n/a	catFR1	3	R1501J
1197.114	1.6	1199128	WORD	n/a	wordpools/wordpool_categorized_EN.txt	WOODS	Landscapes	9	11	[0, 0, 0]	n/a	catFR1	3	R1501J
1198.714	0.767	1200729	WORD_OFF	n/a	n/a	WOODS	Landscapes	9	11	[0, 0, 0]	n/a	catFR1	3	R1501J
1199.481	1.601	1201496	WORD	n/a	wordpools/wordpool_categorized_EN.txt	VALLEY	Landscapes	10	11	[0, 0, 0]	n/a	catFR1	3	R1501J
1201.082	0.85	1203096	WORD_OFF	n/a	n/a	VALLEY	Landscapes	10	11	[0, 0, 0]	n/a	catFR1	3	R1501J
1201.932	1.616	1203943	WORD	n/a	wordpools/wordpool_categorized_EN.txt	CLOUD	Weather	11	11	[0, 0, 0]	n/a	catFR1	3	R1501J
1203.548	0.9	1205556	WORD_OFF	n/a	n/a	CLOUD	Weather	11	11	[0, 0, 0]	n/a	catFR1	3	R1501J
1204.448	1.6	1206456	WORD	n/a	wordpools/wordpool_categorized_EN.txt	WIND	Weather	12	11	[0, 0, 0]	n/a	catFR1	3	R1501J
1206.048	0.001	1208056	WORD_OFF	n/a	n/a	WIND	Weather	12	11	[0, 0, 0]	n/a	catFR1	3	R1501J
1206.049	0.0	1208056	ENCODING_END	n/a	n/a	n/a	n/a	-999	11	[0, 0, 0]	n/a	catFR1	3	R1501J
1206.049	0.0	1208067	START	n/a	n/a	n/a	n/a	-999	11	[-999, -999, -999]	n/a	catFR1	3	R1501J
1206.049	0.0	1208067	PROB	3.333	n/a	n/a	n/a	-999	11	[5, 7, 2]	11.0	catFR1	3	R1501J
1206.049	3.35	1208069	DISTRACT_START	n/a	n/a	n/a	n/a	-999	11	[0, 0, 0]	n/a	catFR1	3	R1501J
1209.399	6.883	1211417	PROB	6.866	n/a	n/a	n/a	-999	11	[2, 3, 1]	6.0	catFR1	3	R1501J
1216.282	5.183	1218300	PROB	5.166	n/a	n/a	n/a	-999	11	[3, 8, 4]	15.0	catFR1	3	R1501J
1221.465	4.799	1223483	PROB	4.782	n/a	n/a	n/a	-999	11	[8, 1, 4]	13.0	catFR1	3	R1501J
1226.264	0.0	1228280	DISTRACT_END	n/a	n/a	n/a	n/a	-999	11	[0, 0, 0]	n/a	catFR1	3	R1501J
1226.264	1.351	1228281	STOP	n/a	n/a	n/a	n/a	-999	11	[-999, -999, -999]	n/a	catFR1	3	R1501J
1227.615	0.868	1229629	REC_START	n/a	n/a	n/a	n/a	-999	11	[0, 0, 0]	n/a	catFR1	3	R1501J
1228.483	1.152	1230500	REC_WORD	0.868	n/a	THUNDER	Weather	1	11	[0, 0, 0]	n/a	catFR1	3	R1501J
1229.635	0.617	1231652	REC_WORD_VV	2.02	n/a	<>	n/a	-999	11	[0, 0, 0]	n/a	catFR1	3	R1501J
1230.252	3.795	1232269	REC_WORD	2.637	n/a	DRIZZLE	Weather	2	11	[0, 0, 0]	n/a	catFR1	3	R1501J
1234.047	2.285	1236064	REC_WORD	6.432	n/a	STEREO	Electronics	3	11	[0, 0, 0]	n/a	catFR1	3	R1501J
1236.332	0.788	1238349	REC_WORD	8.717	n/a	LAKE	Landscapes	5	11	[0, 0, 0]	n/a	catFR1	3	R1501J
1237.12	1.334	1239137	REC_WORD_VV	9.505	n/a	<>	n/a	-999	11	[0, 0, 0]	n/a	catFR1	3	R1501J
1238.454	6.964	1240471	REC_WORD_VV	10.839	n/a	<>	n/a	-999	11	[0, 0, 0]	n/a	catFR1	3	R1501J
1245.418	1.589	1247435	REC_WORD	17.803	n/a	THUNDER	Weather	1	11	[0, 0, 0]	n/a	catFR1	3	R1501J
1247.007	2.053	1249024	REC_WORD	19.392	n/a	DRIZZLE	Weather	2	11	[0, 0, 0]	n/a	catFR1	3	R1501J
1249.06	9.776	1251077	REC_WORD	21.445	n/a	LAKE	Landscapes	5	11	[0, 0, 0]	n/a	catFR1	3	R1501J
1258.836	1.747	1260844	REC_END	n/a	n/a	n/a	n/a	-999	11	[0, 0, 0]	n/a	catFR1	3	R1501J
1260.583	10.349	1262590	COUNTDOWN_START	n/a	n/a	n/a	n/a	-999	12	[0, 0, 0]	n/a	catFR1	3	R1501J
1270.932	0.0	1272946	COUNTDOWN_END	n/a	n/a	n/a	n/a	-999	12	[0, 0, 0]	n/a	catFR1	3	R1501J
1270.932	2.234	1272946	ENCODING_START	n/a	n/a	n/a	n/a	-999	12	[0, 0, 0]	n/a	catFR1	3	R1501J
1273.166	1.6	1275181	WORD	n/a	wordpools/wordpool_categorized_EN.txt	OCEAN	Landscapes	1	12	[0, 0, 0]	n/a	catFR1	3	R1501J
1274.766	0.8	1276782	WORD_OFF	n/a	n/a	OCEAN	Landscapes	1	12	[0, 0, 0]	n/a	catFR1	3	R1501J
1275.566	1.617	1277575	WORD	n/a	wordpools/wordpool_categorized_EN.txt	STREAM	Landscapes	2	12	[0, 0, 0]	n/a	catFR1	3	R1501J
1277.183	0.949	1279189	WORD_OFF	n/a	n/a	STREAM	Landscapes	2	12	[0, 0, 0]	n/a	catFR1	3	R1501J
1278.132	1.601	1280141	WORD	n/a	wordpools/wordpool_categorized_EN.txt	NYLON	Fabric	3	12	[0, 0, 0]	n/a	catFR1	3	R1501J
1279.733	0.998	1281742	WORD_OFF	n/a	n/a	NYLON	Fabric	3	12	[0, 0, 0]	n/a	catFR1	3	R1501J
1280.731	1.602	1282747	WORD	n/a	wordpools/wordpool_categorized_EN.txt	COTTON	Fabric	4	12	[0, 0, 0]	n/a	catFR1	3	R1501J
1282.333	0.998	1284347	WORD_OFF	n/a	n/a	COTTON	Fabric	4	12	[0, 0, 0]	n/a	catFR1	3	R1501J
1283.331	1.602	1285339	WORD	n/a	wordpools/wordpool_categorized_EN.txt	PANTS	Clothing	5	12	[0, 0, 0]	n/a	catFR1	3	R1501J
1284.933	0.817	1286940	WORD_OFF	n/a	n/a	PANTS	Clothing	5	12	[0, 0, 0]	n/a	catFR1	3	R1501J
1285.75	1.617	1287760	WORD	n/a	wordpools/wordpool_categorized_EN.txt	JEANS	Clothing	6	12	[0, 0, 0]	n/a	catFR1	3	R1501J
1287.367	0.781	1289374	WORD_OFF	n/a	n/a	JEANS	Clothing	6	12	[0, 0, 0]	n/a	catFR1	3	R1501J
1288.148	1.602	1290154	WORD	n/a	wordpools/wordpool_categorized_EN.txt	BEACH	Landscapes	7	12	[0, 0, 0]	n/a	catFR1	3	R1501J
1289.75	0.765	1291754	WORD_OFF	n/a	n/a	BEACH	Landscapes	7	12	[0, 0, 0]	n/a	catFR1	3	R1501J
1290.515	1.601	1292521	WORD	n/a	wordpools/wordpool_categorized_EN.txt	CREEK	Landscapes	8	12	[0, 0, 0]	n/a	catFR1	3	R1501J
1292.116	0.817	1294122	WORD_OFF	n/a	n/a	CREEK	Landscapes	8	12	[0, 0, 0]	n/a	catFR1	3	R1501J
1292.933	1.6	1294942	WORD	n/a	wordpools/wordpool_categorized_EN.txt	SPANDEX	Fabric	9	12	[0, 0, 0]	n/a	catFR1	3	R1501J
1294.533	0.883	1296542	WORD_OFF	n/a	n/a	SPANDEX	Fabric	9	12	[0, 0, 0]	n/a	catFR1	3	R1501J
1295.416	1.6	1297429	WORD	n/a	wordpools/wordpool_categorized_EN.txt	SATIN	Fabric	10	12	[0, 0, 0]	n/a	catFR1	3	R1501J
1297.016	0.783	1299029	WORD_OFF	n/a	n/a	SATIN	Fabric	10	12	[0, 0, 0]	n/a	catFR1	3	R1501J
1297.799	1.601	1299809	WORD	n/a	wordpools/wordpool_categorized_EN.txt	COAT	Clothing	11	12	[0, 0, 0]	n/a	catFR1	3	R1501J
1299.4	0.832	1301410	WORD_OFF	n/a	n/a	COAT	Clothing	11	12	[0, 0, 0]	n/a	catFR1	3	R1501J
1300.232	1.601	1302243	WORD	n/a	wordpools/wordpool_categorized_EN.txt	UNDERWEAR	Clothing	12	12	[0, 0, 0]	n/a	catFR1	3	R1501J
1301.833	0.001	1303844	WORD_OFF	n/a	n/a	UNDERWEAR	Clothing	12	12	[0, 0, 0]	n/a	catFR1	3	R1501J
1301.834	0.0	1303844	ENCODING_END	n/a	n/a	n/a	n/a	-999	12	[0, 0, 0]	n/a	catFR1	3	R1501J
1301.834	0.0	1303844	DISTRACT_START	n/a	n/a	n/a	n/a	-999	12	[0, 0, 0]	n/a	catFR1	3	R1501J
1301.833	0.001	1303847	PROB	12.099	n/a	n/a	n/a	-999	12	[8, 6, 8]	22.0	catFR1	3	R1501J
1301.834	12.116	1303848	START	n/a	n/a	n/a	n/a	-999	12	[-999, -999, -999]	n/a	catFR1	3	R1501J
1313.95	8.333	1315964	PROB	8.316	n/a	n/a	n/a	-999	12	[4, 2, 6]	12.0	catFR1	3	R1501J
1322.283	0.0	1324292	DISTRACT_END	n/a	n/a	n/a	n/a	-999	12	[0, 0, 0]	n/a	catFR1	3	R1501J
1322.283	1.317	1324297	STOP	n/a	n/a	n/a	n/a	-999	12	[-999, -999, -999]	n/a	catFR1	3	R1501J
1323.6	0.618	1325601	REC_START	n/a	n/a	n/a	n/a	-999	12	[0, 0, 0]	n/a	catFR1	3	R1501J
1324.218	0.815	1326231	REC_WORD	0.618	n/a	OCEAN	Landscapes	1	12	[0, 0, 0]	n/a	catFR1	3	R1501J
1325.033	1.338	1327046	REC_WORD	1.433	n/a	STREAM	Landscapes	2	12	[0, 0, 0]	n/a	catFR1	3	R1501J
1326.371	1.433	1328384	REC_WORD	2.771	n/a	NYLON	Fabric	3	12	[0, 0, 0]	n/a	catFR1	3	R1501J
1327.804	1.52	1329817	REC_WORD	4.204	n/a	COTTON	Fabric	4	12	[0, 0, 0]	n/a	catFR1	3	R1501J
1329.324	6.15	1331337	REC_WORD	5.724	n/a	PANTS	Clothing	5	12	[0, 0, 0]	n/a	catFR1	3	R1501J
1335.474	1.166	1337487	REC_WORD	11.874	n/a	WOOL	n/a	-999	12	[0, 0, 0]	n/a	catFR1	3	R1501J
1336.64	2.107	1338653	REC_WORD_VV	13.04	n/a	<>	n/a	-999	12	[0, 0, 0]	n/a	catFR1	3	R1501J
1338.747	1.384	1340760	REC_WORD_VV	15.147	n/a	<>	n/a	-999	12	[0, 0, 0]	n/a	catFR1	3	R1501J
1340.131	0.556	1342144	REC_WORD	16.531	n/a	STREAM	Landscapes	2	12	[0, 0, 0]	n/a	catFR1	3	R1501J
1340.687	0.644	1342700	REC_WORD	17.087	n/a	NYLON	Fabric	3	12	[0, 0, 0]	n/a	catFR1	3	R1501J
1341.331	1.029	1343344	REC_WORD	17.731	n/a	COTTON	Fabric	4	12	[0, 0, 0]	n/a	catFR1	3	R1501J
1342.36	6.771	1344373	REC_WORD	18.76	n/a	PANTS	Clothing	5	12	[0, 0, 0]	n/a	catFR1	3	R1501J
1349.131	3.101	1351143	REC_WORD	25.531	n/a	COUCH	n/a	-999	12	[0, 0, 0]	n/a	catFR1	3	R1501J
1352.232	2.602	1354244	REC_WORD_VV	28.632	n/a	<>	n/a	-999	12	[0, 0, 0]	n/a	catFR1	3	R1501J
1354.834	0.0	1356843	REC_END	n/a	n/a	n/a	n/a	-999	12	[0, 0, 0]	n/a	catFR1	3	R1501J
