onset	duration	sample	trial_type	response_time	stim_file	item_name	category	serialpos	list	test	answer	experiment	session	subject
0.0	39.764	5909	INSTRUCT_START	n/a	n/a	n/a	n/a	-999	-999	[0, 0, 0]	n/a	catFR1	2	R1499T
39.764	22.182	45674	INSTRUCT_END	n/a	n/a	n/a	n/a	-999	-999	[0, 0, 0]	n/a	catFR1	2	R1499T
61.946	10.384	67852	COUNTDOWN_START	n/a	n/a	n/a	n/a	-999	-999	[0, 0, 0]	n/a	catFR1	2	R1499T
72.33	0.0	78240	COUNTDOWN_END	n/a	n/a	n/a	n/a	-999	-999	[0, 0, 0]	n/a	catFR1	2	R1499T
72.33	1.934	78240	ENCODING_START	n/a	n/a	n/a	n/a	-999	-1	[0, 0, 0]	n/a	catFR1	2	R1499T
74.264	1.616	80167	WORD	n/a	n/a	LANGOSTA	OceanAnimals	1	-1	[0, 0, 0]	n/a	catFR1	2	R1499T
75.88	0.933	81783	WORD_OFF	n/a	n/a	LANGOSTA	OceanAnimals	1	-1	[0, 0, 0]	n/a	catFR1	2	R1499T
76.813	1.6	82718	WORD	n/a	n/a	TORTUGA	OceanAnimals	2	-1	[0, 0, 0]	n/a	catFR1	2	R1499T
78.413	0.801	84319	WORD_OFF	n/a	n/a	TORTUGA	OceanAnimals	2	-1	[0, 0, 0]	n/a	catFR1	2	R1499T
79.214	1.6	85113	WORD	n/a	n/a	LANA	Fabric	3	-1	[0, 0, 0]	n/a	catFR1	2	R1499T
80.814	0.899	86714	WORD_OFF	n/a	n/a	LANA	Fabric	3	-1	[0, 0, 0]	n/a	catFR1	2	R1499T
81.713	1.617	87621	WORD	n/a	n/a	LINO	Fabric	4	-1	[0, 0, 0]	n/a	catFR1	2	R1499T
83.33	0.833	89237	WORD_OFF	n/a	n/a	LINO	Fabric	4	-1	[0, 0, 0]	n/a	catFR1	2	R1499T
84.163	1.6	90073	WORD	n/a	n/a	ORQUIDEA	Flowers	5	-1	[0, 0, 0]	n/a	catFR1	2	R1499T
85.763	0.784	91674	WORD_OFF	n/a	n/a	ORQUIDEA	Flowers	5	-1	[0, 0, 0]	n/a	catFR1	2	R1499T
86.547	1.616	92454	WORD	n/a	n/a	CALENDULA	Flowers	6	-1	[0, 0, 0]	n/a	catFR1	2	R1499T
88.163	0.984	94069	WORD_OFF	n/a	n/a	CALENDULA	Flowers	6	-1	[0, 0, 0]	n/a	catFR1	2	R1499T
89.147	1.616	95047	WORD	n/a	n/a	OSTRA	OceanAnimals	7	-1	[0, 0, 0]	n/a	catFR1	2	R1499T
90.763	0.867	96663	WORD_OFF	n/a	n/a	OSTRA	OceanAnimals	7	-1	[0, 0, 0]	n/a	catFR1	2	R1499T
91.63	1.617	97541	WORD	n/a	n/a	PULPO	OceanAnimals	8	-1	[0, 0, 0]	n/a	catFR1	2	R1499T
93.247	0.8	99157	WORD_OFF	n/a	n/a	PULPO	OceanAnimals	8	-1	[0, 0, 0]	n/a	catFR1	2	R1499T
94.047	1.616	99951	WORD	n/a	n/a	VIOLETA	Flowers	9	-1	[0, 0, 0]	n/a	catFR1	2	R1499T
95.663	0.937	101566	WORD_OFF	n/a	n/a	VIOLETA	Flowers	9	-1	[0, 0, 0]	n/a	catFR1	2	R1499T
96.6	1.613	102501	WORD	n/a	n/a	PETUNIA	Flowers	10	-1	[0, 0, 0]	n/a	catFR1	2	R1499T
98.213	0.766	104117	WORD_OFF	n/a	n/a	PETUNIA	Flowers	10	-1	[0, 0, 0]	n/a	catFR1	2	R1499T
98.979	1.601	104882	WORD	n/a	n/a	SATEN	Fabric	11	-1	[0, 0, 0]	n/a	catFR1	2	R1499T
100.58	0.967	106484	WORD_OFF	n/a	n/a	SATEN	Fabric	11	-1	[0, 0, 0]	n/a	catFR1	2	R1499T
101.547	1.6	107447	WORD	n/a	n/a	PIEL	Fabric	12	-1	[0, 0, 0]	n/a	catFR1	2	R1499T
103.147	0.001	109049	WORD_OFF	n/a	n/a	PIEL	Fabric	12	-1	[0, 0, 0]	n/a	catFR1	2	R1499T
103.148	0.0	109049	ENCODING_END	n/a	n/a	n/a	n/a	-999	-1	[0, 0, 0]	n/a	catFR1	2	R1499T
103.148	0.0	109049	DISTRACT_START	n/a	n/a	n/a	n/a	-999	-1	[0, 0, 0]	n/a	catFR1	2	R1499T
103.148	0.0	109050	START	n/a	n/a	n/a	n/a	-999	-1	[-999, -999, -999]	n/a	catFR1	2	R1499T
103.148	3.616	109050	PROB	3.616	n/a	n/a	n/a	-999	-1	[7, 2, 1]	9	catFR1	2	R1499T
106.764	5.565	112666	PROB	5.565	n/a	n/a	n/a	-999	-1	[7, 6, 4]	17	catFR1	2	R1499T
112.329	5.202	118231	PROB	5.202	n/a	n/a	n/a	-999	-1	[4, 8, 7]	19	catFR1	2	R1499T
117.531	5.766	123432	PROB	5.766	n/a	n/a	n/a	-999	-1	[2, 5, 2]	9	catFR1	2	R1499T
123.297	0.0	129198	STOP	n/a	n/a	n/a	n/a	-999	-1	[-999, -999, -999]	n/a	catFR1	2	R1499T
123.297	2.033	129200	DISTRACT_END	n/a	n/a	n/a	n/a	-999	-1	[0, 0, 0]	n/a	catFR1	2	R1499T
125.33	1.33	131235	REC_START	n/a	n/a	n/a	n/a	-999	-1	[0, 0, 0]	n/a	catFR1	2	R1499T
126.66	0.758	132561	REC_WORD	0.758	n/a	TORTUGA	OceanAnimals	2	-1	[0, 0, 0]	n/a	catFR1	2	R1499T
127.418	0.999	133319	REC_WORD	0.999	n/a	VIOLETA	Flowers	9	-1	[0, 0, 0]	n/a	catFR1	2	R1499T
128.417	0.489	134318	REC_WORD	0.489	n/a	VIOLETA	Flowers	9	-1	[0, 0, 0]	n/a	catFR1	2	R1499T
128.906	0.846	134807	REC_WORD_VV	0.846	n/a	<>	n/a	-999	-1	[0, 0, 0]	n/a	catFR1	2	R1499T
129.752	1.002	135653	REC_WORD	1.002	n/a	LINO	Fabric	4	-1	[0, 0, 0]	n/a	catFR1	2	R1499T
130.754	1.824	136655	REC_WORD	1.824	n/a	LINO	Fabric	4	-1	[0, 0, 0]	n/a	catFR1	2	R1499T
132.578	0.907	138479	REC_WORD	0.907	n/a	LINO	Fabric	4	-1	[0, 0, 0]	n/a	catFR1	2	R1499T
133.485	3.636	139386	REC_WORD_VV	3.636	n/a	<>	n/a	-999	-1	[0, 0, 0]	n/a	catFR1	2	R1499T
137.121	3.135	143021	REC_WORD_VV	3.135	n/a	<>	n/a	-999	-1	[0, 0, 0]	n/a	catFR1	2	R1499T
140.256	4.183	146156	REC_WORD_VV	4.183	n/a	<>	n/a	-999	-1	[0, 0, 0]	n/a	catFR1	2	R1499T
144.439	4.963	150339	REC_WORD_VV	4.963	n/a	<>	n/a	-999	-1	[0, 0, 0]	n/a	catFR1	2	R1499T
149.402	1.0	155302	REC_WORD_VV	1.0	n/a	<>	n/a	-999	-1	[0, 0, 0]	n/a	catFR1	2	R1499T
150.402	1.0	156302	REC_WORD_VV	1.0	n/a	<>	n/a	-999	-1	[0, 0, 0]	n/a	catFR1	2	R1499T
151.402	1.0	157302	REC_WORD_VV	1.0	n/a	<>	n/a	-999	-1	[0, 0, 0]	n/a	catFR1	2	R1499T
152.402	1.002	158302	REC_WORD_VV	1.002	n/a	<>	n/a	-999	-1	[0, 0, 0]	n/a	catFR1	2	R1499T
153.404	0.996	159304	REC_WORD_VV	0.996	n/a	<>	n/a	-999	-1	[0, 0, 0]	n/a	catFR1	2	R1499T
154.4	1.136	160300	REC_WORD_VV	1.136	n/a	<>	n/a	-999	-1	[0, 0, 0]	n/a	catFR1	2	R1499T
155.536	26.576	161440	REC_END	n/a	n/a	n/a	n/a	-999	-1	[0, 0, 0]	n/a	catFR1	2	R1499T
182.112	10.351	188012	COUNTDOWN_START	n/a	n/a	n/a	n/a	-999	1	[0, 0, 0]	n/a	catFR1	2	R1499T
192.463	0.0	198357	COUNTDOWN_END	n/a	n/a	n/a	n/a	-999	1	[0, 0, 0]	n/a	catFR1	2	R1499T
192.463	2.301	198357	ENCODING_START	n/a	n/a	n/a	n/a	-999	1	[0, 0, 0]	n/a	catFR1	2	R1499T
194.764	1.616	200667	WORD	n/a	wordpools/wordpool_categorized_SP.txt	FRISBEE	Toys	1	1	[0, 0, 0]	n/a	catFR1	2	R1499T
196.38	0.983	202282	WORD_OFF	n/a	n/a	FRISBEE	Toys	1	1	[0, 0, 0]	n/a	catFR1	2	R1499T
197.363	1.617	203260	WORD	n/a	wordpools/wordpool_categorized_SP.txt	CANICAS	Toys	2	1	[0, 0, 0]	n/a	catFR1	2	R1499T
198.98	1.0	204876	WORD_OFF	n/a	n/a	CANICAS	Toys	2	1	[0, 0, 0]	n/a	catFR1	2	R1499T
199.98	1.617	205882	WORD	n/a	wordpools/wordpool_categorized_SP.txt	PETIRROJO	Birds	3	1	[0, 0, 0]	n/a	catFR1	2	R1499T
201.597	0.883	207497	WORD_OFF	n/a	n/a	PETIRROJO	Birds	3	1	[0, 0, 0]	n/a	catFR1	2	R1499T
202.48	1.617	208376	WORD	n/a	wordpools/wordpool_categorized_SP.txt	PALOMA	Birds	4	1	[0, 0, 0]	n/a	catFR1	2	R1499T
204.097	0.9	209992	WORD_OFF	n/a	n/a	PALOMA	Birds	4	1	[0, 0, 0]	n/a	catFR1	2	R1499T
204.997	1.601	210899	WORD	n/a	wordpools/wordpool_categorized_SP.txt	SODA	Beverages	5	1	[0, 0, 0]	n/a	catFR1	2	R1499T
206.598	0.831	212500	WORD_OFF	n/a	n/a	SODA	Beverages	5	1	[0, 0, 0]	n/a	catFR1	2	R1499T
207.429	1.601	213322	WORD	n/a	wordpools/wordpool_categorized_SP.txt	JUGO	Beverages	6	1	[0, 0, 0]	n/a	catFR1	2	R1499T
209.03	1.0	214923	WORD_OFF	n/a	n/a	JUGO	Beverages	6	1	[0, 0, 0]	n/a	catFR1	2	R1499T
210.03	1.616	215929	WORD	n/a	wordpools/wordpool_categorized_SP.txt	CUERVO	Birds	7	1	[0, 0, 0]	n/a	catFR1	2	R1499T
211.646	0.952	217545	WORD_OFF	n/a	n/a	CUERVO	Birds	7	1	[0, 0, 0]	n/a	catFR1	2	R1499T
212.598	1.599	218494	WORD	n/a	wordpools/wordpool_categorized_SP.txt	PATO	Birds	8	1	[0, 0, 0]	n/a	catFR1	2	R1499T
214.197	0.883	220096	WORD_OFF	n/a	n/a	PATO	Birds	8	1	[0, 0, 0]	n/a	catFR1	2	R1499T
215.08	1.6	220974	WORD	n/a	wordpools/wordpool_categorized_SP.txt	BEISBOL	Toys	9	1	[0, 0, 0]	n/a	catFR1	2	R1499T
216.68	0.8	222576	WORD_OFF	n/a	n/a	BEISBOL	Toys	9	1	[0, 0, 0]	n/a	catFR1	2	R1499T
217.48	1.617	223384	WORD	n/a	wordpools/wordpool_categorized_SP.txt	MUNECO	Toys	10	1	[0, 0, 0]	n/a	catFR1	2	R1499T
219.097	0.982	224999	WORD_OFF	n/a	n/a	MUNECO	Toys	10	1	[0, 0, 0]	n/a	catFR1	2	R1499T
220.079	1.617	225977	WORD	n/a	wordpools/wordpool_categorized_SP.txt	CERVEZA	Beverages	11	1	[0, 0, 0]	n/a	catFR1	2	R1499T
221.696	0.934	227592	WORD_OFF	n/a	n/a	CERVEZA	Beverages	11	1	[0, 0, 0]	n/a	catFR1	2	R1499T
222.63	1.616	228528	WORD	n/a	wordpools/wordpool_categorized_SP.txt	RON	Beverages	12	1	[0, 0, 0]	n/a	catFR1	2	R1499T
224.246	0.002	230143	WORD_OFF	n/a	n/a	RON	Beverages	12	1	[0, 0, 0]	n/a	catFR1	2	R1499T
224.248	0.0	230143	ENCODING_END	n/a	n/a	n/a	n/a	-999	1	[0, 0, 0]	n/a	catFR1	2	R1499T
224.248	0.0	230143	DISTRACT_START	n/a	n/a	n/a	n/a	-999	1	[0, 0, 0]	n/a	catFR1	2	R1499T
224.247	0.001	230143	PROB	0.001	n/a	n/a	n/a	-999	1	[7, 3, 7]	17	catFR1	2	R1499T
224.248	5.948	230144	START	n/a	n/a	n/a	n/a	-999	1	[-999, -999, -999]	n/a	catFR1	2	R1499T
230.196	3.851	236092	PROB	3.851	n/a	n/a	n/a	-999	1	[1, 1, 8]	10	catFR1	2	R1499T
234.047	4.05	239942	PROB	4.05	n/a	n/a	n/a	-999	1	[6, 1, 7]	14	catFR1	2	R1499T
238.097	5.067	243992	PROB	5.067	n/a	n/a	n/a	-999	1	[7, 2, 5]	14	catFR1	2	R1499T
243.164	3.75	249059	PROB	3.75	n/a	n/a	n/a	-999	1	[3, 5, 1]	9	catFR1	2	R1499T
246.914	0.0	252803	DISTRACT_END	n/a	n/a	n/a	n/a	-999	1	[0, 0, 0]	n/a	catFR1	2	R1499T
246.914	2.266	252809	STOP	n/a	n/a	n/a	n/a	-999	1	[-999, -999, -999]	n/a	catFR1	2	R1499T
249.18	2.19	255079	REC_START	n/a	n/a	n/a	n/a	-999	1	[0, 0, 0]	n/a	catFR1	2	R1499T
251.37	0.767	257265	REC_WORD	0.767	n/a	PERRO	n/a	-999	1	[0, 0, 0]	n/a	catFR1	2	R1499T
252.137	2.11	258032	REC_WORD	2.11	n/a	RUTA	n/a	-999	1	[0, 0, 0]	n/a	catFR1	2	R1499T
254.247	1.396	260141	REC_WORD_VV	1.396	n/a	<>	n/a	-999	1	[0, 0, 0]	n/a	catFR1	2	R1499T
255.643	1.902	261537	REC_WORD	1.902	n/a	DELFIN	n/a	-999	1	[0, 0, 0]	n/a	catFR1	2	R1499T
257.545	3.592	263439	REC_WORD_VV	3.592	n/a	<>	n/a	-999	1	[0, 0, 0]	n/a	catFR1	2	R1499T
261.137	1.0	267031	REC_WORD_VV	1.0	n/a	<>	n/a	-999	1	[0, 0, 0]	n/a	catFR1	2	R1499T
262.137	0.524	268031	REC_WORD_VV	0.524	n/a	<>	n/a	-999	1	[0, 0, 0]	n/a	catFR1	2	R1499T
262.661	6.512	268555	REC_WORD	6.512	n/a	BEISBOL	Toys	9	1	[0, 0, 0]	n/a	catFR1	2	R1499T
269.173	1.0	275067	REC_WORD_VV	1.0	n/a	<>	n/a	-999	1	[0, 0, 0]	n/a	catFR1	2	R1499T
270.173	7.153	276067	REC_WORD_VV	7.153	n/a	<>	n/a	-999	1	[0, 0, 0]	n/a	catFR1	2	R1499T
277.326	2.038	283219	REC_WORD	2.038	n/a	CAMION	n/a	-999	1	[0, 0, 0]	n/a	catFR1	2	R1499T
279.364	2.417	285256	REC_END	n/a	n/a	n/a	n/a	-999	1	[0, 0, 0]	n/a	catFR1	2	R1499T
281.781	10.349	287679	COUNTDOWN_START	n/a	n/a	n/a	n/a	-999	2	[0, 0, 0]	n/a	catFR1	2	R1499T
292.13	0.0	298024	COUNTDOWN_END	n/a	n/a	n/a	n/a	-999	2	[0, 0, 0]	n/a	catFR1	2	R1499T
292.13	2.067	298024	ENCODING_START	n/a	n/a	n/a	n/a	-999	2	[0, 0, 0]	n/a	catFR1	2	R1499T
294.197	1.616	300093	WORD	n/a	wordpools/wordpool_categorized_SP.txt	ASPIRADORA	Appliances	1	2	[0, 0, 0]	n/a	catFR1	2	R1499T
295.813	0.9	301709	WORD_OFF	n/a	n/a	ASPIRADORA	Appliances	1	2	[0, 0, 0]	n/a	catFR1	2	R1499T
296.713	1.6	302602	WORD	n/a	wordpools/wordpool_categorized_SP.txt	LICUADORA	Appliances	2	2	[0, 0, 0]	n/a	catFR1	2	R1499T
298.313	0.867	304203	WORD_OFF	n/a	n/a	LICUADORA	Appliances	2	2	[0, 0, 0]	n/a	catFR1	2	R1499T
299.18	1.6	305068	WORD	n/a	wordpools/wordpool_categorized_SP.txt	ZANAHORIA	Vegetables	3	2	[0, 0, 0]	n/a	catFR1	2	R1499T
300.78	0.817	306669	WORD_OFF	n/a	n/a	ZANAHORIA	Vegetables	3	2	[0, 0, 0]	n/a	catFR1	2	R1499T
301.597	1.6	307491	WORD	n/a	wordpools/wordpool_categorized_SP.txt	MAIZ	Vegetables	4	2	[0, 0, 0]	n/a	catFR1	2	R1499T
303.197	0.933	309092	WORD_OFF	n/a	n/a	MAIZ	Vegetables	4	2	[0, 0, 0]	n/a	catFR1	2	R1499T
304.13	1.6	310028	WORD	n/a	wordpools/wordpool_categorized_SP.txt	ESCALERAS	Building	5	2	[0, 0, 0]	n/a	catFR1	2	R1499T
305.73	0.833	311629	WORD_OFF	n/a	n/a	ESCALERAS	Building	5	2	[0, 0, 0]	n/a	catFR1	2	R1499T
306.563	1.6	312451	WORD	n/a	wordpools/wordpool_categorized_SP.txt	PARED	Building	6	2	[0, 0, 0]	n/a	catFR1	2	R1499T
308.163	0.95	314052	WORD_OFF	n/a	n/a	PARED	Building	6	2	[0, 0, 0]	n/a	catFR1	2	R1499T
309.113	1.616	315002	WORD	n/a	wordpools/wordpool_categorized_SP.txt	HORNO	Appliances	7	2	[0, 0, 0]	n/a	catFR1	2	R1499T
310.729	0.834	316617	WORD_OFF	n/a	n/a	HORNO	Appliances	7	2	[0, 0, 0]	n/a	catFR1	2	R1499T
311.563	1.601	317453	WORD	n/a	wordpools/wordpool_categorized_SP.txt	LAVAPLATOS	Appliances	8	2	[0, 0, 0]	n/a	catFR1	2	R1499T
313.164	0.966	319055	WORD_OFF	n/a	n/a	LAVAPLATOS	Appliances	8	2	[0, 0, 0]	n/a	catFR1	2	R1499T
314.13	1.6	320018	WORD	n/a	wordpools/wordpool_categorized_SP.txt	PAPA	Vegetables	9	2	[0, 0, 0]	n/a	catFR1	2	R1499T
315.73	0.933	321620	WORD_OFF	n/a	n/a	PAPA	Vegetables	9	2	[0, 0, 0]	n/a	catFR1	2	R1499T
316.663	1.6	322555	WORD	n/a	wordpools/wordpool_categorized_SP.txt	APIO	Vegetables	10	2	[0, 0, 0]	n/a	catFR1	2	R1499T
318.263	0.8	324156	WORD_OFF	n/a	n/a	APIO	Vegetables	10	2	[0, 0, 0]	n/a	catFR1	2	R1499T
319.063	1.601	324950	WORD	n/a	wordpools/wordpool_categorized_SP.txt	PISO	Building	11	2	[0, 0, 0]	n/a	catFR1	2	R1499T
320.664	0.983	326551	WORD_OFF	n/a	n/a	PISO	Building	11	2	[0, 0, 0]	n/a	catFR1	2	R1499T
321.647	1.617	327543	WORD	n/a	wordpools/wordpool_categorized_SP.txt	ATICO	Building	12	2	[0, 0, 0]	n/a	catFR1	2	R1499T
323.264	0.0	329155	START	n/a	n/a	n/a	n/a	-999	2	[-999, -999, -999]	n/a	catFR1	2	R1499T
323.264	0.0	329155	PROB	0.0	n/a	n/a	n/a	-999	2	[8, 5, 6]	19	catFR1	2	R1499T
323.263	0.001	329159	WORD_OFF	n/a	n/a	ATICO	Building	12	2	[0, 0, 0]	n/a	catFR1	2	R1499T
323.264	0.0	329159	ENCODING_END	n/a	n/a	n/a	n/a	-999	2	[0, 0, 0]	n/a	catFR1	2	R1499T
323.264	5.182	329159	DISTRACT_START	n/a	n/a	n/a	n/a	-999	2	[0, 0, 0]	n/a	catFR1	2	R1499T
328.446	4.085	334337	PROB	4.085	n/a	n/a	n/a	-999	2	[3, 1, 8]	12	catFR1	2	R1499T
332.531	4.767	338421	PROB	4.767	n/a	n/a	n/a	-999	2	[1, 4, 1]	6	catFR1	2	R1499T
337.298	4.383	343188	PROB	4.383	n/a	n/a	n/a	-999	2	[5, 7, 3]	15	catFR1	2	R1499T
341.681	3.666	347571	PROB	3.666	n/a	n/a	n/a	-999	2	[3, 1, 5]	9	catFR1	2	R1499T
345.347	0.0	351237	STOP	n/a	n/a	n/a	n/a	-999	2	[-999, -999, -999]	n/a	catFR1	2	R1499T
345.347	2.249	351238	DISTRACT_END	n/a	n/a	n/a	n/a	-999	2	[0, 0, 0]	n/a	catFR1	2	R1499T
347.596	0.158	353485	REC_START	n/a	n/a	n/a	n/a	-999	2	[0, 0, 0]	n/a	catFR1	2	R1499T
347.754	0.85	353644	REC_WORD	0.85	n/a	LAVADORA	n/a	-999	2	[0, 0, 0]	n/a	catFR1	2	R1499T
348.604	0.962	354494	REC_WORD	0.962	n/a	SECADORA	n/a	-999	2	[0, 0, 0]	n/a	catFR1	2	R1499T
349.566	2.575	355456	REC_WORD	2.575	n/a	LAVAPLATOS	Appliances	8	2	[0, 0, 0]	n/a	catFR1	2	R1499T
352.141	1.357	358030	REC_WORD_VV	1.357	n/a	<>	n/a	-999	2	[0, 0, 0]	n/a	catFR1	2	R1499T
353.498	1.389	359387	REC_WORD	1.389	n/a	COCINA	n/a	-999	2	[0, 0, 0]	n/a	catFR1	2	R1499T
354.887	4.902	360776	REC_WORD	4.902	n/a	ESCALERAS	Building	5	2	[0, 0, 0]	n/a	catFR1	2	R1499T
359.789	2.304	365678	REC_WORD_VV	2.304	n/a	<>	n/a	-999	2	[0, 0, 0]	n/a	catFR1	2	R1499T
362.093	14.927	367982	REC_WORD_VV	14.927	n/a	<>	n/a	-999	2	[0, 0, 0]	n/a	catFR1	2	R1499T
377.02	0.765	382908	REC_WORD_VV	0.765	n/a	<>	n/a	-999	2	[0, 0, 0]	n/a	catFR1	2	R1499T
377.785	0.129	383676	REC_END	n/a	n/a	n/a	n/a	-999	2	[0, 0, 0]	n/a	catFR1	2	R1499T
377.914	10.35	383804	COUNTDOWN_START	n/a	n/a	n/a	n/a	-999	3	[0, 0, 0]	n/a	catFR1	2	R1499T
388.264	0.0	394149	COUNTDOWN_END	n/a	n/a	n/a	n/a	-999	3	[0, 0, 0]	n/a	catFR1	2	R1499T
388.264	2.116	394149	ENCODING_START	n/a	n/a	n/a	n/a	-999	3	[0, 0, 0]	n/a	catFR1	2	R1499T
390.38	1.616	396275	WORD	n/a	wordpools/wordpool_categorized_SP.txt	MARTILLO	Tools	1	3	[0, 0, 0]	n/a	catFR1	2	R1499T
391.996	0.867	397890	WORD_OFF	n/a	n/a	MARTILLO	Tools	1	3	[0, 0, 0]	n/a	catFR1	2	R1499T
392.863	1.602	398755	WORD	n/a	wordpools/wordpool_categorized_SP.txt	HACHA	Tools	2	3	[0, 0, 0]	n/a	catFR1	2	R1499T
394.465	0.948	400356	WORD_OFF	n/a	n/a	HACHA	Tools	2	3	[0, 0, 0]	n/a	catFR1	2	R1499T
395.413	1.6	401306	WORD	n/a	wordpools/wordpool_categorized_SP.txt	CONGELADOR	Appliances	3	3	[0, 0, 0]	n/a	catFR1	2	R1499T
397.013	0.917	402907	WORD_OFF	n/a	n/a	CONGELADOR	Appliances	3	3	[0, 0, 0]	n/a	catFR1	2	R1499T
397.93	1.616	403814	WORD	n/a	wordpools/wordpool_categorized_SP.txt	MEZCLA	Appliances	4	3	[0, 0, 0]	n/a	catFR1	2	R1499T
399.546	0.834	405430	WORD_OFF	n/a	n/a	MEZCLA	Appliances	4	3	[0, 0, 0]	n/a	catFR1	2	R1499T
400.38	1.617	406266	WORD	n/a	wordpools/wordpool_categorized_SP.txt	IMPRESORA	Electronics	5	3	[0, 0, 0]	n/a	catFR1	2	R1499T
401.997	0.799	407881	WORD_OFF	n/a	n/a	IMPRESORA	Electronics	5	3	[0, 0, 0]	n/a	catFR1	2	R1499T
402.796	1.618	408689	WORD	n/a	wordpools/wordpool_categorized_SP.txt	PARLANTE	Electronics	6	3	[0, 0, 0]	n/a	catFR1	2	R1499T
404.414	0.899	410305	WORD_OFF	n/a	n/a	PARLANTE	Electronics	6	3	[0, 0, 0]	n/a	catFR1	2	R1499T
405.313	1.6	411197	WORD	n/a	wordpools/wordpool_categorized_SP.txt	TOSTADORA	Appliances	7	3	[0, 0, 0]	n/a	catFR1	2	R1499T
406.913	0.85	412799	WORD_OFF	n/a	n/a	TOSTADORA	Appliances	7	3	[0, 0, 0]	n/a	catFR1	2	R1499T
407.763	1.601	413649	WORD	n/a	wordpools/wordpool_categorized_SP.txt	LAVADORA	Appliances	8	3	[0, 0, 0]	n/a	catFR1	2	R1499T
409.364	0.833	415250	WORD_OFF	n/a	n/a	LAVADORA	Appliances	8	3	[0, 0, 0]	n/a	catFR1	2	R1499T
410.197	1.6	416086	WORD	n/a	wordpools/wordpool_categorized_SP.txt	TELEFONO	Electronics	9	3	[0, 0, 0]	n/a	catFR1	2	R1499T
411.797	0.883	417688	WORD_OFF	n/a	n/a	TELEFONO	Electronics	9	3	[0, 0, 0]	n/a	catFR1	2	R1499T
412.68	1.6	418566	WORD	n/a	wordpools/wordpool_categorized_SP.txt	RADIO	Electronics	10	3	[0, 0, 0]	n/a	catFR1	2	R1499T
414.28	0.767	420168	WORD_OFF	n/a	n/a	RADIO	Electronics	10	3	[0, 0, 0]	n/a	catFR1	2	R1499T
415.047	1.6	420933	WORD	n/a	wordpools/wordpool_categorized_SP.txt	LIJADORA	Tools	11	3	[0, 0, 0]	n/a	catFR1	2	R1499T
416.647	0.9	422534	WORD_OFF	n/a	n/a	LIJADORA	Tools	11	3	[0, 0, 0]	n/a	catFR1	2	R1499T
417.547	1.6	423441	WORD	n/a	wordpools/wordpool_categorized_SP.txt	DESTORNILLADOR	Tools	12	3	[0, 0, 0]	n/a	catFR1	2	R1499T
419.147	0.001	425029	WORD_OFF	n/a	n/a	DESTORNILLADOR	Tools	12	3	[0, 0, 0]	n/a	catFR1	2	R1499T
419.148	0.0	425029	ENCODING_END	n/a	n/a	n/a	n/a	-999	3	[0, 0, 0]	n/a	catFR1	2	R1499T
419.148	0.0	425034	PROB	0.0	n/a	n/a	n/a	-999	3	[1, 2, 1]	4	catFR1	2	R1499T
419.148	0.0	425034	START	n/a	n/a	n/a	n/a	-999	3	[-999, -999, -999]	n/a	catFR1	2	R1499T
419.148	3.316	425043	DISTRACT_START	n/a	n/a	n/a	n/a	-999	3	[0, 0, 0]	n/a	catFR1	2	R1499T
422.464	4.883	428350	PROB	4.883	n/a	n/a	n/a	-999	3	[8, 3, 2]	13	catFR1	2	R1499T
427.347	5.05	433233	PROB	5.05	n/a	n/a	n/a	-999	3	[8, 4, 6]	18	catFR1	2	R1499T
432.397	3.551	438282	PROB	3.551	n/a	n/a	n/a	-999	3	[5, 2, 5]	12	catFR1	2	R1499T
435.948	4.215	441833	PROB	4.215	n/a	n/a	n/a	-999	3	[4, 1, 2]	7	catFR1	2	R1499T
440.163	0.0	446045	DISTRACT_END	n/a	n/a	n/a	n/a	-999	3	[0, 0, 0]	n/a	catFR1	2	R1499T
440.163	2.367	446048	STOP	n/a	n/a	n/a	n/a	-999	3	[-999, -999, -999]	n/a	catFR1	2	R1499T
442.53	1.27	448419	REC_START	n/a	n/a	n/a	n/a	-999	3	[0, 0, 0]	n/a	catFR1	2	R1499T
443.8	1.289	449685	REC_WORD	1.289	n/a	LAVADORA	Appliances	8	3	[0, 0, 0]	n/a	catFR1	2	R1499T
445.089	1.262	450974	REC_WORD_VV	1.262	n/a	<>	n/a	-999	3	[0, 0, 0]	n/a	catFR1	2	R1499T
446.351	1.129	452236	REC_WORD_VV	1.129	n/a	<>	n/a	-999	3	[0, 0, 0]	n/a	catFR1	2	R1499T
447.48	1.708	453365	REC_WORD	1.708	n/a	SECADORA	n/a	-999	3	[0, 0, 0]	n/a	catFR1	2	R1499T
449.188	1.135	455073	REC_WORD_VV	1.135	n/a	<>	n/a	-999	3	[0, 0, 0]	n/a	catFR1	2	R1499T
450.323	1.0	456207	REC_WORD	1.0	n/a	PARLANTE	Electronics	6	3	[0, 0, 0]	n/a	catFR1	2	R1499T
451.323	1.347	457207	REC_WORD	1.347	n/a	PARLANTE	Electronics	6	3	[0, 0, 0]	n/a	catFR1	2	R1499T
452.67	2.249	458554	REC_WORD_VV	2.249	n/a	<>	n/a	-999	3	[0, 0, 0]	n/a	catFR1	2	R1499T
454.919	1.855	460803	REC_WORD	1.855	n/a	HACHA	Tools	2	3	[0, 0, 0]	n/a	catFR1	2	R1499T
456.774	0.774	462658	REC_WORD	0.774	n/a	HACHA	Tools	2	3	[0, 0, 0]	n/a	catFR1	2	R1499T
457.548	0.221	463432	REC_WORD_VV	0.221	n/a	<>	n/a	-999	3	[0, 0, 0]	n/a	catFR1	2	R1499T
457.769	3.753	463653	REC_WORD	3.753	n/a	TOSTADORA	Appliances	7	3	[0, 0, 0]	n/a	catFR1	2	R1499T
461.522	1.001	467406	REC_WORD_VV	1.001	n/a	<>	n/a	-999	3	[0, 0, 0]	n/a	catFR1	2	R1499T
462.523	6.183	468407	REC_WORD_VV	6.183	n/a	<>	n/a	-999	3	[0, 0, 0]	n/a	catFR1	2	R1499T
468.706	1.0	474590	REC_WORD_VV	1.0	n/a	<>	n/a	-999	3	[0, 0, 0]	n/a	catFR1	2	R1499T
469.706	1.0	475589	REC_WORD_VV	1.0	n/a	<>	n/a	-999	3	[0, 0, 0]	n/a	catFR1	2	R1499T
470.706	1.287	476589	REC_WORD_VV	1.287	n/a	<>	n/a	-999	3	[0, 0, 0]	n/a	catFR1	2	R1499T
471.993	0.759	477876	REC_WORD_VV	0.759	n/a	<>	n/a	-999	3	[0, 0, 0]	n/a	catFR1	2	R1499T
472.752	3.595	478639	REC_END	n/a	n/a	n/a	n/a	-999	3	[0, 0, 0]	n/a	catFR1	2	R1499T
476.347	10.349	482239	COUNTDOWN_START	n/a	n/a	n/a	n/a	-999	4	[0, 0, 0]	n/a	catFR1	2	R1499T
486.696	0.0	492584	COUNTDOWN_END	n/a	n/a	n/a	n/a	-999	4	[0, 0, 0]	n/a	catFR1	2	R1499T
486.696	2.133	492584	ENCODING_START	n/a	n/a	n/a	n/a	-999	4	[0, 0, 0]	n/a	catFR1	2	R1499T
488.829	1.601	494709	WORD	n/a	wordpools/wordpool_categorized_SP.txt	ESPINACA	Vegetables	1	4	[0, 0, 0]	n/a	catFR1	2	R1499T
490.43	0.967	496311	WORD_OFF	n/a	n/a	ESPINACA	Vegetables	1	4	[0, 0, 0]	n/a	catFR1	2	R1499T
491.397	1.617	497274	WORD	n/a	wordpools/wordpool_categorized_SP.txt	ARVEJA	Vegetables	2	4	[0, 0, 0]	n/a	catFR1	2	R1499T
493.014	0.8	498890	WORD_OFF	n/a	n/a	ARVEJA	Vegetables	2	4	[0, 0, 0]	n/a	catFR1	2	R1499T
493.814	1.6	499698	WORD	n/a	wordpools/wordpool_categorized_SP.txt	MICROONDAS	Electronics	3	4	[0, 0, 0]	n/a	catFR1	2	R1499T
495.414	1.0	501299	WORD_OFF	n/a	n/a	MICROONDAS	Electronics	3	4	[0, 0, 0]	n/a	catFR1	2	R1499T
496.414	1.6	502291	WORD	n/a	wordpools/wordpool_categorized_SP.txt	TELEVISION	Electronics	4	4	[0, 0, 0]	n/a	catFR1	2	R1499T
498.014	0.982	503893	WORD_OFF	n/a	n/a	TELEVISION	Electronics	4	4	[0, 0, 0]	n/a	catFR1	2	R1499T
498.996	1.6	504885	WORD	n/a	wordpools/wordpool_categorized_SP.txt	PINZON	Birds	5	4	[0, 0, 0]	n/a	catFR1	2	R1499T
500.596	0.834	506486	WORD_OFF	n/a	n/a	PINZON	Birds	5	4	[0, 0, 0]	n/a	catFR1	2	R1499T
501.43	1.6	507308	WORD	n/a	wordpools/wordpool_categorized_SP.txt	GORRION	Birds	6	4	[0, 0, 0]	n/a	catFR1	2	R1499T
503.03	0.767	508909	WORD_OFF	n/a	n/a	GORRION	Birds	6	4	[0, 0, 0]	n/a	catFR1	2	R1499T
503.797	1.601	509674	WORD	n/a	wordpools/wordpool_categorized_SP.txt	PEPINO	Vegetables	7	4	[0, 0, 0]	n/a	catFR1	2	R1499T
505.398	0.849	511276	WORD_OFF	n/a	n/a	PEPINO	Vegetables	7	4	[0, 0, 0]	n/a	catFR1	2	R1499T
506.247	1.616	512126	WORD	n/a	wordpools/wordpool_categorized_SP.txt	BROCOLI	Vegetables	8	4	[0, 0, 0]	n/a	catFR1	2	R1499T
507.863	0.934	513742	WORD_OFF	n/a	n/a	BROCOLI	Vegetables	8	4	[0, 0, 0]	n/a	catFR1	2	R1499T
508.797	1.616	514677	WORD	n/a	wordpools/wordpool_categorized_SP.txt	CARDENAL	Birds	9	4	[0, 0, 0]	n/a	catFR1	2	R1499T
510.413	0.784	516293	WORD_OFF	n/a	n/a	CARDENAL	Birds	9	4	[0, 0, 0]	n/a	catFR1	2	R1499T
511.197	1.6	517086	WORD	n/a	wordpools/wordpool_categorized_SP.txt	AGUILA	Birds	10	4	[0, 0, 0]	n/a	catFR1	2	R1499T
512.797	0.983	518673	WORD_OFF	n/a	n/a	AGUILA	Birds	10	4	[0, 0, 0]	n/a	catFR1	2	R1499T
513.78	1.617	519665	WORD	n/a	wordpools/wordpool_categorized_SP.txt	AUDIFONOS	Electronics	11	4	[0, 0, 0]	n/a	catFR1	2	R1499T
515.397	0.766	521281	WORD_OFF	n/a	n/a	AUDIFONOS	Electronics	11	4	[0, 0, 0]	n/a	catFR1	2	R1499T
516.163	1.617	522046	WORD	n/a	wordpools/wordpool_categorized_SP.txt	COMPUTADOR	Electronics	12	4	[0, 0, 0]	n/a	catFR1	2	R1499T
517.78	0.0	523661	PROB	0.0	n/a	n/a	n/a	-999	4	[1, 6, 4]	11	catFR1	2	R1499T
517.78	0.001	523662	WORD_OFF	n/a	n/a	COMPUTADOR	Electronics	12	4	[0, 0, 0]	n/a	catFR1	2	R1499T
517.781	0.0	523662	ENCODING_END	n/a	n/a	n/a	n/a	-999	4	[0, 0, 0]	n/a	catFR1	2	R1499T
517.781	0.0	523662	DISTRACT_START	n/a	n/a	n/a	n/a	-999	4	[0, 0, 0]	n/a	catFR1	2	R1499T
517.781	3.2	523662	START	n/a	n/a	n/a	n/a	-999	4	[-999, -999, -999]	n/a	catFR1	2	R1499T
520.981	5.466	526862	PROB	5.466	n/a	n/a	n/a	-999	4	[4, 1, 1]	6	catFR1	2	R1499T
526.447	5.932	532328	PROB	5.932	n/a	n/a	n/a	-999	4	[8, 4, 5]	17	catFR1	2	R1499T
532.379	4.602	538259	PROB	4.602	n/a	n/a	n/a	-999	4	[5, 8, 2]	15	catFR1	2	R1499T
536.981	3.765	542861	PROB	3.765	n/a	n/a	n/a	-999	4	[4, 3, 7]	14	catFR1	2	R1499T
540.746	0.0	546626	STOP	n/a	n/a	n/a	n/a	-999	4	[-999, -999, -999]	n/a	catFR1	2	R1499T
540.746	2.384	546634	DISTRACT_END	n/a	n/a	n/a	n/a	-999	4	[0, 0, 0]	n/a	catFR1	2	R1499T
543.13	1.102	549008	REC_START	n/a	n/a	n/a	n/a	-999	4	[0, 0, 0]	n/a	catFR1	2	R1499T
544.232	1.486	550112	REC_WORD	1.486	n/a	LAVADORA	Appliances	-999	4	[0, 0, 0]	n/a	catFR1	2	R1499T
545.718	1.367	551598	REC_WORD_VV	1.367	n/a	<>	n/a	-999	4	[0, 0, 0]	n/a	catFR1	2	R1499T
547.085	1.0	552965	REC_WORD	1.0	n/a	MICROONDAS	Electronics	3	4	[0, 0, 0]	n/a	catFR1	2	R1499T
548.085	0.508	553964	REC_WORD	0.508	n/a	MICROONDAS	Electronics	3	4	[0, 0, 0]	n/a	catFR1	2	R1499T
548.593	1.383	554472	REC_WORD	1.383	n/a	APIO	Vegetables	-999	4	[0, 0, 0]	n/a	catFR1	2	R1499T
549.976	3.028	555855	REC_WORD	3.028	n/a	TOSTADORA	Appliances	-999	4	[0, 0, 0]	n/a	catFR1	2	R1499T
553.004	4.464	558883	REC_WORD_VV	4.464	n/a	<>	n/a	-999	4	[0, 0, 0]	n/a	catFR1	2	R1499T
557.468	1.784	563347	REC_WORD_VV	1.784	n/a	<>	n/a	-999	4	[0, 0, 0]	n/a	catFR1	2	R1499T
559.252	1.414	565131	REC_WORD	1.414	n/a	LAVAPLATOS	Appliances	-999	4	[0, 0, 0]	n/a	catFR1	2	R1499T
560.666	1.509	566545	REC_WORD	1.509	n/a	TOSTADORA	Appliances	-999	4	[0, 0, 0]	n/a	catFR1	2	R1499T
562.175	0.903	568054	REC_WORD	0.903	n/a	LAVAPLATOS	Appliances	-999	4	[0, 0, 0]	n/a	catFR1	2	R1499T
563.078	2.606	568957	REC_WORD	2.606	n/a	LAVADORA	Appliances	-999	4	[0, 0, 0]	n/a	catFR1	2	R1499T
565.684	1.0	571563	REC_WORD_VV	1.0	n/a	<>	n/a	-999	4	[0, 0, 0]	n/a	catFR1	2	R1499T
566.684	6.694	572563	REC_WORD_VV	6.694	n/a	<>	n/a	-999	4	[0, 0, 0]	n/a	catFR1	2	R1499T
573.378	1.786	579256	REC_END	n/a	n/a	n/a	n/a	-999	4	[0, 0, 0]	n/a	catFR1	2	R1499T
575.164	10.35	581042	COUNTDOWN_START	n/a	n/a	n/a	n/a	-999	5	[0, 0, 0]	n/a	catFR1	2	R1499T
585.514	0.0	591387	COUNTDOWN_END	n/a	n/a	n/a	n/a	-999	5	[0, 0, 0]	n/a	catFR1	2	R1499T
585.514	2.15	591401	ENCODING_START	n/a	n/a	n/a	n/a	-999	5	[0, 0, 0]	n/a	catFR1	2	R1499T
587.664	1.616	593541	WORD	n/a	wordpools/wordpool_categorized_SP.txt	BICICLETA	Vehicles	1	5	[0, 0, 0]	n/a	catFR1	2	R1499T
589.28	0.817	595156	WORD_OFF	n/a	n/a	BICICLETA	Vehicles	1	5	[0, 0, 0]	n/a	catFR1	2	R1499T
590.097	1.617	595978	WORD	n/a	wordpools/wordpool_categorized_SP.txt	AUTO	Vehicles	2	5	[0, 0, 0]	n/a	catFR1	2	R1499T
591.714	0.949	597594	WORD_OFF	n/a	n/a	AUTO	Vehicles	2	5	[0, 0, 0]	n/a	catFR1	2	R1499T
592.663	1.617	598543	WORD	n/a	wordpools/wordpool_categorized_SP.txt	VIOLIN	Instruments	3	5	[0, 0, 0]	n/a	catFR1	2	R1499T
594.28	0.783	600159	WORD_OFF	n/a	n/a	VIOLIN	Instruments	3	5	[0, 0, 0]	n/a	catFR1	2	R1499T
595.063	1.6	600938	WORD	n/a	wordpools/wordpool_categorized_SP.txt	BANJO	Instruments	4	5	[0, 0, 0]	n/a	catFR1	2	R1499T
596.663	0.934	602540	WORD_OFF	n/a	n/a	BANJO	Instruments	4	5	[0, 0, 0]	n/a	catFR1	2	R1499T
597.597	1.617	603475	WORD	n/a	wordpools/wordpool_categorized_SP.txt	POLLO	FarmAnimals	5	5	[0, 0, 0]	n/a	catFR1	2	R1499T
599.214	0.933	605091	WORD_OFF	n/a	n/a	POLLO	FarmAnimals	5	5	[0, 0, 0]	n/a	catFR1	2	R1499T
600.147	1.6	606026	WORD	n/a	wordpools/wordpool_categorized_SP.txt	CERDO	FarmAnimals	6	5	[0, 0, 0]	n/a	catFR1	2	R1499T
601.747	0.766	607627	WORD_OFF	n/a	n/a	CERDO	FarmAnimals	6	5	[0, 0, 0]	n/a	catFR1	2	R1499T
602.513	1.617	608393	WORD	n/a	wordpools/wordpool_categorized_SP.txt	TROMBON	Instruments	7	5	[0, 0, 0]	n/a	catFR1	2	R1499T
604.13	0.783	610008	WORD_OFF	n/a	n/a	TROMBON	Instruments	7	5	[0, 0, 0]	n/a	catFR1	2	R1499T
604.913	1.616	610788	WORD	n/a	wordpools/wordpool_categorized_SP.txt	TAMBOR	Instruments	8	5	[0, 0, 0]	n/a	catFR1	2	R1499T
606.529	0.968	612403	WORD_OFF	n/a	n/a	TAMBOR	Instruments	8	5	[0, 0, 0]	n/a	catFR1	2	R1499T
607.497	1.616	613381	WORD	n/a	wordpools/wordpool_categorized_SP.txt	CORDERO	FarmAnimals	9	5	[0, 0, 0]	n/a	catFR1	2	R1499T
609.113	0.817	614996	WORD_OFF	n/a	n/a	CORDERO	FarmAnimals	9	5	[0, 0, 0]	n/a	catFR1	2	R1499T
609.93	1.6	615804	WORD	n/a	wordpools/wordpool_categorized_SP.txt	GALLINA	FarmAnimals	10	5	[0, 0, 0]	n/a	catFR1	2	R1499T
611.53	0.883	617406	WORD_OFF	n/a	n/a	GALLINA	FarmAnimals	10	5	[0, 0, 0]	n/a	catFR1	2	R1499T
612.413	1.6	618284	WORD	n/a	wordpools/wordpool_categorized_SP.txt	AUTOBUS	Vehicles	11	5	[0, 0, 0]	n/a	catFR1	2	R1499T
614.013	0.817	619886	WORD_OFF	n/a	n/a	AUTOBUS	Vehicles	11	5	[0, 0, 0]	n/a	catFR1	2	R1499T
614.83	1.601	620708	WORD	n/a	wordpools/wordpool_categorized_SP.txt	PATINETA	Vehicles	12	5	[0, 0, 0]	n/a	catFR1	2	R1499T
616.431	0.001	622307	PROB	0.001	n/a	n/a	n/a	-999	5	[8, 6, 1]	15	catFR1	2	R1499T
616.432	0.0	622308	START	n/a	n/a	n/a	n/a	-999	5	[-999, -999, -999]	n/a	catFR1	2	R1499T
616.43	0.002	622309	WORD_OFF	n/a	n/a	PATINETA	Vehicles	12	5	[0, 0, 0]	n/a	catFR1	2	R1499T
616.432	0.0	622309	ENCODING_END	n/a	n/a	n/a	n/a	-999	5	[0, 0, 0]	n/a	catFR1	2	R1499T
616.432	4.731	622309	DISTRACT_START	n/a	n/a	n/a	n/a	-999	5	[0, 0, 0]	n/a	catFR1	2	R1499T
621.163	5.634	627039	PROB	5.634	n/a	n/a	n/a	-999	5	[2, 6, 7]	15	catFR1	2	R1499T
626.797	3.582	632672	PROB	3.582	n/a	n/a	n/a	-999	5	[2, 1, 7]	10	catFR1	2	R1499T
630.379	6.767	636254	PROB	6.767	n/a	n/a	n/a	-999	5	[1, 3, 1]	5	catFR1	2	R1499T
637.146	0.0	643021	STOP	n/a	n/a	n/a	n/a	-999	5	[-999, -999, -999]	n/a	catFR1	2	R1499T
637.146	2.1	643028	DISTRACT_END	n/a	n/a	n/a	n/a	-999	5	[0, 0, 0]	n/a	catFR1	2	R1499T
639.246	1.501	645119	REC_START	n/a	n/a	n/a	n/a	-999	5	[0, 0, 0]	n/a	catFR1	2	R1499T
640.747	1.0	646622	REC_WORD	1.0	n/a	AUTOBUS	Vehicles	11	5	[0, 0, 0]	n/a	catFR1	2	R1499T
641.747	0.425	647622	REC_WORD	0.425	n/a	AUTOBUS	Vehicles	11	5	[0, 0, 0]	n/a	catFR1	2	R1499T
642.172	0.707	648047	REC_WORD	0.707	n/a	CARRO	n/a	-999	5	[0, 0, 0]	n/a	catFR1	2	R1499T
642.879	1.0	648754	REC_WORD	1.0	n/a	BICICLETA	Vehicles	1	5	[0, 0, 0]	n/a	catFR1	2	R1499T
643.879	0.997	649754	REC_WORD	0.997	n/a	BICICLETA	Vehicles	1	5	[0, 0, 0]	n/a	catFR1	2	R1499T
644.876	3.216	650751	REC_WORD	3.216	n/a	PATINETA	Vehicles	12	5	[0, 0, 0]	n/a	catFR1	2	R1499T
648.092	0.755	653966	REC_WORD	0.755	n/a	POLLO	FarmAnimals	5	5	[0, 0, 0]	n/a	catFR1	2	R1499T
648.847	5.2	654721	REC_WORD	5.2	n/a	GALLO	n/a	-999	5	[0, 0, 0]	n/a	catFR1	2	R1499T
654.047	7.442	659921	REC_WORD_VV	7.442	n/a	<>	n/a	-999	5	[0, 0, 0]	n/a	catFR1	2	R1499T
661.489	1.0	667363	REC_WORD_VV	1.0	n/a	<>	n/a	-999	5	[0, 0, 0]	n/a	catFR1	2	R1499T
662.489	1.0	668363	REC_WORD_VV	1.0	n/a	<>	n/a	-999	5	[0, 0, 0]	n/a	catFR1	2	R1499T
663.489	5.983	669363	REC_WORD_VV	5.983	n/a	<>	n/a	-999	5	[0, 0, 0]	n/a	catFR1	2	R1499T
669.472	1.825	675352	REC_END	n/a	n/a	n/a	n/a	-999	5	[0, 0, 0]	n/a	catFR1	2	R1499T
671.297	10.35	677181	COUNTDOWN_START	n/a	n/a	n/a	n/a	-999	6	[0, 0, 0]	n/a	catFR1	2	R1499T
681.647	0.0	687526	COUNTDOWN_END	n/a	n/a	n/a	n/a	-999	6	[0, 0, 0]	n/a	catFR1	2	R1499T
681.647	2.117	687526	ENCODING_START	n/a	n/a	n/a	n/a	-999	6	[0, 0, 0]	n/a	catFR1	2	R1499T
683.764	1.616	689637	WORD	n/a	wordpools/wordpool_categorized_SP.txt	AGUA	Beverages	1	6	[0, 0, 0]	n/a	catFR1	2	R1499T
685.38	0.917	691253	WORD_OFF	n/a	n/a	AGUA	Beverages	1	6	[0, 0, 0]	n/a	catFR1	2	R1499T
686.297	1.616	692174	WORD	n/a	wordpools/wordpool_categorized_SP.txt	CAFE	Beverages	2	6	[0, 0, 0]	n/a	catFR1	2	R1499T
687.913	0.817	693790	WORD_OFF	n/a	n/a	CAFE	Beverages	2	6	[0, 0, 0]	n/a	catFR1	2	R1499T
688.73	1.617	694597	WORD	n/a	wordpools/wordpool_categorized_SP.txt	CICLOMOTOR	Vehicles	3	6	[0, 0, 0]	n/a	catFR1	2	R1499T
690.347	0.833	696227	WORD_OFF	n/a	n/a	CICLOMOTOR	Vehicles	3	6	[0, 0, 0]	n/a	catFR1	2	R1499T
691.18	1.6	697049	WORD	n/a	wordpools/wordpool_categorized_SP.txt	AVION	Vehicles	4	6	[0, 0, 0]	n/a	catFR1	2	R1499T
692.78	0.884	698650	WORD_OFF	n/a	n/a	AVION	Vehicles	4	6	[0, 0, 0]	n/a	catFR1	2	R1499T
693.664	1.6	699543	WORD	n/a	wordpools/wordpool_categorized_SP.txt	DULCE	Desserts	5	6	[0, 0, 0]	n/a	catFR1	2	R1499T
695.264	0.833	701130	WORD_OFF	n/a	n/a	DULCE	Desserts	5	6	[0, 0, 0]	n/a	catFR1	2	R1499T
696.097	1.6	701966	WORD	n/a	wordpools/wordpool_categorized_SP.txt	TARTA	Desserts	6	6	[0, 0, 0]	n/a	catFR1	2	R1499T
697.697	0.916	703568	WORD_OFF	n/a	n/a	TARTA	Desserts	6	6	[0, 0, 0]	n/a	catFR1	2	R1499T
698.613	1.6	704489	WORD	n/a	wordpools/wordpool_categorized_SP.txt	TE	Beverages	7	6	[0, 0, 0]	n/a	catFR1	2	R1499T
700.213	0.916	706090	WORD_OFF	n/a	n/a	TE	Beverages	7	6	[0, 0, 0]	n/a	catFR1	2	R1499T
701.129	1.601	706997	WORD	n/a	wordpools/wordpool_categorized_SP.txt	SIDRA	Beverages	8	6	[0, 0, 0]	n/a	catFR1	2	R1499T
702.73	1.0	708599	WORD_OFF	n/a	n/a	SIDRA	Beverages	8	6	[0, 0, 0]	n/a	catFR1	2	R1499T
703.73	1.617	709605	WORD	n/a	wordpools/wordpool_categorized_SP.txt	JEEP	Vehicles	9	6	[0, 0, 0]	n/a	catFR1	2	R1499T
705.347	0.95	711220	WORD_OFF	n/a	n/a	JEEP	Vehicles	9	6	[0, 0, 0]	n/a	catFR1	2	R1499T
706.297	1.616	712170	WORD	n/a	wordpools/wordpool_categorized_SP.txt	CAMIONETA	Vehicles	10	6	[0, 0, 0]	n/a	catFR1	2	R1499T
707.913	0.85	713785	WORD_OFF	n/a	n/a	CAMIONETA	Vehicles	10	6	[0, 0, 0]	n/a	catFR1	2	R1499T
708.763	1.6	714636	WORD	n/a	wordpools/wordpool_categorized_SP.txt	PASTELILLO	Desserts	11	6	[0, 0, 0]	n/a	catFR1	2	R1499T
710.363	1.0	716237	WORD_OFF	n/a	n/a	PASTELILLO	Desserts	11	6	[0, 0, 0]	n/a	catFR1	2	R1499T
711.363	1.6	717229	WORD	n/a	wordpools/wordpool_categorized_SP.txt	PAY	Desserts	12	6	[0, 0, 0]	n/a	catFR1	2	R1499T
712.963	0.002	718830	WORD_OFF	n/a	n/a	PAY	Desserts	12	6	[0, 0, 0]	n/a	catFR1	2	R1499T
712.965	0.0	718830	ENCODING_END	n/a	n/a	n/a	n/a	-999	6	[0, 0, 0]	n/a	catFR1	2	R1499T
712.965	0.0	718836	START	n/a	n/a	n/a	n/a	-999	6	[-999, -999, -999]	n/a	catFR1	2	R1499T
712.965	0.0	718836	PROB	0.0	n/a	n/a	n/a	-999	6	[3, 4, 1]	8	catFR1	2	R1499T
712.965	4.116	718845	DISTRACT_START	n/a	n/a	n/a	n/a	-999	6	[0, 0, 0]	n/a	catFR1	2	R1499T
717.081	6.033	722952	PROB	6.033	n/a	n/a	n/a	-999	6	[6, 6, 5]	13	catFR1	2	R1499T
723.114	4.915	728985	PROB	4.915	n/a	n/a	n/a	-999	6	[5, 4, 1]	10	catFR1	2	R1499T
728.029	3.167	733899	PROB	3.167	n/a	n/a	n/a	-999	6	[5, 4, 5]	14	catFR1	2	R1499T
731.196	5.317	737066	PROB	5.317	n/a	n/a	n/a	-999	6	[4, 6, 8]	18	catFR1	2	R1499T
736.513	0.0	742383	DISTRACT_END	n/a	n/a	n/a	n/a	-999	6	[0, 0, 0]	n/a	catFR1	2	R1499T
736.513	2.2	742383	STOP	n/a	n/a	n/a	n/a	-999	6	[-999, -999, -999]	n/a	catFR1	2	R1499T
738.713	1.66	744588	REC_START	n/a	n/a	n/a	n/a	-999	6	[0, 0, 0]	n/a	catFR1	2	R1499T
740.373	1.003	746243	REC_WORD	1.003	n/a	BICICLETA	Vehicles	-999	6	[0, 0, 0]	n/a	catFR1	2	R1499T
741.376	0.33	747246	REC_WORD	0.33	n/a	BICICLETA	Vehicles	-999	6	[0, 0, 0]	n/a	catFR1	2	R1499T
741.706	1.939	747576	REC_WORD	1.939	n/a	AUTO	Vehicles	-999	6	[0, 0, 0]	n/a	catFR1	2	R1499T
743.645	0.958	749515	REC_WORD	0.958	n/a	PIE	n/a	-999	6	[0, 0, 0]	n/a	catFR1	2	R1499T
744.603	1.274	750472	REC_WORD	1.274	n/a	TE	Beverages	7	6	[0, 0, 0]	n/a	catFR1	2	R1499T
745.877	1.942	751746	REC_WORD	1.942	n/a	AGUA	Beverages	1	6	[0, 0, 0]	n/a	catFR1	2	R1499T
747.819	1.422	753688	REC_WORD	1.422	n/a	AGUA	Beverages	1	6	[0, 0, 0]	n/a	catFR1	2	R1499T
749.241	1.577	755110	REC_WORD	1.577	n/a	CAFE	Beverages	2	6	[0, 0, 0]	n/a	catFR1	2	R1499T
750.818	5.38	756687	REC_WORD	5.38	n/a	TE	Beverages	7	6	[0, 0, 0]	n/a	catFR1	2	R1499T
756.198	4.963	762067	REC_WORD_VV	4.963	n/a	<>	n/a	-999	6	[0, 0, 0]	n/a	catFR1	2	R1499T
761.161	0.234	767030	REC_WORD_VV	0.234	n/a	<>	n/a	-999	6	[0, 0, 0]	n/a	catFR1	2	R1499T
761.395	7.556	767264	REC_WORD	7.556	n/a	TORMENTA	n/a	-999	6	[0, 0, 0]	n/a	catFR1	2	R1499T
768.951	1.829	774822	REC_END	n/a	n/a	n/a	n/a	-999	6	[0, 0, 0]	n/a	catFR1	2	R1499T
770.78	10.35	776650	COUNTDOWN_START	n/a	n/a	n/a	n/a	-999	7	[0, 0, 0]	n/a	catFR1	2	R1499T
781.13	0.0	786995	COUNTDOWN_END	n/a	n/a	n/a	n/a	-999	7	[0, 0, 0]	n/a	catFR1	2	R1499T
781.13	2.216	786995	ENCODING_START	n/a	n/a	n/a	n/a	-999	7	[0, 0, 0]	n/a	catFR1	2	R1499T
783.346	1.6	789220	WORD	n/a	wordpools/wordpool_categorized_SP.txt	PIANO	Instruments	1	7	[0, 0, 0]	n/a	catFR1	2	R1499T
784.946	0.8	790821	WORD_OFF	n/a	n/a	PIANO	Instruments	1	7	[0, 0, 0]	n/a	catFR1	2	R1499T
785.746	1.6	791615	WORD	n/a	wordpools/wordpool_categorized_SP.txt	TUBA	Instruments	2	7	[0, 0, 0]	n/a	catFR1	2	R1499T
787.346	0.984	793216	WORD_OFF	n/a	n/a	TUBA	Instruments	2	7	[0, 0, 0]	n/a	catFR1	2	R1499T
788.33	1.617	794194	WORD	n/a	wordpools/wordpool_categorized_SP.txt	JEANS	Clothing	3	7	[0, 0, 0]	n/a	catFR1	2	R1499T
789.947	0.867	795810	WORD_OFF	n/a	n/a	JEANS	Clothing	3	7	[0, 0, 0]	n/a	catFR1	2	R1499T
790.814	1.6	796688	WORD	n/a	wordpools/wordpool_categorized_SP.txt	PANTALONES	Clothing	4	7	[0, 0, 0]	n/a	catFR1	2	R1499T
792.414	0.833	798275	WORD_OFF	n/a	n/a	PANTALONES	Clothing	4	7	[0, 0, 0]	n/a	catFR1	2	R1499T
793.247	1.616	799111	WORD	n/a	wordpools/wordpool_categorized_SP.txt	TENAZAS	KitchenTools	5	7	[0, 0, 0]	n/a	catFR1	2	R1499T
794.863	0.917	800727	WORD_OFF	n/a	n/a	TENAZAS	KitchenTools	5	7	[0, 0, 0]	n/a	catFR1	2	R1499T
795.78	1.6	801648	WORD	n/a	wordpools/wordpool_categorized_SP.txt	SACACORCHOS	KitchenTools	6	7	[0, 0, 0]	n/a	catFR1	2	R1499T
797.38	0.85	803250	WORD_OFF	n/a	n/a	SACACORCHOS	KitchenTools	6	7	[0, 0, 0]	n/a	catFR1	2	R1499T
798.23	1.6	804100	WORD	n/a	wordpools/wordpool_categorized_SP.txt	CALZON	Clothing	7	7	[0, 0, 0]	n/a	catFR1	2	R1499T
799.83	0.867	805701	WORD_OFF	n/a	n/a	CALZON	Clothing	7	7	[0, 0, 0]	n/a	catFR1	2	R1499T
800.697	1.617	806566	WORD	n/a	wordpools/wordpool_categorized_SP.txt	CAMISA	Clothing	8	7	[0, 0, 0]	n/a	catFR1	2	R1499T
802.314	0.766	808181	WORD_OFF	n/a	n/a	CAMISA	Clothing	8	7	[0, 0, 0]	n/a	catFR1	2	R1499T
803.08	1.617	808946	WORD	n/a	wordpools/wordpool_categorized_SP.txt	FLAUTA	Instruments	9	7	[0, 0, 0]	n/a	catFR1	2	R1499T
804.697	0.966	810562	WORD_OFF	n/a	n/a	FLAUTA	Instruments	9	7	[0, 0, 0]	n/a	catFR1	2	R1499T
805.663	1.6	811526	WORD	n/a	wordpools/wordpool_categorized_SP.txt	ORGANO	Instruments	10	7	[0, 0, 0]	n/a	catFR1	2	R1499T
807.263	0.967	813127	WORD_OFF	n/a	n/a	ORGANO	Instruments	10	7	[0, 0, 0]	n/a	catFR1	2	R1499T
808.23	1.6	814091	WORD	n/a	wordpools/wordpool_categorized_SP.txt	CUCHARON	KitchenTools	11	7	[0, 0, 0]	n/a	catFR1	2	R1499T
809.83	0.816	815692	WORD_OFF	n/a	n/a	CUCHARON	KitchenTools	11	7	[0, 0, 0]	n/a	catFR1	2	R1499T
810.646	1.601	816514	WORD	n/a	wordpools/wordpool_categorized_SP.txt	CUCHARA	KitchenTools	12	7	[0, 0, 0]	n/a	catFR1	2	R1499T
812.247	0.001	818113	PROB	0.001	n/a	n/a	n/a	-999	7	[1, 3, 2]	6	catFR1	2	R1499T
812.248	0.0	818114	START	n/a	n/a	n/a	n/a	-999	7	[-999, -999, -999]	n/a	catFR1	2	R1499T
812.247	0.001	818115	WORD_OFF	n/a	n/a	CUCHARA	KitchenTools	12	7	[0, 0, 0]	n/a	catFR1	2	R1499T
812.248	0.0	818115	ENCODING_END	n/a	n/a	n/a	n/a	-999	7	[0, 0, 0]	n/a	catFR1	2	R1499T
812.248	4.133	818115	DISTRACT_START	n/a	n/a	n/a	n/a	-999	7	[0, 0, 0]	n/a	catFR1	2	R1499T
816.381	4.916	822247	PROB	4.916	n/a	n/a	n/a	-999	7	[3, 6, 6]	15	catFR1	2	R1499T
821.297	3.8	827163	PROB	3.8	n/a	n/a	n/a	-999	7	[2, 8, 2]	12	catFR1	2	R1499T
825.097	4.334	830962	PROB	4.334	n/a	n/a	n/a	-999	7	[3, 6, 7]	16	catFR1	2	R1499T
829.431	4.548	835296	PROB	4.548	n/a	n/a	n/a	-999	7	[1, 2, 4]	7	catFR1	2	R1499T
833.979	0.0	839840	DISTRACT_END	n/a	n/a	n/a	n/a	-999	7	[0, 0, 0]	n/a	catFR1	2	R1499T
833.979	2.217	839844	STOP	n/a	n/a	n/a	n/a	-999	7	[-999, -999, -999]	n/a	catFR1	2	R1499T
836.196	1.135	842059	REC_START	n/a	n/a	n/a	n/a	-999	7	[0, 0, 0]	n/a	catFR1	2	R1499T
837.331	1.017	843196	REC_WORD	1.017	n/a	PANTALONES	Clothing	4	7	[0, 0, 0]	n/a	catFR1	2	R1499T
838.348	0.674	844213	REC_WORD	0.674	n/a	JEANS	Clothing	3	7	[0, 0, 0]	n/a	catFR1	2	R1499T
839.022	0.921	844887	REC_WORD	0.921	n/a	CAMISETA	n/a	-999	7	[0, 0, 0]	n/a	catFR1	2	R1499T
839.943	1.881	845808	REC_WORD	1.881	n/a	CALZON	Clothing	7	7	[0, 0, 0]	n/a	catFR1	2	R1499T
841.824	3.223	847689	REC_WORD_VV	3.223	n/a	<>	n/a	-999	7	[0, 0, 0]	n/a	catFR1	2	R1499T
845.047	1.0	850911	REC_WORD_VV	1.0	n/a	<>	n/a	-999	7	[0, 0, 0]	n/a	catFR1	2	R1499T
846.047	1.001	851911	REC_WORD_VV	1.001	n/a	<>	n/a	-999	7	[0, 0, 0]	n/a	catFR1	2	R1499T
847.048	2.624	852912	REC_WORD_VV	2.624	n/a	<>	n/a	-999	7	[0, 0, 0]	n/a	catFR1	2	R1499T
849.672	2.927	855536	REC_WORD	2.927	n/a	MOTONETA	n/a	-999	7	[0, 0, 0]	n/a	catFR1	2	R1499T
852.599	1.0	858463	REC_WORD_VV	1.0	n/a	<>	n/a	-999	7	[0, 0, 0]	n/a	catFR1	2	R1499T
853.599	2.137	859463	REC_WORD_VV	2.137	n/a	<>	n/a	-999	7	[0, 0, 0]	n/a	catFR1	2	R1499T
855.736	3.422	861600	REC_WORD_VV	3.422	n/a	<>	n/a	-999	7	[0, 0, 0]	n/a	catFR1	2	R1499T
859.158	0.758	865022	REC_WORD	0.758	n/a	PANTALONES	Clothing	4	7	[0, 0, 0]	n/a	catFR1	2	R1499T
859.916	0.723	865780	REC_WORD	0.723	n/a	JEANS	Clothing	3	7	[0, 0, 0]	n/a	catFR1	2	R1499T
860.639	2.087	866503	REC_WORD	2.087	n/a	CAMISETA	n/a	-999	7	[0, 0, 0]	n/a	catFR1	2	R1499T
862.726	0.757	868589	REC_WORD	0.757	n/a	CALZON	Clothing	7	7	[0, 0, 0]	n/a	catFR1	2	R1499T
863.483	2.938	869346	REC_WORD_VV	2.938	n/a	<>	n/a	-999	7	[0, 0, 0]	n/a	catFR1	2	R1499T
866.421	1.993	872278	REC_END	n/a	n/a	n/a	n/a	-999	7	[0, 0, 0]	n/a	catFR1	2	R1499T
868.414	10.35	874277	COUNTDOWN_START	n/a	n/a	n/a	n/a	-999	8	[0, 0, 0]	n/a	catFR1	2	R1499T
878.764	0.0	884622	COUNTDOWN_END	n/a	n/a	n/a	n/a	-999	8	[0, 0, 0]	n/a	catFR1	2	R1499T
878.764	2.015	884636	ENCODING_START	n/a	n/a	n/a	n/a	-999	8	[0, 0, 0]	n/a	catFR1	2	R1499T
880.779	1.601	886648	WORD	n/a	wordpools/wordpool_categorized_SP.txt	PLATANO	Fruit	1	8	[0, 0, 0]	n/a	catFR1	2	R1499T
882.38	0.85	888250	WORD_OFF	n/a	n/a	PLATANO	Fruit	1	8	[0, 0, 0]	n/a	catFR1	2	R1499T
883.23	1.6	889100	WORD	n/a	wordpools/wordpool_categorized_SP.txt	LIMA	Fruit	2	8	[0, 0, 0]	n/a	catFR1	2	R1499T
884.83	0.967	890687	WORD_OFF	n/a	n/a	LIMA	Fruit	2	8	[0, 0, 0]	n/a	catFR1	2	R1499T
885.797	1.617	891665	WORD	n/a	wordpools/wordpool_categorized_SP.txt	HORMIGA	Insects	3	8	[0, 0, 0]	n/a	catFR1	2	R1499T
887.414	0.916	893281	WORD_OFF	n/a	n/a	HORMIGA	Insects	3	8	[0, 0, 0]	n/a	catFR1	2	R1499T
888.33	1.617	894188	WORD	n/a	wordpools/wordpool_categorized_SP.txt	MARIPOSA	Insects	4	8	[0, 0, 0]	n/a	catFR1	2	R1499T
889.947	0.767	895803	WORD_OFF	n/a	n/a	MARIPOSA	Insects	4	8	[0, 0, 0]	n/a	catFR1	2	R1499T
890.714	1.6	896582	WORD	n/a	wordpools/wordpool_categorized_SP.txt	PICHON	Birds	5	8	[0, 0, 0]	n/a	catFR1	2	R1499T
892.314	0.866	898170	WORD_OFF	n/a	n/a	PICHON	Birds	5	8	[0, 0, 0]	n/a	catFR1	2	R1499T
893.18	1.6	899048	WORD	n/a	wordpools/wordpool_categorized_SP.txt	GAVIOTA	Birds	6	8	[0, 0, 0]	n/a	catFR1	2	R1499T
894.78	0.949	900636	WORD_OFF	n/a	n/a	GAVIOTA	Birds	6	8	[0, 0, 0]	n/a	catFR1	2	R1499T
895.729	1.601	901585	WORD	n/a	wordpools/wordpool_categorized_SP.txt	ARANA	Insects	7	8	[0, 0, 0]	n/a	catFR1	2	R1499T
897.33	0.983	903200	WORD_OFF	n/a	n/a	ARANA	Insects	7	8	[0, 0, 0]	n/a	catFR1	2	R1499T
898.313	1.6	904178	WORD	n/a	wordpools/wordpool_categorized_SP.txt	MARIQUITA	Insects	8	8	[0, 0, 0]	n/a	catFR1	2	R1499T
899.913	0.917	905780	WORD_OFF	n/a	n/a	MARIQUITA	Insects	8	8	[0, 0, 0]	n/a	catFR1	2	R1499T
900.83	1.601	906687	WORD	n/a	wordpools/wordpool_categorized_SP.txt	ARANDANO	Fruit	9	8	[0, 0, 0]	n/a	catFR1	2	R1499T
902.431	0.883	908288	WORD_OFF	n/a	n/a	ARANDANO	Fruit	9	8	[0, 0, 0]	n/a	catFR1	2	R1499T
903.314	1.6	909181	WORD	n/a	wordpools/wordpool_categorized_SP.txt	CEREZA	Fruit	10	8	[0, 0, 0]	n/a	catFR1	2	R1499T
904.914	0.932	910782	WORD_OFF	n/a	n/a	CEREZA	Fruit	10	8	[0, 0, 0]	n/a	catFR1	2	R1499T
905.846	1.601	911703	WORD	n/a	wordpools/wordpool_categorized_SP.txt	HALCON	Birds	11	8	[0, 0, 0]	n/a	catFR1	2	R1499T
907.447	1.0	913305	WORD_OFF	n/a	n/a	HALCON	Birds	11	8	[0, 0, 0]	n/a	catFR1	2	R1499T
908.447	1.601	914311	WORD	n/a	wordpools/wordpool_categorized_SP.txt	GANZO	Birds	12	8	[0, 0, 0]	n/a	catFR1	2	R1499T
910.048	0.0	915909	START	n/a	n/a	n/a	n/a	-999	8	[-999, -999, -999]	n/a	catFR1	2	R1499T
910.048	0.0	915909	PROB	0.0	n/a	n/a	n/a	-999	8	[7, 1, 1]	9	catFR1	2	R1499T
910.047	0.001	915912	WORD_OFF	n/a	n/a	GANZO	Birds	12	8	[0, 0, 0]	n/a	catFR1	2	R1499T
910.048	0.0	915912	ENCODING_END	n/a	n/a	n/a	n/a	-999	8	[0, 0, 0]	n/a	catFR1	2	R1499T
910.048	3.767	915912	DISTRACT_START	n/a	n/a	n/a	n/a	-999	8	[0, 0, 0]	n/a	catFR1	2	R1499T
913.815	5.716	919676	PROB	5.716	n/a	n/a	n/a	-999	8	[7, 6, 7]	13	catFR1	2	R1499T
919.531	5.9	925392	PROB	5.9	n/a	n/a	n/a	-999	8	[3, 7, 6]	16	catFR1	2	R1499T
925.431	6.698	931291	PROB	6.698	n/a	n/a	n/a	-999	8	[6, 7, 6]	19	catFR1	2	R1499T
932.129	0.0	937989	STOP	n/a	n/a	n/a	n/a	-999	8	[-999, -999, -999]	n/a	catFR1	2	R1499T
932.129	2.151	937991	DISTRACT_END	n/a	n/a	n/a	n/a	-999	8	[0, 0, 0]	n/a	catFR1	2	R1499T
934.28	2.558	940139	REC_START	n/a	n/a	n/a	n/a	-999	8	[0, 0, 0]	n/a	catFR1	2	R1499T
936.838	2.616	942698	REC_WORD	2.616	n/a	GANZO	Birds	12	8	[0, 0, 0]	n/a	catFR1	2	R1499T
939.454	2.985	945314	REC_WORD	2.985	n/a	GANZO	Birds	12	8	[0, 0, 0]	n/a	catFR1	2	R1499T
942.439	1.954	948298	REC_WORD_VV	1.954	n/a	<>	n/a	-999	8	[0, 0, 0]	n/a	catFR1	2	R1499T
944.393	3.437	950252	REC_WORD_VV	3.437	n/a	<>	n/a	-999	8	[0, 0, 0]	n/a	catFR1	2	R1499T
947.83	2.123	953689	REC_WORD_VV	2.123	n/a	<>	n/a	-999	8	[0, 0, 0]	n/a	catFR1	2	R1499T
949.953	1.451	955812	REC_WORD	1.451	n/a	GANZO	Birds	12	8	[0, 0, 0]	n/a	catFR1	2	R1499T
951.404	1.463	957263	REC_WORD	1.463	n/a	POLLO	FarmAnimals	-999	8	[0, 0, 0]	n/a	catFR1	2	R1499T
952.867	2.822	958726	REC_WORD	2.822	n/a	GUAJOLOTE	n/a	-999	8	[0, 0, 0]	n/a	catFR1	2	R1499T
955.689	0.997	961548	REC_WORD	0.997	n/a	GUAJOLOTE	n/a	-999	8	[0, 0, 0]	n/a	catFR1	2	R1499T
956.686	1.362	962545	REC_WORD	1.362	n/a	GUAJOLOTE	n/a	-999	8	[0, 0, 0]	n/a	catFR1	2	R1499T
958.048	2.503	963907	REC_WORD	2.503	n/a	PICHON	Birds	5	8	[0, 0, 0]	n/a	catFR1	2	R1499T
960.551	2.503	966409	REC_WORD	2.503	n/a	HABLE	n/a	-999	8	[0, 0, 0]	n/a	catFR1	2	R1499T
963.054	1.444	968912	REC_WORD_VV	1.444	n/a	<>	n/a	-999	8	[0, 0, 0]	n/a	catFR1	2	R1499T
964.498	2.799	970359	REC_END	n/a	n/a	n/a	n/a	-999	8	[0, 0, 0]	n/a	catFR1	2	R1499T
967.297	10.35	973151	COUNTDOWN_START	n/a	n/a	n/a	n/a	-999	9	[0, 0, 0]	n/a	catFR1	2	R1499T
977.647	0.0	983510	COUNTDOWN_END	n/a	n/a	n/a	n/a	-999	9	[0, 0, 0]	n/a	catFR1	2	R1499T
977.647	2.067	983510	ENCODING_START	n/a	n/a	n/a	n/a	-999	9	[0, 0, 0]	n/a	catFR1	2	R1499T
979.714	1.6	985565	WORD	n/a	wordpools/wordpool_categorized_SP.txt	LIMON	Fruit	1	9	[0, 0, 0]	n/a	catFR1	2	R1499T
981.314	0.815	987166	WORD_OFF	n/a	n/a	LIMON	Fruit	1	9	[0, 0, 0]	n/a	catFR1	2	R1499T
982.129	1.6	987988	WORD	n/a	wordpools/wordpool_categorized_SP.txt	PERA	Fruit	2	9	[0, 0, 0]	n/a	catFR1	2	R1499T
983.729	0.951	989589	WORD_OFF	n/a	n/a	PERA	Fruit	2	9	[0, 0, 0]	n/a	catFR1	2	R1499T
984.68	1.6	990539	WORD	n/a	wordpools/wordpool_categorized_SP.txt	BARBIE	Toys	3	9	[0, 0, 0]	n/a	catFR1	2	R1499T
986.28	0.967	992140	WORD_OFF	n/a	n/a	BARBIE	Toys	3	9	[0, 0, 0]	n/a	catFR1	2	R1499T
987.247	1.6	993104	WORD	n/a	wordpools/wordpool_categorized_SP.txt	BLOQUE	Toys	4	9	[0, 0, 0]	n/a	catFR1	2	R1499T
988.847	0.833	994705	WORD_OFF	n/a	n/a	BLOQUE	Toys	4	9	[0, 0, 0]	n/a	catFR1	2	R1499T
989.68	1.617	995541	WORD	n/a	wordpools/wordpool_categorized_SP.txt	OVEJA	FarmAnimals	5	9	[0, 0, 0]	n/a	catFR1	2	R1499T
991.297	0.983	997157	WORD_OFF	n/a	n/a	OVEJA	FarmAnimals	5	9	[0, 0, 0]	n/a	catFR1	2	R1499T
992.28	1.617	998135	WORD	n/a	wordpools/wordpool_categorized_SP.txt	CABRA	FarmAnimals	6	9	[0, 0, 0]	n/a	catFR1	2	R1499T
993.897	0.817	999750	WORD_OFF	n/a	n/a	CABRA	FarmAnimals	6	9	[0, 0, 0]	n/a	catFR1	2	R1499T
994.714	1.6	1000572	WORD	n/a	wordpools/wordpool_categorized_SP.txt	CIRUELA	Fruit	7	9	[0, 0, 0]	n/a	catFR1	2	R1499T
996.314	1.0	1002174	WORD_OFF	n/a	n/a	CIRUELA	Fruit	7	9	[0, 0, 0]	n/a	catFR1	2	R1499T
997.314	1.6	1003166	WORD	n/a	wordpools/wordpool_categorized_SP.txt	FRESA	Fruit	8	9	[0, 0, 0]	n/a	catFR1	2	R1499T
998.914	0.933	1004767	WORD_OFF	n/a	n/a	FRESA	Fruit	8	9	[0, 0, 0]	n/a	catFR1	2	R1499T
999.847	1.6	1005702	WORD	n/a	wordpools/wordpool_categorized_SP.txt	BALERO	Toys	9	9	[0, 0, 0]	n/a	catFR1	2	R1499T
1001.447	0.8	1007304	WORD_OFF	n/a	n/a	BALERO	Toys	9	9	[0, 0, 0]	n/a	catFR1	2	R1499T
1002.247	1.6	1008097	WORD	n/a	wordpools/wordpool_categorized_SP.txt	FUTBOL	Toys	10	9	[0, 0, 0]	n/a	catFR1	2	R1499T
1003.847	0.833	1009699	WORD_OFF	n/a	n/a	FUTBOL	Toys	10	9	[0, 0, 0]	n/a	catFR1	2	R1499T
1004.68	1.616	1010535	WORD	n/a	wordpools/wordpool_categorized_SP.txt	CABALLO	FarmAnimals	11	9	[0, 0, 0]	n/a	catFR1	2	R1499T
1006.296	0.884	1012150	WORD_OFF	n/a	n/a	CABALLO	FarmAnimals	11	9	[0, 0, 0]	n/a	catFR1	2	R1499T
1007.18	1.618	1013043	WORD	n/a	wordpools/wordpool_categorized_SP.txt	PAVO	FarmAnimals	12	9	[0, 0, 0]	n/a	catFR1	2	R1499T
1008.798	0.0	1014654	START	n/a	n/a	n/a	n/a	-999	9	[-999, -999, -999]	n/a	catFR1	2	R1499T
1008.798	0.0	1014654	PROB	0.0	n/a	n/a	n/a	-999	9	[5, 1, 2]	8	catFR1	2	R1499T
1008.797	0.001	1014659	WORD_OFF	n/a	n/a	PAVO	FarmAnimals	12	9	[0, 0, 0]	n/a	catFR1	2	R1499T
1008.798	0.0	1014659	ENCODING_END	n/a	n/a	n/a	n/a	-999	9	[0, 0, 0]	n/a	catFR1	2	R1499T
1008.798	3.983	1014659	DISTRACT_START	n/a	n/a	n/a	n/a	-999	9	[0, 0, 0]	n/a	catFR1	2	R1499T
1012.781	6.533	1018637	PROB	6.533	n/a	n/a	n/a	-999	9	[6, 5, 6]	17	catFR1	2	R1499T
1019.314	5.683	1025169	PROB	5.683	n/a	n/a	n/a	-999	9	[8, 6, 3]	17	catFR1	2	R1499T
1024.997	6.516	1030852	PROB	6.516	n/a	n/a	n/a	-999	9	[6, 5, 7]	19	catFR1	2	R1499T
1031.513	0.0	1037368	STOP	n/a	n/a	n/a	n/a	-999	9	[-999, -999, -999]	n/a	catFR1	2	R1499T
1031.513	2.384	1037375	DISTRACT_END	n/a	n/a	n/a	n/a	-999	9	[0, 0, 0]	n/a	catFR1	2	R1499T
1033.897	3.519	1039750	REC_START	n/a	n/a	n/a	n/a	-999	9	[0, 0, 0]	n/a	catFR1	2	R1499T
1037.416	1.0	1043271	REC_WORD_VV	1.0	n/a	<>	n/a	-999	9	[0, 0, 0]	n/a	catFR1	2	R1499T
1038.416	8.673	1044271	REC_WORD_VV	8.673	n/a	<>	n/a	-999	9	[0, 0, 0]	n/a	catFR1	2	R1499T
1047.089	1.0	1052943	REC_WORD_VV	1.0	n/a	<>	n/a	-999	9	[0, 0, 0]	n/a	catFR1	2	R1499T
1048.089	6.656	1053943	REC_WORD_VV	6.656	n/a	<>	n/a	-999	9	[0, 0, 0]	n/a	catFR1	2	R1499T
1054.745	0.877	1060599	REC_WORD	0.877	n/a	LIMA	Fruit	-999	9	[0, 0, 0]	n/a	catFR1	2	R1499T
1055.622	3.43	1061476	REC_WORD	3.43	n/a	LIMON	Fruit	1	9	[0, 0, 0]	n/a	catFR1	2	R1499T
1059.052	3.576	1064905	REC_WORD	3.576	n/a	PERA	Fruit	2	9	[0, 0, 0]	n/a	catFR1	2	R1499T
1062.628	1.528	1068481	REC_WORD_VV	1.528	n/a	<>	n/a	-999	9	[0, 0, 0]	n/a	catFR1	2	R1499T
1064.156	3.624	1070012	REC_END	n/a	n/a	n/a	n/a	-999	9	[0, 0, 0]	n/a	catFR1	2	R1499T
1067.78	10.35	1073640	COUNTDOWN_START	n/a	n/a	n/a	n/a	-999	10	[0, 0, 0]	n/a	catFR1	2	R1499T
1078.13	0.001	1083985	COUNTDOWN_END	n/a	n/a	n/a	n/a	-999	10	[0, 0, 0]	n/a	catFR1	2	R1499T
1078.131	2.015	1083985	ENCODING_START	n/a	n/a	n/a	n/a	-999	10	[0, 0, 0]	n/a	catFR1	2	R1499T
1080.146	1.601	1085998	WORD	n/a	wordpools/wordpool_categorized_SP.txt	ALICATES	Tools	1	10	[0, 0, 0]	n/a	catFR1	2	R1499T
1081.747	0.883	1087599	WORD_OFF	n/a	n/a	ALICATES	Tools	1	10	[0, 0, 0]	n/a	catFR1	2	R1499T
1082.63	1.6	1088478	WORD	n/a	wordpools/wordpool_categorized_SP.txt	LLAVE	Tools	2	10	[0, 0, 0]	n/a	catFR1	2	R1499T
1084.23	0.834	1090079	WORD_OFF	n/a	n/a	LLAVE	Tools	2	10	[0, 0, 0]	n/a	catFR1	2	R1499T
1085.064	1.6	1090915	WORD	n/a	wordpools/wordpool_categorized_SP.txt	DIENTE	BodyParts	3	10	[0, 0, 0]	n/a	catFR1	2	R1499T
1086.664	0.932	1092516	WORD_OFF	n/a	n/a	DIENTE	BodyParts	3	10	[0, 0, 0]	n/a	catFR1	2	R1499T
1087.596	1.6	1093452	WORD	n/a	wordpools/wordpool_categorized_SP.txt	OREJA	BodyParts	4	10	[0, 0, 0]	n/a	catFR1	2	R1499T
1089.196	0.9	1095053	WORD_OFF	n/a	n/a	OREJA	BodyParts	4	10	[0, 0, 0]	n/a	catFR1	2	R1499T
1090.096	1.6	1095946	WORD	n/a	wordpools/wordpool_categorized_SP.txt	HUMEDAD	Weather	5	10	[0, 0, 0]	n/a	catFR1	2	R1499T
1091.696	0.85	1097547	WORD_OFF	n/a	n/a	HUMEDAD	Weather	5	10	[0, 0, 0]	n/a	catFR1	2	R1499T
1092.546	1.601	1098398	WORD	n/a	wordpools/wordpool_categorized_SP.txt	TORMENTA	Weather	6	10	[0, 0, 0]	n/a	catFR1	2	R1499T
1094.147	0.832	1099999	WORD_OFF	n/a	n/a	TORMENTA	Weather	6	10	[0, 0, 0]	n/a	catFR1	2	R1499T
1094.979	1.602	1100835	WORD	n/a	wordpools/wordpool_categorized_SP.txt	MANO	BodyParts	7	10	[0, 0, 0]	n/a	catFR1	2	R1499T
1096.581	0.782	1102436	WORD_OFF	n/a	n/a	MANO	BodyParts	7	10	[0, 0, 0]	n/a	catFR1	2	R1499T
1097.363	1.6	1103216	WORD	n/a	wordpools/wordpool_categorized_SP.txt	RODILLA	BodyParts	8	10	[0, 0, 0]	n/a	catFR1	2	R1499T
1098.963	0.849	1104817	WORD_OFF	n/a	n/a	RODILLA	BodyParts	8	10	[0, 0, 0]	n/a	catFR1	2	R1499T
1099.812	1.601	1105668	WORD	n/a	wordpools/wordpool_categorized_SP.txt	NUBE	Weather	9	10	[0, 0, 0]	n/a	catFR1	2	R1499T
1101.413	0.9	1107269	WORD_OFF	n/a	n/a	NUBE	Weather	9	10	[0, 0, 0]	n/a	catFR1	2	R1499T
1102.313	1.6	1108162	WORD	n/a	wordpools/wordpool_categorized_SP.txt	TRUENO	Weather	10	10	[0, 0, 0]	n/a	catFR1	2	R1499T
1103.913	0.983	1109763	WORD_OFF	n/a	n/a	TRUENO	Weather	10	10	[0, 0, 0]	n/a	catFR1	2	R1499T
1104.896	1.6	1110755	WORD	n/a	wordpools/wordpool_categorized_SP.txt	TRINQUETE	Tools	11	10	[0, 0, 0]	n/a	catFR1	2	R1499T
1106.496	1.0	1112342	WORD_OFF	n/a	n/a	TRINQUETE	Tools	11	10	[0, 0, 0]	n/a	catFR1	2	R1499T
1107.496	1.617	1113348	WORD	n/a	wordpools/wordpool_categorized_SP.txt	SIERRA	Tools	12	10	[0, 0, 0]	n/a	catFR1	2	R1499T
1109.113	0.001	1114964	WORD_OFF	n/a	n/a	SIERRA	Tools	12	10	[0, 0, 0]	n/a	catFR1	2	R1499T
1109.114	0.0	1114964	ENCODING_END	n/a	n/a	n/a	n/a	-999	10	[0, 0, 0]	n/a	catFR1	2	R1499T
1109.114	0.0	1114964	DISTRACT_START	n/a	n/a	n/a	n/a	-999	10	[0, 0, 0]	n/a	catFR1	2	R1499T
1109.113	0.001	1114964	PROB	0.001	n/a	n/a	n/a	-999	10	[5, 3, 6]	14	catFR1	2	R1499T
1109.114	7.116	1114965	START	n/a	n/a	n/a	n/a	-999	10	[-999, -999, -999]	n/a	catFR1	2	R1499T
1116.23	3.217	1122080	PROB	3.217	n/a	n/a	n/a	-999	10	[1, 7, 3]	11	catFR1	2	R1499T
1119.447	3.567	1125297	PROB	3.567	n/a	n/a	n/a	-999	10	[8, 4, 2]	14	catFR1	2	R1499T
1123.014	4.45	1128864	PROB	4.45	n/a	n/a	n/a	-999	10	[5, 3, 7]	15	catFR1	2	R1499T
1127.464	5.016	1133314	PROB	5.016	n/a	n/a	n/a	-999	10	[2, 1, 2]	5	catFR1	2	R1499T
1132.48	0.0	1138330	STOP	n/a	n/a	n/a	n/a	-999	10	[-999, -999, -999]	n/a	catFR1	2	R1499T
1132.48	2.25	1138333	DISTRACT_END	n/a	n/a	n/a	n/a	-999	10	[0, 0, 0]	n/a	catFR1	2	R1499T
1134.73	0.859	1140580	REC_START	n/a	n/a	n/a	n/a	-999	10	[0, 0, 0]	n/a	catFR1	2	R1499T
1135.589	1.0	1141439	REC_WORD	1.0	n/a	ALICATES	Tools	1	10	[0, 0, 0]	n/a	catFR1	2	R1499T
1136.589	0.301	1142439	REC_WORD	0.301	n/a	ALICATES	Tools	1	10	[0, 0, 0]	n/a	catFR1	2	R1499T
1136.89	1.881	1142739	REC_WORD	1.881	n/a	RODILLA	BodyParts	8	10	[0, 0, 0]	n/a	catFR1	2	R1499T
1138.771	2.336	1144620	REC_WORD	2.336	n/a	BRAZO	n/a	-999	10	[0, 0, 0]	n/a	catFR1	2	R1499T
1141.107	4.871	1146956	REC_WORD	4.871	n/a	DIENTE	BodyParts	3	10	[0, 0, 0]	n/a	catFR1	2	R1499T
1145.978	6.151	1151827	REC_WORD_VV	6.151	n/a	<>	n/a	-999	10	[0, 0, 0]	n/a	catFR1	2	R1499T
1152.129	4.182	1157978	REC_WORD_VV	4.182	n/a	<>	n/a	-999	10	[0, 0, 0]	n/a	catFR1	2	R1499T
1156.311	2.364	1162160	REC_WORD_VV	2.364	n/a	<>	n/a	-999	10	[0, 0, 0]	n/a	catFR1	2	R1499T
1158.675	1.168	1164523	REC_WORD_VV	1.168	n/a	<>	n/a	-999	10	[0, 0, 0]	n/a	catFR1	2	R1499T
1159.843	2.058	1165691	REC_WORD_VV	2.058	n/a	<>	n/a	-999	10	[0, 0, 0]	n/a	catFR1	2	R1499T
1161.901	3.065	1167749	REC_WORD_VV	3.065	n/a	<>	n/a	-999	10	[0, 0, 0]	n/a	catFR1	2	R1499T
1164.966	1.564	1170814	REC_END	n/a	n/a	n/a	n/a	-999	10	[0, 0, 0]	n/a	catFR1	2	R1499T
1166.53	10.35	1172372	COUNTDOWN_START	n/a	n/a	n/a	n/a	-999	11	[0, 0, 0]	n/a	catFR1	2	R1499T
1176.88	0.0	1182732	COUNTDOWN_END	n/a	n/a	n/a	n/a	-999	11	[0, 0, 0]	n/a	catFR1	2	R1499T
1176.88	2.284	1182732	ENCODING_START	n/a	n/a	n/a	n/a	-999	11	[0, 0, 0]	n/a	catFR1	2	R1499T
1179.164	1.6	1185013	WORD	n/a	wordpools/wordpool_categorized_SP.txt	RELAMPAGO	Weather	1	11	[0, 0, 0]	n/a	catFR1	2	R1499T
1180.764	0.949	1186615	WORD_OFF	n/a	n/a	RELAMPAGO	Weather	1	11	[0, 0, 0]	n/a	catFR1	2	R1499T
1181.713	1.6	1187564	WORD	n/a	wordpools/wordpool_categorized_SP.txt	NIEVE	Weather	2	11	[0, 0, 0]	n/a	catFR1	2	R1499T
1183.313	0.784	1189166	WORD_OFF	n/a	n/a	NIEVE	Weather	2	11	[0, 0, 0]	n/a	catFR1	2	R1499T
1184.097	1.6	1189945	WORD	n/a	wordpools/wordpool_categorized_SP.txt	MANZANA	Fruit	3	11	[0, 0, 0]	n/a	catFR1	2	R1499T
1185.697	0.9	1191546	WORD_OFF	n/a	n/a	MANZANA	Fruit	3	11	[0, 0, 0]	n/a	catFR1	2	R1499T
1186.597	1.6	1192439	WORD	n/a	wordpools/wordpool_categorized_SP.txt	DURAZNO	Fruit	4	11	[0, 0, 0]	n/a	catFR1	2	R1499T
1188.197	0.966	1194040	WORD_OFF	n/a	n/a	DURAZNO	Fruit	4	11	[0, 0, 0]	n/a	catFR1	2	R1499T
1189.163	1.6	1195004	WORD	n/a	wordpools/wordpool_categorized_SP.txt	TABLETA	Electronics	5	11	[0, 0, 0]	n/a	catFR1	2	R1499T
1190.763	0.967	1196606	WORD_OFF	n/a	n/a	TABLETA	Electronics	5	11	[0, 0, 0]	n/a	catFR1	2	R1499T
1191.73	1.617	1197583	WORD	n/a	wordpools/wordpool_categorized_SP.txt	CALCULADORA	Electronics	6	11	[0, 0, 0]	n/a	catFR1	2	R1499T
1193.347	0.95	1199199	WORD_OFF	n/a	n/a	CALCULADORA	Electronics	6	11	[0, 0, 0]	n/a	catFR1	2	R1499T
1194.297	1.6	1200148	WORD	n/a	wordpools/wordpool_categorized_SP.txt	UVA	Fruit	7	11	[0, 0, 0]	n/a	catFR1	2	R1499T
1195.897	0.832	1201750	WORD_OFF	n/a	n/a	UVA	Fruit	7	11	[0, 0, 0]	n/a	catFR1	2	R1499T
1196.729	1.601	1202572	WORD	n/a	wordpools/wordpool_categorized_SP.txt	NARANJA	Fruit	8	11	[0, 0, 0]	n/a	catFR1	2	R1499T
1198.33	0.884	1204187	WORD_OFF	n/a	n/a	NARANJA	Fruit	8	11	[0, 0, 0]	n/a	catFR1	2	R1499T
1199.214	1.616	1205066	WORD	n/a	wordpools/wordpool_categorized_SP.txt	ESTEREO	Electronics	9	11	[0, 0, 0]	n/a	catFR1	2	R1499T
1200.83	0.767	1206681	WORD_OFF	n/a	n/a	ESTEREO	Electronics	9	11	[0, 0, 0]	n/a	catFR1	2	R1499T
1201.597	1.6	1207447	WORD	n/a	wordpools/wordpool_categorized_SP.txt	ESCANER	Electronics	10	11	[0, 0, 0]	n/a	catFR1	2	R1499T
1203.197	0.982	1209048	WORD_OFF	n/a	n/a	ESCANER	Electronics	10	11	[0, 0, 0]	n/a	catFR1	2	R1499T
1204.179	1.601	1210026	WORD	n/a	wordpools/wordpool_categorized_SP.txt	TORNADO	Weather	11	11	[0, 0, 0]	n/a	catFR1	2	R1499T
1205.78	0.784	1211627	WORD_OFF	n/a	n/a	TORNADO	Weather	11	11	[0, 0, 0]	n/a	catFR1	2	R1499T
1206.564	1.6	1212407	WORD	n/a	wordpools/wordpool_categorized_SP.txt	HURACAN	Weather	12	11	[0, 0, 0]	n/a	catFR1	2	R1499T
1208.164	0.001	1214008	WORD_OFF	n/a	n/a	HURACAN	Weather	12	11	[0, 0, 0]	n/a	catFR1	2	R1499T
1208.165	0.0	1214008	ENCODING_END	n/a	n/a	n/a	n/a	-999	11	[0, 0, 0]	n/a	catFR1	2	R1499T
1208.165	0.0	1214008	DISTRACT_START	n/a	n/a	n/a	n/a	-999	11	[0, 0, 0]	n/a	catFR1	2	R1499T
1208.164	0.001	1214010	PROB	0.001	n/a	n/a	n/a	-999	11	[1, 7, 4]	12	catFR1	2	R1499T
1208.165	5.183	1214011	START	n/a	n/a	n/a	n/a	-999	11	[-999, -999, -999]	n/a	catFR1	2	R1499T
1213.348	3.633	1219194	PROB	3.633	n/a	n/a	n/a	-999	11	[8, 8, 2]	18	catFR1	2	R1499T
1216.981	11.215	1222826	PROB	11.215	n/a	n/a	n/a	-999	11	[8, 7, 8]	26	catFR1	2	R1499T
1228.196	0.0	1234041	STOP	n/a	n/a	n/a	n/a	-999	11	[-999, -999, -999]	n/a	catFR1	2	R1499T
1228.196	2.1	1234046	DISTRACT_END	n/a	n/a	n/a	n/a	-999	11	[0, 0, 0]	n/a	catFR1	2	R1499T
1230.296	2.073	1236138	REC_START	n/a	n/a	n/a	n/a	-999	11	[0, 0, 0]	n/a	catFR1	2	R1499T
1232.369	0.853	1238214	REC_WORD_VV	0.853	n/a	<>	n/a	-999	11	[0, 0, 0]	n/a	catFR1	2	R1499T
1233.222	1.0	1239067	REC_WORD	1.0	n/a	DURAZNO	Fruit	4	11	[0, 0, 0]	n/a	catFR1	2	R1499T
1234.222	0.16	1240067	REC_WORD	0.16	n/a	DURAZNO	Fruit	4	11	[0, 0, 0]	n/a	catFR1	2	R1499T
1234.382	1.84	1240227	REC_WORD	1.84	n/a	MANZANA	Fruit	3	11	[0, 0, 0]	n/a	catFR1	2	R1499T
1236.222	2.175	1242066	REC_WORD	2.175	n/a	ALICATES	Tools	-999	11	[0, 0, 0]	n/a	catFR1	2	R1499T
1238.397	2.518	1244241	REC_WORD	2.518	n/a	ESCRITORIO	n/a	-999	11	[0, 0, 0]	n/a	catFR1	2	R1499T
1240.915	2.61	1246759	REC_WORD_VV	2.61	n/a	<>	n/a	-999	11	[0, 0, 0]	n/a	catFR1	2	R1499T
1243.525	3.772	1249369	REC_WORD	3.772	n/a	LIMA	Fruit	-999	11	[0, 0, 0]	n/a	catFR1	2	R1499T
1247.297	1.551	1253141	REC_WORD_VV	1.551	n/a	<>	n/a	-999	11	[0, 0, 0]	n/a	catFR1	2	R1499T
1248.848	1.201	1254692	REC_WORD_VV	1.201	n/a	<>	n/a	-999	11	[0, 0, 0]	n/a	catFR1	2	R1499T
1250.049	1.41	1255893	REC_WORD	1.41	n/a	NARANJA	Fruit	8	11	[0, 0, 0]	n/a	catFR1	2	R1499T
1251.459	0.67	1257303	REC_WORD	0.67	n/a	DURAZNO	Fruit	4	11	[0, 0, 0]	n/a	catFR1	2	R1499T
1252.129	2.897	1257973	REC_WORD	2.897	n/a	ALICATES	Tools	-999	11	[0, 0, 0]	n/a	catFR1	2	R1499T
1255.026	3.409	1260869	REC_WORD	3.409	n/a	PERA	Fruit	-999	11	[0, 0, 0]	n/a	catFR1	2	R1499T
1258.435	2.082	1264278	REC_WORD_VV	2.082	n/a	<>	n/a	-999	11	[0, 0, 0]	n/a	catFR1	2	R1499T
1260.517	1.947	1266357	REC_END	n/a	n/a	n/a	n/a	-999	11	[0, 0, 0]	n/a	catFR1	2	R1499T
1262.464	10.349	1268313	COUNTDOWN_START	n/a	n/a	n/a	n/a	-999	12	[0, 0, 0]	n/a	catFR1	2	R1499T
1272.813	0.0	1278658	COUNTDOWN_END	n/a	n/a	n/a	n/a	-999	12	[0, 0, 0]	n/a	catFR1	2	R1499T
1272.813	2.151	1278658	ENCODING_START	n/a	n/a	n/a	n/a	-999	12	[0, 0, 0]	n/a	catFR1	2	R1499T
1274.964	1.616	1280812	WORD	n/a	wordpools/wordpool_categorized_SP.txt	LLUVIA	Weather	1	12	[0, 0, 0]	n/a	catFR1	2	R1499T
1276.58	0.767	1282428	WORD_OFF	n/a	n/a	LLUVIA	Weather	1	12	[0, 0, 0]	n/a	catFR1	2	R1499T
1277.347	1.617	1283193	WORD	n/a	wordpools/wordpool_categorized_SP.txt	VIENTO	Weather	2	12	[0, 0, 0]	n/a	catFR1	2	R1499T
1278.964	0.933	1284808	WORD_OFF	n/a	n/a	VIENTO	Weather	2	12	[0, 0, 0]	n/a	catFR1	2	R1499T
1279.897	1.616	1285744	WORD	n/a	wordpools/wordpool_categorized_SP.txt	COLADOR	KitchenTools	3	12	[0, 0, 0]	n/a	catFR1	2	R1499T
1281.513	0.934	1287359	WORD_OFF	n/a	n/a	COLADOR	KitchenTools	3	12	[0, 0, 0]	n/a	catFR1	2	R1499T
1282.447	1.6	1288295	WORD	n/a	wordpools/wordpool_categorized_SP.txt	ESPATULA	KitchenTools	4	12	[0, 0, 0]	n/a	catFR1	2	R1499T
1284.047	0.933	1289896	WORD_OFF	n/a	n/a	ESPATULA	KitchenTools	4	12	[0, 0, 0]	n/a	catFR1	2	R1499T
1284.98	1.617	1290817	WORD	n/a	wordpools/wordpool_categorized_SP.txt	BECERRO	FarmAnimals	5	12	[0, 0, 0]	n/a	catFR1	2	R1499T
1286.597	0.833	1292433	WORD_OFF	n/a	n/a	BECERRO	FarmAnimals	5	12	[0, 0, 0]	n/a	catFR1	2	R1499T
1287.43	1.616	1293269	WORD	n/a	wordpools/wordpool_categorized_SP.txt	GALLO	FarmAnimals	6	12	[0, 0, 0]	n/a	catFR1	2	R1499T
1289.046	0.901	1294884	WORD_OFF	n/a	n/a	GALLO	FarmAnimals	6	12	[0, 0, 0]	n/a	catFR1	2	R1499T
1289.947	1.6	1295791	WORD	n/a	wordpools/wordpool_categorized_SP.txt	LLOVIZNA	Weather	7	12	[0, 0, 0]	n/a	catFR1	2	R1499T
1291.547	0.767	1297393	WORD_OFF	n/a	n/a	LLOVIZNA	Weather	7	12	[0, 0, 0]	n/a	catFR1	2	R1499T
1292.314	1.599	1298158	WORD	n/a	wordpools/wordpool_categorized_SP.txt	NIEBLA	Weather	8	12	[0, 0, 0]	n/a	catFR1	2	R1499T
1293.913	0.867	1299759	WORD_OFF	n/a	n/a	NIEBLA	Weather	8	12	[0, 0, 0]	n/a	catFR1	2	R1499T
1294.78	1.6	1300624	WORD	n/a	wordpools/wordpool_categorized_SP.txt	VACA	FarmAnimals	9	12	[0, 0, 0]	n/a	catFR1	2	R1499T
1296.38	0.767	1302225	WORD_OFF	n/a	n/a	VACA	FarmAnimals	9	12	[0, 0, 0]	n/a	catFR1	2	R1499T
1297.147	1.616	1302990	WORD	n/a	wordpools/wordpool_categorized_SP.txt	TORO	FarmAnimals	10	12	[0, 0, 0]	n/a	catFR1	2	R1499T
1298.763	0.901	1304606	WORD_OFF	n/a	n/a	TORO	FarmAnimals	10	12	[0, 0, 0]	n/a	catFR1	2	R1499T
1299.664	1.599	1305499	WORD	n/a	wordpools/wordpool_categorized_SP.txt	TENEDOR	KitchenTools	11	12	[0, 0, 0]	n/a	catFR1	2	R1499T
1301.263	0.884	1307100	WORD_OFF	n/a	n/a	TENEDOR	KitchenTools	11	12	[0, 0, 0]	n/a	catFR1	2	R1499T
1302.147	1.617	1307993	WORD	n/a	wordpools/wordpool_categorized_SP.txt	RALLADOR	KitchenTools	12	12	[0, 0, 0]	n/a	catFR1	2	R1499T
1303.764	0.001	1309605	PROB	0.001	n/a	n/a	n/a	-999	12	[1, 2, 1]	4	catFR1	2	R1499T
1303.765	0.0	1309606	START	n/a	n/a	n/a	n/a	-999	12	[-999, -999, -999]	n/a	catFR1	2	R1499T
1303.764	0.001	1309608	WORD_OFF	n/a	n/a	RALLADOR	KitchenTools	12	12	[0, 0, 0]	n/a	catFR1	2	R1499T
1303.765	0.0	1309608	ENCODING_END	n/a	n/a	n/a	n/a	-999	12	[0, 0, 0]	n/a	catFR1	2	R1499T
1303.765	3.315	1309608	DISTRACT_START	n/a	n/a	n/a	n/a	-999	12	[0, 0, 0]	n/a	catFR1	2	R1499T
1307.08	4.918	1312921	PROB	4.918	n/a	n/a	n/a	-999	12	[5, 2, 3]	10	catFR1	2	R1499T
1311.998	3.833	1317839	PROB	3.833	n/a	n/a	n/a	-999	12	[2, 4, 1]	7	catFR1	2	R1499T
1315.831	3.2	1321671	PROB	3.2	n/a	n/a	n/a	-999	12	[2, 3, 3]	8	catFR1	2	R1499T
1319.031	6.849	1324871	PROB	6.849	n/a	n/a	n/a	-999	12	[7, 7, 6]	20	catFR1	2	R1499T
1325.88	0.0	1331716	DISTRACT_END	n/a	n/a	n/a	n/a	-999	12	[0, 0, 0]	n/a	catFR1	2	R1499T
1325.88	2.299	1331720	STOP	n/a	n/a	n/a	n/a	-999	12	[-999, -999, -999]	n/a	catFR1	2	R1499T
1328.179	0.928	1334020	REC_START	n/a	n/a	n/a	n/a	-999	12	[0, 0, 0]	n/a	catFR1	2	R1499T
1329.107	0.596	1334947	REC_WORD	0.596	n/a	LLUVIA	Weather	1	12	[0, 0, 0]	n/a	catFR1	2	R1499T
1329.703	0.884	1335543	REC_WORD	0.884	n/a	NUBLADO	n/a	-999	12	[0, 0, 0]	n/a	catFR1	2	R1499T
1330.587	1.593	1336427	REC_WORD	1.593	n/a	NUBE	Weather	-999	12	[0, 0, 0]	n/a	catFR1	2	R1499T
1332.18	1.001	1338020	REC_WORD	1.001	n/a	ALICATES	Tools	-999	12	[0, 0, 0]	n/a	catFR1	2	R1499T
1333.181	1.851	1339020	REC_WORD	1.851	n/a	ALICATES	Tools	-999	12	[0, 0, 0]	n/a	catFR1	2	R1499T
1335.032	6.717	1340871	REC_WORD	6.717	n/a	TENEDOR	KitchenTools	11	12	[0, 0, 0]	n/a	catFR1	2	R1499T
1341.749	0.465	1347588	REC_WORD	0.465	n/a	NUBE	Weather	-999	12	[0, 0, 0]	n/a	catFR1	2	R1499T
1342.214	0.667	1348053	REC_WORD	0.667	n/a	NUBLADO	n/a	-999	12	[0, 0, 0]	n/a	catFR1	2	R1499T
1342.881	1.029	1348720	REC_WORD	1.029	n/a	TENEDOR	KitchenTools	11	12	[0, 0, 0]	n/a	catFR1	2	R1499T
1343.91	1.852	1349749	REC_WORD	1.852	n/a	VACA	FarmAnimals	9	12	[0, 0, 0]	n/a	catFR1	2	R1499T
1345.762	3.905	1351601	REC_WORD	3.905	n/a	BECERRO	FarmAnimals	5	12	[0, 0, 0]	n/a	catFR1	2	R1499T
1349.667	8.736	1355506	REC_WORD_VV	8.736	n/a	<>	n/a	-999	12	[0, 0, 0]	n/a	catFR1	2	R1499T
1358.403	0.0	1364239	REC_END	n/a	n/a	n/a	n/a	-999	12	[0, 0, 0]	n/a	catFR1	2	R1499T
