onset	duration	sample	trial_type	response_time	stim_file	item_name	category	serialpos	list	test	answer	experiment	session	subject
0.0	88.851	597025	SESS_START	n/a	n/a	n/a	n/a	-999	-999	[0, 0, 0]	n/a	catFR1	0	R1015J
88.851	10.428	685875	COUNTDOWN_START	n/a	n/a	n/a	n/a	-999	-999	[0, 0, 0]	n/a	catFR1	0	R1015J
99.279	3.578	696303	COUNTDOWN_END	n/a	n/a	n/a	n/a	-999	-999	[0, 0, 0]	n/a	catFR1	0	R1015J
102.857	2.47	699881	PRACTICE_WORD	n/a	n/a	CAMEL	n/a	-999	-999	[0, 0, 0]	n/a	catFR1	0	R1015J
105.327	2.539	702351	PRACTICE_WORD	n/a	n/a	TONGUE	n/a	-999	-999	[0, 0, 0]	n/a	catFR1	0	R1015J
107.866	2.47	704890	PRACTICE_WORD	n/a	n/a	IRON	n/a	-999	-999	[0, 0, 0]	n/a	catFR1	0	R1015J
110.336	2.588	707360	PRACTICE_WORD	n/a	n/a	RING	n/a	-999	-999	[0, 0, 0]	n/a	catFR1	0	R1015J
112.924	2.621	709948	PRACTICE_WORD	n/a	n/a	BEAM	n/a	-999	-999	[0, 0, 0]	n/a	catFR1	0	R1015J
115.545	2.555	712569	PRACTICE_WORD	n/a	n/a	WATCH	n/a	-999	-999	[0, 0, 0]	n/a	catFR1	0	R1015J
118.1	2.403	715124	PRACTICE_WORD	n/a	n/a	ATTIC	n/a	-999	-999	[0, 0, 0]	n/a	catFR1	0	R1015J
120.503	2.572	717527	PRACTICE_WORD	n/a	n/a	COTTON	n/a	-999	-999	[0, 0, 0]	n/a	catFR1	0	R1015J
123.075	2.621	720099	PRACTICE_WORD	n/a	n/a	FLOOD	n/a	-999	-999	[0, 0, 0]	n/a	catFR1	0	R1015J
125.696	2.387	722720	PRACTICE_WORD	n/a	n/a	WAGON	n/a	-999	-999	[0, 0, 0]	n/a	catFR1	0	R1015J
128.083	2.555	725107	PRACTICE_WORD	n/a	n/a	RHINO	n/a	-999	-999	[0, 0, 0]	n/a	catFR1	0	R1015J
130.638	1.619	727662	PRACTICE_WORD	n/a	n/a	CHEST	n/a	-999	-999	[0, 0, 0]	n/a	catFR1	0	R1015J
132.257	0.0	729281	PRACTICE_DISTRACT_START	n/a	n/a	n/a	n/a	-999	-999	[0, 0, 0]	n/a	catFR1	0	R1015J
132.257	0.351	729281	START	n/a	n/a	n/a	n/a	-999	-1	[-999, -999, -999]	n/a	catFR1	0	R1015J
132.608	13.922	729632	PROB	13.922	n/a	n/a	n/a	-999	-1	[2, 5, 6]	13	catFR1	0	R1015J
146.53	19.577	743554	PROB	19.577	n/a	n/a	n/a	-999	-1	[9, 8, 5]	22	catFR1	0	R1015J
166.107	0.007	763131	STOP	n/a	n/a	n/a	n/a	-999	-1	[-999, -999, -999]	n/a	catFR1	0	R1015J
166.114	0.602	763138	PRACTICE_DISTRACT_END	n/a	n/a	n/a	n/a	-999	-999	[0, 0, 0]	n/a	catFR1	0	R1015J
166.716	30.516	763740	PRACTICE_REC_START	n/a	n/a	n/a	n/a	-999	-999	[0, 0, 0]	n/a	catFR1	0	R1015J
197.232	124.611	794255	PRACTICE_REC_END	n/a	n/a	n/a	n/a	-999	-999	[0, 0, 0]	n/a	catFR1	0	R1015J
321.843	0.0	918865	TRIAL	n/a	n/a	n/a	n/a	-999	1	[0, 0, 0]	n/a	catFR1	0	R1015J
321.843	10.428	918865	COUNTDOWN_START	n/a	n/a	n/a	n/a	-999	1	[0, 0, 0]	n/a	catFR1	0	R1015J
332.271	0.006	929293	COUNTDOWN_END	n/a	n/a	n/a	n/a	-999	1	[0, 0, 0]	n/a	catFR1	0	R1015J
332.277	3.823	929299	ORIENT	n/a	n/a	n/a	n/a	-999	1	[0, 0, 0]	n/a	catFR1	0	R1015J
336.1	2.571	933122	WORD	n/a	wordpools/wordpool_categorized_EN.txt	MOUSSE	Desserts	1	1	[0, 0, 0]	n/a	catFR1	0	R1015J
338.671	2.471	935693	WORD	n/a	wordpools/wordpool_categorized_EN.txt	BROWNIES	Desserts	2	1	[0, 0, 0]	n/a	catFR1	0	R1015J
341.142	2.637	938164	WORD	n/a	wordpools/wordpool_categorized_EN.txt	STRAWBERRY	Fruit	3	1	[0, 0, 0]	n/a	catFR1	0	R1015J
343.779	2.471	940801	WORD	n/a	wordpools/wordpool_categorized_EN.txt	PEAR	Fruit	4	1	[0, 0, 0]	n/a	catFR1	0	R1015J
346.25	2.388	943272	WORD	n/a	wordpools/wordpool_categorized_EN.txt	SPIDER	Insects	5	1	[0, 0, 0]	n/a	catFR1	0	R1015J
348.638	2.554	945660	WORD	n/a	wordpools/wordpool_categorized_EN.txt	CRICKET	Insects	6	1	[0, 0, 0]	n/a	catFR1	0	R1015J
351.192	2.421	948214	WORD	n/a	wordpools/wordpool_categorized_EN.txt	PEACH	Fruit	7	1	[0, 0, 0]	n/a	catFR1	0	R1015J
353.613	2.404	950635	WORD	n/a	wordpools/wordpool_categorized_EN.txt	GRAPE	Fruit	8	1	[0, 0, 0]	n/a	catFR1	0	R1015J
356.017	2.503	953039	WORD	n/a	wordpools/wordpool_categorized_EN.txt	CHEESECAKE	Desserts	9	1	[0, 0, 0]	n/a	catFR1	0	R1015J
358.52	2.522	955542	WORD	n/a	wordpools/wordpool_categorized_EN.txt	COBBLER	Desserts	10	1	[0, 0, 0]	n/a	catFR1	0	R1015J
361.042	2.604	958064	WORD	n/a	wordpools/wordpool_categorized_EN.txt	MOSQUITO	Insects	11	1	[0, 0, 0]	n/a	catFR1	0	R1015J
363.646	1.62	960668	WORD	n/a	wordpools/wordpool_categorized_EN.txt	BUTTERFLY	Insects	12	1	[0, 0, 0]	n/a	catFR1	0	R1015J
365.266	0.001	962288	DISTRACT_START	n/a	n/a	n/a	n/a	-999	1	[0, 0, 0]	n/a	catFR1	0	R1015J
365.267	0.015	962289	START	n/a	n/a	n/a	n/a	-999	1	[-999, -999, -999]	n/a	catFR1	0	R1015J
365.282	6.411	962304	PROB	6.411	n/a	n/a	n/a	-999	1	[2, 6, 4]	12	catFR1	0	R1015J
371.693	6.811	968715	PROB	6.811	n/a	n/a	n/a	-999	1	[4, 8, 6]	18	catFR1	0	R1015J
378.504	7.579	975526	PROB	7.579	n/a	n/a	n/a	-999	1	[1, 3, 4]	8	catFR1	0	R1015J
386.083	0.018	983105	STOP	n/a	n/a	n/a	n/a	-999	1	[-999, -999, -999]	n/a	catFR1	0	R1015J
386.101	1.036	983123	DISTRACT_END	n/a	n/a	n/a	n/a	-999	1	[0, 0, 0]	n/a	catFR1	0	R1015J
387.137	4.276	984159	REC_START	n/a	n/a	n/a	n/a	-999	1	[0, 0, 0]	n/a	catFR1	0	R1015J
391.413	1.434	988435	REC_WORD_VV	1.434	n/a	<>	n/a	-999	1	[0, 0, 0]	n/a	catFR1	0	R1015J
392.847	2.4	989869	REC_WORD_VV	2.4	n/a	<>	n/a	-999	1	[0, 0, 0]	n/a	catFR1	0	R1015J
395.247	1.65	992269	REC_WORD_VV	1.65	n/a	<>	n/a	-999	1	[0, 0, 0]	n/a	catFR1	0	R1015J
396.897	10.632	993919	REC_WORD_VV	10.632	n/a	<>	n/a	-999	1	[0, 0, 0]	n/a	catFR1	0	R1015J
407.529	3.262	1004551	REC_WORD	3.262	n/a	COBBLER	Desserts	10	1	[0, 0, 0]	n/a	catFR1	0	R1015J
410.791	1.281	1007813	REC_WORD_VV	1.281	n/a	<>	n/a	-999	1	[0, 0, 0]	n/a	catFR1	0	R1015J
412.072	5.08	1009094	REC_WORD	5.08	n/a	STRAWBERRY	Fruit	3	1	[0, 0, 0]	n/a	catFR1	0	R1015J
417.152	10.936	1014173	REC_END	n/a	n/a	n/a	n/a	-999	1	[0, 0, 0]	n/a	catFR1	0	R1015J
428.088	0.0	1025109	TRIAL	n/a	n/a	n/a	n/a	-999	2	[0, 0, 0]	n/a	catFR1	0	R1015J
428.088	10.428	1025109	COUNTDOWN_START	n/a	n/a	n/a	n/a	-999	2	[0, 0, 0]	n/a	catFR1	0	R1015J
438.516	0.005	1035537	COUNTDOWN_END	n/a	n/a	n/a	n/a	-999	2	[0, 0, 0]	n/a	catFR1	0	R1015J
438.521	3.79	1035542	ORIENT	n/a	n/a	n/a	n/a	-999	2	[0, 0, 0]	n/a	catFR1	0	R1015J
442.311	2.438	1039332	WORD	n/a	wordpools/wordpool_categorized_EN.txt	RECLINER	Furniture	1	2	[0, 0, 0]	n/a	catFR1	0	R1015J
444.749	2.388	1041770	WORD	n/a	wordpools/wordpool_categorized_EN.txt	TABLE	Furniture	2	2	[0, 0, 0]	n/a	catFR1	0	R1015J
447.137	2.487	1044158	WORD	n/a	wordpools/wordpool_categorized_EN.txt	LILY	Flowers	3	2	[0, 0, 0]	n/a	catFR1	0	R1015J
449.624	2.488	1046645	WORD	n/a	wordpools/wordpool_categorized_EN.txt	PETUNIA	Flowers	4	2	[0, 0, 0]	n/a	catFR1	0	R1015J
452.112	2.587	1049133	WORD	n/a	wordpools/wordpool_categorized_EN.txt	MILK	Beverages	5	2	[0, 0, 0]	n/a	catFR1	0	R1015J
454.699	2.388	1051720	WORD	n/a	wordpools/wordpool_categorized_EN.txt	COLA	Beverages	6	2	[0, 0, 0]	n/a	catFR1	0	R1015J
457.087	2.537	1054108	WORD	n/a	wordpools/wordpool_categorized_EN.txt	COUCH	Furniture	7	2	[0, 0, 0]	n/a	catFR1	0	R1015J
459.624	2.621	1056645	WORD	n/a	wordpools/wordpool_categorized_EN.txt	DESK	Furniture	8	2	[0, 0, 0]	n/a	catFR1	0	R1015J
462.245	2.605	1059266	WORD	n/a	wordpools/wordpool_categorized_EN.txt	JUICE	Beverages	9	2	[0, 0, 0]	n/a	catFR1	0	R1015J
464.85	2.453	1061871	WORD	n/a	wordpools/wordpool_categorized_EN.txt	RUM	Beverages	10	2	[0, 0, 0]	n/a	catFR1	0	R1015J
467.303	2.455	1064324	WORD	n/a	wordpools/wordpool_categorized_EN.txt	TULIP	Flowers	11	2	[0, 0, 0]	n/a	catFR1	0	R1015J
469.758	1.618	1066779	WORD	n/a	wordpools/wordpool_categorized_EN.txt	ROSE	Flowers	12	2	[0, 0, 0]	n/a	catFR1	0	R1015J
471.376	0.001	1068397	DISTRACT_START	n/a	n/a	n/a	n/a	-999	2	[0, 0, 0]	n/a	catFR1	0	R1015J
471.377	0.016	1068398	START	n/a	n/a	n/a	n/a	-999	2	[-999, -999, -999]	n/a	catFR1	0	R1015J
471.393	5.125	1068414	PROB	5.125	n/a	n/a	n/a	-999	2	[2, 4, 2]	8	catFR1	0	R1015J
476.518	5.327	1073539	PROB	5.327	n/a	n/a	n/a	-999	2	[6, 7, 3]	16	catFR1	0	R1015J
481.845	5.927	1078866	PROB	5.927	n/a	n/a	n/a	-999	2	[8, 1, 2]	11	catFR1	0	R1015J
487.772	23.71	1084793	PROB	23.71	n/a	n/a	n/a	-999	2	[6, 9, 7]	22	catFR1	0	R1015J
511.482	0.012	1108503	STOP	n/a	n/a	n/a	n/a	-999	2	[-999, -999, -999]	n/a	catFR1	0	R1015J
511.494	1.036	1108515	DISTRACT_END	n/a	n/a	n/a	n/a	-999	2	[0, 0, 0]	n/a	catFR1	0	R1015J
512.53	3.618	1109551	REC_START	n/a	n/a	n/a	n/a	-999	2	[0, 0, 0]	n/a	catFR1	0	R1015J
516.148	2.065	1113169	REC_WORD	2.065	n/a	RECLINER	Furniture	1	2	[0, 0, 0]	n/a	catFR1	0	R1015J
518.213	24.332	1115234	REC_WORD_VV	24.332	n/a	<>	n/a	-999	2	[0, 0, 0]	n/a	catFR1	0	R1015J
542.545	5.961	1139565	REC_END	n/a	n/a	n/a	n/a	-999	2	[0, 0, 0]	n/a	catFR1	0	R1015J
548.506	0.001	1145526	COUNTDOWN_START	n/a	n/a	n/a	n/a	-999	3	[0, 0, 0]	n/a	catFR1	0	R1015J
548.507	10.427	1145527	TRIAL	n/a	n/a	n/a	n/a	-999	3	[0, 0, 0]	n/a	catFR1	0	R1015J
558.934	0.008	1155954	COUNTDOWN_END	n/a	n/a	n/a	n/a	-999	3	[0, 0, 0]	n/a	catFR1	0	R1015J
558.942	3.739	1155962	ORIENT	n/a	n/a	n/a	n/a	-999	3	[0, 0, 0]	n/a	catFR1	0	R1015J
562.681	2.538	1159701	WORD	n/a	wordpools/wordpool_categorized_EN.txt	HEN	FarmAnimals	1	3	[0, 0, 0]	n/a	catFR1	0	R1015J
565.219	2.521	1162239	WORD	n/a	wordpools/wordpool_categorized_EN.txt	SHEEP	FarmAnimals	2	3	[0, 0, 0]	n/a	catFR1	0	R1015J
567.74	2.404	1164760	WORD	n/a	wordpools/wordpool_categorized_EN.txt	FORK	KitchenTools	3	3	[0, 0, 0]	n/a	catFR1	0	R1015J
570.144	2.404	1167164	WORD	n/a	wordpools/wordpool_categorized_EN.txt	SPATULA	KitchenTools	4	3	[0, 0, 0]	n/a	catFR1	0	R1015J
572.548	2.437	1169568	WORD	n/a	wordpools/wordpool_categorized_EN.txt	MIXER	Appliances	5	3	[0, 0, 0]	n/a	catFR1	0	R1015J
574.985	2.537	1172005	WORD	n/a	wordpools/wordpool_categorized_EN.txt	STOVE	Appliances	6	3	[0, 0, 0]	n/a	catFR1	0	R1015J
577.522	2.455	1174542	WORD	n/a	wordpools/wordpool_categorized_EN.txt	LAMB	FarmAnimals	7	3	[0, 0, 0]	n/a	catFR1	0	R1015J
579.977	2.42	1176997	WORD	n/a	wordpools/wordpool_categorized_EN.txt	CHICKEN	FarmAnimals	8	3	[0, 0, 0]	n/a	catFR1	0	R1015J
582.397	2.555	1179417	WORD	n/a	wordpools/wordpool_categorized_EN.txt	BLENDER	Appliances	9	3	[0, 0, 0]	n/a	catFR1	0	R1015J
584.952	2.588	1181972	WORD	n/a	wordpools/wordpool_categorized_EN.txt	REFRIGERATOR	Appliances	10	3	[0, 0, 0]	n/a	catFR1	0	R1015J
587.54	2.604	1184560	WORD	n/a	wordpools/wordpool_categorized_EN.txt	STRAINER	KitchenTools	11	3	[0, 0, 0]	n/a	catFR1	0	R1015J
590.144	1.619	1187164	WORD	n/a	wordpools/wordpool_categorized_EN.txt	LADLE	KitchenTools	12	3	[0, 0, 0]	n/a	catFR1	0	R1015J
591.763	0.001	1188783	DISTRACT_START	n/a	n/a	n/a	n/a	-999	3	[0, 0, 0]	n/a	catFR1	0	R1015J
591.764	0.016	1188784	START	n/a	n/a	n/a	n/a	-999	3	[-999, -999, -999]	n/a	catFR1	0	R1015J
591.78	7.112	1188800	PROB	7.112	n/a	n/a	n/a	-999	3	[6, 5, 3]	14	catFR1	0	R1015J
598.892	6.828	1195912	PROB	6.828	n/a	n/a	n/a	-999	3	[9, 5, 2]	16	catFR1	0	R1015J
605.72	5.792	1202740	PROB	5.792	n/a	n/a	n/a	-999	3	[7, 3, 5]	15	catFR1	0	R1015J
611.512	6.443	1208532	PROB	6.443	n/a	n/a	n/a	-999	3	[7, 6, 6]	19	catFR1	0	R1015J
617.955	0.019	1214975	STOP	n/a	n/a	n/a	n/a	-999	3	[-999, -999, -999]	n/a	catFR1	0	R1015J
617.974	1.136	1214994	DISTRACT_END	n/a	n/a	n/a	n/a	-999	3	[0, 0, 0]	n/a	catFR1	0	R1015J
619.11	4.919	1216130	REC_START	n/a	n/a	n/a	n/a	-999	3	[0, 0, 0]	n/a	catFR1	0	R1015J
624.029	2.142	1221049	REC_WORD	2.142	n/a	HEN	FarmAnimals	1	3	[0, 0, 0]	n/a	catFR1	0	R1015J
626.171	12.295	1223191	REC_WORD	12.295	n/a	SPATULA	KitchenTools	4	3	[0, 0, 0]	n/a	catFR1	0	R1015J
638.466	2.339	1235485	REC_WORD	2.339	n/a	TULIP	n/a	-999	3	[0, 0, 0]	n/a	catFR1	0	R1015J
640.805	1.566	1237824	REC_WORD_VV	1.566	n/a	<>	n/a	-999	3	[0, 0, 0]	n/a	catFR1	0	R1015J
642.371	2.715	1239390	REC_WORD_VV	2.715	n/a	<>	n/a	-999	3	[0, 0, 0]	n/a	catFR1	0	R1015J
645.086	2.299	1242105	REC_WORD_VV	2.299	n/a	<>	n/a	-999	3	[0, 0, 0]	n/a	catFR1	0	R1015J
647.385	1.74	1244404	REC_WORD_VV	1.74	n/a	<>	n/a	-999	3	[0, 0, 0]	n/a	catFR1	0	R1015J
649.125	29.451	1246144	REC_END	n/a	n/a	n/a	n/a	-999	3	[0, 0, 0]	n/a	catFR1	0	R1015J
678.576	0.001	1275595	COUNTDOWN_START	n/a	n/a	n/a	n/a	-999	4	[0, 0, 0]	n/a	catFR1	0	R1015J
678.577	10.427	1275596	TRIAL	n/a	n/a	n/a	n/a	-999	4	[0, 0, 0]	n/a	catFR1	0	R1015J
689.004	0.006	1286023	COUNTDOWN_END	n/a	n/a	n/a	n/a	-999	4	[0, 0, 0]	n/a	catFR1	0	R1015J
689.01	3.807	1286029	ORIENT	n/a	n/a	n/a	n/a	-999	4	[0, 0, 0]	n/a	catFR1	0	R1015J
692.817	2.455	1289836	WORD	n/a	wordpools/wordpool_categorized_EN.txt	MOUNTAIN	Landscapes	1	4	[0, 0, 0]	n/a	catFR1	0	R1015J
695.272	2.486	1292291	WORD	n/a	wordpools/wordpool_categorized_EN.txt	BEACH	Landscapes	2	4	[0, 0, 0]	n/a	catFR1	0	R1015J
697.758	2.421	1294777	WORD	n/a	wordpools/wordpool_categorized_EN.txt	RADIO	Electronics	3	4	[0, 0, 0]	n/a	catFR1	0	R1015J
700.179	2.538	1297198	WORD	n/a	wordpools/wordpool_categorized_EN.txt	SCANNER	Electronics	4	4	[0, 0, 0]	n/a	catFR1	0	R1015J
702.717	2.62	1299736	WORD	n/a	wordpools/wordpool_categorized_EN.txt	VIOLIN	Instruments	5	4	[0, 0, 0]	n/a	catFR1	0	R1015J
705.337	2.572	1302356	WORD	n/a	wordpools/wordpool_categorized_EN.txt	TUBA	Instruments	6	4	[0, 0, 0]	n/a	catFR1	0	R1015J
707.909	2.52	1304928	WORD	n/a	wordpools/wordpool_categorized_EN.txt	VALLEY	Landscapes	7	4	[0, 0, 0]	n/a	catFR1	0	R1015J
710.429	2.588	1307448	WORD	n/a	wordpools/wordpool_categorized_EN.txt	FOREST	Landscapes	8	4	[0, 0, 0]	n/a	catFR1	0	R1015J
713.017	2.42	1310036	WORD	n/a	wordpools/wordpool_categorized_EN.txt	BASS	Instruments	9	4	[0, 0, 0]	n/a	catFR1	0	R1015J
715.437	2.372	1312456	WORD	n/a	wordpools/wordpool_categorized_EN.txt	BANJO	Instruments	10	4	[0, 0, 0]	n/a	catFR1	0	R1015J
717.809	2.586	1314828	WORD	n/a	wordpools/wordpool_categorized_EN.txt	CALCULATOR	Electronics	11	4	[0, 0, 0]	n/a	catFR1	0	R1015J
720.395	1.604	1317414	WORD	n/a	wordpools/wordpool_categorized_EN.txt	MICROWAVE	Electronics	12	4	[0, 0, 0]	n/a	catFR1	0	R1015J
721.999	0.002	1319018	DISTRACT_START	n/a	n/a	n/a	n/a	-999	4	[0, 0, 0]	n/a	catFR1	0	R1015J
722.001	0.016	1319020	START	n/a	n/a	n/a	n/a	-999	4	[-999, -999, -999]	n/a	catFR1	0	R1015J
722.017	7.528	1319036	PROB	7.528	n/a	n/a	n/a	-999	4	[7, 5, 2]	14	catFR1	0	R1015J
729.545	4.941	1326564	PROB	4.941	n/a	n/a	n/a	-999	4	[2, 6, 6]	14	catFR1	0	R1015J
734.486	5.025	1331505	PROB	5.025	n/a	n/a	n/a	-999	4	[2, 7, 7]	16	catFR1	0	R1015J
739.511	10.779	1336530	PROB	10.779	n/a	n/a	n/a	-999	4	[8, 2, 5]	15	catFR1	0	R1015J
750.29	0.006	1347308	STOP	n/a	n/a	n/a	n/a	-999	4	[-999, -999, -999]	n/a	catFR1	0	R1015J
750.296	1.186	1347314	DISTRACT_END	n/a	n/a	n/a	n/a	-999	4	[0, 0, 0]	n/a	catFR1	0	R1015J
751.482	0.69	1348500	REC_START	n/a	n/a	n/a	n/a	-999	4	[0, 0, 0]	n/a	catFR1	0	R1015J
752.172	2.539	1349190	REC_WORD_VV	2.539	n/a	<>	n/a	-999	4	[0, 0, 0]	n/a	catFR1	0	R1015J
754.711	2.798	1351729	REC_WORD_VV	2.798	n/a	<>	n/a	-999	4	[0, 0, 0]	n/a	catFR1	0	R1015J
757.509	2.782	1354527	REC_WORD_VV	2.782	n/a	<>	n/a	-999	4	[0, 0, 0]	n/a	catFR1	0	R1015J
760.291	2.688	1357309	REC_WORD_VV	2.688	n/a	<>	n/a	-999	4	[0, 0, 0]	n/a	catFR1	0	R1015J
762.979	3.162	1359997	REC_WORD_VV	3.162	n/a	<>	n/a	-999	4	[0, 0, 0]	n/a	catFR1	0	R1015J
766.141	15.355	1363159	REC_WORD_VV	15.355	n/a	<>	n/a	-999	4	[0, 0, 0]	n/a	catFR1	0	R1015J
781.496	127.685	1378514	REC_END	n/a	n/a	n/a	n/a	-999	4	[0, 0, 0]	n/a	catFR1	0	R1015J
909.181	0.0	1506198	TRIAL	n/a	n/a	n/a	n/a	-999	5	[0, 0, 0]	n/a	catFR1	0	R1015J
909.181	10.428	1506198	COUNTDOWN_START	n/a	n/a	n/a	n/a	-999	5	[0, 0, 0]	n/a	catFR1	0	R1015J
919.609	0.006	1516626	COUNTDOWN_END	n/a	n/a	n/a	n/a	-999	5	[0, 0, 0]	n/a	catFR1	0	R1015J
919.615	3.573	1516632	ORIENT	n/a	n/a	n/a	n/a	-999	5	[0, 0, 0]	n/a	catFR1	0	R1015J
923.188	2.621	1520205	WORD	n/a	wordpools/wordpool_categorized_EN.txt	HUMIDITY	Weather	1	5	[0, 0, 0]	n/a	catFR1	0	R1015J
925.809	2.62	1522826	WORD	n/a	wordpools/wordpool_categorized_EN.txt	DRIZZLE	Weather	2	5	[0, 0, 0]	n/a	catFR1	0	R1015J
928.429	2.422	1525446	WORD	n/a	wordpools/wordpool_categorized_EN.txt	MONKEY	Zoo	3	5	[0, 0, 0]	n/a	catFR1	0	R1015J
930.851	2.404	1527868	WORD	n/a	wordpools/wordpool_categorized_EN.txt	ZEBRA	Zoo	4	5	[0, 0, 0]	n/a	catFR1	0	R1015J
933.255	2.47	1530272	WORD	n/a	wordpools/wordpool_categorized_EN.txt	FINCH	Birds	5	5	[0, 0, 0]	n/a	catFR1	0	R1015J
935.725	2.538	1532742	WORD	n/a	wordpools/wordpool_categorized_EN.txt	PIGEON	Birds	6	5	[0, 0, 0]	n/a	catFR1	0	R1015J
938.263	2.404	1535280	WORD	n/a	wordpools/wordpool_categorized_EN.txt	THUNDER	Weather	7	5	[0, 0, 0]	n/a	catFR1	0	R1015J
940.667	2.404	1537684	WORD	n/a	wordpools/wordpool_categorized_EN.txt	TORNADO	Weather	8	5	[0, 0, 0]	n/a	catFR1	0	R1015J
943.071	2.554	1540088	WORD	n/a	wordpools/wordpool_categorized_EN.txt	CROW	Birds	9	5	[0, 0, 0]	n/a	catFR1	0	R1015J
945.625	2.404	1542642	WORD	n/a	wordpools/wordpool_categorized_EN.txt	DUCK	Birds	10	5	[0, 0, 0]	n/a	catFR1	0	R1015J
948.029	2.605	1545046	WORD	n/a	wordpools/wordpool_categorized_EN.txt	ORANGUTAN	Zoo	11	5	[0, 0, 0]	n/a	catFR1	0	R1015J
950.634	1.619	1547651	WORD	n/a	wordpools/wordpool_categorized_EN.txt	TIGER	Zoo	12	5	[0, 0, 0]	n/a	catFR1	0	R1015J
952.253	0.001	1549270	DISTRACT_START	n/a	n/a	n/a	n/a	-999	5	[0, 0, 0]	n/a	catFR1	0	R1015J
952.254	0.016	1549271	START	n/a	n/a	n/a	n/a	-999	5	[-999, -999, -999]	n/a	catFR1	0	R1015J
952.27	6.628	1549287	PROB	6.628	n/a	n/a	n/a	-999	5	[7, 9, 1]	17	catFR1	0	R1015J
958.898	6.443	1555915	PROB	6.443	n/a	n/a	n/a	-999	5	[6, 2, 6]	14	catFR1	0	R1015J
965.341	6.918	1562358	PROB	6.918	n/a	n/a	n/a	-999	5	[2, 7, 3]	12	catFR1	0	R1015J
972.259	0.011	1569275	STOP	n/a	n/a	n/a	n/a	-999	5	[-999, -999, -999]	n/a	catFR1	0	R1015J
972.27	1.202	1569286	DISTRACT_END	n/a	n/a	n/a	n/a	-999	5	[0, 0, 0]	n/a	catFR1	0	R1015J
973.472	0.49	1570488	REC_START	n/a	n/a	n/a	n/a	-999	5	[0, 0, 0]	n/a	catFR1	0	R1015J
973.962	1.252	1570978	REC_WORD	1.252	n/a	CROW	Birds	9	5	[0, 0, 0]	n/a	catFR1	0	R1015J
975.214	1.781	1572230	REC_WORD	1.781	n/a	ORANGUTAN	Zoo	11	5	[0, 0, 0]	n/a	catFR1	0	R1015J
976.995	5.149	1574011	REC_WORD	5.149	n/a	DUCK	Birds	10	5	[0, 0, 0]	n/a	catFR1	0	R1015J
982.144	21.342	1579160	REC_WORD_VV	21.342	n/a	<>	n/a	-999	5	[0, 0, 0]	n/a	catFR1	0	R1015J
1003.486	1.906	1600502	REC_END	n/a	n/a	n/a	n/a	-999	5	[0, 0, 0]	n/a	catFR1	0	R1015J
1005.392	0.0	1602408	TRIAL	n/a	n/a	n/a	n/a	-999	6	[0, 0, 0]	n/a	catFR1	0	R1015J
1005.392	10.428	1602408	COUNTDOWN_START	n/a	n/a	n/a	n/a	-999	6	[0, 0, 0]	n/a	catFR1	0	R1015J
1015.82	0.007	1612836	COUNTDOWN_END	n/a	n/a	n/a	n/a	-999	6	[0, 0, 0]	n/a	catFR1	0	R1015J
1015.827	3.723	1612843	ORIENT	n/a	n/a	n/a	n/a	-999	6	[0, 0, 0]	n/a	catFR1	0	R1015J
1019.55	2.454	1616566	WORD	n/a	wordpools/wordpool_categorized_EN.txt	SOFA	Furniture	1	6	[0, 0, 0]	n/a	catFR1	0	R1015J
1022.004	2.588	1619020	WORD	n/a	wordpools/wordpool_categorized_EN.txt	SHELF	Furniture	2	6	[0, 0, 0]	n/a	catFR1	0	R1015J
1024.592	2.454	1621608	WORD	n/a	wordpools/wordpool_categorized_EN.txt	FOG	Weather	3	6	[0, 0, 0]	n/a	catFR1	0	R1015J
1027.046	2.504	1624062	WORD	n/a	wordpools/wordpool_categorized_EN.txt	WIND	Weather	4	6	[0, 0, 0]	n/a	catFR1	0	R1015J
1029.55	2.621	1626566	WORD	n/a	wordpools/wordpool_categorized_EN.txt	BIRCH	Trees	5	6	[0, 0, 0]	n/a	catFR1	0	R1015J
1032.171	2.522	1629187	WORD	n/a	wordpools/wordpool_categorized_EN.txt	HICKORY	Trees	6	6	[0, 0, 0]	n/a	catFR1	0	R1015J
1034.693	2.602	1631709	WORD	n/a	wordpools/wordpool_categorized_EN.txt	HURRICANE	Weather	7	6	[0, 0, 0]	n/a	catFR1	0	R1015J
1037.295	2.405	1634311	WORD	n/a	wordpools/wordpool_categorized_EN.txt	SNOW	Weather	8	6	[0, 0, 0]	n/a	catFR1	0	R1015J
1039.7	2.471	1636716	WORD	n/a	wordpools/wordpool_categorized_EN.txt	BED	Furniture	9	6	[0, 0, 0]	n/a	catFR1	0	R1015J
1042.171	2.404	1639187	WORD	n/a	wordpools/wordpool_categorized_EN.txt	CHAIR	Furniture	10	6	[0, 0, 0]	n/a	catFR1	0	R1015J
1044.575	2.605	1641591	WORD	n/a	wordpools/wordpool_categorized_EN.txt	MAPLE	Trees	11	6	[0, 0, 0]	n/a	catFR1	0	R1015J
1047.18	1.619	1644196	WORD	n/a	wordpools/wordpool_categorized_EN.txt	PINE	Trees	12	6	[0, 0, 0]	n/a	catFR1	0	R1015J
1048.799	0.001	1645815	DISTRACT_START	n/a	n/a	n/a	n/a	-999	6	[0, 0, 0]	n/a	catFR1	0	R1015J
1048.8	0.016	1645816	START	n/a	n/a	n/a	n/a	-999	6	[-999, -999, -999]	n/a	catFR1	0	R1015J
1048.816	9.933	1645832	PROB	9.933	n/a	n/a	n/a	-999	6	[8, 5, 5]	18	catFR1	0	R1015J
1058.749	16.454	1655765	PROB	16.454	n/a	n/a	n/a	-999	6	[4, 9, 3]	16	catFR1	0	R1015J
1075.203	0.007	1672219	STOP	n/a	n/a	n/a	n/a	-999	6	[-999, -999, -999]	n/a	catFR1	0	R1015J
1075.21	1.101	1672226	DISTRACT_END	n/a	n/a	n/a	n/a	-999	6	[0, 0, 0]	n/a	catFR1	0	R1015J
1076.311	2.073	1673326	REC_START	n/a	n/a	n/a	n/a	-999	6	[0, 0, 0]	n/a	catFR1	0	R1015J
1078.384	1.887	1675399	REC_WORD	1.887	n/a	SNOW	Weather	8	6	[0, 0, 0]	n/a	catFR1	0	R1015J
1080.271	3.005	1677286	REC_WORD	3.005	n/a	SHELF	Furniture	2	6	[0, 0, 0]	n/a	catFR1	0	R1015J
1083.276	15.083	1680291	REC_WORD_VV	15.083	n/a	<>	n/a	-999	6	[0, 0, 0]	n/a	catFR1	0	R1015J
1098.359	1.022	1695374	REC_WORD	1.022	n/a	ORANGUTAN	n/a	-999	6	[0, 0, 0]	n/a	catFR1	0	R1015J
1099.381	1.37	1696396	REC_WORD_VV	1.37	n/a	<>	n/a	-999	6	[0, 0, 0]	n/a	catFR1	0	R1015J
1100.751	1.23	1697766	REC_WORD_VV	1.23	n/a	<>	n/a	-999	6	[0, 0, 0]	n/a	catFR1	0	R1015J
1101.981	1.499	1698996	REC_WORD_VV	1.499	n/a	<>	n/a	-999	6	[0, 0, 0]	n/a	catFR1	0	R1015J
1103.48	1.393	1700495	REC_WORD_VV	1.393	n/a	<>	n/a	-999	6	[0, 0, 0]	n/a	catFR1	0	R1015J
1104.873	1.461	1701888	REC_WORD_VV	1.461	n/a	<>	n/a	-999	6	[0, 0, 0]	n/a	catFR1	0	R1015J
1106.334	2.716	1703349	REC_END	n/a	n/a	n/a	n/a	-999	6	[0, 0, 0]	n/a	catFR1	0	R1015J
1109.05	0.001	1706065	COUNTDOWN_START	n/a	n/a	n/a	n/a	-999	7	[0, 0, 0]	n/a	catFR1	0	R1015J
1109.051	10.427	1706066	TRIAL	n/a	n/a	n/a	n/a	-999	7	[0, 0, 0]	n/a	catFR1	0	R1015J
1119.478	0.006	1716493	COUNTDOWN_END	n/a	n/a	n/a	n/a	-999	7	[0, 0, 0]	n/a	catFR1	0	R1015J
1119.484	3.873	1716499	ORIENT	n/a	n/a	n/a	n/a	-999	7	[0, 0, 0]	n/a	catFR1	0	R1015J
1123.357	2.505	1720372	WORD	n/a	wordpools/wordpool_categorized_EN.txt	BLUEBERRY	Fruit	1	7	[0, 0, 0]	n/a	catFR1	0	R1015J
1125.862	2.387	1722877	WORD	n/a	wordpools/wordpool_categorized_EN.txt	PLUM	Fruit	2	7	[0, 0, 0]	n/a	catFR1	0	R1015J
1128.249	2.454	1725264	WORD	n/a	wordpools/wordpool_categorized_EN.txt	DRYER	Appliances	3	7	[0, 0, 0]	n/a	catFR1	0	R1015J
1130.703	2.555	1727718	WORD	n/a	wordpools/wordpool_categorized_EN.txt	DISHWASHER	Appliances	4	7	[0, 0, 0]	n/a	catFR1	0	R1015J
1133.258	2.554	1730273	WORD	n/a	wordpools/wordpool_categorized_EN.txt	WINE	Beverages	5	7	[0, 0, 0]	n/a	catFR1	0	R1015J
1135.812	2.404	1732827	WORD	n/a	wordpools/wordpool_categorized_EN.txt	CIDER	Beverages	6	7	[0, 0, 0]	n/a	catFR1	0	R1015J
1138.216	2.521	1735231	WORD	n/a	wordpools/wordpool_categorized_EN.txt	WASHER	Appliances	7	7	[0, 0, 0]	n/a	catFR1	0	R1015J
1140.737	2.522	1737752	WORD	n/a	wordpools/wordpool_categorized_EN.txt	VACUUM	Appliances	8	7	[0, 0, 0]	n/a	catFR1	0	R1015J
1143.259	2.403	1740274	WORD	n/a	wordpools/wordpool_categorized_EN.txt	APPLE	Fruit	9	7	[0, 0, 0]	n/a	catFR1	0	R1015J
1145.662	2.554	1742677	WORD	n/a	wordpools/wordpool_categorized_EN.txt	CHERRY	Fruit	10	7	[0, 0, 0]	n/a	catFR1	0	R1015J
1148.216	2.454	1745231	WORD	n/a	wordpools/wordpool_categorized_EN.txt	LEMONADE	Beverages	11	7	[0, 0, 0]	n/a	catFR1	0	R1015J
1150.67	1.619	1747685	WORD	n/a	wordpools/wordpool_categorized_EN.txt	WATER	Beverages	12	7	[0, 0, 0]	n/a	catFR1	0	R1015J
1152.289	0.001	1749304	DISTRACT_START	n/a	n/a	n/a	n/a	-999	7	[0, 0, 0]	n/a	catFR1	0	R1015J
1152.29	0.016	1749305	START	n/a	n/a	n/a	n/a	-999	7	[-999, -999, -999]	n/a	catFR1	0	R1015J
1152.306	5.944	1749321	PROB	5.944	n/a	n/a	n/a	-999	7	[2, 3, 1]	6	catFR1	0	R1015J
1158.25	5.224	1755265	PROB	5.224	n/a	n/a	n/a	-999	7	[3, 7, 1]	11	catFR1	0	R1015J
1163.474	9.839	1760489	PROB	9.839	n/a	n/a	n/a	-999	7	[6, 5, 2]	13	catFR1	0	R1015J
1173.313	0.011	1770328	STOP	n/a	n/a	n/a	n/a	-999	7	[-999, -999, -999]	n/a	catFR1	0	R1015J
1173.324	1.103	1770339	DISTRACT_END	n/a	n/a	n/a	n/a	-999	7	[0, 0, 0]	n/a	catFR1	0	R1015J
1174.427	3.762	1771442	REC_START	n/a	n/a	n/a	n/a	-999	7	[0, 0, 0]	n/a	catFR1	0	R1015J
1178.189	8.252	1775204	REC_WORD	8.252	n/a	PLUM	Fruit	2	7	[0, 0, 0]	n/a	catFR1	0	R1015J
1186.441	1.167	1783455	REC_WORD_VV	1.167	n/a	<>	n/a	-999	7	[0, 0, 0]	n/a	catFR1	0	R1015J
1187.608	16.833	1784622	REC_WORD_VV	16.833	n/a	<>	n/a	-999	7	[0, 0, 0]	n/a	catFR1	0	R1015J
1204.441	1.922	1801455	REC_END	n/a	n/a	n/a	n/a	-999	7	[0, 0, 0]	n/a	catFR1	0	R1015J
1206.363	0.001	1803377	COUNTDOWN_START	n/a	n/a	n/a	n/a	-999	8	[0, 0, 0]	n/a	catFR1	0	R1015J
1206.364	10.427	1803378	TRIAL	n/a	n/a	n/a	n/a	-999	8	[0, 0, 0]	n/a	catFR1	0	R1015J
1216.791	0.007	1813805	COUNTDOWN_END	n/a	n/a	n/a	n/a	-999	8	[0, 0, 0]	n/a	catFR1	0	R1015J
1216.798	3.807	1813812	ORIENT	n/a	n/a	n/a	n/a	-999	8	[0, 0, 0]	n/a	catFR1	0	R1015J
1220.605	2.504	1817619	WORD	n/a	wordpools/wordpool_categorized_EN.txt	PANTS	Clothing	1	8	[0, 0, 0]	n/a	catFR1	0	R1015J
1223.109	2.386	1820123	WORD	n/a	wordpools/wordpool_categorized_EN.txt	SOCKS	Clothing	2	8	[0, 0, 0]	n/a	catFR1	0	R1015J
1225.495	2.54	1822509	WORD	n/a	wordpools/wordpool_categorized_EN.txt	MOTORCYCLE	Vehicles	3	8	[0, 0, 0]	n/a	catFR1	0	R1015J
1228.035	2.419	1825049	WORD	n/a	wordpools/wordpool_categorized_EN.txt	TRUCK	Vehicles	4	8	[0, 0, 0]	n/a	catFR1	0	R1015J
1230.454	2.471	1827468	WORD	n/a	wordpools/wordpool_categorized_EN.txt	PHONE	Electronics	5	8	[0, 0, 0]	n/a	catFR1	0	R1015J
1232.925	2.622	1829939	WORD	n/a	wordpools/wordpool_categorized_EN.txt	TABLET	Electronics	6	8	[0, 0, 0]	n/a	catFR1	0	R1015J
1235.547	2.47	1832561	WORD	n/a	wordpools/wordpool_categorized_EN.txt	CAR	Vehicles	7	8	[0, 0, 0]	n/a	catFR1	0	R1015J
1238.017	2.42	1835031	WORD	n/a	wordpools/wordpool_categorized_EN.txt	TRAIN	Vehicles	8	8	[0, 0, 0]	n/a	catFR1	0	R1015J
1240.437	2.372	1837451	WORD	n/a	wordpools/wordpool_categorized_EN.txt	UNDERWEAR	Clothing	9	8	[0, 0, 0]	n/a	catFR1	0	R1015J
1242.809	2.486	1839823	WORD	n/a	wordpools/wordpool_categorized_EN.txt	SHORTS	Clothing	10	8	[0, 0, 0]	n/a	catFR1	0	R1015J
1245.295	2.539	1842309	WORD	n/a	wordpools/wordpool_categorized_EN.txt	PRINTER	Electronics	11	8	[0, 0, 0]	n/a	catFR1	0	R1015J
1247.834	1.618	1844848	WORD	n/a	wordpools/wordpool_categorized_EN.txt	SPEAKER	Electronics	12	8	[0, 0, 0]	n/a	catFR1	0	R1015J
1249.452	0.001	1846466	DISTRACT_START	n/a	n/a	n/a	n/a	-999	8	[0, 0, 0]	n/a	catFR1	0	R1015J
1249.453	0.016	1846467	START	n/a	n/a	n/a	n/a	-999	8	[-999, -999, -999]	n/a	catFR1	0	R1015J
1249.469	10.985	1846483	PROB	10.985	n/a	n/a	n/a	-999	8	[5, 4, 6]	15	catFR1	0	R1015J
1260.454	4.892	1857468	PROB	4.892	n/a	n/a	n/a	-999	8	[1, 1, 6]	8	catFR1	0	R1015J
1265.346	5.241	1862360	PROB	5.241	n/a	n/a	n/a	-999	8	[2, 1, 3]	6	catFR1	0	R1015J
1270.587	0.019	1867601	STOP	n/a	n/a	n/a	n/a	-999	8	[-999, -999, -999]	n/a	catFR1	0	R1015J
1270.606	1.135	1867620	DISTRACT_END	n/a	n/a	n/a	n/a	-999	8	[0, 0, 0]	n/a	catFR1	0	R1015J
1271.741	10.151	1868755	REC_START	n/a	n/a	n/a	n/a	-999	8	[0, 0, 0]	n/a	catFR1	0	R1015J
1281.892	13.039	1878906	REC_WORD	13.039	n/a	PANTS	Clothing	1	8	[0, 0, 0]	n/a	catFR1	0	R1015J
1294.931	5.422	1891945	REC_WORD_VV	5.422	n/a	<>	n/a	-999	8	[0, 0, 0]	n/a	catFR1	0	R1015J
1300.353	1.411	1897366	REC_WORD_VV	1.411	n/a	<>	n/a	-999	8	[0, 0, 0]	n/a	catFR1	0	R1015J
1301.764	3.766	1898777	REC_END	n/a	n/a	n/a	n/a	-999	8	[0, 0, 0]	n/a	catFR1	0	R1015J
1305.53	0.0	1902543	TRIAL	n/a	n/a	n/a	n/a	-999	9	[0, 0, 0]	n/a	catFR1	0	R1015J
1305.53	10.428	1902543	COUNTDOWN_START	n/a	n/a	n/a	n/a	-999	9	[0, 0, 0]	n/a	catFR1	0	R1015J
1315.958	0.007	1912971	COUNTDOWN_END	n/a	n/a	n/a	n/a	-999	9	[0, 0, 0]	n/a	catFR1	0	R1015J
1315.965	3.79	1912978	ORIENT	n/a	n/a	n/a	n/a	-999	9	[0, 0, 0]	n/a	catFR1	0	R1015J
1319.755	2.57	1916768	WORD	n/a	wordpools/wordpool_categorized_EN.txt	BEE	Insects	1	9	[0, 0, 0]	n/a	catFR1	0	R1015J
1322.325	2.422	1919338	WORD	n/a	wordpools/wordpool_categorized_EN.txt	GNAT	Insects	2	9	[0, 0, 0]	n/a	catFR1	0	R1015J
1324.747	2.57	1921760	WORD	n/a	wordpools/wordpool_categorized_EN.txt	ISLAND	Landscapes	3	9	[0, 0, 0]	n/a	catFR1	0	R1015J
1327.317	2.521	1924330	WORD	n/a	wordpools/wordpool_categorized_EN.txt	CREEK	Landscapes	4	9	[0, 0, 0]	n/a	catFR1	0	R1015J
1329.838	2.554	1926851	WORD	n/a	wordpools/wordpool_categorized_EN.txt	KNIFE	KitchenTools	5	9	[0, 0, 0]	n/a	catFR1	0	R1015J
1332.392	2.538	1929405	WORD	n/a	wordpools/wordpool_categorized_EN.txt	COLANDER	KitchenTools	6	9	[0, 0, 0]	n/a	catFR1	0	R1015J
1334.93	2.42	1931943	WORD	n/a	wordpools/wordpool_categorized_EN.txt	HILLS	Landscapes	7	9	[0, 0, 0]	n/a	catFR1	0	R1015J
1337.35	2.39	1934363	WORD	n/a	wordpools/wordpool_categorized_EN.txt	LAKE	Landscapes	8	9	[0, 0, 0]	n/a	catFR1	0	R1015J
1339.74	2.503	1936753	WORD	n/a	wordpools/wordpool_categorized_EN.txt	LADYBUG	Insects	9	9	[0, 0, 0]	n/a	catFR1	0	R1015J
1342.243	2.454	1939256	WORD	n/a	wordpools/wordpool_categorized_EN.txt	FLY	Insects	10	9	[0, 0, 0]	n/a	catFR1	0	R1015J
1344.697	2.521	1941710	WORD	n/a	wordpools/wordpool_categorized_EN.txt	TONGS	KitchenTools	11	9	[0, 0, 0]	n/a	catFR1	0	R1015J
1347.218	1.619	1944231	WORD	n/a	wordpools/wordpool_categorized_EN.txt	WHISK	KitchenTools	12	9	[0, 0, 0]	n/a	catFR1	0	R1015J
1348.837	0.001	1945850	DISTRACT_START	n/a	n/a	n/a	n/a	-999	9	[0, 0, 0]	n/a	catFR1	0	R1015J
1348.838	0.016	1945851	START	n/a	n/a	n/a	n/a	-999	9	[-999, -999, -999]	n/a	catFR1	0	R1015J
1348.854	5.475	1945867	PROB	5.475	n/a	n/a	n/a	-999	9	[3, 4, 7]	14	catFR1	0	R1015J
1354.329	5.944	1951342	PROB	5.944	n/a	n/a	n/a	-999	9	[6, 8, 8]	22	catFR1	0	R1015J
1360.273	16.161	1957286	PROB	16.161	n/a	n/a	n/a	-999	9	[6, 7, 5]	18	catFR1	0	R1015J
1376.434	0.015	1973447	STOP	n/a	n/a	n/a	n/a	-999	9	[-999, -999, -999]	n/a	catFR1	0	R1015J
1376.449	1.204	1973462	DISTRACT_END	n/a	n/a	n/a	n/a	-999	9	[0, 0, 0]	n/a	catFR1	0	R1015J
1377.653	2.338	1974666	REC_START	n/a	n/a	n/a	n/a	-999	9	[0, 0, 0]	n/a	catFR1	0	R1015J
1379.991	2.804	1977004	REC_WORD	2.804	n/a	COLANDER	KitchenTools	6	9	[0, 0, 0]	n/a	catFR1	0	R1015J
1382.795	1.219	1979808	REC_WORD	1.219	n/a	GNAT	Insects	2	9	[0, 0, 0]	n/a	catFR1	0	R1015J
1384.014	11.399	1981027	REC_WORD	11.399	n/a	BEE	Insects	1	9	[0, 0, 0]	n/a	catFR1	0	R1015J
1395.413	12.254	1992426	REC_WORD_VV	12.254	n/a	<>	n/a	-999	9	[0, 0, 0]	n/a	catFR1	0	R1015J
1407.667	13.058	2004679	REC_END	n/a	n/a	n/a	n/a	-999	9	[0, 0, 0]	n/a	catFR1	0	R1015J
1420.725	0.0	2017737	TRIAL	n/a	n/a	n/a	n/a	-999	10	[0, 0, 0]	n/a	catFR1	0	R1015J
1420.725	10.428	2017737	COUNTDOWN_START	n/a	n/a	n/a	n/a	-999	10	[0, 0, 0]	n/a	catFR1	0	R1015J
1431.153	0.006	2028165	COUNTDOWN_END	n/a	n/a	n/a	n/a	-999	10	[0, 0, 0]	n/a	catFR1	0	R1015J
1431.159	3.573	2028171	ORIENT	n/a	n/a	n/a	n/a	-999	10	[0, 0, 0]	n/a	catFR1	0	R1015J
1434.732	2.537	2031744	WORD	n/a	wordpools/wordpool_categorized_EN.txt	PIE	Desserts	1	10	[0, 0, 0]	n/a	catFR1	0	R1015J
1437.269	2.555	2034281	WORD	n/a	wordpools/wordpool_categorized_EN.txt	PUDDING	Desserts	2	10	[0, 0, 0]	n/a	catFR1	0	R1015J
1439.824	2.387	2036836	WORD	n/a	wordpools/wordpool_categorized_EN.txt	BOOKCASE	Furniture	3	10	[0, 0, 0]	n/a	catFR1	0	R1015J
1442.211	2.454	2039223	WORD	n/a	wordpools/wordpool_categorized_EN.txt	DRESSER	Furniture	4	10	[0, 0, 0]	n/a	catFR1	0	R1015J
1444.665	2.571	2041677	WORD	n/a	wordpools/wordpool_categorized_EN.txt	PEELER	KitchenTools	5	10	[0, 0, 0]	n/a	catFR1	0	R1015J
1447.236	2.454	2044248	WORD	n/a	wordpools/wordpool_categorized_EN.txt	CORKSCREW	KitchenTools	6	10	[0, 0, 0]	n/a	catFR1	0	R1015J
1449.69	2.538	2046702	WORD	n/a	wordpools/wordpool_categorized_EN.txt	PASTRY	Desserts	7	10	[0, 0, 0]	n/a	catFR1	0	R1015J
1452.228	2.587	2049240	WORD	n/a	wordpools/wordpool_categorized_EN.txt	JELLO	Desserts	8	10	[0, 0, 0]	n/a	catFR1	0	R1015J
1454.815	2.389	2051827	WORD	n/a	wordpools/wordpool_categorized_EN.txt	GRATER	KitchenTools	9	10	[0, 0, 0]	n/a	catFR1	0	R1015J
1457.204	2.42	2054216	WORD	n/a	wordpools/wordpool_categorized_EN.txt	SPOON	KitchenTools	10	10	[0, 0, 0]	n/a	catFR1	0	R1015J
1459.624	2.537	2056636	WORD	n/a	wordpools/wordpool_categorized_EN.txt	CABINET	Furniture	11	10	[0, 0, 0]	n/a	catFR1	0	R1015J
1462.161	1.62	2059173	WORD	n/a	wordpools/wordpool_categorized_EN.txt	NIGHTSTAND	Furniture	12	10	[0, 0, 0]	n/a	catFR1	0	R1015J
1463.781	0.001	2060793	DISTRACT_START	n/a	n/a	n/a	n/a	-999	10	[0, 0, 0]	n/a	catFR1	0	R1015J
1463.782	0.015	2060794	START	n/a	n/a	n/a	n/a	-999	10	[-999, -999, -999]	n/a	catFR1	0	R1015J
1463.797	12.721	2060809	PROB	12.721	n/a	n/a	n/a	-999	10	[8, 5, 6]	19	catFR1	0	R1015J
1476.518	8.253	2073530	PROB	8.253	n/a	n/a	n/a	-999	10	[5, 6, 6]	17	catFR1	0	R1015J
1484.771	0.012	2081783	STOP	n/a	n/a	n/a	n/a	-999	10	[-999, -999, -999]	n/a	catFR1	0	R1015J
1484.783	1.135	2081795	DISTRACT_END	n/a	n/a	n/a	n/a	-999	10	[0, 0, 0]	n/a	catFR1	0	R1015J
1485.918	2.038	2082930	REC_START	n/a	n/a	n/a	n/a	-999	10	[0, 0, 0]	n/a	catFR1	0	R1015J
1487.956	1.732	2084968	REC_WORD	1.732	n/a	COLANDER	n/a	-999	10	[0, 0, 0]	n/a	catFR1	0	R1015J
1489.688	2.387	2086700	REC_WORD	2.387	n/a	CABINET	Furniture	11	10	[0, 0, 0]	n/a	catFR1	0	R1015J
1492.075	2.666	2089087	REC_WORD	2.666	n/a	STAND	n/a	-999	10	[0, 0, 0]	n/a	catFR1	0	R1015J
1494.741	8.867	2091753	REC_WORD_VV	8.867	n/a	<>	n/a	-999	10	[0, 0, 0]	n/a	catFR1	0	R1015J
1503.608	3.647	2100620	REC_WORD_VV	3.647	n/a	<>	n/a	-999	10	[0, 0, 0]	n/a	catFR1	0	R1015J
1507.255	2.907	2104267	REC_WORD_VV	2.907	n/a	<>	n/a	-999	10	[0, 0, 0]	n/a	catFR1	0	R1015J
1510.162	1.46	2107174	REC_WORD_VV	1.46	n/a	<>	n/a	-999	10	[0, 0, 0]	n/a	catFR1	0	R1015J
1511.622	1.433	2108634	REC_WORD_VV	1.433	n/a	<>	n/a	-999	10	[0, 0, 0]	n/a	catFR1	0	R1015J
1513.055	2.886	2110067	REC_WORD_VV	2.886	n/a	<>	n/a	-999	10	[0, 0, 0]	n/a	catFR1	0	R1015J
1515.941	2.131	2112952	REC_END	n/a	n/a	n/a	n/a	-999	10	[0, 0, 0]	n/a	catFR1	0	R1015J
1518.072	0.0	2115083	TRIAL	n/a	n/a	n/a	n/a	-999	11	[0, 0, 0]	n/a	catFR1	0	R1015J
1518.072	0.0	2115083	COUNTDOWN_START	n/a	n/a	n/a	n/a	-999	11	[0, 0, 0]	n/a	catFR1	0	R1015J
