onset	duration	sample	trial_type	response_time	stim_file	item_name	category	serialpos	list	test	answer	experiment	session	subject
0.0	7.164	81343	INSTRUCT_START	n/a	n/a	n/a	n/a	-999	-999	[0, 0, 0]	n/a	catFR1	2	R1495J
7.164	26.884	88504	INSTRUCT_END	n/a	n/a	n/a	n/a	-999	-999	[0, 0, 0]	n/a	catFR1	2	R1495J
34.048	10.35	115389	COUNTDOWN_START	n/a	n/a	n/a	n/a	-999	-999	[0, 0, 0]	n/a	catFR1	2	R1495J
44.398	0.0	125742	COUNTDOWN_END	n/a	n/a	n/a	n/a	-999	-999	[0, 0, 0]	n/a	catFR1	2	R1495J
44.398	2.216	125742	ENCODING_START	n/a	n/a	n/a	n/a	-999	-1	[0, 0, 0]	n/a	catFR1	2	R1495J
46.614	1.6	127955	WORD	n/a	n/a	NOSE	BodyParts	1	-1	[0, 0, 0]	n/a	catFR1	2	R1495J
48.214	0.916	129557	WORD_OFF	n/a	n/a	NOSE	BodyParts	1	-1	[0, 0, 0]	n/a	catFR1	2	R1495J
49.13	1.6	130473	WORD	n/a	n/a	ELBOW	BodyParts	2	-1	[0, 0, 0]	n/a	catFR1	2	R1495J
50.73	0.916	132063	WORD_OFF	n/a	n/a	ELBOW	BodyParts	2	-1	[0, 0, 0]	n/a	catFR1	2	R1495J
51.646	1.6	132978	WORD	n/a	n/a	SPARROW	Birds	3	-1	[0, 0, 0]	n/a	catFR1	2	R1495J
53.246	1.001	134581	WORD_OFF	n/a	n/a	SPARROW	Birds	3	-1	[0, 0, 0]	n/a	catFR1	2	R1495J
54.247	1.6	135585	WORD	n/a	n/a	DOVE	Birds	4	-1	[0, 0, 0]	n/a	catFR1	2	R1495J
55.847	0.799	137188	WORD_OFF	n/a	n/a	DOVE	Birds	4	-1	[0, 0, 0]	n/a	catFR1	2	R1495J
56.646	1.6	137989	WORD	n/a	n/a	CHERRY	Fruit	5	-1	[0, 0, 0]	n/a	catFR1	2	R1495J
58.246	0.884	139579	WORD_OFF	n/a	n/a	CHERRY	Fruit	5	-1	[0, 0, 0]	n/a	catFR1	2	R1495J
59.13	1.617	140469	WORD	n/a	n/a	PLUM	Fruit	6	-1	[0, 0, 0]	n/a	catFR1	2	R1495J
60.747	0.833	142084	WORD_OFF	n/a	n/a	PLUM	Fruit	6	-1	[0, 0, 0]	n/a	catFR1	2	R1495J
61.58	1.617	142924	WORD	n/a	n/a	LEG	BodyParts	7	-1	[0, 0, 0]	n/a	catFR1	2	R1495J
63.197	0.865	144539	WORD_OFF	n/a	n/a	LEG	BodyParts	7	-1	[0, 0, 0]	n/a	catFR1	2	R1495J
64.062	1.601	145404	WORD	n/a	n/a	TOE	BodyParts	8	-1	[0, 0, 0]	n/a	catFR1	2	R1495J
65.663	0.967	147006	WORD_OFF	n/a	n/a	TOE	BodyParts	8	-1	[0, 0, 0]	n/a	catFR1	2	R1495J
66.63	1.616	147973	WORD	n/a	n/a	APPLE	Fruit	9	-1	[0, 0, 0]	n/a	catFR1	2	R1495J
68.246	0.783	149588	WORD_OFF	n/a	n/a	APPLE	Fruit	9	-1	[0, 0, 0]	n/a	catFR1	2	R1495J
69.029	1.618	150364	WORD	n/a	n/a	BANANA	Fruit	10	-1	[0, 0, 0]	n/a	catFR1	2	R1495J
70.647	0.915	151979	WORD_OFF	n/a	n/a	BANANA	Fruit	10	-1	[0, 0, 0]	n/a	catFR1	2	R1495J
71.562	1.601	152895	WORD	n/a	n/a	CARDINAL	Birds	11	-1	[0, 0, 0]	n/a	catFR1	2	R1495J
73.163	0.917	154497	WORD_OFF	n/a	n/a	CARDINAL	Birds	11	-1	[0, 0, 0]	n/a	catFR1	2	R1495J
74.08	1.618	155413	WORD	n/a	n/a	PIGEON	Birds	12	-1	[0, 0, 0]	n/a	catFR1	2	R1495J
75.698	0.002	157038	PROB	0.002	n/a	n/a	n/a	-999	-1	[3, 4, 1]	8	catFR1	2	R1495J
75.7	0.0	157040	START	n/a	n/a	n/a	n/a	-999	-1	[-999, -999, -999]	n/a	catFR1	2	R1495J
75.699	0.001	157041	WORD_OFF	n/a	n/a	PIGEON	Birds	12	-1	[0, 0, 0]	n/a	catFR1	2	R1495J
75.7	0.0	157041	ENCODING_END	n/a	n/a	n/a	n/a	-999	-1	[0, 0, 0]	n/a	catFR1	2	R1495J
75.7	3.014	157041	DISTRACT_START	n/a	n/a	n/a	n/a	-999	-1	[0, 0, 0]	n/a	catFR1	2	R1495J
78.714	4.083	160054	PROB	4.083	n/a	n/a	n/a	-999	-1	[8, 4, 8]	20	catFR1	2	R1495J
82.797	3.017	164136	PROB	3.017	n/a	n/a	n/a	-999	-1	[3, 6, 1]	10	catFR1	2	R1495J
85.814	3.582	167153	PROB	3.582	n/a	n/a	n/a	-999	-1	[4, 3, 2]	9	catFR1	2	R1495J
89.396	2.668	170735	PROB	2.668	n/a	n/a	n/a	-999	-1	[2, 2, 7]	11	catFR1	2	R1495J
92.064	2.267	173403	PROB	2.267	n/a	n/a	n/a	-999	-1	[3, 5, 1]	9	catFR1	2	R1495J
94.331	4.748	175670	PROB	4.748	n/a	n/a	n/a	-999	-1	[7, 5, 2]	14	catFR1	2	R1495J
99.079	0.0	180416	DISTRACT_END	n/a	n/a	n/a	n/a	-999	-1	[0, 0, 0]	n/a	catFR1	2	R1495J
99.079	1.351	180418	STOP	n/a	n/a	n/a	n/a	-999	-1	[-999, -999, -999]	n/a	catFR1	2	R1495J
100.43	0.693	181764	REC_START	n/a	n/a	n/a	n/a	-999	-1	[0, 0, 0]	n/a	catFR1	2	R1495J
101.123	0.584	182462	REC_WORD	0.584	n/a	NOSE	BodyParts	1	-1	[0, 0, 0]	n/a	catFR1	2	R1495J
101.707	0.52	183046	REC_WORD	0.52	n/a	APPLE	Fruit	9	-1	[0, 0, 0]	n/a	catFR1	2	R1495J
102.227	0.721	183566	REC_WORD	0.721	n/a	PLUM	Fruit	6	-1	[0, 0, 0]	n/a	catFR1	2	R1495J
102.948	1.734	184287	REC_WORD	1.734	n/a	ELBOW	BodyParts	2	-1	[0, 0, 0]	n/a	catFR1	2	R1495J
104.682	1.476	186021	REC_WORD	1.476	n/a	SPARROW	Birds	3	-1	[0, 0, 0]	n/a	catFR1	2	R1495J
106.158	25.478	187496	REC_WORD	25.478	n/a	PIGEON	Birds	12	-1	[0, 0, 0]	n/a	catFR1	2	R1495J
131.636	9.829	212974	REC_END	n/a	n/a	n/a	n/a	-999	-1	[0, 0, 0]	n/a	catFR1	2	R1495J
141.465	10.349	222805	COUNTDOWN_START	n/a	n/a	n/a	n/a	-999	1	[0, 0, 0]	n/a	catFR1	2	R1495J
151.814	0.0	233145	COUNTDOWN_END	n/a	n/a	n/a	n/a	-999	1	[0, 0, 0]	n/a	catFR1	2	R1495J
151.814	2.367	233145	ENCODING_START	n/a	n/a	n/a	n/a	-999	1	[0, 0, 0]	n/a	catFR1	2	R1495J
154.181	1.6	235510	WORD	n/a	wordpools/wordpool_categorized_EN.txt	PIE	Desserts	1	1	[0, 0, 0]	n/a	catFR1	2	R1495J
155.781	0.917	237113	WORD_OFF	n/a	n/a	PIE	Desserts	1	1	[0, 0, 0]	n/a	catFR1	2	R1495J
156.698	1.617	238028	WORD	n/a	wordpools/wordpool_categorized_EN.txt	JELLO	Desserts	2	1	[0, 0, 0]	n/a	catFR1	2	R1495J
158.315	0.867	239644	WORD_OFF	n/a	n/a	JELLO	Desserts	2	1	[0, 0, 0]	n/a	catFR1	2	R1495J
159.182	1.616	240521	WORD	n/a	wordpools/wordpool_categorized_EN.txt	NYLON	Fabric	3	1	[0, 0, 0]	n/a	catFR1	2	R1495J
160.798	0.983	242136	WORD_OFF	n/a	n/a	NYLON	Fabric	3	1	[0, 0, 0]	n/a	catFR1	2	R1495J
161.781	1.617	243116	WORD	n/a	wordpools/wordpool_categorized_EN.txt	SILK	Fabric	4	1	[0, 0, 0]	n/a	catFR1	2	R1495J
163.398	0.884	244731	WORD_OFF	n/a	n/a	SILK	Fabric	4	1	[0, 0, 0]	n/a	catFR1	2	R1495J
164.282	1.616	245621	WORD	n/a	wordpools/wordpool_categorized_EN.txt	ANT	Insects	5	1	[0, 0, 0]	n/a	catFR1	2	R1495J
165.898	0.967	247236	WORD_OFF	n/a	n/a	ANT	Insects	5	1	[0, 0, 0]	n/a	catFR1	2	R1495J
166.865	1.6	248203	WORD	n/a	wordpools/wordpool_categorized_EN.txt	FLY	Insects	6	1	[0, 0, 0]	n/a	catFR1	2	R1495J
168.465	0.783	249793	WORD_OFF	n/a	n/a	FLY	Insects	6	1	[0, 0, 0]	n/a	catFR1	2	R1495J
169.248	1.617	250581	WORD	n/a	wordpools/wordpool_categorized_EN.txt	CAKE	Desserts	7	1	[0, 0, 0]	n/a	catFR1	2	R1495J
170.865	0.966	252196	WORD_OFF	n/a	n/a	CAKE	Desserts	7	1	[0, 0, 0]	n/a	catFR1	2	R1495J
171.831	1.6	253163	WORD	n/a	wordpools/wordpool_categorized_EN.txt	PASTRY	Desserts	8	1	[0, 0, 0]	n/a	catFR1	2	R1495J
173.431	0.85	254765	WORD_OFF	n/a	n/a	PASTRY	Desserts	8	1	[0, 0, 0]	n/a	catFR1	2	R1495J
174.281	1.617	255617	WORD	n/a	wordpools/wordpool_categorized_EN.txt	ROACH	Insects	9	1	[0, 0, 0]	n/a	catFR1	2	R1495J
175.898	0.932	257233	WORD_OFF	n/a	n/a	ROACH	Insects	9	1	[0, 0, 0]	n/a	catFR1	2	R1495J
176.83	1.602	258161	WORD	n/a	wordpools/wordpool_categorized_EN.txt	BEETLE	Insects	10	1	[0, 0, 0]	n/a	catFR1	2	R1495J
178.432	0.883	259763	WORD_OFF	n/a	n/a	BEETLE	Insects	10	1	[0, 0, 0]	n/a	catFR1	2	R1495J
179.315	1.6	260654	WORD	n/a	wordpools/wordpool_categorized_EN.txt	SPANDEX	Fabric	11	1	[0, 0, 0]	n/a	catFR1	2	R1495J
180.915	0.783	262243	WORD_OFF	n/a	n/a	SPANDEX	Fabric	11	1	[0, 0, 0]	n/a	catFR1	2	R1495J
181.698	1.6	263032	WORD	n/a	wordpools/wordpool_categorized_EN.txt	VELVET	Fabric	12	1	[0, 0, 0]	n/a	catFR1	2	R1495J
183.298	0.002	264634	WORD_OFF	n/a	n/a	VELVET	Fabric	12	1	[0, 0, 0]	n/a	catFR1	2	R1495J
183.3	0.0	264634	ENCODING_END	n/a	n/a	n/a	n/a	-999	1	[0, 0, 0]	n/a	catFR1	2	R1495J
183.3	0.0	264634	DISTRACT_START	n/a	n/a	n/a	n/a	-999	1	[0, 0, 0]	n/a	catFR1	2	R1495J
183.299	0.001	264634	PROB	0.001	n/a	n/a	n/a	-999	1	[5, 8, 1]	14	catFR1	2	R1495J
183.3	5.215	264635	START	n/a	n/a	n/a	n/a	-999	1	[-999, -999, -999]	n/a	catFR1	2	R1495J
188.515	3.199	269850	PROB	3.199	n/a	n/a	n/a	-999	1	[3, 1, 1]	5	catFR1	2	R1495J
191.714	3.367	273049	PROB	3.367	n/a	n/a	n/a	-999	1	[3, 6, 2]	11	catFR1	2	R1495J
195.081	5.45	276416	PROB	5.45	n/a	n/a	n/a	-999	1	[3, 5, 4]	12	catFR1	2	R1495J
200.531	3.285	281865	PROB	3.285	n/a	n/a	n/a	-999	1	[2, 6, 6]	14	catFR1	2	R1495J
203.816	0.0	285148	DISTRACT_END	n/a	n/a	n/a	n/a	-999	1	[0, 0, 0]	n/a	catFR1	2	R1495J
203.816	1.148	285150	STOP	n/a	n/a	n/a	n/a	-999	1	[-999, -999, -999]	n/a	catFR1	2	R1495J
204.964	0.672	286293	REC_START	n/a	n/a	n/a	n/a	-999	1	[0, 0, 0]	n/a	catFR1	2	R1495J
205.636	0.67	286970	REC_WORD	0.67	n/a	SPANDEX	Fabric	11	1	[0, 0, 0]	n/a	catFR1	2	R1495J
206.306	1.563	287640	REC_WORD	1.563	n/a	SPARROW	Birds	-999	1	[0, 0, 0]	n/a	catFR1	2	R1495J
207.869	1.093	289203	REC_WORD	1.093	n/a	NYLON	Fabric	3	1	[0, 0, 0]	n/a	catFR1	2	R1495J
208.962	4.149	290296	REC_WORD	4.149	n/a	VELVET	Fabric	12	1	[0, 0, 0]	n/a	catFR1	2	R1495J
213.111	2.42	294445	REC_WORD	2.42	n/a	ROACH	Insects	9	1	[0, 0, 0]	n/a	catFR1	2	R1495J
215.531	0.335	296865	REC_WORD	0.335	n/a	ANT	Insects	5	1	[0, 0, 0]	n/a	catFR1	2	R1495J
215.866	5.036	297200	REC_WORD	5.036	n/a	FLY	Insects	6	1	[0, 0, 0]	n/a	catFR1	2	R1495J
220.902	15.244	302236	REC_WORD	15.244	n/a	BEETLE	Insects	10	1	[0, 0, 0]	n/a	catFR1	2	R1495J
236.146	1.602	317477	REC_END	n/a	n/a	n/a	n/a	-999	1	[0, 0, 0]	n/a	catFR1	2	R1495J
237.748	10.35	319080	COUNTDOWN_START	n/a	n/a	n/a	n/a	-999	1	[0, 0, 0]	n/a	catFR1	2	R1495J
248.098	0.0	329432	COUNTDOWN_END	n/a	n/a	n/a	n/a	-999	1	[0, 0, 0]	n/a	catFR1	2	R1495J
248.098	2.167	329432	ENCODING_START	n/a	n/a	n/a	n/a	-999	2	[0, 0, 0]	n/a	catFR1	2	R1495J
250.265	1.6	331594	WORD	n/a	wordpools/wordpool_categorized_EN.txt	DRILL	Tools	1	2	[0, 0, 0]	n/a	catFR1	2	R1495J
251.865	0.817	333197	WORD_OFF	n/a	n/a	DRILL	Tools	1	2	[0, 0, 0]	n/a	catFR1	2	R1495J
252.682	1.616	334011	WORD	n/a	wordpools/wordpool_categorized_EN.txt	SHOVEL	Tools	2	2	[0, 0, 0]	n/a	catFR1	2	R1495J
254.298	0.933	335626	WORD_OFF	n/a	n/a	SHOVEL	Tools	2	2	[0, 0, 0]	n/a	catFR1	2	R1495J
255.231	1.6	336567	WORD	n/a	wordpools/wordpool_categorized_EN.txt	REFRIGERATOR	Appliances	3	2	[0, 0, 0]	n/a	catFR1	2	R1495J
256.831	0.933	338157	WORD_OFF	n/a	n/a	REFRIGERATOR	Appliances	3	2	[0, 0, 0]	n/a	catFR1	2	R1495J
257.764	1.601	339098	WORD	n/a	wordpools/wordpool_categorized_EN.txt	MIXER	Appliances	4	2	[0, 0, 0]	n/a	catFR1	2	R1495J
259.365	0.983	340700	WORD_OFF	n/a	n/a	MIXER	Appliances	4	2	[0, 0, 0]	n/a	catFR1	2	R1495J
260.348	1.616	341680	WORD	n/a	wordpools/wordpool_categorized_EN.txt	MONKEY	Zoo	5	2	[0, 0, 0]	n/a	catFR1	2	R1495J
261.964	0.801	343295	WORD_OFF	n/a	n/a	MONKEY	Zoo	5	2	[0, 0, 0]	n/a	catFR1	2	R1495J
262.765	1.6	344096	WORD	n/a	wordpools/wordpool_categorized_EN.txt	CHIMPANZEE	Zoo	6	2	[0, 0, 0]	n/a	catFR1	2	R1495J
264.365	0.965	345699	WORD_OFF	n/a	n/a	CHIMPANZEE	Zoo	6	2	[0, 0, 0]	n/a	catFR1	2	R1495J
265.33	1.602	346665	WORD	n/a	wordpools/wordpool_categorized_EN.txt	FREEZER	Appliances	7	2	[0, 0, 0]	n/a	catFR1	2	R1495J
266.932	0.816	348255	WORD_OFF	n/a	n/a	FREEZER	Appliances	7	2	[0, 0, 0]	n/a	catFR1	2	R1495J
267.748	1.616	349082	WORD	n/a	wordpools/wordpool_categorized_EN.txt	STOVE	Appliances	8	2	[0, 0, 0]	n/a	catFR1	2	R1495J
269.364	0.901	350697	WORD_OFF	n/a	n/a	STOVE	Appliances	8	2	[0, 0, 0]	n/a	catFR1	2	R1495J
270.265	1.616	351600	WORD	n/a	wordpools/wordpool_categorized_EN.txt	SCREWDRIVER	Tools	9	2	[0, 0, 0]	n/a	catFR1	2	R1495J
271.881	0.784	353215	WORD_OFF	n/a	n/a	SCREWDRIVER	Tools	9	2	[0, 0, 0]	n/a	catFR1	2	R1495J
272.665	1.616	353991	WORD	n/a	wordpools/wordpool_categorized_EN.txt	RATCHET	Tools	10	2	[0, 0, 0]	n/a	catFR1	2	R1495J
274.281	0.816	355606	WORD_OFF	n/a	n/a	RATCHET	Tools	10	2	[0, 0, 0]	n/a	catFR1	2	R1495J
275.097	1.601	356432	WORD	n/a	wordpools/wordpool_categorized_EN.txt	LION	Zoo	11	2	[0, 0, 0]	n/a	catFR1	2	R1495J
276.698	0.816	358022	WORD_OFF	n/a	n/a	LION	Zoo	11	2	[0, 0, 0]	n/a	catFR1	2	R1495J
277.514	1.601	358836	WORD	n/a	wordpools/wordpool_categorized_EN.txt	GORILLA	Zoo	12	2	[0, 0, 0]	n/a	catFR1	2	R1495J
279.115	0.0	360439	WORD_OFF	n/a	n/a	GORILLA	Zoo	12	2	[0, 0, 0]	n/a	catFR1	2	R1495J
279.115	0.001	360446	PROB	0.001	n/a	n/a	n/a	-999	2	[1, 2, 1]	4	catFR1	2	R1495J
279.116	0.0	360447	START	n/a	n/a	n/a	n/a	-999	2	[-999, -999, -999]	n/a	catFR1	2	R1495J
279.116	0.0	360451	ENCODING_END	n/a	n/a	n/a	n/a	-999	2	[0, 0, 0]	n/a	catFR1	2	R1495J
279.116	2.483	360451	DISTRACT_START	n/a	n/a	n/a	n/a	-999	2	[0, 0, 0]	n/a	catFR1	2	R1495J
281.599	2.682	362930	PROB	2.682	n/a	n/a	n/a	-999	2	[2, 6, 3]	11	catFR1	2	R1495J
284.281	3.267	365612	PROB	3.267	n/a	n/a	n/a	-999	2	[4, 1, 8]	13	catFR1	2	R1495J
287.548	3.3	368879	PROB	3.3	n/a	n/a	n/a	-999	2	[1, 7, 6]	14	catFR1	2	R1495J
290.848	2.883	372179	PROB	2.883	n/a	n/a	n/a	-999	2	[3, 7, 2]	12	catFR1	2	R1495J
293.731	3.701	375061	PROB	3.701	n/a	n/a	n/a	-999	2	[4, 8, 7]	19	catFR1	2	R1495J
297.432	3.315	378762	PROB	3.315	n/a	n/a	n/a	-999	2	[4, 7, 6]	17	catFR1	2	R1495J
300.747	0.0	382072	DISTRACT_END	n/a	n/a	n/a	n/a	-999	2	[0, 0, 0]	n/a	catFR1	2	R1495J
300.747	1.267	382077	STOP	n/a	n/a	n/a	n/a	-999	2	[-999, -999, -999]	n/a	catFR1	2	R1495J
302.014	1.59	383344	REC_START	n/a	n/a	n/a	n/a	-999	2	[0, 0, 0]	n/a	catFR1	2	R1495J
303.604	1.228	384934	REC_WORD	1.228	n/a	CHIMPANZEE	Zoo	6	2	[0, 0, 0]	n/a	catFR1	2	R1495J
304.832	0.933	386162	REC_WORD	0.933	n/a	SCREWDRIVER	Tools	9	2	[0, 0, 0]	n/a	catFR1	2	R1495J
305.765	1.518	387095	REC_WORD	1.518	n/a	SHOVEL	Tools	2	2	[0, 0, 0]	n/a	catFR1	2	R1495J
307.283	2.596	388613	REC_WORD	2.596	n/a	MIXER	Appliances	4	2	[0, 0, 0]	n/a	catFR1	2	R1495J
309.879	6.144	391209	REC_WORD	6.144	n/a	STOVE	Appliances	8	2	[0, 0, 0]	n/a	catFR1	2	R1495J
316.023	0.914	397353	REC_WORD	0.914	n/a	RATCHET	Tools	10	2	[0, 0, 0]	n/a	catFR1	2	R1495J
316.937	16.255	398266	REC_WORD	16.255	n/a	DRILL	Tools	1	2	[0, 0, 0]	n/a	catFR1	2	R1495J
333.192	1.922	414515	REC_END	n/a	n/a	n/a	n/a	-999	2	[0, 0, 0]	n/a	catFR1	2	R1495J
335.114	10.349	416448	COUNTDOWN_START	n/a	n/a	n/a	n/a	-999	2	[0, 0, 0]	n/a	catFR1	2	R1495J
345.463	0.0	426788	COUNTDOWN_END	n/a	n/a	n/a	n/a	-999	2	[0, 0, 0]	n/a	catFR1	2	R1495J
345.463	2.284	426788	ENCODING_START	n/a	n/a	n/a	n/a	-999	3	[0, 0, 0]	n/a	catFR1	2	R1495J
347.747	1.615	429077	WORD	n/a	wordpools/wordpool_categorized_EN.txt	CROW	Birds	1	3	[0, 0, 0]	n/a	catFR1	2	R1495J
349.362	0.884	430692	WORD_OFF	n/a	n/a	CROW	Birds	1	3	[0, 0, 0]	n/a	catFR1	2	R1495J
350.246	1.6	431570	WORD	n/a	wordpools/wordpool_categorized_EN.txt	SEAGULL	Birds	2	3	[0, 0, 0]	n/a	catFR1	2	R1495J
351.846	0.834	433172	WORD_OFF	n/a	n/a	SEAGULL	Birds	2	3	[0, 0, 0]	n/a	catFR1	2	R1495J
352.68	1.617	434012	WORD	n/a	wordpools/wordpool_categorized_EN.txt	PEN	OfficeSupplies	3	3	[0, 0, 0]	n/a	catFR1	2	R1495J
354.297	0.883	435627	WORD_OFF	n/a	n/a	PEN	OfficeSupplies	3	3	[0, 0, 0]	n/a	catFR1	2	R1495J
355.18	1.616	436505	WORD	n/a	wordpools/wordpool_categorized_EN.txt	GLUE	OfficeSupplies	4	3	[0, 0, 0]	n/a	catFR1	2	R1495J
356.796	0.834	438120	WORD_OFF	n/a	n/a	GLUE	OfficeSupplies	4	3	[0, 0, 0]	n/a	catFR1	2	R1495J
357.63	1.6	438959	WORD	n/a	wordpools/wordpool_categorized_EN.txt	PEAS	Vegetables	5	3	[0, 0, 0]	n/a	catFR1	2	R1495J
359.23	0.983	440562	WORD_OFF	n/a	n/a	PEAS	Vegetables	5	3	[0, 0, 0]	n/a	catFR1	2	R1495J
360.213	1.617	441541	WORD	n/a	wordpools/wordpool_categorized_EN.txt	SPINACH	Vegetables	6	3	[0, 0, 0]	n/a	catFR1	2	R1495J
361.83	0.8	443156	WORD_OFF	n/a	n/a	SPINACH	Vegetables	6	3	[0, 0, 0]	n/a	catFR1	2	R1495J
362.63	1.616	443957	WORD	n/a	wordpools/wordpool_categorized_EN.txt	BINDER	OfficeSupplies	7	3	[0, 0, 0]	n/a	catFR1	2	R1495J
364.246	0.967	445572	WORD_OFF	n/a	n/a	BINDER	OfficeSupplies	7	3	[0, 0, 0]	n/a	catFR1	2	R1495J
365.213	1.6	446539	WORD	n/a	wordpools/wordpool_categorized_EN.txt	NOTEBOOK	OfficeSupplies	8	3	[0, 0, 0]	n/a	catFR1	2	R1495J
366.813	0.834	448142	WORD_OFF	n/a	n/a	NOTEBOOK	OfficeSupplies	8	3	[0, 0, 0]	n/a	catFR1	2	R1495J
367.647	1.616	448968	WORD	n/a	wordpools/wordpool_categorized_EN.txt	CUCUMBER	Vegetables	9	3	[0, 0, 0]	n/a	catFR1	2	R1495J
369.263	0.85	450583	WORD_OFF	n/a	n/a	CUCUMBER	Vegetables	9	3	[0, 0, 0]	n/a	catFR1	2	R1495J
370.113	1.6	451435	WORD	n/a	wordpools/wordpool_categorized_EN.txt	CAULIFLOWER	Vegetables	10	3	[0, 0, 0]	n/a	catFR1	2	R1495J
371.713	0.85	453038	WORD_OFF	n/a	n/a	CAULIFLOWER	Vegetables	10	3	[0, 0, 0]	n/a	catFR1	2	R1495J
372.563	1.6	453890	WORD	n/a	wordpools/wordpool_categorized_EN.txt	FINCH	Birds	11	3	[0, 0, 0]	n/a	catFR1	2	R1495J
374.163	0.983	455492	WORD_OFF	n/a	n/a	FINCH	Birds	11	3	[0, 0, 0]	n/a	catFR1	2	R1495J
375.146	1.601	456472	WORD	n/a	wordpools/wordpool_categorized_EN.txt	DUCK	Birds	12	3	[0, 0, 0]	n/a	catFR1	2	R1495J
376.747	0.001	458074	WORD_OFF	n/a	n/a	DUCK	Birds	12	3	[0, 0, 0]	n/a	catFR1	2	R1495J
376.748	0.0	458074	ENCODING_END	n/a	n/a	n/a	n/a	-999	3	[0, 0, 0]	n/a	catFR1	2	R1495J
376.748	0.0	458074	DISTRACT_START	n/a	n/a	n/a	n/a	-999	3	[0, 0, 0]	n/a	catFR1	2	R1495J
376.747	0.001	458074	PROB	0.001	n/a	n/a	n/a	-999	3	[7, 4, 2]	13	catFR1	2	R1495J
376.748	5.465	458075	START	n/a	n/a	n/a	n/a	-999	3	[-999, -999, -999]	n/a	catFR1	2	R1495J
382.213	3.734	463540	PROB	3.734	n/a	n/a	n/a	-999	3	[1, 6, 7]	14	catFR1	2	R1495J
385.947	5.45	467274	PROB	5.45	n/a	n/a	n/a	-999	3	[7, 8, 6]	21	catFR1	2	R1495J
391.397	3.067	472723	PROB	3.067	n/a	n/a	n/a	-999	3	[3, 4, 1]	8	catFR1	2	R1495J
394.464	2.699	475790	PROB	2.699	n/a	n/a	n/a	-999	3	[1, 7, 7]	15	catFR1	2	R1495J
397.163	0.0	478487	DISTRACT_END	n/a	n/a	n/a	n/a	-999	3	[0, 0, 0]	n/a	catFR1	2	R1495J
397.163	1.25	478489	STOP	n/a	n/a	n/a	n/a	-999	3	[-999, -999, -999]	n/a	catFR1	2	R1495J
398.413	1.018	479733	REC_START	n/a	n/a	n/a	n/a	-999	3	[0, 0, 0]	n/a	catFR1	2	R1495J
399.431	2.424	480757	REC_WORD	2.424	n/a	SEAGULL	Birds	2	3	[0, 0, 0]	n/a	catFR1	2	R1495J
401.855	1.926	483181	REC_WORD	1.926	n/a	MONKEY	Zoo	-999	3	[0, 0, 0]	n/a	catFR1	2	R1495J
403.781	1.033	485107	REC_WORD	1.033	n/a	PEAS	Vegetables	5	3	[0, 0, 0]	n/a	catFR1	2	R1495J
404.814	1.93	486140	REC_WORD	1.93	n/a	SPINACH	Vegetables	6	3	[0, 0, 0]	n/a	catFR1	2	R1495J
406.744	0.822	488070	REC_WORD	0.822	n/a	MIXER	Appliances	-999	3	[0, 0, 0]	n/a	catFR1	2	R1495J
407.566	22.058	488892	REC_WORD	22.058	n/a	BLENDER	n/a	-999	3	[0, 0, 0]	n/a	catFR1	2	R1495J
429.624	1.423	510943	REC_END	n/a	n/a	n/a	n/a	-999	3	[0, 0, 0]	n/a	catFR1	2	R1495J
431.047	10.349	512367	COUNTDOWN_START	n/a	n/a	n/a	n/a	-999	3	[0, 0, 0]	n/a	catFR1	2	R1495J
441.396	0.0	522720	COUNTDOWN_END	n/a	n/a	n/a	n/a	-999	3	[0, 0, 0]	n/a	catFR1	2	R1495J
441.396	1.9	522720	ENCODING_START	n/a	n/a	n/a	n/a	-999	4	[0, 0, 0]	n/a	catFR1	2	R1495J
443.296	1.6	524614	WORD	n/a	wordpools/wordpool_categorized_EN.txt	ERASER	OfficeSupplies	1	4	[0, 0, 0]	n/a	catFR1	2	R1495J
444.896	0.784	526217	WORD_OFF	n/a	n/a	ERASER	OfficeSupplies	1	4	[0, 0, 0]	n/a	catFR1	2	R1495J
445.68	1.6	527005	WORD	n/a	wordpools/wordpool_categorized_EN.txt	PAPER	OfficeSupplies	2	4	[0, 0, 0]	n/a	catFR1	2	R1495J
447.28	0.983	528608	WORD_OFF	n/a	n/a	PAPER	OfficeSupplies	2	4	[0, 0, 0]	n/a	catFR1	2	R1495J
448.263	1.617	529587	WORD	n/a	wordpools/wordpool_categorized_EN.txt	ELM	Trees	3	4	[0, 0, 0]	n/a	catFR1	2	R1495J
449.88	0.95	531202	WORD_OFF	n/a	n/a	ELM	Trees	3	4	[0, 0, 0]	n/a	catFR1	2	R1495J
450.83	1.616	532156	WORD	n/a	wordpools/wordpool_categorized_EN.txt	BIRCH	Trees	4	4	[0, 0, 0]	n/a	catFR1	2	R1495J
452.446	0.833	533771	WORD_OFF	n/a	n/a	BIRCH	Trees	4	4	[0, 0, 0]	n/a	catFR1	2	R1495J
453.279	1.601	534598	WORD	n/a	wordpools/wordpool_categorized_EN.txt	FOREST	Landscapes	5	4	[0, 0, 0]	n/a	catFR1	2	R1495J
454.88	0.933	536201	WORD_OFF	n/a	n/a	FOREST	Landscapes	5	4	[0, 0, 0]	n/a	catFR1	2	R1495J
455.813	1.617	537129	WORD	n/a	wordpools/wordpool_categorized_EN.txt	OCEAN	Landscapes	6	4	[0, 0, 0]	n/a	catFR1	2	R1495J
457.43	0.766	538757	WORD_OFF	n/a	n/a	OCEAN	Landscapes	6	4	[0, 0, 0]	n/a	catFR1	2	R1495J
458.196	1.601	539520	WORD	n/a	wordpools/wordpool_categorized_EN.txt	FOLDER	OfficeSupplies	7	4	[0, 0, 0]	n/a	catFR1	2	R1495J
459.797	0.816	541122	WORD_OFF	n/a	n/a	FOLDER	OfficeSupplies	7	4	[0, 0, 0]	n/a	catFR1	2	R1495J
460.613	1.6	541936	WORD	n/a	wordpools/wordpool_categorized_EN.txt	RULER	OfficeSupplies	8	4	[0, 0, 0]	n/a	catFR1	2	R1495J
462.213	0.885	543539	WORD_OFF	n/a	n/a	RULER	OfficeSupplies	8	4	[0, 0, 0]	n/a	catFR1	2	R1495J
463.098	1.615	544416	WORD	n/a	wordpools/wordpool_categorized_EN.txt	CYPRESS	Trees	9	4	[0, 0, 0]	n/a	catFR1	2	R1495J
464.713	0.817	546031	WORD_OFF	n/a	n/a	CYPRESS	Trees	9	4	[0, 0, 0]	n/a	catFR1	2	R1495J
465.53	1.616	546845	WORD	n/a	wordpools/wordpool_categorized_EN.txt	CEDAR	Trees	10	4	[0, 0, 0]	n/a	catFR1	2	R1495J
467.146	0.834	548473	WORD_OFF	n/a	n/a	CEDAR	Trees	10	4	[0, 0, 0]	n/a	catFR1	2	R1495J
467.98	1.601	549300	WORD	n/a	wordpools/wordpool_categorized_EN.txt	CREEK	Landscapes	11	4	[0, 0, 0]	n/a	catFR1	2	R1495J
469.581	0.831	550902	WORD_OFF	n/a	n/a	CREEK	Landscapes	11	4	[0, 0, 0]	n/a	catFR1	2	R1495J
470.412	1.601	551729	WORD	n/a	wordpools/wordpool_categorized_EN.txt	WOODS	Landscapes	12	4	[0, 0, 0]	n/a	catFR1	2	R1495J
472.013	0.001	553332	WORD_OFF	n/a	n/a	WOODS	Landscapes	12	4	[0, 0, 0]	n/a	catFR1	2	R1495J
472.014	0.0	553332	ENCODING_END	n/a	n/a	n/a	n/a	-999	4	[0, 0, 0]	n/a	catFR1	2	R1495J
472.014	0.0	553332	DISTRACT_START	n/a	n/a	n/a	n/a	-999	4	[0, 0, 0]	n/a	catFR1	2	R1495J
472.014	0.0	553337	START	n/a	n/a	n/a	n/a	-999	4	[-999, -999, -999]	n/a	catFR1	2	R1495J
472.014	4.033	553337	PROB	4.033	n/a	n/a	n/a	-999	4	[2, 5, 6]	13	catFR1	2	R1495J
476.047	2.549	557370	PROB	2.549	n/a	n/a	n/a	-999	4	[4, 2, 3]	9	catFR1	2	R1495J
478.596	4.167	559919	PROB	4.167	n/a	n/a	n/a	-999	4	[8, 4, 3]	15	catFR1	2	R1495J
482.763	1.984	564085	PROB	1.984	n/a	n/a	n/a	-999	4	[4, 2, 2]	8	catFR1	2	R1495J
484.747	2.7	566069	PROB	2.7	n/a	n/a	n/a	-999	4	[5, 5, 7]	17	catFR1	2	R1495J
487.447	2.649	568769	PROB	2.649	n/a	n/a	n/a	-999	4	[4, 4, 2]	10	catFR1	2	R1495J
490.096	3.467	571418	PROB	3.467	n/a	n/a	n/a	-999	4	[1, 2, 7]	10	catFR1	2	R1495J
493.563	0.0	574885	STOP	n/a	n/a	n/a	n/a	-999	4	[-999, -999, -999]	n/a	catFR1	2	R1495J
493.563	1.15	574888	DISTRACT_END	n/a	n/a	n/a	n/a	-999	4	[0, 0, 0]	n/a	catFR1	2	R1495J
494.713	0.581	576033	REC_START	n/a	n/a	n/a	n/a	-999	4	[0, 0, 0]	n/a	catFR1	2	R1495J
495.294	0.562	576616	REC_WORD	0.562	n/a	WOODS	Landscapes	12	4	[0, 0, 0]	n/a	catFR1	2	R1495J
495.856	10.403	577178	REC_WORD	10.403	n/a	CREEK	Landscapes	11	4	[0, 0, 0]	n/a	catFR1	2	R1495J
506.259	19.677	587580	REC_WORD	19.677	n/a	BENCH	n/a	-999	4	[0, 0, 0]	n/a	catFR1	2	R1495J
525.936	1.812	607256	REC_END	n/a	n/a	n/a	n/a	-999	4	[0, 0, 0]	n/a	catFR1	2	R1495J
527.748	10.349	609074	COUNTDOWN_START	n/a	n/a	n/a	n/a	-999	4	[0, 0, 0]	n/a	catFR1	2	R1495J
538.097	0.0	619414	COUNTDOWN_END	n/a	n/a	n/a	n/a	-999	4	[0, 0, 0]	n/a	catFR1	2	R1495J
538.097	2.268	619414	ENCODING_START	n/a	n/a	n/a	n/a	-999	5	[0, 0, 0]	n/a	catFR1	2	R1495J
540.365	1.616	621678	WORD	n/a	wordpools/wordpool_categorized_EN.txt	LOBSTER	OceanAnimals	1	5	[0, 0, 0]	n/a	catFR1	2	R1495J
541.981	0.767	623293	WORD_OFF	n/a	n/a	LOBSTER	OceanAnimals	1	5	[0, 0, 0]	n/a	catFR1	2	R1495J
542.748	1.6	624069	WORD	n/a	wordpools/wordpool_categorized_EN.txt	SQUID	OceanAnimals	2	5	[0, 0, 0]	n/a	catFR1	2	R1495J
544.348	0.866	625671	WORD_OFF	n/a	n/a	SQUID	OceanAnimals	2	5	[0, 0, 0]	n/a	catFR1	2	R1495J
545.214	1.601	626536	WORD	n/a	wordpools/wordpool_categorized_EN.txt	STRAINER	KitchenTools	3	5	[0, 0, 0]	n/a	catFR1	2	R1495J
546.815	0.85	628138	WORD_OFF	n/a	n/a	STRAINER	KitchenTools	3	5	[0, 0, 0]	n/a	catFR1	2	R1495J
547.665	1.617	628978	WORD	n/a	wordpools/wordpool_categorized_EN.txt	SPOON	KitchenTools	4	5	[0, 0, 0]	n/a	catFR1	2	R1495J
549.282	0.916	630593	WORD_OFF	n/a	n/a	SPOON	KitchenTools	4	5	[0, 0, 0]	n/a	catFR1	2	R1495J
550.198	1.617	631521	WORD	n/a	wordpools/wordpool_categorized_EN.txt	TEA	Beverages	5	5	[0, 0, 0]	n/a	catFR1	2	R1495J
551.815	0.95	633137	WORD_OFF	n/a	n/a	TEA	Beverages	5	5	[0, 0, 0]	n/a	catFR1	2	R1495J
552.765	1.617	634078	WORD	n/a	wordpools/wordpool_categorized_EN.txt	COFFEE	Beverages	6	5	[0, 0, 0]	n/a	catFR1	2	R1495J
554.382	0.816	635693	WORD_OFF	n/a	n/a	COFFEE	Beverages	6	5	[0, 0, 0]	n/a	catFR1	2	R1495J
555.198	1.617	636520	WORD	n/a	wordpools/wordpool_categorized_EN.txt	WHISK	KitchenTools	7	5	[0, 0, 0]	n/a	catFR1	2	R1495J
556.815	0.85	638135	WORD_OFF	n/a	n/a	WHISK	KitchenTools	7	5	[0, 0, 0]	n/a	catFR1	2	R1495J
557.665	1.617	638987	WORD	n/a	wordpools/wordpool_categorized_EN.txt	SPATULA	KitchenTools	8	5	[0, 0, 0]	n/a	catFR1	2	R1495J
559.282	0.899	640602	WORD_OFF	n/a	n/a	SPATULA	KitchenTools	8	5	[0, 0, 0]	n/a	catFR1	2	R1495J
560.181	1.617	641492	WORD	n/a	wordpools/wordpool_categorized_EN.txt	OCTOPUS	OceanAnimals	9	5	[0, 0, 0]	n/a	catFR1	2	R1495J
561.798	0.965	643120	WORD_OFF	n/a	n/a	OCTOPUS	OceanAnimals	9	5	[0, 0, 0]	n/a	catFR1	2	R1495J
562.763	1.602	644074	WORD	n/a	wordpools/wordpool_categorized_EN.txt	JELLYFISH	OceanAnimals	10	5	[0, 0, 0]	n/a	catFR1	2	R1495J
564.365	0.798	645677	WORD_OFF	n/a	n/a	JELLYFISH	OceanAnimals	10	5	[0, 0, 0]	n/a	catFR1	2	R1495J
565.163	1.602	646478	WORD	n/a	wordpools/wordpool_categorized_EN.txt	COLA	Beverages	11	5	[0, 0, 0]	n/a	catFR1	2	R1495J
566.765	0.998	648080	WORD_OFF	n/a	n/a	COLA	Beverages	11	5	[0, 0, 0]	n/a	catFR1	2	R1495J
567.763	1.619	649085	WORD	n/a	wordpools/wordpool_categorized_EN.txt	MILK	Beverages	12	5	[0, 0, 0]	n/a	catFR1	2	R1495J
569.382	0.001	650700	WORD_OFF	n/a	n/a	MILK	Beverages	12	5	[0, 0, 0]	n/a	catFR1	2	R1495J
569.383	0.0	650700	ENCODING_END	n/a	n/a	n/a	n/a	-999	5	[0, 0, 0]	n/a	catFR1	2	R1495J
569.383	0.0	650700	DISTRACT_START	n/a	n/a	n/a	n/a	-999	5	[0, 0, 0]	n/a	catFR1	2	R1495J
569.382	0.001	650701	PROB	0.001	n/a	n/a	n/a	-999	5	[2, 7, 5]	14	catFR1	2	R1495J
569.383	5.382	650702	START	n/a	n/a	n/a	n/a	-999	5	[-999, -999, -999]	n/a	catFR1	2	R1495J
574.765	2.233	656083	PROB	2.233	n/a	n/a	n/a	-999	5	[4, 2, 2]	8	catFR1	2	R1495J
576.998	3.633	658316	PROB	3.633	n/a	n/a	n/a	-999	5	[7, 8, 5]	20	catFR1	2	R1495J
580.631	1.851	661949	PROB	1.851	n/a	n/a	n/a	-999	5	[4, 4, 1]	9	catFR1	2	R1495J
582.482	4.067	663800	PROB	4.067	n/a	n/a	n/a	-999	5	[6, 5, 3]	14	catFR1	2	R1495J
586.549	3.832	667867	PROB	3.832	n/a	n/a	n/a	-999	5	[6, 8, 5]	19	catFR1	2	R1495J
590.381	0.0	671697	DISTRACT_END	n/a	n/a	n/a	n/a	-999	5	[0, 0, 0]	n/a	catFR1	2	R1495J
590.381	1.284	671699	STOP	n/a	n/a	n/a	n/a	-999	5	[-999, -999, -999]	n/a	catFR1	2	R1495J
591.665	0.732	672982	REC_START	n/a	n/a	n/a	n/a	-999	5	[0, 0, 0]	n/a	catFR1	2	R1495J
592.397	0.477	673715	REC_WORD	0.477	n/a	COLA	Beverages	11	5	[0, 0, 0]	n/a	catFR1	2	R1495J
592.874	1.518	674192	REC_WORD	1.518	n/a	MILK	Beverages	12	5	[0, 0, 0]	n/a	catFR1	2	R1495J
594.392	1.857	675710	REC_WORD	1.857	n/a	PEAS	Vegetables	-999	5	[0, 0, 0]	n/a	catFR1	2	R1495J
596.249	1.883	677567	REC_WORD	1.883	n/a	SQUID	OceanAnimals	2	5	[0, 0, 0]	n/a	catFR1	2	R1495J
598.132	1.69	679449	REC_WORD	1.69	n/a	OCTOPUS	OceanAnimals	9	5	[0, 0, 0]	n/a	catFR1	2	R1495J
599.822	23.086	681139	REC_WORD	23.086	n/a	JELLYFISH	OceanAnimals	10	5	[0, 0, 0]	n/a	catFR1	2	R1495J
622.908	1.606	704217	REC_END	n/a	n/a	n/a	n/a	-999	5	[0, 0, 0]	n/a	catFR1	2	R1495J
624.514	10.35	705832	COUNTDOWN_START	n/a	n/a	n/a	n/a	-999	5	[0, 0, 0]	n/a	catFR1	2	R1495J
634.864	0.0	716172	COUNTDOWN_END	n/a	n/a	n/a	n/a	-999	5	[0, 0, 0]	n/a	catFR1	2	R1495J
634.864	1.966	716185	ENCODING_START	n/a	n/a	n/a	n/a	-999	6	[0, 0, 0]	n/a	catFR1	2	R1495J
636.83	1.6	718143	WORD	n/a	wordpools/wordpool_categorized_EN.txt	VIOLIN	Instruments	1	6	[0, 0, 0]	n/a	catFR1	2	R1495J
638.43	0.866	719746	WORD_OFF	n/a	n/a	VIOLIN	Instruments	1	6	[0, 0, 0]	n/a	catFR1	2	R1495J
639.296	1.601	720611	WORD	n/a	wordpools/wordpool_categorized_EN.txt	DRUM	Instruments	2	6	[0, 0, 0]	n/a	catFR1	2	R1495J
640.897	0.915	722213	WORD_OFF	n/a	n/a	DRUM	Instruments	2	6	[0, 0, 0]	n/a	catFR1	2	R1495J
641.812	1.618	723129	WORD	n/a	wordpools/wordpool_categorized_EN.txt	ROBIN	Birds	3	6	[0, 0, 0]	n/a	catFR1	2	R1495J
643.43	0.967	724744	WORD_OFF	n/a	n/a	ROBIN	Birds	3	6	[0, 0, 0]	n/a	catFR1	2	R1495J
644.397	1.601	725710	WORD	n/a	wordpools/wordpool_categorized_EN.txt	HAWK	Birds	4	6	[0, 0, 0]	n/a	catFR1	2	R1495J
645.998	0.949	727313	WORD_OFF	n/a	n/a	HAWK	Birds	4	6	[0, 0, 0]	n/a	catFR1	2	R1495J
646.947	1.617	728254	WORD	n/a	wordpools/wordpool_categorized_EN.txt	PEELER	KitchenTools	5	6	[0, 0, 0]	n/a	catFR1	2	R1495J
648.564	0.865	729882	WORD_OFF	n/a	n/a	PEELER	KitchenTools	5	6	[0, 0, 0]	n/a	catFR1	2	R1495J
649.429	1.601	730747	WORD	n/a	wordpools/wordpool_categorized_EN.txt	GRATER	KitchenTools	6	6	[0, 0, 0]	n/a	catFR1	2	R1495J
651.03	0.9	732349	WORD_OFF	n/a	n/a	GRATER	KitchenTools	6	6	[0, 0, 0]	n/a	catFR1	2	R1495J
651.93	1.618	733240	WORD	n/a	wordpools/wordpool_categorized_EN.txt	PIANO	Instruments	7	6	[0, 0, 0]	n/a	catFR1	2	R1495J
653.548	0.882	734867	WORD_OFF	n/a	n/a	PIANO	Instruments	7	6	[0, 0, 0]	n/a	catFR1	2	R1495J
654.43	1.601	735745	WORD	n/a	wordpools/wordpool_categorized_EN.txt	ORGAN	Instruments	8	6	[0, 0, 0]	n/a	catFR1	2	R1495J
656.031	0.932	737347	WORD_OFF	n/a	n/a	ORGAN	Instruments	8	6	[0, 0, 0]	n/a	catFR1	2	R1495J
656.963	1.601	738276	WORD	n/a	wordpools/wordpool_categorized_EN.txt	COLANDER	KitchenTools	9	6	[0, 0, 0]	n/a	catFR1	2	R1495J
658.564	0.832	739878	WORD_OFF	n/a	n/a	COLANDER	KitchenTools	9	6	[0, 0, 0]	n/a	catFR1	2	R1495J
659.396	1.617	740705	WORD	n/a	wordpools/wordpool_categorized_EN.txt	LADLE	KitchenTools	10	6	[0, 0, 0]	n/a	catFR1	2	R1495J
661.013	0.817	742320	WORD_OFF	n/a	n/a	LADLE	KitchenTools	10	6	[0, 0, 0]	n/a	catFR1	2	R1495J
661.83	1.616	743147	WORD	n/a	wordpools/wordpool_categorized_EN.txt	GOOSE	Birds	11	6	[0, 0, 0]	n/a	catFR1	2	R1495J
663.446	0.967	744762	WORD_OFF	n/a	n/a	GOOSE	Birds	11	6	[0, 0, 0]	n/a	catFR1	2	R1495J
664.413	1.617	745729	WORD	n/a	wordpools/wordpool_categorized_EN.txt	BLUEBIRD	Birds	12	6	[0, 0, 0]	n/a	catFR1	2	R1495J
666.03	0.0	747344	WORD_OFF	n/a	n/a	BLUEBIRD	Birds	12	6	[0, 0, 0]	n/a	catFR1	2	R1495J
666.03	0.0	747344	ENCODING_END	n/a	n/a	n/a	n/a	-999	6	[0, 0, 0]	n/a	catFR1	2	R1495J
666.03	0.0	747344	DISTRACT_START	n/a	n/a	n/a	n/a	-999	6	[0, 0, 0]	n/a	catFR1	2	R1495J
666.03	0.0	747345	START	n/a	n/a	n/a	n/a	-999	6	[-999, -999, -999]	n/a	catFR1	2	R1495J
666.03	2.566	747345	PROB	2.566	n/a	n/a	n/a	-999	6	[2, 8, 1]	11	catFR1	2	R1495J
668.596	2.818	749910	PROB	2.818	n/a	n/a	n/a	-999	6	[5, 2, 4]	11	catFR1	2	R1495J
671.414	2.815	752728	PROB	2.815	n/a	n/a	n/a	-999	6	[4, 1, 5]	10	catFR1	2	R1495J
674.229	2.851	755543	PROB	2.851	n/a	n/a	n/a	-999	6	[2, 6, 6]	14	catFR1	2	R1495J
677.08	2.783	758394	PROB	2.783	n/a	n/a	n/a	-999	6	[7, 5, 5]	17	catFR1	2	R1495J
679.863	5.233	761177	PROB	5.233	n/a	n/a	n/a	-999	6	[1, 4, 8]	13	catFR1	2	R1495J
685.096	3.383	766410	PROB	3.383	n/a	n/a	n/a	-999	6	[7, 8, 3]	18	catFR1	2	R1495J
688.479	0.0	769791	DISTRACT_END	n/a	n/a	n/a	n/a	-999	6	[0, 0, 0]	n/a	catFR1	2	R1495J
688.479	1.084	769793	STOP	n/a	n/a	n/a	n/a	-999	6	[-999, -999, -999]	n/a	catFR1	2	R1495J
689.563	1.209	770872	REC_START	n/a	n/a	n/a	n/a	-999	6	[0, 0, 0]	n/a	catFR1	2	R1495J
690.772	0.617	772086	REC_WORD	0.617	n/a	VIOLIN	Instruments	1	6	[0, 0, 0]	n/a	catFR1	2	R1495J
691.389	2.841	772703	REC_WORD	2.841	n/a	DRUM	Instruments	2	6	[0, 0, 0]	n/a	catFR1	2	R1495J
694.23	13.761	775543	REC_WORD	13.761	n/a	LADLE	KitchenTools	10	6	[0, 0, 0]	n/a	catFR1	2	R1495J
707.991	12.789	789304	REC_WORD	12.789	n/a	GUITAR	n/a	-999	6	[0, 0, 0]	n/a	catFR1	2	R1495J
720.78	1.367	802094	REC_END	n/a	n/a	n/a	n/a	-999	6	[0, 0, 0]	n/a	catFR1	2	R1495J
722.147	10.351	803455	COUNTDOWN_START	n/a	n/a	n/a	n/a	-999	6	[0, 0, 0]	n/a	catFR1	2	R1495J
732.498	0.0	813808	COUNTDOWN_END	n/a	n/a	n/a	n/a	-999	6	[0, 0, 0]	n/a	catFR1	2	R1495J
732.498	1.917	813808	ENCODING_START	n/a	n/a	n/a	n/a	-999	7	[0, 0, 0]	n/a	catFR1	2	R1495J
734.415	1.6	815728	WORD	n/a	wordpools/wordpool_categorized_EN.txt	WATER	Beverages	1	7	[0, 0, 0]	n/a	catFR1	2	R1495J
736.015	0.949	817331	WORD_OFF	n/a	n/a	WATER	Beverages	1	7	[0, 0, 0]	n/a	catFR1	2	R1495J
736.964	1.617	818272	WORD	n/a	wordpools/wordpool_categorized_EN.txt	JUICE	Beverages	2	7	[0, 0, 0]	n/a	catFR1	2	R1495J
738.581	0.767	819887	WORD_OFF	n/a	n/a	JUICE	Beverages	2	7	[0, 0, 0]	n/a	catFR1	2	R1495J
739.348	1.6	820663	WORD	n/a	wordpools/wordpool_categorized_EN.txt	VAN	Vehicles	3	7	[0, 0, 0]	n/a	catFR1	2	R1495J
740.948	0.833	822252	WORD_OFF	n/a	n/a	VAN	Vehicles	3	7	[0, 0, 0]	n/a	catFR1	2	R1495J
741.781	1.616	823092	WORD	n/a	wordpools/wordpool_categorized_EN.txt	BIKE	Vehicles	4	7	[0, 0, 0]	n/a	catFR1	2	R1495J
743.397	0.801	824707	WORD_OFF	n/a	n/a	BIKE	Vehicles	4	7	[0, 0, 0]	n/a	catFR1	2	R1495J
744.198	1.617	825508	WORD	n/a	wordpools/wordpool_categorized_EN.txt	VIOLET	Flowers	5	7	[0, 0, 0]	n/a	catFR1	2	R1495J
745.815	0.9	827123	WORD_OFF	n/a	n/a	VIOLET	Flowers	5	7	[0, 0, 0]	n/a	catFR1	2	R1495J
746.715	1.6	828026	WORD	n/a	wordpools/wordpool_categorized_EN.txt	SUNFLOWER	Flowers	6	7	[0, 0, 0]	n/a	catFR1	2	R1495J
748.315	0.801	829629	WORD_OFF	n/a	n/a	SUNFLOWER	Flowers	6	7	[0, 0, 0]	n/a	catFR1	2	R1495J
749.116	1.615	830430	WORD	n/a	wordpools/wordpool_categorized_EN.txt	CAR	Vehicles	7	7	[0, 0, 0]	n/a	catFR1	2	R1495J
750.731	0.884	832045	WORD_OFF	n/a	n/a	CAR	Vehicles	7	7	[0, 0, 0]	n/a	catFR1	2	R1495J
751.615	1.615	832923	WORD	n/a	wordpools/wordpool_categorized_EN.txt	JEEP	Vehicles	8	7	[0, 0, 0]	n/a	catFR1	2	R1495J
753.23	0.885	834538	WORD_OFF	n/a	n/a	JEEP	Vehicles	8	7	[0, 0, 0]	n/a	catFR1	2	R1495J
754.115	1.616	835428	WORD	n/a	wordpools/wordpool_categorized_EN.txt	BEER	Beverages	9	7	[0, 0, 0]	n/a	catFR1	2	R1495J
755.731	0.866	837043	WORD_OFF	n/a	n/a	BEER	Beverages	9	7	[0, 0, 0]	n/a	catFR1	2	R1495J
756.597	1.618	837908	WORD	n/a	wordpools/wordpool_categorized_EN.txt	SODA	Beverages	10	7	[0, 0, 0]	n/a	catFR1	2	R1495J
758.215	0.899	839523	WORD_OFF	n/a	n/a	SODA	Beverages	10	7	[0, 0, 0]	n/a	catFR1	2	R1495J
759.114	1.601	840426	WORD	n/a	wordpools/wordpool_categorized_EN.txt	PETUNIA	Flowers	11	7	[0, 0, 0]	n/a	catFR1	2	R1495J
760.715	0.816	842029	WORD_OFF	n/a	n/a	PETUNIA	Flowers	11	7	[0, 0, 0]	n/a	catFR1	2	R1495J
761.531	1.601	842843	WORD	n/a	wordpools/wordpool_categorized_EN.txt	LILAC	Flowers	12	7	[0, 0, 0]	n/a	catFR1	2	R1495J
763.132	0.001	844442	PROB	0.001	n/a	n/a	n/a	-999	7	[3, 8, 7]	18	catFR1	2	R1495J
763.133	0.0	844443	START	n/a	n/a	n/a	n/a	-999	7	[-999, -999, -999]	n/a	catFR1	2	R1495J
763.132	0.001	844445	WORD_OFF	n/a	n/a	LILAC	Flowers	12	7	[0, 0, 0]	n/a	catFR1	2	R1495J
763.133	0.0	844445	ENCODING_END	n/a	n/a	n/a	n/a	-999	7	[0, 0, 0]	n/a	catFR1	2	R1495J
763.133	3.465	844445	DISTRACT_START	n/a	n/a	n/a	n/a	-999	7	[0, 0, 0]	n/a	catFR1	2	R1495J
766.598	3.649	847908	PROB	3.649	n/a	n/a	n/a	-999	7	[7, 4, 1]	12	catFR1	2	R1495J
770.247	3.735	851557	PROB	3.735	n/a	n/a	n/a	-999	7	[4, 7, 1]	12	catFR1	2	R1495J
773.982	3.433	855292	PROB	3.433	n/a	n/a	n/a	-999	7	[2, 4, 7]	13	catFR1	2	R1495J
777.415	3.483	858725	PROB	3.483	n/a	n/a	n/a	-999	7	[2, 7, 8]	17	catFR1	2	R1495J
780.898	3.281	862208	PROB	3.281	n/a	n/a	n/a	-999	7	[8, 8, 3]	19	catFR1	2	R1495J
784.179	0.0	865489	STOP	n/a	n/a	n/a	n/a	-999	7	[-999, -999, -999]	n/a	catFR1	2	R1495J
784.179	1.052	865493	DISTRACT_END	n/a	n/a	n/a	n/a	-999	7	[0, 0, 0]	n/a	catFR1	2	R1495J
785.231	1.871	866536	REC_START	n/a	n/a	n/a	n/a	-999	7	[0, 0, 0]	n/a	catFR1	2	R1495J
787.102	1.586	868411	REC_WORD	1.586	n/a	LILAC	Flowers	12	7	[0, 0, 0]	n/a	catFR1	2	R1495J
788.688	0.534	869997	REC_WORD	0.534	n/a	CAR	Vehicles	7	7	[0, 0, 0]	n/a	catFR1	2	R1495J
789.222	0.904	870531	REC_WORD	0.904	n/a	VAN	Vehicles	3	7	[0, 0, 0]	n/a	catFR1	2	R1495J
790.126	0.943	871435	REC_WORD	0.943	n/a	BIKE	Vehicles	4	7	[0, 0, 0]	n/a	catFR1	2	R1495J
791.069	4.693	872378	REC_WORD	4.693	n/a	BEER	Beverages	9	7	[0, 0, 0]	n/a	catFR1	2	R1495J
795.762	20.676	877071	REC_WORD	20.676	n/a	SODA	Beverages	10	7	[0, 0, 0]	n/a	catFR1	2	R1495J
816.438	1.409	897746	REC_END	n/a	n/a	n/a	n/a	-999	7	[0, 0, 0]	n/a	catFR1	2	R1495J
817.847	10.349	899158	COUNTDOWN_START	n/a	n/a	n/a	n/a	-999	7	[0, 0, 0]	n/a	catFR1	2	R1495J
828.196	0.0	909497	COUNTDOWN_END	n/a	n/a	n/a	n/a	-999	7	[0, 0, 0]	n/a	catFR1	2	R1495J
828.196	2.066	909497	ENCODING_START	n/a	n/a	n/a	n/a	-999	8	[0, 0, 0]	n/a	catFR1	2	R1495J
830.262	1.601	911570	WORD	n/a	wordpools/wordpool_categorized_EN.txt	COMPUTER	Electronics	1	8	[0, 0, 0]	n/a	catFR1	2	R1495J
831.863	0.834	913173	WORD_OFF	n/a	n/a	COMPUTER	Electronics	1	8	[0, 0, 0]	n/a	catFR1	2	R1495J
832.697	1.617	914000	WORD	n/a	wordpools/wordpool_categorized_EN.txt	PHONE	Electronics	2	8	[0, 0, 0]	n/a	catFR1	2	R1495J
834.314	0.849	915615	WORD_OFF	n/a	n/a	PHONE	Electronics	2	8	[0, 0, 0]	n/a	catFR1	2	R1495J
835.163	1.616	916467	WORD	n/a	wordpools/wordpool_categorized_EN.txt	FISH	OceanAnimals	3	8	[0, 0, 0]	n/a	catFR1	2	R1495J
836.779	0.967	918082	WORD_OFF	n/a	n/a	FISH	OceanAnimals	3	8	[0, 0, 0]	n/a	catFR1	2	R1495J
837.746	1.601	919049	WORD	n/a	wordpools/wordpool_categorized_EN.txt	OYSTER	OceanAnimals	4	8	[0, 0, 0]	n/a	catFR1	2	R1495J
839.347	0.998	920651	WORD_OFF	n/a	n/a	OYSTER	OceanAnimals	4	8	[0, 0, 0]	n/a	catFR1	2	R1495J
840.345	1.6	921656	WORD	n/a	wordpools/wordpool_categorized_EN.txt	WINE	Beverages	5	8	[0, 0, 0]	n/a	catFR1	2	R1495J
841.945	0.818	923246	WORD_OFF	n/a	n/a	WINE	Beverages	5	8	[0, 0, 0]	n/a	catFR1	2	R1495J
842.763	1.617	924072	WORD	n/a	wordpools/wordpool_categorized_EN.txt	RUM	Beverages	6	8	[0, 0, 0]	n/a	catFR1	2	R1495J
844.38	0.882	925687	WORD_OFF	n/a	n/a	RUM	Beverages	6	8	[0, 0, 0]	n/a	catFR1	2	R1495J
845.262	1.602	926565	WORD	n/a	wordpools/wordpool_categorized_EN.txt	CRAB	OceanAnimals	7	8	[0, 0, 0]	n/a	catFR1	2	R1495J
846.864	0.8	928167	WORD_OFF	n/a	n/a	CRAB	OceanAnimals	7	8	[0, 0, 0]	n/a	catFR1	2	R1495J
847.664	1.6	928969	WORD	n/a	wordpools/wordpool_categorized_EN.txt	PLANKTON	OceanAnimals	8	8	[0, 0, 0]	n/a	catFR1	2	R1495J
849.264	0.916	930571	WORD_OFF	n/a	n/a	PLANKTON	OceanAnimals	8	8	[0, 0, 0]	n/a	catFR1	2	R1495J
850.18	1.6	931487	WORD	n/a	wordpools/wordpool_categorized_EN.txt	STEREO	Electronics	9	8	[0, 0, 0]	n/a	catFR1	2	R1495J
851.78	0.833	933089	WORD_OFF	n/a	n/a	STEREO	Electronics	9	8	[0, 0, 0]	n/a	catFR1	2	R1495J
852.613	1.6	933916	WORD	n/a	wordpools/wordpool_categorized_EN.txt	SPEAKER	Electronics	10	8	[0, 0, 0]	n/a	catFR1	2	R1495J
854.213	0.95	935518	WORD_OFF	n/a	n/a	SPEAKER	Electronics	10	8	[0, 0, 0]	n/a	catFR1	2	R1495J
855.163	1.617	936472	WORD	n/a	wordpools/wordpool_categorized_EN.txt	LEMONADE	Beverages	11	8	[0, 0, 0]	n/a	catFR1	2	R1495J
856.78	0.8	938087	WORD_OFF	n/a	n/a	LEMONADE	Beverages	11	8	[0, 0, 0]	n/a	catFR1	2	R1495J
857.58	1.601	938889	WORD	n/a	wordpools/wordpool_categorized_EN.txt	CIDER	Beverages	12	8	[0, 0, 0]	n/a	catFR1	2	R1495J
859.181	0.001	940487	PROB	0.001	n/a	n/a	n/a	-999	8	[4, 3, 3]	10	catFR1	2	R1495J
859.182	0.0	940488	START	n/a	n/a	n/a	n/a	-999	8	[-999, -999, -999]	n/a	catFR1	2	R1495J
859.181	0.001	940491	WORD_OFF	n/a	n/a	CIDER	Beverages	12	8	[0, 0, 0]	n/a	catFR1	2	R1495J
859.182	0.0	940491	ENCODING_END	n/a	n/a	n/a	n/a	-999	8	[0, 0, 0]	n/a	catFR1	2	R1495J
859.182	4.114	940491	DISTRACT_START	n/a	n/a	n/a	n/a	-999	8	[0, 0, 0]	n/a	catFR1	2	R1495J
863.296	5.401	944602	PROB	5.401	n/a	n/a	n/a	-999	8	[5, 8, 1]	14	catFR1	2	R1495J
868.697	2.717	950003	PROB	2.717	n/a	n/a	n/a	-999	8	[2, 7, 7]	16	catFR1	2	R1495J
871.414	3.184	952720	PROB	3.184	n/a	n/a	n/a	-999	8	[2, 4, 4]	10	catFR1	2	R1495J
874.598	2.815	955904	PROB	2.815	n/a	n/a	n/a	-999	8	[4, 6, 4]	14	catFR1	2	R1495J
877.413	2.849	958719	PROB	2.849	n/a	n/a	n/a	-999	8	[8, 5, 8]	21	catFR1	2	R1495J
880.262	0.0	961565	DISTRACT_END	n/a	n/a	n/a	n/a	-999	8	[0, 0, 0]	n/a	catFR1	2	R1495J
880.262	1.135	961567	STOP	n/a	n/a	n/a	n/a	-999	8	[-999, -999, -999]	n/a	catFR1	2	R1495J
881.397	2.481	962697	REC_START	n/a	n/a	n/a	n/a	-999	8	[0, 0, 0]	n/a	catFR1	2	R1495J
883.878	2.772	965183	REC_WORD	2.772	n/a	COLA	Beverages	-999	8	[0, 0, 0]	n/a	catFR1	2	R1495J
886.65	5.676	967955	REC_WORD	5.676	n/a	BIKE	Vehicles	-999	8	[0, 0, 0]	n/a	catFR1	2	R1495J
892.326	2.59	973631	REC_WORD	2.59	n/a	PELICAN	n/a	-999	8	[0, 0, 0]	n/a	catFR1	2	R1495J
894.916	17.66	976221	REC_WORD	17.66	n/a	SEAGULL	Birds	-999	8	[0, 0, 0]	n/a	catFR1	2	R1495J
912.576	1.738	993881	REC_END	n/a	n/a	n/a	n/a	-999	8	[0, 0, 0]	n/a	catFR1	2	R1495J
914.314	10.349	995623	COUNTDOWN_START	n/a	n/a	n/a	n/a	-999	8	[0, 0, 0]	n/a	catFR1	2	R1495J
924.663	0.0	1005963	COUNTDOWN_END	n/a	n/a	n/a	n/a	-999	8	[0, 0, 0]	n/a	catFR1	2	R1495J
924.663	2.066	1005963	ENCODING_START	n/a	n/a	n/a	n/a	-999	9	[0, 0, 0]	n/a	catFR1	2	R1495J
926.729	1.601	1008036	WORD	n/a	wordpools/wordpool_categorized_EN.txt	TRUMPET	Instruments	1	9	[0, 0, 0]	n/a	catFR1	2	R1495J
928.33	0.8	1009638	WORD_OFF	n/a	n/a	TRUMPET	Instruments	1	9	[0, 0, 0]	n/a	catFR1	2	R1495J
929.13	1.616	1010427	WORD	n/a	wordpools/wordpool_categorized_EN.txt	GUITAR	Instruments	2	9	[0, 0, 0]	n/a	catFR1	2	R1495J
930.746	0.9	1012042	WORD_OFF	n/a	n/a	GUITAR	Instruments	2	9	[0, 0, 0]	n/a	catFR1	2	R1495J
931.646	1.601	1012945	WORD	n/a	wordpools/wordpool_categorized_EN.txt	LILY	Flowers	3	9	[0, 0, 0]	n/a	catFR1	2	R1495J
933.247	0.949	1014548	WORD_OFF	n/a	n/a	LILY	Flowers	3	9	[0, 0, 0]	n/a	catFR1	2	R1495J
934.196	1.617	1015501	WORD	n/a	wordpools/wordpool_categorized_EN.txt	ROSE	Flowers	4	9	[0, 0, 0]	n/a	catFR1	2	R1495J
935.813	0.967	1017117	WORD_OFF	n/a	n/a	ROSE	Flowers	4	9	[0, 0, 0]	n/a	catFR1	2	R1495J
936.78	1.6	1018083	WORD	n/a	wordpools/wordpool_categorized_EN.txt	SHORTS	Clothing	5	9	[0, 0, 0]	n/a	catFR1	2	R1495J
938.38	0.784	1019686	WORD_OFF	n/a	n/a	SHORTS	Clothing	5	9	[0, 0, 0]	n/a	catFR1	2	R1495J
939.164	1.616	1020461	WORD	n/a	wordpools/wordpool_categorized_EN.txt	DRESS	Clothing	6	9	[0, 0, 0]	n/a	catFR1	2	R1495J
940.78	1.0	1022077	WORD_OFF	n/a	n/a	DRESS	Clothing	6	9	[0, 0, 0]	n/a	catFR1	2	R1495J
941.78	1.601	1023081	WORD	n/a	wordpools/wordpool_categorized_EN.txt	TUBA	Instruments	7	9	[0, 0, 0]	n/a	catFR1	2	R1495J
943.381	0.882	1024684	WORD_OFF	n/a	n/a	TUBA	Instruments	7	9	[0, 0, 0]	n/a	catFR1	2	R1495J
944.263	1.617	1025561	WORD	n/a	wordpools/wordpool_categorized_EN.txt	BANJO	Instruments	8	9	[0, 0, 0]	n/a	catFR1	2	R1495J
945.88	0.916	1027176	WORD_OFF	n/a	n/a	BANJO	Instruments	8	9	[0, 0, 0]	n/a	catFR1	2	R1495J
946.796	1.6	1028092	WORD	n/a	wordpools/wordpool_categorized_EN.txt	DAISY	Flowers	9	9	[0, 0, 0]	n/a	catFR1	2	R1495J
948.396	0.834	1029695	WORD_OFF	n/a	n/a	DAISY	Flowers	9	9	[0, 0, 0]	n/a	catFR1	2	R1495J
949.23	1.616	1030534	WORD	n/a	wordpools/wordpool_categorized_EN.txt	TULIP	Flowers	10	9	[0, 0, 0]	n/a	catFR1	2	R1495J
950.846	0.867	1032149	WORD_OFF	n/a	n/a	TULIP	Flowers	10	9	[0, 0, 0]	n/a	catFR1	2	R1495J
951.713	1.616	1033014	WORD	n/a	wordpools/wordpool_categorized_EN.txt	BLOUSE	Clothing	11	9	[0, 0, 0]	n/a	catFR1	2	R1495J
953.329	0.984	1034629	WORD_OFF	n/a	n/a	BLOUSE	Clothing	11	9	[0, 0, 0]	n/a	catFR1	2	R1495J
954.313	1.6	1035608	WORD	n/a	wordpools/wordpool_categorized_EN.txt	SKIRT	Clothing	12	9	[0, 0, 0]	n/a	catFR1	2	R1495J
955.913	0.002	1037211	WORD_OFF	n/a	n/a	SKIRT	Clothing	12	9	[0, 0, 0]	n/a	catFR1	2	R1495J
955.915	0.0	1037211	ENCODING_END	n/a	n/a	n/a	n/a	-999	9	[0, 0, 0]	n/a	catFR1	2	R1495J
955.914	0.001	1037216	PROB	0.001	n/a	n/a	n/a	-999	9	[8, 4, 1]	13	catFR1	2	R1495J
955.915	0.0	1037217	START	n/a	n/a	n/a	n/a	-999	9	[-999, -999, -999]	n/a	catFR1	2	R1495J
955.915	3.599	1037224	DISTRACT_START	n/a	n/a	n/a	n/a	-999	9	[0, 0, 0]	n/a	catFR1	2	R1495J
959.514	4.066	1040816	PROB	4.066	n/a	n/a	n/a	-999	9	[8, 7, 7]	22	catFR1	2	R1495J
963.58	3.483	1044882	PROB	3.483	n/a	n/a	n/a	-999	9	[6, 3, 6]	15	catFR1	2	R1495J
967.063	2.8	1048365	PROB	2.8	n/a	n/a	n/a	-999	9	[2, 7, 2]	11	catFR1	2	R1495J
969.863	7.85	1051165	PROB	7.85	n/a	n/a	n/a	-999	9	[4, 5, 8]	15	catFR1	2	R1495J
977.713	0.0	1059010	DISTRACT_END	n/a	n/a	n/a	n/a	-999	9	[0, 0, 0]	n/a	catFR1	2	R1495J
977.713	1.2	1059014	STOP	n/a	n/a	n/a	n/a	-999	9	[-999, -999, -999]	n/a	catFR1	2	R1495J
978.913	5.886	1060218	REC_START	n/a	n/a	n/a	n/a	-999	9	[0, 0, 0]	n/a	catFR1	2	R1495J
984.799	1.88	1066100	REC_WORD	1.88	n/a	BLOUSE	Clothing	11	9	[0, 0, 0]	n/a	catFR1	2	R1495J
986.679	5.685	1067980	REC_WORD	5.685	n/a	LILY	Flowers	3	9	[0, 0, 0]	n/a	catFR1	2	R1495J
992.364	0.801	1073665	REC_WORD	0.801	n/a	GUITAR	Instruments	2	9	[0, 0, 0]	n/a	catFR1	2	R1495J
993.165	1.624	1074466	REC_WORD	1.624	n/a	TRUMPET	Instruments	1	9	[0, 0, 0]	n/a	catFR1	2	R1495J
994.789	15.311	1076090	REC_WORD	15.311	n/a	DRUM	Instruments	-999	9	[0, 0, 0]	n/a	catFR1	2	R1495J
1010.1	1.298	1091402	REC_END	n/a	n/a	n/a	n/a	-999	9	[0, 0, 0]	n/a	catFR1	2	R1495J
1011.398	10.35	1092699	COUNTDOWN_START	n/a	n/a	n/a	n/a	-999	9	[0, 0, 0]	n/a	catFR1	2	R1495J
1021.748	0.0	1103052	COUNTDOWN_END	n/a	n/a	n/a	n/a	-999	9	[0, 0, 0]	n/a	catFR1	2	R1495J
1021.748	1.899	1103052	ENCODING_START	n/a	n/a	n/a	n/a	-999	10	[0, 0, 0]	n/a	catFR1	2	R1495J
1023.647	1.601	1104947	WORD	n/a	wordpools/wordpool_categorized_EN.txt	SOFA	Furniture	1	10	[0, 0, 0]	n/a	catFR1	2	R1495J
1025.248	0.983	1106549	WORD_OFF	n/a	n/a	SOFA	Furniture	1	10	[0, 0, 0]	n/a	catFR1	2	R1495J
1026.231	1.6	1107528	WORD	n/a	wordpools/wordpool_categorized_EN.txt	CABINET	Furniture	2	10	[0, 0, 0]	n/a	catFR1	2	R1495J
1027.831	0.934	1109131	WORD_OFF	n/a	n/a	CABINET	Furniture	2	10	[0, 0, 0]	n/a	catFR1	2	R1495J
1028.765	1.6	1110059	WORD	n/a	wordpools/wordpool_categorized_EN.txt	UNDERWEAR	Clothing	3	10	[0, 0, 0]	n/a	catFR1	2	R1495J
1030.365	0.8	1111662	WORD_OFF	n/a	n/a	UNDERWEAR	Clothing	3	10	[0, 0, 0]	n/a	catFR1	2	R1495J
1031.165	1.616	1112463	WORD	n/a	wordpools/wordpool_categorized_EN.txt	SHOES	Clothing	4	10	[0, 0, 0]	n/a	catFR1	2	R1495J
1032.781	0.934	1114078	WORD_OFF	n/a	n/a	SHOES	Clothing	4	10	[0, 0, 0]	n/a	catFR1	2	R1495J
1033.715	1.616	1115009	WORD	n/a	wordpools/wordpool_categorized_EN.txt	CARNATION	Flowers	5	10	[0, 0, 0]	n/a	catFR1	2	R1495J
1035.331	0.884	1116634	WORD_OFF	n/a	n/a	CARNATION	Flowers	5	10	[0, 0, 0]	n/a	catFR1	2	R1495J
1036.215	1.6	1117512	WORD	n/a	wordpools/wordpool_categorized_EN.txt	DAFFODIL	Flowers	6	10	[0, 0, 0]	n/a	catFR1	2	R1495J
1037.815	0.867	1119114	WORD_OFF	n/a	n/a	DAFFODIL	Flowers	6	10	[0, 0, 0]	n/a	catFR1	2	R1495J
1038.682	1.599	1119979	WORD	n/a	wordpools/wordpool_categorized_EN.txt	BOOKCASE	Furniture	7	10	[0, 0, 0]	n/a	catFR1	2	R1495J
1040.281	1.001	1121582	WORD_OFF	n/a	n/a	BOOKCASE	Furniture	7	10	[0, 0, 0]	n/a	catFR1	2	R1495J
1041.282	1.615	1122574	WORD	n/a	wordpools/wordpool_categorized_EN.txt	CHAIR	Furniture	8	10	[0, 0, 0]	n/a	catFR1	2	R1495J
1042.897	0.967	1124189	WORD_OFF	n/a	n/a	CHAIR	Furniture	8	10	[0, 0, 0]	n/a	catFR1	2	R1495J
1043.864	1.601	1125156	WORD	n/a	wordpools/wordpool_categorized_EN.txt	SOCKS	Clothing	9	10	[0, 0, 0]	n/a	catFR1	2	R1495J
1045.465	0.967	1126758	WORD_OFF	n/a	n/a	SOCKS	Clothing	9	10	[0, 0, 0]	n/a	catFR1	2	R1495J
1046.432	1.616	1127725	WORD	n/a	wordpools/wordpool_categorized_EN.txt	JACKET	Clothing	10	10	[0, 0, 0]	n/a	catFR1	2	R1495J
1048.048	0.783	1129340	WORD_OFF	n/a	n/a	JACKET	Clothing	10	10	[0, 0, 0]	n/a	catFR1	2	R1495J
1048.831	1.617	1130128	WORD	n/a	wordpools/wordpool_categorized_EN.txt	MARIGOLD	Flowers	11	10	[0, 0, 0]	n/a	catFR1	2	R1495J
1050.448	0.883	1131743	WORD_OFF	n/a	n/a	MARIGOLD	Flowers	11	10	[0, 0, 0]	n/a	catFR1	2	R1495J
1051.331	1.6	1132634	WORD	n/a	wordpools/wordpool_categorized_EN.txt	ORCHID	Flowers	12	10	[0, 0, 0]	n/a	catFR1	2	R1495J
1052.931	0.001	1134223	WORD_OFF	n/a	n/a	ORCHID	Flowers	12	10	[0, 0, 0]	n/a	catFR1	2	R1495J
1052.932	0.001	1134230	PROB	0.001	n/a	n/a	n/a	-999	10	[2, 1, 1]	4	catFR1	2	R1495J
1052.933	0.0	1134231	START	n/a	n/a	n/a	n/a	-999	10	[-999, -999, -999]	n/a	catFR1	2	R1495J
1052.933	0.0	1134236	ENCODING_END	n/a	n/a	n/a	n/a	-999	10	[0, 0, 0]	n/a	catFR1	2	R1495J
1052.933	2.599	1134236	DISTRACT_START	n/a	n/a	n/a	n/a	-999	10	[0, 0, 0]	n/a	catFR1	2	R1495J
1055.532	2.667	1136830	PROB	2.667	n/a	n/a	n/a	-999	10	[2, 3, 5]	10	catFR1	2	R1495J
1058.199	3.849	1139497	PROB	3.849	n/a	n/a	n/a	-999	10	[5, 7, 1]	13	catFR1	2	R1495J
1062.048	3.6	1143346	PROB	3.6	n/a	n/a	n/a	-999	10	[4, 4, 7]	15	catFR1	2	R1495J
1065.648	3.633	1146946	PROB	3.633	n/a	n/a	n/a	-999	10	[7, 1, 6]	14	catFR1	2	R1495J
1069.281	2.117	1150578	PROB	2.117	n/a	n/a	n/a	-999	10	[4, 1, 4]	9	catFR1	2	R1495J
1071.398	3.602	1152695	PROB	3.602	n/a	n/a	n/a	-999	10	[7, 4, 2]	13	catFR1	2	R1495J
1075.0	0.0	1156297	STOP	n/a	n/a	n/a	n/a	-999	10	[-999, -999, -999]	n/a	catFR1	2	R1495J
1075.0	1.381	1156302	DISTRACT_END	n/a	n/a	n/a	n/a	-999	10	[0, 0, 0]	n/a	catFR1	2	R1495J
1076.381	0.0	1157675	REC_START	n/a	n/a	n/a	n/a	-999	10	[0, 0, 0]	n/a	catFR1	2	R1495J
1076.381	3.681	1157678	REC_WORD	3.681	n/a	MARIGOLD	Flowers	11	10	[0, 0, 0]	n/a	catFR1	2	R1495J
1080.062	7.955	1161359	REC_WORD	7.955	n/a	CHILD	n/a	-999	10	[0, 0, 0]	n/a	catFR1	2	R1495J
1088.017	6.195	1169314	REC_WORD	6.195	n/a	TRUMPET	Instruments	-999	10	[0, 0, 0]	n/a	catFR1	2	R1495J
1094.212	13.374	1175508	REC_WORD	13.374	n/a	DRUM	Instruments	-999	10	[0, 0, 0]	n/a	catFR1	2	R1495J
1107.586	1.445	1188885	REC_END	n/a	n/a	n/a	n/a	-999	10	[0, 0, 0]	n/a	catFR1	2	R1495J
1109.031	10.348	1190322	COUNTDOWN_START	n/a	n/a	n/a	n/a	-999	10	[0, 0, 0]	n/a	catFR1	2	R1495J
1119.379	0.001	1200675	COUNTDOWN_END	n/a	n/a	n/a	n/a	-999	10	[0, 0, 0]	n/a	catFR1	2	R1495J
1119.38	2.168	1200675	ENCODING_START	n/a	n/a	n/a	n/a	-999	11	[0, 0, 0]	n/a	catFR1	2	R1495J
1121.548	1.6	1202837	WORD	n/a	wordpools/wordpool_categorized_EN.txt	BASS	Instruments	1	11	[0, 0, 0]	n/a	catFR1	2	R1495J
1123.148	0.8	1204439	WORD_OFF	n/a	n/a	BASS	Instruments	1	11	[0, 0, 0]	n/a	catFR1	2	R1495J
1123.948	1.6	1205240	WORD	n/a	wordpools/wordpool_categorized_EN.txt	CELLO	Instruments	2	11	[0, 0, 0]	n/a	catFR1	2	R1495J
1125.548	0.984	1206843	WORD_OFF	n/a	n/a	CELLO	Instruments	2	11	[0, 0, 0]	n/a	catFR1	2	R1495J
1126.532	1.616	1207822	WORD	n/a	wordpools/wordpool_categorized_EN.txt	MARKER	OfficeSupplies	3	11	[0, 0, 0]	n/a	catFR1	2	R1495J
1128.148	1.0	1209437	WORD_OFF	n/a	n/a	MARKER	OfficeSupplies	3	11	[0, 0, 0]	n/a	catFR1	2	R1495J
1129.148	1.617	1210442	WORD	n/a	wordpools/wordpool_categorized_EN.txt	TAPE	OfficeSupplies	4	11	[0, 0, 0]	n/a	catFR1	2	R1495J
1130.765	0.816	1212057	WORD_OFF	n/a	n/a	TAPE	OfficeSupplies	4	11	[0, 0, 0]	n/a	catFR1	2	R1495J
1131.581	1.617	1212871	WORD	n/a	wordpools/wordpool_categorized_EN.txt	SHELF	Furniture	5	11	[0, 0, 0]	n/a	catFR1	2	R1495J
1133.198	0.833	1214486	WORD_OFF	n/a	n/a	SHELF	Furniture	5	11	[0, 0, 0]	n/a	catFR1	2	R1495J
1134.031	1.601	1215326	WORD	n/a	wordpools/wordpool_categorized_EN.txt	DRESSER	Furniture	6	11	[0, 0, 0]	n/a	catFR1	2	R1495J
1135.632	0.9	1216928	WORD_OFF	n/a	n/a	DRESSER	Furniture	6	11	[0, 0, 0]	n/a	catFR1	2	R1495J
1136.532	1.616	1217831	WORD	n/a	wordpools/wordpool_categorized_EN.txt	FLUTE	Instruments	7	11	[0, 0, 0]	n/a	catFR1	2	R1495J
1138.148	0.884	1219446	WORD_OFF	n/a	n/a	FLUTE	Instruments	7	11	[0, 0, 0]	n/a	catFR1	2	R1495J
1139.032	1.6	1220324	WORD	n/a	wordpools/wordpool_categorized_EN.txt	TROMBONE	Instruments	8	11	[0, 0, 0]	n/a	catFR1	2	R1495J
1140.632	0.933	1221926	WORD_OFF	n/a	n/a	TROMBONE	Instruments	8	11	[0, 0, 0]	n/a	catFR1	2	R1495J
1141.565	1.6	1222855	WORD	n/a	wordpools/wordpool_categorized_EN.txt	TABLE	Furniture	9	11	[0, 0, 0]	n/a	catFR1	2	R1495J
1143.165	0.933	1224457	WORD_OFF	n/a	n/a	TABLE	Furniture	9	11	[0, 0, 0]	n/a	catFR1	2	R1495J
1144.098	1.6	1225386	WORD	n/a	wordpools/wordpool_categorized_EN.txt	COUCH	Furniture	10	11	[0, 0, 0]	n/a	catFR1	2	R1495J
1145.698	0.817	1226988	WORD_OFF	n/a	n/a	COUCH	Furniture	10	11	[0, 0, 0]	n/a	catFR1	2	R1495J
1146.515	1.6	1227802	WORD	n/a	wordpools/wordpool_categorized_EN.txt	PENCIL	OfficeSupplies	11	11	[0, 0, 0]	n/a	catFR1	2	R1495J
1148.115	0.816	1229404	WORD_OFF	n/a	n/a	PENCIL	OfficeSupplies	11	11	[0, 0, 0]	n/a	catFR1	2	R1495J
1148.931	1.601	1230218	WORD	n/a	wordpools/wordpool_categorized_EN.txt	STAPLER	OfficeSupplies	12	11	[0, 0, 0]	n/a	catFR1	2	R1495J
1150.532	0.001	1231821	WORD_OFF	n/a	n/a	STAPLER	OfficeSupplies	12	11	[0, 0, 0]	n/a	catFR1	2	R1495J
1150.533	0.0	1231821	ENCODING_END	n/a	n/a	n/a	n/a	-999	11	[0, 0, 0]	n/a	catFR1	2	R1495J
1150.531	0.002	1231825	PROB	0.002	n/a	n/a	n/a	-999	11	[8, 1, 8]	17	catFR1	2	R1495J
1150.533	0.0	1231827	START	n/a	n/a	n/a	n/a	-999	11	[-999, -999, -999]	n/a	catFR1	2	R1495J
1150.533	3.548	1231834	DISTRACT_START	n/a	n/a	n/a	n/a	-999	11	[0, 0, 0]	n/a	catFR1	2	R1495J
1154.081	2.534	1235375	PROB	2.534	n/a	n/a	n/a	-999	11	[6, 2, 6]	14	catFR1	2	R1495J
1156.615	4.267	1237909	PROB	4.267	n/a	n/a	n/a	-999	11	[8, 8, 7]	23	catFR1	2	R1495J
1160.882	3.234	1242175	PROB	3.234	n/a	n/a	n/a	-999	11	[7, 1, 8]	16	catFR1	2	R1495J
1164.116	2.565	1245409	PROB	2.565	n/a	n/a	n/a	-999	11	[5, 4, 1]	10	catFR1	2	R1495J
1166.681	4.2	1247974	PROB	4.2	n/a	n/a	n/a	-999	11	[3, 4, 3]	10	catFR1	2	R1495J
1170.881	0.0	1252170	DISTRACT_END	n/a	n/a	n/a	n/a	-999	11	[0, 0, 0]	n/a	catFR1	2	R1495J
1170.881	1.333	1252174	STOP	n/a	n/a	n/a	n/a	-999	11	[-999, -999, -999]	n/a	catFR1	2	R1495J
1172.214	0.426	1253505	REC_START	n/a	n/a	n/a	n/a	-999	11	[0, 0, 0]	n/a	catFR1	2	R1495J
1172.64	1.339	1253933	REC_WORD	1.339	n/a	PENCIL	OfficeSupplies	11	11	[0, 0, 0]	n/a	catFR1	2	R1495J
1173.979	2.677	1255272	REC_WORD	2.677	n/a	SHARPENER	n/a	-999	11	[0, 0, 0]	n/a	catFR1	2	R1495J
1176.656	4.487	1257949	REC_WORD	4.487	n/a	TABLE	Furniture	9	11	[0, 0, 0]	n/a	catFR1	2	R1495J
1181.143	2.206	1262436	REC_WORD	2.206	n/a	BASS	Instruments	1	11	[0, 0, 0]	n/a	catFR1	2	R1495J
1183.349	0.526	1264642	REC_WORD	0.526	n/a	PIANO	Instruments	-999	11	[0, 0, 0]	n/a	catFR1	2	R1495J
1183.875	3.138	1265168	REC_WORD	3.138	n/a	FLUTE	Instruments	7	11	[0, 0, 0]	n/a	catFR1	2	R1495J
1187.013	16.388	1268305	REC_WORD	16.388	n/a	TROMBONE	Instruments	8	11	[0, 0, 0]	n/a	catFR1	2	R1495J
1203.401	1.397	1284689	REC_END	n/a	n/a	n/a	n/a	-999	11	[0, 0, 0]	n/a	catFR1	2	R1495J
1204.798	10.349	1286088	COUNTDOWN_START	n/a	n/a	n/a	n/a	-999	11	[0, 0, 0]	n/a	catFR1	2	R1495J
1215.147	0.001	1296441	COUNTDOWN_END	n/a	n/a	n/a	n/a	-999	11	[0, 0, 0]	n/a	catFR1	2	R1495J
1215.148	2.183	1296441	ENCODING_START	n/a	n/a	n/a	n/a	-999	12	[0, 0, 0]	n/a	catFR1	2	R1495J
1217.331	1.6	1298615	WORD	n/a	wordpools/wordpool_categorized_EN.txt	EVERGREEN	Trees	1	12	[0, 0, 0]	n/a	catFR1	2	R1495J
1218.931	0.767	1300218	WORD_OFF	n/a	n/a	EVERGREEN	Trees	1	12	[0, 0, 0]	n/a	catFR1	2	R1495J
1219.698	1.6	1300994	WORD	n/a	wordpools/wordpool_categorized_EN.txt	MAPLE	Trees	2	12	[0, 0, 0]	n/a	catFR1	2	R1495J
1221.298	0.85	1302583	WORD_OFF	n/a	n/a	MAPLE	Trees	2	12	[0, 0, 0]	n/a	catFR1	2	R1495J
1222.148	1.617	1303436	WORD	n/a	wordpools/wordpool_categorized_EN.txt	TELEVISION	Electronics	3	12	[0, 0, 0]	n/a	catFR1	2	R1495J
1223.765	0.967	1305051	WORD_OFF	n/a	n/a	TELEVISION	Electronics	3	12	[0, 0, 0]	n/a	catFR1	2	R1495J
1224.732	1.616	1306017	WORD	n/a	wordpools/wordpool_categorized_EN.txt	RADIO	Electronics	4	12	[0, 0, 0]	n/a	catFR1	2	R1495J
1226.348	0.766	1307632	WORD_OFF	n/a	n/a	RADIO	Electronics	4	12	[0, 0, 0]	n/a	catFR1	2	R1495J
1227.114	1.617	1308408	WORD	n/a	wordpools/wordpool_categorized_EN.txt	JEANS	Clothing	5	12	[0, 0, 0]	n/a	catFR1	2	R1495J
1228.731	0.934	1310023	WORD_OFF	n/a	n/a	JEANS	Clothing	5	12	[0, 0, 0]	n/a	catFR1	2	R1495J
1229.665	1.6	1310952	WORD	n/a	wordpools/wordpool_categorized_EN.txt	PANTS	Clothing	6	12	[0, 0, 0]	n/a	catFR1	2	R1495J
1231.265	0.831	1312554	WORD_OFF	n/a	n/a	PANTS	Clothing	6	12	[0, 0, 0]	n/a	catFR1	2	R1495J
1232.096	1.602	1313381	WORD	n/a	wordpools/wordpool_categorized_EN.txt	CALCULATOR	Electronics	7	12	[0, 0, 0]	n/a	catFR1	2	R1495J
1233.698	0.767	1314983	WORD_OFF	n/a	n/a	CALCULATOR	Electronics	7	12	[0, 0, 0]	n/a	catFR1	2	R1495J
1234.465	1.616	1315759	WORD	n/a	wordpools/wordpool_categorized_EN.txt	MICROWAVE	Electronics	8	12	[0, 0, 0]	n/a	catFR1	2	R1495J
1236.081	0.901	1317374	WORD_OFF	n/a	n/a	MICROWAVE	Electronics	8	12	[0, 0, 0]	n/a	catFR1	2	R1495J
1236.982	1.599	1318277	WORD	n/a	wordpools/wordpool_categorized_EN.txt	OAK	Trees	9	12	[0, 0, 0]	n/a	catFR1	2	R1495J
1238.581	0.933	1319867	WORD_OFF	n/a	n/a	OAK	Trees	9	12	[0, 0, 0]	n/a	catFR1	2	R1495J
1239.514	1.601	1320808	WORD	n/a	wordpools/wordpool_categorized_EN.txt	SPRUCE	Trees	10	12	[0, 0, 0]	n/a	catFR1	2	R1495J
1241.115	0.867	1322398	WORD_OFF	n/a	n/a	SPRUCE	Trees	10	12	[0, 0, 0]	n/a	catFR1	2	R1495J
1241.982	1.616	1323276	WORD	n/a	wordpools/wordpool_categorized_EN.txt	COAT	Clothing	11	12	[0, 0, 0]	n/a	catFR1	2	R1495J
1243.598	0.883	1324891	WORD_OFF	n/a	n/a	COAT	Clothing	11	12	[0, 0, 0]	n/a	catFR1	2	R1495J
1244.481	1.6	1325768	WORD	n/a	wordpools/wordpool_categorized_EN.txt	SHIRT	Clothing	12	12	[0, 0, 0]	n/a	catFR1	2	R1495J
1246.081	0.002	1327371	WORD_OFF	n/a	n/a	SHIRT	Clothing	12	12	[0, 0, 0]	n/a	catFR1	2	R1495J
1246.083	0.0	1327371	ENCODING_END	n/a	n/a	n/a	n/a	-999	12	[0, 0, 0]	n/a	catFR1	2	R1495J
1246.083	0.0	1327371	DISTRACT_START	n/a	n/a	n/a	n/a	-999	12	[0, 0, 0]	n/a	catFR1	2	R1495J
1246.082	0.001	1327372	PROB	0.001	n/a	n/a	n/a	-999	12	[5, 7, 3]	15	catFR1	2	R1495J
1246.083	3.498	1327373	START	n/a	n/a	n/a	n/a	-999	12	[-999, -999, -999]	n/a	catFR1	2	R1495J
1249.581	2.917	1330871	PROB	2.917	n/a	n/a	n/a	-999	12	[3, 7, 6]	16	catFR1	2	R1495J
1252.498	2.317	1333788	PROB	2.317	n/a	n/a	n/a	-999	12	[2, 2, 1]	5	catFR1	2	R1495J
1254.815	2.717	1336104	PROB	2.717	n/a	n/a	n/a	-999	12	[3, 7, 5]	15	catFR1	2	R1495J
1257.532	2.75	1338821	PROB	2.75	n/a	n/a	n/a	-999	12	[4, 6, 4]	14	catFR1	2	R1495J
1260.282	6.448	1341571	PROB	6.448	n/a	n/a	n/a	-999	12	[8, 7, 7]	22	catFR1	2	R1495J
1266.73	0.0	1348012	DISTRACT_END	n/a	n/a	n/a	n/a	-999	12	[0, 0, 0]	n/a	catFR1	2	R1495J
1266.73	1.184	1348019	STOP	n/a	n/a	n/a	n/a	-999	12	[-999, -999, -999]	n/a	catFR1	2	R1495J
1267.914	1.107	1349207	REC_START	n/a	n/a	n/a	n/a	-999	12	[0, 0, 0]	n/a	catFR1	2	R1495J
1269.021	0.486	1350310	REC_WORD	0.486	n/a	COAT	Clothing	11	12	[0, 0, 0]	n/a	catFR1	2	R1495J
1269.507	6.547	1350796	REC_WORD	6.547	n/a	SHIRT	Clothing	12	12	[0, 0, 0]	n/a	catFR1	2	R1495J
1276.054	23.048	1357343	REC_WORD	23.048	n/a	DRESS	Clothing	-999	12	[0, 0, 0]	n/a	catFR1	2	R1495J
1299.102	0.0	1380392	REC_END	n/a	n/a	n/a	n/a	-999	12	[0, 0, 0]	n/a	catFR1	2	R1495J
