onset	duration	sample	trial_type	response_time	stim_file	item_name	category	serialpos	list	test	answer	experiment	session	subject
0.0	17.878	68400	SESS_START	n/a	n/a	n/a	n/a	-999	-999	[0, 0, 0]	n/a	catFR1	0	R1028M
17.878	10.428	77338	COUNTDOWN_START	n/a	n/a	n/a	n/a	-999	-999	[0, 0, 0]	n/a	catFR1	0	R1028M
28.306	3.807	82551	COUNTDOWN_END	n/a	n/a	n/a	n/a	-999	-999	[0, 0, 0]	n/a	catFR1	0	R1028M
32.113	2.418	84454	PRACTICE_WORD	n/a	n/a	IRON	n/a	-999	-999	[0, 0, 0]	n/a	catFR1	0	R1028M
34.531	2.516	85663	PRACTICE_WORD	n/a	n/a	RING	n/a	-999	-999	[0, 0, 0]	n/a	catFR1	0	R1028M
37.047	2.585	86921	PRACTICE_WORD	n/a	n/a	TONGUE	n/a	-999	-999	[0, 0, 0]	n/a	catFR1	0	R1028M
39.632	2.466	88214	PRACTICE_WORD	n/a	n/a	BEAM	n/a	-999	-999	[0, 0, 0]	n/a	catFR1	0	R1028M
42.098	2.419	89446	PRACTICE_WORD	n/a	n/a	FLOOD	n/a	-999	-999	[0, 0, 0]	n/a	catFR1	0	R1028M
44.517	2.582	90656	PRACTICE_WORD	n/a	n/a	CHEST	n/a	-999	-999	[0, 0, 0]	n/a	catFR1	0	R1028M
47.099	2.418	91947	PRACTICE_WORD	n/a	n/a	RHINO	n/a	-999	-999	[0, 0, 0]	n/a	catFR1	0	R1028M
49.517	2.617	93155	PRACTICE_WORD	n/a	n/a	WAGON	n/a	-999	-999	[0, 0, 0]	n/a	catFR1	0	R1028M
52.134	2.451	94464	PRACTICE_WORD	n/a	n/a	WATCH	n/a	-999	-999	[0, 0, 0]	n/a	catFR1	0	R1028M
54.585	2.433	95689	PRACTICE_WORD	n/a	n/a	CAMEL	n/a	-999	-999	[0, 0, 0]	n/a	catFR1	0	R1028M
57.018	2.452	96906	PRACTICE_WORD	n/a	n/a	ATTIC	n/a	-999	-999	[0, 0, 0]	n/a	catFR1	0	R1028M
59.47	1.616	98131	PRACTICE_WORD	n/a	n/a	COTTON	n/a	-999	-999	[0, 0, 0]	n/a	catFR1	0	R1028M
61.086	0.0	98939	PRACTICE_DISTRACT_START	n/a	n/a	n/a	n/a	-999	-999	[0, 0, 0]	n/a	catFR1	0	R1028M
61.086	0.016	98939	START	n/a	n/a	n/a	n/a	-999	-1	[-999, -999, -999]	n/a	catFR1	0	R1028M
61.102	16.27	98947	PROB	16.27	n/a	n/a	n/a	-999	-1	[3, 8, 6]	17	catFR1	0	R1028M
77.372	5.999	107082	PROB	5.999	n/a	n/a	n/a	-999	-1	[1, 6, 2]	9	catFR1	0	R1028M
83.371	0.019	110081	STOP	n/a	n/a	n/a	n/a	-999	-1	[-999, -999, -999]	n/a	catFR1	0	R1028M
83.39	0.52	110090	PRACTICE_DISTRACT_END	n/a	n/a	n/a	n/a	-999	-999	[0, 0, 0]	n/a	catFR1	0	R1028M
83.91	30.514	110350	PRACTICE_REC_START	n/a	n/a	n/a	n/a	-999	-999	[0, 0, 0]	n/a	catFR1	0	R1028M
114.424	27.295	125606	PRACTICE_REC_END	n/a	n/a	n/a	n/a	-999	-999	[0, 0, 0]	n/a	catFR1	0	R1028M
141.719	0.0	139252	TRIAL	n/a	n/a	n/a	n/a	-999	1	[0, 0, 0]	n/a	catFR1	0	R1028M
141.719	10.428	139252	COUNTDOWN_START	n/a	n/a	n/a	n/a	-999	1	[0, 0, 0]	n/a	catFR1	0	R1028M
152.147	0.006	144465	COUNTDOWN_END	n/a	n/a	n/a	n/a	-999	1	[0, 0, 0]	n/a	catFR1	0	R1028M
152.153	3.719	144468	ORIENT	n/a	n/a	n/a	n/a	-999	1	[0, 0, 0]	n/a	catFR1	0	R1028M
155.872	2.617	146328	WORD	n/a	wordpools/wordpool_categorized_EN.txt	BLENDER	Appliances	1	1	[0, 0, 0]	n/a	catFR1	0	R1028M
158.489	2.384	147636	WORD	n/a	wordpools/wordpool_categorized_EN.txt	FREEZER	Appliances	2	1	[0, 0, 0]	n/a	catFR1	0	R1028M
160.873	2.433	148828	WORD	n/a	wordpools/wordpool_categorized_EN.txt	WINE	Beverages	3	1	[0, 0, 0]	n/a	catFR1	0	R1028M
163.306	2.451	150044	WORD	n/a	wordpools/wordpool_categorized_EN.txt	SODA	Beverages	4	1	[0, 0, 0]	n/a	catFR1	0	R1028M
165.757	2.383	151270	WORD	n/a	wordpools/wordpool_categorized_EN.txt	HORSE	FarmAnimals	5	1	[0, 0, 0]	n/a	catFR1	0	R1028M
168.14	2.501	152461	WORD	n/a	wordpools/wordpool_categorized_EN.txt	CALF	FarmAnimals	6	1	[0, 0, 0]	n/a	catFR1	0	R1028M
170.641	2.483	153711	WORD	n/a	wordpools/wordpool_categorized_EN.txt	STOVE	Appliances	7	1	[0, 0, 0]	n/a	catFR1	0	R1028M
173.124	2.585	154953	WORD	n/a	wordpools/wordpool_categorized_EN.txt	VACUUM	Appliances	8	1	[0, 0, 0]	n/a	catFR1	0	R1028M
175.709	2.466	156245	WORD	n/a	wordpools/wordpool_categorized_EN.txt	ROOSTER	FarmAnimals	9	1	[0, 0, 0]	n/a	catFR1	0	R1028M
178.175	2.568	157478	WORD	n/a	wordpools/wordpool_categorized_EN.txt	PIG	FarmAnimals	10	1	[0, 0, 0]	n/a	catFR1	0	R1028M
180.743	2.45	158762	WORD	n/a	wordpools/wordpool_categorized_EN.txt	TEA	Beverages	11	1	[0, 0, 0]	n/a	catFR1	0	R1028M
183.193	1.618	159987	WORD	n/a	wordpools/wordpool_categorized_EN.txt	BEER	Beverages	12	1	[0, 0, 0]	n/a	catFR1	0	R1028M
184.811	0.001	160796	DISTRACT_START	n/a	n/a	n/a	n/a	-999	1	[0, 0, 0]	n/a	catFR1	0	R1028M
184.812	0.015	160796	START	n/a	n/a	n/a	n/a	-999	1	[-999, -999, -999]	n/a	catFR1	0	R1028M
184.827	8.168	160804	PROB	8.168	n/a	n/a	n/a	-999	1	[2, 7, 4]	13	catFR1	0	R1028M
192.995	9.035	164887	PROB	9.035	n/a	n/a	n/a	-999	1	[7, 9, 7]	23	catFR1	0	R1028M
202.03	4.197	169404	PROB	4.197	n/a	n/a	n/a	-999	1	[6, 6, 1]	13	catFR1	0	R1028M
206.227	0.003	171502	STOP	n/a	n/a	n/a	n/a	-999	1	[-999, -999, -999]	n/a	catFR1	0	R1028M
206.23	1.155	171504	DISTRACT_END	n/a	n/a	n/a	n/a	-999	1	[0, 0, 0]	n/a	catFR1	0	R1028M
207.385	2.384	172081	REC_START	n/a	n/a	n/a	n/a	-999	1	[0, 0, 0]	n/a	catFR1	0	R1028M
209.769	0.85	173273	REC_WORD	0.85	n/a	PIG	FarmAnimals	10	1	[0, 0, 0]	n/a	catFR1	0	R1028M
210.619	0.798	173698	REC_WORD	0.798	n/a	ROOSTER	FarmAnimals	9	1	[0, 0, 0]	n/a	catFR1	0	R1028M
211.417	1.045	174097	REC_WORD	1.045	n/a	HORSE	FarmAnimals	5	1	[0, 0, 0]	n/a	catFR1	0	R1028M
212.462	0.904	174620	REC_WORD	0.904	n/a	CALF	FarmAnimals	6	1	[0, 0, 0]	n/a	catFR1	0	R1028M
213.366	0.996	175072	REC_WORD	0.996	n/a	BLENDER	Appliances	1	1	[0, 0, 0]	n/a	catFR1	0	R1028M
214.362	1.572	175569	REC_WORD	1.572	n/a	FREEZER	Appliances	2	1	[0, 0, 0]	n/a	catFR1	0	R1028M
215.934	0.94	176355	REC_WORD	0.94	n/a	BEER	Beverages	12	1	[0, 0, 0]	n/a	catFR1	0	R1028M
216.874	20.519	176825	REC_WORD	20.519	n/a	TEA	Beverages	11	1	[0, 0, 0]	n/a	catFR1	0	R1028M
237.393	9.795	187084	REC_END	n/a	n/a	n/a	n/a	-999	1	[0, 0, 0]	n/a	catFR1	0	R1028M
247.188	0.001	191981	COUNTDOWN_START	n/a	n/a	n/a	n/a	-999	2	[0, 0, 0]	n/a	catFR1	0	R1028M
247.189	10.427	191981	TRIAL	n/a	n/a	n/a	n/a	-999	2	[0, 0, 0]	n/a	catFR1	0	R1028M
257.616	0.009	197194	COUNTDOWN_END	n/a	n/a	n/a	n/a	-999	2	[0, 0, 0]	n/a	catFR1	0	R1028M
257.625	3.683	197199	ORIENT	n/a	n/a	n/a	n/a	-999	2	[0, 0, 0]	n/a	catFR1	0	R1028M
261.308	2.418	199040	WORD	n/a	wordpools/wordpool_categorized_EN.txt	LAMB	FarmAnimals	1	2	[0, 0, 0]	n/a	catFR1	0	R1028M
263.726	2.566	200249	WORD	n/a	wordpools/wordpool_categorized_EN.txt	BULL	FarmAnimals	2	2	[0, 0, 0]	n/a	catFR1	0	R1028M
266.292	2.368	201532	WORD	n/a	wordpools/wordpool_categorized_EN.txt	OCTOPUS	OceanAnimals	3	2	[0, 0, 0]	n/a	catFR1	0	R1028M
268.66	2.6	202716	WORD	n/a	wordpools/wordpool_categorized_EN.txt	FISH	OceanAnimals	4	2	[0, 0, 0]	n/a	catFR1	0	R1028M
271.26	2.601	204016	WORD	n/a	wordpools/wordpool_categorized_EN.txt	SUNFLOWER	Flowers	5	2	[0, 0, 0]	n/a	catFR1	0	R1028M
273.861	2.617	205316	WORD	n/a	wordpools/wordpool_categorized_EN.txt	TULIP	Flowers	6	2	[0, 0, 0]	n/a	catFR1	0	R1028M
276.478	2.434	206624	WORD	n/a	wordpools/wordpool_categorized_EN.txt	SHEEP	FarmAnimals	7	2	[0, 0, 0]	n/a	catFR1	0	R1028M
278.912	2.483	207841	WORD	n/a	wordpools/wordpool_categorized_EN.txt	HEN	FarmAnimals	8	2	[0, 0, 0]	n/a	catFR1	0	R1028M
281.395	2.584	209083	WORD	n/a	wordpools/wordpool_categorized_EN.txt	ORCHID	Flowers	9	2	[0, 0, 0]	n/a	catFR1	0	R1028M
283.979	2.618	210374	WORD	n/a	wordpools/wordpool_categorized_EN.txt	DAFFODIL	Flowers	10	2	[0, 0, 0]	n/a	catFR1	0	R1028M
286.597	2.566	211683	WORD	n/a	wordpools/wordpool_categorized_EN.txt	OYSTER	OceanAnimals	11	2	[0, 0, 0]	n/a	catFR1	0	R1028M
289.163	1.601	212966	WORD	n/a	wordpools/wordpool_categorized_EN.txt	JELLYFISH	OceanAnimals	12	2	[0, 0, 0]	n/a	catFR1	0	R1028M
290.764	0.001	213767	DISTRACT_START	n/a	n/a	n/a	n/a	-999	2	[0, 0, 0]	n/a	catFR1	0	R1028M
290.765	0.016	213767	START	n/a	n/a	n/a	n/a	-999	2	[-999, -999, -999]	n/a	catFR1	0	R1028M
290.781	8.969	213775	PROB	8.969	n/a	n/a	n/a	-999	2	[4, 2, 7]	13	catFR1	0	R1028M
299.75	8.367	218259	PROB	8.367	n/a	n/a	n/a	-999	2	[9, 4, 8]	21	catFR1	0	R1028M
308.117	6.735	222442	PROB	6.735	n/a	n/a	n/a	-999	2	[8, 8, 3]	19	catFR1	0	R1028M
314.852	0.017	225809	STOP	n/a	n/a	n/a	n/a	-999	2	[-999, -999, -999]	n/a	catFR1	0	R1028M
314.869	1.117	225818	DISTRACT_END	n/a	n/a	n/a	n/a	-999	2	[0, 0, 0]	n/a	catFR1	0	R1028M
315.986	2.844	226376	REC_START	n/a	n/a	n/a	n/a	-999	2	[0, 0, 0]	n/a	catFR1	0	R1028M
318.83	1.548	227798	REC_WORD	1.548	n/a	SUNFLOWER	Flowers	5	2	[0, 0, 0]	n/a	catFR1	0	R1028M
320.378	3.298	228572	REC_WORD	3.298	n/a	DAFFODIL	Flowers	10	2	[0, 0, 0]	n/a	catFR1	0	R1028M
323.676	2.151	230221	REC_WORD	2.151	n/a	OCTOPUS	OceanAnimals	3	2	[0, 0, 0]	n/a	catFR1	0	R1028M
325.827	1.761	231296	REC_WORD	1.761	n/a	JELLYFISH	OceanAnimals	12	2	[0, 0, 0]	n/a	catFR1	0	R1028M
327.588	0.625	232177	REC_WORD	0.625	n/a	BULL	FarmAnimals	2	2	[0, 0, 0]	n/a	catFR1	0	R1028M
328.213	1.238	232489	REC_WORD	1.238	n/a	LAMB	FarmAnimals	1	2	[0, 0, 0]	n/a	catFR1	0	R1028M
329.451	9.62	233108	REC_WORD	9.62	n/a	SHEEP	FarmAnimals	7	2	[0, 0, 0]	n/a	catFR1	0	R1028M
339.071	6.925	237918	REC_WORD	6.925	n/a	ORCHID	Flowers	9	2	[0, 0, 0]	n/a	catFR1	0	R1028M
345.996	27.134	241380	REC_END	n/a	n/a	n/a	n/a	-999	2	[0, 0, 0]	n/a	catFR1	0	R1028M
373.13	0.0	254945	COUNTDOWN_START	n/a	n/a	n/a	n/a	-999	3	[0, 0, 0]	n/a	catFR1	0	R1028M
373.13	10.428	254945	TRIAL	n/a	n/a	n/a	n/a	-999	3	[0, 0, 0]	n/a	catFR1	0	R1028M
383.558	0.008	260159	COUNTDOWN_END	n/a	n/a	n/a	n/a	-999	3	[0, 0, 0]	n/a	catFR1	0	R1028M
383.566	3.6	260163	ORIENT	n/a	n/a	n/a	n/a	-999	3	[0, 0, 0]	n/a	catFR1	0	R1028M
387.166	2.568	261963	WORD	n/a	wordpools/wordpool_categorized_EN.txt	BLOUSE	Clothing	1	3	[0, 0, 0]	n/a	catFR1	0	R1028M
389.734	2.483	263246	WORD	n/a	wordpools/wordpool_categorized_EN.txt	DRESS	Clothing	2	3	[0, 0, 0]	n/a	catFR1	0	R1028M
392.217	2.551	264488	WORD	n/a	wordpools/wordpool_categorized_EN.txt	ELBOW	BodyParts	3	3	[0, 0, 0]	n/a	catFR1	0	R1028M
394.768	2.433	265763	WORD	n/a	wordpools/wordpool_categorized_EN.txt	TOE	BodyParts	4	3	[0, 0, 0]	n/a	catFR1	0	R1028M
397.201	2.385	266980	WORD	n/a	wordpools/wordpool_categorized_EN.txt	GORILLA	Zoo	5	3	[0, 0, 0]	n/a	catFR1	0	R1028M
399.586	2.616	268172	WORD	n/a	wordpools/wordpool_categorized_EN.txt	CHIMPANZEE	Zoo	6	3	[0, 0, 0]	n/a	catFR1	0	R1028M
402.202	2.468	269480	WORD	n/a	wordpools/wordpool_categorized_EN.txt	LEG	BodyParts	7	3	[0, 0, 0]	n/a	catFR1	0	R1028M
404.67	2.382	270714	WORD	n/a	wordpools/wordpool_categorized_EN.txt	HEAD	BodyParts	8	3	[0, 0, 0]	n/a	catFR1	0	R1028M
407.052	2.586	271905	WORD	n/a	wordpools/wordpool_categorized_EN.txt	SHORTS	Clothing	9	3	[0, 0, 0]	n/a	catFR1	0	R1028M
409.638	2.449	273197	WORD	n/a	wordpools/wordpool_categorized_EN.txt	JACKET	Clothing	10	3	[0, 0, 0]	n/a	catFR1	0	R1028M
412.087	2.602	274422	WORD	n/a	wordpools/wordpool_categorized_EN.txt	GIRAFFE	Zoo	11	3	[0, 0, 0]	n/a	catFR1	0	R1028M
414.689	1.616	275723	WORD	n/a	wordpools/wordpool_categorized_EN.txt	TIGER	Zoo	12	3	[0, 0, 0]	n/a	catFR1	0	R1028M
416.305	0.001	276531	DISTRACT_START	n/a	n/a	n/a	n/a	-999	3	[0, 0, 0]	n/a	catFR1	0	R1028M
416.306	0.015	276531	START	n/a	n/a	n/a	n/a	-999	3	[-999, -999, -999]	n/a	catFR1	0	R1028M
416.321	9.869	276539	PROB	9.869	n/a	n/a	n/a	-999	3	[7, 6, 6]	19	catFR1	0	R1028M
426.19	3.867	281473	PROB	3.867	n/a	n/a	n/a	-999	3	[4, 6, 2]	12	catFR1	0	R1028M
430.057	4.502	283406	PROB	4.502	n/a	n/a	n/a	-999	3	[6, 5, 5]	16	catFR1	0	R1028M
434.559	5.636	285657	PROB	5.636	n/a	n/a	n/a	-999	3	[8, 1, 2]	11	catFR1	0	R1028M
440.195	0.014	288474	STOP	n/a	n/a	n/a	n/a	-999	3	[-999, -999, -999]	n/a	catFR1	0	R1028M
440.209	1.219	288481	DISTRACT_END	n/a	n/a	n/a	n/a	-999	3	[0, 0, 0]	n/a	catFR1	0	R1028M
441.428	1.329	289091	REC_START	n/a	n/a	n/a	n/a	-999	3	[0, 0, 0]	n/a	catFR1	0	R1028M
442.757	1.091	289755	REC_WORD	1.091	n/a	GORILLA	Zoo	5	3	[0, 0, 0]	n/a	catFR1	0	R1028M
443.848	1.467	290301	REC_WORD	1.467	n/a	CHIMPANZEE	Zoo	6	3	[0, 0, 0]	n/a	catFR1	0	R1028M
445.315	1.202	291034	REC_WORD	1.202	n/a	TIGER	Zoo	12	3	[0, 0, 0]	n/a	catFR1	0	R1028M
446.517	1.536	291635	REC_WORD	1.536	n/a	GIRAFFE	Zoo	11	3	[0, 0, 0]	n/a	catFR1	0	R1028M
448.053	0.951	292403	REC_WORD	0.951	n/a	BLOUSE	Clothing	1	3	[0, 0, 0]	n/a	catFR1	0	R1028M
449.004	1.37	292878	REC_WORD	1.37	n/a	SHIRT	n/a	-999	3	[0, 0, 0]	n/a	catFR1	0	R1028M
450.374	1.196	293563	REC_WORD	1.196	n/a	ELBOW	BodyParts	3	3	[0, 0, 0]	n/a	catFR1	0	R1028M
451.57	2.73	294161	REC_WORD	2.73	n/a	LEG	BodyParts	7	3	[0, 0, 0]	n/a	catFR1	0	R1028M
454.3	1.503	295526	REC_WORD	1.503	n/a	JACKET	Clothing	10	3	[0, 0, 0]	n/a	catFR1	0	R1028M
455.803	15.635	296278	REC_WORD	15.635	n/a	SHORTS	Clothing	9	3	[0, 0, 0]	n/a	catFR1	0	R1028M
471.438	13.497	304094	REC_END	n/a	n/a	n/a	n/a	-999	3	[0, 0, 0]	n/a	catFR1	0	R1028M
484.935	0.001	310842	COUNTDOWN_START	n/a	n/a	n/a	n/a	-999	4	[0, 0, 0]	n/a	catFR1	0	R1028M
484.936	10.427	310843	TRIAL	n/a	n/a	n/a	n/a	-999	4	[0, 0, 0]	n/a	catFR1	0	R1028M
495.363	0.007	316056	COUNTDOWN_END	n/a	n/a	n/a	n/a	-999	4	[0, 0, 0]	n/a	catFR1	0	R1028M
495.37	3.617	316059	ORIENT	n/a	n/a	n/a	n/a	-999	4	[0, 0, 0]	n/a	catFR1	0	R1028M
498.987	2.401	317867	WORD	n/a	wordpools/wordpool_categorized_EN.txt	MARBLES	Toys	1	4	[0, 0, 0]	n/a	catFR1	0	R1028M
501.388	2.534	319068	WORD	n/a	wordpools/wordpool_categorized_EN.txt	FOOTBALL	Toys	2	4	[0, 0, 0]	n/a	catFR1	0	R1028M
503.922	2.45	320335	WORD	n/a	wordpools/wordpool_categorized_EN.txt	PETUNIA	Flowers	3	4	[0, 0, 0]	n/a	catFR1	0	R1028M
506.372	2.434	321559	WORD	n/a	wordpools/wordpool_categorized_EN.txt	VIOLET	Flowers	4	4	[0, 0, 0]	n/a	catFR1	0	R1028M
508.806	2.533	322776	WORD	n/a	wordpools/wordpool_categorized_EN.txt	PUDDING	Desserts	5	4	[0, 0, 0]	n/a	catFR1	0	R1028M
511.339	2.369	324043	WORD	n/a	wordpools/wordpool_categorized_EN.txt	BROWNIES	Desserts	6	4	[0, 0, 0]	n/a	catFR1	0	R1028M
513.708	2.416	325227	WORD	n/a	wordpools/wordpool_categorized_EN.txt	CARNATION	Flowers	7	4	[0, 0, 0]	n/a	catFR1	0	R1028M
516.124	2.618	326435	WORD	n/a	wordpools/wordpool_categorized_EN.txt	LILY	Flowers	8	4	[0, 0, 0]	n/a	catFR1	0	R1028M
518.742	2.483	327744	WORD	n/a	wordpools/wordpool_categorized_EN.txt	BALL	Toys	9	4	[0, 0, 0]	n/a	catFR1	0	R1028M
521.225	2.535	328985	WORD	n/a	wordpools/wordpool_categorized_EN.txt	BASEBALL	Toys	10	4	[0, 0, 0]	n/a	catFR1	0	R1028M
523.76	2.599	330253	WORD	n/a	wordpools/wordpool_categorized_EN.txt	COBBLER	Desserts	11	4	[0, 0, 0]	n/a	catFR1	0	R1028M
526.359	1.601	331552	WORD	n/a	wordpools/wordpool_categorized_EN.txt	CAKE	Desserts	12	4	[0, 0, 0]	n/a	catFR1	0	R1028M
527.96	0.002	332352	DISTRACT_START	n/a	n/a	n/a	n/a	-999	4	[0, 0, 0]	n/a	catFR1	0	R1028M
527.962	0.014	332353	START	n/a	n/a	n/a	n/a	-999	4	[-999, -999, -999]	n/a	catFR1	0	R1028M
527.976	4.952	332360	PROB	4.952	n/a	n/a	n/a	-999	4	[8, 6, 2]	16	catFR1	0	R1028M
532.928	4.15	334836	PROB	4.15	n/a	n/a	n/a	-999	4	[5, 1, 9]	15	catFR1	0	R1028M
537.078	5.485	336911	PROB	5.485	n/a	n/a	n/a	-999	4	[8, 1, 5]	14	catFR1	0	R1028M
542.563	9.921	339653	PROB	9.921	n/a	n/a	n/a	-999	4	[8, 5, 9]	21	catFR1	0	R1028M
552.484	0.015	344613	STOP	n/a	n/a	n/a	n/a	-999	4	[-999, -999, -999]	n/a	catFR1	0	R1028M
552.499	1.154	344621	DISTRACT_END	n/a	n/a	n/a	n/a	-999	4	[0, 0, 0]	n/a	catFR1	0	R1028M
553.653	1.262	345197	REC_START	n/a	n/a	n/a	n/a	-999	4	[0, 0, 0]	n/a	catFR1	0	R1028M
554.915	1.492	345828	REC_WORD	1.492	n/a	FOOTBALL	Toys	2	4	[0, 0, 0]	n/a	catFR1	0	R1028M
556.407	1.303	346574	REC_WORD	1.303	n/a	MARBLES	Toys	1	4	[0, 0, 0]	n/a	catFR1	0	R1028M
557.71	1.065	347226	REC_WORD	1.065	n/a	PUDDING	Desserts	5	4	[0, 0, 0]	n/a	catFR1	0	R1028M
558.775	1.975	347758	REC_WORD	1.975	n/a	COBBLER	Desserts	11	4	[0, 0, 0]	n/a	catFR1	0	R1028M
560.75	2.059	348746	REC_WORD	2.059	n/a	BROWNIES	Desserts	6	4	[0, 0, 0]	n/a	catFR1	0	R1028M
562.809	1.087	349775	REC_WORD	1.087	n/a	VIOLET	Flowers	4	4	[0, 0, 0]	n/a	catFR1	0	R1028M
563.896	0.765	350318	REC_WORD	0.765	n/a	LILY	Flowers	8	4	[0, 0, 0]	n/a	catFR1	0	R1028M
564.661	4.091	350701	REC_WORD	4.091	n/a	CARNATION	Flowers	7	4	[0, 0, 0]	n/a	catFR1	0	R1028M
568.752	8.734	352746	REC_WORD	8.734	n/a	BALL	Toys	9	4	[0, 0, 0]	n/a	catFR1	0	R1028M
577.486	6.175	357113	REC_WORD	6.175	n/a	BASEBALL	Toys	10	4	[0, 0, 0]	n/a	catFR1	0	R1028M
583.661	18.63	360200	REC_END	n/a	n/a	n/a	n/a	-999	4	[0, 0, 0]	n/a	catFR1	0	R1028M
602.291	0.0	369514	TRIAL	n/a	n/a	n/a	n/a	-999	5	[0, 0, 0]	n/a	catFR1	0	R1028M
602.291	10.428	369514	COUNTDOWN_START	n/a	n/a	n/a	n/a	-999	5	[0, 0, 0]	n/a	catFR1	0	R1028M
612.719	0.008	374727	COUNTDOWN_END	n/a	n/a	n/a	n/a	-999	5	[0, 0, 0]	n/a	catFR1	0	R1028M
612.727	3.834	374731	ORIENT	n/a	n/a	n/a	n/a	-999	5	[0, 0, 0]	n/a	catFR1	0	R1028M
616.561	2.583	376648	WORD	n/a	wordpools/wordpool_categorized_EN.txt	OVEN	Appliances	1	5	[0, 0, 0]	n/a	catFR1	0	R1028M
619.144	2.585	377940	WORD	n/a	wordpools/wordpool_categorized_EN.txt	REFRIGERATOR	Appliances	2	5	[0, 0, 0]	n/a	catFR1	0	R1028M
621.729	2.582	379232	WORD	n/a	wordpools/wordpool_categorized_EN.txt	ROACH	Insects	3	5	[0, 0, 0]	n/a	catFR1	0	R1028M
624.311	2.602	380523	WORD	n/a	wordpools/wordpool_categorized_EN.txt	MOTH	Insects	4	5	[0, 0, 0]	n/a	catFR1	0	R1028M
626.913	2.5	381824	WORD	n/a	wordpools/wordpool_categorized_EN.txt	EVERGREEN	Trees	5	5	[0, 0, 0]	n/a	catFR1	0	R1028M
629.413	2.617	383074	WORD	n/a	wordpools/wordpool_categorized_EN.txt	BIRCH	Trees	6	5	[0, 0, 0]	n/a	catFR1	0	R1028M
632.03	2.584	384382	WORD	n/a	wordpools/wordpool_categorized_EN.txt	BUTTERFLY	Insects	7	5	[0, 0, 0]	n/a	catFR1	0	R1028M
634.614	2.483	385674	WORD	n/a	wordpools/wordpool_categorized_EN.txt	BEE	Insects	8	5	[0, 0, 0]	n/a	catFR1	0	R1028M
637.097	2.385	386915	WORD	n/a	wordpools/wordpool_categorized_EN.txt	DISHWASHER	Appliances	9	5	[0, 0, 0]	n/a	catFR1	0	R1028M
639.482	2.583	388108	WORD	n/a	wordpools/wordpool_categorized_EN.txt	MIXER	Appliances	10	5	[0, 0, 0]	n/a	catFR1	0	R1028M
642.065	2.618	389399	WORD	n/a	wordpools/wordpool_categorized_EN.txt	OAK	Trees	11	5	[0, 0, 0]	n/a	catFR1	0	R1028M
644.683	1.616	390708	WORD	n/a	wordpools/wordpool_categorized_EN.txt	HICKORY	Trees	12	5	[0, 0, 0]	n/a	catFR1	0	R1028M
646.299	0.001	391516	DISTRACT_START	n/a	n/a	n/a	n/a	-999	5	[0, 0, 0]	n/a	catFR1	0	R1028M
646.3	0.016	391516	START	n/a	n/a	n/a	n/a	-999	5	[-999, -999, -999]	n/a	catFR1	0	R1028M
646.316	7.235	391524	PROB	7.235	n/a	n/a	n/a	-999	5	[1, 4, 7]	12	catFR1	0	R1028M
653.551	7.168	395141	PROB	7.168	n/a	n/a	n/a	-999	5	[1, 7, 8]	16	catFR1	0	R1028M
660.719	4.101	398725	PROB	4.101	n/a	n/a	n/a	-999	5	[5, 4, 5]	14	catFR1	0	R1028M
664.82	5.294	400775	PROB	5.294	n/a	n/a	n/a	-999	5	[1, 6, 7]	14	catFR1	0	R1028M
670.114	0.006	403422	STOP	n/a	n/a	n/a	n/a	-999	5	[-999, -999, -999]	n/a	catFR1	0	R1028M
670.12	1.084	403425	DISTRACT_END	n/a	n/a	n/a	n/a	-999	5	[0, 0, 0]	n/a	catFR1	0	R1028M
671.204	1.227	403967	REC_START	n/a	n/a	n/a	n/a	-999	5	[0, 0, 0]	n/a	catFR1	0	R1028M
672.431	1.196	404580	REC_WORD	1.196	n/a	OVEN	Appliances	1	5	[0, 0, 0]	n/a	catFR1	0	R1028M
673.627	1.338	405178	REC_WORD	1.338	n/a	REFRIGERATOR	Appliances	2	5	[0, 0, 0]	n/a	catFR1	0	R1028M
674.965	1.424	405847	REC_WORD	1.424	n/a	DISHWASHER	Appliances	9	5	[0, 0, 0]	n/a	catFR1	0	R1028M
676.389	1.456	406559	REC_WORD	1.456	n/a	MIXER	Appliances	10	5	[0, 0, 0]	n/a	catFR1	0	R1028M
677.845	1.242	407287	REC_WORD	1.242	n/a	ROACH	Insects	3	5	[0, 0, 0]	n/a	catFR1	0	R1028M
679.087	22.129	407908	REC_WORD	22.129	n/a	MOTH	Insects	4	5	[0, 0, 0]	n/a	catFR1	0	R1028M
701.216	8.313	418971	REC_END	n/a	n/a	n/a	n/a	-999	5	[0, 0, 0]	n/a	catFR1	0	R1028M
709.529	0.0	423127	TRIAL	n/a	n/a	n/a	n/a	-999	6	[0, 0, 0]	n/a	catFR1	0	R1028M
709.529	10.428	423127	COUNTDOWN_START	n/a	n/a	n/a	n/a	-999	6	[0, 0, 0]	n/a	catFR1	0	R1028M
719.957	0.006	428341	COUNTDOWN_END	n/a	n/a	n/a	n/a	-999	6	[0, 0, 0]	n/a	catFR1	0	R1028M
719.963	3.585	428344	ORIENT	n/a	n/a	n/a	n/a	-999	6	[0, 0, 0]	n/a	catFR1	0	R1028M
723.548	2.566	430136	WORD	n/a	wordpools/wordpool_categorized_EN.txt	GLUE	OfficeSupplies	1	6	[0, 0, 0]	n/a	catFR1	0	R1028M
726.114	2.585	431419	WORD	n/a	wordpools/wordpool_categorized_EN.txt	TAPE	OfficeSupplies	2	6	[0, 0, 0]	n/a	catFR1	0	R1028M
728.699	2.616	432711	WORD	n/a	wordpools/wordpool_categorized_EN.txt	HAMMER	Tools	3	6	[0, 0, 0]	n/a	catFR1	0	R1028M
731.315	2.602	434019	WORD	n/a	wordpools/wordpool_categorized_EN.txt	SANDER	Tools	4	6	[0, 0, 0]	n/a	catFR1	0	R1028M
733.917	2.416	435320	WORD	n/a	wordpools/wordpool_categorized_EN.txt	HEADPHONES	Electronics	5	6	[0, 0, 0]	n/a	catFR1	0	R1028M
736.333	2.452	436528	WORD	n/a	wordpools/wordpool_categorized_EN.txt	TABLET	Electronics	6	6	[0, 0, 0]	n/a	catFR1	0	R1028M
738.785	2.449	437754	WORD	n/a	wordpools/wordpool_categorized_EN.txt	RATCHET	Tools	7	6	[0, 0, 0]	n/a	catFR1	0	R1028M
741.234	2.468	438978	WORD	n/a	wordpools/wordpool_categorized_EN.txt	DRILL	Tools	8	6	[0, 0, 0]	n/a	catFR1	0	R1028M
743.702	2.4	440212	WORD	n/a	wordpools/wordpool_categorized_EN.txt	RULER	OfficeSupplies	9	6	[0, 0, 0]	n/a	catFR1	0	R1028M
746.102	2.584	441412	WORD	n/a	wordpools/wordpool_categorized_EN.txt	PENCIL	OfficeSupplies	10	6	[0, 0, 0]	n/a	catFR1	0	R1028M
748.686	2.45	442704	WORD	n/a	wordpools/wordpool_categorized_EN.txt	TELEVISION	Electronics	11	6	[0, 0, 0]	n/a	catFR1	0	R1028M
751.136	1.618	443929	WORD	n/a	wordpools/wordpool_categorized_EN.txt	SCANNER	Electronics	12	6	[0, 0, 0]	n/a	catFR1	0	R1028M
752.754	0.001	444738	DISTRACT_START	n/a	n/a	n/a	n/a	-999	6	[0, 0, 0]	n/a	catFR1	0	R1028M
752.755	0.016	444738	START	n/a	n/a	n/a	n/a	-999	6	[-999, -999, -999]	n/a	catFR1	0	R1028M
752.771	6.934	444746	PROB	6.934	n/a	n/a	n/a	-999	6	[9, 3, 6]	18	catFR1	0	R1028M
759.705	8.301	448213	PROB	8.301	n/a	n/a	n/a	-999	6	[7, 9, 4]	20	catFR1	0	R1028M
768.006	4.733	452363	PROB	4.733	n/a	n/a	n/a	-999	6	[7, 4, 1]	12	catFR1	0	R1028M
772.739	0.019	454729	STOP	n/a	n/a	n/a	n/a	-999	6	[-999, -999, -999]	n/a	catFR1	0	R1028M
772.758	1.05	454739	DISTRACT_END	n/a	n/a	n/a	n/a	-999	6	[0, 0, 0]	n/a	catFR1	0	R1028M
773.808	1.29	455264	REC_START	n/a	n/a	n/a	n/a	-999	6	[0, 0, 0]	n/a	catFR1	0	R1028M
775.098	0.952	455909	REC_WORD	0.952	n/a	HAMMER	Tools	3	6	[0, 0, 0]	n/a	catFR1	0	R1028M
776.05	0.538	456385	REC_WORD	0.538	n/a	DRILL	Tools	8	6	[0, 0, 0]	n/a	catFR1	0	R1028M
776.588	0.994	456653	REC_WORD	0.994	n/a	SANDER	Tools	4	6	[0, 0, 0]	n/a	catFR1	0	R1028M
777.582	1.072	457150	REC_WORD	1.072	n/a	TAPE	OfficeSupplies	2	6	[0, 0, 0]	n/a	catFR1	0	R1028M
778.654	0.811	457686	REC_WORD	0.811	n/a	GLUE	OfficeSupplies	1	6	[0, 0, 0]	n/a	catFR1	0	R1028M
779.465	23.556	458092	REC_WORD	23.556	n/a	RATCHET	Tools	7	6	[0, 0, 0]	n/a	catFR1	0	R1028M
803.021	0.8	469869	REC_WORD	0.8	n/a	PENCIL	OfficeSupplies	10	6	[0, 0, 0]	n/a	catFR1	0	R1028M
803.821	50.002	470269	REC_END	n/a	n/a	n/a	n/a	-999	6	[0, 0, 0]	n/a	catFR1	0	R1028M
853.823	0.0	495267	COUNTDOWN_START	n/a	n/a	n/a	n/a	-999	7	[0, 0, 0]	n/a	catFR1	0	R1028M
853.823	10.428	495267	TRIAL	n/a	n/a	n/a	n/a	-999	7	[0, 0, 0]	n/a	catFR1	0	R1028M
864.251	0.007	500480	COUNTDOWN_END	n/a	n/a	n/a	n/a	-999	7	[0, 0, 0]	n/a	catFR1	0	R1028M
864.258	3.734	500484	ORIENT	n/a	n/a	n/a	n/a	-999	7	[0, 0, 0]	n/a	catFR1	0	R1028M
867.992	2.551	502351	WORD	n/a	wordpools/wordpool_categorized_EN.txt	LOBSTER	OceanAnimals	1	7	[0, 0, 0]	n/a	catFR1	0	R1028M
870.543	2.55	503626	WORD	n/a	wordpools/wordpool_categorized_EN.txt	DOLPHIN	OceanAnimals	2	7	[0, 0, 0]	n/a	catFR1	0	R1028M
873.093	2.468	504901	WORD	n/a	wordpools/wordpool_categorized_EN.txt	HILLS	Landscapes	3	7	[0, 0, 0]	n/a	catFR1	0	R1028M
875.561	2.533	506135	WORD	n/a	wordpools/wordpool_categorized_EN.txt	OCEAN	Landscapes	4	7	[0, 0, 0]	n/a	catFR1	0	R1028M
878.094	2.518	507401	WORD	n/a	wordpools/wordpool_categorized_EN.txt	SPIDER	Insects	5	7	[0, 0, 0]	n/a	catFR1	0	R1028M
880.612	2.499	508660	WORD	n/a	wordpools/wordpool_categorized_EN.txt	GNAT	Insects	6	7	[0, 0, 0]	n/a	catFR1	0	R1028M
883.111	2.419	509910	WORD	n/a	wordpools/wordpool_categorized_EN.txt	SQUID	OceanAnimals	7	7	[0, 0, 0]	n/a	catFR1	0	R1028M
885.53	2.499	511119	WORD	n/a	wordpools/wordpool_categorized_EN.txt	PLANKTON	OceanAnimals	8	7	[0, 0, 0]	n/a	catFR1	0	R1028M
888.029	2.585	512368	WORD	n/a	wordpools/wordpool_categorized_EN.txt	LADYBUG	Insects	9	7	[0, 0, 0]	n/a	catFR1	0	R1028M
890.614	2.466	513661	WORD	n/a	wordpools/wordpool_categorized_EN.txt	FLY	Insects	10	7	[0, 0, 0]	n/a	catFR1	0	R1028M
893.08	2.401	514893	WORD	n/a	wordpools/wordpool_categorized_EN.txt	ISLAND	Landscapes	11	7	[0, 0, 0]	n/a	catFR1	0	R1028M
895.481	1.617	516094	WORD	n/a	wordpools/wordpool_categorized_EN.txt	FOREST	Landscapes	12	7	[0, 0, 0]	n/a	catFR1	0	R1028M
897.098	0.001	516902	DISTRACT_START	n/a	n/a	n/a	n/a	-999	7	[0, 0, 0]	n/a	catFR1	0	R1028M
897.099	0.015	516903	START	n/a	n/a	n/a	n/a	-999	7	[-999, -999, -999]	n/a	catFR1	0	R1028M
897.114	9.252	516910	PROB	9.252	n/a	n/a	n/a	-999	7	[8, 1, 8]	17	catFR1	0	R1028M
906.366	6.918	521536	PROB	6.918	n/a	n/a	n/a	-999	7	[6, 8, 3]	17	catFR1	0	R1028M
913.284	4.448	524994	PROB	4.448	n/a	n/a	n/a	-999	7	[3, 4, 2]	9	catFR1	0	R1028M
917.732	0.004	527218	STOP	n/a	n/a	n/a	n/a	-999	7	[-999, -999, -999]	n/a	catFR1	0	R1028M
917.736	1.134	527220	DISTRACT_END	n/a	n/a	n/a	n/a	-999	7	[0, 0, 0]	n/a	catFR1	0	R1028M
918.87	1.589	527787	REC_START	n/a	n/a	n/a	n/a	-999	7	[0, 0, 0]	n/a	catFR1	0	R1028M
920.459	1.034	528582	REC_WORD	1.034	n/a	OCEAN	Landscapes	4	7	[0, 0, 0]	n/a	catFR1	0	R1028M
921.493	1.669	529099	REC_WORD	1.669	n/a	DOLPHIN	OceanAnimals	2	7	[0, 0, 0]	n/a	catFR1	0	R1028M
923.162	1.475	529933	REC_WORD	1.475	n/a	PLANKTON	OceanAnimals	8	7	[0, 0, 0]	n/a	catFR1	0	R1028M
924.637	0.897	530670	REC_WORD	0.897	n/a	ISLAND	Landscapes	11	7	[0, 0, 0]	n/a	catFR1	0	R1028M
925.534	1.304	531119	REC_WORD	1.304	n/a	HILLS	Landscapes	3	7	[0, 0, 0]	n/a	catFR1	0	R1028M
926.838	0.741	531771	REC_WORD	0.741	n/a	GNAT	Insects	6	7	[0, 0, 0]	n/a	catFR1	0	R1028M
927.579	1.546	532141	REC_WORD	1.546	n/a	FLY	Insects	10	7	[0, 0, 0]	n/a	catFR1	0	R1028M
929.125	1.607	532914	REC_WORD	1.607	n/a	LADYBUG	Insects	9	7	[0, 0, 0]	n/a	catFR1	0	R1028M
930.732	6.429	533718	REC_WORD	6.429	n/a	SQUID	OceanAnimals	7	7	[0, 0, 0]	n/a	catFR1	0	R1028M
937.161	11.718	536932	REC_WORD	11.718	n/a	ISLAND	Landscapes	11	7	[0, 0, 0]	n/a	catFR1	0	R1028M
948.879	29.885	542790	REC_END	n/a	n/a	n/a	n/a	-999	7	[0, 0, 0]	n/a	catFR1	0	R1028M
978.764	0.001	557731	COUNTDOWN_START	n/a	n/a	n/a	n/a	-999	8	[0, 0, 0]	n/a	catFR1	0	R1028M
978.765	10.427	557732	TRIAL	n/a	n/a	n/a	n/a	-999	8	[0, 0, 0]	n/a	catFR1	0	R1028M
989.192	0.007	562945	COUNTDOWN_END	n/a	n/a	n/a	n/a	-999	8	[0, 0, 0]	n/a	catFR1	0	R1028M
989.199	3.934	562948	ORIENT	n/a	n/a	n/a	n/a	-999	8	[0, 0, 0]	n/a	catFR1	0	R1028M
993.133	2.401	564915	WORD	n/a	wordpools/wordpool_categorized_EN.txt	PIGEON	Birds	1	8	[0, 0, 0]	n/a	catFR1	0	R1028M
995.534	2.483	566115	WORD	n/a	wordpools/wordpool_categorized_EN.txt	GOOSE	Birds	2	8	[0, 0, 0]	n/a	catFR1	0	R1028M
998.017	2.501	567357	WORD	n/a	wordpools/wordpool_categorized_EN.txt	DOOR	Building	3	8	[0, 0, 0]	n/a	catFR1	0	R1028M
1000.518	2.434	568607	WORD	n/a	wordpools/wordpool_categorized_EN.txt	HALLWAY	Building	4	8	[0, 0, 0]	n/a	catFR1	0	R1028M
1002.952	2.383	569824	WORD	n/a	wordpools/wordpool_categorized_EN.txt	SAW	Tools	5	8	[0, 0, 0]	n/a	catFR1	0	R1028M
1005.335	2.368	571015	WORD	n/a	wordpools/wordpool_categorized_EN.txt	CROWBAR	Tools	6	8	[0, 0, 0]	n/a	catFR1	0	R1028M
1007.703	2.55	572199	WORD	n/a	wordpools/wordpool_categorized_EN.txt	CROW	Birds	7	8	[0, 0, 0]	n/a	catFR1	0	R1028M
1010.253	2.618	573474	WORD	n/a	wordpools/wordpool_categorized_EN.txt	SEAGULL	Birds	8	8	[0, 0, 0]	n/a	catFR1	0	R1028M
1012.871	2.466	574783	WORD	n/a	wordpools/wordpool_categorized_EN.txt	SCREWDRIVER	Tools	9	8	[0, 0, 0]	n/a	catFR1	0	R1028M
1015.337	2.435	576016	WORD	n/a	wordpools/wordpool_categorized_EN.txt	WRENCH	Tools	10	8	[0, 0, 0]	n/a	catFR1	0	R1028M
1017.772	2.583	577233	WORD	n/a	wordpools/wordpool_categorized_EN.txt	CEILING	Building	11	8	[0, 0, 0]	n/a	catFR1	0	R1028M
1020.355	1.617	578524	WORD	n/a	wordpools/wordpool_categorized_EN.txt	WINDOW	Building	12	8	[0, 0, 0]	n/a	catFR1	0	R1028M
1021.972	0.001	579333	DISTRACT_START	n/a	n/a	n/a	n/a	-999	8	[0, 0, 0]	n/a	catFR1	0	R1028M
1021.973	0.015	579333	START	n/a	n/a	n/a	n/a	-999	8	[-999, -999, -999]	n/a	catFR1	0	R1028M
1021.988	5.469	579341	PROB	5.469	n/a	n/a	n/a	-999	8	[4, 5, 9]	18	catFR1	0	R1028M
1027.457	4.284	582075	PROB	4.284	n/a	n/a	n/a	-999	8	[9, 6, 3]	18	catFR1	0	R1028M
1031.741	4.55	584217	PROB	4.55	n/a	n/a	n/a	-999	8	[6, 1, 3]	10	catFR1	0	R1028M
1036.291	4.619	586492	PROB	4.619	n/a	n/a	n/a	-999	8	[3, 5, 7]	15	catFR1	0	R1028M
1040.91	4.774	588801	PROB	4.774	n/a	n/a	n/a	-999	8	[6, 1, 1]	8	catFR1	0	R1028M
1045.684	0.01	591188	STOP	n/a	n/a	n/a	n/a	-999	8	[-999, -999, -999]	n/a	catFR1	0	R1028M
1045.694	1.084	591193	DISTRACT_END	n/a	n/a	n/a	n/a	-999	8	[0, 0, 0]	n/a	catFR1	0	R1028M
1046.778	0.635	591735	REC_START	n/a	n/a	n/a	n/a	-999	8	[0, 0, 0]	n/a	catFR1	0	R1028M
1047.413	1.258	592052	REC_WORD	1.258	n/a	HALLWAY	Building	4	8	[0, 0, 0]	n/a	catFR1	0	R1028M
1048.671	1.228	592681	REC_WORD	1.228	n/a	CEILING	Building	11	8	[0, 0, 0]	n/a	catFR1	0	R1028M
1049.899	1.085	593295	REC_WORD	1.085	n/a	WRENCH	Tools	10	8	[0, 0, 0]	n/a	catFR1	0	R1028M
1050.984	1.576	593837	REC_WORD	1.576	n/a	SCREWDRIVER	Tools	9	8	[0, 0, 0]	n/a	catFR1	0	R1028M
1052.56	1.482	594625	REC_WORD	1.482	n/a	PIGEON	Birds	1	8	[0, 0, 0]	n/a	catFR1	0	R1028M
1054.042	8.578	595366	REC_WORD	8.578	n/a	GOOSE	Birds	2	8	[0, 0, 0]	n/a	catFR1	0	R1028M
1062.62	3.697	599655	REC_WORD	3.697	n/a	SCARECROW	n/a	-999	8	[0, 0, 0]	n/a	catFR1	0	R1028M
1066.317	10.472	601503	REC_WORD	10.472	n/a	CROW	Birds	7	8	[0, 0, 0]	n/a	catFR1	0	R1028M
1076.789	33.45	606739	REC_END	n/a	n/a	n/a	n/a	-999	8	[0, 0, 0]	n/a	catFR1	0	R1028M
1110.239	0.0	623462	TRIAL	n/a	n/a	n/a	n/a	-999	9	[0, 0, 0]	n/a	catFR1	0	R1028M
1110.239	10.428	623462	COUNTDOWN_START	n/a	n/a	n/a	n/a	-999	9	[0, 0, 0]	n/a	catFR1	0	R1028M
1120.667	0.008	628675	COUNTDOWN_END	n/a	n/a	n/a	n/a	-999	9	[0, 0, 0]	n/a	catFR1	0	R1028M
1120.675	3.801	628679	ORIENT	n/a	n/a	n/a	n/a	-999	9	[0, 0, 0]	n/a	catFR1	0	R1028M
1124.476	2.566	630580	WORD	n/a	wordpools/wordpool_categorized_EN.txt	SLINKY	Toys	1	9	[0, 0, 0]	n/a	catFR1	0	R1028M
1127.042	2.401	631862	WORD	n/a	wordpools/wordpool_categorized_EN.txt	DOLL	Toys	2	9	[0, 0, 0]	n/a	catFR1	0	R1028M
1129.443	2.55	633063	WORD	n/a	wordpools/wordpool_categorized_EN.txt	ERASER	OfficeSupplies	3	9	[0, 0, 0]	n/a	catFR1	0	R1028M
1131.993	2.417	634338	WORD	n/a	wordpools/wordpool_categorized_EN.txt	PAPER	OfficeSupplies	4	9	[0, 0, 0]	n/a	catFR1	0	R1028M
1134.41	2.535	635546	WORD	n/a	wordpools/wordpool_categorized_EN.txt	ELEPHANT	Zoo	5	9	[0, 0, 0]	n/a	catFR1	0	R1028M
1136.945	2.383	636813	WORD	n/a	wordpools/wordpool_categorized_EN.txt	ZEBRA	Zoo	6	9	[0, 0, 0]	n/a	catFR1	0	R1028M
1139.328	2.534	638005	WORD	n/a	wordpools/wordpool_categorized_EN.txt	BASKETBALL	Toys	7	9	[0, 0, 0]	n/a	catFR1	0	R1028M
1141.862	2.417	639272	WORD	n/a	wordpools/wordpool_categorized_EN.txt	FRISBEE	Toys	8	9	[0, 0, 0]	n/a	catFR1	0	R1028M
1144.279	2.468	640480	WORD	n/a	wordpools/wordpool_categorized_EN.txt	LION	Zoo	9	9	[0, 0, 0]	n/a	catFR1	0	R1028M
1146.747	2.533	641714	WORD	n/a	wordpools/wordpool_categorized_EN.txt	BEAR	Zoo	10	9	[0, 0, 0]	n/a	catFR1	0	R1028M
1149.28	2.418	642980	WORD	n/a	wordpools/wordpool_categorized_EN.txt	MARKER	OfficeSupplies	11	9	[0, 0, 0]	n/a	catFR1	0	R1028M
1151.698	1.616	644189	WORD	n/a	wordpools/wordpool_categorized_EN.txt	PEN	OfficeSupplies	12	9	[0, 0, 0]	n/a	catFR1	0	R1028M
1153.314	0.001	644997	DISTRACT_START	n/a	n/a	n/a	n/a	-999	9	[0, 0, 0]	n/a	catFR1	0	R1028M
1153.315	0.015	644998	START	n/a	n/a	n/a	n/a	-999	9	[-999, -999, -999]	n/a	catFR1	0	R1028M
1153.33	8.035	645005	PROB	8.035	n/a	n/a	n/a	-999	9	[9, 5, 6]	20	catFR1	0	R1028M
1161.365	4.419	649022	PROB	4.419	n/a	n/a	n/a	-999	9	[2, 3, 2]	7	catFR1	0	R1028M
1165.784	5.684	651231	PROB	5.684	n/a	n/a	n/a	-999	9	[1, 8, 6]	15	catFR1	0	R1028M
1171.468	8.655	654073	PROB	8.655	n/a	n/a	n/a	-999	9	[4, 8, 7]	19	catFR1	0	R1028M
1180.123	0.012	658400	STOP	n/a	n/a	n/a	n/a	-999	9	[-999, -999, -999]	n/a	catFR1	0	R1028M
1180.135	1.134	658406	DISTRACT_END	n/a	n/a	n/a	n/a	-999	9	[0, 0, 0]	n/a	catFR1	0	R1028M
1181.269	0.933	658973	REC_START	n/a	n/a	n/a	n/a	-999	9	[0, 0, 0]	n/a	catFR1	0	R1028M
1182.202	0.974	659440	REC_WORD	0.974	n/a	ERASER	OfficeSupplies	3	9	[0, 0, 0]	n/a	catFR1	0	R1028M
1183.176	1.504	659927	REC_WORD	1.504	n/a	PAPER	OfficeSupplies	4	9	[0, 0, 0]	n/a	catFR1	0	R1028M
1184.68	0.811	660678	REC_WORD	0.811	n/a	MARKER	OfficeSupplies	11	9	[0, 0, 0]	n/a	catFR1	0	R1028M
1185.491	0.662	661084	REC_WORD	0.662	n/a	PEN	OfficeSupplies	12	9	[0, 0, 0]	n/a	catFR1	0	R1028M
1186.153	0.687	661415	REC_WORD	0.687	n/a	ELEPHANT	Zoo	5	9	[0, 0, 0]	n/a	catFR1	0	R1028M
1186.84	1.197	661758	REC_WORD	1.197	n/a	ZEBRA	Zoo	6	9	[0, 0, 0]	n/a	catFR1	0	R1028M
1188.037	1.185	662357	REC_WORD	1.185	n/a	BEAR	Zoo	10	9	[0, 0, 0]	n/a	catFR1	0	R1028M
1189.222	1.203	662949	REC_WORD	1.203	n/a	LION	Zoo	9	9	[0, 0, 0]	n/a	catFR1	0	R1028M
1190.425	1.404	663551	REC_WORD	1.404	n/a	SLINKY	Toys	1	9	[0, 0, 0]	n/a	catFR1	0	R1028M
1191.829	4.415	664253	REC_WORD	4.415	n/a	STAIRS	n/a	-999	9	[0, 0, 0]	n/a	catFR1	0	R1028M
1196.244	15.036	666460	REC_WORD	15.036	n/a	DOLL	Toys	2	9	[0, 0, 0]	n/a	catFR1	0	R1028M
1211.28	81.877	673977	REC_END	n/a	n/a	n/a	n/a	-999	9	[0, 0, 0]	n/a	catFR1	0	R1028M
1293.157	0.001	714911	COUNTDOWN_START	n/a	n/a	n/a	n/a	-999	10	[0, 0, 0]	n/a	catFR1	0	R1028M
1293.158	10.427	714912	TRIAL	n/a	n/a	n/a	n/a	-999	10	[0, 0, 0]	n/a	catFR1	0	R1028M
1303.585	0.009	720125	COUNTDOWN_END	n/a	n/a	n/a	n/a	-999	10	[0, 0, 0]	n/a	catFR1	0	R1028M
1303.594	3.716	720129	ORIENT	n/a	n/a	n/a	n/a	-999	10	[0, 0, 0]	n/a	catFR1	0	R1028M
1307.31	2.435	721987	WORD	n/a	wordpools/wordpool_categorized_EN.txt	ANT	Insects	1	10	[0, 0, 0]	n/a	catFR1	0	R1028M
1309.745	2.416	723205	WORD	n/a	wordpools/wordpool_categorized_EN.txt	MOSQUITO	Insects	2	10	[0, 0, 0]	n/a	catFR1	0	R1028M
1312.161	2.485	724412	WORD	n/a	wordpools/wordpool_categorized_EN.txt	MOPED	Vehicles	3	10	[0, 0, 0]	n/a	catFR1	0	R1028M
1314.646	2.416	725655	WORD	n/a	wordpools/wordpool_categorized_EN.txt	TRUCK	Vehicles	4	10	[0, 0, 0]	n/a	catFR1	0	R1028M
1317.062	2.435	726863	WORD	n/a	wordpools/wordpool_categorized_EN.txt	MICROWAVE	Electronics	5	10	[0, 0, 0]	n/a	catFR1	0	R1028M
1319.497	2.433	728080	WORD	n/a	wordpools/wordpool_categorized_EN.txt	COMPUTER	Electronics	6	10	[0, 0, 0]	n/a	catFR1	0	R1028M
1321.93	2.618	729296	WORD	n/a	wordpools/wordpool_categorized_EN.txt	CRICKET	Insects	7	10	[0, 0, 0]	n/a	catFR1	0	R1028M
1324.548	2.599	730605	WORD	n/a	wordpools/wordpool_categorized_EN.txt	BEETLE	Insects	8	10	[0, 0, 0]	n/a	catFR1	0	R1028M
1327.147	2.435	731905	WORD	n/a	wordpools/wordpool_categorized_EN.txt	CALCULATOR	Electronics	9	10	[0, 0, 0]	n/a	catFR1	0	R1028M
1329.582	2.549	733122	WORD	n/a	wordpools/wordpool_categorized_EN.txt	RADIO	Electronics	10	10	[0, 0, 0]	n/a	catFR1	0	R1028M
1332.131	2.419	734396	WORD	n/a	wordpools/wordpool_categorized_EN.txt	CAR	Vehicles	11	10	[0, 0, 0]	n/a	catFR1	0	R1028M
1334.55	1.616	735606	WORD	n/a	wordpools/wordpool_categorized_EN.txt	SCOOTER	Vehicles	12	10	[0, 0, 0]	n/a	catFR1	0	R1028M
1336.166	0.001	736414	DISTRACT_START	n/a	n/a	n/a	n/a	-999	10	[0, 0, 0]	n/a	catFR1	0	R1028M
1336.167	0.015	736414	START	n/a	n/a	n/a	n/a	-999	10	[-999, -999, -999]	n/a	catFR1	0	R1028M
1336.182	3.868	736422	PROB	3.868	n/a	n/a	n/a	-999	10	[2, 8, 3]	13	catFR1	0	R1028M
1340.05	14.687	738355	PROB	14.687	n/a	n/a	n/a	-999	10	[6, 7, 5]	18	catFR1	0	R1028M
1354.737	6.321	745698	PROB	6.321	n/a	n/a	n/a	-999	10	[9, 4, 3]	16	catFR1	0	R1028M
1361.058	0.012	748858	STOP	n/a	n/a	n/a	n/a	-999	10	[-999, -999, -999]	n/a	catFR1	0	R1028M
1361.07	1.085	748864	DISTRACT_END	n/a	n/a	n/a	n/a	-999	10	[0, 0, 0]	n/a	catFR1	0	R1028M
1362.155	1.102	749407	REC_START	n/a	n/a	n/a	n/a	-999	10	[0, 0, 0]	n/a	catFR1	0	R1028M
1363.257	0.591	749958	REC_WORD	0.591	n/a	ANT	Insects	1	10	[0, 0, 0]	n/a	catFR1	0	R1028M
1363.848	1.251	750253	REC_WORD	1.251	n/a	MOSQUITO	Insects	2	10	[0, 0, 0]	n/a	catFR1	0	R1028M
1365.099	0.714	750879	REC_WORD	0.714	n/a	BEETLE	Insects	8	10	[0, 0, 0]	n/a	catFR1	0	R1028M
1365.813	1.024	751236	REC_WORD	1.024	n/a	TRUCK	Vehicles	4	10	[0, 0, 0]	n/a	catFR1	0	R1028M
1366.837	1.019	751748	REC_WORD	1.019	n/a	CAR	Vehicles	11	10	[0, 0, 0]	n/a	catFR1	0	R1028M
1367.856	5.302	752257	REC_WORD	5.302	n/a	MOPED	Vehicles	3	10	[0, 0, 0]	n/a	catFR1	0	R1028M
1373.158	19.008	754908	REC_WORD	19.008	n/a	SCOOTER	Vehicles	12	10	[0, 0, 0]	n/a	catFR1	0	R1028M
1392.166	11.896	764411	REC_END	n/a	n/a	n/a	n/a	-999	10	[0, 0, 0]	n/a	catFR1	0	R1028M
1404.062	0.0	770358	TRIAL	n/a	n/a	n/a	n/a	-999	11	[0, 0, 0]	n/a	catFR1	0	R1028M
1404.062	10.428	770358	COUNTDOWN_START	n/a	n/a	n/a	n/a	-999	11	[0, 0, 0]	n/a	catFR1	0	R1028M
1414.49	0.008	775572	COUNTDOWN_END	n/a	n/a	n/a	n/a	-999	11	[0, 0, 0]	n/a	catFR1	0	R1028M
1414.498	3.7	775576	ORIENT	n/a	n/a	n/a	n/a	-999	11	[0, 0, 0]	n/a	catFR1	0	R1028M
1418.198	2.435	777425	WORD	n/a	wordpools/wordpool_categorized_EN.txt	ARM	BodyParts	1	11	[0, 0, 0]	n/a	catFR1	0	R1028M
1420.633	2.583	778643	WORD	n/a	wordpools/wordpool_categorized_EN.txt	KNEE	BodyParts	2	11	[0, 0, 0]	n/a	catFR1	0	R1028M
1423.216	2.535	779934	WORD	n/a	wordpools/wordpool_categorized_EN.txt	CARDINAL	Birds	3	11	[0, 0, 0]	n/a	catFR1	0	R1028M
1425.751	2.432	781202	WORD	n/a	wordpools/wordpool_categorized_EN.txt	SPARROW	Birds	4	11	[0, 0, 0]	n/a	catFR1	0	R1028M
1428.183	2.435	782417	WORD	n/a	wordpools/wordpool_categorized_EN.txt	TRAIN	Vehicles	5	11	[0, 0, 0]	n/a	catFR1	0	R1028M
1430.618	2.466	783635	WORD	n/a	wordpools/wordpool_categorized_EN.txt	MOTORCYCLE	Vehicles	6	11	[0, 0, 0]	n/a	catFR1	0	R1028M
1433.084	2.468	784868	WORD	n/a	wordpools/wordpool_categorized_EN.txt	DUCK	Birds	7	11	[0, 0, 0]	n/a	catFR1	0	R1028M
1435.552	2.533	786102	WORD	n/a	wordpools/wordpool_categorized_EN.txt	DOVE	Birds	8	11	[0, 0, 0]	n/a	catFR1	0	R1028M
1438.085	2.485	787368	WORD	n/a	wordpools/wordpool_categorized_EN.txt	HAND	BodyParts	9	11	[0, 0, 0]	n/a	catFR1	0	R1028M
1440.57	2.5	788610	WORD	n/a	wordpools/wordpool_categorized_EN.txt	FINGERS	BodyParts	10	11	[0, 0, 0]	n/a	catFR1	0	R1028M
1443.07	2.384	789860	WORD	n/a	wordpools/wordpool_categorized_EN.txt	BIKE	Vehicles	11	11	[0, 0, 0]	n/a	catFR1	0	R1028M
1445.454	1.616	791052	WORD	n/a	wordpools/wordpool_categorized_EN.txt	VAN	Vehicles	12	11	[0, 0, 0]	n/a	catFR1	0	R1028M
1447.07	0.001	791860	DISTRACT_START	n/a	n/a	n/a	n/a	-999	11	[0, 0, 0]	n/a	catFR1	0	R1028M
1447.071	0.016	791860	START	n/a	n/a	n/a	n/a	-999	11	[-999, -999, -999]	n/a	catFR1	0	R1028M
1447.087	13.37	791868	PROB	13.37	n/a	n/a	n/a	-999	11	[8, 6, 4]	18	catFR1	0	R1028M
1460.457	3.6	798553	PROB	3.6	n/a	n/a	n/a	-999	11	[8, 2, 6]	16	catFR1	0	R1028M
1464.057	3.395	800353	PROB	3.395	n/a	n/a	n/a	-999	11	[2, 4, 6]	12	catFR1	0	R1028M
1467.452	0.007	802050	STOP	n/a	n/a	n/a	n/a	-999	11	[-999, -999, -999]	n/a	catFR1	0	R1028M
1467.459	1.184	802053	DISTRACT_END	n/a	n/a	n/a	n/a	-999	11	[0, 0, 0]	n/a	catFR1	0	R1028M
1468.643	4.122	802645	REC_START	n/a	n/a	n/a	n/a	-999	11	[0, 0, 0]	n/a	catFR1	0	R1028M
1472.765	4.038	804706	REC_WORD	4.038	n/a	MOTORCYCLE	Vehicles	6	11	[0, 0, 0]	n/a	catFR1	0	R1028M
1476.803	12.268	806725	REC_WORD	12.268	n/a	BIKE	Vehicles	11	11	[0, 0, 0]	n/a	catFR1	0	R1028M
1489.071	2.753	812858	REC_WORD	2.753	n/a	DOVE	Birds	8	11	[0, 0, 0]	n/a	catFR1	0	R1028M
1491.824	6.829	814235	REC_WORD	6.829	n/a	CARDINAL	Birds	3	11	[0, 0, 0]	n/a	catFR1	0	R1028M
1498.653	42.937	817649	REC_END	n/a	n/a	n/a	n/a	-999	11	[0, 0, 0]	n/a	catFR1	0	R1028M
1541.59	0.0	839115	TRIAL	n/a	n/a	n/a	n/a	-999	12	[0, 0, 0]	n/a	catFR1	0	R1028M
1541.59	10.428	839115	COUNTDOWN_START	n/a	n/a	n/a	n/a	-999	12	[0, 0, 0]	n/a	catFR1	0	R1028M
1552.018	0.006	844329	COUNTDOWN_END	n/a	n/a	n/a	n/a	-999	12	[0, 0, 0]	n/a	catFR1	0	R1028M
1552.024	3.785	844332	ORIENT	n/a	n/a	n/a	n/a	-999	12	[0, 0, 0]	n/a	catFR1	0	R1028M
1555.809	2.533	846224	WORD	n/a	wordpools/wordpool_categorized_EN.txt	WOODS	Landscapes	1	12	[0, 0, 0]	n/a	catFR1	0	R1028M
1558.342	2.485	847490	WORD	n/a	wordpools/wordpool_categorized_EN.txt	STREAM	Landscapes	2	12	[0, 0, 0]	n/a	catFR1	0	R1028M
1560.827	2.499	848733	WORD	n/a	wordpools/wordpool_categorized_EN.txt	COAT	Clothing	3	12	[0, 0, 0]	n/a	catFR1	0	R1028M
1563.326	2.585	849982	WORD	n/a	wordpools/wordpool_categorized_EN.txt	SOCKS	Clothing	4	12	[0, 0, 0]	n/a	catFR1	0	R1028M
1565.911	2.584	851274	WORD	n/a	wordpools/wordpool_categorized_EN.txt	ROOF	Building	5	12	[0, 0, 0]	n/a	catFR1	0	R1028M
1568.495	2.434	852566	WORD	n/a	wordpools/wordpool_categorized_EN.txt	FLOOR	Building	6	12	[0, 0, 0]	n/a	catFR1	0	R1028M
1570.929	2.5	853783	WORD	n/a	wordpools/wordpool_categorized_EN.txt	RIVER	Landscapes	7	12	[0, 0, 0]	n/a	catFR1	0	R1028M
1573.429	2.401	855033	WORD	n/a	wordpools/wordpool_categorized_EN.txt	MOUNTAIN	Landscapes	8	12	[0, 0, 0]	n/a	catFR1	0	R1028M
1575.83	2.499	856233	WORD	n/a	wordpools/wordpool_categorized_EN.txt	BATHROOM	Building	9	12	[0, 0, 0]	n/a	catFR1	0	R1028M
1578.329	2.535	857483	WORD	n/a	wordpools/wordpool_categorized_EN.txt	ATTIC	Building	10	12	[0, 0, 0]	n/a	catFR1	0	R1028M
1580.864	2.55	858750	WORD	n/a	wordpools/wordpool_categorized_EN.txt	SHOES	Clothing	11	12	[0, 0, 0]	n/a	catFR1	0	R1028M
1583.414	1.616	860025	WORD	n/a	wordpools/wordpool_categorized_EN.txt	SHIRT	Clothing	12	12	[0, 0, 0]	n/a	catFR1	0	R1028M
1585.03	0.001	860833	DISTRACT_START	n/a	n/a	n/a	n/a	-999	12	[0, 0, 0]	n/a	catFR1	0	R1028M
1585.031	0.016	860833	START	n/a	n/a	n/a	n/a	-999	12	[-999, -999, -999]	n/a	catFR1	0	R1028M
1585.047	5.735	860841	PROB	5.735	n/a	n/a	n/a	-999	12	[2, 4, 2]	8	catFR1	0	R1028M
1590.782	8.085	863709	PROB	8.085	n/a	n/a	n/a	-999	12	[7, 7, 8]	22	catFR1	0	R1028M
1598.867	4.634	867751	PROB	4.634	n/a	n/a	n/a	-999	12	[9, 3, 1]	13	catFR1	0	R1028M
1603.501	10.991	870067	PROB	10.991	n/a	n/a	n/a	-999	12	[3, 8, 3]	14	catFR1	0	R1028M
1614.492	0.012	875562	STOP	n/a	n/a	n/a	n/a	-999	12	[-999, -999, -999]	n/a	catFR1	0	R1028M
1614.504	1.084	875568	DISTRACT_END	n/a	n/a	n/a	n/a	-999	12	[0, 0, 0]	n/a	catFR1	0	R1028M
1615.588	1.22	876110	REC_START	n/a	n/a	n/a	n/a	-999	12	[0, 0, 0]	n/a	catFR1	0	R1028M
1616.808	0.859	876720	REC_WORD	0.859	n/a	ROOF	Building	5	12	[0, 0, 0]	n/a	catFR1	0	R1028M
1617.667	1.889	877150	REC_WORD	1.889	n/a	FLOOR	Building	6	12	[0, 0, 0]	n/a	catFR1	0	R1028M
1619.556	1.523	878094	REC_WORD	1.523	n/a	MOUNTAIN	Landscapes	8	12	[0, 0, 0]	n/a	catFR1	0	R1028M
1621.079	1.821	878855	REC_WORD	1.821	n/a	STREAM	Landscapes	2	12	[0, 0, 0]	n/a	catFR1	0	R1028M
1622.9	14.021	879766	REC_WORD	14.021	n/a	RIVER	Landscapes	7	12	[0, 0, 0]	n/a	catFR1	0	R1028M
1636.921	8.677	886776	REC_WORD	8.677	n/a	WOODS	Landscapes	1	12	[0, 0, 0]	n/a	catFR1	0	R1028M
1645.598	29.067	891114	REC_END	n/a	n/a	n/a	n/a	-999	12	[0, 0, 0]	n/a	catFR1	0	R1028M
1674.665	0.001	905646	COUNTDOWN_START	n/a	n/a	n/a	n/a	-999	13	[0, 0, 0]	n/a	catFR1	0	R1028M
1674.666	10.427	905646	TRIAL	n/a	n/a	n/a	n/a	-999	13	[0, 0, 0]	n/a	catFR1	0	R1028M
1685.093	0.007	910859	COUNTDOWN_END	n/a	n/a	n/a	n/a	-999	13	[0, 0, 0]	n/a	catFR1	0	R1028M
1685.1	3.851	910863	ORIENT	n/a	n/a	n/a	n/a	-999	13	[0, 0, 0]	n/a	catFR1	0	R1028M
1688.951	2.551	912788	WORD	n/a	wordpools/wordpool_categorized_EN.txt	WHALE	OceanAnimals	1	13	[0, 0, 0]	n/a	catFR1	0	R1028M
1691.502	2.483	914063	WORD	n/a	wordpools/wordpool_categorized_EN.txt	SHRIMP	OceanAnimals	2	13	[0, 0, 0]	n/a	catFR1	0	R1028M
1693.985	2.485	915305	WORD	n/a	wordpools/wordpool_categorized_EN.txt	ONION	Vegetables	3	13	[0, 0, 0]	n/a	catFR1	0	R1028M
1696.47	2.616	916547	WORD	n/a	wordpools/wordpool_categorized_EN.txt	CUCUMBER	Vegetables	4	13	[0, 0, 0]	n/a	catFR1	0	R1028M
1699.086	2.468	917855	WORD	n/a	wordpools/wordpool_categorized_EN.txt	NOSE	BodyParts	5	13	[0, 0, 0]	n/a	catFR1	0	R1028M
1701.554	2.583	919089	WORD	n/a	wordpools/wordpool_categorized_EN.txt	FOOT	BodyParts	6	13	[0, 0, 0]	n/a	catFR1	0	R1028M
1704.137	2.568	920380	WORD	n/a	wordpools/wordpool_categorized_EN.txt	SPINACH	Vegetables	7	13	[0, 0, 0]	n/a	catFR1	0	R1028M
1706.705	2.616	921664	WORD	n/a	wordpools/wordpool_categorized_EN.txt	PEAS	Vegetables	8	13	[0, 0, 0]	n/a	catFR1	0	R1028M
1709.321	2.418	922972	WORD	n/a	wordpools/wordpool_categorized_EN.txt	TURTLE	OceanAnimals	9	13	[0, 0, 0]	n/a	catFR1	0	R1028M
1711.739	2.5	924181	WORD	n/a	wordpools/wordpool_categorized_EN.txt	CRAB	OceanAnimals	10	13	[0, 0, 0]	n/a	catFR1	0	R1028M
1714.239	2.534	925431	WORD	n/a	wordpools/wordpool_categorized_EN.txt	EYE	BodyParts	11	13	[0, 0, 0]	n/a	catFR1	0	R1028M
1716.773	1.616	926698	WORD	n/a	wordpools/wordpool_categorized_EN.txt	EAR	BodyParts	12	13	[0, 0, 0]	n/a	catFR1	0	R1028M
1718.389	0.001	927505	DISTRACT_START	n/a	n/a	n/a	n/a	-999	13	[0, 0, 0]	n/a	catFR1	0	R1028M
1718.39	0.016	927506	START	n/a	n/a	n/a	n/a	-999	13	[-999, -999, -999]	n/a	catFR1	0	R1028M
1718.406	7.585	927514	PROB	7.585	n/a	n/a	n/a	-999	13	[5, 8, 7]	20	catFR1	0	R1028M
1725.991	16.044	931306	PROB	16.044	n/a	n/a	n/a	-999	13	[8, 9, 8]	25	catFR1	0	R1028M
1742.035	0.009	939327	STOP	n/a	n/a	n/a	n/a	-999	13	[-999, -999, -999]	n/a	catFR1	0	R1028M
1742.044	1.034	939332	DISTRACT_END	n/a	n/a	n/a	n/a	-999	13	[0, 0, 0]	n/a	catFR1	0	R1028M
1743.078	0.991	939849	REC_START	n/a	n/a	n/a	n/a	-999	13	[0, 0, 0]	n/a	catFR1	0	R1028M
1744.069	0.432	940344	REC_WORD	0.432	n/a	WHALE	OceanAnimals	1	13	[0, 0, 0]	n/a	catFR1	0	R1028M
1744.501	1.624	940560	REC_WORD	1.624	n/a	SHRIMP	OceanAnimals	2	13	[0, 0, 0]	n/a	catFR1	0	R1028M
1746.125	1.297	941372	REC_WORD	1.297	n/a	NOSE	BodyParts	5	13	[0, 0, 0]	n/a	catFR1	0	R1028M
1747.422	0.896	942020	REC_WORD	0.896	n/a	PEAS	Vegetables	8	13	[0, 0, 0]	n/a	catFR1	0	R1028M
1748.318	13.157	942468	REC_WORD	13.157	n/a	SPINACH	Vegetables	7	13	[0, 0, 0]	n/a	catFR1	0	R1028M
1761.475	0.65	949046	REC_WORD	0.65	n/a	HAND	n/a	-999	13	[0, 0, 0]	n/a	catFR1	0	R1028M
1762.125	10.964	949371	REC_WORD	10.964	n/a	FINGERS	n/a	-999	13	[0, 0, 0]	n/a	catFR1	0	R1028M
1773.089	62.14	954853	REC_END	n/a	n/a	n/a	n/a	-999	13	[0, 0, 0]	n/a	catFR1	0	R1028M
1835.229	0.0	985919	TRIAL	n/a	n/a	n/a	n/a	-999	14	[0, 0, 0]	n/a	catFR1	0	R1028M
1835.229	10.428	985919	COUNTDOWN_START	n/a	n/a	n/a	n/a	-999	14	[0, 0, 0]	n/a	catFR1	0	R1028M
1845.657	0.008	991133	COUNTDOWN_END	n/a	n/a	n/a	n/a	-999	14	[0, 0, 0]	n/a	catFR1	0	R1028M
1845.665	3.834	991137	ORIENT	n/a	n/a	n/a	n/a	-999	14	[0, 0, 0]	n/a	catFR1	0	R1028M
1849.499	2.401	993054	WORD	n/a	wordpools/wordpool_categorized_EN.txt	JUICE	Beverages	1	14	[0, 0, 0]	n/a	catFR1	0	R1028M
1851.9	2.533	994254	WORD	n/a	wordpools/wordpool_categorized_EN.txt	LEMONADE	Beverages	2	14	[0, 0, 0]	n/a	catFR1	0	R1028M
1854.433	2.617	995520	WORD	n/a	wordpools/wordpool_categorized_EN.txt	DRIZZLE	Weather	3	14	[0, 0, 0]	n/a	catFR1	0	R1028M
1857.05	2.518	996829	WORD	n/a	wordpools/wordpool_categorized_EN.txt	SNOW	Weather	4	14	[0, 0, 0]	n/a	catFR1	0	R1028M
1859.568	2.532	998088	WORD	n/a	wordpools/wordpool_categorized_EN.txt	STAPLER	OfficeSupplies	5	14	[0, 0, 0]	n/a	catFR1	0	R1028M
1862.1	2.502	999354	WORD	n/a	wordpools/wordpool_categorized_EN.txt	NOTEBOOK	OfficeSupplies	6	14	[0, 0, 0]	n/a	catFR1	0	R1028M
1864.602	2.549	1000604	WORD	n/a	wordpools/wordpool_categorized_EN.txt	TORNADO	Weather	7	14	[0, 0, 0]	n/a	catFR1	0	R1028M
1867.151	2.585	1001879	WORD	n/a	wordpools/wordpool_categorized_EN.txt	RAIN	Weather	8	14	[0, 0, 0]	n/a	catFR1	0	R1028M
1869.736	2.6	1003171	WORD	n/a	wordpools/wordpool_categorized_EN.txt	CIDER	Beverages	9	14	[0, 0, 0]	n/a	catFR1	0	R1028M
1872.336	2.468	1004471	WORD	n/a	wordpools/wordpool_categorized_EN.txt	COFFEE	Beverages	10	14	[0, 0, 0]	n/a	catFR1	0	R1028M
1874.804	2.599	1005705	WORD	n/a	wordpools/wordpool_categorized_EN.txt	BINDER	OfficeSupplies	11	14	[0, 0, 0]	n/a	catFR1	0	R1028M
1877.403	1.617	1007004	WORD	n/a	wordpools/wordpool_categorized_EN.txt	FOLDER	OfficeSupplies	12	14	[0, 0, 0]	n/a	catFR1	0	R1028M
1879.02	0.002	1007813	DISTRACT_START	n/a	n/a	n/a	n/a	-999	14	[0, 0, 0]	n/a	catFR1	0	R1028M
1879.022	0.015	1007814	START	n/a	n/a	n/a	n/a	-999	14	[-999, -999, -999]	n/a	catFR1	0	R1028M
1879.037	6.502	1007821	PROB	6.502	n/a	n/a	n/a	-999	14	[7, 4, 6]	17	catFR1	0	R1028M
1885.539	3.884	1011072	PROB	3.884	n/a	n/a	n/a	-999	14	[1, 5, 9]	15	catFR1	0	R1028M
1889.423	6.302	1013014	PROB	6.302	n/a	n/a	n/a	-999	14	[3, 2, 7]	12	catFR1	0	R1028M
1895.725	5.015	1016164	PROB	5.015	n/a	n/a	n/a	-999	14	[5, 4, 1]	10	catFR1	0	R1028M
1900.74	0.019	1018672	STOP	n/a	n/a	n/a	n/a	-999	14	[-999, -999, -999]	n/a	catFR1	0	R1028M
1900.759	1.167	1018681	DISTRACT_END	n/a	n/a	n/a	n/a	-999	14	[0, 0, 0]	n/a	catFR1	0	R1028M
1901.926	1.387	1019264	REC_START	n/a	n/a	n/a	n/a	-999	14	[0, 0, 0]	n/a	catFR1	0	R1028M
1903.313	0.794	1019958	REC_WORD	0.794	n/a	BINDER	OfficeSupplies	11	14	[0, 0, 0]	n/a	catFR1	0	R1028M
1904.107	1.623	1020355	REC_WORD	1.623	n/a	FOLDER	OfficeSupplies	12	14	[0, 0, 0]	n/a	catFR1	0	R1028M
1905.73	0.973	1021166	REC_WORD	0.973	n/a	LEMONADE	Beverages	2	14	[0, 0, 0]	n/a	catFR1	0	R1028M
1906.703	1.293	1021653	REC_WORD	1.293	n/a	JUICE	Beverages	1	14	[0, 0, 0]	n/a	catFR1	0	R1028M
1907.996	1.936	1022299	REC_WORD	1.936	n/a	STAPLER	OfficeSupplies	5	14	[0, 0, 0]	n/a	catFR1	0	R1028M
1909.932	5.765	1023267	REC_WORD	5.765	n/a	NOTEBOOK	OfficeSupplies	6	14	[0, 0, 0]	n/a	catFR1	0	R1028M
1915.697	1.011	1026149	REC_WORD	1.011	n/a	CIDER	Beverages	9	14	[0, 0, 0]	n/a	catFR1	0	R1028M
1916.708	15.233	1026655	REC_WORD	15.233	n/a	COFFEE	Beverages	10	14	[0, 0, 0]	n/a	catFR1	0	R1028M
1931.941	21.344	1034270	REC_END	n/a	n/a	n/a	n/a	-999	14	[0, 0, 0]	n/a	catFR1	0	R1028M
1953.285	0.0	1044941	TRIAL	n/a	n/a	n/a	n/a	-999	15	[0, 0, 0]	n/a	catFR1	0	R1028M
1953.285	10.428	1044941	COUNTDOWN_START	n/a	n/a	n/a	n/a	-999	15	[0, 0, 0]	n/a	catFR1	0	R1028M
1963.713	0.008	1050155	COUNTDOWN_END	n/a	n/a	n/a	n/a	-999	15	[0, 0, 0]	n/a	catFR1	0	R1028M
1963.721	3.834	1050159	ORIENT	n/a	n/a	n/a	n/a	-999	15	[0, 0, 0]	n/a	catFR1	0	R1028M
1967.555	2.566	1052076	WORD	n/a	wordpools/wordpool_categorized_EN.txt	BOOKCASE	Furniture	1	15	[0, 0, 0]	n/a	catFR1	0	R1028M
1970.121	2.368	1053358	WORD	n/a	wordpools/wordpool_categorized_EN.txt	COUCH	Furniture	2	15	[0, 0, 0]	n/a	catFR1	0	R1028M
1972.489	2.6	1054542	WORD	n/a	wordpools/wordpool_categorized_EN.txt	SPRUCE	Trees	3	15	[0, 0, 0]	n/a	catFR1	0	R1028M
1975.089	2.401	1055842	WORD	n/a	wordpools/wordpool_categorized_EN.txt	PINE	Trees	4	15	[0, 0, 0]	n/a	catFR1	0	R1028M
1977.49	2.418	1057043	WORD	n/a	wordpools/wordpool_categorized_EN.txt	STRAWBERRY	Fruit	5	15	[0, 0, 0]	n/a	catFR1	0	R1028M
1979.908	2.55	1058251	WORD	n/a	wordpools/wordpool_categorized_EN.txt	PLUM	Fruit	6	15	[0, 0, 0]	n/a	catFR1	0	R1028M
1982.458	2.516	1059526	WORD	n/a	wordpools/wordpool_categorized_EN.txt	WILLOW	Trees	7	15	[0, 0, 0]	n/a	catFR1	0	R1028M
1984.974	2.434	1060784	WORD	n/a	wordpools/wordpool_categorized_EN.txt	CEDAR	Trees	8	15	[0, 0, 0]	n/a	catFR1	0	R1028M
1987.408	2.402	1062001	WORD	n/a	wordpools/wordpool_categorized_EN.txt	CHAIR	Furniture	9	15	[0, 0, 0]	n/a	catFR1	0	R1028M
1989.81	2.482	1063202	WORD	n/a	wordpools/wordpool_categorized_EN.txt	DRESSER	Furniture	10	15	[0, 0, 0]	n/a	catFR1	0	R1028M
1992.292	2.602	1064443	WORD	n/a	wordpools/wordpool_categorized_EN.txt	APPLE	Fruit	11	15	[0, 0, 0]	n/a	catFR1	0	R1028M
1994.894	1.617	1065744	WORD	n/a	wordpools/wordpool_categorized_EN.txt	LIME	Fruit	12	15	[0, 0, 0]	n/a	catFR1	0	R1028M
1996.511	0.001	1066552	DISTRACT_START	n/a	n/a	n/a	n/a	-999	15	[0, 0, 0]	n/a	catFR1	0	R1028M
1996.512	0.015	1066553	START	n/a	n/a	n/a	n/a	-999	15	[-999, -999, -999]	n/a	catFR1	0	R1028M
1996.527	5.218	1066560	PROB	5.218	n/a	n/a	n/a	-999	15	[2, 9, 3]	14	catFR1	0	R1028M
2001.745	4.801	1069169	PROB	4.801	n/a	n/a	n/a	-999	15	[4, 4, 8]	16	catFR1	0	R1028M
2006.546	6.834	1071569	PROB	6.834	n/a	n/a	n/a	-999	15	[8, 8, 3]	19	catFR1	0	R1028M
2013.38	6.088	1074986	PROB	6.088	n/a	n/a	n/a	-999	15	[4, 7, 5]	16	catFR1	0	R1028M
2019.468	0.014	1078029	STOP	n/a	n/a	n/a	n/a	-999	15	[-999, -999, -999]	n/a	catFR1	0	R1028M
2019.482	1.187	1078036	DISTRACT_END	n/a	n/a	n/a	n/a	-999	15	[0, 0, 0]	n/a	catFR1	0	R1028M
2020.669	0.678	1078630	REC_START	n/a	n/a	n/a	n/a	-999	15	[0, 0, 0]	n/a	catFR1	0	R1028M
2021.347	1.226	1078969	REC_WORD	1.226	n/a	STRAWBERRY	Fruit	5	15	[0, 0, 0]	n/a	catFR1	0	R1028M
2022.573	1.248	1079582	REC_WORD	1.248	n/a	BOOKCASE	Furniture	1	15	[0, 0, 0]	n/a	catFR1	0	R1028M
2023.821	1.179	1080206	REC_WORD	1.179	n/a	CHAIR	Furniture	9	15	[0, 0, 0]	n/a	catFR1	0	R1028M
2025.0	1.194	1080795	REC_WORD	1.194	n/a	COUCH	Furniture	2	15	[0, 0, 0]	n/a	catFR1	0	R1028M
2026.194	5.037	1081392	REC_WORD	5.037	n/a	LIME	Fruit	12	15	[0, 0, 0]	n/a	catFR1	0	R1028M
2031.231	0.928	1083910	REC_WORD	0.928	n/a	CEDAR	Trees	8	15	[0, 0, 0]	n/a	catFR1	0	R1028M
2032.159	1.228	1084374	REC_WORD	1.228	n/a	SPRUCE	Trees	3	15	[0, 0, 0]	n/a	catFR1	0	R1028M
2033.387	4.673	1084988	REC_WORD	4.673	n/a	WILLOW	Trees	7	15	[0, 0, 0]	n/a	catFR1	0	R1028M
2038.06	8.565	1087324	REC_WORD	8.565	n/a	PINE	Trees	4	15	[0, 0, 0]	n/a	catFR1	0	R1028M
2046.625	4.052	1091606	REC_WORD	4.052	n/a	OAK	n/a	-999	15	[0, 0, 0]	n/a	catFR1	0	R1028M
2050.677	38.768	1093632	REC_END	n/a	n/a	n/a	n/a	-999	15	[0, 0, 0]	n/a	catFR1	0	R1028M
2089.445	0.001	1113014	COUNTDOWN_START	n/a	n/a	n/a	n/a	-999	16	[0, 0, 0]	n/a	catFR1	0	R1028M
2089.446	10.427	1113015	TRIAL	n/a	n/a	n/a	n/a	-999	16	[0, 0, 0]	n/a	catFR1	0	R1028M
2099.873	0.008	1118228	COUNTDOWN_END	n/a	n/a	n/a	n/a	-999	16	[0, 0, 0]	n/a	catFR1	0	R1028M
2099.881	3.667	1118232	ORIENT	n/a	n/a	n/a	n/a	-999	16	[0, 0, 0]	n/a	catFR1	0	R1028M
2103.548	2.516	1120065	WORD	n/a	wordpools/wordpool_categorized_EN.txt	LEVEL	Tools	1	16	[0, 0, 0]	n/a	catFR1	0	R1028M
2106.064	2.585	1121323	WORD	n/a	wordpools/wordpool_categorized_EN.txt	PLIERS	Tools	2	16	[0, 0, 0]	n/a	catFR1	0	R1028M
2108.649	2.583	1122615	WORD	n/a	wordpools/wordpool_categorized_EN.txt	FUDGE	Desserts	3	16	[0, 0, 0]	n/a	catFR1	0	R1028M
2111.232	2.585	1123907	WORD	n/a	wordpools/wordpool_categorized_EN.txt	JELLO	Desserts	4	16	[0, 0, 0]	n/a	catFR1	0	R1028M
2113.817	2.416	1125199	WORD	n/a	wordpools/wordpool_categorized_EN.txt	GUITAR	Instruments	5	16	[0, 0, 0]	n/a	catFR1	0	R1028M
2116.233	2.485	1126407	WORD	n/a	wordpools/wordpool_categorized_EN.txt	TUBA	Instruments	6	16	[0, 0, 0]	n/a	catFR1	0	R1028M
2118.718	2.416	1127649	WORD	n/a	wordpools/wordpool_categorized_EN.txt	SHOVEL	Tools	7	16	[0, 0, 0]	n/a	catFR1	0	R1028M
2121.134	2.418	1128857	WORD	n/a	wordpools/wordpool_categorized_EN.txt	AXE	Tools	8	16	[0, 0, 0]	n/a	catFR1	0	R1028M
2123.552	2.516	1130066	WORD	n/a	wordpools/wordpool_categorized_EN.txt	BASS	Instruments	9	16	[0, 0, 0]	n/a	catFR1	0	R1028M
2126.068	2.385	1131324	WORD	n/a	wordpools/wordpool_categorized_EN.txt	DRUM	Instruments	10	16	[0, 0, 0]	n/a	catFR1	0	R1028M
2128.453	2.5	1132516	WORD	n/a	wordpools/wordpool_categorized_EN.txt	CHEESECAKE	Desserts	11	16	[0, 0, 0]	n/a	catFR1	0	R1028M
2130.953	1.617	1133766	WORD	n/a	wordpools/wordpool_categorized_EN.txt	COOKIE	Desserts	12	16	[0, 0, 0]	n/a	catFR1	0	R1028M
2132.57	0.001	1134575	DISTRACT_START	n/a	n/a	n/a	n/a	-999	16	[0, 0, 0]	n/a	catFR1	0	R1028M
2132.571	0.016	1134575	START	n/a	n/a	n/a	n/a	-999	16	[-999, -999, -999]	n/a	catFR1	0	R1028M
2132.587	4.168	1134583	PROB	4.168	n/a	n/a	n/a	-999	16	[6, 4, 4]	14	catFR1	0	R1028M
2136.755	8.283	1136667	PROB	8.283	n/a	n/a	n/a	-999	16	[7, 4, 9]	20	catFR1	0	R1028M
2145.038	8.862	1140808	PROB	8.862	n/a	n/a	n/a	-999	16	[8, 8, 6]	22	catFR1	0	R1028M
2153.9	0.008	1145238	STOP	n/a	n/a	n/a	n/a	-999	16	[-999, -999, -999]	n/a	catFR1	0	R1028M
2153.908	1.216	1145242	DISTRACT_END	n/a	n/a	n/a	n/a	-999	16	[0, 0, 0]	n/a	catFR1	0	R1028M
2155.124	1.443	1145850	REC_START	n/a	n/a	n/a	n/a	-999	16	[0, 0, 0]	n/a	catFR1	0	R1028M
2156.567	1.244	1146572	REC_WORD	1.244	n/a	PLIERS	Tools	2	16	[0, 0, 0]	n/a	catFR1	0	R1028M
2157.811	1.188	1147194	REC_WORD	1.188	n/a	FUDGE	Desserts	3	16	[0, 0, 0]	n/a	catFR1	0	R1028M
2158.999	1.908	1147788	REC_WORD	1.908	n/a	CHEESECAKE	Desserts	11	16	[0, 0, 0]	n/a	catFR1	0	R1028M
2160.907	24.23	1148742	REC_WORD	24.23	n/a	COOKIE	Desserts	12	16	[0, 0, 0]	n/a	catFR1	0	R1028M
2185.137	18.146	1160855	REC_END	n/a	n/a	n/a	n/a	-999	16	[0, 0, 0]	n/a	catFR1	0	R1028M
2203.283	0.0	1169927	TRIAL	n/a	n/a	n/a	n/a	-999	17	[0, 0, 0]	n/a	catFR1	0	R1028M
2203.283	10.428	1169927	COUNTDOWN_START	n/a	n/a	n/a	n/a	-999	17	[0, 0, 0]	n/a	catFR1	0	R1028M
2213.711	0.008	1175141	COUNTDOWN_END	n/a	n/a	n/a	n/a	-999	17	[0, 0, 0]	n/a	catFR1	0	R1028M
2213.719	3.884	1175145	ORIENT	n/a	n/a	n/a	n/a	-999	17	[0, 0, 0]	n/a	catFR1	0	R1028M
2217.603	2.567	1177087	WORD	n/a	wordpools/wordpool_categorized_EN.txt	WHISK	KitchenTools	1	17	[0, 0, 0]	n/a	catFR1	0	R1028M
2220.17	2.451	1178370	WORD	n/a	wordpools/wordpool_categorized_EN.txt	PEELER	KitchenTools	2	17	[0, 0, 0]	n/a	catFR1	0	R1028M
2222.621	2.616	1179595	WORD	n/a	wordpools/wordpool_categorized_EN.txt	PEAR	Fruit	3	17	[0, 0, 0]	n/a	catFR1	0	R1028M
2225.237	2.469	1180903	WORD	n/a	wordpools/wordpool_categorized_EN.txt	BANANA	Fruit	4	17	[0, 0, 0]	n/a	catFR1	0	R1028M
2227.706	2.516	1182138	WORD	n/a	wordpools/wordpool_categorized_EN.txt	HURRICANE	Weather	5	17	[0, 0, 0]	n/a	catFR1	0	R1028M
2230.222	2.401	1183396	WORD	n/a	wordpools/wordpool_categorized_EN.txt	LIGHTNING	Weather	6	17	[0, 0, 0]	n/a	catFR1	0	R1028M
2232.623	2.416	1184596	WORD	n/a	wordpools/wordpool_categorized_EN.txt	ORANGE	Fruit	7	17	[0, 0, 0]	n/a	catFR1	0	R1028M
2235.039	2.552	1185804	WORD	n/a	wordpools/wordpool_categorized_EN.txt	CHERRY	Fruit	8	17	[0, 0, 0]	n/a	catFR1	0	R1028M
2237.591	2.516	1187080	WORD	n/a	wordpools/wordpool_categorized_EN.txt	SPATULA	KitchenTools	9	17	[0, 0, 0]	n/a	catFR1	0	R1028M
2240.107	2.485	1188338	WORD	n/a	wordpools/wordpool_categorized_EN.txt	FORK	KitchenTools	10	17	[0, 0, 0]	n/a	catFR1	0	R1028M
2242.592	2.466	1189580	WORD	n/a	wordpools/wordpool_categorized_EN.txt	FOG	Weather	11	17	[0, 0, 0]	n/a	catFR1	0	R1028M
2245.058	1.618	1190813	WORD	n/a	wordpools/wordpool_categorized_EN.txt	CLOUD	Weather	12	17	[0, 0, 0]	n/a	catFR1	0	R1028M
2246.676	0.001	1191622	DISTRACT_START	n/a	n/a	n/a	n/a	-999	17	[0, 0, 0]	n/a	catFR1	0	R1028M
2246.677	0.015	1191622	START	n/a	n/a	n/a	n/a	-999	17	[-999, -999, -999]	n/a	catFR1	0	R1028M
2246.692	4.367	1191630	PROB	4.367	n/a	n/a	n/a	-999	17	[2, 5, 8]	15	catFR1	0	R1028M
2251.059	4.452	1193813	PROB	4.452	n/a	n/a	n/a	-999	17	[3, 5, 1]	9	catFR1	0	R1028M
2255.511	3.633	1196039	PROB	3.633	n/a	n/a	n/a	-999	17	[2, 8, 7]	17	catFR1	0	R1028M
2259.144	5.951	1197855	PROB	5.951	n/a	n/a	n/a	-999	17	[7, 6, 9]	24	catFR1	0	R1028M
2265.095	4.932	1200830	PROB	4.932	n/a	n/a	n/a	-999	17	[9, 1, 4]	14	catFR1	0	R1028M
2270.027	0.019	1203296	STOP	n/a	n/a	n/a	n/a	-999	17	[-999, -999, -999]	n/a	catFR1	0	R1028M
2270.046	1.134	1203305	DISTRACT_END	n/a	n/a	n/a	n/a	-999	17	[0, 0, 0]	n/a	catFR1	0	R1028M
2271.18	0.504	1203872	REC_START	n/a	n/a	n/a	n/a	-999	17	[0, 0, 0]	n/a	catFR1	0	R1028M
2271.684	0.899	1204124	REC_WORD	0.899	n/a	FORK	KitchenTools	10	17	[0, 0, 0]	n/a	catFR1	0	R1028M
2272.583	1.633	1204574	REC_WORD	1.633	n/a	SPATULA	KitchenTools	9	17	[0, 0, 0]	n/a	catFR1	0	R1028M
2274.216	6.204	1205390	REC_WORD	6.204	n/a	WHISK	KitchenTools	1	17	[0, 0, 0]	n/a	catFR1	0	R1028M
2280.42	1.794	1208492	REC_WORD	1.794	n/a	PEAR	Fruit	3	17	[0, 0, 0]	n/a	catFR1	0	R1028M
2282.214	1.626	1209389	REC_WORD	1.626	n/a	CHERRY	Fruit	8	17	[0, 0, 0]	n/a	catFR1	0	R1028M
2283.84	2.062	1210202	REC_WORD	2.062	n/a	ORANGE	Fruit	7	17	[0, 0, 0]	n/a	catFR1	0	R1028M
2285.902	6.497	1211233	REC_WORD	6.497	n/a	PEELER	KitchenTools	2	17	[0, 0, 0]	n/a	catFR1	0	R1028M
2292.399	3.487	1214481	REC_WORD	3.487	n/a	HURRICANE	Weather	5	17	[0, 0, 0]	n/a	catFR1	0	R1028M
2295.886	1.407	1216224	REC_WORD	1.407	n/a	CLOUD	Weather	12	17	[0, 0, 0]	n/a	catFR1	0	R1028M
2297.293	3.898	1216928	REC_WORD	3.898	n/a	FOG	Weather	11	17	[0, 0, 0]	n/a	catFR1	0	R1028M
2301.191	44.437	1218876	REC_END	n/a	n/a	n/a	n/a	-999	17	[0, 0, 0]	n/a	catFR1	0	R1028M
2345.628	0.0	1241093	TRIAL	n/a	n/a	n/a	n/a	-999	18	[0, 0, 0]	n/a	catFR1	0	R1028M
2345.628	10.428	1241093	COUNTDOWN_START	n/a	n/a	n/a	n/a	-999	18	[0, 0, 0]	n/a	catFR1	0	R1028M
2356.056	0.007	1246306	COUNTDOWN_END	n/a	n/a	n/a	n/a	-999	18	[0, 0, 0]	n/a	catFR1	0	R1028M
2356.063	3.651	1246310	ORIENT	n/a	n/a	n/a	n/a	-999	18	[0, 0, 0]	n/a	catFR1	0	R1028M
2359.714	2.616	1248135	WORD	n/a	wordpools/wordpool_categorized_EN.txt	CELLO	Instruments	1	18	[0, 0, 0]	n/a	catFR1	0	R1028M
2362.33	2.402	1249443	WORD	n/a	wordpools/wordpool_categorized_EN.txt	TROMBONE	Instruments	2	18	[0, 0, 0]	n/a	catFR1	0	R1028M
2364.732	2.549	1250644	WORD	n/a	wordpools/wordpool_categorized_EN.txt	PHONE	Electronics	3	18	[0, 0, 0]	n/a	catFR1	0	R1028M
2367.281	2.435	1251918	WORD	n/a	wordpools/wordpool_categorized_EN.txt	PRINTER	Electronics	4	18	[0, 0, 0]	n/a	catFR1	0	R1028M
2369.716	2.566	1253135	WORD	n/a	wordpools/wordpool_categorized_EN.txt	FINCH	Birds	5	18	[0, 0, 0]	n/a	catFR1	0	R1028M
2372.282	2.402	1254418	WORD	n/a	wordpools/wordpool_categorized_EN.txt	HAWK	Birds	6	18	[0, 0, 0]	n/a	catFR1	0	R1028M
2374.684	2.399	1255619	WORD	n/a	wordpools/wordpool_categorized_EN.txt	PIANO	Instruments	7	18	[0, 0, 0]	n/a	catFR1	0	R1028M
2377.083	2.518	1256818	WORD	n/a	wordpools/wordpool_categorized_EN.txt	ORGAN	Instruments	8	18	[0, 0, 0]	n/a	catFR1	0	R1028M
2379.601	2.433	1258077	WORD	n/a	wordpools/wordpool_categorized_EN.txt	BLUEBIRD	Birds	9	18	[0, 0, 0]	n/a	catFR1	0	R1028M
2382.034	2.385	1259294	WORD	n/a	wordpools/wordpool_categorized_EN.txt	ROBIN	Birds	10	18	[0, 0, 0]	n/a	catFR1	0	R1028M
2384.419	2.616	1260486	WORD	n/a	wordpools/wordpool_categorized_EN.txt	STEREO	Electronics	11	18	[0, 0, 0]	n/a	catFR1	0	R1028M
2387.035	1.601	1261794	WORD	n/a	wordpools/wordpool_categorized_EN.txt	SPEAKER	Electronics	12	18	[0, 0, 0]	n/a	catFR1	0	R1028M
2388.636	0.001	1262594	DISTRACT_START	n/a	n/a	n/a	n/a	-999	18	[0, 0, 0]	n/a	catFR1	0	R1028M
2388.637	0.016	1262595	START	n/a	n/a	n/a	n/a	-999	18	[-999, -999, -999]	n/a	catFR1	0	R1028M
2388.653	5.7	1262603	PROB	5.7	n/a	n/a	n/a	-999	18	[8, 3, 8]	19	catFR1	0	R1028M
2394.353	8.136	1265453	PROB	8.136	n/a	n/a	n/a	-999	18	[8, 8, 3]	19	catFR1	0	R1028M
2402.489	3.7	1269520	PROB	3.7	n/a	n/a	n/a	-999	18	[1, 4, 5]	10	catFR1	0	R1028M
2406.189	4.213	1271370	PROB	4.213	n/a	n/a	n/a	-999	18	[3, 5, 4]	12	catFR1	0	R1028M
2410.402	0.004	1273476	STOP	n/a	n/a	n/a	n/a	-999	18	[-999, -999, -999]	n/a	catFR1	0	R1028M
2410.406	1.069	1273478	DISTRACT_END	n/a	n/a	n/a	n/a	-999	18	[0, 0, 0]	n/a	catFR1	0	R1028M
2411.475	0.936	1274013	REC_START	n/a	n/a	n/a	n/a	-999	18	[0, 0, 0]	n/a	catFR1	0	R1028M
2412.411	0.996	1274481	REC_WORD	0.996	n/a	CELLO	Instruments	1	18	[0, 0, 0]	n/a	catFR1	0	R1028M
2413.407	1.624	1274979	REC_WORD	1.624	n/a	TROMBONE	Instruments	2	18	[0, 0, 0]	n/a	catFR1	0	R1028M
2415.031	0.775	1275790	REC_WORD	0.775	n/a	BLUEBIRD	Birds	9	18	[0, 0, 0]	n/a	catFR1	0	R1028M
2415.806	5.686	1276178	REC_WORD	5.686	n/a	HAWK	Birds	6	18	[0, 0, 0]	n/a	catFR1	0	R1028M
2421.492	19.069	1279021	REC_WORD	19.069	n/a	PIANO	Instruments	7	18	[0, 0, 0]	n/a	catFR1	0	R1028M
2440.561	0.925	1288554	REC_WORD	0.925	n/a	PRINTER	Electronics	4	18	[0, 0, 0]	n/a	catFR1	0	R1028M
2441.486	8.345	1289017	REC_END	n/a	n/a	n/a	n/a	-999	18	[0, 0, 0]	n/a	catFR1	0	R1028M
2449.831	0.001	1293189	COUNTDOWN_START	n/a	n/a	n/a	n/a	-999	19	[0, 0, 0]	n/a	catFR1	0	R1028M
2449.832	10.427	1293189	TRIAL	n/a	n/a	n/a	n/a	-999	19	[0, 0, 0]	n/a	catFR1	0	R1028M
2460.259	0.007	1298402	COUNTDOWN_END	n/a	n/a	n/a	n/a	-999	19	[0, 0, 0]	n/a	catFR1	0	R1028M
2460.266	3.668	1298406	ORIENT	n/a	n/a	n/a	n/a	-999	19	[0, 0, 0]	n/a	catFR1	0	R1028M
2463.934	2.433	1300239	WORD	n/a	wordpools/wordpool_categorized_EN.txt	BOAT	Vehicles	1	19	[0, 0, 0]	n/a	catFR1	0	R1028M
2466.367	2.568	1301456	WORD	n/a	wordpools/wordpool_categorized_EN.txt	BUS	Vehicles	2	19	[0, 0, 0]	n/a	catFR1	0	R1028M
2468.935	2.4	1302740	WORD	n/a	wordpools/wordpool_categorized_EN.txt	BED	Furniture	3	19	[0, 0, 0]	n/a	catFR1	0	R1028M
2471.335	2.585	1303940	WORD	n/a	wordpools/wordpool_categorized_EN.txt	SHELF	Furniture	4	19	[0, 0, 0]	n/a	catFR1	0	R1028M
2473.92	2.617	1305232	WORD	n/a	wordpools/wordpool_categorized_EN.txt	LILAC	Flowers	5	19	[0, 0, 0]	n/a	catFR1	0	R1028M
2476.537	2.549	1306540	WORD	n/a	wordpools/wordpool_categorized_EN.txt	ROSE	Flowers	6	19	[0, 0, 0]	n/a	catFR1	0	R1028M
2479.086	2.585	1307815	WORD	n/a	wordpools/wordpool_categorized_EN.txt	CABINET	Furniture	7	19	[0, 0, 0]	n/a	catFR1	0	R1028M
2481.671	2.45	1309107	WORD	n/a	wordpools/wordpool_categorized_EN.txt	DESK	Furniture	8	19	[0, 0, 0]	n/a	catFR1	0	R1028M
2484.121	2.518	1310332	WORD	n/a	wordpools/wordpool_categorized_EN.txt	JEEP	Vehicles	9	19	[0, 0, 0]	n/a	catFR1	0	R1028M
2486.639	2.599	1311591	WORD	n/a	wordpools/wordpool_categorized_EN.txt	PLANE	Vehicles	10	19	[0, 0, 0]	n/a	catFR1	0	R1028M
2489.238	2.552	1312890	WORD	n/a	wordpools/wordpool_categorized_EN.txt	DAISY	Flowers	11	19	[0, 0, 0]	n/a	catFR1	0	R1028M
2491.79	1.616	1314166	WORD	n/a	wordpools/wordpool_categorized_EN.txt	MARIGOLD	Flowers	12	19	[0, 0, 0]	n/a	catFR1	0	R1028M
2493.406	0.001	1314974	DISTRACT_START	n/a	n/a	n/a	n/a	-999	19	[0, 0, 0]	n/a	catFR1	0	R1028M
2493.407	0.016	1314974	START	n/a	n/a	n/a	n/a	-999	19	[-999, -999, -999]	n/a	catFR1	0	R1028M
2493.423	4.385	1314982	PROB	4.385	n/a	n/a	n/a	-999	19	[8, 5, 2]	15	catFR1	0	R1028M
2497.808	5.917	1317175	PROB	5.917	n/a	n/a	n/a	-999	19	[4, 8, 7]	19	catFR1	0	R1028M
2503.725	3.6	1320133	PROB	3.6	n/a	n/a	n/a	-999	19	[3, 1, 7]	11	catFR1	0	R1028M
2507.325	14.909	1321933	PROB	14.909	n/a	n/a	n/a	-999	19	[7, 9, 6]	22	catFR1	0	R1028M
2522.234	0.011	1329386	STOP	n/a	n/a	n/a	n/a	-999	19	[-999, -999, -999]	n/a	catFR1	0	R1028M
2522.245	1.067	1329392	DISTRACT_END	n/a	n/a	n/a	n/a	-999	19	[0, 0, 0]	n/a	catFR1	0	R1028M
2523.312	2.111	1329925	REC_START	n/a	n/a	n/a	n/a	-999	19	[0, 0, 0]	n/a	catFR1	0	R1028M
2525.423	1.59	1330981	REC_WORD	1.59	n/a	MARIGOLD	Flowers	12	19	[0, 0, 0]	n/a	catFR1	0	R1028M
2527.013	0.797	1331776	REC_WORD	0.797	n/a	DAISY	Flowers	11	19	[0, 0, 0]	n/a	catFR1	0	R1028M
2527.81	1.276	1332174	REC_WORD	1.276	n/a	LILAC	Flowers	5	19	[0, 0, 0]	n/a	catFR1	0	R1028M
2529.086	0.841	1332812	REC_WORD	0.841	n/a	PLANE	Vehicles	10	19	[0, 0, 0]	n/a	catFR1	0	R1028M
2529.927	3.141	1333233	REC_WORD	3.141	n/a	BUS	Vehicles	2	19	[0, 0, 0]	n/a	catFR1	0	R1028M
2533.068	11.86	1334803	REC_WORD	11.86	n/a	BOAT	Vehicles	1	19	[0, 0, 0]	n/a	catFR1	0	R1028M
2544.928	2.197	1340732	REC_WORD	2.197	n/a	SHELF	Furniture	4	19	[0, 0, 0]	n/a	catFR1	0	R1028M
2547.125	3.731	1341831	REC_WORD	3.731	n/a	BED	Furniture	3	19	[0, 0, 0]	n/a	catFR1	0	R1028M
2550.856	2.467	1343696	REC_WORD	2.467	n/a	CABINET	Furniture	7	19	[0, 0, 0]	n/a	catFR1	0	R1028M
2553.323	13.248	1344929	REC_END	n/a	n/a	n/a	n/a	-999	19	[0, 0, 0]	n/a	catFR1	0	R1028M
2566.571	0.0	1351553	COUNTDOWN_START	n/a	n/a	n/a	n/a	-999	20	[0, 0, 0]	n/a	catFR1	0	R1028M
2566.571	10.428	1351553	TRIAL	n/a	n/a	n/a	n/a	-999	20	[0, 0, 0]	n/a	catFR1	0	R1028M
2576.999	0.006	1356766	COUNTDOWN_END	n/a	n/a	n/a	n/a	-999	20	[0, 0, 0]	n/a	catFR1	0	R1028M
2577.005	3.652	1356769	ORIENT	n/a	n/a	n/a	n/a	-999	20	[0, 0, 0]	n/a	catFR1	0	R1028M
2580.657	2.583	1358595	WORD	n/a	wordpools/wordpool_categorized_EN.txt	TABLE	Furniture	1	20	[0, 0, 0]	n/a	catFR1	0	R1028M
2583.24	2.435	1359886	WORD	n/a	wordpools/wordpool_categorized_EN.txt	RECLINER	Furniture	2	20	[0, 0, 0]	n/a	catFR1	0	R1028M
2585.675	2.516	1361104	WORD	n/a	wordpools/wordpool_categorized_EN.txt	TOASTER	Appliances	3	20	[0, 0, 0]	n/a	catFR1	0	R1028M
2588.191	2.435	1362362	WORD	n/a	wordpools/wordpool_categorized_EN.txt	DRYER	Appliances	4	20	[0, 0, 0]	n/a	catFR1	0	R1028M
2590.626	2.449	1363579	WORD	n/a	wordpools/wordpool_categorized_EN.txt	CREEK	Landscapes	5	20	[0, 0, 0]	n/a	catFR1	0	R1028M
2593.075	2.452	1364803	WORD	n/a	wordpools/wordpool_categorized_EN.txt	LAKE	Landscapes	6	20	[0, 0, 0]	n/a	catFR1	0	R1028M
2595.527	2.516	1366029	WORD	n/a	wordpools/wordpool_categorized_EN.txt	NIGHTSTAND	Furniture	7	20	[0, 0, 0]	n/a	catFR1	0	R1028M
2598.043	2.551	1367287	WORD	n/a	wordpools/wordpool_categorized_EN.txt	SOFA	Furniture	8	20	[0, 0, 0]	n/a	catFR1	0	R1028M
2600.594	2.616	1368562	WORD	n/a	wordpools/wordpool_categorized_EN.txt	VALLEY	Landscapes	9	20	[0, 0, 0]	n/a	catFR1	0	R1028M
2603.21	2.468	1369870	WORD	n/a	wordpools/wordpool_categorized_EN.txt	BEACH	Landscapes	10	20	[0, 0, 0]	n/a	catFR1	0	R1028M
2605.678	2.6	1371104	WORD	n/a	wordpools/wordpool_categorized_EN.txt	WASHER	Appliances	11	20	[0, 0, 0]	n/a	catFR1	0	R1028M
2608.278	1.601	1372404	WORD	n/a	wordpools/wordpool_categorized_EN.txt	IRON	Appliances	12	20	[0, 0, 0]	n/a	catFR1	0	R1028M
2609.879	0.001	1373204	DISTRACT_START	n/a	n/a	n/a	n/a	-999	20	[0, 0, 0]	n/a	catFR1	0	R1028M
2609.88	0.016	1373205	START	n/a	n/a	n/a	n/a	-999	20	[-999, -999, -999]	n/a	catFR1	0	R1028M
2609.896	4.5	1373213	PROB	4.5	n/a	n/a	n/a	-999	20	[8, 6, 1]	15	catFR1	0	R1028M
2614.396	4.801	1375463	PROB	4.801	n/a	n/a	n/a	-999	20	[4, 3, 2]	9	catFR1	0	R1028M
2619.197	7.585	1377863	PROB	7.585	n/a	n/a	n/a	-999	20	[8, 6, 5]	19	catFR1	0	R1028M
2626.782	20.572	1381655	PROB	20.572	n/a	n/a	n/a	-999	20	[8, 5, 9]	22	catFR1	0	R1028M
2647.354	0.015	1391940	STOP	n/a	n/a	n/a	n/a	-999	20	[-999, -999, -999]	n/a	catFR1	0	R1028M
2647.369	1.152	1391948	DISTRACT_END	n/a	n/a	n/a	n/a	-999	20	[0, 0, 0]	n/a	catFR1	0	R1028M
2648.521	1.308	1392523	REC_START	n/a	n/a	n/a	n/a	-999	20	[0, 0, 0]	n/a	catFR1	0	R1028M
2649.829	1.096	1393177	REC_WORD	1.096	n/a	SOFA	Furniture	8	20	[0, 0, 0]	n/a	catFR1	0	R1028M
2650.925	2.536	1393725	REC_WORD	2.536	n/a	RECLINER	Furniture	2	20	[0, 0, 0]	n/a	catFR1	0	R1028M
2653.461	2.805	1394993	REC_WORD	2.805	n/a	NIGHTSTAND	Furniture	7	20	[0, 0, 0]	n/a	catFR1	0	R1028M
2656.266	1.555	1396396	REC_WORD	1.555	n/a	WASHER	Appliances	11	20	[0, 0, 0]	n/a	catFR1	0	R1028M
2657.821	14.666	1397173	REC_WORD	14.666	n/a	DRYER	Appliances	4	20	[0, 0, 0]	n/a	catFR1	0	R1028M
2672.487	1.089	1404505	REC_WORD	1.089	n/a	RIVER	n/a	-999	20	[0, 0, 0]	n/a	catFR1	0	R1028M
2673.576	1.458	1405050	REC_WORD	1.458	n/a	VALLEY	Landscapes	9	20	[0, 0, 0]	n/a	catFR1	0	R1028M
2675.034	1.733	1405779	REC_WORD	1.733	n/a	BEACH	Landscapes	10	20	[0, 0, 0]	n/a	catFR1	0	R1028M
2676.767	1.243	1406645	REC_WORD	1.243	n/a	MOUNTAIN	n/a	-999	20	[0, 0, 0]	n/a	catFR1	0	R1028M
2678.01	0.522	1407266	REC_WORD	0.522	n/a	LAKE	Landscapes	6	20	[0, 0, 0]	n/a	catFR1	0	R1028M
2678.532	51.404	1407527	REC_END	n/a	n/a	n/a	n/a	-999	20	[0, 0, 0]	n/a	catFR1	0	R1028M
2729.936	0.0	1433227	TRIAL	n/a	n/a	n/a	n/a	-999	21	[0, 0, 0]	n/a	catFR1	0	R1028M
2729.936	10.428	1433227	COUNTDOWN_START	n/a	n/a	n/a	n/a	-999	21	[0, 0, 0]	n/a	catFR1	0	R1028M
2740.364	0.006	1438440	COUNTDOWN_END	n/a	n/a	n/a	n/a	-999	21	[0, 0, 0]	n/a	catFR1	0	R1028M
2740.37	3.585	1438443	ORIENT	n/a	n/a	n/a	n/a	-999	21	[0, 0, 0]	n/a	catFR1	0	R1028M
2743.955	2.467	1440236	WORD	n/a	wordpools/wordpool_categorized_EN.txt	HUMIDITY	Weather	1	21	[0, 0, 0]	n/a	catFR1	0	R1028M
2746.422	2.534	1441469	WORD	n/a	wordpools/wordpool_categorized_EN.txt	THUNDER	Weather	2	21	[0, 0, 0]	n/a	catFR1	0	R1028M
2748.956	2.501	1442736	WORD	n/a	wordpools/wordpool_categorized_EN.txt	DOLLHOUSE	Toys	3	21	[0, 0, 0]	n/a	catFR1	0	R1028M
2751.457	2.599	1443986	WORD	n/a	wordpools/wordpool_categorized_EN.txt	PUZZLE	Toys	4	21	[0, 0, 0]	n/a	catFR1	0	R1028M
2754.056	2.435	1445286	WORD	n/a	wordpools/wordpool_categorized_EN.txt	WALL	Building	5	21	[0, 0, 0]	n/a	catFR1	0	R1028M
2756.491	2.516	1446503	WORD	n/a	wordpools/wordpool_categorized_EN.txt	FOUNDATION	Building	6	21	[0, 0, 0]	n/a	catFR1	0	R1028M
2759.007	2.585	1447761	WORD	n/a	wordpools/wordpool_categorized_EN.txt	BARBIE	Toys	7	21	[0, 0, 0]	n/a	catFR1	0	R1028M
2761.592	2.416	1449053	WORD	n/a	wordpools/wordpool_categorized_EN.txt	BLOCKS	Toys	8	21	[0, 0, 0]	n/a	catFR1	0	R1028M
2764.008	2.418	1450261	WORD	n/a	wordpools/wordpool_categorized_EN.txt	WIND	Weather	9	21	[0, 0, 0]	n/a	catFR1	0	R1028M
2766.426	2.55	1451470	WORD	n/a	wordpools/wordpool_categorized_EN.txt	THUNDERSTORM	Weather	10	21	[0, 0, 0]	n/a	catFR1	0	R1028M
2768.976	2.584	1452745	WORD	n/a	wordpools/wordpool_categorized_EN.txt	STAIRS	Building	11	21	[0, 0, 0]	n/a	catFR1	0	R1028M
2771.56	1.616	1454037	WORD	n/a	wordpools/wordpool_categorized_EN.txt	ROOM	Building	12	21	[0, 0, 0]	n/a	catFR1	0	R1028M
2773.176	0.001	1454845	DISTRACT_START	n/a	n/a	n/a	n/a	-999	21	[0, 0, 0]	n/a	catFR1	0	R1028M
2773.177	0.016	1454845	START	n/a	n/a	n/a	n/a	-999	21	[-999, -999, -999]	n/a	catFR1	0	R1028M
2773.193	4.418	1454853	PROB	4.418	n/a	n/a	n/a	-999	21	[3, 3, 5]	11	catFR1	0	R1028M
2777.611	3.335	1457062	PROB	3.335	n/a	n/a	n/a	-999	21	[1, 7, 9]	17	catFR1	0	R1028M
2780.946	3.366	1458729	PROB	3.366	n/a	n/a	n/a	-999	21	[2, 8, 5]	15	catFR1	0	R1028M
2784.312	4.767	1460412	PROB	4.767	n/a	n/a	n/a	-999	21	[2, 2, 4]	8	catFR1	0	R1028M
2789.079	6.972	1462795	PROB	6.972	n/a	n/a	n/a	-999	21	[8, 7, 8]	23	catFR1	0	R1028M
2796.051	0.013	1466281	STOP	n/a	n/a	n/a	n/a	-999	21	[-999, -999, -999]	n/a	catFR1	0	R1028M
2796.064	1.068	1466287	DISTRACT_END	n/a	n/a	n/a	n/a	-999	21	[0, 0, 0]	n/a	catFR1	0	R1028M
2797.132	0.944	1466821	REC_START	n/a	n/a	n/a	n/a	-999	21	[0, 0, 0]	n/a	catFR1	0	R1028M
2798.076	2.066	1467293	REC_WORD	2.066	n/a	HUMIDITY	Weather	1	21	[0, 0, 0]	n/a	catFR1	0	R1028M
2800.142	1.24	1468326	REC_WORD	1.24	n/a	THUNDER	Weather	2	21	[0, 0, 0]	n/a	catFR1	0	R1028M
2801.382	1.704	1468946	REC_WORD	1.704	n/a	THUNDERSTORM	Weather	10	21	[0, 0, 0]	n/a	catFR1	0	R1028M
2803.086	1.817	1469798	REC_WORD	1.817	n/a	DOLLHOUSE	Toys	3	21	[0, 0, 0]	n/a	catFR1	0	R1028M
2804.903	1.191	1470706	REC_WORD	1.191	n/a	WALL	Building	5	21	[0, 0, 0]	n/a	catFR1	0	R1028M
2806.094	8.365	1471302	REC_WORD	8.365	n/a	FOUNDATION	Building	6	21	[0, 0, 0]	n/a	catFR1	0	R1028M
2814.459	0.728	1475484	REC_WORD	0.728	n/a	BARBIE	Toys	7	21	[0, 0, 0]	n/a	catFR1	0	R1028M
2815.187	9.945	1475848	REC_WORD	9.945	n/a	BLOCKS	Toys	8	21	[0, 0, 0]	n/a	catFR1	0	R1028M
2825.132	2.011	1480820	REC_WORD	2.011	n/a	WIND	Weather	9	21	[0, 0, 0]	n/a	catFR1	0	R1028M
2827.143	10.297	1481825	REC_END	n/a	n/a	n/a	n/a	-999	21	[0, 0, 0]	n/a	catFR1	0	R1028M
2837.44	0.0	1486973	TRIAL	n/a	n/a	n/a	n/a	-999	22	[0, 0, 0]	n/a	catFR1	0	R1028M
2837.44	10.428	1486973	COUNTDOWN_START	n/a	n/a	n/a	n/a	-999	22	[0, 0, 0]	n/a	catFR1	0	R1028M
2847.868	0.007	1492187	COUNTDOWN_END	n/a	n/a	n/a	n/a	-999	22	[0, 0, 0]	n/a	catFR1	0	R1028M
2847.875	3.701	1492190	ORIENT	n/a	n/a	n/a	n/a	-999	22	[0, 0, 0]	n/a	catFR1	0	R1028M
2851.576	2.433	1494040	WORD	n/a	wordpools/wordpool_categorized_EN.txt	WALNUT	Trees	1	22	[0, 0, 0]	n/a	catFR1	0	R1028M
2854.009	2.568	1495257	WORD	n/a	wordpools/wordpool_categorized_EN.txt	ELM	Trees	2	22	[0, 0, 0]	n/a	catFR1	0	R1028M
2856.577	2.449	1496541	WORD	n/a	wordpools/wordpool_categorized_EN.txt	VIOLIN	Instruments	3	22	[0, 0, 0]	n/a	catFR1	0	R1028M
2859.026	2.384	1497765	WORD	n/a	wordpools/wordpool_categorized_EN.txt	TRUMPET	Instruments	4	22	[0, 0, 0]	n/a	catFR1	0	R1028M
2861.41	2.601	1498957	WORD	n/a	wordpools/wordpool_categorized_EN.txt	CAULIFLOWER	Vegetables	5	22	[0, 0, 0]	n/a	catFR1	0	R1028M
2864.011	2.484	1500257	WORD	n/a	wordpools/wordpool_categorized_EN.txt	LETTUCE	Vegetables	6	22	[0, 0, 0]	n/a	catFR1	0	R1028M
2866.495	2.566	1501499	WORD	n/a	wordpools/wordpool_categorized_EN.txt	BANJO	Instruments	7	22	[0, 0, 0]	n/a	catFR1	0	R1028M
2869.061	2.535	1502782	WORD	n/a	wordpools/wordpool_categorized_EN.txt	FLUTE	Instruments	8	22	[0, 0, 0]	n/a	catFR1	0	R1028M
2871.596	2.417	1504049	WORD	n/a	wordpools/wordpool_categorized_EN.txt	MAPLE	Trees	9	22	[0, 0, 0]	n/a	catFR1	0	R1028M
2874.013	2.584	1505258	WORD	n/a	wordpools/wordpool_categorized_EN.txt	CYPRESS	Trees	10	22	[0, 0, 0]	n/a	catFR1	0	R1028M
2876.597	2.467	1506550	WORD	n/a	wordpools/wordpool_categorized_EN.txt	CORN	Vegetables	11	22	[0, 0, 0]	n/a	catFR1	0	R1028M
2879.064	1.618	1507783	WORD	n/a	wordpools/wordpool_categorized_EN.txt	CELERY	Vegetables	12	22	[0, 0, 0]	n/a	catFR1	0	R1028M
2880.682	0.001	1508592	DISTRACT_START	n/a	n/a	n/a	n/a	-999	22	[0, 0, 0]	n/a	catFR1	0	R1028M
2880.683	0.015	1508592	START	n/a	n/a	n/a	n/a	-999	22	[-999, -999, -999]	n/a	catFR1	0	R1028M
2880.698	6.6	1508600	PROB	6.6	n/a	n/a	n/a	-999	22	[5, 7, 9]	21	catFR1	0	R1028M
2887.298	6.153	1511900	PROB	6.153	n/a	n/a	n/a	-999	22	[7, 4, 1]	12	catFR1	0	R1028M
2893.451	3.533	1514976	PROB	3.533	n/a	n/a	n/a	-999	22	[4, 2, 8]	14	catFR1	0	R1028M
2896.984	7.267	1516742	PROB	7.267	n/a	n/a	n/a	-999	22	[9, 6, 2]	17	catFR1	0	R1028M
2904.251	0.017	1520375	STOP	n/a	n/a	n/a	n/a	-999	22	[-999, -999, -999]	n/a	catFR1	0	R1028M
2904.268	1.152	1520384	DISTRACT_END	n/a	n/a	n/a	n/a	-999	22	[0, 0, 0]	n/a	catFR1	0	R1028M
2905.42	0.851	1520960	REC_START	n/a	n/a	n/a	n/a	-999	22	[0, 0, 0]	n/a	catFR1	0	R1028M
2906.271	1.245	1521385	REC_WORD	1.245	n/a	CAULIFLOWER	Vegetables	5	22	[0, 0, 0]	n/a	catFR1	0	R1028M
2907.516	0.768	1522008	REC_WORD	0.768	n/a	CORN	Vegetables	11	22	[0, 0, 0]	n/a	catFR1	0	R1028M
2908.284	1.458	1522392	REC_WORD	1.458	n/a	VIOLIN	Instruments	3	22	[0, 0, 0]	n/a	catFR1	0	R1028M
2909.742	0.962	1523120	REC_WORD	0.962	n/a	ELM	Trees	2	22	[0, 0, 0]	n/a	catFR1	0	R1028M
2910.704	4.157	1523601	REC_WORD	4.157	n/a	CYPRESS	Trees	10	22	[0, 0, 0]	n/a	catFR1	0	R1028M
2914.861	8.23	1525680	REC_WORD	8.23	n/a	FLUTE	Instruments	8	22	[0, 0, 0]	n/a	catFR1	0	R1028M
2923.091	12.343	1529794	REC_WORD	12.343	n/a	WALNUT	Trees	1	22	[0, 0, 0]	n/a	catFR1	0	R1028M
2935.434	16.96	1535965	REC_END	n/a	n/a	n/a	n/a	-999	22	[0, 0, 0]	n/a	catFR1	0	R1028M
2952.394	0.001	1544444	COUNTDOWN_START	n/a	n/a	n/a	n/a	-999	23	[0, 0, 0]	n/a	catFR1	0	R1028M
2952.395	10.427	1544445	TRIAL	n/a	n/a	n/a	n/a	-999	23	[0, 0, 0]	n/a	catFR1	0	R1028M
2962.822	0.009	1549658	COUNTDOWN_END	n/a	n/a	n/a	n/a	-999	23	[0, 0, 0]	n/a	catFR1	0	R1028M
2962.831	3.499	1549662	ORIENT	n/a	n/a	n/a	n/a	-999	23	[0, 0, 0]	n/a	catFR1	0	R1028M
2966.33	2.602	1551412	WORD	n/a	wordpools/wordpool_categorized_EN.txt	MILK	Beverages	1	23	[0, 0, 0]	n/a	catFR1	0	R1028M
2968.932	2.416	1552712	WORD	n/a	wordpools/wordpool_categorized_EN.txt	RUM	Beverages	2	23	[0, 0, 0]	n/a	catFR1	0	R1028M
2971.348	2.552	1553920	WORD	n/a	wordpools/wordpool_categorized_EN.txt	SPOON	KitchenTools	3	23	[0, 0, 0]	n/a	catFR1	0	R1028M
2973.9	2.6	1555196	WORD	n/a	wordpools/wordpool_categorized_EN.txt	KNIFE	KitchenTools	4	23	[0, 0, 0]	n/a	catFR1	0	R1028M
2976.5	2.384	1556496	WORD	n/a	wordpools/wordpool_categorized_EN.txt	PIE	Desserts	5	23	[0, 0, 0]	n/a	catFR1	0	R1028M
2978.884	2.516	1557688	WORD	n/a	wordpools/wordpool_categorized_EN.txt	MOUSSE	Desserts	6	23	[0, 0, 0]	n/a	catFR1	0	R1028M
2981.4	2.451	1558946	WORD	n/a	wordpools/wordpool_categorized_EN.txt	COLA	Beverages	7	23	[0, 0, 0]	n/a	catFR1	0	R1028M
2983.851	2.533	1560171	WORD	n/a	wordpools/wordpool_categorized_EN.txt	WATER	Beverages	8	23	[0, 0, 0]	n/a	catFR1	0	R1028M
2986.384	2.452	1561438	WORD	n/a	wordpools/wordpool_categorized_EN.txt	PASTRY	Desserts	9	23	[0, 0, 0]	n/a	catFR1	0	R1028M
2988.836	2.399	1562663	WORD	n/a	wordpools/wordpool_categorized_EN.txt	CUPCAKE	Desserts	10	23	[0, 0, 0]	n/a	catFR1	0	R1028M
2991.235	2.552	1563863	WORD	n/a	wordpools/wordpool_categorized_EN.txt	COLANDER	KitchenTools	11	23	[0, 0, 0]	n/a	catFR1	0	R1028M
2993.787	1.616	1565139	WORD	n/a	wordpools/wordpool_categorized_EN.txt	TONGS	KitchenTools	12	23	[0, 0, 0]	n/a	catFR1	0	R1028M
2995.403	0.001	1565947	DISTRACT_START	n/a	n/a	n/a	n/a	-999	23	[0, 0, 0]	n/a	catFR1	0	R1028M
2995.404	0.016	1565947	START	n/a	n/a	n/a	n/a	-999	23	[-999, -999, -999]	n/a	catFR1	0	R1028M
2995.42	7.817	1565955	PROB	7.817	n/a	n/a	n/a	-999	23	[5, 6, 7]	18	catFR1	0	R1028M
3003.237	4.851	1569863	PROB	4.851	n/a	n/a	n/a	-999	23	[4, 3, 8]	15	catFR1	0	R1028M
3008.088	4.301	1572288	PROB	4.301	n/a	n/a	n/a	-999	23	[7, 1, 8]	16	catFR1	0	R1028M
3012.389	7.661	1574439	PROB	7.661	n/a	n/a	n/a	-999	23	[2, 3, 4]	9	catFR1	0	R1028M
3020.05	0.007	1578269	STOP	n/a	n/a	n/a	n/a	-999	23	[-999, -999, -999]	n/a	catFR1	0	R1028M
3020.057	1.168	1578272	DISTRACT_END	n/a	n/a	n/a	n/a	-999	23	[0, 0, 0]	n/a	catFR1	0	R1028M
3021.225	1.15	1578856	REC_START	n/a	n/a	n/a	n/a	-999	23	[0, 0, 0]	n/a	catFR1	0	R1028M
3022.375	2.274	1579431	REC_WORD	2.274	n/a	MILK	Beverages	1	23	[0, 0, 0]	n/a	catFR1	0	R1028M
3024.649	1.45	1580568	REC_WORD	1.45	n/a	RUM	Beverages	2	23	[0, 0, 0]	n/a	catFR1	0	R1028M
3026.099	1.053	1581293	REC_WORD	1.053	n/a	PASTRY	Desserts	9	23	[0, 0, 0]	n/a	catFR1	0	R1028M
3027.152	1.86	1581819	REC_WORD	1.86	n/a	CUPCAKE	Desserts	10	23	[0, 0, 0]	n/a	catFR1	0	R1028M
3029.012	1.242	1582749	REC_WORD	1.242	n/a	KNIFE	KitchenTools	4	23	[0, 0, 0]	n/a	catFR1	0	R1028M
3030.254	20.981	1583370	REC_WORD	20.981	n/a	SPOON	KitchenTools	3	23	[0, 0, 0]	n/a	catFR1	0	R1028M
3051.235	29.818	1593860	REC_END	n/a	n/a	n/a	n/a	-999	23	[0, 0, 0]	n/a	catFR1	0	R1028M
3081.053	0.0	1608767	COUNTDOWN_START	n/a	n/a	n/a	n/a	-999	24	[0, 0, 0]	n/a	catFR1	0	R1028M
3081.053	10.428	1608767	TRIAL	n/a	n/a	n/a	n/a	-999	24	[0, 0, 0]	n/a	catFR1	0	R1028M
3091.481	0.008	1613981	COUNTDOWN_END	n/a	n/a	n/a	n/a	-999	24	[0, 0, 0]	n/a	catFR1	0	R1028M
3091.489	3.467	1613985	ORIENT	n/a	n/a	n/a	n/a	-999	24	[0, 0, 0]	n/a	catFR1	0	R1028M
3094.956	2.517	1615718	WORD	n/a	wordpools/wordpool_categorized_EN.txt	PEACH	Fruit	1	24	[0, 0, 0]	n/a	catFR1	0	R1028M
3097.473	2.5	1616976	WORD	n/a	wordpools/wordpool_categorized_EN.txt	BLUEBERRY	Fruit	2	24	[0, 0, 0]	n/a	catFR1	0	R1028M
3099.973	2.568	1618226	WORD	n/a	wordpools/wordpool_categorized_EN.txt	COW	FarmAnimals	3	24	[0, 0, 0]	n/a	catFR1	0	R1028M
3102.541	2.384	1619510	WORD	n/a	wordpools/wordpool_categorized_EN.txt	CHICKEN	FarmAnimals	4	24	[0, 0, 0]	n/a	catFR1	0	R1028M
3104.925	2.449	1620702	WORD	n/a	wordpools/wordpool_categorized_EN.txt	PANTS	Clothing	5	24	[0, 0, 0]	n/a	catFR1	0	R1028M
3107.374	2.402	1621926	WORD	n/a	wordpools/wordpool_categorized_EN.txt	JEANS	Clothing	6	24	[0, 0, 0]	n/a	catFR1	0	R1028M
3109.776	2.616	1623127	WORD	n/a	wordpools/wordpool_categorized_EN.txt	GOAT	FarmAnimals	7	24	[0, 0, 0]	n/a	catFR1	0	R1028M
3112.392	2.485	1624435	WORD	n/a	wordpools/wordpool_categorized_EN.txt	TURKEY	FarmAnimals	8	24	[0, 0, 0]	n/a	catFR1	0	R1028M
3114.877	2.399	1625677	WORD	n/a	wordpools/wordpool_categorized_EN.txt	GRAPE	Fruit	9	24	[0, 0, 0]	n/a	catFR1	0	R1028M
3117.276	2.535	1626877	WORD	n/a	wordpools/wordpool_categorized_EN.txt	LEMON	Fruit	10	24	[0, 0, 0]	n/a	catFR1	0	R1028M
3119.811	2.416	1628144	WORD	n/a	wordpools/wordpool_categorized_EN.txt	SKIRT	Clothing	11	24	[0, 0, 0]	n/a	catFR1	0	R1028M
3122.227	1.618	1629352	WORD	n/a	wordpools/wordpool_categorized_EN.txt	UNDERWEAR	Clothing	12	24	[0, 0, 0]	n/a	catFR1	0	R1028M
3123.845	0.001	1630161	DISTRACT_START	n/a	n/a	n/a	n/a	-999	24	[0, 0, 0]	n/a	catFR1	0	R1028M
3123.846	0.016	1630161	START	n/a	n/a	n/a	n/a	-999	24	[-999, -999, -999]	n/a	catFR1	0	R1028M
3123.862	15.003	1630169	PROB	15.003	n/a	n/a	n/a	-999	24	[7, 6, 9]	22	catFR1	0	R1028M
3138.865	5.114	1637670	PROB	5.114	n/a	n/a	n/a	-999	24	[3, 5, 6]	14	catFR1	0	R1028M
3143.979	0.019	1640227	STOP	n/a	n/a	n/a	n/a	-999	24	[-999, -999, -999]	n/a	catFR1	0	R1028M
3143.998	1.051	1640236	DISTRACT_END	n/a	n/a	n/a	n/a	-999	24	[0, 0, 0]	n/a	catFR1	0	R1028M
3145.049	0.891	1640762	REC_START	n/a	n/a	n/a	n/a	-999	24	[0, 0, 0]	n/a	catFR1	0	R1028M
3145.94	0.97	1641207	REC_WORD	0.97	n/a	PEACH	Fruit	1	24	[0, 0, 0]	n/a	catFR1	0	R1028M
3146.91	2.078	1641692	REC_WORD	2.078	n/a	BLUEBERRY	Fruit	2	24	[0, 0, 0]	n/a	catFR1	0	R1028M
3148.988	1.589	1642731	REC_WORD	1.589	n/a	LEMON	Fruit	10	24	[0, 0, 0]	n/a	catFR1	0	R1028M
3150.577	1.317	1643526	REC_WORD	1.317	n/a	PANTS	Clothing	5	24	[0, 0, 0]	n/a	catFR1	0	R1028M
3151.894	1.063	1644184	REC_WORD	1.063	n/a	UNDERWEAR	Clothing	12	24	[0, 0, 0]	n/a	catFR1	0	R1028M
3152.957	0.907	1644715	REC_WORD	0.907	n/a	JEANS	Clothing	6	24	[0, 0, 0]	n/a	catFR1	0	R1028M
3153.864	1.39	1645169	REC_WORD	1.39	n/a	SKIRT	Clothing	11	24	[0, 0, 0]	n/a	catFR1	0	R1028M
3155.254	1.026	1645864	REC_WORD	1.026	n/a	COW	FarmAnimals	3	24	[0, 0, 0]	n/a	catFR1	0	R1028M
3156.28	1.401	1646377	REC_WORD	1.401	n/a	CHICKEN	FarmAnimals	4	24	[0, 0, 0]	n/a	catFR1	0	R1028M
3157.681	17.379	1647077	REC_WORD	17.379	n/a	GOAT	FarmAnimals	7	24	[0, 0, 0]	n/a	catFR1	0	R1028M
3175.06	29.933	1655766	REC_END	n/a	n/a	n/a	n/a	-999	24	[0, 0, 0]	n/a	catFR1	0	R1028M
3204.993	0.0	1670731	TRIAL	n/a	n/a	n/a	n/a	-999	25	[0, 0, 0]	n/a	catFR1	0	R1028M
3204.993	10.428	1670731	COUNTDOWN_START	n/a	n/a	n/a	n/a	-999	25	[0, 0, 0]	n/a	catFR1	0	R1028M
3215.421	0.009	1675944	COUNTDOWN_END	n/a	n/a	n/a	n/a	-999	25	[0, 0, 0]	n/a	catFR1	0	R1028M
3215.43	3.616	1675949	ORIENT	n/a	n/a	n/a	n/a	-999	25	[0, 0, 0]	n/a	catFR1	0	R1028M
3219.046	2.535	1677757	WORD	n/a	wordpools/wordpool_categorized_EN.txt	GRATER	KitchenTools	1	25	[0, 0, 0]	n/a	catFR1	0	R1028M
3221.581	2.566	1679024	WORD	n/a	wordpools/wordpool_categorized_EN.txt	LADLE	KitchenTools	2	25	[0, 0, 0]	n/a	catFR1	0	R1028M
3224.147	2.384	1680307	WORD	n/a	wordpools/wordpool_categorized_EN.txt	ORANGUTAN	Zoo	3	25	[0, 0, 0]	n/a	catFR1	0	R1028M
3226.531	2.384	1681499	WORD	n/a	wordpools/wordpool_categorized_EN.txt	CHEETAH	Zoo	4	25	[0, 0, 0]	n/a	catFR1	0	R1028M
3228.915	2.433	1682691	WORD	n/a	wordpools/wordpool_categorized_EN.txt	BROCCOLI	Vegetables	5	25	[0, 0, 0]	n/a	catFR1	0	R1028M
3231.348	2.617	1683907	WORD	n/a	wordpools/wordpool_categorized_EN.txt	CABBAGE	Vegetables	6	25	[0, 0, 0]	n/a	catFR1	0	R1028M
3233.965	2.367	1685215	WORD	n/a	wordpools/wordpool_categorized_EN.txt	CORKSCREW	KitchenTools	7	25	[0, 0, 0]	n/a	catFR1	0	R1028M
3236.332	2.435	1686399	WORD	n/a	wordpools/wordpool_categorized_EN.txt	STRAINER	KitchenTools	8	25	[0, 0, 0]	n/a	catFR1	0	R1028M
3238.767	2.45	1687616	WORD	n/a	wordpools/wordpool_categorized_EN.txt	POTATO	Vegetables	9	25	[0, 0, 0]	n/a	catFR1	0	R1028M
3241.217	2.485	1688841	WORD	n/a	wordpools/wordpool_categorized_EN.txt	CARROT	Vegetables	10	25	[0, 0, 0]	n/a	catFR1	0	R1028M
3243.702	2.466	1690083	WORD	n/a	wordpools/wordpool_categorized_EN.txt	PANDA	Zoo	11	25	[0, 0, 0]	n/a	catFR1	0	R1028M
3246.168	1.601	1691316	WORD	n/a	wordpools/wordpool_categorized_EN.txt	MONKEY	Zoo	12	25	[0, 0, 0]	n/a	catFR1	0	R1028M
3247.769	0.001	1692117	DISTRACT_START	n/a	n/a	n/a	n/a	-999	25	[0, 0, 0]	n/a	catFR1	0	R1028M
3247.77	0.016	1692117	START	n/a	n/a	n/a	n/a	-999	25	[-999, -999, -999]	n/a	catFR1	0	R1028M
3247.786	5.5	1692125	PROB	5.5	n/a	n/a	n/a	-999	25	[1, 8, 5]	14	catFR1	0	R1028M
3253.286	5.452	1694875	PROB	5.452	n/a	n/a	n/a	-999	25	[7, 1, 1]	9	catFR1	0	R1028M
3258.738	4.701	1697600	PROB	4.701	n/a	n/a	n/a	-999	25	[2, 5, 8]	15	catFR1	0	R1028M
3263.439	11.493	1699951	PROB	11.493	n/a	n/a	n/a	-999	25	[7, 9, 7]	23	catFR1	0	R1028M
3274.932	0.009	1705697	STOP	n/a	n/a	n/a	n/a	-999	25	[-999, -999, -999]	n/a	catFR1	0	R1028M
3274.941	1.183	1705701	DISTRACT_END	n/a	n/a	n/a	n/a	-999	25	[0, 0, 0]	n/a	catFR1	0	R1028M
3276.124	0.658	1706293	REC_START	n/a	n/a	n/a	n/a	-999	25	[0, 0, 0]	n/a	catFR1	0	R1028M
3276.782	1.904	1706622	REC_WORD	1.904	n/a	STRAINER	KitchenTools	8	25	[0, 0, 0]	n/a	catFR1	0	R1028M
3278.686	2.861	1707573	REC_WORD	2.861	n/a	GRATER	KitchenTools	1	25	[0, 0, 0]	n/a	catFR1	0	R1028M
3281.547	1.131	1709004	REC_WORD	1.131	n/a	CARROT	Vegetables	10	25	[0, 0, 0]	n/a	catFR1	0	R1028M
3282.678	1.757	1709569	REC_WORD	1.757	n/a	POTATO	Vegetables	9	25	[0, 0, 0]	n/a	catFR1	0	R1028M
3284.435	5.781	1710448	REC_WORD	5.781	n/a	CAULIFLOWER	n/a	-999	25	[0, 0, 0]	n/a	catFR1	0	R1028M
3290.216	15.923	1713338	REC_WORD	15.923	n/a	PANDA	Zoo	11	25	[0, 0, 0]	n/a	catFR1	0	R1028M
3306.139	128.049	1721299	REC_END	n/a	n/a	n/a	n/a	-999	25	[0, 0, 0]	n/a	catFR1	0	R1028M
3434.188	0.0	-1	SESS_END	n/a	n/a	n/a	n/a	-999	25	[0, 0, 0]	n/a	catFR1	0	R1028M
