onset	duration	sample	trial_type	response_time	stim_file	item_name	category	serialpos	list	test	answer	experiment	session	subject
0.0	0.3	4060	INSTRUCT_START	n/a	n/a	n/a	n/a	-999	-1	[0, 0, 0]	n/a	catFR1	4	R1501J
0.3	116.422	4351	INSTRUCT_END	n/a	n/a	n/a	n/a	-999	-1	[0, 0, 0]	n/a	catFR1	4	R1501J
116.722	0.315	8517	INSTRUCT_START	n/a	n/a	n/a	n/a	-999	-1	[0, 0, 0]	n/a	catFR1	4	R1501J
117.037	24.033	8835	INSTRUCT_END	n/a	n/a	n/a	n/a	-999	-1	[0, 0, 0]	n/a	catFR1	4	R1501J
141.07	0.0	32868	COUNTDOWN_START	n/a	n/a	n/a	n/a	-999	-1	[0, 0, 0]	n/a	catFR1	4	R1501J
-157.663	0.966	37259	INSTRUCT_START	n/a	n/a	n/a	n/a	-999	-999	[0, 0, 0]	n/a	catFR1	4	R1501J
-156.697	308.118	38225	INSTRUCT_END	n/a	n/a	n/a	n/a	-999	-999	[0, 0, 0]	n/a	catFR1	4	R1501J
151.421	0.0	43211	COUNTDOWN_END	n/a	n/a	n/a	n/a	-999	-1	[0, 0, 0]	n/a	catFR1	4	R1501J
151.421	1.9	43224	ENCODING_START	n/a	n/a	n/a	n/a	-999	0	[0, 0, 0]	n/a	catFR1	4	R1501J
153.321	1.616	45116	WORD	n/a	wordpools/wordpool_categorized_EN.txt	LETTUCE	Vegetables	1	0	[0, 0, 0]	n/a	catFR1	4	R1501J
154.937	0.883	46729	WORD_OFF	n/a	n/a	LETTUCE	Vegetables	1	0	[0, 0, 0]	n/a	catFR1	4	R1501J
155.82	1.617	47616	WORD	n/a	wordpools/wordpool_categorized_EN.txt	ONION	Vegetables	2	0	[0, 0, 0]	n/a	catFR1	4	R1501J
157.437	0.883	49229	WORD_OFF	n/a	n/a	ONION	Vegetables	2	0	[0, 0, 0]	n/a	catFR1	4	R1501J
158.32	1.617	50115	WORD	n/a	wordpools/wordpool_categorized_EN.txt	HILLS	Landscapes	3	0	[0, 0, 0]	n/a	catFR1	4	R1501J
159.937	0.866	51729	WORD_OFF	n/a	n/a	HILLS	Landscapes	3	0	[0, 0, 0]	n/a	catFR1	4	R1501J
160.803	1.601	52602	WORD	n/a	wordpools/wordpool_categorized_EN.txt	FOREST	Landscapes	4	0	[0, 0, 0]	n/a	catFR1	4	R1501J
162.404	1.0	54202	WORD_OFF	n/a	n/a	FOREST	Landscapes	4	0	[0, 0, 0]	n/a	catFR1	4	R1501J
163.404	1.6	55194	WORD	n/a	wordpools/wordpool_categorized_EN.txt	JELLO	Desserts	5	0	[0, 0, 0]	n/a	catFR1	4	R1501J
165.004	0.932	56795	WORD_OFF	n/a	n/a	JELLO	Desserts	5	0	[0, 0, 0]	n/a	catFR1	4	R1501J
165.936	1.601	57734	WORD	n/a	wordpools/wordpool_categorized_EN.txt	COOKIE	Desserts	6	0	[0, 0, 0]	n/a	catFR1	4	R1501J
167.537	0.867	59334	WORD_OFF	n/a	n/a	COOKIE	Desserts	6	0	[0, 0, 0]	n/a	catFR1	4	R1501J
168.404	1.616	60194	WORD	n/a	wordpools/wordpool_categorized_EN.txt	CUCUMBER	Vegetables	7	0	[0, 0, 0]	n/a	catFR1	4	R1501J
170.02	0.834	61821	WORD_OFF	n/a	n/a	CUCUMBER	Vegetables	7	0	[0, 0, 0]	n/a	catFR1	4	R1501J
170.854	1.6	62654	WORD	n/a	wordpools/wordpool_categorized_EN.txt	SPINACH	Vegetables	8	0	[0, 0, 0]	n/a	catFR1	4	R1501J
172.454	0.865	64255	WORD_OFF	n/a	n/a	SPINACH	Vegetables	8	0	[0, 0, 0]	n/a	catFR1	4	R1501J
173.319	1.601	65114	WORD	n/a	wordpools/wordpool_categorized_EN.txt	MOUSSE	Desserts	9	0	[0, 0, 0]	n/a	catFR1	4	R1501J
174.92	0.0	66715	WORD_OFF	n/a	n/a	MOUSSE	Desserts	9	0	[0, 0, 0]	n/a	catFR1	4	R1501J
-127.596	303.35	67323	COUNTDOWN_START	n/a	n/a	n/a	n/a	-999	-999	[0, 0, 0]	n/a	catFR1	4	R1501J
175.754	1.616	67548	WORD	n/a	wordpools/wordpool_categorized_EN.txt	PUDDING	Desserts	10	0	[0, 0, 0]	n/a	catFR1	4	R1501J
177.37	0.866	69162	WORD_OFF	n/a	n/a	PUDDING	Desserts	10	0	[0, 0, 0]	n/a	catFR1	4	R1501J
178.236	1.618	70035	WORD	n/a	wordpools/wordpool_categorized_EN.txt	ISLAND	Landscapes	11	0	[0, 0, 0]	n/a	catFR1	4	R1501J
179.854	0.849	71648	WORD_OFF	n/a	n/a	ISLAND	Landscapes	11	0	[0, 0, 0]	n/a	catFR1	4	R1501J
180.703	1.6	72495	WORD	n/a	wordpools/wordpool_categorized_EN.txt	RIVER	Landscapes	12	0	[0, 0, 0]	n/a	catFR1	4	R1501J
182.303	0.002	74095	WORD_OFF	n/a	n/a	RIVER	Landscapes	12	0	[0, 0, 0]	n/a	catFR1	4	R1501J
182.305	0.0	74095	ENCODING_END	n/a	n/a	n/a	n/a	-999	0	[0, 0, 0]	n/a	catFR1	4	R1501J
182.305	0.0	74102	START	n/a	n/a	n/a	n/a	-999	-1	[-999, -999, -999]	n/a	catFR1	4	R1501J
182.305	0.0	74102	PROB	0.0	n/a	n/a	n/a	-999	-1	[3, 3, 7]	17	catFR1	4	R1501J
182.305	0.0	74108	DISTRACT_START	n/a	n/a	n/a	n/a	-999	0	[0, 0, 0]	n/a	catFR1	4	R1501J
-117.246	0.0	77680	COUNTDOWN_END	n/a	n/a	n/a	n/a	-999	-999	[0, 0, 0]	n/a	catFR1	4	R1501J
-117.246	303.999	77680	ENCODING_START	n/a	n/a	n/a	n/a	-999	-1	[0, 0, 0]	n/a	catFR1	4	R1501J
186.753	0.0	78550	PROB	0.0	n/a	n/a	n/a	-999	-1	[3, 6, 3]	12	catFR1	4	R1501J
-114.88	1.601	80047	WORD	n/a	n/a	HILLS	Landscapes	1	-1	[0, 0, 0]	n/a	catFR1	4	R1501J
-113.279	0.765	81648	WORD_OFF	n/a	n/a	HILLS	Landscapes	1	-1	[0, 0, 0]	n/a	catFR1	4	R1501J
-112.514	1.601	82415	WORD	n/a	n/a	ISLAND	Landscapes	2	-1	[0, 0, 0]	n/a	catFR1	4	R1501J
-110.913	0.833	84015	WORD_OFF	n/a	n/a	ISLAND	Landscapes	2	-1	[0, 0, 0]	n/a	catFR1	4	R1501J
-110.08	1.6	84835	WORD	n/a	n/a	TIGER	Zoo	3	-1	[0, 0, 0]	n/a	catFR1	4	R1501J
-108.48	0.865	86449	WORD_OFF	n/a	n/a	TIGER	Zoo	3	-1	[0, 0, 0]	n/a	catFR1	4	R1501J
-107.615	1.602	87309	WORD	n/a	n/a	GIRAFFE	Zoo	4	-1	[0, 0, 0]	n/a	catFR1	4	R1501J
-106.013	304.017	88909	WORD_OFF	n/a	n/a	GIRAFFE	Zoo	4	-1	[0, 0, 0]	n/a	catFR1	4	R1501J
198.004	0.0	89801	PROB	0.0	n/a	n/a	n/a	-999	-1	[5, 2, 4]	11	catFR1	4	R1501J
-105.113	1.616	89809	WORD	n/a	n/a	DISHWASHER	Appliances	5	-1	[0, 0, 0]	n/a	catFR1	4	R1501J
-103.497	0.834	91422	WORD_OFF	n/a	n/a	DISHWASHER	Appliances	5	-1	[0, 0, 0]	n/a	catFR1	4	R1501J
-102.663	305.7	92255	WORD	n/a	n/a	WASHER	Appliances	6	-1	[0, 0, 0]	n/a	catFR1	4	R1501J
203.037	0.0	94833	STOP	n/a	n/a	n/a	n/a	-999	-1	[-999, -999, -999]	n/a	catFR1	4	R1501J
203.037	1.233	94835	DISTRACT_END	n/a	n/a	n/a	n/a	-999	0	[0, 0, 0]	n/a	catFR1	4	R1501J
204.27	0.938	96065	REC_START	n/a	n/a	n/a	n/a	-999	0	[0, 0, 0]	n/a	catFR1	4	R1501J
205.208	1.246	97004	REC_WORD	1.246	n/a	LETTUCE	Vegetables	1	0	[0, 0, 0]	n/a	catFR1	4	R1501J
206.454	1.178	98250	REC_WORD	1.178	n/a	ISLAND	Landscapes	11	0	[0, 0, 0]	n/a	catFR1	4	R1501J
207.632	1.377	99428	REC_WORD	1.377	n/a	HILLS	Landscapes	3	0	[0, 0, 0]	n/a	catFR1	4	R1501J
209.009	1.14	100805	REC_WORD	1.14	n/a	RIVER	Landscapes	12	0	[0, 0, 0]	n/a	catFR1	4	R1501J
210.149	1.005	101945	REC_WORD	1.005	n/a	JELLO	Desserts	5	0	[0, 0, 0]	n/a	catFR1	4	R1501J
211.154	1.517	102950	REC_WORD	1.517	n/a	SPINACH	Vegetables	8	0	[0, 0, 0]	n/a	catFR1	4	R1501J
212.671	1.961	104467	REC_WORD	1.961	n/a	CUCUMBER	Vegetables	7	0	[0, 0, 0]	n/a	catFR1	4	R1501J
214.632	4.479	106428	REC_WORD	4.479	n/a	FOREST	Landscapes	4	0	[0, 0, 0]	n/a	catFR1	4	R1501J
219.111	1.0	110907	REC_WORD_VV	1.0	n/a	<>	n/a	-999	0	[0, 0, 0]	n/a	catFR1	4	R1501J
220.111	4.258	111907	REC_WORD_VV	4.258	n/a	<>	n/a	-999	0	[0, 0, 0]	n/a	catFR1	4	R1501J
224.369	1.152	116165	REC_WORD	1.152	n/a	MOUSSE	Desserts	9	0	[0, 0, 0]	n/a	catFR1	4	R1501J
225.521	5.477	117316	REC_WORD	5.477	n/a	PUDDING	Desserts	10	0	[0, 0, 0]	n/a	catFR1	4	R1501J
230.998	1.053	122793	REC_WORD	1.053	n/a	CUCUMBER	Vegetables	7	0	[0, 0, 0]	n/a	catFR1	4	R1501J
232.051	1.027	123846	REC_WORD	1.027	n/a	ISLAND	Landscapes	11	0	[0, 0, 0]	n/a	catFR1	4	R1501J
233.078	2.382	124873	REC_WORD	2.382	n/a	LETTUCE	Vegetables	1	0	[0, 0, 0]	n/a	catFR1	4	R1501J
235.46	9.644	127253	REC_END	n/a	n/a	n/a	n/a	-999	0	[0, 0, 0]	n/a	catFR1	4	R1501J
245.104	10.352	136895	COUNTDOWN_START	n/a	n/a	n/a	n/a	-999	1	[0, 0, 0]	n/a	catFR1	4	R1501J
255.456	0.0	147252	COUNTDOWN_END	n/a	n/a	n/a	n/a	-999	1	[0, 0, 0]	n/a	catFR1	4	R1501J
255.456	1.982	147252	ENCODING_START	n/a	n/a	n/a	n/a	-999	1	[0, 0, 0]	n/a	catFR1	4	R1501J
257.438	1.617	149236	WORD	n/a	wordpools/wordpool_categorized_EN.txt	LEMON	Fruit	1	1	[0, 0, 0]	n/a	catFR1	4	R1501J
259.055	0.834	150850	WORD_OFF	n/a	n/a	LEMON	Fruit	1	1	[0, 0, 0]	n/a	catFR1	4	R1501J
259.889	1.6	151683	WORD	n/a	wordpools/wordpool_categorized_EN.txt	PEAR	Fruit	2	1	[0, 0, 0]	n/a	catFR1	4	R1501J
261.489	0.9	153283	WORD_OFF	n/a	n/a	PEAR	Fruit	2	1	[0, 0, 0]	n/a	catFR1	4	R1501J
262.389	1.6	154183	WORD	n/a	wordpools/wordpool_categorized_EN.txt	PUZZLE	Toys	3	1	[0, 0, 0]	n/a	catFR1	4	R1501J
263.989	0.766	155783	WORD_OFF	n/a	n/a	PUZZLE	Toys	3	1	[0, 0, 0]	n/a	catFR1	4	R1501J
264.755	1.617	156550	WORD	n/a	wordpools/wordpool_categorized_EN.txt	SLINKY	Toys	4	1	[0, 0, 0]	n/a	catFR1	4	R1501J
266.372	0.867	158164	WORD_OFF	n/a	n/a	SLINKY	Toys	4	1	[0, 0, 0]	n/a	catFR1	4	R1501J
267.239	1.599	159024	WORD	n/a	wordpools/wordpool_categorized_EN.txt	WINE	Beverages	5	1	[0, 0, 0]	n/a	catFR1	4	R1501J
268.838	0.867	160624	WORD_OFF	n/a	n/a	WINE	Beverages	5	1	[0, 0, 0]	n/a	catFR1	4	R1501J
269.705	1.616	161497	WORD	n/a	wordpools/wordpool_categorized_EN.txt	MILK	Beverages	6	1	[0, 0, 0]	n/a	catFR1	4	R1501J
271.321	0.984	163111	WORD_OFF	n/a	n/a	MILK	Beverages	6	1	[0, 0, 0]	n/a	catFR1	4	R1501J
272.305	1.616	164103	WORD	n/a	wordpools/wordpool_categorized_EN.txt	FOOTBALL	Toys	7	1	[0, 0, 0]	n/a	catFR1	4	R1501J
273.921	0.801	165716	WORD_OFF	n/a	n/a	FOOTBALL	Toys	7	1	[0, 0, 0]	n/a	catFR1	4	R1501J
274.722	1.6	166510	WORD	n/a	wordpools/wordpool_categorized_EN.txt	BASKETBALL	Toys	8	1	[0, 0, 0]	n/a	catFR1	4	R1501J
276.322	0.848	168110	WORD_OFF	n/a	n/a	BASKETBALL	Toys	8	1	[0, 0, 0]	n/a	catFR1	4	R1501J
277.17	1.602	168957	WORD	n/a	wordpools/wordpool_categorized_EN.txt	BLUEBERRY	Fruit	9	1	[0, 0, 0]	n/a	catFR1	4	R1501J
278.772	0.966	170557	WORD_OFF	n/a	n/a	BLUEBERRY	Fruit	9	1	[0, 0, 0]	n/a	catFR1	4	R1501J
279.738	1.617	171523	WORD	n/a	wordpools/wordpool_categorized_EN.txt	PLUM	Fruit	10	1	[0, 0, 0]	n/a	catFR1	4	R1501J
281.355	0.766	173150	WORD_OFF	n/a	n/a	PLUM	Fruit	10	1	[0, 0, 0]	n/a	catFR1	4	R1501J
282.121	1.6	173917	WORD	n/a	wordpools/wordpool_categorized_EN.txt	LEMONADE	Beverages	11	1	[0, 0, 0]	n/a	catFR1	4	R1501J
283.721	0.949	175517	WORD_OFF	n/a	n/a	LEMONADE	Beverages	11	1	[0, 0, 0]	n/a	catFR1	4	R1501J
284.67	1.602	176456	WORD	n/a	wordpools/wordpool_categorized_EN.txt	WATER	Beverages	12	1	[0, 0, 0]	n/a	catFR1	4	R1501J
286.272	0.0	178057	WORD_OFF	n/a	n/a	WATER	Beverages	12	1	[0, 0, 0]	n/a	catFR1	4	R1501J
286.272	0.001	178065	PROB	0.001	n/a	n/a	n/a	-999	1	[1, 3, 8]	12	catFR1	4	R1501J
286.273	0.0	178066	START	n/a	n/a	n/a	n/a	-999	1	[-999, -999, -999]	n/a	catFR1	4	R1501J
286.273	0.0	178070	ENCODING_END	n/a	n/a	n/a	n/a	-999	1	[0, 0, 0]	n/a	catFR1	4	R1501J
286.273	4.782	178070	DISTRACT_START	n/a	n/a	n/a	n/a	-999	1	[0, 0, 0]	n/a	catFR1	4	R1501J
291.055	4.099	182848	PROB	4.099	n/a	n/a	n/a	-999	1	[4, 5, 5]	14	catFR1	4	R1501J
295.154	3.15	186947	PROB	3.15	n/a	n/a	n/a	-999	1	[1, 8, 7]	16	catFR1	4	R1501J
298.304	2.516	190096	PROB	2.516	n/a	n/a	n/a	-999	1	[7, 1, 3]	11	catFR1	4	R1501J
300.82	2.569	192612	PROB	2.569	n/a	n/a	n/a	-999	1	[5, 5, 8]	18	catFR1	4	R1501J
303.389	4.848	195181	PROB	4.848	n/a	n/a	n/a	-999	1	[4, 8, 3]	15	catFR1	4	R1501J
308.237	0.0	200026	DISTRACT_END	n/a	n/a	n/a	n/a	-999	1	[0, 0, 0]	n/a	catFR1	4	R1501J
308.237	1.168	200029	STOP	n/a	n/a	n/a	n/a	-999	1	[-999, -999, -999]	n/a	catFR1	4	R1501J
309.405	0.995	201190	REC_START	n/a	n/a	n/a	n/a	-999	1	[0, 0, 0]	n/a	catFR1	4	R1501J
310.4	2.405	202192	REC_WORD	2.405	n/a	LEMON	Fruit	1	1	[0, 0, 0]	n/a	catFR1	4	R1501J
312.805	4.748	204597	REC_WORD_VV	4.748	n/a	<>	n/a	-999	1	[0, 0, 0]	n/a	catFR1	4	R1501J
317.553	1.748	209345	REC_WORD_VV	1.748	n/a	<>	n/a	-999	1	[0, 0, 0]	n/a	catFR1	4	R1501J
319.301	1.878	211093	REC_WORD_VV	1.878	n/a	<>	n/a	-999	1	[0, 0, 0]	n/a	catFR1	4	R1501J
321.179	3.277	212970	REC_WORD	3.277	n/a	PEAR	Fruit	2	1	[0, 0, 0]	n/a	catFR1	4	R1501J
324.456	12.187	216247	REC_WORD	12.187	n/a	SLINKY	Toys	4	1	[0, 0, 0]	n/a	catFR1	4	R1501J
336.643	3.964	228434	REC_WORD_VV	3.964	n/a	<>	n/a	-999	1	[0, 0, 0]	n/a	catFR1	4	R1501J
340.607	1.715	232392	REC_END	n/a	n/a	n/a	n/a	-999	1	[0, 0, 0]	n/a	catFR1	4	R1501J
342.322	10.35	234111	COUNTDOWN_START	n/a	n/a	n/a	n/a	-999	1	[0, 0, 0]	n/a	catFR1	4	R1501J
352.672	0.0	244455	COUNTDOWN_END	n/a	n/a	n/a	n/a	-999	1	[0, 0, 0]	n/a	catFR1	4	R1501J
352.672	2.1	244455	ENCODING_START	n/a	n/a	n/a	n/a	-999	2	[0, 0, 0]	n/a	catFR1	4	R1501J
354.772	1.616	246558	WORD	n/a	wordpools/wordpool_categorized_EN.txt	FINGERS	BodyParts	1	2	[0, 0, 0]	n/a	catFR1	4	R1501J
356.388	0.884	248171	WORD_OFF	n/a	n/a	FINGERS	BodyParts	1	2	[0, 0, 0]	n/a	catFR1	4	R1501J
357.272	1.617	249057	WORD	n/a	wordpools/wordpool_categorized_EN.txt	EAR	BodyParts	2	2	[0, 0, 0]	n/a	catFR1	4	R1501J
358.889	0.782	250671	WORD_OFF	n/a	n/a	EAR	BodyParts	2	2	[0, 0, 0]	n/a	catFR1	4	R1501J
359.671	1.601	251451	WORD	n/a	wordpools/wordpool_categorized_EN.txt	CABINET	Furniture	3	2	[0, 0, 0]	n/a	catFR1	4	R1501J
361.272	0.933	253065	WORD_OFF	n/a	n/a	CABINET	Furniture	3	2	[0, 0, 0]	n/a	catFR1	4	R1501J
362.205	1.6	253991	WORD	n/a	wordpools/wordpool_categorized_EN.txt	BED	Furniture	4	2	[0, 0, 0]	n/a	catFR1	4	R1501J
363.805	0.883	255591	WORD_OFF	n/a	n/a	BED	Furniture	4	2	[0, 0, 0]	n/a	catFR1	4	R1501J
364.688	1.601	256478	WORD	n/a	wordpools/wordpool_categorized_EN.txt	COLANDER	KitchenTools	5	2	[0, 0, 0]	n/a	catFR1	4	R1501J
366.289	0.783	258078	WORD_OFF	n/a	n/a	COLANDER	KitchenTools	5	2	[0, 0, 0]	n/a	catFR1	4	R1501J
367.072	1.6	258858	WORD	n/a	wordpools/wordpool_categorized_EN.txt	GRATER	KitchenTools	6	2	[0, 0, 0]	n/a	catFR1	4	R1501J
368.672	0.933	260459	WORD_OFF	n/a	n/a	GRATER	KitchenTools	6	2	[0, 0, 0]	n/a	catFR1	4	R1501J
369.605	1.617	261398	WORD	n/a	wordpools/wordpool_categorized_EN.txt	CHAIR	Furniture	7	2	[0, 0, 0]	n/a	catFR1	4	R1501J
371.222	0.883	263012	WORD_OFF	n/a	n/a	CHAIR	Furniture	7	2	[0, 0, 0]	n/a	catFR1	4	R1501J
372.105	1.617	263898	WORD	n/a	wordpools/wordpool_categorized_EN.txt	COUCH	Furniture	8	2	[0, 0, 0]	n/a	catFR1	4	R1501J
373.722	0.983	265511	WORD_OFF	n/a	n/a	COUCH	Furniture	8	2	[0, 0, 0]	n/a	catFR1	4	R1501J
374.705	1.616	266490	WORD	n/a	wordpools/wordpool_categorized_EN.txt	TOE	BodyParts	9	2	[0, 0, 0]	n/a	catFR1	4	R1501J
376.321	0.951	268104	WORD_OFF	n/a	n/a	TOE	BodyParts	9	2	[0, 0, 0]	n/a	catFR1	4	R1501J
377.272	1.616	269056	WORD	n/a	wordpools/wordpool_categorized_EN.txt	NOSE	BodyParts	10	2	[0, 0, 0]	n/a	catFR1	4	R1501J
378.888	0.867	270670	WORD_OFF	n/a	n/a	NOSE	BodyParts	10	2	[0, 0, 0]	n/a	catFR1	4	R1501J
379.755	1.616	271543	WORD	n/a	wordpools/wordpool_categorized_EN.txt	PEELER	KitchenTools	11	2	[0, 0, 0]	n/a	catFR1	4	R1501J
381.371	0.916	273156	WORD_OFF	n/a	n/a	PEELER	KitchenTools	11	2	[0, 0, 0]	n/a	catFR1	4	R1501J
382.287	1.601	274069	WORD	n/a	wordpools/wordpool_categorized_EN.txt	KNIFE	KitchenTools	12	2	[0, 0, 0]	n/a	catFR1	4	R1501J
383.888	0.001	275669	WORD_OFF	n/a	n/a	KNIFE	KitchenTools	12	2	[0, 0, 0]	n/a	catFR1	4	R1501J
383.889	0.0	275678	START	n/a	n/a	n/a	n/a	-999	2	[-999, -999, -999]	n/a	catFR1	4	R1501J
383.889	0.0	275678	PROB	0.0	n/a	n/a	n/a	-999	2	[1, 5, 1]	11	catFR1	4	R1501J
383.889	0.0	275683	ENCODING_END	n/a	n/a	n/a	n/a	-999	2	[0, 0, 0]	n/a	catFR1	4	R1501J
383.889	2.999	275683	DISTRACT_START	n/a	n/a	n/a	n/a	-999	2	[0, 0, 0]	n/a	catFR1	4	R1501J
386.888	1.917	278677	PROB	1.917	n/a	n/a	n/a	-999	2	[1, 1, 1]	3	catFR1	4	R1501J
388.805	5.033	280594	PROB	5.033	n/a	n/a	n/a	-999	2	[8, 6, 6]	20	catFR1	4	R1501J
393.838	4.8	285626	PROB	4.8	n/a	n/a	n/a	-999	2	[4, 1, 1]	6	catFR1	4	R1501J
398.638	6.816	290426	PROB	6.816	n/a	n/a	n/a	-999	2	[6, 8, 4]	18	catFR1	4	R1501J
405.454	0.0	297242	DISTRACT_END	n/a	n/a	n/a	n/a	-999	2	[0, 0, 0]	n/a	catFR1	4	R1501J
405.454	1.15	297242	STOP	n/a	n/a	n/a	n/a	-999	2	[-999, -999, -999]	n/a	catFR1	4	R1501J
406.604	0.227	298393	REC_START	n/a	n/a	n/a	n/a	-999	2	[0, 0, 0]	n/a	catFR1	4	R1501J
406.831	1.69	298619	REC_WORD	1.69	n/a	FINGERS	BodyParts	1	2	[0, 0, 0]	n/a	catFR1	4	R1501J
408.521	1.384	300309	REC_WORD	1.384	n/a	EAR	BodyParts	2	2	[0, 0, 0]	n/a	catFR1	4	R1501J
409.905	0.0	301693	REC_WORD	0.0	n/a	COLANDER	KitchenTools	5	2	[0, 0, 0]	n/a	catFR1	4	R1501J
-373.901	786.042	302903	INSTRUCT_START	n/a	n/a	n/a	n/a	-999	-999	[0, 0, 0]	n/a	catFR1	4	R1501J
412.141	0.0	303929	REC_WORD	0.0	n/a	BED	Furniture	4	2	[0, 0, 0]	n/a	catFR1	4	R1501J
-372.768	785.984	304027	INSTRUCT_END	n/a	n/a	n/a	n/a	-999	-999	[0, 0, 0]	n/a	catFR1	4	R1501J
413.216	1.071	305004	REC_WORD	1.071	n/a	KNIFE	KitchenTools	12	2	[0, 0, 0]	n/a	catFR1	4	R1501J
414.287	1.682	306075	REC_WORD	1.682	n/a	CABINET	Furniture	3	2	[0, 0, 0]	n/a	catFR1	4	R1501J
415.969	4.515	307756	REC_WORD	4.515	n/a	GRATER	KitchenTools	6	2	[0, 0, 0]	n/a	catFR1	4	R1501J
420.484	17.302	312271	REC_WORD	17.302	n/a	TOE	BodyParts	9	2	[0, 0, 0]	n/a	catFR1	4	R1501J
437.786	1.486	329568	REC_END	n/a	n/a	n/a	n/a	-999	2	[0, 0, 0]	n/a	catFR1	4	R1501J
439.272	10.349	331063	COUNTDOWN_START	n/a	n/a	n/a	n/a	-999	2	[0, 0, 0]	n/a	catFR1	4	R1501J
449.621	0.0	341406	COUNTDOWN_END	n/a	n/a	n/a	n/a	-999	2	[0, 0, 0]	n/a	catFR1	4	R1501J
449.621	1.817	341406	ENCODING_START	n/a	n/a	n/a	n/a	-999	3	[0, 0, 0]	n/a	catFR1	4	R1501J
451.438	1.6	343218	WORD	n/a	wordpools/wordpool_categorized_EN.txt	ELBOW	BodyParts	1	3	[0, 0, 0]	n/a	catFR1	4	R1501J
453.038	0.834	344818	WORD_OFF	n/a	n/a	ELBOW	BodyParts	1	3	[0, 0, 0]	n/a	catFR1	4	R1501J
453.872	1.6	345652	WORD	n/a	wordpools/wordpool_categorized_EN.txt	HAND	BodyParts	2	3	[0, 0, 0]	n/a	catFR1	4	R1501J
455.472	0.983	347252	WORD_OFF	n/a	n/a	HAND	BodyParts	2	3	[0, 0, 0]	n/a	catFR1	4	R1501J
456.455	1.617	348244	WORD	n/a	wordpools/wordpool_categorized_EN.txt	GIRAFFE	Zoo	3	3	[0, 0, 0]	n/a	catFR1	4	R1501J
458.072	0.917	349858	WORD_OFF	n/a	n/a	GIRAFFE	Zoo	3	3	[0, 0, 0]	n/a	catFR1	4	R1501J
458.989	1.615	350770	WORD	n/a	wordpools/wordpool_categorized_EN.txt	GORILLA	Zoo	4	3	[0, 0, 0]	n/a	catFR1	4	R1501J
460.604	0.951	352384	WORD_OFF	n/a	n/a	GORILLA	Zoo	4	3	[0, 0, 0]	n/a	catFR1	4	R1501J
461.555	1.617	353336	WORD	n/a	wordpools/wordpool_categorized_EN.txt	ROBIN	Birds	5	3	[0, 0, 0]	n/a	catFR1	4	R1501J
463.172	0.95	354950	WORD_OFF	n/a	n/a	ROBIN	Birds	5	3	[0, 0, 0]	n/a	catFR1	4	R1501J
464.122	1.618	355902	WORD	n/a	wordpools/wordpool_categorized_EN.txt	PIGEON	Birds	6	3	[0, 0, 0]	n/a	catFR1	4	R1501J
465.74	1.0	357529	WORD_OFF	n/a	n/a	PIGEON	Birds	6	3	[0, 0, 0]	n/a	catFR1	4	R1501J
466.74	1.615	358521	WORD	n/a	wordpools/wordpool_categorized_EN.txt	PANDA	Zoo	7	3	[0, 0, 0]	n/a	catFR1	4	R1501J
468.355	0.916	360135	WORD_OFF	n/a	n/a	PANDA	Zoo	7	3	[0, 0, 0]	n/a	catFR1	4	R1501J
469.271	1.601	361048	WORD	n/a	wordpools/wordpool_categorized_EN.txt	TIGER	Zoo	8	3	[0, 0, 0]	n/a	catFR1	4	R1501J
470.872	0.999	362661	WORD_OFF	n/a	n/a	TIGER	Zoo	8	3	[0, 0, 0]	n/a	catFR1	4	R1501J
471.871	1.601	363653	WORD	n/a	wordpools/wordpool_categorized_EN.txt	SPARROW	Birds	9	3	[0, 0, 0]	n/a	catFR1	4	R1501J
473.472	0.916	365254	WORD_OFF	n/a	n/a	SPARROW	Birds	9	3	[0, 0, 0]	n/a	catFR1	4	R1501J
474.388	1.6	366166	WORD	n/a	wordpools/wordpool_categorized_EN.txt	SEAGULL	Birds	10	3	[0, 0, 0]	n/a	catFR1	4	R1501J
475.988	0.767	367767	WORD_OFF	n/a	n/a	SEAGULL	Birds	10	3	[0, 0, 0]	n/a	catFR1	4	R1501J
476.755	1.616	368534	WORD	n/a	wordpools/wordpool_categorized_EN.txt	KNEE	BodyParts	11	3	[0, 0, 0]	n/a	catFR1	4	R1501J
478.371	0.783	370147	WORD_OFF	n/a	n/a	KNEE	BodyParts	11	3	[0, 0, 0]	n/a	catFR1	4	R1501J
479.154	1.601	370941	WORD	n/a	wordpools/wordpool_categorized_EN.txt	EYE	BodyParts	12	3	[0, 0, 0]	n/a	catFR1	4	R1501J
480.755	0.0	372540	PROB	0.0	n/a	n/a	n/a	-999	3	[4, 4, 4]	12	catFR1	4	R1501J
480.755	0.0	372540	START	n/a	n/a	n/a	n/a	-999	3	[-999, -999, -999]	n/a	catFR1	4	R1501J
480.754	0.001	372541	WORD_OFF	n/a	n/a	EYE	BodyParts	12	3	[0, 0, 0]	n/a	catFR1	4	R1501J
480.755	0.0	372541	ENCODING_END	n/a	n/a	n/a	n/a	-999	3	[0, 0, 0]	n/a	catFR1	4	R1501J
480.755	3.183	372541	DISTRACT_START	n/a	n/a	n/a	n/a	-999	3	[0, 0, 0]	n/a	catFR1	4	R1501J
483.938	7.883	375723	PROB	7.883	n/a	n/a	n/a	-999	3	[7, 8, 6]	21	catFR1	4	R1501J
491.821	3.55	383605	PROB	3.55	n/a	n/a	n/a	-999	3	[2, 5, 5]	12	catFR1	4	R1501J
495.371	2.7	387155	PROB	2.7	n/a	n/a	n/a	-999	3	[1, 5, 1]	7	catFR1	4	R1501J
498.071	9.8	389855	PROB	9.8	n/a	n/a	n/a	-999	3	[8, 3, 5]	16	catFR1	4	R1501J
507.871	0.0	399655	STOP	n/a	n/a	n/a	n/a	-999	3	[-999, -999, -999]	n/a	catFR1	4	R1501J
507.871	1.283	399656	DISTRACT_END	n/a	n/a	n/a	n/a	-999	3	[0, 0, 0]	n/a	catFR1	4	R1501J
509.154	0.785	400939	REC_START	n/a	n/a	n/a	n/a	-999	3	[0, 0, 0]	n/a	catFR1	4	R1501J
509.939	1.163	401722	REC_WORD	1.163	n/a	EYE	BodyParts	12	3	[0, 0, 0]	n/a	catFR1	4	R1501J
511.102	1.085	402885	REC_WORD_VV	1.085	n/a	<>	n/a	-999	3	[0, 0, 0]	n/a	catFR1	4	R1501J
512.187	4.072	403970	REC_WORD	4.072	n/a	HAND	BodyParts	2	3	[0, 0, 0]	n/a	catFR1	4	R1501J
516.259	2.112	408042	REC_WORD_VV	2.112	n/a	<>	n/a	-999	3	[0, 0, 0]	n/a	catFR1	4	R1501J
518.371	3.929	410154	REC_WORD	3.929	n/a	TOE	BodyParts	-999	3	[0, 0, 0]	n/a	catFR1	4	R1501J
522.3	0.826	414083	REC_WORD_VV	0.826	n/a	<>	n/a	-999	3	[0, 0, 0]	n/a	catFR1	4	R1501J
523.126	3.471	414909	REC_WORD	3.471	n/a	GORILLA	Zoo	4	3	[0, 0, 0]	n/a	catFR1	4	R1501J
526.597	1.068	418380	REC_WORD_VV	1.068	n/a	<>	n/a	-999	3	[0, 0, 0]	n/a	catFR1	4	R1501J
527.665	1.15	419448	REC_WORD	1.15	n/a	PANDA	Zoo	7	3	[0, 0, 0]	n/a	catFR1	4	R1501J
528.815	7.105	420598	REC_WORD	7.105	n/a	GIRAFFE	Zoo	3	3	[0, 0, 0]	n/a	catFR1	4	R1501J
535.92	1.555	427702	REC_WORD	1.555	n/a	HAND	BodyParts	2	3	[0, 0, 0]	n/a	catFR1	4	R1501J
537.475	0.979	429257	REC_WORD	0.979	n/a	ELBOW	BodyParts	1	3	[0, 0, 0]	n/a	catFR1	4	R1501J
538.454	1.887	430236	REC_WORD	1.887	n/a	KNEE	BodyParts	11	3	[0, 0, 0]	n/a	catFR1	4	R1501J
540.341	1.931	432114	REC_END	n/a	n/a	n/a	n/a	-999	3	[0, 0, 0]	n/a	catFR1	4	R1501J
542.272	10.35	434059	COUNTDOWN_START	n/a	n/a	n/a	n/a	-999	3	[0, 0, 0]	n/a	catFR1	4	R1501J
552.622	0.0	444402	COUNTDOWN_END	n/a	n/a	n/a	n/a	-999	3	[0, 0, 0]	n/a	catFR1	4	R1501J
552.622	2.3	444402	ENCODING_START	n/a	n/a	n/a	n/a	-999	4	[0, 0, 0]	n/a	catFR1	4	R1501J
554.922	1.616	446703	WORD	n/a	wordpools/wordpool_categorized_EN.txt	TEA	Beverages	1	4	[0, 0, 0]	n/a	catFR1	4	R1501J
556.538	0.999	448317	WORD_OFF	n/a	n/a	TEA	Beverages	1	4	[0, 0, 0]	n/a	catFR1	4	R1501J
557.537	1.602	449322	WORD	n/a	wordpools/wordpool_categorized_EN.txt	COLA	Beverages	2	4	[0, 0, 0]	n/a	catFR1	4	R1501J
559.139	0.832	450923	WORD_OFF	n/a	n/a	COLA	Beverages	2	4	[0, 0, 0]	n/a	catFR1	4	R1501J
559.971	1.601	451756	WORD	n/a	wordpools/wordpool_categorized_EN.txt	BASS	Instruments	3	4	[0, 0, 0]	n/a	catFR1	4	R1501J
561.572	0.764	453356	WORD_OFF	n/a	n/a	BASS	Instruments	3	4	[0, 0, 0]	n/a	catFR1	4	R1501J
562.336	1.602	454110	WORD	n/a	wordpools/wordpool_categorized_EN.txt	DRUM	Instruments	4	4	[0, 0, 0]	n/a	catFR1	4	R1501J
563.938	0.984	455711	WORD_OFF	n/a	n/a	DRUM	Instruments	4	4	[0, 0, 0]	n/a	catFR1	4	R1501J
564.922	1.6	456703	WORD	n/a	wordpools/wordpool_categorized_EN.txt	ARM	BodyParts	5	4	[0, 0, 0]	n/a	catFR1	4	R1501J
566.522	0.816	458303	WORD_OFF	n/a	n/a	ARM	BodyParts	5	4	[0, 0, 0]	n/a	catFR1	4	R1501J
567.338	1.601	459123	WORD	n/a	wordpools/wordpool_categorized_EN.txt	LEG	BodyParts	6	4	[0, 0, 0]	n/a	catFR1	4	R1501J
568.939	0.849	460724	WORD_OFF	n/a	n/a	LEG	BodyParts	6	4	[0, 0, 0]	n/a	catFR1	4	R1501J
569.788	1.616	461570	WORD	n/a	wordpools/wordpool_categorized_EN.txt	GUITAR	Instruments	7	4	[0, 0, 0]	n/a	catFR1	4	R1501J
571.404	0.984	463184	WORD_OFF	n/a	n/a	GUITAR	Instruments	7	4	[0, 0, 0]	n/a	catFR1	4	R1501J
572.388	1.617	464163	WORD	n/a	wordpools/wordpool_categorized_EN.txt	TUBA	Instruments	8	4	[0, 0, 0]	n/a	catFR1	4	R1501J
574.005	0.866	465789	WORD_OFF	n/a	n/a	TUBA	Instruments	8	4	[0, 0, 0]	n/a	catFR1	4	R1501J
574.871	1.6	466649	WORD	n/a	wordpools/wordpool_categorized_EN.txt	BEER	Beverages	9	4	[0, 0, 0]	n/a	catFR1	4	R1501J
576.471	0.767	468250	WORD_OFF	n/a	n/a	BEER	Beverages	9	4	[0, 0, 0]	n/a	catFR1	4	R1501J
577.238	1.616	469017	WORD	n/a	wordpools/wordpool_categorized_EN.txt	CIDER	Beverages	10	4	[0, 0, 0]	n/a	catFR1	4	R1501J
578.854	0.934	470630	WORD_OFF	n/a	n/a	CIDER	Beverages	10	4	[0, 0, 0]	n/a	catFR1	4	R1501J
579.788	1.618	471569	WORD	n/a	wordpools/wordpool_categorized_EN.txt	HEAD	BodyParts	11	4	[0, 0, 0]	n/a	catFR1	4	R1501J
581.406	0.782	473183	WORD_OFF	n/a	n/a	HEAD	BodyParts	11	4	[0, 0, 0]	n/a	catFR1	4	R1501J
582.188	1.6	473964	WORD	n/a	wordpools/wordpool_categorized_EN.txt	FOOT	BodyParts	12	4	[0, 0, 0]	n/a	catFR1	4	R1501J
583.788	0.001	475564	WORD_OFF	n/a	n/a	FOOT	BodyParts	12	4	[0, 0, 0]	n/a	catFR1	4	R1501J
583.789	0.0	475564	ENCODING_END	n/a	n/a	n/a	n/a	-999	4	[0, 0, 0]	n/a	catFR1	4	R1501J
583.789	0.0	475564	DISTRACT_START	n/a	n/a	n/a	n/a	-999	4	[0, 0, 0]	n/a	catFR1	4	R1501J
583.789	0.0	475569	START	n/a	n/a	n/a	n/a	-999	4	[-999, -999, -999]	n/a	catFR1	4	R1501J
583.789	8.2	475569	PROB	8.2	n/a	n/a	n/a	-999	4	[6, 6, 4]	16	catFR1	4	R1501J
591.989	4.698	483769	PROB	4.698	n/a	n/a	n/a	-999	4	[2, 8, 4]	14	catFR1	4	R1501J
596.687	4.534	488467	PROB	4.534	n/a	n/a	n/a	-999	4	[5, 4, 3]	12	catFR1	4	R1501J
601.221	4.383	493001	PROB	4.383	n/a	n/a	n/a	-999	4	[3, 3, 4]	10	catFR1	4	R1501J
605.604	0.0	497375	DISTRACT_END	n/a	n/a	n/a	n/a	-999	4	[0, 0, 0]	n/a	catFR1	4	R1501J
605.604	1.167	497383	STOP	n/a	n/a	n/a	n/a	-999	4	[-999, -999, -999]	n/a	catFR1	4	R1501J
606.771	5.278	498552	REC_START	n/a	n/a	n/a	n/a	-999	4	[0, 0, 0]	n/a	catFR1	4	R1501J
612.049	1.0	503828	REC_WORD_VV	1.0	n/a	<>	n/a	-999	4	[0, 0, 0]	n/a	catFR1	4	R1501J
613.049	3.064	504828	REC_WORD_VV	3.064	n/a	<>	n/a	-999	4	[0, 0, 0]	n/a	catFR1	4	R1501J
616.113	1.301	507892	REC_WORD	1.301	n/a	TEA	Beverages	1	4	[0, 0, 0]	n/a	catFR1	4	R1501J
617.414	4.451	509193	REC_WORD	4.451	n/a	COLA	Beverages	2	4	[0, 0, 0]	n/a	catFR1	4	R1501J
621.865	1.621	513644	REC_WORD_VV	1.621	n/a	<>	n/a	-999	4	[0, 0, 0]	n/a	catFR1	4	R1501J
623.486	2.462	515265	REC_WORD	2.462	n/a	ELBOW	BodyParts	-999	4	[0, 0, 0]	n/a	catFR1	4	R1501J
625.948	5.957	517727	REC_WORD_VV	5.957	n/a	<>	n/a	-999	4	[0, 0, 0]	n/a	catFR1	4	R1501J
631.905	2.137	523683	REC_WORD	2.137	n/a	KNEE	BodyParts	-999	4	[0, 0, 0]	n/a	catFR1	4	R1501J
634.042	1.383	525820	REC_WORD_VV	1.383	n/a	<>	n/a	-999	4	[0, 0, 0]	n/a	catFR1	4	R1501J
635.425	2.536	527203	REC_WORD	2.536	n/a	TEA	Beverages	1	4	[0, 0, 0]	n/a	catFR1	4	R1501J
637.961	1.694	529740	REC_END	n/a	n/a	n/a	n/a	-999	4	[0, 0, 0]	n/a	catFR1	4	R1501J
639.655	10.35	531433	COUNTDOWN_START	n/a	n/a	n/a	n/a	-999	4	[0, 0, 0]	n/a	catFR1	4	R1501J
650.005	0.0	541777	COUNTDOWN_END	n/a	n/a	n/a	n/a	-999	4	[0, 0, 0]	n/a	catFR1	4	R1501J
650.005	1.917	541777	ENCODING_START	n/a	n/a	n/a	n/a	-999	5	[0, 0, 0]	n/a	catFR1	4	R1501J
651.922	1.616	543694	WORD	n/a	wordpools/wordpool_categorized_EN.txt	PIG	FarmAnimals	1	5	[0, 0, 0]	n/a	catFR1	4	R1501J
653.538	0.95	545308	WORD_OFF	n/a	n/a	PIG	FarmAnimals	1	5	[0, 0, 0]	n/a	catFR1	4	R1501J
654.488	1.601	546260	WORD	n/a	wordpools/wordpool_categorized_EN.txt	TURKEY	FarmAnimals	2	5	[0, 0, 0]	n/a	catFR1	4	R1501J
656.089	0.999	547861	WORD_OFF	n/a	n/a	TURKEY	FarmAnimals	2	5	[0, 0, 0]	n/a	catFR1	4	R1501J
657.088	1.6	548866	WORD	n/a	wordpools/wordpool_categorized_EN.txt	SCREWDRIVER	Tools	3	5	[0, 0, 0]	n/a	catFR1	4	R1501J
658.688	0.867	550466	WORD_OFF	n/a	n/a	SCREWDRIVER	Tools	3	5	[0, 0, 0]	n/a	catFR1	4	R1501J
659.555	1.616	551326	WORD	n/a	wordpools/wordpool_categorized_EN.txt	SHOVEL	Tools	4	5	[0, 0, 0]	n/a	catFR1	4	R1501J
661.171	0.783	552940	WORD_OFF	n/a	n/a	SHOVEL	Tools	4	5	[0, 0, 0]	n/a	catFR1	4	R1501J
661.954	1.601	553733	WORD	n/a	wordpools/wordpool_categorized_EN.txt	FUDGE	Desserts	5	5	[0, 0, 0]	n/a	catFR1	4	R1501J
663.555	0.95	555334	WORD_OFF	n/a	n/a	FUDGE	Desserts	5	5	[0, 0, 0]	n/a	catFR1	4	R1501J
664.505	1.6	556286	WORD	n/a	wordpools/wordpool_categorized_EN.txt	PASTRY	Desserts	6	5	[0, 0, 0]	n/a	catFR1	4	R1501J
666.105	0.883	557873	WORD_OFF	n/a	n/a	PASTRY	Desserts	6	5	[0, 0, 0]	n/a	catFR1	4	R1501J
666.988	1.617	558760	WORD	n/a	wordpools/wordpool_categorized_EN.txt	LEVEL	Tools	7	5	[0, 0, 0]	n/a	catFR1	4	R1501J
668.605	0.968	560373	WORD_OFF	n/a	n/a	LEVEL	Tools	7	5	[0, 0, 0]	n/a	catFR1	4	R1501J
669.573	1.615	561352	WORD	n/a	wordpools/wordpool_categorized_EN.txt	PLIERS	Tools	8	5	[0, 0, 0]	n/a	catFR1	4	R1501J
671.188	0.867	562966	WORD_OFF	n/a	n/a	PLIERS	Tools	8	5	[0, 0, 0]	n/a	catFR1	4	R1501J
672.055	1.6	563825	WORD	n/a	wordpools/wordpool_categorized_EN.txt	CHEESECAKE	Desserts	9	5	[0, 0, 0]	n/a	catFR1	4	R1501J
673.655	0.948	565426	WORD_OFF	n/a	n/a	CHEESECAKE	Desserts	9	5	[0, 0, 0]	n/a	catFR1	4	R1501J
674.603	1.602	566378	WORD	n/a	wordpools/wordpool_categorized_EN.txt	COBBLER	Desserts	10	5	[0, 0, 0]	n/a	catFR1	4	R1501J
676.205	0.817	567979	WORD_OFF	n/a	n/a	COBBLER	Desserts	10	5	[0, 0, 0]	n/a	catFR1	4	R1501J
677.022	1.614	568799	WORD	n/a	wordpools/wordpool_categorized_EN.txt	SHEEP	FarmAnimals	11	5	[0, 0, 0]	n/a	catFR1	4	R1501J
678.636	0.918	570412	WORD_OFF	n/a	n/a	SHEEP	FarmAnimals	11	5	[0, 0, 0]	n/a	catFR1	4	R1501J
679.554	1.617	571325	WORD	n/a	wordpools/wordpool_categorized_EN.txt	GOAT	FarmAnimals	12	5	[0, 0, 0]	n/a	catFR1	4	R1501J
681.171	0.0	572939	WORD_OFF	n/a	n/a	GOAT	FarmAnimals	12	5	[0, 0, 0]	n/a	catFR1	4	R1501J
681.171	0.001	572947	PROB	0.001	n/a	n/a	n/a	-999	5	[8, 5, 3]	16	catFR1	4	R1501J
681.172	0.0	572948	START	n/a	n/a	n/a	n/a	-999	5	[-999, -999, -999]	n/a	catFR1	4	R1501J
681.172	0.0	572952	ENCODING_END	n/a	n/a	n/a	n/a	-999	5	[0, 0, 0]	n/a	catFR1	4	R1501J
681.172	5.399	572952	DISTRACT_START	n/a	n/a	n/a	n/a	-999	5	[0, 0, 0]	n/a	catFR1	4	R1501J
686.571	4.902	578347	PROB	4.902	n/a	n/a	n/a	-999	5	[2, 6, 6]	14	catFR1	4	R1501J
691.473	7.214	583249	PROB	7.214	n/a	n/a	n/a	-999	5	[4, 7, 7]	18	catFR1	4	R1501J
698.687	3.316	590463	PROB	3.316	n/a	n/a	n/a	-999	5	[6, 7, 2]	15	catFR1	4	R1501J
702.003	0.0	593771	DISTRACT_END	n/a	n/a	n/a	n/a	-999	5	[0, 0, 0]	n/a	catFR1	4	R1501J
702.003	1.068	593778	STOP	n/a	n/a	n/a	n/a	-999	5	[-999, -999, -999]	n/a	catFR1	4	R1501J
703.071	2.706	594842	REC_START	n/a	n/a	n/a	n/a	-999	5	[0, 0, 0]	n/a	catFR1	4	R1501J
705.777	7.862	597552	REC_WORD	7.862	n/a	SCREWDRIVER	Tools	3	5	[0, 0, 0]	n/a	catFR1	4	R1501J
713.639	4.983	605414	REC_WORD	4.983	n/a	PIG	FarmAnimals	1	5	[0, 0, 0]	n/a	catFR1	4	R1501J
718.622	4.545	610397	REC_WORD_VV	4.545	n/a	<>	n/a	-999	5	[0, 0, 0]	n/a	catFR1	4	R1501J
723.167	2.808	614941	REC_WORD	2.808	n/a	PASTRY	Desserts	6	5	[0, 0, 0]	n/a	catFR1	4	R1501J
725.975	1.0	617749	REC_WORD_VV	1.0	n/a	<>	n/a	-999	5	[0, 0, 0]	n/a	catFR1	4	R1501J
726.975	2.885	618749	REC_WORD_VV	2.885	n/a	<>	n/a	-999	5	[0, 0, 0]	n/a	catFR1	4	R1501J
729.86	2.662	621634	REC_WORD	2.662	n/a	SCREWDRIVER	Tools	3	5	[0, 0, 0]	n/a	catFR1	4	R1501J
732.522	1.738	624296	REC_WORD_VV	1.738	n/a	<>	n/a	-999	5	[0, 0, 0]	n/a	catFR1	4	R1501J
734.26	1.612	626030	REC_END	n/a	n/a	n/a	n/a	-999	5	[0, 0, 0]	n/a	catFR1	4	R1501J
735.872	10.349	627644	COUNTDOWN_START	n/a	n/a	n/a	n/a	-999	5	[0, 0, 0]	n/a	catFR1	4	R1501J
746.221	0.0	637987	COUNTDOWN_END	n/a	n/a	n/a	n/a	-999	5	[0, 0, 0]	n/a	catFR1	4	R1501J
746.221	1.849	638000	ENCODING_START	n/a	n/a	n/a	n/a	-999	6	[0, 0, 0]	n/a	catFR1	4	R1501J
748.07	1.602	639839	WORD	n/a	wordpools/wordpool_categorized_EN.txt	FLEECE	Fabric	1	6	[0, 0, 0]	n/a	catFR1	4	R1501J
749.672	0.817	641439	WORD_OFF	n/a	n/a	FLEECE	Fabric	1	6	[0, 0, 0]	n/a	catFR1	4	R1501J
750.489	1.6	642259	WORD	n/a	wordpools/wordpool_categorized_EN.txt	WOOL	Fabric	2	6	[0, 0, 0]	n/a	catFR1	4	R1501J
752.089	0.95	643860	WORD_OFF	n/a	n/a	WOOL	Fabric	2	6	[0, 0, 0]	n/a	catFR1	4	R1501J
753.039	1.6	644812	WORD	n/a	wordpools/wordpool_categorized_EN.txt	WASHER	Appliances	3	6	[0, 0, 0]	n/a	catFR1	4	R1501J
754.639	0.933	646413	WORD_OFF	n/a	n/a	WASHER	Appliances	3	6	[0, 0, 0]	n/a	catFR1	4	R1501J
755.572	1.617	647338	WORD	n/a	wordpools/wordpool_categorized_EN.txt	VACUUM	Appliances	4	6	[0, 0, 0]	n/a	catFR1	4	R1501J
757.189	0.883	648965	WORD_OFF	n/a	n/a	VACUUM	Appliances	4	6	[0, 0, 0]	n/a	catFR1	4	R1501J
758.072	1.615	649838	WORD	n/a	wordpools/wordpool_categorized_EN.txt	STAPLER	OfficeSupplies	5	6	[0, 0, 0]	n/a	catFR1	4	R1501J
759.687	0.9	651452	WORD_OFF	n/a	n/a	STAPLER	OfficeSupplies	5	6	[0, 0, 0]	n/a	catFR1	4	R1501J
760.587	1.601	652351	WORD	n/a	wordpools/wordpool_categorized_EN.txt	TAPE	OfficeSupplies	6	6	[0, 0, 0]	n/a	catFR1	4	R1501J
762.188	0.934	653965	WORD_OFF	n/a	n/a	TAPE	OfficeSupplies	6	6	[0, 0, 0]	n/a	catFR1	4	R1501J
763.122	1.617	654891	WORD	n/a	wordpools/wordpool_categorized_EN.txt	LINEN	Fabric	7	6	[0, 0, 0]	n/a	catFR1	4	R1501J
764.739	0.916	656505	WORD_OFF	n/a	n/a	LINEN	Fabric	7	6	[0, 0, 0]	n/a	catFR1	4	R1501J
765.655	1.616	657430	WORD	n/a	wordpools/wordpool_categorized_EN.txt	VELVET	Fabric	8	6	[0, 0, 0]	n/a	catFR1	4	R1501J
767.271	0.816	659044	WORD_OFF	n/a	n/a	VELVET	Fabric	8	6	[0, 0, 0]	n/a	catFR1	4	R1501J
768.087	1.601	659851	WORD	n/a	wordpools/wordpool_categorized_EN.txt	BINDER	OfficeSupplies	9	6	[0, 0, 0]	n/a	catFR1	4	R1501J
769.688	0.85	661451	WORD_OFF	n/a	n/a	BINDER	OfficeSupplies	9	6	[0, 0, 0]	n/a	catFR1	4	R1501J
770.538	1.6	662311	WORD	n/a	wordpools/wordpool_categorized_EN.txt	MARKER	OfficeSupplies	10	6	[0, 0, 0]	n/a	catFR1	4	R1501J
772.138	0.916	663911	WORD_OFF	n/a	n/a	MARKER	OfficeSupplies	10	6	[0, 0, 0]	n/a	catFR1	4	R1501J
773.054	1.601	664824	WORD	n/a	wordpools/wordpool_categorized_EN.txt	FREEZER	Appliances	11	6	[0, 0, 0]	n/a	catFR1	4	R1501J
774.655	0.966	666425	WORD_OFF	n/a	n/a	FREEZER	Appliances	11	6	[0, 0, 0]	n/a	catFR1	4	R1501J
775.621	1.617	667390	WORD	n/a	wordpools/wordpool_categorized_EN.txt	DISHWASHER	Appliances	12	6	[0, 0, 0]	n/a	catFR1	4	R1501J
777.238	0.0	669004	WORD_OFF	n/a	n/a	DISHWASHER	Appliances	12	6	[0, 0, 0]	n/a	catFR1	4	R1501J
777.238	0.002	669010	PROB	0.002	n/a	n/a	n/a	-999	6	[7, 8, 8]	23	catFR1	4	R1501J
777.24	0.0	669012	START	n/a	n/a	n/a	n/a	-999	6	[-999, -999, -999]	n/a	catFR1	4	R1501J
777.24	0.0	669017	ENCODING_END	n/a	n/a	n/a	n/a	-999	6	[0, 0, 0]	n/a	catFR1	4	R1501J
777.24	8.014	669017	DISTRACT_START	n/a	n/a	n/a	n/a	-999	6	[0, 0, 0]	n/a	catFR1	4	R1501J
785.254	2.184	677026	PROB	2.184	n/a	n/a	n/a	-999	6	[3, 7, 1]	11	catFR1	4	R1501J
787.438	8.0	679210	PROB	8.0	n/a	n/a	n/a	-999	6	[4, 5, 7]	16	catFR1	4	R1501J
795.438	6.065	687209	PROB	6.065	n/a	n/a	n/a	-999	6	[4, 2, 3]	9	catFR1	4	R1501J
801.503	0.0	693274	STOP	n/a	n/a	n/a	n/a	-999	6	[-999, -999, -999]	n/a	catFR1	4	R1501J
801.503	1.134	693275	DISTRACT_END	n/a	n/a	n/a	n/a	-999	6	[0, 0, 0]	n/a	catFR1	4	R1501J
802.637	7.056	694412	REC_START	n/a	n/a	n/a	n/a	-999	6	[0, 0, 0]	n/a	catFR1	4	R1501J
809.693	5.663	701464	REC_WORD_VV	5.663	n/a	<>	n/a	-999	6	[0, 0, 0]	n/a	catFR1	4	R1501J
815.356	1.0	707127	REC_WORD_VV	1.0	n/a	<>	n/a	-999	6	[0, 0, 0]	n/a	catFR1	4	R1501J
816.356	1.0	708127	REC_WORD_VV	1.0	n/a	<>	n/a	-999	6	[0, 0, 0]	n/a	catFR1	4	R1501J
817.356	16.536	709126	REC_WORD_VV	16.536	n/a	<>	n/a	-999	6	[0, 0, 0]	n/a	catFR1	4	R1501J
833.892	1.68	725653	REC_END	n/a	n/a	n/a	n/a	-999	6	[0, 0, 0]	n/a	catFR1	4	R1501J
835.572	10.349	727346	COUNTDOWN_START	n/a	n/a	n/a	n/a	-999	6	[0, 0, 0]	n/a	catFR1	4	R1501J
845.921	0.001	737690	COUNTDOWN_END	n/a	n/a	n/a	n/a	-999	6	[0, 0, 0]	n/a	catFR1	4	R1501J
845.922	2.116	737690	ENCODING_START	n/a	n/a	n/a	n/a	-999	7	[0, 0, 0]	n/a	catFR1	4	R1501J
848.038	1.615	739806	WORD	n/a	wordpools/wordpool_categorized_EN.txt	HICKORY	Trees	1	7	[0, 0, 0]	n/a	catFR1	4	R1501J
849.653	0.819	741420	WORD_OFF	n/a	n/a	HICKORY	Trees	1	7	[0, 0, 0]	n/a	catFR1	4	R1501J
850.472	1.6	742240	WORD	n/a	wordpools/wordpool_categorized_EN.txt	EVERGREEN	Trees	2	7	[0, 0, 0]	n/a	catFR1	4	R1501J
852.072	1.0	743840	WORD_OFF	n/a	n/a	EVERGREEN	Trees	2	7	[0, 0, 0]	n/a	catFR1	4	R1501J
853.072	1.6	744845	WORD	n/a	wordpools/wordpool_categorized_EN.txt	RUM	Beverages	3	7	[0, 0, 0]	n/a	catFR1	4	R1501J
854.672	0.883	746433	WORD_OFF	n/a	n/a	RUM	Beverages	3	7	[0, 0, 0]	n/a	catFR1	4	R1501J
855.555	1.6	747319	WORD	n/a	wordpools/wordpool_categorized_EN.txt	JUICE	Beverages	4	7	[0, 0, 0]	n/a	catFR1	4	R1501J
857.155	0.767	748919	WORD_OFF	n/a	n/a	JUICE	Beverages	4	7	[0, 0, 0]	n/a	catFR1	4	R1501J
857.922	1.6	749686	WORD	n/a	wordpools/wordpool_categorized_EN.txt	SPIDER	Insects	5	7	[0, 0, 0]	n/a	catFR1	4	R1501J
859.522	1.0	751287	WORD_OFF	n/a	n/a	SPIDER	Insects	5	7	[0, 0, 0]	n/a	catFR1	4	R1501J
860.522	1.616	752292	WORD	n/a	wordpools/wordpool_categorized_EN.txt	GNAT	Insects	6	7	[0, 0, 0]	n/a	catFR1	4	R1501J
862.138	0.933	753906	WORD_OFF	n/a	n/a	GNAT	Insects	6	7	[0, 0, 0]	n/a	catFR1	4	R1501J
863.071	1.617	754832	WORD	n/a	wordpools/wordpool_categorized_EN.txt	OAK	Trees	7	7	[0, 0, 0]	n/a	catFR1	4	R1501J
864.688	0.865	756458	WORD_OFF	n/a	n/a	OAK	Trees	7	7	[0, 0, 0]	n/a	catFR1	4	R1501J
865.553	1.601	757318	WORD	n/a	wordpools/wordpool_categorized_EN.txt	CYPRESS	Trees	8	7	[0, 0, 0]	n/a	catFR1	4	R1501J
867.154	0.834	758919	WORD_OFF	n/a	n/a	CYPRESS	Trees	8	7	[0, 0, 0]	n/a	catFR1	4	R1501J
867.988	1.6	759752	WORD	n/a	wordpools/wordpool_categorized_EN.txt	SODA	Beverages	9	7	[0, 0, 0]	n/a	catFR1	4	R1501J
869.588	1.0	761352	WORD_OFF	n/a	n/a	SODA	Beverages	9	7	[0, 0, 0]	n/a	catFR1	4	R1501J
870.588	1.6	762357	WORD	n/a	wordpools/wordpool_categorized_EN.txt	COFFEE	Beverages	10	7	[0, 0, 0]	n/a	catFR1	4	R1501J
872.188	0.983	763958	WORD_OFF	n/a	n/a	COFFEE	Beverages	10	7	[0, 0, 0]	n/a	catFR1	4	R1501J
873.171	1.615	764937	WORD	n/a	wordpools/wordpool_categorized_EN.txt	FLY	Insects	11	7	[0, 0, 0]	n/a	catFR1	4	R1501J
874.786	0.985	766550	WORD_OFF	n/a	n/a	FLY	Insects	11	7	[0, 0, 0]	n/a	catFR1	4	R1501J
875.771	1.616	767542	WORD	n/a	wordpools/wordpool_categorized_EN.txt	BEE	Insects	12	7	[0, 0, 0]	n/a	catFR1	4	R1501J
877.387	0.0	769155	PROB	0.0	n/a	n/a	n/a	-999	7	[4, 2, 4]	10	catFR1	4	R1501J
877.387	0.001	769156	WORD_OFF	n/a	n/a	BEE	Insects	12	7	[0, 0, 0]	n/a	catFR1	4	R1501J
877.388	0.0	769156	ENCODING_END	n/a	n/a	n/a	n/a	-999	7	[0, 0, 0]	n/a	catFR1	4	R1501J
877.388	0.0	769156	DISTRACT_START	n/a	n/a	n/a	n/a	-999	7	[0, 0, 0]	n/a	catFR1	4	R1501J
877.388	4.8	769156	START	n/a	n/a	n/a	n/a	-999	7	[-999, -999, -999]	n/a	catFR1	4	R1501J
882.188	5.533	773956	PROB	5.533	n/a	n/a	n/a	-999	7	[7, 4, 5]	16	catFR1	4	R1501J
887.721	2.584	779489	PROB	2.584	n/a	n/a	n/a	-999	7	[6, 8, 1]	15	catFR1	4	R1501J
890.305	6.416	782072	PROB	6.416	n/a	n/a	n/a	-999	7	[5, 3, 6]	16	catFR1	4	R1501J
896.721	3.382	788488	PROB	3.382	n/a	n/a	n/a	-999	7	[4, 4, 4]	12	catFR1	4	R1501J
900.103	0.0	791866	DISTRACT_END	n/a	n/a	n/a	n/a	-999	7	[0, 0, 0]	n/a	catFR1	4	R1501J
900.103	1.402	791870	STOP	n/a	n/a	n/a	n/a	-999	7	[-999, -999, -999]	n/a	catFR1	4	R1501J
901.505	1.799	793268	REC_START	n/a	n/a	n/a	n/a	-999	7	[0, 0, 0]	n/a	catFR1	4	R1501J
903.304	1.379	795071	REC_WORD	1.379	n/a	HICKORY	Trees	1	7	[0, 0, 0]	n/a	catFR1	4	R1501J
904.683	1.608	796450	REC_WORD	1.608	n/a	EVERGREEN	Trees	2	7	[0, 0, 0]	n/a	catFR1	4	R1501J
906.291	1.447	798058	REC_WORD	1.447	n/a	RUM	Beverages	3	7	[0, 0, 0]	n/a	catFR1	4	R1501J
907.738	1.549	799505	REC_WORD	1.549	n/a	JUICE	Beverages	4	7	[0, 0, 0]	n/a	catFR1	4	R1501J
909.287	8.841	801054	REC_WORD	8.841	n/a	SPIDER	Insects	5	7	[0, 0, 0]	n/a	catFR1	4	R1501J
918.128	1.764	809894	REC_WORD	1.764	n/a	CIDER	Beverages	-999	7	[0, 0, 0]	n/a	catFR1	4	R1501J
919.892	3.561	811658	REC_WORD	3.561	n/a	SPIDER	Insects	5	7	[0, 0, 0]	n/a	catFR1	4	R1501J
923.453	6.956	815219	REC_WORD	6.956	n/a	SODA	Beverages	9	7	[0, 0, 0]	n/a	catFR1	4	R1501J
930.409	2.334	822175	REC_WORD_VV	2.334	n/a	<>	n/a	-999	7	[0, 0, 0]	n/a	catFR1	4	R1501J
932.743	1.914	824510	REC_END	n/a	n/a	n/a	n/a	-999	7	[0, 0, 0]	n/a	catFR1	4	R1501J
934.657	10.348	826427	COUNTDOWN_START	n/a	n/a	n/a	n/a	-999	7	[0, 0, 0]	n/a	catFR1	4	R1501J
945.005	0.0	836771	COUNTDOWN_END	n/a	n/a	n/a	n/a	-999	7	[0, 0, 0]	n/a	catFR1	4	R1501J
945.005	1.983	836771	ENCODING_START	n/a	n/a	n/a	n/a	-999	8	[0, 0, 0]	n/a	catFR1	4	R1501J
946.988	1.617	838755	WORD	n/a	wordpools/wordpool_categorized_EN.txt	DOVE	Birds	1	8	[0, 0, 0]	n/a	catFR1	4	R1501J
948.605	0.867	840368	WORD_OFF	n/a	n/a	DOVE	Birds	1	8	[0, 0, 0]	n/a	catFR1	4	R1501J
949.472	1.6	841228	WORD	n/a	wordpools/wordpool_categorized_EN.txt	CROW	Birds	2	8	[0, 0, 0]	n/a	catFR1	4	R1501J
951.072	0.866	842828	WORD_OFF	n/a	n/a	CROW	Birds	2	8	[0, 0, 0]	n/a	catFR1	4	R1501J
951.938	1.601	843701	WORD	n/a	wordpools/wordpool_categorized_EN.txt	PEAS	Vegetables	3	8	[0, 0, 0]	n/a	catFR1	4	R1501J
953.539	0.816	845302	WORD_OFF	n/a	n/a	PEAS	Vegetables	3	8	[0, 0, 0]	n/a	catFR1	4	R1501J
954.355	1.616	846122	WORD	n/a	wordpools/wordpool_categorized_EN.txt	CORN	Vegetables	4	8	[0, 0, 0]	n/a	catFR1	4	R1501J
955.971	0.965	847736	WORD_OFF	n/a	n/a	CORN	Vegetables	4	8	[0, 0, 0]	n/a	catFR1	4	R1501J
956.936	1.602	848701	WORD	n/a	wordpools/wordpool_categorized_EN.txt	WHALE	OceanAnimals	5	8	[0, 0, 0]	n/a	catFR1	4	R1501J
958.538	0.8	850301	WORD_OFF	n/a	n/a	WHALE	OceanAnimals	5	8	[0, 0, 0]	n/a	catFR1	4	R1501J
959.338	1.6	851095	WORD	n/a	wordpools/wordpool_categorized_EN.txt	OCTOPUS	OceanAnimals	6	8	[0, 0, 0]	n/a	catFR1	4	R1501J
960.938	0.867	852696	WORD_OFF	n/a	n/a	OCTOPUS	OceanAnimals	6	8	[0, 0, 0]	n/a	catFR1	4	R1501J
961.805	1.616	853568	WORD	n/a	wordpools/wordpool_categorized_EN.txt	CELERY	Vegetables	7	8	[0, 0, 0]	n/a	catFR1	4	R1501J
963.421	0.917	855182	WORD_OFF	n/a	n/a	CELERY	Vegetables	7	8	[0, 0, 0]	n/a	catFR1	4	R1501J
964.338	1.6	856095	WORD	n/a	wordpools/wordpool_categorized_EN.txt	CARROT	Vegetables	8	8	[0, 0, 0]	n/a	catFR1	4	R1501J
965.938	0.8	857695	WORD_OFF	n/a	n/a	CARROT	Vegetables	8	8	[0, 0, 0]	n/a	catFR1	4	R1501J
966.738	1.617	858502	WORD	n/a	wordpools/wordpool_categorized_EN.txt	FISH	OceanAnimals	9	8	[0, 0, 0]	n/a	catFR1	4	R1501J
968.355	0.866	860116	WORD_OFF	n/a	n/a	FISH	OceanAnimals	9	8	[0, 0, 0]	n/a	catFR1	4	R1501J
969.221	1.617	860989	WORD	n/a	wordpools/wordpool_categorized_EN.txt	PLANKTON	OceanAnimals	10	8	[0, 0, 0]	n/a	catFR1	4	R1501J
970.838	0.833	862602	WORD_OFF	n/a	n/a	PLANKTON	OceanAnimals	10	8	[0, 0, 0]	n/a	catFR1	4	R1501J
971.671	1.6	863436	WORD	n/a	wordpools/wordpool_categorized_EN.txt	GOOSE	Birds	11	8	[0, 0, 0]	n/a	catFR1	4	R1501J
973.271	0.784	865036	WORD_OFF	n/a	n/a	GOOSE	Birds	11	8	[0, 0, 0]	n/a	catFR1	4	R1501J
974.055	1.615	865816	WORD	n/a	wordpools/wordpool_categorized_EN.txt	CARDINAL	Birds	12	8	[0, 0, 0]	n/a	catFR1	4	R1501J
975.67	0.001	867430	WORD_OFF	n/a	n/a	CARDINAL	Birds	12	8	[0, 0, 0]	n/a	catFR1	4	R1501J
975.671	0.0	867430	ENCODING_END	n/a	n/a	n/a	n/a	-999	8	[0, 0, 0]	n/a	catFR1	4	R1501J
975.671	0.0	867430	DISTRACT_START	n/a	n/a	n/a	n/a	-999	8	[0, 0, 0]	n/a	catFR1	4	R1501J
975.671	0.0	867435	START	n/a	n/a	n/a	n/a	-999	8	[-999, -999, -999]	n/a	catFR1	4	R1501J
975.671	5.316	867435	PROB	5.316	n/a	n/a	n/a	-999	8	[3, 3, 6]	12	catFR1	4	R1501J
980.987	4.201	872751	PROB	4.201	n/a	n/a	n/a	-999	8	[6, 6, 2]	14	catFR1	4	R1501J
985.188	4.617	876951	PROB	4.617	n/a	n/a	n/a	-999	8	[2, 4, 7]	13	catFR1	4	R1501J
989.805	5.932	881568	PROB	5.932	n/a	n/a	n/a	-999	8	[5, 8, 4]	17	catFR1	4	R1501J
995.737	0.0	887495	DISTRACT_END	n/a	n/a	n/a	n/a	-999	8	[0, 0, 0]	n/a	catFR1	4	R1501J
995.737	1.117	887500	STOP	n/a	n/a	n/a	n/a	-999	8	[-999, -999, -999]	n/a	catFR1	4	R1501J
996.854	7.007	888619	REC_START	n/a	n/a	n/a	n/a	-999	8	[0, 0, 0]	n/a	catFR1	4	R1501J
1003.861	2.718	895624	REC_WORD_VV	2.718	n/a	<>	n/a	-999	8	[0, 0, 0]	n/a	catFR1	4	R1501J
1006.579	3.192	898341	REC_WORD	3.192	n/a	CELERY	Vegetables	7	8	[0, 0, 0]	n/a	catFR1	4	R1501J
1009.771	1.163	901533	REC_WORD	1.163	n/a	PEAS	Vegetables	3	8	[0, 0, 0]	n/a	catFR1	4	R1501J
1010.934	4.645	902696	REC_WORD	4.645	n/a	CARROT	Vegetables	8	8	[0, 0, 0]	n/a	catFR1	4	R1501J
1015.579	5.194	907341	REC_WORD_VV	5.194	n/a	<>	n/a	-999	8	[0, 0, 0]	n/a	catFR1	4	R1501J
1020.773	2.931	912535	REC_WORD	2.931	n/a	WHALE	OceanAnimals	5	8	[0, 0, 0]	n/a	catFR1	4	R1501J
1023.704	1.641	915466	REC_WORD_VV	1.641	n/a	<>	n/a	-999	8	[0, 0, 0]	n/a	catFR1	4	R1501J
1025.345	0.98	917107	REC_WORD	0.98	n/a	PLANKTON	OceanAnimals	10	8	[0, 0, 0]	n/a	catFR1	4	R1501J
1026.325	1.762	918087	REC_WORD	1.762	n/a	FISH	OceanAnimals	9	8	[0, 0, 0]	n/a	catFR1	4	R1501J
1028.087	1.552	919847	REC_END	n/a	n/a	n/a	n/a	-999	8	[0, 0, 0]	n/a	catFR1	4	R1501J
1029.639	10.349	921395	COUNTDOWN_START	n/a	n/a	n/a	n/a	-999	8	[0, 0, 0]	n/a	catFR1	4	R1501J
1039.988	0.0	931751	COUNTDOWN_END	n/a	n/a	n/a	n/a	-999	8	[0, 0, 0]	n/a	catFR1	4	R1501J
1039.988	1.966	931751	ENCODING_START	n/a	n/a	n/a	n/a	-999	9	[0, 0, 0]	n/a	catFR1	4	R1501J
1041.954	1.601	933709	WORD	n/a	wordpools/wordpool_categorized_EN.txt	AXE	Tools	1	9	[0, 0, 0]	n/a	catFR1	4	R1501J
1043.555	1.0	935309	WORD_OFF	n/a	n/a	AXE	Tools	1	9	[0, 0, 0]	n/a	catFR1	4	R1501J
1044.555	1.6	936314	WORD	n/a	wordpools/wordpool_categorized_EN.txt	RATCHET	Tools	2	9	[0, 0, 0]	n/a	catFR1	4	R1501J
1046.155	0.85	937915	WORD_OFF	n/a	n/a	RATCHET	Tools	2	9	[0, 0, 0]	n/a	catFR1	4	R1501J
1047.005	1.616	938761	WORD	n/a	wordpools/wordpool_categorized_EN.txt	LADLE	KitchenTools	3	9	[0, 0, 0]	n/a	catFR1	4	R1501J
1048.621	0.984	940375	WORD_OFF	n/a	n/a	LADLE	KitchenTools	3	9	[0, 0, 0]	n/a	catFR1	4	R1501J
1049.605	1.6	941367	WORD	n/a	wordpools/wordpool_categorized_EN.txt	SPOON	KitchenTools	4	9	[0, 0, 0]	n/a	catFR1	4	R1501J
1051.205	0.867	942967	WORD_OFF	n/a	n/a	SPOON	KitchenTools	4	9	[0, 0, 0]	n/a	catFR1	4	R1501J
1052.072	1.616	943827	WORD	n/a	wordpools/wordpool_categorized_EN.txt	CARNATION	Flowers	5	9	[0, 0, 0]	n/a	catFR1	4	R1501J
1053.688	0.848	945441	WORD_OFF	n/a	n/a	CARNATION	Flowers	5	9	[0, 0, 0]	n/a	catFR1	4	R1501J
1054.536	1.602	946301	WORD	n/a	wordpools/wordpool_categorized_EN.txt	ORCHID	Flowers	6	9	[0, 0, 0]	n/a	catFR1	4	R1501J
1056.138	0.883	947901	WORD_OFF	n/a	n/a	ORCHID	Flowers	6	9	[0, 0, 0]	n/a	catFR1	4	R1501J
1057.021	1.6	948774	WORD	n/a	wordpools/wordpool_categorized_EN.txt	SPATULA	KitchenTools	7	9	[0, 0, 0]	n/a	catFR1	4	R1501J
1058.621	0.767	950374	WORD_OFF	n/a	n/a	SPATULA	KitchenTools	7	9	[0, 0, 0]	n/a	catFR1	4	R1501J
1059.388	1.617	951142	WORD	n/a	wordpools/wordpool_categorized_EN.txt	FORK	KitchenTools	8	9	[0, 0, 0]	n/a	catFR1	4	R1501J
1061.005	0.981	952768	WORD_OFF	n/a	n/a	FORK	KitchenTools	8	9	[0, 0, 0]	n/a	catFR1	4	R1501J
1061.986	1.602	953747	WORD	n/a	wordpools/wordpool_categorized_EN.txt	SANDER	Tools	9	9	[0, 0, 0]	n/a	catFR1	4	R1501J
1063.588	0.867	955348	WORD_OFF	n/a	n/a	SANDER	Tools	9	9	[0, 0, 0]	n/a	catFR1	4	R1501J
1064.455	1.616	956207	WORD	n/a	wordpools/wordpool_categorized_EN.txt	CROWBAR	Tools	10	9	[0, 0, 0]	n/a	catFR1	4	R1501J
1066.071	0.767	957834	WORD_OFF	n/a	n/a	CROWBAR	Tools	10	9	[0, 0, 0]	n/a	catFR1	4	R1501J
1066.838	1.615	958601	WORD	n/a	wordpools/wordpool_categorized_EN.txt	PETUNIA	Flowers	11	9	[0, 0, 0]	n/a	catFR1	4	R1501J
1068.453	0.985	960215	WORD_OFF	n/a	n/a	PETUNIA	Flowers	11	9	[0, 0, 0]	n/a	catFR1	4	R1501J
1069.438	1.616	961194	WORD	n/a	wordpools/wordpool_categorized_EN.txt	MARIGOLD	Flowers	12	9	[0, 0, 0]	n/a	catFR1	4	R1501J
1071.054	0.001	962807	WORD_OFF	n/a	n/a	MARIGOLD	Flowers	12	9	[0, 0, 0]	n/a	catFR1	4	R1501J
1071.055	0.0	962807	ENCODING_END	n/a	n/a	n/a	n/a	-999	9	[0, 0, 0]	n/a	catFR1	4	R1501J
1071.055	0.0	962815	START	n/a	n/a	n/a	n/a	-999	9	[-999, -999, -999]	n/a	catFR1	4	R1501J
1071.055	0.0	962815	PROB	0.0	n/a	n/a	n/a	-999	9	[2, 3, 3]	8	catFR1	4	R1501J
1071.055	5.85	962821	DISTRACT_START	n/a	n/a	n/a	n/a	-999	9	[0, 0, 0]	n/a	catFR1	4	R1501J
1076.905	6.249	968665	PROB	6.249	n/a	n/a	n/a	-999	9	[7, 4, 8]	19	catFR1	4	R1501J
1083.154	7.034	974913	PROB	7.034	n/a	n/a	n/a	-999	9	[8, 2, 7]	17	catFR1	4	R1501J
1090.188	8.232	981947	PROB	8.232	n/a	n/a	n/a	-999	9	[8, 3, 2]	13	catFR1	4	R1501J
1098.42	0.0	990173	DISTRACT_END	n/a	n/a	n/a	n/a	-999	9	[0, 0, 0]	n/a	catFR1	4	R1501J
1098.42	1.2	990179	STOP	n/a	n/a	n/a	n/a	-999	9	[-999, -999, -999]	n/a	catFR1	4	R1501J
1099.62	1.302	991377	REC_START	n/a	n/a	n/a	n/a	-999	9	[0, 0, 0]	n/a	catFR1	4	R1501J
1100.922	2.388	992681	REC_WORD_VV	2.388	n/a	<>	n/a	-999	9	[0, 0, 0]	n/a	catFR1	4	R1501J
1103.31	3.295	995068	REC_WORD	3.295	n/a	PETUNIA	Flowers	11	9	[0, 0, 0]	n/a	catFR1	4	R1501J
1106.605	5.31	998363	REC_WORD_VV	5.31	n/a	<>	n/a	-999	9	[0, 0, 0]	n/a	catFR1	4	R1501J
1111.915	4.065	1003673	REC_WORD	4.065	n/a	SPATULA	KitchenTools	7	9	[0, 0, 0]	n/a	catFR1	4	R1501J
1115.98	1.386	1007738	REC_WORD	1.386	n/a	PETUNIA	Flowers	11	9	[0, 0, 0]	n/a	catFR1	4	R1501J
1117.366	2.269	1009124	REC_WORD	2.269	n/a	SPATULA	KitchenTools	7	9	[0, 0, 0]	n/a	catFR1	4	R1501J
1119.635	5.978	1011393	REC_WORD	5.978	n/a	COLANDER	KitchenTools	-999	9	[0, 0, 0]	n/a	catFR1	4	R1501J
1125.613	5.231	1017370	REC_WORD_VV	5.231	n/a	<>	n/a	-999	9	[0, 0, 0]	n/a	catFR1	4	R1501J
1130.844	1.694	1022605	REC_END	n/a	n/a	n/a	n/a	-999	9	[0, 0, 0]	n/a	catFR1	4	R1501J
1132.538	10.35	1024298	COUNTDOWN_START	n/a	n/a	n/a	n/a	-999	9	[0, 0, 0]	n/a	catFR1	4	R1501J
1142.888	0.0	1034641	COUNTDOWN_END	n/a	n/a	n/a	n/a	-999	9	[0, 0, 0]	n/a	catFR1	4	R1501J
1142.888	2.251	1034641	ENCODING_START	n/a	n/a	n/a	n/a	-999	10	[0, 0, 0]	n/a	catFR1	4	R1501J
1145.139	1.616	1036890	WORD	n/a	wordpools/wordpool_categorized_EN.txt	LADYBUG	Insects	1	10	[0, 0, 0]	n/a	catFR1	4	R1501J
1146.755	0.932	1038504	WORD_OFF	n/a	n/a	LADYBUG	Insects	1	10	[0, 0, 0]	n/a	catFR1	4	R1501J
1147.687	1.601	1039443	WORD	n/a	wordpools/wordpool_categorized_EN.txt	MOSQUITO	Insects	2	10	[0, 0, 0]	n/a	catFR1	4	R1501J
1149.288	1.0	1041043	WORD_OFF	n/a	n/a	MOSQUITO	Insects	2	10	[0, 0, 0]	n/a	catFR1	4	R1501J
1150.288	1.601	1042048	WORD	n/a	wordpools/wordpool_categorized_EN.txt	DRYER	Appliances	3	10	[0, 0, 0]	n/a	catFR1	4	R1501J
1151.889	0.966	1043649	WORD_OFF	n/a	n/a	DRYER	Appliances	3	10	[0, 0, 0]	n/a	catFR1	4	R1501J
1152.855	1.6	1044614	WORD	n/a	wordpools/wordpool_categorized_EN.txt	REFRIGERATOR	Appliances	4	10	[0, 0, 0]	n/a	catFR1	4	R1501J
1154.455	0.766	1046215	WORD_OFF	n/a	n/a	REFRIGERATOR	Appliances	4	10	[0, 0, 0]	n/a	catFR1	4	R1501J
1155.221	1.6	1046976	WORD	n/a	wordpools/wordpool_categorized_EN.txt	SCOOTER	Vehicles	5	10	[0, 0, 0]	n/a	catFR1	4	R1501J
1156.821	0.834	1048582	WORD_OFF	n/a	n/a	SCOOTER	Vehicles	5	10	[0, 0, 0]	n/a	catFR1	4	R1501J
1157.655	1.615	1049402	WORD	n/a	wordpools/wordpool_categorized_EN.txt	TRUCK	Vehicles	6	10	[0, 0, 0]	n/a	catFR1	4	R1501J
1159.27	0.985	1051029	WORD_OFF	n/a	n/a	TRUCK	Vehicles	6	10	[0, 0, 0]	n/a	catFR1	4	R1501J
1160.255	1.6	1052008	WORD	n/a	wordpools/wordpool_categorized_EN.txt	ANT	Insects	7	10	[0, 0, 0]	n/a	catFR1	4	R1501J
1161.855	0.831	1053608	WORD_OFF	n/a	n/a	ANT	Insects	7	10	[0, 0, 0]	n/a	catFR1	4	R1501J
1162.686	1.601	1054442	WORD	n/a	wordpools/wordpool_categorized_EN.txt	CRICKET	Insects	8	10	[0, 0, 0]	n/a	catFR1	4	R1501J
1164.287	0.817	1056042	WORD_OFF	n/a	n/a	CRICKET	Insects	8	10	[0, 0, 0]	n/a	catFR1	4	R1501J
1165.104	1.616	1056862	WORD	n/a	wordpools/wordpool_categorized_EN.txt	BUS	Vehicles	9	10	[0, 0, 0]	n/a	catFR1	4	R1501J
1166.72	0.785	1058476	WORD_OFF	n/a	n/a	BUS	Vehicles	9	10	[0, 0, 0]	n/a	catFR1	4	R1501J
1167.505	1.616	1059256	WORD	n/a	wordpools/wordpool_categorized_EN.txt	CAR	Vehicles	10	10	[0, 0, 0]	n/a	catFR1	4	R1501J
1169.121	0.766	1060870	WORD_OFF	n/a	n/a	CAR	Vehicles	10	10	[0, 0, 0]	n/a	catFR1	4	R1501J
1169.887	1.617	1061637	WORD	n/a	wordpools/wordpool_categorized_EN.txt	STOVE	Appliances	11	10	[0, 0, 0]	n/a	catFR1	4	R1501J
1171.504	0.934	1063251	WORD_OFF	n/a	n/a	STOVE	Appliances	11	10	[0, 0, 0]	n/a	catFR1	4	R1501J
1172.438	1.6	1064190	WORD	n/a	wordpools/wordpool_categorized_EN.txt	MIXER	Appliances	12	10	[0, 0, 0]	n/a	catFR1	4	R1501J
1174.038	0.001	1065790	WORD_OFF	n/a	n/a	MIXER	Appliances	12	10	[0, 0, 0]	n/a	catFR1	4	R1501J
1174.039	0.001	1065790	ENCODING_END	n/a	n/a	n/a	n/a	-999	10	[0, 0, 0]	n/a	catFR1	4	R1501J
1174.04	0.0	1065790	DISTRACT_START	n/a	n/a	n/a	n/a	-999	10	[0, 0, 0]	n/a	catFR1	4	R1501J
1174.038	0.002	1065793	PROB	0.002	n/a	n/a	n/a	-999	10	[4, 1, 3]	8	catFR1	4	R1501J
1174.04	3.431	1065795	START	n/a	n/a	n/a	n/a	-999	10	[-999, -999, -999]	n/a	catFR1	4	R1501J
1177.471	6.749	1069226	PROB	6.749	n/a	n/a	n/a	-999	10	[8, 4, 6]	18	catFR1	4	R1501J
1184.22	7.067	1075975	PROB	7.067	n/a	n/a	n/a	-999	10	[7, 8, 5]	20	catFR1	4	R1501J
1191.287	7.75	1083042	PROB	7.75	n/a	n/a	n/a	-999	10	[3, 4, 6]	13	catFR1	4	R1501J
1199.037	0.0	1090789	DISTRACT_END	n/a	n/a	n/a	n/a	-999	10	[0, 0, 0]	n/a	catFR1	4	R1501J
1199.037	1.235	1090791	STOP	n/a	n/a	n/a	n/a	-999	10	[-999, -999, -999]	n/a	catFR1	4	R1501J
1200.272	3.831	1092019	REC_START	n/a	n/a	n/a	n/a	-999	10	[0, 0, 0]	n/a	catFR1	4	R1501J
1204.103	1.684	1095857	REC_WORD	1.684	n/a	CAR	Vehicles	10	10	[0, 0, 0]	n/a	catFR1	4	R1501J
1205.787	1.372	1097541	REC_WORD_VV	1.372	n/a	<>	n/a	-999	10	[0, 0, 0]	n/a	catFR1	4	R1501J
1207.159	5.599	1098913	REC_WORD_VV	5.599	n/a	<>	n/a	-999	10	[0, 0, 0]	n/a	catFR1	4	R1501J
1212.758	18.735	1104512	REC_WORD	18.735	n/a	CAR	Vehicles	10	10	[0, 0, 0]	n/a	catFR1	4	R1501J
1231.493	2.096	1123247	REC_END	n/a	n/a	n/a	n/a	-999	10	[0, 0, 0]	n/a	catFR1	4	R1501J
1233.589	10.349	1125337	COUNTDOWN_START	n/a	n/a	n/a	n/a	-999	10	[0, 0, 0]	n/a	catFR1	4	R1501J
1243.938	0.0	1135693	COUNTDOWN_END	n/a	n/a	n/a	n/a	-999	10	[0, 0, 0]	n/a	catFR1	4	R1501J
1243.938	2.282	1135693	ENCODING_START	n/a	n/a	n/a	n/a	-999	11	[0, 0, 0]	n/a	catFR1	4	R1501J
1246.22	1.601	1137968	WORD	n/a	wordpools/wordpool_categorized_EN.txt	LILY	Flowers	1	11	[0, 0, 0]	n/a	catFR1	4	R1501J
1247.821	0.867	1139568	WORD_OFF	n/a	n/a	LILY	Flowers	1	11	[0, 0, 0]	n/a	catFR1	4	R1501J
1248.688	1.6	1140441	WORD	n/a	wordpools/wordpool_categorized_EN.txt	SUNFLOWER	Flowers	2	11	[0, 0, 0]	n/a	catFR1	4	R1501J
1250.288	0.833	1142042	WORD_OFF	n/a	n/a	SUNFLOWER	Flowers	2	11	[0, 0, 0]	n/a	catFR1	4	R1501J
1251.121	1.616	1142875	WORD	n/a	wordpools/wordpool_categorized_EN.txt	BUTTERFLY	Insects	3	11	[0, 0, 0]	n/a	catFR1	4	R1501J
1252.737	0.901	1144489	WORD_OFF	n/a	n/a	BUTTERFLY	Insects	3	11	[0, 0, 0]	n/a	catFR1	4	R1501J
1253.638	1.6	1145388	WORD	n/a	wordpools/wordpool_categorized_EN.txt	BEETLE	Insects	4	11	[0, 0, 0]	n/a	catFR1	4	R1501J
1255.238	0.966	1146989	WORD_OFF	n/a	n/a	BEETLE	Insects	4	11	[0, 0, 0]	n/a	catFR1	4	R1501J
1256.204	1.601	1147954	WORD	n/a	wordpools/wordpool_categorized_EN.txt	BOAT	Vehicles	5	11	[0, 0, 0]	n/a	catFR1	4	R1501J
1257.805	0.783	1149555	WORD_OFF	n/a	n/a	BOAT	Vehicles	5	11	[0, 0, 0]	n/a	catFR1	4	R1501J
1258.588	1.6	1150335	WORD	n/a	wordpools/wordpool_categorized_EN.txt	PLANE	Vehicles	6	11	[0, 0, 0]	n/a	catFR1	4	R1501J
1260.188	0.816	1151935	WORD_OFF	n/a	n/a	PLANE	Vehicles	6	11	[0, 0, 0]	n/a	catFR1	4	R1501J
1261.004	1.6	1152755	WORD	n/a	wordpools/wordpool_categorized_EN.txt	MOTH	Insects	7	11	[0, 0, 0]	n/a	catFR1	4	R1501J
1262.604	0.983	1154356	WORD_OFF	n/a	n/a	MOTH	Insects	7	11	[0, 0, 0]	n/a	catFR1	4	R1501J
1263.587	1.6	1155335	WORD	n/a	wordpools/wordpool_categorized_EN.txt	ROACH	Insects	8	11	[0, 0, 0]	n/a	catFR1	4	R1501J
1265.187	0.784	1156935	WORD_OFF	n/a	n/a	ROACH	Insects	8	11	[0, 0, 0]	n/a	catFR1	4	R1501J
1265.971	1.617	1157715	WORD	n/a	wordpools/wordpool_categorized_EN.txt	MOTORCYCLE	Vehicles	9	11	[0, 0, 0]	n/a	catFR1	4	R1501J
1267.588	0.898	1159342	WORD_OFF	n/a	n/a	MOTORCYCLE	Vehicles	9	11	[0, 0, 0]	n/a	catFR1	4	R1501J
1268.486	1.602	1160228	WORD	n/a	wordpools/wordpool_categorized_EN.txt	MOPED	Vehicles	10	11	[0, 0, 0]	n/a	catFR1	4	R1501J
1270.088	0.799	1161842	WORD_OFF	n/a	n/a	MOPED	Vehicles	10	11	[0, 0, 0]	n/a	catFR1	4	R1501J
1270.887	1.6	1162636	WORD	n/a	wordpools/wordpool_categorized_EN.txt	VIOLET	Flowers	11	11	[0, 0, 0]	n/a	catFR1	4	R1501J
1272.487	0.85	1164236	WORD_OFF	n/a	n/a	VIOLET	Flowers	11	11	[0, 0, 0]	n/a	catFR1	4	R1501J
1273.337	1.6	1165083	WORD	n/a	wordpools/wordpool_categorized_EN.txt	TULIP	Flowers	12	11	[0, 0, 0]	n/a	catFR1	4	R1501J
1274.937	0.001	1166683	WORD_OFF	n/a	n/a	TULIP	Flowers	12	11	[0, 0, 0]	n/a	catFR1	4	R1501J
1274.938	0.0	1166683	ENCODING_END	n/a	n/a	n/a	n/a	-999	11	[0, 0, 0]	n/a	catFR1	4	R1501J
1274.938	0.0	1166683	DISTRACT_START	n/a	n/a	n/a	n/a	-999	11	[0, 0, 0]	n/a	catFR1	4	R1501J
1274.938	0.0	1166689	START	n/a	n/a	n/a	n/a	-999	11	[-999, -999, -999]	n/a	catFR1	4	R1501J
1274.938	5.683	1166689	PROB	5.683	n/a	n/a	n/a	-999	11	[2, 3, 8]	13	catFR1	4	R1501J
1280.621	5.351	1172372	PROB	5.351	n/a	n/a	n/a	-999	11	[8, 2, 6]	16	catFR1	4	R1501J
1285.972	2.966	1177723	PROB	2.966	n/a	n/a	n/a	-999	11	[8, 1, 1]	10	catFR1	4	R1501J
1288.938	4.718	1180689	PROB	4.718	n/a	n/a	n/a	-999	11	[1, 6, 8]	15	catFR1	4	R1501J
1293.656	4.998	1185406	PROB	4.998	n/a	n/a	n/a	-999	11	[6, 1, 5]	12	catFR1	4	R1501J
1298.654	0.0	1190398	DISTRACT_END	n/a	n/a	n/a	n/a	-999	11	[0, 0, 0]	n/a	catFR1	4	R1501J
1298.654	1.084	1190404	STOP	n/a	n/a	n/a	n/a	-999	11	[-999, -999, -999]	n/a	catFR1	4	R1501J
1299.738	1.03	1191483	REC_START	n/a	n/a	n/a	n/a	-999	11	[0, 0, 0]	n/a	catFR1	4	R1501J
1300.768	2.436	1192518	REC_WORD	2.436	n/a	SUNFLOWER	Flowers	2	11	[0, 0, 0]	n/a	catFR1	4	R1501J
1303.204	1.901	1194954	REC_WORD	1.901	n/a	MOPED	Vehicles	10	11	[0, 0, 0]	n/a	catFR1	4	R1501J
1305.105	17.644	1196855	REC_WORD	17.644	n/a	MOTORCYCLE	Vehicles	9	11	[0, 0, 0]	n/a	catFR1	4	R1501J
1322.749	8.216	1214498	REC_WORD_VV	8.216	n/a	<>	n/a	-999	11	[0, 0, 0]	n/a	catFR1	4	R1501J
1330.965	1.89	1222711	REC_END	n/a	n/a	n/a	n/a	-999	11	[0, 0, 0]	n/a	catFR1	4	R1501J
1332.855	10.349	1224603	COUNTDOWN_START	n/a	n/a	n/a	n/a	-999	11	[0, 0, 0]	n/a	catFR1	4	R1501J
1343.204	0.0	1234946	COUNTDOWN_END	n/a	n/a	n/a	n/a	-999	11	[0, 0, 0]	n/a	catFR1	4	R1501J
1343.204	2.218	1234946	ENCODING_START	n/a	n/a	n/a	n/a	-999	12	[0, 0, 0]	n/a	catFR1	4	R1501J
1345.422	1.616	1237168	WORD	n/a	wordpools/wordpool_categorized_EN.txt	OVEN	Appliances	1	12	[0, 0, 0]	n/a	catFR1	4	R1501J
1347.038	0.8	1238782	WORD_OFF	n/a	n/a	OVEN	Appliances	1	12	[0, 0, 0]	n/a	catFR1	4	R1501J
1347.838	1.617	1239588	WORD	n/a	wordpools/wordpool_categorized_EN.txt	TOASTER	Appliances	2	12	[0, 0, 0]	n/a	catFR1	4	R1501J
1349.455	0.966	1241202	WORD_OFF	n/a	n/a	TOASTER	Appliances	2	12	[0, 0, 0]	n/a	catFR1	4	R1501J
1350.421	1.6	1242168	WORD	n/a	wordpools/wordpool_categorized_EN.txt	BIKE	Vehicles	3	12	[0, 0, 0]	n/a	catFR1	4	R1501J
1352.021	0.884	1243768	WORD_OFF	n/a	n/a	BIKE	Vehicles	3	12	[0, 0, 0]	n/a	catFR1	4	R1501J
1352.905	1.6	1244654	WORD	n/a	wordpools/wordpool_categorized_EN.txt	TRAIN	Vehicles	4	12	[0, 0, 0]	n/a	catFR1	4	R1501J
1354.505	0.766	1246255	WORD_OFF	n/a	n/a	TRAIN	Vehicles	4	12	[0, 0, 0]	n/a	catFR1	4	R1501J
1355.271	1.6	1247022	WORD	n/a	wordpools/wordpool_categorized_EN.txt	ROSE	Flowers	5	12	[0, 0, 0]	n/a	catFR1	4	R1501J
1356.871	0.8	1248622	WORD_OFF	n/a	n/a	ROSE	Flowers	5	12	[0, 0, 0]	n/a	catFR1	4	R1501J
1357.671	1.6	1249416	WORD	n/a	wordpools/wordpool_categorized_EN.txt	DAISY	Flowers	6	12	[0, 0, 0]	n/a	catFR1	4	R1501J
1359.271	0.783	1251016	WORD_OFF	n/a	n/a	DAISY	Flowers	6	12	[0, 0, 0]	n/a	catFR1	4	R1501J
1360.054	1.617	1251797	WORD	n/a	wordpools/wordpool_categorized_EN.txt	VAN	Vehicles	7	12	[0, 0, 0]	n/a	catFR1	4	R1501J
1361.671	0.883	1253410	WORD_OFF	n/a	n/a	VAN	Vehicles	7	12	[0, 0, 0]	n/a	catFR1	4	R1501J
1362.554	1.617	1254296	WORD	n/a	wordpools/wordpool_categorized_EN.txt	JEEP	Vehicles	8	12	[0, 0, 0]	n/a	catFR1	4	R1501J
1364.171	0.816	1255910	WORD_OFF	n/a	n/a	JEEP	Vehicles	8	12	[0, 0, 0]	n/a	catFR1	4	R1501J
1364.987	1.6	1256730	WORD	n/a	wordpools/wordpool_categorized_EN.txt	LILAC	Flowers	9	12	[0, 0, 0]	n/a	catFR1	4	R1501J
1366.587	0.884	1258331	WORD_OFF	n/a	n/a	LILAC	Flowers	9	12	[0, 0, 0]	n/a	catFR1	4	R1501J
1367.471	1.617	1259217	WORD	n/a	wordpools/wordpool_categorized_EN.txt	DAFFODIL	Flowers	10	12	[0, 0, 0]	n/a	catFR1	4	R1501J
1369.088	0.817	1260830	WORD_OFF	n/a	n/a	DAFFODIL	Flowers	10	12	[0, 0, 0]	n/a	catFR1	4	R1501J
1369.905	1.616	1261650	WORD	n/a	wordpools/wordpool_categorized_EN.txt	IRON	Appliances	11	12	[0, 0, 0]	n/a	catFR1	4	R1501J
1371.521	0.783	1263264	WORD_OFF	n/a	n/a	IRON	Appliances	11	12	[0, 0, 0]	n/a	catFR1	4	R1501J
1372.304	1.615	1264044	WORD	n/a	wordpools/wordpool_categorized_EN.txt	BLENDER	Appliances	12	12	[0, 0, 0]	n/a	catFR1	4	R1501J
1373.919	0.001	1265658	WORD_OFF	n/a	n/a	BLENDER	Appliances	12	12	[0, 0, 0]	n/a	catFR1	4	R1501J
1373.92	0.0	1265667	START	n/a	n/a	n/a	n/a	-999	12	[-999, -999, -999]	n/a	catFR1	4	R1501J
1373.92	0.0	1265667	PROB	0.0	n/a	n/a	n/a	-999	12	[5, 7, 7]	19	catFR1	4	R1501J
1373.92	0.0	1265671	ENCODING_END	n/a	n/a	n/a	n/a	-999	12	[0, 0, 0]	n/a	catFR1	4	R1501J
1373.92	5.318	1265671	DISTRACT_START	n/a	n/a	n/a	n/a	-999	12	[0, 0, 0]	n/a	catFR1	4	R1501J
1379.238	3.967	1270985	PROB	3.967	n/a	n/a	n/a	-999	12	[3, 7, 8]	18	catFR1	4	R1501J
1383.205	9.233	1274952	PROB	9.233	n/a	n/a	n/a	-999	12	[6, 1, 3]	10	catFR1	4	R1501J
1392.438	7.099	1284184	PROB	7.099	n/a	n/a	n/a	-999	12	[5, 7, 3]	15	catFR1	4	R1501J
1399.537	0.0	1291278	DISTRACT_END	n/a	n/a	n/a	n/a	-999	12	[0, 0, 0]	n/a	catFR1	4	R1501J
1399.537	1.166	1291283	STOP	n/a	n/a	n/a	n/a	-999	12	[-999, -999, -999]	n/a	catFR1	4	R1501J
1400.703	1.245	1292442	REC_START	n/a	n/a	n/a	n/a	-999	12	[0, 0, 0]	n/a	catFR1	4	R1501J
1401.948	3.061	1293694	REC_WORD	3.061	n/a	DAISY	Flowers	6	12	[0, 0, 0]	n/a	catFR1	4	R1501J
1405.009	0.697	1296755	REC_WORD_VV	0.697	n/a	<>	n/a	-999	12	[0, 0, 0]	n/a	catFR1	4	R1501J
1405.706	3.957	1297452	REC_WORD	3.957	n/a	LILAC	Flowers	9	12	[0, 0, 0]	n/a	catFR1	4	R1501J
1409.663	2.301	1301408	REC_WORD	2.301	n/a	VAN	Vehicles	7	12	[0, 0, 0]	n/a	catFR1	4	R1501J
1411.964	1.201	1303709	REC_WORD	1.201	n/a	TRAIN	Vehicles	4	12	[0, 0, 0]	n/a	catFR1	4	R1501J
1413.165	0.838	1304910	REC_WORD	0.838	n/a	BIKE	Vehicles	3	12	[0, 0, 0]	n/a	catFR1	4	R1501J
1414.003	12.585	1305748	REC_WORD	12.585	n/a	SCOOTER	Vehicles	-999	12	[0, 0, 0]	n/a	catFR1	4	R1501J
1426.588	5.323	1318333	REC_WORD_VV	5.323	n/a	<>	n/a	-999	12	[0, 0, 0]	n/a	catFR1	4	R1501J
1431.911	0.0	1323657	REC_END	n/a	n/a	n/a	n/a	-999	12	[0, 0, 0]	n/a	catFR1	4	R1501J
