onset	duration	sample	trial_type	response_time	stim_file	item_name	category	serialpos	list	test	answer	experiment	session	subject
0.0	8.714	58986	INSTRUCT_START	n/a	n/a	n/a	n/a	-999	-999	[0, 0, 0]	n/a	catFR1	1	R1393T
8.714	61.616	67697	INSTRUCT_END	n/a	n/a	n/a	n/a	-999	-999	[0, 0, 0]	n/a	catFR1	1	R1393T
70.33	10.351	129310	COUNTDOWN_START	n/a	n/a	n/a	n/a	-999	-999	[0, 0, 0]	n/a	catFR1	1	R1393T
80.681	0.001	139663	COUNTDOWN_END	n/a	n/a	n/a	n/a	-999	-999	[0, 0, 0]	n/a	catFR1	1	R1393T
80.682	1.982	139663	ENCODING_START	n/a	n/a	n/a	n/a	-999	-1	[0, 0, 0]	n/a	catFR1	1	R1393T
82.664	1.616	141647	WORD	n/a	n/a	TEACHER	Professions	1	-1	[0, 0, 0]	n/a	catFR1	1	R1393T
84.28	0.833	143264	WORD_OFF	n/a	n/a	TEACHER	Professions	1	-1	[0, 0, 0]	n/a	catFR1	1	R1393T
85.113	1.617	144098	WORD	n/a	n/a	FIREMAN	Professions	2	-1	[0, 0, 0]	n/a	catFR1	1	R1393T
86.73	0.9	145715	WORD_OFF	n/a	n/a	FIREMAN	Professions	2	-1	[0, 0, 0]	n/a	catFR1	1	R1393T
87.63	1.616	146615	WORD	n/a	n/a	LEATHER	Materials	3	-1	[0, 0, 0]	n/a	catFR1	1	R1393T
89.246	0.983	148224	WORD_OFF	n/a	n/a	LEATHER	Materials	3	-1	[0, 0, 0]	n/a	catFR1	1	R1393T
90.229	1.601	149208	WORD	n/a	n/a	SILK	Materials	4	-1	[0, 0, 0]	n/a	catFR1	1	R1393T
91.83	0.967	150808	WORD_OFF	n/a	n/a	SILK	Materials	4	-1	[0, 0, 0]	n/a	catFR1	1	R1393T
92.797	1.6	151775	WORD	n/a	n/a	DAY	Times	5	-1	[0, 0, 0]	n/a	catFR1	1	R1393T
94.397	1.0	153376	WORD_OFF	n/a	n/a	DAY	Times	5	-1	[0, 0, 0]	n/a	catFR1	1	R1393T
95.397	1.6	154376	WORD	n/a	n/a	SECOND	Times	6	-1	[0, 0, 0]	n/a	catFR1	1	R1393T
96.997	0.933	155977	WORD_OFF	n/a	n/a	SECOND	Times	6	-1	[0, 0, 0]	n/a	catFR1	1	R1393T
97.93	1.6	156910	WORD	n/a	n/a	DENIM	Materials	7	-1	[0, 0, 0]	n/a	catFR1	1	R1393T
99.53	0.833	158511	WORD_OFF	n/a	n/a	DENIM	Materials	7	-1	[0, 0, 0]	n/a	catFR1	1	R1393T
100.363	1.6	159345	WORD	n/a	n/a	WOOL	Materials	8	-1	[0, 0, 0]	n/a	catFR1	1	R1393T
101.963	0.867	160945	WORD_OFF	n/a	n/a	WOOL	Materials	8	-1	[0, 0, 0]	n/a	catFR1	1	R1393T
102.83	1.6	161812	WORD	n/a	n/a	MINUTE	Times	9	-1	[0, 0, 0]	n/a	catFR1	1	R1393T
104.43	0.883	163413	WORD_OFF	n/a	n/a	MINUTE	Times	9	-1	[0, 0, 0]	n/a	catFR1	1	R1393T
105.313	1.6	164296	WORD	n/a	n/a	HOUR	Times	10	-1	[0, 0, 0]	n/a	catFR1	1	R1393T
106.913	0.833	165897	WORD_OFF	n/a	n/a	HOUR	Times	10	-1	[0, 0, 0]	n/a	catFR1	1	R1393T
107.746	1.601	166723	WORD	n/a	n/a	PLUMBER	Professions	11	-1	[0, 0, 0]	n/a	catFR1	1	R1393T
109.347	0.766	168331	WORD_OFF	n/a	n/a	PLUMBER	Professions	11	-1	[0, 0, 0]	n/a	catFR1	1	R1393T
110.113	1.617	169090	WORD	n/a	n/a	FARMER	Professions	12	-1	[0, 0, 0]	n/a	catFR1	1	R1393T
111.73	0.001	170707	WORD_OFF	n/a	n/a	FARMER	Professions	12	-1	[0, 0, 0]	n/a	catFR1	1	R1393T
111.731	0.002	170710	PROB	0.002	n/a	n/a	n/a	-999	-1	[1, 2, 7]	10	catFR1	1	R1393T
111.733	0.0	170712	START	n/a	n/a	n/a	n/a	-999	-1	[-999, -999, -999]	n/a	catFR1	1	R1393T
111.731	0.002	170715	ENCODING_END	n/a	n/a	n/a	n/a	-999	-1	[0, 0, 0]	n/a	catFR1	1	R1393T
111.733	9.264	170715	DISTRACT_START	n/a	n/a	n/a	n/a	-999	-1	[0, 0, 0]	n/a	catFR1	1	R1393T
120.997	8.4	179975	PROB	8.4	n/a	n/a	n/a	-999	-1	[3, 8, 6]	17	catFR1	1	R1393T
129.397	6.483	188375	PROB	6.483	n/a	n/a	n/a	-999	-1	[2, 7, 8]	17	catFR1	1	R1393T
135.88	0.0	194857	DISTRACT_END	n/a	n/a	n/a	n/a	-999	-1	[0, 0, 0]	n/a	catFR1	1	R1393T
135.88	1.117	194857	STOP	n/a	n/a	n/a	n/a	-999	-1	[-999, -999, -999]	n/a	catFR1	1	R1393T
136.997	3.349	195974	REC_START	n/a	n/a	n/a	n/a	-999	-1	[0, 0, 0]	n/a	catFR1	1	R1393T
140.346	0.969	199323	REC_WORD	0.969	n/a	TEACHER	Professions	1	-1	[0, 0, 0]	n/a	catFR1	1	R1393T
141.315	8.602	200292	REC_WORD	8.602	n/a	FIREMAN	Professions	2	-1	[0, 0, 0]	n/a	catFR1	1	R1393T
149.917	7.877	208894	REC_WORD	7.877	n/a	PLUMBER	Professions	11	-1	[0, 0, 0]	n/a	catFR1	1	R1393T
157.794	1.343	216770	REC_WORD	1.343	n/a	SILK	Materials	4	-1	[0, 0, 0]	n/a	catFR1	1	R1393T
159.137	8.111	218113	REC_WORD	8.111	n/a	LEATHER	Materials	3	-1	[0, 0, 0]	n/a	catFR1	1	R1393T
167.248	15.616	226225	REC_END	n/a	n/a	n/a	n/a	-999	-1	[0, 0, 0]	n/a	catFR1	1	R1393T
182.864	10.35	241839	COUNTDOWN_START	n/a	n/a	n/a	n/a	-999	1	[0, 0, 0]	n/a	catFR1	1	R1393T
193.214	0.0	252192	COUNTDOWN_END	n/a	n/a	n/a	n/a	-999	1	[0, 0, 0]	n/a	catFR1	1	R1393T
193.214	2.15	252192	ENCODING_START	n/a	n/a	n/a	n/a	-999	1	[0, 0, 0]	n/a	catFR1	1	R1393T
195.364	1.616	254343	WORD	n/a	wordpools/wordpool_categorized_EN.txt	BANANA	Fruit	1	1	[0, 0, 0]	n/a	catFR1	1	R1393T
196.98	0.916	255952	WORD_OFF	n/a	n/a	BANANA	Fruit	1	1	[0, 0, 0]	n/a	catFR1	1	R1393T
197.896	1.601	256869	WORD	n/a	wordpools/wordpool_categorized_EN.txt	ORANGE	Fruit	2	1	[0, 0, 0]	n/a	catFR1	1	R1393T
199.497	0.766	258470	WORD_OFF	n/a	n/a	ORANGE	Fruit	2	1	[0, 0, 0]	n/a	catFR1	1	R1393T
200.263	1.617	259236	WORD	n/a	wordpools/wordpool_categorized_EN.txt	CABINET	Furniture	3	1	[0, 0, 0]	n/a	catFR1	1	R1393T
201.88	0.85	260854	WORD_OFF	n/a	n/a	CABINET	Furniture	3	1	[0, 0, 0]	n/a	catFR1	1	R1393T
202.73	1.617	261704	WORD	n/a	wordpools/wordpool_categorized_EN.txt	NIGHTSTAND	Furniture	4	1	[0, 0, 0]	n/a	catFR1	1	R1393T
204.347	1.0	263321	WORD_OFF	n/a	n/a	NIGHTSTAND	Furniture	4	1	[0, 0, 0]	n/a	catFR1	1	R1393T
205.347	1.6	264322	WORD	n/a	wordpools/wordpool_categorized_EN.txt	WILLOW	Trees	5	1	[0, 0, 0]	n/a	catFR1	1	R1393T
206.947	0.916	265922	WORD_OFF	n/a	n/a	WILLOW	Trees	5	1	[0, 0, 0]	n/a	catFR1	1	R1393T
207.863	1.6	266839	WORD	n/a	wordpools/wordpool_categorized_EN.txt	PINE	Trees	6	1	[0, 0, 0]	n/a	catFR1	1	R1393T
209.463	0.935	268440	WORD_OFF	n/a	n/a	PINE	Trees	6	1	[0, 0, 0]	n/a	catFR1	1	R1393T
210.398	1.614	269373	WORD	n/a	wordpools/wordpool_categorized_EN.txt	PEAR	Fruit	7	1	[0, 0, 0]	n/a	catFR1	1	R1393T
212.012	0.917	270990	WORD_OFF	n/a	n/a	PEAR	Fruit	7	1	[0, 0, 0]	n/a	catFR1	1	R1393T
212.929	1.601	271907	WORD	n/a	wordpools/wordpool_categorized_EN.txt	APPLE	Fruit	8	1	[0, 0, 0]	n/a	catFR1	1	R1393T
214.53	0.95	273508	WORD_OFF	n/a	n/a	APPLE	Fruit	8	1	[0, 0, 0]	n/a	catFR1	1	R1393T
215.48	1.6	274458	WORD	n/a	wordpools/wordpool_categorized_EN.txt	BIRCH	Trees	9	1	[0, 0, 0]	n/a	catFR1	1	R1393T
217.08	0.8	276050	WORD_OFF	n/a	n/a	BIRCH	Trees	9	1	[0, 0, 0]	n/a	catFR1	1	R1393T
217.88	1.617	276851	WORD	n/a	wordpools/wordpool_categorized_EN.txt	OAK	Trees	10	1	[0, 0, 0]	n/a	catFR1	1	R1393T
219.497	0.983	278468	WORD_OFF	n/a	n/a	OAK	Trees	10	1	[0, 0, 0]	n/a	catFR1	1	R1393T
220.48	1.617	279452	WORD	n/a	wordpools/wordpool_categorized_EN.txt	DRESSER	Furniture	11	1	[0, 0, 0]	n/a	catFR1	1	R1393T
222.097	0.833	281069	WORD_OFF	n/a	n/a	DRESSER	Furniture	11	1	[0, 0, 0]	n/a	catFR1	1	R1393T
222.93	1.6	281902	WORD	n/a	wordpools/wordpool_categorized_EN.txt	DESK	Furniture	12	1	[0, 0, 0]	n/a	catFR1	1	R1393T
224.53	0.001	283503	WORD_OFF	n/a	n/a	DESK	Furniture	12	1	[0, 0, 0]	n/a	catFR1	1	R1393T
224.531	0.0	283503	ENCODING_END	n/a	n/a	n/a	n/a	-999	1	[0, 0, 0]	n/a	catFR1	1	R1393T
224.53	0.001	283503	PROB	0.001	n/a	n/a	n/a	-999	1	[5, 7, 8]	22	catFR1	1	R1393T
224.531	0.0	283504	START	n/a	n/a	n/a	n/a	-999	1	[-999, -999, -999]	n/a	catFR1	1	R1393T
224.531	7.799	283511	DISTRACT_START	n/a	n/a	n/a	n/a	-999	1	[0, 0, 0]	n/a	catFR1	1	R1393T
232.33	7.267	291302	PROB	7.267	n/a	n/a	n/a	-999	1	[2, 4, 7]	13	catFR1	1	R1393T
239.597	5.165	298569	PROB	5.165	n/a	n/a	n/a	-999	1	[5, 4, 2]	11	catFR1	1	R1393T
244.762	0.0	303734	STOP	n/a	n/a	n/a	n/a	-999	1	[-999, -999, -999]	n/a	catFR1	1	R1393T
244.762	1.384	303735	DISTRACT_END	n/a	n/a	n/a	n/a	-999	1	[0, 0, 0]	n/a	catFR1	1	R1393T
246.146	6.557	305119	REC_START	n/a	n/a	n/a	n/a	-999	1	[0, 0, 0]	n/a	catFR1	1	R1393T
252.703	1.633	311674	REC_WORD	1.633	n/a	ORANGE	Fruit	2	1	[0, 0, 0]	n/a	catFR1	1	R1393T
254.336	4.344	313307	REC_WORD	4.344	n/a	PEAR	Fruit	7	1	[0, 0, 0]	n/a	catFR1	1	R1393T
258.68	2.529	317651	REC_WORD	2.529	n/a	APPLE	Fruit	8	1	[0, 0, 0]	n/a	catFR1	1	R1393T
261.209	11.789	320180	REC_WORD	11.789	n/a	CABINET	Furniture	3	1	[0, 0, 0]	n/a	catFR1	1	R1393T
272.998	3.385	331968	REC_WORD	3.385	n/a	STORAGE	n/a	-999	1	[0, 0, 0]	n/a	catFR1	1	R1393T
276.383	2.596	335354	REC_END	n/a	n/a	n/a	n/a	-999	1	[0, 0, 0]	n/a	catFR1	1	R1393T
278.979	10.352	337955	COUNTDOWN_START	n/a	n/a	n/a	n/a	-999	2	[0, 0, 0]	n/a	catFR1	1	R1393T
289.331	0.0	348300	COUNTDOWN_END	n/a	n/a	n/a	n/a	-999	2	[0, 0, 0]	n/a	catFR1	1	R1393T
289.331	1.966	348300	ENCODING_START	n/a	n/a	n/a	n/a	-999	2	[0, 0, 0]	n/a	catFR1	1	R1393T
291.297	1.616	350267	WORD	n/a	wordpools/wordpool_categorized_EN.txt	CHICKEN	Farmanimals	1	2	[0, 0, 0]	n/a	catFR1	1	R1393T
292.913	0.984	351884	WORD_OFF	n/a	n/a	CHICKEN	Farmanimals	1	2	[0, 0, 0]	n/a	catFR1	1	R1393T
293.897	1.6	352868	WORD	n/a	wordpools/wordpool_categorized_EN.txt	GOAT	Farmanimals	2	2	[0, 0, 0]	n/a	catFR1	1	R1393T
295.497	1.0	354468	WORD_OFF	n/a	n/a	GOAT	Farmanimals	2	2	[0, 0, 0]	n/a	catFR1	1	R1393T
296.497	1.6	355469	WORD	n/a	wordpools/wordpool_categorized_EN.txt	COUCH	Furniture	3	2	[0, 0, 0]	n/a	catFR1	1	R1393T
298.097	0.883	357069	WORD_OFF	n/a	n/a	COUCH	Furniture	3	2	[0, 0, 0]	n/a	catFR1	1	R1393T
298.98	1.6	357953	WORD	n/a	wordpools/wordpool_categorized_EN.txt	BOOKCASE	Furniture	4	2	[0, 0, 0]	n/a	catFR1	1	R1393T
300.58	0.783	359553	WORD_OFF	n/a	n/a	BOOKCASE	Furniture	4	2	[0, 0, 0]	n/a	catFR1	1	R1393T
301.363	1.617	360337	WORD	n/a	wordpools/wordpool_categorized_EN.txt	WHALE	Oceananimals	5	2	[0, 0, 0]	n/a	catFR1	1	R1393T
302.98	0.866	361954	WORD_OFF	n/a	n/a	WHALE	Oceananimals	5	2	[0, 0, 0]	n/a	catFR1	1	R1393T
303.846	1.601	362813	WORD	n/a	wordpools/wordpool_categorized_EN.txt	OCTOPUS	Oceananimals	6	2	[0, 0, 0]	n/a	catFR1	1	R1393T
305.447	0.932	364413	WORD_OFF	n/a	n/a	OCTOPUS	Oceananimals	6	2	[0, 0, 0]	n/a	catFR1	1	R1393T
306.379	1.6	365347	WORD	n/a	wordpools/wordpool_categorized_EN.txt	SOFA	Furniture	7	2	[0, 0, 0]	n/a	catFR1	1	R1393T
307.979	0.868	366948	WORD_OFF	n/a	n/a	SOFA	Furniture	7	2	[0, 0, 0]	n/a	catFR1	1	R1393T
308.847	1.599	367815	WORD	n/a	wordpools/wordpool_categorized_EN.txt	TABLE	Furniture	8	2	[0, 0, 0]	n/a	catFR1	1	R1393T
310.446	0.767	369415	WORD_OFF	n/a	n/a	TABLE	Furniture	8	2	[0, 0, 0]	n/a	catFR1	1	R1393T
311.213	1.616	370182	WORD	n/a	wordpools/wordpool_categorized_EN.txt	LOBSTER	Oceananimals	9	2	[0, 0, 0]	n/a	catFR1	1	R1393T
312.829	0.867	371799	WORD_OFF	n/a	n/a	LOBSTER	Oceananimals	9	2	[0, 0, 0]	n/a	catFR1	1	R1393T
313.696	1.617	372666	WORD	n/a	wordpools/wordpool_categorized_EN.txt	CRAB	Oceananimals	10	2	[0, 0, 0]	n/a	catFR1	1	R1393T
315.313	0.883	374283	WORD_OFF	n/a	n/a	CRAB	Oceananimals	10	2	[0, 0, 0]	n/a	catFR1	1	R1393T
316.196	1.617	375167	WORD	n/a	wordpools/wordpool_categorized_EN.txt	PIG	Farmanimals	11	2	[0, 0, 0]	n/a	catFR1	1	R1393T
317.813	0.983	376784	WORD_OFF	n/a	n/a	PIG	Farmanimals	11	2	[0, 0, 0]	n/a	catFR1	1	R1393T
318.796	1.601	377768	WORD	n/a	wordpools/wordpool_categorized_EN.txt	LAMB	Farmanimals	12	2	[0, 0, 0]	n/a	catFR1	1	R1393T
320.397	0.001	379365	PROB	0.001	n/a	n/a	n/a	-999	2	[6, 1, 1]	8	catFR1	1	R1393T
320.398	0.0	379366	START	n/a	n/a	n/a	n/a	-999	2	[-999, -999, -999]	n/a	catFR1	1	R1393T
320.396	0.002	379368	WORD_OFF	n/a	n/a	LAMB	Farmanimals	12	2	[0, 0, 0]	n/a	catFR1	1	R1393T
320.398	0.0	379368	ENCODING_END	n/a	n/a	n/a	n/a	-999	2	[0, 0, 0]	n/a	catFR1	1	R1393T
320.398	5.866	379368	DISTRACT_START	n/a	n/a	n/a	n/a	-999	2	[0, 0, 0]	n/a	catFR1	1	R1393T
326.264	5.166	385232	PROB	5.166	n/a	n/a	n/a	-999	2	[1, 6, 3]	10	catFR1	1	R1393T
331.43	5.4	390397	PROB	5.4	n/a	n/a	n/a	-999	2	[8, 8, 3]	19	catFR1	1	R1393T
336.83	7.683	395797	PROB	7.683	n/a	n/a	n/a	-999	2	[4, 7, 8]	19	catFR1	1	R1393T
344.513	0.0	403477	DISTRACT_END	n/a	n/a	n/a	n/a	-999	2	[0, 0, 0]	n/a	catFR1	1	R1393T
344.513	1.15	403480	STOP	n/a	n/a	n/a	n/a	-999	2	[-999, -999, -999]	n/a	catFR1	1	R1393T
345.663	6.659	404627	REC_START	n/a	n/a	n/a	n/a	-999	2	[0, 0, 0]	n/a	catFR1	1	R1393T
352.322	0.667	411288	REC_WORD	0.667	n/a	GOAT	Farmanimals	2	2	[0, 0, 0]	n/a	catFR1	1	R1393T
352.989	4.124	411955	REC_WORD	4.124	n/a	OCTOPUS	Oceananimals	6	2	[0, 0, 0]	n/a	catFR1	1	R1393T
357.113	7.67	416079	REC_WORD	7.67	n/a	STORAGE	n/a	-999	2	[0, 0, 0]	n/a	catFR1	1	R1393T
364.783	11.115	423749	REC_WORD	11.115	n/a	COW	n/a	-999	2	[0, 0, 0]	n/a	catFR1	1	R1393T
375.898	2.216	434862	REC_END	n/a	n/a	n/a	n/a	-999	2	[0, 0, 0]	n/a	catFR1	1	R1393T
378.114	10.35	437079	COUNTDOWN_START	n/a	n/a	n/a	n/a	-999	3	[0, 0, 0]	n/a	catFR1	1	R1393T
388.464	0.0	447433	COUNTDOWN_END	n/a	n/a	n/a	n/a	-999	3	[0, 0, 0]	n/a	catFR1	1	R1393T
388.464	2.166	447433	ENCODING_START	n/a	n/a	n/a	n/a	-999	3	[0, 0, 0]	n/a	catFR1	1	R1393T
390.63	1.6	449592	WORD	n/a	wordpools/wordpool_categorized_EN.txt	HUMIDITY	Weather	1	3	[0, 0, 0]	n/a	catFR1	1	R1393T
392.23	1.0	451193	WORD_OFF	n/a	n/a	HUMIDITY	Weather	1	3	[0, 0, 0]	n/a	catFR1	1	R1393T
393.23	1.6	452193	WORD	n/a	wordpools/wordpool_categorized_EN.txt	WIND	Weather	2	3	[0, 0, 0]	n/a	catFR1	1	R1393T
394.83	0.783	453793	WORD_OFF	n/a	n/a	WIND	Weather	2	3	[0, 0, 0]	n/a	catFR1	1	R1393T
395.613	1.6	454577	WORD	n/a	wordpools/wordpool_categorized_EN.txt	OVEN	Appliances	3	3	[0, 0, 0]	n/a	catFR1	1	R1393T
397.213	0.933	456178	WORD_OFF	n/a	n/a	OVEN	Appliances	3	3	[0, 0, 0]	n/a	catFR1	1	R1393T
398.146	1.617	457111	WORD	n/a	wordpools/wordpool_categorized_EN.txt	FREEZER	Appliances	4	3	[0, 0, 0]	n/a	catFR1	1	R1393T
399.763	1.0	458728	WORD_OFF	n/a	n/a	FREEZER	Appliances	4	3	[0, 0, 0]	n/a	catFR1	1	R1393T
400.763	1.617	459729	WORD	n/a	wordpools/wordpool_categorized_EN.txt	EAR	Bodyparts	5	3	[0, 0, 0]	n/a	catFR1	1	R1393T
402.38	0.899	461346	WORD_OFF	n/a	n/a	EAR	Bodyparts	5	3	[0, 0, 0]	n/a	catFR1	1	R1393T
403.279	1.601	462246	WORD	n/a	wordpools/wordpool_categorized_EN.txt	LEG	Bodyparts	6	3	[0, 0, 0]	n/a	catFR1	1	R1393T
404.88	0.783	463847	WORD_OFF	n/a	n/a	LEG	Bodyparts	6	3	[0, 0, 0]	n/a	catFR1	1	R1393T
405.663	1.6	464630	WORD	n/a	wordpools/wordpool_categorized_EN.txt	REFRIGERATOR	Appliances	7	3	[0, 0, 0]	n/a	catFR1	1	R1393T
407.263	0.85	466231	WORD_OFF	n/a	n/a	REFRIGERATOR	Appliances	7	3	[0, 0, 0]	n/a	catFR1	1	R1393T
408.113	1.616	467081	WORD	n/a	wordpools/wordpool_categorized_EN.txt	WASHER	Appliances	8	3	[0, 0, 0]	n/a	catFR1	1	R1393T
409.729	0.917	468690	WORD_OFF	n/a	n/a	WASHER	Appliances	8	3	[0, 0, 0]	n/a	catFR1	1	R1393T
410.646	1.6	469607	WORD	n/a	wordpools/wordpool_categorized_EN.txt	TORNADO	Weather	9	3	[0, 0, 0]	n/a	catFR1	1	R1393T
412.246	0.917	471208	WORD_OFF	n/a	n/a	TORNADO	Weather	9	3	[0, 0, 0]	n/a	catFR1	1	R1393T
413.163	1.616	472125	WORD	n/a	wordpools/wordpool_categorized_EN.txt	RAIN	Weather	10	3	[0, 0, 0]	n/a	catFR1	1	R1393T
414.779	0.767	473742	WORD_OFF	n/a	n/a	RAIN	Weather	10	3	[0, 0, 0]	n/a	catFR1	1	R1393T
415.546	1.6	474509	WORD	n/a	wordpools/wordpool_categorized_EN.txt	HAND	Bodyparts	11	3	[0, 0, 0]	n/a	catFR1	1	R1393T
417.146	0.9	476109	WORD_OFF	n/a	n/a	HAND	Bodyparts	11	3	[0, 0, 0]	n/a	catFR1	1	R1393T
418.046	1.617	477010	WORD	n/a	wordpools/wordpool_categorized_EN.txt	FINGERS	Bodyparts	12	3	[0, 0, 0]	n/a	catFR1	1	R1393T
419.663	0.001	478627	WORD_OFF	n/a	n/a	FINGERS	Bodyparts	12	3	[0, 0, 0]	n/a	catFR1	1	R1393T
419.664	0.0	478627	ENCODING_END	n/a	n/a	n/a	n/a	-999	3	[0, 0, 0]	n/a	catFR1	1	R1393T
419.664	0.0	478627	START	n/a	n/a	n/a	n/a	-999	3	[-999, -999, -999]	n/a	catFR1	1	R1393T
419.664	0.0	478627	PROB	0.0	n/a	n/a	n/a	-999	3	[2, 7, 3]	12	catFR1	1	R1393T
419.664	6.566	478635	DISTRACT_START	n/a	n/a	n/a	n/a	-999	3	[0, 0, 0]	n/a	catFR1	1	R1393T
426.23	6.45	485193	PROB	6.45	n/a	n/a	n/a	-999	3	[8, 2, 6]	16	catFR1	1	R1393T
432.68	5.602	491642	PROB	5.602	n/a	n/a	n/a	-999	3	[6, 8, 1]	15	catFR1	1	R1393T
438.282	6.065	497244	PROB	6.065	n/a	n/a	n/a	-999	3	[5, 3, 2]	10	catFR1	1	R1393T
444.347	0.0	503309	STOP	n/a	n/a	n/a	n/a	-999	3	[-999, -999, -999]	n/a	catFR1	1	R1393T
444.347	1.266	503310	DISTRACT_END	n/a	n/a	n/a	n/a	-999	3	[0, 0, 0]	n/a	catFR1	1	R1393T
445.613	5.697	504577	REC_START	n/a	n/a	n/a	n/a	-999	3	[0, 0, 0]	n/a	catFR1	1	R1393T
451.31	7.61	510271	REC_WORD	7.61	n/a	FINGERS	Bodyparts	12	3	[0, 0, 0]	n/a	catFR1	1	R1393T
458.92	12.903	517881	REC_WORD	12.903	n/a	WIND	Weather	2	3	[0, 0, 0]	n/a	catFR1	1	R1393T
471.823	4.052	530783	REC_WORD	4.052	n/a	TREE	n/a	-999	3	[0, 0, 0]	n/a	catFR1	1	R1393T
475.875	2.838	534837	REC_END	n/a	n/a	n/a	n/a	-999	3	[0, 0, 0]	n/a	catFR1	1	R1393T
478.713	10.351	537680	COUNTDOWN_START	n/a	n/a	n/a	n/a	-999	4	[0, 0, 0]	n/a	catFR1	1	R1393T
489.064	0.0	548025	COUNTDOWN_END	n/a	n/a	n/a	n/a	-999	4	[0, 0, 0]	n/a	catFR1	1	R1393T
489.064	2.149	548025	ENCODING_START	n/a	n/a	n/a	n/a	-999	4	[0, 0, 0]	n/a	catFR1	1	R1393T
491.213	1.617	550176	WORD	n/a	wordpools/wordpool_categorized_EN.txt	MIXER	Appliances	1	4	[0, 0, 0]	n/a	catFR1	1	R1393T
492.83	0.883	551793	WORD_OFF	n/a	n/a	MIXER	Appliances	1	4	[0, 0, 0]	n/a	catFR1	1	R1393T
493.713	1.617	552677	WORD	n/a	wordpools/wordpool_categorized_EN.txt	STOVE	Appliances	2	4	[0, 0, 0]	n/a	catFR1	1	R1393T
495.33	0.933	554294	WORD_OFF	n/a	n/a	STOVE	Appliances	2	4	[0, 0, 0]	n/a	catFR1	1	R1393T
496.263	1.617	555227	WORD	n/a	wordpools/wordpool_categorized_EN.txt	BED	Furniture	3	4	[0, 0, 0]	n/a	catFR1	1	R1393T
497.88	0.85	556836	WORD_OFF	n/a	n/a	BED	Furniture	3	4	[0, 0, 0]	n/a	catFR1	1	R1393T
498.73	1.6	557687	WORD	n/a	wordpools/wordpool_categorized_EN.txt	SHELF	Furniture	4	4	[0, 0, 0]	n/a	catFR1	1	R1393T
500.33	0.983	559287	WORD_OFF	n/a	n/a	SHELF	Furniture	4	4	[0, 0, 0]	n/a	catFR1	1	R1393T
501.313	1.616	560271	WORD	n/a	wordpools/wordpool_categorized_EN.txt	SPIDER	Insects	5	4	[0, 0, 0]	n/a	catFR1	1	R1393T
502.929	0.817	561888	WORD_OFF	n/a	n/a	SPIDER	Insects	5	4	[0, 0, 0]	n/a	catFR1	1	R1393T
503.746	1.6	562705	WORD	n/a	wordpools/wordpool_categorized_EN.txt	BUTTERFLY	Insects	6	4	[0, 0, 0]	n/a	catFR1	1	R1393T
505.346	0.883	564305	WORD_OFF	n/a	n/a	BUTTERFLY	Insects	6	4	[0, 0, 0]	n/a	catFR1	1	R1393T
506.229	1.6	565189	WORD	n/a	wordpools/wordpool_categorized_EN.txt	IRON	Appliances	7	4	[0, 0, 0]	n/a	catFR1	1	R1393T
507.829	0.867	566790	WORD_OFF	n/a	n/a	IRON	Appliances	7	4	[0, 0, 0]	n/a	catFR1	1	R1393T
508.696	1.6	567657	WORD	n/a	wordpools/wordpool_categorized_EN.txt	TOASTER	Appliances	8	4	[0, 0, 0]	n/a	catFR1	1	R1393T
510.296	0.766	569257	WORD_OFF	n/a	n/a	TOASTER	Appliances	8	4	[0, 0, 0]	n/a	catFR1	1	R1393T
511.062	1.601	570024	WORD	n/a	wordpools/wordpool_categorized_EN.txt	ROACH	Insects	9	4	[0, 0, 0]	n/a	catFR1	1	R1393T
512.663	0.884	571625	WORD_OFF	n/a	n/a	ROACH	Insects	9	4	[0, 0, 0]	n/a	catFR1	1	R1393T
513.547	1.599	572508	WORD	n/a	wordpools/wordpool_categorized_EN.txt	LADYBUG	Insects	10	4	[0, 0, 0]	n/a	catFR1	1	R1393T
515.146	0.833	574109	WORD_OFF	n/a	n/a	LADYBUG	Insects	10	4	[0, 0, 0]	n/a	catFR1	1	R1393T
515.979	1.6	574942	WORD	n/a	wordpools/wordpool_categorized_EN.txt	RECLINER	Furniture	11	4	[0, 0, 0]	n/a	catFR1	1	R1393T
517.579	0.968	576535	WORD_OFF	n/a	n/a	RECLINER	Furniture	11	4	[0, 0, 0]	n/a	catFR1	1	R1393T
518.547	1.615	577510	WORD	n/a	wordpools/wordpool_categorized_EN.txt	CHAIR	Furniture	12	4	[0, 0, 0]	n/a	catFR1	1	R1393T
520.162	0.001	579119	WORD_OFF	n/a	n/a	CHAIR	Furniture	12	4	[0, 0, 0]	n/a	catFR1	1	R1393T
520.163	0.001	579121	PROB	0.001	n/a	n/a	n/a	-999	4	[6, 1, 5]	13	catFR1	1	R1393T
520.164	0.0	579122	START	n/a	n/a	n/a	n/a	-999	4	[-999, -999, -999]	n/a	catFR1	1	R1393T
520.164	0.0	579127	ENCODING_END	n/a	n/a	n/a	n/a	-999	4	[0, 0, 0]	n/a	catFR1	1	R1393T
520.164	11.149	579127	DISTRACT_START	n/a	n/a	n/a	n/a	-999	4	[0, 0, 0]	n/a	catFR1	1	R1393T
531.313	10.484	590270	PROB	10.484	n/a	n/a	n/a	-999	4	[6, 6, 7]	19	catFR1	1	R1393T
541.797	0.0	600751	DISTRACT_END	n/a	n/a	n/a	n/a	-999	4	[0, 0, 0]	n/a	catFR1	1	R1393T
541.797	1.233	600754	STOP	n/a	n/a	n/a	n/a	-999	4	[-999, -999, -999]	n/a	catFR1	1	R1393T
543.03	29.999	601985	REC_START	n/a	n/a	n/a	n/a	-999	4	[0, 0, 0]	n/a	catFR1	1	R1393T
573.029	0.267	631984	REC_WORD_VV	0.267	n/a	<>	n/a	-999	4	[0, 0, 0]	n/a	catFR1	1	R1393T
573.296	4.918	632253	REC_END	n/a	n/a	n/a	n/a	-999	4	[0, 0, 0]	n/a	catFR1	1	R1393T
578.214	10.35	637172	COUNTDOWN_START	n/a	n/a	n/a	n/a	-999	5	[0, 0, 0]	n/a	catFR1	1	R1393T
588.564	0.0	647517	COUNTDOWN_END	n/a	n/a	n/a	n/a	-999	5	[0, 0, 0]	n/a	catFR1	1	R1393T
588.564	1.949	647525	ENCODING_START	n/a	n/a	n/a	n/a	-999	5	[0, 0, 0]	n/a	catFR1	1	R1393T
590.513	1.616	649467	WORD	n/a	wordpools/wordpool_categorized_EN.txt	ROOF	Building	1	5	[0, 0, 0]	n/a	catFR1	1	R1393T
592.129	1.001	651085	WORD_OFF	n/a	n/a	ROOF	Building	1	5	[0, 0, 0]	n/a	catFR1	1	R1393T
593.13	1.617	652085	WORD	n/a	wordpools/wordpool_categorized_EN.txt	FOUNDATION	Building	2	5	[0, 0, 0]	n/a	catFR1	1	R1393T
594.747	0.9	653702	WORD_OFF	n/a	n/a	FOUNDATION	Building	2	5	[0, 0, 0]	n/a	catFR1	1	R1393T
595.647	1.616	654602	WORD	n/a	wordpools/wordpool_categorized_EN.txt	DAISY	Flowers	3	5	[0, 0, 0]	n/a	catFR1	1	R1393T
597.263	0.967	656220	WORD_OFF	n/a	n/a	DAISY	Flowers	3	5	[0, 0, 0]	n/a	catFR1	1	R1393T
598.23	1.6	657187	WORD	n/a	wordpools/wordpool_categorized_EN.txt	VIOLET	Flowers	4	5	[0, 0, 0]	n/a	catFR1	1	R1393T
599.83	0.833	658787	WORD_OFF	n/a	n/a	VIOLET	Flowers	4	5	[0, 0, 0]	n/a	catFR1	1	R1393T
600.663	1.618	659621	WORD	n/a	wordpools/wordpool_categorized_EN.txt	SCOOTER	Vehicles	5	5	[0, 0, 0]	n/a	catFR1	1	R1393T
602.281	0.899	661238	WORD_OFF	n/a	n/a	SCOOTER	Vehicles	5	5	[0, 0, 0]	n/a	catFR1	1	R1393T
603.18	1.6	662138	WORD	n/a	wordpools/wordpool_categorized_EN.txt	CAR	Vehicles	6	5	[0, 0, 0]	n/a	catFR1	1	R1393T
604.78	0.917	663739	WORD_OFF	n/a	n/a	CAR	Vehicles	6	5	[0, 0, 0]	n/a	catFR1	1	R1393T
605.697	1.6	664647	WORD	n/a	wordpools/wordpool_categorized_EN.txt	WINDOW	Building	7	5	[0, 0, 0]	n/a	catFR1	1	R1393T
607.297	0.849	666248	WORD_OFF	n/a	n/a	WINDOW	Building	7	5	[0, 0, 0]	n/a	catFR1	1	R1393T
608.146	1.601	667098	WORD	n/a	wordpools/wordpool_categorized_EN.txt	WALL	Building	8	5	[0, 0, 0]	n/a	catFR1	1	R1393T
609.747	0.783	668699	WORD_OFF	n/a	n/a	WALL	Building	8	5	[0, 0, 0]	n/a	catFR1	1	R1393T
610.53	1.6	669482	WORD	n/a	wordpools/wordpool_categorized_EN.txt	MARIGOLD	Flowers	9	5	[0, 0, 0]	n/a	catFR1	1	R1393T
612.13	0.816	671083	WORD_OFF	n/a	n/a	MARIGOLD	Flowers	9	5	[0, 0, 0]	n/a	catFR1	1	R1393T
612.946	1.6	671900	WORD	n/a	wordpools/wordpool_categorized_EN.txt	LILY	Flowers	10	5	[0, 0, 0]	n/a	catFR1	1	R1393T
614.546	0.817	673500	WORD_OFF	n/a	n/a	LILY	Flowers	10	5	[0, 0, 0]	n/a	catFR1	1	R1393T
615.363	1.6	674317	WORD	n/a	wordpools/wordpool_categorized_EN.txt	BUS	Vehicles	11	5	[0, 0, 0]	n/a	catFR1	1	R1393T
616.963	0.966	675918	WORD_OFF	n/a	n/a	BUS	Vehicles	11	5	[0, 0, 0]	n/a	catFR1	1	R1393T
617.929	1.601	676885	WORD	n/a	wordpools/wordpool_categorized_EN.txt	TRAIN	Vehicles	12	5	[0, 0, 0]	n/a	catFR1	1	R1393T
619.53	0.0	678483	PROB	0.0	n/a	n/a	n/a	-999	5	[2, 4, 6]	12	catFR1	1	R1393T
619.53	0.004	678485	WORD_OFF	n/a	n/a	TRAIN	Vehicles	12	5	[0, 0, 0]	n/a	catFR1	1	R1393T
619.534	0.0	678485	ENCODING_END	n/a	n/a	n/a	n/a	-999	5	[0, 0, 0]	n/a	catFR1	1	R1393T
619.534	0.0	678485	DISTRACT_START	n/a	n/a	n/a	n/a	-999	5	[0, 0, 0]	n/a	catFR1	1	R1393T
619.534	14.096	678487	START	n/a	n/a	n/a	n/a	-999	5	[-999, -999, -999]	n/a	catFR1	1	R1393T
633.63	6.683	692582	PROB	6.683	n/a	n/a	n/a	-999	5	[3, 2, 5]	10	catFR1	1	R1393T
640.313	0.0	699265	STOP	n/a	n/a	n/a	n/a	-999	5	[-999, -999, -999]	n/a	catFR1	1	R1393T
640.313	1.017	699267	DISTRACT_END	n/a	n/a	n/a	n/a	-999	5	[0, 0, 0]	n/a	catFR1	1	R1393T
641.33	12.215	700284	REC_START	n/a	n/a	n/a	n/a	-999	5	[0, 0, 0]	n/a	catFR1	1	R1393T
653.545	1.236	712496	REC_WORD	1.236	n/a	BUS	Vehicles	11	5	[0, 0, 0]	n/a	catFR1	1	R1393T
654.781	2.877	713732	REC_WORD	2.877	n/a	TURTLE	n/a	-999	5	[0, 0, 0]	n/a	catFR1	1	R1393T
657.658	5.771	716609	REC_WORD	5.771	n/a	RABBIT	n/a	-999	5	[0, 0, 0]	n/a	catFR1	1	R1393T
663.429	8.143	722379	REC_WORD	8.143	n/a	KIDS	n/a	-999	5	[0, 0, 0]	n/a	catFR1	1	R1393T
671.572	2.008	730520	REC_END	n/a	n/a	n/a	n/a	-999	5	[0, 0, 0]	n/a	catFR1	1	R1393T
673.58	10.35	732529	COUNTDOWN_START	n/a	n/a	n/a	n/a	-999	6	[0, 0, 0]	n/a	catFR1	1	R1393T
683.93	0.0	742882	COUNTDOWN_END	n/a	n/a	n/a	n/a	-999	6	[0, 0, 0]	n/a	catFR1	1	R1393T
683.93	2.15	742882	ENCODING_START	n/a	n/a	n/a	n/a	-999	6	[0, 0, 0]	n/a	catFR1	1	R1393T
686.08	1.616	745033	WORD	n/a	wordpools/wordpool_categorized_EN.txt	MAPLE	Trees	1	6	[0, 0, 0]	n/a	catFR1	1	R1393T
687.696	0.833	746650	WORD_OFF	n/a	n/a	MAPLE	Trees	1	6	[0, 0, 0]	n/a	catFR1	1	R1393T
688.529	1.617	747475	WORD	n/a	wordpools/wordpool_categorized_EN.txt	HICKORY	Trees	2	6	[0, 0, 0]	n/a	catFR1	1	R1393T
690.146	0.8	749092	WORD_OFF	n/a	n/a	HICKORY	Trees	2	6	[0, 0, 0]	n/a	catFR1	1	R1393T
690.946	1.6	749893	WORD	n/a	wordpools/wordpool_categorized_EN.txt	EYE	Bodyparts	3	6	[0, 0, 0]	n/a	catFR1	1	R1393T
692.546	0.967	751493	WORD_OFF	n/a	n/a	EYE	Bodyparts	3	6	[0, 0, 0]	n/a	catFR1	1	R1393T
693.513	1.616	752460	WORD	n/a	wordpools/wordpool_categorized_EN.txt	NOSE	Bodyparts	4	6	[0, 0, 0]	n/a	catFR1	1	R1393T
695.129	0.834	754077	WORD_OFF	n/a	n/a	NOSE	Bodyparts	4	6	[0, 0, 0]	n/a	catFR1	1	R1393T
695.963	1.616	754911	WORD	n/a	wordpools/wordpool_categorized_EN.txt	SLINKY	Toys	5	6	[0, 0, 0]	n/a	catFR1	1	R1393T
697.579	0.9	756528	WORD_OFF	n/a	n/a	SLINKY	Toys	5	6	[0, 0, 0]	n/a	catFR1	1	R1393T
698.479	1.617	757429	WORD	n/a	wordpools/wordpool_categorized_EN.txt	BASKETBALL	Toys	6	6	[0, 0, 0]	n/a	catFR1	1	R1393T
700.096	0.833	759046	WORD_OFF	n/a	n/a	BASKETBALL	Toys	6	6	[0, 0, 0]	n/a	catFR1	1	R1393T
700.929	1.6	759879	WORD	n/a	wordpools/wordpool_categorized_EN.txt	TOE	Bodyparts	7	6	[0, 0, 0]	n/a	catFR1	1	R1393T
702.529	0.9	761480	WORD_OFF	n/a	n/a	TOE	Bodyparts	7	6	[0, 0, 0]	n/a	catFR1	1	R1393T
703.429	1.601	762380	WORD	n/a	wordpools/wordpool_categorized_EN.txt	ELBOW	Bodyparts	8	6	[0, 0, 0]	n/a	catFR1	1	R1393T
705.03	0.8	763981	WORD_OFF	n/a	n/a	ELBOW	Bodyparts	8	6	[0, 0, 0]	n/a	catFR1	1	R1393T
705.83	1.6	764781	WORD	n/a	wordpools/wordpool_categorized_EN.txt	EVERGREEN	Trees	9	6	[0, 0, 0]	n/a	catFR1	1	R1393T
707.43	0.95	766382	WORD_OFF	n/a	n/a	EVERGREEN	Trees	9	6	[0, 0, 0]	n/a	catFR1	1	R1393T
708.38	1.601	767332	WORD	n/a	wordpools/wordpool_categorized_EN.txt	CYPRESS	Trees	10	6	[0, 0, 0]	n/a	catFR1	1	R1393T
709.981	0.833	768932	WORD_OFF	n/a	n/a	CYPRESS	Trees	10	6	[0, 0, 0]	n/a	catFR1	1	R1393T
710.814	1.616	769766	WORD	n/a	wordpools/wordpool_categorized_EN.txt	BASEBALL	Toys	11	6	[0, 0, 0]	n/a	catFR1	1	R1393T
712.43	0.966	771383	WORD_OFF	n/a	n/a	BASEBALL	Toys	11	6	[0, 0, 0]	n/a	catFR1	1	R1393T
713.396	1.601	772342	WORD	n/a	wordpools/wordpool_categorized_EN.txt	FRISBEE	Toys	12	6	[0, 0, 0]	n/a	catFR1	1	R1393T
714.997	0.0	773942	WORD_OFF	n/a	n/a	FRISBEE	Toys	12	6	[0, 0, 0]	n/a	catFR1	1	R1393T
714.997	0.002	773945	PROB	0.002	n/a	n/a	n/a	-999	6	[1, 6, 2]	9	catFR1	1	R1393T
714.999	0.0	773947	START	n/a	n/a	n/a	n/a	-999	6	[-999, -999, -999]	n/a	catFR1	1	R1393T
714.998	0.001	773951	ENCODING_END	n/a	n/a	n/a	n/a	-999	6	[0, 0, 0]	n/a	catFR1	1	R1393T
714.999	6.698	773951	DISTRACT_START	n/a	n/a	n/a	n/a	-999	6	[0, 0, 0]	n/a	catFR1	1	R1393T
721.697	4.333	780645	PROB	4.333	n/a	n/a	n/a	-999	6	[7, 2, 2]	11	catFR1	1	R1393T
726.03	5.201	784977	PROB	5.201	n/a	n/a	n/a	-999	6	[2, 7, 2]	11	catFR1	1	R1393T
731.231	6.866	790178	PROB	6.866	n/a	n/a	n/a	-999	6	[2, 6, 1]	9	catFR1	1	R1393T
738.097	0.0	797042	DISTRACT_END	n/a	n/a	n/a	n/a	-999	6	[0, 0, 0]	n/a	catFR1	1	R1393T
738.097	1.066	797044	STOP	n/a	n/a	n/a	n/a	-999	6	[-999, -999, -999]	n/a	catFR1	1	R1393T
739.163	5.999	798109	REC_START	n/a	n/a	n/a	n/a	-999	6	[0, 0, 0]	n/a	catFR1	1	R1393T
745.162	1.541	804108	REC_WORD	1.541	n/a	FRISBEE	Toys	12	6	[0, 0, 0]	n/a	catFR1	1	R1393T
746.703	6.262	805649	REC_WORD	6.262	n/a	BALL	n/a	-999	6	[0, 0, 0]	n/a	catFR1	1	R1393T
752.965	16.452	811911	REC_WORD	16.452	n/a	HICKORY	Trees	2	6	[0, 0, 0]	n/a	catFR1	1	R1393T
769.417	4.063	828361	REC_END	n/a	n/a	n/a	n/a	-999	6	[0, 0, 0]	n/a	catFR1	1	R1393T
773.48	10.351	832429	COUNTDOWN_START	n/a	n/a	n/a	n/a	-999	7	[0, 0, 0]	n/a	catFR1	1	R1393T
783.831	0.0	842774	COUNTDOWN_END	n/a	n/a	n/a	n/a	-999	7	[0, 0, 0]	n/a	catFR1	1	R1393T
783.831	1.9	842782	ENCODING_START	n/a	n/a	n/a	n/a	-999	7	[0, 0, 0]	n/a	catFR1	1	R1393T
785.731	1.616	844675	WORD	n/a	wordpools/wordpool_categorized_EN.txt	SQUID	Oceananimals	1	7	[0, 0, 0]	n/a	catFR1	1	R1393T
787.347	0.966	846292	WORD_OFF	n/a	n/a	SQUID	Oceananimals	1	7	[0, 0, 0]	n/a	catFR1	1	R1393T
788.313	1.6	847259	WORD	n/a	wordpools/wordpool_categorized_EN.txt	OYSTER	Oceananimals	2	7	[0, 0, 0]	n/a	catFR1	1	R1393T
789.913	0.916	848859	WORD_OFF	n/a	n/a	OYSTER	Oceananimals	2	7	[0, 0, 0]	n/a	catFR1	1	R1393T
790.829	1.6	849776	WORD	n/a	wordpools/wordpool_categorized_EN.txt	PEN	Officesupplies	3	7	[0, 0, 0]	n/a	catFR1	1	R1393T
792.429	0.767	851377	WORD_OFF	n/a	n/a	PEN	Officesupplies	3	7	[0, 0, 0]	n/a	catFR1	1	R1393T
793.196	1.616	852144	WORD	n/a	wordpools/wordpool_categorized_EN.txt	PENCIL	Officesupplies	4	7	[0, 0, 0]	n/a	catFR1	1	R1393T
794.812	0.867	853761	WORD_OFF	n/a	n/a	PENCIL	Officesupplies	4	7	[0, 0, 0]	n/a	catFR1	1	R1393T
795.679	1.6	854628	WORD	n/a	wordpools/wordpool_categorized_EN.txt	FOOT	Bodyparts	5	7	[0, 0, 0]	n/a	catFR1	1	R1393T
797.279	0.934	856220	WORD_OFF	n/a	n/a	FOOT	Bodyparts	5	7	[0, 0, 0]	n/a	catFR1	1	R1393T
798.213	1.6	857154	WORD	n/a	wordpools/wordpool_categorized_EN.txt	KNEE	Bodyparts	6	7	[0, 0, 0]	n/a	catFR1	1	R1393T
799.813	0.883	858754	WORD_OFF	n/a	n/a	KNEE	Bodyparts	6	7	[0, 0, 0]	n/a	catFR1	1	R1393T
800.696	1.601	859638	WORD	n/a	wordpools/wordpool_categorized_EN.txt	TURTLE	Oceananimals	7	7	[0, 0, 0]	n/a	catFR1	1	R1393T
802.297	0.917	861238	WORD_OFF	n/a	n/a	TURTLE	Oceananimals	7	7	[0, 0, 0]	n/a	catFR1	1	R1393T
803.214	1.599	862155	WORD	n/a	wordpools/wordpool_categorized_EN.txt	JELLYFISH	Oceananimals	8	7	[0, 0, 0]	n/a	catFR1	1	R1393T
804.813	0.816	863756	WORD_OFF	n/a	n/a	JELLYFISH	Oceananimals	8	7	[0, 0, 0]	n/a	catFR1	1	R1393T
805.629	1.6	864573	WORD	n/a	wordpools/wordpool_categorized_EN.txt	ARM	Bodyparts	9	7	[0, 0, 0]	n/a	catFR1	1	R1393T
807.229	0.868	866173	WORD_OFF	n/a	n/a	ARM	Bodyparts	9	7	[0, 0, 0]	n/a	catFR1	1	R1393T
808.097	1.617	867049	WORD	n/a	wordpools/wordpool_categorized_EN.txt	HEAD	Bodyparts	10	7	[0, 0, 0]	n/a	catFR1	1	R1393T
809.714	0.866	868658	WORD_OFF	n/a	n/a	HEAD	Bodyparts	10	7	[0, 0, 0]	n/a	catFR1	1	R1393T
810.58	1.617	869525	WORD	n/a	wordpools/wordpool_categorized_EN.txt	TAPE	Officesupplies	11	7	[0, 0, 0]	n/a	catFR1	1	R1393T
812.197	0.983	871142	WORD_OFF	n/a	n/a	TAPE	Officesupplies	11	7	[0, 0, 0]	n/a	catFR1	1	R1393T
813.18	1.617	872125	WORD	n/a	wordpools/wordpool_categorized_EN.txt	GLUE	Officesupplies	12	7	[0, 0, 0]	n/a	catFR1	1	R1393T
814.797	0.001	873740	PROB	0.001	n/a	n/a	n/a	-999	7	[3, 3, 4]	10	catFR1	1	R1393T
814.798	0.0	873741	START	n/a	n/a	n/a	n/a	-999	7	[-999, -999, -999]	n/a	catFR1	1	R1393T
814.797	0.001	873743	WORD_OFF	n/a	n/a	GLUE	Officesupplies	12	7	[0, 0, 0]	n/a	catFR1	1	R1393T
814.798	0.0	873743	ENCODING_END	n/a	n/a	n/a	n/a	-999	7	[0, 0, 0]	n/a	catFR1	1	R1393T
814.798	7.148	873743	DISTRACT_START	n/a	n/a	n/a	n/a	-999	7	[0, 0, 0]	n/a	catFR1	1	R1393T
821.946	7.135	880888	PROB	7.135	n/a	n/a	n/a	-999	7	[4, 2, 3]	9	catFR1	1	R1393T
829.081	6.149	888023	PROB	6.149	n/a	n/a	n/a	-999	7	[8, 6, 6]	20	catFR1	1	R1393T
835.23	0.0	894172	STOP	n/a	n/a	n/a	n/a	-999	7	[-999, -999, -999]	n/a	catFR1	1	R1393T
835.23	1.366	894174	DISTRACT_END	n/a	n/a	n/a	n/a	-999	7	[0, 0, 0]	n/a	catFR1	1	R1393T
836.596	3.616	895542	REC_START	n/a	n/a	n/a	n/a	-999	7	[0, 0, 0]	n/a	catFR1	1	R1393T
840.212	8.154	899153	REC_WORD	8.154	n/a	SQUID	Oceananimals	1	7	[0, 0, 0]	n/a	catFR1	1	R1393T
848.366	0.757	907307	REC_WORD	0.757	n/a	PEN	Officesupplies	3	7	[0, 0, 0]	n/a	catFR1	1	R1393T
849.123	15.178	908064	REC_WORD	15.178	n/a	PENCIL	Officesupplies	4	7	[0, 0, 0]	n/a	catFR1	1	R1393T
864.301	2.537	923241	REC_WORD	2.537	n/a	ARM	Bodyparts	9	7	[0, 0, 0]	n/a	catFR1	1	R1393T
866.838	3.492	925777	REC_END	n/a	n/a	n/a	n/a	-999	7	[0, 0, 0]	n/a	catFR1	1	R1393T
870.33	10.351	929270	COUNTDOWN_START	n/a	n/a	n/a	n/a	-999	8	[0, 0, 0]	n/a	catFR1	1	R1393T
880.681	0.0	939623	COUNTDOWN_END	n/a	n/a	n/a	n/a	-999	8	[0, 0, 0]	n/a	catFR1	1	R1393T
880.681	2.232	939623	ENCODING_START	n/a	n/a	n/a	n/a	-999	8	[0, 0, 0]	n/a	catFR1	1	R1393T
882.913	1.616	941857	WORD	n/a	wordpools/wordpool_categorized_EN.txt	CALF	Farmanimals	1	8	[0, 0, 0]	n/a	catFR1	1	R1393T
884.529	0.817	943466	WORD_OFF	n/a	n/a	CALF	Farmanimals	1	8	[0, 0, 0]	n/a	catFR1	1	R1393T
885.346	1.6	944283	WORD	n/a	wordpools/wordpool_categorized_EN.txt	TURKEY	Farmanimals	2	8	[0, 0, 0]	n/a	catFR1	1	R1393T
886.946	0.85	945884	WORD_OFF	n/a	n/a	TURKEY	Farmanimals	2	8	[0, 0, 0]	n/a	catFR1	1	R1393T
887.796	1.6	946734	WORD	n/a	wordpools/wordpool_categorized_EN.txt	STAIRS	Building	3	8	[0, 0, 0]	n/a	catFR1	1	R1393T
889.396	0.8	948334	WORD_OFF	n/a	n/a	STAIRS	Building	3	8	[0, 0, 0]	n/a	catFR1	1	R1393T
890.196	1.601	949135	WORD	n/a	wordpools/wordpool_categorized_EN.txt	DOOR	Building	4	8	[0, 0, 0]	n/a	catFR1	1	R1393T
891.797	0.983	950735	WORD_OFF	n/a	n/a	DOOR	Building	4	8	[0, 0, 0]	n/a	catFR1	1	R1393T
892.78	1.6	951719	WORD	n/a	wordpools/wordpool_categorized_EN.txt	SEAGULL	Birds	5	8	[0, 0, 0]	n/a	catFR1	1	R1393T
894.38	1.0	953319	WORD_OFF	n/a	n/a	SEAGULL	Birds	5	8	[0, 0, 0]	n/a	catFR1	1	R1393T
895.38	1.6	954320	WORD	n/a	wordpools/wordpool_categorized_EN.txt	DOVE	Birds	6	8	[0, 0, 0]	n/a	catFR1	1	R1393T
896.98	0.9	955920	WORD_OFF	n/a	n/a	DOVE	Birds	6	8	[0, 0, 0]	n/a	catFR1	1	R1393T
897.88	1.6	956821	WORD	n/a	wordpools/wordpool_categorized_EN.txt	ROOSTER	Farmanimals	7	8	[0, 0, 0]	n/a	catFR1	1	R1393T
899.48	0.967	958421	WORD_OFF	n/a	n/a	ROOSTER	Farmanimals	7	8	[0, 0, 0]	n/a	catFR1	1	R1393T
900.447	1.6	959388	WORD	n/a	wordpools/wordpool_categorized_EN.txt	HORSE	Farmanimals	8	8	[0, 0, 0]	n/a	catFR1	1	R1393T
902.047	0.766	960989	WORD_OFF	n/a	n/a	HORSE	Farmanimals	8	8	[0, 0, 0]	n/a	catFR1	1	R1393T
902.813	1.6	961755	WORD	n/a	wordpools/wordpool_categorized_EN.txt	PIGEON	Birds	9	8	[0, 0, 0]	n/a	catFR1	1	R1393T
904.413	0.967	963356	WORD_OFF	n/a	n/a	PIGEON	Birds	9	8	[0, 0, 0]	n/a	catFR1	1	R1393T
905.38	1.617	964323	WORD	n/a	wordpools/wordpool_categorized_EN.txt	FINCH	Birds	10	8	[0, 0, 0]	n/a	catFR1	1	R1393T
906.997	0.999	965932	WORD_OFF	n/a	n/a	FINCH	Birds	10	8	[0, 0, 0]	n/a	catFR1	1	R1393T
907.996	1.601	966932	WORD	n/a	wordpools/wordpool_categorized_EN.txt	ROOM	Building	11	8	[0, 0, 0]	n/a	catFR1	1	R1393T
909.597	0.783	968533	WORD_OFF	n/a	n/a	ROOM	Building	11	8	[0, 0, 0]	n/a	catFR1	1	R1393T
910.38	1.6	969316	WORD	n/a	wordpools/wordpool_categorized_EN.txt	CEILING	Building	12	8	[0, 0, 0]	n/a	catFR1	1	R1393T
911.98	0.002	970917	WORD_OFF	n/a	n/a	CEILING	Building	12	8	[0, 0, 0]	n/a	catFR1	1	R1393T
911.982	0.0	970917	ENCODING_END	n/a	n/a	n/a	n/a	-999	8	[0, 0, 0]	n/a	catFR1	1	R1393T
911.98	0.002	970918	PROB	0.002	n/a	n/a	n/a	-999	8	[1, 1, 8]	10	catFR1	1	R1393T
911.982	0.0	970920	START	n/a	n/a	n/a	n/a	-999	8	[-999, -999, -999]	n/a	catFR1	1	R1393T
911.982	10.899	970925	DISTRACT_START	n/a	n/a	n/a	n/a	-999	8	[0, 0, 0]	n/a	catFR1	1	R1393T
922.881	7.883	981818	PROB	7.883	n/a	n/a	n/a	-999	8	[5, 7, 3]	15	catFR1	1	R1393T
930.764	5.382	989701	PROB	5.382	n/a	n/a	n/a	-999	8	[6, 7, 1]	14	catFR1	1	R1393T
936.146	0.0	995083	DISTRACT_END	n/a	n/a	n/a	n/a	-999	8	[0, 0, 0]	n/a	catFR1	1	R1393T
936.146	1.166	995083	STOP	n/a	n/a	n/a	n/a	-999	8	[-999, -999, -999]	n/a	catFR1	1	R1393T
937.312	21.287	996250	REC_START	n/a	n/a	n/a	n/a	-999	8	[0, 0, 0]	n/a	catFR1	1	R1393T
958.599	0.704	1017534	REC_WORD	0.704	n/a	FISH	n/a	-999	8	[0, 0, 0]	n/a	catFR1	1	R1393T
959.303	8.255	1018238	REC_WORD	8.255	n/a	HOUSE	n/a	-999	8	[0, 0, 0]	n/a	catFR1	1	R1393T
967.558	2.938	1026494	REC_END	n/a	n/a	n/a	n/a	-999	8	[0, 0, 0]	n/a	catFR1	1	R1393T
970.496	10.352	1029437	COUNTDOWN_START	n/a	n/a	n/a	n/a	-999	9	[0, 0, 0]	n/a	catFR1	1	R1393T
980.848	0.0	1039782	COUNTDOWN_END	n/a	n/a	n/a	n/a	-999	9	[0, 0, 0]	n/a	catFR1	1	R1393T
980.848	2.116	1039782	ENCODING_START	n/a	n/a	n/a	n/a	-999	9	[0, 0, 0]	n/a	catFR1	1	R1393T
982.964	1.616	1041899	WORD	n/a	wordpools/wordpool_categorized_EN.txt	DRYER	Appliances	1	9	[0, 0, 0]	n/a	catFR1	1	R1393T
984.58	0.85	1043516	WORD_OFF	n/a	n/a	DRYER	Appliances	1	9	[0, 0, 0]	n/a	catFR1	1	R1393T
985.43	1.6	1044367	WORD	n/a	wordpools/wordpool_categorized_EN.txt	VACUUM	Appliances	2	9	[0, 0, 0]	n/a	catFR1	1	R1393T
987.03	0.917	1045967	WORD_OFF	n/a	n/a	VACUUM	Appliances	2	9	[0, 0, 0]	n/a	catFR1	1	R1393T
987.947	1.6	1046884	WORD	n/a	wordpools/wordpool_categorized_EN.txt	ANT	Insects	3	9	[0, 0, 0]	n/a	catFR1	1	R1393T
989.547	0.883	1048485	WORD_OFF	n/a	n/a	ANT	Insects	3	9	[0, 0, 0]	n/a	catFR1	1	R1393T
990.43	1.6	1049368	WORD	n/a	wordpools/wordpool_categorized_EN.txt	MOTH	Insects	4	9	[0, 0, 0]	n/a	catFR1	1	R1393T
992.03	0.767	1050969	WORD_OFF	n/a	n/a	MOTH	Insects	4	9	[0, 0, 0]	n/a	catFR1	1	R1393T
992.797	1.6	1051727	WORD	n/a	wordpools/wordpool_categorized_EN.txt	TIGER	Zoo	5	9	[0, 0, 0]	n/a	catFR1	1	R1393T
994.397	0.799	1053328	WORD_OFF	n/a	n/a	TIGER	Zoo	5	9	[0, 0, 0]	n/a	catFR1	1	R1393T
995.196	1.601	1054128	WORD	n/a	wordpools/wordpool_categorized_EN.txt	CHEETAH	Zoo	6	9	[0, 0, 0]	n/a	catFR1	1	R1393T
996.797	0.866	1055729	WORD_OFF	n/a	n/a	CHEETAH	Zoo	6	9	[0, 0, 0]	n/a	catFR1	1	R1393T
997.663	1.617	1056596	WORD	n/a	wordpools/wordpool_categorized_EN.txt	BEE	Insects	7	9	[0, 0, 0]	n/a	catFR1	1	R1393T
999.28	0.899	1058213	WORD_OFF	n/a	n/a	BEE	Insects	7	9	[0, 0, 0]	n/a	catFR1	1	R1393T
1000.179	1.601	1059113	WORD	n/a	wordpools/wordpool_categorized_EN.txt	FLY	Insects	8	9	[0, 0, 0]	n/a	catFR1	1	R1393T
1001.78	0.833	1060714	WORD_OFF	n/a	n/a	FLY	Insects	8	9	[0, 0, 0]	n/a	catFR1	1	R1393T
1002.613	1.616	1061547	WORD	n/a	wordpools/wordpool_categorized_EN.txt	BEAR	Zoo	9	9	[0, 0, 0]	n/a	catFR1	1	R1393T
1004.229	0.868	1063165	WORD_OFF	n/a	n/a	BEAR	Zoo	9	9	[0, 0, 0]	n/a	catFR1	1	R1393T
1005.097	1.6	1064031	WORD	n/a	wordpools/wordpool_categorized_EN.txt	GIRAFFE	Zoo	10	9	[0, 0, 0]	n/a	catFR1	1	R1393T
1006.697	0.766	1065632	WORD_OFF	n/a	n/a	GIRAFFE	Zoo	10	9	[0, 0, 0]	n/a	catFR1	1	R1393T
1007.463	1.617	1066399	WORD	n/a	wordpools/wordpool_categorized_EN.txt	DISHWASHER	Appliances	11	9	[0, 0, 0]	n/a	catFR1	1	R1393T
1009.08	0.917	1068016	WORD_OFF	n/a	n/a	DISHWASHER	Appliances	11	9	[0, 0, 0]	n/a	catFR1	1	R1393T
1009.997	1.6	1068933	WORD	n/a	wordpools/wordpool_categorized_EN.txt	BLENDER	Appliances	12	9	[0, 0, 0]	n/a	catFR1	1	R1393T
1011.597	0.001	1070530	PROB	0.001	n/a	n/a	n/a	-999	9	[6, 2, 3]	11	catFR1	1	R1393T
1011.598	0.0	1070531	START	n/a	n/a	n/a	n/a	-999	9	[-999, -999, -999]	n/a	catFR1	1	R1393T
1011.597	0.001	1070534	WORD_OFF	n/a	n/a	BLENDER	Appliances	12	9	[0, 0, 0]	n/a	catFR1	1	R1393T
1011.598	0.0	1070534	ENCODING_END	n/a	n/a	n/a	n/a	-999	9	[0, 0, 0]	n/a	catFR1	1	R1393T
1011.598	5.899	1070534	DISTRACT_START	n/a	n/a	n/a	n/a	-999	9	[0, 0, 0]	n/a	catFR1	1	R1393T
1017.497	9.516	1076429	PROB	9.516	n/a	n/a	n/a	-999	9	[8, 4, 8]	20	catFR1	1	R1393T
1027.013	7.116	1085945	PROB	7.116	n/a	n/a	n/a	-999	9	[3, 2, 7]	12	catFR1	1	R1393T
1034.129	0.0	1093058	DISTRACT_END	n/a	n/a	n/a	n/a	-999	9	[0, 0, 0]	n/a	catFR1	1	R1393T
1034.129	1.134	1093061	STOP	n/a	n/a	n/a	n/a	-999	9	[-999, -999, -999]	n/a	catFR1	1	R1393T
1035.263	10.787	1094192	REC_START	n/a	n/a	n/a	n/a	-999	9	[0, 0, 0]	n/a	catFR1	1	R1393T
1046.05	2.331	1104981	REC_WORD	2.331	n/a	WASHING MACHINE	n/a	-999	9	[0, 0, 0]	n/a	catFR1	1	R1393T
1048.381	17.126	1107312	REC_WORD	17.126	n/a	DRYER	Appliances	1	9	[0, 0, 0]	n/a	catFR1	1	R1393T
1065.507	2.473	1124435	REC_END	n/a	n/a	n/a	n/a	-999	9	[0, 0, 0]	n/a	catFR1	1	R1393T
1067.98	10.351	1126911	COUNTDOWN_START	n/a	n/a	n/a	n/a	-999	10	[0, 0, 0]	n/a	catFR1	1	R1393T
1078.331	0.0	1137264	COUNTDOWN_END	n/a	n/a	n/a	n/a	-999	10	[0, 0, 0]	n/a	catFR1	1	R1393T
1078.331	2.366	1137264	ENCODING_START	n/a	n/a	n/a	n/a	-999	10	[0, 0, 0]	n/a	catFR1	1	R1393T
1080.697	1.6	1139624	WORD	n/a	wordpools/wordpool_categorized_EN.txt	BLUEBIRD	Birds	1	10	[0, 0, 0]	n/a	catFR1	1	R1393T
1082.297	0.766	1141224	WORD_OFF	n/a	n/a	BLUEBIRD	Birds	1	10	[0, 0, 0]	n/a	catFR1	1	R1393T
1083.063	1.6	1141991	WORD	n/a	wordpools/wordpool_categorized_EN.txt	ROBIN	Birds	2	10	[0, 0, 0]	n/a	catFR1	1	R1393T
1084.663	0.85	1143591	WORD_OFF	n/a	n/a	ROBIN	Birds	2	10	[0, 0, 0]	n/a	catFR1	1	R1393T
1085.513	1.6	1144442	WORD	n/a	wordpools/wordpool_categorized_EN.txt	JACKET	Clothing	3	10	[0, 0, 0]	n/a	catFR1	1	R1393T
1087.113	0.9	1146042	WORD_OFF	n/a	n/a	JACKET	Clothing	3	10	[0, 0, 0]	n/a	catFR1	1	R1393T
1088.013	1.617	1146943	WORD	n/a	wordpools/wordpool_categorized_EN.txt	BLOUSE	Clothing	4	10	[0, 0, 0]	n/a	catFR1	1	R1393T
1089.63	0.867	1148560	WORD_OFF	n/a	n/a	BLOUSE	Clothing	4	10	[0, 0, 0]	n/a	catFR1	1	R1393T
1090.497	1.616	1149427	WORD	n/a	wordpools/wordpool_categorized_EN.txt	LETTUCE	Vegetables	5	10	[0, 0, 0]	n/a	catFR1	1	R1393T
1092.113	0.784	1151044	WORD_OFF	n/a	n/a	LETTUCE	Vegetables	5	10	[0, 0, 0]	n/a	catFR1	1	R1393T
1092.897	1.6	1151828	WORD	n/a	wordpools/wordpool_categorized_EN.txt	POTATO	Vegetables	6	10	[0, 0, 0]	n/a	catFR1	1	R1393T
1094.497	0.867	1153428	WORD_OFF	n/a	n/a	POTATO	Vegetables	6	10	[0, 0, 0]	n/a	catFR1	1	R1393T
1095.364	1.599	1154295	WORD	n/a	wordpools/wordpool_categorized_EN.txt	SPARROW	Birds	7	10	[0, 0, 0]	n/a	catFR1	1	R1393T
1096.963	1.0	1155896	WORD_OFF	n/a	n/a	SPARROW	Birds	7	10	[0, 0, 0]	n/a	catFR1	1	R1393T
1097.963	1.6	1156896	WORD	n/a	wordpools/wordpool_categorized_EN.txt	CARDINAL	Birds	8	10	[0, 0, 0]	n/a	catFR1	1	R1393T
1099.563	0.917	1158496	WORD_OFF	n/a	n/a	CARDINAL	Birds	8	10	[0, 0, 0]	n/a	catFR1	1	R1393T
1100.48	1.6	1159405	WORD	n/a	wordpools/wordpool_categorized_EN.txt	CUCUMBER	Vegetables	9	10	[0, 0, 0]	n/a	catFR1	1	R1393T
1102.08	0.783	1161006	WORD_OFF	n/a	n/a	CUCUMBER	Vegetables	9	10	[0, 0, 0]	n/a	catFR1	1	R1393T
1102.863	1.6	1161789	WORD	n/a	wordpools/wordpool_categorized_EN.txt	CARROT	Vegetables	10	10	[0, 0, 0]	n/a	catFR1	1	R1393T
1104.463	0.833	1163390	WORD_OFF	n/a	n/a	CARROT	Vegetables	10	10	[0, 0, 0]	n/a	catFR1	1	R1393T
1105.296	1.6	1164223	WORD	n/a	wordpools/wordpool_categorized_EN.txt	SHIRT	Clothing	11	10	[0, 0, 0]	n/a	catFR1	1	R1393T
1106.896	0.95	1165824	WORD_OFF	n/a	n/a	SHIRT	Clothing	11	10	[0, 0, 0]	n/a	catFR1	1	R1393T
1107.846	1.601	1166774	WORD	n/a	wordpools/wordpool_categorized_EN.txt	JEANS	Clothing	12	10	[0, 0, 0]	n/a	catFR1	1	R1393T
1109.447	0.001	1168375	WORD_OFF	n/a	n/a	JEANS	Clothing	12	10	[0, 0, 0]	n/a	catFR1	1	R1393T
1109.448	0.001	1168375	ENCODING_END	n/a	n/a	n/a	n/a	-999	10	[0, 0, 0]	n/a	catFR1	1	R1393T
1109.449	0.0	1168375	DISTRACT_START	n/a	n/a	n/a	n/a	-999	10	[0, 0, 0]	n/a	catFR1	1	R1393T
1109.447	0.002	1168375	PROB	0.002	n/a	n/a	n/a	-999	10	[1, 3, 3]	7	catFR1	1	R1393T
1109.449	8.032	1168377	START	n/a	n/a	n/a	n/a	-999	10	[-999, -999, -999]	n/a	catFR1	1	R1393T
1117.481	5.299	1176408	PROB	5.299	n/a	n/a	n/a	-999	10	[7, 7, 8]	22	catFR1	1	R1393T
1122.78	4.95	1181707	PROB	4.95	n/a	n/a	n/a	-999	10	[3, 6, 2]	11	catFR1	1	R1393T
1127.73	6.616	1186657	PROB	6.616	n/a	n/a	n/a	-999	10	[4, 5, 1]	10	catFR1	1	R1393T
1134.346	0.0	1193272	STOP	n/a	n/a	n/a	n/a	-999	10	[-999, -999, -999]	n/a	catFR1	1	R1393T
1134.346	1.4	1193275	DISTRACT_END	n/a	n/a	n/a	n/a	-999	10	[0, 0, 0]	n/a	catFR1	1	R1393T
1135.746	2.396	1194675	REC_START	n/a	n/a	n/a	n/a	-999	10	[0, 0, 0]	n/a	catFR1	1	R1393T
1138.142	1.72	1197068	REC_WORD	1.72	n/a	BLUEBIRD	Birds	1	10	[0, 0, 0]	n/a	catFR1	1	R1393T
1139.862	2.213	1198788	REC_WORD	2.213	n/a	CARDINAL	Birds	8	10	[0, 0, 0]	n/a	catFR1	1	R1393T
1142.075	23.918	1201001	REC_WORD	23.918	n/a	SPARROW	Birds	7	10	[0, 0, 0]	n/a	catFR1	1	R1393T
1165.993	2.887	1224919	REC_END	n/a	n/a	n/a	n/a	-999	10	[0, 0, 0]	n/a	catFR1	1	R1393T
1168.88	10.351	1227803	COUNTDOWN_START	n/a	n/a	n/a	n/a	-999	11	[0, 0, 0]	n/a	catFR1	1	R1393T
1179.231	0.0	1238157	COUNTDOWN_END	n/a	n/a	n/a	n/a	-999	11	[0, 0, 0]	n/a	catFR1	1	R1393T
1179.231	2.232	1238157	ENCODING_START	n/a	n/a	n/a	n/a	-999	11	[0, 0, 0]	n/a	catFR1	1	R1393T
1181.463	1.6	1240391	WORD	n/a	wordpools/wordpool_categorized_EN.txt	SUNFLOWER	Flowers	1	11	[0, 0, 0]	n/a	catFR1	1	R1393T
1183.063	0.967	1241991	WORD_OFF	n/a	n/a	SUNFLOWER	Flowers	1	11	[0, 0, 0]	n/a	catFR1	1	R1393T
1184.03	1.6	1242958	WORD	n/a	wordpools/wordpool_categorized_EN.txt	ROSE	Flowers	2	11	[0, 0, 0]	n/a	catFR1	1	R1393T
1185.63	0.783	1244551	WORD_OFF	n/a	n/a	ROSE	Flowers	2	11	[0, 0, 0]	n/a	catFR1	1	R1393T
1186.413	1.6	1245342	WORD	n/a	wordpools/wordpool_categorized_EN.txt	SHOVEL	Tools	3	11	[0, 0, 0]	n/a	catFR1	1	R1393T
1188.013	0.984	1246934	WORD_OFF	n/a	n/a	SHOVEL	Tools	3	11	[0, 0, 0]	n/a	catFR1	1	R1393T
1188.997	1.6	1247918	WORD	n/a	wordpools/wordpool_categorized_EN.txt	SANDER	Tools	4	11	[0, 0, 0]	n/a	catFR1	1	R1393T
1190.597	0.85	1249519	WORD_OFF	n/a	n/a	SANDER	Tools	4	11	[0, 0, 0]	n/a	catFR1	1	R1393T
1191.447	1.6	1250369	WORD	n/a	wordpools/wordpool_categorized_EN.txt	BLOCKS	Toys	5	11	[0, 0, 0]	n/a	catFR1	1	R1393T
1193.047	0.816	1251970	WORD_OFF	n/a	n/a	BLOCKS	Toys	5	11	[0, 0, 0]	n/a	catFR1	1	R1393T
1193.863	1.617	1252786	WORD	n/a	wordpools/wordpool_categorized_EN.txt	BALL	Toys	6	11	[0, 0, 0]	n/a	catFR1	1	R1393T
1195.48	0.917	1254404	WORD_OFF	n/a	n/a	BALL	Toys	6	11	[0, 0, 0]	n/a	catFR1	1	R1393T
1196.397	1.6	1255321	WORD	n/a	wordpools/wordpool_categorized_EN.txt	CARNATION	Flowers	7	11	[0, 0, 0]	n/a	catFR1	1	R1393T
1197.997	0.8	1256921	WORD_OFF	n/a	n/a	CARNATION	Flowers	7	11	[0, 0, 0]	n/a	catFR1	1	R1393T
1198.797	1.616	1257721	WORD	n/a	wordpools/wordpool_categorized_EN.txt	PETUNIA	Flowers	8	11	[0, 0, 0]	n/a	catFR1	1	R1393T
1200.413	0.884	1259339	WORD_OFF	n/a	n/a	PETUNIA	Flowers	8	11	[0, 0, 0]	n/a	catFR1	1	R1393T
1201.297	1.6	1260222	WORD	n/a	wordpools/wordpool_categorized_EN.txt	DOLL	Toys	9	11	[0, 0, 0]	n/a	catFR1	1	R1393T
1202.897	0.85	1261823	WORD_OFF	n/a	n/a	DOLL	Toys	9	11	[0, 0, 0]	n/a	catFR1	1	R1393T
1203.747	1.6	1262673	WORD	n/a	wordpools/wordpool_categorized_EN.txt	MARBLES	Toys	10	11	[0, 0, 0]	n/a	catFR1	1	R1393T
1205.347	0.833	1264282	WORD_OFF	n/a	n/a	MARBLES	Toys	10	11	[0, 0, 0]	n/a	catFR1	1	R1393T
1206.18	1.6	1265107	WORD	n/a	wordpools/wordpool_categorized_EN.txt	CROWBAR	Tools	11	11	[0, 0, 0]	n/a	catFR1	1	R1393T
1207.78	1.0	1266699	WORD_OFF	n/a	n/a	CROWBAR	Tools	11	11	[0, 0, 0]	n/a	catFR1	1	R1393T
1208.78	1.617	1267700	WORD	n/a	wordpools/wordpool_categorized_EN.txt	RATCHET	Tools	12	11	[0, 0, 0]	n/a	catFR1	1	R1393T
1210.397	0.0	1269317	WORD_OFF	n/a	n/a	RATCHET	Tools	12	11	[0, 0, 0]	n/a	catFR1	1	R1393T
1210.397	0.001	1269320	PROB	0.001	n/a	n/a	n/a	-999	11	[5, 2, 4]	10	catFR1	1	R1393T
1210.398	0.0	1269321	START	n/a	n/a	n/a	n/a	-999	11	[-999, -999, -999]	n/a	catFR1	1	R1393T
1210.398	0.0	1269325	ENCODING_END	n/a	n/a	n/a	n/a	-999	11	[0, 0, 0]	n/a	catFR1	1	R1393T
1210.398	88.899	1269325	DISTRACT_START	n/a	n/a	n/a	n/a	-999	11	[0, 0, 0]	n/a	catFR1	1	R1393T
1299.297	0.0	1358213	DISTRACT_END	n/a	n/a	n/a	n/a	-999	11	[0, 0, 0]	n/a	catFR1	1	R1393T
1299.297	1.366	1358215	STOP	n/a	n/a	n/a	n/a	-999	11	[-999, -999, -999]	n/a	catFR1	1	R1393T
1300.663	29.999	1359581	REC_START	n/a	n/a	n/a	n/a	-999	11	[0, 0, 0]	n/a	catFR1	1	R1393T
1330.662	0.264	1389578	REC_WORD_VV	0.264	n/a	<>	n/a	-999	11	[0, 0, 0]	n/a	catFR1	1	R1393T
1330.926	2.27	1389841	REC_END	n/a	n/a	n/a	n/a	-999	11	[0, 0, 0]	n/a	catFR1	1	R1393T
1333.196	10.352	1392117	COUNTDOWN_START	n/a	n/a	n/a	n/a	-999	12	[0, 0, 0]	n/a	catFR1	1	R1393T
1343.548	0.0	1402462	COUNTDOWN_END	n/a	n/a	n/a	n/a	-999	12	[0, 0, 0]	n/a	catFR1	1	R1393T
1343.548	2.132	1402470	ENCODING_START	n/a	n/a	n/a	n/a	-999	12	[0, 0, 0]	n/a	catFR1	1	R1393T
1345.68	1.6	1404596	WORD	n/a	wordpools/wordpool_categorized_EN.txt	PEACH	Fruit	1	12	[0, 0, 0]	n/a	catFR1	1	R1393T
1347.28	0.967	1406196	WORD_OFF	n/a	n/a	PEACH	Fruit	1	12	[0, 0, 0]	n/a	catFR1	1	R1393T
1348.247	1.6	1407163	WORD	n/a	wordpools/wordpool_categorized_EN.txt	LIME	Fruit	2	12	[0, 0, 0]	n/a	catFR1	1	R1393T
1349.847	0.849	1408764	WORD_OFF	n/a	n/a	LIME	Fruit	2	12	[0, 0, 0]	n/a	catFR1	1	R1393T
1350.696	1.602	1409614	WORD	n/a	wordpools/wordpool_categorized_EN.txt	DAFFODIL	Flowers	3	12	[0, 0, 0]	n/a	catFR1	1	R1393T
1352.298	0.849	1411215	WORD_OFF	n/a	n/a	DAFFODIL	Flowers	3	12	[0, 0, 0]	n/a	catFR1	1	R1393T
1353.147	1.6	1412065	WORD	n/a	wordpools/wordpool_categorized_EN.txt	TULIP	Flowers	4	12	[0, 0, 0]	n/a	catFR1	1	R1393T
1354.747	0.982	1413665	WORD_OFF	n/a	n/a	TULIP	Flowers	4	12	[0, 0, 0]	n/a	catFR1	1	R1393T
1355.729	1.601	1414649	WORD	n/a	wordpools/wordpool_categorized_EN.txt	JELLO	Desserts	5	12	[0, 0, 0]	n/a	catFR1	1	R1393T
1357.33	0.9	1416250	WORD_OFF	n/a	n/a	JELLO	Desserts	5	12	[0, 0, 0]	n/a	catFR1	1	R1393T
1358.23	1.617	1417150	WORD	n/a	wordpools/wordpool_categorized_EN.txt	COBBLER	Desserts	6	12	[0, 0, 0]	n/a	catFR1	1	R1393T
1359.847	0.932	1418759	WORD_OFF	n/a	n/a	COBBLER	Desserts	6	12	[0, 0, 0]	n/a	catFR1	1	R1393T
1360.779	1.6	1419692	WORD	n/a	wordpools/wordpool_categorized_EN.txt	BLUEBERRY	Fruit	7	12	[0, 0, 0]	n/a	catFR1	1	R1393T
1362.379	0.833	1421293	WORD_OFF	n/a	n/a	BLUEBERRY	Fruit	7	12	[0, 0, 0]	n/a	catFR1	1	R1393T
1363.212	1.601	1422127	WORD	n/a	wordpools/wordpool_categorized_EN.txt	STRAWBERRY	Fruit	8	12	[0, 0, 0]	n/a	catFR1	1	R1393T
1364.813	0.834	1423727	WORD_OFF	n/a	n/a	STRAWBERRY	Fruit	8	12	[0, 0, 0]	n/a	catFR1	1	R1393T
1365.647	1.6	1424561	WORD	n/a	wordpools/wordpool_categorized_EN.txt	PUDDING	Desserts	9	12	[0, 0, 0]	n/a	catFR1	1	R1393T
1367.247	0.95	1426161	WORD_OFF	n/a	n/a	PUDDING	Desserts	9	12	[0, 0, 0]	n/a	catFR1	1	R1393T
1368.197	1.6	1427112	WORD	n/a	wordpools/wordpool_categorized_EN.txt	COOKIE	Desserts	10	12	[0, 0, 0]	n/a	catFR1	1	R1393T
1369.797	0.966	1428712	WORD_OFF	n/a	n/a	COOKIE	Desserts	10	12	[0, 0, 0]	n/a	catFR1	1	R1393T
1370.763	1.617	1429679	WORD	n/a	wordpools/wordpool_categorized_EN.txt	LILAC	Flowers	11	12	[0, 0, 0]	n/a	catFR1	1	R1393T
1372.38	1.0	1431296	WORD_OFF	n/a	n/a	LILAC	Flowers	11	12	[0, 0, 0]	n/a	catFR1	1	R1393T
1373.38	1.601	1432297	WORD	n/a	wordpools/wordpool_categorized_EN.txt	ORCHID	Flowers	12	12	[0, 0, 0]	n/a	catFR1	1	R1393T
1374.981	0.001	1433895	PROB	0.001	n/a	n/a	n/a	-999	12	[6, 6, 8]	20	catFR1	1	R1393T
1374.982	0.0	1433896	START	n/a	n/a	n/a	n/a	-999	12	[-999, -999, -999]	n/a	catFR1	1	R1393T
1374.98	0.002	1433897	WORD_OFF	n/a	n/a	ORCHID	Flowers	12	12	[0, 0, 0]	n/a	catFR1	1	R1393T
1374.982	0.0	1433897	ENCODING_END	n/a	n/a	n/a	n/a	-999	12	[0, 0, 0]	n/a	catFR1	1	R1393T
1374.982	11.448	1433897	DISTRACT_START	n/a	n/a	n/a	n/a	-999	12	[0, 0, 0]	n/a	catFR1	1	R1393T
1386.43	6.467	1445344	PROB	6.467	n/a	n/a	n/a	-999	12	[3, 5, 3]	11	catFR1	1	R1393T
1392.897	7.733	1451810	PROB	7.733	n/a	n/a	n/a	-999	12	[8, 4, 8]	20	catFR1	1	R1393T
1400.63	0.0	1459543	STOP	n/a	n/a	n/a	n/a	-999	12	[-999, -999, -999]	n/a	catFR1	1	R1393T
1400.63	1.05	1459547	DISTRACT_END	n/a	n/a	n/a	n/a	-999	12	[0, 0, 0]	n/a	catFR1	1	R1393T
1401.68	4.744	1460589	REC_START	n/a	n/a	n/a	n/a	-999	12	[0, 0, 0]	n/a	catFR1	1	R1393T
1406.424	0.626	1465337	REC_WORD	0.626	n/a	TULIP	Flowers	4	12	[0, 0, 0]	n/a	catFR1	1	R1393T
1407.05	12.364	1465963	REC_WORD	12.364	n/a	DAFFODIL	Flowers	3	12	[0, 0, 0]	n/a	catFR1	1	R1393T
1419.414	12.495	1478326	REC_WORD	12.495	n/a	PUDDING	Desserts	9	12	[0, 0, 0]	n/a	catFR1	1	R1393T
1431.909	0.0	1490825	REC_END	n/a	n/a	n/a	n/a	-999	12	[0, 0, 0]	n/a	catFR1	1	R1393T
