onset	duration	sample	trial_type	response_time	stim_file	item_name	category	serialpos	list	test	answer	experiment	session	subject
0.0	39.41	7174	SESS_START	n/a	n/a	n/a	n/a	-999	-999	[0, 0, 0]	n/a	catFR1	2	R1192C
39.41	10.428	26878	COUNTDOWN_START	n/a	n/a	n/a	n/a	-999	-999	[0, 0, 0]	n/a	catFR1	2	R1192C
49.838	3.509	32091	COUNTDOWN_END	n/a	n/a	n/a	n/a	-999	-999	[0, 0, 0]	n/a	catFR1	2	R1192C
53.347	2.451	33846	PRACTICE_WORD	n/a	n/a	RING	n/a	-999	-999	[0, 0, 0]	n/a	catFR1	2	R1192C
55.798	2.483	35071	PRACTICE_WORD	n/a	n/a	ATTIC	n/a	-999	-999	[0, 0, 0]	n/a	catFR1	2	R1192C
58.281	2.384	36313	PRACTICE_WORD	n/a	n/a	WAGON	n/a	-999	-999	[0, 0, 0]	n/a	catFR1	2	R1192C
60.665	2.451	37505	PRACTICE_WORD	n/a	n/a	BEAM	n/a	-999	-999	[0, 0, 0]	n/a	catFR1	2	R1192C
63.116	2.499	38730	PRACTICE_WORD	n/a	n/a	TONGUE	n/a	-999	-999	[0, 0, 0]	n/a	catFR1	2	R1192C
65.615	2.418	39979	PRACTICE_WORD	n/a	n/a	RHINO	n/a	-999	-999	[0, 0, 0]	n/a	catFR1	2	R1192C
68.033	2.433	41188	PRACTICE_WORD	n/a	n/a	IRON	n/a	-999	-999	[0, 0, 0]	n/a	catFR1	2	R1192C
70.466	2.618	42405	PRACTICE_WORD	n/a	n/a	CAMEL	n/a	-999	-999	[0, 0, 0]	n/a	catFR1	2	R1192C
73.084	2.433	43714	PRACTICE_WORD	n/a	n/a	CHEST	n/a	-999	-999	[0, 0, 0]	n/a	catFR1	2	R1192C
75.517	2.518	44930	PRACTICE_WORD	n/a	n/a	WATCH	n/a	-999	-999	[0, 0, 0]	n/a	catFR1	2	R1192C
78.035	2.466	46189	PRACTICE_WORD	n/a	n/a	COTTON	n/a	-999	-999	[0, 0, 0]	n/a	catFR1	2	R1192C
80.501	1.601	47422	PRACTICE_WORD	n/a	n/a	FLOOD	n/a	-999	-999	[0, 0, 0]	n/a	catFR1	2	R1192C
82.102	0.001	48222	PRACTICE_DISTRACT_START	n/a	n/a	n/a	n/a	-999	-999	[0, 0, 0]	n/a	catFR1	2	R1192C
82.103	0.016	48223	START	n/a	n/a	n/a	n/a	-999	-1	[-999, -999, -999]	n/a	catFR1	2	R1192C
82.119	7.301	48231	PROB	7.274	n/a	n/a	n/a	-999	-1	[4, 5, 5]	14.0	catFR1	2	R1192C
89.42	9.185	51881	PROB	9.157	n/a	n/a	n/a	-999	-1	[8, 7, 2]	17.0	catFR1	2	R1192C
98.605	30.828	56473	PROB	30.828	n/a	n/a	n/a	-999	-1	[1, 5, 8]	14.0	catFR1	2	R1192C
129.433	0.011	71886	STOP	n/a	n/a	n/a	n/a	-999	-1	[-999, -999, -999]	n/a	catFR1	2	R1192C
129.444	0.703	71891	PRACTICE_DISTRACT_END	n/a	n/a	n/a	n/a	-999	-999	[0, 0, 0]	n/a	catFR1	2	R1192C
130.147	30.515	72243	PRACTICE_REC_START	n/a	n/a	n/a	n/a	-999	-999	[0, 0, 0]	n/a	catFR1	2	R1192C
160.662	35.562	87499	PRACTICE_REC_END	n/a	n/a	n/a	n/a	-999	-999	[0, 0, 0]	n/a	catFR1	2	R1192C
196.224	0.0	105279	COUNTDOWN_START	n/a	n/a	n/a	n/a	-999	1	[0, 0, 0]	n/a	catFR1	2	R1192C
196.224	10.428	105279	TRIAL	n/a	n/a	n/a	n/a	-999	1	[0, 0, 0]	n/a	catFR1	2	R1192C
206.652	0.007	110492	COUNTDOWN_END	n/a	n/a	n/a	n/a	-999	1	[0, 0, 0]	n/a	catFR1	2	R1192C
206.659	3.933	110496	ORIENT	n/a	n/a	n/a	n/a	-999	1	[0, 0, 0]	n/a	catFR1	2	R1192C
210.592	2.385	112462	WORD	n/a	wordpools/wordpool_categorized_EN.txt	IRON	Appliances	1	1	[0, 0, 0]	n/a	catFR1	2	R1192C
212.977	2.416	113654	WORD	n/a	wordpools/wordpool_categorized_EN.txt	VACUUM	Appliances	2	1	[0, 0, 0]	n/a	catFR1	2	R1192C
215.393	2.518	114862	WORD	n/a	wordpools/wordpool_categorized_EN.txt	CHIMPANZEE	Zoo	3	1	[0, 0, 0]	n/a	catFR1	2	R1192C
217.911	2.6	116121	WORD	n/a	wordpools/wordpool_categorized_EN.txt	PANDA	Zoo	4	1	[0, 0, 0]	n/a	catFR1	2	R1192C
220.511	2.485	117421	WORD	n/a	wordpools/wordpool_categorized_EN.txt	BEER	Beverages	5	1	[0, 0, 0]	n/a	catFR1	2	R1192C
222.996	2.499	118664	WORD	n/a	wordpools/wordpool_categorized_EN.txt	LEMONADE	Beverages	6	1	[0, 0, 0]	n/a	catFR1	2	R1192C
225.495	2.402	119913	WORD	n/a	wordpools/wordpool_categorized_EN.txt	GORILLA	Zoo	7	1	[0, 0, 0]	n/a	catFR1	2	R1192C
227.897	2.417	121114	WORD	n/a	wordpools/wordpool_categorized_EN.txt	MONKEY	Zoo	8	1	[0, 0, 0]	n/a	catFR1	2	R1192C
230.314	2.4	122322	WORD	n/a	wordpools/wordpool_categorized_EN.txt	TOASTER	Appliances	9	1	[0, 0, 0]	n/a	catFR1	2	R1192C
232.714	2.584	123522	WORD	n/a	wordpools/wordpool_categorized_EN.txt	DRYER	Appliances	10	1	[0, 0, 0]	n/a	catFR1	2	R1192C
235.298	2.551	124814	WORD	n/a	wordpools/wordpool_categorized_EN.txt	COFFEE	Beverages	11	1	[0, 0, 0]	n/a	catFR1	2	R1192C
237.849	1.616	126090	WORD	n/a	wordpools/wordpool_categorized_EN.txt	SODA	Beverages	12	1	[0, 0, 0]	n/a	catFR1	2	R1192C
239.465	0.001	126897	DISTRACT_START	n/a	n/a	n/a	n/a	-999	1	[0, 0, 0]	n/a	catFR1	2	R1192C
239.466	0.015	126898	START	n/a	n/a	n/a	n/a	-999	1	[-999, -999, -999]	n/a	catFR1	2	R1192C
239.481	9.085	126905	PROB	9.057	n/a	n/a	n/a	-999	1	[6, 1, 8]	15.0	catFR1	2	R1192C
248.566	5.086	131448	PROB	5.051	n/a	n/a	n/a	-999	1	[9, 3, 1]	13.0	catFR1	2	R1192C
253.652	6.15	133990	PROB	6.15	n/a	n/a	n/a	-999	1	[3, 4, 1]	8.0	catFR1	2	R1192C
259.802	0.017	137065	STOP	n/a	n/a	n/a	n/a	-999	1	[-999, -999, -999]	n/a	catFR1	2	R1192C
259.819	1.222	137074	DISTRACT_END	n/a	n/a	n/a	n/a	-999	1	[0, 0, 0]	n/a	catFR1	2	R1192C
261.041	0.695	137685	REC_START	n/a	n/a	n/a	n/a	-999	1	[0, 0, 0]	n/a	catFR1	2	R1192C
261.736	0.917	138032	REC_WORD	0.695	n/a	MONKEY	Zoo	8	1	[0, 0, 0]	n/a	catFR1	2	R1192C
262.653	1.082	138491	REC_WORD	1.612	n/a	GORILLA	Zoo	7	1	[0, 0, 0]	n/a	catFR1	2	R1192C
263.735	1.247	139031	REC_WORD	2.694	n/a	CHIMPANZEE	Zoo	3	1	[0, 0, 0]	n/a	catFR1	2	R1192C
264.982	4.934	139655	REC_WORD	3.941	n/a	COFFEE	Beverages	11	1	[0, 0, 0]	n/a	catFR1	2	R1192C
269.916	6.622	142122	REC_WORD	8.875	n/a	TOAST	n/a	-999	1	[0, 0, 0]	n/a	catFR1	2	R1192C
276.538	14.511	145432	REC_WORD	15.497	n/a	SODA	Beverages	12	1	[0, 0, 0]	n/a	catFR1	2	R1192C
291.049	3.326	152687	REC_END	n/a	n/a	n/a	n/a	-999	1	[0, 0, 0]	n/a	catFR1	2	R1192C
294.375	0.0	154350	TRIAL	n/a	n/a	n/a	n/a	-999	2	[0, 0, 0]	n/a	catFR1	2	R1192C
294.375	10.428	154350	COUNTDOWN_START	n/a	n/a	n/a	n/a	-999	2	[0, 0, 0]	n/a	catFR1	2	R1192C
304.803	0.008	159564	COUNTDOWN_END	n/a	n/a	n/a	n/a	-999	2	[0, 0, 0]	n/a	catFR1	2	R1192C
304.811	3.851	159568	ORIENT	n/a	n/a	n/a	n/a	-999	2	[0, 0, 0]	n/a	catFR1	2	R1192C
308.662	2.384	161493	WORD	n/a	wordpools/wordpool_categorized_EN.txt	KNIFE	KitchenTools	1	2	[0, 0, 0]	n/a	catFR1	2	R1192C
311.046	2.566	162685	WORD	n/a	wordpools/wordpool_categorized_EN.txt	STRAINER	KitchenTools	2	2	[0, 0, 0]	n/a	catFR1	2	R1192C
313.612	2.551	163968	WORD	n/a	wordpools/wordpool_categorized_EN.txt	BASKETBALL	Toys	3	2	[0, 0, 0]	n/a	catFR1	2	R1192C
316.163	2.551	165243	WORD	n/a	wordpools/wordpool_categorized_EN.txt	PUZZLE	Toys	4	2	[0, 0, 0]	n/a	catFR1	2	R1192C
318.714	2.417	166519	WORD	n/a	wordpools/wordpool_categorized_EN.txt	ROSE	Flowers	5	2	[0, 0, 0]	n/a	catFR1	2	R1192C
321.131	2.449	167727	WORD	n/a	wordpools/wordpool_categorized_EN.txt	LILAC	Flowers	6	2	[0, 0, 0]	n/a	catFR1	2	R1192C
323.58	2.468	168952	WORD	n/a	wordpools/wordpool_categorized_EN.txt	PEELER	KitchenTools	7	2	[0, 0, 0]	n/a	catFR1	2	R1192C
326.048	2.584	170186	WORD	n/a	wordpools/wordpool_categorized_EN.txt	COLANDER	KitchenTools	8	2	[0, 0, 0]	n/a	catFR1	2	R1192C
328.632	2.4	171477	WORD	n/a	wordpools/wordpool_categorized_EN.txt	CARNATION	Flowers	9	2	[0, 0, 0]	n/a	catFR1	2	R1192C
331.032	2.433	172677	WORD	n/a	wordpools/wordpool_categorized_EN.txt	MARIGOLD	Flowers	10	2	[0, 0, 0]	n/a	catFR1	2	R1192C
333.465	2.602	173894	WORD	n/a	wordpools/wordpool_categorized_EN.txt	BLOCKS	Toys	11	2	[0, 0, 0]	n/a	catFR1	2	R1192C
336.067	1.617	175195	WORD	n/a	wordpools/wordpool_categorized_EN.txt	DOLL	Toys	12	2	[0, 0, 0]	n/a	catFR1	2	R1192C
337.684	0.001	176003	DISTRACT_START	n/a	n/a	n/a	n/a	-999	2	[0, 0, 0]	n/a	catFR1	2	R1192C
337.685	0.016	176004	START	n/a	n/a	n/a	n/a	-999	2	[-999, -999, -999]	n/a	catFR1	2	R1192C
337.701	7.401	176012	PROB	7.373	n/a	n/a	n/a	-999	2	[1, 1, 8]	10.0	catFR1	2	R1192C
345.102	6.801	179712	PROB	6.772	n/a	n/a	n/a	-999	2	[3, 4, 6]	13.0	catFR1	2	R1192C
351.903	5.368	183112	PROB	5.347	n/a	n/a	n/a	-999	2	[4, 3, 7]	14.0	catFR1	2	R1192C
357.271	6.756	185796	PROB	6.756	n/a	n/a	n/a	-999	2	[3, 5, 7]	15.0	catFR1	2	R1192C
364.027	0.012	189174	STOP	n/a	n/a	n/a	n/a	-999	2	[-999, -999, -999]	n/a	catFR1	2	R1192C
364.039	1.101	189180	DISTRACT_END	n/a	n/a	n/a	n/a	-999	2	[0, 0, 0]	n/a	catFR1	2	R1192C
365.14	3.221	189730	REC_START	n/a	n/a	n/a	n/a	-999	2	[0, 0, 0]	n/a	catFR1	2	R1192C
368.361	1.127	191340	REC_WORD	3.221	n/a	KNIFE	KitchenTools	1	2	[0, 0, 0]	n/a	catFR1	2	R1192C
369.488	2.467	191904	REC_WORD	4.348	n/a	STRAINER	KitchenTools	2	2	[0, 0, 0]	n/a	catFR1	2	R1192C
371.955	1.0	193137	REC_WORD	6.815	n/a	LILAC	Flowers	6	2	[0, 0, 0]	n/a	catFR1	2	R1192C
372.955	6.813	193637	REC_WORD_VV	7.815	n/a	<>	n/a	-999	2	[0, 0, 0]	n/a	catFR1	2	R1192C
379.768	15.384	197043	REC_WORD	14.628	n/a	PEELER	KitchenTools	7	2	[0, 0, 0]	n/a	catFR1	2	R1192C
395.152	5.16	204735	REC_END	n/a	n/a	n/a	n/a	-999	2	[0, 0, 0]	n/a	catFR1	2	R1192C
400.312	0.001	207315	COUNTDOWN_START	n/a	n/a	n/a	n/a	-999	3	[0, 0, 0]	n/a	catFR1	2	R1192C
400.313	10.427	207315	TRIAL	n/a	n/a	n/a	n/a	-999	3	[0, 0, 0]	n/a	catFR1	2	R1192C
410.74	0.008	212528	COUNTDOWN_END	n/a	n/a	n/a	n/a	-999	3	[0, 0, 0]	n/a	catFR1	2	R1192C
410.748	3.517	212532	ORIENT	n/a	n/a	n/a	n/a	-999	3	[0, 0, 0]	n/a	catFR1	2	R1192C
414.265	2.534	214291	WORD	n/a	wordpools/wordpool_categorized_EN.txt	DISHWASHER	Appliances	1	3	[0, 0, 0]	n/a	catFR1	2	R1192C
416.799	2.5	215557	WORD	n/a	wordpools/wordpool_categorized_EN.txt	MIXER	Appliances	2	3	[0, 0, 0]	n/a	catFR1	2	R1192C
419.299	2.501	216807	WORD	n/a	wordpools/wordpool_categorized_EN.txt	SHELF	Furniture	3	3	[0, 0, 0]	n/a	catFR1	2	R1192C
421.8	2.5	218058	WORD	n/a	wordpools/wordpool_categorized_EN.txt	TABLE	Furniture	4	3	[0, 0, 0]	n/a	catFR1	2	R1192C
424.3	2.567	219308	WORD	n/a	wordpools/wordpool_categorized_EN.txt	RATCHET	Tools	5	3	[0, 0, 0]	n/a	catFR1	2	R1192C
426.867	2.451	220591	WORD	n/a	wordpools/wordpool_categorized_EN.txt	PLIERS	Tools	6	3	[0, 0, 0]	n/a	catFR1	2	R1192C
429.318	2.55	221816	WORD	n/a	wordpools/wordpool_categorized_EN.txt	FREEZER	Appliances	7	3	[0, 0, 0]	n/a	catFR1	2	R1192C
431.868	2.467	223091	WORD	n/a	wordpools/wordpool_categorized_EN.txt	OVEN	Appliances	8	3	[0, 0, 0]	n/a	catFR1	2	R1192C
434.335	2.551	224325	WORD	n/a	wordpools/wordpool_categorized_EN.txt	SANDER	Tools	9	3	[0, 0, 0]	n/a	catFR1	2	R1192C
436.886	2.467	225600	WORD	n/a	wordpools/wordpool_categorized_EN.txt	SAW	Tools	10	3	[0, 0, 0]	n/a	catFR1	2	R1192C
439.353	2.484	226834	WORD	n/a	wordpools/wordpool_categorized_EN.txt	CHAIR	Furniture	11	3	[0, 0, 0]	n/a	catFR1	2	R1192C
441.837	1.616	228075	WORD	n/a	wordpools/wordpool_categorized_EN.txt	CABINET	Furniture	12	3	[0, 0, 0]	n/a	catFR1	2	R1192C
443.453	0.001	228883	DISTRACT_START	n/a	n/a	n/a	n/a	-999	3	[0, 0, 0]	n/a	catFR1	2	R1192C
443.454	0.015	228884	START	n/a	n/a	n/a	n/a	-999	3	[-999, -999, -999]	n/a	catFR1	2	R1192C
443.469	7.902	228891	PROB	7.869	n/a	n/a	n/a	-999	3	[7, 1, 3]	11.0	catFR1	2	R1192C
451.371	11.069	232842	PROB	11.038	n/a	n/a	n/a	-999	3	[5, 2, 8]	15.0	catFR1	2	R1192C
462.44	6.875	238376	PROB	6.875	n/a	n/a	n/a	-999	3	[7, 2, 1]	10.0	catFR1	2	R1192C
469.315	0.01	241813	STOP	n/a	n/a	n/a	n/a	-999	3	[-999, -999, -999]	n/a	catFR1	2	R1192C
469.325	1.067	241818	DISTRACT_END	n/a	n/a	n/a	n/a	-999	3	[0, 0, 0]	n/a	catFR1	2	R1192C
470.392	3.152	242352	REC_START	n/a	n/a	n/a	n/a	-999	3	[0, 0, 0]	n/a	catFR1	2	R1192C
473.544	0.641	243928	REC_WORD	3.152	n/a	CHAIR	Furniture	11	3	[0, 0, 0]	n/a	catFR1	2	R1192C
474.185	26.218	244248	REC_WORD	3.793	n/a	CABINET	Furniture	12	3	[0, 0, 0]	n/a	catFR1	2	R1192C
500.403	7.546	257356	REC_END	n/a	n/a	n/a	n/a	-999	3	[0, 0, 0]	n/a	catFR1	2	R1192C
507.949	0.0	261129	TRIAL	n/a	n/a	n/a	n/a	-999	4	[0, 0, 0]	n/a	catFR1	2	R1192C
507.949	10.428	261129	COUNTDOWN_START	n/a	n/a	n/a	n/a	-999	4	[0, 0, 0]	n/a	catFR1	2	R1192C
518.377	0.006	266342	COUNTDOWN_END	n/a	n/a	n/a	n/a	-999	4	[0, 0, 0]	n/a	catFR1	2	R1192C
518.383	3.636	266345	ORIENT	n/a	n/a	n/a	n/a	-999	4	[0, 0, 0]	n/a	catFR1	2	R1192C
522.019	2.466	268163	WORD	n/a	wordpools/wordpool_categorized_EN.txt	SEAGULL	Birds	1	4	[0, 0, 0]	n/a	catFR1	2	R1192C
524.485	2.634	269396	WORD	n/a	wordpools/wordpool_categorized_EN.txt	CROW	Birds	2	4	[0, 0, 0]	n/a	catFR1	2	R1192C
527.119	2.551	270713	WORD	n/a	wordpools/wordpool_categorized_EN.txt	WRENCH	Tools	3	4	[0, 0, 0]	n/a	catFR1	2	R1192C
529.67	2.567	271988	WORD	n/a	wordpools/wordpool_categorized_EN.txt	SHOVEL	Tools	4	4	[0, 0, 0]	n/a	catFR1	2	R1192C
532.237	2.401	273272	WORD	n/a	wordpools/wordpool_categorized_EN.txt	SCANNER	Electronics	5	4	[0, 0, 0]	n/a	catFR1	2	R1192C
534.638	2.5	274472	WORD	n/a	wordpools/wordpool_categorized_EN.txt	CALCULATOR	Electronics	6	4	[0, 0, 0]	n/a	catFR1	2	R1192C
537.138	2.6	275722	WORD	n/a	wordpools/wordpool_categorized_EN.txt	CARDINAL	Birds	7	4	[0, 0, 0]	n/a	catFR1	2	R1192C
539.738	2.401	277022	WORD	n/a	wordpools/wordpool_categorized_EN.txt	DOVE	Birds	8	4	[0, 0, 0]	n/a	catFR1	2	R1192C
542.139	2.466	278222	WORD	n/a	wordpools/wordpool_categorized_EN.txt	TABLET	Electronics	9	4	[0, 0, 0]	n/a	catFR1	2	R1192C
544.605	2.451	279455	WORD	n/a	wordpools/wordpool_categorized_EN.txt	RADIO	Electronics	10	4	[0, 0, 0]	n/a	catFR1	2	R1192C
547.056	2.601	280681	WORD	n/a	wordpools/wordpool_categorized_EN.txt	SCREWDRIVER	Tools	11	4	[0, 0, 0]	n/a	catFR1	2	R1192C
549.657	1.617	281981	WORD	n/a	wordpools/wordpool_categorized_EN.txt	CROWBAR	Tools	12	4	[0, 0, 0]	n/a	catFR1	2	R1192C
551.274	0.001	282790	DISTRACT_START	n/a	n/a	n/a	n/a	-999	4	[0, 0, 0]	n/a	catFR1	2	R1192C
551.275	0.016	282790	START	n/a	n/a	n/a	n/a	-999	4	[-999, -999, -999]	n/a	catFR1	2	R1192C
551.291	10.902	282798	PROB	10.879	n/a	n/a	n/a	-999	4	[8, 6, 6]	20.0	catFR1	2	R1192C
562.193	6.051	288249	PROB	6.025	n/a	n/a	n/a	-999	4	[4, 4, 6]	14.0	catFR1	2	R1192C
568.244	7.702	291274	PROB	7.702	n/a	n/a	n/a	-999	4	[6, 1, 2]	9.0	catFR1	2	R1192C
575.946	0.016	295125	STOP	n/a	n/a	n/a	n/a	-999	4	[-999, -999, -999]	n/a	catFR1	2	R1192C
575.962	1.101	295133	DISTRACT_END	n/a	n/a	n/a	n/a	-999	4	[0, 0, 0]	n/a	catFR1	2	R1192C
577.063	1.433	295683	REC_START	n/a	n/a	n/a	n/a	-999	4	[0, 0, 0]	n/a	catFR1	2	R1192C
578.496	0.69	296400	REC_WORD	1.433	n/a	WRENCH	Tools	3	4	[0, 0, 0]	n/a	catFR1	2	R1192C
579.186	1.0	296744	REC_WORD	2.123	n/a	SCREWDRIVER	Tools	11	4	[0, 0, 0]	n/a	catFR1	2	R1192C
580.186	9.404	297244	REC_WORD_VV	3.123	n/a	<>	n/a	-999	4	[0, 0, 0]	n/a	catFR1	2	R1192C
589.59	3.486	301946	REC_WORD_VV	12.527	n/a	<>	n/a	-999	4	[0, 0, 0]	n/a	catFR1	2	R1192C
593.076	8.154	303689	REC_WORD	16.013	n/a	DOVE	Birds	8	4	[0, 0, 0]	n/a	catFR1	2	R1192C
601.23	1.0	307766	REC_WORD_VV	24.167	n/a	<>	n/a	-999	4	[0, 0, 0]	n/a	catFR1	2	R1192C
602.23	2.154	308266	REC_WORD_VV	25.167	n/a	<>	n/a	-999	4	[0, 0, 0]	n/a	catFR1	2	R1192C
604.384	1.0	309342	REC_WORD_VV	27.321	n/a	<>	n/a	-999	4	[0, 0, 0]	n/a	catFR1	2	R1192C
605.384	1.691	309842	REC_WORD_VV	28.321	n/a	<>	n/a	-999	4	[0, 0, 0]	n/a	catFR1	2	R1192C
607.075	17.096	310688	REC_END	n/a	n/a	n/a	n/a	-999	4	[0, 0, 0]	n/a	catFR1	2	R1192C
624.171	0.0	319235	TRIAL	n/a	n/a	n/a	n/a	-999	5	[0, 0, 0]	n/a	catFR1	2	R1192C
624.171	10.428	319235	COUNTDOWN_START	n/a	n/a	n/a	n/a	-999	5	[0, 0, 0]	n/a	catFR1	2	R1192C
634.599	0.006	324449	COUNTDOWN_END	n/a	n/a	n/a	n/a	-999	5	[0, 0, 0]	n/a	catFR1	2	R1192C
634.605	3.469	324452	ORIENT	n/a	n/a	n/a	n/a	-999	5	[0, 0, 0]	n/a	catFR1	2	R1192C
638.074	2.583	326186	WORD	n/a	wordpools/wordpool_categorized_EN.txt	LILY	Flowers	1	5	[0, 0, 0]	n/a	catFR1	2	R1192C
640.657	2.618	327478	WORD	n/a	wordpools/wordpool_categorized_EN.txt	DAISY	Flowers	2	5	[0, 0, 0]	n/a	catFR1	2	R1192C
643.275	2.383	328786	WORD	n/a	wordpools/wordpool_categorized_EN.txt	BOAT	Vehicles	3	5	[0, 0, 0]	n/a	catFR1	2	R1192C
645.658	2.584	329978	WORD	n/a	wordpools/wordpool_categorized_EN.txt	VAN	Vehicles	4	5	[0, 0, 0]	n/a	catFR1	2	R1192C
648.242	2.601	331270	WORD	n/a	wordpools/wordpool_categorized_EN.txt	CHICKEN	FarmAnimals	5	5	[0, 0, 0]	n/a	catFR1	2	R1192C
650.843	2.417	332570	WORD	n/a	wordpools/wordpool_categorized_EN.txt	TURKEY	FarmAnimals	6	5	[0, 0, 0]	n/a	catFR1	2	R1192C
653.26	2.517	333779	WORD	n/a	wordpools/wordpool_categorized_EN.txt	DAFFODIL	Flowers	7	5	[0, 0, 0]	n/a	catFR1	2	R1192C
655.777	2.55	335037	WORD	n/a	wordpools/wordpool_categorized_EN.txt	PETUNIA	Flowers	8	5	[0, 0, 0]	n/a	catFR1	2	R1192C
658.327	2.467	336312	WORD	n/a	wordpools/wordpool_categorized_EN.txt	LAMB	FarmAnimals	9	5	[0, 0, 0]	n/a	catFR1	2	R1192C
660.794	2.451	337545	WORD	n/a	wordpools/wordpool_categorized_EN.txt	ROOSTER	FarmAnimals	10	5	[0, 0, 0]	n/a	catFR1	2	R1192C
663.245	2.55	338771	WORD	n/a	wordpools/wordpool_categorized_EN.txt	PLANE	Vehicles	11	5	[0, 0, 0]	n/a	catFR1	2	R1192C
665.795	1.616	340046	WORD	n/a	wordpools/wordpool_categorized_EN.txt	CAR	Vehicles	12	5	[0, 0, 0]	n/a	catFR1	2	R1192C
667.411	0.002	340854	DISTRACT_START	n/a	n/a	n/a	n/a	-999	5	[0, 0, 0]	n/a	catFR1	2	R1192C
667.413	0.015	340855	START	n/a	n/a	n/a	n/a	-999	5	[-999, -999, -999]	n/a	catFR1	2	R1192C
667.428	6.269	340862	PROB	6.246	n/a	n/a	n/a	-999	5	[4, 2, 5]	11.0	catFR1	2	R1192C
673.697	5.733	343996	PROB	5.712	n/a	n/a	n/a	-999	5	[7, 5, 3]	15.0	catFR1	2	R1192C
679.43	18.628	346863	PROB	18.628	n/a	n/a	n/a	-999	5	[5, 9, 3]	17.0	catFR1	2	R1192C
698.058	0.01	356176	STOP	n/a	n/a	n/a	n/a	-999	5	[-999, -999, -999]	n/a	catFR1	2	R1192C
698.068	1.151	356181	DISTRACT_END	n/a	n/a	n/a	n/a	-999	5	[0, 0, 0]	n/a	catFR1	2	R1192C
699.219	20.734	356756	REC_START	n/a	n/a	n/a	n/a	-999	5	[0, 0, 0]	n/a	catFR1	2	R1192C
719.953	1.0	367122	REC_WORD_VV	20.734	n/a	<>	n/a	-999	5	[0, 0, 0]	n/a	catFR1	2	R1192C
720.953	8.278	367622	REC_WORD_VV	21.734	n/a	<>	n/a	-999	5	[0, 0, 0]	n/a	catFR1	2	R1192C
729.231	25.23	371761	REC_END	n/a	n/a	n/a	n/a	-999	5	[0, 0, 0]	n/a	catFR1	2	R1192C
754.461	0.0	384375	TRIAL	n/a	n/a	n/a	n/a	-999	6	[0, 0, 0]	n/a	catFR1	2	R1192C
754.461	10.428	384375	COUNTDOWN_START	n/a	n/a	n/a	n/a	-999	6	[0, 0, 0]	n/a	catFR1	2	R1192C
764.889	0.008	389589	COUNTDOWN_END	n/a	n/a	n/a	n/a	-999	6	[0, 0, 0]	n/a	catFR1	2	R1192C
764.897	3.583	389593	ORIENT	n/a	n/a	n/a	n/a	-999	6	[0, 0, 0]	n/a	catFR1	2	R1192C
768.48	2.402	391384	WORD	n/a	wordpools/wordpool_categorized_EN.txt	HAWK	Birds	1	6	[0, 0, 0]	n/a	catFR1	2	R1192C
770.882	2.549	392585	WORD	n/a	wordpools/wordpool_categorized_EN.txt	SPARROW	Birds	2	6	[0, 0, 0]	n/a	catFR1	2	R1192C
773.431	2.518	393859	WORD	n/a	wordpools/wordpool_categorized_EN.txt	UNDERWEAR	Clothing	3	6	[0, 0, 0]	n/a	catFR1	2	R1192C
775.949	2.45	395118	WORD	n/a	wordpools/wordpool_categorized_EN.txt	JACKET	Clothing	4	6	[0, 0, 0]	n/a	catFR1	2	R1192C
778.399	2.501	396343	WORD	n/a	wordpools/wordpool_categorized_EN.txt	ARM	BodyParts	5	6	[0, 0, 0]	n/a	catFR1	2	R1192C
780.9	2.5	397594	WORD	n/a	wordpools/wordpool_categorized_EN.txt	KNEE	BodyParts	6	6	[0, 0, 0]	n/a	catFR1	2	R1192C
783.4	2.568	398843	WORD	n/a	wordpools/wordpool_categorized_EN.txt	COAT	Clothing	7	6	[0, 0, 0]	n/a	catFR1	2	R1192C
785.968	2.616	400127	WORD	n/a	wordpools/wordpool_categorized_EN.txt	DRESS	Clothing	8	6	[0, 0, 0]	n/a	catFR1	2	R1192C
788.584	2.585	401435	WORD	n/a	wordpools/wordpool_categorized_EN.txt	ROBIN	Birds	9	6	[0, 0, 0]	n/a	catFR1	2	R1192C
791.169	2.6	402728	WORD	n/a	wordpools/wordpool_categorized_EN.txt	PIGEON	Birds	10	6	[0, 0, 0]	n/a	catFR1	2	R1192C
793.769	2.617	404028	WORD	n/a	wordpools/wordpool_categorized_EN.txt	HAND	BodyParts	11	6	[0, 0, 0]	n/a	catFR1	2	R1192C
796.386	1.618	405336	WORD	n/a	wordpools/wordpool_categorized_EN.txt	LEG	BodyParts	12	6	[0, 0, 0]	n/a	catFR1	2	R1192C
798.004	0.001	406145	DISTRACT_START	n/a	n/a	n/a	n/a	-999	6	[0, 0, 0]	n/a	catFR1	2	R1192C
798.005	0.015	406145	START	n/a	n/a	n/a	n/a	-999	6	[-999, -999, -999]	n/a	catFR1	2	R1192C
798.02	7.202	406153	PROB	7.173	n/a	n/a	n/a	-999	6	[4, 5, 4]	13.0	catFR1	2	R1192C
805.222	24.068	409754	PROB	24.068	n/a	n/a	n/a	-999	6	[8, 7, 8]	23.0	catFR1	2	R1192C
829.29	0.02	421787	STOP	n/a	n/a	n/a	n/a	-999	6	[-999, -999, -999]	n/a	catFR1	2	R1192C
829.31	1.133	421797	DISTRACT_END	n/a	n/a	n/a	n/a	-999	6	[0, 0, 0]	n/a	catFR1	2	R1192C
830.443	9.886	422363	REC_START	n/a	n/a	n/a	n/a	-999	6	[0, 0, 0]	n/a	catFR1	2	R1192C
840.329	0.81	427306	REC_WORD	9.886	n/a	HAWK	Birds	1	6	[0, 0, 0]	n/a	catFR1	2	R1192C
841.139	2.785	427711	REC_WORD	10.696	n/a	SPARROW	Birds	2	6	[0, 0, 0]	n/a	catFR1	2	R1192C
843.924	4.04	429103	REC_WORD	13.481	n/a	UNDERWEAR	Clothing	3	6	[0, 0, 0]	n/a	catFR1	2	R1192C
847.964	7.002	431123	REC_WORD	17.521	n/a	DRESS	Clothing	8	6	[0, 0, 0]	n/a	catFR1	2	R1192C
854.966	5.488	434624	REC_WORD	24.523	n/a	LEG	BodyParts	12	6	[0, 0, 0]	n/a	catFR1	2	R1192C
860.454	11.28	437367	REC_END	n/a	n/a	n/a	n/a	-999	6	[0, 0, 0]	n/a	catFR1	2	R1192C
871.734	0.0	443007	TRIAL	n/a	n/a	n/a	n/a	-999	7	[0, 0, 0]	n/a	catFR1	2	R1192C
871.734	10.428	443007	COUNTDOWN_START	n/a	n/a	n/a	n/a	-999	7	[0, 0, 0]	n/a	catFR1	2	R1192C
882.162	0.007	448221	COUNTDOWN_END	n/a	n/a	n/a	n/a	-999	7	[0, 0, 0]	n/a	catFR1	2	R1192C
882.169	3.668	448224	ORIENT	n/a	n/a	n/a	n/a	-999	7	[0, 0, 0]	n/a	catFR1	2	R1192C
885.837	2.566	450058	WORD	n/a	wordpools/wordpool_categorized_EN.txt	HURRICANE	Weather	1	7	[0, 0, 0]	n/a	catFR1	2	R1192C
888.403	2.535	451341	WORD	n/a	wordpools/wordpool_categorized_EN.txt	SNOW	Weather	2	7	[0, 0, 0]	n/a	catFR1	2	R1192C
890.938	2.633	452608	WORD	n/a	wordpools/wordpool_categorized_EN.txt	RULER	OfficeSupplies	3	7	[0, 0, 0]	n/a	catFR1	2	R1192C
893.571	2.601	453925	WORD	n/a	wordpools/wordpool_categorized_EN.txt	FOLDER	OfficeSupplies	4	7	[0, 0, 0]	n/a	catFR1	2	R1192C
896.172	2.467	455225	WORD	n/a	wordpools/wordpool_categorized_EN.txt	GRATER	KitchenTools	5	7	[0, 0, 0]	n/a	catFR1	2	R1192C
898.639	2.567	456458	WORD	n/a	wordpools/wordpool_categorized_EN.txt	WHISK	KitchenTools	6	7	[0, 0, 0]	n/a	catFR1	2	R1192C
901.206	2.501	457742	WORD	n/a	wordpools/wordpool_categorized_EN.txt	DRIZZLE	Weather	7	7	[0, 0, 0]	n/a	catFR1	2	R1192C
903.707	2.567	458992	WORD	n/a	wordpools/wordpool_categorized_EN.txt	WIND	Weather	8	7	[0, 0, 0]	n/a	catFR1	2	R1192C
906.274	2.384	460276	WORD	n/a	wordpools/wordpool_categorized_EN.txt	CORKSCREW	KitchenTools	9	7	[0, 0, 0]	n/a	catFR1	2	R1192C
908.658	2.6	461467	WORD	n/a	wordpools/wordpool_categorized_EN.txt	SPOON	KitchenTools	10	7	[0, 0, 0]	n/a	catFR1	2	R1192C
911.258	2.601	462767	WORD	n/a	wordpools/wordpool_categorized_EN.txt	ERASER	OfficeSupplies	11	7	[0, 0, 0]	n/a	catFR1	2	R1192C
913.859	1.616	464068	WORD	n/a	wordpools/wordpool_categorized_EN.txt	BINDER	OfficeSupplies	12	7	[0, 0, 0]	n/a	catFR1	2	R1192C
915.475	0.001	464876	DISTRACT_START	n/a	n/a	n/a	n/a	-999	7	[0, 0, 0]	n/a	catFR1	2	R1192C
915.476	0.015	464876	START	n/a	n/a	n/a	n/a	-999	7	[-999, -999, -999]	n/a	catFR1	2	R1192C
915.491	10.253	464884	PROB	10.223	n/a	n/a	n/a	-999	7	[9, 3, 7]	19.0	catFR1	2	R1192C
925.744	5.817	470010	PROB	5.793	n/a	n/a	n/a	-999	7	[3, 2, 1]	6.0	catFR1	2	R1192C
931.561	11.537	472918	PROB	11.537	n/a	n/a	n/a	-999	7	[8, 8, 5]	21.0	catFR1	2	R1192C
943.098	0.016	478686	STOP	n/a	n/a	n/a	n/a	-999	7	[-999, -999, -999]	n/a	catFR1	2	R1192C
943.114	1.034	478694	DISTRACT_END	n/a	n/a	n/a	n/a	-999	7	[0, 0, 0]	n/a	catFR1	2	R1192C
944.148	9.902	479211	REC_START	n/a	n/a	n/a	n/a	-999	7	[0, 0, 0]	n/a	catFR1	2	R1192C
954.05	1.005	484162	REC_WORD_VV	9.902	n/a	<>	n/a	-999	7	[0, 0, 0]	n/a	catFR1	2	R1192C
955.055	2.003	484664	REC_WORD	10.907	n/a	GRATER	KitchenTools	5	7	[0, 0, 0]	n/a	catFR1	2	R1192C
957.058	0.194	485666	REC_WORD_VV	12.91	n/a	<>	n/a	-999	7	[0, 0, 0]	n/a	catFR1	2	R1192C
957.252	10.11	485763	REC_WORD	13.104	n/a	WHISK	KitchenTools	6	7	[0, 0, 0]	n/a	catFR1	2	R1192C
967.362	0.799	490817	REC_WORD_VV	23.214	n/a	<>	n/a	-999	7	[0, 0, 0]	n/a	catFR1	2	R1192C
968.161	2.402	491217	REC_WORD	24.013	n/a	ERASER	OfficeSupplies	11	7	[0, 0, 0]	n/a	catFR1	2	R1192C
970.563	3.6	492418	REC_WORD_VV	26.415	n/a	<>	n/a	-999	7	[0, 0, 0]	n/a	catFR1	2	R1192C
974.163	19.477	494217	REC_END	n/a	n/a	n/a	n/a	-999	7	[0, 0, 0]	n/a	catFR1	2	R1192C
993.64	0.0	503955	TRIAL	n/a	n/a	n/a	n/a	-999	8	[0, 0, 0]	n/a	catFR1	2	R1192C
993.64	10.428	503955	COUNTDOWN_START	n/a	n/a	n/a	n/a	-999	8	[0, 0, 0]	n/a	catFR1	2	R1192C
1004.068	0.008	509169	COUNTDOWN_END	n/a	n/a	n/a	n/a	-999	8	[0, 0, 0]	n/a	catFR1	2	R1192C
1004.076	3.667	509173	ORIENT	n/a	n/a	n/a	n/a	-999	8	[0, 0, 0]	n/a	catFR1	2	R1192C
1007.743	2.434	511006	WORD	n/a	wordpools/wordpool_categorized_EN.txt	DRESSER	Furniture	1	8	[0, 0, 0]	n/a	catFR1	2	R1192C
1010.177	2.399	512223	WORD	n/a	wordpools/wordpool_categorized_EN.txt	NIGHTSTAND	Furniture	2	8	[0, 0, 0]	n/a	catFR1	2	R1192C
1012.576	2.485	513422	WORD	n/a	wordpools/wordpool_categorized_EN.txt	CARROT	Vegetables	3	8	[0, 0, 0]	n/a	catFR1	2	R1192C
1015.061	2.399	514665	WORD	n/a	wordpools/wordpool_categorized_EN.txt	POTATO	Vegetables	4	8	[0, 0, 0]	n/a	catFR1	2	R1192C
1017.46	2.585	515864	WORD	n/a	wordpools/wordpool_categorized_EN.txt	SCOOTER	Vehicles	5	8	[0, 0, 0]	n/a	catFR1	2	R1192C
1020.045	2.483	517157	WORD	n/a	wordpools/wordpool_categorized_EN.txt	BIKE	Vehicles	6	8	[0, 0, 0]	n/a	catFR1	2	R1192C
1022.528	2.552	518398	WORD	n/a	wordpools/wordpool_categorized_EN.txt	CUCUMBER	Vegetables	7	8	[0, 0, 0]	n/a	catFR1	2	R1192C
1025.08	2.633	519674	WORD	n/a	wordpools/wordpool_categorized_EN.txt	BROCCOLI	Vegetables	8	8	[0, 0, 0]	n/a	catFR1	2	R1192C
1027.713	2.617	520990	WORD	n/a	wordpools/wordpool_categorized_EN.txt	COUCH	Furniture	9	8	[0, 0, 0]	n/a	catFR1	2	R1192C
1030.33	2.434	522299	WORD	n/a	wordpools/wordpool_categorized_EN.txt	SOFA	Furniture	10	8	[0, 0, 0]	n/a	catFR1	2	R1192C
1032.764	2.401	523516	WORD	n/a	wordpools/wordpool_categorized_EN.txt	MOTORCYCLE	Vehicles	11	8	[0, 0, 0]	n/a	catFR1	2	R1192C
1035.165	1.617	524716	WORD	n/a	wordpools/wordpool_categorized_EN.txt	BUS	Vehicles	12	8	[0, 0, 0]	n/a	catFR1	2	R1192C
1036.782	0.001	525524	DISTRACT_START	n/a	n/a	n/a	n/a	-999	8	[0, 0, 0]	n/a	catFR1	2	R1192C
1036.783	0.015	525525	START	n/a	n/a	n/a	n/a	-999	8	[-999, -999, -999]	n/a	catFR1	2	R1192C
1036.798	8.902	525532	PROB	8.868	n/a	n/a	n/a	-999	8	[2, 3, 6]	11.0	catFR1	2	R1192C
1045.7	20.095	529983	PROB	20.095	n/a	n/a	n/a	-999	8	[4, 7, 9]	22.0	catFR1	2	R1192C
1065.795	0.009	540030	STOP	n/a	n/a	n/a	n/a	-999	8	[-999, -999, -999]	n/a	catFR1	2	R1192C
1065.804	1.168	540034	DISTRACT_END	n/a	n/a	n/a	n/a	-999	8	[0, 0, 0]	n/a	catFR1	2	R1192C
1066.972	6.251	540618	REC_START	n/a	n/a	n/a	n/a	-999	8	[0, 0, 0]	n/a	catFR1	2	R1192C
1073.223	0.43	543743	REC_WORD	6.251	n/a	BIKE	Vehicles	6	8	[0, 0, 0]	n/a	catFR1	2	R1192C
1073.653	1.818	543958	REC_WORD	6.681	n/a	BUS	Vehicles	12	8	[0, 0, 0]	n/a	catFR1	2	R1192C
1075.471	5.667	544867	REC_WORD	8.499	n/a	PLANE	n/a	-999	8	[0, 0, 0]	n/a	catFR1	2	R1192C
1081.138	0.497	547701	REC_WORD	14.166	n/a	CARROT	Vegetables	3	8	[0, 0, 0]	n/a	catFR1	2	R1192C
1081.635	1.795	547949	REC_WORD	14.663	n/a	POTATO	Vegetables	4	8	[0, 0, 0]	n/a	catFR1	2	R1192C
1083.43	6.159	548847	REC_WORD	16.458	n/a	SCOOTER	Vehicles	5	8	[0, 0, 0]	n/a	catFR1	2	R1192C
1089.589	6.476	551926	REC_WORD	22.617	n/a	BROCCOLI	Vegetables	8	8	[0, 0, 0]	n/a	catFR1	2	R1192C
1096.065	0.919	555164	REC_WORD	29.093	n/a	CUCUMBER	Vegetables	7	8	[0, 0, 0]	n/a	catFR1	2	R1192C
1096.984	30.181	555623	REC_END	n/a	n/a	n/a	n/a	-999	8	[0, 0, 0]	n/a	catFR1	2	R1192C
1127.165	0.001	570712	COUNTDOWN_START	n/a	n/a	n/a	n/a	-999	9	[0, 0, 0]	n/a	catFR1	2	R1192C
1127.166	10.427	570713	TRIAL	n/a	n/a	n/a	n/a	-999	9	[0, 0, 0]	n/a	catFR1	2	R1192C
1137.593	0.007	575926	COUNTDOWN_END	n/a	n/a	n/a	n/a	-999	9	[0, 0, 0]	n/a	catFR1	2	R1192C
1137.6	3.784	575929	ORIENT	n/a	n/a	n/a	n/a	-999	9	[0, 0, 0]	n/a	catFR1	2	R1192C
1141.384	2.451	577821	WORD	n/a	wordpools/wordpool_categorized_EN.txt	FOUNDATION	Building	1	9	[0, 0, 0]	n/a	catFR1	2	R1192C
1143.835	2.566	579047	WORD	n/a	wordpools/wordpool_categorized_EN.txt	BATHROOM	Building	2	9	[0, 0, 0]	n/a	catFR1	2	R1192C
1146.401	2.502	580330	WORD	n/a	wordpools/wordpool_categorized_EN.txt	TOE	BodyParts	3	9	[0, 0, 0]	n/a	catFR1	2	R1192C
1148.903	2.599	581580	WORD	n/a	wordpools/wordpool_categorized_EN.txt	EAR	BodyParts	4	9	[0, 0, 0]	n/a	catFR1	2	R1192C
1151.502	2.602	582880	WORD	n/a	wordpools/wordpool_categorized_EN.txt	COLA	Beverages	5	9	[0, 0, 0]	n/a	catFR1	2	R1192C
1154.104	2.383	584181	WORD	n/a	wordpools/wordpool_categorized_EN.txt	MILK	Beverages	6	9	[0, 0, 0]	n/a	catFR1	2	R1192C
1156.487	2.418	585372	WORD	n/a	wordpools/wordpool_categorized_EN.txt	ROOF	Building	7	9	[0, 0, 0]	n/a	catFR1	2	R1192C
1158.905	2.466	586581	WORD	n/a	wordpools/wordpool_categorized_EN.txt	WALL	Building	8	9	[0, 0, 0]	n/a	catFR1	2	R1192C
1161.371	2.585	587814	WORD	n/a	wordpools/wordpool_categorized_EN.txt	WATER	Beverages	9	9	[0, 0, 0]	n/a	catFR1	2	R1192C
1163.956	2.466	589106	WORD	n/a	wordpools/wordpool_categorized_EN.txt	TEA	Beverages	10	9	[0, 0, 0]	n/a	catFR1	2	R1192C
1166.422	2.401	590339	WORD	n/a	wordpools/wordpool_categorized_EN.txt	EYE	BodyParts	11	9	[0, 0, 0]	n/a	catFR1	2	R1192C
1168.823	1.616	591540	WORD	n/a	wordpools/wordpool_categorized_EN.txt	HEAD	BodyParts	12	9	[0, 0, 0]	n/a	catFR1	2	R1192C
1170.439	0.001	592348	DISTRACT_START	n/a	n/a	n/a	n/a	-999	9	[0, 0, 0]	n/a	catFR1	2	R1192C
1170.44	0.016	592348	START	n/a	n/a	n/a	n/a	-999	9	[-999, -999, -999]	n/a	catFR1	2	R1192C
1170.456	6.118	592356	PROB	6.097	n/a	n/a	n/a	-999	9	[6, 3, 1]	1.0	catFR1	2	R1192C
1176.574	9.968	595415	PROB	9.939	n/a	n/a	n/a	-999	9	[4, 8, 6]	18.0	catFR1	2	R1192C
1186.542	7.148	600398	PROB	7.148	n/a	n/a	n/a	-999	9	[3, 5, 1]	9.0	catFR1	2	R1192C
1193.69	0.004	603972	STOP	n/a	n/a	n/a	n/a	-999	9	[-999, -999, -999]	n/a	catFR1	2	R1192C
1193.694	1.135	603974	DISTRACT_END	n/a	n/a	n/a	n/a	-999	9	[0, 0, 0]	n/a	catFR1	2	R1192C
1194.829	3.332	604542	REC_START	n/a	n/a	n/a	n/a	-999	9	[0, 0, 0]	n/a	catFR1	2	R1192C
1198.161	1.0	606207	REC_WORD	3.332	n/a	FOUNDATION	Building	1	9	[0, 0, 0]	n/a	catFR1	2	R1192C
1199.161	0.595	606707	REC_WORD_VV	4.332	n/a	<>	n/a	-999	9	[0, 0, 0]	n/a	catFR1	2	R1192C
1199.756	2.063	607005	REC_WORD	4.927	n/a	ROOM	n/a	-999	9	[0, 0, 0]	n/a	catFR1	2	R1192C
1201.819	3.398	608036	REC_WORD	6.99	n/a	WATER	Beverages	9	9	[0, 0, 0]	n/a	catFR1	2	R1192C
1205.217	2.698	609735	REC_WORD	10.388	n/a	SODA	n/a	-999	9	[0, 0, 0]	n/a	catFR1	2	R1192C
1207.915	0.211	611084	REC_WORD_VV	13.086	n/a	<>	n/a	-999	9	[0, 0, 0]	n/a	catFR1	2	R1192C
1208.126	16.715	611190	REC_WORD	13.297	n/a	BEER	n/a	-999	9	[0, 0, 0]	n/a	catFR1	2	R1192C
1224.841	59.769	619546	REC_END	n/a	n/a	n/a	n/a	-999	9	[0, 0, 0]	n/a	catFR1	2	R1192C
1284.61	0.001	649429	COUNTDOWN_START	n/a	n/a	n/a	n/a	-999	10	[0, 0, 0]	n/a	catFR1	2	R1192C
1284.611	10.427	649429	TRIAL	n/a	n/a	n/a	n/a	-999	10	[0, 0, 0]	n/a	catFR1	2	R1192C
1295.038	0.009	654642	COUNTDOWN_END	n/a	n/a	n/a	n/a	-999	10	[0, 0, 0]	n/a	catFR1	2	R1192C
1295.047	3.7	654647	ORIENT	n/a	n/a	n/a	n/a	-999	10	[0, 0, 0]	n/a	catFR1	2	R1192C
1298.747	2.434	656497	WORD	n/a	wordpools/wordpool_categorized_EN.txt	SLINKY	Toys	1	10	[0, 0, 0]	n/a	catFR1	2	R1192C
1301.181	2.517	657713	WORD	n/a	wordpools/wordpool_categorized_EN.txt	MARBLES	Toys	2	10	[0, 0, 0]	n/a	catFR1	2	R1192C
1303.698	2.618	658972	WORD	n/a	wordpools/wordpool_categorized_EN.txt	BULL	FarmAnimals	3	10	[0, 0, 0]	n/a	catFR1	2	R1192C
1306.316	2.417	660281	WORD	n/a	wordpools/wordpool_categorized_EN.txt	SHEEP	FarmAnimals	4	10	[0, 0, 0]	n/a	catFR1	2	R1192C
1308.733	2.45	661489	WORD	n/a	wordpools/wordpool_categorized_EN.txt	SHORTS	Clothing	5	10	[0, 0, 0]	n/a	catFR1	2	R1192C
1311.183	2.584	662714	WORD	n/a	wordpools/wordpool_categorized_EN.txt	SKIRT	Clothing	6	10	[0, 0, 0]	n/a	catFR1	2	R1192C
1313.767	2.5	664006	WORD	n/a	wordpools/wordpool_categorized_EN.txt	PIG	FarmAnimals	7	10	[0, 0, 0]	n/a	catFR1	2	R1192C
1316.267	2.518	665256	WORD	n/a	wordpools/wordpool_categorized_EN.txt	HORSE	FarmAnimals	8	10	[0, 0, 0]	n/a	catFR1	2	R1192C
1318.785	2.567	666515	WORD	n/a	wordpools/wordpool_categorized_EN.txt	FOOTBALL	Toys	9	10	[0, 0, 0]	n/a	catFR1	2	R1192C
1321.352	2.434	667798	WORD	n/a	wordpools/wordpool_categorized_EN.txt	DOLLHOUSE	Toys	10	10	[0, 0, 0]	n/a	catFR1	2	R1192C
1323.786	2.517	669015	WORD	n/a	wordpools/wordpool_categorized_EN.txt	SHOES	Clothing	11	10	[0, 0, 0]	n/a	catFR1	2	R1192C
1326.303	1.617	670273	WORD	n/a	wordpools/wordpool_categorized_EN.txt	SHIRT	Clothing	12	10	[0, 0, 0]	n/a	catFR1	2	R1192C
1327.92	0.0	671082	DISTRACT_START	n/a	n/a	n/a	n/a	-999	10	[0, 0, 0]	n/a	catFR1	2	R1192C
1327.92	0.016	671082	START	n/a	n/a	n/a	n/a	-999	10	[-999, -999, -999]	n/a	catFR1	2	R1192C
1327.936	9.202	671090	PROB	9.178	n/a	n/a	n/a	-999	10	[4, 7, 9]	20.0	catFR1	2	R1192C
1337.138	14.952	675690	PROB	14.952	n/a	n/a	n/a	-999	10	[5, 1, 6]	12.0	catFR1	2	R1192C
1352.09	0.018	683166	STOP	n/a	n/a	n/a	n/a	-999	10	[-999, -999, -999]	n/a	catFR1	2	R1192C
1352.108	1.217	683175	DISTRACT_END	n/a	n/a	n/a	n/a	-999	10	[0, 0, 0]	n/a	catFR1	2	R1192C
1353.325	2.46	683783	REC_START	n/a	n/a	n/a	n/a	-999	10	[0, 0, 0]	n/a	catFR1	2	R1192C
1355.785	0.821	685013	REC_WORD	2.46	n/a	SHIRT	Clothing	12	10	[0, 0, 0]	n/a	catFR1	2	R1192C
1356.606	2.419	685424	REC_WORD	3.281	n/a	SHORTS	Clothing	5	10	[0, 0, 0]	n/a	catFR1	2	R1192C
1359.025	2.062	686633	REC_WORD	5.7	n/a	SLINKY	Toys	1	10	[0, 0, 0]	n/a	catFR1	2	R1192C
1361.087	2.216	687664	REC_WORD	7.762	n/a	PIG	FarmAnimals	7	10	[0, 0, 0]	n/a	catFR1	2	R1192C
1363.303	3.807	688772	REC_WORD	9.978	n/a	FOOTBALL	Toys	9	10	[0, 0, 0]	n/a	catFR1	2	R1192C
1367.11	0.185	690675	REC_WORD_VV	13.785	n/a	<>	n/a	-999	10	[0, 0, 0]	n/a	catFR1	2	R1192C
1367.295	16.041	690768	REC_WORD	13.97	n/a	DOLLHOUSE	Toys	10	10	[0, 0, 0]	n/a	catFR1	2	R1192C
1383.336	59.338	698788	REC_END	n/a	n/a	n/a	n/a	-999	10	[0, 0, 0]	n/a	catFR1	2	R1192C
1442.674	0.001	728454	COUNTDOWN_START	n/a	n/a	n/a	n/a	-999	11	[0, 0, 0]	n/a	catFR1	2	R1192C
1442.675	10.427	728455	TRIAL	n/a	n/a	n/a	n/a	-999	11	[0, 0, 0]	n/a	catFR1	2	R1192C
1453.102	0.008	733668	COUNTDOWN_END	n/a	n/a	n/a	n/a	-999	11	[0, 0, 0]	n/a	catFR1	2	R1192C
1453.11	3.767	733672	ORIENT	n/a	n/a	n/a	n/a	-999	11	[0, 0, 0]	n/a	catFR1	2	R1192C
1456.877	2.401	735555	WORD	n/a	wordpools/wordpool_categorized_EN.txt	HEN	FarmAnimals	1	11	[0, 0, 0]	n/a	catFR1	2	R1192C
1459.278	2.4	736756	WORD	n/a	wordpools/wordpool_categorized_EN.txt	CALF	FarmAnimals	2	11	[0, 0, 0]	n/a	catFR1	2	R1192C
1461.678	2.434	737956	WORD	n/a	wordpools/wordpool_categorized_EN.txt	FOG	Weather	3	11	[0, 0, 0]	n/a	catFR1	2	R1192C
1464.112	2.449	739172	WORD	n/a	wordpools/wordpool_categorized_EN.txt	LIGHTNING	Weather	4	11	[0, 0, 0]	n/a	catFR1	2	R1192C
1466.561	2.502	740397	WORD	n/a	wordpools/wordpool_categorized_EN.txt	PEACH	Fruit	5	11	[0, 0, 0]	n/a	catFR1	2	R1192C
1469.063	2.549	741648	WORD	n/a	wordpools/wordpool_categorized_EN.txt	PLUM	Fruit	6	11	[0, 0, 0]	n/a	catFR1	2	R1192C
1471.612	2.452	742922	WORD	n/a	wordpools/wordpool_categorized_EN.txt	GOAT	FarmAnimals	7	11	[0, 0, 0]	n/a	catFR1	2	R1192C
1474.064	2.466	744148	WORD	n/a	wordpools/wordpool_categorized_EN.txt	COW	FarmAnimals	8	11	[0, 0, 0]	n/a	catFR1	2	R1192C
1476.53	2.535	745381	WORD	n/a	wordpools/wordpool_categorized_EN.txt	ORANGE	Fruit	9	11	[0, 0, 0]	n/a	catFR1	2	R1192C
1479.065	2.567	746648	WORD	n/a	wordpools/wordpool_categorized_EN.txt	STRAWBERRY	Fruit	10	11	[0, 0, 0]	n/a	catFR1	2	R1192C
1481.632	2.55	747932	WORD	n/a	wordpools/wordpool_categorized_EN.txt	TORNADO	Weather	11	11	[0, 0, 0]	n/a	catFR1	2	R1192C
1484.182	1.617	749207	WORD	n/a	wordpools/wordpool_categorized_EN.txt	HUMIDITY	Weather	12	11	[0, 0, 0]	n/a	catFR1	2	R1192C
1485.799	0.001	750015	DISTRACT_START	n/a	n/a	n/a	n/a	-999	11	[0, 0, 0]	n/a	catFR1	2	R1192C
1485.8	0.016	750016	START	n/a	n/a	n/a	n/a	-999	11	[-999, -999, -999]	n/a	catFR1	2	R1192C
1485.816	6.468	750024	PROB	6.442	n/a	n/a	n/a	-999	11	[1, 1, 3]	5.0	catFR1	2	R1192C
1492.284	7.718	753257	PROB	7.695	n/a	n/a	n/a	-999	11	[9, 3, 7]	19.0	catFR1	2	R1192C
1500.002	5.55	757116	PROB	5.519	n/a	n/a	n/a	-999	11	[9, 1, 6]	16.0	catFR1	2	R1192C
1505.552	4.122	759891	PROB	4.122	n/a	n/a	n/a	-999	11	[5, 5, 2]	12.0	catFR1	2	R1192C
1509.674	0.013	761952	STOP	n/a	n/a	n/a	n/a	-999	11	[-999, -999, -999]	n/a	catFR1	2	R1192C
1509.687	1.201	761958	DISTRACT_END	n/a	n/a	n/a	n/a	-999	11	[0, 0, 0]	n/a	catFR1	2	R1192C
1510.888	3.24	762559	REC_START	n/a	n/a	n/a	n/a	-999	11	[0, 0, 0]	n/a	catFR1	2	R1192C
1514.128	0.507	764178	REC_WORD	3.24	n/a	HEN	FarmAnimals	1	11	[0, 0, 0]	n/a	catFR1	2	R1192C
1514.635	1.0	764432	REC_WORD	3.747	n/a	PLUM	Fruit	6	11	[0, 0, 0]	n/a	catFR1	2	R1192C
1515.635	0.624	764932	REC_WORD_VV	4.747	n/a	<>	n/a	-999	11	[0, 0, 0]	n/a	catFR1	2	R1192C
1516.259	4.87	765244	REC_WORD	5.371	n/a	PEACH	Fruit	5	11	[0, 0, 0]	n/a	catFR1	2	R1192C
1521.129	3.713	767679	REC_WORD	10.241	n/a	HUMIDITY	Weather	12	11	[0, 0, 0]	n/a	catFR1	2	R1192C
1524.842	2.379	769535	REC_WORD	13.954	n/a	LIGHTNING	Weather	4	11	[0, 0, 0]	n/a	catFR1	2	R1192C
1527.221	2.178	770724	REC_WORD	16.333	n/a	FOG	Weather	3	11	[0, 0, 0]	n/a	catFR1	2	R1192C
1529.399	11.5	771813	REC_WORD	18.511	n/a	TORNADO	Weather	11	11	[0, 0, 0]	n/a	catFR1	2	R1192C
1540.899	18.696	777563	REC_END	n/a	n/a	n/a	n/a	-999	11	[0, 0, 0]	n/a	catFR1	2	R1192C
1559.595	0.001	786910	COUNTDOWN_START	n/a	n/a	n/a	n/a	-999	12	[0, 0, 0]	n/a	catFR1	2	R1192C
1559.596	10.427	786911	TRIAL	n/a	n/a	n/a	n/a	-999	12	[0, 0, 0]	n/a	catFR1	2	R1192C
1570.023	0.009	792124	COUNTDOWN_END	n/a	n/a	n/a	n/a	-999	12	[0, 0, 0]	n/a	catFR1	2	R1192C
1570.032	3.533	792128	ORIENT	n/a	n/a	n/a	n/a	-999	12	[0, 0, 0]	n/a	catFR1	2	R1192C
1573.565	2.551	793895	WORD	n/a	wordpools/wordpool_categorized_EN.txt	PENCIL	OfficeSupplies	1	12	[0, 0, 0]	n/a	catFR1	2	R1192C
1576.116	2.433	795170	WORD	n/a	wordpools/wordpool_categorized_EN.txt	STAPLER	OfficeSupplies	2	12	[0, 0, 0]	n/a	catFR1	2	R1192C
1578.549	2.385	796386	WORD	n/a	wordpools/wordpool_categorized_EN.txt	SUNFLOWER	Flowers	3	12	[0, 0, 0]	n/a	catFR1	2	R1192C
1580.934	2.533	797579	WORD	n/a	wordpools/wordpool_categorized_EN.txt	TULIP	Flowers	4	12	[0, 0, 0]	n/a	catFR1	2	R1192C
1583.467	2.451	798845	WORD	n/a	wordpools/wordpool_categorized_EN.txt	CHERRY	Fruit	5	12	[0, 0, 0]	n/a	catFR1	2	R1192C
1585.918	2.45	800071	WORD	n/a	wordpools/wordpool_categorized_EN.txt	LIME	Fruit	6	12	[0, 0, 0]	n/a	catFR1	2	R1192C
1588.368	2.418	801296	WORD	n/a	wordpools/wordpool_categorized_EN.txt	ORCHID	Flowers	7	12	[0, 0, 0]	n/a	catFR1	2	R1192C
1590.786	2.616	802504	WORD	n/a	wordpools/wordpool_categorized_EN.txt	VIOLET	Flowers	8	12	[0, 0, 0]	n/a	catFR1	2	R1192C
1593.402	2.585	803812	WORD	n/a	wordpools/wordpool_categorized_EN.txt	MARKER	OfficeSupplies	9	12	[0, 0, 0]	n/a	catFR1	2	R1192C
1595.987	2.532	805105	WORD	n/a	wordpools/wordpool_categorized_EN.txt	PAPER	OfficeSupplies	10	12	[0, 0, 0]	n/a	catFR1	2	R1192C
1598.519	2.468	806371	WORD	n/a	wordpools/wordpool_categorized_EN.txt	LEMON	Fruit	11	12	[0, 0, 0]	n/a	catFR1	2	R1192C
1600.987	1.617	807605	WORD	n/a	wordpools/wordpool_categorized_EN.txt	BANANA	Fruit	12	12	[0, 0, 0]	n/a	catFR1	2	R1192C
1602.604	0.001	808413	DISTRACT_START	n/a	n/a	n/a	n/a	-999	12	[0, 0, 0]	n/a	catFR1	2	R1192C
1602.605	0.015	808413	START	n/a	n/a	n/a	n/a	-999	12	[-999, -999, -999]	n/a	catFR1	2	R1192C
1602.62	4.585	808421	PROB	4.558	n/a	n/a	n/a	-999	12	[3, 1, 1]	5.0	catFR1	2	R1192C
1607.205	7.501	810713	PROB	7.477	n/a	n/a	n/a	-999	12	[8, 4, 8]	20.0	catFR1	2	R1192C
1614.706	8.751	814464	PROB	8.751	n/a	n/a	n/a	-999	12	[8, 4, 4]	16.0	catFR1	2	R1192C
1623.457	0.017	818839	STOP	n/a	n/a	n/a	n/a	-999	12	[-999, -999, -999]	n/a	catFR1	2	R1192C
1623.474	1.058	818847	DISTRACT_END	n/a	n/a	n/a	n/a	-999	12	[0, 0, 0]	n/a	catFR1	2	R1192C
1624.532	2.384	819376	REC_START	n/a	n/a	n/a	n/a	-999	12	[0, 0, 0]	n/a	catFR1	2	R1192C
1626.916	0.338	820568	REC_WORD_VV	2.384	n/a	<>	n/a	-999	12	[0, 0, 0]	n/a	catFR1	2	R1192C
1627.254	2.777	820737	REC_WORD	2.722	n/a	BANANA	Fruit	12	12	[0, 0, 0]	n/a	catFR1	2	R1192C
1630.031	4.82	822125	REC_WORD	5.499	n/a	PAPER	OfficeSupplies	10	12	[0, 0, 0]	n/a	catFR1	2	R1192C
1634.851	0.292	824535	REC_WORD_VV	10.319	n/a	<>	n/a	-999	12	[0, 0, 0]	n/a	catFR1	2	R1192C
1635.143	0.875	824681	REC_WORD	10.611	n/a	LEMON	Fruit	11	12	[0, 0, 0]	n/a	catFR1	2	R1192C
1636.018	5.276	825119	REC_WORD	11.486	n/a	LIME	Fruit	6	12	[0, 0, 0]	n/a	catFR1	2	R1192C
1641.294	13.243	827756	REC_WORD	16.762	n/a	STAPLER	OfficeSupplies	2	12	[0, 0, 0]	n/a	catFR1	2	R1192C
1654.537	7.011	834377	REC_END	n/a	n/a	n/a	n/a	-999	12	[0, 0, 0]	n/a	catFR1	2	R1192C
1661.548	0.0	837883	COUNTDOWN_START	n/a	n/a	n/a	n/a	-999	13	[0, 0, 0]	n/a	catFR1	2	R1192C
1661.548	10.428	837883	TRIAL	n/a	n/a	n/a	n/a	-999	13	[0, 0, 0]	n/a	catFR1	2	R1192C
1671.976	0.008	843096	COUNTDOWN_END	n/a	n/a	n/a	n/a	-999	13	[0, 0, 0]	n/a	catFR1	2	R1192C
1671.984	3.651	843100	ORIENT	n/a	n/a	n/a	n/a	-999	13	[0, 0, 0]	n/a	catFR1	2	R1192C
1675.635	2.617	844926	WORD	n/a	wordpools/wordpool_categorized_EN.txt	BEACH	Landscapes	1	13	[0, 0, 0]	n/a	catFR1	2	R1192C
1678.252	2.4	846234	WORD	n/a	wordpools/wordpool_categorized_EN.txt	MOUNTAIN	Landscapes	2	13	[0, 0, 0]	n/a	catFR1	2	R1192C
1680.652	2.451	847434	WORD	n/a	wordpools/wordpool_categorized_EN.txt	GUITAR	Instruments	3	13	[0, 0, 0]	n/a	catFR1	2	R1192C
1683.103	2.6	848659	WORD	n/a	wordpools/wordpool_categorized_EN.txt	DRUM	Instruments	4	13	[0, 0, 0]	n/a	catFR1	2	R1192C
1685.703	2.467	849959	WORD	n/a	wordpools/wordpool_categorized_EN.txt	RECLINER	Furniture	5	13	[0, 0, 0]	n/a	catFR1	2	R1192C
1688.17	2.534	851193	WORD	n/a	wordpools/wordpool_categorized_EN.txt	DESK	Furniture	6	13	[0, 0, 0]	n/a	catFR1	2	R1192C
1690.704	2.451	852459	WORD	n/a	wordpools/wordpool_categorized_EN.txt	TROMBONE	Instruments	7	13	[0, 0, 0]	n/a	catFR1	2	R1192C
1693.155	2.484	853685	WORD	n/a	wordpools/wordpool_categorized_EN.txt	CELLO	Instruments	8	13	[0, 0, 0]	n/a	catFR1	2	R1192C
1695.639	2.567	854927	WORD	n/a	wordpools/wordpool_categorized_EN.txt	HILLS	Landscapes	9	13	[0, 0, 0]	n/a	catFR1	2	R1192C
1698.206	2.534	856210	WORD	n/a	wordpools/wordpool_categorized_EN.txt	RIVER	Landscapes	10	13	[0, 0, 0]	n/a	catFR1	2	R1192C
1700.74	2.483	857477	WORD	n/a	wordpools/wordpool_categorized_EN.txt	BOOKCASE	Furniture	11	13	[0, 0, 0]	n/a	catFR1	2	R1192C
1703.223	1.617	858719	WORD	n/a	wordpools/wordpool_categorized_EN.txt	BED	Furniture	12	13	[0, 0, 0]	n/a	catFR1	2	R1192C
1704.84	0.002	859527	DISTRACT_START	n/a	n/a	n/a	n/a	-999	13	[0, 0, 0]	n/a	catFR1	2	R1192C
1704.842	0.015	859528	START	n/a	n/a	n/a	n/a	-999	13	[-999, -999, -999]	n/a	catFR1	2	R1192C
1704.857	6.634	859535	PROB	6.6	n/a	n/a	n/a	-999	13	[7, 6, 4]	17.0	catFR1	2	R1192C
1711.491	7.185	862852	PROB	7.152	n/a	n/a	n/a	-999	13	[7, 4, 6]	17.0	catFR1	2	R1192C
1718.676	8.39	866444	PROB	8.39	n/a	n/a	n/a	-999	13	[5, 7, 2]	14.0	catFR1	2	R1192C
1727.066	0.012	870639	STOP	n/a	n/a	n/a	n/a	-999	13	[-999, -999, -999]	n/a	catFR1	2	R1192C
1727.078	1.134	870645	DISTRACT_END	n/a	n/a	n/a	n/a	-999	13	[0, 0, 0]	n/a	catFR1	2	R1192C
1728.212	0.981	871212	REC_START	n/a	n/a	n/a	n/a	-999	13	[0, 0, 0]	n/a	catFR1	2	R1192C
1729.193	1.0	871702	REC_WORD	0.981	n/a	DRUM	Instruments	4	13	[0, 0, 0]	n/a	catFR1	2	R1192C
1730.193	0.606	872202	REC_WORD_VV	1.981	n/a	<>	n/a	-999	13	[0, 0, 0]	n/a	catFR1	2	R1192C
1730.799	0.643	872505	REC_WORD	2.587	n/a	GUITAR	Instruments	3	13	[0, 0, 0]	n/a	catFR1	2	R1192C
1731.442	2.868	872827	REC_WORD	3.23	n/a	CELLO	Instruments	8	13	[0, 0, 0]	n/a	catFR1	2	R1192C
1734.31	2.688	874261	REC_WORD	6.098	n/a	MOUNTAIN	Landscapes	2	13	[0, 0, 0]	n/a	catFR1	2	R1192C
1736.998	21.225	875605	REC_WORD	8.786	n/a	BEACH	Landscapes	1	13	[0, 0, 0]	n/a	catFR1	2	R1192C
1758.223	7.579	886216	REC_END	n/a	n/a	n/a	n/a	-999	13	[0, 0, 0]	n/a	catFR1	2	R1192C
1765.802	0.0	890006	TRIAL	n/a	n/a	n/a	n/a	-999	14	[0, 0, 0]	n/a	catFR1	2	R1192C
1765.802	10.428	890006	COUNTDOWN_START	n/a	n/a	n/a	n/a	-999	14	[0, 0, 0]	n/a	catFR1	2	R1192C
1776.23	0.007	895219	COUNTDOWN_END	n/a	n/a	n/a	n/a	-999	14	[0, 0, 0]	n/a	catFR1	2	R1192C
1776.237	3.95	895223	ORIENT	n/a	n/a	n/a	n/a	-999	14	[0, 0, 0]	n/a	catFR1	2	R1192C
1780.187	2.635	897197	WORD	n/a	wordpools/wordpool_categorized_EN.txt	ROACH	Insects	1	14	[0, 0, 0]	n/a	catFR1	2	R1192C
1782.822	2.433	898515	WORD	n/a	wordpools/wordpool_categorized_EN.txt	FLY	Insects	2	14	[0, 0, 0]	n/a	catFR1	2	R1192C
1785.255	2.517	899731	WORD	n/a	wordpools/wordpool_categorized_EN.txt	OYSTER	OceanAnimals	3	14	[0, 0, 0]	n/a	catFR1	2	R1192C
1787.772	2.434	900990	WORD	n/a	wordpools/wordpool_categorized_EN.txt	OCTOPUS	OceanAnimals	4	14	[0, 0, 0]	n/a	catFR1	2	R1192C
1790.206	2.551	902207	WORD	n/a	wordpools/wordpool_categorized_EN.txt	VIOLIN	Instruments	5	14	[0, 0, 0]	n/a	catFR1	2	R1192C
1792.757	2.433	903482	WORD	n/a	wordpools/wordpool_categorized_EN.txt	PIANO	Instruments	6	14	[0, 0, 0]	n/a	catFR1	2	R1192C
1795.19	2.534	904698	WORD	n/a	wordpools/wordpool_categorized_EN.txt	SHRIMP	OceanAnimals	7	14	[0, 0, 0]	n/a	catFR1	2	R1192C
1797.724	2.467	905965	WORD	n/a	wordpools/wordpool_categorized_EN.txt	WHALE	OceanAnimals	8	14	[0, 0, 0]	n/a	catFR1	2	R1192C
1800.191	2.534	907199	WORD	n/a	wordpools/wordpool_categorized_EN.txt	GNAT	Insects	9	14	[0, 0, 0]	n/a	catFR1	2	R1192C
1802.725	2.467	908466	WORD	n/a	wordpools/wordpool_categorized_EN.txt	SPIDER	Insects	10	14	[0, 0, 0]	n/a	catFR1	2	R1192C
1805.192	2.534	909699	WORD	n/a	wordpools/wordpool_categorized_EN.txt	BASS	Instruments	11	14	[0, 0, 0]	n/a	catFR1	2	R1192C
1807.726	1.617	910966	WORD	n/a	wordpools/wordpool_categorized_EN.txt	ORGAN	Instruments	12	14	[0, 0, 0]	n/a	catFR1	2	R1192C
1809.343	0.001	911774	DISTRACT_START	n/a	n/a	n/a	n/a	-999	14	[0, 0, 0]	n/a	catFR1	2	R1192C
1809.344	0.016	911775	START	n/a	n/a	n/a	n/a	-999	14	[-999, -999, -999]	n/a	catFR1	2	R1192C
1809.36	12.936	911783	PROB	12.914	n/a	n/a	n/a	-999	14	[3, 1, 7]	11.0	catFR1	2	R1192C
1822.296	6.183	918250	PROB	6.153	n/a	n/a	n/a	-999	14	[1, 1, 6]	8.0	catFR1	2	R1192C
1828.479	15.954	921342	PROB	15.954	n/a	n/a	n/a	-999	14	[8, 3, 3]	14.0	catFR1	2	R1192C
1844.433	0.016	929318	STOP	n/a	n/a	n/a	n/a	-999	14	[-999, -999, -999]	n/a	catFR1	2	R1192C
1844.449	1.117	929326	DISTRACT_END	n/a	n/a	n/a	n/a	-999	14	[0, 0, 0]	n/a	catFR1	2	R1192C
1845.566	1.665	929884	REC_START	n/a	n/a	n/a	n/a	-999	14	[0, 0, 0]	n/a	catFR1	2	R1192C
1847.231	0.743	930717	REC_WORD	1.665	n/a	ROACH	Insects	1	14	[0, 0, 0]	n/a	catFR1	2	R1192C
1847.974	0.895	931088	REC_WORD	2.408	n/a	SPIDER	Insects	10	14	[0, 0, 0]	n/a	catFR1	2	R1192C
1848.869	1.723	931536	REC_WORD	3.303	n/a	GNAT	Insects	9	14	[0, 0, 0]	n/a	catFR1	2	R1192C
1850.592	0.874	932397	REC_WORD	5.026	n/a	SHRIMP	OceanAnimals	7	14	[0, 0, 0]	n/a	catFR1	2	R1192C
1851.466	1.0	932834	REC_WORD	5.9	n/a	OCTOPUS	OceanAnimals	4	14	[0, 0, 0]	n/a	catFR1	2	R1192C
1852.466	2.336	933334	REC_WORD_VV	6.9	n/a	<>	n/a	-999	14	[0, 0, 0]	n/a	catFR1	2	R1192C
1854.802	3.347	934502	REC_WORD	9.236	n/a	ORGAN	Instruments	12	14	[0, 0, 0]	n/a	catFR1	2	R1192C
1858.149	17.432	936175	REC_WORD	12.583	n/a	WHALE	OceanAnimals	8	14	[0, 0, 0]	n/a	catFR1	2	R1192C
1875.581	14.026	944891	REC_END	n/a	n/a	n/a	n/a	-999	14	[0, 0, 0]	n/a	catFR1	2	R1192C
1889.607	0.001	951903	COUNTDOWN_START	n/a	n/a	n/a	n/a	-999	15	[0, 0, 0]	n/a	catFR1	2	R1192C
1889.608	10.427	951904	TRIAL	n/a	n/a	n/a	n/a	-999	15	[0, 0, 0]	n/a	catFR1	2	R1192C
1900.035	0.009	957117	COUNTDOWN_END	n/a	n/a	n/a	n/a	-999	15	[0, 0, 0]	n/a	catFR1	2	R1192C
1900.044	3.967	957121	ORIENT	n/a	n/a	n/a	n/a	-999	15	[0, 0, 0]	n/a	catFR1	2	R1192C
1904.011	2.383	959105	WORD	n/a	wordpools/wordpool_categorized_EN.txt	BROWNIES	Desserts	1	15	[0, 0, 0]	n/a	catFR1	2	R1192C
1906.394	2.451	960296	WORD	n/a	wordpools/wordpool_categorized_EN.txt	MOUSSE	Desserts	2	15	[0, 0, 0]	n/a	catFR1	2	R1192C
1908.845	2.566	961521	WORD	n/a	wordpools/wordpool_categorized_EN.txt	STAIRS	Building	3	15	[0, 0, 0]	n/a	catFR1	2	R1192C
1911.411	2.602	962804	WORD	n/a	wordpools/wordpool_categorized_EN.txt	ATTIC	Building	4	15	[0, 0, 0]	n/a	catFR1	2	R1192C
1914.013	2.566	964105	WORD	n/a	wordpools/wordpool_categorized_EN.txt	LEVEL	Tools	5	15	[0, 0, 0]	n/a	catFR1	2	R1192C
1916.579	2.385	965388	WORD	n/a	wordpools/wordpool_categorized_EN.txt	AXE	Tools	6	15	[0, 0, 0]	n/a	catFR1	2	R1192C
1918.964	2.466	966580	WORD	n/a	wordpools/wordpool_categorized_EN.txt	CEILING	Building	7	15	[0, 0, 0]	n/a	catFR1	2	R1192C
1921.43	2.618	967813	WORD	n/a	wordpools/wordpool_categorized_EN.txt	FLOOR	Building	8	15	[0, 0, 0]	n/a	catFR1	2	R1192C
1924.048	2.399	969122	WORD	n/a	wordpools/wordpool_categorized_EN.txt	PUDDING	Desserts	9	15	[0, 0, 0]	n/a	catFR1	2	R1192C
1926.447	2.569	970322	WORD	n/a	wordpools/wordpool_categorized_EN.txt	JELLO	Desserts	10	15	[0, 0, 0]	n/a	catFR1	2	R1192C
1929.016	2.617	971606	WORD	n/a	wordpools/wordpool_categorized_EN.txt	HAMMER	Tools	11	15	[0, 0, 0]	n/a	catFR1	2	R1192C
1931.633	1.617	972914	WORD	n/a	wordpools/wordpool_categorized_EN.txt	DRILL	Tools	12	15	[0, 0, 0]	n/a	catFR1	2	R1192C
1933.25	0.001	973723	DISTRACT_START	n/a	n/a	n/a	n/a	-999	15	[0, 0, 0]	n/a	catFR1	2	R1192C
1933.251	0.015	973723	START	n/a	n/a	n/a	n/a	-999	15	[-999, -999, -999]	n/a	catFR1	2	R1192C
1933.266	7.002	973731	PROB	6.976	n/a	n/a	n/a	-999	15	[4, 2, 8]	14.0	catFR1	2	R1192C
1940.268	25.726	977232	PROB	25.726	n/a	n/a	n/a	-999	15	[1, 8, 5]	14.0	catFR1	2	R1192C
1965.994	0.012	990094	STOP	n/a	n/a	n/a	n/a	-999	15	[-999, -999, -999]	n/a	catFR1	2	R1192C
1966.006	1.101	990100	DISTRACT_END	n/a	n/a	n/a	n/a	-999	15	[0, 0, 0]	n/a	catFR1	2	R1192C
1967.107	1.295	990650	REC_START	n/a	n/a	n/a	n/a	-999	15	[0, 0, 0]	n/a	catFR1	2	R1192C
1968.402	1.0	991298	REC_WORD	1.295	n/a	BROWNIES	Desserts	1	15	[0, 0, 0]	n/a	catFR1	2	R1192C
1969.402	0.854	991797	REC_WORD_VV	2.295	n/a	<>	n/a	-999	15	[0, 0, 0]	n/a	catFR1	2	R1192C
1970.256	1.0	992224	REC_WORD	3.149	n/a	AXE	Tools	6	15	[0, 0, 0]	n/a	catFR1	2	R1192C
1971.256	6.323	992724	REC_WORD_VV	4.149	n/a	<>	n/a	-999	15	[0, 0, 0]	n/a	catFR1	2	R1192C
1977.579	1.125	995886	REC_WORD	10.472	n/a	PUDDING	Desserts	9	15	[0, 0, 0]	n/a	catFR1	2	R1192C
1978.704	6.379	996448	REC_WORD	11.597	n/a	JELLO	Desserts	10	15	[0, 0, 0]	n/a	catFR1	2	R1192C
1985.083	12.036	999637	REC_WORD	17.976	n/a	FLOOR	Building	8	15	[0, 0, 0]	n/a	catFR1	2	R1192C
1997.119	8.711	1005655	REC_END	n/a	n/a	n/a	n/a	-999	15	[0, 0, 0]	n/a	catFR1	2	R1192C
2005.83	0.0	1010010	TRIAL	n/a	n/a	n/a	n/a	-999	16	[0, 0, 0]	n/a	catFR1	2	R1192C
2005.83	10.428	1010010	COUNTDOWN_START	n/a	n/a	n/a	n/a	-999	16	[0, 0, 0]	n/a	catFR1	2	R1192C
2016.258	0.007	1015224	COUNTDOWN_END	n/a	n/a	n/a	n/a	-999	16	[0, 0, 0]	n/a	catFR1	2	R1192C
2016.265	3.651	1015227	ORIENT	n/a	n/a	n/a	n/a	-999	16	[0, 0, 0]	n/a	catFR1	2	R1192C
2019.916	2.4	1017052	WORD	n/a	wordpools/wordpool_categorized_EN.txt	THUNDER	Weather	1	16	[0, 0, 0]	n/a	catFR1	2	R1192C
2022.316	2.384	1018252	WORD	n/a	wordpools/wordpool_categorized_EN.txt	THUNDERSTORM	Weather	2	16	[0, 0, 0]	n/a	catFR1	2	R1192C
2024.7	2.451	1019444	WORD	n/a	wordpools/wordpool_categorized_EN.txt	CREEK	Landscapes	3	16	[0, 0, 0]	n/a	catFR1	2	R1192C
2027.151	2.617	1020670	WORD	n/a	wordpools/wordpool_categorized_EN.txt	ISLAND	Landscapes	4	16	[0, 0, 0]	n/a	catFR1	2	R1192C
2029.768	2.467	1021978	WORD	n/a	wordpools/wordpool_categorized_EN.txt	LOBSTER	OceanAnimals	5	16	[0, 0, 0]	n/a	catFR1	2	R1192C
2032.235	2.4	1023211	WORD	n/a	wordpools/wordpool_categorized_EN.txt	CRAB	OceanAnimals	6	16	[0, 0, 0]	n/a	catFR1	2	R1192C
2034.635	2.551	1024411	WORD	n/a	wordpools/wordpool_categorized_EN.txt	FOREST	Landscapes	7	16	[0, 0, 0]	n/a	catFR1	2	R1192C
2037.186	2.484	1025687	WORD	n/a	wordpools/wordpool_categorized_EN.txt	STREAM	Landscapes	8	16	[0, 0, 0]	n/a	catFR1	2	R1192C
2039.67	2.467	1026929	WORD	n/a	wordpools/wordpool_categorized_EN.txt	RAIN	Weather	9	16	[0, 0, 0]	n/a	catFR1	2	R1192C
2042.137	2.5	1028162	WORD	n/a	wordpools/wordpool_categorized_EN.txt	CLOUD	Weather	10	16	[0, 0, 0]	n/a	catFR1	2	R1192C
2044.637	2.518	1029412	WORD	n/a	wordpools/wordpool_categorized_EN.txt	DOLPHIN	OceanAnimals	11	16	[0, 0, 0]	n/a	catFR1	2	R1192C
2047.155	1.616	1030671	WORD	n/a	wordpools/wordpool_categorized_EN.txt	SQUID	OceanAnimals	12	16	[0, 0, 0]	n/a	catFR1	2	R1192C
2048.771	0.001	1031479	DISTRACT_START	n/a	n/a	n/a	n/a	-999	16	[0, 0, 0]	n/a	catFR1	2	R1192C
2048.772	0.016	1031479	START	n/a	n/a	n/a	n/a	-999	16	[-999, -999, -999]	n/a	catFR1	2	R1192C
2048.788	4.351	1031487	PROB	4.326	n/a	n/a	n/a	-999	16	[1, 1, 5]	7.0	catFR1	2	R1192C
2053.139	4.734	1033663	PROB	4.711	n/a	n/a	n/a	-999	16	[2, 4, 6]	12.0	catFR1	2	R1192C
2057.873	8.567	1036029	PROB	8.537	n/a	n/a	n/a	-999	16	[4, 7, 1]	12.0	catFR1	2	R1192C
2066.44	6.802	1040313	PROB	6.802	n/a	n/a	n/a	-999	16	[2, 4, 1]	7.0	catFR1	2	R1192C
2073.242	0.017	1043713	STOP	n/a	n/a	n/a	n/a	-999	16	[-999, -999, -999]	n/a	catFR1	2	R1192C
2073.259	1.134	1043722	DISTRACT_END	n/a	n/a	n/a	n/a	-999	16	[0, 0, 0]	n/a	catFR1	2	R1192C
2074.393	2.929	1044289	REC_START	n/a	n/a	n/a	n/a	-999	16	[0, 0, 0]	n/a	catFR1	2	R1192C
2077.322	0.838	1045753	REC_WORD	2.929	n/a	CLOUD	Weather	10	16	[0, 0, 0]	n/a	catFR1	2	R1192C
2078.16	1.0	1046172	REC_WORD	3.767	n/a	RAIN	Weather	9	16	[0, 0, 0]	n/a	catFR1	2	R1192C
2079.16	1.227	1046672	REC_WORD_VV	4.767	n/a	<>	n/a	-999	16	[0, 0, 0]	n/a	catFR1	2	R1192C
2080.387	1.245	1047286	REC_WORD	5.994	n/a	THUNDER	Weather	1	16	[0, 0, 0]	n/a	catFR1	2	R1192C
2081.632	1.391	1047908	REC_WORD	7.239	n/a	THUNDERSTORM	Weather	2	16	[0, 0, 0]	n/a	catFR1	2	R1192C
2083.023	11.279	1048603	REC_WORD	8.63	n/a	LIGHTNING	n/a	-999	16	[0, 0, 0]	n/a	catFR1	2	R1192C
2094.302	1.0	1054243	REC_WORD	19.909	n/a	OCTOPUS	n/a	-999	16	[0, 0, 0]	n/a	catFR1	2	R1192C
2095.302	2.554	1054742	REC_WORD_VV	20.909	n/a	<>	n/a	-999	16	[0, 0, 0]	n/a	catFR1	2	R1192C
2097.856	4.534	1056019	REC_WORD	23.463	n/a	LOBSTER	OceanAnimals	5	16	[0, 0, 0]	n/a	catFR1	2	R1192C
2102.39	2.014	1058286	REC_WORD	27.997	n/a	CRAB	OceanAnimals	6	16	[0, 0, 0]	n/a	catFR1	2	R1192C
2104.404	10.447	1059293	REC_END	n/a	n/a	n/a	n/a	-999	16	[0, 0, 0]	n/a	catFR1	2	R1192C
2114.851	0.0	1064516	TRIAL	n/a	n/a	n/a	n/a	-999	17	[0, 0, 0]	n/a	catFR1	2	R1192C
2114.851	10.428	1064516	COUNTDOWN_START	n/a	n/a	n/a	n/a	-999	17	[0, 0, 0]	n/a	catFR1	2	R1192C
2125.279	0.007	1069730	COUNTDOWN_END	n/a	n/a	n/a	n/a	-999	17	[0, 0, 0]	n/a	catFR1	2	R1192C
2125.286	3.751	1069733	ORIENT	n/a	n/a	n/a	n/a	-999	17	[0, 0, 0]	n/a	catFR1	2	R1192C
2129.037	2.432	1071609	WORD	n/a	wordpools/wordpool_categorized_EN.txt	PEN	OfficeSupplies	1	17	[0, 0, 0]	n/a	catFR1	2	R1192C
2131.469	2.485	1072825	WORD	n/a	wordpools/wordpool_categorized_EN.txt	TAPE	OfficeSupplies	2	17	[0, 0, 0]	n/a	catFR1	2	R1192C
2133.954	2.384	1074067	WORD	n/a	wordpools/wordpool_categorized_EN.txt	BUTTERFLY	Insects	3	17	[0, 0, 0]	n/a	catFR1	2	R1192C
2136.338	2.5	1075259	WORD	n/a	wordpools/wordpool_categorized_EN.txt	BEE	Insects	4	17	[0, 0, 0]	n/a	catFR1	2	R1192C
2138.838	2.55	1076509	WORD	n/a	wordpools/wordpool_categorized_EN.txt	FOOT	BodyParts	5	17	[0, 0, 0]	n/a	catFR1	2	R1192C
2141.388	2.535	1077784	WORD	n/a	wordpools/wordpool_categorized_EN.txt	NOSE	BodyParts	6	17	[0, 0, 0]	n/a	catFR1	2	R1192C
2143.923	2.449	1079051	WORD	n/a	wordpools/wordpool_categorized_EN.txt	GLUE	OfficeSupplies	7	17	[0, 0, 0]	n/a	catFR1	2	R1192C
2146.372	2.568	1080275	WORD	n/a	wordpools/wordpool_categorized_EN.txt	NOTEBOOK	OfficeSupplies	8	17	[0, 0, 0]	n/a	catFR1	2	R1192C
2148.94	2.433	1081559	WORD	n/a	wordpools/wordpool_categorized_EN.txt	FINGERS	BodyParts	9	17	[0, 0, 0]	n/a	catFR1	2	R1192C
2151.373	2.535	1082776	WORD	n/a	wordpools/wordpool_categorized_EN.txt	ELBOW	BodyParts	10	17	[0, 0, 0]	n/a	catFR1	2	R1192C
2153.908	2.466	1084043	WORD	n/a	wordpools/wordpool_categorized_EN.txt	MOTH	Insects	11	17	[0, 0, 0]	n/a	catFR1	2	R1192C
2156.374	1.618	1085276	WORD	n/a	wordpools/wordpool_categorized_EN.txt	CRICKET	Insects	12	17	[0, 0, 0]	n/a	catFR1	2	R1192C
2157.992	0.001	1086085	DISTRACT_START	n/a	n/a	n/a	n/a	-999	17	[0, 0, 0]	n/a	catFR1	2	R1192C
2157.993	0.016	1086086	START	n/a	n/a	n/a	n/a	-999	17	[-999, -999, -999]	n/a	catFR1	2	R1192C
2158.009	8.367	1086094	PROB	8.345	n/a	n/a	n/a	-999	17	[4, 6, 2]	12.0	catFR1	2	R1192C
2166.376	24.137	1090277	PROB	24.137	n/a	n/a	n/a	-999	17	[6, 5, 2]	13.0	catFR1	2	R1192C
2190.513	0.017	1102344	STOP	n/a	n/a	n/a	n/a	-999	17	[-999, -999, -999]	n/a	catFR1	2	R1192C
2190.53	1.051	1102353	DISTRACT_END	n/a	n/a	n/a	n/a	-999	17	[0, 0, 0]	n/a	catFR1	2	R1192C
2191.581	1.703	1102878	REC_START	n/a	n/a	n/a	n/a	-999	17	[0, 0, 0]	n/a	catFR1	2	R1192C
2193.284	0.986	1103730	REC_WORD	1.703	n/a	FOOT	BodyParts	5	17	[0, 0, 0]	n/a	catFR1	2	R1192C
2194.27	2.289	1104223	REC_WORD	2.689	n/a	NOSE	BodyParts	6	17	[0, 0, 0]	n/a	catFR1	2	R1192C
2196.559	6.542	1105367	REC_WORD	4.978	n/a	KNEE	n/a	-999	17	[0, 0, 0]	n/a	catFR1	2	R1192C
2203.101	1.153	1108638	REC_WORD	11.52	n/a	PEN	OfficeSupplies	1	17	[0, 0, 0]	n/a	catFR1	2	R1192C
2204.254	1.136	1109214	REC_WORD	12.673	n/a	PAPER	n/a	-999	17	[0, 0, 0]	n/a	catFR1	2	R1192C
2205.39	0.184	1109782	REC_WORD_VV	13.809	n/a	<>	n/a	-999	17	[0, 0, 0]	n/a	catFR1	2	R1192C
2205.574	16.023	1109874	REC_WORD	13.993	n/a	GLUE	OfficeSupplies	7	17	[0, 0, 0]	n/a	catFR1	2	R1192C
2221.597	27.995	1117885	REC_END	n/a	n/a	n/a	n/a	-999	17	[0, 0, 0]	n/a	catFR1	2	R1192C
2249.592	0.0	1131881	TRIAL	n/a	n/a	n/a	n/a	-999	18	[0, 0, 0]	n/a	catFR1	2	R1192C
2249.592	10.428	1131881	COUNTDOWN_START	n/a	n/a	n/a	n/a	-999	18	[0, 0, 0]	n/a	catFR1	2	R1192C
2260.02	0.008	1137095	COUNTDOWN_END	n/a	n/a	n/a	n/a	-999	18	[0, 0, 0]	n/a	catFR1	2	R1192C
2260.028	3.583	1137099	ORIENT	n/a	n/a	n/a	n/a	-999	18	[0, 0, 0]	n/a	catFR1	2	R1192C
2263.611	2.551	1138890	WORD	n/a	wordpools/wordpool_categorized_EN.txt	JEEP	Vehicles	1	18	[0, 0, 0]	n/a	catFR1	2	R1192C
2266.162	2.484	1140166	WORD	n/a	wordpools/wordpool_categorized_EN.txt	MOPED	Vehicles	2	18	[0, 0, 0]	n/a	catFR1	2	R1192C
2268.646	2.567	1141408	WORD	n/a	wordpools/wordpool_categorized_EN.txt	GRAPE	Fruit	3	18	[0, 0, 0]	n/a	catFR1	2	R1192C
2271.213	2.584	1142691	WORD	n/a	wordpools/wordpool_categorized_EN.txt	BLUEBERRY	Fruit	4	18	[0, 0, 0]	n/a	catFR1	2	R1192C
2273.797	2.384	1143983	WORD	n/a	wordpools/wordpool_categorized_EN.txt	SPEAKER	Electronics	5	18	[0, 0, 0]	n/a	catFR1	2	R1192C
2276.181	2.6	1145175	WORD	n/a	wordpools/wordpool_categorized_EN.txt	STEREO	Electronics	6	18	[0, 0, 0]	n/a	catFR1	2	R1192C
2278.781	2.45	1146475	WORD	n/a	wordpools/wordpool_categorized_EN.txt	APPLE	Fruit	7	18	[0, 0, 0]	n/a	catFR1	2	R1192C
2281.231	2.401	1147700	WORD	n/a	wordpools/wordpool_categorized_EN.txt	PEAR	Fruit	8	18	[0, 0, 0]	n/a	catFR1	2	R1192C
2283.632	2.434	1148900	WORD	n/a	wordpools/wordpool_categorized_EN.txt	TRUCK	Vehicles	9	18	[0, 0, 0]	n/a	catFR1	2	R1192C
2286.066	2.466	1150117	WORD	n/a	wordpools/wordpool_categorized_EN.txt	TRAIN	Vehicles	10	18	[0, 0, 0]	n/a	catFR1	2	R1192C
2288.532	2.552	1151350	WORD	n/a	wordpools/wordpool_categorized_EN.txt	PHONE	Electronics	11	18	[0, 0, 0]	n/a	catFR1	2	R1192C
2291.084	1.617	1152626	WORD	n/a	wordpools/wordpool_categorized_EN.txt	MICROWAVE	Electronics	12	18	[0, 0, 0]	n/a	catFR1	2	R1192C
2292.701	0.001	1153434	DISTRACT_START	n/a	n/a	n/a	n/a	-999	18	[0, 0, 0]	n/a	catFR1	2	R1192C
2292.702	0.015	1153435	START	n/a	n/a	n/a	n/a	-999	18	[-999, -999, -999]	n/a	catFR1	2	R1192C
2292.717	16.786	1153442	PROB	16.756	n/a	n/a	n/a	-999	18	[2, 4, 9]	15.0	catFR1	2	R1192C
2309.503	11.89	1161835	PROB	11.89	n/a	n/a	n/a	-999	18	[9, 4, 2]	15.0	catFR1	2	R1192C
2321.393	0.012	1167779	STOP	n/a	n/a	n/a	n/a	-999	18	[-999, -999, -999]	n/a	catFR1	2	R1192C
2321.405	1.138	1167785	DISTRACT_END	n/a	n/a	n/a	n/a	-999	18	[0, 0, 0]	n/a	catFR1	2	R1192C
2322.543	4.76	1168354	REC_START	n/a	n/a	n/a	n/a	-999	18	[0, 0, 0]	n/a	catFR1	2	R1192C
2327.303	0.514	1170734	REC_WORD_VV	4.76	n/a	<>	n/a	-999	18	[0, 0, 0]	n/a	catFR1	2	R1192C
2327.817	3.668	1170991	REC_WORD	5.274	n/a	JEEP	Vehicles	1	18	[0, 0, 0]	n/a	catFR1	2	R1192C
2331.485	21.066	1172825	REC_WORD	8.942	n/a	TRUCK	Vehicles	9	18	[0, 0, 0]	n/a	catFR1	2	R1192C
2352.551	19.781	1183357	REC_END	n/a	n/a	n/a	n/a	-999	18	[0, 0, 0]	n/a	catFR1	2	R1192C
2372.332	0.0	1193247	COUNTDOWN_START	n/a	n/a	n/a	n/a	-999	19	[0, 0, 0]	n/a	catFR1	2	R1192C
2372.332	10.428	1193247	TRIAL	n/a	n/a	n/a	n/a	-999	19	[0, 0, 0]	n/a	catFR1	2	R1192C
2382.76	0.007	1198460	COUNTDOWN_END	n/a	n/a	n/a	n/a	-999	19	[0, 0, 0]	n/a	catFR1	2	R1192C
2382.767	3.434	1198464	ORIENT	n/a	n/a	n/a	n/a	-999	19	[0, 0, 0]	n/a	catFR1	2	R1192C
2386.201	2.434	1200180	WORD	n/a	wordpools/wordpool_categorized_EN.txt	FISH	OceanAnimals	1	19	[0, 0, 0]	n/a	catFR1	2	R1192C
2388.635	2.567	1201397	WORD	n/a	wordpools/wordpool_categorized_EN.txt	TURTLE	OceanAnimals	2	19	[0, 0, 0]	n/a	catFR1	2	R1192C
2391.202	2.601	1202681	WORD	n/a	wordpools/wordpool_categorized_EN.txt	WINE	Beverages	3	19	[0, 0, 0]	n/a	catFR1	2	R1192C
2393.803	2.384	1203981	WORD	n/a	wordpools/wordpool_categorized_EN.txt	RUM	Beverages	4	19	[0, 0, 0]	n/a	catFR1	2	R1192C
2396.187	2.6	1205173	WORD	n/a	wordpools/wordpool_categorized_EN.txt	FUDGE	Desserts	5	19	[0, 0, 0]	n/a	catFR1	2	R1192C
2398.787	2.583	1206473	WORD	n/a	wordpools/wordpool_categorized_EN.txt	CHEESECAKE	Desserts	6	19	[0, 0, 0]	n/a	catFR1	2	R1192C
2401.37	2.385	1207764	WORD	n/a	wordpools/wordpool_categorized_EN.txt	JUICE	Beverages	7	19	[0, 0, 0]	n/a	catFR1	2	R1192C
2403.755	2.534	1208957	WORD	n/a	wordpools/wordpool_categorized_EN.txt	CIDER	Beverages	8	19	[0, 0, 0]	n/a	catFR1	2	R1192C
2406.289	2.617	1210224	WORD	n/a	wordpools/wordpool_categorized_EN.txt	JELLYFISH	OceanAnimals	9	19	[0, 0, 0]	n/a	catFR1	2	R1192C
2408.906	2.616	1211532	WORD	n/a	wordpools/wordpool_categorized_EN.txt	PLANKTON	OceanAnimals	10	19	[0, 0, 0]	n/a	catFR1	2	R1192C
2411.522	2.618	1212840	WORD	n/a	wordpools/wordpool_categorized_EN.txt	COBBLER	Desserts	11	19	[0, 0, 0]	n/a	catFR1	2	R1192C
2414.14	1.617	1214149	WORD	n/a	wordpools/wordpool_categorized_EN.txt	PIE	Desserts	12	19	[0, 0, 0]	n/a	catFR1	2	R1192C
2415.757	0.001	1214957	DISTRACT_START	n/a	n/a	n/a	n/a	-999	19	[0, 0, 0]	n/a	catFR1	2	R1192C
2415.758	0.016	1214958	START	n/a	n/a	n/a	n/a	-999	19	[-999, -999, -999]	n/a	catFR1	2	R1192C
2415.774	6.001	1214966	PROB	5.972	n/a	n/a	n/a	-999	19	[8, 5, 5]	18.0	catFR1	2	R1192C
2421.775	7.7	1217966	PROB	7.666	n/a	n/a	n/a	-999	19	[1, 9, 8]	18.0	catFR1	2	R1192C
2429.475	10.383	1221816	PROB	10.383	n/a	n/a	n/a	-999	19	[3, 9, 5]	17.0	catFR1	2	R1192C
2439.858	0.02	1227007	STOP	n/a	n/a	n/a	n/a	-999	19	[-999, -999, -999]	n/a	catFR1	2	R1192C
2439.878	1.017	1227017	DISTRACT_END	n/a	n/a	n/a	n/a	-999	19	[0, 0, 0]	n/a	catFR1	2	R1192C
2440.895	1.402	1227525	REC_START	n/a	n/a	n/a	n/a	-999	19	[0, 0, 0]	n/a	catFR1	2	R1192C
2442.297	0.849	1228226	REC_WORD	1.402	n/a	FISH	OceanAnimals	1	19	[0, 0, 0]	n/a	catFR1	2	R1192C
2443.146	2.018	1228651	REC_WORD	2.251	n/a	JELLYFISH	OceanAnimals	9	19	[0, 0, 0]	n/a	catFR1	2	R1192C
2445.164	6.126	1229660	REC_WORD	4.269	n/a	PLANKTON	OceanAnimals	10	19	[0, 0, 0]	n/a	catFR1	2	R1192C
2451.29	1.0	1232722	REC_WORD	10.395	n/a	CIDER	Beverages	8	19	[0, 0, 0]	n/a	catFR1	2	R1192C
2452.29	2.987	1233222	REC_WORD_VV	11.395	n/a	<>	n/a	-999	19	[0, 0, 0]	n/a	catFR1	2	R1192C
2455.277	0.212	1234716	REC_WORD_VV	14.382	n/a	<>	n/a	-999	19	[0, 0, 0]	n/a	catFR1	2	R1192C
2455.489	15.422	1234822	REC_WORD	14.594	n/a	JUICE	Beverages	7	19	[0, 0, 0]	n/a	catFR1	2	R1192C
2470.911	42.114	1242532	REC_END	n/a	n/a	n/a	n/a	-999	19	[0, 0, 0]	n/a	catFR1	2	R1192C
2513.025	0.001	1263587	COUNTDOWN_START	n/a	n/a	n/a	n/a	-999	20	[0, 0, 0]	n/a	catFR1	2	R1192C
2513.026	10.427	1263588	TRIAL	n/a	n/a	n/a	n/a	-999	20	[0, 0, 0]	n/a	catFR1	2	R1192C
2523.453	0.007	1268801	COUNTDOWN_END	n/a	n/a	n/a	n/a	-999	20	[0, 0, 0]	n/a	catFR1	2	R1192C
2523.46	3.485	1268805	ORIENT	n/a	n/a	n/a	n/a	-999	20	[0, 0, 0]	n/a	catFR1	2	R1192C
2526.945	2.549	1270547	WORD	n/a	wordpools/wordpool_categorized_EN.txt	BANJO	Instruments	1	20	[0, 0, 0]	n/a	catFR1	2	R1192C
2529.494	2.435	1271821	WORD	n/a	wordpools/wordpool_categorized_EN.txt	TRUMPET	Instruments	2	20	[0, 0, 0]	n/a	catFR1	2	R1192C
2531.929	2.599	1273039	WORD	n/a	wordpools/wordpool_categorized_EN.txt	PASTRY	Desserts	3	20	[0, 0, 0]	n/a	catFR1	2	R1192C
2534.528	2.502	1274338	WORD	n/a	wordpools/wordpool_categorized_EN.txt	CAKE	Desserts	4	20	[0, 0, 0]	n/a	catFR1	2	R1192C
2537.03	2.433	1275589	WORD	n/a	wordpools/wordpool_categorized_EN.txt	ORANGUTAN	Zoo	5	20	[0, 0, 0]	n/a	catFR1	2	R1192C
2539.463	2.451	1276805	WORD	n/a	wordpools/wordpool_categorized_EN.txt	BEAR	Zoo	6	20	[0, 0, 0]	n/a	catFR1	2	R1192C
2541.914	2.533	1278031	WORD	n/a	wordpools/wordpool_categorized_EN.txt	CUPCAKE	Desserts	7	20	[0, 0, 0]	n/a	catFR1	2	R1192C
2544.447	2.468	1279297	WORD	n/a	wordpools/wordpool_categorized_EN.txt	COOKIE	Desserts	8	20	[0, 0, 0]	n/a	catFR1	2	R1192C
2546.915	2.516	1280531	WORD	n/a	wordpools/wordpool_categorized_EN.txt	FLUTE	Instruments	9	20	[0, 0, 0]	n/a	catFR1	2	R1192C
2549.431	2.485	1281789	WORD	n/a	wordpools/wordpool_categorized_EN.txt	TUBA	Instruments	10	20	[0, 0, 0]	n/a	catFR1	2	R1192C
2551.916	2.566	1283031	WORD	n/a	wordpools/wordpool_categorized_EN.txt	GIRAFFE	Zoo	11	20	[0, 0, 0]	n/a	catFR1	2	R1192C
2554.482	1.601	1284314	WORD	n/a	wordpools/wordpool_categorized_EN.txt	TIGER	Zoo	12	20	[0, 0, 0]	n/a	catFR1	2	R1192C
2556.083	0.001	1285115	DISTRACT_START	n/a	n/a	n/a	n/a	-999	20	[0, 0, 0]	n/a	catFR1	2	R1192C
2556.084	0.016	1285115	START	n/a	n/a	n/a	n/a	-999	20	[-999, -999, -999]	n/a	catFR1	2	R1192C
2556.1	10.819	1285123	PROB	10.782	n/a	n/a	n/a	-999	20	[2, 6, 6]	14.0	catFR1	2	R1192C
2566.919	15.915	1290532	PROB	15.915	n/a	n/a	n/a	-999	20	[4, 4, 7]	15.0	catFR1	2	R1192C
2582.834	0.004	1298489	STOP	n/a	n/a	n/a	n/a	-999	20	[-999, -999, -999]	n/a	catFR1	2	R1192C
2582.838	1.168	1298491	DISTRACT_END	n/a	n/a	n/a	n/a	-999	20	[0, 0, 0]	n/a	catFR1	2	R1192C
2584.006	2.605	1299075	REC_START	n/a	n/a	n/a	n/a	-999	20	[0, 0, 0]	n/a	catFR1	2	R1192C
2586.611	0.223	1300378	REC_WORD_VV	2.605	n/a	<>	n/a	-999	20	[0, 0, 0]	n/a	catFR1	2	R1192C
2586.834	0.921	1300489	REC_WORD	2.828	n/a	BANJO	Instruments	1	20	[0, 0, 0]	n/a	catFR1	2	R1192C
2587.755	1.023	1300949	REC_WORD	3.749	n/a	TRUMPET	Instruments	2	20	[0, 0, 0]	n/a	catFR1	2	R1192C
2588.778	7.159	1301461	REC_WORD	4.772	n/a	FLUTE	Instruments	9	20	[0, 0, 0]	n/a	catFR1	2	R1192C
2595.937	0.626	1305040	REC_WORD_VV	11.931	n/a	<>	n/a	-999	20	[0, 0, 0]	n/a	catFR1	2	R1192C
2596.563	1.308	1305353	REC_WORD	12.557	n/a	TIGER	Zoo	12	20	[0, 0, 0]	n/a	catFR1	2	R1192C
2597.871	0.174	1306007	REC_WORD_VV	13.865	n/a	<>	n/a	-999	20	[0, 0, 0]	n/a	catFR1	2	R1192C
2598.045	2.94	1306094	REC_WORD	14.039	n/a	BEAR	Zoo	6	20	[0, 0, 0]	n/a	catFR1	2	R1192C
2600.985	5.279	1307564	REC_WORD	16.979	n/a	ORANGUTAN	Zoo	5	20	[0, 0, 0]	n/a	catFR1	2	R1192C
2606.264	0.838	1310203	REC_WORD	22.258	n/a	CAKE	Desserts	4	20	[0, 0, 0]	n/a	catFR1	2	R1192C
2607.102	6.914	1310622	REC_WORD	23.096	n/a	CUPCAKE	Desserts	7	20	[0, 0, 0]	n/a	catFR1	2	R1192C
2614.016	31.533	1314079	REC_END	n/a	n/a	n/a	n/a	-999	20	[0, 0, 0]	n/a	catFR1	2	R1192C
2645.549	0.0	1329844	TRIAL	n/a	n/a	n/a	n/a	-999	21	[0, 0, 0]	n/a	catFR1	2	R1192C
2645.549	10.428	1329844	COUNTDOWN_START	n/a	n/a	n/a	n/a	-999	21	[0, 0, 0]	n/a	catFR1	2	R1192C
2655.977	0.008	1335058	COUNTDOWN_END	n/a	n/a	n/a	n/a	-999	21	[0, 0, 0]	n/a	catFR1	2	R1192C
2655.985	3.918	1335062	ORIENT	n/a	n/a	n/a	n/a	-999	21	[0, 0, 0]	n/a	catFR1	2	R1192C
2659.903	2.599	1337021	WORD	n/a	wordpools/wordpool_categorized_EN.txt	VALLEY	Landscapes	1	21	[0, 0, 0]	n/a	catFR1	2	R1192C
2662.502	2.385	1338320	WORD	n/a	wordpools/wordpool_categorized_EN.txt	OCEAN	Landscapes	2	21	[0, 0, 0]	n/a	catFR1	2	R1192C
2664.887	2.549	1339512	WORD	n/a	wordpools/wordpool_categorized_EN.txt	GOOSE	Birds	3	21	[0, 0, 0]	n/a	catFR1	2	R1192C
2667.436	2.569	1340787	WORD	n/a	wordpools/wordpool_categorized_EN.txt	DUCK	Birds	4	21	[0, 0, 0]	n/a	catFR1	2	R1192C
2670.005	2.582	1342071	WORD	n/a	wordpools/wordpool_categorized_EN.txt	PINE	Trees	5	21	[0, 0, 0]	n/a	catFR1	2	R1192C
2672.587	2.602	1343362	WORD	n/a	wordpools/wordpool_categorized_EN.txt	OAK	Trees	6	21	[0, 0, 0]	n/a	catFR1	2	R1192C
2675.189	2.45	1344663	WORD	n/a	wordpools/wordpool_categorized_EN.txt	LAKE	Landscapes	7	21	[0, 0, 0]	n/a	catFR1	2	R1192C
2677.639	2.468	1345888	WORD	n/a	wordpools/wordpool_categorized_EN.txt	WOODS	Landscapes	8	21	[0, 0, 0]	n/a	catFR1	2	R1192C
2680.107	2.617	1347122	WORD	n/a	wordpools/wordpool_categorized_EN.txt	BIRCH	Trees	9	21	[0, 0, 0]	n/a	catFR1	2	R1192C
2682.724	2.384	1348430	WORD	n/a	wordpools/wordpool_categorized_EN.txt	SPRUCE	Trees	10	21	[0, 0, 0]	n/a	catFR1	2	R1192C
2685.108	2.533	1349622	WORD	n/a	wordpools/wordpool_categorized_EN.txt	FINCH	Birds	11	21	[0, 0, 0]	n/a	catFR1	2	R1192C
2687.641	1.617	1350889	WORD	n/a	wordpools/wordpool_categorized_EN.txt	BLUEBIRD	Birds	12	21	[0, 0, 0]	n/a	catFR1	2	R1192C
2689.258	0.001	1351697	DISTRACT_START	n/a	n/a	n/a	n/a	-999	21	[0, 0, 0]	n/a	catFR1	2	R1192C
2689.259	0.016	1351697	START	n/a	n/a	n/a	n/a	-999	21	[-999, -999, -999]	n/a	catFR1	2	R1192C
2689.275	24.935	1351705	PROB	24.935	n/a	n/a	n/a	-999	21	[7, 9, 4]	20.0	catFR1	2	R1192C
2714.21	0.019	1364172	STOP	n/a	n/a	n/a	n/a	-999	21	[-999, -999, -999]	n/a	catFR1	2	R1192C
2714.229	1.101	1364181	DISTRACT_END	n/a	n/a	n/a	n/a	-999	21	[0, 0, 0]	n/a	catFR1	2	R1192C
2715.33	4.727	1364732	REC_START	n/a	n/a	n/a	n/a	-999	21	[0, 0, 0]	n/a	catFR1	2	R1192C
2720.057	1.0	1367095	REC_WORD	4.727	n/a	WOODS	Landscapes	8	21	[0, 0, 0]	n/a	catFR1	2	R1192C
2721.057	1.825	1367595	REC_WORD_VV	5.727	n/a	<>	n/a	-999	21	[0, 0, 0]	n/a	catFR1	2	R1192C
2722.882	2.097	1368508	REC_WORD	7.552	n/a	BLUEBIRD	Birds	12	21	[0, 0, 0]	n/a	catFR1	2	R1192C
2724.979	1.0	1369556	REC_WORD	9.649	n/a	FINCH	Birds	11	21	[0, 0, 0]	n/a	catFR1	2	R1192C
2725.979	10.702	1370056	REC_WORD_VV	10.649	n/a	<>	n/a	-999	21	[0, 0, 0]	n/a	catFR1	2	R1192C
2736.681	8.38	1375407	REC_WORD	21.351	n/a	OAK	Trees	6	21	[0, 0, 0]	n/a	catFR1	2	R1192C
2745.061	0.281	1379596	REC_WORD_VV	29.731	n/a	<>	n/a	-999	21	[0, 0, 0]	n/a	catFR1	2	R1192C
2745.342	15.396	1379737	REC_END	n/a	n/a	n/a	n/a	-999	21	[0, 0, 0]	n/a	catFR1	2	R1192C
2760.738	0.001	1387434	COUNTDOWN_START	n/a	n/a	n/a	n/a	-999	22	[0, 0, 0]	n/a	catFR1	2	R1192C
2760.739	10.427	1387435	TRIAL	n/a	n/a	n/a	n/a	-999	22	[0, 0, 0]	n/a	catFR1	2	R1192C
2771.166	0.008	1392648	COUNTDOWN_END	n/a	n/a	n/a	n/a	-999	22	[0, 0, 0]	n/a	catFR1	2	R1192C
2771.174	3.867	1392652	ORIENT	n/a	n/a	n/a	n/a	-999	22	[0, 0, 0]	n/a	catFR1	2	R1192C
2775.041	2.383	1394585	WORD	n/a	wordpools/wordpool_categorized_EN.txt	DOOR	Building	1	22	[0, 0, 0]	n/a	catFR1	2	R1192C
2777.424	2.435	1395776	WORD	n/a	wordpools/wordpool_categorized_EN.txt	WINDOW	Building	2	22	[0, 0, 0]	n/a	catFR1	2	R1192C
2779.859	2.433	1396994	WORD	n/a	wordpools/wordpool_categorized_EN.txt	FORK	KitchenTools	3	22	[0, 0, 0]	n/a	catFR1	2	R1192C
2782.292	2.484	1398210	WORD	n/a	wordpools/wordpool_categorized_EN.txt	TONGS	KitchenTools	4	22	[0, 0, 0]	n/a	catFR1	2	R1192C
2784.776	2.434	1399452	WORD	n/a	wordpools/wordpool_categorized_EN.txt	LADYBUG	Insects	5	22	[0, 0, 0]	n/a	catFR1	2	R1192C
2787.21	2.6	1400669	WORD	n/a	wordpools/wordpool_categorized_EN.txt	ANT	Insects	6	22	[0, 0, 0]	n/a	catFR1	2	R1192C
2789.81	2.551	1401969	WORD	n/a	wordpools/wordpool_categorized_EN.txt	LADLE	KitchenTools	7	22	[0, 0, 0]	n/a	catFR1	2	R1192C
2792.361	2.634	1403244	WORD	n/a	wordpools/wordpool_categorized_EN.txt	SPATULA	KitchenTools	8	22	[0, 0, 0]	n/a	catFR1	2	R1192C
2794.995	2.599	1404561	WORD	n/a	wordpools/wordpool_categorized_EN.txt	HALLWAY	Building	9	22	[0, 0, 0]	n/a	catFR1	2	R1192C
2797.594	2.551	1405861	WORD	n/a	wordpools/wordpool_categorized_EN.txt	ROOM	Building	10	22	[0, 0, 0]	n/a	catFR1	2	R1192C
2800.145	2.535	1407136	WORD	n/a	wordpools/wordpool_categorized_EN.txt	MOSQUITO	Insects	11	22	[0, 0, 0]	n/a	catFR1	2	R1192C
2802.68	1.617	1408403	WORD	n/a	wordpools/wordpool_categorized_EN.txt	BEETLE	Insects	12	22	[0, 0, 0]	n/a	catFR1	2	R1192C
2804.297	0.001	1409212	DISTRACT_START	n/a	n/a	n/a	n/a	-999	22	[0, 0, 0]	n/a	catFR1	2	R1192C
2804.298	0.015	1409212	START	n/a	n/a	n/a	n/a	-999	22	[-999, -999, -999]	n/a	catFR1	2	R1192C
2804.313	31.288	1409220	PROB	31.288	n/a	n/a	n/a	-999	22	[7, 4, 1]	15.0	catFR1	2	R1192C
2835.601	0.017	1424863	STOP	n/a	n/a	n/a	n/a	-999	22	[-999, -999, -999]	n/a	catFR1	2	R1192C
2835.618	1.219	1424871	DISTRACT_END	n/a	n/a	n/a	n/a	-999	22	[0, 0, 0]	n/a	catFR1	2	R1192C
2836.837	8.628	1425481	REC_START	n/a	n/a	n/a	n/a	-999	22	[0, 0, 0]	n/a	catFR1	2	R1192C
2845.465	0.73	1429794	REC_WORD	8.628	n/a	HALL	n/a	-999	22	[0, 0, 0]	n/a	catFR1	2	R1192C
2846.195	1.314	1430159	REC_WORD	9.358	n/a	CLOSET	n/a	-999	22	[0, 0, 0]	n/a	catFR1	2	R1192C
2847.509	3.509	1430816	REC_WORD	10.672	n/a	BEDROOM	n/a	-999	22	[0, 0, 0]	n/a	catFR1	2	R1192C
2851.018	7.371	1432571	REC_WORD	14.181	n/a	CEILING	n/a	-999	22	[0, 0, 0]	n/a	catFR1	2	R1192C
2858.389	1.0	1436256	REC_WORD_VV	21.552	n/a	<>	n/a	-999	22	[0, 0, 0]	n/a	catFR1	2	R1192C
2859.389	1.0	1436756	REC_WORD_VV	22.552	n/a	<>	n/a	-999	22	[0, 0, 0]	n/a	catFR1	2	R1192C
2860.389	3.895	1437256	REC_WORD_VV	23.552	n/a	<>	n/a	-999	22	[0, 0, 0]	n/a	catFR1	2	R1192C
2864.284	2.568	1439203	REC_WORD	27.447	n/a	FORK	KitchenTools	3	22	[0, 0, 0]	n/a	catFR1	2	R1192C
2866.852	8.858	1440487	REC_END	n/a	n/a	n/a	n/a	-999	22	[0, 0, 0]	n/a	catFR1	2	R1192C
2875.71	0.0	1444916	TRIAL	n/a	n/a	n/a	n/a	-999	23	[0, 0, 0]	n/a	catFR1	2	R1192C
2875.71	10.428	1444916	COUNTDOWN_START	n/a	n/a	n/a	n/a	-999	23	[0, 0, 0]	n/a	catFR1	2	R1192C
2886.138	0.007	1450129	COUNTDOWN_END	n/a	n/a	n/a	n/a	-999	23	[0, 0, 0]	n/a	catFR1	2	R1192C
2886.145	3.734	1450133	ORIENT	n/a	n/a	n/a	n/a	-999	23	[0, 0, 0]	n/a	catFR1	2	R1192C
2889.879	2.566	1452000	WORD	n/a	wordpools/wordpool_categorized_EN.txt	WALNUT	Trees	1	23	[0, 0, 0]	n/a	catFR1	2	R1192C
2892.445	2.502	1453282	WORD	n/a	wordpools/wordpool_categorized_EN.txt	HICKORY	Trees	2	23	[0, 0, 0]	n/a	catFR1	2	R1192C
2894.947	2.549	1454533	WORD	n/a	wordpools/wordpool_categorized_EN.txt	BLENDER	Appliances	3	23	[0, 0, 0]	n/a	catFR1	2	R1192C
2897.496	2.452	1455808	WORD	n/a	wordpools/wordpool_categorized_EN.txt	WASHER	Appliances	4	23	[0, 0, 0]	n/a	catFR1	2	R1192C
2899.948	2.516	1457034	WORD	n/a	wordpools/wordpool_categorized_EN.txt	JEANS	Clothing	5	23	[0, 0, 0]	n/a	catFR1	2	R1192C
2902.464	2.401	1458292	WORD	n/a	wordpools/wordpool_categorized_EN.txt	SOCKS	Clothing	6	23	[0, 0, 0]	n/a	catFR1	2	R1192C
2904.865	2.418	1459492	WORD	n/a	wordpools/wordpool_categorized_EN.txt	MAPLE	Trees	7	23	[0, 0, 0]	n/a	catFR1	2	R1192C
2907.283	2.633	1460701	WORD	n/a	wordpools/wordpool_categorized_EN.txt	WILLOW	Trees	8	23	[0, 0, 0]	n/a	catFR1	2	R1192C
2909.916	2.401	1462017	WORD	n/a	wordpools/wordpool_categorized_EN.txt	PANTS	Clothing	9	23	[0, 0, 0]	n/a	catFR1	2	R1192C
2912.317	2.517	1463218	WORD	n/a	wordpools/wordpool_categorized_EN.txt	BLOUSE	Clothing	10	23	[0, 0, 0]	n/a	catFR1	2	R1192C
2914.834	2.599	1464476	WORD	n/a	wordpools/wordpool_categorized_EN.txt	STOVE	Appliances	11	23	[0, 0, 0]	n/a	catFR1	2	R1192C
2917.433	1.601	1465775	WORD	n/a	wordpools/wordpool_categorized_EN.txt	REFRIGERATOR	Appliances	12	23	[0, 0, 0]	n/a	catFR1	2	R1192C
2919.034	0.002	1466576	DISTRACT_START	n/a	n/a	n/a	n/a	-999	23	[0, 0, 0]	n/a	catFR1	2	R1192C
2919.036	0.015	1466577	START	n/a	n/a	n/a	n/a	-999	23	[-999, -999, -999]	n/a	catFR1	2	R1192C
2919.051	15.803	1466584	PROB	15.783	n/a	n/a	n/a	-999	23	[1, 4, 8]	13.0	catFR1	2	R1192C
2934.854	5.172	1474485	PROB	5.172	n/a	n/a	n/a	-999	23	[5, 2, 5]	12.0	catFR1	2	R1192C
2940.026	0.013	1477071	STOP	n/a	n/a	n/a	n/a	-999	23	[-999, -999, -999]	n/a	catFR1	2	R1192C
2940.039	1.084	1477078	DISTRACT_END	n/a	n/a	n/a	n/a	-999	23	[0, 0, 0]	n/a	catFR1	2	R1192C
2941.123	3.67	1477620	REC_START	n/a	n/a	n/a	n/a	-999	23	[0, 0, 0]	n/a	catFR1	2	R1192C
2944.793	1.0	1479454	REC_WORD	3.67	n/a	HICKORY	Trees	2	23	[0, 0, 0]	n/a	catFR1	2	R1192C
2945.793	0.705	1479954	REC_WORD_VV	4.67	n/a	<>	n/a	-999	23	[0, 0, 0]	n/a	catFR1	2	R1192C
2946.498	0.882	1480307	REC_WORD	5.375	n/a	WASHER	Appliances	4	23	[0, 0, 0]	n/a	catFR1	2	R1192C
2947.38	3.087	1480748	REC_WORD	6.257	n/a	BLENDER	Appliances	3	23	[0, 0, 0]	n/a	catFR1	2	R1192C
2950.467	2.837	1482291	REC_WORD	9.344	n/a	WALNUT	Trees	1	23	[0, 0, 0]	n/a	catFR1	2	R1192C
2953.304	17.83	1483710	REC_WORD	12.181	n/a	SHORTS	n/a	-999	23	[0, 0, 0]	n/a	catFR1	2	R1192C
2971.134	38.001	1492624	REC_END	n/a	n/a	n/a	n/a	-999	23	[0, 0, 0]	n/a	catFR1	2	R1192C
3009.135	0.0	1511623	COUNTDOWN_START	n/a	n/a	n/a	n/a	-999	24	[0, 0, 0]	n/a	catFR1	2	R1192C
3009.135	10.428	1511623	TRIAL	n/a	n/a	n/a	n/a	-999	24	[0, 0, 0]	n/a	catFR1	2	R1192C
3019.563	0.006	1516836	COUNTDOWN_END	n/a	n/a	n/a	n/a	-999	24	[0, 0, 0]	n/a	catFR1	2	R1192C
3019.569	3.685	1516839	ORIENT	n/a	n/a	n/a	n/a	-999	24	[0, 0, 0]	n/a	catFR1	2	R1192C
3023.254	2.467	1518682	WORD	n/a	wordpools/wordpool_categorized_EN.txt	FRISBEE	Toys	1	24	[0, 0, 0]	n/a	catFR1	2	R1192C
3025.721	2.384	1519915	WORD	n/a	wordpools/wordpool_categorized_EN.txt	BASEBALL	Toys	2	24	[0, 0, 0]	n/a	catFR1	2	R1192C
3028.105	2.483	1521107	WORD	n/a	wordpools/wordpool_categorized_EN.txt	EVERGREEN	Trees	3	24	[0, 0, 0]	n/a	catFR1	2	R1192C
3030.588	2.418	1522348	WORD	n/a	wordpools/wordpool_categorized_EN.txt	CEDAR	Trees	4	24	[0, 0, 0]	n/a	catFR1	2	R1192C
3033.006	2.55	1523557	WORD	n/a	wordpools/wordpool_categorized_EN.txt	CELERY	Vegetables	5	24	[0, 0, 0]	n/a	catFR1	2	R1192C
3035.556	2.418	1524832	WORD	n/a	wordpools/wordpool_categorized_EN.txt	SPINACH	Vegetables	6	24	[0, 0, 0]	n/a	catFR1	2	R1192C
3037.974	2.616	1526041	WORD	n/a	wordpools/wordpool_categorized_EN.txt	BARBIE	Toys	7	24	[0, 0, 0]	n/a	catFR1	2	R1192C
3040.59	2.518	1527349	WORD	n/a	wordpools/wordpool_categorized_EN.txt	BALL	Toys	8	24	[0, 0, 0]	n/a	catFR1	2	R1192C
3043.108	2.55	1528608	WORD	n/a	wordpools/wordpool_categorized_EN.txt	CAULIFLOWER	Vegetables	9	24	[0, 0, 0]	n/a	catFR1	2	R1192C
3045.658	2.418	1529883	WORD	n/a	wordpools/wordpool_categorized_EN.txt	PEAS	Vegetables	10	24	[0, 0, 0]	n/a	catFR1	2	R1192C
3048.076	2.416	1531092	WORD	n/a	wordpools/wordpool_categorized_EN.txt	CYPRESS	Trees	11	24	[0, 0, 0]	n/a	catFR1	2	R1192C
3050.492	1.618	1532300	WORD	n/a	wordpools/wordpool_categorized_EN.txt	ELM	Trees	12	24	[0, 0, 0]	n/a	catFR1	2	R1192C
3052.11	0.001	1533109	DISTRACT_START	n/a	n/a	n/a	n/a	-999	24	[0, 0, 0]	n/a	catFR1	2	R1192C
3052.111	0.015	1533109	START	n/a	n/a	n/a	n/a	-999	24	[-999, -999, -999]	n/a	catFR1	2	R1192C
3052.126	16.57	1533117	PROB	16.541	n/a	n/a	n/a	-999	24	[3, 5, 9]	17.0	catFR1	2	R1192C
3068.696	5.242	1541401	PROB	5.242	n/a	n/a	n/a	-999	24	[8, 2, 2]	12.0	catFR1	2	R1192C
3073.938	0.009	1544022	STOP	n/a	n/a	n/a	n/a	-999	24	[-999, -999, -999]	n/a	catFR1	2	R1192C
3073.947	1.101	1544026	DISTRACT_END	n/a	n/a	n/a	n/a	-999	24	[0, 0, 0]	n/a	catFR1	2	R1192C
3075.048	1.542	1544577	REC_START	n/a	n/a	n/a	n/a	-999	24	[0, 0, 0]	n/a	catFR1	2	R1192C
3076.59	1.0	1545348	REC_WORD	1.542	n/a	EVERGREEN	Trees	3	24	[0, 0, 0]	n/a	catFR1	2	R1192C
3077.59	3.118	1545848	REC_WORD_VV	2.542	n/a	<>	n/a	-999	24	[0, 0, 0]	n/a	catFR1	2	R1192C
3080.708	1.021	1547406	REC_WORD	5.66	n/a	CYPRESS	Trees	11	24	[0, 0, 0]	n/a	catFR1	2	R1192C
3081.729	4.953	1547917	REC_WORD	6.681	n/a	PEAS	Vegetables	10	24	[0, 0, 0]	n/a	catFR1	2	R1192C
3086.682	13.524	1550393	REC_WORD	11.634	n/a	BARBIE	Toys	7	24	[0, 0, 0]	n/a	catFR1	2	R1192C
3100.206	4.853	1557155	REC_WORD	25.158	n/a	CAULIFLOWER	Vegetables	9	24	[0, 0, 0]	n/a	catFR1	2	R1192C
3105.059	3.544	1559581	REC_END	n/a	n/a	n/a	n/a	-999	24	[0, 0, 0]	n/a	catFR1	2	R1192C
3108.603	0.0	1561353	TRIAL	n/a	n/a	n/a	n/a	-999	25	[0, 0, 0]	n/a	catFR1	2	R1192C
3108.603	10.428	1561353	COUNTDOWN_START	n/a	n/a	n/a	n/a	-999	25	[0, 0, 0]	n/a	catFR1	2	R1192C
3119.031	0.008	1566566	COUNTDOWN_END	n/a	n/a	n/a	n/a	-999	25	[0, 0, 0]	n/a	catFR1	2	R1192C
3119.039	3.684	1566570	ORIENT	n/a	n/a	n/a	n/a	-999	25	[0, 0, 0]	n/a	catFR1	2	R1192C
3122.723	2.4	1568412	WORD	n/a	wordpools/wordpool_categorized_EN.txt	LETTUCE	Vegetables	1	25	[0, 0, 0]	n/a	catFR1	2	R1192C
3125.123	2.417	1569612	WORD	n/a	wordpools/wordpool_categorized_EN.txt	CABBAGE	Vegetables	2	25	[0, 0, 0]	n/a	catFR1	2	R1192C
3127.54	2.518	1570821	WORD	n/a	wordpools/wordpool_categorized_EN.txt	HEADPHONES	Electronics	3	25	[0, 0, 0]	n/a	catFR1	2	R1192C
3130.058	2.584	1572080	WORD	n/a	wordpools/wordpool_categorized_EN.txt	COMPUTER	Electronics	4	25	[0, 0, 0]	n/a	catFR1	2	R1192C
3132.642	2.45	1573371	WORD	n/a	wordpools/wordpool_categorized_EN.txt	ELEPHANT	Zoo	5	25	[0, 0, 0]	n/a	catFR1	2	R1192C
3135.092	2.416	1574596	WORD	n/a	wordpools/wordpool_categorized_EN.txt	ZEBRA	Zoo	6	25	[0, 0, 0]	n/a	catFR1	2	R1192C
3137.508	2.451	1575804	WORD	n/a	wordpools/wordpool_categorized_EN.txt	CORN	Vegetables	7	25	[0, 0, 0]	n/a	catFR1	2	R1192C
3139.959	2.401	1577030	WORD	n/a	wordpools/wordpool_categorized_EN.txt	ONION	Vegetables	8	25	[0, 0, 0]	n/a	catFR1	2	R1192C
3142.36	2.617	1578230	WORD	n/a	wordpools/wordpool_categorized_EN.txt	CHEETAH	Zoo	9	25	[0, 0, 0]	n/a	catFR1	2	R1192C
3144.977	2.533	1579538	WORD	n/a	wordpools/wordpool_categorized_EN.txt	LION	Zoo	10	25	[0, 0, 0]	n/a	catFR1	2	R1192C
3147.51	2.485	1580805	WORD	n/a	wordpools/wordpool_categorized_EN.txt	TELEVISION	Electronics	11	25	[0, 0, 0]	n/a	catFR1	2	R1192C
3149.995	1.616	1582047	WORD	n/a	wordpools/wordpool_categorized_EN.txt	PRINTER	Electronics	12	25	[0, 0, 0]	n/a	catFR1	2	R1192C
3151.611	0.001	1582855	DISTRACT_START	n/a	n/a	n/a	n/a	-999	25	[0, 0, 0]	n/a	catFR1	2	R1192C
3151.612	0.016	1582856	START	n/a	n/a	n/a	n/a	-999	25	[-999, -999, -999]	n/a	catFR1	2	R1192C
3151.628	13.67	1582864	PROB	13.63	n/a	n/a	n/a	-999	25	[3, 2, 9]	14.0	catFR1	2	R1192C
3165.298	11.448	1589698	PROB	11.448	n/a	n/a	n/a	-999	25	[8, 7, 7]	22.0	catFR1	2	R1192C
3176.746	0.004	1595422	STOP	n/a	n/a	n/a	n/a	-999	25	[-999, -999, -999]	n/a	catFR1	2	R1192C
3176.75	1.234	1595424	DISTRACT_END	n/a	n/a	n/a	n/a	-999	25	[0, 0, 0]	n/a	catFR1	2	R1192C
3177.984	1.565	1596041	REC_START	n/a	n/a	n/a	n/a	-999	25	[0, 0, 0]	n/a	catFR1	2	R1192C
3179.549	0.755	1596823	REC_WORD	1.565	n/a	LION	Zoo	10	25	[0, 0, 0]	n/a	catFR1	2	R1192C
3180.304	1.342	1597201	REC_WORD	2.32	n/a	CHEETAH	Zoo	9	25	[0, 0, 0]	n/a	catFR1	2	R1192C
3181.646	1.781	1597871	REC_WORD	3.662	n/a	TELEVISION	Electronics	11	25	[0, 0, 0]	n/a	catFR1	2	R1192C
3183.427	1.851	1598762	REC_WORD	5.443	n/a	COMPUTER	Electronics	4	25	[0, 0, 0]	n/a	catFR1	2	R1192C
3185.278	1.0	1599687	REC_WORD	7.294	n/a	HEADPHONES	Electronics	3	25	[0, 0, 0]	n/a	catFR1	2	R1192C
3186.278	3.586	1600187	REC_WORD_VV	8.294	n/a	<>	n/a	-999	25	[0, 0, 0]	n/a	catFR1	2	R1192C
3189.864	16.418	1601980	REC_WORD	11.88	n/a	ONION	Vegetables	8	25	[0, 0, 0]	n/a	catFR1	2	R1192C
3206.282	0.629	1610189	REC_WORD_VV	28.298	n/a	<>	n/a	-999	25	[0, 0, 0]	n/a	catFR1	2	R1192C
3206.911	1.084	1610503	REC_WORD	28.927	n/a	LETTUCE	Vegetables	1	25	[0, 0, 0]	n/a	catFR1	2	R1192C
3207.995	19.614	1611045	REC_END	n/a	n/a	n/a	n/a	-999	25	[0, 0, 0]	n/a	catFR1	2	R1192C
3227.609	0.0	1620851	SESS_END	n/a	n/a	n/a	n/a	-999	25	[0, 0, 0]	n/a	catFR1	2	R1192C
