onset	duration	sample	trial_type	response_time	stim_file	item_name	category	serialpos	list	test	answer	experiment	session	subject
0.0	6.581	30884	INSTRUCT_START	n/a	n/a	n/a	n/a	-999	-999	[0, 0, 0]	n/a	catFR1	2	R1488T
6.581	20.333	37459	INSTRUCT_END	n/a	n/a	n/a	n/a	-999	-999	[0, 0, 0]	n/a	catFR1	2	R1488T
26.914	10.35	57790	COUNTDOWN_START	n/a	n/a	n/a	n/a	-999	-999	[0, 0, 0]	n/a	catFR1	2	R1488T
37.264	0.0	68145	COUNTDOWN_END	n/a	n/a	n/a	n/a	-999	-999	[0, 0, 0]	n/a	catFR1	2	R1488T
37.264	1.867	68145	ENCODING_START	n/a	n/a	n/a	n/a	-999	-1	[0, 0, 0]	n/a	catFR1	2	R1488T
39.131	1.617	70006	WORD	n/a	n/a	SPARROW	Birds	1	-1	[0, 0, 0]	n/a	catFR1	2	R1488T
40.748	0.933	71622	WORD_OFF	n/a	n/a	SPARROW	Birds	1	-1	[0, 0, 0]	n/a	catFR1	2	R1488T
41.681	1.6	72557	WORD	n/a	n/a	DUCK	Birds	2	-1	[0, 0, 0]	n/a	catFR1	2	R1488T
43.281	0.766	74154	WORD_OFF	n/a	n/a	DUCK	Birds	2	-1	[0, 0, 0]	n/a	catFR1	2	R1488T
44.047	1.601	74928	WORD	n/a	n/a	PIG	FarmAnimals	3	-1	[0, 0, 0]	n/a	catFR1	2	R1488T
45.648	0.916	76525	WORD_OFF	n/a	n/a	PIG	FarmAnimals	3	-1	[0, 0, 0]	n/a	catFR1	2	R1488T
46.564	1.6	77441	WORD	n/a	n/a	GOAT	FarmAnimals	4	-1	[0, 0, 0]	n/a	catFR1	2	R1488T
48.164	0.834	79038	WORD_OFF	n/a	n/a	GOAT	FarmAnimals	4	-1	[0, 0, 0]	n/a	catFR1	2	R1488T
48.998	1.616	79879	WORD	n/a	n/a	SCANNER	Electronics	5	-1	[0, 0, 0]	n/a	catFR1	2	R1488T
50.614	0.967	81494	WORD_OFF	n/a	n/a	SCANNER	Electronics	5	-1	[0, 0, 0]	n/a	catFR1	2	R1488T
51.581	1.616	82458	WORD	n/a	n/a	SPEAKER	Electronics	6	-1	[0, 0, 0]	n/a	catFR1	2	R1488T
53.197	0.951	84074	WORD_OFF	n/a	n/a	SPEAKER	Electronics	6	-1	[0, 0, 0]	n/a	catFR1	2	R1488T
54.148	1.616	85028	WORD	n/a	n/a	SEAGULL	Birds	7	-1	[0, 0, 0]	n/a	catFR1	2	R1488T
55.764	0.933	86643	WORD_OFF	n/a	n/a	SEAGULL	Birds	7	-1	[0, 0, 0]	n/a	catFR1	2	R1488T
56.697	1.6	87569	WORD	n/a	n/a	CARDINAL	Birds	8	-1	[0, 0, 0]	n/a	catFR1	2	R1488T
58.297	0.901	89175	WORD_OFF	n/a	n/a	CARDINAL	Birds	8	-1	[0, 0, 0]	n/a	catFR1	2	R1488T
59.198	1.6	90073	WORD	n/a	n/a	TABLET	Electronics	9	-1	[0, 0, 0]	n/a	catFR1	2	R1488T
60.798	0.833	91670	WORD_OFF	n/a	n/a	TABLET	Electronics	9	-1	[0, 0, 0]	n/a	catFR1	2	R1488T
61.631	1.616	92510	WORD	n/a	n/a	COMPUTER	Electronics	10	-1	[0, 0, 0]	n/a	catFR1	2	R1488T
63.247	0.95	94126	WORD_OFF	n/a	n/a	COMPUTER	Electronics	10	-1	[0, 0, 0]	n/a	catFR1	2	R1488T
64.197	1.617	95071	WORD	n/a	n/a	TURKEY	FarmAnimals	11	-1	[0, 0, 0]	n/a	catFR1	2	R1488T
65.814	0.816	96686	WORD_OFF	n/a	n/a	TURKEY	FarmAnimals	11	-1	[0, 0, 0]	n/a	catFR1	2	R1488T
66.63	1.619	97508	WORD	n/a	n/a	CALF	FarmAnimals	12	-1	[0, 0, 0]	n/a	catFR1	2	R1488T
68.249	0.0	99122	START	n/a	n/a	n/a	n/a	-999	-1	[-999, -999, -999]	n/a	catFR1	2	R1488T
68.249	0.0	99122	PROB	0.0	n/a	n/a	n/a	-999	-1	[3, 7, 8]	18	catFR1	2	R1488T
68.248	0.001	99124	WORD_OFF	n/a	n/a	CALF	FarmAnimals	12	-1	[0, 0, 0]	n/a	catFR1	2	R1488T
68.249	0.0	99124	ENCODING_END	n/a	n/a	n/a	n/a	-999	-1	[0, 0, 0]	n/a	catFR1	2	R1488T
68.249	188.815	99124	DISTRACT_START	n/a	n/a	n/a	n/a	-999	-1	[0, 0, 0]	n/a	catFR1	2	R1488T
257.064	0.0	287927	STOP	n/a	n/a	n/a	n/a	-999	-1	[-999, -999, -999]	n/a	catFR1	2	R1488T
257.064	2.384	287934	DISTRACT_END	n/a	n/a	n/a	n/a	-999	-1	[0, 0, 0]	n/a	catFR1	2	R1488T
259.448	30.01	290314	REC_START	n/a	n/a	n/a	n/a	-999	-1	[0, 0, 0]	n/a	catFR1	2	R1488T
289.458	0.205	320320	REC_WORD_VV	0.205	n/a	<>	n/a	-999	-1	[0, 0, 0]	n/a	catFR1	2	R1488T
289.663	26.718	320528	REC_END	n/a	n/a	n/a	n/a	-999	-1	[0, 0, 0]	n/a	catFR1	2	R1488T
316.381	10.349	347246	COUNTDOWN_START	n/a	n/a	n/a	n/a	-999	1	[0, 0, 0]	n/a	catFR1	2	R1488T
326.73	0.0	357591	COUNTDOWN_END	n/a	n/a	n/a	n/a	-999	1	[0, 0, 0]	n/a	catFR1	2	R1488T
326.73	1.949	357591	ENCODING_START	n/a	n/a	n/a	n/a	-999	1	[0, 0, 0]	n/a	catFR1	2	R1488T
328.679	1.601	359538	WORD	n/a	wordpools/wordpool_categorized_EN.txt	EAR	BodyParts	1	1	[0, 0, 0]	n/a	catFR1	2	R1488T
330.28	0.901	361144	WORD_OFF	n/a	n/a	EAR	BodyParts	1	1	[0, 0, 0]	n/a	catFR1	2	R1488T
331.181	1.616	362041	WORD	n/a	wordpools/wordpool_categorized_EN.txt	EYE	BodyParts	2	1	[0, 0, 0]	n/a	catFR1	2	R1488T
332.797	0.832	363657	WORD_OFF	n/a	n/a	EYE	BodyParts	2	1	[0, 0, 0]	n/a	catFR1	2	R1488T
333.629	1.602	364488	WORD	n/a	wordpools/wordpool_categorized_EN.txt	TULIP	Flowers	3	1	[0, 0, 0]	n/a	catFR1	2	R1488T
335.231	0.999	366094	WORD_OFF	n/a	n/a	TULIP	Flowers	3	1	[0, 0, 0]	n/a	catFR1	2	R1488T
336.23	1.616	367096	WORD	n/a	wordpools/wordpool_categorized_EN.txt	ORCHID	Flowers	4	1	[0, 0, 0]	n/a	catFR1	2	R1488T
337.846	0.85	368711	WORD_OFF	n/a	n/a	ORCHID	Flowers	4	1	[0, 0, 0]	n/a	catFR1	2	R1488T
338.696	1.602	369562	WORD	n/a	wordpools/wordpool_categorized_EN.txt	LOBSTER	OceanAnimals	5	1	[0, 0, 0]	n/a	catFR1	2	R1488T
340.298	0.833	371158	WORD_OFF	n/a	n/a	LOBSTER	OceanAnimals	5	1	[0, 0, 0]	n/a	catFR1	2	R1488T
341.131	1.615	371990	WORD	n/a	wordpools/wordpool_categorized_EN.txt	SQUID	OceanAnimals	6	1	[0, 0, 0]	n/a	catFR1	2	R1488T
342.746	0.885	373605	WORD_OFF	n/a	n/a	SQUID	OceanAnimals	6	1	[0, 0, 0]	n/a	catFR1	2	R1488T
343.631	1.615	374493	WORD	n/a	wordpools/wordpool_categorized_EN.txt	ELBOW	BodyParts	7	1	[0, 0, 0]	n/a	catFR1	2	R1488T
345.246	0.917	376109	WORD_OFF	n/a	n/a	ELBOW	BodyParts	7	1	[0, 0, 0]	n/a	catFR1	2	R1488T
346.163	1.601	377025	WORD	n/a	wordpools/wordpool_categorized_EN.txt	HEAD	BodyParts	8	1	[0, 0, 0]	n/a	catFR1	2	R1488T
347.764	0.917	378631	WORD_OFF	n/a	n/a	HEAD	BodyParts	8	1	[0, 0, 0]	n/a	catFR1	2	R1488T
348.681	1.616	379538	WORD	n/a	wordpools/wordpool_categorized_EN.txt	FISH	OceanAnimals	9	1	[0, 0, 0]	n/a	catFR1	2	R1488T
350.297	0.901	381154	WORD_OFF	n/a	n/a	FISH	OceanAnimals	9	1	[0, 0, 0]	n/a	catFR1	2	R1488T
351.198	1.6	382061	WORD	n/a	wordpools/wordpool_categorized_EN.txt	OCTOPUS	OceanAnimals	10	1	[0, 0, 0]	n/a	catFR1	2	R1488T
352.798	0.831	383657	WORD_OFF	n/a	n/a	OCTOPUS	OceanAnimals	10	1	[0, 0, 0]	n/a	catFR1	2	R1488T
353.629	1.601	384489	WORD	n/a	wordpools/wordpool_categorized_EN.txt	PETUNIA	Flowers	11	1	[0, 0, 0]	n/a	catFR1	2	R1488T
355.23	0.851	386085	WORD_OFF	n/a	n/a	PETUNIA	Flowers	11	1	[0, 0, 0]	n/a	catFR1	2	R1488T
356.081	1.617	386945	WORD	n/a	wordpools/wordpool_categorized_EN.txt	ROSE	Flowers	12	1	[0, 0, 0]	n/a	catFR1	2	R1488T
357.698	0.001	388556	PROB	0.001	n/a	n/a	n/a	-999	1	[1, 5, 1]	7	catFR1	2	R1488T
357.699	0.0	388557	START	n/a	n/a	n/a	n/a	-999	1	[-999, -999, -999]	n/a	catFR1	2	R1488T
357.698	0.001	388561	WORD_OFF	n/a	n/a	ROSE	Flowers	12	1	[0, 0, 0]	n/a	catFR1	2	R1488T
357.699	0.0	388561	ENCODING_END	n/a	n/a	n/a	n/a	-999	1	[0, 0, 0]	n/a	catFR1	2	R1488T
357.699	6.899	388561	DISTRACT_START	n/a	n/a	n/a	n/a	-999	1	[0, 0, 0]	n/a	catFR1	2	R1488T
364.598	6.966	395456	PROB	6.966	n/a	n/a	n/a	-999	1	[1, 2, 1]	4	catFR1	2	R1488T
371.564	8.067	402421	PROB	8.067	n/a	n/a	n/a	-999	1	[6, 5, 4]	15	catFR1	2	R1488T
379.631	0.0	410488	STOP	n/a	n/a	n/a	n/a	-999	1	[-999, -999, -999]	n/a	catFR1	2	R1488T
379.631	2.133	410489	DISTRACT_END	n/a	n/a	n/a	n/a	-999	1	[0, 0, 0]	n/a	catFR1	2	R1488T
381.764	1.72	412622	REC_START	n/a	n/a	n/a	n/a	-999	1	[0, 0, 0]	n/a	catFR1	2	R1488T
383.484	0.888	414341	REC_WORD_VV	0.888	n/a	<>	n/a	-999	1	[0, 0, 0]	n/a	catFR1	2	R1488T
384.372	1.563	415229	REC_WORD	1.563	n/a	EAR	BodyParts	1	1	[0, 0, 0]	n/a	catFR1	2	R1488T
385.935	2.974	416792	REC_WORD	2.974	n/a	NOSE	n/a	-999	1	[0, 0, 0]	n/a	catFR1	2	R1488T
388.909	0.744	419766	REC_WORD	0.744	n/a	TULIP	Flowers	3	1	[0, 0, 0]	n/a	catFR1	2	R1488T
389.653	4.153	420510	REC_WORD	4.153	n/a	SQUID	OceanAnimals	6	1	[0, 0, 0]	n/a	catFR1	2	R1488T
393.806	4.887	424662	REC_WORD	4.887	n/a	OCTOPUS	OceanAnimals	10	1	[0, 0, 0]	n/a	catFR1	2	R1488T
398.693	11.84	429549	REC_WORD	11.84	n/a	TULIP	Flowers	3	1	[0, 0, 0]	n/a	catFR1	2	R1488T
410.533	1.0	441388	REC_WORD_VV	1.0	n/a	<>	n/a	-999	1	[0, 0, 0]	n/a	catFR1	2	R1488T
411.533	0.407	442388	REC_WORD_VV	0.407	n/a	<>	n/a	-999	1	[0, 0, 0]	n/a	catFR1	2	R1488T
411.94	2.757	442799	REC_END	n/a	n/a	n/a	n/a	-999	1	[0, 0, 0]	n/a	catFR1	2	R1488T
414.697	10.35	445558	COUNTDOWN_START	n/a	n/a	n/a	n/a	-999	2	[0, 0, 0]	n/a	catFR1	2	R1488T
425.047	0.0	455903	COUNTDOWN_END	n/a	n/a	n/a	n/a	-999	2	[0, 0, 0]	n/a	catFR1	2	R1488T
425.047	2.284	455903	ENCODING_START	n/a	n/a	n/a	n/a	-999	2	[0, 0, 0]	n/a	catFR1	2	R1488T
427.331	1.6	458190	WORD	n/a	wordpools/wordpool_categorized_EN.txt	MARBLES	Toys	1	2	[0, 0, 0]	n/a	catFR1	2	R1488T
428.931	0.95	459786	WORD_OFF	n/a	n/a	MARBLES	Toys	1	2	[0, 0, 0]	n/a	catFR1	2	R1488T
429.881	1.616	460741	WORD	n/a	wordpools/wordpool_categorized_EN.txt	BASKETBALL	Toys	2	2	[0, 0, 0]	n/a	catFR1	2	R1488T
431.497	0.917	462356	WORD_OFF	n/a	n/a	BASKETBALL	Toys	2	2	[0, 0, 0]	n/a	catFR1	2	R1488T
432.414	1.6	463272	WORD	n/a	wordpools/wordpool_categorized_EN.txt	LEG	BodyParts	3	2	[0, 0, 0]	n/a	catFR1	2	R1488T
434.014	0.934	464869	WORD_OFF	n/a	n/a	LEG	BodyParts	3	2	[0, 0, 0]	n/a	catFR1	2	R1488T
434.948	1.616	465804	WORD	n/a	wordpools/wordpool_categorized_EN.txt	NOSE	BodyParts	4	2	[0, 0, 0]	n/a	catFR1	2	R1488T
436.564	0.934	467420	WORD_OFF	n/a	n/a	NOSE	BodyParts	4	2	[0, 0, 0]	n/a	catFR1	2	R1488T
437.498	1.616	468355	WORD	n/a	wordpools/wordpool_categorized_EN.txt	CUPCAKE	Desserts	5	2	[0, 0, 0]	n/a	catFR1	2	R1488T
439.114	0.784	469971	WORD_OFF	n/a	n/a	CUPCAKE	Desserts	5	2	[0, 0, 0]	n/a	catFR1	2	R1488T
439.898	1.617	470755	WORD	n/a	wordpools/wordpool_categorized_EN.txt	JELLO	Desserts	6	2	[0, 0, 0]	n/a	catFR1	2	R1488T
441.515	0.883	472371	WORD_OFF	n/a	n/a	JELLO	Desserts	6	2	[0, 0, 0]	n/a	catFR1	2	R1488T
442.398	1.616	473249	WORD	n/a	wordpools/wordpool_categorized_EN.txt	FOOT	BodyParts	7	2	[0, 0, 0]	n/a	catFR1	2	R1488T
444.014	0.783	474874	WORD_OFF	n/a	n/a	FOOT	BodyParts	7	2	[0, 0, 0]	n/a	catFR1	2	R1488T
444.797	1.617	475658	WORD	n/a	wordpools/wordpool_categorized_EN.txt	TOE	BodyParts	8	2	[0, 0, 0]	n/a	catFR1	2	R1488T
446.414	0.767	477274	WORD_OFF	n/a	n/a	TOE	BodyParts	8	2	[0, 0, 0]	n/a	catFR1	2	R1488T
447.181	1.6	478039	WORD	n/a	wordpools/wordpool_categorized_EN.txt	SLINKY	Toys	9	2	[0, 0, 0]	n/a	catFR1	2	R1488T
448.781	0.85	479636	WORD_OFF	n/a	n/a	SLINKY	Toys	9	2	[0, 0, 0]	n/a	catFR1	2	R1488T
449.631	1.616	480486	WORD	n/a	wordpools/wordpool_categorized_EN.txt	BASEBALL	Toys	10	2	[0, 0, 0]	n/a	catFR1	2	R1488T
451.247	0.85	482102	WORD_OFF	n/a	n/a	BASEBALL	Toys	10	2	[0, 0, 0]	n/a	catFR1	2	R1488T
452.097	1.601	482952	WORD	n/a	wordpools/wordpool_categorized_EN.txt	PUDDING	Desserts	11	2	[0, 0, 0]	n/a	catFR1	2	R1488T
453.698	0.948	484548	WORD_OFF	n/a	n/a	PUDDING	Desserts	11	2	[0, 0, 0]	n/a	catFR1	2	R1488T
454.646	1.602	485503	WORD	n/a	wordpools/wordpool_categorized_EN.txt	CHEESECAKE	Desserts	12	2	[0, 0, 0]	n/a	catFR1	2	R1488T
456.248	0.001	487099	WORD_OFF	n/a	n/a	CHEESECAKE	Desserts	12	2	[0, 0, 0]	n/a	catFR1	2	R1488T
456.249	0.0	487099	ENCODING_END	n/a	n/a	n/a	n/a	-999	2	[0, 0, 0]	n/a	catFR1	2	R1488T
456.248	0.001	487101	PROB	0.001	n/a	n/a	n/a	-999	2	[3, 5, 4]	12	catFR1	2	R1488T
456.249	0.0	487102	START	n/a	n/a	n/a	n/a	-999	2	[-999, -999, -999]	n/a	catFR1	2	R1488T
456.249	10.616	487109	DISTRACT_START	n/a	n/a	n/a	n/a	-999	2	[0, 0, 0]	n/a	catFR1	2	R1488T
466.865	6.449	497717	PROB	6.449	n/a	n/a	n/a	-999	2	[6, 2, 3]	11	catFR1	2	R1488T
473.314	7.7	504166	PROB	7.7	n/a	n/a	n/a	-999	2	[6, 1, 8]	15	catFR1	2	R1488T
481.014	0.0	511866	STOP	n/a	n/a	n/a	n/a	-999	2	[-999, -999, -999]	n/a	catFR1	2	R1488T
481.014	2.2	511871	DISTRACT_END	n/a	n/a	n/a	n/a	-999	2	[0, 0, 0]	n/a	catFR1	2	R1488T
483.214	4.128	514071	REC_START	n/a	n/a	n/a	n/a	-999	2	[0, 0, 0]	n/a	catFR1	2	R1488T
487.342	0.616	518193	REC_WORD	0.616	n/a	MARBLES	Toys	1	2	[0, 0, 0]	n/a	catFR1	2	R1488T
487.958	3.95	518809	REC_WORD	3.95	n/a	BASKETBALL	Toys	2	2	[0, 0, 0]	n/a	catFR1	2	R1488T
491.908	1.556	522759	REC_WORD	1.556	n/a	LEG	BodyParts	3	2	[0, 0, 0]	n/a	catFR1	2	R1488T
493.464	5.794	524315	REC_WORD	5.794	n/a	CUPCAKE	Desserts	5	2	[0, 0, 0]	n/a	catFR1	2	R1488T
499.258	14.162	530109	REC_WORD	14.162	n/a	CHEESECAKE	Desserts	12	2	[0, 0, 0]	n/a	catFR1	2	R1488T
513.42	4.611	544276	REC_END	n/a	n/a	n/a	n/a	-999	2	[0, 0, 0]	n/a	catFR1	2	R1488T
518.031	10.349	548887	COUNTDOWN_START	n/a	n/a	n/a	n/a	-999	3	[0, 0, 0]	n/a	catFR1	2	R1488T
528.38	0.0	559232	COUNTDOWN_END	n/a	n/a	n/a	n/a	-999	3	[0, 0, 0]	n/a	catFR1	2	R1488T
528.38	2.218	559232	ENCODING_START	n/a	n/a	n/a	n/a	-999	3	[0, 0, 0]	n/a	catFR1	2	R1488T
530.598	1.6	561452	WORD	n/a	wordpools/wordpool_categorized_EN.txt	PASTRY	Desserts	1	3	[0, 0, 0]	n/a	catFR1	2	R1488T
532.198	0.999	563049	WORD_OFF	n/a	n/a	PASTRY	Desserts	1	3	[0, 0, 0]	n/a	catFR1	2	R1488T
533.197	1.601	564050	WORD	n/a	wordpools/wordpool_categorized_EN.txt	COOKIE	Desserts	2	3	[0, 0, 0]	n/a	catFR1	2	R1488T
534.798	0.933	565647	WORD_OFF	n/a	n/a	COOKIE	Desserts	2	3	[0, 0, 0]	n/a	catFR1	2	R1488T
535.731	1.6	566582	WORD	n/a	wordpools/wordpool_categorized_EN.txt	WOOL	Fabric	3	3	[0, 0, 0]	n/a	catFR1	2	R1488T
537.331	0.783	568179	WORD_OFF	n/a	n/a	WOOL	Fabric	3	3	[0, 0, 0]	n/a	catFR1	2	R1488T
538.114	1.617	568963	WORD	n/a	wordpools/wordpool_categorized_EN.txt	DENIM	Fabric	4	3	[0, 0, 0]	n/a	catFR1	2	R1488T
539.731	1.0	570578	WORD_OFF	n/a	n/a	DENIM	Fabric	4	3	[0, 0, 0]	n/a	catFR1	2	R1488T
540.731	1.617	571580	WORD	n/a	wordpools/wordpool_categorized_EN.txt	CROWBAR	Tools	5	3	[0, 0, 0]	n/a	catFR1	2	R1488T
542.348	0.833	573195	WORD_OFF	n/a	n/a	CROWBAR	Tools	5	3	[0, 0, 0]	n/a	catFR1	2	R1488T
543.181	1.6	574036	WORD	n/a	wordpools/wordpool_categorized_EN.txt	SHOVEL	Tools	6	3	[0, 0, 0]	n/a	catFR1	2	R1488T
544.781	0.9	575633	WORD_OFF	n/a	n/a	SHOVEL	Tools	6	3	[0, 0, 0]	n/a	catFR1	2	R1488T
545.681	1.616	576530	WORD	n/a	wordpools/wordpool_categorized_EN.txt	MOUSSE	Desserts	7	3	[0, 0, 0]	n/a	catFR1	2	R1488T
547.297	0.884	578155	WORD_OFF	n/a	n/a	MOUSSE	Desserts	7	3	[0, 0, 0]	n/a	catFR1	2	R1488T
548.181	1.6	579034	WORD	n/a	wordpools/wordpool_categorized_EN.txt	CAKE	Desserts	8	3	[0, 0, 0]	n/a	catFR1	2	R1488T
549.781	0.85	580631	WORD_OFF	n/a	n/a	CAKE	Desserts	8	3	[0, 0, 0]	n/a	catFR1	2	R1488T
550.631	1.6	581481	WORD	n/a	wordpools/wordpool_categorized_EN.txt	SCREWDRIVER	Tools	9	3	[0, 0, 0]	n/a	catFR1	2	R1488T
552.231	0.883	583078	WORD_OFF	n/a	n/a	SCREWDRIVER	Tools	9	3	[0, 0, 0]	n/a	catFR1	2	R1488T
553.114	1.617	583966	WORD	n/a	wordpools/wordpool_categorized_EN.txt	WRENCH	Tools	10	3	[0, 0, 0]	n/a	catFR1	2	R1488T
554.731	0.833	585581	WORD_OFF	n/a	n/a	WRENCH	Tools	10	3	[0, 0, 0]	n/a	catFR1	2	R1488T
555.564	1.6	586413	WORD	n/a	wordpools/wordpool_categorized_EN.txt	FLEECE	Fabric	11	3	[0, 0, 0]	n/a	catFR1	2	R1488T
557.164	0.933	588019	WORD_OFF	n/a	n/a	FLEECE	Fabric	11	3	[0, 0, 0]	n/a	catFR1	2	R1488T
558.097	1.617	588945	WORD	n/a	wordpools/wordpool_categorized_EN.txt	VELVET	Fabric	12	3	[0, 0, 0]	n/a	catFR1	2	R1488T
559.714	0.0	590560	WORD_OFF	n/a	n/a	VELVET	Fabric	12	3	[0, 0, 0]	n/a	catFR1	2	R1488T
559.714	0.002	590562	PROB	0.002	n/a	n/a	n/a	-999	3	[4, 6, 6]	16	catFR1	2	R1488T
559.716	0.0	590564	START	n/a	n/a	n/a	n/a	-999	3	[-999, -999, -999]	n/a	catFR1	2	R1488T
559.716	0.0	590570	ENCODING_END	n/a	n/a	n/a	n/a	-999	3	[0, 0, 0]	n/a	catFR1	2	R1488T
559.716	7.764	590570	DISTRACT_START	n/a	n/a	n/a	n/a	-999	3	[0, 0, 0]	n/a	catFR1	2	R1488T
567.48	8.602	598327	PROB	8.602	n/a	n/a	n/a	-999	3	[8, 4, 3]	15	catFR1	2	R1488T
576.082	14.065	606929	PROB	14.065	n/a	n/a	n/a	-999	3	[5, 7, 4]	16	catFR1	2	R1488T
590.147	0.0	620991	DISTRACT_END	n/a	n/a	n/a	n/a	-999	3	[0, 0, 0]	n/a	catFR1	2	R1488T
590.147	2.034	620993	STOP	n/a	n/a	n/a	n/a	-999	3	[-999, -999, -999]	n/a	catFR1	2	R1488T
592.181	1.098	623030	REC_START	n/a	n/a	n/a	n/a	-999	3	[0, 0, 0]	n/a	catFR1	2	R1488T
593.279	0.75	624125	REC_WORD	0.75	n/a	VELVET	Fabric	12	3	[0, 0, 0]	n/a	catFR1	2	R1488T
594.029	3.731	624875	REC_WORD	3.731	n/a	FLEECE	Fabric	11	3	[0, 0, 0]	n/a	catFR1	2	R1488T
597.76	0.748	628606	REC_WORD_VV	0.748	n/a	<>	n/a	-999	3	[0, 0, 0]	n/a	catFR1	2	R1488T
598.508	0.692	629354	REC_WORD	0.692	n/a	VELVET	Fabric	12	3	[0, 0, 0]	n/a	catFR1	2	R1488T
599.2	0.468	630046	REC_WORD	0.468	n/a	FLEECE	Fabric	11	3	[0, 0, 0]	n/a	catFR1	2	R1488T
599.668	7.684	630514	REC_WORD	7.684	n/a	WOOL	Fabric	3	3	[0, 0, 0]	n/a	catFR1	2	R1488T
607.352	2.795	638197	REC_WORD_VV	2.795	n/a	<>	n/a	-999	3	[0, 0, 0]	n/a	catFR1	2	R1488T
610.147	0.212	640992	REC_WORD	0.212	n/a	VELVET	Fabric	12	3	[0, 0, 0]	n/a	catFR1	2	R1488T
610.359	0.483	641204	REC_WORD	0.483	n/a	WOOL	Fabric	3	3	[0, 0, 0]	n/a	catFR1	2	R1488T
610.842	11.548	641687	REC_WORD	11.548	n/a	FLEECE	Fabric	11	3	[0, 0, 0]	n/a	catFR1	2	R1488T
622.39	6.108	653236	REC_END	n/a	n/a	n/a	n/a	-999	3	[0, 0, 0]	n/a	catFR1	2	R1488T
628.498	10.35	659348	COUNTDOWN_START	n/a	n/a	n/a	n/a	-999	4	[0, 0, 0]	n/a	catFR1	2	R1488T
638.848	0.0	669693	COUNTDOWN_END	n/a	n/a	n/a	n/a	-999	4	[0, 0, 0]	n/a	catFR1	2	R1488T
638.848	2.165	669693	ENCODING_START	n/a	n/a	n/a	n/a	-999	4	[0, 0, 0]	n/a	catFR1	2	R1488T
641.013	1.601	671857	WORD	n/a	wordpools/wordpool_categorized_EN.txt	FUDGE	Desserts	1	4	[0, 0, 0]	n/a	catFR1	2	R1488T
642.614	0.916	673463	WORD_OFF	n/a	n/a	FUDGE	Desserts	1	4	[0, 0, 0]	n/a	catFR1	2	R1488T
643.53	1.601	674379	WORD	n/a	wordpools/wordpool_categorized_EN.txt	BROWNIES	Desserts	2	4	[0, 0, 0]	n/a	catFR1	2	R1488T
645.131	0.883	675976	WORD_OFF	n/a	n/a	BROWNIES	Desserts	2	4	[0, 0, 0]	n/a	catFR1	2	R1488T
646.014	1.617	676864	WORD	n/a	wordpools/wordpool_categorized_EN.txt	CHAIR	Furniture	3	4	[0, 0, 0]	n/a	catFR1	2	R1488T
647.631	0.816	678480	WORD_OFF	n/a	n/a	CHAIR	Furniture	3	4	[0, 0, 0]	n/a	catFR1	2	R1488T
648.447	1.601	679292	WORD	n/a	wordpools/wordpool_categorized_EN.txt	SOFA	Furniture	4	4	[0, 0, 0]	n/a	catFR1	2	R1488T
650.048	0.933	680889	WORD_OFF	n/a	n/a	SOFA	Furniture	4	4	[0, 0, 0]	n/a	catFR1	2	R1488T
650.981	1.6	681824	WORD	n/a	wordpools/wordpool_categorized_EN.txt	KNEE	BodyParts	5	4	[0, 0, 0]	n/a	catFR1	2	R1488T
652.581	0.833	683430	WORD_OFF	n/a	n/a	KNEE	BodyParts	5	4	[0, 0, 0]	n/a	catFR1	2	R1488T
653.414	1.617	684262	WORD	n/a	wordpools/wordpool_categorized_EN.txt	HAND	BodyParts	6	4	[0, 0, 0]	n/a	catFR1	2	R1488T
655.031	0.833	685877	WORD_OFF	n/a	n/a	HAND	BodyParts	6	4	[0, 0, 0]	n/a	catFR1	2	R1488T
655.864	1.6	686709	WORD	n/a	wordpools/wordpool_categorized_EN.txt	PIE	Desserts	7	4	[0, 0, 0]	n/a	catFR1	2	R1488T
657.464	0.95	688305	WORD_OFF	n/a	n/a	PIE	Desserts	7	4	[0, 0, 0]	n/a	catFR1	2	R1488T
658.414	1.601	689259	WORD	n/a	wordpools/wordpool_categorized_EN.txt	COBBLER	Desserts	8	4	[0, 0, 0]	n/a	catFR1	2	R1488T
660.015	0.866	690856	WORD_OFF	n/a	n/a	COBBLER	Desserts	8	4	[0, 0, 0]	n/a	catFR1	2	R1488T
660.881	1.615	691725	WORD	n/a	wordpools/wordpool_categorized_EN.txt	FINGERS	BodyParts	9	4	[0, 0, 0]	n/a	catFR1	2	R1488T
662.496	0.835	693341	WORD_OFF	n/a	n/a	FINGERS	BodyParts	9	4	[0, 0, 0]	n/a	catFR1	2	R1488T
663.331	1.6	694172	WORD	n/a	wordpools/wordpool_categorized_EN.txt	ARM	BodyParts	10	4	[0, 0, 0]	n/a	catFR1	2	R1488T
664.931	0.933	695778	WORD_OFF	n/a	n/a	ARM	BodyParts	10	4	[0, 0, 0]	n/a	catFR1	2	R1488T
665.864	1.6	696704	WORD	n/a	wordpools/wordpool_categorized_EN.txt	DESK	Furniture	11	4	[0, 0, 0]	n/a	catFR1	2	R1488T
667.464	0.817	698310	WORD_OFF	n/a	n/a	DESK	Furniture	11	4	[0, 0, 0]	n/a	catFR1	2	R1488T
668.281	1.616	699123	WORD	n/a	wordpools/wordpool_categorized_EN.txt	NIGHTSTAND	Furniture	12	4	[0, 0, 0]	n/a	catFR1	2	R1488T
669.897	0.0	700738	WORD_OFF	n/a	n/a	NIGHTSTAND	Furniture	12	4	[0, 0, 0]	n/a	catFR1	2	R1488T
669.897	0.001	700739	PROB	0.001	n/a	n/a	n/a	-999	4	[2, 4, 2]	8	catFR1	2	R1488T
669.898	0.0	700740	START	n/a	n/a	n/a	n/a	-999	4	[-999, -999, -999]	n/a	catFR1	2	R1488T
669.898	0.0	700748	ENCODING_END	n/a	n/a	n/a	n/a	-999	4	[0, 0, 0]	n/a	catFR1	2	R1488T
669.898	6.633	700748	DISTRACT_START	n/a	n/a	n/a	n/a	-999	4	[0, 0, 0]	n/a	catFR1	2	R1488T
676.531	7.316	707373	PROB	7.316	n/a	n/a	n/a	-999	4	[7, 5, 8]	20	catFR1	2	R1488T
683.847	11.583	714688	PROB	11.583	n/a	n/a	n/a	-999	4	[5, 8, 4]	17	catFR1	2	R1488T
695.43	0.0	726271	STOP	n/a	n/a	n/a	n/a	-999	4	[-999, -999, -999]	n/a	catFR1	2	R1488T
695.43	2.401	726275	DISTRACT_END	n/a	n/a	n/a	n/a	-999	4	[0, 0, 0]	n/a	catFR1	2	R1488T
697.831	0.814	728673	REC_START	n/a	n/a	n/a	n/a	-999	4	[0, 0, 0]	n/a	catFR1	2	R1488T
698.645	1.593	729485	REC_WORD_VV	1.593	n/a	<>	n/a	-999	4	[0, 0, 0]	n/a	catFR1	2	R1488T
700.238	0.482	731078	REC_WORD	0.482	n/a	CHAIR	Furniture	3	4	[0, 0, 0]	n/a	catFR1	2	R1488T
700.72	0.636	731560	REC_WORD	0.636	n/a	SOFA	Furniture	4	4	[0, 0, 0]	n/a	catFR1	2	R1488T
701.356	0.668	732196	REC_WORD	0.668	n/a	FUDGE	Desserts	1	4	[0, 0, 0]	n/a	catFR1	2	R1488T
702.024	9.435	732864	REC_WORD	9.435	n/a	BROWNIES	Desserts	2	4	[0, 0, 0]	n/a	catFR1	2	R1488T
711.459	0.998	742299	REC_WORD_VV	0.998	n/a	<>	n/a	-999	4	[0, 0, 0]	n/a	catFR1	2	R1488T
712.457	2.675	743297	REC_WORD_VV	2.675	n/a	<>	n/a	-999	4	[0, 0, 0]	n/a	catFR1	2	R1488T
715.132	1.31	745972	REC_WORD	1.31	n/a	EATING	n/a	-999	4	[0, 0, 0]	n/a	catFR1	2	R1488T
716.442	1.219	747282	REC_WORD	1.219	n/a	FUDGE	Desserts	1	4	[0, 0, 0]	n/a	catFR1	2	R1488T
717.661	1.209	748500	REC_WORD	1.209	n/a	BROWNIES	Desserts	2	4	[0, 0, 0]	n/a	catFR1	2	R1488T
718.87	0.705	749709	REC_WORD	0.705	n/a	CHAIR	Furniture	3	4	[0, 0, 0]	n/a	catFR1	2	R1488T
719.575	8.45	750414	REC_WORD	8.45	n/a	SOFA	Furniture	4	4	[0, 0, 0]	n/a	catFR1	2	R1488T
728.025	4.173	758869	REC_END	n/a	n/a	n/a	n/a	-999	4	[0, 0, 0]	n/a	catFR1	2	R1488T
732.198	10.35	763045	COUNTDOWN_START	n/a	n/a	n/a	n/a	-999	5	[0, 0, 0]	n/a	catFR1	2	R1488T
742.548	0.0	773390	COUNTDOWN_END	n/a	n/a	n/a	n/a	-999	5	[0, 0, 0]	n/a	catFR1	2	R1488T
742.548	2.216	773390	ENCODING_START	n/a	n/a	n/a	n/a	-999	5	[0, 0, 0]	n/a	catFR1	2	R1488T
744.764	1.6	775601	WORD	n/a	wordpools/wordpool_categorized_EN.txt	FINCH	Birds	1	5	[0, 0, 0]	n/a	catFR1	2	R1488T
746.364	0.834	777207	WORD_OFF	n/a	n/a	FINCH	Birds	1	5	[0, 0, 0]	n/a	catFR1	2	R1488T
747.198	1.6	778039	WORD	n/a	wordpools/wordpool_categorized_EN.txt	HAWK	Birds	2	5	[0, 0, 0]	n/a	catFR1	2	R1488T
748.798	0.916	779635	WORD_OFF	n/a	n/a	HAWK	Birds	2	5	[0, 0, 0]	n/a	catFR1	2	R1488T
749.714	1.618	780552	WORD	n/a	wordpools/wordpool_categorized_EN.txt	ISLAND	Landscapes	3	5	[0, 0, 0]	n/a	catFR1	2	R1488T
751.332	0.782	782167	WORD_OFF	n/a	n/a	ISLAND	Landscapes	3	5	[0, 0, 0]	n/a	catFR1	2	R1488T
752.114	1.617	782951	WORD	n/a	wordpools/wordpool_categorized_EN.txt	WOODS	Landscapes	4	5	[0, 0, 0]	n/a	catFR1	2	R1488T
753.731	0.932	784567	WORD_OFF	n/a	n/a	WOODS	Landscapes	4	5	[0, 0, 0]	n/a	catFR1	2	R1488T
754.663	1.601	785502	WORD	n/a	wordpools/wordpool_categorized_EN.txt	CARROT	Vegetables	5	5	[0, 0, 0]	n/a	catFR1	2	R1488T
756.264	0.85	787108	WORD_OFF	n/a	n/a	CARROT	Vegetables	5	5	[0, 0, 0]	n/a	catFR1	2	R1488T
757.114	1.617	787949	WORD	n/a	wordpools/wordpool_categorized_EN.txt	CAULIFLOWER	Vegetables	6	5	[0, 0, 0]	n/a	catFR1	2	R1488T
758.731	0.85	789574	WORD_OFF	n/a	n/a	CAULIFLOWER	Vegetables	6	5	[0, 0, 0]	n/a	catFR1	2	R1488T
759.581	1.6	790424	WORD	n/a	wordpools/wordpool_categorized_EN.txt	RIVER	Landscapes	7	5	[0, 0, 0]	n/a	catFR1	2	R1488T
761.181	0.833	792021	WORD_OFF	n/a	n/a	RIVER	Landscapes	7	5	[0, 0, 0]	n/a	catFR1	2	R1488T
762.014	1.6	792852	WORD	n/a	wordpools/wordpool_categorized_EN.txt	STREAM	Landscapes	8	5	[0, 0, 0]	n/a	catFR1	2	R1488T
763.614	0.9	794449	WORD_OFF	n/a	n/a	STREAM	Landscapes	8	5	[0, 0, 0]	n/a	catFR1	2	R1488T
764.514	1.6	795356	WORD	n/a	wordpools/wordpool_categorized_EN.txt	BROCCOLI	Vegetables	9	5	[0, 0, 0]	n/a	catFR1	2	R1488T
766.114	1.0	796953	WORD_OFF	n/a	n/a	BROCCOLI	Vegetables	9	5	[0, 0, 0]	n/a	catFR1	2	R1488T
767.114	1.617	797954	WORD	n/a	wordpools/wordpool_categorized_EN.txt	CABBAGE	Vegetables	10	5	[0, 0, 0]	n/a	catFR1	2	R1488T
768.731	0.933	799570	WORD_OFF	n/a	n/a	CABBAGE	Vegetables	10	5	[0, 0, 0]	n/a	catFR1	2	R1488T
769.664	1.617	800505	WORD	n/a	wordpools/wordpool_categorized_EN.txt	GOOSE	Birds	11	5	[0, 0, 0]	n/a	catFR1	2	R1488T
771.281	0.917	802121	WORD_OFF	n/a	n/a	GOOSE	Birds	11	5	[0, 0, 0]	n/a	catFR1	2	R1488T
772.198	1.6	803037	WORD	n/a	wordpools/wordpool_categorized_EN.txt	BLUEBIRD	Birds	12	5	[0, 0, 0]	n/a	catFR1	2	R1488T
773.798	0.0	804634	WORD_OFF	n/a	n/a	BLUEBIRD	Birds	12	5	[0, 0, 0]	n/a	catFR1	2	R1488T
773.798	0.001	804634	PROB	0.001	n/a	n/a	n/a	-999	5	[8, 8, 1]	17	catFR1	2	R1488T
773.799	0.0	804635	START	n/a	n/a	n/a	n/a	-999	5	[-999, -999, -999]	n/a	catFR1	2	R1488T
773.799	0.0	804643	ENCODING_END	n/a	n/a	n/a	n/a	-999	5	[0, 0, 0]	n/a	catFR1	2	R1488T
773.799	5.532	804643	DISTRACT_START	n/a	n/a	n/a	n/a	-999	5	[0, 0, 0]	n/a	catFR1	2	R1488T
779.331	6.251	810167	PROB	6.251	n/a	n/a	n/a	-999	5	[7, 1, 7]	15	catFR1	2	R1488T
785.582	4.917	816418	PROB	4.917	n/a	n/a	n/a	-999	5	[3, 5, 1]	9	catFR1	2	R1488T
790.499	7.299	821335	PROB	7.299	n/a	n/a	n/a	-999	5	[4, 4, 5]	13	catFR1	2	R1488T
797.798	0.0	828631	DISTRACT_END	n/a	n/a	n/a	n/a	-999	5	[0, 0, 0]	n/a	catFR1	2	R1488T
797.798	2.233	828633	STOP	n/a	n/a	n/a	n/a	-999	5	[-999, -999, -999]	n/a	catFR1	2	R1488T
800.031	1.633	830868	REC_START	n/a	n/a	n/a	n/a	-999	5	[0, 0, 0]	n/a	catFR1	2	R1488T
801.664	0.286	832499	REC_WORD_VV	0.286	n/a	<>	n/a	-999	5	[0, 0, 0]	n/a	catFR1	2	R1488T
801.95	1.075	832785	REC_WORD	1.075	n/a	FINCH	Birds	1	5	[0, 0, 0]	n/a	catFR1	2	R1488T
803.025	1.043	833860	REC_WORD	1.043	n/a	HAWK	Birds	2	5	[0, 0, 0]	n/a	catFR1	2	R1488T
804.068	2.872	834903	REC_WORD	2.872	n/a	ISLAND	Landscapes	3	5	[0, 0, 0]	n/a	catFR1	2	R1488T
806.94	0.998	837775	REC_WORD	0.998	n/a	CAULIFLOWER	Vegetables	6	5	[0, 0, 0]	n/a	catFR1	2	R1488T
807.938	4.988	838773	REC_WORD	4.988	n/a	CAULIFLOWER	Vegetables	6	5	[0, 0, 0]	n/a	catFR1	2	R1488T
812.926	4.134	843760	REC_WORD	4.134	n/a	CABBAGE	Vegetables	10	5	[0, 0, 0]	n/a	catFR1	2	R1488T
817.06	13.171	847894	REC_WORD	13.171	n/a	CARROT	Vegetables	5	5	[0, 0, 0]	n/a	catFR1	2	R1488T
830.231	3.767	861064	REC_END	n/a	n/a	n/a	n/a	-999	5	[0, 0, 0]	n/a	catFR1	2	R1488T
833.998	10.349	864834	COUNTDOWN_START	n/a	n/a	n/a	n/a	-999	6	[0, 0, 0]	n/a	catFR1	2	R1488T
844.347	0.0	875179	COUNTDOWN_END	n/a	n/a	n/a	n/a	-999	6	[0, 0, 0]	n/a	catFR1	2	R1488T
844.347	2.001	875188	ENCODING_START	n/a	n/a	n/a	n/a	-999	6	[0, 0, 0]	n/a	catFR1	2	R1488T
846.348	1.616	877182	WORD	n/a	wordpools/wordpool_categorized_EN.txt	TEA	Beverages	1	6	[0, 0, 0]	n/a	catFR1	2	R1488T
847.964	0.8	878797	WORD_OFF	n/a	n/a	TEA	Beverages	1	6	[0, 0, 0]	n/a	catFR1	2	R1488T
848.764	1.616	879600	WORD	n/a	wordpools/wordpool_categorized_EN.txt	JUICE	Beverages	2	6	[0, 0, 0]	n/a	catFR1	2	R1488T
850.38	0.967	881216	WORD_OFF	n/a	n/a	JUICE	Beverages	2	6	[0, 0, 0]	n/a	catFR1	2	R1488T
851.347	1.601	882180	WORD	n/a	wordpools/wordpool_categorized_EN.txt	UNDERWEAR	Clothing	3	6	[0, 0, 0]	n/a	catFR1	2	R1488T
852.948	0.983	883786	WORD_OFF	n/a	n/a	UNDERWEAR	Clothing	3	6	[0, 0, 0]	n/a	catFR1	2	R1488T
853.931	1.615	884768	WORD	n/a	wordpools/wordpool_categorized_EN.txt	BLOUSE	Clothing	4	6	[0, 0, 0]	n/a	catFR1	2	R1488T
855.546	0.802	886384	WORD_OFF	n/a	n/a	BLOUSE	Clothing	4	6	[0, 0, 0]	n/a	catFR1	2	R1488T
856.348	1.6	887177	WORD	n/a	wordpools/wordpool_categorized_EN.txt	VALLEY	Landscapes	5	6	[0, 0, 0]	n/a	catFR1	2	R1488T
857.948	0.95	888784	WORD_OFF	n/a	n/a	VALLEY	Landscapes	5	6	[0, 0, 0]	n/a	catFR1	2	R1488T
858.898	1.616	889728	WORD	n/a	wordpools/wordpool_categorized_EN.txt	MOUNTAIN	Landscapes	6	6	[0, 0, 0]	n/a	catFR1	2	R1488T
860.514	0.817	891353	WORD_OFF	n/a	n/a	MOUNTAIN	Landscapes	6	6	[0, 0, 0]	n/a	catFR1	2	R1488T
861.331	1.6	892166	WORD	n/a	wordpools/wordpool_categorized_EN.txt	RUM	Beverages	7	6	[0, 0, 0]	n/a	catFR1	2	R1488T
862.931	0.8	893762	WORD_OFF	n/a	n/a	RUM	Beverages	7	6	[0, 0, 0]	n/a	catFR1	2	R1488T
863.731	1.6	894565	WORD	n/a	wordpools/wordpool_categorized_EN.txt	WATER	Beverages	8	6	[0, 0, 0]	n/a	catFR1	2	R1488T
865.331	0.8	896162	WORD_OFF	n/a	n/a	WATER	Beverages	8	6	[0, 0, 0]	n/a	catFR1	2	R1488T
866.131	1.6	896965	WORD	n/a	wordpools/wordpool_categorized_EN.txt	JACKET	Clothing	9	6	[0, 0, 0]	n/a	catFR1	2	R1488T
867.731	0.817	898562	WORD_OFF	n/a	n/a	JACKET	Clothing	9	6	[0, 0, 0]	n/a	catFR1	2	R1488T
868.548	1.618	899384	WORD	n/a	wordpools/wordpool_categorized_EN.txt	PANTS	Clothing	10	6	[0, 0, 0]	n/a	catFR1	2	R1488T
870.166	0.982	900999	WORD_OFF	n/a	n/a	PANTS	Clothing	10	6	[0, 0, 0]	n/a	catFR1	2	R1488T
871.148	1.6	901982	WORD	n/a	wordpools/wordpool_categorized_EN.txt	BEACH	Landscapes	11	6	[0, 0, 0]	n/a	catFR1	2	R1488T
872.748	0.983	903578	WORD_OFF	n/a	n/a	BEACH	Landscapes	11	6	[0, 0, 0]	n/a	catFR1	2	R1488T
873.731	1.601	904561	WORD	n/a	wordpools/wordpool_categorized_EN.txt	LAKE	Landscapes	12	6	[0, 0, 0]	n/a	catFR1	2	R1488T
875.332	0.001	906163	START	n/a	n/a	n/a	n/a	-999	6	[-999, -999, -999]	n/a	catFR1	2	R1488T
875.333	0.0	906164	PROB	0.0	n/a	n/a	n/a	-999	6	[7, 8, 8]	21	catFR1	2	R1488T
875.331	0.001	906167	WORD_OFF	n/a	n/a	LAKE	Landscapes	12	6	[0, 0, 0]	n/a	catFR1	2	R1488T
875.332	0.0	906167	ENCODING_END	n/a	n/a	n/a	n/a	-999	6	[0, 0, 0]	n/a	catFR1	2	R1488T
875.332	7.215	906167	DISTRACT_START	n/a	n/a	n/a	n/a	-999	6	[0, 0, 0]	n/a	catFR1	2	R1488T
882.547	7.084	913378	PROB	7.084	n/a	n/a	n/a	-999	6	[6, 2, 3]	11	catFR1	2	R1488T
889.631	8.766	920461	PROB	8.766	n/a	n/a	n/a	-999	6	[1, 4, 2]	7	catFR1	2	R1488T
898.397	0.0	929227	STOP	n/a	n/a	n/a	n/a	-999	6	[-999, -999, -999]	n/a	catFR1	2	R1488T
898.397	2.334	929229	DISTRACT_END	n/a	n/a	n/a	n/a	-999	6	[0, 0, 0]	n/a	catFR1	2	R1488T
900.731	7.243	931561	REC_START	n/a	n/a	n/a	n/a	-999	6	[0, 0, 0]	n/a	catFR1	2	R1488T
907.974	1.303	938804	REC_WORD_VV	1.303	n/a	<>	n/a	-999	6	[0, 0, 0]	n/a	catFR1	2	R1488T
909.277	14.891	940106	REC_WORD	14.891	n/a	TEA	Beverages	1	6	[0, 0, 0]	n/a	catFR1	2	R1488T
924.168	4.291	954997	REC_WORD_VV	4.291	n/a	<>	n/a	-999	6	[0, 0, 0]	n/a	catFR1	2	R1488T
928.459	1.453	959287	REC_WORD_VV	1.453	n/a	<>	n/a	-999	6	[0, 0, 0]	n/a	catFR1	2	R1488T
929.912	1.033	960740	REC_WORD	1.033	n/a	TEA	Beverages	1	6	[0, 0, 0]	n/a	catFR1	2	R1488T
930.945	17.303	961776	REC_END	n/a	n/a	n/a	n/a	-999	6	[0, 0, 0]	n/a	catFR1	2	R1488T
948.248	10.349	979084	COUNTDOWN_START	n/a	n/a	n/a	n/a	-999	7	[0, 0, 0]	n/a	catFR1	2	R1488T
958.597	0.0	989429	COUNTDOWN_END	n/a	n/a	n/a	n/a	-999	7	[0, 0, 0]	n/a	catFR1	2	R1488T
958.597	2.217	989429	ENCODING_START	n/a	n/a	n/a	n/a	-999	7	[0, 0, 0]	n/a	catFR1	2	R1488T
960.814	1.617	991640	WORD	n/a	wordpools/wordpool_categorized_EN.txt	COFFEE	Beverages	1	7	[0, 0, 0]	n/a	catFR1	2	R1488T
962.431	0.766	993255	WORD_OFF	n/a	n/a	COFFEE	Beverages	1	7	[0, 0, 0]	n/a	catFR1	2	R1488T
963.197	1.601	994030	WORD	n/a	wordpools/wordpool_categorized_EN.txt	WINE	Beverages	2	7	[0, 0, 0]	n/a	catFR1	2	R1488T
964.798	0.883	995627	WORD_OFF	n/a	n/a	WINE	Beverages	2	7	[0, 0, 0]	n/a	catFR1	2	R1488T
965.681	1.617	996515	WORD	n/a	wordpools/wordpool_categorized_EN.txt	GRAPE	Fruit	3	7	[0, 0, 0]	n/a	catFR1	2	R1488T
967.298	0.8	998130	WORD_OFF	n/a	n/a	GRAPE	Fruit	3	7	[0, 0, 0]	n/a	catFR1	2	R1488T
968.098	1.616	998924	WORD	n/a	wordpools/wordpool_categorized_EN.txt	APPLE	Fruit	4	7	[0, 0, 0]	n/a	catFR1	2	R1488T
969.714	0.8	1000539	WORD_OFF	n/a	n/a	APPLE	Fruit	4	7	[0, 0, 0]	n/a	catFR1	2	R1488T
970.514	1.6	1001342	WORD	n/a	wordpools/wordpool_categorized_EN.txt	VACUUM	Appliances	5	7	[0, 0, 0]	n/a	catFR1	2	R1488T
972.114	1.0	1002939	WORD_OFF	n/a	n/a	VACUUM	Appliances	5	7	[0, 0, 0]	n/a	catFR1	2	R1488T
973.114	1.616	1003940	WORD	n/a	wordpools/wordpool_categorized_EN.txt	IRON	Appliances	6	7	[0, 0, 0]	n/a	catFR1	2	R1488T
974.73	0.784	1005556	WORD_OFF	n/a	n/a	IRON	Appliances	6	7	[0, 0, 0]	n/a	catFR1	2	R1488T
975.514	1.6	1006340	WORD	n/a	wordpools/wordpool_categorized_EN.txt	PEAR	Fruit	7	7	[0, 0, 0]	n/a	catFR1	2	R1488T
977.114	0.884	1007946	WORD_OFF	n/a	n/a	PEAR	Fruit	7	7	[0, 0, 0]	n/a	catFR1	2	R1488T
977.998	1.617	1008825	WORD	n/a	wordpools/wordpool_categorized_EN.txt	STRAWBERRY	Fruit	8	7	[0, 0, 0]	n/a	catFR1	2	R1488T
979.615	0.983	1010440	WORD_OFF	n/a	n/a	STRAWBERRY	Fruit	8	7	[0, 0, 0]	n/a	catFR1	2	R1488T
980.598	1.6	1011423	WORD	n/a	wordpools/wordpool_categorized_EN.txt	BLENDER	Appliances	9	7	[0, 0, 0]	n/a	catFR1	2	R1488T
982.198	0.883	1013029	WORD_OFF	n/a	n/a	BLENDER	Appliances	9	7	[0, 0, 0]	n/a	catFR1	2	R1488T
983.081	1.617	1013908	WORD	n/a	wordpools/wordpool_categorized_EN.txt	OVEN	Appliances	10	7	[0, 0, 0]	n/a	catFR1	2	R1488T
984.698	0.9	1015523	WORD_OFF	n/a	n/a	OVEN	Appliances	10	7	[0, 0, 0]	n/a	catFR1	2	R1488T
985.598	1.6	1016430	WORD	n/a	wordpools/wordpool_categorized_EN.txt	CIDER	Beverages	11	7	[0, 0, 0]	n/a	catFR1	2	R1488T
987.198	0.983	1018027	WORD_OFF	n/a	n/a	CIDER	Beverages	11	7	[0, 0, 0]	n/a	catFR1	2	R1488T
988.181	1.6	1019009	WORD	n/a	wordpools/wordpool_categorized_EN.txt	MILK	Beverages	12	7	[0, 0, 0]	n/a	catFR1	2	R1488T
989.781	0.002	1020606	WORD_OFF	n/a	n/a	MILK	Beverages	12	7	[0, 0, 0]	n/a	catFR1	2	R1488T
989.783	0.0	1020606	ENCODING_END	n/a	n/a	n/a	n/a	-999	7	[0, 0, 0]	n/a	catFR1	2	R1488T
989.783	0.0	1020606	DISTRACT_START	n/a	n/a	n/a	n/a	-999	7	[0, 0, 0]	n/a	catFR1	2	R1488T
989.782	0.001	1020607	PROB	0.001	n/a	n/a	n/a	-999	7	[7, 7, 1]	15	catFR1	2	R1488T
989.783	5.798	1020608	START	n/a	n/a	n/a	n/a	-999	7	[-999, -999, -999]	n/a	catFR1	2	R1488T
995.581	5.2	1026406	PROB	5.2	n/a	n/a	n/a	-999	7	[8, 8, 8]	24	catFR1	2	R1488T
1000.781	8.133	1031606	PROB	8.133	n/a	n/a	n/a	-999	7	[4, 5, 1]	10	catFR1	2	R1488T
1008.914	9.116	1039738	PROB	9.116	n/a	n/a	n/a	-999	7	[4, 5, 5]	14	catFR1	2	R1488T
1018.03	0.0	1048854	DISTRACT_END	n/a	n/a	n/a	n/a	-999	7	[0, 0, 0]	n/a	catFR1	2	R1488T
1018.03	2.134	1048854	STOP	n/a	n/a	n/a	n/a	-999	7	[-999, -999, -999]	n/a	catFR1	2	R1488T
1020.164	1.081	1050988	REC_START	n/a	n/a	n/a	n/a	-999	7	[0, 0, 0]	n/a	catFR1	2	R1488T
1021.245	0.681	1052069	REC_WORD	0.681	n/a	MILK	Beverages	12	7	[0, 0, 0]	n/a	catFR1	2	R1488T
1021.926	7.457	1052750	REC_WORD	7.457	n/a	CIDER	Beverages	11	7	[0, 0, 0]	n/a	catFR1	2	R1488T
1029.383	0.401	1060206	REC_WORD_VV	0.401	n/a	<>	n/a	-999	7	[0, 0, 0]	n/a	catFR1	2	R1488T
1029.784	0.202	1060607	REC_WORD	0.202	n/a	TEA	Beverages	-999	7	[0, 0, 0]	n/a	catFR1	2	R1488T
1029.986	0.998	1060809	REC_WORD_VV	0.998	n/a	<>	n/a	-999	7	[0, 0, 0]	n/a	catFR1	2	R1488T
1030.984	0.446	1061807	REC_WORD_VV	0.446	n/a	<>	n/a	-999	7	[0, 0, 0]	n/a	catFR1	2	R1488T
1031.43	1.478	1062253	REC_WORD_VV	1.478	n/a	<>	n/a	-999	7	[0, 0, 0]	n/a	catFR1	2	R1488T
1032.908	0.317	1063731	REC_WORD	0.317	n/a	MILK	Beverages	12	7	[0, 0, 0]	n/a	catFR1	2	R1488T
1033.225	0.236	1064048	REC_WORD	0.236	n/a	TEA	Beverages	-999	7	[0, 0, 0]	n/a	catFR1	2	R1488T
1033.461	3.37	1064284	REC_WORD	3.37	n/a	VALLEY	Landscapes	-999	7	[0, 0, 0]	n/a	catFR1	2	R1488T
1036.831	8.147	1067654	REC_WORD	8.147	n/a	CIDER	Beverages	11	7	[0, 0, 0]	n/a	catFR1	2	R1488T
1044.978	0.997	1075800	REC_WORD	0.997	n/a	STRAWBERRY	Fruit	8	7	[0, 0, 0]	n/a	catFR1	2	R1488T
1045.975	4.385	1076797	REC_WORD	4.385	n/a	STRAWBERRY	Fruit	8	7	[0, 0, 0]	n/a	catFR1	2	R1488T
1050.36	4.004	1081184	REC_END	n/a	n/a	n/a	n/a	-999	7	[0, 0, 0]	n/a	catFR1	2	R1488T
1054.364	10.35	1085190	COUNTDOWN_START	n/a	n/a	n/a	n/a	-999	8	[0, 0, 0]	n/a	catFR1	2	R1488T
1064.714	0.0	1095535	COUNTDOWN_END	n/a	n/a	n/a	n/a	-999	8	[0, 0, 0]	n/a	catFR1	2	R1488T
1064.714	2.167	1095535	ENCODING_START	n/a	n/a	n/a	n/a	-999	8	[0, 0, 0]	n/a	catFR1	2	R1488T
1066.881	1.614	1097708	WORD	n/a	wordpools/wordpool_categorized_EN.txt	WHALE	OceanAnimals	1	8	[0, 0, 0]	n/a	catFR1	2	R1488T
1068.495	0.769	1099314	WORD_OFF	n/a	n/a	WHALE	OceanAnimals	1	8	[0, 0, 0]	n/a	catFR1	2	R1488T
1069.264	1.6	1100089	WORD	n/a	wordpools/wordpool_categorized_EN.txt	CRAB	OceanAnimals	2	8	[0, 0, 0]	n/a	catFR1	2	R1488T
1070.864	0.834	1101685	WORD_OFF	n/a	n/a	CRAB	OceanAnimals	2	8	[0, 0, 0]	n/a	catFR1	2	R1488T
1071.698	1.616	1102517	WORD	n/a	wordpools/wordpool_categorized_EN.txt	DOLLHOUSE	Toys	3	8	[0, 0, 0]	n/a	catFR1	2	R1488T
1073.314	0.834	1104142	WORD_OFF	n/a	n/a	DOLLHOUSE	Toys	3	8	[0, 0, 0]	n/a	catFR1	2	R1488T
1074.148	1.616	1104973	WORD	n/a	wordpools/wordpool_categorized_EN.txt	BLOCKS	Toys	4	8	[0, 0, 0]	n/a	catFR1	2	R1488T
1075.764	0.983	1106589	WORD_OFF	n/a	n/a	BLOCKS	Toys	4	8	[0, 0, 0]	n/a	catFR1	2	R1488T
1076.747	1.617	1107571	WORD	n/a	wordpools/wordpool_categorized_EN.txt	FREEZER	Appliances	5	8	[0, 0, 0]	n/a	catFR1	2	R1488T
1078.364	0.801	1109187	WORD_OFF	n/a	n/a	FREEZER	Appliances	5	8	[0, 0, 0]	n/a	catFR1	2	R1488T
1079.165	1.616	1109990	WORD	n/a	wordpools/wordpool_categorized_EN.txt	DISHWASHER	Appliances	6	8	[0, 0, 0]	n/a	catFR1	2	R1488T
1080.781	0.917	1111605	WORD_OFF	n/a	n/a	DISHWASHER	Appliances	6	8	[0, 0, 0]	n/a	catFR1	2	R1488T
1081.698	1.6	1112522	WORD	n/a	wordpools/wordpool_categorized_EN.txt	BARBIE	Toys	7	8	[0, 0, 0]	n/a	catFR1	2	R1488T
1083.298	0.933	1114119	WORD_OFF	n/a	n/a	BARBIE	Toys	7	8	[0, 0, 0]	n/a	catFR1	2	R1488T
1084.231	1.6	1115054	WORD	n/a	wordpools/wordpool_categorized_EN.txt	FRISBEE	Toys	8	8	[0, 0, 0]	n/a	catFR1	2	R1488T
1085.831	0.933	1116651	WORD_OFF	n/a	n/a	FRISBEE	Toys	8	8	[0, 0, 0]	n/a	catFR1	2	R1488T
1086.764	1.6	1117586	WORD	n/a	wordpools/wordpool_categorized_EN.txt	PLANKTON	OceanAnimals	9	8	[0, 0, 0]	n/a	catFR1	2	R1488T
1088.364	0.767	1119182	WORD_OFF	n/a	n/a	PLANKTON	OceanAnimals	9	8	[0, 0, 0]	n/a	catFR1	2	R1488T
1089.131	1.617	1119957	WORD	n/a	wordpools/wordpool_categorized_EN.txt	JELLYFISH	OceanAnimals	10	8	[0, 0, 0]	n/a	catFR1	2	R1488T
1090.748	0.883	1121573	WORD_OFF	n/a	n/a	JELLYFISH	OceanAnimals	10	8	[0, 0, 0]	n/a	catFR1	2	R1488T
1091.631	1.617	1122451	WORD	n/a	wordpools/wordpool_categorized_EN.txt	MIXER	Appliances	11	8	[0, 0, 0]	n/a	catFR1	2	R1488T
1093.248	0.95	1124067	WORD_OFF	n/a	n/a	MIXER	Appliances	11	8	[0, 0, 0]	n/a	catFR1	2	R1488T
1094.198	1.615	1125021	WORD	n/a	wordpools/wordpool_categorized_EN.txt	TOASTER	Appliances	12	8	[0, 0, 0]	n/a	catFR1	2	R1488T
1095.813	0.0	1126633	START	n/a	n/a	n/a	n/a	-999	8	[-999, -999, -999]	n/a	catFR1	2	R1488T
1095.813	0.0	1126633	PROB	0.0	n/a	n/a	n/a	-999	8	[7, 2, 2]	11	catFR1	2	R1488T
1095.812	0.001	1126637	WORD_OFF	n/a	n/a	TOASTER	Appliances	12	8	[0, 0, 0]	n/a	catFR1	2	R1488T
1095.813	0.0	1126637	ENCODING_END	n/a	n/a	n/a	n/a	-999	8	[0, 0, 0]	n/a	catFR1	2	R1488T
1095.813	5.568	1126637	DISTRACT_START	n/a	n/a	n/a	n/a	-999	8	[0, 0, 0]	n/a	catFR1	2	R1488T
1101.381	7.568	1132200	PROB	7.568	n/a	n/a	n/a	-999	8	[2, 7, 2]	11	catFR1	2	R1488T
1108.949	7.149	1139768	PROB	7.149	n/a	n/a	n/a	-999	8	[6, 8, 4]	18	catFR1	2	R1488T
1116.098	0.0	1146917	STOP	n/a	n/a	n/a	n/a	-999	8	[-999, -999, -999]	n/a	catFR1	2	R1488T
1116.098	2.301	1146921	DISTRACT_END	n/a	n/a	n/a	n/a	-999	8	[0, 0, 0]	n/a	catFR1	2	R1488T
1118.399	5.644	1149224	REC_START	n/a	n/a	n/a	n/a	-999	8	[0, 0, 0]	n/a	catFR1	2	R1488T
1124.043	5.269	1154861	REC_WORD	5.269	n/a	WHALE	OceanAnimals	1	8	[0, 0, 0]	n/a	catFR1	2	R1488T
1129.312	19.307	1160130	REC_WORD	19.307	n/a	FLOCK	n/a	-999	8	[0, 0, 0]	n/a	catFR1	2	R1488T
1148.619	5.212	1179439	REC_END	n/a	n/a	n/a	n/a	-999	8	[0, 0, 0]	n/a	catFR1	2	R1488T
1153.831	10.349	1184654	COUNTDOWN_START	n/a	n/a	n/a	n/a	-999	9	[0, 0, 0]	n/a	catFR1	2	R1488T
1164.18	0.0	1195000	COUNTDOWN_END	n/a	n/a	n/a	n/a	-999	9	[0, 0, 0]	n/a	catFR1	2	R1488T
1164.18	2.101	1195000	ENCODING_START	n/a	n/a	n/a	n/a	-999	9	[0, 0, 0]	n/a	catFR1	2	R1488T
1166.281	1.617	1197106	WORD	n/a	wordpools/wordpool_categorized_EN.txt	FOREST	Landscapes	1	9	[0, 0, 0]	n/a	catFR1	2	R1488T
1167.898	0.95	1198712	WORD_OFF	n/a	n/a	FOREST	Landscapes	1	9	[0, 0, 0]	n/a	catFR1	2	R1488T
1168.848	1.6	1199667	WORD	n/a	wordpools/wordpool_categorized_EN.txt	OCEAN	Landscapes	2	9	[0, 0, 0]	n/a	catFR1	2	R1488T
1170.448	0.966	1201263	WORD_OFF	n/a	n/a	OCEAN	Landscapes	2	9	[0, 0, 0]	n/a	catFR1	2	R1488T
1171.414	1.6	1202236	WORD	n/a	wordpools/wordpool_categorized_EN.txt	TROMBONE	Instruments	3	9	[0, 0, 0]	n/a	catFR1	2	R1488T
1173.014	0.983	1203833	WORD_OFF	n/a	n/a	TROMBONE	Instruments	3	9	[0, 0, 0]	n/a	catFR1	2	R1488T
1173.997	1.601	1204816	WORD	n/a	wordpools/wordpool_categorized_EN.txt	ORGAN	Instruments	4	9	[0, 0, 0]	n/a	catFR1	2	R1488T
1175.598	0.783	1206412	WORD_OFF	n/a	n/a	ORGAN	Instruments	4	9	[0, 0, 0]	n/a	catFR1	2	R1488T
1176.381	1.6	1207196	WORD	n/a	wordpools/wordpool_categorized_EN.txt	PEACH	Fruit	5	9	[0, 0, 0]	n/a	catFR1	2	R1488T
1177.981	0.816	1208803	WORD_OFF	n/a	n/a	PEACH	Fruit	5	9	[0, 0, 0]	n/a	catFR1	2	R1488T
1178.797	1.601	1209615	WORD	n/a	wordpools/wordpool_categorized_EN.txt	ORANGE	Fruit	6	9	[0, 0, 0]	n/a	catFR1	2	R1488T
1180.398	0.799	1211221	WORD_OFF	n/a	n/a	ORANGE	Fruit	6	9	[0, 0, 0]	n/a	catFR1	2	R1488T
1181.197	1.601	1212015	WORD	n/a	wordpools/wordpool_categorized_EN.txt	PIANO	Instruments	7	9	[0, 0, 0]	n/a	catFR1	2	R1488T
1182.798	0.766	1213611	WORD_OFF	n/a	n/a	PIANO	Instruments	7	9	[0, 0, 0]	n/a	catFR1	2	R1488T
1183.564	1.617	1214386	WORD	n/a	wordpools/wordpool_categorized_EN.txt	DRUM	Instruments	8	9	[0, 0, 0]	n/a	catFR1	2	R1488T
1185.181	0.816	1216002	WORD_OFF	n/a	n/a	DRUM	Instruments	8	9	[0, 0, 0]	n/a	catFR1	2	R1488T
1185.997	1.617	1216814	WORD	n/a	wordpools/wordpool_categorized_EN.txt	CHERRY	Fruit	9	9	[0, 0, 0]	n/a	catFR1	2	R1488T
1187.614	1.0	1218430	WORD_OFF	n/a	n/a	CHERRY	Fruit	9	9	[0, 0, 0]	n/a	catFR1	2	R1488T
1188.614	1.6	1219431	WORD	n/a	wordpools/wordpool_categorized_EN.txt	PLUM	Fruit	10	9	[0, 0, 0]	n/a	catFR1	2	R1488T
1190.214	0.834	1221028	WORD_OFF	n/a	n/a	PLUM	Fruit	10	9	[0, 0, 0]	n/a	catFR1	2	R1488T
1191.048	1.6	1221869	WORD	n/a	wordpools/wordpool_categorized_EN.txt	CREEK	Landscapes	11	9	[0, 0, 0]	n/a	catFR1	2	R1488T
1192.648	0.849	1223465	WORD_OFF	n/a	n/a	CREEK	Landscapes	11	9	[0, 0, 0]	n/a	catFR1	2	R1488T
1193.497	1.617	1224315	WORD	n/a	wordpools/wordpool_categorized_EN.txt	HILLS	Landscapes	12	9	[0, 0, 0]	n/a	catFR1	2	R1488T
1195.114	0.001	1225929	PROB	0.001	n/a	n/a	n/a	-999	9	[5, 8, 6]	19	catFR1	2	R1488T
1195.115	0.0	1225930	START	n/a	n/a	n/a	n/a	-999	9	[-999, -999, -999]	n/a	catFR1	2	R1488T
1195.114	0.001	1225931	WORD_OFF	n/a	n/a	HILLS	Landscapes	12	9	[0, 0, 0]	n/a	catFR1	2	R1488T
1195.115	0.0	1225931	ENCODING_END	n/a	n/a	n/a	n/a	-999	9	[0, 0, 0]	n/a	catFR1	2	R1488T
1195.115	6.95	1225931	DISTRACT_START	n/a	n/a	n/a	n/a	-999	9	[0, 0, 0]	n/a	catFR1	2	R1488T
1202.065	5.233	1232879	PROB	5.233	n/a	n/a	n/a	-999	9	[1, 4, 7]	12	catFR1	2	R1488T
1207.298	8.933	1238112	PROB	8.933	n/a	n/a	n/a	-999	9	[7, 4, 2]	12	catFR1	2	R1488T
1216.231	0.0	1247044	STOP	n/a	n/a	n/a	n/a	-999	9	[-999, -999, -999]	n/a	catFR1	2	R1488T
1216.231	2.15	1247046	DISTRACT_END	n/a	n/a	n/a	n/a	-999	9	[0, 0, 0]	n/a	catFR1	2	R1488T
1218.381	0.822	1249199	REC_START	n/a	n/a	n/a	n/a	-999	9	[0, 0, 0]	n/a	catFR1	2	R1488T
1219.203	0.725	1250016	REC_WORD_VV	0.725	n/a	<>	n/a	-999	9	[0, 0, 0]	n/a	catFR1	2	R1488T
1219.928	3.706	1250741	REC_WORD	3.706	n/a	TROMBONE	Instruments	3	9	[0, 0, 0]	n/a	catFR1	2	R1488T
1223.634	5.656	1254447	REC_WORD	5.656	n/a	ORANGE	Fruit	6	9	[0, 0, 0]	n/a	catFR1	2	R1488T
1229.29	6.485	1260103	REC_WORD	6.485	n/a	ORGANIC	n/a	-999	9	[0, 0, 0]	n/a	catFR1	2	R1488T
1235.775	10.516	1266587	REC_WORD	10.516	n/a	CHERRY	Fruit	9	9	[0, 0, 0]	n/a	catFR1	2	R1488T
1246.291	0.652	1277103	REC_WORD_VV	0.652	n/a	<>	n/a	-999	9	[0, 0, 0]	n/a	catFR1	2	R1488T
1246.943	1.638	1277755	REC_WORD	1.638	n/a	FISH	OceanAnimals	-999	9	[0, 0, 0]	n/a	catFR1	2	R1488T
1248.581	5.383	1279395	REC_END	n/a	n/a	n/a	n/a	-999	9	[0, 0, 0]	n/a	catFR1	2	R1488T
1253.964	10.35	1284780	COUNTDOWN_START	n/a	n/a	n/a	n/a	-999	10	[0, 0, 0]	n/a	catFR1	2	R1488T
1264.314	0.0	1295125	COUNTDOWN_END	n/a	n/a	n/a	n/a	-999	10	[0, 0, 0]	n/a	catFR1	2	R1488T
1264.314	2.25	1295125	ENCODING_START	n/a	n/a	n/a	n/a	-999	10	[0, 0, 0]	n/a	catFR1	2	R1488T
1266.564	1.6	1297374	WORD	n/a	wordpools/wordpool_categorized_EN.txt	CUCUMBER	Vegetables	1	10	[0, 0, 0]	n/a	catFR1	2	R1488T
1268.164	0.784	1298980	WORD_OFF	n/a	n/a	CUCUMBER	Vegetables	1	10	[0, 0, 0]	n/a	catFR1	2	R1488T
1268.948	1.616	1299764	WORD	n/a	wordpools/wordpool_categorized_EN.txt	CELERY	Vegetables	2	10	[0, 0, 0]	n/a	catFR1	2	R1488T
1270.564	1.0	1301380	WORD_OFF	n/a	n/a	CELERY	Vegetables	2	10	[0, 0, 0]	n/a	catFR1	2	R1488T
1271.564	1.6	1302381	WORD	n/a	wordpools/wordpool_categorized_EN.txt	BALL	Toys	3	10	[0, 0, 0]	n/a	catFR1	2	R1488T
1273.164	0.85	1303978	WORD_OFF	n/a	n/a	BALL	Toys	3	10	[0, 0, 0]	n/a	catFR1	2	R1488T
1274.014	1.6	1304828	WORD	n/a	wordpools/wordpool_categorized_EN.txt	PUZZLE	Toys	4	10	[0, 0, 0]	n/a	catFR1	2	R1488T
1275.614	0.883	1306425	WORD_OFF	n/a	n/a	PUZZLE	Toys	4	10	[0, 0, 0]	n/a	catFR1	2	R1488T
1276.497	1.601	1307313	WORD	n/a	wordpools/wordpool_categorized_EN.txt	LEMONADE	Beverages	5	10	[0, 0, 0]	n/a	catFR1	2	R1488T
1278.098	0.866	1308909	WORD_OFF	n/a	n/a	LEMONADE	Beverages	5	10	[0, 0, 0]	n/a	catFR1	2	R1488T
1278.964	1.617	1309779	WORD	n/a	wordpools/wordpool_categorized_EN.txt	SODA	Beverages	6	10	[0, 0, 0]	n/a	catFR1	2	R1488T
1280.581	0.95	1311394	WORD_OFF	n/a	n/a	SODA	Beverages	6	10	[0, 0, 0]	n/a	catFR1	2	R1488T
1281.531	1.6	1312340	WORD	n/a	wordpools/wordpool_categorized_EN.txt	FOOTBALL	Toys	7	10	[0, 0, 0]	n/a	catFR1	2	R1488T
1283.131	0.867	1313945	WORD_OFF	n/a	n/a	FOOTBALL	Toys	7	10	[0, 0, 0]	n/a	catFR1	2	R1488T
1283.998	1.6	1314814	WORD	n/a	wordpools/wordpool_categorized_EN.txt	DOLL	Toys	8	10	[0, 0, 0]	n/a	catFR1	2	R1488T
1285.598	1.0	1316411	WORD_OFF	n/a	n/a	DOLL	Toys	8	10	[0, 0, 0]	n/a	catFR1	2	R1488T
1286.598	1.6	1317412	WORD	n/a	wordpools/wordpool_categorized_EN.txt	POTATO	Vegetables	9	10	[0, 0, 0]	n/a	catFR1	2	R1488T
1288.198	1.0	1319009	WORD_OFF	n/a	n/a	POTATO	Vegetables	9	10	[0, 0, 0]	n/a	catFR1	2	R1488T
1289.198	1.616	1320010	WORD	n/a	wordpools/wordpool_categorized_EN.txt	LETTUCE	Vegetables	10	10	[0, 0, 0]	n/a	catFR1	2	R1488T
1290.814	0.784	1321626	WORD_OFF	n/a	n/a	LETTUCE	Vegetables	10	10	[0, 0, 0]	n/a	catFR1	2	R1488T
1291.598	1.616	1322410	WORD	n/a	wordpools/wordpool_categorized_EN.txt	COLA	Beverages	11	10	[0, 0, 0]	n/a	catFR1	2	R1488T
1293.214	0.916	1324026	WORD_OFF	n/a	n/a	COLA	Beverages	11	10	[0, 0, 0]	n/a	catFR1	2	R1488T
1294.13	1.601	1324942	WORD	n/a	wordpools/wordpool_categorized_EN.txt	BEER	Beverages	12	10	[0, 0, 0]	n/a	catFR1	2	R1488T
1295.731	0.001	1326539	WORD_OFF	n/a	n/a	BEER	Beverages	12	10	[0, 0, 0]	n/a	catFR1	2	R1488T
1295.732	0.001	1326541	PROB	0.001	n/a	n/a	n/a	-999	10	[6, 8, 3]	16	catFR1	2	R1488T
1295.733	0.0	1326542	START	n/a	n/a	n/a	n/a	-999	10	[-999, -999, -999]	n/a	catFR1	2	R1488T
1295.733	0.0	1326548	ENCODING_END	n/a	n/a	n/a	n/a	-999	10	[0, 0, 0]	n/a	catFR1	2	R1488T
1295.733	6.981	1326548	DISTRACT_START	n/a	n/a	n/a	n/a	-999	10	[0, 0, 0]	n/a	catFR1	2	R1488T
1302.714	8.217	1333523	PROB	8.217	n/a	n/a	n/a	-999	10	[6, 6, 4]	16	catFR1	2	R1488T
1310.931	8.3	1341740	PROB	8.3	n/a	n/a	n/a	-999	10	[7, 6, 2]	16	catFR1	2	R1488T
1319.231	0.0	1350039	STOP	n/a	n/a	n/a	n/a	-999	10	[-999, -999, -999]	n/a	catFR1	2	R1488T
1319.231	2.149	1350044	DISTRACT_END	n/a	n/a	n/a	n/a	-999	10	[0, 0, 0]	n/a	catFR1	2	R1488T
1321.38	1.085	1352187	REC_START	n/a	n/a	n/a	n/a	-999	10	[0, 0, 0]	n/a	catFR1	2	R1488T
1322.465	7.918	1353273	REC_WORD_VV	7.918	n/a	<>	n/a	-999	10	[0, 0, 0]	n/a	catFR1	2	R1488T
1330.383	0.396	1361191	REC_WORD_VV	0.396	n/a	<>	n/a	-999	10	[0, 0, 0]	n/a	catFR1	2	R1488T
1330.779	1.518	1361587	REC_WORD	1.518	n/a	BEER	Beverages	12	10	[0, 0, 0]	n/a	catFR1	2	R1488T
1332.297	7.646	1363104	REC_WORD_VV	7.646	n/a	<>	n/a	-999	10	[0, 0, 0]	n/a	catFR1	2	R1488T
1339.943	5.426	1370750	REC_WORD_VV	5.426	n/a	<>	n/a	-999	10	[0, 0, 0]	n/a	catFR1	2	R1488T
1345.369	0.681	1376176	REC_WORD_VV	0.681	n/a	<>	n/a	-999	10	[0, 0, 0]	n/a	catFR1	2	R1488T
1346.05	0.743	1376857	REC_WORD	0.743	n/a	CHERRY	Fruit	-999	10	[0, 0, 0]	n/a	catFR1	2	R1488T
1346.793	4.803	1377600	REC_WORD_VV	4.803	n/a	<>	n/a	-999	10	[0, 0, 0]	n/a	catFR1	2	R1488T
1351.596	10.568	1382402	REC_END	n/a	n/a	n/a	n/a	-999	10	[0, 0, 0]	n/a	catFR1	2	R1488T
1362.164	10.35	1392974	COUNTDOWN_START	n/a	n/a	n/a	n/a	-999	11	[0, 0, 0]	n/a	catFR1	2	R1488T
1372.514	0.0	1403319	COUNTDOWN_END	n/a	n/a	n/a	n/a	-999	11	[0, 0, 0]	n/a	catFR1	2	R1488T
1372.514	1.85	1403319	ENCODING_START	n/a	n/a	n/a	n/a	-999	11	[0, 0, 0]	n/a	catFR1	2	R1488T
1374.364	1.616	1405171	WORD	n/a	wordpools/wordpool_categorized_EN.txt	WASHER	Appliances	1	11	[0, 0, 0]	n/a	catFR1	2	R1488T
1375.98	0.951	1406787	WORD_OFF	n/a	n/a	WASHER	Appliances	1	11	[0, 0, 0]	n/a	catFR1	2	R1488T
1376.931	1.616	1407741	WORD	n/a	wordpools/wordpool_categorized_EN.txt	STOVE	Appliances	2	11	[0, 0, 0]	n/a	catFR1	2	R1488T
1378.547	0.966	1409356	WORD_OFF	n/a	n/a	STOVE	Appliances	2	11	[0, 0, 0]	n/a	catFR1	2	R1488T
1379.513	1.6	1410320	WORD	n/a	wordpools/wordpool_categorized_EN.txt	PLANE	Vehicles	3	11	[0, 0, 0]	n/a	catFR1	2	R1488T
1381.113	0.851	1411917	WORD_OFF	n/a	n/a	PLANE	Vehicles	3	11	[0, 0, 0]	n/a	catFR1	2	R1488T
1381.964	1.6	1412776	WORD	n/a	wordpools/wordpool_categorized_EN.txt	BIKE	Vehicles	4	11	[0, 0, 0]	n/a	catFR1	2	R1488T
1383.564	0.95	1414373	WORD_OFF	n/a	n/a	BIKE	Vehicles	4	11	[0, 0, 0]	n/a	catFR1	2	R1488T
1384.514	1.617	1415318	WORD	n/a	wordpools/wordpool_categorized_EN.txt	WHISK	KitchenTools	5	11	[0, 0, 0]	n/a	catFR1	2	R1488T
1386.131	0.817	1416933	WORD_OFF	n/a	n/a	WHISK	KitchenTools	5	11	[0, 0, 0]	n/a	catFR1	2	R1488T
1386.948	1.616	1417755	WORD	n/a	wordpools/wordpool_categorized_EN.txt	LADLE	KitchenTools	6	11	[0, 0, 0]	n/a	catFR1	2	R1488T
1388.564	0.967	1419371	WORD_OFF	n/a	n/a	LADLE	KitchenTools	6	11	[0, 0, 0]	n/a	catFR1	2	R1488T
1389.531	1.616	1420335	WORD	n/a	wordpools/wordpool_categorized_EN.txt	REFRIGERATOR	Appliances	7	11	[0, 0, 0]	n/a	catFR1	2	R1488T
1391.147	0.834	1421950	WORD_OFF	n/a	n/a	REFRIGERATOR	Appliances	7	11	[0, 0, 0]	n/a	catFR1	2	R1488T
1391.981	1.617	1422791	WORD	n/a	wordpools/wordpool_categorized_EN.txt	DRYER	Appliances	8	11	[0, 0, 0]	n/a	catFR1	2	R1488T
1393.598	0.983	1424407	WORD_OFF	n/a	n/a	DRYER	Appliances	8	11	[0, 0, 0]	n/a	catFR1	2	R1488T
1394.581	1.617	1425389	WORD	n/a	wordpools/wordpool_categorized_EN.txt	TRUCK	Vehicles	9	11	[0, 0, 0]	n/a	catFR1	2	R1488T
1396.198	0.916	1427005	WORD_OFF	n/a	n/a	TRUCK	Vehicles	9	11	[0, 0, 0]	n/a	catFR1	2	R1488T
1397.114	1.6	1427921	WORD	n/a	wordpools/wordpool_categorized_EN.txt	MOTORCYCLE	Vehicles	10	11	[0, 0, 0]	n/a	catFR1	2	R1488T
1398.714	0.834	1429518	WORD_OFF	n/a	n/a	MOTORCYCLE	Vehicles	10	11	[0, 0, 0]	n/a	catFR1	2	R1488T
1399.548	1.616	1430359	WORD	n/a	wordpools/wordpool_categorized_EN.txt	SPOON	KitchenTools	11	11	[0, 0, 0]	n/a	catFR1	2	R1488T
1401.164	0.834	1431974	WORD_OFF	n/a	n/a	SPOON	KitchenTools	11	11	[0, 0, 0]	n/a	catFR1	2	R1488T
1401.998	1.617	1432805	WORD	n/a	wordpools/wordpool_categorized_EN.txt	TONGS	KitchenTools	12	11	[0, 0, 0]	n/a	catFR1	2	R1488T
1403.615	0.001	1434419	PROB	0.001	n/a	n/a	n/a	-999	11	[4, 5, 8]	17	catFR1	2	R1488T
1403.616	0.0	1434420	START	n/a	n/a	n/a	n/a	-999	11	[-999, -999, -999]	n/a	catFR1	2	R1488T
1403.614	0.002	1434421	WORD_OFF	n/a	n/a	TONGS	KitchenTools	12	11	[0, 0, 0]	n/a	catFR1	2	R1488T
1403.616	0.0	1434421	ENCODING_END	n/a	n/a	n/a	n/a	-999	11	[0, 0, 0]	n/a	catFR1	2	R1488T
1403.616	9.698	1434421	DISTRACT_START	n/a	n/a	n/a	n/a	-999	11	[0, 0, 0]	n/a	catFR1	2	R1488T
1413.314	6.617	1444117	PROB	6.617	n/a	n/a	n/a	-999	11	[7, 6, 6]	19	catFR1	2	R1488T
1419.931	6.683	1450734	PROB	6.683	n/a	n/a	n/a	-999	11	[2, 1, 7]	10	catFR1	2	R1488T
1426.614	0.0	1457416	DISTRACT_END	n/a	n/a	n/a	n/a	-999	11	[0, 0, 0]	n/a	catFR1	2	R1488T
1426.614	2.216	1457416	STOP	n/a	n/a	n/a	n/a	-999	11	[-999, -999, -999]	n/a	catFR1	2	R1488T
1428.83	1.066	1459635	REC_START	n/a	n/a	n/a	n/a	-999	11	[0, 0, 0]	n/a	catFR1	2	R1488T
1429.896	0.374	1460698	REC_WORD_VV	0.374	n/a	<>	n/a	-999	11	[0, 0, 0]	n/a	catFR1	2	R1488T
1430.27	1.234	1461072	REC_WORD	1.234	n/a	WHISKEY	n/a	-999	11	[0, 0, 0]	n/a	catFR1	2	R1488T
1431.504	2.246	1462306	REC_WORD	2.246	n/a	TONGS	KitchenTools	12	11	[0, 0, 0]	n/a	catFR1	2	R1488T
1433.75	17.955	1464552	REC_WORD	17.955	n/a	CUCUMBER	Vegetables	-999	11	[0, 0, 0]	n/a	catFR1	2	R1488T
1451.705	6.425	1482506	REC_WORD_VV	6.425	n/a	<>	n/a	-999	11	[0, 0, 0]	n/a	catFR1	2	R1488T
1458.13	0.894	1488931	REC_WORD_VV	0.894	n/a	<>	n/a	-999	11	[0, 0, 0]	n/a	catFR1	2	R1488T
1459.024	3.424	1489831	REC_END	n/a	n/a	n/a	n/a	-999	11	[0, 0, 0]	n/a	catFR1	2	R1488T
1462.448	10.35	1493251	COUNTDOWN_START	n/a	n/a	n/a	n/a	-999	12	[0, 0, 0]	n/a	catFR1	2	R1488T
1472.798	0.0	1503596	COUNTDOWN_END	n/a	n/a	n/a	n/a	-999	12	[0, 0, 0]	n/a	catFR1	2	R1488T
1472.798	2.05	1503606	ENCODING_START	n/a	n/a	n/a	n/a	-999	12	[0, 0, 0]	n/a	catFR1	2	R1488T
1474.848	1.6	1505647	WORD	n/a	wordpools/wordpool_categorized_EN.txt	TRUMPET	Instruments	1	12	[0, 0, 0]	n/a	catFR1	2	R1488T
1476.448	0.783	1507253	WORD_OFF	n/a	n/a	TRUMPET	Instruments	1	12	[0, 0, 0]	n/a	catFR1	2	R1488T
1477.231	1.617	1508037	WORD	n/a	wordpools/wordpool_categorized_EN.txt	FLUTE	Instruments	2	12	[0, 0, 0]	n/a	catFR1	2	R1488T
1478.848	0.999	1509652	WORD_OFF	n/a	n/a	FLUTE	Instruments	2	12	[0, 0, 0]	n/a	catFR1	2	R1488T
1479.847	1.601	1510644	WORD	n/a	wordpools/wordpool_categorized_EN.txt	SHORTS	Clothing	3	12	[0, 0, 0]	n/a	catFR1	2	R1488T
1481.448	0.95	1512250	WORD_OFF	n/a	n/a	SHORTS	Clothing	3	12	[0, 0, 0]	n/a	catFR1	2	R1488T
1482.398	1.6	1513195	WORD	n/a	wordpools/wordpool_categorized_EN.txt	SHIRT	Clothing	4	12	[0, 0, 0]	n/a	catFR1	2	R1488T
1483.998	0.783	1514801	WORD_OFF	n/a	n/a	SHIRT	Clothing	4	12	[0, 0, 0]	n/a	catFR1	2	R1488T
1484.781	1.616	1515585	WORD	n/a	wordpools/wordpool_categorized_EN.txt	ONION	Vegetables	5	12	[0, 0, 0]	n/a	catFR1	2	R1488T
1486.397	0.834	1517201	WORD_OFF	n/a	n/a	ONION	Vegetables	5	12	[0, 0, 0]	n/a	catFR1	2	R1488T
1487.231	1.6	1518032	WORD	n/a	wordpools/wordpool_categorized_EN.txt	PEAS	Vegetables	6	12	[0, 0, 0]	n/a	catFR1	2	R1488T
1488.831	0.767	1519629	WORD_OFF	n/a	n/a	PEAS	Vegetables	6	12	[0, 0, 0]	n/a	catFR1	2	R1488T
1489.598	1.616	1520404	WORD	n/a	wordpools/wordpool_categorized_EN.txt	GUITAR	Instruments	7	12	[0, 0, 0]	n/a	catFR1	2	R1488T
1491.214	0.817	1522019	WORD_OFF	n/a	n/a	GUITAR	Instruments	7	12	[0, 0, 0]	n/a	catFR1	2	R1488T
1492.031	1.6	1522832	WORD	n/a	wordpools/wordpool_categorized_EN.txt	BASS	Instruments	8	12	[0, 0, 0]	n/a	catFR1	2	R1488T
1493.631	0.833	1524428	WORD_OFF	n/a	n/a	BASS	Instruments	8	12	[0, 0, 0]	n/a	catFR1	2	R1488T
1494.464	1.6	1525269	WORD	n/a	wordpools/wordpool_categorized_EN.txt	CORN	Vegetables	9	12	[0, 0, 0]	n/a	catFR1	2	R1488T
1496.064	0.784	1526866	WORD_OFF	n/a	n/a	CORN	Vegetables	9	12	[0, 0, 0]	n/a	catFR1	2	R1488T
1496.848	1.6	1527650	WORD	n/a	wordpools/wordpool_categorized_EN.txt	SPINACH	Vegetables	10	12	[0, 0, 0]	n/a	catFR1	2	R1488T
1498.448	1.0	1529247	WORD_OFF	n/a	n/a	SPINACH	Vegetables	10	12	[0, 0, 0]	n/a	catFR1	2	R1488T
1499.448	1.616	1530248	WORD	n/a	wordpools/wordpool_categorized_EN.txt	COAT	Clothing	11	12	[0, 0, 0]	n/a	catFR1	2	R1488T
1501.064	0.85	1531864	WORD_OFF	n/a	n/a	COAT	Clothing	11	12	[0, 0, 0]	n/a	catFR1	2	R1488T
1501.914	1.6	1532714	WORD	n/a	wordpools/wordpool_categorized_EN.txt	JEANS	Clothing	12	12	[0, 0, 0]	n/a	catFR1	2	R1488T
1503.514	0.001	1534311	WORD_OFF	n/a	n/a	JEANS	Clothing	12	12	[0, 0, 0]	n/a	catFR1	2	R1488T
1503.515	0.001	1534313	PROB	0.001	n/a	n/a	n/a	-999	12	[8, 3, 3]	14	catFR1	2	R1488T
1503.516	0.0	1534314	START	n/a	n/a	n/a	n/a	-999	12	[-999, -999, -999]	n/a	catFR1	2	R1488T
1503.516	0.0	1534320	ENCODING_END	n/a	n/a	n/a	n/a	-999	12	[0, 0, 0]	n/a	catFR1	2	R1488T
1503.516	8.982	1534320	DISTRACT_START	n/a	n/a	n/a	n/a	-999	12	[0, 0, 0]	n/a	catFR1	2	R1488T
1512.498	6.451	1543296	PROB	6.451	n/a	n/a	n/a	-999	12	[7, 3, 4]	14	catFR1	2	R1488T
1518.949	9.415	1549747	PROB	9.415	n/a	n/a	n/a	-999	12	[4, 3, 2]	9	catFR1	2	R1488T
1528.364	0.0	1559161	STOP	n/a	n/a	n/a	n/a	-999	12	[-999, -999, -999]	n/a	catFR1	2	R1488T
1528.364	2.233	1559167	DISTRACT_END	n/a	n/a	n/a	n/a	-999	12	[0, 0, 0]	n/a	catFR1	2	R1488T
1530.597	2.08	1561395	REC_START	n/a	n/a	n/a	n/a	-999	12	[0, 0, 0]	n/a	catFR1	2	R1488T
1532.677	3.706	1563474	REC_WORD_VV	3.706	n/a	<>	n/a	-999	12	[0, 0, 0]	n/a	catFR1	2	R1488T
1536.383	1.273	1567180	REC_WORD	1.273	n/a	TRUMPET	Instruments	1	12	[0, 0, 0]	n/a	catFR1	2	R1488T
1537.656	8.476	1568453	REC_WORD	8.476	n/a	SHORTS	Clothing	3	12	[0, 0, 0]	n/a	catFR1	2	R1488T
1546.132	14.66	1576928	REC_WORD	14.66	n/a	TROMBONE	Instruments	-999	12	[0, 0, 0]	n/a	catFR1	2	R1488T
1560.792	0.0	1591591	REC_END	n/a	n/a	n/a	n/a	-999	12	[0, 0, 0]	n/a	catFR1	2	R1488T
