onset	duration	sample	trial_type	response_time	stim_file	item_name	category	serialpos	list	test	answer	experiment	session	subject
0.0	231.294	-1	INSTRUCT_START	n/a	n/a	n/a	n/a	-999	-999	[0, 0, 0]	n/a	catFR1	0	R1342M
231.294	50.823	2106	INSTRUCT_START	n/a	n/a	n/a	n/a	-999	-999	[0, 0, 0]	n/a	catFR1	0	R1342M
282.117	5.202	52927	INSTRUCT_END	n/a	n/a	n/a	n/a	-999	-999	[0, 0, 0]	n/a	catFR1	0	R1342M
287.319	8.503	58129	MIC TEST_START	n/a	n/a	n/a	n/a	-999	-999	[0, 0, 0]	n/a	catFR1	0	R1342M
295.822	0.012	66631	MIC TEST_END	n/a	n/a	n/a	n/a	-999	-999	[0, 0, 0]	n/a	catFR1	0	R1342M
295.834	0.0	66643	TRIAL_START	n/a	n/a	n/a	n/a	-999	-1	[0, 0, 0]	n/a	catFR1	0	R1342M
295.834	0.001	66643	TRIAL	n/a	n/a	n/a	n/a	-999	-1	[0, 0, 0]	n/a	catFR1	0	R1342M
295.835	1.519	66644	WAITING_START	n/a	n/a	n/a	n/a	-999	-1	[0, 0, 0]	n/a	catFR1	0	R1342M
297.354	0.001	68163	WAITING_END	n/a	n/a	n/a	n/a	-999	-1	[0, 0, 0]	n/a	catFR1	0	R1342M
297.355	10.0	68164	COUNTDOWN_START	n/a	n/a	n/a	n/a	-999	-1	[0, 0, 0]	n/a	catFR1	0	R1342M
307.783	0.001	78592	COUNTDOWN_END	n/a	n/a	n/a	n/a	-999	-1	[0, 0, 0]	n/a	catFR1	0	R1342M
307.784	1.173	78593	ORIENT_START	n/a	n/a	n/a	n/a	-999	-1	[0, 0, 0]	n/a	catFR1	0	R1342M
308.957	0.0	79766	ORIENT_END	n/a	n/a	n/a	n/a	-999	-1	[0, 0, 0]	n/a	catFR1	0	R1342M
308.957	0.965	79766	ENCODING_START	n/a	n/a	n/a	n/a	-999	-1	[0, 0, 0]	n/a	catFR1	0	R1342M
309.922	1.6	80731	WORD	n/a	n/a	DENIM	n/a	1	-1	[0, 0, 0]	n/a	catFR1	0	R1342M
311.557	1.039	82366	WORD_OFF	n/a	n/a	DENIM	n/a	1	-1	[0, 0, 0]	n/a	catFR1	0	R1342M
312.596	1.6	83404	WORD	n/a	n/a	SECOND	n/a	2	-1	[0, 0, 0]	n/a	catFR1	0	R1342M
314.224	1.066	85032	WORD_OFF	n/a	n/a	SECOND	n/a	2	-1	[0, 0, 0]	n/a	catFR1	0	R1342M
315.29	1.6	86098	WORD	n/a	n/a	TEACHER	n/a	3	-1	[0, 0, 0]	n/a	catFR1	0	R1342M
316.925	0.824	87733	WORD_OFF	n/a	n/a	TEACHER	n/a	3	-1	[0, 0, 0]	n/a	catFR1	0	R1342M
317.749	1.6	88557	WORD	n/a	n/a	FIREMAN	n/a	4	-1	[0, 0, 0]	n/a	catFR1	0	R1342M
319.374	0.929	90182	WORD_OFF	n/a	n/a	FIREMAN	n/a	4	-1	[0, 0, 0]	n/a	catFR1	0	R1342M
320.303	1.6	91111	WORD	n/a	n/a	HOUR	n/a	5	-1	[0, 0, 0]	n/a	catFR1	0	R1342M
321.926	0.87	92734	WORD_OFF	n/a	n/a	HOUR	n/a	5	-1	[0, 0, 0]	n/a	catFR1	0	R1342M
322.796	1.6	93604	WORD	n/a	n/a	WOOL	n/a	6	-1	[0, 0, 0]	n/a	catFR1	0	R1342M
324.426	1.049	95234	WORD_OFF	n/a	n/a	WOOL	n/a	6	-1	[0, 0, 0]	n/a	catFR1	0	R1342M
325.475	1.6	96283	WORD	n/a	n/a	SILK	n/a	7	-1	[0, 0, 0]	n/a	catFR1	0	R1342M
327.109	1.131	97917	WORD_OFF	n/a	n/a	SILK	n/a	7	-1	[0, 0, 0]	n/a	catFR1	0	R1342M
328.24	1.6	99048	WORD	n/a	n/a	MINUTE	n/a	8	-1	[0, 0, 0]	n/a	catFR1	0	R1342M
329.878	0.82	100686	WORD_OFF	n/a	n/a	MINUTE	n/a	8	-1	[0, 0, 0]	n/a	catFR1	0	R1342M
330.698	1.6	101506	WORD	n/a	n/a	FARMER	n/a	9	-1	[0, 0, 0]	n/a	catFR1	0	R1342M
332.327	1.023	103135	WORD_OFF	n/a	n/a	FARMER	n/a	9	-1	[0, 0, 0]	n/a	catFR1	0	R1342M
333.35	1.6	104158	WORD	n/a	n/a	DAY	n/a	10	-1	[0, 0, 0]	n/a	catFR1	0	R1342M
334.979	1.008	105786	WORD_OFF	n/a	n/a	DAY	n/a	10	-1	[0, 0, 0]	n/a	catFR1	0	R1342M
335.987	1.6	106794	WORD	n/a	n/a	LEATHER	n/a	11	-1	[0, 0, 0]	n/a	catFR1	0	R1342M
337.612	0.804	108419	WORD_OFF	n/a	n/a	LEATHER	n/a	11	-1	[0, 0, 0]	n/a	catFR1	0	R1342M
338.416	1.6	109223	WORD	n/a	n/a	PLUMBER	n/a	12	-1	[0, 0, 0]	n/a	catFR1	0	R1342M
340.046	0.001	110853	WORD_OFF	n/a	n/a	PLUMBER	n/a	12	-1	[0, 0, 0]	n/a	catFR1	0	R1342M
340.047	0.0	110854	ENCODING_END	n/a	n/a	n/a	n/a	-999	-1	[0, 0, 0]	n/a	catFR1	0	R1342M
340.047	0.0	110854	DISTRACT_START	n/a	n/a	n/a	n/a	-999	-1	[0, 0, 0]	n/a	catFR1	0	R1342M
340.047	0.015	110854	START	n/a	n/a	n/a	n/a	-999	-1	[-999, -999, -999]	n/a	catFR1	0	R1342M
340.062	4.334	110869	PROB	4.308	n/a	n/a	n/a	-999	-1	[4, 6, 2]	12.0	catFR1	0	R1342M
344.396	5.734	115203	PROB	5.71	n/a	n/a	n/a	-999	-1	[1, 9, 9]	19.0	catFR1	0	R1342M
350.13	6.952	120937	PROB	6.927	n/a	n/a	n/a	-999	-1	[3, 3, 8]	14.0	catFR1	0	R1342M
357.082	7.148	127888	PROB	7.148	n/a	n/a	n/a	-999	-1	[7, 2, 6]	15.0	catFR1	0	R1342M
364.23	0.02	135036	STOP	n/a	n/a	n/a	n/a	-999	-1	[-999, -999, -999]	n/a	catFR1	0	R1342M
364.25	0.679	135056	DISTRACT_END	n/a	n/a	n/a	n/a	-999	-1	[0, 0, 0]	n/a	catFR1	0	R1342M
364.929	1.6	135735	RETRIEVAL_ORIENT_START	n/a	n/a	n/a	n/a	-999	-1	[0, 0, 0]	n/a	catFR1	0	R1342M
366.568	0.0	137374	RETRIEVAL_ORIENT_END	n/a	n/a	n/a	n/a	-999	-1	[0, 0, 0]	n/a	catFR1	0	R1342M
366.568	8.02	137374	REC_START	n/a	n/a	n/a	n/a	-999	-1	[0, 0, 0]	n/a	catFR1	0	R1342M
374.588	6.248	145394	REC_WORD	8.02	n/a	SECOND	n/a	2	-1	[0, 0, 0]	n/a	catFR1	0	R1342M
380.836	15.744	151641	REC_WORD	14.268	n/a	TEACHER	n/a	3	-1	[0, 0, 0]	n/a	catFR1	0	R1342M
396.58	0.0	167384	REC_END	n/a	n/a	n/a	n/a	-999	-1	[0, 0, 0]	n/a	catFR1	0	R1342M
396.58	10.346	167384	PRACTICE_POST_INSTRUCT_START	n/a	n/a	n/a	n/a	-999	-1	[0, 0, 0]	n/a	catFR1	0	R1342M
406.926	0.001	177730	PRACTICE_POST_INSTRUCT_END	n/a	n/a	n/a	n/a	-999	-1	[0, 0, 0]	n/a	catFR1	0	R1342M
406.927	0.024	177731	TRIAL_END	n/a	n/a	n/a	n/a	-999	-1	[0, 0, 0]	n/a	catFR1	0	R1342M
406.951	0.0	177755	TRIAL	n/a	n/a	n/a	n/a	-999	1	[0, 0, 0]	n/a	catFR1	0	R1342M
406.951	0.0	177755	WAITING_START	n/a	n/a	n/a	n/a	-999	1	[0, 0, 0]	n/a	catFR1	0	R1342M
406.951	4.959	177755	TRIAL_START	n/a	n/a	n/a	n/a	-999	1	[0, 0, 0]	n/a	catFR1	0	R1342M
411.91	0.001	182714	WAITING_END	n/a	n/a	n/a	n/a	-999	1	[0, 0, 0]	n/a	catFR1	0	R1342M
411.911	10.0	182715	COUNTDOWN_START	n/a	n/a	n/a	n/a	-999	1	[0, 0, 0]	n/a	catFR1	0	R1342M
422.34	0.001	193143	COUNTDOWN_END	n/a	n/a	n/a	n/a	-999	1	[0, 0, 0]	n/a	catFR1	0	R1342M
422.341	1.155	193144	ORIENT_START	n/a	n/a	n/a	n/a	-999	1	[0, 0, 0]	n/a	catFR1	0	R1342M
423.496	0.0	194299	ORIENT_END	n/a	n/a	n/a	n/a	-999	1	[0, 0, 0]	n/a	catFR1	0	R1342M
423.496	0.764	194299	ENCODING_START	n/a	n/a	n/a	n/a	-999	1	[0, 0, 0]	n/a	catFR1	0	R1342M
424.26	1.6	195063	WORD	n/a	wordpools/wordpool_categorized_EN.txt	DOVE	Birds	1	1	[0, 0, 0]	n/a	catFR1	0	R1342M
425.879	0.823	196682	WORD_OFF	n/a	n/a	DOVE	Birds	1	1	[0, 0, 0]	n/a	catFR1	0	R1342M
426.702	1.6	197505	WORD	n/a	wordpools/wordpool_categorized_EN.txt	SPARROW	Birds	2	1	[0, 0, 0]	n/a	catFR1	0	R1342M
428.329	0.79	199132	WORD_OFF	n/a	n/a	SPARROW	Birds	2	1	[0, 0, 0]	n/a	catFR1	0	R1342M
429.119	1.6	199922	WORD	n/a	wordpools/wordpool_categorized_EN.txt	ONION	Vegetables	3	1	[0, 0, 0]	n/a	catFR1	0	R1342M
430.747	0.923	201550	WORD_OFF	n/a	n/a	ONION	Vegetables	3	1	[0, 0, 0]	n/a	catFR1	0	R1342M
431.67	1.6	202473	WORD	n/a	wordpools/wordpool_categorized_EN.txt	CELERY	Vegetables	4	1	[0, 0, 0]	n/a	catFR1	0	R1342M
433.297	1.056	204100	WORD_OFF	n/a	n/a	CELERY	Vegetables	4	1	[0, 0, 0]	n/a	catFR1	0	R1342M
434.353	1.6	205156	WORD	n/a	wordpools/wordpool_categorized_EN.txt	JEEP	Vehicles	5	1	[0, 0, 0]	n/a	catFR1	0	R1342M
435.981	0.891	206784	WORD_OFF	n/a	n/a	JEEP	Vehicles	5	1	[0, 0, 0]	n/a	catFR1	0	R1342M
436.872	1.6	207675	WORD	n/a	wordpools/wordpool_categorized_EN.txt	CAR	Vehicles	6	1	[0, 0, 0]	n/a	catFR1	0	R1342M
438.498	0.919	209300	WORD_OFF	n/a	n/a	CAR	Vehicles	6	1	[0, 0, 0]	n/a	catFR1	0	R1342M
439.417	1.6	210219	WORD	n/a	wordpools/wordpool_categorized_EN.txt	CROW	Birds	7	1	[0, 0, 0]	n/a	catFR1	0	R1342M
441.049	0.998	211851	WORD_OFF	n/a	n/a	CROW	Birds	7	1	[0, 0, 0]	n/a	catFR1	0	R1342M
442.047	1.6	212849	WORD	n/a	wordpools/wordpool_categorized_EN.txt	FINCH	Birds	8	1	[0, 0, 0]	n/a	catFR1	0	R1342M
443.683	1.033	214485	WORD_OFF	n/a	n/a	FINCH	Birds	8	1	[0, 0, 0]	n/a	catFR1	0	R1342M
444.716	1.6	215518	WORD	n/a	wordpools/wordpool_categorized_EN.txt	PEAS	Vegetables	9	1	[0, 0, 0]	n/a	catFR1	0	R1342M
446.349	0.847	217151	WORD_OFF	n/a	n/a	PEAS	Vegetables	9	1	[0, 0, 0]	n/a	catFR1	0	R1342M
447.196	1.6	217998	WORD	n/a	wordpools/wordpool_categorized_EN.txt	CORN	Vegetables	10	1	[0, 0, 0]	n/a	catFR1	0	R1342M
448.835	0.858	219637	WORD_OFF	n/a	n/a	CORN	Vegetables	10	1	[0, 0, 0]	n/a	catFR1	0	R1342M
449.693	1.6	220495	WORD	n/a	wordpools/wordpool_categorized_EN.txt	MOPED	Vehicles	11	1	[0, 0, 0]	n/a	catFR1	0	R1342M
451.317	0.816	222119	WORD_OFF	n/a	n/a	MOPED	Vehicles	11	1	[0, 0, 0]	n/a	catFR1	0	R1342M
452.133	1.6	222935	WORD	n/a	wordpools/wordpool_categorized_EN.txt	PLANE	Vehicles	12	1	[0, 0, 0]	n/a	catFR1	0	R1342M
453.751	0.001	224553	WORD_OFF	n/a	n/a	PLANE	Vehicles	12	1	[0, 0, 0]	n/a	catFR1	0	R1342M
453.752	0.0	224554	ENCODING_END	n/a	n/a	n/a	n/a	-999	1	[0, 0, 0]	n/a	catFR1	0	R1342M
453.752	0.0	224554	DISTRACT_START	n/a	n/a	n/a	n/a	-999	1	[0, 0, 0]	n/a	catFR1	0	R1342M
453.752	0.016	224554	START	n/a	n/a	n/a	n/a	-999	1	[-999, -999, -999]	n/a	catFR1	0	R1342M
453.768	6.034	224570	PROB	6.001	n/a	n/a	n/a	-999	1	[5, 7, 4]	16.0	catFR1	0	R1342M
459.802	7.484	230603	PROB	7.457	n/a	n/a	n/a	-999	1	[5, 4, 7]	16.0	catFR1	0	R1342M
467.286	6.286	238087	PROB	6.256	n/a	n/a	n/a	-999	1	[7, 5, 9]	22.0	catFR1	0	R1342M
473.572	6.009	244373	PROB	6.009	n/a	n/a	n/a	-999	1	[4, 6, 2]	12.0	catFR1	0	R1342M
479.581	0.009	250381	STOP	n/a	n/a	n/a	n/a	-999	1	[-999, -999, -999]	n/a	catFR1	0	R1342M
479.59	0.603	250390	DISTRACT_END	n/a	n/a	n/a	n/a	-999	1	[0, 0, 0]	n/a	catFR1	0	R1342M
480.193	1.6	250993	RETRIEVAL_ORIENT_START	n/a	n/a	n/a	n/a	-999	1	[0, 0, 0]	n/a	catFR1	0	R1342M
481.757	0.0	252557	REC_START	n/a	n/a	n/a	n/a	-999	1	[0, 0, 0]	n/a	catFR1	0	R1342M
481.757	5.117	252557	RETRIEVAL_ORIENT_END	n/a	n/a	n/a	n/a	-999	1	[0, 0, 0]	n/a	catFR1	0	R1342M
486.874	3.212	257674	REC_WORD	5.117	n/a	DOVE	Birds	1	1	[0, 0, 0]	n/a	catFR1	0	R1342M
490.086	1.395	260886	REC_WORD	8.329	n/a	SPARROW	Birds	2	1	[0, 0, 0]	n/a	catFR1	0	R1342M
491.481	3.664	262281	REC_WORD	9.724	n/a	ONION	Vegetables	3	1	[0, 0, 0]	n/a	catFR1	0	R1342M
495.145	16.625	265945	REC_WORD	13.388	n/a	FINCH	Birds	8	1	[0, 0, 0]	n/a	catFR1	0	R1342M
511.77	0.0	282569	REC_END	n/a	n/a	n/a	n/a	-999	1	[0, 0, 0]	n/a	catFR1	0	R1342M
511.77	0.022	282569	TRIAL_END	n/a	n/a	n/a	n/a	-999	1	[0, 0, 0]	n/a	catFR1	0	R1342M
511.792	0.0	282591	TRIAL	n/a	n/a	n/a	n/a	-999	2	[0, 0, 0]	n/a	catFR1	0	R1342M
511.792	0.0	282591	TRIAL_START	n/a	n/a	n/a	n/a	-999	2	[0, 0, 0]	n/a	catFR1	0	R1342M
511.792	8.321	282591	WAITING_START	n/a	n/a	n/a	n/a	-999	2	[0, 0, 0]	n/a	catFR1	0	R1342M
520.113	0.001	290912	WAITING_END	n/a	n/a	n/a	n/a	-999	2	[0, 0, 0]	n/a	catFR1	0	R1342M
520.114	10.0	290913	COUNTDOWN_START	n/a	n/a	n/a	n/a	-999	2	[0, 0, 0]	n/a	catFR1	0	R1342M
530.542	0.001	301340	COUNTDOWN_END	n/a	n/a	n/a	n/a	-999	2	[0, 0, 0]	n/a	catFR1	0	R1342M
530.543	1.157	301341	ORIENT_START	n/a	n/a	n/a	n/a	-999	2	[0, 0, 0]	n/a	catFR1	0	R1342M
531.7	0.0	302498	ORIENT_END	n/a	n/a	n/a	n/a	-999	2	[0, 0, 0]	n/a	catFR1	0	R1342M
531.7	1.006	302498	ENCODING_START	n/a	n/a	n/a	n/a	-999	2	[0, 0, 0]	n/a	catFR1	0	R1342M
532.706	1.6	303504	WORD	n/a	wordpools/wordpool_categorized_EN.txt	TOE	BodyParts	1	2	[0, 0, 0]	n/a	catFR1	0	R1342M
534.333	0.994	305131	WORD_OFF	n/a	n/a	TOE	BodyParts	1	2	[0, 0, 0]	n/a	catFR1	0	R1342M
535.327	1.6	306125	WORD	n/a	wordpools/wordpool_categorized_EN.txt	FINGERS	BodyParts	2	2	[0, 0, 0]	n/a	catFR1	0	R1342M
536.934	0.9	307732	WORD_OFF	n/a	n/a	FINGERS	BodyParts	2	2	[0, 0, 0]	n/a	catFR1	0	R1342M
537.834	1.6	308632	WORD	n/a	wordpools/wordpool_categorized_EN.txt	APPLE	Fruit	3	2	[0, 0, 0]	n/a	catFR1	0	R1342M
539.468	0.755	310266	WORD_OFF	n/a	n/a	APPLE	Fruit	3	2	[0, 0, 0]	n/a	catFR1	0	R1342M
540.223	1.6	311021	WORD	n/a	wordpools/wordpool_categorized_EN.txt	PEAR	Fruit	4	2	[0, 0, 0]	n/a	catFR1	0	R1342M
541.852	0.829	312650	WORD_OFF	n/a	n/a	PEAR	Fruit	4	2	[0, 0, 0]	n/a	catFR1	0	R1342M
542.681	1.6	313478	WORD	n/a	wordpools/wordpool_categorized_EN.txt	MARBLES	Toys	5	2	[0, 0, 0]	n/a	catFR1	0	R1342M
544.318	0.852	315115	WORD_OFF	n/a	n/a	MARBLES	Toys	5	2	[0, 0, 0]	n/a	catFR1	0	R1342M
545.17	1.6	315967	WORD	n/a	wordpools/wordpool_categorized_EN.txt	BALL	Toys	6	2	[0, 0, 0]	n/a	catFR1	0	R1342M
546.786	0.974	317583	WORD_OFF	n/a	n/a	BALL	Toys	6	2	[0, 0, 0]	n/a	catFR1	0	R1342M
547.76	1.6	318557	WORD	n/a	wordpools/wordpool_categorized_EN.txt	BANANA	Fruit	7	2	[0, 0, 0]	n/a	catFR1	0	R1342M
549.386	1.107	320183	WORD_OFF	n/a	n/a	BANANA	Fruit	7	2	[0, 0, 0]	n/a	catFR1	0	R1342M
550.493	1.6	321290	WORD	n/a	wordpools/wordpool_categorized_EN.txt	ORANGE	Fruit	8	2	[0, 0, 0]	n/a	catFR1	0	R1342M
552.119	0.957	322916	WORD_OFF	n/a	n/a	ORANGE	Fruit	8	2	[0, 0, 0]	n/a	catFR1	0	R1342M
553.076	1.6	323873	WORD	n/a	wordpools/wordpool_categorized_EN.txt	LEG	BodyParts	9	2	[0, 0, 0]	n/a	catFR1	0	R1342M
554.687	0.922	325484	WORD_OFF	n/a	n/a	LEG	BodyParts	9	2	[0, 0, 0]	n/a	catFR1	0	R1342M
555.609	1.6	326406	WORD	n/a	wordpools/wordpool_categorized_EN.txt	ELBOW	BodyParts	10	2	[0, 0, 0]	n/a	catFR1	0	R1342M
557.237	1.091	328034	WORD_OFF	n/a	n/a	ELBOW	BodyParts	10	2	[0, 0, 0]	n/a	catFR1	0	R1342M
558.328	1.6	329125	WORD	n/a	wordpools/wordpool_categorized_EN.txt	FOOTBALL	Toys	11	2	[0, 0, 0]	n/a	catFR1	0	R1342M
559.955	0.819	330752	WORD_OFF	n/a	n/a	FOOTBALL	Toys	11	2	[0, 0, 0]	n/a	catFR1	0	R1342M
560.774	1.6	331571	WORD	n/a	wordpools/wordpool_categorized_EN.txt	DOLLHOUSE	Toys	12	2	[0, 0, 0]	n/a	catFR1	0	R1342M
562.405	0.0	333202	WORD_OFF	n/a	n/a	DOLLHOUSE	Toys	12	2	[0, 0, 0]	n/a	catFR1	0	R1342M
562.405	0.001	333202	ENCODING_END	n/a	n/a	n/a	n/a	-999	2	[0, 0, 0]	n/a	catFR1	0	R1342M
562.406	0.0	333203	DISTRACT_START	n/a	n/a	n/a	n/a	-999	2	[0, 0, 0]	n/a	catFR1	0	R1342M
562.406	0.015	333203	START	n/a	n/a	n/a	n/a	-999	2	[-999, -999, -999]	n/a	catFR1	0	R1342M
562.421	7.353	333218	PROB	7.322	n/a	n/a	n/a	-999	2	[7, 6, 5]	17.0	catFR1	0	R1342M
569.774	8.885	340570	PROB	8.853	n/a	n/a	n/a	-999	2	[9, 3, 8]	20.0	catFR1	0	R1342M
578.659	10.059	349455	PROB	10.059	n/a	n/a	n/a	-999	2	[9, 6, 3]	18.0	catFR1	0	R1342M
588.718	0.009	359513	STOP	n/a	n/a	n/a	n/a	-999	2	[-999, -999, -999]	n/a	catFR1	0	R1342M
588.727	0.688	359522	DISTRACT_END	n/a	n/a	n/a	n/a	-999	2	[0, 0, 0]	n/a	catFR1	0	R1342M
589.415	1.6	360210	RETRIEVAL_ORIENT_START	n/a	n/a	n/a	n/a	-999	2	[0, 0, 0]	n/a	catFR1	0	R1342M
590.978	0.0	361773	REC_START	n/a	n/a	n/a	n/a	-999	2	[0, 0, 0]	n/a	catFR1	0	R1342M
590.978	11.257	361773	RETRIEVAL_ORIENT_END	n/a	n/a	n/a	n/a	-999	2	[0, 0, 0]	n/a	catFR1	0	R1342M
602.235	3.672	373030	REC_WORD	11.257	n/a	FOOTBALL	Toys	11	2	[0, 0, 0]	n/a	catFR1	0	R1342M
605.907	15.085	376701	REC_WORD	14.929	n/a	MARBLES	Toys	5	2	[0, 0, 0]	n/a	catFR1	0	R1342M
620.992	0.001	391786	REC_END	n/a	n/a	n/a	n/a	-999	2	[0, 0, 0]	n/a	catFR1	0	R1342M
620.993	0.025	391787	TRIAL_END	n/a	n/a	n/a	n/a	-999	2	[0, 0, 0]	n/a	catFR1	0	R1342M
621.018	0.0	391812	WAITING_START	n/a	n/a	n/a	n/a	-999	3	[0, 0, 0]	n/a	catFR1	0	R1342M
621.018	0.0	391812	TRIAL_START	n/a	n/a	n/a	n/a	-999	3	[0, 0, 0]	n/a	catFR1	0	R1342M
621.018	20.67	391812	TRIAL	n/a	n/a	n/a	n/a	-999	3	[0, 0, 0]	n/a	catFR1	0	R1342M
641.688	10.0	412481	COUNTDOWN_START	n/a	n/a	n/a	n/a	-999	3	[0, 0, 0]	n/a	catFR1	0	R1342M
641.688	10.429	412481	WAITING_END	n/a	n/a	n/a	n/a	-999	3	[0, 0, 0]	n/a	catFR1	0	R1342M
652.117	0.001	422909	COUNTDOWN_END	n/a	n/a	n/a	n/a	-999	3	[0, 0, 0]	n/a	catFR1	0	R1342M
652.118	1.188	422910	ORIENT_START	n/a	n/a	n/a	n/a	-999	3	[0, 0, 0]	n/a	catFR1	0	R1342M
653.306	0.0	424098	ORIENT_END	n/a	n/a	n/a	n/a	-999	3	[0, 0, 0]	n/a	catFR1	0	R1342M
653.306	0.95	424098	ENCODING_START	n/a	n/a	n/a	n/a	-999	3	[0, 0, 0]	n/a	catFR1	0	R1342M
654.256	1.6	425048	WORD	n/a	wordpools/wordpool_categorized_EN.txt	COMPUTER	Electronics	1	3	[0, 0, 0]	n/a	catFR1	0	R1342M
655.874	0.797	426666	WORD_OFF	n/a	n/a	COMPUTER	Electronics	1	3	[0, 0, 0]	n/a	catFR1	0	R1342M
656.671	1.6	427463	WORD	n/a	wordpools/wordpool_categorized_EN.txt	HEADPHONES	Electronics	2	3	[0, 0, 0]	n/a	catFR1	0	R1342M
658.306	1.088	429098	WORD_OFF	n/a	n/a	HEADPHONES	Electronics	2	3	[0, 0, 0]	n/a	catFR1	0	R1342M
659.394	1.6	430186	WORD	n/a	wordpools/wordpool_categorized_EN.txt	FOREST	Landscapes	3	3	[0, 0, 0]	n/a	catFR1	0	R1342M
661.025	0.836	431817	WORD_OFF	n/a	n/a	FOREST	Landscapes	3	3	[0, 0, 0]	n/a	catFR1	0	R1342M
661.861	1.6	432653	WORD	n/a	wordpools/wordpool_categorized_EN.txt	OCEAN	Landscapes	4	3	[0, 0, 0]	n/a	catFR1	0	R1342M
663.492	0.99	434284	WORD_OFF	n/a	n/a	OCEAN	Landscapes	4	3	[0, 0, 0]	n/a	catFR1	0	R1342M
664.482	1.6	435274	WORD	n/a	wordpools/wordpool_categorized_EN.txt	BROCCOLI	Vegetables	5	3	[0, 0, 0]	n/a	catFR1	0	R1342M
666.108	1.04	436900	WORD_OFF	n/a	n/a	BROCCOLI	Vegetables	5	3	[0, 0, 0]	n/a	catFR1	0	R1342M
667.148	1.6	437939	WORD	n/a	wordpools/wordpool_categorized_EN.txt	POTATO	Vegetables	6	3	[0, 0, 0]	n/a	catFR1	0	R1342M
668.776	0.914	439567	WORD_OFF	n/a	n/a	POTATO	Vegetables	6	3	[0, 0, 0]	n/a	catFR1	0	R1342M
669.69	1.6	440481	WORD	n/a	wordpools/wordpool_categorized_EN.txt	RADIO	Electronics	7	3	[0, 0, 0]	n/a	catFR1	0	R1342M
671.326	1.092	442117	WORD_OFF	n/a	n/a	RADIO	Electronics	7	3	[0, 0, 0]	n/a	catFR1	0	R1342M
672.418	1.6	443209	WORD	n/a	wordpools/wordpool_categorized_EN.txt	TABLET	Electronics	8	3	[0, 0, 0]	n/a	catFR1	0	R1342M
674.044	0.934	444835	WORD_OFF	n/a	n/a	TABLET	Electronics	8	3	[0, 0, 0]	n/a	catFR1	0	R1342M
674.978	1.6	445769	WORD	n/a	wordpools/wordpool_categorized_EN.txt	CABBAGE	Vegetables	9	3	[0, 0, 0]	n/a	catFR1	0	R1342M
676.611	0.758	447402	WORD_OFF	n/a	n/a	CABBAGE	Vegetables	9	3	[0, 0, 0]	n/a	catFR1	0	R1342M
677.369	1.6	448160	WORD	n/a	wordpools/wordpool_categorized_EN.txt	CARROT	Vegetables	10	3	[0, 0, 0]	n/a	catFR1	0	R1342M
678.995	1.06	449786	WORD_OFF	n/a	n/a	CARROT	Vegetables	10	3	[0, 0, 0]	n/a	catFR1	0	R1342M
680.055	1.6	450846	WORD	n/a	wordpools/wordpool_categorized_EN.txt	LAKE	Landscapes	11	3	[0, 0, 0]	n/a	catFR1	0	R1342M
681.679	0.829	452470	WORD_OFF	n/a	n/a	LAKE	Landscapes	11	3	[0, 0, 0]	n/a	catFR1	0	R1342M
682.508	1.6	453299	WORD	n/a	wordpools/wordpool_categorized_EN.txt	RIVER	Landscapes	12	3	[0, 0, 0]	n/a	catFR1	0	R1342M
684.145	0.0	454936	WORD_OFF	n/a	n/a	RIVER	Landscapes	12	3	[0, 0, 0]	n/a	catFR1	0	R1342M
684.145	0.0	454936	ENCODING_END	n/a	n/a	n/a	n/a	-999	3	[0, 0, 0]	n/a	catFR1	0	R1342M
684.145	0.001	454936	DISTRACT_START	n/a	n/a	n/a	n/a	-999	3	[0, 0, 0]	n/a	catFR1	0	R1342M
684.146	0.015	454937	START	n/a	n/a	n/a	n/a	-999	3	[-999, -999, -999]	n/a	catFR1	0	R1342M
684.161	7.736	454952	PROB	7.703	n/a	n/a	n/a	-999	3	[2, 9, 6]	17.0	catFR1	0	R1342M
691.897	7.384	462687	PROB	7.347	n/a	n/a	n/a	-999	3	[7, 5, 7]	19.0	catFR1	0	R1342M
699.281	5.826	470071	PROB	5.826	n/a	n/a	n/a	-999	3	[1, 8, 1]	10.0	catFR1	0	R1342M
705.107	0.008	475897	STOP	n/a	n/a	n/a	n/a	-999	3	[-999, -999, -999]	n/a	catFR1	0	R1342M
705.115	0.619	475905	DISTRACT_END	n/a	n/a	n/a	n/a	-999	3	[0, 0, 0]	n/a	catFR1	0	R1342M
705.734	1.6	476524	RETRIEVAL_ORIENT_START	n/a	n/a	n/a	n/a	-999	3	[0, 0, 0]	n/a	catFR1	0	R1342M
707.266	0.0	478056	RETRIEVAL_ORIENT_END	n/a	n/a	n/a	n/a	-999	3	[0, 0, 0]	n/a	catFR1	0	R1342M
707.266	5.091	478056	REC_START	n/a	n/a	n/a	n/a	-999	3	[0, 0, 0]	n/a	catFR1	0	R1342M
712.357	5.785	483146	REC_WORD	5.091	n/a	TABLET	Electronics	8	3	[0, 0, 0]	n/a	catFR1	0	R1342M
718.142	19.137	488931	REC_WORD	10.876	n/a	COMPUTER	Electronics	1	3	[0, 0, 0]	n/a	catFR1	0	R1342M
737.279	0.0	508067	REC_END	n/a	n/a	n/a	n/a	-999	3	[0, 0, 0]	n/a	catFR1	0	R1342M
737.279	0.025	508067	TRIAL_END	n/a	n/a	n/a	n/a	-999	3	[0, 0, 0]	n/a	catFR1	0	R1342M
737.304	0.0	508092	TRIAL_START	n/a	n/a	n/a	n/a	-999	4	[0, 0, 0]	n/a	catFR1	0	R1342M
737.304	0.0	508092	TRIAL	n/a	n/a	n/a	n/a	-999	4	[0, 0, 0]	n/a	catFR1	0	R1342M
737.304	7.969	508092	WAITING_START	n/a	n/a	n/a	n/a	-999	4	[0, 0, 0]	n/a	catFR1	0	R1342M
745.273	0.001	516061	WAITING_END	n/a	n/a	n/a	n/a	-999	4	[0, 0, 0]	n/a	catFR1	0	R1342M
745.274	10.0	516062	COUNTDOWN_START	n/a	n/a	n/a	n/a	-999	4	[0, 0, 0]	n/a	catFR1	0	R1342M
755.703	0.0	526490	COUNTDOWN_END	n/a	n/a	n/a	n/a	-999	4	[0, 0, 0]	n/a	catFR1	0	R1342M
755.703	1.223	526490	ORIENT_START	n/a	n/a	n/a	n/a	-999	4	[0, 0, 0]	n/a	catFR1	0	R1342M
756.926	0.001	527713	ORIENT_END	n/a	n/a	n/a	n/a	-999	4	[0, 0, 0]	n/a	catFR1	0	R1342M
756.927	0.855	527714	ENCODING_START	n/a	n/a	n/a	n/a	-999	4	[0, 0, 0]	n/a	catFR1	0	R1342M
757.782	1.6	528569	WORD	n/a	wordpools/wordpool_categorized_EN.txt	LEMONADE	Beverages	1	4	[0, 0, 0]	n/a	catFR1	0	R1342M
759.409	0.975	530196	WORD_OFF	n/a	n/a	LEMONADE	Beverages	1	4	[0, 0, 0]	n/a	catFR1	0	R1342M
760.384	1.6	531171	WORD	n/a	wordpools/wordpool_categorized_EN.txt	TEA	Beverages	2	4	[0, 0, 0]	n/a	catFR1	0	R1342M
762.011	1.107	532798	WORD_OFF	n/a	n/a	TEA	Beverages	2	4	[0, 0, 0]	n/a	catFR1	0	R1342M
763.118	1.6	533905	WORD	n/a	wordpools/wordpool_categorized_EN.txt	CYPRESS	Trees	3	4	[0, 0, 0]	n/a	catFR1	0	R1342M
764.728	0.762	535515	WORD_OFF	n/a	n/a	CYPRESS	Trees	3	4	[0, 0, 0]	n/a	catFR1	0	R1342M
765.49	1.6	536277	WORD	n/a	wordpools/wordpool_categorized_EN.txt	OAK	Trees	4	4	[0, 0, 0]	n/a	catFR1	0	R1342M
767.111	0.787	537898	WORD_OFF	n/a	n/a	OAK	Trees	4	4	[0, 0, 0]	n/a	catFR1	0	R1342M
767.898	1.6	538685	WORD	n/a	wordpools/wordpool_categorized_EN.txt	LETTUCE	Vegetables	5	4	[0, 0, 0]	n/a	catFR1	0	R1342M
769.529	0.946	540316	WORD_OFF	n/a	n/a	LETTUCE	Vegetables	5	4	[0, 0, 0]	n/a	catFR1	0	R1342M
770.475	1.6	541262	WORD	n/a	wordpools/wordpool_categorized_EN.txt	SPINACH	Vegetables	6	4	[0, 0, 0]	n/a	catFR1	0	R1342M
772.112	0.875	542898	WORD_OFF	n/a	n/a	SPINACH	Vegetables	6	4	[0, 0, 0]	n/a	catFR1	0	R1342M
772.987	1.6	543773	WORD	n/a	wordpools/wordpool_categorized_EN.txt	MILK	Beverages	7	4	[0, 0, 0]	n/a	catFR1	0	R1342M
774.613	1.066	545399	WORD_OFF	n/a	n/a	MILK	Beverages	7	4	[0, 0, 0]	n/a	catFR1	0	R1342M
775.679	1.6	546465	WORD	n/a	wordpools/wordpool_categorized_EN.txt	COLA	Beverages	8	4	[0, 0, 0]	n/a	catFR1	0	R1342M
777.313	0.944	548099	WORD_OFF	n/a	n/a	COLA	Beverages	8	4	[0, 0, 0]	n/a	catFR1	0	R1342M
778.257	1.6	549043	WORD	n/a	wordpools/wordpool_categorized_EN.txt	CUCUMBER	Vegetables	9	4	[0, 0, 0]	n/a	catFR1	0	R1342M
779.898	0.82	550684	WORD_OFF	n/a	n/a	CUCUMBER	Vegetables	9	4	[0, 0, 0]	n/a	catFR1	0	R1342M
780.718	1.6	551504	WORD	n/a	wordpools/wordpool_categorized_EN.txt	CAULIFLOWER	Vegetables	10	4	[0, 0, 0]	n/a	catFR1	0	R1342M
782.347	0.799	553133	WORD_OFF	n/a	n/a	CAULIFLOWER	Vegetables	10	4	[0, 0, 0]	n/a	catFR1	0	R1342M
783.146	1.6	553932	WORD	n/a	wordpools/wordpool_categorized_EN.txt	WALNUT	Trees	11	4	[0, 0, 0]	n/a	catFR1	0	R1342M
784.782	1.088	555568	WORD_OFF	n/a	n/a	WALNUT	Trees	11	4	[0, 0, 0]	n/a	catFR1	0	R1342M
785.87	1.6	556656	WORD	n/a	wordpools/wordpool_categorized_EN.txt	CEDAR	Trees	12	4	[0, 0, 0]	n/a	catFR1	0	R1342M
787.499	0.0	558285	WORD_OFF	n/a	n/a	CEDAR	Trees	12	4	[0, 0, 0]	n/a	catFR1	0	R1342M
787.499	0.0	558285	ENCODING_END	n/a	n/a	n/a	n/a	-999	4	[0, 0, 0]	n/a	catFR1	0	R1342M
787.499	0.001	558285	DISTRACT_START	n/a	n/a	n/a	n/a	-999	4	[0, 0, 0]	n/a	catFR1	0	R1342M
787.5	0.015	558286	START	n/a	n/a	n/a	n/a	-999	4	[-999, -999, -999]	n/a	catFR1	0	R1342M
787.515	8.185	558301	PROB	8.159	n/a	n/a	n/a	-999	4	[8, 6, 4]	18.0	catFR1	0	R1342M
795.7	5.335	566485	PROB	5.302	n/a	n/a	n/a	-999	4	[4, 3, 3]	10.0	catFR1	0	R1342M
801.035	7.337	571820	PROB	7.337	n/a	n/a	n/a	-999	4	[5, 6, 7]	18.0	catFR1	0	R1342M
808.372	0.013	579157	STOP	n/a	n/a	n/a	n/a	-999	4	[-999, -999, -999]	n/a	catFR1	0	R1342M
808.385	0.582	579170	DISTRACT_END	n/a	n/a	n/a	n/a	-999	4	[0, 0, 0]	n/a	catFR1	0	R1342M
808.967	1.6	579752	RETRIEVAL_ORIENT_START	n/a	n/a	n/a	n/a	-999	4	[0, 0, 0]	n/a	catFR1	0	R1342M
810.57	0.001	581355	RETRIEVAL_ORIENT_END	n/a	n/a	n/a	n/a	-999	4	[0, 0, 0]	n/a	catFR1	0	R1342M
810.571	6.766	581356	REC_START	n/a	n/a	n/a	n/a	-999	4	[0, 0, 0]	n/a	catFR1	0	R1342M
817.337	3.074	588121	REC_WORD	6.766	n/a	OAK	Trees	4	4	[0, 0, 0]	n/a	catFR1	0	R1342M
820.411	1.896	591195	REC_WORD	9.84	n/a	SPINACH	Vegetables	6	4	[0, 0, 0]	n/a	catFR1	0	R1342M
822.307	18.276	593091	REC_WORD	11.736	n/a	LETTUCE	Vegetables	5	4	[0, 0, 0]	n/a	catFR1	0	R1342M
840.583	0.001	611366	REC_END	n/a	n/a	n/a	n/a	-999	4	[0, 0, 0]	n/a	catFR1	0	R1342M
840.584	0.022	611367	TRIAL_END	n/a	n/a	n/a	n/a	-999	4	[0, 0, 0]	n/a	catFR1	0	R1342M
840.606	0.0	611389	TRIAL_START	n/a	n/a	n/a	n/a	-999	5	[0, 0, 0]	n/a	catFR1	0	R1342M
840.606	0.0	611389	TRIAL	n/a	n/a	n/a	n/a	-999	5	[0, 0, 0]	n/a	catFR1	0	R1342M
840.606	12.089	611389	WAITING_START	n/a	n/a	n/a	n/a	-999	5	[0, 0, 0]	n/a	catFR1	0	R1342M
852.695	10.0	623478	COUNTDOWN_START	n/a	n/a	n/a	n/a	-999	5	[0, 0, 0]	n/a	catFR1	0	R1342M
852.695	10.43	623478	WAITING_END	n/a	n/a	n/a	n/a	-999	5	[0, 0, 0]	n/a	catFR1	0	R1342M
863.125	0.0	633907	COUNTDOWN_END	n/a	n/a	n/a	n/a	-999	5	[0, 0, 0]	n/a	catFR1	0	R1342M
863.125	1.221	633907	ORIENT_START	n/a	n/a	n/a	n/a	-999	5	[0, 0, 0]	n/a	catFR1	0	R1342M
864.346	0.0	635128	ORIENT_END	n/a	n/a	n/a	n/a	-999	5	[0, 0, 0]	n/a	catFR1	0	R1342M
864.346	0.954	635128	ENCODING_START	n/a	n/a	n/a	n/a	-999	5	[0, 0, 0]	n/a	catFR1	0	R1342M
865.3	1.6	636082	WORD	n/a	wordpools/wordpool_categorized_EN.txt	DISHWASHER	Appliances	1	5	[0, 0, 0]	n/a	catFR1	0	R1342M
866.914	1.122	637696	WORD_OFF	n/a	n/a	DISHWASHER	Appliances	1	5	[0, 0, 0]	n/a	catFR1	0	R1342M
868.036	1.6	638818	WORD	n/a	wordpools/wordpool_categorized_EN.txt	FREEZER	Appliances	2	5	[0, 0, 0]	n/a	catFR1	0	R1342M
869.665	1.106	640447	WORD_OFF	n/a	n/a	FREEZER	Appliances	2	5	[0, 0, 0]	n/a	catFR1	0	R1342M
870.771	1.6	641553	WORD	n/a	wordpools/wordpool_categorized_EN.txt	LILAC	Flowers	3	5	[0, 0, 0]	n/a	catFR1	0	R1342M
872.398	1.056	643180	WORD_OFF	n/a	n/a	LILAC	Flowers	3	5	[0, 0, 0]	n/a	catFR1	0	R1342M
873.454	1.6	644236	WORD	n/a	wordpools/wordpool_categorized_EN.txt	SUNFLOWER	Flowers	4	5	[0, 0, 0]	n/a	catFR1	0	R1342M
875.082	1.051	645864	WORD_OFF	n/a	n/a	SUNFLOWER	Flowers	4	5	[0, 0, 0]	n/a	catFR1	0	R1342M
876.133	1.6	646914	WORD	n/a	wordpools/wordpool_categorized_EN.txt	CRAB	OceanAnimals	5	5	[0, 0, 0]	n/a	catFR1	0	R1342M
877.766	1.003	648547	WORD_OFF	n/a	n/a	CRAB	OceanAnimals	5	5	[0, 0, 0]	n/a	catFR1	0	R1342M
878.769	1.6	649550	WORD	n/a	wordpools/wordpool_categorized_EN.txt	FISH	OceanAnimals	6	5	[0, 0, 0]	n/a	catFR1	0	R1342M
880.399	0.809	651180	WORD_OFF	n/a	n/a	FISH	OceanAnimals	6	5	[0, 0, 0]	n/a	catFR1	0	R1342M
881.208	1.6	651989	WORD	n/a	wordpools/wordpool_categorized_EN.txt	PETUNIA	Flowers	7	5	[0, 0, 0]	n/a	catFR1	0	R1342M
882.834	1.081	653615	WORD_OFF	n/a	n/a	PETUNIA	Flowers	7	5	[0, 0, 0]	n/a	catFR1	0	R1342M
883.915	1.6	654696	WORD	n/a	wordpools/wordpool_categorized_EN.txt	ROSE	Flowers	8	5	[0, 0, 0]	n/a	catFR1	0	R1342M
885.551	0.859	656332	WORD_OFF	n/a	n/a	ROSE	Flowers	8	5	[0, 0, 0]	n/a	catFR1	0	R1342M
886.41	1.6	657191	WORD	n/a	wordpools/wordpool_categorized_EN.txt	BLENDER	Appliances	9	5	[0, 0, 0]	n/a	catFR1	0	R1342M
888.035	0.811	658816	WORD_OFF	n/a	n/a	BLENDER	Appliances	9	5	[0, 0, 0]	n/a	catFR1	0	R1342M
888.846	1.6	659627	WORD	n/a	wordpools/wordpool_categorized_EN.txt	TOASTER	Appliances	10	5	[0, 0, 0]	n/a	catFR1	0	R1342M
890.469	0.982	661250	WORD_OFF	n/a	n/a	TOASTER	Appliances	10	5	[0, 0, 0]	n/a	catFR1	0	R1342M
891.451	1.6	662232	WORD	n/a	wordpools/wordpool_categorized_EN.txt	PLANKTON	OceanAnimals	11	5	[0, 0, 0]	n/a	catFR1	0	R1342M
893.085	0.818	663866	WORD_OFF	n/a	n/a	PLANKTON	OceanAnimals	11	5	[0, 0, 0]	n/a	catFR1	0	R1342M
893.903	1.6	664684	WORD	n/a	wordpools/wordpool_categorized_EN.txt	SHRIMP	OceanAnimals	12	5	[0, 0, 0]	n/a	catFR1	0	R1342M
895.537	0.0	666318	WORD_OFF	n/a	n/a	SHRIMP	OceanAnimals	12	5	[0, 0, 0]	n/a	catFR1	0	R1342M
895.537	0.0	666318	ENCODING_END	n/a	n/a	n/a	n/a	-999	5	[0, 0, 0]	n/a	catFR1	0	R1342M
895.537	0.001	666318	DISTRACT_START	n/a	n/a	n/a	n/a	-999	5	[0, 0, 0]	n/a	catFR1	0	R1342M
895.538	0.015	666319	START	n/a	n/a	n/a	n/a	-999	5	[-999, -999, -999]	n/a	catFR1	0	R1342M
895.553	6.418	666334	PROB	6.394	n/a	n/a	n/a	-999	5	[9, 4, 9]	22.0	catFR1	0	R1342M
901.971	6.618	672751	PROB	6.588	n/a	n/a	n/a	-999	5	[4, 4, 6]	14.0	catFR1	0	R1342M
908.589	6.976	679369	PROB	6.976	n/a	n/a	n/a	-999	5	[3, 7, 5]	15.0	catFR1	0	R1342M
915.565	0.009	686345	STOP	n/a	n/a	n/a	n/a	-999	5	[-999, -999, -999]	n/a	catFR1	0	R1342M
915.574	0.552	686354	DISTRACT_END	n/a	n/a	n/a	n/a	-999	5	[0, 0, 0]	n/a	catFR1	0	R1342M
916.126	1.6	686906	RETRIEVAL_ORIENT_START	n/a	n/a	n/a	n/a	-999	5	[0, 0, 0]	n/a	catFR1	0	R1342M
917.741	0.0	688520	RETRIEVAL_ORIENT_END	n/a	n/a	n/a	n/a	-999	5	[0, 0, 0]	n/a	catFR1	0	R1342M
917.741	10.756	688520	REC_START	n/a	n/a	n/a	n/a	-999	5	[0, 0, 0]	n/a	catFR1	0	R1342M
928.497	2.746	699276	REC_WORD	10.756	n/a	FREEZER	Appliances	2	5	[0, 0, 0]	n/a	catFR1	0	R1342M
931.243	4.093	702022	REC_WORD	13.502	n/a	FISH	OceanAnimals	6	5	[0, 0, 0]	n/a	catFR1	0	R1342M
935.336	12.418	706115	REC_WORD	17.595	n/a	SHRIMP	OceanAnimals	12	5	[0, 0, 0]	n/a	catFR1	0	R1342M
947.754	0.0	718532	REC_END	n/a	n/a	n/a	n/a	-999	5	[0, 0, 0]	n/a	catFR1	0	R1342M
947.754	0.022	718532	TRIAL_END	n/a	n/a	n/a	n/a	-999	5	[0, 0, 0]	n/a	catFR1	0	R1342M
947.776	0.0	718554	TRIAL_START	n/a	n/a	n/a	n/a	-999	6	[0, 0, 0]	n/a	catFR1	0	R1342M
947.776	0.0	718554	TRIAL	n/a	n/a	n/a	n/a	-999	6	[0, 0, 0]	n/a	catFR1	0	R1342M
947.776	9.756	718554	WAITING_START	n/a	n/a	n/a	n/a	-999	6	[0, 0, 0]	n/a	catFR1	0	R1342M
957.532	0.0	728310	WAITING_END	n/a	n/a	n/a	n/a	-999	6	[0, 0, 0]	n/a	catFR1	0	R1342M
957.532	10.0	728310	COUNTDOWN_START	n/a	n/a	n/a	n/a	-999	6	[0, 0, 0]	n/a	catFR1	0	R1342M
967.961	0.0	738738	ORIENT_START	n/a	n/a	n/a	n/a	-999	6	[0, 0, 0]	n/a	catFR1	0	R1342M
967.961	1.09	738738	COUNTDOWN_END	n/a	n/a	n/a	n/a	-999	6	[0, 0, 0]	n/a	catFR1	0	R1342M
969.051	0.0	739828	ORIENT_END	n/a	n/a	n/a	n/a	-999	6	[0, 0, 0]	n/a	catFR1	0	R1342M
969.051	0.771	739828	ENCODING_START	n/a	n/a	n/a	n/a	-999	6	[0, 0, 0]	n/a	catFR1	0	R1342M
969.822	1.6	740599	WORD	n/a	wordpools/wordpool_categorized_EN.txt	VACUUM	Appliances	1	6	[0, 0, 0]	n/a	catFR1	0	R1342M
971.45	1.128	742227	WORD_OFF	n/a	n/a	VACUUM	Appliances	1	6	[0, 0, 0]	n/a	catFR1	0	R1342M
972.578	1.6	743355	WORD	n/a	wordpools/wordpool_categorized_EN.txt	OVEN	Appliances	2	6	[0, 0, 0]	n/a	catFR1	0	R1342M
974.201	0.975	744978	WORD_OFF	n/a	n/a	OVEN	Appliances	2	6	[0, 0, 0]	n/a	catFR1	0	R1342M
975.176	1.6	745953	WORD	n/a	wordpools/wordpool_categorized_EN.txt	COUCH	Furniture	3	6	[0, 0, 0]	n/a	catFR1	0	R1342M
976.785	0.877	747562	WORD_OFF	n/a	n/a	COUCH	Furniture	3	6	[0, 0, 0]	n/a	catFR1	0	R1342M
977.662	1.6	748439	WORD	n/a	wordpools/wordpool_categorized_EN.txt	SHELF	Furniture	4	6	[0, 0, 0]	n/a	catFR1	0	R1342M
979.285	0.821	750062	WORD_OFF	n/a	n/a	SHELF	Furniture	4	6	[0, 0, 0]	n/a	catFR1	0	R1342M
980.106	1.6	750882	WORD	n/a	wordpools/wordpool_categorized_EN.txt	GIRAFFE	Zoo	5	6	[0, 0, 0]	n/a	catFR1	0	R1342M
981.72	0.831	752496	WORD_OFF	n/a	n/a	GIRAFFE	Zoo	5	6	[0, 0, 0]	n/a	catFR1	0	R1342M
982.551	1.6	753327	WORD	n/a	wordpools/wordpool_categorized_EN.txt	ZEBRA	Zoo	6	6	[0, 0, 0]	n/a	catFR1	0	R1342M
984.186	0.783	754962	WORD_OFF	n/a	n/a	ZEBRA	Zoo	6	6	[0, 0, 0]	n/a	catFR1	0	R1342M
984.969	1.6	755745	WORD	n/a	wordpools/wordpool_categorized_EN.txt	MIXER	Appliances	7	6	[0, 0, 0]	n/a	catFR1	0	R1342M
986.604	1.049	757380	WORD_OFF	n/a	n/a	MIXER	Appliances	7	6	[0, 0, 0]	n/a	catFR1	0	R1342M
987.653	1.6	758429	WORD	n/a	wordpools/wordpool_categorized_EN.txt	REFRIGERATOR	Appliances	8	6	[0, 0, 0]	n/a	catFR1	0	R1342M
989.287	0.973	760063	WORD_OFF	n/a	n/a	REFRIGERATOR	Appliances	8	6	[0, 0, 0]	n/a	catFR1	0	R1342M
990.26	1.6	761036	WORD	n/a	wordpools/wordpool_categorized_EN.txt	PANDA	Zoo	9	6	[0, 0, 0]	n/a	catFR1	0	R1342M
991.889	0.891	762665	WORD_OFF	n/a	n/a	PANDA	Zoo	9	6	[0, 0, 0]	n/a	catFR1	0	R1342M
992.78	1.6	763556	WORD	n/a	wordpools/wordpool_categorized_EN.txt	GORILLA	Zoo	10	6	[0, 0, 0]	n/a	catFR1	0	R1342M
994.405	1.018	765181	WORD_OFF	n/a	n/a	GORILLA	Zoo	10	6	[0, 0, 0]	n/a	catFR1	0	R1342M
995.423	1.6	766199	WORD	n/a	wordpools/wordpool_categorized_EN.txt	NIGHTSTAND	Furniture	11	6	[0, 0, 0]	n/a	catFR1	0	R1342M
997.039	1.061	767815	WORD_OFF	n/a	n/a	NIGHTSTAND	Furniture	11	6	[0, 0, 0]	n/a	catFR1	0	R1342M
998.1	1.6	768876	WORD	n/a	wordpools/wordpool_categorized_EN.txt	CABINET	Furniture	12	6	[0, 0, 0]	n/a	catFR1	0	R1342M
999.74	0.001	770516	WORD_OFF	n/a	n/a	CABINET	Furniture	12	6	[0, 0, 0]	n/a	catFR1	0	R1342M
999.741	0.0	770517	ENCODING_END	n/a	n/a	n/a	n/a	-999	6	[0, 0, 0]	n/a	catFR1	0	R1342M
999.741	0.0	770517	DISTRACT_START	n/a	n/a	n/a	n/a	-999	6	[0, 0, 0]	n/a	catFR1	0	R1342M
999.741	0.015	770517	START	n/a	n/a	n/a	n/a	-999	6	[-999, -999, -999]	n/a	catFR1	0	R1342M
999.756	4.434	770532	PROB	4.411	n/a	n/a	n/a	-999	6	[2, 6, 4]	12.0	catFR1	0	R1342M
1004.19	5.285	774965	PROB	5.258	n/a	n/a	n/a	-999	6	[4, 9, 1]	15.0	catFR1	0	R1342M
1009.475	8.018	780250	PROB	7.992	n/a	n/a	n/a	-999	6	[4, 4, 9]	16.0	catFR1	0	R1342M
1017.493	6.567	788268	PROB	6.567	n/a	n/a	n/a	-999	6	[7, 4, 6]	17.0	catFR1	0	R1342M
1024.06	0.017	794834	STOP	n/a	n/a	n/a	n/a	-999	6	[-999, -999, -999]	n/a	catFR1	0	R1342M
1024.077	0.639	794851	DISTRACT_END	n/a	n/a	n/a	n/a	-999	6	[0, 0, 0]	n/a	catFR1	0	R1342M
1024.716	1.6	795490	RETRIEVAL_ORIENT_START	n/a	n/a	n/a	n/a	-999	6	[0, 0, 0]	n/a	catFR1	0	R1342M
1026.311	0.0	797085	RETRIEVAL_ORIENT_END	n/a	n/a	n/a	n/a	-999	6	[0, 0, 0]	n/a	catFR1	0	R1342M
1026.311	10.043	797085	REC_START	n/a	n/a	n/a	n/a	-999	6	[0, 0, 0]	n/a	catFR1	0	R1342M
1036.354	1.136	807128	REC_WORD	10.043	n/a	VACUUM	Appliances	1	6	[0, 0, 0]	n/a	catFR1	0	R1342M
1037.49	4.184	808264	REC_WORD	11.179	n/a	OVEN	Appliances	2	6	[0, 0, 0]	n/a	catFR1	0	R1342M
1041.674	1.883	812448	REC_WORD	15.363	n/a	COUCH	Furniture	3	6	[0, 0, 0]	n/a	catFR1	0	R1342M
1043.557	12.768	814330	REC_WORD	17.246	n/a	REFRIGERATOR	Appliances	8	6	[0, 0, 0]	n/a	catFR1	0	R1342M
1056.325	0.001	827098	REC_END	n/a	n/a	n/a	n/a	-999	6	[0, 0, 0]	n/a	catFR1	0	R1342M
1056.326	0.021	827099	TRIAL_END	n/a	n/a	n/a	n/a	-999	6	[0, 0, 0]	n/a	catFR1	0	R1342M
1056.347	0.0	827120	TRIAL_START	n/a	n/a	n/a	n/a	-999	7	[0, 0, 0]	n/a	catFR1	0	R1342M
1056.347	0.0	827120	TRIAL	n/a	n/a	n/a	n/a	-999	7	[0, 0, 0]	n/a	catFR1	0	R1342M
1056.347	8.305	827120	WAITING_START	n/a	n/a	n/a	n/a	-999	7	[0, 0, 0]	n/a	catFR1	0	R1342M
1064.652	0.001	835424	WAITING_END	n/a	n/a	n/a	n/a	-999	7	[0, 0, 0]	n/a	catFR1	0	R1342M
1064.653	10.0	835425	COUNTDOWN_START	n/a	n/a	n/a	n/a	-999	7	[0, 0, 0]	n/a	catFR1	0	R1342M
1075.081	0.001	845853	COUNTDOWN_END	n/a	n/a	n/a	n/a	-999	7	[0, 0, 0]	n/a	catFR1	0	R1342M
1075.082	1.255	845854	ORIENT_START	n/a	n/a	n/a	n/a	-999	7	[0, 0, 0]	n/a	catFR1	0	R1342M
1076.337	0.001	847109	ORIENT_END	n/a	n/a	n/a	n/a	-999	7	[0, 0, 0]	n/a	catFR1	0	R1342M
1076.338	1.011	847110	ENCODING_START	n/a	n/a	n/a	n/a	-999	7	[0, 0, 0]	n/a	catFR1	0	R1342M
1077.349	1.6	848121	WORD	n/a	wordpools/wordpool_categorized_EN.txt	FLY	Insects	1	7	[0, 0, 0]	n/a	catFR1	0	R1342M
1078.955	0.96	849727	WORD_OFF	n/a	n/a	FLY	Insects	1	7	[0, 0, 0]	n/a	catFR1	0	R1342M
1079.915	1.6	850687	WORD	n/a	wordpools/wordpool_categorized_EN.txt	ROACH	Insects	2	7	[0, 0, 0]	n/a	catFR1	0	R1342M
1081.539	1.083	852311	WORD_OFF	n/a	n/a	ROACH	Insects	2	7	[0, 0, 0]	n/a	catFR1	0	R1342M
1082.622	1.6	853394	WORD	n/a	wordpools/wordpool_categorized_EN.txt	SHOVEL	Tools	3	7	[0, 0, 0]	n/a	catFR1	0	R1342M
1084.255	0.963	855026	WORD_OFF	n/a	n/a	SHOVEL	Tools	3	7	[0, 0, 0]	n/a	catFR1	0	R1342M
1085.218	1.6	855989	WORD	n/a	wordpools/wordpool_categorized_EN.txt	WRENCH	Tools	4	7	[0, 0, 0]	n/a	catFR1	0	R1342M
1086.84	1.111	857611	WORD_OFF	n/a	n/a	WRENCH	Tools	4	7	[0, 0, 0]	n/a	catFR1	0	R1342M
1087.951	1.6	858722	WORD	n/a	wordpools/wordpool_categorized_EN.txt	EVERGREEN	Trees	5	7	[0, 0, 0]	n/a	catFR1	0	R1342M
1089.591	1.054	860362	WORD_OFF	n/a	n/a	EVERGREEN	Trees	5	7	[0, 0, 0]	n/a	catFR1	0	R1342M
1090.645	1.6	861416	WORD	n/a	wordpools/wordpool_categorized_EN.txt	ELM	Trees	6	7	[0, 0, 0]	n/a	catFR1	0	R1342M
1092.274	0.85	863045	WORD_OFF	n/a	n/a	ELM	Trees	6	7	[0, 0, 0]	n/a	catFR1	0	R1342M
1093.124	1.6	863895	WORD	n/a	wordpools/wordpool_categorized_EN.txt	BEE	Insects	7	7	[0, 0, 0]	n/a	catFR1	0	R1342M
1094.758	1.037	865529	WORD_OFF	n/a	n/a	BEE	Insects	7	7	[0, 0, 0]	n/a	catFR1	0	R1342M
1095.795	1.6	866566	WORD	n/a	wordpools/wordpool_categorized_EN.txt	BUTTERFLY	Insects	8	7	[0, 0, 0]	n/a	catFR1	0	R1342M
1097.425	0.873	868196	WORD_OFF	n/a	n/a	BUTTERFLY	Insects	8	7	[0, 0, 0]	n/a	catFR1	0	R1342M
1098.298	1.6	869069	WORD	n/a	wordpools/wordpool_categorized_EN.txt	MAPLE	Trees	9	7	[0, 0, 0]	n/a	catFR1	0	R1342M
1099.926	0.863	870697	WORD_OFF	n/a	n/a	MAPLE	Trees	9	7	[0, 0, 0]	n/a	catFR1	0	R1342M
1100.789	1.6	871560	WORD	n/a	wordpools/wordpool_categorized_EN.txt	WILLOW	Trees	10	7	[0, 0, 0]	n/a	catFR1	0	R1342M
1102.426	1.037	873197	WORD_OFF	n/a	n/a	WILLOW	Trees	10	7	[0, 0, 0]	n/a	catFR1	0	R1342M
1103.463	1.6	874234	WORD	n/a	wordpools/wordpool_categorized_EN.txt	SANDER	Tools	11	7	[0, 0, 0]	n/a	catFR1	0	R1342M
1105.093	0.814	875863	WORD_OFF	n/a	n/a	SANDER	Tools	11	7	[0, 0, 0]	n/a	catFR1	0	R1342M
1105.907	1.6	876677	WORD	n/a	wordpools/wordpool_categorized_EN.txt	CROWBAR	Tools	12	7	[0, 0, 0]	n/a	catFR1	0	R1342M
1107.544	0.001	878314	WORD_OFF	n/a	n/a	CROWBAR	Tools	12	7	[0, 0, 0]	n/a	catFR1	0	R1342M
1107.545	0.0	878315	ENCODING_END	n/a	n/a	n/a	n/a	-999	7	[0, 0, 0]	n/a	catFR1	0	R1342M
1107.545	0.0	878315	DISTRACT_START	n/a	n/a	n/a	n/a	-999	7	[0, 0, 0]	n/a	catFR1	0	R1342M
1107.545	0.016	878315	START	n/a	n/a	n/a	n/a	-999	7	[-999, -999, -999]	n/a	catFR1	0	R1342M
1107.561	5.334	878331	PROB	5.295	n/a	n/a	n/a	-999	7	[2, 3, 7]	12.0	catFR1	0	R1342M
1112.895	5.101	883665	PROB	5.073	n/a	n/a	n/a	-999	7	[1, 7, 7]	15.0	catFR1	0	R1342M
1117.996	7.434	888766	PROB	7.398	n/a	n/a	n/a	-999	7	[5, 4, 9]	18.0	catFR1	0	R1342M
1125.43	5.916	896200	PROB	5.916	n/a	n/a	n/a	-999	7	[8, 4, 3]	15.0	catFR1	0	R1342M
1131.346	0.018	902115	STOP	n/a	n/a	n/a	n/a	-999	7	[-999, -999, -999]	n/a	catFR1	0	R1342M
1131.364	0.646	902133	DISTRACT_END	n/a	n/a	n/a	n/a	-999	7	[0, 0, 0]	n/a	catFR1	0	R1342M
1132.01	1.6	902779	RETRIEVAL_ORIENT_START	n/a	n/a	n/a	n/a	-999	7	[0, 0, 0]	n/a	catFR1	0	R1342M
1133.683	0.0	904452	RETRIEVAL_ORIENT_END	n/a	n/a	n/a	n/a	-999	7	[0, 0, 0]	n/a	catFR1	0	R1342M
1133.683	7.486	904452	REC_START	n/a	n/a	n/a	n/a	-999	7	[0, 0, 0]	n/a	catFR1	0	R1342M
1141.169	22.526	911938	REC_WORD	7.486	n/a	EVERGREEN	Trees	5	7	[0, 0, 0]	n/a	catFR1	0	R1342M
1163.695	0.001	934463	REC_END	n/a	n/a	n/a	n/a	-999	7	[0, 0, 0]	n/a	catFR1	0	R1342M
1163.696	0.023	934464	TRIAL_END	n/a	n/a	n/a	n/a	-999	7	[0, 0, 0]	n/a	catFR1	0	R1342M
1163.719	0.001	934487	TRIAL_START	n/a	n/a	n/a	n/a	-999	8	[0, 0, 0]	n/a	catFR1	0	R1342M
1163.72	0.0	934488	TRIAL	n/a	n/a	n/a	n/a	-999	8	[0, 0, 0]	n/a	catFR1	0	R1342M
1163.72	19.222	934488	WAITING_START	n/a	n/a	n/a	n/a	-999	8	[0, 0, 0]	n/a	catFR1	0	R1342M
1182.942	0.0	953709	WAITING_END	n/a	n/a	n/a	n/a	-999	8	[0, 0, 0]	n/a	catFR1	0	R1342M
1182.942	10.0	953709	COUNTDOWN_START	n/a	n/a	n/a	n/a	-999	8	[0, 0, 0]	n/a	catFR1	0	R1342M
1193.372	0.0	964138	COUNTDOWN_END	n/a	n/a	n/a	n/a	-999	8	[0, 0, 0]	n/a	catFR1	0	R1342M
1193.372	1.256	964138	ORIENT_START	n/a	n/a	n/a	n/a	-999	8	[0, 0, 0]	n/a	catFR1	0	R1342M
1194.628	0.0	965394	ENCODING_START	n/a	n/a	n/a	n/a	-999	8	[0, 0, 0]	n/a	catFR1	0	R1342M
1194.628	1.012	965394	ORIENT_END	n/a	n/a	n/a	n/a	-999	8	[0, 0, 0]	n/a	catFR1	0	R1342M
1195.64	1.6	966406	WORD	n/a	wordpools/wordpool_categorized_EN.txt	PEACH	Fruit	1	8	[0, 0, 0]	n/a	catFR1	0	R1342M
1197.261	0.813	968027	WORD_OFF	n/a	n/a	PEACH	Fruit	1	8	[0, 0, 0]	n/a	catFR1	0	R1342M
1198.074	1.6	968840	WORD	n/a	wordpools/wordpool_categorized_EN.txt	LIME	Fruit	2	8	[0, 0, 0]	n/a	catFR1	0	R1342M
1199.695	0.969	970461	WORD_OFF	n/a	n/a	LIME	Fruit	2	8	[0, 0, 0]	n/a	catFR1	0	R1342M
1200.664	1.6	971430	WORD	n/a	wordpools/wordpool_categorized_EN.txt	NOTEBOOK	OfficeSupplies	3	8	[0, 0, 0]	n/a	catFR1	0	R1342M
1202.295	1.118	973061	WORD_OFF	n/a	n/a	NOTEBOOK	OfficeSupplies	3	8	[0, 0, 0]	n/a	catFR1	0	R1342M
1203.413	1.6	974179	WORD	n/a	wordpools/wordpool_categorized_EN.txt	ERASER	OfficeSupplies	4	8	[0, 0, 0]	n/a	catFR1	0	R1342M
1205.046	0.975	975812	WORD_OFF	n/a	n/a	ERASER	OfficeSupplies	4	8	[0, 0, 0]	n/a	catFR1	0	R1342M
1206.021	1.6	976787	WORD	n/a	wordpools/wordpool_categorized_EN.txt	SAW	Tools	5	8	[0, 0, 0]	n/a	catFR1	0	R1342M
1207.647	0.909	978413	WORD_OFF	n/a	n/a	SAW	Tools	5	8	[0, 0, 0]	n/a	catFR1	0	R1342M
1208.556	1.6	979322	WORD	n/a	wordpools/wordpool_categorized_EN.txt	AXE	Tools	6	8	[0, 0, 0]	n/a	catFR1	0	R1342M
1210.18	1.08	980945	WORD_OFF	n/a	n/a	AXE	Tools	6	8	[0, 0, 0]	n/a	catFR1	0	R1342M
1211.26	1.6	982025	WORD	n/a	wordpools/wordpool_categorized_EN.txt	GLUE	OfficeSupplies	7	8	[0, 0, 0]	n/a	catFR1	0	R1342M
1212.898	0.94	983663	WORD_OFF	n/a	n/a	GLUE	OfficeSupplies	7	8	[0, 0, 0]	n/a	catFR1	0	R1342M
1213.838	1.6	984603	WORD	n/a	wordpools/wordpool_categorized_EN.txt	PAPER	OfficeSupplies	8	8	[0, 0, 0]	n/a	catFR1	0	R1342M
1215.465	1.144	986230	WORD_OFF	n/a	n/a	PAPER	OfficeSupplies	8	8	[0, 0, 0]	n/a	catFR1	0	R1342M
1216.609	1.6	987374	WORD	n/a	wordpools/wordpool_categorized_EN.txt	PLIERS	Tools	9	8	[0, 0, 0]	n/a	catFR1	0	R1342M
1218.231	1.12	988996	WORD_OFF	n/a	n/a	PLIERS	Tools	9	8	[0, 0, 0]	n/a	catFR1	0	R1342M
1219.351	1.6	990116	WORD	n/a	wordpools/wordpool_categorized_EN.txt	LEVEL	Tools	10	8	[0, 0, 0]	n/a	catFR1	0	R1342M
1220.983	1.131	991748	WORD_OFF	n/a	n/a	LEVEL	Tools	10	8	[0, 0, 0]	n/a	catFR1	0	R1342M
1222.114	1.6	992879	WORD	n/a	wordpools/wordpool_categorized_EN.txt	STRAWBERRY	Fruit	11	8	[0, 0, 0]	n/a	catFR1	0	R1342M
1223.75	1.119	994515	WORD_OFF	n/a	n/a	STRAWBERRY	Fruit	11	8	[0, 0, 0]	n/a	catFR1	0	R1342M
1224.869	1.6	995634	WORD	n/a	wordpools/wordpool_categorized_EN.txt	BLUEBERRY	Fruit	12	8	[0, 0, 0]	n/a	catFR1	0	R1342M
1226.5	0.001	997265	WORD_OFF	n/a	n/a	BLUEBERRY	Fruit	12	8	[0, 0, 0]	n/a	catFR1	0	R1342M
1226.501	0.0	997266	DISTRACT_START	n/a	n/a	n/a	n/a	-999	8	[0, 0, 0]	n/a	catFR1	0	R1342M
1226.501	0.0	997266	ENCODING_END	n/a	n/a	n/a	n/a	-999	8	[0, 0, 0]	n/a	catFR1	0	R1342M
1226.501	0.016	997266	START	n/a	n/a	n/a	n/a	-999	8	[-999, -999, -999]	n/a	catFR1	0	R1342M
1226.517	9.634	997282	PROB	9.599	n/a	n/a	n/a	-999	8	[3, 3, 9]	15.0	catFR1	0	R1342M
1236.151	7.268	1006915	PROB	7.23	n/a	n/a	n/a	-999	8	[3, 8, 8]	19.0	catFR1	0	R1342M
1243.419	5.851	1014183	PROB	5.851	n/a	n/a	n/a	-999	8	[4, 1, 1]	6.0	catFR1	0	R1342M
1249.27	0.017	1020034	STOP	n/a	n/a	n/a	n/a	-999	8	[-999, -999, -999]	n/a	catFR1	0	R1342M
1249.287	0.632	1020051	DISTRACT_END	n/a	n/a	n/a	n/a	-999	8	[0, 0, 0]	n/a	catFR1	0	R1342M
1249.919	1.6	1020683	RETRIEVAL_ORIENT_START	n/a	n/a	n/a	n/a	-999	8	[0, 0, 0]	n/a	catFR1	0	R1342M
1251.605	0.001	1022368	RETRIEVAL_ORIENT_END	n/a	n/a	n/a	n/a	-999	8	[0, 0, 0]	n/a	catFR1	0	R1342M
1251.606	29.988	1022369	REC_START	n/a	n/a	n/a	n/a	-999	8	[0, 0, 0]	n/a	catFR1	0	R1342M
1281.594	0.025	1052356	REC_WORD_VV	29.988	n/a	<>	n/a	-999	8	[0, 0, 0]	n/a	catFR1	0	R1342M
1281.619	0.0	1052381	REC_END	n/a	n/a	n/a	n/a	-999	8	[0, 0, 0]	n/a	catFR1	0	R1342M
1281.619	0.022	1052381	TRIAL_END	n/a	n/a	n/a	n/a	-999	8	[0, 0, 0]	n/a	catFR1	0	R1342M
1281.641	0.0	1052403	TRIAL_START	n/a	n/a	n/a	n/a	-999	9	[0, 0, 0]	n/a	catFR1	0	R1342M
1281.641	0.0	1052403	TRIAL	n/a	n/a	n/a	n/a	-999	9	[0, 0, 0]	n/a	catFR1	0	R1342M
1281.641	19.407	1052403	WAITING_START	n/a	n/a	n/a	n/a	-999	9	[0, 0, 0]	n/a	catFR1	0	R1342M
1301.048	0.001	1071809	WAITING_END	n/a	n/a	n/a	n/a	-999	9	[0, 0, 0]	n/a	catFR1	0	R1342M
1301.049	10.0	1071810	COUNTDOWN_START	n/a	n/a	n/a	n/a	-999	9	[0, 0, 0]	n/a	catFR1	0	R1342M
1311.477	0.001	1082238	COUNTDOWN_END	n/a	n/a	n/a	n/a	-999	9	[0, 0, 0]	n/a	catFR1	0	R1342M
1311.478	1.072	1082239	ORIENT_START	n/a	n/a	n/a	n/a	-999	9	[0, 0, 0]	n/a	catFR1	0	R1342M
1312.55	0.001	1083311	ORIENT_END	n/a	n/a	n/a	n/a	-999	9	[0, 0, 0]	n/a	catFR1	0	R1342M
1312.551	0.805	1083312	ENCODING_START	n/a	n/a	n/a	n/a	-999	9	[0, 0, 0]	n/a	catFR1	0	R1342M
1313.356	1.6	1084117	WORD	n/a	wordpools/wordpool_categorized_EN.txt	EYE	BodyParts	1	9	[0, 0, 0]	n/a	catFR1	0	R1342M
1314.984	1.088	1085744	WORD_OFF	n/a	n/a	EYE	BodyParts	1	9	[0, 0, 0]	n/a	catFR1	0	R1342M
1316.072	1.6	1086832	WORD	n/a	wordpools/wordpool_categorized_EN.txt	HAND	BodyParts	2	9	[0, 0, 0]	n/a	catFR1	0	R1342M
1317.701	0.963	1088461	WORD_OFF	n/a	n/a	HAND	BodyParts	2	9	[0, 0, 0]	n/a	catFR1	0	R1342M
1318.664	1.6	1089424	WORD	n/a	wordpools/wordpool_categorized_EN.txt	PHONE	Electronics	3	9	[0, 0, 0]	n/a	catFR1	0	R1342M
1320.301	1.019	1091061	WORD_OFF	n/a	n/a	PHONE	Electronics	3	9	[0, 0, 0]	n/a	catFR1	0	R1342M
1321.32	1.6	1092080	WORD	n/a	wordpools/wordpool_categorized_EN.txt	TELEVISION	Electronics	4	9	[0, 0, 0]	n/a	catFR1	0	R1342M
1322.952	1.097	1093712	WORD_OFF	n/a	n/a	TELEVISION	Electronics	4	9	[0, 0, 0]	n/a	catFR1	0	R1342M
1324.049	1.6	1094809	WORD	n/a	wordpools/wordpool_categorized_EN.txt	TIGER	Zoo	5	9	[0, 0, 0]	n/a	catFR1	0	R1342M
1325.669	1.002	1096429	WORD_OFF	n/a	n/a	TIGER	Zoo	5	9	[0, 0, 0]	n/a	catFR1	0	R1342M
1326.671	1.6	1097431	WORD	n/a	wordpools/wordpool_categorized_EN.txt	CHIMPANZEE	Zoo	6	9	[0, 0, 0]	n/a	catFR1	0	R1342M
1328.302	0.999	1099062	WORD_OFF	n/a	n/a	CHIMPANZEE	Zoo	6	9	[0, 0, 0]	n/a	catFR1	0	R1342M
1329.301	1.6	1100061	WORD	n/a	wordpools/wordpool_categorized_EN.txt	EAR	BodyParts	7	9	[0, 0, 0]	n/a	catFR1	0	R1342M
1330.937	0.967	1101697	WORD_OFF	n/a	n/a	EAR	BodyParts	7	9	[0, 0, 0]	n/a	catFR1	0	R1342M
1331.904	1.6	1102664	WORD	n/a	wordpools/wordpool_categorized_EN.txt	HEAD	BodyParts	8	9	[0, 0, 0]	n/a	catFR1	0	R1342M
1333.538	0.759	1104298	WORD_OFF	n/a	n/a	HEAD	BodyParts	8	9	[0, 0, 0]	n/a	catFR1	0	R1342M
1334.297	1.6	1105057	WORD	n/a	wordpools/wordpool_categorized_EN.txt	MICROWAVE	Electronics	9	9	[0, 0, 0]	n/a	catFR1	0	R1342M
1335.905	0.825	1106664	WORD_OFF	n/a	n/a	MICROWAVE	Electronics	9	9	[0, 0, 0]	n/a	catFR1	0	R1342M
1336.73	1.6	1107489	WORD	n/a	wordpools/wordpool_categorized_EN.txt	SPEAKER	Electronics	10	9	[0, 0, 0]	n/a	catFR1	0	R1342M
1338.354	0.887	1109113	WORD_OFF	n/a	n/a	SPEAKER	Electronics	10	9	[0, 0, 0]	n/a	catFR1	0	R1342M
1339.241	1.6	1110000	WORD	n/a	wordpools/wordpool_categorized_EN.txt	ELEPHANT	Zoo	11	9	[0, 0, 0]	n/a	catFR1	0	R1342M
1340.856	0.757	1111615	WORD_OFF	n/a	n/a	ELEPHANT	Zoo	11	9	[0, 0, 0]	n/a	catFR1	0	R1342M
1341.613	1.6	1112372	WORD	n/a	wordpools/wordpool_categorized_EN.txt	BEAR	Zoo	12	9	[0, 0, 0]	n/a	catFR1	0	R1342M
1343.239	0.0	1113998	WORD_OFF	n/a	n/a	BEAR	Zoo	12	9	[0, 0, 0]	n/a	catFR1	0	R1342M
1343.239	0.0	1113998	ENCODING_END	n/a	n/a	n/a	n/a	-999	9	[0, 0, 0]	n/a	catFR1	0	R1342M
1343.239	0.0	1113998	DISTRACT_START	n/a	n/a	n/a	n/a	-999	9	[0, 0, 0]	n/a	catFR1	0	R1342M
1343.239	0.016	1113998	START	n/a	n/a	n/a	n/a	-999	9	[-999, -999, -999]	n/a	catFR1	0	R1342M
1343.255	7.619	1114014	PROB	7.585	n/a	n/a	n/a	-999	9	[3, 4, 7]	14.0	catFR1	0	R1342M
1350.874	5.735	1121633	PROB	5.711	n/a	n/a	n/a	-999	9	[7, 7, 4]	18.0	catFR1	0	R1342M
1356.609	4.6	1127367	PROB	4.567	n/a	n/a	n/a	-999	9	[1, 4, 3]	8.0	catFR1	0	R1342M
1361.209	5.031	1131967	PROB	5.031	n/a	n/a	n/a	-999	9	[9, 1, 3]	13.0	catFR1	0	R1342M
1366.24	0.02	1136998	STOP	n/a	n/a	n/a	n/a	-999	9	[-999, -999, -999]	n/a	catFR1	0	R1342M
1366.26	0.617	1137018	DISTRACT_END	n/a	n/a	n/a	n/a	-999	9	[0, 0, 0]	n/a	catFR1	0	R1342M
1366.877	1.6	1137635	RETRIEVAL_ORIENT_START	n/a	n/a	n/a	n/a	-999	9	[0, 0, 0]	n/a	catFR1	0	R1342M
1368.594	0.001	1139352	RETRIEVAL_ORIENT_END	n/a	n/a	n/a	n/a	-999	9	[0, 0, 0]	n/a	catFR1	0	R1342M
1368.595	4.488	1139353	REC_START	n/a	n/a	n/a	n/a	-999	9	[0, 0, 0]	n/a	catFR1	0	R1342M
1373.083	4.407	1143841	REC_WORD	4.488	n/a	TELEVISION	Electronics	4	9	[0, 0, 0]	n/a	catFR1	0	R1342M
1377.49	9.02	1148247	REC_WORD	8.895	n/a	CHIMPANZEE	Zoo	6	9	[0, 0, 0]	n/a	catFR1	0	R1342M
1386.51	12.098	1157267	REC_WORD	17.915	n/a	TIGER	Zoo	5	9	[0, 0, 0]	n/a	catFR1	0	R1342M
1398.608	0.0	1169364	REC_END	n/a	n/a	n/a	n/a	-999	9	[0, 0, 0]	n/a	catFR1	0	R1342M
1398.608	0.025	1169364	TRIAL_END	n/a	n/a	n/a	n/a	-999	9	[0, 0, 0]	n/a	catFR1	0	R1342M
1398.633	0.001	1169389	TRIAL_START	n/a	n/a	n/a	n/a	-999	10	[0, 0, 0]	n/a	catFR1	0	R1342M
1398.634	0.0	1169390	TRIAL	n/a	n/a	n/a	n/a	-999	10	[0, 0, 0]	n/a	catFR1	0	R1342M
1398.634	6.184	1169390	WAITING_START	n/a	n/a	n/a	n/a	-999	10	[0, 0, 0]	n/a	catFR1	0	R1342M
1404.818	0.001	1175574	WAITING_END	n/a	n/a	n/a	n/a	-999	10	[0, 0, 0]	n/a	catFR1	0	R1342M
1404.819	10.0	1175575	COUNTDOWN_START	n/a	n/a	n/a	n/a	-999	10	[0, 0, 0]	n/a	catFR1	0	R1342M
1415.248	0.0	1186004	COUNTDOWN_END	n/a	n/a	n/a	n/a	-999	10	[0, 0, 0]	n/a	catFR1	0	R1342M
1415.248	1.038	1186004	ORIENT_START	n/a	n/a	n/a	n/a	-999	10	[0, 0, 0]	n/a	catFR1	0	R1342M
1416.286	0.001	1187042	ORIENT_END	n/a	n/a	n/a	n/a	-999	10	[0, 0, 0]	n/a	catFR1	0	R1342M
1416.287	1.093	1187043	ENCODING_START	n/a	n/a	n/a	n/a	-999	10	[0, 0, 0]	n/a	catFR1	0	R1342M
1417.38	1.6	1188136	WORD	n/a	wordpools/wordpool_categorized_EN.txt	FOOT	BodyParts	1	10	[0, 0, 0]	n/a	catFR1	0	R1342M
1419.004	1.134	1189759	WORD_OFF	n/a	n/a	FOOT	BodyParts	1	10	[0, 0, 0]	n/a	catFR1	0	R1342M
1420.138	1.6	1190893	WORD	n/a	wordpools/wordpool_categorized_EN.txt	KNEE	BodyParts	2	10	[0, 0, 0]	n/a	catFR1	0	R1342M
1421.771	0.928	1192526	WORD_OFF	n/a	n/a	KNEE	BodyParts	2	10	[0, 0, 0]	n/a	catFR1	0	R1342M
1422.699	1.6	1193454	WORD	n/a	wordpools/wordpool_categorized_EN.txt	FUDGE	Desserts	3	10	[0, 0, 0]	n/a	catFR1	0	R1342M
1424.321	1.088	1195076	WORD_OFF	n/a	n/a	FUDGE	Desserts	3	10	[0, 0, 0]	n/a	catFR1	0	R1342M
1425.409	1.6	1196164	WORD	n/a	wordpools/wordpool_categorized_EN.txt	CAKE	Desserts	4	10	[0, 0, 0]	n/a	catFR1	0	R1342M
1427.022	0.857	1197777	WORD_OFF	n/a	n/a	CAKE	Desserts	4	10	[0, 0, 0]	n/a	catFR1	0	R1342M
1427.879	1.6	1198634	WORD	n/a	wordpools/wordpool_categorized_EN.txt	RATCHET	Tools	5	10	[0, 0, 0]	n/a	catFR1	0	R1342M
1429.506	0.918	1200261	WORD_OFF	n/a	n/a	RATCHET	Tools	5	10	[0, 0, 0]	n/a	catFR1	0	R1342M
1430.424	1.6	1201179	WORD	n/a	wordpools/wordpool_categorized_EN.txt	HAMMER	Tools	6	10	[0, 0, 0]	n/a	catFR1	0	R1342M
1432.056	0.857	1202811	WORD_OFF	n/a	n/a	HAMMER	Tools	6	10	[0, 0, 0]	n/a	catFR1	0	R1342M
1432.913	1.6	1203668	WORD	n/a	wordpools/wordpool_categorized_EN.txt	COOKIE	Desserts	7	10	[0, 0, 0]	n/a	catFR1	0	R1342M
1434.541	0.976	1205296	WORD_OFF	n/a	n/a	COOKIE	Desserts	7	10	[0, 0, 0]	n/a	catFR1	0	R1342M
1435.517	1.6	1206272	WORD	n/a	wordpools/wordpool_categorized_EN.txt	BROWNIES	Desserts	8	10	[0, 0, 0]	n/a	catFR1	0	R1342M
1437.14	1.117	1207895	WORD_OFF	n/a	n/a	BROWNIES	Desserts	8	10	[0, 0, 0]	n/a	catFR1	0	R1342M
1438.257	1.6	1209012	WORD	n/a	wordpools/wordpool_categorized_EN.txt	DRILL	Tools	9	10	[0, 0, 0]	n/a	catFR1	0	R1342M
1439.875	1.083	1210629	WORD_OFF	n/a	n/a	DRILL	Tools	9	10	[0, 0, 0]	n/a	catFR1	0	R1342M
1440.958	1.6	1211712	WORD	n/a	wordpools/wordpool_categorized_EN.txt	SCREWDRIVER	Tools	10	10	[0, 0, 0]	n/a	catFR1	0	R1342M
1442.592	1.047	1213346	WORD_OFF	n/a	n/a	SCREWDRIVER	Tools	10	10	[0, 0, 0]	n/a	catFR1	0	R1342M
1443.639	1.6	1214393	WORD	n/a	wordpools/wordpool_categorized_EN.txt	ARM	BodyParts	11	10	[0, 0, 0]	n/a	catFR1	0	R1342M
1445.275	0.858	1216029	WORD_OFF	n/a	n/a	ARM	BodyParts	11	10	[0, 0, 0]	n/a	catFR1	0	R1342M
1446.133	1.6	1216887	WORD	n/a	wordpools/wordpool_categorized_EN.txt	NOSE	BodyParts	12	10	[0, 0, 0]	n/a	catFR1	0	R1342M
1447.76	0.0	1218514	WORD_OFF	n/a	n/a	NOSE	BodyParts	12	10	[0, 0, 0]	n/a	catFR1	0	R1342M
1447.76	0.0	1218514	ENCODING_END	n/a	n/a	n/a	n/a	-999	10	[0, 0, 0]	n/a	catFR1	0	R1342M
1447.76	0.001	1218514	DISTRACT_START	n/a	n/a	n/a	n/a	-999	10	[0, 0, 0]	n/a	catFR1	0	R1342M
1447.761	0.015	1218515	START	n/a	n/a	n/a	n/a	-999	10	[-999, -999, -999]	n/a	catFR1	0	R1342M
1447.776	5.6	1218530	PROB	5.566	n/a	n/a	n/a	-999	10	[6, 3, 1]	10.0	catFR1	0	R1342M
1453.376	6.186	1224130	PROB	6.155	n/a	n/a	n/a	-999	10	[3, 6, 1]	10.0	catFR1	0	R1342M
1459.562	5.567	1230316	PROB	5.528	n/a	n/a	n/a	-999	10	[7, 4, 3]	14.0	catFR1	0	R1342M
1465.129	5.049	1235882	PROB	5.049	n/a	n/a	n/a	-999	10	[9, 1, 4]	14.0	catFR1	0	R1342M
1470.178	0.019	1240931	STOP	n/a	n/a	n/a	n/a	-999	10	[-999, -999, -999]	n/a	catFR1	0	R1342M
1470.197	0.545	1240950	DISTRACT_END	n/a	n/a	n/a	n/a	-999	10	[0, 0, 0]	n/a	catFR1	0	R1342M
1470.742	1.6	1241495	RETRIEVAL_ORIENT_START	n/a	n/a	n/a	n/a	-999	10	[0, 0, 0]	n/a	catFR1	0	R1342M
1472.264	0.0	1243017	RETRIEVAL_ORIENT_END	n/a	n/a	n/a	n/a	-999	10	[0, 0, 0]	n/a	catFR1	0	R1342M
1472.264	4.854	1243017	REC_START	n/a	n/a	n/a	n/a	-999	10	[0, 0, 0]	n/a	catFR1	0	R1342M
1477.118	3.729	1247871	REC_WORD	4.854	n/a	SCREWDRIVER	Tools	10	10	[0, 0, 0]	n/a	catFR1	0	R1342M
1480.847	1.292	1251599	REC_WORD	8.583	n/a	FOOT	BodyParts	1	10	[0, 0, 0]	n/a	catFR1	0	R1342M
1482.139	6.761	1252891	REC_WORD	9.875	n/a	KNEE	BodyParts	2	10	[0, 0, 0]	n/a	catFR1	0	R1342M
1488.9	6.222	1259652	REC_WORD	16.636	n/a	RATCHET	Tools	5	10	[0, 0, 0]	n/a	catFR1	0	R1342M
1495.122	7.152	1265874	REC_WORD	22.858	n/a	NOSE	BodyParts	12	10	[0, 0, 0]	n/a	catFR1	0	R1342M
1502.274	0.001	1273025	REC_END	n/a	n/a	n/a	n/a	-999	10	[0, 0, 0]	n/a	catFR1	0	R1342M
1502.275	0.025	1273026	TRIAL_END	n/a	n/a	n/a	n/a	-999	10	[0, 0, 0]	n/a	catFR1	0	R1342M
1502.3	0.0	1273051	TRIAL_START	n/a	n/a	n/a	n/a	-999	11	[0, 0, 0]	n/a	catFR1	0	R1342M
1502.3	0.0	1273051	TRIAL	n/a	n/a	n/a	n/a	-999	11	[0, 0, 0]	n/a	catFR1	0	R1342M
1502.3	7.771	1273051	WAITING_START	n/a	n/a	n/a	n/a	-999	11	[0, 0, 0]	n/a	catFR1	0	R1342M
1510.071	0.0	1280822	WAITING_END	n/a	n/a	n/a	n/a	-999	11	[0, 0, 0]	n/a	catFR1	0	R1342M
1510.071	10.0	1280822	COUNTDOWN_START	n/a	n/a	n/a	n/a	-999	11	[0, 0, 0]	n/a	catFR1	0	R1342M
1520.499	0.0	1291250	COUNTDOWN_END	n/a	n/a	n/a	n/a	-999	11	[0, 0, 0]	n/a	catFR1	0	R1342M
1520.499	1.025	1291250	ORIENT_START	n/a	n/a	n/a	n/a	-999	11	[0, 0, 0]	n/a	catFR1	0	R1342M
1521.524	0.001	1292275	ORIENT_END	n/a	n/a	n/a	n/a	-999	11	[0, 0, 0]	n/a	catFR1	0	R1342M
1521.525	0.858	1292276	ENCODING_START	n/a	n/a	n/a	n/a	-999	11	[0, 0, 0]	n/a	catFR1	0	R1342M
1522.383	1.6	1293133	WORD	n/a	wordpools/wordpool_categorized_EN.txt	SODA	Beverages	1	11	[0, 0, 0]	n/a	catFR1	0	R1342M
1524.008	0.827	1294758	WORD_OFF	n/a	n/a	SODA	Beverages	1	11	[0, 0, 0]	n/a	catFR1	0	R1342M
1524.835	1.6	1295585	WORD	n/a	wordpools/wordpool_categorized_EN.txt	WATER	Beverages	2	11	[0, 0, 0]	n/a	catFR1	0	R1342M
1526.458	1.003	1297208	WORD_OFF	n/a	n/a	WATER	Beverages	2	11	[0, 0, 0]	n/a	catFR1	0	R1342M
1527.461	1.6	1298211	WORD	n/a	wordpools/wordpool_categorized_EN.txt	MOTORCYCLE	Vehicles	3	11	[0, 0, 0]	n/a	catFR1	0	R1342M
1529.091	1.052	1299841	WORD_OFF	n/a	n/a	MOTORCYCLE	Vehicles	3	11	[0, 0, 0]	n/a	catFR1	0	R1342M
1530.143	1.6	1300893	WORD	n/a	wordpools/wordpool_categorized_EN.txt	BUS	Vehicles	4	11	[0, 0, 0]	n/a	catFR1	0	R1342M
1531.759	0.898	1302509	WORD_OFF	n/a	n/a	BUS	Vehicles	4	11	[0, 0, 0]	n/a	catFR1	0	R1342M
1532.657	1.6	1303407	WORD	n/a	wordpools/wordpool_categorized_EN.txt	ORANGUTAN	Zoo	5	11	[0, 0, 0]	n/a	catFR1	0	R1342M
1534.292	1.002	1305042	WORD_OFF	n/a	n/a	ORANGUTAN	Zoo	5	11	[0, 0, 0]	n/a	catFR1	0	R1342M
1535.294	1.6	1306044	WORD	n/a	wordpools/wordpool_categorized_EN.txt	MONKEY	Zoo	6	11	[0, 0, 0]	n/a	catFR1	0	R1342M
1536.91	0.992	1307660	WORD_OFF	n/a	n/a	MONKEY	Zoo	6	11	[0, 0, 0]	n/a	catFR1	0	R1342M
1537.902	1.6	1308652	WORD	n/a	wordpools/wordpool_categorized_EN.txt	TRUCK	Vehicles	7	11	[0, 0, 0]	n/a	catFR1	0	R1342M
1539.528	0.872	1310278	WORD_OFF	n/a	n/a	TRUCK	Vehicles	7	11	[0, 0, 0]	n/a	catFR1	0	R1342M
1540.4	1.6	1311150	WORD	n/a	wordpools/wordpool_categorized_EN.txt	TRAIN	Vehicles	8	11	[0, 0, 0]	n/a	catFR1	0	R1342M
1542.012	1.063	1312762	WORD_OFF	n/a	n/a	TRAIN	Vehicles	8	11	[0, 0, 0]	n/a	catFR1	0	R1342M
1543.075	1.6	1313825	WORD	n/a	wordpools/wordpool_categorized_EN.txt	RUM	Beverages	9	11	[0, 0, 0]	n/a	catFR1	0	R1342M
1544.712	1.085	1315461	WORD_OFF	n/a	n/a	RUM	Beverages	9	11	[0, 0, 0]	n/a	catFR1	0	R1342M
1545.797	1.6	1316546	WORD	n/a	wordpools/wordpool_categorized_EN.txt	BEER	Beverages	10	11	[0, 0, 0]	n/a	catFR1	0	R1342M
1547.428	1.092	1318177	WORD_OFF	n/a	n/a	BEER	Beverages	10	11	[0, 0, 0]	n/a	catFR1	0	R1342M
1548.52	1.6	1319269	WORD	n/a	wordpools/wordpool_categorized_EN.txt	LION	Zoo	11	11	[0, 0, 0]	n/a	catFR1	0	R1342M
1550.145	0.902	1320894	WORD_OFF	n/a	n/a	LION	Zoo	11	11	[0, 0, 0]	n/a	catFR1	0	R1342M
1551.047	1.6	1321796	WORD	n/a	wordpools/wordpool_categorized_EN.txt	CHEETAH	Zoo	12	11	[0, 0, 0]	n/a	catFR1	0	R1342M
1552.663	0.001	1323412	WORD_OFF	n/a	n/a	CHEETAH	Zoo	12	11	[0, 0, 0]	n/a	catFR1	0	R1342M
1552.664	0.0	1323413	DISTRACT_START	n/a	n/a	n/a	n/a	-999	11	[0, 0, 0]	n/a	catFR1	0	R1342M
1552.664	0.0	1323413	ENCODING_END	n/a	n/a	n/a	n/a	-999	11	[0, 0, 0]	n/a	catFR1	0	R1342M
1552.664	0.016	1323413	START	n/a	n/a	n/a	n/a	-999	11	[-999, -999, -999]	n/a	catFR1	0	R1342M
1552.68	5.7	1323429	PROB	5.671	n/a	n/a	n/a	-999	11	[4, 8, 6]	18.0	catFR1	0	R1342M
1558.38	4.652	1329129	PROB	4.628	n/a	n/a	n/a	-999	11	[1, 6, 3]	10.0	catFR1	0	R1342M
1563.032	6.183	1333781	PROB	6.147	n/a	n/a	n/a	-999	11	[1, 8, 5]	14.0	catFR1	0	R1342M
1569.215	5.921	1339963	PROB	5.921	n/a	n/a	n/a	-999	11	[2, 2, 8]	12.0	catFR1	0	R1342M
1575.136	0.014	1345884	STOP	n/a	n/a	n/a	n/a	-999	11	[-999, -999, -999]	n/a	catFR1	0	R1342M
1575.15	0.507	1345898	DISTRACT_END	n/a	n/a	n/a	n/a	-999	11	[0, 0, 0]	n/a	catFR1	0	R1342M
1575.657	1.6	1346405	RETRIEVAL_ORIENT_START	n/a	n/a	n/a	n/a	-999	11	[0, 0, 0]	n/a	catFR1	0	R1342M
1577.234	0.0	1347982	RETRIEVAL_ORIENT_END	n/a	n/a	n/a	n/a	-999	11	[0, 0, 0]	n/a	catFR1	0	R1342M
1577.234	1.819	1347982	REC_START	n/a	n/a	n/a	n/a	-999	11	[0, 0, 0]	n/a	catFR1	0	R1342M
1579.053	28.193	1349801	REC_WORD	1.819	n/a	MOTORCYCLE	Vehicles	3	11	[0, 0, 0]	n/a	catFR1	0	R1342M
1607.246	0.0	1377992	TRIAL_END	n/a	n/a	n/a	n/a	-999	11	[0, 0, 0]	n/a	catFR1	0	R1342M
1607.246	0.023	1377992	REC_END	n/a	n/a	n/a	n/a	-999	11	[0, 0, 0]	n/a	catFR1	0	R1342M
1607.269	0.001	1378015	TRIAL_START	n/a	n/a	n/a	n/a	-999	12	[0, 0, 0]	n/a	catFR1	0	R1342M
1607.27	0.0	1378016	WAITING_START	n/a	n/a	n/a	n/a	-999	12	[0, 0, 0]	n/a	catFR1	0	R1342M
1607.27	6.971	1378016	TRIAL	n/a	n/a	n/a	n/a	-999	12	[0, 0, 0]	n/a	catFR1	0	R1342M
1614.241	0.0	1384987	WAITING_END	n/a	n/a	n/a	n/a	-999	12	[0, 0, 0]	n/a	catFR1	0	R1342M
1614.241	10.0	1384987	COUNTDOWN_START	n/a	n/a	n/a	n/a	-999	12	[0, 0, 0]	n/a	catFR1	0	R1342M
1624.671	0.0	1395417	COUNTDOWN_END	n/a	n/a	n/a	n/a	-999	12	[0, 0, 0]	n/a	catFR1	0	R1342M
1624.671	1.257	1395417	ORIENT_START	n/a	n/a	n/a	n/a	-999	12	[0, 0, 0]	n/a	catFR1	0	R1342M
1625.928	0.0	1396674	ORIENT_END	n/a	n/a	n/a	n/a	-999	12	[0, 0, 0]	n/a	catFR1	0	R1342M
1625.928	0.83	1396674	ENCODING_START	n/a	n/a	n/a	n/a	-999	12	[0, 0, 0]	n/a	catFR1	0	R1342M
1626.758	1.6	1397503	WORD	n/a	wordpools/wordpool_categorized_EN.txt	MOUSSE	Desserts	1	12	[0, 0, 0]	n/a	catFR1	0	R1342M
1628.394	0.766	1399139	WORD_OFF	n/a	n/a	MOUSSE	Desserts	1	12	[0, 0, 0]	n/a	catFR1	0	R1342M
1629.16	1.6	1399905	WORD	n/a	wordpools/wordpool_categorized_EN.txt	JELLO	Desserts	2	12	[0, 0, 0]	n/a	catFR1	0	R1342M
1630.795	1.036	1401540	WORD_OFF	n/a	n/a	JELLO	Desserts	2	12	[0, 0, 0]	n/a	catFR1	0	R1342M
1631.831	1.6	1402576	WORD	n/a	wordpools/wordpool_categorized_EN.txt	LADYBUG	Insects	3	12	[0, 0, 0]	n/a	catFR1	0	R1342M
1633.462	1.026	1404207	WORD_OFF	n/a	n/a	LADYBUG	Insects	3	12	[0, 0, 0]	n/a	catFR1	0	R1342M
1634.488	1.6	1405233	WORD	n/a	wordpools/wordpool_categorized_EN.txt	CRICKET	Insects	4	12	[0, 0, 0]	n/a	catFR1	0	R1342M
1636.112	0.796	1406857	WORD_OFF	n/a	n/a	CRICKET	Insects	4	12	[0, 0, 0]	n/a	catFR1	0	R1342M
1636.908	1.6	1407653	WORD	n/a	wordpools/wordpool_categorized_EN.txt	VIOLIN	Instruments	5	12	[0, 0, 0]	n/a	catFR1	0	R1342M
1638.53	1.04	1409275	WORD_OFF	n/a	n/a	VIOLIN	Instruments	5	12	[0, 0, 0]	n/a	catFR1	0	R1342M
1639.57	1.6	1410315	WORD	n/a	wordpools/wordpool_categorized_EN.txt	BASS	Instruments	6	12	[0, 0, 0]	n/a	catFR1	0	R1342M
1641.196	0.999	1411941	WORD_OFF	n/a	n/a	BASS	Instruments	6	12	[0, 0, 0]	n/a	catFR1	0	R1342M
1642.195	1.6	1412940	WORD	n/a	wordpools/wordpool_categorized_EN.txt	MOTH	Insects	7	12	[0, 0, 0]	n/a	catFR1	0	R1342M
1643.831	1.007	1414576	WORD_OFF	n/a	n/a	MOTH	Insects	7	12	[0, 0, 0]	n/a	catFR1	0	R1342M
1644.838	1.6	1415583	WORD	n/a	wordpools/wordpool_categorized_EN.txt	ANT	Insects	8	12	[0, 0, 0]	n/a	catFR1	0	R1342M
1646.465	0.771	1417210	WORD_OFF	n/a	n/a	ANT	Insects	8	12	[0, 0, 0]	n/a	catFR1	0	R1342M
1647.236	1.6	1417981	WORD	n/a	wordpools/wordpool_categorized_EN.txt	PASTRY	Desserts	9	12	[0, 0, 0]	n/a	catFR1	0	R1342M
1648.849	0.883	1419593	WORD_OFF	n/a	n/a	PASTRY	Desserts	9	12	[0, 0, 0]	n/a	catFR1	0	R1342M
1649.732	1.6	1420476	WORD	n/a	wordpools/wordpool_categorized_EN.txt	PUDDING	Desserts	10	12	[0, 0, 0]	n/a	catFR1	0	R1342M
1651.365	1.025	1422109	WORD_OFF	n/a	n/a	PUDDING	Desserts	10	12	[0, 0, 0]	n/a	catFR1	0	R1342M
1652.39	1.6	1423134	WORD	n/a	wordpools/wordpool_categorized_EN.txt	BANJO	Instruments	11	12	[0, 0, 0]	n/a	catFR1	0	R1342M
1653.999	1.007	1424743	WORD_OFF	n/a	n/a	BANJO	Instruments	11	12	[0, 0, 0]	n/a	catFR1	0	R1342M
1655.006	1.6	1425750	WORD	n/a	wordpools/wordpool_categorized_EN.txt	DRUM	Instruments	12	12	[0, 0, 0]	n/a	catFR1	0	R1342M
1656.634	0.0	1427378	WORD_OFF	n/a	n/a	DRUM	Instruments	12	12	[0, 0, 0]	n/a	catFR1	0	R1342M
1656.634	0.0	1427378	ENCODING_END	n/a	n/a	n/a	n/a	-999	12	[0, 0, 0]	n/a	catFR1	0	R1342M
1656.634	0.001	1427378	DISTRACT_START	n/a	n/a	n/a	n/a	-999	12	[0, 0, 0]	n/a	catFR1	0	R1342M
1656.635	0.015	1427379	START	n/a	n/a	n/a	n/a	-999	12	[-999, -999, -999]	n/a	catFR1	0	R1342M
1656.65	5.884	1427394	PROB	5.86	n/a	n/a	n/a	-999	12	[3, 9, 2]	15.0	catFR1	0	R1342M
1662.534	6.168	1433278	PROB	6.144	n/a	n/a	n/a	-999	12	[6, 9, 9]	24.0	catFR1	0	R1342M
1668.702	9.807	1439445	PROB	9.807	n/a	n/a	n/a	-999	12	[8, 1, 7]	18.0	catFR1	0	R1342M
1678.509	0.012	1449252	STOP	n/a	n/a	n/a	n/a	-999	12	[-999, -999, -999]	n/a	catFR1	0	R1342M
1678.521	0.615	1449264	DISTRACT_END	n/a	n/a	n/a	n/a	-999	12	[0, 0, 0]	n/a	catFR1	0	R1342M
1679.136	1.6	1449879	RETRIEVAL_ORIENT_START	n/a	n/a	n/a	n/a	-999	12	[0, 0, 0]	n/a	catFR1	0	R1342M
1680.738	0.001	1451481	RETRIEVAL_ORIENT_END	n/a	n/a	n/a	n/a	-999	12	[0, 0, 0]	n/a	catFR1	0	R1342M
1680.739	3.522	1451482	REC_START	n/a	n/a	n/a	n/a	-999	12	[0, 0, 0]	n/a	catFR1	0	R1342M
1684.261	1.041	1455004	REC_WORD	3.522	n/a	JELLO	Desserts	2	12	[0, 0, 0]	n/a	catFR1	0	R1342M
1685.302	25.45	1456045	REC_WORD	4.563	n/a	PUDDING	Desserts	10	12	[0, 0, 0]	n/a	catFR1	0	R1342M
1710.752	0.0	1481493	REC_END	n/a	n/a	n/a	n/a	-999	12	[0, 0, 0]	n/a	catFR1	0	R1342M
1710.752	0.023	1481493	TRIAL_END	n/a	n/a	n/a	n/a	-999	12	[0, 0, 0]	n/a	catFR1	0	R1342M
1710.775	0.001	1481516	TRIAL_START	n/a	n/a	n/a	n/a	-999	13	[0, 0, 0]	n/a	catFR1	0	R1342M
1710.776	0.0	1481517	TRIAL	n/a	n/a	n/a	n/a	-999	13	[0, 0, 0]	n/a	catFR1	0	R1342M
1710.776	7.736	1481517	WAITING_START	n/a	n/a	n/a	n/a	-999	13	[0, 0, 0]	n/a	catFR1	0	R1342M
1718.512	0.001	1489253	WAITING_END	n/a	n/a	n/a	n/a	-999	13	[0, 0, 0]	n/a	catFR1	0	R1342M
1718.513	10.0	1489254	COUNTDOWN_START	n/a	n/a	n/a	n/a	-999	13	[0, 0, 0]	n/a	catFR1	0	R1342M
1728.942	0.001	1499683	COUNTDOWN_END	n/a	n/a	n/a	n/a	-999	13	[0, 0, 0]	n/a	catFR1	0	R1342M
1728.943	1.237	1499684	ORIENT_START	n/a	n/a	n/a	n/a	-999	13	[0, 0, 0]	n/a	catFR1	0	R1342M
1730.18	0.001	1500921	ORIENT_END	n/a	n/a	n/a	n/a	-999	13	[0, 0, 0]	n/a	catFR1	0	R1342M
1730.181	0.921	1500922	ENCODING_START	n/a	n/a	n/a	n/a	-999	13	[0, 0, 0]	n/a	catFR1	0	R1342M
1731.102	1.6	1501842	WORD	n/a	wordpools/wordpool_categorized_EN.txt	DRESS	Clothing	1	13	[0, 0, 0]	n/a	catFR1	0	R1342M
1732.732	1.12	1503472	WORD_OFF	n/a	n/a	DRESS	Clothing	1	13	[0, 0, 0]	n/a	catFR1	0	R1342M
1733.852	1.6	1504592	WORD	n/a	wordpools/wordpool_categorized_EN.txt	UNDERWEAR	Clothing	2	13	[0, 0, 0]	n/a	catFR1	0	R1342M
1735.482	0.866	1506222	WORD_OFF	n/a	n/a	UNDERWEAR	Clothing	2	13	[0, 0, 0]	n/a	catFR1	0	R1342M
1736.348	1.6	1507088	WORD	n/a	wordpools/wordpool_categorized_EN.txt	HORSE	FarmAnimals	3	13	[0, 0, 0]	n/a	catFR1	0	R1342M
1737.966	0.932	1508706	WORD_OFF	n/a	n/a	HORSE	FarmAnimals	3	13	[0, 0, 0]	n/a	catFR1	0	R1342M
1738.898	1.6	1509638	WORD	n/a	wordpools/wordpool_categorized_EN.txt	CALF	FarmAnimals	4	13	[0, 0, 0]	n/a	catFR1	0	R1342M
1740.533	0.808	1511273	WORD_OFF	n/a	n/a	CALF	FarmAnimals	4	13	[0, 0, 0]	n/a	catFR1	0	R1342M
1741.341	1.6	1512081	WORD	n/a	wordpools/wordpool_categorized_EN.txt	TORNADO	Weather	5	13	[0, 0, 0]	n/a	catFR1	0	R1342M
1742.967	0.923	1513707	WORD_OFF	n/a	n/a	TORNADO	Weather	5	13	[0, 0, 0]	n/a	catFR1	0	R1342M
1743.89	1.6	1514630	WORD	n/a	wordpools/wordpool_categorized_EN.txt	WIND	Weather	6	13	[0, 0, 0]	n/a	catFR1	0	R1342M
1745.517	0.852	1516257	WORD_OFF	n/a	n/a	WIND	Weather	6	13	[0, 0, 0]	n/a	catFR1	0	R1342M
1746.369	1.6	1517109	WORD	n/a	wordpools/wordpool_categorized_EN.txt	SHEEP	FarmAnimals	7	13	[0, 0, 0]	n/a	catFR1	0	R1342M
1748.001	1.091	1518741	WORD_OFF	n/a	n/a	SHEEP	FarmAnimals	7	13	[0, 0, 0]	n/a	catFR1	0	R1342M
1749.092	1.6	1519832	WORD	n/a	wordpools/wordpool_categorized_EN.txt	HEN	FarmAnimals	8	13	[0, 0, 0]	n/a	catFR1	0	R1342M
1750.718	1.02	1521458	WORD_OFF	n/a	n/a	HEN	FarmAnimals	8	13	[0, 0, 0]	n/a	catFR1	0	R1342M
1751.738	1.6	1522477	WORD	n/a	wordpools/wordpool_categorized_EN.txt	SHIRT	Clothing	9	13	[0, 0, 0]	n/a	catFR1	0	R1342M
1753.368	1.072	1524107	WORD_OFF	n/a	n/a	SHIRT	Clothing	9	13	[0, 0, 0]	n/a	catFR1	0	R1342M
1754.44	1.6	1525179	WORD	n/a	wordpools/wordpool_categorized_EN.txt	JEANS	Clothing	10	13	[0, 0, 0]	n/a	catFR1	0	R1342M
1756.068	0.908	1526807	WORD_OFF	n/a	n/a	JEANS	Clothing	10	13	[0, 0, 0]	n/a	catFR1	0	R1342M
1756.976	1.6	1527715	WORD	n/a	wordpools/wordpool_categorized_EN.txt	THUNDER	Weather	11	13	[0, 0, 0]	n/a	catFR1	0	R1342M
1758.603	1.144	1529342	WORD_OFF	n/a	n/a	THUNDER	Weather	11	13	[0, 0, 0]	n/a	catFR1	0	R1342M
1759.747	1.6	1530486	WORD	n/a	wordpools/wordpool_categorized_EN.txt	LIGHTNING	Weather	12	13	[0, 0, 0]	n/a	catFR1	0	R1342M
1761.369	0.001	1532108	WORD_OFF	n/a	n/a	LIGHTNING	Weather	12	13	[0, 0, 0]	n/a	catFR1	0	R1342M
1761.37	0.0	1532109	ENCODING_END	n/a	n/a	n/a	n/a	-999	13	[0, 0, 0]	n/a	catFR1	0	R1342M
1761.37	0.001	1532109	DISTRACT_START	n/a	n/a	n/a	n/a	-999	13	[0, 0, 0]	n/a	catFR1	0	R1342M
1761.371	0.015	1532110	START	n/a	n/a	n/a	n/a	-999	13	[-999, -999, -999]	n/a	catFR1	0	R1342M
1761.386	4.817	1532125	PROB	4.794	n/a	n/a	n/a	-999	13	[3, 7, 2]	12.0	catFR1	0	R1342M
1766.203	5.085	1536942	PROB	5.05	n/a	n/a	n/a	-999	13	[1, 9, 2]	12.0	catFR1	0	R1342M
1771.288	7.569	1542027	PROB	7.53	n/a	n/a	n/a	-999	13	[4, 7, 9]	20.0	catFR1	0	R1342M
1778.857	6.657	1549595	PROB	6.657	n/a	n/a	n/a	-999	13	[9, 6, 9]	24.0	catFR1	0	R1342M
1785.514	0.011	1556252	STOP	n/a	n/a	n/a	n/a	-999	13	[-999, -999, -999]	n/a	catFR1	0	R1342M
1785.525	0.662	1556263	DISTRACT_END	n/a	n/a	n/a	n/a	-999	13	[0, 0, 0]	n/a	catFR1	0	R1342M
1786.187	1.6	1556925	RETRIEVAL_ORIENT_START	n/a	n/a	n/a	n/a	-999	13	[0, 0, 0]	n/a	catFR1	0	R1342M
1787.742	0.001	1558480	RETRIEVAL_ORIENT_END	n/a	n/a	n/a	n/a	-999	13	[0, 0, 0]	n/a	catFR1	0	R1342M
1787.743	4.984	1558481	REC_START	n/a	n/a	n/a	n/a	-999	13	[0, 0, 0]	n/a	catFR1	0	R1342M
1792.727	0.749	1563465	REC_WORD	4.984	n/a	DRESS	Clothing	1	13	[0, 0, 0]	n/a	catFR1	0	R1342M
1793.476	24.279	1564213	REC_WORD	5.733	n/a	UNDERWEAR	Clothing	2	13	[0, 0, 0]	n/a	catFR1	0	R1342M
1817.755	0.0	1588491	REC_END	n/a	n/a	n/a	n/a	-999	13	[0, 0, 0]	n/a	catFR1	0	R1342M
1817.755	0.025	1588491	TRIAL_END	n/a	n/a	n/a	n/a	-999	13	[0, 0, 0]	n/a	catFR1	0	R1342M
1817.78	0.0	1588516	TRIAL_START	n/a	n/a	n/a	n/a	-999	14	[0, 0, 0]	n/a	catFR1	0	R1342M
1817.78	0.001	1588516	TRIAL	n/a	n/a	n/a	n/a	-999	14	[0, 0, 0]	n/a	catFR1	0	R1342M
1817.781	4.751	1588517	WAITING_START	n/a	n/a	n/a	n/a	-999	14	[0, 0, 0]	n/a	catFR1	0	R1342M
1822.532	0.001	1593268	WAITING_END	n/a	n/a	n/a	n/a	-999	14	[0, 0, 0]	n/a	catFR1	0	R1342M
1822.533	10.0	1593269	COUNTDOWN_START	n/a	n/a	n/a	n/a	-999	14	[0, 0, 0]	n/a	catFR1	0	R1342M
1832.962	0.0	1603698	COUNTDOWN_END	n/a	n/a	n/a	n/a	-999	14	[0, 0, 0]	n/a	catFR1	0	R1342M
1832.962	1.222	1603698	ORIENT_START	n/a	n/a	n/a	n/a	-999	14	[0, 0, 0]	n/a	catFR1	0	R1342M
1834.184	0.0	1604920	ORIENT_END	n/a	n/a	n/a	n/a	-999	14	[0, 0, 0]	n/a	catFR1	0	R1342M
1834.184	1.149	1604920	ENCODING_START	n/a	n/a	n/a	n/a	-999	14	[0, 0, 0]	n/a	catFR1	0	R1342M
1835.333	1.6	1606068	WORD	n/a	wordpools/wordpool_categorized_EN.txt	IRON	Appliances	1	14	[0, 0, 0]	n/a	catFR1	0	R1342M
1836.968	0.807	1607703	WORD_OFF	n/a	n/a	IRON	Appliances	1	14	[0, 0, 0]	n/a	catFR1	0	R1342M
1837.775	1.6	1608510	WORD	n/a	wordpools/wordpool_categorized_EN.txt	DRYER	Appliances	2	14	[0, 0, 0]	n/a	catFR1	0	R1342M
1839.401	0.833	1610136	WORD_OFF	n/a	n/a	DRYER	Appliances	2	14	[0, 0, 0]	n/a	catFR1	0	R1342M
1840.234	1.6	1610969	WORD	n/a	wordpools/wordpool_categorized_EN.txt	CIDER	Beverages	3	14	[0, 0, 0]	n/a	catFR1	0	R1342M
1841.853	1.065	1612588	WORD_OFF	n/a	n/a	CIDER	Beverages	3	14	[0, 0, 0]	n/a	catFR1	0	R1342M
1842.918	1.6	1613653	WORD	n/a	wordpools/wordpool_categorized_EN.txt	JUICE	Beverages	4	14	[0, 0, 0]	n/a	catFR1	0	R1342M
1844.553	0.753	1615288	WORD_OFF	n/a	n/a	JUICE	Beverages	4	14	[0, 0, 0]	n/a	catFR1	0	R1342M
1845.306	1.6	1616041	WORD	n/a	wordpools/wordpool_categorized_EN.txt	VAN	Vehicles	5	14	[0, 0, 0]	n/a	catFR1	0	R1342M
1846.937	1.083	1617672	WORD_OFF	n/a	n/a	VAN	Vehicles	5	14	[0, 0, 0]	n/a	catFR1	0	R1342M
1848.02	1.6	1618755	WORD	n/a	wordpools/wordpool_categorized_EN.txt	SCOOTER	Vehicles	6	14	[0, 0, 0]	n/a	catFR1	0	R1342M
1849.654	1.101	1620389	WORD_OFF	n/a	n/a	SCOOTER	Vehicles	6	14	[0, 0, 0]	n/a	catFR1	0	R1342M
1850.755	1.6	1621490	WORD	n/a	wordpools/wordpool_categorized_EN.txt	WINE	Beverages	7	14	[0, 0, 0]	n/a	catFR1	0	R1342M
1852.387	1.037	1623122	WORD_OFF	n/a	n/a	WINE	Beverages	7	14	[0, 0, 0]	n/a	catFR1	0	R1342M
1853.424	1.6	1624159	WORD	n/a	wordpools/wordpool_categorized_EN.txt	COFFEE	Beverages	8	14	[0, 0, 0]	n/a	catFR1	0	R1342M
1855.054	0.884	1625789	WORD_OFF	n/a	n/a	COFFEE	Beverages	8	14	[0, 0, 0]	n/a	catFR1	0	R1342M
1855.938	1.6	1626672	WORD	n/a	wordpools/wordpool_categorized_EN.txt	WASHER	Appliances	9	14	[0, 0, 0]	n/a	catFR1	0	R1342M
1857.572	0.924	1628306	WORD_OFF	n/a	n/a	WASHER	Appliances	9	14	[0, 0, 0]	n/a	catFR1	0	R1342M
1858.496	1.6	1629230	WORD	n/a	wordpools/wordpool_categorized_EN.txt	STOVE	Appliances	10	14	[0, 0, 0]	n/a	catFR1	0	R1342M
1860.122	1.066	1630856	WORD_OFF	n/a	n/a	STOVE	Appliances	10	14	[0, 0, 0]	n/a	catFR1	0	R1342M
1861.188	1.6	1631922	WORD	n/a	wordpools/wordpool_categorized_EN.txt	BIKE	Vehicles	11	14	[0, 0, 0]	n/a	catFR1	0	R1342M
1862.823	1.13	1633557	WORD_OFF	n/a	n/a	BIKE	Vehicles	11	14	[0, 0, 0]	n/a	catFR1	0	R1342M
1863.953	1.6	1634687	WORD	n/a	wordpools/wordpool_categorized_EN.txt	BOAT	Vehicles	12	14	[0, 0, 0]	n/a	catFR1	0	R1342M
1865.574	0.001	1636308	WORD_OFF	n/a	n/a	BOAT	Vehicles	12	14	[0, 0, 0]	n/a	catFR1	0	R1342M
1865.575	0.0	1636309	ENCODING_END	n/a	n/a	n/a	n/a	-999	14	[0, 0, 0]	n/a	catFR1	0	R1342M
1865.575	0.0	1636309	DISTRACT_START	n/a	n/a	n/a	n/a	-999	14	[0, 0, 0]	n/a	catFR1	0	R1342M
1865.575	0.015	1636309	START	n/a	n/a	n/a	n/a	-999	14	[-999, -999, -999]	n/a	catFR1	0	R1342M
1865.59	7.269	1636324	PROB	7.242	n/a	n/a	n/a	-999	14	[8, 6, 8]	24.0	catFR1	0	R1342M
1872.859	7.45	1643593	PROB	7.418	n/a	n/a	n/a	-999	14	[6, 7, 7]	20.0	catFR1	0	R1342M
1880.309	3.235	1651042	PROB	3.209	n/a	n/a	n/a	-999	14	[1, 5, 1]	7.0	catFR1	0	R1342M
1883.544	7.505	1654277	PROB	7.505	n/a	n/a	n/a	-999	14	[9, 3, 5]	17.0	catFR1	0	R1342M
1891.049	0.012	1661782	STOP	n/a	n/a	n/a	n/a	-999	14	[-999, -999, -999]	n/a	catFR1	0	R1342M
1891.061	0.687	1661794	DISTRACT_END	n/a	n/a	n/a	n/a	-999	14	[0, 0, 0]	n/a	catFR1	0	R1342M
1891.748	1.6	1662481	RETRIEVAL_ORIENT_START	n/a	n/a	n/a	n/a	-999	14	[0, 0, 0]	n/a	catFR1	0	R1342M
1893.378	0.001	1664111	RETRIEVAL_ORIENT_END	n/a	n/a	n/a	n/a	-999	14	[0, 0, 0]	n/a	catFR1	0	R1342M
1893.379	5.512	1664112	REC_START	n/a	n/a	n/a	n/a	-999	14	[0, 0, 0]	n/a	catFR1	0	R1342M
1898.891	24.501	1669623	REC_WORD	5.512	n/a	WASHER	Appliances	9	14	[0, 0, 0]	n/a	catFR1	0	R1342M
1923.392	0.0	1694123	REC_END	n/a	n/a	n/a	n/a	-999	14	[0, 0, 0]	n/a	catFR1	0	R1342M
1923.392	0.024	1694123	TRIAL_END	n/a	n/a	n/a	n/a	-999	14	[0, 0, 0]	n/a	catFR1	0	R1342M
1923.416	0.0	1694147	TRIAL_START	n/a	n/a	n/a	n/a	-999	15	[0, 0, 0]	n/a	catFR1	0	R1342M
1923.416	0.0	1694147	TRIAL	n/a	n/a	n/a	n/a	-999	15	[0, 0, 0]	n/a	catFR1	0	R1342M
1923.416	12.305	1694147	WAITING_START	n/a	n/a	n/a	n/a	-999	15	[0, 0, 0]	n/a	catFR1	0	R1342M
1935.721	0.0	1706452	WAITING_END	n/a	n/a	n/a	n/a	-999	15	[0, 0, 0]	n/a	catFR1	0	R1342M
1935.721	10.0	1706452	COUNTDOWN_START	n/a	n/a	n/a	n/a	-999	15	[0, 0, 0]	n/a	catFR1	0	R1342M
1946.151	0.0	1716881	ORIENT_START	n/a	n/a	n/a	n/a	-999	15	[0, 0, 0]	n/a	catFR1	0	R1342M
1946.151	1.188	1716881	COUNTDOWN_END	n/a	n/a	n/a	n/a	-999	15	[0, 0, 0]	n/a	catFR1	0	R1342M
1947.339	0.0	1718069	ORIENT_END	n/a	n/a	n/a	n/a	-999	15	[0, 0, 0]	n/a	catFR1	0	R1342M
1947.339	0.853	1718069	ENCODING_START	n/a	n/a	n/a	n/a	-999	15	[0, 0, 0]	n/a	catFR1	0	R1342M
1948.192	1.6	1718922	WORD	n/a	wordpools/wordpool_categorized_EN.txt	SHOES	Clothing	1	15	[0, 0, 0]	n/a	catFR1	0	R1342M
1949.807	0.818	1720537	WORD_OFF	n/a	n/a	SHOES	Clothing	1	15	[0, 0, 0]	n/a	catFR1	0	R1342M
1950.625	1.6	1721355	WORD	n/a	wordpools/wordpool_categorized_EN.txt	JACKET	Clothing	2	15	[0, 0, 0]	n/a	catFR1	0	R1342M
1952.256	0.992	1722986	WORD_OFF	n/a	n/a	JACKET	Clothing	2	15	[0, 0, 0]	n/a	catFR1	0	R1342M
1953.248	1.6	1723978	WORD	n/a	wordpools/wordpool_categorized_EN.txt	TULIP	Flowers	3	15	[0, 0, 0]	n/a	catFR1	0	R1342M
1954.858	0.985	1725588	WORD_OFF	n/a	n/a	TULIP	Flowers	3	15	[0, 0, 0]	n/a	catFR1	0	R1342M
1955.843	1.6	1726573	WORD	n/a	wordpools/wordpool_categorized_EN.txt	LILY	Flowers	4	15	[0, 0, 0]	n/a	catFR1	0	R1342M
1957.475	1.12	1728205	WORD_OFF	n/a	n/a	LILY	Flowers	4	15	[0, 0, 0]	n/a	catFR1	0	R1342M
1958.595	1.6	1729325	WORD	n/a	wordpools/wordpool_categorized_EN.txt	COLANDER	KitchenTools	5	15	[0, 0, 0]	n/a	catFR1	0	R1342M
1960.225	0.909	1730954	WORD_OFF	n/a	n/a	COLANDER	KitchenTools	5	15	[0, 0, 0]	n/a	catFR1	0	R1342M
1961.134	1.6	1731863	WORD	n/a	wordpools/wordpool_categorized_EN.txt	KNIFE	KitchenTools	6	15	[0, 0, 0]	n/a	catFR1	0	R1342M
1962.743	0.973	1733472	WORD_OFF	n/a	n/a	KNIFE	KitchenTools	6	15	[0, 0, 0]	n/a	catFR1	0	R1342M
1963.716	1.6	1734445	WORD	n/a	wordpools/wordpool_categorized_EN.txt	SOCKS	Clothing	7	15	[0, 0, 0]	n/a	catFR1	0	R1342M
1965.342	1.051	1736071	WORD_OFF	n/a	n/a	SOCKS	Clothing	7	15	[0, 0, 0]	n/a	catFR1	0	R1342M
1966.393	1.6	1737122	WORD	n/a	wordpools/wordpool_categorized_EN.txt	SHORTS	Clothing	8	15	[0, 0, 0]	n/a	catFR1	0	R1342M
1968.027	0.797	1738756	WORD_OFF	n/a	n/a	SHORTS	Clothing	8	15	[0, 0, 0]	n/a	catFR1	0	R1342M
1968.824	1.6	1739553	WORD	n/a	wordpools/wordpool_categorized_EN.txt	FORK	KitchenTools	9	15	[0, 0, 0]	n/a	catFR1	0	R1342M
1970.461	1.049	1741190	WORD_OFF	n/a	n/a	FORK	KitchenTools	9	15	[0, 0, 0]	n/a	catFR1	0	R1342M
1971.51	1.6	1742239	WORD	n/a	wordpools/wordpool_categorized_EN.txt	WHISK	KitchenTools	10	15	[0, 0, 0]	n/a	catFR1	0	R1342M
1973.144	0.806	1743873	WORD_OFF	n/a	n/a	WHISK	KitchenTools	10	15	[0, 0, 0]	n/a	catFR1	0	R1342M
1973.95	1.6	1744679	WORD	n/a	wordpools/wordpool_categorized_EN.txt	MARIGOLD	Flowers	11	15	[0, 0, 0]	n/a	catFR1	0	R1342M
1975.579	0.889	1746308	WORD_OFF	n/a	n/a	MARIGOLD	Flowers	11	15	[0, 0, 0]	n/a	catFR1	0	R1342M
1976.468	1.6	1747197	WORD	n/a	wordpools/wordpool_categorized_EN.txt	ORCHID	Flowers	12	15	[0, 0, 0]	n/a	catFR1	0	R1342M
1978.095	0.0	1748824	ENCODING_END	n/a	n/a	n/a	n/a	-999	15	[0, 0, 0]	n/a	catFR1	0	R1342M
1978.095	0.001	1748824	WORD_OFF	n/a	n/a	ORCHID	Flowers	12	15	[0, 0, 0]	n/a	catFR1	0	R1342M
1978.096	0.0	1748825	DISTRACT_START	n/a	n/a	n/a	n/a	-999	15	[0, 0, 0]	n/a	catFR1	0	R1342M
1978.096	0.015	1748825	START	n/a	n/a	n/a	n/a	-999	15	[-999, -999, -999]	n/a	catFR1	0	R1342M
1978.111	3.869	1748840	PROB	3.839	n/a	n/a	n/a	-999	15	[2, 4, 6]	12.0	catFR1	0	R1342M
1981.98	5.551	1752708	PROB	5.513	n/a	n/a	n/a	-999	15	[5, 8, 2]	15.0	catFR1	0	R1342M
1987.531	3.934	1758259	PROB	3.897	n/a	n/a	n/a	-999	15	[3, 1, 3]	7.0	catFR1	0	R1342M
1991.465	5.451	1762193	PROB	5.42	n/a	n/a	n/a	-999	15	[1, 4, 9]	14.0	catFR1	0	R1342M
1996.916	8.52	1767644	PROB	8.52	n/a	n/a	n/a	-999	15	[9, 8, 2]	19.0	catFR1	0	R1342M
2005.436	0.014	1776163	STOP	n/a	n/a	n/a	n/a	-999	15	[-999, -999, -999]	n/a	catFR1	0	R1342M
2005.45	0.505	1776177	DISTRACT_END	n/a	n/a	n/a	n/a	-999	15	[0, 0, 0]	n/a	catFR1	0	R1342M
2005.955	1.6	1776682	RETRIEVAL_ORIENT_START	n/a	n/a	n/a	n/a	-999	15	[0, 0, 0]	n/a	catFR1	0	R1342M
2007.535	0.0	1778262	RETRIEVAL_ORIENT_END	n/a	n/a	n/a	n/a	-999	15	[0, 0, 0]	n/a	catFR1	0	R1342M
2007.535	3.685	1778262	REC_START	n/a	n/a	n/a	n/a	-999	15	[0, 0, 0]	n/a	catFR1	0	R1342M
2011.22	4.23	1781947	REC_WORD	3.685	n/a	SHOES	Clothing	1	15	[0, 0, 0]	n/a	catFR1	0	R1342M
2015.45	6.072	1786177	REC_WORD	7.915	n/a	JACKET	Clothing	2	15	[0, 0, 0]	n/a	catFR1	0	R1342M
2021.522	16.026	1792249	REC_WORD_VV	13.987	n/a	<>	n/a	-999	15	[0, 0, 0]	n/a	catFR1	0	R1342M
2037.548	0.0	1808274	REC_END	n/a	n/a	n/a	n/a	-999	15	[0, 0, 0]	n/a	catFR1	0	R1342M
2037.548	0.025	1808274	TRIAL_END	n/a	n/a	n/a	n/a	-999	15	[0, 0, 0]	n/a	catFR1	0	R1342M
2037.573	0.001	1808299	TRIAL_START	n/a	n/a	n/a	n/a	-999	16	[0, 0, 0]	n/a	catFR1	0	R1342M
2037.574	0.0	1808300	TRIAL	n/a	n/a	n/a	n/a	-999	16	[0, 0, 0]	n/a	catFR1	0	R1342M
2037.574	11.718	1808300	WAITING_START	n/a	n/a	n/a	n/a	-999	16	[0, 0, 0]	n/a	catFR1	0	R1342M
2049.292	0.0	1820017	WAITING_END	n/a	n/a	n/a	n/a	-999	16	[0, 0, 0]	n/a	catFR1	0	R1342M
2049.292	10.0	1820017	COUNTDOWN_START	n/a	n/a	n/a	n/a	-999	16	[0, 0, 0]	n/a	catFR1	0	R1342M
2059.72	0.0	1830445	COUNTDOWN_END	n/a	n/a	n/a	n/a	-999	16	[0, 0, 0]	n/a	catFR1	0	R1342M
2059.72	1.259	1830445	ORIENT_START	n/a	n/a	n/a	n/a	-999	16	[0, 0, 0]	n/a	catFR1	0	R1342M
2060.979	0.0	1831704	ENCODING_START	n/a	n/a	n/a	n/a	-999	16	[0, 0, 0]	n/a	catFR1	0	R1342M
2060.979	1.062	1831704	ORIENT_END	n/a	n/a	n/a	n/a	-999	16	[0, 0, 0]	n/a	catFR1	0	R1342M
2062.041	1.6	1832766	WORD	n/a	wordpools/wordpool_categorized_EN.txt	HAWK	Birds	1	16	[0, 0, 0]	n/a	catFR1	0	R1342M
2063.679	0.92	1834404	WORD_OFF	n/a	n/a	HAWK	Birds	1	16	[0, 0, 0]	n/a	catFR1	0	R1342M
2064.599	1.6	1835323	WORD	n/a	wordpools/wordpool_categorized_EN.txt	SEAGULL	Birds	2	16	[0, 0, 0]	n/a	catFR1	0	R1342M
2066.228	1.02	1836952	WORD_OFF	n/a	n/a	SEAGULL	Birds	2	16	[0, 0, 0]	n/a	catFR1	0	R1342M
2067.248	1.6	1837972	WORD	n/a	wordpools/wordpool_categorized_EN.txt	TROMBONE	Instruments	3	16	[0, 0, 0]	n/a	catFR1	0	R1342M
2068.88	1.006	1839604	WORD_OFF	n/a	n/a	TROMBONE	Instruments	3	16	[0, 0, 0]	n/a	catFR1	0	R1342M
2069.886	1.6	1840610	WORD	n/a	wordpools/wordpool_categorized_EN.txt	CELLO	Instruments	4	16	[0, 0, 0]	n/a	catFR1	0	R1342M
2071.514	1.061	1842238	WORD_OFF	n/a	n/a	CELLO	Instruments	4	16	[0, 0, 0]	n/a	catFR1	0	R1342M
2072.575	1.6	1843299	WORD	n/a	wordpools/wordpool_categorized_EN.txt	BASKETBALL	Toys	5	16	[0, 0, 0]	n/a	catFR1	0	R1342M
2074.213	0.854	1844937	WORD_OFF	n/a	n/a	BASKETBALL	Toys	5	16	[0, 0, 0]	n/a	catFR1	0	R1342M
2075.067	1.6	1845791	WORD	n/a	wordpools/wordpool_categorized_EN.txt	BLOCKS	Toys	6	16	[0, 0, 0]	n/a	catFR1	0	R1342M
2076.698	0.937	1847422	WORD_OFF	n/a	n/a	BLOCKS	Toys	6	16	[0, 0, 0]	n/a	catFR1	0	R1342M
2077.635	1.6	1848359	WORD	n/a	wordpools/wordpool_categorized_EN.txt	ORGAN	Instruments	7	16	[0, 0, 0]	n/a	catFR1	0	R1342M
2079.264	0.798	1849988	WORD_OFF	n/a	n/a	ORGAN	Instruments	7	16	[0, 0, 0]	n/a	catFR1	0	R1342M
2080.062	1.6	1850786	WORD	n/a	wordpools/wordpool_categorized_EN.txt	FLUTE	Instruments	8	16	[0, 0, 0]	n/a	catFR1	0	R1342M
2081.699	0.997	1852423	WORD_OFF	n/a	n/a	FLUTE	Instruments	8	16	[0, 0, 0]	n/a	catFR1	0	R1342M
2082.696	1.6	1853420	WORD	n/a	wordpools/wordpool_categorized_EN.txt	BASEBALL	Toys	9	16	[0, 0, 0]	n/a	catFR1	0	R1342M
2084.332	0.884	1855056	WORD_OFF	n/a	n/a	BASEBALL	Toys	9	16	[0, 0, 0]	n/a	catFR1	0	R1342M
2085.216	1.6	1855940	WORD	n/a	wordpools/wordpool_categorized_EN.txt	DOLL	Toys	10	16	[0, 0, 0]	n/a	catFR1	0	R1342M
2086.85	1.061	1857573	WORD_OFF	n/a	n/a	DOLL	Toys	10	16	[0, 0, 0]	n/a	catFR1	0	R1342M
2087.911	1.6	1858634	WORD	n/a	wordpools/wordpool_categorized_EN.txt	CARDINAL	Birds	11	16	[0, 0, 0]	n/a	catFR1	0	R1342M
2089.534	1.029	1860257	WORD_OFF	n/a	n/a	CARDINAL	Birds	11	16	[0, 0, 0]	n/a	catFR1	0	R1342M
2090.563	1.6	1861286	WORD	n/a	wordpools/wordpool_categorized_EN.txt	BLUEBIRD	Birds	12	16	[0, 0, 0]	n/a	catFR1	0	R1342M
2092.2	0.001	1862923	WORD_OFF	n/a	n/a	BLUEBIRD	Birds	12	16	[0, 0, 0]	n/a	catFR1	0	R1342M
2092.201	0.0	1862924	DISTRACT_START	n/a	n/a	n/a	n/a	-999	16	[0, 0, 0]	n/a	catFR1	0	R1342M
2092.201	0.0	1862924	ENCODING_END	n/a	n/a	n/a	n/a	-999	16	[0, 0, 0]	n/a	catFR1	0	R1342M
2092.201	0.016	1862924	START	n/a	n/a	n/a	n/a	-999	16	[-999, -999, -999]	n/a	catFR1	0	R1342M
2092.217	4.901	1862940	PROB	4.87	n/a	n/a	n/a	-999	16	[1, 6, 2]	9.0	catFR1	0	R1342M
2097.118	6.301	1867841	PROB	6.262	n/a	n/a	n/a	-999	16	[4, 5, 3]	12.0	catFR1	0	R1342M
2103.419	5.751	1874142	PROB	5.721	n/a	n/a	n/a	-999	16	[2, 3, 7]	12.0	catFR1	0	R1342M
2109.17	5.523	1879892	PROB	5.523	n/a	n/a	n/a	-999	16	[8, 5, 7]	20.0	catFR1	0	R1342M
2114.693	0.012	1885415	STOP	n/a	n/a	n/a	n/a	-999	16	[-999, -999, -999]	n/a	catFR1	0	R1342M
2114.705	0.651	1885427	DISTRACT_END	n/a	n/a	n/a	n/a	-999	16	[0, 0, 0]	n/a	catFR1	0	R1342M
2115.356	1.6	1886078	RETRIEVAL_ORIENT_START	n/a	n/a	n/a	n/a	-999	16	[0, 0, 0]	n/a	catFR1	0	R1342M
2117.006	0.0	1887728	RETRIEVAL_ORIENT_END	n/a	n/a	n/a	n/a	-999	16	[0, 0, 0]	n/a	catFR1	0	R1342M
2117.006	2.5	1887728	REC_START	n/a	n/a	n/a	n/a	-999	16	[0, 0, 0]	n/a	catFR1	0	R1342M
2119.506	3.73	1890228	REC_WORD	2.5	n/a	HAWK	Birds	1	16	[0, 0, 0]	n/a	catFR1	0	R1342M
2123.236	3.743	1893958	REC_WORD	6.23	n/a	SEAGULL	Birds	2	16	[0, 0, 0]	n/a	catFR1	0	R1342M
2126.979	20.041	1897701	REC_WORD	9.973	n/a	CARDINAL	Birds	11	16	[0, 0, 0]	n/a	catFR1	0	R1342M
2147.02	0.0	1917741	TRIAL_END	n/a	n/a	n/a	n/a	-999	16	[0, 0, 0]	n/a	catFR1	0	R1342M
2147.02	0.025	1917741	REC_END	n/a	n/a	n/a	n/a	-999	16	[0, 0, 0]	n/a	catFR1	0	R1342M
2147.045	0.001	1917766	TRIAL_START	n/a	n/a	n/a	n/a	-999	17	[0, 0, 0]	n/a	catFR1	0	R1342M
2147.046	0.0	1917767	TRIAL	n/a	n/a	n/a	n/a	-999	17	[0, 0, 0]	n/a	catFR1	0	R1342M
2147.046	4.583	1917767	WAITING_START	n/a	n/a	n/a	n/a	-999	17	[0, 0, 0]	n/a	catFR1	0	R1342M
2151.629	0.001	1922349	WAITING_END	n/a	n/a	n/a	n/a	-999	17	[0, 0, 0]	n/a	catFR1	0	R1342M
2151.63	10.0	1922350	COUNTDOWN_START	n/a	n/a	n/a	n/a	-999	17	[0, 0, 0]	n/a	catFR1	0	R1342M
2162.058	0.0	1932778	COUNTDOWN_END	n/a	n/a	n/a	n/a	-999	17	[0, 0, 0]	n/a	catFR1	0	R1342M
2162.058	1.223	1932778	ORIENT_START	n/a	n/a	n/a	n/a	-999	17	[0, 0, 0]	n/a	catFR1	0	R1342M
2163.281	0.0	1934001	ORIENT_END	n/a	n/a	n/a	n/a	-999	17	[0, 0, 0]	n/a	catFR1	0	R1342M
2163.281	1.035	1934001	ENCODING_START	n/a	n/a	n/a	n/a	-999	17	[0, 0, 0]	n/a	catFR1	0	R1342M
2164.316	1.6	1935036	WORD	n/a	wordpools/wordpool_categorized_EN.txt	CARNATION	Flowers	1	17	[0, 0, 0]	n/a	catFR1	0	R1342M
2165.949	1.112	1936669	WORD_OFF	n/a	n/a	CARNATION	Flowers	1	17	[0, 0, 0]	n/a	catFR1	0	R1342M
2167.061	1.6	1937781	WORD	n/a	wordpools/wordpool_categorized_EN.txt	VIOLET	Flowers	2	17	[0, 0, 0]	n/a	catFR1	0	R1342M
2168.682	0.793	1939402	WORD_OFF	n/a	n/a	VIOLET	Flowers	2	17	[0, 0, 0]	n/a	catFR1	0	R1342M
2169.475	1.6	1940194	WORD	n/a	wordpools/wordpool_categorized_EN.txt	STAPLER	OfficeSupplies	3	17	[0, 0, 0]	n/a	catFR1	0	R1342M
2171.099	1.086	1941818	WORD_OFF	n/a	n/a	STAPLER	OfficeSupplies	3	17	[0, 0, 0]	n/a	catFR1	0	R1342M
2172.185	1.6	1942904	WORD	n/a	wordpools/wordpool_categorized_EN.txt	FOLDER	OfficeSupplies	4	17	[0, 0, 0]	n/a	catFR1	0	R1342M
2173.817	1.073	1944536	WORD_OFF	n/a	n/a	FOLDER	OfficeSupplies	4	17	[0, 0, 0]	n/a	catFR1	0	R1342M
2174.89	1.6	1945609	WORD	n/a	wordpools/wordpool_categorized_EN.txt	PINE	Trees	5	17	[0, 0, 0]	n/a	catFR1	0	R1342M
2176.517	0.919	1947236	WORD_OFF	n/a	n/a	PINE	Trees	5	17	[0, 0, 0]	n/a	catFR1	0	R1342M
2177.436	1.6	1948155	WORD	n/a	wordpools/wordpool_categorized_EN.txt	SPRUCE	Trees	6	17	[0, 0, 0]	n/a	catFR1	0	R1342M
2179.067	1.15	1949786	WORD_OFF	n/a	n/a	SPRUCE	Trees	6	17	[0, 0, 0]	n/a	catFR1	0	R1342M
2180.217	1.6	1950936	WORD	n/a	wordpools/wordpool_categorized_EN.txt	DAISY	Flowers	7	17	[0, 0, 0]	n/a	catFR1	0	R1342M
2181.852	0.803	1952571	WORD_OFF	n/a	n/a	DAISY	Flowers	7	17	[0, 0, 0]	n/a	catFR1	0	R1342M
2182.655	1.6	1953374	WORD	n/a	wordpools/wordpool_categorized_EN.txt	DAFFODIL	Flowers	8	17	[0, 0, 0]	n/a	catFR1	0	R1342M
2184.285	1.135	1955004	WORD_OFF	n/a	n/a	DAFFODIL	Flowers	8	17	[0, 0, 0]	n/a	catFR1	0	R1342M
2185.42	1.6	1956139	WORD	n/a	wordpools/wordpool_categorized_EN.txt	BIRCH	Trees	9	17	[0, 0, 0]	n/a	catFR1	0	R1342M
2187.036	1.046	1957755	WORD_OFF	n/a	n/a	BIRCH	Trees	9	17	[0, 0, 0]	n/a	catFR1	0	R1342M
2188.082	1.6	1958801	WORD	n/a	wordpools/wordpool_categorized_EN.txt	HICKORY	Trees	10	17	[0, 0, 0]	n/a	catFR1	0	R1342M
2189.72	1.117	1960438	WORD_OFF	n/a	n/a	HICKORY	Trees	10	17	[0, 0, 0]	n/a	catFR1	0	R1342M
2190.837	1.6	1961555	WORD	n/a	wordpools/wordpool_categorized_EN.txt	MARKER	OfficeSupplies	11	17	[0, 0, 0]	n/a	catFR1	0	R1342M
2192.471	0.945	1963189	WORD_OFF	n/a	n/a	MARKER	OfficeSupplies	11	17	[0, 0, 0]	n/a	catFR1	0	R1342M
2193.416	1.6	1964134	WORD	n/a	wordpools/wordpool_categorized_EN.txt	PEN	OfficeSupplies	12	17	[0, 0, 0]	n/a	catFR1	0	R1342M
2195.038	0.0	1965756	DISTRACT_START	n/a	n/a	n/a	n/a	-999	17	[0, 0, 0]	n/a	catFR1	0	R1342M
2195.038	0.0	1965756	ENCODING_END	n/a	n/a	n/a	n/a	-999	17	[0, 0, 0]	n/a	catFR1	0	R1342M
2195.038	0.001	1965756	WORD_OFF	n/a	n/a	PEN	OfficeSupplies	12	17	[0, 0, 0]	n/a	catFR1	0	R1342M
2195.039	0.014	1965757	START	n/a	n/a	n/a	n/a	-999	17	[-999, -999, -999]	n/a	catFR1	0	R1342M
2195.053	10.052	1965771	PROB	10.015	n/a	n/a	n/a	-999	17	[7, 6, 9]	22.0	catFR1	0	R1342M
2205.105	6.352	1975823	PROB	6.321	n/a	n/a	n/a	-999	17	[5, 3, 4]	12.0	catFR1	0	R1342M
2211.457	6.516	1982174	PROB	6.516	n/a	n/a	n/a	-999	17	[1, 1, 9]	11.0	catFR1	0	R1342M
2217.973	0.019	1988690	STOP	n/a	n/a	n/a	n/a	-999	17	[-999, -999, -999]	n/a	catFR1	0	R1342M
2217.992	0.551	1988709	DISTRACT_END	n/a	n/a	n/a	n/a	-999	17	[0, 0, 0]	n/a	catFR1	0	R1342M
2218.543	1.6	1989260	RETRIEVAL_ORIENT_START	n/a	n/a	n/a	n/a	-999	17	[0, 0, 0]	n/a	catFR1	0	R1342M
2220.208	0.0	1990925	RETRIEVAL_ORIENT_END	n/a	n/a	n/a	n/a	-999	17	[0, 0, 0]	n/a	catFR1	0	R1342M
2220.208	3.048	1990925	REC_START	n/a	n/a	n/a	n/a	-999	17	[0, 0, 0]	n/a	catFR1	0	R1342M
2223.256	26.965	1993973	REC_WORD	3.048	n/a	STAPLER	OfficeSupplies	3	17	[0, 0, 0]	n/a	catFR1	0	R1342M
2250.221	0.0	2020937	REC_END	n/a	n/a	n/a	n/a	-999	17	[0, 0, 0]	n/a	catFR1	0	R1342M
2250.221	0.024	2020937	TRIAL_END	n/a	n/a	n/a	n/a	-999	17	[0, 0, 0]	n/a	catFR1	0	R1342M
2250.245	0.0	2020961	TRIAL_START	n/a	n/a	n/a	n/a	-999	18	[0, 0, 0]	n/a	catFR1	0	R1342M
2250.245	0.0	2020961	TRIAL	n/a	n/a	n/a	n/a	-999	18	[0, 0, 0]	n/a	catFR1	0	R1342M
2250.245	4.937	2020961	WAITING_START	n/a	n/a	n/a	n/a	-999	18	[0, 0, 0]	n/a	catFR1	0	R1342M
2255.182	0.0	2025897	WAITING_END	n/a	n/a	n/a	n/a	-999	18	[0, 0, 0]	n/a	catFR1	0	R1342M
2255.182	10.0	2025897	COUNTDOWN_START	n/a	n/a	n/a	n/a	-999	18	[0, 0, 0]	n/a	catFR1	0	R1342M
2265.611	0.0	2036326	COUNTDOWN_END	n/a	n/a	n/a	n/a	-999	18	[0, 0, 0]	n/a	catFR1	0	R1342M
2265.611	1.224	2036326	ORIENT_START	n/a	n/a	n/a	n/a	-999	18	[0, 0, 0]	n/a	catFR1	0	R1342M
2266.835	0.0	2037550	ENCODING_START	n/a	n/a	n/a	n/a	-999	18	[0, 0, 0]	n/a	catFR1	0	R1342M
2266.835	0.976	2037550	ORIENT_END	n/a	n/a	n/a	n/a	-999	18	[0, 0, 0]	n/a	catFR1	0	R1342M
2267.811	1.6	2038526	WORD	n/a	wordpools/wordpool_categorized_EN.txt	PANTS	Clothing	1	18	[0, 0, 0]	n/a	catFR1	0	R1342M
2269.434	0.904	2040149	WORD_OFF	n/a	n/a	PANTS	Clothing	1	18	[0, 0, 0]	n/a	catFR1	0	R1342M
2270.338	1.6	2041053	WORD	n/a	wordpools/wordpool_categorized_EN.txt	SKIRT	Clothing	2	18	[0, 0, 0]	n/a	catFR1	0	R1342M
2271.952	1.046	2042667	WORD_OFF	n/a	n/a	SKIRT	Clothing	2	18	[0, 0, 0]	n/a	catFR1	0	R1342M
2272.998	1.6	2043713	WORD	n/a	wordpools/wordpool_categorized_EN.txt	TURTLE	OceanAnimals	3	18	[0, 0, 0]	n/a	catFR1	0	R1342M
2274.62	1.034	2045334	WORD_OFF	n/a	n/a	TURTLE	OceanAnimals	3	18	[0, 0, 0]	n/a	catFR1	0	R1342M
2275.654	1.6	2046368	WORD	n/a	wordpools/wordpool_categorized_EN.txt	WHALE	OceanAnimals	4	18	[0, 0, 0]	n/a	catFR1	0	R1342M
2277.286	0.832	2048000	WORD_OFF	n/a	n/a	WHALE	OceanAnimals	4	18	[0, 0, 0]	n/a	catFR1	0	R1342M
2278.118	1.6	2048832	WORD	n/a	wordpools/wordpool_categorized_EN.txt	TAPE	OfficeSupplies	5	18	[0, 0, 0]	n/a	catFR1	0	R1342M
2279.737	1.033	2050451	WORD_OFF	n/a	n/a	TAPE	OfficeSupplies	5	18	[0, 0, 0]	n/a	catFR1	0	R1342M
2280.77	1.6	2051484	WORD	n/a	wordpools/wordpool_categorized_EN.txt	RULER	OfficeSupplies	6	18	[0, 0, 0]	n/a	catFR1	0	R1342M
2282.404	0.817	2053118	WORD_OFF	n/a	n/a	RULER	OfficeSupplies	6	18	[0, 0, 0]	n/a	catFR1	0	R1342M
2283.221	1.6	2053935	WORD	n/a	wordpools/wordpool_categorized_EN.txt	SQUID	OceanAnimals	7	18	[0, 0, 0]	n/a	catFR1	0	R1342M
2284.855	0.804	2055569	WORD_OFF	n/a	n/a	SQUID	OceanAnimals	7	18	[0, 0, 0]	n/a	catFR1	0	R1342M
2285.659	1.6	2056373	WORD	n/a	wordpools/wordpool_categorized_EN.txt	OCTOPUS	OceanAnimals	8	18	[0, 0, 0]	n/a	catFR1	0	R1342M
2287.288	0.826	2058002	WORD_OFF	n/a	n/a	OCTOPUS	OceanAnimals	8	18	[0, 0, 0]	n/a	catFR1	0	R1342M
2288.114	1.6	2058828	WORD	n/a	wordpools/wordpool_categorized_EN.txt	COAT	Clothing	9	18	[0, 0, 0]	n/a	catFR1	0	R1342M
2289.739	0.946	2060453	WORD_OFF	n/a	n/a	COAT	Clothing	9	18	[0, 0, 0]	n/a	catFR1	0	R1342M
2290.685	1.6	2061399	WORD	n/a	wordpools/wordpool_categorized_EN.txt	BLOUSE	Clothing	10	18	[0, 0, 0]	n/a	catFR1	0	R1342M
2292.322	0.823	2063036	WORD_OFF	n/a	n/a	BLOUSE	Clothing	10	18	[0, 0, 0]	n/a	catFR1	0	R1342M
2293.145	1.6	2063859	WORD	n/a	wordpools/wordpool_categorized_EN.txt	BINDER	OfficeSupplies	11	18	[0, 0, 0]	n/a	catFR1	0	R1342M
2294.757	0.929	2065470	WORD_OFF	n/a	n/a	BINDER	OfficeSupplies	11	18	[0, 0, 0]	n/a	catFR1	0	R1342M
2295.686	1.6	2066399	WORD	n/a	wordpools/wordpool_categorized_EN.txt	PENCIL	OfficeSupplies	12	18	[0, 0, 0]	n/a	catFR1	0	R1342M
2297.306	0.001	2068019	WORD_OFF	n/a	n/a	PENCIL	OfficeSupplies	12	18	[0, 0, 0]	n/a	catFR1	0	R1342M
2297.307	0.0	2068020	ENCODING_END	n/a	n/a	n/a	n/a	-999	18	[0, 0, 0]	n/a	catFR1	0	R1342M
2297.307	0.0	2068020	DISTRACT_START	n/a	n/a	n/a	n/a	-999	18	[0, 0, 0]	n/a	catFR1	0	R1342M
2297.307	0.016	2068020	START	n/a	n/a	n/a	n/a	-999	18	[-999, -999, -999]	n/a	catFR1	0	R1342M
2297.323	6.419	2068036	PROB	6.388	n/a	n/a	n/a	-999	18	[5, 3, 8]	16.0	catFR1	0	R1342M
2303.742	4.633	2074455	PROB	4.599	n/a	n/a	n/a	-999	18	[5, 1, 5]	11.0	catFR1	0	R1342M
2308.375	5.452	2079088	PROB	5.429	n/a	n/a	n/a	-999	18	[5, 2, 1]	8.0	catFR1	0	R1342M
2313.827	5.273	2084540	PROB	5.273	n/a	n/a	n/a	-999	18	[9, 1, 9]	19.0	catFR1	0	R1342M
2319.1	0.011	2089812	STOP	n/a	n/a	n/a	n/a	-999	18	[-999, -999, -999]	n/a	catFR1	0	R1342M
2319.111	0.671	2089823	DISTRACT_END	n/a	n/a	n/a	n/a	-999	18	[0, 0, 0]	n/a	catFR1	0	R1342M
2319.782	1.6	2090494	RETRIEVAL_ORIENT_START	n/a	n/a	n/a	n/a	-999	18	[0, 0, 0]	n/a	catFR1	0	R1342M
2321.361	0.001	2092073	RETRIEVAL_ORIENT_END	n/a	n/a	n/a	n/a	-999	18	[0, 0, 0]	n/a	catFR1	0	R1342M
2321.362	5.403	2092074	REC_START	n/a	n/a	n/a	n/a	-999	18	[0, 0, 0]	n/a	catFR1	0	R1342M
2326.765	3.545	2097477	REC_WORD	5.403	n/a	PANTS	Clothing	1	18	[0, 0, 0]	n/a	catFR1	0	R1342M
2330.31	5.192	2101022	REC_WORD	8.948	n/a	TURTLE	OceanAnimals	3	18	[0, 0, 0]	n/a	catFR1	0	R1342M
2335.502	15.871	2106214	REC_WORD	14.14	n/a	SKIRT	Clothing	2	18	[0, 0, 0]	n/a	catFR1	0	R1342M
2351.373	0.001	2122084	REC_END	n/a	n/a	n/a	n/a	-999	18	[0, 0, 0]	n/a	catFR1	0	R1342M
2351.374	0.021	2122085	TRIAL_END	n/a	n/a	n/a	n/a	-999	18	[0, 0, 0]	n/a	catFR1	0	R1342M
2351.395	0.0	2122106	TRIAL	n/a	n/a	n/a	n/a	-999	19	[0, 0, 0]	n/a	catFR1	0	R1342M
2351.395	0.001	2122106	TRIAL_START	n/a	n/a	n/a	n/a	-999	19	[0, 0, 0]	n/a	catFR1	0	R1342M
2351.396	6.557	2122107	WAITING_START	n/a	n/a	n/a	n/a	-999	19	[0, 0, 0]	n/a	catFR1	0	R1342M
2357.953	0.0	2128663	WAITING_END	n/a	n/a	n/a	n/a	-999	19	[0, 0, 0]	n/a	catFR1	0	R1342M
2357.953	10.0	2128663	COUNTDOWN_START	n/a	n/a	n/a	n/a	-999	19	[0, 0, 0]	n/a	catFR1	0	R1342M
2368.381	0.0	2139091	COUNTDOWN_END	n/a	n/a	n/a	n/a	-999	19	[0, 0, 0]	n/a	catFR1	0	R1342M
2368.381	1.023	2139091	ORIENT_START	n/a	n/a	n/a	n/a	-999	19	[0, 0, 0]	n/a	catFR1	0	R1342M
2369.404	0.0	2140114	ORIENT_END	n/a	n/a	n/a	n/a	-999	19	[0, 0, 0]	n/a	catFR1	0	R1342M
2369.404	0.774	2140114	ENCODING_START	n/a	n/a	n/a	n/a	-999	19	[0, 0, 0]	n/a	catFR1	0	R1342M
2370.178	1.6	2140888	WORD	n/a	wordpools/wordpool_categorized_EN.txt	GOAT	FarmAnimals	1	19	[0, 0, 0]	n/a	catFR1	0	R1342M
2371.805	1.05	2142515	WORD_OFF	n/a	n/a	GOAT	FarmAnimals	1	19	[0, 0, 0]	n/a	catFR1	0	R1342M
2372.855	1.6	2143565	WORD	n/a	wordpools/wordpool_categorized_EN.txt	LAMB	FarmAnimals	2	19	[0, 0, 0]	n/a	catFR1	0	R1342M
2374.489	0.957	2145199	WORD_OFF	n/a	n/a	LAMB	FarmAnimals	2	19	[0, 0, 0]	n/a	catFR1	0	R1342M
2375.446	1.6	2146156	WORD	n/a	wordpools/wordpool_categorized_EN.txt	MOSQUITO	Insects	3	19	[0, 0, 0]	n/a	catFR1	0	R1342M
2377.072	0.788	2147782	WORD_OFF	n/a	n/a	MOSQUITO	Insects	3	19	[0, 0, 0]	n/a	catFR1	0	R1342M
2377.86	1.6	2148569	WORD	n/a	wordpools/wordpool_categorized_EN.txt	BEETLE	Insects	4	19	[0, 0, 0]	n/a	catFR1	0	R1342M
2379.49	0.862	2150199	WORD_OFF	n/a	n/a	BEETLE	Insects	4	19	[0, 0, 0]	n/a	catFR1	0	R1342M
2380.352	1.6	2151061	WORD	n/a	wordpools/wordpool_categorized_EN.txt	PUZZLE	Toys	5	19	[0, 0, 0]	n/a	catFR1	0	R1342M
2381.974	0.895	2152683	WORD_OFF	n/a	n/a	PUZZLE	Toys	5	19	[0, 0, 0]	n/a	catFR1	0	R1342M
2382.869	1.6	2153578	WORD	n/a	wordpools/wordpool_categorized_EN.txt	FRISBEE	Toys	6	19	[0, 0, 0]	n/a	catFR1	0	R1342M
2384.508	0.812	2155217	WORD_OFF	n/a	n/a	FRISBEE	Toys	6	19	[0, 0, 0]	n/a	catFR1	0	R1342M
2385.32	1.6	2156029	WORD	n/a	wordpools/wordpool_categorized_EN.txt	TURKEY	FarmAnimals	7	19	[0, 0, 0]	n/a	catFR1	0	R1342M
2386.941	1.046	2157650	WORD_OFF	n/a	n/a	TURKEY	FarmAnimals	7	19	[0, 0, 0]	n/a	catFR1	0	R1342M
2387.987	1.6	2158696	WORD	n/a	wordpools/wordpool_categorized_EN.txt	COW	FarmAnimals	8	19	[0, 0, 0]	n/a	catFR1	0	R1342M
2389.609	1.064	2160318	WORD_OFF	n/a	n/a	COW	FarmAnimals	8	19	[0, 0, 0]	n/a	catFR1	0	R1342M
2390.673	1.6	2161382	WORD	n/a	wordpools/wordpool_categorized_EN.txt	BARBIE	Toys	9	19	[0, 0, 0]	n/a	catFR1	0	R1342M
2392.308	0.762	2163017	WORD_OFF	n/a	n/a	BARBIE	Toys	9	19	[0, 0, 0]	n/a	catFR1	0	R1342M
2393.07	1.6	2163779	WORD	n/a	wordpools/wordpool_categorized_EN.txt	SLINKY	Toys	10	19	[0, 0, 0]	n/a	catFR1	0	R1342M
2394.676	0.783	2165385	WORD_OFF	n/a	n/a	SLINKY	Toys	10	19	[0, 0, 0]	n/a	catFR1	0	R1342M
2395.459	1.6	2166168	WORD	n/a	wordpools/wordpool_categorized_EN.txt	SPIDER	Insects	11	19	[0, 0, 0]	n/a	catFR1	0	R1342M
2397.092	0.866	2167801	WORD_OFF	n/a	n/a	SPIDER	Insects	11	19	[0, 0, 0]	n/a	catFR1	0	R1342M
2397.958	1.6	2168667	WORD	n/a	wordpools/wordpool_categorized_EN.txt	GNAT	Insects	12	19	[0, 0, 0]	n/a	catFR1	0	R1342M
2399.594	0.0	2170302	WORD_OFF	n/a	n/a	GNAT	Insects	12	19	[0, 0, 0]	n/a	catFR1	0	R1342M
2399.594	0.001	2170302	ENCODING_END	n/a	n/a	n/a	n/a	-999	19	[0, 0, 0]	n/a	catFR1	0	R1342M
2399.595	0.0	2170303	DISTRACT_START	n/a	n/a	n/a	n/a	-999	19	[0, 0, 0]	n/a	catFR1	0	R1342M
2399.595	0.015	2170303	START	n/a	n/a	n/a	n/a	-999	19	[-999, -999, -999]	n/a	catFR1	0	R1342M
2399.61	6.885	2170318	PROB	6.858	n/a	n/a	n/a	-999	19	[4, 8, 6]	18.0	catFR1	0	R1342M
2406.495	3.817	2177203	PROB	3.78	n/a	n/a	n/a	-999	19	[2, 2, 1]	5.0	catFR1	0	R1342M
2410.312	6.652	2181020	PROB	6.626	n/a	n/a	n/a	-999	19	[7, 8, 7]	23.0	catFR1	0	R1342M
2416.964	6.637	2187672	PROB	6.637	n/a	n/a	n/a	-999	19	[6, 2, 3]	11.0	catFR1	0	R1342M
2423.601	0.014	2194308	STOP	n/a	n/a	n/a	n/a	-999	19	[-999, -999, -999]	n/a	catFR1	0	R1342M
2423.615	0.691	2194322	DISTRACT_END	n/a	n/a	n/a	n/a	-999	19	[0, 0, 0]	n/a	catFR1	0	R1342M
2424.306	1.6	2195013	RETRIEVAL_ORIENT_START	n/a	n/a	n/a	n/a	-999	19	[0, 0, 0]	n/a	catFR1	0	R1342M
2425.949	0.0	2196656	REC_START	n/a	n/a	n/a	n/a	-999	19	[0, 0, 0]	n/a	catFR1	0	R1342M
2425.949	4.661	2196656	RETRIEVAL_ORIENT_END	n/a	n/a	n/a	n/a	-999	19	[0, 0, 0]	n/a	catFR1	0	R1342M
2430.61	4.03	2201317	REC_WORD	4.661	n/a	GOAT	FarmAnimals	1	19	[0, 0, 0]	n/a	catFR1	0	R1342M
2434.64	21.322	2205347	REC_WORD	8.691	n/a	BEETLE	Insects	4	19	[0, 0, 0]	n/a	catFR1	0	R1342M
2455.962	0.001	2226668	REC_END	n/a	n/a	n/a	n/a	-999	19	[0, 0, 0]	n/a	catFR1	0	R1342M
2455.963	0.023	2226669	TRIAL_END	n/a	n/a	n/a	n/a	-999	19	[0, 0, 0]	n/a	catFR1	0	R1342M
2455.986	0.001	2226692	TRIAL_START	n/a	n/a	n/a	n/a	-999	20	[0, 0, 0]	n/a	catFR1	0	R1342M
2455.987	0.0	2226693	TRIAL	n/a	n/a	n/a	n/a	-999	20	[0, 0, 0]	n/a	catFR1	0	R1342M
2455.987	5.351	2226693	WAITING_START	n/a	n/a	n/a	n/a	-999	20	[0, 0, 0]	n/a	catFR1	0	R1342M
2461.338	0.001	2232043	WAITING_END	n/a	n/a	n/a	n/a	-999	20	[0, 0, 0]	n/a	catFR1	0	R1342M
2461.339	10.0	2232044	COUNTDOWN_START	n/a	n/a	n/a	n/a	-999	20	[0, 0, 0]	n/a	catFR1	0	R1342M
2471.768	0.001	2242473	COUNTDOWN_END	n/a	n/a	n/a	n/a	-999	20	[0, 0, 0]	n/a	catFR1	0	R1342M
2471.769	1.139	2242474	ORIENT_START	n/a	n/a	n/a	n/a	-999	20	[0, 0, 0]	n/a	catFR1	0	R1342M
2472.908	0.001	2243613	ORIENT_END	n/a	n/a	n/a	n/a	-999	20	[0, 0, 0]	n/a	catFR1	0	R1342M
2472.909	0.988	2243614	ENCODING_START	n/a	n/a	n/a	n/a	-999	20	[0, 0, 0]	n/a	catFR1	0	R1342M
2473.897	1.6	2244602	WORD	n/a	wordpools/wordpool_categorized_EN.txt	ROOM	Building	1	20	[0, 0, 0]	n/a	catFR1	0	R1342M
2475.525	1.139	2246230	WORD_OFF	n/a	n/a	ROOM	Building	1	20	[0, 0, 0]	n/a	catFR1	0	R1342M
2476.664	1.6	2247369	WORD	n/a	wordpools/wordpool_categorized_EN.txt	HALLWAY	Building	2	20	[0, 0, 0]	n/a	catFR1	0	R1342M
2478.291	0.889	2248996	WORD_OFF	n/a	n/a	HALLWAY	Building	2	20	[0, 0, 0]	n/a	catFR1	0	R1342M
2479.18	1.6	2249885	WORD	n/a	wordpools/wordpool_categorized_EN.txt	COBBLER	Desserts	3	20	[0, 0, 0]	n/a	catFR1	0	R1342M
2480.81	1.086	2251515	WORD_OFF	n/a	n/a	COBBLER	Desserts	3	20	[0, 0, 0]	n/a	catFR1	0	R1342M
2481.896	1.6	2252600	WORD	n/a	wordpools/wordpool_categorized_EN.txt	CHEESECAKE	Desserts	4	20	[0, 0, 0]	n/a	catFR1	0	R1342M
2483.527	1.063	2254231	WORD_OFF	n/a	n/a	CHEESECAKE	Desserts	4	20	[0, 0, 0]	n/a	catFR1	0	R1342M
2484.59	1.6	2255294	WORD	n/a	wordpools/wordpool_categorized_EN.txt	ISLAND	Landscapes	5	20	[0, 0, 0]	n/a	catFR1	0	R1342M
2486.226	0.799	2256930	WORD_OFF	n/a	n/a	ISLAND	Landscapes	5	20	[0, 0, 0]	n/a	catFR1	0	R1342M
2487.025	1.6	2257729	WORD	n/a	wordpools/wordpool_categorized_EN.txt	MOUNTAIN	Landscapes	6	20	[0, 0, 0]	n/a	catFR1	0	R1342M
2488.661	0.958	2259365	WORD_OFF	n/a	n/a	MOUNTAIN	Landscapes	6	20	[0, 0, 0]	n/a	catFR1	0	R1342M
2489.619	1.6	2260323	WORD	n/a	wordpools/wordpool_categorized_EN.txt	CUPCAKE	Desserts	7	20	[0, 0, 0]	n/a	catFR1	0	R1342M
2491.244	1.095	2261948	WORD_OFF	n/a	n/a	CUPCAKE	Desserts	7	20	[0, 0, 0]	n/a	catFR1	0	R1342M
2492.339	1.6	2263043	WORD	n/a	wordpools/wordpool_categorized_EN.txt	PIE	Desserts	8	20	[0, 0, 0]	n/a	catFR1	0	R1342M
2493.945	1.089	2264649	WORD_OFF	n/a	n/a	PIE	Desserts	8	20	[0, 0, 0]	n/a	catFR1	0	R1342M
2495.034	1.6	2265738	WORD	n/a	wordpools/wordpool_categorized_EN.txt	CREEK	Landscapes	9	20	[0, 0, 0]	n/a	catFR1	0	R1342M
2496.663	0.948	2267367	WORD_OFF	n/a	n/a	CREEK	Landscapes	9	20	[0, 0, 0]	n/a	catFR1	0	R1342M
2497.611	1.6	2268315	WORD	n/a	wordpools/wordpool_categorized_EN.txt	BEACH	Landscapes	10	20	[0, 0, 0]	n/a	catFR1	0	R1342M
2499.246	1.124	2269950	WORD_OFF	n/a	n/a	BEACH	Landscapes	10	20	[0, 0, 0]	n/a	catFR1	0	R1342M
2500.37	1.6	2271074	WORD	n/a	wordpools/wordpool_categorized_EN.txt	WALL	Building	11	20	[0, 0, 0]	n/a	catFR1	0	R1342M
2501.98	0.927	2272684	WORD_OFF	n/a	n/a	WALL	Building	11	20	[0, 0, 0]	n/a	catFR1	0	R1342M
2502.907	1.6	2273610	WORD	n/a	wordpools/wordpool_categorized_EN.txt	CEILING	Building	12	20	[0, 0, 0]	n/a	catFR1	0	R1342M
2504.531	0.001	2275234	WORD_OFF	n/a	n/a	CEILING	Building	12	20	[0, 0, 0]	n/a	catFR1	0	R1342M
2504.532	0.0	2275235	ENCODING_END	n/a	n/a	n/a	n/a	-999	20	[0, 0, 0]	n/a	catFR1	0	R1342M
2504.532	0.0	2275235	DISTRACT_START	n/a	n/a	n/a	n/a	-999	20	[0, 0, 0]	n/a	catFR1	0	R1342M
2504.532	0.015	2275235	START	n/a	n/a	n/a	n/a	-999	20	[-999, -999, -999]	n/a	catFR1	0	R1342M
2504.547	6.268	2275250	PROB	6.237	n/a	n/a	n/a	-999	20	[5, 2, 2]	9.0	catFR1	0	R1342M
2510.815	6.484	2281518	PROB	6.453	n/a	n/a	n/a	-999	20	[2, 8, 9]	21.0	catFR1	0	R1342M
2517.299	11.381	2288002	PROB	11.381	n/a	n/a	n/a	-999	20	[8, 6, 3]	17.0	catFR1	0	R1342M
2528.68	0.006	2299382	STOP	n/a	n/a	n/a	n/a	-999	20	[-999, -999, -999]	n/a	catFR1	0	R1342M
2528.686	0.634	2299388	DISTRACT_END	n/a	n/a	n/a	n/a	-999	20	[0, 0, 0]	n/a	catFR1	0	R1342M
2529.32	1.6	2300022	RETRIEVAL_ORIENT_START	n/a	n/a	n/a	n/a	-999	20	[0, 0, 0]	n/a	catFR1	0	R1342M
2530.919	0.001	2301621	RETRIEVAL_ORIENT_END	n/a	n/a	n/a	n/a	-999	20	[0, 0, 0]	n/a	catFR1	0	R1342M
2530.92	5.135	2301622	REC_START	n/a	n/a	n/a	n/a	-999	20	[0, 0, 0]	n/a	catFR1	0	R1342M
2536.055	5.103	2306757	REC_WORD	5.135	n/a	ROOM	Building	1	20	[0, 0, 0]	n/a	catFR1	0	R1342M
2541.158	4.983	2311860	REC_WORD	10.238	n/a	HALLWAY	Building	2	20	[0, 0, 0]	n/a	catFR1	0	R1342M
2546.141	14.79	2316842	REC_WORD	15.221	n/a	CEILING	Building	12	20	[0, 0, 0]	n/a	catFR1	0	R1342M
2560.931	0.001	2331632	REC_END	n/a	n/a	n/a	n/a	-999	20	[0, 0, 0]	n/a	catFR1	0	R1342M
2560.932	0.022	2331633	TRIAL_END	n/a	n/a	n/a	n/a	-999	20	[0, 0, 0]	n/a	catFR1	0	R1342M
2560.954	0.0	2331655	TRIAL_START	n/a	n/a	n/a	n/a	-999	21	[0, 0, 0]	n/a	catFR1	0	R1342M
2560.954	0.0	2331655	TRIAL	n/a	n/a	n/a	n/a	-999	21	[0, 0, 0]	n/a	catFR1	0	R1342M
2560.954	6.072	2331655	WAITING_START	n/a	n/a	n/a	n/a	-999	21	[0, 0, 0]	n/a	catFR1	0	R1342M
2567.026	0.001	2337726	WAITING_END	n/a	n/a	n/a	n/a	-999	21	[0, 0, 0]	n/a	catFR1	0	R1342M
2567.027	10.0	2337727	COUNTDOWN_START	n/a	n/a	n/a	n/a	-999	21	[0, 0, 0]	n/a	catFR1	0	R1342M
2577.457	0.001	2348157	COUNTDOWN_END	n/a	n/a	n/a	n/a	-999	21	[0, 0, 0]	n/a	catFR1	0	R1342M
2577.458	1.121	2348158	ORIENT_START	n/a	n/a	n/a	n/a	-999	21	[0, 0, 0]	n/a	catFR1	0	R1342M
2578.579	0.0	2349279	ORIENT_END	n/a	n/a	n/a	n/a	-999	21	[0, 0, 0]	n/a	catFR1	0	R1342M
2578.579	0.807	2349279	ENCODING_START	n/a	n/a	n/a	n/a	-999	21	[0, 0, 0]	n/a	catFR1	0	R1342M
2579.386	1.6	2350086	WORD	n/a	wordpools/wordpool_categorized_EN.txt	SCANNER	Electronics	1	21	[0, 0, 0]	n/a	catFR1	0	R1342M
2580.995	1.052	2351695	WORD_OFF	n/a	n/a	SCANNER	Electronics	1	21	[0, 0, 0]	n/a	catFR1	0	R1342M
