onset	duration	sample	trial_type	response_time	stim_file	item_name	category	serialpos	list	test	answer	experiment	session	subject
0.0	5.794	5969	INSTRUCT_START	n/a	n/a	n/a	n/a	-999	-999	[0, 0, 0]	n/a	catFR1	2	R1383J
5.794	28.772	11764	INSTRUCT_END	n/a	n/a	n/a	n/a	-999	-999	[0, 0, 0]	n/a	catFR1	2	R1383J
34.566	10.36	40541	COUNTDOWN_START	n/a	n/a	n/a	n/a	-999	-999	[0, 0, 0]	n/a	catFR1	2	R1383J
44.926	0.001	50896	COUNTDOWN_END	n/a	n/a	n/a	n/a	-999	-999	[0, 0, 0]	n/a	catFR1	2	R1383J
44.927	2.14	50896	ENCODING_START	n/a	n/a	n/a	n/a	-999	-1	[0, 0, 0]	n/a	catFR1	2	R1383J
47.067	1.599	53037	WORD	n/a	n/a	PLUMBER	Professions	1	-1	[0, 0, 0]	n/a	catFR1	2	R1383J
48.666	0.917	54638	WORD_OFF	n/a	n/a	PLUMBER	Professions	1	-1	[0, 0, 0]	n/a	catFR1	2	R1383J
49.583	1.6	55552	WORD	n/a	n/a	FIREMAN	Professions	2	-1	[0, 0, 0]	n/a	catFR1	2	R1383J
51.183	0.85	57153	WORD_OFF	n/a	n/a	FIREMAN	Professions	2	-1	[0, 0, 0]	n/a	catFR1	2	R1383J
52.033	1.6	58005	WORD	n/a	n/a	MINUTE	Times	3	-1	[0, 0, 0]	n/a	catFR1	2	R1383J
53.633	0.783	59598	WORD_OFF	n/a	n/a	MINUTE	Times	3	-1	[0, 0, 0]	n/a	catFR1	2	R1383J
54.416	1.6	60390	WORD	n/a	n/a	HOUR	Times	4	-1	[0, 0, 0]	n/a	catFR1	2	R1383J
56.016	0.933	61973	WORD_OFF	n/a	n/a	HOUR	Times	4	-1	[0, 0, 0]	n/a	catFR1	2	R1383J
56.949	1.601	62904	WORD	n/a	n/a	LEATHER	Materials	5	-1	[0, 0, 0]	n/a	catFR1	2	R1383J
58.55	0.85	64506	WORD_OFF	n/a	n/a	LEATHER	Materials	5	-1	[0, 0, 0]	n/a	catFR1	2	R1383J
59.4	1.6	65358	WORD	n/a	n/a	WOOL	Materials	6	-1	[0, 0, 0]	n/a	catFR1	2	R1383J
61.0	0.916	66959	WORD_OFF	n/a	n/a	WOOL	Materials	6	-1	[0, 0, 0]	n/a	catFR1	2	R1383J
61.916	1.6	67873	WORD	n/a	n/a	FARMER	Professions	7	-1	[0, 0, 0]	n/a	catFR1	2	R1383J
63.516	1.0	69474	WORD_OFF	n/a	n/a	FARMER	Professions	7	-1	[0, 0, 0]	n/a	catFR1	2	R1383J
64.516	1.617	70475	WORD	n/a	n/a	TEACHER	Professions	8	-1	[0, 0, 0]	n/a	catFR1	2	R1383J
66.133	0.916	72093	WORD_OFF	n/a	n/a	TEACHER	Professions	8	-1	[0, 0, 0]	n/a	catFR1	2	R1383J
67.049	1.6	73007	WORD	n/a	n/a	SECOND	Times	9	-1	[0, 0, 0]	n/a	catFR1	2	R1383J
68.649	0.767	74608	WORD_OFF	n/a	n/a	SECOND	Times	9	-1	[0, 0, 0]	n/a	catFR1	2	R1383J
69.416	1.6	75374	WORD	n/a	n/a	DAY	Times	10	-1	[0, 0, 0]	n/a	catFR1	2	R1383J
71.016	0.833	76975	WORD_OFF	n/a	n/a	DAY	Times	10	-1	[0, 0, 0]	n/a	catFR1	2	R1383J
71.849	1.617	77802	WORD	n/a	n/a	DENIM	Materials	11	-1	[0, 0, 0]	n/a	catFR1	2	R1383J
73.466	0.783	79420	WORD_OFF	n/a	n/a	DENIM	Materials	11	-1	[0, 0, 0]	n/a	catFR1	2	R1383J
74.249	1.617	80203	WORD	n/a	n/a	SILK	Materials	12	-1	[0, 0, 0]	n/a	catFR1	2	R1383J
75.866	0.001	81822	WORD_OFF	n/a	n/a	SILK	Materials	12	-1	[0, 0, 0]	n/a	catFR1	2	R1383J
75.867	0.001	81822	ENCODING_END	n/a	n/a	n/a	n/a	-999	-1	[0, 0, 0]	n/a	catFR1	2	R1383J
75.868	0.0	81822	DISTRACT_START	n/a	n/a	n/a	n/a	-999	-1	[0, 0, 0]	n/a	catFR1	2	R1383J
75.866	0.002	81823	PROB	0.002	n/a	n/a	n/a	-999	-1	[6, 7, 1]	14	catFR1	2	R1383J
75.868	5.782	81825	START	n/a	n/a	n/a	n/a	-999	-1	[-999, -999, -999]	n/a	catFR1	2	R1383J
81.65	12.216	87607	PROB	12.216	n/a	n/a	n/a	-999	-1	[4, 1, 3]	8	catFR1	2	R1383J
93.866	6.482	99822	PROB	6.482	n/a	n/a	n/a	-999	-1	[7, 6, 3]	16	catFR1	2	R1383J
100.348	0.0	106300	DISTRACT_END	n/a	n/a	n/a	n/a	-999	-1	[0, 0, 0]	n/a	catFR1	2	R1383J
100.348	1.301	106304	STOP	n/a	n/a	n/a	n/a	-999	-1	[-999, -999, -999]	n/a	catFR1	2	R1383J
101.649	4.076	107605	REC_START	n/a	n/a	n/a	n/a	-999	-1	[0, 0, 0]	n/a	catFR1	2	R1383J
105.725	0.703	111681	REC_WORD	0.703	n/a	PLUMBER	Professions	1	-1	[0, 0, 0]	n/a	catFR1	2	R1383J
106.428	0.943	112384	REC_WORD_VV	0.943	n/a	<>	n/a	-999	-1	[0, 0, 0]	n/a	catFR1	2	R1383J
107.371	2.212	113327	REC_WORD	2.212	n/a	FARMER	Professions	7	-1	[0, 0, 0]	n/a	catFR1	2	R1383J
109.583	3.182	115539	REC_WORD	3.182	n/a	WOOL	Materials	6	-1	[0, 0, 0]	n/a	catFR1	2	R1383J
112.765	19.151	118720	REC_WORD	19.151	n/a	DENIM	Materials	11	-1	[0, 0, 0]	n/a	catFR1	2	R1383J
131.916	15.1	137870	REC_END	n/a	n/a	n/a	n/a	-999	-1	[0, 0, 0]	n/a	catFR1	2	R1383J
147.016	10.36	152976	COUNTDOWN_START	n/a	n/a	n/a	n/a	-999	1	[0, 0, 0]	n/a	catFR1	2	R1383J
157.376	0.0	163331	COUNTDOWN_END	n/a	n/a	n/a	n/a	-999	1	[0, 0, 0]	n/a	catFR1	2	R1383J
157.376	2.224	163331	ENCODING_START	n/a	n/a	n/a	n/a	-999	1	[0, 0, 0]	n/a	catFR1	2	R1383J
159.6	1.616	165550	WORD	n/a	wordpools/wordpool_categorized_EN.txt	SANDER	Tools	1	1	[0, 0, 0]	n/a	catFR1	2	R1383J
161.216	0.834	167169	WORD_OFF	n/a	n/a	SANDER	Tools	1	1	[0, 0, 0]	n/a	catFR1	2	R1383J
162.05	1.616	168004	WORD	n/a	wordpools/wordpool_categorized_EN.txt	SHOVEL	Tools	2	1	[0, 0, 0]	n/a	catFR1	2	R1383J
163.666	0.817	169623	WORD_OFF	n/a	n/a	SHOVEL	Tools	2	1	[0, 0, 0]	n/a	catFR1	2	R1383J
164.483	1.616	170432	WORD	n/a	wordpools/wordpool_categorized_EN.txt	PIE	Desserts	3	1	[0, 0, 0]	n/a	catFR1	2	R1383J
166.099	0.767	172050	WORD_OFF	n/a	n/a	PIE	Desserts	3	1	[0, 0, 0]	n/a	catFR1	2	R1383J
166.866	1.6	172816	WORD	n/a	wordpools/wordpool_categorized_EN.txt	JELLO	Desserts	4	1	[0, 0, 0]	n/a	catFR1	2	R1383J
168.466	0.783	174417	WORD_OFF	n/a	n/a	JELLO	Desserts	4	1	[0, 0, 0]	n/a	catFR1	2	R1383J
169.249	1.6	175200	WORD	n/a	wordpools/wordpool_categorized_EN.txt	HALLWAY	Building	5	1	[0, 0, 0]	n/a	catFR1	2	R1383J
170.849	0.783	176802	WORD_OFF	n/a	n/a	HALLWAY	Building	5	1	[0, 0, 0]	n/a	catFR1	2	R1383J
171.632	1.601	177585	WORD	n/a	wordpools/wordpool_categorized_EN.txt	BATHROOM	Building	6	1	[0, 0, 0]	n/a	catFR1	2	R1383J
173.233	0.783	179186	WORD_OFF	n/a	n/a	BATHROOM	Building	6	1	[0, 0, 0]	n/a	catFR1	2	R1383J
174.016	1.6	179969	WORD	n/a	wordpools/wordpool_categorized_EN.txt	RATCHET	Tools	7	1	[0, 0, 0]	n/a	catFR1	2	R1383J
175.616	0.85	181570	WORD_OFF	n/a	n/a	RATCHET	Tools	7	1	[0, 0, 0]	n/a	catFR1	2	R1383J
176.466	1.616	182414	WORD	n/a	wordpools/wordpool_categorized_EN.txt	AXE	Tools	8	1	[0, 0, 0]	n/a	catFR1	2	R1383J
178.082	0.817	184033	WORD_OFF	n/a	n/a	AXE	Tools	8	1	[0, 0, 0]	n/a	catFR1	2	R1383J
178.899	1.616	184851	WORD	n/a	wordpools/wordpool_categorized_EN.txt	ROOF	Building	9	1	[0, 0, 0]	n/a	catFR1	2	R1383J
180.515	0.8	186469	WORD_OFF	n/a	n/a	ROOF	Building	9	1	[0, 0, 0]	n/a	catFR1	2	R1383J
181.315	1.617	187270	WORD	n/a	wordpools/wordpool_categorized_EN.txt	CEILING	Building	10	1	[0, 0, 0]	n/a	catFR1	2	R1383J
182.932	0.783	188880	WORD_OFF	n/a	n/a	CEILING	Building	10	1	[0, 0, 0]	n/a	catFR1	2	R1383J
183.715	1.617	189671	WORD	n/a	wordpools/wordpool_categorized_EN.txt	COBBLER	Desserts	11	1	[0, 0, 0]	n/a	catFR1	2	R1383J
185.332	0.984	191281	WORD_OFF	n/a	n/a	COBBLER	Desserts	11	1	[0, 0, 0]	n/a	catFR1	2	R1383J
186.316	1.6	192265	WORD	n/a	wordpools/wordpool_categorized_EN.txt	CUPCAKE	Desserts	12	1	[0, 0, 0]	n/a	catFR1	2	R1383J
187.916	0.001	193866	WORD_OFF	n/a	n/a	CUPCAKE	Desserts	12	1	[0, 0, 0]	n/a	catFR1	2	R1383J
187.917	0.0	193866	ENCODING_END	n/a	n/a	n/a	n/a	-999	1	[0, 0, 0]	n/a	catFR1	2	R1383J
187.916	0.001	193868	PROB	0.001	n/a	n/a	n/a	-999	1	[4, 3, 8]	15	catFR1	2	R1383J
187.917	0.0	193869	START	n/a	n/a	n/a	n/a	-999	1	[-999, -999, -999]	n/a	catFR1	2	R1383J
187.917	5.632	193874	DISTRACT_START	n/a	n/a	n/a	n/a	-999	1	[0, 0, 0]	n/a	catFR1	2	R1383J
193.549	6.3	199501	PROB	6.3	n/a	n/a	n/a	-999	1	[2, 8, 6]	16	catFR1	2	R1383J
199.849	5.0	205801	PROB	5.0	n/a	n/a	n/a	-999	1	[5, 7, 3]	15	catFR1	2	R1383J
204.849	7.433	210801	PROB	7.433	n/a	n/a	n/a	-999	1	[6, 1, 6]	13	catFR1	2	R1383J
212.282	0.0	218231	DISTRACT_END	n/a	n/a	n/a	n/a	-999	1	[0, 0, 0]	n/a	catFR1	2	R1383J
212.282	1.4	218233	STOP	n/a	n/a	n/a	n/a	-999	1	[-999, -999, -999]	n/a	catFR1	2	R1383J
213.682	2.289	219632	REC_START	n/a	n/a	n/a	n/a	-999	1	[0, 0, 0]	n/a	catFR1	2	R1383J
215.971	1.375	221922	REC_WORD	1.375	n/a	SANDER	Tools	1	1	[0, 0, 0]	n/a	catFR1	2	R1383J
217.346	2.062	223297	REC_WORD	2.062	n/a	SHOVEL	Tools	2	1	[0, 0, 0]	n/a	catFR1	2	R1383J
219.408	1.379	225359	REC_WORD	1.379	n/a	PIE	Desserts	3	1	[0, 0, 0]	n/a	catFR1	2	R1383J
220.787	3.128	226738	REC_WORD	3.128	n/a	CUPCAKE	Desserts	12	1	[0, 0, 0]	n/a	catFR1	2	R1383J
223.915	2.495	229866	REC_WORD	2.495	n/a	COBBLER	Desserts	11	1	[0, 0, 0]	n/a	catFR1	2	R1383J
226.41	1.615	232361	REC_WORD	1.615	n/a	CEILING	Building	10	1	[0, 0, 0]	n/a	catFR1	2	R1383J
228.025	15.903	233976	REC_WORD	15.903	n/a	ROOF	Building	9	1	[0, 0, 0]	n/a	catFR1	2	R1383J
243.928	1.305	249879	REC_END	n/a	n/a	n/a	n/a	-999	1	[0, 0, 0]	n/a	catFR1	2	R1383J
245.233	10.363	251184	COUNTDOWN_START	n/a	n/a	n/a	n/a	-999	2	[0, 0, 0]	n/a	catFR1	2	R1383J
255.596	0.0	261548	COUNTDOWN_END	n/a	n/a	n/a	n/a	-999	2	[0, 0, 0]	n/a	catFR1	2	R1383J
255.596	1.97	261548	ENCODING_START	n/a	n/a	n/a	n/a	-999	2	[0, 0, 0]	n/a	catFR1	2	R1383J
257.566	1.6	263515	WORD	n/a	wordpools/wordpool_categorized_EN.txt	TOE	Bodyparts	1	2	[0, 0, 0]	n/a	catFR1	2	R1383J
259.166	0.883	265116	WORD_OFF	n/a	n/a	TOE	Bodyparts	1	2	[0, 0, 0]	n/a	catFR1	2	R1383J
260.049	1.6	265995	WORD	n/a	wordpools/wordpool_categorized_EN.txt	KNEE	Bodyparts	2	2	[0, 0, 0]	n/a	catFR1	2	R1383J
261.649	0.817	267596	WORD_OFF	n/a	n/a	KNEE	Bodyparts	2	2	[0, 0, 0]	n/a	catFR1	2	R1383J
262.466	1.617	268414	WORD	n/a	wordpools/wordpool_categorized_EN.txt	HORSE	Farmanimals	3	2	[0, 0, 0]	n/a	catFR1	2	R1383J
264.083	0.85	270032	WORD_OFF	n/a	n/a	HORSE	Farmanimals	3	2	[0, 0, 0]	n/a	catFR1	2	R1383J
264.933	1.616	270877	WORD	n/a	wordpools/wordpool_categorized_EN.txt	LAMB	Farmanimals	4	2	[0, 0, 0]	n/a	catFR1	2	R1383J
266.549	0.917	272495	WORD_OFF	n/a	n/a	LAMB	Farmanimals	4	2	[0, 0, 0]	n/a	catFR1	2	R1383J
267.466	1.6	273417	WORD	n/a	wordpools/wordpool_categorized_EN.txt	VIOLIN	Instruments	5	2	[0, 0, 0]	n/a	catFR1	2	R1383J
269.066	0.8	275018	WORD_OFF	n/a	n/a	VIOLIN	Instruments	5	2	[0, 0, 0]	n/a	catFR1	2	R1383J
269.866	1.6	275810	WORD	n/a	wordpools/wordpool_categorized_EN.txt	TROMBONE	Instruments	6	2	[0, 0, 0]	n/a	catFR1	2	R1383J
271.466	1.0	277411	WORD_OFF	n/a	n/a	TROMBONE	Instruments	6	2	[0, 0, 0]	n/a	catFR1	2	R1383J
272.466	1.616	278421	WORD	n/a	wordpools/wordpool_categorized_EN.txt	HAND	Bodyparts	7	2	[0, 0, 0]	n/a	catFR1	2	R1383J
274.082	0.933	280030	WORD_OFF	n/a	n/a	HAND	Bodyparts	7	2	[0, 0, 0]	n/a	catFR1	2	R1383J
275.015	1.601	280962	WORD	n/a	wordpools/wordpool_categorized_EN.txt	EYE	Bodyparts	8	2	[0, 0, 0]	n/a	catFR1	2	R1383J
276.616	0.95	282563	WORD_OFF	n/a	n/a	EYE	Bodyparts	8	2	[0, 0, 0]	n/a	catFR1	2	R1383J
277.566	1.6	283511	WORD	n/a	wordpools/wordpool_categorized_EN.txt	GOAT	Farmanimals	9	2	[0, 0, 0]	n/a	catFR1	2	R1383J
279.166	0.783	285112	WORD_OFF	n/a	n/a	GOAT	Farmanimals	9	2	[0, 0, 0]	n/a	catFR1	2	R1383J
279.949	1.6	285895	WORD	n/a	wordpools/wordpool_categorized_EN.txt	PIG	Farmanimals	10	2	[0, 0, 0]	n/a	catFR1	2	R1383J
281.549	0.916	287497	WORD_OFF	n/a	n/a	PIG	Farmanimals	10	2	[0, 0, 0]	n/a	catFR1	2	R1383J
282.465	1.601	288410	WORD	n/a	wordpools/wordpool_categorized_EN.txt	ORGAN	Instruments	11	2	[0, 0, 0]	n/a	catFR1	2	R1383J
284.066	0.766	290011	WORD_OFF	n/a	n/a	ORGAN	Instruments	11	2	[0, 0, 0]	n/a	catFR1	2	R1383J
284.832	1.6	290777	WORD	n/a	wordpools/wordpool_categorized_EN.txt	GUITAR	Instruments	12	2	[0, 0, 0]	n/a	catFR1	2	R1383J
286.432	0.001	292378	WORD_OFF	n/a	n/a	GUITAR	Instruments	12	2	[0, 0, 0]	n/a	catFR1	2	R1383J
286.433	0.0	292378	ENCODING_END	n/a	n/a	n/a	n/a	-999	2	[0, 0, 0]	n/a	catFR1	2	R1383J
286.433	0.0	292378	DISTRACT_START	n/a	n/a	n/a	n/a	-999	2	[0, 0, 0]	n/a	catFR1	2	R1383J
286.433	0.0	292381	START	n/a	n/a	n/a	n/a	-999	2	[-999, -999, -999]	n/a	catFR1	2	R1383J
286.433	5.933	292381	PROB	5.933	n/a	n/a	n/a	-999	2	[5, 2, 5]	12	catFR1	2	R1383J
292.366	6.0	298314	PROB	6.0	n/a	n/a	n/a	-999	2	[3, 7, 6]	16	catFR1	2	R1383J
298.366	7.633	304314	PROB	7.633	n/a	n/a	n/a	-999	2	[7, 5, 1]	13	catFR1	2	R1383J
305.999	7.083	311946	PROB	7.083	n/a	n/a	n/a	-999	2	[7, 6, 8]	21	catFR1	2	R1383J
313.082	0.0	319029	STOP	n/a	n/a	n/a	n/a	-999	2	[-999, -999, -999]	n/a	catFR1	2	R1383J
313.082	1.267	319032	DISTRACT_END	n/a	n/a	n/a	n/a	-999	2	[0, 0, 0]	n/a	catFR1	2	R1383J
314.349	5.056	320293	REC_START	n/a	n/a	n/a	n/a	-999	2	[0, 0, 0]	n/a	catFR1	2	R1383J
319.405	1.27	325352	REC_WORD	1.27	n/a	GUITAR	Instruments	12	2	[0, 0, 0]	n/a	catFR1	2	R1383J
320.675	6.597	326622	REC_WORD	6.597	n/a	VIOLIN	Instruments	5	2	[0, 0, 0]	n/a	catFR1	2	R1383J
327.272	0.86	333218	REC_WORD	0.86	n/a	TOE	Bodyparts	1	2	[0, 0, 0]	n/a	catFR1	2	R1383J
328.132	0.897	334078	REC_WORD	0.897	n/a	KNEE	Bodyparts	2	2	[0, 0, 0]	n/a	catFR1	2	R1383J
329.029	1.661	334975	REC_WORD	1.661	n/a	HORSE	Farmanimals	3	2	[0, 0, 0]	n/a	catFR1	2	R1383J
330.69	13.929	336636	REC_WORD	13.929	n/a	PIG	Farmanimals	10	2	[0, 0, 0]	n/a	catFR1	2	R1383J
344.619	1.114	350567	REC_END	n/a	n/a	n/a	n/a	-999	2	[0, 0, 0]	n/a	catFR1	2	R1383J
345.733	10.359	351681	COUNTDOWN_START	n/a	n/a	n/a	n/a	-999	3	[0, 0, 0]	n/a	catFR1	2	R1383J
356.092	0.0	362036	COUNTDOWN_END	n/a	n/a	n/a	n/a	-999	3	[0, 0, 0]	n/a	catFR1	2	R1383J
356.092	1.824	362036	ENCODING_START	n/a	n/a	n/a	n/a	-999	3	[0, 0, 0]	n/a	catFR1	2	R1383J
357.916	1.6	363863	WORD	n/a	wordpools/wordpool_categorized_EN.txt	PEN	Officesupplies	1	3	[0, 0, 0]	n/a	catFR1	2	R1383J
359.516	0.767	365464	WORD_OFF	n/a	n/a	PEN	Officesupplies	1	3	[0, 0, 0]	n/a	catFR1	2	R1383J
360.283	1.6	366230	WORD	n/a	wordpools/wordpool_categorized_EN.txt	RULER	Officesupplies	2	3	[0, 0, 0]	n/a	catFR1	2	R1383J
361.883	0.883	367831	WORD_OFF	n/a	n/a	RULER	Officesupplies	2	3	[0, 0, 0]	n/a	catFR1	2	R1383J
362.766	1.6	368710	WORD	n/a	wordpools/wordpool_categorized_EN.txt	GRATER	Kitchentools	3	3	[0, 0, 0]	n/a	catFR1	2	R1383J
364.366	0.949	370311	WORD_OFF	n/a	n/a	GRATER	Kitchentools	3	3	[0, 0, 0]	n/a	catFR1	2	R1383J
365.315	1.6	371260	WORD	n/a	wordpools/wordpool_categorized_EN.txt	PEELER	Kitchentools	4	3	[0, 0, 0]	n/a	catFR1	2	R1383J
366.915	0.884	372861	WORD_OFF	n/a	n/a	PEELER	Kitchentools	4	3	[0, 0, 0]	n/a	catFR1	2	R1383J
367.799	1.617	373740	WORD	n/a	wordpools/wordpool_categorized_EN.txt	BLENDER	Appliances	5	3	[0, 0, 0]	n/a	catFR1	2	R1383J
369.416	0.8	375358	WORD_OFF	n/a	n/a	BLENDER	Appliances	5	3	[0, 0, 0]	n/a	catFR1	2	R1383J
370.216	1.617	376159	WORD	n/a	wordpools/wordpool_categorized_EN.txt	TOASTER	Appliances	6	3	[0, 0, 0]	n/a	catFR1	2	R1383J
371.833	0.982	377777	WORD_OFF	n/a	n/a	TOASTER	Appliances	6	3	[0, 0, 0]	n/a	catFR1	2	R1383J
372.815	1.6	378760	WORD	n/a	wordpools/wordpool_categorized_EN.txt	TONGS	Kitchentools	7	3	[0, 0, 0]	n/a	catFR1	2	R1383J
374.415	1.0	380362	WORD_OFF	n/a	n/a	TONGS	Kitchentools	7	3	[0, 0, 0]	n/a	catFR1	2	R1383J
375.415	1.601	381362	WORD	n/a	wordpools/wordpool_categorized_EN.txt	FORK	Kitchentools	8	3	[0, 0, 0]	n/a	catFR1	2	R1383J
377.016	0.966	382963	WORD_OFF	n/a	n/a	FORK	Kitchentools	8	3	[0, 0, 0]	n/a	catFR1	2	R1383J
377.982	1.616	383929	WORD	n/a	wordpools/wordpool_categorized_EN.txt	DRYER	Appliances	9	3	[0, 0, 0]	n/a	catFR1	2	R1383J
379.598	0.901	385539	WORD_OFF	n/a	n/a	DRYER	Appliances	9	3	[0, 0, 0]	n/a	catFR1	2	R1383J
380.499	1.6	386444	WORD	n/a	wordpools/wordpool_categorized_EN.txt	IRON	Appliances	10	3	[0, 0, 0]	n/a	catFR1	2	R1383J
382.099	0.833	388045	WORD_OFF	n/a	n/a	IRON	Appliances	10	3	[0, 0, 0]	n/a	catFR1	2	R1383J
382.932	1.616	388872	WORD	n/a	wordpools/wordpool_categorized_EN.txt	TAPE	Officesupplies	11	3	[0, 0, 0]	n/a	catFR1	2	R1383J
384.548	0.968	390490	WORD_OFF	n/a	n/a	TAPE	Officesupplies	11	3	[0, 0, 0]	n/a	catFR1	2	R1383J
385.516	1.616	391456	WORD	n/a	wordpools/wordpool_categorized_EN.txt	STAPLER	Officesupplies	12	3	[0, 0, 0]	n/a	catFR1	2	R1383J
387.132	0.001	393075	WORD_OFF	n/a	n/a	STAPLER	Officesupplies	12	3	[0, 0, 0]	n/a	catFR1	2	R1383J
387.133	0.0	393075	ENCODING_END	n/a	n/a	n/a	n/a	-999	3	[0, 0, 0]	n/a	catFR1	2	R1383J
387.133	0.0	393075	DISTRACT_START	n/a	n/a	n/a	n/a	-999	3	[0, 0, 0]	n/a	catFR1	2	R1383J
387.132	0.001	393076	PROB	0.001	n/a	n/a	n/a	-999	3	[4, 7, 6]	17	catFR1	2	R1383J
387.133	6.015	393077	START	n/a	n/a	n/a	n/a	-999	3	[-999, -999, -999]	n/a	catFR1	2	R1383J
393.148	5.118	399091	PROB	5.118	n/a	n/a	n/a	-999	3	[7, 3, 5]	15	catFR1	2	R1383J
398.266	5.616	404209	PROB	5.616	n/a	n/a	n/a	-999	3	[6, 3, 1]	10	catFR1	2	R1383J
403.882	4.433	409825	PROB	4.433	n/a	n/a	n/a	-999	3	[3, 4, 7]	14	catFR1	2	R1383J
408.315	0.0	414255	DISTRACT_END	n/a	n/a	n/a	n/a	-999	3	[0, 0, 0]	n/a	catFR1	2	R1383J
408.315	1.033	414258	STOP	n/a	n/a	n/a	n/a	-999	3	[-999, -999, -999]	n/a	catFR1	2	R1383J
409.348	5.202	415290	REC_START	n/a	n/a	n/a	n/a	-999	3	[0, 0, 0]	n/a	catFR1	2	R1383J
414.55	1.214	420493	REC_WORD	1.214	n/a	TONGS	Kitchentools	7	3	[0, 0, 0]	n/a	catFR1	2	R1383J
415.764	0.885	421706	REC_WORD	0.885	n/a	BLENDER	Appliances	5	3	[0, 0, 0]	n/a	catFR1	2	R1383J
416.649	4.027	422591	REC_WORD	4.027	n/a	GRATER	Kitchentools	3	3	[0, 0, 0]	n/a	catFR1	2	R1383J
420.676	1.028	426618	REC_WORD	1.028	n/a	DRYER	Appliances	9	3	[0, 0, 0]	n/a	catFR1	2	R1383J
421.704	17.873	427646	REC_WORD_VV	17.873	n/a	<>	n/a	-999	3	[0, 0, 0]	n/a	catFR1	2	R1383J
439.577	3.039	445520	REC_END	n/a	n/a	n/a	n/a	-999	3	[0, 0, 0]	n/a	catFR1	2	R1383J
442.616	10.36	448557	COUNTDOWN_START	n/a	n/a	n/a	n/a	-999	4	[0, 0, 0]	n/a	catFR1	2	R1383J
452.976	0.0	458912	COUNTDOWN_END	n/a	n/a	n/a	n/a	-999	4	[0, 0, 0]	n/a	catFR1	2	R1383J
452.976	1.924	458921	ENCODING_START	n/a	n/a	n/a	n/a	-999	4	[0, 0, 0]	n/a	catFR1	2	R1383J
454.9	1.599	460844	WORD	n/a	wordpools/wordpool_categorized_EN.txt	RIVER	Landscapes	1	4	[0, 0, 0]	n/a	catFR1	2	R1383J
456.499	1.0	462437	WORD_OFF	n/a	n/a	RIVER	Landscapes	1	4	[0, 0, 0]	n/a	catFR1	2	R1383J
457.499	1.6	463437	WORD	n/a	wordpools/wordpool_categorized_EN.txt	VALLEY	Landscapes	2	4	[0, 0, 0]	n/a	catFR1	2	R1383J
459.099	0.817	465038	WORD_OFF	n/a	n/a	VALLEY	Landscapes	2	4	[0, 0, 0]	n/a	catFR1	2	R1383J
459.916	1.6	465856	WORD	n/a	wordpools/wordpool_categorized_EN.txt	LADYBUG	Insects	3	4	[0, 0, 0]	n/a	catFR1	2	R1383J
461.516	0.783	467457	WORD_OFF	n/a	n/a	LADYBUG	Insects	3	4	[0, 0, 0]	n/a	catFR1	2	R1383J
462.299	1.601	468241	WORD	n/a	wordpools/wordpool_categorized_EN.txt	FLY	Insects	4	4	[0, 0, 0]	n/a	catFR1	2	R1383J
463.9	0.849	469842	WORD_OFF	n/a	n/a	FLY	Insects	4	4	[0, 0, 0]	n/a	catFR1	2	R1383J
464.749	1.617	470686	WORD	n/a	wordpools/wordpool_categorized_EN.txt	TURKEY	Farmanimals	5	4	[0, 0, 0]	n/a	catFR1	2	R1383J
466.366	0.833	472304	WORD_OFF	n/a	n/a	TURKEY	Farmanimals	5	4	[0, 0, 0]	n/a	catFR1	2	R1383J
467.199	1.6	473140	WORD	n/a	wordpools/wordpool_categorized_EN.txt	CALF	Farmanimals	6	4	[0, 0, 0]	n/a	catFR1	2	R1383J
468.799	0.8	474741	WORD_OFF	n/a	n/a	CALF	Farmanimals	6	4	[0, 0, 0]	n/a	catFR1	2	R1383J
469.599	1.616	475541	WORD	n/a	wordpools/wordpool_categorized_EN.txt	SPIDER	Insects	7	4	[0, 0, 0]	n/a	catFR1	2	R1383J
471.215	0.801	477151	WORD_OFF	n/a	n/a	SPIDER	Insects	7	4	[0, 0, 0]	n/a	catFR1	2	R1383J
472.016	1.6	477952	WORD	n/a	wordpools/wordpool_categorized_EN.txt	MOTH	Insects	8	4	[0, 0, 0]	n/a	catFR1	2	R1383J
473.616	0.983	479553	WORD_OFF	n/a	n/a	MOTH	Insects	8	4	[0, 0, 0]	n/a	catFR1	2	R1383J
474.599	1.616	480536	WORD	n/a	wordpools/wordpool_categorized_EN.txt	MOUNTAIN	Landscapes	9	4	[0, 0, 0]	n/a	catFR1	2	R1383J
476.215	0.884	482155	WORD_OFF	n/a	n/a	MOUNTAIN	Landscapes	9	4	[0, 0, 0]	n/a	catFR1	2	R1383J
477.099	1.616	483042	WORD	n/a	wordpools/wordpool_categorized_EN.txt	OCEAN	Landscapes	10	4	[0, 0, 0]	n/a	catFR1	2	R1383J
478.715	0.833	484652	WORD_OFF	n/a	n/a	OCEAN	Landscapes	10	4	[0, 0, 0]	n/a	catFR1	2	R1383J
479.548	1.6	485487	WORD	n/a	wordpools/wordpool_categorized_EN.txt	COW	Farmanimals	11	4	[0, 0, 0]	n/a	catFR1	2	R1383J
481.148	0.834	487097	WORD_OFF	n/a	n/a	COW	Farmanimals	11	4	[0, 0, 0]	n/a	catFR1	2	R1383J
481.982	1.601	487924	WORD	n/a	wordpools/wordpool_categorized_EN.txt	HEN	Farmanimals	12	4	[0, 0, 0]	n/a	catFR1	2	R1383J
483.583	0.0	489523	START	n/a	n/a	n/a	n/a	-999	4	[-999, -999, -999]	n/a	catFR1	2	R1383J
483.583	0.0	489523	PROB	0.0	n/a	n/a	n/a	-999	4	[4, 7, 1]	12	catFR1	2	R1383J
483.582	0.001	489525	WORD_OFF	n/a	n/a	HEN	Farmanimals	12	4	[0, 0, 0]	n/a	catFR1	2	R1383J
483.583	0.0	489525	ENCODING_END	n/a	n/a	n/a	n/a	-999	4	[0, 0, 0]	n/a	catFR1	2	R1383J
483.583	5.8	489525	DISTRACT_START	n/a	n/a	n/a	n/a	-999	4	[0, 0, 0]	n/a	catFR1	2	R1383J
489.383	4.333	495322	PROB	4.333	n/a	n/a	n/a	-999	4	[5, 4, 4]	13	catFR1	2	R1383J
493.716	4.833	499655	PROB	4.833	n/a	n/a	n/a	-999	4	[8, 2, 4]	14	catFR1	2	R1383J
498.549	7.3	504488	PROB	7.3	n/a	n/a	n/a	-999	4	[1, 4, 5]	10	catFR1	2	R1383J
505.849	0.0	511784	DISTRACT_END	n/a	n/a	n/a	n/a	-999	4	[0, 0, 0]	n/a	catFR1	2	R1383J
505.849	1.166	511788	STOP	n/a	n/a	n/a	n/a	-999	4	[-999, -999, -999]	n/a	catFR1	2	R1383J
507.015	3.978	512950	REC_START	n/a	n/a	n/a	n/a	-999	4	[0, 0, 0]	n/a	catFR1	2	R1383J
510.993	1.745	516931	REC_WORD	1.745	n/a	RIVER	Landscapes	1	4	[0, 0, 0]	n/a	catFR1	2	R1383J
512.738	24.504	518676	REC_WORD	24.504	n/a	CALF	Farmanimals	6	4	[0, 0, 0]	n/a	catFR1	2	R1383J
537.242	3.858	543180	REC_END	n/a	n/a	n/a	n/a	-999	4	[0, 0, 0]	n/a	catFR1	2	R1383J
541.1	10.36	547035	COUNTDOWN_START	n/a	n/a	n/a	n/a	-999	5	[0, 0, 0]	n/a	catFR1	2	R1383J
551.46	0.0	557399	COUNTDOWN_END	n/a	n/a	n/a	n/a	-999	5	[0, 0, 0]	n/a	catFR1	2	R1383J
551.46	2.157	557399	ENCODING_START	n/a	n/a	n/a	n/a	-999	5	[0, 0, 0]	n/a	catFR1	2	R1383J
553.617	1.616	559557	WORD	n/a	wordpools/wordpool_categorized_EN.txt	MARBLES	Toys	1	5	[0, 0, 0]	n/a	catFR1	2	R1383J
555.233	0.866	561167	WORD_OFF	n/a	n/a	MARBLES	Toys	1	5	[0, 0, 0]	n/a	catFR1	2	R1383J
556.099	1.6	562037	WORD	n/a	wordpools/wordpool_categorized_EN.txt	BASKETBALL	Toys	2	5	[0, 0, 0]	n/a	catFR1	2	R1383J
557.699	0.95	563638	WORD_OFF	n/a	n/a	BASKETBALL	Toys	2	5	[0, 0, 0]	n/a	catFR1	2	R1383J
558.649	1.617	564586	WORD	n/a	wordpools/wordpool_categorized_EN.txt	FUDGE	Desserts	3	5	[0, 0, 0]	n/a	catFR1	2	R1383J
560.266	0.883	566205	WORD_OFF	n/a	n/a	FUDGE	Desserts	3	5	[0, 0, 0]	n/a	catFR1	2	R1383J
561.149	1.616	567084	WORD	n/a	wordpools/wordpool_categorized_EN.txt	CAKE	Desserts	4	5	[0, 0, 0]	n/a	catFR1	2	R1383J
562.765	0.818	568702	WORD_OFF	n/a	n/a	CAKE	Desserts	4	5	[0, 0, 0]	n/a	catFR1	2	R1383J
563.583	1.615	569520	WORD	n/a	wordpools/wordpool_categorized_EN.txt	FINCH	Birds	5	5	[0, 0, 0]	n/a	catFR1	2	R1383J
565.198	0.884	571130	WORD_OFF	n/a	n/a	FINCH	Birds	5	5	[0, 0, 0]	n/a	catFR1	2	R1383J
566.082	1.6	572018	WORD	n/a	wordpools/wordpool_categorized_EN.txt	SEAGULL	Birds	6	5	[0, 0, 0]	n/a	catFR1	2	R1383J
567.682	0.866	573619	WORD_OFF	n/a	n/a	SEAGULL	Birds	6	5	[0, 0, 0]	n/a	catFR1	2	R1383J
568.548	1.6	574480	WORD	n/a	wordpools/wordpool_categorized_EN.txt	BLOCKS	Toys	7	5	[0, 0, 0]	n/a	catFR1	2	R1383J
570.148	0.835	576081	WORD_OFF	n/a	n/a	BLOCKS	Toys	7	5	[0, 0, 0]	n/a	catFR1	2	R1383J
570.983	1.6	576917	WORD	n/a	wordpools/wordpool_categorized_EN.txt	PUZZLE	Toys	8	5	[0, 0, 0]	n/a	catFR1	2	R1383J
572.583	0.799	578518	WORD_OFF	n/a	n/a	PUZZLE	Toys	8	5	[0, 0, 0]	n/a	catFR1	2	R1383J
573.382	1.601	579318	WORD	n/a	wordpools/wordpool_categorized_EN.txt	PUDDING	Desserts	9	5	[0, 0, 0]	n/a	catFR1	2	R1383J
574.983	0.833	580920	WORD_OFF	n/a	n/a	PUDDING	Desserts	9	5	[0, 0, 0]	n/a	catFR1	2	R1383J
575.816	1.617	581755	WORD	n/a	wordpools/wordpool_categorized_EN.txt	CHEESECAKE	Desserts	10	5	[0, 0, 0]	n/a	catFR1	2	R1383J
577.433	0.849	583365	WORD_OFF	n/a	n/a	CHEESECAKE	Desserts	10	5	[0, 0, 0]	n/a	catFR1	2	R1383J
578.282	1.601	584218	WORD	n/a	wordpools/wordpool_categorized_EN.txt	DOVE	Birds	11	5	[0, 0, 0]	n/a	catFR1	2	R1383J
579.883	0.965	585819	WORD_OFF	n/a	n/a	DOVE	Birds	11	5	[0, 0, 0]	n/a	catFR1	2	R1383J
580.848	1.602	586785	WORD	n/a	wordpools/wordpool_categorized_EN.txt	SPARROW	Birds	12	5	[0, 0, 0]	n/a	catFR1	2	R1383J
582.45	0.0	588385	PROB	0.0	n/a	n/a	n/a	-999	5	[1, 5, 3]	9	catFR1	2	R1383J
582.449	0.002	588386	WORD_OFF	n/a	n/a	SPARROW	Birds	12	5	[0, 0, 0]	n/a	catFR1	2	R1383J
582.451	0.0	588386	ENCODING_END	n/a	n/a	n/a	n/a	-999	5	[0, 0, 0]	n/a	catFR1	2	R1383J
582.451	0.0	588386	DISTRACT_START	n/a	n/a	n/a	n/a	-999	5	[0, 0, 0]	n/a	catFR1	2	R1383J
582.451	3.865	588386	START	n/a	n/a	n/a	n/a	-999	5	[-999, -999, -999]	n/a	catFR1	2	R1383J
586.316	6.466	592251	PROB	6.466	n/a	n/a	n/a	-999	5	[5, 2, 8]	15	catFR1	2	R1383J
592.782	5.367	598717	PROB	5.367	n/a	n/a	n/a	-999	5	[4, 3, 7]	14	catFR1	2	R1383J
598.149	5.049	604084	PROB	5.049	n/a	n/a	n/a	-999	5	[2, 7, 1]	10	catFR1	2	R1383J
603.198	0.0	609131	DISTRACT_END	n/a	n/a	n/a	n/a	-999	5	[0, 0, 0]	n/a	catFR1	2	R1383J
603.198	1.134	609132	STOP	n/a	n/a	n/a	n/a	-999	5	[-999, -999, -999]	n/a	catFR1	2	R1383J
604.332	2.838	610262	REC_START	n/a	n/a	n/a	n/a	-999	5	[0, 0, 0]	n/a	catFR1	2	R1383J
607.17	1.148	613104	REC_WORD	1.148	n/a	FINCH	Birds	5	5	[0, 0, 0]	n/a	catFR1	2	R1383J
608.318	26.249	614252	REC_WORD	26.249	n/a	SEAGULL	Birds	6	5	[0, 0, 0]	n/a	catFR1	2	R1383J
634.567	1.899	640500	REC_END	n/a	n/a	n/a	n/a	-999	5	[0, 0, 0]	n/a	catFR1	2	R1383J
636.466	10.36	642397	COUNTDOWN_START	n/a	n/a	n/a	n/a	-999	6	[0, 0, 0]	n/a	catFR1	2	R1383J
646.826	0.0	652761	COUNTDOWN_END	n/a	n/a	n/a	n/a	-999	6	[0, 0, 0]	n/a	catFR1	2	R1383J
646.826	1.873	652761	ENCODING_START	n/a	n/a	n/a	n/a	-999	6	[0, 0, 0]	n/a	catFR1	2	R1383J
648.699	1.6	654632	WORD	n/a	wordpools/wordpool_categorized_EN.txt	ROSE	Flowers	1	6	[0, 0, 0]	n/a	catFR1	2	R1383J
650.299	1.0	656233	WORD_OFF	n/a	n/a	ROSE	Flowers	1	6	[0, 0, 0]	n/a	catFR1	2	R1383J
651.299	1.6	657234	WORD	n/a	wordpools/wordpool_categorized_EN.txt	CARNATION	Flowers	2	6	[0, 0, 0]	n/a	catFR1	2	R1383J
652.899	0.917	658835	WORD_OFF	n/a	n/a	CARNATION	Flowers	2	6	[0, 0, 0]	n/a	catFR1	2	R1383J
653.816	1.6	659749	WORD	n/a	wordpools/wordpool_categorized_EN.txt	TEA	Beverages	3	6	[0, 0, 0]	n/a	catFR1	2	R1383J
655.416	0.9	661350	WORD_OFF	n/a	n/a	TEA	Beverages	3	6	[0, 0, 0]	n/a	catFR1	2	R1383J
656.316	1.616	662246	WORD	n/a	wordpools/wordpool_categorized_EN.txt	COFFEE	Beverages	4	6	[0, 0, 0]	n/a	catFR1	2	R1383J
657.932	0.918	663865	WORD_OFF	n/a	n/a	COFFEE	Beverages	4	6	[0, 0, 0]	n/a	catFR1	2	R1383J
658.85	1.599	664778	WORD	n/a	wordpools/wordpool_categorized_EN.txt	FISH	Oceananimals	5	6	[0, 0, 0]	n/a	catFR1	2	R1383J
660.449	0.917	666379	WORD_OFF	n/a	n/a	FISH	Oceananimals	5	6	[0, 0, 0]	n/a	catFR1	2	R1383J
661.366	1.616	667302	WORD	n/a	wordpools/wordpool_categorized_EN.txt	SQUID	Oceananimals	6	6	[0, 0, 0]	n/a	catFR1	2	R1383J
662.982	0.916	668912	WORD_OFF	n/a	n/a	SQUID	Oceananimals	6	6	[0, 0, 0]	n/a	catFR1	2	R1383J
663.898	1.601	669834	WORD	n/a	wordpools/wordpool_categorized_EN.txt	MILK	Beverages	7	6	[0, 0, 0]	n/a	catFR1	2	R1383J
665.499	0.884	671435	WORD_OFF	n/a	n/a	MILK	Beverages	7	6	[0, 0, 0]	n/a	catFR1	2	R1383J
666.383	1.6	672314	WORD	n/a	wordpools/wordpool_categorized_EN.txt	LEMONADE	Beverages	8	6	[0, 0, 0]	n/a	catFR1	2	R1383J
667.983	0.833	673915	WORD_OFF	n/a	n/a	LEMONADE	Beverages	8	6	[0, 0, 0]	n/a	catFR1	2	R1383J
668.816	1.6	674750	WORD	n/a	wordpools/wordpool_categorized_EN.txt	WHALE	Oceananimals	9	6	[0, 0, 0]	n/a	catFR1	2	R1383J
670.416	0.783	676352	WORD_OFF	n/a	n/a	WHALE	Oceananimals	9	6	[0, 0, 0]	n/a	catFR1	2	R1383J
671.199	1.616	677127	WORD	n/a	wordpools/wordpool_categorized_EN.txt	DOLPHIN	Oceananimals	10	6	[0, 0, 0]	n/a	catFR1	2	R1383J
672.815	1.001	678745	WORD_OFF	n/a	n/a	DOLPHIN	Oceananimals	10	6	[0, 0, 0]	n/a	catFR1	2	R1383J
673.816	1.617	679745	WORD	n/a	wordpools/wordpool_categorized_EN.txt	LILY	Flowers	11	6	[0, 0, 0]	n/a	catFR1	2	R1383J
675.433	0.899	681364	WORD_OFF	n/a	n/a	LILY	Flowers	11	6	[0, 0, 0]	n/a	catFR1	2	R1383J
676.332	1.601	682260	WORD	n/a	wordpools/wordpool_categorized_EN.txt	SUNFLOWER	Flowers	12	6	[0, 0, 0]	n/a	catFR1	2	R1383J
677.933	0.001	683861	WORD_OFF	n/a	n/a	SUNFLOWER	Flowers	12	6	[0, 0, 0]	n/a	catFR1	2	R1383J
677.934	0.0	683861	ENCODING_END	n/a	n/a	n/a	n/a	-999	6	[0, 0, 0]	n/a	catFR1	2	R1383J
677.933	0.001	683864	PROB	0.001	n/a	n/a	n/a	-999	6	[4, 1, 1]	6	catFR1	2	R1383J
677.934	0.0	683865	START	n/a	n/a	n/a	n/a	-999	6	[-999, -999, -999]	n/a	catFR1	2	R1383J
677.934	4.482	683870	DISTRACT_START	n/a	n/a	n/a	n/a	-999	6	[0, 0, 0]	n/a	catFR1	2	R1383J
682.416	4.683	688347	PROB	4.683	n/a	n/a	n/a	-999	6	[4, 5, 8]	17	catFR1	2	R1383J
687.099	5.801	693030	PROB	5.801	n/a	n/a	n/a	-999	6	[8, 6, 5]	19	catFR1	2	R1383J
692.9	4.916	698831	PROB	4.916	n/a	n/a	n/a	-999	6	[2, 7, 8]	17	catFR1	2	R1383J
697.816	4.849	703746	PROB	4.849	n/a	n/a	n/a	-999	6	[1, 8, 5]	14	catFR1	2	R1383J
702.665	0.0	708592	DISTRACT_END	n/a	n/a	n/a	n/a	-999	6	[0, 0, 0]	n/a	catFR1	2	R1383J
702.665	1.133	708595	STOP	n/a	n/a	n/a	n/a	-999	6	[-999, -999, -999]	n/a	catFR1	2	R1383J
703.798	4.287	709732	REC_START	n/a	n/a	n/a	n/a	-999	6	[0, 0, 0]	n/a	catFR1	2	R1383J
708.085	1.097	714015	REC_WORD	1.097	n/a	DOLPHIN	Oceananimals	10	6	[0, 0, 0]	n/a	catFR1	2	R1383J
709.182	1.063	715112	REC_WORD	1.063	n/a	WHALE	Oceananimals	9	6	[0, 0, 0]	n/a	catFR1	2	R1383J
710.245	1.603	716175	REC_WORD	1.603	n/a	FISH	Oceananimals	5	6	[0, 0, 0]	n/a	catFR1	2	R1383J
711.848	1.606	717778	REC_WORD	1.606	n/a	SQUID	Oceananimals	6	6	[0, 0, 0]	n/a	catFR1	2	R1383J
713.454	1.171	719384	REC_WORD	1.171	n/a	ROSE	Flowers	1	6	[0, 0, 0]	n/a	catFR1	2	R1383J
714.625	2.277	720555	REC_WORD	2.277	n/a	SUNFLOWER	Flowers	12	6	[0, 0, 0]	n/a	catFR1	2	R1383J
716.902	17.136	722832	REC_WORD	17.136	n/a	TEA	Beverages	3	6	[0, 0, 0]	n/a	catFR1	2	R1383J
734.038	2.795	739970	REC_END	n/a	n/a	n/a	n/a	-999	6	[0, 0, 0]	n/a	catFR1	2	R1383J
736.833	10.361	742763	COUNTDOWN_START	n/a	n/a	n/a	n/a	-999	7	[0, 0, 0]	n/a	catFR1	2	R1383J
747.194	0.0	753118	COUNTDOWN_END	n/a	n/a	n/a	n/a	-999	7	[0, 0, 0]	n/a	catFR1	2	R1383J
747.194	1.938	753127	ENCODING_START	n/a	n/a	n/a	n/a	-999	7	[0, 0, 0]	n/a	catFR1	2	R1383J
749.132	1.601	755059	WORD	n/a	wordpools/wordpool_categorized_EN.txt	GRAPE	Fruit	1	7	[0, 0, 0]	n/a	catFR1	2	R1383J
750.733	1.0	756660	WORD_OFF	n/a	n/a	GRAPE	Fruit	1	7	[0, 0, 0]	n/a	catFR1	2	R1383J
751.733	1.616	757661	WORD	n/a	wordpools/wordpool_categorized_EN.txt	APPLE	Fruit	2	7	[0, 0, 0]	n/a	catFR1	2	R1383J
753.349	0.817	759279	WORD_OFF	n/a	n/a	APPLE	Fruit	2	7	[0, 0, 0]	n/a	catFR1	2	R1383J
754.166	1.617	760097	WORD	n/a	wordpools/wordpool_categorized_EN.txt	PANTS	Clothing	3	7	[0, 0, 0]	n/a	catFR1	2	R1383J
755.783	0.801	761707	WORD_OFF	n/a	n/a	PANTS	Clothing	3	7	[0, 0, 0]	n/a	catFR1	2	R1383J
756.584	1.599	762516	WORD	n/a	wordpools/wordpool_categorized_EN.txt	COAT	Clothing	4	7	[0, 0, 0]	n/a	catFR1	2	R1383J
758.183	0.883	764109	WORD_OFF	n/a	n/a	COAT	Clothing	4	7	[0, 0, 0]	n/a	catFR1	2	R1383J
759.066	1.6	764996	WORD	n/a	wordpools/wordpool_categorized_EN.txt	ELEPHANT	Zoo	5	7	[0, 0, 0]	n/a	catFR1	2	R1383J
760.666	0.883	766597	WORD_OFF	n/a	n/a	ELEPHANT	Zoo	5	7	[0, 0, 0]	n/a	catFR1	2	R1383J
761.549	1.6	767476	WORD	n/a	wordpools/wordpool_categorized_EN.txt	CHIMPANZEE	Zoo	6	7	[0, 0, 0]	n/a	catFR1	2	R1383J
763.149	0.933	769077	WORD_OFF	n/a	n/a	CHIMPANZEE	Zoo	6	7	[0, 0, 0]	n/a	catFR1	2	R1383J
764.082	1.601	770009	WORD	n/a	wordpools/wordpool_categorized_EN.txt	BLOUSE	Clothing	7	7	[0, 0, 0]	n/a	catFR1	2	R1383J
765.683	0.966	771610	WORD_OFF	n/a	n/a	BLOUSE	Clothing	7	7	[0, 0, 0]	n/a	catFR1	2	R1383J
766.649	1.6	772576	WORD	n/a	wordpools/wordpool_categorized_EN.txt	JACKET	Clothing	8	7	[0, 0, 0]	n/a	catFR1	2	R1383J
768.249	0.967	774177	WORD_OFF	n/a	n/a	JACKET	Clothing	8	7	[0, 0, 0]	n/a	catFR1	2	R1383J
769.216	1.6	775143	WORD	n/a	wordpools/wordpool_categorized_EN.txt	MONKEY	Zoo	9	7	[0, 0, 0]	n/a	catFR1	2	R1383J
770.816	1.0	776744	WORD_OFF	n/a	n/a	MONKEY	Zoo	9	7	[0, 0, 0]	n/a	catFR1	2	R1383J
771.816	1.6	777744	WORD	n/a	wordpools/wordpool_categorized_EN.txt	GIRAFFE	Zoo	10	7	[0, 0, 0]	n/a	catFR1	2	R1383J
773.416	0.867	779346	WORD_OFF	n/a	n/a	GIRAFFE	Zoo	10	7	[0, 0, 0]	n/a	catFR1	2	R1383J
774.283	1.616	780207	WORD	n/a	wordpools/wordpool_categorized_EN.txt	CHERRY	Fruit	11	7	[0, 0, 0]	n/a	catFR1	2	R1383J
775.899	0.967	781826	WORD_OFF	n/a	n/a	CHERRY	Fruit	11	7	[0, 0, 0]	n/a	catFR1	2	R1383J
776.866	1.616	782791	WORD	n/a	wordpools/wordpool_categorized_EN.txt	PLUM	Fruit	12	7	[0, 0, 0]	n/a	catFR1	2	R1383J
778.482	0.002	784410	WORD_OFF	n/a	n/a	PLUM	Fruit	12	7	[0, 0, 0]	n/a	catFR1	2	R1383J
778.484	0.0	784410	ENCODING_END	n/a	n/a	n/a	n/a	-999	7	[0, 0, 0]	n/a	catFR1	2	R1383J
778.484	0.0	784410	DISTRACT_START	n/a	n/a	n/a	n/a	-999	7	[0, 0, 0]	n/a	catFR1	2	R1383J
778.483	0.001	784410	PROB	0.001	n/a	n/a	n/a	-999	7	[3, 5, 2]	10	catFR1	2	R1383J
778.484	5.698	784411	START	n/a	n/a	n/a	n/a	-999	7	[-999, -999, -999]	n/a	catFR1	2	R1383J
784.182	4.734	790109	PROB	4.734	n/a	n/a	n/a	-999	7	[5, 6, 8]	19	catFR1	2	R1383J
788.916	4.967	794843	PROB	4.967	n/a	n/a	n/a	-999	7	[7, 3, 7]	17	catFR1	2	R1383J
793.883	4.567	799809	PROB	4.567	n/a	n/a	n/a	-999	7	[1, 3, 7]	11	catFR1	2	R1383J
798.45	4.349	804376	PROB	4.349	n/a	n/a	n/a	-999	7	[1, 1, 2]	4	catFR1	2	R1383J
802.799	0.0	808723	DISTRACT_END	n/a	n/a	n/a	n/a	-999	7	[0, 0, 0]	n/a	catFR1	2	R1383J
802.799	1.067	808725	STOP	n/a	n/a	n/a	n/a	-999	7	[-999, -999, -999]	n/a	catFR1	2	R1383J
803.866	4.686	809793	REC_START	n/a	n/a	n/a	n/a	-999	7	[0, 0, 0]	n/a	catFR1	2	R1383J
808.552	1.593	814478	REC_WORD	1.593	n/a	CHIMPANZEE	Zoo	6	7	[0, 0, 0]	n/a	catFR1	2	R1383J
810.145	1.038	816071	REC_WORD	1.038	n/a	GIRAFFE	Zoo	10	7	[0, 0, 0]	n/a	catFR1	2	R1383J
811.183	1.705	817109	REC_WORD	1.705	n/a	ELEPHANT	Zoo	5	7	[0, 0, 0]	n/a	catFR1	2	R1383J
812.888	1.492	818813	REC_WORD	1.492	n/a	PANTS	Clothing	3	7	[0, 0, 0]	n/a	catFR1	2	R1383J
814.38	19.748	820305	REC_WORD	19.748	n/a	BLOUSE	Clothing	7	7	[0, 0, 0]	n/a	catFR1	2	R1383J
834.128	2.288	840049	REC_END	n/a	n/a	n/a	n/a	-999	7	[0, 0, 0]	n/a	catFR1	2	R1383J
836.416	10.366	842346	COUNTDOWN_START	n/a	n/a	n/a	n/a	-999	8	[0, 0, 0]	n/a	catFR1	2	R1383J
846.782	0.0	852710	COUNTDOWN_END	n/a	n/a	n/a	n/a	-999	8	[0, 0, 0]	n/a	catFR1	2	R1383J
846.782	2.284	852710	ENCODING_START	n/a	n/a	n/a	n/a	-999	8	[0, 0, 0]	n/a	catFR1	2	R1383J
849.066	1.617	854990	WORD	n/a	wordpools/wordpool_categorized_EN.txt	BIKE	Vehicles	1	8	[0, 0, 0]	n/a	catFR1	2	R1383J
850.683	0.899	856608	WORD_OFF	n/a	n/a	BIKE	Vehicles	1	8	[0, 0, 0]	n/a	catFR1	2	R1383J
851.582	1.617	857505	WORD	n/a	wordpools/wordpool_categorized_EN.txt	TRAIN	Vehicles	2	8	[0, 0, 0]	n/a	catFR1	2	R1383J
853.199	0.867	859123	WORD_OFF	n/a	n/a	TRAIN	Vehicles	2	8	[0, 0, 0]	n/a	catFR1	2	R1383J
854.066	1.6	859993	WORD	n/a	wordpools/wordpool_categorized_EN.txt	COLANDER	Kitchentools	3	8	[0, 0, 0]	n/a	catFR1	2	R1383J
855.666	0.982	861594	WORD_OFF	n/a	n/a	COLANDER	Kitchentools	3	8	[0, 0, 0]	n/a	catFR1	2	R1383J
856.648	1.601	862569	WORD	n/a	wordpools/wordpool_categorized_EN.txt	STRAINER	Kitchentools	4	8	[0, 0, 0]	n/a	catFR1	2	R1383J
858.249	0.867	864170	WORD_OFF	n/a	n/a	STRAINER	Kitchentools	4	8	[0, 0, 0]	n/a	catFR1	2	R1383J
859.116	1.617	865040	WORD	n/a	wordpools/wordpool_categorized_EN.txt	PEAR	Fruit	5	8	[0, 0, 0]	n/a	catFR1	2	R1383J
860.733	0.8	866659	WORD_OFF	n/a	n/a	PEAR	Fruit	5	8	[0, 0, 0]	n/a	catFR1	2	R1383J
861.533	1.616	867459	WORD	n/a	wordpools/wordpool_categorized_EN.txt	STRAWBERRY	Fruit	6	8	[0, 0, 0]	n/a	catFR1	2	R1383J
863.149	0.933	869069	WORD_OFF	n/a	n/a	STRAWBERRY	Fruit	6	8	[0, 0, 0]	n/a	catFR1	2	R1383J
864.082	1.601	870009	WORD	n/a	wordpools/wordpool_categorized_EN.txt	CORKSCREW	Kitchentools	7	8	[0, 0, 0]	n/a	catFR1	2	R1383J
865.683	0.916	871610	WORD_OFF	n/a	n/a	CORKSCREW	Kitchentools	7	8	[0, 0, 0]	n/a	catFR1	2	R1383J
866.599	1.617	872524	WORD	n/a	wordpools/wordpool_categorized_EN.txt	SPOON	Kitchentools	8	8	[0, 0, 0]	n/a	catFR1	2	R1383J
868.216	0.916	874142	WORD_OFF	n/a	n/a	SPOON	Kitchentools	8	8	[0, 0, 0]	n/a	catFR1	2	R1383J
869.132	1.601	875056	WORD	n/a	wordpools/wordpool_categorized_EN.txt	PLANE	Vehicles	9	8	[0, 0, 0]	n/a	catFR1	2	R1383J
870.733	1.0	876657	WORD_OFF	n/a	n/a	PLANE	Vehicles	9	8	[0, 0, 0]	n/a	catFR1	2	R1383J
871.733	1.6	877658	WORD	n/a	wordpools/wordpool_categorized_EN.txt	VAN	Vehicles	10	8	[0, 0, 0]	n/a	catFR1	2	R1383J
873.333	0.966	879259	WORD_OFF	n/a	n/a	VAN	Vehicles	10	8	[0, 0, 0]	n/a	catFR1	2	R1383J
874.299	1.6	880225	WORD	n/a	wordpools/wordpool_categorized_EN.txt	LEMON	Fruit	11	8	[0, 0, 0]	n/a	catFR1	2	R1383J
875.899	0.984	881826	WORD_OFF	n/a	n/a	LEMON	Fruit	11	8	[0, 0, 0]	n/a	catFR1	2	R1383J
876.883	1.599	882809	WORD	n/a	wordpools/wordpool_categorized_EN.txt	BANANA	Fruit	12	8	[0, 0, 0]	n/a	catFR1	2	R1383J
878.482	0.001	884402	WORD_OFF	n/a	n/a	BANANA	Fruit	12	8	[0, 0, 0]	n/a	catFR1	2	R1383J
878.483	0.0	884406	PROB	0.0	n/a	n/a	n/a	-999	8	[4, 5, 5]	14	catFR1	2	R1383J
878.483	0.0	884406	START	n/a	n/a	n/a	n/a	-999	8	[-999, -999, -999]	n/a	catFR1	2	R1383J
878.483	0.0	884410	ENCODING_END	n/a	n/a	n/a	n/a	-999	8	[0, 0, 0]	n/a	catFR1	2	R1383J
878.483	6.967	884410	DISTRACT_START	n/a	n/a	n/a	n/a	-999	8	[0, 0, 0]	n/a	catFR1	2	R1383J
885.45	6.583	891372	PROB	6.583	n/a	n/a	n/a	-999	8	[8, 5, 6]	19	catFR1	2	R1383J
892.033	6.05	897955	PROB	6.05	n/a	n/a	n/a	-999	8	[6, 7, 2]	15	catFR1	2	R1383J
898.083	6.915	904005	PROB	6.915	n/a	n/a	n/a	-999	8	[5, 7, 6]	18	catFR1	2	R1383J
904.998	0.0	910920	STOP	n/a	n/a	n/a	n/a	-999	8	[-999, -999, -999]	n/a	catFR1	2	R1383J
904.998	1.15	910925	DISTRACT_END	n/a	n/a	n/a	n/a	-999	8	[0, 0, 0]	n/a	catFR1	2	R1383J
906.148	5.763	912073	REC_START	n/a	n/a	n/a	n/a	-999	8	[0, 0, 0]	n/a	catFR1	2	R1383J
911.911	1.178	917832	REC_WORD	1.178	n/a	GRAPE	Fruit	-999	8	[0, 0, 0]	n/a	catFR1	2	R1383J
913.089	23.306	919010	REC_WORD	23.306	n/a	LEMON	Fruit	11	8	[0, 0, 0]	n/a	catFR1	2	R1383J
936.395	2.654	942312	REC_END	n/a	n/a	n/a	n/a	-999	8	[0, 0, 0]	n/a	catFR1	2	R1383J
939.049	10.361	944975	COUNTDOWN_START	n/a	n/a	n/a	n/a	-999	9	[0, 0, 0]	n/a	catFR1	2	R1383J
949.41	0.0	955330	COUNTDOWN_END	n/a	n/a	n/a	n/a	-999	9	[0, 0, 0]	n/a	catFR1	2	R1383J
949.41	2.206	955330	ENCODING_START	n/a	n/a	n/a	n/a	-999	9	[0, 0, 0]	n/a	catFR1	2	R1383J
951.616	1.616	957540	WORD	n/a	wordpools/wordpool_categorized_EN.txt	SHEEP	Farmanimals	1	9	[0, 0, 0]	n/a	catFR1	2	R1383J
953.232	0.867	959150	WORD_OFF	n/a	n/a	SHEEP	Farmanimals	1	9	[0, 0, 0]	n/a	catFR1	2	R1383J
954.099	1.617	960020	WORD	n/a	wordpools/wordpool_categorized_EN.txt	BULL	Farmanimals	2	9	[0, 0, 0]	n/a	catFR1	2	R1383J
955.716	0.866	961638	WORD_OFF	n/a	n/a	BULL	Farmanimals	2	9	[0, 0, 0]	n/a	catFR1	2	R1383J
956.582	1.617	962500	WORD	n/a	wordpools/wordpool_categorized_EN.txt	TRUCK	Vehicles	3	9	[0, 0, 0]	n/a	catFR1	2	R1383J
958.199	0.9	964118	WORD_OFF	n/a	n/a	TRUCK	Vehicles	3	9	[0, 0, 0]	n/a	catFR1	2	R1383J
959.099	1.6	965023	WORD	n/a	wordpools/wordpool_categorized_EN.txt	MOTORCYCLE	Vehicles	4	9	[0, 0, 0]	n/a	catFR1	2	R1383J
960.699	0.85	966616	WORD_OFF	n/a	n/a	MOTORCYCLE	Vehicles	4	9	[0, 0, 0]	n/a	catFR1	2	R1383J
961.549	1.617	967469	WORD	n/a	wordpools/wordpool_categorized_EN.txt	LADLE	Kitchentools	5	9	[0, 0, 0]	n/a	catFR1	2	R1383J
963.166	1.0	969087	WORD_OFF	n/a	n/a	LADLE	Kitchentools	5	9	[0, 0, 0]	n/a	catFR1	2	R1383J
964.166	1.617	970088	WORD	n/a	wordpools/wordpool_categorized_EN.txt	WHISK	Kitchentools	6	9	[0, 0, 0]	n/a	catFR1	2	R1383J
965.783	0.916	971706	WORD_OFF	n/a	n/a	WHISK	Kitchentools	6	9	[0, 0, 0]	n/a	catFR1	2	R1383J
966.699	1.617	972620	WORD	n/a	wordpools/wordpool_categorized_EN.txt	BUS	Vehicles	7	9	[0, 0, 0]	n/a	catFR1	2	R1383J
968.316	0.867	974239	WORD_OFF	n/a	n/a	BUS	Vehicles	7	9	[0, 0, 0]	n/a	catFR1	2	R1383J
969.183	1.616	975100	WORD	n/a	wordpools/wordpool_categorized_EN.txt	MOPED	Vehicles	8	9	[0, 0, 0]	n/a	catFR1	2	R1383J
970.799	0.9	976719	WORD_OFF	n/a	n/a	MOPED	Vehicles	8	9	[0, 0, 0]	n/a	catFR1	2	R1383J
971.699	1.6	977615	WORD	n/a	wordpools/wordpool_categorized_EN.txt	SPATULA	Kitchentools	9	9	[0, 0, 0]	n/a	catFR1	2	R1383J
973.299	0.817	979216	WORD_OFF	n/a	n/a	SPATULA	Kitchentools	9	9	[0, 0, 0]	n/a	catFR1	2	R1383J
974.116	1.617	980034	WORD	n/a	wordpools/wordpool_categorized_EN.txt	KNIFE	Kitchentools	10	9	[0, 0, 0]	n/a	catFR1	2	R1383J
975.733	0.766	981652	WORD_OFF	n/a	n/a	KNIFE	Kitchentools	10	9	[0, 0, 0]	n/a	catFR1	2	R1383J
976.499	1.617	982418	WORD	n/a	wordpools/wordpool_categorized_EN.txt	CHICKEN	Farmanimals	11	9	[0, 0, 0]	n/a	catFR1	2	R1383J
978.116	0.983	984037	WORD_OFF	n/a	n/a	CHICKEN	Farmanimals	11	9	[0, 0, 0]	n/a	catFR1	2	R1383J
979.099	1.601	985020	WORD	n/a	wordpools/wordpool_categorized_EN.txt	ROOSTER	Farmanimals	12	9	[0, 0, 0]	n/a	catFR1	2	R1383J
980.7	0.0	986618	START	n/a	n/a	n/a	n/a	-999	9	[-999, -999, -999]	n/a	catFR1	2	R1383J
980.7	0.0	986618	PROB	0.0	n/a	n/a	n/a	-999	9	[1, 4, 5]	10	catFR1	2	R1383J
980.699	0.001	986621	WORD_OFF	n/a	n/a	ROOSTER	Farmanimals	12	9	[0, 0, 0]	n/a	catFR1	2	R1383J
980.7	0.0	986621	ENCODING_END	n/a	n/a	n/a	n/a	-999	9	[0, 0, 0]	n/a	catFR1	2	R1383J
980.7	4.7	986621	DISTRACT_START	n/a	n/a	n/a	n/a	-999	9	[0, 0, 0]	n/a	catFR1	2	R1383J
985.4	4.916	991318	PROB	4.916	n/a	n/a	n/a	-999	9	[5, 1, 8]	14	catFR1	2	R1383J
990.316	4.149	996234	PROB	4.149	n/a	n/a	n/a	-999	9	[6, 8, 1]	15	catFR1	2	R1383J
994.465	4.684	1000383	PROB	4.684	n/a	n/a	n/a	-999	9	[8, 3, 2]	13	catFR1	2	R1383J
999.149	5.566	1005067	PROB	5.566	n/a	n/a	n/a	-999	9	[7, 7, 2]	16	catFR1	2	R1383J
1004.715	0.0	1010632	STOP	n/a	n/a	n/a	n/a	-999	9	[-999, -999, -999]	n/a	catFR1	2	R1383J
1004.715	1.383	1010638	DISTRACT_END	n/a	n/a	n/a	n/a	-999	9	[0, 0, 0]	n/a	catFR1	2	R1383J
1006.098	5.993	1012013	REC_START	n/a	n/a	n/a	n/a	-999	9	[0, 0, 0]	n/a	catFR1	2	R1383J
1012.091	1.065	1018008	REC_WORD	1.065	n/a	LADLE	Kitchentools	5	9	[0, 0, 0]	n/a	catFR1	2	R1383J
1013.156	1.057	1019073	REC_WORD	1.057	n/a	SPOON	Kitchentools	-999	9	[0, 0, 0]	n/a	catFR1	2	R1383J
1014.213	2.372	1020130	REC_WORD	2.372	n/a	WHISK	Kitchentools	6	9	[0, 0, 0]	n/a	catFR1	2	R1383J
1016.585	1.536	1022502	REC_WORD	1.536	n/a	SHEEP	Farmanimals	1	9	[0, 0, 0]	n/a	catFR1	2	R1383J
1018.121	5.577	1024038	REC_WORD	5.577	n/a	BULL	Farmanimals	2	9	[0, 0, 0]	n/a	catFR1	2	R1383J
1023.698	2.599	1029614	REC_WORD	2.599	n/a	TRUCK	Vehicles	3	9	[0, 0, 0]	n/a	catFR1	2	R1383J
1026.297	10.033	1032213	REC_WORD	10.033	n/a	MOTORCYCLE	Vehicles	4	9	[0, 0, 0]	n/a	catFR1	2	R1383J
1036.33	2.786	1042243	REC_END	n/a	n/a	n/a	n/a	-999	9	[0, 0, 0]	n/a	catFR1	2	R1383J
1039.116	10.368	1045036	COUNTDOWN_START	n/a	n/a	n/a	n/a	-999	10	[0, 0, 0]	n/a	catFR1	2	R1383J
1049.484	0.0	1055400	COUNTDOWN_END	n/a	n/a	n/a	n/a	-999	10	[0, 0, 0]	n/a	catFR1	2	R1383J
1049.484	2.066	1055400	ENCODING_START	n/a	n/a	n/a	n/a	-999	10	[0, 0, 0]	n/a	catFR1	2	R1383J
1051.55	1.6	1057462	WORD	n/a	wordpools/wordpool_categorized_EN.txt	ATTIC	Building	1	10	[0, 0, 0]	n/a	catFR1	2	R1383J
1053.15	0.9	1059063	WORD_OFF	n/a	n/a	ATTIC	Building	1	10	[0, 0, 0]	n/a	catFR1	2	R1383J
1054.05	1.6	1059968	WORD	n/a	wordpools/wordpool_categorized_EN.txt	STAIRS	Building	2	10	[0, 0, 0]	n/a	catFR1	2	R1383J
1055.65	0.866	1061569	WORD_OFF	n/a	n/a	STAIRS	Building	2	10	[0, 0, 0]	n/a	catFR1	2	R1383J
1056.516	1.6	1062431	WORD	n/a	wordpools/wordpool_categorized_EN.txt	JELLYFISH	Oceananimals	3	10	[0, 0, 0]	n/a	catFR1	2	R1383J
1058.116	0.934	1064032	WORD_OFF	n/a	n/a	JELLYFISH	Oceananimals	3	10	[0, 0, 0]	n/a	catFR1	2	R1383J
1059.05	1.616	1064963	WORD	n/a	wordpools/wordpool_categorized_EN.txt	TURTLE	Oceananimals	4	10	[0, 0, 0]	n/a	catFR1	2	R1383J
1060.666	0.834	1066590	WORD_OFF	n/a	n/a	TURTLE	Oceananimals	4	10	[0, 0, 0]	n/a	catFR1	2	R1383J
1061.5	1.6	1067417	WORD	n/a	wordpools/wordpool_categorized_EN.txt	LION	Zoo	5	10	[0, 0, 0]	n/a	catFR1	2	R1383J
1063.1	0.95	1069018	WORD_OFF	n/a	n/a	LION	Zoo	5	10	[0, 0, 0]	n/a	catFR1	2	R1383J
1064.05	1.6	1069967	WORD	n/a	wordpools/wordpool_categorized_EN.txt	GORILLA	Zoo	6	10	[0, 0, 0]	n/a	catFR1	2	R1383J
1065.65	0.883	1071568	WORD_OFF	n/a	n/a	GORILLA	Zoo	6	10	[0, 0, 0]	n/a	catFR1	2	R1383J
1066.533	1.6	1072447	WORD	n/a	wordpools/wordpool_categorized_EN.txt	DOOR	Building	7	10	[0, 0, 0]	n/a	catFR1	2	R1383J
1068.133	0.917	1074048	WORD_OFF	n/a	n/a	DOOR	Building	7	10	[0, 0, 0]	n/a	catFR1	2	R1383J
1069.05	1.616	1074961	WORD	n/a	wordpools/wordpool_categorized_EN.txt	FLOOR	Building	8	10	[0, 0, 0]	n/a	catFR1	2	R1383J
1070.666	0.984	1076580	WORD_OFF	n/a	n/a	FLOOR	Building	8	10	[0, 0, 0]	n/a	catFR1	2	R1383J
1071.65	1.617	1077563	WORD	n/a	wordpools/wordpool_categorized_EN.txt	CRAB	Oceananimals	9	10	[0, 0, 0]	n/a	catFR1	2	R1383J
1073.267	0.899	1079182	WORD_OFF	n/a	n/a	CRAB	Oceananimals	9	10	[0, 0, 0]	n/a	catFR1	2	R1383J
1074.166	1.601	1080078	WORD	n/a	wordpools/wordpool_categorized_EN.txt	SHRIMP	Oceananimals	10	10	[0, 0, 0]	n/a	catFR1	2	R1383J
1075.767	0.949	1081679	WORD_OFF	n/a	n/a	SHRIMP	Oceananimals	10	10	[0, 0, 0]	n/a	catFR1	2	R1383J
1076.716	1.6	1082628	WORD	n/a	wordpools/wordpool_categorized_EN.txt	BEAR	Zoo	11	10	[0, 0, 0]	n/a	catFR1	2	R1383J
1078.316	0.983	1084229	WORD_OFF	n/a	n/a	BEAR	Zoo	11	10	[0, 0, 0]	n/a	catFR1	2	R1383J
1079.299	1.617	1085212	WORD	n/a	wordpools/wordpool_categorized_EN.txt	ORANGUTAN	Zoo	12	10	[0, 0, 0]	n/a	catFR1	2	R1383J
1080.916	0.002	1086831	WORD_OFF	n/a	n/a	ORANGUTAN	Zoo	12	10	[0, 0, 0]	n/a	catFR1	2	R1383J
1080.918	0.0	1086831	ENCODING_END	n/a	n/a	n/a	n/a	-999	10	[0, 0, 0]	n/a	catFR1	2	R1383J
1080.917	0.001	1086831	PROB	0.001	n/a	n/a	n/a	-999	10	[3, 4, 2]	9	catFR1	2	R1383J
1080.918	0.0	1086832	START	n/a	n/a	n/a	n/a	-999	10	[-999, -999, -999]	n/a	catFR1	2	R1383J
1080.918	5.398	1086839	DISTRACT_START	n/a	n/a	n/a	n/a	-999	10	[0, 0, 0]	n/a	catFR1	2	R1383J
1086.316	4.651	1092230	PROB	4.651	n/a	n/a	n/a	-999	10	[7, 8, 1]	16	catFR1	2	R1383J
1090.967	3.566	1096881	PROB	3.566	n/a	n/a	n/a	-999	10	[2, 3, 6]	11	catFR1	2	R1383J
1094.533	4.466	1100446	PROB	4.466	n/a	n/a	n/a	-999	10	[2, 8, 7]	17	catFR1	2	R1383J
1098.999	6.317	1104912	PROB	6.317	n/a	n/a	n/a	-999	10	[1, 1, 6]	8	catFR1	2	R1383J
1105.316	0.0	1111229	STOP	n/a	n/a	n/a	n/a	-999	10	[-999, -999, -999]	n/a	catFR1	2	R1383J
1105.316	1.35	1111230	DISTRACT_END	n/a	n/a	n/a	n/a	-999	10	[0, 0, 0]	n/a	catFR1	2	R1383J
1106.666	2.526	1112579	REC_START	n/a	n/a	n/a	n/a	-999	10	[0, 0, 0]	n/a	catFR1	2	R1383J
1109.192	1.556	1115105	REC_WORD	1.556	n/a	ATTIC	Building	1	10	[0, 0, 0]	n/a	catFR1	2	R1383J
1110.748	1.378	1116661	REC_WORD	1.378	n/a	STAIRS	Building	2	10	[0, 0, 0]	n/a	catFR1	2	R1383J
1112.126	12.402	1118039	REC_WORD	12.402	n/a	FLOOR	Building	8	10	[0, 0, 0]	n/a	catFR1	2	R1383J
1124.528	1.121	1130440	REC_WORD	1.121	n/a	CRAB	Oceananimals	9	10	[0, 0, 0]	n/a	catFR1	2	R1383J
1125.649	1.471	1131561	REC_WORD	1.471	n/a	SHRIMP	Oceananimals	10	10	[0, 0, 0]	n/a	catFR1	2	R1383J
1127.12	9.786	1133032	REC_WORD	9.786	n/a	JELLYFISH	Oceananimals	3	10	[0, 0, 0]	n/a	catFR1	2	R1383J
1136.906	2.294	1142818	REC_END	n/a	n/a	n/a	n/a	-999	10	[0, 0, 0]	n/a	catFR1	2	R1383J
1139.2	10.368	1145115	COUNTDOWN_START	n/a	n/a	n/a	n/a	-999	11	[0, 0, 0]	n/a	catFR1	2	R1383J
1149.568	0.0	1155479	COUNTDOWN_END	n/a	n/a	n/a	n/a	-999	11	[0, 0, 0]	n/a	catFR1	2	R1383J
1149.568	2.098	1155479	ENCODING_START	n/a	n/a	n/a	n/a	-999	11	[0, 0, 0]	n/a	catFR1	2	R1383J
1151.666	1.617	1157576	WORD	n/a	wordpools/wordpool_categorized_EN.txt	GOOSE	Birds	1	11	[0, 0, 0]	n/a	catFR1	2	R1383J
1153.283	1.0	1159194	WORD_OFF	n/a	n/a	GOOSE	Birds	1	11	[0, 0, 0]	n/a	catFR1	2	R1383J
1154.283	1.6	1160195	WORD	n/a	wordpools/wordpool_categorized_EN.txt	BLUEBIRD	Birds	2	11	[0, 0, 0]	n/a	catFR1	2	R1383J
1155.883	0.767	1161796	WORD_OFF	n/a	n/a	BLUEBIRD	Birds	2	11	[0, 0, 0]	n/a	catFR1	2	R1383J
1156.65	1.6	1162562	WORD	n/a	wordpools/wordpool_categorized_EN.txt	CIDER	Beverages	3	11	[0, 0, 0]	n/a	catFR1	2	R1383J
1158.25	0.866	1164163	WORD_OFF	n/a	n/a	CIDER	Beverages	3	11	[0, 0, 0]	n/a	catFR1	2	R1383J
1159.116	1.6	1165024	WORD	n/a	wordpools/wordpool_categorized_EN.txt	WINE	Beverages	4	11	[0, 0, 0]	n/a	catFR1	2	R1383J
1160.716	0.984	1166626	WORD_OFF	n/a	n/a	WINE	Beverages	4	11	[0, 0, 0]	n/a	catFR1	2	R1383J
1161.7	1.6	1167609	WORD	n/a	wordpools/wordpool_categorized_EN.txt	DAISY	Flowers	5	11	[0, 0, 0]	n/a	catFR1	2	R1383J
1163.3	0.9	1169210	WORD_OFF	n/a	n/a	DAISY	Flowers	5	11	[0, 0, 0]	n/a	catFR1	2	R1383J
1164.2	1.6	1170115	WORD	n/a	wordpools/wordpool_categorized_EN.txt	VIOLET	Flowers	6	11	[0, 0, 0]	n/a	catFR1	2	R1383J
1165.8	0.816	1171707	WORD_OFF	n/a	n/a	VIOLET	Flowers	6	11	[0, 0, 0]	n/a	catFR1	2	R1383J
1166.616	1.6	1172525	WORD	n/a	wordpools/wordpool_categorized_EN.txt	JUICE	Beverages	7	11	[0, 0, 0]	n/a	catFR1	2	R1383J
1168.216	0.917	1174126	WORD_OFF	n/a	n/a	JUICE	Beverages	7	11	[0, 0, 0]	n/a	catFR1	2	R1383J
1169.133	1.616	1175041	WORD	n/a	wordpools/wordpool_categorized_EN.txt	COLA	Beverages	8	11	[0, 0, 0]	n/a	catFR1	2	R1383J
1170.749	0.867	1176659	WORD_OFF	n/a	n/a	COLA	Beverages	8	11	[0, 0, 0]	n/a	catFR1	2	R1383J
1171.616	1.6	1177529	WORD	n/a	wordpools/wordpool_categorized_EN.txt	LILAC	Flowers	9	11	[0, 0, 0]	n/a	catFR1	2	R1383J
1173.216	0.784	1179130	WORD_OFF	n/a	n/a	LILAC	Flowers	9	11	[0, 0, 0]	n/a	catFR1	2	R1383J
1174.0	1.616	1179913	WORD	n/a	wordpools/wordpool_categorized_EN.txt	DAFFODIL	Flowers	10	11	[0, 0, 0]	n/a	catFR1	2	R1383J
1175.616	0.833	1181532	WORD_OFF	n/a	n/a	DAFFODIL	Flowers	10	11	[0, 0, 0]	n/a	catFR1	2	R1383J
1176.449	1.601	1182358	WORD	n/a	wordpools/wordpool_categorized_EN.txt	CROW	Birds	11	11	[0, 0, 0]	n/a	catFR1	2	R1383J
1178.05	0.766	1183959	WORD_OFF	n/a	n/a	CROW	Birds	11	11	[0, 0, 0]	n/a	catFR1	2	R1383J
1178.816	1.6	1184725	WORD	n/a	wordpools/wordpool_categorized_EN.txt	CARDINAL	Birds	12	11	[0, 0, 0]	n/a	catFR1	2	R1383J
1180.416	0.002	1186326	WORD_OFF	n/a	n/a	CARDINAL	Birds	12	11	[0, 0, 0]	n/a	catFR1	2	R1383J
1180.418	0.0	1186326	ENCODING_END	n/a	n/a	n/a	n/a	-999	11	[0, 0, 0]	n/a	catFR1	2	R1383J
1180.417	0.001	1186327	PROB	0.001	n/a	n/a	n/a	-999	11	[5, 3, 2]	10	catFR1	2	R1383J
1180.418	0.0	1186328	START	n/a	n/a	n/a	n/a	-999	11	[-999, -999, -999]	n/a	catFR1	2	R1383J
1180.418	5.682	1186335	DISTRACT_START	n/a	n/a	n/a	n/a	-999	11	[0, 0, 0]	n/a	catFR1	2	R1383J
1186.1	4.617	1192010	PROB	4.617	n/a	n/a	n/a	-999	11	[3, 3, 3]	9	catFR1	2	R1383J
1190.717	5.866	1196626	PROB	5.866	n/a	n/a	n/a	-999	11	[8, 7, 8]	23	catFR1	2	R1383J
1196.583	7.183	1202492	PROB	7.183	n/a	n/a	n/a	-999	11	[3, 8, 4]	15	catFR1	2	R1383J
1203.766	0.0	1209673	DISTRACT_END	n/a	n/a	n/a	n/a	-999	11	[0, 0, 0]	n/a	catFR1	2	R1383J
1203.766	1.067	1209675	STOP	n/a	n/a	n/a	n/a	-999	11	[-999, -999, -999]	n/a	catFR1	2	R1383J
1204.833	3.147	1210743	REC_START	n/a	n/a	n/a	n/a	-999	11	[0, 0, 0]	n/a	catFR1	2	R1383J
1207.98	1.068	1213889	REC_WORD	1.068	n/a	GOOSE	Birds	1	11	[0, 0, 0]	n/a	catFR1	2	R1383J
1209.048	1.413	1214957	REC_WORD	1.413	n/a	BLUEBIRD	Birds	2	11	[0, 0, 0]	n/a	catFR1	2	R1383J
1210.461	17.676	1216369	REC_WORD	17.676	n/a	CARDINAL	Birds	12	11	[0, 0, 0]	n/a	catFR1	2	R1383J
1228.137	6.941	1234045	REC_WORD	6.941	n/a	CROW	Birds	11	11	[0, 0, 0]	n/a	catFR1	2	R1383J
1235.078	2.071	1240987	REC_END	n/a	n/a	n/a	n/a	-999	11	[0, 0, 0]	n/a	catFR1	2	R1383J
1237.149	10.362	1243062	COUNTDOWN_START	n/a	n/a	n/a	n/a	-999	12	[0, 0, 0]	n/a	catFR1	2	R1383J
1247.511	0.0	1253417	COUNTDOWN_END	n/a	n/a	n/a	n/a	-999	12	[0, 0, 0]	n/a	catFR1	2	R1383J
1247.511	2.022	1253426	ENCODING_START	n/a	n/a	n/a	n/a	-999	12	[0, 0, 0]	n/a	catFR1	2	R1383J
1249.533	1.616	1255444	WORD	n/a	wordpools/wordpool_categorized_EN.txt	SOCKS	Clothing	1	12	[0, 0, 0]	n/a	catFR1	2	R1383J
1251.149	0.834	1257054	WORD_OFF	n/a	n/a	SOCKS	Clothing	1	12	[0, 0, 0]	n/a	catFR1	2	R1383J
1251.983	1.616	1257890	WORD	n/a	wordpools/wordpool_categorized_EN.txt	SKIRT	Clothing	2	12	[0, 0, 0]	n/a	catFR1	2	R1383J
1253.599	0.9	1259508	WORD_OFF	n/a	n/a	SKIRT	Clothing	2	12	[0, 0, 0]	n/a	catFR1	2	R1383J
1254.499	1.6	1260404	WORD	n/a	wordpools/wordpool_categorized_EN.txt	LEVEL	Tools	3	12	[0, 0, 0]	n/a	catFR1	2	R1383J
1256.099	0.8	1262014	WORD_OFF	n/a	n/a	LEVEL	Tools	3	12	[0, 0, 0]	n/a	catFR1	2	R1383J
1256.899	1.617	1262806	WORD	n/a	wordpools/wordpool_categorized_EN.txt	DRILL	Tools	4	12	[0, 0, 0]	n/a	catFR1	2	R1383J
1258.516	0.883	1264425	WORD_OFF	n/a	n/a	DRILL	Tools	4	12	[0, 0, 0]	n/a	catFR1	2	R1383J
1259.399	1.6	1265303	WORD	n/a	wordpools/wordpool_categorized_EN.txt	ROBIN	Birds	5	12	[0, 0, 0]	n/a	catFR1	2	R1383J
1260.999	0.85	1266905	WORD_OFF	n/a	n/a	ROBIN	Birds	5	12	[0, 0, 0]	n/a	catFR1	2	R1383J
1261.849	1.616	1267757	WORD	n/a	wordpools/wordpool_categorized_EN.txt	DUCK	Birds	6	12	[0, 0, 0]	n/a	catFR1	2	R1383J
1263.465	0.817	1269376	WORD_OFF	n/a	n/a	DUCK	Birds	6	12	[0, 0, 0]	n/a	catFR1	2	R1383J
1264.282	1.601	1270194	WORD	n/a	wordpools/wordpool_categorized_EN.txt	SAW	Tools	7	12	[0, 0, 0]	n/a	catFR1	2	R1383J
1265.883	0.999	1271786	WORD_OFF	n/a	n/a	SAW	Tools	7	12	[0, 0, 0]	n/a	catFR1	2	R1383J
1266.882	1.601	1272787	WORD	n/a	wordpools/wordpool_categorized_EN.txt	WRENCH	Tools	8	12	[0, 0, 0]	n/a	catFR1	2	R1383J
1268.483	0.916	1274388	WORD_OFF	n/a	n/a	WRENCH	Tools	8	12	[0, 0, 0]	n/a	catFR1	2	R1383J
1269.399	1.617	1275310	WORD	n/a	wordpools/wordpool_categorized_EN.txt	UNDERWEAR	Clothing	9	12	[0, 0, 0]	n/a	catFR1	2	R1383J
1271.016	0.782	1276920	WORD_OFF	n/a	n/a	UNDERWEAR	Clothing	9	12	[0, 0, 0]	n/a	catFR1	2	R1383J
1271.798	1.601	1277703	WORD	n/a	wordpools/wordpool_categorized_EN.txt	SHORTS	Clothing	10	12	[0, 0, 0]	n/a	catFR1	2	R1383J
1273.399	0.784	1279305	WORD_OFF	n/a	n/a	SHORTS	Clothing	10	12	[0, 0, 0]	n/a	catFR1	2	R1383J
1274.183	1.616	1280088	WORD	n/a	wordpools/wordpool_categorized_EN.txt	HAWK	Birds	11	12	[0, 0, 0]	n/a	catFR1	2	R1383J
1275.799	0.767	1281706	WORD_OFF	n/a	n/a	HAWK	Birds	11	12	[0, 0, 0]	n/a	catFR1	2	R1383J
1276.566	1.6	1282472	WORD	n/a	wordpools/wordpool_categorized_EN.txt	PIGEON	Birds	12	12	[0, 0, 0]	n/a	catFR1	2	R1383J
1278.166	0.001	1284073	WORD_OFF	n/a	n/a	PIGEON	Birds	12	12	[0, 0, 0]	n/a	catFR1	2	R1383J
1278.167	0.0	1284073	ENCODING_END	n/a	n/a	n/a	n/a	-999	12	[0, 0, 0]	n/a	catFR1	2	R1383J
1278.167	0.0	1284073	START	n/a	n/a	n/a	n/a	-999	12	[-999, -999, -999]	n/a	catFR1	2	R1383J
1278.167	0.0	1284073	PROB	0.0	n/a	n/a	n/a	-999	12	[8, 3, 8]	19	catFR1	2	R1383J
1278.167	5.833	1284082	DISTRACT_START	n/a	n/a	n/a	n/a	-999	12	[0, 0, 0]	n/a	catFR1	2	R1383J
1284.0	3.933	1289905	PROB	3.933	n/a	n/a	n/a	-999	12	[7, 5, 3]	15	catFR1	2	R1383J
1287.933	3.766	1293838	PROB	3.766	n/a	n/a	n/a	-999	12	[1, 6, 4]	11	catFR1	2	R1383J
1291.699	3.9	1297604	PROB	3.9	n/a	n/a	n/a	-999	12	[8, 8, 7]	23	catFR1	2	R1383J
1295.599	5.85	1301504	PROB	5.85	n/a	n/a	n/a	-999	12	[2, 4, 4]	10	catFR1	2	R1383J
1301.449	0.0	1307354	STOP	n/a	n/a	n/a	n/a	-999	12	[-999, -999, -999]	n/a	catFR1	2	R1383J
1301.449	1.1	1307359	DISTRACT_END	n/a	n/a	n/a	n/a	-999	12	[0, 0, 0]	n/a	catFR1	2	R1383J
1302.549	3.627	1308455	REC_START	n/a	n/a	n/a	n/a	-999	12	[0, 0, 0]	n/a	catFR1	2	R1383J
1306.176	1.278	1312080	REC_WORD	1.278	n/a	DRILL	Tools	4	12	[0, 0, 0]	n/a	catFR1	2	R1383J
1307.454	3.345	1313358	REC_WORD	3.345	n/a	LEVEL	Tools	3	12	[0, 0, 0]	n/a	catFR1	2	R1383J
1310.799	10.697	1316703	REC_WORD	10.697	n/a	SOCKS	Clothing	1	12	[0, 0, 0]	n/a	catFR1	2	R1383J
1321.496	11.315	1327400	REC_WORD	11.315	n/a	WRENCH	Tools	8	12	[0, 0, 0]	n/a	catFR1	2	R1383J
1332.811	0.0	1338720	REC_END	n/a	n/a	n/a	n/a	-999	12	[0, 0, 0]	n/a	catFR1	2	R1383J
