onset	duration	sample	trial_type	response_time	stim_file	item_name	category	serialpos	list	test	answer	experiment	session	subject
0.0	164.892	85888	INSTRUCT_START	n/a	n/a	n/a	n/a	-999	-999	[0, 0, 0]	n/a	catFR1	0	R1463E
164.892	141.678	250783	INSTRUCT_END	n/a	n/a	n/a	n/a	-999	-999	[0, 0, 0]	n/a	catFR1	0	R1463E
306.57	10.349	392457	COUNTDOWN_START	n/a	n/a	n/a	n/a	-999	-999	[0, 0, 0]	n/a	catFR1	0	R1463E
316.919	0.0	402802	COUNTDOWN_END	n/a	n/a	n/a	n/a	-999	-999	[0, 0, 0]	n/a	catFR1	0	R1463E
316.919	1.9	402812	ENCODING_START	n/a	n/a	n/a	n/a	-999	-1	[0, 0, 0]	n/a	catFR1	0	R1463E
318.819	1.6	404705	WORD	n/a	n/a	DRIZZLE	Weather	1	-1	[0, 0, 0]	n/a	catFR1	0	R1463E
320.419	0.984	406304	WORD_OFF	n/a	n/a	DRIZZLE	Weather	1	-1	[0, 0, 0]	n/a	catFR1	0	R1463E
321.403	1.616	407286	WORD	n/a	n/a	FOG	Weather	2	-1	[0, 0, 0]	n/a	catFR1	0	R1463E
323.019	0.9	408906	WORD_OFF	n/a	n/a	FOG	Weather	2	-1	[0, 0, 0]	n/a	catFR1	0	R1463E
323.919	1.617	409807	WORD	n/a	n/a	ROACH	Insects	3	-1	[0, 0, 0]	n/a	catFR1	0	R1463E
325.536	0.883	411426	WORD_OFF	n/a	n/a	ROACH	Insects	3	-1	[0, 0, 0]	n/a	catFR1	0	R1463E
326.419	1.616	412307	WORD	n/a	n/a	CRICKET	Insects	4	-1	[0, 0, 0]	n/a	catFR1	0	R1463E
328.035	0.9	413926	WORD_OFF	n/a	n/a	CRICKET	Insects	4	-1	[0, 0, 0]	n/a	catFR1	0	R1463E
328.935	1.601	414817	WORD	n/a	n/a	LEMONADE	Beverages	5	-1	[0, 0, 0]	n/a	catFR1	0	R1463E
330.536	0.832	416427	WORD_OFF	n/a	n/a	LEMONADE	Beverages	5	-1	[0, 0, 0]	n/a	catFR1	0	R1463E
331.368	1.601	417257	WORD	n/a	n/a	MILK	Beverages	6	-1	[0, 0, 0]	n/a	catFR1	0	R1463E
332.969	0.915	418856	WORD_OFF	n/a	n/a	MILK	Beverages	6	-1	[0, 0, 0]	n/a	catFR1	0	R1463E
333.884	1.601	419767	WORD	n/a	n/a	CLOUD	Weather	7	-1	[0, 0, 0]	n/a	catFR1	0	R1463E
335.485	0.934	421377	WORD_OFF	n/a	n/a	CLOUD	Weather	7	-1	[0, 0, 0]	n/a	catFR1	0	R1463E
336.419	1.6	422308	WORD	n/a	n/a	HURRICANE	Weather	8	-1	[0, 0, 0]	n/a	catFR1	0	R1463E
338.019	0.883	423907	WORD_OFF	n/a	n/a	HURRICANE	Weather	8	-1	[0, 0, 0]	n/a	catFR1	0	R1463E
338.902	1.6	424788	WORD	n/a	n/a	COLA	Beverages	9	-1	[0, 0, 0]	n/a	catFR1	0	R1463E
340.502	0.882	426387	WORD_OFF	n/a	n/a	COLA	Beverages	9	-1	[0, 0, 0]	n/a	catFR1	0	R1463E
341.384	1.601	427268	WORD	n/a	n/a	CIDER	Beverages	10	-1	[0, 0, 0]	n/a	catFR1	0	R1463E
342.985	0.916	428867	WORD_OFF	n/a	n/a	CIDER	Beverages	10	-1	[0, 0, 0]	n/a	catFR1	0	R1463E
343.901	1.601	429788	WORD	n/a	n/a	MOTH	Insects	11	-1	[0, 0, 0]	n/a	catFR1	0	R1463E
345.502	0.999	431388	WORD_OFF	n/a	n/a	MOTH	Insects	11	-1	[0, 0, 0]	n/a	catFR1	0	R1463E
346.501	1.6	432390	WORD	n/a	n/a	BEETLE	Insects	12	-1	[0, 0, 0]	n/a	catFR1	0	R1463E
348.101	0.002	433989	WORD_OFF	n/a	n/a	BEETLE	Insects	12	-1	[0, 0, 0]	n/a	catFR1	0	R1463E
348.103	0.0	433989	ENCODING_END	n/a	n/a	n/a	n/a	-999	-1	[0, 0, 0]	n/a	catFR1	0	R1463E
348.103	0.0	433989	DISTRACT_START	n/a	n/a	n/a	n/a	-999	-1	[0, 0, 0]	n/a	catFR1	0	R1463E
348.103	0.0	433989	START	n/a	n/a	n/a	n/a	-999	-1	[-999, -999, -999]	n/a	catFR1	0	R1463E
348.103	7.315	433989	PROB	7.299	n/a	n/a	n/a	-999	-1	[3, 8, 1]	12.0	catFR1	0	R1463E
355.418	5.266	441304	PROB	5.25	n/a	n/a	n/a	-999	-1	[1, 6, 6]	13.0	catFR1	0	R1463E
360.684	4.502	446570	PROB	4.484	n/a	n/a	n/a	-999	-1	[6, 7, 1]	14.0	catFR1	0	R1463E
365.186	3.915	451072	PROB	3.899	n/a	n/a	n/a	-999	-1	[6, 4, 2]	12.0	catFR1	0	R1463E
369.101	0.0	454983	DISTRACT_END	n/a	n/a	n/a	n/a	-999	-1	[0, 0, 0]	n/a	catFR1	0	R1463E
369.101	2.15	454987	STOP	n/a	n/a	n/a	n/a	-999	-1	[-999, -999, -999]	n/a	catFR1	0	R1463E
371.251	1.909	457137	REC_START	n/a	n/a	n/a	n/a	-999	-1	[0, 0, 0]	n/a	catFR1	0	R1463E
373.16	1.25	459046	REC_WORD	1.909	n/a	BEETLE	Insects	12	-1	[0, 0, 0]	n/a	catFR1	0	R1463E
374.41	1.768	460296	REC_WORD	3.159	n/a	ROACH	Insects	3	-1	[0, 0, 0]	n/a	catFR1	0	R1463E
376.178	1.406	462064	REC_WORD	4.927	n/a	MILK	Beverages	6	-1	[0, 0, 0]	n/a	catFR1	0	R1463E
377.584	2.674	463470	REC_WORD	6.333	n/a	LEMONADE	Beverages	5	-1	[0, 0, 0]	n/a	catFR1	0	R1463E
380.258	2.143	466144	REC_WORD	9.007	n/a	FOG	Weather	2	-1	[0, 0, 0]	n/a	catFR1	0	R1463E
382.401	16.26	468287	REC_WORD	11.15	n/a	CLOUD	Weather	7	-1	[0, 0, 0]	n/a	catFR1	0	R1463E
398.661	2.825	484547	REC_WORD	27.41	n/a	MOTH	Insects	11	-1	[0, 0, 0]	n/a	catFR1	0	R1463E
401.486	51.495	487375	REC_END	n/a	n/a	n/a	n/a	-999	-1	[0, 0, 0]	n/a	catFR1	0	R1463E
452.981	10.351	538868	COUNTDOWN_START	n/a	n/a	n/a	n/a	-999	1	[0, 0, 0]	n/a	catFR1	0	R1463E
463.332	0.0	549215	COUNTDOWN_END	n/a	n/a	n/a	n/a	-999	1	[0, 0, 0]	n/a	catFR1	0	R1463E
463.332	2.016	549223	ENCODING_START	n/a	n/a	n/a	n/a	-999	1	[0, 0, 0]	n/a	catFR1	0	R1463E
465.348	1.616	551237	WORD	n/a	wordpools/wordpool_categorized_EN.txt	DRYER	Appliances	1	1	[0, 0, 0]	n/a	catFR1	0	R1463E
466.964	0.816	552847	WORD_OFF	n/a	n/a	DRYER	Appliances	1	1	[0, 0, 0]	n/a	catFR1	0	R1463E
467.78	1.601	553667	WORD	n/a	wordpools/wordpool_categorized_EN.txt	BLENDER	Appliances	2	1	[0, 0, 0]	n/a	catFR1	0	R1463E
469.381	0.95	555266	WORD_OFF	n/a	n/a	BLENDER	Appliances	2	1	[0, 0, 0]	n/a	catFR1	0	R1463E
470.331	1.617	556218	WORD	n/a	wordpools/wordpool_categorized_EN.txt	SPRUCE	Trees	3	1	[0, 0, 0]	n/a	catFR1	0	R1463E
471.948	0.85	557837	WORD_OFF	n/a	n/a	SPRUCE	Trees	3	1	[0, 0, 0]	n/a	catFR1	0	R1463E
472.798	1.616	558687	WORD	n/a	wordpools/wordpool_categorized_EN.txt	CEDAR	Trees	4	1	[0, 0, 0]	n/a	catFR1	0	R1463E
474.414	0.966	560297	WORD_OFF	n/a	n/a	CEDAR	Trees	4	1	[0, 0, 0]	n/a	catFR1	0	R1463E
475.38	1.601	561269	WORD	n/a	wordpools/wordpool_categorized_EN.txt	COOKIE	Desserts	5	1	[0, 0, 0]	n/a	catFR1	0	R1463E
476.981	0.765	562868	WORD_OFF	n/a	n/a	COOKIE	Desserts	5	1	[0, 0, 0]	n/a	catFR1	0	R1463E
477.746	1.601	563637	WORD	n/a	wordpools/wordpool_categorized_EN.txt	PASTRY	Desserts	6	1	[0, 0, 0]	n/a	catFR1	0	R1463E
479.347	0.783	565237	WORD_OFF	n/a	n/a	PASTRY	Desserts	6	1	[0, 0, 0]	n/a	catFR1	0	R1463E
480.13	1.601	566016	WORD	n/a	wordpools/wordpool_categorized_EN.txt	VACUUM	Appliances	7	1	[0, 0, 0]	n/a	catFR1	0	R1463E
481.731	0.816	567615	WORD_OFF	n/a	n/a	VACUUM	Appliances	7	1	[0, 0, 0]	n/a	catFR1	0	R1463E
482.547	1.617	568435	WORD	n/a	wordpools/wordpool_categorized_EN.txt	STOVE	Appliances	8	1	[0, 0, 0]	n/a	catFR1	0	R1463E
484.164	0.766	570055	WORD_OFF	n/a	n/a	STOVE	Appliances	8	1	[0, 0, 0]	n/a	catFR1	0	R1463E
484.93	1.617	570814	WORD	n/a	wordpools/wordpool_categorized_EN.txt	JELLO	Desserts	9	1	[0, 0, 0]	n/a	catFR1	0	R1463E
486.547	0.983	572434	WORD_OFF	n/a	n/a	JELLO	Desserts	9	1	[0, 0, 0]	n/a	catFR1	0	R1463E
487.53	1.6	573416	WORD	n/a	wordpools/wordpool_categorized_EN.txt	MOUSSE	Desserts	10	1	[0, 0, 0]	n/a	catFR1	0	R1463E
489.13	0.784	575015	WORD_OFF	n/a	n/a	MOUSSE	Desserts	10	1	[0, 0, 0]	n/a	catFR1	0	R1463E
489.914	1.616	575805	WORD	n/a	wordpools/wordpool_categorized_EN.txt	EVERGREEN	Trees	11	1	[0, 0, 0]	n/a	catFR1	0	R1463E
491.53	0.967	577414	WORD_OFF	n/a	n/a	EVERGREEN	Trees	11	1	[0, 0, 0]	n/a	catFR1	0	R1463E
492.497	1.601	578386	WORD	n/a	wordpools/wordpool_categorized_EN.txt	WILLOW	Trees	12	1	[0, 0, 0]	n/a	catFR1	0	R1463E
494.098	0.0	579984	PROB	5.499	n/a	n/a	n/a	-999	1	[7, 2, 3]	12.0	catFR1	0	R1463E
494.097	0.002	579985	WORD_OFF	n/a	n/a	WILLOW	Trees	12	1	[0, 0, 0]	n/a	catFR1	0	R1463E
494.099	0.0	579985	ENCODING_END	n/a	n/a	n/a	n/a	-999	1	[0, 0, 0]	n/a	catFR1	0	R1463E
494.099	0.0	579985	DISTRACT_START	n/a	n/a	n/a	n/a	-999	1	[0, 0, 0]	n/a	catFR1	0	R1463E
494.099	5.514	579985	START	n/a	n/a	n/a	n/a	-999	1	[-999, -999, -999]	n/a	catFR1	0	R1463E
499.613	6.583	585499	PROB	6.566	n/a	n/a	n/a	-999	1	[5, 3, 4]	12.0	catFR1	0	R1463E
506.196	5.584	592082	PROB	5.567	n/a	n/a	n/a	-999	1	[7, 6, 5]	18.0	catFR1	0	R1463E
511.78	3.483	597666	PROB	3.466	n/a	n/a	n/a	-999	1	[3, 2, 1]	6.0	catFR1	0	R1463E
515.263	0.0	601149	STOP	n/a	n/a	n/a	n/a	-999	1	[-999, -999, -999]	n/a	catFR1	0	R1463E
515.263	2.149	601151	DISTRACT_END	n/a	n/a	n/a	n/a	-999	1	[0, 0, 0]	n/a	catFR1	0	R1463E
517.412	1.225	603295	REC_START	n/a	n/a	n/a	n/a	-999	1	[0, 0, 0]	n/a	catFR1	0	R1463E
518.637	1.124	604523	REC_WORD	1.225	n/a	EVERGREEN	Trees	11	1	[0, 0, 0]	n/a	catFR1	0	R1463E
519.761	2.529	605646	REC_WORD	2.349	n/a	SPRUCE	Trees	3	1	[0, 0, 0]	n/a	catFR1	0	R1463E
522.29	1.351	608175	REC_WORD	4.878	n/a	JELLO	Desserts	9	1	[0, 0, 0]	n/a	catFR1	0	R1463E
523.641	2.636	609526	REC_WORD	6.229	n/a	MOUSSE	Desserts	10	1	[0, 0, 0]	n/a	catFR1	0	R1463E
526.277	2.076	612162	REC_WORD_VV	8.865	n/a	<>	n/a	-999	1	[0, 0, 0]	n/a	catFR1	0	R1463E
528.353	4.92	614238	REC_WORD_VV	10.941	n/a	<>	n/a	-999	1	[0, 0, 0]	n/a	catFR1	0	R1463E
533.273	13.929	619158	REC_WORD	15.861	n/a	MOUSSE	Desserts	10	1	[0, 0, 0]	n/a	catFR1	0	R1463E
547.202	0.447	633087	REC_WORD_VV	29.79	n/a	<>	n/a	-999	1	[0, 0, 0]	n/a	catFR1	0	R1463E
547.649	7.328	633533	REC_END	n/a	n/a	n/a	n/a	-999	1	[0, 0, 0]	n/a	catFR1	0	R1463E
554.977	10.35	640861	COUNTDOWN_START	n/a	n/a	n/a	n/a	-999	2	[0, 0, 0]	n/a	catFR1	0	R1463E
565.327	0.0	651217	COUNTDOWN_END	n/a	n/a	n/a	n/a	-999	2	[0, 0, 0]	n/a	catFR1	0	R1463E
565.327	1.953	651217	ENCODING_START	n/a	n/a	n/a	n/a	-999	2	[0, 0, 0]	n/a	catFR1	0	R1463E
567.28	1.614	653170	WORD	n/a	wordpools/wordpool_categorized_EN.txt	FISH	OceanAnimals	1	2	[0, 0, 0]	n/a	catFR1	0	R1463E
568.894	0.95	654780	WORD_OFF	n/a	n/a	FISH	OceanAnimals	1	2	[0, 0, 0]	n/a	catFR1	0	R1463E
569.844	1.617	655731	WORD	n/a	wordpools/wordpool_categorized_EN.txt	WHALE	OceanAnimals	2	2	[0, 0, 0]	n/a	catFR1	0	R1463E
571.461	0.767	657351	WORD_OFF	n/a	n/a	WHALE	OceanAnimals	2	2	[0, 0, 0]	n/a	catFR1	0	R1463E
572.228	1.6	658110	WORD	n/a	wordpools/wordpool_categorized_EN.txt	DOLL	Toys	3	2	[0, 0, 0]	n/a	catFR1	0	R1463E
573.828	0.816	659709	WORD_OFF	n/a	n/a	DOLL	Toys	3	2	[0, 0, 0]	n/a	catFR1	0	R1463E
574.644	1.6	660529	WORD	n/a	wordpools/wordpool_categorized_EN.txt	BALL	Toys	4	2	[0, 0, 0]	n/a	catFR1	0	R1463E
576.244	0.817	662129	WORD_OFF	n/a	n/a	BALL	Toys	4	2	[0, 0, 0]	n/a	catFR1	0	R1463E
577.061	1.6	662949	WORD	n/a	wordpools/wordpool_categorized_EN.txt	ROSE	Flowers	5	2	[0, 0, 0]	n/a	catFR1	0	R1463E
578.661	0.833	664548	WORD_OFF	n/a	n/a	ROSE	Flowers	5	2	[0, 0, 0]	n/a	catFR1	0	R1463E
579.494	1.6	665378	WORD	n/a	wordpools/wordpool_categorized_EN.txt	DAFFODIL	Flowers	6	2	[0, 0, 0]	n/a	catFR1	0	R1463E
581.094	0.866	666977	WORD_OFF	n/a	n/a	DAFFODIL	Flowers	6	2	[0, 0, 0]	n/a	catFR1	0	R1463E
581.96	1.601	667848	WORD	n/a	wordpools/wordpool_categorized_EN.txt	SQUID	OceanAnimals	7	2	[0, 0, 0]	n/a	catFR1	0	R1463E
583.561	0.8	669447	WORD_OFF	n/a	n/a	SQUID	OceanAnimals	7	2	[0, 0, 0]	n/a	catFR1	0	R1463E
584.361	1.616	670247	WORD	n/a	wordpools/wordpool_categorized_EN.txt	DOLPHIN	OceanAnimals	8	2	[0, 0, 0]	n/a	catFR1	0	R1463E
585.977	0.85	671866	WORD_OFF	n/a	n/a	DOLPHIN	OceanAnimals	8	2	[0, 0, 0]	n/a	catFR1	0	R1463E
586.827	1.6	672717	WORD	n/a	wordpools/wordpool_categorized_EN.txt	MARBLES	Toys	9	2	[0, 0, 0]	n/a	catFR1	0	R1463E
588.427	0.833	674316	WORD_OFF	n/a	n/a	MARBLES	Toys	9	2	[0, 0, 0]	n/a	catFR1	0	R1463E
589.26	1.617	675146	WORD	n/a	wordpools/wordpool_categorized_EN.txt	BLOCKS	Toys	10	2	[0, 0, 0]	n/a	catFR1	0	R1463E
590.877	0.767	676766	WORD_OFF	n/a	n/a	BLOCKS	Toys	10	2	[0, 0, 0]	n/a	catFR1	0	R1463E
591.644	1.616	677525	WORD	n/a	wordpools/wordpool_categorized_EN.txt	CARNATION	Flowers	11	2	[0, 0, 0]	n/a	catFR1	0	R1463E
593.26	0.934	679145	WORD_OFF	n/a	n/a	CARNATION	Flowers	11	2	[0, 0, 0]	n/a	catFR1	0	R1463E
594.194	1.6	680076	WORD	n/a	wordpools/wordpool_categorized_EN.txt	MARIGOLD	Flowers	12	2	[0, 0, 0]	n/a	catFR1	0	R1463E
595.794	0.001	681675	WORD_OFF	n/a	n/a	MARIGOLD	Flowers	12	2	[0, 0, 0]	n/a	catFR1	0	R1463E
595.795	0.002	681680	START	n/a	n/a	n/a	n/a	-999	2	[-999, -999, -999]	n/a	catFR1	0	R1463E
595.797	0.0	681682	PROB	5.498	n/a	n/a	n/a	-999	2	[8, 5, 8]	21.0	catFR1	0	R1463E
595.795	0.0	681685	ENCODING_END	n/a	n/a	n/a	n/a	-999	2	[0, 0, 0]	n/a	catFR1	0	R1463E
595.795	5.515	681685	DISTRACT_START	n/a	n/a	n/a	n/a	-999	2	[0, 0, 0]	n/a	catFR1	0	R1463E
601.31	4.151	687195	PROB	4.133	n/a	n/a	n/a	-999	2	[5, 1, 6]	12.0	catFR1	0	R1463E
605.461	5.316	691346	PROB	5.299	n/a	n/a	n/a	-999	2	[1, 8, 3]	12.0	catFR1	0	R1463E
610.777	3.783	696662	PROB	3.765	n/a	n/a	n/a	-999	2	[1, 2, 8]	11.0	catFR1	0	R1463E
614.56	4.049	700445	PROB	4.033	n/a	n/a	n/a	-999	2	[3, 2, 5]	10.0	catFR1	0	R1463E
618.609	0.0	704491	DISTRACT_END	n/a	n/a	n/a	n/a	-999	2	[0, 0, 0]	n/a	catFR1	0	R1463E
618.609	2.217	704494	STOP	n/a	n/a	n/a	n/a	-999	2	[-999, -999, -999]	n/a	catFR1	0	R1463E
620.826	1.113	706716	REC_START	n/a	n/a	n/a	n/a	-999	2	[0, 0, 0]	n/a	catFR1	0	R1463E
621.939	1.366	707824	REC_WORD	1.113	n/a	MARIGOLD	Flowers	12	2	[0, 0, 0]	n/a	catFR1	0	R1463E
623.305	2.683	709190	REC_WORD	2.479	n/a	DAFFODIL	Flowers	6	2	[0, 0, 0]	n/a	catFR1	0	R1463E
625.988	2.568	711873	REC_WORD_VV	5.162	n/a	<>	n/a	-999	2	[0, 0, 0]	n/a	catFR1	0	R1463E
628.556	4.484	714441	REC_WORD_VV	7.73	n/a	<>	n/a	-999	2	[0, 0, 0]	n/a	catFR1	0	R1463E
633.04	5.151	718925	REC_WORD_VV	12.214	n/a	<>	n/a	-999	2	[0, 0, 0]	n/a	catFR1	0	R1463E
638.191	5.943	724076	REC_WORD	17.365	n/a	EVERGOLD	n/a	-999	2	[0, 0, 0]	n/a	catFR1	0	R1463E
644.134	1.291	730019	REC_WORD	23.308	n/a	WHALE	OceanAnimals	2	2	[0, 0, 0]	n/a	catFR1	0	R1463E
645.425	2.209	731310	REC_WORD	24.599	n/a	DOLPHIN	OceanAnimals	8	2	[0, 0, 0]	n/a	catFR1	0	R1463E
647.634	3.478	733519	REC_WORD	26.808	n/a	FISH	OceanAnimals	1	2	[0, 0, 0]	n/a	catFR1	0	R1463E
651.112	4.328	736994	REC_END	n/a	n/a	n/a	n/a	-999	2	[0, 0, 0]	n/a	catFR1	0	R1463E
655.44	10.351	741327	COUNTDOWN_START	n/a	n/a	n/a	n/a	-999	3	[0, 0, 0]	n/a	catFR1	0	R1463E
665.791	0.0	751672	COUNTDOWN_END	n/a	n/a	n/a	n/a	-999	3	[0, 0, 0]	n/a	catFR1	0	R1463E
665.791	1.9	751682	ENCODING_START	n/a	n/a	n/a	n/a	-999	3	[0, 0, 0]	n/a	catFR1	0	R1463E
667.691	1.6	753575	WORD	n/a	wordpools/wordpool_categorized_EN.txt	FRISBEE	Toys	1	3	[0, 0, 0]	n/a	catFR1	0	R1463E
669.291	0.983	755174	WORD_OFF	n/a	n/a	FRISBEE	Toys	1	3	[0, 0, 0]	n/a	catFR1	0	R1463E
670.274	1.617	756156	WORD	n/a	wordpools/wordpool_categorized_EN.txt	FOOTBALL	Toys	2	3	[0, 0, 0]	n/a	catFR1	0	R1463E
671.891	0.883	757776	WORD_OFF	n/a	n/a	FOOTBALL	Toys	2	3	[0, 0, 0]	n/a	catFR1	0	R1463E
672.774	1.617	758656	WORD	n/a	wordpools/wordpool_categorized_EN.txt	BANANA	Fruit	3	3	[0, 0, 0]	n/a	catFR1	0	R1463E
674.391	0.767	760276	WORD_OFF	n/a	n/a	BANANA	Fruit	3	3	[0, 0, 0]	n/a	catFR1	0	R1463E
675.158	1.6	761045	WORD	n/a	wordpools/wordpool_categorized_EN.txt	CHERRY	Fruit	4	3	[0, 0, 0]	n/a	catFR1	0	R1463E
676.758	0.883	762645	WORD_OFF	n/a	n/a	CHERRY	Fruit	4	3	[0, 0, 0]	n/a	catFR1	0	R1463E
677.641	1.6	763525	WORD	n/a	wordpools/wordpool_categorized_EN.txt	CARDINAL	Birds	5	3	[0, 0, 0]	n/a	catFR1	0	R1463E
679.241	0.8	765125	WORD_OFF	n/a	n/a	CARDINAL	Birds	5	3	[0, 0, 0]	n/a	catFR1	0	R1463E
680.041	1.6	765924	WORD	n/a	wordpools/wordpool_categorized_EN.txt	DOVE	Birds	6	3	[0, 0, 0]	n/a	catFR1	0	R1463E
681.641	0.933	767524	WORD_OFF	n/a	n/a	DOVE	Birds	6	3	[0, 0, 0]	n/a	catFR1	0	R1463E
682.574	1.615	768455	WORD	n/a	wordpools/wordpool_categorized_EN.txt	PUZZLE	Toys	7	3	[0, 0, 0]	n/a	catFR1	0	R1463E
684.189	0.984	770074	WORD_OFF	n/a	n/a	PUZZLE	Toys	7	3	[0, 0, 0]	n/a	catFR1	0	R1463E
685.173	1.601	771056	WORD	n/a	wordpools/wordpool_categorized_EN.txt	DOLLHOUSE	Toys	8	3	[0, 0, 0]	n/a	catFR1	0	R1463E
686.774	0.883	772656	WORD_OFF	n/a	n/a	DOLLHOUSE	Toys	8	3	[0, 0, 0]	n/a	catFR1	0	R1463E
687.657	1.6	773546	WORD	n/a	wordpools/wordpool_categorized_EN.txt	ROBIN	Birds	9	3	[0, 0, 0]	n/a	catFR1	0	R1463E
689.257	0.883	775146	WORD_OFF	n/a	n/a	ROBIN	Birds	9	3	[0, 0, 0]	n/a	catFR1	0	R1463E
690.14	1.6	776026	WORD	n/a	wordpools/wordpool_categorized_EN.txt	DUCK	Birds	10	3	[0, 0, 0]	n/a	catFR1	0	R1463E
691.74	0.966	777626	WORD_OFF	n/a	n/a	DUCK	Birds	10	3	[0, 0, 0]	n/a	catFR1	0	R1463E
692.706	1.601	778587	WORD	n/a	wordpools/wordpool_categorized_EN.txt	BLUEBERRY	Fruit	11	3	[0, 0, 0]	n/a	catFR1	0	R1463E
694.307	0.8	780197	WORD_OFF	n/a	n/a	BLUEBERRY	Fruit	11	3	[0, 0, 0]	n/a	catFR1	0	R1463E
695.107	1.6	780997	WORD	n/a	wordpools/wordpool_categorized_EN.txt	STRAWBERRY	Fruit	12	3	[0, 0, 0]	n/a	catFR1	0	R1463E
696.707	0.001	782592	PROB	4.565	n/a	n/a	n/a	-999	3	[5, 1, 2]	8.0	catFR1	0	R1463E
696.708	0.0	782593	START	n/a	n/a	n/a	n/a	-999	3	[-999, -999, -999]	n/a	catFR1	0	R1463E
696.707	0.001	782596	WORD_OFF	n/a	n/a	STRAWBERRY	Fruit	12	3	[0, 0, 0]	n/a	catFR1	0	R1463E
696.708	0.0	782596	ENCODING_END	n/a	n/a	n/a	n/a	-999	3	[0, 0, 0]	n/a	catFR1	0	R1463E
696.708	4.581	782596	DISTRACT_START	n/a	n/a	n/a	n/a	-999	3	[0, 0, 0]	n/a	catFR1	0	R1463E
701.289	4.385	787174	PROB	4.367	n/a	n/a	n/a	-999	3	[2, 1, 4]	7.0	catFR1	0	R1463E
705.674	3.748	791559	PROB	3.731	n/a	n/a	n/a	-999	3	[1, 4, 1]	6.0	catFR1	0	R1463E
709.422	4.601	795307	PROB	4.584	n/a	n/a	n/a	-999	3	[5, 3, 3]	11.0	catFR1	0	R1463E
714.023	4.083	799908	PROB	4.066	n/a	n/a	n/a	-999	3	[3, 8, 6]	17.0	catFR1	0	R1463E
718.106	0.0	803991	STOP	n/a	n/a	n/a	n/a	-999	3	[-999, -999, -999]	n/a	catFR1	0	R1463E
718.106	2.3	803995	DISTRACT_END	n/a	n/a	n/a	n/a	-999	3	[0, 0, 0]	n/a	catFR1	0	R1463E
720.406	1.312	806290	REC_START	n/a	n/a	n/a	n/a	-999	3	[0, 0, 0]	n/a	catFR1	0	R1463E
721.718	2.194	807603	REC_WORD	1.312	n/a	STRAWBERRY	Fruit	12	3	[0, 0, 0]	n/a	catFR1	0	R1463E
723.912	1.287	809797	REC_WORD	3.506	n/a	DUCK	Birds	10	3	[0, 0, 0]	n/a	catFR1	0	R1463E
725.199	1.806	811084	REC_WORD	4.793	n/a	BLUEBERRY	Fruit	11	3	[0, 0, 0]	n/a	catFR1	0	R1463E
727.005	1.404	812890	REC_WORD	6.599	n/a	DOVE	Birds	6	3	[0, 0, 0]	n/a	catFR1	0	R1463E
728.409	22.286	814294	REC_WORD	8.003	n/a	ROBIN	Birds	9	3	[0, 0, 0]	n/a	catFR1	0	R1463E
750.695	2.693	836579	REC_END	n/a	n/a	n/a	n/a	-999	3	[0, 0, 0]	n/a	catFR1	0	R1463E
753.388	10.35	839271	COUNTDOWN_START	n/a	n/a	n/a	n/a	-999	4	[0, 0, 0]	n/a	catFR1	0	R1463E
763.738	0.0	849627	COUNTDOWN_END	n/a	n/a	n/a	n/a	-999	4	[0, 0, 0]	n/a	catFR1	0	R1463E
763.738	2.133	849627	ENCODING_START	n/a	n/a	n/a	n/a	-999	4	[0, 0, 0]	n/a	catFR1	0	R1463E
765.871	1.616	851752	WORD	n/a	wordpools/wordpool_categorized_EN.txt	HAMMER	Tools	1	4	[0, 0, 0]	n/a	catFR1	0	R1463E
767.487	0.984	853372	WORD_OFF	n/a	n/a	HAMMER	Tools	1	4	[0, 0, 0]	n/a	catFR1	0	R1463E
768.471	1.616	854354	WORD	n/a	wordpools/wordpool_categorized_EN.txt	WRENCH	Tools	2	4	[0, 0, 0]	n/a	catFR1	0	R1463E
770.087	0.884	855973	WORD_OFF	n/a	n/a	WRENCH	Tools	2	4	[0, 0, 0]	n/a	catFR1	0	R1463E
770.971	1.601	856854	WORD	n/a	wordpools/wordpool_categorized_EN.txt	COBBLER	Desserts	3	4	[0, 0, 0]	n/a	catFR1	0	R1463E
772.572	0.932	858453	WORD_OFF	n/a	n/a	COBBLER	Desserts	3	4	[0, 0, 0]	n/a	catFR1	0	R1463E
773.504	1.617	859389	WORD	n/a	wordpools/wordpool_categorized_EN.txt	PUDDING	Desserts	4	4	[0, 0, 0]	n/a	catFR1	0	R1463E
775.121	0.8	861004	WORD_OFF	n/a	n/a	PUDDING	Desserts	4	4	[0, 0, 0]	n/a	catFR1	0	R1463E
775.921	1.6	861804	WORD	n/a	wordpools/wordpool_categorized_EN.txt	OCTOPUS	OceanAnimals	5	4	[0, 0, 0]	n/a	catFR1	0	R1463E
777.521	0.832	863403	WORD_OFF	n/a	n/a	OCTOPUS	OceanAnimals	5	4	[0, 0, 0]	n/a	catFR1	0	R1463E
778.353	1.601	864244	WORD	n/a	wordpools/wordpool_categorized_EN.txt	OYSTER	OceanAnimals	6	4	[0, 0, 0]	n/a	catFR1	0	R1463E
779.954	0.899	865843	WORD_OFF	n/a	n/a	OYSTER	OceanAnimals	6	4	[0, 0, 0]	n/a	catFR1	0	R1463E
780.853	1.601	866734	WORD	n/a	wordpools/wordpool_categorized_EN.txt	BROWNIES	Desserts	7	4	[0, 0, 0]	n/a	catFR1	0	R1463E
782.454	0.883	868343	WORD_OFF	n/a	n/a	BROWNIES	Desserts	7	4	[0, 0, 0]	n/a	catFR1	0	R1463E
783.337	1.6	869224	WORD	n/a	wordpools/wordpool_categorized_EN.txt	FUDGE	Desserts	8	4	[0, 0, 0]	n/a	catFR1	0	R1463E
784.937	0.767	870823	WORD_OFF	n/a	n/a	FUDGE	Desserts	8	4	[0, 0, 0]	n/a	catFR1	0	R1463E
785.704	1.6	871592	WORD	n/a	wordpools/wordpool_categorized_EN.txt	AXE	Tools	9	4	[0, 0, 0]	n/a	catFR1	0	R1463E
787.304	0.833	873192	WORD_OFF	n/a	n/a	AXE	Tools	9	4	[0, 0, 0]	n/a	catFR1	0	R1463E
788.137	1.6	874022	WORD	n/a	wordpools/wordpool_categorized_EN.txt	PLIERS	Tools	10	4	[0, 0, 0]	n/a	catFR1	0	R1463E
789.737	0.933	875621	WORD_OFF	n/a	n/a	PLIERS	Tools	10	4	[0, 0, 0]	n/a	catFR1	0	R1463E
790.67	1.616	876552	WORD	n/a	wordpools/wordpool_categorized_EN.txt	JELLYFISH	OceanAnimals	11	4	[0, 0, 0]	n/a	catFR1	0	R1463E
792.286	1.0	878172	WORD_OFF	n/a	n/a	JELLYFISH	OceanAnimals	11	4	[0, 0, 0]	n/a	catFR1	0	R1463E
793.286	1.618	879174	WORD	n/a	wordpools/wordpool_categorized_EN.txt	TURTLE	OceanAnimals	12	4	[0, 0, 0]	n/a	catFR1	0	R1463E
794.904	0.0	880789	PROB	4.381	n/a	n/a	n/a	-999	4	[1, 8, 6]	15.0	catFR1	0	R1463E
794.903	0.004	880791	WORD_OFF	n/a	n/a	TURTLE	OceanAnimals	12	4	[0, 0, 0]	n/a	catFR1	0	R1463E
794.907	0.0	880792	START	n/a	n/a	n/a	n/a	-999	4	[-999, -999, -999]	n/a	catFR1	0	R1463E
794.907	0.0	880794	ENCODING_END	n/a	n/a	n/a	n/a	-999	4	[0, 0, 0]	n/a	catFR1	0	R1463E
794.907	4.395	880794	DISTRACT_START	n/a	n/a	n/a	n/a	-999	4	[0, 0, 0]	n/a	catFR1	0	R1463E
799.302	4.484	885187	PROB	4.466	n/a	n/a	n/a	-999	4	[3, 6, 1]	10.0	catFR1	0	R1463E
803.786	4.768	889671	PROB	4.75	n/a	n/a	n/a	-999	4	[3, 2, 4]	9.0	catFR1	0	R1463E
808.554	3.083	894439	PROB	3.065	n/a	n/a	n/a	-999	4	[4, 6, 2]	12.0	catFR1	0	R1463E
811.637	4.366	897522	PROB	4.349	n/a	n/a	n/a	-999	4	[6, 6, 1]	13.0	catFR1	0	R1463E
816.003	0.0	901888	STOP	n/a	n/a	n/a	n/a	-999	4	[-999, -999, -999]	n/a	catFR1	0	R1463E
816.003	2.05	901889	DISTRACT_END	n/a	n/a	n/a	n/a	-999	4	[0, 0, 0]	n/a	catFR1	0	R1463E
818.053	0.588	903942	REC_START	n/a	n/a	n/a	n/a	-999	4	[0, 0, 0]	n/a	catFR1	0	R1463E
818.641	1.355	904526	REC_WORD	0.588	n/a	HAMMER	Tools	1	4	[0, 0, 0]	n/a	catFR1	0	R1463E
819.996	1.303	905881	REC_WORD	1.943	n/a	WRENCH	Tools	2	4	[0, 0, 0]	n/a	catFR1	0	R1463E
821.299	2.506	907184	REC_WORD	3.246	n/a	PLIERS	Tools	10	4	[0, 0, 0]	n/a	catFR1	0	R1463E
823.805	3.016	909690	REC_WORD	5.752	n/a	PUDDING	Desserts	4	4	[0, 0, 0]	n/a	catFR1	0	R1463E
826.821	0.765	912706	REC_WORD_VV	8.768	n/a	<>	n/a	-999	4	[0, 0, 0]	n/a	catFR1	0	R1463E
827.586	7.088	913471	REC_WORD	9.533	n/a	COBBLER	Desserts	3	4	[0, 0, 0]	n/a	catFR1	0	R1463E
834.674	4.835	920559	REC_WORD	16.621	n/a	SQUID	OceanAnimals	-999	4	[0, 0, 0]	n/a	catFR1	0	R1463E
839.509	8.828	925394	REC_WORD	21.456	n/a	OYSTER	OceanAnimals	6	4	[0, 0, 0]	n/a	catFR1	0	R1463E
848.337	2.164	934220	REC_END	n/a	n/a	n/a	n/a	-999	4	[0, 0, 0]	n/a	catFR1	0	R1463E
850.501	10.35	936396	COUNTDOWN_START	n/a	n/a	n/a	n/a	-999	5	[0, 0, 0]	n/a	catFR1	0	R1463E
860.851	0.0	946741	COUNTDOWN_END	n/a	n/a	n/a	n/a	-999	5	[0, 0, 0]	n/a	catFR1	0	R1463E
860.851	1.982	946741	ENCODING_START	n/a	n/a	n/a	n/a	-999	5	[0, 0, 0]	n/a	catFR1	0	R1463E
862.833	1.601	948715	WORD	n/a	wordpools/wordpool_categorized_EN.txt	BASEBALL	Toys	1	5	[0, 0, 0]	n/a	catFR1	0	R1463E
864.434	0.85	950315	WORD_OFF	n/a	n/a	BASEBALL	Toys	1	5	[0, 0, 0]	n/a	catFR1	0	R1463E
865.284	1.6	951165	WORD	n/a	wordpools/wordpool_categorized_EN.txt	SLINKY	Toys	2	5	[0, 0, 0]	n/a	catFR1	0	R1463E
866.884	0.817	952774	WORD_OFF	n/a	n/a	SLINKY	Toys	2	5	[0, 0, 0]	n/a	catFR1	0	R1463E
867.701	1.6	953584	WORD	n/a	wordpools/wordpool_categorized_EN.txt	TURKEY	FarmAnimals	3	5	[0, 0, 0]	n/a	catFR1	0	R1463E
869.301	0.9	955184	WORD_OFF	n/a	n/a	TURKEY	FarmAnimals	3	5	[0, 0, 0]	n/a	catFR1	0	R1463E
870.201	1.617	956084	WORD	n/a	wordpools/wordpool_categorized_EN.txt	CALF	FarmAnimals	4	5	[0, 0, 0]	n/a	catFR1	0	R1463E
871.818	0.983	957704	WORD_OFF	n/a	n/a	CALF	FarmAnimals	4	5	[0, 0, 0]	n/a	catFR1	0	R1463E
872.801	1.616	958686	WORD	n/a	wordpools/wordpool_categorized_EN.txt	LOBSTER	OceanAnimals	5	5	[0, 0, 0]	n/a	catFR1	0	R1463E
874.417	0.884	960306	WORD_OFF	n/a	n/a	LOBSTER	OceanAnimals	5	5	[0, 0, 0]	n/a	catFR1	0	R1463E
875.301	1.617	961186	WORD	n/a	wordpools/wordpool_categorized_EN.txt	CRAB	OceanAnimals	6	5	[0, 0, 0]	n/a	catFR1	0	R1463E
876.918	0.849	962806	WORD_OFF	n/a	n/a	CRAB	OceanAnimals	6	5	[0, 0, 0]	n/a	catFR1	0	R1463E
877.767	1.617	963656	WORD	n/a	wordpools/wordpool_categorized_EN.txt	SHEEP	FarmAnimals	7	5	[0, 0, 0]	n/a	catFR1	0	R1463E
879.384	0.849	965265	WORD_OFF	n/a	n/a	SHEEP	FarmAnimals	7	5	[0, 0, 0]	n/a	catFR1	0	R1463E
880.233	1.601	966116	WORD	n/a	wordpools/wordpool_categorized_EN.txt	BULL	FarmAnimals	8	5	[0, 0, 0]	n/a	catFR1	0	R1463E
881.834	0.867	967715	WORD_OFF	n/a	n/a	BULL	FarmAnimals	8	5	[0, 0, 0]	n/a	catFR1	0	R1463E
882.701	1.616	968586	WORD	n/a	wordpools/wordpool_categorized_EN.txt	BASKETBALL	Toys	9	5	[0, 0, 0]	n/a	catFR1	0	R1463E
884.317	1.0	970205	WORD_OFF	n/a	n/a	BASKETBALL	Toys	9	5	[0, 0, 0]	n/a	catFR1	0	R1463E
885.317	1.616	971207	WORD	n/a	wordpools/wordpool_categorized_EN.txt	BARBIE	Toys	10	5	[0, 0, 0]	n/a	catFR1	0	R1463E
886.933	0.867	972817	WORD_OFF	n/a	n/a	BARBIE	Toys	10	5	[0, 0, 0]	n/a	catFR1	0	R1463E
887.8	1.617	973687	WORD	n/a	wordpools/wordpool_categorized_EN.txt	PLANKTON	OceanAnimals	11	5	[0, 0, 0]	n/a	catFR1	0	R1463E
889.417	0.899	975307	WORD_OFF	n/a	n/a	PLANKTON	OceanAnimals	11	5	[0, 0, 0]	n/a	catFR1	0	R1463E
890.316	1.602	976198	WORD	n/a	wordpools/wordpool_categorized_EN.txt	SHRIMP	OceanAnimals	12	5	[0, 0, 0]	n/a	catFR1	0	R1463E
891.918	0.003	977803	PROB	4.132	n/a	n/a	n/a	-999	5	[7, 3, 5]	15.0	catFR1	0	R1463E
891.921	0.0	977806	START	n/a	n/a	n/a	n/a	-999	5	[-999, -999, -999]	n/a	catFR1	0	R1463E
891.917	0.004	977807	WORD_OFF	n/a	n/a	SHRIMP	OceanAnimals	12	5	[0, 0, 0]	n/a	catFR1	0	R1463E
891.921	0.0	977807	ENCODING_END	n/a	n/a	n/a	n/a	-999	5	[0, 0, 0]	n/a	catFR1	0	R1463E
891.921	4.145	977807	DISTRACT_START	n/a	n/a	n/a	n/a	-999	5	[0, 0, 0]	n/a	catFR1	0	R1463E
896.066	4.201	981951	PROB	4.184	n/a	n/a	n/a	-999	5	[3, 5, 2]	10.0	catFR1	0	R1463E
900.267	8.116	986152	PROB	8.099	n/a	n/a	n/a	-999	5	[8, 7, 7]	22.0	catFR1	0	R1463E
908.383	5.966	994268	PROB	5.95	n/a	n/a	n/a	-999	5	[3, 6, 8]	17.0	catFR1	0	R1463E
914.349	0.0	1000234	STOP	n/a	n/a	n/a	n/a	-999	5	[-999, -999, -999]	n/a	catFR1	0	R1463E
914.349	2.15	1000239	DISTRACT_END	n/a	n/a	n/a	n/a	-999	5	[0, 0, 0]	n/a	catFR1	0	R1463E
916.499	0.659	1002382	REC_START	n/a	n/a	n/a	n/a	-999	5	[0, 0, 0]	n/a	catFR1	0	R1463E
917.158	1.522	1003043	REC_WORD	0.659	n/a	SLINKY	Toys	2	5	[0, 0, 0]	n/a	catFR1	0	R1463E
918.68	1.229	1004565	REC_WORD	2.181	n/a	BASEBALL	Toys	1	5	[0, 0, 0]	n/a	catFR1	0	R1463E
919.909	1.7	1005794	REC_WORD	3.41	n/a	TURKEY	FarmAnimals	3	5	[0, 0, 0]	n/a	catFR1	0	R1463E
921.609	3.312	1007494	REC_WORD	5.11	n/a	PLANKTON	OceanAnimals	11	5	[0, 0, 0]	n/a	catFR1	0	R1463E
924.921	7.775	1010806	REC_WORD	8.422	n/a	FISH	OceanAnimals	-999	5	[0, 0, 0]	n/a	catFR1	0	R1463E
932.696	1.273	1018581	REC_WORD	16.197	n/a	LOBSTER	OceanAnimals	5	5	[0, 0, 0]	n/a	catFR1	0	R1463E
933.969	12.774	1019854	REC_WORD	17.47	n/a	CALF	FarmAnimals	4	5	[0, 0, 0]	n/a	catFR1	0	R1463E
946.743	2.772	1032630	REC_END	n/a	n/a	n/a	n/a	-999	5	[0, 0, 0]	n/a	catFR1	0	R1463E
949.515	10.348	1035404	COUNTDOWN_START	n/a	n/a	n/a	n/a	-999	6	[0, 0, 0]	n/a	catFR1	0	R1463E
959.863	0.001	1045749	COUNTDOWN_END	n/a	n/a	n/a	n/a	-999	6	[0, 0, 0]	n/a	catFR1	0	R1463E
959.864	2.216	1045749	ENCODING_START	n/a	n/a	n/a	n/a	-999	6	[0, 0, 0]	n/a	catFR1	0	R1463E
962.08	1.6	1047966	WORD	n/a	wordpools/wordpool_categorized_EN.txt	NYLON	Fabric	1	6	[0, 0, 0]	n/a	catFR1	0	R1463E
963.68	0.9	1049565	WORD_OFF	n/a	n/a	NYLON	Fabric	1	6	[0, 0, 0]	n/a	catFR1	0	R1463E
964.58	1.6	1050466	WORD	n/a	wordpools/wordpool_categorized_EN.txt	LINEN	Fabric	2	6	[0, 0, 0]	n/a	catFR1	0	R1463E
966.18	0.984	1052065	WORD_OFF	n/a	n/a	LINEN	Fabric	2	6	[0, 0, 0]	n/a	catFR1	0	R1463E
967.164	1.6	1053047	WORD	n/a	wordpools/wordpool_categorized_EN.txt	PLUM	Fruit	3	6	[0, 0, 0]	n/a	catFR1	0	R1463E
968.764	0.966	1054647	WORD_OFF	n/a	n/a	PLUM	Fruit	3	6	[0, 0, 0]	n/a	catFR1	0	R1463E
969.73	1.601	1055618	WORD	n/a	wordpools/wordpool_categorized_EN.txt	PEACH	Fruit	4	6	[0, 0, 0]	n/a	catFR1	0	R1463E
971.331	0.867	1057218	WORD_OFF	n/a	n/a	PEACH	Fruit	4	6	[0, 0, 0]	n/a	catFR1	0	R1463E
972.198	1.615	1058078	WORD	n/a	wordpools/wordpool_categorized_EN.txt	PANTS	Clothing	5	6	[0, 0, 0]	n/a	catFR1	0	R1463E
973.813	0.951	1059698	WORD_OFF	n/a	n/a	PANTS	Clothing	5	6	[0, 0, 0]	n/a	catFR1	0	R1463E
974.764	1.6	1060649	WORD	n/a	wordpools/wordpool_categorized_EN.txt	SHOES	Clothing	6	6	[0, 0, 0]	n/a	catFR1	0	R1463E
976.364	0.866	1062249	WORD_OFF	n/a	n/a	SHOES	Clothing	6	6	[0, 0, 0]	n/a	catFR1	0	R1463E
977.23	1.6	1063119	WORD	n/a	wordpools/wordpool_categorized_EN.txt	DENIM	Fabric	7	6	[0, 0, 0]	n/a	catFR1	0	R1463E
978.83	0.9	1064718	WORD_OFF	n/a	n/a	DENIM	Fabric	7	6	[0, 0, 0]	n/a	catFR1	0	R1463E
979.73	1.601	1065619	WORD	n/a	wordpools/wordpool_categorized_EN.txt	SATIN	Fabric	8	6	[0, 0, 0]	n/a	catFR1	0	R1463E
981.331	0.933	1067219	WORD_OFF	n/a	n/a	SATIN	Fabric	8	6	[0, 0, 0]	n/a	catFR1	0	R1463E
982.264	1.615	1068150	WORD	n/a	wordpools/wordpool_categorized_EN.txt	LEMON	Fruit	9	6	[0, 0, 0]	n/a	catFR1	0	R1463E
983.879	0.801	1069759	WORD_OFF	n/a	n/a	LEMON	Fruit	9	6	[0, 0, 0]	n/a	catFR1	0	R1463E
984.68	1.6	1070569	WORD	n/a	wordpools/wordpool_categorized_EN.txt	ORANGE	Fruit	10	6	[0, 0, 0]	n/a	catFR1	0	R1463E
986.28	0.834	1072169	WORD_OFF	n/a	n/a	ORANGE	Fruit	10	6	[0, 0, 0]	n/a	catFR1	0	R1463E
987.114	1.6	1072999	WORD	n/a	wordpools/wordpool_categorized_EN.txt	SHIRT	Clothing	11	6	[0, 0, 0]	n/a	catFR1	0	R1463E
988.714	0.816	1074598	WORD_OFF	n/a	n/a	SHIRT	Clothing	11	6	[0, 0, 0]	n/a	catFR1	0	R1463E
989.53	1.617	1075418	WORD	n/a	wordpools/wordpool_categorized_EN.txt	JEANS	Clothing	12	6	[0, 0, 0]	n/a	catFR1	0	R1463E
991.147	0.0	1077027	WORD_OFF	n/a	n/a	JEANS	Clothing	12	6	[0, 0, 0]	n/a	catFR1	0	R1463E
991.147	0.001	1077032	PROB	4.083	n/a	n/a	n/a	-999	6	[6, 1, 4]	11.0	catFR1	0	R1463E
991.148	0.0	1077033	START	n/a	n/a	n/a	n/a	-999	6	[-999, -999, -999]	n/a	catFR1	0	R1463E
991.148	0.0	1077038	ENCODING_END	n/a	n/a	n/a	n/a	-999	6	[0, 0, 0]	n/a	catFR1	0	R1463E
991.148	4.099	1077038	DISTRACT_START	n/a	n/a	n/a	n/a	-999	6	[0, 0, 0]	n/a	catFR1	0	R1463E
995.247	4.682	1081132	PROB	4.666	n/a	n/a	n/a	-999	6	[8, 8, 5]	21.0	catFR1	0	R1463E
999.929	7.285	1085814	PROB	7.266	n/a	n/a	n/a	-999	6	[8, 4, 7]	19.0	catFR1	0	R1463E
1007.214	5.032	1093099	PROB	5.016	n/a	n/a	n/a	-999	6	[2, 4, 8]	14.0	catFR1	0	R1463E
1012.246	0.0	1098131	STOP	n/a	n/a	n/a	n/a	-999	6	[-999, -999, -999]	n/a	catFR1	0	R1463E
1012.246	2.117	1098133	DISTRACT_END	n/a	n/a	n/a	n/a	-999	6	[0, 0, 0]	n/a	catFR1	0	R1463E
1014.363	3.015	1100246	REC_START	n/a	n/a	n/a	n/a	-999	6	[0, 0, 0]	n/a	catFR1	0	R1463E
1017.378	2.775	1103262	REC_WORD	3.015	n/a	PLUM	Fruit	3	6	[0, 0, 0]	n/a	catFR1	0	R1463E
1020.153	2.167	1106037	REC_WORD	5.79	n/a	FRUIT	n/a	-999	6	[0, 0, 0]	n/a	catFR1	0	R1463E
1022.32	1.403	1108204	REC_WORD	7.957	n/a	JEANS	Clothing	12	6	[0, 0, 0]	n/a	catFR1	0	R1463E
1023.723	1.74	1109607	REC_WORD	9.36	n/a	DENIM	Fabric	7	6	[0, 0, 0]	n/a	catFR1	0	R1463E
1025.463	3.192	1111347	REC_WORD	11.1	n/a	NYLON	Fabric	1	6	[0, 0, 0]	n/a	catFR1	0	R1463E
1028.655	6.19	1114539	REC_WORD	14.292	n/a	PYLON	n/a	-999	6	[0, 0, 0]	n/a	catFR1	0	R1463E
1034.845	9.77	1120729	REC_WORD_VV	20.482	n/a	<>	n/a	-999	6	[0, 0, 0]	n/a	catFR1	0	R1463E
1044.615	2.513	1130504	REC_END	n/a	n/a	n/a	n/a	-999	6	[0, 0, 0]	n/a	catFR1	0	R1463E
1047.128	10.35	1133015	COUNTDOWN_START	n/a	n/a	n/a	n/a	-999	7	[0, 0, 0]	n/a	catFR1	0	R1463E
1057.478	0.0	1143360	COUNTDOWN_END	n/a	n/a	n/a	n/a	-999	7	[0, 0, 0]	n/a	catFR1	0	R1463E
1057.478	1.983	1143370	ENCODING_START	n/a	n/a	n/a	n/a	-999	7	[0, 0, 0]	n/a	catFR1	0	R1463E
1059.461	1.616	1145344	WORD	n/a	wordpools/wordpool_categorized_EN.txt	SKIRT	Clothing	1	7	[0, 0, 0]	n/a	catFR1	0	R1463E
1061.077	0.984	1146963	WORD_OFF	n/a	n/a	SKIRT	Clothing	1	7	[0, 0, 0]	n/a	catFR1	0	R1463E
1062.061	1.616	1147945	WORD	n/a	wordpools/wordpool_categorized_EN.txt	BLOUSE	Clothing	2	7	[0, 0, 0]	n/a	catFR1	0	R1463E
1063.677	0.9	1149565	WORD_OFF	n/a	n/a	BLOUSE	Clothing	2	7	[0, 0, 0]	n/a	catFR1	0	R1463E
1064.577	1.617	1150466	WORD	n/a	wordpools/wordpool_categorized_EN.txt	TOE	BodyParts	3	7	[0, 0, 0]	n/a	catFR1	0	R1463E
1066.194	0.9	1152075	WORD_OFF	n/a	n/a	TOE	BodyParts	3	7	[0, 0, 0]	n/a	catFR1	0	R1463E
1067.094	1.616	1152976	WORD	n/a	wordpools/wordpool_categorized_EN.txt	ARM	BodyParts	4	7	[0, 0, 0]	n/a	catFR1	0	R1463E
1068.71	0.95	1154596	WORD_OFF	n/a	n/a	ARM	BodyParts	4	7	[0, 0, 0]	n/a	catFR1	0	R1463E
1069.66	1.6	1155547	WORD	n/a	wordpools/wordpool_categorized_EN.txt	MOSQUITO	Insects	5	7	[0, 0, 0]	n/a	catFR1	0	R1463E
1071.26	0.783	1157146	WORD_OFF	n/a	n/a	MOSQUITO	Insects	5	7	[0, 0, 0]	n/a	catFR1	0	R1463E
1072.043	1.601	1157926	WORD	n/a	wordpools/wordpool_categorized_EN.txt	FLY	Insects	6	7	[0, 0, 0]	n/a	catFR1	0	R1463E
1073.644	0.783	1159525	WORD_OFF	n/a	n/a	FLY	Insects	6	7	[0, 0, 0]	n/a	catFR1	0	R1463E
1074.427	1.6	1160315	WORD	n/a	wordpools/wordpool_categorized_EN.txt	SHORTS	Clothing	7	7	[0, 0, 0]	n/a	catFR1	0	R1463E
1076.027	0.767	1161914	WORD_OFF	n/a	n/a	SHORTS	Clothing	7	7	[0, 0, 0]	n/a	catFR1	0	R1463E
1076.794	1.6	1162683	WORD	n/a	wordpools/wordpool_categorized_EN.txt	UNDERWEAR	Clothing	8	7	[0, 0, 0]	n/a	catFR1	0	R1463E
1078.394	0.917	1164283	WORD_OFF	n/a	n/a	UNDERWEAR	Clothing	8	7	[0, 0, 0]	n/a	catFR1	0	R1463E
1079.311	1.6	1165194	WORD	n/a	wordpools/wordpool_categorized_EN.txt	KNEE	BodyParts	9	7	[0, 0, 0]	n/a	catFR1	0	R1463E
1080.911	0.916	1166793	WORD_OFF	n/a	n/a	KNEE	BodyParts	9	7	[0, 0, 0]	n/a	catFR1	0	R1463E
1081.827	1.617	1167714	WORD	n/a	wordpools/wordpool_categorized_EN.txt	EYE	BodyParts	10	7	[0, 0, 0]	n/a	catFR1	0	R1463E
1083.444	0.983	1169324	WORD_OFF	n/a	n/a	EYE	BodyParts	10	7	[0, 0, 0]	n/a	catFR1	0	R1463E
1084.427	1.617	1170316	WORD	n/a	wordpools/wordpool_categorized_EN.txt	LADYBUG	Insects	11	7	[0, 0, 0]	n/a	catFR1	0	R1463E
1086.044	0.833	1171925	WORD_OFF	n/a	n/a	LADYBUG	Insects	11	7	[0, 0, 0]	n/a	catFR1	0	R1463E
1086.877	1.616	1172765	WORD	n/a	wordpools/wordpool_categorized_EN.txt	SPIDER	Insects	12	7	[0, 0, 0]	n/a	catFR1	0	R1463E
1088.493	0.001	1174375	WORD_OFF	n/a	n/a	SPIDER	Insects	12	7	[0, 0, 0]	n/a	catFR1	0	R1463E
1088.494	0.0	1174375	ENCODING_END	n/a	n/a	n/a	n/a	-999	7	[0, 0, 0]	n/a	catFR1	0	R1463E
1088.493	0.002	1174377	PROB	3.483	n/a	n/a	n/a	-999	7	[6, 4, 3]	13.0	catFR1	0	R1463E
1088.495	0.0	1174379	START	n/a	n/a	n/a	n/a	-999	7	[-999, -999, -999]	n/a	catFR1	0	R1463E
1088.495	3.499	1174385	DISTRACT_START	n/a	n/a	n/a	n/a	-999	7	[0, 0, 0]	n/a	catFR1	0	R1463E
1091.994	3.133	1177878	PROB	3.116	n/a	n/a	n/a	-999	7	[1, 3, 6]	10.0	catFR1	0	R1463E
1095.127	2.933	1181011	PROB	2.915	n/a	n/a	n/a	-999	7	[1, 3, 5]	9.0	catFR1	0	R1463E
1098.06	4.467	1183944	PROB	4.45	n/a	n/a	n/a	-999	7	[6, 5, 2]	13.0	catFR1	0	R1463E
1102.527	3.05	1188411	PROB	3.032	n/a	n/a	n/a	-999	7	[1, 1, 5]	7.0	catFR1	0	R1463E
1105.577	4.698	1191461	PROB	4.683	n/a	n/a	n/a	-999	7	[5, 7, 4]	16.0	catFR1	0	R1463E
1110.275	0.0	1196158	DISTRACT_END	n/a	n/a	n/a	n/a	-999	7	[0, 0, 0]	n/a	catFR1	0	R1463E
1110.275	2.401	1196159	STOP	n/a	n/a	n/a	n/a	-999	7	[-999, -999, -999]	n/a	catFR1	0	R1463E
1112.676	1.6	1198565	REC_START	n/a	n/a	n/a	n/a	-999	7	[0, 0, 0]	n/a	catFR1	0	R1463E
1114.276	1.268	1200160	REC_WORD	1.6	n/a	TOE	BodyParts	3	7	[0, 0, 0]	n/a	catFR1	0	R1463E
1115.544	1.335	1201428	REC_WORD	2.868	n/a	KNEE	BodyParts	9	7	[0, 0, 0]	n/a	catFR1	0	R1463E
1116.879	1.899	1202763	REC_WORD	4.203	n/a	ARM	BodyParts	4	7	[0, 0, 0]	n/a	catFR1	0	R1463E
1118.778	1.433	1204662	REC_WORD	6.102	n/a	LEG	n/a	-999	7	[0, 0, 0]	n/a	catFR1	0	R1463E
1120.211	1.61	1206095	REC_WORD	7.535	n/a	SHORTS	Clothing	7	7	[0, 0, 0]	n/a	catFR1	0	R1463E
1121.821	1.632	1207705	REC_WORD	9.145	n/a	BLOUSE	Clothing	2	7	[0, 0, 0]	n/a	catFR1	0	R1463E
1123.453	13.691	1209337	REC_WORD	10.777	n/a	TOP	n/a	-999	7	[0, 0, 0]	n/a	catFR1	0	R1463E
1137.144	5.818	1223028	REC_WORD	24.468	n/a	SKIRT	Clothing	1	7	[0, 0, 0]	n/a	catFR1	0	R1463E
1142.962	2.962	1228844	REC_END	n/a	n/a	n/a	n/a	-999	7	[0, 0, 0]	n/a	catFR1	0	R1463E
1145.924	10.351	1231810	COUNTDOWN_START	n/a	n/a	n/a	n/a	-999	8	[0, 0, 0]	n/a	catFR1	0	R1463E
1156.275	0.0	1242155	COUNTDOWN_END	n/a	n/a	n/a	n/a	-999	8	[0, 0, 0]	n/a	catFR1	0	R1463E
1156.275	2.133	1242165	ENCODING_START	n/a	n/a	n/a	n/a	-999	8	[0, 0, 0]	n/a	catFR1	0	R1463E
1158.408	1.616	1244291	WORD	n/a	wordpools/wordpool_categorized_EN.txt	BUS	Vehicles	1	8	[0, 0, 0]	n/a	catFR1	0	R1463E
1160.024	0.999	1245910	WORD_OFF	n/a	n/a	BUS	Vehicles	1	8	[0, 0, 0]	n/a	catFR1	0	R1463E
1161.023	1.601	1246912	WORD	n/a	wordpools/wordpool_categorized_EN.txt	CAR	Vehicles	2	8	[0, 0, 0]	n/a	catFR1	0	R1463E
1162.624	0.817	1248512	WORD_OFF	n/a	n/a	CAR	Vehicles	2	8	[0, 0, 0]	n/a	catFR1	0	R1463E
1163.441	1.615	1249321	WORD	n/a	wordpools/wordpool_categorized_EN.txt	JUICE	Beverages	3	8	[0, 0, 0]	n/a	catFR1	0	R1463E
1165.056	0.834	1250941	WORD_OFF	n/a	n/a	JUICE	Beverages	3	8	[0, 0, 0]	n/a	catFR1	0	R1463E
1165.89	1.617	1251771	WORD	n/a	wordpools/wordpool_categorized_EN.txt	SODA	Beverages	4	8	[0, 0, 0]	n/a	catFR1	0	R1463E
1167.507	0.867	1253391	WORD_OFF	n/a	n/a	SODA	Beverages	4	8	[0, 0, 0]	n/a	catFR1	0	R1463E
1168.374	1.616	1254261	WORD	n/a	wordpools/wordpool_categorized_EN.txt	GLUE	OfficeSupplies	5	8	[0, 0, 0]	n/a	catFR1	0	R1463E
1169.99	0.917	1255871	WORD_OFF	n/a	n/a	GLUE	OfficeSupplies	5	8	[0, 0, 0]	n/a	catFR1	0	R1463E
1170.907	1.616	1256792	WORD	n/a	wordpools/wordpool_categorized_EN.txt	TAPE	OfficeSupplies	6	8	[0, 0, 0]	n/a	catFR1	0	R1463E
1172.523	0.901	1258411	WORD_OFF	n/a	n/a	TAPE	OfficeSupplies	6	8	[0, 0, 0]	n/a	catFR1	0	R1463E
1173.424	1.6	1259312	WORD	n/a	wordpools/wordpool_categorized_EN.txt	BOAT	Vehicles	7	8	[0, 0, 0]	n/a	catFR1	0	R1463E
1175.024	0.883	1260912	WORD_OFF	n/a	n/a	BOAT	Vehicles	7	8	[0, 0, 0]	n/a	catFR1	0	R1463E
1175.907	1.6	1261792	WORD	n/a	wordpools/wordpool_categorized_EN.txt	TRUCK	Vehicles	8	8	[0, 0, 0]	n/a	catFR1	0	R1463E
1177.507	0.983	1263392	WORD_OFF	n/a	n/a	TRUCK	Vehicles	8	8	[0, 0, 0]	n/a	catFR1	0	R1463E
1178.49	1.601	1264374	WORD	n/a	wordpools/wordpool_categorized_EN.txt	STAPLER	OfficeSupplies	9	8	[0, 0, 0]	n/a	catFR1	0	R1463E
1180.091	0.916	1265973	WORD_OFF	n/a	n/a	STAPLER	OfficeSupplies	9	8	[0, 0, 0]	n/a	catFR1	0	R1463E
1181.007	1.6	1266894	WORD	n/a	wordpools/wordpool_categorized_EN.txt	RULER	OfficeSupplies	10	8	[0, 0, 0]	n/a	catFR1	0	R1463E
1182.607	0.917	1268493	WORD_OFF	n/a	n/a	RULER	OfficeSupplies	10	8	[0, 0, 0]	n/a	catFR1	0	R1463E
1183.524	1.6	1269404	WORD	n/a	wordpools/wordpool_categorized_EN.txt	WINE	Beverages	11	8	[0, 0, 0]	n/a	catFR1	0	R1463E
1185.124	0.849	1271004	WORD_OFF	n/a	n/a	WINE	Beverages	11	8	[0, 0, 0]	n/a	catFR1	0	R1463E
1185.973	1.601	1271854	WORD	n/a	wordpools/wordpool_categorized_EN.txt	COFFEE	Beverages	12	8	[0, 0, 0]	n/a	catFR1	0	R1463E
1187.574	0.003	1273458	PROB	4.766	n/a	n/a	n/a	-999	8	[5, 2, 4]	11.0	catFR1	0	R1463E
1187.577	0.0	1273461	START	n/a	n/a	n/a	n/a	-999	8	[-999, -999, -999]	n/a	catFR1	0	R1463E
1187.574	0.003	1273463	WORD_OFF	n/a	n/a	COFFEE	Beverages	12	8	[0, 0, 0]	n/a	catFR1	0	R1463E
1187.577	0.0	1273463	ENCODING_END	n/a	n/a	n/a	n/a	-999	8	[0, 0, 0]	n/a	catFR1	0	R1463E
1187.577	4.78	1273463	DISTRACT_START	n/a	n/a	n/a	n/a	-999	8	[0, 0, 0]	n/a	catFR1	0	R1463E
1192.357	3.45	1278241	PROB	3.433	n/a	n/a	n/a	-999	8	[5, 1, 2]	8.0	catFR1	0	R1463E
1195.807	3.75	1281691	PROB	3.733	n/a	n/a	n/a	-999	8	[8, 6, 5]	19.0	catFR1	0	R1463E
1199.557	3.083	1285441	PROB	3.066	n/a	n/a	n/a	-999	8	[2, 7, 3]	12.0	catFR1	0	R1463E
1202.64	3.1	1288524	PROB	3.082	n/a	n/a	n/a	-999	8	[1, 2, 1]	4.0	catFR1	0	R1463E
1205.74	4.815	1291624	PROB	4.799	n/a	n/a	n/a	-999	8	[6, 5, 5]	16.0	catFR1	0	R1463E
1210.555	0.0	1296439	STOP	n/a	n/a	n/a	n/a	-999	8	[-999, -999, -999]	n/a	catFR1	0	R1463E
1210.555	2.117	1296441	DISTRACT_END	n/a	n/a	n/a	n/a	-999	8	[0, 0, 0]	n/a	catFR1	0	R1463E
1212.672	0.991	1298555	REC_START	n/a	n/a	n/a	n/a	-999	8	[0, 0, 0]	n/a	catFR1	0	R1463E
1213.663	1.33	1299547	REC_WORD	0.991	n/a	BOAT	Vehicles	7	8	[0, 0, 0]	n/a	catFR1	0	R1463E
1214.993	1.4	1300877	REC_WORD	2.321	n/a	TRUCK	Vehicles	8	8	[0, 0, 0]	n/a	catFR1	0	R1463E
1216.393	3.249	1302277	REC_WORD	3.721	n/a	STOP	n/a	-999	8	[0, 0, 0]	n/a	catFR1	0	R1463E
1219.642	1.766	1305526	REC_WORD	6.97	n/a	CAR	Vehicles	2	8	[0, 0, 0]	n/a	catFR1	0	R1463E
1221.408	5.328	1307292	REC_WORD	8.736	n/a	WINE	Beverages	11	8	[0, 0, 0]	n/a	catFR1	0	R1463E
1226.736	7.621	1312620	REC_WORD	14.064	n/a	SODA	Beverages	4	8	[0, 0, 0]	n/a	catFR1	0	R1463E
1234.357	8.597	1320241	REC_WORD	21.685	n/a	COFFEE	Beverages	12	8	[0, 0, 0]	n/a	catFR1	0	R1463E
1242.954	1.9	1328843	REC_END	n/a	n/a	n/a	n/a	-999	8	[0, 0, 0]	n/a	catFR1	0	R1463E
1244.854	10.35	1330736	COUNTDOWN_START	n/a	n/a	n/a	n/a	-999	9	[0, 0, 0]	n/a	catFR1	0	R1463E
1255.204	0.0	1341092	COUNTDOWN_END	n/a	n/a	n/a	n/a	-999	9	[0, 0, 0]	n/a	catFR1	0	R1463E
1255.204	1.933	1341092	ENCODING_START	n/a	n/a	n/a	n/a	-999	9	[0, 0, 0]	n/a	catFR1	0	R1463E
1257.137	1.601	1343025	WORD	n/a	wordpools/wordpool_categorized_EN.txt	LAMB	FarmAnimals	1	9	[0, 0, 0]	n/a	catFR1	0	R1463E
1258.738	0.967	1344624	WORD_OFF	n/a	n/a	LAMB	FarmAnimals	1	9	[0, 0, 0]	n/a	catFR1	0	R1463E
1259.705	1.599	1345586	WORD	n/a	wordpools/wordpool_categorized_EN.txt	HORSE	FarmAnimals	2	9	[0, 0, 0]	n/a	catFR1	0	R1463E
1261.304	0.917	1347185	WORD_OFF	n/a	n/a	HORSE	FarmAnimals	2	9	[0, 0, 0]	n/a	catFR1	0	R1463E
1262.221	1.617	1348106	WORD	n/a	wordpools/wordpool_categorized_EN.txt	COAT	Clothing	3	9	[0, 0, 0]	n/a	catFR1	0	R1463E
1263.838	0.816	1349726	WORD_OFF	n/a	n/a	COAT	Clothing	3	9	[0, 0, 0]	n/a	catFR1	0	R1463E
1264.654	1.615	1350536	WORD	n/a	wordpools/wordpool_categorized_EN.txt	DRESS	Clothing	4	9	[0, 0, 0]	n/a	catFR1	0	R1463E
1266.269	0.918	1352155	WORD_OFF	n/a	n/a	DRESS	Clothing	4	9	[0, 0, 0]	n/a	catFR1	0	R1463E
1267.187	1.6	1353076	WORD	n/a	wordpools/wordpool_categorized_EN.txt	BUTTERFLY	Insects	5	9	[0, 0, 0]	n/a	catFR1	0	R1463E
1268.787	0.9	1354676	WORD_OFF	n/a	n/a	BUTTERFLY	Insects	5	9	[0, 0, 0]	n/a	catFR1	0	R1463E
1269.687	1.6	1355567	WORD	n/a	wordpools/wordpool_categorized_EN.txt	ANT	Insects	6	9	[0, 0, 0]	n/a	catFR1	0	R1463E
1271.287	0.8	1357176	WORD_OFF	n/a	n/a	ANT	Insects	6	9	[0, 0, 0]	n/a	catFR1	0	R1463E
1272.087	1.616	1357976	WORD	n/a	wordpools/wordpool_categorized_EN.txt	SOCKS	Clothing	7	9	[0, 0, 0]	n/a	catFR1	0	R1463E
1273.703	0.917	1359585	WORD_OFF	n/a	n/a	SOCKS	Clothing	7	9	[0, 0, 0]	n/a	catFR1	0	R1463E
1274.62	1.617	1360506	WORD	n/a	wordpools/wordpool_categorized_EN.txt	JACKET	Clothing	8	9	[0, 0, 0]	n/a	catFR1	0	R1463E
1276.237	0.95	1362126	WORD_OFF	n/a	n/a	JACKET	Clothing	8	9	[0, 0, 0]	n/a	catFR1	0	R1463E
1277.187	1.617	1363067	WORD	n/a	wordpools/wordpool_categorized_EN.txt	BEE	Insects	9	9	[0, 0, 0]	n/a	catFR1	0	R1463E
1278.804	0.95	1364687	WORD_OFF	n/a	n/a	BEE	Insects	9	9	[0, 0, 0]	n/a	catFR1	0	R1463E
1279.754	1.617	1365638	WORD	n/a	wordpools/wordpool_categorized_EN.txt	GNAT	Insects	10	9	[0, 0, 0]	n/a	catFR1	0	R1463E
1281.371	0.932	1367258	WORD_OFF	n/a	n/a	GNAT	Insects	10	9	[0, 0, 0]	n/a	catFR1	0	R1463E
1282.303	1.601	1368189	WORD	n/a	wordpools/wordpool_categorized_EN.txt	COW	FarmAnimals	11	9	[0, 0, 0]	n/a	catFR1	0	R1463E
1283.904	0.783	1369789	WORD_OFF	n/a	n/a	COW	FarmAnimals	11	9	[0, 0, 0]	n/a	catFR1	0	R1463E
1284.687	1.617	1370568	WORD	n/a	wordpools/wordpool_categorized_EN.txt	GOAT	FarmAnimals	12	9	[0, 0, 0]	n/a	catFR1	0	R1463E
1286.304	0.001	1372188	WORD_OFF	n/a	n/a	GOAT	FarmAnimals	12	9	[0, 0, 0]	n/a	catFR1	0	R1463E
1286.305	0.0	1372188	ENCODING_END	n/a	n/a	n/a	n/a	-999	9	[0, 0, 0]	n/a	catFR1	0	R1463E
1286.305	0.0	1372188	DISTRACT_START	n/a	n/a	n/a	n/a	-999	9	[0, 0, 0]	n/a	catFR1	0	R1463E
1286.304	0.001	1372188	PROB	4.716	n/a	n/a	n/a	-999	9	[3, 2, 5]	10.0	catFR1	0	R1463E
1286.305	4.733	1372189	START	n/a	n/a	n/a	n/a	-999	9	[-999, -999, -999]	n/a	catFR1	0	R1463E
1291.038	4.149	1376922	PROB	4.132	n/a	n/a	n/a	-999	9	[7, 8, 6]	21.0	catFR1	0	R1463E
1295.187	3.75	1381071	PROB	3.733	n/a	n/a	n/a	-999	9	[7, 1, 4]	12.0	catFR1	0	R1463E
1298.937	3.583	1384821	PROB	3.566	n/a	n/a	n/a	-999	9	[8, 7, 4]	19.0	catFR1	0	R1463E
1302.52	3.95	1388404	PROB	3.933	n/a	n/a	n/a	-999	9	[2, 5, 3]	10.0	catFR1	0	R1463E
1306.47	0.0	1392352	DISTRACT_END	n/a	n/a	n/a	n/a	-999	9	[0, 0, 0]	n/a	catFR1	0	R1463E
1306.47	2.083	1392354	STOP	n/a	n/a	n/a	n/a	-999	9	[-999, -999, -999]	n/a	catFR1	0	R1463E
1308.553	11.109	1394435	REC_START	n/a	n/a	n/a	n/a	-999	9	[0, 0, 0]	n/a	catFR1	0	R1463E
1319.662	2.625	1405546	REC_WORD_VV	11.109	n/a	<>	n/a	-999	9	[0, 0, 0]	n/a	catFR1	0	R1463E
1322.287	5.532	1408171	REC_WORD_VV	13.734	n/a	<>	n/a	-999	9	[0, 0, 0]	n/a	catFR1	0	R1463E
1327.819	11.019	1413703	REC_WORD_VV	19.266	n/a	<>	n/a	-999	9	[0, 0, 0]	n/a	catFR1	0	R1463E
1338.838	11.449	1424723	REC_END	n/a	n/a	n/a	n/a	-999	9	[0, 0, 0]	n/a	catFR1	0	R1463E
1350.287	10.348	1436172	COUNTDOWN_START	n/a	n/a	n/a	n/a	-999	10	[0, 0, 0]	n/a	catFR1	0	R1463E
1360.635	0.0	1446517	COUNTDOWN_END	n/a	n/a	n/a	n/a	-999	10	[0, 0, 0]	n/a	catFR1	0	R1463E
1360.635	2.25	1446527	ENCODING_START	n/a	n/a	n/a	n/a	-999	10	[0, 0, 0]	n/a	catFR1	0	R1463E
1362.885	1.599	1448764	WORD	n/a	wordpools/wordpool_categorized_EN.txt	SCREWDRIVER	Tools	1	10	[0, 0, 0]	n/a	catFR1	0	R1463E
1364.484	0.984	1450373	WORD_OFF	n/a	n/a	SCREWDRIVER	Tools	1	10	[0, 0, 0]	n/a	catFR1	0	R1463E
1365.468	1.616	1451355	WORD	n/a	wordpools/wordpool_categorized_EN.txt	DRILL	Tools	2	10	[0, 0, 0]	n/a	catFR1	0	R1463E
1367.084	0.933	1452965	WORD_OFF	n/a	n/a	DRILL	Tools	2	10	[0, 0, 0]	n/a	catFR1	0	R1463E
1368.017	1.6	1453906	WORD	n/a	wordpools/wordpool_categorized_EN.txt	HUMIDITY	Weather	3	10	[0, 0, 0]	n/a	catFR1	0	R1463E
1369.617	0.984	1455505	WORD_OFF	n/a	n/a	HUMIDITY	Weather	3	10	[0, 0, 0]	n/a	catFR1	0	R1463E
1370.601	1.616	1456487	WORD	n/a	wordpools/wordpool_categorized_EN.txt	WIND	Weather	4	10	[0, 0, 0]	n/a	catFR1	0	R1463E
1372.217	0.799	1458097	WORD_OFF	n/a	n/a	WIND	Weather	4	10	[0, 0, 0]	n/a	catFR1	0	R1463E
1373.016	1.602	1458896	WORD	n/a	wordpools/wordpool_categorized_EN.txt	CABINET	Furniture	5	10	[0, 0, 0]	n/a	catFR1	0	R1463E
1374.618	0.799	1460506	WORD_OFF	n/a	n/a	CABINET	Furniture	5	10	[0, 0, 0]	n/a	catFR1	0	R1463E
1375.417	1.6	1461306	WORD	n/a	wordpools/wordpool_categorized_EN.txt	TABLE	Furniture	6	10	[0, 0, 0]	n/a	catFR1	0	R1463E
1377.017	0.916	1462905	WORD_OFF	n/a	n/a	TABLE	Furniture	6	10	[0, 0, 0]	n/a	catFR1	0	R1463E
1377.933	1.6	1463816	WORD	n/a	wordpools/wordpool_categorized_EN.txt	SAW	Tools	7	10	[0, 0, 0]	n/a	catFR1	0	R1463E
1379.533	1.001	1465415	WORD_OFF	n/a	n/a	SAW	Tools	7	10	[0, 0, 0]	n/a	catFR1	0	R1463E
1380.534	1.6	1466417	WORD	n/a	wordpools/wordpool_categorized_EN.txt	CROWBAR	Tools	8	10	[0, 0, 0]	n/a	catFR1	0	R1463E
1382.134	0.883	1468017	WORD_OFF	n/a	n/a	CROWBAR	Tools	8	10	[0, 0, 0]	n/a	catFR1	0	R1463E
1383.017	1.616	1468897	WORD	n/a	wordpools/wordpool_categorized_EN.txt	RAIN	Weather	9	10	[0, 0, 0]	n/a	catFR1	0	R1463E
1384.633	0.984	1470517	WORD_OFF	n/a	n/a	RAIN	Weather	9	10	[0, 0, 0]	n/a	catFR1	0	R1463E
1385.617	1.617	1471499	WORD	n/a	wordpools/wordpool_categorized_EN.txt	THUNDERSTORM	Weather	10	10	[0, 0, 0]	n/a	catFR1	0	R1463E
1387.234	0.85	1473119	WORD_OFF	n/a	n/a	THUNDERSTORM	Weather	10	10	[0, 0, 0]	n/a	catFR1	0	R1463E
1388.084	1.616	1473969	WORD	n/a	wordpools/wordpool_categorized_EN.txt	COUCH	Furniture	11	10	[0, 0, 0]	n/a	catFR1	0	R1463E
1389.7	0.984	1475588	WORD_OFF	n/a	n/a	COUCH	Furniture	11	10	[0, 0, 0]	n/a	catFR1	0	R1463E
1390.684	1.616	1476570	WORD	n/a	wordpools/wordpool_categorized_EN.txt	SOFA	Furniture	12	10	[0, 0, 0]	n/a	catFR1	0	R1463E
1392.3	0.003	1478184	PROB	5.751	n/a	n/a	n/a	-999	10	[7, 7, 6]	20.0	catFR1	0	R1463E
1392.303	0.0	1478187	START	n/a	n/a	n/a	n/a	-999	10	[-999, -999, -999]	n/a	catFR1	0	R1463E
1392.301	0.002	1478190	WORD_OFF	n/a	n/a	SOFA	Furniture	12	10	[0, 0, 0]	n/a	catFR1	0	R1463E
1392.303	0.0	1478190	ENCODING_END	n/a	n/a	n/a	n/a	-999	10	[0, 0, 0]	n/a	catFR1	0	R1463E
1392.303	5.764	1478190	DISTRACT_START	n/a	n/a	n/a	n/a	-999	10	[0, 0, 0]	n/a	catFR1	0	R1463E
1398.067	4.266	1483951	PROB	4.249	n/a	n/a	n/a	-999	10	[5, 4, 6]	16.0	catFR1	0	R1463E
1402.333	6.599	1488217	PROB	6.583	n/a	n/a	n/a	-999	10	[7, 1, 8]	16.0	catFR1	0	R1463E
1408.932	4.483	1494816	PROB	4.466	n/a	n/a	n/a	-999	10	[6, 2, 8]	16.0	catFR1	0	R1463E
1413.415	0.0	1499295	DISTRACT_END	n/a	n/a	n/a	n/a	-999	10	[0, 0, 0]	n/a	catFR1	0	R1463E
1413.415	2.101	1499299	STOP	n/a	n/a	n/a	n/a	-999	10	[-999, -999, -999]	n/a	catFR1	0	R1463E
1415.516	0.19	1501399	REC_START	n/a	n/a	n/a	n/a	-999	10	[0, 0, 0]	n/a	catFR1	0	R1463E
1415.706	1.293	1501590	REC_WORD	0.19	n/a	COUCH	Furniture	11	10	[0, 0, 0]	n/a	catFR1	0	R1463E
1416.999	3.533	1502883	REC_WORD	1.483	n/a	SOFA	Furniture	12	10	[0, 0, 0]	n/a	catFR1	0	R1463E
1420.532	4.407	1506416	REC_WORD	5.016	n/a	CHAINSAW	n/a	-999	10	[0, 0, 0]	n/a	catFR1	0	R1463E
1424.939	13.704	1510823	REC_WORD	9.423	n/a	THUNDERSTORM	Weather	10	10	[0, 0, 0]	n/a	catFR1	0	R1463E
1438.643	0.2	1524527	REC_WORD	23.127	n/a	DRILL	Tools	2	10	[0, 0, 0]	n/a	catFR1	0	R1463E
1438.843	6.961	1524727	REC_WORD	23.327	n/a	SAW	Tools	7	10	[0, 0, 0]	n/a	catFR1	0	R1463E
1445.804	2.211	1531687	REC_END	n/a	n/a	n/a	n/a	-999	10	[0, 0, 0]	n/a	catFR1	0	R1463E
1448.015	10.35	1533904	COUNTDOWN_START	n/a	n/a	n/a	n/a	-999	11	[0, 0, 0]	n/a	catFR1	0	R1463E
1458.365	0.0	1544249	COUNTDOWN_END	n/a	n/a	n/a	n/a	-999	11	[0, 0, 0]	n/a	catFR1	0	R1463E
1458.365	2.116	1544249	ENCODING_START	n/a	n/a	n/a	n/a	-999	11	[0, 0, 0]	n/a	catFR1	0	R1463E
1460.481	1.617	1546365	WORD	n/a	wordpools/wordpool_categorized_EN.txt	NOSE	BodyParts	1	11	[0, 0, 0]	n/a	catFR1	0	R1463E
1462.098	0.933	1547984	WORD_OFF	n/a	n/a	NOSE	BodyParts	1	11	[0, 0, 0]	n/a	catFR1	0	R1463E
1463.031	1.616	1548915	WORD	n/a	wordpools/wordpool_categorized_EN.txt	HEAD	BodyParts	2	11	[0, 0, 0]	n/a	catFR1	0	R1463E
1464.647	0.951	1550535	WORD_OFF	n/a	n/a	HEAD	BodyParts	2	11	[0, 0, 0]	n/a	catFR1	0	R1463E
1465.598	1.617	1551486	WORD	n/a	wordpools/wordpool_categorized_EN.txt	CUPCAKE	Desserts	3	11	[0, 0, 0]	n/a	catFR1	0	R1463E
1467.215	0.899	1553096	WORD_OFF	n/a	n/a	CUPCAKE	Desserts	3	11	[0, 0, 0]	n/a	catFR1	0	R1463E
1468.114	1.616	1553997	WORD	n/a	wordpools/wordpool_categorized_EN.txt	CAKE	Desserts	4	11	[0, 0, 0]	n/a	catFR1	0	R1463E
1469.73	0.833	1555616	WORD_OFF	n/a	n/a	CAKE	Desserts	4	11	[0, 0, 0]	n/a	catFR1	0	R1463E
1470.563	1.601	1556446	WORD	n/a	wordpools/wordpool_categorized_EN.txt	SCANNER	Electronics	5	11	[0, 0, 0]	n/a	catFR1	0	R1463E
1472.164	0.916	1558046	WORD_OFF	n/a	n/a	SCANNER	Electronics	5	11	[0, 0, 0]	n/a	catFR1	0	R1463E
1473.08	1.6	1558967	WORD	n/a	wordpools/wordpool_categorized_EN.txt	MICROWAVE	Electronics	6	11	[0, 0, 0]	n/a	catFR1	0	R1463E
1474.68	0.917	1560566	WORD_OFF	n/a	n/a	MICROWAVE	Electronics	6	11	[0, 0, 0]	n/a	catFR1	0	R1463E
1475.597	1.616	1561477	WORD	n/a	wordpools/wordpool_categorized_EN.txt	CHEESECAKE	Desserts	7	11	[0, 0, 0]	n/a	catFR1	0	R1463E
1477.213	0.901	1563097	WORD_OFF	n/a	n/a	CHEESECAKE	Desserts	7	11	[0, 0, 0]	n/a	catFR1	0	R1463E
1478.114	1.616	1563998	WORD	n/a	wordpools/wordpool_categorized_EN.txt	PIE	Desserts	8	11	[0, 0, 0]	n/a	catFR1	0	R1463E
1479.73	0.833	1565617	WORD_OFF	n/a	n/a	PIE	Desserts	8	11	[0, 0, 0]	n/a	catFR1	0	R1463E
1480.563	1.601	1566447	WORD	n/a	wordpools/wordpool_categorized_EN.txt	FINGERS	BodyParts	9	11	[0, 0, 0]	n/a	catFR1	0	R1463E
1482.164	0.883	1568047	WORD_OFF	n/a	n/a	FINGERS	BodyParts	9	11	[0, 0, 0]	n/a	catFR1	0	R1463E
1483.047	1.601	1568927	WORD	n/a	wordpools/wordpool_categorized_EN.txt	HAND	BodyParts	10	11	[0, 0, 0]	n/a	catFR1	0	R1463E
1484.648	0.915	1570527	WORD_OFF	n/a	n/a	HAND	BodyParts	10	11	[0, 0, 0]	n/a	catFR1	0	R1463E
1485.563	1.617	1571448	WORD	n/a	wordpools/wordpool_categorized_EN.txt	SPEAKER	Electronics	11	11	[0, 0, 0]	n/a	catFR1	0	R1463E
1487.18	0.9	1573068	WORD_OFF	n/a	n/a	SPEAKER	Electronics	11	11	[0, 0, 0]	n/a	catFR1	0	R1463E
1488.08	1.601	1573968	WORD	n/a	wordpools/wordpool_categorized_EN.txt	PHONE	Electronics	12	11	[0, 0, 0]	n/a	catFR1	0	R1463E
1489.681	0.002	1575565	PROB	6.215	n/a	n/a	n/a	-999	11	[3, 7, 8]	18.0	catFR1	0	R1463E
1489.683	0.0	1575567	START	n/a	n/a	n/a	n/a	-999	11	[-999, -999, -999]	n/a	catFR1	0	R1463E
1489.68	0.003	1575568	WORD_OFF	n/a	n/a	PHONE	Electronics	12	11	[0, 0, 0]	n/a	catFR1	0	R1463E
1489.683	0.0	1575568	ENCODING_END	n/a	n/a	n/a	n/a	-999	11	[0, 0, 0]	n/a	catFR1	0	R1463E
1489.683	6.23	1575568	DISTRACT_START	n/a	n/a	n/a	n/a	-999	11	[0, 0, 0]	n/a	catFR1	0	R1463E
1495.913	3.418	1581797	PROB	3.4	n/a	n/a	n/a	-999	11	[1, 8, 2]	11.0	catFR1	0	R1463E
1499.331	4.016	1585215	PROB	3.999	n/a	n/a	n/a	-999	11	[7, 7, 4]	18.0	catFR1	0	R1463E
1503.347	3.4	1589231	PROB	3.383	n/a	n/a	n/a	-999	11	[3, 3, 1]	7.0	catFR1	0	R1463E
1506.747	5.483	1592631	PROB	5.466	n/a	n/a	n/a	-999	11	[5, 8, 1]	14.0	catFR1	0	R1463E
1512.23	0.0	1598110	DISTRACT_END	n/a	n/a	n/a	n/a	-999	11	[0, 0, 0]	n/a	catFR1	0	R1463E
1512.23	2.1	1598113	STOP	n/a	n/a	n/a	n/a	-999	11	[-999, -999, -999]	n/a	catFR1	0	R1463E
1514.33	1.199	1600214	REC_START	n/a	n/a	n/a	n/a	-999	11	[0, 0, 0]	n/a	catFR1	0	R1463E
1515.529	1.28	1601412	REC_WORD	1.199	n/a	CUPCAKE	Desserts	3	11	[0, 0, 0]	n/a	catFR1	0	R1463E
1516.809	1.365	1602692	REC_WORD	2.479	n/a	CAKE	Desserts	4	11	[0, 0, 0]	n/a	catFR1	0	R1463E
1518.174	1.294	1604057	REC_WORD	3.844	n/a	HAND	BodyParts	10	11	[0, 0, 0]	n/a	catFR1	0	R1463E
1519.468	6.716	1605351	REC_WORD	5.138	n/a	SPEAKER	Electronics	11	11	[0, 0, 0]	n/a	catFR1	0	R1463E
1526.184	18.44	1612067	REC_WORD	11.854	n/a	SWALLOW	n/a	-999	11	[0, 0, 0]	n/a	catFR1	0	R1463E
1544.624	2.904	1630512	REC_END	n/a	n/a	n/a	n/a	-999	11	[0, 0, 0]	n/a	catFR1	0	R1463E
1547.528	10.35	1633418	COUNTDOWN_START	n/a	n/a	n/a	n/a	-999	12	[0, 0, 0]	n/a	catFR1	0	R1463E
1557.878	0.0	1643763	COUNTDOWN_END	n/a	n/a	n/a	n/a	-999	12	[0, 0, 0]	n/a	catFR1	0	R1463E
1557.878	2.116	1643763	ENCODING_START	n/a	n/a	n/a	n/a	-999	12	[0, 0, 0]	n/a	catFR1	0	R1463E
1559.994	1.601	1645878	WORD	n/a	wordpools/wordpool_categorized_EN.txt	EAR	BodyParts	1	12	[0, 0, 0]	n/a	catFR1	0	R1463E
1561.595	0.899	1647478	WORD_OFF	n/a	n/a	EAR	BodyParts	1	12	[0, 0, 0]	n/a	catFR1	0	R1463E
1562.494	1.6	1648378	WORD	n/a	wordpools/wordpool_categorized_EN.txt	LEG	BodyParts	2	12	[0, 0, 0]	n/a	catFR1	0	R1463E
1564.094	0.784	1649978	WORD_OFF	n/a	n/a	LEG	BodyParts	2	12	[0, 0, 0]	n/a	catFR1	0	R1463E
1564.878	1.6	1650757	WORD	n/a	wordpools/wordpool_categorized_EN.txt	DESK	Furniture	3	12	[0, 0, 0]	n/a	catFR1	0	R1463E
1566.478	0.766	1652357	WORD_OFF	n/a	n/a	DESK	Furniture	3	12	[0, 0, 0]	n/a	catFR1	0	R1463E
1567.244	1.617	1653126	WORD	n/a	wordpools/wordpool_categorized_EN.txt	RECLINER	Furniture	4	12	[0, 0, 0]	n/a	catFR1	0	R1463E
1568.861	0.8	1654746	WORD_OFF	n/a	n/a	RECLINER	Furniture	4	12	[0, 0, 0]	n/a	catFR1	0	R1463E
1569.661	1.6	1655545	WORD	n/a	wordpools/wordpool_categorized_EN.txt	BEER	Beverages	5	12	[0, 0, 0]	n/a	catFR1	0	R1463E
1571.261	0.8	1657145	WORD_OFF	n/a	n/a	BEER	Beverages	5	12	[0, 0, 0]	n/a	catFR1	0	R1463E
1572.061	1.617	1657944	WORD	n/a	wordpools/wordpool_categorized_EN.txt	RUM	Beverages	6	12	[0, 0, 0]	n/a	catFR1	0	R1463E
1573.678	0.899	1659564	WORD_OFF	n/a	n/a	RUM	Beverages	6	12	[0, 0, 0]	n/a	catFR1	0	R1463E
1574.577	1.601	1660465	WORD	n/a	wordpools/wordpool_categorized_EN.txt	ELBOW	BodyParts	7	12	[0, 0, 0]	n/a	catFR1	0	R1463E
1576.178	0.899	1662064	WORD_OFF	n/a	n/a	ELBOW	BodyParts	7	12	[0, 0, 0]	n/a	catFR1	0	R1463E
1577.077	1.617	1662965	WORD	n/a	wordpools/wordpool_categorized_EN.txt	FOOT	BodyParts	8	12	[0, 0, 0]	n/a	catFR1	0	R1463E
1578.694	0.916	1664574	WORD_OFF	n/a	n/a	FOOT	BodyParts	8	12	[0, 0, 0]	n/a	catFR1	0	R1463E
1579.61	1.6	1665496	WORD	n/a	wordpools/wordpool_categorized_EN.txt	WATER	Beverages	9	12	[0, 0, 0]	n/a	catFR1	0	R1463E
1581.21	0.833	1667095	WORD_OFF	n/a	n/a	WATER	Beverages	9	12	[0, 0, 0]	n/a	catFR1	0	R1463E
1582.043	1.6	1667925	WORD	n/a	wordpools/wordpool_categorized_EN.txt	TEA	Beverages	10	12	[0, 0, 0]	n/a	catFR1	0	R1463E
1583.643	0.782	1669524	WORD_OFF	n/a	n/a	TEA	Beverages	10	12	[0, 0, 0]	n/a	catFR1	0	R1463E
1584.425	1.601	1670314	WORD	n/a	wordpools/wordpool_categorized_EN.txt	BOOKCASE	Furniture	11	12	[0, 0, 0]	n/a	catFR1	0	R1463E
1586.026	0.935	1671913	WORD_OFF	n/a	n/a	BOOKCASE	Furniture	11	12	[0, 0, 0]	n/a	catFR1	0	R1463E
1586.961	1.616	1672844	WORD	n/a	wordpools/wordpool_categorized_EN.txt	NIGHTSTAND	Furniture	12	12	[0, 0, 0]	n/a	catFR1	0	R1463E
1588.577	0.0	1674460	PROB	5.133	n/a	n/a	n/a	-999	12	[7, 8, 1]	16.0	catFR1	0	R1463E
1588.577	0.003	1674464	WORD_OFF	n/a	n/a	NIGHTSTAND	Furniture	12	12	[0, 0, 0]	n/a	catFR1	0	R1463E
1588.58	0.001	1674464	ENCODING_END	n/a	n/a	n/a	n/a	-999	12	[0, 0, 0]	n/a	catFR1	0	R1463E
1588.581	0.0	1674464	DISTRACT_START	n/a	n/a	n/a	n/a	-999	12	[0, 0, 0]	n/a	catFR1	0	R1463E
1588.581	5.146	1674464	START	n/a	n/a	n/a	n/a	-999	12	[-999, -999, -999]	n/a	catFR1	0	R1463E
1593.727	3.266	1679610	PROB	3.25	n/a	n/a	n/a	-999	12	[6, 4, 3]	13.0	catFR1	0	R1463E
1596.993	2.468	1682876	PROB	2.45	n/a	n/a	n/a	-999	12	[1, 5, 3]	9.0	catFR1	0	R1463E
1599.461	4.233	1685344	PROB	4.216	n/a	n/a	n/a	-999	12	[4, 4, 3]	12.0	catFR1	0	R1463E
1603.694	4.549	1689577	PROB	4.532	n/a	n/a	n/a	-999	12	[3, 5, 8]	16.0	catFR1	0	R1463E
1608.243	4.133	1694126	PROB	4.117	n/a	n/a	n/a	-999	12	[4, 5, 8]	17.0	catFR1	0	R1463E
1612.376	0.0	1698259	STOP	n/a	n/a	n/a	n/a	-999	12	[-999, -999, -999]	n/a	catFR1	0	R1463E
1612.376	2.334	1698262	DISTRACT_END	n/a	n/a	n/a	n/a	-999	12	[0, 0, 0]	n/a	catFR1	0	R1463E
1614.71	1.195	1700598	REC_START	n/a	n/a	n/a	n/a	-999	12	[0, 0, 0]	n/a	catFR1	0	R1463E
1615.905	0.937	1701788	REC_WORD	1.195	n/a	EAR	BodyParts	1	12	[0, 0, 0]	n/a	catFR1	0	R1463E
1616.842	1.434	1702725	REC_WORD	2.132	n/a	LEG	BodyParts	2	12	[0, 0, 0]	n/a	catFR1	0	R1463E
1618.276	1.583	1704159	REC_WORD	3.566	n/a	ARM	BodyParts	-999	12	[0, 0, 0]	n/a	catFR1	0	R1463E
1619.859	1.384	1705742	REC_WORD	5.149	n/a	RUM	Beverages	6	12	[0, 0, 0]	n/a	catFR1	0	R1463E
1621.243	1.883	1707126	REC_WORD	6.533	n/a	WATER	Beverages	9	12	[0, 0, 0]	n/a	catFR1	0	R1463E
1623.126	1.332	1709009	REC_WORD	8.416	n/a	BEARD	n/a	-999	12	[0, 0, 0]	n/a	catFR1	0	R1463E
1624.458	0.944	1710341	REC_WORD_VV	9.748	n/a	<>	n/a	-999	12	[0, 0, 0]	n/a	catFR1	0	R1463E
1625.402	3.476	1711285	REC_WORD	10.692	n/a	BEER	Beverages	5	12	[0, 0, 0]	n/a	catFR1	0	R1463E
1628.878	16.121	1714761	REC_WORD_VV	14.168	n/a	<>	n/a	-999	12	[0, 0, 0]	n/a	catFR1	0	R1463E
1644.999	0.0	1730887	REC_END	n/a	n/a	n/a	n/a	-999	12	[0, 0, 0]	n/a	catFR1	0	R1463E
