onset	duration	sample	trial_type	response_time	stim_file	item_name	category	serialpos	list	test	answer	experiment	session	subject
0.0	210.559	-1	INSTRUCT_START	n/a	n/a	n/a	n/a	-999	-999	[0, 0, 0]	n/a	catFR1	0	R1202M
210.559	0.0	5912	INSTRUCT_START	n/a	n/a	n/a	n/a	-999	-999	[0, 0, 0]	n/a	catFR1	0	R1202M
210.559	10.866	5912	INSTRUCT_END	n/a	n/a	n/a	n/a	-999	-999	[0, 0, 0]	n/a	catFR1	0	R1202M
221.425	0.0	16777	SESS_START	n/a	n/a	n/a	n/a	-999	-999	[0, 0, 0]	n/a	catFR1	0	R1202M
221.425	311.792	16777	MIC_TEST	n/a	n/a	n/a	n/a	-999	-999	[0, 0, 0]	n/a	catFR1	0	R1202M
533.217	2.671	328552	PRACTICE_TRIAL	n/a	n/a	n/a	n/a	-999	-1	[0, 0, 0]	n/a	catFR1	0	R1202M
535.888	10.0	331223	COUNTDOWN_START	n/a	n/a	n/a	n/a	-999	-1	[0, 0, 0]	n/a	catFR1	0	R1202M
546.316	0.007	341650	COUNTDOWN_END	n/a	n/a	n/a	n/a	-999	-1	[0, 0, 0]	n/a	catFR1	0	R1202M
546.323	1.6	341657	PRACTICE_ORIENT	n/a	n/a	n/a	n/a	-999	-1	[0, 0, 0]	n/a	catFR1	0	R1202M
547.941	1.85	343275	PRACTICE_ORIENT_OFF	n/a	n/a	n/a	n/a	-999	-1	[0, 0, 0]	n/a	catFR1	0	R1202M
549.791	1.6	345125	PRACTICE_WORD	n/a	n/a	RHINO	n/a	-1	-1	[0, 0, 0]	n/a	catFR1	0	R1202M
551.408	0.767	346742	PRACTICE_WORD_OFF	n/a	n/a	RHINO	n/a	-999	-1	[0, 0, 0]	n/a	catFR1	0	R1202M
552.175	1.6	347509	PRACTICE_WORD	n/a	n/a	RING	n/a	-1	-1	[0, 0, 0]	n/a	catFR1	0	R1202M
553.793	0.983	349127	PRACTICE_WORD_OFF	n/a	n/a	RING	n/a	-999	-1	[0, 0, 0]	n/a	catFR1	0	R1202M
554.776	1.6	350110	PRACTICE_WORD	n/a	n/a	COTTON	n/a	-1	-1	[0, 0, 0]	n/a	catFR1	0	R1202M
556.392	0.967	351726	PRACTICE_WORD_OFF	n/a	n/a	COTTON	n/a	-999	-1	[0, 0, 0]	n/a	catFR1	0	R1202M
557.359	1.6	352692	PRACTICE_WORD	n/a	n/a	TONGUE	n/a	-1	-1	[0, 0, 0]	n/a	catFR1	0	R1202M
558.977	0.817	354310	PRACTICE_WORD_OFF	n/a	n/a	TONGUE	n/a	-999	-1	[0, 0, 0]	n/a	catFR1	0	R1202M
559.794	1.6	355127	PRACTICE_WORD	n/a	n/a	CAMEL	n/a	-1	-1	[0, 0, 0]	n/a	catFR1	0	R1202M
561.41	1.0	356743	PRACTICE_WORD_OFF	n/a	n/a	CAMEL	n/a	-999	-1	[0, 0, 0]	n/a	catFR1	0	R1202M
562.41	1.6	357743	PRACTICE_WORD	n/a	n/a	FLOOD	n/a	-1	-1	[0, 0, 0]	n/a	catFR1	0	R1202M
564.028	0.867	359361	PRACTICE_WORD_OFF	n/a	n/a	FLOOD	n/a	-999	-1	[0, 0, 0]	n/a	catFR1	0	R1202M
564.895	1.6	360228	PRACTICE_WORD	n/a	n/a	BEAM	n/a	-1	-1	[0, 0, 0]	n/a	catFR1	0	R1202M
566.511	0.883	361844	PRACTICE_WORD_OFF	n/a	n/a	BEAM	n/a	-999	-1	[0, 0, 0]	n/a	catFR1	0	R1202M
567.394	1.6	362727	PRACTICE_WORD	n/a	n/a	WAGON	n/a	-1	-1	[0, 0, 0]	n/a	catFR1	0	R1202M
569.012	0.817	364345	PRACTICE_WORD_OFF	n/a	n/a	WAGON	n/a	-999	-1	[0, 0, 0]	n/a	catFR1	0	R1202M
569.829	1.6	365162	PRACTICE_WORD	n/a	n/a	IRON	n/a	-1	-1	[0, 0, 0]	n/a	catFR1	0	R1202M
571.445	0.834	366778	PRACTICE_WORD_OFF	n/a	n/a	IRON	n/a	-999	-1	[0, 0, 0]	n/a	catFR1	0	R1202M
572.279	1.6	367612	PRACTICE_WORD	n/a	n/a	WATCH	n/a	-1	-1	[0, 0, 0]	n/a	catFR1	0	R1202M
573.896	0.917	369229	PRACTICE_WORD_OFF	n/a	n/a	WATCH	n/a	-999	-1	[0, 0, 0]	n/a	catFR1	0	R1202M
574.813	1.6	370146	PRACTICE_WORD	n/a	n/a	ATTIC	n/a	-1	-1	[0, 0, 0]	n/a	catFR1	0	R1202M
576.429	1.0	371761	PRACTICE_WORD_OFF	n/a	n/a	ATTIC	n/a	-999	-1	[0, 0, 0]	n/a	catFR1	0	R1202M
577.429	1.6	372761	PRACTICE_WORD	n/a	n/a	CHEST	n/a	-1	-1	[0, 0, 0]	n/a	catFR1	0	R1202M
579.046	0.001	374378	PRACTICE_WORD_OFF	n/a	n/a	CHEST	n/a	-999	-1	[0, 0, 0]	n/a	catFR1	0	R1202M
579.047	0.0	374379	DISTRACT_START	n/a	n/a	n/a	n/a	-999	-1	[0, 0, 0]	n/a	catFR1	0	R1202M
579.047	0.0	374379	ENCODING_END	n/a	n/a	n/a	n/a	-999	-1	[0, 0, 0]	n/a	catFR1	0	R1202M
579.047	0.016	374379	START	n/a	n/a	n/a	n/a	-999	1	[-999, -999, -999]	n/a	catFR1	0	R1202M
579.063	7.836	374395	PROB	7.798	n/a	n/a	n/a	-999	1	[5, 6, 4]	15.0	catFR1	0	R1202M
586.899	7.551	382231	PROB	7.514	n/a	n/a	n/a	-999	1	[4, 3, 4]	11.0	catFR1	0	R1202M
594.45	5.85	389781	PROB	5.85	n/a	n/a	n/a	-999	1	[5, 1, 2]	8.0	catFR1	0	R1202M
600.3	0.017	395631	STOP	n/a	n/a	n/a	n/a	-999	1	[-999, -999, -999]	n/a	catFR1	0	R1202M
600.317	0.585	395648	DISTRACT_END	n/a	n/a	n/a	n/a	-999	-1	[0, 0, 0]	n/a	catFR1	0	R1202M
600.902	0.516	396233	RETRIEVAL_ORIENT	n/a	n/a	n/a	n/a	-999	-1	[0, 0, 0]	n/a	catFR1	0	R1202M
601.418	30.013	396749	PRACTICE_REC_START	n/a	n/a	n/a	n/a	-999	-1	[0, 0, 0]	n/a	catFR1	0	R1202M
631.431	62.572	426760	PRACTICE_REC_END	n/a	n/a	n/a	n/a	-999	-1	[0, 0, 0]	n/a	catFR1	0	R1202M
694.003	0.5	489329	TRIAL	n/a	n/a	n/a	n/a	-999	1	[0, 0, 0]	n/a	catFR1	0	R1202M
694.503	10.0	489829	COUNTDOWN_START	n/a	n/a	n/a	n/a	-999	1	[0, 0, 0]	n/a	catFR1	0	R1202M
704.931	0.008	500256	COUNTDOWN_END	n/a	n/a	n/a	n/a	-999	1	[0, 0, 0]	n/a	catFR1	0	R1202M
704.939	1.6	500264	ORIENT	n/a	n/a	n/a	n/a	-999	1	[0, 0, 0]	n/a	catFR1	0	R1202M
706.556	1.882	501881	ORIENT_OFF	n/a	n/a	n/a	n/a	-999	1	[0, 0, 0]	n/a	catFR1	0	R1202M
708.438	1.6	503763	WORD	n/a	wordpools/wordpool_categorized_EN.txt	EVERGREEN	Trees	1	1	[0, 0, 0]	n/a	catFR1	0	R1202M
710.055	0.935	505380	WORD_OFF	n/a	n/a	EVERGREEN	n/a	1	1	[0, 0, 0]	n/a	catFR1	0	R1202M
710.99	1.6	506315	WORD	n/a	wordpools/wordpool_categorized_EN.txt	HICKORY	Trees	2	1	[0, 0, 0]	n/a	catFR1	0	R1202M
712.607	0.933	507932	WORD_OFF	n/a	n/a	HICKORY	n/a	2	1	[0, 0, 0]	n/a	catFR1	0	R1202M
713.54	1.6	508865	WORD	n/a	wordpools/wordpool_categorized_EN.txt	PHONE	Electronics	3	1	[0, 0, 0]	n/a	catFR1	0	R1202M
715.156	0.934	510481	WORD_OFF	n/a	n/a	PHONE	n/a	3	1	[0, 0, 0]	n/a	catFR1	0	R1202M
716.09	1.6	511415	WORD	n/a	wordpools/wordpool_categorized_EN.txt	SPEAKER	Electronics	4	1	[0, 0, 0]	n/a	catFR1	0	R1202M
717.708	0.85	513033	WORD_OFF	n/a	n/a	SPEAKER	n/a	4	1	[0, 0, 0]	n/a	catFR1	0	R1202M
718.558	1.6	513883	WORD	n/a	wordpools/wordpool_categorized_EN.txt	WINDOW	Building	5	1	[0, 0, 0]	n/a	catFR1	0	R1202M
720.174	0.867	515499	WORD_OFF	n/a	n/a	WINDOW	n/a	5	1	[0, 0, 0]	n/a	catFR1	0	R1202M
721.041	1.6	516365	WORD	n/a	wordpools/wordpool_categorized_EN.txt	FOUNDATION	Building	6	1	[0, 0, 0]	n/a	catFR1	0	R1202M
722.659	0.883	517983	WORD_OFF	n/a	n/a	FOUNDATION	n/a	6	1	[0, 0, 0]	n/a	catFR1	0	R1202M
723.542	1.6	518866	WORD	n/a	wordpools/wordpool_categorized_EN.txt	COMPUTER	Electronics	7	1	[0, 0, 0]	n/a	catFR1	0	R1202M
725.158	0.851	520482	WORD_OFF	n/a	n/a	COMPUTER	n/a	7	1	[0, 0, 0]	n/a	catFR1	0	R1202M
726.009	1.6	521333	WORD	n/a	wordpools/wordpool_categorized_EN.txt	RADIO	Electronics	8	1	[0, 0, 0]	n/a	catFR1	0	R1202M
727.626	0.783	522950	WORD_OFF	n/a	n/a	RADIO	n/a	8	1	[0, 0, 0]	n/a	catFR1	0	R1202M
728.409	1.6	523733	WORD	n/a	wordpools/wordpool_categorized_EN.txt	MAPLE	Trees	9	1	[0, 0, 0]	n/a	catFR1	0	R1202M
730.027	0.817	525351	WORD_OFF	n/a	n/a	MAPLE	n/a	9	1	[0, 0, 0]	n/a	catFR1	0	R1202M
730.844	1.6	526168	WORD	n/a	wordpools/wordpool_categorized_EN.txt	PINE	Trees	10	1	[0, 0, 0]	n/a	catFR1	0	R1202M
732.46	0.883	527784	WORD_OFF	n/a	n/a	PINE	n/a	10	1	[0, 0, 0]	n/a	catFR1	0	R1202M
733.343	1.6	528667	WORD	n/a	wordpools/wordpool_categorized_EN.txt	FLOOR	Building	11	1	[0, 0, 0]	n/a	catFR1	0	R1202M
734.944	1.017	530268	WORD_OFF	n/a	n/a	FLOOR	n/a	11	1	[0, 0, 0]	n/a	catFR1	0	R1202M
735.961	1.6	531285	WORD	n/a	wordpools/wordpool_categorized_EN.txt	ROOF	Building	12	1	[0, 0, 0]	n/a	catFR1	0	R1202M
737.578	0.0	532902	WORD_OFF	n/a	n/a	ROOF	n/a	12	1	[0, 0, 0]	n/a	catFR1	0	R1202M
737.578	0.134	532902	ENCODING_END	n/a	n/a	n/a	n/a	-999	1	[0, 0, 0]	n/a	catFR1	0	R1202M
737.712	0.0	533036	DISTRACT_START	n/a	n/a	n/a	n/a	-999	1	[0, 0, 0]	n/a	catFR1	0	R1202M
737.712	0.016	533036	START	n/a	n/a	n/a	n/a	-999	2	[-999, -999, -999]	n/a	catFR1	0	R1202M
737.728	8.069	533052	PROB	8.037	n/a	n/a	n/a	-999	2	[7, 8, 7]	22.0	catFR1	0	R1202M
745.797	5.683	541120	PROB	5.654	n/a	n/a	n/a	-999	2	[3, 6, 1]	10.0	catFR1	0	R1202M
751.48	6.468	546803	PROB	6.468	n/a	n/a	n/a	-999	2	[4, 7, 3]	14.0	catFR1	0	R1202M
757.948	0.018	553270	STOP	n/a	n/a	n/a	n/a	-999	2	[-999, -999, -999]	n/a	catFR1	0	R1202M
757.966	0.666	553288	DISTRACT_END	n/a	n/a	n/a	n/a	-999	1	[0, 0, 0]	n/a	catFR1	0	R1202M
758.632	0.517	553954	RETRIEVAL_ORIENT	n/a	n/a	n/a	n/a	-999	1	[0, 0, 0]	n/a	catFR1	0	R1202M
759.149	1.9	554471	REC_START	n/a	n/a	n/a	n/a	-999	1	[0, 0, 0]	n/a	catFR1	0	R1202M
761.049	1.985	556371	REC_WORD	1.9	n/a	FLOOR	Building	11	1	[0, 0, 0]	n/a	catFR1	0	R1202M
763.034	7.056	558356	REC_WORD	3.885	n/a	ROOF	Building	12	1	[0, 0, 0]	n/a	catFR1	0	R1202M
770.09	3.745	565412	REC_WORD	10.941	n/a	FOUNDATION	Building	6	1	[0, 0, 0]	n/a	catFR1	0	R1202M
773.835	12.067	569157	REC_WORD	14.686	n/a	WINDOW	Building	5	1	[0, 0, 0]	n/a	catFR1	0	R1202M
785.902	3.257	581223	REC_WORD	26.753	n/a	ROOF	Building	12	1	[0, 0, 0]	n/a	catFR1	0	R1202M
789.159	18.265	584480	REC_END	n/a	n/a	n/a	n/a	-999	1	[0, 0, 0]	n/a	catFR1	0	R1202M
807.424	0.5	602744	TRIAL	n/a	n/a	n/a	n/a	-999	2	[0, 0, 0]	n/a	catFR1	0	R1202M
807.924	10.0	603244	COUNTDOWN_START	n/a	n/a	n/a	n/a	-999	2	[0, 0, 0]	n/a	catFR1	0	R1202M
818.352	0.008	613671	COUNTDOWN_END	n/a	n/a	n/a	n/a	-999	2	[0, 0, 0]	n/a	catFR1	0	R1202M
818.36	1.6	613679	ORIENT	n/a	n/a	n/a	n/a	-999	2	[0, 0, 0]	n/a	catFR1	0	R1202M
819.978	2.149	615297	ORIENT_OFF	n/a	n/a	n/a	n/a	-999	2	[0, 0, 0]	n/a	catFR1	0	R1202M
822.127	1.6	617446	WORD	n/a	wordpools/wordpool_categorized_EN.txt	BEETLE	Insects	1	2	[0, 0, 0]	n/a	catFR1	0	R1202M
823.728	0.867	619047	WORD_OFF	n/a	n/a	BEETLE	n/a	1	2	[0, 0, 0]	n/a	catFR1	0	R1202M
824.595	1.6	619914	WORD	n/a	wordpools/wordpool_categorized_EN.txt	BUTTERFLY	Insects	2	2	[0, 0, 0]	n/a	catFR1	0	R1202M
826.211	0.834	621530	WORD_OFF	n/a	n/a	BUTTERFLY	n/a	2	2	[0, 0, 0]	n/a	catFR1	0	R1202M
827.045	1.6	622364	WORD	n/a	wordpools/wordpool_categorized_EN.txt	WALL	Building	3	2	[0, 0, 0]	n/a	catFR1	0	R1202M
828.663	0.983	623982	WORD_OFF	n/a	n/a	WALL	n/a	3	2	[0, 0, 0]	n/a	catFR1	0	R1202M
829.646	1.6	624964	WORD	n/a	wordpools/wordpool_categorized_EN.txt	ROOM	Building	4	2	[0, 0, 0]	n/a	catFR1	0	R1202M
831.262	0.917	626580	WORD_OFF	n/a	n/a	ROOM	n/a	4	2	[0, 0, 0]	n/a	catFR1	0	R1202M
832.179	1.6	627497	WORD	n/a	wordpools/wordpool_categorized_EN.txt	PLANKTON	OceanAnimals	5	2	[0, 0, 0]	n/a	catFR1	0	R1202M
833.797	0.867	629115	WORD_OFF	n/a	n/a	PLANKTON	n/a	5	2	[0, 0, 0]	n/a	catFR1	0	R1202M
834.664	1.6	629982	WORD	n/a	wordpools/wordpool_categorized_EN.txt	WHALE	OceanAnimals	6	2	[0, 0, 0]	n/a	catFR1	0	R1202M
836.28	0.917	631598	WORD_OFF	n/a	n/a	WHALE	n/a	6	2	[0, 0, 0]	n/a	catFR1	0	R1202M
837.197	1.6	632515	WORD	n/a	wordpools/wordpool_categorized_EN.txt	LADYBUG	Insects	7	2	[0, 0, 0]	n/a	catFR1	0	R1202M
838.814	0.817	634132	WORD_OFF	n/a	n/a	LADYBUG	n/a	7	2	[0, 0, 0]	n/a	catFR1	0	R1202M
839.631	1.6	634949	WORD	n/a	wordpools/wordpool_categorized_EN.txt	MOTH	Insects	8	2	[0, 0, 0]	n/a	catFR1	0	R1202M
841.247	0.934	636565	WORD_OFF	n/a	n/a	MOTH	n/a	8	2	[0, 0, 0]	n/a	catFR1	0	R1202M
842.181	1.6	637499	WORD	n/a	wordpools/wordpool_categorized_EN.txt	BATHROOM	Building	9	2	[0, 0, 0]	n/a	catFR1	0	R1202M
843.799	0.767	639117	WORD_OFF	n/a	n/a	BATHROOM	n/a	9	2	[0, 0, 0]	n/a	catFR1	0	R1202M
844.566	1.6	639884	WORD	n/a	wordpools/wordpool_categorized_EN.txt	ATTIC	Building	10	2	[0, 0, 0]	n/a	catFR1	0	R1202M
846.182	0.834	641500	WORD_OFF	n/a	n/a	ATTIC	n/a	10	2	[0, 0, 0]	n/a	catFR1	0	R1202M
847.016	1.6	642334	WORD	n/a	wordpools/wordpool_categorized_EN.txt	SHRIMP	OceanAnimals	11	2	[0, 0, 0]	n/a	catFR1	0	R1202M
848.633	0.917	643950	WORD_OFF	n/a	n/a	SHRIMP	n/a	11	2	[0, 0, 0]	n/a	catFR1	0	R1202M
849.55	1.6	644867	WORD	n/a	wordpools/wordpool_categorized_EN.txt	OYSTER	OceanAnimals	12	2	[0, 0, 0]	n/a	catFR1	0	R1202M
851.166	0.0	646483	ENCODING_END	n/a	n/a	n/a	n/a	-999	2	[0, 0, 0]	n/a	catFR1	0	R1202M
851.166	0.105	646483	WORD_OFF	n/a	n/a	OYSTER	n/a	12	2	[0, 0, 0]	n/a	catFR1	0	R1202M
851.271	0.0	646588	DISTRACT_START	n/a	n/a	n/a	n/a	-999	2	[0, 0, 0]	n/a	catFR1	0	R1202M
851.271	0.012	646588	START	n/a	n/a	n/a	n/a	-999	3	[-999, -999, -999]	n/a	catFR1	0	R1202M
851.283	7.018	646600	PROB	6.994	n/a	n/a	n/a	-999	3	[6, 9, 7]	22.0	catFR1	0	R1202M
858.301	6.118	653618	PROB	6.087	n/a	n/a	n/a	-999	3	[7, 8, 1]	16.0	catFR1	0	R1202M
864.419	6.552	659736	PROB	6.513	n/a	n/a	n/a	-999	3	[2, 1, 3]	6.0	catFR1	0	R1202M
870.971	9.338	666287	PROB	9.338	n/a	n/a	n/a	-999	3	[9, 9, 8]	26.0	catFR1	0	R1202M
880.309	0.013	675625	STOP	n/a	n/a	n/a	n/a	-999	3	[-999, -999, -999]	n/a	catFR1	0	R1202M
880.322	0.584	675638	DISTRACT_END	n/a	n/a	n/a	n/a	-999	2	[0, 0, 0]	n/a	catFR1	0	R1202M
880.906	0.516	676222	RETRIEVAL_ORIENT	n/a	n/a	n/a	n/a	-999	2	[0, 0, 0]	n/a	catFR1	0	R1202M
881.422	1.832	676738	REC_START	n/a	n/a	n/a	n/a	-999	2	[0, 0, 0]	n/a	catFR1	0	R1202M
883.254	3.693	678570	REC_WORD	1.832	n/a	OYSTER	OceanAnimals	12	2	[0, 0, 0]	n/a	catFR1	0	R1202M
886.947	2.487	682262	REC_WORD	5.525	n/a	LADYBUG	Insects	7	2	[0, 0, 0]	n/a	catFR1	0	R1202M
889.434	3.249	684749	REC_WORD	8.012	n/a	WHALE	OceanAnimals	6	2	[0, 0, 0]	n/a	catFR1	0	R1202M
892.683	18.751	687998	REC_WORD	11.261	n/a	WALL	Building	3	2	[0, 0, 0]	n/a	catFR1	0	R1202M
911.434	5.396	706748	REC_END	n/a	n/a	n/a	n/a	-999	2	[0, 0, 0]	n/a	catFR1	0	R1202M
916.83	0.5	712144	TRIAL	n/a	n/a	n/a	n/a	-999	3	[0, 0, 0]	n/a	catFR1	0	R1202M
917.33	10.0	712644	COUNTDOWN_START	n/a	n/a	n/a	n/a	-999	3	[0, 0, 0]	n/a	catFR1	0	R1202M
927.758	0.007	723071	COUNTDOWN_END	n/a	n/a	n/a	n/a	-999	3	[0, 0, 0]	n/a	catFR1	0	R1202M
927.765	1.6	723078	ORIENT	n/a	n/a	n/a	n/a	-999	3	[0, 0, 0]	n/a	catFR1	0	R1202M
929.381	1.95	724694	ORIENT_OFF	n/a	n/a	n/a	n/a	-999	3	[0, 0, 0]	n/a	catFR1	0	R1202M
931.331	1.6	726644	WORD	n/a	wordpools/wordpool_categorized_EN.txt	STRAWBERRY	Fruit	1	3	[0, 0, 0]	n/a	catFR1	0	R1202M
932.933	0.95	728246	WORD_OFF	n/a	n/a	STRAWBERRY	n/a	1	3	[0, 0, 0]	n/a	catFR1	0	R1202M
933.883	1.6	729196	WORD	n/a	wordpools/wordpool_categorized_EN.txt	APPLE	Fruit	2	3	[0, 0, 0]	n/a	catFR1	0	R1202M
935.499	0.9	730812	WORD_OFF	n/a	n/a	APPLE	n/a	2	3	[0, 0, 0]	n/a	catFR1	0	R1202M
936.399	1.6	731712	WORD	n/a	wordpools/wordpool_categorized_EN.txt	RECLINER	Furniture	3	3	[0, 0, 0]	n/a	catFR1	0	R1202M
938.0	0.934	733313	WORD_OFF	n/a	n/a	RECLINER	n/a	3	3	[0, 0, 0]	n/a	catFR1	0	R1202M
938.934	1.6	734246	WORD	n/a	wordpools/wordpool_categorized_EN.txt	NIGHTSTAND	Furniture	4	3	[0, 0, 0]	n/a	catFR1	0	R1202M
940.551	0.865	735863	WORD_OFF	n/a	n/a	NIGHTSTAND	n/a	4	3	[0, 0, 0]	n/a	catFR1	0	R1202M
941.416	1.6	736728	WORD	n/a	wordpools/wordpool_categorized_EN.txt	CARDINAL	Birds	5	3	[0, 0, 0]	n/a	catFR1	0	R1202M
943.035	0.983	738347	WORD_OFF	n/a	n/a	CARDINAL	n/a	5	3	[0, 0, 0]	n/a	catFR1	0	R1202M
944.018	1.6	739330	WORD	n/a	wordpools/wordpool_categorized_EN.txt	DOVE	Birds	6	3	[0, 0, 0]	n/a	catFR1	0	R1202M
945.635	0.9	740947	WORD_OFF	n/a	n/a	DOVE	n/a	6	3	[0, 0, 0]	n/a	catFR1	0	R1202M
946.535	1.6	741847	WORD	n/a	wordpools/wordpool_categorized_EN.txt	CHAIR	Furniture	7	3	[0, 0, 0]	n/a	catFR1	0	R1202M
948.151	0.917	743463	WORD_OFF	n/a	n/a	CHAIR	n/a	7	3	[0, 0, 0]	n/a	catFR1	0	R1202M
949.068	1.6	744380	WORD	n/a	wordpools/wordpool_categorized_EN.txt	BOOKCASE	Furniture	8	3	[0, 0, 0]	n/a	catFR1	0	R1202M
950.686	0.984	745998	WORD_OFF	n/a	n/a	BOOKCASE	n/a	8	3	[0, 0, 0]	n/a	catFR1	0	R1202M
951.67	1.6	746982	WORD	n/a	wordpools/wordpool_categorized_EN.txt	CHERRY	Fruit	9	3	[0, 0, 0]	n/a	catFR1	0	R1202M
953.286	0.867	748598	WORD_OFF	n/a	n/a	CHERRY	n/a	9	3	[0, 0, 0]	n/a	catFR1	0	R1202M
954.153	1.6	749465	WORD	n/a	wordpools/wordpool_categorized_EN.txt	LIME	Fruit	10	3	[0, 0, 0]	n/a	catFR1	0	R1202M
955.771	0.983	751083	WORD_OFF	n/a	n/a	LIME	n/a	10	3	[0, 0, 0]	n/a	catFR1	0	R1202M
956.754	1.6	752065	WORD	n/a	wordpools/wordpool_categorized_EN.txt	CROW	Birds	11	3	[0, 0, 0]	n/a	catFR1	0	R1202M
958.37	0.817	753681	WORD_OFF	n/a	n/a	CROW	n/a	11	3	[0, 0, 0]	n/a	catFR1	0	R1202M
959.187	1.6	754498	WORD	n/a	wordpools/wordpool_categorized_EN.txt	SPARROW	Birds	12	3	[0, 0, 0]	n/a	catFR1	0	R1202M
960.805	0.0	756116	WORD_OFF	n/a	n/a	SPARROW	n/a	12	3	[0, 0, 0]	n/a	catFR1	0	R1202M
960.805	0.103	756116	ENCODING_END	n/a	n/a	n/a	n/a	-999	3	[0, 0, 0]	n/a	catFR1	0	R1202M
960.908	0.0	756219	DISTRACT_START	n/a	n/a	n/a	n/a	-999	3	[0, 0, 0]	n/a	catFR1	0	R1202M
960.908	0.014	756219	START	n/a	n/a	n/a	n/a	-999	4	[-999, -999, -999]	n/a	catFR1	0	R1202M
960.922	7.101	756233	PROB	7.066	n/a	n/a	n/a	-999	4	[2, 9, 5]	16.0	catFR1	0	R1202M
968.023	5.884	763334	PROB	5.853	n/a	n/a	n/a	-999	4	[6, 6, 4]	16.0	catFR1	0	R1202M
973.907	5.401	769218	PROB	5.368	n/a	n/a	n/a	-999	4	[6, 9, 1]	16.0	catFR1	0	R1202M
979.308	6.984	774618	PROB	6.984	n/a	n/a	n/a	-999	4	[3, 6, 2]	11.0	catFR1	0	R1202M
986.292	0.017	781602	STOP	n/a	n/a	n/a	n/a	-999	4	[-999, -999, -999]	n/a	catFR1	0	R1202M
986.309	0.701	781619	DISTRACT_END	n/a	n/a	n/a	n/a	-999	3	[0, 0, 0]	n/a	catFR1	0	R1202M
987.01	0.517	782320	RETRIEVAL_ORIENT	n/a	n/a	n/a	n/a	-999	3	[0, 0, 0]	n/a	catFR1	0	R1202M
987.527	4.507	782837	REC_START	n/a	n/a	n/a	n/a	-999	3	[0, 0, 0]	n/a	catFR1	0	R1202M
992.034	2.678	787344	REC_WORD	4.507	n/a	CHAIR	Furniture	7	3	[0, 0, 0]	n/a	catFR1	0	R1202M
994.712	2.322	790021	REC_WORD	7.185	n/a	NIGHTSTAND	Furniture	4	3	[0, 0, 0]	n/a	catFR1	0	R1202M
997.034	4.581	792343	REC_WORD	9.507	n/a	SPARROW	Birds	12	3	[0, 0, 0]	n/a	catFR1	0	R1202M
1001.615	2.856	796924	REC_WORD	14.088	n/a	STRAWBERRY	Fruit	1	3	[0, 0, 0]	n/a	catFR1	0	R1202M
1004.471	4.678	799780	REC_WORD	16.944	n/a	CHERRY	Fruit	9	3	[0, 0, 0]	n/a	catFR1	0	R1202M
1009.149	8.389	804458	REC_WORD	21.622	n/a	DOVE	Birds	6	3	[0, 0, 0]	n/a	catFR1	0	R1202M
1017.538	6.595	812846	REC_END	n/a	n/a	n/a	n/a	-999	3	[0, 0, 0]	n/a	catFR1	0	R1202M
1024.133	0.5	819441	TRIAL	n/a	n/a	n/a	n/a	-999	4	[0, 0, 0]	n/a	catFR1	0	R1202M
1024.633	10.0	819941	COUNTDOWN_START	n/a	n/a	n/a	n/a	-999	4	[0, 0, 0]	n/a	catFR1	0	R1202M
1035.061	0.007	830368	COUNTDOWN_END	n/a	n/a	n/a	n/a	-999	4	[0, 0, 0]	n/a	catFR1	0	R1202M
1035.068	1.6	830375	ORIENT	n/a	n/a	n/a	n/a	-999	4	[0, 0, 0]	n/a	catFR1	0	R1202M
1036.686	2.051	831993	ORIENT_OFF	n/a	n/a	n/a	n/a	-999	4	[0, 0, 0]	n/a	catFR1	0	R1202M
1038.737	1.6	834044	WORD	n/a	wordpools/wordpool_categorized_EN.txt	ORANGE	Fruit	1	4	[0, 0, 0]	n/a	catFR1	0	R1202M
1040.353	1.017	835660	WORD_OFF	n/a	n/a	ORANGE	n/a	1	4	[0, 0, 0]	n/a	catFR1	0	R1202M
1041.37	1.6	836677	WORD	n/a	wordpools/wordpool_categorized_EN.txt	GRAPE	Fruit	2	4	[0, 0, 0]	n/a	catFR1	0	R1202M
1042.987	0.834	838294	WORD_OFF	n/a	n/a	GRAPE	n/a	2	4	[0, 0, 0]	n/a	catFR1	0	R1202M
1043.821	1.6	839128	WORD	n/a	wordpools/wordpool_categorized_EN.txt	GRATER	KitchenTools	3	4	[0, 0, 0]	n/a	catFR1	0	R1202M
1045.437	0.85	840744	WORD_OFF	n/a	n/a	GRATER	n/a	3	4	[0, 0, 0]	n/a	catFR1	0	R1202M
1046.287	1.6	841594	WORD	n/a	wordpools/wordpool_categorized_EN.txt	STRAINER	KitchenTools	4	4	[0, 0, 0]	n/a	catFR1	0	R1202M
1047.905	1.0	843211	WORD_OFF	n/a	n/a	STRAINER	n/a	4	4	[0, 0, 0]	n/a	catFR1	0	R1202M
1048.905	1.6	844211	WORD	n/a	wordpools/wordpool_categorized_EN.txt	FOOTBALL	Toys	5	4	[0, 0, 0]	n/a	catFR1	0	R1202M
1050.522	0.833	845828	WORD_OFF	n/a	n/a	FOOTBALL	n/a	5	4	[0, 0, 0]	n/a	catFR1	0	R1202M
1051.355	1.6	846661	WORD	n/a	wordpools/wordpool_categorized_EN.txt	SLINKY	Toys	6	4	[0, 0, 0]	n/a	catFR1	0	R1202M
1052.973	0.95	848279	WORD_OFF	n/a	n/a	SLINKY	n/a	6	4	[0, 0, 0]	n/a	catFR1	0	R1202M
1053.923	1.6	849229	WORD	n/a	wordpools/wordpool_categorized_EN.txt	BLUEBERRY	Fruit	7	4	[0, 0, 0]	n/a	catFR1	0	R1202M
1055.54	1.0	850846	WORD_OFF	n/a	n/a	BLUEBERRY	n/a	7	4	[0, 0, 0]	n/a	catFR1	0	R1202M
1056.54	1.6	851846	WORD	n/a	wordpools/wordpool_categorized_EN.txt	PEAR	Fruit	8	4	[0, 0, 0]	n/a	catFR1	0	R1202M
1058.156	1.0	853462	WORD_OFF	n/a	n/a	PEAR	n/a	8	4	[0, 0, 0]	n/a	catFR1	0	R1202M
1059.156	1.6	854462	WORD	n/a	wordpools/wordpool_categorized_EN.txt	FORK	KitchenTools	9	4	[0, 0, 0]	n/a	catFR1	0	R1202M
1060.757	0.834	856063	WORD_OFF	n/a	n/a	FORK	n/a	9	4	[0, 0, 0]	n/a	catFR1	0	R1202M
1061.591	1.6	856897	WORD	n/a	wordpools/wordpool_categorized_EN.txt	COLANDER	KitchenTools	10	4	[0, 0, 0]	n/a	catFR1	0	R1202M
1063.207	1.0	858513	WORD_OFF	n/a	n/a	COLANDER	n/a	10	4	[0, 0, 0]	n/a	catFR1	0	R1202M
1064.207	1.6	859513	WORD	n/a	wordpools/wordpool_categorized_EN.txt	MARBLES	Toys	11	4	[0, 0, 0]	n/a	catFR1	0	R1202M
1065.825	1.0	861130	WORD_OFF	n/a	n/a	MARBLES	n/a	11	4	[0, 0, 0]	n/a	catFR1	0	R1202M
1066.825	1.6	862130	WORD	n/a	wordpools/wordpool_categorized_EN.txt	FRISBEE	Toys	12	4	[0, 0, 0]	n/a	catFR1	0	R1202M
1068.441	0.001	863746	WORD_OFF	n/a	n/a	FRISBEE	n/a	12	4	[0, 0, 0]	n/a	catFR1	0	R1202M
1068.442	0.134	863747	ENCODING_END	n/a	n/a	n/a	n/a	-999	4	[0, 0, 0]	n/a	catFR1	0	R1202M
1068.576	0.0	863881	DISTRACT_START	n/a	n/a	n/a	n/a	-999	4	[0, 0, 0]	n/a	catFR1	0	R1202M
1068.576	0.016	863881	START	n/a	n/a	n/a	n/a	-999	5	[-999, -999, -999]	n/a	catFR1	0	R1202M
1068.592	5.834	863897	PROB	5.795	n/a	n/a	n/a	-999	5	[9, 6, 8]	23.0	catFR1	0	R1202M
1074.426	3.951	869731	PROB	3.922	n/a	n/a	n/a	-999	5	[8, 2, 2]	12.0	catFR1	0	R1202M
1078.377	4.934	873682	PROB	4.899	n/a	n/a	n/a	-999	5	[9, 2, 3]	14.0	catFR1	0	R1202M
1083.311	4.751	878616	PROB	4.719	n/a	n/a	n/a	-999	5	[6, 1, 5]	12.0	catFR1	0	R1202M
1088.062	5.407	883366	PROB	5.407	n/a	n/a	n/a	-999	5	[4, 4, 9]	17.0	catFR1	0	R1202M
1093.469	0.011	888773	STOP	n/a	n/a	n/a	n/a	-999	5	[-999, -999, -999]	n/a	catFR1	0	R1202M
1093.48	0.616	888784	DISTRACT_END	n/a	n/a	n/a	n/a	-999	4	[0, 0, 0]	n/a	catFR1	0	R1202M
1094.096	0.519	889400	RETRIEVAL_ORIENT	n/a	n/a	n/a	n/a	-999	4	[0, 0, 0]	n/a	catFR1	0	R1202M
1094.615	3.291	889919	REC_START	n/a	n/a	n/a	n/a	-999	4	[0, 0, 0]	n/a	catFR1	0	R1202M
1097.906	2.731	893210	REC_WORD	3.291	n/a	GRATER	KitchenTools	3	4	[0, 0, 0]	n/a	catFR1	0	R1202M
1100.637	5.363	895941	REC_WORD	6.022	n/a	STRAINER	KitchenTools	4	4	[0, 0, 0]	n/a	catFR1	0	R1202M
1106.0	4.336	901303	REC_WORD	11.385	n/a	GRAPE	Fruit	2	4	[0, 0, 0]	n/a	catFR1	0	R1202M
1110.336	14.289	905639	REC_WORD	15.721	n/a	BLUEBERRY	Fruit	7	4	[0, 0, 0]	n/a	catFR1	0	R1202M
1124.625	6.029	919927	REC_END	n/a	n/a	n/a	n/a	-999	4	[0, 0, 0]	n/a	catFR1	0	R1202M
1130.654	0.5	925956	TRIAL	n/a	n/a	n/a	n/a	-999	5	[0, 0, 0]	n/a	catFR1	0	R1202M
1131.154	10.0	926456	COUNTDOWN_START	n/a	n/a	n/a	n/a	-999	5	[0, 0, 0]	n/a	catFR1	0	R1202M
1141.582	0.008	936883	COUNTDOWN_END	n/a	n/a	n/a	n/a	-999	5	[0, 0, 0]	n/a	catFR1	0	R1202M
1141.59	1.6	936891	ORIENT	n/a	n/a	n/a	n/a	-999	5	[0, 0, 0]	n/a	catFR1	0	R1202M
1143.206	2.05	938507	ORIENT_OFF	n/a	n/a	n/a	n/a	-999	5	[0, 0, 0]	n/a	catFR1	0	R1202M
1145.256	1.6	940557	WORD	n/a	wordpools/wordpool_categorized_EN.txt	BIRCH	Trees	1	5	[0, 0, 0]	n/a	catFR1	0	R1202M
1146.857	0.817	942158	WORD_OFF	n/a	n/a	BIRCH	n/a	1	5	[0, 0, 0]	n/a	catFR1	0	R1202M
1147.674	1.6	942975	WORD	n/a	wordpools/wordpool_categorized_EN.txt	SPRUCE	Trees	2	5	[0, 0, 0]	n/a	catFR1	0	R1202M
1149.29	0.801	944591	WORD_OFF	n/a	n/a	SPRUCE	n/a	2	5	[0, 0, 0]	n/a	catFR1	0	R1202M
1150.091	1.6	945392	WORD	n/a	wordpools/wordpool_categorized_EN.txt	THUNDERSTORM	Weather	3	5	[0, 0, 0]	n/a	catFR1	0	R1202M
1151.709	0.9	947010	WORD_OFF	n/a	n/a	THUNDERSTORM	n/a	3	5	[0, 0, 0]	n/a	catFR1	0	R1202M
1152.609	1.6	947910	WORD	n/a	wordpools/wordpool_categorized_EN.txt	CLOUD	Weather	4	5	[0, 0, 0]	n/a	catFR1	0	R1202M
1154.225	0.833	949526	WORD_OFF	n/a	n/a	CLOUD	n/a	4	5	[0, 0, 0]	n/a	catFR1	0	R1202M
1155.058	1.6	950359	WORD	n/a	wordpools/wordpool_categorized_EN.txt	ARM	BodyParts	5	5	[0, 0, 0]	n/a	catFR1	0	R1202M
1156.659	0.967	951959	WORD_OFF	n/a	n/a	ARM	n/a	5	5	[0, 0, 0]	n/a	catFR1	0	R1202M
1157.626	1.6	952926	WORD	n/a	wordpools/wordpool_categorized_EN.txt	ELBOW	BodyParts	6	5	[0, 0, 0]	n/a	catFR1	0	R1202M
1159.242	0.785	954542	WORD_OFF	n/a	n/a	ELBOW	n/a	6	5	[0, 0, 0]	n/a	catFR1	0	R1202M
1160.027	1.6	955327	WORD	n/a	wordpools/wordpool_categorized_EN.txt	DRIZZLE	Weather	7	5	[0, 0, 0]	n/a	catFR1	0	R1202M
1161.644	0.849	956944	WORD_OFF	n/a	n/a	DRIZZLE	n/a	7	5	[0, 0, 0]	n/a	catFR1	0	R1202M
1162.493	1.6	957793	WORD	n/a	wordpools/wordpool_categorized_EN.txt	SNOW	Weather	8	5	[0, 0, 0]	n/a	catFR1	0	R1202M
1164.11	0.901	959410	WORD_OFF	n/a	n/a	SNOW	n/a	8	5	[0, 0, 0]	n/a	catFR1	0	R1202M
1165.011	1.6	960311	WORD	n/a	wordpools/wordpool_categorized_EN.txt	OAK	Trees	9	5	[0, 0, 0]	n/a	catFR1	0	R1202M
1166.628	1.0	961928	WORD_OFF	n/a	n/a	OAK	n/a	9	5	[0, 0, 0]	n/a	catFR1	0	R1202M
1167.628	1.6	962928	WORD	n/a	wordpools/wordpool_categorized_EN.txt	CEDAR	Trees	10	5	[0, 0, 0]	n/a	catFR1	0	R1202M
1169.244	0.934	964544	WORD_OFF	n/a	n/a	CEDAR	n/a	10	5	[0, 0, 0]	n/a	catFR1	0	R1202M
1170.178	1.6	965478	WORD	n/a	wordpools/wordpool_categorized_EN.txt	TOE	BodyParts	11	5	[0, 0, 0]	n/a	catFR1	0	R1202M
1171.796	0.833	967096	WORD_OFF	n/a	n/a	TOE	n/a	11	5	[0, 0, 0]	n/a	catFR1	0	R1202M
1172.629	1.6	967929	WORD	n/a	wordpools/wordpool_categorized_EN.txt	HAND	BodyParts	12	5	[0, 0, 0]	n/a	catFR1	0	R1202M
1174.245	0.0	969545	WORD_OFF	n/a	n/a	HAND	n/a	12	5	[0, 0, 0]	n/a	catFR1	0	R1202M
1174.245	0.103	969545	ENCODING_END	n/a	n/a	n/a	n/a	-999	5	[0, 0, 0]	n/a	catFR1	0	R1202M
1174.348	0.001	969648	DISTRACT_START	n/a	n/a	n/a	n/a	-999	5	[0, 0, 0]	n/a	catFR1	0	R1202M
1174.349	0.013	969649	START	n/a	n/a	n/a	n/a	-999	6	[-999, -999, -999]	n/a	catFR1	0	R1202M
1174.362	4.435	969662	PROB	4.403	n/a	n/a	n/a	-999	6	[4, 4, 3]	11.0	catFR1	0	R1202M
1178.797	5.151	974096	PROB	5.128	n/a	n/a	n/a	-999	6	[6, 9, 1]	16.0	catFR1	0	R1202M
1183.948	4.634	979247	PROB	4.601	n/a	n/a	n/a	-999	6	[1, 7, 2]	10.0	catFR1	0	R1202M
1188.582	5.018	983881	PROB	4.982	n/a	n/a	n/a	-999	6	[6, 3, 1]	10.0	catFR1	0	R1202M
1193.6	4.74	988898	PROB	4.74	n/a	n/a	n/a	-999	6	[3, 9, 1]	13.0	catFR1	0	R1202M
1198.34	0.01	993638	STOP	n/a	n/a	n/a	n/a	-999	6	[-999, -999, -999]	n/a	catFR1	0	R1202M
1198.35	0.518	993648	DISTRACT_END	n/a	n/a	n/a	n/a	-999	5	[0, 0, 0]	n/a	catFR1	0	R1202M
1198.868	0.516	994166	RETRIEVAL_ORIENT	n/a	n/a	n/a	n/a	-999	5	[0, 0, 0]	n/a	catFR1	0	R1202M
1199.384	3.307	994682	REC_START	n/a	n/a	n/a	n/a	-999	5	[0, 0, 0]	n/a	catFR1	0	R1202M
1202.691	2.806	997989	REC_WORD	3.307	n/a	SNOW	Weather	8	5	[0, 0, 0]	n/a	catFR1	0	R1202M
1205.497	23.896	1000795	REC_WORD	6.113	n/a	CLOUD	Weather	4	5	[0, 0, 0]	n/a	catFR1	0	R1202M
1229.393	7.915	1024689	REC_END	n/a	n/a	n/a	n/a	-999	5	[0, 0, 0]	n/a	catFR1	0	R1202M
1237.308	0.5	1032604	TRIAL	n/a	n/a	n/a	n/a	-999	6	[0, 0, 0]	n/a	catFR1	0	R1202M
1237.808	10.0	1033104	COUNTDOWN_START	n/a	n/a	n/a	n/a	-999	6	[0, 0, 0]	n/a	catFR1	0	R1202M
1248.236	0.007	1043531	COUNTDOWN_END	n/a	n/a	n/a	n/a	-999	6	[0, 0, 0]	n/a	catFR1	0	R1202M
1248.243	1.6	1043538	ORIENT	n/a	n/a	n/a	n/a	-999	6	[0, 0, 0]	n/a	catFR1	0	R1202M
1249.861	1.867	1045156	ORIENT_OFF	n/a	n/a	n/a	n/a	-999	6	[0, 0, 0]	n/a	catFR1	0	R1202M
1251.728	1.6	1047023	WORD	n/a	wordpools/wordpool_categorized_EN.txt	ORCHID	Flowers	1	6	[0, 0, 0]	n/a	catFR1	0	R1202M
1253.344	0.884	1048639	WORD_OFF	n/a	n/a	ORCHID	n/a	1	6	[0, 0, 0]	n/a	catFR1	0	R1202M
1254.228	1.6	1049523	WORD	n/a	wordpools/wordpool_categorized_EN.txt	ROSE	Flowers	2	6	[0, 0, 0]	n/a	catFR1	0	R1202M
1255.845	0.867	1051140	WORD_OFF	n/a	n/a	ROSE	n/a	2	6	[0, 0, 0]	n/a	catFR1	0	R1202M
1256.712	1.6	1052007	WORD	n/a	wordpools/wordpool_categorized_EN.txt	FLUTE	Instruments	3	6	[0, 0, 0]	n/a	catFR1	0	R1202M
1258.328	0.884	1053623	WORD_OFF	n/a	n/a	FLUTE	n/a	3	6	[0, 0, 0]	n/a	catFR1	0	R1202M
1259.212	1.6	1054507	WORD	n/a	wordpools/wordpool_categorized_EN.txt	TUBA	Instruments	4	6	[0, 0, 0]	n/a	catFR1	0	R1202M
1260.83	0.883	1056125	WORD_OFF	n/a	n/a	TUBA	n/a	4	6	[0, 0, 0]	n/a	catFR1	0	R1202M
1261.713	1.6	1057008	WORD	n/a	wordpools/wordpool_categorized_EN.txt	WALNUT	Trees	5	6	[0, 0, 0]	n/a	catFR1	0	R1202M
1263.329	0.784	1058624	WORD_OFF	n/a	n/a	WALNUT	n/a	5	6	[0, 0, 0]	n/a	catFR1	0	R1202M
1264.113	1.6	1059408	WORD	n/a	wordpools/wordpool_categorized_EN.txt	CYPRESS	Trees	6	6	[0, 0, 0]	n/a	catFR1	0	R1202M
1265.731	0.983	1061025	WORD_OFF	n/a	n/a	CYPRESS	n/a	6	6	[0, 0, 0]	n/a	catFR1	0	R1202M
1266.714	1.6	1062008	WORD	n/a	wordpools/wordpool_categorized_EN.txt	PIANO	Instruments	7	6	[0, 0, 0]	n/a	catFR1	0	R1202M
1268.33	0.817	1063624	WORD_OFF	n/a	n/a	PIANO	n/a	7	6	[0, 0, 0]	n/a	catFR1	0	R1202M
1269.147	1.6	1064441	WORD	n/a	wordpools/wordpool_categorized_EN.txt	DRUM	Instruments	8	6	[0, 0, 0]	n/a	catFR1	0	R1202M
1270.765	0.767	1066059	WORD_OFF	n/a	n/a	DRUM	n/a	8	6	[0, 0, 0]	n/a	catFR1	0	R1202M
1271.532	1.6	1066826	WORD	n/a	wordpools/wordpool_categorized_EN.txt	MARIGOLD	Flowers	9	6	[0, 0, 0]	n/a	catFR1	0	R1202M
1273.148	0.801	1068442	WORD_OFF	n/a	n/a	MARIGOLD	n/a	9	6	[0, 0, 0]	n/a	catFR1	0	R1202M
1273.949	1.6	1069243	WORD	n/a	wordpools/wordpool_categorized_EN.txt	PETUNIA	Flowers	10	6	[0, 0, 0]	n/a	catFR1	0	R1202M
1275.566	0.899	1070860	WORD_OFF	n/a	n/a	PETUNIA	n/a	10	6	[0, 0, 0]	n/a	catFR1	0	R1202M
1276.465	1.6	1071759	WORD	n/a	wordpools/wordpool_categorized_EN.txt	ELM	Trees	11	6	[0, 0, 0]	n/a	catFR1	0	R1202M
1278.082	0.935	1073376	WORD_OFF	n/a	n/a	ELM	n/a	11	6	[0, 0, 0]	n/a	catFR1	0	R1202M
1279.017	1.6	1074311	WORD	n/a	wordpools/wordpool_categorized_EN.txt	WILLOW	Trees	12	6	[0, 0, 0]	n/a	catFR1	0	R1202M
1280.634	0.0	1075928	ENCODING_END	n/a	n/a	n/a	n/a	-999	6	[0, 0, 0]	n/a	catFR1	0	R1202M
1280.634	0.144	1075928	WORD_OFF	n/a	n/a	WILLOW	n/a	12	6	[0, 0, 0]	n/a	catFR1	0	R1202M
1280.778	0.0	1076072	DISTRACT_START	n/a	n/a	n/a	n/a	-999	6	[0, 0, 0]	n/a	catFR1	0	R1202M
1280.778	0.022	1076072	START	n/a	n/a	n/a	n/a	-999	7	[-999, -999, -999]	n/a	catFR1	0	R1202M
1280.8	7.651	1076094	PROB	7.62	n/a	n/a	n/a	-999	7	[4, 8, 9]	21.0	catFR1	0	R1202M
1288.451	4.552	1083744	PROB	4.515	n/a	n/a	n/a	-999	7	[4, 1, 5]	10.0	catFR1	0	R1202M
1293.003	10.361	1088296	PROB	10.361	n/a	n/a	n/a	-999	7	[8, 6, 7]	21.0	catFR1	0	R1202M
1303.364	0.007	1098656	STOP	n/a	n/a	n/a	n/a	-999	7	[-999, -999, -999]	n/a	catFR1	0	R1202M
1303.371	0.65	1098663	DISTRACT_END	n/a	n/a	n/a	n/a	-999	6	[0, 0, 0]	n/a	catFR1	0	R1202M
1304.021	0.518	1099313	RETRIEVAL_ORIENT	n/a	n/a	n/a	n/a	-999	6	[0, 0, 0]	n/a	catFR1	0	R1202M
1304.539	9.551	1099831	REC_START	n/a	n/a	n/a	n/a	-999	6	[0, 0, 0]	n/a	catFR1	0	R1202M
1314.09	6.908	1109382	REC_WORD	9.551	n/a	ELM	Trees	11	6	[0, 0, 0]	n/a	catFR1	0	R1202M
1320.998	3.937	1116289	REC_WORD	16.459	n/a	MARIGOLD	Flowers	9	6	[0, 0, 0]	n/a	catFR1	0	R1202M
1324.935	7.354	1120226	REC_WORD	20.396	n/a	PETUNIA	Flowers	10	6	[0, 0, 0]	n/a	catFR1	0	R1202M
1332.289	2.26	1127580	REC_WORD	27.75	n/a	ROSE	Flowers	2	6	[0, 0, 0]	n/a	catFR1	0	R1202M
1334.549	6.013	1129840	REC_END	n/a	n/a	n/a	n/a	-999	6	[0, 0, 0]	n/a	catFR1	0	R1202M
1340.562	0.5	1135852	TRIAL	n/a	n/a	n/a	n/a	-999	7	[0, 0, 0]	n/a	catFR1	0	R1202M
1341.062	10.0	1136352	COUNTDOWN_START	n/a	n/a	n/a	n/a	-999	7	[0, 0, 0]	n/a	catFR1	0	R1202M
1351.49	0.006	1146780	COUNTDOWN_END	n/a	n/a	n/a	n/a	-999	7	[0, 0, 0]	n/a	catFR1	0	R1202M
1351.496	1.6	1146786	ORIENT	n/a	n/a	n/a	n/a	-999	7	[0, 0, 0]	n/a	catFR1	0	R1202M
1353.113	1.885	1148403	ORIENT_OFF	n/a	n/a	n/a	n/a	-999	7	[0, 0, 0]	n/a	catFR1	0	R1202M
1354.998	1.6	1150288	WORD	n/a	wordpools/wordpool_categorized_EN.txt	BLOCKS	Toys	1	7	[0, 0, 0]	n/a	catFR1	0	R1202M
1356.615	0.917	1151904	WORD_OFF	n/a	n/a	BLOCKS	n/a	1	7	[0, 0, 0]	n/a	catFR1	0	R1202M
1357.532	1.6	1152821	WORD	n/a	wordpools/wordpool_categorized_EN.txt	BASKETBALL	Toys	2	7	[0, 0, 0]	n/a	catFR1	0	R1202M
1359.148	0.9	1154437	WORD_OFF	n/a	n/a	BASKETBALL	n/a	2	7	[0, 0, 0]	n/a	catFR1	0	R1202M
1360.048	1.6	1155337	WORD	n/a	wordpools/wordpool_categorized_EN.txt	COFFEE	Beverages	3	7	[0, 0, 0]	n/a	catFR1	0	R1202M
1361.649	0.799	1156938	WORD_OFF	n/a	n/a	COFFEE	n/a	3	7	[0, 0, 0]	n/a	catFR1	0	R1202M
1362.448	1.6	1157737	WORD	n/a	wordpools/wordpool_categorized_EN.txt	TEA	Beverages	4	7	[0, 0, 0]	n/a	catFR1	0	R1202M
1364.065	0.952	1159354	WORD_OFF	n/a	n/a	TEA	n/a	4	7	[0, 0, 0]	n/a	catFR1	0	R1202M
1365.017	1.6	1160306	WORD	n/a	wordpools/wordpool_categorized_EN.txt	HURRICANE	Weather	5	7	[0, 0, 0]	n/a	catFR1	0	R1202M
1366.634	0.832	1161923	WORD_OFF	n/a	n/a	HURRICANE	n/a	5	7	[0, 0, 0]	n/a	catFR1	0	R1202M
1367.466	1.6	1162755	WORD	n/a	wordpools/wordpool_categorized_EN.txt	LIGHTNING	Weather	6	7	[0, 0, 0]	n/a	catFR1	0	R1202M
1369.083	0.801	1164372	WORD_OFF	n/a	n/a	LIGHTNING	n/a	6	7	[0, 0, 0]	n/a	catFR1	0	R1202M
1369.884	1.6	1165173	WORD	n/a	wordpools/wordpool_categorized_EN.txt	JUICE	Beverages	7	7	[0, 0, 0]	n/a	catFR1	0	R1202M
1371.5	0.917	1166789	WORD_OFF	n/a	n/a	JUICE	n/a	7	7	[0, 0, 0]	n/a	catFR1	0	R1202M
1372.417	1.6	1167706	WORD	n/a	wordpools/wordpool_categorized_EN.txt	RUM	Beverages	8	7	[0, 0, 0]	n/a	catFR1	0	R1202M
1374.035	0.984	1169324	WORD_OFF	n/a	n/a	RUM	n/a	8	7	[0, 0, 0]	n/a	catFR1	0	R1202M
1375.019	1.6	1170307	WORD	n/a	wordpools/wordpool_categorized_EN.txt	BALL	Toys	9	7	[0, 0, 0]	n/a	catFR1	0	R1202M
1376.636	0.782	1171924	WORD_OFF	n/a	n/a	BALL	n/a	9	7	[0, 0, 0]	n/a	catFR1	0	R1202M
1377.418	1.6	1172706	WORD	n/a	wordpools/wordpool_categorized_EN.txt	DOLLHOUSE	Toys	10	7	[0, 0, 0]	n/a	catFR1	0	R1202M
1379.036	0.967	1174324	WORD_OFF	n/a	n/a	DOLLHOUSE	n/a	10	7	[0, 0, 0]	n/a	catFR1	0	R1202M
1380.003	1.6	1175291	WORD	n/a	wordpools/wordpool_categorized_EN.txt	THUNDER	Weather	11	7	[0, 0, 0]	n/a	catFR1	0	R1202M
1381.62	1.0	1176908	WORD_OFF	n/a	n/a	THUNDER	n/a	11	7	[0, 0, 0]	n/a	catFR1	0	R1202M
1382.62	1.6	1177908	WORD	n/a	wordpools/wordpool_categorized_EN.txt	RAIN	Weather	12	7	[0, 0, 0]	n/a	catFR1	0	R1202M
1384.236	0.0	1179524	ENCODING_END	n/a	n/a	n/a	n/a	-999	7	[0, 0, 0]	n/a	catFR1	0	R1202M
1384.236	0.132	1179524	WORD_OFF	n/a	n/a	RAIN	n/a	12	7	[0, 0, 0]	n/a	catFR1	0	R1202M
1384.368	0.0	1179656	DISTRACT_START	n/a	n/a	n/a	n/a	-999	7	[0, 0, 0]	n/a	catFR1	0	R1202M
1384.368	0.018	1179656	START	n/a	n/a	n/a	n/a	-999	8	[-999, -999, -999]	n/a	catFR1	0	R1202M
1384.386	8.386	1179674	PROB	8.362	n/a	n/a	n/a	-999	8	[7, 8, 6]	21.0	catFR1	0	R1202M
1392.772	5.968	1188059	PROB	5.945	n/a	n/a	n/a	-999	8	[5, 3, 6]	14.0	catFR1	0	R1202M
1398.74	3.633	1194027	PROB	3.608	n/a	n/a	n/a	-999	8	[6, 3, 2]	11.0	catFR1	0	R1202M
1402.373	4.185	1197660	PROB	4.185	n/a	n/a	n/a	-999	8	[9, 9, 4]	22.0	catFR1	0	R1202M
1406.558	0.017	1201845	STOP	n/a	n/a	n/a	n/a	-999	8	[-999, -999, -999]	n/a	catFR1	0	R1202M
1406.575	0.532	1201862	DISTRACT_END	n/a	n/a	n/a	n/a	-999	7	[0, 0, 0]	n/a	catFR1	0	R1202M
1407.107	0.519	1202394	RETRIEVAL_ORIENT	n/a	n/a	n/a	n/a	-999	7	[0, 0, 0]	n/a	catFR1	0	R1202M
1407.626	4.174	1202913	REC_START	n/a	n/a	n/a	n/a	-999	7	[0, 0, 0]	n/a	catFR1	0	R1202M
1411.8	17.258	1207086	REC_WORD	4.174	n/a	THUNDER	Weather	11	7	[0, 0, 0]	n/a	catFR1	0	R1202M
1429.058	6.042	1224344	REC_WORD	21.432	n/a	CLOUD	n/a	-999	7	[0, 0, 0]	n/a	catFR1	0	R1202M
1435.1	2.536	1230385	REC_WORD	27.474	n/a	WIND	n/a	-999	7	[0, 0, 0]	n/a	catFR1	0	R1202M
1437.636	17.614	1232921	REC_END	n/a	n/a	n/a	n/a	-999	7	[0, 0, 0]	n/a	catFR1	0	R1202M
1455.25	0.5	1250534	TRIAL	n/a	n/a	n/a	n/a	-999	8	[0, 0, 0]	n/a	catFR1	0	R1202M
1455.75	10.0	1251034	COUNTDOWN_START	n/a	n/a	n/a	n/a	-999	8	[0, 0, 0]	n/a	catFR1	0	R1202M
1466.178	0.007	1261461	COUNTDOWN_END	n/a	n/a	n/a	n/a	-999	8	[0, 0, 0]	n/a	catFR1	0	R1202M
1466.185	1.6	1261468	ORIENT	n/a	n/a	n/a	n/a	-999	8	[0, 0, 0]	n/a	catFR1	0	R1202M
1467.803	2.217	1263086	ORIENT_OFF	n/a	n/a	n/a	n/a	-999	8	[0, 0, 0]	n/a	catFR1	0	R1202M
1470.02	1.6	1265303	WORD	n/a	wordpools/wordpool_categorized_EN.txt	PANTS	Clothing	1	8	[0, 0, 0]	n/a	catFR1	0	R1202M
1471.637	0.95	1266920	WORD_OFF	n/a	n/a	PANTS	n/a	1	8	[0, 0, 0]	n/a	catFR1	0	R1202M
1472.587	1.6	1267870	WORD	n/a	wordpools/wordpool_categorized_EN.txt	JEANS	Clothing	2	8	[0, 0, 0]	n/a	catFR1	0	R1202M
1474.203	0.768	1269486	WORD_OFF	n/a	n/a	JEANS	n/a	2	8	[0, 0, 0]	n/a	catFR1	0	R1202M
1474.971	1.6	1270254	WORD	n/a	wordpools/wordpool_categorized_EN.txt	HALLWAY	Building	3	8	[0, 0, 0]	n/a	catFR1	0	R1202M
1476.588	1.017	1271871	WORD_OFF	n/a	n/a	HALLWAY	n/a	3	8	[0, 0, 0]	n/a	catFR1	0	R1202M
1477.605	1.6	1272888	WORD	n/a	wordpools/wordpool_categorized_EN.txt	STAIRS	Building	4	8	[0, 0, 0]	n/a	catFR1	0	R1202M
1479.221	0.917	1274504	WORD_OFF	n/a	n/a	STAIRS	n/a	4	8	[0, 0, 0]	n/a	catFR1	0	R1202M
1480.138	1.6	1275421	WORD	n/a	wordpools/wordpool_categorized_EN.txt	LADLE	KitchenTools	5	8	[0, 0, 0]	n/a	catFR1	0	R1202M
1481.756	0.967	1277039	WORD_OFF	n/a	n/a	LADLE	n/a	5	8	[0, 0, 0]	n/a	catFR1	0	R1202M
1482.723	1.6	1278006	WORD	n/a	wordpools/wordpool_categorized_EN.txt	WHISK	KitchenTools	6	8	[0, 0, 0]	n/a	catFR1	0	R1202M
1484.339	0.817	1279621	WORD_OFF	n/a	n/a	WHISK	n/a	6	8	[0, 0, 0]	n/a	catFR1	0	R1202M
1485.156	1.6	1280438	WORD	n/a	wordpools/wordpool_categorized_EN.txt	SHORTS	Clothing	7	8	[0, 0, 0]	n/a	catFR1	0	R1202M
1486.774	0.916	1282056	WORD_OFF	n/a	n/a	SHORTS	n/a	7	8	[0, 0, 0]	n/a	catFR1	0	R1202M
1487.69	1.6	1282972	WORD	n/a	wordpools/wordpool_categorized_EN.txt	DRESS	Clothing	8	8	[0, 0, 0]	n/a	catFR1	0	R1202M
1489.306	0.867	1284588	WORD_OFF	n/a	n/a	DRESS	n/a	8	8	[0, 0, 0]	n/a	catFR1	0	R1202M
1490.173	1.6	1285455	WORD	n/a	wordpools/wordpool_categorized_EN.txt	DOOR	Building	9	8	[0, 0, 0]	n/a	catFR1	0	R1202M
1491.774	0.817	1287056	WORD_OFF	n/a	n/a	DOOR	n/a	9	8	[0, 0, 0]	n/a	catFR1	0	R1202M
1492.591	1.6	1287873	WORD	n/a	wordpools/wordpool_categorized_EN.txt	CEILING	Building	10	8	[0, 0, 0]	n/a	catFR1	0	R1202M
1494.207	0.901	1289489	WORD_OFF	n/a	n/a	CEILING	n/a	10	8	[0, 0, 0]	n/a	catFR1	0	R1202M
1495.108	1.6	1290390	WORD	n/a	wordpools/wordpool_categorized_EN.txt	SPATULA	KitchenTools	11	8	[0, 0, 0]	n/a	catFR1	0	R1202M
1496.726	0.9	1292008	WORD_OFF	n/a	n/a	SPATULA	n/a	11	8	[0, 0, 0]	n/a	catFR1	0	R1202M
1497.626	1.6	1292908	WORD	n/a	wordpools/wordpool_categorized_EN.txt	TONGS	KitchenTools	12	8	[0, 0, 0]	n/a	catFR1	0	R1202M
1499.242	0.0	1294524	ENCODING_END	n/a	n/a	n/a	n/a	-999	8	[0, 0, 0]	n/a	catFR1	0	R1202M
1499.242	0.104	1294524	WORD_OFF	n/a	n/a	TONGS	n/a	12	8	[0, 0, 0]	n/a	catFR1	0	R1202M
1499.346	0.0	1294628	DISTRACT_START	n/a	n/a	n/a	n/a	-999	8	[0, 0, 0]	n/a	catFR1	0	R1202M
1499.346	0.012	1294628	START	n/a	n/a	n/a	n/a	-999	9	[-999, -999, -999]	n/a	catFR1	0	R1202M
1499.358	7.818	1294640	PROB	7.789	n/a	n/a	n/a	-999	9	[3, 9, 5]	17.0	catFR1	0	R1202M
1507.176	4.636	1302457	PROB	4.598	n/a	n/a	n/a	-999	9	[4, 5, 5]	14.0	catFR1	0	R1202M
1511.812	4.366	1307093	PROB	4.343	n/a	n/a	n/a	-999	9	[1, 3, 3]	7.0	catFR1	0	R1202M
1516.178	6.836	1311459	PROB	6.836	n/a	n/a	n/a	-999	9	[5, 8, 3]	16.0	catFR1	0	R1202M
1523.014	0.017	1318294	STOP	n/a	n/a	n/a	n/a	-999	9	[-999, -999, -999]	n/a	catFR1	0	R1202M
1523.031	0.516	1318311	DISTRACT_END	n/a	n/a	n/a	n/a	-999	8	[0, 0, 0]	n/a	catFR1	0	R1202M
1523.547	0.517	1318827	RETRIEVAL_ORIENT	n/a	n/a	n/a	n/a	-999	8	[0, 0, 0]	n/a	catFR1	0	R1202M
1524.064	3.438	1319344	REC_START	n/a	n/a	n/a	n/a	-999	8	[0, 0, 0]	n/a	catFR1	0	R1202M
1527.502	5.444	1322782	REC_WORD	3.438	n/a	SPATULA	KitchenTools	11	8	[0, 0, 0]	n/a	catFR1	0	R1202M
1532.946	4.706	1328226	REC_WORD	8.882	n/a	TONGS	KitchenTools	12	8	[0, 0, 0]	n/a	catFR1	0	R1202M
1537.652	7.475	1332932	REC_WORD	13.588	n/a	DOOR	Building	9	8	[0, 0, 0]	n/a	catFR1	0	R1202M
1545.127	8.946	1340406	REC_WORD	21.063	n/a	CEILING	Building	10	8	[0, 0, 0]	n/a	catFR1	0	R1202M
1554.073	5.414	1349352	REC_END	n/a	n/a	n/a	n/a	-999	8	[0, 0, 0]	n/a	catFR1	0	R1202M
1559.487	0.5	1354765	TRIAL	n/a	n/a	n/a	n/a	-999	9	[0, 0, 0]	n/a	catFR1	0	R1202M
1559.987	10.0	1355265	COUNTDOWN_START	n/a	n/a	n/a	n/a	-999	9	[0, 0, 0]	n/a	catFR1	0	R1202M
1570.415	0.007	1365693	COUNTDOWN_END	n/a	n/a	n/a	n/a	-999	9	[0, 0, 0]	n/a	catFR1	0	R1202M
1570.422	1.6	1365700	ORIENT	n/a	n/a	n/a	n/a	-999	9	[0, 0, 0]	n/a	catFR1	0	R1202M
1572.039	2.167	1367317	ORIENT_OFF	n/a	n/a	n/a	n/a	-999	9	[0, 0, 0]	n/a	catFR1	0	R1202M
1574.206	1.6	1369484	WORD	n/a	wordpools/wordpool_categorized_EN.txt	CALF	FarmAnimals	1	9	[0, 0, 0]	n/a	catFR1	0	R1202M
1575.824	0.884	1371101	WORD_OFF	n/a	n/a	CALF	n/a	1	9	[0, 0, 0]	n/a	catFR1	0	R1202M
1576.708	1.6	1371985	WORD	n/a	wordpools/wordpool_categorized_EN.txt	BULL	FarmAnimals	2	9	[0, 0, 0]	n/a	catFR1	0	R1202M
1578.324	0.85	1373601	WORD_OFF	n/a	n/a	BULL	n/a	2	9	[0, 0, 0]	n/a	catFR1	0	R1202M
1579.174	1.6	1374451	WORD	n/a	wordpools/wordpool_categorized_EN.txt	PEELER	KitchenTools	3	9	[0, 0, 0]	n/a	catFR1	0	R1202M
1580.775	0.867	1376052	WORD_OFF	n/a	n/a	PEELER	n/a	3	9	[0, 0, 0]	n/a	catFR1	0	R1202M
1581.642	1.6	1376919	WORD	n/a	wordpools/wordpool_categorized_EN.txt	SPOON	KitchenTools	4	9	[0, 0, 0]	n/a	catFR1	0	R1202M
1583.258	0.95	1378535	WORD_OFF	n/a	n/a	SPOON	n/a	4	9	[0, 0, 0]	n/a	catFR1	0	R1202M
1584.208	1.6	1379485	WORD	n/a	wordpools/wordpool_categorized_EN.txt	COBBLER	Desserts	5	9	[0, 0, 0]	n/a	catFR1	0	R1202M
1585.826	0.8	1381103	WORD_OFF	n/a	n/a	COBBLER	n/a	5	9	[0, 0, 0]	n/a	catFR1	0	R1202M
1586.626	1.6	1381903	WORD	n/a	wordpools/wordpool_categorized_EN.txt	JELLO	Desserts	6	9	[0, 0, 0]	n/a	catFR1	0	R1202M
1588.242	0.95	1383519	WORD_OFF	n/a	n/a	JELLO	n/a	6	9	[0, 0, 0]	n/a	catFR1	0	R1202M
1589.192	1.6	1384469	WORD	n/a	wordpools/wordpool_categorized_EN.txt	LAMB	FarmAnimals	7	9	[0, 0, 0]	n/a	catFR1	0	R1202M
1590.81	0.917	1386087	WORD_OFF	n/a	n/a	LAMB	n/a	7	9	[0, 0, 0]	n/a	catFR1	0	R1202M
1591.727	1.6	1387004	WORD	n/a	wordpools/wordpool_categorized_EN.txt	HORSE	FarmAnimals	8	9	[0, 0, 0]	n/a	catFR1	0	R1202M
1593.343	0.784	1388619	WORD_OFF	n/a	n/a	HORSE	n/a	8	9	[0, 0, 0]	n/a	catFR1	0	R1202M
1594.127	1.6	1389403	WORD	n/a	wordpools/wordpool_categorized_EN.txt	KNIFE	KitchenTools	9	9	[0, 0, 0]	n/a	catFR1	0	R1202M
1595.745	0.983	1391021	WORD_OFF	n/a	n/a	KNIFE	n/a	9	9	[0, 0, 0]	n/a	catFR1	0	R1202M
1596.728	1.6	1392004	WORD	n/a	wordpools/wordpool_categorized_EN.txt	CORKSCREW	KitchenTools	10	9	[0, 0, 0]	n/a	catFR1	0	R1202M
1598.344	0.783	1393620	WORD_OFF	n/a	n/a	CORKSCREW	n/a	10	9	[0, 0, 0]	n/a	catFR1	0	R1202M
1599.127	1.6	1394403	WORD	n/a	wordpools/wordpool_categorized_EN.txt	CAKE	Desserts	11	9	[0, 0, 0]	n/a	catFR1	0	R1202M
1600.729	0.867	1396005	WORD_OFF	n/a	n/a	CAKE	n/a	11	9	[0, 0, 0]	n/a	catFR1	0	R1202M
1601.596	1.6	1396872	WORD	n/a	wordpools/wordpool_categorized_EN.txt	PIE	Desserts	12	9	[0, 0, 0]	n/a	catFR1	0	R1202M
1603.212	0.0	1398488	ENCODING_END	n/a	n/a	n/a	n/a	-999	9	[0, 0, 0]	n/a	catFR1	0	R1202M
1603.212	0.14	1398488	WORD_OFF	n/a	n/a	PIE	n/a	12	9	[0, 0, 0]	n/a	catFR1	0	R1202M
1603.352	0.0	1398628	DISTRACT_START	n/a	n/a	n/a	n/a	-999	9	[0, 0, 0]	n/a	catFR1	0	R1202M
1603.352	0.01	1398628	START	n/a	n/a	n/a	n/a	-999	10	[-999, -999, -999]	n/a	catFR1	0	R1202M
1603.362	7.785	1398638	PROB	7.761	n/a	n/a	n/a	-999	10	[5, 6, 7]	18.0	catFR1	0	R1202M
1611.147	6.251	1406422	PROB	6.225	n/a	n/a	n/a	-999	10	[9, 4, 2]	15.0	catFR1	0	R1202M
1617.398	4.385	1412673	PROB	4.358	n/a	n/a	n/a	-999	10	[4, 2, 5]	11.0	catFR1	0	R1202M
1621.783	4.453	1417058	PROB	4.453	n/a	n/a	n/a	-999	10	[1, 7, 2]	10.0	catFR1	0	R1202M
1626.236	0.014	1421511	STOP	n/a	n/a	n/a	n/a	-999	10	[-999, -999, -999]	n/a	catFR1	0	R1202M
1626.25	0.551	1421525	DISTRACT_END	n/a	n/a	n/a	n/a	-999	9	[0, 0, 0]	n/a	catFR1	0	R1202M
1626.801	0.516	1422076	RETRIEVAL_ORIENT	n/a	n/a	n/a	n/a	-999	9	[0, 0, 0]	n/a	catFR1	0	R1202M
1627.317	1.955	1422592	REC_START	n/a	n/a	n/a	n/a	-999	9	[0, 0, 0]	n/a	catFR1	0	R1202M
1629.272	2.786	1424546	REC_WORD	1.955	n/a	CORKSCREW	KitchenTools	10	9	[0, 0, 0]	n/a	catFR1	0	R1202M
1632.058	4.528	1427332	REC_WORD	4.741	n/a	HORSE	FarmAnimals	8	9	[0, 0, 0]	n/a	catFR1	0	R1202M
1636.586	20.741	1431860	REC_WORD	9.269	n/a	LAMB	FarmAnimals	7	9	[0, 0, 0]	n/a	catFR1	0	R1202M
1657.327	5.763	1452600	REC_END	n/a	n/a	n/a	n/a	-999	9	[0, 0, 0]	n/a	catFR1	0	R1202M
1663.09	0.5	1458363	TRIAL	n/a	n/a	n/a	n/a	-999	10	[0, 0, 0]	n/a	catFR1	0	R1202M
1663.59	10.0	1458863	COUNTDOWN_START	n/a	n/a	n/a	n/a	-999	10	[0, 0, 0]	n/a	catFR1	0	R1202M
1674.018	0.009	1469290	COUNTDOWN_END	n/a	n/a	n/a	n/a	-999	10	[0, 0, 0]	n/a	catFR1	0	R1202M
1674.027	1.6	1469299	ORIENT	n/a	n/a	n/a	n/a	-999	10	[0, 0, 0]	n/a	catFR1	0	R1202M
1675.643	2.151	1470915	ORIENT_OFF	n/a	n/a	n/a	n/a	-999	10	[0, 0, 0]	n/a	catFR1	0	R1202M
1677.794	1.6	1473066	WORD	n/a	wordpools/wordpool_categorized_EN.txt	WINE	Beverages	1	10	[0, 0, 0]	n/a	catFR1	0	R1202M
1679.41	0.967	1474682	WORD_OFF	n/a	n/a	WINE	n/a	1	10	[0, 0, 0]	n/a	catFR1	0	R1202M
1680.377	1.6	1475649	WORD	n/a	wordpools/wordpool_categorized_EN.txt	CIDER	Beverages	2	10	[0, 0, 0]	n/a	catFR1	0	R1202M
1681.995	0.95	1477267	WORD_OFF	n/a	n/a	CIDER	n/a	2	10	[0, 0, 0]	n/a	catFR1	0	R1202M
1682.945	1.6	1478217	WORD	n/a	wordpools/wordpool_categorized_EN.txt	CARROT	Vegetables	3	10	[0, 0, 0]	n/a	catFR1	0	R1202M
1684.562	0.949	1479833	WORD_OFF	n/a	n/a	CARROT	n/a	3	10	[0, 0, 0]	n/a	catFR1	0	R1202M
1685.511	1.6	1480782	WORD	n/a	wordpools/wordpool_categorized_EN.txt	CORN	Vegetables	4	10	[0, 0, 0]	n/a	catFR1	0	R1202M
1687.128	0.851	1482399	WORD_OFF	n/a	n/a	CORN	n/a	4	10	[0, 0, 0]	n/a	catFR1	0	R1202M
1687.979	1.6	1483250	WORD	n/a	wordpools/wordpool_categorized_EN.txt	GIRAFFE	Zoo	5	10	[0, 0, 0]	n/a	catFR1	0	R1202M
1689.596	0.967	1484867	WORD_OFF	n/a	n/a	GIRAFFE	n/a	5	10	[0, 0, 0]	n/a	catFR1	0	R1202M
1690.563	1.6	1485834	WORD	n/a	wordpools/wordpool_categorized_EN.txt	LION	Zoo	6	10	[0, 0, 0]	n/a	catFR1	0	R1202M
1692.179	0.768	1487450	WORD_OFF	n/a	n/a	LION	n/a	6	10	[0, 0, 0]	n/a	catFR1	0	R1202M
1692.947	1.6	1488218	WORD	n/a	wordpools/wordpool_categorized_EN.txt	SODA	Beverages	7	10	[0, 0, 0]	n/a	catFR1	0	R1202M
1694.564	0.983	1489835	WORD_OFF	n/a	n/a	SODA	n/a	7	10	[0, 0, 0]	n/a	catFR1	0	R1202M
1695.547	1.6	1490818	WORD	n/a	wordpools/wordpool_categorized_EN.txt	MILK	Beverages	8	10	[0, 0, 0]	n/a	catFR1	0	R1202M
1697.163	0.801	1492434	WORD_OFF	n/a	n/a	MILK	n/a	8	10	[0, 0, 0]	n/a	catFR1	0	R1202M
1697.964	1.6	1493235	WORD	n/a	wordpools/wordpool_categorized_EN.txt	CUCUMBER	Vegetables	9	10	[0, 0, 0]	n/a	catFR1	0	R1202M
1699.582	0.832	1494853	WORD_OFF	n/a	n/a	CUCUMBER	n/a	9	10	[0, 0, 0]	n/a	catFR1	0	R1202M
1700.414	1.6	1495685	WORD	n/a	wordpools/wordpool_categorized_EN.txt	CELERY	Vegetables	10	10	[0, 0, 0]	n/a	catFR1	0	R1202M
1702.032	0.984	1497302	WORD_OFF	n/a	n/a	CELERY	n/a	10	10	[0, 0, 0]	n/a	catFR1	0	R1202M
1703.016	1.6	1498286	WORD	n/a	wordpools/wordpool_categorized_EN.txt	CHEETAH	Zoo	11	10	[0, 0, 0]	n/a	catFR1	0	R1202M
1704.632	0.833	1499902	WORD_OFF	n/a	n/a	CHEETAH	n/a	11	10	[0, 0, 0]	n/a	catFR1	0	R1202M
1705.465	1.6	1500735	WORD	n/a	wordpools/wordpool_categorized_EN.txt	GORILLA	Zoo	12	10	[0, 0, 0]	n/a	catFR1	0	R1202M
1707.082	0.0	1502352	ENCODING_END	n/a	n/a	n/a	n/a	-999	10	[0, 0, 0]	n/a	catFR1	0	R1202M
1707.082	0.104	1502352	WORD_OFF	n/a	n/a	GORILLA	n/a	12	10	[0, 0, 0]	n/a	catFR1	0	R1202M
1707.186	0.0	1502456	DISTRACT_START	n/a	n/a	n/a	n/a	-999	10	[0, 0, 0]	n/a	catFR1	0	R1202M
1707.186	0.013	1502456	START	n/a	n/a	n/a	n/a	-999	11	[-999, -999, -999]	n/a	catFR1	0	R1202M
1707.199	6.868	1502469	PROB	6.838	n/a	n/a	n/a	-999	11	[2, 7, 9]	18.0	catFR1	0	R1202M
1714.067	4.317	1509337	PROB	4.289	n/a	n/a	n/a	-999	11	[8, 2, 1]	11.0	catFR1	0	R1202M
1718.384	5.602	1513654	PROB	5.572	n/a	n/a	n/a	-999	11	[4, 5, 1]	10.0	catFR1	0	R1202M
1723.986	4.947	1519255	PROB	4.947	n/a	n/a	n/a	-999	11	[1, 8, 8]	17.0	catFR1	0	R1202M
1728.933	0.021	1524202	STOP	n/a	n/a	n/a	n/a	-999	11	[-999, -999, -999]	n/a	catFR1	0	R1202M
1728.954	0.683	1524223	DISTRACT_END	n/a	n/a	n/a	n/a	-999	10	[0, 0, 0]	n/a	catFR1	0	R1202M
1729.637	0.517	1524906	RETRIEVAL_ORIENT	n/a	n/a	n/a	n/a	-999	10	[0, 0, 0]	n/a	catFR1	0	R1202M
1730.154	1.612	1525423	REC_START	n/a	n/a	n/a	n/a	-999	10	[0, 0, 0]	n/a	catFR1	0	R1202M
1731.766	2.23	1527035	REC_WORD	1.612	n/a	CHEETAH	Zoo	11	10	[0, 0, 0]	n/a	catFR1	0	R1202M
1733.996	26.167	1529265	REC_WORD	3.842	n/a	GORILLA	Zoo	12	10	[0, 0, 0]	n/a	catFR1	0	R1202M
1760.163	5.465	1555430	REC_END	n/a	n/a	n/a	n/a	-999	10	[0, 0, 0]	n/a	catFR1	0	R1202M
1765.628	0.5	1560895	TRIAL	n/a	n/a	n/a	n/a	-999	11	[0, 0, 0]	n/a	catFR1	0	R1202M
1766.128	10.0	1561395	COUNTDOWN_START	n/a	n/a	n/a	n/a	-999	11	[0, 0, 0]	n/a	catFR1	0	R1202M
1776.556	0.007	1571822	COUNTDOWN_END	n/a	n/a	n/a	n/a	-999	11	[0, 0, 0]	n/a	catFR1	0	R1202M
1776.563	1.6	1571829	ORIENT	n/a	n/a	n/a	n/a	-999	11	[0, 0, 0]	n/a	catFR1	0	R1202M
1778.179	2.017	1573445	ORIENT_OFF	n/a	n/a	n/a	n/a	-999	11	[0, 0, 0]	n/a	catFR1	0	R1202M
1780.196	1.6	1575462	WORD	n/a	wordpools/wordpool_categorized_EN.txt	SCANNER	Electronics	1	11	[0, 0, 0]	n/a	catFR1	0	R1202M
1781.814	0.767	1577080	WORD_OFF	n/a	n/a	SCANNER	n/a	1	11	[0, 0, 0]	n/a	catFR1	0	R1202M
1782.581	1.6	1577847	WORD	n/a	wordpools/wordpool_categorized_EN.txt	PRINTER	Electronics	2	11	[0, 0, 0]	n/a	catFR1	0	R1202M
1784.197	0.818	1579463	WORD_OFF	n/a	n/a	PRINTER	n/a	2	11	[0, 0, 0]	n/a	catFR1	0	R1202M
1785.015	1.6	1580281	WORD	n/a	wordpools/wordpool_categorized_EN.txt	LEMONADE	Beverages	3	11	[0, 0, 0]	n/a	catFR1	0	R1202M
1786.632	0.917	1581898	WORD_OFF	n/a	n/a	LEMONADE	n/a	3	11	[0, 0, 0]	n/a	catFR1	0	R1202M
1787.549	1.6	1582815	WORD	n/a	wordpools/wordpool_categorized_EN.txt	WATER	Beverages	4	11	[0, 0, 0]	n/a	catFR1	0	R1202M
1789.165	1.0	1584431	WORD_OFF	n/a	n/a	WATER	n/a	4	11	[0, 0, 0]	n/a	catFR1	0	R1202M
1790.165	1.6	1585431	WORD	n/a	wordpools/wordpool_categorized_EN.txt	SHELF	Furniture	5	11	[0, 0, 0]	n/a	catFR1	0	R1202M
1791.783	0.85	1587049	WORD_OFF	n/a	n/a	SHELF	n/a	5	11	[0, 0, 0]	n/a	catFR1	0	R1202M
1792.633	1.6	1587898	WORD	n/a	wordpools/wordpool_categorized_EN.txt	BED	Furniture	6	11	[0, 0, 0]	n/a	catFR1	0	R1202M
1794.249	0.867	1589514	WORD_OFF	n/a	n/a	BED	n/a	6	11	[0, 0, 0]	n/a	catFR1	0	R1202M
1795.116	1.6	1590381	WORD	n/a	wordpools/wordpool_categorized_EN.txt	COLA	Beverages	7	11	[0, 0, 0]	n/a	catFR1	0	R1202M
1796.734	0.967	1591999	WORD_OFF	n/a	n/a	COLA	n/a	7	11	[0, 0, 0]	n/a	catFR1	0	R1202M
1797.701	1.6	1592966	WORD	n/a	wordpools/wordpool_categorized_EN.txt	BEER	Beverages	8	11	[0, 0, 0]	n/a	catFR1	0	R1202M
1799.317	1.016	1594582	WORD_OFF	n/a	n/a	BEER	n/a	8	11	[0, 0, 0]	n/a	catFR1	0	R1202M
1800.333	1.6	1595598	WORD	n/a	wordpools/wordpool_categorized_EN.txt	STEREO	Electronics	9	11	[0, 0, 0]	n/a	catFR1	0	R1202M
1801.951	0.967	1597216	WORD_OFF	n/a	n/a	STEREO	n/a	9	11	[0, 0, 0]	n/a	catFR1	0	R1202M
1802.918	1.6	1598183	WORD	n/a	wordpools/wordpool_categorized_EN.txt	TELEVISION	Electronics	10	11	[0, 0, 0]	n/a	catFR1	0	R1202M
1804.535	0.866	1599800	WORD_OFF	n/a	n/a	TELEVISION	n/a	10	11	[0, 0, 0]	n/a	catFR1	0	R1202M
1805.401	1.6	1600666	WORD	n/a	wordpools/wordpool_categorized_EN.txt	TABLE	Furniture	11	11	[0, 0, 0]	n/a	catFR1	0	R1202M
1807.019	0.834	1602284	WORD_OFF	n/a	n/a	TABLE	n/a	11	11	[0, 0, 0]	n/a	catFR1	0	R1202M
1807.853	1.6	1603118	WORD	n/a	wordpools/wordpool_categorized_EN.txt	DESK	Furniture	12	11	[0, 0, 0]	n/a	catFR1	0	R1202M
1809.468	0.001	1604733	WORD_OFF	n/a	n/a	DESK	n/a	12	11	[0, 0, 0]	n/a	catFR1	0	R1202M
1809.469	0.106	1604734	ENCODING_END	n/a	n/a	n/a	n/a	-999	11	[0, 0, 0]	n/a	catFR1	0	R1202M
1809.575	0.0	1604840	DISTRACT_START	n/a	n/a	n/a	n/a	-999	11	[0, 0, 0]	n/a	catFR1	0	R1202M
1809.575	0.011	1604840	START	n/a	n/a	n/a	n/a	-999	12	[-999, -999, -999]	n/a	catFR1	0	R1202M
1809.586	9.169	1604851	PROB	9.131	n/a	n/a	n/a	-999	12	[6, 1, 8]	15.0	catFR1	0	R1202M
1818.755	4.516	1614019	PROB	4.488	n/a	n/a	n/a	-999	12	[1, 2, 5]	8.0	catFR1	0	R1202M
1823.271	4.951	1618535	PROB	4.924	n/a	n/a	n/a	-999	12	[4, 4, 9]	17.0	catFR1	0	R1202M
1828.222	6.52	1623486	PROB	6.52	n/a	n/a	n/a	-999	12	[3, 4, 8]	15.0	catFR1	0	R1202M
1834.742	0.016	1630005	STOP	n/a	n/a	n/a	n/a	-999	12	[-999, -999, -999]	n/a	catFR1	0	R1202M
1834.758	0.699	1630021	DISTRACT_END	n/a	n/a	n/a	n/a	-999	11	[0, 0, 0]	n/a	catFR1	0	R1202M
1835.457	0.518	1630720	RETRIEVAL_ORIENT	n/a	n/a	n/a	n/a	-999	11	[0, 0, 0]	n/a	catFR1	0	R1202M
1835.975	2.999	1631238	REC_START	n/a	n/a	n/a	n/a	-999	11	[0, 0, 0]	n/a	catFR1	0	R1202M
1838.974	4.897	1634237	REC_WORD	2.999	n/a	TABLE	Furniture	11	11	[0, 0, 0]	n/a	catFR1	0	R1202M
1843.871	22.115	1639134	REC_WORD	7.896	n/a	DESK	Furniture	12	11	[0, 0, 0]	n/a	catFR1	0	R1202M
1865.986	5.295	1661247	REC_END	n/a	n/a	n/a	n/a	-999	11	[0, 0, 0]	n/a	catFR1	0	R1202M
1871.281	0.5	1666542	TRIAL	n/a	n/a	n/a	n/a	-999	12	[0, 0, 0]	n/a	catFR1	0	R1202M
1871.781	10.0	1667042	COUNTDOWN_START	n/a	n/a	n/a	n/a	-999	12	[0, 0, 0]	n/a	catFR1	0	R1202M
1882.209	0.007	1677470	COUNTDOWN_END	n/a	n/a	n/a	n/a	-999	12	[0, 0, 0]	n/a	catFR1	0	R1202M
1882.216	1.6	1677477	ORIENT	n/a	n/a	n/a	n/a	-999	12	[0, 0, 0]	n/a	catFR1	0	R1202M
1883.834	2.067	1679094	ORIENT_OFF	n/a	n/a	n/a	n/a	-999	12	[0, 0, 0]	n/a	catFR1	0	R1202M
1885.901	1.6	1681161	WORD	n/a	wordpools/wordpool_categorized_EN.txt	MOTORCYCLE	Vehicles	1	12	[0, 0, 0]	n/a	catFR1	0	R1202M
1887.517	0.867	1682777	WORD_OFF	n/a	n/a	MOTORCYCLE	n/a	1	12	[0, 0, 0]	n/a	catFR1	0	R1202M
1888.384	1.6	1683644	WORD	n/a	wordpools/wordpool_categorized_EN.txt	TRAIN	Vehicles	2	12	[0, 0, 0]	n/a	catFR1	0	R1202M
1890.002	0.8	1685262	WORD_OFF	n/a	n/a	TRAIN	n/a	2	12	[0, 0, 0]	n/a	catFR1	0	R1202M
1890.802	1.6	1686062	WORD	n/a	wordpools/wordpool_categorized_EN.txt	TAPE	OfficeSupplies	3	12	[0, 0, 0]	n/a	catFR1	0	R1202M
1892.418	0.967	1687678	WORD_OFF	n/a	n/a	TAPE	n/a	3	12	[0, 0, 0]	n/a	catFR1	0	R1202M
1893.385	1.6	1688645	WORD	n/a	wordpools/wordpool_categorized_EN.txt	BINDER	OfficeSupplies	4	12	[0, 0, 0]	n/a	catFR1	0	R1202M
1895.003	0.817	1690263	WORD_OFF	n/a	n/a	BINDER	n/a	4	12	[0, 0, 0]	n/a	catFR1	0	R1202M
1895.82	1.6	1691080	WORD	n/a	wordpools/wordpool_categorized_EN.txt	HAWK	Birds	5	12	[0, 0, 0]	n/a	catFR1	0	R1202M
1897.436	0.85	1692696	WORD_OFF	n/a	n/a	HAWK	n/a	5	12	[0, 0, 0]	n/a	catFR1	0	R1202M
1898.286	1.6	1693546	WORD	n/a	wordpools/wordpool_categorized_EN.txt	FINCH	Birds	6	12	[0, 0, 0]	n/a	catFR1	0	R1202M
1899.904	0.917	1695164	WORD_OFF	n/a	n/a	FINCH	n/a	6	12	[0, 0, 0]	n/a	catFR1	0	R1202M
1900.821	1.6	1696081	WORD	n/a	wordpools/wordpool_categorized_EN.txt	TRUCK	Vehicles	7	12	[0, 0, 0]	n/a	catFR1	0	R1202M
1902.437	0.866	1697696	WORD_OFF	n/a	n/a	TRUCK	n/a	7	12	[0, 0, 0]	n/a	catFR1	0	R1202M
1903.303	1.6	1698562	WORD	n/a	wordpools/wordpool_categorized_EN.txt	PLANE	Vehicles	8	12	[0, 0, 0]	n/a	catFR1	0	R1202M
1904.921	0.817	1700180	WORD_OFF	n/a	n/a	PLANE	n/a	8	12	[0, 0, 0]	n/a	catFR1	0	R1202M
1905.738	1.6	1700997	WORD	n/a	wordpools/wordpool_categorized_EN.txt	NOTEBOOK	OfficeSupplies	9	12	[0, 0, 0]	n/a	catFR1	0	R1202M
1907.354	0.984	1702613	WORD_OFF	n/a	n/a	NOTEBOOK	n/a	9	12	[0, 0, 0]	n/a	catFR1	0	R1202M
1908.338	1.6	1703597	WORD	n/a	wordpools/wordpool_categorized_EN.txt	ERASER	OfficeSupplies	10	12	[0, 0, 0]	n/a	catFR1	0	R1202M
1909.956	0.967	1705215	WORD_OFF	n/a	n/a	ERASER	n/a	10	12	[0, 0, 0]	n/a	catFR1	0	R1202M
1910.923	1.6	1706182	WORD	n/a	wordpools/wordpool_categorized_EN.txt	SEAGULL	Birds	11	12	[0, 0, 0]	n/a	catFR1	0	R1202M
1912.54	0.983	1707799	WORD_OFF	n/a	n/a	SEAGULL	n/a	11	12	[0, 0, 0]	n/a	catFR1	0	R1202M
1913.523	1.6	1708782	WORD	n/a	wordpools/wordpool_categorized_EN.txt	DUCK	Birds	12	12	[0, 0, 0]	n/a	catFR1	0	R1202M
1915.139	0.0	1710398	WORD_OFF	n/a	n/a	DUCK	n/a	12	12	[0, 0, 0]	n/a	catFR1	0	R1202M
1915.139	0.139	1710398	ENCODING_END	n/a	n/a	n/a	n/a	-999	12	[0, 0, 0]	n/a	catFR1	0	R1202M
1915.278	0.0	1710537	DISTRACT_START	n/a	n/a	n/a	n/a	-999	12	[0, 0, 0]	n/a	catFR1	0	R1202M
1915.278	0.011	1710537	START	n/a	n/a	n/a	n/a	-999	13	[-999, -999, -999]	n/a	catFR1	0	R1202M
1915.289	9.952	1710548	PROB	9.924	n/a	n/a	n/a	-999	13	[1, 6, 9]	16.0	catFR1	0	R1202M
1925.241	4.318	1720499	PROB	4.292	n/a	n/a	n/a	-999	13	[4, 4, 2]	10.0	catFR1	0	R1202M
1929.559	4.784	1724817	PROB	4.748	n/a	n/a	n/a	-999	13	[9, 4, 5]	18.0	catFR1	0	R1202M
1934.343	7.542	1729601	PROB	7.542	n/a	n/a	n/a	-999	13	[9, 5, 5]	19.0	catFR1	0	R1202M
1941.885	0.01	1737142	STOP	n/a	n/a	n/a	n/a	-999	13	[-999, -999, -999]	n/a	catFR1	0	R1202M
1941.895	0.533	1737152	DISTRACT_END	n/a	n/a	n/a	n/a	-999	12	[0, 0, 0]	n/a	catFR1	0	R1202M
1942.428	0.518	1737685	RETRIEVAL_ORIENT	n/a	n/a	n/a	n/a	-999	12	[0, 0, 0]	n/a	catFR1	0	R1202M
1942.946	4.082	1738203	REC_START	n/a	n/a	n/a	n/a	-999	12	[0, 0, 0]	n/a	catFR1	0	R1202M
1947.028	4.041	1742285	REC_WORD	4.082	n/a	SEAGULL	Birds	11	12	[0, 0, 0]	n/a	catFR1	0	R1202M
1951.069	2.7	1746326	REC_WORD	8.123	n/a	TRUCK	Vehicles	7	12	[0, 0, 0]	n/a	catFR1	0	R1202M
1953.769	19.188	1749026	REC_WORD	10.823	n/a	PLANE	Vehicles	8	12	[0, 0, 0]	n/a	catFR1	0	R1202M
1972.957	5.111	1768213	REC_END	n/a	n/a	n/a	n/a	-999	12	[0, 0, 0]	n/a	catFR1	0	R1202M
1978.068	0.5	1773323	TRIAL	n/a	n/a	n/a	n/a	-999	13	[0, 0, 0]	n/a	catFR1	0	R1202M
1978.568	10.0	1773823	COUNTDOWN_START	n/a	n/a	n/a	n/a	-999	13	[0, 0, 0]	n/a	catFR1	0	R1202M
1988.996	0.008	1784251	COUNTDOWN_END	n/a	n/a	n/a	n/a	-999	13	[0, 0, 0]	n/a	catFR1	0	R1202M
1989.004	1.6	1784259	ORIENT	n/a	n/a	n/a	n/a	-999	13	[0, 0, 0]	n/a	catFR1	0	R1202M
1990.621	1.951	1785876	ORIENT_OFF	n/a	n/a	n/a	n/a	-999	13	[0, 0, 0]	n/a	catFR1	0	R1202M
1992.572	1.6	1787826	WORD	n/a	wordpools/wordpool_categorized_EN.txt	PIG	FarmAnimals	1	13	[0, 0, 0]	n/a	catFR1	0	R1202M
1994.188	1.0	1789442	WORD_OFF	n/a	n/a	PIG	n/a	1	13	[0, 0, 0]	n/a	catFR1	0	R1202M
1995.188	1.6	1790442	WORD	n/a	wordpools/wordpool_categorized_EN.txt	GOAT	FarmAnimals	2	13	[0, 0, 0]	n/a	catFR1	0	R1202M
1996.789	0.8	1792043	WORD_OFF	n/a	n/a	GOAT	n/a	2	13	[0, 0, 0]	n/a	catFR1	0	R1202M
1997.589	1.6	1792843	WORD	n/a	wordpools/wordpool_categorized_EN.txt	OCTOPUS	OceanAnimals	3	13	[0, 0, 0]	n/a	catFR1	0	R1202M
1999.205	0.901	1794459	WORD_OFF	n/a	n/a	OCTOPUS	n/a	3	13	[0, 0, 0]	n/a	catFR1	0	R1202M
2000.106	1.6	1795360	WORD	n/a	wordpools/wordpool_categorized_EN.txt	CRAB	OceanAnimals	4	13	[0, 0, 0]	n/a	catFR1	0	R1202M
2001.724	0.866	1796978	WORD_OFF	n/a	n/a	CRAB	n/a	4	13	[0, 0, 0]	n/a	catFR1	0	R1202M
2002.59	1.6	1797844	WORD	n/a	wordpools/wordpool_categorized_EN.txt	DRILL	Tools	5	13	[0, 0, 0]	n/a	catFR1	0	R1202M
2004.206	0.884	1799460	WORD_OFF	n/a	n/a	DRILL	n/a	5	13	[0, 0, 0]	n/a	catFR1	0	R1202M
2005.09	1.6	1800344	WORD	n/a	wordpools/wordpool_categorized_EN.txt	RATCHET	Tools	6	13	[0, 0, 0]	n/a	catFR1	0	R1202M
2006.691	0.799	1801945	WORD_OFF	n/a	n/a	RATCHET	n/a	6	13	[0, 0, 0]	n/a	catFR1	0	R1202M
2007.49	1.6	1802744	WORD	n/a	wordpools/wordpool_categorized_EN.txt	CHICKEN	FarmAnimals	7	13	[0, 0, 0]	n/a	catFR1	0	R1202M
2009.107	0.918	1804361	WORD_OFF	n/a	n/a	CHICKEN	n/a	7	13	[0, 0, 0]	n/a	catFR1	0	R1202M
2010.025	1.6	1805279	WORD	n/a	wordpools/wordpool_categorized_EN.txt	TURKEY	FarmAnimals	8	13	[0, 0, 0]	n/a	catFR1	0	R1202M
2011.642	0.799	1806895	WORD_OFF	n/a	n/a	TURKEY	n/a	8	13	[0, 0, 0]	n/a	catFR1	0	R1202M
2012.441	1.6	1807694	WORD	n/a	wordpools/wordpool_categorized_EN.txt	FISH	OceanAnimals	9	13	[0, 0, 0]	n/a	catFR1	0	R1202M
2014.058	0.968	1809311	WORD_OFF	n/a	n/a	FISH	n/a	9	13	[0, 0, 0]	n/a	catFR1	0	R1202M
2015.026	1.6	1810279	WORD	n/a	wordpools/wordpool_categorized_EN.txt	JELLYFISH	OceanAnimals	10	13	[0, 0, 0]	n/a	catFR1	0	R1202M
2016.643	0.833	1811896	WORD_OFF	n/a	n/a	JELLYFISH	n/a	10	13	[0, 0, 0]	n/a	catFR1	0	R1202M
2017.476	1.6	1812729	WORD	n/a	wordpools/wordpool_categorized_EN.txt	SAW	Tools	11	13	[0, 0, 0]	n/a	catFR1	0	R1202M
2019.092	0.802	1814345	WORD_OFF	n/a	n/a	SAW	n/a	11	13	[0, 0, 0]	n/a	catFR1	0	R1202M
2019.894	1.6	1815147	WORD	n/a	wordpools/wordpool_categorized_EN.txt	WRENCH	Tools	12	13	[0, 0, 0]	n/a	catFR1	0	R1202M
2021.51	0.0	1816763	ENCODING_END	n/a	n/a	n/a	n/a	-999	13	[0, 0, 0]	n/a	catFR1	0	R1202M
2021.51	0.105	1816763	WORD_OFF	n/a	n/a	WRENCH	n/a	12	13	[0, 0, 0]	n/a	catFR1	0	R1202M
2021.615	0.0	1816868	DISTRACT_START	n/a	n/a	n/a	n/a	-999	13	[0, 0, 0]	n/a	catFR1	0	R1202M
2021.615	0.012	1816868	START	n/a	n/a	n/a	n/a	-999	14	[-999, -999, -999]	n/a	catFR1	0	R1202M
2021.627	5.368	1816880	PROB	5.337	n/a	n/a	n/a	-999	14	[4, 4, 8]	16.0	catFR1	0	R1202M
2026.995	7.568	1822248	PROB	7.531	n/a	n/a	n/a	-999	14	[4, 9, 6]	19.0	catFR1	0	R1202M
2034.563	8.568	1829815	PROB	8.568	n/a	n/a	n/a	-999	14	[9, 2, 4]	15.0	catFR1	0	R1202M
2043.131	0.016	1838383	STOP	n/a	n/a	n/a	n/a	-999	14	[-999, -999, -999]	n/a	catFR1	0	R1202M
2043.147	0.601	1838399	DISTRACT_END	n/a	n/a	n/a	n/a	-999	13	[0, 0, 0]	n/a	catFR1	0	R1202M
2043.748	0.517	1839000	RETRIEVAL_ORIENT	n/a	n/a	n/a	n/a	-999	13	[0, 0, 0]	n/a	catFR1	0	R1202M
2044.265	1.627	1839517	REC_START	n/a	n/a	n/a	n/a	-999	13	[0, 0, 0]	n/a	catFR1	0	R1202M
2045.892	8.009	1841144	REC_WORD	1.627	n/a	RATCHET	Tools	6	13	[0, 0, 0]	n/a	catFR1	0	R1202M
2053.901	3.268	1849152	REC_WORD	9.636	n/a	DRILL	Tools	5	13	[0, 0, 0]	n/a	catFR1	0	R1202M
2057.169	17.106	1852420	REC_WORD	12.904	n/a	BIRD	n/a	-999	13	[0, 0, 0]	n/a	catFR1	0	R1202M
2074.275	14.699	1869525	REC_END	n/a	n/a	n/a	n/a	-999	13	[0, 0, 0]	n/a	catFR1	0	R1202M
2088.974	0.5	1884223	TRIAL	n/a	n/a	n/a	n/a	-999	14	[0, 0, 0]	n/a	catFR1	0	R1202M
2089.474	10.0	1884723	COUNTDOWN_START	n/a	n/a	n/a	n/a	-999	14	[0, 0, 0]	n/a	catFR1	0	R1202M
2099.902	0.007	1895151	COUNTDOWN_END	n/a	n/a	n/a	n/a	-999	14	[0, 0, 0]	n/a	catFR1	0	R1202M
2099.909	1.6	1895158	ORIENT	n/a	n/a	n/a	n/a	-999	14	[0, 0, 0]	n/a	catFR1	0	R1202M
2101.526	2.067	1896774	ORIENT_OFF	n/a	n/a	n/a	n/a	-999	14	[0, 0, 0]	n/a	catFR1	0	R1202M
2103.593	1.6	1898841	WORD	n/a	wordpools/wordpool_categorized_EN.txt	LAKE	Landscapes	1	14	[0, 0, 0]	n/a	catFR1	0	R1202M
2105.209	0.9	1900457	WORD_OFF	n/a	n/a	LAKE	n/a	1	14	[0, 0, 0]	n/a	catFR1	0	R1202M
2106.109	1.6	1901357	WORD	n/a	wordpools/wordpool_categorized_EN.txt	VALLEY	Landscapes	2	14	[0, 0, 0]	n/a	catFR1	0	R1202M
2107.71	0.834	1902958	WORD_OFF	n/a	n/a	VALLEY	n/a	2	14	[0, 0, 0]	n/a	catFR1	0	R1202M
2108.544	1.6	1903792	WORD	n/a	wordpools/wordpool_categorized_EN.txt	BEE	Insects	3	14	[0, 0, 0]	n/a	catFR1	0	R1202M
2110.16	0.984	1905408	WORD_OFF	n/a	n/a	BEE	n/a	3	14	[0, 0, 0]	n/a	catFR1	0	R1202M
2111.144	1.6	1906392	WORD	n/a	wordpools/wordpool_categorized_EN.txt	GNAT	Insects	4	14	[0, 0, 0]	n/a	catFR1	0	R1202M
2112.762	0.883	1908010	WORD_OFF	n/a	n/a	GNAT	n/a	4	14	[0, 0, 0]	n/a	catFR1	0	R1202M
2113.645	1.6	1908893	WORD	n/a	wordpools/wordpool_categorized_EN.txt	TORNADO	Weather	5	14	[0, 0, 0]	n/a	catFR1	0	R1202M
2115.261	0.85	1910509	WORD_OFF	n/a	n/a	TORNADO	n/a	5	14	[0, 0, 0]	n/a	catFR1	0	R1202M
2116.111	1.6	1911359	WORD	n/a	wordpools/wordpool_categorized_EN.txt	FOG	Weather	6	14	[0, 0, 0]	n/a	catFR1	0	R1202M
2117.729	0.867	1912977	WORD_OFF	n/a	n/a	FOG	n/a	6	14	[0, 0, 0]	n/a	catFR1	0	R1202M
2118.596	1.6	1913844	WORD	n/a	wordpools/wordpool_categorized_EN.txt	FLY	Insects	7	14	[0, 0, 0]	n/a	catFR1	0	R1202M
2120.212	1.0	1915459	WORD_OFF	n/a	n/a	FLY	n/a	7	14	[0, 0, 0]	n/a	catFR1	0	R1202M
2121.212	1.6	1916459	WORD	n/a	wordpools/wordpool_categorized_EN.txt	MOSQUITO	Insects	8	14	[0, 0, 0]	n/a	catFR1	0	R1202M
2122.813	0.767	1918060	WORD_OFF	n/a	n/a	MOSQUITO	n/a	8	14	[0, 0, 0]	n/a	catFR1	0	R1202M
2123.58	1.6	1918827	WORD	n/a	wordpools/wordpool_categorized_EN.txt	MOUNTAIN	Landscapes	9	14	[0, 0, 0]	n/a	catFR1	0	R1202M
2125.196	1.017	1920443	WORD_OFF	n/a	n/a	MOUNTAIN	n/a	9	14	[0, 0, 0]	n/a	catFR1	0	R1202M
2126.213	1.6	1921460	WORD	n/a	wordpools/wordpool_categorized_EN.txt	WOODS	Landscapes	10	14	[0, 0, 0]	n/a	catFR1	0	R1202M
2127.831	0.9	1923078	WORD_OFF	n/a	n/a	WOODS	n/a	10	14	[0, 0, 0]	n/a	catFR1	0	R1202M
2128.731	1.6	1923978	WORD	n/a	wordpools/wordpool_categorized_EN.txt	WIND	Weather	11	14	[0, 0, 0]	n/a	catFR1	0	R1202M
2130.347	0.784	1925594	WORD_OFF	n/a	n/a	WIND	n/a	11	14	[0, 0, 0]	n/a	catFR1	0	R1202M
2131.131	1.6	1926378	WORD	n/a	wordpools/wordpool_categorized_EN.txt	HUMIDITY	Weather	12	14	[0, 0, 0]	n/a	catFR1	0	R1202M
2132.749	0.0	1927996	ENCODING_END	n/a	n/a	n/a	n/a	-999	14	[0, 0, 0]	n/a	catFR1	0	R1202M
2132.749	0.103	1927996	WORD_OFF	n/a	n/a	HUMIDITY	n/a	12	14	[0, 0, 0]	n/a	catFR1	0	R1202M
2132.852	0.0	1928099	DISTRACT_START	n/a	n/a	n/a	n/a	-999	14	[0, 0, 0]	n/a	catFR1	0	R1202M
2132.852	0.014	1928099	START	n/a	n/a	n/a	n/a	-999	15	[-999, -999, -999]	n/a	catFR1	0	R1202M
2132.866	7.5	1928113	PROB	7.474	n/a	n/a	n/a	-999	15	[5, 9, 6]	20.0	catFR1	0	R1202M
2140.366	6.269	1935612	PROB	6.246	n/a	n/a	n/a	-999	15	[8, 6, 4]	18.0	catFR1	0	R1202M
2146.635	5.184	1941881	PROB	5.161	n/a	n/a	n/a	-999	15	[3, 7, 4]	14.0	catFR1	0	R1202M
2151.819	4.393	1947065	PROB	4.393	n/a	n/a	n/a	-999	15	[1, 2, 1]	4.0	catFR1	0	R1202M
2156.212	0.007	1951457	STOP	n/a	n/a	n/a	n/a	-999	15	[-999, -999, -999]	n/a	catFR1	0	R1202M
2156.219	0.701	1951464	DISTRACT_END	n/a	n/a	n/a	n/a	-999	14	[0, 0, 0]	n/a	catFR1	0	R1202M
2156.92	0.517	1952165	RETRIEVAL_ORIENT	n/a	n/a	n/a	n/a	-999	14	[0, 0, 0]	n/a	catFR1	0	R1202M
2157.437	12.695	1952682	REC_START	n/a	n/a	n/a	n/a	-999	14	[0, 0, 0]	n/a	catFR1	0	R1202M
2170.132	5.679	1965377	REC_WORD	12.695	n/a	MOUNTAIN	Landscapes	9	14	[0, 0, 0]	n/a	catFR1	0	R1202M
2175.811	3.378	1971055	REC_WORD	18.374	n/a	GNAT	Insects	4	14	[0, 0, 0]	n/a	catFR1	0	R1202M
2179.189	4.411	1974433	REC_WORD	21.752	n/a	MOSQUITO	Insects	8	14	[0, 0, 0]	n/a	catFR1	0	R1202M
2183.6	3.831	1978844	REC_WORD	26.163	n/a	FLY	Insects	7	14	[0, 0, 0]	n/a	catFR1	0	R1202M
2187.431	0.016	1982675	REC_WORD	29.994	n/a	BEE	Insects	3	14	[0, 0, 0]	n/a	catFR1	0	R1202M
2187.447	8.013	1982691	REC_END	n/a	n/a	n/a	n/a	-999	14	[0, 0, 0]	n/a	catFR1	0	R1202M
2195.46	0.5	1990703	TRIAL	n/a	n/a	n/a	n/a	-999	15	[0, 0, 0]	n/a	catFR1	0	R1202M
2195.96	10.0	1991203	COUNTDOWN_START	n/a	n/a	n/a	n/a	-999	15	[0, 0, 0]	n/a	catFR1	0	R1202M
2206.388	0.008	2001631	COUNTDOWN_END	n/a	n/a	n/a	n/a	-999	15	[0, 0, 0]	n/a	catFR1	0	R1202M
2206.396	1.6	2001639	ORIENT	n/a	n/a	n/a	n/a	-999	15	[0, 0, 0]	n/a	catFR1	0	R1202M
2208.014	2.017	2003257	ORIENT_OFF	n/a	n/a	n/a	n/a	-999	15	[0, 0, 0]	n/a	catFR1	0	R1202M
2210.031	1.6	2005274	WORD	n/a	wordpools/wordpool_categorized_EN.txt	SPIDER	Insects	1	15	[0, 0, 0]	n/a	catFR1	0	R1202M
2211.648	0.865	2006890	WORD_OFF	n/a	n/a	SPIDER	n/a	1	15	[0, 0, 0]	n/a	catFR1	0	R1202M
2212.513	1.6	2007755	WORD	n/a	wordpools/wordpool_categorized_EN.txt	ROACH	Insects	2	15	[0, 0, 0]	n/a	catFR1	0	R1202M
2214.13	0.951	2009372	WORD_OFF	n/a	n/a	ROACH	n/a	2	15	[0, 0, 0]	n/a	catFR1	0	R1202M
2215.081	1.6	2010323	WORD	n/a	wordpools/wordpool_categorized_EN.txt	PASTRY	Desserts	3	15	[0, 0, 0]	n/a	catFR1	0	R1202M
2216.699	0.933	2011941	WORD_OFF	n/a	n/a	PASTRY	n/a	3	15	[0, 0, 0]	n/a	catFR1	0	R1202M
2217.632	1.6	2012874	WORD	n/a	wordpools/wordpool_categorized_EN.txt	MOUSSE	Desserts	4	15	[0, 0, 0]	n/a	catFR1	0	R1202M
2219.248	0.933	2014490	WORD_OFF	n/a	n/a	MOUSSE	n/a	4	15	[0, 0, 0]	n/a	catFR1	0	R1202M
2220.181	1.6	2015423	WORD	n/a	wordpools/wordpool_categorized_EN.txt	PIGEON	Birds	5	15	[0, 0, 0]	n/a	catFR1	0	R1202M
2221.799	0.984	2017041	WORD_OFF	n/a	n/a	PIGEON	n/a	5	15	[0, 0, 0]	n/a	catFR1	0	R1202M
2222.783	1.6	2018025	WORD	n/a	wordpools/wordpool_categorized_EN.txt	GOOSE	Birds	6	15	[0, 0, 0]	n/a	catFR1	0	R1202M
2224.399	0.984	2019641	WORD_OFF	n/a	n/a	GOOSE	n/a	6	15	[0, 0, 0]	n/a	catFR1	0	R1202M
2225.383	1.6	2020625	WORD	n/a	wordpools/wordpool_categorized_EN.txt	ANT	Insects	7	15	[0, 0, 0]	n/a	catFR1	0	R1202M
2227.001	0.8	2022243	WORD_OFF	n/a	n/a	ANT	n/a	7	15	[0, 0, 0]	n/a	catFR1	0	R1202M
2227.801	1.6	2023043	WORD	n/a	wordpools/wordpool_categorized_EN.txt	CRICKET	Insects	8	15	[0, 0, 0]	n/a	catFR1	0	R1202M
2229.417	0.983	2024658	WORD_OFF	n/a	n/a	CRICKET	n/a	8	15	[0, 0, 0]	n/a	catFR1	0	R1202M
2230.4	1.6	2025641	WORD	n/a	wordpools/wordpool_categorized_EN.txt	BROWNIES	Desserts	9	15	[0, 0, 0]	n/a	catFR1	0	R1202M
2232.018	0.767	2027259	WORD_OFF	n/a	n/a	BROWNIES	n/a	9	15	[0, 0, 0]	n/a	catFR1	0	R1202M
2232.785	1.6	2028026	WORD	n/a	wordpools/wordpool_categorized_EN.txt	CHEESECAKE	Desserts	10	15	[0, 0, 0]	n/a	catFR1	0	R1202M
2234.401	0.817	2029642	WORD_OFF	n/a	n/a	CHEESECAKE	n/a	10	15	[0, 0, 0]	n/a	catFR1	0	R1202M
2235.218	1.6	2030459	WORD	n/a	wordpools/wordpool_categorized_EN.txt	BLUEBIRD	Birds	11	15	[0, 0, 0]	n/a	catFR1	0	R1202M
2236.836	0.767	2032077	WORD_OFF	n/a	n/a	BLUEBIRD	n/a	11	15	[0, 0, 0]	n/a	catFR1	0	R1202M
2237.603	1.6	2032844	WORD	n/a	wordpools/wordpool_categorized_EN.txt	ROBIN	Birds	12	15	[0, 0, 0]	n/a	catFR1	0	R1202M
2239.219	0.0	2034460	ENCODING_END	n/a	n/a	n/a	n/a	-999	15	[0, 0, 0]	n/a	catFR1	0	R1202M
2239.219	0.133	2034460	WORD_OFF	n/a	n/a	ROBIN	n/a	12	15	[0, 0, 0]	n/a	catFR1	0	R1202M
2239.352	0.0	2034593	DISTRACT_START	n/a	n/a	n/a	n/a	-999	15	[0, 0, 0]	n/a	catFR1	0	R1202M
2239.352	0.017	2034593	START	n/a	n/a	n/a	n/a	-999	16	[-999, -999, -999]	n/a	catFR1	0	R1202M
2239.369	7.602	2034610	PROB	7.573	n/a	n/a	n/a	-999	16	[2, 6, 7]	15.0	catFR1	0	R1202M
2246.971	4.25	2042211	PROB	4.218	n/a	n/a	n/a	-999	16	[3, 5, 4]	12.0	catFR1	0	R1202M
2251.221	9.384	2046461	PROB	9.384	n/a	n/a	n/a	-999	16	[9, 6, 8]	23.0	catFR1	0	R1202M
2260.605	0.019	2055845	STOP	n/a	n/a	n/a	n/a	-999	16	[-999, -999, -999]	n/a	catFR1	0	R1202M
2260.624	0.682	2055864	DISTRACT_END	n/a	n/a	n/a	n/a	-999	15	[0, 0, 0]	n/a	catFR1	0	R1202M
2261.306	0.519	2056546	RETRIEVAL_ORIENT	n/a	n/a	n/a	n/a	-999	15	[0, 0, 0]	n/a	catFR1	0	R1202M
2261.825	2.382	2057065	REC_START	n/a	n/a	n/a	n/a	-999	15	[0, 0, 0]	n/a	catFR1	0	R1202M
2264.207	4.557	2059447	REC_WORD	2.382	n/a	SPIDER	Insects	1	15	[0, 0, 0]	n/a	catFR1	0	R1202M
2268.764	3.151	2064003	REC_WORD	6.939	n/a	ROACH	Insects	2	15	[0, 0, 0]	n/a	catFR1	0	R1202M
2271.915	11.395	2067154	REC_WORD	10.09	n/a	CHEESECAKE	Desserts	10	15	[0, 0, 0]	n/a	catFR1	0	R1202M
2283.31	8.525	2078548	REC_WORD	21.485	n/a	BLUEBIRD	Birds	11	15	[0, 0, 0]	n/a	catFR1	0	R1202M
2291.835	6.046	2087073	REC_END	n/a	n/a	n/a	n/a	-999	15	[0, 0, 0]	n/a	catFR1	0	R1202M
2297.881	0.5	2093119	TRIAL	n/a	n/a	n/a	n/a	-999	16	[0, 0, 0]	n/a	catFR1	0	R1202M
2298.381	10.0	2093619	COUNTDOWN_START	n/a	n/a	n/a	n/a	-999	16	[0, 0, 0]	n/a	catFR1	0	R1202M
2308.809	0.007	2104046	COUNTDOWN_END	n/a	n/a	n/a	n/a	-999	16	[0, 0, 0]	n/a	catFR1	0	R1202M
2308.816	1.6	2104053	ORIENT	n/a	n/a	n/a	n/a	-999	16	[0, 0, 0]	n/a	catFR1	0	R1202M
2310.432	1.834	2105669	ORIENT_OFF	n/a	n/a	n/a	n/a	-999	16	[0, 0, 0]	n/a	catFR1	0	R1202M
2312.266	1.6	2107503	WORD	n/a	wordpools/wordpool_categorized_EN.txt	SUNFLOWER	Flowers	1	16	[0, 0, 0]	n/a	catFR1	0	R1202M
2313.884	0.783	2109121	WORD_OFF	n/a	n/a	SUNFLOWER	n/a	1	16	[0, 0, 0]	n/a	catFR1	0	R1202M
2314.667	1.6	2109904	WORD	n/a	wordpools/wordpool_categorized_EN.txt	CARNATION	Flowers	2	16	[0, 0, 0]	n/a	catFR1	0	R1202M
2316.284	0.8	2111521	WORD_OFF	n/a	n/a	CARNATION	n/a	2	16	[0, 0, 0]	n/a	catFR1	0	R1202M
2317.084	1.6	2112321	WORD	n/a	wordpools/wordpool_categorized_EN.txt	BOAT	Vehicles	3	16	[0, 0, 0]	n/a	catFR1	0	R1202M
2318.685	1.0	2113922	WORD_OFF	n/a	n/a	BOAT	n/a	3	16	[0, 0, 0]	n/a	catFR1	0	R1202M
2319.685	1.6	2114921	WORD	n/a	wordpools/wordpool_categorized_EN.txt	VAN	Vehicles	4	16	[0, 0, 0]	n/a	catFR1	0	R1202M
2321.301	0.85	2116537	WORD_OFF	n/a	n/a	VAN	n/a	4	16	[0, 0, 0]	n/a	catFR1	0	R1202M
2322.151	1.6	2117387	WORD	n/a	wordpools/wordpool_categorized_EN.txt	PLUM	Fruit	5	16	[0, 0, 0]	n/a	catFR1	0	R1202M
2323.769	0.851	2119005	WORD_OFF	n/a	n/a	PLUM	n/a	5	16	[0, 0, 0]	n/a	catFR1	0	R1202M
2324.62	1.6	2119856	WORD	n/a	wordpools/wordpool_categorized_EN.txt	LEMON	Fruit	6	16	[0, 0, 0]	n/a	catFR1	0	R1202M
2326.235	0.951	2121471	WORD_OFF	n/a	n/a	LEMON	n/a	6	16	[0, 0, 0]	n/a	catFR1	0	R1202M
2327.186	1.6	2122422	WORD	n/a	wordpools/wordpool_categorized_EN.txt	DAISY	Flowers	7	16	[0, 0, 0]	n/a	catFR1	0	R1202M
2328.804	0.867	2124040	WORD_OFF	n/a	n/a	DAISY	n/a	7	16	[0, 0, 0]	n/a	catFR1	0	R1202M
2329.671	1.6	2124907	WORD	n/a	wordpools/wordpool_categorized_EN.txt	DAFFODIL	Flowers	8	16	[0, 0, 0]	n/a	catFR1	0	R1202M
2331.286	0.967	2126522	WORD_OFF	n/a	n/a	DAFFODIL	n/a	8	16	[0, 0, 0]	n/a	catFR1	0	R1202M
2332.253	1.6	2127489	WORD	n/a	wordpools/wordpool_categorized_EN.txt	JEEP	Vehicles	9	16	[0, 0, 0]	n/a	catFR1	0	R1202M
2333.855	1.0	2129091	WORD_OFF	n/a	n/a	JEEP	n/a	9	16	[0, 0, 0]	n/a	catFR1	0	R1202M
2334.855	1.6	2130091	WORD	n/a	wordpools/wordpool_categorized_EN.txt	BUS	Vehicles	10	16	[0, 0, 0]	n/a	catFR1	0	R1202M
2336.471	0.783	2131707	WORD_OFF	n/a	n/a	BUS	n/a	10	16	[0, 0, 0]	n/a	catFR1	0	R1202M
2337.254	1.6	2132490	WORD	n/a	wordpools/wordpool_categorized_EN.txt	PEACH	Fruit	11	16	[0, 0, 0]	n/a	catFR1	0	R1202M
2338.872	0.884	2134107	WORD_OFF	n/a	n/a	PEACH	n/a	11	16	[0, 0, 0]	n/a	catFR1	0	R1202M
2339.756	1.6	2134991	WORD	n/a	wordpools/wordpool_categorized_EN.txt	BANANA	Fruit	12	16	[0, 0, 0]	n/a	catFR1	0	R1202M
2341.372	0.0	2136607	ENCODING_END	n/a	n/a	n/a	n/a	-999	16	[0, 0, 0]	n/a	catFR1	0	R1202M
2341.372	0.104	2136607	WORD_OFF	n/a	n/a	BANANA	n/a	12	16	[0, 0, 0]	n/a	catFR1	0	R1202M
2341.476	0.0	2136711	DISTRACT_START	n/a	n/a	n/a	n/a	-999	16	[0, 0, 0]	n/a	catFR1	0	R1202M
2341.476	0.012	2136711	START	n/a	n/a	n/a	n/a	-999	17	[-999, -999, -999]	n/a	catFR1	0	R1202M
2341.488	6.602	2136723	PROB	6.571	n/a	n/a	n/a	-999	17	[8, 3, 7]	18.0	catFR1	0	R1202M
2348.09	6.318	2143325	PROB	6.281	n/a	n/a	n/a	-999	17	[2, 3, 8]	13.0	catFR1	0	R1202M
2354.408	5.552	2149643	PROB	5.518	n/a	n/a	n/a	-999	17	[9, 2, 6]	17.0	catFR1	0	R1202M
2359.96	4.381	2155194	PROB	4.381	n/a	n/a	n/a	-999	17	[8, 3, 2]	13.0	catFR1	0	R1202M
2364.341	0.019	2159575	STOP	n/a	n/a	n/a	n/a	-999	17	[-999, -999, -999]	n/a	catFR1	0	R1202M
2364.36	0.651	2159594	DISTRACT_END	n/a	n/a	n/a	n/a	-999	16	[0, 0, 0]	n/a	catFR1	0	R1202M
2365.011	0.517	2160245	RETRIEVAL_ORIENT	n/a	n/a	n/a	n/a	-999	16	[0, 0, 0]	n/a	catFR1	0	R1202M
2365.528	1.821	2160762	REC_START	n/a	n/a	n/a	n/a	-999	16	[0, 0, 0]	n/a	catFR1	0	R1202M
2367.349	2.288	2162583	REC_WORD	1.821	n/a	JEEP	Vehicles	9	16	[0, 0, 0]	n/a	catFR1	0	R1202M
2369.637	2.687	2164871	REC_WORD	4.109	n/a	PEACH	Fruit	11	16	[0, 0, 0]	n/a	catFR1	0	R1202M
2372.324	23.213	2167558	REC_WORD	6.796	n/a	DAFFODIL	Flowers	8	16	[0, 0, 0]	n/a	catFR1	0	R1202M
2395.537	6.464	2190769	REC_END	n/a	n/a	n/a	n/a	-999	16	[0, 0, 0]	n/a	catFR1	0	R1202M
2402.001	0.5	2197233	TRIAL	n/a	n/a	n/a	n/a	-999	17	[0, 0, 0]	n/a	catFR1	0	R1202M
2402.501	10.0	2197733	COUNTDOWN_START	n/a	n/a	n/a	n/a	-999	17	[0, 0, 0]	n/a	catFR1	0	R1202M
2412.929	0.008	2208160	COUNTDOWN_END	n/a	n/a	n/a	n/a	-999	17	[0, 0, 0]	n/a	catFR1	0	R1202M
2412.937	1.6	2208168	ORIENT	n/a	n/a	n/a	n/a	-999	17	[0, 0, 0]	n/a	catFR1	0	R1202M
2414.554	2.083	2209785	ORIENT_OFF	n/a	n/a	n/a	n/a	-999	17	[0, 0, 0]	n/a	catFR1	0	R1202M
2416.637	1.6	2211868	WORD	n/a	wordpools/wordpool_categorized_EN.txt	BASS	Instruments	1	17	[0, 0, 0]	n/a	catFR1	0	R1202M
2418.253	0.8	2213484	WORD_OFF	n/a	n/a	BASS	n/a	1	17	[0, 0, 0]	n/a	catFR1	0	R1202M
2419.053	1.6	2214284	WORD	n/a	wordpools/wordpool_categorized_EN.txt	CELLO	Instruments	2	17	[0, 0, 0]	n/a	catFR1	0	R1202M
2420.672	0.832	2215903	WORD_OFF	n/a	n/a	CELLO	n/a	2	17	[0, 0, 0]	n/a	catFR1	0	R1202M
2421.504	1.6	2216735	WORD	n/a	wordpools/wordpool_categorized_EN.txt	OCEAN	Landscapes	3	17	[0, 0, 0]	n/a	catFR1	0	R1202M
2423.121	0.967	2218352	WORD_OFF	n/a	n/a	OCEAN	n/a	3	17	[0, 0, 0]	n/a	catFR1	0	R1202M
2424.088	1.6	2219319	WORD	n/a	wordpools/wordpool_categorized_EN.txt	FOREST	Landscapes	4	17	[0, 0, 0]	n/a	catFR1	0	R1202M
2425.706	0.799	2220937	WORD_OFF	n/a	n/a	FOREST	n/a	4	17	[0, 0, 0]	n/a	catFR1	0	R1202M
2426.505	1.6	2221736	WORD	n/a	wordpools/wordpool_categorized_EN.txt	FOLDER	OfficeSupplies	5	17	[0, 0, 0]	n/a	catFR1	0	R1202M
2428.122	0.801	2223353	WORD_OFF	n/a	n/a	FOLDER	n/a	5	17	[0, 0, 0]	n/a	catFR1	0	R1202M
2428.923	1.6	2224153	WORD	n/a	wordpools/wordpool_categorized_EN.txt	GLUE	OfficeSupplies	6	17	[0, 0, 0]	n/a	catFR1	0	R1202M
2430.54	0.916	2225770	WORD_OFF	n/a	n/a	GLUE	n/a	6	17	[0, 0, 0]	n/a	catFR1	0	R1202M
2431.456	1.6	2226686	WORD	n/a	wordpools/wordpool_categorized_EN.txt	VIOLIN	Instruments	7	17	[0, 0, 0]	n/a	catFR1	0	R1202M
2433.073	0.967	2228303	WORD_OFF	n/a	n/a	VIOLIN	n/a	7	17	[0, 0, 0]	n/a	catFR1	0	R1202M
2434.04	1.6	2229270	WORD	n/a	wordpools/wordpool_categorized_EN.txt	BANJO	Instruments	8	17	[0, 0, 0]	n/a	catFR1	0	R1202M
2435.658	0.883	2230888	WORD_OFF	n/a	n/a	BANJO	n/a	8	17	[0, 0, 0]	n/a	catFR1	0	R1202M
2436.541	1.6	2231771	WORD	n/a	wordpools/wordpool_categorized_EN.txt	RIVER	Landscapes	9	17	[0, 0, 0]	n/a	catFR1	0	R1202M
2438.157	0.868	2233387	WORD_OFF	n/a	n/a	RIVER	n/a	9	17	[0, 0, 0]	n/a	catFR1	0	R1202M
2439.025	1.6	2234255	WORD	n/a	wordpools/wordpool_categorized_EN.txt	BEACH	Landscapes	10	17	[0, 0, 0]	n/a	catFR1	0	R1202M
2440.642	0.783	2235872	WORD_OFF	n/a	n/a	BEACH	n/a	10	17	[0, 0, 0]	n/a	catFR1	0	R1202M
2441.425	1.6	2236655	WORD	n/a	wordpools/wordpool_categorized_EN.txt	STAPLER	OfficeSupplies	11	17	[0, 0, 0]	n/a	catFR1	0	R1202M
2443.041	0.852	2238271	WORD_OFF	n/a	n/a	STAPLER	n/a	11	17	[0, 0, 0]	n/a	catFR1	0	R1202M
2443.893	1.6	2239123	WORD	n/a	wordpools/wordpool_categorized_EN.txt	PAPER	OfficeSupplies	12	17	[0, 0, 0]	n/a	catFR1	0	R1202M
2445.509	0.0	2240739	ENCODING_END	n/a	n/a	n/a	n/a	-999	17	[0, 0, 0]	n/a	catFR1	0	R1202M
2445.509	0.106	2240739	WORD_OFF	n/a	n/a	PAPER	n/a	12	17	[0, 0, 0]	n/a	catFR1	0	R1202M
2445.615	0.0	2240845	DISTRACT_START	n/a	n/a	n/a	n/a	-999	17	[0, 0, 0]	n/a	catFR1	0	R1202M
2445.615	0.011	2240845	START	n/a	n/a	n/a	n/a	-999	18	[-999, -999, -999]	n/a	catFR1	0	R1202M
2445.626	7.368	2240856	PROB	7.332	n/a	n/a	n/a	-999	18	[9, 5, 6]	20.0	catFR1	0	R1202M
2452.994	3.968	2248223	PROB	3.938	n/a	n/a	n/a	-999	18	[2, 8, 3]	13.0	catFR1	0	R1202M
2456.962	7.968	2252191	PROB	7.931	n/a	n/a	n/a	-999	18	[9, 5, 7]	21.0	catFR1	0	R1202M
2464.93	11.994	2260158	PROB	11.994	n/a	n/a	n/a	-999	18	[3, 9, 3]	15.0	catFR1	0	R1202M
2476.924	0.009	2272152	STOP	n/a	n/a	n/a	n/a	-999	18	[-999, -999, -999]	n/a	catFR1	0	R1202M
2476.933	0.65	2272161	DISTRACT_END	n/a	n/a	n/a	n/a	-999	17	[0, 0, 0]	n/a	catFR1	0	R1202M
2477.583	0.516	2272811	RETRIEVAL_ORIENT	n/a	n/a	n/a	n/a	-999	17	[0, 0, 0]	n/a	catFR1	0	R1202M
2478.099	3.619	2273327	REC_START	n/a	n/a	n/a	n/a	-999	17	[0, 0, 0]	n/a	catFR1	0	R1202M
2481.718	3.83	2276946	REC_WORD	3.619	n/a	BANJO	Instruments	8	17	[0, 0, 0]	n/a	catFR1	0	R1202M
2485.548	2.002	2280775	REC_WORD	7.449	n/a	VIOLIN	Instruments	7	17	[0, 0, 0]	n/a	catFR1	0	R1202M
2487.55	15.529	2282777	REC_WORD	9.451	n/a	CELLO	Instruments	2	17	[0, 0, 0]	n/a	catFR1	0	R1202M
2503.079	5.029	2298305	REC_WORD	24.98	n/a	PIANO	n/a	-999	17	[0, 0, 0]	n/a	catFR1	0	R1202M
2508.108	7.098	2303334	REC_END	n/a	n/a	n/a	n/a	-999	17	[0, 0, 0]	n/a	catFR1	0	R1202M
2515.206	0.5	2310432	TRIAL	n/a	n/a	n/a	n/a	-999	18	[0, 0, 0]	n/a	catFR1	0	R1202M
2515.706	10.0	2310932	COUNTDOWN_START	n/a	n/a	n/a	n/a	-999	18	[0, 0, 0]	n/a	catFR1	0	R1202M
2526.134	0.007	2321359	COUNTDOWN_END	n/a	n/a	n/a	n/a	-999	18	[0, 0, 0]	n/a	catFR1	0	R1202M
2526.141	1.6	2321366	ORIENT	n/a	n/a	n/a	n/a	-999	18	[0, 0, 0]	n/a	catFR1	0	R1202M
2527.759	2.184	2322984	ORIENT_OFF	n/a	n/a	n/a	n/a	-999	18	[0, 0, 0]	n/a	catFR1	0	R1202M
2529.943	1.6	2325168	WORD	n/a	wordpools/wordpool_categorized_EN.txt	CAR	Vehicles	1	18	[0, 0, 0]	n/a	catFR1	0	R1202M
2531.56	0.782	2326785	WORD_OFF	n/a	n/a	CAR	n/a	1	18	[0, 0, 0]	n/a	catFR1	0	R1202M
2532.342	1.6	2327567	WORD	n/a	wordpools/wordpool_categorized_EN.txt	BIKE	Vehicles	2	18	[0, 0, 0]	n/a	catFR1	0	R1202M
2533.96	1.0	2329185	WORD_OFF	n/a	n/a	BIKE	n/a	2	18	[0, 0, 0]	n/a	catFR1	0	R1202M
2534.96	1.6	2330185	WORD	n/a	wordpools/wordpool_categorized_EN.txt	COW	FarmAnimals	3	18	[0, 0, 0]	n/a	catFR1	0	R1202M
2536.577	0.916	2331802	WORD_OFF	n/a	n/a	COW	n/a	3	18	[0, 0, 0]	n/a	catFR1	0	R1202M
2537.493	1.6	2332717	WORD	n/a	wordpools/wordpool_categorized_EN.txt	SHEEP	FarmAnimals	4	18	[0, 0, 0]	n/a	catFR1	0	R1202M
2539.11	0.801	2334334	WORD_OFF	n/a	n/a	SHEEP	n/a	4	18	[0, 0, 0]	n/a	catFR1	0	R1202M
2539.911	1.6	2335135	WORD	n/a	wordpools/wordpool_categorized_EN.txt	POTATO	Vegetables	5	18	[0, 0, 0]	n/a	catFR1	0	R1202M
2541.528	0.799	2336752	WORD_OFF	n/a	n/a	POTATO	n/a	5	18	[0, 0, 0]	n/a	catFR1	0	R1202M
2542.327	1.6	2337551	WORD	n/a	wordpools/wordpool_categorized_EN.txt	ONION	Vegetables	6	18	[0, 0, 0]	n/a	catFR1	0	R1202M
2543.928	0.884	2339152	WORD_OFF	n/a	n/a	ONION	n/a	6	18	[0, 0, 0]	n/a	catFR1	0	R1202M
2544.812	1.6	2340036	WORD	n/a	wordpools/wordpool_categorized_EN.txt	MOPED	Vehicles	7	18	[0, 0, 0]	n/a	catFR1	0	R1202M
2546.428	0.767	2341652	WORD_OFF	n/a	n/a	MOPED	n/a	7	18	[0, 0, 0]	n/a	catFR1	0	R1202M
2547.195	1.6	2342419	WORD	n/a	wordpools/wordpool_categorized_EN.txt	SCOOTER	Vehicles	8	18	[0, 0, 0]	n/a	catFR1	0	R1202M
2548.813	0.867	2344037	WORD_OFF	n/a	n/a	SCOOTER	n/a	8	18	[0, 0, 0]	n/a	catFR1	0	R1202M
2549.68	1.6	2344904	WORD	n/a	wordpools/wordpool_categorized_EN.txt	HEN	FarmAnimals	9	18	[0, 0, 0]	n/a	catFR1	0	R1202M
2551.296	1.0	2346520	WORD_OFF	n/a	n/a	HEN	n/a	9	18	[0, 0, 0]	n/a	catFR1	0	R1202M
2552.296	1.6	2347520	WORD	n/a	wordpools/wordpool_categorized_EN.txt	ROOSTER	FarmAnimals	10	18	[0, 0, 0]	n/a	catFR1	0	R1202M
2553.914	0.967	2349138	WORD_OFF	n/a	n/a	ROOSTER	n/a	10	18	[0, 0, 0]	n/a	catFR1	0	R1202M
2554.881	1.6	2350105	WORD	n/a	wordpools/wordpool_categorized_EN.txt	CAULIFLOWER	Vegetables	11	18	[0, 0, 0]	n/a	catFR1	0	R1202M
2556.497	0.883	2351720	WORD_OFF	n/a	n/a	CAULIFLOWER	n/a	11	18	[0, 0, 0]	n/a	catFR1	0	R1202M
2557.38	1.6	2352603	WORD	n/a	wordpools/wordpool_categorized_EN.txt	PEAS	Vegetables	12	18	[0, 0, 0]	n/a	catFR1	0	R1202M
2558.981	0.001	2354204	WORD_OFF	n/a	n/a	PEAS	n/a	12	18	[0, 0, 0]	n/a	catFR1	0	R1202M
2558.982	0.135	2354205	ENCODING_END	n/a	n/a	n/a	n/a	-999	18	[0, 0, 0]	n/a	catFR1	0	R1202M
2559.117	0.0	2354340	DISTRACT_START	n/a	n/a	n/a	n/a	-999	18	[0, 0, 0]	n/a	catFR1	0	R1202M
2559.117	0.014	2354340	START	n/a	n/a	n/a	n/a	-999	19	[-999, -999, -999]	n/a	catFR1	0	R1202M
2559.131	6.034	2354354	PROB	6.001	n/a	n/a	n/a	-999	19	[8, 1, 1]	10.0	catFR1	0	R1202M
2565.165	5.602	2360388	PROB	5.577	n/a	n/a	n/a	-999	19	[7, 5, 4]	16.0	catFR1	0	R1202M
2570.767	6.135	2365990	PROB	6.11	n/a	n/a	n/a	-999	19	[5, 8, 1]	14.0	catFR1	0	R1202M
2576.902	5.293	2372124	PROB	5.293	n/a	n/a	n/a	-999	19	[6, 2, 4]	12.0	catFR1	0	R1202M
2582.195	0.007	2377417	STOP	n/a	n/a	n/a	n/a	-999	19	[-999, -999, -999]	n/a	catFR1	0	R1202M
2582.202	0.634	2377424	DISTRACT_END	n/a	n/a	n/a	n/a	-999	18	[0, 0, 0]	n/a	catFR1	0	R1202M
2582.836	0.517	2378058	RETRIEVAL_ORIENT	n/a	n/a	n/a	n/a	-999	18	[0, 0, 0]	n/a	catFR1	0	R1202M
2583.353	28.5	2378575	REC_START	n/a	n/a	n/a	n/a	-999	18	[0, 0, 0]	n/a	catFR1	0	R1202M
2611.853	1.51	2407073	REC_WORD_VV	28.5	n/a	<>	n/a	-999	18	[0, 0, 0]	n/a	catFR1	0	R1202M
2613.363	18.399	2408583	REC_END	n/a	n/a	n/a	n/a	-999	18	[0, 0, 0]	n/a	catFR1	0	R1202M
2631.762	0.0	2426981	TRIAL	n/a	n/a	n/a	n/a	-999	19	[0, 0, 0]	n/a	catFR1	0	R1202M
