onset	duration	sample	trial_type	response_time	stim_file	item_name	category	serialpos	list	test	answer	experiment	session	subject
0.0	3.481	0	INSTRUCT_START	n/a	n/a	n/a	n/a	-999	-999	[0, 0, 0]	n/a	catFR1	3	R1380D
3.481	38.816	3333	INSTRUCT_END	n/a	n/a	n/a	n/a	-999	-999	[0, 0, 0]	n/a	catFR1	3	R1380D
42.297	10.351	42144	COUNTDOWN_START	n/a	n/a	n/a	n/a	-999	-999	[0, 0, 0]	n/a	catFR1	3	R1380D
52.648	0.001	52494	COUNTDOWN_END	n/a	n/a	n/a	n/a	-999	-999	[0, 0, 0]	n/a	catFR1	3	R1380D
52.649	2.031	52494	ENCODING_START	n/a	n/a	n/a	n/a	-999	-1	[0, 0, 0]	n/a	catFR1	3	R1380D
54.68	1.617	54529	WORD	n/a	n/a	PLUMBER	Professions	1	-1	[0, 0, 0]	n/a	catFR1	3	R1380D
56.297	0.916	56145	WORD_OFF	n/a	n/a	PLUMBER	Professions	1	-1	[0, 0, 0]	n/a	catFR1	3	R1380D
57.213	1.616	57055	WORD	n/a	n/a	FIREMAN	Professions	2	-1	[0, 0, 0]	n/a	catFR1	3	R1380D
58.829	0.951	58671	WORD_OFF	n/a	n/a	FIREMAN	Professions	2	-1	[0, 0, 0]	n/a	catFR1	3	R1380D
59.78	1.6	59622	WORD	n/a	n/a	SECOND	Times	3	-1	[0, 0, 0]	n/a	catFR1	3	R1380D
61.38	0.784	61227	WORD_OFF	n/a	n/a	SECOND	Times	3	-1	[0, 0, 0]	n/a	catFR1	3	R1380D
62.164	1.599	62005	WORD	n/a	n/a	DAY	Times	4	-1	[0, 0, 0]	n/a	catFR1	3	R1380D
63.763	0.866	63610	WORD_OFF	n/a	n/a	DAY	Times	4	-1	[0, 0, 0]	n/a	catFR1	3	R1380D
64.629	1.601	64469	WORD	n/a	n/a	SILK	Materials	5	-1	[0, 0, 0]	n/a	catFR1	3	R1380D
66.23	0.867	66075	WORD_OFF	n/a	n/a	SILK	Materials	5	-1	[0, 0, 0]	n/a	catFR1	3	R1380D
67.097	1.6	66944	WORD	n/a	n/a	DENIM	Materials	6	-1	[0, 0, 0]	n/a	catFR1	3	R1380D
68.697	0.95	68540	WORD_OFF	n/a	n/a	DENIM	Materials	6	-1	[0, 0, 0]	n/a	catFR1	3	R1380D
69.647	1.6	69491	WORD	n/a	n/a	TEACHER	Professions	7	-1	[0, 0, 0]	n/a	catFR1	3	R1380D
71.247	0.833	71086	WORD_OFF	n/a	n/a	TEACHER	Professions	7	-1	[0, 0, 0]	n/a	catFR1	3	R1380D
72.08	1.617	71925	WORD	n/a	n/a	FARMER	Professions	8	-1	[0, 0, 0]	n/a	catFR1	3	R1380D
73.697	0.816	73540	WORD_OFF	n/a	n/a	FARMER	Professions	8	-1	[0, 0, 0]	n/a	catFR1	3	R1380D
74.513	1.601	74359	WORD	n/a	n/a	HOUR	Times	9	-1	[0, 0, 0]	n/a	catFR1	3	R1380D
76.114	0.816	75954	WORD_OFF	n/a	n/a	HOUR	Times	9	-1	[0, 0, 0]	n/a	catFR1	3	R1380D
76.93	1.617	76772	WORD	n/a	n/a	MINUTE	Times	10	-1	[0, 0, 0]	n/a	catFR1	3	R1380D
78.547	0.967	78388	WORD_OFF	n/a	n/a	MINUTE	Times	10	-1	[0, 0, 0]	n/a	catFR1	3	R1380D
79.514	1.616	79359	WORD	n/a	n/a	WOOL	Materials	11	-1	[0, 0, 0]	n/a	catFR1	3	R1380D
81.13	0.867	80975	WORD_OFF	n/a	n/a	WOOL	Materials	11	-1	[0, 0, 0]	n/a	catFR1	3	R1380D
81.997	1.6	81834	WORD	n/a	n/a	LEATHER	Materials	12	-1	[0, 0, 0]	n/a	catFR1	3	R1380D
83.597	0.002	83440	WORD_OFF	n/a	n/a	LEATHER	Materials	12	-1	[0, 0, 0]	n/a	catFR1	3	R1380D
83.599	0.001	83440	ENCODING_END	n/a	n/a	n/a	n/a	-999	-1	[0, 0, 0]	n/a	catFR1	3	R1380D
83.6	0.0	83440	DISTRACT_START	n/a	n/a	n/a	n/a	-999	-1	[0, 0, 0]	n/a	catFR1	3	R1380D
83.598	0.002	83440	PROB	0.002	n/a	n/a	n/a	-999	-1	[2, 2, 6]	10	catFR1	3	R1380D
83.6	3.28	83442	START	n/a	n/a	n/a	n/a	-999	-1	[-999, -999, -999]	n/a	catFR1	3	R1380D
86.88	3.834	86721	PROB	3.834	n/a	n/a	n/a	-999	-1	[6, 8, 6]	20	catFR1	3	R1380D
90.714	2.3	90555	PROB	2.3	n/a	n/a	n/a	-999	-1	[3, 3, 3]	9	catFR1	3	R1380D
93.014	4.2	92855	PROB	4.2	n/a	n/a	n/a	-999	-1	[2, 6, 8]	16	catFR1	3	R1380D
97.214	2.667	97055	PROB	2.667	n/a	n/a	n/a	-999	-1	[2, 4, 5]	11	catFR1	3	R1380D
99.881	2.633	99722	PROB	2.633	n/a	n/a	n/a	-999	-1	[7, 1, 6]	14	catFR1	3	R1380D
102.514	3.983	102355	PROB	3.983	n/a	n/a	n/a	-999	-1	[8, 5, 6]	19	catFR1	3	R1380D
106.497	0.0	106337	STOP	n/a	n/a	n/a	n/a	-999	-1	[-999, -999, -999]	n/a	catFR1	3	R1380D
106.497	1.117	106338	DISTRACT_END	n/a	n/a	n/a	n/a	-999	-1	[0, 0, 0]	n/a	catFR1	3	R1380D
107.614	1.597	107452	REC_START	n/a	n/a	n/a	n/a	-999	-1	[0, 0, 0]	n/a	catFR1	3	R1380D
109.211	1.597	109051	REC_WORD	1.597	n/a	SILK	Materials	5	-1	[0, 0, 0]	n/a	catFR1	3	R1380D
110.808	1.748	110648	REC_WORD	1.748	n/a	DENIM	Materials	6	-1	[0, 0, 0]	n/a	catFR1	3	R1380D
112.556	0.999	112396	REC_WORD	0.999	n/a	WOOL	Materials	11	-1	[0, 0, 0]	n/a	catFR1	3	R1380D
113.555	1.228	113395	REC_WORD	1.228	n/a	LEATHER	Materials	12	-1	[0, 0, 0]	n/a	catFR1	3	R1380D
114.783	1.118	114623	REC_WORD	1.118	n/a	FIREMAN	Professions	2	-1	[0, 0, 0]	n/a	catFR1	3	R1380D
115.901	0.804	115741	REC_WORD	0.804	n/a	PLUMBER	Professions	1	-1	[0, 0, 0]	n/a	catFR1	3	R1380D
116.705	1.617	116545	REC_WORD	1.617	n/a	TEACHER	Professions	7	-1	[0, 0, 0]	n/a	catFR1	3	R1380D
118.322	1.934	118162	REC_WORD	1.934	n/a	FARMER	Professions	8	-1	[0, 0, 0]	n/a	catFR1	3	R1380D
120.256	1.738	120096	REC_WORD	1.738	n/a	DAY	Times	4	-1	[0, 0, 0]	n/a	catFR1	3	R1380D
121.994	1.224	121834	REC_WORD	1.224	n/a	SECOND	Times	3	-1	[0, 0, 0]	n/a	catFR1	3	R1380D
123.218	0.744	123058	REC_WORD	0.744	n/a	HOUR	Times	9	-1	[0, 0, 0]	n/a	catFR1	3	R1380D
123.962	13.92	123802	REC_WORD	13.92	n/a	MINUTE	Times	10	-1	[0, 0, 0]	n/a	catFR1	3	R1380D
137.882	11.298	137724	REC_END	n/a	n/a	n/a	n/a	-999	-1	[0, 0, 0]	n/a	catFR1	3	R1380D
149.18	10.35	149024	COUNTDOWN_START	n/a	n/a	n/a	n/a	-999	1	[0, 0, 0]	n/a	catFR1	3	R1380D
159.53	0.0	159364	COUNTDOWN_END	n/a	n/a	n/a	n/a	-999	1	[0, 0, 0]	n/a	catFR1	3	R1380D
159.53	1.95	159374	ENCODING_START	n/a	n/a	n/a	n/a	-999	1	[0, 0, 0]	n/a	catFR1	3	R1380D
161.48	1.616	161317	WORD	n/a	wordpools/wordpool_categorized_EN.txt	FINGERS	Bodyparts	1	1	[0, 0, 0]	n/a	catFR1	3	R1380D
163.096	0.95	162933	WORD_OFF	n/a	n/a	FINGERS	Bodyparts	1	1	[0, 0, 0]	n/a	catFR1	3	R1380D
164.046	1.6	163884	WORD	n/a	wordpools/wordpool_categorized_EN.txt	EYE	Bodyparts	2	1	[0, 0, 0]	n/a	catFR1	3	R1380D
165.646	0.951	165479	WORD_OFF	n/a	n/a	EYE	Bodyparts	2	1	[0, 0, 0]	n/a	catFR1	3	R1380D
166.597	1.616	166430	WORD	n/a	wordpools/wordpool_categorized_EN.txt	SHRIMP	Oceananimals	3	1	[0, 0, 0]	n/a	catFR1	3	R1380D
168.213	0.949	168046	WORD_OFF	n/a	n/a	SHRIMP	Oceananimals	3	1	[0, 0, 0]	n/a	catFR1	3	R1380D
169.162	1.601	168997	WORD	n/a	wordpools/wordpool_categorized_EN.txt	PLANKTON	Oceananimals	4	1	[0, 0, 0]	n/a	catFR1	3	R1380D
170.763	0.884	170603	WORD_OFF	n/a	n/a	PLANKTON	Oceananimals	4	1	[0, 0, 0]	n/a	catFR1	3	R1380D
171.647	1.6	171482	WORD	n/a	wordpools/wordpool_categorized_EN.txt	MARBLES	Toys	5	1	[0, 0, 0]	n/a	catFR1	3	R1380D
173.247	0.817	173088	WORD_OFF	n/a	n/a	MARBLES	Toys	5	1	[0, 0, 0]	n/a	catFR1	3	R1380D
174.064	1.599	173906	WORD	n/a	wordpools/wordpool_categorized_EN.txt	BASKETBALL	Toys	6	1	[0, 0, 0]	n/a	catFR1	3	R1380D
175.663	0.95	175502	WORD_OFF	n/a	n/a	BASKETBALL	Toys	6	1	[0, 0, 0]	n/a	catFR1	3	R1380D
176.613	1.617	176453	WORD	n/a	wordpools/wordpool_categorized_EN.txt	WHALE	Oceananimals	7	1	[0, 0, 0]	n/a	catFR1	3	R1380D
178.23	0.883	178069	WORD_OFF	n/a	n/a	WHALE	Oceananimals	7	1	[0, 0, 0]	n/a	catFR1	3	R1380D
179.113	1.6	178948	WORD	n/a	wordpools/wordpool_categorized_EN.txt	SQUID	Oceananimals	8	1	[0, 0, 0]	n/a	catFR1	3	R1380D
180.713	0.983	180554	WORD_OFF	n/a	n/a	SQUID	Oceananimals	8	1	[0, 0, 0]	n/a	catFR1	3	R1380D
181.696	1.601	181535	WORD	n/a	wordpools/wordpool_categorized_EN.txt	DOLL	Toys	9	1	[0, 0, 0]	n/a	catFR1	3	R1380D
183.297	0.917	183131	WORD_OFF	n/a	n/a	DOLL	Toys	9	1	[0, 0, 0]	n/a	catFR1	3	R1380D
184.214	1.616	184051	WORD	n/a	wordpools/wordpool_categorized_EN.txt	FRISBEE	Toys	10	1	[0, 0, 0]	n/a	catFR1	3	R1380D
185.83	0.884	185667	WORD_OFF	n/a	n/a	FRISBEE	Toys	10	1	[0, 0, 0]	n/a	catFR1	3	R1380D
186.714	1.616	186547	WORD	n/a	wordpools/wordpool_categorized_EN.txt	TOE	Bodyparts	11	1	[0, 0, 0]	n/a	catFR1	3	R1380D
188.33	0.833	188162	WORD_OFF	n/a	n/a	TOE	Bodyparts	11	1	[0, 0, 0]	n/a	catFR1	3	R1380D
189.163	1.6	189001	WORD	n/a	wordpools/wordpool_categorized_EN.txt	ARM	Bodyparts	12	1	[0, 0, 0]	n/a	catFR1	3	R1380D
190.763	0.001	190596	WORD_OFF	n/a	n/a	ARM	Bodyparts	12	1	[0, 0, 0]	n/a	catFR1	3	R1380D
190.764	0.001	190600	PROB	0.001	n/a	n/a	n/a	-999	1	[2, 6, 3]	11	catFR1	3	R1380D
190.765	0.0	190601	START	n/a	n/a	n/a	n/a	-999	1	[-999, -999, -999]	n/a	catFR1	3	R1380D
190.765	0.0	190607	ENCODING_END	n/a	n/a	n/a	n/a	-999	1	[0, 0, 0]	n/a	catFR1	3	R1380D
190.765	3.316	190607	DISTRACT_START	n/a	n/a	n/a	n/a	-999	1	[0, 0, 0]	n/a	catFR1	3	R1380D
194.081	2.133	193917	PROB	2.133	n/a	n/a	n/a	-999	1	[1, 5, 6]	12	catFR1	3	R1380D
196.214	3.633	196050	PROB	3.633	n/a	n/a	n/a	-999	1	[2, 2, 4]	10	catFR1	3	R1380D
199.847	5.151	199683	PROB	5.151	n/a	n/a	n/a	-999	1	[3, 3, 2]	8	catFR1	3	R1380D
204.998	4.866	204833	PROB	4.866	n/a	n/a	n/a	-999	1	[8, 5, 2]	15	catFR1	3	R1380D
209.864	7.816	209699	PROB	7.816	n/a	n/a	n/a	-999	1	[3, 5, 8]	16	catFR1	3	R1380D
217.68	0.0	217513	DISTRACT_END	n/a	n/a	n/a	n/a	-999	1	[0, 0, 0]	n/a	catFR1	3	R1380D
217.68	1.167	217515	STOP	n/a	n/a	n/a	n/a	-999	1	[-999, -999, -999]	n/a	catFR1	3	R1380D
218.847	1.917	218679	REC_START	n/a	n/a	n/a	n/a	-999	1	[0, 0, 0]	n/a	catFR1	3	R1380D
220.764	1.199	220598	REC_WORD	1.199	n/a	SHRIMP	Oceananimals	3	1	[0, 0, 0]	n/a	catFR1	3	R1380D
221.963	0.965	221797	REC_WORD	0.965	n/a	PLANKTON	Oceananimals	4	1	[0, 0, 0]	n/a	catFR1	3	R1380D
222.928	0.377	222762	REC_WORD	0.377	n/a	WHALE	Oceananimals	7	1	[0, 0, 0]	n/a	catFR1	3	R1380D
223.305	1.758	223139	REC_WORD	1.758	n/a	SQUID	Oceananimals	8	1	[0, 0, 0]	n/a	catFR1	3	R1380D
225.063	2.122	224897	REC_WORD_VV	2.122	n/a	<>	n/a	-999	1	[0, 0, 0]	n/a	catFR1	3	R1380D
227.185	1.511	227019	REC_WORD	1.511	n/a	HAND	n/a	-999	1	[0, 0, 0]	n/a	catFR1	3	R1380D
228.696	1.328	228530	REC_WORD	1.328	n/a	FINGERS	Bodyparts	1	1	[0, 0, 0]	n/a	catFR1	3	R1380D
230.024	0.672	229858	REC_WORD	0.672	n/a	EYE	Bodyparts	2	1	[0, 0, 0]	n/a	catFR1	3	R1380D
230.696	10.323	230530	REC_WORD	10.323	n/a	TOE	Bodyparts	11	1	[0, 0, 0]	n/a	catFR1	3	R1380D
241.019	0.897	240852	REC_WORD	0.897	n/a	FRISBEE	Toys	10	1	[0, 0, 0]	n/a	catFR1	3	R1380D
241.916	0.633	241749	REC_WORD	0.633	n/a	BASKETBALL	Toys	6	1	[0, 0, 0]	n/a	catFR1	3	R1380D
242.549	0.505	242382	REC_WORD	0.505	n/a	MARBLES	Toys	5	1	[0, 0, 0]	n/a	catFR1	3	R1380D
243.054	6.048	242887	REC_WORD	6.048	n/a	DOLL	Toys	9	1	[0, 0, 0]	n/a	catFR1	3	R1380D
249.102	1.728	248940	REC_END	n/a	n/a	n/a	n/a	-999	1	[0, 0, 0]	n/a	catFR1	3	R1380D
250.83	10.35	250669	COUNTDOWN_START	n/a	n/a	n/a	n/a	-999	2	[0, 0, 0]	n/a	catFR1	3	R1380D
261.18	0.0	261008	COUNTDOWN_END	n/a	n/a	n/a	n/a	-999	2	[0, 0, 0]	n/a	catFR1	3	R1380D
261.18	2.083	261018	ENCODING_START	n/a	n/a	n/a	n/a	-999	2	[0, 0, 0]	n/a	catFR1	3	R1380D
263.263	1.6	263094	WORD	n/a	wordpools/wordpool_categorized_EN.txt	BROWNIES	Desserts	1	2	[0, 0, 0]	n/a	catFR1	3	R1380D
264.863	0.883	264700	WORD_OFF	n/a	n/a	BROWNIES	Desserts	1	2	[0, 0, 0]	n/a	catFR1	3	R1380D
265.746	1.6	265579	WORD	n/a	wordpools/wordpool_categorized_EN.txt	COOKIE	Desserts	2	2	[0, 0, 0]	n/a	catFR1	3	R1380D
267.346	0.867	267175	WORD_OFF	n/a	n/a	COOKIE	Desserts	2	2	[0, 0, 0]	n/a	catFR1	3	R1380D
268.213	1.6	268044	WORD	n/a	wordpools/wordpool_categorized_EN.txt	HEN	Farmanimals	3	2	[0, 0, 0]	n/a	catFR1	3	R1380D
269.813	0.934	269649	WORD_OFF	n/a	n/a	HEN	Farmanimals	3	2	[0, 0, 0]	n/a	catFR1	3	R1380D
270.747	1.617	270580	WORD	n/a	wordpools/wordpool_categorized_EN.txt	CALF	Farmanimals	4	2	[0, 0, 0]	n/a	catFR1	3	R1380D
272.364	0.833	272196	WORD_OFF	n/a	n/a	CALF	Farmanimals	4	2	[0, 0, 0]	n/a	catFR1	3	R1380D
273.197	1.6	273024	WORD	n/a	wordpools/wordpool_categorized_EN.txt	WALL	Building	5	2	[0, 0, 0]	n/a	catFR1	3	R1380D
274.797	0.8	274630	WORD_OFF	n/a	n/a	WALL	Building	5	2	[0, 0, 0]	n/a	catFR1	3	R1380D
275.597	1.6	275428	WORD	n/a	wordpools/wordpool_categorized_EN.txt	ROOF	Building	6	2	[0, 0, 0]	n/a	catFR1	3	R1380D
277.197	1.0	277033	WORD_OFF	n/a	n/a	ROOF	Building	6	2	[0, 0, 0]	n/a	catFR1	3	R1380D
278.197	1.617	278025	WORD	n/a	wordpools/wordpool_categorized_EN.txt	PIG	Farmanimals	7	2	[0, 0, 0]	n/a	catFR1	3	R1380D
279.814	0.916	279641	WORD_OFF	n/a	n/a	PIG	Farmanimals	7	2	[0, 0, 0]	n/a	catFR1	3	R1380D
280.73	1.6	280561	WORD	n/a	wordpools/wordpool_categorized_EN.txt	ROOSTER	Farmanimals	8	2	[0, 0, 0]	n/a	catFR1	3	R1380D
282.33	0.933	282157	WORD_OFF	n/a	n/a	ROOSTER	Farmanimals	8	2	[0, 0, 0]	n/a	catFR1	3	R1380D
283.263	1.617	283098	WORD	n/a	wordpools/wordpool_categorized_EN.txt	ATTIC	Building	9	2	[0, 0, 0]	n/a	catFR1	3	R1380D
284.88	0.817	284714	WORD_OFF	n/a	n/a	ATTIC	Building	9	2	[0, 0, 0]	n/a	catFR1	3	R1380D
285.697	1.617	285532	WORD	n/a	wordpools/wordpool_categorized_EN.txt	BATHROOM	Building	10	2	[0, 0, 0]	n/a	catFR1	3	R1380D
287.314	0.816	287148	WORD_OFF	n/a	n/a	BATHROOM	Building	10	2	[0, 0, 0]	n/a	catFR1	3	R1380D
288.13	1.6	287966	WORD	n/a	wordpools/wordpool_categorized_EN.txt	PUDDING	Desserts	11	2	[0, 0, 0]	n/a	catFR1	3	R1380D
289.73	0.95	289561	WORD_OFF	n/a	n/a	PUDDING	Desserts	11	2	[0, 0, 0]	n/a	catFR1	3	R1380D
290.68	1.6	290512	WORD	n/a	wordpools/wordpool_categorized_EN.txt	MOUSSE	Desserts	12	2	[0, 0, 0]	n/a	catFR1	3	R1380D
292.28	0.002	292108	WORD_OFF	n/a	n/a	MOUSSE	Desserts	12	2	[0, 0, 0]	n/a	catFR1	3	R1380D
292.282	0.0	292113	START	n/a	n/a	n/a	n/a	-999	2	[-999, -999, -999]	n/a	catFR1	3	R1380D
292.282	0.0	292113	PROB	0.0	n/a	n/a	n/a	-999	2	[4, 8, 8]	20	catFR1	3	R1380D
292.282	0.0	292118	ENCODING_END	n/a	n/a	n/a	n/a	-999	2	[0, 0, 0]	n/a	catFR1	3	R1380D
292.282	5.848	292118	DISTRACT_START	n/a	n/a	n/a	n/a	-999	2	[0, 0, 0]	n/a	catFR1	3	R1380D
298.13	4.184	297960	PROB	4.184	n/a	n/a	n/a	-999	2	[1, 5, 2]	8	catFR1	3	R1380D
302.314	3.3	302144	PROB	3.3	n/a	n/a	n/a	-999	2	[3, 8, 3]	14	catFR1	3	R1380D
305.614	3.533	305444	PROB	3.533	n/a	n/a	n/a	-999	2	[8, 2, 6]	16	catFR1	3	R1380D
309.147	4.468	308977	PROB	4.468	n/a	n/a	n/a	-999	2	[7, 1, 5]	13	catFR1	3	R1380D
313.615	0.0	313441	DISTRACT_END	n/a	n/a	n/a	n/a	-999	2	[0, 0, 0]	n/a	catFR1	3	R1380D
313.615	1.315	313445	STOP	n/a	n/a	n/a	n/a	-999	2	[-999, -999, -999]	n/a	catFR1	3	R1380D
314.93	2.166	314760	REC_START	n/a	n/a	n/a	n/a	-999	2	[0, 0, 0]	n/a	catFR1	3	R1380D
317.096	1.36	316925	REC_WORD	1.36	n/a	WALL	Building	5	2	[0, 0, 0]	n/a	catFR1	3	R1380D
318.456	1.204	318285	REC_WORD	1.204	n/a	ROOF	Building	6	2	[0, 0, 0]	n/a	catFR1	3	R1380D
319.66	1.343	319489	REC_WORD	1.343	n/a	ATTIC	Building	9	2	[0, 0, 0]	n/a	catFR1	3	R1380D
321.003	4.669	320832	REC_WORD	4.669	n/a	BATHROOM	Building	10	2	[0, 0, 0]	n/a	catFR1	3	R1380D
325.672	1.3	325501	REC_WORD	1.3	n/a	BROWNIES	Desserts	1	2	[0, 0, 0]	n/a	catFR1	3	R1380D
326.972	0.875	326801	REC_WORD	0.875	n/a	COOKIE	Desserts	2	2	[0, 0, 0]	n/a	catFR1	3	R1380D
327.847	7.202	327676	REC_WORD	7.202	n/a	PUDDING	Desserts	11	2	[0, 0, 0]	n/a	catFR1	3	R1380D
335.049	0.704	334877	REC_WORD	0.704	n/a	HEN	Farmanimals	3	2	[0, 0, 0]	n/a	catFR1	3	R1380D
335.753	0.678	335581	REC_WORD	0.678	n/a	ROOSTER	Farmanimals	8	2	[0, 0, 0]	n/a	catFR1	3	R1380D
336.431	0.746	336259	REC_WORD	0.746	n/a	CALF	Farmanimals	4	2	[0, 0, 0]	n/a	catFR1	3	R1380D
337.177	7.989	337005	REC_WORD	7.989	n/a	PIG	Farmanimals	7	2	[0, 0, 0]	n/a	catFR1	3	R1380D
345.166	1.538	344990	REC_END	n/a	n/a	n/a	n/a	-999	2	[0, 0, 0]	n/a	catFR1	3	R1380D
346.704	10.343	346535	COUNTDOWN_START	n/a	n/a	n/a	n/a	-999	3	[0, 0, 0]	n/a	catFR1	3	R1380D
357.047	0.001	356874	COUNTDOWN_END	n/a	n/a	n/a	n/a	-999	3	[0, 0, 0]	n/a	catFR1	3	R1380D
357.048	2.232	356874	ENCODING_START	n/a	n/a	n/a	n/a	-999	3	[0, 0, 0]	n/a	catFR1	3	R1380D
359.28	1.6	359103	WORD	n/a	wordpools/wordpool_categorized_EN.txt	VIOLET	Flowers	1	3	[0, 0, 0]	n/a	catFR1	3	R1380D
360.88	0.849	360709	WORD_OFF	n/a	n/a	VIOLET	Flowers	1	3	[0, 0, 0]	n/a	catFR1	3	R1380D
361.729	1.602	361558	WORD	n/a	wordpools/wordpool_categorized_EN.txt	CARNATION	Flowers	2	3	[0, 0, 0]	n/a	catFR1	3	R1380D
363.331	0.949	363163	WORD_OFF	n/a	n/a	CARNATION	Flowers	2	3	[0, 0, 0]	n/a	catFR1	3	R1380D
364.28	1.617	364104	WORD	n/a	wordpools/wordpool_categorized_EN.txt	BEETLE	Insects	3	3	[0, 0, 0]	n/a	catFR1	3	R1380D
365.897	0.916	365720	WORD_OFF	n/a	n/a	BEETLE	Insects	3	3	[0, 0, 0]	n/a	catFR1	3	R1380D
366.813	1.617	366640	WORD	n/a	wordpools/wordpool_categorized_EN.txt	BUTTERFLY	Insects	4	3	[0, 0, 0]	n/a	catFR1	3	R1380D
368.43	1.0	368256	WORD_OFF	n/a	n/a	BUTTERFLY	Insects	4	3	[0, 0, 0]	n/a	catFR1	3	R1380D
369.43	1.6	369258	WORD	n/a	wordpools/wordpool_categorized_EN.txt	CROWBAR	Tools	5	3	[0, 0, 0]	n/a	catFR1	3	R1380D
371.03	0.917	370854	WORD_OFF	n/a	n/a	CROWBAR	Tools	5	3	[0, 0, 0]	n/a	catFR1	3	R1380D
371.947	1.6	371774	WORD	n/a	wordpools/wordpool_categorized_EN.txt	DRILL	Tools	6	3	[0, 0, 0]	n/a	catFR1	3	R1380D
373.547	0.766	373370	WORD_OFF	n/a	n/a	DRILL	Tools	6	3	[0, 0, 0]	n/a	catFR1	3	R1380D
374.313	1.6	374137	WORD	n/a	wordpools/wordpool_categorized_EN.txt	PETUNIA	Flowers	7	3	[0, 0, 0]	n/a	catFR1	3	R1380D
375.913	0.967	375742	WORD_OFF	n/a	n/a	PETUNIA	Flowers	7	3	[0, 0, 0]	n/a	catFR1	3	R1380D
376.88	1.616	376704	WORD	n/a	wordpools/wordpool_categorized_EN.txt	ORCHID	Flowers	8	3	[0, 0, 0]	n/a	catFR1	3	R1380D
378.496	0.851	378319	WORD_OFF	n/a	n/a	ORCHID	Flowers	8	3	[0, 0, 0]	n/a	catFR1	3	R1380D
379.347	1.616	379178	WORD	n/a	wordpools/wordpool_categorized_EN.txt	SANDER	Tools	9	3	[0, 0, 0]	n/a	catFR1	3	R1380D
380.963	0.967	380784	WORD_OFF	n/a	n/a	SANDER	Tools	9	3	[0, 0, 0]	n/a	catFR1	3	R1380D
381.93	1.6	381766	WORD	n/a	wordpools/wordpool_categorized_EN.txt	SAW	Tools	10	3	[0, 0, 0]	n/a	catFR1	3	R1380D
383.53	0.8	383361	WORD_OFF	n/a	n/a	SAW	Tools	10	3	[0, 0, 0]	n/a	catFR1	3	R1380D
384.33	1.6	384159	WORD	n/a	wordpools/wordpool_categorized_EN.txt	BEE	Insects	11	3	[0, 0, 0]	n/a	catFR1	3	R1380D
385.93	0.983	385754	WORD_OFF	n/a	n/a	BEE	Insects	11	3	[0, 0, 0]	n/a	catFR1	3	R1380D
386.913	1.601	386736	WORD	n/a	wordpools/wordpool_categorized_EN.txt	ANT	Insects	12	3	[0, 0, 0]	n/a	catFR1	3	R1380D
388.514	0.001	388340	PROB	0.001	n/a	n/a	n/a	-999	3	[3, 5, 1]	9	catFR1	3	R1380D
388.515	0.0	388341	START	n/a	n/a	n/a	n/a	-999	3	[-999, -999, -999]	n/a	catFR1	3	R1380D
388.514	0.001	388342	WORD_OFF	n/a	n/a	ANT	Insects	12	3	[0, 0, 0]	n/a	catFR1	3	R1380D
388.515	0.0	388342	ENCODING_END	n/a	n/a	n/a	n/a	-999	3	[0, 0, 0]	n/a	catFR1	3	R1380D
388.515	3.566	388342	DISTRACT_START	n/a	n/a	n/a	n/a	-999	3	[0, 0, 0]	n/a	catFR1	3	R1380D
392.081	4.7	391907	PROB	4.7	n/a	n/a	n/a	-999	3	[8, 6, 3]	17	catFR1	3	R1380D
396.781	3.0	396606	PROB	3.0	n/a	n/a	n/a	-999	3	[4, 7, 8]	19	catFR1	3	R1380D
399.781	4.867	399606	PROB	4.867	n/a	n/a	n/a	-999	3	[5, 1, 7]	13	catFR1	3	R1380D
404.648	3.682	404473	PROB	3.682	n/a	n/a	n/a	-999	3	[3, 2, 4]	9	catFR1	3	R1380D
408.33	4.766	408155	PROB	4.766	n/a	n/a	n/a	-999	3	[4, 6, 7]	17	catFR1	3	R1380D
413.096	0.0	412917	DISTRACT_END	n/a	n/a	n/a	n/a	-999	3	[0, 0, 0]	n/a	catFR1	3	R1380D
413.096	1.033	412920	STOP	n/a	n/a	n/a	n/a	-999	3	[-999, -999, -999]	n/a	catFR1	3	R1380D
414.129	2.709	413950	REC_START	n/a	n/a	n/a	n/a	-999	3	[0, 0, 0]	n/a	catFR1	3	R1380D
416.838	1.229	416662	REC_WORD	1.229	n/a	DRILL	Tools	6	3	[0, 0, 0]	n/a	catFR1	3	R1380D
418.067	4.227	417891	REC_WORD	4.227	n/a	SANDER	Tools	9	3	[0, 0, 0]	n/a	catFR1	3	R1380D
422.294	1.114	422118	REC_WORD	1.114	n/a	BUTTERFLY	Insects	4	3	[0, 0, 0]	n/a	catFR1	3	R1380D
423.408	1.491	423232	REC_WORD	1.491	n/a	ANT	Insects	12	3	[0, 0, 0]	n/a	catFR1	3	R1380D
424.899	5.683	424723	REC_WORD	5.683	n/a	BEETLE	Insects	3	3	[0, 0, 0]	n/a	catFR1	3	R1380D
430.582	0.738	430406	REC_WORD	0.738	n/a	VIOLET	Flowers	1	3	[0, 0, 0]	n/a	catFR1	3	R1380D
431.32	2.063	431143	REC_WORD	2.063	n/a	CARNATION	Flowers	2	3	[0, 0, 0]	n/a	catFR1	3	R1380D
433.383	2.251	433206	REC_WORD	2.251	n/a	PETUNIA	Flowers	7	3	[0, 0, 0]	n/a	catFR1	3	R1380D
435.634	8.736	435457	REC_WORD	8.736	n/a	ORCHID	Flowers	8	3	[0, 0, 0]	n/a	catFR1	3	R1380D
444.37	1.444	444190	REC_END	n/a	n/a	n/a	n/a	-999	3	[0, 0, 0]	n/a	catFR1	3	R1380D
445.814	10.35	445642	COUNTDOWN_START	n/a	n/a	n/a	n/a	-999	4	[0, 0, 0]	n/a	catFR1	3	R1380D
456.164	0.0	455988	COUNTDOWN_END	n/a	n/a	n/a	n/a	-999	4	[0, 0, 0]	n/a	catFR1	3	R1380D
456.164	1.983	455992	ENCODING_START	n/a	n/a	n/a	n/a	-999	4	[0, 0, 0]	n/a	catFR1	3	R1380D
458.147	1.6	457966	WORD	n/a	wordpools/wordpool_categorized_EN.txt	LEMONADE	Beverages	1	4	[0, 0, 0]	n/a	catFR1	3	R1380D
459.747	0.866	459571	WORD_OFF	n/a	n/a	LEMONADE	Beverages	1	4	[0, 0, 0]	n/a	catFR1	3	R1380D
460.613	1.6	460441	WORD	n/a	wordpools/wordpool_categorized_EN.txt	WATER	Beverages	2	4	[0, 0, 0]	n/a	catFR1	3	R1380D
462.213	0.884	462036	WORD_OFF	n/a	n/a	WATER	Beverages	2	4	[0, 0, 0]	n/a	catFR1	3	R1380D
463.097	1.615	462916	WORD	n/a	wordpools/wordpool_categorized_EN.txt	SOFA	Furniture	3	4	[0, 0, 0]	n/a	catFR1	3	R1380D
464.712	0.801	464531	WORD_OFF	n/a	n/a	SOFA	Furniture	3	4	[0, 0, 0]	n/a	catFR1	3	R1380D
465.513	1.6	465339	WORD	n/a	wordpools/wordpool_categorized_EN.txt	CABINET	Furniture	4	4	[0, 0, 0]	n/a	catFR1	3	R1380D
467.113	0.784	466935	WORD_OFF	n/a	n/a	CABINET	Furniture	4	4	[0, 0, 0]	n/a	catFR1	3	R1380D
467.897	1.6	467722	WORD	n/a	wordpools/wordpool_categorized_EN.txt	WHISK	Kitchentools	5	4	[0, 0, 0]	n/a	catFR1	3	R1380D
469.497	0.816	469317	WORD_OFF	n/a	n/a	WHISK	Kitchentools	5	4	[0, 0, 0]	n/a	catFR1	3	R1380D
470.313	1.616	470136	WORD	n/a	wordpools/wordpool_categorized_EN.txt	KNIFE	Kitchentools	6	4	[0, 0, 0]	n/a	catFR1	3	R1380D
471.929	1.001	471751	WORD_OFF	n/a	n/a	KNIFE	Kitchentools	6	4	[0, 0, 0]	n/a	catFR1	3	R1380D
472.93	1.616	472754	WORD	n/a	wordpools/wordpool_categorized_EN.txt	BEER	Beverages	7	4	[0, 0, 0]	n/a	catFR1	3	R1380D
474.546	0.767	474370	WORD_OFF	n/a	n/a	BEER	Beverages	7	4	[0, 0, 0]	n/a	catFR1	3	R1380D
475.313	1.617	475137	WORD	n/a	wordpools/wordpool_categorized_EN.txt	MILK	Beverages	8	4	[0, 0, 0]	n/a	catFR1	3	R1380D
476.93	0.833	476752	WORD_OFF	n/a	n/a	MILK	Beverages	8	4	[0, 0, 0]	n/a	catFR1	3	R1380D
477.763	1.6	477581	WORD	n/a	wordpools/wordpool_categorized_EN.txt	CHAIR	Furniture	9	4	[0, 0, 0]	n/a	catFR1	3	R1380D
479.363	0.834	479186	WORD_OFF	n/a	n/a	CHAIR	Furniture	9	4	[0, 0, 0]	n/a	catFR1	3	R1380D
480.197	1.616	480015	WORD	n/a	wordpools/wordpool_categorized_EN.txt	RECLINER	Furniture	10	4	[0, 0, 0]	n/a	catFR1	3	R1380D
481.813	0.8	481631	WORD_OFF	n/a	n/a	RECLINER	Furniture	10	4	[0, 0, 0]	n/a	catFR1	3	R1380D
482.613	1.617	482438	WORD	n/a	wordpools/wordpool_categorized_EN.txt	PEELER	Kitchentools	11	4	[0, 0, 0]	n/a	catFR1	3	R1380D
484.23	0.833	484054	WORD_OFF	n/a	n/a	PEELER	Kitchentools	11	4	[0, 0, 0]	n/a	catFR1	3	R1380D
485.063	1.601	484883	WORD	n/a	wordpools/wordpool_categorized_EN.txt	STRAINER	Kitchentools	12	4	[0, 0, 0]	n/a	catFR1	3	R1380D
486.664	0.001	486485	PROB	0.001	n/a	n/a	n/a	-999	4	[3, 1, 4]	8	catFR1	3	R1380D
486.665	0.0	486486	START	n/a	n/a	n/a	n/a	-999	4	[-999, -999, -999]	n/a	catFR1	3	R1380D
486.663	0.002	486488	WORD_OFF	n/a	n/a	STRAINER	Kitchentools	12	4	[0, 0, 0]	n/a	catFR1	3	R1380D
486.665	0.0	486488	ENCODING_END	n/a	n/a	n/a	n/a	-999	4	[0, 0, 0]	n/a	catFR1	3	R1380D
486.665	4.232	486488	DISTRACT_START	n/a	n/a	n/a	n/a	-999	4	[0, 0, 0]	n/a	catFR1	3	R1380D
490.897	2.267	490717	PROB	2.267	n/a	n/a	n/a	-999	4	[2, 6, 1]	9	catFR1	3	R1380D
493.164	2.867	492984	PROB	2.867	n/a	n/a	n/a	-999	4	[8, 5, 5]	18	catFR1	3	R1380D
496.031	2.617	495851	PROB	2.617	n/a	n/a	n/a	-999	4	[1, 7, 7]	15	catFR1	3	R1380D
498.648	2.899	498468	PROB	2.899	n/a	n/a	n/a	-999	4	[5, 2, 2]	9	catFR1	3	R1380D
501.547	5.017	501367	PROB	5.017	n/a	n/a	n/a	-999	4	[4, 1, 7]	13	catFR1	3	R1380D
506.564	6.666	506384	PROB	6.666	n/a	n/a	n/a	-999	4	[7, 6, 5]	18	catFR1	3	R1380D
513.23	0.0	513047	DISTRACT_END	n/a	n/a	n/a	n/a	-999	4	[0, 0, 0]	n/a	catFR1	3	R1380D
513.23	1.35	513049	STOP	n/a	n/a	n/a	n/a	-999	4	[-999, -999, -999]	n/a	catFR1	3	R1380D
514.58	1.919	514397	REC_START	n/a	n/a	n/a	n/a	-999	4	[0, 0, 0]	n/a	catFR1	3	R1380D
516.499	0.886	516318	REC_WORD	0.886	n/a	SOFA	Furniture	3	4	[0, 0, 0]	n/a	catFR1	3	R1380D
517.385	0.959	517204	REC_WORD	0.959	n/a	CHAIR	Furniture	9	4	[0, 0, 0]	n/a	catFR1	3	R1380D
518.344	5.263	518163	REC_WORD	5.263	n/a	RECLINER	Furniture	10	4	[0, 0, 0]	n/a	catFR1	3	R1380D
523.607	0.781	523426	REC_WORD	0.781	n/a	WHISK	Kitchentools	5	4	[0, 0, 0]	n/a	catFR1	3	R1380D
524.388	1.409	524207	REC_WORD	1.409	n/a	STRAINER	Kitchentools	12	4	[0, 0, 0]	n/a	catFR1	3	R1380D
525.797	1.905	525616	REC_WORD	1.905	n/a	KNIFE	Kitchentools	6	4	[0, 0, 0]	n/a	catFR1	3	R1380D
527.702	16.519	527520	REC_WORD	16.519	n/a	PEELER	Kitchentools	11	4	[0, 0, 0]	n/a	catFR1	3	R1380D
544.221	0.62	544039	REC_WORD	0.62	n/a	LEMONADE	Beverages	1	4	[0, 0, 0]	n/a	catFR1	3	R1380D
544.841	3.839	544658	REC_END	n/a	n/a	n/a	n/a	-999	4	[0, 0, 0]	n/a	catFR1	3	R1380D
548.68	10.35	548504	COUNTDOWN_START	n/a	n/a	n/a	n/a	-999	5	[0, 0, 0]	n/a	catFR1	3	R1380D
559.03	0.0	558843	COUNTDOWN_END	n/a	n/a	n/a	n/a	-999	5	[0, 0, 0]	n/a	catFR1	3	R1380D
559.03	2.033	558853	ENCODING_START	n/a	n/a	n/a	n/a	-999	5	[0, 0, 0]	n/a	catFR1	3	R1380D
561.063	1.6	560878	WORD	n/a	wordpools/wordpool_categorized_EN.txt	VALLEY	Landscapes	1	5	[0, 0, 0]	n/a	catFR1	3	R1380D
562.663	0.866	562484	WORD_OFF	n/a	n/a	VALLEY	Landscapes	1	5	[0, 0, 0]	n/a	catFR1	3	R1380D
563.529	1.6	563343	WORD	n/a	wordpools/wordpool_categorized_EN.txt	FOREST	Landscapes	2	5	[0, 0, 0]	n/a	catFR1	3	R1380D
565.129	0.884	564948	WORD_OFF	n/a	n/a	FOREST	Landscapes	2	5	[0, 0, 0]	n/a	catFR1	3	R1380D
566.013	1.616	565828	WORD	n/a	wordpools/wordpool_categorized_EN.txt	SPOON	Kitchentools	3	5	[0, 0, 0]	n/a	catFR1	3	R1380D
567.629	0.884	567444	WORD_OFF	n/a	n/a	SPOON	Kitchentools	3	5	[0, 0, 0]	n/a	catFR1	3	R1380D
568.513	1.617	568333	WORD	n/a	wordpools/wordpool_categorized_EN.txt	TONGS	Kitchentools	4	5	[0, 0, 0]	n/a	catFR1	3	R1380D
570.13	0.783	569949	WORD_OFF	n/a	n/a	TONGS	Kitchentools	4	5	[0, 0, 0]	n/a	catFR1	3	R1380D
570.913	1.6	570726	WORD	n/a	wordpools/wordpool_categorized_EN.txt	SKIRT	Clothing	5	5	[0, 0, 0]	n/a	catFR1	3	R1380D
572.513	0.833	572332	WORD_OFF	n/a	n/a	SKIRT	Clothing	5	5	[0, 0, 0]	n/a	catFR1	3	R1380D
573.346	1.6	573160	WORD	n/a	wordpools/wordpool_categorized_EN.txt	PANTS	Clothing	6	5	[0, 0, 0]	n/a	catFR1	3	R1380D
574.946	0.817	574766	WORD_OFF	n/a	n/a	PANTS	Clothing	6	5	[0, 0, 0]	n/a	catFR1	3	R1380D
575.763	1.6	575584	WORD	n/a	wordpools/wordpool_categorized_EN.txt	CORKSCREW	Kitchentools	7	5	[0, 0, 0]	n/a	catFR1	3	R1380D
577.363	0.768	577180	WORD_OFF	n/a	n/a	CORKSCREW	Kitchentools	7	5	[0, 0, 0]	n/a	catFR1	3	R1380D
578.131	1.6	577947	WORD	n/a	wordpools/wordpool_categorized_EN.txt	GRATER	Kitchentools	8	5	[0, 0, 0]	n/a	catFR1	3	R1380D
579.731	0.833	579552	WORD_OFF	n/a	n/a	GRATER	Kitchentools	8	5	[0, 0, 0]	n/a	catFR1	3	R1380D
580.564	1.616	580380	WORD	n/a	wordpools/wordpool_categorized_EN.txt	BLOUSE	Clothing	9	5	[0, 0, 0]	n/a	catFR1	3	R1380D
582.18	0.917	581996	WORD_OFF	n/a	n/a	BLOUSE	Clothing	9	5	[0, 0, 0]	n/a	catFR1	3	R1380D
583.097	1.6	582917	WORD	n/a	wordpools/wordpool_categorized_EN.txt	SHIRT	Clothing	10	5	[0, 0, 0]	n/a	catFR1	3	R1380D
584.697	0.916	584512	WORD_OFF	n/a	n/a	SHIRT	Clothing	10	5	[0, 0, 0]	n/a	catFR1	3	R1380D
585.613	1.601	585433	WORD	n/a	wordpools/wordpool_categorized_EN.txt	OCEAN	Landscapes	11	5	[0, 0, 0]	n/a	catFR1	3	R1380D
587.214	0.9	587028	WORD_OFF	n/a	n/a	OCEAN	Landscapes	11	5	[0, 0, 0]	n/a	catFR1	3	R1380D
588.114	1.6	587928	WORD	n/a	wordpools/wordpool_categorized_EN.txt	LAKE	Landscapes	12	5	[0, 0, 0]	n/a	catFR1	3	R1380D
589.714	0.001	589529	PROB	0.001	n/a	n/a	n/a	-999	5	[5, 1, 8]	14	catFR1	3	R1380D
589.715	0.0	589530	START	n/a	n/a	n/a	n/a	-999	5	[-999, -999, -999]	n/a	catFR1	3	R1380D
589.714	0.001	589533	WORD_OFF	n/a	n/a	LAKE	Landscapes	12	5	[0, 0, 0]	n/a	catFR1	3	R1380D
589.715	0.0	589533	ENCODING_END	n/a	n/a	n/a	n/a	-999	5	[0, 0, 0]	n/a	catFR1	3	R1380D
589.715	11.999	589533	DISTRACT_START	n/a	n/a	n/a	n/a	-999	5	[0, 0, 0]	n/a	catFR1	3	R1380D
601.714	2.783	601529	PROB	2.783	n/a	n/a	n/a	-999	5	[5, 7, 5]	17	catFR1	3	R1380D
604.497	3.183	604311	PROB	3.183	n/a	n/a	n/a	-999	5	[1, 2, 4]	7	catFR1	3	R1380D
607.68	2.167	607494	PROB	2.167	n/a	n/a	n/a	-999	5	[5, 5, 5]	15	catFR1	3	R1380D
609.847	0.0	609660	DISTRACT_END	n/a	n/a	n/a	n/a	-999	5	[0, 0, 0]	n/a	catFR1	3	R1380D
609.847	1.2	609661	STOP	n/a	n/a	n/a	n/a	-999	5	[-999, -999, -999]	n/a	catFR1	3	R1380D
611.047	1.682	610867	REC_START	n/a	n/a	n/a	n/a	-999	5	[0, 0, 0]	n/a	catFR1	3	R1380D
612.729	0.778	612543	REC_WORD	0.778	n/a	VALLEY	Landscapes	1	5	[0, 0, 0]	n/a	catFR1	3	R1380D
613.507	1.317	613321	REC_WORD	1.317	n/a	FOREST	Landscapes	2	5	[0, 0, 0]	n/a	catFR1	3	R1380D
614.824	0.938	614638	REC_WORD	0.938	n/a	OCEAN	Landscapes	11	5	[0, 0, 0]	n/a	catFR1	3	R1380D
615.762	1.393	615576	REC_WORD	1.393	n/a	LAKE	Landscapes	12	5	[0, 0, 0]	n/a	catFR1	3	R1380D
617.155	1.064	616969	REC_WORD	1.064	n/a	TONGS	Kitchentools	4	5	[0, 0, 0]	n/a	catFR1	3	R1380D
618.219	2.924	618033	REC_WORD	2.924	n/a	SPOON	Kitchentools	3	5	[0, 0, 0]	n/a	catFR1	3	R1380D
621.143	2.043	620957	REC_WORD	2.043	n/a	GRATER	Kitchentools	8	5	[0, 0, 0]	n/a	catFR1	3	R1380D
623.186	18.098	622999	REC_WORD	18.098	n/a	CORKSCREW	Kitchentools	7	5	[0, 0, 0]	n/a	catFR1	3	R1380D
641.284	1.33	641097	REC_END	n/a	n/a	n/a	n/a	-999	5	[0, 0, 0]	n/a	catFR1	3	R1380D
642.614	10.35	642426	COUNTDOWN_START	n/a	n/a	n/a	n/a	-999	6	[0, 0, 0]	n/a	catFR1	3	R1380D
652.964	0.0	652776	COUNTDOWN_END	n/a	n/a	n/a	n/a	-999	6	[0, 0, 0]	n/a	catFR1	3	R1380D
652.964	2.05	652776	ENCODING_START	n/a	n/a	n/a	n/a	-999	6	[0, 0, 0]	n/a	catFR1	3	R1380D
655.014	1.616	654821	WORD	n/a	wordpools/wordpool_categorized_EN.txt	CAKE	Desserts	1	6	[0, 0, 0]	n/a	catFR1	3	R1380D
656.63	0.884	656447	WORD_OFF	n/a	n/a	CAKE	Desserts	1	6	[0, 0, 0]	n/a	catFR1	3	R1380D
657.514	1.599	657327	WORD	n/a	wordpools/wordpool_categorized_EN.txt	PASTRY	Desserts	2	6	[0, 0, 0]	n/a	catFR1	3	R1380D
659.113	0.934	658922	WORD_OFF	n/a	n/a	PASTRY	Desserts	2	6	[0, 0, 0]	n/a	catFR1	3	R1380D
660.047	1.6	659863	WORD	n/a	wordpools/wordpool_categorized_EN.txt	BROCCOLI	Vegetables	3	6	[0, 0, 0]	n/a	catFR1	3	R1380D
661.647	0.933	661459	WORD_OFF	n/a	n/a	BROCCOLI	Vegetables	3	6	[0, 0, 0]	n/a	catFR1	3	R1380D
662.58	1.6	662399	WORD	n/a	wordpools/wordpool_categorized_EN.txt	PEAS	Vegetables	4	6	[0, 0, 0]	n/a	catFR1	3	R1380D
664.18	0.8	663995	WORD_OFF	n/a	n/a	PEAS	Vegetables	4	6	[0, 0, 0]	n/a	catFR1	3	R1380D
664.98	1.6	664792	WORD	n/a	wordpools/wordpool_categorized_EN.txt	TRAIN	Vehicles	5	6	[0, 0, 0]	n/a	catFR1	3	R1380D
666.58	0.867	666388	WORD_OFF	n/a	n/a	TRAIN	Vehicles	5	6	[0, 0, 0]	n/a	catFR1	3	R1380D
667.447	1.6	667257	WORD	n/a	wordpools/wordpool_categorized_EN.txt	PLANE	Vehicles	6	6	[0, 0, 0]	n/a	catFR1	3	R1380D
669.047	0.866	668863	WORD_OFF	n/a	n/a	PLANE	Vehicles	6	6	[0, 0, 0]	n/a	catFR1	3	R1380D
669.913	1.601	669722	WORD	n/a	wordpools/wordpool_categorized_EN.txt	CAULIFLOWER	Vegetables	7	6	[0, 0, 0]	n/a	catFR1	3	R1380D
671.514	0.782	671327	WORD_OFF	n/a	n/a	CAULIFLOWER	Vegetables	7	6	[0, 0, 0]	n/a	catFR1	3	R1380D
672.296	1.601	672105	WORD	n/a	wordpools/wordpool_categorized_EN.txt	CORN	Vegetables	8	6	[0, 0, 0]	n/a	catFR1	3	R1380D
673.897	0.882	673710	WORD_OFF	n/a	n/a	CORN	Vegetables	8	6	[0, 0, 0]	n/a	catFR1	3	R1380D
674.779	1.6	674590	WORD	n/a	wordpools/wordpool_categorized_EN.txt	COBBLER	Desserts	9	6	[0, 0, 0]	n/a	catFR1	3	R1380D
676.379	0.834	676195	WORD_OFF	n/a	n/a	COBBLER	Desserts	9	6	[0, 0, 0]	n/a	catFR1	3	R1380D
677.213	1.616	677024	WORD	n/a	wordpools/wordpool_categorized_EN.txt	CHEESECAKE	Desserts	10	6	[0, 0, 0]	n/a	catFR1	3	R1380D
678.829	0.868	678640	WORD_OFF	n/a	n/a	CHEESECAKE	Desserts	10	6	[0, 0, 0]	n/a	catFR1	3	R1380D
679.697	1.616	679509	WORD	n/a	wordpools/wordpool_categorized_EN.txt	BUS	Vehicles	11	6	[0, 0, 0]	n/a	catFR1	3	R1380D
681.313	0.983	681125	WORD_OFF	n/a	n/a	BUS	Vehicles	11	6	[0, 0, 0]	n/a	catFR1	3	R1380D
682.296	1.601	682106	WORD	n/a	wordpools/wordpool_categorized_EN.txt	BIKE	Vehicles	12	6	[0, 0, 0]	n/a	catFR1	3	R1380D
683.897	0.001	683707	PROB	0.001	n/a	n/a	n/a	-999	6	[8, 6, 7]	22	catFR1	3	R1380D
683.898	0.0	683708	START	n/a	n/a	n/a	n/a	-999	6	[-999, -999, -999]	n/a	catFR1	3	R1380D
683.896	0.002	683712	WORD_OFF	n/a	n/a	BIKE	Vehicles	12	6	[0, 0, 0]	n/a	catFR1	3	R1380D
683.898	0.0	683712	ENCODING_END	n/a	n/a	n/a	n/a	-999	6	[0, 0, 0]	n/a	catFR1	3	R1380D
683.898	10.467	683712	DISTRACT_START	n/a	n/a	n/a	n/a	-999	6	[0, 0, 0]	n/a	catFR1	3	R1380D
694.365	3.815	694175	PROB	3.815	n/a	n/a	n/a	-999	6	[6, 6, 2]	14	catFR1	3	R1380D
698.18	3.517	697990	PROB	3.517	n/a	n/a	n/a	-999	6	[7, 4, 6]	17	catFR1	3	R1380D
701.697	3.015	701506	PROB	3.015	n/a	n/a	n/a	-999	6	[3, 3, 7]	13	catFR1	3	R1380D
704.712	0.0	704521	STOP	n/a	n/a	n/a	n/a	-999	6	[-999, -999, -999]	n/a	catFR1	3	R1380D
704.712	1.335	704524	DISTRACT_END	n/a	n/a	n/a	n/a	-999	6	[0, 0, 0]	n/a	catFR1	3	R1380D
706.047	2.367	705853	REC_START	n/a	n/a	n/a	n/a	-999	6	[0, 0, 0]	n/a	catFR1	3	R1380D
708.414	0.92	708223	REC_WORD	0.92	n/a	TRAIN	Vehicles	5	6	[0, 0, 0]	n/a	catFR1	3	R1380D
709.334	1.108	709143	REC_WORD	1.108	n/a	PLANE	Vehicles	6	6	[0, 0, 0]	n/a	catFR1	3	R1380D
710.442	4.807	710251	REC_WORD	4.807	n/a	BIKE	Vehicles	12	6	[0, 0, 0]	n/a	catFR1	3	R1380D
715.249	2.87	715058	REC_WORD	2.87	n/a	BUS	Vehicles	11	6	[0, 0, 0]	n/a	catFR1	3	R1380D
718.119	0.784	717927	REC_WORD	0.784	n/a	CAKE	Desserts	1	6	[0, 0, 0]	n/a	catFR1	3	R1380D
718.903	0.634	718711	REC_WORD	0.634	n/a	PASTRY	Desserts	2	6	[0, 0, 0]	n/a	catFR1	3	R1380D
719.537	4.464	719345	REC_WORD	4.464	n/a	CHEESECAKE	Desserts	10	6	[0, 0, 0]	n/a	catFR1	3	R1380D
724.001	1.435	723809	REC_WORD_VV	1.435	n/a	<>	n/a	-999	6	[0, 0, 0]	n/a	catFR1	3	R1380D
725.436	6.348	725244	REC_WORD_VV	6.348	n/a	<>	n/a	-999	6	[0, 0, 0]	n/a	catFR1	3	R1380D
731.784	4.529	731592	REC_WORD_VV	4.529	n/a	<>	n/a	-999	6	[0, 0, 0]	n/a	catFR1	3	R1380D
736.313	2.801	736124	REC_END	n/a	n/a	n/a	n/a	-999	6	[0, 0, 0]	n/a	catFR1	3	R1380D
739.114	10.35	738927	COUNTDOWN_START	n/a	n/a	n/a	n/a	-999	7	[0, 0, 0]	n/a	catFR1	3	R1380D
749.464	0.0	749276	COUNTDOWN_END	n/a	n/a	n/a	n/a	-999	7	[0, 0, 0]	n/a	catFR1	3	R1380D
749.464	2.3	749276	ENCODING_START	n/a	n/a	n/a	n/a	-999	7	[0, 0, 0]	n/a	catFR1	3	R1380D
751.764	1.599	751567	WORD	n/a	wordpools/wordpool_categorized_EN.txt	WRENCH	Tools	1	7	[0, 0, 0]	n/a	catFR1	3	R1380D
753.363	0.784	753172	WORD_OFF	n/a	n/a	WRENCH	Tools	1	7	[0, 0, 0]	n/a	catFR1	3	R1380D
754.147	1.6	753950	WORD	n/a	wordpools/wordpool_categorized_EN.txt	HAMMER	Tools	2	7	[0, 0, 0]	n/a	catFR1	3	R1380D
755.747	0.933	755555	WORD_OFF	n/a	n/a	HAMMER	Tools	2	7	[0, 0, 0]	n/a	catFR1	3	R1380D
756.68	1.617	756486	WORD	n/a	wordpools/wordpool_categorized_EN.txt	DOVE	Birds	3	7	[0, 0, 0]	n/a	catFR1	3	R1380D
758.297	0.883	758102	WORD_OFF	n/a	n/a	DOVE	Birds	3	7	[0, 0, 0]	n/a	catFR1	3	R1380D
759.18	1.6	758992	WORD	n/a	wordpools/wordpool_categorized_EN.txt	PIGEON	Birds	4	7	[0, 0, 0]	n/a	catFR1	3	R1380D
760.78	1.0	760587	WORD_OFF	n/a	n/a	PIGEON	Birds	4	7	[0, 0, 0]	n/a	catFR1	3	R1380D
761.78	1.6	761589	WORD	n/a	wordpools/wordpool_categorized_EN.txt	SHELF	Furniture	5	7	[0, 0, 0]	n/a	catFR1	3	R1380D
763.38	1.0	763184	WORD_OFF	n/a	n/a	SHELF	Furniture	5	7	[0, 0, 0]	n/a	catFR1	3	R1380D
764.38	1.617	764187	WORD	n/a	wordpools/wordpool_categorized_EN.txt	NIGHTSTAND	Furniture	6	7	[0, 0, 0]	n/a	catFR1	3	R1380D
765.997	0.799	765803	WORD_OFF	n/a	n/a	NIGHTSTAND	Furniture	6	7	[0, 0, 0]	n/a	catFR1	3	R1380D
766.796	1.601	766600	WORD	n/a	wordpools/wordpool_categorized_EN.txt	BLUEBIRD	Birds	7	7	[0, 0, 0]	n/a	catFR1	3	R1380D
768.397	0.966	768206	WORD_OFF	n/a	n/a	BLUEBIRD	Birds	7	7	[0, 0, 0]	n/a	catFR1	3	R1380D
769.363	1.6	769167	WORD	n/a	wordpools/wordpool_categorized_EN.txt	SEAGULL	Birds	8	7	[0, 0, 0]	n/a	catFR1	3	R1380D
770.963	0.9	770773	WORD_OFF	n/a	n/a	SEAGULL	Birds	8	7	[0, 0, 0]	n/a	catFR1	3	R1380D
771.863	1.616	771673	WORD	n/a	wordpools/wordpool_categorized_EN.txt	LEVEL	Tools	9	7	[0, 0, 0]	n/a	catFR1	3	R1380D
773.479	0.768	773289	WORD_OFF	n/a	n/a	LEVEL	Tools	9	7	[0, 0, 0]	n/a	catFR1	3	R1380D
774.247	1.616	774056	WORD	n/a	wordpools/wordpool_categorized_EN.txt	SHOVEL	Tools	10	7	[0, 0, 0]	n/a	catFR1	3	R1380D
775.863	0.9	775671	WORD_OFF	n/a	n/a	SHOVEL	Tools	10	7	[0, 0, 0]	n/a	catFR1	3	R1380D
776.763	1.617	776571	WORD	n/a	wordpools/wordpool_categorized_EN.txt	TABLE	Furniture	11	7	[0, 0, 0]	n/a	catFR1	3	R1380D
778.38	0.966	778187	WORD_OFF	n/a	n/a	TABLE	Furniture	11	7	[0, 0, 0]	n/a	catFR1	3	R1380D
779.346	1.602	779149	WORD	n/a	wordpools/wordpool_categorized_EN.txt	COUCH	Furniture	12	7	[0, 0, 0]	n/a	catFR1	3	R1380D
780.948	0.0	780753	START	n/a	n/a	n/a	n/a	-999	7	[-999, -999, -999]	n/a	catFR1	3	R1380D
780.947	0.001	780754	WORD_OFF	n/a	n/a	COUCH	Furniture	12	7	[0, 0, 0]	n/a	catFR1	3	R1380D
780.948	0.0	780754	ENCODING_END	n/a	n/a	n/a	n/a	-999	7	[0, 0, 0]	n/a	catFR1	3	R1380D
780.948	0.001	780754	DISTRACT_START	n/a	n/a	n/a	n/a	-999	7	[0, 0, 0]	n/a	catFR1	3	R1380D
780.949	3.781	780754	PROB	3.781	n/a	n/a	n/a	-999	7	[1, 1, 4]	6	catFR1	3	R1380D
784.73	2.801	784535	PROB	2.801	n/a	n/a	n/a	-999	7	[1, 2, 6]	9	catFR1	3	R1380D
787.531	2.3	787336	PROB	2.3	n/a	n/a	n/a	-999	7	[3, 2, 8]	13	catFR1	3	R1380D
789.831	3.199	789636	PROB	3.199	n/a	n/a	n/a	-999	7	[7, 1, 4]	12	catFR1	3	R1380D
793.03	2.534	792835	PROB	2.534	n/a	n/a	n/a	-999	7	[3, 1, 5]	9	catFR1	3	R1380D
795.564	2.35	795368	PROB	2.35	n/a	n/a	n/a	-999	7	[8, 1, 7]	16	catFR1	3	R1380D
797.914	3.966	797718	PROB	3.966	n/a	n/a	n/a	-999	7	[4, 2, 4]	10	catFR1	3	R1380D
801.88	0.0	801684	STOP	n/a	n/a	n/a	n/a	-999	7	[-999, -999, -999]	n/a	catFR1	3	R1380D
801.88	1.134	801688	DISTRACT_END	n/a	n/a	n/a	n/a	-999	7	[0, 0, 0]	n/a	catFR1	3	R1380D
803.014	0.943	802824	REC_START	n/a	n/a	n/a	n/a	-999	7	[0, 0, 0]	n/a	catFR1	3	R1380D
803.957	0.705	803761	REC_WORD_VV	0.705	n/a	<>	n/a	-999	7	[0, 0, 0]	n/a	catFR1	3	R1380D
804.662	0.663	804466	REC_WORD	0.663	n/a	LEVEL	Tools	9	7	[0, 0, 0]	n/a	catFR1	3	R1380D
805.325	3.526	805129	REC_WORD	3.526	n/a	SHOVEL	Tools	10	7	[0, 0, 0]	n/a	catFR1	3	R1380D
808.851	2.696	808655	REC_WORD	2.696	n/a	WRENCH	Tools	1	7	[0, 0, 0]	n/a	catFR1	3	R1380D
811.547	1.574	811351	REC_WORD	1.574	n/a	HAMMER	Tools	2	7	[0, 0, 0]	n/a	catFR1	3	R1380D
813.121	0.461	812925	REC_WORD	0.461	n/a	DOVE	Birds	3	7	[0, 0, 0]	n/a	catFR1	3	R1380D
813.582	0.541	813386	REC_WORD	0.541	n/a	PIGEON	Birds	4	7	[0, 0, 0]	n/a	catFR1	3	R1380D
814.123	0.766	813926	REC_WORD	0.766	n/a	SEAGULL	Birds	8	7	[0, 0, 0]	n/a	catFR1	3	R1380D
814.889	2.09	814692	REC_WORD	2.09	n/a	BLUEBIRD	Birds	7	7	[0, 0, 0]	n/a	catFR1	3	R1380D
816.979	0.807	816782	REC_WORD	0.807	n/a	NIGHTSTAND	Furniture	6	7	[0, 0, 0]	n/a	catFR1	3	R1380D
817.786	1.946	817589	REC_WORD	1.946	n/a	SHELF	Furniture	5	7	[0, 0, 0]	n/a	catFR1	3	R1380D
819.732	13.525	819535	REC_WORD	13.525	n/a	COUCH	Furniture	12	7	[0, 0, 0]	n/a	catFR1	3	R1380D
833.257	1.306	833064	REC_END	n/a	n/a	n/a	n/a	-999	7	[0, 0, 0]	n/a	catFR1	3	R1380D
834.563	10.351	834373	COUNTDOWN_START	n/a	n/a	n/a	n/a	-999	8	[0, 0, 0]	n/a	catFR1	3	R1380D
844.914	0.0	844712	COUNTDOWN_END	n/a	n/a	n/a	n/a	-999	8	[0, 0, 0]	n/a	catFR1	3	R1380D
844.914	2.049	844723	ENCODING_START	n/a	n/a	n/a	n/a	-999	8	[0, 0, 0]	n/a	catFR1	3	R1380D
846.963	1.617	846768	WORD	n/a	wordpools/wordpool_categorized_EN.txt	HAWK	Birds	1	8	[0, 0, 0]	n/a	catFR1	3	R1380D
848.58	0.9	848384	WORD_OFF	n/a	n/a	HAWK	Birds	1	8	[0, 0, 0]	n/a	catFR1	3	R1380D
849.48	1.6	849284	WORD	n/a	wordpools/wordpool_categorized_EN.txt	GOOSE	Birds	2	8	[0, 0, 0]	n/a	catFR1	3	R1380D
851.08	0.866	850879	WORD_OFF	n/a	n/a	GOOSE	Birds	2	8	[0, 0, 0]	n/a	catFR1	3	R1380D
851.946	1.6	851749	WORD	n/a	wordpools/wordpool_categorized_EN.txt	FLY	Insects	3	8	[0, 0, 0]	n/a	catFR1	3	R1380D
853.546	0.8	853354	WORD_OFF	n/a	n/a	FLY	Insects	3	8	[0, 0, 0]	n/a	catFR1	3	R1380D
854.346	1.6	854152	WORD	n/a	wordpools/wordpool_categorized_EN.txt	GNAT	Insects	4	8	[0, 0, 0]	n/a	catFR1	3	R1380D
855.946	0.95	855747	WORD_OFF	n/a	n/a	GNAT	Insects	4	8	[0, 0, 0]	n/a	catFR1	3	R1380D
856.896	1.617	856698	WORD	n/a	wordpools/wordpool_categorized_EN.txt	CREEK	Landscapes	5	8	[0, 0, 0]	n/a	catFR1	3	R1380D
858.513	0.817	858314	WORD_OFF	n/a	n/a	CREEK	Landscapes	5	8	[0, 0, 0]	n/a	catFR1	3	R1380D
859.33	1.6	859132	WORD	n/a	wordpools/wordpool_categorized_EN.txt	STREAM	Landscapes	6	8	[0, 0, 0]	n/a	catFR1	3	R1380D
860.93	0.883	860728	WORD_OFF	n/a	n/a	STREAM	Landscapes	6	8	[0, 0, 0]	n/a	catFR1	3	R1380D
861.813	1.618	861617	WORD	n/a	wordpools/wordpool_categorized_EN.txt	CRICKET	Insects	7	8	[0, 0, 0]	n/a	catFR1	3	R1380D
863.431	0.782	863233	WORD_OFF	n/a	n/a	CRICKET	Insects	7	8	[0, 0, 0]	n/a	catFR1	3	R1380D
864.213	1.6	864010	WORD	n/a	wordpools/wordpool_categorized_EN.txt	SPIDER	Insects	8	8	[0, 0, 0]	n/a	catFR1	3	R1380D
865.813	0.833	865616	WORD_OFF	n/a	n/a	SPIDER	Insects	8	8	[0, 0, 0]	n/a	catFR1	3	R1380D
866.646	1.617	866444	WORD	n/a	wordpools/wordpool_categorized_EN.txt	WOODS	Landscapes	9	8	[0, 0, 0]	n/a	catFR1	3	R1380D
868.263	0.883	868060	WORD_OFF	n/a	n/a	WOODS	Landscapes	9	8	[0, 0, 0]	n/a	catFR1	3	R1380D
869.146	1.617	868950	WORD	n/a	wordpools/wordpool_categorized_EN.txt	RIVER	Landscapes	10	8	[0, 0, 0]	n/a	catFR1	3	R1380D
870.763	0.8	870566	WORD_OFF	n/a	n/a	RIVER	Landscapes	10	8	[0, 0, 0]	n/a	catFR1	3	R1380D
871.563	1.616	871364	WORD	n/a	wordpools/wordpool_categorized_EN.txt	DUCK	Birds	11	8	[0, 0, 0]	n/a	catFR1	3	R1380D
873.179	1.0	872979	WORD_OFF	n/a	n/a	DUCK	Birds	11	8	[0, 0, 0]	n/a	catFR1	3	R1380D
874.179	1.617	873982	WORD	n/a	wordpools/wordpool_categorized_EN.txt	CARDINAL	Birds	12	8	[0, 0, 0]	n/a	catFR1	3	R1380D
875.796	0.0	875596	PROB	0.0	n/a	n/a	n/a	-999	8	[6, 2, 4]	12	catFR1	3	R1380D
875.796	0.001	875597	WORD_OFF	n/a	n/a	CARDINAL	Birds	12	8	[0, 0, 0]	n/a	catFR1	3	R1380D
875.797	0.0	875597	ENCODING_END	n/a	n/a	n/a	n/a	-999	8	[0, 0, 0]	n/a	catFR1	3	R1380D
875.797	0.0	875597	DISTRACT_START	n/a	n/a	n/a	n/a	-999	8	[0, 0, 0]	n/a	catFR1	3	R1380D
875.797	3.117	875597	START	n/a	n/a	n/a	n/a	-999	8	[-999, -999, -999]	n/a	catFR1	3	R1380D
878.914	2.067	878714	PROB	2.067	n/a	n/a	n/a	-999	8	[1, 1, 4]	6	catFR1	3	R1380D
880.981	2.099	880781	PROB	2.099	n/a	n/a	n/a	-999	8	[2, 4, 5]	11	catFR1	3	R1380D
883.08	2.252	882880	PROB	2.252	n/a	n/a	n/a	-999	8	[4, 5, 5]	14	catFR1	3	R1380D
885.332	2.182	885132	PROB	2.182	n/a	n/a	n/a	-999	8	[2, 4, 7]	13	catFR1	3	R1380D
887.514	2.467	887314	PROB	2.467	n/a	n/a	n/a	-999	8	[1, 4, 5]	10	catFR1	3	R1380D
889.981	2.349	889781	PROB	2.349	n/a	n/a	n/a	-999	8	[4, 3, 2]	9	catFR1	3	R1380D
892.33	6.417	892129	PROB	6.417	n/a	n/a	n/a	-999	8	[7, 7, 8]	22	catFR1	3	R1380D
898.747	0.0	898546	DISTRACT_END	n/a	n/a	n/a	n/a	-999	8	[0, 0, 0]	n/a	catFR1	3	R1380D
898.747	1.283	898546	STOP	n/a	n/a	n/a	n/a	-999	8	[-999, -999, -999]	n/a	catFR1	3	R1380D
900.03	1.516	899825	REC_START	n/a	n/a	n/a	n/a	-999	8	[0, 0, 0]	n/a	catFR1	3	R1380D
901.546	0.57	901345	REC_WORD_VV	0.57	n/a	<>	n/a	-999	8	[0, 0, 0]	n/a	catFR1	3	R1380D
902.116	0.37	901915	REC_WORD	0.37	n/a	CREEK	Landscapes	5	8	[0, 0, 0]	n/a	catFR1	3	R1380D
902.486	0.888	902285	REC_WORD	0.888	n/a	STREAM	Landscapes	6	8	[0, 0, 0]	n/a	catFR1	3	R1380D
903.374	5.424	903173	REC_WORD	5.424	n/a	RIVER	Landscapes	10	8	[0, 0, 0]	n/a	catFR1	3	R1380D
908.798	0.764	908597	REC_WORD	0.764	n/a	DOVE	Birds	-999	8	[0, 0, 0]	n/a	catFR1	3	R1380D
909.562	0.829	909361	REC_WORD	0.829	n/a	PIGEON	Birds	-999	8	[0, 0, 0]	n/a	catFR1	3	R1380D
910.391	0.758	910189	REC_WORD	0.758	n/a	SEAGULL	Birds	-999	8	[0, 0, 0]	n/a	catFR1	3	R1380D
911.149	1.139	910947	REC_WORD	1.139	n/a	CARDINAL	Birds	12	8	[0, 0, 0]	n/a	catFR1	3	R1380D
912.288	1.411	912086	REC_WORD	1.411	n/a	GNAT	Insects	4	8	[0, 0, 0]	n/a	catFR1	3	R1380D
913.699	9.006	913497	REC_WORD	9.006	n/a	FLY	Insects	3	8	[0, 0, 0]	n/a	catFR1	3	R1380D
922.705	1.103	922503	REC_WORD	1.103	n/a	BUG	n/a	-999	8	[0, 0, 0]	n/a	catFR1	3	R1380D
923.808	6.463	923606	REC_WORD	6.463	n/a	ROACH	n/a	-999	8	[0, 0, 0]	n/a	catFR1	3	R1380D
930.271	1.209	930065	REC_END	n/a	n/a	n/a	n/a	-999	8	[0, 0, 0]	n/a	catFR1	3	R1380D
931.48	10.35	931282	COUNTDOWN_START	n/a	n/a	n/a	n/a	-999	9	[0, 0, 0]	n/a	catFR1	3	R1380D
941.83	0.001	941632	COUNTDOWN_END	n/a	n/a	n/a	n/a	-999	9	[0, 0, 0]	n/a	catFR1	3	R1380D
941.831	2.066	941632	ENCODING_START	n/a	n/a	n/a	n/a	-999	9	[0, 0, 0]	n/a	catFR1	3	R1380D
943.897	1.616	943698	WORD	n/a	wordpools/wordpool_categorized_EN.txt	SUNFLOWER	Flowers	1	9	[0, 0, 0]	n/a	catFR1	3	R1380D
945.513	0.9	945314	WORD_OFF	n/a	n/a	SUNFLOWER	Flowers	1	9	[0, 0, 0]	n/a	catFR1	3	R1380D
946.413	1.6	946213	WORD	n/a	wordpools/wordpool_categorized_EN.txt	LILAC	Flowers	2	9	[0, 0, 0]	n/a	catFR1	3	R1380D
948.013	0.799	947809	WORD_OFF	n/a	n/a	LILAC	Flowers	2	9	[0, 0, 0]	n/a	catFR1	3	R1380D
948.812	1.601	948607	WORD	n/a	wordpools/wordpool_categorized_EN.txt	JEEP	Vehicles	3	9	[0, 0, 0]	n/a	catFR1	3	R1380D
950.413	0.784	950212	WORD_OFF	n/a	n/a	JEEP	Vehicles	3	9	[0, 0, 0]	n/a	catFR1	3	R1380D
951.197	1.6	950989	WORD	n/a	wordpools/wordpool_categorized_EN.txt	BOAT	Vehicles	4	9	[0, 0, 0]	n/a	catFR1	3	R1380D
952.797	0.983	952595	WORD_OFF	n/a	n/a	BOAT	Vehicles	4	9	[0, 0, 0]	n/a	catFR1	3	R1380D
953.78	1.6	953577	WORD	n/a	wordpools/wordpool_categorized_EN.txt	MOSQUITO	Insects	5	9	[0, 0, 0]	n/a	catFR1	3	R1380D
955.38	0.983	955182	WORD_OFF	n/a	n/a	MOSQUITO	Insects	5	9	[0, 0, 0]	n/a	catFR1	3	R1380D
956.363	1.6	956164	WORD	n/a	wordpools/wordpool_categorized_EN.txt	MOTH	Insects	6	9	[0, 0, 0]	n/a	catFR1	3	R1380D
957.963	0.883	957760	WORD_OFF	n/a	n/a	MOTH	Insects	6	9	[0, 0, 0]	n/a	catFR1	3	R1380D
958.846	1.617	958639	WORD	n/a	wordpools/wordpool_categorized_EN.txt	DAFFODIL	Flowers	7	9	[0, 0, 0]	n/a	catFR1	3	R1380D
960.463	0.9	960255	WORD_OFF	n/a	n/a	DAFFODIL	Flowers	7	9	[0, 0, 0]	n/a	catFR1	3	R1380D
961.363	1.6	961155	WORD	n/a	wordpools/wordpool_categorized_EN.txt	MARIGOLD	Flowers	8	9	[0, 0, 0]	n/a	catFR1	3	R1380D
962.963	0.8	962760	WORD_OFF	n/a	n/a	MARIGOLD	Flowers	8	9	[0, 0, 0]	n/a	catFR1	3	R1380D
963.763	1.6	963558	WORD	n/a	wordpools/wordpool_categorized_EN.txt	CAR	Vehicles	9	9	[0, 0, 0]	n/a	catFR1	3	R1380D
965.363	0.833	965164	WORD_OFF	n/a	n/a	CAR	Vehicles	9	9	[0, 0, 0]	n/a	catFR1	3	R1380D
966.196	1.6	965992	WORD	n/a	wordpools/wordpool_categorized_EN.txt	VAN	Vehicles	10	9	[0, 0, 0]	n/a	catFR1	3	R1380D
967.796	0.766	967587	WORD_OFF	n/a	n/a	VAN	Vehicles	10	9	[0, 0, 0]	n/a	catFR1	3	R1380D
968.562	1.601	968354	WORD	n/a	wordpools/wordpool_categorized_EN.txt	LADYBUG	Insects	11	9	[0, 0, 0]	n/a	catFR1	3	R1380D
970.163	0.984	969960	WORD_OFF	n/a	n/a	LADYBUG	Insects	11	9	[0, 0, 0]	n/a	catFR1	3	R1380D
971.147	1.6	970942	WORD	n/a	wordpools/wordpool_categorized_EN.txt	ROACH	Insects	12	9	[0, 0, 0]	n/a	catFR1	3	R1380D
972.747	0.001	972542	PROB	0.001	n/a	n/a	n/a	-999	9	[4, 6, 7]	17	catFR1	3	R1380D
972.748	0.0	972543	START	n/a	n/a	n/a	n/a	-999	9	[-999, -999, -999]	n/a	catFR1	3	R1380D
972.746	0.002	972547	WORD_OFF	n/a	n/a	ROACH	Insects	12	9	[0, 0, 0]	n/a	catFR1	3	R1380D
972.748	0.0	972547	ENCODING_END	n/a	n/a	n/a	n/a	-999	9	[0, 0, 0]	n/a	catFR1	3	R1380D
972.748	5.381	972547	DISTRACT_START	n/a	n/a	n/a	n/a	-999	9	[0, 0, 0]	n/a	catFR1	3	R1380D
978.129	3.351	977924	PROB	3.351	n/a	n/a	n/a	-999	9	[2, 1, 5]	8	catFR1	3	R1380D
981.48	2.65	981275	PROB	2.65	n/a	n/a	n/a	-999	9	[1, 2, 3]	6	catFR1	3	R1380D
984.13	3.601	983925	PROB	3.601	n/a	n/a	n/a	-999	9	[3, 1, 6]	10	catFR1	3	R1380D
987.731	4.317	987525	PROB	4.317	n/a	n/a	n/a	-999	9	[8, 1, 4]	13	catFR1	3	R1380D
992.048	3.432	991842	PROB	3.432	n/a	n/a	n/a	-999	9	[4, 3, 8]	15	catFR1	3	R1380D
995.48	0.0	995271	DISTRACT_END	n/a	n/a	n/a	n/a	-999	9	[0, 0, 0]	n/a	catFR1	3	R1380D
995.48	1.283	995274	STOP	n/a	n/a	n/a	n/a	-999	9	[-999, -999, -999]	n/a	catFR1	3	R1380D
996.763	2.021	996560	REC_START	n/a	n/a	n/a	n/a	-999	9	[0, 0, 0]	n/a	catFR1	3	R1380D
998.784	0.743	998578	REC_WORD	0.743	n/a	JEEP	Vehicles	3	9	[0, 0, 0]	n/a	catFR1	3	R1380D
999.527	1.63	999321	REC_WORD	1.63	n/a	BOAT	Vehicles	4	9	[0, 0, 0]	n/a	catFR1	3	R1380D
1001.157	0.767	1000951	REC_WORD	0.767	n/a	CAR	Vehicles	9	9	[0, 0, 0]	n/a	catFR1	3	R1380D
1001.924	1.154	1001718	REC_WORD	1.154	n/a	VAN	Vehicles	10	9	[0, 0, 0]	n/a	catFR1	3	R1380D
1003.078	2.286	1002872	REC_WORD	2.286	n/a	MOSQUITO	Insects	5	9	[0, 0, 0]	n/a	catFR1	3	R1380D
1005.364	1.173	1005158	REC_WORD	1.173	n/a	MOTH	Insects	6	9	[0, 0, 0]	n/a	catFR1	3	R1380D
1006.537	1.184	1006330	REC_WORD	1.184	n/a	LADYBUG	Insects	11	9	[0, 0, 0]	n/a	catFR1	3	R1380D
1007.721	3.565	1007514	REC_WORD	3.565	n/a	ROACH	Insects	12	9	[0, 0, 0]	n/a	catFR1	3	R1380D
1011.286	3.116	1011079	REC_WORD	3.116	n/a	DAFFODIL	Flowers	7	9	[0, 0, 0]	n/a	catFR1	3	R1380D
1014.402	5.02	1014195	REC_WORD	5.02	n/a	SUNFLOWER	Flowers	1	9	[0, 0, 0]	n/a	catFR1	3	R1380D
1019.422	6.382	1019215	REC_WORD	6.382	n/a	MARIGOLD	Flowers	8	9	[0, 0, 0]	n/a	catFR1	3	R1380D
1025.804	1.203	1025596	REC_WORD	1.203	n/a	PETUNIA	Flowers	-999	9	[0, 0, 0]	n/a	catFR1	3	R1380D
1027.007	2.223	1026801	REC_END	n/a	n/a	n/a	n/a	-999	9	[0, 0, 0]	n/a	catFR1	3	R1380D
1029.23	10.35	1029030	COUNTDOWN_START	n/a	n/a	n/a	n/a	-999	10	[0, 0, 0]	n/a	catFR1	3	R1380D
1039.58	0.0	1039369	COUNTDOWN_END	n/a	n/a	n/a	n/a	-999	10	[0, 0, 0]	n/a	catFR1	3	R1380D
1039.58	2.083	1039380	ENCODING_START	n/a	n/a	n/a	n/a	-999	10	[0, 0, 0]	n/a	catFR1	3	R1380D
1041.663	1.601	1041456	WORD	n/a	wordpools/wordpool_categorized_EN.txt	TAPE	Officesupplies	1	10	[0, 0, 0]	n/a	catFR1	3	R1380D
1043.264	0.882	1043051	WORD_OFF	n/a	n/a	TAPE	Officesupplies	1	10	[0, 0, 0]	n/a	catFR1	3	R1380D
1044.146	1.601	1043941	WORD	n/a	wordpools/wordpool_categorized_EN.txt	RULER	Officesupplies	2	10	[0, 0, 0]	n/a	catFR1	3	R1380D
1045.747	0.833	1045536	WORD_OFF	n/a	n/a	RULER	Officesupplies	2	10	[0, 0, 0]	n/a	catFR1	3	R1380D
1046.58	1.617	1046375	WORD	n/a	wordpools/wordpool_categorized_EN.txt	LADLE	Kitchentools	3	10	[0, 0, 0]	n/a	catFR1	3	R1380D
1048.197	0.9	1047991	WORD_OFF	n/a	n/a	LADLE	Kitchentools	3	10	[0, 0, 0]	n/a	catFR1	3	R1380D
1049.097	1.6	1048891	WORD	n/a	wordpools/wordpool_categorized_EN.txt	FORK	Kitchentools	4	10	[0, 0, 0]	n/a	catFR1	3	R1380D
1050.697	0.915	1050486	WORD_OFF	n/a	n/a	FORK	Kitchentools	4	10	[0, 0, 0]	n/a	catFR1	3	R1380D
1051.612	1.601	1051406	WORD	n/a	wordpools/wordpool_categorized_EN.txt	POTATO	Vegetables	5	10	[0, 0, 0]	n/a	catFR1	3	R1380D
1053.213	0.784	1053002	WORD_OFF	n/a	n/a	POTATO	Vegetables	5	10	[0, 0, 0]	n/a	catFR1	3	R1380D
1053.997	1.6	1053789	WORD	n/a	wordpools/wordpool_categorized_EN.txt	CABBAGE	Vegetables	6	10	[0, 0, 0]	n/a	catFR1	3	R1380D
1055.597	1.0	1055385	WORD_OFF	n/a	n/a	CABBAGE	Vegetables	6	10	[0, 0, 0]	n/a	catFR1	3	R1380D
1056.597	1.6	1056387	WORD	n/a	wordpools/wordpool_categorized_EN.txt	SPATULA	Kitchentools	7	10	[0, 0, 0]	n/a	catFR1	3	R1380D
1058.197	0.916	1057992	WORD_OFF	n/a	n/a	SPATULA	Kitchentools	7	10	[0, 0, 0]	n/a	catFR1	3	R1380D
1059.113	1.6	1058903	WORD	n/a	wordpools/wordpool_categorized_EN.txt	COLANDER	Kitchentools	8	10	[0, 0, 0]	n/a	catFR1	3	R1380D
1060.713	0.967	1060508	WORD_OFF	n/a	n/a	COLANDER	Kitchentools	8	10	[0, 0, 0]	n/a	catFR1	3	R1380D
1061.68	1.6	1061469	WORD	n/a	wordpools/wordpool_categorized_EN.txt	PEN	Officesupplies	9	10	[0, 0, 0]	n/a	catFR1	3	R1380D
1063.28	0.866	1063075	WORD_OFF	n/a	n/a	PEN	Officesupplies	9	10	[0, 0, 0]	n/a	catFR1	3	R1380D
1064.146	1.617	1063934	WORD	n/a	wordpools/wordpool_categorized_EN.txt	ERASER	Officesupplies	10	10	[0, 0, 0]	n/a	catFR1	3	R1380D
1065.763	0.767	1065550	WORD_OFF	n/a	n/a	ERASER	Officesupplies	10	10	[0, 0, 0]	n/a	catFR1	3	R1380D
1066.53	1.6	1066317	WORD	n/a	wordpools/wordpool_categorized_EN.txt	LETTUCE	Vegetables	11	10	[0, 0, 0]	n/a	catFR1	3	R1380D
1068.13	0.933	1067923	WORD_OFF	n/a	n/a	LETTUCE	Vegetables	11	10	[0, 0, 0]	n/a	catFR1	3	R1380D
1069.063	1.617	1068853	WORD	n/a	wordpools/wordpool_categorized_EN.txt	ONION	Vegetables	12	10	[0, 0, 0]	n/a	catFR1	3	R1380D
1070.68	0.001	1070469	WORD_OFF	n/a	n/a	ONION	Vegetables	12	10	[0, 0, 0]	n/a	catFR1	3	R1380D
1070.681	0.0	1070469	ENCODING_END	n/a	n/a	n/a	n/a	-999	10	[0, 0, 0]	n/a	catFR1	3	R1380D
1070.68	0.001	1070470	PROB	0.001	n/a	n/a	n/a	-999	10	[1, 4, 2]	7	catFR1	3	R1380D
1070.681	0.0	1070471	START	n/a	n/a	n/a	n/a	-999	10	[-999, -999, -999]	n/a	catFR1	3	R1380D
1070.681	3.599	1070479	DISTRACT_START	n/a	n/a	n/a	n/a	-999	10	[0, 0, 0]	n/a	catFR1	3	R1380D
1074.28	4.466	1074070	PROB	4.466	n/a	n/a	n/a	-999	10	[6, 8, 3]	17	catFR1	3	R1380D
1078.746	2.201	1078536	PROB	2.201	n/a	n/a	n/a	-999	10	[1, 3, 5]	9	catFR1	3	R1380D
1080.947	2.566	1080737	PROB	2.566	n/a	n/a	n/a	-999	10	[8, 4, 2]	14	catFR1	3	R1380D
1083.513	4.968	1083302	PROB	4.968	n/a	n/a	n/a	-999	10	[5, 8, 3]	16	catFR1	3	R1380D
1088.481	3.049	1088270	PROB	3.049	n/a	n/a	n/a	-999	10	[5, 6, 4]	15	catFR1	3	R1380D
1091.53	0.0	1091319	STOP	n/a	n/a	n/a	n/a	-999	10	[-999, -999, -999]	n/a	catFR1	3	R1380D
1091.53	1.384	1091321	DISTRACT_END	n/a	n/a	n/a	n/a	-999	10	[0, 0, 0]	n/a	catFR1	3	R1380D
1092.914	8.545	1092702	REC_START	n/a	n/a	n/a	n/a	-999	10	[0, 0, 0]	n/a	catFR1	3	R1380D
1101.459	1.031	1101247	REC_WORD	1.031	n/a	LADLE	Kitchentools	3	10	[0, 0, 0]	n/a	catFR1	3	R1380D
1102.49	4.067	1102278	REC_WORD	4.067	n/a	FORK	Kitchentools	4	10	[0, 0, 0]	n/a	catFR1	3	R1380D
1106.557	8.301	1106345	REC_WORD	8.301	n/a	COLANDER	Kitchentools	8	10	[0, 0, 0]	n/a	catFR1	3	R1380D
1114.858	0.661	1114646	REC_WORD	0.661	n/a	CABBAGE	Vegetables	6	10	[0, 0, 0]	n/a	catFR1	3	R1380D
1115.519	1.685	1115307	REC_WORD	1.685	n/a	POTATO	Vegetables	5	10	[0, 0, 0]	n/a	catFR1	3	R1380D
1117.204	1.696	1116992	REC_WORD	1.696	n/a	CORN	Vegetables	-999	10	[0, 0, 0]	n/a	catFR1	3	R1380D
1118.9	3.027	1118688	REC_WORD	3.027	n/a	LETTUCE	Vegetables	11	10	[0, 0, 0]	n/a	catFR1	3	R1380D
1121.927	1.234	1121714	REC_WORD	1.234	n/a	PEN	Officesupplies	9	10	[0, 0, 0]	n/a	catFR1	3	R1380D
1123.161	5.953	1122953	REC_END	n/a	n/a	n/a	n/a	-999	10	[0, 0, 0]	n/a	catFR1	3	R1380D
1129.114	10.35	1128905	COUNTDOWN_START	n/a	n/a	n/a	n/a	-999	11	[0, 0, 0]	n/a	catFR1	3	R1380D
1139.464	0.0	1139255	COUNTDOWN_END	n/a	n/a	n/a	n/a	-999	11	[0, 0, 0]	n/a	catFR1	3	R1380D
1139.464	2.399	1139255	ENCODING_START	n/a	n/a	n/a	n/a	-999	11	[0, 0, 0]	n/a	catFR1	3	R1380D
1141.863	1.6	1141648	WORD	n/a	wordpools/wordpool_categorized_EN.txt	SPRUCE	Trees	1	11	[0, 0, 0]	n/a	catFR1	3	R1380D
1143.463	0.917	1143253	WORD_OFF	n/a	n/a	SPRUCE	Trees	1	11	[0, 0, 0]	n/a	catFR1	3	R1380D
1144.38	1.6	1144163	WORD	n/a	wordpools/wordpool_categorized_EN.txt	CYPRESS	Trees	2	11	[0, 0, 0]	n/a	catFR1	3	R1380D
1145.98	0.916	1145769	WORD_OFF	n/a	n/a	CYPRESS	Trees	2	11	[0, 0, 0]	n/a	catFR1	3	R1380D
1146.896	1.601	1146679	WORD	n/a	wordpools/wordpool_categorized_EN.txt	THUNDER	Weather	3	11	[0, 0, 0]	n/a	catFR1	3	R1380D
1148.497	0.983	1148285	WORD_OFF	n/a	n/a	THUNDER	Weather	3	11	[0, 0, 0]	n/a	catFR1	3	R1380D
1149.48	1.601	1149267	WORD	n/a	wordpools/wordpool_categorized_EN.txt	RAIN	Weather	4	11	[0, 0, 0]	n/a	catFR1	3	R1380D
1151.081	0.916	1150872	WORD_OFF	n/a	n/a	RAIN	Weather	4	11	[0, 0, 0]	n/a	catFR1	3	R1380D
1151.997	1.6	1151782	WORD	n/a	wordpools/wordpool_categorized_EN.txt	GLUE	Officesupplies	5	11	[0, 0, 0]	n/a	catFR1	3	R1380D
1153.597	0.916	1153388	WORD_OFF	n/a	n/a	GLUE	Officesupplies	5	11	[0, 0, 0]	n/a	catFR1	3	R1380D
1154.513	1.6	1154298	WORD	n/a	wordpools/wordpool_categorized_EN.txt	BINDER	Officesupplies	6	11	[0, 0, 0]	n/a	catFR1	3	R1380D
1156.113	0.934	1155904	WORD_OFF	n/a	n/a	BINDER	Officesupplies	6	11	[0, 0, 0]	n/a	catFR1	3	R1380D
1157.047	1.6	1156834	WORD	n/a	wordpools/wordpool_categorized_EN.txt	LIGHTNING	Weather	7	11	[0, 0, 0]	n/a	catFR1	3	R1380D
1158.647	0.933	1158430	WORD_OFF	n/a	n/a	LIGHTNING	Weather	7	11	[0, 0, 0]	n/a	catFR1	3	R1380D
1159.58	1.6	1159371	WORD	n/a	wordpools/wordpool_categorized_EN.txt	FOG	Weather	8	11	[0, 0, 0]	n/a	catFR1	3	R1380D
1161.18	0.917	1160966	WORD_OFF	n/a	n/a	FOG	Weather	8	11	[0, 0, 0]	n/a	catFR1	3	R1380D
1162.097	1.6	1161886	WORD	n/a	wordpools/wordpool_categorized_EN.txt	MARKER	Officesupplies	9	11	[0, 0, 0]	n/a	catFR1	3	R1380D
1163.697	0.816	1163482	WORD_OFF	n/a	n/a	MARKER	Officesupplies	9	11	[0, 0, 0]	n/a	catFR1	3	R1380D
1164.513	1.6	1164300	WORD	n/a	wordpools/wordpool_categorized_EN.txt	FOLDER	Officesupplies	10	11	[0, 0, 0]	n/a	catFR1	3	R1380D
1166.113	1.0	1165895	WORD_OFF	n/a	n/a	FOLDER	Officesupplies	10	11	[0, 0, 0]	n/a	catFR1	3	R1380D
1167.113	1.6	1166898	WORD	n/a	wordpools/wordpool_categorized_EN.txt	MAPLE	Trees	11	11	[0, 0, 0]	n/a	catFR1	3	R1380D
1168.713	0.883	1168503	WORD_OFF	n/a	n/a	MAPLE	Trees	11	11	[0, 0, 0]	n/a	catFR1	3	R1380D
1169.596	1.617	1169383	WORD	n/a	wordpools/wordpool_categorized_EN.txt	BIRCH	Trees	12	11	[0, 0, 0]	n/a	catFR1	3	R1380D
1171.213	0.002	1170998	WORD_OFF	n/a	n/a	BIRCH	Trees	12	11	[0, 0, 0]	n/a	catFR1	3	R1380D
1171.215	0.0	1170998	ENCODING_END	n/a	n/a	n/a	n/a	-999	11	[0, 0, 0]	n/a	catFR1	3	R1380D
1171.215	0.0	1170998	DISTRACT_START	n/a	n/a	n/a	n/a	-999	11	[0, 0, 0]	n/a	catFR1	3	R1380D
1171.213	0.002	1170998	PROB	0.002	n/a	n/a	n/a	-999	11	[3, 5, 5]	13	catFR1	3	R1380D
1171.215	2.931	1171000	START	n/a	n/a	n/a	n/a	-999	11	[-999, -999, -999]	n/a	catFR1	3	R1380D
1174.146	3.434	1173931	PROB	3.434	n/a	n/a	n/a	-999	11	[7, 2, 6]	15	catFR1	3	R1380D
1177.58	3.9	1177365	PROB	3.9	n/a	n/a	n/a	-999	11	[1, 1, 5]	7	catFR1	3	R1380D
1181.48	3.967	1181264	PROB	3.967	n/a	n/a	n/a	-999	11	[5, 3, 3]	11	catFR1	3	R1380D
1185.447	2.1	1185231	PROB	2.1	n/a	n/a	n/a	-999	11	[1, 6, 5]	12	catFR1	3	R1380D
1187.547	2.949	1187331	PROB	2.949	n/a	n/a	n/a	-999	11	[4, 3, 2]	9	catFR1	3	R1380D
1190.496	2.917	1190280	PROB	2.917	n/a	n/a	n/a	-999	11	[2, 3, 7]	12	catFR1	3	R1380D
1193.413	0.0	1193197	STOP	n/a	n/a	n/a	n/a	-999	11	[-999, -999, -999]	n/a	catFR1	3	R1380D
1193.413	1.134	1193201	DISTRACT_END	n/a	n/a	n/a	n/a	-999	11	[0, 0, 0]	n/a	catFR1	3	R1380D
1194.547	1.409	1194336	REC_START	n/a	n/a	n/a	n/a	-999	11	[0, 0, 0]	n/a	catFR1	3	R1380D
1195.956	1.441	1195740	REC_WORD	1.441	n/a	CYPRESS	Trees	2	11	[0, 0, 0]	n/a	catFR1	3	R1380D
1197.397	1.85	1197180	REC_WORD	1.85	n/a	SPRUCE	Trees	1	11	[0, 0, 0]	n/a	catFR1	3	R1380D
1199.247	1.327	1199030	REC_WORD	1.327	n/a	BIRCH	Trees	12	11	[0, 0, 0]	n/a	catFR1	3	R1380D
1200.574	2.055	1200357	REC_WORD	2.055	n/a	MAPLE	Trees	11	11	[0, 0, 0]	n/a	catFR1	3	R1380D
1202.629	1.774	1202412	REC_WORD	1.774	n/a	MARKER	Officesupplies	9	11	[0, 0, 0]	n/a	catFR1	3	R1380D
1204.403	2.669	1204186	REC_WORD	2.669	n/a	PEN	Officesupplies	-999	11	[0, 0, 0]	n/a	catFR1	3	R1380D
1207.072	1.313	1206855	REC_WORD	1.313	n/a	BINDER	Officesupplies	6	11	[0, 0, 0]	n/a	catFR1	3	R1380D
1208.385	16.422	1208168	REC_WORD	16.422	n/a	FOLDER	Officesupplies	10	11	[0, 0, 0]	n/a	catFR1	3	R1380D
1224.807	1.423	1224587	REC_END	n/a	n/a	n/a	n/a	-999	11	[0, 0, 0]	n/a	catFR1	3	R1380D
1226.23	10.35	1226008	COUNTDOWN_START	n/a	n/a	n/a	n/a	-999	12	[0, 0, 0]	n/a	catFR1	3	R1380D
1236.58	0.001	1236368	COUNTDOWN_END	n/a	n/a	n/a	n/a	-999	12	[0, 0, 0]	n/a	catFR1	3	R1380D
1236.581	2.066	1236368	ENCODING_START	n/a	n/a	n/a	n/a	-999	12	[0, 0, 0]	n/a	catFR1	3	R1380D
1238.647	1.617	1238424	WORD	n/a	wordpools/wordpool_categorized_EN.txt	STAPLER	Officesupplies	1	12	[0, 0, 0]	n/a	catFR1	3	R1380D
1240.264	0.833	1240050	WORD_OFF	n/a	n/a	STAPLER	Officesupplies	1	12	[0, 0, 0]	n/a	catFR1	3	R1380D
1241.097	1.6	1240878	WORD	n/a	wordpools/wordpool_categorized_EN.txt	PENCIL	Officesupplies	2	12	[0, 0, 0]	n/a	catFR1	3	R1380D
1242.697	0.783	1242484	WORD_OFF	n/a	n/a	PENCIL	Officesupplies	2	12	[0, 0, 0]	n/a	catFR1	3	R1380D
1243.48	1.6	1243261	WORD	n/a	wordpools/wordpool_categorized_EN.txt	HALLWAY	Building	3	12	[0, 0, 0]	n/a	catFR1	3	R1380D
1245.08	0.817	1244867	WORD_OFF	n/a	n/a	HALLWAY	Building	3	12	[0, 0, 0]	n/a	catFR1	3	R1380D
1245.897	1.617	1245675	WORD	n/a	wordpools/wordpool_categorized_EN.txt	WINDOW	Building	4	12	[0, 0, 0]	n/a	catFR1	3	R1380D
1247.514	0.833	1247290	WORD_OFF	n/a	n/a	WINDOW	Building	4	12	[0, 0, 0]	n/a	catFR1	3	R1380D
1248.347	1.6	1248129	WORD	n/a	wordpools/wordpool_categorized_EN.txt	TRUCK	Vehicles	5	12	[0, 0, 0]	n/a	catFR1	3	R1380D
1249.947	0.833	1249724	WORD_OFF	n/a	n/a	TRUCK	Vehicles	5	12	[0, 0, 0]	n/a	catFR1	3	R1380D
1250.78	1.6	1250563	WORD	n/a	wordpools/wordpool_categorized_EN.txt	SCOOTER	Vehicles	6	12	[0, 0, 0]	n/a	catFR1	3	R1380D
1252.38	0.817	1252158	WORD_OFF	n/a	n/a	SCOOTER	Vehicles	6	12	[0, 0, 0]	n/a	catFR1	3	R1380D
1253.197	1.616	1252976	WORD	n/a	wordpools/wordpool_categorized_EN.txt	STAIRS	Building	7	12	[0, 0, 0]	n/a	catFR1	3	R1380D
1254.813	0.9	1254592	WORD_OFF	n/a	n/a	STAIRS	Building	7	12	[0, 0, 0]	n/a	catFR1	3	R1380D
1255.713	1.617	1255492	WORD	n/a	wordpools/wordpool_categorized_EN.txt	FOUNDATION	Building	8	12	[0, 0, 0]	n/a	catFR1	3	R1380D
1257.33	0.817	1257108	WORD_OFF	n/a	n/a	FOUNDATION	Building	8	12	[0, 0, 0]	n/a	catFR1	3	R1380D
1258.147	1.6	1257926	WORD	n/a	wordpools/wordpool_categorized_EN.txt	MOPED	Vehicles	9	12	[0, 0, 0]	n/a	catFR1	3	R1380D
1259.747	0.9	1259532	WORD_OFF	n/a	n/a	MOPED	Vehicles	9	12	[0, 0, 0]	n/a	catFR1	3	R1380D
1260.647	1.616	1260432	WORD	n/a	wordpools/wordpool_categorized_EN.txt	MOTORCYCLE	Vehicles	10	12	[0, 0, 0]	n/a	catFR1	3	R1380D
1262.263	0.784	1262048	WORD_OFF	n/a	n/a	MOTORCYCLE	Vehicles	10	12	[0, 0, 0]	n/a	catFR1	3	R1380D
1263.047	1.616	1262825	WORD	n/a	wordpools/wordpool_categorized_EN.txt	PAPER	Officesupplies	11	12	[0, 0, 0]	n/a	catFR1	3	R1380D
1264.663	0.784	1264441	WORD_OFF	n/a	n/a	PAPER	Officesupplies	11	12	[0, 0, 0]	n/a	catFR1	3	R1380D
1265.447	1.616	1265228	WORD	n/a	wordpools/wordpool_categorized_EN.txt	NOTEBOOK	Officesupplies	12	12	[0, 0, 0]	n/a	catFR1	3	R1380D
1267.063	0.002	1266844	WORD_OFF	n/a	n/a	NOTEBOOK	Officesupplies	12	12	[0, 0, 0]	n/a	catFR1	3	R1380D
1267.065	0.0	1266844	ENCODING_END	n/a	n/a	n/a	n/a	-999	12	[0, 0, 0]	n/a	catFR1	3	R1380D
1267.065	0.0	1266844	DISTRACT_START	n/a	n/a	n/a	n/a	-999	12	[0, 0, 0]	n/a	catFR1	3	R1380D
1267.064	0.001	1266844	PROB	0.001	n/a	n/a	n/a	-999	12	[6, 1, 8]	15	catFR1	3	R1380D
1267.065	3.632	1266845	START	n/a	n/a	n/a	n/a	-999	12	[-999, -999, -999]	n/a	catFR1	3	R1380D
1270.697	3.767	1270477	PROB	3.767	n/a	n/a	n/a	-999	12	[6, 3, 4]	13	catFR1	3	R1380D
1274.464	3.383	1274243	PROB	3.383	n/a	n/a	n/a	-999	12	[4, 5, 3]	12	catFR1	3	R1380D
1277.847	3.616	1277626	PROB	3.616	n/a	n/a	n/a	-999	12	[3, 6, 4]	13	catFR1	3	R1380D
1281.463	4.1	1281242	PROB	4.1	n/a	n/a	n/a	-999	12	[6, 5, 1]	12	catFR1	3	R1380D
1285.563	3.049	1285342	PROB	3.049	n/a	n/a	n/a	-999	12	[7, 8, 1]	16	catFR1	3	R1380D
1288.612	0.0	1288391	STOP	n/a	n/a	n/a	n/a	-999	12	[-999, -999, -999]	n/a	catFR1	3	R1380D
1288.612	1.117	1288392	DISTRACT_END	n/a	n/a	n/a	n/a	-999	12	[0, 0, 0]	n/a	catFR1	3	R1380D
1289.729	1.322	1289507	REC_START	n/a	n/a	n/a	n/a	-999	12	[0, 0, 0]	n/a	catFR1	3	R1380D
1291.051	1.012	1290830	REC_WORD	1.012	n/a	STAPLER	Officesupplies	1	12	[0, 0, 0]	n/a	catFR1	3	R1380D
1292.063	6.651	1291842	REC_WORD	6.651	n/a	BINDER	Officesupplies	-999	12	[0, 0, 0]	n/a	catFR1	3	R1380D
1298.714	0.495	1298492	REC_WORD	0.495	n/a	STAPLER	Officesupplies	1	12	[0, 0, 0]	n/a	catFR1	3	R1380D
1299.209	1.072	1298987	REC_WORD	1.072	n/a	NOTEBOOK	Officesupplies	12	12	[0, 0, 0]	n/a	catFR1	3	R1380D
1300.281	0.821	1300059	REC_WORD	0.821	n/a	PAPER	Officesupplies	11	12	[0, 0, 0]	n/a	catFR1	3	R1380D
1301.102	2.809	1300880	REC_WORD	2.809	n/a	PENCIL	Officesupplies	2	12	[0, 0, 0]	n/a	catFR1	3	R1380D
1303.911	7.125	1303689	REC_WORD_VV	7.125	n/a	<>	n/a	-999	12	[0, 0, 0]	n/a	catFR1	3	R1380D
1311.036	0.784	1310814	REC_WORD	0.784	n/a	SCOOTER	Vehicles	6	12	[0, 0, 0]	n/a	catFR1	3	R1380D
1311.82	0.846	1311598	REC_WORD	0.846	n/a	MOTORCYCLE	Vehicles	10	12	[0, 0, 0]	n/a	catFR1	3	R1380D
1312.666	2.505	1312443	REC_WORD	2.505	n/a	MOPED	Vehicles	9	12	[0, 0, 0]	n/a	catFR1	3	R1380D
1315.171	4.788	1314948	REC_WORD	4.788	n/a	TRUCK	Vehicles	5	12	[0, 0, 0]	n/a	catFR1	3	R1380D
1319.959	0.0	1319737	REC_END	n/a	n/a	n/a	n/a	-999	12	[0, 0, 0]	n/a	catFR1	3	R1380D
