onset	duration	sample	trial_type	response_time	stim_file	item_name	category	serialpos	list	test	answer	experiment	session	subject
0.0	98.666	99103	SESS_START	n/a	n/a	n/a	n/a	-999	-999	[0, 0, 0]	n/a	catFR1	0	R1291M
98.666	10.428	148434	COUNTDOWN_START	n/a	n/a	n/a	n/a	-999	-999	[0, 0, 0]	n/a	catFR1	0	R1291M
109.094	3.574	153648	COUNTDOWN_END	n/a	n/a	n/a	n/a	-999	-999	[0, 0, 0]	n/a	catFR1	0	R1291M
112.668	2.585	155434	PRACTICE_WORD	n/a	n/a	WAGON	n/a	-999	-999	[0, 0, 0]	n/a	catFR1	0	R1291M
115.253	2.533	156727	PRACTICE_WORD	n/a	n/a	CAMEL	n/a	-999	-999	[0, 0, 0]	n/a	catFR1	0	R1291M
117.786	2.585	157993	PRACTICE_WORD	n/a	n/a	FLOOD	n/a	-999	-999	[0, 0, 0]	n/a	catFR1	0	R1291M
120.371	2.466	159286	PRACTICE_WORD	n/a	n/a	IRON	n/a	-999	-999	[0, 0, 0]	n/a	catFR1	0	R1291M
122.837	2.618	160519	PRACTICE_WORD	n/a	n/a	ATTIC	n/a	-999	-999	[0, 0, 0]	n/a	catFR1	0	R1291M
125.455	2.434	161828	PRACTICE_WORD	n/a	n/a	RHINO	n/a	-999	-999	[0, 0, 0]	n/a	catFR1	0	R1291M
127.889	2.484	163045	PRACTICE_WORD	n/a	n/a	WATCH	n/a	-999	-999	[0, 0, 0]	n/a	catFR1	0	R1291M
130.373	2.466	164286	PRACTICE_WORD	n/a	n/a	TONGUE	n/a	-999	-999	[0, 0, 0]	n/a	catFR1	0	R1291M
132.839	2.535	165519	PRACTICE_WORD	n/a	n/a	COTTON	n/a	-999	-999	[0, 0, 0]	n/a	catFR1	0	R1291M
135.374	2.567	166787	PRACTICE_WORD	n/a	n/a	CHEST	n/a	-999	-999	[0, 0, 0]	n/a	catFR1	0	R1291M
137.941	2.434	168070	PRACTICE_WORD	n/a	n/a	BEAM	n/a	-999	-999	[0, 0, 0]	n/a	catFR1	0	R1291M
140.375	1.617	169287	PRACTICE_WORD	n/a	n/a	RING	n/a	-999	-999	[0, 0, 0]	n/a	catFR1	0	R1291M
141.992	0.0	170096	PRACTICE_DISTRACT_START	n/a	n/a	n/a	n/a	-999	-999	[0, 0, 0]	n/a	catFR1	0	R1291M
141.992	0.016	170096	START	n/a	n/a	n/a	n/a	-999	-1	[-999, -999, -999]	n/a	catFR1	0	R1291M
142.008	5.767	170104	PROB	5.736	n/a	n/a	n/a	-999	-1	[7, 7, 8]	22.0	catFR1	0	R1291M
147.775	8.486	172987	PROB	8.45	n/a	n/a	n/a	-999	-1	[7, 5, 4]	16.0	catFR1	0	R1291M
156.261	3.884	177230	PROB	3.852	n/a	n/a	n/a	-999	-1	[9, 9, 5]	23.0	catFR1	0	R1291M
160.145	4.248	179172	PROB	4.248	n/a	n/a	n/a	-999	-1	[3, 7, 8]	18.0	catFR1	0	R1291M
164.393	0.02	181296	STOP	n/a	n/a	n/a	n/a	-999	-1	[-999, -999, -999]	n/a	catFR1	0	R1291M
164.413	0.718	181306	PRACTICE_DISTRACT_END	n/a	n/a	n/a	n/a	-999	-999	[0, 0, 0]	n/a	catFR1	0	R1291M
165.131	30.514	181665	PRACTICE_REC_START	n/a	n/a	n/a	n/a	-999	-999	[0, 0, 0]	n/a	catFR1	0	R1291M
195.645	13.876	196921	PRACTICE_REC_END	n/a	n/a	n/a	n/a	-999	-999	[0, 0, 0]	n/a	catFR1	0	R1291M
209.521	0.001	203859	COUNTDOWN_START	n/a	n/a	n/a	n/a	-999	1	[0, 0, 0]	n/a	catFR1	0	R1291M
209.522	10.427	203859	TRIAL	n/a	n/a	n/a	n/a	-999	1	[0, 0, 0]	n/a	catFR1	0	R1291M
219.949	0.008	209072	COUNTDOWN_END	n/a	n/a	n/a	n/a	-999	1	[0, 0, 0]	n/a	catFR1	0	R1291M
219.957	3.633	209076	ORIENT	n/a	n/a	n/a	n/a	-999	1	[0, 0, 0]	n/a	catFR1	0	R1291M
223.59	2.534	210893	WORD	n/a	wordpools/wordpool_categorized_EN.txt	SEAGULL	Birds	1	1	[0, 0, 0]	n/a	catFR1	0	R1291M
226.124	2.567	212160	WORD	n/a	wordpools/wordpool_categorized_EN.txt	PIGEON	Birds	2	1	[0, 0, 0]	n/a	catFR1	0	R1291M
228.691	2.451	213443	WORD	n/a	wordpools/wordpool_categorized_EN.txt	SNOW	Weather	3	1	[0, 0, 0]	n/a	catFR1	0	R1291M
231.142	2.434	214668	WORD	n/a	wordpools/wordpool_categorized_EN.txt	THUNDER	Weather	4	1	[0, 0, 0]	n/a	catFR1	0	R1291M
233.576	2.4	215885	WORD	n/a	wordpools/wordpool_categorized_EN.txt	BLOCKS	Toys	5	1	[0, 0, 0]	n/a	catFR1	0	R1291M
235.976	2.534	217085	WORD	n/a	wordpools/wordpool_categorized_EN.txt	BASEBALL	Toys	6	1	[0, 0, 0]	n/a	catFR1	0	R1291M
238.51	2.401	218352	WORD	n/a	wordpools/wordpool_categorized_EN.txt	FINCH	Birds	7	1	[0, 0, 0]	n/a	catFR1	0	R1291M
240.911	2.617	219553	WORD	n/a	wordpools/wordpool_categorized_EN.txt	GOOSE	Birds	8	1	[0, 0, 0]	n/a	catFR1	0	R1291M
243.528	2.417	220861	WORD	n/a	wordpools/wordpool_categorized_EN.txt	BASKETBALL	Toys	9	1	[0, 0, 0]	n/a	catFR1	0	R1291M
245.945	2.534	222070	WORD	n/a	wordpools/wordpool_categorized_EN.txt	DOLLHOUSE	Toys	10	1	[0, 0, 0]	n/a	catFR1	0	R1291M
248.479	2.467	223337	WORD	n/a	wordpools/wordpool_categorized_EN.txt	FOG	Weather	11	1	[0, 0, 0]	n/a	catFR1	0	R1291M
250.946	1.617	224570	WORD	n/a	wordpools/wordpool_categorized_EN.txt	HUMIDITY	Weather	12	1	[0, 0, 0]	n/a	catFR1	0	R1291M
252.563	0.001	225378	DISTRACT_START	n/a	n/a	n/a	n/a	-999	1	[0, 0, 0]	n/a	catFR1	0	R1291M
252.564	0.015	225379	START	n/a	n/a	n/a	n/a	-999	1	[-999, -999, -999]	n/a	catFR1	0	R1291M
252.579	3.818	225386	PROB	3.782	n/a	n/a	n/a	-999	1	[2, 2, 2]	6.0	catFR1	0	R1291M
256.397	5.117	227295	PROB	5.084	n/a	n/a	n/a	-999	1	[4, 1, 5]	10.0	catFR1	0	R1291M
261.514	4.851	229854	PROB	4.831	n/a	n/a	n/a	-999	1	[9, 3, 7]	19.0	catFR1	0	R1291M
266.365	3.417	232279	PROB	3.387	n/a	n/a	n/a	-999	1	[1, 3, 1]	5.0	catFR1	0	R1291M
269.782	5.083	233988	PROB	5.083	n/a	n/a	n/a	-999	1	[5, 6, 2]	13.0	catFR1	0	R1291M
274.865	0.019	236529	STOP	n/a	n/a	n/a	n/a	-999	1	[-999, -999, -999]	n/a	catFR1	0	R1291M
274.884	1.176	236538	DISTRACT_END	n/a	n/a	n/a	n/a	-999	1	[0, 0, 0]	n/a	catFR1	0	R1291M
276.06	1.629	237126	REC_START	n/a	n/a	n/a	n/a	-999	1	[0, 0, 0]	n/a	catFR1	0	R1291M
277.689	0.324	237941	REC_WORD_VV	1.629	n/a	<>	n/a	-999	1	[0, 0, 0]	n/a	catFR1	0	R1291M
278.013	1.72	238103	REC_WORD	1.953	n/a	SEAGULL	Birds	1	1	[0, 0, 0]	n/a	catFR1	0	R1291M
279.733	1.185	238963	REC_WORD	3.673	n/a	FINCH	Birds	7	1	[0, 0, 0]	n/a	catFR1	0	R1291M
280.918	2.373	239555	REC_WORD	4.858	n/a	BASKETBALL	Toys	9	1	[0, 0, 0]	n/a	catFR1	0	R1291M
283.291	6.336	240742	REC_WORD_VV	7.231	n/a	<>	n/a	-999	1	[0, 0, 0]	n/a	catFR1	0	R1291M
289.627	5.985	243910	REC_WORD	13.567	n/a	BLOCKS	Toys	5	1	[0, 0, 0]	n/a	catFR1	0	R1291M
295.612	2.023	246902	REC_WORD_VV	19.552	n/a	<>	n/a	-999	1	[0, 0, 0]	n/a	catFR1	0	R1291M
297.635	0.463	247913	REC_WORD_VV	21.575	n/a	<>	n/a	-999	1	[0, 0, 0]	n/a	catFR1	0	R1291M
298.098	7.965	248145	REC_WORD	22.038	n/a	PIGEON	Birds	2	1	[0, 0, 0]	n/a	catFR1	0	R1291M
306.063	34.699	252127	REC_END	n/a	n/a	n/a	n/a	-999	1	[0, 0, 0]	n/a	catFR1	0	R1291M
340.762	0.0	269476	TRIAL	n/a	n/a	n/a	n/a	-999	2	[0, 0, 0]	n/a	catFR1	0	R1291M
340.762	10.428	269476	COUNTDOWN_START	n/a	n/a	n/a	n/a	-999	2	[0, 0, 0]	n/a	catFR1	0	R1291M
351.19	0.008	274689	COUNTDOWN_END	n/a	n/a	n/a	n/a	-999	2	[0, 0, 0]	n/a	catFR1	0	R1291M
351.198	3.517	274693	ORIENT	n/a	n/a	n/a	n/a	-999	2	[0, 0, 0]	n/a	catFR1	0	R1291M
354.715	2.535	276452	WORD	n/a	wordpools/wordpool_categorized_EN.txt	LETTUCE	Vegetables	1	2	[0, 0, 0]	n/a	catFR1	0	R1291M
357.25	2.6	277719	WORD	n/a	wordpools/wordpool_categorized_EN.txt	CUCUMBER	Vegetables	2	2	[0, 0, 0]	n/a	catFR1	0	R1291M
359.85	2.384	279019	WORD	n/a	wordpools/wordpool_categorized_EN.txt	WHALE	OceanAnimals	3	2	[0, 0, 0]	n/a	catFR1	0	R1291M
362.234	2.617	280211	WORD	n/a	wordpools/wordpool_categorized_EN.txt	OYSTER	OceanAnimals	4	2	[0, 0, 0]	n/a	catFR1	0	R1291M
364.851	2.534	281520	WORD	n/a	wordpools/wordpool_categorized_EN.txt	DAISY	Flowers	5	2	[0, 0, 0]	n/a	catFR1	0	R1291M
367.385	2.449	282787	WORD	n/a	wordpools/wordpool_categorized_EN.txt	PETUNIA	Flowers	6	2	[0, 0, 0]	n/a	catFR1	0	R1291M
369.834	2.602	284011	WORD	n/a	wordpools/wordpool_categorized_EN.txt	ONION	Vegetables	7	2	[0, 0, 0]	n/a	catFR1	0	R1291M
372.436	2.45	285312	WORD	n/a	wordpools/wordpool_categorized_EN.txt	CAULIFLOWER	Vegetables	8	2	[0, 0, 0]	n/a	catFR1	0	R1291M
374.886	2.417	286537	WORD	n/a	wordpools/wordpool_categorized_EN.txt	DAFFODIL	Flowers	9	2	[0, 0, 0]	n/a	catFR1	0	R1291M
377.303	2.584	287745	WORD	n/a	wordpools/wordpool_categorized_EN.txt	TULIP	Flowers	10	2	[0, 0, 0]	n/a	catFR1	0	R1291M
379.887	2.551	289037	WORD	n/a	wordpools/wordpool_categorized_EN.txt	SHRIMP	OceanAnimals	11	2	[0, 0, 0]	n/a	catFR1	0	R1291M
382.438	1.617	290313	WORD	n/a	wordpools/wordpool_categorized_EN.txt	OCTOPUS	OceanAnimals	12	2	[0, 0, 0]	n/a	catFR1	0	R1291M
384.055	0.001	291121	DISTRACT_START	n/a	n/a	n/a	n/a	-999	2	[0, 0, 0]	n/a	catFR1	0	R1291M
384.056	0.015	291122	START	n/a	n/a	n/a	n/a	-999	2	[-999, -999, -999]	n/a	catFR1	0	R1291M
384.071	4.534	291129	PROB	4.514	n/a	n/a	n/a	-999	2	[6, 4, 7]	17.0	catFR1	0	R1291M
388.605	4.167	293396	PROB	4.131	n/a	n/a	n/a	-999	2	[7, 6, 3]	16.0	catFR1	0	R1291M
392.772	4.319	295479	PROB	4.293	n/a	n/a	n/a	-999	2	[8, 1, 6]	15.0	catFR1	0	R1291M
397.091	3.767	297639	PROB	3.741	n/a	n/a	n/a	-999	2	[4, 4, 2]	10.0	catFR1	0	R1291M
400.858	6.567	299522	PROB	6.567	n/a	n/a	n/a	-999	2	[6, 6, 7]	19.0	catFR1	0	R1291M
407.425	0.018	302806	STOP	n/a	n/a	n/a	n/a	-999	2	[-999, -999, -999]	n/a	catFR1	0	R1291M
407.443	1.166	302815	DISTRACT_END	n/a	n/a	n/a	n/a	-999	2	[0, 0, 0]	n/a	catFR1	0	R1291M
408.609	1.323	303398	REC_START	n/a	n/a	n/a	n/a	-999	2	[0, 0, 0]	n/a	catFR1	0	R1291M
409.932	0.826	304059	REC_WORD	1.323	n/a	DAFFODIL	Flowers	9	2	[0, 0, 0]	n/a	catFR1	0	R1291M
410.758	1.433	304472	REC_WORD	2.149	n/a	TULIP	Flowers	10	2	[0, 0, 0]	n/a	catFR1	0	R1291M
412.191	1.403	305188	REC_WORD	3.582	n/a	WHALE	OceanAnimals	3	2	[0, 0, 0]	n/a	catFR1	0	R1291M
413.594	2.496	305890	REC_WORD	4.985	n/a	CUCUMBER	Vegetables	2	2	[0, 0, 0]	n/a	catFR1	0	R1291M
416.09	2.747	307138	REC_WORD	7.481	n/a	OYSTER	OceanAnimals	4	2	[0, 0, 0]	n/a	catFR1	0	R1291M
418.837	6.01	308511	REC_WORD_VV	10.228	n/a	<>	n/a	-999	2	[0, 0, 0]	n/a	catFR1	0	R1291M
424.847	13.777	311516	REC_WORD	16.238	n/a	ONION	Vegetables	7	2	[0, 0, 0]	n/a	catFR1	0	R1291M
438.624	5.309	318404	REC_END	n/a	n/a	n/a	n/a	-999	2	[0, 0, 0]	n/a	catFR1	0	R1291M
443.933	0.0	321059	TRIAL	n/a	n/a	n/a	n/a	-999	3	[0, 0, 0]	n/a	catFR1	0	R1291M
443.933	10.428	321059	COUNTDOWN_START	n/a	n/a	n/a	n/a	-999	3	[0, 0, 0]	n/a	catFR1	0	R1291M
454.361	0.007	326272	COUNTDOWN_END	n/a	n/a	n/a	n/a	-999	3	[0, 0, 0]	n/a	catFR1	0	R1291M
454.368	3.718	326276	ORIENT	n/a	n/a	n/a	n/a	-999	3	[0, 0, 0]	n/a	catFR1	0	R1291M
458.086	2.434	328135	WORD	n/a	wordpools/wordpool_categorized_EN.txt	BULL	FarmAnimals	1	3	[0, 0, 0]	n/a	catFR1	0	R1291M
460.52	2.567	329352	WORD	n/a	wordpools/wordpool_categorized_EN.txt	HEN	FarmAnimals	2	3	[0, 0, 0]	n/a	catFR1	0	R1291M
463.087	2.467	330635	WORD	n/a	wordpools/wordpool_categorized_EN.txt	CARNATION	Flowers	3	3	[0, 0, 0]	n/a	catFR1	0	R1291M
465.554	2.517	331869	WORD	n/a	wordpools/wordpool_categorized_EN.txt	ROSE	Flowers	4	3	[0, 0, 0]	n/a	catFR1	0	R1291M
468.071	2.599	333127	WORD	n/a	wordpools/wordpool_categorized_EN.txt	PEN	OfficeSupplies	5	3	[0, 0, 0]	n/a	catFR1	0	R1291M
470.67	2.452	334426	WORD	n/a	wordpools/wordpool_categorized_EN.txt	MARKER	OfficeSupplies	6	3	[0, 0, 0]	n/a	catFR1	0	R1291M
473.122	2.434	335652	WORD	n/a	wordpools/wordpool_categorized_EN.txt	SUNFLOWER	Flowers	7	3	[0, 0, 0]	n/a	catFR1	0	R1291M
475.556	2.517	336869	WORD	n/a	wordpools/wordpool_categorized_EN.txt	MARIGOLD	Flowers	8	3	[0, 0, 0]	n/a	catFR1	0	R1291M
478.073	2.583	338128	WORD	n/a	wordpools/wordpool_categorized_EN.txt	ROOSTER	FarmAnimals	9	3	[0, 0, 0]	n/a	catFR1	0	R1291M
480.656	2.584	339419	WORD	n/a	wordpools/wordpool_categorized_EN.txt	LAMB	FarmAnimals	10	3	[0, 0, 0]	n/a	catFR1	0	R1291M
483.24	2.55	340711	WORD	n/a	wordpools/wordpool_categorized_EN.txt	FOLDER	OfficeSupplies	11	3	[0, 0, 0]	n/a	catFR1	0	R1291M
485.79	1.618	341986	WORD	n/a	wordpools/wordpool_categorized_EN.txt	NOTEBOOK	OfficeSupplies	12	3	[0, 0, 0]	n/a	catFR1	0	R1291M
487.408	0.001	342795	DISTRACT_START	n/a	n/a	n/a	n/a	-999	3	[0, 0, 0]	n/a	catFR1	0	R1291M
487.409	0.016	342796	START	n/a	n/a	n/a	n/a	-999	3	[-999, -999, -999]	n/a	catFR1	0	R1291M
487.425	4.501	342804	PROB	4.472	n/a	n/a	n/a	-999	3	[2, 6, 1]	9.0	catFR1	0	R1291M
491.926	5.7	345054	PROB	5.674	n/a	n/a	n/a	-999	3	[8, 5, 6]	19.0	catFR1	0	R1291M
497.626	4.701	347904	PROB	4.671	n/a	n/a	n/a	-999	3	[4, 4, 7]	15.0	catFR1	0	R1291M
502.327	4.568	350254	PROB	4.546	n/a	n/a	n/a	-999	3	[2, 9, 3]	14.0	catFR1	0	R1291M
506.895	4.097	352538	PROB	4.097	n/a	n/a	n/a	-999	3	[1, 8, 7]	16.0	catFR1	0	R1291M
510.992	0.021	354586	STOP	n/a	n/a	n/a	n/a	-999	3	[-999, -999, -999]	n/a	catFR1	0	R1291M
511.013	1.067	354597	DISTRACT_END	n/a	n/a	n/a	n/a	-999	3	[0, 0, 0]	n/a	catFR1	0	R1291M
512.08	1.254	355130	REC_START	n/a	n/a	n/a	n/a	-999	3	[0, 0, 0]	n/a	catFR1	0	R1291M
513.334	0.367	355757	REC_WORD_VV	1.254	n/a	<>	n/a	-999	3	[0, 0, 0]	n/a	catFR1	0	R1291M
513.701	2.402	355941	REC_WORD	1.621	n/a	FOLDER	OfficeSupplies	11	3	[0, 0, 0]	n/a	catFR1	0	R1291M
516.103	0.649	357142	REC_WORD_VV	4.023	n/a	<>	n/a	-999	3	[0, 0, 0]	n/a	catFR1	0	R1291M
516.752	0.68	357466	REC_WORD	4.672	n/a	BULL	FarmAnimals	1	3	[0, 0, 0]	n/a	catFR1	0	R1291M
517.432	2.953	357806	REC_WORD	5.352	n/a	ROOSTER	FarmAnimals	9	3	[0, 0, 0]	n/a	catFR1	0	R1291M
520.385	0.799	359283	REC_WORD_VV	8.305	n/a	<>	n/a	-999	3	[0, 0, 0]	n/a	catFR1	0	R1291M
521.184	1.294	359682	REC_WORD	9.104	n/a	MARIGOLD	Flowers	8	3	[0, 0, 0]	n/a	catFR1	0	R1291M
522.478	4.024	360329	REC_WORD	10.398	n/a	SUNFLOWER	Flowers	7	3	[0, 0, 0]	n/a	catFR1	0	R1291M
526.502	11.384	362341	REC_WORD_VV	14.422	n/a	<>	n/a	-999	3	[0, 0, 0]	n/a	catFR1	0	R1291M
537.886	3.982	368033	REC_WORD_VV	25.806	n/a	<>	n/a	-999	3	[0, 0, 0]	n/a	catFR1	0	R1291M
541.868	0.239	370024	REC_WORD_VV	29.788	n/a	<>	n/a	-999	3	[0, 0, 0]	n/a	catFR1	0	R1291M
542.107	8.93	370143	REC_END	n/a	n/a	n/a	n/a	-999	3	[0, 0, 0]	n/a	catFR1	0	R1291M
551.037	0.0	374608	TRIAL	n/a	n/a	n/a	n/a	-999	4	[0, 0, 0]	n/a	catFR1	0	R1291M
551.037	10.428	374608	COUNTDOWN_START	n/a	n/a	n/a	n/a	-999	4	[0, 0, 0]	n/a	catFR1	0	R1291M
561.465	0.007	379822	COUNTDOWN_END	n/a	n/a	n/a	n/a	-999	4	[0, 0, 0]	n/a	catFR1	0	R1291M
561.472	3.951	379825	ORIENT	n/a	n/a	n/a	n/a	-999	4	[0, 0, 0]	n/a	catFR1	0	R1291M
565.423	2.551	381801	WORD	n/a	wordpools/wordpool_categorized_EN.txt	FLUTE	Instruments	1	4	[0, 0, 0]	n/a	catFR1	0	R1291M
567.974	2.6	383076	WORD	n/a	wordpools/wordpool_categorized_EN.txt	DRUM	Instruments	2	4	[0, 0, 0]	n/a	catFR1	0	R1291M
570.574	2.5	384376	WORD	n/a	wordpools/wordpool_categorized_EN.txt	PUZZLE	Toys	3	4	[0, 0, 0]	n/a	catFR1	0	R1291M
573.074	2.434	385626	WORD	n/a	wordpools/wordpool_categorized_EN.txt	FOOTBALL	Toys	4	4	[0, 0, 0]	n/a	catFR1	0	R1291M
575.508	2.567	386843	WORD	n/a	wordpools/wordpool_categorized_EN.txt	FINGERS	BodyParts	5	4	[0, 0, 0]	n/a	catFR1	0	R1291M
578.075	2.451	388126	WORD	n/a	wordpools/wordpool_categorized_EN.txt	EYE	BodyParts	6	4	[0, 0, 0]	n/a	catFR1	0	R1291M
580.526	2.417	389352	WORD	n/a	wordpools/wordpool_categorized_EN.txt	BARBIE	Toys	7	4	[0, 0, 0]	n/a	catFR1	0	R1291M
582.943	2.451	390560	WORD	n/a	wordpools/wordpool_categorized_EN.txt	BALL	Toys	8	4	[0, 0, 0]	n/a	catFR1	0	R1291M
585.394	2.6	391786	WORD	n/a	wordpools/wordpool_categorized_EN.txt	ORGAN	Instruments	9	4	[0, 0, 0]	n/a	catFR1	0	R1291M
587.994	2.6	393086	WORD	n/a	wordpools/wordpool_categorized_EN.txt	BASS	Instruments	10	4	[0, 0, 0]	n/a	catFR1	0	R1291M
590.594	2.534	394385	WORD	n/a	wordpools/wordpool_categorized_EN.txt	FOOT	BodyParts	11	4	[0, 0, 0]	n/a	catFR1	0	R1291M
593.128	1.616	395652	WORD	n/a	wordpools/wordpool_categorized_EN.txt	NOSE	BodyParts	12	4	[0, 0, 0]	n/a	catFR1	0	R1291M
594.744	0.002	396460	DISTRACT_START	n/a	n/a	n/a	n/a	-999	4	[0, 0, 0]	n/a	catFR1	0	R1291M
594.746	0.015	396461	START	n/a	n/a	n/a	n/a	-999	4	[-999, -999, -999]	n/a	catFR1	0	R1291M
594.761	4.735	396469	PROB	4.704	n/a	n/a	n/a	-999	4	[9, 9, 9]	27.0	catFR1	0	R1291M
599.496	4.001	398836	PROB	3.969	n/a	n/a	n/a	-999	4	[9, 4, 1]	14.0	catFR1	0	R1291M
603.497	5.718	400837	PROB	5.688	n/a	n/a	n/a	-999	4	[2, 4, 2]	8.0	catFR1	0	R1291M
609.215	2.85	403696	PROB	2.826	n/a	n/a	n/a	-999	4	[1, 3, 3]	7.0	catFR1	0	R1291M
612.065	4.272	405120	PROB	4.272	n/a	n/a	n/a	-999	4	[3, 6, 9]	18.0	catFR1	0	R1291M
616.337	0.012	407256	STOP	n/a	n/a	n/a	n/a	-999	4	[-999, -999, -999]	n/a	catFR1	0	R1291M
616.349	1.101	407262	DISTRACT_END	n/a	n/a	n/a	n/a	-999	4	[0, 0, 0]	n/a	catFR1	0	R1291M
617.45	0.823	407813	REC_START	n/a	n/a	n/a	n/a	-999	4	[0, 0, 0]	n/a	catFR1	0	R1291M
618.273	0.869	408224	REC_WORD	0.823	n/a	NOSE	BodyParts	12	4	[0, 0, 0]	n/a	catFR1	0	R1291M
619.142	0.875	408659	REC_WORD	1.692	n/a	EYE	BodyParts	6	4	[0, 0, 0]	n/a	catFR1	0	R1291M
620.017	2.46	409096	REC_WORD	2.567	n/a	FOOTBALL	Toys	4	4	[0, 0, 0]	n/a	catFR1	0	R1291M
622.477	16.159	410326	REC_WORD_VV	5.027	n/a	<>	n/a	-999	4	[0, 0, 0]	n/a	catFR1	0	R1291M
638.636	2.834	418405	REC_WORD_VV	21.186	n/a	<>	n/a	-999	4	[0, 0, 0]	n/a	catFR1	0	R1291M
641.47	0.301	419822	REC_WORD_VV	24.02	n/a	<>	n/a	-999	4	[0, 0, 0]	n/a	catFR1	0	R1291M
641.771	5.695	419973	REC_WORD	24.321	n/a	BALL	Toys	8	4	[0, 0, 0]	n/a	catFR1	0	R1291M
647.466	6.091	422820	REC_END	n/a	n/a	n/a	n/a	-999	4	[0, 0, 0]	n/a	catFR1	0	R1291M
653.557	0.0	425865	TRIAL	n/a	n/a	n/a	n/a	-999	5	[0, 0, 0]	n/a	catFR1	0	R1291M
653.557	10.428	425865	COUNTDOWN_START	n/a	n/a	n/a	n/a	-999	5	[0, 0, 0]	n/a	catFR1	0	R1291M
663.985	0.007	431079	COUNTDOWN_END	n/a	n/a	n/a	n/a	-999	5	[0, 0, 0]	n/a	catFR1	0	R1291M
663.992	3.434	431083	ORIENT	n/a	n/a	n/a	n/a	-999	5	[0, 0, 0]	n/a	catFR1	0	R1291M
667.426	2.584	432800	WORD	n/a	wordpools/wordpool_categorized_EN.txt	GNAT	Insects	1	5	[0, 0, 0]	n/a	catFR1	0	R1291M
670.01	2.583	434091	WORD	n/a	wordpools/wordpool_categorized_EN.txt	ROACH	Insects	2	5	[0, 0, 0]	n/a	catFR1	0	R1291M
672.593	2.534	435383	WORD	n/a	wordpools/wordpool_categorized_EN.txt	SODA	Beverages	3	5	[0, 0, 0]	n/a	catFR1	0	R1291M
675.127	2.517	436650	WORD	n/a	wordpools/wordpool_categorized_EN.txt	LEMONADE	Beverages	4	5	[0, 0, 0]	n/a	catFR1	0	R1291M
677.644	2.484	437908	WORD	n/a	wordpools/wordpool_categorized_EN.txt	SHEEP	FarmAnimals	5	5	[0, 0, 0]	n/a	catFR1	0	R1291M
680.128	2.401	439150	WORD	n/a	wordpools/wordpool_categorized_EN.txt	GOAT	FarmAnimals	6	5	[0, 0, 0]	n/a	catFR1	0	R1291M
682.529	2.534	440351	WORD	n/a	wordpools/wordpool_categorized_EN.txt	MILK	Beverages	7	5	[0, 0, 0]	n/a	catFR1	0	R1291M
685.063	2.532	441618	WORD	n/a	wordpools/wordpool_categorized_EN.txt	COLA	Beverages	8	5	[0, 0, 0]	n/a	catFR1	0	R1291M
687.595	2.535	442884	WORD	n/a	wordpools/wordpool_categorized_EN.txt	MOTH	Insects	9	5	[0, 0, 0]	n/a	catFR1	0	R1291M
690.13	2.6	444151	WORD	n/a	wordpools/wordpool_categorized_EN.txt	FLY	Insects	10	5	[0, 0, 0]	n/a	catFR1	0	R1291M
692.73	2.601	445451	WORD	n/a	wordpools/wordpool_categorized_EN.txt	COW	FarmAnimals	11	5	[0, 0, 0]	n/a	catFR1	0	R1291M
695.331	1.617	446751	WORD	n/a	wordpools/wordpool_categorized_EN.txt	TURKEY	FarmAnimals	12	5	[0, 0, 0]	n/a	catFR1	0	R1291M
696.948	0.001	447560	DISTRACT_START	n/a	n/a	n/a	n/a	-999	5	[0, 0, 0]	n/a	catFR1	0	R1291M
696.949	0.016	447560	START	n/a	n/a	n/a	n/a	-999	5	[-999, -999, -999]	n/a	catFR1	0	R1291M
696.965	6.185	447568	PROB	6.164	n/a	n/a	n/a	-999	5	[2, 9, 1]	12.0	catFR1	0	R1291M
703.15	3.717	450661	PROB	3.682	n/a	n/a	n/a	-999	5	[9, 6, 1]	16.0	catFR1	0	R1291M
706.867	4.234	452519	PROB	4.198	n/a	n/a	n/a	-999	5	[4, 9, 7]	20.0	catFR1	0	R1291M
711.101	3.818	454636	PROB	3.788	n/a	n/a	n/a	-999	5	[9, 9, 2]	20.0	catFR1	0	R1291M
714.919	4.689	456545	PROB	4.689	n/a	n/a	n/a	-999	5	[5, 1, 8]	15.0	catFR1	0	R1291M
719.608	0.01	458889	STOP	n/a	n/a	n/a	n/a	-999	5	[-999, -999, -999]	n/a	catFR1	0	R1291M
719.618	1.135	458894	DISTRACT_END	n/a	n/a	n/a	n/a	-999	5	[0, 0, 0]	n/a	catFR1	0	R1291M
720.753	1.547	459462	REC_START	n/a	n/a	n/a	n/a	-999	5	[0, 0, 0]	n/a	catFR1	0	R1291M
722.3	0.536	460235	REC_WORD	1.547	n/a	GNAT	Insects	1	5	[0, 0, 0]	n/a	catFR1	0	R1291M
722.836	1.202	460503	REC_WORD	2.083	n/a	FLY	Insects	10	5	[0, 0, 0]	n/a	catFR1	0	R1291M
724.038	2.228	461104	REC_WORD	3.285	n/a	ROACH	Insects	2	5	[0, 0, 0]	n/a	catFR1	0	R1291M
726.266	12.077	462218	REC_WORD_VV	5.513	n/a	<>	n/a	-999	5	[0, 0, 0]	n/a	catFR1	0	R1291M
738.343	1.932	468256	REC_WORD	17.59	n/a	COW	FarmAnimals	11	5	[0, 0, 0]	n/a	catFR1	0	R1291M
740.275	2.046	469222	REC_WORD	19.522	n/a	TURKEY	FarmAnimals	12	5	[0, 0, 0]	n/a	catFR1	0	R1291M
742.321	2.58	470245	REC_WORD_VV	21.568	n/a	<>	n/a	-999	5	[0, 0, 0]	n/a	catFR1	0	R1291M
744.901	5.863	471535	REC_WORD_VV	24.148	n/a	<>	n/a	-999	5	[0, 0, 0]	n/a	catFR1	0	R1291M
750.764	8.929	474466	REC_END	n/a	n/a	n/a	n/a	-999	5	[0, 0, 0]	n/a	catFR1	0	R1291M
759.693	0.0	478931	TRIAL	n/a	n/a	n/a	n/a	-999	6	[0, 0, 0]	n/a	catFR1	0	R1291M
759.693	10.428	478931	COUNTDOWN_START	n/a	n/a	n/a	n/a	-999	6	[0, 0, 0]	n/a	catFR1	0	R1291M
770.121	0.008	484144	COUNTDOWN_END	n/a	n/a	n/a	n/a	-999	6	[0, 0, 0]	n/a	catFR1	0	R1291M
770.129	3.451	484148	ORIENT	n/a	n/a	n/a	n/a	-999	6	[0, 0, 0]	n/a	catFR1	0	R1291M
773.58	2.517	485874	WORD	n/a	wordpools/wordpool_categorized_EN.txt	WALL	Building	1	6	[0, 0, 0]	n/a	catFR1	0	R1291M
776.097	2.4	487132	WORD	n/a	wordpools/wordpool_categorized_EN.txt	HALLWAY	Building	2	6	[0, 0, 0]	n/a	catFR1	0	R1291M
778.497	2.518	488332	WORD	n/a	wordpools/wordpool_categorized_EN.txt	SPINACH	Vegetables	3	6	[0, 0, 0]	n/a	catFR1	0	R1291M
781.015	2.616	489591	WORD	n/a	wordpools/wordpool_categorized_EN.txt	CARROT	Vegetables	4	6	[0, 0, 0]	n/a	catFR1	0	R1291M
783.631	2.401	490899	WORD	n/a	wordpools/wordpool_categorized_EN.txt	CAKE	Desserts	5	6	[0, 0, 0]	n/a	catFR1	0	R1291M
786.032	2.583	492100	WORD	n/a	wordpools/wordpool_categorized_EN.txt	FUDGE	Desserts	6	6	[0, 0, 0]	n/a	catFR1	0	R1291M
788.615	2.435	493391	WORD	n/a	wordpools/wordpool_categorized_EN.txt	CELERY	Vegetables	7	6	[0, 0, 0]	n/a	catFR1	0	R1291M
791.05	2.583	494608	WORD	n/a	wordpools/wordpool_categorized_EN.txt	CABBAGE	Vegetables	8	6	[0, 0, 0]	n/a	catFR1	0	R1291M
793.633	2.518	495900	WORD	n/a	wordpools/wordpool_categorized_EN.txt	CEILING	Building	9	6	[0, 0, 0]	n/a	catFR1	0	R1291M
796.151	2.499	497159	WORD	n/a	wordpools/wordpool_categorized_EN.txt	ROOM	Building	10	6	[0, 0, 0]	n/a	catFR1	0	R1291M
798.65	2.385	498408	WORD	n/a	wordpools/wordpool_categorized_EN.txt	COBBLER	Desserts	11	6	[0, 0, 0]	n/a	catFR1	0	R1291M
801.035	1.616	499601	WORD	n/a	wordpools/wordpool_categorized_EN.txt	MOUSSE	Desserts	12	6	[0, 0, 0]	n/a	catFR1	0	R1291M
802.651	0.001	500409	DISTRACT_START	n/a	n/a	n/a	n/a	-999	6	[0, 0, 0]	n/a	catFR1	0	R1291M
802.652	0.016	500409	START	n/a	n/a	n/a	n/a	-999	6	[-999, -999, -999]	n/a	catFR1	0	R1291M
802.668	3.984	500417	PROB	3.948	n/a	n/a	n/a	-999	6	[8, 3, 2]	13.0	catFR1	0	R1291M
806.652	4.368	502409	PROB	4.341	n/a	n/a	n/a	-999	6	[4, 9, 5]	18.0	catFR1	0	R1291M
811.02	4.484	504593	PROB	4.461	n/a	n/a	n/a	-999	6	[8, 5, 4]	17.0	catFR1	0	R1291M
815.504	4.718	506835	PROB	4.681	n/a	n/a	n/a	-999	6	[4, 4, 5]	13.0	catFR1	0	R1291M
820.222	4.707	509194	PROB	4.707	n/a	n/a	n/a	-999	6	[8, 3, 3]	14.0	catFR1	0	R1291M
824.929	0.011	511547	STOP	n/a	n/a	n/a	n/a	-999	6	[-999, -999, -999]	n/a	catFR1	0	R1291M
824.94	1.091	511553	DISTRACT_END	n/a	n/a	n/a	n/a	-999	6	[0, 0, 0]	n/a	catFR1	0	R1291M
826.031	0.931	512098	REC_START	n/a	n/a	n/a	n/a	-999	6	[0, 0, 0]	n/a	catFR1	0	R1291M
826.962	1.446	512564	REC_WORD	0.931	n/a	WALL	Building	1	6	[0, 0, 0]	n/a	catFR1	0	R1291M
828.408	1.579	513287	REC_WORD	2.377	n/a	HALLWAY	Building	2	6	[0, 0, 0]	n/a	catFR1	0	R1291M
829.987	1.785	514076	REC_WORD	3.956	n/a	CEILING	Building	9	6	[0, 0, 0]	n/a	catFR1	0	R1291M
831.772	2.55	514968	REC_WORD	5.741	n/a	CUCUMBER	n/a	-999	6	[0, 0, 0]	n/a	catFR1	0	R1291M
834.322	0.982	516243	REC_WORD_VV	8.291	n/a	<>	n/a	-999	6	[0, 0, 0]	n/a	catFR1	0	R1291M
835.304	3.045	516734	REC_WORD	9.273	n/a	SALAD	n/a	-999	6	[0, 0, 0]	n/a	catFR1	0	R1291M
838.349	4.643	518257	REC_WORD	12.318	n/a	MOUSSE	Desserts	12	6	[0, 0, 0]	n/a	catFR1	0	R1291M
842.992	7.089	520578	REC_WORD_VV	16.961	n/a	<>	n/a	-999	6	[0, 0, 0]	n/a	catFR1	0	R1291M
850.081	5.953	524122	REC_WORD	24.05	n/a	CELERY	Vegetables	7	6	[0, 0, 0]	n/a	catFR1	0	R1291M
856.034	14.864	527099	REC_END	n/a	n/a	n/a	n/a	-999	6	[0, 0, 0]	n/a	catFR1	0	R1291M
870.898	0.001	534530	COUNTDOWN_START	n/a	n/a	n/a	n/a	-999	7	[0, 0, 0]	n/a	catFR1	0	R1291M
870.899	10.427	534531	TRIAL	n/a	n/a	n/a	n/a	-999	7	[0, 0, 0]	n/a	catFR1	0	R1291M
881.326	0.008	539744	COUNTDOWN_END	n/a	n/a	n/a	n/a	-999	7	[0, 0, 0]	n/a	catFR1	0	R1291M
881.334	3.867	539748	ORIENT	n/a	n/a	n/a	n/a	-999	7	[0, 0, 0]	n/a	catFR1	0	R1291M
885.201	2.483	541682	WORD	n/a	wordpools/wordpool_categorized_EN.txt	WATER	Beverages	1	7	[0, 0, 0]	n/a	catFR1	0	R1291M
887.684	2.418	542923	WORD	n/a	wordpools/wordpool_categorized_EN.txt	RUM	Beverages	2	7	[0, 0, 0]	n/a	catFR1	0	R1291M
890.102	2.451	544132	WORD	n/a	wordpools/wordpool_categorized_EN.txt	SHOES	Clothing	3	7	[0, 0, 0]	n/a	catFR1	0	R1291M
892.553	2.633	545357	WORD	n/a	wordpools/wordpool_categorized_EN.txt	JACKET	Clothing	4	7	[0, 0, 0]	n/a	catFR1	0	R1291M
895.186	2.433	546674	WORD	n/a	wordpools/wordpool_categorized_EN.txt	CARDINAL	Birds	5	7	[0, 0, 0]	n/a	catFR1	0	R1291M
897.619	2.418	547890	WORD	n/a	wordpools/wordpool_categorized_EN.txt	HAWK	Birds	6	7	[0, 0, 0]	n/a	catFR1	0	R1291M
900.037	2.467	549099	WORD	n/a	wordpools/wordpool_categorized_EN.txt	WINE	Beverages	7	7	[0, 0, 0]	n/a	catFR1	0	R1291M
902.504	2.501	550333	WORD	n/a	wordpools/wordpool_categorized_EN.txt	JUICE	Beverages	8	7	[0, 0, 0]	n/a	catFR1	0	R1291M
905.005	2.517	551583	WORD	n/a	wordpools/wordpool_categorized_EN.txt	CROW	Birds	9	7	[0, 0, 0]	n/a	catFR1	0	R1291M
907.522	2.417	552842	WORD	n/a	wordpools/wordpool_categorized_EN.txt	DUCK	Birds	10	7	[0, 0, 0]	n/a	catFR1	0	R1291M
909.939	2.417	554050	WORD	n/a	wordpools/wordpool_categorized_EN.txt	JEANS	Clothing	11	7	[0, 0, 0]	n/a	catFR1	0	R1291M
912.356	1.601	555258	WORD	n/a	wordpools/wordpool_categorized_EN.txt	DRESS	Clothing	12	7	[0, 0, 0]	n/a	catFR1	0	R1291M
913.957	0.0	556059	DISTRACT_START	n/a	n/a	n/a	n/a	-999	7	[0, 0, 0]	n/a	catFR1	0	R1291M
913.957	0.016	556059	START	n/a	n/a	n/a	n/a	-999	7	[-999, -999, -999]	n/a	catFR1	0	R1291M
913.973	4.268	556067	PROB	4.236	n/a	n/a	n/a	-999	7	[6, 5, 1]	12.0	catFR1	0	R1291M
918.241	4.45	558201	PROB	4.423	n/a	n/a	n/a	-999	7	[6, 3, 1]	10.0	catFR1	0	R1291M
922.691	3.351	560426	PROB	3.318	n/a	n/a	n/a	-999	7	[3, 7, 7]	17.0	catFR1	0	R1291M
926.042	4.65	562101	PROB	4.614	n/a	n/a	n/a	-999	7	[2, 5, 6]	13.0	catFR1	0	R1291M
930.692	2.984	564426	PROB	2.956	n/a	n/a	n/a	-999	7	[1, 7, 1]	9.0	catFR1	0	R1291M
933.676	2.972	565918	PROB	2.972	n/a	n/a	n/a	-999	7	[9, 9, 3]	21.0	catFR1	0	R1291M
936.648	0.012	567404	STOP	n/a	n/a	n/a	n/a	-999	7	[-999, -999, -999]	n/a	catFR1	0	R1291M
936.66	1.074	567410	DISTRACT_END	n/a	n/a	n/a	n/a	-999	7	[0, 0, 0]	n/a	catFR1	0	R1291M
937.734	1.29	567947	REC_START	n/a	n/a	n/a	n/a	-999	7	[0, 0, 0]	n/a	catFR1	0	R1291M
939.024	1.535	568592	REC_WORD	1.29	n/a	SHOES	Clothing	3	7	[0, 0, 0]	n/a	catFR1	0	R1291M
940.559	0.87	569359	REC_WORD_VV	2.825	n/a	<>	n/a	-999	7	[0, 0, 0]	n/a	catFR1	0	R1291M
941.429	1.562	569794	REC_WORD	3.695	n/a	JEANS	Clothing	11	7	[0, 0, 0]	n/a	catFR1	0	R1291M
942.991	2.07	570575	REC_WORD	5.257	n/a	JACKET	Clothing	4	7	[0, 0, 0]	n/a	catFR1	0	R1291M
945.061	8.068	571610	REC_WORD_VV	7.327	n/a	<>	n/a	-999	7	[0, 0, 0]	n/a	catFR1	0	R1291M
953.129	4.952	575644	REC_WORD_VV	15.395	n/a	<>	n/a	-999	7	[0, 0, 0]	n/a	catFR1	0	R1291M
958.081	1.897	578120	REC_WORD	20.347	n/a	CARDINAL	Birds	5	7	[0, 0, 0]	n/a	catFR1	0	R1291M
959.978	0.499	579068	REC_WORD	22.244	n/a	RUM	Beverages	2	7	[0, 0, 0]	n/a	catFR1	0	R1291M
960.477	7.263	579318	REC_WORD	22.743	n/a	WATER	Beverages	1	7	[0, 0, 0]	n/a	catFR1	0	R1291M
967.74	7.679	582949	REC_END	n/a	n/a	n/a	n/a	-999	7	[0, 0, 0]	n/a	catFR1	0	R1291M
975.419	0.0	586788	TRIAL	n/a	n/a	n/a	n/a	-999	8	[0, 0, 0]	n/a	catFR1	0	R1291M
975.419	10.428	586788	COUNTDOWN_START	n/a	n/a	n/a	n/a	-999	8	[0, 0, 0]	n/a	catFR1	0	R1291M
985.847	0.007	592002	COUNTDOWN_END	n/a	n/a	n/a	n/a	-999	8	[0, 0, 0]	n/a	catFR1	0	R1291M
985.854	3.567	592006	ORIENT	n/a	n/a	n/a	n/a	-999	8	[0, 0, 0]	n/a	catFR1	0	R1291M
989.421	2.517	593789	WORD	n/a	wordpools/wordpool_categorized_EN.txt	TRAIN	Vehicles	1	8	[0, 0, 0]	n/a	catFR1	0	R1291M
991.938	2.601	595047	WORD	n/a	wordpools/wordpool_categorized_EN.txt	VAN	Vehicles	2	8	[0, 0, 0]	n/a	catFR1	0	R1291M
994.539	2.584	596348	WORD	n/a	wordpools/wordpool_categorized_EN.txt	PEELER	KitchenTools	3	8	[0, 0, 0]	n/a	catFR1	0	R1291M
997.123	2.549	597640	WORD	n/a	wordpools/wordpool_categorized_EN.txt	CORKSCREW	KitchenTools	4	8	[0, 0, 0]	n/a	catFR1	0	R1291M
999.672	2.485	598914	WORD	n/a	wordpools/wordpool_categorized_EN.txt	GIRAFFE	Zoo	5	8	[0, 0, 0]	n/a	catFR1	0	R1291M
1002.157	2.5	600157	WORD	n/a	wordpools/wordpool_categorized_EN.txt	GORILLA	Zoo	6	8	[0, 0, 0]	n/a	catFR1	0	R1291M
1004.657	2.518	601407	WORD	n/a	wordpools/wordpool_categorized_EN.txt	GRATER	KitchenTools	7	8	[0, 0, 0]	n/a	catFR1	0	R1291M
1007.175	2.516	602666	WORD	n/a	wordpools/wordpool_categorized_EN.txt	SPOON	KitchenTools	8	8	[0, 0, 0]	n/a	catFR1	0	R1291M
1009.691	2.451	603924	WORD	n/a	wordpools/wordpool_categorized_EN.txt	TRUCK	Vehicles	9	8	[0, 0, 0]	n/a	catFR1	0	R1291M
1012.142	2.533	605149	WORD	n/a	wordpools/wordpool_categorized_EN.txt	SCOOTER	Vehicles	10	8	[0, 0, 0]	n/a	catFR1	0	R1291M
1014.675	2.368	606415	WORD	n/a	wordpools/wordpool_categorized_EN.txt	LION	Zoo	11	8	[0, 0, 0]	n/a	catFR1	0	R1291M
1017.043	1.616	607599	WORD	n/a	wordpools/wordpool_categorized_EN.txt	CHIMPANZEE	Zoo	12	8	[0, 0, 0]	n/a	catFR1	0	R1291M
1018.659	0.001	608407	DISTRACT_START	n/a	n/a	n/a	n/a	-999	8	[0, 0, 0]	n/a	catFR1	0	R1291M
1018.66	0.016	608408	START	n/a	n/a	n/a	n/a	-999	8	[-999, -999, -999]	n/a	catFR1	0	R1291M
1018.676	7.085	608416	PROB	7.052	n/a	n/a	n/a	-999	8	[9, 8, 7]	24.0	catFR1	0	R1291M
1025.761	3.601	611958	PROB	3.568	n/a	n/a	n/a	-999	8	[6, 9, 9]	24.0	catFR1	0	R1291M
1029.362	4.568	613759	PROB	4.543	n/a	n/a	n/a	-999	8	[4, 2, 9]	15.0	catFR1	0	R1291M
1033.93	3.584	616042	PROB	3.559	n/a	n/a	n/a	-999	8	[6, 8, 8]	22.0	catFR1	0	R1291M
1037.514	2.599	617834	PROB	2.599	n/a	n/a	n/a	-999	8	[3, 1, 4]	8.0	catFR1	0	R1291M
1040.113	0.018	619134	STOP	n/a	n/a	n/a	n/a	-999	8	[-999, -999, -999]	n/a	catFR1	0	R1291M
1040.131	1.151	619143	DISTRACT_END	n/a	n/a	n/a	n/a	-999	8	[0, 0, 0]	n/a	catFR1	0	R1291M
1041.282	0.557	619718	REC_START	n/a	n/a	n/a	n/a	-999	8	[0, 0, 0]	n/a	catFR1	0	R1291M
1041.839	1.153	619997	REC_WORD	0.557	n/a	SCOOTER	Vehicles	10	8	[0, 0, 0]	n/a	catFR1	0	R1291M
1042.992	1.006	620573	REC_WORD	1.71	n/a	VAN	Vehicles	2	8	[0, 0, 0]	n/a	catFR1	0	R1291M
1043.998	2.895	621076	REC_WORD	2.716	n/a	TRAIN	Vehicles	1	8	[0, 0, 0]	n/a	catFR1	0	R1291M
1046.893	7.175	622524	REC_WORD_VV	5.611	n/a	<>	n/a	-999	8	[0, 0, 0]	n/a	catFR1	0	R1291M
1054.068	5.698	626111	REC_WORD	12.786	n/a	CHIMPANZEE	Zoo	12	8	[0, 0, 0]	n/a	catFR1	0	R1291M
1059.766	11.529	628960	REC_WORD	18.484	n/a	GIRAFFE	Zoo	5	8	[0, 0, 0]	n/a	catFR1	0	R1291M
1071.295	6.777	634724	REC_END	n/a	n/a	n/a	n/a	-999	8	[0, 0, 0]	n/a	catFR1	0	R1291M
1078.072	0.0	638112	COUNTDOWN_START	n/a	n/a	n/a	n/a	-999	9	[0, 0, 0]	n/a	catFR1	0	R1291M
1078.072	10.428	638112	TRIAL	n/a	n/a	n/a	n/a	-999	9	[0, 0, 0]	n/a	catFR1	0	R1291M
1088.5	0.007	643326	COUNTDOWN_END	n/a	n/a	n/a	n/a	-999	9	[0, 0, 0]	n/a	catFR1	0	R1291M
1088.507	3.934	643330	ORIENT	n/a	n/a	n/a	n/a	-999	9	[0, 0, 0]	n/a	catFR1	0	R1291M
1092.441	2.601	645296	WORD	n/a	wordpools/wordpool_categorized_EN.txt	TABLET	Electronics	1	9	[0, 0, 0]	n/a	catFR1	0	R1291M
1095.042	2.534	646597	WORD	n/a	wordpools/wordpool_categorized_EN.txt	RADIO	Electronics	2	9	[0, 0, 0]	n/a	catFR1	0	R1291M
1097.576	2.433	647864	WORD	n/a	wordpools/wordpool_categorized_EN.txt	IRON	Appliances	3	9	[0, 0, 0]	n/a	catFR1	0	R1291M
1100.009	2.484	649080	WORD	n/a	wordpools/wordpool_categorized_EN.txt	OVEN	Appliances	4	9	[0, 0, 0]	n/a	catFR1	0	R1291M
1102.493	2.417	650322	WORD	n/a	wordpools/wordpool_categorized_EN.txt	GRAPE	Fruit	5	9	[0, 0, 0]	n/a	catFR1	0	R1291M
1104.91	2.617	651531	WORD	n/a	wordpools/wordpool_categorized_EN.txt	LIME	Fruit	6	9	[0, 0, 0]	n/a	catFR1	0	R1291M
1107.527	2.601	652839	WORD	n/a	wordpools/wordpool_categorized_EN.txt	BLENDER	Appliances	7	9	[0, 0, 0]	n/a	catFR1	0	R1291M
1110.128	2.434	654139	WORD	n/a	wordpools/wordpool_categorized_EN.txt	WASHER	Appliances	8	9	[0, 0, 0]	n/a	catFR1	0	R1291M
1112.562	2.5	655356	WORD	n/a	wordpools/wordpool_categorized_EN.txt	SPEAKER	Electronics	9	9	[0, 0, 0]	n/a	catFR1	0	R1291M
1115.062	2.484	656606	WORD	n/a	wordpools/wordpool_categorized_EN.txt	TELEVISION	Electronics	10	9	[0, 0, 0]	n/a	catFR1	0	R1291M
1117.546	2.484	657848	WORD	n/a	wordpools/wordpool_categorized_EN.txt	CHERRY	Fruit	11	9	[0, 0, 0]	n/a	catFR1	0	R1291M
1120.03	1.616	659090	WORD	n/a	wordpools/wordpool_categorized_EN.txt	PLUM	Fruit	12	9	[0, 0, 0]	n/a	catFR1	0	R1291M
1121.646	0.001	659898	DISTRACT_START	n/a	n/a	n/a	n/a	-999	9	[0, 0, 0]	n/a	catFR1	0	R1291M
1121.647	0.015	659899	START	n/a	n/a	n/a	n/a	-999	9	[-999, -999, -999]	n/a	catFR1	0	R1291M
1121.662	5.018	659906	PROB	4.994	n/a	n/a	n/a	-999	9	[8, 6, 7]	21.0	catFR1	0	R1291M
1126.68	3.951	662415	PROB	3.928	n/a	n/a	n/a	-999	9	[3, 3, 6]	12.0	catFR1	0	R1291M
1130.631	4.285	664390	PROB	4.25	n/a	n/a	n/a	-999	9	[6, 9, 2]	17.0	catFR1	0	R1291M
1134.916	4.001	666533	PROB	3.965	n/a	n/a	n/a	-999	9	[9, 5, 6]	20.0	catFR1	0	R1291M
1138.917	4.148	668533	PROB	4.148	n/a	n/a	n/a	-999	9	[9, 6, 6]	21.0	catFR1	0	R1291M
1143.065	0.019	670607	STOP	n/a	n/a	n/a	n/a	-999	9	[-999, -999, -999]	n/a	catFR1	0	R1291M
1143.084	1.168	670617	DISTRACT_END	n/a	n/a	n/a	n/a	-999	9	[0, 0, 0]	n/a	catFR1	0	R1291M
1144.252	1.031	671201	REC_START	n/a	n/a	n/a	n/a	-999	9	[0, 0, 0]	n/a	catFR1	0	R1291M
1145.283	0.832	671716	REC_WORD	1.031	n/a	RADIO	Electronics	2	9	[0, 0, 0]	n/a	catFR1	0	R1291M
1146.115	0.715	672132	REC_WORD	1.863	n/a	TELEVISION	Electronics	10	9	[0, 0, 0]	n/a	catFR1	0	R1291M
1146.83	1.387	672490	REC_WORD	2.578	n/a	SPEAKER	Electronics	9	9	[0, 0, 0]	n/a	catFR1	0	R1291M
1148.217	8.394	673183	REC_WORD	3.965	n/a	IRON	Appliances	3	9	[0, 0, 0]	n/a	catFR1	0	R1291M
1156.611	17.652	677380	REC_WORD	12.359	n/a	PLUM	Fruit	12	9	[0, 0, 0]	n/a	catFR1	0	R1291M
1174.263	8.328	686205	REC_END	n/a	n/a	n/a	n/a	-999	9	[0, 0, 0]	n/a	catFR1	0	R1291M
1182.591	0.0	690369	TRIAL	n/a	n/a	n/a	n/a	-999	10	[0, 0, 0]	n/a	catFR1	0	R1291M
1182.591	10.428	690369	COUNTDOWN_START	n/a	n/a	n/a	n/a	-999	10	[0, 0, 0]	n/a	catFR1	0	R1291M
1193.019	0.008	695583	COUNTDOWN_END	n/a	n/a	n/a	n/a	-999	10	[0, 0, 0]	n/a	catFR1	0	R1291M
1193.027	3.968	695587	ORIENT	n/a	n/a	n/a	n/a	-999	10	[0, 0, 0]	n/a	catFR1	0	R1291M
1196.995	2.583	697571	WORD	n/a	wordpools/wordpool_categorized_EN.txt	RAIN	Weather	1	10	[0, 0, 0]	n/a	catFR1	0	R1291M
1199.578	2.434	698862	WORD	n/a	wordpools/wordpool_categorized_EN.txt	WIND	Weather	2	10	[0, 0, 0]	n/a	catFR1	0	R1291M
1202.012	2.567	700079	WORD	n/a	wordpools/wordpool_categorized_EN.txt	PEAR	Fruit	3	10	[0, 0, 0]	n/a	catFR1	0	R1291M
1204.579	2.584	701363	WORD	n/a	wordpools/wordpool_categorized_EN.txt	PEACH	Fruit	4	10	[0, 0, 0]	n/a	catFR1	0	R1291M
1207.163	2.6	702655	WORD	n/a	wordpools/wordpool_categorized_EN.txt	BATHROOM	Building	5	10	[0, 0, 0]	n/a	catFR1	0	R1291M
1209.763	2.501	703955	WORD	n/a	wordpools/wordpool_categorized_EN.txt	STAIRS	Building	6	10	[0, 0, 0]	n/a	catFR1	0	R1291M
1212.264	2.5	705205	WORD	n/a	wordpools/wordpool_categorized_EN.txt	STRAWBERRY	Fruit	7	10	[0, 0, 0]	n/a	catFR1	0	R1291M
1214.764	2.585	706455	WORD	n/a	wordpools/wordpool_categorized_EN.txt	BANANA	Fruit	8	10	[0, 0, 0]	n/a	catFR1	0	R1291M
1217.349	2.6	707747	WORD	n/a	wordpools/wordpool_categorized_EN.txt	THUNDERSTORM	Weather	9	10	[0, 0, 0]	n/a	catFR1	0	R1291M
1219.949	2.451	709047	WORD	n/a	wordpools/wordpool_categorized_EN.txt	LIGHTNING	Weather	10	10	[0, 0, 0]	n/a	catFR1	0	R1291M
1222.4	2.432	710273	WORD	n/a	wordpools/wordpool_categorized_EN.txt	ROOF	Building	11	10	[0, 0, 0]	n/a	catFR1	0	R1291M
1224.832	1.602	711489	WORD	n/a	wordpools/wordpool_categorized_EN.txt	WINDOW	Building	12	10	[0, 0, 0]	n/a	catFR1	0	R1291M
1226.434	0.001	712290	DISTRACT_START	n/a	n/a	n/a	n/a	-999	10	[0, 0, 0]	n/a	catFR1	0	R1291M
1226.435	0.015	712290	START	n/a	n/a	n/a	n/a	-999	10	[-999, -999, -999]	n/a	catFR1	0	R1291M
1226.45	4.651	712298	PROB	4.615	n/a	n/a	n/a	-999	10	[3, 6, 5]	14.0	catFR1	0	R1291M
1231.101	3.818	714623	PROB	3.788	n/a	n/a	n/a	-999	10	[6, 5, 4]	15.0	catFR1	0	R1291M
1234.919	3.517	716532	PROB	3.482	n/a	n/a	n/a	-999	10	[1, 5, 3]	9.0	catFR1	0	R1291M
1238.436	3.551	718290	PROB	3.525	n/a	n/a	n/a	-999	10	[5, 6, 5]	16.0	catFR1	0	R1291M
1241.987	3.649	720066	PROB	3.613	n/a	n/a	n/a	-999	10	[7, 1, 2]	10.0	catFR1	0	R1291M
1245.636	3.813	721890	PROB	3.813	n/a	n/a	n/a	-999	10	[4, 6, 5]	15.0	catFR1	0	R1291M
1249.449	0.005	723797	STOP	n/a	n/a	n/a	n/a	-999	10	[-999, -999, -999]	n/a	catFR1	0	R1291M
1249.454	1.068	723799	DISTRACT_END	n/a	n/a	n/a	n/a	-999	10	[0, 0, 0]	n/a	catFR1	0	R1291M
1250.522	1.473	724333	REC_START	n/a	n/a	n/a	n/a	-999	10	[0, 0, 0]	n/a	catFR1	0	R1291M
1251.995	0.687	725069	REC_WORD_VV	1.473	n/a	<>	n/a	-999	10	[0, 0, 0]	n/a	catFR1	0	R1291M
1252.682	0.71	725413	REC_WORD	2.16	n/a	RAIN	Weather	1	10	[0, 0, 0]	n/a	catFR1	0	R1291M
1253.392	2.023	725768	REC_WORD	2.87	n/a	WIND	Weather	2	10	[0, 0, 0]	n/a	catFR1	0	R1291M
1255.415	0.355	726779	REC_WORD_VV	4.893	n/a	<>	n/a	-999	10	[0, 0, 0]	n/a	catFR1	0	R1291M
1255.77	1.434	726957	REC_WORD	5.248	n/a	WINDOW	Building	12	10	[0, 0, 0]	n/a	catFR1	0	R1291M
1257.204	1.303	727674	REC_WORD	6.682	n/a	ROOF	Building	11	10	[0, 0, 0]	n/a	catFR1	0	R1291M
1258.507	1.977	728325	REC_WORD	7.985	n/a	THUNDERSTORM	Weather	9	10	[0, 0, 0]	n/a	catFR1	0	R1291M
1260.484	0.618	729314	REC_WORD	9.962	n/a	BANANA	Fruit	8	10	[0, 0, 0]	n/a	catFR1	0	R1291M
1261.102	2.598	729623	REC_WORD	10.58	n/a	STRAWBERRY	Fruit	7	10	[0, 0, 0]	n/a	catFR1	0	R1291M
1263.7	7.061	730922	REC_WORD_VV	13.178	n/a	<>	n/a	-999	10	[0, 0, 0]	n/a	catFR1	0	R1291M
1270.761	7.554	734452	REC_WORD_VV	20.239	n/a	<>	n/a	-999	10	[0, 0, 0]	n/a	catFR1	0	R1291M
1278.315	1.203	738229	REC_WORD	27.793	n/a	PEACH	Fruit	4	10	[0, 0, 0]	n/a	catFR1	0	R1291M
1279.518	1.02	738830	REC_WORD_VV	28.996	n/a	<>	n/a	-999	10	[0, 0, 0]	n/a	catFR1	0	R1291M
1280.538	10.09	739340	REC_END	n/a	n/a	n/a	n/a	-999	10	[0, 0, 0]	n/a	catFR1	0	R1291M
1290.628	0.001	744385	COUNTDOWN_START	n/a	n/a	n/a	n/a	-999	11	[0, 0, 0]	n/a	catFR1	0	R1291M
1290.629	10.427	744385	TRIAL	n/a	n/a	n/a	n/a	-999	11	[0, 0, 0]	n/a	catFR1	0	R1291M
1301.056	0.009	749599	COUNTDOWN_END	n/a	n/a	n/a	n/a	-999	11	[0, 0, 0]	n/a	catFR1	0	R1291M
1301.065	3.484	749603	ORIENT	n/a	n/a	n/a	n/a	-999	11	[0, 0, 0]	n/a	catFR1	0	R1291M
1304.549	2.617	751345	WORD	n/a	wordpools/wordpool_categorized_EN.txt	TROMBONE	Instruments	1	11	[0, 0, 0]	n/a	catFR1	0	R1291M
1307.166	2.499	752654	WORD	n/a	wordpools/wordpool_categorized_EN.txt	PIANO	Instruments	2	11	[0, 0, 0]	n/a	catFR1	0	R1291M
1309.665	2.385	753903	WORD	n/a	wordpools/wordpool_categorized_EN.txt	BLUEBIRD	Birds	3	11	[0, 0, 0]	n/a	catFR1	0	R1291M
1312.05	2.451	755095	WORD	n/a	wordpools/wordpool_categorized_EN.txt	SPARROW	Birds	4	11	[0, 0, 0]	n/a	catFR1	0	R1291M
1314.501	2.383	756321	WORD	n/a	wordpools/wordpool_categorized_EN.txt	ERASER	OfficeSupplies	5	11	[0, 0, 0]	n/a	catFR1	0	R1291M
1316.884	2.618	757512	WORD	n/a	wordpools/wordpool_categorized_EN.txt	TAPE	OfficeSupplies	6	11	[0, 0, 0]	n/a	catFR1	0	R1291M
1319.502	2.617	758821	WORD	n/a	wordpools/wordpool_categorized_EN.txt	BANJO	Instruments	7	11	[0, 0, 0]	n/a	catFR1	0	R1291M
1322.119	2.616	760130	WORD	n/a	wordpools/wordpool_categorized_EN.txt	CELLO	Instruments	8	11	[0, 0, 0]	n/a	catFR1	0	R1291M
1324.735	2.485	761438	WORD	n/a	wordpools/wordpool_categorized_EN.txt	PAPER	OfficeSupplies	9	11	[0, 0, 0]	n/a	catFR1	0	R1291M
1327.22	2.566	762680	WORD	n/a	wordpools/wordpool_categorized_EN.txt	RULER	OfficeSupplies	10	11	[0, 0, 0]	n/a	catFR1	0	R1291M
1329.786	2.518	763963	WORD	n/a	wordpools/wordpool_categorized_EN.txt	DOVE	Birds	11	11	[0, 0, 0]	n/a	catFR1	0	R1291M
1332.304	1.617	765222	WORD	n/a	wordpools/wordpool_categorized_EN.txt	ROBIN	Birds	12	11	[0, 0, 0]	n/a	catFR1	0	R1291M
1333.921	0.001	766030	DISTRACT_START	n/a	n/a	n/a	n/a	-999	11	[0, 0, 0]	n/a	catFR1	0	R1291M
1333.922	0.016	766031	START	n/a	n/a	n/a	n/a	-999	11	[-999, -999, -999]	n/a	catFR1	0	R1291M
1333.938	4.417	766039	PROB	4.391	n/a	n/a	n/a	-999	11	[4, 6, 2]	12.0	catFR1	0	R1291M
1338.355	3.267	768247	PROB	3.237	n/a	n/a	n/a	-999	11	[7, 5, 1]	13.0	catFR1	0	R1291M
1341.622	3.651	769881	PROB	3.627	n/a	n/a	n/a	-999	11	[4, 1, 5]	10.0	catFR1	0	R1291M
1345.273	4.701	771706	PROB	4.672	n/a	n/a	n/a	-999	11	[8, 6, 1]	15.0	catFR1	0	R1291M
1349.974	5.315	774056	PROB	5.315	n/a	n/a	n/a	-999	11	[3, 9, 7]	19.0	catFR1	0	R1291M
1355.289	0.019	776714	STOP	n/a	n/a	n/a	n/a	-999	11	[-999, -999, -999]	n/a	catFR1	0	R1291M
1355.308	1.086	776723	DISTRACT_END	n/a	n/a	n/a	n/a	-999	11	[0, 0, 0]	n/a	catFR1	0	R1291M
1356.394	1.763	777266	REC_START	n/a	n/a	n/a	n/a	-999	11	[0, 0, 0]	n/a	catFR1	0	R1291M
1358.157	1.074	778148	REC_WORD	1.763	n/a	TROMBONE	Instruments	1	11	[0, 0, 0]	n/a	catFR1	0	R1291M
1359.231	0.934	778685	REC_WORD	2.837	n/a	CELLO	Instruments	8	11	[0, 0, 0]	n/a	catFR1	0	R1291M
1360.165	2.017	779152	REC_WORD	3.771	n/a	RULER	OfficeSupplies	10	11	[0, 0, 0]	n/a	catFR1	0	R1291M
1362.182	0.484	780160	REC_WORD_VV	5.788	n/a	<>	n/a	-999	11	[0, 0, 0]	n/a	catFR1	0	R1291M
1362.666	3.431	780402	REC_WORD	6.272	n/a	ERASER	OfficeSupplies	5	11	[0, 0, 0]	n/a	catFR1	0	R1291M
1366.097	0.574	782118	REC_WORD_VV	9.703	n/a	<>	n/a	-999	11	[0, 0, 0]	n/a	catFR1	0	R1291M
1366.671	2.175	782405	REC_WORD	10.277	n/a	ROBIN	Birds	12	11	[0, 0, 0]	n/a	catFR1	0	R1291M
1368.846	3.843	783492	REC_WORD	12.452	n/a	SPARROW	Birds	4	11	[0, 0, 0]	n/a	catFR1	0	R1291M
1372.689	7.678	785413	REC_WORD	16.295	n/a	CARDINAL	n/a	-999	11	[0, 0, 0]	n/a	catFR1	0	R1291M
1380.367	0.715	789252	REC_WORD_VV	23.973	n/a	<>	n/a	-999	11	[0, 0, 0]	n/a	catFR1	0	R1291M
1381.082	2.682	789610	REC_WORD	24.688	n/a	FLUTE	n/a	-999	11	[0, 0, 0]	n/a	catFR1	0	R1291M
1383.764	2.64	790951	REC_WORD_VV	27.37	n/a	<>	n/a	-999	11	[0, 0, 0]	n/a	catFR1	0	R1291M
1386.404	14.379	792271	REC_END	n/a	n/a	n/a	n/a	-999	11	[0, 0, 0]	n/a	catFR1	0	R1291M
1400.783	0.0	799460	TRIAL	n/a	n/a	n/a	n/a	-999	12	[0, 0, 0]	n/a	catFR1	0	R1291M
1400.783	10.428	799460	COUNTDOWN_START	n/a	n/a	n/a	n/a	-999	12	[0, 0, 0]	n/a	catFR1	0	R1291M
1411.211	0.008	804673	COUNTDOWN_END	n/a	n/a	n/a	n/a	-999	12	[0, 0, 0]	n/a	catFR1	0	R1291M
1411.219	3.701	804677	ORIENT	n/a	n/a	n/a	n/a	-999	12	[0, 0, 0]	n/a	catFR1	0	R1291M
1414.92	2.4	806528	WORD	n/a	wordpools/wordpool_categorized_EN.txt	DOLPHIN	OceanAnimals	1	12	[0, 0, 0]	n/a	catFR1	0	R1291M
1417.32	2.45	807728	WORD	n/a	wordpools/wordpool_categorized_EN.txt	PLANKTON	OceanAnimals	2	12	[0, 0, 0]	n/a	catFR1	0	R1291M
1419.77	2.518	808953	WORD	n/a	wordpools/wordpool_categorized_EN.txt	SPIDER	Insects	3	12	[0, 0, 0]	n/a	catFR1	0	R1291M
1422.288	2.55	810212	WORD	n/a	wordpools/wordpool_categorized_EN.txt	ANT	Insects	4	12	[0, 0, 0]	n/a	catFR1	0	R1291M
1424.838	2.384	811487	WORD	n/a	wordpools/wordpool_categorized_EN.txt	FREEZER	Appliances	5	12	[0, 0, 0]	n/a	catFR1	0	R1291M
1427.222	2.483	812679	WORD	n/a	wordpools/wordpool_categorized_EN.txt	MIXER	Appliances	6	12	[0, 0, 0]	n/a	catFR1	0	R1291M
1429.705	2.485	813920	WORD	n/a	wordpools/wordpool_categorized_EN.txt	SQUID	OceanAnimals	7	12	[0, 0, 0]	n/a	catFR1	0	R1291M
1432.19	2.5	815162	WORD	n/a	wordpools/wordpool_categorized_EN.txt	LOBSTER	OceanAnimals	8	12	[0, 0, 0]	n/a	catFR1	0	R1291M
1434.69	2.401	816412	WORD	n/a	wordpools/wordpool_categorized_EN.txt	DRYER	Appliances	9	12	[0, 0, 0]	n/a	catFR1	0	R1291M
1437.091	2.484	817613	WORD	n/a	wordpools/wordpool_categorized_EN.txt	DISHWASHER	Appliances	10	12	[0, 0, 0]	n/a	catFR1	0	R1291M
1439.575	2.6	818855	WORD	n/a	wordpools/wordpool_categorized_EN.txt	BEE	Insects	11	12	[0, 0, 0]	n/a	catFR1	0	R1291M
1442.175	1.616	820155	WORD	n/a	wordpools/wordpool_categorized_EN.txt	MOSQUITO	Insects	12	12	[0, 0, 0]	n/a	catFR1	0	R1291M
1443.791	0.001	820963	DISTRACT_START	n/a	n/a	n/a	n/a	-999	12	[0, 0, 0]	n/a	catFR1	0	R1291M
1443.792	0.016	820963	START	n/a	n/a	n/a	n/a	-999	12	[-999, -999, -999]	n/a	catFR1	0	R1291M
1443.808	4.202	820971	PROB	4.169	n/a	n/a	n/a	-999	12	[2, 4, 6]	12.0	catFR1	0	R1291M
1448.01	3.184	823072	PROB	3.151	n/a	n/a	n/a	-999	12	[7, 8, 4]	19.0	catFR1	0	R1291M
1451.194	3.35	824664	PROB	3.327	n/a	n/a	n/a	-999	12	[1, 3, 8]	12.0	catFR1	0	R1291M
1454.544	4.401	826339	PROB	4.377	n/a	n/a	n/a	-999	12	[6, 9, 7]	22.0	catFR1	0	R1291M
1458.945	3.883	828539	PROB	3.863	n/a	n/a	n/a	-999	12	[9, 3, 5]	17.0	catFR1	0	R1291M
1462.828	3.557	830481	PROB	3.557	n/a	n/a	n/a	-999	12	[4, 4, 2]	10.0	catFR1	0	R1291M
1466.385	0.012	832259	STOP	n/a	n/a	n/a	n/a	-999	12	[-999, -999, -999]	n/a	catFR1	0	R1291M
1466.397	1.117	832265	DISTRACT_END	n/a	n/a	n/a	n/a	-999	12	[0, 0, 0]	n/a	catFR1	0	R1291M
1467.514	0.959	832824	REC_START	n/a	n/a	n/a	n/a	-999	12	[0, 0, 0]	n/a	catFR1	0	R1291M
1468.473	1.143	833303	REC_WORD_VV	0.959	n/a	<>	n/a	-999	12	[0, 0, 0]	n/a	catFR1	0	R1291M
1469.616	2.758	833875	REC_WORD	2.102	n/a	DISHWASHER	Appliances	10	12	[0, 0, 0]	n/a	catFR1	0	R1291M
1472.374	0.595	835253	REC_WORD_VV	4.86	n/a	<>	n/a	-999	12	[0, 0, 0]	n/a	catFR1	0	R1291M
1472.969	0.89	835551	REC_WORD	5.455	n/a	OVEN	n/a	-999	12	[0, 0, 0]	n/a	catFR1	0	R1291M
1473.859	0.579	835996	REC_WORD	6.345	n/a	ANT	Insects	4	12	[0, 0, 0]	n/a	catFR1	0	R1291M
1474.438	1.924	836285	REC_WORD	6.924	n/a	MOSQUITO	Insects	12	12	[0, 0, 0]	n/a	catFR1	0	R1291M
1476.362	1.014	837247	REC_WORD	8.848	n/a	SQUID	OceanAnimals	7	12	[0, 0, 0]	n/a	catFR1	0	R1291M
1477.376	1.309	837754	REC_WORD	9.862	n/a	PLANKTON	OceanAnimals	2	12	[0, 0, 0]	n/a	catFR1	0	R1291M
1478.685	4.093	838409	REC_WORD	11.171	n/a	LOBSTER	OceanAnimals	8	12	[0, 0, 0]	n/a	catFR1	0	R1291M
1482.778	14.747	840455	REC_WORD_VV	15.264	n/a	<>	n/a	-999	12	[0, 0, 0]	n/a	catFR1	0	R1291M
1497.525	6.311	847828	REC_END	n/a	n/a	n/a	n/a	-999	12	[0, 0, 0]	n/a	catFR1	0	R1291M
1503.836	0.0	850984	TRIAL	n/a	n/a	n/a	n/a	-999	13	[0, 0, 0]	n/a	catFR1	0	R1291M
1503.836	10.428	850984	COUNTDOWN_START	n/a	n/a	n/a	n/a	-999	13	[0, 0, 0]	n/a	catFR1	0	R1291M
1514.264	0.008	856197	COUNTDOWN_END	n/a	n/a	n/a	n/a	-999	13	[0, 0, 0]	n/a	catFR1	0	R1291M
1514.272	3.467	856201	ORIENT	n/a	n/a	n/a	n/a	-999	13	[0, 0, 0]	n/a	catFR1	0	R1291M
1517.739	2.601	857935	WORD	n/a	wordpools/wordpool_categorized_EN.txt	BEETLE	Insects	1	13	[0, 0, 0]	n/a	catFR1	0	R1291M
1520.34	2.433	859235	WORD	n/a	wordpools/wordpool_categorized_EN.txt	CRICKET	Insects	2	13	[0, 0, 0]	n/a	catFR1	0	R1291M
1522.773	2.368	860452	WORD	n/a	wordpools/wordpool_categorized_EN.txt	SANDER	Tools	3	13	[0, 0, 0]	n/a	catFR1	0	R1291M
1525.141	2.45	861636	WORD	n/a	wordpools/wordpool_categorized_EN.txt	SCREWDRIVER	Tools	4	13	[0, 0, 0]	n/a	catFR1	0	R1291M
1527.591	2.601	862861	WORD	n/a	wordpools/wordpool_categorized_EN.txt	PINE	Trees	5	13	[0, 0, 0]	n/a	catFR1	0	R1291M
1530.192	2.45	864161	WORD	n/a	wordpools/wordpool_categorized_EN.txt	SPRUCE	Trees	6	13	[0, 0, 0]	n/a	catFR1	0	R1291M
1532.642	2.451	865386	WORD	n/a	wordpools/wordpool_categorized_EN.txt	BUTTERFLY	Insects	7	13	[0, 0, 0]	n/a	catFR1	0	R1291M
1535.093	2.384	866611	WORD	n/a	wordpools/wordpool_categorized_EN.txt	LADYBUG	Insects	8	13	[0, 0, 0]	n/a	catFR1	0	R1291M
1537.477	2.55	867803	WORD	n/a	wordpools/wordpool_categorized_EN.txt	BIRCH	Trees	9	13	[0, 0, 0]	n/a	catFR1	0	R1291M
1540.027	2.468	869078	WORD	n/a	wordpools/wordpool_categorized_EN.txt	HICKORY	Trees	10	13	[0, 0, 0]	n/a	catFR1	0	R1291M
1542.495	2.5	870312	WORD	n/a	wordpools/wordpool_categorized_EN.txt	LEVEL	Tools	11	13	[0, 0, 0]	n/a	catFR1	0	R1291M
1544.995	1.616	871562	WORD	n/a	wordpools/wordpool_categorized_EN.txt	AXE	Tools	12	13	[0, 0, 0]	n/a	catFR1	0	R1291M
1546.611	0.001	872370	DISTRACT_START	n/a	n/a	n/a	n/a	-999	13	[0, 0, 0]	n/a	catFR1	0	R1291M
1546.612	0.016	872371	START	n/a	n/a	n/a	n/a	-999	13	[-999, -999, -999]	n/a	catFR1	0	R1291M
1546.628	4.385	872379	PROB	4.349	n/a	n/a	n/a	-999	13	[1, 6, 6]	13.0	catFR1	0	R1291M
1551.013	4.767	874571	PROB	4.739	n/a	n/a	n/a	-999	13	[7, 6, 5]	18.0	catFR1	0	R1291M
1555.78	5.817	876954	PROB	5.797	n/a	n/a	n/a	-999	13	[5, 2, 9]	16.0	catFR1	0	R1291M
1561.597	4.552	879863	PROB	4.516	n/a	n/a	n/a	-999	13	[7, 9, 2]	18.0	catFR1	0	R1291M
1566.149	3.82	882139	PROB	3.82	n/a	n/a	n/a	-999	13	[3, 6, 8]	17.0	catFR1	0	R1291M
1569.969	0.014	884048	STOP	n/a	n/a	n/a	n/a	-999	13	[-999, -999, -999]	n/a	catFR1	0	R1291M
1569.983	1.168	884055	DISTRACT_END	n/a	n/a	n/a	n/a	-999	13	[0, 0, 0]	n/a	catFR1	0	R1291M
1571.151	0.844	884639	REC_START	n/a	n/a	n/a	n/a	-999	13	[0, 0, 0]	n/a	catFR1	0	R1291M
1571.995	0.544	885061	REC_WORD_VV	0.844	n/a	<>	n/a	-999	13	[0, 0, 0]	n/a	catFR1	0	R1291M
1572.539	1.73	885333	REC_WORD	1.388	n/a	BIRCH	Trees	9	13	[0, 0, 0]	n/a	catFR1	0	R1291M
1574.269	1.159	886198	REC_WORD	3.118	n/a	CEDAR	n/a	-999	13	[0, 0, 0]	n/a	catFR1	0	R1291M
1575.428	1.204	886778	REC_WORD	4.277	n/a	AXE	Tools	12	13	[0, 0, 0]	n/a	catFR1	0	R1291M
1576.632	2.915	887380	REC_WORD	5.481	n/a	SANDER	Tools	3	13	[0, 0, 0]	n/a	catFR1	0	R1291M
1579.547	5.135	888837	REC_WORD_VV	8.396	n/a	<>	n/a	-999	13	[0, 0, 0]	n/a	catFR1	0	R1291M
1584.682	16.481	891405	REC_WORD	13.531	n/a	HAMMER	n/a	-999	13	[0, 0, 0]	n/a	catFR1	0	R1291M
1601.163	10.962	899645	REC_END	n/a	n/a	n/a	n/a	-999	13	[0, 0, 0]	n/a	catFR1	0	R1291M
1612.125	0.0	905125	TRIAL	n/a	n/a	n/a	n/a	-999	14	[0, 0, 0]	n/a	catFR1	0	R1291M
1612.125	10.428	905125	COUNTDOWN_START	n/a	n/a	n/a	n/a	-999	14	[0, 0, 0]	n/a	catFR1	0	R1291M
1622.553	0.007	910339	COUNTDOWN_END	n/a	n/a	n/a	n/a	-999	14	[0, 0, 0]	n/a	catFR1	0	R1291M
1622.56	3.651	910343	ORIENT	n/a	n/a	n/a	n/a	-999	14	[0, 0, 0]	n/a	catFR1	0	R1291M
1626.211	2.549	912168	WORD	n/a	wordpools/wordpool_categorized_EN.txt	CABINET	Furniture	1	14	[0, 0, 0]	n/a	catFR1	0	R1291M
1628.76	2.502	913443	WORD	n/a	wordpools/wordpool_categorized_EN.txt	SHELF	Furniture	2	14	[0, 0, 0]	n/a	catFR1	0	R1291M
1631.262	2.532	914693	WORD	n/a	wordpools/wordpool_categorized_EN.txt	DOOR	Building	3	14	[0, 0, 0]	n/a	catFR1	0	R1291M
1633.794	2.585	915959	WORD	n/a	wordpools/wordpool_categorized_EN.txt	FOUNDATION	Building	4	14	[0, 0, 0]	n/a	catFR1	0	R1291M
1636.379	2.383	917252	WORD	n/a	wordpools/wordpool_categorized_EN.txt	STREAM	Landscapes	5	14	[0, 0, 0]	n/a	catFR1	0	R1291M
1638.762	2.535	918443	WORD	n/a	wordpools/wordpool_categorized_EN.txt	WOODS	Landscapes	6	14	[0, 0, 0]	n/a	catFR1	0	R1291M
1641.297	2.549	919711	WORD	n/a	wordpools/wordpool_categorized_EN.txt	FLOOR	Building	7	14	[0, 0, 0]	n/a	catFR1	0	R1291M
1643.846	2.569	920985	WORD	n/a	wordpools/wordpool_categorized_EN.txt	ATTIC	Building	8	14	[0, 0, 0]	n/a	catFR1	0	R1291M
1646.415	2.5	922270	WORD	n/a	wordpools/wordpool_categorized_EN.txt	TABLE	Furniture	9	14	[0, 0, 0]	n/a	catFR1	0	R1291M
1648.915	2.401	923520	WORD	n/a	wordpools/wordpool_categorized_EN.txt	RECLINER	Furniture	10	14	[0, 0, 0]	n/a	catFR1	0	R1291M
1651.316	2.482	924720	WORD	n/a	wordpools/wordpool_categorized_EN.txt	MOUNTAIN	Landscapes	11	14	[0, 0, 0]	n/a	catFR1	0	R1291M
1653.798	1.601	925961	WORD	n/a	wordpools/wordpool_categorized_EN.txt	LAKE	Landscapes	12	14	[0, 0, 0]	n/a	catFR1	0	R1291M
1655.399	0.001	926761	DISTRACT_START	n/a	n/a	n/a	n/a	-999	14	[0, 0, 0]	n/a	catFR1	0	R1291M
1655.4	0.016	926762	START	n/a	n/a	n/a	n/a	-999	14	[-999, -999, -999]	n/a	catFR1	0	R1291M
1655.416	5.768	926770	PROB	5.745	n/a	n/a	n/a	-999	14	[9, 3, 7]	19.0	catFR1	0	R1291M
1661.184	3.284	929654	PROB	3.257	n/a	n/a	n/a	-999	14	[2, 9, 8]	19.0	catFR1	0	R1291M
1664.468	2.901	931296	PROB	2.869	n/a	n/a	n/a	-999	14	[6, 1, 2]	9.0	catFR1	0	R1291M
1667.369	4.951	932746	PROB	4.92	n/a	n/a	n/a	-999	14	[2, 6, 7]	15.0	catFR1	0	R1291M
1672.32	4.769	935221	PROB	4.769	n/a	n/a	n/a	-999	14	[5, 7, 6]	18.0	catFR1	0	R1291M
1677.089	0.015	937606	STOP	n/a	n/a	n/a	n/a	-999	14	[-999, -999, -999]	n/a	catFR1	0	R1291M
1677.104	1.084	937613	DISTRACT_END	n/a	n/a	n/a	n/a	-999	14	[0, 0, 0]	n/a	catFR1	0	R1291M
1678.188	1.228	938155	REC_START	n/a	n/a	n/a	n/a	-999	14	[0, 0, 0]	n/a	catFR1	0	R1291M
1679.416	0.615	938769	REC_WORD	1.228	n/a	ATTIC	Building	8	14	[0, 0, 0]	n/a	catFR1	0	R1291M
1680.031	2.321	939077	REC_WORD	1.843	n/a	FOUNDATION	Building	4	14	[0, 0, 0]	n/a	catFR1	0	R1291M
1682.352	0.847	940237	REC_WORD_VV	4.164	n/a	<>	n/a	-999	14	[0, 0, 0]	n/a	catFR1	0	R1291M
1683.199	2.532	940661	REC_WORD	5.011	n/a	STREAM	Landscapes	5	14	[0, 0, 0]	n/a	catFR1	0	R1291M
1685.731	0.369	941927	REC_WORD_VV	7.543	n/a	<>	n/a	-999	14	[0, 0, 0]	n/a	catFR1	0	R1291M
1686.1	3.738	942111	REC_WORD	7.912	n/a	MOUNTAIN	Landscapes	11	14	[0, 0, 0]	n/a	catFR1	0	R1291M
1689.838	0.31	943980	REC_WORD_VV	11.65	n/a	<>	n/a	-999	14	[0, 0, 0]	n/a	catFR1	0	R1291M
1690.148	1.135	944135	REC_WORD	11.96	n/a	CABINET	Furniture	1	14	[0, 0, 0]	n/a	catFR1	0	R1291M
1691.283	3.647	944702	REC_WORD	13.095	n/a	SHELF	Furniture	2	14	[0, 0, 0]	n/a	catFR1	0	R1291M
1694.93	0.401	946526	REC_WORD_VV	16.742	n/a	<>	n/a	-999	14	[0, 0, 0]	n/a	catFR1	0	R1291M
1695.331	12.867	946726	REC_WORD	17.143	n/a	TABLE	Furniture	9	14	[0, 0, 0]	n/a	catFR1	0	R1291M
1708.198	7.646	953160	REC_END	n/a	n/a	n/a	n/a	-999	14	[0, 0, 0]	n/a	catFR1	0	R1291M
1715.844	0.0	956982	TRIAL	n/a	n/a	n/a	n/a	-999	15	[0, 0, 0]	n/a	catFR1	0	R1291M
1715.844	10.428	956982	COUNTDOWN_START	n/a	n/a	n/a	n/a	-999	15	[0, 0, 0]	n/a	catFR1	0	R1291M
1726.272	0.008	962196	COUNTDOWN_END	n/a	n/a	n/a	n/a	-999	15	[0, 0, 0]	n/a	catFR1	0	R1291M
1726.28	3.901	962200	ORIENT	n/a	n/a	n/a	n/a	-999	15	[0, 0, 0]	n/a	catFR1	0	R1291M
1730.181	2.4	964150	WORD	n/a	wordpools/wordpool_categorized_EN.txt	SKIRT	Clothing	1	15	[0, 0, 0]	n/a	catFR1	0	R1291M
1732.581	2.517	965350	WORD	n/a	wordpools/wordpool_categorized_EN.txt	SHORTS	Clothing	2	15	[0, 0, 0]	n/a	catFR1	0	R1291M
1735.098	2.401	966609	WORD	n/a	wordpools/wordpool_categorized_EN.txt	OAK	Trees	3	15	[0, 0, 0]	n/a	catFR1	0	R1291M
1737.499	2.45	967809	WORD	n/a	wordpools/wordpool_categorized_EN.txt	WILLOW	Trees	4	15	[0, 0, 0]	n/a	catFR1	0	R1291M
1739.949	2.551	969034	WORD	n/a	wordpools/wordpool_categorized_EN.txt	SPATULA	KitchenTools	5	15	[0, 0, 0]	n/a	catFR1	0	R1291M
1742.5	2.384	970310	WORD	n/a	wordpools/wordpool_categorized_EN.txt	TONGS	KitchenTools	6	15	[0, 0, 0]	n/a	catFR1	0	R1291M
1744.884	2.517	971502	WORD	n/a	wordpools/wordpool_categorized_EN.txt	WALNUT	Trees	7	15	[0, 0, 0]	n/a	catFR1	0	R1291M
1747.401	2.517	972760	WORD	n/a	wordpools/wordpool_categorized_EN.txt	CYPRESS	Trees	8	15	[0, 0, 0]	n/a	catFR1	0	R1291M
1749.918	2.417	974018	WORD	n/a	wordpools/wordpool_categorized_EN.txt	SOCKS	Clothing	9	15	[0, 0, 0]	n/a	catFR1	0	R1291M
1752.335	2.5	975227	WORD	n/a	wordpools/wordpool_categorized_EN.txt	PANTS	Clothing	10	15	[0, 0, 0]	n/a	catFR1	0	R1291M
1754.835	2.618	976477	WORD	n/a	wordpools/wordpool_categorized_EN.txt	WHISK	KitchenTools	11	15	[0, 0, 0]	n/a	catFR1	0	R1291M
1757.453	1.617	977786	WORD	n/a	wordpools/wordpool_categorized_EN.txt	FORK	KitchenTools	12	15	[0, 0, 0]	n/a	catFR1	0	R1291M
1759.07	0.001	978594	DISTRACT_START	n/a	n/a	n/a	n/a	-999	15	[0, 0, 0]	n/a	catFR1	0	R1291M
1759.071	0.015	978595	START	n/a	n/a	n/a	n/a	-999	15	[-999, -999, -999]	n/a	catFR1	0	R1291M
1759.086	3.501	978602	PROB	3.475	n/a	n/a	n/a	-999	15	[9, 1, 1]	11.0	catFR1	0	R1291M
1762.587	4.801	980353	PROB	4.766	n/a	n/a	n/a	-999	15	[4, 8, 5]	17.0	catFR1	0	R1291M
1767.388	5.001	982753	PROB	4.973	n/a	n/a	n/a	-999	15	[8, 9, 9]	26.0	catFR1	0	R1291M
1772.389	4.067	985253	PROB	4.044	n/a	n/a	n/a	-999	15	[4, 5, 7]	16.0	catFR1	0	R1291M
1776.456	5.745	987287	PROB	5.745	n/a	n/a	n/a	-999	15	[2, 1, 8]	11.0	catFR1	0	R1291M
1782.201	0.007	990159	STOP	n/a	n/a	n/a	n/a	-999	15	[-999, -999, -999]	n/a	catFR1	0	R1291M
1782.208	1.109	990163	DISTRACT_END	n/a	n/a	n/a	n/a	-999	15	[0, 0, 0]	n/a	catFR1	0	R1291M
1783.317	0.883	990717	REC_START	n/a	n/a	n/a	n/a	-999	15	[0, 0, 0]	n/a	catFR1	0	R1291M
1784.2	0.758	991159	REC_WORD	0.883	n/a	OAK	Trees	3	15	[0, 0, 0]	n/a	catFR1	0	R1291M
1784.958	1.602	991538	REC_WORD	1.641	n/a	CYPRESS	Trees	8	15	[0, 0, 0]	n/a	catFR1	0	R1291M
1786.56	0.659	992339	REC_WORD	3.243	n/a	SKIRT	Clothing	1	15	[0, 0, 0]	n/a	catFR1	0	R1291M
1787.219	1.201	992668	REC_WORD	3.902	n/a	SHORTS	Clothing	2	15	[0, 0, 0]	n/a	catFR1	0	R1291M
1788.42	4.169	993269	REC_WORD	5.103	n/a	PANTS	Clothing	10	15	[0, 0, 0]	n/a	catFR1	0	R1291M
1792.589	2.608	995353	REC_WORD_VV	9.272	n/a	<>	n/a	-999	15	[0, 0, 0]	n/a	catFR1	0	R1291M
1795.197	0.967	996657	REC_WORD	11.88	n/a	WHISK	KitchenTools	11	15	[0, 0, 0]	n/a	catFR1	0	R1291M
1796.164	6.189	997140	REC_WORD	12.847	n/a	TONGS	KitchenTools	6	15	[0, 0, 0]	n/a	catFR1	0	R1291M
1802.353	10.762	1000235	REC_WORD	19.036	n/a	SPATULA	KitchenTools	5	15	[0, 0, 0]	n/a	catFR1	0	R1291M
1813.115	0.205	1005615	REC_WORD	29.798	n/a	SOCKS	Clothing	9	15	[0, 0, 0]	n/a	catFR1	0	R1291M
1813.32	12.729	1005718	REC_END	n/a	n/a	n/a	n/a	-999	15	[0, 0, 0]	n/a	catFR1	0	R1291M
1826.049	0.001	1012082	COUNTDOWN_START	n/a	n/a	n/a	n/a	-999	16	[0, 0, 0]	n/a	catFR1	0	R1291M
1826.05	10.427	1012083	TRIAL	n/a	n/a	n/a	n/a	-999	16	[0, 0, 0]	n/a	catFR1	0	R1291M
1836.477	0.008	1017296	COUNTDOWN_END	n/a	n/a	n/a	n/a	-999	16	[0, 0, 0]	n/a	catFR1	0	R1291M
1836.485	3.934	1017300	ORIENT	n/a	n/a	n/a	n/a	-999	16	[0, 0, 0]	n/a	catFR1	0	R1291M
1840.419	2.5	1019267	WORD	n/a	wordpools/wordpool_categorized_EN.txt	PIE	Desserts	1	16	[0, 0, 0]	n/a	catFR1	0	R1291M
1842.919	2.584	1020517	WORD	n/a	wordpools/wordpool_categorized_EN.txt	PUDDING	Desserts	2	16	[0, 0, 0]	n/a	catFR1	0	R1291M
1845.503	2.601	1021809	WORD	n/a	wordpools/wordpool_categorized_EN.txt	STAPLER	OfficeSupplies	3	16	[0, 0, 0]	n/a	catFR1	0	R1291M
1848.104	2.433	1023109	WORD	n/a	wordpools/wordpool_categorized_EN.txt	GLUE	OfficeSupplies	4	16	[0, 0, 0]	n/a	catFR1	0	R1291M
1850.537	2.551	1024325	WORD	n/a	wordpools/wordpool_categorized_EN.txt	STOVE	Appliances	5	16	[0, 0, 0]	n/a	catFR1	0	R1291M
1853.088	2.616	1025601	WORD	n/a	wordpools/wordpool_categorized_EN.txt	TOASTER	Appliances	6	16	[0, 0, 0]	n/a	catFR1	0	R1291M
1855.704	2.368	1026909	WORD	n/a	wordpools/wordpool_categorized_EN.txt	BINDER	OfficeSupplies	7	16	[0, 0, 0]	n/a	catFR1	0	R1291M
1858.072	2.417	1028093	WORD	n/a	wordpools/wordpool_categorized_EN.txt	PENCIL	OfficeSupplies	8	16	[0, 0, 0]	n/a	catFR1	0	R1291M
1860.489	2.617	1029301	WORD	n/a	wordpools/wordpool_categorized_EN.txt	CUPCAKE	Desserts	9	16	[0, 0, 0]	n/a	catFR1	0	R1291M
1863.106	2.434	1030610	WORD	n/a	wordpools/wordpool_categorized_EN.txt	CHEESECAKE	Desserts	10	16	[0, 0, 0]	n/a	catFR1	0	R1291M
1865.54	2.384	1031827	WORD	n/a	wordpools/wordpool_categorized_EN.txt	REFRIGERATOR	Appliances	11	16	[0, 0, 0]	n/a	catFR1	0	R1291M
1867.924	1.617	1033019	WORD	n/a	wordpools/wordpool_categorized_EN.txt	VACUUM	Appliances	12	16	[0, 0, 0]	n/a	catFR1	0	R1291M
1869.541	0.001	1033827	DISTRACT_START	n/a	n/a	n/a	n/a	-999	16	[0, 0, 0]	n/a	catFR1	0	R1291M
1869.542	0.016	1033828	START	n/a	n/a	n/a	n/a	-999	16	[-999, -999, -999]	n/a	catFR1	0	R1291M
1869.558	3.817	1033836	PROB	3.795	n/a	n/a	n/a	-999	16	[8, 3, 2]	13.0	catFR1	0	R1291M
1873.375	3.984	1035744	PROB	3.962	n/a	n/a	n/a	-999	16	[3, 6, 5]	14.0	catFR1	0	R1291M
1877.359	3.101	1037736	PROB	3.074	n/a	n/a	n/a	-999	16	[5, 8, 2]	15.0	catFR1	0	R1291M
1880.46	3.333	1039286	PROB	3.3	n/a	n/a	n/a	-999	16	[3, 2, 8]	13.0	catFR1	0	R1291M
1883.793	3.068	1040953	PROB	3.047	n/a	n/a	n/a	-999	16	[2, 3, 3]	8.0	catFR1	0	R1291M
1886.861	4.26	1042487	PROB	4.26	n/a	n/a	n/a	-999	16	[5, 8, 3]	16.0	catFR1	0	R1291M
1891.121	0.008	1044616	STOP	n/a	n/a	n/a	n/a	-999	16	[-999, -999, -999]	n/a	catFR1	0	R1291M
1891.129	1.018	1044620	DISTRACT_END	n/a	n/a	n/a	n/a	-999	16	[0, 0, 0]	n/a	catFR1	0	R1291M
1892.147	0.975	1045129	REC_START	n/a	n/a	n/a	n/a	-999	16	[0, 0, 0]	n/a	catFR1	0	R1291M
1893.122	1.113	1045617	REC_WORD	0.975	n/a	REFRIGERATOR	Appliances	11	16	[0, 0, 0]	n/a	catFR1	0	R1291M
1894.235	2.167	1046173	REC_WORD	2.088	n/a	TOASTER	Appliances	6	16	[0, 0, 0]	n/a	catFR1	0	R1291M
1896.402	0.764	1047257	REC_WORD_VV	4.255	n/a	<>	n/a	-999	16	[0, 0, 0]	n/a	catFR1	0	R1291M
1897.166	2.624	1047639	REC_WORD	5.019	n/a	PUDDING	Desserts	2	16	[0, 0, 0]	n/a	catFR1	0	R1291M
1899.79	0.984	1048951	REC_WORD_VV	7.643	n/a	<>	n/a	-999	16	[0, 0, 0]	n/a	catFR1	0	R1291M
1900.774	2.82	1049443	REC_WORD	8.627	n/a	CUPCAKE	Desserts	9	16	[0, 0, 0]	n/a	catFR1	0	R1291M
1903.594	1.043	1050853	REC_WORD	11.447	n/a	CAKE	n/a	-999	16	[0, 0, 0]	n/a	catFR1	0	R1291M
1904.637	0.69	1051374	REC_WORD_VV	12.49	n/a	<>	n/a	-999	16	[0, 0, 0]	n/a	catFR1	0	R1291M
1905.327	1.177	1051719	REC_WORD	13.18	n/a	PIE	Desserts	1	16	[0, 0, 0]	n/a	catFR1	0	R1291M
1906.504	6.164	1052308	REC_WORD_VV	14.357	n/a	<>	n/a	-999	16	[0, 0, 0]	n/a	catFR1	0	R1291M
1912.668	0.738	1055389	REC_WORD	20.521	n/a	BINDER	OfficeSupplies	7	16	[0, 0, 0]	n/a	catFR1	0	R1291M
1913.406	6.102	1055758	REC_WORD	21.259	n/a	STAPLER	OfficeSupplies	3	16	[0, 0, 0]	n/a	catFR1	0	R1291M
1919.508	2.649	1058809	REC_WORD	27.361	n/a	GLUE	OfficeSupplies	4	16	[0, 0, 0]	n/a	catFR1	0	R1291M
1922.157	6.045	1060134	REC_END	n/a	n/a	n/a	n/a	-999	16	[0, 0, 0]	n/a	catFR1	0	R1291M
1928.202	0.001	1063156	COUNTDOWN_START	n/a	n/a	n/a	n/a	-999	17	[0, 0, 0]	n/a	catFR1	0	R1291M
1928.203	10.427	1063157	TRIAL	n/a	n/a	n/a	n/a	-999	17	[0, 0, 0]	n/a	catFR1	0	R1291M
1938.63	0.007	1068370	COUNTDOWN_END	n/a	n/a	n/a	n/a	-999	17	[0, 0, 0]	n/a	catFR1	0	R1291M
1938.637	3.518	1068373	ORIENT	n/a	n/a	n/a	n/a	-999	17	[0, 0, 0]	n/a	catFR1	0	R1291M
1942.155	2.384	1070132	WORD	n/a	wordpools/wordpool_categorized_EN.txt	VIOLET	Flowers	1	17	[0, 0, 0]	n/a	catFR1	0	R1291M
1944.539	2.517	1071324	WORD	n/a	wordpools/wordpool_categorized_EN.txt	LILY	Flowers	2	17	[0, 0, 0]	n/a	catFR1	0	R1291M
1947.056	2.55	1072583	WORD	n/a	wordpools/wordpool_categorized_EN.txt	CAR	Vehicles	3	17	[0, 0, 0]	n/a	catFR1	0	R1291M
1949.606	2.484	1073858	WORD	n/a	wordpools/wordpool_categorized_EN.txt	BOAT	Vehicles	4	17	[0, 0, 0]	n/a	catFR1	0	R1291M
1952.09	2.434	1075099	WORD	n/a	wordpools/wordpool_categorized_EN.txt	LEMON	Fruit	5	17	[0, 0, 0]	n/a	catFR1	0	R1291M
1954.524	2.467	1076316	WORD	n/a	wordpools/wordpool_categorized_EN.txt	APPLE	Fruit	6	17	[0, 0, 0]	n/a	catFR1	0	R1291M
1956.991	2.467	1077550	WORD	n/a	wordpools/wordpool_categorized_EN.txt	ORCHID	Flowers	7	17	[0, 0, 0]	n/a	catFR1	0	R1291M
1959.458	2.601	1078783	WORD	n/a	wordpools/wordpool_categorized_EN.txt	LILAC	Flowers	8	17	[0, 0, 0]	n/a	catFR1	0	R1291M
1962.059	2.583	1080084	WORD	n/a	wordpools/wordpool_categorized_EN.txt	BLUEBERRY	Fruit	9	17	[0, 0, 0]	n/a	catFR1	0	R1291M
1964.642	2.401	1081375	WORD	n/a	wordpools/wordpool_categorized_EN.txt	ORANGE	Fruit	10	17	[0, 0, 0]	n/a	catFR1	0	R1291M
1967.043	2.517	1082576	WORD	n/a	wordpools/wordpool_categorized_EN.txt	BIKE	Vehicles	11	17	[0, 0, 0]	n/a	catFR1	0	R1291M
1969.56	1.617	1083834	WORD	n/a	wordpools/wordpool_categorized_EN.txt	PLANE	Vehicles	12	17	[0, 0, 0]	n/a	catFR1	0	R1291M
1971.177	0.001	1084642	DISTRACT_START	n/a	n/a	n/a	n/a	-999	17	[0, 0, 0]	n/a	catFR1	0	R1291M
1971.178	0.016	1084643	START	n/a	n/a	n/a	n/a	-999	17	[-999, -999, -999]	n/a	catFR1	0	R1291M
1971.194	3.55	1084651	PROB	3.518	n/a	n/a	n/a	-999	17	[2, 8, 1]	11.0	catFR1	0	R1291M
1974.744	5.352	1086426	PROB	5.321	n/a	n/a	n/a	-999	17	[9, 8, 8]	25.0	catFR1	0	R1291M
1980.096	4.217	1089102	PROB	4.193	n/a	n/a	n/a	-999	17	[6, 7, 8]	19.0	catFR1	0	R1291M
1984.313	6.651	1091210	PROB	6.624	n/a	n/a	n/a	-999	17	[3, 3, 8]	14.0	catFR1	0	R1291M
1990.964	3.029	1094535	PROB	3.029	n/a	n/a	n/a	-999	17	[5, 4, 5]	14.0	catFR1	0	R1291M
1993.993	0.005	1096050	STOP	n/a	n/a	n/a	n/a	-999	17	[-999, -999, -999]	n/a	catFR1	0	R1291M
1993.998	1.151	1096052	DISTRACT_END	n/a	n/a	n/a	n/a	-999	17	[0, 0, 0]	n/a	catFR1	0	R1291M
1995.149	0.971	1096628	REC_START	n/a	n/a	n/a	n/a	-999	17	[0, 0, 0]	n/a	catFR1	0	R1291M
1996.12	0.905	1097113	REC_WORD	0.971	n/a	LILAC	Flowers	8	17	[0, 0, 0]	n/a	catFR1	0	R1291M
1997.025	1.731	1097566	REC_WORD	1.876	n/a	VIOLET	Flowers	1	17	[0, 0, 0]	n/a	catFR1	0	R1291M
1998.756	4.388	1098431	REC_WORD	3.607	n/a	ORANGE	Fruit	10	17	[0, 0, 0]	n/a	catFR1	0	R1291M
2003.144	1.339	1100625	REC_WORD_VV	7.995	n/a	<>	n/a	-999	17	[0, 0, 0]	n/a	catFR1	0	R1291M
2004.483	6.738	1101295	REC_WORD	9.334	n/a	BIKE	Vehicles	11	17	[0, 0, 0]	n/a	catFR1	0	R1291M
2011.221	1.726	1104663	REC_WORD	16.072	n/a	BOAT	Vehicles	4	17	[0, 0, 0]	n/a	catFR1	0	R1291M
2012.947	12.219	1105526	REC_WORD_VV	17.798	n/a	<>	n/a	-999	17	[0, 0, 0]	n/a	catFR1	0	R1291M
2025.166	10.24	1111636	REC_END	n/a	n/a	n/a	n/a	-999	17	[0, 0, 0]	n/a	catFR1	0	R1291M
2035.406	0.001	1116755	COUNTDOWN_START	n/a	n/a	n/a	n/a	-999	18	[0, 0, 0]	n/a	catFR1	0	R1291M
2035.407	10.427	1116756	TRIAL	n/a	n/a	n/a	n/a	-999	18	[0, 0, 0]	n/a	catFR1	0	R1291M
2045.834	0.007	1121969	COUNTDOWN_END	n/a	n/a	n/a	n/a	-999	18	[0, 0, 0]	n/a	catFR1	0	R1291M
2045.841	3.701	1121973	ORIENT	n/a	n/a	n/a	n/a	-999	18	[0, 0, 0]	n/a	catFR1	0	R1291M
2049.542	2.484	1123823	WORD	n/a	wordpools/wordpool_categorized_EN.txt	PRINTER	Electronics	1	18	[0, 0, 0]	n/a	catFR1	0	R1291M
2052.026	2.616	1125065	WORD	n/a	wordpools/wordpool_categorized_EN.txt	HEADPHONES	Electronics	2	18	[0, 0, 0]	n/a	catFR1	0	R1291M
2054.642	2.369	1126373	WORD	n/a	wordpools/wordpool_categorized_EN.txt	SOFA	Furniture	3	18	[0, 0, 0]	n/a	catFR1	0	R1291M
2057.011	2.483	1127557	WORD	n/a	wordpools/wordpool_categorized_EN.txt	CHAIR	Furniture	4	18	[0, 0, 0]	n/a	catFR1	0	R1291M
2059.494	2.384	1128799	WORD	n/a	wordpools/wordpool_categorized_EN.txt	FISH	OceanAnimals	5	18	[0, 0, 0]	n/a	catFR1	0	R1291M
2061.878	2.401	1129991	WORD	n/a	wordpools/wordpool_categorized_EN.txt	JELLYFISH	OceanAnimals	6	18	[0, 0, 0]	n/a	catFR1	0	R1291M
2064.279	2.583	1131191	WORD	n/a	wordpools/wordpool_categorized_EN.txt	COMPUTER	Electronics	7	18	[0, 0, 0]	n/a	catFR1	0	R1291M
2066.862	2.618	1132483	WORD	n/a	wordpools/wordpool_categorized_EN.txt	PHONE	Electronics	8	18	[0, 0, 0]	n/a	catFR1	0	R1291M
2069.48	2.417	1133792	WORD	n/a	wordpools/wordpool_categorized_EN.txt	TURTLE	OceanAnimals	9	18	[0, 0, 0]	n/a	catFR1	0	R1291M
2071.897	2.45	1135000	WORD	n/a	wordpools/wordpool_categorized_EN.txt	CRAB	OceanAnimals	10	18	[0, 0, 0]	n/a	catFR1	0	R1291M
2074.347	2.584	1136225	WORD	n/a	wordpools/wordpool_categorized_EN.txt	DESK	Furniture	11	18	[0, 0, 0]	n/a	catFR1	0	R1291M
2076.931	1.617	1137517	WORD	n/a	wordpools/wordpool_categorized_EN.txt	DRESSER	Furniture	12	18	[0, 0, 0]	n/a	catFR1	0	R1291M
2078.548	0.001	1138325	DISTRACT_START	n/a	n/a	n/a	n/a	-999	18	[0, 0, 0]	n/a	catFR1	0	R1291M
2078.549	0.016	1138326	START	n/a	n/a	n/a	n/a	-999	18	[-999, -999, -999]	n/a	catFR1	0	R1291M
2078.565	3.9	1138334	PROB	3.876	n/a	n/a	n/a	-999	18	[9, 7, 2]	18.0	catFR1	0	R1291M
2082.465	3.133	1140284	PROB	3.112	n/a	n/a	n/a	-999	18	[1, 1, 8]	10.0	catFR1	0	R1291M
2085.598	3.101	1141850	PROB	3.074	n/a	n/a	n/a	-999	18	[5, 9, 1]	15.0	catFR1	0	R1291M
2088.699	3.535	1143401	PROB	3.51	n/a	n/a	n/a	-999	18	[8, 5, 1]	14.0	catFR1	0	R1291M
2092.234	5.351	1145168	PROB	5.319	n/a	n/a	n/a	-999	18	[9, 1, 6]	16.0	catFR1	0	R1291M
2097.585	3.272	1147843	PROB	3.272	n/a	n/a	n/a	-999	18	[8, 3, 4]	15.0	catFR1	0	R1291M
2100.857	0.012	1149479	STOP	n/a	n/a	n/a	n/a	-999	18	[-999, -999, -999]	n/a	catFR1	0	R1291M
2100.869	1.134	1149485	DISTRACT_END	n/a	n/a	n/a	n/a	-999	18	[0, 0, 0]	n/a	catFR1	0	R1291M
2102.003	0.805	1150052	REC_START	n/a	n/a	n/a	n/a	-999	18	[0, 0, 0]	n/a	catFR1	0	R1291M
2102.808	1.329	1150455	REC_WORD	0.805	n/a	HEADPHONES	Electronics	2	18	[0, 0, 0]	n/a	catFR1	0	R1291M
2104.137	0.694	1151119	REC_WORD	2.134	n/a	COUCH	n/a	-999	18	[0, 0, 0]	n/a	catFR1	0	R1291M
2104.831	1.5	1151466	REC_WORD	2.828	n/a	CHAIR	Furniture	4	18	[0, 0, 0]	n/a	catFR1	0	R1291M
2106.331	1.941	1152216	REC_WORD	4.328	n/a	DESK	Furniture	11	18	[0, 0, 0]	n/a	catFR1	0	R1291M
2108.272	2.644	1153187	REC_WORD	6.269	n/a	COMPUTER	Electronics	7	18	[0, 0, 0]	n/a	catFR1	0	R1291M
2110.916	3.649	1154508	REC_WORD	8.913	n/a	JELLYFISH	OceanAnimals	6	18	[0, 0, 0]	n/a	catFR1	0	R1291M
2114.565	8.632	1156333	REC_WORD	12.562	n/a	CRAB	OceanAnimals	10	18	[0, 0, 0]	n/a	catFR1	0	R1291M
2123.197	2.511	1160649	REC_WORD_VV	21.194	n/a	<>	n/a	-999	18	[0, 0, 0]	n/a	catFR1	0	R1291M
2125.708	1.243	1161904	REC_WORD_VV	23.705	n/a	<>	n/a	-999	18	[0, 0, 0]	n/a	catFR1	0	R1291M
2126.951	2.297	1162526	REC_WORD	24.948	n/a	TELEVISION	n/a	-999	18	[0, 0, 0]	n/a	catFR1	0	R1291M
2129.248	2.767	1163674	REC_WORD	27.245	n/a	SOFA	Furniture	3	18	[0, 0, 0]	n/a	catFR1	0	R1291M
2132.015	14.23	1165057	REC_END	n/a	n/a	n/a	n/a	-999	18	[0, 0, 0]	n/a	catFR1	0	R1291M
2146.245	0.0	1172172	TRIAL	n/a	n/a	n/a	n/a	-999	19	[0, 0, 0]	n/a	catFR1	0	R1291M
2146.245	10.428	1172172	COUNTDOWN_START	n/a	n/a	n/a	n/a	-999	19	[0, 0, 0]	n/a	catFR1	0	R1291M
2156.673	0.006	1177386	COUNTDOWN_END	n/a	n/a	n/a	n/a	-999	19	[0, 0, 0]	n/a	catFR1	0	R1291M
2156.679	3.635	1177389	ORIENT	n/a	n/a	n/a	n/a	-999	19	[0, 0, 0]	n/a	catFR1	0	R1291M
2160.314	2.399	1179206	WORD	n/a	wordpools/wordpool_categorized_EN.txt	COUCH	Furniture	1	19	[0, 0, 0]	n/a	catFR1	0	R1291M
2162.713	2.535	1180406	WORD	n/a	wordpools/wordpool_categorized_EN.txt	NIGHTSTAND	Furniture	2	19	[0, 0, 0]	n/a	catFR1	0	R1291M
2165.248	2.55	1181673	WORD	n/a	wordpools/wordpool_categorized_EN.txt	PIG	FarmAnimals	3	19	[0, 0, 0]	n/a	catFR1	0	R1291M
2167.798	2.618	1182948	WORD	n/a	wordpools/wordpool_categorized_EN.txt	CHICKEN	FarmAnimals	4	19	[0, 0, 0]	n/a	catFR1	0	R1291M
2170.416	2.55	1184257	WORD	n/a	wordpools/wordpool_categorized_EN.txt	EAR	BodyParts	5	19	[0, 0, 0]	n/a	catFR1	0	R1291M
2172.966	2.601	1185532	WORD	n/a	wordpools/wordpool_categorized_EN.txt	HEAD	BodyParts	6	19	[0, 0, 0]	n/a	catFR1	0	R1291M
2175.567	2.6	1186832	WORD	n/a	wordpools/wordpool_categorized_EN.txt	BED	Furniture	7	19	[0, 0, 0]	n/a	catFR1	0	R1291M
2178.167	2.466	1188132	WORD	n/a	wordpools/wordpool_categorized_EN.txt	BOOKCASE	Furniture	8	19	[0, 0, 0]	n/a	catFR1	0	R1291M
2180.633	2.435	1189365	WORD	n/a	wordpools/wordpool_categorized_EN.txt	HAND	BodyParts	9	19	[0, 0, 0]	n/a	catFR1	0	R1291M
2183.068	2.55	1190583	WORD	n/a	wordpools/wordpool_categorized_EN.txt	LEG	BodyParts	10	19	[0, 0, 0]	n/a	catFR1	0	R1291M
2185.618	2.568	1191858	WORD	n/a	wordpools/wordpool_categorized_EN.txt	CALF	FarmAnimals	11	19	[0, 0, 0]	n/a	catFR1	0	R1291M
2188.186	1.616	1193142	WORD	n/a	wordpools/wordpool_categorized_EN.txt	HORSE	FarmAnimals	12	19	[0, 0, 0]	n/a	catFR1	0	R1291M
2189.802	0.001	1193950	DISTRACT_START	n/a	n/a	n/a	n/a	-999	19	[0, 0, 0]	n/a	catFR1	0	R1291M
2189.803	0.016	1193950	START	n/a	n/a	n/a	n/a	-999	19	[-999, -999, -999]	n/a	catFR1	0	R1291M
2189.819	4.784	1193958	PROB	4.758	n/a	n/a	n/a	-999	19	[7, 7, 6]	20.0	catFR1	0	R1291M
2194.603	3.568	1196350	PROB	3.542	n/a	n/a	n/a	-999	19	[4, 4, 3]	11.0	catFR1	0	R1291M
2198.171	3.6	1198134	PROB	3.573	n/a	n/a	n/a	-999	19	[6, 1, 9]	16.0	catFR1	0	R1291M
2201.771	3.485	1199934	PROB	3.454	n/a	n/a	n/a	-999	19	[6, 6, 3]	15.0	catFR1	0	R1291M
2205.256	9.488	1201676	PROB	9.488	n/a	n/a	n/a	-999	19	[8, 8, 9]	25.0	catFR1	0	R1291M
2214.744	0.013	1206420	STOP	n/a	n/a	n/a	n/a	-999	19	[-999, -999, -999]	n/a	catFR1	0	R1291M
2214.757	1.169	1206426	DISTRACT_END	n/a	n/a	n/a	n/a	-999	19	[0, 0, 0]	n/a	catFR1	0	R1291M
2215.926	0.862	1207011	REC_START	n/a	n/a	n/a	n/a	-999	19	[0, 0, 0]	n/a	catFR1	0	R1291M
2216.788	1.635	1207442	REC_WORD_VV	0.862	n/a	<>	n/a	-999	19	[0, 0, 0]	n/a	catFR1	0	R1291M
2218.423	0.903	1208259	REC_WORD	2.497	n/a	CALF	FarmAnimals	11	19	[0, 0, 0]	n/a	catFR1	0	R1291M
2219.326	2.271	1208711	REC_WORD	3.4	n/a	EAR	BodyParts	5	19	[0, 0, 0]	n/a	catFR1	0	R1291M
2221.597	2.977	1209846	REC_WORD	5.671	n/a	HEAD	BodyParts	6	19	[0, 0, 0]	n/a	catFR1	0	R1291M
2224.574	1.466	1211335	REC_WORD_VV	8.648	n/a	<>	n/a	-999	19	[0, 0, 0]	n/a	catFR1	0	R1291M
2226.04	0.45	1212068	REC_WORD_VV	10.114	n/a	<>	n/a	-999	19	[0, 0, 0]	n/a	catFR1	0	R1291M
2226.49	0.733	1212293	REC_WORD	10.564	n/a	COUCH	Furniture	1	19	[0, 0, 0]	n/a	catFR1	0	R1291M
2227.223	1.643	1212659	REC_WORD_VV	11.297	n/a	<>	n/a	-999	19	[0, 0, 0]	n/a	catFR1	0	R1291M
2228.866	1.485	1213481	REC_WORD	12.94	n/a	BOOKCASE	Furniture	8	19	[0, 0, 0]	n/a	catFR1	0	R1291M
2230.351	0.107	1214223	REC_WORD_VV	14.425	n/a	<>	n/a	-999	19	[0, 0, 0]	n/a	catFR1	0	R1291M
2230.458	1.249	1214276	REC_WORD	14.532	n/a	NIGHTSTAND	Furniture	2	19	[0, 0, 0]	n/a	catFR1	0	R1291M
2231.707	1.422	1214901	REC_WORD_VV	15.781	n/a	<>	n/a	-999	19	[0, 0, 0]	n/a	catFR1	0	R1291M
2233.129	12.809	1215612	REC_WORD	17.203	n/a	BED	Furniture	7	19	[0, 0, 0]	n/a	catFR1	0	R1291M
2245.938	21.913	1222016	REC_END	n/a	n/a	n/a	n/a	-999	19	[0, 0, 0]	n/a	catFR1	0	R1291M
2267.851	0.0	1232972	TRIAL	n/a	n/a	n/a	n/a	-999	20	[0, 0, 0]	n/a	catFR1	0	R1291M
2267.851	10.428	1232972	COUNTDOWN_START	n/a	n/a	n/a	n/a	-999	20	[0, 0, 0]	n/a	catFR1	0	R1291M
2278.279	0.008	1238186	COUNTDOWN_END	n/a	n/a	n/a	n/a	-999	20	[0, 0, 0]	n/a	catFR1	0	R1291M
2278.287	3.8	1238190	ORIENT	n/a	n/a	n/a	n/a	-999	20	[0, 0, 0]	n/a	catFR1	0	R1291M
2282.087	2.401	1240090	WORD	n/a	wordpools/wordpool_categorized_EN.txt	HAMMER	Tools	1	20	[0, 0, 0]	n/a	catFR1	0	R1291M
2284.488	2.467	1241290	WORD	n/a	wordpools/wordpool_categorized_EN.txt	CROWBAR	Tools	2	20	[0, 0, 0]	n/a	catFR1	0	R1291M
2286.955	2.6	1242524	WORD	n/a	wordpools/wordpool_categorized_EN.txt	MICROWAVE	Electronics	3	20	[0, 0, 0]	n/a	catFR1	0	R1291M
2289.555	2.484	1243824	WORD	n/a	wordpools/wordpool_categorized_EN.txt	SCANNER	Electronics	4	20	[0, 0, 0]	n/a	catFR1	0	R1291M
2292.039	2.467	1245065	WORD	n/a	wordpools/wordpool_categorized_EN.txt	PEAS	Vegetables	5	20	[0, 0, 0]	n/a	catFR1	0	R1291M
2294.506	2.434	1246299	WORD	n/a	wordpools/wordpool_categorized_EN.txt	BROCCOLI	Vegetables	6	20	[0, 0, 0]	n/a	catFR1	0	R1291M
2296.94	2.534	1247516	WORD	n/a	wordpools/wordpool_categorized_EN.txt	RATCHET	Tools	7	20	[0, 0, 0]	n/a	catFR1	0	R1291M
2299.474	2.401	1248783	WORD	n/a	wordpools/wordpool_categorized_EN.txt	WRENCH	Tools	8	20	[0, 0, 0]	n/a	catFR1	0	R1291M
2301.875	2.4	1249983	WORD	n/a	wordpools/wordpool_categorized_EN.txt	POTATO	Vegetables	9	20	[0, 0, 0]	n/a	catFR1	0	R1291M
2304.275	2.516	1251183	WORD	n/a	wordpools/wordpool_categorized_EN.txt	CORN	Vegetables	10	20	[0, 0, 0]	n/a	catFR1	0	R1291M
2306.791	2.452	1252441	WORD	n/a	wordpools/wordpool_categorized_EN.txt	CALCULATOR	Electronics	11	20	[0, 0, 0]	n/a	catFR1	0	R1291M
2309.243	1.617	1253667	WORD	n/a	wordpools/wordpool_categorized_EN.txt	STEREO	Electronics	12	20	[0, 0, 0]	n/a	catFR1	0	R1291M
2310.86	0.0	1254475	DISTRACT_START	n/a	n/a	n/a	n/a	-999	20	[0, 0, 0]	n/a	catFR1	0	R1291M
2310.86	0.016	1254475	START	n/a	n/a	n/a	n/a	-999	20	[-999, -999, -999]	n/a	catFR1	0	R1291M
2310.876	3.984	1254483	PROB	3.948	n/a	n/a	n/a	-999	20	[3, 1, 5]	9.0	catFR1	0	R1291M
2314.86	6.151	1256475	PROB	6.125	n/a	n/a	n/a	-999	20	[7, 7, 2]	16.0	catFR1	0	R1291M
2321.011	4.418	1259551	PROB	4.382	n/a	n/a	n/a	-999	20	[6, 9, 7]	22.0	catFR1	0	R1291M
2325.429	5.2	1261760	PROB	5.179	n/a	n/a	n/a	-999	20	[6, 8, 3]	17.0	catFR1	0	R1291M
2330.629	4.66	1264359	PROB	4.66	n/a	n/a	n/a	-999	20	[3, 5, 6]	14.0	catFR1	0	R1291M
2335.289	0.009	1266689	STOP	n/a	n/a	n/a	n/a	-999	20	[-999, -999, -999]	n/a	catFR1	0	R1291M
2335.298	1.051	1266694	DISTRACT_END	n/a	n/a	n/a	n/a	-999	20	[0, 0, 0]	n/a	catFR1	0	R1291M
2336.349	0.802	1267219	REC_START	n/a	n/a	n/a	n/a	-999	20	[0, 0, 0]	n/a	catFR1	0	R1291M
2337.151	1.263	1267620	REC_WORD	0.802	n/a	HAMMER	Tools	1	20	[0, 0, 0]	n/a	catFR1	0	R1291M
2338.414	1.239	1268252	REC_WORD	2.065	n/a	RATCHET	Tools	7	20	[0, 0, 0]	n/a	catFR1	0	R1291M
2339.653	1.621	1268871	REC_WORD	3.304	n/a	CROWBAR	Tools	2	20	[0, 0, 0]	n/a	catFR1	0	R1291M
2341.274	1.19	1269682	REC_WORD	4.925	n/a	CALCULATOR	Electronics	11	20	[0, 0, 0]	n/a	catFR1	0	R1291M
2342.464	2.214	1270277	REC_WORD	6.115	n/a	MICROWAVE	Electronics	3	20	[0, 0, 0]	n/a	catFR1	0	R1291M
2344.678	1.037	1271384	REC_WORD	8.329	n/a	PEAS	Vegetables	5	20	[0, 0, 0]	n/a	catFR1	0	R1291M
2345.715	2.843	1271902	REC_WORD	9.366	n/a	CORN	Vegetables	10	20	[0, 0, 0]	n/a	catFR1	0	R1291M
2348.558	0.76	1273324	REC_WORD_VV	12.209	n/a	<>	n/a	-999	20	[0, 0, 0]	n/a	catFR1	0	R1291M
2349.318	0.577	1273704	REC_WORD	12.969	n/a	CALCULATOR	Electronics	11	20	[0, 0, 0]	n/a	catFR1	0	R1291M
2349.895	2.052	1273992	REC_WORD	13.546	n/a	STEREO	Electronics	12	20	[0, 0, 0]	n/a	catFR1	0	R1291M
2351.947	9.435	1275018	REC_WORD	15.598	n/a	BROCCOLI	Vegetables	6	20	[0, 0, 0]	n/a	catFR1	0	R1291M
2361.382	0.705	1279735	REC_WORD_VV	25.033	n/a	<>	n/a	-999	20	[0, 0, 0]	n/a	catFR1	0	R1291M
2362.087	0.699	1280088	REC_WORD	25.738	n/a	RATCHET	Tools	7	20	[0, 0, 0]	n/a	catFR1	0	R1291M
2362.786	3.575	1280437	REC_WORD_VV	26.437	n/a	<>	n/a	-999	20	[0, 0, 0]	n/a	catFR1	0	R1291M
2366.361	46.101	1282225	REC_END	n/a	n/a	n/a	n/a	-999	20	[0, 0, 0]	n/a	catFR1	0	R1291M
2412.462	0.001	1305274	COUNTDOWN_START	n/a	n/a	n/a	n/a	-999	21	[0, 0, 0]	n/a	catFR1	0	R1291M
2412.463	10.427	1305274	TRIAL	n/a	n/a	n/a	n/a	-999	21	[0, 0, 0]	n/a	catFR1	0	R1291M
2422.89	0.008	1310488	COUNTDOWN_END	n/a	n/a	n/a	n/a	-999	21	[0, 0, 0]	n/a	catFR1	0	R1291M
2422.898	3.833	1310492	ORIENT	n/a	n/a	n/a	n/a	-999	21	[0, 0, 0]	n/a	catFR1	0	R1291M
2426.731	2.501	1312408	WORD	n/a	wordpools/wordpool_categorized_EN.txt	CREEK	Landscapes	1	21	[0, 0, 0]	n/a	catFR1	0	R1291M
2429.232	2.618	1313659	WORD	n/a	wordpools/wordpool_categorized_EN.txt	FOREST	Landscapes	2	21	[0, 0, 0]	n/a	catFR1	0	R1291M
2431.85	2.55	1314967	WORD	n/a	wordpools/wordpool_categorized_EN.txt	CHEETAH	Zoo	3	21	[0, 0, 0]	n/a	catFR1	0	R1291M
2434.4	2.617	1316242	WORD	n/a	wordpools/wordpool_categorized_EN.txt	TIGER	Zoo	4	21	[0, 0, 0]	n/a	catFR1	0	R1291M
2437.017	2.484	1317551	WORD	n/a	wordpools/wordpool_categorized_EN.txt	FRISBEE	Toys	5	21	[0, 0, 0]	n/a	catFR1	0	R1291M
2439.501	2.417	1318793	WORD	n/a	wordpools/wordpool_categorized_EN.txt	MARBLES	Toys	6	21	[0, 0, 0]	n/a	catFR1	0	R1291M
2441.918	2.467	1320001	WORD	n/a	wordpools/wordpool_categorized_EN.txt	ORANGUTAN	Zoo	7	21	[0, 0, 0]	n/a	catFR1	0	R1291M
2444.385	2.45	1321235	WORD	n/a	wordpools/wordpool_categorized_EN.txt	ZEBRA	Zoo	8	21	[0, 0, 0]	n/a	catFR1	0	R1291M
2446.835	2.451	1322460	WORD	n/a	wordpools/wordpool_categorized_EN.txt	ISLAND	Landscapes	9	21	[0, 0, 0]	n/a	catFR1	0	R1291M
2449.286	2.584	1323685	WORD	n/a	wordpools/wordpool_categorized_EN.txt	HILLS	Landscapes	10	21	[0, 0, 0]	n/a	catFR1	0	R1291M
2451.87	2.417	1324977	WORD	n/a	wordpools/wordpool_categorized_EN.txt	SLINKY	Toys	11	21	[0, 0, 0]	n/a	catFR1	0	R1291M
2454.287	1.617	1326185	WORD	n/a	wordpools/wordpool_categorized_EN.txt	DOLL	Toys	12	21	[0, 0, 0]	n/a	catFR1	0	R1291M
2455.904	0.001	1326994	DISTRACT_START	n/a	n/a	n/a	n/a	-999	21	[0, 0, 0]	n/a	catFR1	0	R1291M
2455.905	0.016	1326994	START	n/a	n/a	n/a	n/a	-999	21	[-999, -999, -999]	n/a	catFR1	0	R1291M
2455.921	4.667	1327002	PROB	4.64	n/a	n/a	n/a	-999	21	[6, 8, 8]	22.0	catFR1	0	R1291M
2460.588	3.384	1329336	PROB	3.349	n/a	n/a	n/a	-999	21	[5, 5, 8]	18.0	catFR1	0	R1291M
2463.972	4.268	1331028	PROB	4.245	n/a	n/a	n/a	-999	21	[2, 5, 7]	14.0	catFR1	0	R1291M
2468.24	4.884	1333162	PROB	4.857	n/a	n/a	n/a	-999	21	[7, 1, 4]	12.0	catFR1	0	R1291M
2473.124	3.893	1335603	PROB	3.893	n/a	n/a	n/a	-999	21	[8, 1, 5]	14.0	catFR1	0	R1291M
2477.017	0.008	1337550	STOP	n/a	n/a	n/a	n/a	-999	21	[-999, -999, -999]	n/a	catFR1	0	R1291M
2477.025	1.124	1337554	DISTRACT_END	n/a	n/a	n/a	n/a	-999	21	[0, 0, 0]	n/a	catFR1	0	R1291M
2478.149	0.89	1338116	REC_START	n/a	n/a	n/a	n/a	-999	21	[0, 0, 0]	n/a	catFR1	0	R1291M
2479.039	0.583	1338561	REC_WORD	0.89	n/a	CREEK	Landscapes	1	21	[0, 0, 0]	n/a	catFR1	0	R1291M
2479.622	1.067	1338852	REC_WORD	1.473	n/a	FOREST	Landscapes	2	21	[0, 0, 0]	n/a	catFR1	0	R1291M
2480.689	2.572	1339386	REC_WORD	2.54	n/a	ORANGUTAN	Zoo	7	21	[0, 0, 0]	n/a	catFR1	0	R1291M
2483.261	0.878	1340672	REC_WORD_VV	5.112	n/a	<>	n/a	-999	21	[0, 0, 0]	n/a	catFR1	0	R1291M
2484.139	3.401	1341111	REC_WORD	5.99	n/a	TIGER	Zoo	4	21	[0, 0, 0]	n/a	catFR1	0	R1291M
2487.54	3.658	1342811	REC_WORD	9.391	n/a	SLINKY	Toys	11	21	[0, 0, 0]	n/a	catFR1	0	R1291M
2491.198	16.955	1344640	REC_WORD	13.049	n/a	DOLL	Toys	12	21	[0, 0, 0]	n/a	catFR1	0	R1291M
2508.153	4.879	1353117	REC_END	n/a	n/a	n/a	n/a	-999	21	[0, 0, 0]	n/a	catFR1	0	R1291M
2513.032	0.0	1355556	TRIAL	n/a	n/a	n/a	n/a	-999	22	[0, 0, 0]	n/a	catFR1	0	R1291M
2513.032	10.428	1355556	COUNTDOWN_START	n/a	n/a	n/a	n/a	-999	22	[0, 0, 0]	n/a	catFR1	0	R1291M
2523.46	0.007	1360770	COUNTDOWN_END	n/a	n/a	n/a	n/a	-999	22	[0, 0, 0]	n/a	catFR1	0	R1291M
2523.467	3.418	1360774	ORIENT	n/a	n/a	n/a	n/a	-999	22	[0, 0, 0]	n/a	catFR1	0	R1291M
2526.885	2.617	1362483	WORD	n/a	wordpools/wordpool_categorized_EN.txt	BEAR	Zoo	1	22	[0, 0, 0]	n/a	catFR1	0	R1291M
2529.502	2.5	1363791	WORD	n/a	wordpools/wordpool_categorized_EN.txt	PANDA	Zoo	2	22	[0, 0, 0]	n/a	catFR1	0	R1291M
2532.002	2.417	1365041	WORD	n/a	wordpools/wordpool_categorized_EN.txt	ELBOW	BodyParts	3	22	[0, 0, 0]	n/a	catFR1	0	R1291M
2534.419	2.601	1366249	WORD	n/a	wordpools/wordpool_categorized_EN.txt	ARM	BodyParts	4	22	[0, 0, 0]	n/a	catFR1	0	R1291M
2537.02	2.4	1367550	WORD	n/a	wordpools/wordpool_categorized_EN.txt	CEDAR	Trees	5	22	[0, 0, 0]	n/a	catFR1	0	R1291M
2539.42	2.501	1368750	WORD	n/a	wordpools/wordpool_categorized_EN.txt	MAPLE	Trees	6	22	[0, 0, 0]	n/a	catFR1	0	R1291M
2541.921	2.434	1370000	WORD	n/a	wordpools/wordpool_categorized_EN.txt	KNEE	BodyParts	7	22	[0, 0, 0]	n/a	catFR1	0	R1291M
2544.355	2.55	1371217	WORD	n/a	wordpools/wordpool_categorized_EN.txt	TOE	BodyParts	8	22	[0, 0, 0]	n/a	catFR1	0	R1291M
2546.905	2.467	1372492	WORD	n/a	wordpools/wordpool_categorized_EN.txt	MONKEY	Zoo	9	22	[0, 0, 0]	n/a	catFR1	0	R1291M
2549.372	2.4	1373726	WORD	n/a	wordpools/wordpool_categorized_EN.txt	ELEPHANT	Zoo	10	22	[0, 0, 0]	n/a	catFR1	0	R1291M
2551.772	2.385	1374925	WORD	n/a	wordpools/wordpool_categorized_EN.txt	ELM	Trees	11	22	[0, 0, 0]	n/a	catFR1	0	R1291M
2554.157	1.615	1376118	WORD	n/a	wordpools/wordpool_categorized_EN.txt	EVERGREEN	Trees	12	22	[0, 0, 0]	n/a	catFR1	0	R1291M
2555.772	0.001	1376925	DISTRACT_START	n/a	n/a	n/a	n/a	-999	22	[0, 0, 0]	n/a	catFR1	0	R1291M
2555.773	0.016	1376926	START	n/a	n/a	n/a	n/a	-999	22	[-999, -999, -999]	n/a	catFR1	0	R1291M
2555.789	5.185	1376934	PROB	5.164	n/a	n/a	n/a	-999	22	[6, 1, 5]	12.0	catFR1	0	R1291M
2560.974	3.118	1379526	PROB	3.091	n/a	n/a	n/a	-999	22	[1, 9, 4]	14.0	catFR1	0	R1291M
2564.092	3.467	1381085	PROB	3.437	n/a	n/a	n/a	-999	22	[6, 6, 3]	15.0	catFR1	0	R1291M
2567.559	3.216	1382819	PROB	3.185	n/a	n/a	n/a	-999	22	[9, 1, 5]	15.0	catFR1	0	R1291M
2570.775	3.552	1384426	PROB	3.53	n/a	n/a	n/a	-999	22	[6, 1, 2]	9.0	catFR1	0	R1291M
2574.327	5.626	1386202	PROB	5.626	n/a	n/a	n/a	-999	22	[8, 7, 9]	24.0	catFR1	0	R1291M
2579.953	0.008	1389015	STOP	n/a	n/a	n/a	n/a	-999	22	[-999, -999, -999]	n/a	catFR1	0	R1291M
2579.961	1.051	1389019	DISTRACT_END	n/a	n/a	n/a	n/a	-999	22	[0, 0, 0]	n/a	catFR1	0	R1291M
2581.012	0.837	1389545	REC_START	n/a	n/a	n/a	n/a	-999	22	[0, 0, 0]	n/a	catFR1	0	R1291M
2581.849	0.804	1389963	REC_WORD	0.837	n/a	BEAR	Zoo	1	22	[0, 0, 0]	n/a	catFR1	0	R1291M
2582.653	1.541	1390365	REC_WORD	1.641	n/a	PANDA	Zoo	2	22	[0, 0, 0]	n/a	catFR1	0	R1291M
2584.194	1.644	1391136	REC_WORD	3.182	n/a	EVERGREEN	Trees	12	22	[0, 0, 0]	n/a	catFR1	0	R1291M
2585.838	3.024	1391958	REC_WORD	4.826	n/a	HICKORY	n/a	-999	22	[0, 0, 0]	n/a	catFR1	0	R1291M
2588.862	18.352	1393470	REC_WORD_VV	7.85	n/a	<>	n/a	-999	22	[0, 0, 0]	n/a	catFR1	0	R1291M
2607.214	3.809	1402645	REC_WORD	26.202	n/a	CEDAR	Trees	5	22	[0, 0, 0]	n/a	catFR1	0	R1291M
2611.023	7.279	1404549	REC_END	n/a	n/a	n/a	n/a	-999	22	[0, 0, 0]	n/a	catFR1	0	R1291M
2618.302	0.0	1408189	TRIAL	n/a	n/a	n/a	n/a	-999	23	[0, 0, 0]	n/a	catFR1	0	R1291M
2618.302	10.428	1408189	COUNTDOWN_START	n/a	n/a	n/a	n/a	-999	23	[0, 0, 0]	n/a	catFR1	0	R1291M
2628.73	0.007	1413403	COUNTDOWN_END	n/a	n/a	n/a	n/a	-999	23	[0, 0, 0]	n/a	catFR1	0	R1291M
2628.737	3.95	1413406	ORIENT	n/a	n/a	n/a	n/a	-999	23	[0, 0, 0]	n/a	catFR1	0	R1291M
2632.687	2.518	1415381	WORD	n/a	wordpools/wordpool_categorized_EN.txt	PLIERS	Tools	1	23	[0, 0, 0]	n/a	catFR1	0	R1291M
2635.205	2.517	1416640	WORD	n/a	wordpools/wordpool_categorized_EN.txt	SAW	Tools	2	23	[0, 0, 0]	n/a	catFR1	0	R1291M
2637.722	2.484	1417898	WORD	n/a	wordpools/wordpool_categorized_EN.txt	BROWNIES	Desserts	3	23	[0, 0, 0]	n/a	catFR1	0	R1291M
2640.206	2.4	1419140	WORD	n/a	wordpools/wordpool_categorized_EN.txt	PASTRY	Desserts	4	23	[0, 0, 0]	n/a	catFR1	0	R1291M
2642.606	2.551	1420340	WORD	n/a	wordpools/wordpool_categorized_EN.txt	BLOUSE	Clothing	5	23	[0, 0, 0]	n/a	catFR1	0	R1291M
2645.157	2.5	1421616	WORD	n/a	wordpools/wordpool_categorized_EN.txt	SHIRT	Clothing	6	23	[0, 0, 0]	n/a	catFR1	0	R1291M
2647.657	2.518	1422866	WORD	n/a	wordpools/wordpool_categorized_EN.txt	JELLO	Desserts	7	23	[0, 0, 0]	n/a	catFR1	0	R1291M
2650.175	2.499	1424124	WORD	n/a	wordpools/wordpool_categorized_EN.txt	COOKIE	Desserts	8	23	[0, 0, 0]	n/a	catFR1	0	R1291M
2652.674	2.519	1425374	WORD	n/a	wordpools/wordpool_categorized_EN.txt	SHOVEL	Tools	9	23	[0, 0, 0]	n/a	catFR1	0	R1291M
2655.193	2.566	1426633	WORD	n/a	wordpools/wordpool_categorized_EN.txt	DRILL	Tools	10	23	[0, 0, 0]	n/a	catFR1	0	R1291M
2657.759	2.435	1427916	WORD	n/a	wordpools/wordpool_categorized_EN.txt	COAT	Clothing	11	23	[0, 0, 0]	n/a	catFR1	0	R1291M
2660.194	1.616	1429134	WORD	n/a	wordpools/wordpool_categorized_EN.txt	UNDERWEAR	Clothing	12	23	[0, 0, 0]	n/a	catFR1	0	R1291M
2661.81	0.001	1429942	DISTRACT_START	n/a	n/a	n/a	n/a	-999	23	[0, 0, 0]	n/a	catFR1	0	R1291M
2661.811	0.015	1429942	START	n/a	n/a	n/a	n/a	-999	23	[-999, -999, -999]	n/a	catFR1	0	R1291M
2661.826	4.018	1429950	PROB	3.982	n/a	n/a	n/a	-999	23	[1, 3, 7]	11.0	catFR1	0	R1291M
2665.844	3.168	1431959	PROB	3.141	n/a	n/a	n/a	-999	23	[7, 8, 5]	20.0	catFR1	0	R1291M
2669.012	2.683	1433543	PROB	2.652	n/a	n/a	n/a	-999	23	[1, 5, 6]	12.0	catFR1	0	R1291M
2671.695	1.984	1434884	PROB	1.953	n/a	n/a	n/a	-999	23	[3, 3, 1]	7.0	catFR1	0	R1291M
2673.679	3.1	1435876	PROB	3.065	n/a	n/a	n/a	-999	23	[6, 1, 3]	10.0	catFR1	0	R1291M
2676.779	6.053	1437426	PROB	6.053	n/a	n/a	n/a	-999	23	[4, 8, 5]	16.0	catFR1	0	R1291M
2682.832	0.015	1440452	STOP	n/a	n/a	n/a	n/a	-999	23	[-999, -999, -999]	n/a	catFR1	0	R1291M
2682.847	1.102	1440460	DISTRACT_END	n/a	n/a	n/a	n/a	-999	23	[0, 0, 0]	n/a	catFR1	0	R1291M
2683.949	1.349	1441011	REC_START	n/a	n/a	n/a	n/a	-999	23	[0, 0, 0]	n/a	catFR1	0	R1291M
2685.298	3.975	1441685	REC_WORD_VV	1.349	n/a	<>	n/a	-999	23	[0, 0, 0]	n/a	catFR1	0	R1291M
2689.273	1.235	1443673	REC_WORD	5.324	n/a	WRENCH	n/a	-999	23	[0, 0, 0]	n/a	catFR1	0	R1291M
2690.508	1.295	1444290	REC_WORD	6.559	n/a	DRILL	Tools	10	23	[0, 0, 0]	n/a	catFR1	0	R1291M
2691.803	1.343	1444937	REC_WORD	7.854	n/a	PLIERS	Tools	1	23	[0, 0, 0]	n/a	catFR1	0	R1291M
2693.146	1.606	1445609	REC_WORD	9.197	n/a	BLOUSE	Clothing	5	23	[0, 0, 0]	n/a	catFR1	0	R1291M
2694.752	0.733	1446412	REC_WORD	10.803	n/a	UNDERWEAR	Clothing	12	23	[0, 0, 0]	n/a	catFR1	0	R1291M
2695.485	1.063	1446778	REC_WORD	11.536	n/a	COAT	Clothing	11	23	[0, 0, 0]	n/a	catFR1	0	R1291M
2696.548	1.326	1447310	REC_WORD	12.599	n/a	BROWNIES	Desserts	3	23	[0, 0, 0]	n/a	catFR1	0	R1291M
2697.874	9.239	1447973	REC_WORD	13.925	n/a	JELLO	Desserts	7	23	[0, 0, 0]	n/a	catFR1	0	R1291M
2707.113	6.848	1452592	REC_WORD	23.164	n/a	SHOVEL	Tools	9	23	[0, 0, 0]	n/a	catFR1	0	R1291M
2713.961	6.144	1456016	REC_END	n/a	n/a	n/a	n/a	-999	23	[0, 0, 0]	n/a	catFR1	0	R1291M
2720.105	0.0	1459088	TRIAL	n/a	n/a	n/a	n/a	-999	24	[0, 0, 0]	n/a	catFR1	0	R1291M
2720.105	10.428	1459088	COUNTDOWN_START	n/a	n/a	n/a	n/a	-999	24	[0, 0, 0]	n/a	catFR1	0	R1291M
2730.533	0.007	1464301	COUNTDOWN_END	n/a	n/a	n/a	n/a	-999	24	[0, 0, 0]	n/a	catFR1	0	R1291M
2730.54	3.868	1464305	ORIENT	n/a	n/a	n/a	n/a	-999	24	[0, 0, 0]	n/a	catFR1	0	R1291M
2734.408	2.6	1466239	WORD	n/a	wordpools/wordpool_categorized_EN.txt	BUS	Vehicles	1	24	[0, 0, 0]	n/a	catFR1	0	R1291M
2737.008	2.401	1467539	WORD	n/a	wordpools/wordpool_categorized_EN.txt	JEEP	Vehicles	2	24	[0, 0, 0]	n/a	catFR1	0	R1291M
2739.409	2.567	1468739	WORD	n/a	wordpools/wordpool_categorized_EN.txt	OCEAN	Landscapes	3	24	[0, 0, 0]	n/a	catFR1	0	R1291M
2741.976	2.601	1470023	WORD	n/a	wordpools/wordpool_categorized_EN.txt	RIVER	Landscapes	4	24	[0, 0, 0]	n/a	catFR1	0	R1291M
2744.577	2.417	1471323	WORD	n/a	wordpools/wordpool_categorized_EN.txt	TEA	Beverages	5	24	[0, 0, 0]	n/a	catFR1	0	R1291M
2746.994	2.584	1472532	WORD	n/a	wordpools/wordpool_categorized_EN.txt	CIDER	Beverages	6	24	[0, 0, 0]	n/a	catFR1	0	R1291M
2749.578	2.583	1473824	WORD	n/a	wordpools/wordpool_categorized_EN.txt	MOTORCYCLE	Vehicles	7	24	[0, 0, 0]	n/a	catFR1	0	R1291M
2752.161	2.567	1475115	WORD	n/a	wordpools/wordpool_categorized_EN.txt	MOPED	Vehicles	8	24	[0, 0, 0]	n/a	catFR1	0	R1291M
2754.728	2.401	1476398	WORD	n/a	wordpools/wordpool_categorized_EN.txt	BEER	Beverages	9	24	[0, 0, 0]	n/a	catFR1	0	R1291M
2757.129	2.566	1477599	WORD	n/a	wordpools/wordpool_categorized_EN.txt	COFFEE	Beverages	10	24	[0, 0, 0]	n/a	catFR1	0	R1291M
2759.695	2.418	1478882	WORD	n/a	wordpools/wordpool_categorized_EN.txt	VALLEY	Landscapes	11	24	[0, 0, 0]	n/a	catFR1	0	R1291M
2762.113	1.616	1480091	WORD	n/a	wordpools/wordpool_categorized_EN.txt	BEACH	Landscapes	12	24	[0, 0, 0]	n/a	catFR1	0	R1291M
2763.729	0.001	1480899	DISTRACT_START	n/a	n/a	n/a	n/a	-999	24	[0, 0, 0]	n/a	catFR1	0	R1291M
2763.73	0.016	1480899	START	n/a	n/a	n/a	n/a	-999	24	[-999, -999, -999]	n/a	catFR1	0	R1291M
2763.746	4.602	1480907	PROB	4.575	n/a	n/a	n/a	-999	24	[5, 7, 1]	13.0	catFR1	0	R1291M
2768.348	7.201	1483208	PROB	7.181	n/a	n/a	n/a	-999	24	[7, 8, 4]	19.0	catFR1	0	R1291M
2775.549	3.017	1486808	PROB	2.988	n/a	n/a	n/a	-999	24	[4, 2, 6]	12.0	catFR1	0	R1291M
2778.566	4.267	1488317	PROB	4.234	n/a	n/a	n/a	-999	24	[7, 4, 6]	17.0	catFR1	0	R1291M
2782.833	3.52	1490450	PROB	3.52	n/a	n/a	n/a	-999	24	[4, 5, 5]	14.0	catFR1	0	R1291M
2786.353	0.015	1492210	STOP	n/a	n/a	n/a	n/a	-999	24	[-999, -999, -999]	n/a	catFR1	0	R1291M
2786.368	1.184	1492218	DISTRACT_END	n/a	n/a	n/a	n/a	-999	24	[0, 0, 0]	n/a	catFR1	0	R1291M
2787.552	1.446	1492810	REC_START	n/a	n/a	n/a	n/a	-999	24	[0, 0, 0]	n/a	catFR1	0	R1291M
2788.998	0.444	1493533	REC_WORD_VV	1.446	n/a	<>	n/a	-999	24	[0, 0, 0]	n/a	catFR1	0	R1291M
2789.442	0.614	1493755	REC_WORD	1.89	n/a	BUS	Vehicles	1	24	[0, 0, 0]	n/a	catFR1	0	R1291M
2790.056	1.662	1494061	REC_WORD	2.504	n/a	MOPED	Vehicles	8	24	[0, 0, 0]	n/a	catFR1	0	R1291M
2791.718	3.186	1494892	REC_WORD	4.166	n/a	MOTORCYCLE	Vehicles	7	24	[0, 0, 0]	n/a	catFR1	0	R1291M
2794.904	1.985	1496485	REC_WORD_VV	7.352	n/a	<>	n/a	-999	24	[0, 0, 0]	n/a	catFR1	0	R1291M
2796.889	0.796	1497478	REC_WORD	9.337	n/a	VALLEY	Landscapes	11	24	[0, 0, 0]	n/a	catFR1	0	R1291M
2797.685	0.685	1497876	REC_WORD	10.133	n/a	BEACH	Landscapes	12	24	[0, 0, 0]	n/a	catFR1	0	R1291M
2798.37	0.999	1498218	REC_WORD	10.818	n/a	OCEAN	Landscapes	3	24	[0, 0, 0]	n/a	catFR1	0	R1291M
2799.369	18.197	1498718	REC_WORD	11.817	n/a	RIVER	Landscapes	4	24	[0, 0, 0]	n/a	catFR1	0	R1291M
2817.566	6.242	1507816	REC_END	n/a	n/a	n/a	n/a	-999	24	[0, 0, 0]	n/a	catFR1	0	R1291M
2823.808	0.0	1510937	TRIAL	n/a	n/a	n/a	n/a	-999	25	[0, 0, 0]	n/a	catFR1	0	R1291M
2823.808	10.428	1510937	COUNTDOWN_START	n/a	n/a	n/a	n/a	-999	25	[0, 0, 0]	n/a	catFR1	0	R1291M
2834.236	0.008	1516150	COUNTDOWN_END	n/a	n/a	n/a	n/a	-999	25	[0, 0, 0]	n/a	catFR1	0	R1291M
2834.244	3.6	1516154	ORIENT	n/a	n/a	n/a	n/a	-999	25	[0, 0, 0]	n/a	catFR1	0	R1291M
2837.844	2.618	1517954	WORD	n/a	wordpools/wordpool_categorized_EN.txt	HURRICANE	Weather	1	25	[0, 0, 0]	n/a	catFR1	0	R1291M
2840.462	2.55	1519263	WORD	n/a	wordpools/wordpool_categorized_EN.txt	DRIZZLE	Weather	2	25	[0, 0, 0]	n/a	catFR1	0	R1291M
2843.012	2.551	1520538	WORD	n/a	wordpools/wordpool_categorized_EN.txt	TUBA	Instruments	3	25	[0, 0, 0]	n/a	catFR1	0	R1291M
2845.563	2.617	1521814	WORD	n/a	wordpools/wordpool_categorized_EN.txt	GUITAR	Instruments	4	25	[0, 0, 0]	n/a	catFR1	0	R1291M
2848.18	2.566	1523122	WORD	n/a	wordpools/wordpool_categorized_EN.txt	STRAINER	KitchenTools	5	25	[0, 0, 0]	n/a	catFR1	0	R1291M
2850.746	2.468	1524405	WORD	n/a	wordpools/wordpool_categorized_EN.txt	COLANDER	KitchenTools	6	25	[0, 0, 0]	n/a	catFR1	0	R1291M
2853.214	2.516	1525639	WORD	n/a	wordpools/wordpool_categorized_EN.txt	TORNADO	Weather	7	25	[0, 0, 0]	n/a	catFR1	0	R1291M
2855.73	2.569	1526897	WORD	n/a	wordpools/wordpool_categorized_EN.txt	CLOUD	Weather	8	25	[0, 0, 0]	n/a	catFR1	0	R1291M
2858.299	2.617	1528181	WORD	n/a	wordpools/wordpool_categorized_EN.txt	KNIFE	KitchenTools	9	25	[0, 0, 0]	n/a	catFR1	0	R1291M
2860.916	2.467	1529490	WORD	n/a	wordpools/wordpool_categorized_EN.txt	LADLE	KitchenTools	10	25	[0, 0, 0]	n/a	catFR1	0	R1291M
2863.383	2.484	1530723	WORD	n/a	wordpools/wordpool_categorized_EN.txt	VIOLIN	Instruments	11	25	[0, 0, 0]	n/a	catFR1	0	R1291M
2865.867	1.617	1531965	WORD	n/a	wordpools/wordpool_categorized_EN.txt	TRUMPET	Instruments	12	25	[0, 0, 0]	n/a	catFR1	0	R1291M
2867.484	0.001	1532774	DISTRACT_START	n/a	n/a	n/a	n/a	-999	25	[0, 0, 0]	n/a	catFR1	0	R1291M
2867.485	0.015	1532774	START	n/a	n/a	n/a	n/a	-999	25	[-999, -999, -999]	n/a	catFR1	0	R1291M
2867.5	4.034	1532782	PROB	4.005	n/a	n/a	n/a	-999	25	[2, 8, 3]	13.0	catFR1	0	R1291M
2871.534	3.801	1534798	PROB	3.779	n/a	n/a	n/a	-999	25	[2, 3, 4]	9.0	catFR1	0	R1291M
2875.335	2.934	1536699	PROB	2.898	n/a	n/a	n/a	-999	25	[2, 5, 1]	8.0	catFR1	0	R1291M
2878.269	3.651	1538166	PROB	3.628	n/a	n/a	n/a	-999	25	[9, 4, 6]	19.0	catFR1	0	R1291M
2881.92	3.799	1539991	PROB	3.776	n/a	n/a	n/a	-999	25	[3, 5, 7]	15.0	catFR1	0	R1291M
2885.719	5.554	1541891	PROB	5.554	n/a	n/a	n/a	-999	25	[6, 6, 5]	17.0	catFR1	0	R1291M
2891.273	0.015	1544667	STOP	n/a	n/a	n/a	n/a	-999	25	[-999, -999, -999]	n/a	catFR1	0	R1291M
2891.288	1.184	1544675	DISTRACT_END	n/a	n/a	n/a	n/a	-999	25	[0, 0, 0]	n/a	catFR1	0	R1291M
2892.472	1.954	1545267	REC_START	n/a	n/a	n/a	n/a	-999	25	[0, 0, 0]	n/a	catFR1	0	R1291M
2894.426	0.956	1546244	REC_WORD_VV	1.954	n/a	<>	n/a	-999	25	[0, 0, 0]	n/a	catFR1	0	R1291M
2895.382	1.809	1546722	REC_WORD	2.91	n/a	TRUMPET	Instruments	12	25	[0, 0, 0]	n/a	catFR1	0	R1291M
2897.191	1.396	1547626	REC_WORD	4.719	n/a	TUBA	Instruments	3	25	[0, 0, 0]	n/a	catFR1	0	R1291M
2898.587	0.368	1548324	REC_WORD_VV	6.115	n/a	<>	n/a	-999	25	[0, 0, 0]	n/a	catFR1	0	R1291M
2898.955	0.655	1548508	REC_WORD	6.483	n/a	COLANDER	KitchenTools	6	25	[0, 0, 0]	n/a	catFR1	0	R1291M
2899.61	2.615	1548836	REC_WORD	7.138	n/a	STRAINER	KitchenTools	5	25	[0, 0, 0]	n/a	catFR1	0	R1291M
2902.225	11.187	1550143	REC_WORD	9.753	n/a	GUITAR	Instruments	4	25	[0, 0, 0]	n/a	catFR1	0	R1291M
2913.412	9.072	1555736	REC_WORD	20.94	n/a	KNIFE	KitchenTools	9	25	[0, 0, 0]	n/a	catFR1	0	R1291M
2922.484	29.833	1560272	REC_END	n/a	n/a	n/a	n/a	-999	25	[0, 0, 0]	n/a	catFR1	0	R1291M
2952.317	0.0	1575188	SESS_END	n/a	n/a	n/a	n/a	-999	25	[0, 0, 0]	n/a	catFR1	0	R1291M
