onset	duration	sample	trial_type	response_time	stim_file	item_name	category	serialpos	list	test	answer	experiment	session	subject
0.0	1.684	85682	INSTRUCT_START	n/a	n/a	n/a	n/a	-999	-999	[0, 0, 0]	n/a	catFR1	4	R1652A
1.684	24.077	87367	INSTRUCT_END	n/a	n/a	n/a	n/a	-999	-999	[0, 0, 0]	n/a	catFR1	4	R1652A
25.761	10.356	111450	COUNTDOWN_START	n/a	n/a	n/a	n/a	-999	-999	[0, 0, 0]	n/a	catFR1	4	R1652A
36.117	0.0	121800	COUNTDOWN_END	n/a	n/a	n/a	n/a	-999	-999	[0, 0, 0]	n/a	catFR1	4	R1652A
36.117	2.034	121800	ENCODING_START	n/a	n/a	n/a	n/a	-999	-1	[0, 0, 0]	n/a	catFR1	4	R1652A
38.151	1.604	123832	WORD	n/a	n/a	SHEEP	FarmAnimals	1	-1	[0, 0, 0]	n/a	catFR1	4	R1652A
39.755	0.79	125446	WORD_OFF	n/a	n/a	SHEEP	FarmAnimals	1	-1	[0, 0, 0]	n/a	catFR1	4	R1652A
40.545	1.6	126234	WORD	n/a	n/a	GOAT	FarmAnimals	2	-1	[0, 0, 0]	n/a	catFR1	4	R1652A
42.145	0.859	127824	WORD_OFF	n/a	n/a	GOAT	FarmAnimals	2	-1	[0, 0, 0]	n/a	catFR1	4	R1652A
43.004	1.6	128685	WORD	n/a	n/a	MARKER	OfficeSupplies	3	-1	[0, 0, 0]	n/a	catFR1	4	R1652A
44.604	0.958	130286	WORD_OFF	n/a	n/a	MARKER	OfficeSupplies	3	-1	[0, 0, 0]	n/a	catFR1	4	R1652A
45.562	1.609	131242	WORD	n/a	n/a	FOLDER	OfficeSupplies	4	-1	[0, 0, 0]	n/a	catFR1	4	R1652A
47.171	0.867	132856	WORD_OFF	n/a	n/a	FOLDER	OfficeSupplies	4	-1	[0, 0, 0]	n/a	catFR1	4	R1652A
48.038	1.607	133728	WORD	n/a	n/a	REFRIGERATOR	Appliances	5	-1	[0, 0, 0]	n/a	catFR1	4	R1652A
49.645	0.842	135330	WORD_OFF	n/a	n/a	REFRIGERATOR	Appliances	5	-1	[0, 0, 0]	n/a	catFR1	4	R1652A
50.487	1.609	136178	WORD	n/a	n/a	WASHER	Appliances	6	-1	[0, 0, 0]	n/a	catFR1	4	R1652A
52.096	0.923	137780	WORD_OFF	n/a	n/a	WASHER	Appliances	6	-1	[0, 0, 0]	n/a	catFR1	4	R1652A
53.019	1.6	138700	WORD	n/a	n/a	HEN	FarmAnimals	7	-1	[0, 0, 0]	n/a	catFR1	4	R1652A
54.619	0.819	140302	WORD_OFF	n/a	n/a	HEN	FarmAnimals	7	-1	[0, 0, 0]	n/a	catFR1	4	R1652A
55.438	1.608	141126	WORD	n/a	n/a	CALF	FarmAnimals	8	-1	[0, 0, 0]	n/a	catFR1	4	R1652A
57.046	0.806	142728	WORD_OFF	n/a	n/a	CALF	FarmAnimals	8	-1	[0, 0, 0]	n/a	catFR1	4	R1652A
57.852	1.601	143541	WORD	n/a	n/a	NOTEBOOK	OfficeSupplies	9	-1	[0, 0, 0]	n/a	catFR1	4	R1652A
59.453	0.808	145142	WORD_OFF	n/a	n/a	NOTEBOOK	OfficeSupplies	9	-1	[0, 0, 0]	n/a	catFR1	4	R1652A
60.261	1.601	145943	WORD	n/a	n/a	TAPE	OfficeSupplies	10	-1	[0, 0, 0]	n/a	catFR1	4	R1652A
61.862	0.943	147544	WORD_OFF	n/a	n/a	TAPE	OfficeSupplies	10	-1	[0, 0, 0]	n/a	catFR1	4	R1652A
62.805	1.605	148489	WORD	n/a	n/a	STOVE	Appliances	11	-1	[0, 0, 0]	n/a	catFR1	4	R1652A
64.41	0.852	150090	WORD_OFF	n/a	n/a	STOVE	Appliances	11	-1	[0, 0, 0]	n/a	catFR1	4	R1652A
65.262	1.604	150951	WORD	n/a	n/a	BLENDER	Appliances	12	-1	[0, 0, 0]	n/a	catFR1	4	R1652A
66.866	0.001	152549	START	n/a	n/a	n/a	n/a	-999	-1	[-999, -999, -999]	n/a	catFR1	4	R1652A
66.867	0.0	152550	PROB	7.466	n/a	n/a	n/a	-999	-1	[8, 8, 3]	19.0	catFR1	4	R1652A
66.863	0.002	152552	WORD_OFF	n/a	n/a	BLENDER	Appliances	12	-1	[0, 0, 0]	n/a	catFR1	4	R1652A
66.865	0.001	152552	ENCODING_END	n/a	n/a	n/a	n/a	-999	-1	[0, 0, 0]	n/a	catFR1	4	R1652A
66.866	7.48	152552	DISTRACT_START	n/a	n/a	n/a	n/a	-999	-1	[0, 0, 0]	n/a	catFR1	4	R1652A
74.346	4.54	160029	PROB	4.534	n/a	n/a	n/a	-999	-1	[2, 6, 3]	11.0	catFR1	4	R1652A
78.886	6.118	164569	PROB	6.108	n/a	n/a	n/a	-999	-1	[1, 8, 1]	10.0	catFR1	4	R1652A
85.004	4.775	170687	PROB	4.766	n/a	n/a	n/a	-999	-1	[3, 8, 1]	12.0	catFR1	4	R1652A
89.779	0.0	175462	STOP	n/a	n/a	n/a	n/a	-999	-1	[-999, -999, -999]	n/a	catFR1	4	R1652A
89.779	2.06	175464	DISTRACT_END	n/a	n/a	n/a	n/a	-999	-1	[0, 0, 0]	n/a	catFR1	4	R1652A
91.839	2.051	177520	REC_START	n/a	n/a	n/a	n/a	-999	-1	[0, 0, 0]	n/a	catFR1	4	R1652A
93.89	2.129	179573	REC_WORD	2.051	n/a	REFRIGERATOR	Appliances	5	-1	[0, 0, 0]	n/a	catFR1	4	R1652A
96.019	1.876	181702	REC_WORD	4.18	n/a	WASHER	Appliances	6	-1	[0, 0, 0]	n/a	catFR1	4	R1652A
97.895	3.76	183578	REC_WORD	6.056	n/a	NOTEBOOK	OfficeSupplies	9	-1	[0, 0, 0]	n/a	catFR1	4	R1652A
101.655	20.326	187338	REC_WORD	9.816	n/a	PEN	n/a	-999	-1	[0, 0, 0]	n/a	catFR1	4	R1652A
121.981	6.255	207662	REC_END	n/a	n/a	n/a	n/a	-999	-1	[0, 0, 0]	n/a	catFR1	4	R1652A
128.236	10.345	213925	COUNTDOWN_START	n/a	n/a	n/a	n/a	-999	1	[0, 0, 0]	n/a	catFR1	4	R1652A
138.581	0.0	224263	COUNTDOWN_END	n/a	n/a	n/a	n/a	-999	1	[0, 0, 0]	n/a	catFR1	4	R1652A
138.581	2.156	224263	ENCODING_START	n/a	n/a	n/a	n/a	-999	1	[0, 0, 0]	n/a	catFR1	4	R1652A
140.737	1.607	226426	WORD	n/a	wordpools/wordpool_categorized_EN.txt	KNIFE	KitchenTools	1	1	[0, 0, 0]	n/a	catFR1	4	R1652A
142.344	0.952	228028	WORD_OFF	n/a	n/a	KNIFE	KitchenTools	1	1	[0, 0, 0]	n/a	catFR1	4	R1652A
143.296	1.6	228984	WORD	n/a	wordpools/wordpool_categorized_EN.txt	TONGS	KitchenTools	2	1	[0, 0, 0]	n/a	catFR1	4	R1652A
144.896	0.791	230574	WORD_OFF	n/a	n/a	TONGS	KitchenTools	2	1	[0, 0, 0]	n/a	catFR1	4	R1652A
145.687	1.609	231374	WORD	n/a	wordpools/wordpool_categorized_EN.txt	PIANO	Instruments	3	1	[0, 0, 0]	n/a	catFR1	4	R1652A
147.296	0.85	232976	WORD_OFF	n/a	n/a	PIANO	Instruments	3	1	[0, 0, 0]	n/a	catFR1	4	R1652A
148.146	1.607	233825	WORD	n/a	wordpools/wordpool_categorized_EN.txt	TROMBONE	Instruments	4	1	[0, 0, 0]	n/a	catFR1	4	R1652A
149.753	0.951	235438	WORD_OFF	n/a	n/a	TROMBONE	Instruments	4	1	[0, 0, 0]	n/a	catFR1	4	R1652A
150.704	1.6	236394	WORD	n/a	wordpools/wordpool_categorized_EN.txt	BATHROOM	Building	5	1	[0, 0, 0]	n/a	catFR1	4	R1652A
152.304	0.982	237984	WORD_OFF	n/a	n/a	BATHROOM	Building	5	1	[0, 0, 0]	n/a	catFR1	4	R1652A
153.286	1.6	238976	WORD	n/a	wordpools/wordpool_categorized_EN.txt	FLOOR	Building	6	1	[0, 0, 0]	n/a	catFR1	4	R1652A
154.886	1.001	240565	WORD_OFF	n/a	n/a	FLOOR	Building	6	1	[0, 0, 0]	n/a	catFR1	4	R1652A
155.887	1.609	241569	WORD	n/a	wordpools/wordpool_categorized_EN.txt	CORKSCREW	KitchenTools	7	1	[0, 0, 0]	n/a	catFR1	4	R1652A
157.496	0.993	243183	WORD_OFF	n/a	n/a	CORKSCREW	KitchenTools	7	1	[0, 0, 0]	n/a	catFR1	4	R1652A
158.489	1.607	244175	WORD	n/a	wordpools/wordpool_categorized_EN.txt	WHISK	KitchenTools	8	1	[0, 0, 0]	n/a	catFR1	4	R1652A
160.096	0.85	245776	WORD_OFF	n/a	n/a	WHISK	KitchenTools	8	1	[0, 0, 0]	n/a	catFR1	4	R1652A
160.946	1.608	246625	WORD	n/a	wordpools/wordpool_categorized_EN.txt	GUITAR	Instruments	9	1	[0, 0, 0]	n/a	catFR1	4	R1652A
162.554	0.765	248238	WORD_OFF	n/a	n/a	GUITAR	Instruments	9	1	[0, 0, 0]	n/a	catFR1	4	R1652A
163.319	1.6	249003	WORD	n/a	wordpools/wordpool_categorized_EN.txt	TRUMPET	Instruments	10	1	[0, 0, 0]	n/a	catFR1	4	R1652A
164.919	0.975	250605	WORD_OFF	n/a	n/a	TRUMPET	Instruments	10	1	[0, 0, 0]	n/a	catFR1	4	R1652A
165.894	1.61	251573	WORD	n/a	wordpools/wordpool_categorized_EN.txt	STAIRS	Building	11	1	[0, 0, 0]	n/a	catFR1	4	R1652A
167.504	0.816	253186	WORD_OFF	n/a	n/a	STAIRS	Building	11	1	[0, 0, 0]	n/a	catFR1	4	R1652A
168.32	1.609	253999	WORD	n/a	wordpools/wordpool_categorized_EN.txt	CEILING	Building	12	1	[0, 0, 0]	n/a	catFR1	4	R1652A
169.929	0.003	255613	WORD_OFF	n/a	n/a	CEILING	Building	12	1	[0, 0, 0]	n/a	catFR1	4	R1652A
169.932	0.0	255613	ENCODING_END	n/a	n/a	n/a	n/a	-999	1	[0, 0, 0]	n/a	catFR1	4	R1652A
169.932	0.0	255613	DISTRACT_START	n/a	n/a	n/a	n/a	-999	1	[0, 0, 0]	n/a	catFR1	4	R1652A
169.93	0.002	255613	PROB	5.132	n/a	n/a	n/a	-999	1	[3, 1, 3]	7.0	catFR1	4	R1652A
169.932	5.138	255615	START	n/a	n/a	n/a	n/a	-999	1	[-999, -999, -999]	n/a	catFR1	4	R1652A
175.07	4.9	260753	PROB	4.891	n/a	n/a	n/a	-999	1	[5, 5, 3]	13.0	catFR1	4	R1652A
179.97	12.541	265653	PROB	12.533	n/a	n/a	n/a	-999	1	[7, 6, 8]	19.0	catFR1	4	R1652A
192.511	0.0	278190	DISTRACT_END	n/a	n/a	n/a	n/a	-999	1	[0, 0, 0]	n/a	catFR1	4	R1652A
192.511	2.018	278194	STOP	n/a	n/a	n/a	n/a	-999	1	[-999, -999, -999]	n/a	catFR1	4	R1652A
194.529	2.681	280209	REC_START	n/a	n/a	n/a	n/a	-999	1	[0, 0, 0]	n/a	catFR1	4	R1652A
197.21	1.765	282893	REC_WORD	2.681	n/a	BATHROOM	Building	5	1	[0, 0, 0]	n/a	catFR1	4	R1652A
198.975	1.997	284658	REC_WORD	4.446	n/a	STAIRS	Building	11	1	[0, 0, 0]	n/a	catFR1	4	R1652A
200.972	2.115	286655	REC_WORD	6.443	n/a	CEILING	Building	12	1	[0, 0, 0]	n/a	catFR1	4	R1652A
203.087	2.202	288770	REC_WORD	8.558	n/a	WHISK	KitchenTools	8	1	[0, 0, 0]	n/a	catFR1	4	R1652A
205.289	9.768	290972	REC_WORD	10.76	n/a	CORKSCREW	KitchenTools	7	1	[0, 0, 0]	n/a	catFR1	4	R1652A
215.057	1.881	300740	REC_WORD	20.528	n/a	TONGS	KitchenTools	2	1	[0, 0, 0]	n/a	catFR1	4	R1652A
216.938	7.737	302621	REC_WORD	22.409	n/a	KNIFE	KitchenTools	1	1	[0, 0, 0]	n/a	catFR1	4	R1652A
224.675	7.802	310352	REC_END	n/a	n/a	n/a	n/a	-999	1	[0, 0, 0]	n/a	catFR1	4	R1652A
232.477	10.342	318156	COUNTDOWN_START	n/a	n/a	n/a	n/a	-999	2	[0, 0, 0]	n/a	catFR1	4	R1652A
242.819	0.001	328507	COUNTDOWN_END	n/a	n/a	n/a	n/a	-999	2	[0, 0, 0]	n/a	catFR1	4	R1652A
242.82	2.232	328507	ENCODING_START	n/a	n/a	n/a	n/a	-999	2	[0, 0, 0]	n/a	catFR1	4	R1652A
245.052	1.601	330737	WORD	n/a	wordpools/wordpool_categorized_EN.txt	CELLO	Instruments	1	2	[0, 0, 0]	n/a	catFR1	4	R1652A
246.653	0.885	332343	WORD_OFF	n/a	n/a	CELLO	Instruments	1	2	[0, 0, 0]	n/a	catFR1	4	R1652A
247.538	1.606	333216	WORD	n/a	wordpools/wordpool_categorized_EN.txt	BANJO	Instruments	2	2	[0, 0, 0]	n/a	catFR1	4	R1652A
249.144	0.877	334829	WORD_OFF	n/a	n/a	BANJO	Instruments	2	2	[0, 0, 0]	n/a	catFR1	4	R1652A
250.021	1.607	335702	WORD	n/a	wordpools/wordpool_categorized_EN.txt	CROWBAR	Tools	3	2	[0, 0, 0]	n/a	catFR1	4	R1652A
251.628	0.916	337315	WORD_OFF	n/a	n/a	CROWBAR	Tools	3	2	[0, 0, 0]	n/a	catFR1	4	R1652A
252.544	1.602	338223	WORD	n/a	wordpools/wordpool_categorized_EN.txt	HAMMER	Tools	4	2	[0, 0, 0]	n/a	catFR1	4	R1652A
254.146	0.998	339825	WORD_OFF	n/a	n/a	HAMMER	Tools	4	2	[0, 0, 0]	n/a	catFR1	4	R1652A
255.144	1.602	340829	WORD	n/a	wordpools/wordpool_categorized_EN.txt	THUNDERSTORM	Weather	5	2	[0, 0, 0]	n/a	catFR1	4	R1652A
256.746	0.848	342430	WORD_OFF	n/a	n/a	THUNDERSTORM	Weather	5	2	[0, 0, 0]	n/a	catFR1	4	R1652A
257.594	1.61	343279	WORD	n/a	wordpools/wordpool_categorized_EN.txt	FOG	Weather	6	2	[0, 0, 0]	n/a	catFR1	4	R1652A
259.204	0.782	344893	WORD_OFF	n/a	n/a	FOG	Weather	6	2	[0, 0, 0]	n/a	catFR1	4	R1652A
259.986	1.601	345669	WORD	n/a	wordpools/wordpool_categorized_EN.txt	LEVEL	Tools	7	2	[0, 0, 0]	n/a	catFR1	4	R1652A
261.587	0.824	347271	WORD_OFF	n/a	n/a	LEVEL	Tools	7	2	[0, 0, 0]	n/a	catFR1	4	R1652A
262.411	1.601	348096	WORD	n/a	wordpools/wordpool_categorized_EN.txt	SCREWDRIVER	Tools	8	2	[0, 0, 0]	n/a	catFR1	4	R1652A
264.012	0.784	349697	WORD_OFF	n/a	n/a	SCREWDRIVER	Tools	8	2	[0, 0, 0]	n/a	catFR1	4	R1652A
264.796	1.607	350474	WORD	n/a	wordpools/wordpool_categorized_EN.txt	ORGAN	Instruments	9	2	[0, 0, 0]	n/a	catFR1	4	R1652A
266.403	0.983	352088	WORD_OFF	n/a	n/a	ORGAN	Instruments	9	2	[0, 0, 0]	n/a	catFR1	4	R1652A
267.386	1.61	353068	WORD	n/a	wordpools/wordpool_categorized_EN.txt	TUBA	Instruments	10	2	[0, 0, 0]	n/a	catFR1	4	R1652A
268.996	0.798	354681	WORD_OFF	n/a	n/a	TUBA	Instruments	10	2	[0, 0, 0]	n/a	catFR1	4	R1652A
269.794	1.6	355482	WORD	n/a	wordpools/wordpool_categorized_EN.txt	RAIN	Weather	11	2	[0, 0, 0]	n/a	catFR1	4	R1652A
271.394	0.834	357083	WORD_OFF	n/a	n/a	RAIN	Weather	11	2	[0, 0, 0]	n/a	catFR1	4	R1652A
272.228	1.6	357908	WORD	n/a	wordpools/wordpool_categorized_EN.txt	THUNDER	Weather	12	2	[0, 0, 0]	n/a	catFR1	4	R1652A
273.828	0.002	359510	WORD_OFF	n/a	n/a	THUNDER	Weather	12	2	[0, 0, 0]	n/a	catFR1	4	R1652A
273.83	0.0	359510	ENCODING_END	n/a	n/a	n/a	n/a	-999	2	[0, 0, 0]	n/a	catFR1	4	R1652A
273.83	0.0	359510	DISTRACT_START	n/a	n/a	n/a	n/a	-999	2	[0, 0, 0]	n/a	catFR1	4	R1652A
273.828	0.002	359511	PROB	7.041	n/a	n/a	n/a	-999	2	[8, 1, 7]	16.0	catFR1	4	R1652A
273.83	7.048	359513	START	n/a	n/a	n/a	n/a	-999	2	[-999, -999, -999]	n/a	catFR1	4	R1652A
280.878	4.625	366560	PROB	4.616	n/a	n/a	n/a	-999	2	[2, 6, 6]	14.0	catFR1	4	R1652A
285.503	5.858	371185	PROB	5.849	n/a	n/a	n/a	-999	2	[6, 8, 8]	23.0	catFR1	4	R1652A
291.361	5.499	377043	PROB	5.492	n/a	n/a	n/a	-999	2	[6, 4, 2]	12.0	catFR1	4	R1652A
296.86	0.0	382541	DISTRACT_END	n/a	n/a	n/a	n/a	-999	2	[0, 0, 0]	n/a	catFR1	4	R1652A
296.86	2.127	382542	STOP	n/a	n/a	n/a	n/a	-999	2	[-999, -999, -999]	n/a	catFR1	4	R1652A
298.987	1.277	384668	REC_START	n/a	n/a	n/a	n/a	-999	2	[0, 0, 0]	n/a	catFR1	4	R1652A
300.264	2.997	385946	REC_WORD	1.277	n/a	THUNDERSTORM	Weather	5	2	[0, 0, 0]	n/a	catFR1	4	R1652A
303.261	4.372	388943	REC_WORD	4.274	n/a	CELLO	Instruments	1	2	[0, 0, 0]	n/a	catFR1	4	R1652A
307.633	21.5	393315	REC_WORD	8.646	n/a	HAMMER	Tools	4	2	[0, 0, 0]	n/a	catFR1	4	R1652A
329.133	3.761	414811	REC_END	n/a	n/a	n/a	n/a	-999	2	[0, 0, 0]	n/a	catFR1	4	R1652A
332.894	10.342	418575	COUNTDOWN_START	n/a	n/a	n/a	n/a	-999	3	[0, 0, 0]	n/a	catFR1	4	R1652A
343.236	0.0	428914	COUNTDOWN_END	n/a	n/a	n/a	n/a	-999	3	[0, 0, 0]	n/a	catFR1	4	R1652A
343.236	2.118	428926	ENCODING_START	n/a	n/a	n/a	n/a	-999	3	[0, 0, 0]	n/a	catFR1	4	R1652A
345.354	1.608	431041	WORD	n/a	wordpools/wordpool_categorized_EN.txt	TURKEY	FarmAnimals	1	3	[0, 0, 0]	n/a	catFR1	4	R1652A
346.962	0.967	432643	WORD_OFF	n/a	n/a	TURKEY	FarmAnimals	1	3	[0, 0, 0]	n/a	catFR1	4	R1652A
347.929	1.61	433611	WORD	n/a	wordpools/wordpool_categorized_EN.txt	PIG	FarmAnimals	2	3	[0, 0, 0]	n/a	catFR1	4	R1652A
349.539	0.789	435224	WORD_OFF	n/a	n/a	PIG	FarmAnimals	2	3	[0, 0, 0]	n/a	catFR1	4	R1652A
350.328	1.601	436013	WORD	n/a	wordpools/wordpool_categorized_EN.txt	SQUID	OceanAnimals	3	3	[0, 0, 0]	n/a	catFR1	4	R1652A
351.929	0.792	437615	WORD_OFF	n/a	n/a	SQUID	OceanAnimals	3	3	[0, 0, 0]	n/a	catFR1	4	R1652A
352.721	1.608	438403	WORD	n/a	wordpools/wordpool_categorized_EN.txt	LOBSTER	OceanAnimals	4	3	[0, 0, 0]	n/a	catFR1	4	R1652A
354.329	0.832	440017	WORD_OFF	n/a	n/a	LOBSTER	OceanAnimals	4	3	[0, 0, 0]	n/a	catFR1	4	R1652A
355.161	1.601	440842	WORD	n/a	wordpools/wordpool_categorized_EN.txt	JACKET	Clothing	5	3	[0, 0, 0]	n/a	catFR1	4	R1652A
356.762	0.875	442443	WORD_OFF	n/a	n/a	JACKET	Clothing	5	3	[0, 0, 0]	n/a	catFR1	4	R1652A
357.637	1.608	443316	WORD	n/a	wordpools/wordpool_categorized_EN.txt	SHORTS	Clothing	6	3	[0, 0, 0]	n/a	catFR1	4	R1652A
359.245	0.866	444929	WORD_OFF	n/a	n/a	SHORTS	Clothing	6	3	[0, 0, 0]	n/a	catFR1	4	R1652A
360.111	1.601	445790	WORD	n/a	wordpools/wordpool_categorized_EN.txt	FISH	OceanAnimals	7	3	[0, 0, 0]	n/a	catFR1	4	R1652A
361.712	0.759	447391	WORD_OFF	n/a	n/a	FISH	OceanAnimals	7	3	[0, 0, 0]	n/a	catFR1	4	R1652A
362.471	1.608	448156	WORD	n/a	wordpools/wordpool_categorized_EN.txt	WHALE	OceanAnimals	8	3	[0, 0, 0]	n/a	catFR1	4	R1652A
364.079	0.808	449758	WORD_OFF	n/a	n/a	WHALE	OceanAnimals	8	3	[0, 0, 0]	n/a	catFR1	4	R1652A
364.887	1.6	450570	WORD	n/a	wordpools/wordpool_categorized_EN.txt	BLOUSE	Clothing	9	3	[0, 0, 0]	n/a	catFR1	4	R1652A
366.487	0.8	452172	WORD_OFF	n/a	n/a	BLOUSE	Clothing	9	3	[0, 0, 0]	n/a	catFR1	4	R1652A
367.287	1.608	452973	WORD	n/a	wordpools/wordpool_categorized_EN.txt	JEANS	Clothing	10	3	[0, 0, 0]	n/a	catFR1	4	R1652A
368.895	0.817	454574	WORD_OFF	n/a	n/a	JEANS	Clothing	10	3	[0, 0, 0]	n/a	catFR1	4	R1652A
369.712	1.6	455399	WORD	n/a	wordpools/wordpool_categorized_EN.txt	BULL	FarmAnimals	11	3	[0, 0, 0]	n/a	catFR1	4	R1652A
371.312	0.79	457000	WORD_OFF	n/a	n/a	BULL	FarmAnimals	11	3	[0, 0, 0]	n/a	catFR1	4	R1652A
372.102	1.601	457789	WORD	n/a	wordpools/wordpool_categorized_EN.txt	HORSE	FarmAnimals	12	3	[0, 0, 0]	n/a	catFR1	4	R1652A
373.703	0.003	459385	PROB	5.741	n/a	n/a	n/a	-999	3	[2, 1, 6]	9.0	catFR1	4	R1652A
373.706	0.0	459388	START	n/a	n/a	n/a	n/a	-999	3	[-999, -999, -999]	n/a	catFR1	4	R1652A
373.703	0.003	459391	WORD_OFF	n/a	n/a	HORSE	FarmAnimals	12	3	[0, 0, 0]	n/a	catFR1	4	R1652A
373.706	0.0	459391	ENCODING_END	n/a	n/a	n/a	n/a	-999	3	[0, 0, 0]	n/a	catFR1	4	R1652A
373.706	5.748	459391	DISTRACT_START	n/a	n/a	n/a	n/a	-999	3	[0, 0, 0]	n/a	catFR1	4	R1652A
379.454	4.216	465136	PROB	4.207	n/a	n/a	n/a	-999	3	[4, 1, 1]	6.0	catFR1	4	R1652A
383.67	5.242	469352	PROB	5.233	n/a	n/a	n/a	-999	3	[4, 7, 7]	18.0	catFR1	4	R1652A
388.912	4.459	474594	PROB	4.45	n/a	n/a	n/a	-999	3	[3, 5, 5]	13.0	catFR1	4	R1652A
393.371	5.016	479053	PROB	5.008	n/a	n/a	n/a	-999	3	[8, 7, 2]	17.0	catFR1	4	R1652A
398.387	0.0	484069	STOP	n/a	n/a	n/a	n/a	-999	3	[-999, -999, -999]	n/a	catFR1	4	R1652A
398.387	2.232	484071	DISTRACT_END	n/a	n/a	n/a	n/a	-999	3	[0, 0, 0]	n/a	catFR1	4	R1652A
400.619	0.704	486306	REC_START	n/a	n/a	n/a	n/a	-999	3	[0, 0, 0]	n/a	catFR1	4	R1652A
401.323	1.874	487005	REC_WORD	0.704	n/a	TURKEY	FarmAnimals	1	3	[0, 0, 0]	n/a	catFR1	4	R1652A
403.197	1.626	488879	REC_WORD	2.578	n/a	PIG	FarmAnimals	2	3	[0, 0, 0]	n/a	catFR1	4	R1652A
404.823	2.209	490505	REC_WORD	4.204	n/a	SQUID	OceanAnimals	3	3	[0, 0, 0]	n/a	catFR1	4	R1652A
407.032	1.765	492714	REC_WORD	6.413	n/a	LOBSTER	OceanAnimals	4	3	[0, 0, 0]	n/a	catFR1	4	R1652A
408.797	2.151	494479	REC_WORD	8.178	n/a	FISH	OceanAnimals	7	3	[0, 0, 0]	n/a	catFR1	4	R1652A
410.948	2.282	496630	REC_WORD	10.329	n/a	WHALE	OceanAnimals	8	3	[0, 0, 0]	n/a	catFR1	4	R1652A
413.23	7.561	498912	REC_WORD	12.611	n/a	HORSE	FarmAnimals	12	3	[0, 0, 0]	n/a	catFR1	4	R1652A
420.791	1.718	506473	REC_WORD	20.172	n/a	BLOUSE	Clothing	9	3	[0, 0, 0]	n/a	catFR1	4	R1652A
422.509	3.211	508191	REC_WORD	21.89	n/a	SHORTS	Clothing	6	3	[0, 0, 0]	n/a	catFR1	4	R1652A
425.72	3.815	511402	REC_WORD	25.101	n/a	PANTS	n/a	-999	3	[0, 0, 0]	n/a	catFR1	4	R1652A
429.535	1.225	515217	REC_WORD	28.916	n/a	JEANS	Clothing	10	3	[0, 0, 0]	n/a	catFR1	4	R1652A
430.76	149.485	516437	REC_END	n/a	n/a	n/a	n/a	-999	3	[0, 0, 0]	n/a	catFR1	4	R1652A
580.245	10.35	665930	COUNTDOWN_START	n/a	n/a	n/a	n/a	-999	4	[0, 0, 0]	n/a	catFR1	4	R1652A
590.595	0.001	676280	COUNTDOWN_END	n/a	n/a	n/a	n/a	-999	4	[0, 0, 0]	n/a	catFR1	4	R1652A
590.596	2.075	676280	ENCODING_START	n/a	n/a	n/a	n/a	-999	4	[0, 0, 0]	n/a	catFR1	4	R1652A
592.671	1.599	678348	WORD	n/a	wordpools/wordpool_categorized_EN.txt	BEAR	Zoo	1	4	[0, 0, 0]	n/a	catFR1	4	R1652A
594.27	0.85	679949	WORD_OFF	n/a	n/a	BEAR	Zoo	1	4	[0, 0, 0]	n/a	catFR1	4	R1652A
595.12	1.609	680798	WORD	n/a	wordpools/wordpool_categorized_EN.txt	CHIMPANZEE	Zoo	2	4	[0, 0, 0]	n/a	catFR1	4	R1652A
596.729	0.791	682411	WORD_OFF	n/a	n/a	CHIMPANZEE	Zoo	2	4	[0, 0, 0]	n/a	catFR1	4	R1652A
597.52	1.607	683200	WORD	n/a	wordpools/wordpool_categorized_EN.txt	CABBAGE	Vegetables	3	4	[0, 0, 0]	n/a	catFR1	4	R1652A
599.127	0.825	684814	WORD_OFF	n/a	n/a	CABBAGE	Vegetables	3	4	[0, 0, 0]	n/a	catFR1	4	R1652A
599.952	1.602	685638	WORD	n/a	wordpools/wordpool_categorized_EN.txt	CORN	Vegetables	4	4	[0, 0, 0]	n/a	catFR1	4	R1652A
601.554	0.823	687240	WORD_OFF	n/a	n/a	CORN	Vegetables	4	4	[0, 0, 0]	n/a	catFR1	4	R1652A
602.377	1.6	688053	WORD	n/a	wordpools/wordpool_categorized_EN.txt	PIGEON	Birds	5	4	[0, 0, 0]	n/a	catFR1	4	R1652A
603.977	0.817	689654	WORD_OFF	n/a	n/a	PIGEON	Birds	5	4	[0, 0, 0]	n/a	catFR1	4	R1652A
604.794	1.601	690479	WORD	n/a	wordpools/wordpool_categorized_EN.txt	FINCH	Birds	6	4	[0, 0, 0]	n/a	catFR1	4	R1652A
606.395	0.824	692080	WORD_OFF	n/a	n/a	FINCH	Birds	6	4	[0, 0, 0]	n/a	catFR1	4	R1652A
607.219	1.6	692905	WORD	n/a	wordpools/wordpool_categorized_EN.txt	GIRAFFE	Zoo	7	4	[0, 0, 0]	n/a	catFR1	4	R1652A
608.819	0.842	694495	WORD_OFF	n/a	n/a	GIRAFFE	Zoo	7	4	[0, 0, 0]	n/a	catFR1	4	R1652A
609.661	1.599	695343	WORD	n/a	wordpools/wordpool_categorized_EN.txt	ZEBRA	Zoo	8	4	[0, 0, 0]	n/a	catFR1	4	R1652A
611.26	0.969	696945	WORD_OFF	n/a	n/a	ZEBRA	Zoo	8	4	[0, 0, 0]	n/a	catFR1	4	R1652A
612.229	1.606	697913	WORD	n/a	wordpools/wordpool_categorized_EN.txt	CROW	Birds	9	4	[0, 0, 0]	n/a	catFR1	4	R1652A
613.835	0.902	699514	WORD_OFF	n/a	n/a	CROW	Birds	9	4	[0, 0, 0]	n/a	catFR1	4	R1652A
614.737	1.607	700423	WORD	n/a	wordpools/wordpool_categorized_EN.txt	HAWK	Birds	10	4	[0, 0, 0]	n/a	catFR1	4	R1652A
616.344	0.81	702024	WORD_OFF	n/a	n/a	HAWK	Birds	10	4	[0, 0, 0]	n/a	catFR1	4	R1652A
617.154	1.606	702837	WORD	n/a	wordpools/wordpool_categorized_EN.txt	BROCCOLI	Vegetables	11	4	[0, 0, 0]	n/a	catFR1	4	R1652A
618.76	0.802	704438	WORD_OFF	n/a	n/a	BROCCOLI	Vegetables	11	4	[0, 0, 0]	n/a	catFR1	4	R1652A
619.562	1.608	705239	WORD	n/a	wordpools/wordpool_categorized_EN.txt	SPINACH	Vegetables	12	4	[0, 0, 0]	n/a	catFR1	4	R1652A
621.17	0.001	706851	PROB	6.14	n/a	n/a	n/a	-999	4	[8, 3, 3]	14.0	catFR1	4	R1652A
621.171	0.004	706853	WORD_OFF	n/a	n/a	SPINACH	Vegetables	12	4	[0, 0, 0]	n/a	catFR1	4	R1652A
621.175	0.0	706853	ENCODING_END	n/a	n/a	n/a	n/a	-999	4	[0, 0, 0]	n/a	catFR1	4	R1652A
621.175	0.0	706853	DISTRACT_START	n/a	n/a	n/a	n/a	-999	4	[0, 0, 0]	n/a	catFR1	4	R1652A
621.175	6.145	706856	START	n/a	n/a	n/a	n/a	-999	4	[-999, -999, -999]	n/a	catFR1	4	R1652A
627.32	4.716	713001	PROB	4.707	n/a	n/a	n/a	-999	4	[7, 3, 7]	17.0	catFR1	4	R1652A
632.036	4.207	717717	PROB	4.199	n/a	n/a	n/a	-999	4	[4, 3, 7]	14.0	catFR1	4	R1652A
636.243	5.134	721924	PROB	5.125	n/a	n/a	n/a	-999	4	[1, 2, 6]	9.0	catFR1	4	R1652A
641.377	0.0	727058	STOP	n/a	n/a	n/a	n/a	-999	4	[-999, -999, -999]	n/a	catFR1	4	R1652A
641.377	2.235	727063	DISTRACT_END	n/a	n/a	n/a	n/a	-999	4	[0, 0, 0]	n/a	catFR1	4	R1652A
643.612	0.766	729298	REC_START	n/a	n/a	n/a	n/a	-999	4	[0, 0, 0]	n/a	catFR1	4	R1652A
644.378	1.642	730059	REC_WORD	0.766	n/a	BROCCOLI	Vegetables	11	4	[0, 0, 0]	n/a	catFR1	4	R1652A
646.02	1.602	731701	REC_WORD	2.408	n/a	CORN	Vegetables	4	4	[0, 0, 0]	n/a	catFR1	4	R1652A
647.622	2.787	733303	REC_WORD	4.01	n/a	SPINACH	Vegetables	12	4	[0, 0, 0]	n/a	catFR1	4	R1652A
650.409	3.535	736090	REC_WORD	6.797	n/a	CHIMPANZEE	Zoo	2	4	[0, 0, 0]	n/a	catFR1	4	R1652A
653.944	18.383	739625	REC_WORD	10.332	n/a	FINCH	Birds	6	4	[0, 0, 0]	n/a	catFR1	4	R1652A
672.327	1.421	758008	REC_WORD	28.715	n/a	ZEBRA	Zoo	8	4	[0, 0, 0]	n/a	catFR1	4	R1652A
673.748	207.848	759429	REC_END	n/a	n/a	n/a	n/a	-999	4	[0, 0, 0]	n/a	catFR1	4	R1652A
881.596	10.34	967282	COUNTDOWN_START	n/a	n/a	n/a	n/a	-999	5	[0, 0, 0]	n/a	catFR1	4	R1652A
891.936	0.0	977621	COUNTDOWN_END	n/a	n/a	n/a	n/a	-999	5	[0, 0, 0]	n/a	catFR1	4	R1652A
891.936	2.244	977621	ENCODING_START	n/a	n/a	n/a	n/a	-999	5	[0, 0, 0]	n/a	catFR1	4	R1652A
894.18	1.605	979856	WORD	n/a	wordpools/wordpool_categorized_EN.txt	PIE	Desserts	1	5	[0, 0, 0]	n/a	catFR1	4	R1652A
895.785	0.986	981469	WORD_OFF	n/a	n/a	PIE	Desserts	1	5	[0, 0, 0]	n/a	catFR1	4	R1652A
896.771	1.608	982449	WORD	n/a	wordpools/wordpool_categorized_EN.txt	MOUSSE	Desserts	2	5	[0, 0, 0]	n/a	catFR1	4	R1652A
898.379	0.998	984063	WORD_OFF	n/a	n/a	MOUSSE	Desserts	2	5	[0, 0, 0]	n/a	catFR1	4	R1652A
899.377	1.601	985055	WORD	n/a	wordpools/wordpool_categorized_EN.txt	ATTIC	Building	3	5	[0, 0, 0]	n/a	catFR1	4	R1652A
900.978	0.893	986656	WORD_OFF	n/a	n/a	ATTIC	Building	3	5	[0, 0, 0]	n/a	catFR1	4	R1652A
901.871	1.608	987553	WORD	n/a	wordpools/wordpool_categorized_EN.txt	ROOF	Building	4	5	[0, 0, 0]	n/a	catFR1	4	R1652A
903.479	0.817	989166	WORD_OFF	n/a	n/a	ROOF	Building	4	5	[0, 0, 0]	n/a	catFR1	4	R1652A
904.296	1.608	989979	WORD	n/a	wordpools/wordpool_categorized_EN.txt	BEER	Beverages	5	5	[0, 0, 0]	n/a	catFR1	4	R1652A
905.904	0.965	991580	WORD_OFF	n/a	n/a	BEER	Beverages	5	5	[0, 0, 0]	n/a	catFR1	4	R1652A
906.869	1.6	992549	WORD	n/a	wordpools/wordpool_categorized_EN.txt	RUM	Beverages	6	5	[0, 0, 0]	n/a	catFR1	4	R1652A
908.469	0.985	994150	WORD_OFF	n/a	n/a	RUM	Beverages	6	5	[0, 0, 0]	n/a	catFR1	4	R1652A
909.454	1.6	995130	WORD	n/a	wordpools/wordpool_categorized_EN.txt	PASTRY	Desserts	7	5	[0, 0, 0]	n/a	catFR1	4	R1652A
911.054	0.965	996732	WORD_OFF	n/a	n/a	PASTRY	Desserts	7	5	[0, 0, 0]	n/a	catFR1	4	R1652A
912.019	1.602	997700	WORD	n/a	wordpools/wordpool_categorized_EN.txt	COBBLER	Desserts	8	5	[0, 0, 0]	n/a	catFR1	4	R1652A
913.621	0.967	999301	WORD_OFF	n/a	n/a	COBBLER	Desserts	8	5	[0, 0, 0]	n/a	catFR1	4	R1652A
914.588	1.608	1000269	WORD	n/a	wordpools/wordpool_categorized_EN.txt	LEMONADE	Beverages	9	5	[0, 0, 0]	n/a	catFR1	4	R1652A
916.196	0.85	1001871	WORD_OFF	n/a	n/a	LEMONADE	Beverages	9	5	[0, 0, 0]	n/a	catFR1	4	R1652A
917.046	1.6	1002731	WORD	n/a	wordpools/wordpool_categorized_EN.txt	TEA	Beverages	10	5	[0, 0, 0]	n/a	catFR1	4	R1652A
918.646	0.806	1004333	WORD_OFF	n/a	n/a	TEA	Beverages	10	5	[0, 0, 0]	n/a	catFR1	4	R1652A
919.452	1.602	1005134	WORD	n/a	wordpools/wordpool_categorized_EN.txt	HALLWAY	Building	11	5	[0, 0, 0]	n/a	catFR1	4	R1652A
921.054	1.0	1006735	WORD_OFF	n/a	n/a	HALLWAY	Building	11	5	[0, 0, 0]	n/a	catFR1	4	R1652A
922.054	1.608	1007739	WORD	n/a	wordpools/wordpool_categorized_EN.txt	FOUNDATION	Building	12	5	[0, 0, 0]	n/a	catFR1	4	R1652A
923.662	0.004	1009341	WORD_OFF	n/a	n/a	FOUNDATION	Building	12	5	[0, 0, 0]	n/a	catFR1	4	R1652A
923.666	0.0	1009341	ENCODING_END	n/a	n/a	n/a	n/a	-999	5	[0, 0, 0]	n/a	catFR1	4	R1652A
923.663	0.003	1009343	PROB	4.549	n/a	n/a	n/a	-999	5	[6, 2, 4]	12.0	catFR1	4	R1652A
923.666	0.0	1009346	START	n/a	n/a	n/a	n/a	-999	5	[-999, -999, -999]	n/a	catFR1	4	R1652A
923.666	4.555	1009353	DISTRACT_START	n/a	n/a	n/a	n/a	-999	5	[0, 0, 0]	n/a	catFR1	4	R1652A
928.221	5.141	1013901	PROB	5.133	n/a	n/a	n/a	-999	5	[7, 5, 2]	14.0	catFR1	4	R1652A
933.362	5.308	1019042	PROB	5.3	n/a	n/a	n/a	-999	5	[4, 2, 1]	7.0	catFR1	4	R1652A
938.67	5.391	1024350	PROB	5.383	n/a	n/a	n/a	-999	5	[5, 7, 1]	13.0	catFR1	4	R1652A
944.061	0.0	1029741	STOP	n/a	n/a	n/a	n/a	-999	5	[-999, -999, -999]	n/a	catFR1	4	R1652A
944.061	2.242	1029742	DISTRACT_END	n/a	n/a	n/a	n/a	-999	5	[0, 0, 0]	n/a	catFR1	4	R1652A
946.303	0.857	1031989	REC_START	n/a	n/a	n/a	n/a	-999	5	[0, 0, 0]	n/a	catFR1	4	R1652A
947.16	2.204	1032840	REC_WORD	0.857	n/a	PIE	Desserts	1	5	[0, 0, 0]	n/a	catFR1	4	R1652A
949.364	2.438	1035044	REC_WORD	3.061	n/a	PASTRY	Desserts	7	5	[0, 0, 0]	n/a	catFR1	4	R1652A
951.802	2.122	1037482	REC_WORD	5.499	n/a	LEMONADE	Beverages	9	5	[0, 0, 0]	n/a	catFR1	4	R1652A
953.924	2.232	1039604	REC_WORD	7.621	n/a	TEA	Beverages	10	5	[0, 0, 0]	n/a	catFR1	4	R1652A
956.156	2.264	1041836	REC_WORD	9.853	n/a	BEER	Beverages	5	5	[0, 0, 0]	n/a	catFR1	4	R1652A
958.42	1.95	1044100	REC_WORD	12.117	n/a	RUM	Beverages	6	5	[0, 0, 0]	n/a	catFR1	4	R1652A
960.37	2.439	1046050	REC_WORD	14.067	n/a	FOUNDATION	Building	12	5	[0, 0, 0]	n/a	catFR1	4	R1652A
962.809	13.627	1048489	REC_WORD	16.506	n/a	HALLWAY	Building	11	5	[0, 0, 0]	n/a	catFR1	4	R1652A
976.436	3.342	1062120	REC_END	n/a	n/a	n/a	n/a	-999	5	[0, 0, 0]	n/a	catFR1	4	R1652A
979.778	10.341	1065454	COUNTDOWN_START	n/a	n/a	n/a	n/a	-999	6	[0, 0, 0]	n/a	catFR1	4	R1652A
990.119	0.001	1075805	COUNTDOWN_END	n/a	n/a	n/a	n/a	-999	6	[0, 0, 0]	n/a	catFR1	4	R1652A
990.12	2.083	1075805	ENCODING_START	n/a	n/a	n/a	n/a	-999	6	[0, 0, 0]	n/a	catFR1	4	R1652A
992.203	1.6	1077884	WORD	n/a	wordpools/wordpool_categorized_EN.txt	VIOLIN	Instruments	1	6	[0, 0, 0]	n/a	catFR1	4	R1652A
993.803	0.799	1079486	WORD_OFF	n/a	n/a	VIOLIN	Instruments	1	6	[0, 0, 0]	n/a	catFR1	4	R1652A
994.602	1.602	1080287	WORD	n/a	wordpools/wordpool_categorized_EN.txt	DRUM	Instruments	2	6	[0, 0, 0]	n/a	catFR1	4	R1652A
996.204	0.974	1081888	WORD_OFF	n/a	n/a	DRUM	Instruments	2	6	[0, 0, 0]	n/a	catFR1	4	R1652A
997.178	1.609	1082856	WORD	n/a	wordpools/wordpool_categorized_EN.txt	OYSTER	OceanAnimals	3	6	[0, 0, 0]	n/a	catFR1	4	R1652A
998.787	0.84	1084470	WORD_OFF	n/a	n/a	OYSTER	OceanAnimals	3	6	[0, 0, 0]	n/a	catFR1	4	R1652A
999.627	1.602	1085306	WORD	n/a	wordpools/wordpool_categorized_EN.txt	SHRIMP	OceanAnimals	4	6	[0, 0, 0]	n/a	catFR1	4	R1652A
1001.229	0.892	1086908	WORD_OFF	n/a	n/a	SHRIMP	OceanAnimals	4	6	[0, 0, 0]	n/a	catFR1	4	R1652A
1002.121	1.607	1087804	WORD	n/a	wordpools/wordpool_categorized_EN.txt	RATCHET	Tools	5	6	[0, 0, 0]	n/a	catFR1	4	R1652A
1003.728	0.992	1089406	WORD_OFF	n/a	n/a	RATCHET	Tools	5	6	[0, 0, 0]	n/a	catFR1	4	R1652A
1004.72	1.609	1090398	WORD	n/a	wordpools/wordpool_categorized_EN.txt	SANDER	Tools	6	6	[0, 0, 0]	n/a	catFR1	4	R1652A
1006.329	0.775	1092011	WORD_OFF	n/a	n/a	SANDER	Tools	6	6	[0, 0, 0]	n/a	catFR1	4	R1652A
1007.104	1.607	1092788	WORD	n/a	wordpools/wordpool_categorized_EN.txt	BASS	Instruments	7	6	[0, 0, 0]	n/a	catFR1	4	R1652A
1008.711	0.758	1094390	WORD_OFF	n/a	n/a	BASS	Instruments	7	6	[0, 0, 0]	n/a	catFR1	4	R1652A
1009.469	1.601	1095143	WORD	n/a	wordpools/wordpool_categorized_EN.txt	FLUTE	Instruments	8	6	[0, 0, 0]	n/a	catFR1	4	R1652A
1011.07	0.959	1096756	WORD_OFF	n/a	n/a	FLUTE	Instruments	8	6	[0, 0, 0]	n/a	catFR1	4	R1652A
1012.029	1.608	1097712	WORD	n/a	wordpools/wordpool_categorized_EN.txt	PLANKTON	OceanAnimals	9	6	[0, 0, 0]	n/a	catFR1	4	R1652A
1013.637	0.775	1099314	WORD_OFF	n/a	n/a	PLANKTON	OceanAnimals	9	6	[0, 0, 0]	n/a	catFR1	4	R1652A
1014.412	1.607	1100091	WORD	n/a	wordpools/wordpool_categorized_EN.txt	CRAB	OceanAnimals	10	6	[0, 0, 0]	n/a	catFR1	4	R1652A
1016.019	0.843	1101704	WORD_OFF	n/a	n/a	CRAB	OceanAnimals	10	6	[0, 0, 0]	n/a	catFR1	4	R1652A
1016.862	1.608	1102541	WORD	n/a	wordpools/wordpool_categorized_EN.txt	PLIERS	Tools	11	6	[0, 0, 0]	n/a	catFR1	4	R1652A
1018.47	0.834	1104154	WORD_OFF	n/a	n/a	PLIERS	Tools	11	6	[0, 0, 0]	n/a	catFR1	4	R1652A
1019.304	1.607	1104979	WORD	n/a	wordpools/wordpool_categorized_EN.txt	DRILL	Tools	12	6	[0, 0, 0]	n/a	catFR1	4	R1652A
1020.911	0.0	1106591	PROB	11.658	n/a	n/a	n/a	-999	6	[4, 2, 5]	11.0	catFR1	4	R1652A
1020.911	0.003	1106593	WORD_OFF	n/a	n/a	DRILL	Tools	12	6	[0, 0, 0]	n/a	catFR1	4	R1652A
1020.914	0.0	1106593	ENCODING_END	n/a	n/a	n/a	n/a	-999	6	[0, 0, 0]	n/a	catFR1	4	R1652A
1020.914	0.0	1106593	DISTRACT_START	n/a	n/a	n/a	n/a	-999	6	[0, 0, 0]	n/a	catFR1	4	R1652A
1020.914	11.665	1106594	START	n/a	n/a	n/a	n/a	-999	6	[-999, -999, -999]	n/a	catFR1	4	R1652A
1032.579	5.233	1118259	PROB	5.225	n/a	n/a	n/a	-999	6	[6, 7, 3]	16.0	catFR1	4	R1652A
1037.812	5.782	1123492	PROB	5.775	n/a	n/a	n/a	-999	6	[4, 2, 1]	7.0	catFR1	4	R1652A
1043.594	0.0	1129274	STOP	n/a	n/a	n/a	n/a	-999	6	[-999, -999, -999]	n/a	catFR1	4	R1652A
1043.594	2.344	1129277	DISTRACT_END	n/a	n/a	n/a	n/a	-999	6	[0, 0, 0]	n/a	catFR1	4	R1652A
1045.938	0.65	1131620	REC_START	n/a	n/a	n/a	n/a	-999	6	[0, 0, 0]	n/a	catFR1	4	R1652A
1046.588	2.089	1132268	REC_WORD	0.65	n/a	DRUM	Instruments	2	6	[0, 0, 0]	n/a	catFR1	4	R1652A
1048.677	2.299	1134357	REC_WORD	2.739	n/a	PLIERS	Tools	11	6	[0, 0, 0]	n/a	catFR1	4	R1652A
1050.976	2.281	1136656	REC_WORD	5.038	n/a	VIOLIN	Instruments	1	6	[0, 0, 0]	n/a	catFR1	4	R1652A
1053.257	3.789	1138937	REC_WORD	7.319	n/a	BASS	Instruments	7	6	[0, 0, 0]	n/a	catFR1	4	R1652A
1057.046	2.505	1142725	REC_WORD	11.108	n/a	PLANKTON	OceanAnimals	9	6	[0, 0, 0]	n/a	catFR1	4	R1652A
1059.551	16.526	1145230	REC_WORD	13.613	n/a	CRAB	OceanAnimals	10	6	[0, 0, 0]	n/a	catFR1	4	R1652A
1076.077	11.079	1161762	REC_END	n/a	n/a	n/a	n/a	-999	6	[0, 0, 0]	n/a	catFR1	4	R1652A
1087.156	10.338	1172841	COUNTDOWN_START	n/a	n/a	n/a	n/a	-999	7	[0, 0, 0]	n/a	catFR1	4	R1652A
1097.494	0.0	1183168	COUNTDOWN_END	n/a	n/a	n/a	n/a	-999	7	[0, 0, 0]	n/a	catFR1	4	R1652A
1097.494	1.993	1183180	ENCODING_START	n/a	n/a	n/a	n/a	-999	7	[0, 0, 0]	n/a	catFR1	4	R1652A
1099.487	1.6	1185164	WORD	n/a	wordpools/wordpool_categorized_EN.txt	CABINET	Furniture	1	7	[0, 0, 0]	n/a	catFR1	4	R1652A
1101.087	0.992	1186765	WORD_OFF	n/a	n/a	CABINET	Furniture	1	7	[0, 0, 0]	n/a	catFR1	4	R1652A
1102.079	1.608	1187757	WORD	n/a	wordpools/wordpool_categorized_EN.txt	DESK	Furniture	2	7	[0, 0, 0]	n/a	catFR1	4	R1652A
1103.687	0.774	1189371	WORD_OFF	n/a	n/a	DESK	Furniture	2	7	[0, 0, 0]	n/a	catFR1	4	R1652A
1104.461	1.601	1190136	WORD	n/a	wordpools/wordpool_categorized_EN.txt	ROOSTER	FarmAnimals	3	7	[0, 0, 0]	n/a	catFR1	4	R1652A
1106.062	0.908	1191737	WORD_OFF	n/a	n/a	ROOSTER	FarmAnimals	3	7	[0, 0, 0]	n/a	catFR1	4	R1652A
1106.97	1.6	1192646	WORD	n/a	wordpools/wordpool_categorized_EN.txt	LAMB	FarmAnimals	4	7	[0, 0, 0]	n/a	catFR1	4	R1652A
1108.57	0.984	1194247	WORD_OFF	n/a	n/a	LAMB	FarmAnimals	4	7	[0, 0, 0]	n/a	catFR1	4	R1652A
1109.554	1.608	1195239	WORD	n/a	wordpools/wordpool_categorized_EN.txt	LILAC	Flowers	5	7	[0, 0, 0]	n/a	catFR1	4	R1652A
1111.162	0.908	1196841	WORD_OFF	n/a	n/a	LILAC	Flowers	5	7	[0, 0, 0]	n/a	catFR1	4	R1652A
1112.07	1.6	1197749	WORD	n/a	wordpools/wordpool_categorized_EN.txt	DAISY	Flowers	6	7	[0, 0, 0]	n/a	catFR1	4	R1652A
1113.67	0.774	1199350	WORD_OFF	n/a	n/a	DAISY	Flowers	6	7	[0, 0, 0]	n/a	catFR1	4	R1652A
1114.444	1.61	1200127	WORD	n/a	wordpools/wordpool_categorized_EN.txt	COW	FarmAnimals	7	7	[0, 0, 0]	n/a	catFR1	4	R1652A
1116.054	0.773	1201729	WORD_OFF	n/a	n/a	COW	FarmAnimals	7	7	[0, 0, 0]	n/a	catFR1	4	R1652A
1116.827	1.604	1202506	WORD	n/a	wordpools/wordpool_categorized_EN.txt	CHICKEN	FarmAnimals	8	7	[0, 0, 0]	n/a	catFR1	4	R1652A
1118.431	0.898	1204107	WORD_OFF	n/a	n/a	CHICKEN	FarmAnimals	8	7	[0, 0, 0]	n/a	catFR1	4	R1652A
1119.329	1.6	1205004	WORD	n/a	wordpools/wordpool_categorized_EN.txt	PETUNIA	Flowers	9	7	[0, 0, 0]	n/a	catFR1	4	R1652A
1120.929	0.848	1206605	WORD_OFF	n/a	n/a	PETUNIA	Flowers	9	7	[0, 0, 0]	n/a	catFR1	4	R1652A
1121.777	1.6	1207454	WORD	n/a	wordpools/wordpool_categorized_EN.txt	ROSE	Flowers	10	7	[0, 0, 0]	n/a	catFR1	4	R1652A
1123.377	0.809	1209055	WORD_OFF	n/a	n/a	ROSE	Flowers	10	7	[0, 0, 0]	n/a	catFR1	4	R1652A
1124.186	1.601	1209868	WORD	n/a	wordpools/wordpool_categorized_EN.txt	SOFA	Furniture	11	7	[0, 0, 0]	n/a	catFR1	4	R1652A
1125.787	0.942	1211470	WORD_OFF	n/a	n/a	SOFA	Furniture	11	7	[0, 0, 0]	n/a	catFR1	4	R1652A
1126.729	1.609	1212414	WORD	n/a	wordpools/wordpool_categorized_EN.txt	BOOKCASE	Furniture	12	7	[0, 0, 0]	n/a	catFR1	4	R1652A
1128.338	0.003	1214015	WORD_OFF	n/a	n/a	BOOKCASE	Furniture	12	7	[0, 0, 0]	n/a	catFR1	4	R1652A
1128.341	0.0	1214015	ENCODING_END	n/a	n/a	n/a	n/a	-999	7	[0, 0, 0]	n/a	catFR1	4	R1652A
1128.337	0.004	1214016	PROB	4.69	n/a	n/a	n/a	-999	7	[1, 3, 1]	5.0	catFR1	4	R1652A
1128.341	0.0	1214020	START	n/a	n/a	n/a	n/a	-999	7	[-999, -999, -999]	n/a	catFR1	4	R1652A
1128.341	4.696	1214027	DISTRACT_START	n/a	n/a	n/a	n/a	-999	7	[0, 0, 0]	n/a	catFR1	4	R1652A
1133.037	4.891	1218716	PROB	4.884	n/a	n/a	n/a	-999	7	[6, 7, 3]	16.0	catFR1	4	R1652A
1137.928	3.917	1223607	PROB	3.908	n/a	n/a	n/a	-999	7	[3, 1, 3]	7.0	catFR1	4	R1652A
1141.845	5.174	1227524	PROB	5.166	n/a	n/a	n/a	-999	7	[7, 1, 4]	12.0	catFR1	4	R1652A
1147.019	5.068	1232698	PROB	5.058	n/a	n/a	n/a	-999	7	[7, 2, 1]	10.0	catFR1	4	R1652A
1152.087	0.0	1237764	DISTRACT_END	n/a	n/a	n/a	n/a	-999	7	[0, 0, 0]	n/a	catFR1	4	R1652A
1152.087	2.024	1237766	STOP	n/a	n/a	n/a	n/a	-999	7	[-999, -999, -999]	n/a	catFR1	4	R1652A
1154.111	0.456	1239795	REC_START	n/a	n/a	n/a	n/a	-999	7	[0, 0, 0]	n/a	catFR1	4	R1652A
1154.567	1.718	1240246	REC_WORD	0.456	n/a	COW	FarmAnimals	7	7	[0, 0, 0]	n/a	catFR1	4	R1652A
1156.285	1.843	1241964	REC_WORD	2.174	n/a	ROOSTER	FarmAnimals	3	7	[0, 0, 0]	n/a	catFR1	4	R1652A
1158.128	2.197	1243807	REC_WORD	4.017	n/a	LAMB	FarmAnimals	4	7	[0, 0, 0]	n/a	catFR1	4	R1652A
1160.325	2.102	1246004	REC_WORD	6.214	n/a	ROSE	Flowers	10	7	[0, 0, 0]	n/a	catFR1	4	R1652A
1162.427	1.973	1248106	REC_WORD	8.316	n/a	DAISY	Flowers	6	7	[0, 0, 0]	n/a	catFR1	4	R1652A
1164.4	11.814	1250079	REC_WORD	10.289	n/a	PETUNIA	Flowers	9	7	[0, 0, 0]	n/a	catFR1	4	R1652A
1176.214	8.029	1261893	REC_WORD	22.103	n/a	LILAC	Flowers	5	7	[0, 0, 0]	n/a	catFR1	4	R1652A
1184.243	157.492	1269926	REC_END	n/a	n/a	n/a	n/a	-999	7	[0, 0, 0]	n/a	catFR1	4	R1652A
1341.735	10.343	1427415	COUNTDOWN_START	n/a	n/a	n/a	n/a	-999	8	[0, 0, 0]	n/a	catFR1	4	R1652A
1352.078	0.0	1437753	COUNTDOWN_END	n/a	n/a	n/a	n/a	-999	8	[0, 0, 0]	n/a	catFR1	4	R1652A
1352.078	2.267	1437753	ENCODING_START	n/a	n/a	n/a	n/a	-999	8	[0, 0, 0]	n/a	catFR1	4	R1652A
1354.345	1.609	1440024	WORD	n/a	wordpools/wordpool_categorized_EN.txt	SHOVEL	Tools	1	8	[0, 0, 0]	n/a	catFR1	4	R1652A
1355.954	0.9	1441637	WORD_OFF	n/a	n/a	SHOVEL	Tools	1	8	[0, 0, 0]	n/a	catFR1	4	R1652A
1356.854	1.6	1442534	WORD	n/a	wordpools/wordpool_categorized_EN.txt	WRENCH	Tools	2	8	[0, 0, 0]	n/a	catFR1	4	R1652A
1358.454	0.99	1444135	WORD_OFF	n/a	n/a	WRENCH	Tools	2	8	[0, 0, 0]	n/a	catFR1	4	R1652A
1359.444	1.602	1445127	WORD	n/a	wordpools/wordpool_categorized_EN.txt	WALNUT	Trees	3	8	[0, 0, 0]	n/a	catFR1	4	R1652A
1361.046	0.789	1446729	WORD_OFF	n/a	n/a	WALNUT	Trees	3	8	[0, 0, 0]	n/a	catFR1	4	R1652A
1361.835	1.602	1447518	WORD	n/a	wordpools/wordpool_categorized_EN.txt	CEDAR	Trees	4	8	[0, 0, 0]	n/a	catFR1	4	R1652A
1363.437	0.957	1449119	WORD_OFF	n/a	n/a	CEDAR	Trees	4	8	[0, 0, 0]	n/a	catFR1	4	R1652A
1364.394	1.6	1450075	WORD	n/a	wordpools/wordpool_categorized_EN.txt	PEN	OfficeSupplies	5	8	[0, 0, 0]	n/a	catFR1	4	R1652A
1365.994	0.784	1451677	WORD_OFF	n/a	n/a	PEN	OfficeSupplies	5	8	[0, 0, 0]	n/a	catFR1	4	R1652A
1366.778	1.609	1452454	WORD	n/a	wordpools/wordpool_categorized_EN.txt	STAPLER	OfficeSupplies	6	8	[0, 0, 0]	n/a	catFR1	4	R1652A
1368.387	0.858	1454067	WORD_OFF	n/a	n/a	STAPLER	OfficeSupplies	6	8	[0, 0, 0]	n/a	catFR1	4	R1652A
1369.245	1.609	1454928	WORD	n/a	wordpools/wordpool_categorized_EN.txt	SAW	Tools	7	8	[0, 0, 0]	n/a	catFR1	4	R1652A
1370.854	0.923	1456529	WORD_OFF	n/a	n/a	SAW	Tools	7	8	[0, 0, 0]	n/a	catFR1	4	R1652A
1371.777	1.602	1457461	WORD	n/a	wordpools/wordpool_categorized_EN.txt	AXE	Tools	8	8	[0, 0, 0]	n/a	catFR1	4	R1652A
1373.379	0.875	1459063	WORD_OFF	n/a	n/a	AXE	Tools	8	8	[0, 0, 0]	n/a	catFR1	4	R1652A
1374.254	1.608	1459936	WORD	n/a	wordpools/wordpool_categorized_EN.txt	GLUE	OfficeSupplies	9	8	[0, 0, 0]	n/a	catFR1	4	R1652A
1375.862	0.983	1461537	WORD_OFF	n/a	n/a	GLUE	OfficeSupplies	9	8	[0, 0, 0]	n/a	catFR1	4	R1652A
1376.845	1.609	1462529	WORD	n/a	wordpools/wordpool_categorized_EN.txt	PENCIL	OfficeSupplies	10	8	[0, 0, 0]	n/a	catFR1	4	R1652A
1378.454	0.774	1464131	WORD_OFF	n/a	n/a	PENCIL	OfficeSupplies	10	8	[0, 0, 0]	n/a	catFR1	4	R1652A
1379.228	1.6	1464907	WORD	n/a	wordpools/wordpool_categorized_EN.txt	EVERGREEN	Trees	11	8	[0, 0, 0]	n/a	catFR1	4	R1652A
1380.828	0.95	1466509	WORD_OFF	n/a	n/a	EVERGREEN	Trees	11	8	[0, 0, 0]	n/a	catFR1	4	R1652A
1381.778	1.6	1467453	WORD	n/a	wordpools/wordpool_categorized_EN.txt	BIRCH	Trees	12	8	[0, 0, 0]	n/a	catFR1	4	R1652A
1383.378	0.003	1469055	WORD_OFF	n/a	n/a	BIRCH	Trees	12	8	[0, 0, 0]	n/a	catFR1	4	R1652A
1383.381	0.0	1469055	ENCODING_END	n/a	n/a	n/a	n/a	-999	8	[0, 0, 0]	n/a	catFR1	4	R1652A
1383.38	0.002	1469058	PROB	5.816	n/a	n/a	n/a	-999	8	[1, 6, 7]	14.0	catFR1	4	R1652A
1383.382	0.0	1469060	START	n/a	n/a	n/a	n/a	-999	8	[-999, -999, -999]	n/a	catFR1	4	R1652A
1383.382	5.822	1469067	DISTRACT_START	n/a	n/a	n/a	n/a	-999	8	[0, 0, 0]	n/a	catFR1	4	R1652A
1389.204	8.133	1474882	PROB	8.124	n/a	n/a	n/a	-999	8	[4, 7, 4]	15.0	catFR1	4	R1652A
1397.337	6.424	1483015	PROB	6.416	n/a	n/a	n/a	-999	8	[7, 7, 4]	18.0	catFR1	4	R1652A
1403.761	0.0	1489433	DISTRACT_END	n/a	n/a	n/a	n/a	-999	8	[0, 0, 0]	n/a	catFR1	4	R1652A
1403.761	2.326	1489439	STOP	n/a	n/a	n/a	n/a	-999	8	[-999, -999, -999]	n/a	catFR1	4	R1652A
1406.087	1.277	1491763	REC_START	n/a	n/a	n/a	n/a	-999	8	[0, 0, 0]	n/a	catFR1	4	R1652A
1407.364	1.741	1493042	REC_WORD	1.277	n/a	PAPER	n/a	-999	8	[0, 0, 0]	n/a	catFR1	4	R1652A
1409.105	1.904	1494783	REC_WORD	3.018	n/a	PEN	OfficeSupplies	5	8	[0, 0, 0]	n/a	catFR1	4	R1652A
1411.009	2.285	1496687	REC_WORD	4.922	n/a	SHOVEL	Tools	1	8	[0, 0, 0]	n/a	catFR1	4	R1652A
1413.294	2.423	1498972	REC_WORD	7.207	n/a	EVERGREEN	Trees	11	8	[0, 0, 0]	n/a	catFR1	4	R1652A
1415.717	15.59	1501395	REC_WORD	9.63	n/a	BIRCH	Trees	12	8	[0, 0, 0]	n/a	catFR1	4	R1652A
1431.307	4.922	1516985	REC_WORD	25.22	n/a	WALNUT	Trees	3	8	[0, 0, 0]	n/a	catFR1	4	R1652A
1436.229	4.734	1521906	REC_END	n/a	n/a	n/a	n/a	-999	8	[0, 0, 0]	n/a	catFR1	4	R1652A
1440.963	10.34	1526638	COUNTDOWN_START	n/a	n/a	n/a	n/a	-999	9	[0, 0, 0]	n/a	catFR1	4	R1652A
1451.303	0.0	1536977	COUNTDOWN_END	n/a	n/a	n/a	n/a	-999	9	[0, 0, 0]	n/a	catFR1	4	R1652A
1451.303	1.842	1536989	ENCODING_START	n/a	n/a	n/a	n/a	-999	9	[0, 0, 0]	n/a	catFR1	4	R1652A
1453.145	1.6	1538817	WORD	n/a	wordpools/wordpool_categorized_EN.txt	OCEAN	Landscapes	1	9	[0, 0, 0]	n/a	catFR1	4	R1652A
1454.745	0.95	1540419	WORD_OFF	n/a	n/a	OCEAN	Landscapes	1	9	[0, 0, 0]	n/a	catFR1	4	R1652A
1455.695	1.6	1541375	WORD	n/a	wordpools/wordpool_categorized_EN.txt	MOUNTAIN	Landscapes	2	9	[0, 0, 0]	n/a	catFR1	4	R1652A
1457.295	0.767	1542977	WORD_OFF	n/a	n/a	MOUNTAIN	Landscapes	2	9	[0, 0, 0]	n/a	catFR1	4	R1652A
1458.062	1.608	1543742	WORD	n/a	wordpools/wordpool_categorized_EN.txt	CIDER	Beverages	3	9	[0, 0, 0]	n/a	catFR1	4	R1652A
1459.67	0.799	1545343	WORD_OFF	n/a	n/a	CIDER	Beverages	3	9	[0, 0, 0]	n/a	catFR1	4	R1652A
1460.469	1.602	1546144	WORD	n/a	wordpools/wordpool_categorized_EN.txt	WATER	Beverages	4	9	[0, 0, 0]	n/a	catFR1	4	R1652A
1462.071	0.908	1547745	WORD_OFF	n/a	n/a	WATER	Beverages	4	9	[0, 0, 0]	n/a	catFR1	4	R1652A
1462.979	1.6	1548654	WORD	n/a	wordpools/wordpool_categorized_EN.txt	SPATULA	KitchenTools	5	9	[0, 0, 0]	n/a	catFR1	4	R1652A
1464.579	0.957	1550255	WORD_OFF	n/a	n/a	SPATULA	KitchenTools	5	9	[0, 0, 0]	n/a	catFR1	4	R1652A
1465.536	1.601	1551211	WORD	n/a	wordpools/wordpool_categorized_EN.txt	GRATER	KitchenTools	6	9	[0, 0, 0]	n/a	catFR1	4	R1652A
1467.137	0.826	1552813	WORD_OFF	n/a	n/a	GRATER	KitchenTools	6	9	[0, 0, 0]	n/a	catFR1	4	R1652A
1467.963	1.6	1553638	WORD	n/a	wordpools/wordpool_categorized_EN.txt	BEACH	Landscapes	7	9	[0, 0, 0]	n/a	catFR1	4	R1652A
1469.563	0.798	1555239	WORD_OFF	n/a	n/a	BEACH	Landscapes	7	9	[0, 0, 0]	n/a	catFR1	4	R1652A
1470.361	1.599	1556040	WORD	n/a	wordpools/wordpool_categorized_EN.txt	LAKE	Landscapes	8	9	[0, 0, 0]	n/a	catFR1	4	R1652A
1471.96	0.784	1557641	WORD_OFF	n/a	n/a	LAKE	Landscapes	8	9	[0, 0, 0]	n/a	catFR1	4	R1652A
1472.744	1.609	1558418	WORD	n/a	wordpools/wordpool_categorized_EN.txt	JUICE	Beverages	9	9	[0, 0, 0]	n/a	catFR1	4	R1652A
1474.353	0.775	1560032	WORD_OFF	n/a	n/a	JUICE	Beverages	9	9	[0, 0, 0]	n/a	catFR1	4	R1652A
1475.128	1.599	1560809	WORD	n/a	wordpools/wordpool_categorized_EN.txt	COLA	Beverages	10	9	[0, 0, 0]	n/a	catFR1	4	R1652A
1476.727	0.969	1562410	WORD_OFF	n/a	n/a	COLA	Beverages	10	9	[0, 0, 0]	n/a	catFR1	4	R1652A
1477.696	1.606	1563378	WORD	n/a	wordpools/wordpool_categorized_EN.txt	PEELER	KitchenTools	11	9	[0, 0, 0]	n/a	catFR1	4	R1652A
1479.302	0.925	1564980	WORD_OFF	n/a	n/a	PEELER	KitchenTools	11	9	[0, 0, 0]	n/a	catFR1	4	R1652A
1480.227	1.6	1565900	WORD	n/a	wordpools/wordpool_categorized_EN.txt	COLANDER	KitchenTools	12	9	[0, 0, 0]	n/a	catFR1	4	R1652A
1481.827	0.002	1567502	WORD_OFF	n/a	n/a	COLANDER	KitchenTools	12	9	[0, 0, 0]	n/a	catFR1	4	R1652A
1481.829	0.0	1567502	ENCODING_END	n/a	n/a	n/a	n/a	-999	9	[0, 0, 0]	n/a	catFR1	4	R1652A
1481.828	0.001	1567506	PROB	6.333	n/a	n/a	n/a	-999	9	[8, 7, 3]	18.0	catFR1	4	R1652A
1481.829	0.0	1567507	START	n/a	n/a	n/a	n/a	-999	9	[-999, -999, -999]	n/a	catFR1	4	R1652A
1481.829	6.342	1567514	DISTRACT_START	n/a	n/a	n/a	n/a	-999	9	[0, 0, 0]	n/a	catFR1	4	R1652A
1488.171	6.674	1573849	PROB	6.665	n/a	n/a	n/a	-999	9	[6, 4, 7]	17.0	catFR1	4	R1652A
1494.845	4.608	1580523	PROB	4.599	n/a	n/a	n/a	-999	9	[8, 1, 5]	14.0	catFR1	4	R1652A
1499.453	6.451	1585131	PROB	6.441	n/a	n/a	n/a	-999	9	[2, 6, 7]	15.0	catFR1	4	R1652A
1505.904	0.0	1591582	STOP	n/a	n/a	n/a	n/a	-999	9	[-999, -999, -999]	n/a	catFR1	4	R1652A
1505.904	2.382	1591585	DISTRACT_END	n/a	n/a	n/a	n/a	-999	9	[0, 0, 0]	n/a	catFR1	4	R1652A
1508.286	0.417	1593963	REC_START	n/a	n/a	n/a	n/a	-999	9	[0, 0, 0]	n/a	catFR1	4	R1652A
1508.703	2.351	1594381	REC_WORD	0.417	n/a	SPATULA	KitchenTools	5	9	[0, 0, 0]	n/a	catFR1	4	R1652A
1511.054	2.114	1596732	REC_WORD	2.768	n/a	PEELER	KitchenTools	11	9	[0, 0, 0]	n/a	catFR1	4	R1652A
1513.168	2.082	1598846	REC_WORD	4.882	n/a	WATER	Beverages	4	9	[0, 0, 0]	n/a	catFR1	4	R1652A
1515.25	2.142	1600928	REC_WORD	6.964	n/a	JUICE	Beverages	9	9	[0, 0, 0]	n/a	catFR1	4	R1652A
1517.392	6.056	1603070	REC_WORD	9.106	n/a	LEMONADE	Beverages	-999	9	[0, 0, 0]	n/a	catFR1	4	R1652A
1523.448	14.972	1609126	REC_WORD	15.162	n/a	STRAINER	n/a	-999	9	[0, 0, 0]	n/a	catFR1	4	R1652A
1538.42	4.073	1624093	REC_END	n/a	n/a	n/a	n/a	-999	9	[0, 0, 0]	n/a	catFR1	4	R1652A
1542.493	10.336	1628169	COUNTDOWN_START	n/a	n/a	n/a	n/a	-999	10	[0, 0, 0]	n/a	catFR1	4	R1652A
1552.829	0.001	1638507	COUNTDOWN_END	n/a	n/a	n/a	n/a	-999	10	[0, 0, 0]	n/a	catFR1	4	R1652A
1552.83	2.199	1638507	ENCODING_START	n/a	n/a	n/a	n/a	-999	10	[0, 0, 0]	n/a	catFR1	4	R1652A
1555.029	1.608	1640706	WORD	n/a	wordpools/wordpool_categorized_EN.txt	TOE	BodyParts	1	10	[0, 0, 0]	n/a	catFR1	4	R1652A
1556.637	0.909	1642320	WORD_OFF	n/a	n/a	TOE	BodyParts	1	10	[0, 0, 0]	n/a	catFR1	4	R1652A
1557.546	1.608	1643228	WORD	n/a	wordpools/wordpool_categorized_EN.txt	KNEE	BodyParts	2	10	[0, 0, 0]	n/a	catFR1	4	R1652A
1559.154	0.984	1644830	WORD_OFF	n/a	n/a	KNEE	BodyParts	2	10	[0, 0, 0]	n/a	catFR1	4	R1652A
1560.138	1.608	1645822	WORD	n/a	wordpools/wordpool_categorized_EN.txt	CLOUD	Weather	3	10	[0, 0, 0]	n/a	catFR1	4	R1652A
1561.746	0.991	1647423	WORD_OFF	n/a	n/a	CLOUD	Weather	3	10	[0, 0, 0]	n/a	catFR1	4	R1652A
1562.737	1.609	1648415	WORD	n/a	wordpools/wordpool_categorized_EN.txt	HURRICANE	Weather	4	10	[0, 0, 0]	n/a	catFR1	4	R1652A
1564.346	0.914	1650029	WORD_OFF	n/a	n/a	HURRICANE	Weather	4	10	[0, 0, 0]	n/a	catFR1	4	R1652A
1565.26	1.603	1650937	WORD	n/a	wordpools/wordpool_categorized_EN.txt	FOREST	Landscapes	5	10	[0, 0, 0]	n/a	catFR1	4	R1652A
1566.863	0.915	1652539	WORD_OFF	n/a	n/a	FOREST	Landscapes	5	10	[0, 0, 0]	n/a	catFR1	4	R1652A
1567.778	1.601	1653459	WORD	n/a	wordpools/wordpool_categorized_EN.txt	STREAM	Landscapes	6	10	[0, 0, 0]	n/a	catFR1	4	R1652A
1569.379	0.782	1655061	WORD_OFF	n/a	n/a	STREAM	Landscapes	6	10	[0, 0, 0]	n/a	catFR1	4	R1652A
1570.161	1.601	1655837	WORD	n/a	wordpools/wordpool_categorized_EN.txt	ARM	BodyParts	7	10	[0, 0, 0]	n/a	catFR1	4	R1652A
1571.762	0.765	1657439	WORD_OFF	n/a	n/a	ARM	BodyParts	7	10	[0, 0, 0]	n/a	catFR1	4	R1652A
1572.527	1.602	1658204	WORD	n/a	wordpools/wordpool_categorized_EN.txt	EYE	BodyParts	8	10	[0, 0, 0]	n/a	catFR1	4	R1652A
1574.129	0.95	1659805	WORD_OFF	n/a	n/a	EYE	BodyParts	8	10	[0, 0, 0]	n/a	catFR1	4	R1652A
1575.079	1.6	1660762	WORD	n/a	wordpools/wordpool_categorized_EN.txt	TORNADO	Weather	9	10	[0, 0, 0]	n/a	catFR1	4	R1652A
1576.679	0.792	1662351	WORD_OFF	n/a	n/a	TORNADO	Weather	9	10	[0, 0, 0]	n/a	catFR1	4	R1652A
1577.471	1.606	1663152	WORD	n/a	wordpools/wordpool_categorized_EN.txt	DRIZZLE	Weather	10	10	[0, 0, 0]	n/a	catFR1	4	R1652A
1579.077	0.875	1664753	WORD_OFF	n/a	n/a	DRIZZLE	Weather	10	10	[0, 0, 0]	n/a	catFR1	4	R1652A
1579.952	1.602	1665626	WORD	n/a	wordpools/wordpool_categorized_EN.txt	VALLEY	Landscapes	11	10	[0, 0, 0]	n/a	catFR1	4	R1652A
1581.554	0.808	1667228	WORD_OFF	n/a	n/a	VALLEY	Landscapes	11	10	[0, 0, 0]	n/a	catFR1	4	R1652A
1582.362	1.601	1668040	WORD	n/a	wordpools/wordpool_categorized_EN.txt	RIVER	Landscapes	12	10	[0, 0, 0]	n/a	catFR1	4	R1652A
1583.963	0.0	1669640	PROB	7.808	n/a	n/a	n/a	-999	10	[8, 8, 5]	22.0	catFR1	4	R1652A
1583.963	0.003	1669642	WORD_OFF	n/a	n/a	RIVER	Landscapes	12	10	[0, 0, 0]	n/a	catFR1	4	R1652A
1583.966	0.0	1669642	ENCODING_END	n/a	n/a	n/a	n/a	-999	10	[0, 0, 0]	n/a	catFR1	4	R1652A
1583.966	0.0	1669642	DISTRACT_START	n/a	n/a	n/a	n/a	-999	10	[0, 0, 0]	n/a	catFR1	4	R1652A
1583.966	7.812	1669643	START	n/a	n/a	n/a	n/a	-999	10	[-999, -999, -999]	n/a	catFR1	4	R1652A
1591.778	7.742	1677455	PROB	7.733	n/a	n/a	n/a	-999	10	[7, 8, 4]	15.0	catFR1	4	R1652A
1599.52	9.115	1685197	PROB	9.107	n/a	n/a	n/a	-999	10	[8, 4, 5]	17.0	catFR1	4	R1652A
1608.635	0.0	1694310	DISTRACT_END	n/a	n/a	n/a	n/a	-999	10	[0, 0, 0]	n/a	catFR1	4	R1652A
1608.635	2.211	1694312	STOP	n/a	n/a	n/a	n/a	-999	10	[-999, -999, -999]	n/a	catFR1	4	R1652A
1610.846	1.175	1696521	REC_START	n/a	n/a	n/a	n/a	-999	10	[0, 0, 0]	n/a	catFR1	4	R1652A
1612.021	2.346	1697698	REC_WORD	1.175	n/a	TOE	BodyParts	1	10	[0, 0, 0]	n/a	catFR1	4	R1652A
1614.367	2.346	1700044	REC_WORD	3.521	n/a	KNEE	BodyParts	2	10	[0, 0, 0]	n/a	catFR1	4	R1652A
1616.713	2.074	1702390	REC_WORD	5.867	n/a	EYE	BodyParts	8	10	[0, 0, 0]	n/a	catFR1	4	R1652A
1618.787	3.205	1704464	REC_WORD	7.941	n/a	ELBOW	n/a	-999	10	[0, 0, 0]	n/a	catFR1	4	R1652A
1621.992	2.88	1707669	REC_WORD	11.146	n/a	TORNADO	Weather	9	10	[0, 0, 0]	n/a	catFR1	4	R1652A
1624.872	9.101	1710549	REC_WORD	14.026	n/a	RIVER	Landscapes	12	10	[0, 0, 0]	n/a	catFR1	4	R1652A
1633.973	7.009	1719650	REC_WORD	23.127	n/a	CLOUD	Weather	3	10	[0, 0, 0]	n/a	catFR1	4	R1652A
1640.982	4.946	1726664	REC_END	n/a	n/a	n/a	n/a	-999	10	[0, 0, 0]	n/a	catFR1	4	R1652A
1645.928	10.342	1731612	COUNTDOWN_START	n/a	n/a	n/a	n/a	-999	11	[0, 0, 0]	n/a	catFR1	4	R1652A
1656.27	0.0	1741950	COUNTDOWN_END	n/a	n/a	n/a	n/a	-999	11	[0, 0, 0]	n/a	catFR1	4	R1652A
1656.27	2.357	1741950	ENCODING_START	n/a	n/a	n/a	n/a	-999	11	[0, 0, 0]	n/a	catFR1	4	R1652A
1658.627	1.6	1744305	WORD	n/a	wordpools/wordpool_categorized_EN.txt	DOOR	Building	1	11	[0, 0, 0]	n/a	catFR1	4	R1652A
1660.227	0.869	1745906	WORD_OFF	n/a	n/a	DOOR	Building	1	11	[0, 0, 0]	n/a	catFR1	4	R1652A
1661.096	1.6	1746779	WORD	n/a	wordpools/wordpool_categorized_EN.txt	WALL	Building	2	11	[0, 0, 0]	n/a	catFR1	4	R1652A
1662.696	0.966	1748380	WORD_OFF	n/a	n/a	WALL	Building	2	11	[0, 0, 0]	n/a	catFR1	4	R1652A
1663.662	1.6	1749336	WORD	n/a	wordpools/wordpool_categorized_EN.txt	HICKORY	Trees	3	11	[0, 0, 0]	n/a	catFR1	4	R1652A
1665.262	0.909	1750938	WORD_OFF	n/a	n/a	HICKORY	Trees	3	11	[0, 0, 0]	n/a	catFR1	4	R1652A
1666.171	1.607	1751846	WORD	n/a	wordpools/wordpool_categorized_EN.txt	OAK	Trees	4	11	[0, 0, 0]	n/a	catFR1	4	R1652A
1667.778	0.843	1753460	WORD_OFF	n/a	n/a	OAK	Trees	4	11	[0, 0, 0]	n/a	catFR1	4	R1652A
1668.621	1.608	1754296	WORD	n/a	wordpools/wordpool_categorized_EN.txt	CREEK	Landscapes	5	11	[0, 0, 0]	n/a	catFR1	4	R1652A
1670.229	0.883	1755910	WORD_OFF	n/a	n/a	CREEK	Landscapes	5	11	[0, 0, 0]	n/a	catFR1	4	R1652A
1671.112	1.601	1756794	WORD	n/a	wordpools/wordpool_categorized_EN.txt	WOODS	Landscapes	6	11	[0, 0, 0]	n/a	catFR1	4	R1652A
1672.713	0.898	1758384	WORD_OFF	n/a	n/a	WOODS	Landscapes	6	11	[0, 0, 0]	n/a	catFR1	4	R1652A
1673.611	1.6	1759292	WORD	n/a	wordpools/wordpool_categorized_EN.txt	PINE	Trees	7	11	[0, 0, 0]	n/a	catFR1	4	R1652A
1675.211	0.9	1760882	WORD_OFF	n/a	n/a	PINE	Trees	7	11	[0, 0, 0]	n/a	catFR1	4	R1652A
1676.111	1.61	1761790	WORD	n/a	wordpools/wordpool_categorized_EN.txt	CYPRESS	Trees	8	11	[0, 0, 0]	n/a	catFR1	4	R1652A
1677.721	0.956	1763404	WORD_OFF	n/a	n/a	CYPRESS	Trees	8	11	[0, 0, 0]	n/a	catFR1	4	R1652A
1678.677	1.611	1764360	WORD	n/a	wordpools/wordpool_categorized_EN.txt	WINDOW	Building	9	11	[0, 0, 0]	n/a	catFR1	4	R1652A
1680.288	0.999	1765961	WORD_OFF	n/a	n/a	WINDOW	Building	9	11	[0, 0, 0]	n/a	catFR1	4	R1652A
1681.287	1.609	1766965	WORD	n/a	wordpools/wordpool_categorized_EN.txt	ROOM	Building	10	11	[0, 0, 0]	n/a	catFR1	4	R1652A
1682.896	0.798	1768579	WORD_OFF	n/a	n/a	ROOM	Building	10	11	[0, 0, 0]	n/a	catFR1	4	R1652A
1683.694	1.61	1769368	WORD	n/a	wordpools/wordpool_categorized_EN.txt	ISLAND	Landscapes	11	11	[0, 0, 0]	n/a	catFR1	4	R1652A
1685.304	0.882	1770981	WORD_OFF	n/a	n/a	ISLAND	Landscapes	11	11	[0, 0, 0]	n/a	catFR1	4	R1652A
1686.186	1.601	1771865	WORD	n/a	wordpools/wordpool_categorized_EN.txt	HILLS	Landscapes	12	11	[0, 0, 0]	n/a	catFR1	4	R1652A
1687.787	0.001	1773464	PROB	5.216	n/a	n/a	n/a	-999	11	[3, 3, 3]	9.0	catFR1	4	R1652A
1687.788	0.0	1773465	START	n/a	n/a	n/a	n/a	-999	11	[-999, -999, -999]	n/a	catFR1	4	R1652A
1687.786	0.002	1773467	WORD_OFF	n/a	n/a	HILLS	Landscapes	12	11	[0, 0, 0]	n/a	catFR1	4	R1652A
1687.788	0.0	1773467	ENCODING_END	n/a	n/a	n/a	n/a	-999	11	[0, 0, 0]	n/a	catFR1	4	R1652A
1687.788	5.223	1773467	DISTRACT_START	n/a	n/a	n/a	n/a	-999	11	[0, 0, 0]	n/a	catFR1	4	R1652A
1693.011	4.027	1778688	PROB	4.016	n/a	n/a	n/a	-999	11	[4, 5, 5]	14.0	catFR1	4	R1652A
1697.038	5.207	1782715	PROB	5.2	n/a	n/a	n/a	-999	11	[6, 6, 5]	17.0	catFR1	4	R1652A
1702.245	3.45	1787922	PROB	3.442	n/a	n/a	n/a	-999	11	[1, 4, 4]	9.0	catFR1	4	R1652A
1705.695	6.0	1791372	PROB	5.992	n/a	n/a	n/a	-999	11	[7, 4, 7]	18.0	catFR1	4	R1652A
1711.695	0.0	1797371	DISTRACT_END	n/a	n/a	n/a	n/a	-999	11	[0, 0, 0]	n/a	catFR1	4	R1652A
1711.695	2.259	1797372	STOP	n/a	n/a	n/a	n/a	-999	11	[-999, -999, -999]	n/a	catFR1	4	R1652A
1713.954	0.557	1799630	REC_START	n/a	n/a	n/a	n/a	-999	11	[0, 0, 0]	n/a	catFR1	4	R1652A
1714.511	1.672	1800188	REC_WORD	0.557	n/a	DOOR	Building	1	11	[0, 0, 0]	n/a	catFR1	4	R1652A
1716.183	1.774	1801860	REC_WORD	2.229	n/a	WALL	Building	2	11	[0, 0, 0]	n/a	catFR1	4	R1652A
1717.957	2.417	1803634	REC_WORD	4.003	n/a	WINDOW	Building	9	11	[0, 0, 0]	n/a	catFR1	4	R1652A
1720.374	2.438	1806051	REC_WORD	6.42	n/a	EVERGREEN	Trees	-999	11	[0, 0, 0]	n/a	catFR1	4	R1652A
1722.812	21.279	1808489	REC_WORD	8.858	n/a	WOODS	Landscapes	6	11	[0, 0, 0]	n/a	catFR1	4	R1652A
1744.091	6.138	1829772	REC_END	n/a	n/a	n/a	n/a	-999	11	[0, 0, 0]	n/a	catFR1	4	R1652A
1750.229	10.342	1835903	COUNTDOWN_START	n/a	n/a	n/a	n/a	-999	12	[0, 0, 0]	n/a	catFR1	4	R1652A
1760.571	0.0	1846253	COUNTDOWN_END	n/a	n/a	n/a	n/a	-999	12	[0, 0, 0]	n/a	catFR1	4	R1652A
1760.571	2.331	1846253	ENCODING_START	n/a	n/a	n/a	n/a	-999	12	[0, 0, 0]	n/a	catFR1	4	R1652A
1762.902	1.601	1848584	WORD	n/a	wordpools/wordpool_categorized_EN.txt	PANTS	Clothing	1	12	[0, 0, 0]	n/a	catFR1	4	R1652A
1764.503	0.784	1850186	WORD_OFF	n/a	n/a	PANTS	Clothing	1	12	[0, 0, 0]	n/a	catFR1	4	R1652A
1765.287	1.609	1850962	WORD	n/a	wordpools/wordpool_categorized_EN.txt	SKIRT	Clothing	2	12	[0, 0, 0]	n/a	catFR1	4	R1652A
1766.896	0.807	1852576	WORD_OFF	n/a	n/a	SKIRT	Clothing	2	12	[0, 0, 0]	n/a	catFR1	4	R1652A
1767.703	1.601	1853377	WORD	n/a	wordpools/wordpool_categorized_EN.txt	SPRUCE	Trees	3	12	[0, 0, 0]	n/a	catFR1	4	R1652A
1769.304	0.9	1854978	WORD_OFF	n/a	n/a	SPRUCE	Trees	3	12	[0, 0, 0]	n/a	catFR1	4	R1652A
1770.204	1.6	1855887	WORD	n/a	wordpools/wordpool_categorized_EN.txt	MAPLE	Trees	4	12	[0, 0, 0]	n/a	catFR1	4	R1652A
1771.804	0.848	1857476	WORD_OFF	n/a	n/a	MAPLE	Trees	4	12	[0, 0, 0]	n/a	catFR1	4	R1652A
1772.652	1.602	1858325	WORD	n/a	wordpools/wordpool_categorized_EN.txt	BINDER	OfficeSupplies	5	12	[0, 0, 0]	n/a	catFR1	4	R1652A
1774.254	0.925	1859932	WORD_OFF	n/a	n/a	BINDER	OfficeSupplies	5	12	[0, 0, 0]	n/a	catFR1	4	R1652A
1775.179	1.6	1860859	WORD	n/a	wordpools/wordpool_categorized_EN.txt	ERASER	OfficeSupplies	6	12	[0, 0, 0]	n/a	catFR1	4	R1652A
1776.779	0.881	1862460	WORD_OFF	n/a	n/a	ERASER	OfficeSupplies	6	12	[0, 0, 0]	n/a	catFR1	4	R1652A
1777.66	1.601	1863333	WORD	n/a	wordpools/wordpool_categorized_EN.txt	WILLOW	Trees	7	12	[0, 0, 0]	n/a	catFR1	4	R1652A
1779.261	0.809	1864934	WORD_OFF	n/a	n/a	WILLOW	Trees	7	12	[0, 0, 0]	n/a	catFR1	4	R1652A
1780.07	1.6	1865747	WORD	n/a	wordpools/wordpool_categorized_EN.txt	ELM	Trees	8	12	[0, 0, 0]	n/a	catFR1	4	R1652A
1781.67	0.949	1867348	WORD_OFF	n/a	n/a	ELM	Trees	8	12	[0, 0, 0]	n/a	catFR1	4	R1652A
1782.619	1.601	1868293	WORD	n/a	wordpools/wordpool_categorized_EN.txt	SHIRT	Clothing	9	12	[0, 0, 0]	n/a	catFR1	4	R1652A
1784.22	0.807	1869894	WORD_OFF	n/a	n/a	SHIRT	Clothing	9	12	[0, 0, 0]	n/a	catFR1	4	R1652A
1785.027	1.6	1870707	WORD	n/a	wordpools/wordpool_categorized_EN.txt	DRESS	Clothing	10	12	[0, 0, 0]	n/a	catFR1	4	R1652A
1786.627	0.883	1872308	WORD_OFF	n/a	n/a	DRESS	Clothing	10	12	[0, 0, 0]	n/a	catFR1	4	R1652A
1787.51	1.601	1873181	WORD	n/a	wordpools/wordpool_categorized_EN.txt	PAPER	OfficeSupplies	11	12	[0, 0, 0]	n/a	catFR1	4	R1652A
1789.111	0.892	1874782	WORD_OFF	n/a	n/a	PAPER	OfficeSupplies	11	12	[0, 0, 0]	n/a	catFR1	4	R1652A
1790.003	1.609	1875679	WORD	n/a	wordpools/wordpool_categorized_EN.txt	RULER	OfficeSupplies	12	12	[0, 0, 0]	n/a	catFR1	4	R1652A
1791.612	0.001	1877289	PROB	4.949	n/a	n/a	n/a	-999	12	[1, 3, 8]	12.0	catFR1	4	R1652A
1791.613	0.003	1877292	WORD_OFF	n/a	n/a	RULER	OfficeSupplies	12	12	[0, 0, 0]	n/a	catFR1	4	R1652A
1791.616	0.0	1877292	ENCODING_END	n/a	n/a	n/a	n/a	-999	12	[0, 0, 0]	n/a	catFR1	4	R1652A
1791.616	0.0	1877292	DISTRACT_START	n/a	n/a	n/a	n/a	-999	12	[0, 0, 0]	n/a	catFR1	4	R1652A
1791.616	4.954	1877293	START	n/a	n/a	n/a	n/a	-999	12	[-999, -999, -999]	n/a	catFR1	4	R1652A
1796.57	5.25	1882247	PROB	5.24	n/a	n/a	n/a	-999	12	[3, 7, 7]	17.0	catFR1	4	R1652A
1801.82	4.658	1887497	PROB	4.649	n/a	n/a	n/a	-999	12	[8, 2, 5]	15.0	catFR1	4	R1652A
1806.478	4.092	1892155	PROB	4.083	n/a	n/a	n/a	-999	12	[3, 8, 1]	12.0	catFR1	4	R1652A
1810.57	6.458	1896247	PROB	6.449	n/a	n/a	n/a	-999	12	[4, 4, 6]	14.0	catFR1	4	R1652A
1817.028	0.0	1902702	DISTRACT_END	n/a	n/a	n/a	n/a	-999	12	[0, 0, 0]	n/a	catFR1	4	R1652A
1817.028	2.208	1902705	STOP	n/a	n/a	n/a	n/a	-999	12	[-999, -999, -999]	n/a	catFR1	4	R1652A
1819.236	0.371	1904913	REC_START	n/a	n/a	n/a	n/a	-999	12	[0, 0, 0]	n/a	catFR1	4	R1652A
1819.607	1.826	1905284	REC_WORD	0.371	n/a	PANTS	Clothing	1	12	[0, 0, 0]	n/a	catFR1	4	R1652A
1821.433	4.416	1907110	REC_WORD	2.197	n/a	SKIRT	Clothing	2	12	[0, 0, 0]	n/a	catFR1	4	R1652A
1825.849	1.764	1911526	REC_WORD	6.613	n/a	WILLOW	Trees	7	12	[0, 0, 0]	n/a	catFR1	4	R1652A
1827.613	3.113	1913290	REC_WORD	8.377	n/a	MAPLE	Trees	4	12	[0, 0, 0]	n/a	catFR1	4	R1652A
1830.726	4.264	1916403	REC_WORD	11.49	n/a	ELM	Trees	8	12	[0, 0, 0]	n/a	catFR1	4	R1652A
1834.99	1.775	1920666	REC_WORD	15.754	n/a	BINDER	OfficeSupplies	5	12	[0, 0, 0]	n/a	catFR1	4	R1652A
1836.765	2.442	1922441	REC_WORD	17.529	n/a	ERASER	OfficeSupplies	6	12	[0, 0, 0]	n/a	catFR1	4	R1652A
1839.207	10.167	1924883	REC_WORD	19.971	n/a	NOTEBOOK	OfficeSupplies	-999	12	[0, 0, 0]	n/a	catFR1	4	R1652A
1849.374	0.0	1935055	REC_END	n/a	n/a	n/a	n/a	-999	12	[0, 0, 0]	n/a	catFR1	4	R1652A
