onset	duration	sample	trial_type	response_time	stim_file	item_name	category	serialpos	list	test	answer	experiment	session	subject
0.0	101610.472	-1	INSTRUCT_START	n/a	n/a	n/a	n/a	-999	-999	[0, 0, 0]	n/a	catFR1	0	R1351M
101610.472	211.455	626	INSTRUCT_START	n/a	n/a	n/a	n/a	-999	-999	[0, 0, 0]	n/a	catFR1	0	R1351M
101821.927	15.303	212071	INSTRUCT_END	n/a	n/a	n/a	n/a	-999	-999	[0, 0, 0]	n/a	catFR1	0	R1351M
101837.23	8.335	227374	MIC TEST_START	n/a	n/a	n/a	n/a	-999	-999	[0, 0, 0]	n/a	catFR1	0	R1351M
101845.565	0.012	235708	MIC TEST_END	n/a	n/a	n/a	n/a	-999	-999	[0, 0, 0]	n/a	catFR1	0	R1351M
101845.577	0.0	235720	TRIAL_START	n/a	n/a	n/a	n/a	-999	-1	[0, 0, 0]	n/a	catFR1	0	R1351M
101845.577	0.001	235720	TRIAL	n/a	n/a	n/a	n/a	-999	-1	[0, 0, 0]	n/a	catFR1	0	R1351M
101845.578	3.505	235721	WAITING_START	n/a	n/a	n/a	n/a	-999	-1	[0, 0, 0]	n/a	catFR1	0	R1351M
101849.083	0.0	239226	COUNTDOWN_START	n/a	n/a	n/a	n/a	-999	-1	[0, 0, 0]	n/a	catFR1	0	R1351M
101849.083	10.429	239226	WAITING_END	n/a	n/a	n/a	n/a	-999	-1	[0, 0, 0]	n/a	catFR1	0	R1351M
101859.512	0.0	249655	COUNTDOWN_END	n/a	n/a	n/a	n/a	-999	-1	[0, 0, 0]	n/a	catFR1	0	R1351M
101859.512	1.039	249655	ORIENT_START	n/a	n/a	n/a	n/a	-999	-1	[0, 0, 0]	n/a	catFR1	0	R1351M
101860.551	0.0	250694	ORIENT_END	n/a	n/a	n/a	n/a	-999	-1	[0, 0, 0]	n/a	catFR1	0	R1351M
101860.551	1.057	250694	ENCODING_START	n/a	n/a	n/a	n/a	-999	-1	[0, 0, 0]	n/a	catFR1	0	R1351M
101861.608	1.627	251751	WORD	n/a	n/a	TEACHER	n/a	1	-1	[0, 0, 0]	n/a	catFR1	0	R1351M
101863.235	1.149	253377	WORD_OFF	n/a	n/a	TEACHER	n/a	1	-1	[0, 0, 0]	n/a	catFR1	0	R1351M
101864.384	1.635	254526	WORD	n/a	n/a	DAY	n/a	2	-1	[0, 0, 0]	n/a	catFR1	0	R1351M
101866.019	0.925	256161	WORD_OFF	n/a	n/a	DAY	n/a	2	-1	[0, 0, 0]	n/a	catFR1	0	R1351M
101866.944	1.625	257086	WORD	n/a	n/a	SECOND	n/a	3	-1	[0, 0, 0]	n/a	catFR1	0	R1351M
101868.569	0.85	258711	WORD_OFF	n/a	n/a	SECOND	n/a	3	-1	[0, 0, 0]	n/a	catFR1	0	R1351M
101869.419	1.634	259561	WORD	n/a	n/a	FIREMAN	n/a	4	-1	[0, 0, 0]	n/a	catFR1	0	R1351M
101871.053	0.969	261195	WORD_OFF	n/a	n/a	FIREMAN	n/a	4	-1	[0, 0, 0]	n/a	catFR1	0	R1351M
101872.022	1.631	262164	WORD	n/a	n/a	PLUMBER	n/a	5	-1	[0, 0, 0]	n/a	catFR1	0	R1351M
101873.653	0.765	263795	WORD_OFF	n/a	n/a	PLUMBER	n/a	5	-1	[0, 0, 0]	n/a	catFR1	0	R1351M
101874.418	1.636	264560	WORD	n/a	n/a	DENIM	n/a	6	-1	[0, 0, 0]	n/a	catFR1	0	R1351M
101876.054	1.086	266196	WORD_OFF	n/a	n/a	DENIM	n/a	6	-1	[0, 0, 0]	n/a	catFR1	0	R1351M
101877.14	1.631	267282	WORD	n/a	n/a	FARMER	n/a	7	-1	[0, 0, 0]	n/a	catFR1	0	R1351M
101878.771	1.009	268913	WORD_OFF	n/a	n/a	FARMER	n/a	7	-1	[0, 0, 0]	n/a	catFR1	0	R1351M
101879.78	1.625	269922	WORD	n/a	n/a	MINUTE	n/a	8	-1	[0, 0, 0]	n/a	catFR1	0	R1351M
101881.405	0.773	271547	WORD_OFF	n/a	n/a	MINUTE	n/a	8	-1	[0, 0, 0]	n/a	catFR1	0	R1351M
101882.178	1.628	272320	WORD	n/a	n/a	WOOL	n/a	9	-1	[0, 0, 0]	n/a	catFR1	0	R1351M
101883.806	0.948	273948	WORD_OFF	n/a	n/a	WOOL	n/a	9	-1	[0, 0, 0]	n/a	catFR1	0	R1351M
101884.754	1.635	274896	WORD	n/a	n/a	SILK	n/a	10	-1	[0, 0, 0]	n/a	catFR1	0	R1351M
101886.389	0.815	276530	WORD_OFF	n/a	n/a	SILK	n/a	10	-1	[0, 0, 0]	n/a	catFR1	0	R1351M
101887.204	1.636	277345	WORD	n/a	n/a	LEATHER	n/a	11	-1	[0, 0, 0]	n/a	catFR1	0	R1351M
101888.84	1.072	278981	WORD_OFF	n/a	n/a	LEATHER	n/a	11	-1	[0, 0, 0]	n/a	catFR1	0	R1351M
101889.912	1.628	280053	WORD	n/a	n/a	HOUR	n/a	12	-1	[0, 0, 0]	n/a	catFR1	0	R1351M
101891.54	0.001	281681	WORD_OFF	n/a	n/a	HOUR	n/a	12	-1	[0, 0, 0]	n/a	catFR1	0	R1351M
101891.541	0.0	281682	DISTRACT_START	n/a	n/a	n/a	n/a	-999	-1	[0, 0, 0]	n/a	catFR1	0	R1351M
101891.541	0.0	281682	ENCODING_END	n/a	n/a	n/a	n/a	-999	-1	[0, 0, 0]	n/a	catFR1	0	R1351M
101891.541	0.016	281682	START	n/a	n/a	n/a	n/a	-999	-1	[-999, -999, -999]	n/a	catFR1	0	R1351M
101891.557	7.651	281698	PROB	7.651	n/a	n/a	n/a	-999	-1	[7, 6, 5]	18	catFR1	0	R1351M
101899.208	4.684	289349	PROB	4.684	n/a	n/a	n/a	-999	-1	[9, 6, 6]	21	catFR1	0	R1351M
101903.892	4.218	294033	PROB	4.218	n/a	n/a	n/a	-999	-1	[5, 8, 5]	18	catFR1	0	R1351M
101908.11	6.449	298250	PROB	6.449	n/a	n/a	n/a	-999	-1	[6, 9, 9]	24	catFR1	0	R1351M
101914.559	0.019	304699	STOP	n/a	n/a	n/a	n/a	-999	-1	[-999, -999, -999]	n/a	catFR1	0	R1351M
101914.578	0.503	304718	DISTRACT_END	n/a	n/a	n/a	n/a	-999	-1	[0, 0, 0]	n/a	catFR1	0	R1351M
101915.081	1.698	305221	RETRIEVAL_ORIENT_START	n/a	n/a	n/a	n/a	-999	-1	[0, 0, 0]	n/a	catFR1	0	R1351M
101916.779	0.0	306919	RETRIEVAL_ORIENT_END	n/a	n/a	n/a	n/a	-999	-1	[0, 0, 0]	n/a	catFR1	0	R1351M
101916.779	1.128	306919	REC_START	n/a	n/a	n/a	n/a	-999	-1	[0, 0, 0]	n/a	catFR1	0	R1351M
101917.907	0.513	308047	REC_WORD	0.513	n/a	TEACHER	n/a	1	-1	[0, 0, 0]	n/a	catFR1	0	R1351M
101918.42	0.987	308560	REC_WORD_VV	0.987	n/a	<>	n/a	-999	-1	[0, 0, 0]	n/a	catFR1	0	R1351M
101919.407	0.968	309547	REC_WORD	0.968	n/a	FIREMAN	n/a	4	-1	[0, 0, 0]	n/a	catFR1	0	R1351M
101920.375	1.355	310515	REC_WORD	1.355	n/a	PLUMBER	n/a	5	-1	[0, 0, 0]	n/a	catFR1	0	R1351M
101921.73	10.862	311870	REC_WORD	10.862	n/a	WOOL	n/a	9	-1	[0, 0, 0]	n/a	catFR1	0	R1351M
101932.592	10.912	322731	REC_WORD	10.912	n/a	FARMER	n/a	7	-1	[0, 0, 0]	n/a	catFR1	0	R1351M
101943.504	3.288	333643	REC_WORD_VV	3.288	n/a	<>	n/a	-999	-1	[0, 0, 0]	n/a	catFR1	0	R1351M
101946.792	0.0	336931	REC_END	n/a	n/a	n/a	n/a	-999	-1	[0, 0, 0]	n/a	catFR1	0	R1351M
101946.792	7.744	336931	PRACTICE_POST_INSTRUCT_START	n/a	n/a	n/a	n/a	-999	-1	[0, 0, 0]	n/a	catFR1	0	R1351M
101954.536	0.001	344674	PRACTICE_POST_INSTRUCT_END	n/a	n/a	n/a	n/a	-999	-1	[0, 0, 0]	n/a	catFR1	0	R1351M
101954.537	0.027	344675	TRIAL_END	n/a	n/a	n/a	n/a	-999	-1	[0, 0, 0]	n/a	catFR1	0	R1351M
101954.564	0.001	344702	TRIAL_START	n/a	n/a	n/a	n/a	-999	1	[0, 0, 0]	n/a	catFR1	0	R1351M
101954.565	0.0	344703	TRIAL	n/a	n/a	n/a	n/a	-999	1	[0, 0, 0]	n/a	catFR1	0	R1351M
101954.565	4.439	344703	WAITING_START	n/a	n/a	n/a	n/a	-999	1	[0, 0, 0]	n/a	catFR1	0	R1351M
101959.004	0.0	349142	COUNTDOWN_START	n/a	n/a	n/a	n/a	-999	1	[0, 0, 0]	n/a	catFR1	0	R1351M
101959.004	10.43	349142	WAITING_END	n/a	n/a	n/a	n/a	-999	1	[0, 0, 0]	n/a	catFR1	0	R1351M
101969.434	0.0	359572	COUNTDOWN_END	n/a	n/a	n/a	n/a	-999	1	[0, 0, 0]	n/a	catFR1	0	R1351M
101969.434	1.022	359572	ORIENT_START	n/a	n/a	n/a	n/a	-999	1	[0, 0, 0]	n/a	catFR1	0	R1351M
101970.456	0.0	360594	ORIENT_END	n/a	n/a	n/a	n/a	-999	1	[0, 0, 0]	n/a	catFR1	0	R1351M
101970.456	0.767	360594	ENCODING_START	n/a	n/a	n/a	n/a	-999	1	[0, 0, 0]	n/a	catFR1	0	R1351M
101971.223	1.633	361361	WORD	n/a	wordpools/wordpool_categorized_EN.txt	SHORTS	Clothing	1	1	[0, 0, 0]	n/a	catFR1	0	R1351M
101972.856	1.056	362993	WORD_OFF	n/a	n/a	SHORTS	Clothing	1	1	[0, 0, 0]	n/a	catFR1	0	R1351M
101973.912	1.628	364049	WORD	n/a	wordpools/wordpool_categorized_EN.txt	PANTS	Clothing	2	1	[0, 0, 0]	n/a	catFR1	0	R1351M
101975.54	0.814	365677	WORD_OFF	n/a	n/a	PANTS	Clothing	2	1	[0, 0, 0]	n/a	catFR1	0	R1351M
101976.354	1.636	366491	WORD	n/a	wordpools/wordpool_categorized_EN.txt	LILY	Flowers	3	1	[0, 0, 0]	n/a	catFR1	0	R1351M
101977.99	0.832	368127	WORD_OFF	n/a	n/a	LILY	Flowers	3	1	[0, 0, 0]	n/a	catFR1	0	R1351M
101978.822	1.636	368959	WORD	n/a	wordpools/wordpool_categorized_EN.txt	SUNFLOWER	Flowers	4	1	[0, 0, 0]	n/a	catFR1	0	R1351M
101980.458	0.939	370595	WORD_OFF	n/a	n/a	SUNFLOWER	Flowers	4	1	[0, 0, 0]	n/a	catFR1	0	R1351M
101981.397	1.628	371534	WORD	n/a	wordpools/wordpool_categorized_EN.txt	EVERGREEN	Trees	5	1	[0, 0, 0]	n/a	catFR1	0	R1351M
101983.025	0.837	373162	WORD_OFF	n/a	n/a	EVERGREEN	Trees	5	1	[0, 0, 0]	n/a	catFR1	0	R1351M
101983.862	1.63	373999	WORD	n/a	wordpools/wordpool_categorized_EN.txt	WALNUT	Trees	6	1	[0, 0, 0]	n/a	catFR1	0	R1351M
101985.492	1.013	375629	WORD_OFF	n/a	n/a	WALNUT	Trees	6	1	[0, 0, 0]	n/a	catFR1	0	R1351M
101986.505	1.637	376642	WORD	n/a	wordpools/wordpool_categorized_EN.txt	JEANS	Clothing	7	1	[0, 0, 0]	n/a	catFR1	0	R1351M
101988.142	0.926	378279	WORD_OFF	n/a	n/a	JEANS	Clothing	7	1	[0, 0, 0]	n/a	catFR1	0	R1351M
101989.068	1.625	379205	WORD	n/a	wordpools/wordpool_categorized_EN.txt	COAT	Clothing	8	1	[0, 0, 0]	n/a	catFR1	0	R1351M
101990.693	0.791	380830	WORD_OFF	n/a	n/a	COAT	Clothing	8	1	[0, 0, 0]	n/a	catFR1	0	R1351M
101991.484	1.626	381621	WORD	n/a	wordpools/wordpool_categorized_EN.txt	ROSE	Flowers	9	1	[0, 0, 0]	n/a	catFR1	0	R1351M
101993.11	1.016	383247	WORD_OFF	n/a	n/a	ROSE	Flowers	9	1	[0, 0, 0]	n/a	catFR1	0	R1351M
101994.126	1.635	384263	WORD	n/a	wordpools/wordpool_categorized_EN.txt	DAISY	Flowers	10	1	[0, 0, 0]	n/a	catFR1	0	R1351M
101995.761	1.114	385897	WORD_OFF	n/a	n/a	DAISY	Flowers	10	1	[0, 0, 0]	n/a	catFR1	0	R1351M
101996.875	1.636	387011	WORD	n/a	wordpools/wordpool_categorized_EN.txt	PINE	Trees	11	1	[0, 0, 0]	n/a	catFR1	0	R1351M
101998.511	0.915	388647	WORD_OFF	n/a	n/a	PINE	Trees	11	1	[0, 0, 0]	n/a	catFR1	0	R1351M
101999.426	1.636	389562	WORD	n/a	wordpools/wordpool_categorized_EN.txt	CYPRESS	Trees	12	1	[0, 0, 0]	n/a	catFR1	0	R1351M
102001.062	0.0	391198	WORD_OFF	n/a	n/a	CYPRESS	Trees	12	1	[0, 0, 0]	n/a	catFR1	0	R1351M
102001.062	0.0	391198	ENCODING_END	n/a	n/a	n/a	n/a	-999	1	[0, 0, 0]	n/a	catFR1	0	R1351M
102001.062	0.001	391198	DISTRACT_START	n/a	n/a	n/a	n/a	-999	1	[0, 0, 0]	n/a	catFR1	0	R1351M
102001.063	0.015	391199	START	n/a	n/a	n/a	n/a	-999	1	[-999, -999, -999]	n/a	catFR1	0	R1351M
102001.078	4.568	391214	PROB	4.568	n/a	n/a	n/a	-999	1	[4, 6, 1]	11	catFR1	0	R1351M
102005.646	3.317	395782	PROB	3.317	n/a	n/a	n/a	-999	1	[1, 5, 3]	9	catFR1	0	R1351M
102008.963	3.867	399099	PROB	3.867	n/a	n/a	n/a	-999	1	[6, 2, 5]	13	catFR1	0	R1351M
102012.83	4.251	402966	PROB	4.251	n/a	n/a	n/a	-999	1	[4, 7, 8]	19	catFR1	0	R1351M
102017.081	4.057	407216	PROB	4.057	n/a	n/a	n/a	-999	1	[4, 6, 4]	14	catFR1	0	R1351M
102021.138	0.011	411273	STOP	n/a	n/a	n/a	n/a	-999	1	[-999, -999, -999]	n/a	catFR1	0	R1351M
102021.149	0.5	411284	DISTRACT_END	n/a	n/a	n/a	n/a	-999	1	[0, 0, 0]	n/a	catFR1	0	R1351M
102021.649	1.717	411784	RETRIEVAL_ORIENT_START	n/a	n/a	n/a	n/a	-999	1	[0, 0, 0]	n/a	catFR1	0	R1351M
102023.366	0.0	413501	RETRIEVAL_ORIENT_END	n/a	n/a	n/a	n/a	-999	1	[0, 0, 0]	n/a	catFR1	0	R1351M
102023.366	1.184	413501	REC_START	n/a	n/a	n/a	n/a	-999	1	[0, 0, 0]	n/a	catFR1	0	R1351M
102024.55	0.907	414685	REC_WORD	0.907	n/a	SHORTS	Clothing	1	1	[0, 0, 0]	n/a	catFR1	0	R1351M
102025.457	0.658	415592	REC_WORD	0.658	n/a	PANTS	Clothing	2	1	[0, 0, 0]	n/a	catFR1	0	R1351M
102026.115	6.66	416250	REC_WORD	6.66	n/a	SHIRT	n/a	-999	1	[0, 0, 0]	n/a	catFR1	0	R1351M
102032.775	4.113	422910	REC_WORD	4.113	n/a	COAT	Clothing	8	1	[0, 0, 0]	n/a	catFR1	0	R1351M
102036.888	2.678	427023	REC_WORD	2.678	n/a	ROSE	Flowers	9	1	[0, 0, 0]	n/a	catFR1	0	R1351M
102039.566	2.023	429700	REC_WORD	2.023	n/a	LILY	Flowers	3	1	[0, 0, 0]	n/a	catFR1	0	R1351M
102041.589	1.701	431723	REC_WORD	1.701	n/a	EVERGREEN	Trees	5	1	[0, 0, 0]	n/a	catFR1	0	R1351M
102043.29	2.195	433424	REC_WORD	2.195	n/a	WALNUT	Trees	6	1	[0, 0, 0]	n/a	catFR1	0	R1351M
102045.485	0.969	435619	REC_WORD	0.969	n/a	SUNFLOWER	Flowers	4	1	[0, 0, 0]	n/a	catFR1	0	R1351M
102046.454	6.923	436588	REC_WORD_VV	6.923	n/a	<>	n/a	-999	1	[0, 0, 0]	n/a	catFR1	0	R1351M
102053.377	0.001	443511	REC_END	n/a	n/a	n/a	n/a	-999	1	[0, 0, 0]	n/a	catFR1	0	R1351M
102053.378	0.021	443512	TRIAL_END	n/a	n/a	n/a	n/a	-999	1	[0, 0, 0]	n/a	catFR1	0	R1351M
102053.399	0.0	443533	WAITING_START	n/a	n/a	n/a	n/a	-999	2	[0, 0, 0]	n/a	catFR1	0	R1351M
102053.399	0.0	443533	TRIAL_START	n/a	n/a	n/a	n/a	-999	2	[0, 0, 0]	n/a	catFR1	0	R1351M
102053.399	11.242	443533	TRIAL	n/a	n/a	n/a	n/a	-999	2	[0, 0, 0]	n/a	catFR1	0	R1351M
102064.641	0.0	454774	WAITING_END	n/a	n/a	n/a	n/a	-999	2	[0, 0, 0]	n/a	catFR1	0	R1351M
102064.641	10.43	454774	COUNTDOWN_START	n/a	n/a	n/a	n/a	-999	2	[0, 0, 0]	n/a	catFR1	0	R1351M
102075.071	0.0	465204	COUNTDOWN_END	n/a	n/a	n/a	n/a	-999	2	[0, 0, 0]	n/a	catFR1	0	R1351M
102075.071	1.022	465204	ORIENT_START	n/a	n/a	n/a	n/a	-999	2	[0, 0, 0]	n/a	catFR1	0	R1351M
102076.093	0.0	466226	ENCODING_START	n/a	n/a	n/a	n/a	-999	2	[0, 0, 0]	n/a	catFR1	0	R1351M
102076.093	0.753	466226	ORIENT_END	n/a	n/a	n/a	n/a	-999	2	[0, 0, 0]	n/a	catFR1	0	R1351M
102076.846	1.631	466979	WORD	n/a	wordpools/wordpool_categorized_EN.txt	MILK	Beverages	1	2	[0, 0, 0]	n/a	catFR1	0	R1351M
102078.477	0.816	468610	WORD_OFF	n/a	n/a	MILK	Beverages	1	2	[0, 0, 0]	n/a	catFR1	0	R1351M
102079.293	1.634	469426	WORD	n/a	wordpools/wordpool_categorized_EN.txt	SODA	Beverages	2	2	[0, 0, 0]	n/a	catFR1	0	R1351M
102080.927	0.908	471060	WORD_OFF	n/a	n/a	SODA	Beverages	2	2	[0, 0, 0]	n/a	catFR1	0	R1351M
102081.835	1.626	471968	WORD	n/a	wordpools/wordpool_categorized_EN.txt	CEILING	Building	3	2	[0, 0, 0]	n/a	catFR1	0	R1351M
102083.461	0.882	473593	WORD_OFF	n/a	n/a	CEILING	Building	3	2	[0, 0, 0]	n/a	catFR1	0	R1351M
102084.343	1.635	474475	WORD	n/a	wordpools/wordpool_categorized_EN.txt	ROOM	Building	4	2	[0, 0, 0]	n/a	catFR1	0	R1351M
102085.978	0.985	476110	WORD_OFF	n/a	n/a	ROOM	Building	4	2	[0, 0, 0]	n/a	catFR1	0	R1351M
102086.963	1.632	477095	WORD	n/a	wordpools/wordpool_categorized_EN.txt	MAPLE	Trees	5	2	[0, 0, 0]	n/a	catFR1	0	R1351M
102088.595	1.024	478727	WORD_OFF	n/a	n/a	MAPLE	Trees	5	2	[0, 0, 0]	n/a	catFR1	0	R1351M
102089.619	1.627	479751	WORD	n/a	wordpools/wordpool_categorized_EN.txt	ELM	Trees	6	2	[0, 0, 0]	n/a	catFR1	0	R1351M
102091.246	0.959	481378	WORD_OFF	n/a	n/a	ELM	Trees	6	2	[0, 0, 0]	n/a	catFR1	0	R1351M
102092.205	1.625	482337	WORD	n/a	wordpools/wordpool_categorized_EN.txt	WINE	Beverages	7	2	[0, 0, 0]	n/a	catFR1	0	R1351M
102093.83	0.828	483962	WORD_OFF	n/a	n/a	WINE	Beverages	7	2	[0, 0, 0]	n/a	catFR1	0	R1351M
102094.658	1.622	484790	WORD	n/a	wordpools/wordpool_categorized_EN.txt	WATER	Beverages	8	2	[0, 0, 0]	n/a	catFR1	0	R1351M
102096.28	0.821	486412	WORD_OFF	n/a	n/a	WATER	Beverages	8	2	[0, 0, 0]	n/a	catFR1	0	R1351M
102097.101	1.629	487233	WORD	n/a	wordpools/wordpool_categorized_EN.txt	SPRUCE	Trees	9	2	[0, 0, 0]	n/a	catFR1	0	R1351M
102098.73	0.976	488862	WORD_OFF	n/a	n/a	SPRUCE	Trees	9	2	[0, 0, 0]	n/a	catFR1	0	R1351M
102099.706	1.625	489838	WORD	n/a	wordpools/wordpool_categorized_EN.txt	WILLOW	Trees	10	2	[0, 0, 0]	n/a	catFR1	0	R1351M
102101.331	0.837	491463	WORD_OFF	n/a	n/a	WILLOW	Trees	10	2	[0, 0, 0]	n/a	catFR1	0	R1351M
102102.168	1.63	492300	WORD	n/a	wordpools/wordpool_categorized_EN.txt	STAIRS	Building	11	2	[0, 0, 0]	n/a	catFR1	0	R1351M
102103.798	0.783	493930	WORD_OFF	n/a	n/a	STAIRS	Building	11	2	[0, 0, 0]	n/a	catFR1	0	R1351M
102104.581	1.634	494712	WORD	n/a	wordpools/wordpool_categorized_EN.txt	ATTIC	Building	12	2	[0, 0, 0]	n/a	catFR1	0	R1351M
102106.215	0.001	496346	WORD_OFF	n/a	n/a	ATTIC	Building	12	2	[0, 0, 0]	n/a	catFR1	0	R1351M
102106.216	0.0	496347	ENCODING_END	n/a	n/a	n/a	n/a	-999	2	[0, 0, 0]	n/a	catFR1	0	R1351M
102106.216	0.0	496347	DISTRACT_START	n/a	n/a	n/a	n/a	-999	2	[0, 0, 0]	n/a	catFR1	0	R1351M
102106.216	0.016	496347	START	n/a	n/a	n/a	n/a	-999	2	[-999, -999, -999]	n/a	catFR1	0	R1351M
102106.232	6.318	496363	PROB	6.318	n/a	n/a	n/a	-999	2	[7, 2, 2]	11	catFR1	0	R1351M
102112.55	4.717	502681	PROB	4.717	n/a	n/a	n/a	-999	2	[3, 6, 8]	17	catFR1	0	R1351M
102117.267	4.168	507398	PROB	4.168	n/a	n/a	n/a	-999	2	[1, 8, 1]	10	catFR1	0	R1351M
102121.435	13.378	511566	PROB	13.378	n/a	n/a	n/a	-999	2	[7, 1, 5]	13	catFR1	0	R1351M
102134.813	0.008	524943	STOP	n/a	n/a	n/a	n/a	-999	2	[-999, -999, -999]	n/a	catFR1	0	R1351M
102134.821	0.526	524951	DISTRACT_END	n/a	n/a	n/a	n/a	-999	2	[0, 0, 0]	n/a	catFR1	0	R1351M
102135.347	1.607	525477	RETRIEVAL_ORIENT_START	n/a	n/a	n/a	n/a	-999	2	[0, 0, 0]	n/a	catFR1	0	R1351M
102136.954	0.001	527084	RETRIEVAL_ORIENT_END	n/a	n/a	n/a	n/a	-999	2	[0, 0, 0]	n/a	catFR1	0	R1351M
102136.955	1.488	527085	REC_START	n/a	n/a	n/a	n/a	-999	2	[0, 0, 0]	n/a	catFR1	0	R1351M
102138.443	2.972	528573	REC_WORD	2.972	n/a	CEILING	Building	3	2	[0, 0, 0]	n/a	catFR1	0	R1351M
102141.415	7.253	531545	REC_WORD	7.253	n/a	WALL	n/a	-999	2	[0, 0, 0]	n/a	catFR1	0	R1351M
102148.668	0.84	538797	REC_WORD	0.84	n/a	ELM	Trees	6	2	[0, 0, 0]	n/a	catFR1	0	R1351M
102149.508	2.044	539637	REC_WORD	2.044	n/a	WALNUT	Trees	-999	2	[0, 0, 0]	n/a	catFR1	0	R1351M
102151.552	13.489	541681	REC_WORD	13.489	n/a	MAPLE	Trees	5	2	[0, 0, 0]	n/a	catFR1	0	R1351M
102165.041	0.445	555170	REC_WORD_VV	0.445	n/a	<>	n/a	-999	2	[0, 0, 0]	n/a	catFR1	0	R1351M
102165.486	1.479	555615	REC_WORD	1.479	n/a	FLOOR	n/a	-999	2	[0, 0, 0]	n/a	catFR1	0	R1351M
102166.965	0.001	557094	REC_END	n/a	n/a	n/a	n/a	-999	2	[0, 0, 0]	n/a	catFR1	0	R1351M
102166.966	0.021	557095	TRIAL_END	n/a	n/a	n/a	n/a	-999	2	[0, 0, 0]	n/a	catFR1	0	R1351M
102166.987	0.0	557116	WAITING_START	n/a	n/a	n/a	n/a	-999	3	[0, 0, 0]	n/a	catFR1	0	R1351M
102166.987	0.0	557116	TRIAL	n/a	n/a	n/a	n/a	-999	3	[0, 0, 0]	n/a	catFR1	0	R1351M
102166.987	20.444	557116	TRIAL_START	n/a	n/a	n/a	n/a	-999	3	[0, 0, 0]	n/a	catFR1	0	R1351M
102187.431	0.0	577559	WAITING_END	n/a	n/a	n/a	n/a	-999	3	[0, 0, 0]	n/a	catFR1	0	R1351M
102187.431	10.43	577559	COUNTDOWN_START	n/a	n/a	n/a	n/a	-999	3	[0, 0, 0]	n/a	catFR1	0	R1351M
102197.861	0.0	587988	COUNTDOWN_END	n/a	n/a	n/a	n/a	-999	3	[0, 0, 0]	n/a	catFR1	0	R1351M
102197.861	1.039	587988	ORIENT_START	n/a	n/a	n/a	n/a	-999	3	[0, 0, 0]	n/a	catFR1	0	R1351M
102198.9	0.0	589027	ORIENT_END	n/a	n/a	n/a	n/a	-999	3	[0, 0, 0]	n/a	catFR1	0	R1351M
102198.9	0.955	589027	ENCODING_START	n/a	n/a	n/a	n/a	-999	3	[0, 0, 0]	n/a	catFR1	0	R1351M
102199.855	1.629	589982	WORD	n/a	wordpools/wordpool_categorized_EN.txt	CHERRY	Fruit	1	3	[0, 0, 0]	n/a	catFR1	0	R1351M
102201.484	0.823	591611	WORD_OFF	n/a	n/a	CHERRY	Fruit	1	3	[0, 0, 0]	n/a	catFR1	0	R1351M
102202.307	1.627	592434	WORD	n/a	wordpools/wordpool_categorized_EN.txt	ORANGE	Fruit	2	3	[0, 0, 0]	n/a	catFR1	0	R1351M
102203.934	0.782	594061	WORD_OFF	n/a	n/a	ORANGE	Fruit	2	3	[0, 0, 0]	n/a	catFR1	0	R1351M
102204.716	1.635	594843	WORD	n/a	wordpools/wordpool_categorized_EN.txt	CHAIR	Furniture	3	3	[0, 0, 0]	n/a	catFR1	0	R1351M
102206.351	0.766	596478	WORD_OFF	n/a	n/a	CHAIR	Furniture	3	3	[0, 0, 0]	n/a	catFR1	0	R1351M
102207.117	1.635	597244	WORD	n/a	wordpools/wordpool_categorized_EN.txt	DESK	Furniture	4	3	[0, 0, 0]	n/a	catFR1	0	R1351M
102208.752	0.879	598879	WORD_OFF	n/a	n/a	DESK	Furniture	4	3	[0, 0, 0]	n/a	catFR1	0	R1351M
102209.631	1.638	599758	WORD	n/a	wordpools/wordpool_categorized_EN.txt	SHOVEL	Tools	5	3	[0, 0, 0]	n/a	catFR1	0	R1351M
102211.269	0.951	601396	WORD_OFF	n/a	n/a	SHOVEL	Tools	5	3	[0, 0, 0]	n/a	catFR1	0	R1351M
102212.22	1.633	602347	WORD	n/a	wordpools/wordpool_categorized_EN.txt	CROWBAR	Tools	6	3	[0, 0, 0]	n/a	catFR1	0	R1351M
102213.853	1.003	603979	WORD_OFF	n/a	n/a	CROWBAR	Tools	6	3	[0, 0, 0]	n/a	catFR1	0	R1351M
102214.856	1.631	604982	WORD	n/a	wordpools/wordpool_categorized_EN.txt	BANANA	Fruit	7	3	[0, 0, 0]	n/a	catFR1	0	R1351M
102216.487	0.778	606613	WORD_OFF	n/a	n/a	BANANA	Fruit	7	3	[0, 0, 0]	n/a	catFR1	0	R1351M
102217.265	1.639	607391	WORD	n/a	wordpools/wordpool_categorized_EN.txt	BLUEBERRY	Fruit	8	3	[0, 0, 0]	n/a	catFR1	0	R1351M
102218.904	1.09	609030	WORD_OFF	n/a	n/a	BLUEBERRY	Fruit	8	3	[0, 0, 0]	n/a	catFR1	0	R1351M
102219.994	1.627	610120	WORD	n/a	wordpools/wordpool_categorized_EN.txt	PLIERS	Tools	9	3	[0, 0, 0]	n/a	catFR1	0	R1351M
102221.621	0.793	611747	WORD_OFF	n/a	n/a	PLIERS	Tools	9	3	[0, 0, 0]	n/a	catFR1	0	R1351M
102222.414	1.624	612540	WORD	n/a	wordpools/wordpool_categorized_EN.txt	RATCHET	Tools	10	3	[0, 0, 0]	n/a	catFR1	0	R1351M
102224.038	0.929	614164	WORD_OFF	n/a	n/a	RATCHET	Tools	10	3	[0, 0, 0]	n/a	catFR1	0	R1351M
102224.967	1.638	615093	WORD	n/a	wordpools/wordpool_categorized_EN.txt	BOOKCASE	Furniture	11	3	[0, 0, 0]	n/a	catFR1	0	R1351M
102226.605	0.806	616731	WORD_OFF	n/a	n/a	BOOKCASE	Furniture	11	3	[0, 0, 0]	n/a	catFR1	0	R1351M
102227.411	1.628	617537	WORD	n/a	wordpools/wordpool_categorized_EN.txt	DRESSER	Furniture	12	3	[0, 0, 0]	n/a	catFR1	0	R1351M
102229.039	0.001	619165	WORD_OFF	n/a	n/a	DRESSER	Furniture	12	3	[0, 0, 0]	n/a	catFR1	0	R1351M
102229.04	0.0	619166	ENCODING_END	n/a	n/a	n/a	n/a	-999	3	[0, 0, 0]	n/a	catFR1	0	R1351M
102229.04	0.0	619166	DISTRACT_START	n/a	n/a	n/a	n/a	-999	3	[0, 0, 0]	n/a	catFR1	0	R1351M
102229.04	0.015	619166	START	n/a	n/a	n/a	n/a	-999	3	[-999, -999, -999]	n/a	catFR1	0	R1351M
102229.055	5.468	619181	PROB	5.468	n/a	n/a	n/a	-999	3	[9, 8, 8]	25	catFR1	0	R1351M
102234.523	2.784	624649	PROB	2.784	n/a	n/a	n/a	-999	3	[1, 2, 2]	5	catFR1	0	R1351M
102237.307	4.118	627432	PROB	4.118	n/a	n/a	n/a	-999	3	[3, 2, 6]	11	catFR1	0	R1351M
102241.425	5.517	631550	PROB	5.517	n/a	n/a	n/a	-999	3	[9, 9, 2]	20	catFR1	0	R1351M
102246.942	5.918	637067	PROB	5.918	n/a	n/a	n/a	-999	3	[9, 5, 6]	20	catFR1	0	R1351M
102252.86	0.017	642985	STOP	n/a	n/a	n/a	n/a	-999	3	[-999, -999, -999]	n/a	catFR1	0	R1351M
102252.877	0.555	643002	DISTRACT_END	n/a	n/a	n/a	n/a	-999	3	[0, 0, 0]	n/a	catFR1	0	R1351M
102253.432	1.629	643557	RETRIEVAL_ORIENT_START	n/a	n/a	n/a	n/a	-999	3	[0, 0, 0]	n/a	catFR1	0	R1351M
102255.061	0.0	645186	RETRIEVAL_ORIENT_END	n/a	n/a	n/a	n/a	-999	3	[0, 0, 0]	n/a	catFR1	0	R1351M
102255.061	1.217	645186	REC_START	n/a	n/a	n/a	n/a	-999	3	[0, 0, 0]	n/a	catFR1	0	R1351M
102256.278	0.771	646403	REC_WORD	0.771	n/a	CHERRY	Fruit	1	3	[0, 0, 0]	n/a	catFR1	0	R1351M
102257.049	6.521	647174	REC_WORD	6.521	n/a	ORANGE	Fruit	2	3	[0, 0, 0]	n/a	catFR1	0	R1351M
102263.57	1.607	653694	REC_WORD	1.607	n/a	RATCHET	Tools	10	3	[0, 0, 0]	n/a	catFR1	0	R1351M
102265.177	4.539	655301	REC_WORD	4.539	n/a	PLIERS	Tools	9	3	[0, 0, 0]	n/a	catFR1	0	R1351M
102269.716	2.673	659840	REC_WORD	2.673	n/a	SHOVEL	Tools	5	3	[0, 0, 0]	n/a	catFR1	0	R1351M
102272.389	10.536	662513	REC_WORD_VV	10.536	n/a	<>	n/a	-999	3	[0, 0, 0]	n/a	catFR1	0	R1351M
102282.925	0.729	673048	REC_WORD_VV	0.729	n/a	<>	n/a	-999	3	[0, 0, 0]	n/a	catFR1	0	R1351M
102283.654	1.418	673777	REC_WORD	1.418	n/a	BANANA	Fruit	7	3	[0, 0, 0]	n/a	catFR1	0	R1351M
102285.072	0.0	675195	REC_END	n/a	n/a	n/a	n/a	-999	3	[0, 0, 0]	n/a	catFR1	0	R1351M
102285.072	0.026	675195	TRIAL_END	n/a	n/a	n/a	n/a	-999	3	[0, 0, 0]	n/a	catFR1	0	R1351M
102285.098	0.0	675221	WAITING_START	n/a	n/a	n/a	n/a	-999	4	[0, 0, 0]	n/a	catFR1	0	R1351M
102285.098	0.0	675221	TRIAL_START	n/a	n/a	n/a	n/a	-999	4	[0, 0, 0]	n/a	catFR1	0	R1351M
102285.098	12.604	675221	TRIAL	n/a	n/a	n/a	n/a	-999	4	[0, 0, 0]	n/a	catFR1	0	R1351M
102297.702	0.001	687825	WAITING_END	n/a	n/a	n/a	n/a	-999	4	[0, 0, 0]	n/a	catFR1	0	R1351M
102297.703	10.429	687826	COUNTDOWN_START	n/a	n/a	n/a	n/a	-999	4	[0, 0, 0]	n/a	catFR1	0	R1351M
102308.132	0.0	698254	COUNTDOWN_END	n/a	n/a	n/a	n/a	-999	4	[0, 0, 0]	n/a	catFR1	0	R1351M
102308.132	1.239	698254	ORIENT_START	n/a	n/a	n/a	n/a	-999	4	[0, 0, 0]	n/a	catFR1	0	R1351M
102309.371	0.001	699493	ORIENT_END	n/a	n/a	n/a	n/a	-999	4	[0, 0, 0]	n/a	catFR1	0	R1351M
102309.372	0.816	699494	ENCODING_START	n/a	n/a	n/a	n/a	-999	4	[0, 0, 0]	n/a	catFR1	0	R1351M
102310.188	1.634	700310	WORD	n/a	wordpools/wordpool_categorized_EN.txt	CIDER	Beverages	1	4	[0, 0, 0]	n/a	catFR1	0	R1351M
102311.822	1.145	701944	WORD_OFF	n/a	n/a	CIDER	Beverages	1	4	[0, 0, 0]	n/a	catFR1	0	R1351M
102312.967	1.622	703089	WORD	n/a	wordpools/wordpool_categorized_EN.txt	COLA	Beverages	2	4	[0, 0, 0]	n/a	catFR1	0	R1351M
102314.589	1.007	704711	WORD_OFF	n/a	n/a	COLA	Beverages	2	4	[0, 0, 0]	n/a	catFR1	0	R1351M
102315.596	1.627	705718	WORD	n/a	wordpools/wordpool_categorized_EN.txt	VIOLET	Flowers	3	4	[0, 0, 0]	n/a	catFR1	0	R1351M
102317.223	1.046	707345	WORD_OFF	n/a	n/a	VIOLET	Flowers	3	4	[0, 0, 0]	n/a	catFR1	0	R1351M
102318.269	1.638	708391	WORD	n/a	wordpools/wordpool_categorized_EN.txt	TULIP	Flowers	4	4	[0, 0, 0]	n/a	catFR1	0	R1351M
102319.907	1.112	710029	WORD_OFF	n/a	n/a	TULIP	Flowers	4	4	[0, 0, 0]	n/a	catFR1	0	R1351M
102321.019	1.638	711141	WORD	n/a	wordpools/wordpool_categorized_EN.txt	GIRAFFE	Zoo	5	4	[0, 0, 0]	n/a	catFR1	0	R1351M
102322.657	0.954	712779	WORD_OFF	n/a	n/a	GIRAFFE	Zoo	5	4	[0, 0, 0]	n/a	catFR1	0	R1351M
102323.611	1.63	713732	WORD	n/a	wordpools/wordpool_categorized_EN.txt	LION	Zoo	6	4	[0, 0, 0]	n/a	catFR1	0	R1351M
102325.241	0.87	715362	WORD_OFF	n/a	n/a	LION	Zoo	6	4	[0, 0, 0]	n/a	catFR1	0	R1351M
102326.111	1.63	716232	WORD	n/a	wordpools/wordpool_categorized_EN.txt	MARIGOLD	Flowers	7	4	[0, 0, 0]	n/a	catFR1	0	R1351M
102327.741	0.83	717862	WORD_OFF	n/a	n/a	MARIGOLD	Flowers	7	4	[0, 0, 0]	n/a	catFR1	0	R1351M
102328.571	1.637	718692	WORD	n/a	wordpools/wordpool_categorized_EN.txt	DAFFODIL	Flowers	8	4	[0, 0, 0]	n/a	catFR1	0	R1351M
102330.208	0.779	720329	WORD_OFF	n/a	n/a	DAFFODIL	Flowers	8	4	[0, 0, 0]	n/a	catFR1	0	R1351M
102330.987	1.622	721108	WORD	n/a	wordpools/wordpool_categorized_EN.txt	PANDA	Zoo	9	4	[0, 0, 0]	n/a	catFR1	0	R1351M
102332.609	0.989	722730	WORD_OFF	n/a	n/a	PANDA	Zoo	9	4	[0, 0, 0]	n/a	catFR1	0	R1351M
102333.598	1.628	723719	WORD	n/a	wordpools/wordpool_categorized_EN.txt	ORANGUTAN	Zoo	10	4	[0, 0, 0]	n/a	catFR1	0	R1351M
102335.226	1.082	725347	WORD_OFF	n/a	n/a	ORANGUTAN	Zoo	10	4	[0, 0, 0]	n/a	catFR1	0	R1351M
102336.308	1.636	726429	WORD	n/a	wordpools/wordpool_categorized_EN.txt	BEER	Beverages	11	4	[0, 0, 0]	n/a	catFR1	0	R1351M
102337.944	0.928	728065	WORD_OFF	n/a	n/a	BEER	Beverages	11	4	[0, 0, 0]	n/a	catFR1	0	R1351M
102338.872	1.622	728993	WORD	n/a	wordpools/wordpool_categorized_EN.txt	JUICE	Beverages	12	4	[0, 0, 0]	n/a	catFR1	0	R1351M
102340.494	0.0	730615	WORD_OFF	n/a	n/a	JUICE	Beverages	12	4	[0, 0, 0]	n/a	catFR1	0	R1351M
102340.494	0.001	730615	ENCODING_END	n/a	n/a	n/a	n/a	-999	4	[0, 0, 0]	n/a	catFR1	0	R1351M
102340.495	0.0	730616	DISTRACT_START	n/a	n/a	n/a	n/a	-999	4	[0, 0, 0]	n/a	catFR1	0	R1351M
102340.495	0.015	730616	START	n/a	n/a	n/a	n/a	-999	4	[-999, -999, -999]	n/a	catFR1	0	R1351M
102340.51	5.702	730631	PROB	5.702	n/a	n/a	n/a	-999	4	[4, 8, 4]	16	catFR1	0	R1351M
102346.212	3.467	736332	PROB	3.467	n/a	n/a	n/a	-999	4	[6, 2, 3]	11	catFR1	0	R1351M
102349.679	4.483	739799	PROB	4.483	n/a	n/a	n/a	-999	4	[3, 8, 4]	15	catFR1	0	R1351M
102354.162	4.535	744282	PROB	4.535	n/a	n/a	n/a	-999	4	[2, 5, 2]	9	catFR1	0	R1351M
102358.697	5.706	748817	PROB	5.706	n/a	n/a	n/a	-999	4	[5, 9, 3]	17	catFR1	0	R1351M
102364.403	0.012	754523	STOP	n/a	n/a	n/a	n/a	-999	4	[-999, -999, -999]	n/a	catFR1	0	R1351M
102364.415	0.503	754535	DISTRACT_END	n/a	n/a	n/a	n/a	-999	4	[0, 0, 0]	n/a	catFR1	0	R1351M
102364.918	1.581	755038	RETRIEVAL_ORIENT_START	n/a	n/a	n/a	n/a	-999	4	[0, 0, 0]	n/a	catFR1	0	R1351M
102366.499	0.0	756619	RETRIEVAL_ORIENT_END	n/a	n/a	n/a	n/a	-999	4	[0, 0, 0]	n/a	catFR1	0	R1351M
102366.499	0.921	756619	REC_START	n/a	n/a	n/a	n/a	-999	4	[0, 0, 0]	n/a	catFR1	0	R1351M
102367.42	0.846	757539	REC_WORD	0.846	n/a	CIDER	Beverages	1	4	[0, 0, 0]	n/a	catFR1	0	R1351M
102368.266	0.847	758385	REC_WORD	0.847	n/a	COLA	Beverages	2	4	[0, 0, 0]	n/a	catFR1	0	R1351M
102369.113	0.761	759232	REC_WORD	0.761	n/a	MILK	Beverages	-999	4	[0, 0, 0]	n/a	catFR1	0	R1351M
102369.874	4.31	759993	REC_WORD	4.31	n/a	BEER	Beverages	11	4	[0, 0, 0]	n/a	catFR1	0	R1351M
102374.184	4.266	764303	REC_WORD	4.266	n/a	ORANGUTAN	Zoo	10	4	[0, 0, 0]	n/a	catFR1	0	R1351M
102378.45	5.616	768569	REC_WORD	5.616	n/a	GIRAFFE	Zoo	5	4	[0, 0, 0]	n/a	catFR1	0	R1351M
102384.066	5.294	774185	REC_WORD	5.294	n/a	DAFFODIL	Flowers	8	4	[0, 0, 0]	n/a	catFR1	0	R1351M
102389.36	1.56	779478	REC_WORD	1.56	n/a	DANDELION	n/a	-999	4	[0, 0, 0]	n/a	catFR1	0	R1351M
102390.92	1.109	781038	REC_WORD_VV	1.109	n/a	<>	n/a	-999	4	[0, 0, 0]	n/a	catFR1	0	R1351M
102392.029	4.482	782147	REC_WORD_VV	4.482	n/a	<>	n/a	-999	4	[0, 0, 0]	n/a	catFR1	0	R1351M
102396.511	0.001	786629	REC_END	n/a	n/a	n/a	n/a	-999	4	[0, 0, 0]	n/a	catFR1	0	R1351M
102396.512	0.024	786630	TRIAL_END	n/a	n/a	n/a	n/a	-999	4	[0, 0, 0]	n/a	catFR1	0	R1351M
102396.536	0.0	786654	TRIAL_START	n/a	n/a	n/a	n/a	-999	5	[0, 0, 0]	n/a	catFR1	0	R1351M
102396.536	0.001	786654	TRIAL	n/a	n/a	n/a	n/a	-999	5	[0, 0, 0]	n/a	catFR1	0	R1351M
102396.537	18.238	786655	WAITING_START	n/a	n/a	n/a	n/a	-999	5	[0, 0, 0]	n/a	catFR1	0	R1351M
102414.775	0.001	804892	WAITING_END	n/a	n/a	n/a	n/a	-999	5	[0, 0, 0]	n/a	catFR1	0	R1351M
102414.776	10.429	804893	COUNTDOWN_START	n/a	n/a	n/a	n/a	-999	5	[0, 0, 0]	n/a	catFR1	0	R1351M
102425.205	0.0	815322	COUNTDOWN_END	n/a	n/a	n/a	n/a	-999	5	[0, 0, 0]	n/a	catFR1	0	R1351M
102425.205	1.239	815322	ORIENT_START	n/a	n/a	n/a	n/a	-999	5	[0, 0, 0]	n/a	catFR1	0	R1351M
102426.444	0.0	816561	ENCODING_START	n/a	n/a	n/a	n/a	-999	5	[0, 0, 0]	n/a	catFR1	0	R1351M
102426.444	0.909	816561	ORIENT_END	n/a	n/a	n/a	n/a	-999	5	[0, 0, 0]	n/a	catFR1	0	R1351M
102427.353	1.641	817470	WORD	n/a	wordpools/wordpool_categorized_EN.txt	REFRIGERATOR	Appliances	1	5	[0, 0, 0]	n/a	catFR1	0	R1351M
102428.994	0.891	819111	WORD_OFF	n/a	n/a	REFRIGERATOR	Appliances	1	5	[0, 0, 0]	n/a	catFR1	0	R1351M
102429.885	1.627	820002	WORD	n/a	wordpools/wordpool_categorized_EN.txt	DRYER	Appliances	2	5	[0, 0, 0]	n/a	catFR1	0	R1351M
102431.512	1.076	821629	WORD_OFF	n/a	n/a	DRYER	Appliances	2	5	[0, 0, 0]	n/a	catFR1	0	R1351M
102432.588	1.624	822705	WORD	n/a	wordpools/wordpool_categorized_EN.txt	SOCKS	Clothing	3	5	[0, 0, 0]	n/a	catFR1	0	R1351M
102434.212	0.879	824328	WORD_OFF	n/a	n/a	SOCKS	Clothing	3	5	[0, 0, 0]	n/a	catFR1	0	R1351M
102435.091	1.638	825207	WORD	n/a	wordpools/wordpool_categorized_EN.txt	JACKET	Clothing	4	5	[0, 0, 0]	n/a	catFR1	0	R1351M
102436.729	0.967	826845	WORD_OFF	n/a	n/a	JACKET	Clothing	4	5	[0, 0, 0]	n/a	catFR1	0	R1351M
102437.696	1.634	827812	WORD	n/a	wordpools/wordpool_categorized_EN.txt	SNOW	Weather	5	5	[0, 0, 0]	n/a	catFR1	0	R1351M
102439.33	0.767	829446	WORD_OFF	n/a	n/a	SNOW	Weather	5	5	[0, 0, 0]	n/a	catFR1	0	R1351M
102440.097	1.633	830213	WORD	n/a	wordpools/wordpool_categorized_EN.txt	WIND	Weather	6	5	[0, 0, 0]	n/a	catFR1	0	R1351M
102441.73	0.771	831846	WORD_OFF	n/a	n/a	WIND	Weather	6	5	[0, 0, 0]	n/a	catFR1	0	R1351M
102442.501	1.63	832617	WORD	n/a	wordpools/wordpool_categorized_EN.txt	SHOES	Clothing	7	5	[0, 0, 0]	n/a	catFR1	0	R1351M
102444.131	0.752	834247	WORD_OFF	n/a	n/a	SHOES	Clothing	7	5	[0, 0, 0]	n/a	catFR1	0	R1351M
102444.883	1.632	834999	WORD	n/a	wordpools/wordpool_categorized_EN.txt	SHIRT	Clothing	8	5	[0, 0, 0]	n/a	catFR1	0	R1351M
102446.515	0.869	836631	WORD_OFF	n/a	n/a	SHIRT	Clothing	8	5	[0, 0, 0]	n/a	catFR1	0	R1351M
102447.384	1.631	837500	WORD	n/a	wordpools/wordpool_categorized_EN.txt	CLOUD	Weather	9	5	[0, 0, 0]	n/a	catFR1	0	R1351M
102449.015	1.02	839131	WORD_OFF	n/a	n/a	CLOUD	Weather	9	5	[0, 0, 0]	n/a	catFR1	0	R1351M
102450.035	1.631	840151	WORD	n/a	wordpools/wordpool_categorized_EN.txt	TORNADO	Weather	10	5	[0, 0, 0]	n/a	catFR1	0	R1351M
102451.666	0.829	841782	WORD_OFF	n/a	n/a	TORNADO	Weather	10	5	[0, 0, 0]	n/a	catFR1	0	R1351M
102452.495	1.638	842611	WORD	n/a	wordpools/wordpool_categorized_EN.txt	MIXER	Appliances	11	5	[0, 0, 0]	n/a	catFR1	0	R1351M
102454.133	1.001	844249	WORD_OFF	n/a	n/a	MIXER	Appliances	11	5	[0, 0, 0]	n/a	catFR1	0	R1351M
102455.134	1.633	845249	WORD	n/a	wordpools/wordpool_categorized_EN.txt	DISHWASHER	Appliances	12	5	[0, 0, 0]	n/a	catFR1	0	R1351M
102456.767	0.0	846882	WORD_OFF	n/a	n/a	DISHWASHER	Appliances	12	5	[0, 0, 0]	n/a	catFR1	0	R1351M
102456.767	0.0	846882	ENCODING_END	n/a	n/a	n/a	n/a	-999	5	[0, 0, 0]	n/a	catFR1	0	R1351M
102456.767	0.001	846882	DISTRACT_START	n/a	n/a	n/a	n/a	-999	5	[0, 0, 0]	n/a	catFR1	0	R1351M
102456.768	0.015	846883	START	n/a	n/a	n/a	n/a	-999	5	[-999, -999, -999]	n/a	catFR1	0	R1351M
102456.783	5.784	846898	PROB	5.784	n/a	n/a	n/a	-999	5	[6, 2, 5]	13	catFR1	0	R1351M
102462.567	4.951	852682	PROB	4.951	n/a	n/a	n/a	-999	5	[6, 9, 3]	18	catFR1	0	R1351M
102467.518	4.835	857633	PROB	4.835	n/a	n/a	n/a	-999	5	[6, 8, 2]	16	catFR1	0	R1351M
102472.353	4.703	862468	PROB	4.703	n/a	n/a	n/a	-999	5	[7, 2, 9]	18	catFR1	0	R1351M
102477.056	0.014	867170	STOP	n/a	n/a	n/a	n/a	-999	5	[-999, -999, -999]	n/a	catFR1	0	R1351M
102477.07	0.571	867184	DISTRACT_END	n/a	n/a	n/a	n/a	-999	5	[0, 0, 0]	n/a	catFR1	0	R1351M
102477.641	1.63	867755	RETRIEVAL_ORIENT_START	n/a	n/a	n/a	n/a	-999	5	[0, 0, 0]	n/a	catFR1	0	R1351M
102479.271	0.0	869385	REC_START	n/a	n/a	n/a	n/a	-999	5	[0, 0, 0]	n/a	catFR1	0	R1351M
102479.271	0.908	869385	RETRIEVAL_ORIENT_END	n/a	n/a	n/a	n/a	-999	5	[0, 0, 0]	n/a	catFR1	0	R1351M
102480.179	0.724	870293	REC_WORD	0.724	n/a	CLOUD	Weather	9	5	[0, 0, 0]	n/a	catFR1	0	R1351M
102480.903	1.629	871017	REC_WORD	1.629	n/a	TORNADO	Weather	10	5	[0, 0, 0]	n/a	catFR1	0	R1351M
102482.532	2.338	872646	REC_WORD	2.338	n/a	SNOW	Weather	5	5	[0, 0, 0]	n/a	catFR1	0	R1351M
102484.87	6.542	874984	REC_WORD	6.542	n/a	JACKET	Clothing	4	5	[0, 0, 0]	n/a	catFR1	0	R1351M
102491.412	4.667	881526	REC_WORD	4.667	n/a	REFRIGERATOR	Appliances	1	5	[0, 0, 0]	n/a	catFR1	0	R1351M
102496.079	1.229	886193	REC_WORD	1.229	n/a	DRYER	Appliances	2	5	[0, 0, 0]	n/a	catFR1	0	R1351M
102497.308	3.093	887422	REC_WORD	3.093	n/a	SHOES	Clothing	7	5	[0, 0, 0]	n/a	catFR1	0	R1351M
102500.401	0.721	890514	REC_WORD	0.721	n/a	JACKET	Clothing	4	5	[0, 0, 0]	n/a	catFR1	0	R1351M
102501.122	7.558	891235	REC_WORD_VV	7.558	n/a	<>	n/a	-999	5	[0, 0, 0]	n/a	catFR1	0	R1351M
102508.68	0.602	898793	REC_WORD	0.602	n/a	RAIN	n/a	-999	5	[0, 0, 0]	n/a	catFR1	0	R1351M
102509.282	0.0	899395	REC_END	n/a	n/a	n/a	n/a	-999	5	[0, 0, 0]	n/a	catFR1	0	R1351M
102509.282	0.024	899395	TRIAL_END	n/a	n/a	n/a	n/a	-999	5	[0, 0, 0]	n/a	catFR1	0	R1351M
102509.306	0.0	899419	TRIAL_START	n/a	n/a	n/a	n/a	-999	6	[0, 0, 0]	n/a	catFR1	0	R1351M
102509.306	0.0	899419	TRIAL	n/a	n/a	n/a	n/a	-999	6	[0, 0, 0]	n/a	catFR1	0	R1351M
102509.306	12.907	899419	WAITING_START	n/a	n/a	n/a	n/a	-999	6	[0, 0, 0]	n/a	catFR1	0	R1351M
102522.213	0.0	912325	WAITING_END	n/a	n/a	n/a	n/a	-999	6	[0, 0, 0]	n/a	catFR1	0	R1351M
102522.213	10.43	912325	COUNTDOWN_START	n/a	n/a	n/a	n/a	-999	6	[0, 0, 0]	n/a	catFR1	0	R1351M
102532.643	0.0	922755	COUNTDOWN_END	n/a	n/a	n/a	n/a	-999	6	[0, 0, 0]	n/a	catFR1	0	R1351M
102532.643	1.072	922755	ORIENT_START	n/a	n/a	n/a	n/a	-999	6	[0, 0, 0]	n/a	catFR1	0	R1351M
102533.715	0.0	923827	ENCODING_START	n/a	n/a	n/a	n/a	-999	6	[0, 0, 0]	n/a	catFR1	0	R1351M
102533.715	0.765	923827	ORIENT_END	n/a	n/a	n/a	n/a	-999	6	[0, 0, 0]	n/a	catFR1	0	R1351M
102534.48	1.635	924592	WORD	n/a	wordpools/wordpool_categorized_EN.txt	WINDOW	Building	1	6	[0, 0, 0]	n/a	catFR1	0	R1351M
102536.115	0.889	926227	WORD_OFF	n/a	n/a	WINDOW	Building	1	6	[0, 0, 0]	n/a	catFR1	0	R1351M
102537.004	1.629	927116	WORD	n/a	wordpools/wordpool_categorized_EN.txt	DOOR	Building	2	6	[0, 0, 0]	n/a	catFR1	0	R1351M
102538.633	0.892	928745	WORD_OFF	n/a	n/a	DOOR	Building	2	6	[0, 0, 0]	n/a	catFR1	0	R1351M
102539.525	1.625	929637	WORD	n/a	wordpools/wordpool_categorized_EN.txt	TABLET	Electronics	3	6	[0, 0, 0]	n/a	catFR1	0	R1351M
102541.15	1.14	931262	WORD_OFF	n/a	n/a	TABLET	Electronics	3	6	[0, 0, 0]	n/a	catFR1	0	R1351M
102542.29	1.627	932402	WORD	n/a	wordpools/wordpool_categorized_EN.txt	HEADPHONES	Electronics	4	6	[0, 0, 0]	n/a	catFR1	0	R1351M
102543.917	0.781	934028	WORD_OFF	n/a	n/a	HEADPHONES	Electronics	4	6	[0, 0, 0]	n/a	catFR1	0	R1351M
102544.698	1.636	934809	WORD	n/a	wordpools/wordpool_categorized_EN.txt	CELLO	Instruments	5	6	[0, 0, 0]	n/a	catFR1	0	R1351M
102546.334	1.084	936445	WORD_OFF	n/a	n/a	CELLO	Instruments	5	6	[0, 0, 0]	n/a	catFR1	0	R1351M
102547.418	1.633	937529	WORD	n/a	wordpools/wordpool_categorized_EN.txt	TUBA	Instruments	6	6	[0, 0, 0]	n/a	catFR1	0	R1351M
102549.051	0.917	939162	WORD_OFF	n/a	n/a	TUBA	Instruments	6	6	[0, 0, 0]	n/a	catFR1	0	R1351M
102549.968	1.634	940079	WORD	n/a	wordpools/wordpool_categorized_EN.txt	ROOF	Building	7	6	[0, 0, 0]	n/a	catFR1	0	R1351M
102551.602	0.777	941713	WORD_OFF	n/a	n/a	ROOF	Building	7	6	[0, 0, 0]	n/a	catFR1	0	R1351M
102552.379	1.623	942490	WORD	n/a	wordpools/wordpool_categorized_EN.txt	WALL	Building	8	6	[0, 0, 0]	n/a	catFR1	0	R1351M
102554.002	0.842	944113	WORD_OFF	n/a	n/a	WALL	Building	8	6	[0, 0, 0]	n/a	catFR1	0	R1351M
102554.844	1.625	944955	WORD	n/a	wordpools/wordpool_categorized_EN.txt	ORGAN	Instruments	9	6	[0, 0, 0]	n/a	catFR1	0	R1351M
102556.469	0.969	946580	WORD_OFF	n/a	n/a	ORGAN	Instruments	9	6	[0, 0, 0]	n/a	catFR1	0	R1351M
102557.438	1.632	947549	WORD	n/a	wordpools/wordpool_categorized_EN.txt	TRUMPET	Instruments	10	6	[0, 0, 0]	n/a	catFR1	0	R1351M
102559.07	1.124	949181	WORD_OFF	n/a	n/a	TRUMPET	Instruments	10	6	[0, 0, 0]	n/a	catFR1	0	R1351M
102560.194	1.626	950305	WORD	n/a	wordpools/wordpool_categorized_EN.txt	TELEVISION	Electronics	11	6	[0, 0, 0]	n/a	catFR1	0	R1351M
102561.82	0.885	951931	WORD_OFF	n/a	n/a	TELEVISION	Electronics	11	6	[0, 0, 0]	n/a	catFR1	0	R1351M
102562.705	1.632	952816	WORD	n/a	wordpools/wordpool_categorized_EN.txt	RADIO	Electronics	12	6	[0, 0, 0]	n/a	catFR1	0	R1351M
102564.337	0.001	954447	WORD_OFF	n/a	n/a	RADIO	Electronics	12	6	[0, 0, 0]	n/a	catFR1	0	R1351M
102564.338	0.0	954448	ENCODING_END	n/a	n/a	n/a	n/a	-999	6	[0, 0, 0]	n/a	catFR1	0	R1351M
102564.338	0.0	954448	DISTRACT_START	n/a	n/a	n/a	n/a	-999	6	[0, 0, 0]	n/a	catFR1	0	R1351M
102564.338	0.016	954448	START	n/a	n/a	n/a	n/a	-999	6	[-999, -999, -999]	n/a	catFR1	0	R1351M
102564.354	4.801	954464	PROB	4.801	n/a	n/a	n/a	-999	6	[9, 1, 8]	18	catFR1	0	R1351M
102569.155	3.45	959265	PROB	3.45	n/a	n/a	n/a	-999	6	[2, 5, 2]	9	catFR1	0	R1351M
102572.605	4.001	962715	PROB	4.001	n/a	n/a	n/a	-999	6	[5, 7, 7]	19	catFR1	0	R1351M
102576.606	3.001	966716	PROB	3.001	n/a	n/a	n/a	-999	6	[2, 2, 5]	9	catFR1	0	R1351M
102579.607	5.133	969717	PROB	5.133	n/a	n/a	n/a	-999	6	[9, 6, 9]	24	catFR1	0	R1351M
102584.74	0.018	974850	STOP	n/a	n/a	n/a	n/a	-999	6	[-999, -999, -999]	n/a	catFR1	0	R1351M
102584.758	0.617	974868	DISTRACT_END	n/a	n/a	n/a	n/a	-999	6	[0, 0, 0]	n/a	catFR1	0	R1351M
102585.375	1.683	975485	RETRIEVAL_ORIENT_START	n/a	n/a	n/a	n/a	-999	6	[0, 0, 0]	n/a	catFR1	0	R1351M
102587.058	0.001	977167	RETRIEVAL_ORIENT_END	n/a	n/a	n/a	n/a	-999	6	[0, 0, 0]	n/a	catFR1	0	R1351M
102587.059	0.758	977168	REC_START	n/a	n/a	n/a	n/a	-999	6	[0, 0, 0]	n/a	catFR1	0	R1351M
102587.817	0.704	977926	REC_WORD	0.704	n/a	WINDOW	Building	1	6	[0, 0, 0]	n/a	catFR1	0	R1351M
102588.521	0.697	978630	REC_WORD	0.697	n/a	DOOR	Building	2	6	[0, 0, 0]	n/a	catFR1	0	R1351M
102589.218	0.528	979327	REC_WORD	0.528	n/a	ROOF	Building	7	6	[0, 0, 0]	n/a	catFR1	0	R1351M
102589.746	1.436	979855	REC_WORD	1.436	n/a	WALL	Building	8	6	[0, 0, 0]	n/a	catFR1	0	R1351M
102591.182	22.399	981291	REC_WORD	22.399	n/a	CELLO	Instruments	5	6	[0, 0, 0]	n/a	catFR1	0	R1351M
102613.581	3.488	1003689	REC_WORD	3.488	n/a	ORGAN	Instruments	9	6	[0, 0, 0]	n/a	catFR1	0	R1351M
102617.069	0.001	1007177	REC_END	n/a	n/a	n/a	n/a	-999	6	[0, 0, 0]	n/a	catFR1	0	R1351M
102617.07	0.024	1007178	TRIAL_END	n/a	n/a	n/a	n/a	-999	6	[0, 0, 0]	n/a	catFR1	0	R1351M
102617.094	0.001	1007202	TRIAL_START	n/a	n/a	n/a	n/a	-999	7	[0, 0, 0]	n/a	catFR1	0	R1351M
102617.095	0.0	1007203	TRIAL	n/a	n/a	n/a	n/a	-999	7	[0, 0, 0]	n/a	catFR1	0	R1351M
102617.095	6.404	1007203	WAITING_START	n/a	n/a	n/a	n/a	-999	7	[0, 0, 0]	n/a	catFR1	0	R1351M
102623.499	0.0	1013607	WAITING_END	n/a	n/a	n/a	n/a	-999	7	[0, 0, 0]	n/a	catFR1	0	R1351M
102623.499	10.43	1013607	COUNTDOWN_START	n/a	n/a	n/a	n/a	-999	7	[0, 0, 0]	n/a	catFR1	0	R1351M
102633.929	0.0	1024036	COUNTDOWN_END	n/a	n/a	n/a	n/a	-999	7	[0, 0, 0]	n/a	catFR1	0	R1351M
102633.929	1.089	1024036	ORIENT_START	n/a	n/a	n/a	n/a	-999	7	[0, 0, 0]	n/a	catFR1	0	R1351M
102635.018	0.0	1025125	ORIENT_END	n/a	n/a	n/a	n/a	-999	7	[0, 0, 0]	n/a	catFR1	0	R1351M
102635.018	0.895	1025125	ENCODING_START	n/a	n/a	n/a	n/a	-999	7	[0, 0, 0]	n/a	catFR1	0	R1351M
102635.913	1.639	1026020	WORD	n/a	wordpools/wordpool_categorized_EN.txt	PIGEON	Birds	1	7	[0, 0, 0]	n/a	catFR1	0	R1351M
102637.552	0.809	1027659	WORD_OFF	n/a	n/a	PIGEON	Birds	1	7	[0, 0, 0]	n/a	catFR1	0	R1351M
102638.361	1.625	1028468	WORD	n/a	wordpools/wordpool_categorized_EN.txt	CARDINAL	Birds	2	7	[0, 0, 0]	n/a	catFR1	0	R1351M
102639.986	0.825	1030093	WORD_OFF	n/a	n/a	CARDINAL	Birds	2	7	[0, 0, 0]	n/a	catFR1	0	R1351M
102640.811	1.625	1030918	WORD	n/a	wordpools/wordpool_categorized_EN.txt	FLUTE	Instruments	3	7	[0, 0, 0]	n/a	catFR1	0	R1351M
102642.436	0.86	1032543	WORD_OFF	n/a	n/a	FLUTE	Instruments	3	7	[0, 0, 0]	n/a	catFR1	0	R1351M
102643.296	1.624	1033403	WORD	n/a	wordpools/wordpool_categorized_EN.txt	DRUM	Instruments	4	7	[0, 0, 0]	n/a	catFR1	0	R1351M
102644.92	0.977	1035027	WORD_OFF	n/a	n/a	DRUM	Instruments	4	7	[0, 0, 0]	n/a	catFR1	0	R1351M
102645.897	1.623	1036004	WORD	n/a	wordpools/wordpool_categorized_EN.txt	STRAINER	KitchenTools	5	7	[0, 0, 0]	n/a	catFR1	0	R1351M
102647.52	0.92	1037627	WORD_OFF	n/a	n/a	STRAINER	KitchenTools	5	7	[0, 0, 0]	n/a	catFR1	0	R1351M
102648.44	1.631	1038547	WORD	n/a	wordpools/wordpool_categorized_EN.txt	GRATER	KitchenTools	6	7	[0, 0, 0]	n/a	catFR1	0	R1351M
102650.071	0.758	1040178	WORD_OFF	n/a	n/a	GRATER	KitchenTools	6	7	[0, 0, 0]	n/a	catFR1	0	R1351M
102650.829	1.626	1040936	WORD	n/a	wordpools/wordpool_categorized_EN.txt	BANJO	Instruments	7	7	[0, 0, 0]	n/a	catFR1	0	R1351M
102652.455	0.925	1042561	WORD_OFF	n/a	n/a	BANJO	Instruments	7	7	[0, 0, 0]	n/a	catFR1	0	R1351M
102653.38	1.625	1043486	WORD	n/a	wordpools/wordpool_categorized_EN.txt	TROMBONE	Instruments	8	7	[0, 0, 0]	n/a	catFR1	0	R1351M
102655.005	0.891	1045111	WORD_OFF	n/a	n/a	TROMBONE	Instruments	8	7	[0, 0, 0]	n/a	catFR1	0	R1351M
102655.896	1.626	1046002	WORD	n/a	wordpools/wordpool_categorized_EN.txt	BLUEBIRD	Birds	9	7	[0, 0, 0]	n/a	catFR1	0	R1351M
102657.522	0.982	1047628	WORD_OFF	n/a	n/a	BLUEBIRD	Birds	9	7	[0, 0, 0]	n/a	catFR1	0	R1351M
102658.504	1.635	1048610	WORD	n/a	wordpools/wordpool_categorized_EN.txt	SEAGULL	Birds	10	7	[0, 0, 0]	n/a	catFR1	0	R1351M
102660.139	0.916	1050245	WORD_OFF	n/a	n/a	SEAGULL	Birds	10	7	[0, 0, 0]	n/a	catFR1	0	R1351M
102661.055	1.635	1051161	WORD	n/a	wordpools/wordpool_categorized_EN.txt	SPOON	KitchenTools	11	7	[0, 0, 0]	n/a	catFR1	0	R1351M
102662.69	0.862	1052796	WORD_OFF	n/a	n/a	SPOON	KitchenTools	11	7	[0, 0, 0]	n/a	catFR1	0	R1351M
102663.552	1.621	1053658	WORD	n/a	wordpools/wordpool_categorized_EN.txt	SPATULA	KitchenTools	12	7	[0, 0, 0]	n/a	catFR1	0	R1351M
102665.173	0.0	1055279	WORD_OFF	n/a	n/a	SPATULA	KitchenTools	12	7	[0, 0, 0]	n/a	catFR1	0	R1351M
102665.173	0.001	1055279	ENCODING_END	n/a	n/a	n/a	n/a	-999	7	[0, 0, 0]	n/a	catFR1	0	R1351M
102665.174	0.0	1055280	DISTRACT_START	n/a	n/a	n/a	n/a	-999	7	[0, 0, 0]	n/a	catFR1	0	R1351M
102665.174	0.016	1055280	START	n/a	n/a	n/a	n/a	-999	7	[-999, -999, -999]	n/a	catFR1	0	R1351M
102665.19	4.684	1055296	PROB	4.684	n/a	n/a	n/a	-999	7	[2, 6, 6]	14	catFR1	0	R1351M
102669.874	4.218	1059980	PROB	4.218	n/a	n/a	n/a	-999	7	[5, 4, 1]	10	catFR1	0	R1351M
102674.092	5.251	1064197	PROB	5.251	n/a	n/a	n/a	-999	7	[9, 8, 9]	26	catFR1	0	R1351M
102679.343	2.884	1069448	PROB	2.884	n/a	n/a	n/a	-999	7	[2, 2, 2]	6	catFR1	0	R1351M
102682.227	4.709	1072332	PROB	4.709	n/a	n/a	n/a	-999	7	[5, 4, 6]	16	catFR1	0	R1351M
102686.936	0.009	1077041	STOP	n/a	n/a	n/a	n/a	-999	7	[-999, -999, -999]	n/a	catFR1	0	R1351M
102686.945	0.526	1077050	DISTRACT_END	n/a	n/a	n/a	n/a	-999	7	[0, 0, 0]	n/a	catFR1	0	R1351M
102687.471	1.574	1077576	RETRIEVAL_ORIENT_START	n/a	n/a	n/a	n/a	-999	7	[0, 0, 0]	n/a	catFR1	0	R1351M
102689.045	0.0	1079150	RETRIEVAL_ORIENT_END	n/a	n/a	n/a	n/a	-999	7	[0, 0, 0]	n/a	catFR1	0	R1351M
102689.045	1.857	1079150	REC_START	n/a	n/a	n/a	n/a	-999	7	[0, 0, 0]	n/a	catFR1	0	R1351M
102690.902	0.633	1081007	REC_WORD	0.633	n/a	PIGEON	Birds	1	7	[0, 0, 0]	n/a	catFR1	0	R1351M
102691.535	8.135	1081640	REC_WORD	8.135	n/a	CARDINAL	Birds	2	7	[0, 0, 0]	n/a	catFR1	0	R1351M
102699.67	3.853	1089774	REC_WORD	3.853	n/a	RAVEN	n/a	-999	7	[0, 0, 0]	n/a	catFR1	0	R1351M
102703.523	6.995	1093627	REC_WORD	6.995	n/a	FLUTE	Instruments	3	7	[0, 0, 0]	n/a	catFR1	0	R1351M
102710.518	8.539	1100622	REC_WORD	8.539	n/a	TROMBONE	Instruments	8	7	[0, 0, 0]	n/a	catFR1	0	R1351M
102719.057	0.0	1109160	REC_END	n/a	n/a	n/a	n/a	-999	7	[0, 0, 0]	n/a	catFR1	0	R1351M
102719.057	0.024	1109160	TRIAL_END	n/a	n/a	n/a	n/a	-999	7	[0, 0, 0]	n/a	catFR1	0	R1351M
102719.081	0.001	1109184	TRIAL_START	n/a	n/a	n/a	n/a	-999	8	[0, 0, 0]	n/a	catFR1	0	R1351M
102719.082	0.0	1109185	WAITING_START	n/a	n/a	n/a	n/a	-999	8	[0, 0, 0]	n/a	catFR1	0	R1351M
102719.082	11.988	1109185	TRIAL	n/a	n/a	n/a	n/a	-999	8	[0, 0, 0]	n/a	catFR1	0	R1351M
102731.07	0.0	1121173	WAITING_END	n/a	n/a	n/a	n/a	-999	8	[0, 0, 0]	n/a	catFR1	0	R1351M
102731.07	10.43	1121173	COUNTDOWN_START	n/a	n/a	n/a	n/a	-999	8	[0, 0, 0]	n/a	catFR1	0	R1351M
102741.5	0.0	1131602	COUNTDOWN_END	n/a	n/a	n/a	n/a	-999	8	[0, 0, 0]	n/a	catFR1	0	R1351M
102741.5	1.039	1131602	ORIENT_START	n/a	n/a	n/a	n/a	-999	8	[0, 0, 0]	n/a	catFR1	0	R1351M
102742.539	0.0	1132641	ORIENT_END	n/a	n/a	n/a	n/a	-999	8	[0, 0, 0]	n/a	catFR1	0	R1351M
102742.539	0.784	1132641	ENCODING_START	n/a	n/a	n/a	n/a	-999	8	[0, 0, 0]	n/a	catFR1	0	R1351M
102743.323	1.633	1133425	WORD	n/a	wordpools/wordpool_categorized_EN.txt	STRAWBERRY	Fruit	1	8	[0, 0, 0]	n/a	catFR1	0	R1351M
102744.956	0.758	1135058	WORD_OFF	n/a	n/a	STRAWBERRY	Fruit	1	8	[0, 0, 0]	n/a	catFR1	0	R1351M
102745.714	1.626	1135816	WORD	n/a	wordpools/wordpool_categorized_EN.txt	LIME	Fruit	2	8	[0, 0, 0]	n/a	catFR1	0	R1351M
102747.34	0.974	1137442	WORD_OFF	n/a	n/a	LIME	Fruit	2	8	[0, 0, 0]	n/a	catFR1	0	R1351M
102748.314	1.626	1138416	WORD	n/a	wordpools/wordpool_categorized_EN.txt	ANT	Insects	3	8	[0, 0, 0]	n/a	catFR1	0	R1351M
102749.94	0.805	1140042	WORD_OFF	n/a	n/a	ANT	Insects	3	8	[0, 0, 0]	n/a	catFR1	0	R1351M
102750.745	1.629	1140847	WORD	n/a	wordpools/wordpool_categorized_EN.txt	LADYBUG	Insects	4	8	[0, 0, 0]	n/a	catFR1	0	R1351M
102752.374	1.07	1142476	WORD_OFF	n/a	n/a	LADYBUG	Insects	4	8	[0, 0, 0]	n/a	catFR1	0	R1351M
102753.444	1.63	1143546	WORD	n/a	wordpools/wordpool_categorized_EN.txt	PENCIL	OfficeSupplies	5	8	[0, 0, 0]	n/a	catFR1	0	R1351M
102755.074	0.905	1145176	WORD_OFF	n/a	n/a	PENCIL	OfficeSupplies	5	8	[0, 0, 0]	n/a	catFR1	0	R1351M
102755.979	1.629	1146081	WORD	n/a	wordpools/wordpool_categorized_EN.txt	STAPLER	OfficeSupplies	6	8	[0, 0, 0]	n/a	catFR1	0	R1351M
102757.608	0.762	1147710	WORD_OFF	n/a	n/a	STAPLER	OfficeSupplies	6	8	[0, 0, 0]	n/a	catFR1	0	R1351M
102758.37	1.622	1148472	WORD	n/a	wordpools/wordpool_categorized_EN.txt	PLUM	Fruit	7	8	[0, 0, 0]	n/a	catFR1	0	R1351M
102759.992	1.005	1150094	WORD_OFF	n/a	n/a	PLUM	Fruit	7	8	[0, 0, 0]	n/a	catFR1	0	R1351M
102760.997	1.629	1151099	WORD	n/a	wordpools/wordpool_categorized_EN.txt	GRAPE	Fruit	8	8	[0, 0, 0]	n/a	catFR1	0	R1351M
102762.626	0.852	1152727	WORD_OFF	n/a	n/a	GRAPE	Fruit	8	8	[0, 0, 0]	n/a	catFR1	0	R1351M
102763.478	1.632	1153579	WORD	n/a	wordpools/wordpool_categorized_EN.txt	SPIDER	Insects	9	8	[0, 0, 0]	n/a	catFR1	0	R1351M
102765.11	0.974	1155211	WORD_OFF	n/a	n/a	SPIDER	Insects	9	8	[0, 0, 0]	n/a	catFR1	0	R1351M
102766.084	1.626	1156185	WORD	n/a	wordpools/wordpool_categorized_EN.txt	MOTH	Insects	10	8	[0, 0, 0]	n/a	catFR1	0	R1351M
102767.71	1.139	1157811	WORD_OFF	n/a	n/a	MOTH	Insects	10	8	[0, 0, 0]	n/a	catFR1	0	R1351M
102768.849	1.628	1158950	WORD	n/a	wordpools/wordpool_categorized_EN.txt	PAPER	OfficeSupplies	11	8	[0, 0, 0]	n/a	catFR1	0	R1351M
102770.477	0.863	1160578	WORD_OFF	n/a	n/a	PAPER	OfficeSupplies	11	8	[0, 0, 0]	n/a	catFR1	0	R1351M
102771.34	1.621	1161441	WORD	n/a	wordpools/wordpool_categorized_EN.txt	MARKER	OfficeSupplies	12	8	[0, 0, 0]	n/a	catFR1	0	R1351M
102772.961	0.001	1163062	WORD_OFF	n/a	n/a	MARKER	OfficeSupplies	12	8	[0, 0, 0]	n/a	catFR1	0	R1351M
102772.962	0.0	1163063	ENCODING_END	n/a	n/a	n/a	n/a	-999	8	[0, 0, 0]	n/a	catFR1	0	R1351M
102772.962	0.0	1163063	DISTRACT_START	n/a	n/a	n/a	n/a	-999	8	[0, 0, 0]	n/a	catFR1	0	R1351M
102772.962	0.016	1163063	START	n/a	n/a	n/a	n/a	-999	8	[-999, -999, -999]	n/a	catFR1	0	R1351M
102772.978	4.551	1163079	PROB	4.551	n/a	n/a	n/a	-999	8	[4, 2, 6]	12	catFR1	0	R1351M
102777.529	5.367	1167630	PROB	5.367	n/a	n/a	n/a	-999	8	[9, 9, 7]	25	catFR1	0	R1351M
102782.896	4.618	1172997	PROB	4.618	n/a	n/a	n/a	-999	8	[8, 3, 6]	17	catFR1	0	R1351M
102787.514	7.278	1177614	PROB	7.278	n/a	n/a	n/a	-999	8	[5, 9, 2]	16	catFR1	0	R1351M
102794.792	0.007	1184892	STOP	n/a	n/a	n/a	n/a	-999	8	[-999, -999, -999]	n/a	catFR1	0	R1351M
102794.799	0.683	1184899	DISTRACT_END	n/a	n/a	n/a	n/a	-999	8	[0, 0, 0]	n/a	catFR1	0	R1351M
102795.482	1.651	1185582	RETRIEVAL_ORIENT_START	n/a	n/a	n/a	n/a	-999	8	[0, 0, 0]	n/a	catFR1	0	R1351M
102797.133	0.0	1187233	RETRIEVAL_ORIENT_END	n/a	n/a	n/a	n/a	-999	8	[0, 0, 0]	n/a	catFR1	0	R1351M
102797.133	2.256	1187233	REC_START	n/a	n/a	n/a	n/a	-999	8	[0, 0, 0]	n/a	catFR1	0	R1351M
102799.389	0.651	1189489	REC_WORD	0.651	n/a	PLUM	Fruit	7	8	[0, 0, 0]	n/a	catFR1	0	R1351M
102800.04	3.703	1190140	REC_WORD	3.703	n/a	GRAPE	Fruit	8	8	[0, 0, 0]	n/a	catFR1	0	R1351M
102803.743	0.455	1193843	REC_WORD	0.455	n/a	ANT	Insects	3	8	[0, 0, 0]	n/a	catFR1	0	R1351M
102804.198	6.181	1194298	REC_WORD	6.181	n/a	MOTH	Insects	10	8	[0, 0, 0]	n/a	catFR1	0	R1351M
102810.379	4.01	1200478	REC_WORD	4.01	n/a	LADYBUG	Insects	4	8	[0, 0, 0]	n/a	catFR1	0	R1351M
102814.389	7.561	1204488	REC_WORD	7.561	n/a	SPATULA	KitchenTools	-999	8	[0, 0, 0]	n/a	catFR1	0	R1351M
102821.95	1.144	1212049	REC_WORD	1.144	n/a	SPOON	KitchenTools	-999	8	[0, 0, 0]	n/a	catFR1	0	R1351M
102823.094	4.049	1213193	REC_WORD_VV	4.049	n/a	<>	n/a	-999	8	[0, 0, 0]	n/a	catFR1	0	R1351M
102827.143	0.0	1217242	REC_END	n/a	n/a	n/a	n/a	-999	8	[0, 0, 0]	n/a	catFR1	0	R1351M
102827.143	0.023	1217242	TRIAL_END	n/a	n/a	n/a	n/a	-999	8	[0, 0, 0]	n/a	catFR1	0	R1351M
102827.166	0.0	1217265	TRIAL_START	n/a	n/a	n/a	n/a	-999	9	[0, 0, 0]	n/a	catFR1	0	R1351M
102827.166	0.0	1217265	TRIAL	n/a	n/a	n/a	n/a	-999	9	[0, 0, 0]	n/a	catFR1	0	R1351M
102827.166	12.108	1217265	WAITING_START	n/a	n/a	n/a	n/a	-999	9	[0, 0, 0]	n/a	catFR1	0	R1351M
102839.274	0.001	1229372	WAITING_END	n/a	n/a	n/a	n/a	-999	9	[0, 0, 0]	n/a	catFR1	0	R1351M
102839.275	10.429	1229373	COUNTDOWN_START	n/a	n/a	n/a	n/a	-999	9	[0, 0, 0]	n/a	catFR1	0	R1351M
102849.704	0.0	1239801	COUNTDOWN_END	n/a	n/a	n/a	n/a	-999	9	[0, 0, 0]	n/a	catFR1	0	R1351M
102849.704	1.139	1239801	ORIENT_START	n/a	n/a	n/a	n/a	-999	9	[0, 0, 0]	n/a	catFR1	0	R1351M
102850.843	0.0	1240940	ORIENT_END	n/a	n/a	n/a	n/a	-999	9	[0, 0, 0]	n/a	catFR1	0	R1351M
102850.843	1.06	1240940	ENCODING_START	n/a	n/a	n/a	n/a	-999	9	[0, 0, 0]	n/a	catFR1	0	R1351M
102851.903	1.624	1242000	WORD	n/a	wordpools/wordpool_categorized_EN.txt	LAMB	FarmAnimals	1	9	[0, 0, 0]	n/a	catFR1	0	R1351M
102853.527	0.837	1243624	WORD_OFF	n/a	n/a	LAMB	FarmAnimals	1	9	[0, 0, 0]	n/a	catFR1	0	R1351M
102854.364	1.63	1244461	WORD	n/a	wordpools/wordpool_categorized_EN.txt	GOAT	FarmAnimals	2	9	[0, 0, 0]	n/a	catFR1	0	R1351M
102855.994	1.078	1246091	WORD_OFF	n/a	n/a	GOAT	FarmAnimals	2	9	[0, 0, 0]	n/a	catFR1	0	R1351M
102857.072	1.606	1247169	WORD	n/a	wordpools/wordpool_categorized_EN.txt	PEAR	Fruit	3	9	[0, 0, 0]	n/a	catFR1	0	R1351M
102858.678	0.942	1248775	WORD_OFF	n/a	n/a	PEAR	Fruit	3	9	[0, 0, 0]	n/a	catFR1	0	R1351M
102859.62	1.625	1249717	WORD	n/a	wordpools/wordpool_categorized_EN.txt	LEMON	Fruit	4	9	[0, 0, 0]	n/a	catFR1	0	R1351M
102861.245	1.045	1251342	WORD_OFF	n/a	n/a	LEMON	Fruit	4	9	[0, 0, 0]	n/a	catFR1	0	R1351M
102862.29	1.622	1252387	WORD	n/a	wordpools/wordpool_categorized_EN.txt	PEELER	KitchenTools	5	9	[0, 0, 0]	n/a	catFR1	0	R1351M
102863.912	0.793	1254009	WORD_OFF	n/a	n/a	PEELER	KitchenTools	5	9	[0, 0, 0]	n/a	catFR1	0	R1351M
102864.705	1.624	1254802	WORD	n/a	wordpools/wordpool_categorized_EN.txt	FORK	KitchenTools	6	9	[0, 0, 0]	n/a	catFR1	0	R1351M
102866.329	0.838	1256426	WORD_OFF	n/a	n/a	FORK	KitchenTools	6	9	[0, 0, 0]	n/a	catFR1	0	R1351M
102867.167	1.63	1257264	WORD	n/a	wordpools/wordpool_categorized_EN.txt	PEACH	Fruit	7	9	[0, 0, 0]	n/a	catFR1	0	R1351M
102868.797	1.142	1258894	WORD_OFF	n/a	n/a	PEACH	Fruit	7	9	[0, 0, 0]	n/a	catFR1	0	R1351M
102869.939	1.625	1260036	WORD	n/a	wordpools/wordpool_categorized_EN.txt	APPLE	Fruit	8	9	[0, 0, 0]	n/a	catFR1	0	R1351M
102871.564	0.782	1261660	WORD_OFF	n/a	n/a	APPLE	Fruit	8	9	[0, 0, 0]	n/a	catFR1	0	R1351M
102872.346	1.635	1262442	WORD	n/a	wordpools/wordpool_categorized_EN.txt	COW	FarmAnimals	9	9	[0, 0, 0]	n/a	catFR1	0	R1351M
102873.981	1.055	1264077	WORD_OFF	n/a	n/a	COW	FarmAnimals	9	9	[0, 0, 0]	n/a	catFR1	0	R1351M
102875.036	1.629	1265132	WORD	n/a	wordpools/wordpool_categorized_EN.txt	CALF	FarmAnimals	10	9	[0, 0, 0]	n/a	catFR1	0	R1351M
102876.665	0.899	1266761	WORD_OFF	n/a	n/a	CALF	FarmAnimals	10	9	[0, 0, 0]	n/a	catFR1	0	R1351M
102877.564	1.635	1267660	WORD	n/a	wordpools/wordpool_categorized_EN.txt	COLANDER	KitchenTools	11	9	[0, 0, 0]	n/a	catFR1	0	R1351M
102879.199	0.922	1269295	WORD_OFF	n/a	n/a	COLANDER	KitchenTools	11	9	[0, 0, 0]	n/a	catFR1	0	R1351M
102880.121	1.628	1270217	WORD	n/a	wordpools/wordpool_categorized_EN.txt	WHISK	KitchenTools	12	9	[0, 0, 0]	n/a	catFR1	0	R1351M
102881.749	0.001	1271845	WORD_OFF	n/a	n/a	WHISK	KitchenTools	12	9	[0, 0, 0]	n/a	catFR1	0	R1351M
102881.75	0.0	1271846	ENCODING_END	n/a	n/a	n/a	n/a	-999	9	[0, 0, 0]	n/a	catFR1	0	R1351M
102881.75	0.0	1271846	DISTRACT_START	n/a	n/a	n/a	n/a	-999	9	[0, 0, 0]	n/a	catFR1	0	R1351M
102881.75	0.016	1271846	START	n/a	n/a	n/a	n/a	-999	9	[-999, -999, -999]	n/a	catFR1	0	R1351M
102881.766	5.534	1271862	PROB	5.534	n/a	n/a	n/a	-999	9	[4, 5, 5]	14	catFR1	0	R1351M
102887.3	3.384	1277396	PROB	3.384	n/a	n/a	n/a	-999	9	[2, 3, 4]	9	catFR1	0	R1351M
102890.684	5.301	1280780	PROB	5.301	n/a	n/a	n/a	-999	9	[8, 7, 4]	19	catFR1	0	R1351M
102895.985	4.234	1286080	PROB	4.234	n/a	n/a	n/a	-999	9	[2, 9, 9]	20	catFR1	0	R1351M
102900.219	3.76	1290314	PROB	3.76	n/a	n/a	n/a	-999	9	[8, 1, 4]	13	catFR1	0	R1351M
102903.979	0.008	1294074	STOP	n/a	n/a	n/a	n/a	-999	9	[-999, -999, -999]	n/a	catFR1	0	R1351M
102903.987	0.644	1294082	DISTRACT_END	n/a	n/a	n/a	n/a	-999	9	[0, 0, 0]	n/a	catFR1	0	R1351M
102904.631	1.556	1294726	RETRIEVAL_ORIENT_START	n/a	n/a	n/a	n/a	-999	9	[0, 0, 0]	n/a	catFR1	0	R1351M
102906.187	0.001	1296282	RETRIEVAL_ORIENT_END	n/a	n/a	n/a	n/a	-999	9	[0, 0, 0]	n/a	catFR1	0	R1351M
102906.188	1.595	1296283	REC_START	n/a	n/a	n/a	n/a	-999	9	[0, 0, 0]	n/a	catFR1	0	R1351M
102907.783	0.342	1297878	REC_WORD	0.342	n/a	PEAR	Fruit	3	9	[0, 0, 0]	n/a	catFR1	0	R1351M
102908.125	0.608	1298220	REC_WORD	0.608	n/a	LEMON	Fruit	4	9	[0, 0, 0]	n/a	catFR1	0	R1351M
102908.733	5.581	1298828	REC_WORD	5.581	n/a	PEACH	Fruit	7	9	[0, 0, 0]	n/a	catFR1	0	R1351M
102914.314	0.994	1304409	REC_WORD	0.994	n/a	LAMB	FarmAnimals	1	9	[0, 0, 0]	n/a	catFR1	0	R1351M
102915.308	2.651	1305402	REC_WORD	2.651	n/a	GOAT	FarmAnimals	2	9	[0, 0, 0]	n/a	catFR1	0	R1351M
102917.959	12.432	1308053	REC_WORD	12.432	n/a	COW	FarmAnimals	9	9	[0, 0, 0]	n/a	catFR1	0	R1351M
102930.391	5.808	1320485	REC_WORD	5.808	n/a	OX	n/a	-999	9	[0, 0, 0]	n/a	catFR1	0	R1351M
102936.199	0.0	1326293	REC_END	n/a	n/a	n/a	n/a	-999	9	[0, 0, 0]	n/a	catFR1	0	R1351M
102936.199	0.025	1326293	TRIAL_END	n/a	n/a	n/a	n/a	-999	9	[0, 0, 0]	n/a	catFR1	0	R1351M
102936.224	0.0	1326318	TRIAL_START	n/a	n/a	n/a	n/a	-999	10	[0, 0, 0]	n/a	catFR1	0	R1351M
102936.224	0.0	1326318	TRIAL	n/a	n/a	n/a	n/a	-999	10	[0, 0, 0]	n/a	catFR1	0	R1351M
102936.224	7.287	1326318	WAITING_START	n/a	n/a	n/a	n/a	-999	10	[0, 0, 0]	n/a	catFR1	0	R1351M
102943.511	0.001	1333604	WAITING_END	n/a	n/a	n/a	n/a	-999	10	[0, 0, 0]	n/a	catFR1	0	R1351M
102943.512	10.429	1333605	COUNTDOWN_START	n/a	n/a	n/a	n/a	-999	10	[0, 0, 0]	n/a	catFR1	0	R1351M
102953.941	0.0	1344034	COUNTDOWN_END	n/a	n/a	n/a	n/a	-999	10	[0, 0, 0]	n/a	catFR1	0	R1351M
102953.941	1.256	1344034	ORIENT_START	n/a	n/a	n/a	n/a	-999	10	[0, 0, 0]	n/a	catFR1	0	R1351M
102955.197	0.0	1345290	ORIENT_END	n/a	n/a	n/a	n/a	-999	10	[0, 0, 0]	n/a	catFR1	0	R1351M
102955.197	1.113	1345290	ENCODING_START	n/a	n/a	n/a	n/a	-999	10	[0, 0, 0]	n/a	catFR1	0	R1351M
102956.31	1.637	1346403	WORD	n/a	wordpools/wordpool_categorized_EN.txt	DOLLHOUSE	Toys	1	10	[0, 0, 0]	n/a	catFR1	0	R1351M
102957.947	0.787	1348040	WORD_OFF	n/a	n/a	DOLLHOUSE	Toys	1	10	[0, 0, 0]	n/a	catFR1	0	R1351M
102958.734	1.63	1348826	WORD	n/a	wordpools/wordpool_categorized_EN.txt	BASEBALL	Toys	2	10	[0, 0, 0]	n/a	catFR1	0	R1351M
102960.364	0.946	1350456	WORD_OFF	n/a	n/a	BASEBALL	Toys	2	10	[0, 0, 0]	n/a	catFR1	0	R1351M
102961.31	1.638	1351402	WORD	n/a	wordpools/wordpool_categorized_EN.txt	HICKORY	Trees	3	10	[0, 0, 0]	n/a	catFR1	0	R1351M
102962.948	0.786	1353040	WORD_OFF	n/a	n/a	HICKORY	Trees	3	10	[0, 0, 0]	n/a	catFR1	0	R1351M
102963.734	1.632	1353826	WORD	n/a	wordpools/wordpool_categorized_EN.txt	OAK	Trees	4	10	[0, 0, 0]	n/a	catFR1	0	R1351M
102965.366	0.829	1355458	WORD_OFF	n/a	n/a	OAK	Trees	4	10	[0, 0, 0]	n/a	catFR1	0	R1351M
102966.195	1.637	1356287	WORD	n/a	wordpools/wordpool_categorized_EN.txt	ZEBRA	Zoo	5	10	[0, 0, 0]	n/a	catFR1	0	R1351M
102967.832	1.074	1357924	WORD_OFF	n/a	n/a	ZEBRA	Zoo	5	10	[0, 0, 0]	n/a	catFR1	0	R1351M
102968.906	1.627	1358998	WORD	n/a	wordpools/wordpool_categorized_EN.txt	BEAR	Zoo	6	10	[0, 0, 0]	n/a	catFR1	0	R1351M
102970.533	0.76	1360625	WORD_OFF	n/a	n/a	BEAR	Zoo	6	10	[0, 0, 0]	n/a	catFR1	0	R1351M
102971.293	1.624	1361385	WORD	n/a	wordpools/wordpool_categorized_EN.txt	BARBIE	Toys	7	10	[0, 0, 0]	n/a	catFR1	0	R1351M
102972.917	0.826	1363009	WORD_OFF	n/a	n/a	BARBIE	Toys	7	10	[0, 0, 0]	n/a	catFR1	0	R1351M
102973.743	1.624	1363835	WORD	n/a	wordpools/wordpool_categorized_EN.txt	PUZZLE	Toys	8	10	[0, 0, 0]	n/a	catFR1	0	R1351M
102975.367	0.961	1365459	WORD_OFF	n/a	n/a	PUZZLE	Toys	8	10	[0, 0, 0]	n/a	catFR1	0	R1351M
102976.328	1.623	1366420	WORD	n/a	wordpools/wordpool_categorized_EN.txt	GORILLA	Zoo	9	10	[0, 0, 0]	n/a	catFR1	0	R1351M
102977.951	0.854	1368043	WORD_OFF	n/a	n/a	GORILLA	Zoo	9	10	[0, 0, 0]	n/a	catFR1	0	R1351M
102978.805	1.63	1368897	WORD	n/a	wordpools/wordpool_categorized_EN.txt	CHIMPANZEE	Zoo	10	10	[0, 0, 0]	n/a	catFR1	0	R1351M
102980.435	0.949	1370527	WORD_OFF	n/a	n/a	CHIMPANZEE	Zoo	10	10	[0, 0, 0]	n/a	catFR1	0	R1351M
102981.384	1.635	1371475	WORD	n/a	wordpools/wordpool_categorized_EN.txt	CEDAR	Trees	11	10	[0, 0, 0]	n/a	catFR1	0	R1351M
102983.019	0.89	1373110	WORD_OFF	n/a	n/a	CEDAR	Trees	11	10	[0, 0, 0]	n/a	catFR1	0	R1351M
102983.909	1.627	1374000	WORD	n/a	wordpools/wordpool_categorized_EN.txt	BIRCH	Trees	12	10	[0, 0, 0]	n/a	catFR1	0	R1351M
102985.536	0.0	1375627	ENCODING_END	n/a	n/a	n/a	n/a	-999	10	[0, 0, 0]	n/a	catFR1	0	R1351M
102985.536	0.001	1375627	WORD_OFF	n/a	n/a	BIRCH	Trees	12	10	[0, 0, 0]	n/a	catFR1	0	R1351M
102985.537	0.0	1375628	DISTRACT_START	n/a	n/a	n/a	n/a	-999	10	[0, 0, 0]	n/a	catFR1	0	R1351M
102985.537	0.015	1375628	START	n/a	n/a	n/a	n/a	-999	10	[-999, -999, -999]	n/a	catFR1	0	R1351M
102985.552	5.585	1375643	PROB	5.585	n/a	n/a	n/a	-999	10	[1, 6, 8]	15	catFR1	0	R1351M
102991.137	6.368	1381228	PROB	6.368	n/a	n/a	n/a	-999	10	[1, 7, 5]	13	catFR1	0	R1351M
102997.505	6.401	1387596	PROB	6.401	n/a	n/a	n/a	-999	10	[2, 6, 5]	13	catFR1	0	R1351M
103003.906	3.826	1393996	PROB	3.826	n/a	n/a	n/a	-999	10	[4, 6, 1]	11	catFR1	0	R1351M
103007.732	0.008	1397822	STOP	n/a	n/a	n/a	n/a	-999	10	[-999, -999, -999]	n/a	catFR1	0	R1351M
103007.74	0.598	1397830	DISTRACT_END	n/a	n/a	n/a	n/a	-999	10	[0, 0, 0]	n/a	catFR1	0	R1351M
103008.338	1.536	1398428	RETRIEVAL_ORIENT_START	n/a	n/a	n/a	n/a	-999	10	[0, 0, 0]	n/a	catFR1	0	R1351M
103009.874	0.0	1399964	RETRIEVAL_ORIENT_END	n/a	n/a	n/a	n/a	-999	10	[0, 0, 0]	n/a	catFR1	0	R1351M
103009.874	2.062	1399964	REC_START	n/a	n/a	n/a	n/a	-999	10	[0, 0, 0]	n/a	catFR1	0	R1351M
103011.936	0.947	1402026	REC_WORD	0.947	n/a	DOLLHOUSE	Toys	1	10	[0, 0, 0]	n/a	catFR1	0	R1351M
103012.883	25.491	1402973	REC_WORD	25.491	n/a	BARBIE	Toys	7	10	[0, 0, 0]	n/a	catFR1	0	R1351M
103038.374	0.888	1428463	REC_WORD	0.888	n/a	WHISK	KitchenTools	-999	10	[0, 0, 0]	n/a	catFR1	0	R1351M
103039.262	0.625	1429351	REC_WORD_VV	0.625	n/a	<>	n/a	-999	10	[0, 0, 0]	n/a	catFR1	0	R1351M
103039.887	0.001	1429976	REC_END	n/a	n/a	n/a	n/a	-999	10	[0, 0, 0]	n/a	catFR1	0	R1351M
103039.888	0.021	1429977	TRIAL_END	n/a	n/a	n/a	n/a	-999	10	[0, 0, 0]	n/a	catFR1	0	R1351M
103039.909	0.0	1429998	TRIAL_START	n/a	n/a	n/a	n/a	-999	11	[0, 0, 0]	n/a	catFR1	0	R1351M
103039.909	0.0	1429998	TRIAL	n/a	n/a	n/a	n/a	-999	11	[0, 0, 0]	n/a	catFR1	0	R1351M
103039.909	21.658	1429998	WAITING_START	n/a	n/a	n/a	n/a	-999	11	[0, 0, 0]	n/a	catFR1	0	R1351M
103061.567	0.001	1451655	WAITING_END	n/a	n/a	n/a	n/a	-999	11	[0, 0, 0]	n/a	catFR1	0	R1351M
103061.568	10.428	1451656	COUNTDOWN_START	n/a	n/a	n/a	n/a	-999	11	[0, 0, 0]	n/a	catFR1	0	R1351M
103071.996	0.0	1462083	COUNTDOWN_END	n/a	n/a	n/a	n/a	-999	11	[0, 0, 0]	n/a	catFR1	0	R1351M
103071.996	1.157	1462083	ORIENT_START	n/a	n/a	n/a	n/a	-999	11	[0, 0, 0]	n/a	catFR1	0	R1351M
103073.153	0.0	1463240	ENCODING_START	n/a	n/a	n/a	n/a	-999	11	[0, 0, 0]	n/a	catFR1	0	R1351M
103073.153	0.854	1463240	ORIENT_END	n/a	n/a	n/a	n/a	-999	11	[0, 0, 0]	n/a	catFR1	0	R1351M
103074.007	1.63	1464094	WORD	n/a	wordpools/wordpool_categorized_EN.txt	ORCHID	Flowers	1	11	[0, 0, 0]	n/a	catFR1	0	R1351M
103075.637	0.856	1465724	WORD_OFF	n/a	n/a	ORCHID	Flowers	1	11	[0, 0, 0]	n/a	catFR1	0	R1351M
103076.493	1.628	1466580	WORD	n/a	wordpools/wordpool_categorized_EN.txt	PETUNIA	Flowers	2	11	[0, 0, 0]	n/a	catFR1	0	R1351M
103078.121	1.135	1468208	WORD_OFF	n/a	n/a	PETUNIA	Flowers	2	11	[0, 0, 0]	n/a	catFR1	0	R1351M
103079.256	1.632	1469343	WORD	n/a	wordpools/wordpool_categorized_EN.txt	MOTORCYCLE	Vehicles	3	11	[0, 0, 0]	n/a	catFR1	0	R1351M
103080.888	0.796	1470975	WORD_OFF	n/a	n/a	MOTORCYCLE	Vehicles	3	11	[0, 0, 0]	n/a	catFR1	0	R1351M
103081.684	1.638	1471771	WORD	n/a	wordpools/wordpool_categorized_EN.txt	CAR	Vehicles	4	11	[0, 0, 0]	n/a	catFR1	0	R1351M
103083.322	0.915	1473409	WORD_OFF	n/a	n/a	CAR	Vehicles	4	11	[0, 0, 0]	n/a	catFR1	0	R1351M
103084.237	1.635	1474324	WORD	n/a	wordpools/wordpool_categorized_EN.txt	CHEETAH	Zoo	5	11	[0, 0, 0]	n/a	catFR1	0	R1351M
103085.872	0.963	1475959	WORD_OFF	n/a	n/a	CHEETAH	Zoo	5	11	[0, 0, 0]	n/a	catFR1	0	R1351M
103086.835	1.638	1476922	WORD	n/a	wordpools/wordpool_categorized_EN.txt	ELEPHANT	Zoo	6	11	[0, 0, 0]	n/a	catFR1	0	R1351M
103088.473	1.053	1478560	WORD_OFF	n/a	n/a	ELEPHANT	Zoo	6	11	[0, 0, 0]	n/a	catFR1	0	R1351M
103089.526	1.631	1479613	WORD	n/a	wordpools/wordpool_categorized_EN.txt	BUS	Vehicles	7	11	[0, 0, 0]	n/a	catFR1	0	R1351M
103091.157	0.823	1481243	WORD_OFF	n/a	n/a	BUS	Vehicles	7	11	[0, 0, 0]	n/a	catFR1	0	R1351M
103091.98	1.627	1482066	WORD	n/a	wordpools/wordpool_categorized_EN.txt	TRUCK	Vehicles	8	11	[0, 0, 0]	n/a	catFR1	0	R1351M
103093.607	0.878	1483693	WORD_OFF	n/a	n/a	TRUCK	Vehicles	8	11	[0, 0, 0]	n/a	catFR1	0	R1351M
103094.485	1.622	1484571	WORD	n/a	wordpools/wordpool_categorized_EN.txt	TIGER	Zoo	9	11	[0, 0, 0]	n/a	catFR1	0	R1351M
103096.107	1.129	1486193	WORD_OFF	n/a	n/a	TIGER	Zoo	9	11	[0, 0, 0]	n/a	catFR1	0	R1351M
103097.236	1.622	1487322	WORD	n/a	wordpools/wordpool_categorized_EN.txt	MONKEY	Zoo	10	11	[0, 0, 0]	n/a	catFR1	0	R1351M
103098.858	1.01	1488944	WORD_OFF	n/a	n/a	MONKEY	Zoo	10	11	[0, 0, 0]	n/a	catFR1	0	R1351M
103099.868	1.624	1489954	WORD	n/a	wordpools/wordpool_categorized_EN.txt	LILAC	Flowers	11	11	[0, 0, 0]	n/a	catFR1	0	R1351M
103101.492	0.984	1491578	WORD_OFF	n/a	n/a	LILAC	Flowers	11	11	[0, 0, 0]	n/a	catFR1	0	R1351M
103102.476	1.633	1492562	WORD	n/a	wordpools/wordpool_categorized_EN.txt	CARNATION	Flowers	12	11	[0, 0, 0]	n/a	catFR1	0	R1351M
103104.109	0.0	1494195	WORD_OFF	n/a	n/a	CARNATION	Flowers	12	11	[0, 0, 0]	n/a	catFR1	0	R1351M
103104.109	0.001	1494195	ENCODING_END	n/a	n/a	n/a	n/a	-999	11	[0, 0, 0]	n/a	catFR1	0	R1351M
103104.11	0.0	1494196	DISTRACT_START	n/a	n/a	n/a	n/a	-999	11	[0, 0, 0]	n/a	catFR1	0	R1351M
103104.11	0.015	1494196	START	n/a	n/a	n/a	n/a	-999	11	[-999, -999, -999]	n/a	catFR1	0	R1351M
103104.125	5.902	1494211	PROB	5.902	n/a	n/a	n/a	-999	11	[4, 2, 9]	15	catFR1	0	R1351M
103110.027	9.218	1500113	PROB	9.218	n/a	n/a	n/a	-999	11	[8, 5, 6]	19	catFR1	0	R1351M
103119.245	4.551	1509330	PROB	4.551	n/a	n/a	n/a	-999	11	[9, 5, 8]	22	catFR1	0	R1351M
103123.796	3.933	1513881	PROB	3.933	n/a	n/a	n/a	-999	11	[3, 4, 6]	13	catFR1	0	R1351M
103127.729	0.018	1517814	STOP	n/a	n/a	n/a	n/a	-999	11	[-999, -999, -999]	n/a	catFR1	0	R1351M
103127.747	0.672	1517832	DISTRACT_END	n/a	n/a	n/a	n/a	-999	11	[0, 0, 0]	n/a	catFR1	0	R1351M
103128.419	1.578	1518504	RETRIEVAL_ORIENT_START	n/a	n/a	n/a	n/a	-999	11	[0, 0, 0]	n/a	catFR1	0	R1351M
103129.997	0.001	1520082	RETRIEVAL_ORIENT_END	n/a	n/a	n/a	n/a	-999	11	[0, 0, 0]	n/a	catFR1	0	R1351M
103129.998	1.264	1520083	REC_START	n/a	n/a	n/a	n/a	-999	11	[0, 0, 0]	n/a	catFR1	0	R1351M
103131.262	0.597	1521347	REC_WORD	0.597	n/a	ORCHID	Flowers	1	11	[0, 0, 0]	n/a	catFR1	0	R1351M
103131.859	2.3	1521944	REC_WORD	2.3	n/a	PETUNIA	Flowers	2	11	[0, 0, 0]	n/a	catFR1	0	R1351M
103134.159	1.178	1524243	REC_WORD	1.178	n/a	MOTORCYCLE	Vehicles	3	11	[0, 0, 0]	n/a	catFR1	0	R1351M
103135.337	1.753	1525421	REC_WORD	1.753	n/a	BUS	Vehicles	7	11	[0, 0, 0]	n/a	catFR1	0	R1351M
103137.09	5.129	1527174	REC_WORD	5.129	n/a	CAR	Vehicles	4	11	[0, 0, 0]	n/a	catFR1	0	R1351M
103142.219	17.791	1532303	REC_WORD	17.791	n/a	TRUCK	Vehicles	8	11	[0, 0, 0]	n/a	catFR1	0	R1351M
103160.01	0.0	1550093	TRIAL_END	n/a	n/a	n/a	n/a	-999	11	[0, 0, 0]	n/a	catFR1	0	R1351M
103160.01	0.021	1550093	REC_END	n/a	n/a	n/a	n/a	-999	11	[0, 0, 0]	n/a	catFR1	0	R1351M
103160.031	0.001	1550114	TRIAL_START	n/a	n/a	n/a	n/a	-999	12	[0, 0, 0]	n/a	catFR1	0	R1351M
103160.032	0.0	1550115	TRIAL	n/a	n/a	n/a	n/a	-999	12	[0, 0, 0]	n/a	catFR1	0	R1351M
103160.032	10.957	1550115	WAITING_START	n/a	n/a	n/a	n/a	-999	12	[0, 0, 0]	n/a	catFR1	0	R1351M
103170.989	0.0	1561072	WAITING_END	n/a	n/a	n/a	n/a	-999	12	[0, 0, 0]	n/a	catFR1	0	R1351M
103170.989	10.429	1561072	COUNTDOWN_START	n/a	n/a	n/a	n/a	-999	12	[0, 0, 0]	n/a	catFR1	0	R1351M
103181.418	0.0	1571500	COUNTDOWN_END	n/a	n/a	n/a	n/a	-999	12	[0, 0, 0]	n/a	catFR1	0	R1351M
103181.418	1.156	1571500	ORIENT_START	n/a	n/a	n/a	n/a	-999	12	[0, 0, 0]	n/a	catFR1	0	R1351M
103182.574	0.001	1572656	ORIENT_END	n/a	n/a	n/a	n/a	-999	12	[0, 0, 0]	n/a	catFR1	0	R1351M
103182.575	0.901	1572657	ENCODING_START	n/a	n/a	n/a	n/a	-999	12	[0, 0, 0]	n/a	catFR1	0	R1351M
103183.476	1.632	1573558	WORD	n/a	wordpools/wordpool_categorized_EN.txt	FUDGE	Desserts	1	12	[0, 0, 0]	n/a	catFR1	0	R1351M
103185.108	0.958	1575190	WORD_OFF	n/a	n/a	FUDGE	Desserts	1	12	[0, 0, 0]	n/a	catFR1	0	R1351M
103186.066	1.626	1576148	WORD	n/a	wordpools/wordpool_categorized_EN.txt	COOKIE	Desserts	2	12	[0, 0, 0]	n/a	catFR1	0	R1351M
103187.692	0.971	1577774	WORD_OFF	n/a	n/a	COOKIE	Desserts	2	12	[0, 0, 0]	n/a	catFR1	0	R1351M
103188.663	1.629	1578745	WORD	n/a	wordpools/wordpool_categorized_EN.txt	TONGS	KitchenTools	3	12	[0, 0, 0]	n/a	catFR1	0	R1351M
103190.292	1.098	1580374	WORD_OFF	n/a	n/a	TONGS	KitchenTools	3	12	[0, 0, 0]	n/a	catFR1	0	R1351M
103191.39	1.636	1581472	WORD	n/a	wordpools/wordpool_categorized_EN.txt	KNIFE	KitchenTools	4	12	[0, 0, 0]	n/a	catFR1	0	R1351M
103193.026	0.866	1583108	WORD_OFF	n/a	n/a	KNIFE	KitchenTools	4	12	[0, 0, 0]	n/a	catFR1	0	R1351M
103193.892	1.635	1583974	WORD	n/a	wordpools/wordpool_categorized_EN.txt	SPINACH	Vegetables	5	12	[0, 0, 0]	n/a	catFR1	0	R1351M
103195.527	0.997	1585609	WORD_OFF	n/a	n/a	SPINACH	Vegetables	5	12	[0, 0, 0]	n/a	catFR1	0	R1351M
103196.524	1.636	1586606	WORD	n/a	wordpools/wordpool_categorized_EN.txt	CELERY	Vegetables	6	12	[0, 0, 0]	n/a	catFR1	0	R1351M
103198.16	0.801	1588242	WORD_OFF	n/a	n/a	CELERY	Vegetables	6	12	[0, 0, 0]	n/a	catFR1	0	R1351M
103198.961	1.633	1589043	WORD	n/a	wordpools/wordpool_categorized_EN.txt	JELLO	Desserts	7	12	[0, 0, 0]	n/a	catFR1	0	R1351M
103200.594	0.9	1590675	WORD_OFF	n/a	n/a	JELLO	Desserts	7	12	[0, 0, 0]	n/a	catFR1	0	R1351M
103201.494	1.634	1591575	WORD	n/a	wordpools/wordpool_categorized_EN.txt	CUPCAKE	Desserts	8	12	[0, 0, 0]	n/a	catFR1	0	R1351M
103203.128	1.057	1593209	WORD_OFF	n/a	n/a	CUPCAKE	Desserts	8	12	[0, 0, 0]	n/a	catFR1	0	R1351M
103204.185	1.627	1594266	WORD	n/a	wordpools/wordpool_categorized_EN.txt	LADLE	KitchenTools	9	12	[0, 0, 0]	n/a	catFR1	0	R1351M
103205.812	0.995	1595893	WORD_OFF	n/a	n/a	LADLE	KitchenTools	9	12	[0, 0, 0]	n/a	catFR1	0	R1351M
103206.807	1.639	1596888	WORD	n/a	wordpools/wordpool_categorized_EN.txt	CORKSCREW	KitchenTools	10	12	[0, 0, 0]	n/a	catFR1	0	R1351M
103208.446	0.791	1598527	WORD_OFF	n/a	n/a	CORKSCREW	KitchenTools	10	12	[0, 0, 0]	n/a	catFR1	0	R1351M
103209.237	1.626	1599318	WORD	n/a	wordpools/wordpool_categorized_EN.txt	CABBAGE	Vegetables	11	12	[0, 0, 0]	n/a	catFR1	0	R1351M
103210.863	0.896	1600944	WORD_OFF	n/a	n/a	CABBAGE	Vegetables	11	12	[0, 0, 0]	n/a	catFR1	0	R1351M
103211.759	1.638	1601840	WORD	n/a	wordpools/wordpool_categorized_EN.txt	BROCCOLI	Vegetables	12	12	[0, 0, 0]	n/a	catFR1	0	R1351M
103213.397	0.0	1603478	WORD_OFF	n/a	n/a	BROCCOLI	Vegetables	12	12	[0, 0, 0]	n/a	catFR1	0	R1351M
103213.397	0.0	1603478	ENCODING_END	n/a	n/a	n/a	n/a	-999	12	[0, 0, 0]	n/a	catFR1	0	R1351M
103213.397	0.001	1603478	DISTRACT_START	n/a	n/a	n/a	n/a	-999	12	[0, 0, 0]	n/a	catFR1	0	R1351M
103213.398	0.015	1603479	START	n/a	n/a	n/a	n/a	-999	12	[-999, -999, -999]	n/a	catFR1	0	R1351M
103213.413	4.184	1603494	PROB	4.184	n/a	n/a	n/a	-999	12	[2, 4, 3]	9	catFR1	0	R1351M
103217.597	4.968	1607678	PROB	4.968	n/a	n/a	n/a	-999	12	[6, 2, 7]	15	catFR1	0	R1351M
103222.565	4.201	1612645	PROB	4.201	n/a	n/a	n/a	-999	12	[2, 3, 9]	14	catFR1	0	R1351M
103226.766	3.584	1616846	PROB	3.584	n/a	n/a	n/a	-999	12	[4, 2, 5]	11	catFR1	0	R1351M
103230.35	5.594	1620430	PROB	5.594	n/a	n/a	n/a	-999	12	[5, 4, 7]	16	catFR1	0	R1351M
103235.944	0.007	1626024	STOP	n/a	n/a	n/a	n/a	-999	12	[-999, -999, -999]	n/a	catFR1	0	R1351M
103235.951	0.693	1626031	DISTRACT_END	n/a	n/a	n/a	n/a	-999	12	[0, 0, 0]	n/a	catFR1	0	R1351M
103236.644	1.708	1626724	RETRIEVAL_ORIENT_START	n/a	n/a	n/a	n/a	-999	12	[0, 0, 0]	n/a	catFR1	0	R1351M
103238.352	0.0	1628432	RETRIEVAL_ORIENT_END	n/a	n/a	n/a	n/a	-999	12	[0, 0, 0]	n/a	catFR1	0	R1351M
103238.352	1.752	1628432	REC_START	n/a	n/a	n/a	n/a	-999	12	[0, 0, 0]	n/a	catFR1	0	R1351M
103240.104	0.872	1630184	REC_WORD	0.872	n/a	CABBAGE	Vegetables	11	12	[0, 0, 0]	n/a	catFR1	0	R1351M
103240.976	0.674	1631056	REC_WORD	0.674	n/a	BROCCOLI	Vegetables	12	12	[0, 0, 0]	n/a	catFR1	0	R1351M
103241.65	2.009	1631730	REC_WORD	2.009	n/a	CELERY	Vegetables	6	12	[0, 0, 0]	n/a	catFR1	0	R1351M
103243.659	0.788	1633738	REC_WORD	0.788	n/a	FUDGE	Desserts	1	12	[0, 0, 0]	n/a	catFR1	0	R1351M
103244.447	14.718	1634526	REC_WORD	14.718	n/a	COOKIE	Desserts	2	12	[0, 0, 0]	n/a	catFR1	0	R1351M
103259.165	7.975	1649244	REC_WORD	7.975	n/a	LADLE	KitchenTools	9	12	[0, 0, 0]	n/a	catFR1	0	R1351M
103267.14	1.225	1657218	REC_WORD_VV	1.225	n/a	<>	n/a	-999	12	[0, 0, 0]	n/a	catFR1	0	R1351M
103268.365	0.0	1658443	REC_END	n/a	n/a	n/a	n/a	-999	12	[0, 0, 0]	n/a	catFR1	0	R1351M
103268.365	0.025	1658443	TRIAL_END	n/a	n/a	n/a	n/a	-999	12	[0, 0, 0]	n/a	catFR1	0	R1351M
103268.39	0.0	1658468	TRIAL	n/a	n/a	n/a	n/a	-999	13	[0, 0, 0]	n/a	catFR1	0	R1351M
103268.39	0.0	1658468	WAITING_START	n/a	n/a	n/a	n/a	-999	13	[0, 0, 0]	n/a	catFR1	0	R1351M
103268.39	5.419	1658468	TRIAL_START	n/a	n/a	n/a	n/a	-999	13	[0, 0, 0]	n/a	catFR1	0	R1351M
103273.809	0.0	1663887	WAITING_END	n/a	n/a	n/a	n/a	-999	13	[0, 0, 0]	n/a	catFR1	0	R1351M
103273.809	10.429	1663887	COUNTDOWN_START	n/a	n/a	n/a	n/a	-999	13	[0, 0, 0]	n/a	catFR1	0	R1351M
103284.238	0.0	1674316	COUNTDOWN_END	n/a	n/a	n/a	n/a	-999	13	[0, 0, 0]	n/a	catFR1	0	R1351M
103284.238	1.256	1674316	ORIENT_START	n/a	n/a	n/a	n/a	-999	13	[0, 0, 0]	n/a	catFR1	0	R1351M
103285.494	0.001	1675572	ORIENT_END	n/a	n/a	n/a	n/a	-999	13	[0, 0, 0]	n/a	catFR1	0	R1351M
103285.495	0.795	1675573	ENCODING_START	n/a	n/a	n/a	n/a	-999	13	[0, 0, 0]	n/a	catFR1	0	R1351M
103286.29	1.638	1676368	WORD	n/a	wordpools/wordpool_categorized_EN.txt	DRESS	Clothing	1	13	[0, 0, 0]	n/a	catFR1	0	R1351M
103287.928	1.006	1678005	WORD_OFF	n/a	n/a	DRESS	Clothing	1	13	[0, 0, 0]	n/a	catFR1	0	R1351M
103288.934	1.628	1679011	WORD	n/a	wordpools/wordpool_categorized_EN.txt	UNDERWEAR	Clothing	2	13	[0, 0, 0]	n/a	catFR1	0	R1351M
103290.562	0.892	1680639	WORD_OFF	n/a	n/a	UNDERWEAR	Clothing	2	13	[0, 0, 0]	n/a	catFR1	0	R1351M
103291.454	1.625	1681531	WORD	n/a	wordpools/wordpool_categorized_EN.txt	FLY	Insects	3	13	[0, 0, 0]	n/a	catFR1	0	R1351M
103293.079	0.965	1683156	WORD_OFF	n/a	n/a	FLY	Insects	3	13	[0, 0, 0]	n/a	catFR1	0	R1351M
103294.044	1.636	1684121	WORD	n/a	wordpools/wordpool_categorized_EN.txt	BEE	Insects	4	13	[0, 0, 0]	n/a	catFR1	0	R1351M
103295.68	0.971	1685757	WORD_OFF	n/a	n/a	BEE	Insects	4	13	[0, 0, 0]	n/a	catFR1	0	R1351M
103296.651	1.629	1686728	WORD	n/a	wordpools/wordpool_categorized_EN.txt	RAIN	Weather	5	13	[0, 0, 0]	n/a	catFR1	0	R1351M
103298.28	0.789	1688357	WORD_OFF	n/a	n/a	RAIN	Weather	5	13	[0, 0, 0]	n/a	catFR1	0	R1351M
103299.069	1.628	1689146	WORD	n/a	wordpools/wordpool_categorized_EN.txt	HURRICANE	Weather	6	13	[0, 0, 0]	n/a	catFR1	0	R1351M
103300.697	0.889	1690774	WORD_OFF	n/a	n/a	HURRICANE	Weather	6	13	[0, 0, 0]	n/a	catFR1	0	R1351M
103301.586	1.628	1691663	WORD	n/a	wordpools/wordpool_categorized_EN.txt	SKIRT	Clothing	7	13	[0, 0, 0]	n/a	catFR1	0	R1351M
103303.214	1.029	1693291	WORD_OFF	n/a	n/a	SKIRT	Clothing	7	13	[0, 0, 0]	n/a	catFR1	0	R1351M
103304.243	1.639	1694320	WORD	n/a	wordpools/wordpool_categorized_EN.txt	BLOUSE	Clothing	8	13	[0, 0, 0]	n/a	catFR1	0	R1351M
103305.882	0.907	1695959	WORD_OFF	n/a	n/a	BLOUSE	Clothing	8	13	[0, 0, 0]	n/a	catFR1	0	R1351M
103306.789	1.626	1696866	WORD	n/a	wordpools/wordpool_categorized_EN.txt	ROACH	Insects	9	13	[0, 0, 0]	n/a	catFR1	0	R1351M
103308.415	0.829	1698492	WORD_OFF	n/a	n/a	ROACH	Insects	9	13	[0, 0, 0]	n/a	catFR1	0	R1351M
103309.244	1.639	1699321	WORD	n/a	wordpools/wordpool_categorized_EN.txt	BEETLE	Insects	10	13	[0, 0, 0]	n/a	catFR1	0	R1351M
103310.883	1.053	1700959	WORD_OFF	n/a	n/a	BEETLE	Insects	10	13	[0, 0, 0]	n/a	catFR1	0	R1351M
103311.936	1.63	1702012	WORD	n/a	wordpools/wordpool_categorized_EN.txt	LIGHTNING	Weather	11	13	[0, 0, 0]	n/a	catFR1	0	R1351M
103313.566	0.933	1703642	WORD_OFF	n/a	n/a	LIGHTNING	Weather	11	13	[0, 0, 0]	n/a	catFR1	0	R1351M
103314.499	1.634	1704575	WORD	n/a	wordpools/wordpool_categorized_EN.txt	HUMIDITY	Weather	12	13	[0, 0, 0]	n/a	catFR1	0	R1351M
103316.133	0.001	1706209	WORD_OFF	n/a	n/a	HUMIDITY	Weather	12	13	[0, 0, 0]	n/a	catFR1	0	R1351M
103316.134	0.0	1706210	ENCODING_END	n/a	n/a	n/a	n/a	-999	13	[0, 0, 0]	n/a	catFR1	0	R1351M
103316.134	0.0	1706210	DISTRACT_START	n/a	n/a	n/a	n/a	-999	13	[0, 0, 0]	n/a	catFR1	0	R1351M
103316.134	0.016	1706210	START	n/a	n/a	n/a	n/a	-999	13	[-999, -999, -999]	n/a	catFR1	0	R1351M
103316.15	5.168	1706226	PROB	5.168	n/a	n/a	n/a	-999	13	[8, 6, 2]	16	catFR1	0	R1351M
103321.318	5.467	1711394	PROB	5.467	n/a	n/a	n/a	-999	13	[6, 6, 8]	20	catFR1	0	R1351M
103326.785	3.951	1716861	PROB	3.951	n/a	n/a	n/a	-999	13	[2, 2, 3]	7	catFR1	0	R1351M
103330.736	4.451	1720812	PROB	4.451	n/a	n/a	n/a	-999	13	[7, 5, 5]	17	catFR1	0	R1351M
103335.187	5.059	1725262	PROB	5.059	n/a	n/a	n/a	-999	13	[8, 9, 6]	23	catFR1	0	R1351M
103340.246	0.009	1730321	STOP	n/a	n/a	n/a	n/a	-999	13	[-999, -999, -999]	n/a	catFR1	0	R1351M
103340.255	0.644	1730330	DISTRACT_END	n/a	n/a	n/a	n/a	-999	13	[0, 0, 0]	n/a	catFR1	0	R1351M
103340.899	1.556	1730974	RETRIEVAL_ORIENT_START	n/a	n/a	n/a	n/a	-999	13	[0, 0, 0]	n/a	catFR1	0	R1351M
103342.455	0.001	1732530	RETRIEVAL_ORIENT_END	n/a	n/a	n/a	n/a	-999	13	[0, 0, 0]	n/a	catFR1	0	R1351M
103342.456	1.675	1732531	REC_START	n/a	n/a	n/a	n/a	-999	13	[0, 0, 0]	n/a	catFR1	0	R1351M
103344.131	2.494	1734206	REC_WORD	2.494	n/a	HURRICANE	Weather	6	13	[0, 0, 0]	n/a	catFR1	0	R1351M
103346.625	7.039	1736700	REC_WORD	7.039	n/a	RAIN	Weather	5	13	[0, 0, 0]	n/a	catFR1	0	R1351M
103353.664	4.781	1743738	REC_WORD	4.781	n/a	BEE	Insects	4	13	[0, 0, 0]	n/a	catFR1	0	R1351M
103358.445	6.57	1748519	REC_WORD	6.57	n/a	ANT	Insects	-999	13	[0, 0, 0]	n/a	catFR1	0	R1351M
103365.015	0.688	1755089	REC_WORD	0.688	n/a	SKIRT	Clothing	7	13	[0, 0, 0]	n/a	catFR1	0	R1351M
103365.703	1.175	1755777	REC_WORD	1.175	n/a	SHIRT	Clothing	-999	13	[0, 0, 0]	n/a	catFR1	0	R1351M
103366.878	5.588	1756952	REC_WORD	5.588	n/a	BLOUSE	Clothing	8	13	[0, 0, 0]	n/a	catFR1	0	R1351M
103372.466	0.0	1762540	REC_END	n/a	n/a	n/a	n/a	-999	13	[0, 0, 0]	n/a	catFR1	0	R1351M
103372.466	0.022	1762540	TRIAL_END	n/a	n/a	n/a	n/a	-999	13	[0, 0, 0]	n/a	catFR1	0	R1351M
103372.488	0.0	1762562	TRIAL_START	n/a	n/a	n/a	n/a	-999	14	[0, 0, 0]	n/a	catFR1	0	R1351M
103372.488	0.0	1762562	TRIAL	n/a	n/a	n/a	n/a	-999	14	[0, 0, 0]	n/a	catFR1	0	R1351M
103372.488	9.058	1762562	WAITING_START	n/a	n/a	n/a	n/a	-999	14	[0, 0, 0]	n/a	catFR1	0	R1351M
103381.546	0.001	1771619	WAITING_END	n/a	n/a	n/a	n/a	-999	14	[0, 0, 0]	n/a	catFR1	0	R1351M
103381.547	10.428	1771620	COUNTDOWN_START	n/a	n/a	n/a	n/a	-999	14	[0, 0, 0]	n/a	catFR1	0	R1351M
103391.975	0.001	1782048	COUNTDOWN_END	n/a	n/a	n/a	n/a	-999	14	[0, 0, 0]	n/a	catFR1	0	R1351M
103391.976	1.022	1782049	ORIENT_START	n/a	n/a	n/a	n/a	-999	14	[0, 0, 0]	n/a	catFR1	0	R1351M
103392.998	0.001	1783071	ORIENT_END	n/a	n/a	n/a	n/a	-999	14	[0, 0, 0]	n/a	catFR1	0	R1351M
103392.999	1.146	1783072	ENCODING_START	n/a	n/a	n/a	n/a	-999	14	[0, 0, 0]	n/a	catFR1	0	R1351M
103394.145	1.62	1784218	WORD	n/a	wordpools/wordpool_categorized_EN.txt	TEA	Beverages	1	14	[0, 0, 0]	n/a	catFR1	0	R1351M
103395.765	0.994	1785838	WORD_OFF	n/a	n/a	TEA	Beverages	1	14	[0, 0, 0]	n/a	catFR1	0	R1351M
103396.759	1.624	1786832	WORD	n/a	wordpools/wordpool_categorized_EN.txt	RUM	Beverages	2	14	[0, 0, 0]	n/a	catFR1	0	R1351M
103398.383	0.877	1788455	WORD_OFF	n/a	n/a	RUM	Beverages	2	14	[0, 0, 0]	n/a	catFR1	0	R1351M
103399.26	1.623	1789332	WORD	n/a	wordpools/wordpool_categorized_EN.txt	LEG	BodyParts	3	14	[0, 0, 0]	n/a	catFR1	0	R1351M
103400.883	0.958	1790955	WORD_OFF	n/a	n/a	LEG	BodyParts	3	14	[0, 0, 0]	n/a	catFR1	0	R1351M
103401.841	1.626	1791913	WORD	n/a	wordpools/wordpool_categorized_EN.txt	FOOT	BodyParts	4	14	[0, 0, 0]	n/a	catFR1	0	R1351M
103403.467	0.966	1793539	WORD_OFF	n/a	n/a	FOOT	BodyParts	4	14	[0, 0, 0]	n/a	catFR1	0	R1351M
103404.433	1.635	1794505	WORD	n/a	wordpools/wordpool_categorized_EN.txt	THUNDERSTORM	Weather	5	14	[0, 0, 0]	n/a	catFR1	0	R1351M
103406.068	1.007	1796140	WORD_OFF	n/a	n/a	THUNDERSTORM	Weather	5	14	[0, 0, 0]	n/a	catFR1	0	R1351M
103407.075	1.626	1797147	WORD	n/a	wordpools/wordpool_categorized_EN.txt	FOG	Weather	6	14	[0, 0, 0]	n/a	catFR1	0	R1351M
103408.701	0.807	1798773	WORD_OFF	n/a	n/a	FOG	Weather	6	14	[0, 0, 0]	n/a	catFR1	0	R1351M
103409.508	1.627	1799580	WORD	n/a	wordpools/wordpool_categorized_EN.txt	LEMONADE	Beverages	7	14	[0, 0, 0]	n/a	catFR1	0	R1351M
103411.135	0.851	1801207	WORD_OFF	n/a	n/a	LEMONADE	Beverages	7	14	[0, 0, 0]	n/a	catFR1	0	R1351M
103411.986	1.633	1802058	WORD	n/a	wordpools/wordpool_categorized_EN.txt	COFFEE	Beverages	8	14	[0, 0, 0]	n/a	catFR1	0	R1351M
103413.619	1.069	1803691	WORD_OFF	n/a	n/a	COFFEE	Beverages	8	14	[0, 0, 0]	n/a	catFR1	0	R1351M
103414.688	1.632	1804760	WORD	n/a	wordpools/wordpool_categorized_EN.txt	DRIZZLE	Weather	9	14	[0, 0, 0]	n/a	catFR1	0	R1351M
103416.32	0.945	1806392	WORD_OFF	n/a	n/a	DRIZZLE	Weather	9	14	[0, 0, 0]	n/a	catFR1	0	R1351M
103417.265	1.638	1807337	WORD	n/a	wordpools/wordpool_categorized_EN.txt	THUNDER	Weather	10	14	[0, 0, 0]	n/a	catFR1	0	R1351M
103418.903	0.814	1808974	WORD_OFF	n/a	n/a	THUNDER	Weather	10	14	[0, 0, 0]	n/a	catFR1	0	R1351M
103419.717	1.637	1809788	WORD	n/a	wordpools/wordpool_categorized_EN.txt	NOSE	BodyParts	11	14	[0, 0, 0]	n/a	catFR1	0	R1351M
103421.354	1.01	1811425	WORD_OFF	n/a	n/a	NOSE	BodyParts	11	14	[0, 0, 0]	n/a	catFR1	0	R1351M
103422.364	1.624	1812435	WORD	n/a	wordpools/wordpool_categorized_EN.txt	EYE	BodyParts	12	14	[0, 0, 0]	n/a	catFR1	0	R1351M
103423.988	0.0	1814059	ENCODING_END	n/a	n/a	n/a	n/a	-999	14	[0, 0, 0]	n/a	catFR1	0	R1351M
103423.988	0.001	1814059	WORD_OFF	n/a	n/a	EYE	BodyParts	12	14	[0, 0, 0]	n/a	catFR1	0	R1351M
103423.989	0.0	1814060	DISTRACT_START	n/a	n/a	n/a	n/a	-999	14	[0, 0, 0]	n/a	catFR1	0	R1351M
103423.989	0.015	1814060	START	n/a	n/a	n/a	n/a	-999	14	[-999, -999, -999]	n/a	catFR1	0	R1351M
103424.004	3.534	1814075	PROB	3.534	n/a	n/a	n/a	-999	14	[1, 7, 1]	9	catFR1	0	R1351M
103427.538	4.451	1817609	PROB	4.451	n/a	n/a	n/a	-999	14	[8, 3, 4]	15	catFR1	0	R1351M
103431.989	3.601	1822060	PROB	3.601	n/a	n/a	n/a	-999	14	[2, 2, 4]	8	catFR1	0	R1351M
103435.59	4.251	1825661	PROB	4.251	n/a	n/a	n/a	-999	14	[6, 3, 3]	12	catFR1	0	R1351M
103439.841	4.134	1829912	PROB	4.134	n/a	n/a	n/a	-999	14	[1, 3, 7]	11	catFR1	0	R1351M
103443.975	4.781	1834045	PROB	4.781	n/a	n/a	n/a	-999	14	[2, 7, 9]	18	catFR1	0	R1351M
103448.756	0.02	1838826	STOP	n/a	n/a	n/a	n/a	-999	14	[-999, -999, -999]	n/a	catFR1	0	R1351M
103448.776	0.677	1838846	DISTRACT_END	n/a	n/a	n/a	n/a	-999	14	[0, 0, 0]	n/a	catFR1	0	R1351M
103449.453	1.64	1839523	RETRIEVAL_ORIENT_START	n/a	n/a	n/a	n/a	-999	14	[0, 0, 0]	n/a	catFR1	0	R1351M
103451.093	0.0	1841163	RETRIEVAL_ORIENT_END	n/a	n/a	n/a	n/a	-999	14	[0, 0, 0]	n/a	catFR1	0	R1351M
103451.093	2.904	1841163	REC_START	n/a	n/a	n/a	n/a	-999	14	[0, 0, 0]	n/a	catFR1	0	R1351M
103453.997	3.29	1844067	REC_WORD	3.29	n/a	THUNDERSTORM	Weather	5	14	[0, 0, 0]	n/a	catFR1	0	R1351M
103457.287	3.045	1847357	REC_WORD	3.045	n/a	RUM	Beverages	2	14	[0, 0, 0]	n/a	catFR1	0	R1351M
103460.332	8.863	1850402	REC_WORD	8.863	n/a	LEG	BodyParts	3	14	[0, 0, 0]	n/a	catFR1	0	R1351M
103469.195	9.683	1859264	REC_WORD	9.683	n/a	FOG	Weather	6	14	[0, 0, 0]	n/a	catFR1	0	R1351M
103478.878	2.229	1868947	REC_WORD	2.229	n/a	CLOUD	Weather	-999	14	[0, 0, 0]	n/a	catFR1	0	R1351M
103481.107	0.0	1871176	REC_END	n/a	n/a	n/a	n/a	-999	14	[0, 0, 0]	n/a	catFR1	0	R1351M
103481.107	0.021	1871176	TRIAL_END	n/a	n/a	n/a	n/a	-999	14	[0, 0, 0]	n/a	catFR1	0	R1351M
103481.128	0.001	1871197	TRIAL_START	n/a	n/a	n/a	n/a	-999	15	[0, 0, 0]	n/a	catFR1	0	R1351M
103481.129	0.0	1871198	TRIAL	n/a	n/a	n/a	n/a	-999	15	[0, 0, 0]	n/a	catFR1	0	R1351M
103481.129	17.09	1871198	WAITING_START	n/a	n/a	n/a	n/a	-999	15	[0, 0, 0]	n/a	catFR1	0	R1351M
103498.219	0.0	1888287	WAITING_END	n/a	n/a	n/a	n/a	-999	15	[0, 0, 0]	n/a	catFR1	0	R1351M
103498.219	10.43	1888287	COUNTDOWN_START	n/a	n/a	n/a	n/a	-999	15	[0, 0, 0]	n/a	catFR1	0	R1351M
103508.649	0.0	1898716	ORIENT_START	n/a	n/a	n/a	n/a	-999	15	[0, 0, 0]	n/a	catFR1	0	R1351M
103508.649	1.089	1898716	COUNTDOWN_END	n/a	n/a	n/a	n/a	-999	15	[0, 0, 0]	n/a	catFR1	0	R1351M
103509.738	0.0	1899805	ORIENT_END	n/a	n/a	n/a	n/a	-999	15	[0, 0, 0]	n/a	catFR1	0	R1351M
103509.738	0.944	1899805	ENCODING_START	n/a	n/a	n/a	n/a	-999	15	[0, 0, 0]	n/a	catFR1	0	R1351M
103510.682	1.623	1900749	WORD	n/a	wordpools/wordpool_categorized_EN.txt	TOASTER	Appliances	1	15	[0, 0, 0]	n/a	catFR1	0	R1351M
103512.305	0.777	1902372	WORD_OFF	n/a	n/a	TOASTER	Appliances	1	15	[0, 0, 0]	n/a	catFR1	0	R1351M
103513.082	1.623	1903149	WORD	n/a	wordpools/wordpool_categorized_EN.txt	OVEN	Appliances	2	15	[0, 0, 0]	n/a	catFR1	0	R1351M
103514.705	0.766	1904772	WORD_OFF	n/a	n/a	OVEN	Appliances	2	15	[0, 0, 0]	n/a	catFR1	0	R1351M
103515.471	1.635	1905538	WORD	n/a	wordpools/wordpool_categorized_EN.txt	CRAB	OceanAnimals	3	15	[0, 0, 0]	n/a	catFR1	0	R1351M
103517.106	0.963	1907173	WORD_OFF	n/a	n/a	CRAB	OceanAnimals	3	15	[0, 0, 0]	n/a	catFR1	0	R1351M
103518.069	1.637	1908136	WORD	n/a	wordpools/wordpool_categorized_EN.txt	DOLPHIN	OceanAnimals	4	15	[0, 0, 0]	n/a	catFR1	0	R1351M
103519.706	0.803	1909773	WORD_OFF	n/a	n/a	DOLPHIN	OceanAnimals	4	15	[0, 0, 0]	n/a	catFR1	0	R1351M
103520.509	1.631	1910576	WORD	n/a	wordpools/wordpool_categorized_EN.txt	SCOOTER	Vehicles	5	15	[0, 0, 0]	n/a	catFR1	0	R1351M
103522.14	1.093	1912207	WORD_OFF	n/a	n/a	SCOOTER	Vehicles	5	15	[0, 0, 0]	n/a	catFR1	0	R1351M
103523.233	1.624	1913300	WORD	n/a	wordpools/wordpool_categorized_EN.txt	JEEP	Vehicles	6	15	[0, 0, 0]	n/a	catFR1	0	R1351M
103524.857	0.804	1914924	WORD_OFF	n/a	n/a	JEEP	Vehicles	6	15	[0, 0, 0]	n/a	catFR1	0	R1351M
103525.661	1.63	1915728	WORD	n/a	wordpools/wordpool_categorized_EN.txt	SQUID	OceanAnimals	7	15	[0, 0, 0]	n/a	catFR1	0	R1351M
103527.291	0.926	1917358	WORD_OFF	n/a	n/a	SQUID	OceanAnimals	7	15	[0, 0, 0]	n/a	catFR1	0	R1351M
103528.217	1.625	1918284	WORD	n/a	wordpools/wordpool_categorized_EN.txt	LOBSTER	OceanAnimals	8	15	[0, 0, 0]	n/a	catFR1	0	R1351M
103529.842	0.838	1919908	WORD_OFF	n/a	n/a	LOBSTER	OceanAnimals	8	15	[0, 0, 0]	n/a	catFR1	0	R1351M
103530.68	1.629	1920746	WORD	n/a	wordpools/wordpool_categorized_EN.txt	VAN	Vehicles	9	15	[0, 0, 0]	n/a	catFR1	0	R1351M
103532.309	0.988	1922375	WORD_OFF	n/a	n/a	VAN	Vehicles	9	15	[0, 0, 0]	n/a	catFR1	0	R1351M
103533.297	1.629	1923363	WORD	n/a	wordpools/wordpool_categorized_EN.txt	TRAIN	Vehicles	10	15	[0, 0, 0]	n/a	catFR1	0	R1351M
103534.926	1.035	1924992	WORD_OFF	n/a	n/a	TRAIN	Vehicles	10	15	[0, 0, 0]	n/a	catFR1	0	R1351M
103535.961	1.632	1926027	WORD	n/a	wordpools/wordpool_categorized_EN.txt	BLENDER	Appliances	11	15	[0, 0, 0]	n/a	catFR1	0	R1351M
103537.593	0.932	1927659	WORD_OFF	n/a	n/a	BLENDER	Appliances	11	15	[0, 0, 0]	n/a	catFR1	0	R1351M
103538.525	1.634	1928591	WORD	n/a	wordpools/wordpool_categorized_EN.txt	STOVE	Appliances	12	15	[0, 0, 0]	n/a	catFR1	0	R1351M
103540.159	0.001	1930225	WORD_OFF	n/a	n/a	STOVE	Appliances	12	15	[0, 0, 0]	n/a	catFR1	0	R1351M
103540.16	0.0	1930226	ENCODING_END	n/a	n/a	n/a	n/a	-999	15	[0, 0, 0]	n/a	catFR1	0	R1351M
103540.16	0.001	1930226	DISTRACT_START	n/a	n/a	n/a	n/a	-999	15	[0, 0, 0]	n/a	catFR1	0	R1351M
103540.161	0.015	1930227	START	n/a	n/a	n/a	n/a	-999	15	[-999, -999, -999]	n/a	catFR1	0	R1351M
103540.176	5.268	1930242	PROB	5.268	n/a	n/a	n/a	-999	15	[2, 2, 8]	12	catFR1	0	R1351M
103545.444	4.001	1935510	PROB	4.001	n/a	n/a	n/a	-999	15	[3, 4, 6]	13	catFR1	0	R1351M
103549.445	4.468	1939511	PROB	4.468	n/a	n/a	n/a	-999	15	[8, 3, 9]	20	catFR1	0	R1351M
103553.913	5.918	1943978	PROB	5.918	n/a	n/a	n/a	-999	15	[7, 3, 9]	19	catFR1	0	R1351M
103559.831	4.865	1949896	PROB	4.865	n/a	n/a	n/a	-999	15	[3, 5, 3]	11	catFR1	0	R1351M
103564.696	0.019	1954761	STOP	n/a	n/a	n/a	n/a	-999	15	[-999, -999, -999]	n/a	catFR1	0	R1351M
103564.715	0.633	1954780	DISTRACT_END	n/a	n/a	n/a	n/a	-999	15	[0, 0, 0]	n/a	catFR1	0	R1351M
103565.348	1.584	1955413	RETRIEVAL_ORIENT_START	n/a	n/a	n/a	n/a	-999	15	[0, 0, 0]	n/a	catFR1	0	R1351M
103566.932	0.0	1956997	RETRIEVAL_ORIENT_END	n/a	n/a	n/a	n/a	-999	15	[0, 0, 0]	n/a	catFR1	0	R1351M
103566.932	2.009	1956997	REC_START	n/a	n/a	n/a	n/a	-999	15	[0, 0, 0]	n/a	catFR1	0	R1351M
103568.941	1.365	1959006	REC_WORD	1.365	n/a	TOASTER	Appliances	1	15	[0, 0, 0]	n/a	catFR1	0	R1351M
103570.306	1.894	1960371	REC_WORD	1.894	n/a	OVEN	Appliances	2	15	[0, 0, 0]	n/a	catFR1	0	R1351M
103572.2	7.47	1962265	REC_WORD	7.47	n/a	CRAB	OceanAnimals	3	15	[0, 0, 0]	n/a	catFR1	0	R1351M
103579.67	17.273	1969734	REC_WORD	17.273	n/a	SQUID	OceanAnimals	7	15	[0, 0, 0]	n/a	catFR1	0	R1351M
103596.943	0.0	1987006	REC_END	n/a	n/a	n/a	n/a	-999	15	[0, 0, 0]	n/a	catFR1	0	R1351M
103596.943	0.022	1987006	TRIAL_END	n/a	n/a	n/a	n/a	-999	15	[0, 0, 0]	n/a	catFR1	0	R1351M
103596.965	0.0	1987028	WAITING_START	n/a	n/a	n/a	n/a	-999	16	[0, 0, 0]	n/a	catFR1	0	R1351M
103596.965	0.0	1987028	TRIAL	n/a	n/a	n/a	n/a	-999	16	[0, 0, 0]	n/a	catFR1	0	R1351M
103596.965	26.712	1987028	TRIAL_START	n/a	n/a	n/a	n/a	-999	16	[0, 0, 0]	n/a	catFR1	0	R1351M
103623.677	0.0	2013739	WAITING_END	n/a	n/a	n/a	n/a	-999	16	[0, 0, 0]	n/a	catFR1	0	R1351M
103623.677	10.428	2013739	COUNTDOWN_START	n/a	n/a	n/a	n/a	-999	16	[0, 0, 0]	n/a	catFR1	0	R1351M
103634.105	0.001	2024167	COUNTDOWN_END	n/a	n/a	n/a	n/a	-999	16	[0, 0, 0]	n/a	catFR1	0	R1351M
103634.106	1.09	2024168	ORIENT_START	n/a	n/a	n/a	n/a	-999	16	[0, 0, 0]	n/a	catFR1	0	R1351M
103635.196	0.0	2025258	ORIENT_END	n/a	n/a	n/a	n/a	-999	16	[0, 0, 0]	n/a	catFR1	0	R1351M
103635.196	0.985	2025258	ENCODING_START	n/a	n/a	n/a	n/a	-999	16	[0, 0, 0]	n/a	catFR1	0	R1351M
103636.181	1.632	2026243	WORD	n/a	wordpools/wordpool_categorized_EN.txt	HAWK	Birds	1	16	[0, 0, 0]	n/a	catFR1	0	R1351M
103637.813	0.808	2027875	WORD_OFF	n/a	n/a	HAWK	Birds	1	16	[0, 0, 0]	n/a	catFR1	0	R1351M
103638.621	1.625	2028682	WORD	n/a	wordpools/wordpool_categorized_EN.txt	GOOSE	Birds	2	16	[0, 0, 0]	n/a	catFR1	0	R1351M
103640.246	1.059	2030307	WORD_OFF	n/a	n/a	GOOSE	Birds	2	16	[0, 0, 0]	n/a	catFR1	0	R1351M
103641.305	1.625	2031366	WORD	n/a	wordpools/wordpool_categorized_EN.txt	HAND	BodyParts	3	16	[0, 0, 0]	n/a	catFR1	0	R1351M
103642.93	0.886	2032991	WORD_OFF	n/a	n/a	HAND	BodyParts	3	16	[0, 0, 0]	n/a	catFR1	0	R1351M
103643.816	1.631	2033877	WORD	n/a	wordpools/wordpool_categorized_EN.txt	TOE	BodyParts	4	16	[0, 0, 0]	n/a	catFR1	0	R1351M
103645.447	1.035	2035508	WORD_OFF	n/a	n/a	TOE	BodyParts	4	16	[0, 0, 0]	n/a	catFR1	0	R1351M
103646.482	1.633	2036543	WORD	n/a	wordpools/wordpool_categorized_EN.txt	SOFA	Furniture	5	16	[0, 0, 0]	n/a	catFR1	0	R1351M
103648.115	1.018	2038176	WORD_OFF	n/a	n/a	SOFA	Furniture	5	16	[0, 0, 0]	n/a	catFR1	0	R1351M
103649.133	1.632	2039194	WORD	n/a	wordpools/wordpool_categorized_EN.txt	CABINET	Furniture	6	16	[0, 0, 0]	n/a	catFR1	0	R1351M
103650.765	0.799	2040826	WORD_OFF	n/a	n/a	CABINET	Furniture	6	16	[0, 0, 0]	n/a	catFR1	0	R1351M
103651.564	1.635	2041625	WORD	n/a	wordpools/wordpool_categorized_EN.txt	CROW	Birds	7	16	[0, 0, 0]	n/a	catFR1	0	R1351M
103653.199	0.757	2043260	WORD_OFF	n/a	n/a	CROW	Birds	7	16	[0, 0, 0]	n/a	catFR1	0	R1351M
103653.956	1.627	2044017	WORD	n/a	wordpools/wordpool_categorized_EN.txt	SPARROW	Birds	8	16	[0, 0, 0]	n/a	catFR1	0	R1351M
103655.583	0.811	2045644	WORD_OFF	n/a	n/a	SPARROW	Birds	8	16	[0, 0, 0]	n/a	catFR1	0	R1351M
103656.394	1.639	2046455	WORD	n/a	wordpools/wordpool_categorized_EN.txt	RECLINER	Furniture	9	16	[0, 0, 0]	n/a	catFR1	0	R1351M
103658.033	1.006	2048094	WORD_OFF	n/a	n/a	RECLINER	Furniture	9	16	[0, 0, 0]	n/a	catFR1	0	R1351M
103659.039	1.628	2049100	WORD	n/a	wordpools/wordpool_categorized_EN.txt	NIGHTSTAND	Furniture	10	16	[0, 0, 0]	n/a	catFR1	0	R1351M
103660.667	0.968	2050727	WORD_OFF	n/a	n/a	NIGHTSTAND	Furniture	10	16	[0, 0, 0]	n/a	catFR1	0	R1351M
103661.635	1.633	2051695	WORD	n/a	wordpools/wordpool_categorized_EN.txt	FINGERS	BodyParts	11	16	[0, 0, 0]	n/a	catFR1	0	R1351M
103663.268	0.982	2053328	WORD_OFF	n/a	n/a	FINGERS	BodyParts	11	16	[0, 0, 0]	n/a	catFR1	0	R1351M
103664.25	1.635	2054310	WORD	n/a	wordpools/wordpool_categorized_EN.txt	ELBOW	BodyParts	12	16	[0, 0, 0]	n/a	catFR1	0	R1351M
103665.885	0.0	2055945	WORD_OFF	n/a	n/a	ELBOW	BodyParts	12	16	[0, 0, 0]	n/a	catFR1	0	R1351M
103665.885	0.0	2055945	ENCODING_END	n/a	n/a	n/a	n/a	-999	16	[0, 0, 0]	n/a	catFR1	0	R1351M
103665.885	0.001	2055945	DISTRACT_START	n/a	n/a	n/a	n/a	-999	16	[0, 0, 0]	n/a	catFR1	0	R1351M
103665.886	0.015	2055946	START	n/a	n/a	n/a	n/a	-999	16	[-999, -999, -999]	n/a	catFR1	0	R1351M
103665.901	4.885	2055961	PROB	4.885	n/a	n/a	n/a	-999	16	[1, 8, 8]	17	catFR1	0	R1351M
103670.786	3.9	2060846	PROB	3.9	n/a	n/a	n/a	-999	16	[8, 4, 5]	17	catFR1	0	R1351M
103674.686	4.068	2064746	PROB	4.068	n/a	n/a	n/a	-999	16	[5, 6, 6]	17	catFR1	0	R1351M
103678.754	5.501	2068814	PROB	5.501	n/a	n/a	n/a	-999	16	[6, 8, 9]	23	catFR1	0	R1351M
103684.255	4.014	2074314	PROB	4.014	n/a	n/a	n/a	-999	16	[2, 7, 1]	10	catFR1	0	R1351M
103688.269	0.02	2078328	STOP	n/a	n/a	n/a	n/a	-999	16	[-999, -999, -999]	n/a	catFR1	0	R1351M
103688.289	0.602	2078348	DISTRACT_END	n/a	n/a	n/a	n/a	-999	16	[0, 0, 0]	n/a	catFR1	0	R1351M
103688.891	1.682	2078950	RETRIEVAL_ORIENT_START	n/a	n/a	n/a	n/a	-999	16	[0, 0, 0]	n/a	catFR1	0	R1351M
103690.573	0.0	2080632	RETRIEVAL_ORIENT_END	n/a	n/a	n/a	n/a	-999	16	[0, 0, 0]	n/a	catFR1	0	R1351M
103690.573	1.075	2080632	REC_START	n/a	n/a	n/a	n/a	-999	16	[0, 0, 0]	n/a	catFR1	0	R1351M
103691.648	0.941	2081707	REC_WORD	0.941	n/a	HAWK	Birds	1	16	[0, 0, 0]	n/a	catFR1	0	R1351M
103692.589	1.257	2082648	REC_WORD	1.257	n/a	GOOSE	Birds	2	16	[0, 0, 0]	n/a	catFR1	0	R1351M
103693.846	3.524	2083905	REC_WORD	3.524	n/a	CROW	Birds	7	16	[0, 0, 0]	n/a	catFR1	0	R1351M
103697.37	0.983	2087429	REC_WORD	0.983	n/a	HAND	BodyParts	3	16	[0, 0, 0]	n/a	catFR1	0	R1351M
103698.353	21.523	2088412	REC_WORD	21.523	n/a	TOE	BodyParts	4	16	[0, 0, 0]	n/a	catFR1	0	R1351M
103719.876	0.708	2109934	REC_WORD_VV	0.708	n/a	<>	n/a	-999	16	[0, 0, 0]	n/a	catFR1	0	R1351M
103720.584	0.001	2110642	REC_END	n/a	n/a	n/a	n/a	-999	16	[0, 0, 0]	n/a	catFR1	0	R1351M
103720.585	0.021	2110643	TRIAL_END	n/a	n/a	n/a	n/a	-999	16	[0, 0, 0]	n/a	catFR1	0	R1351M
103720.606	0.0	2110664	TRIAL_START	n/a	n/a	n/a	n/a	-999	17	[0, 0, 0]	n/a	catFR1	0	R1351M
103720.606	0.0	2110664	TRIAL	n/a	n/a	n/a	n/a	-999	17	[0, 0, 0]	n/a	catFR1	0	R1351M
103720.606	6.357	2110664	WAITING_START	n/a	n/a	n/a	n/a	-999	17	[0, 0, 0]	n/a	catFR1	0	R1351M
103726.963	0.001	2117020	WAITING_END	n/a	n/a	n/a	n/a	-999	17	[0, 0, 0]	n/a	catFR1	0	R1351M
103726.964	10.429	2117021	COUNTDOWN_START	n/a	n/a	n/a	n/a	-999	17	[0, 0, 0]	n/a	catFR1	0	R1351M
103737.393	0.0	2127450	COUNTDOWN_END	n/a	n/a	n/a	n/a	-999	17	[0, 0, 0]	n/a	catFR1	0	R1351M
103737.393	1.023	2127450	ORIENT_START	n/a	n/a	n/a	n/a	-999	17	[0, 0, 0]	n/a	catFR1	0	R1351M
103738.416	0.0	2128473	ORIENT_END	n/a	n/a	n/a	n/a	-999	17	[0, 0, 0]	n/a	catFR1	0	R1351M
103738.416	0.946	2128473	ENCODING_START	n/a	n/a	n/a	n/a	-999	17	[0, 0, 0]	n/a	catFR1	0	R1351M
103739.362	1.637	2129419	WORD	n/a	wordpools/wordpool_categorized_EN.txt	PEN	OfficeSupplies	1	17	[0, 0, 0]	n/a	catFR1	0	R1351M
103740.999	0.821	2131056	WORD_OFF	n/a	n/a	PEN	OfficeSupplies	1	17	[0, 0, 0]	n/a	catFR1	0	R1351M
103741.82	1.63	2131877	WORD	n/a	wordpools/wordpool_categorized_EN.txt	NOTEBOOK	OfficeSupplies	2	17	[0, 0, 0]	n/a	catFR1	0	R1351M
103743.45	1.009	2133507	WORD_OFF	n/a	n/a	NOTEBOOK	OfficeSupplies	2	17	[0, 0, 0]	n/a	catFR1	0	R1351M
103744.459	1.625	2134516	WORD	n/a	wordpools/wordpool_categorized_EN.txt	FRISBEE	Toys	3	17	[0, 0, 0]	n/a	catFR1	0	R1351M
103746.084	1.117	2136141	WORD_OFF	n/a	n/a	FRISBEE	Toys	3	17	[0, 0, 0]	n/a	catFR1	0	R1351M
103747.201	1.633	2137258	WORD	n/a	wordpools/wordpool_categorized_EN.txt	MARBLES	Toys	4	17	[0, 0, 0]	n/a	catFR1	0	R1351M
103748.834	1.067	2138890	WORD_OFF	n/a	n/a	MARBLES	Toys	4	17	[0, 0, 0]	n/a	catFR1	0	R1351M
103749.901	1.634	2139957	WORD	n/a	wordpools/wordpool_categorized_EN.txt	POTATO	Vegetables	5	17	[0, 0, 0]	n/a	catFR1	0	R1351M
103751.535	1.039	2141591	WORD_OFF	n/a	n/a	POTATO	Vegetables	5	17	[0, 0, 0]	n/a	catFR1	0	R1351M
103752.574	1.628	2142630	WORD	n/a	wordpools/wordpool_categorized_EN.txt	LETTUCE	Vegetables	6	17	[0, 0, 0]	n/a	catFR1	0	R1351M
103754.202	0.804	2144258	WORD_OFF	n/a	n/a	LETTUCE	Vegetables	6	17	[0, 0, 0]	n/a	catFR1	0	R1351M
103755.006	1.63	2145062	WORD	n/a	wordpools/wordpool_categorized_EN.txt	BASKETBALL	Toys	7	17	[0, 0, 0]	n/a	catFR1	0	R1351M
103756.636	1.127	2146692	WORD_OFF	n/a	n/a	BASKETBALL	Toys	7	17	[0, 0, 0]	n/a	catFR1	0	R1351M
103757.763	1.623	2147819	WORD	n/a	wordpools/wordpool_categorized_EN.txt	BALL	Toys	8	17	[0, 0, 0]	n/a	catFR1	0	R1351M
103759.386	1.131	2149442	WORD_OFF	n/a	n/a	BALL	Toys	8	17	[0, 0, 0]	n/a	catFR1	0	R1351M
103760.517	1.636	2150573	WORD	n/a	wordpools/wordpool_categorized_EN.txt	GLUE	OfficeSupplies	9	17	[0, 0, 0]	n/a	catFR1	0	R1351M
103762.153	0.996	2152209	WORD_OFF	n/a	n/a	GLUE	OfficeSupplies	9	17	[0, 0, 0]	n/a	catFR1	0	R1351M
103763.149	1.622	2153205	WORD	n/a	wordpools/wordpool_categorized_EN.txt	FOLDER	OfficeSupplies	10	17	[0, 0, 0]	n/a	catFR1	0	R1351M
103764.771	1.049	2154827	WORD_OFF	n/a	n/a	FOLDER	OfficeSupplies	10	17	[0, 0, 0]	n/a	catFR1	0	R1351M
103765.82	1.635	2155876	WORD	n/a	wordpools/wordpool_categorized_EN.txt	CAULIFLOWER	Vegetables	11	17	[0, 0, 0]	n/a	catFR1	0	R1351M
103767.455	1.053	2157511	WORD_OFF	n/a	n/a	CAULIFLOWER	Vegetables	11	17	[0, 0, 0]	n/a	catFR1	0	R1351M
103768.508	1.63	2158564	WORD	n/a	wordpools/wordpool_categorized_EN.txt	PEAS	Vegetables	12	17	[0, 0, 0]	n/a	catFR1	0	R1351M
103770.138	0.001	2160193	WORD_OFF	n/a	n/a	PEAS	Vegetables	12	17	[0, 0, 0]	n/a	catFR1	0	R1351M
103770.139	0.0	2160194	ENCODING_END	n/a	n/a	n/a	n/a	-999	17	[0, 0, 0]	n/a	catFR1	0	R1351M
103770.139	0.001	2160194	DISTRACT_START	n/a	n/a	n/a	n/a	-999	17	[0, 0, 0]	n/a	catFR1	0	R1351M
103770.14	0.015	2160195	START	n/a	n/a	n/a	n/a	-999	17	[-999, -999, -999]	n/a	catFR1	0	R1351M
103770.155	4.984	2160210	PROB	4.984	n/a	n/a	n/a	-999	17	[4, 5, 8]	17	catFR1	0	R1351M
103775.139	6.601	2165194	PROB	6.601	n/a	n/a	n/a	-999	17	[8, 5, 6]	19	catFR1	0	R1351M
103781.74	4.101	2171795	PROB	4.101	n/a	n/a	n/a	-999	17	[7, 1, 5]	13	catFR1	0	R1351M
103785.841	4.234	2175896	PROB	4.234	n/a	n/a	n/a	-999	17	[2, 3, 2]	7	catFR1	0	R1351M
103790.075	6.758	2180130	PROB	6.758	n/a	n/a	n/a	-999	17	[6, 8, 6]	20	catFR1	0	R1351M
103796.833	0.011	2186887	STOP	n/a	n/a	n/a	n/a	-999	17	[-999, -999, -999]	n/a	catFR1	0	R1351M
103796.844	0.526	2186898	DISTRACT_END	n/a	n/a	n/a	n/a	-999	17	[0, 0, 0]	n/a	catFR1	0	R1351M
103797.37	1.524	2187424	RETRIEVAL_ORIENT_START	n/a	n/a	n/a	n/a	-999	17	[0, 0, 0]	n/a	catFR1	0	R1351M
103798.894	0.0	2188948	RETRIEVAL_ORIENT_END	n/a	n/a	n/a	n/a	-999	17	[0, 0, 0]	n/a	catFR1	0	R1351M
103798.894	3.35	2188948	REC_START	n/a	n/a	n/a	n/a	-999	17	[0, 0, 0]	n/a	catFR1	0	R1351M
103802.244	1.423	2192298	REC_WORD_VV	1.423	n/a	<>	n/a	-999	17	[0, 0, 0]	n/a	catFR1	0	R1351M
103803.667	1.818	2193721	REC_WORD_VV	1.818	n/a	<>	n/a	-999	17	[0, 0, 0]	n/a	catFR1	0	R1351M
103805.485	0.787	2195539	REC_WORD_VV	0.787	n/a	<>	n/a	-999	17	[0, 0, 0]	n/a	catFR1	0	R1351M
103806.272	4.04	2196326	REC_WORD_VV	4.04	n/a	<>	n/a	-999	17	[0, 0, 0]	n/a	catFR1	0	R1351M
103810.312	1.007	2200366	REC_WORD_VV	1.007	n/a	<>	n/a	-999	17	[0, 0, 0]	n/a	catFR1	0	R1351M
103811.319	0.2	2201373	REC_WORD_VV	0.2	n/a	<>	n/a	-999	17	[0, 0, 0]	n/a	catFR1	0	R1351M
103811.519	0.377	2201573	REC_WORD	0.377	n/a	HAWK	Birds	-999	17	[0, 0, 0]	n/a	catFR1	0	R1351M
103811.896	0.294	2201950	REC_WORD	0.294	n/a	GOOSE	Birds	-999	17	[0, 0, 0]	n/a	catFR1	0	R1351M
103812.19	0.466	2202244	REC_WORD	0.466	n/a	CROW	Birds	-999	17	[0, 0, 0]	n/a	catFR1	0	R1351M
103812.656	5.862	2202710	REC_WORD_VV	5.862	n/a	<>	n/a	-999	17	[0, 0, 0]	n/a	catFR1	0	R1351M
103818.518	5.583	2208571	REC_WORD_VV	5.583	n/a	<>	n/a	-999	17	[0, 0, 0]	n/a	catFR1	0	R1351M
103824.101	4.805	2214154	REC_WORD	4.805	n/a	OVEN	Appliances	-999	17	[0, 0, 0]	n/a	catFR1	0	R1351M
103828.906	0.0	2218959	TRIAL_END	n/a	n/a	n/a	n/a	-999	17	[0, 0, 0]	n/a	catFR1	0	R1351M
103828.906	0.023	2218959	REC_END	n/a	n/a	n/a	n/a	-999	17	[0, 0, 0]	n/a	catFR1	0	R1351M
103828.929	0.0	2218982	TRIAL_START	n/a	n/a	n/a	n/a	-999	18	[0, 0, 0]	n/a	catFR1	0	R1351M
103828.929	0.001	2218982	TRIAL	n/a	n/a	n/a	n/a	-999	18	[0, 0, 0]	n/a	catFR1	0	R1351M
103828.93	7.471	2218983	WAITING_START	n/a	n/a	n/a	n/a	-999	18	[0, 0, 0]	n/a	catFR1	0	R1351M
103836.401	0.001	2226453	WAITING_END	n/a	n/a	n/a	n/a	-999	18	[0, 0, 0]	n/a	catFR1	0	R1351M
103836.402	10.429	2226454	COUNTDOWN_START	n/a	n/a	n/a	n/a	-999	18	[0, 0, 0]	n/a	catFR1	0	R1351M
103846.831	0.001	2236883	COUNTDOWN_END	n/a	n/a	n/a	n/a	-999	18	[0, 0, 0]	n/a	catFR1	0	R1351M
103846.832	1.138	2236884	ORIENT_START	n/a	n/a	n/a	n/a	-999	18	[0, 0, 0]	n/a	catFR1	0	R1351M
103847.97	0.001	2238022	ORIENT_END	n/a	n/a	n/a	n/a	-999	18	[0, 0, 0]	n/a	catFR1	0	R1351M
103847.971	0.822	2238023	ENCODING_START	n/a	n/a	n/a	n/a	-999	18	[0, 0, 0]	n/a	catFR1	0	R1351M
103848.793	1.628	2238845	WORD	n/a	wordpools/wordpool_categorized_EN.txt	PIG	FarmAnimals	1	18	[0, 0, 0]	n/a	catFR1	0	R1351M
103850.421	0.892	2240473	WORD_OFF	n/a	n/a	PIG	FarmAnimals	1	18	[0, 0, 0]	n/a	catFR1	0	R1351M
103851.313	1.625	2241365	WORD	n/a	wordpools/wordpool_categorized_EN.txt	HEN	FarmAnimals	2	18	[0, 0, 0]	n/a	catFR1	0	R1351M
103852.938	1.087	2242990	WORD_OFF	n/a	n/a	HEN	FarmAnimals	2	18	[0, 0, 0]	n/a	catFR1	0	R1351M
103854.025	1.63	2244077	WORD	n/a	wordpools/wordpool_categorized_EN.txt	VIOLIN	Instruments	3	18	[0, 0, 0]	n/a	catFR1	0	R1351M
103855.655	0.989	2245707	WORD_OFF	n/a	n/a	VIOLIN	Instruments	3	18	[0, 0, 0]	n/a	catFR1	0	R1351M
103856.644	1.628	2246696	WORD	n/a	wordpools/wordpool_categorized_EN.txt	PIANO	Instruments	4	18	[0, 0, 0]	n/a	catFR1	0	R1351M
103858.272	1.127	2248323	WORD_OFF	n/a	n/a	PIANO	Instruments	4	18	[0, 0, 0]	n/a	catFR1	0	R1351M
103859.399	1.624	2249450	WORD	n/a	wordpools/wordpool_categorized_EN.txt	HAMMER	Tools	5	18	[0, 0, 0]	n/a	catFR1	0	R1351M
103861.023	1.112	2251074	WORD_OFF	n/a	n/a	HAMMER	Tools	5	18	[0, 0, 0]	n/a	catFR1	0	R1351M
103862.135	1.622	2252186	WORD	n/a	wordpools/wordpool_categorized_EN.txt	LEVEL	Tools	6	18	[0, 0, 0]	n/a	catFR1	0	R1351M
103863.757	0.767	2253808	WORD_OFF	n/a	n/a	LEVEL	Tools	6	18	[0, 0, 0]	n/a	catFR1	0	R1351M
103864.524	1.633	2254575	WORD	n/a	wordpools/wordpool_categorized_EN.txt	BASS	Instruments	7	18	[0, 0, 0]	n/a	catFR1	0	R1351M
103866.157	0.772	2256208	WORD_OFF	n/a	n/a	BASS	Instruments	7	18	[0, 0, 0]	n/a	catFR1	0	R1351M
103866.929	1.629	2256980	WORD	n/a	wordpools/wordpool_categorized_EN.txt	GUITAR	Instruments	8	18	[0, 0, 0]	n/a	catFR1	0	R1351M
103868.558	1.091	2258609	WORD_OFF	n/a	n/a	GUITAR	Instruments	8	18	[0, 0, 0]	n/a	catFR1	0	R1351M
103869.649	1.626	2259700	WORD	n/a	wordpools/wordpool_categorized_EN.txt	TURKEY	FarmAnimals	9	18	[0, 0, 0]	n/a	catFR1	0	R1351M
103871.275	0.769	2261326	WORD_OFF	n/a	n/a	TURKEY	FarmAnimals	9	18	[0, 0, 0]	n/a	catFR1	0	R1351M
103872.044	1.631	2262095	WORD	n/a	wordpools/wordpool_categorized_EN.txt	ROOSTER	FarmAnimals	10	18	[0, 0, 0]	n/a	catFR1	0	R1351M
103873.675	0.991	2263726	WORD_OFF	n/a	n/a	ROOSTER	FarmAnimals	10	18	[0, 0, 0]	n/a	catFR1	0	R1351M
103874.666	1.626	2264717	WORD	n/a	wordpools/wordpool_categorized_EN.txt	AXE	Tools	11	18	[0, 0, 0]	n/a	catFR1	0	R1351M
103876.292	1.136	2266343	WORD_OFF	n/a	n/a	AXE	Tools	11	18	[0, 0, 0]	n/a	catFR1	0	R1351M
103877.428	1.632	2267479	WORD	n/a	wordpools/wordpool_categorized_EN.txt	SCREWDRIVER	Tools	12	18	[0, 0, 0]	n/a	catFR1	0	R1351M
103879.06	0.0	2269110	WORD_OFF	n/a	n/a	SCREWDRIVER	Tools	12	18	[0, 0, 0]	n/a	catFR1	0	R1351M
