onset	duration	sample	trial_type	response_time	stim_file	item_name	category	serialpos	list	test	answer	experiment	session	subject
0.0	294.5	832	INSTRUCT_START	n/a	n/a	n/a	n/a	-999	-999	[0, 0, 0]	n/a	catFR1	1	R1330D
294.5	2.817	295317	INSTRUCT_END	n/a	n/a	n/a	n/a	-999	-999	[0, 0, 0]	n/a	catFR1	1	R1330D
297.317	8.012	298134	MIC TEST_START	n/a	n/a	n/a	n/a	-999	-999	[0, 0, 0]	n/a	catFR1	1	R1330D
305.329	0.013	306145	MIC TEST_END	n/a	n/a	n/a	n/a	-999	-999	[0, 0, 0]	n/a	catFR1	1	R1330D
305.342	0.0	306158	TRIAL_START	n/a	n/a	n/a	n/a	-999	-1	[0, 0, 0]	n/a	catFR1	1	R1330D
305.342	0.0	306158	TRIAL	n/a	n/a	n/a	n/a	-999	-1	[0, 0, 0]	n/a	catFR1	1	R1330D
305.342	1.877	306158	WAITING_START	n/a	n/a	n/a	n/a	-999	-1	[0, 0, 0]	n/a	catFR1	1	R1330D
307.219	0.0	308035	WAITING_END	n/a	n/a	n/a	n/a	-999	-1	[0, 0, 0]	n/a	catFR1	1	R1330D
307.219	10.428	308035	COUNTDOWN_START	n/a	n/a	n/a	n/a	-999	-1	[0, 0, 0]	n/a	catFR1	1	R1330D
317.647	0.001	318463	COUNTDOWN_END	n/a	n/a	n/a	n/a	-999	-1	[0, 0, 0]	n/a	catFR1	1	R1330D
317.648	1.073	318464	ORIENT_START	n/a	n/a	n/a	n/a	-999	-1	[0, 0, 0]	n/a	catFR1	1	R1330D
318.721	0.0	319537	ORIENT_END	n/a	n/a	n/a	n/a	-999	-1	[0, 0, 0]	n/a	catFR1	1	R1330D
318.721	0.894	319537	ENCODING_START	n/a	n/a	n/a	n/a	-999	-1	[0, 0, 0]	n/a	catFR1	1	R1330D
319.615	1.623	320431	WORD	n/a	n/a	WOOL	n/a	1	-1	[0, 0, 0]	n/a	catFR1	1	R1330D
321.238	1.091	322054	WORD_OFF	n/a	n/a	WOOL	n/a	1	-1	[0, 0, 0]	n/a	catFR1	1	R1330D
322.329	1.626	323144	WORD	n/a	n/a	SILK	n/a	2	-1	[0, 0, 0]	n/a	catFR1	1	R1330D
323.955	0.902	324770	WORD_OFF	n/a	n/a	SILK	n/a	2	-1	[0, 0, 0]	n/a	catFR1	1	R1330D
324.857	1.632	325672	WORD	n/a	n/a	MINUTE	n/a	3	-1	[0, 0, 0]	n/a	catFR1	1	R1330D
326.489	1.031	327304	WORD_OFF	n/a	n/a	MINUTE	n/a	3	-1	[0, 0, 0]	n/a	catFR1	1	R1330D
327.52	1.636	328335	WORD	n/a	n/a	LEATHER	n/a	4	-1	[0, 0, 0]	n/a	catFR1	1	R1330D
329.156	0.852	329971	WORD_OFF	n/a	n/a	LEATHER	n/a	4	-1	[0, 0, 0]	n/a	catFR1	1	R1330D
330.008	1.632	330823	WORD	n/a	n/a	TEACHER	n/a	5	-1	[0, 0, 0]	n/a	catFR1	1	R1330D
331.64	0.851	332455	WORD_OFF	n/a	n/a	TEACHER	n/a	5	-1	[0, 0, 0]	n/a	catFR1	1	R1330D
332.491	1.633	333306	WORD	n/a	n/a	DAY	n/a	6	-1	[0, 0, 0]	n/a	catFR1	1	R1330D
334.124	0.768	334939	WORD_OFF	n/a	n/a	DAY	n/a	6	-1	[0, 0, 0]	n/a	catFR1	1	R1330D
334.892	1.632	335707	WORD	n/a	n/a	PLUMBER	n/a	7	-1	[0, 0, 0]	n/a	catFR1	1	R1330D
336.524	1.048	337339	WORD_OFF	n/a	n/a	PLUMBER	n/a	7	-1	[0, 0, 0]	n/a	catFR1	1	R1330D
337.572	1.636	338387	WORD	n/a	n/a	DENIM	n/a	8	-1	[0, 0, 0]	n/a	catFR1	1	R1330D
339.208	0.939	340023	WORD_OFF	n/a	n/a	DENIM	n/a	8	-1	[0, 0, 0]	n/a	catFR1	1	R1330D
340.147	1.629	340962	WORD	n/a	n/a	HOUR	n/a	9	-1	[0, 0, 0]	n/a	catFR1	1	R1330D
341.776	0.902	342590	WORD_OFF	n/a	n/a	HOUR	n/a	9	-1	[0, 0, 0]	n/a	catFR1	1	R1330D
342.678	1.631	343492	WORD	n/a	n/a	FIREMAN	n/a	10	-1	[0, 0, 0]	n/a	catFR1	1	R1330D
344.309	0.768	345123	WORD_OFF	n/a	n/a	FIREMAN	n/a	10	-1	[0, 0, 0]	n/a	catFR1	1	R1330D
345.077	1.632	345891	WORD	n/a	n/a	FARMER	n/a	11	-1	[0, 0, 0]	n/a	catFR1	1	R1330D
346.709	0.849	347523	WORD_OFF	n/a	n/a	FARMER	n/a	11	-1	[0, 0, 0]	n/a	catFR1	1	R1330D
347.558	1.635	348372	WORD	n/a	n/a	SECOND	n/a	12	-1	[0, 0, 0]	n/a	catFR1	1	R1330D
349.193	0.0	350007	WORD_OFF	n/a	n/a	SECOND	n/a	12	-1	[0, 0, 0]	n/a	catFR1	1	R1330D
349.193	0.001	350007	ENCODING_END	n/a	n/a	n/a	n/a	-999	-1	[0, 0, 0]	n/a	catFR1	1	R1330D
349.194	0.0	350008	DISTRACT_START	n/a	n/a	n/a	n/a	-999	-1	[0, 0, 0]	n/a	catFR1	1	R1330D
349.194	0.015	350008	START	n/a	n/a	n/a	n/a	-999	-1	[-999, -999, -999]	n/a	catFR1	1	R1330D
349.209	6.435	350023	PROB	6.435	n/a	n/a	n/a	-999	-1	[4, 2, 7]	13	catFR1	1	R1330D
355.644	6.551	356458	PROB	6.551	n/a	n/a	n/a	-999	-1	[9, 7, 3]	19	catFR1	1	R1330D
362.195	4.934	363008	PROB	4.934	n/a	n/a	n/a	-999	-1	[6, 5, 5]	16	catFR1	1	R1330D
367.129	4.081	367942	PROB	4.081	n/a	n/a	n/a	-999	-1	[2, 1, 1]	4	catFR1	1	R1330D
371.21	0.02	372023	STOP	n/a	n/a	n/a	n/a	-999	-1	[-999, -999, -999]	n/a	catFR1	1	R1330D
371.23	0.607	372043	DISTRACT_END	n/a	n/a	n/a	n/a	-999	-1	[0, 0, 0]	n/a	catFR1	1	R1330D
371.837	1.677	372650	RETRIEVAL_ORIENT_START	n/a	n/a	n/a	n/a	-999	-1	[0, 0, 0]	n/a	catFR1	1	R1330D
373.514	0.0	374327	RETRIEVAL_ORIENT_END	n/a	n/a	n/a	n/a	-999	-1	[0, 0, 0]	n/a	catFR1	1	R1330D
373.514	0.0	374327	REC_START	n/a	n/a	n/a	n/a	-999	-1	[0, 0, 0]	n/a	catFR1	1	R1330D
373.514	30.013	374327	REC_WORD_VV	30.013	n/a	<>	n/a	-999	-1	[0, 0, 0]	n/a	catFR1	1	R1330D
403.527	0.0	404338	REC_END	n/a	n/a	n/a	n/a	-999	-1	[0, 0, 0]	n/a	catFR1	1	R1330D
403.527	6.361	404338	PRACTICE_POST_INSTRUCT_START	n/a	n/a	n/a	n/a	-999	-1	[0, 0, 0]	n/a	catFR1	1	R1330D
409.888	0.0	410699	PRACTICE_POST_INSTRUCT_END	n/a	n/a	n/a	n/a	-999	-1	[0, 0, 0]	n/a	catFR1	1	R1330D
409.888	0.025	410699	TRIAL_END	n/a	n/a	n/a	n/a	-999	-1	[0, 0, 0]	n/a	catFR1	1	R1330D
409.913	0.0	410724	WAITING_START	n/a	n/a	n/a	n/a	-999	1	[0, 0, 0]	n/a	catFR1	1	R1330D
409.913	0.0	410724	TRIAL	n/a	n/a	n/a	n/a	-999	1	[0, 0, 0]	n/a	catFR1	1	R1330D
409.913	2.492	410724	TRIAL_START	n/a	n/a	n/a	n/a	-999	1	[0, 0, 0]	n/a	catFR1	1	R1330D
412.405	0.0	413216	WAITING_END	n/a	n/a	n/a	n/a	-999	1	[0, 0, 0]	n/a	catFR1	1	R1330D
412.405	10.43	413216	COUNTDOWN_START	n/a	n/a	n/a	n/a	-999	1	[0, 0, 0]	n/a	catFR1	1	R1330D
422.835	0.0	423645	COUNTDOWN_END	n/a	n/a	n/a	n/a	-999	1	[0, 0, 0]	n/a	catFR1	1	R1330D
422.835	1.122	423645	ORIENT_START	n/a	n/a	n/a	n/a	-999	1	[0, 0, 0]	n/a	catFR1	1	R1330D
423.957	0.0	424767	ORIENT_END	n/a	n/a	n/a	n/a	-999	1	[0, 0, 0]	n/a	catFR1	1	R1330D
423.957	1.066	424767	ENCODING_START	n/a	n/a	n/a	n/a	-999	1	[0, 0, 0]	n/a	catFR1	1	R1330D
425.023	1.634	425833	WORD	n/a	wordpools/wordpool_categorized_EN.txt	JEANS	Clothing	1	1	[0, 0, 0]	n/a	catFR1	1	R1330D
426.657	1.07	427467	WORD_OFF	n/a	n/a	JEANS	Clothing	1	1	[0, 0, 0]	n/a	catFR1	1	R1330D
427.727	1.631	428537	WORD	n/a	wordpools/wordpool_categorized_EN.txt	BLOUSE	Clothing	2	1	[0, 0, 0]	n/a	catFR1	1	R1330D
429.358	1.129	430168	WORD_OFF	n/a	n/a	BLOUSE	Clothing	2	1	[0, 0, 0]	n/a	catFR1	1	R1330D
430.487	1.638	431297	WORD	n/a	wordpools/wordpool_categorized_EN.txt	SPATULA	KitchenTools	3	1	[0, 0, 0]	n/a	catFR1	1	R1330D
432.125	1.007	432935	WORD_OFF	n/a	n/a	SPATULA	KitchenTools	3	1	[0, 0, 0]	n/a	catFR1	1	R1330D
433.132	1.628	433942	WORD	n/a	wordpools/wordpool_categorized_EN.txt	KNIFE	KitchenTools	4	1	[0, 0, 0]	n/a	catFR1	1	R1330D
434.76	1.029	435570	WORD_OFF	n/a	n/a	KNIFE	KitchenTools	4	1	[0, 0, 0]	n/a	catFR1	1	R1330D
435.789	1.637	436599	WORD	n/a	wordpools/wordpool_categorized_EN.txt	PANDA	Zoo	5	1	[0, 0, 0]	n/a	catFR1	1	R1330D
437.426	1.1	438236	WORD_OFF	n/a	n/a	PANDA	Zoo	5	1	[0, 0, 0]	n/a	catFR1	1	R1330D
438.526	1.633	439336	WORD	n/a	wordpools/wordpool_categorized_EN.txt	GORILLA	Zoo	6	1	[0, 0, 0]	n/a	catFR1	1	R1330D
440.159	1.063	440969	WORD_OFF	n/a	n/a	GORILLA	Zoo	6	1	[0, 0, 0]	n/a	catFR1	1	R1330D
441.222	1.638	442032	WORD	n/a	wordpools/wordpool_categorized_EN.txt	TONGS	KitchenTools	7	1	[0, 0, 0]	n/a	catFR1	1	R1330D
442.86	1.057	443669	WORD_OFF	n/a	n/a	TONGS	KitchenTools	7	1	[0, 0, 0]	n/a	catFR1	1	R1330D
443.917	1.627	444726	WORD	n/a	wordpools/wordpool_categorized_EN.txt	WHISK	KitchenTools	8	1	[0, 0, 0]	n/a	catFR1	1	R1330D
445.544	1.024	446353	WORD_OFF	n/a	n/a	WHISK	KitchenTools	8	1	[0, 0, 0]	n/a	catFR1	1	R1330D
446.568	1.626	447377	WORD	n/a	wordpools/wordpool_categorized_EN.txt	BEAR	Zoo	9	1	[0, 0, 0]	n/a	catFR1	1	R1330D
448.194	0.895	449003	WORD_OFF	n/a	n/a	BEAR	Zoo	9	1	[0, 0, 0]	n/a	catFR1	1	R1330D
449.089	1.622	449898	WORD	n/a	wordpools/wordpool_categorized_EN.txt	ZEBRA	Zoo	10	1	[0, 0, 0]	n/a	catFR1	1	R1330D
450.711	0.939	451520	WORD_OFF	n/a	n/a	ZEBRA	Zoo	10	1	[0, 0, 0]	n/a	catFR1	1	R1330D
451.65	1.629	452459	WORD	n/a	wordpools/wordpool_categorized_EN.txt	SHORTS	Clothing	11	1	[0, 0, 0]	n/a	catFR1	1	R1330D
453.279	0.8	454088	WORD_OFF	n/a	n/a	SHORTS	Clothing	11	1	[0, 0, 0]	n/a	catFR1	1	R1330D
454.079	1.633	454888	WORD	n/a	wordpools/wordpool_categorized_EN.txt	JACKET	Clothing	12	1	[0, 0, 0]	n/a	catFR1	1	R1330D
455.712	0.001	456521	WORD_OFF	n/a	n/a	JACKET	Clothing	12	1	[0, 0, 0]	n/a	catFR1	1	R1330D
455.713	0.0	456522	ENCODING_END	n/a	n/a	n/a	n/a	-999	1	[0, 0, 0]	n/a	catFR1	1	R1330D
455.713	0.001	456522	DISTRACT_START	n/a	n/a	n/a	n/a	-999	1	[0, 0, 0]	n/a	catFR1	1	R1330D
455.714	0.015	456523	START	n/a	n/a	n/a	n/a	-999	1	[-999, -999, -999]	n/a	catFR1	1	R1330D
455.729	5.751	456538	PROB	5.751	n/a	n/a	n/a	-999	1	[7, 1, 7]	15	catFR1	1	R1330D
461.48	4.084	462289	PROB	4.084	n/a	n/a	n/a	-999	1	[4, 1, 1]	6	catFR1	1	R1330D
465.564	5.601	466372	PROB	5.601	n/a	n/a	n/a	-999	1	[8, 6, 7]	20	catFR1	1	R1330D
471.165	6.385	471973	PROB	6.385	n/a	n/a	n/a	-999	1	[8, 3, 5]	16	catFR1	1	R1330D
477.55	0.016	478358	STOP	n/a	n/a	n/a	n/a	-999	1	[-999, -999, -999]	n/a	catFR1	1	R1330D
477.566	0.635	478374	DISTRACT_END	n/a	n/a	n/a	n/a	-999	1	[0, 0, 0]	n/a	catFR1	1	R1330D
478.201	1.649	479009	RETRIEVAL_ORIENT_START	n/a	n/a	n/a	n/a	-999	1	[0, 0, 0]	n/a	catFR1	1	R1330D
479.85	0.0	480658	RETRIEVAL_ORIENT_END	n/a	n/a	n/a	n/a	-999	1	[0, 0, 0]	n/a	catFR1	1	R1330D
479.85	2.439	480658	REC_START	n/a	n/a	n/a	n/a	-999	1	[0, 0, 0]	n/a	catFR1	1	R1330D
482.289	3.739	483096	REC_WORD	3.739	n/a	DENIM	n/a	-999	1	[0, 0, 0]	n/a	catFR1	1	R1330D
486.028	2.531	486835	REC_WORD	2.531	n/a	SPATULA	KitchenTools	3	1	[0, 0, 0]	n/a	catFR1	1	R1330D
488.559	3.446	489366	REC_WORD	3.446	n/a	TONGS	KitchenTools	7	1	[0, 0, 0]	n/a	catFR1	1	R1330D
492.005	3.06	492812	REC_WORD	3.06	n/a	BEAR	Zoo	9	1	[0, 0, 0]	n/a	catFR1	1	R1330D
495.065	9.267	495872	REC_WORD	9.267	n/a	ZEBRA	Zoo	10	1	[0, 0, 0]	n/a	catFR1	1	R1330D
504.332	1.0	505138	REC_WORD_VV	1.0	n/a	<>	n/a	-999	1	[0, 0, 0]	n/a	catFR1	1	R1330D
505.332	4.53	506138	REC_WORD_VV	4.53	n/a	<>	n/a	-999	1	[0, 0, 0]	n/a	catFR1	1	R1330D
509.862	0.001	510668	REC_END	n/a	n/a	n/a	n/a	-999	1	[0, 0, 0]	n/a	catFR1	1	R1330D
509.863	0.021	510669	TRIAL_END	n/a	n/a	n/a	n/a	-999	1	[0, 0, 0]	n/a	catFR1	1	R1330D
509.884	0.0	510690	TRIAL_START	n/a	n/a	n/a	n/a	-999	2	[0, 0, 0]	n/a	catFR1	1	R1330D
509.884	0.001	510690	TRIAL	n/a	n/a	n/a	n/a	-999	2	[0, 0, 0]	n/a	catFR1	1	R1330D
509.885	5.338	510691	WAITING_START	n/a	n/a	n/a	n/a	-999	2	[0, 0, 0]	n/a	catFR1	1	R1330D
515.223	0.001	516029	WAITING_END	n/a	n/a	n/a	n/a	-999	2	[0, 0, 0]	n/a	catFR1	1	R1330D
515.224	10.428	516030	COUNTDOWN_START	n/a	n/a	n/a	n/a	-999	2	[0, 0, 0]	n/a	catFR1	1	R1330D
525.652	0.001	526457	COUNTDOWN_END	n/a	n/a	n/a	n/a	-999	2	[0, 0, 0]	n/a	catFR1	1	R1330D
525.653	1.173	526458	ORIENT_START	n/a	n/a	n/a	n/a	-999	2	[0, 0, 0]	n/a	catFR1	1	R1330D
526.826	0.001	527631	ORIENT_END	n/a	n/a	n/a	n/a	-999	2	[0, 0, 0]	n/a	catFR1	1	R1330D
526.827	1.069	527632	ENCODING_START	n/a	n/a	n/a	n/a	-999	2	[0, 0, 0]	n/a	catFR1	1	R1330D
527.896	1.63	528701	WORD	n/a	wordpools/wordpool_categorized_EN.txt	COOKIE	Desserts	1	2	[0, 0, 0]	n/a	catFR1	1	R1330D
529.526	0.891	530331	WORD_OFF	n/a	n/a	COOKIE	Desserts	1	2	[0, 0, 0]	n/a	catFR1	1	R1330D
530.417	1.626	531222	WORD	n/a	wordpools/wordpool_categorized_EN.txt	COBBLER	Desserts	2	2	[0, 0, 0]	n/a	catFR1	1	R1330D
532.043	1.143	532848	WORD_OFF	n/a	n/a	COBBLER	Desserts	2	2	[0, 0, 0]	n/a	catFR1	1	R1330D
533.186	1.625	533991	WORD	n/a	wordpools/wordpool_categorized_EN.txt	ISLAND	Landscapes	3	2	[0, 0, 0]	n/a	catFR1	1	R1330D
534.811	0.83	535616	WORD_OFF	n/a	n/a	ISLAND	Landscapes	3	2	[0, 0, 0]	n/a	catFR1	1	R1330D
535.641	1.636	536446	WORD	n/a	wordpools/wordpool_categorized_EN.txt	FOREST	Landscapes	4	2	[0, 0, 0]	n/a	catFR1	1	R1330D
537.277	1.02	538082	WORD_OFF	n/a	n/a	FOREST	Landscapes	4	2	[0, 0, 0]	n/a	catFR1	1	R1330D
538.297	1.631	539102	WORD	n/a	wordpools/wordpool_categorized_EN.txt	DOLLHOUSE	Toys	5	2	[0, 0, 0]	n/a	catFR1	1	R1330D
539.928	1.044	540733	WORD_OFF	n/a	n/a	DOLLHOUSE	Toys	5	2	[0, 0, 0]	n/a	catFR1	1	R1330D
540.972	1.623	541777	WORD	n/a	wordpools/wordpool_categorized_EN.txt	MARBLES	Toys	6	2	[0, 0, 0]	n/a	catFR1	1	R1330D
542.595	0.909	543399	WORD_OFF	n/a	n/a	MARBLES	Toys	6	2	[0, 0, 0]	n/a	catFR1	1	R1330D
543.504	1.625	544308	WORD	n/a	wordpools/wordpool_categorized_EN.txt	FUDGE	Desserts	7	2	[0, 0, 0]	n/a	catFR1	1	R1330D
545.129	1.136	545933	WORD_OFF	n/a	n/a	FUDGE	Desserts	7	2	[0, 0, 0]	n/a	catFR1	1	R1330D
546.265	1.631	547069	WORD	n/a	wordpools/wordpool_categorized_EN.txt	PIE	Desserts	8	2	[0, 0, 0]	n/a	catFR1	1	R1330D
547.896	0.86	548700	WORD_OFF	n/a	n/a	PIE	Desserts	8	2	[0, 0, 0]	n/a	catFR1	1	R1330D
548.756	1.624	549560	WORD	n/a	wordpools/wordpool_categorized_EN.txt	VALLEY	Landscapes	9	2	[0, 0, 0]	n/a	catFR1	1	R1330D
550.38	0.903	551184	WORD_OFF	n/a	n/a	VALLEY	Landscapes	9	2	[0, 0, 0]	n/a	catFR1	1	R1330D
551.283	1.63	552087	WORD	n/a	wordpools/wordpool_categorized_EN.txt	HILLS	Landscapes	10	2	[0, 0, 0]	n/a	catFR1	1	R1330D
552.913	0.837	553717	WORD_OFF	n/a	n/a	HILLS	Landscapes	10	2	[0, 0, 0]	n/a	catFR1	1	R1330D
553.75	1.63	554554	WORD	n/a	wordpools/wordpool_categorized_EN.txt	DOLL	Toys	11	2	[0, 0, 0]	n/a	catFR1	1	R1330D
555.38	0.778	556184	WORD_OFF	n/a	n/a	DOLL	Toys	11	2	[0, 0, 0]	n/a	catFR1	1	R1330D
556.158	1.624	556962	WORD	n/a	wordpools/wordpool_categorized_EN.txt	BARBIE	Toys	12	2	[0, 0, 0]	n/a	catFR1	1	R1330D
557.782	0.0	558586	DISTRACT_START	n/a	n/a	n/a	n/a	-999	2	[0, 0, 0]	n/a	catFR1	1	R1330D
557.782	0.0	558586	ENCODING_END	n/a	n/a	n/a	n/a	-999	2	[0, 0, 0]	n/a	catFR1	1	R1330D
557.782	0.001	558586	WORD_OFF	n/a	n/a	BARBIE	Toys	12	2	[0, 0, 0]	n/a	catFR1	1	R1330D
557.783	0.015	558587	START	n/a	n/a	n/a	n/a	-999	2	[-999, -999, -999]	n/a	catFR1	1	R1330D
557.798	6.267	558602	PROB	6.267	n/a	n/a	n/a	-999	2	[9, 2, 6]	17	catFR1	1	R1330D
564.065	5.785	564868	PROB	5.785	n/a	n/a	n/a	-999	2	[2, 4, 4]	10	catFR1	1	R1330D
569.85	5.467	570653	PROB	5.467	n/a	n/a	n/a	-999	2	[9, 2, 6]	15	catFR1	1	R1330D
575.317	11.785	576120	PROB	11.785	n/a	n/a	n/a	-999	2	[3, 8, 7]	18	catFR1	1	R1330D
587.102	0.017	587904	STOP	n/a	n/a	n/a	n/a	-999	2	[-999, -999, -999]	n/a	catFR1	1	R1330D
587.119	0.638	587921	DISTRACT_END	n/a	n/a	n/a	n/a	-999	2	[0, 0, 0]	n/a	catFR1	1	R1330D
587.757	1.713	588559	RETRIEVAL_ORIENT_START	n/a	n/a	n/a	n/a	-999	2	[0, 0, 0]	n/a	catFR1	1	R1330D
589.47	0.0	590272	RETRIEVAL_ORIENT_END	n/a	n/a	n/a	n/a	-999	2	[0, 0, 0]	n/a	catFR1	1	R1330D
589.47	1.157	590272	REC_START	n/a	n/a	n/a	n/a	-999	2	[0, 0, 0]	n/a	catFR1	1	R1330D
590.627	1.478	591429	REC_WORD_VV	1.478	n/a	<>	n/a	-999	2	[0, 0, 0]	n/a	catFR1	1	R1330D
592.105	0.509	592907	REC_WORD	0.509	n/a	PIE	Desserts	8	2	[0, 0, 0]	n/a	catFR1	1	R1330D
592.614	7.749	593416	REC_WORD	7.749	n/a	COBBLER	Desserts	2	2	[0, 0, 0]	n/a	catFR1	1	R1330D
600.363	1.157	601165	REC_WORD	1.157	n/a	BARBIE	Toys	12	2	[0, 0, 0]	n/a	catFR1	1	R1330D
601.52	4.62	602322	REC_WORD	4.62	n/a	DOLLHOUSE	Toys	5	2	[0, 0, 0]	n/a	catFR1	1	R1330D
606.14	13.345	606941	REC_WORD	13.345	n/a	MARBLES	Toys	6	2	[0, 0, 0]	n/a	catFR1	1	R1330D
619.485	0.0	620286	REC_END	n/a	n/a	n/a	n/a	-999	2	[0, 0, 0]	n/a	catFR1	1	R1330D
619.485	0.025	620286	TRIAL_END	n/a	n/a	n/a	n/a	-999	2	[0, 0, 0]	n/a	catFR1	1	R1330D
619.51	0.0	620311	TRIAL_START	n/a	n/a	n/a	n/a	-999	3	[0, 0, 0]	n/a	catFR1	1	R1330D
619.51	0.0	620311	TRIAL	n/a	n/a	n/a	n/a	-999	3	[0, 0, 0]	n/a	catFR1	1	R1330D
619.51	2.649	620311	WAITING_START	n/a	n/a	n/a	n/a	-999	3	[0, 0, 0]	n/a	catFR1	1	R1330D
622.159	0.001	622959	WAITING_END	n/a	n/a	n/a	n/a	-999	3	[0, 0, 0]	n/a	catFR1	1	R1330D
622.16	10.428	622960	COUNTDOWN_START	n/a	n/a	n/a	n/a	-999	3	[0, 0, 0]	n/a	catFR1	1	R1330D
632.588	0.001	633388	COUNTDOWN_END	n/a	n/a	n/a	n/a	-999	3	[0, 0, 0]	n/a	catFR1	1	R1330D
632.589	1.089	633389	ORIENT_START	n/a	n/a	n/a	n/a	-999	3	[0, 0, 0]	n/a	catFR1	1	R1330D
633.678	0.0	634478	ORIENT_END	n/a	n/a	n/a	n/a	-999	3	[0, 0, 0]	n/a	catFR1	1	R1330D
633.678	0.837	634478	ENCODING_START	n/a	n/a	n/a	n/a	-999	3	[0, 0, 0]	n/a	catFR1	1	R1330D
634.515	1.63	635315	WORD	n/a	wordpools/wordpool_categorized_EN.txt	BEER	Beverages	1	3	[0, 0, 0]	n/a	catFR1	1	R1330D
636.145	0.826	636945	WORD_OFF	n/a	n/a	BEER	Beverages	1	3	[0, 0, 0]	n/a	catFR1	1	R1330D
636.971	1.625	637771	WORD	n/a	wordpools/wordpool_categorized_EN.txt	LEMONADE	Beverages	2	3	[0, 0, 0]	n/a	catFR1	1	R1330D
638.596	1.077	639396	WORD_OFF	n/a	n/a	LEMONADE	Beverages	2	3	[0, 0, 0]	n/a	catFR1	1	R1330D
639.673	1.623	640473	WORD	n/a	wordpools/wordpool_categorized_EN.txt	BALL	Toys	3	3	[0, 0, 0]	n/a	catFR1	1	R1330D
641.296	1.012	642096	WORD_OFF	n/a	n/a	BALL	Toys	3	3	[0, 0, 0]	n/a	catFR1	1	R1330D
642.308	1.639	643107	WORD	n/a	wordpools/wordpool_categorized_EN.txt	FRISBEE	Toys	4	3	[0, 0, 0]	n/a	catFR1	1	R1330D
643.947	0.864	644746	WORD_OFF	n/a	n/a	FRISBEE	Toys	4	3	[0, 0, 0]	n/a	catFR1	1	R1330D
644.811	1.636	645610	WORD	n/a	wordpools/wordpool_categorized_EN.txt	PEAS	Vegetables	5	3	[0, 0, 0]	n/a	catFR1	1	R1330D
646.447	0.92	647246	WORD_OFF	n/a	n/a	PEAS	Vegetables	5	3	[0, 0, 0]	n/a	catFR1	1	R1330D
647.367	1.63	648166	WORD	n/a	wordpools/wordpool_categorized_EN.txt	CORN	Vegetables	6	3	[0, 0, 0]	n/a	catFR1	1	R1330D
648.997	0.806	649796	WORD_OFF	n/a	n/a	CORN	Vegetables	6	3	[0, 0, 0]	n/a	catFR1	1	R1330D
649.803	1.628	650602	WORD	n/a	wordpools/wordpool_categorized_EN.txt	WATER	Beverages	7	3	[0, 0, 0]	n/a	catFR1	1	R1330D
651.431	0.972	652230	WORD_OFF	n/a	n/a	WATER	Beverages	7	3	[0, 0, 0]	n/a	catFR1	1	R1330D
652.403	1.629	653202	WORD	n/a	wordpools/wordpool_categorized_EN.txt	COFFEE	Beverages	8	3	[0, 0, 0]	n/a	catFR1	1	R1330D
654.032	0.808	654831	WORD_OFF	n/a	n/a	COFFEE	Beverages	8	3	[0, 0, 0]	n/a	catFR1	1	R1330D
654.84	1.625	655639	WORD	n/a	wordpools/wordpool_categorized_EN.txt	BASKETBALL	Toys	9	3	[0, 0, 0]	n/a	catFR1	1	R1330D
656.465	0.984	657264	WORD_OFF	n/a	n/a	BASKETBALL	Toys	9	3	[0, 0, 0]	n/a	catFR1	1	R1330D
657.449	1.634	658248	WORD	n/a	wordpools/wordpool_categorized_EN.txt	SLINKY	Toys	10	3	[0, 0, 0]	n/a	catFR1	1	R1330D
659.083	1.139	659882	WORD_OFF	n/a	n/a	SLINKY	Toys	10	3	[0, 0, 0]	n/a	catFR1	1	R1330D
660.222	1.628	661021	WORD	n/a	wordpools/wordpool_categorized_EN.txt	CELERY	Vegetables	11	3	[0, 0, 0]	n/a	catFR1	1	R1330D
661.85	0.862	662648	WORD_OFF	n/a	n/a	CELERY	Vegetables	11	3	[0, 0, 0]	n/a	catFR1	1	R1330D
662.712	1.638	663510	WORD	n/a	wordpools/wordpool_categorized_EN.txt	CUCUMBER	Vegetables	12	3	[0, 0, 0]	n/a	catFR1	1	R1330D
664.35	0.001	665148	WORD_OFF	n/a	n/a	CUCUMBER	Vegetables	12	3	[0, 0, 0]	n/a	catFR1	1	R1330D
664.351	0.0	665149	ENCODING_END	n/a	n/a	n/a	n/a	-999	3	[0, 0, 0]	n/a	catFR1	1	R1330D
664.351	0.0	665149	DISTRACT_START	n/a	n/a	n/a	n/a	-999	3	[0, 0, 0]	n/a	catFR1	1	R1330D
664.351	0.016	665149	START	n/a	n/a	n/a	n/a	-999	3	[-999, -999, -999]	n/a	catFR1	1	R1330D
664.367	7.284	665165	PROB	7.284	n/a	n/a	n/a	-999	3	[1, 7, 6]	14	catFR1	1	R1330D
671.651	7.136	672449	PROB	7.136	n/a	n/a	n/a	-999	3	[6, 5, 9]	20	catFR1	1	R1330D
678.787	7.589	679585	PROB	7.589	n/a	n/a	n/a	-999	3	[3, 2, 8]	13	catFR1	1	R1330D
686.376	0.012	687173	STOP	n/a	n/a	n/a	n/a	-999	3	[-999, -999, -999]	n/a	catFR1	1	R1330D
686.388	0.576	687185	DISTRACT_END	n/a	n/a	n/a	n/a	-999	3	[0, 0, 0]	n/a	catFR1	1	R1330D
686.964	1.607	687761	RETRIEVAL_ORIENT_START	n/a	n/a	n/a	n/a	-999	3	[0, 0, 0]	n/a	catFR1	1	R1330D
688.571	0.0	689368	RETRIEVAL_ORIENT_END	n/a	n/a	n/a	n/a	-999	3	[0, 0, 0]	n/a	catFR1	1	R1330D
688.571	2.041	689368	REC_START	n/a	n/a	n/a	n/a	-999	3	[0, 0, 0]	n/a	catFR1	1	R1330D
690.612	1.731	691409	REC_WORD	1.731	n/a	CUCUMBER	Vegetables	12	3	[0, 0, 0]	n/a	catFR1	1	R1330D
692.343	7.31	693140	REC_WORD	7.31	n/a	CELERY	Vegetables	11	3	[0, 0, 0]	n/a	catFR1	1	R1330D
699.653	1.407	700450	REC_WORD	1.407	n/a	BASKETBALL	Toys	9	3	[0, 0, 0]	n/a	catFR1	1	R1330D
701.06	10.02	701857	REC_WORD	10.02	n/a	SLINKY	Toys	10	3	[0, 0, 0]	n/a	catFR1	1	R1330D
711.08	0.669	711876	REC_WORD	0.669	n/a	BEER	Beverages	1	3	[0, 0, 0]	n/a	catFR1	1	R1330D
711.749	5.555	712545	REC_WORD	5.555	n/a	LEMONADE	Beverages	2	3	[0, 0, 0]	n/a	catFR1	1	R1330D
717.304	1.28	718100	REC_WORD	1.28	n/a	WATER	Beverages	7	3	[0, 0, 0]	n/a	catFR1	1	R1330D
718.584	0.0	719380	TRIAL_END	n/a	n/a	n/a	n/a	-999	3	[0, 0, 0]	n/a	catFR1	1	R1330D
718.584	0.024	719380	REC_END	n/a	n/a	n/a	n/a	-999	3	[0, 0, 0]	n/a	catFR1	1	R1330D
718.608	0.0	719404	TRIAL_START	n/a	n/a	n/a	n/a	-999	4	[0, 0, 0]	n/a	catFR1	1	R1330D
718.608	0.0	719404	TRIAL	n/a	n/a	n/a	n/a	-999	4	[0, 0, 0]	n/a	catFR1	1	R1330D
718.608	3.086	719404	WAITING_START	n/a	n/a	n/a	n/a	-999	4	[0, 0, 0]	n/a	catFR1	1	R1330D
721.694	0.001	722490	WAITING_END	n/a	n/a	n/a	n/a	-999	4	[0, 0, 0]	n/a	catFR1	1	R1330D
721.695	10.429	722491	COUNTDOWN_START	n/a	n/a	n/a	n/a	-999	4	[0, 0, 0]	n/a	catFR1	1	R1330D
732.124	0.0	732919	COUNTDOWN_END	n/a	n/a	n/a	n/a	-999	4	[0, 0, 0]	n/a	catFR1	1	R1330D
732.124	1.055	732919	ORIENT_START	n/a	n/a	n/a	n/a	-999	4	[0, 0, 0]	n/a	catFR1	1	R1330D
733.179	0.001	733974	ORIENT_END	n/a	n/a	n/a	n/a	-999	4	[0, 0, 0]	n/a	catFR1	1	R1330D
733.18	1.014	733975	ENCODING_START	n/a	n/a	n/a	n/a	-999	4	[0, 0, 0]	n/a	catFR1	1	R1330D
734.194	1.636	734989	WORD	n/a	wordpools/wordpool_categorized_EN.txt	LAMB	FarmAnimals	1	4	[0, 0, 0]	n/a	catFR1	1	R1330D
735.83	0.989	736625	WORD_OFF	n/a	n/a	LAMB	FarmAnimals	1	4	[0, 0, 0]	n/a	catFR1	1	R1330D
736.819	1.628	737614	WORD	n/a	wordpools/wordpool_categorized_EN.txt	HORSE	FarmAnimals	2	4	[0, 0, 0]	n/a	catFR1	1	R1330D
738.447	0.957	739242	WORD_OFF	n/a	n/a	HORSE	FarmAnimals	2	4	[0, 0, 0]	n/a	catFR1	1	R1330D
739.404	1.627	740199	WORD	n/a	wordpools/wordpool_categorized_EN.txt	WOODS	Landscapes	3	4	[0, 0, 0]	n/a	catFR1	1	R1330D
741.031	1.107	741826	WORD_OFF	n/a	n/a	WOODS	Landscapes	3	4	[0, 0, 0]	n/a	catFR1	1	R1330D
742.138	1.611	742932	WORD	n/a	wordpools/wordpool_categorized_EN.txt	OCEAN	Landscapes	4	4	[0, 0, 0]	n/a	catFR1	1	R1330D
743.749	0.8	744543	WORD_OFF	n/a	n/a	OCEAN	Landscapes	4	4	[0, 0, 0]	n/a	catFR1	1	R1330D
744.549	1.633	745343	WORD	n/a	wordpools/wordpool_categorized_EN.txt	ELEPHANT	Zoo	5	4	[0, 0, 0]	n/a	catFR1	1	R1330D
746.182	1.06	746976	WORD_OFF	n/a	n/a	ELEPHANT	Zoo	5	4	[0, 0, 0]	n/a	catFR1	1	R1330D
747.242	1.64	748036	WORD	n/a	wordpools/wordpool_categorized_EN.txt	ORANGUTAN	Zoo	6	4	[0, 0, 0]	n/a	catFR1	1	R1330D
748.882	1.035	749676	WORD_OFF	n/a	n/a	ORANGUTAN	Zoo	6	4	[0, 0, 0]	n/a	catFR1	1	R1330D
749.917	1.632	750711	WORD	n/a	wordpools/wordpool_categorized_EN.txt	HEN	FarmAnimals	7	4	[0, 0, 0]	n/a	catFR1	1	R1330D
751.549	0.875	752343	WORD_OFF	n/a	n/a	HEN	FarmAnimals	7	4	[0, 0, 0]	n/a	catFR1	1	R1330D
752.424	1.626	753218	WORD	n/a	wordpools/wordpool_categorized_EN.txt	GOAT	FarmAnimals	8	4	[0, 0, 0]	n/a	catFR1	1	R1330D
754.05	1.064	754844	WORD_OFF	n/a	n/a	GOAT	FarmAnimals	8	4	[0, 0, 0]	n/a	catFR1	1	R1330D
755.114	1.637	755908	WORD	n/a	wordpools/wordpool_categorized_EN.txt	STREAM	Landscapes	9	4	[0, 0, 0]	n/a	catFR1	1	R1330D
756.751	0.897	757545	WORD_OFF	n/a	n/a	STREAM	Landscapes	9	4	[0, 0, 0]	n/a	catFR1	1	R1330D
757.648	1.636	758442	WORD	n/a	wordpools/wordpool_categorized_EN.txt	BEACH	Landscapes	10	4	[0, 0, 0]	n/a	catFR1	1	R1330D
759.284	1.014	760078	WORD_OFF	n/a	n/a	BEACH	Landscapes	10	4	[0, 0, 0]	n/a	catFR1	1	R1330D
760.298	1.637	761092	WORD	n/a	wordpools/wordpool_categorized_EN.txt	LION	Zoo	11	4	[0, 0, 0]	n/a	catFR1	1	R1330D
761.935	1.036	762728	WORD_OFF	n/a	n/a	LION	Zoo	11	4	[0, 0, 0]	n/a	catFR1	1	R1330D
762.971	1.631	763764	WORD	n/a	wordpools/wordpool_categorized_EN.txt	MONKEY	Zoo	12	4	[0, 0, 0]	n/a	catFR1	1	R1330D
764.602	0.0	765395	WORD_OFF	n/a	n/a	MONKEY	Zoo	12	4	[0, 0, 0]	n/a	catFR1	1	R1330D
764.602	0.001	765395	ENCODING_END	n/a	n/a	n/a	n/a	-999	4	[0, 0, 0]	n/a	catFR1	1	R1330D
764.603	0.0	765396	DISTRACT_START	n/a	n/a	n/a	n/a	-999	4	[0, 0, 0]	n/a	catFR1	1	R1330D
764.603	0.015	765396	START	n/a	n/a	n/a	n/a	-999	4	[-999, -999, -999]	n/a	catFR1	1	R1330D
764.618	6.235	765411	PROB	6.235	n/a	n/a	n/a	-999	4	[4, 2, 8]	14	catFR1	1	R1330D
770.853	5.717	771646	PROB	5.717	n/a	n/a	n/a	-999	4	[4, 1, 8]	13	catFR1	1	R1330D
776.57	4.118	777363	PROB	4.118	n/a	n/a	n/a	-999	4	[1, 7, 3]	11	catFR1	1	R1330D
780.688	5.092	781481	PROB	5.092	n/a	n/a	n/a	-999	4	[1, 8, 1]	10	catFR1	1	R1330D
785.78	0.01	786572	STOP	n/a	n/a	n/a	n/a	-999	4	[-999, -999, -999]	n/a	catFR1	1	R1330D
785.79	0.532	786582	DISTRACT_END	n/a	n/a	n/a	n/a	-999	4	[0, 0, 0]	n/a	catFR1	1	R1330D
786.322	1.634	787114	RETRIEVAL_ORIENT_START	n/a	n/a	n/a	n/a	-999	4	[0, 0, 0]	n/a	catFR1	1	R1330D
787.956	0.0	788748	REC_START	n/a	n/a	n/a	n/a	-999	4	[0, 0, 0]	n/a	catFR1	1	R1330D
787.956	1.11	788748	RETRIEVAL_ORIENT_END	n/a	n/a	n/a	n/a	-999	4	[0, 0, 0]	n/a	catFR1	1	R1330D
789.066	2.373	789858	REC_WORD	2.373	n/a	ORANGUTAN	Zoo	6	4	[0, 0, 0]	n/a	catFR1	1	R1330D
791.439	1.177	792231	REC_WORD	1.177	n/a	GOAT	FarmAnimals	8	4	[0, 0, 0]	n/a	catFR1	1	R1330D
792.616	2.047	793408	REC_WORD	2.047	n/a	ELEPHANT	Zoo	5	4	[0, 0, 0]	n/a	catFR1	1	R1330D
794.663	1.796	795455	REC_WORD	1.796	n/a	OCEAN	Landscapes	4	4	[0, 0, 0]	n/a	catFR1	1	R1330D
796.459	1.716	797251	REC_WORD	1.716	n/a	BEACH	Landscapes	10	4	[0, 0, 0]	n/a	catFR1	1	R1330D
798.175	4.4	798967	REC_WORD	4.4	n/a	STREAM	Landscapes	9	4	[0, 0, 0]	n/a	catFR1	1	R1330D
802.575	4.455	803366	REC_WORD	4.455	n/a	MOUNTAIN	n/a	-999	4	[0, 0, 0]	n/a	catFR1	1	R1330D
807.03	3.561	807821	REC_WORD_VV	3.561	n/a	<>	n/a	-999	4	[0, 0, 0]	n/a	catFR1	1	R1330D
810.591	7.377	811382	REC_WORD	7.377	n/a	HEN	FarmAnimals	7	4	[0, 0, 0]	n/a	catFR1	1	R1330D
817.968	0.0	818759	TRIAL_END	n/a	n/a	n/a	n/a	-999	4	[0, 0, 0]	n/a	catFR1	1	R1330D
817.968	0.023	818759	REC_END	n/a	n/a	n/a	n/a	-999	4	[0, 0, 0]	n/a	catFR1	1	R1330D
817.991	0.001	818782	TRIAL_START	n/a	n/a	n/a	n/a	-999	5	[0, 0, 0]	n/a	catFR1	1	R1330D
817.992	0.0	818783	TRIAL	n/a	n/a	n/a	n/a	-999	5	[0, 0, 0]	n/a	catFR1	1	R1330D
817.992	2.903	818783	WAITING_START	n/a	n/a	n/a	n/a	-999	5	[0, 0, 0]	n/a	catFR1	1	R1330D
820.895	0.001	821686	WAITING_END	n/a	n/a	n/a	n/a	-999	5	[0, 0, 0]	n/a	catFR1	1	R1330D
820.896	10.428	821687	COUNTDOWN_START	n/a	n/a	n/a	n/a	-999	5	[0, 0, 0]	n/a	catFR1	1	R1330D
831.324	0.001	832114	COUNTDOWN_END	n/a	n/a	n/a	n/a	-999	5	[0, 0, 0]	n/a	catFR1	1	R1330D
831.325	1.106	832115	ORIENT_START	n/a	n/a	n/a	n/a	-999	5	[0, 0, 0]	n/a	catFR1	1	R1330D
832.431	0.0	833221	ENCODING_START	n/a	n/a	n/a	n/a	-999	5	[0, 0, 0]	n/a	catFR1	1	R1330D
832.431	1.021	833221	ORIENT_END	n/a	n/a	n/a	n/a	-999	5	[0, 0, 0]	n/a	catFR1	1	R1330D
833.452	1.629	834242	WORD	n/a	wordpools/wordpool_categorized_EN.txt	PEELER	KitchenTools	1	5	[0, 0, 0]	n/a	catFR1	1	R1330D
835.081	0.758	835871	WORD_OFF	n/a	n/a	PEELER	KitchenTools	1	5	[0, 0, 0]	n/a	catFR1	1	R1330D
835.839	1.626	836629	WORD	n/a	wordpools/wordpool_categorized_EN.txt	CORKSCREW	KitchenTools	2	5	[0, 0, 0]	n/a	catFR1	1	R1330D
837.465	1.06	838255	WORD_OFF	n/a	n/a	CORKSCREW	KitchenTools	2	5	[0, 0, 0]	n/a	catFR1	1	R1330D
838.525	1.624	839315	WORD	n/a	wordpools/wordpool_categorized_EN.txt	OCTOPUS	OceanAnimals	3	5	[0, 0, 0]	n/a	catFR1	1	R1330D
840.149	0.76	840939	WORD_OFF	n/a	n/a	OCTOPUS	OceanAnimals	3	5	[0, 0, 0]	n/a	catFR1	1	R1330D
840.909	1.624	841699	WORD	n/a	wordpools/wordpool_categorized_EN.txt	JELLYFISH	OceanAnimals	4	5	[0, 0, 0]	n/a	catFR1	1	R1330D
842.533	1.036	843322	WORD_OFF	n/a	n/a	JELLYFISH	OceanAnimals	4	5	[0, 0, 0]	n/a	catFR1	1	R1330D
843.569	1.631	844358	WORD	n/a	wordpools/wordpool_categorized_EN.txt	FOG	Weather	5	5	[0, 0, 0]	n/a	catFR1	1	R1330D
845.2	1.015	845989	WORD_OFF	n/a	n/a	FOG	Weather	5	5	[0, 0, 0]	n/a	catFR1	1	R1330D
846.215	1.635	847004	WORD	n/a	wordpools/wordpool_categorized_EN.txt	THUNDERSTORM	Weather	6	5	[0, 0, 0]	n/a	catFR1	1	R1330D
847.85	0.754	848639	WORD_OFF	n/a	n/a	THUNDERSTORM	Weather	6	5	[0, 0, 0]	n/a	catFR1	1	R1330D
848.604	1.63	849393	WORD	n/a	wordpools/wordpool_categorized_EN.txt	LADLE	KitchenTools	7	5	[0, 0, 0]	n/a	catFR1	1	R1330D
850.234	0.846	851023	WORD_OFF	n/a	n/a	LADLE	KitchenTools	7	5	[0, 0, 0]	n/a	catFR1	1	R1330D
851.08	1.621	851869	WORD	n/a	wordpools/wordpool_categorized_EN.txt	SPOON	KitchenTools	8	5	[0, 0, 0]	n/a	catFR1	1	R1330D
852.701	0.79	853490	WORD_OFF	n/a	n/a	SPOON	KitchenTools	8	5	[0, 0, 0]	n/a	catFR1	1	R1330D
853.491	1.627	854280	WORD	n/a	wordpools/wordpool_categorized_EN.txt	RAIN	Weather	9	5	[0, 0, 0]	n/a	catFR1	1	R1330D
855.118	0.914	855907	WORD_OFF	n/a	n/a	RAIN	Weather	9	5	[0, 0, 0]	n/a	catFR1	1	R1330D
856.032	1.637	856821	WORD	n/a	wordpools/wordpool_categorized_EN.txt	CLOUD	Weather	10	5	[0, 0, 0]	n/a	catFR1	1	R1330D
857.669	0.938	858458	WORD_OFF	n/a	n/a	CLOUD	Weather	10	5	[0, 0, 0]	n/a	catFR1	1	R1330D
858.607	1.629	859396	WORD	n/a	wordpools/wordpool_categorized_EN.txt	SQUID	OceanAnimals	11	5	[0, 0, 0]	n/a	catFR1	1	R1330D
860.236	0.934	861025	WORD_OFF	n/a	n/a	SQUID	OceanAnimals	11	5	[0, 0, 0]	n/a	catFR1	1	R1330D
861.17	1.634	861959	WORD	n/a	wordpools/wordpool_categorized_EN.txt	SHRIMP	OceanAnimals	12	5	[0, 0, 0]	n/a	catFR1	1	R1330D
862.804	0.0	863592	WORD_OFF	n/a	n/a	SHRIMP	OceanAnimals	12	5	[0, 0, 0]	n/a	catFR1	1	R1330D
862.804	0.001	863592	ENCODING_END	n/a	n/a	n/a	n/a	-999	5	[0, 0, 0]	n/a	catFR1	1	R1330D
862.805	0.0	863593	DISTRACT_START	n/a	n/a	n/a	n/a	-999	5	[0, 0, 0]	n/a	catFR1	1	R1330D
862.805	0.015	863593	START	n/a	n/a	n/a	n/a	-999	5	[-999, -999, -999]	n/a	catFR1	1	R1330D
862.82	10.251	863608	PROB	10.251	n/a	n/a	n/a	-999	5	[8, 5, 1]	14	catFR1	1	R1330D
873.071	4.601	873859	PROB	4.601	n/a	n/a	n/a	-999	5	[9, 1, 1]	11	catFR1	1	R1330D
877.672	5.224	878460	PROB	5.224	n/a	n/a	n/a	-999	5	[4, 5, 2]	11	catFR1	1	R1330D
882.896	0.011	883683	STOP	n/a	n/a	n/a	n/a	-999	5	[-999, -999, -999]	n/a	catFR1	1	R1330D
882.907	0.579	883694	DISTRACT_END	n/a	n/a	n/a	n/a	-999	5	[0, 0, 0]	n/a	catFR1	1	R1330D
883.486	1.671	884273	RETRIEVAL_ORIENT_START	n/a	n/a	n/a	n/a	-999	5	[0, 0, 0]	n/a	catFR1	1	R1330D
885.157	0.0	885944	REC_START	n/a	n/a	n/a	n/a	-999	5	[0, 0, 0]	n/a	catFR1	1	R1330D
885.157	3.184	885944	RETRIEVAL_ORIENT_END	n/a	n/a	n/a	n/a	-999	5	[0, 0, 0]	n/a	catFR1	1	R1330D
888.341	1.492	889128	REC_WORD	1.492	n/a	SQUID	OceanAnimals	11	5	[0, 0, 0]	n/a	catFR1	1	R1330D
889.833	2.621	890620	REC_WORD	2.621	n/a	OCTOPUS	OceanAnimals	3	5	[0, 0, 0]	n/a	catFR1	1	R1330D
892.454	2.331	893241	REC_WORD	2.331	n/a	LADLE	KitchenTools	7	5	[0, 0, 0]	n/a	catFR1	1	R1330D
894.785	1.0	895572	REC_WORD	1.0	n/a	THUNDERSTORM	Weather	6	5	[0, 0, 0]	n/a	catFR1	1	R1330D
895.785	1.0	896572	REC_WORD_VV	1.0	n/a	<>	n/a	-999	5	[0, 0, 0]	n/a	catFR1	1	R1330D
896.785	2.369	897572	REC_WORD_VV	2.369	n/a	<>	n/a	-999	5	[0, 0, 0]	n/a	catFR1	1	R1330D
899.154	3.839	899941	REC_WORD	3.839	n/a	FOG	Weather	5	5	[0, 0, 0]	n/a	catFR1	1	R1330D
902.993	2.3	903779	REC_WORD_VV	2.3	n/a	<>	n/a	-999	5	[0, 0, 0]	n/a	catFR1	1	R1330D
905.293	3.097	906079	REC_WORD	3.097	n/a	JELLYFISH	OceanAnimals	4	5	[0, 0, 0]	n/a	catFR1	1	R1330D
908.39	3.626	909176	REC_WORD_VV	3.626	n/a	<>	n/a	-999	5	[0, 0, 0]	n/a	catFR1	1	R1330D
912.016	2.079	912802	REC_WORD	2.079	n/a	CORKSCREW	KitchenTools	2	5	[0, 0, 0]	n/a	catFR1	1	R1330D
914.095	1.075	914881	REC_WORD_VV	1.075	n/a	<>	n/a	-999	5	[0, 0, 0]	n/a	catFR1	1	R1330D
915.17	0.001	915956	REC_END	n/a	n/a	n/a	n/a	-999	5	[0, 0, 0]	n/a	catFR1	1	R1330D
915.171	0.021	915957	TRIAL_END	n/a	n/a	n/a	n/a	-999	5	[0, 0, 0]	n/a	catFR1	1	R1330D
915.192	0.0	915978	TRIAL_START	n/a	n/a	n/a	n/a	-999	6	[0, 0, 0]	n/a	catFR1	1	R1330D
915.192	0.0	915978	TRIAL	n/a	n/a	n/a	n/a	-999	6	[0, 0, 0]	n/a	catFR1	1	R1330D
915.192	2.888	915978	WAITING_START	n/a	n/a	n/a	n/a	-999	6	[0, 0, 0]	n/a	catFR1	1	R1330D
918.08	0.0	918866	COUNTDOWN_START	n/a	n/a	n/a	n/a	-999	6	[0, 0, 0]	n/a	catFR1	1	R1330D
918.08	10.429	918866	WAITING_END	n/a	n/a	n/a	n/a	-999	6	[0, 0, 0]	n/a	catFR1	1	R1330D
928.509	0.0	929294	COUNTDOWN_END	n/a	n/a	n/a	n/a	-999	6	[0, 0, 0]	n/a	catFR1	1	R1330D
928.509	1.257	929294	ORIENT_START	n/a	n/a	n/a	n/a	-999	6	[0, 0, 0]	n/a	catFR1	1	R1330D
929.766	0.001	930551	ORIENT_END	n/a	n/a	n/a	n/a	-999	6	[0, 0, 0]	n/a	catFR1	1	R1330D
929.767	0.968	930552	ENCODING_START	n/a	n/a	n/a	n/a	-999	6	[0, 0, 0]	n/a	catFR1	1	R1330D
930.735	1.631	931520	WORD	n/a	wordpools/wordpool_categorized_EN.txt	SHELF	Furniture	1	6	[0, 0, 0]	n/a	catFR1	1	R1330D
932.366	1.087	933151	WORD_OFF	n/a	n/a	SHELF	Furniture	1	6	[0, 0, 0]	n/a	catFR1	1	R1330D
933.453	1.63	934238	WORD	n/a	wordpools/wordpool_categorized_EN.txt	NIGHTSTAND	Furniture	2	6	[0, 0, 0]	n/a	catFR1	1	R1330D
935.083	1.051	935868	WORD_OFF	n/a	n/a	NIGHTSTAND	Furniture	2	6	[0, 0, 0]	n/a	catFR1	1	R1330D
936.134	1.617	936919	WORD	n/a	wordpools/wordpool_categorized_EN.txt	FORK	KitchenTools	3	6	[0, 0, 0]	n/a	catFR1	1	R1330D
937.751	0.978	938536	WORD_OFF	n/a	n/a	FORK	KitchenTools	3	6	[0, 0, 0]	n/a	catFR1	1	R1330D
938.729	1.638	939514	WORD	n/a	wordpools/wordpool_categorized_EN.txt	GRATER	KitchenTools	4	6	[0, 0, 0]	n/a	catFR1	1	R1330D
940.367	1.145	941152	WORD_OFF	n/a	n/a	GRATER	KitchenTools	4	6	[0, 0, 0]	n/a	catFR1	1	R1330D
941.512	1.622	942297	WORD	n/a	wordpools/wordpool_categorized_EN.txt	STAPLER	OfficeSupplies	5	6	[0, 0, 0]	n/a	catFR1	1	R1330D
943.134	1.151	943918	WORD_OFF	n/a	n/a	STAPLER	OfficeSupplies	5	6	[0, 0, 0]	n/a	catFR1	1	R1330D
944.285	1.633	945069	WORD	n/a	wordpools/wordpool_categorized_EN.txt	GLUE	OfficeSupplies	6	6	[0, 0, 0]	n/a	catFR1	1	R1330D
945.918	1.149	946702	WORD_OFF	n/a	n/a	GLUE	OfficeSupplies	6	6	[0, 0, 0]	n/a	catFR1	1	R1330D
947.067	1.635	947851	WORD	n/a	wordpools/wordpool_categorized_EN.txt	STRAINER	KitchenTools	7	6	[0, 0, 0]	n/a	catFR1	1	R1330D
948.702	1.058	949486	WORD_OFF	n/a	n/a	STRAINER	KitchenTools	7	6	[0, 0, 0]	n/a	catFR1	1	R1330D
949.76	1.626	950544	WORD	n/a	wordpools/wordpool_categorized_EN.txt	COLANDER	KitchenTools	8	6	[0, 0, 0]	n/a	catFR1	1	R1330D
951.386	0.861	952170	WORD_OFF	n/a	n/a	COLANDER	KitchenTools	8	6	[0, 0, 0]	n/a	catFR1	1	R1330D
952.247	1.622	953031	WORD	n/a	wordpools/wordpool_categorized_EN.txt	RECLINER	Furniture	9	6	[0, 0, 0]	n/a	catFR1	1	R1330D
953.869	0.786	954653	WORD_OFF	n/a	n/a	RECLINER	Furniture	9	6	[0, 0, 0]	n/a	catFR1	1	R1330D
954.655	1.632	955439	WORD	n/a	wordpools/wordpool_categorized_EN.txt	SOFA	Furniture	10	6	[0, 0, 0]	n/a	catFR1	1	R1330D
956.287	0.905	957071	WORD_OFF	n/a	n/a	SOFA	Furniture	10	6	[0, 0, 0]	n/a	catFR1	1	R1330D
957.192	1.613	957976	WORD	n/a	wordpools/wordpool_categorized_EN.txt	MARKER	OfficeSupplies	11	6	[0, 0, 0]	n/a	catFR1	1	R1330D
958.805	0.821	959589	WORD_OFF	n/a	n/a	MARKER	OfficeSupplies	11	6	[0, 0, 0]	n/a	catFR1	1	R1330D
959.626	1.628	960410	WORD	n/a	wordpools/wordpool_categorized_EN.txt	ERASER	OfficeSupplies	12	6	[0, 0, 0]	n/a	catFR1	1	R1330D
961.254	0.001	962038	WORD_OFF	n/a	n/a	ERASER	OfficeSupplies	12	6	[0, 0, 0]	n/a	catFR1	1	R1330D
961.255	0.0	962039	DISTRACT_START	n/a	n/a	n/a	n/a	-999	6	[0, 0, 0]	n/a	catFR1	1	R1330D
961.255	0.0	962039	ENCODING_END	n/a	n/a	n/a	n/a	-999	6	[0, 0, 0]	n/a	catFR1	1	R1330D
961.255	0.016	962039	START	n/a	n/a	n/a	n/a	-999	6	[-999, -999, -999]	n/a	catFR1	1	R1330D
961.271	4.967	962055	PROB	4.967	n/a	n/a	n/a	-999	6	[1, 5, 3]	9	catFR1	1	R1330D
966.238	6.401	967021	PROB	6.401	n/a	n/a	n/a	-999	6	[5, 9, 2]	16	catFR1	1	R1330D
972.639	7.602	973422	PROB	7.602	n/a	n/a	n/a	-999	6	[7, 6, 1]	14	catFR1	1	R1330D
980.241	5.255	981024	PROB	5.255	n/a	n/a	n/a	-999	6	[6, 6, 5]	17	catFR1	1	R1330D
985.496	0.013	986278	STOP	n/a	n/a	n/a	n/a	-999	6	[-999, -999, -999]	n/a	catFR1	1	R1330D
985.509	0.521	986291	DISTRACT_END	n/a	n/a	n/a	n/a	-999	6	[0, 0, 0]	n/a	catFR1	1	R1330D
986.03	1.612	986812	RETRIEVAL_ORIENT_START	n/a	n/a	n/a	n/a	-999	6	[0, 0, 0]	n/a	catFR1	1	R1330D
987.642	0.001	988424	RETRIEVAL_ORIENT_END	n/a	n/a	n/a	n/a	-999	6	[0, 0, 0]	n/a	catFR1	1	R1330D
987.643	1.268	988425	REC_START	n/a	n/a	n/a	n/a	-999	6	[0, 0, 0]	n/a	catFR1	1	R1330D
988.911	0.911	989693	REC_WORD	0.911	n/a	RECLINER	Furniture	9	6	[0, 0, 0]	n/a	catFR1	1	R1330D
989.822	3.435	990604	REC_WORD	3.435	n/a	SOFA	Furniture	10	6	[0, 0, 0]	n/a	catFR1	1	R1330D
993.257	2.185	994039	REC_WORD_VV	2.185	n/a	<>	n/a	-999	6	[0, 0, 0]	n/a	catFR1	1	R1330D
995.442	1.0	996224	REC_WORD	1.0	n/a	STRAINER	KitchenTools	7	6	[0, 0, 0]	n/a	catFR1	1	R1330D
996.442	0.432	997224	REC_WORD_VV	0.432	n/a	<>	n/a	-999	6	[0, 0, 0]	n/a	catFR1	1	R1330D
996.874	0.933	997656	REC_WORD	0.933	n/a	COLANDER	KitchenTools	8	6	[0, 0, 0]	n/a	catFR1	1	R1330D
997.807	1.0	998589	REC_WORD	1.0	n/a	CORIANDER	n/a	-999	6	[0, 0, 0]	n/a	catFR1	1	R1330D
998.807	1.282	999589	REC_WORD_VV	1.282	n/a	<>	n/a	-999	6	[0, 0, 0]	n/a	catFR1	1	R1330D
1000.089	0.259	1000871	REC_WORD_VV	0.259	n/a	<>	n/a	-999	6	[0, 0, 0]	n/a	catFR1	1	R1330D
1000.348	2.464	1001130	REC_WORD	2.464	n/a	COLANDER	KitchenTools	8	6	[0, 0, 0]	n/a	catFR1	1	R1330D
1002.812	3.189	1003593	REC_WORD_VV	3.189	n/a	<>	n/a	-999	6	[0, 0, 0]	n/a	catFR1	1	R1330D
1006.001	9.882	1006782	REC_WORD	9.882	n/a	GRATER	KitchenTools	4	6	[0, 0, 0]	n/a	catFR1	1	R1330D
1015.883	1.0	1016664	REC_WORD_VV	1.0	n/a	<>	n/a	-999	6	[0, 0, 0]	n/a	catFR1	1	R1330D
1016.883	0.772	1017664	REC_WORD_VV	0.772	n/a	<>	n/a	-999	6	[0, 0, 0]	n/a	catFR1	1	R1330D
1017.655	0.0	1018436	TRIAL_END	n/a	n/a	n/a	n/a	-999	6	[0, 0, 0]	n/a	catFR1	1	R1330D
1017.655	0.026	1018436	REC_END	n/a	n/a	n/a	n/a	-999	6	[0, 0, 0]	n/a	catFR1	1	R1330D
1017.681	0.0	1018462	TRIAL_START	n/a	n/a	n/a	n/a	-999	7	[0, 0, 0]	n/a	catFR1	1	R1330D
1017.681	0.0	1018462	TRIAL	n/a	n/a	n/a	n/a	-999	7	[0, 0, 0]	n/a	catFR1	1	R1330D
1017.681	4.069	1018462	WAITING_START	n/a	n/a	n/a	n/a	-999	7	[0, 0, 0]	n/a	catFR1	1	R1330D
1021.75	0.0	1022531	WAITING_END	n/a	n/a	n/a	n/a	-999	7	[0, 0, 0]	n/a	catFR1	1	R1330D
1021.75	10.429	1022531	COUNTDOWN_START	n/a	n/a	n/a	n/a	-999	7	[0, 0, 0]	n/a	catFR1	1	R1330D
1032.179	0.0	1032959	COUNTDOWN_END	n/a	n/a	n/a	n/a	-999	7	[0, 0, 0]	n/a	catFR1	1	R1330D
1032.179	1.188	1032959	ORIENT_START	n/a	n/a	n/a	n/a	-999	7	[0, 0, 0]	n/a	catFR1	1	R1330D
1033.367	0.001	1034147	ORIENT_END	n/a	n/a	n/a	n/a	-999	7	[0, 0, 0]	n/a	catFR1	1	R1330D
1033.368	0.927	1034148	ENCODING_START	n/a	n/a	n/a	n/a	-999	7	[0, 0, 0]	n/a	catFR1	1	R1330D
1034.295	1.623	1035075	WORD	n/a	wordpools/wordpool_categorized_EN.txt	MOUSSE	Desserts	1	7	[0, 0, 0]	n/a	catFR1	1	R1330D
1035.918	0.926	1036698	WORD_OFF	n/a	n/a	MOUSSE	Desserts	1	7	[0, 0, 0]	n/a	catFR1	1	R1330D
1036.844	1.624	1037624	WORD	n/a	wordpools/wordpool_categorized_EN.txt	PUDDING	Desserts	2	7	[0, 0, 0]	n/a	catFR1	1	R1330D
1038.468	0.943	1039248	WORD_OFF	n/a	n/a	PUDDING	Desserts	2	7	[0, 0, 0]	n/a	catFR1	1	R1330D
1039.411	1.624	1040191	WORD	n/a	wordpools/wordpool_categorized_EN.txt	PAPER	OfficeSupplies	3	7	[0, 0, 0]	n/a	catFR1	1	R1330D
1041.035	0.923	1041815	WORD_OFF	n/a	n/a	PAPER	OfficeSupplies	3	7	[0, 0, 0]	n/a	catFR1	1	R1330D
1041.958	1.628	1042738	WORD	n/a	wordpools/wordpool_categorized_EN.txt	TAPE	OfficeSupplies	4	7	[0, 0, 0]	n/a	catFR1	1	R1330D
1043.586	1.105	1044365	WORD_OFF	n/a	n/a	TAPE	OfficeSupplies	4	7	[0, 0, 0]	n/a	catFR1	1	R1330D
1044.691	1.629	1045470	WORD	n/a	wordpools/wordpool_categorized_EN.txt	TIGER	Zoo	5	7	[0, 0, 0]	n/a	catFR1	1	R1330D
1046.32	0.763	1047099	WORD_OFF	n/a	n/a	TIGER	Zoo	5	7	[0, 0, 0]	n/a	catFR1	1	R1330D
1047.083	1.637	1047862	WORD	n/a	wordpools/wordpool_categorized_EN.txt	CHIMPANZEE	Zoo	6	7	[0, 0, 0]	n/a	catFR1	1	R1330D
1048.72	1.003	1049499	WORD_OFF	n/a	n/a	CHIMPANZEE	Zoo	6	7	[0, 0, 0]	n/a	catFR1	1	R1330D
1049.723	1.631	1050502	WORD	n/a	wordpools/wordpool_categorized_EN.txt	CUPCAKE	Desserts	7	7	[0, 0, 0]	n/a	catFR1	1	R1330D
1051.354	0.905	1052133	WORD_OFF	n/a	n/a	CUPCAKE	Desserts	7	7	[0, 0, 0]	n/a	catFR1	1	R1330D
1052.259	1.629	1053038	WORD	n/a	wordpools/wordpool_categorized_EN.txt	BROWNIES	Desserts	8	7	[0, 0, 0]	n/a	catFR1	1	R1330D
1053.888	0.918	1054667	WORD_OFF	n/a	n/a	BROWNIES	Desserts	8	7	[0, 0, 0]	n/a	catFR1	1	R1330D
1054.806	1.632	1055585	WORD	n/a	wordpools/wordpool_categorized_EN.txt	NOTEBOOK	OfficeSupplies	9	7	[0, 0, 0]	n/a	catFR1	1	R1330D
1056.438	1.071	1057217	WORD_OFF	n/a	n/a	NOTEBOOK	OfficeSupplies	9	7	[0, 0, 0]	n/a	catFR1	1	R1330D
1057.509	1.63	1058288	WORD	n/a	wordpools/wordpool_categorized_EN.txt	PENCIL	OfficeSupplies	10	7	[0, 0, 0]	n/a	catFR1	1	R1330D
1059.139	0.956	1059918	WORD_OFF	n/a	n/a	PENCIL	OfficeSupplies	10	7	[0, 0, 0]	n/a	catFR1	1	R1330D
1060.095	1.627	1060874	WORD	n/a	wordpools/wordpool_categorized_EN.txt	GIRAFFE	Zoo	11	7	[0, 0, 0]	n/a	catFR1	1	R1330D
1061.722	1.12	1062501	WORD_OFF	n/a	n/a	GIRAFFE	Zoo	11	7	[0, 0, 0]	n/a	catFR1	1	R1330D
1062.842	1.631	1063620	WORD	n/a	wordpools/wordpool_categorized_EN.txt	CHEETAH	Zoo	12	7	[0, 0, 0]	n/a	catFR1	1	R1330D
1064.473	0.0	1065251	WORD_OFF	n/a	n/a	CHEETAH	Zoo	12	7	[0, 0, 0]	n/a	catFR1	1	R1330D
1064.473	0.001	1065251	ENCODING_END	n/a	n/a	n/a	n/a	-999	7	[0, 0, 0]	n/a	catFR1	1	R1330D
1064.474	0.0	1065252	DISTRACT_START	n/a	n/a	n/a	n/a	-999	7	[0, 0, 0]	n/a	catFR1	1	R1330D
1064.474	0.015	1065252	START	n/a	n/a	n/a	n/a	-999	7	[-999, -999, -999]	n/a	catFR1	1	R1330D
1064.489	6.336	1065267	PROB	6.336	n/a	n/a	n/a	-999	7	[3, 6, 5]	14	catFR1	1	R1330D
1070.825	4.733	1071603	PROB	4.733	n/a	n/a	n/a	-999	7	[7, 5, 7]	19	catFR1	1	R1330D
1075.558	5.584	1076336	PROB	5.584	n/a	n/a	n/a	-999	7	[6, 5, 7]	18	catFR1	1	R1330D
1081.142	4.972	1081920	PROB	4.972	n/a	n/a	n/a	-999	7	[5, 6, 5]	16	catFR1	1	R1330D
1086.114	0.013	1086891	STOP	n/a	n/a	n/a	n/a	-999	7	[-999, -999, -999]	n/a	catFR1	1	R1330D
1086.127	0.544	1086904	DISTRACT_END	n/a	n/a	n/a	n/a	-999	7	[0, 0, 0]	n/a	catFR1	1	R1330D
1086.671	1.656	1087448	RETRIEVAL_ORIENT_START	n/a	n/a	n/a	n/a	-999	7	[0, 0, 0]	n/a	catFR1	1	R1330D
1088.327	0.001	1089104	RETRIEVAL_ORIENT_END	n/a	n/a	n/a	n/a	-999	7	[0, 0, 0]	n/a	catFR1	1	R1330D
1088.328	2.34	1089105	REC_START	n/a	n/a	n/a	n/a	-999	7	[0, 0, 0]	n/a	catFR1	1	R1330D
1090.668	2.154	1091445	REC_WORD	2.154	n/a	GIRAFFE	Zoo	11	7	[0, 0, 0]	n/a	catFR1	1	R1330D
1092.822	1.913	1093599	REC_WORD	1.913	n/a	PAPER	OfficeSupplies	3	7	[0, 0, 0]	n/a	catFR1	1	R1330D
1094.735	1.693	1095512	REC_WORD	1.693	n/a	NOTEBOOK	OfficeSupplies	9	7	[0, 0, 0]	n/a	catFR1	1	R1330D
1096.428	2.998	1097205	REC_WORD	2.998	n/a	MOUSSE	Desserts	1	7	[0, 0, 0]	n/a	catFR1	1	R1330D
1099.426	2.823	1100203	REC_WORD	2.823	n/a	BROWNIES	Desserts	8	7	[0, 0, 0]	n/a	catFR1	1	R1330D
1102.249	0.761	1103025	REC_WORD_VV	0.761	n/a	<>	n/a	-999	7	[0, 0, 0]	n/a	catFR1	1	R1330D
1103.01	3.405	1103786	REC_WORD	3.405	n/a	PUDDING	Desserts	2	7	[0, 0, 0]	n/a	catFR1	1	R1330D
1106.415	8.005	1107191	REC_WORD_VV	8.005	n/a	<>	n/a	-999	7	[0, 0, 0]	n/a	catFR1	1	R1330D
1114.42	1.101	1115196	REC_WORD	1.101	n/a	CUPCAKE	Desserts	7	7	[0, 0, 0]	n/a	catFR1	1	R1330D
1115.521	2.819	1116297	REC_WORD	2.819	n/a	STRAWBERRY	n/a	-999	7	[0, 0, 0]	n/a	catFR1	1	R1330D
1118.34	0.0	1119116	TRIAL_END	n/a	n/a	n/a	n/a	-999	7	[0, 0, 0]	n/a	catFR1	1	R1330D
1118.34	0.024	1119116	REC_END	n/a	n/a	n/a	n/a	-999	7	[0, 0, 0]	n/a	catFR1	1	R1330D
1118.364	0.0	1119140	TRIAL_START	n/a	n/a	n/a	n/a	-999	8	[0, 0, 0]	n/a	catFR1	1	R1330D
1118.364	0.001	1119140	TRIAL	n/a	n/a	n/a	n/a	-999	8	[0, 0, 0]	n/a	catFR1	1	R1330D
1118.365	13.537	1119141	WAITING_START	n/a	n/a	n/a	n/a	-999	8	[0, 0, 0]	n/a	catFR1	1	R1330D
1131.902	0.0	1132677	WAITING_END	n/a	n/a	n/a	n/a	-999	8	[0, 0, 0]	n/a	catFR1	1	R1330D
1131.902	10.429	1132677	COUNTDOWN_START	n/a	n/a	n/a	n/a	-999	8	[0, 0, 0]	n/a	catFR1	1	R1330D
1142.331	0.001	1143105	COUNTDOWN_END	n/a	n/a	n/a	n/a	-999	8	[0, 0, 0]	n/a	catFR1	1	R1330D
1142.332	1.222	1143106	ORIENT_START	n/a	n/a	n/a	n/a	-999	8	[0, 0, 0]	n/a	catFR1	1	R1330D
1143.554	0.0	1144328	ENCODING_START	n/a	n/a	n/a	n/a	-999	8	[0, 0, 0]	n/a	catFR1	1	R1330D
1143.554	1.148	1144328	ORIENT_END	n/a	n/a	n/a	n/a	-999	8	[0, 0, 0]	n/a	catFR1	1	R1330D
1144.702	1.636	1145476	WORD	n/a	wordpools/wordpool_categorized_EN.txt	ROOSTER	FarmAnimals	1	8	[0, 0, 0]	n/a	catFR1	1	R1330D
1146.338	0.758	1147112	WORD_OFF	n/a	n/a	ROOSTER	FarmAnimals	1	8	[0, 0, 0]	n/a	catFR1	1	R1330D
1147.096	1.626	1147870	WORD	n/a	wordpools/wordpool_categorized_EN.txt	COW	FarmAnimals	2	8	[0, 0, 0]	n/a	catFR1	1	R1330D
1148.722	0.798	1149496	WORD_OFF	n/a	n/a	COW	FarmAnimals	2	8	[0, 0, 0]	n/a	catFR1	1	R1330D
1149.52	1.635	1150294	WORD	n/a	wordpools/wordpool_categorized_EN.txt	MOSQUITO	Insects	3	8	[0, 0, 0]	n/a	catFR1	1	R1330D
1151.155	0.789	1151929	WORD_OFF	n/a	n/a	MOSQUITO	Insects	3	8	[0, 0, 0]	n/a	catFR1	1	R1330D
1151.944	1.629	1152718	WORD	n/a	wordpools/wordpool_categorized_EN.txt	FLY	Insects	4	8	[0, 0, 0]	n/a	catFR1	1	R1330D
1153.573	0.843	1154347	WORD_OFF	n/a	n/a	FLY	Insects	4	8	[0, 0, 0]	n/a	catFR1	1	R1330D
1154.416	1.624	1155190	WORD	n/a	wordpools/wordpool_categorized_EN.txt	TRAIN	Vehicles	5	8	[0, 0, 0]	n/a	catFR1	1	R1330D
1156.04	0.928	1156814	WORD_OFF	n/a	n/a	TRAIN	Vehicles	5	8	[0, 0, 0]	n/a	catFR1	1	R1330D
1156.968	1.622	1157742	WORD	n/a	wordpools/wordpool_categorized_EN.txt	JEEP	Vehicles	6	8	[0, 0, 0]	n/a	catFR1	1	R1330D
1158.59	1.031	1159364	WORD_OFF	n/a	n/a	JEEP	Vehicles	6	8	[0, 0, 0]	n/a	catFR1	1	R1330D
1159.621	1.636	1160395	WORD	n/a	wordpools/wordpool_categorized_EN.txt	PIG	FarmAnimals	7	8	[0, 0, 0]	n/a	catFR1	1	R1330D
1161.257	1.024	1162031	WORD_OFF	n/a	n/a	PIG	FarmAnimals	7	8	[0, 0, 0]	n/a	catFR1	1	R1330D
1162.281	1.627	1163054	WORD	n/a	wordpools/wordpool_categorized_EN.txt	SHEEP	FarmAnimals	8	8	[0, 0, 0]	n/a	catFR1	1	R1330D
1163.908	1.07	1164681	WORD_OFF	n/a	n/a	SHEEP	FarmAnimals	8	8	[0, 0, 0]	n/a	catFR1	1	R1330D
1164.978	1.63	1165751	WORD	n/a	wordpools/wordpool_categorized_EN.txt	BEE	Insects	9	8	[0, 0, 0]	n/a	catFR1	1	R1330D
1166.608	0.853	1167381	WORD_OFF	n/a	n/a	BEE	Insects	9	8	[0, 0, 0]	n/a	catFR1	1	R1330D
1167.461	1.631	1168234	WORD	n/a	wordpools/wordpool_categorized_EN.txt	GNAT	Insects	10	8	[0, 0, 0]	n/a	catFR1	1	R1330D
1169.092	1.067	1169865	WORD_OFF	n/a	n/a	GNAT	Insects	10	8	[0, 0, 0]	n/a	catFR1	1	R1330D
1170.159	1.618	1170932	WORD	n/a	wordpools/wordpool_categorized_EN.txt	SCOOTER	Vehicles	11	8	[0, 0, 0]	n/a	catFR1	1	R1330D
1171.777	1.081	1172550	WORD_OFF	n/a	n/a	SCOOTER	Vehicles	11	8	[0, 0, 0]	n/a	catFR1	1	R1330D
1172.858	1.635	1173631	WORD	n/a	wordpools/wordpool_categorized_EN.txt	MOTORCYCLE	Vehicles	12	8	[0, 0, 0]	n/a	catFR1	1	R1330D
1174.493	0.0	1175266	WORD_OFF	n/a	n/a	MOTORCYCLE	Vehicles	12	8	[0, 0, 0]	n/a	catFR1	1	R1330D
1174.493	0.001	1175266	ENCODING_END	n/a	n/a	n/a	n/a	-999	8	[0, 0, 0]	n/a	catFR1	1	R1330D
1174.494	0.0	1175267	DISTRACT_START	n/a	n/a	n/a	n/a	-999	8	[0, 0, 0]	n/a	catFR1	1	R1330D
1174.494	0.015	1175267	START	n/a	n/a	n/a	n/a	-999	8	[-999, -999, -999]	n/a	catFR1	1	R1330D
1174.509	6.535	1175282	PROB	6.535	n/a	n/a	n/a	-999	8	[9, 4, 4]	17	catFR1	1	R1330D
1181.044	6.784	1181817	PROB	6.784	n/a	n/a	n/a	-999	8	[1, 8, 7]	16	catFR1	1	R1330D
1187.828	8.613	1188600	PROB	8.613	n/a	n/a	n/a	-999	8	[8, 8, 1]	17	catFR1	1	R1330D
1196.441	0.006	1197213	STOP	n/a	n/a	n/a	n/a	-999	8	[-999, -999, -999]	n/a	catFR1	1	R1330D
1196.447	0.617	1197219	DISTRACT_END	n/a	n/a	n/a	n/a	-999	8	[0, 0, 0]	n/a	catFR1	1	R1330D
1197.064	1.701	1197836	RETRIEVAL_ORIENT_START	n/a	n/a	n/a	n/a	-999	8	[0, 0, 0]	n/a	catFR1	1	R1330D
1198.765	0.0	1199537	REC_START	n/a	n/a	n/a	n/a	-999	8	[0, 0, 0]	n/a	catFR1	1	R1330D
1198.765	1.3	1199537	RETRIEVAL_ORIENT_END	n/a	n/a	n/a	n/a	-999	8	[0, 0, 0]	n/a	catFR1	1	R1330D
1200.065	1.0	1200837	REC_WORD	1.0	n/a	SCOOTER	Vehicles	11	8	[0, 0, 0]	n/a	catFR1	1	R1330D
1201.065	0.672	1201837	REC_WORD_VV	0.672	n/a	<>	n/a	-999	8	[0, 0, 0]	n/a	catFR1	1	R1330D
1201.737	3.119	1202509	REC_WORD	3.119	n/a	TRAIN	Vehicles	5	8	[0, 0, 0]	n/a	catFR1	1	R1330D
1204.856	3.203	1205627	REC_WORD	3.203	n/a	MOSQUITO	Insects	3	8	[0, 0, 0]	n/a	catFR1	1	R1330D
1208.059	3.068	1208830	REC_WORD	3.068	n/a	FLY	Insects	4	8	[0, 0, 0]	n/a	catFR1	1	R1330D
1211.127	3.899	1211898	REC_WORD	3.899	n/a	COW	FarmAnimals	2	8	[0, 0, 0]	n/a	catFR1	1	R1330D
1215.026	6.144	1215797	REC_WORD	6.144	n/a	SHEEP	FarmAnimals	8	8	[0, 0, 0]	n/a	catFR1	1	R1330D
1221.17	5.809	1221941	REC_WORD_VV	5.809	n/a	<>	n/a	-999	8	[0, 0, 0]	n/a	catFR1	1	R1330D
1226.979	0.381	1227749	REC_WORD_VV	0.381	n/a	<>	n/a	-999	8	[0, 0, 0]	n/a	catFR1	1	R1330D
1227.36	0.894	1228130	REC_WORD	0.894	n/a	TRAIN	Vehicles	5	8	[0, 0, 0]	n/a	catFR1	1	R1330D
1228.254	0.35	1229024	REC_WORD	0.35	n/a	TRAIN	Vehicles	5	8	[0, 0, 0]	n/a	catFR1	1	R1330D
1228.604	0.176	1229374	REC_WORD_VV	0.176	n/a	<>	n/a	-999	8	[0, 0, 0]	n/a	catFR1	1	R1330D
1228.78	0.0	1229550	REC_END	n/a	n/a	n/a	n/a	-999	8	[0, 0, 0]	n/a	catFR1	1	R1330D
1228.78	0.022	1229550	TRIAL_END	n/a	n/a	n/a	n/a	-999	8	[0, 0, 0]	n/a	catFR1	1	R1330D
1228.802	0.0	1229572	TRIAL_START	n/a	n/a	n/a	n/a	-999	9	[0, 0, 0]	n/a	catFR1	1	R1330D
1228.802	0.0	1229572	TRIAL	n/a	n/a	n/a	n/a	-999	9	[0, 0, 0]	n/a	catFR1	1	R1330D
1228.802	5.219	1229572	WAITING_START	n/a	n/a	n/a	n/a	-999	9	[0, 0, 0]	n/a	catFR1	1	R1330D
1234.021	0.0	1234791	COUNTDOWN_START	n/a	n/a	n/a	n/a	-999	9	[0, 0, 0]	n/a	catFR1	1	R1330D
1234.021	10.429	1234791	WAITING_END	n/a	n/a	n/a	n/a	-999	9	[0, 0, 0]	n/a	catFR1	1	R1330D
1244.45	0.001	1245219	COUNTDOWN_END	n/a	n/a	n/a	n/a	-999	9	[0, 0, 0]	n/a	catFR1	1	R1330D
1244.451	1.022	1245220	ORIENT_START	n/a	n/a	n/a	n/a	-999	9	[0, 0, 0]	n/a	catFR1	1	R1330D
1245.473	0.0	1246242	ORIENT_END	n/a	n/a	n/a	n/a	-999	9	[0, 0, 0]	n/a	catFR1	1	R1330D
1245.473	1.107	1246242	ENCODING_START	n/a	n/a	n/a	n/a	-999	9	[0, 0, 0]	n/a	catFR1	1	R1330D
1246.58	1.626	1247349	WORD	n/a	wordpools/wordpool_categorized_EN.txt	BLUEBIRD	Birds	1	9	[0, 0, 0]	n/a	catFR1	1	R1330D
1248.206	0.799	1248975	WORD_OFF	n/a	n/a	BLUEBIRD	Birds	1	9	[0, 0, 0]	n/a	catFR1	1	R1330D
1249.005	1.635	1249774	WORD	n/a	wordpools/wordpool_categorized_EN.txt	ROBIN	Birds	2	9	[0, 0, 0]	n/a	catFR1	1	R1330D
1250.64	1.042	1251409	WORD_OFF	n/a	n/a	ROBIN	Birds	2	9	[0, 0, 0]	n/a	catFR1	1	R1330D
1251.682	1.625	1252451	WORD	n/a	wordpools/wordpool_categorized_EN.txt	WHALE	OceanAnimals	3	9	[0, 0, 0]	n/a	catFR1	1	R1330D
1253.307	0.804	1254076	WORD_OFF	n/a	n/a	WHALE	OceanAnimals	3	9	[0, 0, 0]	n/a	catFR1	1	R1330D
1254.111	1.63	1254880	WORD	n/a	wordpools/wordpool_categorized_EN.txt	PLANKTON	OceanAnimals	4	9	[0, 0, 0]	n/a	catFR1	1	R1330D
1255.741	0.916	1256510	WORD_OFF	n/a	n/a	PLANKTON	OceanAnimals	4	9	[0, 0, 0]	n/a	catFR1	1	R1330D
1256.657	1.635	1257426	WORD	n/a	wordpools/wordpool_categorized_EN.txt	SPRUCE	Trees	5	9	[0, 0, 0]	n/a	catFR1	1	R1330D
1258.292	0.858	1259061	WORD_OFF	n/a	n/a	SPRUCE	Trees	5	9	[0, 0, 0]	n/a	catFR1	1	R1330D
1259.15	1.626	1259919	WORD	n/a	wordpools/wordpool_categorized_EN.txt	BIRCH	Trees	6	9	[0, 0, 0]	n/a	catFR1	1	R1330D
1260.776	0.865	1261545	WORD_OFF	n/a	n/a	BIRCH	Trees	6	9	[0, 0, 0]	n/a	catFR1	1	R1330D
1261.641	1.635	1262410	WORD	n/a	wordpools/wordpool_categorized_EN.txt	LOBSTER	OceanAnimals	7	9	[0, 0, 0]	n/a	catFR1	1	R1330D
1263.276	0.772	1264044	WORD_OFF	n/a	n/a	LOBSTER	OceanAnimals	7	9	[0, 0, 0]	n/a	catFR1	1	R1330D
1264.048	1.628	1264816	WORD	n/a	wordpools/wordpool_categorized_EN.txt	DOLPHIN	OceanAnimals	8	9	[0, 0, 0]	n/a	catFR1	1	R1330D
1265.676	0.814	1266444	WORD_OFF	n/a	n/a	DOLPHIN	OceanAnimals	8	9	[0, 0, 0]	n/a	catFR1	1	R1330D
1266.49	1.637	1267258	WORD	n/a	wordpools/wordpool_categorized_EN.txt	MAPLE	Trees	9	9	[0, 0, 0]	n/a	catFR1	1	R1330D
1268.127	0.854	1268895	WORD_OFF	n/a	n/a	MAPLE	Trees	9	9	[0, 0, 0]	n/a	catFR1	1	R1330D
1268.981	1.629	1269749	WORD	n/a	wordpools/wordpool_categorized_EN.txt	CYPRESS	Trees	10	9	[0, 0, 0]	n/a	catFR1	1	R1330D
1270.61	1.028	1271378	WORD_OFF	n/a	n/a	CYPRESS	Trees	10	9	[0, 0, 0]	n/a	catFR1	1	R1330D
1271.638	1.623	1272406	WORD	n/a	wordpools/wordpool_categorized_EN.txt	SEAGULL	Birds	11	9	[0, 0, 0]	n/a	catFR1	1	R1330D
1273.261	0.76	1274029	WORD_OFF	n/a	n/a	SEAGULL	Birds	11	9	[0, 0, 0]	n/a	catFR1	1	R1330D
1274.021	1.624	1274789	WORD	n/a	wordpools/wordpool_categorized_EN.txt	CROW	Birds	12	9	[0, 0, 0]	n/a	catFR1	1	R1330D
1275.645	0.0	1276413	WORD_OFF	n/a	n/a	CROW	Birds	12	9	[0, 0, 0]	n/a	catFR1	1	R1330D
1275.645	0.001	1276413	ENCODING_END	n/a	n/a	n/a	n/a	-999	9	[0, 0, 0]	n/a	catFR1	1	R1330D
1275.646	0.0	1276414	DISTRACT_START	n/a	n/a	n/a	n/a	-999	9	[0, 0, 0]	n/a	catFR1	1	R1330D
1275.646	0.015	1276414	START	n/a	n/a	n/a	n/a	-999	9	[-999, -999, -999]	n/a	catFR1	1	R1330D
1275.661	5.401	1276429	PROB	5.401	n/a	n/a	n/a	-999	9	[8, 4, 7]	19	catFR1	1	R1330D
1281.062	4.401	1281830	PROB	4.401	n/a	n/a	n/a	-999	9	[8, 1, 6]	15	catFR1	1	R1330D
1285.463	3.318	1286230	PROB	3.318	n/a	n/a	n/a	-999	9	[2, 3, 4]	9	catFR1	1	R1330D
1288.781	4.034	1289548	PROB	4.034	n/a	n/a	n/a	-999	9	[6, 3, 7]	16	catFR1	1	R1330D
1292.815	5.111	1293582	PROB	5.111	n/a	n/a	n/a	-999	9	[4, 7, 4]	15	catFR1	1	R1330D
1297.926	0.006	1298693	STOP	n/a	n/a	n/a	n/a	-999	9	[-999, -999, -999]	n/a	catFR1	1	R1330D
1297.932	0.637	1298699	DISTRACT_END	n/a	n/a	n/a	n/a	-999	9	[0, 0, 0]	n/a	catFR1	1	R1330D
1298.569	1.547	1299336	RETRIEVAL_ORIENT_START	n/a	n/a	n/a	n/a	-999	9	[0, 0, 0]	n/a	catFR1	1	R1330D
1300.116	0.0	1300883	RETRIEVAL_ORIENT_END	n/a	n/a	n/a	n/a	-999	9	[0, 0, 0]	n/a	catFR1	1	R1330D
1300.116	2.208	1300883	REC_START	n/a	n/a	n/a	n/a	-999	9	[0, 0, 0]	n/a	catFR1	1	R1330D
1302.324	2.012	1303090	REC_WORD	2.012	n/a	SPRUCE	Trees	5	9	[0, 0, 0]	n/a	catFR1	1	R1330D
1304.336	0.863	1305102	REC_WORD	0.863	n/a	SEAGULL	Birds	11	9	[0, 0, 0]	n/a	catFR1	1	R1330D
1305.199	1.847	1305965	REC_WORD	1.847	n/a	PLANKTON	OceanAnimals	4	9	[0, 0, 0]	n/a	catFR1	1	R1330D
1307.046	2.674	1307812	REC_WORD	2.674	n/a	WHALE	OceanAnimals	3	9	[0, 0, 0]	n/a	catFR1	1	R1330D
1309.72	3.993	1310486	REC_WORD	3.993	n/a	ROBIN	Birds	2	9	[0, 0, 0]	n/a	catFR1	1	R1330D
1313.713	3.494	1314479	REC_WORD	3.494	n/a	SPARROW	n/a	-999	9	[0, 0, 0]	n/a	catFR1	1	R1330D
1317.207	5.086	1317973	REC_WORD_VV	5.086	n/a	<>	n/a	-999	9	[0, 0, 0]	n/a	catFR1	1	R1330D
1322.293	4.973	1323058	REC_WORD	4.973	n/a	DOLPHIN	OceanAnimals	8	9	[0, 0, 0]	n/a	catFR1	1	R1330D
1327.266	2.865	1328031	REC_WORD	2.865	n/a	CYPRESS	Trees	10	9	[0, 0, 0]	n/a	catFR1	1	R1330D
1330.131	0.0	1330896	REC_END	n/a	n/a	n/a	n/a	-999	9	[0, 0, 0]	n/a	catFR1	1	R1330D
1330.131	0.025	1330896	TRIAL_END	n/a	n/a	n/a	n/a	-999	9	[0, 0, 0]	n/a	catFR1	1	R1330D
1330.156	0.001	1330921	TRIAL_START	n/a	n/a	n/a	n/a	-999	10	[0, 0, 0]	n/a	catFR1	1	R1330D
1330.157	0.0	1330922	TRIAL	n/a	n/a	n/a	n/a	-999	10	[0, 0, 0]	n/a	catFR1	1	R1330D
1330.157	2.915	1330922	WAITING_START	n/a	n/a	n/a	n/a	-999	10	[0, 0, 0]	n/a	catFR1	1	R1330D
1333.072	0.0	1333837	WAITING_END	n/a	n/a	n/a	n/a	-999	10	[0, 0, 0]	n/a	catFR1	1	R1330D
1333.072	10.43	1333837	COUNTDOWN_START	n/a	n/a	n/a	n/a	-999	10	[0, 0, 0]	n/a	catFR1	1	R1330D
1343.502	0.001	1344266	COUNTDOWN_END	n/a	n/a	n/a	n/a	-999	10	[0, 0, 0]	n/a	catFR1	1	R1330D
1343.503	1.188	1344267	ORIENT_START	n/a	n/a	n/a	n/a	-999	10	[0, 0, 0]	n/a	catFR1	1	R1330D
1344.691	0.0	1345455	ORIENT_END	n/a	n/a	n/a	n/a	-999	10	[0, 0, 0]	n/a	catFR1	1	R1330D
1344.691	1.105	1345455	ENCODING_START	n/a	n/a	n/a	n/a	-999	10	[0, 0, 0]	n/a	catFR1	1	R1330D
1345.796	1.628	1346560	WORD	n/a	wordpools/wordpool_categorized_EN.txt	STEREO	Electronics	1	10	[0, 0, 0]	n/a	catFR1	1	R1330D
1347.424	0.98	1348188	WORD_OFF	n/a	n/a	STEREO	Electronics	1	10	[0, 0, 0]	n/a	catFR1	1	R1330D
1348.404	1.638	1349168	WORD	n/a	wordpools/wordpool_categorized_EN.txt	PHONE	Electronics	2	10	[0, 0, 0]	n/a	catFR1	1	R1330D
1350.042	1.052	1350806	WORD_OFF	n/a	n/a	PHONE	Electronics	2	10	[0, 0, 0]	n/a	catFR1	1	R1330D
1351.094	1.632	1351858	WORD	n/a	wordpools/wordpool_categorized_EN.txt	ORCHID	Flowers	3	10	[0, 0, 0]	n/a	catFR1	1	R1330D
1352.726	0.778	1353490	WORD_OFF	n/a	n/a	ORCHID	Flowers	3	10	[0, 0, 0]	n/a	catFR1	1	R1330D
1353.504	1.639	1354268	WORD	n/a	wordpools/wordpool_categorized_EN.txt	DAISY	Flowers	4	10	[0, 0, 0]	n/a	catFR1	1	R1330D
1355.143	0.986	1355907	WORD_OFF	n/a	n/a	DAISY	Flowers	4	10	[0, 0, 0]	n/a	catFR1	1	R1330D
1356.129	1.632	1356893	WORD	n/a	wordpools/wordpool_categorized_EN.txt	TRUCK	Vehicles	5	10	[0, 0, 0]	n/a	catFR1	1	R1330D
1357.761	0.785	1358525	WORD_OFF	n/a	n/a	TRUCK	Vehicles	5	10	[0, 0, 0]	n/a	catFR1	1	R1330D
1358.546	1.631	1359310	WORD	n/a	wordpools/wordpool_categorized_EN.txt	CAR	Vehicles	6	10	[0, 0, 0]	n/a	catFR1	1	R1330D
1360.177	1.106	1360941	WORD_OFF	n/a	n/a	CAR	Vehicles	6	10	[0, 0, 0]	n/a	catFR1	1	R1330D
1361.283	1.627	1362047	WORD	n/a	wordpools/wordpool_categorized_EN.txt	RADIO	Electronics	7	10	[0, 0, 0]	n/a	catFR1	1	R1330D
1362.91	0.915	1363673	WORD_OFF	n/a	n/a	RADIO	Electronics	7	10	[0, 0, 0]	n/a	catFR1	1	R1330D
1363.825	1.636	1364588	WORD	n/a	wordpools/wordpool_categorized_EN.txt	COMPUTER	Electronics	8	10	[0, 0, 0]	n/a	catFR1	1	R1330D
1365.461	0.785	1366224	WORD_OFF	n/a	n/a	COMPUTER	Electronics	8	10	[0, 0, 0]	n/a	catFR1	1	R1330D
1366.246	1.632	1367009	WORD	n/a	wordpools/wordpool_categorized_EN.txt	BUS	Vehicles	9	10	[0, 0, 0]	n/a	catFR1	1	R1330D
1367.878	1.07	1368641	WORD_OFF	n/a	n/a	BUS	Vehicles	9	10	[0, 0, 0]	n/a	catFR1	1	R1330D
1368.948	1.631	1369711	WORD	n/a	wordpools/wordpool_categorized_EN.txt	PLANE	Vehicles	10	10	[0, 0, 0]	n/a	catFR1	1	R1330D
1370.579	0.91	1371342	WORD_OFF	n/a	n/a	PLANE	Vehicles	10	10	[0, 0, 0]	n/a	catFR1	1	R1330D
1371.489	1.64	1372252	WORD	n/a	wordpools/wordpool_categorized_EN.txt	CARNATION	Flowers	11	10	[0, 0, 0]	n/a	catFR1	1	R1330D
1373.129	0.983	1373892	WORD_OFF	n/a	n/a	CARNATION	Flowers	11	10	[0, 0, 0]	n/a	catFR1	1	R1330D
1374.112	1.635	1374875	WORD	n/a	wordpools/wordpool_categorized_EN.txt	ROSE	Flowers	12	10	[0, 0, 0]	n/a	catFR1	1	R1330D
1375.747	0.001	1376510	WORD_OFF	n/a	n/a	ROSE	Flowers	12	10	[0, 0, 0]	n/a	catFR1	1	R1330D
1375.748	0.0	1376511	ENCODING_END	n/a	n/a	n/a	n/a	-999	10	[0, 0, 0]	n/a	catFR1	1	R1330D
1375.748	0.0	1376511	DISTRACT_START	n/a	n/a	n/a	n/a	-999	10	[0, 0, 0]	n/a	catFR1	1	R1330D
1375.748	0.016	1376511	START	n/a	n/a	n/a	n/a	-999	10	[-999, -999, -999]	n/a	catFR1	1	R1330D
1375.764	4.916	1376527	PROB	4.916	n/a	n/a	n/a	-999	10	[1, 9, 7]	17	catFR1	1	R1330D
1380.68	3.734	1381443	PROB	3.734	n/a	n/a	n/a	-999	10	[3, 7, 1]	11	catFR1	1	R1330D
1384.414	4.651	1385176	PROB	4.651	n/a	n/a	n/a	-999	10	[7, 2, 1]	10	catFR1	1	R1330D
1389.065	5.851	1389827	PROB	5.851	n/a	n/a	n/a	-999	10	[2, 7, 5]	14	catFR1	1	R1330D
1394.916	8.168	1395678	PROB	8.168	n/a	n/a	n/a	-999	10	[8, 7, 6]	21	catFR1	1	R1330D
1403.084	0.017	1403845	STOP	n/a	n/a	n/a	n/a	-999	10	[-999, -999, -999]	n/a	catFR1	1	R1330D
1403.101	0.61	1403862	DISTRACT_END	n/a	n/a	n/a	n/a	-999	10	[0, 0, 0]	n/a	catFR1	1	R1330D
1403.711	1.524	1404472	RETRIEVAL_ORIENT_START	n/a	n/a	n/a	n/a	-999	10	[0, 0, 0]	n/a	catFR1	1	R1330D
1405.235	0.0	1405996	RETRIEVAL_ORIENT_END	n/a	n/a	n/a	n/a	-999	10	[0, 0, 0]	n/a	catFR1	1	R1330D
1405.235	0.679	1405996	REC_START	n/a	n/a	n/a	n/a	-999	10	[0, 0, 0]	n/a	catFR1	1	R1330D
1405.914	1.685	1406675	REC_WORD_VV	1.685	n/a	<>	n/a	-999	10	[0, 0, 0]	n/a	catFR1	1	R1330D
1407.599	11.013	1408360	REC_WORD	11.013	n/a	TRUCK	Vehicles	5	10	[0, 0, 0]	n/a	catFR1	1	R1330D
1418.612	10.566	1419373	REC_WORD	10.566	n/a	PLANE	Vehicles	10	10	[0, 0, 0]	n/a	catFR1	1	R1330D
1429.178	6.07	1429938	REC_WORD_VV	6.07	n/a	<>	n/a	-999	10	[0, 0, 0]	n/a	catFR1	1	R1330D
1435.248	0.0	1436008	REC_END	n/a	n/a	n/a	n/a	-999	10	[0, 0, 0]	n/a	catFR1	1	R1330D
1435.248	0.024	1436008	TRIAL_END	n/a	n/a	n/a	n/a	-999	10	[0, 0, 0]	n/a	catFR1	1	R1330D
1435.272	0.0	1436032	WAITING_START	n/a	n/a	n/a	n/a	-999	11	[0, 0, 0]	n/a	catFR1	1	R1330D
1435.272	0.0	1436032	TRIAL	n/a	n/a	n/a	n/a	-999	11	[0, 0, 0]	n/a	catFR1	1	R1330D
1435.272	2.269	1436032	TRIAL_START	n/a	n/a	n/a	n/a	-999	11	[0, 0, 0]	n/a	catFR1	1	R1330D
1437.541	0.0	1438301	WAITING_END	n/a	n/a	n/a	n/a	-999	11	[0, 0, 0]	n/a	catFR1	1	R1330D
1437.541	10.43	1438301	COUNTDOWN_START	n/a	n/a	n/a	n/a	-999	11	[0, 0, 0]	n/a	catFR1	1	R1330D
1447.971	0.0	1448730	COUNTDOWN_END	n/a	n/a	n/a	n/a	-999	11	[0, 0, 0]	n/a	catFR1	1	R1330D
1447.971	1.122	1448730	ORIENT_START	n/a	n/a	n/a	n/a	-999	11	[0, 0, 0]	n/a	catFR1	1	R1330D
1449.093	0.0	1449852	ORIENT_END	n/a	n/a	n/a	n/a	-999	11	[0, 0, 0]	n/a	catFR1	1	R1330D
1449.093	0.771	1449852	ENCODING_START	n/a	n/a	n/a	n/a	-999	11	[0, 0, 0]	n/a	catFR1	1	R1330D
1449.864	1.629	1450623	WORD	n/a	wordpools/wordpool_categorized_EN.txt	DRYER	Appliances	1	11	[0, 0, 0]	n/a	catFR1	1	R1330D
1451.493	0.854	1452252	WORD_OFF	n/a	n/a	DRYER	Appliances	1	11	[0, 0, 0]	n/a	catFR1	1	R1330D
1452.347	1.63	1453106	WORD	n/a	wordpools/wordpool_categorized_EN.txt	MIXER	Appliances	2	11	[0, 0, 0]	n/a	catFR1	1	R1330D
1453.977	0.927	1454736	WORD_OFF	n/a	n/a	MIXER	Appliances	2	11	[0, 0, 0]	n/a	catFR1	1	R1330D
1454.904	1.624	1455663	WORD	n/a	wordpools/wordpool_categorized_EN.txt	SOCKS	Clothing	3	11	[0, 0, 0]	n/a	catFR1	1	R1330D
1456.528	1.1	1457287	WORD_OFF	n/a	n/a	SOCKS	Clothing	3	11	[0, 0, 0]	n/a	catFR1	1	R1330D
1457.628	1.633	1458387	WORD	n/a	wordpools/wordpool_categorized_EN.txt	DRESS	Clothing	4	11	[0, 0, 0]	n/a	catFR1	1	R1330D
1459.261	0.925	1460020	WORD_OFF	n/a	n/a	DRESS	Clothing	4	11	[0, 0, 0]	n/a	catFR1	1	R1330D
1460.186	1.627	1460945	WORD	n/a	wordpools/wordpool_categorized_EN.txt	TULIP	Flowers	5	11	[0, 0, 0]	n/a	catFR1	1	R1330D
1461.813	1.01	1462572	WORD_OFF	n/a	n/a	TULIP	Flowers	5	11	[0, 0, 0]	n/a	catFR1	1	R1330D
1462.823	1.623	1463581	WORD	n/a	wordpools/wordpool_categorized_EN.txt	LILY	Flowers	6	11	[0, 0, 0]	n/a	catFR1	1	R1330D
1464.446	1.141	1465204	WORD_OFF	n/a	n/a	LILY	Flowers	6	11	[0, 0, 0]	n/a	catFR1	1	R1330D
1465.587	1.626	1466345	WORD	n/a	wordpools/wordpool_categorized_EN.txt	STOVE	Appliances	7	11	[0, 0, 0]	n/a	catFR1	1	R1330D
1467.213	0.972	1467971	WORD_OFF	n/a	n/a	STOVE	Appliances	7	11	[0, 0, 0]	n/a	catFR1	1	R1330D
1468.185	1.629	1468943	WORD	n/a	wordpools/wordpool_categorized_EN.txt	REFRIGERATOR	Appliances	8	11	[0, 0, 0]	n/a	catFR1	1	R1330D
1469.814	0.754	1470572	WORD_OFF	n/a	n/a	REFRIGERATOR	Appliances	8	11	[0, 0, 0]	n/a	catFR1	1	R1330D
1470.568	1.629	1471326	WORD	n/a	wordpools/wordpool_categorized_EN.txt	PANTS	Clothing	9	11	[0, 0, 0]	n/a	catFR1	1	R1330D
1472.197	1.036	1472955	WORD_OFF	n/a	n/a	PANTS	Clothing	9	11	[0, 0, 0]	n/a	catFR1	1	R1330D
1473.233	1.631	1473991	WORD	n/a	wordpools/wordpool_categorized_EN.txt	SHOES	Clothing	10	11	[0, 0, 0]	n/a	catFR1	1	R1330D
1474.864	0.9	1475622	WORD_OFF	n/a	n/a	SHOES	Clothing	10	11	[0, 0, 0]	n/a	catFR1	1	R1330D
1475.764	1.634	1476522	WORD	n/a	wordpools/wordpool_categorized_EN.txt	SUNFLOWER	Flowers	11	11	[0, 0, 0]	n/a	catFR1	1	R1330D
1477.398	0.89	1478156	WORD_OFF	n/a	n/a	SUNFLOWER	Flowers	11	11	[0, 0, 0]	n/a	catFR1	1	R1330D
1478.288	1.627	1479046	WORD	n/a	wordpools/wordpool_categorized_EN.txt	VIOLET	Flowers	12	11	[0, 0, 0]	n/a	catFR1	1	R1330D
1479.915	0.001	1480673	WORD_OFF	n/a	n/a	VIOLET	Flowers	12	11	[0, 0, 0]	n/a	catFR1	1	R1330D
1479.916	0.0	1480674	ENCODING_END	n/a	n/a	n/a	n/a	-999	11	[0, 0, 0]	n/a	catFR1	1	R1330D
1479.916	0.0	1480674	DISTRACT_START	n/a	n/a	n/a	n/a	-999	11	[0, 0, 0]	n/a	catFR1	1	R1330D
1479.916	0.016	1480674	START	n/a	n/a	n/a	n/a	-999	11	[-999, -999, -999]	n/a	catFR1	1	R1330D
1479.932	5.184	1480690	PROB	5.184	n/a	n/a	n/a	-999	11	[3, 6, 6]	15	catFR1	1	R1330D
1485.116	4.034	1485873	PROB	4.034	n/a	n/a	n/a	-999	11	[3, 8, 2]	13	catFR1	1	R1330D
1489.15	5.801	1489907	PROB	5.801	n/a	n/a	n/a	-999	11	[8, 6, 3]	17	catFR1	1	R1330D
1494.951	4.167	1495708	PROB	4.167	n/a	n/a	n/a	-999	11	[7, 1, 4]	12	catFR1	1	R1330D
1499.118	4.658	1499875	PROB	4.658	n/a	n/a	n/a	-999	11	[5, 9, 4]	18	catFR1	1	R1330D
1503.776	0.011	1504532	STOP	n/a	n/a	n/a	n/a	-999	11	[-999, -999, -999]	n/a	catFR1	1	R1330D
1503.787	0.68	1504543	DISTRACT_END	n/a	n/a	n/a	n/a	-999	11	[0, 0, 0]	n/a	catFR1	1	R1330D
1504.467	1.536	1505223	RETRIEVAL_ORIENT_START	n/a	n/a	n/a	n/a	-999	11	[0, 0, 0]	n/a	catFR1	1	R1330D
1506.003	0.001	1506759	RETRIEVAL_ORIENT_END	n/a	n/a	n/a	n/a	-999	11	[0, 0, 0]	n/a	catFR1	1	R1330D
1506.004	2.339	1506760	REC_START	n/a	n/a	n/a	n/a	-999	11	[0, 0, 0]	n/a	catFR1	1	R1330D
1508.343	1.163	1509099	REC_WORD	1.163	n/a	TULIP	Flowers	5	11	[0, 0, 0]	n/a	catFR1	1	R1330D
1509.506	4.147	1510262	REC_WORD	4.147	n/a	VIOLET	Flowers	12	11	[0, 0, 0]	n/a	catFR1	1	R1330D
1513.653	1.442	1514409	REC_WORD	1.442	n/a	STOVE	Appliances	7	11	[0, 0, 0]	n/a	catFR1	1	R1330D
1515.095	2.452	1515851	REC_WORD	2.452	n/a	REFRIGERATOR	Appliances	8	11	[0, 0, 0]	n/a	catFR1	1	R1330D
1517.547	6.638	1518303	REC_WORD	6.638	n/a	DRYER	Appliances	1	11	[0, 0, 0]	n/a	catFR1	1	R1330D
1524.185	11.833	1524940	REC_WORD	11.833	n/a	ROSE	Flowers	-999	11	[0, 0, 0]	n/a	catFR1	1	R1330D
1536.018	0.001	1536773	REC_END	n/a	n/a	n/a	n/a	-999	11	[0, 0, 0]	n/a	catFR1	1	R1330D
1536.019	0.025	1536774	TRIAL_END	n/a	n/a	n/a	n/a	-999	11	[0, 0, 0]	n/a	catFR1	1	R1330D
1536.044	0.0	1536799	TRIAL_START	n/a	n/a	n/a	n/a	-999	12	[0, 0, 0]	n/a	catFR1	1	R1330D
1536.044	0.0	1536799	TRIAL	n/a	n/a	n/a	n/a	-999	12	[0, 0, 0]	n/a	catFR1	1	R1330D
1536.044	2.965	1536799	WAITING_START	n/a	n/a	n/a	n/a	-999	12	[0, 0, 0]	n/a	catFR1	1	R1330D
1539.009	0.0	1539764	COUNTDOWN_START	n/a	n/a	n/a	n/a	-999	12	[0, 0, 0]	n/a	catFR1	1	R1330D
1539.009	10.43	1539764	WAITING_END	n/a	n/a	n/a	n/a	-999	12	[0, 0, 0]	n/a	catFR1	1	R1330D
1549.439	0.0	1550193	COUNTDOWN_END	n/a	n/a	n/a	n/a	-999	12	[0, 0, 0]	n/a	catFR1	1	R1330D
1549.439	1.189	1550193	ORIENT_START	n/a	n/a	n/a	n/a	-999	12	[0, 0, 0]	n/a	catFR1	1	R1330D
1550.628	0.0	1551382	ORIENT_END	n/a	n/a	n/a	n/a	-999	12	[0, 0, 0]	n/a	catFR1	1	R1330D
1550.628	1.138	1551382	ENCODING_START	n/a	n/a	n/a	n/a	-999	12	[0, 0, 0]	n/a	catFR1	1	R1330D
1551.766	1.629	1552520	WORD	n/a	wordpools/wordpool_categorized_EN.txt	PASTRY	Desserts	1	12	[0, 0, 0]	n/a	catFR1	1	R1330D
1553.395	0.891	1554149	WORD_OFF	n/a	n/a	PASTRY	Desserts	1	12	[0, 0, 0]	n/a	catFR1	1	R1330D
1554.286	1.626	1555040	WORD	n/a	wordpools/wordpool_categorized_EN.txt	JELLO	Desserts	2	12	[0, 0, 0]	n/a	catFR1	1	R1330D
1555.912	0.784	1556666	WORD_OFF	n/a	n/a	JELLO	Desserts	2	12	[0, 0, 0]	n/a	catFR1	1	R1330D
1556.696	1.633	1557450	WORD	n/a	wordpools/wordpool_categorized_EN.txt	DRESSER	Furniture	3	12	[0, 0, 0]	n/a	catFR1	1	R1330D
1558.329	0.763	1559083	WORD_OFF	n/a	n/a	DRESSER	Furniture	3	12	[0, 0, 0]	n/a	catFR1	1	R1330D
1559.092	1.638	1559846	WORD	n/a	wordpools/wordpool_categorized_EN.txt	CHAIR	Furniture	4	12	[0, 0, 0]	n/a	catFR1	1	R1330D
1560.73	1.079	1561484	WORD_OFF	n/a	n/a	CHAIR	Furniture	4	12	[0, 0, 0]	n/a	catFR1	1	R1330D
1561.809	1.638	1562563	WORD	n/a	wordpools/wordpool_categorized_EN.txt	BUTTERFLY	Insects	5	12	[0, 0, 0]	n/a	catFR1	1	R1330D
1563.447	1.088	1564200	WORD_OFF	n/a	n/a	BUTTERFLY	Insects	5	12	[0, 0, 0]	n/a	catFR1	1	R1330D
1564.535	1.629	1565288	WORD	n/a	wordpools/wordpool_categorized_EN.txt	ROACH	Insects	6	12	[0, 0, 0]	n/a	catFR1	1	R1330D
1566.164	0.916	1566917	WORD_OFF	n/a	n/a	ROACH	Insects	6	12	[0, 0, 0]	n/a	catFR1	1	R1330D
1567.08	1.635	1567833	WORD	n/a	wordpools/wordpool_categorized_EN.txt	BED	Furniture	7	12	[0, 0, 0]	n/a	catFR1	1	R1330D
1568.715	0.983	1569468	WORD_OFF	n/a	n/a	BED	Furniture	7	12	[0, 0, 0]	n/a	catFR1	1	R1330D
1569.698	1.634	1570451	WORD	n/a	wordpools/wordpool_categorized_EN.txt	BOOKCASE	Furniture	8	12	[0, 0, 0]	n/a	catFR1	1	R1330D
1571.332	0.797	1572085	WORD_OFF	n/a	n/a	BOOKCASE	Furniture	8	12	[0, 0, 0]	n/a	catFR1	1	R1330D
1572.129	1.638	1572882	WORD	n/a	wordpools/wordpool_categorized_EN.txt	CRICKET	Insects	9	12	[0, 0, 0]	n/a	catFR1	1	R1330D
1573.767	0.783	1574520	WORD_OFF	n/a	n/a	CRICKET	Insects	9	12	[0, 0, 0]	n/a	catFR1	1	R1330D
1574.55	1.633	1575303	WORD	n/a	wordpools/wordpool_categorized_EN.txt	BEETLE	Insects	10	12	[0, 0, 0]	n/a	catFR1	1	R1330D
1576.183	0.972	1576936	WORD_OFF	n/a	n/a	BEETLE	Insects	10	12	[0, 0, 0]	n/a	catFR1	1	R1330D
1577.155	1.613	1577908	WORD	n/a	wordpools/wordpool_categorized_EN.txt	CAKE	Desserts	11	12	[0, 0, 0]	n/a	catFR1	1	R1330D
1578.768	1.08	1579521	WORD_OFF	n/a	n/a	CAKE	Desserts	11	12	[0, 0, 0]	n/a	catFR1	1	R1330D
1579.848	1.636	1580601	WORD	n/a	wordpools/wordpool_categorized_EN.txt	CHEESECAKE	Desserts	12	12	[0, 0, 0]	n/a	catFR1	1	R1330D
1581.484	0.0	1582237	DISTRACT_START	n/a	n/a	n/a	n/a	-999	12	[0, 0, 0]	n/a	catFR1	1	R1330D
1581.484	0.0	1582237	WORD_OFF	n/a	n/a	CHEESECAKE	Desserts	12	12	[0, 0, 0]	n/a	catFR1	1	R1330D
1581.484	0.001	1582237	ENCODING_END	n/a	n/a	n/a	n/a	-999	12	[0, 0, 0]	n/a	catFR1	1	R1330D
1581.485	0.015	1582238	START	n/a	n/a	n/a	n/a	-999	12	[-999, -999, -999]	n/a	catFR1	1	R1330D
1581.5	3.934	1582253	PROB	3.934	n/a	n/a	n/a	-999	12	[1, 1, 6]	8	catFR1	1	R1330D
1585.434	6.701	1586186	PROB	6.701	n/a	n/a	n/a	-999	12	[3, 5, 8]	16	catFR1	1	R1330D
1592.135	4.084	1592887	PROB	4.084	n/a	n/a	n/a	-999	12	[8, 2, 6]	16	catFR1	1	R1330D
1596.219	4.035	1596971	PROB	4.035	n/a	n/a	n/a	-999	12	[8, 2, 1]	11	catFR1	1	R1330D
1600.254	4.748	1601006	PROB	4.748	n/a	n/a	n/a	-999	12	[6, 9, 9]	25	catFR1	1	R1330D
1605.002	0.019	1605753	STOP	n/a	n/a	n/a	n/a	-999	12	[-999, -999, -999]	n/a	catFR1	1	R1330D
1605.021	0.616	1605772	DISTRACT_END	n/a	n/a	n/a	n/a	-999	12	[0, 0, 0]	n/a	catFR1	1	R1330D
1605.637	1.701	1606388	RETRIEVAL_ORIENT_START	n/a	n/a	n/a	n/a	-999	12	[0, 0, 0]	n/a	catFR1	1	R1330D
1607.338	0.001	1608089	RETRIEVAL_ORIENT_END	n/a	n/a	n/a	n/a	-999	12	[0, 0, 0]	n/a	catFR1	1	R1330D
1607.339	1.373	1608090	REC_START	n/a	n/a	n/a	n/a	-999	12	[0, 0, 0]	n/a	catFR1	1	R1330D
1608.712	10.243	1609463	REC_WORD_VV	10.243	n/a	<>	n/a	-999	12	[0, 0, 0]	n/a	catFR1	1	R1330D
1618.955	1.27	1619706	REC_WORD_VV	1.27	n/a	<>	n/a	-999	12	[0, 0, 0]	n/a	catFR1	1	R1330D
1620.225	1.696	1620976	REC_WORD_VV	1.696	n/a	<>	n/a	-999	12	[0, 0, 0]	n/a	catFR1	1	R1330D
1621.921	1.106	1622672	REC_WORD	1.106	n/a	CRICKET	Insects	9	12	[0, 0, 0]	n/a	catFR1	1	R1330D
1623.027	2.247	1623777	REC_WORD	2.247	n/a	COCKROACH	n/a	-999	12	[0, 0, 0]	n/a	catFR1	1	R1330D
1625.274	2.406	1626024	REC_WORD	2.406	n/a	BEETLE	Insects	10	12	[0, 0, 0]	n/a	catFR1	1	R1330D
1627.68	1.287	1628430	REC_WORD	1.287	n/a	DRESSER	Furniture	3	12	[0, 0, 0]	n/a	catFR1	1	R1330D
1628.967	4.539	1629717	REC_WORD	4.539	n/a	BED	Furniture	7	12	[0, 0, 0]	n/a	catFR1	1	R1330D
1633.506	0.701	1634256	REC_WORD_VV	0.701	n/a	<>	n/a	-999	12	[0, 0, 0]	n/a	catFR1	1	R1330D
1634.207	1.003	1634957	REC_WORD	1.003	n/a	CHEESECAKE	Desserts	12	12	[0, 0, 0]	n/a	catFR1	1	R1330D
1635.21	0.738	1635960	REC_WORD	0.738	n/a	CAKE	Desserts	11	12	[0, 0, 0]	n/a	catFR1	1	R1330D
1635.948	0.759	1636698	REC_WORD	0.759	n/a	JELLO	Desserts	2	12	[0, 0, 0]	n/a	catFR1	1	R1330D
1636.707	0.644	1637457	REC_WORD	0.644	n/a	PASTRY	Desserts	1	12	[0, 0, 0]	n/a	catFR1	1	R1330D
1637.351	0.0	1638101	REC_END	n/a	n/a	n/a	n/a	-999	12	[0, 0, 0]	n/a	catFR1	1	R1330D
1637.351	0.022	1638101	TRIAL_END	n/a	n/a	n/a	n/a	-999	12	[0, 0, 0]	n/a	catFR1	1	R1330D
1637.373	0.0	1638123	WAITING_START	n/a	n/a	n/a	n/a	-999	13	[0, 0, 0]	n/a	catFR1	1	R1330D
1637.373	0.0	1638123	TRIAL_START	n/a	n/a	n/a	n/a	-999	13	[0, 0, 0]	n/a	catFR1	1	R1330D
1637.373	3.205	1638123	TRIAL	n/a	n/a	n/a	n/a	-999	13	[0, 0, 0]	n/a	catFR1	1	R1330D
1640.578	0.0	1641328	WAITING_END	n/a	n/a	n/a	n/a	-999	13	[0, 0, 0]	n/a	catFR1	1	R1330D
1640.578	10.43	1641328	COUNTDOWN_START	n/a	n/a	n/a	n/a	-999	13	[0, 0, 0]	n/a	catFR1	1	R1330D
1651.008	0.0	1651757	COUNTDOWN_END	n/a	n/a	n/a	n/a	-999	13	[0, 0, 0]	n/a	catFR1	1	R1330D
1651.008	1.172	1651757	ORIENT_START	n/a	n/a	n/a	n/a	-999	13	[0, 0, 0]	n/a	catFR1	1	R1330D
1652.18	0.0	1652929	ENCODING_START	n/a	n/a	n/a	n/a	-999	13	[0, 0, 0]	n/a	catFR1	1	R1330D
1652.18	0.794	1652929	ORIENT_END	n/a	n/a	n/a	n/a	-999	13	[0, 0, 0]	n/a	catFR1	1	R1330D
1652.974	1.623	1653723	WORD	n/a	wordpools/wordpool_categorized_EN.txt	FLOOR	Building	1	13	[0, 0, 0]	n/a	catFR1	1	R1330D
1654.597	1.083	1655346	WORD_OFF	n/a	n/a	FLOOR	Building	1	13	[0, 0, 0]	n/a	catFR1	1	R1330D
1655.68	1.634	1656429	WORD	n/a	wordpools/wordpool_categorized_EN.txt	STAIRS	Building	2	13	[0, 0, 0]	n/a	catFR1	1	R1330D
1657.314	0.976	1658063	WORD_OFF	n/a	n/a	STAIRS	Building	2	13	[0, 0, 0]	n/a	catFR1	1	R1330D
1658.29	1.625	1659039	WORD	n/a	wordpools/wordpool_categorized_EN.txt	BULL	FarmAnimals	3	13	[0, 0, 0]	n/a	catFR1	1	R1330D
1659.915	0.953	1660664	WORD_OFF	n/a	n/a	BULL	FarmAnimals	3	13	[0, 0, 0]	n/a	catFR1	1	R1330D
1660.868	1.63	1661617	WORD	n/a	wordpools/wordpool_categorized_EN.txt	TURKEY	FarmAnimals	4	13	[0, 0, 0]	n/a	catFR1	1	R1330D
1662.498	1.013	1663246	WORD_OFF	n/a	n/a	TURKEY	FarmAnimals	4	13	[0, 0, 0]	n/a	catFR1	1	R1330D
1663.511	1.638	1664259	WORD	n/a	wordpools/wordpool_categorized_EN.txt	BINDER	OfficeSupplies	5	13	[0, 0, 0]	n/a	catFR1	1	R1330D
1665.149	0.99	1665897	WORD_OFF	n/a	n/a	BINDER	OfficeSupplies	5	13	[0, 0, 0]	n/a	catFR1	1	R1330D
1666.139	1.628	1666887	WORD	n/a	wordpools/wordpool_categorized_EN.txt	RULER	OfficeSupplies	6	13	[0, 0, 0]	n/a	catFR1	1	R1330D
1667.767	1.147	1668515	WORD_OFF	n/a	n/a	RULER	OfficeSupplies	6	13	[0, 0, 0]	n/a	catFR1	1	R1330D
1668.914	1.636	1669662	WORD	n/a	wordpools/wordpool_categorized_EN.txt	CHICKEN	FarmAnimals	7	13	[0, 0, 0]	n/a	catFR1	1	R1330D
1670.55	1.08	1671298	WORD_OFF	n/a	n/a	CHICKEN	FarmAnimals	7	13	[0, 0, 0]	n/a	catFR1	1	R1330D
1671.63	1.637	1672378	WORD	n/a	wordpools/wordpool_categorized_EN.txt	CALF	FarmAnimals	8	13	[0, 0, 0]	n/a	catFR1	1	R1330D
1673.267	0.87	1674015	WORD_OFF	n/a	n/a	CALF	FarmAnimals	8	13	[0, 0, 0]	n/a	catFR1	1	R1330D
1674.137	1.631	1674885	WORD	n/a	wordpools/wordpool_categorized_EN.txt	FOLDER	OfficeSupplies	9	13	[0, 0, 0]	n/a	catFR1	1	R1330D
1675.768	0.763	1676516	WORD_OFF	n/a	n/a	FOLDER	OfficeSupplies	9	13	[0, 0, 0]	n/a	catFR1	1	R1330D
1676.531	1.637	1677279	WORD	n/a	wordpools/wordpool_categorized_EN.txt	PEN	OfficeSupplies	10	13	[0, 0, 0]	n/a	catFR1	1	R1330D
1678.168	0.85	1678916	WORD_OFF	n/a	n/a	PEN	OfficeSupplies	10	13	[0, 0, 0]	n/a	catFR1	1	R1330D
1679.018	1.634	1679766	WORD	n/a	wordpools/wordpool_categorized_EN.txt	HALLWAY	Building	11	13	[0, 0, 0]	n/a	catFR1	1	R1330D
1680.652	0.835	1681400	WORD_OFF	n/a	n/a	HALLWAY	Building	11	13	[0, 0, 0]	n/a	catFR1	1	R1330D
1681.487	1.632	1682235	WORD	n/a	wordpools/wordpool_categorized_EN.txt	FOUNDATION	Building	12	13	[0, 0, 0]	n/a	catFR1	1	R1330D
1683.119	0.0	1683866	WORD_OFF	n/a	n/a	FOUNDATION	Building	12	13	[0, 0, 0]	n/a	catFR1	1	R1330D
1683.119	0.001	1683866	ENCODING_END	n/a	n/a	n/a	n/a	-999	13	[0, 0, 0]	n/a	catFR1	1	R1330D
1683.12	0.0	1683867	DISTRACT_START	n/a	n/a	n/a	n/a	-999	13	[0, 0, 0]	n/a	catFR1	1	R1330D
1683.12	0.015	1683867	START	n/a	n/a	n/a	n/a	-999	13	[-999, -999, -999]	n/a	catFR1	1	R1330D
1683.135	7.202	1683882	PROB	7.202	n/a	n/a	n/a	-999	13	[4, 9, 1]	14	catFR1	1	R1330D
1690.337	3.6	1691084	PROB	3.6	n/a	n/a	n/a	-999	13	[2, 1, 8]	11	catFR1	1	R1330D
1693.937	3.618	1694684	PROB	3.618	n/a	n/a	n/a	-999	13	[6, 1, 9]	16	catFR1	1	R1330D
1697.555	4.884	1698302	PROB	4.884	n/a	n/a	n/a	-999	13	[4, 6, 1]	11	catFR1	1	R1330D
1702.439	5.94	1703185	PROB	5.94	n/a	n/a	n/a	-999	13	[3, 8, 1]	12	catFR1	1	R1330D
1708.379	0.011	1709125	STOP	n/a	n/a	n/a	n/a	-999	13	[-999, -999, -999]	n/a	catFR1	1	R1330D
1708.39	0.525	1709136	DISTRACT_END	n/a	n/a	n/a	n/a	-999	13	[0, 0, 0]	n/a	catFR1	1	R1330D
1708.915	1.709	1709661	RETRIEVAL_ORIENT_START	n/a	n/a	n/a	n/a	-999	13	[0, 0, 0]	n/a	catFR1	1	R1330D
1710.624	0.0	1711370	RETRIEVAL_ORIENT_END	n/a	n/a	n/a	n/a	-999	13	[0, 0, 0]	n/a	catFR1	1	R1330D
1710.624	2.521	1711370	REC_START	n/a	n/a	n/a	n/a	-999	13	[0, 0, 0]	n/a	catFR1	1	R1330D
1713.145	0.524	1713891	REC_WORD	0.524	n/a	PEN	OfficeSupplies	10	13	[0, 0, 0]	n/a	catFR1	1	R1330D
1713.669	2.693	1714415	REC_WORD	2.693	n/a	HALLWAY	Building	11	13	[0, 0, 0]	n/a	catFR1	1	R1330D
1716.362	0.675	1717108	REC_WORD	0.675	n/a	BINDER	OfficeSupplies	5	13	[0, 0, 0]	n/a	catFR1	1	R1330D
1717.037	4.26	1717783	REC_WORD	4.26	n/a	FOLDER	OfficeSupplies	9	13	[0, 0, 0]	n/a	catFR1	1	R1330D
1721.297	19.341	1722043	REC_WORD	19.341	n/a	FOUNDATION	Building	12	13	[0, 0, 0]	n/a	catFR1	1	R1330D
1740.638	0.001	1741383	REC_END	n/a	n/a	n/a	n/a	-999	13	[0, 0, 0]	n/a	catFR1	1	R1330D
1740.639	0.025	1741384	TRIAL_END	n/a	n/a	n/a	n/a	-999	13	[0, 0, 0]	n/a	catFR1	1	R1330D
1740.664	0.0	1741409	TRIAL_START	n/a	n/a	n/a	n/a	-999	14	[0, 0, 0]	n/a	catFR1	1	R1330D
1740.664	0.0	1741409	TRIAL	n/a	n/a	n/a	n/a	-999	14	[0, 0, 0]	n/a	catFR1	1	R1330D
1740.664	2.749	1741409	WAITING_START	n/a	n/a	n/a	n/a	-999	14	[0, 0, 0]	n/a	catFR1	1	R1330D
1743.413	0.0	1744157	COUNTDOWN_START	n/a	n/a	n/a	n/a	-999	14	[0, 0, 0]	n/a	catFR1	1	R1330D
1743.413	10.429	1744157	WAITING_END	n/a	n/a	n/a	n/a	-999	14	[0, 0, 0]	n/a	catFR1	1	R1330D
1753.842	0.0	1754586	COUNTDOWN_END	n/a	n/a	n/a	n/a	-999	14	[0, 0, 0]	n/a	catFR1	1	R1330D
1753.842	1.157	1754586	ORIENT_START	n/a	n/a	n/a	n/a	-999	14	[0, 0, 0]	n/a	catFR1	1	R1330D
1754.999	0.0	1755743	ORIENT_END	n/a	n/a	n/a	n/a	-999	14	[0, 0, 0]	n/a	catFR1	1	R1330D
1754.999	0.869	1755743	ENCODING_START	n/a	n/a	n/a	n/a	-999	14	[0, 0, 0]	n/a	catFR1	1	R1330D
1755.868	1.631	1756612	WORD	n/a	wordpools/wordpool_categorized_EN.txt	LILAC	Flowers	1	14	[0, 0, 0]	n/a	catFR1	1	R1330D
1757.499	1.044	1758243	WORD_OFF	n/a	n/a	LILAC	Flowers	1	14	[0, 0, 0]	n/a	catFR1	1	R1330D
1758.543	1.623	1759287	WORD	n/a	wordpools/wordpool_categorized_EN.txt	DAFFODIL	Flowers	2	14	[0, 0, 0]	n/a	catFR1	1	R1330D
1760.166	0.835	1760910	WORD_OFF	n/a	n/a	DAFFODIL	Flowers	2	14	[0, 0, 0]	n/a	catFR1	1	R1330D
1761.001	1.632	1761745	WORD	n/a	wordpools/wordpool_categorized_EN.txt	CREEK	Landscapes	3	14	[0, 0, 0]	n/a	catFR1	1	R1330D
1762.633	0.777	1763376	WORD_OFF	n/a	n/a	CREEK	Landscapes	3	14	[0, 0, 0]	n/a	catFR1	1	R1330D
1763.41	1.624	1764153	WORD	n/a	wordpools/wordpool_categorized_EN.txt	RIVER	Landscapes	4	14	[0, 0, 0]	n/a	catFR1	1	R1330D
1765.034	0.962	1765777	WORD_OFF	n/a	n/a	RIVER	Landscapes	4	14	[0, 0, 0]	n/a	catFR1	1	R1330D
1765.996	1.638	1766739	WORD	n/a	wordpools/wordpool_categorized_EN.txt	CRAB	OceanAnimals	5	14	[0, 0, 0]	n/a	catFR1	1	R1330D
1767.634	0.853	1768377	WORD_OFF	n/a	n/a	CRAB	OceanAnimals	5	14	[0, 0, 0]	n/a	catFR1	1	R1330D
1768.487	1.631	1769230	WORD	n/a	wordpools/wordpool_categorized_EN.txt	FISH	OceanAnimals	6	14	[0, 0, 0]	n/a	catFR1	1	R1330D
1770.118	0.763	1770861	WORD_OFF	n/a	n/a	FISH	OceanAnimals	6	14	[0, 0, 0]	n/a	catFR1	1	R1330D
1770.881	1.637	1771624	WORD	n/a	wordpools/wordpool_categorized_EN.txt	PETUNIA	Flowers	7	14	[0, 0, 0]	n/a	catFR1	1	R1330D
1772.518	0.962	1773261	WORD_OFF	n/a	n/a	PETUNIA	Flowers	7	14	[0, 0, 0]	n/a	catFR1	1	R1330D
1773.48	1.639	1774223	WORD	n/a	wordpools/wordpool_categorized_EN.txt	MARIGOLD	Flowers	8	14	[0, 0, 0]	n/a	catFR1	1	R1330D
1775.119	0.858	1775862	WORD_OFF	n/a	n/a	MARIGOLD	Flowers	8	14	[0, 0, 0]	n/a	catFR1	1	R1330D
1775.977	1.626	1776720	WORD	n/a	wordpools/wordpool_categorized_EN.txt	MOUNTAIN	Landscapes	9	14	[0, 0, 0]	n/a	catFR1	1	R1330D
1777.603	1.103	1778346	WORD_OFF	n/a	n/a	MOUNTAIN	Landscapes	9	14	[0, 0, 0]	n/a	catFR1	1	R1330D
1778.706	1.631	1779449	WORD	n/a	wordpools/wordpool_categorized_EN.txt	LAKE	Landscapes	10	14	[0, 0, 0]	n/a	catFR1	1	R1330D
1780.337	1.119	1781080	WORD_OFF	n/a	n/a	LAKE	Landscapes	10	14	[0, 0, 0]	n/a	catFR1	1	R1330D
1781.456	1.631	1782199	WORD	n/a	wordpools/wordpool_categorized_EN.txt	OYSTER	OceanAnimals	11	14	[0, 0, 0]	n/a	catFR1	1	R1330D
1783.087	1.075	1783829	WORD_OFF	n/a	n/a	OYSTER	OceanAnimals	11	14	[0, 0, 0]	n/a	catFR1	1	R1330D
1784.162	1.626	1784904	WORD	n/a	wordpools/wordpool_categorized_EN.txt	TURTLE	OceanAnimals	12	14	[0, 0, 0]	n/a	catFR1	1	R1330D
1785.788	0.001	1786530	WORD_OFF	n/a	n/a	TURTLE	OceanAnimals	12	14	[0, 0, 0]	n/a	catFR1	1	R1330D
1785.789	0.0	1786531	DISTRACT_START	n/a	n/a	n/a	n/a	-999	14	[0, 0, 0]	n/a	catFR1	1	R1330D
1785.789	0.0	1786531	ENCODING_END	n/a	n/a	n/a	n/a	-999	14	[0, 0, 0]	n/a	catFR1	1	R1330D
1785.789	0.016	1786531	START	n/a	n/a	n/a	n/a	-999	14	[-999, -999, -999]	n/a	catFR1	1	R1330D
1785.805	4.75	1786547	PROB	4.75	n/a	n/a	n/a	-999	14	[2, 5, 9]	16	catFR1	1	R1330D
1790.555	4.367	1791297	PROB	4.367	n/a	n/a	n/a	-999	14	[5, 8, 6]	20	catFR1	1	R1330D
1794.922	4.468	1795664	PROB	4.468	n/a	n/a	n/a	-999	14	[6, 7, 3]	16	catFR1	1	R1330D
1799.39	3.35	1800132	PROB	3.35	n/a	n/a	n/a	-999	14	[5, 2, 5]	12	catFR1	1	R1330D
1802.74	4.996	1803481	PROB	4.996	n/a	n/a	n/a	-999	14	[3, 5, 4]	12	catFR1	1	R1330D
1807.736	0.023	1808477	STOP	n/a	n/a	n/a	n/a	-999	14	[-999, -999, -999]	n/a	catFR1	1	R1330D
1807.759	0.609	1808500	DISTRACT_END	n/a	n/a	n/a	n/a	-999	14	[0, 0, 0]	n/a	catFR1	1	R1330D
1808.368	1.707	1809109	RETRIEVAL_ORIENT_START	n/a	n/a	n/a	n/a	-999	14	[0, 0, 0]	n/a	catFR1	1	R1330D
1810.075	0.001	1810816	RETRIEVAL_ORIENT_END	n/a	n/a	n/a	n/a	-999	14	[0, 0, 0]	n/a	catFR1	1	R1330D
1810.076	1.451	1810817	REC_START	n/a	n/a	n/a	n/a	-999	14	[0, 0, 0]	n/a	catFR1	1	R1330D
1811.527	0.917	1812268	REC_WORD	0.917	n/a	DAFFODIL	Flowers	2	14	[0, 0, 0]	n/a	catFR1	1	R1330D
1812.444	1.556	1813185	REC_WORD	1.556	n/a	TULIP	Flowers	-999	14	[0, 0, 0]	n/a	catFR1	1	R1330D
1814.0	2.206	1814741	REC_WORD	2.206	n/a	MARIGOLD	Flowers	8	14	[0, 0, 0]	n/a	catFR1	1	R1330D
1816.206	3.896	1816947	REC_WORD	3.896	n/a	PETUNIA	Flowers	7	14	[0, 0, 0]	n/a	catFR1	1	R1330D
1820.102	0.862	1820843	REC_WORD	0.862	n/a	CREEK	Landscapes	3	14	[0, 0, 0]	n/a	catFR1	1	R1330D
1820.964	1.063	1821705	REC_WORD	1.063	n/a	FISH	OceanAnimals	6	14	[0, 0, 0]	n/a	catFR1	1	R1330D
1822.027	1.864	1822768	REC_WORD	1.864	n/a	OYSTER	OceanAnimals	11	14	[0, 0, 0]	n/a	catFR1	1	R1330D
1823.891	1.388	1824631	REC_WORD	1.388	n/a	MOUNTAIN	Landscapes	9	14	[0, 0, 0]	n/a	catFR1	1	R1330D
1825.279	4.353	1826019	REC_WORD	4.353	n/a	CRAB	OceanAnimals	5	14	[0, 0, 0]	n/a	catFR1	1	R1330D
1829.632	10.456	1830372	REC_WORD	10.456	n/a	LAKE	Landscapes	10	14	[0, 0, 0]	n/a	catFR1	1	R1330D
1840.088	0.001	1840828	REC_END	n/a	n/a	n/a	n/a	-999	14	[0, 0, 0]	n/a	catFR1	1	R1330D
1840.089	0.022	1840829	TRIAL_END	n/a	n/a	n/a	n/a	-999	14	[0, 0, 0]	n/a	catFR1	1	R1330D
1840.111	0.0	1840851	TRIAL_START	n/a	n/a	n/a	n/a	-999	15	[0, 0, 0]	n/a	catFR1	1	R1330D
1840.111	0.0	1840851	TRIAL	n/a	n/a	n/a	n/a	-999	15	[0, 0, 0]	n/a	catFR1	1	R1330D
1840.111	2.787	1840851	WAITING_START	n/a	n/a	n/a	n/a	-999	15	[0, 0, 0]	n/a	catFR1	1	R1330D
1842.898	0.0	1843637	COUNTDOWN_START	n/a	n/a	n/a	n/a	-999	15	[0, 0, 0]	n/a	catFR1	1	R1330D
1842.898	10.429	1843637	WAITING_END	n/a	n/a	n/a	n/a	-999	15	[0, 0, 0]	n/a	catFR1	1	R1330D
1853.327	0.001	1854066	COUNTDOWN_END	n/a	n/a	n/a	n/a	-999	15	[0, 0, 0]	n/a	catFR1	1	R1330D
1853.328	1.239	1854067	ORIENT_START	n/a	n/a	n/a	n/a	-999	15	[0, 0, 0]	n/a	catFR1	1	R1330D
1854.567	0.0	1855306	ORIENT_END	n/a	n/a	n/a	n/a	-999	15	[0, 0, 0]	n/a	catFR1	1	R1330D
1854.567	0.924	1855306	ENCODING_START	n/a	n/a	n/a	n/a	-999	15	[0, 0, 0]	n/a	catFR1	1	R1330D
1855.491	1.626	1856230	WORD	n/a	wordpools/wordpool_categorized_EN.txt	TEA	Beverages	1	15	[0, 0, 0]	n/a	catFR1	1	R1330D
1857.117	0.982	1857856	WORD_OFF	n/a	n/a	TEA	Beverages	1	15	[0, 0, 0]	n/a	catFR1	1	R1330D
1858.099	1.635	1858838	WORD	n/a	wordpools/wordpool_categorized_EN.txt	CIDER	Beverages	2	15	[0, 0, 0]	n/a	catFR1	1	R1330D
1859.734	1.137	1860473	WORD_OFF	n/a	n/a	CIDER	Beverages	2	15	[0, 0, 0]	n/a	catFR1	1	R1330D
1860.871	1.63	1861610	WORD	n/a	wordpools/wordpool_categorized_EN.txt	SPARROW	Birds	3	15	[0, 0, 0]	n/a	catFR1	1	R1330D
1862.501	0.938	1863239	WORD_OFF	n/a	n/a	SPARROW	Birds	3	15	[0, 0, 0]	n/a	catFR1	1	R1330D
1863.439	1.63	1864177	WORD	n/a	wordpools/wordpool_categorized_EN.txt	GOOSE	Birds	4	15	[0, 0, 0]	n/a	catFR1	1	R1330D
1865.069	1.147	1865807	WORD_OFF	n/a	n/a	GOOSE	Birds	4	15	[0, 0, 0]	n/a	catFR1	1	R1330D
1866.216	1.636	1866954	WORD	n/a	wordpools/wordpool_categorized_EN.txt	EVERGREEN	Trees	5	15	[0, 0, 0]	n/a	catFR1	1	R1330D
1867.852	0.826	1868590	WORD_OFF	n/a	n/a	EVERGREEN	Trees	5	15	[0, 0, 0]	n/a	catFR1	1	R1330D
1868.678	1.625	1869416	WORD	n/a	wordpools/wordpool_categorized_EN.txt	OAK	Trees	6	15	[0, 0, 0]	n/a	catFR1	1	R1330D
1870.303	1.018	1871041	WORD_OFF	n/a	n/a	OAK	Trees	6	15	[0, 0, 0]	n/a	catFR1	1	R1330D
1871.321	1.632	1872059	WORD	n/a	wordpools/wordpool_categorized_EN.txt	MILK	Beverages	7	15	[0, 0, 0]	n/a	catFR1	1	R1330D
1872.953	1.008	1873691	WORD_OFF	n/a	n/a	MILK	Beverages	7	15	[0, 0, 0]	n/a	catFR1	1	R1330D
1873.961	1.626	1874699	WORD	n/a	wordpools/wordpool_categorized_EN.txt	SODA	Beverages	8	15	[0, 0, 0]	n/a	catFR1	1	R1330D
1875.587	0.813	1876325	WORD_OFF	n/a	n/a	SODA	Beverages	8	15	[0, 0, 0]	n/a	catFR1	1	R1330D
1876.4	1.638	1877138	WORD	n/a	wordpools/wordpool_categorized_EN.txt	WILLOW	Trees	9	15	[0, 0, 0]	n/a	catFR1	1	R1330D
1878.038	1.072	1878776	WORD_OFF	n/a	n/a	WILLOW	Trees	9	15	[0, 0, 0]	n/a	catFR1	1	R1330D
1879.11	1.628	1879848	WORD	n/a	wordpools/wordpool_categorized_EN.txt	WALNUT	Trees	10	15	[0, 0, 0]	n/a	catFR1	1	R1330D
1880.738	1.019	1881476	WORD_OFF	n/a	n/a	WALNUT	Trees	10	15	[0, 0, 0]	n/a	catFR1	1	R1330D
1881.757	1.632	1882495	WORD	n/a	wordpools/wordpool_categorized_EN.txt	PIGEON	Birds	11	15	[0, 0, 0]	n/a	catFR1	1	R1330D
1883.389	1.007	1884126	WORD_OFF	n/a	n/a	PIGEON	Birds	11	15	[0, 0, 0]	n/a	catFR1	1	R1330D
1884.396	1.626	1885133	WORD	n/a	wordpools/wordpool_categorized_EN.txt	DUCK	Birds	12	15	[0, 0, 0]	n/a	catFR1	1	R1330D
1886.022	0.001	1886759	WORD_OFF	n/a	n/a	DUCK	Birds	12	15	[0, 0, 0]	n/a	catFR1	1	R1330D
1886.023	0.0	1886760	DISTRACT_START	n/a	n/a	n/a	n/a	-999	15	[0, 0, 0]	n/a	catFR1	1	R1330D
1886.023	0.001	1886760	ENCODING_END	n/a	n/a	n/a	n/a	-999	15	[0, 0, 0]	n/a	catFR1	1	R1330D
1886.024	0.015	1886761	START	n/a	n/a	n/a	n/a	-999	15	[-999, -999, -999]	n/a	catFR1	1	R1330D
1886.039	4.768	1886776	PROB	4.768	n/a	n/a	n/a	-999	15	[2, 5, 2]	9	catFR1	1	R1330D
1890.807	4.467	1891544	PROB	4.467	n/a	n/a	n/a	-999	15	[3, 2, 5]	10	catFR1	1	R1330D
1895.274	4.651	1896011	PROB	4.651	n/a	n/a	n/a	-999	15	[7, 7, 7]	21	catFR1	1	R1330D
1899.925	3.917	1900662	PROB	3.917	n/a	n/a	n/a	-999	15	[1, 3, 8]	12	catFR1	1	R1330D
1903.842	4.691	1904578	PROB	4.691	n/a	n/a	n/a	-999	15	[3, 9, 7]	19	catFR1	1	R1330D
1908.533	0.01	1909269	STOP	n/a	n/a	n/a	n/a	-999	15	[-999, -999, -999]	n/a	catFR1	1	R1330D
1908.543	0.519	1909279	DISTRACT_END	n/a	n/a	n/a	n/a	-999	15	[0, 0, 0]	n/a	catFR1	1	R1330D
1909.062	1.631	1909798	RETRIEVAL_ORIENT_START	n/a	n/a	n/a	n/a	-999	15	[0, 0, 0]	n/a	catFR1	1	R1330D
1910.693	0.001	1911429	RETRIEVAL_ORIENT_END	n/a	n/a	n/a	n/a	-999	15	[0, 0, 0]	n/a	catFR1	1	R1330D
1910.694	4.498	1911430	REC_START	n/a	n/a	n/a	n/a	-999	15	[0, 0, 0]	n/a	catFR1	1	R1330D
1915.192	1.426	1915928	REC_WORD	1.426	n/a	SPARROW	Birds	3	15	[0, 0, 0]	n/a	catFR1	1	R1330D
1916.618	19.579	1917354	REC_WORD	19.579	n/a	EVERGREEN	Trees	5	15	[0, 0, 0]	n/a	catFR1	1	R1330D
1936.197	4.509	1936932	REC_WORD	4.509	n/a	TEA	Beverages	1	15	[0, 0, 0]	n/a	catFR1	1	R1330D
1940.706	0.0	1941441	TRIAL_END	n/a	n/a	n/a	n/a	-999	15	[0, 0, 0]	n/a	catFR1	1	R1330D
1940.706	0.022	1941441	REC_END	n/a	n/a	n/a	n/a	-999	15	[0, 0, 0]	n/a	catFR1	1	R1330D
1940.728	0.0	1941463	TRIAL_START	n/a	n/a	n/a	n/a	-999	16	[0, 0, 0]	n/a	catFR1	1	R1330D
1940.728	0.0	1941463	TRIAL	n/a	n/a	n/a	n/a	-999	16	[0, 0, 0]	n/a	catFR1	1	R1330D
1940.728	21.342	1941463	WAITING_START	n/a	n/a	n/a	n/a	-999	16	[0, 0, 0]	n/a	catFR1	1	R1330D
1962.07	0.0	1962804	WAITING_END	n/a	n/a	n/a	n/a	-999	16	[0, 0, 0]	n/a	catFR1	1	R1330D
1962.07	10.429	1962804	COUNTDOWN_START	n/a	n/a	n/a	n/a	-999	16	[0, 0, 0]	n/a	catFR1	1	R1330D
1972.499	0.0	1973232	COUNTDOWN_END	n/a	n/a	n/a	n/a	-999	16	[0, 0, 0]	n/a	catFR1	1	R1330D
1972.499	1.239	1973232	ORIENT_START	n/a	n/a	n/a	n/a	-999	16	[0, 0, 0]	n/a	catFR1	1	R1330D
1973.738	0.001	1974471	ORIENT_END	n/a	n/a	n/a	n/a	-999	16	[0, 0, 0]	n/a	catFR1	1	R1330D
1973.739	0.753	1974472	ENCODING_START	n/a	n/a	n/a	n/a	-999	16	[0, 0, 0]	n/a	catFR1	1	R1330D
1974.492	1.63	1975225	WORD	n/a	wordpools/wordpool_categorized_EN.txt	TROMBONE	Instruments	1	16	[0, 0, 0]	n/a	catFR1	1	R1330D
1976.122	1.014	1976855	WORD_OFF	n/a	n/a	TROMBONE	Instruments	1	16	[0, 0, 0]	n/a	catFR1	1	R1330D
1977.136	1.638	1977869	WORD	n/a	wordpools/wordpool_categorized_EN.txt	DRUM	Instruments	2	16	[0, 0, 0]	n/a	catFR1	1	R1330D
1978.774	0.779	1979507	WORD_OFF	n/a	n/a	DRUM	Instruments	2	16	[0, 0, 0]	n/a	catFR1	1	R1330D
1979.553	1.637	1980286	WORD	n/a	wordpools/wordpool_categorized_EN.txt	POTATO	Vegetables	3	16	[0, 0, 0]	n/a	catFR1	1	R1330D
1981.19	1.12	1981923	WORD_OFF	n/a	n/a	POTATO	Vegetables	3	16	[0, 0, 0]	n/a	catFR1	1	R1330D
1982.31	1.63	1983043	WORD	n/a	wordpools/wordpool_categorized_EN.txt	BROCCOLI	Vegetables	4	16	[0, 0, 0]	n/a	catFR1	1	R1330D
1983.94	0.808	1984672	WORD_OFF	n/a	n/a	BROCCOLI	Vegetables	4	16	[0, 0, 0]	n/a	catFR1	1	R1330D
1984.748	1.626	1985480	WORD	n/a	wordpools/wordpool_categorized_EN.txt	SNOW	Weather	5	16	[0, 0, 0]	n/a	catFR1	1	R1330D
1986.374	0.898	1987106	WORD_OFF	n/a	n/a	SNOW	Weather	5	16	[0, 0, 0]	n/a	catFR1	1	R1330D
1987.272	1.636	1988004	WORD	n/a	wordpools/wordpool_categorized_EN.txt	LIGHTNING	Weather	6	16	[0, 0, 0]	n/a	catFR1	1	R1330D
1988.908	0.987	1989640	WORD_OFF	n/a	n/a	LIGHTNING	Weather	6	16	[0, 0, 0]	n/a	catFR1	1	R1330D
1989.895	1.63	1990627	WORD	n/a	wordpools/wordpool_categorized_EN.txt	ONION	Vegetables	7	16	[0, 0, 0]	n/a	catFR1	1	R1330D
1991.525	0.907	1992257	WORD_OFF	n/a	n/a	ONION	Vegetables	7	16	[0, 0, 0]	n/a	catFR1	1	R1330D
1992.432	1.627	1993164	WORD	n/a	wordpools/wordpool_categorized_EN.txt	LETTUCE	Vegetables	8	16	[0, 0, 0]	n/a	catFR1	1	R1330D
1994.059	1.047	1994791	WORD_OFF	n/a	n/a	LETTUCE	Vegetables	8	16	[0, 0, 0]	n/a	catFR1	1	R1330D
1995.106	1.638	1995838	WORD	n/a	wordpools/wordpool_categorized_EN.txt	TORNADO	Weather	9	16	[0, 0, 0]	n/a	catFR1	1	R1330D
1996.744	0.862	1997476	WORD_OFF	n/a	n/a	TORNADO	Weather	9	16	[0, 0, 0]	n/a	catFR1	1	R1330D
1997.606	1.637	1998338	WORD	n/a	wordpools/wordpool_categorized_EN.txt	HURRICANE	Weather	10	16	[0, 0, 0]	n/a	catFR1	1	R1330D
1999.243	0.857	1999975	WORD_OFF	n/a	n/a	HURRICANE	Weather	10	16	[0, 0, 0]	n/a	catFR1	1	R1330D
2000.1	1.627	2000832	WORD	n/a	wordpools/wordpool_categorized_EN.txt	CELLO	Instruments	11	16	[0, 0, 0]	n/a	catFR1	1	R1330D
2001.727	0.854	2002459	WORD_OFF	n/a	n/a	CELLO	Instruments	11	16	[0, 0, 0]	n/a	catFR1	1	R1330D
2002.581	1.629	2003312	WORD	n/a	wordpools/wordpool_categorized_EN.txt	FLUTE	Instruments	12	16	[0, 0, 0]	n/a	catFR1	1	R1330D
2004.21	0.001	2004941	WORD_OFF	n/a	n/a	FLUTE	Instruments	12	16	[0, 0, 0]	n/a	catFR1	1	R1330D
2004.211	0.0	2004942	ENCODING_END	n/a	n/a	n/a	n/a	-999	16	[0, 0, 0]	n/a	catFR1	1	R1330D
2004.211	0.0	2004942	DISTRACT_START	n/a	n/a	n/a	n/a	-999	16	[0, 0, 0]	n/a	catFR1	1	R1330D
2004.211	0.016	2004942	START	n/a	n/a	n/a	n/a	-999	16	[-999, -999, -999]	n/a	catFR1	1	R1330D
2004.227	7.868	2004958	PROB	7.868	n/a	n/a	n/a	-999	16	[6, 1, 9]	16	catFR1	1	R1330D
2012.095	4.068	2012826	PROB	4.068	n/a	n/a	n/a	-999	16	[3, 3, 6]	12	catFR1	1	R1330D
2016.163	4.4	2016894	PROB	4.4	n/a	n/a	n/a	-999	16	[2, 2, 2]	6	catFR1	1	R1330D
2020.563	4.19	2021294	PROB	4.19	n/a	n/a	n/a	-999	16	[2, 1, 6]	9	catFR1	1	R1330D
2024.753	0.012	2025483	STOP	n/a	n/a	n/a	n/a	-999	16	[-999, -999, -999]	n/a	catFR1	1	R1330D
2024.765	0.657	2025495	DISTRACT_END	n/a	n/a	n/a	n/a	-999	16	[0, 0, 0]	n/a	catFR1	1	R1330D
2025.422	1.659	2026152	RETRIEVAL_ORIENT_START	n/a	n/a	n/a	n/a	-999	16	[0, 0, 0]	n/a	catFR1	1	R1330D
2027.081	0.001	2027811	RETRIEVAL_ORIENT_END	n/a	n/a	n/a	n/a	-999	16	[0, 0, 0]	n/a	catFR1	1	R1330D
2027.082	1.336	2027812	REC_START	n/a	n/a	n/a	n/a	-999	16	[0, 0, 0]	n/a	catFR1	1	R1330D
2028.418	1.288	2029148	REC_WORD	1.288	n/a	TROMBONE	Instruments	1	16	[0, 0, 0]	n/a	catFR1	1	R1330D
2029.706	2.272	2030436	REC_WORD	2.272	n/a	CELLO	Instruments	11	16	[0, 0, 0]	n/a	catFR1	1	R1330D
2031.978	1.1	2032708	REC_WORD	1.1	n/a	ONION	Vegetables	7	16	[0, 0, 0]	n/a	catFR1	1	R1330D
2033.078	2.666	2033808	REC_WORD	2.666	n/a	HURRICANE	Weather	10	16	[0, 0, 0]	n/a	catFR1	1	R1330D
2035.744	7.418	2036474	REC_WORD	7.418	n/a	TORNADO	Weather	9	16	[0, 0, 0]	n/a	catFR1	1	R1330D
2043.162	13.931	2043891	REC_WORD	13.931	n/a	FLUTE	Instruments	12	16	[0, 0, 0]	n/a	catFR1	1	R1330D
2057.093	0.001	2057822	REC_END	n/a	n/a	n/a	n/a	-999	16	[0, 0, 0]	n/a	catFR1	1	R1330D
2057.094	0.021	2057823	TRIAL_END	n/a	n/a	n/a	n/a	-999	16	[0, 0, 0]	n/a	catFR1	1	R1330D
2057.115	0.0	2057844	TRIAL	n/a	n/a	n/a	n/a	-999	17	[0, 0, 0]	n/a	catFR1	1	R1330D
2057.115	0.0	2057844	WAITING_START	n/a	n/a	n/a	n/a	-999	17	[0, 0, 0]	n/a	catFR1	1	R1330D
2057.115	2.773	2057844	TRIAL_START	n/a	n/a	n/a	n/a	-999	17	[0, 0, 0]	n/a	catFR1	1	R1330D
2059.888	0.0	2060617	WAITING_END	n/a	n/a	n/a	n/a	-999	17	[0, 0, 0]	n/a	catFR1	1	R1330D
2059.888	10.429	2060617	COUNTDOWN_START	n/a	n/a	n/a	n/a	-999	17	[0, 0, 0]	n/a	catFR1	1	R1330D
2070.317	0.0	2071045	COUNTDOWN_END	n/a	n/a	n/a	n/a	-999	17	[0, 0, 0]	n/a	catFR1	1	R1330D
2070.317	1.123	2071045	ORIENT_START	n/a	n/a	n/a	n/a	-999	17	[0, 0, 0]	n/a	catFR1	1	R1330D
2071.44	0.0	2072168	ORIENT_END	n/a	n/a	n/a	n/a	-999	17	[0, 0, 0]	n/a	catFR1	1	R1330D
2071.44	1.014	2072168	ENCODING_START	n/a	n/a	n/a	n/a	-999	17	[0, 0, 0]	n/a	catFR1	1	R1330D
2072.454	1.636	2073182	WORD	n/a	wordpools/wordpool_categorized_EN.txt	HAWK	Birds	1	17	[0, 0, 0]	n/a	catFR1	1	R1330D
2074.09	1.138	2074818	WORD_OFF	n/a	n/a	HAWK	Birds	1	17	[0, 0, 0]	n/a	catFR1	1	R1330D
2075.228	1.629	2075956	WORD	n/a	wordpools/wordpool_categorized_EN.txt	CARDINAL	Birds	2	17	[0, 0, 0]	n/a	catFR1	1	R1330D
2076.857	0.975	2077585	WORD_OFF	n/a	n/a	CARDINAL	Birds	2	17	[0, 0, 0]	n/a	catFR1	1	R1330D
2077.832	1.626	2078560	WORD	n/a	wordpools/wordpool_categorized_EN.txt	COUCH	Furniture	3	17	[0, 0, 0]	n/a	catFR1	1	R1330D
2079.458	0.773	2080186	WORD_OFF	n/a	n/a	COUCH	Furniture	3	17	[0, 0, 0]	n/a	catFR1	1	R1330D
2080.231	1.627	2080959	WORD	n/a	wordpools/wordpool_categorized_EN.txt	DESK	Furniture	4	17	[0, 0, 0]	n/a	catFR1	1	R1330D
2081.858	1.144	2082586	WORD_OFF	n/a	n/a	DESK	Furniture	4	17	[0, 0, 0]	n/a	catFR1	1	R1330D
2083.002	1.623	2083729	WORD	n/a	wordpools/wordpool_categorized_EN.txt	DRILL	Tools	5	17	[0, 0, 0]	n/a	catFR1	1	R1330D
2084.625	0.927	2085352	WORD_OFF	n/a	n/a	DRILL	Tools	5	17	[0, 0, 0]	n/a	catFR1	1	R1330D
2085.552	1.624	2086279	WORD	n/a	wordpools/wordpool_categorized_EN.txt	HAMMER	Tools	6	17	[0, 0, 0]	n/a	catFR1	1	R1330D
2087.176	1.023	2087903	WORD_OFF	n/a	n/a	HAMMER	Tools	6	17	[0, 0, 0]	n/a	catFR1	1	R1330D
2088.199	1.628	2088926	WORD	n/a	wordpools/wordpool_categorized_EN.txt	TABLE	Furniture	7	17	[0, 0, 0]	n/a	catFR1	1	R1330D
2089.827	0.957	2090554	WORD_OFF	n/a	n/a	TABLE	Furniture	7	17	[0, 0, 0]	n/a	catFR1	1	R1330D
2090.784	1.626	2091511	WORD	n/a	wordpools/wordpool_categorized_EN.txt	CABINET	Furniture	8	17	[0, 0, 0]	n/a	catFR1	1	R1330D
2092.41	0.995	2093137	WORD_OFF	n/a	n/a	CABINET	Furniture	8	17	[0, 0, 0]	n/a	catFR1	1	R1330D
2093.405	1.622	2094132	WORD	n/a	wordpools/wordpool_categorized_EN.txt	DOVE	Birds	9	17	[0, 0, 0]	n/a	catFR1	1	R1330D
2095.027	0.884	2095754	WORD_OFF	n/a	n/a	DOVE	Birds	9	17	[0, 0, 0]	n/a	catFR1	1	R1330D
2095.911	1.633	2096638	WORD	n/a	wordpools/wordpool_categorized_EN.txt	FINCH	Birds	10	17	[0, 0, 0]	n/a	catFR1	1	R1330D
2097.544	0.918	2098271	WORD_OFF	n/a	n/a	FINCH	Birds	10	17	[0, 0, 0]	n/a	catFR1	1	R1330D
2098.462	1.633	2099189	WORD	n/a	wordpools/wordpool_categorized_EN.txt	PLIERS	Tools	11	17	[0, 0, 0]	n/a	catFR1	1	R1330D
2100.095	0.941	2100822	WORD_OFF	n/a	n/a	PLIERS	Tools	11	17	[0, 0, 0]	n/a	catFR1	1	R1330D
2101.036	1.626	2101763	WORD	n/a	wordpools/wordpool_categorized_EN.txt	SHOVEL	Tools	12	17	[0, 0, 0]	n/a	catFR1	1	R1330D
2102.662	0.0	2103388	WORD_OFF	n/a	n/a	SHOVEL	Tools	12	17	[0, 0, 0]	n/a	catFR1	1	R1330D
2102.662	0.001	2103388	ENCODING_END	n/a	n/a	n/a	n/a	-999	17	[0, 0, 0]	n/a	catFR1	1	R1330D
2102.663	0.0	2103389	DISTRACT_START	n/a	n/a	n/a	n/a	-999	17	[0, 0, 0]	n/a	catFR1	1	R1330D
2102.663	0.015	2103389	START	n/a	n/a	n/a	n/a	-999	17	[-999, -999, -999]	n/a	catFR1	1	R1330D
2102.678	3.868	2103404	PROB	3.868	n/a	n/a	n/a	-999	17	[3, 2, 1]	6	catFR1	1	R1330D
2106.546	5.284	2107272	PROB	5.284	n/a	n/a	n/a	-999	17	[9, 8, 5]	22	catFR1	1	R1330D
2111.83	5.101	2112556	PROB	5.101	n/a	n/a	n/a	-999	17	[4, 2, 1]	7	catFR1	1	R1330D
2116.931	5.201	2117657	PROB	5.201	n/a	n/a	n/a	-999	17	[5, 9, 3]	17	catFR1	1	R1330D
2122.132	4.107	2122858	PROB	4.107	n/a	n/a	n/a	-999	17	[1, 8, 9]	18	catFR1	1	R1330D
2126.239	0.01	2126964	STOP	n/a	n/a	n/a	n/a	-999	17	[-999, -999, -999]	n/a	catFR1	1	R1330D
2126.249	0.66	2126974	DISTRACT_END	n/a	n/a	n/a	n/a	-999	17	[0, 0, 0]	n/a	catFR1	1	R1330D
2126.909	1.691	2127634	RETRIEVAL_ORIENT_START	n/a	n/a	n/a	n/a	-999	17	[0, 0, 0]	n/a	catFR1	1	R1330D
2128.6	0.0	2129325	RETRIEVAL_ORIENT_END	n/a	n/a	n/a	n/a	-999	17	[0, 0, 0]	n/a	catFR1	1	R1330D
2128.6	2.662	2129325	REC_START	n/a	n/a	n/a	n/a	-999	17	[0, 0, 0]	n/a	catFR1	1	R1330D
2131.262	1.205	2131987	REC_WORD	1.205	n/a	SPARROW	Birds	-999	17	[0, 0, 0]	n/a	catFR1	1	R1330D
2132.467	2.154	2133192	REC_WORD	2.154	n/a	PLIERS	Tools	11	17	[0, 0, 0]	n/a	catFR1	1	R1330D
2134.621	2.597	2135346	REC_WORD	2.597	n/a	COUCH	Furniture	3	17	[0, 0, 0]	n/a	catFR1	1	R1330D
2137.218	21.396	2137943	REC_WORD	21.396	n/a	FINCH	Birds	10	17	[0, 0, 0]	n/a	catFR1	1	R1330D
2158.614	0.0	2159338	REC_END	n/a	n/a	n/a	n/a	-999	17	[0, 0, 0]	n/a	catFR1	1	R1330D
2158.614	0.026	2159338	TRIAL_END	n/a	n/a	n/a	n/a	-999	17	[0, 0, 0]	n/a	catFR1	1	R1330D
2158.64	0.0	2159364	TRIAL_START	n/a	n/a	n/a	n/a	-999	18	[0, 0, 0]	n/a	catFR1	1	R1330D
2158.64	0.0	2159364	TRIAL	n/a	n/a	n/a	n/a	-999	18	[0, 0, 0]	n/a	catFR1	1	R1330D
2158.64	4.816	2159364	WAITING_START	n/a	n/a	n/a	n/a	-999	18	[0, 0, 0]	n/a	catFR1	1	R1330D
2163.456	0.0	2164179	WAITING_END	n/a	n/a	n/a	n/a	-999	18	[0, 0, 0]	n/a	catFR1	1	R1330D
2163.456	10.43	2164179	COUNTDOWN_START	n/a	n/a	n/a	n/a	-999	18	[0, 0, 0]	n/a	catFR1	1	R1330D
2173.886	0.0	2174609	COUNTDOWN_END	n/a	n/a	n/a	n/a	-999	18	[0, 0, 0]	n/a	catFR1	1	R1330D
2173.886	1.139	2174609	ORIENT_START	n/a	n/a	n/a	n/a	-999	18	[0, 0, 0]	n/a	catFR1	1	R1330D
2175.025	0.0	2175748	ENCODING_START	n/a	n/a	n/a	n/a	-999	18	[0, 0, 0]	n/a	catFR1	1	R1330D
2175.025	1.075	2175748	ORIENT_END	n/a	n/a	n/a	n/a	-999	18	[0, 0, 0]	n/a	catFR1	1	R1330D
2176.1	1.626	2176823	WORD	n/a	wordpools/wordpool_categorized_EN.txt	COAT	Clothing	1	18	[0, 0, 0]	n/a	catFR1	1	R1330D
2177.726	0.942	2178449	WORD_OFF	n/a	n/a	COAT	Clothing	1	18	[0, 0, 0]	n/a	catFR1	1	R1330D
2178.668	1.625	2179391	WORD	n/a	wordpools/wordpool_categorized_EN.txt	SHIRT	Clothing	2	18	[0, 0, 0]	n/a	catFR1	1	R1330D
2180.293	1.006	2181016	WORD_OFF	n/a	n/a	SHIRT	Clothing	2	18	[0, 0, 0]	n/a	catFR1	1	R1330D
2181.299	1.628	2182022	WORD	n/a	wordpools/wordpool_categorized_EN.txt	PUZZLE	Toys	3	18	[0, 0, 0]	n/a	catFR1	1	R1330D
2182.927	1.046	2183649	WORD_OFF	n/a	n/a	PUZZLE	Toys	3	18	[0, 0, 0]	n/a	catFR1	1	R1330D
2183.973	1.637	2184695	WORD	n/a	wordpools/wordpool_categorized_EN.txt	BLOCKS	Toys	4	18	[0, 0, 0]	n/a	catFR1	1	R1330D
2185.61	1.004	2186332	WORD_OFF	n/a	n/a	BLOCKS	Toys	4	18	[0, 0, 0]	n/a	catFR1	1	R1330D
2186.614	1.63	2187336	WORD	n/a	wordpools/wordpool_categorized_EN.txt	MOPED	Vehicles	5	18	[0, 0, 0]	n/a	catFR1	1	R1330D
2188.244	0.873	2188966	WORD_OFF	n/a	n/a	MOPED	Vehicles	5	18	[0, 0, 0]	n/a	catFR1	1	R1330D
2189.117	1.629	2189839	WORD	n/a	wordpools/wordpool_categorized_EN.txt	VAN	Vehicles	6	18	[0, 0, 0]	n/a	catFR1	1	R1330D
2190.746	1.056	2191468	WORD_OFF	n/a	n/a	VAN	Vehicles	6	18	[0, 0, 0]	n/a	catFR1	1	R1330D
2191.802	1.626	2192524	WORD	n/a	wordpools/wordpool_categorized_EN.txt	SKIRT	Clothing	7	18	[0, 0, 0]	n/a	catFR1	1	R1330D
2193.428	0.753	2194150	WORD_OFF	n/a	n/a	SKIRT	Clothing	7	18	[0, 0, 0]	n/a	catFR1	1	R1330D
2194.181	1.632	2194903	WORD	n/a	wordpools/wordpool_categorized_EN.txt	UNDERWEAR	Clothing	8	18	[0, 0, 0]	n/a	catFR1	1	R1330D
2195.813	0.974	2196535	WORD_OFF	n/a	n/a	UNDERWEAR	Clothing	8	18	[0, 0, 0]	n/a	catFR1	1	R1330D
2196.787	1.626	2197509	WORD	n/a	wordpools/wordpool_categorized_EN.txt	BIKE	Vehicles	9	18	[0, 0, 0]	n/a	catFR1	1	R1330D
2198.413	0.998	2199135	WORD_OFF	n/a	n/a	BIKE	Vehicles	9	18	[0, 0, 0]	n/a	catFR1	1	R1330D
2199.411	1.635	2200133	WORD	n/a	wordpools/wordpool_categorized_EN.txt	BOAT	Vehicles	10	18	[0, 0, 0]	n/a	catFR1	1	R1330D
2201.046	1.126	2201768	WORD_OFF	n/a	n/a	BOAT	Vehicles	10	18	[0, 0, 0]	n/a	catFR1	1	R1330D
2202.172	1.626	2202894	WORD	n/a	wordpools/wordpool_categorized_EN.txt	BASEBALL	Toys	11	18	[0, 0, 0]	n/a	catFR1	1	R1330D
2203.798	1.134	2204519	WORD_OFF	n/a	n/a	BASEBALL	Toys	11	18	[0, 0, 0]	n/a	catFR1	1	R1330D
2204.932	1.632	2205653	WORD	n/a	wordpools/wordpool_categorized_EN.txt	FOOTBALL	Toys	12	18	[0, 0, 0]	n/a	catFR1	1	R1330D
2206.564	0.001	2207285	WORD_OFF	n/a	n/a	FOOTBALL	Toys	12	18	[0, 0, 0]	n/a	catFR1	1	R1330D
2206.565	0.0	2207286	ENCODING_END	n/a	n/a	n/a	n/a	-999	18	[0, 0, 0]	n/a	catFR1	1	R1330D
2206.565	0.0	2207286	DISTRACT_START	n/a	n/a	n/a	n/a	-999	18	[0, 0, 0]	n/a	catFR1	1	R1330D
2206.565	0.015	2207286	START	n/a	n/a	n/a	n/a	-999	18	[-999, -999, -999]	n/a	catFR1	1	R1330D
2206.58	6.035	2207301	PROB	6.035	n/a	n/a	n/a	-999	18	[7, 8, 2]	17	catFR1	1	R1330D
2212.615	6.034	2213336	PROB	6.034	n/a	n/a	n/a	-999	18	[4, 1, 7]	12	catFR1	1	R1330D
2218.649	16.393	2219370	PROB	16.393	n/a	n/a	n/a	-999	18	[9, 5, 6]	20	catFR1	1	R1330D
2235.042	0.011	2235762	STOP	n/a	n/a	n/a	n/a	-999	18	[-999, -999, -999]	n/a	catFR1	1	R1330D
2235.053	0.549	2235773	DISTRACT_END	n/a	n/a	n/a	n/a	-999	18	[0, 0, 0]	n/a	catFR1	1	R1330D
2235.602	1.618	2236322	RETRIEVAL_ORIENT_START	n/a	n/a	n/a	n/a	-999	18	[0, 0, 0]	n/a	catFR1	1	R1330D
2237.22	0.0	2237940	REC_START	n/a	n/a	n/a	n/a	-999	18	[0, 0, 0]	n/a	catFR1	1	R1330D
2237.22	3.521	2237940	RETRIEVAL_ORIENT_END	n/a	n/a	n/a	n/a	-999	18	[0, 0, 0]	n/a	catFR1	1	R1330D
2240.741	3.277	2241461	REC_WORD_VV	3.277	n/a	<>	n/a	-999	18	[0, 0, 0]	n/a	catFR1	1	R1330D
2244.018	1.807	2244737	REC_WORD	1.807	n/a	SKIRT	Clothing	7	18	[0, 0, 0]	n/a	catFR1	1	R1330D
2245.825	0.88	2246544	REC_WORD_VV	0.88	n/a	<>	n/a	-999	18	[0, 0, 0]	n/a	catFR1	1	R1330D
2246.705	1.0	2247424	REC_WORD	1.0	n/a	CLOTHES	n/a	-999	18	[0, 0, 0]	n/a	catFR1	1	R1330D
2247.705	1.0	2248424	REC_WORD_VV	1.0	n/a	<>	n/a	-999	18	[0, 0, 0]	n/a	catFR1	1	R1330D
2248.705	0.846	2249424	REC_WORD_VV	0.846	n/a	<>	n/a	-999	18	[0, 0, 0]	n/a	catFR1	1	R1330D
2249.551	0.789	2250270	REC_WORD_VV	0.789	n/a	<>	n/a	-999	18	[0, 0, 0]	n/a	catFR1	1	R1330D
2250.34	0.494	2251059	REC_WORD	0.494	n/a	SKIRT	Clothing	7	18	[0, 0, 0]	n/a	catFR1	1	R1330D
2250.834	2.373	2251553	REC_WORD	2.373	n/a	SHIRT	Clothing	2	18	[0, 0, 0]	n/a	catFR1	1	R1330D
2253.207	2.293	2253926	REC_WORD	2.293	n/a	JACKET	Clothing	-999	18	[0, 0, 0]	n/a	catFR1	1	R1330D
2255.5	3.425	2256219	REC_WORD	3.425	n/a	UNDERWEAR	Clothing	8	18	[0, 0, 0]	n/a	catFR1	1	R1330D
