onset	duration	sample	trial_type	response_time	stim_file	item_name	category	serialpos	list	test	answer	experiment	session	subject
0.0	3.465	172027	INSTRUCT_START	n/a	n/a	n/a	n/a	-999	-999	[0, 0, 0]	n/a	catFR1	4	R1395M
3.465	23.582	175490	INSTRUCT_END	n/a	n/a	n/a	n/a	-999	-999	[0, 0, 0]	n/a	catFR1	4	R1395M
27.047	10.351	199073	COUNTDOWN_START	n/a	n/a	n/a	n/a	-999	-999	[0, 0, 0]	n/a	catFR1	4	R1395M
37.398	0.001	209414	COUNTDOWN_END	n/a	n/a	n/a	n/a	-999	-999	[0, 0, 0]	n/a	catFR1	4	R1395M
37.399	2.266	209414	ENCODING_START	n/a	n/a	n/a	n/a	-999	-1	[0, 0, 0]	n/a	catFR1	4	R1395M
39.665	1.599	211679	WORD	n/a	n/a	LEMON	Fruit	1	-1	[0, 0, 0]	n/a	catFR1	4	R1395M
41.264	0.817	213279	WORD_OFF	n/a	n/a	LEMON	Fruit	1	-1	[0, 0, 0]	n/a	catFR1	4	R1395M
42.081	1.616	214103	WORD	n/a	n/a	PEACH	Fruit	2	-1	[0, 0, 0]	n/a	catFR1	4	R1395M
43.697	0.816	215713	WORD_OFF	n/a	n/a	PEACH	Fruit	2	-1	[0, 0, 0]	n/a	catFR1	4	R1395M
44.513	1.601	216527	WORD	n/a	n/a	ONION	Vegetables	3	-1	[0, 0, 0]	n/a	catFR1	4	R1395M
46.114	0.767	218136	WORD_OFF	n/a	n/a	ONION	Vegetables	3	-1	[0, 0, 0]	n/a	catFR1	4	R1395M
46.881	1.601	218894	WORD	n/a	n/a	CAULIFLOWER	Vegetables	4	-1	[0, 0, 0]	n/a	catFR1	4	R1395M
48.482	0.932	220504	WORD_OFF	n/a	n/a	CAULIFLOWER	Vegetables	4	-1	[0, 0, 0]	n/a	catFR1	4	R1395M
49.414	1.616	221431	WORD	n/a	n/a	BUS	Vehicles	5	-1	[0, 0, 0]	n/a	catFR1	4	R1395M
51.03	0.967	223050	WORD_OFF	n/a	n/a	BUS	Vehicles	5	-1	[0, 0, 0]	n/a	catFR1	4	R1395M
51.997	1.601	224014	WORD	n/a	n/a	TRAIN	Vehicles	6	-1	[0, 0, 0]	n/a	catFR1	4	R1395M
53.598	0.983	225614	WORD_OFF	n/a	n/a	TRAIN	Vehicles	6	-1	[0, 0, 0]	n/a	catFR1	4	R1395M
54.581	1.617	226597	WORD	n/a	n/a	APPLE	Fruit	7	-1	[0, 0, 0]	n/a	catFR1	4	R1395M
56.198	0.866	228216	WORD_OFF	n/a	n/a	APPLE	Fruit	7	-1	[0, 0, 0]	n/a	catFR1	4	R1395M
57.064	1.6	229086	WORD	n/a	n/a	BANANA	Fruit	8	-1	[0, 0, 0]	n/a	catFR1	4	R1395M
58.664	0.818	230686	WORD_OFF	n/a	n/a	BANANA	Fruit	8	-1	[0, 0, 0]	n/a	catFR1	4	R1395M
59.482	1.616	231500	WORD	n/a	n/a	PEAS	Vegetables	9	-1	[0, 0, 0]	n/a	catFR1	4	R1395M
61.098	0.866	233110	WORD_OFF	n/a	n/a	PEAS	Vegetables	9	-1	[0, 0, 0]	n/a	catFR1	4	R1395M
61.964	1.6	233980	WORD	n/a	n/a	SPINACH	Vegetables	10	-1	[0, 0, 0]	n/a	catFR1	4	R1395M
63.564	0.783	235581	WORD_OFF	n/a	n/a	SPINACH	Vegetables	10	-1	[0, 0, 0]	n/a	catFR1	4	R1395M
64.347	1.601	236367	WORD	n/a	n/a	MOPED	Vehicles	11	-1	[0, 0, 0]	n/a	catFR1	4	R1395M
65.948	0.899	237967	WORD_OFF	n/a	n/a	MOPED	Vehicles	11	-1	[0, 0, 0]	n/a	catFR1	4	R1395M
66.847	1.619	238866	WORD	n/a	n/a	CAR	Vehicles	12	-1	[0, 0, 0]	n/a	catFR1	4	R1395M
68.466	0.0	240481	START	n/a	n/a	n/a	n/a	-999	-1	[-999, -999, -999]	n/a	catFR1	4	R1395M
68.466	0.0	240481	PROB	0.0	n/a	n/a	n/a	-999	-1	[3, 8, 4]	15	catFR1	4	R1395M
68.464	0.002	240485	WORD_OFF	n/a	n/a	CAR	Vehicles	12	-1	[0, 0, 0]	n/a	catFR1	4	R1395M
68.466	0.0	240485	ENCODING_END	n/a	n/a	n/a	n/a	-999	-1	[0, 0, 0]	n/a	catFR1	4	R1395M
68.466	4.199	240485	DISTRACT_START	n/a	n/a	n/a	n/a	-999	-1	[0, 0, 0]	n/a	catFR1	4	R1395M
72.665	2.282	244680	PROB	2.282	n/a	n/a	n/a	-999	-1	[4, 5, 8]	17	catFR1	4	R1395M
74.947	2.518	246962	PROB	2.518	n/a	n/a	n/a	-999	-1	[8, 8, 7]	23	catFR1	4	R1395M
77.465	2.283	249480	PROB	2.283	n/a	n/a	n/a	-999	-1	[1, 8, 6]	15	catFR1	4	R1395M
79.748	1.816	251763	PROB	1.816	n/a	n/a	n/a	-999	-1	[3, 3, 2]	8	catFR1	4	R1395M
81.564	4.084	253579	PROB	4.084	n/a	n/a	n/a	-999	-1	[8, 5, 3]	16	catFR1	4	R1395M
85.648	1.816	257662	PROB	1.816	n/a	n/a	n/a	-999	-1	[3, 2, 1]	6	catFR1	4	R1395M
87.464	1.916	259478	PROB	1.916	n/a	n/a	n/a	-999	-1	[5, 4, 2]	11	catFR1	4	R1395M
89.38	0.0	261391	DISTRACT_END	n/a	n/a	n/a	n/a	-999	-1	[0, 0, 0]	n/a	catFR1	4	R1395M
89.38	1.05	261394	STOP	n/a	n/a	n/a	n/a	-999	-1	[-999, -999, -999]	n/a	catFR1	4	R1395M
90.43	0.727	262449	REC_START	n/a	n/a	n/a	n/a	-999	-1	[0, 0, 0]	n/a	catFR1	4	R1395M
91.157	0.829	263171	REC_WORD	0.829	n/a	LEMON	Fruit	1	-1	[0, 0, 0]	n/a	catFR1	4	R1395M
91.986	1.115	264000	REC_WORD	1.115	n/a	PEACH	Fruit	2	-1	[0, 0, 0]	n/a	catFR1	4	R1395M
93.101	0.732	265115	REC_WORD	0.732	n/a	APPLE	Fruit	7	-1	[0, 0, 0]	n/a	catFR1	4	R1395M
93.833	1.543	265847	REC_WORD	1.543	n/a	BANANA	Fruit	8	-1	[0, 0, 0]	n/a	catFR1	4	R1395M
95.376	1.932	267390	REC_WORD	1.932	n/a	ONION	Vegetables	3	-1	[0, 0, 0]	n/a	catFR1	4	R1395M
97.308	1.807	269322	REC_WORD	1.807	n/a	CAULIFLOWER	Vegetables	4	-1	[0, 0, 0]	n/a	catFR1	4	R1395M
99.115	2.071	271129	REC_WORD	2.071	n/a	PEAS	Vegetables	9	-1	[0, 0, 0]	n/a	catFR1	4	R1395M
101.186	1.642	273200	REC_WORD	1.642	n/a	BUS	Vehicles	5	-1	[0, 0, 0]	n/a	catFR1	4	R1395M
102.828	2.488	274842	REC_WORD	2.488	n/a	TRAIN	Vehicles	6	-1	[0, 0, 0]	n/a	catFR1	4	R1395M
105.316	16.348	277329	REC_WORD	16.348	n/a	MOPED	Vehicles	11	-1	[0, 0, 0]	n/a	catFR1	4	R1395M
121.664	15.484	293678	REC_END	n/a	n/a	n/a	n/a	-999	-1	[0, 0, 0]	n/a	catFR1	4	R1395M
137.148	10.35	309166	COUNTDOWN_START	n/a	n/a	n/a	n/a	-999	1	[0, 0, 0]	n/a	catFR1	4	R1395M
147.498	0.0	319508	COUNTDOWN_END	n/a	n/a	n/a	n/a	-999	1	[0, 0, 0]	n/a	catFR1	4	R1395M
147.498	2.049	319508	ENCODING_START	n/a	n/a	n/a	n/a	-999	1	[0, 0, 0]	n/a	catFR1	4	R1395M
149.547	1.6	321557	WORD	n/a	wordpools/wordpool_categorized_EN.txt	STRAWBERRY	Fruit	1	1	[0, 0, 0]	n/a	catFR1	4	R1395M
151.147	0.833	323157	WORD_OFF	n/a	n/a	STRAWBERRY	Fruit	1	1	[0, 0, 0]	n/a	catFR1	4	R1395M
151.98	1.601	323990	WORD	n/a	wordpools/wordpool_categorized_EN.txt	CHERRY	Fruit	2	1	[0, 0, 0]	n/a	catFR1	4	R1395M
153.581	0.816	325591	WORD_OFF	n/a	n/a	CHERRY	Fruit	2	1	[0, 0, 0]	n/a	catFR1	4	R1395M
154.397	1.601	326405	WORD	n/a	wordpools/wordpool_categorized_EN.txt	TULIP	Flowers	3	1	[0, 0, 0]	n/a	catFR1	4	R1395M
155.998	0.766	328005	WORD_OFF	n/a	n/a	TULIP	Flowers	3	1	[0, 0, 0]	n/a	catFR1	4	R1395M
156.764	1.6	328772	WORD	n/a	wordpools/wordpool_categorized_EN.txt	LILAC	Flowers	4	1	[0, 0, 0]	n/a	catFR1	4	R1395M
158.364	0.983	330373	WORD_OFF	n/a	n/a	LILAC	Flowers	4	1	[0, 0, 0]	n/a	catFR1	4	R1395M
159.347	1.6	331355	WORD	n/a	wordpools/wordpool_categorized_EN.txt	JACKET	Clothing	5	1	[0, 0, 0]	n/a	catFR1	4	R1395M
160.947	0.9	332956	WORD_OFF	n/a	n/a	JACKET	Clothing	5	1	[0, 0, 0]	n/a	catFR1	4	R1395M
161.847	1.617	333863	WORD	n/a	wordpools/wordpool_categorized_EN.txt	SHOES	Clothing	6	1	[0, 0, 0]	n/a	catFR1	4	R1395M
163.464	0.783	335473	WORD_OFF	n/a	n/a	SHOES	Clothing	6	1	[0, 0, 0]	n/a	catFR1	4	R1395M
164.247	1.617	336259	WORD	n/a	wordpools/wordpool_categorized_EN.txt	PLUM	Fruit	7	1	[0, 0, 0]	n/a	catFR1	4	R1395M
165.864	0.817	337878	WORD_OFF	n/a	n/a	PLUM	Fruit	7	1	[0, 0, 0]	n/a	catFR1	4	R1395M
166.681	1.616	338692	WORD	n/a	wordpools/wordpool_categorized_EN.txt	BLUEBERRY	Fruit	8	1	[0, 0, 0]	n/a	catFR1	4	R1395M
168.297	0.767	340311	WORD_OFF	n/a	n/a	BLUEBERRY	Fruit	8	1	[0, 0, 0]	n/a	catFR1	4	R1395M
169.064	1.617	341079	WORD	n/a	wordpools/wordpool_categorized_EN.txt	CARNATION	Flowers	9	1	[0, 0, 0]	n/a	catFR1	4	R1395M
170.681	0.883	342689	WORD_OFF	n/a	n/a	CARNATION	Flowers	9	1	[0, 0, 0]	n/a	catFR1	4	R1395M
171.564	1.6	343578	WORD	n/a	wordpools/wordpool_categorized_EN.txt	ORCHID	Flowers	10	1	[0, 0, 0]	n/a	catFR1	4	R1395M
173.164	0.816	345178	WORD_OFF	n/a	n/a	ORCHID	Flowers	10	1	[0, 0, 0]	n/a	catFR1	4	R1395M
173.98	1.6	345992	WORD	n/a	wordpools/wordpool_categorized_EN.txt	COAT	Clothing	11	1	[0, 0, 0]	n/a	catFR1	4	R1395M
175.58	0.967	347592	WORD_OFF	n/a	n/a	COAT	Clothing	11	1	[0, 0, 0]	n/a	catFR1	4	R1395M
176.547	1.6	348556	WORD	n/a	wordpools/wordpool_categorized_EN.txt	SKIRT	Clothing	12	1	[0, 0, 0]	n/a	catFR1	4	R1395M
178.147	0.002	350157	WORD_OFF	n/a	n/a	SKIRT	Clothing	12	1	[0, 0, 0]	n/a	catFR1	4	R1395M
178.149	0.0	350157	ENCODING_END	n/a	n/a	n/a	n/a	-999	1	[0, 0, 0]	n/a	catFR1	4	R1395M
178.148	0.001	350158	PROB	0.001	n/a	n/a	n/a	-999	1	[7, 1, 2]	10	catFR1	4	R1395M
178.149	0.0	350159	START	n/a	n/a	n/a	n/a	-999	1	[-999, -999, -999]	n/a	catFR1	4	R1395M
178.149	4.115	350166	DISTRACT_START	n/a	n/a	n/a	n/a	-999	1	[0, 0, 0]	n/a	catFR1	4	R1395M
182.264	2.75	354273	PROB	2.75	n/a	n/a	n/a	-999	1	[2, 6, 1]	9	catFR1	4	R1395M
185.014	1.65	357023	PROB	1.65	n/a	n/a	n/a	-999	1	[2, 1, 3]	6	catFR1	4	R1395M
186.664	1.933	358673	PROB	1.933	n/a	n/a	n/a	-999	1	[8, 8, 1]	17	catFR1	4	R1395M
188.597	2.083	360606	PROB	2.083	n/a	n/a	n/a	-999	1	[3, 6, 1]	10	catFR1	4	R1395M
190.68	1.551	362689	PROB	1.551	n/a	n/a	n/a	-999	1	[3, 6, 2]	11	catFR1	4	R1395M
192.231	1.784	364240	PROB	1.784	n/a	n/a	n/a	-999	1	[1, 6, 7]	14	catFR1	4	R1395M
194.015	1.715	366024	PROB	1.715	n/a	n/a	n/a	-999	1	[7, 7, 1]	15	catFR1	4	R1395M
195.73	1.901	367739	PROB	1.901	n/a	n/a	n/a	-999	1	[8, 6, 2]	16	catFR1	4	R1395M
197.631	2.468	369640	PROB	2.468	n/a	n/a	n/a	-999	1	[7, 7, 2]	16	catFR1	4	R1395M
200.099	0.0	372107	STOP	n/a	n/a	n/a	n/a	-999	1	[-999, -999, -999]	n/a	catFR1	4	R1395M
200.099	1.383	372112	DISTRACT_END	n/a	n/a	n/a	n/a	-999	1	[0, 0, 0]	n/a	catFR1	4	R1395M
201.482	1.419	373487	REC_START	n/a	n/a	n/a	n/a	-999	1	[0, 0, 0]	n/a	catFR1	4	R1395M
202.901	0.811	374909	REC_WORD	0.811	n/a	TULIP	Flowers	3	1	[0, 0, 0]	n/a	catFR1	4	R1395M
203.712	0.961	375720	REC_WORD	0.961	n/a	LILAC	Flowers	4	1	[0, 0, 0]	n/a	catFR1	4	R1395M
204.673	1.812	376681	REC_WORD	1.812	n/a	ORCHID	Flowers	10	1	[0, 0, 0]	n/a	catFR1	4	R1395M
206.485	2.134	378493	REC_WORD	2.134	n/a	CARNATION	Flowers	9	1	[0, 0, 0]	n/a	catFR1	4	R1395M
208.619	2.226	380627	REC_WORD	2.226	n/a	STRAWBERRY	Fruit	1	1	[0, 0, 0]	n/a	catFR1	4	R1395M
210.845	3.607	382853	REC_WORD	3.607	n/a	CHERRY	Fruit	2	1	[0, 0, 0]	n/a	catFR1	4	R1395M
214.452	4.376	386460	REC_WORD	4.376	n/a	BANANA	Fruit	-999	1	[0, 0, 0]	n/a	catFR1	4	R1395M
218.828	0.74	390835	REC_WORD_VV	0.74	n/a	<>	n/a	-999	1	[0, 0, 0]	n/a	catFR1	4	R1395M
219.568	1.954	391575	REC_WORD	1.954	n/a	SHOES	Clothing	6	1	[0, 0, 0]	n/a	catFR1	4	R1395M
221.522	11.184	393529	REC_WORD	11.184	n/a	JACKET	Clothing	5	1	[0, 0, 0]	n/a	catFR1	4	R1395M
232.706	16.041	404717	REC_END	n/a	n/a	n/a	n/a	-999	1	[0, 0, 0]	n/a	catFR1	4	R1395M
248.747	10.351	420757	COUNTDOWN_START	n/a	n/a	n/a	n/a	-999	1	[0, 0, 0]	n/a	catFR1	4	R1395M
259.098	0.0	431107	COUNTDOWN_END	n/a	n/a	n/a	n/a	-999	1	[0, 0, 0]	n/a	catFR1	4	R1395M
259.098	2.082	431107	ENCODING_START	n/a	n/a	n/a	n/a	-999	2	[0, 0, 0]	n/a	catFR1	4	R1395M
261.18	1.6	433185	WORD	n/a	wordpools/wordpool_categorized_EN.txt	FOUNDATION	Building	1	2	[0, 0, 0]	n/a	catFR1	4	R1395M
262.78	0.834	434785	WORD_OFF	n/a	n/a	FOUNDATION	Building	1	2	[0, 0, 0]	n/a	catFR1	4	R1395M
263.614	1.616	435618	WORD	n/a	wordpools/wordpool_categorized_EN.txt	ROOF	Building	2	2	[0, 0, 0]	n/a	catFR1	4	R1395M
265.23	0.85	437237	WORD_OFF	n/a	n/a	ROOF	Building	2	2	[0, 0, 0]	n/a	catFR1	4	R1395M
266.08	1.6	438089	WORD	n/a	wordpools/wordpool_categorized_EN.txt	PEAR	Fruit	3	2	[0, 0, 0]	n/a	catFR1	4	R1395M
267.68	0.883	439689	WORD_OFF	n/a	n/a	PEAR	Fruit	3	2	[0, 0, 0]	n/a	catFR1	4	R1395M
268.563	1.617	440569	WORD	n/a	wordpools/wordpool_categorized_EN.txt	GRAPE	Fruit	4	2	[0, 0, 0]	n/a	catFR1	4	R1395M
270.18	0.95	442188	WORD_OFF	n/a	n/a	GRAPE	Fruit	4	2	[0, 0, 0]	n/a	catFR1	4	R1395M
271.13	1.617	443133	WORD	n/a	wordpools/wordpool_categorized_EN.txt	ZEBRA	Zoo	5	2	[0, 0, 0]	n/a	catFR1	4	R1395M
272.747	0.816	444752	WORD_OFF	n/a	n/a	ZEBRA	Zoo	5	2	[0, 0, 0]	n/a	catFR1	4	R1395M
273.563	1.617	445566	WORD	n/a	wordpools/wordpool_categorized_EN.txt	CHIMPANZEE	Zoo	6	2	[0, 0, 0]	n/a	catFR1	4	R1395M
275.18	0.833	447185	WORD_OFF	n/a	n/a	CHIMPANZEE	Zoo	6	2	[0, 0, 0]	n/a	catFR1	4	R1395M
276.013	1.6	448018	WORD	n/a	wordpools/wordpool_categorized_EN.txt	ROOM	Building	7	2	[0, 0, 0]	n/a	catFR1	4	R1395M
277.613	0.768	449619	WORD_OFF	n/a	n/a	ROOM	Building	7	2	[0, 0, 0]	n/a	catFR1	4	R1395M
278.381	1.616	450386	WORD	n/a	wordpools/wordpool_categorized_EN.txt	FLOOR	Building	8	2	[0, 0, 0]	n/a	catFR1	4	R1395M
279.997	0.784	452005	WORD_OFF	n/a	n/a	FLOOR	Building	8	2	[0, 0, 0]	n/a	catFR1	4	R1395M
280.781	1.6	452782	WORD	n/a	wordpools/wordpool_categorized_EN.txt	PANDA	Zoo	9	2	[0, 0, 0]	n/a	catFR1	4	R1395M
282.381	0.984	454391	WORD_OFF	n/a	n/a	PANDA	Zoo	9	2	[0, 0, 0]	n/a	catFR1	4	R1395M
283.365	1.6	455374	WORD	n/a	wordpools/wordpool_categorized_EN.txt	GORILLA	Zoo	10	2	[0, 0, 0]	n/a	catFR1	4	R1395M
284.965	0.916	456974	WORD_OFF	n/a	n/a	GORILLA	Zoo	10	2	[0, 0, 0]	n/a	catFR1	4	R1395M
285.881	1.616	457882	WORD	n/a	wordpools/wordpool_categorized_EN.txt	LIME	Fruit	11	2	[0, 0, 0]	n/a	catFR1	4	R1395M
287.497	1.0	459501	WORD_OFF	n/a	n/a	LIME	Fruit	11	2	[0, 0, 0]	n/a	catFR1	4	R1395M
288.497	1.601	460502	WORD	n/a	wordpools/wordpool_categorized_EN.txt	ORANGE	Fruit	12	2	[0, 0, 0]	n/a	catFR1	4	R1395M
290.098	0.0	462102	PROB	0.0	n/a	n/a	n/a	-999	2	[5, 5, 4]	14	catFR1	4	R1395M
290.097	0.002	462103	WORD_OFF	n/a	n/a	ORANGE	Fruit	12	2	[0, 0, 0]	n/a	catFR1	4	R1395M
290.099	0.0	462103	ENCODING_END	n/a	n/a	n/a	n/a	-999	2	[0, 0, 0]	n/a	catFR1	4	R1395M
290.099	0.0	462103	DISTRACT_START	n/a	n/a	n/a	n/a	-999	2	[0, 0, 0]	n/a	catFR1	4	R1395M
290.099	2.649	462103	START	n/a	n/a	n/a	n/a	-999	2	[-999, -999, -999]	n/a	catFR1	4	R1395M
292.748	2.683	464752	PROB	2.683	n/a	n/a	n/a	-999	2	[6, 5, 6]	17	catFR1	4	R1395M
295.431	2.333	467434	PROB	2.333	n/a	n/a	n/a	-999	2	[7, 6, 6]	19	catFR1	4	R1395M
297.764	2.434	469767	PROB	2.434	n/a	n/a	n/a	-999	2	[3, 2, 8]	13	catFR1	4	R1395M
300.198	1.8	472201	PROB	1.8	n/a	n/a	n/a	-999	2	[1, 7, 5]	13	catFR1	4	R1395M
301.998	1.749	474001	PROB	1.749	n/a	n/a	n/a	-999	2	[2, 3, 1]	6	catFR1	4	R1395M
303.747	2.135	475750	PROB	2.135	n/a	n/a	n/a	-999	2	[2, 5, 2]	9	catFR1	4	R1395M
305.882	1.683	477885	PROB	1.683	n/a	n/a	n/a	-999	2	[6, 2, 4]	12	catFR1	4	R1395M
307.565	2.815	479568	PROB	2.815	n/a	n/a	n/a	-999	2	[7, 4, 8]	19	catFR1	4	R1395M
310.38	0.0	482383	DISTRACT_END	n/a	n/a	n/a	n/a	-999	2	[0, 0, 0]	n/a	catFR1	4	R1395M
310.38	1.084	482383	STOP	n/a	n/a	n/a	n/a	-999	2	[-999, -999, -999]	n/a	catFR1	4	R1395M
311.464	3.027	483468	REC_START	n/a	n/a	n/a	n/a	-999	2	[0, 0, 0]	n/a	catFR1	4	R1395M
314.491	1.117	486493	REC_WORD	1.117	n/a	PEAR	Fruit	3	2	[0, 0, 0]	n/a	catFR1	4	R1395M
315.608	2.194	487610	REC_WORD	2.194	n/a	GRAPE	Fruit	4	2	[0, 0, 0]	n/a	catFR1	4	R1395M
317.802	2.625	489804	REC_WORD	2.625	n/a	ORANGE	Fruit	12	2	[0, 0, 0]	n/a	catFR1	4	R1395M
320.427	2.133	492429	REC_WORD	2.133	n/a	CHIMPANZEE	Zoo	6	2	[0, 0, 0]	n/a	catFR1	4	R1395M
322.56	2.386	494562	REC_WORD	2.386	n/a	ZEBRA	Zoo	5	2	[0, 0, 0]	n/a	catFR1	4	R1395M
324.946	3.353	496948	REC_WORD	3.353	n/a	PANDA	Zoo	9	2	[0, 0, 0]	n/a	catFR1	4	R1395M
328.299	1.49	500301	REC_WORD	1.49	n/a	FOUNDATION	Building	1	2	[0, 0, 0]	n/a	catFR1	4	R1395M
329.789	6.1	501791	REC_WORD	6.1	n/a	ROOF	Building	2	2	[0, 0, 0]	n/a	catFR1	4	R1395M
335.889	6.818	507890	REC_WORD	6.818	n/a	FLOOR	Building	8	2	[0, 0, 0]	n/a	catFR1	4	R1395M
342.707	3.807	514707	REC_END	n/a	n/a	n/a	n/a	-999	2	[0, 0, 0]	n/a	catFR1	4	R1395M
346.514	10.35	518516	COUNTDOWN_START	n/a	n/a	n/a	n/a	-999	2	[0, 0, 0]	n/a	catFR1	4	R1395M
356.864	0.0	528866	COUNTDOWN_END	n/a	n/a	n/a	n/a	-999	2	[0, 0, 0]	n/a	catFR1	4	R1395M
356.864	2.182	528866	ENCODING_START	n/a	n/a	n/a	n/a	-999	3	[0, 0, 0]	n/a	catFR1	4	R1395M
359.046	1.601	531047	WORD	n/a	wordpools/wordpool_categorized_EN.txt	CYPRESS	Trees	1	3	[0, 0, 0]	n/a	catFR1	4	R1395M
360.647	1.0	532647	WORD_OFF	n/a	n/a	CYPRESS	Trees	1	3	[0, 0, 0]	n/a	catFR1	4	R1395M
361.647	1.6	533648	WORD	n/a	wordpools/wordpool_categorized_EN.txt	SPRUCE	Trees	2	3	[0, 0, 0]	n/a	catFR1	4	R1395M
363.247	0.766	535249	WORD_OFF	n/a	n/a	SPRUCE	Trees	2	3	[0, 0, 0]	n/a	catFR1	4	R1395M
364.013	1.601	536016	WORD	n/a	wordpools/wordpool_categorized_EN.txt	REFRIGERATOR	Appliances	3	3	[0, 0, 0]	n/a	catFR1	4	R1395M
365.614	0.867	537616	WORD_OFF	n/a	n/a	REFRIGERATOR	Appliances	3	3	[0, 0, 0]	n/a	catFR1	4	R1395M
366.481	1.601	538477	WORD	n/a	wordpools/wordpool_categorized_EN.txt	WASHER	Appliances	4	3	[0, 0, 0]	n/a	catFR1	4	R1395M
368.082	0.833	540087	WORD_OFF	n/a	n/a	WASHER	Appliances	4	3	[0, 0, 0]	n/a	catFR1	4	R1395M
368.915	1.616	540911	WORD	n/a	wordpools/wordpool_categorized_EN.txt	CEILING	Building	5	3	[0, 0, 0]	n/a	catFR1	4	R1395M
370.531	0.916	542530	WORD_OFF	n/a	n/a	CEILING	Building	5	3	[0, 0, 0]	n/a	catFR1	4	R1395M
371.447	1.6	543447	WORD	n/a	wordpools/wordpool_categorized_EN.txt	STAIRS	Building	6	3	[0, 0, 0]	n/a	catFR1	4	R1395M
373.047	0.901	545047	WORD_OFF	n/a	n/a	STAIRS	Building	6	3	[0, 0, 0]	n/a	catFR1	4	R1395M
373.948	1.616	545945	WORD	n/a	wordpools/wordpool_categorized_EN.txt	CEDAR	Trees	7	3	[0, 0, 0]	n/a	catFR1	4	R1395M
375.564	0.783	547564	WORD_OFF	n/a	n/a	CEDAR	Trees	7	3	[0, 0, 0]	n/a	catFR1	4	R1395M
376.347	1.6	548351	WORD	n/a	wordpools/wordpool_categorized_EN.txt	EVERGREEN	Trees	8	3	[0, 0, 0]	n/a	catFR1	4	R1395M
377.947	0.867	549951	WORD_OFF	n/a	n/a	EVERGREEN	Trees	8	3	[0, 0, 0]	n/a	catFR1	4	R1395M
378.814	1.6	550812	WORD	n/a	wordpools/wordpool_categorized_EN.txt	BATHROOM	Building	9	3	[0, 0, 0]	n/a	catFR1	4	R1395M
380.414	0.95	552412	WORD_OFF	n/a	n/a	BATHROOM	Building	9	3	[0, 0, 0]	n/a	catFR1	4	R1395M
381.364	1.617	553367	WORD	n/a	wordpools/wordpool_categorized_EN.txt	ATTIC	Building	10	3	[0, 0, 0]	n/a	catFR1	4	R1395M
382.981	0.983	554976	WORD_OFF	n/a	n/a	ATTIC	Building	10	3	[0, 0, 0]	n/a	catFR1	4	R1395M
383.964	1.6	555968	WORD	n/a	wordpools/wordpool_categorized_EN.txt	OVEN	Appliances	11	3	[0, 0, 0]	n/a	catFR1	4	R1395M
385.564	0.967	557559	WORD_OFF	n/a	n/a	OVEN	Appliances	11	3	[0, 0, 0]	n/a	catFR1	4	R1395M
386.531	1.6	558533	WORD	n/a	wordpools/wordpool_categorized_EN.txt	DISHWASHER	Appliances	12	3	[0, 0, 0]	n/a	catFR1	4	R1395M
388.131	0.002	560129	PROB	0.002	n/a	n/a	n/a	-999	3	[3, 4, 7]	14	catFR1	4	R1395M
388.133	0.0	560131	START	n/a	n/a	n/a	n/a	-999	3	[-999, -999, -999]	n/a	catFR1	4	R1395M
388.131	0.002	560133	WORD_OFF	n/a	n/a	DISHWASHER	Appliances	12	3	[0, 0, 0]	n/a	catFR1	4	R1395M
388.133	0.0	560133	ENCODING_END	n/a	n/a	n/a	n/a	-999	3	[0, 0, 0]	n/a	catFR1	4	R1395M
388.133	2.798	560133	DISTRACT_START	n/a	n/a	n/a	n/a	-999	3	[0, 0, 0]	n/a	catFR1	4	R1395M
390.931	1.534	562929	PROB	1.534	n/a	n/a	n/a	-999	3	[4, 2, 6]	12	catFR1	4	R1395M
392.465	1.7	564463	PROB	1.7	n/a	n/a	n/a	-999	3	[1, 1, 4]	6	catFR1	4	R1395M
394.165	1.483	566163	PROB	1.483	n/a	n/a	n/a	-999	3	[5, 5, 2]	12	catFR1	4	R1395M
395.648	2.35	567646	PROB	2.35	n/a	n/a	n/a	-999	3	[5, 8, 4]	17	catFR1	4	R1395M
397.998	1.917	569996	PROB	1.917	n/a	n/a	n/a	-999	3	[5, 5, 7]	17	catFR1	4	R1395M
399.915	2.983	571913	PROB	2.983	n/a	n/a	n/a	-999	3	[8, 6, 6]	22	catFR1	4	R1395M
402.898	2.15	574896	PROB	2.15	n/a	n/a	n/a	-999	3	[2, 2, 2]	6	catFR1	4	R1395M
405.048	2.516	577046	PROB	2.516	n/a	n/a	n/a	-999	3	[8, 3, 2]	13	catFR1	4	R1395M
407.564	2.317	579561	PROB	2.317	n/a	n/a	n/a	-999	3	[1, 5, 2]	8	catFR1	4	R1395M
409.881	0.0	581878	STOP	n/a	n/a	n/a	n/a	-999	3	[-999, -999, -999]	n/a	catFR1	4	R1395M
409.881	1.1	581882	DISTRACT_END	n/a	n/a	n/a	n/a	-999	3	[0, 0, 0]	n/a	catFR1	4	R1395M
410.981	3.51	582977	REC_START	n/a	n/a	n/a	n/a	-999	3	[0, 0, 0]	n/a	catFR1	4	R1395M
414.491	4.586	586488	REC_WORD	4.586	n/a	CYPRESS	Trees	1	3	[0, 0, 0]	n/a	catFR1	4	R1395M
419.077	1.144	591074	REC_WORD	1.144	n/a	EVERGREEN	Trees	8	3	[0, 0, 0]	n/a	catFR1	4	R1395M
420.221	7.066	592218	REC_WORD	7.066	n/a	CEDAR	Trees	7	3	[0, 0, 0]	n/a	catFR1	4	R1395M
427.287	3.889	599283	REC_WORD	3.889	n/a	REFRIGERATOR	Appliances	3	3	[0, 0, 0]	n/a	catFR1	4	R1395M
431.176	3.635	603172	REC_WORD	3.635	n/a	WASHER	Appliances	4	3	[0, 0, 0]	n/a	catFR1	4	R1395M
434.811	7.409	606807	REC_WORD	7.409	n/a	OVEN	Appliances	11	3	[0, 0, 0]	n/a	catFR1	4	R1395M
442.22	3.377	614216	REC_END	n/a	n/a	n/a	n/a	-999	3	[0, 0, 0]	n/a	catFR1	4	R1395M
445.597	10.351	617594	COUNTDOWN_START	n/a	n/a	n/a	n/a	-999	3	[0, 0, 0]	n/a	catFR1	4	R1395M
455.948	0.0	627944	COUNTDOWN_END	n/a	n/a	n/a	n/a	-999	3	[0, 0, 0]	n/a	catFR1	4	R1395M
455.948	2.016	627944	ENCODING_START	n/a	n/a	n/a	n/a	-999	4	[0, 0, 0]	n/a	catFR1	4	R1395M
457.964	1.6	629957	WORD	n/a	wordpools/wordpool_categorized_EN.txt	PUDDING	Desserts	1	4	[0, 0, 0]	n/a	catFR1	4	R1395M
459.564	1.0	631557	WORD_OFF	n/a	n/a	PUDDING	Desserts	1	4	[0, 0, 0]	n/a	catFR1	4	R1395M
460.564	1.616	632558	WORD	n/a	wordpools/wordpool_categorized_EN.txt	PIE	Desserts	2	4	[0, 0, 0]	n/a	catFR1	4	R1395M
462.18	0.984	634177	WORD_OFF	n/a	n/a	PIE	Desserts	2	4	[0, 0, 0]	n/a	catFR1	4	R1395M
463.164	1.617	635160	WORD	n/a	wordpools/wordpool_categorized_EN.txt	SILK	Fabric	3	4	[0, 0, 0]	n/a	catFR1	4	R1395M
464.781	0.967	636779	WORD_OFF	n/a	n/a	SILK	Fabric	3	4	[0, 0, 0]	n/a	catFR1	4	R1395M
465.748	1.6	637743	WORD	n/a	wordpools/wordpool_categorized_EN.txt	SATIN	Fabric	4	4	[0, 0, 0]	n/a	catFR1	4	R1395M
467.348	0.982	639343	WORD_OFF	n/a	n/a	SATIN	Fabric	4	4	[0, 0, 0]	n/a	catFR1	4	R1395M
468.33	1.601	640326	WORD	n/a	wordpools/wordpool_categorized_EN.txt	HUMIDITY	Weather	5	4	[0, 0, 0]	n/a	catFR1	4	R1395M
469.931	0.933	641926	WORD_OFF	n/a	n/a	HUMIDITY	Weather	5	4	[0, 0, 0]	n/a	catFR1	4	R1395M
470.864	1.617	642862	WORD	n/a	wordpools/wordpool_categorized_EN.txt	SNOW	Weather	6	4	[0, 0, 0]	n/a	catFR1	4	R1395M
472.481	0.85	644472	WORD_OFF	n/a	n/a	SNOW	Weather	6	4	[0, 0, 0]	n/a	catFR1	4	R1395M
473.331	1.6	645323	WORD	n/a	wordpools/wordpool_categorized_EN.txt	MOUSSE	Desserts	7	4	[0, 0, 0]	n/a	catFR1	4	R1395M
474.931	0.899	646924	WORD_OFF	n/a	n/a	MOUSSE	Desserts	7	4	[0, 0, 0]	n/a	catFR1	4	R1395M
475.83	1.601	647822	WORD	n/a	wordpools/wordpool_categorized_EN.txt	JELLO	Desserts	8	4	[0, 0, 0]	n/a	catFR1	4	R1395M
477.431	1.0	649422	WORD_OFF	n/a	n/a	JELLO	Desserts	8	4	[0, 0, 0]	n/a	catFR1	4	R1395M
478.431	1.6	650424	WORD	n/a	wordpools/wordpool_categorized_EN.txt	DENIM	Fabric	9	4	[0, 0, 0]	n/a	catFR1	4	R1395M
480.031	0.767	652024	WORD_OFF	n/a	n/a	DENIM	Fabric	9	4	[0, 0, 0]	n/a	catFR1	4	R1395M
480.798	1.6	652791	WORD	n/a	wordpools/wordpool_categorized_EN.txt	NYLON	Fabric	10	4	[0, 0, 0]	n/a	catFR1	4	R1395M
482.398	0.9	654392	WORD_OFF	n/a	n/a	NYLON	Fabric	10	4	[0, 0, 0]	n/a	catFR1	4	R1395M
483.298	1.6	655290	WORD	n/a	wordpools/wordpool_categorized_EN.txt	WIND	Weather	11	4	[0, 0, 0]	n/a	catFR1	4	R1395M
484.898	0.849	656890	WORD_OFF	n/a	n/a	WIND	Weather	11	4	[0, 0, 0]	n/a	catFR1	4	R1395M
485.747	1.618	657742	WORD	n/a	wordpools/wordpool_categorized_EN.txt	TORNADO	Weather	12	4	[0, 0, 0]	n/a	catFR1	4	R1395M
487.365	0.001	659358	PROB	0.001	n/a	n/a	n/a	-999	4	[7, 1, 2]	10	catFR1	4	R1395M
487.366	0.0	659359	START	n/a	n/a	n/a	n/a	-999	4	[-999, -999, -999]	n/a	catFR1	4	R1395M
487.364	0.002	659361	WORD_OFF	n/a	n/a	TORNADO	Weather	12	4	[0, 0, 0]	n/a	catFR1	4	R1395M
487.366	0.0	659361	ENCODING_END	n/a	n/a	n/a	n/a	-999	4	[0, 0, 0]	n/a	catFR1	4	R1395M
487.366	3.482	659361	DISTRACT_START	n/a	n/a	n/a	n/a	-999	4	[0, 0, 0]	n/a	catFR1	4	R1395M
490.848	1.999	662841	PROB	1.999	n/a	n/a	n/a	-999	4	[4, 3, 3]	10	catFR1	4	R1395M
492.847	1.618	664840	PROB	1.618	n/a	n/a	n/a	-999	4	[7, 5, 1]	13	catFR1	4	R1395M
494.465	2.283	666458	PROB	2.283	n/a	n/a	n/a	-999	4	[1, 5, 2]	8	catFR1	4	R1395M
496.748	2.033	668741	PROB	2.033	n/a	n/a	n/a	-999	4	[5, 6, 4]	15	catFR1	4	R1395M
498.781	2.234	670774	PROB	2.234	n/a	n/a	n/a	-999	4	[7, 4, 7]	18	catFR1	4	R1395M
501.015	2.015	673008	PROB	2.015	n/a	n/a	n/a	-999	4	[1, 3, 3]	7	catFR1	4	R1395M
503.03	2.487	675022	PROB	2.487	n/a	n/a	n/a	-999	4	[7, 3, 6]	16	catFR1	4	R1395M
505.517	1.797	677509	PROB	1.797	n/a	n/a	n/a	-999	4	[8, 1, 2]	11	catFR1	4	R1395M
507.314	6.333	679306	PROB	6.333	n/a	n/a	n/a	-999	4	[7, 6, 8]	21	catFR1	4	R1395M
513.647	0.0	685639	STOP	n/a	n/a	n/a	n/a	-999	4	[-999, -999, -999]	n/a	catFR1	4	R1395M
513.647	1.167	685640	DISTRACT_END	n/a	n/a	n/a	n/a	-999	4	[0, 0, 0]	n/a	catFR1	4	R1395M
514.814	1.967	686809	REC_START	n/a	n/a	n/a	n/a	-999	4	[0, 0, 0]	n/a	catFR1	4	R1395M
516.781	1.615	688773	REC_WORD	1.615	n/a	PUDDING	Desserts	1	4	[0, 0, 0]	n/a	catFR1	4	R1395M
518.396	1.783	690388	REC_WORD	1.783	n/a	PIE	Desserts	2	4	[0, 0, 0]	n/a	catFR1	4	R1395M
520.179	1.36	692171	REC_WORD	1.36	n/a	JELLO	Desserts	8	4	[0, 0, 0]	n/a	catFR1	4	R1395M
521.539	2.07	693530	REC_WORD	2.07	n/a	MOUSSE	Desserts	7	4	[0, 0, 0]	n/a	catFR1	4	R1395M
523.609	0.811	695600	REC_WORD	0.811	n/a	HUMIDITY	Weather	5	4	[0, 0, 0]	n/a	catFR1	4	R1395M
524.42	1.36	696411	REC_WORD_VV	1.36	n/a	<>	n/a	-999	4	[0, 0, 0]	n/a	catFR1	4	R1395M
525.78	2.228	697771	REC_WORD	2.228	n/a	SNOW	Weather	6	4	[0, 0, 0]	n/a	catFR1	4	R1395M
528.008	2.481	699999	REC_WORD	2.481	n/a	HURRICANE	n/a	-999	4	[0, 0, 0]	n/a	catFR1	4	R1395M
530.489	3.461	702480	REC_WORD	3.461	n/a	TORNADO	Weather	12	4	[0, 0, 0]	n/a	catFR1	4	R1395M
533.95	1.662	705941	REC_WORD	1.662	n/a	COTTON	n/a	-999	4	[0, 0, 0]	n/a	catFR1	4	R1395M
535.612	1.743	707603	REC_WORD	1.743	n/a	SILK	Fabric	3	4	[0, 0, 0]	n/a	catFR1	4	R1395M
537.355	8.681	709346	REC_WORD	8.681	n/a	NYLON	Fabric	10	4	[0, 0, 0]	n/a	catFR1	4	R1395M
546.036	18.628	718029	REC_END	n/a	n/a	n/a	n/a	-999	4	[0, 0, 0]	n/a	catFR1	4	R1395M
564.664	10.351	736653	COUNTDOWN_START	n/a	n/a	n/a	n/a	-999	4	[0, 0, 0]	n/a	catFR1	4	R1395M
575.015	0.0	747003	COUNTDOWN_END	n/a	n/a	n/a	n/a	-999	4	[0, 0, 0]	n/a	catFR1	4	R1395M
575.015	2.166	747003	ENCODING_START	n/a	n/a	n/a	n/a	-999	5	[0, 0, 0]	n/a	catFR1	4	R1395M
577.181	1.6	749174	WORD	n/a	wordpools/wordpool_categorized_EN.txt	MILK	Beverages	1	5	[0, 0, 0]	n/a	catFR1	4	R1395M
578.781	1.0	750765	WORD_OFF	n/a	n/a	MILK	Beverages	1	5	[0, 0, 0]	n/a	catFR1	4	R1395M
579.781	1.616	751767	WORD	n/a	wordpools/wordpool_categorized_EN.txt	WATER	Beverages	2	5	[0, 0, 0]	n/a	catFR1	4	R1395M
581.397	0.934	753386	WORD_OFF	n/a	n/a	WATER	Beverages	2	5	[0, 0, 0]	n/a	catFR1	4	R1395M
582.331	1.6	754321	WORD	n/a	wordpools/wordpool_categorized_EN.txt	BARBIE	Toys	3	5	[0, 0, 0]	n/a	catFR1	4	R1395M
583.931	0.916	755922	WORD_OFF	n/a	n/a	BARBIE	Toys	3	5	[0, 0, 0]	n/a	catFR1	4	R1395M
584.847	1.617	756839	WORD	n/a	wordpools/wordpool_categorized_EN.txt	FRISBEE	Toys	4	5	[0, 0, 0]	n/a	catFR1	4	R1395M
586.464	0.766	758449	WORD_OFF	n/a	n/a	FRISBEE	Toys	4	5	[0, 0, 0]	n/a	catFR1	4	R1395M
587.23	1.6	759216	WORD	n/a	wordpools/wordpool_categorized_EN.txt	HALLWAY	Building	5	5	[0, 0, 0]	n/a	catFR1	4	R1395M
588.83	0.85	760816	WORD_OFF	n/a	n/a	HALLWAY	Building	5	5	[0, 0, 0]	n/a	catFR1	4	R1395M
589.68	1.6	761668	WORD	n/a	wordpools/wordpool_categorized_EN.txt	WINDOW	Building	6	5	[0, 0, 0]	n/a	catFR1	4	R1395M
591.28	0.867	763268	WORD_OFF	n/a	n/a	WINDOW	Building	6	5	[0, 0, 0]	n/a	catFR1	4	R1395M
592.147	1.6	764139	WORD	n/a	wordpools/wordpool_categorized_EN.txt	LEMONADE	Beverages	7	5	[0, 0, 0]	n/a	catFR1	4	R1395M
593.747	0.9	765739	WORD_OFF	n/a	n/a	LEMONADE	Beverages	7	5	[0, 0, 0]	n/a	catFR1	4	R1395M
594.647	1.6	766637	WORD	n/a	wordpools/wordpool_categorized_EN.txt	SODA	Beverages	8	5	[0, 0, 0]	n/a	catFR1	4	R1395M
596.247	0.883	768238	WORD_OFF	n/a	n/a	SODA	Beverages	8	5	[0, 0, 0]	n/a	catFR1	4	R1395M
597.13	1.6	769117	WORD	n/a	wordpools/wordpool_categorized_EN.txt	BASEBALL	Toys	9	5	[0, 0, 0]	n/a	catFR1	4	R1395M
598.73	0.967	770718	WORD_OFF	n/a	n/a	BASEBALL	Toys	9	5	[0, 0, 0]	n/a	catFR1	4	R1395M
599.697	1.617	771681	WORD	n/a	wordpools/wordpool_categorized_EN.txt	MARBLES	Toys	10	5	[0, 0, 0]	n/a	catFR1	4	R1395M
601.314	0.816	773300	WORD_OFF	n/a	n/a	MARBLES	Toys	10	5	[0, 0, 0]	n/a	catFR1	4	R1395M
602.13	1.6	774115	WORD	n/a	wordpools/wordpool_categorized_EN.txt	DOOR	Building	11	5	[0, 0, 0]	n/a	catFR1	4	R1395M
603.73	0.883	775715	WORD_OFF	n/a	n/a	DOOR	Building	11	5	[0, 0, 0]	n/a	catFR1	4	R1395M
604.613	1.601	776604	WORD	n/a	wordpools/wordpool_categorized_EN.txt	WALL	Building	12	5	[0, 0, 0]	n/a	catFR1	4	R1395M
606.214	0.001	778201	PROB	0.001	n/a	n/a	n/a	-999	5	[6, 7, 3]	16	catFR1	4	R1395M
606.215	0.0	778202	START	n/a	n/a	n/a	n/a	-999	5	[-999, -999, -999]	n/a	catFR1	4	R1395M
606.213	0.002	778204	WORD_OFF	n/a	n/a	WALL	Building	12	5	[0, 0, 0]	n/a	catFR1	4	R1395M
606.215	0.0	778204	ENCODING_END	n/a	n/a	n/a	n/a	-999	5	[0, 0, 0]	n/a	catFR1	4	R1395M
606.215	6.133	778204	DISTRACT_START	n/a	n/a	n/a	n/a	-999	5	[0, 0, 0]	n/a	catFR1	4	R1395M
612.348	3.467	784335	PROB	3.467	n/a	n/a	n/a	-999	5	[7, 6, 2]	15	catFR1	4	R1395M
615.815	2.217	787801	PROB	2.217	n/a	n/a	n/a	-999	5	[4, 2, 3]	9	catFR1	4	R1395M
618.032	2.85	790018	PROB	2.85	n/a	n/a	n/a	-999	5	[8, 5, 6]	19	catFR1	4	R1395M
620.882	2.149	792868	PROB	2.149	n/a	n/a	n/a	-999	5	[1, 3, 5]	9	catFR1	4	R1395M
623.031	2.167	795017	PROB	2.167	n/a	n/a	n/a	-999	5	[1, 2, 3]	6	catFR1	4	R1395M
625.198	3.549	797184	PROB	3.549	n/a	n/a	n/a	-999	5	[5, 8, 4]	17	catFR1	4	R1395M
628.747	0.0	800730	DISTRACT_END	n/a	n/a	n/a	n/a	-999	5	[0, 0, 0]	n/a	catFR1	4	R1395M
628.747	1.351	800733	STOP	n/a	n/a	n/a	n/a	-999	5	[-999, -999, -999]	n/a	catFR1	4	R1395M
630.098	0.461	802087	REC_START	n/a	n/a	n/a	n/a	-999	5	[0, 0, 0]	n/a	catFR1	4	R1395M
630.559	1.776	802545	REC_WORD_VV	1.776	n/a	<>	n/a	-999	5	[0, 0, 0]	n/a	catFR1	4	R1395M
632.335	1.908	804321	REC_WORD	1.908	n/a	BARBIE	Toys	3	5	[0, 0, 0]	n/a	catFR1	4	R1395M
634.243	1.879	806228	REC_WORD	1.879	n/a	FRISBEE	Toys	4	5	[0, 0, 0]	n/a	catFR1	4	R1395M
636.122	0.997	808107	REC_WORD	0.997	n/a	HALLWAY	Building	5	5	[0, 0, 0]	n/a	catFR1	4	R1395M
637.119	1.687	809104	REC_WORD_VV	1.687	n/a	<>	n/a	-999	5	[0, 0, 0]	n/a	catFR1	4	R1395M
638.806	2.426	810791	REC_WORD	2.426	n/a	WINDOW	Building	6	5	[0, 0, 0]	n/a	catFR1	4	R1395M
641.232	3.299	813217	REC_WORD	3.299	n/a	BASEBALL	Toys	9	5	[0, 0, 0]	n/a	catFR1	4	R1395M
644.531	1.499	816516	REC_WORD	1.499	n/a	MILK	Beverages	1	5	[0, 0, 0]	n/a	catFR1	4	R1395M
646.03	6.757	818015	REC_WORD	6.757	n/a	WATER	Beverages	2	5	[0, 0, 0]	n/a	catFR1	4	R1395M
652.787	8.535	824772	REC_WORD	8.535	n/a	JUICE	n/a	-999	5	[0, 0, 0]	n/a	catFR1	4	R1395M
661.322	16.142	833307	REC_END	n/a	n/a	n/a	n/a	-999	5	[0, 0, 0]	n/a	catFR1	4	R1395M
677.464	10.35	849450	COUNTDOWN_START	n/a	n/a	n/a	n/a	-999	5	[0, 0, 0]	n/a	catFR1	4	R1395M
687.814	0.0	859801	COUNTDOWN_END	n/a	n/a	n/a	n/a	-999	5	[0, 0, 0]	n/a	catFR1	4	R1395M
687.814	1.916	859801	ENCODING_START	n/a	n/a	n/a	n/a	-999	6	[0, 0, 0]	n/a	catFR1	4	R1395M
689.73	1.6	861710	WORD	n/a	wordpools/wordpool_categorized_EN.txt	RAIN	Weather	1	6	[0, 0, 0]	n/a	catFR1	4	R1395M
691.33	0.917	863310	WORD_OFF	n/a	n/a	RAIN	Weather	1	6	[0, 0, 0]	n/a	catFR1	4	R1395M
692.247	1.6	864228	WORD	n/a	wordpools/wordpool_categorized_EN.txt	FOG	Weather	2	6	[0, 0, 0]	n/a	catFR1	4	R1395M
693.847	0.85	865828	WORD_OFF	n/a	n/a	FOG	Weather	2	6	[0, 0, 0]	n/a	catFR1	4	R1395M
694.697	1.6	866679	WORD	n/a	wordpools/wordpool_categorized_EN.txt	BEER	Beverages	3	6	[0, 0, 0]	n/a	catFR1	4	R1395M
696.297	0.85	868280	WORD_OFF	n/a	n/a	BEER	Beverages	3	6	[0, 0, 0]	n/a	catFR1	4	R1395M
697.147	1.602	869131	WORD	n/a	wordpools/wordpool_categorized_EN.txt	CIDER	Beverages	4	6	[0, 0, 0]	n/a	catFR1	4	R1395M
698.749	0.932	870732	WORD_OFF	n/a	n/a	CIDER	Beverages	4	6	[0, 0, 0]	n/a	catFR1	4	R1395M
699.681	1.6	871668	WORD	n/a	wordpools/wordpool_categorized_EN.txt	CROW	Birds	5	6	[0, 0, 0]	n/a	catFR1	4	R1395M
701.281	0.8	873268	WORD_OFF	n/a	n/a	CROW	Birds	5	6	[0, 0, 0]	n/a	catFR1	4	R1395M
702.081	1.601	874063	WORD	n/a	wordpools/wordpool_categorized_EN.txt	HAWK	Birds	6	6	[0, 0, 0]	n/a	catFR1	4	R1395M
703.682	0.782	875664	WORD_OFF	n/a	n/a	HAWK	Birds	6	6	[0, 0, 0]	n/a	catFR1	4	R1395M
704.464	1.616	876450	WORD	n/a	wordpools/wordpool_categorized_EN.txt	HURRICANE	Weather	7	6	[0, 0, 0]	n/a	catFR1	4	R1395M
706.08	0.951	878059	WORD_OFF	n/a	n/a	HURRICANE	Weather	7	6	[0, 0, 0]	n/a	catFR1	4	R1395M
707.031	1.6	879014	WORD	n/a	wordpools/wordpool_categorized_EN.txt	THUNDERSTORM	Weather	8	6	[0, 0, 0]	n/a	catFR1	4	R1395M
708.631	0.867	880614	WORD_OFF	n/a	n/a	THUNDERSTORM	Weather	8	6	[0, 0, 0]	n/a	catFR1	4	R1395M
709.498	1.599	881475	WORD	n/a	wordpools/wordpool_categorized_EN.txt	CARDINAL	Birds	9	6	[0, 0, 0]	n/a	catFR1	4	R1395M
711.097	0.784	883076	WORD_OFF	n/a	n/a	CARDINAL	Birds	9	6	[0, 0, 0]	n/a	catFR1	4	R1395M
711.881	1.616	883862	WORD	n/a	wordpools/wordpool_categorized_EN.txt	BLUEBIRD	Birds	10	6	[0, 0, 0]	n/a	catFR1	4	R1395M
713.497	0.984	885481	WORD_OFF	n/a	n/a	BLUEBIRD	Birds	10	6	[0, 0, 0]	n/a	catFR1	4	R1395M
714.481	1.6	886463	WORD	n/a	wordpools/wordpool_categorized_EN.txt	COFFEE	Beverages	11	6	[0, 0, 0]	n/a	catFR1	4	R1395M
716.081	0.767	888064	WORD_OFF	n/a	n/a	COFFEE	Beverages	11	6	[0, 0, 0]	n/a	catFR1	4	R1395M
716.848	1.6	888831	WORD	n/a	wordpools/wordpool_categorized_EN.txt	JUICE	Beverages	12	6	[0, 0, 0]	n/a	catFR1	4	R1395M
718.448	0.001	890429	PROB	0.001	n/a	n/a	n/a	-999	6	[7, 3, 3]	13	catFR1	4	R1395M
718.449	0.0	890430	START	n/a	n/a	n/a	n/a	-999	6	[-999, -999, -999]	n/a	catFR1	4	R1395M
718.448	0.001	890431	WORD_OFF	n/a	n/a	JUICE	Beverages	12	6	[0, 0, 0]	n/a	catFR1	4	R1395M
718.449	0.0	890431	ENCODING_END	n/a	n/a	n/a	n/a	-999	6	[0, 0, 0]	n/a	catFR1	4	R1395M
718.449	3.566	890431	DISTRACT_START	n/a	n/a	n/a	n/a	-999	6	[0, 0, 0]	n/a	catFR1	4	R1395M
722.015	2.882	893996	PROB	2.882	n/a	n/a	n/a	-999	6	[7, 7, 5]	19	catFR1	4	R1395M
724.897	1.734	896878	PROB	1.734	n/a	n/a	n/a	-999	6	[3, 3, 2]	8	catFR1	4	R1395M
726.631	2.201	898612	PROB	2.201	n/a	n/a	n/a	-999	6	[4, 5, 7]	16	catFR1	4	R1395M
728.832	2.632	900812	PROB	2.632	n/a	n/a	n/a	-999	6	[1, 8, 7]	16	catFR1	4	R1395M
731.464	2.334	903444	PROB	2.334	n/a	n/a	n/a	-999	6	[6, 6, 7]	19	catFR1	4	R1395M
733.798	2.232	905778	PROB	2.232	n/a	n/a	n/a	-999	6	[1, 1, 5]	7	catFR1	4	R1395M
736.03	2.151	908010	PROB	2.151	n/a	n/a	n/a	-999	6	[5, 1, 3]	9	catFR1	4	R1395M
738.181	2.682	910161	PROB	2.682	n/a	n/a	n/a	-999	6	[7, 7, 3]	17	catFR1	4	R1395M
740.863	0.0	912843	STOP	n/a	n/a	n/a	n/a	-999	6	[-999, -999, -999]	n/a	catFR1	4	R1395M
740.863	1.217	912845	DISTRACT_END	n/a	n/a	n/a	n/a	-999	6	[0, 0, 0]	n/a	catFR1	4	R1395M
742.08	4.222	914061	REC_START	n/a	n/a	n/a	n/a	-999	6	[0, 0, 0]	n/a	catFR1	4	R1395M
746.302	1.414	918282	REC_WORD	1.414	n/a	HURRICANE	Weather	7	6	[0, 0, 0]	n/a	catFR1	4	R1395M
747.716	4.94	919695	REC_WORD	4.94	n/a	WIND	Weather	-999	6	[0, 0, 0]	n/a	catFR1	4	R1395M
752.656	3.257	924635	REC_WORD	3.257	n/a	BLUEBIRD	Birds	10	6	[0, 0, 0]	n/a	catFR1	4	R1395M
755.913	17.387	927892	REC_WORD	17.387	n/a	CROW	Birds	5	6	[0, 0, 0]	n/a	catFR1	4	R1395M
773.3	7.464	945281	REC_END	n/a	n/a	n/a	n/a	-999	6	[0, 0, 0]	n/a	catFR1	4	R1395M
780.764	10.351	952740	COUNTDOWN_START	n/a	n/a	n/a	n/a	-999	6	[0, 0, 0]	n/a	catFR1	4	R1395M
791.115	0.0	963091	COUNTDOWN_END	n/a	n/a	n/a	n/a	-999	6	[0, 0, 0]	n/a	catFR1	4	R1395M
791.115	2.083	963091	ENCODING_START	n/a	n/a	n/a	n/a	-999	7	[0, 0, 0]	n/a	catFR1	4	R1395M
793.198	1.616	965177	WORD	n/a	wordpools/wordpool_categorized_EN.txt	HICKORY	Trees	1	7	[0, 0, 0]	n/a	catFR1	4	R1395M
794.814	0.8	966796	WORD_OFF	n/a	n/a	HICKORY	Trees	1	7	[0, 0, 0]	n/a	catFR1	4	R1395M
795.614	1.6	967592	WORD	n/a	wordpools/wordpool_categorized_EN.txt	OAK	Trees	2	7	[0, 0, 0]	n/a	catFR1	4	R1395M
797.214	0.849	969192	WORD_OFF	n/a	n/a	OAK	Trees	2	7	[0, 0, 0]	n/a	catFR1	4	R1395M
798.063	1.601	970044	WORD	n/a	wordpools/wordpool_categorized_EN.txt	LIGHTNING	Weather	3	7	[0, 0, 0]	n/a	catFR1	4	R1395M
799.664	0.8	971644	WORD_OFF	n/a	n/a	LIGHTNING	Weather	3	7	[0, 0, 0]	n/a	catFR1	4	R1395M
800.464	1.6	972440	WORD	n/a	wordpools/wordpool_categorized_EN.txt	CLOUD	Weather	4	7	[0, 0, 0]	n/a	catFR1	4	R1395M
802.064	0.767	974040	WORD_OFF	n/a	n/a	CLOUD	Weather	4	7	[0, 0, 0]	n/a	catFR1	4	R1395M
802.831	1.6	974807	WORD	n/a	wordpools/wordpool_categorized_EN.txt	CORKSCREW	KitchenTools	5	7	[0, 0, 0]	n/a	catFR1	4	R1395M
804.431	0.783	976408	WORD_OFF	n/a	n/a	CORKSCREW	KitchenTools	5	7	[0, 0, 0]	n/a	catFR1	4	R1395M
805.214	1.616	977194	WORD	n/a	wordpools/wordpool_categorized_EN.txt	KNIFE	KitchenTools	6	7	[0, 0, 0]	n/a	catFR1	4	R1395M
806.83	0.901	978803	WORD_OFF	n/a	n/a	KNIFE	KitchenTools	6	7	[0, 0, 0]	n/a	catFR1	4	R1395M
807.731	1.6	979711	WORD	n/a	wordpools/wordpool_categorized_EN.txt	MAPLE	Trees	7	7	[0, 0, 0]	n/a	catFR1	4	R1395M
809.331	0.883	981312	WORD_OFF	n/a	n/a	MAPLE	Trees	7	7	[0, 0, 0]	n/a	catFR1	4	R1395M
810.214	1.6	982191	WORD	n/a	wordpools/wordpool_categorized_EN.txt	ELM	Trees	8	7	[0, 0, 0]	n/a	catFR1	4	R1395M
811.814	0.9	983792	WORD_OFF	n/a	n/a	ELM	Trees	8	7	[0, 0, 0]	n/a	catFR1	4	R1395M
812.714	1.616	984690	WORD	n/a	wordpools/wordpool_categorized_EN.txt	THUNDER	Weather	9	7	[0, 0, 0]	n/a	catFR1	4	R1395M
814.33	0.8	986309	WORD_OFF	n/a	n/a	THUNDER	Weather	9	7	[0, 0, 0]	n/a	catFR1	4	R1395M
815.13	1.601	987104	WORD	n/a	wordpools/wordpool_categorized_EN.txt	DRIZZLE	Weather	10	7	[0, 0, 0]	n/a	catFR1	4	R1395M
816.731	0.933	988705	WORD_OFF	n/a	n/a	DRIZZLE	Weather	10	7	[0, 0, 0]	n/a	catFR1	4	R1395M
817.664	1.617	989641	WORD	n/a	wordpools/wordpool_categorized_EN.txt	SPATULA	KitchenTools	11	7	[0, 0, 0]	n/a	catFR1	4	R1395M
819.281	0.817	991260	WORD_OFF	n/a	n/a	SPATULA	KitchenTools	11	7	[0, 0, 0]	n/a	catFR1	4	R1395M
820.098	1.6	992074	WORD	n/a	wordpools/wordpool_categorized_EN.txt	SPOON	KitchenTools	12	7	[0, 0, 0]	n/a	catFR1	4	R1395M
821.698	0.001	993674	WORD_OFF	n/a	n/a	SPOON	KitchenTools	12	7	[0, 0, 0]	n/a	catFR1	4	R1395M
821.699	0.0	993674	ENCODING_END	n/a	n/a	n/a	n/a	-999	7	[0, 0, 0]	n/a	catFR1	4	R1395M
821.699	0.0	993674	DISTRACT_START	n/a	n/a	n/a	n/a	-999	7	[0, 0, 0]	n/a	catFR1	4	R1395M
821.698	0.001	993674	PROB	0.001	n/a	n/a	n/a	-999	7	[7, 1, 5]	13	catFR1	4	R1395M
821.699	9.066	993675	START	n/a	n/a	n/a	n/a	-999	7	[-999, -999, -999]	n/a	catFR1	4	R1395M
830.765	2.35	1002740	PROB	2.35	n/a	n/a	n/a	-999	7	[1, 2, 4]	7	catFR1	4	R1395M
833.115	2.099	1005090	PROB	2.099	n/a	n/a	n/a	-999	7	[2, 1, 7]	10	catFR1	4	R1395M
835.214	2.101	1007189	PROB	2.101	n/a	n/a	n/a	-999	7	[6, 3, 8]	17	catFR1	4	R1395M
837.315	1.633	1009290	PROB	1.633	n/a	n/a	n/a	-999	7	[2, 7, 3]	12	catFR1	4	R1395M
838.948	2.2	1010923	PROB	2.2	n/a	n/a	n/a	-999	7	[3, 2, 3]	8	catFR1	4	R1395M
841.148	1.799	1013123	PROB	1.799	n/a	n/a	n/a	-999	7	[8, 1, 4]	13	catFR1	4	R1395M
842.947	0.0	1014918	DISTRACT_END	n/a	n/a	n/a	n/a	-999	7	[0, 0, 0]	n/a	catFR1	4	R1395M
842.947	1.1	1014921	STOP	n/a	n/a	n/a	n/a	-999	7	[-999, -999, -999]	n/a	catFR1	4	R1395M
844.047	3.587	1016022	REC_START	n/a	n/a	n/a	n/a	-999	7	[0, 0, 0]	n/a	catFR1	4	R1395M
847.634	1.298	1019608	REC_WORD	1.298	n/a	HICKORY	Trees	1	7	[0, 0, 0]	n/a	catFR1	4	R1395M
848.932	1.819	1020906	REC_WORD	1.819	n/a	OAK	Trees	2	7	[0, 0, 0]	n/a	catFR1	4	R1395M
850.751	2.208	1022725	REC_WORD	2.208	n/a	CEDAR	Trees	-999	7	[0, 0, 0]	n/a	catFR1	4	R1395M
852.959	3.623	1024933	REC_WORD	3.623	n/a	ELM	Trees	8	7	[0, 0, 0]	n/a	catFR1	4	R1395M
856.582	3.44	1028556	REC_WORD	3.44	n/a	LIGHTNING	Weather	3	7	[0, 0, 0]	n/a	catFR1	4	R1395M
860.022	15.252	1031996	REC_WORD	15.252	n/a	CLOUD	Weather	4	7	[0, 0, 0]	n/a	catFR1	4	R1395M
875.274	1.507	1047251	REC_END	n/a	n/a	n/a	n/a	-999	7	[0, 0, 0]	n/a	catFR1	4	R1395M
876.781	10.35	1048758	COUNTDOWN_START	n/a	n/a	n/a	n/a	-999	7	[0, 0, 0]	n/a	catFR1	4	R1395M
887.131	0.0	1059099	COUNTDOWN_END	n/a	n/a	n/a	n/a	-999	7	[0, 0, 0]	n/a	catFR1	4	R1395M
887.131	1.85	1059109	ENCODING_START	n/a	n/a	n/a	n/a	-999	8	[0, 0, 0]	n/a	catFR1	4	R1395M
888.981	1.6	1060952	WORD	n/a	wordpools/wordpool_categorized_EN.txt	LOBSTER	OceanAnimals	1	8	[0, 0, 0]	n/a	catFR1	4	R1395M
890.581	0.783	1062553	WORD_OFF	n/a	n/a	LOBSTER	OceanAnimals	1	8	[0, 0, 0]	n/a	catFR1	4	R1395M
891.364	1.617	1063339	WORD	n/a	wordpools/wordpool_categorized_EN.txt	DOLPHIN	OceanAnimals	2	8	[0, 0, 0]	n/a	catFR1	4	R1395M
892.981	0.85	1064958	WORD_OFF	n/a	n/a	DOLPHIN	OceanAnimals	2	8	[0, 0, 0]	n/a	catFR1	4	R1395M
893.831	1.616	1065800	WORD	n/a	wordpools/wordpool_categorized_EN.txt	STRAINER	KitchenTools	3	8	[0, 0, 0]	n/a	catFR1	4	R1395M
895.447	0.917	1067419	WORD_OFF	n/a	n/a	STRAINER	KitchenTools	3	8	[0, 0, 0]	n/a	catFR1	4	R1395M
896.364	1.6	1068336	WORD	n/a	wordpools/wordpool_categorized_EN.txt	FORK	KitchenTools	4	8	[0, 0, 0]	n/a	catFR1	4	R1395M
897.964	0.85	1069936	WORD_OFF	n/a	n/a	FORK	KitchenTools	4	8	[0, 0, 0]	n/a	catFR1	4	R1395M
898.814	1.6	1070788	WORD	n/a	wordpools/wordpool_categorized_EN.txt	WRENCH	Tools	5	8	[0, 0, 0]	n/a	catFR1	4	R1395M
900.414	0.884	1072388	WORD_OFF	n/a	n/a	WRENCH	Tools	5	8	[0, 0, 0]	n/a	catFR1	4	R1395M
901.298	1.616	1073268	WORD	n/a	wordpools/wordpool_categorized_EN.txt	SAW	Tools	6	8	[0, 0, 0]	n/a	catFR1	4	R1395M
902.914	0.767	1074887	WORD_OFF	n/a	n/a	SAW	Tools	6	8	[0, 0, 0]	n/a	catFR1	4	R1395M
903.681	1.6	1075654	WORD	n/a	wordpools/wordpool_categorized_EN.txt	TONGS	KitchenTools	7	8	[0, 0, 0]	n/a	catFR1	4	R1395M
905.281	0.966	1077255	WORD_OFF	n/a	n/a	TONGS	KitchenTools	7	8	[0, 0, 0]	n/a	catFR1	4	R1395M
906.247	1.617	1078219	WORD	n/a	wordpools/wordpool_categorized_EN.txt	GRATER	KitchenTools	8	8	[0, 0, 0]	n/a	catFR1	4	R1395M
907.864	0.967	1079838	WORD_OFF	n/a	n/a	GRATER	KitchenTools	8	8	[0, 0, 0]	n/a	catFR1	4	R1395M
908.831	1.6	1080802	WORD	n/a	wordpools/wordpool_categorized_EN.txt	OYSTER	OceanAnimals	9	8	[0, 0, 0]	n/a	catFR1	4	R1395M
910.431	0.833	1082402	WORD_OFF	n/a	n/a	OYSTER	OceanAnimals	9	8	[0, 0, 0]	n/a	catFR1	4	R1395M
911.264	1.6	1083235	WORD	n/a	wordpools/wordpool_categorized_EN.txt	SQUID	OceanAnimals	10	8	[0, 0, 0]	n/a	catFR1	4	R1395M
912.864	0.933	1084835	WORD_OFF	n/a	n/a	SQUID	OceanAnimals	10	8	[0, 0, 0]	n/a	catFR1	4	R1395M
913.797	1.6	1085771	WORD	n/a	wordpools/wordpool_categorized_EN.txt	DRILL	Tools	11	8	[0, 0, 0]	n/a	catFR1	4	R1395M
915.397	0.884	1087371	WORD_OFF	n/a	n/a	DRILL	Tools	11	8	[0, 0, 0]	n/a	catFR1	4	R1395M
916.281	1.617	1088251	WORD	n/a	wordpools/wordpool_categorized_EN.txt	AXE	Tools	12	8	[0, 0, 0]	n/a	catFR1	4	R1395M
917.898	0.001	1089868	PROB	0.001	n/a	n/a	n/a	-999	8	[2, 6, 2]	10	catFR1	4	R1395M
917.899	0.0	1089869	START	n/a	n/a	n/a	n/a	-999	8	[-999, -999, -999]	n/a	catFR1	4	R1395M
917.897	0.002	1089870	WORD_OFF	n/a	n/a	AXE	Tools	12	8	[0, 0, 0]	n/a	catFR1	4	R1395M
917.899	0.0	1089870	ENCODING_END	n/a	n/a	n/a	n/a	-999	8	[0, 0, 0]	n/a	catFR1	4	R1395M
917.899	4.083	1089870	DISTRACT_START	n/a	n/a	n/a	n/a	-999	8	[0, 0, 0]	n/a	catFR1	4	R1395M
921.982	2.299	1093952	PROB	2.299	n/a	n/a	n/a	-999	8	[1, 8, 6]	15	catFR1	4	R1395M
924.281	2.584	1096251	PROB	2.584	n/a	n/a	n/a	-999	8	[6, 7, 2]	15	catFR1	4	R1395M
926.865	2.616	1098835	PROB	2.616	n/a	n/a	n/a	-999	8	[8, 6, 6]	20	catFR1	4	R1395M
929.481	2.117	1101451	PROB	2.117	n/a	n/a	n/a	-999	8	[8, 3, 3]	14	catFR1	4	R1395M
931.598	2.782	1103568	PROB	2.782	n/a	n/a	n/a	-999	8	[8, 5, 8]	21	catFR1	4	R1395M
934.38	3.117	1106350	PROB	3.117	n/a	n/a	n/a	-999	8	[8, 7, 8]	23	catFR1	4	R1395M
937.497	3.5	1109466	PROB	3.5	n/a	n/a	n/a	-999	8	[5, 4, 6]	15	catFR1	4	R1395M
940.997	0.0	1112966	STOP	n/a	n/a	n/a	n/a	-999	8	[-999, -999, -999]	n/a	catFR1	4	R1395M
940.997	1.166	1112967	DISTRACT_END	n/a	n/a	n/a	n/a	-999	8	[0, 0, 0]	n/a	catFR1	4	R1395M
942.163	4.082	1114136	REC_START	n/a	n/a	n/a	n/a	-999	8	[0, 0, 0]	n/a	catFR1	4	R1395M
946.245	2.217	1118214	REC_WORD	2.217	n/a	OYSTER	OceanAnimals	9	8	[0, 0, 0]	n/a	catFR1	4	R1395M
948.462	1.668	1120431	REC_WORD	1.668	n/a	LOBSTER	OceanAnimals	1	8	[0, 0, 0]	n/a	catFR1	4	R1395M
950.13	2.195	1122099	REC_WORD	2.195	n/a	SQUID	OceanAnimals	10	8	[0, 0, 0]	n/a	catFR1	4	R1395M
952.325	2.719	1124294	REC_WORD	2.719	n/a	DOLPHIN	OceanAnimals	2	8	[0, 0, 0]	n/a	catFR1	4	R1395M
955.044	2.275	1127013	REC_WORD	2.275	n/a	STRAINER	KitchenTools	3	8	[0, 0, 0]	n/a	catFR1	4	R1395M
957.319	1.961	1129287	REC_WORD	1.961	n/a	GRATER	KitchenTools	8	8	[0, 0, 0]	n/a	catFR1	4	R1395M
959.28	2.186	1131248	REC_WORD	2.186	n/a	FORK	KitchenTools	4	8	[0, 0, 0]	n/a	catFR1	4	R1395M
961.466	5.099	1133434	REC_WORD	5.099	n/a	TONGS	KitchenTools	7	8	[0, 0, 0]	n/a	catFR1	4	R1395M
966.565	1.793	1138533	REC_WORD	1.793	n/a	WRENCH	Tools	5	8	[0, 0, 0]	n/a	catFR1	4	R1395M
968.358	1.434	1140326	REC_WORD	1.434	n/a	AXE	Tools	12	8	[0, 0, 0]	n/a	catFR1	4	R1395M
969.792	3.586	1141760	REC_WORD	3.586	n/a	SAW	Tools	6	8	[0, 0, 0]	n/a	catFR1	4	R1395M
973.378	9.503	1145347	REC_END	n/a	n/a	n/a	n/a	-999	8	[0, 0, 0]	n/a	catFR1	4	R1395M
982.881	10.35	1154855	COUNTDOWN_START	n/a	n/a	n/a	n/a	-999	8	[0, 0, 0]	n/a	catFR1	4	R1395M
993.231	0.0	1165196	COUNTDOWN_END	n/a	n/a	n/a	n/a	-999	8	[0, 0, 0]	n/a	catFR1	4	R1395M
993.231	2.0	1165196	ENCODING_START	n/a	n/a	n/a	n/a	-999	9	[0, 0, 0]	n/a	catFR1	4	R1395M
995.231	1.6	1167199	WORD	n/a	wordpools/wordpool_categorized_EN.txt	TABLE	Furniture	1	9	[0, 0, 0]	n/a	catFR1	4	R1395M
996.831	0.85	1168799	WORD_OFF	n/a	n/a	TABLE	Furniture	1	9	[0, 0, 0]	n/a	catFR1	4	R1395M
997.681	1.617	1169651	WORD	n/a	wordpools/wordpool_categorized_EN.txt	RECLINER	Furniture	2	9	[0, 0, 0]	n/a	catFR1	4	R1395M
999.298	0.783	1171261	WORD_OFF	n/a	n/a	RECLINER	Furniture	2	9	[0, 0, 0]	n/a	catFR1	4	R1395M
1000.081	1.6	1172047	WORD	n/a	wordpools/wordpool_categorized_EN.txt	ORANGUTAN	Zoo	3	9	[0, 0, 0]	n/a	catFR1	4	R1395M
1001.681	0.966	1173647	WORD_OFF	n/a	n/a	ORANGUTAN	Zoo	3	9	[0, 0, 0]	n/a	catFR1	4	R1395M
1002.647	1.617	1174611	WORD	n/a	wordpools/wordpool_categorized_EN.txt	ELEPHANT	Zoo	4	9	[0, 0, 0]	n/a	catFR1	4	R1395M
1004.264	0.767	1176230	WORD_OFF	n/a	n/a	ELEPHANT	Zoo	4	9	[0, 0, 0]	n/a	catFR1	4	R1395M
1005.031	1.616	1176997	WORD	n/a	wordpools/wordpool_categorized_EN.txt	FOOTBALL	Toys	5	9	[0, 0, 0]	n/a	catFR1	4	R1395M
1006.647	0.917	1178616	WORD_OFF	n/a	n/a	FOOTBALL	Toys	5	9	[0, 0, 0]	n/a	catFR1	4	R1395M
1007.564	1.6	1179534	WORD	n/a	wordpools/wordpool_categorized_EN.txt	PUZZLE	Toys	6	9	[0, 0, 0]	n/a	catFR1	4	R1395M
1009.164	0.783	1181134	WORD_OFF	n/a	n/a	PUZZLE	Toys	6	9	[0, 0, 0]	n/a	catFR1	4	R1395M
1009.947	1.616	1181911	WORD	n/a	wordpools/wordpool_categorized_EN.txt	GIRAFFE	Zoo	7	9	[0, 0, 0]	n/a	catFR1	4	R1395M
1011.563	0.851	1183530	WORD_OFF	n/a	n/a	GIRAFFE	Zoo	7	9	[0, 0, 0]	n/a	catFR1	4	R1395M
1012.414	1.6	1184381	WORD	n/a	wordpools/wordpool_categorized_EN.txt	MONKEY	Zoo	8	9	[0, 0, 0]	n/a	catFR1	4	R1395M
1014.014	0.933	1185982	WORD_OFF	n/a	n/a	MONKEY	Zoo	8	9	[0, 0, 0]	n/a	catFR1	4	R1395M
1014.947	1.6	1186917	WORD	n/a	wordpools/wordpool_categorized_EN.txt	BOOKCASE	Furniture	9	9	[0, 0, 0]	n/a	catFR1	4	R1395M
1016.547	0.817	1188508	WORD_OFF	n/a	n/a	BOOKCASE	Furniture	9	9	[0, 0, 0]	n/a	catFR1	4	R1395M
1017.364	1.6	1189332	WORD	n/a	wordpools/wordpool_categorized_EN.txt	CABINET	Furniture	10	9	[0, 0, 0]	n/a	catFR1	4	R1395M
1018.964	1.0	1190932	WORD_OFF	n/a	n/a	CABINET	Furniture	10	9	[0, 0, 0]	n/a	catFR1	4	R1395M
1019.964	1.599	1191934	WORD	n/a	wordpools/wordpool_categorized_EN.txt	SLINKY	Toys	11	9	[0, 0, 0]	n/a	catFR1	4	R1395M
1021.563	0.95	1193525	WORD_OFF	n/a	n/a	SLINKY	Toys	11	9	[0, 0, 0]	n/a	catFR1	4	R1395M
1022.513	1.617	1194479	WORD	n/a	wordpools/wordpool_categorized_EN.txt	DOLL	Toys	12	9	[0, 0, 0]	n/a	catFR1	4	R1395M
1024.13	0.002	1196095	PROB	0.002	n/a	n/a	n/a	-999	9	[6, 5, 2]	13	catFR1	4	R1395M
1024.132	0.0	1196097	START	n/a	n/a	n/a	n/a	-999	9	[-999, -999, -999]	n/a	catFR1	4	R1395M
1024.13	0.002	1196098	WORD_OFF	n/a	n/a	DOLL	Toys	12	9	[0, 0, 0]	n/a	catFR1	4	R1395M
1024.132	0.0	1196098	ENCODING_END	n/a	n/a	n/a	n/a	-999	9	[0, 0, 0]	n/a	catFR1	4	R1395M
1024.132	3.948	1196098	DISTRACT_START	n/a	n/a	n/a	n/a	-999	9	[0, 0, 0]	n/a	catFR1	4	R1395M
1028.08	2.317	1200045	PROB	2.317	n/a	n/a	n/a	-999	9	[8, 8, 2]	18	catFR1	4	R1395M
1030.397	1.586	1202362	PROB	1.586	n/a	n/a	n/a	-999	9	[6, 4, 2]	12	catFR1	4	R1395M
1031.983	2.332	1203947	PROB	2.332	n/a	n/a	n/a	-999	9	[1, 7, 3]	11	catFR1	4	R1395M
1034.315	2.75	1206279	PROB	2.75	n/a	n/a	n/a	-999	9	[8, 3, 6]	17	catFR1	4	R1395M
1037.065	1.933	1209029	PROB	1.933	n/a	n/a	n/a	-999	9	[2, 6, 4]	12	catFR1	4	R1395M
1038.998	3.049	1210962	PROB	3.049	n/a	n/a	n/a	-999	9	[7, 2, 7]	16	catFR1	4	R1395M
1042.047	2.35	1214011	PROB	2.35	n/a	n/a	n/a	-999	9	[7, 3, 4]	14	catFR1	4	R1395M
1044.397	0.0	1216359	DISTRACT_END	n/a	n/a	n/a	n/a	-999	9	[0, 0, 0]	n/a	catFR1	4	R1395M
1044.397	1.134	1216361	STOP	n/a	n/a	n/a	n/a	-999	9	[-999, -999, -999]	n/a	catFR1	4	R1395M
1045.531	3.962	1217492	REC_START	n/a	n/a	n/a	n/a	-999	9	[0, 0, 0]	n/a	catFR1	4	R1395M
1049.493	1.73	1221457	REC_WORD	1.73	n/a	TABLE	Furniture	1	9	[0, 0, 0]	n/a	catFR1	4	R1395M
1051.223	2.525	1223186	REC_WORD	2.525	n/a	RECLINER	Furniture	2	9	[0, 0, 0]	n/a	catFR1	4	R1395M
1053.748	2.149	1225711	REC_WORD	2.149	n/a	CABINET	Furniture	10	9	[0, 0, 0]	n/a	catFR1	4	R1395M
1055.897	2.106	1227860	REC_WORD	2.106	n/a	BOOKCASE	Furniture	9	9	[0, 0, 0]	n/a	catFR1	4	R1395M
1058.003	4.211	1229966	REC_WORD	4.211	n/a	DOLL	Toys	12	9	[0, 0, 0]	n/a	catFR1	4	R1395M
1062.214	4.597	1234177	REC_WORD	4.597	n/a	TELEVISION	n/a	-999	9	[0, 0, 0]	n/a	catFR1	4	R1395M
1066.811	1.803	1238774	REC_WORD	1.803	n/a	ORANGUTAN	Zoo	3	9	[0, 0, 0]	n/a	catFR1	4	R1395M
1068.614	2.16	1240577	REC_WORD	2.16	n/a	CHIMPANZEE	Zoo	-999	9	[0, 0, 0]	n/a	catFR1	4	R1395M
1070.774	2.529	1242736	REC_WORD	2.529	n/a	GIRAFFE	Zoo	7	9	[0, 0, 0]	n/a	catFR1	4	R1395M
1073.303	3.45	1245265	REC_WORD	3.45	n/a	ZEBRA	Zoo	-999	9	[0, 0, 0]	n/a	catFR1	4	R1395M
1076.753	15.944	1248712	REC_END	n/a	n/a	n/a	n/a	-999	9	[0, 0, 0]	n/a	catFR1	4	R1395M
1092.697	10.351	1264658	COUNTDOWN_START	n/a	n/a	n/a	n/a	-999	9	[0, 0, 0]	n/a	catFR1	4	R1395M
1103.048	0.0	1275009	COUNTDOWN_END	n/a	n/a	n/a	n/a	-999	9	[0, 0, 0]	n/a	catFR1	4	R1395M
1103.048	2.082	1275009	ENCODING_START	n/a	n/a	n/a	n/a	-999	10	[0, 0, 0]	n/a	catFR1	4	R1395M
1105.13	1.6	1277096	WORD	n/a	wordpools/wordpool_categorized_EN.txt	ROBIN	Birds	1	10	[0, 0, 0]	n/a	catFR1	4	R1395M
1106.73	1.0	1278687	WORD_OFF	n/a	n/a	ROBIN	Birds	1	10	[0, 0, 0]	n/a	catFR1	4	R1395M
1107.73	1.617	1279688	WORD	n/a	wordpools/wordpool_categorized_EN.txt	DUCK	Birds	2	10	[0, 0, 0]	n/a	catFR1	4	R1395M
1109.347	0.817	1281307	WORD_OFF	n/a	n/a	DUCK	Birds	2	10	[0, 0, 0]	n/a	catFR1	4	R1395M
1110.164	1.616	1282121	WORD	n/a	wordpools/wordpool_categorized_EN.txt	WALNUT	Trees	3	10	[0, 0, 0]	n/a	catFR1	4	R1395M
1111.78	0.967	1283740	WORD_OFF	n/a	n/a	WALNUT	Trees	3	10	[0, 0, 0]	n/a	catFR1	4	R1395M
1112.747	1.616	1284704	WORD	n/a	wordpools/wordpool_categorized_EN.txt	PINE	Trees	4	10	[0, 0, 0]	n/a	catFR1	4	R1395M
1114.363	0.984	1286323	WORD_OFF	n/a	n/a	PINE	Trees	4	10	[0, 0, 0]	n/a	catFR1	4	R1395M
1115.347	1.603	1287306	WORD	n/a	wordpools/wordpool_categorized_EN.txt	PRINTER	Electronics	5	10	[0, 0, 0]	n/a	catFR1	4	R1395M
1116.95	0.864	1288906	WORD_OFF	n/a	n/a	PRINTER	Electronics	5	10	[0, 0, 0]	n/a	catFR1	4	R1395M
1117.814	1.6	1289777	WORD	n/a	wordpools/wordpool_categorized_EN.txt	CALCULATOR	Electronics	6	10	[0, 0, 0]	n/a	catFR1	4	R1395M
1119.414	0.95	1291377	WORD_OFF	n/a	n/a	CALCULATOR	Electronics	6	10	[0, 0, 0]	n/a	catFR1	4	R1395M
1120.364	1.601	1292322	WORD	n/a	wordpools/wordpool_categorized_EN.txt	SPARROW	Birds	7	10	[0, 0, 0]	n/a	catFR1	4	R1395M
1121.965	0.8	1293922	WORD_OFF	n/a	n/a	SPARROW	Birds	7	10	[0, 0, 0]	n/a	catFR1	4	R1395M
1122.765	1.617	1294727	WORD	n/a	wordpools/wordpool_categorized_EN.txt	GOOSE	Birds	8	10	[0, 0, 0]	n/a	catFR1	4	R1395M
1124.382	0.966	1296346	WORD_OFF	n/a	n/a	GOOSE	Birds	8	10	[0, 0, 0]	n/a	catFR1	4	R1395M
1125.348	1.616	1297310	WORD	n/a	wordpools/wordpool_categorized_EN.txt	TELEVISION	Electronics	9	10	[0, 0, 0]	n/a	catFR1	4	R1395M
1126.964	0.883	1298920	WORD_OFF	n/a	n/a	TELEVISION	Electronics	9	10	[0, 0, 0]	n/a	catFR1	4	R1395M
1127.847	1.601	1299809	WORD	n/a	wordpools/wordpool_categorized_EN.txt	SCANNER	Electronics	10	10	[0, 0, 0]	n/a	catFR1	4	R1395M
1129.448	0.915	1301409	WORD_OFF	n/a	n/a	SCANNER	Electronics	10	10	[0, 0, 0]	n/a	catFR1	4	R1395M
1130.363	1.601	1302326	WORD	n/a	wordpools/wordpool_categorized_EN.txt	BIRCH	Trees	11	10	[0, 0, 0]	n/a	catFR1	4	R1395M
1131.964	0.9	1303927	WORD_OFF	n/a	n/a	BIRCH	Trees	11	10	[0, 0, 0]	n/a	catFR1	4	R1395M
1132.864	1.619	1304825	WORD	n/a	wordpools/wordpool_categorized_EN.txt	WILLOW	Trees	12	10	[0, 0, 0]	n/a	catFR1	4	R1395M
1134.483	0.0	1306442	START	n/a	n/a	n/a	n/a	-999	10	[-999, -999, -999]	n/a	catFR1	4	R1395M
1134.483	0.0	1306442	PROB	0.0	n/a	n/a	n/a	-999	10	[2, 3, 4]	9	catFR1	4	R1395M
1134.481	0.001	1306444	WORD_OFF	n/a	n/a	WILLOW	Trees	12	10	[0, 0, 0]	n/a	catFR1	4	R1395M
1134.482	0.001	1306444	ENCODING_END	n/a	n/a	n/a	n/a	-999	10	[0, 0, 0]	n/a	catFR1	4	R1395M
1134.483	3.032	1306444	DISTRACT_START	n/a	n/a	n/a	n/a	-999	10	[0, 0, 0]	n/a	catFR1	4	R1395M
1137.515	3.666	1309474	PROB	3.666	n/a	n/a	n/a	-999	10	[1, 6, 8]	15	catFR1	4	R1395M
1141.181	2.267	1313140	PROB	2.267	n/a	n/a	n/a	-999	10	[3, 4, 5]	12	catFR1	4	R1395M
1143.448	3.4	1315407	PROB	3.4	n/a	n/a	n/a	-999	10	[3, 1, 5]	9	catFR1	4	R1395M
1146.848	1.8	1318806	PROB	1.8	n/a	n/a	n/a	-999	10	[4, 1, 1]	6	catFR1	4	R1395M
1148.648	1.933	1320606	PROB	1.933	n/a	n/a	n/a	-999	10	[6, 6, 2]	14	catFR1	4	R1395M
1150.581	1.949	1322539	PROB	1.949	n/a	n/a	n/a	-999	10	[1, 4, 1]	6	catFR1	4	R1395M
1152.53	5.601	1324488	PROB	5.601	n/a	n/a	n/a	-999	10	[6, 5, 8]	19	catFR1	4	R1395M
1158.131	0.0	1330089	STOP	n/a	n/a	n/a	n/a	-999	10	[-999, -999, -999]	n/a	catFR1	4	R1395M
1158.131	1.4	1330093	DISTRACT_END	n/a	n/a	n/a	n/a	-999	10	[0, 0, 0]	n/a	catFR1	4	R1395M
1159.531	3.441	1331487	REC_START	n/a	n/a	n/a	n/a	-999	10	[0, 0, 0]	n/a	catFR1	4	R1395M
1162.972	2.391	1334930	REC_WORD	2.391	n/a	CALCULATOR	Electronics	6	10	[0, 0, 0]	n/a	catFR1	4	R1395M
1165.363	1.441	1337320	REC_WORD	1.441	n/a	SPARROW	Birds	7	10	[0, 0, 0]	n/a	catFR1	4	R1395M
1166.804	4.43	1338761	REC_WORD	4.43	n/a	BIRCH	Trees	11	10	[0, 0, 0]	n/a	catFR1	4	R1395M
1171.234	1.0	1343191	REC_WORD_VV	1.0	n/a	<>	n/a	-999	10	[0, 0, 0]	n/a	catFR1	4	R1395M
1172.234	8.587	1344191	REC_WORD_VV	8.587	n/a	<>	n/a	-999	10	[0, 0, 0]	n/a	catFR1	4	R1395M
1180.821	0.352	1352778	REC_WORD	0.352	n/a	WALNUT	Trees	3	10	[0, 0, 0]	n/a	catFR1	4	R1395M
1181.173	1.661	1353130	REC_WORD_VV	1.661	n/a	<>	n/a	-999	10	[0, 0, 0]	n/a	catFR1	4	R1395M
1182.834	0.621	1354790	REC_WORD	0.621	n/a	WALNUT	Trees	3	10	[0, 0, 0]	n/a	catFR1	4	R1395M
1183.455	2.144	1355411	REC_WORD_VV	2.144	n/a	<>	n/a	-999	10	[0, 0, 0]	n/a	catFR1	4	R1395M
1185.599	5.152	1357555	REC_WORD	5.152	n/a	PINE	Trees	4	10	[0, 0, 0]	n/a	catFR1	4	R1395M
1190.751	5.662	1362707	REC_END	n/a	n/a	n/a	n/a	-999	10	[0, 0, 0]	n/a	catFR1	4	R1395M
1196.413	10.351	1368369	COUNTDOWN_START	n/a	n/a	n/a	n/a	-999	10	[0, 0, 0]	n/a	catFR1	4	R1395M
1206.764	0.0	1378720	COUNTDOWN_END	n/a	n/a	n/a	n/a	-999	10	[0, 0, 0]	n/a	catFR1	4	R1395M
1206.764	1.983	1378720	ENCODING_START	n/a	n/a	n/a	n/a	-999	11	[0, 0, 0]	n/a	catFR1	4	R1395M
1208.747	1.616	1380704	WORD	n/a	wordpools/wordpool_categorized_EN.txt	FINCH	Birds	1	11	[0, 0, 0]	n/a	catFR1	4	R1395M
1210.363	0.851	1382323	WORD_OFF	n/a	n/a	FINCH	Birds	1	11	[0, 0, 0]	n/a	catFR1	4	R1395M
1211.214	1.617	1383174	WORD	n/a	wordpools/wordpool_categorized_EN.txt	DOVE	Birds	2	11	[0, 0, 0]	n/a	catFR1	4	R1395M
1212.831	0.949	1384784	WORD_OFF	n/a	n/a	DOVE	Birds	2	11	[0, 0, 0]	n/a	catFR1	4	R1395M
1213.78	1.601	1385738	WORD	n/a	wordpools/wordpool_categorized_EN.txt	HEAD	BodyParts	3	11	[0, 0, 0]	n/a	catFR1	4	R1395M
1215.381	0.9	1387339	WORD_OFF	n/a	n/a	HEAD	BodyParts	3	11	[0, 0, 0]	n/a	catFR1	4	R1395M
1216.281	1.616	1388237	WORD	n/a	wordpools/wordpool_categorized_EN.txt	FINGERS	BodyParts	4	11	[0, 0, 0]	n/a	catFR1	4	R1395M
1217.897	0.784	1389856	WORD_OFF	n/a	n/a	FINGERS	BodyParts	4	11	[0, 0, 0]	n/a	catFR1	4	R1395M
1218.681	1.617	1390633	WORD	n/a	wordpools/wordpool_categorized_EN.txt	NOTEBOOK	OfficeSupplies	5	11	[0, 0, 0]	n/a	catFR1	4	R1395M
1220.298	0.782	1392252	WORD_OFF	n/a	n/a	NOTEBOOK	OfficeSupplies	5	11	[0, 0, 0]	n/a	catFR1	4	R1395M
1221.08	1.601	1393038	WORD	n/a	wordpools/wordpool_categorized_EN.txt	PEN	OfficeSupplies	6	11	[0, 0, 0]	n/a	catFR1	4	R1395M
1222.681	0.783	1394638	WORD_OFF	n/a	n/a	PEN	OfficeSupplies	6	11	[0, 0, 0]	n/a	catFR1	4	R1395M
1223.464	1.6	1395415	WORD	n/a	wordpools/wordpool_categorized_EN.txt	ELBOW	BodyParts	7	11	[0, 0, 0]	n/a	catFR1	4	R1395M
1225.064	0.899	1397015	WORD_OFF	n/a	n/a	ELBOW	BodyParts	7	11	[0, 0, 0]	n/a	catFR1	4	R1395M
1225.963	1.601	1397914	WORD	n/a	wordpools/wordpool_categorized_EN.txt	EYE	BodyParts	8	11	[0, 0, 0]	n/a	catFR1	4	R1395M
1227.564	0.984	1399523	WORD_OFF	n/a	n/a	EYE	BodyParts	8	11	[0, 0, 0]	n/a	catFR1	4	R1395M
1228.548	1.6	1400506	WORD	n/a	wordpools/wordpool_categorized_EN.txt	BINDER	OfficeSupplies	9	11	[0, 0, 0]	n/a	catFR1	4	R1395M
1230.148	0.833	1402106	WORD_OFF	n/a	n/a	BINDER	OfficeSupplies	9	11	[0, 0, 0]	n/a	catFR1	4	R1395M
1230.981	1.6	1402939	WORD	n/a	wordpools/wordpool_categorized_EN.txt	PAPER	OfficeSupplies	10	11	[0, 0, 0]	n/a	catFR1	4	R1395M
1232.581	0.916	1404530	WORD_OFF	n/a	n/a	PAPER	OfficeSupplies	10	11	[0, 0, 0]	n/a	catFR1	4	R1395M
1233.497	1.601	1405447	WORD	n/a	wordpools/wordpool_categorized_EN.txt	PIGEON	Birds	11	11	[0, 0, 0]	n/a	catFR1	4	R1395M
1235.098	0.883	1407048	WORD_OFF	n/a	n/a	PIGEON	Birds	11	11	[0, 0, 0]	n/a	catFR1	4	R1395M
1235.981	1.6	1407937	WORD	n/a	wordpools/wordpool_categorized_EN.txt	SEAGULL	Birds	12	11	[0, 0, 0]	n/a	catFR1	4	R1395M
1237.581	0.001	1409535	PROB	0.001	n/a	n/a	n/a	-999	11	[7, 1, 2]	10	catFR1	4	R1395M
1237.582	0.0	1409536	START	n/a	n/a	n/a	n/a	-999	11	[-999, -999, -999]	n/a	catFR1	4	R1395M
1237.581	0.001	1409537	WORD_OFF	n/a	n/a	SEAGULL	Birds	12	11	[0, 0, 0]	n/a	catFR1	4	R1395M
1237.582	0.0	1409537	ENCODING_END	n/a	n/a	n/a	n/a	-999	11	[0, 0, 0]	n/a	catFR1	4	R1395M
1237.582	3.883	1409537	DISTRACT_START	n/a	n/a	n/a	n/a	-999	11	[0, 0, 0]	n/a	catFR1	4	R1395M
1241.465	2.332	1413418	PROB	2.332	n/a	n/a	n/a	-999	11	[5, 6, 7]	18	catFR1	4	R1395M
1243.797	2.318	1415750	PROB	2.318	n/a	n/a	n/a	-999	11	[5, 6, 3]	14	catFR1	4	R1395M
1246.115	2.817	1418068	PROB	2.817	n/a	n/a	n/a	-999	11	[2, 7, 1]	10	catFR1	4	R1395M
1248.932	2.183	1420885	PROB	2.183	n/a	n/a	n/a	-999	11	[7, 2, 3]	12	catFR1	4	R1395M
1251.115	3.067	1423068	PROB	3.067	n/a	n/a	n/a	-999	11	[6, 3, 6]	15	catFR1	4	R1395M
1254.182	2.833	1426135	PROB	2.833	n/a	n/a	n/a	-999	11	[1, 7, 7]	15	catFR1	4	R1395M
1257.015	2.882	1428968	PROB	2.882	n/a	n/a	n/a	-999	11	[5, 2, 3]	10	catFR1	4	R1395M
1259.897	0.0	1431848	DISTRACT_END	n/a	n/a	n/a	n/a	-999	11	[0, 0, 0]	n/a	catFR1	4	R1395M
1259.897	1.15	1431849	STOP	n/a	n/a	n/a	n/a	-999	11	[-999, -999, -999]	n/a	catFR1	4	R1395M
1261.047	1.44	1432999	REC_START	n/a	n/a	n/a	n/a	-999	11	[0, 0, 0]	n/a	catFR1	4	R1395M
1262.487	3.013	1434439	REC_WORD	3.013	n/a	NOTEBOOK	OfficeSupplies	5	11	[0, 0, 0]	n/a	catFR1	4	R1395M
1265.5	2.055	1437452	REC_WORD	2.055	n/a	PEN	OfficeSupplies	6	11	[0, 0, 0]	n/a	catFR1	4	R1395M
1267.555	2.394	1439507	REC_WORD	2.394	n/a	BINDER	OfficeSupplies	9	11	[0, 0, 0]	n/a	catFR1	4	R1395M
1269.949	3.086	1441901	REC_WORD	3.086	n/a	PAPER	OfficeSupplies	10	11	[0, 0, 0]	n/a	catFR1	4	R1395M
1273.035	3.368	1444987	REC_WORD	3.368	n/a	FACE	n/a	-999	11	[0, 0, 0]	n/a	catFR1	4	R1395M
1276.403	1.676	1448355	REC_WORD	1.676	n/a	EYE	BodyParts	8	11	[0, 0, 0]	n/a	catFR1	4	R1395M
1278.079	1.671	1450030	REC_WORD	1.671	n/a	ELBOW	BodyParts	7	11	[0, 0, 0]	n/a	catFR1	4	R1395M
1279.75	2.764	1451701	REC_WORD	2.764	n/a	FINGERS	BodyParts	4	11	[0, 0, 0]	n/a	catFR1	4	R1395M
1282.514	9.761	1454465	REC_WORD	9.761	n/a	FEET	n/a	-999	11	[0, 0, 0]	n/a	catFR1	4	R1395M
1292.275	23.189	1464228	REC_END	n/a	n/a	n/a	n/a	-999	11	[0, 0, 0]	n/a	catFR1	4	R1395M
1315.464	10.351	1487418	COUNTDOWN_START	n/a	n/a	n/a	n/a	-999	11	[0, 0, 0]	n/a	catFR1	4	R1395M
1325.815	0.0	1497769	COUNTDOWN_END	n/a	n/a	n/a	n/a	-999	11	[0, 0, 0]	n/a	catFR1	4	R1395M
1325.815	2.083	1497769	ENCODING_START	n/a	n/a	n/a	n/a	-999	12	[0, 0, 0]	n/a	catFR1	4	R1395M
1327.898	1.599	1499846	WORD	n/a	wordpools/wordpool_categorized_EN.txt	SPEAKER	Electronics	1	12	[0, 0, 0]	n/a	catFR1	4	R1395M
1329.497	0.934	1501447	WORD_OFF	n/a	n/a	SPEAKER	Electronics	1	12	[0, 0, 0]	n/a	catFR1	4	R1395M
1330.431	1.6	1502383	WORD	n/a	wordpools/wordpool_categorized_EN.txt	HEADPHONES	Electronics	2	12	[0, 0, 0]	n/a	catFR1	4	R1395M
1332.031	0.817	1503983	WORD_OFF	n/a	n/a	HEADPHONES	Electronics	2	12	[0, 0, 0]	n/a	catFR1	4	R1395M
1332.848	1.615	1504797	WORD	n/a	wordpools/wordpool_categorized_EN.txt	SUEDE	Fabric	3	12	[0, 0, 0]	n/a	catFR1	4	R1395M
1334.463	0.835	1506416	WORD_OFF	n/a	n/a	SUEDE	Fabric	3	12	[0, 0, 0]	n/a	catFR1	4	R1395M
1335.298	1.616	1507249	WORD	n/a	wordpools/wordpool_categorized_EN.txt	SPANDEX	Fabric	4	12	[0, 0, 0]	n/a	catFR1	4	R1395M
1336.914	1.0	1508859	WORD_OFF	n/a	n/a	SPANDEX	Fabric	4	12	[0, 0, 0]	n/a	catFR1	4	R1395M
1337.914	1.599	1509860	WORD	n/a	wordpools/wordpool_categorized_EN.txt	KNEE	BodyParts	5	12	[0, 0, 0]	n/a	catFR1	4	R1395M
1339.513	0.8	1511460	WORD_OFF	n/a	n/a	KNEE	BodyParts	5	12	[0, 0, 0]	n/a	catFR1	4	R1395M
1340.313	1.6	1512265	WORD	n/a	wordpools/wordpool_categorized_EN.txt	TOE	BodyParts	6	12	[0, 0, 0]	n/a	catFR1	4	R1395M
1341.913	0.986	1513865	WORD_OFF	n/a	n/a	TOE	BodyParts	6	12	[0, 0, 0]	n/a	catFR1	4	R1395M
1342.899	1.598	1514848	WORD	n/a	wordpools/wordpool_categorized_EN.txt	PHONE	Electronics	7	12	[0, 0, 0]	n/a	catFR1	4	R1395M
1344.497	0.917	1516448	WORD_OFF	n/a	n/a	PHONE	Electronics	7	12	[0, 0, 0]	n/a	catFR1	4	R1395M
1345.414	1.616	1517366	WORD	n/a	wordpools/wordpool_categorized_EN.txt	COMPUTER	Electronics	8	12	[0, 0, 0]	n/a	catFR1	4	R1395M
1347.03	0.967	1518975	WORD_OFF	n/a	n/a	COMPUTER	Electronics	8	12	[0, 0, 0]	n/a	catFR1	4	R1395M
1347.997	1.617	1519948	WORD	n/a	wordpools/wordpool_categorized_EN.txt	LEATHER	Fabric	9	12	[0, 0, 0]	n/a	catFR1	4	R1395M
1349.614	0.999	1521558	WORD_OFF	n/a	n/a	LEATHER	Fabric	9	12	[0, 0, 0]	n/a	catFR1	4	R1395M
1350.613	1.6	1522559	WORD	n/a	wordpools/wordpool_categorized_EN.txt	VELVET	Fabric	10	12	[0, 0, 0]	n/a	catFR1	4	R1395M
1352.213	0.967	1524160	WORD_OFF	n/a	n/a	VELVET	Fabric	10	12	[0, 0, 0]	n/a	catFR1	4	R1395M
1353.18	1.6	1525133	WORD	n/a	wordpools/wordpool_categorized_EN.txt	EAR	BodyParts	11	12	[0, 0, 0]	n/a	catFR1	4	R1395M
1354.78	0.783	1526724	WORD_OFF	n/a	n/a	EAR	BodyParts	11	12	[0, 0, 0]	n/a	catFR1	4	R1395M
1355.563	1.601	1527510	WORD	n/a	wordpools/wordpool_categorized_EN.txt	LEG	BodyParts	12	12	[0, 0, 0]	n/a	catFR1	4	R1395M
1357.164	0.0	1529110	WORD_OFF	n/a	n/a	LEG	BodyParts	12	12	[0, 0, 0]	n/a	catFR1	4	R1395M
1357.164	0.001	1529111	PROB	0.001	n/a	n/a	n/a	-999	12	[2, 3, 4]	9	catFR1	4	R1395M
1357.165	0.0	1529112	START	n/a	n/a	n/a	n/a	-999	12	[-999, -999, -999]	n/a	catFR1	4	R1395M
1357.165	0.0	1529120	ENCODING_END	n/a	n/a	n/a	n/a	-999	12	[0, 0, 0]	n/a	catFR1	4	R1395M
1357.165	6.865	1529129	DISTRACT_START	n/a	n/a	n/a	n/a	-999	12	[0, 0, 0]	n/a	catFR1	4	R1395M
1364.03	2.5	1535977	PROB	2.5	n/a	n/a	n/a	-999	12	[4, 1, 4]	9	catFR1	4	R1395M
1366.53	2.785	1538477	PROB	2.785	n/a	n/a	n/a	-999	12	[1, 4, 3]	8	catFR1	4	R1395M
1369.315	2.449	1541262	PROB	2.449	n/a	n/a	n/a	-999	12	[3, 2, 4]	9	catFR1	4	R1395M
1371.764	2.568	1543710	PROB	2.568	n/a	n/a	n/a	-999	12	[1, 6, 4]	11	catFR1	4	R1395M
1374.332	3.698	1546278	PROB	3.698	n/a	n/a	n/a	-999	12	[7, 7, 3]	17	catFR1	4	R1395M
1378.03	0.0	1549976	STOP	n/a	n/a	n/a	n/a	-999	12	[-999, -999, -999]	n/a	catFR1	4	R1395M
1378.03	1.217	1549980	DISTRACT_END	n/a	n/a	n/a	n/a	-999	12	[0, 0, 0]	n/a	catFR1	4	R1395M
1379.247	6.458	1551196	REC_START	n/a	n/a	n/a	n/a	-999	12	[0, 0, 0]	n/a	catFR1	4	R1395M
1385.705	2.106	1557651	REC_WORD	2.106	n/a	KNEE	BodyParts	5	12	[0, 0, 0]	n/a	catFR1	4	R1395M
1387.811	1.478	1559757	REC_WORD	1.478	n/a	TOE	BodyParts	6	12	[0, 0, 0]	n/a	catFR1	4	R1395M
1389.289	1.88	1561235	REC_WORD	1.88	n/a	SUEDE	Fabric	3	12	[0, 0, 0]	n/a	catFR1	4	R1395M
1391.169	0.998	1563114	REC_WORD	0.998	n/a	SPANDEX	Fabric	4	12	[0, 0, 0]	n/a	catFR1	4	R1395M
1392.167	2.602	1564112	REC_WORD_VV	2.602	n/a	<>	n/a	-999	12	[0, 0, 0]	n/a	catFR1	4	R1395M
1394.769	2.708	1566714	REC_WORD	2.708	n/a	LEATHER	Fabric	9	12	[0, 0, 0]	n/a	catFR1	4	R1395M
1397.477	2.031	1569422	REC_WORD	2.031	n/a	SUEDE	Fabric	3	12	[0, 0, 0]	n/a	catFR1	4	R1395M
1399.508	2.493	1571453	REC_WORD	2.493	n/a	SPEAKER	Electronics	1	12	[0, 0, 0]	n/a	catFR1	4	R1395M
1402.001	8.472	1573946	REC_WORD	8.472	n/a	HEADPHONES	Electronics	2	12	[0, 0, 0]	n/a	catFR1	4	R1395M
1410.473	0.0	1582416	REC_END	n/a	n/a	n/a	n/a	-999	12	[0, 0, 0]	n/a	catFR1	4	R1395M
