onset	duration	sample	trial_type	response_time	stim_file	item_name	category	serialpos	list	test	answer	experiment	session	subject
0.0	164.875	10600	INSTRUCT_START	n/a	n/a	n/a	n/a	-999	-999	[0, 0, 0]	n/a	catFR1	0	R1493T
164.875	105.875	175428	INSTRUCT_END	n/a	n/a	n/a	n/a	-999	-999	[0, 0, 0]	n/a	catFR1	0	R1493T
270.75	10.375	281373	COUNTDOWN_START	n/a	n/a	n/a	n/a	-999	-999	[0, 0, 0]	n/a	catFR1	0	R1493T
281.125	0.0	291732	COUNTDOWN_END	n/a	n/a	n/a	n/a	-999	-999	[0, 0, 0]	n/a	catFR1	0	R1493T
281.125	1.875	291732	ENCODING_START	n/a	n/a	n/a	n/a	-999	-1	[0, 0, 0]	n/a	catFR1	0	R1493T
283.0	1.625	293575	WORD	n/a	n/a	SHELF	Furniture	1	-1	[0, 0, 0]	n/a	catFR1	0	R1493T
284.625	0.875	295190	WORD_OFF	n/a	n/a	SHELF	Furniture	1	-1	[0, 0, 0]	n/a	catFR1	0	R1493T
285.5	1.625	296055	WORD	n/a	n/a	COUCH	Furniture	2	-1	[0, 0, 0]	n/a	catFR1	0	R1493T
287.125	0.875	297670	WORD_OFF	n/a	n/a	COUCH	Furniture	2	-1	[0, 0, 0]	n/a	catFR1	0	R1493T
288.0	1.625	298563	WORD	n/a	n/a	HICKORY	Trees	3	-1	[0, 0, 0]	n/a	catFR1	0	R1493T
289.625	0.875	300178	WORD_OFF	n/a	n/a	HICKORY	Trees	3	-1	[0, 0, 0]	n/a	catFR1	0	R1493T
290.5	1.5	301043	WORD	n/a	n/a	ELM	Trees	4	-1	[0, 0, 0]	n/a	catFR1	0	R1493T
292.0	1.0	302658	WORD_OFF	n/a	n/a	ELM	Trees	4	-1	[0, 0, 0]	n/a	catFR1	0	R1493T
293.0	1.625	303565	WORD	n/a	n/a	PIE	Desserts	5	-1	[0, 0, 0]	n/a	catFR1	0	R1493T
294.625	0.875	305181	WORD_OFF	n/a	n/a	PIE	Desserts	5	-1	[0, 0, 0]	n/a	catFR1	0	R1493T
295.5	1.625	306116	WORD	n/a	n/a	JELLO	Desserts	6	-1	[0, 0, 0]	n/a	catFR1	0	R1493T
297.125	0.875	307703	WORD_OFF	n/a	n/a	JELLO	Desserts	6	-1	[0, 0, 0]	n/a	catFR1	0	R1493T
298.0	1.5	308554	WORD	n/a	n/a	CABINET	Furniture	7	-1	[0, 0, 0]	n/a	catFR1	0	R1493T
299.5	1.0	310155	WORD_OFF	n/a	n/a	CABINET	Furniture	7	-1	[0, 0, 0]	n/a	catFR1	0	R1493T
300.5	1.625	311090	WORD	n/a	n/a	RECLINER	Furniture	8	-1	[0, 0, 0]	n/a	catFR1	0	R1493T
302.125	0.875	312692	WORD_OFF	n/a	n/a	RECLINER	Furniture	8	-1	[0, 0, 0]	n/a	catFR1	0	R1493T
303.0	1.625	313641	WORD	n/a	n/a	CHEESECAKE	Desserts	9	-1	[0, 0, 0]	n/a	catFR1	0	R1493T
304.625	1.0	315257	WORD_OFF	n/a	n/a	CHEESECAKE	Desserts	9	-1	[0, 0, 0]	n/a	catFR1	0	R1493T
305.625	1.625	316249	WORD	n/a	n/a	COOKIE	Desserts	10	-1	[0, 0, 0]	n/a	catFR1	0	R1493T
307.25	0.875	317864	WORD_OFF	n/a	n/a	COOKIE	Desserts	10	-1	[0, 0, 0]	n/a	catFR1	0	R1493T
308.125	1.625	318715	WORD	n/a	n/a	BIRCH	Trees	11	-1	[0, 0, 0]	n/a	catFR1	0	R1493T
309.75	0.875	320302	WORD_OFF	n/a	n/a	BIRCH	Trees	11	-1	[0, 0, 0]	n/a	catFR1	0	R1493T
310.625	1.592	321209	WORD	n/a	n/a	CEDAR	Trees	12	-1	[0, 0, 0]	n/a	catFR1	0	R1493T
312.217	0.033	322781	PROB	117.283	n/a	n/a	n/a	-999	-1	[7, 4, 2]	13.0	catFR1	0	R1493T
312.25	0.0	322810	WORD_OFF	n/a	n/a	CEDAR	Trees	12	-1	[0, 0, 0]	n/a	catFR1	0	R1493T
312.25	0.0	322810	ENCODING_END	n/a	n/a	n/a	n/a	-999	-1	[0, 0, 0]	n/a	catFR1	0	R1493T
312.25	0.0	322810	DISTRACT_START	n/a	n/a	n/a	n/a	-999	-1	[0, 0, 0]	n/a	catFR1	0	R1493T
312.25	117.25	322814	START	n/a	n/a	n/a	n/a	-999	-1	[-999, -999, -999]	n/a	catFR1	0	R1493T
429.5	0.0	440059	STOP	n/a	n/a	n/a	n/a	-999	-1	[-999, -999, -999]	n/a	catFR1	0	R1493T
429.5	2.0	440107	DISTRACT_END	n/a	n/a	n/a	n/a	-999	-1	[0, 0, 0]	n/a	catFR1	0	R1493T
431.5	3.737	442156	REC_START	n/a	n/a	n/a	n/a	-999	-1	[0, 0, 0]	n/a	catFR1	0	R1493T
435.237	2.714	445796	REC_WORD_VV	3.737	n/a	<>	n/a	-999	-1	[0, 0, 0]	n/a	catFR1	0	R1493T
437.951	5.304	448510	REC_WORD_VV	6.451	n/a	<>	n/a	-999	-1	[0, 0, 0]	n/a	catFR1	0	R1493T
443.255	1.295	453814	REC_WORD_VV	11.755	n/a	<>	n/a	-999	-1	[0, 0, 0]	n/a	catFR1	0	R1493T
444.55	3.07	455108	REC_WORD_VV	13.05	n/a	<>	n/a	-999	-1	[0, 0, 0]	n/a	catFR1	0	R1493T
447.62	10.84	458178	REC_WORD_VV	16.12	n/a	<>	n/a	-999	-1	[0, 0, 0]	n/a	catFR1	0	R1493T
458.46	1.0	469018	REC_WORD_VV	26.96	n/a	<>	n/a	-999	-1	[0, 0, 0]	n/a	catFR1	0	R1493T
459.46	1.919	470018	REC_WORD_VV	27.96	n/a	<>	n/a	-999	-1	[0, 0, 0]	n/a	catFR1	0	R1493T
461.379	0.371	471937	REC_WORD_VV	29.879	n/a	<>	n/a	-999	-1	[0, 0, 0]	n/a	catFR1	0	R1493T
461.75	129.5	472347	REC_END	n/a	n/a	n/a	n/a	-999	-1	[0, 0, 0]	n/a	catFR1	0	R1493T
591.25	10.25	601774	COUNTDOWN_START	n/a	n/a	n/a	n/a	-999	1	[0, 0, 0]	n/a	catFR1	0	R1493T
601.5	0.0	612120	COUNTDOWN_END	n/a	n/a	n/a	n/a	-999	1	[0, 0, 0]	n/a	catFR1	0	R1493T
601.5	2.25	612134	ENCODING_START	n/a	n/a	n/a	n/a	-999	1	[0, 0, 0]	n/a	catFR1	0	R1493T
603.75	1.625	614330	WORD	n/a	wordpools/wordpool_categorized_EN.txt	TOASTER	Appliances	1	1	[0, 0, 0]	n/a	catFR1	0	R1493T
605.375	0.75	615932	WORD_OFF	n/a	n/a	TOASTER	Appliances	1	1	[0, 0, 0]	n/a	catFR1	0	R1493T
606.125	1.625	616697	WORD	n/a	wordpools/wordpool_categorized_EN.txt	WASHER	Appliances	2	1	[0, 0, 0]	n/a	catFR1	0	R1493T
607.75	0.75	618298	WORD_OFF	n/a	n/a	WASHER	Appliances	2	1	[0, 0, 0]	n/a	catFR1	0	R1493T
608.5	1.625	619149	WORD	n/a	wordpools/wordpool_categorized_EN.txt	CIDER	Beverages	3	1	[0, 0, 0]	n/a	catFR1	0	R1493T
610.125	0.875	620750	WORD_OFF	n/a	n/a	CIDER	Beverages	3	1	[0, 0, 0]	n/a	catFR1	0	R1493T
611.0	1.625	621629	WORD	n/a	wordpools/wordpool_categorized_EN.txt	COLA	Beverages	4	1	[0, 0, 0]	n/a	catFR1	0	R1493T
612.625	1.0	623230	WORD_OFF	n/a	n/a	COLA	Beverages	4	1	[0, 0, 0]	n/a	catFR1	0	R1493T
613.625	1.625	624222	WORD	n/a	wordpools/wordpool_categorized_EN.txt	BASS	Instruments	5	1	[0, 0, 0]	n/a	catFR1	0	R1493T
615.25	1.0	625823	WORD_OFF	n/a	n/a	BASS	Instruments	5	1	[0, 0, 0]	n/a	catFR1	0	R1493T
616.25	1.5	626787	WORD	n/a	wordpools/wordpool_categorized_EN.txt	PIANO	Instruments	6	1	[0, 0, 0]	n/a	catFR1	0	R1493T
617.75	1.0	628388	WORD_OFF	n/a	n/a	PIANO	Instruments	6	1	[0, 0, 0]	n/a	catFR1	0	R1493T
618.75	1.625	629324	WORD	n/a	wordpools/wordpool_categorized_EN.txt	IRON	Appliances	7	1	[0, 0, 0]	n/a	catFR1	0	R1493T
620.375	0.75	630925	WORD_OFF	n/a	n/a	IRON	Appliances	7	1	[0, 0, 0]	n/a	catFR1	0	R1493T
621.125	1.625	631690	WORD	n/a	wordpools/wordpool_categorized_EN.txt	MIXER	Appliances	8	1	[0, 0, 0]	n/a	catFR1	0	R1493T
622.75	0.875	633306	WORD_OFF	n/a	n/a	MIXER	Appliances	8	1	[0, 0, 0]	n/a	catFR1	0	R1493T
623.625	1.625	634213	WORD	n/a	wordpools/wordpool_categorized_EN.txt	SODA	Beverages	9	1	[0, 0, 0]	n/a	catFR1	0	R1493T
625.25	1.0	635814	WORD_OFF	n/a	n/a	SODA	Beverages	9	1	[0, 0, 0]	n/a	catFR1	0	R1493T
626.25	1.625	636806	WORD	n/a	wordpools/wordpool_categorized_EN.txt	WINE	Beverages	10	1	[0, 0, 0]	n/a	catFR1	0	R1493T
627.875	0.875	638422	WORD_OFF	n/a	n/a	WINE	Beverages	10	1	[0, 0, 0]	n/a	catFR1	0	R1493T
628.75	1.625	639315	WORD	n/a	wordpools/wordpool_categorized_EN.txt	FLUTE	Instruments	11	1	[0, 0, 0]	n/a	catFR1	0	R1493T
630.375	0.875	640916	WORD_OFF	n/a	n/a	FLUTE	Instruments	11	1	[0, 0, 0]	n/a	catFR1	0	R1493T
631.25	1.5	641780	WORD	n/a	wordpools/wordpool_categorized_EN.txt	DRUM	Instruments	12	1	[0, 0, 0]	n/a	catFR1	0	R1493T
632.75	0.042	643300	START	n/a	n/a	n/a	n/a	-999	1	[-999, -999, -999]	n/a	catFR1	0	R1493T
632.792	0.0	643342	PROB	40.583	n/a	n/a	n/a	-999	1	[1, 5, 6]	12.0	catFR1	0	R1493T
632.75	0.0	643382	WORD_OFF	n/a	n/a	DRUM	Instruments	12	1	[0, 0, 0]	n/a	catFR1	0	R1493T
632.75	0.0	643382	ENCODING_END	n/a	n/a	n/a	n/a	-999	1	[0, 0, 0]	n/a	catFR1	0	R1493T
632.75	40.625	643382	DISTRACT_START	n/a	n/a	n/a	n/a	-999	1	[0, 0, 0]	n/a	catFR1	0	R1493T
673.375	0.0	683923	STOP	n/a	n/a	n/a	n/a	-999	1	[-999, -999, -999]	n/a	catFR1	0	R1493T
673.375	2.125	683969	DISTRACT_END	n/a	n/a	n/a	n/a	-999	1	[0, 0, 0]	n/a	catFR1	0	R1493T
675.5	4.944	686102	REC_START	n/a	n/a	n/a	n/a	-999	1	[0, 0, 0]	n/a	catFR1	0	R1493T
680.444	3.94	690992	REC_WORD_VV	4.944	n/a	<>	n/a	-999	1	[0, 0, 0]	n/a	catFR1	0	R1493T
684.384	0.997	694932	REC_WORD_VV	8.884	n/a	<>	n/a	-999	1	[0, 0, 0]	n/a	catFR1	0	R1493T
685.381	5.554	695929	REC_WORD_VV	9.881	n/a	<>	n/a	-999	1	[0, 0, 0]	n/a	catFR1	0	R1493T
690.935	5.825	701482	REC_WORD_VV	15.435	n/a	<>	n/a	-999	1	[0, 0, 0]	n/a	catFR1	0	R1493T
696.76	0.981	707307	REC_WORD_VV	21.26	n/a	<>	n/a	-999	1	[0, 0, 0]	n/a	catFR1	0	R1493T
697.741	8.009	708288	REC_WORD_VV	22.241	n/a	<>	n/a	-999	1	[0, 0, 0]	n/a	catFR1	0	R1493T
705.75	140.375	716294	REC_END	n/a	n/a	n/a	n/a	-999	1	[0, 0, 0]	n/a	catFR1	0	R1493T
846.125	10.25	856647	COUNTDOWN_START	n/a	n/a	n/a	n/a	-999	2	[0, 0, 0]	n/a	catFR1	0	R1493T
856.375	0.0	866993	COUNTDOWN_END	n/a	n/a	n/a	n/a	-999	2	[0, 0, 0]	n/a	catFR1	0	R1493T
856.375	2.25	866993	ENCODING_START	n/a	n/a	n/a	n/a	-999	2	[0, 0, 0]	n/a	catFR1	0	R1493T
858.625	1.625	869203	WORD	n/a	wordpools/wordpool_categorized_EN.txt	SEAGULL	Birds	1	2	[0, 0, 0]	n/a	catFR1	0	R1493T
860.25	1.0	870819	WORD_OFF	n/a	n/a	SEAGULL	Birds	1	2	[0, 0, 0]	n/a	catFR1	0	R1493T
861.25	1.625	871782	WORD	n/a	wordpools/wordpool_categorized_EN.txt	PIGEON	Birds	2	2	[0, 0, 0]	n/a	catFR1	0	R1493T
862.875	0.875	873398	WORD_OFF	n/a	n/a	PIGEON	Birds	2	2	[0, 0, 0]	n/a	catFR1	0	R1493T
863.75	1.625	874333	WORD	n/a	wordpools/wordpool_categorized_EN.txt	ANT	Insects	3	2	[0, 0, 0]	n/a	catFR1	0	R1493T
865.375	0.875	875935	WORD_OFF	n/a	n/a	ANT	Insects	3	2	[0, 0, 0]	n/a	catFR1	0	R1493T
866.25	1.625	876884	WORD	n/a	wordpools/wordpool_categorized_EN.txt	BEE	Insects	4	2	[0, 0, 0]	n/a	catFR1	0	R1493T
867.875	0.875	878486	WORD_OFF	n/a	n/a	BEE	Insects	4	2	[0, 0, 0]	n/a	catFR1	0	R1493T
868.75	1.625	879364	WORD	n/a	wordpools/wordpool_categorized_EN.txt	CUCUMBER	Vegetables	5	2	[0, 0, 0]	n/a	catFR1	0	R1493T
870.375	1.0	880980	WORD_OFF	n/a	n/a	CUCUMBER	Vegetables	5	2	[0, 0, 0]	n/a	catFR1	0	R1493T
871.375	1.625	881986	WORD	n/a	wordpools/wordpool_categorized_EN.txt	CARROT	Vegetables	6	2	[0, 0, 0]	n/a	catFR1	0	R1493T
873.0	0.75	883587	WORD_OFF	n/a	n/a	CARROT	Vegetables	6	2	[0, 0, 0]	n/a	catFR1	0	R1493T
873.75	1.625	884353	WORD	n/a	wordpools/wordpool_categorized_EN.txt	MOTH	Insects	7	2	[0, 0, 0]	n/a	catFR1	0	R1493T
875.375	0.75	885968	WORD_OFF	n/a	n/a	MOTH	Insects	7	2	[0, 0, 0]	n/a	catFR1	0	R1493T
876.125	1.625	886733	WORD	n/a	wordpools/wordpool_categorized_EN.txt	CRICKET	Insects	8	2	[0, 0, 0]	n/a	catFR1	0	R1493T
877.75	0.875	888335	WORD_OFF	n/a	n/a	CRICKET	Insects	8	2	[0, 0, 0]	n/a	catFR1	0	R1493T
878.625	1.625	889242	WORD	n/a	wordpools/wordpool_categorized_EN.txt	CROW	Birds	9	2	[0, 0, 0]	n/a	catFR1	0	R1493T
880.25	1.0	890857	WORD_OFF	n/a	n/a	CROW	Birds	9	2	[0, 0, 0]	n/a	catFR1	0	R1493T
881.25	1.625	891849	WORD	n/a	wordpools/wordpool_categorized_EN.txt	DOVE	Birds	10	2	[0, 0, 0]	n/a	catFR1	0	R1493T
882.875	1.0	893465	WORD_OFF	n/a	n/a	DOVE	Birds	10	2	[0, 0, 0]	n/a	catFR1	0	R1493T
883.875	1.625	894457	WORD	n/a	wordpools/wordpool_categorized_EN.txt	LETTUCE	Vegetables	11	2	[0, 0, 0]	n/a	catFR1	0	R1493T
885.5	1.0	896086	WORD_OFF	n/a	n/a	LETTUCE	Vegetables	11	2	[0, 0, 0]	n/a	catFR1	0	R1493T
886.5	1.625	897078	WORD	n/a	wordpools/wordpool_categorized_EN.txt	SPINACH	Vegetables	12	2	[0, 0, 0]	n/a	catFR1	0	R1493T
888.125	0.01	898663	START	n/a	n/a	n/a	n/a	-999	2	[-999, -999, -999]	n/a	catFR1	0	R1493T
888.135	0.0	898673	PROB	14.115	n/a	n/a	n/a	-999	2	[1, 1, 8]	9.0	catFR1	0	R1493T
888.125	0.0	898694	WORD_OFF	n/a	n/a	SPINACH	Vegetables	12	2	[0, 0, 0]	n/a	catFR1	0	R1493T
888.125	0.0	898694	ENCODING_END	n/a	n/a	n/a	n/a	-999	2	[0, 0, 0]	n/a	catFR1	0	R1493T
888.125	14.117	898694	DISTRACT_START	n/a	n/a	n/a	n/a	-999	2	[0, 0, 0]	n/a	catFR1	0	R1493T
902.242	61.633	912780	PROB	61.633	n/a	n/a	n/a	-999	2	[4, 7, 7]	9.0	catFR1	0	R1493T
963.875	0.0	974410	STOP	n/a	n/a	n/a	n/a	-999	2	[-999, -999, -999]	n/a	catFR1	0	R1493T
963.875	2.375	974469	DISTRACT_END	n/a	n/a	n/a	n/a	-999	2	[0, 0, 0]	n/a	catFR1	0	R1493T
966.25	23.878	976843	REC_START	n/a	n/a	n/a	n/a	-999	2	[0, 0, 0]	n/a	catFR1	0	R1493T
990.128	3.901	1000662	REC_WORD_VV	23.878	n/a	<>	n/a	-999	2	[0, 0, 0]	n/a	catFR1	0	R1493T
994.029	2.471	1004563	REC_WORD_VV	27.779	n/a	<>	n/a	-999	2	[0, 0, 0]	n/a	catFR1	0	R1493T
996.5	153.375	1007034	REC_END	n/a	n/a	n/a	n/a	-999	2	[0, 0, 0]	n/a	catFR1	0	R1493T
1149.875	10.375	1160440	COUNTDOWN_START	n/a	n/a	n/a	n/a	-999	3	[0, 0, 0]	n/a	catFR1	0	R1493T
1160.25	0.0	1170785	COUNTDOWN_END	n/a	n/a	n/a	n/a	-999	3	[0, 0, 0]	n/a	catFR1	0	R1493T
1160.25	2.125	1170785	ENCODING_START	n/a	n/a	n/a	n/a	-999	3	[0, 0, 0]	n/a	catFR1	0	R1493T
1162.375	1.625	1172897	WORD	n/a	wordpools/wordpool_categorized_EN.txt	LILY	Flowers	1	3	[0, 0, 0]	n/a	catFR1	0	R1493T
1164.0	0.875	1174498	WORD_OFF	n/a	n/a	LILY	Flowers	1	3	[0, 0, 0]	n/a	catFR1	0	R1493T
1164.875	1.625	1175377	WORD	n/a	wordpools/wordpool_categorized_EN.txt	PETUNIA	Flowers	2	3	[0, 0, 0]	n/a	catFR1	0	R1493T
1166.5	0.75	1176992	WORD_OFF	n/a	n/a	PETUNIA	Flowers	2	3	[0, 0, 0]	n/a	catFR1	0	R1493T
1167.25	1.625	1177814	WORD	n/a	wordpools/wordpool_categorized_EN.txt	BANANA	Fruit	3	3	[0, 0, 0]	n/a	catFR1	0	R1493T
1168.875	1.0	1179430	WORD_OFF	n/a	n/a	BANANA	Fruit	3	3	[0, 0, 0]	n/a	catFR1	0	R1493T
1169.875	1.625	1180393	WORD	n/a	wordpools/wordpool_categorized_EN.txt	LEMON	Fruit	4	3	[0, 0, 0]	n/a	catFR1	0	R1493T
1171.5	0.75	1182009	WORD_OFF	n/a	n/a	LEMON	Fruit	4	3	[0, 0, 0]	n/a	catFR1	0	R1493T
1172.25	1.625	1182803	WORD	n/a	wordpools/wordpool_categorized_EN.txt	REFRIGERATOR	Appliances	5	3	[0, 0, 0]	n/a	catFR1	0	R1493T
1173.875	0.875	1184404	WORD_OFF	n/a	n/a	REFRIGERATOR	Appliances	5	3	[0, 0, 0]	n/a	catFR1	0	R1493T
1174.75	1.625	1185368	WORD	n/a	wordpools/wordpool_categorized_EN.txt	VACUUM	Appliances	6	3	[0, 0, 0]	n/a	catFR1	0	R1493T
1176.375	0.875	1186969	WORD_OFF	n/a	n/a	VACUUM	Appliances	6	3	[0, 0, 0]	n/a	catFR1	0	R1493T
1177.25	1.625	1187805	WORD	n/a	wordpools/wordpool_categorized_EN.txt	ORCHID	Flowers	7	3	[0, 0, 0]	n/a	catFR1	0	R1493T
1178.875	0.75	1189392	WORD_OFF	n/a	n/a	ORCHID	Flowers	7	3	[0, 0, 0]	n/a	catFR1	0	R1493T
1179.625	1.625	1190172	WORD	n/a	wordpools/wordpool_categorized_EN.txt	VIOLET	Flowers	8	3	[0, 0, 0]	n/a	catFR1	0	R1493T
1181.25	0.875	1191759	WORD_OFF	n/a	n/a	VIOLET	Flowers	8	3	[0, 0, 0]	n/a	catFR1	0	R1493T
1182.125	1.625	1192737	WORD	n/a	wordpools/wordpool_categorized_EN.txt	PEACH	Fruit	9	3	[0, 0, 0]	n/a	catFR1	0	R1493T
1183.75	1.0	1194336	WORD_OFF	n/a	n/a	PEACH	Fruit	9	3	[0, 0, 0]	n/a	catFR1	0	R1493T
1184.75	1.625	1195288	WORD	n/a	wordpools/wordpool_categorized_EN.txt	STRAWBERRY	Fruit	10	3	[0, 0, 0]	n/a	catFR1	0	R1493T
1186.375	0.875	1196903	WORD_OFF	n/a	n/a	STRAWBERRY	Fruit	10	3	[0, 0, 0]	n/a	catFR1	0	R1493T
1187.25	1.625	1197810	WORD	n/a	wordpools/wordpool_categorized_EN.txt	STOVE	Appliances	11	3	[0, 0, 0]	n/a	catFR1	0	R1493T
1188.875	0.75	1199426	WORD_OFF	n/a	n/a	STOVE	Appliances	11	3	[0, 0, 0]	n/a	catFR1	0	R1493T
1189.625	1.625	1200191	WORD	n/a	wordpools/wordpool_categorized_EN.txt	OVEN	Appliances	12	3	[0, 0, 0]	n/a	catFR1	0	R1493T
1191.25	0.0	1201775	PROB	18.25	n/a	n/a	n/a	-999	3	[5, 4, 4]	544.0	catFR1	0	R1493T
1191.25	0.0	1201775	START	n/a	n/a	n/a	n/a	-999	3	[-999, -999, -999]	n/a	catFR1	0	R1493T
1191.25	0.0	1201792	WORD_OFF	n/a	n/a	OVEN	Appliances	12	3	[0, 0, 0]	n/a	catFR1	0	R1493T
1191.25	0.0	1201792	ENCODING_END	n/a	n/a	n/a	n/a	-999	3	[0, 0, 0]	n/a	catFR1	0	R1493T
1191.25	18.284	1201806	DISTRACT_START	n/a	n/a	n/a	n/a	-999	3	[0, 0, 0]	n/a	catFR1	0	R1493T
1209.534	14.966	1220058	PROB	14.966	n/a	n/a	n/a	-999	3	[8, 1, 6]	816.0	catFR1	0	R1493T
1224.5	0.0	1235023	STOP	n/a	n/a	n/a	n/a	-999	3	[-999, -999, -999]	n/a	catFR1	0	R1493T
1224.5	2.375	1235038	DISTRACT_END	n/a	n/a	n/a	n/a	-999	3	[0, 0, 0]	n/a	catFR1	0	R1493T
1226.875	0.305	1237427	REC_START	n/a	n/a	n/a	n/a	-999	3	[0, 0, 0]	n/a	catFR1	0	R1493T
1227.18	4.623	1237703	REC_WORD_VV	0.305	n/a	<>	n/a	-999	3	[0, 0, 0]	n/a	catFR1	0	R1493T
1231.803	1.0	1242326	REC_WORD_VV	4.928	n/a	<>	n/a	-999	3	[0, 0, 0]	n/a	catFR1	0	R1493T
1232.803	2.274	1243326	REC_WORD_VV	5.928	n/a	<>	n/a	-999	3	[0, 0, 0]	n/a	catFR1	0	R1493T
1235.077	6.172	1245600	REC_WORD_VV	8.202	n/a	<>	n/a	-999	3	[0, 0, 0]	n/a	catFR1	0	R1493T
1241.249	5.59	1251772	REC_WORD	14.374	n/a	STOVE	Appliances	11	3	[0, 0, 0]	n/a	catFR1	0	R1493T
1246.839	7.944	1257361	REC_WORD	19.964	n/a	STRAWBERRY	Fruit	10	3	[0, 0, 0]	n/a	catFR1	0	R1493T
1254.783	2.342	1265305	REC_WORD	27.908	n/a	LEMON	Fruit	4	3	[0, 0, 0]	n/a	catFR1	0	R1493T
1257.125	86.625	1267647	REC_END	n/a	n/a	n/a	n/a	-999	3	[0, 0, 0]	n/a	catFR1	0	R1493T
1343.75	10.375	1354291	COUNTDOWN_START	n/a	n/a	n/a	n/a	-999	4	[0, 0, 0]	n/a	catFR1	0	R1493T
1354.125	0.0	1364636	COUNTDOWN_END	n/a	n/a	n/a	n/a	-999	4	[0, 0, 0]	n/a	catFR1	0	R1493T
1354.125	2.125	1364636	ENCODING_START	n/a	n/a	n/a	n/a	-999	4	[0, 0, 0]	n/a	catFR1	0	R1493T
1356.25	1.625	1366818	WORD	n/a	wordpools/wordpool_categorized_EN.txt	CORN	Vegetables	1	4	[0, 0, 0]	n/a	catFR1	0	R1493T
1357.875	0.75	1368420	WORD_OFF	n/a	n/a	CORN	Vegetables	1	4	[0, 0, 0]	n/a	catFR1	0	R1493T
1358.625	1.625	1369199	WORD	n/a	wordpools/wordpool_categorized_EN.txt	PEAS	Vegetables	2	4	[0, 0, 0]	n/a	catFR1	0	R1493T
1360.25	0.75	1370801	WORD_OFF	n/a	n/a	PEAS	Vegetables	2	4	[0, 0, 0]	n/a	catFR1	0	R1493T
1361.0	1.625	1371594	WORD	n/a	wordpools/wordpool_categorized_EN.txt	MOUSSE	Desserts	3	4	[0, 0, 0]	n/a	catFR1	0	R1493T
1362.625	1.0	1373210	WORD_OFF	n/a	n/a	MOUSSE	Desserts	3	4	[0, 0, 0]	n/a	catFR1	0	R1493T
1363.625	1.625	1374159	WORD	n/a	wordpools/wordpool_categorized_EN.txt	PASTRY	Desserts	4	4	[0, 0, 0]	n/a	catFR1	0	R1493T
1365.25	0.75	1375761	WORD_OFF	n/a	n/a	PASTRY	Desserts	4	4	[0, 0, 0]	n/a	catFR1	0	R1493T
1366.0	1.625	1376568	WORD	n/a	wordpools/wordpool_categorized_EN.txt	NYLON	Fabric	5	4	[0, 0, 0]	n/a	catFR1	0	R1493T
1367.625	1.0	1378170	WORD_OFF	n/a	n/a	NYLON	Fabric	5	4	[0, 0, 0]	n/a	catFR1	0	R1493T
1368.625	1.625	1379176	WORD	n/a	wordpools/wordpool_categorized_EN.txt	COTTON	Fabric	6	4	[0, 0, 0]	n/a	catFR1	0	R1493T
1370.25	0.875	1380777	WORD_OFF	n/a	n/a	COTTON	Fabric	6	4	[0, 0, 0]	n/a	catFR1	0	R1493T
1371.125	1.5	1381627	WORD	n/a	wordpools/wordpool_categorized_EN.txt	CABBAGE	Vegetables	7	4	[0, 0, 0]	n/a	catFR1	0	R1493T
1372.625	1.0	1383215	WORD_OFF	n/a	n/a	CABBAGE	Vegetables	7	4	[0, 0, 0]	n/a	catFR1	0	R1493T
1373.625	1.625	1384221	WORD	n/a	wordpools/wordpool_categorized_EN.txt	BROCCOLI	Vegetables	8	4	[0, 0, 0]	n/a	catFR1	0	R1493T
1375.25	0.875	1385836	WORD_OFF	n/a	n/a	BROCCOLI	Vegetables	8	4	[0, 0, 0]	n/a	catFR1	0	R1493T
1376.125	1.625	1386644	WORD	n/a	wordpools/wordpool_categorized_EN.txt	BROWNIES	Desserts	9	4	[0, 0, 0]	n/a	catFR1	0	R1493T
1377.75	0.75	1388231	WORD_OFF	n/a	n/a	BROWNIES	Desserts	9	4	[0, 0, 0]	n/a	catFR1	0	R1493T
1378.5	1.625	1389025	WORD	n/a	wordpools/wordpool_categorized_EN.txt	CAKE	Desserts	10	4	[0, 0, 0]	n/a	catFR1	0	R1493T
1380.125	0.875	1390626	WORD_OFF	n/a	n/a	CAKE	Desserts	10	4	[0, 0, 0]	n/a	catFR1	0	R1493T
1381.0	1.5	1391491	WORD	n/a	wordpools/wordpool_categorized_EN.txt	VELVET	Fabric	11	4	[0, 0, 0]	n/a	catFR1	0	R1493T
1382.5	1.0	1393092	WORD_OFF	n/a	n/a	VELVET	Fabric	11	4	[0, 0, 0]	n/a	catFR1	0	R1493T
1383.5	1.576	1394056	WORD	n/a	wordpools/wordpool_categorized_EN.txt	DENIM	Fabric	12	4	[0, 0, 0]	n/a	catFR1	0	R1493T
1385.076	0.049	1395592	PROB	14.549	n/a	n/a	n/a	-999	4	[1, 2, 7]	127.0	catFR1	0	R1493T
1385.125	0.0	1395641	START	n/a	n/a	n/a	n/a	-999	4	[-999, -999, -999]	n/a	catFR1	0	R1493T
1385.125	0.0	1395671	WORD_OFF	n/a	n/a	DENIM	Fabric	12	4	[0, 0, 0]	n/a	catFR1	0	R1493T
1385.125	0.0	1395671	ENCODING_END	n/a	n/a	n/a	n/a	-999	4	[0, 0, 0]	n/a	catFR1	0	R1493T
1385.125	14.601	1395671	DISTRACT_START	n/a	n/a	n/a	n/a	-999	4	[0, 0, 0]	n/a	catFR1	0	R1493T
1399.726	18.649	1410241	PROB	18.649	n/a	n/a	n/a	-999	4	[4, 7, 6]	476.0	catFR1	0	R1493T
1418.375	0.0	1428889	STOP	n/a	n/a	n/a	n/a	-999	4	[-999, -999, -999]	n/a	catFR1	0	R1493T
1418.375	2.0	1428903	DISTRACT_END	n/a	n/a	n/a	n/a	-999	4	[0, 0, 0]	n/a	catFR1	0	R1493T
1420.375	5.641	1430952	REC_START	n/a	n/a	n/a	n/a	-999	4	[0, 0, 0]	n/a	catFR1	0	R1493T
1426.016	24.609	1436530	REC_WORD_VV	5.641	n/a	<>	n/a	-999	4	[0, 0, 0]	n/a	catFR1	0	R1493T
1450.625	230.125	1461172	REC_END	n/a	n/a	n/a	n/a	-999	4	[0, 0, 0]	n/a	catFR1	0	R1493T
1680.75	10.375	1691330	COUNTDOWN_START	n/a	n/a	n/a	n/a	-999	5	[0, 0, 0]	n/a	catFR1	0	R1493T
1691.125	0.0	1701675	COUNTDOWN_END	n/a	n/a	n/a	n/a	-999	5	[0, 0, 0]	n/a	catFR1	0	R1493T
1691.125	2.0	1701675	ENCODING_START	n/a	n/a	n/a	n/a	-999	5	[0, 0, 0]	n/a	catFR1	0	R1493T
1693.125	1.625	1703602	WORD	n/a	wordpools/wordpool_categorized_EN.txt	AXE	Tools	1	5	[0, 0, 0]	n/a	catFR1	0	R1493T
1694.75	0.875	1705218	WORD_OFF	n/a	n/a	AXE	Tools	1	5	[0, 0, 0]	n/a	catFR1	0	R1493T
1695.625	1.625	1706210	WORD	n/a	wordpools/wordpool_categorized_EN.txt	SCREWDRIVER	Tools	2	5	[0, 0, 0]	n/a	catFR1	0	R1493T
1697.25	0.875	1707811	WORD_OFF	n/a	n/a	SCREWDRIVER	Tools	2	5	[0, 0, 0]	n/a	catFR1	0	R1493T
1698.125	1.625	1708704	WORD	n/a	wordpools/wordpool_categorized_EN.txt	SUEDE	Fabric	3	5	[0, 0, 0]	n/a	catFR1	0	R1493T
1699.75	1.0	1710305	WORD_OFF	n/a	n/a	SUEDE	Fabric	3	5	[0, 0, 0]	n/a	catFR1	0	R1493T
1700.75	1.625	1711255	WORD	n/a	wordpools/wordpool_categorized_EN.txt	LEATHER	Fabric	4	5	[0, 0, 0]	n/a	catFR1	0	R1493T
1702.375	0.75	1712870	WORD_OFF	n/a	n/a	LEATHER	Fabric	4	5	[0, 0, 0]	n/a	catFR1	0	R1493T
1703.125	1.625	1713692	WORD	n/a	wordpools/wordpool_categorized_EN.txt	LEG	BodyParts	5	5	[0, 0, 0]	n/a	catFR1	0	R1493T
1704.75	0.875	1715308	WORD_OFF	n/a	n/a	LEG	BodyParts	5	5	[0, 0, 0]	n/a	catFR1	0	R1493T
1705.625	1.625	1716200	WORD	n/a	wordpools/wordpool_categorized_EN.txt	EYE	BodyParts	6	5	[0, 0, 0]	n/a	catFR1	0	R1493T
1707.25	0.875	1717802	WORD_OFF	n/a	n/a	EYE	BodyParts	6	5	[0, 0, 0]	n/a	catFR1	0	R1493T
1708.125	1.625	1718709	WORD	n/a	wordpools/wordpool_categorized_EN.txt	LEVEL	Tools	7	5	[0, 0, 0]	n/a	catFR1	0	R1493T
1709.75	0.875	1720310	WORD_OFF	n/a	n/a	LEVEL	Tools	7	5	[0, 0, 0]	n/a	catFR1	0	R1493T
1710.625	1.625	1721189	WORD	n/a	wordpools/wordpool_categorized_EN.txt	PLIERS	Tools	8	5	[0, 0, 0]	n/a	catFR1	0	R1493T
1712.25	0.875	1722804	WORD_OFF	n/a	n/a	PLIERS	Tools	8	5	[0, 0, 0]	n/a	catFR1	0	R1493T
1713.125	1.625	1723697	WORD	n/a	wordpools/wordpool_categorized_EN.txt	SILK	Fabric	9	5	[0, 0, 0]	n/a	catFR1	0	R1493T
1714.75	0.875	1725298	WORD_OFF	n/a	n/a	SILK	Fabric	9	5	[0, 0, 0]	n/a	catFR1	0	R1493T
1715.625	1.625	1726177	WORD	n/a	wordpools/wordpool_categorized_EN.txt	LINEN	Fabric	10	5	[0, 0, 0]	n/a	catFR1	0	R1493T
1717.25	0.875	1727793	WORD_OFF	n/a	n/a	LINEN	Fabric	10	5	[0, 0, 0]	n/a	catFR1	0	R1493T
1718.125	1.5	1728600	WORD	n/a	wordpools/wordpool_categorized_EN.txt	HAND	BodyParts	11	5	[0, 0, 0]	n/a	catFR1	0	R1493T
1719.625	1.0	1730202	WORD_OFF	n/a	n/a	HAND	BodyParts	11	5	[0, 0, 0]	n/a	catFR1	0	R1493T
1720.625	1.625	1731123	WORD	n/a	wordpools/wordpool_categorized_EN.txt	FOOT	BodyParts	12	5	[0, 0, 0]	n/a	catFR1	0	R1493T
1722.25	0.0	1732738	WORD_OFF	n/a	n/a	FOOT	BodyParts	12	5	[0, 0, 0]	n/a	catFR1	0	R1493T
1722.25	0.0	1732738	ENCODING_END	n/a	n/a	n/a	n/a	-999	5	[0, 0, 0]	n/a	catFR1	0	R1493T
1722.25	0.0	1732738	DISTRACT_START	n/a	n/a	n/a	n/a	-999	5	[0, 0, 0]	n/a	catFR1	0	R1493T
1722.25	0.017	1732751	START	n/a	n/a	n/a	n/a	-999	5	[-999, -999, -999]	n/a	catFR1	0	R1493T
1722.267	16.443	1732768	PROB	16.483	n/a	n/a	n/a	-999	5	[5, 3, 2]	532.0	catFR1	0	R1493T
1738.71	25.665	1749210	PROB	25.665	n/a	n/a	n/a	-999	5	[1, 7, 2]	10.0	catFR1	0	R1493T
1764.375	0.0	1774874	STOP	n/a	n/a	n/a	n/a	-999	5	[-999, -999, -999]	n/a	catFR1	0	R1493T
1764.375	2.375	1774913	DISTRACT_END	n/a	n/a	n/a	n/a	-999	5	[0, 0, 0]	n/a	catFR1	0	R1493T
1766.75	2.597	1777245	REC_START	n/a	n/a	n/a	n/a	-999	5	[0, 0, 0]	n/a	catFR1	0	R1493T
1769.347	2.806	1779846	REC_WORD	2.597	n/a	SCREWDRIVER	Tools	2	5	[0, 0, 0]	n/a	catFR1	0	R1493T
1772.153	20.226	1782652	REC_WORD	5.403	n/a	SUEDE	Fabric	3	5	[0, 0, 0]	n/a	catFR1	0	R1493T
1792.379	4.621	1802877	REC_WORD_VV	25.629	n/a	<>	n/a	-999	5	[0, 0, 0]	n/a	catFR1	0	R1493T
1797.0	49.625	1807478	REC_END	n/a	n/a	n/a	n/a	-999	5	[0, 0, 0]	n/a	catFR1	0	R1493T
1846.625	10.375	1857135	COUNTDOWN_START	n/a	n/a	n/a	n/a	-999	6	[0, 0, 0]	n/a	catFR1	0	R1493T
1857.0	0.0	1867480	COUNTDOWN_END	n/a	n/a	n/a	n/a	-999	6	[0, 0, 0]	n/a	catFR1	0	R1493T
1857.0	1.875	1867480	ENCODING_START	n/a	n/a	n/a	n/a	-999	6	[0, 0, 0]	n/a	catFR1	0	R1493T
1858.875	1.625	1869379	WORD	n/a	wordpools/wordpool_categorized_EN.txt	SATIN	Fabric	1	6	[0, 0, 0]	n/a	catFR1	0	R1493T
1860.5	0.875	1870981	WORD_OFF	n/a	n/a	SATIN	Fabric	1	6	[0, 0, 0]	n/a	catFR1	0	R1493T
1861.375	1.625	1871944	WORD	n/a	wordpools/wordpool_categorized_EN.txt	WOOL	Fabric	2	6	[0, 0, 0]	n/a	catFR1	0	R1493T
1863.0	1.0	1873546	WORD_OFF	n/a	n/a	WOOL	Fabric	2	6	[0, 0, 0]	n/a	catFR1	0	R1493T
1864.0	1.625	1874495	WORD	n/a	wordpools/wordpool_categorized_EN.txt	CHAIR	Furniture	3	6	[0, 0, 0]	n/a	catFR1	0	R1493T
1865.625	0.875	1876111	WORD_OFF	n/a	n/a	CHAIR	Furniture	3	6	[0, 0, 0]	n/a	catFR1	0	R1493T
1866.5	1.5	1876975	WORD	n/a	wordpools/wordpool_categorized_EN.txt	SOFA	Furniture	4	6	[0, 0, 0]	n/a	catFR1	0	R1493T
1868.0	1.0	1878576	WORD_OFF	n/a	n/a	SOFA	Furniture	4	6	[0, 0, 0]	n/a	catFR1	0	R1493T
1869.0	1.625	1879498	WORD	n/a	wordpools/wordpool_categorized_EN.txt	LIGHTNING	Weather	5	6	[0, 0, 0]	n/a	catFR1	0	R1493T
1870.625	0.75	1881113	WORD_OFF	n/a	n/a	LIGHTNING	Weather	5	6	[0, 0, 0]	n/a	catFR1	0	R1493T
1871.375	1.625	1881893	WORD	n/a	wordpools/wordpool_categorized_EN.txt	WIND	Weather	6	6	[0, 0, 0]	n/a	catFR1	0	R1493T
1873.0	1.0	1883508	WORD_OFF	n/a	n/a	WIND	Weather	6	6	[0, 0, 0]	n/a	catFR1	0	R1493T
1874.0	1.625	1884514	WORD	n/a	wordpools/wordpool_categorized_EN.txt	DRESSER	Furniture	7	6	[0, 0, 0]	n/a	catFR1	0	R1493T
1875.625	0.875	1886116	WORD_OFF	n/a	n/a	DRESSER	Furniture	7	6	[0, 0, 0]	n/a	catFR1	0	R1493T
1876.5	1.625	1887051	WORD	n/a	wordpools/wordpool_categorized_EN.txt	DESK	Furniture	8	6	[0, 0, 0]	n/a	catFR1	0	R1493T
1878.125	1.0	1888667	WORD_OFF	n/a	n/a	DESK	Furniture	8	6	[0, 0, 0]	n/a	catFR1	0	R1493T
1879.125	1.625	1889616	WORD	n/a	wordpools/wordpool_categorized_EN.txt	FLEECE	Fabric	9	6	[0, 0, 0]	n/a	catFR1	0	R1493T
1880.75	0.75	1891232	WORD_OFF	n/a	n/a	FLEECE	Fabric	9	6	[0, 0, 0]	n/a	catFR1	0	R1493T
1881.5	1.625	1892025	WORD	n/a	wordpools/wordpool_categorized_EN.txt	SPANDEX	Fabric	10	6	[0, 0, 0]	n/a	catFR1	0	R1493T
1883.125	1.0	1893641	WORD_OFF	n/a	n/a	SPANDEX	Fabric	10	6	[0, 0, 0]	n/a	catFR1	0	R1493T
1884.125	1.625	1894590	WORD	n/a	wordpools/wordpool_categorized_EN.txt	SNOW	Weather	11	6	[0, 0, 0]	n/a	catFR1	0	R1493T
1885.75	0.875	1896206	WORD_OFF	n/a	n/a	SNOW	Weather	11	6	[0, 0, 0]	n/a	catFR1	0	R1493T
1886.625	1.618	1897141	WORD	n/a	wordpools/wordpool_categorized_EN.txt	RAIN	Weather	12	6	[0, 0, 0]	n/a	catFR1	0	R1493T
1888.243	0.007	1898736	PROB	15.382	n/a	n/a	n/a	-999	6	[4, 2, 6]	426.0	catFR1	0	R1493T
1888.25	0.0	1898743	START	n/a	n/a	n/a	n/a	-999	6	[-999, -999, -999]	n/a	catFR1	0	R1493T
1888.25	0.0	1898757	WORD_OFF	n/a	n/a	RAIN	Weather	12	6	[0, 0, 0]	n/a	catFR1	0	R1493T
1888.25	0.0	1898771	ENCODING_END	n/a	n/a	n/a	n/a	-999	6	[0, 0, 0]	n/a	catFR1	0	R1493T
1888.25	15.392	1898771	DISTRACT_START	n/a	n/a	n/a	n/a	-999	6	[0, 0, 0]	n/a	catFR1	0	R1493T
1903.642	18.983	1914135	PROB	18.983	n/a	n/a	n/a	-999	6	[2, 8, 3]	14.0	catFR1	0	R1493T
1922.625	0.0	1933117	STOP	n/a	n/a	n/a	n/a	-999	6	[-999, -999, -999]	n/a	catFR1	0	R1493T
1922.625	2.125	1933165	DISTRACT_END	n/a	n/a	n/a	n/a	-999	6	[0, 0, 0]	n/a	catFR1	0	R1493T
1924.75	3.013	1935327	REC_START	n/a	n/a	n/a	n/a	-999	6	[0, 0, 0]	n/a	catFR1	0	R1493T
1927.763	23.667	1938255	REC_WORD_VV	3.013	n/a	<>	n/a	-999	6	[0, 0, 0]	n/a	catFR1	0	R1493T
1951.43	3.57	1961920	REC_WORD	26.68	n/a	WOOL	Fabric	2	6	[0, 0, 0]	n/a	catFR1	0	R1493T
1955.0	19.5	1965575	REC_END	n/a	n/a	n/a	n/a	-999	6	[0, 0, 0]	n/a	catFR1	0	R1493T
1974.5	10.25	1984975	COUNTDOWN_START	n/a	n/a	n/a	n/a	-999	7	[0, 0, 0]	n/a	catFR1	0	R1493T
1984.75	0.0	1995321	COUNTDOWN_END	n/a	n/a	n/a	n/a	-999	7	[0, 0, 0]	n/a	catFR1	0	R1493T
1984.75	2.0	1995321	ENCODING_START	n/a	n/a	n/a	n/a	-999	7	[0, 0, 0]	n/a	catFR1	0	R1493T
1986.75	1.5	1997205	WORD	n/a	wordpools/wordpool_categorized_EN.txt	MARKER	OfficeSupplies	1	7	[0, 0, 0]	n/a	catFR1	0	R1493T
1988.25	0.875	1998821	WORD_OFF	n/a	n/a	MARKER	OfficeSupplies	1	7	[0, 0, 0]	n/a	catFR1	0	R1493T
1989.125	1.625	1999671	WORD	n/a	wordpools/wordpool_categorized_EN.txt	PEN	OfficeSupplies	2	7	[0, 0, 0]	n/a	catFR1	0	R1493T
1990.75	0.875	2001273	WORD_OFF	n/a	n/a	PEN	OfficeSupplies	2	7	[0, 0, 0]	n/a	catFR1	0	R1493T
1991.625	1.625	2002109	WORD	n/a	wordpools/wordpool_categorized_EN.txt	GIRAFFE	Zoo	3	7	[0, 0, 0]	n/a	catFR1	0	R1493T
1993.25	0.75	2003724	WORD_OFF	n/a	n/a	GIRAFFE	Zoo	3	7	[0, 0, 0]	n/a	catFR1	0	R1493T
1994.0	1.625	2004546	WORD	n/a	wordpools/wordpool_categorized_EN.txt	TIGER	Zoo	4	7	[0, 0, 0]	n/a	catFR1	0	R1493T
1995.625	0.875	2006162	WORD_OFF	n/a	n/a	TIGER	Zoo	4	7	[0, 0, 0]	n/a	catFR1	0	R1493T
1996.5	1.625	2006984	WORD	n/a	wordpools/wordpool_categorized_EN.txt	PLANKTON	OceanAnimals	5	7	[0, 0, 0]	n/a	catFR1	0	R1493T
1998.125	1.0	2008585	WORD_OFF	n/a	n/a	PLANKTON	OceanAnimals	5	7	[0, 0, 0]	n/a	catFR1	0	R1493T
1999.125	1.625	2009591	WORD	n/a	wordpools/wordpool_categorized_EN.txt	SQUID	OceanAnimals	6	7	[0, 0, 0]	n/a	catFR1	0	R1493T
2000.75	0.75	2011207	WORD_OFF	n/a	n/a	SQUID	OceanAnimals	6	7	[0, 0, 0]	n/a	catFR1	0	R1493T
2001.5	1.625	2012071	WORD	n/a	wordpools/wordpool_categorized_EN.txt	GLUE	OfficeSupplies	7	7	[0, 0, 0]	n/a	catFR1	0	R1493T
2003.125	1.0	2013673	WORD_OFF	n/a	n/a	GLUE	OfficeSupplies	7	7	[0, 0, 0]	n/a	catFR1	0	R1493T
2004.125	1.625	2014679	WORD	n/a	wordpools/wordpool_categorized_EN.txt	RULER	OfficeSupplies	8	7	[0, 0, 0]	n/a	catFR1	0	R1493T
2005.75	1.0	2016266	WORD_OFF	n/a	n/a	RULER	OfficeSupplies	8	7	[0, 0, 0]	n/a	catFR1	0	R1493T
2006.75	1.625	2017244	WORD	n/a	wordpools/wordpool_categorized_EN.txt	WHALE	OceanAnimals	9	7	[0, 0, 0]	n/a	catFR1	0	R1493T
2008.375	0.875	2018859	WORD_OFF	n/a	n/a	WHALE	OceanAnimals	9	7	[0, 0, 0]	n/a	catFR1	0	R1493T
2009.25	1.625	2019738	WORD	n/a	wordpools/wordpool_categorized_EN.txt	SHRIMP	OceanAnimals	10	7	[0, 0, 0]	n/a	catFR1	0	R1493T
2010.875	0.75	2021354	WORD_OFF	n/a	n/a	SHRIMP	OceanAnimals	10	7	[0, 0, 0]	n/a	catFR1	0	R1493T
2011.625	1.625	2022161	WORD	n/a	wordpools/wordpool_categorized_EN.txt	CHIMPANZEE	Zoo	11	7	[0, 0, 0]	n/a	catFR1	0	R1493T
2013.25	0.75	2023777	WORD_OFF	n/a	n/a	CHIMPANZEE	Zoo	11	7	[0, 0, 0]	n/a	catFR1	0	R1493T
2014.0	1.625	2024542	WORD	n/a	wordpools/wordpool_categorized_EN.txt	MONKEY	Zoo	12	7	[0, 0, 0]	n/a	catFR1	0	R1493T
2015.625	0.018	2026113	START	n/a	n/a	n/a	n/a	-999	7	[-999, -999, -999]	n/a	catFR1	0	R1493T
2015.643	0.0	2026131	PROB	26.982	n/a	n/a	n/a	-999	7	[5, 6, 3]	14.0	catFR1	0	R1493T
2015.625	0.0	2026158	WORD_OFF	n/a	n/a	MONKEY	Zoo	12	7	[0, 0, 0]	n/a	catFR1	0	R1493T
2015.625	0.0	2026158	ENCODING_END	n/a	n/a	n/a	n/a	-999	7	[0, 0, 0]	n/a	catFR1	0	R1493T
2015.625	27.0	2026158	DISTRACT_START	n/a	n/a	n/a	n/a	-999	7	[0, 0, 0]	n/a	catFR1	0	R1493T
2042.625	0.0	2053111	STOP	n/a	n/a	n/a	n/a	-999	7	[-999, -999, -999]	n/a	catFR1	0	R1493T
2042.625	2.125	2053154	DISTRACT_END	n/a	n/a	n/a	n/a	-999	7	[0, 0, 0]	n/a	catFR1	0	R1493T
2044.75	5.861	2055302	REC_START	n/a	n/a	n/a	n/a	-999	7	[0, 0, 0]	n/a	catFR1	0	R1493T
2050.611	8.477	2061097	REC_WORD	5.861	n/a	GIRAFFE	Zoo	3	7	[0, 0, 0]	n/a	catFR1	0	R1493T
2059.088	15.912	2069574	REC_WORD	14.338	n/a	MONKEY	Zoo	12	7	[0, 0, 0]	n/a	catFR1	0	R1493T
2075.0	22.625	2085536	REC_END	n/a	n/a	n/a	n/a	-999	7	[0, 0, 0]	n/a	catFR1	0	R1493T
2097.625	10.375	2108153	COUNTDOWN_START	n/a	n/a	n/a	n/a	-999	8	[0, 0, 0]	n/a	catFR1	0	R1493T
2108.0	0.0	2118499	COUNTDOWN_END	n/a	n/a	n/a	n/a	-999	8	[0, 0, 0]	n/a	catFR1	0	R1493T
2108.0	2.0	2118499	ENCODING_START	n/a	n/a	n/a	n/a	-999	8	[0, 0, 0]	n/a	catFR1	0	R1493T
2110.0	1.625	2120539	WORD	n/a	wordpools/wordpool_categorized_EN.txt	LOBSTER	OceanAnimals	1	8	[0, 0, 0]	n/a	catFR1	0	R1493T
2111.625	0.875	2122155	WORD_OFF	n/a	n/a	LOBSTER	OceanAnimals	1	8	[0, 0, 0]	n/a	catFR1	0	R1493T
2112.5	1.625	2123048	WORD	n/a	wordpools/wordpool_categorized_EN.txt	FISH	OceanAnimals	2	8	[0, 0, 0]	n/a	catFR1	0	R1493T
2114.125	0.875	2124649	WORD_OFF	n/a	n/a	FISH	OceanAnimals	2	8	[0, 0, 0]	n/a	catFR1	0	R1493T
2115.0	1.625	2125556	WORD	n/a	wordpools/wordpool_categorized_EN.txt	NIGHTSTAND	Furniture	3	8	[0, 0, 0]	n/a	catFR1	0	R1493T
2116.625	0.875	2127171	WORD_OFF	n/a	n/a	NIGHTSTAND	Furniture	3	8	[0, 0, 0]	n/a	catFR1	0	R1493T
2117.5	1.625	2128050	WORD	n/a	wordpools/wordpool_categorized_EN.txt	BED	Furniture	4	8	[0, 0, 0]	n/a	catFR1	0	R1493T
2119.125	1.0	2129666	WORD_OFF	n/a	n/a	BED	Furniture	4	8	[0, 0, 0]	n/a	catFR1	0	R1493T
2120.125	1.625	2130672	WORD	n/a	wordpools/wordpool_categorized_EN.txt	RADIO	Electronics	5	8	[0, 0, 0]	n/a	catFR1	0	R1493T
2121.75	0.875	2132273	WORD_OFF	n/a	n/a	RADIO	Electronics	5	8	[0, 0, 0]	n/a	catFR1	0	R1493T
2122.625	1.625	2133081	WORD	n/a	wordpools/wordpool_categorized_EN.txt	TABLET	Electronics	6	8	[0, 0, 0]	n/a	catFR1	0	R1493T
2124.25	1.0	2134696	WORD_OFF	n/a	n/a	TABLET	Electronics	6	8	[0, 0, 0]	n/a	catFR1	0	R1493T
2125.25	1.5	2135703	WORD	n/a	wordpools/wordpool_categorized_EN.txt	TURTLE	OceanAnimals	7	8	[0, 0, 0]	n/a	catFR1	0	R1493T
2126.75	0.875	2137318	WORD_OFF	n/a	n/a	TURTLE	OceanAnimals	7	8	[0, 0, 0]	n/a	catFR1	0	R1493T
2127.625	1.625	2138154	WORD	n/a	wordpools/wordpool_categorized_EN.txt	OCTOPUS	OceanAnimals	8	8	[0, 0, 0]	n/a	catFR1	0	R1493T
2129.25	0.875	2139756	WORD_OFF	n/a	n/a	OCTOPUS	OceanAnimals	8	8	[0, 0, 0]	n/a	catFR1	0	R1493T
2130.125	1.625	2140634	WORD	n/a	wordpools/wordpool_categorized_EN.txt	STEREO	Electronics	9	8	[0, 0, 0]	n/a	catFR1	0	R1493T
2131.75	0.75	2142250	WORD_OFF	n/a	n/a	STEREO	Electronics	9	8	[0, 0, 0]	n/a	catFR1	0	R1493T
2132.5	1.625	2143015	WORD	n/a	wordpools/wordpool_categorized_EN.txt	PHONE	Electronics	10	8	[0, 0, 0]	n/a	catFR1	0	R1493T
2134.125	0.875	2144616	WORD_OFF	n/a	n/a	PHONE	Electronics	10	8	[0, 0, 0]	n/a	catFR1	0	R1493T
2135.0	1.625	2145523	WORD	n/a	wordpools/wordpool_categorized_EN.txt	TABLE	Furniture	11	8	[0, 0, 0]	n/a	catFR1	0	R1493T
2136.625	0.875	2147139	WORD_OFF	n/a	n/a	TABLE	Furniture	11	8	[0, 0, 0]	n/a	catFR1	0	R1493T
2137.5	1.592	2147989	WORD	n/a	wordpools/wordpool_categorized_EN.txt	BOOKCASE	Furniture	12	8	[0, 0, 0]	n/a	catFR1	0	R1493T
2139.092	0.033	2149574	PROB	23.783	n/a	n/a	n/a	-999	8	[7, 8, 5]	20.0	catFR1	0	R1493T
2139.125	0.0	2149605	WORD_OFF	n/a	n/a	BOOKCASE	Furniture	12	8	[0, 0, 0]	n/a	catFR1	0	R1493T
2139.125	0.0	2149605	ENCODING_END	n/a	n/a	n/a	n/a	-999	8	[0, 0, 0]	n/a	catFR1	0	R1493T
2139.125	0.0	2149605	DISTRACT_START	n/a	n/a	n/a	n/a	-999	8	[0, 0, 0]	n/a	catFR1	0	R1493T
2139.125	23.75	2149607	START	n/a	n/a	n/a	n/a	-999	8	[-999, -999, -999]	n/a	catFR1	0	R1493T
2162.875	0.0	2173356	STOP	n/a	n/a	n/a	n/a	-999	8	[-999, -999, -999]	n/a	catFR1	0	R1493T
2162.875	2.125	2173399	DISTRACT_END	n/a	n/a	n/a	n/a	-999	8	[0, 0, 0]	n/a	catFR1	0	R1493T
2165.0	2.99	2175447	REC_START	n/a	n/a	n/a	n/a	-999	8	[0, 0, 0]	n/a	catFR1	0	R1493T
2167.99	7.04	2178471	REC_WORD	2.99	n/a	NIGHTSTAND	Furniture	3	8	[0, 0, 0]	n/a	catFR1	0	R1493T
2175.03	20.095	2185510	REC_WORD	10.03	n/a	BOOK	n/a	-999	8	[0, 0, 0]	n/a	catFR1	0	R1493T
2195.125	17.625	2205653	REC_END	n/a	n/a	n/a	n/a	-999	8	[0, 0, 0]	n/a	catFR1	0	R1493T
2212.75	10.25	2223211	COUNTDOWN_START	n/a	n/a	n/a	n/a	-999	9	[0, 0, 0]	n/a	catFR1	0	R1493T
2223.0	0.0	2233556	COUNTDOWN_END	n/a	n/a	n/a	n/a	-999	9	[0, 0, 0]	n/a	catFR1	0	R1493T
2223.0	2.0	2233556	ENCODING_START	n/a	n/a	n/a	n/a	-999	9	[0, 0, 0]	n/a	catFR1	0	R1493T
2225.0	1.5	2235441	WORD	n/a	wordpools/wordpool_categorized_EN.txt	EAR	BodyParts	1	9	[0, 0, 0]	n/a	catFR1	0	R1493T
2226.5	1.0	2237057	WORD_OFF	n/a	n/a	EAR	BodyParts	1	9	[0, 0, 0]	n/a	catFR1	0	R1493T
2227.5	1.625	2237992	WORD	n/a	wordpools/wordpool_categorized_EN.txt	NOSE	BodyParts	2	9	[0, 0, 0]	n/a	catFR1	0	R1493T
2229.125	0.875	2239607	WORD_OFF	n/a	n/a	NOSE	BodyParts	2	9	[0, 0, 0]	n/a	catFR1	0	R1493T
2230.0	1.625	2240500	WORD	n/a	wordpools/wordpool_categorized_EN.txt	HAWK	Birds	3	9	[0, 0, 0]	n/a	catFR1	0	R1493T
2231.625	0.875	2242116	WORD_OFF	n/a	n/a	HAWK	Birds	3	9	[0, 0, 0]	n/a	catFR1	0	R1493T
2232.5	1.5	2242966	WORD	n/a	wordpools/wordpool_categorized_EN.txt	FINCH	Birds	4	9	[0, 0, 0]	n/a	catFR1	0	R1493T
2234.0	0.875	2244567	WORD_OFF	n/a	n/a	FINCH	Birds	4	9	[0, 0, 0]	n/a	catFR1	0	R1493T
2234.875	1.625	2245347	WORD	n/a	wordpools/wordpool_categorized_EN.txt	POTATO	Vegetables	5	9	[0, 0, 0]	n/a	catFR1	0	R1493T
2236.5	0.875	2246962	WORD_OFF	n/a	n/a	POTATO	Vegetables	5	9	[0, 0, 0]	n/a	catFR1	0	R1493T
2237.375	1.625	2247827	WORD	n/a	wordpools/wordpool_categorized_EN.txt	CAULIFLOWER	Vegetables	6	9	[0, 0, 0]	n/a	catFR1	0	R1493T
2239.0	0.875	2249442	WORD_OFF	n/a	n/a	CAULIFLOWER	Vegetables	6	9	[0, 0, 0]	n/a	catFR1	0	R1493T
2239.875	1.625	2250349	WORD	n/a	wordpools/wordpool_categorized_EN.txt	CARDINAL	Birds	7	9	[0, 0, 0]	n/a	catFR1	0	R1493T
2241.5	0.75	2251951	WORD_OFF	n/a	n/a	CARDINAL	Birds	7	9	[0, 0, 0]	n/a	catFR1	0	R1493T
2242.25	1.625	2252730	WORD	n/a	wordpools/wordpool_categorized_EN.txt	GOOSE	Birds	8	9	[0, 0, 0]	n/a	catFR1	0	R1493T
2243.875	0.875	2254332	WORD_OFF	n/a	n/a	GOOSE	Birds	8	9	[0, 0, 0]	n/a	catFR1	0	R1493T
2244.75	1.625	2255224	WORD	n/a	wordpools/wordpool_categorized_EN.txt	HEAD	BodyParts	9	9	[0, 0, 0]	n/a	catFR1	0	R1493T
2246.375	0.875	2256840	WORD_OFF	n/a	n/a	HEAD	BodyParts	9	9	[0, 0, 0]	n/a	catFR1	0	R1493T
2247.25	1.625	2257761	WORD	n/a	wordpools/wordpool_categorized_EN.txt	ELBOW	BodyParts	10	9	[0, 0, 0]	n/a	catFR1	0	R1493T
2248.875	1.0	2259377	WORD_OFF	n/a	n/a	ELBOW	BodyParts	10	9	[0, 0, 0]	n/a	catFR1	0	R1493T
2249.875	1.625	2260383	WORD	n/a	wordpools/wordpool_categorized_EN.txt	ONION	Vegetables	11	9	[0, 0, 0]	n/a	catFR1	0	R1493T
2251.5	1.0	2261998	WORD_OFF	n/a	n/a	ONION	Vegetables	11	9	[0, 0, 0]	n/a	catFR1	0	R1493T
2252.5	1.625	2262976	WORD	n/a	wordpools/wordpool_categorized_EN.txt	CELERY	Vegetables	12	9	[0, 0, 0]	n/a	catFR1	0	R1493T
2254.125	0.0	2264592	WORD_OFF	n/a	n/a	CELERY	Vegetables	12	9	[0, 0, 0]	n/a	catFR1	0	R1493T
2254.125	0.0	2264592	ENCODING_END	n/a	n/a	n/a	n/a	-999	9	[0, 0, 0]	n/a	catFR1	0	R1493T
2254.125	0.0	2264592	DISTRACT_START	n/a	n/a	n/a	n/a	-999	9	[0, 0, 0]	n/a	catFR1	0	R1493T
2254.125	0.017	2264602	START	n/a	n/a	n/a	n/a	-999	9	[-999, -999, -999]	n/a	catFR1	0	R1493T
2254.142	13.507	2264619	PROB	13.483	n/a	n/a	n/a	-999	9	[3, 7, 3]	13.0	catFR1	0	R1493T
2267.649	33.101	2278125	PROB	33.101	n/a	n/a	n/a	-999	9	[2, 7, 7]	7.0	catFR1	0	R1493T
2300.75	0.0	2311201	DISTRACT_END	n/a	n/a	n/a	n/a	-999	9	[0, 0, 0]	n/a	catFR1	0	R1493T
2300.75	2.0	2311225	STOP	n/a	n/a	n/a	n/a	-999	9	[-999, -999, -999]	n/a	catFR1	0	R1493T
2302.75	29.994	2313264	REC_START	n/a	n/a	n/a	n/a	-999	9	[0, 0, 0]	n/a	catFR1	0	R1493T
2332.744	0.256	2343217	REC_WORD_VV	29.994	n/a	<>	n/a	-999	9	[0, 0, 0]	n/a	catFR1	0	R1493T
2333.0	7.625	2343484	REC_END	n/a	n/a	n/a	n/a	-999	9	[0, 0, 0]	n/a	catFR1	0	R1493T
2340.625	10.25	2351080	COUNTDOWN_START	n/a	n/a	n/a	n/a	-999	10	[0, 0, 0]	n/a	catFR1	0	R1493T
2350.875	0.0	2361425	COUNTDOWN_END	n/a	n/a	n/a	n/a	-999	10	[0, 0, 0]	n/a	catFR1	0	R1493T
2350.875	2.375	2361425	ENCODING_START	n/a	n/a	n/a	n/a	-999	10	[0, 0, 0]	n/a	catFR1	0	R1493T
2353.25	1.625	2363721	WORD	n/a	wordpools/wordpool_categorized_EN.txt	ARM	BodyParts	1	10	[0, 0, 0]	n/a	catFR1	0	R1493T
2354.875	0.875	2365322	WORD_OFF	n/a	n/a	ARM	BodyParts	1	10	[0, 0, 0]	n/a	catFR1	0	R1493T
2355.75	1.5	2366187	WORD	n/a	wordpools/wordpool_categorized_EN.txt	FINGERS	BodyParts	2	10	[0, 0, 0]	n/a	catFR1	0	R1493T
2357.25	0.875	2367802	WORD_OFF	n/a	n/a	FINGERS	BodyParts	2	10	[0, 0, 0]	n/a	catFR1	0	R1493T
2358.125	1.625	2368652	WORD	n/a	wordpools/wordpool_categorized_EN.txt	MICROWAVE	Electronics	3	10	[0, 0, 0]	n/a	catFR1	0	R1493T
2359.75	1.0	2370268	WORD_OFF	n/a	n/a	MICROWAVE	Electronics	3	10	[0, 0, 0]	n/a	catFR1	0	R1493T
2360.75	1.625	2371203	WORD	n/a	wordpools/wordpool_categorized_EN.txt	HEADPHONES	Electronics	4	10	[0, 0, 0]	n/a	catFR1	0	R1493T
2362.375	0.75	2372819	WORD_OFF	n/a	n/a	HEADPHONES	Electronics	4	10	[0, 0, 0]	n/a	catFR1	0	R1493T
2363.125	1.625	2373598	WORD	n/a	wordpools/wordpool_categorized_EN.txt	FOLDER	OfficeSupplies	5	10	[0, 0, 0]	n/a	catFR1	0	R1493T
2364.75	0.75	2375214	WORD_OFF	n/a	n/a	FOLDER	OfficeSupplies	5	10	[0, 0, 0]	n/a	catFR1	0	R1493T
2365.5	1.625	2376036	WORD	n/a	wordpools/wordpool_categorized_EN.txt	BINDER	OfficeSupplies	6	10	[0, 0, 0]	n/a	catFR1	0	R1493T
2367.125	0.875	2377651	WORD_OFF	n/a	n/a	BINDER	OfficeSupplies	6	10	[0, 0, 0]	n/a	catFR1	0	R1493T
2368.0	1.625	2378502	WORD	n/a	wordpools/wordpool_categorized_EN.txt	KNEE	BodyParts	7	10	[0, 0, 0]	n/a	catFR1	0	R1493T
2369.625	1.0	2380103	WORD_OFF	n/a	n/a	KNEE	BodyParts	7	10	[0, 0, 0]	n/a	catFR1	0	R1493T
2370.625	1.5	2381067	WORD	n/a	wordpools/wordpool_categorized_EN.txt	TOE	BodyParts	8	10	[0, 0, 0]	n/a	catFR1	0	R1493T
2372.125	1.0	2382668	WORD_OFF	n/a	n/a	TOE	BodyParts	8	10	[0, 0, 0]	n/a	catFR1	0	R1493T
2373.125	1.625	2383575	WORD	n/a	wordpools/wordpool_categorized_EN.txt	TAPE	OfficeSupplies	9	10	[0, 0, 0]	n/a	catFR1	0	R1493T
2374.75	0.75	2385190	WORD_OFF	n/a	n/a	TAPE	OfficeSupplies	9	10	[0, 0, 0]	n/a	catFR1	0	R1493T
2375.5	1.625	2386027	WORD	n/a	wordpools/wordpool_categorized_EN.txt	ERASER	OfficeSupplies	10	10	[0, 0, 0]	n/a	catFR1	0	R1493T
2377.125	1.0	2387642	WORD_OFF	n/a	n/a	ERASER	OfficeSupplies	10	10	[0, 0, 0]	n/a	catFR1	0	R1493T
2378.125	1.625	2388620	WORD	n/a	wordpools/wordpool_categorized_EN.txt	SPEAKER	Electronics	11	10	[0, 0, 0]	n/a	catFR1	0	R1493T
2379.75	0.75	2390221	WORD_OFF	n/a	n/a	SPEAKER	Electronics	11	10	[0, 0, 0]	n/a	catFR1	0	R1493T
2380.5	1.593	2391001	WORD	n/a	wordpools/wordpool_categorized_EN.txt	SCANNER	Electronics	12	10	[0, 0, 0]	n/a	catFR1	0	R1493T
2382.093	0.032	2392564	PROB	13.282	n/a	n/a	n/a	-999	10	[8, 1, 8]	17.0	catFR1	0	R1493T
2382.125	0.0	2392596	START	n/a	n/a	n/a	n/a	-999	10	[-999, -999, -999]	n/a	catFR1	0	R1493T
2382.125	0.0	2392616	WORD_OFF	n/a	n/a	SCANNER	Electronics	12	10	[0, 0, 0]	n/a	catFR1	0	R1493T
2382.125	0.0	2392616	ENCODING_END	n/a	n/a	n/a	n/a	-999	10	[0, 0, 0]	n/a	catFR1	0	R1493T
2382.125	13.359	2392630	DISTRACT_START	n/a	n/a	n/a	n/a	-999	10	[0, 0, 0]	n/a	catFR1	0	R1493T
2395.484	17.266	2405954	PROB	17.266	n/a	n/a	n/a	-999	10	[6, 5, 2]	13.0	catFR1	0	R1493T
2412.75	0.0	2423198	DISTRACT_END	n/a	n/a	n/a	n/a	-999	10	[0, 0, 0]	n/a	catFR1	0	R1493T
2412.75	2.125	2423220	STOP	n/a	n/a	n/a	n/a	-999	10	[-999, -999, -999]	n/a	catFR1	0	R1493T
2414.875	1.538	2425346	REC_START	n/a	n/a	n/a	n/a	-999	10	[0, 0, 0]	n/a	catFR1	0	R1493T
2416.413	1.239	2426883	REC_WORD_VV	1.538	n/a	<>	n/a	-999	10	[0, 0, 0]	n/a	catFR1	0	R1493T
2417.652	0.998	2428121	REC_WORD_VV	2.777	n/a	<>	n/a	-999	10	[0, 0, 0]	n/a	catFR1	0	R1493T
2418.65	26.475	2429119	REC_WORD_VV	3.775	n/a	<>	n/a	-999	10	[0, 0, 0]	n/a	catFR1	0	R1493T
2445.125	13.5	2455608	REC_END	n/a	n/a	n/a	n/a	-999	10	[0, 0, 0]	n/a	catFR1	0	R1493T
2458.625	10.375	2469156	COUNTDOWN_START	n/a	n/a	n/a	n/a	-999	11	[0, 0, 0]	n/a	catFR1	0	R1493T
2469.0	0.0	2479501	COUNTDOWN_END	n/a	n/a	n/a	n/a	-999	11	[0, 0, 0]	n/a	catFR1	0	R1493T
2469.0	2.25	2479501	ENCODING_START	n/a	n/a	n/a	n/a	-999	11	[0, 0, 0]	n/a	catFR1	0	R1493T
2471.25	1.625	2481783	WORD	n/a	wordpools/wordpool_categorized_EN.txt	DOOR	Building	1	11	[0, 0, 0]	n/a	catFR1	0	R1493T
2472.875	1.0	2483398	WORD_OFF	n/a	n/a	DOOR	Building	1	11	[0, 0, 0]	n/a	catFR1	0	R1493T
2473.875	1.625	2484362	WORD	n/a	wordpools/wordpool_categorized_EN.txt	BATHROOM	Building	2	11	[0, 0, 0]	n/a	catFR1	0	R1493T
2475.5	0.875	2485963	WORD_OFF	n/a	n/a	BATHROOM	Building	2	11	[0, 0, 0]	n/a	catFR1	0	R1493T
2476.375	1.625	2486899	WORD	n/a	wordpools/wordpool_categorized_EN.txt	DUCK	Birds	3	11	[0, 0, 0]	n/a	catFR1	0	R1493T
2478.0	0.75	2488500	WORD_OFF	n/a	n/a	DUCK	Birds	3	11	[0, 0, 0]	n/a	catFR1	0	R1493T
2478.75	1.625	2489294	WORD	n/a	wordpools/wordpool_categorized_EN.txt	ROBIN	Birds	4	11	[0, 0, 0]	n/a	catFR1	0	R1493T
2480.375	0.875	2490909	WORD_OFF	n/a	n/a	ROBIN	Birds	4	11	[0, 0, 0]	n/a	catFR1	0	R1493T
2481.25	1.625	2491788	WORD	n/a	wordpools/wordpool_categorized_EN.txt	ZEBRA	Zoo	5	11	[0, 0, 0]	n/a	catFR1	0	R1493T
2482.875	0.75	2493389	WORD_OFF	n/a	n/a	ZEBRA	Zoo	5	11	[0, 0, 0]	n/a	catFR1	0	R1493T
2483.625	1.625	2494154	WORD	n/a	wordpools/wordpool_categorized_EN.txt	BEAR	Zoo	6	11	[0, 0, 0]	n/a	catFR1	0	R1493T
2485.25	0.875	2495742	WORD_OFF	n/a	n/a	BEAR	Zoo	6	11	[0, 0, 0]	n/a	catFR1	0	R1493T
2486.125	1.625	2496620	WORD	n/a	wordpools/wordpool_categorized_EN.txt	SPARROW	Birds	7	11	[0, 0, 0]	n/a	catFR1	0	R1493T
2487.75	0.875	2498236	WORD_OFF	n/a	n/a	SPARROW	Birds	7	11	[0, 0, 0]	n/a	catFR1	0	R1493T
2488.625	1.625	2499086	WORD	n/a	wordpools/wordpool_categorized_EN.txt	BLUEBIRD	Birds	8	11	[0, 0, 0]	n/a	catFR1	0	R1493T
2490.25	0.875	2500702	WORD_OFF	n/a	n/a	BLUEBIRD	Birds	8	11	[0, 0, 0]	n/a	catFR1	0	R1493T
2491.125	1.625	2501580	WORD	n/a	wordpools/wordpool_categorized_EN.txt	CEILING	Building	9	11	[0, 0, 0]	n/a	catFR1	0	R1493T
2492.75	0.75	2503196	WORD_OFF	n/a	n/a	CEILING	Building	9	11	[0, 0, 0]	n/a	catFR1	0	R1493T
2493.5	1.625	2504004	WORD	n/a	wordpools/wordpool_categorized_EN.txt	FLOOR	Building	10	11	[0, 0, 0]	n/a	catFR1	0	R1493T
2495.125	0.75	2505619	WORD_OFF	n/a	n/a	FLOOR	Building	10	11	[0, 0, 0]	n/a	catFR1	0	R1493T
2495.875	1.625	2506413	WORD	n/a	wordpools/wordpool_categorized_EN.txt	CHEETAH	Zoo	11	11	[0, 0, 0]	n/a	catFR1	0	R1493T
2497.5	1.0	2508028	WORD_OFF	n/a	n/a	CHEETAH	Zoo	11	11	[0, 0, 0]	n/a	catFR1	0	R1493T
2498.5	1.625	2509034	WORD	n/a	wordpools/wordpool_categorized_EN.txt	ORANGUTAN	Zoo	12	11	[0, 0, 0]	n/a	catFR1	0	R1493T
2500.125	0.05	2510591	START	n/a	n/a	n/a	n/a	-999	11	[-999, -999, -999]	n/a	catFR1	0	R1493T
2500.175	0.0	2510641	PROB	9.45	n/a	n/a	n/a	-999	11	[1, 6, 4]	11.0	catFR1	0	R1493T
2500.125	0.0	2510650	WORD_OFF	n/a	n/a	ORANGUTAN	Zoo	12	11	[0, 0, 0]	n/a	catFR1	0	R1493T
2500.125	0.0	2510650	ENCODING_END	n/a	n/a	n/a	n/a	-999	11	[0, 0, 0]	n/a	catFR1	0	R1493T
2500.125	9.535	2510650	DISTRACT_START	n/a	n/a	n/a	n/a	-999	11	[0, 0, 0]	n/a	catFR1	0	R1493T
2509.66	14.965	2520125	PROB	14.965	n/a	n/a	n/a	-999	11	[1, 4, 4]	9.0	catFR1	0	R1493T
2524.625	0.0	2535090	STOP	n/a	n/a	n/a	n/a	-999	11	[-999, -999, -999]	n/a	catFR1	0	R1493T
2524.625	2.0	2535096	DISTRACT_END	n/a	n/a	n/a	n/a	-999	11	[0, 0, 0]	n/a	catFR1	0	R1493T
2526.625	2.37	2537116	REC_START	n/a	n/a	n/a	n/a	-999	11	[0, 0, 0]	n/a	catFR1	0	R1493T
2528.995	1.661	2539459	REC_WORD_VV	2.37	n/a	<>	n/a	-999	11	[0, 0, 0]	n/a	catFR1	0	R1493T
2530.656	21.379	2541120	REC_WORD	4.031	n/a	ORANGUTAN	Zoo	12	11	[0, 0, 0]	n/a	catFR1	0	R1493T
2552.035	4.84	2562498	REC_WORD	25.41	n/a	ZEBRA	Zoo	5	11	[0, 0, 0]	n/a	catFR1	0	R1493T
2556.875	9.875	2567336	REC_END	n/a	n/a	n/a	n/a	-999	11	[0, 0, 0]	n/a	catFR1	0	R1493T
2566.75	10.25	2577185	COUNTDOWN_START	n/a	n/a	n/a	n/a	-999	12	[0, 0, 0]	n/a	catFR1	0	R1493T
2577.0	0.0	2587530	COUNTDOWN_END	n/a	n/a	n/a	n/a	-999	12	[0, 0, 0]	n/a	catFR1	0	R1493T
2577.0	2.25	2587530	ENCODING_START	n/a	n/a	n/a	n/a	-999	12	[0, 0, 0]	n/a	catFR1	0	R1493T
2579.25	1.625	2589741	WORD	n/a	wordpools/wordpool_categorized_EN.txt	STAIRS	Building	1	12	[0, 0, 0]	n/a	catFR1	0	R1493T
2580.875	0.875	2591342	WORD_OFF	n/a	n/a	STAIRS	Building	1	12	[0, 0, 0]	n/a	catFR1	0	R1493T
2581.75	1.625	2592277	WORD	n/a	wordpools/wordpool_categorized_EN.txt	ATTIC	Building	2	12	[0, 0, 0]	n/a	catFR1	0	R1493T
2583.375	0.875	2593893	WORD_OFF	n/a	n/a	ATTIC	Building	2	12	[0, 0, 0]	n/a	catFR1	0	R1493T
2584.25	1.5	2594686	WORD	n/a	wordpools/wordpool_categorized_EN.txt	PEAR	Fruit	3	12	[0, 0, 0]	n/a	catFR1	0	R1493T
2585.75	1.0	2596288	WORD_OFF	n/a	n/a	PEAR	Fruit	3	12	[0, 0, 0]	n/a	catFR1	0	R1493T
2586.75	1.625	2597280	WORD	n/a	wordpools/wordpool_categorized_EN.txt	ORANGE	Fruit	4	12	[0, 0, 0]	n/a	catFR1	0	R1493T
2588.375	0.875	2598881	WORD_OFF	n/a	n/a	ORANGE	Fruit	4	12	[0, 0, 0]	n/a	catFR1	0	R1493T
2589.25	1.625	2599731	WORD	n/a	wordpools/wordpool_categorized_EN.txt	PAPER	OfficeSupplies	5	12	[0, 0, 0]	n/a	catFR1	0	R1493T
2590.875	0.875	2601347	WORD_OFF	n/a	n/a	PAPER	OfficeSupplies	5	12	[0, 0, 0]	n/a	catFR1	0	R1493T
2591.75	1.625	2602268	WORD	n/a	wordpools/wordpool_categorized_EN.txt	NOTEBOOK	OfficeSupplies	6	12	[0, 0, 0]	n/a	catFR1	0	R1493T
2593.375	1.0	2603870	WORD_OFF	n/a	n/a	NOTEBOOK	OfficeSupplies	6	12	[0, 0, 0]	n/a	catFR1	0	R1493T
2594.375	1.625	2604876	WORD	n/a	wordpools/wordpool_categorized_EN.txt	ROOF	Building	7	12	[0, 0, 0]	n/a	catFR1	0	R1493T
2596.0	0.875	2606491	WORD_OFF	n/a	n/a	ROOF	Building	7	12	[0, 0, 0]	n/a	catFR1	0	R1493T
2596.875	1.625	2607398	WORD	n/a	wordpools/wordpool_categorized_EN.txt	WALL	Building	8	12	[0, 0, 0]	n/a	catFR1	0	R1493T
2598.5	1.0	2609000	WORD_OFF	n/a	n/a	WALL	Building	8	12	[0, 0, 0]	n/a	catFR1	0	R1493T
2599.5	1.5	2609921	WORD	n/a	wordpools/wordpool_categorized_EN.txt	STAPLER	OfficeSupplies	9	12	[0, 0, 0]	n/a	catFR1	0	R1493T
2601.0	1.0	2611522	WORD_OFF	n/a	n/a	STAPLER	OfficeSupplies	9	12	[0, 0, 0]	n/a	catFR1	0	R1493T
2602.0	1.5	2612443	WORD	n/a	wordpools/wordpool_categorized_EN.txt	PENCIL	OfficeSupplies	10	12	[0, 0, 0]	n/a	catFR1	0	R1493T
2603.5	0.875	2614045	WORD_OFF	n/a	n/a	PENCIL	OfficeSupplies	10	12	[0, 0, 0]	n/a	catFR1	0	R1493T
2604.375	1.625	2614909	WORD	n/a	wordpools/wordpool_categorized_EN.txt	PLUM	Fruit	11	12	[0, 0, 0]	n/a	catFR1	0	R1493T
2606.0	1.0	2616525	WORD_OFF	n/a	n/a	PLUM	Fruit	11	12	[0, 0, 0]	n/a	catFR1	0	R1493T
2607.0	1.625	2617531	WORD	n/a	wordpools/wordpool_categorized_EN.txt	LIME	Fruit	12	12	[0, 0, 0]	n/a	catFR1	0	R1493T
2608.625	0.0	2619086	START	n/a	n/a	n/a	n/a	-999	12	[-999, -999, -999]	n/a	catFR1	0	R1493T
2608.625	0.0	2619146	WORD_OFF	n/a	n/a	LIME	Fruit	12	12	[0, 0, 0]	n/a	catFR1	0	R1493T
2608.625	0.0	2619146	ENCODING_END	n/a	n/a	n/a	n/a	-999	12	[0, 0, 0]	n/a	catFR1	0	R1493T
2608.625	0.091	2619146	DISTRACT_START	n/a	n/a	n/a	n/a	-999	12	[0, 0, 0]	n/a	catFR1	0	R1493T
2608.716	14.751	2619177	PROB	14.784	n/a	n/a	n/a	-999	12	[5, 7, 2]	14.0	catFR1	0	R1493T
2623.467	13.033	2633927	PROB	13.033	n/a	n/a	n/a	-999	12	[2, 8, 2]	12.0	catFR1	0	R1493T
2636.5	0.0	2646960	STOP	n/a	n/a	n/a	n/a	-999	12	[-999, -999, -999]	n/a	catFR1	0	R1493T
2636.5	2.0	2646993	DISTRACT_END	n/a	n/a	n/a	n/a	-999	12	[0, 0, 0]	n/a	catFR1	0	R1493T
2638.5	0.301	2649042	REC_START	n/a	n/a	n/a	n/a	-999	12	[0, 0, 0]	n/a	catFR1	0	R1493T
2638.801	1.0	2649260	REC_WORD_VV	0.301	n/a	<>	n/a	-999	12	[0, 0, 0]	n/a	catFR1	0	R1493T
2639.801	28.949	2650260	REC_WORD_VV	1.301	n/a	<>	n/a	-999	12	[0, 0, 0]	n/a	catFR1	0	R1493T
2668.75	0.0	2679276	REC_END	n/a	n/a	n/a	n/a	-999	12	[0, 0, 0]	n/a	catFR1	0	R1493T
