onset	duration	sample	trial_type	response_time	stim_file	item_name	category	serialpos	list	test	answer	experiment	session	subject
0.0	164.85	13865	INSTRUCT_START	n/a	n/a	n/a	n/a	-999	-999	[0, 0, 0]	n/a	catFR1	2	R1659A
164.85	22.222	178714	INSTRUCT_END	n/a	n/a	n/a	n/a	-999	-999	[0, 0, 0]	n/a	catFR1	2	R1659A
187.072	10.352	200934	COUNTDOWN_START	n/a	n/a	n/a	n/a	-999	-999	[0, 0, 0]	n/a	catFR1	2	R1659A
197.424	0.0	211284	COUNTDOWN_END	n/a	n/a	n/a	n/a	-999	-999	[0, 0, 0]	n/a	catFR1	2	R1659A
197.424	2.271	211284	ENCODING_START	n/a	n/a	n/a	n/a	-999	-1	[0, 0, 0]	n/a	catFR1	2	R1659A
199.695	1.604	213555	WORD	n/a	n/a	HORSE	FarmAnimals	1	-1	[0, 0, 0]	n/a	catFR1	2	R1659A
201.299	0.758	215153	WORD_OFF	n/a	n/a	HORSE	FarmAnimals	1	-1	[0, 0, 0]	n/a	catFR1	2	R1659A
202.057	1.607	215914	WORD	n/a	n/a	CALF	FarmAnimals	2	-1	[0, 0, 0]	n/a	catFR1	2	R1659A
203.664	0.868	217523	WORD_OFF	n/a	n/a	CALF	FarmAnimals	2	-1	[0, 0, 0]	n/a	catFR1	2	R1659A
204.532	1.608	218394	WORD	n/a	n/a	TONGS	KitchenTools	3	-1	[0, 0, 0]	n/a	catFR1	2	R1659A
206.14	0.95	220003	WORD_OFF	n/a	n/a	TONGS	KitchenTools	3	-1	[0, 0, 0]	n/a	catFR1	2	R1659A
207.09	1.601	220951	WORD	n/a	n/a	CORKSCREW	KitchenTools	4	-1	[0, 0, 0]	n/a	catFR1	2	R1659A
208.691	0.841	222549	WORD_OFF	n/a	n/a	CORKSCREW	KitchenTools	4	-1	[0, 0, 0]	n/a	catFR1	2	R1659A
209.532	1.607	223387	WORD	n/a	n/a	FLOOR	Building	5	-1	[0, 0, 0]	n/a	catFR1	2	R1659A
211.139	0.785	224996	WORD_OFF	n/a	n/a	FLOOR	Building	5	-1	[0, 0, 0]	n/a	catFR1	2	R1659A
211.924	1.6	225779	WORD	n/a	n/a	DOOR	Building	6	-1	[0, 0, 0]	n/a	catFR1	2	R1659A
213.524	0.84	227377	WORD_OFF	n/a	n/a	DOOR	Building	6	-1	[0, 0, 0]	n/a	catFR1	2	R1659A
214.364	1.602	228226	WORD	n/a	n/a	SHEEP	FarmAnimals	7	-1	[0, 0, 0]	n/a	catFR1	2	R1659A
215.966	0.891	229824	WORD_OFF	n/a	n/a	SHEEP	FarmAnimals	7	-1	[0, 0, 0]	n/a	catFR1	2	R1659A
216.857	1.608	230717	WORD	n/a	n/a	PIG	FarmAnimals	8	-1	[0, 0, 0]	n/a	catFR1	2	R1659A
218.465	0.784	232326	WORD_OFF	n/a	n/a	PIG	FarmAnimals	8	-1	[0, 0, 0]	n/a	catFR1	2	R1659A
219.249	1.6	233108	WORD	n/a	n/a	WHISK	KitchenTools	9	-1	[0, 0, 0]	n/a	catFR1	2	R1659A
220.849	0.89	234707	WORD_OFF	n/a	n/a	WHISK	KitchenTools	9	-1	[0, 0, 0]	n/a	catFR1	2	R1659A
221.739	1.602	235599	WORD	n/a	n/a	KNIFE	KitchenTools	10	-1	[0, 0, 0]	n/a	catFR1	2	R1659A
223.341	0.941	237198	WORD_OFF	n/a	n/a	KNIFE	KitchenTools	10	-1	[0, 0, 0]	n/a	catFR1	2	R1659A
224.282	1.609	238146	WORD	n/a	n/a	STAIRS	Building	11	-1	[0, 0, 0]	n/a	catFR1	2	R1659A
225.891	0.757	239744	WORD_OFF	n/a	n/a	STAIRS	Building	11	-1	[0, 0, 0]	n/a	catFR1	2	R1659A
226.648	1.601	240504	WORD	n/a	n/a	ATTIC	Building	12	-1	[0, 0, 0]	n/a	catFR1	2	R1659A
228.249	0.004	242102	WORD_OFF	n/a	n/a	ATTIC	Building	12	-1	[0, 0, 0]	n/a	catFR1	2	R1659A
228.253	0.0	242112	START	n/a	n/a	n/a	n/a	-999	-1	[-999, -999, -999]	n/a	catFR1	2	R1659A
228.253	0.0	242112	PROB	3.14	n/a	n/a	n/a	-999	-1	[2, 2, 1]	5.0	catFR1	2	R1659A
228.253	0.0	242113	ENCODING_END	n/a	n/a	n/a	n/a	-999	-1	[0, 0, 0]	n/a	catFR1	2	R1659A
228.253	3.145	242113	DISTRACT_START	n/a	n/a	n/a	n/a	-999	-1	[0, 0, 0]	n/a	catFR1	2	R1659A
231.398	3.875	245257	PROB	3.866	n/a	n/a	n/a	-999	-1	[1, 5, 7]	13.0	catFR1	2	R1659A
235.273	7.059	249132	PROB	7.049	n/a	n/a	n/a	-999	-1	[6, 1, 6]	13.0	catFR1	2	R1659A
242.332	3.066	256191	PROB	3.058	n/a	n/a	n/a	-999	-1	[6, 8, 1]	15.0	catFR1	2	R1659A
245.398	2.803	259257	PROB	2.791	n/a	n/a	n/a	-999	-1	[1, 7, 2]	10.0	catFR1	2	R1659A
248.201	2.513	262060	PROB	2.508	n/a	n/a	n/a	-999	-1	[8, 1, 2]	11.0	catFR1	2	R1659A
250.714	0.0	264573	STOP	n/a	n/a	n/a	n/a	-999	-1	[-999, -999, -999]	n/a	catFR1	2	R1659A
250.714	2.242	264577	DISTRACT_END	n/a	n/a	n/a	n/a	-999	-1	[0, 0, 0]	n/a	catFR1	2	R1659A
252.956	0.501	266814	REC_START	n/a	n/a	n/a	n/a	-999	-1	[0, 0, 0]	n/a	catFR1	2	R1659A
253.457	0.905	267316	REC_WORD	0.501	n/a	HORSE	FarmAnimals	1	-1	[0, 0, 0]	n/a	catFR1	2	R1659A
254.362	2.015	268221	REC_WORD	1.406	n/a	CALF	FarmAnimals	2	-1	[0, 0, 0]	n/a	catFR1	2	R1659A
256.377	1.405	270236	REC_WORD	3.421	n/a	TONGS	KitchenTools	3	-1	[0, 0, 0]	n/a	catFR1	2	R1659A
257.782	5.631	271641	REC_WORD	4.826	n/a	TONGS	KitchenTools	3	-1	[0, 0, 0]	n/a	catFR1	2	R1659A
263.413	15.59	277272	REC_WORD	10.457	n/a	CORKSCREW	KitchenTools	4	-1	[0, 0, 0]	n/a	catFR1	2	R1659A
279.003	4.11	292862	REC_WORD	26.047	n/a	ATTIC	Building	12	-1	[0, 0, 0]	n/a	catFR1	2	R1659A
283.113	6.127	296971	REC_END	n/a	n/a	n/a	n/a	-999	-1	[0, 0, 0]	n/a	catFR1	2	R1659A
289.24	10.343	303099	COUNTDOWN_START	n/a	n/a	n/a	n/a	-999	1	[0, 0, 0]	n/a	catFR1	2	R1659A
299.583	0.0	313438	COUNTDOWN_END	n/a	n/a	n/a	n/a	-999	1	[0, 0, 0]	n/a	catFR1	2	R1659A
299.583	1.966	313438	ENCODING_START	n/a	n/a	n/a	n/a	-999	1	[0, 0, 0]	n/a	catFR1	2	R1659A
301.549	1.6	315411	WORD	n/a	wordpools/wordpool_categorized_EN.txt	BLOUSE	Clothing	1	1	[0, 0, 0]	n/a	catFR1	2	R1659A
303.149	0.865	317009	WORD_OFF	n/a	n/a	BLOUSE	Clothing	1	1	[0, 0, 0]	n/a	catFR1	2	R1659A
304.014	1.608	317869	WORD	n/a	wordpools/wordpool_categorized_EN.txt	SKIRT	Clothing	2	1	[0, 0, 0]	n/a	catFR1	2	R1659A
305.622	0.902	319478	WORD_OFF	n/a	n/a	SKIRT	Clothing	2	1	[0, 0, 0]	n/a	catFR1	2	R1659A
306.524	1.608	320382	WORD	n/a	wordpools/wordpool_categorized_EN.txt	RATCHET	Tools	3	1	[0, 0, 0]	n/a	catFR1	2	R1659A
308.132	0.81	321991	WORD_OFF	n/a	n/a	RATCHET	Tools	3	1	[0, 0, 0]	n/a	catFR1	2	R1659A
308.942	1.605	322796	WORD	n/a	wordpools/wordpool_categorized_EN.txt	SHOVEL	Tools	4	1	[0, 0, 0]	n/a	catFR1	2	R1659A
310.547	0.917	324405	WORD_OFF	n/a	n/a	SHOVEL	Tools	4	1	[0, 0, 0]	n/a	catFR1	2	R1659A
311.464	1.601	325320	WORD	n/a	wordpools/wordpool_categorized_EN.txt	TABLE	Furniture	5	1	[0, 0, 0]	n/a	catFR1	2	R1659A
313.065	0.926	326918	WORD_OFF	n/a	n/a	TABLE	Furniture	5	1	[0, 0, 0]	n/a	catFR1	2	R1659A
313.991	1.608	327844	WORD	n/a	wordpools/wordpool_categorized_EN.txt	BED	Furniture	6	1	[0, 0, 0]	n/a	catFR1	2	R1659A
315.599	0.807	329454	WORD_OFF	n/a	n/a	BED	Furniture	6	1	[0, 0, 0]	n/a	catFR1	2	R1659A
316.406	1.61	330258	WORD	n/a	wordpools/wordpool_categorized_EN.txt	JACKET	Clothing	7	1	[0, 0, 0]	n/a	catFR1	2	R1659A
318.016	0.792	331878	WORD_OFF	n/a	n/a	JACKET	Clothing	7	1	[0, 0, 0]	n/a	catFR1	2	R1659A
318.808	1.607	332661	WORD	n/a	wordpools/wordpool_categorized_EN.txt	DRESS	Clothing	8	1	[0, 0, 0]	n/a	catFR1	2	R1659A
320.415	0.966	334270	WORD_OFF	n/a	n/a	DRESS	Clothing	8	1	[0, 0, 0]	n/a	catFR1	2	R1659A
321.381	1.602	335240	WORD	n/a	wordpools/wordpool_categorized_EN.txt	LEVEL	Tools	9	1	[0, 0, 0]	n/a	catFR1	2	R1659A
322.983	0.923	336838	WORD_OFF	n/a	n/a	LEVEL	Tools	9	1	[0, 0, 0]	n/a	catFR1	2	R1659A
323.906	1.61	337764	WORD	n/a	wordpools/wordpool_categorized_EN.txt	WRENCH	Tools	10	1	[0, 0, 0]	n/a	catFR1	2	R1659A
325.516	0.933	339374	WORD_OFF	n/a	n/a	WRENCH	Tools	10	1	[0, 0, 0]	n/a	catFR1	2	R1659A
326.449	1.608	340310	WORD	n/a	wordpools/wordpool_categorized_EN.txt	SHELF	Furniture	11	1	[0, 0, 0]	n/a	catFR1	2	R1659A
328.057	0.766	341920	WORD_OFF	n/a	n/a	SHELF	Furniture	11	1	[0, 0, 0]	n/a	catFR1	2	R1659A
328.823	1.609	342680	WORD	n/a	wordpools/wordpool_categorized_EN.txt	RECLINER	Furniture	12	1	[0, 0, 0]	n/a	catFR1	2	R1659A
330.432	0.003	344289	WORD_OFF	n/a	n/a	RECLINER	Furniture	12	1	[0, 0, 0]	n/a	catFR1	2	R1659A
330.435	0.0	344289	ENCODING_END	n/a	n/a	n/a	n/a	-999	1	[0, 0, 0]	n/a	catFR1	2	R1659A
330.432	0.003	344291	PROB	3.682	n/a	n/a	n/a	-999	1	[3, 3, 2]	8.0	catFR1	2	R1659A
330.435	0.0	344294	START	n/a	n/a	n/a	n/a	-999	1	[-999, -999, -999]	n/a	catFR1	2	R1659A
330.435	3.69	344300	DISTRACT_START	n/a	n/a	n/a	n/a	-999	1	[0, 0, 0]	n/a	catFR1	2	R1659A
334.125	2.348	347984	PROB	2.341	n/a	n/a	n/a	-999	1	[3, 1, 1]	7.0	catFR1	2	R1659A
336.473	6.741	350332	PROB	6.732	n/a	n/a	n/a	-999	1	[8, 1, 8]	17.0	catFR1	2	R1659A
343.214	2.843	357073	PROB	2.834	n/a	n/a	n/a	-999	1	[1, 7, 4]	12.0	catFR1	2	R1659A
346.057	2.032	359916	PROB	2.024	n/a	n/a	n/a	-999	1	[6, 5, 1]	12.0	catFR1	2	R1659A
348.089	5.002	361948	PROB	4.991	n/a	n/a	n/a	-999	1	[6, 3, 1]	10.0	catFR1	2	R1659A
353.091	0.0	366949	STOP	n/a	n/a	n/a	n/a	-999	1	[-999, -999, -999]	n/a	catFR1	2	R1659A
353.091	2.274	366951	DISTRACT_END	n/a	n/a	n/a	n/a	-999	1	[0, 0, 0]	n/a	catFR1	2	R1659A
355.365	0.45	369222	REC_START	n/a	n/a	n/a	n/a	-999	1	[0, 0, 0]	n/a	catFR1	2	R1659A
355.815	1.481	369673	REC_WORD_VV	0.45	n/a	<>	n/a	-999	1	[0, 0, 0]	n/a	catFR1	2	R1659A
357.296	1.696	371154	REC_WORD_VV	1.931	n/a	<>	n/a	-999	1	[0, 0, 0]	n/a	catFR1	2	R1659A
358.992	1.898	372850	REC_WORD_VV	3.627	n/a	<>	n/a	-999	1	[0, 0, 0]	n/a	catFR1	2	R1659A
360.89	24.622	374748	REC_WORD_VV	5.525	n/a	<>	n/a	-999	1	[0, 0, 0]	n/a	catFR1	2	R1659A
385.512	2.193	399367	REC_END	n/a	n/a	n/a	n/a	-999	1	[0, 0, 0]	n/a	catFR1	2	R1659A
387.705	10.344	401561	COUNTDOWN_START	n/a	n/a	n/a	n/a	-999	2	[0, 0, 0]	n/a	catFR1	2	R1659A
398.049	0.001	411911	COUNTDOWN_END	n/a	n/a	n/a	n/a	-999	2	[0, 0, 0]	n/a	catFR1	2	R1659A
398.05	2.182	411911	ENCODING_START	n/a	n/a	n/a	n/a	-999	2	[0, 0, 0]	n/a	catFR1	2	R1659A
400.232	1.608	414093	WORD	n/a	wordpools/wordpool_categorized_EN.txt	ROOF	Building	1	2	[0, 0, 0]	n/a	catFR1	2	R1659A
401.84	0.832	415702	WORD_OFF	n/a	n/a	ROOF	Building	1	2	[0, 0, 0]	n/a	catFR1	2	R1659A
402.672	1.602	416529	WORD	n/a	wordpools/wordpool_categorized_EN.txt	CEILING	Building	2	2	[0, 0, 0]	n/a	catFR1	2	R1659A
404.274	0.824	418127	WORD_OFF	n/a	n/a	CEILING	Building	2	2	[0, 0, 0]	n/a	catFR1	2	R1659A
405.098	1.609	418954	WORD	n/a	wordpools/wordpool_categorized_EN.txt	MONKEY	Zoo	3	2	[0, 0, 0]	n/a	catFR1	2	R1659A
406.707	0.874	420563	WORD_OFF	n/a	n/a	MONKEY	Zoo	3	2	[0, 0, 0]	n/a	catFR1	2	R1659A
407.581	1.6	421434	WORD	n/a	wordpools/wordpool_categorized_EN.txt	LION	Zoo	4	2	[0, 0, 0]	n/a	catFR1	2	R1659A
409.181	0.992	423043	WORD_OFF	n/a	n/a	LION	Zoo	4	2	[0, 0, 0]	n/a	catFR1	2	R1659A
410.173	1.601	424035	WORD	n/a	wordpools/wordpool_categorized_EN.txt	BULL	FarmAnimals	5	2	[0, 0, 0]	n/a	catFR1	2	R1659A
411.774	0.766	425633	WORD_OFF	n/a	n/a	BULL	FarmAnimals	5	2	[0, 0, 0]	n/a	catFR1	2	R1659A
412.54	1.61	426394	WORD	n/a	wordpools/wordpool_categorized_EN.txt	ROOSTER	FarmAnimals	6	2	[0, 0, 0]	n/a	catFR1	2	R1659A
414.15	0.831	428003	WORD_OFF	n/a	n/a	ROOSTER	FarmAnimals	6	2	[0, 0, 0]	n/a	catFR1	2	R1659A
414.981	1.6	428841	WORD	n/a	wordpools/wordpool_categorized_EN.txt	BATHROOM	Building	7	2	[0, 0, 0]	n/a	catFR1	2	R1659A
416.581	0.892	430439	WORD_OFF	n/a	n/a	BATHROOM	Building	7	2	[0, 0, 0]	n/a	catFR1	2	R1659A
417.473	1.6	431332	WORD	n/a	wordpools/wordpool_categorized_EN.txt	ROOM	Building	8	2	[0, 0, 0]	n/a	catFR1	2	R1659A
419.073	0.975	432930	WORD_OFF	n/a	n/a	ROOM	Building	8	2	[0, 0, 0]	n/a	catFR1	2	R1659A
420.048	1.61	433906	WORD	n/a	wordpools/wordpool_categorized_EN.txt	ORANGUTAN	Zoo	9	2	[0, 0, 0]	n/a	catFR1	2	R1659A
421.658	0.974	435520	WORD_OFF	n/a	n/a	ORANGUTAN	Zoo	9	2	[0, 0, 0]	n/a	catFR1	2	R1659A
422.632	1.606	436490	WORD	n/a	wordpools/wordpool_categorized_EN.txt	ELEPHANT	Zoo	10	2	[0, 0, 0]	n/a	catFR1	2	R1659A
424.238	0.953	438099	WORD_OFF	n/a	n/a	ELEPHANT	Zoo	10	2	[0, 0, 0]	n/a	catFR1	2	R1659A
425.191	1.606	439047	WORD	n/a	wordpools/wordpool_categorized_EN.txt	LAMB	FarmAnimals	11	2	[0, 0, 0]	n/a	catFR1	2	R1659A
426.797	0.933	440657	WORD_OFF	n/a	n/a	LAMB	FarmAnimals	11	2	[0, 0, 0]	n/a	catFR1	2	R1659A
427.73	1.601	441582	WORD	n/a	wordpools/wordpool_categorized_EN.txt	GOAT	FarmAnimals	12	2	[0, 0, 0]	n/a	catFR1	2	R1659A
429.331	0.0	443189	PROB	2.891	n/a	n/a	n/a	-999	2	[6, 5, 1]	12.0	catFR1	2	R1659A
429.33	0.007	443192	WORD_OFF	n/a	n/a	GOAT	FarmAnimals	12	2	[0, 0, 0]	n/a	catFR1	2	R1659A
429.337	0.0	443192	ENCODING_END	n/a	n/a	n/a	n/a	-999	2	[0, 0, 0]	n/a	catFR1	2	R1659A
429.337	0.0	443192	DISTRACT_START	n/a	n/a	n/a	n/a	-999	2	[0, 0, 0]	n/a	catFR1	2	R1659A
429.337	2.894	443195	START	n/a	n/a	n/a	n/a	-999	2	[-999, -999, -999]	n/a	catFR1	2	R1659A
432.231	2.209	446089	PROB	2.2	n/a	n/a	n/a	-999	2	[7, 2, 1]	10.0	catFR1	2	R1659A
434.44	4.042	448298	PROB	4.033	n/a	n/a	n/a	-999	2	[6, 1, 7]	14.0	catFR1	2	R1659A
438.482	4.508	452340	PROB	4.5	n/a	n/a	n/a	-999	2	[8, 7, 7]	24.0	catFR1	2	R1659A
442.99	4.4	456848	PROB	4.392	n/a	n/a	n/a	-999	2	[5, 5, 6]	16.0	catFR1	2	R1659A
447.39	4.792	461248	PROB	4.782	n/a	n/a	n/a	-999	2	[7, 7, 5]	19.0	catFR1	2	R1659A
452.182	0.0	466040	STOP	n/a	n/a	n/a	n/a	-999	2	[-999, -999, -999]	n/a	catFR1	2	R1659A
452.182	2.156	466041	DISTRACT_END	n/a	n/a	n/a	n/a	-999	2	[0, 0, 0]	n/a	catFR1	2	R1659A
454.338	0.835	468201	REC_START	n/a	n/a	n/a	n/a	-999	2	[0, 0, 0]	n/a	catFR1	2	R1659A
455.173	1.605	469031	REC_WORD	0.835	n/a	ROOF	Building	1	2	[0, 0, 0]	n/a	catFR1	2	R1659A
456.778	3.28	470636	REC_WORD	2.44	n/a	ATTIC	Building	-999	2	[0, 0, 0]	n/a	catFR1	2	R1659A
460.058	0.711	473916	REC_WORD	5.72	n/a	ELEPHANT	Zoo	10	2	[0, 0, 0]	n/a	catFR1	2	R1659A
460.769	9.7	474627	REC_WORD	6.431	n/a	ORANGUTAN	Zoo	9	2	[0, 0, 0]	n/a	catFR1	2	R1659A
470.469	3.79	484327	REC_WORD	16.131	n/a	ROOF	Building	1	2	[0, 0, 0]	n/a	catFR1	2	R1659A
474.259	10.215	488117	REC_WORD	19.921	n/a	ROOM	Building	8	2	[0, 0, 0]	n/a	catFR1	2	R1659A
484.474	1.632	498336	REC_END	n/a	n/a	n/a	n/a	-999	2	[0, 0, 0]	n/a	catFR1	2	R1659A
486.106	10.342	499967	COUNTDOWN_START	n/a	n/a	n/a	n/a	-999	3	[0, 0, 0]	n/a	catFR1	2	R1659A
496.448	0.0	510306	COUNTDOWN_END	n/a	n/a	n/a	n/a	-999	3	[0, 0, 0]	n/a	catFR1	2	R1659A
496.448	2.282	510306	ENCODING_START	n/a	n/a	n/a	n/a	-999	3	[0, 0, 0]	n/a	catFR1	2	R1659A
498.73	1.601	512588	WORD	n/a	wordpools/wordpool_categorized_EN.txt	TOE	BodyParts	1	3	[0, 0, 0]	n/a	catFR1	2	R1659A
500.331	0.784	514186	WORD_OFF	n/a	n/a	TOE	BodyParts	1	3	[0, 0, 0]	n/a	catFR1	2	R1659A
501.115	1.601	514968	WORD	n/a	wordpools/wordpool_categorized_EN.txt	HEAD	BodyParts	2	3	[0, 0, 0]	n/a	catFR1	2	R1659A
502.716	0.824	516578	WORD_OFF	n/a	n/a	HEAD	BodyParts	2	3	[0, 0, 0]	n/a	catFR1	2	R1659A
503.54	1.6	517393	WORD	n/a	wordpools/wordpool_categorized_EN.txt	CHEESECAKE	Desserts	3	3	[0, 0, 0]	n/a	catFR1	2	R1659A
505.14	0.992	519003	WORD_OFF	n/a	n/a	CHEESECAKE	Desserts	3	3	[0, 0, 0]	n/a	catFR1	2	R1659A
506.132	1.609	519995	WORD	n/a	wordpools/wordpool_categorized_EN.txt	JELLO	Desserts	4	3	[0, 0, 0]	n/a	catFR1	2	R1659A
507.741	0.933	521593	WORD_OFF	n/a	n/a	JELLO	Desserts	4	3	[0, 0, 0]	n/a	catFR1	2	R1659A
508.674	1.6	522530	WORD	n/a	wordpools/wordpool_categorized_EN.txt	SEAGULL	Birds	5	3	[0, 0, 0]	n/a	catFR1	2	R1659A
510.274	0.773	524128	WORD_OFF	n/a	n/a	SEAGULL	Birds	5	3	[0, 0, 0]	n/a	catFR1	2	R1659A
511.047	1.602	524899	WORD	n/a	wordpools/wordpool_categorized_EN.txt	DUCK	Birds	6	3	[0, 0, 0]	n/a	catFR1	2	R1659A
512.649	0.831	526509	WORD_OFF	n/a	n/a	DUCK	Birds	6	3	[0, 0, 0]	n/a	catFR1	2	R1659A
513.48	1.6	527335	WORD	n/a	wordpools/wordpool_categorized_EN.txt	KNEE	BodyParts	7	3	[0, 0, 0]	n/a	catFR1	2	R1659A
515.08	0.892	528934	WORD_OFF	n/a	n/a	KNEE	BodyParts	7	3	[0, 0, 0]	n/a	catFR1	2	R1659A
515.972	1.6	529826	WORD	n/a	wordpools/wordpool_categorized_EN.txt	EYE	BodyParts	8	3	[0, 0, 0]	n/a	catFR1	2	R1659A
517.572	0.785	531425	WORD_OFF	n/a	n/a	EYE	BodyParts	8	3	[0, 0, 0]	n/a	catFR1	2	R1659A
518.357	1.608	532218	WORD	n/a	wordpools/wordpool_categorized_EN.txt	ROBIN	Birds	9	3	[0, 0, 0]	n/a	catFR1	2	R1659A
519.965	0.776	533827	WORD_OFF	n/a	n/a	ROBIN	Birds	9	3	[0, 0, 0]	n/a	catFR1	2	R1659A
520.741	1.606	534599	WORD	n/a	wordpools/wordpool_categorized_EN.txt	DOVE	Birds	10	3	[0, 0, 0]	n/a	catFR1	2	R1659A
522.347	0.925	536208	WORD_OFF	n/a	n/a	DOVE	Birds	10	3	[0, 0, 0]	n/a	catFR1	2	R1659A
523.272	1.6	537123	WORD	n/a	wordpools/wordpool_categorized_EN.txt	PIE	Desserts	11	3	[0, 0, 0]	n/a	catFR1	2	R1659A
524.872	0.8	538732	WORD_OFF	n/a	n/a	PIE	Desserts	11	3	[0, 0, 0]	n/a	catFR1	2	R1659A
525.672	1.604	539526	WORD	n/a	wordpools/wordpool_categorized_EN.txt	FUDGE	Desserts	12	3	[0, 0, 0]	n/a	catFR1	2	R1659A
527.276	0.0	541134	PROB	4.058	n/a	n/a	n/a	-999	3	[2, 2, 8]	2.0	catFR1	2	R1659A
527.274	0.004	541135	WORD_OFF	n/a	n/a	FUDGE	Desserts	12	3	[0, 0, 0]	n/a	catFR1	2	R1659A
527.278	0.0	541135	ENCODING_END	n/a	n/a	n/a	n/a	-999	3	[0, 0, 0]	n/a	catFR1	2	R1659A
527.278	0.0	541135	DISTRACT_START	n/a	n/a	n/a	n/a	-999	3	[0, 0, 0]	n/a	catFR1	2	R1659A
527.278	4.064	541136	START	n/a	n/a	n/a	n/a	-999	3	[-999, -999, -999]	n/a	catFR1	2	R1659A
531.342	16.763	545200	PROB	16.758	n/a	n/a	n/a	-999	3	[8, 7, 4]	19.0	catFR1	2	R1659A
548.105	0.0	561956	DISTRACT_END	n/a	n/a	n/a	n/a	-999	3	[0, 0, 0]	n/a	catFR1	2	R1659A
548.105	2.218	561963	STOP	n/a	n/a	n/a	n/a	-999	3	[-999, -999, -999]	n/a	catFR1	2	R1659A
550.323	0.68	564183	REC_START	n/a	n/a	n/a	n/a	-999	3	[0, 0, 0]	n/a	catFR1	2	R1659A
551.003	29.469	564861	REC_WORD	0.68	n/a	TOE	BodyParts	1	3	[0, 0, 0]	n/a	catFR1	2	R1659A
580.472	1.694	594328	REC_END	n/a	n/a	n/a	n/a	-999	3	[0, 0, 0]	n/a	catFR1	2	R1659A
582.166	10.341	596026	COUNTDOWN_START	n/a	n/a	n/a	n/a	-999	4	[0, 0, 0]	n/a	catFR1	2	R1659A
592.507	0.001	606365	COUNTDOWN_END	n/a	n/a	n/a	n/a	-999	4	[0, 0, 0]	n/a	catFR1	2	R1659A
592.508	2.214	606365	ENCODING_START	n/a	n/a	n/a	n/a	-999	4	[0, 0, 0]	n/a	catFR1	2	R1659A
594.722	1.601	608580	WORD	n/a	wordpools/wordpool_categorized_EN.txt	CABINET	Furniture	1	4	[0, 0, 0]	n/a	catFR1	2	R1659A
596.323	0.8	610178	WORD_OFF	n/a	n/a	CABINET	Furniture	1	4	[0, 0, 0]	n/a	catFR1	2	R1659A
597.123	1.601	610983	WORD	n/a	wordpools/wordpool_categorized_EN.txt	COUCH	Furniture	2	4	[0, 0, 0]	n/a	catFR1	2	R1659A
598.724	0.765	612581	WORD_OFF	n/a	n/a	COUCH	Furniture	2	4	[0, 0, 0]	n/a	catFR1	2	R1659A
599.489	1.602	613342	WORD	n/a	wordpools/wordpool_categorized_EN.txt	ERASER	OfficeSupplies	3	4	[0, 0, 0]	n/a	catFR1	2	R1659A
601.091	0.898	614951	WORD_OFF	n/a	n/a	ERASER	OfficeSupplies	3	4	[0, 0, 0]	n/a	catFR1	2	R1659A
601.989	1.6	615844	WORD	n/a	wordpools/wordpool_categorized_EN.txt	BINDER	OfficeSupplies	4	4	[0, 0, 0]	n/a	catFR1	2	R1659A
603.589	0.933	617442	WORD_OFF	n/a	n/a	BINDER	OfficeSupplies	4	4	[0, 0, 0]	n/a	catFR1	2	R1659A
604.522	1.602	618379	WORD	n/a	wordpools/wordpool_categorized_EN.txt	BIRCH	Trees	5	4	[0, 0, 0]	n/a	catFR1	2	R1659A
606.124	0.891	619977	WORD_OFF	n/a	n/a	BIRCH	Trees	5	4	[0, 0, 0]	n/a	catFR1	2	R1659A
607.015	1.6	620870	WORD	n/a	wordpools/wordpool_categorized_EN.txt	OAK	Trees	6	4	[0, 0, 0]	n/a	catFR1	2	R1659A
608.615	0.815	622468	WORD_OFF	n/a	n/a	OAK	Trees	6	4	[0, 0, 0]	n/a	catFR1	2	R1659A
609.43	1.602	623284	WORD	n/a	wordpools/wordpool_categorized_EN.txt	PENCIL	OfficeSupplies	7	4	[0, 0, 0]	n/a	catFR1	2	R1659A
611.032	0.967	624893	WORD_OFF	n/a	n/a	PENCIL	OfficeSupplies	7	4	[0, 0, 0]	n/a	catFR1	2	R1659A
611.999	1.607	625852	WORD	n/a	wordpools/wordpool_categorized_EN.txt	NOTEBOOK	OfficeSupplies	8	4	[0, 0, 0]	n/a	catFR1	2	R1659A
613.606	0.958	627461	WORD_OFF	n/a	n/a	NOTEBOOK	OfficeSupplies	8	4	[0, 0, 0]	n/a	catFR1	2	R1659A
614.564	1.6	628420	WORD	n/a	wordpools/wordpool_categorized_EN.txt	NIGHTSTAND	Furniture	9	4	[0, 0, 0]	n/a	catFR1	2	R1659A
616.164	0.908	630018	WORD_OFF	n/a	n/a	NIGHTSTAND	Furniture	9	4	[0, 0, 0]	n/a	catFR1	2	R1659A
617.072	1.6	630933	WORD	n/a	wordpools/wordpool_categorized_EN.txt	BOOKCASE	Furniture	10	4	[0, 0, 0]	n/a	catFR1	2	R1659A
618.672	0.935	632531	WORD_OFF	n/a	n/a	BOOKCASE	Furniture	10	4	[0, 0, 0]	n/a	catFR1	2	R1659A
619.607	1.609	633468	WORD	n/a	wordpools/wordpool_categorized_EN.txt	SPRUCE	Trees	11	4	[0, 0, 0]	n/a	catFR1	2	R1659A
621.216	0.907	635077	WORD_OFF	n/a	n/a	SPRUCE	Trees	11	4	[0, 0, 0]	n/a	catFR1	2	R1659A
622.123	1.609	635981	WORD	n/a	wordpools/wordpool_categorized_EN.txt	WALNUT	Trees	12	4	[0, 0, 0]	n/a	catFR1	2	R1659A
623.732	0.001	637589	PROB	3.558	n/a	n/a	n/a	-999	4	[3, 4, 7]	14.0	catFR1	2	R1659A
623.733	0.0	637590	START	n/a	n/a	n/a	n/a	-999	4	[-999, -999, -999]	n/a	catFR1	2	R1659A
623.731	0.002	637591	WORD_OFF	n/a	n/a	WALNUT	Trees	12	4	[0, 0, 0]	n/a	catFR1	2	R1659A
623.733	0.0	637591	ENCODING_END	n/a	n/a	n/a	n/a	-999	4	[0, 0, 0]	n/a	catFR1	2	R1659A
623.733	3.565	637591	DISTRACT_START	n/a	n/a	n/a	n/a	-999	4	[0, 0, 0]	n/a	catFR1	2	R1659A
627.298	4.01	641155	PROB	3.999	n/a	n/a	n/a	-999	4	[5, 3, 8]	16.0	catFR1	2	R1659A
631.308	6.416	645165	PROB	6.408	n/a	n/a	n/a	-999	4	[7, 8, 3]	18.0	catFR1	2	R1659A
637.724	2.614	651581	PROB	2.609	n/a	n/a	n/a	-999	4	[4, 3, 8]	15.0	catFR1	2	R1659A
640.338	3.135	654195	PROB	3.125	n/a	n/a	n/a	-999	4	[5, 8, 2]	15.0	catFR1	2	R1659A
643.473	3.616	657330	PROB	3.608	n/a	n/a	n/a	-999	4	[6, 2, 5]	13.0	catFR1	2	R1659A
647.089	0.0	660946	STOP	n/a	n/a	n/a	n/a	-999	4	[-999, -999, -999]	n/a	catFR1	2	R1659A
647.089	2.135	660947	DISTRACT_END	n/a	n/a	n/a	n/a	-999	4	[0, 0, 0]	n/a	catFR1	2	R1659A
649.224	0.345	663085	REC_START	n/a	n/a	n/a	n/a	-999	4	[0, 0, 0]	n/a	catFR1	2	R1659A
649.569	1.125	663426	REC_WORD	0.345	n/a	SPRUCE	Trees	11	4	[0, 0, 0]	n/a	catFR1	2	R1659A
650.694	9.346	664551	REC_WORD	1.47	n/a	BOOKCASE	Furniture	10	4	[0, 0, 0]	n/a	catFR1	2	R1659A
660.04	12.289	673897	REC_WORD	10.816	n/a	CABINET	Furniture	1	4	[0, 0, 0]	n/a	catFR1	2	R1659A
672.329	7.036	686186	REC_WORD	23.105	n/a	WALNUT	Trees	12	4	[0, 0, 0]	n/a	catFR1	2	R1659A
679.365	1.683	693220	REC_END	n/a	n/a	n/a	n/a	-999	4	[0, 0, 0]	n/a	catFR1	2	R1659A
681.048	10.341	694906	COUNTDOWN_START	n/a	n/a	n/a	n/a	-999	5	[0, 0, 0]	n/a	catFR1	2	R1659A
691.389	0.0	705245	COUNTDOWN_END	n/a	n/a	n/a	n/a	-999	5	[0, 0, 0]	n/a	catFR1	2	R1659A
691.389	2.06	705245	ENCODING_START	n/a	n/a	n/a	n/a	-999	5	[0, 0, 0]	n/a	catFR1	2	R1659A
693.449	1.6	707306	WORD	n/a	wordpools/wordpool_categorized_EN.txt	PEACH	Fruit	1	5	[0, 0, 0]	n/a	catFR1	2	R1659A
695.049	0.808	708904	WORD_OFF	n/a	n/a	PEACH	Fruit	1	5	[0, 0, 0]	n/a	catFR1	2	R1659A
695.857	1.607	709709	WORD	n/a	wordpools/wordpool_categorized_EN.txt	CHERRY	Fruit	2	5	[0, 0, 0]	n/a	catFR1	2	R1659A
697.464	0.935	711318	WORD_OFF	n/a	n/a	CHERRY	Fruit	2	5	[0, 0, 0]	n/a	catFR1	2	R1659A
698.399	1.6	712255	WORD	n/a	wordpools/wordpool_categorized_EN.txt	FLY	Insects	3	5	[0, 0, 0]	n/a	catFR1	2	R1659A
699.999	0.891	713853	WORD_OFF	n/a	n/a	FLY	Insects	3	5	[0, 0, 0]	n/a	catFR1	2	R1659A
700.89	1.608	714746	WORD	n/a	wordpools/wordpool_categorized_EN.txt	GNAT	Insects	4	5	[0, 0, 0]	n/a	catFR1	2	R1659A
702.498	0.851	716355	WORD_OFF	n/a	n/a	GNAT	Insects	4	5	[0, 0, 0]	n/a	catFR1	2	R1659A
703.349	1.607	717204	WORD	n/a	wordpools/wordpool_categorized_EN.txt	STREAM	Landscapes	5	5	[0, 0, 0]	n/a	catFR1	2	R1659A
704.956	0.933	718813	WORD_OFF	n/a	n/a	STREAM	Landscapes	5	5	[0, 0, 0]	n/a	catFR1	2	R1659A
705.889	1.61	719750	WORD	n/a	wordpools/wordpool_categorized_EN.txt	LAKE	Landscapes	6	5	[0, 0, 0]	n/a	catFR1	2	R1659A
707.499	0.909	721359	WORD_OFF	n/a	n/a	LAKE	Landscapes	6	5	[0, 0, 0]	n/a	catFR1	2	R1659A
708.408	1.599	722263	WORD	n/a	wordpools/wordpool_categorized_EN.txt	LADYBUG	Insects	7	5	[0, 0, 0]	n/a	catFR1	2	R1659A
710.007	0.775	723861	WORD_OFF	n/a	n/a	LADYBUG	Insects	7	5	[0, 0, 0]	n/a	catFR1	2	R1659A
710.782	1.599	724633	WORD	n/a	wordpools/wordpool_categorized_EN.txt	MOTH	Insects	8	5	[0, 0, 0]	n/a	catFR1	2	R1659A
712.381	0.876	726242	WORD_OFF	n/a	n/a	MOTH	Insects	8	5	[0, 0, 0]	n/a	catFR1	2	R1659A
713.257	1.607	727113	WORD	n/a	wordpools/wordpool_categorized_EN.txt	PEAR	Fruit	9	5	[0, 0, 0]	n/a	catFR1	2	R1659A
714.864	0.85	728722	WORD_OFF	n/a	n/a	PEAR	Fruit	9	5	[0, 0, 0]	n/a	catFR1	2	R1659A
715.714	1.601	729571	WORD	n/a	wordpools/wordpool_categorized_EN.txt	BANANA	Fruit	10	5	[0, 0, 0]	n/a	catFR1	2	R1659A
717.315	0.834	731169	WORD_OFF	n/a	n/a	BANANA	Fruit	10	5	[0, 0, 0]	n/a	catFR1	2	R1659A
718.149	1.608	732007	WORD	n/a	wordpools/wordpool_categorized_EN.txt	RIVER	Landscapes	11	5	[0, 0, 0]	n/a	catFR1	2	R1659A
719.757	0.79	733616	WORD_OFF	n/a	n/a	RIVER	Landscapes	11	5	[0, 0, 0]	n/a	catFR1	2	R1659A
720.547	1.601	734399	WORD	n/a	wordpools/wordpool_categorized_EN.txt	CREEK	Landscapes	12	5	[0, 0, 0]	n/a	catFR1	2	R1659A
722.148	0.0	736005	PROB	3.707	n/a	n/a	n/a	-999	5	[5, 8, 2]	15.0	catFR1	2	R1659A
722.148	0.004	736008	WORD_OFF	n/a	n/a	CREEK	Landscapes	12	5	[0, 0, 0]	n/a	catFR1	2	R1659A
722.152	0.0	736008	ENCODING_END	n/a	n/a	n/a	n/a	-999	5	[0, 0, 0]	n/a	catFR1	2	R1659A
722.152	0.0	736008	DISTRACT_START	n/a	n/a	n/a	n/a	-999	5	[0, 0, 0]	n/a	catFR1	2	R1659A
722.152	3.712	736009	START	n/a	n/a	n/a	n/a	-999	5	[-999, -999, -999]	n/a	catFR1	2	R1659A
725.864	6.642	739721	PROB	6.633	n/a	n/a	n/a	-999	5	[7, 6, 8]	21.0	catFR1	2	R1659A
732.506	6.309	746363	PROB	6.299	n/a	n/a	n/a	-999	5	[4, 8, 5]	17.0	catFR1	2	R1659A
738.815	8.35	752672	PROB	8.34	n/a	n/a	n/a	-999	5	[2, 4, 1]	8.0	catFR1	2	R1659A
747.165	0.0	761017	DISTRACT_END	n/a	n/a	n/a	n/a	-999	5	[0, 0, 0]	n/a	catFR1	2	R1659A
747.165	2.226	761022	STOP	n/a	n/a	n/a	n/a	-999	5	[-999, -999, -999]	n/a	catFR1	2	R1659A
749.391	2.005	763244	REC_START	n/a	n/a	n/a	n/a	-999	5	[0, 0, 0]	n/a	catFR1	2	R1659A
751.396	0.786	765253	REC_WORD	2.005	n/a	GNAT	Insects	4	5	[0, 0, 0]	n/a	catFR1	2	R1659A
752.182	1.615	766039	REC_WORD	2.791	n/a	FLY	Insects	3	5	[0, 0, 0]	n/a	catFR1	2	R1659A
753.797	0.636	767654	REC_WORD	4.406	n/a	PEACH	Fruit	1	5	[0, 0, 0]	n/a	catFR1	2	R1659A
754.433	25.1	768290	REC_WORD_VV	5.042	n/a	<>	n/a	-999	5	[0, 0, 0]	n/a	catFR1	2	R1659A
779.533	2.389	793390	REC_END	n/a	n/a	n/a	n/a	-999	5	[0, 0, 0]	n/a	catFR1	2	R1659A
781.922	10.336	795781	COUNTDOWN_START	n/a	n/a	n/a	n/a	-999	6	[0, 0, 0]	n/a	catFR1	2	R1659A
792.258	0.0	806109	COUNTDOWN_END	n/a	n/a	n/a	n/a	-999	6	[0, 0, 0]	n/a	catFR1	2	R1659A
792.258	2.215	806120	ENCODING_START	n/a	n/a	n/a	n/a	-999	6	[0, 0, 0]	n/a	catFR1	2	R1659A
794.473	1.601	808325	WORD	n/a	wordpools/wordpool_categorized_EN.txt	BEAR	Zoo	1	6	[0, 0, 0]	n/a	catFR1	2	R1659A
796.074	0.982	809934	WORD_OFF	n/a	n/a	BEAR	Zoo	1	6	[0, 0, 0]	n/a	catFR1	2	R1659A
797.056	1.599	810915	WORD	n/a	wordpools/wordpool_categorized_EN.txt	CHIMPANZEE	Zoo	2	6	[0, 0, 0]	n/a	catFR1	2	R1659A
798.655	0.934	812513	WORD_OFF	n/a	n/a	CHIMPANZEE	Zoo	2	6	[0, 0, 0]	n/a	catFR1	2	R1659A
799.589	1.61	813450	WORD	n/a	wordpools/wordpool_categorized_EN.txt	COW	FarmAnimals	3	6	[0, 0, 0]	n/a	catFR1	2	R1659A
801.199	0.867	815059	WORD_OFF	n/a	n/a	COW	FarmAnimals	3	6	[0, 0, 0]	n/a	catFR1	2	R1659A
802.066	1.606	815919	WORD	n/a	wordpools/wordpool_categorized_EN.txt	TURKEY	FarmAnimals	4	6	[0, 0, 0]	n/a	catFR1	2	R1659A
803.672	0.919	817528	WORD_OFF	n/a	n/a	TURKEY	FarmAnimals	4	6	[0, 0, 0]	n/a	catFR1	2	R1659A
804.591	1.606	818443	WORD	n/a	wordpools/wordpool_categorized_EN.txt	CUPCAKE	Desserts	5	6	[0, 0, 0]	n/a	catFR1	2	R1659A
806.197	0.81	820052	WORD_OFF	n/a	n/a	CUPCAKE	Desserts	5	6	[0, 0, 0]	n/a	catFR1	2	R1659A
807.007	1.609	820868	WORD	n/a	wordpools/wordpool_categorized_EN.txt	MOUSSE	Desserts	6	6	[0, 0, 0]	n/a	catFR1	2	R1659A
808.616	0.806	822466	WORD_OFF	n/a	n/a	MOUSSE	Desserts	6	6	[0, 0, 0]	n/a	catFR1	2	R1659A
809.422	1.601	823282	WORD	n/a	wordpools/wordpool_categorized_EN.txt	HEN	FarmAnimals	7	6	[0, 0, 0]	n/a	catFR1	2	R1659A
811.023	0.892	824880	WORD_OFF	n/a	n/a	HEN	FarmAnimals	7	6	[0, 0, 0]	n/a	catFR1	2	R1659A
811.915	1.609	825773	WORD	n/a	wordpools/wordpool_categorized_EN.txt	CHICKEN	FarmAnimals	8	6	[0, 0, 0]	n/a	catFR1	2	R1659A
813.524	0.974	827382	WORD_OFF	n/a	n/a	CHICKEN	FarmAnimals	8	6	[0, 0, 0]	n/a	catFR1	2	R1659A
814.498	1.6	828352	WORD	n/a	wordpools/wordpool_categorized_EN.txt	COOKIE	Desserts	9	6	[0, 0, 0]	n/a	catFR1	2	R1659A
816.098	0.759	829950	WORD_OFF	n/a	n/a	COOKIE	Desserts	9	6	[0, 0, 0]	n/a	catFR1	2	R1659A
816.857	1.607	830711	WORD	n/a	wordpools/wordpool_categorized_EN.txt	CAKE	Desserts	10	6	[0, 0, 0]	n/a	catFR1	2	R1659A
818.464	0.976	832320	WORD_OFF	n/a	n/a	CAKE	Desserts	10	6	[0, 0, 0]	n/a	catFR1	2	R1659A
819.44	1.608	833301	WORD	n/a	wordpools/wordpool_categorized_EN.txt	CHEETAH	Zoo	11	6	[0, 0, 0]	n/a	catFR1	2	R1659A
821.048	0.759	834899	WORD_OFF	n/a	n/a	CHEETAH	Zoo	11	6	[0, 0, 0]	n/a	catFR1	2	R1659A
821.807	1.6	835660	WORD	n/a	wordpools/wordpool_categorized_EN.txt	ZEBRA	Zoo	12	6	[0, 0, 0]	n/a	catFR1	2	R1659A
823.407	0.004	837264	PROB	2.94	n/a	n/a	n/a	-999	6	[8, 2, 6]	16.0	catFR1	2	R1659A
823.411	0.0	837268	START	n/a	n/a	n/a	n/a	-999	6	[-999, -999, -999]	n/a	catFR1	2	R1659A
823.408	0.003	837269	WORD_OFF	n/a	n/a	ZEBRA	Zoo	12	6	[0, 0, 0]	n/a	catFR1	2	R1659A
823.411	0.0	837269	ENCODING_END	n/a	n/a	n/a	n/a	-999	6	[0, 0, 0]	n/a	catFR1	2	R1659A
823.411	2.945	837269	DISTRACT_START	n/a	n/a	n/a	n/a	-999	6	[0, 0, 0]	n/a	catFR1	2	R1659A
826.356	3.484	840213	PROB	3.474	n/a	n/a	n/a	-999	6	[4, 2, 5]	11.0	catFR1	2	R1659A
829.84	4.067	843697	PROB	4.057	n/a	n/a	n/a	-999	6	[2, 6, 5]	13.0	catFR1	2	R1659A
833.907	4.866	847764	PROB	4.857	n/a	n/a	n/a	-999	6	[3, 2, 4]	9.0	catFR1	2	R1659A
838.773	2.959	852630	PROB	2.949	n/a	n/a	n/a	-999	6	[8, 7, 3]	18.0	catFR1	2	R1659A
841.732	3.191	855589	PROB	3.182	n/a	n/a	n/a	-999	6	[8, 2, 7]	17.0	catFR1	2	R1659A
844.923	0.0	858773	DISTRACT_END	n/a	n/a	n/a	n/a	-999	6	[0, 0, 0]	n/a	catFR1	2	R1659A
844.923	2.384	858780	STOP	n/a	n/a	n/a	n/a	-999	6	[-999, -999, -999]	n/a	catFR1	2	R1659A
847.307	0.348	861165	REC_START	n/a	n/a	n/a	n/a	-999	6	[0, 0, 0]	n/a	catFR1	2	R1659A
847.655	1.486	861512	REC_WORD	0.348	n/a	CHEETAH	Zoo	11	6	[0, 0, 0]	n/a	catFR1	2	R1659A
849.141	0.975	862998	REC_WORD	1.834	n/a	CHICKEN	FarmAnimals	8	6	[0, 0, 0]	n/a	catFR1	2	R1659A
850.116	2.252	863973	REC_WORD	2.809	n/a	HEN	FarmAnimals	7	6	[0, 0, 0]	n/a	catFR1	2	R1659A
852.368	10.476	866225	REC_WORD	5.061	n/a	COOKIE	Desserts	9	6	[0, 0, 0]	n/a	catFR1	2	R1659A
862.844	14.606	876701	REC_WORD	15.537	n/a	BEAR	Zoo	1	6	[0, 0, 0]	n/a	catFR1	2	R1659A
877.45	1.622	891300	REC_END	n/a	n/a	n/a	n/a	-999	6	[0, 0, 0]	n/a	catFR1	2	R1659A
879.072	10.342	892931	COUNTDOWN_START	n/a	n/a	n/a	n/a	-999	7	[0, 0, 0]	n/a	catFR1	2	R1659A
889.414	0.0	903270	COUNTDOWN_END	n/a	n/a	n/a	n/a	-999	7	[0, 0, 0]	n/a	catFR1	2	R1659A
889.414	2.318	903270	ENCODING_START	n/a	n/a	n/a	n/a	-999	7	[0, 0, 0]	n/a	catFR1	2	R1659A
891.732	1.608	905585	WORD	n/a	wordpools/wordpool_categorized_EN.txt	HUMIDITY	Weather	1	7	[0, 0, 0]	n/a	catFR1	2	R1659A
893.34	0.984	907194	WORD_OFF	n/a	n/a	HUMIDITY	Weather	1	7	[0, 0, 0]	n/a	catFR1	2	R1659A
894.324	1.608	908175	WORD	n/a	wordpools/wordpool_categorized_EN.txt	CLOUD	Weather	2	7	[0, 0, 0]	n/a	catFR1	2	R1659A
895.932	0.982	909784	WORD_OFF	n/a	n/a	CLOUD	Weather	2	7	[0, 0, 0]	n/a	catFR1	2	R1659A
896.914	1.602	910765	WORD	n/a	wordpools/wordpool_categorized_EN.txt	FOREST	Landscapes	3	7	[0, 0, 0]	n/a	catFR1	2	R1659A
898.516	0.781	912374	WORD_OFF	n/a	n/a	FOREST	Landscapes	3	7	[0, 0, 0]	n/a	catFR1	2	R1659A
899.297	1.602	913157	WORD	n/a	wordpools/wordpool_categorized_EN.txt	HILLS	Landscapes	4	7	[0, 0, 0]	n/a	catFR1	2	R1659A
900.899	0.883	914755	WORD_OFF	n/a	n/a	HILLS	Landscapes	4	7	[0, 0, 0]	n/a	catFR1	2	R1659A
901.782	1.6	915637	WORD	n/a	wordpools/wordpool_categorized_EN.txt	SPOON	KitchenTools	5	7	[0, 0, 0]	n/a	catFR1	2	R1659A
903.382	0.767	917235	WORD_OFF	n/a	n/a	SPOON	KitchenTools	5	7	[0, 0, 0]	n/a	catFR1	2	R1659A
904.149	1.608	918007	WORD	n/a	wordpools/wordpool_categorized_EN.txt	LADLE	KitchenTools	6	7	[0, 0, 0]	n/a	catFR1	2	R1659A
905.757	0.757	919616	WORD_OFF	n/a	n/a	LADLE	KitchenTools	6	7	[0, 0, 0]	n/a	catFR1	2	R1659A
906.514	1.602	920365	WORD	n/a	wordpools/wordpool_categorized_EN.txt	DRIZZLE	Weather	7	7	[0, 0, 0]	n/a	catFR1	2	R1659A
908.116	0.924	921975	WORD_OFF	n/a	n/a	DRIZZLE	Weather	7	7	[0, 0, 0]	n/a	catFR1	2	R1659A
909.04	1.601	922901	WORD	n/a	wordpools/wordpool_categorized_EN.txt	WIND	Weather	8	7	[0, 0, 0]	n/a	catFR1	2	R1659A
910.641	0.99	924499	WORD_OFF	n/a	n/a	WIND	Weather	8	7	[0, 0, 0]	n/a	catFR1	2	R1659A
911.631	1.608	925491	WORD	n/a	wordpools/wordpool_categorized_EN.txt	VALLEY	Landscapes	9	7	[0, 0, 0]	n/a	catFR1	2	R1659A
913.239	0.802	927089	WORD_OFF	n/a	n/a	VALLEY	Landscapes	9	7	[0, 0, 0]	n/a	catFR1	2	R1659A
914.041	1.607	927894	WORD	n/a	wordpools/wordpool_categorized_EN.txt	OCEAN	Landscapes	10	7	[0, 0, 0]	n/a	catFR1	2	R1659A
915.648	0.959	929503	WORD_OFF	n/a	n/a	OCEAN	Landscapes	10	7	[0, 0, 0]	n/a	catFR1	2	R1659A
916.607	1.6	930462	WORD	n/a	wordpools/wordpool_categorized_EN.txt	SPATULA	KitchenTools	11	7	[0, 0, 0]	n/a	catFR1	2	R1659A
918.207	0.825	932060	WORD_OFF	n/a	n/a	SPATULA	KitchenTools	11	7	[0, 0, 0]	n/a	catFR1	2	R1659A
919.032	1.607	932887	WORD	n/a	wordpools/wordpool_categorized_EN.txt	FORK	KitchenTools	12	7	[0, 0, 0]	n/a	catFR1	2	R1659A
920.639	0.001	934495	PROB	3.416	n/a	n/a	n/a	-999	7	[8, 4, 4]	16.0	catFR1	2	R1659A
920.64	0.002	934496	WORD_OFF	n/a	n/a	FORK	KitchenTools	12	7	[0, 0, 0]	n/a	catFR1	2	R1659A
920.642	0.0	934496	ENCODING_END	n/a	n/a	n/a	n/a	-999	7	[0, 0, 0]	n/a	catFR1	2	R1659A
920.642	0.0	934496	DISTRACT_START	n/a	n/a	n/a	n/a	-999	7	[0, 0, 0]	n/a	catFR1	2	R1659A
920.642	3.423	934498	START	n/a	n/a	n/a	n/a	-999	7	[-999, -999, -999]	n/a	catFR1	2	R1659A
924.065	5.116	937921	PROB	5.107	n/a	n/a	n/a	-999	7	[8, 8, 4]	20.0	catFR1	2	R1659A
929.181	6.368	943037	PROB	6.358	n/a	n/a	n/a	-999	7	[8, 7, 7]	24.0	catFR1	2	R1659A
935.549	8.206	949405	PROB	8.2	n/a	n/a	n/a	-999	7	[2, 2, 5]	9.0	catFR1	2	R1659A
943.755	0.0	957610	DISTRACT_END	n/a	n/a	n/a	n/a	-999	7	[0, 0, 0]	n/a	catFR1	2	R1659A
943.755	2.294	957611	STOP	n/a	n/a	n/a	n/a	-999	7	[-999, -999, -999]	n/a	catFR1	2	R1659A
946.049	1.403	959902	REC_START	n/a	n/a	n/a	n/a	-999	7	[0, 0, 0]	n/a	catFR1	2	R1659A
947.452	0.666	961308	REC_WORD	1.403	n/a	FORK	KitchenTools	12	7	[0, 0, 0]	n/a	catFR1	2	R1659A
948.118	4.25	961974	REC_WORD	2.069	n/a	SPATULA	KitchenTools	11	7	[0, 0, 0]	n/a	catFR1	2	R1659A
952.368	0.938	966224	REC_WORD	6.319	n/a	WIND	Weather	8	7	[0, 0, 0]	n/a	catFR1	2	R1659A
953.306	1.974	967162	REC_WORD	7.257	n/a	OCEAN	Landscapes	10	7	[0, 0, 0]	n/a	catFR1	2	R1659A
955.28	18.062	969136	REC_WORD	9.231	n/a	DRIZZLE	Weather	7	7	[0, 0, 0]	n/a	catFR1	2	R1659A
973.342	2.849	987198	REC_WORD	27.293	n/a	THUNDER	n/a	-999	7	[0, 0, 0]	n/a	catFR1	2	R1659A
976.191	2.191	990048	REC_END	n/a	n/a	n/a	n/a	-999	7	[0, 0, 0]	n/a	catFR1	2	R1659A
978.382	10.342	992241	COUNTDOWN_START	n/a	n/a	n/a	n/a	-999	8	[0, 0, 0]	n/a	catFR1	2	R1659A
988.724	0.001	1002580	COUNTDOWN_END	n/a	n/a	n/a	n/a	-999	8	[0, 0, 0]	n/a	catFR1	2	R1659A
988.725	2.181	1002580	ENCODING_START	n/a	n/a	n/a	n/a	-999	8	[0, 0, 0]	n/a	catFR1	2	R1659A
990.906	1.6	1004763	WORD	n/a	wordpools/wordpool_categorized_EN.txt	DAFFODIL	Flowers	1	8	[0, 0, 0]	n/a	catFR1	2	R1659A
992.506	0.967	1006361	WORD_OFF	n/a	n/a	DAFFODIL	Flowers	1	8	[0, 0, 0]	n/a	catFR1	2	R1659A
993.473	1.601	1007331	WORD	n/a	wordpools/wordpool_categorized_EN.txt	TULIP	Flowers	2	8	[0, 0, 0]	n/a	catFR1	2	R1659A
995.074	0.792	1008929	WORD_OFF	n/a	n/a	TULIP	Flowers	2	8	[0, 0, 0]	n/a	catFR1	2	R1659A
995.866	1.599	1009723	WORD	n/a	wordpools/wordpool_categorized_EN.txt	LEMON	Fruit	3	8	[0, 0, 0]	n/a	catFR1	2	R1659A
997.465	0.841	1011321	WORD_OFF	n/a	n/a	LEMON	Fruit	3	8	[0, 0, 0]	n/a	catFR1	2	R1659A
998.306	1.6	1012158	WORD	n/a	wordpools/wordpool_categorized_EN.txt	BLUEBERRY	Fruit	4	8	[0, 0, 0]	n/a	catFR1	2	R1659A
999.906	0.818	1013757	WORD_OFF	n/a	n/a	BLUEBERRY	Fruit	4	8	[0, 0, 0]	n/a	catFR1	2	R1659A
1000.724	1.608	1014583	WORD	n/a	wordpools/wordpool_categorized_EN.txt	GLUE	OfficeSupplies	5	8	[0, 0, 0]	n/a	catFR1	2	R1659A
1002.332	0.757	1016193	WORD_OFF	n/a	n/a	GLUE	OfficeSupplies	5	8	[0, 0, 0]	n/a	catFR1	2	R1659A
1003.089	1.6	1016942	WORD	n/a	wordpools/wordpool_categorized_EN.txt	TAPE	OfficeSupplies	6	8	[0, 0, 0]	n/a	catFR1	2	R1659A
1004.689	0.85	1018540	WORD_OFF	n/a	n/a	TAPE	OfficeSupplies	6	8	[0, 0, 0]	n/a	catFR1	2	R1659A
1005.539	1.602	1019389	WORD	n/a	wordpools/wordpool_categorized_EN.txt	SUNFLOWER	Flowers	7	8	[0, 0, 0]	n/a	catFR1	2	R1659A
1007.141	0.883	1020998	WORD_OFF	n/a	n/a	SUNFLOWER	Flowers	7	8	[0, 0, 0]	n/a	catFR1	2	R1659A
1008.024	1.599	1021880	WORD	n/a	wordpools/wordpool_categorized_EN.txt	ROSE	Flowers	8	8	[0, 0, 0]	n/a	catFR1	2	R1659A
1009.623	0.934	1023478	WORD_OFF	n/a	n/a	ROSE	Flowers	8	8	[0, 0, 0]	n/a	catFR1	2	R1659A
1010.557	1.6	1024415	WORD	n/a	wordpools/wordpool_categorized_EN.txt	APPLE	Fruit	9	8	[0, 0, 0]	n/a	catFR1	2	R1659A
1012.157	0.792	1026013	WORD_OFF	n/a	n/a	APPLE	Fruit	9	8	[0, 0, 0]	n/a	catFR1	2	R1659A
1012.949	1.608	1026807	WORD	n/a	wordpools/wordpool_categorized_EN.txt	PLUM	Fruit	10	8	[0, 0, 0]	n/a	catFR1	2	R1659A
1014.557	0.992	1028416	WORD_OFF	n/a	n/a	PLUM	Fruit	10	8	[0, 0, 0]	n/a	catFR1	2	R1659A
1015.549	1.607	1029408	WORD	n/a	wordpools/wordpool_categorized_EN.txt	MARKER	OfficeSupplies	11	8	[0, 0, 0]	n/a	catFR1	2	R1659A
1017.156	0.985	1031006	WORD_OFF	n/a	n/a	MARKER	OfficeSupplies	11	8	[0, 0, 0]	n/a	catFR1	2	R1659A
1018.141	1.599	1031998	WORD	n/a	wordpools/wordpool_categorized_EN.txt	STAPLER	OfficeSupplies	12	8	[0, 0, 0]	n/a	catFR1	2	R1659A
1019.74	0.001	1033596	PROB	3.607	n/a	n/a	n/a	-999	8	[5, 5, 7]	17.0	catFR1	2	R1659A
1019.741	0.004	1033597	WORD_OFF	n/a	n/a	STAPLER	OfficeSupplies	12	8	[0, 0, 0]	n/a	catFR1	2	R1659A
1019.745	0.0	1033597	ENCODING_END	n/a	n/a	n/a	n/a	-999	8	[0, 0, 0]	n/a	catFR1	2	R1659A
1019.745	0.0	1033597	DISTRACT_START	n/a	n/a	n/a	n/a	-999	8	[0, 0, 0]	n/a	catFR1	2	R1659A
1019.745	3.611	1033601	START	n/a	n/a	n/a	n/a	-999	8	[-999, -999, -999]	n/a	catFR1	2	R1659A
1023.356	2.409	1037212	PROB	2.399	n/a	n/a	n/a	-999	8	[5, 2, 5]	15.0	catFR1	2	R1659A
1025.765	4.199	1039621	PROB	4.191	n/a	n/a	n/a	-999	8	[5, 5, 2]	15.0	catFR1	2	R1659A
1029.964	8.192	1043820	PROB	8.184	n/a	n/a	n/a	-999	8	[5, 5, 5]	15.0	catFR1	2	R1659A
1038.156	5.292	1052012	PROB	5.283	n/a	n/a	n/a	-999	8	[5, 4, 3]	11.0	catFR1	2	R1659A
1043.448	0.0	1057304	STOP	n/a	n/a	n/a	n/a	-999	8	[-999, -999, -999]	n/a	catFR1	2	R1659A
1043.448	2.134	1057305	DISTRACT_END	n/a	n/a	n/a	n/a	-999	8	[0, 0, 0]	n/a	catFR1	2	R1659A
1045.582	3.204	1059444	REC_START	n/a	n/a	n/a	n/a	-999	8	[0, 0, 0]	n/a	catFR1	2	R1659A
1048.786	0.589	1062642	REC_WORD_VV	3.204	n/a	<>	n/a	-999	8	[0, 0, 0]	n/a	catFR1	2	R1659A
1049.375	0.324	1063231	REC_WORD	3.793	n/a	ROSE	Flowers	8	8	[0, 0, 0]	n/a	catFR1	2	R1659A
1049.699	3.241	1063555	REC_WORD	4.117	n/a	SUNFLOWER	Flowers	7	8	[0, 0, 0]	n/a	catFR1	2	R1659A
1052.94	0.567	1066796	REC_WORD	7.358	n/a	MARKER	OfficeSupplies	11	8	[0, 0, 0]	n/a	catFR1	2	R1659A
1053.507	4.087	1067363	REC_WORD	7.925	n/a	STAPLER	OfficeSupplies	12	8	[0, 0, 0]	n/a	catFR1	2	R1659A
1057.594	14.341	1071450	REC_WORD	12.012	n/a	TULIP	Flowers	2	8	[0, 0, 0]	n/a	catFR1	2	R1659A
1071.935	0.663	1085791	REC_WORD	26.353	n/a	FOLDER	n/a	-999	8	[0, 0, 0]	n/a	catFR1	2	R1659A
1072.598	3.127	1086454	REC_WORD_VV	27.016	n/a	<>	n/a	-999	8	[0, 0, 0]	n/a	catFR1	2	R1659A
1075.725	18.789	1089578	REC_END	n/a	n/a	n/a	n/a	-999	8	[0, 0, 0]	n/a	catFR1	2	R1659A
1094.514	10.343	1108371	COUNTDOWN_START	n/a	n/a	n/a	n/a	-999	9	[0, 0, 0]	n/a	catFR1	2	R1659A
1104.857	0.001	1118710	COUNTDOWN_END	n/a	n/a	n/a	n/a	-999	9	[0, 0, 0]	n/a	catFR1	2	R1659A
1104.858	2.089	1118710	ENCODING_START	n/a	n/a	n/a	n/a	-999	9	[0, 0, 0]	n/a	catFR1	2	R1659A
1106.947	1.6	1120804	WORD	n/a	wordpools/wordpool_categorized_EN.txt	PANDA	Zoo	1	9	[0, 0, 0]	n/a	catFR1	2	R1659A
1108.547	0.977	1122403	WORD_OFF	n/a	n/a	PANDA	Zoo	1	9	[0, 0, 0]	n/a	catFR1	2	R1659A
1109.524	1.608	1123384	WORD	n/a	wordpools/wordpool_categorized_EN.txt	GIRAFFE	Zoo	2	9	[0, 0, 0]	n/a	catFR1	2	R1659A
1111.132	0.792	1124982	WORD_OFF	n/a	n/a	GIRAFFE	Zoo	2	9	[0, 0, 0]	n/a	catFR1	2	R1659A
1111.924	1.607	1125775	WORD	n/a	wordpools/wordpool_categorized_EN.txt	UNDERWEAR	Clothing	3	9	[0, 0, 0]	n/a	catFR1	2	R1659A
1113.531	0.966	1127385	WORD_OFF	n/a	n/a	UNDERWEAR	Clothing	3	9	[0, 0, 0]	n/a	catFR1	2	R1659A
1114.497	1.6	1128355	WORD	n/a	wordpools/wordpool_categorized_EN.txt	SHOES	Clothing	4	9	[0, 0, 0]	n/a	catFR1	2	R1659A
1116.097	0.795	1129953	WORD_OFF	n/a	n/a	SHOES	Clothing	4	9	[0, 0, 0]	n/a	catFR1	2	R1659A
1116.892	1.601	1130746	WORD	n/a	wordpools/wordpool_categorized_EN.txt	WOOL	Fabric	5	9	[0, 0, 0]	n/a	catFR1	2	R1659A
1118.493	0.87	1132345	WORD_OFF	n/a	n/a	WOOL	Fabric	5	9	[0, 0, 0]	n/a	catFR1	2	R1659A
1119.363	1.602	1133215	WORD	n/a	wordpools/wordpool_categorized_EN.txt	SPANDEX	Fabric	6	9	[0, 0, 0]	n/a	catFR1	2	R1659A
1120.965	0.769	1134814	WORD_OFF	n/a	n/a	SPANDEX	Fabric	6	9	[0, 0, 0]	n/a	catFR1	2	R1659A
1121.734	1.6	1135585	WORD	n/a	wordpools/wordpool_categorized_EN.txt	JEANS	Clothing	7	9	[0, 0, 0]	n/a	catFR1	2	R1659A
1123.334	0.78	1137183	WORD_OFF	n/a	n/a	JEANS	Clothing	7	9	[0, 0, 0]	n/a	catFR1	2	R1659A
1124.114	1.601	1137966	WORD	n/a	wordpools/wordpool_categorized_EN.txt	SHIRT	Clothing	8	9	[0, 0, 0]	n/a	catFR1	2	R1659A
1125.715	0.942	1139564	WORD_OFF	n/a	n/a	SHIRT	Clothing	8	9	[0, 0, 0]	n/a	catFR1	2	R1659A
1126.657	1.6	1140512	WORD	n/a	wordpools/wordpool_categorized_EN.txt	GORILLA	Zoo	9	9	[0, 0, 0]	n/a	catFR1	2	R1659A
1128.257	0.898	1142110	WORD_OFF	n/a	n/a	GORILLA	Zoo	9	9	[0, 0, 0]	n/a	catFR1	2	R1659A
1129.155	1.601	1143014	WORD	n/a	wordpools/wordpool_categorized_EN.txt	TIGER	Zoo	10	9	[0, 0, 0]	n/a	catFR1	2	R1659A
1130.756	0.974	1144612	WORD_OFF	n/a	n/a	TIGER	Zoo	10	9	[0, 0, 0]	n/a	catFR1	2	R1659A
1131.73	1.602	1145582	WORD	n/a	wordpools/wordpool_categorized_EN.txt	SILK	Fabric	11	9	[0, 0, 0]	n/a	catFR1	2	R1659A
1133.332	0.908	1147192	WORD_OFF	n/a	n/a	SILK	Fabric	11	9	[0, 0, 0]	n/a	catFR1	2	R1659A
1134.24	1.609	1148095	WORD	n/a	wordpools/wordpool_categorized_EN.txt	LINEN	Fabric	12	9	[0, 0, 0]	n/a	catFR1	2	R1659A
1135.849	0.0	1149704	PROB	6.199	n/a	n/a	n/a	-999	9	[3, 3, 4]	11.0	catFR1	2	R1659A
1135.849	0.002	1149705	WORD_OFF	n/a	n/a	LINEN	Fabric	12	9	[0, 0, 0]	n/a	catFR1	2	R1659A
1135.851	0.0	1149705	ENCODING_END	n/a	n/a	n/a	n/a	-999	9	[0, 0, 0]	n/a	catFR1	2	R1659A
1135.851	0.0	1149705	DISTRACT_START	n/a	n/a	n/a	n/a	-999	9	[0, 0, 0]	n/a	catFR1	2	R1659A
1135.851	6.206	1149706	START	n/a	n/a	n/a	n/a	-999	9	[-999, -999, -999]	n/a	catFR1	2	R1659A
1142.057	16.224	1155912	PROB	16.216	n/a	n/a	n/a	-999	9	[7, 6, 8]	21.0	catFR1	2	R1659A
1158.281	0.0	1172135	DISTRACT_END	n/a	n/a	n/a	n/a	-999	9	[0, 0, 0]	n/a	catFR1	2	R1659A
1158.281	2.126	1172136	STOP	n/a	n/a	n/a	n/a	-999	9	[-999, -999, -999]	n/a	catFR1	2	R1659A
1160.407	2.089	1174262	REC_START	n/a	n/a	n/a	n/a	-999	9	[0, 0, 0]	n/a	catFR1	2	R1659A
1162.496	6.366	1176351	REC_WORD_VV	2.089	n/a	<>	n/a	-999	9	[0, 0, 0]	n/a	catFR1	2	R1659A
1168.862	21.682	1182717	REC_WORD_VV	8.455	n/a	<>	n/a	-999	9	[0, 0, 0]	n/a	catFR1	2	R1659A
1190.544	2.328	1204397	REC_END	n/a	n/a	n/a	n/a	-999	9	[0, 0, 0]	n/a	catFR1	2	R1659A
1192.872	10.342	1206723	COUNTDOWN_START	n/a	n/a	n/a	n/a	-999	10	[0, 0, 0]	n/a	catFR1	2	R1659A
1203.214	0.001	1217072	COUNTDOWN_END	n/a	n/a	n/a	n/a	-999	10	[0, 0, 0]	n/a	catFR1	2	R1659A
1203.215	1.858	1217072	ENCODING_START	n/a	n/a	n/a	n/a	-999	10	[0, 0, 0]	n/a	catFR1	2	R1659A
1205.073	1.601	1218924	WORD	n/a	wordpools/wordpool_categorized_EN.txt	WINE	Beverages	1	10	[0, 0, 0]	n/a	catFR1	2	R1659A
1206.674	0.783	1220533	WORD_OFF	n/a	n/a	WINE	Beverages	1	10	[0, 0, 0]	n/a	catFR1	2	R1659A
1207.457	1.599	1221316	WORD	n/a	wordpools/wordpool_categorized_EN.txt	COFFEE	Beverages	2	10	[0, 0, 0]	n/a	catFR1	2	R1659A
1209.056	0.794	1222914	WORD_OFF	n/a	n/a	COFFEE	Beverages	2	10	[0, 0, 0]	n/a	catFR1	2	R1659A
1209.85	1.607	1223708	WORD	n/a	wordpools/wordpool_categorized_EN.txt	VELVET	Fabric	3	10	[0, 0, 0]	n/a	catFR1	2	R1659A
1211.457	0.973	1225306	WORD_OFF	n/a	n/a	VELVET	Fabric	3	10	[0, 0, 0]	n/a	catFR1	2	R1659A
1212.43	1.602	1226287	WORD	n/a	wordpools/wordpool_categorized_EN.txt	LEATHER	Fabric	4	10	[0, 0, 0]	n/a	catFR1	2	R1659A
1214.032	0.859	1227885	WORD_OFF	n/a	n/a	LEATHER	Fabric	4	10	[0, 0, 0]	n/a	catFR1	2	R1659A
1214.891	1.6	1228745	WORD	n/a	wordpools/wordpool_categorized_EN.txt	CALCULATOR	Electronics	5	10	[0, 0, 0]	n/a	catFR1	2	R1659A
1216.491	0.789	1230343	WORD_OFF	n/a	n/a	CALCULATOR	Electronics	5	10	[0, 0, 0]	n/a	catFR1	2	R1659A
1217.28	1.6	1231137	WORD	n/a	wordpools/wordpool_categorized_EN.txt	SCANNER	Electronics	6	10	[0, 0, 0]	n/a	catFR1	2	R1659A
1218.88	0.869	1232735	WORD_OFF	n/a	n/a	SCANNER	Electronics	6	10	[0, 0, 0]	n/a	catFR1	2	R1659A
1219.749	1.609	1233606	WORD	n/a	wordpools/wordpool_categorized_EN.txt	LEMONADE	Beverages	7	10	[0, 0, 0]	n/a	catFR1	2	R1659A
1221.358	0.882	1235215	WORD_OFF	n/a	n/a	LEMONADE	Beverages	7	10	[0, 0, 0]	n/a	catFR1	2	R1659A
1222.24	1.6	1236097	WORD	n/a	wordpools/wordpool_categorized_EN.txt	JUICE	Beverages	8	10	[0, 0, 0]	n/a	catFR1	2	R1659A
1223.84	1.0	1237695	WORD_OFF	n/a	n/a	JUICE	Beverages	8	10	[0, 0, 0]	n/a	catFR1	2	R1659A
1224.84	1.608	1238698	WORD	n/a	wordpools/wordpool_categorized_EN.txt	COTTON	Fabric	9	10	[0, 0, 0]	n/a	catFR1	2	R1659A
1226.448	0.809	1240307	WORD_OFF	n/a	n/a	COTTON	Fabric	9	10	[0, 0, 0]	n/a	catFR1	2	R1659A
1227.257	1.6	1241112	WORD	n/a	wordpools/wordpool_categorized_EN.txt	SATIN	Fabric	10	10	[0, 0, 0]	n/a	catFR1	2	R1659A
1228.857	0.998	1242710	WORD_OFF	n/a	n/a	SATIN	Fabric	10	10	[0, 0, 0]	n/a	catFR1	2	R1659A
1229.855	1.601	1243713	WORD	n/a	wordpools/wordpool_categorized_EN.txt	STEREO	Electronics	11	10	[0, 0, 0]	n/a	catFR1	2	R1659A
1231.456	0.935	1245311	WORD_OFF	n/a	n/a	STEREO	Electronics	11	10	[0, 0, 0]	n/a	catFR1	2	R1659A
1232.391	1.607	1246248	WORD	n/a	wordpools/wordpool_categorized_EN.txt	PHONE	Electronics	12	10	[0, 0, 0]	n/a	catFR1	2	R1659A
1233.998	0.003	1247853	PROB	7.983	n/a	n/a	n/a	-999	10	[7, 8, 4]	19.0	catFR1	2	R1659A
1234.001	0.0	1247856	START	n/a	n/a	n/a	n/a	-999	10	[-999, -999, -999]	n/a	catFR1	2	R1659A
1233.998	0.003	1247857	WORD_OFF	n/a	n/a	PHONE	Electronics	12	10	[0, 0, 0]	n/a	catFR1	2	R1659A
1234.001	0.0	1247857	ENCODING_END	n/a	n/a	n/a	n/a	-999	10	[0, 0, 0]	n/a	catFR1	2	R1659A
1234.001	7.988	1247857	DISTRACT_START	n/a	n/a	n/a	n/a	-999	10	[0, 0, 0]	n/a	catFR1	2	R1659A
1241.989	3.135	1255844	PROB	3.124	n/a	n/a	n/a	-999	10	[1, 3, 6]	10.0	catFR1	2	R1659A
1245.124	2.716	1258979	PROB	2.707	n/a	n/a	n/a	-999	10	[4, 8, 2]	14.0	catFR1	2	R1659A
1247.84	2.808	1261695	PROB	2.799	n/a	n/a	n/a	-999	10	[2, 1, 1]	4.0	catFR1	2	R1659A
1250.648	3.858	1264503	PROB	3.849	n/a	n/a	n/a	-999	10	[3, 8, 6]	17.0	catFR1	2	R1659A
1254.506	0.0	1268359	DISTRACT_END	n/a	n/a	n/a	n/a	-999	10	[0, 0, 0]	n/a	catFR1	2	R1659A
1254.506	2.167	1268361	STOP	n/a	n/a	n/a	n/a	-999	10	[-999, -999, -999]	n/a	catFR1	2	R1659A
1256.673	0.482	1270530	REC_START	n/a	n/a	n/a	n/a	-999	10	[0, 0, 0]	n/a	catFR1	2	R1659A
1257.155	0.874	1271010	REC_WORD	0.482	n/a	CALCULATOR	Electronics	5	10	[0, 0, 0]	n/a	catFR1	2	R1659A
1258.029	7.482	1271884	REC_WORD	1.356	n/a	WINE	Beverages	1	10	[0, 0, 0]	n/a	catFR1	2	R1659A
1265.511	4.787	1279366	REC_WORD	8.838	n/a	JUICE	Beverages	8	10	[0, 0, 0]	n/a	catFR1	2	R1659A
1270.298	1.9	1284153	REC_WORD	13.625	n/a	COFFEE	Beverages	2	10	[0, 0, 0]	n/a	catFR1	2	R1659A
1272.198	0.795	1286053	REC_WORD	15.525	n/a	SCANNER	Electronics	6	10	[0, 0, 0]	n/a	catFR1	2	R1659A
1272.993	13.826	1286848	REC_WORD	16.32	n/a	STEREO	Electronics	11	10	[0, 0, 0]	n/a	catFR1	2	R1659A
1286.819	1.654	1300676	REC_END	n/a	n/a	n/a	n/a	-999	10	[0, 0, 0]	n/a	catFR1	2	R1659A
1288.473	10.34	1302329	COUNTDOWN_START	n/a	n/a	n/a	n/a	-999	11	[0, 0, 0]	n/a	catFR1	2	R1659A
1298.813	0.001	1312668	COUNTDOWN_END	n/a	n/a	n/a	n/a	-999	11	[0, 0, 0]	n/a	catFR1	2	R1659A
1298.814	1.802	1312668	ENCODING_START	n/a	n/a	n/a	n/a	-999	11	[0, 0, 0]	n/a	catFR1	2	R1659A
1300.616	1.606	1314465	WORD	n/a	wordpools/wordpool_categorized_EN.txt	CAULIFLOWER	Vegetables	1	11	[0, 0, 0]	n/a	catFR1	2	R1659A
1302.222	0.776	1316074	WORD_OFF	n/a	n/a	CAULIFLOWER	Vegetables	1	11	[0, 0, 0]	n/a	catFR1	2	R1659A
1302.998	1.599	1316846	WORD	n/a	wordpools/wordpool_categorized_EN.txt	SPINACH	Vegetables	2	11	[0, 0, 0]	n/a	catFR1	2	R1659A
1304.597	0.809	1318455	WORD_OFF	n/a	n/a	SPINACH	Vegetables	2	11	[0, 0, 0]	n/a	catFR1	2	R1659A
1305.406	1.601	1319259	WORD	n/a	wordpools/wordpool_categorized_EN.txt	SOFA	Furniture	3	11	[0, 0, 0]	n/a	catFR1	2	R1659A
1307.007	0.984	1320858	WORD_OFF	n/a	n/a	SOFA	Furniture	3	11	[0, 0, 0]	n/a	catFR1	2	R1659A
1307.991	1.6	1321850	WORD	n/a	wordpools/wordpool_categorized_EN.txt	DRESSER	Furniture	4	11	[0, 0, 0]	n/a	catFR1	2	R1659A
1309.591	0.764	1323448	WORD_OFF	n/a	n/a	DRESSER	Furniture	4	11	[0, 0, 0]	n/a	catFR1	2	R1659A
1310.355	1.602	1324208	WORD	n/a	wordpools/wordpool_categorized_EN.txt	TELEVISION	Electronics	5	11	[0, 0, 0]	n/a	catFR1	2	R1659A
1311.957	0.983	1325807	WORD_OFF	n/a	n/a	TELEVISION	Electronics	5	11	[0, 0, 0]	n/a	catFR1	2	R1659A
1312.94	1.6	1326799	WORD	n/a	wordpools/wordpool_categorized_EN.txt	MICROWAVE	Electronics	6	11	[0, 0, 0]	n/a	catFR1	2	R1659A
1314.54	0.89	1328397	WORD_OFF	n/a	n/a	MICROWAVE	Electronics	6	11	[0, 0, 0]	n/a	catFR1	2	R1659A
1315.43	1.601	1329279	WORD	n/a	wordpools/wordpool_categorized_EN.txt	CABBAGE	Vegetables	7	11	[0, 0, 0]	n/a	catFR1	2	R1659A
1317.031	0.86	1330888	WORD_OFF	n/a	n/a	CABBAGE	Vegetables	7	11	[0, 0, 0]	n/a	catFR1	2	R1659A
1317.891	1.6	1331748	WORD	n/a	wordpools/wordpool_categorized_EN.txt	POTATO	Vegetables	8	11	[0, 0, 0]	n/a	catFR1	2	R1659A
1319.491	0.916	1333346	WORD_OFF	n/a	n/a	POTATO	Vegetables	8	11	[0, 0, 0]	n/a	catFR1	2	R1659A
1320.407	1.607	1334261	WORD	n/a	wordpools/wordpool_categorized_EN.txt	DESK	Furniture	9	11	[0, 0, 0]	n/a	catFR1	2	R1659A
1322.014	0.885	1335870	WORD_OFF	n/a	n/a	DESK	Furniture	9	11	[0, 0, 0]	n/a	catFR1	2	R1659A
1322.899	1.608	1336752	WORD	n/a	wordpools/wordpool_categorized_EN.txt	CHAIR	Furniture	10	11	[0, 0, 0]	n/a	catFR1	2	R1659A
1324.507	0.784	1338361	WORD_OFF	n/a	n/a	CHAIR	Furniture	10	11	[0, 0, 0]	n/a	catFR1	2	R1659A
1325.291	1.607	1339143	WORD	n/a	wordpools/wordpool_categorized_EN.txt	PRINTER	Electronics	11	11	[0, 0, 0]	n/a	catFR1	2	R1659A
1326.898	0.758	1340753	WORD_OFF	n/a	n/a	PRINTER	Electronics	11	11	[0, 0, 0]	n/a	catFR1	2	R1659A
1327.656	1.6	1341513	WORD	n/a	wordpools/wordpool_categorized_EN.txt	HEADPHONES	Electronics	12	11	[0, 0, 0]	n/a	catFR1	2	R1659A
1329.256	0.004	1343111	WORD_OFF	n/a	n/a	HEADPHONES	Electronics	12	11	[0, 0, 0]	n/a	catFR1	2	R1659A
1329.26	0.0	1343111	ENCODING_END	n/a	n/a	n/a	n/a	-999	11	[0, 0, 0]	n/a	catFR1	2	R1659A
1329.26	0.0	1343111	DISTRACT_START	n/a	n/a	n/a	n/a	-999	11	[0, 0, 0]	n/a	catFR1	2	R1659A
1329.257	0.003	1343112	PROB	3.092	n/a	n/a	n/a	-999	11	[4, 8, 2]	14.0	catFR1	2	R1659A
1329.26	3.098	1343115	START	n/a	n/a	n/a	n/a	-999	11	[-999, -999, -999]	n/a	catFR1	2	R1659A
1332.358	2.74	1346213	PROB	2.732	n/a	n/a	n/a	-999	11	[5, 3, 1]	9.0	catFR1	2	R1659A
1335.098	2.134	1348953	PROB	2.125	n/a	n/a	n/a	-999	11	[5, 5, 6]	16.0	catFR1	2	R1659A
1337.232	3.343	1351087	PROB	3.334	n/a	n/a	n/a	-999	11	[6, 1, 7]	14.0	catFR1	2	R1659A
1340.575	4.841	1354430	PROB	4.833	n/a	n/a	n/a	-999	11	[1, 5, 2]	8.0	catFR1	2	R1659A
1345.416	4.123	1359271	PROB	4.116	n/a	n/a	n/a	-999	11	[8, 8, 5]	21.0	catFR1	2	R1659A
1349.539	0.0	1363392	DISTRACT_END	n/a	n/a	n/a	n/a	-999	11	[0, 0, 0]	n/a	catFR1	2	R1659A
1349.539	2.092	1363394	STOP	n/a	n/a	n/a	n/a	-999	11	[-999, -999, -999]	n/a	catFR1	2	R1659A
1351.631	1.099	1365487	REC_START	n/a	n/a	n/a	n/a	-999	11	[0, 0, 0]	n/a	catFR1	2	R1659A
1352.73	1.028	1366585	REC_WORD	1.099	n/a	CAULIFLOWER	Vegetables	1	11	[0, 0, 0]	n/a	catFR1	2	R1659A
1353.758	2.755	1367613	REC_WORD	2.127	n/a	SPINACH	Vegetables	2	11	[0, 0, 0]	n/a	catFR1	2	R1659A
1356.513	20.129	1370368	REC_WORD_VV	4.882	n/a	<>	n/a	-999	11	[0, 0, 0]	n/a	catFR1	2	R1659A
1376.642	5.134	1390497	REC_WORD_VV	25.011	n/a	<>	n/a	-999	11	[0, 0, 0]	n/a	catFR1	2	R1659A
1381.776	1.688	1395632	REC_END	n/a	n/a	n/a	n/a	-999	11	[0, 0, 0]	n/a	catFR1	2	R1659A
1383.464	10.344	1397319	COUNTDOWN_START	n/a	n/a	n/a	n/a	-999	12	[0, 0, 0]	n/a	catFR1	2	R1659A
1393.808	0.0	1407658	COUNTDOWN_END	n/a	n/a	n/a	n/a	-999	12	[0, 0, 0]	n/a	catFR1	2	R1659A
1393.808	2.224	1407658	ENCODING_START	n/a	n/a	n/a	n/a	-999	12	[0, 0, 0]	n/a	catFR1	2	R1659A
1396.032	1.608	1409884	WORD	n/a	wordpools/wordpool_categorized_EN.txt	FLEECE	Fabric	1	12	[0, 0, 0]	n/a	catFR1	2	R1659A
1397.64	0.951	1411493	WORD_OFF	n/a	n/a	FLEECE	Fabric	1	12	[0, 0, 0]	n/a	catFR1	2	R1659A
1398.591	1.6	1412441	WORD	n/a	wordpools/wordpool_categorized_EN.txt	SUEDE	Fabric	2	12	[0, 0, 0]	n/a	catFR1	2	R1659A
1400.191	0.85	1414039	WORD_OFF	n/a	n/a	SUEDE	Fabric	2	12	[0, 0, 0]	n/a	catFR1	2	R1659A
1401.041	1.607	1414899	WORD	n/a	wordpools/wordpool_categorized_EN.txt	RADIO	Electronics	3	12	[0, 0, 0]	n/a	catFR1	2	R1659A
1402.648	0.776	1416497	WORD_OFF	n/a	n/a	RADIO	Electronics	3	12	[0, 0, 0]	n/a	catFR1	2	R1659A
1403.424	1.608	1417280	WORD	n/a	wordpools/wordpool_categorized_EN.txt	SPEAKER	Electronics	4	12	[0, 0, 0]	n/a	catFR1	2	R1659A
1405.032	0.884	1418889	WORD_OFF	n/a	n/a	SPEAKER	Electronics	4	12	[0, 0, 0]	n/a	catFR1	2	R1659A
1405.916	1.608	1419771	WORD	n/a	wordpools/wordpool_categorized_EN.txt	SODA	Beverages	5	12	[0, 0, 0]	n/a	catFR1	2	R1659A
1407.524	0.998	1421391	WORD_OFF	n/a	n/a	SODA	Beverages	5	12	[0, 0, 0]	n/a	catFR1	2	R1659A
1408.522	1.601	1422372	WORD	n/a	wordpools/wordpool_categorized_EN.txt	WATER	Beverages	6	12	[0, 0, 0]	n/a	catFR1	2	R1659A
1410.123	0.842	1423981	WORD_OFF	n/a	n/a	WATER	Beverages	6	12	[0, 0, 0]	n/a	catFR1	2	R1659A
1410.965	1.601	1424819	WORD	n/a	wordpools/wordpool_categorized_EN.txt	TABLET	Electronics	7	12	[0, 0, 0]	n/a	catFR1	2	R1659A
1412.566	0.865	1426417	WORD_OFF	n/a	n/a	TABLET	Electronics	7	12	[0, 0, 0]	n/a	catFR1	2	R1659A
1413.431	1.609	1427288	WORD	n/a	wordpools/wordpool_categorized_EN.txt	COMPUTER	Electronics	8	12	[0, 0, 0]	n/a	catFR1	2	R1659A
1415.04	0.9	1428897	WORD_OFF	n/a	n/a	COMPUTER	Electronics	8	12	[0, 0, 0]	n/a	catFR1	2	R1659A
1415.94	1.6	1429790	WORD	n/a	wordpools/wordpool_categorized_EN.txt	DENIM	Fabric	9	12	[0, 0, 0]	n/a	catFR1	2	R1659A
1417.54	0.943	1431399	WORD_OFF	n/a	n/a	DENIM	Fabric	9	12	[0, 0, 0]	n/a	catFR1	2	R1659A
1418.483	1.606	1432336	WORD	n/a	wordpools/wordpool_categorized_EN.txt	NYLON	Fabric	10	12	[0, 0, 0]	n/a	catFR1	2	R1659A
1420.089	0.967	1433946	WORD_OFF	n/a	n/a	NYLON	Fabric	10	12	[0, 0, 0]	n/a	catFR1	2	R1659A
1421.056	1.6	1434904	WORD	n/a	wordpools/wordpool_categorized_EN.txt	RUM	Beverages	11	12	[0, 0, 0]	n/a	catFR1	2	R1659A
1422.656	0.909	1436514	WORD_OFF	n/a	n/a	RUM	Beverages	11	12	[0, 0, 0]	n/a	catFR1	2	R1659A
1423.565	1.608	1437418	WORD	n/a	wordpools/wordpool_categorized_EN.txt	COLA	Beverages	12	12	[0, 0, 0]	n/a	catFR1	2	R1659A
1425.173	0.003	1439027	WORD_OFF	n/a	n/a	COLA	Beverages	12	12	[0, 0, 0]	n/a	catFR1	2	R1659A
1425.176	0.0	1439027	ENCODING_END	n/a	n/a	n/a	n/a	-999	12	[0, 0, 0]	n/a	catFR1	2	R1659A
1425.176	0.0	1439027	DISTRACT_START	n/a	n/a	n/a	n/a	-999	12	[0, 0, 0]	n/a	catFR1	2	R1659A
1425.174	0.002	1439028	PROB	4.099	n/a	n/a	n/a	-999	12	[6, 5, 5]	16.0	catFR1	2	R1659A
1425.176	4.106	1439030	START	n/a	n/a	n/a	n/a	-999	12	[-999, -999, -999]	n/a	catFR1	2	R1659A
1429.282	3.583	1443136	PROB	3.575	n/a	n/a	n/a	-999	12	[3, 4, 7]	14.0	catFR1	2	R1659A
1432.865	2.774	1446719	PROB	2.767	n/a	n/a	n/a	-999	12	[2, 2, 4]	8.0	catFR1	2	R1659A
1435.639	6.91	1449493	PROB	6.9	n/a	n/a	n/a	-999	12	[5, 6, 6]	17.0	catFR1	2	R1659A
1442.549	3.506	1456403	PROB	3.5	n/a	n/a	n/a	-999	12	[6, 8, 5]	19.0	catFR1	2	R1659A
1446.055	0.0	1459903	DISTRACT_END	n/a	n/a	n/a	n/a	-999	12	[0, 0, 0]	n/a	catFR1	2	R1659A
1446.055	2.342	1459909	STOP	n/a	n/a	n/a	n/a	-999	12	[-999, -999, -999]	n/a	catFR1	2	R1659A
1448.397	1.524	1462251	REC_START	n/a	n/a	n/a	n/a	-999	12	[0, 0, 0]	n/a	catFR1	2	R1659A
1449.921	10.951	1463775	REC_WORD	1.524	n/a	COLA	Beverages	12	12	[0, 0, 0]	n/a	catFR1	2	R1659A
1460.872	5.734	1474726	REC_WORD	12.475	n/a	SODA	Beverages	5	12	[0, 0, 0]	n/a	catFR1	2	R1659A
1466.606	3.491	1480460	REC_WORD	18.209	n/a	NYLON	Fabric	10	12	[0, 0, 0]	n/a	catFR1	2	R1659A
1470.097	3.737	1483951	REC_WORD_VV	21.7	n/a	<>	n/a	-999	12	[0, 0, 0]	n/a	catFR1	2	R1659A
1473.834	4.703	1487688	REC_WORD	25.437	n/a	FLEECE	Fabric	1	12	[0, 0, 0]	n/a	catFR1	2	R1659A
1478.537	0.0	1492385	REC_END	n/a	n/a	n/a	n/a	-999	12	[0, 0, 0]	n/a	catFR1	2	R1659A
