onset	duration	sample	trial_type	response_time	stim_file	item_name	category	serialpos	list	test	answer	experiment	session	subject
0.0	0.883	303620	INSTRUCT_START	n/a	n/a	n/a	n/a	-999	-999	[0, 0, 0]	n/a	catFR1	5	R1468J
0.883	32.966	304497	INSTRUCT_END	n/a	n/a	n/a	n/a	-999	-999	[0, 0, 0]	n/a	catFR1	5	R1468J
33.849	10.35	337464	COUNTDOWN_START	n/a	n/a	n/a	n/a	-999	-999	[0, 0, 0]	n/a	catFR1	5	R1468J
44.199	0.0	347811	COUNTDOWN_END	n/a	n/a	n/a	n/a	-999	-999	[0, 0, 0]	n/a	catFR1	5	R1468J
44.199	2.266	347811	ENCODING_START	n/a	n/a	n/a	n/a	-999	-1	[0, 0, 0]	n/a	catFR1	5	R1468J
46.465	1.6	350071	WORD	n/a	n/a	SHOES	Clothing	1	-1	[0, 0, 0]	n/a	catFR1	5	R1468J
48.065	0.784	351675	WORD_OFF	n/a	n/a	SHOES	Clothing	1	-1	[0, 0, 0]	n/a	catFR1	5	R1468J
48.849	1.601	352459	WORD	n/a	n/a	BLOUSE	Clothing	2	-1	[0, 0, 0]	n/a	catFR1	5	R1468J
50.45	0.965	354063	WORD_OFF	n/a	n/a	BLOUSE	Clothing	2	-1	[0, 0, 0]	n/a	catFR1	5	R1468J
51.415	1.601	355031	WORD	n/a	n/a	OCTOPUS	OceanAnimals	3	-1	[0, 0, 0]	n/a	catFR1	5	R1468J
53.016	0.767	356623	WORD_OFF	n/a	n/a	OCTOPUS	OceanAnimals	3	-1	[0, 0, 0]	n/a	catFR1	5	R1468J
53.783	1.616	357396	WORD	n/a	n/a	WHALE	OceanAnimals	4	-1	[0, 0, 0]	n/a	catFR1	5	R1468J
55.399	0.95	359011	WORD_OFF	n/a	n/a	WHALE	OceanAnimals	4	-1	[0, 0, 0]	n/a	catFR1	5	R1468J
56.349	1.6	359957	WORD	n/a	n/a	PIANO	Instruments	5	-1	[0, 0, 0]	n/a	catFR1	5	R1468J
57.949	0.767	361560	WORD_OFF	n/a	n/a	PIANO	Instruments	5	-1	[0, 0, 0]	n/a	catFR1	5	R1468J
58.716	1.6	362321	WORD	n/a	n/a	VIOLIN	Instruments	6	-1	[0, 0, 0]	n/a	catFR1	5	R1468J
60.316	0.933	363925	WORD_OFF	n/a	n/a	VIOLIN	Instruments	6	-1	[0, 0, 0]	n/a	catFR1	5	R1468J
61.249	1.618	364859	WORD	n/a	n/a	SHRIMP	OceanAnimals	7	-1	[0, 0, 0]	n/a	catFR1	5	R1468J
62.867	0.848	366474	WORD_OFF	n/a	n/a	SHRIMP	OceanAnimals	7	-1	[0, 0, 0]	n/a	catFR1	5	R1468J
63.715	1.616	367328	WORD	n/a	n/a	PLANKTON	OceanAnimals	8	-1	[0, 0, 0]	n/a	catFR1	5	R1468J
65.331	0.919	368942	WORD_OFF	n/a	n/a	PLANKTON	OceanAnimals	8	-1	[0, 0, 0]	n/a	catFR1	5	R1468J
66.25	1.616	369865	WORD	n/a	n/a	COAT	Clothing	9	-1	[0, 0, 0]	n/a	catFR1	5	R1468J
67.866	0.784	371480	WORD_OFF	n/a	n/a	COAT	Clothing	9	-1	[0, 0, 0]	n/a	catFR1	5	R1468J
68.65	1.615	372265	WORD	n/a	n/a	SHORTS	Clothing	10	-1	[0, 0, 0]	n/a	catFR1	5	R1468J
70.265	0.851	373879	WORD_OFF	n/a	n/a	SHORTS	Clothing	10	-1	[0, 0, 0]	n/a	catFR1	5	R1468J
71.116	1.6	374721	WORD	n/a	n/a	DRUM	Instruments	11	-1	[0, 0, 0]	n/a	catFR1	5	R1468J
72.716	0.967	376325	WORD_OFF	n/a	n/a	DRUM	Instruments	11	-1	[0, 0, 0]	n/a	catFR1	5	R1468J
73.683	1.616	377294	WORD	n/a	n/a	FLUTE	Instruments	12	-1	[0, 0, 0]	n/a	catFR1	5	R1468J
75.299	0.001	378909	WORD_OFF	n/a	n/a	FLUTE	Instruments	12	-1	[0, 0, 0]	n/a	catFR1	5	R1468J
75.3	0.0	378909	ENCODING_END	n/a	n/a	n/a	n/a	-999	-1	[0, 0, 0]	n/a	catFR1	5	R1468J
75.3	0.0	378909	DISTRACT_START	n/a	n/a	n/a	n/a	-999	-1	[0, 0, 0]	n/a	catFR1	5	R1468J
75.299	0.001	378910	PROB	0.001	n/a	n/a	n/a	-999	-1	[2, 3, 2]	7	catFR1	5	R1468J
75.3	14.549	378911	START	n/a	n/a	n/a	n/a	-999	-1	[-999, -999, -999]	n/a	catFR1	5	R1468J
89.849	9.583	393459	PROB	9.583	n/a	n/a	n/a	-999	-1	[8, 6, 6]	20	catFR1	5	R1468J
99.432	0.0	403040	DISTRACT_END	n/a	n/a	n/a	n/a	-999	-1	[0, 0, 0]	n/a	catFR1	5	R1468J
99.432	1.234	403042	STOP	n/a	n/a	n/a	n/a	-999	-1	[-999, -999, -999]	n/a	catFR1	5	R1468J
100.666	5.659	404274	REC_START	n/a	n/a	n/a	n/a	-999	-1	[0, 0, 0]	n/a	catFR1	5	R1468J
106.325	1.687	409935	REC_WORD	1.687	n/a	SHOES	Clothing	1	-1	[0, 0, 0]	n/a	catFR1	5	R1468J
108.012	2.393	411622	REC_WORD	2.393	n/a	OCTOPUS	OceanAnimals	3	-1	[0, 0, 0]	n/a	catFR1	5	R1468J
110.405	1.924	414015	REC_WORD	1.924	n/a	PIANO	Instruments	5	-1	[0, 0, 0]	n/a	catFR1	5	R1468J
112.329	2.437	415938	REC_WORD	2.437	n/a	VIOLIN	Instruments	6	-1	[0, 0, 0]	n/a	catFR1	5	R1468J
114.766	17.086	418375	REC_WORD	17.086	n/a	FLUTE	Instruments	12	-1	[0, 0, 0]	n/a	catFR1	5	R1468J
131.852	36.031	435464	REC_END	n/a	n/a	n/a	n/a	-999	-1	[0, 0, 0]	n/a	catFR1	5	R1468J
167.883	10.348	471488	COUNTDOWN_START	n/a	n/a	n/a	n/a	-999	1	[0, 0, 0]	n/a	catFR1	5	R1468J
178.231	0.001	481834	COUNTDOWN_END	n/a	n/a	n/a	n/a	-999	1	[0, 0, 0]	n/a	catFR1	5	R1468J
178.232	2.216	481834	ENCODING_START	n/a	n/a	n/a	n/a	-999	1	[0, 0, 0]	n/a	catFR1	5	R1468J
180.448	1.601	484049	WORD	n/a	wordpools/wordpool_categorized_EN.txt	BOOKCASE	Furniture	1	1	[0, 0, 0]	n/a	catFR1	5	R1468J
182.049	0.949	485652	WORD_OFF	n/a	n/a	BOOKCASE	Furniture	1	1	[0, 0, 0]	n/a	catFR1	5	R1468J
182.998	1.602	486610	WORD	n/a	wordpools/wordpool_categorized_EN.txt	BED	Furniture	2	1	[0, 0, 0]	n/a	catFR1	5	R1468J
184.6	0.933	488202	WORD_OFF	n/a	n/a	BED	Furniture	2	1	[0, 0, 0]	n/a	catFR1	5	R1468J
185.533	1.615	489136	WORD	n/a	wordpools/wordpool_categorized_EN.txt	FLEECE	Fabric	3	1	[0, 0, 0]	n/a	catFR1	5	R1468J
187.148	0.935	490751	WORD_OFF	n/a	n/a	FLEECE	Fabric	3	1	[0, 0, 0]	n/a	catFR1	5	R1468J
188.083	1.616	491685	WORD	n/a	wordpools/wordpool_categorized_EN.txt	VELVET	Fabric	4	1	[0, 0, 0]	n/a	catFR1	5	R1468J
189.699	0.883	493300	WORD_OFF	n/a	n/a	VELVET	Fabric	4	1	[0, 0, 0]	n/a	catFR1	5	R1468J
190.582	1.6	494188	WORD	n/a	wordpools/wordpool_categorized_EN.txt	LILAC	Flowers	5	1	[0, 0, 0]	n/a	catFR1	5	R1468J
192.182	0.916	495792	WORD_OFF	n/a	n/a	LILAC	Flowers	5	1	[0, 0, 0]	n/a	catFR1	5	R1468J
193.098	1.6	496703	WORD	n/a	wordpools/wordpool_categorized_EN.txt	ORCHID	Flowers	6	1	[0, 0, 0]	n/a	catFR1	5	R1468J
194.698	1.001	498306	WORD_OFF	n/a	n/a	ORCHID	Flowers	6	1	[0, 0, 0]	n/a	catFR1	5	R1468J
195.699	1.6	499310	WORD	n/a	wordpools/wordpool_categorized_EN.txt	NYLON	Fabric	7	1	[0, 0, 0]	n/a	catFR1	5	R1468J
197.299	0.799	500901	WORD_OFF	n/a	n/a	NYLON	Fabric	7	1	[0, 0, 0]	n/a	catFR1	5	R1468J
198.098	1.601	501709	WORD	n/a	wordpools/wordpool_categorized_EN.txt	SILK	Fabric	8	1	[0, 0, 0]	n/a	catFR1	5	R1468J
199.699	0.883	503301	WORD_OFF	n/a	n/a	SILK	Fabric	8	1	[0, 0, 0]	n/a	catFR1	5	R1468J
200.582	1.6	504189	WORD	n/a	wordpools/wordpool_categorized_EN.txt	DAFFODIL	Flowers	9	1	[0, 0, 0]	n/a	catFR1	5	R1468J
202.182	0.833	505792	WORD_OFF	n/a	n/a	DAFFODIL	Flowers	9	1	[0, 0, 0]	n/a	catFR1	5	R1468J
203.015	1.6	506623	WORD	n/a	wordpools/wordpool_categorized_EN.txt	DAISY	Flowers	10	1	[0, 0, 0]	n/a	catFR1	5	R1468J
204.615	0.801	508226	WORD_OFF	n/a	n/a	DAISY	Flowers	10	1	[0, 0, 0]	n/a	catFR1	5	R1468J
205.416	1.616	509022	WORD	n/a	wordpools/wordpool_categorized_EN.txt	CHAIR	Furniture	11	1	[0, 0, 0]	n/a	catFR1	5	R1468J
207.032	0.933	510637	WORD_OFF	n/a	n/a	CHAIR	Furniture	11	1	[0, 0, 0]	n/a	catFR1	5	R1468J
207.965	1.601	511571	WORD	n/a	wordpools/wordpool_categorized_EN.txt	NIGHTSTAND	Furniture	12	1	[0, 0, 0]	n/a	catFR1	5	R1468J
209.566	0.002	513171	PROB	0.002	n/a	n/a	n/a	-999	1	[8, 5, 1]	14	catFR1	5	R1468J
209.568	0.0	513173	START	n/a	n/a	n/a	n/a	-999	1	[-999, -999, -999]	n/a	catFR1	5	R1468J
209.566	0.002	513175	WORD_OFF	n/a	n/a	NIGHTSTAND	Furniture	12	1	[0, 0, 0]	n/a	catFR1	5	R1468J
209.568	0.0	513175	ENCODING_END	n/a	n/a	n/a	n/a	-999	1	[0, 0, 0]	n/a	catFR1	5	R1468J
209.568	6.814	513175	DISTRACT_START	n/a	n/a	n/a	n/a	-999	1	[0, 0, 0]	n/a	catFR1	5	R1468J
216.382	4.1	519987	PROB	4.1	n/a	n/a	n/a	-999	1	[6, 6, 2]	14	catFR1	5	R1468J
220.482	5.967	524087	PROB	5.967	n/a	n/a	n/a	-999	1	[5, 2, 8]	15	catFR1	5	R1468J
226.449	5.949	530054	PROB	5.949	n/a	n/a	n/a	-999	1	[3, 8, 3]	14	catFR1	5	R1468J
232.398	0.0	536002	DISTRACT_END	n/a	n/a	n/a	n/a	-999	1	[0, 0, 0]	n/a	catFR1	5	R1468J
232.398	1.333	536002	STOP	n/a	n/a	n/a	n/a	-999	1	[-999, -999, -999]	n/a	catFR1	5	R1468J
233.731	1.67	537340	REC_START	n/a	n/a	n/a	n/a	-999	1	[0, 0, 0]	n/a	catFR1	5	R1468J
235.401	6.891	539005	REC_WORD	6.891	n/a	DAFFODIL	Flowers	9	1	[0, 0, 0]	n/a	catFR1	5	R1468J
242.292	19.379	545896	REC_WORD	19.379	n/a	LILAC	Flowers	5	1	[0, 0, 0]	n/a	catFR1	5	R1468J
261.671	3.228	565274	REC_WORD	3.228	n/a	DAISY	Flowers	10	1	[0, 0, 0]	n/a	catFR1	5	R1468J
264.899	6.968	568507	REC_END	n/a	n/a	n/a	n/a	-999	1	[0, 0, 0]	n/a	catFR1	5	R1468J
271.867	10.35	575474	COUNTDOWN_START	n/a	n/a	n/a	n/a	-999	1	[0, 0, 0]	n/a	catFR1	5	R1468J
282.217	0.0	585821	COUNTDOWN_END	n/a	n/a	n/a	n/a	-999	1	[0, 0, 0]	n/a	catFR1	5	R1468J
282.217	2.017	585821	ENCODING_START	n/a	n/a	n/a	n/a	-999	2	[0, 0, 0]	n/a	catFR1	5	R1468J
284.234	1.6	587840	WORD	n/a	wordpools/wordpool_categorized_EN.txt	DOLLHOUSE	Toys	1	2	[0, 0, 0]	n/a	catFR1	5	R1468J
285.834	0.9	589432	WORD_OFF	n/a	n/a	DOLLHOUSE	Toys	1	2	[0, 0, 0]	n/a	catFR1	5	R1468J
286.734	1.616	590331	WORD	n/a	wordpools/wordpool_categorized_EN.txt	FOOTBALL	Toys	2	2	[0, 0, 0]	n/a	catFR1	5	R1468J
288.35	0.766	591958	WORD_OFF	n/a	n/a	FOOTBALL	Toys	2	2	[0, 0, 0]	n/a	catFR1	5	R1468J
289.116	1.601	592719	WORD	n/a	wordpools/wordpool_categorized_EN.txt	FOG	Weather	3	2	[0, 0, 0]	n/a	catFR1	5	R1468J
290.717	0.833	594322	WORD_OFF	n/a	n/a	FOG	Weather	3	2	[0, 0, 0]	n/a	catFR1	5	R1468J
291.55	1.6	595153	WORD	n/a	wordpools/wordpool_categorized_EN.txt	THUNDERSTORM	Weather	4	2	[0, 0, 0]	n/a	catFR1	5	R1468J
293.15	0.817	596756	WORD_OFF	n/a	n/a	THUNDERSTORM	Weather	4	2	[0, 0, 0]	n/a	catFR1	5	R1468J
293.967	1.617	597564	WORD	n/a	wordpools/wordpool_categorized_EN.txt	SHEEP	FarmAnimals	5	2	[0, 0, 0]	n/a	catFR1	5	R1468J
295.584	0.815	599190	WORD_OFF	n/a	n/a	SHEEP	FarmAnimals	5	2	[0, 0, 0]	n/a	catFR1	5	R1468J
296.399	1.601	599998	WORD	n/a	wordpools/wordpool_categorized_EN.txt	TURKEY	FarmAnimals	6	2	[0, 0, 0]	n/a	catFR1	5	R1468J
298.0	0.999	601601	WORD_OFF	n/a	n/a	TURKEY	FarmAnimals	6	2	[0, 0, 0]	n/a	catFR1	5	R1468J
298.999	1.601	602604	WORD	n/a	wordpools/wordpool_categorized_EN.txt	DOLL	Toys	7	2	[0, 0, 0]	n/a	catFR1	5	R1468J
300.6	0.884	604196	WORD_OFF	n/a	n/a	DOLL	Toys	7	2	[0, 0, 0]	n/a	catFR1	5	R1468J
301.484	1.6	605084	WORD	n/a	wordpools/wordpool_categorized_EN.txt	SLINKY	Toys	8	2	[0, 0, 0]	n/a	catFR1	5	R1468J
303.084	0.866	606688	WORD_OFF	n/a	n/a	SLINKY	Toys	8	2	[0, 0, 0]	n/a	catFR1	5	R1468J
303.95	1.6	607553	WORD	n/a	wordpools/wordpool_categorized_EN.txt	GOAT	FarmAnimals	9	2	[0, 0, 0]	n/a	catFR1	5	R1468J
305.55	0.8	609156	WORD_OFF	n/a	n/a	GOAT	FarmAnimals	9	2	[0, 0, 0]	n/a	catFR1	5	R1468J
306.35	1.601	609952	WORD	n/a	wordpools/wordpool_categorized_EN.txt	BULL	FarmAnimals	10	2	[0, 0, 0]	n/a	catFR1	5	R1468J
307.951	0.983	611556	WORD_OFF	n/a	n/a	BULL	FarmAnimals	10	2	[0, 0, 0]	n/a	catFR1	5	R1468J
308.934	1.616	612536	WORD	n/a	wordpools/wordpool_categorized_EN.txt	LIGHTNING	Weather	11	2	[0, 0, 0]	n/a	catFR1	5	R1468J
310.55	0.949	614151	WORD_OFF	n/a	n/a	LIGHTNING	Weather	11	2	[0, 0, 0]	n/a	catFR1	5	R1468J
311.499	1.601	615097	WORD	n/a	wordpools/wordpool_categorized_EN.txt	HURRICANE	Weather	12	2	[0, 0, 0]	n/a	catFR1	5	R1468J
313.1	0.001	616700	WORD_OFF	n/a	n/a	HURRICANE	Weather	12	2	[0, 0, 0]	n/a	catFR1	5	R1468J
313.101	0.0	616700	ENCODING_END	n/a	n/a	n/a	n/a	-999	2	[0, 0, 0]	n/a	catFR1	5	R1468J
313.101	0.0	616700	DISTRACT_START	n/a	n/a	n/a	n/a	-999	2	[0, 0, 0]	n/a	catFR1	5	R1468J
313.1	0.001	616701	PROB	0.001	n/a	n/a	n/a	-999	2	[5, 3, 4]	12	catFR1	5	R1468J
313.101	6.616	616702	START	n/a	n/a	n/a	n/a	-999	2	[-999, -999, -999]	n/a	catFR1	5	R1468J
319.717	11.983	623318	PROB	11.983	n/a	n/a	n/a	-999	2	[6, 7, 4]	18	catFR1	5	R1468J
331.7	3.532	635300	PROB	3.532	n/a	n/a	n/a	-999	2	[4, 3, 1]	8	catFR1	5	R1468J
335.232	0.0	638832	STOP	n/a	n/a	n/a	n/a	-999	2	[-999, -999, -999]	n/a	catFR1	5	R1468J
335.232	1.217	638836	DISTRACT_END	n/a	n/a	n/a	n/a	-999	2	[0, 0, 0]	n/a	catFR1	5	R1468J
336.449	2.446	640047	REC_START	n/a	n/a	n/a	n/a	-999	2	[0, 0, 0]	n/a	catFR1	5	R1468J
338.895	0.556	642495	REC_WORD	0.556	n/a	DOLL	Toys	7	2	[0, 0, 0]	n/a	catFR1	5	R1468J
339.451	8.321	643051	REC_WORD	8.321	n/a	DOLLHOUSE	Toys	1	2	[0, 0, 0]	n/a	catFR1	5	R1468J
347.772	2.667	651372	REC_WORD	2.667	n/a	DOLL	Toys	7	2	[0, 0, 0]	n/a	catFR1	5	R1468J
350.439	5.304	654039	REC_WORD	5.304	n/a	THUNDERSTORM	Weather	4	2	[0, 0, 0]	n/a	catFR1	5	R1468J
355.743	11.912	659342	REC_WORD	11.912	n/a	PLANKTON	OceanAnimals	-999	2	[0, 0, 0]	n/a	catFR1	5	R1468J
367.655	5.428	671248	REC_END	n/a	n/a	n/a	n/a	-999	2	[0, 0, 0]	n/a	catFR1	5	R1468J
373.083	10.351	676681	COUNTDOWN_START	n/a	n/a	n/a	n/a	-999	2	[0, 0, 0]	n/a	catFR1	5	R1468J
383.434	0.0	687028	COUNTDOWN_END	n/a	n/a	n/a	n/a	-999	2	[0, 0, 0]	n/a	catFR1	5	R1468J
383.434	1.983	687028	ENCODING_START	n/a	n/a	n/a	n/a	-999	3	[0, 0, 0]	n/a	catFR1	5	R1468J
385.417	1.616	689012	WORD	n/a	wordpools/wordpool_categorized_EN.txt	MIXER	Appliances	1	3	[0, 0, 0]	n/a	catFR1	5	R1468J
387.033	0.984	690627	WORD_OFF	n/a	n/a	MIXER	Appliances	1	3	[0, 0, 0]	n/a	catFR1	5	R1468J
388.017	1.616	691619	WORD	n/a	wordpools/wordpool_categorized_EN.txt	DISHWASHER	Appliances	2	3	[0, 0, 0]	n/a	catFR1	5	R1468J
389.633	0.867	693234	WORD_OFF	n/a	n/a	DISHWASHER	Appliances	2	3	[0, 0, 0]	n/a	catFR1	5	R1468J
390.5	1.615	694099	WORD	n/a	wordpools/wordpool_categorized_EN.txt	CELLO	Instruments	3	3	[0, 0, 0]	n/a	catFR1	5	R1468J
392.115	0.785	695714	WORD_OFF	n/a	n/a	CELLO	Instruments	3	3	[0, 0, 0]	n/a	catFR1	5	R1468J
392.9	1.601	696498	WORD	n/a	wordpools/wordpool_categorized_EN.txt	BANJO	Instruments	4	3	[0, 0, 0]	n/a	catFR1	5	R1468J
394.501	0.915	698102	WORD_OFF	n/a	n/a	BANJO	Instruments	4	3	[0, 0, 0]	n/a	catFR1	5	R1468J
395.416	1.601	699013	WORD	n/a	wordpools/wordpool_categorized_EN.txt	TIGER	Zoo	5	3	[0, 0, 0]	n/a	catFR1	5	R1468J
397.017	0.967	700616	WORD_OFF	n/a	n/a	TIGER	Zoo	5	3	[0, 0, 0]	n/a	catFR1	5	R1468J
397.984	1.616	701585	WORD	n/a	wordpools/wordpool_categorized_EN.txt	CHEETAH	Zoo	6	3	[0, 0, 0]	n/a	catFR1	5	R1468J
399.6	0.999	703200	WORD_OFF	n/a	n/a	CHEETAH	Zoo	6	3	[0, 0, 0]	n/a	catFR1	5	R1468J
400.599	1.6	704192	WORD	n/a	wordpools/wordpool_categorized_EN.txt	OVEN	Appliances	7	3	[0, 0, 0]	n/a	catFR1	5	R1468J
402.199	0.935	705795	WORD_OFF	n/a	n/a	OVEN	Appliances	7	3	[0, 0, 0]	n/a	catFR1	5	R1468J
403.134	1.599	706730	WORD	n/a	wordpools/wordpool_categorized_EN.txt	FREEZER	Appliances	8	3	[0, 0, 0]	n/a	catFR1	5	R1468J
404.733	0.934	708333	WORD_OFF	n/a	n/a	FREEZER	Appliances	8	3	[0, 0, 0]	n/a	catFR1	5	R1468J
405.667	1.617	709267	WORD	n/a	wordpools/wordpool_categorized_EN.txt	ORANGUTAN	Zoo	9	3	[0, 0, 0]	n/a	catFR1	5	R1468J
407.284	1.0	710882	WORD_OFF	n/a	n/a	ORANGUTAN	Zoo	9	3	[0, 0, 0]	n/a	catFR1	5	R1468J
408.284	1.616	711886	WORD	n/a	wordpools/wordpool_categorized_EN.txt	ZEBRA	Zoo	10	3	[0, 0, 0]	n/a	catFR1	5	R1468J
409.9	0.9	713501	WORD_OFF	n/a	n/a	ZEBRA	Zoo	10	3	[0, 0, 0]	n/a	catFR1	5	R1468J
410.8	1.6	714400	WORD	n/a	wordpools/wordpool_categorized_EN.txt	TUBA	Instruments	11	3	[0, 0, 0]	n/a	catFR1	5	R1468J
412.4	0.967	715992	WORD_OFF	n/a	n/a	TUBA	Instruments	11	3	[0, 0, 0]	n/a	catFR1	5	R1468J
413.367	1.616	716961	WORD	n/a	wordpools/wordpool_categorized_EN.txt	TROMBONE	Instruments	12	3	[0, 0, 0]	n/a	catFR1	5	R1468J
414.983	0.001	718576	WORD_OFF	n/a	n/a	TROMBONE	Instruments	12	3	[0, 0, 0]	n/a	catFR1	5	R1468J
414.984	0.0	718576	ENCODING_END	n/a	n/a	n/a	n/a	-999	3	[0, 0, 0]	n/a	catFR1	5	R1468J
414.983	0.001	718580	PROB	0.001	n/a	n/a	n/a	-999	3	[2, 8, 2]	12	catFR1	5	R1468J
414.984	0.0	718581	START	n/a	n/a	n/a	n/a	-999	3	[-999, -999, -999]	n/a	catFR1	5	R1468J
414.984	4.733	718588	DISTRACT_START	n/a	n/a	n/a	n/a	-999	3	[0, 0, 0]	n/a	catFR1	5	R1468J
419.717	6.434	723314	PROB	6.434	n/a	n/a	n/a	-999	3	[3, 1, 2]	6	catFR1	5	R1468J
426.151	4.082	729747	PROB	4.082	n/a	n/a	n/a	-999	3	[7, 2, 4]	13	catFR1	5	R1468J
430.233	5.016	733829	PROB	5.016	n/a	n/a	n/a	-999	3	[3, 2, 5]	10	catFR1	5	R1468J
435.249	0.0	738843	DISTRACT_END	n/a	n/a	n/a	n/a	-999	3	[0, 0, 0]	n/a	catFR1	5	R1468J
435.249	1.183	738845	STOP	n/a	n/a	n/a	n/a	-999	3	[-999, -999, -999]	n/a	catFR1	5	R1468J
436.432	1.459	740031	REC_START	n/a	n/a	n/a	n/a	-999	3	[0, 0, 0]	n/a	catFR1	5	R1468J
437.891	1.083	741487	REC_WORD	1.083	n/a	TUBA	Instruments	11	3	[0, 0, 0]	n/a	catFR1	5	R1468J
438.974	0.975	742570	REC_WORD	0.975	n/a	TROMBONE	Instruments	12	3	[0, 0, 0]	n/a	catFR1	5	R1468J
439.949	1.075	743545	REC_WORD_VV	1.075	n/a	<>	n/a	-999	3	[0, 0, 0]	n/a	catFR1	5	R1468J
441.024	4.505	744620	REC_WORD	4.505	n/a	MIXER	Appliances	1	3	[0, 0, 0]	n/a	catFR1	5	R1468J
445.529	3.759	749125	REC_WORD	3.759	n/a	DISHWASHER	Appliances	2	3	[0, 0, 0]	n/a	catFR1	5	R1468J
449.288	11.398	752883	REC_WORD	11.398	n/a	MIXER	Appliances	1	3	[0, 0, 0]	n/a	catFR1	5	R1468J
460.686	6.927	764281	REC_WORD	6.927	n/a	FLUTE	Instruments	-999	3	[0, 0, 0]	n/a	catFR1	5	R1468J
467.613	74.035	771210	REC_END	n/a	n/a	n/a	n/a	-999	3	[0, 0, 0]	n/a	catFR1	5	R1468J
541.648	10.351	845241	COUNTDOWN_START	n/a	n/a	n/a	n/a	-999	3	[0, 0, 0]	n/a	catFR1	5	R1468J
551.999	0.0	855587	COUNTDOWN_END	n/a	n/a	n/a	n/a	-999	3	[0, 0, 0]	n/a	catFR1	5	R1468J
551.999	2.082	855587	ENCODING_START	n/a	n/a	n/a	n/a	-999	4	[0, 0, 0]	n/a	catFR1	5	R1468J
554.081	1.601	857675	WORD	n/a	wordpools/wordpool_categorized_EN.txt	ROSE	Flowers	1	4	[0, 0, 0]	n/a	catFR1	5	R1468J
555.682	0.9	859278	WORD_OFF	n/a	n/a	ROSE	Flowers	1	4	[0, 0, 0]	n/a	catFR1	5	R1468J
556.582	1.6	860178	WORD	n/a	wordpools/wordpool_categorized_EN.txt	TULIP	Flowers	2	4	[0, 0, 0]	n/a	catFR1	5	R1468J
558.182	0.782	861770	WORD_OFF	n/a	n/a	TULIP	Flowers	2	4	[0, 0, 0]	n/a	catFR1	5	R1468J
558.964	1.601	862554	WORD	n/a	wordpools/wordpool_categorized_EN.txt	APPLE	Fruit	3	4	[0, 0, 0]	n/a	catFR1	5	R1468J
560.565	0.834	864158	WORD_OFF	n/a	n/a	APPLE	Fruit	3	4	[0, 0, 0]	n/a	catFR1	5	R1468J
561.399	1.6	864988	WORD	n/a	wordpools/wordpool_categorized_EN.txt	LIME	Fruit	4	4	[0, 0, 0]	n/a	catFR1	5	R1468J
562.999	0.816	866592	WORD_OFF	n/a	n/a	LIME	Fruit	4	4	[0, 0, 0]	n/a	catFR1	5	R1468J
563.815	1.6	867411	WORD	n/a	wordpools/wordpool_categorized_EN.txt	WATER	Beverages	5	4	[0, 0, 0]	n/a	catFR1	5	R1468J
565.415	0.834	869002	WORD_OFF	n/a	n/a	WATER	Beverages	5	4	[0, 0, 0]	n/a	catFR1	5	R1468J
566.249	1.6	869844	WORD	n/a	wordpools/wordpool_categorized_EN.txt	COFFEE	Beverages	6	4	[0, 0, 0]	n/a	catFR1	5	R1468J
567.849	0.966	871436	WORD_OFF	n/a	n/a	COFFEE	Beverages	6	4	[0, 0, 0]	n/a	catFR1	5	R1468J
568.815	1.601	872405	WORD	n/a	wordpools/wordpool_categorized_EN.txt	PETUNIA	Flowers	7	4	[0, 0, 0]	n/a	catFR1	5	R1468J
570.416	0.833	874009	WORD_OFF	n/a	n/a	PETUNIA	Flowers	7	4	[0, 0, 0]	n/a	catFR1	5	R1468J
571.249	1.6	874839	WORD	n/a	wordpools/wordpool_categorized_EN.txt	MARIGOLD	Flowers	8	4	[0, 0, 0]	n/a	catFR1	5	R1468J
572.849	0.783	876442	WORD_OFF	n/a	n/a	MARIGOLD	Flowers	8	4	[0, 0, 0]	n/a	catFR1	5	R1468J
573.632	1.6	877227	WORD	n/a	wordpools/wordpool_categorized_EN.txt	LEMONADE	Beverages	9	4	[0, 0, 0]	n/a	catFR1	5	R1468J
575.232	0.899	878819	WORD_OFF	n/a	n/a	LEMONADE	Beverages	9	4	[0, 0, 0]	n/a	catFR1	5	R1468J
576.131	1.601	879718	WORD	n/a	wordpools/wordpool_categorized_EN.txt	COLA	Beverages	10	4	[0, 0, 0]	n/a	catFR1	5	R1468J
577.732	0.783	881322	WORD_OFF	n/a	n/a	COLA	Beverages	10	4	[0, 0, 0]	n/a	catFR1	5	R1468J
578.515	1.601	882106	WORD	n/a	wordpools/wordpool_categorized_EN.txt	PEAR	Fruit	11	4	[0, 0, 0]	n/a	catFR1	5	R1468J
580.116	0.8	883709	WORD_OFF	n/a	n/a	PEAR	Fruit	11	4	[0, 0, 0]	n/a	catFR1	5	R1468J
580.916	1.6	884505	WORD	n/a	wordpools/wordpool_categorized_EN.txt	STRAWBERRY	Fruit	12	4	[0, 0, 0]	n/a	catFR1	5	R1468J
582.516	0.002	886106	PROB	0.002	n/a	n/a	n/a	-999	4	[5, 6, 3]	14	catFR1	5	R1468J
582.518	0.0	886108	START	n/a	n/a	n/a	n/a	-999	4	[-999, -999, -999]	n/a	catFR1	5	R1468J
582.516	0.002	886109	WORD_OFF	n/a	n/a	STRAWBERRY	Fruit	12	4	[0, 0, 0]	n/a	catFR1	5	R1468J
582.518	0.0	886109	ENCODING_END	n/a	n/a	n/a	n/a	-999	4	[0, 0, 0]	n/a	catFR1	5	R1468J
582.518	4.831	886109	DISTRACT_START	n/a	n/a	n/a	n/a	-999	4	[0, 0, 0]	n/a	catFR1	5	R1468J
587.349	3.917	890939	PROB	3.917	n/a	n/a	n/a	-999	4	[2, 1, 4]	7	catFR1	5	R1468J
591.266	3.2	894855	PROB	3.2	n/a	n/a	n/a	-999	4	[2, 2, 5]	9	catFR1	5	R1468J
594.466	10.8	898055	PROB	10.8	n/a	n/a	n/a	-999	4	[7, 2, 5]	14	catFR1	5	R1468J
605.266	0.0	908855	DISTRACT_END	n/a	n/a	n/a	n/a	-999	4	[0, 0, 0]	n/a	catFR1	5	R1468J
605.266	1.098	908855	STOP	n/a	n/a	n/a	n/a	-999	4	[-999, -999, -999]	n/a	catFR1	5	R1468J
606.364	1.168	909951	REC_START	n/a	n/a	n/a	n/a	-999	4	[0, 0, 0]	n/a	catFR1	5	R1468J
607.532	2.74	911121	REC_WORD	2.74	n/a	STRAWBERRY	Fruit	12	4	[0, 0, 0]	n/a	catFR1	5	R1468J
610.272	19.803	913861	REC_WORD	19.803	n/a	COLA	Beverages	10	4	[0, 0, 0]	n/a	catFR1	5	R1468J
630.075	2.548	933663	REC_WORD_VV	2.548	n/a	<>	n/a	-999	4	[0, 0, 0]	n/a	catFR1	5	R1468J
632.623	4.918	936211	REC_WORD	4.918	n/a	COFFEE	Beverages	6	4	[0, 0, 0]	n/a	catFR1	5	R1468J
637.541	4.523	941130	REC_END	n/a	n/a	n/a	n/a	-999	4	[0, 0, 0]	n/a	catFR1	5	R1468J
642.064	10.352	945652	COUNTDOWN_START	n/a	n/a	n/a	n/a	-999	4	[0, 0, 0]	n/a	catFR1	5	R1468J
652.416	0.0	955998	COUNTDOWN_END	n/a	n/a	n/a	n/a	-999	4	[0, 0, 0]	n/a	catFR1	5	R1468J
652.416	2.215	956010	ENCODING_START	n/a	n/a	n/a	n/a	-999	5	[0, 0, 0]	n/a	catFR1	5	R1468J
654.631	1.601	958213	WORD	n/a	wordpools/wordpool_categorized_EN.txt	VIOLET	Flowers	1	5	[0, 0, 0]	n/a	catFR1	5	R1468J
656.232	0.833	959816	WORD_OFF	n/a	n/a	VIOLET	Flowers	1	5	[0, 0, 0]	n/a	catFR1	5	R1468J
657.065	1.6	960647	WORD	n/a	wordpools/wordpool_categorized_EN.txt	LILY	Flowers	2	5	[0, 0, 0]	n/a	catFR1	5	R1468J
658.665	0.817	962250	WORD_OFF	n/a	n/a	LILY	Flowers	2	5	[0, 0, 0]	n/a	catFR1	5	R1468J
659.482	1.616	963069	WORD	n/a	wordpools/wordpool_categorized_EN.txt	SPINACH	Vegetables	3	5	[0, 0, 0]	n/a	catFR1	5	R1468J
661.098	0.766	964684	WORD_OFF	n/a	n/a	SPINACH	Vegetables	3	5	[0, 0, 0]	n/a	catFR1	5	R1468J
661.864	1.601	965457	WORD	n/a	wordpools/wordpool_categorized_EN.txt	CAULIFLOWER	Vegetables	4	5	[0, 0, 0]	n/a	catFR1	5	R1468J
663.465	0.866	967049	WORD_OFF	n/a	n/a	CAULIFLOWER	Vegetables	4	5	[0, 0, 0]	n/a	catFR1	5	R1468J
664.331	1.601	967914	WORD	n/a	wordpools/wordpool_categorized_EN.txt	SOFA	Furniture	5	5	[0, 0, 0]	n/a	catFR1	5	R1468J
665.932	0.817	969517	WORD_OFF	n/a	n/a	SOFA	Furniture	5	5	[0, 0, 0]	n/a	catFR1	5	R1468J
666.749	1.6	970336	WORD	n/a	wordpools/wordpool_categorized_EN.txt	TABLE	Furniture	6	5	[0, 0, 0]	n/a	catFR1	5	R1468J
668.349	0.967	971940	WORD_OFF	n/a	n/a	TABLE	Furniture	6	5	[0, 0, 0]	n/a	catFR1	5	R1468J
669.316	1.616	972897	WORD	n/a	wordpools/wordpool_categorized_EN.txt	CARNATION	Flowers	7	5	[0, 0, 0]	n/a	catFR1	5	R1468J
670.932	0.801	974523	WORD_OFF	n/a	n/a	CARNATION	Flowers	7	5	[0, 0, 0]	n/a	catFR1	5	R1468J
671.733	1.616	975319	WORD	n/a	wordpools/wordpool_categorized_EN.txt	SUNFLOWER	Flowers	8	5	[0, 0, 0]	n/a	catFR1	5	R1468J
673.349	0.9	976934	WORD_OFF	n/a	n/a	SUNFLOWER	Flowers	8	5	[0, 0, 0]	n/a	catFR1	5	R1468J
674.249	1.615	977834	WORD	n/a	wordpools/wordpool_categorized_EN.txt	DRESSER	Furniture	9	5	[0, 0, 0]	n/a	catFR1	5	R1468J
675.864	0.901	979449	WORD_OFF	n/a	n/a	DRESSER	Furniture	9	5	[0, 0, 0]	n/a	catFR1	5	R1468J
676.765	1.6	980349	WORD	n/a	wordpools/wordpool_categorized_EN.txt	DESK	Furniture	10	5	[0, 0, 0]	n/a	catFR1	5	R1468J
678.365	0.933	981952	WORD_OFF	n/a	n/a	DESK	Furniture	10	5	[0, 0, 0]	n/a	catFR1	5	R1468J
679.298	1.618	982886	WORD	n/a	wordpools/wordpool_categorized_EN.txt	CORN	Vegetables	11	5	[0, 0, 0]	n/a	catFR1	5	R1468J
680.916	0.984	984501	WORD_OFF	n/a	n/a	CORN	Vegetables	11	5	[0, 0, 0]	n/a	catFR1	5	R1468J
681.9	1.616	985482	WORD	n/a	wordpools/wordpool_categorized_EN.txt	CABBAGE	Vegetables	12	5	[0, 0, 0]	n/a	catFR1	5	R1468J
683.516	0.0	987096	WORD_OFF	n/a	n/a	CABBAGE	Vegetables	12	5	[0, 0, 0]	n/a	catFR1	5	R1468J
683.516	0.001	987102	PROB	0.001	n/a	n/a	n/a	-999	5	[5, 8, 6]	19	catFR1	5	R1468J
683.517	0.0	987103	START	n/a	n/a	n/a	n/a	-999	5	[-999, -999, -999]	n/a	catFR1	5	R1468J
683.517	0.0	987108	ENCODING_END	n/a	n/a	n/a	n/a	-999	5	[0, 0, 0]	n/a	catFR1	5	R1468J
683.517	8.332	987108	DISTRACT_START	n/a	n/a	n/a	n/a	-999	5	[0, 0, 0]	n/a	catFR1	5	R1468J
691.849	4.083	995434	PROB	4.083	n/a	n/a	n/a	-999	5	[7, 2, 7]	16	catFR1	5	R1468J
695.932	6.367	999517	PROB	6.367	n/a	n/a	n/a	-999	5	[5, 8, 4]	17	catFR1	5	R1468J
702.299	6.516	1005884	PROB	6.516	n/a	n/a	n/a	-999	5	[6, 7, 1]	14	catFR1	5	R1468J
708.815	0.0	1012399	STOP	n/a	n/a	n/a	n/a	-999	5	[-999, -999, -999]	n/a	catFR1	5	R1468J
708.815	1.133	1012404	DISTRACT_END	n/a	n/a	n/a	n/a	-999	5	[0, 0, 0]	n/a	catFR1	5	R1468J
709.948	1.907	1013534	REC_START	n/a	n/a	n/a	n/a	-999	5	[0, 0, 0]	n/a	catFR1	5	R1468J
711.855	11.389	1015439	REC_WORD	11.389	n/a	CAULIFLOWER	Vegetables	4	5	[0, 0, 0]	n/a	catFR1	5	R1468J
723.244	1.182	1026828	REC_WORD_VV	1.182	n/a	<>	n/a	-999	5	[0, 0, 0]	n/a	catFR1	5	R1468J
724.426	3.675	1028010	REC_WORD	3.675	n/a	VIOLET	Flowers	1	5	[0, 0, 0]	n/a	catFR1	5	R1468J
728.101	2.451	1031685	REC_WORD	2.451	n/a	SOFA	Furniture	5	5	[0, 0, 0]	n/a	catFR1	5	R1468J
730.552	3.933	1034136	REC_WORD	3.933	n/a	CHAIR	Furniture	-999	5	[0, 0, 0]	n/a	catFR1	5	R1468J
734.485	2.307	1038068	REC_WORD	2.307	n/a	TABLE	Furniture	6	5	[0, 0, 0]	n/a	catFR1	5	R1468J
736.792	4.337	1040375	REC_WORD	4.337	n/a	DAFFODIL	Flowers	-999	5	[0, 0, 0]	n/a	catFR1	5	R1468J
741.129	3.538	1044713	REC_END	n/a	n/a	n/a	n/a	-999	5	[0, 0, 0]	n/a	catFR1	5	R1468J
744.667	10.349	1048254	COUNTDOWN_START	n/a	n/a	n/a	n/a	-999	5	[0, 0, 0]	n/a	catFR1	5	R1468J
755.016	0.0	1058601	COUNTDOWN_END	n/a	n/a	n/a	n/a	-999	5	[0, 0, 0]	n/a	catFR1	5	R1468J
755.016	1.901	1058601	ENCODING_START	n/a	n/a	n/a	n/a	-999	6	[0, 0, 0]	n/a	catFR1	5	R1468J
756.917	1.6	1060504	WORD	n/a	wordpools/wordpool_categorized_EN.txt	HEN	FarmAnimals	1	6	[0, 0, 0]	n/a	catFR1	5	R1468J
758.517	0.766	1062096	WORD_OFF	n/a	n/a	HEN	FarmAnimals	1	6	[0, 0, 0]	n/a	catFR1	5	R1468J
759.283	1.6	1062869	WORD	n/a	wordpools/wordpool_categorized_EN.txt	ROOSTER	FarmAnimals	2	6	[0, 0, 0]	n/a	catFR1	5	R1468J
760.883	0.85	1064461	WORD_OFF	n/a	n/a	ROOSTER	FarmAnimals	2	6	[0, 0, 0]	n/a	catFR1	5	R1468J
761.733	1.6	1065314	WORD	n/a	wordpools/wordpool_categorized_EN.txt	DOOR	Building	3	6	[0, 0, 0]	n/a	catFR1	5	R1468J
763.333	0.999	1066918	WORD_OFF	n/a	n/a	DOOR	Building	3	6	[0, 0, 0]	n/a	catFR1	5	R1468J
764.332	1.602	1067910	WORD	n/a	wordpools/wordpool_categorized_EN.txt	WINDOW	Building	4	6	[0, 0, 0]	n/a	catFR1	5	R1468J
765.934	0.883	1069513	WORD_OFF	n/a	n/a	WINDOW	Building	4	6	[0, 0, 0]	n/a	catFR1	5	R1468J
766.817	1.617	1070401	WORD	n/a	wordpools/wordpool_categorized_EN.txt	TURTLE	OceanAnimals	5	6	[0, 0, 0]	n/a	catFR1	5	R1468J
768.434	0.766	1072016	WORD_OFF	n/a	n/a	TURTLE	OceanAnimals	5	6	[0, 0, 0]	n/a	catFR1	5	R1468J
769.2	1.6	1072778	WORD	n/a	wordpools/wordpool_categorized_EN.txt	FISH	OceanAnimals	6	6	[0, 0, 0]	n/a	catFR1	5	R1468J
770.8	0.95	1074381	WORD_OFF	n/a	n/a	FISH	OceanAnimals	6	6	[0, 0, 0]	n/a	catFR1	5	R1468J
771.75	1.6	1075338	WORD	n/a	wordpools/wordpool_categorized_EN.txt	PIG	FarmAnimals	7	6	[0, 0, 0]	n/a	catFR1	5	R1468J
773.35	0.767	1076930	WORD_OFF	n/a	n/a	PIG	FarmAnimals	7	6	[0, 0, 0]	n/a	catFR1	5	R1468J
774.117	1.617	1077703	WORD	n/a	wordpools/wordpool_categorized_EN.txt	LAMB	FarmAnimals	8	6	[0, 0, 0]	n/a	catFR1	5	R1468J
775.734	0.982	1079318	WORD_OFF	n/a	n/a	LAMB	FarmAnimals	8	6	[0, 0, 0]	n/a	catFR1	5	R1468J
776.716	1.601	1080298	WORD	n/a	wordpools/wordpool_categorized_EN.txt	OYSTER	OceanAnimals	9	6	[0, 0, 0]	n/a	catFR1	5	R1468J
778.317	0.917	1081902	WORD_OFF	n/a	n/a	OYSTER	OceanAnimals	9	6	[0, 0, 0]	n/a	catFR1	5	R1468J
779.234	1.6	1082813	WORD	n/a	wordpools/wordpool_categorized_EN.txt	JELLYFISH	OceanAnimals	10	6	[0, 0, 0]	n/a	catFR1	5	R1468J
780.834	0.85	1084416	WORD_OFF	n/a	n/a	JELLYFISH	OceanAnimals	10	6	[0, 0, 0]	n/a	catFR1	5	R1468J
781.684	1.6	1085270	WORD	n/a	wordpools/wordpool_categorized_EN.txt	ATTIC	Building	11	6	[0, 0, 0]	n/a	catFR1	5	R1468J
783.284	0.883	1086862	WORD_OFF	n/a	n/a	ATTIC	Building	11	6	[0, 0, 0]	n/a	catFR1	5	R1468J
784.167	1.616	1087750	WORD	n/a	wordpools/wordpool_categorized_EN.txt	BATHROOM	Building	12	6	[0, 0, 0]	n/a	catFR1	5	R1468J
785.783	0.002	1089365	WORD_OFF	n/a	n/a	BATHROOM	Building	12	6	[0, 0, 0]	n/a	catFR1	5	R1468J
785.785	0.0	1089365	ENCODING_END	n/a	n/a	n/a	n/a	-999	6	[0, 0, 0]	n/a	catFR1	5	R1468J
785.785	0.0	1089365	DISTRACT_START	n/a	n/a	n/a	n/a	-999	6	[0, 0, 0]	n/a	catFR1	5	R1468J
785.784	0.001	1089365	PROB	0.001	n/a	n/a	n/a	-999	6	[7, 2, 8]	17	catFR1	5	R1468J
785.785	4.516	1089366	START	n/a	n/a	n/a	n/a	-999	6	[-999, -999, -999]	n/a	catFR1	5	R1468J
790.301	3.383	1093882	PROB	3.383	n/a	n/a	n/a	-999	6	[3, 3, 2]	8	catFR1	5	R1468J
793.684	3.833	1097265	PROB	3.833	n/a	n/a	n/a	-999	6	[2, 4, 1]	7	catFR1	5	R1468J
797.517	6.783	1101098	PROB	6.783	n/a	n/a	n/a	-999	6	[1, 5, 5]	11	catFR1	5	R1468J
804.3	7.1	1107880	PROB	7.1	n/a	n/a	n/a	-999	6	[2, 7, 2]	11	catFR1	5	R1468J
811.4	0.0	1114980	STOP	n/a	n/a	n/a	n/a	-999	6	[-999, -999, -999]	n/a	catFR1	5	R1468J
811.4	1.183	1114984	DISTRACT_END	n/a	n/a	n/a	n/a	-999	6	[0, 0, 0]	n/a	catFR1	5	R1468J
812.583	1.978	1116160	REC_START	n/a	n/a	n/a	n/a	-999	6	[0, 0, 0]	n/a	catFR1	5	R1468J
814.561	1.422	1118141	REC_WORD	1.422	n/a	ROOSTER	FarmAnimals	2	6	[0, 0, 0]	n/a	catFR1	5	R1468J
815.983	2.133	1119563	REC_WORD	2.133	n/a	HEN	FarmAnimals	1	6	[0, 0, 0]	n/a	catFR1	5	R1468J
818.116	15.764	1121696	REC_WORD	15.764	n/a	JELLYFISH	OceanAnimals	10	6	[0, 0, 0]	n/a	catFR1	5	R1468J
833.88	8.7	1137459	REC_WORD	8.7	n/a	WINDOW	Building	4	6	[0, 0, 0]	n/a	catFR1	5	R1468J
842.58	1.238	1146159	REC_WORD_VV	1.238	n/a	<>	n/a	-999	6	[0, 0, 0]	n/a	catFR1	5	R1468J
843.818	3.282	1147397	REC_END	n/a	n/a	n/a	n/a	-999	6	[0, 0, 0]	n/a	catFR1	5	R1468J
847.1	10.35	1150684	COUNTDOWN_START	n/a	n/a	n/a	n/a	-999	6	[0, 0, 0]	n/a	catFR1	5	R1468J
857.45	0.0	1161031	COUNTDOWN_END	n/a	n/a	n/a	n/a	-999	6	[0, 0, 0]	n/a	catFR1	5	R1468J
857.45	1.85	1161031	ENCODING_START	n/a	n/a	n/a	n/a	-999	7	[0, 0, 0]	n/a	catFR1	5	R1468J
859.3	1.617	1162876	WORD	n/a	wordpools/wordpool_categorized_EN.txt	RIVER	Landscapes	1	7	[0, 0, 0]	n/a	catFR1	5	R1468J
860.917	0.867	1164491	WORD_OFF	n/a	n/a	RIVER	Landscapes	1	7	[0, 0, 0]	n/a	catFR1	5	R1468J
861.784	1.6	1165356	WORD	n/a	wordpools/wordpool_categorized_EN.txt	VALLEY	Landscapes	2	7	[0, 0, 0]	n/a	catFR1	5	R1468J
863.384	0.8	1166960	WORD_OFF	n/a	n/a	VALLEY	Landscapes	2	7	[0, 0, 0]	n/a	catFR1	5	R1468J
864.184	1.6	1167767	WORD	n/a	wordpools/wordpool_categorized_EN.txt	WINE	Beverages	3	7	[0, 0, 0]	n/a	catFR1	5	R1468J
865.784	0.949	1169359	WORD_OFF	n/a	n/a	WINE	Beverages	3	7	[0, 0, 0]	n/a	catFR1	5	R1468J
866.733	1.601	1170316	WORD	n/a	wordpools/wordpool_categorized_EN.txt	JUICE	Beverages	4	7	[0, 0, 0]	n/a	catFR1	5	R1468J
868.334	0.9	1171908	WORD_OFF	n/a	n/a	JUICE	Beverages	4	7	[0, 0, 0]	n/a	catFR1	5	R1468J
869.234	1.6	1172808	WORD	n/a	wordpools/wordpool_categorized_EN.txt	BUTTERFLY	Insects	5	7	[0, 0, 0]	n/a	catFR1	5	R1468J
870.834	0.816	1174411	WORD_OFF	n/a	n/a	BUTTERFLY	Insects	5	7	[0, 0, 0]	n/a	catFR1	5	R1468J
871.65	1.617	1175230	WORD	n/a	wordpools/wordpool_categorized_EN.txt	CRICKET	Insects	6	7	[0, 0, 0]	n/a	catFR1	5	R1468J
873.267	0.967	1176845	WORD_OFF	n/a	n/a	CRICKET	Insects	6	7	[0, 0, 0]	n/a	catFR1	5	R1468J
874.234	1.6	1177814	WORD	n/a	wordpools/wordpool_categorized_EN.txt	RUM	Beverages	7	7	[0, 0, 0]	n/a	catFR1	5	R1468J
875.834	1.0	1179406	WORD_OFF	n/a	n/a	RUM	Beverages	7	7	[0, 0, 0]	n/a	catFR1	5	R1468J
876.834	1.616	1180409	WORD	n/a	wordpools/wordpool_categorized_EN.txt	CIDER	Beverages	8	7	[0, 0, 0]	n/a	catFR1	5	R1468J
878.45	0.815	1182024	WORD_OFF	n/a	n/a	CIDER	Beverages	8	7	[0, 0, 0]	n/a	catFR1	5	R1468J
879.265	1.602	1182843	WORD	n/a	wordpools/wordpool_categorized_EN.txt	BEACH	Landscapes	9	7	[0, 0, 0]	n/a	catFR1	5	R1468J
880.867	0.8	1184447	WORD_OFF	n/a	n/a	BEACH	Landscapes	9	7	[0, 0, 0]	n/a	catFR1	5	R1468J
881.667	1.616	1185243	WORD	n/a	wordpools/wordpool_categorized_EN.txt	OCEAN	Landscapes	10	7	[0, 0, 0]	n/a	catFR1	5	R1468J
883.283	0.766	1186857	WORD_OFF	n/a	n/a	OCEAN	Landscapes	10	7	[0, 0, 0]	n/a	catFR1	5	R1468J
884.049	1.6	1187630	WORD	n/a	wordpools/wordpool_categorized_EN.txt	GNAT	Insects	11	7	[0, 0, 0]	n/a	catFR1	5	R1468J
885.649	0.868	1189222	WORD_OFF	n/a	n/a	GNAT	Insects	11	7	[0, 0, 0]	n/a	catFR1	5	R1468J
886.517	1.6	1190099	WORD	n/a	wordpools/wordpool_categorized_EN.txt	FLY	Insects	12	7	[0, 0, 0]	n/a	catFR1	5	R1468J
888.117	0.002	1191691	WORD_OFF	n/a	n/a	FLY	Insects	12	7	[0, 0, 0]	n/a	catFR1	5	R1468J
888.119	0.0	1191691	ENCODING_END	n/a	n/a	n/a	n/a	-999	7	[0, 0, 0]	n/a	catFR1	5	R1468J
888.118	0.001	1191695	PROB	0.001	n/a	n/a	n/a	-999	7	[5, 3, 6]	14	catFR1	5	R1468J
888.119	0.0	1191696	START	n/a	n/a	n/a	n/a	-999	7	[-999, -999, -999]	n/a	catFR1	5	R1468J
888.119	5.399	1191702	DISTRACT_START	n/a	n/a	n/a	n/a	-999	7	[0, 0, 0]	n/a	catFR1	5	R1468J
893.518	5.265	1197095	PROB	5.265	n/a	n/a	n/a	-999	7	[7, 6, 4]	17	catFR1	5	R1468J
898.783	5.834	1202360	PROB	5.834	n/a	n/a	n/a	-999	7	[4, 3, 5]	12	catFR1	5	R1468J
904.617	6.215	1208193	PROB	6.215	n/a	n/a	n/a	-999	7	[8, 4, 7]	19	catFR1	5	R1468J
910.832	0.0	1214403	DISTRACT_END	n/a	n/a	n/a	n/a	-999	7	[0, 0, 0]	n/a	catFR1	5	R1468J
910.832	1.067	1214408	STOP	n/a	n/a	n/a	n/a	-999	7	[-999, -999, -999]	n/a	catFR1	5	R1468J
911.899	1.12	1215475	REC_START	n/a	n/a	n/a	n/a	-999	7	[0, 0, 0]	n/a	catFR1	5	R1468J
913.019	1.421	1216595	REC_WORD	1.421	n/a	RIVER	Landscapes	1	7	[0, 0, 0]	n/a	catFR1	5	R1468J
914.44	1.145	1218016	REC_WORD	1.145	n/a	VALLEY	Landscapes	2	7	[0, 0, 0]	n/a	catFR1	5	R1468J
915.585	2.579	1219161	REC_WORD	2.579	n/a	GNAT	Insects	11	7	[0, 0, 0]	n/a	catFR1	5	R1468J
918.164	7.039	1221740	REC_WORD	7.039	n/a	FLY	Insects	12	7	[0, 0, 0]	n/a	catFR1	5	R1468J
925.203	17.937	1228778	REC_WORD_VV	17.937	n/a	<>	n/a	-999	7	[0, 0, 0]	n/a	catFR1	5	R1468J
943.14	5.492	1246712	REC_END	n/a	n/a	n/a	n/a	-999	7	[0, 0, 0]	n/a	catFR1	5	R1468J
948.632	10.351	1252214	COUNTDOWN_START	n/a	n/a	n/a	n/a	-999	7	[0, 0, 0]	n/a	catFR1	5	R1468J
958.983	0.0	1262561	COUNTDOWN_END	n/a	n/a	n/a	n/a	-999	7	[0, 0, 0]	n/a	catFR1	5	R1468J
958.983	1.866	1262561	ENCODING_START	n/a	n/a	n/a	n/a	-999	8	[0, 0, 0]	n/a	catFR1	5	R1468J
960.849	1.601	1264418	WORD	n/a	wordpools/wordpool_categorized_EN.txt	LINEN	Fabric	1	8	[0, 0, 0]	n/a	catFR1	5	R1468J
962.45	0.917	1266021	WORD_OFF	n/a	n/a	LINEN	Fabric	1	8	[0, 0, 0]	n/a	catFR1	5	R1468J
963.367	1.6	1266944	WORD	n/a	wordpools/wordpool_categorized_EN.txt	DENIM	Fabric	2	8	[0, 0, 0]	n/a	catFR1	5	R1468J
964.967	0.933	1268536	WORD_OFF	n/a	n/a	DENIM	Fabric	2	8	[0, 0, 0]	n/a	catFR1	5	R1468J
965.9	1.6	1269470	WORD	n/a	wordpools/wordpool_categorized_EN.txt	MOTH	Insects	3	8	[0, 0, 0]	n/a	catFR1	5	R1468J
967.5	0.767	1271074	WORD_OFF	n/a	n/a	MOTH	Insects	3	8	[0, 0, 0]	n/a	catFR1	5	R1468J
968.267	1.6	1271846	WORD	n/a	wordpools/wordpool_categorized_EN.txt	BEE	Insects	4	8	[0, 0, 0]	n/a	catFR1	5	R1468J
969.867	0.814	1273438	WORD_OFF	n/a	n/a	BEE	Insects	4	8	[0, 0, 0]	n/a	catFR1	5	R1468J
970.681	1.603	1274257	WORD	n/a	wordpools/wordpool_categorized_EN.txt	PUDDING	Desserts	5	8	[0, 0, 0]	n/a	catFR1	5	R1468J
972.284	0.883	1275860	WORD_OFF	n/a	n/a	PUDDING	Desserts	5	8	[0, 0, 0]	n/a	catFR1	5	R1468J
973.167	1.617	1276737	WORD	n/a	wordpools/wordpool_categorized_EN.txt	PIE	Desserts	6	8	[0, 0, 0]	n/a	catFR1	5	R1468J
974.784	0.95	1278352	WORD_OFF	n/a	n/a	PIE	Desserts	6	8	[0, 0, 0]	n/a	catFR1	5	R1468J
975.734	1.616	1279309	WORD	n/a	wordpools/wordpool_categorized_EN.txt	MOSQUITO	Insects	7	8	[0, 0, 0]	n/a	catFR1	5	R1468J
977.35	0.767	1280924	WORD_OFF	n/a	n/a	MOSQUITO	Insects	7	8	[0, 0, 0]	n/a	catFR1	5	R1468J
978.117	1.6	1281686	WORD	n/a	wordpools/wordpool_categorized_EN.txt	ROACH	Insects	8	8	[0, 0, 0]	n/a	catFR1	5	R1468J
979.717	0.85	1283289	WORD_OFF	n/a	n/a	ROACH	Insects	8	8	[0, 0, 0]	n/a	catFR1	5	R1468J
980.567	1.6	1284143	WORD	n/a	wordpools/wordpool_categorized_EN.txt	WOOL	Fabric	9	8	[0, 0, 0]	n/a	catFR1	5	R1468J
982.167	0.883	1285746	WORD_OFF	n/a	n/a	WOOL	Fabric	9	8	[0, 0, 0]	n/a	catFR1	5	R1468J
983.05	1.617	1286623	WORD	n/a	wordpools/wordpool_categorized_EN.txt	SPANDEX	Fabric	10	8	[0, 0, 0]	n/a	catFR1	5	R1468J
984.667	0.816	1288237	WORD_OFF	n/a	n/a	SPANDEX	Fabric	10	8	[0, 0, 0]	n/a	catFR1	5	R1468J
985.483	1.6	1289056	WORD	n/a	wordpools/wordpool_categorized_EN.txt	COBBLER	Desserts	11	8	[0, 0, 0]	n/a	catFR1	5	R1468J
987.083	0.834	1290660	WORD_OFF	n/a	n/a	COBBLER	Desserts	11	8	[0, 0, 0]	n/a	catFR1	5	R1468J
987.917	1.617	1291490	WORD	n/a	wordpools/wordpool_categorized_EN.txt	MOUSSE	Desserts	12	8	[0, 0, 0]	n/a	catFR1	5	R1468J
989.534	0.001	1293105	WORD_OFF	n/a	n/a	MOUSSE	Desserts	12	8	[0, 0, 0]	n/a	catFR1	5	R1468J
989.535	0.0	1293105	ENCODING_END	n/a	n/a	n/a	n/a	-999	8	[0, 0, 0]	n/a	catFR1	5	R1468J
989.535	0.0	1293105	DISTRACT_START	n/a	n/a	n/a	n/a	-999	8	[0, 0, 0]	n/a	catFR1	5	R1468J
989.535	0.0	1293108	START	n/a	n/a	n/a	n/a	-999	8	[-999, -999, -999]	n/a	catFR1	5	R1468J
989.535	7.214	1293108	PROB	7.214	n/a	n/a	n/a	-999	8	[6, 6, 6]	18	catFR1	5	R1468J
996.749	5.201	1300321	PROB	5.201	n/a	n/a	n/a	-999	8	[5, 8, 3]	16	catFR1	5	R1468J
1001.95	7.516	1305522	PROB	7.516	n/a	n/a	n/a	-999	8	[3, 4, 2]	9	catFR1	5	R1468J
1009.466	17.766	1313038	PROB	17.766	n/a	n/a	n/a	-999	8	[7, 6, 2]	14	catFR1	5	R1468J
1027.232	0.0	1330801	DISTRACT_END	n/a	n/a	n/a	n/a	-999	8	[0, 0, 0]	n/a	catFR1	5	R1468J
1027.232	1.2	1330803	STOP	n/a	n/a	n/a	n/a	-999	8	[-999, -999, -999]	n/a	catFR1	5	R1468J
1028.432	1.942	1332001	REC_START	n/a	n/a	n/a	n/a	-999	8	[0, 0, 0]	n/a	catFR1	5	R1468J
1030.374	1.458	1333945	REC_WORD	1.458	n/a	WOOL	Fabric	9	8	[0, 0, 0]	n/a	catFR1	5	R1468J
1031.832	7.459	1335403	REC_WORD	7.459	n/a	DENIM	Fabric	2	8	[0, 0, 0]	n/a	catFR1	5	R1468J
1039.291	18.39	1342862	REC_WORD	18.39	n/a	NYLON	Fabric	-999	8	[0, 0, 0]	n/a	catFR1	5	R1468J
1057.681	1.971	1361251	REC_WORD	1.971	n/a	LINEN	Fabric	1	8	[0, 0, 0]	n/a	catFR1	5	R1468J
1059.652	4.065	1363226	REC_END	n/a	n/a	n/a	n/a	-999	8	[0, 0, 0]	n/a	catFR1	5	R1468J
1063.717	10.35	1367286	COUNTDOWN_START	n/a	n/a	n/a	n/a	-999	8	[0, 0, 0]	n/a	catFR1	5	R1468J
1074.067	0.0	1377633	COUNTDOWN_END	n/a	n/a	n/a	n/a	-999	8	[0, 0, 0]	n/a	catFR1	5	R1468J
1074.067	46.765	1377644	ENCODING_START	n/a	n/a	n/a	n/a	-999	9	[0, 0, 0]	n/a	catFR1	5	R1468J
1120.832	1.6	1424395	WORD	n/a	wordpools/wordpool_categorized_EN.txt	CAKE	Desserts	1	9	[0, 0, 0]	n/a	catFR1	5	R1468J
1122.432	0.8	1425998	WORD_OFF	n/a	n/a	CAKE	Desserts	1	9	[0, 0, 0]	n/a	catFR1	5	R1468J
1123.232	1.6	1426794	WORD	n/a	wordpools/wordpool_categorized_EN.txt	FUDGE	Desserts	2	9	[0, 0, 0]	n/a	catFR1	5	R1468J
1124.832	0.983	1428398	WORD_OFF	n/a	n/a	FUDGE	Desserts	2	9	[0, 0, 0]	n/a	catFR1	5	R1468J
1125.815	1.6	1429378	WORD	n/a	wordpools/wordpool_categorized_EN.txt	PANDA	Zoo	3	9	[0, 0, 0]	n/a	catFR1	5	R1468J
1127.415	0.834	1430982	WORD_OFF	n/a	n/a	PANDA	Zoo	3	9	[0, 0, 0]	n/a	catFR1	5	R1468J
1128.249	1.618	1431812	WORD	n/a	wordpools/wordpool_categorized_EN.txt	BEAR	Zoo	4	9	[0, 0, 0]	n/a	catFR1	5	R1468J
1129.867	0.982	1433438	WORD_OFF	n/a	n/a	BEAR	Zoo	4	9	[0, 0, 0]	n/a	catFR1	5	R1468J
1130.849	1.6	1434419	WORD	n/a	wordpools/wordpool_categorized_EN.txt	BASKETBALL	Toys	5	9	[0, 0, 0]	n/a	catFR1	5	R1468J
1132.449	0.883	1436011	WORD_OFF	n/a	n/a	BASKETBALL	Toys	5	9	[0, 0, 0]	n/a	catFR1	5	R1468J
1133.332	1.618	1436899	WORD	n/a	wordpools/wordpool_categorized_EN.txt	FRISBEE	Toys	6	9	[0, 0, 0]	n/a	catFR1	5	R1468J
1134.95	0.866	1438514	WORD_OFF	n/a	n/a	FRISBEE	Toys	6	9	[0, 0, 0]	n/a	catFR1	5	R1468J
1135.816	1.6	1439379	WORD	n/a	wordpools/wordpool_categorized_EN.txt	CUPCAKE	Desserts	7	9	[0, 0, 0]	n/a	catFR1	5	R1468J
1137.416	0.965	1440982	WORD_OFF	n/a	n/a	CUPCAKE	Desserts	7	9	[0, 0, 0]	n/a	catFR1	5	R1468J
1138.381	1.601	1441951	WORD	n/a	wordpools/wordpool_categorized_EN.txt	COOKIE	Desserts	8	9	[0, 0, 0]	n/a	catFR1	5	R1468J
1139.982	0.967	1443554	WORD_OFF	n/a	n/a	COOKIE	Desserts	8	9	[0, 0, 0]	n/a	catFR1	5	R1468J
1140.949	1.6	1444512	WORD	n/a	wordpools/wordpool_categorized_EN.txt	LION	Zoo	9	9	[0, 0, 0]	n/a	catFR1	5	R1468J
1142.549	0.999	1446115	WORD_OFF	n/a	n/a	LION	Zoo	9	9	[0, 0, 0]	n/a	catFR1	5	R1468J
1143.548	1.6	1447119	WORD	n/a	wordpools/wordpool_categorized_EN.txt	GORILLA	Zoo	10	9	[0, 0, 0]	n/a	catFR1	5	R1468J
1145.148	0.834	1448711	WORD_OFF	n/a	n/a	GORILLA	Zoo	10	9	[0, 0, 0]	n/a	catFR1	5	R1468J
1145.982	1.6	1449553	WORD	n/a	wordpools/wordpool_categorized_EN.txt	BASEBALL	Toys	11	9	[0, 0, 0]	n/a	catFR1	5	R1468J
1147.582	0.967	1451144	WORD_OFF	n/a	n/a	BASEBALL	Toys	11	9	[0, 0, 0]	n/a	catFR1	5	R1468J
1148.549	1.601	1452113	WORD	n/a	wordpools/wordpool_categorized_EN.txt	MARBLES	Toys	12	9	[0, 0, 0]	n/a	catFR1	5	R1468J
1150.15	0.0	1453716	PROB	0.0	n/a	n/a	n/a	-999	9	[6, 6, 7]	19	catFR1	5	R1468J
1150.149	0.003	1453717	WORD_OFF	n/a	n/a	MARBLES	Toys	12	9	[0, 0, 0]	n/a	catFR1	5	R1468J
1150.152	0.0	1453717	ENCODING_END	n/a	n/a	n/a	n/a	-999	9	[0, 0, 0]	n/a	catFR1	5	R1468J
1150.152	0.0	1453717	DISTRACT_START	n/a	n/a	n/a	n/a	-999	9	[0, 0, 0]	n/a	catFR1	5	R1468J
1150.152	4.381	1453718	START	n/a	n/a	n/a	n/a	-999	9	[-999, -999, -999]	n/a	catFR1	5	R1468J
1154.533	3.317	1458099	PROB	3.317	n/a	n/a	n/a	-999	9	[6, 1, 6]	13	catFR1	5	R1468J
1157.85	3.632	1461416	PROB	3.632	n/a	n/a	n/a	-999	9	[2, 7, 3]	12	catFR1	5	R1468J
1161.482	4.918	1465048	PROB	4.918	n/a	n/a	n/a	-999	9	[2, 3, 2]	7	catFR1	5	R1468J
1166.4	5.482	1469965	PROB	5.482	n/a	n/a	n/a	-999	9	[3, 2, 5]	10	catFR1	5	R1468J
1171.882	0.0	1475447	STOP	n/a	n/a	n/a	n/a	-999	9	[-999, -999, -999]	n/a	catFR1	5	R1468J
1171.882	1.183	1475448	DISTRACT_END	n/a	n/a	n/a	n/a	-999	9	[0, 0, 0]	n/a	catFR1	5	R1468J
1173.065	2.053	1476625	REC_START	n/a	n/a	n/a	n/a	-999	9	[0, 0, 0]	n/a	catFR1	5	R1468J
1175.118	1.454	1478683	REC_WORD	1.454	n/a	CAKE	Desserts	1	9	[0, 0, 0]	n/a	catFR1	5	R1468J
1176.572	2.533	1480137	REC_WORD	2.533	n/a	COFFEE	Beverages	-999	9	[0, 0, 0]	n/a	catFR1	5	R1468J
1179.105	3.544	1482670	REC_WORD	3.544	n/a	CUPCAKE	Desserts	7	9	[0, 0, 0]	n/a	catFR1	5	R1468J
1182.649	11.388	1486214	REC_WORD	11.388	n/a	MARBLES	Toys	12	9	[0, 0, 0]	n/a	catFR1	5	R1468J
1194.037	4.022	1497601	REC_WORD	4.022	n/a	TABLE	Furniture	-999	9	[0, 0, 0]	n/a	catFR1	5	R1468J
1198.059	6.22	1501623	REC_WORD	6.22	n/a	COOKIE	Desserts	8	9	[0, 0, 0]	n/a	catFR1	5	R1468J
1204.279	3.804	1507838	REC_END	n/a	n/a	n/a	n/a	-999	9	[0, 0, 0]	n/a	catFR1	5	R1468J
1208.083	10.351	1511645	COUNTDOWN_START	n/a	n/a	n/a	n/a	-999	9	[0, 0, 0]	n/a	catFR1	5	R1468J
1218.434	0.0	1521992	COUNTDOWN_END	n/a	n/a	n/a	n/a	-999	9	[0, 0, 0]	n/a	catFR1	5	R1468J
1218.434	1.783	1522003	ENCODING_START	n/a	n/a	n/a	n/a	-999	10	[0, 0, 0]	n/a	catFR1	5	R1468J
1220.217	1.6	1523780	WORD	n/a	wordpools/wordpool_categorized_EN.txt	BOAT	Vehicles	1	10	[0, 0, 0]	n/a	catFR1	5	R1468J
1221.817	0.983	1525383	WORD_OFF	n/a	n/a	BOAT	Vehicles	1	10	[0, 0, 0]	n/a	catFR1	5	R1468J
1222.8	1.6	1526363	WORD	n/a	wordpools/wordpool_categorized_EN.txt	CAR	Vehicles	2	10	[0, 0, 0]	n/a	catFR1	5	R1468J
1224.4	0.8	1527967	WORD_OFF	n/a	n/a	CAR	Vehicles	2	10	[0, 0, 0]	n/a	catFR1	5	R1468J
1225.2	1.6	1528763	WORD	n/a	wordpools/wordpool_categorized_EN.txt	MOUNTAIN	Landscapes	3	10	[0, 0, 0]	n/a	catFR1	5	R1468J
1226.8	0.934	1530366	WORD_OFF	n/a	n/a	MOUNTAIN	Landscapes	3	10	[0, 0, 0]	n/a	catFR1	5	R1468J
1227.734	1.616	1531300	WORD	n/a	wordpools/wordpool_categorized_EN.txt	WOODS	Landscapes	4	10	[0, 0, 0]	n/a	catFR1	5	R1468J
1229.35	0.8	1532915	WORD_OFF	n/a	n/a	WOODS	Landscapes	4	10	[0, 0, 0]	n/a	catFR1	5	R1468J
1230.15	1.6	1533711	WORD	n/a	wordpools/wordpool_categorized_EN.txt	REFRIGERATOR	Appliances	5	10	[0, 0, 0]	n/a	catFR1	5	R1468J
1231.75	0.95	1535314	WORD_OFF	n/a	n/a	REFRIGERATOR	Appliances	5	10	[0, 0, 0]	n/a	catFR1	5	R1468J
1232.7	1.617	1536260	WORD	n/a	wordpools/wordpool_categorized_EN.txt	IRON	Appliances	6	10	[0, 0, 0]	n/a	catFR1	5	R1468J
1234.317	0.883	1537875	WORD_OFF	n/a	n/a	IRON	Appliances	6	10	[0, 0, 0]	n/a	catFR1	5	R1468J
1235.2	1.6	1538763	WORD	n/a	wordpools/wordpool_categorized_EN.txt	PLANE	Vehicles	7	10	[0, 0, 0]	n/a	catFR1	5	R1468J
1236.8	0.883	1540367	WORD_OFF	n/a	n/a	PLANE	Vehicles	7	10	[0, 0, 0]	n/a	catFR1	5	R1468J
1237.683	1.616	1541243	WORD	n/a	wordpools/wordpool_categorized_EN.txt	MOTORCYCLE	Vehicles	8	10	[0, 0, 0]	n/a	catFR1	5	R1468J
1239.299	0.801	1542858	WORD_OFF	n/a	n/a	MOTORCYCLE	Vehicles	8	10	[0, 0, 0]	n/a	catFR1	5	R1468J
1240.1	1.616	1543666	WORD	n/a	wordpools/wordpool_categorized_EN.txt	DRYER	Appliances	9	10	[0, 0, 0]	n/a	catFR1	5	R1468J
1241.716	0.801	1545281	WORD_OFF	n/a	n/a	DRYER	Appliances	9	10	[0, 0, 0]	n/a	catFR1	5	R1468J
1242.517	1.616	1546076	WORD	n/a	wordpools/wordpool_categorized_EN.txt	VACUUM	Appliances	10	10	[0, 0, 0]	n/a	catFR1	5	R1468J
1244.133	0.967	1547691	WORD_OFF	n/a	n/a	VACUUM	Appliances	10	10	[0, 0, 0]	n/a	catFR1	5	R1468J
1245.1	1.617	1548660	WORD	n/a	wordpools/wordpool_categorized_EN.txt	LAKE	Landscapes	11	10	[0, 0, 0]	n/a	catFR1	5	R1468J
1246.717	0.865	1550275	WORD_OFF	n/a	n/a	LAKE	Landscapes	11	10	[0, 0, 0]	n/a	catFR1	5	R1468J
1247.582	1.618	1551140	WORD	n/a	wordpools/wordpool_categorized_EN.txt	STREAM	Landscapes	12	10	[0, 0, 0]	n/a	catFR1	5	R1468J
1249.2	0.001	1552762	PROB	0.001	n/a	n/a	n/a	-999	10	[1, 8, 1]	10	catFR1	5	R1468J
1249.201	0.0	1552763	START	n/a	n/a	n/a	n/a	-999	10	[-999, -999, -999]	n/a	catFR1	5	R1468J
1249.199	0.002	1552767	WORD_OFF	n/a	n/a	STREAM	Landscapes	12	10	[0, 0, 0]	n/a	catFR1	5	R1468J
1249.201	0.0	1552767	ENCODING_END	n/a	n/a	n/a	n/a	-999	10	[0, 0, 0]	n/a	catFR1	5	R1468J
1249.201	4.467	1552767	DISTRACT_START	n/a	n/a	n/a	n/a	-999	10	[0, 0, 0]	n/a	catFR1	5	R1468J
1253.668	5.132	1557230	PROB	5.132	n/a	n/a	n/a	-999	10	[5, 8, 8]	21	catFR1	5	R1468J
1258.8	3.701	1562361	PROB	3.701	n/a	n/a	n/a	-999	10	[7, 3, 5]	15	catFR1	5	R1468J
1262.501	3.65	1566062	PROB	3.65	n/a	n/a	n/a	-999	10	[5, 5, 2]	12	catFR1	5	R1468J
1266.151	4.215	1569712	PROB	4.215	n/a	n/a	n/a	-999	10	[6, 6, 3]	15	catFR1	5	R1468J
1270.366	0.0	1573922	DISTRACT_END	n/a	n/a	n/a	n/a	-999	10	[0, 0, 0]	n/a	catFR1	5	R1468J
1270.366	1.218	1573927	STOP	n/a	n/a	n/a	n/a	-999	10	[-999, -999, -999]	n/a	catFR1	5	R1468J
1271.584	1.963	1575144	REC_START	n/a	n/a	n/a	n/a	-999	10	[0, 0, 0]	n/a	catFR1	5	R1468J
1273.547	2.631	1577108	REC_WORD	2.631	n/a	BOAT	Vehicles	1	10	[0, 0, 0]	n/a	catFR1	5	R1468J
1276.178	5.297	1579739	REC_WORD	5.297	n/a	VALLEY	Landscapes	-999	10	[0, 0, 0]	n/a	catFR1	5	R1468J
1281.475	3.875	1585035	REC_WORD	3.875	n/a	RIVER	Landscapes	-999	10	[0, 0, 0]	n/a	catFR1	5	R1468J
1285.35	13.691	1588910	REC_WORD	13.691	n/a	MOTORCYCLE	Vehicles	8	10	[0, 0, 0]	n/a	catFR1	5	R1468J
1299.041	3.776	1602601	REC_WORD	3.776	n/a	GNAT	Insects	-999	10	[0, 0, 0]	n/a	catFR1	5	R1468J
1302.817	4.549	1606381	REC_END	n/a	n/a	n/a	n/a	-999	10	[0, 0, 0]	n/a	catFR1	5	R1468J
1307.366	10.349	1610926	COUNTDOWN_START	n/a	n/a	n/a	n/a	-999	10	[0, 0, 0]	n/a	catFR1	5	R1468J
1317.715	0.0	1621272	COUNTDOWN_END	n/a	n/a	n/a	n/a	-999	10	[0, 0, 0]	n/a	catFR1	5	R1468J
1317.715	2.201	1621272	ENCODING_START	n/a	n/a	n/a	n/a	-999	11	[0, 0, 0]	n/a	catFR1	5	R1468J
1319.916	1.601	1623475	WORD	n/a	wordpools/wordpool_categorized_EN.txt	TAPE	OfficeSupplies	1	11	[0, 0, 0]	n/a	catFR1	5	R1468J
1321.517	0.782	1625079	WORD_OFF	n/a	n/a	TAPE	OfficeSupplies	1	11	[0, 0, 0]	n/a	catFR1	5	R1468J
1322.299	1.6	1625863	WORD	n/a	wordpools/wordpool_categorized_EN.txt	BINDER	OfficeSupplies	2	11	[0, 0, 0]	n/a	catFR1	5	R1468J
1323.899	0.968	1627455	WORD_OFF	n/a	n/a	BINDER	OfficeSupplies	2	11	[0, 0, 0]	n/a	catFR1	5	R1468J
1324.867	1.614	1628424	WORD	n/a	wordpools/wordpool_categorized_EN.txt	BLENDER	Appliances	3	11	[0, 0, 0]	n/a	catFR1	5	R1468J
1326.481	0.95	1630039	WORD_OFF	n/a	n/a	BLENDER	Appliances	3	11	[0, 0, 0]	n/a	catFR1	5	R1468J
1327.431	1.601	1630985	WORD	n/a	wordpools/wordpool_categorized_EN.txt	WASHER	Appliances	4	11	[0, 0, 0]	n/a	catFR1	5	R1468J
1329.032	0.966	1632588	WORD_OFF	n/a	n/a	WASHER	Appliances	4	11	[0, 0, 0]	n/a	catFR1	5	R1468J
1329.998	1.601	1633557	WORD	n/a	wordpools/wordpool_categorized_EN.txt	GRAPE	Fruit	5	11	[0, 0, 0]	n/a	catFR1	5	R1468J
1331.599	0.899	1635160	WORD_OFF	n/a	n/a	GRAPE	Fruit	5	11	[0, 0, 0]	n/a	catFR1	5	R1468J
1332.498	1.601	1636060	WORD	n/a	wordpools/wordpool_categorized_EN.txt	BLUEBERRY	Fruit	6	11	[0, 0, 0]	n/a	catFR1	5	R1468J
1334.099	0.967	1637652	WORD_OFF	n/a	n/a	BLUEBERRY	Fruit	6	11	[0, 0, 0]	n/a	catFR1	5	R1468J
1335.066	1.616	1638621	WORD	n/a	wordpools/wordpool_categorized_EN.txt	STOVE	Appliances	7	11	[0, 0, 0]	n/a	catFR1	5	R1468J
1336.682	0.8	1640236	WORD_OFF	n/a	n/a	STOVE	Appliances	7	11	[0, 0, 0]	n/a	catFR1	5	R1468J
1337.482	1.617	1641043	WORD	n/a	wordpools/wordpool_categorized_EN.txt	TOASTER	Appliances	8	11	[0, 0, 0]	n/a	catFR1	5	R1468J
1339.099	0.916	1642658	WORD_OFF	n/a	n/a	TOASTER	Appliances	8	11	[0, 0, 0]	n/a	catFR1	5	R1468J
1340.015	1.601	1643569	WORD	n/a	wordpools/wordpool_categorized_EN.txt	PEN	OfficeSupplies	9	11	[0, 0, 0]	n/a	catFR1	5	R1468J
1341.616	0.816	1645173	WORD_OFF	n/a	n/a	PEN	OfficeSupplies	9	11	[0, 0, 0]	n/a	catFR1	5	R1468J
1342.432	1.6	1645992	WORD	n/a	wordpools/wordpool_categorized_EN.txt	PAPER	OfficeSupplies	10	11	[0, 0, 0]	n/a	catFR1	5	R1468J
1344.032	0.867	1647595	WORD_OFF	n/a	n/a	PAPER	OfficeSupplies	10	11	[0, 0, 0]	n/a	catFR1	5	R1468J
1344.899	1.617	1648460	WORD	n/a	wordpools/wordpool_categorized_EN.txt	PLUM	Fruit	11	11	[0, 0, 0]	n/a	catFR1	5	R1468J
1346.516	0.9	1650075	WORD_OFF	n/a	n/a	PLUM	Fruit	11	11	[0, 0, 0]	n/a	catFR1	5	R1468J
1347.416	1.616	1650975	WORD	n/a	wordpools/wordpool_categorized_EN.txt	LEMON	Fruit	12	11	[0, 0, 0]	n/a	catFR1	5	R1468J
1349.032	0.003	1652590	WORD_OFF	n/a	n/a	LEMON	Fruit	12	11	[0, 0, 0]	n/a	catFR1	5	R1468J
1349.035	0.0	1652590	ENCODING_END	n/a	n/a	n/a	n/a	-999	11	[0, 0, 0]	n/a	catFR1	5	R1468J
1349.035	0.0	1652590	DISTRACT_START	n/a	n/a	n/a	n/a	-999	11	[0, 0, 0]	n/a	catFR1	5	R1468J
1349.032	0.003	1652590	PROB	0.003	n/a	n/a	n/a	-999	11	[7, 1, 5]	13	catFR1	5	R1468J
1349.035	7.414	1652593	START	n/a	n/a	n/a	n/a	-999	11	[-999, -999, -999]	n/a	catFR1	5	R1468J
1356.449	3.767	1660006	PROB	3.767	n/a	n/a	n/a	-999	11	[2, 3, 3]	8	catFR1	5	R1468J
1360.216	5.85	1663773	PROB	5.85	n/a	n/a	n/a	-999	11	[3, 3, 4]	10	catFR1	5	R1468J
1366.066	6.083	1669623	PROB	6.083	n/a	n/a	n/a	-999	11	[5, 8, 7]	20	catFR1	5	R1468J
1372.149	0.0	1675705	DISTRACT_END	n/a	n/a	n/a	n/a	-999	11	[0, 0, 0]	n/a	catFR1	5	R1468J
1372.149	1.032	1675706	STOP	n/a	n/a	n/a	n/a	-999	11	[-999, -999, -999]	n/a	catFR1	5	R1468J
1373.181	2.005	1676732	REC_START	n/a	n/a	n/a	n/a	-999	11	[0, 0, 0]	n/a	catFR1	5	R1468J
1375.186	0.905	1678743	REC_WORD	0.905	n/a	PLUM	Fruit	11	11	[0, 0, 0]	n/a	catFR1	5	R1468J
1376.091	3.779	1679648	REC_WORD_VV	3.779	n/a	<>	n/a	-999	11	[0, 0, 0]	n/a	catFR1	5	R1468J
1379.87	4.879	1683426	REC_WORD	4.879	n/a	DISHWASHER	Appliances	-999	11	[0, 0, 0]	n/a	catFR1	5	R1468J
1384.749	6.051	1688305	REC_WORD	6.051	n/a	TOASTER	Appliances	8	11	[0, 0, 0]	n/a	catFR1	5	R1468J
1390.8	8.175	1694356	REC_WORD	8.175	n/a	CHAIR	Furniture	-999	11	[0, 0, 0]	n/a	catFR1	5	R1468J
1398.975	5.432	1702531	REC_WORD	5.432	n/a	TOASTER	Appliances	8	11	[0, 0, 0]	n/a	catFR1	5	R1468J
1404.407	4.577	1707968	REC_END	n/a	n/a	n/a	n/a	-999	11	[0, 0, 0]	n/a	catFR1	5	R1468J
1408.984	10.348	1712536	COUNTDOWN_START	n/a	n/a	n/a	n/a	-999	11	[0, 0, 0]	n/a	catFR1	5	R1468J
1419.332	0.0	1722883	COUNTDOWN_END	n/a	n/a	n/a	n/a	-999	11	[0, 0, 0]	n/a	catFR1	5	R1468J
1419.332	2.35	1722895	ENCODING_START	n/a	n/a	n/a	n/a	-999	12	[0, 0, 0]	n/a	catFR1	5	R1468J
1421.682	1.6	1725236	WORD	n/a	wordpools/wordpool_categorized_EN.txt	BIKE	Vehicles	1	12	[0, 0, 0]	n/a	catFR1	5	R1468J
1423.282	0.783	1726840	WORD_OFF	n/a	n/a	BIKE	Vehicles	1	12	[0, 0, 0]	n/a	catFR1	5	R1468J
1424.065	1.616	1727624	WORD	n/a	wordpools/wordpool_categorized_EN.txt	TRAIN	Vehicles	2	12	[0, 0, 0]	n/a	catFR1	5	R1468J
1425.681	0.968	1729239	WORD_OFF	n/a	n/a	TRAIN	Vehicles	2	12	[0, 0, 0]	n/a	catFR1	5	R1468J
1426.649	1.6	1730208	WORD	n/a	wordpools/wordpool_categorized_EN.txt	ANT	Insects	3	12	[0, 0, 0]	n/a	catFR1	5	R1468J
1428.249	0.882	1731800	WORD_OFF	n/a	n/a	ANT	Insects	3	12	[0, 0, 0]	n/a	catFR1	5	R1468J
1429.131	1.601	1732688	WORD	n/a	wordpools/wordpool_categorized_EN.txt	BEETLE	Insects	4	12	[0, 0, 0]	n/a	catFR1	5	R1468J
1430.732	0.882	1734291	WORD_OFF	n/a	n/a	BEETLE	Insects	4	12	[0, 0, 0]	n/a	catFR1	5	R1468J
1431.614	1.602	1735168	WORD	n/a	wordpools/wordpool_categorized_EN.txt	STAPLER	OfficeSupplies	5	12	[0, 0, 0]	n/a	catFR1	5	R1468J
1433.216	0.882	1736771	WORD_OFF	n/a	n/a	STAPLER	OfficeSupplies	5	12	[0, 0, 0]	n/a	catFR1	5	R1468J
1434.098	1.6	1737648	WORD	n/a	wordpools/wordpool_categorized_EN.txt	PENCIL	OfficeSupplies	6	12	[0, 0, 0]	n/a	catFR1	5	R1468J
1435.698	0.9	1739251	WORD_OFF	n/a	n/a	PENCIL	OfficeSupplies	6	12	[0, 0, 0]	n/a	catFR1	5	R1468J
1436.598	1.601	1740151	WORD	n/a	wordpools/wordpool_categorized_EN.txt	MOPED	Vehicles	7	12	[0, 0, 0]	n/a	catFR1	5	R1468J
1438.199	0.933	1741754	WORD_OFF	n/a	n/a	MOPED	Vehicles	7	12	[0, 0, 0]	n/a	catFR1	5	R1468J
1439.132	1.616	1742688	WORD	n/a	wordpools/wordpool_categorized_EN.txt	JEEP	Vehicles	8	12	[0, 0, 0]	n/a	catFR1	5	R1468J
1440.748	0.801	1744303	WORD_OFF	n/a	n/a	JEEP	Vehicles	8	12	[0, 0, 0]	n/a	catFR1	5	R1468J
1441.549	1.6	1745099	WORD	n/a	wordpools/wordpool_categorized_EN.txt	SPIDER	Insects	9	12	[0, 0, 0]	n/a	catFR1	5	R1468J
1443.149	0.967	1746703	WORD_OFF	n/a	n/a	SPIDER	Insects	9	12	[0, 0, 0]	n/a	catFR1	5	R1468J
1444.116	1.6	1747671	WORD	n/a	wordpools/wordpool_categorized_EN.txt	LADYBUG	Insects	10	12	[0, 0, 0]	n/a	catFR1	5	R1468J
1445.716	0.916	1749263	WORD_OFF	n/a	n/a	LADYBUG	Insects	10	12	[0, 0, 0]	n/a	catFR1	5	R1468J
1446.632	1.6	1750186	WORD	n/a	wordpools/wordpool_categorized_EN.txt	RULER	OfficeSupplies	11	12	[0, 0, 0]	n/a	catFR1	5	R1468J
1448.232	0.949	1751789	WORD_OFF	n/a	n/a	RULER	OfficeSupplies	11	12	[0, 0, 0]	n/a	catFR1	5	R1468J
1449.181	1.601	1752735	WORD	n/a	wordpools/wordpool_categorized_EN.txt	ERASER	OfficeSupplies	12	12	[0, 0, 0]	n/a	catFR1	5	R1468J
1450.782	0.0	1754335	PROB	0.0	n/a	n/a	n/a	-999	12	[1, 4, 3]	8	catFR1	5	R1468J
1450.782	0.004	1754339	WORD_OFF	n/a	n/a	ERASER	OfficeSupplies	12	12	[0, 0, 0]	n/a	catFR1	5	R1468J
1450.786	0.0	1754339	ENCODING_END	n/a	n/a	n/a	n/a	-999	12	[0, 0, 0]	n/a	catFR1	5	R1468J
1450.786	0.0	1754339	DISTRACT_START	n/a	n/a	n/a	n/a	-999	12	[0, 0, 0]	n/a	catFR1	5	R1468J
1450.786	4.263	1754339	START	n/a	n/a	n/a	n/a	-999	12	[-999, -999, -999]	n/a	catFR1	5	R1468J
1455.049	2.749	1758602	PROB	2.749	n/a	n/a	n/a	-999	12	[2, 1, 3]	6	catFR1	5	R1468J
1457.798	5.067	1761351	PROB	5.067	n/a	n/a	n/a	-999	12	[8, 5, 1]	14	catFR1	5	R1468J
1462.865	3.517	1766418	PROB	3.517	n/a	n/a	n/a	-999	12	[2, 7, 8]	17	catFR1	5	R1468J
1466.382	5.733	1769935	PROB	5.733	n/a	n/a	n/a	-999	12	[4, 7, 8]	19	catFR1	5	R1468J
1472.115	0.0	1775667	DISTRACT_END	n/a	n/a	n/a	n/a	-999	12	[0, 0, 0]	n/a	catFR1	5	R1468J
1472.115	1.233	1775668	STOP	n/a	n/a	n/a	n/a	-999	12	[-999, -999, -999]	n/a	catFR1	5	R1468J
1473.348	1.993	1776901	REC_START	n/a	n/a	n/a	n/a	-999	12	[0, 0, 0]	n/a	catFR1	5	R1468J
1475.341	1.866	1778893	REC_WORD	1.866	n/a	BIKE	Vehicles	1	12	[0, 0, 0]	n/a	catFR1	5	R1468J
1477.207	2.054	1780759	REC_WORD	2.054	n/a	SPIDER	Insects	9	12	[0, 0, 0]	n/a	catFR1	5	R1468J
1479.261	25.291	1782813	REC_WORD	25.291	n/a	LADYBUG	Insects	10	12	[0, 0, 0]	n/a	catFR1	5	R1468J
1504.552	0.0	1808103	REC_END	n/a	n/a	n/a	n/a	-999	12	[0, 0, 0]	n/a	catFR1	5	R1468J
