onset	duration	sample	trial_type	response_time	stim_file	item_name	category	serialpos	list	test	answer	experiment	session	subject
0.0	22.316	3897	SESS_START	n/a	n/a	n/a	n/a	-999	-999	[0, 0, 0]	n/a	catFR1	1	R1180C
22.316	10.0	15054	COUNTDOWN_START	n/a	n/a	n/a	n/a	-999	-999	[0, 0, 0]	n/a	catFR1	1	R1180C
32.744	3.674	20267	COUNTDOWN_END	n/a	n/a	n/a	n/a	-999	-999	[0, 0, 0]	n/a	catFR1	1	R1180C
36.418	1.6	22104	PRACTICE_WORD	n/a	n/a	CAMEL	n/a	-999	-999	[0, 0, 0]	n/a	catFR1	1	R1180C
38.902	1.6	23346	PRACTICE_WORD	n/a	n/a	CHEST	n/a	-999	-999	[0, 0, 0]	n/a	catFR1	1	R1180C
41.32	1.6	24555	PRACTICE_WORD	n/a	n/a	WAGON	n/a	-999	-999	[0, 0, 0]	n/a	catFR1	1	R1180C
43.919	1.6	25854	PRACTICE_WORD	n/a	n/a	BEAM	n/a	-999	-999	[0, 0, 0]	n/a	catFR1	1	R1180C
46.37	1.6	27080	PRACTICE_WORD	n/a	n/a	FLOOD	n/a	-999	-999	[0, 0, 0]	n/a	catFR1	1	R1180C
48.803	1.6	28296	PRACTICE_WORD	n/a	n/a	RING	n/a	-999	-999	[0, 0, 0]	n/a	catFR1	1	R1180C
51.339	1.6	29564	PRACTICE_WORD	n/a	n/a	IRON	n/a	-999	-999	[0, 0, 0]	n/a	catFR1	1	R1180C
53.855	1.6	30822	PRACTICE_WORD	n/a	n/a	TONGUE	n/a	-999	-999	[0, 0, 0]	n/a	catFR1	1	R1180C
56.239	1.6	32014	PRACTICE_WORD	n/a	n/a	RHINO	n/a	-999	-999	[0, 0, 0]	n/a	catFR1	1	R1180C
58.822	1.6	33305	PRACTICE_WORD	n/a	n/a	ATTIC	n/a	-999	-999	[0, 0, 0]	n/a	catFR1	1	R1180C
61.439	1.6	34614	PRACTICE_WORD	n/a	n/a	WATCH	n/a	-999	-999	[0, 0, 0]	n/a	catFR1	1	R1180C
63.89	1.6	35839	PRACTICE_WORD	n/a	n/a	COTTON	n/a	-999	-999	[0, 0, 0]	n/a	catFR1	1	R1180C
65.507	0.0	36648	PRACTICE_DISTRACT_START	n/a	n/a	n/a	n/a	-999	-999	[0, 0, 0]	n/a	catFR1	1	R1180C
65.507	0.016	36648	START	n/a	n/a	n/a	n/a	-999	-1	[-999, -999, -999]	n/a	catFR1	1	R1180C
65.523	10.969	36656	PROB	10.939	n/a	n/a	n/a	-999	-1	[2, 8, 4]	14.0	catFR1	1	R1180C
76.492	6.385	42140	PROB	6.362	n/a	n/a	n/a	-999	-1	[4, 8, 5]	17.0	catFR1	1	R1180C
82.877	3.553	45332	PROB	3.553	n/a	n/a	n/a	-999	-1	[7, 7, 4]	18.0	catFR1	1	R1180C
86.43	0.014	47108	STOP	n/a	n/a	n/a	n/a	-999	-1	[-999, -999, -999]	n/a	catFR1	1	R1180C
86.444	0.67	47115	PRACTICE_DISTRACT_END	n/a	n/a	n/a	n/a	-999	-999	[0, 0, 0]	n/a	catFR1	1	R1180C
87.114	30.514	47450	PRACTICE_REC_START	n/a	n/a	n/a	n/a	-999	-999	[0, 0, 0]	n/a	catFR1	1	R1180C
117.628	9.857	62706	PRACTICE_REC_END	n/a	n/a	n/a	n/a	-999	-999	[0, 0, 0]	n/a	catFR1	1	R1180C
127.485	10.0	67634	COUNTDOWN_START	n/a	n/a	n/a	n/a	-999	1	[0, 0, 0]	n/a	catFR1	1	R1180C
127.486	10.427	67634	TRIAL	n/a	n/a	n/a	n/a	-999	1	[0, 0, 0]	n/a	catFR1	1	R1180C
137.913	0.007	72847	COUNTDOWN_END	n/a	n/a	n/a	n/a	-999	1	[0, 0, 0]	n/a	catFR1	1	R1180C
137.92	1.6	72851	ORIENT	n/a	n/a	n/a	n/a	-999	1	[0, 0, 0]	n/a	catFR1	1	R1180C
141.521	1.6	74651	WORD	n/a	wordpools/wordpool_categorized_EN.txt	SHORTS	Clothing	1	1	[0, 0, 0]	n/a	catFR1	1	R1180C
143.888	1.6	75835	WORD	n/a	wordpools/wordpool_categorized_EN.txt	JACKET	Clothing	2	1	[0, 0, 0]	n/a	catFR1	1	R1180C
146.356	1.6	77068	WORD	n/a	wordpools/wordpool_categorized_EN.txt	FOREST	Landscapes	3	1	[0, 0, 0]	n/a	catFR1	1	R1180C
148.906	1.6	78343	WORD	n/a	wordpools/wordpool_categorized_EN.txt	STREAM	Landscapes	4	1	[0, 0, 0]	n/a	catFR1	1	R1180C
151.456	1.6	79618	WORD	n/a	wordpools/wordpool_categorized_EN.txt	SHRIMP	OceanAnimals	5	1	[0, 0, 0]	n/a	catFR1	1	R1180C
153.873	1.6	80827	WORD	n/a	wordpools/wordpool_categorized_EN.txt	OCTOPUS	OceanAnimals	6	1	[0, 0, 0]	n/a	catFR1	1	R1180C
156.374	1.6	82077	WORD	n/a	wordpools/wordpool_categorized_EN.txt	RIVER	Landscapes	7	1	[0, 0, 0]	n/a	catFR1	1	R1180C
158.808	1.6	83294	WORD	n/a	wordpools/wordpool_categorized_EN.txt	CREEK	Landscapes	8	1	[0, 0, 0]	n/a	catFR1	1	R1180C
161.442	1.6	84611	WORD	n/a	wordpools/wordpool_categorized_EN.txt	SKIRT	Clothing	9	1	[0, 0, 0]	n/a	catFR1	1	R1180C
163.825	1.6	85802	WORD	n/a	wordpools/wordpool_categorized_EN.txt	JEANS	Clothing	10	1	[0, 0, 0]	n/a	catFR1	1	R1180C
166.426	1.6	87103	WORD	n/a	wordpools/wordpool_categorized_EN.txt	DOLPHIN	OceanAnimals	11	1	[0, 0, 0]	n/a	catFR1	1	R1180C
168.81	1.6	88294	WORD	n/a	wordpools/wordpool_categorized_EN.txt	SQUID	OceanAnimals	12	1	[0, 0, 0]	n/a	catFR1	1	R1180C
170.427	0.001	89103	DISTRACT_START	n/a	n/a	n/a	n/a	-999	1	[0, 0, 0]	n/a	catFR1	1	R1180C
170.428	0.015	89103	START	n/a	n/a	n/a	n/a	-999	1	[-999, -999, -999]	n/a	catFR1	1	R1180C
170.443	6.218	89111	PROB	6.187	n/a	n/a	n/a	-999	1	[4, 9, 8]	21.0	catFR1	1	R1180C
176.661	5.218	92220	PROB	5.185	n/a	n/a	n/a	-999	1	[3, 2, 8]	13.0	catFR1	1	R1180C
181.879	3.067	94828	PROB	3.039	n/a	n/a	n/a	-999	1	[9, 9, 2]	20.0	catFR1	1	R1180C
184.946	3.717	96362	PROB	3.692	n/a	n/a	n/a	-999	1	[3, 2, 3]	8.0	catFR1	1	R1180C
188.663	7.408	98220	PROB	7.408	n/a	n/a	n/a	-999	1	[9, 4, 6]	19.0	catFR1	1	R1180C
196.071	0.011	101924	STOP	n/a	n/a	n/a	n/a	-999	1	[-999, -999, -999]	n/a	catFR1	1	R1180C
196.082	1.168	101929	DISTRACT_END	n/a	n/a	n/a	n/a	-999	1	[0, 0, 0]	n/a	catFR1	1	R1180C
197.25	1.644	102513	REC_START	n/a	n/a	n/a	n/a	-999	1	[0, 0, 0]	n/a	catFR1	1	R1180C
198.894	1.535	103335	REC_WORD	1.644	n/a	SHORTS	Clothing	1	1	[0, 0, 0]	n/a	catFR1	1	R1180C
200.429	1.664	104103	REC_WORD	3.179	n/a	SHIRT	n/a	-999	1	[0, 0, 0]	n/a	catFR1	1	R1180C
202.093	1.538	104935	REC_WORD	4.843	n/a	JACKET	Clothing	2	1	[0, 0, 0]	n/a	catFR1	1	R1180C
203.631	1.368	105703	REC_WORD	6.381	n/a	JEANS	Clothing	10	1	[0, 0, 0]	n/a	catFR1	1	R1180C
204.999	1.156	106387	REC_WORD	7.749	n/a	CREEK	Landscapes	8	1	[0, 0, 0]	n/a	catFR1	1	R1180C
206.155	0.799	106965	REC_WORD	8.905	n/a	RIVER	Landscapes	7	1	[0, 0, 0]	n/a	catFR1	1	R1180C
206.954	1.722	107365	REC_WORD	9.704	n/a	SQUID	OceanAnimals	12	1	[0, 0, 0]	n/a	catFR1	1	R1180C
208.676	18.586	108226	REC_WORD	11.426	n/a	OCTOPUS	OceanAnimals	6	1	[0, 0, 0]	n/a	catFR1	1	R1180C
227.262	6.526	117518	REC_END	n/a	n/a	n/a	n/a	-999	1	[0, 0, 0]	n/a	catFR1	1	R1180C
233.788	10.0	120781	COUNTDOWN_START	n/a	n/a	n/a	n/a	-999	2	[0, 0, 0]	n/a	catFR1	1	R1180C
233.789	10.427	120781	TRIAL	n/a	n/a	n/a	n/a	-999	2	[0, 0, 0]	n/a	catFR1	1	R1180C
244.216	0.009	125994	COUNTDOWN_END	n/a	n/a	n/a	n/a	-999	2	[0, 0, 0]	n/a	catFR1	1	R1180C
244.225	1.6	125999	ORIENT	n/a	n/a	n/a	n/a	-999	2	[0, 0, 0]	n/a	catFR1	1	R1180C
247.874	1.6	127823	WORD	n/a	wordpools/wordpool_categorized_EN.txt	DRILL	Tools	1	2	[0, 0, 0]	n/a	catFR1	1	R1180C
250.375	1.6	129073	WORD	n/a	wordpools/wordpool_categorized_EN.txt	SHOVEL	Tools	2	2	[0, 0, 0]	n/a	catFR1	1	R1180C
252.925	1.6	130348	WORD	n/a	wordpools/wordpool_categorized_EN.txt	NOSE	BodyParts	3	2	[0, 0, 0]	n/a	catFR1	1	R1180C
255.509	1.6	131640	WORD	n/a	wordpools/wordpool_categorized_EN.txt	EYE	BodyParts	4	2	[0, 0, 0]	n/a	catFR1	1	R1180C
258.077	1.6	132924	WORD	n/a	wordpools/wordpool_categorized_EN.txt	TROMBONE	Instruments	5	2	[0, 0, 0]	n/a	catFR1	1	R1180C
260.677	1.6	134224	WORD	n/a	wordpools/wordpool_categorized_EN.txt	BASS	Instruments	6	2	[0, 0, 0]	n/a	catFR1	1	R1180C
263.145	1.6	135458	WORD	n/a	wordpools/wordpool_categorized_EN.txt	AXE	Tools	7	2	[0, 0, 0]	n/a	catFR1	1	R1180C
265.595	1.6	136683	WORD	n/a	wordpools/wordpool_categorized_EN.txt	LEVEL	Tools	8	2	[0, 0, 0]	n/a	catFR1	1	R1180C
268.179	1.6	137975	WORD	n/a	wordpools/wordpool_categorized_EN.txt	CELLO	Instruments	9	2	[0, 0, 0]	n/a	catFR1	1	R1180C
270.612	1.6	139191	WORD	n/a	wordpools/wordpool_categorized_EN.txt	DRUM	Instruments	10	2	[0, 0, 0]	n/a	catFR1	1	R1180C
273.08	1.6	140425	WORD	n/a	wordpools/wordpool_categorized_EN.txt	KNEE	BodyParts	11	2	[0, 0, 0]	n/a	catFR1	1	R1180C
275.53	1.6	141650	WORD	n/a	wordpools/wordpool_categorized_EN.txt	HEAD	BodyParts	12	2	[0, 0, 0]	n/a	catFR1	1	R1180C
277.148	0.001	142459	DISTRACT_START	n/a	n/a	n/a	n/a	-999	2	[0, 0, 0]	n/a	catFR1	1	R1180C
277.149	0.015	142459	START	n/a	n/a	n/a	n/a	-999	2	[-999, -999, -999]	n/a	catFR1	1	R1180C
277.164	5.968	142467	PROB	5.947	n/a	n/a	n/a	-999	2	[1, 4, 8]	13.0	catFR1	1	R1180C
283.132	5.151	145450	PROB	5.115	n/a	n/a	n/a	-999	2	[2, 5, 4]	11.0	catFR1	1	R1180C
288.283	8.948	148026	PROB	8.948	n/a	n/a	n/a	-999	2	[8, 8, 9]	25.0	catFR1	1	R1180C
297.231	0.004	152499	STOP	n/a	n/a	n/a	n/a	-999	2	[-999, -999, -999]	n/a	catFR1	1	R1180C
297.235	1.034	152501	DISTRACT_END	n/a	n/a	n/a	n/a	-999	2	[0, 0, 0]	n/a	catFR1	1	R1180C
298.269	2.005	153018	REC_START	n/a	n/a	n/a	n/a	-999	2	[0, 0, 0]	n/a	catFR1	1	R1180C
300.274	1.731	154021	REC_WORD	2.005	n/a	TROMBONE	Instruments	5	2	[0, 0, 0]	n/a	catFR1	1	R1180C
302.005	2.415	154886	REC_WORD	3.736	n/a	BASS	Instruments	6	2	[0, 0, 0]	n/a	catFR1	1	R1180C
304.42	6.619	156093	REC_WORD	6.151	n/a	KNEE	BodyParts	11	2	[0, 0, 0]	n/a	catFR1	1	R1180C
311.039	17.241	159403	REC_WORD	12.77	n/a	ARM	n/a	-999	2	[0, 0, 0]	n/a	catFR1	1	R1180C
328.28	2.761	168022	REC_END	n/a	n/a	n/a	n/a	-999	2	[0, 0, 0]	n/a	catFR1	1	R1180C
331.041	10.0	169403	COUNTDOWN_START	n/a	n/a	n/a	n/a	-999	3	[0, 0, 0]	n/a	catFR1	1	R1180C
331.042	10.427	169403	TRIAL	n/a	n/a	n/a	n/a	-999	3	[0, 0, 0]	n/a	catFR1	1	R1180C
341.469	0.006	174616	COUNTDOWN_END	n/a	n/a	n/a	n/a	-999	3	[0, 0, 0]	n/a	catFR1	1	R1180C
341.475	1.6	174619	ORIENT	n/a	n/a	n/a	n/a	-999	3	[0, 0, 0]	n/a	catFR1	1	R1180C
345.16	1.6	176462	WORD	n/a	wordpools/wordpool_categorized_EN.txt	GNAT	Insects	1	3	[0, 0, 0]	n/a	catFR1	1	R1180C
347.693	1.6	177728	WORD	n/a	wordpools/wordpool_categorized_EN.txt	BEE	Insects	2	3	[0, 0, 0]	n/a	catFR1	1	R1180C
350.245	1.6	179004	WORD	n/a	wordpools/wordpool_categorized_EN.txt	ROOF	Building	3	3	[0, 0, 0]	n/a	catFR1	1	R1180C
352.711	1.6	180237	WORD	n/a	wordpools/wordpool_categorized_EN.txt	CEILING	Building	4	3	[0, 0, 0]	n/a	catFR1	1	R1180C
355.146	1.6	181454	WORD	n/a	wordpools/wordpool_categorized_EN.txt	DUCK	Birds	5	3	[0, 0, 0]	n/a	catFR1	1	R1180C
357.745	1.6	182754	WORD	n/a	wordpools/wordpool_categorized_EN.txt	SPARROW	Birds	6	3	[0, 0, 0]	n/a	catFR1	1	R1180C
360.213	1.6	183988	WORD	n/a	wordpools/wordpool_categorized_EN.txt	ATTIC	Building	7	3	[0, 0, 0]	n/a	catFR1	1	R1180C
362.646	1.6	185204	WORD	n/a	wordpools/wordpool_categorized_EN.txt	BATHROOM	Building	8	3	[0, 0, 0]	n/a	catFR1	1	R1180C
365.181	1.6	186471	WORD	n/a	wordpools/wordpool_categorized_EN.txt	MOSQUITO	Insects	9	3	[0, 0, 0]	n/a	catFR1	1	R1180C
367.647	1.6	187704	WORD	n/a	wordpools/wordpool_categorized_EN.txt	BUTTERFLY	Insects	10	3	[0, 0, 0]	n/a	catFR1	1	R1180C
370.065	1.6	188913	WORD	n/a	wordpools/wordpool_categorized_EN.txt	SEAGULL	Birds	11	3	[0, 0, 0]	n/a	catFR1	1	R1180C
372.581	1.6	190171	WORD	n/a	wordpools/wordpool_categorized_EN.txt	DOVE	Birds	12	3	[0, 0, 0]	n/a	catFR1	1	R1180C
374.182	0.001	190971	DISTRACT_START	n/a	n/a	n/a	n/a	-999	3	[0, 0, 0]	n/a	catFR1	1	R1180C
374.183	0.016	190972	START	n/a	n/a	n/a	n/a	-999	3	[-999, -999, -999]	n/a	catFR1	1	R1180C
374.199	7.551	190980	PROB	7.527	n/a	n/a	n/a	-999	3	[5, 8, 7]	20.0	catFR1	1	R1180C
381.75	5.934	194755	PROB	5.912	n/a	n/a	n/a	-999	3	[8, 7, 7]	22.0	catFR1	1	R1180C
387.684	3.684	197722	PROB	3.651	n/a	n/a	n/a	-999	3	[3, 3, 4]	10.0	catFR1	1	R1180C
391.368	3.631	199564	PROB	3.631	n/a	n/a	n/a	-999	3	[6, 3, 1]	10.0	catFR1	1	R1180C
394.999	0.004	201379	STOP	n/a	n/a	n/a	n/a	-999	3	[-999, -999, -999]	n/a	catFR1	1	R1180C
395.003	1.117	201381	DISTRACT_END	n/a	n/a	n/a	n/a	-999	3	[0, 0, 0]	n/a	catFR1	1	R1180C
396.12	1.226	201939	REC_START	n/a	n/a	n/a	n/a	-999	3	[0, 0, 0]	n/a	catFR1	1	R1180C
397.346	1.289	202552	REC_WORD	1.226	n/a	SEAGULL	Birds	11	3	[0, 0, 0]	n/a	catFR1	1	R1180C
398.635	1.014	203197	REC_WORD	2.515	n/a	DOVE	Birds	12	3	[0, 0, 0]	n/a	catFR1	1	R1180C
399.649	0.879	203704	REC_WORD	3.529	n/a	ATTIC	Building	7	3	[0, 0, 0]	n/a	catFR1	1	R1180C
400.528	1.505	204143	REC_WORD	4.408	n/a	CEILING	Building	4	3	[0, 0, 0]	n/a	catFR1	1	R1180C
402.033	1.024	204896	REC_WORD	5.913	n/a	BEE	Insects	2	3	[0, 0, 0]	n/a	catFR1	1	R1180C
403.057	4.206	205408	REC_WORD	6.937	n/a	GNAT	Insects	1	3	[0, 0, 0]	n/a	catFR1	1	R1180C
407.263	10.366	207510	REC_WORD	11.143	n/a	SPARROW	Birds	6	3	[0, 0, 0]	n/a	catFR1	1	R1180C
417.629	8.503	212693	REC_WORD	21.509	n/a	BATHROOM	Building	8	3	[0, 0, 0]	n/a	catFR1	1	R1180C
426.132	13.378	216944	REC_END	n/a	n/a	n/a	n/a	-999	3	[0, 0, 0]	n/a	catFR1	1	R1180C
439.51	10.0	223633	COUNTDOWN_START	n/a	n/a	n/a	n/a	-999	4	[0, 0, 0]	n/a	catFR1	1	R1180C
439.511	10.427	223633	TRIAL	n/a	n/a	n/a	n/a	-999	4	[0, 0, 0]	n/a	catFR1	1	R1180C
449.938	0.008	228846	COUNTDOWN_END	n/a	n/a	n/a	n/a	-999	4	[0, 0, 0]	n/a	catFR1	1	R1180C
449.946	1.6	228850	ORIENT	n/a	n/a	n/a	n/a	-999	4	[0, 0, 0]	n/a	catFR1	1	R1180C
453.663	1.6	230708	WORD	n/a	wordpools/wordpool_categorized_EN.txt	FOOTBALL	Toys	1	4	[0, 0, 0]	n/a	catFR1	1	R1180C
456.048	1.6	231901	WORD	n/a	wordpools/wordpool_categorized_EN.txt	BASEBALL	Toys	2	4	[0, 0, 0]	n/a	catFR1	1	R1180C
458.631	1.6	233192	WORD	n/a	wordpools/wordpool_categorized_EN.txt	OVEN	Appliances	3	4	[0, 0, 0]	n/a	catFR1	1	R1180C
461.149	1.6	234451	WORD	n/a	wordpools/wordpool_categorized_EN.txt	WASHER	Appliances	4	4	[0, 0, 0]	n/a	catFR1	1	R1180C
463.665	1.6	235709	WORD	n/a	wordpools/wordpool_categorized_EN.txt	CARROT	Vegetables	5	4	[0, 0, 0]	n/a	catFR1	1	R1180C
466.166	1.6	236959	WORD	n/a	wordpools/wordpool_categorized_EN.txt	CABBAGE	Vegetables	6	4	[0, 0, 0]	n/a	catFR1	1	R1180C
468.683	1.6	238218	WORD	n/a	wordpools/wordpool_categorized_EN.txt	TOASTER	Appliances	7	4	[0, 0, 0]	n/a	catFR1	1	R1180C
471.267	1.6	239510	WORD	n/a	wordpools/wordpool_categorized_EN.txt	BLENDER	Appliances	8	4	[0, 0, 0]	n/a	catFR1	1	R1180C
473.734	1.6	240743	WORD	n/a	wordpools/wordpool_categorized_EN.txt	BALL	Toys	9	4	[0, 0, 0]	n/a	catFR1	1	R1180C
476.352	1.6	242052	WORD	n/a	wordpools/wordpool_categorized_EN.txt	BASKETBALL	Toys	10	4	[0, 0, 0]	n/a	catFR1	1	R1180C
478.884	1.6	243318	WORD	n/a	wordpools/wordpool_categorized_EN.txt	POTATO	Vegetables	11	4	[0, 0, 0]	n/a	catFR1	1	R1180C
481.336	1.6	244544	WORD	n/a	wordpools/wordpool_categorized_EN.txt	ONION	Vegetables	12	4	[0, 0, 0]	n/a	catFR1	1	R1180C
482.952	0.001	245352	DISTRACT_START	n/a	n/a	n/a	n/a	-999	4	[0, 0, 0]	n/a	catFR1	1	R1180C
482.953	0.016	245352	START	n/a	n/a	n/a	n/a	-999	4	[-999, -999, -999]	n/a	catFR1	1	R1180C
482.969	8.585	245360	PROB	8.557	n/a	n/a	n/a	-999	4	[7, 6, 8]	21.0	catFR1	1	R1180C
491.554	5.2	249652	PROB	5.164	n/a	n/a	n/a	-999	4	[2, 7, 9]	18.0	catFR1	1	R1180C
496.754	3.818	252252	PROB	3.788	n/a	n/a	n/a	-999	4	[3, 8, 8]	19.0	catFR1	1	R1180C
500.572	5.154	254161	PROB	5.154	n/a	n/a	n/a	-999	4	[9, 4, 1]	14.0	catFR1	1	R1180C
505.726	0.014	256738	STOP	n/a	n/a	n/a	n/a	-999	4	[-999, -999, -999]	n/a	catFR1	1	R1180C
505.74	1.217	256745	DISTRACT_END	n/a	n/a	n/a	n/a	-999	4	[0, 0, 0]	n/a	catFR1	1	R1180C
506.957	2.679	257353	REC_START	n/a	n/a	n/a	n/a	-999	4	[0, 0, 0]	n/a	catFR1	1	R1180C
509.636	2.851	258692	REC_WORD	2.679	n/a	FOOTBALL	Toys	1	4	[0, 0, 0]	n/a	catFR1	1	R1180C
512.487	0.91	260118	REC_WORD	5.53	n/a	ONION	Vegetables	12	4	[0, 0, 0]	n/a	catFR1	1	R1180C
513.397	23.571	260573	REC_WORD	6.44	n/a	POTATO	Vegetables	11	4	[0, 0, 0]	n/a	catFR1	1	R1180C
536.968	3.728	272357	REC_END	n/a	n/a	n/a	n/a	-999	4	[0, 0, 0]	n/a	catFR1	1	R1180C
540.696	0.0	274221	TRIAL	n/a	n/a	n/a	n/a	-999	5	[0, 0, 0]	n/a	catFR1	1	R1180C
540.696	10.0	274221	COUNTDOWN_START	n/a	n/a	n/a	n/a	-999	5	[0, 0, 0]	n/a	catFR1	1	R1180C
551.124	0.008	279435	COUNTDOWN_END	n/a	n/a	n/a	n/a	-999	5	[0, 0, 0]	n/a	catFR1	1	R1180C
551.132	1.6	279439	ORIENT	n/a	n/a	n/a	n/a	-999	5	[0, 0, 0]	n/a	catFR1	1	R1180C
555.066	1.6	281405	WORD	n/a	wordpools/wordpool_categorized_EN.txt	WRENCH	Tools	1	5	[0, 0, 0]	n/a	catFR1	1	R1180C
557.516	1.6	282630	WORD	n/a	wordpools/wordpool_categorized_EN.txt	HAMMER	Tools	2	5	[0, 0, 0]	n/a	catFR1	1	R1180C
560.134	1.6	283939	WORD	n/a	wordpools/wordpool_categorized_EN.txt	CAR	Vehicles	3	5	[0, 0, 0]	n/a	catFR1	1	R1180C
562.717	1.6	285231	WORD	n/a	wordpools/wordpool_categorized_EN.txt	MOTORCYCLE	Vehicles	4	5	[0, 0, 0]	n/a	catFR1	1	R1180C
565.335	1.6	286539	WORD	n/a	wordpools/wordpool_categorized_EN.txt	PEAR	Fruit	5	5	[0, 0, 0]	n/a	catFR1	1	R1180C
567.901	1.6	287822	WORD	n/a	wordpools/wordpool_categorized_EN.txt	CHERRY	Fruit	6	5	[0, 0, 0]	n/a	catFR1	1	R1180C
570.502	1.6	289123	WORD	n/a	wordpools/wordpool_categorized_EN.txt	MOPED	Vehicles	7	5	[0, 0, 0]	n/a	catFR1	1	R1180C
572.935	1.6	290339	WORD	n/a	wordpools/wordpool_categorized_EN.txt	VAN	Vehicles	8	5	[0, 0, 0]	n/a	catFR1	1	R1180C
575.469	1.6	291606	WORD	n/a	wordpools/wordpool_categorized_EN.txt	PLIERS	Tools	9	5	[0, 0, 0]	n/a	catFR1	1	R1180C
577.987	1.6	292865	WORD	n/a	wordpools/wordpool_categorized_EN.txt	CROWBAR	Tools	10	5	[0, 0, 0]	n/a	catFR1	1	R1180C
580.37	1.6	294056	WORD	n/a	wordpools/wordpool_categorized_EN.txt	LIME	Fruit	11	5	[0, 0, 0]	n/a	catFR1	1	R1180C
582.937	1.6	295340	WORD	n/a	wordpools/wordpool_categorized_EN.txt	PEACH	Fruit	12	5	[0, 0, 0]	n/a	catFR1	1	R1180C
584.554	0.001	296148	DISTRACT_START	n/a	n/a	n/a	n/a	-999	5	[0, 0, 0]	n/a	catFR1	1	R1180C
584.555	0.016	296149	START	n/a	n/a	n/a	n/a	-999	5	[-999, -999, -999]	n/a	catFR1	1	R1180C
584.571	7.285	296157	PROB	7.259	n/a	n/a	n/a	-999	5	[5, 6, 4]	15.0	catFR1	1	R1180C
591.856	4.601	299799	PROB	4.566	n/a	n/a	n/a	-999	5	[9, 8, 2]	19.0	catFR1	1	R1180C
596.457	10.349	302099	PROB	10.349	n/a	n/a	n/a	-999	5	[1, 7, 6]	14.0	catFR1	1	R1180C
606.806	0.019	307273	STOP	n/a	n/a	n/a	n/a	-999	5	[-999, -999, -999]	n/a	catFR1	1	R1180C
606.825	1.084	307283	DISTRACT_END	n/a	n/a	n/a	n/a	-999	5	[0, 0, 0]	n/a	catFR1	1	R1180C
607.909	1.54	307825	REC_START	n/a	n/a	n/a	n/a	-999	5	[0, 0, 0]	n/a	catFR1	1	R1180C
609.449	0.931	308595	REC_WORD	1.54	n/a	CHERRY	Fruit	6	5	[0, 0, 0]	n/a	catFR1	1	R1180C
610.38	1.157	309060	REC_WORD	2.471	n/a	LIME	Fruit	11	5	[0, 0, 0]	n/a	catFR1	1	R1180C
611.537	1.24	309638	REC_WORD	3.628	n/a	PEACH	Fruit	12	5	[0, 0, 0]	n/a	catFR1	1	R1180C
612.777	0.997	310258	REC_WORD	4.868	n/a	WRENCH	Tools	1	5	[0, 0, 0]	n/a	catFR1	1	R1180C
613.774	1.659	310757	REC_WORD	5.865	n/a	PLIERS	Tools	9	5	[0, 0, 0]	n/a	catFR1	1	R1180C
615.433	22.491	311586	REC_WORD	7.524	n/a	MOPED	Vehicles	7	5	[0, 0, 0]	n/a	catFR1	1	R1180C
637.924	2.991	322831	REC_END	n/a	n/a	n/a	n/a	-999	5	[0, 0, 0]	n/a	catFR1	1	R1180C
640.915	0.0	324326	TRIAL	n/a	n/a	n/a	n/a	-999	6	[0, 0, 0]	n/a	catFR1	1	R1180C
640.915	10.0	324326	COUNTDOWN_START	n/a	n/a	n/a	n/a	-999	6	[0, 0, 0]	n/a	catFR1	1	R1180C
651.343	0.008	329540	COUNTDOWN_END	n/a	n/a	n/a	n/a	-999	6	[0, 0, 0]	n/a	catFR1	1	R1180C
651.351	1.6	329544	ORIENT	n/a	n/a	n/a	n/a	-999	6	[0, 0, 0]	n/a	catFR1	1	R1180C
655.152	1.6	331444	WORD	n/a	wordpools/wordpool_categorized_EN.txt	PETUNIA	Flowers	1	6	[0, 0, 0]	n/a	catFR1	1	R1180C
657.585	1.6	332660	WORD	n/a	wordpools/wordpool_categorized_EN.txt	ROSE	Flowers	2	6	[0, 0, 0]	n/a	catFR1	1	R1180C
660.186	1.6	333961	WORD	n/a	wordpools/wordpool_categorized_EN.txt	FUDGE	Desserts	3	6	[0, 0, 0]	n/a	catFR1	1	R1180C
662.736	1.6	335236	WORD	n/a	wordpools/wordpool_categorized_EN.txt	COOKIE	Desserts	4	6	[0, 0, 0]	n/a	catFR1	1	R1180C
665.17	1.6	336453	WORD	n/a	wordpools/wordpool_categorized_EN.txt	VACUUM	Appliances	5	6	[0, 0, 0]	n/a	catFR1	1	R1180C
667.587	1.6	337661	WORD	n/a	wordpools/wordpool_categorized_EN.txt	MIXER	Appliances	6	6	[0, 0, 0]	n/a	catFR1	1	R1180C
670.138	1.6	338936	WORD	n/a	wordpools/wordpool_categorized_EN.txt	DAFFODIL	Flowers	7	6	[0, 0, 0]	n/a	catFR1	1	R1180C
672.671	1.6	340203	WORD	n/a	wordpools/wordpool_categorized_EN.txt	TULIP	Flowers	8	6	[0, 0, 0]	n/a	catFR1	1	R1180C
675.156	1.6	341445	WORD	n/a	wordpools/wordpool_categorized_EN.txt	STOVE	Appliances	9	6	[0, 0, 0]	n/a	catFR1	1	R1180C
677.655	1.6	342695	WORD	n/a	wordpools/wordpool_categorized_EN.txt	IRON	Appliances	10	6	[0, 0, 0]	n/a	catFR1	1	R1180C
680.123	1.6	343928	WORD	n/a	wordpools/wordpool_categorized_EN.txt	CAKE	Desserts	11	6	[0, 0, 0]	n/a	catFR1	1	R1180C
682.539	1.6	345136	WORD	n/a	wordpools/wordpool_categorized_EN.txt	PUDDING	Desserts	12	6	[0, 0, 0]	n/a	catFR1	1	R1180C
684.141	0.001	345937	DISTRACT_START	n/a	n/a	n/a	n/a	-999	6	[0, 0, 0]	n/a	catFR1	1	R1180C
684.142	0.015	345938	START	n/a	n/a	n/a	n/a	-999	6	[-999, -999, -999]	n/a	catFR1	1	R1180C
684.157	4.868	345945	PROB	4.842	n/a	n/a	n/a	-999	6	[2, 6, 7]	15.0	catFR1	1	R1180C
689.025	11.235	348379	PROB	11.206	n/a	n/a	n/a	-999	6	[2, 4, 3]	9.0	catFR1	1	R1180C
700.26	10.987	353996	PROB	10.987	n/a	n/a	n/a	-999	6	[7, 4, 9]	20.0	catFR1	1	R1180C
711.247	0.015	359489	STOP	n/a	n/a	n/a	n/a	-999	6	[-999, -999, -999]	n/a	catFR1	1	R1180C
711.262	1.134	359497	DISTRACT_END	n/a	n/a	n/a	n/a	-999	6	[0, 0, 0]	n/a	catFR1	1	R1180C
712.396	1.461	360063	REC_START	n/a	n/a	n/a	n/a	-999	6	[0, 0, 0]	n/a	catFR1	1	R1180C
713.857	1.31	360794	REC_WORD	1.461	n/a	PETUNIA	Flowers	1	6	[0, 0, 0]	n/a	catFR1	1	R1180C
715.167	1.143	361449	REC_WORD	2.771	n/a	DAFFODIL	Flowers	7	6	[0, 0, 0]	n/a	catFR1	1	R1180C
716.31	1.074	362020	REC_WORD	3.914	n/a	COOKIE	Desserts	4	6	[0, 0, 0]	n/a	catFR1	1	R1180C
717.384	12.825	362557	REC_WORD	4.988	n/a	FUDGE	Desserts	3	6	[0, 0, 0]	n/a	catFR1	1	R1180C
730.209	12.198	368969	REC_WORD	17.813	n/a	MIXER	Appliances	6	6	[0, 0, 0]	n/a	catFR1	1	R1180C
742.407	9.312	375068	REC_END	n/a	n/a	n/a	n/a	-999	6	[0, 0, 0]	n/a	catFR1	1	R1180C
751.719	0.0	379723	TRIAL	n/a	n/a	n/a	n/a	-999	7	[0, 0, 0]	n/a	catFR1	1	R1180C
751.719	10.0	379723	COUNTDOWN_START	n/a	n/a	n/a	n/a	-999	7	[0, 0, 0]	n/a	catFR1	1	R1180C
762.147	0.008	384937	COUNTDOWN_END	n/a	n/a	n/a	n/a	-999	7	[0, 0, 0]	n/a	catFR1	1	R1180C
762.155	1.6	384941	ORIENT	n/a	n/a	n/a	n/a	-999	7	[0, 0, 0]	n/a	catFR1	1	R1180C
765.938	1.6	386832	WORD	n/a	wordpools/wordpool_categorized_EN.txt	OYSTER	OceanAnimals	1	7	[0, 0, 0]	n/a	catFR1	1	R1180C
768.323	1.6	388025	WORD	n/a	wordpools/wordpool_categorized_EN.txt	FISH	OceanAnimals	2	7	[0, 0, 0]	n/a	catFR1	1	R1180C
770.722	1.6	389224	WORD	n/a	wordpools/wordpool_categorized_EN.txt	GUITAR	Instruments	3	7	[0, 0, 0]	n/a	catFR1	1	R1180C
773.291	1.6	390508	WORD	n/a	wordpools/wordpool_categorized_EN.txt	BANJO	Instruments	4	7	[0, 0, 0]	n/a	catFR1	1	R1180C
775.907	1.6	391816	WORD	n/a	wordpools/wordpool_categorized_EN.txt	CRICKET	Insects	5	7	[0, 0, 0]	n/a	catFR1	1	R1180C
778.424	1.6	393075	WORD	n/a	wordpools/wordpool_categorized_EN.txt	ROACH	Insects	6	7	[0, 0, 0]	n/a	catFR1	1	R1180C
780.958	1.6	394341	WORD	n/a	wordpools/wordpool_categorized_EN.txt	PIANO	Instruments	7	7	[0, 0, 0]	n/a	catFR1	1	R1180C
783.558	1.6	395641	WORD	n/a	wordpools/wordpool_categorized_EN.txt	VIOLIN	Instruments	8	7	[0, 0, 0]	n/a	catFR1	1	R1180C
785.925	1.6	396825	WORD	n/a	wordpools/wordpool_categorized_EN.txt	TURTLE	OceanAnimals	9	7	[0, 0, 0]	n/a	catFR1	1	R1180C
788.426	1.6	398075	WORD	n/a	wordpools/wordpool_categorized_EN.txt	CRAB	OceanAnimals	10	7	[0, 0, 0]	n/a	catFR1	1	R1180C
790.826	1.6	399275	WORD	n/a	wordpools/wordpool_categorized_EN.txt	LADYBUG	Insects	11	7	[0, 0, 0]	n/a	catFR1	1	R1180C
793.393	1.6	400558	WORD	n/a	wordpools/wordpool_categorized_EN.txt	BEETLE	Insects	12	7	[0, 0, 0]	n/a	catFR1	1	R1180C
794.995	0.001	401359	DISTRACT_START	n/a	n/a	n/a	n/a	-999	7	[0, 0, 0]	n/a	catFR1	1	R1180C
794.996	0.015	401360	START	n/a	n/a	n/a	n/a	-999	7	[-999, -999, -999]	n/a	catFR1	1	R1180C
795.011	10.202	401367	PROB	10.172	n/a	n/a	n/a	-999	7	[4, 6, 9]	19.0	catFR1	1	R1180C
805.213	3.767	406468	PROB	3.745	n/a	n/a	n/a	-999	7	[1, 9, 9]	19.0	catFR1	1	R1180C
808.98	8.187	408351	PROB	8.187	n/a	n/a	n/a	-999	7	[5, 8, 7]	20.0	catFR1	1	R1180C
817.167	0.015	412444	STOP	n/a	n/a	n/a	n/a	-999	7	[-999, -999, -999]	n/a	catFR1	1	R1180C
817.182	1.084	412452	DISTRACT_END	n/a	n/a	n/a	n/a	-999	7	[0, 0, 0]	n/a	catFR1	1	R1180C
818.266	1.935	412994	REC_START	n/a	n/a	n/a	n/a	-999	7	[0, 0, 0]	n/a	catFR1	1	R1180C
820.201	1.11	413961	REC_WORD	1.935	n/a	LADYBUG	Insects	11	7	[0, 0, 0]	n/a	catFR1	1	R1180C
821.311	1.534	414516	REC_WORD	3.045	n/a	BEETLE	Insects	12	7	[0, 0, 0]	n/a	catFR1	1	R1180C
822.845	1.039	415283	REC_WORD	4.579	n/a	GUITAR	Instruments	3	7	[0, 0, 0]	n/a	catFR1	1	R1180C
823.884	1.922	415803	REC_WORD	5.618	n/a	VIOLIN	Instruments	8	7	[0, 0, 0]	n/a	catFR1	1	R1180C
825.806	1.624	416763	REC_WORD	7.54	n/a	TURTLE	OceanAnimals	9	7	[0, 0, 0]	n/a	catFR1	1	R1180C
827.43	15.219	417575	REC_WORD	9.164	n/a	ROACH	Insects	6	7	[0, 0, 0]	n/a	catFR1	1	R1180C
842.649	5.629	425184	REC_WORD	24.383	n/a	CRICKET	Insects	5	7	[0, 0, 0]	n/a	catFR1	1	R1180C
848.278	3.476	427998	REC_END	n/a	n/a	n/a	n/a	-999	7	[0, 0, 0]	n/a	catFR1	1	R1180C
851.754	10.0	429736	COUNTDOWN_START	n/a	n/a	n/a	n/a	-999	8	[0, 0, 0]	n/a	catFR1	1	R1180C
851.755	10.427	429737	TRIAL	n/a	n/a	n/a	n/a	-999	8	[0, 0, 0]	n/a	catFR1	1	R1180C
862.182	0.009	434950	COUNTDOWN_END	n/a	n/a	n/a	n/a	-999	8	[0, 0, 0]	n/a	catFR1	1	R1180C
862.191	1.6	434954	ORIENT	n/a	n/a	n/a	n/a	-999	8	[0, 0, 0]	n/a	catFR1	1	R1180C
865.907	1.6	436812	WORD	n/a	wordpools/wordpool_categorized_EN.txt	FREEZER	Appliances	1	8	[0, 0, 0]	n/a	catFR1	1	R1180C
868.408	1.6	438063	WORD	n/a	wordpools/wordpool_categorized_EN.txt	DISHWASHER	Appliances	2	8	[0, 0, 0]	n/a	catFR1	1	R1180C
870.791	1.6	439254	WORD	n/a	wordpools/wordpool_categorized_EN.txt	GORILLA	Zoo	3	8	[0, 0, 0]	n/a	catFR1	1	R1180C
873.293	1.6	440505	WORD	n/a	wordpools/wordpool_categorized_EN.txt	PANDA	Zoo	4	8	[0, 0, 0]	n/a	catFR1	1	R1180C
875.842	1.6	441779	WORD	n/a	wordpools/wordpool_categorized_EN.txt	FLOOR	Building	5	8	[0, 0, 0]	n/a	catFR1	1	R1180C
878.294	1.6	443005	WORD	n/a	wordpools/wordpool_categorized_EN.txt	STAIRS	Building	6	8	[0, 0, 0]	n/a	catFR1	1	R1180C
880.726	1.6	444221	WORD	n/a	wordpools/wordpool_categorized_EN.txt	REFRIGERATOR	Appliances	7	8	[0, 0, 0]	n/a	catFR1	1	R1180C
883.211	1.6	445463	WORD	n/a	wordpools/wordpool_categorized_EN.txt	DRYER	Appliances	8	8	[0, 0, 0]	n/a	catFR1	1	R1180C
885.711	1.6	446713	WORD	n/a	wordpools/wordpool_categorized_EN.txt	WINDOW	Building	9	8	[0, 0, 0]	n/a	catFR1	1	R1180C
888.112	1.6	447914	WORD	n/a	wordpools/wordpool_categorized_EN.txt	FOUNDATION	Building	10	8	[0, 0, 0]	n/a	catFR1	1	R1180C
890.612	1.6	449164	WORD	n/a	wordpools/wordpool_categorized_EN.txt	ELEPHANT	Zoo	11	8	[0, 0, 0]	n/a	catFR1	1	R1180C
893.197	1.6	450456	WORD	n/a	wordpools/wordpool_categorized_EN.txt	ZEBRA	Zoo	12	8	[0, 0, 0]	n/a	catFR1	1	R1180C
894.812	0.002	451263	DISTRACT_START	n/a	n/a	n/a	n/a	-999	8	[0, 0, 0]	n/a	catFR1	1	R1180C
894.814	0.015	451264	START	n/a	n/a	n/a	n/a	-999	8	[-999, -999, -999]	n/a	catFR1	1	R1180C
894.829	2.817	451272	PROB	2.785	n/a	n/a	n/a	-999	8	[3, 2, 3]	8.0	catFR1	1	R1180C
897.646	4.968	452680	PROB	4.936	n/a	n/a	n/a	-999	8	[4, 9, 2]	15.0	catFR1	1	R1180C
902.614	5.918	455164	PROB	5.888	n/a	n/a	n/a	-999	8	[4, 3, 8]	15.0	catFR1	1	R1180C
908.532	5.702	458123	PROB	5.675	n/a	n/a	n/a	-999	8	[3, 9, 2]	14.0	catFR1	1	R1180C
914.234	6.42	460974	PROB	6.42	n/a	n/a	n/a	-999	8	[4, 5, 9]	18.0	catFR1	1	R1180C
920.654	0.013	464183	STOP	n/a	n/a	n/a	n/a	-999	8	[-999, -999, -999]	n/a	catFR1	1	R1180C
920.667	1.118	464190	DISTRACT_END	n/a	n/a	n/a	n/a	-999	8	[0, 0, 0]	n/a	catFR1	1	R1180C
921.785	1.68	464749	REC_START	n/a	n/a	n/a	n/a	-999	8	[0, 0, 0]	n/a	catFR1	1	R1180C
923.465	1.772	465589	REC_WORD	1.68	n/a	DRYER	Appliances	8	8	[0, 0, 0]	n/a	catFR1	1	R1180C
925.237	0.952	466475	REC_WORD	3.452	n/a	WASHER	n/a	-999	8	[0, 0, 0]	n/a	catFR1	1	R1180C
926.189	1.452	466951	REC_WORD	4.404	n/a	REFRIGERATOR	Appliances	7	8	[0, 0, 0]	n/a	catFR1	1	R1180C
927.641	24.156	467676	REC_WORD	5.856	n/a	FREEZER	Appliances	1	8	[0, 0, 0]	n/a	catFR1	1	R1180C
951.797	2.461	479753	REC_END	n/a	n/a	n/a	n/a	-999	8	[0, 0, 0]	n/a	catFR1	1	R1180C
954.258	0.0	480984	TRIAL	n/a	n/a	n/a	n/a	-999	9	[0, 0, 0]	n/a	catFR1	1	R1180C
954.258	10.0	480984	COUNTDOWN_START	n/a	n/a	n/a	n/a	-999	9	[0, 0, 0]	n/a	catFR1	1	R1180C
964.686	0.006	486197	COUNTDOWN_END	n/a	n/a	n/a	n/a	-999	9	[0, 0, 0]	n/a	catFR1	1	R1180C
964.692	1.6	486200	ORIENT	n/a	n/a	n/a	n/a	-999	9	[0, 0, 0]	n/a	catFR1	1	R1180C
968.46	1.6	488084	WORD	n/a	wordpools/wordpool_categorized_EN.txt	WOODS	Landscapes	1	9	[0, 0, 0]	n/a	catFR1	1	R1180C
970.994	1.6	489351	WORD	n/a	wordpools/wordpool_categorized_EN.txt	LAKE	Landscapes	2	9	[0, 0, 0]	n/a	catFR1	1	R1180C
973.527	1.6	490617	WORD	n/a	wordpools/wordpool_categorized_EN.txt	COW	FarmAnimals	3	9	[0, 0, 0]	n/a	catFR1	1	R1180C
976.129	1.6	491918	WORD	n/a	wordpools/wordpool_categorized_EN.txt	SHEEP	FarmAnimals	4	9	[0, 0, 0]	n/a	catFR1	1	R1180C
978.545	1.6	493126	WORD	n/a	wordpools/wordpool_categorized_EN.txt	ELM	Trees	5	9	[0, 0, 0]	n/a	catFR1	1	R1180C
980.996	1.6	494352	WORD	n/a	wordpools/wordpool_categorized_EN.txt	PINE	Trees	6	9	[0, 0, 0]	n/a	catFR1	1	R1180C
983.546	1.6	495627	WORD	n/a	wordpools/wordpool_categorized_EN.txt	VALLEY	Landscapes	7	9	[0, 0, 0]	n/a	catFR1	1	R1180C
986.031	1.6	496869	WORD	n/a	wordpools/wordpool_categorized_EN.txt	HILLS	Landscapes	8	9	[0, 0, 0]	n/a	catFR1	1	R1180C
988.63	1.6	498168	WORD	n/a	wordpools/wordpool_categorized_EN.txt	HICKORY	Trees	9	9	[0, 0, 0]	n/a	catFR1	1	R1180C
991.048	1.6	499377	WORD	n/a	wordpools/wordpool_categorized_EN.txt	EVERGREEN	Trees	10	9	[0, 0, 0]	n/a	catFR1	1	R1180C
993.631	1.6	500669	WORD	n/a	wordpools/wordpool_categorized_EN.txt	CALF	FarmAnimals	11	9	[0, 0, 0]	n/a	catFR1	1	R1180C
996.116	1.6	501911	WORD	n/a	wordpools/wordpool_categorized_EN.txt	ROOSTER	FarmAnimals	12	9	[0, 0, 0]	n/a	catFR1	1	R1180C
997.732	0.001	502719	DISTRACT_START	n/a	n/a	n/a	n/a	-999	9	[0, 0, 0]	n/a	catFR1	1	R1180C
997.733	0.015	502719	START	n/a	n/a	n/a	n/a	-999	9	[-999, -999, -999]	n/a	catFR1	1	R1180C
997.748	5.952	502727	PROB	5.93	n/a	n/a	n/a	-999	9	[4, 1, 3]	8.0	catFR1	1	R1180C
1003.7	5.352	505703	PROB	5.331	n/a	n/a	n/a	-999	9	[8, 4, 7]	19.0	catFR1	1	R1180C
1009.052	5.333	508378	PROB	5.307	n/a	n/a	n/a	-999	9	[3, 8, 9]	20.0	catFR1	1	R1180C
1014.385	8.646	511045	PROB	8.646	n/a	n/a	n/a	-999	9	[8, 5, 1]	14.0	catFR1	1	R1180C
1023.031	0.006	515367	STOP	n/a	n/a	n/a	n/a	-999	9	[-999, -999, -999]	n/a	catFR1	1	R1180C
1023.037	1.085	515370	DISTRACT_END	n/a	n/a	n/a	n/a	-999	9	[0, 0, 0]	n/a	catFR1	1	R1180C
1024.122	2.021	515913	REC_START	n/a	n/a	n/a	n/a	-999	9	[0, 0, 0]	n/a	catFR1	1	R1180C
1026.143	1.55	516923	REC_WORD	2.021	n/a	EVERGREEN	Trees	10	9	[0, 0, 0]	n/a	catFR1	1	R1180C
1027.693	1.414	517698	REC_WORD	3.571	n/a	HICKORY	Trees	9	9	[0, 0, 0]	n/a	catFR1	1	R1180C
1029.107	2.501	518405	REC_WORD	4.985	n/a	PINE	Trees	6	9	[0, 0, 0]	n/a	catFR1	1	R1180C
1031.608	1.551	519655	REC_WORD	7.486	n/a	MAPLE	n/a	-999	9	[0, 0, 0]	n/a	catFR1	1	R1180C
1033.159	2.048	520431	REC_WORD	9.037	n/a	CALF	FarmAnimals	11	9	[0, 0, 0]	n/a	catFR1	1	R1180C
1035.207	5.268	521455	REC_WORD	11.085	n/a	TREE	n/a	-999	9	[0, 0, 0]	n/a	catFR1	1	R1180C
1040.475	6.757	524089	REC_WORD	16.353	n/a	FOREST	n/a	-999	9	[0, 0, 0]	n/a	catFR1	1	R1180C
1047.232	6.902	527467	REC_WORD	23.11	n/a	GRASS	n/a	-999	9	[0, 0, 0]	n/a	catFR1	1	R1180C
1054.134	11.511	530917	REC_END	n/a	n/a	n/a	n/a	-999	9	[0, 0, 0]	n/a	catFR1	1	R1180C
1065.645	10.0	536672	COUNTDOWN_START	n/a	n/a	n/a	n/a	-999	10	[0, 0, 0]	n/a	catFR1	1	R1180C
1065.645	10.428	536672	TRIAL	n/a	n/a	n/a	n/a	-999	10	[0, 0, 0]	n/a	catFR1	1	R1180C
1076.073	0.008	541886	COUNTDOWN_END	n/a	n/a	n/a	n/a	-999	10	[0, 0, 0]	n/a	catFR1	1	R1180C
1076.081	1.6	541890	ORIENT	n/a	n/a	n/a	n/a	-999	10	[0, 0, 0]	n/a	catFR1	1	R1180C
1079.947	1.6	543823	WORD	n/a	wordpools/wordpool_categorized_EN.txt	WINE	Beverages	1	10	[0, 0, 0]	n/a	catFR1	1	R1180C
1082.448	1.6	545073	WORD	n/a	wordpools/wordpool_categorized_EN.txt	JUICE	Beverages	2	10	[0, 0, 0]	n/a	catFR1	1	R1180C
1084.915	1.6	546307	WORD	n/a	wordpools/wordpool_categorized_EN.txt	ROBIN	Birds	3	10	[0, 0, 0]	n/a	catFR1	1	R1180C
1087.365	1.6	547531	WORD	n/a	wordpools/wordpool_categorized_EN.txt	GOOSE	Birds	4	10	[0, 0, 0]	n/a	catFR1	1	R1180C
1089.916	1.6	548807	WORD	n/a	wordpools/wordpool_categorized_EN.txt	SPOON	KitchenTools	5	10	[0, 0, 0]	n/a	catFR1	1	R1180C
1092.533	1.6	550115	WORD	n/a	wordpools/wordpool_categorized_EN.txt	GRATER	KitchenTools	6	10	[0, 0, 0]	n/a	catFR1	1	R1180C
1095.051	1.6	551374	WORD	n/a	wordpools/wordpool_categorized_EN.txt	PIGEON	Birds	7	10	[0, 0, 0]	n/a	catFR1	1	R1180C
1097.584	1.6	552640	WORD	n/a	wordpools/wordpool_categorized_EN.txt	FINCH	Birds	8	10	[0, 0, 0]	n/a	catFR1	1	R1180C
1100.169	1.6	553933	WORD	n/a	wordpools/wordpool_categorized_EN.txt	RUM	Beverages	9	10	[0, 0, 0]	n/a	catFR1	1	R1180C
1102.718	1.6	555207	WORD	n/a	wordpools/wordpool_categorized_EN.txt	COLA	Beverages	10	10	[0, 0, 0]	n/a	catFR1	1	R1180C
1105.203	1.6	556450	WORD	n/a	wordpools/wordpool_categorized_EN.txt	KNIFE	KitchenTools	11	10	[0, 0, 0]	n/a	catFR1	1	R1180C
1107.652	1.6	557674	WORD	n/a	wordpools/wordpool_categorized_EN.txt	LADLE	KitchenTools	12	10	[0, 0, 0]	n/a	catFR1	1	R1180C
1109.253	0.002	558474	DISTRACT_START	n/a	n/a	n/a	n/a	-999	10	[0, 0, 0]	n/a	catFR1	1	R1180C
1109.255	0.015	558475	START	n/a	n/a	n/a	n/a	-999	10	[-999, -999, -999]	n/a	catFR1	1	R1180C
1109.27	6.267	558483	PROB	6.232	n/a	n/a	n/a	-999	10	[9, 2, 4]	15.0	catFR1	1	R1180C
1115.537	6.235	561616	PROB	6.213	n/a	n/a	n/a	-999	10	[2, 6, 4]	12.0	catFR1	1	R1180C
1121.772	4.951	564733	PROB	4.922	n/a	n/a	n/a	-999	10	[6, 6, 5]	17.0	catFR1	1	R1180C
1126.723	5.548	567209	PROB	5.548	n/a	n/a	n/a	-999	10	[8, 5, 2]	15.0	catFR1	1	R1180C
1132.271	0.003	569982	STOP	n/a	n/a	n/a	n/a	-999	10	[-999, -999, -999]	n/a	catFR1	1	R1180C
1132.274	1.167	569984	DISTRACT_END	n/a	n/a	n/a	n/a	-999	10	[0, 0, 0]	n/a	catFR1	1	R1180C
1133.441	1.433	570567	REC_START	n/a	n/a	n/a	n/a	-999	10	[0, 0, 0]	n/a	catFR1	1	R1180C
1134.874	1.084	571284	REC_WORD	1.433	n/a	WINE	Beverages	1	10	[0, 0, 0]	n/a	catFR1	1	R1180C
1135.958	3.852	571826	REC_WORD	2.517	n/a	JUICE	Beverages	2	10	[0, 0, 0]	n/a	catFR1	1	R1180C
1139.81	1.565	573752	REC_WORD	6.369	n/a	GOOSE	Birds	4	10	[0, 0, 0]	n/a	catFR1	1	R1180C
1141.375	3.181	574534	REC_WORD	7.934	n/a	LADLE	KitchenTools	12	10	[0, 0, 0]	n/a	catFR1	1	R1180C
1144.556	18.9	576124	REC_WORD	11.115	n/a	RUM	Beverages	9	10	[0, 0, 0]	n/a	catFR1	1	R1180C
1163.456	4.408	585574	REC_END	n/a	n/a	n/a	n/a	-999	10	[0, 0, 0]	n/a	catFR1	1	R1180C
1167.864	0.0	587777	TRIAL	n/a	n/a	n/a	n/a	-999	11	[0, 0, 0]	n/a	catFR1	1	R1180C
1167.864	10.0	587777	COUNTDOWN_START	n/a	n/a	n/a	n/a	-999	11	[0, 0, 0]	n/a	catFR1	1	R1180C
1178.292	0.008	592991	COUNTDOWN_END	n/a	n/a	n/a	n/a	-999	11	[0, 0, 0]	n/a	catFR1	1	R1180C
1178.3	1.6	592995	ORIENT	n/a	n/a	n/a	n/a	-999	11	[0, 0, 0]	n/a	catFR1	1	R1180C
1182.167	1.6	594928	WORD	n/a	wordpools/wordpool_categorized_EN.txt	ORANGE	Fruit	1	11	[0, 0, 0]	n/a	catFR1	1	R1180C
1184.734	1.6	596212	WORD	n/a	wordpools/wordpool_categorized_EN.txt	PLUM	Fruit	2	11	[0, 0, 0]	n/a	catFR1	1	R1180C
1187.352	1.6	597521	WORD	n/a	wordpools/wordpool_categorized_EN.txt	WATER	Beverages	3	11	[0, 0, 0]	n/a	catFR1	1	R1180C
1189.934	1.6	598811	WORD	n/a	wordpools/wordpool_categorized_EN.txt	BEER	Beverages	4	11	[0, 0, 0]	n/a	catFR1	1	R1180C
1192.402	1.6	600045	WORD	n/a	wordpools/wordpool_categorized_EN.txt	SLINKY	Toys	5	11	[0, 0, 0]	n/a	catFR1	1	R1180C
1194.885	1.6	601287	WORD	n/a	wordpools/wordpool_categorized_EN.txt	FRISBEE	Toys	6	11	[0, 0, 0]	n/a	catFR1	1	R1180C
1197.436	1.6	602562	WORD	n/a	wordpools/wordpool_categorized_EN.txt	COFFEE	Beverages	7	11	[0, 0, 0]	n/a	catFR1	1	R1180C
1200.004	1.6	603846	WORD	n/a	wordpools/wordpool_categorized_EN.txt	LEMONADE	Beverages	8	11	[0, 0, 0]	n/a	catFR1	1	R1180C
1202.404	1.6	605046	WORD	n/a	wordpools/wordpool_categorized_EN.txt	STRAWBERRY	Fruit	9	11	[0, 0, 0]	n/a	catFR1	1	R1180C
1204.871	1.6	606279	WORD	n/a	wordpools/wordpool_categorized_EN.txt	LEMON	Fruit	10	11	[0, 0, 0]	n/a	catFR1	1	R1180C
1207.322	1.6	607505	WORD	n/a	wordpools/wordpool_categorized_EN.txt	PUZZLE	Toys	11	11	[0, 0, 0]	n/a	catFR1	1	R1180C
1209.938	1.6	608813	WORD	n/a	wordpools/wordpool_categorized_EN.txt	DOLL	Toys	12	11	[0, 0, 0]	n/a	catFR1	1	R1180C
1211.555	0.001	609621	DISTRACT_START	n/a	n/a	n/a	n/a	-999	11	[0, 0, 0]	n/a	catFR1	1	R1180C
1211.556	0.016	609621	START	n/a	n/a	n/a	n/a	-999	11	[-999, -999, -999]	n/a	catFR1	1	R1180C
1211.572	5.368	609629	PROB	5.338	n/a	n/a	n/a	-999	11	[6, 7, 2]	15.0	catFR1	1	R1180C
1216.94	5.967	612313	PROB	5.946	n/a	n/a	n/a	-999	11	[7, 1, 6]	14.0	catFR1	1	R1180C
1222.907	3.551	615296	PROB	3.515	n/a	n/a	n/a	-999	11	[3, 1, 4]	8.0	catFR1	1	R1180C
1226.458	5.597	617072	PROB	5.597	n/a	n/a	n/a	-999	11	[5, 2, 2]	9.0	catFR1	1	R1180C
1232.055	0.005	619870	STOP	n/a	n/a	n/a	n/a	-999	11	[-999, -999, -999]	n/a	catFR1	1	R1180C
1232.06	1.101	619873	DISTRACT_END	n/a	n/a	n/a	n/a	-999	11	[0, 0, 0]	n/a	catFR1	1	R1180C
1233.161	2.033	620423	REC_START	n/a	n/a	n/a	n/a	-999	11	[0, 0, 0]	n/a	catFR1	1	R1180C
1235.194	5.085	621439	REC_WORD	2.033	n/a	COFFEE	Beverages	7	11	[0, 0, 0]	n/a	catFR1	1	R1180C
1240.279	1.561	623982	REC_WORD	7.118	n/a	LEMON	Fruit	10	11	[0, 0, 0]	n/a	catFR1	1	R1180C
1241.84	2.715	624762	REC_WORD	8.679	n/a	STRAWBERRY	Fruit	9	11	[0, 0, 0]	n/a	catFR1	1	R1180C
1244.555	18.618	626120	REC_WORD	11.394	n/a	BEER	Beverages	4	11	[0, 0, 0]	n/a	catFR1	1	R1180C
1263.173	8.911	635428	REC_END	n/a	n/a	n/a	n/a	-999	11	[0, 0, 0]	n/a	catFR1	1	R1180C
1272.084	0.0	639883	TRIAL	n/a	n/a	n/a	n/a	-999	12	[0, 0, 0]	n/a	catFR1	1	R1180C
1272.084	10.0	639883	COUNTDOWN_START	n/a	n/a	n/a	n/a	-999	12	[0, 0, 0]	n/a	catFR1	1	R1180C
1282.512	0.007	645096	COUNTDOWN_END	n/a	n/a	n/a	n/a	-999	12	[0, 0, 0]	n/a	catFR1	1	R1180C
1282.519	1.6	645100	ORIENT	n/a	n/a	n/a	n/a	-999	12	[0, 0, 0]	n/a	catFR1	1	R1180C
1286.137	1.6	646909	WORD	n/a	wordpools/wordpool_categorized_EN.txt	SHIRT	Clothing	1	12	[0, 0, 0]	n/a	catFR1	1	R1180C
1288.703	1.6	648192	WORD	n/a	wordpools/wordpool_categorized_EN.txt	DRESS	Clothing	2	12	[0, 0, 0]	n/a	catFR1	1	R1180C
1291.238	1.6	649459	WORD	n/a	wordpools/wordpool_categorized_EN.txt	SPATULA	KitchenTools	3	12	[0, 0, 0]	n/a	catFR1	1	R1180C
1293.754	1.6	650717	WORD	n/a	wordpools/wordpool_categorized_EN.txt	PEELER	KitchenTools	4	12	[0, 0, 0]	n/a	catFR1	1	R1180C
1296.305	1.6	651992	WORD	n/a	wordpools/wordpool_categorized_EN.txt	SNOW	Weather	5	12	[0, 0, 0]	n/a	catFR1	1	R1180C
1298.838	1.6	653259	WORD	n/a	wordpools/wordpool_categorized_EN.txt	FOG	Weather	6	12	[0, 0, 0]	n/a	catFR1	1	R1180C
1301.306	1.6	654492	WORD	n/a	wordpools/wordpool_categorized_EN.txt	UNDERWEAR	Clothing	7	12	[0, 0, 0]	n/a	catFR1	1	R1180C
1303.823	1.6	655751	WORD	n/a	wordpools/wordpool_categorized_EN.txt	SHOES	Clothing	8	12	[0, 0, 0]	n/a	catFR1	1	R1180C
1306.373	1.6	657026	WORD	n/a	wordpools/wordpool_categorized_EN.txt	HURRICANE	Weather	9	12	[0, 0, 0]	n/a	catFR1	1	R1180C
1308.991	1.6	658335	WORD	n/a	wordpools/wordpool_categorized_EN.txt	RAIN	Weather	10	12	[0, 0, 0]	n/a	catFR1	1	R1180C
1311.441	1.6	659560	WORD	n/a	wordpools/wordpool_categorized_EN.txt	COLANDER	KitchenTools	11	12	[0, 0, 0]	n/a	catFR1	1	R1180C
1313.974	1.6	660826	WORD	n/a	wordpools/wordpool_categorized_EN.txt	CORKSCREW	KitchenTools	12	12	[0, 0, 0]	n/a	catFR1	1	R1180C
1315.591	0.001	661634	DISTRACT_START	n/a	n/a	n/a	n/a	-999	12	[0, 0, 0]	n/a	catFR1	1	R1180C
1315.592	0.016	661635	START	n/a	n/a	n/a	n/a	-999	12	[-999, -999, -999]	n/a	catFR1	1	R1180C
1315.608	3.801	661643	PROB	3.766	n/a	n/a	n/a	-999	12	[8, 1, 1]	10.0	catFR1	1	R1180C
1319.409	2.835	663543	PROB	2.814	n/a	n/a	n/a	-999	12	[7, 7, 1]	15.0	catFR1	1	R1180C
1322.244	4.299	664961	PROB	4.274	n/a	n/a	n/a	-999	12	[8, 5, 2]	15.0	catFR1	1	R1180C
1326.543	3.769	667110	PROB	3.744	n/a	n/a	n/a	-999	12	[2, 6, 6]	14.0	catFR1	1	R1180C
1330.312	4.233	668994	PROB	4.198	n/a	n/a	n/a	-999	12	[2, 1, 3]	6.0	catFR1	1	R1180C
1334.545	6.349	671111	PROB	6.349	n/a	n/a	n/a	-999	12	[3, 9, 7]	19.0	catFR1	1	R1180C
1340.894	0.019	674285	STOP	n/a	n/a	n/a	n/a	-999	12	[-999, -999, -999]	n/a	catFR1	1	R1180C
1340.913	1.102	674294	DISTRACT_END	n/a	n/a	n/a	n/a	-999	12	[0, 0, 0]	n/a	catFR1	1	R1180C
1342.015	3.268	674845	REC_START	n/a	n/a	n/a	n/a	-999	12	[0, 0, 0]	n/a	catFR1	1	R1180C
1345.283	23.952	676479	REC_WORD	3.268	n/a	CORKSCREW	KitchenTools	12	12	[0, 0, 0]	n/a	catFR1	1	R1180C
1369.235	2.79	688454	REC_WORD	27.22	n/a	COFFEE	n/a	-999	12	[0, 0, 0]	n/a	catFR1	1	R1180C
1372.025	7.329	689849	REC_END	n/a	n/a	n/a	n/a	-999	12	[0, 0, 0]	n/a	catFR1	1	R1180C
1379.354	10.0	693513	COUNTDOWN_START	n/a	n/a	n/a	n/a	-999	13	[0, 0, 0]	n/a	catFR1	1	R1180C
1379.355	10.427	693514	TRIAL	n/a	n/a	n/a	n/a	-999	13	[0, 0, 0]	n/a	catFR1	1	R1180C
1389.782	0.007	698727	COUNTDOWN_END	n/a	n/a	n/a	n/a	-999	13	[0, 0, 0]	n/a	catFR1	1	R1180C
1389.789	1.6	698730	ORIENT	n/a	n/a	n/a	n/a	-999	13	[0, 0, 0]	n/a	catFR1	1	R1180C
1393.324	1.6	700497	WORD	n/a	wordpools/wordpool_categorized_EN.txt	SUNFLOWER	Flowers	1	13	[0, 0, 0]	n/a	catFR1	1	R1180C
1395.773	1.6	701722	WORD	n/a	wordpools/wordpool_categorized_EN.txt	CARNATION	Flowers	2	13	[0, 0, 0]	n/a	catFR1	1	R1180C
1398.39	1.6	703030	WORD	n/a	wordpools/wordpool_categorized_EN.txt	STAPLER	OfficeSupplies	3	13	[0, 0, 0]	n/a	catFR1	1	R1180C
1401.008	1.6	704339	WORD	n/a	wordpools/wordpool_categorized_EN.txt	TAPE	OfficeSupplies	4	13	[0, 0, 0]	n/a	catFR1	1	R1180C
1403.524	1.6	705597	WORD	n/a	wordpools/wordpool_categorized_EN.txt	TRAIN	Vehicles	5	13	[0, 0, 0]	n/a	catFR1	1	R1180C
1406.076	1.6	706873	WORD	n/a	wordpools/wordpool_categorized_EN.txt	PLANE	Vehicles	6	13	[0, 0, 0]	n/a	catFR1	1	R1180C
1408.525	1.6	708097	WORD	n/a	wordpools/wordpool_categorized_EN.txt	RULER	OfficeSupplies	7	13	[0, 0, 0]	n/a	catFR1	1	R1180C
1410.959	1.6	709314	WORD	n/a	wordpools/wordpool_categorized_EN.txt	NOTEBOOK	OfficeSupplies	8	13	[0, 0, 0]	n/a	catFR1	1	R1180C
1413.376	1.6	710523	WORD	n/a	wordpools/wordpool_categorized_EN.txt	DAISY	Flowers	9	13	[0, 0, 0]	n/a	catFR1	1	R1180C
1415.894	1.6	711781	WORD	n/a	wordpools/wordpool_categorized_EN.txt	VIOLET	Flowers	10	13	[0, 0, 0]	n/a	catFR1	1	R1180C
1418.511	1.6	713090	WORD	n/a	wordpools/wordpool_categorized_EN.txt	BUS	Vehicles	11	13	[0, 0, 0]	n/a	catFR1	1	R1180C
1421.096	1.6	714382	WORD	n/a	wordpools/wordpool_categorized_EN.txt	JEEP	Vehicles	12	13	[0, 0, 0]	n/a	catFR1	1	R1180C
1422.712	0.0	715190	DISTRACT_START	n/a	n/a	n/a	n/a	-999	13	[0, 0, 0]	n/a	catFR1	1	R1180C
1422.712	0.016	715190	START	n/a	n/a	n/a	n/a	-999	13	[-999, -999, -999]	n/a	catFR1	1	R1180C
1422.728	3.851	715198	PROB	3.822	n/a	n/a	n/a	-999	13	[5, 2, 3]	10.0	catFR1	1	R1180C
1426.579	4.468	717123	PROB	4.444	n/a	n/a	n/a	-999	13	[8, 4, 8]	20.0	catFR1	1	R1180C
1431.047	7.534	719357	PROB	7.511	n/a	n/a	n/a	-999	13	[8, 8, 9]	25.0	catFR1	1	R1180C
1438.581	3.468	723124	PROB	3.442	n/a	n/a	n/a	-999	13	[1, 3, 8]	12.0	catFR1	1	R1180C
1442.049	6.469	724858	PROB	6.469	n/a	n/a	n/a	-999	13	[3, 8, 3]	14.0	catFR1	1	R1180C
1448.518	0.015	728092	STOP	n/a	n/a	n/a	n/a	-999	13	[-999, -999, -999]	n/a	catFR1	1	R1180C
1448.533	1.084	728100	DISTRACT_END	n/a	n/a	n/a	n/a	-999	13	[0, 0, 0]	n/a	catFR1	1	R1180C
1449.617	1.316	728641	REC_START	n/a	n/a	n/a	n/a	-999	13	[0, 0, 0]	n/a	catFR1	1	R1180C
1450.933	1.319	729299	REC_WORD	1.316	n/a	JEEP	Vehicles	12	13	[0, 0, 0]	n/a	catFR1	1	R1180C
1452.252	1.597	729959	REC_WORD	2.635	n/a	TRAIN	Vehicles	5	13	[0, 0, 0]	n/a	catFR1	1	R1180C
1453.849	3.281	730757	REC_WORD	4.232	n/a	BUS	Vehicles	11	13	[0, 0, 0]	n/a	catFR1	1	R1180C
1457.13	4.818	732398	REC_WORD	7.513	n/a	CARNATION	Flowers	2	13	[0, 0, 0]	n/a	catFR1	1	R1180C
1461.948	1.0	734806	REC_WORD	12.331	n/a	SUNFLOWER	Flowers	1	13	[0, 0, 0]	n/a	catFR1	1	R1180C
1462.948	16.684	735306	REC_WORD_VV	13.331	n/a	<>	n/a	-999	13	[0, 0, 0]	n/a	catFR1	1	R1180C
1479.632	4.091	743648	REC_END	n/a	n/a	n/a	n/a	-999	13	[0, 0, 0]	n/a	catFR1	1	R1180C
1483.723	0.0	745693	TRIAL	n/a	n/a	n/a	n/a	-999	14	[0, 0, 0]	n/a	catFR1	1	R1180C
1483.723	10.0	745693	COUNTDOWN_START	n/a	n/a	n/a	n/a	-999	14	[0, 0, 0]	n/a	catFR1	1	R1180C
1494.151	0.008	750906	COUNTDOWN_END	n/a	n/a	n/a	n/a	-999	14	[0, 0, 0]	n/a	catFR1	1	R1180C
1494.159	1.6	750910	ORIENT	n/a	n/a	n/a	n/a	-999	14	[0, 0, 0]	n/a	catFR1	1	R1180C
1497.776	1.6	752719	WORD	n/a	wordpools/wordpool_categorized_EN.txt	PIG	FarmAnimals	1	14	[0, 0, 0]	n/a	catFR1	1	R1180C
1500.16	1.6	753911	WORD	n/a	wordpools/wordpool_categorized_EN.txt	TURKEY	FarmAnimals	2	14	[0, 0, 0]	n/a	catFR1	1	R1180C
1502.76	1.6	755211	WORD	n/a	wordpools/wordpool_categorized_EN.txt	RATCHET	Tools	3	14	[0, 0, 0]	n/a	catFR1	1	R1180C
1505.211	1.6	756436	WORD	n/a	wordpools/wordpool_categorized_EN.txt	SANDER	Tools	4	14	[0, 0, 0]	n/a	catFR1	1	R1180C
1507.844	1.6	757752	WORD	n/a	wordpools/wordpool_categorized_EN.txt	BED	Furniture	5	14	[0, 0, 0]	n/a	catFR1	1	R1180C
1510.329	1.6	758995	WORD	n/a	wordpools/wordpool_categorized_EN.txt	RECLINER	Furniture	6	14	[0, 0, 0]	n/a	catFR1	1	R1180C
1512.828	1.6	760244	WORD	n/a	wordpools/wordpool_categorized_EN.txt	CHICKEN	FarmAnimals	7	14	[0, 0, 0]	n/a	catFR1	1	R1180C
1515.395	1.6	761528	WORD	n/a	wordpools/wordpool_categorized_EN.txt	BULL	FarmAnimals	8	14	[0, 0, 0]	n/a	catFR1	1	R1180C
1517.913	1.6	762786	WORD	n/a	wordpools/wordpool_categorized_EN.txt	BOOKCASE	Furniture	9	14	[0, 0, 0]	n/a	catFR1	1	R1180C
1520.347	1.6	764003	WORD	n/a	wordpools/wordpool_categorized_EN.txt	NIGHTSTAND	Furniture	10	14	[0, 0, 0]	n/a	catFR1	1	R1180C
1522.88	1.6	765270	WORD	n/a	wordpools/wordpool_categorized_EN.txt	SAW	Tools	11	14	[0, 0, 0]	n/a	catFR1	1	R1180C
1525.431	1.6	766545	WORD	n/a	wordpools/wordpool_categorized_EN.txt	SCREWDRIVER	Tools	12	14	[0, 0, 0]	n/a	catFR1	1	R1180C
1527.049	0.001	767354	DISTRACT_START	n/a	n/a	n/a	n/a	-999	14	[0, 0, 0]	n/a	catFR1	1	R1180C
1527.05	0.015	767355	START	n/a	n/a	n/a	n/a	-999	14	[-999, -999, -999]	n/a	catFR1	1	R1180C
1527.065	3.567	767362	PROB	3.533	n/a	n/a	n/a	-999	14	[4, 4, 3]	11.0	catFR1	1	R1180C
1530.632	4.402	769145	PROB	4.367	n/a	n/a	n/a	-999	14	[4, 5, 9]	18.0	catFR1	1	R1180C
1535.034	3.799	771346	PROB	3.772	n/a	n/a	n/a	-999	14	[5, 6, 2]	13.0	catFR1	1	R1180C
1538.833	7.152	773246	PROB	7.125	n/a	n/a	n/a	-999	14	[9, 8, 5]	22.0	catFR1	1	R1180C
1545.985	7.877	776821	PROB	7.877	n/a	n/a	n/a	-999	14	[6, 2, 3]	11.0	catFR1	1	R1180C
1553.862	0.007	780759	STOP	n/a	n/a	n/a	n/a	-999	14	[-999, -999, -999]	n/a	catFR1	1	R1180C
1553.869	1.037	780763	DISTRACT_END	n/a	n/a	n/a	n/a	-999	14	[0, 0, 0]	n/a	catFR1	1	R1180C
1554.906	1.64	781281	REC_START	n/a	n/a	n/a	n/a	-999	14	[0, 0, 0]	n/a	catFR1	1	R1180C
1556.546	2.41	782101	REC_WORD	1.64	n/a	NIGHTSTAND	Furniture	10	14	[0, 0, 0]	n/a	catFR1	1	R1180C
1558.956	1.894	783306	REC_WORD	4.05	n/a	BED	Furniture	5	14	[0, 0, 0]	n/a	catFR1	1	R1180C
1560.85	1.609	784253	REC_WORD	5.944	n/a	SCREWDRIVER	Tools	12	14	[0, 0, 0]	n/a	catFR1	1	R1180C
1562.459	1.456	785057	REC_WORD	7.553	n/a	RATCHET	Tools	3	14	[0, 0, 0]	n/a	catFR1	1	R1180C
1563.915	3.053	785785	REC_WORD	9.009	n/a	PIG	FarmAnimals	1	14	[0, 0, 0]	n/a	catFR1	1	R1180C
1566.968	17.947	787312	REC_WORD_VV	12.062	n/a	<>	n/a	-999	14	[0, 0, 0]	n/a	catFR1	1	R1180C
1584.915	42.568	796284	REC_END	n/a	n/a	n/a	n/a	-999	14	[0, 0, 0]	n/a	catFR1	1	R1180C
1627.483	0.0	817567	TRIAL	n/a	n/a	n/a	n/a	-999	15	[0, 0, 0]	n/a	catFR1	1	R1180C
1627.483	10.0	817567	COUNTDOWN_START	n/a	n/a	n/a	n/a	-999	15	[0, 0, 0]	n/a	catFR1	1	R1180C
1637.911	0.008	822780	COUNTDOWN_END	n/a	n/a	n/a	n/a	-999	15	[0, 0, 0]	n/a	catFR1	1	R1180C
1637.919	1.6	822784	ORIENT	n/a	n/a	n/a	n/a	-999	15	[0, 0, 0]	n/a	catFR1	1	R1180C
1641.552	1.6	824600	WORD	n/a	wordpools/wordpool_categorized_EN.txt	MICROWAVE	Electronics	1	15	[0, 0, 0]	n/a	catFR1	1	R1180C
1644.037	1.6	825843	WORD	n/a	wordpools/wordpool_categorized_EN.txt	PHONE	Electronics	2	15	[0, 0, 0]	n/a	catFR1	1	R1180C
1646.587	1.6	827118	WORD	n/a	wordpools/wordpool_categorized_EN.txt	CELERY	Vegetables	3	15	[0, 0, 0]	n/a	catFR1	1	R1180C
1648.971	1.6	828310	WORD	n/a	wordpools/wordpool_categorized_EN.txt	SPINACH	Vegetables	4	15	[0, 0, 0]	n/a	catFR1	1	R1180C
1651.488	1.6	829568	WORD	n/a	wordpools/wordpool_categorized_EN.txt	ORGAN	Instruments	5	15	[0, 0, 0]	n/a	catFR1	1	R1180C
1654.056	1.6	830852	WORD	n/a	wordpools/wordpool_categorized_EN.txt	FLUTE	Instruments	6	15	[0, 0, 0]	n/a	catFR1	1	R1180C
1656.605	1.6	832126	WORD	n/a	wordpools/wordpool_categorized_EN.txt	PEAS	Vegetables	7	15	[0, 0, 0]	n/a	catFR1	1	R1180C
1659.007	1.6	833327	WORD	n/a	wordpools/wordpool_categorized_EN.txt	BROCCOLI	Vegetables	8	15	[0, 0, 0]	n/a	catFR1	1	R1180C
1661.523	1.6	834585	WORD	n/a	wordpools/wordpool_categorized_EN.txt	SPEAKER	Electronics	9	15	[0, 0, 0]	n/a	catFR1	1	R1180C
1664.074	1.6	835860	WORD	n/a	wordpools/wordpool_categorized_EN.txt	STEREO	Electronics	10	15	[0, 0, 0]	n/a	catFR1	1	R1180C
1666.641	1.6	837144	WORD	n/a	wordpools/wordpool_categorized_EN.txt	TRUMPET	Instruments	11	15	[0, 0, 0]	n/a	catFR1	1	R1180C
1669.059	1.6	838353	WORD	n/a	wordpools/wordpool_categorized_EN.txt	TUBA	Instruments	12	15	[0, 0, 0]	n/a	catFR1	1	R1180C
1670.675	0.001	839161	DISTRACT_START	n/a	n/a	n/a	n/a	-999	15	[0, 0, 0]	n/a	catFR1	1	R1180C
1670.676	0.015	839161	START	n/a	n/a	n/a	n/a	-999	15	[-999, -999, -999]	n/a	catFR1	1	R1180C
1670.691	5.168	839169	PROB	5.131	n/a	n/a	n/a	-999	15	[7, 7, 5]	19.0	catFR1	1	R1180C
1675.859	5.034	841752	PROB	5.003	n/a	n/a	n/a	-999	15	[6, 2, 8]	16.0	catFR1	1	R1180C
1680.893	4.818	844269	PROB	4.785	n/a	n/a	n/a	-999	15	[7, 8, 2]	17.0	catFR1	1	R1180C
1685.711	7.616	846678	PROB	7.616	n/a	n/a	n/a	-999	15	[9, 5, 8]	21.0	catFR1	1	R1180C
1693.327	0.02	850486	STOP	n/a	n/a	n/a	n/a	-999	15	[-999, -999, -999]	n/a	catFR1	1	R1180C
1693.347	1.133	850496	DISTRACT_END	n/a	n/a	n/a	n/a	-999	15	[0, 0, 0]	n/a	catFR1	1	R1180C
1694.48	11.527	851062	REC_START	n/a	n/a	n/a	n/a	-999	15	[0, 0, 0]	n/a	catFR1	1	R1180C
1706.007	1.173	856825	REC_WORD	11.527	n/a	BROCCOLI	Vegetables	8	15	[0, 0, 0]	n/a	catFR1	1	R1180C
1707.18	1.148	857412	REC_WORD	12.7	n/a	PEAS	Vegetables	7	15	[0, 0, 0]	n/a	catFR1	1	R1180C
1708.328	2.754	857986	REC_WORD	13.848	n/a	SPINACH	Vegetables	4	15	[0, 0, 0]	n/a	catFR1	1	R1180C
1711.082	3.341	859362	REC_WORD	16.602	n/a	CELERY	Vegetables	3	15	[0, 0, 0]	n/a	catFR1	1	R1180C
1714.423	8.711	861033	REC_WORD	19.943	n/a	SPEAKER	Electronics	9	15	[0, 0, 0]	n/a	catFR1	1	R1180C
1723.134	1.358	865388	REC_WORD	28.654	n/a	STEREO	Electronics	10	15	[0, 0, 0]	n/a	catFR1	1	R1180C
1724.492	3.377	866067	REC_END	n/a	n/a	n/a	n/a	-999	15	[0, 0, 0]	n/a	catFR1	1	R1180C
1727.869	0.0	867755	TRIAL	n/a	n/a	n/a	n/a	-999	16	[0, 0, 0]	n/a	catFR1	1	R1180C
1727.869	10.0	867755	COUNTDOWN_START	n/a	n/a	n/a	n/a	-999	16	[0, 0, 0]	n/a	catFR1	1	R1180C
1738.297	0.008	872969	COUNTDOWN_END	n/a	n/a	n/a	n/a	-999	16	[0, 0, 0]	n/a	catFR1	1	R1180C
1738.305	1.6	872973	ORIENT	n/a	n/a	n/a	n/a	-999	16	[0, 0, 0]	n/a	catFR1	1	R1180C
1742.256	1.6	874948	WORD	n/a	wordpools/wordpool_categorized_EN.txt	BROWNIES	Desserts	1	16	[0, 0, 0]	n/a	catFR1	1	R1180C
1744.805	1.6	876222	WORD	n/a	wordpools/wordpool_categorized_EN.txt	CHEESECAKE	Desserts	2	16	[0, 0, 0]	n/a	catFR1	1	R1180C
1747.323	1.6	877481	WORD	n/a	wordpools/wordpool_categorized_EN.txt	COAT	Clothing	3	16	[0, 0, 0]	n/a	catFR1	1	R1180C
1749.873	1.6	878756	WORD	n/a	wordpools/wordpool_categorized_EN.txt	BLOUSE	Clothing	4	16	[0, 0, 0]	n/a	catFR1	1	R1180C
1752.407	1.6	880023	WORD	n/a	wordpools/wordpool_categorized_EN.txt	TEA	Beverages	5	16	[0, 0, 0]	n/a	catFR1	1	R1180C
1755.008	1.6	881323	WORD	n/a	wordpools/wordpool_categorized_EN.txt	MILK	Beverages	6	16	[0, 0, 0]	n/a	catFR1	1	R1180C
1757.608	1.6	882623	WORD	n/a	wordpools/wordpool_categorized_EN.txt	PANTS	Clothing	7	16	[0, 0, 0]	n/a	catFR1	1	R1180C
1760.009	1.6	883824	WORD	n/a	wordpools/wordpool_categorized_EN.txt	SOCKS	Clothing	8	16	[0, 0, 0]	n/a	catFR1	1	R1180C
1762.625	1.6	885132	WORD	n/a	wordpools/wordpool_categorized_EN.txt	CUPCAKE	Desserts	9	16	[0, 0, 0]	n/a	catFR1	1	R1180C
1765.093	1.6	886366	WORD	n/a	wordpools/wordpool_categorized_EN.txt	COBBLER	Desserts	10	16	[0, 0, 0]	n/a	catFR1	1	R1180C
1767.476	1.6	887557	WORD	n/a	wordpools/wordpool_categorized_EN.txt	CIDER	Beverages	11	16	[0, 0, 0]	n/a	catFR1	1	R1180C
1770.028	1.6	888833	WORD	n/a	wordpools/wordpool_categorized_EN.txt	SODA	Beverages	12	16	[0, 0, 0]	n/a	catFR1	1	R1180C
1771.644	0.001	889641	DISTRACT_START	n/a	n/a	n/a	n/a	-999	16	[0, 0, 0]	n/a	catFR1	1	R1180C
1771.645	0.015	889641	START	n/a	n/a	n/a	n/a	-999	16	[-999, -999, -999]	n/a	catFR1	1	R1180C
1771.66	5.801	889649	PROB	5.77	n/a	n/a	n/a	-999	16	[9, 2, 7]	18.0	catFR1	1	R1180C
1777.461	4.151	892549	PROB	4.121	n/a	n/a	n/a	-999	16	[1, 9, 5]	15.0	catFR1	1	R1180C
1781.612	2.984	894624	PROB	2.954	n/a	n/a	n/a	-999	16	[5, 5, 7]	17.0	catFR1	1	R1180C
1784.596	6.134	896116	PROB	6.106	n/a	n/a	n/a	-999	16	[5, 6, 6]	17.0	catFR1	1	R1180C
1790.73	5.18	899183	PROB	5.18	n/a	n/a	n/a	-999	16	[2, 9, 9]	19.0	catFR1	1	R1180C
1795.91	0.005	901773	STOP	n/a	n/a	n/a	n/a	-999	16	[-999, -999, -999]	n/a	catFR1	1	R1180C
1795.915	1.168	901775	DISTRACT_END	n/a	n/a	n/a	n/a	-999	16	[0, 0, 0]	n/a	catFR1	1	R1180C
1797.083	4.114	902359	REC_START	n/a	n/a	n/a	n/a	-999	16	[0, 0, 0]	n/a	catFR1	1	R1180C
1801.197	1.553	904416	REC_WORD	4.114	n/a	CUPCAKE	Desserts	9	16	[0, 0, 0]	n/a	catFR1	1	R1180C
1802.75	1.034	905192	REC_WORD	5.667	n/a	TEA	Beverages	5	16	[0, 0, 0]	n/a	catFR1	1	R1180C
1803.784	17.048	905709	REC_WORD	6.701	n/a	COBBLER	Desserts	10	16	[0, 0, 0]	n/a	catFR1	1	R1180C
1820.832	3.541	914233	REC_WORD	23.749	n/a	CAKE	n/a	-999	16	[0, 0, 0]	n/a	catFR1	1	R1180C
1824.373	2.732	916003	REC_WORD	27.29	n/a	BROWNIES	Desserts	1	16	[0, 0, 0]	n/a	catFR1	1	R1180C
1827.105	3.084	917369	REC_END	n/a	n/a	n/a	n/a	-999	16	[0, 0, 0]	n/a	catFR1	1	R1180C
1830.189	0.0	918911	TRIAL	n/a	n/a	n/a	n/a	-999	17	[0, 0, 0]	n/a	catFR1	1	R1180C
1830.189	10.0	918911	COUNTDOWN_START	n/a	n/a	n/a	n/a	-999	17	[0, 0, 0]	n/a	catFR1	1	R1180C
1840.617	0.006	924124	COUNTDOWN_END	n/a	n/a	n/a	n/a	-999	17	[0, 0, 0]	n/a	catFR1	1	R1180C
1840.623	1.6	924127	ORIENT	n/a	n/a	n/a	n/a	-999	17	[0, 0, 0]	n/a	catFR1	1	R1180C
1844.141	1.6	925886	WORD	n/a	wordpools/wordpool_categorized_EN.txt	CROW	Birds	1	17	[0, 0, 0]	n/a	catFR1	1	R1180C
1846.624	1.6	927127	WORD	n/a	wordpools/wordpool_categorized_EN.txt	CARDINAL	Birds	2	17	[0, 0, 0]	n/a	catFR1	1	R1180C
1849.159	1.6	928395	WORD	n/a	wordpools/wordpool_categorized_EN.txt	BARBIE	Toys	3	17	[0, 0, 0]	n/a	catFR1	1	R1180C
1851.692	1.6	929661	WORD	n/a	wordpools/wordpool_categorized_EN.txt	DOLLHOUSE	Toys	4	17	[0, 0, 0]	n/a	catFR1	1	R1180C
1854.26	1.6	930945	WORD	n/a	wordpools/wordpool_categorized_EN.txt	MAPLE	Trees	5	17	[0, 0, 0]	n/a	catFR1	1	R1180C
1856.693	1.6	932161	WORD	n/a	wordpools/wordpool_categorized_EN.txt	BIRCH	Trees	6	17	[0, 0, 0]	n/a	catFR1	1	R1180C
1859.144	1.6	933387	WORD	n/a	wordpools/wordpool_categorized_EN.txt	MARBLES	Toys	7	17	[0, 0, 0]	n/a	catFR1	1	R1180C
1861.744	1.6	934687	WORD	n/a	wordpools/wordpool_categorized_EN.txt	BLOCKS	Toys	8	17	[0, 0, 0]	n/a	catFR1	1	R1180C
1864.212	1.6	935921	WORD	n/a	wordpools/wordpool_categorized_EN.txt	HAWK	Birds	9	17	[0, 0, 0]	n/a	catFR1	1	R1180C
1866.811	1.6	937220	WORD	n/a	wordpools/wordpool_categorized_EN.txt	BLUEBIRD	Birds	10	17	[0, 0, 0]	n/a	catFR1	1	R1180C
1869.246	1.6	938437	WORD	n/a	wordpools/wordpool_categorized_EN.txt	WALNUT	Trees	11	17	[0, 0, 0]	n/a	catFR1	1	R1180C
1871.862	1.6	939745	WORD	n/a	wordpools/wordpool_categorized_EN.txt	CEDAR	Trees	12	17	[0, 0, 0]	n/a	catFR1	1	R1180C
1873.479	0.001	940554	DISTRACT_START	n/a	n/a	n/a	n/a	-999	17	[0, 0, 0]	n/a	catFR1	1	R1180C
1873.48	0.016	940554	START	n/a	n/a	n/a	n/a	-999	17	[-999, -999, -999]	n/a	catFR1	1	R1180C
1873.496	6.719	940562	PROB	6.695	n/a	n/a	n/a	-999	17	[2, 4, 6]	12.0	catFR1	1	R1180C
1880.215	6.951	943921	PROB	6.928	n/a	n/a	n/a	-999	17	[4, 6, 8]	18.0	catFR1	1	R1180C
1887.166	4.55	947397	PROB	4.528	n/a	n/a	n/a	-999	17	[4, 4, 1]	9.0	catFR1	1	R1180C
1891.716	7.427	949671	PROB	7.427	n/a	n/a	n/a	-999	17	[3, 8, 7]	18.0	catFR1	1	R1180C
1899.143	0.009	953385	STOP	n/a	n/a	n/a	n/a	-999	17	[-999, -999, -999]	n/a	catFR1	1	R1180C
1899.152	1.168	953389	DISTRACT_END	n/a	n/a	n/a	n/a	-999	17	[0, 0, 0]	n/a	catFR1	1	R1180C
1900.32	15.409	953973	REC_START	n/a	n/a	n/a	n/a	-999	17	[0, 0, 0]	n/a	catFR1	1	R1180C
1915.729	14.603	961677	REC_WORD	15.409	n/a	PANTS	n/a	-999	17	[0, 0, 0]	n/a	catFR1	1	R1180C
1930.332	17.812	968978	REC_END	n/a	n/a	n/a	n/a	-999	17	[0, 0, 0]	n/a	catFR1	1	R1180C
1948.144	10.0	977883	COUNTDOWN_START	n/a	n/a	n/a	n/a	-999	18	[0, 0, 0]	n/a	catFR1	1	R1180C
1948.145	10.427	977883	TRIAL	n/a	n/a	n/a	n/a	-999	18	[0, 0, 0]	n/a	catFR1	1	R1180C
1958.572	0.007	983096	COUNTDOWN_END	n/a	n/a	n/a	n/a	-999	18	[0, 0, 0]	n/a	catFR1	1	R1180C
1958.579	1.6	983100	ORIENT	n/a	n/a	n/a	n/a	-999	18	[0, 0, 0]	n/a	catFR1	1	R1180C
1962.114	1.6	984867	WORD	n/a	wordpools/wordpool_categorized_EN.txt	ARM	BodyParts	1	18	[0, 0, 0]	n/a	catFR1	1	R1180C
1964.563	1.6	986092	WORD	n/a	wordpools/wordpool_categorized_EN.txt	TOE	BodyParts	2	18	[0, 0, 0]	n/a	catFR1	1	R1180C
1966.964	1.6	987292	WORD	n/a	wordpools/wordpool_categorized_EN.txt	LIGHTNING	Weather	3	18	[0, 0, 0]	n/a	catFR1	1	R1180C
1969.414	1.6	988517	WORD	n/a	wordpools/wordpool_categorized_EN.txt	THUNDERSTORM	Weather	4	18	[0, 0, 0]	n/a	catFR1	1	R1180C
1971.931	1.6	989775	WORD	n/a	wordpools/wordpool_categorized_EN.txt	GOAT	FarmAnimals	5	18	[0, 0, 0]	n/a	catFR1	1	R1180C
1974.465	1.6	991042	WORD	n/a	wordpools/wordpool_categorized_EN.txt	LAMB	FarmAnimals	6	18	[0, 0, 0]	n/a	catFR1	1	R1180C
1976.882	1.6	992251	WORD	n/a	wordpools/wordpool_categorized_EN.txt	LEG	BodyParts	7	18	[0, 0, 0]	n/a	catFR1	1	R1180C
1979.449	1.6	993534	WORD	n/a	wordpools/wordpool_categorized_EN.txt	EAR	BodyParts	8	18	[0, 0, 0]	n/a	catFR1	1	R1180C
1982.067	1.6	994843	WORD	n/a	wordpools/wordpool_categorized_EN.txt	HEN	FarmAnimals	9	18	[0, 0, 0]	n/a	catFR1	1	R1180C
1984.684	1.6	996151	WORD	n/a	wordpools/wordpool_categorized_EN.txt	HORSE	FarmAnimals	10	18	[0, 0, 0]	n/a	catFR1	1	R1180C
1987.235	1.6	997427	WORD	n/a	wordpools/wordpool_categorized_EN.txt	CLOUD	Weather	11	18	[0, 0, 0]	n/a	catFR1	1	R1180C
1989.751	1.6	998685	WORD	n/a	wordpools/wordpool_categorized_EN.txt	HUMIDITY	Weather	12	18	[0, 0, 0]	n/a	catFR1	1	R1180C
1991.352	0.001	999485	DISTRACT_START	n/a	n/a	n/a	n/a	-999	18	[0, 0, 0]	n/a	catFR1	1	R1180C
1991.353	0.015	999486	START	n/a	n/a	n/a	n/a	-999	18	[-999, -999, -999]	n/a	catFR1	1	R1180C
1991.368	4.251	999493	PROB	4.23	n/a	n/a	n/a	-999	18	[2, 2, 2]	6.0	catFR1	1	R1180C
1995.619	5.635	1001618	PROB	5.604	n/a	n/a	n/a	-999	18	[4, 9, 3]	16.0	catFR1	1	R1180C
2001.254	5.101	1004436	PROB	5.081	n/a	n/a	n/a	-999	18	[8, 4, 3]	15.0	catFR1	1	R1180C
2006.355	9.555	1006986	PROB	9.555	n/a	n/a	n/a	-999	18	[8, 9, 8]	25.0	catFR1	1	R1180C
2015.91	0.013	1011763	STOP	n/a	n/a	n/a	n/a	-999	18	[-999, -999, -999]	n/a	catFR1	1	R1180C
2015.923	1.085	1011769	DISTRACT_END	n/a	n/a	n/a	n/a	-999	18	[0, 0, 0]	n/a	catFR1	1	R1180C
2017.008	2.542	1012312	REC_START	n/a	n/a	n/a	n/a	-999	18	[0, 0, 0]	n/a	catFR1	1	R1180C
2019.55	1.222	1013583	REC_WORD	2.542	n/a	HANGER	n/a	-999	18	[0, 0, 0]	n/a	catFR1	1	R1180C
2020.772	1.1	1014194	REC_WORD	3.764	n/a	ARM	BodyParts	1	18	[0, 0, 0]	n/a	catFR1	1	R1180C
2021.872	1.234	1014744	REC_WORD	4.864	n/a	COAT	n/a	-999	18	[0, 0, 0]	n/a	catFR1	1	R1180C
2023.106	2.318	1015361	REC_WORD	6.098	n/a	THUNDERSTORM	Weather	4	18	[0, 0, 0]	n/a	catFR1	1	R1180C
2025.424	4.486	1016520	REC_WORD	8.416	n/a	HUMIDITY	Weather	12	18	[0, 0, 0]	n/a	catFR1	1	R1180C
2029.91	9.897	1018762	REC_WORD_VV	12.902	n/a	<>	n/a	-999	18	[0, 0, 0]	n/a	catFR1	1	R1180C
2039.807	7.212	1023710	REC_WORD	22.799	n/a	LIGHTNING	Weather	3	18	[0, 0, 0]	n/a	catFR1	1	R1180C
2047.019	7.295	1027316	REC_END	n/a	n/a	n/a	n/a	-999	18	[0, 0, 0]	n/a	catFR1	1	R1180C
2054.314	10.0	1030963	COUNTDOWN_START	n/a	n/a	n/a	n/a	-999	19	[0, 0, 0]	n/a	catFR1	1	R1180C
2054.314	10.428	1030963	TRIAL	n/a	n/a	n/a	n/a	-999	19	[0, 0, 0]	n/a	catFR1	1	R1180C
2064.742	0.007	1036177	COUNTDOWN_END	n/a	n/a	n/a	n/a	-999	19	[0, 0, 0]	n/a	catFR1	1	R1180C
2064.749	1.6	1036180	ORIENT	n/a	n/a	n/a	n/a	-999	19	[0, 0, 0]	n/a	catFR1	1	R1180C
2068.483	1.6	1038047	WORD	n/a	wordpools/wordpool_categorized_EN.txt	WALL	Building	1	19	[0, 0, 0]	n/a	catFR1	1	R1180C
2070.916	1.6	1039264	WORD	n/a	wordpools/wordpool_categorized_EN.txt	ROOM	Building	2	19	[0, 0, 0]	n/a	catFR1	1	R1180C
2073.384	1.6	1040497	WORD	n/a	wordpools/wordpool_categorized_EN.txt	ORCHID	Flowers	3	19	[0, 0, 0]	n/a	catFR1	1	R1180C
2075.917	1.6	1041764	WORD	n/a	wordpools/wordpool_categorized_EN.txt	LILAC	Flowers	4	19	[0, 0, 0]	n/a	catFR1	1	R1180C
2078.518	1.6	1043064	WORD	n/a	wordpools/wordpool_categorized_EN.txt	ISLAND	Landscapes	5	19	[0, 0, 0]	n/a	catFR1	1	R1180C
2081.053	1.6	1044332	WORD	n/a	wordpools/wordpool_categorized_EN.txt	BEACH	Landscapes	6	19	[0, 0, 0]	n/a	catFR1	1	R1180C
2083.435	1.6	1045522	WORD	n/a	wordpools/wordpool_categorized_EN.txt	DOOR	Building	7	19	[0, 0, 0]	n/a	catFR1	1	R1180C
2085.819	1.6	1046714	WORD	n/a	wordpools/wordpool_categorized_EN.txt	HALLWAY	Building	8	19	[0, 0, 0]	n/a	catFR1	1	R1180C
2088.386	1.6	1047998	WORD	n/a	wordpools/wordpool_categorized_EN.txt	MOUNTAIN	Landscapes	9	19	[0, 0, 0]	n/a	catFR1	1	R1180C
2090.803	1.6	1049206	WORD	n/a	wordpools/wordpool_categorized_EN.txt	OCEAN	Landscapes	10	19	[0, 0, 0]	n/a	catFR1	1	R1180C
2093.338	1.6	1050474	WORD	n/a	wordpools/wordpool_categorized_EN.txt	MARIGOLD	Flowers	11	19	[0, 0, 0]	n/a	catFR1	1	R1180C
2095.754	1.6	1051681	WORD	n/a	wordpools/wordpool_categorized_EN.txt	LILY	Flowers	12	19	[0, 0, 0]	n/a	catFR1	1	R1180C
2097.355	0.002	1052482	DISTRACT_START	n/a	n/a	n/a	n/a	-999	19	[0, 0, 0]	n/a	catFR1	1	R1180C
2097.357	0.014	1052483	START	n/a	n/a	n/a	n/a	-999	19	[-999, -999, -999]	n/a	catFR1	1	R1180C
2097.371	3.001	1052490	PROB	2.972	n/a	n/a	n/a	-999	19	[1, 5, 5]	11.0	catFR1	1	R1180C
2100.372	4.134	1053990	PROB	4.106	n/a	n/a	n/a	-999	19	[6, 1, 4]	11.0	catFR1	1	R1180C
2104.506	3.535	1056057	PROB	3.501	n/a	n/a	n/a	-999	19	[6, 3, 2]	11.0	catFR1	1	R1180C
2108.041	4.051	1057824	PROB	4.014	n/a	n/a	n/a	-999	19	[9, 1, 7]	17.0	catFR1	1	R1180C
2112.092	4.901	1059850	PROB	4.874	n/a	n/a	n/a	-999	19	[7, 8, 4]	19.0	catFR1	1	R1180C
2116.993	3.581	1062300	PROB	3.581	n/a	n/a	n/a	-999	19	[2, 8, 2]	12.0	catFR1	1	R1180C
2120.574	0.018	1064090	STOP	n/a	n/a	n/a	n/a	-999	19	[-999, -999, -999]	n/a	catFR1	1	R1180C
2120.592	1.118	1064099	DISTRACT_END	n/a	n/a	n/a	n/a	-999	19	[0, 0, 0]	n/a	catFR1	1	R1180C
2121.71	2.076	1064658	REC_START	n/a	n/a	n/a	n/a	-999	19	[0, 0, 0]	n/a	catFR1	1	R1180C
2123.786	0.779	1065696	REC_WORD	2.076	n/a	WALL	Building	1	19	[0, 0, 0]	n/a	catFR1	1	R1180C
2124.565	0.969	1066086	REC_WORD	2.855	n/a	ROOM	Building	2	19	[0, 0, 0]	n/a	catFR1	1	R1180C
2125.534	3.208	1066570	REC_WORD	3.824	n/a	HALLWAY	Building	8	19	[0, 0, 0]	n/a	catFR1	1	R1180C
2128.742	1.229	1068174	REC_WORD	7.032	n/a	ORCHID	Flowers	3	19	[0, 0, 0]	n/a	catFR1	1	R1180C
2129.971	16.211	1068788	REC_WORD	8.261	n/a	LILAC	Flowers	4	19	[0, 0, 0]	n/a	catFR1	1	R1180C
2146.182	5.539	1076893	REC_WORD	24.472	n/a	BEDROOM	n/a	-999	19	[0, 0, 0]	n/a	catFR1	1	R1180C
2151.721	3.995	1079662	REC_END	n/a	n/a	n/a	n/a	-999	19	[0, 0, 0]	n/a	catFR1	1	R1180C
2155.716	0.0	1081660	TRIAL	n/a	n/a	n/a	n/a	-999	20	[0, 0, 0]	n/a	catFR1	1	R1180C
2155.716	10.0	1081660	COUNTDOWN_START	n/a	n/a	n/a	n/a	-999	20	[0, 0, 0]	n/a	catFR1	1	R1180C
2166.144	0.008	1086873	COUNTDOWN_END	n/a	n/a	n/a	n/a	-999	20	[0, 0, 0]	n/a	catFR1	1	R1180C
2166.152	1.6	1086877	ORIENT	n/a	n/a	n/a	n/a	-999	20	[0, 0, 0]	n/a	catFR1	1	R1180C
2169.735	1.6	1088669	WORD	n/a	wordpools/wordpool_categorized_EN.txt	PEN	OfficeSupplies	1	20	[0, 0, 0]	n/a	catFR1	1	R1180C
2172.186	1.6	1089894	WORD	n/a	wordpools/wordpool_categorized_EN.txt	PAPER	OfficeSupplies	2	20	[0, 0, 0]	n/a	catFR1	1	R1180C
2174.703	1.6	1091152	WORD	n/a	wordpools/wordpool_categorized_EN.txt	APPLE	Fruit	3	20	[0, 0, 0]	n/a	catFR1	1	R1180C
2177.187	1.6	1092394	WORD	n/a	wordpools/wordpool_categorized_EN.txt	BANANA	Fruit	4	20	[0, 0, 0]	n/a	catFR1	1	R1180C
2179.72	1.6	1093661	WORD	n/a	wordpools/wordpool_categorized_EN.txt	COMPUTER	Electronics	5	20	[0, 0, 0]	n/a	catFR1	1	R1180C
2182.205	1.6	1094903	WORD	n/a	wordpools/wordpool_categorized_EN.txt	HEADPHONES	Electronics	6	20	[0, 0, 0]	n/a	catFR1	1	R1180C
2184.671	1.6	1096136	WORD	n/a	wordpools/wordpool_categorized_EN.txt	BLUEBERRY	Fruit	7	20	[0, 0, 0]	n/a	catFR1	1	R1180C
2187.123	1.6	1097362	WORD	n/a	wordpools/wordpool_categorized_EN.txt	GRAPE	Fruit	8	20	[0, 0, 0]	n/a	catFR1	1	R1180C
2189.639	1.6	1098620	WORD	n/a	wordpools/wordpool_categorized_EN.txt	ERASER	OfficeSupplies	9	20	[0, 0, 0]	n/a	catFR1	1	R1180C
2192.073	1.6	1099837	WORD	n/a	wordpools/wordpool_categorized_EN.txt	PENCIL	OfficeSupplies	10	20	[0, 0, 0]	n/a	catFR1	1	R1180C
2194.573	1.6	1101087	WORD	n/a	wordpools/wordpool_categorized_EN.txt	CALCULATOR	Electronics	11	20	[0, 0, 0]	n/a	catFR1	1	R1180C
2197.074	1.6	1102337	WORD	n/a	wordpools/wordpool_categorized_EN.txt	TELEVISION	Electronics	12	20	[0, 0, 0]	n/a	catFR1	1	R1180C
2198.69	0.001	1103145	DISTRACT_START	n/a	n/a	n/a	n/a	-999	20	[0, 0, 0]	n/a	catFR1	1	R1180C
2198.691	0.016	1103145	START	n/a	n/a	n/a	n/a	-999	20	[-999, -999, -999]	n/a	catFR1	1	R1180C
2198.707	3.818	1103153	PROB	3.795	n/a	n/a	n/a	-999	20	[1, 2, 6]	9.0	catFR1	1	R1180C
2202.525	3.601	1105062	PROB	3.578	n/a	n/a	n/a	-999	20	[8, 8, 4]	20.0	catFR1	1	R1180C
2206.126	13.32	1106863	PROB	13.32	n/a	n/a	n/a	-999	20	[7, 9, 6]	22.0	catFR1	1	R1180C
2219.446	0.015	1113522	STOP	n/a	n/a	n/a	n/a	-999	20	[-999, -999, -999]	n/a	catFR1	1	R1180C
2219.461	1.117	1113529	DISTRACT_END	n/a	n/a	n/a	n/a	-999	20	[0, 0, 0]	n/a	catFR1	1	R1180C
2220.578	1.845	1114088	REC_START	n/a	n/a	n/a	n/a	-999	20	[0, 0, 0]	n/a	catFR1	1	R1180C
2222.423	0.817	1115010	REC_WORD	1.845	n/a	PEN	OfficeSupplies	1	20	[0, 0, 0]	n/a	catFR1	1	R1180C
2223.24	0.9	1115419	REC_WORD	2.662	n/a	PAPER	OfficeSupplies	2	20	[0, 0, 0]	n/a	catFR1	1	R1180C
2224.14	26.453	1115869	REC_WORD	3.562	n/a	APPLE	Fruit	3	20	[0, 0, 0]	n/a	catFR1	1	R1180C
2250.593	3.158	1129094	REC_END	n/a	n/a	n/a	n/a	-999	20	[0, 0, 0]	n/a	catFR1	1	R1180C
2253.751	0.0	1130673	TRIAL	n/a	n/a	n/a	n/a	-999	21	[0, 0, 0]	n/a	catFR1	1	R1180C
2253.751	10.0	1130673	COUNTDOWN_START	n/a	n/a	n/a	n/a	-999	21	[0, 0, 0]	n/a	catFR1	1	R1180C
2264.179	0.008	1135887	COUNTDOWN_END	n/a	n/a	n/a	n/a	-999	21	[0, 0, 0]	n/a	catFR1	1	R1180C
2264.187	1.6	1135891	ORIENT	n/a	n/a	n/a	n/a	-999	21	[0, 0, 0]	n/a	catFR1	1	R1180C
2267.687	1.6	1137640	WORD	n/a	wordpools/wordpool_categorized_EN.txt	DRIZZLE	Weather	1	21	[0, 0, 0]	n/a	catFR1	1	R1180C
2270.288	1.6	1138941	WORD	n/a	wordpools/wordpool_categorized_EN.txt	THUNDER	Weather	2	21	[0, 0, 0]	n/a	catFR1	1	R1180C
2272.838	1.6	1140216	WORD	n/a	wordpools/wordpool_categorized_EN.txt	RADIO	Electronics	3	21	[0, 0, 0]	n/a	catFR1	1	R1180C
2275.339	1.6	1141466	WORD	n/a	wordpools/wordpool_categorized_EN.txt	PRINTER	Electronics	4	21	[0, 0, 0]	n/a	catFR1	1	R1180C
2277.905	1.6	1142749	WORD	n/a	wordpools/wordpool_categorized_EN.txt	TIGER	Zoo	5	21	[0, 0, 0]	n/a	catFR1	1	R1180C
2280.506	1.6	1144049	WORD	n/a	wordpools/wordpool_categorized_EN.txt	CHEETAH	Zoo	6	21	[0, 0, 0]	n/a	catFR1	1	R1180C
2283.007	1.6	1145300	WORD	n/a	wordpools/wordpool_categorized_EN.txt	TORNADO	Weather	7	21	[0, 0, 0]	n/a	catFR1	1	R1180C
2285.473	1.6	1146533	WORD	n/a	wordpools/wordpool_categorized_EN.txt	WIND	Weather	8	21	[0, 0, 0]	n/a	catFR1	1	R1180C
2287.907	1.6	1147749	WORD	n/a	wordpools/wordpool_categorized_EN.txt	CHIMPANZEE	Zoo	9	21	[0, 0, 0]	n/a	catFR1	1	R1180C
2290.507	1.6	1149049	WORD	n/a	wordpools/wordpool_categorized_EN.txt	ORANGUTAN	Zoo	10	21	[0, 0, 0]	n/a	catFR1	1	R1180C
2292.875	1.6	1150233	WORD	n/a	wordpools/wordpool_categorized_EN.txt	SCANNER	Electronics	11	21	[0, 0, 0]	n/a	catFR1	1	R1180C
2295.343	1.6	1151467	WORD	n/a	wordpools/wordpool_categorized_EN.txt	TABLET	Electronics	12	21	[0, 0, 0]	n/a	catFR1	1	R1180C
2296.959	0.001	1152275	DISTRACT_START	n/a	n/a	n/a	n/a	-999	21	[0, 0, 0]	n/a	catFR1	1	R1180C
2296.96	0.015	1152276	START	n/a	n/a	n/a	n/a	-999	21	[-999, -999, -999]	n/a	catFR1	1	R1180C
2296.975	50.495	1152283	PROB	50.495	n/a	n/a	n/a	-999	21	[2, 8, 5]	15.0	catFR1	1	R1180C
2347.47	0.015	1177528	STOP	n/a	n/a	n/a	n/a	-999	21	[-999, -999, -999]	n/a	catFR1	1	R1180C
2347.485	1.217	1177536	DISTRACT_END	n/a	n/a	n/a	n/a	-999	21	[0, 0, 0]	n/a	catFR1	1	R1180C
2348.702	2.861	1178144	REC_START	n/a	n/a	n/a	n/a	-999	21	[0, 0, 0]	n/a	catFR1	1	R1180C
2351.563	1.079	1179575	REC_WORD	2.861	n/a	CHEETAH	Zoo	6	21	[0, 0, 0]	n/a	catFR1	1	R1180C
2352.642	3.64	1180114	REC_WORD	3.94	n/a	THUNDER	Weather	2	21	[0, 0, 0]	n/a	catFR1	1	R1180C
2356.282	22.435	1181934	REC_WORD	7.58	n/a	TIGER	Zoo	5	21	[0, 0, 0]	n/a	catFR1	1	R1180C
2378.717	9.059	1193150	REC_END	n/a	n/a	n/a	n/a	-999	21	[0, 0, 0]	n/a	catFR1	1	R1180C
2387.776	10.0	1197680	COUNTDOWN_START	n/a	n/a	n/a	n/a	-999	22	[0, 0, 0]	n/a	catFR1	1	R1180C
2387.776	10.428	1197680	TRIAL	n/a	n/a	n/a	n/a	-999	22	[0, 0, 0]	n/a	catFR1	1	R1180C
2398.204	0.008	1202893	COUNTDOWN_END	n/a	n/a	n/a	n/a	-999	22	[0, 0, 0]	n/a	catFR1	1	R1180C
2398.212	1.6	1202897	ORIENT	n/a	n/a	n/a	n/a	-999	22	[0, 0, 0]	n/a	catFR1	1	R1180C
2401.812	1.6	1204697	WORD	n/a	wordpools/wordpool_categorized_EN.txt	CORN	Vegetables	1	22	[0, 0, 0]	n/a	catFR1	1	R1180C
2404.247	1.6	1205914	WORD	n/a	wordpools/wordpool_categorized_EN.txt	CAULIFLOWER	Vegetables	2	22	[0, 0, 0]	n/a	catFR1	1	R1180C
2406.779	1.6	1207180	WORD	n/a	wordpools/wordpool_categorized_EN.txt	WHALE	OceanAnimals	3	22	[0, 0, 0]	n/a	catFR1	1	R1180C
2409.231	1.6	1208406	WORD	n/a	wordpools/wordpool_categorized_EN.txt	LOBSTER	OceanAnimals	4	22	[0, 0, 0]	n/a	catFR1	1	R1180C
2411.697	1.6	1209639	WORD	n/a	wordpools/wordpool_categorized_EN.txt	MONKEY	Zoo	5	22	[0, 0, 0]	n/a	catFR1	1	R1180C
2414.265	1.6	1210923	WORD	n/a	wordpools/wordpool_categorized_EN.txt	GIRAFFE	Zoo	6	22	[0, 0, 0]	n/a	catFR1	1	R1180C
2416.765	1.6	1212173	WORD	n/a	wordpools/wordpool_categorized_EN.txt	JELLYFISH	OceanAnimals	7	22	[0, 0, 0]	n/a	catFR1	1	R1180C
2419.365	1.6	1213473	WORD	n/a	wordpools/wordpool_categorized_EN.txt	PLANKTON	OceanAnimals	8	22	[0, 0, 0]	n/a	catFR1	1	R1180C
2421.865	1.6	1214723	WORD	n/a	wordpools/wordpool_categorized_EN.txt	LETTUCE	Vegetables	9	22	[0, 0, 0]	n/a	catFR1	1	R1180C
2424.433	1.6	1216006	WORD	n/a	wordpools/wordpool_categorized_EN.txt	CUCUMBER	Vegetables	10	22	[0, 0, 0]	n/a	catFR1	1	R1180C
2427.001	1.6	1217290	WORD	n/a	wordpools/wordpool_categorized_EN.txt	BEAR	Zoo	11	22	[0, 0, 0]	n/a	catFR1	1	R1180C
2429.534	1.6	1218557	WORD	n/a	wordpools/wordpool_categorized_EN.txt	LION	Zoo	12	22	[0, 0, 0]	n/a	catFR1	1	R1180C
2431.152	0.001	1219366	DISTRACT_START	n/a	n/a	n/a	n/a	-999	22	[0, 0, 0]	n/a	catFR1	1	R1180C
2431.153	0.015	1219366	START	n/a	n/a	n/a	n/a	-999	22	[-999, -999, -999]	n/a	catFR1	1	R1180C
2431.168	2.918	1219374	PROB	2.887	n/a	n/a	n/a	-999	22	[4, 4, 3]	11.0	catFR1	1	R1180C
2434.086	3.566	1220833	PROB	3.544	n/a	n/a	n/a	-999	22	[2, 1, 6]	9.0	catFR1	1	R1180C
2437.652	2.551	1222615	PROB	2.531	n/a	n/a	n/a	-999	22	[8, 8, 2]	18.0	catFR1	1	R1180C
2440.203	17.539	1223891	PROB	17.539	n/a	n/a	n/a	-999	22	[7, 7, 9]	23.0	catFR1	1	R1180C
2457.742	0.014	1232659	STOP	n/a	n/a	n/a	n/a	-999	22	[-999, -999, -999]	n/a	catFR1	1	R1180C
2457.756	1.2	1232666	DISTRACT_END	n/a	n/a	n/a	n/a	-999	22	[0, 0, 0]	n/a	catFR1	1	R1180C
2458.956	1.028	1233266	REC_START	n/a	n/a	n/a	n/a	-999	22	[0, 0, 0]	n/a	catFR1	1	R1180C
2459.984	0.913	1233780	REC_WORD	1.028	n/a	PLANKTON	OceanAnimals	8	22	[0, 0, 0]	n/a	catFR1	1	R1180C
2460.897	1.132	1234237	REC_WORD	1.941	n/a	JELLYFISH	OceanAnimals	7	22	[0, 0, 0]	n/a	catFR1	1	R1180C
2462.029	4.166	1234803	REC_WORD	3.073	n/a	GIRAFFE	Zoo	6	22	[0, 0, 0]	n/a	catFR1	1	R1180C
2466.195	22.776	1236886	REC_WORD	7.239	n/a	BEAR	Zoo	11	22	[0, 0, 0]	n/a	catFR1	1	R1180C
2488.971	2.941	1248273	REC_END	n/a	n/a	n/a	n/a	-999	22	[0, 0, 0]	n/a	catFR1	1	R1180C
2491.912	0.0	1249743	TRIAL	n/a	n/a	n/a	n/a	-999	23	[0, 0, 0]	n/a	catFR1	1	R1180C
2491.912	10.0	1249743	COUNTDOWN_START	n/a	n/a	n/a	n/a	-999	23	[0, 0, 0]	n/a	catFR1	1	R1180C
2502.34	0.008	1254956	COUNTDOWN_END	n/a	n/a	n/a	n/a	-999	23	[0, 0, 0]	n/a	catFR1	1	R1180C
2502.348	1.6	1254960	ORIENT	n/a	n/a	n/a	n/a	-999	23	[0, 0, 0]	n/a	catFR1	1	R1180C
2505.881	1.6	1256727	WORD	n/a	wordpools/wordpool_categorized_EN.txt	BINDER	OfficeSupplies	1	23	[0, 0, 0]	n/a	catFR1	1	R1180C
2508.448	1.6	1258010	WORD	n/a	wordpools/wordpool_categorized_EN.txt	FOLDER	OfficeSupplies	2	23	[0, 0, 0]	n/a	catFR1	1	R1180C
2511.017	1.6	1259295	WORD	n/a	wordpools/wordpool_categorized_EN.txt	SHELF	Furniture	3	23	[0, 0, 0]	n/a	catFR1	1	R1180C
2513.549	1.6	1260560	WORD	n/a	wordpools/wordpool_categorized_EN.txt	CABINET	Furniture	4	23	[0, 0, 0]	n/a	catFR1	1	R1180C
2516.068	1.6	1261820	WORD	n/a	wordpools/wordpool_categorized_EN.txt	ELBOW	BodyParts	5	23	[0, 0, 0]	n/a	catFR1	1	R1180C
2518.567	1.6	1263069	WORD	n/a	wordpools/wordpool_categorized_EN.txt	FOOT	BodyParts	6	23	[0, 0, 0]	n/a	catFR1	1	R1180C
2520.934	1.6	1264253	WORD	n/a	wordpools/wordpool_categorized_EN.txt	MARKER	OfficeSupplies	7	23	[0, 0, 0]	n/a	catFR1	1	R1180C
2523.385	1.6	1265478	WORD	n/a	wordpools/wordpool_categorized_EN.txt	GLUE	OfficeSupplies	8	23	[0, 0, 0]	n/a	catFR1	1	R1180C
2525.968	1.6	1266769	WORD	n/a	wordpools/wordpool_categorized_EN.txt	HAND	BodyParts	9	23	[0, 0, 0]	n/a	catFR1	1	R1180C
2528.569	1.6	1268070	WORD	n/a	wordpools/wordpool_categorized_EN.txt	FINGERS	BodyParts	10	23	[0, 0, 0]	n/a	catFR1	1	R1180C
2530.986	1.6	1269278	WORD	n/a	wordpools/wordpool_categorized_EN.txt	TABLE	Furniture	11	23	[0, 0, 0]	n/a	catFR1	1	R1180C
2533.536	1.6	1270553	WORD	n/a	wordpools/wordpool_categorized_EN.txt	DRESSER	Furniture	12	23	[0, 0, 0]	n/a	catFR1	1	R1180C
2535.137	0.001	1271354	DISTRACT_START	n/a	n/a	n/a	n/a	-999	23	[0, 0, 0]	n/a	catFR1	1	R1180C
2535.138	0.016	1271354	START	n/a	n/a	n/a	n/a	-999	23	[-999, -999, -999]	n/a	catFR1	1	R1180C
2535.154	4.001	1271362	PROB	3.981	n/a	n/a	n/a	-999	23	[1, 9, 9]	19.0	catFR1	1	R1180C
2539.155	6.151	1273362	PROB	6.116	n/a	n/a	n/a	-999	23	[4, 8, 9]	21.0	catFR1	1	R1180C
2545.306	14.412	1276438	PROB	14.412	n/a	n/a	n/a	-999	23	[5, 7, 4]	16.0	catFR1	1	R1180C
2559.718	0.007	1283643	STOP	n/a	n/a	n/a	n/a	-999	23	[-999, -999, -999]	n/a	catFR1	1	R1180C
2559.725	1.101	1283646	DISTRACT_END	n/a	n/a	n/a	n/a	-999	23	[0, 0, 0]	n/a	catFR1	1	R1180C
2560.826	0.859	1284197	REC_START	n/a	n/a	n/a	n/a	-999	23	[0, 0, 0]	n/a	catFR1	1	R1180C
2561.685	1.385	1284626	REC_WORD	0.859	n/a	SHELF	Furniture	3	23	[0, 0, 0]	n/a	catFR1	1	R1180C
2563.07	1.204	1285319	REC_WORD	2.244	n/a	BINDER	OfficeSupplies	1	23	[0, 0, 0]	n/a	catFR1	1	R1180C
2564.274	15.178	1285921	REC_WORD	3.448	n/a	NOTEBOOK	n/a	-999	23	[0, 0, 0]	n/a	catFR1	1	R1180C
2579.452	11.384	1293509	REC_WORD	18.626	n/a	MARKER	OfficeSupplies	7	23	[0, 0, 0]	n/a	catFR1	1	R1180C
2590.836	2.878	1299201	REC_END	n/a	n/a	n/a	n/a	-999	23	[0, 0, 0]	n/a	catFR1	1	R1180C
2593.714	10.0	1300639	COUNTDOWN_START	n/a	n/a	n/a	n/a	-999	24	[0, 0, 0]	n/a	catFR1	1	R1180C
2593.715	10.427	1300640	TRIAL	n/a	n/a	n/a	n/a	-999	24	[0, 0, 0]	n/a	catFR1	1	R1180C
2604.142	0.009	1305853	COUNTDOWN_END	n/a	n/a	n/a	n/a	-999	24	[0, 0, 0]	n/a	catFR1	1	R1180C
2604.151	1.6	1305857	ORIENT	n/a	n/a	n/a	n/a	-999	24	[0, 0, 0]	n/a	catFR1	1	R1180C
2607.9	1.6	1307732	WORD	n/a	wordpools/wordpool_categorized_EN.txt	DESK	Furniture	1	24	[0, 0, 0]	n/a	catFR1	1	R1180C
2610.302	1.6	1308933	WORD	n/a	wordpools/wordpool_categorized_EN.txt	CHAIR	Furniture	2	24	[0, 0, 0]	n/a	catFR1	1	R1180C
2612.801	1.6	1310182	WORD	n/a	wordpools/wordpool_categorized_EN.txt	MOTH	Insects	3	24	[0, 0, 0]	n/a	catFR1	1	R1180C
2615.186	1.6	1311375	WORD	n/a	wordpools/wordpool_categorized_EN.txt	ANT	Insects	4	24	[0, 0, 0]	n/a	catFR1	1	R1180C
2617.569	1.6	1312566	WORD	n/a	wordpools/wordpool_categorized_EN.txt	WHISK	KitchenTools	5	24	[0, 0, 0]	n/a	catFR1	1	R1180C
2620.087	1.6	1313825	WORD	n/a	wordpools/wordpool_categorized_EN.txt	TONGS	KitchenTools	6	24	[0, 0, 0]	n/a	catFR1	1	R1180C
2622.57	1.6	1315066	WORD	n/a	wordpools/wordpool_categorized_EN.txt	COUCH	Furniture	7	24	[0, 0, 0]	n/a	catFR1	1	R1180C
2624.937	1.6	1316250	WORD	n/a	wordpools/wordpool_categorized_EN.txt	SOFA	Furniture	8	24	[0, 0, 0]	n/a	catFR1	1	R1180C
2627.554	1.6	1317558	WORD	n/a	wordpools/wordpool_categorized_EN.txt	FORK	KitchenTools	9	24	[0, 0, 0]	n/a	catFR1	1	R1180C
2629.938	1.6	1318750	WORD	n/a	wordpools/wordpool_categorized_EN.txt	STRAINER	KitchenTools	10	24	[0, 0, 0]	n/a	catFR1	1	R1180C
2632.472	1.6	1320017	WORD	n/a	wordpools/wordpool_categorized_EN.txt	FLY	Insects	11	24	[0, 0, 0]	n/a	catFR1	1	R1180C
2635.073	1.6	1321317	WORD	n/a	wordpools/wordpool_categorized_EN.txt	SPIDER	Insects	12	24	[0, 0, 0]	n/a	catFR1	1	R1180C
2636.689	0.001	1322125	DISTRACT_START	n/a	n/a	n/a	n/a	-999	24	[0, 0, 0]	n/a	catFR1	1	R1180C
2636.69	0.016	1322126	START	n/a	n/a	n/a	n/a	-999	24	[-999, -999, -999]	n/a	catFR1	1	R1180C
2636.706	3.867	1322134	PROB	3.836	n/a	n/a	n/a	-999	24	[3, 7, 7]	17.0	catFR1	1	R1180C
2640.573	2.685	1324067	PROB	2.65	n/a	n/a	n/a	-999	24	[1, 4, 1]	6.0	catFR1	1	R1180C
2643.258	4.984	1325409	PROB	4.957	n/a	n/a	n/a	-999	24	[8, 1, 4]	13.0	catFR1	1	R1180C
2648.242	4.484	1327901	PROB	4.46	n/a	n/a	n/a	-999	24	[7, 6, 1]	14.0	catFR1	1	R1180C
2652.726	5.489	1330143	PROB	5.489	n/a	n/a	n/a	-999	24	[7, 4, 3]	14.0	catFR1	1	R1180C
2658.215	0.013	1332887	STOP	n/a	n/a	n/a	n/a	-999	24	[-999, -999, -999]	n/a	catFR1	1	R1180C
2658.228	1.067	1332894	DISTRACT_END	n/a	n/a	n/a	n/a	-999	24	[0, 0, 0]	n/a	catFR1	1	R1180C
2659.295	2.111	1333427	REC_START	n/a	n/a	n/a	n/a	-999	24	[0, 0, 0]	n/a	catFR1	1	R1180C
2661.406	1.018	1334482	REC_WORD	2.111	n/a	BED	n/a	-999	24	[0, 0, 0]	n/a	catFR1	1	R1180C
2662.424	0.685	1334991	REC_WORD	3.129	n/a	DESK	Furniture	1	24	[0, 0, 0]	n/a	catFR1	1	R1180C
2663.109	1.179	1335334	REC_WORD	3.814	n/a	SOFA	Furniture	8	24	[0, 0, 0]	n/a	catFR1	1	R1180C
2664.288	5.65	1335923	REC_WORD	4.993	n/a	COUCH	Furniture	7	24	[0, 0, 0]	n/a	catFR1	1	R1180C
2669.938	7.633	1338748	REC_WORD	10.643	n/a	CHAIR	Furniture	2	24	[0, 0, 0]	n/a	catFR1	1	R1180C
2677.571	0.714	1342564	REC_WORD	18.276	n/a	ANT	Insects	4	24	[0, 0, 0]	n/a	catFR1	1	R1180C
2678.285	9.142	1342921	REC_WORD	18.99	n/a	MOTH	Insects	3	24	[0, 0, 0]	n/a	catFR1	1	R1180C
2687.427	1.879	1347492	REC_WORD	28.132	n/a	ELBOW	n/a	-999	24	[0, 0, 0]	n/a	catFR1	1	R1180C
2689.306	4.06	1348431	REC_END	n/a	n/a	n/a	n/a	-999	24	[0, 0, 0]	n/a	catFR1	1	R1180C
2693.366	10.0	1350461	COUNTDOWN_START	n/a	n/a	n/a	n/a	-999	25	[0, 0, 0]	n/a	catFR1	1	R1180C
2693.367	10.427	1350462	TRIAL	n/a	n/a	n/a	n/a	-999	25	[0, 0, 0]	n/a	catFR1	1	R1180C
2703.794	0.008	1355675	COUNTDOWN_END	n/a	n/a	n/a	n/a	-999	25	[0, 0, 0]	n/a	catFR1	1	R1180C
2703.802	1.6	1355679	ORIENT	n/a	n/a	n/a	n/a	-999	25	[0, 0, 0]	n/a	catFR1	1	R1180C
2707.636	1.6	1357595	WORD	n/a	wordpools/wordpool_categorized_EN.txt	PIE	Desserts	1	25	[0, 0, 0]	n/a	catFR1	1	R1180C
2710.237	1.6	1358896	WORD	n/a	wordpools/wordpool_categorized_EN.txt	JELLO	Desserts	2	25	[0, 0, 0]	n/a	catFR1	1	R1180C
2712.803	1.6	1360179	WORD	n/a	wordpools/wordpool_categorized_EN.txt	CYPRESS	Trees	3	25	[0, 0, 0]	n/a	catFR1	1	R1180C
2715.272	1.6	1361413	WORD	n/a	wordpools/wordpool_categorized_EN.txt	WILLOW	Trees	4	25	[0, 0, 0]	n/a	catFR1	1	R1180C
2717.788	1.6	1362671	WORD	n/a	wordpools/wordpool_categorized_EN.txt	SCOOTER	Vehicles	5	25	[0, 0, 0]	n/a	catFR1	1	R1180C
2720.272	1.6	1363913	WORD	n/a	wordpools/wordpool_categorized_EN.txt	TRUCK	Vehicles	6	25	[0, 0, 0]	n/a	catFR1	1	R1180C
2722.789	1.6	1365171	WORD	n/a	wordpools/wordpool_categorized_EN.txt	PASTRY	Desserts	7	25	[0, 0, 0]	n/a	catFR1	1	R1180C
2725.357	1.6	1366455	WORD	n/a	wordpools/wordpool_categorized_EN.txt	MOUSSE	Desserts	8	25	[0, 0, 0]	n/a	catFR1	1	R1180C
2727.873	1.6	1367713	WORD	n/a	wordpools/wordpool_categorized_EN.txt	BIKE	Vehicles	9	25	[0, 0, 0]	n/a	catFR1	1	R1180C
2730.457	1.6	1369005	WORD	n/a	wordpools/wordpool_categorized_EN.txt	BOAT	Vehicles	10	25	[0, 0, 0]	n/a	catFR1	1	R1180C
2732.874	1.6	1370213	WORD	n/a	wordpools/wordpool_categorized_EN.txt	SPRUCE	Trees	11	25	[0, 0, 0]	n/a	catFR1	1	R1180C
2735.424	1.6	1371488	WORD	n/a	wordpools/wordpool_categorized_EN.txt	OAK	Trees	12	25	[0, 0, 0]	n/a	catFR1	1	R1180C
2737.025	0.001	1372289	DISTRACT_START	n/a	n/a	n/a	n/a	-999	25	[0, 0, 0]	n/a	catFR1	1	R1180C
2737.026	0.016	1372289	START	n/a	n/a	n/a	n/a	-999	25	[-999, -999, -999]	n/a	catFR1	1	R1180C
2737.042	5.9	1372297	PROB	5.876	n/a	n/a	n/a	-999	25	[3, 5, 6]	14.0	catFR1	1	R1180C
2742.942	6.885	1375247	PROB	6.856	n/a	n/a	n/a	-999	25	[9, 2, 6]	17.0	catFR1	1	R1180C
2749.827	4.768	1378689	PROB	4.731	n/a	n/a	n/a	-999	25	[6, 7, 2]	15.0	catFR1	1	R1180C
2754.595	5.267	1381073	PROB	5.267	n/a	n/a	n/a	-999	25	[7, 1, 2]	10.0	catFR1	1	R1180C
2759.862	0.017	1383706	STOP	n/a	n/a	n/a	n/a	-999	25	[-999, -999, -999]	n/a	catFR1	1	R1180C
2759.879	1.152	1383715	DISTRACT_END	n/a	n/a	n/a	n/a	-999	25	[0, 0, 0]	n/a	catFR1	1	R1180C
2761.031	0.975	1384291	REC_START	n/a	n/a	n/a	n/a	-999	25	[0, 0, 0]	n/a	catFR1	1	R1180C
2762.006	1.982	1384778	REC_WORD	0.975	n/a	SPRUCE	Trees	11	25	[0, 0, 0]	n/a	catFR1	1	R1180C
2763.988	7.739	1385769	REC_WORD	2.957	n/a	OAK	Trees	12	25	[0, 0, 0]	n/a	catFR1	1	R1180C
2771.727	10.404	1389638	REC_WORD	10.696	n/a	BOAT	Vehicles	10	25	[0, 0, 0]	n/a	catFR1	1	R1180C
2782.131	1.474	1394840	REC_WORD	21.1	n/a	WILLOW	Trees	4	25	[0, 0, 0]	n/a	catFR1	1	R1180C
2783.605	7.437	1395577	REC_WORD	22.574	n/a	CYPRESS	Trees	3	25	[0, 0, 0]	n/a	catFR1	1	R1180C
2791.042	70.307	1399295	REC_END	n/a	n/a	n/a	n/a	-999	25	[0, 0, 0]	n/a	catFR1	1	R1180C
2861.349	0.0	-1	SESS_END	n/a	n/a	n/a	n/a	-999	25	[0, 0, 0]	n/a	catFR1	1	R1180C
