onset	duration	sample	trial_type	response_time	stim_file	item_name	category	serialpos	list	test	answer	experiment	session	subject
0.0	38.264	36584	INSTRUCT_START	n/a	n/a	n/a	n/a	-999	-999	[0, 0, 0]	n/a	catFR1	2	R1683A
38.264	42.332	74846	INSTRUCT_END	n/a	n/a	n/a	n/a	-999	-999	[0, 0, 0]	n/a	catFR1	2	R1683A
80.596	10.36	117175	COUNTDOWN_START	n/a	n/a	n/a	n/a	-999	-999	[0, 0, 0]	n/a	catFR1	2	R1683A
90.956	0.001	127531	COUNTDOWN_END	n/a	n/a	n/a	n/a	-999	-999	[0, 0, 0]	n/a	catFR1	2	R1683A
90.957	2.251	127542	ENCODING_START	n/a	n/a	n/a	n/a	-999	-1	[0, 0, 0]	n/a	catFR1	2	R1683A
93.208	1.603	129788	WORD	n/a	n/a	ORGAN	Instruments	1	-1	[0, 0, 0]	n/a	catFR1	2	R1683A
94.811	0.759	131390	WORD_OFF	n/a	n/a	ORGAN	Instruments	1	-1	[0, 0, 0]	n/a	catFR1	2	R1683A
95.57	1.6	132153	WORD	n/a	n/a	VIOLIN	Instruments	2	-1	[0, 0, 0]	n/a	catFR1	2	R1683A
97.17	0.94	133756	WORD_OFF	n/a	n/a	VIOLIN	Instruments	2	-1	[0, 0, 0]	n/a	catFR1	2	R1683A
98.11	1.61	134693	WORD	n/a	n/a	LAMB	FarmAnimals	3	-1	[0, 0, 0]	n/a	catFR1	2	R1683A
99.72	0.783	136307	WORD_OFF	n/a	n/a	LAMB	FarmAnimals	3	-1	[0, 0, 0]	n/a	catFR1	2	R1683A
100.503	1.607	137081	WORD	n/a	n/a	COW	FarmAnimals	4	-1	[0, 0, 0]	n/a	catFR1	2	R1683A
102.11	0.81	138694	WORD_OFF	n/a	n/a	COW	FarmAnimals	4	-1	[0, 0, 0]	n/a	catFR1	2	R1683A
102.92	1.608	139501	WORD	n/a	n/a	FOOTBALL	Toys	5	-1	[0, 0, 0]	n/a	catFR1	2	R1683A
104.528	0.884	141103	WORD_OFF	n/a	n/a	FOOTBALL	Toys	5	-1	[0, 0, 0]	n/a	catFR1	2	R1683A
105.412	1.608	141986	WORD	n/a	n/a	BASEBALL	Toys	6	-1	[0, 0, 0]	n/a	catFR1	2	R1683A
107.02	0.917	143600	WORD_OFF	n/a	n/a	BASEBALL	Toys	6	-1	[0, 0, 0]	n/a	catFR1	2	R1683A
107.937	1.606	144515	WORD	n/a	n/a	HEN	FarmAnimals	7	-1	[0, 0, 0]	n/a	catFR1	2	R1683A
109.543	0.96	146118	WORD_OFF	n/a	n/a	HEN	FarmAnimals	7	-1	[0, 0, 0]	n/a	catFR1	2	R1683A
110.503	1.607	147088	WORD	n/a	n/a	CALF	FarmAnimals	8	-1	[0, 0, 0]	n/a	catFR1	2	R1683A
112.11	0.96	148690	WORD_OFF	n/a	n/a	CALF	FarmAnimals	8	-1	[0, 0, 0]	n/a	catFR1	2	R1683A
113.07	1.607	149650	WORD	n/a	n/a	BARBIE	Toys	9	-1	[0, 0, 0]	n/a	catFR1	2	R1683A
114.677	0.867	151252	WORD_OFF	n/a	n/a	BARBIE	Toys	9	-1	[0, 0, 0]	n/a	catFR1	2	R1683A
115.544	1.6	152124	WORD	n/a	n/a	PUZZLE	Toys	10	-1	[0, 0, 0]	n/a	catFR1	2	R1683A
117.144	0.959	153727	WORD_OFF	n/a	n/a	PUZZLE	Toys	10	-1	[0, 0, 0]	n/a	catFR1	2	R1683A
118.103	1.6	154686	WORD	n/a	n/a	CELLO	Instruments	11	-1	[0, 0, 0]	n/a	catFR1	2	R1683A
119.703	0.916	156288	WORD_OFF	n/a	n/a	CELLO	Instruments	11	-1	[0, 0, 0]	n/a	catFR1	2	R1683A
120.619	1.605	157193	WORD	n/a	n/a	PIANO	Instruments	12	-1	[0, 0, 0]	n/a	catFR1	2	R1683A
122.224	0.001	158801	PROB	0.001	n/a	n/a	n/a	-999	-1	[3, 4, 7]	14	catFR1	2	R1683A
122.225	0.0	158802	START	n/a	n/a	n/a	n/a	-999	-1	[-999, -999, -999]	n/a	catFR1	2	R1683A
122.22	0.004	158807	WORD_OFF	n/a	n/a	PIANO	Instruments	12	-1	[0, 0, 0]	n/a	catFR1	2	R1683A
122.224	0.001	158818	ENCODING_END	n/a	n/a	n/a	n/a	-999	-1	[0, 0, 0]	n/a	catFR1	2	R1683A
122.225	3.911	158818	DISTRACT_START	n/a	n/a	n/a	n/a	-999	-1	[0, 0, 0]	n/a	catFR1	2	R1683A
126.136	3.192	162713	PROB	3.192	n/a	n/a	n/a	-999	-1	[7, 2, 7]	16	catFR1	2	R1683A
129.328	4.333	165905	PROB	4.333	n/a	n/a	n/a	-999	-1	[8, 6, 1]	15	catFR1	2	R1683A
133.661	4.325	170238	PROB	4.325	n/a	n/a	n/a	-999	-1	[8, 4, 2]	14	catFR1	2	R1683A
137.986	3.358	174563	PROB	3.358	n/a	n/a	n/a	-999	-1	[4, 1, 5]	10	catFR1	2	R1683A
141.344	4.41	177921	PROB	4.41	n/a	n/a	n/a	-999	-1	[7, 3, 5]	15	catFR1	2	R1683A
145.754	0.0	182331	DISTRACT_END	n/a	n/a	n/a	n/a	-999	-1	[0, 0, 0]	n/a	catFR1	2	R1683A
145.754	2.242	182331	STOP	n/a	n/a	n/a	n/a	-999	-1	[-999, -999, -999]	n/a	catFR1	2	R1683A
147.996	1.226	184577	REC_START	n/a	n/a	n/a	n/a	-999	-1	[0, 0, 0]	n/a	catFR1	2	R1683A
149.222	1.323	185799	REC_WORD	1.323	n/a	CELLO	Instruments	11	-1	[0, 0, 0]	n/a	catFR1	2	R1683A
150.545	1.16	187122	REC_WORD	1.16	n/a	ORGAN	Instruments	1	-1	[0, 0, 0]	n/a	catFR1	2	R1683A
151.705	1.361	188282	REC_WORD	1.361	n/a	VIOLIN	Instruments	2	-1	[0, 0, 0]	n/a	catFR1	2	R1683A
153.066	2.288	189643	REC_WORD	2.288	n/a	COW	FarmAnimals	4	-1	[0, 0, 0]	n/a	catFR1	2	R1683A
155.354	1.532	191931	REC_WORD	1.532	n/a	CALF	FarmAnimals	8	-1	[0, 0, 0]	n/a	catFR1	2	R1683A
156.886	1.903	193463	REC_WORD	1.903	n/a	HEN	FarmAnimals	7	-1	[0, 0, 0]	n/a	catFR1	2	R1683A
158.789	1.772	195366	REC_WORD	1.772	n/a	BASEBALL	Toys	6	-1	[0, 0, 0]	n/a	catFR1	2	R1683A
160.561	3.504	197138	REC_WORD	3.504	n/a	FOOTBALL	Toys	5	-1	[0, 0, 0]	n/a	catFR1	2	R1683A
164.065	0.933	200642	REC_WORD	0.933	n/a	CALF	FarmAnimals	8	-1	[0, 0, 0]	n/a	catFR1	2	R1683A
164.998	0.62	201575	REC_WORD_VV	0.62	n/a	<>	n/a	-999	-1	[0, 0, 0]	n/a	catFR1	2	R1683A
165.618	0.415	202195	REC_WORD	0.415	n/a	CALF	FarmAnimals	8	-1	[0, 0, 0]	n/a	catFR1	2	R1683A
166.033	1.226	202610	REC_WORD_VV	1.226	n/a	<>	n/a	-999	-1	[0, 0, 0]	n/a	catFR1	2	R1683A
167.259	8.226	203836	REC_WORD_VV	8.226	n/a	<>	n/a	-999	-1	[0, 0, 0]	n/a	catFR1	2	R1683A
175.485	1.0	212062	REC_WORD_VV	1.0	n/a	<>	n/a	-999	-1	[0, 0, 0]	n/a	catFR1	2	R1683A
176.485	1.66	213062	REC_WORD_VV	1.66	n/a	<>	n/a	-999	-1	[0, 0, 0]	n/a	catFR1	2	R1683A
178.145	57.273	214729	REC_END	n/a	n/a	n/a	n/a	-999	-1	[0, 0, 0]	n/a	catFR1	2	R1683A
235.418	10.345	272004	COUNTDOWN_START	n/a	n/a	n/a	n/a	-999	1	[0, 0, 0]	n/a	catFR1	2	R1683A
245.763	0.0	282338	COUNTDOWN_END	n/a	n/a	n/a	n/a	-999	1	[0, 0, 0]	n/a	catFR1	2	R1683A
245.763	2.022	282349	ENCODING_START	n/a	n/a	n/a	n/a	-999	1	[0, 0, 0]	n/a	catFR1	2	R1683A
247.785	1.602	284365	WORD	n/a	wordpools/wordpool_categorized_EN.txt	AXE	Tools	1	1	[0, 0, 0]	n/a	catFR1	2	R1683A
249.387	0.8	285968	WORD_OFF	n/a	n/a	AXE	Tools	1	1	[0, 0, 0]	n/a	catFR1	2	R1683A
250.187	1.608	286764	WORD	n/a	wordpools/wordpool_categorized_EN.txt	SCREWDRIVER	Tools	2	1	[0, 0, 0]	n/a	catFR1	2	R1683A
251.795	0.833	288377	WORD_OFF	n/a	n/a	SCREWDRIVER	Tools	2	1	[0, 0, 0]	n/a	catFR1	2	R1683A
252.628	1.608	289205	WORD	n/a	wordpools/wordpool_categorized_EN.txt	JELLO	Desserts	3	1	[0, 0, 0]	n/a	catFR1	2	R1683A
254.236	0.959	290819	WORD_OFF	n/a	n/a	JELLO	Desserts	3	1	[0, 0, 0]	n/a	catFR1	2	R1683A
255.195	1.608	291778	WORD	n/a	wordpools/wordpool_categorized_EN.txt	COOKIE	Desserts	4	1	[0, 0, 0]	n/a	catFR1	2	R1683A
256.803	0.941	293381	WORD_OFF	n/a	n/a	COOKIE	Desserts	4	1	[0, 0, 0]	n/a	catFR1	2	R1683A
257.744	1.601	294318	WORD	n/a	wordpools/wordpool_categorized_EN.txt	PLANE	Vehicles	5	1	[0, 0, 0]	n/a	catFR1	2	R1683A
259.345	0.773	295921	WORD_OFF	n/a	n/a	PLANE	Vehicles	5	1	[0, 0, 0]	n/a	catFR1	2	R1683A
260.118	1.601	296695	WORD	n/a	wordpools/wordpool_categorized_EN.txt	VAN	Vehicles	6	1	[0, 0, 0]	n/a	catFR1	2	R1683A
261.719	0.793	298297	WORD_OFF	n/a	n/a	VAN	Vehicles	6	1	[0, 0, 0]	n/a	catFR1	2	R1683A
262.512	1.608	299093	WORD	n/a	wordpools/wordpool_categorized_EN.txt	COBBLER	Desserts	7	1	[0, 0, 0]	n/a	catFR1	2	R1683A
264.12	0.917	300695	WORD_OFF	n/a	n/a	COBBLER	Desserts	7	1	[0, 0, 0]	n/a	catFR1	2	R1683A
265.037	1.606	301611	WORD	n/a	wordpools/wordpool_categorized_EN.txt	FUDGE	Desserts	8	1	[0, 0, 0]	n/a	catFR1	2	R1683A
266.643	0.775	303224	WORD_OFF	n/a	n/a	FUDGE	Desserts	8	1	[0, 0, 0]	n/a	catFR1	2	R1683A
267.418	1.611	303998	WORD	n/a	wordpools/wordpool_categorized_EN.txt	SAW	Tools	9	1	[0, 0, 0]	n/a	catFR1	2	R1683A
269.029	0.89	305612	WORD_OFF	n/a	n/a	SAW	Tools	9	1	[0, 0, 0]	n/a	catFR1	2	R1683A
269.919	1.6	306495	WORD	n/a	wordpools/wordpool_categorized_EN.txt	SANDER	Tools	10	1	[0, 0, 0]	n/a	catFR1	2	R1683A
271.519	0.759	308097	WORD_OFF	n/a	n/a	SANDER	Tools	10	1	[0, 0, 0]	n/a	catFR1	2	R1683A
272.278	1.608	308860	WORD	n/a	wordpools/wordpool_categorized_EN.txt	JEEP	Vehicles	11	1	[0, 0, 0]	n/a	catFR1	2	R1683A
273.886	0.882	310463	WORD_OFF	n/a	n/a	JEEP	Vehicles	11	1	[0, 0, 0]	n/a	catFR1	2	R1683A
274.768	1.602	311346	WORD	n/a	wordpools/wordpool_categorized_EN.txt	TRUCK	Vehicles	12	1	[0, 0, 0]	n/a	catFR1	2	R1683A
276.37	0.0	312947	PROB	0.0	n/a	n/a	n/a	-999	1	[4, 1, 1]	6	catFR1	2	R1683A
276.37	0.004	312948	WORD_OFF	n/a	n/a	TRUCK	Vehicles	12	1	[0, 0, 0]	n/a	catFR1	2	R1683A
276.374	0.0	312948	ENCODING_END	n/a	n/a	n/a	n/a	-999	1	[0, 0, 0]	n/a	catFR1	2	R1683A
276.374	0.0	312951	START	n/a	n/a	n/a	n/a	-999	1	[-999, -999, -999]	n/a	catFR1	2	R1683A
276.374	3.162	312959	DISTRACT_START	n/a	n/a	n/a	n/a	-999	1	[0, 0, 0]	n/a	catFR1	2	R1683A
279.536	3.325	316113	PROB	3.325	n/a	n/a	n/a	-999	1	[5, 4, 2]	11	catFR1	2	R1683A
282.861	11.066	319438	PROB	11.066	n/a	n/a	n/a	-999	1	[8, 6, 7]	21	catFR1	2	R1683A
293.927	5.093	330504	PROB	5.093	n/a	n/a	n/a	-999	1	[4, 8, 7]	19	catFR1	2	R1683A
299.02	0.0	335597	STOP	n/a	n/a	n/a	n/a	-999	1	[-999, -999, -999]	n/a	catFR1	2	R1683A
299.02	2.326	335601	DISTRACT_END	n/a	n/a	n/a	n/a	-999	1	[0, 0, 0]	n/a	catFR1	2	R1683A
301.346	1.276	337922	REC_START	n/a	n/a	n/a	n/a	-999	1	[0, 0, 0]	n/a	catFR1	2	R1683A
302.622	1.035	339199	REC_WORD	1.035	n/a	SAW	Tools	9	1	[0, 0, 0]	n/a	catFR1	2	R1683A
303.657	2.633	340234	REC_WORD	2.633	n/a	SANDER	Tools	10	1	[0, 0, 0]	n/a	catFR1	2	R1683A
306.29	1.083	342867	REC_WORD	1.083	n/a	TRUCK	Vehicles	12	1	[0, 0, 0]	n/a	catFR1	2	R1683A
307.373	1.913	343950	REC_WORD	1.913	n/a	PLANE	Vehicles	5	1	[0, 0, 0]	n/a	catFR1	2	R1683A
309.286	4.607	345863	REC_WORD	4.607	n/a	COBBLER	Desserts	7	1	[0, 0, 0]	n/a	catFR1	2	R1683A
313.893	1.0	350470	REC_WORD_VV	1.0	n/a	<>	n/a	-999	1	[0, 0, 0]	n/a	catFR1	2	R1683A
314.893	3.811	351470	REC_WORD_VV	3.811	n/a	<>	n/a	-999	1	[0, 0, 0]	n/a	catFR1	2	R1683A
318.704	6.352	355280	REC_WORD	6.352	n/a	VAN	Vehicles	6	1	[0, 0, 0]	n/a	catFR1	2	R1683A
325.056	3.147	361632	REC_WORD	3.147	n/a	JELLO	Desserts	3	1	[0, 0, 0]	n/a	catFR1	2	R1683A
328.203	3.284	364779	REC_WORD_VV	3.284	n/a	<>	n/a	-999	1	[0, 0, 0]	n/a	catFR1	2	R1683A
331.487	12.164	368064	REC_END	n/a	n/a	n/a	n/a	-999	1	[0, 0, 0]	n/a	catFR1	2	R1683A
343.651	10.334	380230	COUNTDOWN_START	n/a	n/a	n/a	n/a	-999	2	[0, 0, 0]	n/a	catFR1	2	R1683A
353.985	0.001	390564	COUNTDOWN_END	n/a	n/a	n/a	n/a	-999	2	[0, 0, 0]	n/a	catFR1	2	R1683A
353.986	1.866	390564	ENCODING_START	n/a	n/a	n/a	n/a	-999	2	[0, 0, 0]	n/a	catFR1	2	R1683A
355.852	1.6	392428	WORD	n/a	wordpools/wordpool_categorized_EN.txt	RULER	OfficeSupplies	1	2	[0, 0, 0]	n/a	catFR1	2	R1683A
357.452	0.991	394030	WORD_OFF	n/a	n/a	RULER	OfficeSupplies	1	2	[0, 0, 0]	n/a	catFR1	2	R1683A
358.443	1.602	395022	WORD	n/a	wordpools/wordpool_categorized_EN.txt	BINDER	OfficeSupplies	2	2	[0, 0, 0]	n/a	catFR1	2	R1683A
360.045	0.775	396625	WORD_OFF	n/a	n/a	BINDER	OfficeSupplies	2	2	[0, 0, 0]	n/a	catFR1	2	R1683A
360.82	1.6	397399	WORD	n/a	wordpools/wordpool_categorized_EN.txt	WRENCH	Tools	3	2	[0, 0, 0]	n/a	catFR1	2	R1683A
362.42	0.925	399001	WORD_OFF	n/a	n/a	WRENCH	Tools	3	2	[0, 0, 0]	n/a	catFR1	2	R1683A
363.345	1.6	399928	WORD	n/a	wordpools/wordpool_categorized_EN.txt	RATCHET	Tools	4	2	[0, 0, 0]	n/a	catFR1	2	R1683A
364.945	0.925	401519	WORD_OFF	n/a	n/a	RATCHET	Tools	4	2	[0, 0, 0]	n/a	catFR1	2	R1683A
365.87	1.608	402446	WORD	n/a	wordpools/wordpool_categorized_EN.txt	ROOF	Building	5	2	[0, 0, 0]	n/a	catFR1	2	R1683A
367.478	0.766	404059	WORD_OFF	n/a	n/a	ROOF	Building	5	2	[0, 0, 0]	n/a	catFR1	2	R1683A
368.244	1.601	404822	WORD	n/a	wordpools/wordpool_categorized_EN.txt	FOUNDATION	Building	6	2	[0, 0, 0]	n/a	catFR1	2	R1683A
369.845	0.866	406425	WORD_OFF	n/a	n/a	FOUNDATION	Building	6	2	[0, 0, 0]	n/a	catFR1	2	R1683A
370.711	1.607	407286	WORD	n/a	wordpools/wordpool_categorized_EN.txt	PLIERS	Tools	7	2	[0, 0, 0]	n/a	catFR1	2	R1683A
372.318	0.835	408899	WORD_OFF	n/a	n/a	PLIERS	Tools	7	2	[0, 0, 0]	n/a	catFR1	2	R1683A
373.153	1.609	409728	WORD	n/a	wordpools/wordpool_categorized_EN.txt	HAMMER	Tools	8	2	[0, 0, 0]	n/a	catFR1	2	R1683A
374.762	0.892	411341	WORD_OFF	n/a	n/a	HAMMER	Tools	8	2	[0, 0, 0]	n/a	catFR1	2	R1683A
375.654	1.607	412235	WORD	n/a	wordpools/wordpool_categorized_EN.txt	DOOR	Building	9	2	[0, 0, 0]	n/a	catFR1	2	R1683A
377.261	0.933	413838	WORD_OFF	n/a	n/a	DOOR	Building	9	2	[0, 0, 0]	n/a	catFR1	2	R1683A
378.194	1.6	414775	WORD	n/a	wordpools/wordpool_categorized_EN.txt	WINDOW	Building	10	2	[0, 0, 0]	n/a	catFR1	2	R1683A
379.794	0.982	416378	WORD_OFF	n/a	n/a	WINDOW	Building	10	2	[0, 0, 0]	n/a	catFR1	2	R1683A
380.776	1.603	417359	WORD	n/a	wordpools/wordpool_categorized_EN.txt	GLUE	OfficeSupplies	11	2	[0, 0, 0]	n/a	catFR1	2	R1683A
382.379	0.881	418961	WORD_OFF	n/a	n/a	GLUE	OfficeSupplies	11	2	[0, 0, 0]	n/a	catFR1	2	R1683A
383.26	1.603	419833	WORD	n/a	wordpools/wordpool_categorized_EN.txt	PENCIL	OfficeSupplies	12	2	[0, 0, 0]	n/a	catFR1	2	R1683A
384.863	0.007	421439	PROB	0.007	n/a	n/a	n/a	-999	2	[8, 3, 6]	17	catFR1	2	R1683A
384.87	0.0	421446	START	n/a	n/a	n/a	n/a	-999	2	[-999, -999, -999]	n/a	catFR1	2	R1683A
384.862	0.008	421447	WORD_OFF	n/a	n/a	PENCIL	OfficeSupplies	12	2	[0, 0, 0]	n/a	catFR1	2	R1683A
384.87	0.0	421447	ENCODING_END	n/a	n/a	n/a	n/a	-999	2	[0, 0, 0]	n/a	catFR1	2	R1683A
384.87	5.508	421447	DISTRACT_START	n/a	n/a	n/a	n/a	-999	2	[0, 0, 0]	n/a	catFR1	2	R1683A
390.378	4.583	426954	PROB	4.583	n/a	n/a	n/a	-999	2	[7, 3, 5]	15	catFR1	2	R1683A
394.961	7.492	431537	PROB	7.492	n/a	n/a	n/a	-999	2	[1, 5, 7]	13	catFR1	2	R1683A
402.453	4.169	439029	PROB	4.169	n/a	n/a	n/a	-999	2	[7, 7, 4]	18	catFR1	2	R1683A
406.622	0.0	443198	STOP	n/a	n/a	n/a	n/a	-999	2	[-999, -999, -999]	n/a	catFR1	2	R1683A
406.622	2.206	443205	DISTRACT_END	n/a	n/a	n/a	n/a	-999	2	[0, 0, 0]	n/a	catFR1	2	R1683A
408.828	1.712	445407	REC_START	n/a	n/a	n/a	n/a	-999	2	[0, 0, 0]	n/a	catFR1	2	R1683A
410.54	2.064	447116	REC_WORD	2.064	n/a	PLIERS	Tools	7	2	[0, 0, 0]	n/a	catFR1	2	R1683A
412.604	1.368	449180	REC_WORD	1.368	n/a	WINDOW	Building	10	2	[0, 0, 0]	n/a	catFR1	2	R1683A
413.972	3.182	450548	REC_WORD	3.182	n/a	DOOR	Building	9	2	[0, 0, 0]	n/a	catFR1	2	R1683A
417.154	3.232	453730	REC_WORD	3.232	n/a	FOUNDATION	Building	6	2	[0, 0, 0]	n/a	catFR1	2	R1683A
420.386	3.29	456962	REC_WORD	3.29	n/a	ROOF	Building	5	2	[0, 0, 0]	n/a	catFR1	2	R1683A
423.676	1.0	460252	REC_WORD_VV	1.0	n/a	<>	n/a	-999	2	[0, 0, 0]	n/a	catFR1	2	R1683A
424.676	2.702	461252	REC_WORD_VV	2.702	n/a	<>	n/a	-999	2	[0, 0, 0]	n/a	catFR1	2	R1683A
427.378	5.242	463954	REC_WORD	5.242	n/a	HAMMER	Tools	8	2	[0, 0, 0]	n/a	catFR1	2	R1683A
432.62	0.962	469196	REC_WORD_VV	0.962	n/a	<>	n/a	-999	2	[0, 0, 0]	n/a	catFR1	2	R1683A
433.582	1.016	470158	REC_WORD	1.016	n/a	SANDER	Tools	-999	2	[0, 0, 0]	n/a	catFR1	2	R1683A
434.598	4.37	471174	REC_WORD_VV	4.37	n/a	<>	n/a	-999	2	[0, 0, 0]	n/a	catFR1	2	R1683A
438.968	16.743	475549	REC_END	n/a	n/a	n/a	n/a	-999	2	[0, 0, 0]	n/a	catFR1	2	R1683A
455.711	10.341	492293	COUNTDOWN_START	n/a	n/a	n/a	n/a	-999	3	[0, 0, 0]	n/a	catFR1	2	R1683A
466.052	0.0	502627	COUNTDOWN_END	n/a	n/a	n/a	n/a	-999	3	[0, 0, 0]	n/a	catFR1	2	R1683A
466.052	2.05	502627	ENCODING_START	n/a	n/a	n/a	n/a	-999	3	[0, 0, 0]	n/a	catFR1	2	R1683A
468.102	1.608	504676	WORD	n/a	wordpools/wordpool_categorized_EN.txt	HILLS	Landscapes	1	3	[0, 0, 0]	n/a	catFR1	2	R1683A
469.71	0.785	506290	WORD_OFF	n/a	n/a	HILLS	Landscapes	1	3	[0, 0, 0]	n/a	catFR1	2	R1683A
470.495	1.608	507075	WORD	n/a	wordpools/wordpool_categorized_EN.txt	LAKE	Landscapes	2	3	[0, 0, 0]	n/a	catFR1	2	R1683A
472.103	0.825	508677	WORD_OFF	n/a	n/a	LAKE	Landscapes	2	3	[0, 0, 0]	n/a	catFR1	2	R1683A
472.928	1.601	509506	WORD	n/a	wordpools/wordpool_categorized_EN.txt	DESK	Furniture	3	3	[0, 0, 0]	n/a	catFR1	2	R1683A
474.529	0.807	511108	WORD_OFF	n/a	n/a	DESK	Furniture	3	3	[0, 0, 0]	n/a	catFR1	2	R1683A
475.336	1.601	511915	WORD	n/a	wordpools/wordpool_categorized_EN.txt	TABLE	Furniture	4	3	[0, 0, 0]	n/a	catFR1	2	R1683A
476.937	0.857	513517	WORD_OFF	n/a	n/a	TABLE	Furniture	4	3	[0, 0, 0]	n/a	catFR1	2	R1683A
477.794	1.601	514368	WORD	n/a	wordpools/wordpool_categorized_EN.txt	ATTIC	Building	5	3	[0, 0, 0]	n/a	catFR1	2	R1683A
479.395	0.858	515970	WORD_OFF	n/a	n/a	ATTIC	Building	5	3	[0, 0, 0]	n/a	catFR1	2	R1683A
480.253	1.607	516831	WORD	n/a	wordpools/wordpool_categorized_EN.txt	STAIRS	Building	6	3	[0, 0, 0]	n/a	catFR1	2	R1683A
481.86	0.784	518434	WORD_OFF	n/a	n/a	STAIRS	Building	6	3	[0, 0, 0]	n/a	catFR1	2	R1683A
482.644	1.6	519218	WORD	n/a	wordpools/wordpool_categorized_EN.txt	STREAM	Landscapes	7	3	[0, 0, 0]	n/a	catFR1	2	R1683A
484.244	0.843	520821	WORD_OFF	n/a	n/a	STREAM	Landscapes	7	3	[0, 0, 0]	n/a	catFR1	2	R1683A
485.087	1.608	521671	WORD	n/a	wordpools/wordpool_categorized_EN.txt	RIVER	Landscapes	8	3	[0, 0, 0]	n/a	catFR1	2	R1683A
486.695	0.95	523274	WORD_OFF	n/a	n/a	RIVER	Landscapes	8	3	[0, 0, 0]	n/a	catFR1	2	R1683A
487.645	1.6	524222	WORD	n/a	wordpools/wordpool_categorized_EN.txt	ROOM	Building	9	3	[0, 0, 0]	n/a	catFR1	2	R1683A
489.245	0.907	525825	WORD_OFF	n/a	n/a	ROOM	Building	9	3	[0, 0, 0]	n/a	catFR1	2	R1683A
490.152	1.601	526729	WORD	n/a	wordpools/wordpool_categorized_EN.txt	BATHROOM	Building	10	3	[0, 0, 0]	n/a	catFR1	2	R1683A
491.753	0.934	528332	WORD_OFF	n/a	n/a	BATHROOM	Building	10	3	[0, 0, 0]	n/a	catFR1	2	R1683A
492.687	1.606	529269	WORD	n/a	wordpools/wordpool_categorized_EN.txt	DRESSER	Furniture	11	3	[0, 0, 0]	n/a	catFR1	2	R1683A
494.293	0.792	530872	WORD_OFF	n/a	n/a	DRESSER	Furniture	11	3	[0, 0, 0]	n/a	catFR1	2	R1683A
495.085	1.61	531668	WORD	n/a	wordpools/wordpool_categorized_EN.txt	SHELF	Furniture	12	3	[0, 0, 0]	n/a	catFR1	2	R1683A
496.695	0.003	533270	WORD_OFF	n/a	n/a	SHELF	Furniture	12	3	[0, 0, 0]	n/a	catFR1	2	R1683A
496.698	0.0	533270	ENCODING_END	n/a	n/a	n/a	n/a	-999	3	[0, 0, 0]	n/a	catFR1	2	R1683A
496.695	0.003	533271	PROB	0.003	n/a	n/a	n/a	-999	3	[8, 5, 7]	20	catFR1	2	R1683A
496.698	0.0	533274	START	n/a	n/a	n/a	n/a	-999	3	[-999, -999, -999]	n/a	catFR1	2	R1683A
496.698	20.039	533281	DISTRACT_START	n/a	n/a	n/a	n/a	-999	3	[0, 0, 0]	n/a	catFR1	2	R1683A
516.737	0.0	553313	STOP	n/a	n/a	n/a	n/a	-999	3	[-999, -999, -999]	n/a	catFR1	2	R1683A
516.737	2.183	553317	DISTRACT_END	n/a	n/a	n/a	n/a	-999	3	[0, 0, 0]	n/a	catFR1	2	R1683A
518.92	3.894	555497	REC_START	n/a	n/a	n/a	n/a	-999	3	[0, 0, 0]	n/a	catFR1	2	R1683A
522.814	1.107	559390	REC_WORD	1.107	n/a	LAKE	Landscapes	2	3	[0, 0, 0]	n/a	catFR1	2	R1683A
523.921	1.439	560497	REC_WORD	1.439	n/a	HILLS	Landscapes	1	3	[0, 0, 0]	n/a	catFR1	2	R1683A
525.36	4.174	561936	REC_WORD	4.174	n/a	RIVER	Landscapes	8	3	[0, 0, 0]	n/a	catFR1	2	R1683A
529.534	2.45	566109	REC_WORD	2.45	n/a	STREAM	Landscapes	7	3	[0, 0, 0]	n/a	catFR1	2	R1683A
531.984	0.844	568559	REC_WORD	0.844	n/a	ATTIC	Building	5	3	[0, 0, 0]	n/a	catFR1	2	R1683A
532.828	1.14	569403	REC_WORD	1.14	n/a	STAIRS	Building	6	3	[0, 0, 0]	n/a	catFR1	2	R1683A
533.968	1.388	570543	REC_WORD	1.388	n/a	ROOM	Building	9	3	[0, 0, 0]	n/a	catFR1	2	R1683A
535.356	1.206	571931	REC_WORD	1.206	n/a	DRESSER	Furniture	11	3	[0, 0, 0]	n/a	catFR1	2	R1683A
536.562	7.785	573137	REC_WORD	7.785	n/a	BATHROOM	Building	10	3	[0, 0, 0]	n/a	catFR1	2	R1683A
544.347	2.359	580922	REC_WORD_VV	2.359	n/a	<>	n/a	-999	3	[0, 0, 0]	n/a	catFR1	2	R1683A
546.706	0.309	583281	REC_WORD	0.309	n/a	STAIRS	Building	6	3	[0, 0, 0]	n/a	catFR1	2	R1683A
547.015	0.343	583590	REC_WORD	0.343	n/a	ROOM	Building	9	3	[0, 0, 0]	n/a	catFR1	2	R1683A
547.358	1.707	583933	REC_WORD	1.707	n/a	DRESSER	Furniture	11	3	[0, 0, 0]	n/a	catFR1	2	R1683A
549.065	6.295	585639	REC_END	n/a	n/a	n/a	n/a	-999	3	[0, 0, 0]	n/a	catFR1	2	R1683A
555.36	10.342	591940	COUNTDOWN_START	n/a	n/a	n/a	n/a	-999	4	[0, 0, 0]	n/a	catFR1	2	R1683A
565.702	0.0	602274	COUNTDOWN_END	n/a	n/a	n/a	n/a	-999	4	[0, 0, 0]	n/a	catFR1	2	R1683A
565.702	2.118	602285	ENCODING_START	n/a	n/a	n/a	n/a	-999	4	[0, 0, 0]	n/a	catFR1	2	R1683A
567.82	1.6	604400	WORD	n/a	wordpools/wordpool_categorized_EN.txt	ORANGUTAN	Zoo	1	4	[0, 0, 0]	n/a	catFR1	2	R1683A
569.42	0.84	606002	WORD_OFF	n/a	n/a	ORANGUTAN	Zoo	1	4	[0, 0, 0]	n/a	catFR1	2	R1683A
570.26	1.61	606841	WORD	n/a	wordpools/wordpool_categorized_EN.txt	CHIMPANZEE	Zoo	2	4	[0, 0, 0]	n/a	catFR1	2	R1683A
571.87	0.867	608444	WORD_OFF	n/a	n/a	CHIMPANZEE	Zoo	2	4	[0, 0, 0]	n/a	catFR1	2	R1683A
572.737	1.608	609316	WORD	n/a	wordpools/wordpool_categorized_EN.txt	CABINET	Furniture	3	4	[0, 0, 0]	n/a	catFR1	2	R1683A
574.345	0.975	610918	WORD_OFF	n/a	n/a	CABINET	Furniture	3	4	[0, 0, 0]	n/a	catFR1	2	R1683A
575.32	1.6	611900	WORD	n/a	wordpools/wordpool_categorized_EN.txt	SOFA	Furniture	4	4	[0, 0, 0]	n/a	catFR1	2	R1683A
576.92	0.8	613502	WORD_OFF	n/a	n/a	SOFA	Furniture	4	4	[0, 0, 0]	n/a	catFR1	2	R1683A
577.72	1.608	614298	WORD	n/a	wordpools/wordpool_categorized_EN.txt	WASHER	Appliances	5	4	[0, 0, 0]	n/a	catFR1	2	R1683A
579.328	0.767	615911	WORD_OFF	n/a	n/a	WASHER	Appliances	5	4	[0, 0, 0]	n/a	catFR1	2	R1683A
580.095	1.608	616674	WORD	n/a	wordpools/wordpool_categorized_EN.txt	REFRIGERATOR	Appliances	6	4	[0, 0, 0]	n/a	catFR1	2	R1683A
581.703	0.816	618277	WORD_OFF	n/a	n/a	REFRIGERATOR	Appliances	6	4	[0, 0, 0]	n/a	catFR1	2	R1683A
582.519	1.601	619094	WORD	n/a	wordpools/wordpool_categorized_EN.txt	GORILLA	Zoo	7	4	[0, 0, 0]	n/a	catFR1	2	R1683A
584.12	0.773	620697	WORD_OFF	n/a	n/a	GORILLA	Zoo	7	4	[0, 0, 0]	n/a	catFR1	2	R1683A
584.893	1.6	621471	WORD	n/a	wordpools/wordpool_categorized_EN.txt	TIGER	Zoo	8	4	[0, 0, 0]	n/a	catFR1	2	R1683A
586.493	0.961	623073	WORD_OFF	n/a	n/a	TIGER	Zoo	8	4	[0, 0, 0]	n/a	catFR1	2	R1683A
587.454	1.608	624032	WORD	n/a	wordpools/wordpool_categorized_EN.txt	CHAIR	Furniture	9	4	[0, 0, 0]	n/a	catFR1	2	R1683A
589.062	0.966	625635	WORD_OFF	n/a	n/a	CHAIR	Furniture	9	4	[0, 0, 0]	n/a	catFR1	2	R1683A
590.028	1.6	626605	WORD	n/a	wordpools/wordpool_categorized_EN.txt	RECLINER	Furniture	10	4	[0, 0, 0]	n/a	catFR1	2	R1683A
591.628	0.974	628208	WORD_OFF	n/a	n/a	RECLINER	Furniture	10	4	[0, 0, 0]	n/a	catFR1	2	R1683A
592.602	1.6	629178	WORD	n/a	wordpools/wordpool_categorized_EN.txt	VACUUM	Appliances	11	4	[0, 0, 0]	n/a	catFR1	2	R1683A
594.202	0.834	630780	WORD_OFF	n/a	n/a	VACUUM	Appliances	11	4	[0, 0, 0]	n/a	catFR1	2	R1683A
595.036	1.601	631609	WORD	n/a	wordpools/wordpool_categorized_EN.txt	STOVE	Appliances	12	4	[0, 0, 0]	n/a	catFR1	2	R1683A
596.637	0.004	633212	PROB	0.004	n/a	n/a	n/a	-999	4	[5, 5, 4]	14	catFR1	2	R1683A
596.641	0.0	633216	START	n/a	n/a	n/a	n/a	-999	4	[-999, -999, -999]	n/a	catFR1	2	R1683A
596.637	0.004	633222	WORD_OFF	n/a	n/a	STOVE	Appliances	12	4	[0, 0, 0]	n/a	catFR1	2	R1683A
596.641	0.0	633222	ENCODING_END	n/a	n/a	n/a	n/a	-999	4	[0, 0, 0]	n/a	catFR1	2	R1683A
596.641	3.47	633222	DISTRACT_START	n/a	n/a	n/a	n/a	-999	4	[0, 0, 0]	n/a	catFR1	2	R1683A
600.111	5.2	636686	PROB	5.2	n/a	n/a	n/a	-999	4	[5, 3, 8]	16	catFR1	2	R1683A
605.311	5.068	641886	PROB	5.068	n/a	n/a	n/a	-999	4	[3, 4, 1]	8	catFR1	2	R1683A
610.379	3.291	646954	PROB	3.291	n/a	n/a	n/a	-999	4	[8, 7, 3]	18	catFR1	2	R1683A
613.67	3.707	650245	PROB	3.707	n/a	n/a	n/a	-999	4	[3, 1, 4]	8	catFR1	2	R1683A
617.377	0.0	653952	STOP	n/a	n/a	n/a	n/a	-999	4	[-999, -999, -999]	n/a	catFR1	2	R1683A
617.377	2.067	653956	DISTRACT_END	n/a	n/a	n/a	n/a	-999	4	[0, 0, 0]	n/a	catFR1	2	R1683A
619.444	0.993	656016	REC_START	n/a	n/a	n/a	n/a	-999	4	[0, 0, 0]	n/a	catFR1	2	R1683A
620.437	1.432	657012	REC_WORD	1.432	n/a	ORANGUTAN	Zoo	1	4	[0, 0, 0]	n/a	catFR1	2	R1683A
621.869	3.692	658444	REC_WORD	3.692	n/a	CHIMPANZEE	Zoo	2	4	[0, 0, 0]	n/a	catFR1	2	R1683A
625.561	1.527	662136	REC_WORD	1.527	n/a	STOVE	Appliances	12	4	[0, 0, 0]	n/a	catFR1	2	R1683A
627.088	1.443	663663	REC_WORD	1.443	n/a	CHAIR	Furniture	9	4	[0, 0, 0]	n/a	catFR1	2	R1683A
628.531	3.199	665106	REC_WORD	3.199	n/a	RECLINER	Furniture	10	4	[0, 0, 0]	n/a	catFR1	2	R1683A
631.73	4.095	668305	REC_WORD	4.095	n/a	REFRIGERATOR	Appliances	6	4	[0, 0, 0]	n/a	catFR1	2	R1683A
635.825	4.586	672400	REC_WORD	4.586	n/a	TIGER	Zoo	8	4	[0, 0, 0]	n/a	catFR1	2	R1683A
640.411	1.0	676986	REC_WORD_VV	1.0	n/a	<>	n/a	-999	4	[0, 0, 0]	n/a	catFR1	2	R1683A
641.411	5.832	677986	REC_WORD_VV	5.832	n/a	<>	n/a	-999	4	[0, 0, 0]	n/a	catFR1	2	R1683A
647.243	2.345	683818	REC_WORD_VV	2.345	n/a	<>	n/a	-999	4	[0, 0, 0]	n/a	catFR1	2	R1683A
649.588	3.855	686169	REC_END	n/a	n/a	n/a	n/a	-999	4	[0, 0, 0]	n/a	catFR1	2	R1683A
653.443	10.342	690017	COUNTDOWN_START	n/a	n/a	n/a	n/a	-999	5	[0, 0, 0]	n/a	catFR1	2	R1683A
663.785	0.0	700362	COUNTDOWN_END	n/a	n/a	n/a	n/a	-999	5	[0, 0, 0]	n/a	catFR1	2	R1683A
663.785	2.125	700362	ENCODING_START	n/a	n/a	n/a	n/a	-999	5	[0, 0, 0]	n/a	catFR1	2	R1683A
665.91	1.61	702488	WORD	n/a	wordpools/wordpool_categorized_EN.txt	ANT	Insects	1	5	[0, 0, 0]	n/a	catFR1	2	R1683A
667.52	0.807	704101	WORD_OFF	n/a	n/a	ANT	Insects	1	5	[0, 0, 0]	n/a	catFR1	2	R1683A
668.327	1.601	704908	WORD	n/a	wordpools/wordpool_categorized_EN.txt	BEETLE	Insects	2	5	[0, 0, 0]	n/a	catFR1	2	R1683A
669.928	0.909	706510	WORD_OFF	n/a	n/a	BEETLE	Insects	2	5	[0, 0, 0]	n/a	catFR1	2	R1683A
670.837	1.607	707415	WORD	n/a	wordpools/wordpool_categorized_EN.txt	COUCH	Furniture	3	5	[0, 0, 0]	n/a	catFR1	2	R1683A
672.444	0.799	709017	WORD_OFF	n/a	n/a	COUCH	Furniture	3	5	[0, 0, 0]	n/a	catFR1	2	R1683A
673.243	1.6	709824	WORD	n/a	wordpools/wordpool_categorized_EN.txt	BED	Furniture	4	5	[0, 0, 0]	n/a	catFR1	2	R1683A
674.843	0.786	711427	WORD_OFF	n/a	n/a	BED	Furniture	4	5	[0, 0, 0]	n/a	catFR1	2	R1683A
675.629	1.607	712211	WORD	n/a	wordpools/wordpool_categorized_EN.txt	JACKET	Clothing	5	5	[0, 0, 0]	n/a	catFR1	2	R1683A
677.236	0.807	713814	WORD_OFF	n/a	n/a	JACKET	Clothing	5	5	[0, 0, 0]	n/a	catFR1	2	R1683A
678.043	1.601	714621	WORD	n/a	wordpools/wordpool_categorized_EN.txt	SKIRT	Clothing	6	5	[0, 0, 0]	n/a	catFR1	2	R1683A
679.644	0.916	716223	WORD_OFF	n/a	n/a	SKIRT	Clothing	6	5	[0, 0, 0]	n/a	catFR1	2	R1683A
680.56	1.602	717139	WORD	n/a	wordpools/wordpool_categorized_EN.txt	MOTH	Insects	7	5	[0, 0, 0]	n/a	catFR1	2	R1683A
682.162	0.982	718741	WORD_OFF	n/a	n/a	MOTH	Insects	7	5	[0, 0, 0]	n/a	catFR1	2	R1683A
683.144	1.601	719722	WORD	n/a	wordpools/wordpool_categorized_EN.txt	BUTTERFLY	Insects	8	5	[0, 0, 0]	n/a	catFR1	2	R1683A
684.745	0.765	721325	WORD_OFF	n/a	n/a	BUTTERFLY	Insects	8	5	[0, 0, 0]	n/a	catFR1	2	R1683A
685.51	1.6	722088	WORD	n/a	wordpools/wordpool_categorized_EN.txt	DRESS	Clothing	9	5	[0, 0, 0]	n/a	catFR1	2	R1683A
687.11	0.977	723690	WORD_OFF	n/a	n/a	DRESS	Clothing	9	5	[0, 0, 0]	n/a	catFR1	2	R1683A
688.087	1.608	724660	WORD	n/a	wordpools/wordpool_categorized_EN.txt	SHORTS	Clothing	10	5	[0, 0, 0]	n/a	catFR1	2	R1683A
689.695	1.0	726274	WORD_OFF	n/a	n/a	SHORTS	Clothing	10	5	[0, 0, 0]	n/a	catFR1	2	R1683A
690.695	1.607	727277	WORD	n/a	wordpools/wordpool_categorized_EN.txt	NIGHTSTAND	Furniture	11	5	[0, 0, 0]	n/a	catFR1	2	R1683A
692.302	0.768	728879	WORD_OFF	n/a	n/a	NIGHTSTAND	Furniture	11	5	[0, 0, 0]	n/a	catFR1	2	R1683A
693.07	1.609	729653	WORD	n/a	wordpools/wordpool_categorized_EN.txt	BOOKCASE	Furniture	12	5	[0, 0, 0]	n/a	catFR1	2	R1683A
694.679	0.0	731254	PROB	0.0	n/a	n/a	n/a	-999	5	[5, 2, 8]	15	catFR1	2	R1683A
694.678	0.003	731256	WORD_OFF	n/a	n/a	BOOKCASE	Furniture	12	5	[0, 0, 0]	n/a	catFR1	2	R1683A
694.681	0.0	731256	ENCODING_END	n/a	n/a	n/a	n/a	-999	5	[0, 0, 0]	n/a	catFR1	2	R1683A
694.681	0.0	731256	DISTRACT_START	n/a	n/a	n/a	n/a	-999	5	[0, 0, 0]	n/a	catFR1	2	R1683A
694.681	3.255	731256	START	n/a	n/a	n/a	n/a	-999	5	[-999, -999, -999]	n/a	catFR1	2	R1683A
697.936	3.918	734511	PROB	3.918	n/a	n/a	n/a	-999	5	[6, 7, 6]	19	catFR1	2	R1683A
701.854	3.074	738429	PROB	3.074	n/a	n/a	n/a	-999	5	[1, 1, 8]	10	catFR1	2	R1683A
704.928	4.007	741503	PROB	4.007	n/a	n/a	n/a	-999	5	[4, 4, 3]	11	catFR1	2	R1683A
708.935	6.967	745510	PROB	6.967	n/a	n/a	n/a	-999	5	[6, 2, 5]	13	catFR1	2	R1683A
715.902	0.0	752477	STOP	n/a	n/a	n/a	n/a	-999	5	[-999, -999, -999]	n/a	catFR1	2	R1683A
715.902	2.31	752480	DISTRACT_END	n/a	n/a	n/a	n/a	-999	5	[0, 0, 0]	n/a	catFR1	2	R1683A
718.212	1.506	754791	REC_START	n/a	n/a	n/a	n/a	-999	5	[0, 0, 0]	n/a	catFR1	2	R1683A
719.718	2.099	756293	REC_WORD	2.099	n/a	BED	Furniture	4	5	[0, 0, 0]	n/a	catFR1	2	R1683A
721.817	1.443	758392	REC_WORD	1.443	n/a	SHORTS	Clothing	10	5	[0, 0, 0]	n/a	catFR1	2	R1683A
723.26	1.448	759835	REC_WORD	1.448	n/a	SKIRT	Clothing	6	5	[0, 0, 0]	n/a	catFR1	2	R1683A
724.708	1.548	761283	REC_WORD	1.548	n/a	PANTS	n/a	-999	5	[0, 0, 0]	n/a	catFR1	2	R1683A
726.256	5.411	762831	REC_WORD	5.411	n/a	NIGHTSTAND	Furniture	11	5	[0, 0, 0]	n/a	catFR1	2	R1683A
731.667	1.823	768242	REC_WORD_VV	1.823	n/a	<>	n/a	-999	5	[0, 0, 0]	n/a	catFR1	2	R1683A
733.49	1.773	770065	REC_WORD	1.773	n/a	COUCH	Furniture	3	5	[0, 0, 0]	n/a	catFR1	2	R1683A
735.263	2.388	771838	REC_WORD	2.388	n/a	STOVE	Appliances	-999	5	[0, 0, 0]	n/a	catFR1	2	R1683A
737.651	5.557	774226	REC_WORD	5.557	n/a	RECLINER	Furniture	-999	5	[0, 0, 0]	n/a	catFR1	2	R1683A
743.208	0.94	779782	REC_WORD_VV	0.94	n/a	<>	n/a	-999	5	[0, 0, 0]	n/a	catFR1	2	R1683A
744.148	2.045	780722	REC_WORD	2.045	n/a	ANT	Insects	1	5	[0, 0, 0]	n/a	catFR1	2	R1683A
746.193	1.378	782767	REC_WORD	1.378	n/a	BUTTERFLY	Insects	8	5	[0, 0, 0]	n/a	catFR1	2	R1683A
747.571	0.788	784145	REC_WORD	0.788	n/a	MOTH	Insects	7	5	[0, 0, 0]	n/a	catFR1	2	R1683A
748.359	10.418	784933	REC_END	n/a	n/a	n/a	n/a	-999	5	[0, 0, 0]	n/a	catFR1	2	R1683A
758.777	10.342	795354	COUNTDOWN_START	n/a	n/a	n/a	n/a	-999	6	[0, 0, 0]	n/a	catFR1	2	R1683A
769.119	0.0	805699	COUNTDOWN_END	n/a	n/a	n/a	n/a	-999	6	[0, 0, 0]	n/a	catFR1	2	R1683A
769.119	2.266	805699	ENCODING_START	n/a	n/a	n/a	n/a	-999	6	[0, 0, 0]	n/a	catFR1	2	R1683A
771.385	1.601	807956	WORD	n/a	wordpools/wordpool_categorized_EN.txt	TROMBONE	Instruments	1	6	[0, 0, 0]	n/a	catFR1	2	R1683A
772.986	0.834	809558	WORD_OFF	n/a	n/a	TROMBONE	Instruments	1	6	[0, 0, 0]	n/a	catFR1	2	R1683A
773.82	1.607	810398	WORD	n/a	wordpools/wordpool_categorized_EN.txt	BANJO	Instruments	2	6	[0, 0, 0]	n/a	catFR1	2	R1683A
775.427	1.001	812000	WORD_OFF	n/a	n/a	BANJO	Instruments	2	6	[0, 0, 0]	n/a	catFR1	2	R1683A
776.428	1.609	813003	WORD	n/a	wordpools/wordpool_categorized_EN.txt	LINEN	Fabric	3	6	[0, 0, 0]	n/a	catFR1	2	R1683A
778.037	0.973	814616	WORD_OFF	n/a	n/a	LINEN	Fabric	3	6	[0, 0, 0]	n/a	catFR1	2	R1683A
779.01	1.6	815586	WORD	n/a	wordpools/wordpool_categorized_EN.txt	SUEDE	Fabric	4	6	[0, 0, 0]	n/a	catFR1	2	R1683A
780.61	0.952	817189	WORD_OFF	n/a	n/a	SUEDE	Fabric	4	6	[0, 0, 0]	n/a	catFR1	2	R1683A
781.562	1.608	818137	WORD	n/a	wordpools/wordpool_categorized_EN.txt	LETTUCE	Vegetables	5	6	[0, 0, 0]	n/a	catFR1	2	R1683A
783.17	0.865	819751	WORD_OFF	n/a	n/a	LETTUCE	Vegetables	5	6	[0, 0, 0]	n/a	catFR1	2	R1683A
784.035	1.601	820612	WORD	n/a	wordpools/wordpool_categorized_EN.txt	CELERY	Vegetables	6	6	[0, 0, 0]	n/a	catFR1	2	R1683A
785.636	0.892	822214	WORD_OFF	n/a	n/a	CELERY	Vegetables	6	6	[0, 0, 0]	n/a	catFR1	2	R1683A
786.528	1.607	823108	WORD	n/a	wordpools/wordpool_categorized_EN.txt	WOOL	Fabric	7	6	[0, 0, 0]	n/a	catFR1	2	R1683A
788.135	0.876	824711	WORD_OFF	n/a	n/a	WOOL	Fabric	7	6	[0, 0, 0]	n/a	catFR1	2	R1683A
789.011	1.601	825583	WORD	n/a	wordpools/wordpool_categorized_EN.txt	COTTON	Fabric	8	6	[0, 0, 0]	n/a	catFR1	2	R1683A
790.612	0.759	827185	WORD_OFF	n/a	n/a	COTTON	Fabric	8	6	[0, 0, 0]	n/a	catFR1	2	R1683A
791.371	1.599	827948	WORD	n/a	wordpools/wordpool_categorized_EN.txt	BROCCOLI	Vegetables	9	6	[0, 0, 0]	n/a	catFR1	2	R1683A
792.97	0.944	829551	WORD_OFF	n/a	n/a	BROCCOLI	Vegetables	9	6	[0, 0, 0]	n/a	catFR1	2	R1683A
793.914	1.604	830488	WORD	n/a	wordpools/wordpool_categorized_EN.txt	CORN	Vegetables	10	6	[0, 0, 0]	n/a	catFR1	2	R1683A
795.518	0.918	832091	WORD_OFF	n/a	n/a	CORN	Vegetables	10	6	[0, 0, 0]	n/a	catFR1	2	R1683A
796.436	1.601	833017	WORD	n/a	wordpools/wordpool_categorized_EN.txt	TUBA	Instruments	11	6	[0, 0, 0]	n/a	catFR1	2	R1683A
798.037	0.814	834609	WORD_OFF	n/a	n/a	TUBA	Instruments	11	6	[0, 0, 0]	n/a	catFR1	2	R1683A
798.851	1.603	835426	WORD	n/a	wordpools/wordpool_categorized_EN.txt	DRUM	Instruments	12	6	[0, 0, 0]	n/a	catFR1	2	R1683A
800.454	0.0	837028	PROB	0.0	n/a	n/a	n/a	-999	6	[8, 6, 8]	20	catFR1	2	R1683A
800.453	0.003	837029	WORD_OFF	n/a	n/a	DRUM	Instruments	12	6	[0, 0, 0]	n/a	catFR1	2	R1683A
800.456	0.001	837029	ENCODING_END	n/a	n/a	n/a	n/a	-999	6	[0, 0, 0]	n/a	catFR1	2	R1683A
800.457	0.0	837029	DISTRACT_START	n/a	n/a	n/a	n/a	-999	6	[0, 0, 0]	n/a	catFR1	2	R1683A
800.457	8.512	837031	START	n/a	n/a	n/a	n/a	-999	6	[-999, -999, -999]	n/a	catFR1	2	R1683A
808.969	4.994	845543	PROB	4.994	n/a	n/a	n/a	-999	6	[1, 3, 2]	6	catFR1	2	R1683A
813.963	7.18	850537	PROB	7.18	n/a	n/a	n/a	-999	6	[3, 2, 6]	11	catFR1	2	R1683A
821.143	0.0	857717	STOP	n/a	n/a	n/a	n/a	-999	6	[-999, -999, -999]	n/a	catFR1	2	R1683A
821.143	2.343	857719	DISTRACT_END	n/a	n/a	n/a	n/a	-999	6	[0, 0, 0]	n/a	catFR1	2	R1683A
823.486	1.51	860063	REC_START	n/a	n/a	n/a	n/a	-999	6	[0, 0, 0]	n/a	catFR1	2	R1683A
824.996	1.605	861570	REC_WORD	1.605	n/a	TROMBONE	Instruments	1	6	[0, 0, 0]	n/a	catFR1	2	R1683A
826.601	6.26	863175	REC_WORD	6.26	n/a	TUBA	Instruments	11	6	[0, 0, 0]	n/a	catFR1	2	R1683A
832.861	1.081	869435	REC_WORD_VV	1.081	n/a	<>	n/a	-999	6	[0, 0, 0]	n/a	catFR1	2	R1683A
833.942	0.988	870516	REC_WORD	0.988	n/a	BROCCOLI	Vegetables	9	6	[0, 0, 0]	n/a	catFR1	2	R1683A
834.93	4.196	871504	REC_WORD	4.196	n/a	LETTUCE	Vegetables	5	6	[0, 0, 0]	n/a	catFR1	2	R1683A
839.126	1.0	875700	REC_WORD_VV	1.0	n/a	<>	n/a	-999	6	[0, 0, 0]	n/a	catFR1	2	R1683A
840.126	1.0	876700	REC_WORD_VV	1.0	n/a	<>	n/a	-999	6	[0, 0, 0]	n/a	catFR1	2	R1683A
841.126	0.635	877700	REC_WORD_VV	0.635	n/a	<>	n/a	-999	6	[0, 0, 0]	n/a	catFR1	2	R1683A
841.761	3.03	878335	REC_WORD_VV	3.03	n/a	<>	n/a	-999	6	[0, 0, 0]	n/a	catFR1	2	R1683A
844.791	3.662	881365	REC_WORD	3.662	n/a	DRUM	Instruments	12	6	[0, 0, 0]	n/a	catFR1	2	R1683A
848.453	4.165	885027	REC_WORD	4.165	n/a	CELERY	Vegetables	6	6	[0, 0, 0]	n/a	catFR1	2	R1683A
852.618	1.011	889192	REC_WORD	1.011	n/a	CARROT	n/a	-999	6	[0, 0, 0]	n/a	catFR1	2	R1683A
853.629	12.482	890204	REC_END	n/a	n/a	n/a	n/a	-999	6	[0, 0, 0]	n/a	catFR1	2	R1683A
866.111	10.349	902686	COUNTDOWN_START	n/a	n/a	n/a	n/a	-999	7	[0, 0, 0]	n/a	catFR1	2	R1683A
876.46	0.0	913031	COUNTDOWN_END	n/a	n/a	n/a	n/a	-999	7	[0, 0, 0]	n/a	catFR1	2	R1683A
876.46	2.192	913042	ENCODING_START	n/a	n/a	n/a	n/a	-999	7	[0, 0, 0]	n/a	catFR1	2	R1683A
878.652	1.61	915233	WORD	n/a	wordpools/wordpool_categorized_EN.txt	STRAWBERRY	Fruit	1	7	[0, 0, 0]	n/a	catFR1	2	R1683A
880.262	0.865	916836	WORD_OFF	n/a	n/a	STRAWBERRY	Fruit	1	7	[0, 0, 0]	n/a	catFR1	2	R1683A
881.127	1.6	917708	WORD	n/a	wordpools/wordpool_categorized_EN.txt	PLUM	Fruit	2	7	[0, 0, 0]	n/a	catFR1	2	R1683A
882.727	0.951	919299	WORD_OFF	n/a	n/a	PLUM	Fruit	2	7	[0, 0, 0]	n/a	catFR1	2	R1683A
883.678	1.6	920259	WORD	n/a	wordpools/wordpool_categorized_EN.txt	CAKE	Desserts	3	7	[0, 0, 0]	n/a	catFR1	2	R1683A
885.278	0.825	921850	WORD_OFF	n/a	n/a	CAKE	Desserts	3	7	[0, 0, 0]	n/a	catFR1	2	R1683A
886.103	1.609	922679	WORD	n/a	wordpools/wordpool_categorized_EN.txt	PUDDING	Desserts	4	7	[0, 0, 0]	n/a	catFR1	2	R1683A
887.712	0.806	924292	WORD_OFF	n/a	n/a	PUDDING	Desserts	4	7	[0, 0, 0]	n/a	catFR1	2	R1683A
888.518	1.601	925099	WORD	n/a	wordpools/wordpool_categorized_EN.txt	ROSE	Flowers	5	7	[0, 0, 0]	n/a	catFR1	2	R1683A
890.119	0.834	926701	WORD_OFF	n/a	n/a	ROSE	Flowers	5	7	[0, 0, 0]	n/a	catFR1	2	R1683A
890.953	1.609	927530	WORD	n/a	wordpools/wordpool_categorized_EN.txt	PETUNIA	Flowers	6	7	[0, 0, 0]	n/a	catFR1	2	R1683A
892.562	1.0	929143	WORD_OFF	n/a	n/a	PETUNIA	Flowers	6	7	[0, 0, 0]	n/a	catFR1	2	R1683A
893.562	1.606	930135	WORD	n/a	wordpools/wordpool_categorized_EN.txt	MOUSSE	Desserts	7	7	[0, 0, 0]	n/a	catFR1	2	R1683A
895.168	0.792	931748	WORD_OFF	n/a	n/a	MOUSSE	Desserts	7	7	[0, 0, 0]	n/a	catFR1	2	R1683A
895.96	1.602	932533	WORD	n/a	wordpools/wordpool_categorized_EN.txt	CUPCAKE	Desserts	8	7	[0, 0, 0]	n/a	catFR1	2	R1683A
897.562	0.808	934136	WORD_OFF	n/a	n/a	CUPCAKE	Desserts	8	7	[0, 0, 0]	n/a	catFR1	2	R1683A
898.37	1.608	934942	WORD	n/a	wordpools/wordpool_categorized_EN.txt	PEAR	Fruit	9	7	[0, 0, 0]	n/a	catFR1	2	R1683A
899.978	0.998	936556	WORD_OFF	n/a	n/a	PEAR	Fruit	9	7	[0, 0, 0]	n/a	catFR1	2	R1683A
900.976	1.6	937548	WORD	n/a	wordpools/wordpool_categorized_EN.txt	CHERRY	Fruit	10	7	[0, 0, 0]	n/a	catFR1	2	R1683A
902.576	0.836	939150	WORD_OFF	n/a	n/a	CHERRY	Fruit	10	7	[0, 0, 0]	n/a	catFR1	2	R1683A
903.412	1.608	939990	WORD	n/a	wordpools/wordpool_categorized_EN.txt	MARIGOLD	Flowers	11	7	[0, 0, 0]	n/a	catFR1	2	R1683A
905.02	0.917	941592	WORD_OFF	n/a	n/a	MARIGOLD	Flowers	11	7	[0, 0, 0]	n/a	catFR1	2	R1683A
905.937	1.608	942508	WORD	n/a	wordpools/wordpool_categorized_EN.txt	ORCHID	Flowers	12	7	[0, 0, 0]	n/a	catFR1	2	R1683A
907.545	0.0	944119	PROB	0.0	n/a	n/a	n/a	-999	7	[8, 5, 5]	18	catFR1	2	R1683A
907.545	0.0	944119	START	n/a	n/a	n/a	n/a	-999	7	[-999, -999, -999]	n/a	catFR1	2	R1683A
907.543	0.002	944121	WORD_OFF	n/a	n/a	ORCHID	Flowers	12	7	[0, 0, 0]	n/a	catFR1	2	R1683A
907.545	0.0	944121	ENCODING_END	n/a	n/a	n/a	n/a	-999	7	[0, 0, 0]	n/a	catFR1	2	R1683A
907.545	3.375	944121	DISTRACT_START	n/a	n/a	n/a	n/a	-999	7	[0, 0, 0]	n/a	catFR1	2	R1683A
910.92	2.232	947494	PROB	2.232	n/a	n/a	n/a	-999	7	[2, 5, 5]	12	catFR1	2	R1683A
913.152	3.034	949726	PROB	3.034	n/a	n/a	n/a	-999	7	[1, 7, 7]	15	catFR1	2	R1683A
916.186	10.159	952760	PROB	10.159	n/a	n/a	n/a	-999	7	[5, 7, 8]	19	catFR1	2	R1683A
926.345	4.57	962919	PROB	4.57	n/a	n/a	n/a	-999	7	[2, 4, 3]	9	catFR1	2	R1683A
930.915	0.0	967489	STOP	n/a	n/a	n/a	n/a	-999	7	[-999, -999, -999]	n/a	catFR1	2	R1683A
930.915	2.047	967493	DISTRACT_END	n/a	n/a	n/a	n/a	-999	7	[0, 0, 0]	n/a	catFR1	2	R1683A
932.962	1.81	969543	REC_START	n/a	n/a	n/a	n/a	-999	7	[0, 0, 0]	n/a	catFR1	2	R1683A
934.772	1.088	971346	REC_WORD	1.088	n/a	MARIGOLD	Flowers	11	7	[0, 0, 0]	n/a	catFR1	2	R1683A
935.86	1.13	972434	REC_WORD	1.13	n/a	PETUNIA	Flowers	6	7	[0, 0, 0]	n/a	catFR1	2	R1683A
936.99	1.352	973564	REC_WORD	1.352	n/a	ORCHID	Flowers	12	7	[0, 0, 0]	n/a	catFR1	2	R1683A
938.342	2.261	974916	REC_WORD	2.261	n/a	ROSE	Flowers	5	7	[0, 0, 0]	n/a	catFR1	2	R1683A
940.603	1.173	977177	REC_WORD	1.173	n/a	STRAWBERRY	Fruit	1	7	[0, 0, 0]	n/a	catFR1	2	R1683A
941.776	2.085	978350	REC_WORD	2.085	n/a	CHERRY	Fruit	10	7	[0, 0, 0]	n/a	catFR1	2	R1683A
943.861	1.351	980435	REC_WORD	1.351	n/a	CUPCAKE	Desserts	8	7	[0, 0, 0]	n/a	catFR1	2	R1683A
945.212	10.085	981786	REC_WORD	10.085	n/a	MOUSSE	Desserts	7	7	[0, 0, 0]	n/a	catFR1	2	R1683A
955.297	1.0	991870	REC_WORD_VV	1.0	n/a	<>	n/a	-999	7	[0, 0, 0]	n/a	catFR1	2	R1683A
956.297	4.072	992870	REC_WORD_VV	4.072	n/a	<>	n/a	-999	7	[0, 0, 0]	n/a	catFR1	2	R1683A
960.369	0.824	996942	REC_WORD	0.824	n/a	MARIGOLD	Flowers	11	7	[0, 0, 0]	n/a	catFR1	2	R1683A
961.193	1.903	997766	REC_WORD_VV	1.903	n/a	<>	n/a	-999	7	[0, 0, 0]	n/a	catFR1	2	R1683A
963.096	5.539	999673	REC_END	n/a	n/a	n/a	n/a	-999	7	[0, 0, 0]	n/a	catFR1	2	R1683A
968.635	10.35	1005211	COUNTDOWN_START	n/a	n/a	n/a	n/a	-999	8	[0, 0, 0]	n/a	catFR1	2	R1683A
978.985	0.0	1015556	COUNTDOWN_END	n/a	n/a	n/a	n/a	-999	8	[0, 0, 0]	n/a	catFR1	2	R1683A
978.985	2.26	1015567	ENCODING_START	n/a	n/a	n/a	n/a	-999	8	[0, 0, 0]	n/a	catFR1	2	R1683A
981.245	1.607	1017824	WORD	n/a	wordpools/wordpool_categorized_EN.txt	FORK	KitchenTools	1	8	[0, 0, 0]	n/a	catFR1	2	R1683A
982.852	0.776	1019426	WORD_OFF	n/a	n/a	FORK	KitchenTools	1	8	[0, 0, 0]	n/a	catFR1	2	R1683A
983.628	1.609	1020200	WORD	n/a	wordpools/wordpool_categorized_EN.txt	PEELER	KitchenTools	2	8	[0, 0, 0]	n/a	catFR1	2	R1683A
985.237	0.899	1021813	WORD_OFF	n/a	n/a	PEELER	KitchenTools	2	8	[0, 0, 0]	n/a	catFR1	2	R1683A
986.136	1.609	1022718	WORD	n/a	wordpools/wordpool_categorized_EN.txt	SILK	Fabric	3	8	[0, 0, 0]	n/a	catFR1	2	R1683A
987.745	0.906	1024321	WORD_OFF	n/a	n/a	SILK	Fabric	3	8	[0, 0, 0]	n/a	catFR1	2	R1683A
988.651	1.602	1025225	WORD	n/a	wordpools/wordpool_categorized_EN.txt	FLEECE	Fabric	4	8	[0, 0, 0]	n/a	catFR1	2	R1683A
990.253	0.909	1026828	WORD_OFF	n/a	n/a	FLEECE	Fabric	4	8	[0, 0, 0]	n/a	catFR1	2	R1683A
991.162	1.608	1027743	WORD	n/a	wordpools/wordpool_categorized_EN.txt	BALL	Toys	5	8	[0, 0, 0]	n/a	catFR1	2	R1683A
992.77	0.825	1029346	WORD_OFF	n/a	n/a	BALL	Toys	5	8	[0, 0, 0]	n/a	catFR1	2	R1683A
993.595	1.6	1030174	WORD	n/a	wordpools/wordpool_categorized_EN.txt	FRISBEE	Toys	6	8	[0, 0, 0]	n/a	catFR1	2	R1683A
995.195	0.783	1031777	WORD_OFF	n/a	n/a	FRISBEE	Toys	6	8	[0, 0, 0]	n/a	catFR1	2	R1683A
995.978	1.609	1032551	WORD	n/a	wordpools/wordpool_categorized_EN.txt	VELVET	Fabric	7	8	[0, 0, 0]	n/a	catFR1	2	R1683A
997.587	0.775	1034164	WORD_OFF	n/a	n/a	VELVET	Fabric	7	8	[0, 0, 0]	n/a	catFR1	2	R1683A
998.362	1.6	1034938	WORD	n/a	wordpools/wordpool_categorized_EN.txt	DENIM	Fabric	8	8	[0, 0, 0]	n/a	catFR1	2	R1683A
999.962	0.791	1036541	WORD_OFF	n/a	n/a	DENIM	Fabric	8	8	[0, 0, 0]	n/a	catFR1	2	R1683A
1000.753	1.609	1037326	WORD	n/a	wordpools/wordpool_categorized_EN.txt	KNIFE	KitchenTools	9	8	[0, 0, 0]	n/a	catFR1	2	R1683A
1002.362	0.99	1038939	WORD_OFF	n/a	n/a	KNIFE	KitchenTools	9	8	[0, 0, 0]	n/a	catFR1	2	R1683A
1003.352	1.601	1039931	WORD	n/a	wordpools/wordpool_categorized_EN.txt	WHISK	KitchenTools	10	8	[0, 0, 0]	n/a	catFR1	2	R1683A
1004.953	0.925	1041533	WORD_OFF	n/a	n/a	WHISK	KitchenTools	10	8	[0, 0, 0]	n/a	catFR1	2	R1683A
1005.878	1.609	1042460	WORD	n/a	wordpools/wordpool_categorized_EN.txt	BLOCKS	Toys	11	8	[0, 0, 0]	n/a	catFR1	2	R1683A
1007.487	0.756	1044062	WORD_OFF	n/a	n/a	BLOCKS	Toys	11	8	[0, 0, 0]	n/a	catFR1	2	R1683A
1008.243	1.601	1044815	WORD	n/a	wordpools/wordpool_categorized_EN.txt	DOLL	Toys	12	8	[0, 0, 0]	n/a	catFR1	2	R1683A
1009.844	0.002	1046417	WORD_OFF	n/a	n/a	DOLL	Toys	12	8	[0, 0, 0]	n/a	catFR1	2	R1683A
1009.846	0.0	1046417	ENCODING_END	n/a	n/a	n/a	n/a	-999	8	[0, 0, 0]	n/a	catFR1	2	R1683A
1009.845	0.001	1046418	PROB	0.001	n/a	n/a	n/a	-999	8	[5, 6, 3]	14	catFR1	2	R1683A
1009.846	0.0	1046419	START	n/a	n/a	n/a	n/a	-999	8	[-999, -999, -999]	n/a	catFR1	2	R1683A
1009.846	4.407	1046428	DISTRACT_START	n/a	n/a	n/a	n/a	-999	8	[0, 0, 0]	n/a	catFR1	2	R1683A
1014.253	5.675	1050826	PROB	5.675	n/a	n/a	n/a	-999	8	[7, 5, 1]	13	catFR1	2	R1683A
1019.928	3.407	1056501	PROB	3.407	n/a	n/a	n/a	-999	8	[1, 2, 7]	10	catFR1	2	R1683A
1023.335	3.417	1059908	PROB	3.417	n/a	n/a	n/a	-999	8	[7, 5, 5]	17	catFR1	2	R1683A
1026.752	4.308	1063325	PROB	4.308	n/a	n/a	n/a	-999	8	[8, 8, 8]	24	catFR1	2	R1683A
1031.06	0.0	1067631	DISTRACT_END	n/a	n/a	n/a	n/a	-999	8	[0, 0, 0]	n/a	catFR1	2	R1683A
1031.06	2.219	1067633	STOP	n/a	n/a	n/a	n/a	-999	8	[-999, -999, -999]	n/a	catFR1	2	R1683A
1033.279	3.437	1069854	REC_START	n/a	n/a	n/a	n/a	-999	8	[0, 0, 0]	n/a	catFR1	2	R1683A
1036.716	0.939	1073289	REC_WORD	0.939	n/a	DOLL	Toys	12	8	[0, 0, 0]	n/a	catFR1	2	R1683A
1037.655	2.711	1074228	REC_WORD	2.711	n/a	BLOCKS	Toys	11	8	[0, 0, 0]	n/a	catFR1	2	R1683A
1040.366	1.098	1076939	REC_WORD	1.098	n/a	WHISK	KitchenTools	10	8	[0, 0, 0]	n/a	catFR1	2	R1683A
1041.464	2.064	1078037	REC_WORD	2.064	n/a	KNIFE	KitchenTools	9	8	[0, 0, 0]	n/a	catFR1	2	R1683A
1043.528	1.129	1080101	REC_WORD	1.129	n/a	FORK	KitchenTools	1	8	[0, 0, 0]	n/a	catFR1	2	R1683A
1044.657	13.676	1081230	REC_WORD	13.676	n/a	PEELER	KitchenTools	2	8	[0, 0, 0]	n/a	catFR1	2	R1683A
1058.333	4.218	1094906	REC_WORD_VV	4.218	n/a	<>	n/a	-999	8	[0, 0, 0]	n/a	catFR1	2	R1683A
1062.551	0.873	1099124	REC_WORD_VV	0.873	n/a	<>	n/a	-999	8	[0, 0, 0]	n/a	catFR1	2	R1683A
1063.424	9.245	1099996	REC_END	n/a	n/a	n/a	n/a	-999	8	[0, 0, 0]	n/a	catFR1	2	R1683A
1072.669	10.341	1109251	COUNTDOWN_START	n/a	n/a	n/a	n/a	-999	9	[0, 0, 0]	n/a	catFR1	2	R1683A
1083.01	0.0	1119585	COUNTDOWN_END	n/a	n/a	n/a	n/a	-999	9	[0, 0, 0]	n/a	catFR1	2	R1683A
1083.01	2.176	1119585	ENCODING_START	n/a	n/a	n/a	n/a	-999	9	[0, 0, 0]	n/a	catFR1	2	R1683A
1085.186	1.601	1121765	WORD	n/a	wordpools/wordpool_categorized_EN.txt	ISLAND	Landscapes	1	9	[0, 0, 0]	n/a	catFR1	2	R1683A
1086.787	0.766	1123357	WORD_OFF	n/a	n/a	ISLAND	Landscapes	1	9	[0, 0, 0]	n/a	catFR1	2	R1683A
1087.553	1.608	1124131	WORD	n/a	wordpools/wordpool_categorized_EN.txt	OCEAN	Landscapes	2	9	[0, 0, 0]	n/a	catFR1	2	R1683A
1089.161	0.875	1125733	WORD_OFF	n/a	n/a	OCEAN	Landscapes	2	9	[0, 0, 0]	n/a	catFR1	2	R1683A
1090.036	1.601	1126616	WORD	n/a	wordpools/wordpool_categorized_EN.txt	SLINKY	Toys	3	9	[0, 0, 0]	n/a	catFR1	2	R1683A
1091.637	0.824	1128219	WORD_OFF	n/a	n/a	SLINKY	Toys	3	9	[0, 0, 0]	n/a	catFR1	2	R1683A
1092.461	1.601	1129036	WORD	n/a	wordpools/wordpool_categorized_EN.txt	MARBLES	Toys	4	9	[0, 0, 0]	n/a	catFR1	2	R1683A
1094.062	0.973	1130639	WORD_OFF	n/a	n/a	MARBLES	Toys	4	9	[0, 0, 0]	n/a	catFR1	2	R1683A
1095.035	1.602	1131609	WORD	n/a	wordpools/wordpool_categorized_EN.txt	DRIZZLE	Weather	5	9	[0, 0, 0]	n/a	catFR1	2	R1683A
1096.637	0.807	1133212	WORD_OFF	n/a	n/a	DRIZZLE	Weather	5	9	[0, 0, 0]	n/a	catFR1	2	R1683A
1097.444	1.608	1134018	WORD	n/a	wordpools/wordpool_categorized_EN.txt	CLOUD	Weather	6	9	[0, 0, 0]	n/a	catFR1	2	R1683A
1099.052	0.941	1135632	WORD_OFF	n/a	n/a	CLOUD	Weather	6	9	[0, 0, 0]	n/a	catFR1	2	R1683A
1099.993	1.601	1136569	WORD	n/a	wordpools/wordpool_categorized_EN.txt	WOODS	Landscapes	7	9	[0, 0, 0]	n/a	catFR1	2	R1683A
1101.594	0.791	1138172	WORD_OFF	n/a	n/a	WOODS	Landscapes	7	9	[0, 0, 0]	n/a	catFR1	2	R1683A
1102.385	1.6	1138956	WORD	n/a	wordpools/wordpool_categorized_EN.txt	CREEK	Landscapes	8	9	[0, 0, 0]	n/a	catFR1	2	R1683A
1103.985	0.851	1140559	WORD_OFF	n/a	n/a	CREEK	Landscapes	8	9	[0, 0, 0]	n/a	catFR1	2	R1683A
1104.836	1.6	1141409	WORD	n/a	wordpools/wordpool_categorized_EN.txt	SNOW	Weather	9	9	[0, 0, 0]	n/a	catFR1	2	R1683A
1106.436	0.908	1143012	WORD_OFF	n/a	n/a	SNOW	Weather	9	9	[0, 0, 0]	n/a	catFR1	2	R1683A
1107.344	1.601	1143916	WORD	n/a	wordpools/wordpool_categorized_EN.txt	THUNDERSTORM	Weather	10	9	[0, 0, 0]	n/a	catFR1	2	R1683A
1108.945	0.873	1145519	WORD_OFF	n/a	n/a	THUNDERSTORM	Weather	10	9	[0, 0, 0]	n/a	catFR1	2	R1683A
1109.818	1.61	1146391	WORD	n/a	wordpools/wordpool_categorized_EN.txt	DOLLHOUSE	Toys	11	9	[0, 0, 0]	n/a	catFR1	2	R1683A
1111.428	0.784	1148004	WORD_OFF	n/a	n/a	DOLLHOUSE	Toys	11	9	[0, 0, 0]	n/a	catFR1	2	R1683A
1112.212	1.607	1148789	WORD	n/a	wordpools/wordpool_categorized_EN.txt	BASKETBALL	Toys	12	9	[0, 0, 0]	n/a	catFR1	2	R1683A
1113.819	0.003	1150392	WORD_OFF	n/a	n/a	BASKETBALL	Toys	12	9	[0, 0, 0]	n/a	catFR1	2	R1683A
1113.822	0.0	1150392	ENCODING_END	n/a	n/a	n/a	n/a	-999	9	[0, 0, 0]	n/a	catFR1	2	R1683A
1113.819	0.003	1150392	PROB	0.003	n/a	n/a	n/a	-999	9	[3, 2, 3]	7	catFR1	2	R1683A
1113.822	0.0	1150395	START	n/a	n/a	n/a	n/a	-999	9	[-999, -999, -999]	n/a	catFR1	2	R1683A
1113.822	3.739	1150403	DISTRACT_START	n/a	n/a	n/a	n/a	-999	9	[0, 0, 0]	n/a	catFR1	2	R1683A
1117.561	6.575	1154134	PROB	6.575	n/a	n/a	n/a	-999	9	[8, 8, 2]	18	catFR1	2	R1683A
1124.136	3.492	1160709	PROB	3.492	n/a	n/a	n/a	-999	9	[4, 6, 8]	18	catFR1	2	R1683A
1127.628	2.942	1164201	PROB	2.942	n/a	n/a	n/a	-999	9	[3, 1, 1]	5	catFR1	2	R1683A
1130.57	4.681	1167143	PROB	4.681	n/a	n/a	n/a	-999	9	[6, 6, 1]	13	catFR1	2	R1683A
1135.251	0.0	1171823	DISTRACT_END	n/a	n/a	n/a	n/a	-999	9	[0, 0, 0]	n/a	catFR1	2	R1683A
1135.251	2.017	1171824	STOP	n/a	n/a	n/a	n/a	-999	9	[-999, -999, -999]	n/a	catFR1	2	R1683A
1137.268	1.647	1173840	REC_START	n/a	n/a	n/a	n/a	-999	9	[0, 0, 0]	n/a	catFR1	2	R1683A
1138.915	1.318	1175488	REC_WORD	1.318	n/a	THUNDERSTORM	Weather	10	9	[0, 0, 0]	n/a	catFR1	2	R1683A
1140.233	1.394	1176806	REC_WORD	1.394	n/a	MARBLES	Toys	4	9	[0, 0, 0]	n/a	catFR1	2	R1683A
1141.627	1.801	1178200	REC_WORD	1.801	n/a	SLINKY	Toys	3	9	[0, 0, 0]	n/a	catFR1	2	R1683A
1143.428	2.861	1180001	REC_WORD	2.861	n/a	OCEAN	Landscapes	2	9	[0, 0, 0]	n/a	catFR1	2	R1683A
1146.289	1.366	1182862	REC_WORD	1.366	n/a	ISLAND	Landscapes	1	9	[0, 0, 0]	n/a	catFR1	2	R1683A
1147.655	1.091	1184228	REC_WORD	1.091	n/a	RIVER	Landscapes	-999	9	[0, 0, 0]	n/a	catFR1	2	R1683A
1148.746	2.627	1185319	REC_WORD	2.627	n/a	SNOW	Weather	9	9	[0, 0, 0]	n/a	catFR1	2	R1683A
1151.373	5.656	1187946	REC_WORD	5.656	n/a	CREEK	Landscapes	8	9	[0, 0, 0]	n/a	catFR1	2	R1683A
1157.029	10.391	1193602	REC_WORD	10.391	n/a	DOLL	Toys	-999	9	[0, 0, 0]	n/a	catFR1	2	R1683A
1167.42	6.148	1203992	REC_END	n/a	n/a	n/a	n/a	-999	9	[0, 0, 0]	n/a	catFR1	2	R1683A
1173.568	10.342	1210141	COUNTDOWN_START	n/a	n/a	n/a	n/a	-999	10	[0, 0, 0]	n/a	catFR1	2	R1683A
1183.91	0.0	1220486	COUNTDOWN_END	n/a	n/a	n/a	n/a	-999	10	[0, 0, 0]	n/a	catFR1	2	R1683A
1183.91	2.184	1220486	ENCODING_START	n/a	n/a	n/a	n/a	-999	10	[0, 0, 0]	n/a	catFR1	2	R1683A
1186.094	1.601	1222666	WORD	n/a	wordpools/wordpool_categorized_EN.txt	CYPRESS	Trees	1	10	[0, 0, 0]	n/a	catFR1	2	R1683A
1187.695	0.907	1224268	WORD_OFF	n/a	n/a	CYPRESS	Trees	1	10	[0, 0, 0]	n/a	catFR1	2	R1683A
1188.602	1.601	1225173	WORD	n/a	wordpools/wordpool_categorized_EN.txt	ELM	Trees	2	10	[0, 0, 0]	n/a	catFR1	2	R1683A
1190.203	0.808	1226776	WORD_OFF	n/a	n/a	ELM	Trees	2	10	[0, 0, 0]	n/a	catFR1	2	R1683A
1191.011	1.609	1227582	WORD	n/a	wordpools/wordpool_categorized_EN.txt	WIND	Weather	3	10	[0, 0, 0]	n/a	catFR1	2	R1683A
1192.62	0.926	1229196	WORD_OFF	n/a	n/a	WIND	Weather	3	10	[0, 0, 0]	n/a	catFR1	2	R1683A
1193.546	1.607	1230122	WORD	n/a	wordpools/wordpool_categorized_EN.txt	THUNDER	Weather	4	10	[0, 0, 0]	n/a	catFR1	2	R1683A
1195.153	0.775	1231725	WORD_OFF	n/a	n/a	THUNDER	Weather	4	10	[0, 0, 0]	n/a	catFR1	2	R1683A
1195.928	1.6	1232499	WORD	n/a	wordpools/wordpool_categorized_EN.txt	BANANA	Fruit	5	10	[0, 0, 0]	n/a	catFR1	2	R1683A
1197.528	0.866	1234101	WORD_OFF	n/a	n/a	BANANA	Fruit	5	10	[0, 0, 0]	n/a	catFR1	2	R1683A
1198.394	1.601	1234973	WORD	n/a	wordpools/wordpool_categorized_EN.txt	GRAPE	Fruit	6	10	[0, 0, 0]	n/a	catFR1	2	R1683A
1199.995	0.773	1236576	WORD_OFF	n/a	n/a	GRAPE	Fruit	6	10	[0, 0, 0]	n/a	catFR1	2	R1683A
1200.768	1.601	1237339	WORD	n/a	wordpools/wordpool_categorized_EN.txt	RAIN	Weather	7	10	[0, 0, 0]	n/a	catFR1	2	R1683A
1202.369	0.817	1238941	WORD_OFF	n/a	n/a	RAIN	Weather	7	10	[0, 0, 0]	n/a	catFR1	2	R1683A
1203.186	1.6	1239759	WORD	n/a	wordpools/wordpool_categorized_EN.txt	TORNADO	Weather	8	10	[0, 0, 0]	n/a	catFR1	2	R1683A
1204.786	0.901	1241361	WORD_OFF	n/a	n/a	TORNADO	Weather	8	10	[0, 0, 0]	n/a	catFR1	2	R1683A
1205.687	1.607	1242266	WORD	n/a	wordpools/wordpool_categorized_EN.txt	ORANGE	Fruit	9	10	[0, 0, 0]	n/a	catFR1	2	R1683A
1207.294	0.835	1243869	WORD_OFF	n/a	n/a	ORANGE	Fruit	9	10	[0, 0, 0]	n/a	catFR1	2	R1683A
1208.129	1.607	1244708	WORD	n/a	wordpools/wordpool_categorized_EN.txt	BLUEBERRY	Fruit	10	10	[0, 0, 0]	n/a	catFR1	2	R1683A
1209.736	0.959	1246310	WORD_OFF	n/a	n/a	BLUEBERRY	Fruit	10	10	[0, 0, 0]	n/a	catFR1	2	R1683A
1210.695	1.6	1247270	WORD	n/a	wordpools/wordpool_categorized_EN.txt	OAK	Trees	11	10	[0, 0, 0]	n/a	catFR1	2	R1683A
1212.295	0.981	1248872	WORD_OFF	n/a	n/a	OAK	Trees	11	10	[0, 0, 0]	n/a	catFR1	2	R1683A
1213.276	1.602	1249853	WORD	n/a	wordpools/wordpool_categorized_EN.txt	BIRCH	Trees	12	10	[0, 0, 0]	n/a	catFR1	2	R1683A
1214.878	0.004	1251450	PROB	0.004	n/a	n/a	n/a	-999	10	[5, 3, 5]	13	catFR1	2	R1683A
1214.882	0.0	1251454	START	n/a	n/a	n/a	n/a	-999	10	[-999, -999, -999]	n/a	catFR1	2	R1683A
1214.879	0.003	1251456	WORD_OFF	n/a	n/a	BIRCH	Trees	12	10	[0, 0, 0]	n/a	catFR1	2	R1683A
1214.882	0.0	1251456	ENCODING_END	n/a	n/a	n/a	n/a	-999	10	[0, 0, 0]	n/a	catFR1	2	R1683A
1214.882	3.938	1251456	DISTRACT_START	n/a	n/a	n/a	n/a	-999	10	[0, 0, 0]	n/a	catFR1	2	R1683A
1218.82	3.016	1255392	PROB	3.016	n/a	n/a	n/a	-999	10	[3, 1, 3]	7	catFR1	2	R1683A
1221.836	4.425	1258408	PROB	4.425	n/a	n/a	n/a	-999	10	[1, 5, 7]	13	catFR1	2	R1683A
1226.261	2.983	1262833	PROB	2.983	n/a	n/a	n/a	-999	10	[4, 6, 4]	14	catFR1	2	R1683A
1229.244	4.051	1265816	PROB	4.051	n/a	n/a	n/a	-999	10	[8, 3, 5]	16	catFR1	2	R1683A
1233.295	3.531	1269867	PROB	3.531	n/a	n/a	n/a	-999	10	[6, 5, 6]	17	catFR1	2	R1683A
1236.826	0.0	1273398	STOP	n/a	n/a	n/a	n/a	-999	10	[-999, -999, -999]	n/a	catFR1	2	R1683A
1236.826	2.386	1273400	DISTRACT_END	n/a	n/a	n/a	n/a	-999	10	[0, 0, 0]	n/a	catFR1	2	R1683A
1239.212	0.847	1275787	REC_START	n/a	n/a	n/a	n/a	-999	10	[0, 0, 0]	n/a	catFR1	2	R1683A
1240.059	1.72	1276631	REC_WORD	1.72	n/a	CYPRESS	Trees	1	10	[0, 0, 0]	n/a	catFR1	2	R1683A
1241.779	1.426	1278351	REC_WORD	1.426	n/a	ELM	Trees	2	10	[0, 0, 0]	n/a	catFR1	2	R1683A
1243.205	2.493	1279777	REC_WORD	2.493	n/a	BIRCH	Trees	12	10	[0, 0, 0]	n/a	catFR1	2	R1683A
1245.698	1.859	1282270	REC_WORD	1.859	n/a	TORNADO	Weather	8	10	[0, 0, 0]	n/a	catFR1	2	R1683A
1247.557	4.172	1284129	REC_WORD	4.172	n/a	THUNDER	Weather	4	10	[0, 0, 0]	n/a	catFR1	2	R1683A
1251.729	1.515	1288301	REC_WORD	1.515	n/a	ORANGE	Fruit	9	10	[0, 0, 0]	n/a	catFR1	2	R1683A
1253.244	10.154	1289816	REC_WORD	10.154	n/a	BLUEBERRY	Fruit	10	10	[0, 0, 0]	n/a	catFR1	2	R1683A
1263.398	1.053	1299970	REC_WORD_VV	1.053	n/a	<>	n/a	-999	10	[0, 0, 0]	n/a	catFR1	2	R1683A
1264.451	1.495	1301023	REC_WORD_VV	1.495	n/a	<>	n/a	-999	10	[0, 0, 0]	n/a	catFR1	2	R1683A
1265.946	3.413	1302518	REC_WORD	3.413	n/a	THUNDER	Weather	4	10	[0, 0, 0]	n/a	catFR1	2	R1683A
1269.359	4.734	1305928	REC_END	n/a	n/a	n/a	n/a	-999	10	[0, 0, 0]	n/a	catFR1	2	R1683A
1274.093	10.351	1310670	COUNTDOWN_START	n/a	n/a	n/a	n/a	-999	11	[0, 0, 0]	n/a	catFR1	2	R1683A
1284.444	0.0	1321016	COUNTDOWN_END	n/a	n/a	n/a	n/a	-999	11	[0, 0, 0]	n/a	catFR1	2	R1683A
1284.444	1.817	1321016	ENCODING_START	n/a	n/a	n/a	n/a	-999	11	[0, 0, 0]	n/a	catFR1	2	R1683A
1286.261	1.601	1322836	WORD	n/a	wordpools/wordpool_categorized_EN.txt	CHEESECAKE	Desserts	1	11	[0, 0, 0]	n/a	catFR1	2	R1683A
1287.862	1.0	1324438	WORD_OFF	n/a	n/a	CHEESECAKE	Desserts	1	11	[0, 0, 0]	n/a	catFR1	2	R1683A
1288.862	1.6	1325441	WORD	n/a	wordpools/wordpool_categorized_EN.txt	PIE	Desserts	2	11	[0, 0, 0]	n/a	catFR1	2	R1683A
1290.462	0.782	1327033	WORD_OFF	n/a	n/a	PIE	Desserts	2	11	[0, 0, 0]	n/a	catFR1	2	R1683A
1291.244	1.599	1327818	WORD	n/a	wordpools/wordpool_categorized_EN.txt	LEVEL	Tools	3	11	[0, 0, 0]	n/a	catFR1	2	R1683A
1292.843	1.002	1329420	WORD_OFF	n/a	n/a	LEVEL	Tools	3	11	[0, 0, 0]	n/a	catFR1	2	R1683A
1293.845	1.6	1330423	WORD	n/a	wordpools/wordpool_categorized_EN.txt	DRILL	Tools	4	11	[0, 0, 0]	n/a	catFR1	2	R1683A
1295.445	1.0	1332015	WORD_OFF	n/a	n/a	DRILL	Tools	4	11	[0, 0, 0]	n/a	catFR1	2	R1683A
1296.445	1.602	1333018	WORD	n/a	wordpools/wordpool_categorized_EN.txt	COLANDER	KitchenTools	5	11	[0, 0, 0]	n/a	catFR1	2	R1683A
1298.047	0.907	1334620	WORD_OFF	n/a	n/a	COLANDER	KitchenTools	5	11	[0, 0, 0]	n/a	catFR1	2	R1683A
1298.954	1.608	1335525	WORD	n/a	wordpools/wordpool_categorized_EN.txt	SPOON	KitchenTools	6	11	[0, 0, 0]	n/a	catFR1	2	R1683A
1300.562	0.966	1337138	WORD_OFF	n/a	n/a	SPOON	KitchenTools	6	11	[0, 0, 0]	n/a	catFR1	2	R1683A
1301.528	1.609	1338098	WORD	n/a	wordpools/wordpool_categorized_EN.txt	BROWNIES	Desserts	7	11	[0, 0, 0]	n/a	catFR1	2	R1683A
1303.137	0.89	1339711	WORD_OFF	n/a	n/a	BROWNIES	Desserts	7	11	[0, 0, 0]	n/a	catFR1	2	R1683A
1304.027	1.601	1340605	WORD	n/a	wordpools/wordpool_categorized_EN.txt	PASTRY	Desserts	8	11	[0, 0, 0]	n/a	catFR1	2	R1683A
1305.628	0.908	1342207	WORD_OFF	n/a	n/a	PASTRY	Desserts	8	11	[0, 0, 0]	n/a	catFR1	2	R1683A
1306.536	1.6	1343112	WORD	n/a	wordpools/wordpool_categorized_EN.txt	SPATULA	KitchenTools	9	11	[0, 0, 0]	n/a	catFR1	2	R1683A
1308.136	0.892	1344714	WORD_OFF	n/a	n/a	SPATULA	KitchenTools	9	11	[0, 0, 0]	n/a	catFR1	2	R1683A
1309.028	1.609	1345608	WORD	n/a	wordpools/wordpool_categorized_EN.txt	STRAINER	KitchenTools	10	11	[0, 0, 0]	n/a	catFR1	2	R1683A
1310.637	0.949	1347211	WORD_OFF	n/a	n/a	STRAINER	KitchenTools	10	11	[0, 0, 0]	n/a	catFR1	2	R1683A
1311.586	1.601	1348159	WORD	n/a	wordpools/wordpool_categorized_EN.txt	CROWBAR	Tools	11	11	[0, 0, 0]	n/a	catFR1	2	R1683A
1313.187	0.807	1349762	WORD_OFF	n/a	n/a	CROWBAR	Tools	11	11	[0, 0, 0]	n/a	catFR1	2	R1683A
1313.994	1.601	1350568	WORD	n/a	wordpools/wordpool_categorized_EN.txt	SHOVEL	Tools	12	11	[0, 0, 0]	n/a	catFR1	2	R1683A
1315.595	0.0	1352167	PROB	0.0	n/a	n/a	n/a	-999	11	[4, 6, 4]	14	catFR1	2	R1683A
1315.595	0.004	1352171	WORD_OFF	n/a	n/a	SHOVEL	Tools	12	11	[0, 0, 0]	n/a	catFR1	2	R1683A
1315.599	0.0	1352171	ENCODING_END	n/a	n/a	n/a	n/a	-999	11	[0, 0, 0]	n/a	catFR1	2	R1683A
1315.599	0.0	1352171	DISTRACT_START	n/a	n/a	n/a	n/a	-999	11	[0, 0, 0]	n/a	catFR1	2	R1683A
1315.599	3.738	1352171	START	n/a	n/a	n/a	n/a	-999	11	[-999, -999, -999]	n/a	catFR1	2	R1683A
1319.337	3.615	1355909	PROB	3.615	n/a	n/a	n/a	-999	11	[2, 7, 3]	12	catFR1	2	R1683A
1322.952	4.634	1359524	PROB	4.634	n/a	n/a	n/a	-999	11	[6, 7, 6]	19	catFR1	2	R1683A
1327.586	2.868	1364158	PROB	2.868	n/a	n/a	n/a	-999	11	[2, 1, 2]	5	catFR1	2	R1683A
1330.454	4.04	1367026	PROB	4.04	n/a	n/a	n/a	-999	11	[8, 2, 7]	17	catFR1	2	R1683A
1334.494	9.149	1371066	PROB	9.149	n/a	n/a	n/a	-999	11	[6, 8, 5]	19	catFR1	2	R1683A
1343.643	0.0	1380215	STOP	n/a	n/a	n/a	n/a	-999	11	[-999, -999, -999]	n/a	catFR1	2	R1683A
1343.643	2.351	1380219	DISTRACT_END	n/a	n/a	n/a	n/a	-999	11	[0, 0, 0]	n/a	catFR1	2	R1683A
1345.994	1.233	1382574	REC_START	n/a	n/a	n/a	n/a	-999	11	[0, 0, 0]	n/a	catFR1	2	R1683A
1347.227	0.888	1383799	REC_WORD	0.888	n/a	COLANDER	KitchenTools	5	11	[0, 0, 0]	n/a	catFR1	2	R1683A
1348.115	2.565	1384687	REC_WORD	2.565	n/a	STRAINER	KitchenTools	10	11	[0, 0, 0]	n/a	catFR1	2	R1683A
1350.68	2.834	1387252	REC_WORD	2.834	n/a	CROWBAR	Tools	11	11	[0, 0, 0]	n/a	catFR1	2	R1683A
1353.514	3.161	1390086	REC_WORD	3.161	n/a	SPATULA	KitchenTools	9	11	[0, 0, 0]	n/a	catFR1	2	R1683A
1356.675	2.668	1393247	REC_WORD	2.668	n/a	CHEESECAKE	Desserts	1	11	[0, 0, 0]	n/a	catFR1	2	R1683A
1359.343	7.633	1395915	REC_WORD	7.633	n/a	PASTRY	Desserts	8	11	[0, 0, 0]	n/a	catFR1	2	R1683A
1366.976	9.167	1403548	REC_WORD_VV	9.167	n/a	<>	n/a	-999	11	[0, 0, 0]	n/a	catFR1	2	R1683A
1376.143	5.492	1412716	REC_END	n/a	n/a	n/a	n/a	-999	11	[0, 0, 0]	n/a	catFR1	2	R1683A
1381.635	10.343	1418210	COUNTDOWN_START	n/a	n/a	n/a	n/a	-999	12	[0, 0, 0]	n/a	catFR1	2	R1683A
1391.978	0.001	1428555	COUNTDOWN_END	n/a	n/a	n/a	n/a	-999	12	[0, 0, 0]	n/a	catFR1	2	R1683A
1391.979	2.332	1428555	ENCODING_START	n/a	n/a	n/a	n/a	-999	12	[0, 0, 0]	n/a	catFR1	2	R1683A
1394.311	1.608	1430888	WORD	n/a	wordpools/wordpool_categorized_EN.txt	HUMIDITY	Weather	1	12	[0, 0, 0]	n/a	catFR1	2	R1683A
1395.919	0.767	1432490	WORD_OFF	n/a	n/a	HUMIDITY	Weather	1	12	[0, 0, 0]	n/a	catFR1	2	R1683A
1396.686	1.609	1433264	WORD	n/a	wordpools/wordpool_categorized_EN.txt	FOG	Weather	2	12	[0, 0, 0]	n/a	catFR1	2	R1683A
1398.295	0.882	1434867	WORD_OFF	n/a	n/a	FOG	Weather	2	12	[0, 0, 0]	n/a	catFR1	2	R1683A
1399.177	1.601	1435750	WORD	n/a	wordpools/wordpool_categorized_EN.txt	GRATER	KitchenTools	3	12	[0, 0, 0]	n/a	catFR1	2	R1683A
1400.778	0.875	1437352	WORD_OFF	n/a	n/a	GRATER	KitchenTools	3	12	[0, 0, 0]	n/a	catFR1	2	R1683A
1401.653	1.607	1438224	WORD	n/a	wordpools/wordpool_categorized_EN.txt	TONGS	KitchenTools	4	12	[0, 0, 0]	n/a	catFR1	2	R1683A
1403.26	0.81	1439837	WORD_OFF	n/a	n/a	TONGS	KitchenTools	4	12	[0, 0, 0]	n/a	catFR1	2	R1683A
1404.07	1.607	1440644	WORD	n/a	wordpools/wordpool_categorized_EN.txt	MAPLE	Trees	5	12	[0, 0, 0]	n/a	catFR1	2	R1683A
1405.677	0.876	1442247	WORD_OFF	n/a	n/a	MAPLE	Trees	5	12	[0, 0, 0]	n/a	catFR1	2	R1683A
1406.553	1.6	1443130	WORD	n/a	wordpools/wordpool_categorized_EN.txt	CEDAR	Trees	6	12	[0, 0, 0]	n/a	catFR1	2	R1683A
1408.153	1.0	1444732	WORD_OFF	n/a	n/a	CEDAR	Trees	6	12	[0, 0, 0]	n/a	catFR1	2	R1683A
1409.153	1.6	1445724	WORD	n/a	wordpools/wordpool_categorized_EN.txt	CORKSCREW	KitchenTools	7	12	[0, 0, 0]	n/a	catFR1	2	R1683A
1410.753	0.792	1447326	WORD_OFF	n/a	n/a	CORKSCREW	KitchenTools	7	12	[0, 0, 0]	n/a	catFR1	2	R1683A
1411.545	1.608	1448122	WORD	n/a	wordpools/wordpool_categorized_EN.txt	LADLE	KitchenTools	8	12	[0, 0, 0]	n/a	catFR1	2	R1683A
1413.153	0.992	1449725	WORD_OFF	n/a	n/a	LADLE	KitchenTools	8	12	[0, 0, 0]	n/a	catFR1	2	R1683A
1414.145	1.599	1450717	WORD	n/a	wordpools/wordpool_categorized_EN.txt	WILLOW	Trees	9	12	[0, 0, 0]	n/a	catFR1	2	R1683A
1415.744	0.874	1452319	WORD_OFF	n/a	n/a	WILLOW	Trees	9	12	[0, 0, 0]	n/a	catFR1	2	R1683A
1416.618	1.6	1453191	WORD	n/a	wordpools/wordpool_categorized_EN.txt	PINE	Trees	10	12	[0, 0, 0]	n/a	catFR1	2	R1683A
1418.218	0.917	1454794	WORD_OFF	n/a	n/a	PINE	Trees	10	12	[0, 0, 0]	n/a	catFR1	2	R1683A
1419.135	1.6	1455709	WORD	n/a	wordpools/wordpool_categorized_EN.txt	LIGHTNING	Weather	11	12	[0, 0, 0]	n/a	catFR1	2	R1683A
1420.735	0.926	1457312	WORD_OFF	n/a	n/a	LIGHTNING	Weather	11	12	[0, 0, 0]	n/a	catFR1	2	R1683A
1421.661	1.609	1458238	WORD	n/a	wordpools/wordpool_categorized_EN.txt	HURRICANE	Weather	12	12	[0, 0, 0]	n/a	catFR1	2	R1683A
1423.27	0.0	1459841	WORD_OFF	n/a	n/a	HURRICANE	Weather	12	12	[0, 0, 0]	n/a	catFR1	2	R1683A
1423.27	0.003	1459841	PROB	0.003	n/a	n/a	n/a	-999	12	[1, 1, 7]	9	catFR1	2	R1683A
1423.273	0.0	1459844	START	n/a	n/a	n/a	n/a	-999	12	[-999, -999, -999]	n/a	catFR1	2	R1683A
1423.273	0.0	1459852	ENCODING_END	n/a	n/a	n/a	n/a	-999	12	[0, 0, 0]	n/a	catFR1	2	R1683A
1423.273	5.688	1459852	DISTRACT_START	n/a	n/a	n/a	n/a	-999	12	[0, 0, 0]	n/a	catFR1	2	R1683A
1428.961	2.308	1465532	PROB	2.308	n/a	n/a	n/a	-999	12	[3, 1, 7]	11	catFR1	2	R1683A
1431.269	2.05	1467840	PROB	2.05	n/a	n/a	n/a	-999	12	[3, 3, 3]	9	catFR1	2	R1683A
1433.319	5.508	1469890	PROB	5.508	n/a	n/a	n/a	-999	12	[7, 6, 5]	18	catFR1	2	R1683A
1438.827	3.317	1475398	PROB	3.317	n/a	n/a	n/a	-999	12	[2, 8, 2]	12	catFR1	2	R1683A
1442.144	3.457	1478715	PROB	3.457	n/a	n/a	n/a	-999	12	[8, 1, 4]	13	catFR1	2	R1683A
1445.601	0.0	1482172	STOP	n/a	n/a	n/a	n/a	-999	12	[-999, -999, -999]	n/a	catFR1	2	R1683A
1445.601	2.376	1482177	DISTRACT_END	n/a	n/a	n/a	n/a	-999	12	[0, 0, 0]	n/a	catFR1	2	R1683A
1447.977	2.19	1484554	REC_START	n/a	n/a	n/a	n/a	-999	12	[0, 0, 0]	n/a	catFR1	2	R1683A
1450.167	2.093	1486738	REC_WORD	2.093	n/a	LADLE	KitchenTools	8	12	[0, 0, 0]	n/a	catFR1	2	R1683A
1452.26	1.0	1488831	REC_WORD_VV	1.0	n/a	<>	n/a	-999	12	[0, 0, 0]	n/a	catFR1	2	R1683A
1453.26	0.998	1489831	REC_WORD_VV	0.998	n/a	<>	n/a	-999	12	[0, 0, 0]	n/a	catFR1	2	R1683A
1454.258	2.228	1490829	REC_WORD	2.228	n/a	PINE	Trees	10	12	[0, 0, 0]	n/a	catFR1	2	R1683A
1456.486	2.804	1493057	REC_WORD_VV	2.804	n/a	<>	n/a	-999	12	[0, 0, 0]	n/a	catFR1	2	R1683A
1459.29	2.723	1495861	REC_WORD	2.723	n/a	LIGHTNING	Weather	11	12	[0, 0, 0]	n/a	catFR1	2	R1683A
1462.013	0.942	1498584	REC_WORD	0.942	n/a	THUNDER	Weather	-999	12	[0, 0, 0]	n/a	catFR1	2	R1683A
1462.955	1.399	1499526	REC_WORD	1.399	n/a	THUNDERSTORM	Weather	-999	12	[0, 0, 0]	n/a	catFR1	2	R1683A
1464.354	4.64	1500925	REC_WORD_VV	4.64	n/a	<>	n/a	-999	12	[0, 0, 0]	n/a	catFR1	2	R1683A
1468.994	7.496	1505565	REC_WORD_VV	7.496	n/a	<>	n/a	-999	12	[0, 0, 0]	n/a	catFR1	2	R1683A
1476.49	1.256	1513061	REC_WORD	1.256	n/a	CORKSCREW	KitchenTools	7	12	[0, 0, 0]	n/a	catFR1	2	R1683A
1477.746	0.379	1514317	REC_WORD	0.379	n/a	GRATER	KitchenTools	3	12	[0, 0, 0]	n/a	catFR1	2	R1683A
1478.125	0.0	1514695	REC_END	n/a	n/a	n/a	n/a	-999	12	[0, 0, 0]	n/a	catFR1	2	R1683A
