onset	duration	sample	trial_type	response_time	stim_file	item_name	category	serialpos	list	test	answer	experiment	session	subject
0.0	1.101	165730	INSTRUCT_START	n/a	n/a	n/a	n/a	-999	-999	[0, 0, 0]	n/a	catFR1	5	R1501J
1.101	26.532	166827	INSTRUCT_END	n/a	n/a	n/a	n/a	-999	-999	[0, 0, 0]	n/a	catFR1	5	R1501J
27.633	10.349	193360	COUNTDOWN_START	n/a	n/a	n/a	n/a	-999	-999	[0, 0, 0]	n/a	catFR1	5	R1501J
37.982	0.0	203716	COUNTDOWN_END	n/a	n/a	n/a	n/a	-999	-999	[0, 0, 0]	n/a	catFR1	5	R1501J
37.982	2.05	203716	ENCODING_START	n/a	n/a	n/a	n/a	-999	-1	[0, 0, 0]	n/a	catFR1	5	R1501J
40.032	1.601	205767	WORD	n/a	n/a	TORNADO	Weather	1	-1	[0, 0, 0]	n/a	catFR1	5	R1501J
41.633	0.948	207367	WORD_OFF	n/a	n/a	TORNADO	Weather	1	-1	[0, 0, 0]	n/a	catFR1	5	R1501J
42.581	1.601	208306	WORD	n/a	n/a	LIGHTNING	Weather	2	-1	[0, 0, 0]	n/a	catFR1	5	R1501J
44.182	0.967	209907	WORD_OFF	n/a	n/a	LIGHTNING	Weather	2	-1	[0, 0, 0]	n/a	catFR1	5	R1501J
45.149	1.617	210872	WORD	n/a	n/a	FLUTE	Instruments	3	-1	[0, 0, 0]	n/a	catFR1	5	R1501J
46.766	0.867	212499	WORD_OFF	n/a	n/a	FLUTE	Instruments	3	-1	[0, 0, 0]	n/a	catFR1	5	R1501J
47.633	1.615	213359	WORD	n/a	n/a	BANJO	Instruments	4	-1	[0, 0, 0]	n/a	catFR1	5	R1501J
49.248	0.817	214972	WORD_OFF	n/a	n/a	BANJO	Instruments	4	-1	[0, 0, 0]	n/a	catFR1	5	R1501J
50.065	1.616	215792	WORD	n/a	n/a	HAWK	Birds	5	-1	[0, 0, 0]	n/a	catFR1	5	R1501J
51.681	0.784	217406	WORD_OFF	n/a	n/a	HAWK	Birds	5	-1	[0, 0, 0]	n/a	catFR1	5	R1501J
52.465	1.616	218200	WORD	n/a	n/a	FINCH	Birds	6	-1	[0, 0, 0]	n/a	catFR1	5	R1501J
54.081	0.8	219813	WORD_OFF	n/a	n/a	FINCH	Birds	6	-1	[0, 0, 0]	n/a	catFR1	5	R1501J
54.881	1.601	220607	WORD	n/a	n/a	RAIN	Weather	7	-1	[0, 0, 0]	n/a	catFR1	5	R1501J
56.482	0.867	222207	WORD_OFF	n/a	n/a	RAIN	Weather	7	-1	[0, 0, 0]	n/a	catFR1	5	R1501J
57.349	1.616	223080	WORD	n/a	n/a	CLOUD	Weather	8	-1	[0, 0, 0]	n/a	catFR1	5	R1501J
58.965	0.801	224694	WORD_OFF	n/a	n/a	CLOUD	Weather	8	-1	[0, 0, 0]	n/a	catFR1	5	R1501J
59.766	1.6	225501	WORD	n/a	n/a	DUCK	Birds	9	-1	[0, 0, 0]	n/a	catFR1	5	R1501J
61.366	0.932	227101	WORD_OFF	n/a	n/a	DUCK	Birds	9	-1	[0, 0, 0]	n/a	catFR1	5	R1501J
62.298	1.601	228027	WORD	n/a	n/a	BLUEBIRD	Birds	10	-1	[0, 0, 0]	n/a	catFR1	5	R1501J
63.899	0.833	229628	WORD_OFF	n/a	n/a	BLUEBIRD	Birds	10	-1	[0, 0, 0]	n/a	catFR1	5	R1501J
64.732	1.616	230461	WORD	n/a	n/a	ORGAN	Instruments	11	-1	[0, 0, 0]	n/a	catFR1	5	R1501J
66.348	0.9	232074	WORD_OFF	n/a	n/a	ORGAN	Instruments	11	-1	[0, 0, 0]	n/a	catFR1	5	R1501J
67.248	1.601	232974	WORD	n/a	n/a	TRUMPET	Instruments	12	-1	[0, 0, 0]	n/a	catFR1	5	R1501J
68.849	0.002	234574	WORD_OFF	n/a	n/a	TRUMPET	Instruments	12	-1	[0, 0, 0]	n/a	catFR1	5	R1501J
68.851	0.0	234574	ENCODING_END	n/a	n/a	n/a	n/a	-999	-1	[0, 0, 0]	n/a	catFR1	5	R1501J
68.851	0.0	234574	DISTRACT_START	n/a	n/a	n/a	n/a	-999	-1	[0, 0, 0]	n/a	catFR1	5	R1501J
68.85	0.001	234577	PROB	0.001	n/a	n/a	n/a	-999	-1	[6, 2, 8]	16	catFR1	5	R1501J
68.851	4.781	234578	START	n/a	n/a	n/a	n/a	-999	-1	[-999, -999, -999]	n/a	catFR1	5	R1501J
73.632	3.1	239359	PROB	3.1	n/a	n/a	n/a	-999	-1	[7, 7, 5]	19	catFR1	5	R1501J
76.732	5.534	242459	PROB	5.534	n/a	n/a	n/a	-999	-1	[2, 8, 1]	11	catFR1	5	R1501J
82.266	5.866	247992	PROB	5.866	n/a	n/a	n/a	-999	-1	[3, 2, 2]	7	catFR1	5	R1501J
88.132	4.182	253858	PROB	4.182	n/a	n/a	n/a	-999	-1	[2, 4, 1]	7	catFR1	5	R1501J
92.314	0.0	258038	DISTRACT_END	n/a	n/a	n/a	n/a	-999	-1	[0, 0, 0]	n/a	catFR1	5	R1501J
92.314	1.401	258040	STOP	n/a	n/a	n/a	n/a	-999	-1	[-999, -999, -999]	n/a	catFR1	5	R1501J
93.715	0.369	259440	REC_START	n/a	n/a	n/a	n/a	-999	-1	[0, 0, 0]	n/a	catFR1	5	R1501J
94.084	1.672	259810	REC_WORD	1.672	n/a	TORNADO	Weather	1	-1	[0, 0, 0]	n/a	catFR1	5	R1501J
95.756	1.597	261482	REC_WORD	1.597	n/a	BANJO	Instruments	4	-1	[0, 0, 0]	n/a	catFR1	5	R1501J
97.353	3.805	263079	REC_WORD	3.805	n/a	BLUEBIRD	Birds	10	-1	[0, 0, 0]	n/a	catFR1	5	R1501J
101.158	2.38	266884	REC_WORD_VV	2.38	n/a	<>	n/a	-999	-1	[0, 0, 0]	n/a	catFR1	5	R1501J
103.538	3.742	269264	REC_WORD	3.742	n/a	FLUTE	Instruments	3	-1	[0, 0, 0]	n/a	catFR1	5	R1501J
107.28	1.852	273005	REC_WORD	1.852	n/a	VOLCANO	n/a	-999	-1	[0, 0, 0]	n/a	catFR1	5	R1501J
109.132	1.61	274857	REC_WORD_VV	1.61	n/a	<>	n/a	-999	-1	[0, 0, 0]	n/a	catFR1	5	R1501J
110.742	3.147	276467	REC_WORD_VV	3.147	n/a	<>	n/a	-999	-1	[0, 0, 0]	n/a	catFR1	5	R1501J
113.889	5.788	279614	REC_WORD	5.788	n/a	FINCH	Birds	6	-1	[0, 0, 0]	n/a	catFR1	5	R1501J
119.677	2.209	285402	REC_WORD	2.209	n/a	BLUEJAY	n/a	-999	-1	[0, 0, 0]	n/a	catFR1	5	R1501J
121.886	1.471	287611	REC_WORD	1.471	n/a	BLUEBIRD	Birds	10	-1	[0, 0, 0]	n/a	catFR1	5	R1501J
123.357	1.565	289082	REC_WORD_VV	1.565	n/a	<>	n/a	-999	-1	[0, 0, 0]	n/a	catFR1	5	R1501J
124.922	5.51	290642	REC_END	n/a	n/a	n/a	n/a	-999	-1	[0, 0, 0]	n/a	catFR1	5	R1501J
130.432	10.349	296158	COUNTDOWN_START	n/a	n/a	n/a	n/a	-999	1	[0, 0, 0]	n/a	catFR1	5	R1501J
140.781	0.0	306501	COUNTDOWN_END	n/a	n/a	n/a	n/a	-999	1	[0, 0, 0]	n/a	catFR1	5	R1501J
140.781	2.201	306514	ENCODING_START	n/a	n/a	n/a	n/a	-999	1	[0, 0, 0]	n/a	catFR1	5	R1501J
142.982	1.617	308710	WORD	n/a	wordpools/wordpool_categorized_EN.txt	HORSE	FarmAnimals	1	1	[0, 0, 0]	n/a	catFR1	5	R1501J
144.599	0.933	310323	WORD_OFF	n/a	n/a	HORSE	FarmAnimals	1	1	[0, 0, 0]	n/a	catFR1	5	R1501J
145.532	1.616	311262	WORD	n/a	wordpools/wordpool_categorized_EN.txt	BULL	FarmAnimals	2	1	[0, 0, 0]	n/a	catFR1	5	R1501J
147.148	0.967	312876	WORD_OFF	n/a	n/a	BULL	FarmAnimals	2	1	[0, 0, 0]	n/a	catFR1	5	R1501J
148.115	1.6	313842	WORD	n/a	wordpools/wordpool_categorized_EN.txt	PINE	Trees	3	1	[0, 0, 0]	n/a	catFR1	5	R1501J
149.715	0.799	315442	WORD_OFF	n/a	n/a	PINE	Trees	3	1	[0, 0, 0]	n/a	catFR1	5	R1501J
150.514	1.601	316236	WORD	n/a	wordpools/wordpool_categorized_EN.txt	CEDAR	Trees	4	1	[0, 0, 0]	n/a	catFR1	5	R1501J
152.115	0.834	317836	WORD_OFF	n/a	n/a	CEDAR	Trees	4	1	[0, 0, 0]	n/a	catFR1	5	R1501J
152.949	1.615	318669	WORD	n/a	wordpools/wordpool_categorized_EN.txt	SOFA	Furniture	5	1	[0, 0, 0]	n/a	catFR1	5	R1501J
154.564	0.919	320283	WORD_OFF	n/a	n/a	SOFA	Furniture	5	1	[0, 0, 0]	n/a	catFR1	5	R1501J
155.483	1.616	321209	WORD	n/a	wordpools/wordpool_categorized_EN.txt	SHELF	Furniture	6	1	[0, 0, 0]	n/a	catFR1	5	R1501J
157.099	0.899	322822	WORD_OFF	n/a	n/a	SHELF	Furniture	6	1	[0, 0, 0]	n/a	catFR1	5	R1501J
157.998	1.6	323722	WORD	n/a	wordpools/wordpool_categorized_EN.txt	ELM	Trees	7	1	[0, 0, 0]	n/a	catFR1	5	R1501J
159.598	0.884	325322	WORD_OFF	n/a	n/a	ELM	Trees	7	1	[0, 0, 0]	n/a	catFR1	5	R1501J
160.482	1.6	326209	WORD	n/a	wordpools/wordpool_categorized_EN.txt	MAPLE	Trees	8	1	[0, 0, 0]	n/a	catFR1	5	R1501J
162.082	0.833	327809	WORD_OFF	n/a	n/a	MAPLE	Trees	8	1	[0, 0, 0]	n/a	catFR1	5	R1501J
162.915	1.6	328642	WORD	n/a	wordpools/wordpool_categorized_EN.txt	NIGHTSTAND	Furniture	9	1	[0, 0, 0]	n/a	catFR1	5	R1501J
164.515	0.816	330243	WORD_OFF	n/a	n/a	NIGHTSTAND	Furniture	9	1	[0, 0, 0]	n/a	catFR1	5	R1501J
165.331	1.6	331049	WORD	n/a	wordpools/wordpool_categorized_EN.txt	DESK	Furniture	10	1	[0, 0, 0]	n/a	catFR1	5	R1501J
166.931	1.002	332650	WORD_OFF	n/a	n/a	DESK	Furniture	10	1	[0, 0, 0]	n/a	catFR1	5	R1501J
167.933	1.6	333655	WORD	n/a	wordpools/wordpool_categorized_EN.txt	CHICKEN	FarmAnimals	11	1	[0, 0, 0]	n/a	catFR1	5	R1501J
169.533	0.817	335256	WORD_OFF	n/a	n/a	CHICKEN	FarmAnimals	11	1	[0, 0, 0]	n/a	catFR1	5	R1501J
170.35	1.616	336076	WORD	n/a	wordpools/wordpool_categorized_EN.txt	COW	FarmAnimals	12	1	[0, 0, 0]	n/a	catFR1	5	R1501J
171.966	0.002	337689	WORD_OFF	n/a	n/a	COW	FarmAnimals	12	1	[0, 0, 0]	n/a	catFR1	5	R1501J
171.968	0.0	337689	ENCODING_END	n/a	n/a	n/a	n/a	-999	1	[0, 0, 0]	n/a	catFR1	5	R1501J
171.968	0.0	337689	DISTRACT_START	n/a	n/a	n/a	n/a	-999	1	[0, 0, 0]	n/a	catFR1	5	R1501J
171.967	0.001	337690	PROB	0.001	n/a	n/a	n/a	-999	1	[6, 2, 8]	16	catFR1	5	R1501J
171.968	4.132	337691	START	n/a	n/a	n/a	n/a	-999	1	[-999, -999, -999]	n/a	catFR1	5	R1501J
176.1	2.75	341823	PROB	2.75	n/a	n/a	n/a	-999	1	[1, 2, 6]	9	catFR1	5	R1501J
178.85	9.334	344572	PROB	9.334	n/a	n/a	n/a	-999	1	[4, 5, 7]	16	catFR1	5	R1501J
188.184	10.382	353906	PROB	10.382	n/a	n/a	n/a	-999	1	[7, 8, 7]	24	catFR1	5	R1501J
198.566	0.0	364288	DISTRACT_END	n/a	n/a	n/a	n/a	-999	1	[0, 0, 0]	n/a	catFR1	5	R1501J
198.566	1.234	364288	STOP	n/a	n/a	n/a	n/a	-999	1	[-999, -999, -999]	n/a	catFR1	5	R1501J
199.8	4.136	365518	REC_START	n/a	n/a	n/a	n/a	-999	1	[0, 0, 0]	n/a	catFR1	5	R1501J
203.936	2.966	369657	REC_WORD	2.966	n/a	COW	FarmAnimals	12	1	[0, 0, 0]	n/a	catFR1	5	R1501J
206.902	6.737	372623	REC_WORD_VV	6.737	n/a	<>	n/a	-999	1	[0, 0, 0]	n/a	catFR1	5	R1501J
213.639	1.0	379360	REC_WORD	1.0	n/a	TORNADO	Weather	-999	1	[0, 0, 0]	n/a	catFR1	5	R1501J
214.639	1.544	380360	REC_WORD_VV	1.544	n/a	<>	n/a	-999	1	[0, 0, 0]	n/a	catFR1	5	R1501J
216.183	1.0	381904	REC_WORD_VV	1.0	n/a	<>	n/a	-999	1	[0, 0, 0]	n/a	catFR1	5	R1501J
217.183	6.833	382904	REC_WORD_VV	6.833	n/a	<>	n/a	-999	1	[0, 0, 0]	n/a	catFR1	5	R1501J
224.016	1.505	389737	REC_WORD	1.505	n/a	DESK	Furniture	10	1	[0, 0, 0]	n/a	catFR1	5	R1501J
225.521	5.5	391242	REC_WORD	5.5	n/a	CHAIR	n/a	-999	1	[0, 0, 0]	n/a	catFR1	5	R1501J
231.021	1.66	396746	REC_END	n/a	n/a	n/a	n/a	-999	1	[0, 0, 0]	n/a	catFR1	5	R1501J
232.681	10.351	398400	COUNTDOWN_START	n/a	n/a	n/a	n/a	-999	1	[0, 0, 0]	n/a	catFR1	5	R1501J
243.032	0.0	408756	COUNTDOWN_END	n/a	n/a	n/a	n/a	-999	1	[0, 0, 0]	n/a	catFR1	5	R1501J
243.032	2.265	408756	ENCODING_START	n/a	n/a	n/a	n/a	-999	2	[0, 0, 0]	n/a	catFR1	5	R1501J
245.297	1.602	411018	WORD	n/a	wordpools/wordpool_categorized_EN.txt	PAPER	OfficeSupplies	1	2	[0, 0, 0]	n/a	catFR1	5	R1501J
246.899	0.8	412618	WORD_OFF	n/a	n/a	PAPER	OfficeSupplies	1	2	[0, 0, 0]	n/a	catFR1	5	R1501J
247.699	1.616	413425	WORD	n/a	wordpools/wordpool_categorized_EN.txt	ERASER	OfficeSupplies	2	2	[0, 0, 0]	n/a	catFR1	5	R1501J
249.315	0.9	415039	WORD_OFF	n/a	n/a	ERASER	OfficeSupplies	2	2	[0, 0, 0]	n/a	catFR1	5	R1501J
250.215	1.601	415938	WORD	n/a	wordpools/wordpool_categorized_EN.txt	PANTS	Clothing	3	2	[0, 0, 0]	n/a	catFR1	5	R1501J
251.816	0.932	417539	WORD_OFF	n/a	n/a	PANTS	Clothing	3	2	[0, 0, 0]	n/a	catFR1	5	R1501J
252.748	1.6	418464	WORD	n/a	wordpools/wordpool_categorized_EN.txt	JACKET	Clothing	4	2	[0, 0, 0]	n/a	catFR1	5	R1501J
254.348	0.85	420065	WORD_OFF	n/a	n/a	JACKET	Clothing	4	2	[0, 0, 0]	n/a	catFR1	5	R1501J
255.198	1.601	420925	WORD	n/a	wordpools/wordpool_categorized_EN.txt	ORANGUTAN	Zoo	5	2	[0, 0, 0]	n/a	catFR1	5	R1501J
256.799	0.783	422525	WORD_OFF	n/a	n/a	ORANGUTAN	Zoo	5	2	[0, 0, 0]	n/a	catFR1	5	R1501J
257.582	1.601	423305	WORD	n/a	wordpools/wordpool_categorized_EN.txt	BEAR	Zoo	6	2	[0, 0, 0]	n/a	catFR1	5	R1501J
259.183	0.815	424906	WORD_OFF	n/a	n/a	BEAR	Zoo	6	2	[0, 0, 0]	n/a	catFR1	5	R1501J
259.998	1.6	425713	WORD	n/a	wordpools/wordpool_categorized_EN.txt	BLOUSE	Clothing	7	2	[0, 0, 0]	n/a	catFR1	5	R1501J
261.598	0.766	427313	WORD_OFF	n/a	n/a	BLOUSE	Clothing	7	2	[0, 0, 0]	n/a	catFR1	5	R1501J
262.364	1.601	428080	WORD	n/a	wordpools/wordpool_categorized_EN.txt	SHOES	Clothing	8	2	[0, 0, 0]	n/a	catFR1	5	R1501J
263.965	0.916	429681	WORD_OFF	n/a	n/a	SHOES	Clothing	8	2	[0, 0, 0]	n/a	catFR1	5	R1501J
264.881	1.601	430606	WORD	n/a	wordpools/wordpool_categorized_EN.txt	PENCIL	OfficeSupplies	9	2	[0, 0, 0]	n/a	catFR1	5	R1501J
266.482	0.849	432207	WORD_OFF	n/a	n/a	PENCIL	OfficeSupplies	9	2	[0, 0, 0]	n/a	catFR1	5	R1501J
267.331	1.601	433053	WORD	n/a	wordpools/wordpool_categorized_EN.txt	NOTEBOOK	OfficeSupplies	10	2	[0, 0, 0]	n/a	catFR1	5	R1501J
268.932	0.767	434654	WORD_OFF	n/a	n/a	NOTEBOOK	OfficeSupplies	10	2	[0, 0, 0]	n/a	catFR1	5	R1501J
269.699	1.617	435421	WORD	n/a	wordpools/wordpool_categorized_EN.txt	MONKEY	Zoo	11	2	[0, 0, 0]	n/a	catFR1	5	R1501J
271.316	0.816	437035	WORD_OFF	n/a	n/a	MONKEY	Zoo	11	2	[0, 0, 0]	n/a	catFR1	5	R1501J
272.132	1.617	437855	WORD	n/a	wordpools/wordpool_categorized_EN.txt	ZEBRA	Zoo	12	2	[0, 0, 0]	n/a	catFR1	5	R1501J
273.749	0.001	439468	WORD_OFF	n/a	n/a	ZEBRA	Zoo	12	2	[0, 0, 0]	n/a	catFR1	5	R1501J
273.75	0.0	439468	ENCODING_END	n/a	n/a	n/a	n/a	-999	2	[0, 0, 0]	n/a	catFR1	5	R1501J
273.75	0.0	439468	DISTRACT_START	n/a	n/a	n/a	n/a	-999	2	[0, 0, 0]	n/a	catFR1	5	R1501J
273.749	0.001	439468	PROB	0.001	n/a	n/a	n/a	-999	2	[5, 3, 6]	14	catFR1	5	R1501J
273.75	5.198	439469	START	n/a	n/a	n/a	n/a	-999	2	[-999, -999, -999]	n/a	catFR1	5	R1501J
278.948	3.9	444666	PROB	3.9	n/a	n/a	n/a	-999	2	[3, 6, 4]	13	catFR1	5	R1501J
282.848	3.719	448566	PROB	3.719	n/a	n/a	n/a	-999	2	[5, 3, 8]	16	catFR1	5	R1501J
286.567	4.265	452285	PROB	4.265	n/a	n/a	n/a	-999	2	[4, 2, 6]	12	catFR1	5	R1501J
290.832	5.932	456550	PROB	5.932	n/a	n/a	n/a	-999	2	[8, 8, 8]	24	catFR1	5	R1501J
296.764	0.0	462482	STOP	n/a	n/a	n/a	n/a	-999	2	[-999, -999, -999]	n/a	catFR1	5	R1501J
296.764	1.085	462483	DISTRACT_END	n/a	n/a	n/a	n/a	-999	2	[0, 0, 0]	n/a	catFR1	5	R1501J
297.849	1.53	463567	REC_START	n/a	n/a	n/a	n/a	-999	2	[0, 0, 0]	n/a	catFR1	5	R1501J
299.379	2.709	465097	REC_WORD	2.709	n/a	ORANGUTAN	Zoo	5	2	[0, 0, 0]	n/a	catFR1	5	R1501J
302.088	1.681	467805	REC_WORD	1.681	n/a	PANTS	Clothing	3	2	[0, 0, 0]	n/a	catFR1	5	R1501J
303.769	2.516	469486	REC_WORD	2.516	n/a	BLOUSE	Clothing	7	2	[0, 0, 0]	n/a	catFR1	5	R1501J
306.285	6.462	472002	REC_WORD	6.462	n/a	MONKEY	Zoo	11	2	[0, 0, 0]	n/a	catFR1	5	R1501J
312.747	1.461	478464	REC_WORD	1.461	n/a	COW	FarmAnimals	-999	2	[0, 0, 0]	n/a	catFR1	5	R1501J
314.208	4.017	479925	REC_WORD	4.017	n/a	ZEBRA	Zoo	12	2	[0, 0, 0]	n/a	catFR1	5	R1501J
318.225	1.387	483942	REC_WORD	1.387	n/a	SHOES	Clothing	8	2	[0, 0, 0]	n/a	catFR1	5	R1501J
319.612	7.626	485329	REC_WORD	7.626	n/a	JACKET	Clothing	4	2	[0, 0, 0]	n/a	catFR1	5	R1501J
327.238	1.838	492954	REC_WORD	1.838	n/a	MONKEY	Zoo	11	2	[0, 0, 0]	n/a	catFR1	5	R1501J
329.076	1.757	494795	REC_END	n/a	n/a	n/a	n/a	-999	2	[0, 0, 0]	n/a	catFR1	5	R1501J
330.833	10.349	496555	COUNTDOWN_START	n/a	n/a	n/a	n/a	-999	2	[0, 0, 0]	n/a	catFR1	5	R1501J
341.182	0.001	506898	COUNTDOWN_END	n/a	n/a	n/a	n/a	-999	2	[0, 0, 0]	n/a	catFR1	5	R1501J
341.183	2.099	506898	ENCODING_START	n/a	n/a	n/a	n/a	-999	3	[0, 0, 0]	n/a	catFR1	5	R1501J
343.282	1.6	509001	WORD	n/a	wordpools/wordpool_categorized_EN.txt	COMPUTER	Electronics	1	3	[0, 0, 0]	n/a	catFR1	5	R1501J
344.882	1.001	510601	WORD_OFF	n/a	n/a	COMPUTER	Electronics	1	3	[0, 0, 0]	n/a	catFR1	5	R1501J
345.883	1.6	511593	WORD	n/a	wordpools/wordpool_categorized_EN.txt	TABLET	Electronics	2	3	[0, 0, 0]	n/a	catFR1	5	R1501J
347.483	0.965	513194	WORD_OFF	n/a	n/a	TABLET	Electronics	2	3	[0, 0, 0]	n/a	catFR1	5	R1501J
348.448	1.601	514159	WORD	n/a	wordpools/wordpool_categorized_EN.txt	UNDERWEAR	Clothing	3	3	[0, 0, 0]	n/a	catFR1	5	R1501J
350.049	0.932	515760	WORD_OFF	n/a	n/a	UNDERWEAR	Clothing	3	3	[0, 0, 0]	n/a	catFR1	5	R1501J
350.981	1.601	516699	WORD	n/a	wordpools/wordpool_categorized_EN.txt	SKIRT	Clothing	4	3	[0, 0, 0]	n/a	catFR1	5	R1501J
352.582	0.932	518299	WORD_OFF	n/a	n/a	SKIRT	Clothing	4	3	[0, 0, 0]	n/a	catFR1	5	R1501J
353.514	1.6	519225	WORD	n/a	wordpools/wordpool_categorized_EN.txt	DOLLHOUSE	Toys	5	3	[0, 0, 0]	n/a	catFR1	5	R1501J
355.114	0.867	520826	WORD_OFF	n/a	n/a	DOLLHOUSE	Toys	5	3	[0, 0, 0]	n/a	catFR1	5	R1501J
355.981	1.601	521698	WORD	n/a	wordpools/wordpool_categorized_EN.txt	DOLL	Toys	6	3	[0, 0, 0]	n/a	catFR1	5	R1501J
357.582	0.95	523299	WORD_OFF	n/a	n/a	DOLL	Toys	6	3	[0, 0, 0]	n/a	catFR1	5	R1501J
358.532	1.6	524251	WORD	n/a	wordpools/wordpool_categorized_EN.txt	CALCULATOR	Electronics	7	3	[0, 0, 0]	n/a	catFR1	5	R1501J
360.132	0.849	525852	WORD_OFF	n/a	n/a	CALCULATOR	Electronics	7	3	[0, 0, 0]	n/a	catFR1	5	R1501J
360.981	1.601	526698	WORD	n/a	wordpools/wordpool_categorized_EN.txt	HEADPHONES	Electronics	8	3	[0, 0, 0]	n/a	catFR1	5	R1501J
362.582	0.982	528299	WORD_OFF	n/a	n/a	HEADPHONES	Electronics	8	3	[0, 0, 0]	n/a	catFR1	5	R1501J
363.564	1.601	529277	WORD	n/a	wordpools/wordpool_categorized_EN.txt	JEANS	Clothing	9	3	[0, 0, 0]	n/a	catFR1	5	R1501J
365.165	0.767	530878	WORD_OFF	n/a	n/a	JEANS	Clothing	9	3	[0, 0, 0]	n/a	catFR1	5	R1501J
365.932	1.616	531645	WORD	n/a	wordpools/wordpool_categorized_EN.txt	COAT	Clothing	10	3	[0, 0, 0]	n/a	catFR1	5	R1501J
367.548	0.984	533259	WORD_OFF	n/a	n/a	COAT	Clothing	10	3	[0, 0, 0]	n/a	catFR1	5	R1501J
368.532	1.6	534251	WORD	n/a	wordpools/wordpool_categorized_EN.txt	BASEBALL	Toys	11	3	[0, 0, 0]	n/a	catFR1	5	R1501J
370.132	0.799	535851	WORD_OFF	n/a	n/a	BASEBALL	Toys	11	3	[0, 0, 0]	n/a	catFR1	5	R1501J
370.931	1.601	536645	WORD	n/a	wordpools/wordpool_categorized_EN.txt	BALL	Toys	12	3	[0, 0, 0]	n/a	catFR1	5	R1501J
372.532	0.001	538245	WORD_OFF	n/a	n/a	BALL	Toys	12	3	[0, 0, 0]	n/a	catFR1	5	R1501J
372.533	0.0	538245	ENCODING_END	n/a	n/a	n/a	n/a	-999	3	[0, 0, 0]	n/a	catFR1	5	R1501J
372.533	0.0	538245	DISTRACT_START	n/a	n/a	n/a	n/a	-999	3	[0, 0, 0]	n/a	catFR1	5	R1501J
372.532	0.001	538247	PROB	0.001	n/a	n/a	n/a	-999	3	[5, 6, 2]	13	catFR1	5	R1501J
372.533	7.199	538248	START	n/a	n/a	n/a	n/a	-999	3	[-999, -999, -999]	n/a	catFR1	5	R1501J
379.732	5.084	545446	PROB	5.084	n/a	n/a	n/a	-999	3	[5, 7, 3]	15	catFR1	5	R1501J
384.816	5.032	550530	PROB	5.032	n/a	n/a	n/a	-999	3	[2, 1, 7]	10	catFR1	5	R1501J
389.848	7.9	555562	PROB	7.9	n/a	n/a	n/a	-999	3	[7, 7, 2]	16	catFR1	5	R1501J
397.748	0.0	563462	STOP	n/a	n/a	n/a	n/a	-999	3	[-999, -999, -999]	n/a	catFR1	5	R1501J
397.748	1.332	563468	DISTRACT_END	n/a	n/a	n/a	n/a	-999	3	[0, 0, 0]	n/a	catFR1	5	R1501J
399.08	0.638	564791	REC_START	n/a	n/a	n/a	n/a	-999	3	[0, 0, 0]	n/a	catFR1	5	R1501J
399.718	1.0	565431	REC_WORD	1.0	n/a	SKIRT	Clothing	4	3	[0, 0, 0]	n/a	catFR1	5	R1501J
400.718	3.657	566431	REC_WORD_VV	3.657	n/a	<>	n/a	-999	3	[0, 0, 0]	n/a	catFR1	5	R1501J
404.375	1.379	570088	REC_WORD	1.379	n/a	DOLL	Toys	6	3	[0, 0, 0]	n/a	catFR1	5	R1501J
405.754	1.683	571467	REC_WORD	1.683	n/a	DOLLHOUSE	Toys	5	3	[0, 0, 0]	n/a	catFR1	5	R1501J
407.437	1.172	573150	REC_WORD	1.172	n/a	BALL	Toys	12	3	[0, 0, 0]	n/a	catFR1	5	R1501J
408.609	6.761	574322	REC_WORD	6.761	n/a	BASKETBALL	n/a	-999	3	[0, 0, 0]	n/a	catFR1	5	R1501J
415.37	5.939	581083	REC_WORD_VV	5.939	n/a	<>	n/a	-999	3	[0, 0, 0]	n/a	catFR1	5	R1501J
421.309	1.0	587022	REC_WORD_VV	1.0	n/a	<>	n/a	-999	3	[0, 0, 0]	n/a	catFR1	5	R1501J
422.309	0.915	588022	REC_WORD_VV	0.915	n/a	<>	n/a	-999	3	[0, 0, 0]	n/a	catFR1	5	R1501J
423.224	0.749	588937	REC_WORD	0.749	n/a	BALL	Toys	12	3	[0, 0, 0]	n/a	catFR1	5	R1501J
423.973	2.138	589686	REC_WORD	2.138	n/a	BASKETBALL	n/a	-999	3	[0, 0, 0]	n/a	catFR1	5	R1501J
426.111	2.425	591823	REC_WORD_VV	2.425	n/a	<>	n/a	-999	3	[0, 0, 0]	n/a	catFR1	5	R1501J
428.536	1.776	594248	REC_WORD	1.776	n/a	SHIRT	n/a	-999	3	[0, 0, 0]	n/a	catFR1	5	R1501J
430.312	1.588	596032	REC_END	n/a	n/a	n/a	n/a	-999	3	[0, 0, 0]	n/a	catFR1	5	R1501J
431.9	10.35	597620	COUNTDOWN_START	n/a	n/a	n/a	n/a	-999	3	[0, 0, 0]	n/a	catFR1	5	R1501J
442.25	0.0	607963	COUNTDOWN_END	n/a	n/a	n/a	n/a	-999	3	[0, 0, 0]	n/a	catFR1	5	R1501J
442.25	2.216	607963	ENCODING_START	n/a	n/a	n/a	n/a	-999	4	[0, 0, 0]	n/a	catFR1	5	R1501J
444.466	1.601	610185	WORD	n/a	wordpools/wordpool_categorized_EN.txt	ATTIC	Building	1	4	[0, 0, 0]	n/a	catFR1	5	R1501J
446.067	0.899	611785	WORD_OFF	n/a	n/a	ATTIC	Building	1	4	[0, 0, 0]	n/a	catFR1	5	R1501J
446.966	1.601	612685	WORD	n/a	wordpools/wordpool_categorized_EN.txt	WINDOW	Building	2	4	[0, 0, 0]	n/a	catFR1	5	R1501J
448.567	0.797	614285	WORD_OFF	n/a	n/a	WINDOW	Building	2	4	[0, 0, 0]	n/a	catFR1	5	R1501J
449.364	1.603	615079	WORD	n/a	wordpools/wordpool_categorized_EN.txt	CALF	FarmAnimals	3	4	[0, 0, 0]	n/a	catFR1	5	R1501J
450.967	0.915	616679	WORD_OFF	n/a	n/a	CALF	FarmAnimals	3	4	[0, 0, 0]	n/a	catFR1	5	R1501J
451.882	1.601	617592	WORD	n/a	wordpools/wordpool_categorized_EN.txt	LAMB	FarmAnimals	4	4	[0, 0, 0]	n/a	catFR1	5	R1501J
453.483	0.899	619192	WORD_OFF	n/a	n/a	LAMB	FarmAnimals	4	4	[0, 0, 0]	n/a	catFR1	5	R1501J
454.382	1.601	620092	WORD	n/a	wordpools/wordpool_categorized_EN.txt	CHEETAH	Zoo	5	4	[0, 0, 0]	n/a	catFR1	5	R1501J
455.983	0.966	621692	WORD_OFF	n/a	n/a	CHEETAH	Zoo	5	4	[0, 0, 0]	n/a	catFR1	5	R1501J
456.949	1.601	622658	WORD	n/a	wordpools/wordpool_categorized_EN.txt	LION	Zoo	6	4	[0, 0, 0]	n/a	catFR1	5	R1501J
458.55	0.783	624258	WORD_OFF	n/a	n/a	LION	Zoo	6	4	[0, 0, 0]	n/a	catFR1	5	R1501J
459.333	1.617	625052	WORD	n/a	wordpools/wordpool_categorized_EN.txt	HEN	FarmAnimals	7	4	[0, 0, 0]	n/a	catFR1	5	R1501J
460.95	1.0	626665	WORD_OFF	n/a	n/a	HEN	FarmAnimals	7	4	[0, 0, 0]	n/a	catFR1	5	R1501J
461.95	1.617	627657	WORD	n/a	wordpools/wordpool_categorized_EN.txt	ROOSTER	FarmAnimals	8	4	[0, 0, 0]	n/a	catFR1	5	R1501J
463.567	0.783	629284	WORD_OFF	n/a	n/a	ROOSTER	FarmAnimals	8	4	[0, 0, 0]	n/a	catFR1	5	R1501J
464.35	1.6	630064	WORD	n/a	wordpools/wordpool_categorized_EN.txt	FOUNDATION	Building	9	4	[0, 0, 0]	n/a	catFR1	5	R1501J
465.95	1.0	631665	WORD_OFF	n/a	n/a	FOUNDATION	Building	9	4	[0, 0, 0]	n/a	catFR1	5	R1501J
466.95	1.617	632657	WORD	n/a	wordpools/wordpool_categorized_EN.txt	WALL	Building	10	4	[0, 0, 0]	n/a	catFR1	5	R1501J
468.567	0.783	634284	WORD_OFF	n/a	n/a	WALL	Building	10	4	[0, 0, 0]	n/a	catFR1	5	R1501J
469.35	1.616	635064	WORD	n/a	wordpools/wordpool_categorized_EN.txt	CHIMPANZEE	Zoo	11	4	[0, 0, 0]	n/a	catFR1	5	R1501J
470.966	0.984	636678	WORD_OFF	n/a	n/a	CHIMPANZEE	Zoo	11	4	[0, 0, 0]	n/a	catFR1	5	R1501J
471.95	1.615	637657	WORD	n/a	wordpools/wordpool_categorized_EN.txt	ELEPHANT	Zoo	12	4	[0, 0, 0]	n/a	catFR1	5	R1501J
473.565	0.001	639275	PROB	0.001	n/a	n/a	n/a	-999	4	[6, 6, 4]	16	catFR1	5	R1501J
473.566	0.0	639276	START	n/a	n/a	n/a	n/a	-999	4	[-999, -999, -999]	n/a	catFR1	5	R1501J
473.565	0.001	639283	WORD_OFF	n/a	n/a	ELEPHANT	Zoo	12	4	[0, 0, 0]	n/a	catFR1	5	R1501J
473.566	0.0	639283	ENCODING_END	n/a	n/a	n/a	n/a	-999	4	[0, 0, 0]	n/a	catFR1	5	R1501J
473.566	8.935	639283	DISTRACT_START	n/a	n/a	n/a	n/a	-999	4	[0, 0, 0]	n/a	catFR1	5	R1501J
482.501	3.466	648211	PROB	3.466	n/a	n/a	n/a	-999	4	[5, 5, 3]	13	catFR1	5	R1501J
485.967	4.451	651677	PROB	4.451	n/a	n/a	n/a	-999	4	[3, 8, 1]	12	catFR1	5	R1501J
490.418	5.715	656128	PROB	5.715	n/a	n/a	n/a	-999	4	[8, 2, 6]	16	catFR1	5	R1501J
496.133	0.0	661843	STOP	n/a	n/a	n/a	n/a	-999	4	[-999, -999, -999]	n/a	catFR1	5	R1501J
496.133	1.066	661848	DISTRACT_END	n/a	n/a	n/a	n/a	-999	4	[0, 0, 0]	n/a	catFR1	5	R1501J
497.199	0.478	662906	REC_START	n/a	n/a	n/a	n/a	-999	4	[0, 0, 0]	n/a	catFR1	5	R1501J
497.677	1.0	663387	REC_WORD_VV	1.0	n/a	<>	n/a	-999	4	[0, 0, 0]	n/a	catFR1	5	R1501J
498.677	2.728	664386	REC_WORD_VV	2.728	n/a	<>	n/a	-999	4	[0, 0, 0]	n/a	catFR1	5	R1501J
501.405	1.0	667114	REC_WORD	1.0	n/a	CHIMPANZEE	Zoo	11	4	[0, 0, 0]	n/a	catFR1	5	R1501J
502.405	4.197	668114	REC_WORD_VV	4.197	n/a	<>	n/a	-999	4	[0, 0, 0]	n/a	catFR1	5	R1501J
506.602	1.87	672311	REC_WORD	1.87	n/a	COMPUTER	Electronics	-999	4	[0, 0, 0]	n/a	catFR1	5	R1501J
508.472	6.46	674181	REC_WORD	6.46	n/a	WALL	Building	10	4	[0, 0, 0]	n/a	catFR1	5	R1501J
514.932	1.023	680641	REC_WORD	1.023	n/a	HEN	FarmAnimals	7	4	[0, 0, 0]	n/a	catFR1	5	R1501J
515.955	9.034	681664	REC_WORD	9.034	n/a	ROOSTER	FarmAnimals	8	4	[0, 0, 0]	n/a	catFR1	5	R1501J
524.989	3.431	690697	REC_WORD	3.431	n/a	COW	FarmAnimals	-999	4	[0, 0, 0]	n/a	catFR1	5	R1501J
528.42	2.095	694134	REC_END	n/a	n/a	n/a	n/a	-999	4	[0, 0, 0]	n/a	catFR1	5	R1501J
530.515	10.352	696224	COUNTDOWN_START	n/a	n/a	n/a	n/a	-999	4	[0, 0, 0]	n/a	catFR1	5	R1501J
540.867	0.0	706581	COUNTDOWN_END	n/a	n/a	n/a	n/a	-999	4	[0, 0, 0]	n/a	catFR1	5	R1501J
540.867	1.949	706581	ENCODING_START	n/a	n/a	n/a	n/a	-999	5	[0, 0, 0]	n/a	catFR1	5	R1501J
542.816	1.6	708525	WORD	n/a	wordpools/wordpool_categorized_EN.txt	WRENCH	Tools	1	5	[0, 0, 0]	n/a	catFR1	5	R1501J
544.416	0.967	710125	WORD_OFF	n/a	n/a	WRENCH	Tools	1	5	[0, 0, 0]	n/a	catFR1	5	R1501J
545.383	1.617	711091	WORD	n/a	wordpools/wordpool_categorized_EN.txt	HAMMER	Tools	2	5	[0, 0, 0]	n/a	catFR1	5	R1501J
547.0	0.799	712705	WORD_OFF	n/a	n/a	HAMMER	Tools	2	5	[0, 0, 0]	n/a	catFR1	5	R1501J
547.799	1.6	713511	WORD	n/a	wordpools/wordpool_categorized_EN.txt	POTATO	Vegetables	3	5	[0, 0, 0]	n/a	catFR1	5	R1501J
549.399	0.85	715112	WORD_OFF	n/a	n/a	POTATO	Vegetables	3	5	[0, 0, 0]	n/a	catFR1	5	R1501J
550.249	1.6	715958	WORD	n/a	wordpools/wordpool_categorized_EN.txt	BROCCOLI	Vegetables	4	5	[0, 0, 0]	n/a	catFR1	5	R1501J
551.849	0.867	717559	WORD_OFF	n/a	n/a	BROCCOLI	Vegetables	4	5	[0, 0, 0]	n/a	catFR1	5	R1501J
552.716	1.6	718419	WORD	n/a	wordpools/wordpool_categorized_EN.txt	BIRCH	Trees	5	5	[0, 0, 0]	n/a	catFR1	5	R1501J
554.316	0.9	720019	WORD_OFF	n/a	n/a	BIRCH	Trees	5	5	[0, 0, 0]	n/a	catFR1	5	R1501J
555.216	1.601	720918	WORD	n/a	wordpools/wordpool_categorized_EN.txt	WILLOW	Trees	6	5	[0, 0, 0]	n/a	catFR1	5	R1501J
556.817	0.833	722519	WORD_OFF	n/a	n/a	WILLOW	Trees	6	5	[0, 0, 0]	n/a	catFR1	5	R1501J
557.65	1.6	723352	WORD	n/a	wordpools/wordpool_categorized_EN.txt	CAULIFLOWER	Vegetables	7	5	[0, 0, 0]	n/a	catFR1	5	R1501J
559.25	0.883	724952	WORD_OFF	n/a	n/a	CAULIFLOWER	Vegetables	7	5	[0, 0, 0]	n/a	catFR1	5	R1501J
560.133	1.6	725839	WORD	n/a	wordpools/wordpool_categorized_EN.txt	CABBAGE	Vegetables	8	5	[0, 0, 0]	n/a	catFR1	5	R1501J
561.733	0.967	727439	WORD_OFF	n/a	n/a	CABBAGE	Vegetables	8	5	[0, 0, 0]	n/a	catFR1	5	R1501J
562.7	1.6	728405	WORD	n/a	wordpools/wordpool_categorized_EN.txt	SPRUCE	Trees	9	5	[0, 0, 0]	n/a	catFR1	5	R1501J
564.3	0.916	730005	WORD_OFF	n/a	n/a	SPRUCE	Trees	9	5	[0, 0, 0]	n/a	catFR1	5	R1501J
565.216	1.601	730931	WORD	n/a	wordpools/wordpool_categorized_EN.txt	WALNUT	Trees	10	5	[0, 0, 0]	n/a	catFR1	5	R1501J
566.817	0.866	732531	WORD_OFF	n/a	n/a	WALNUT	Trees	10	5	[0, 0, 0]	n/a	catFR1	5	R1501J
567.683	1.617	733391	WORD	n/a	wordpools/wordpool_categorized_EN.txt	DRILL	Tools	11	5	[0, 0, 0]	n/a	catFR1	5	R1501J
569.3	0.965	735005	WORD_OFF	n/a	n/a	DRILL	Tools	11	5	[0, 0, 0]	n/a	catFR1	5	R1501J
570.265	1.615	735970	WORD	n/a	wordpools/wordpool_categorized_EN.txt	SAW	Tools	12	5	[0, 0, 0]	n/a	catFR1	5	R1501J
571.88	0.001	737584	WORD_OFF	n/a	n/a	SAW	Tools	12	5	[0, 0, 0]	n/a	catFR1	5	R1501J
571.881	0.0	737584	ENCODING_END	n/a	n/a	n/a	n/a	-999	5	[0, 0, 0]	n/a	catFR1	5	R1501J
571.881	0.001	737587	START	n/a	n/a	n/a	n/a	-999	5	[-999, -999, -999]	n/a	catFR1	5	R1501J
571.882	0.0	737588	PROB	0.0	n/a	n/a	n/a	-999	5	[6, 2, 7]	15	catFR1	5	R1501J
571.881	4.719	737597	DISTRACT_START	n/a	n/a	n/a	n/a	-999	5	[0, 0, 0]	n/a	catFR1	5	R1501J
576.6	3.65	742306	PROB	3.65	n/a	n/a	n/a	-999	5	[7, 2, 8]	17	catFR1	5	R1501J
580.25	3.3	745956	PROB	3.3	n/a	n/a	n/a	-999	5	[1, 1, 4]	6	catFR1	5	R1501J
583.55	6.316	749256	PROB	6.316	n/a	n/a	n/a	-999	5	[8, 3, 5]	16	catFR1	5	R1501J
589.866	3.134	755572	PROB	3.134	n/a	n/a	n/a	-999	5	[7, 7, 2]	16	catFR1	5	R1501J
593.0	0.0	758706	STOP	n/a	n/a	n/a	n/a	-999	5	[-999, -999, -999]	n/a	catFR1	5	R1501J
593.0	1.117	758707	DISTRACT_END	n/a	n/a	n/a	n/a	-999	5	[0, 0, 0]	n/a	catFR1	5	R1501J
594.117	0.741	759818	REC_START	n/a	n/a	n/a	n/a	-999	5	[0, 0, 0]	n/a	catFR1	5	R1501J
594.858	0.265	760564	REC_WORD_VV	0.265	n/a	<>	n/a	-999	5	[0, 0, 0]	n/a	catFR1	5	R1501J
595.123	3.309	760829	REC_WORD	3.309	n/a	CAULIFLOWER	Vegetables	7	5	[0, 0, 0]	n/a	catFR1	5	R1501J
598.432	4.392	764137	REC_WORD_VV	4.392	n/a	<>	n/a	-999	5	[0, 0, 0]	n/a	catFR1	5	R1501J
602.824	2.128	768529	REC_WORD_VV	2.128	n/a	<>	n/a	-999	5	[0, 0, 0]	n/a	catFR1	5	R1501J
604.952	4.238	770657	REC_WORD_VV	4.238	n/a	<>	n/a	-999	5	[0, 0, 0]	n/a	catFR1	5	R1501J
609.19	1.0	774895	REC_WORD	1.0	n/a	CAULIFLOWER	Vegetables	7	5	[0, 0, 0]	n/a	catFR1	5	R1501J
610.19	1.945	775895	REC_WORD_VV	1.945	n/a	<>	n/a	-999	5	[0, 0, 0]	n/a	catFR1	5	R1501J
612.135	1.0	777840	REC_WORD_VV	1.0	n/a	<>	n/a	-999	5	[0, 0, 0]	n/a	catFR1	5	R1501J
613.135	1.0	778840	REC_WORD_VV	1.0	n/a	<>	n/a	-999	5	[0, 0, 0]	n/a	catFR1	5	R1501J
614.135	1.0	779840	REC_WORD_VV	1.0	n/a	<>	n/a	-999	5	[0, 0, 0]	n/a	catFR1	5	R1501J
615.135	3.126	780840	REC_WORD_VV	3.126	n/a	<>	n/a	-999	5	[0, 0, 0]	n/a	catFR1	5	R1501J
618.261	0.801	783966	REC_WORD	0.801	n/a	ROOSTER	FarmAnimals	-999	5	[0, 0, 0]	n/a	catFR1	5	R1501J
619.062	2.141	784767	REC_WORD_VV	2.141	n/a	<>	n/a	-999	5	[0, 0, 0]	n/a	catFR1	5	R1501J
621.203	4.152	786907	REC_WORD_VV	4.152	n/a	<>	n/a	-999	5	[0, 0, 0]	n/a	catFR1	5	R1501J
625.355	1.578	791059	REC_END	n/a	n/a	n/a	n/a	-999	5	[0, 0, 0]	n/a	catFR1	5	R1501J
626.933	10.351	792646	COUNTDOWN_START	n/a	n/a	n/a	n/a	-999	5	[0, 0, 0]	n/a	catFR1	5	R1501J
637.284	0.0	802990	COUNTDOWN_END	n/a	n/a	n/a	n/a	-999	5	[0, 0, 0]	n/a	catFR1	5	R1501J
637.284	1.899	802990	ENCODING_START	n/a	n/a	n/a	n/a	-999	6	[0, 0, 0]	n/a	catFR1	5	R1501J
639.183	1.6	804894	WORD	n/a	wordpools/wordpool_categorized_EN.txt	LEATHER	Fabric	1	6	[0, 0, 0]	n/a	catFR1	5	R1501J
640.783	0.933	806482	WORD_OFF	n/a	n/a	LEATHER	Fabric	1	6	[0, 0, 0]	n/a	catFR1	5	R1501J
641.716	1.617	807421	WORD	n/a	wordpools/wordpool_categorized_EN.txt	SPANDEX	Fabric	2	6	[0, 0, 0]	n/a	catFR1	5	R1501J
643.333	0.932	809034	WORD_OFF	n/a	n/a	SPANDEX	Fabric	2	6	[0, 0, 0]	n/a	catFR1	5	R1501J
644.265	1.602	809973	WORD	n/a	wordpools/wordpool_categorized_EN.txt	BROWNIES	Desserts	3	6	[0, 0, 0]	n/a	catFR1	5	R1501J
645.867	0.966	811574	WORD_OFF	n/a	n/a	BROWNIES	Desserts	3	6	[0, 0, 0]	n/a	catFR1	5	R1501J
646.833	1.616	812539	WORD	n/a	wordpools/wordpool_categorized_EN.txt	CAKE	Desserts	4	6	[0, 0, 0]	n/a	catFR1	5	R1501J
648.449	0.934	814153	WORD_OFF	n/a	n/a	CAKE	Desserts	4	6	[0, 0, 0]	n/a	catFR1	5	R1501J
649.383	1.6	815092	WORD	n/a	wordpools/wordpool_categorized_EN.txt	STAIRS	Building	5	6	[0, 0, 0]	n/a	catFR1	5	R1501J
650.983	1.0	816693	WORD_OFF	n/a	n/a	STAIRS	Building	5	6	[0, 0, 0]	n/a	catFR1	5	R1501J
651.983	1.6	817685	WORD	n/a	wordpools/wordpool_categorized_EN.txt	HALLWAY	Building	6	6	[0, 0, 0]	n/a	catFR1	5	R1501J
653.583	0.967	819285	WORD_OFF	n/a	n/a	HALLWAY	Building	6	6	[0, 0, 0]	n/a	catFR1	5	R1501J
654.55	1.6	820251	WORD	n/a	wordpools/wordpool_categorized_EN.txt	SATIN	Fabric	7	6	[0, 0, 0]	n/a	catFR1	5	R1501J
656.15	0.933	821851	WORD_OFF	n/a	n/a	SATIN	Fabric	7	6	[0, 0, 0]	n/a	catFR1	5	R1501J
657.083	1.6	822790	WORD	n/a	wordpools/wordpool_categorized_EN.txt	DENIM	Fabric	8	6	[0, 0, 0]	n/a	catFR1	5	R1501J
658.683	0.965	824390	WORD_OFF	n/a	n/a	DENIM	Fabric	8	6	[0, 0, 0]	n/a	catFR1	5	R1501J
659.648	1.602	825356	WORD	n/a	wordpools/wordpool_categorized_EN.txt	ROOF	Building	9	6	[0, 0, 0]	n/a	catFR1	5	R1501J
661.25	1.0	826956	WORD_OFF	n/a	n/a	ROOF	Building	9	6	[0, 0, 0]	n/a	catFR1	5	R1501J
662.25	1.617	827948	WORD	n/a	wordpools/wordpool_categorized_EN.txt	CEILING	Building	10	6	[0, 0, 0]	n/a	catFR1	5	R1501J
663.867	0.883	829575	WORD_OFF	n/a	n/a	CEILING	Building	10	6	[0, 0, 0]	n/a	catFR1	5	R1501J
664.75	1.617	830448	WORD	n/a	wordpools/wordpool_categorized_EN.txt	PIE	Desserts	11	6	[0, 0, 0]	n/a	catFR1	5	R1501J
666.367	0.766	832075	WORD_OFF	n/a	n/a	PIE	Desserts	11	6	[0, 0, 0]	n/a	catFR1	5	R1501J
667.133	1.601	832842	WORD	n/a	wordpools/wordpool_categorized_EN.txt	CUPCAKE	Desserts	12	6	[0, 0, 0]	n/a	catFR1	5	R1501J
668.734	0.001	834437	PROB	0.001	n/a	n/a	n/a	-999	6	[4, 7, 4]	15	catFR1	5	R1501J
668.735	0.0	834438	START	n/a	n/a	n/a	n/a	-999	6	[-999, -999, -999]	n/a	catFR1	5	R1501J
668.733	0.002	834443	WORD_OFF	n/a	n/a	CUPCAKE	Desserts	12	6	[0, 0, 0]	n/a	catFR1	5	R1501J
668.735	0.0	834443	ENCODING_END	n/a	n/a	n/a	n/a	-999	6	[0, 0, 0]	n/a	catFR1	5	R1501J
668.735	5.031	834443	DISTRACT_START	n/a	n/a	n/a	n/a	-999	6	[0, 0, 0]	n/a	catFR1	5	R1501J
673.766	2.984	839468	PROB	2.984	n/a	n/a	n/a	-999	6	[4, 1, 5]	10	catFR1	5	R1501J
676.75	5.084	842452	PROB	5.084	n/a	n/a	n/a	-999	6	[7, 2, 8]	17	catFR1	5	R1501J
681.834	3.6	847536	PROB	3.6	n/a	n/a	n/a	-999	6	[3, 1, 2]	6	catFR1	5	R1501J
685.434	4.498	851136	PROB	4.498	n/a	n/a	n/a	-999	6	[7, 8, 3]	18	catFR1	5	R1501J
689.932	0.0	855632	DISTRACT_END	n/a	n/a	n/a	n/a	-999	6	[0, 0, 0]	n/a	catFR1	5	R1501J
689.932	1.151	855634	STOP	n/a	n/a	n/a	n/a	-999	6	[-999, -999, -999]	n/a	catFR1	5	R1501J
691.083	0.271	856783	REC_START	n/a	n/a	n/a	n/a	-999	6	[0, 0, 0]	n/a	catFR1	5	R1501J
691.354	0.861	857056	REC_WORD	0.861	n/a	LEATHER	Fabric	1	6	[0, 0, 0]	n/a	catFR1	5	R1501J
692.215	1.0	857917	REC_WORD	1.0	n/a	SPANDEX	Fabric	2	6	[0, 0, 0]	n/a	catFR1	5	R1501J
693.215	0.779	858917	REC_WORD_VV	0.779	n/a	<>	n/a	-999	6	[0, 0, 0]	n/a	catFR1	5	R1501J
693.994	1.264	859696	REC_WORD	1.264	n/a	BROWNIES	Desserts	3	6	[0, 0, 0]	n/a	catFR1	5	R1501J
695.258	5.522	860959	REC_WORD	5.522	n/a	CAKE	Desserts	4	6	[0, 0, 0]	n/a	catFR1	5	R1501J
700.78	21.52	866481	REC_WORD	21.52	n/a	CUPCAKE	Desserts	12	6	[0, 0, 0]	n/a	catFR1	5	R1501J
722.3	1.665	887997	REC_END	n/a	n/a	n/a	n/a	-999	6	[0, 0, 0]	n/a	catFR1	5	R1501J
723.965	10.352	889664	COUNTDOWN_START	n/a	n/a	n/a	n/a	-999	6	[0, 0, 0]	n/a	catFR1	5	R1501J
734.317	0.0	900021	COUNTDOWN_END	n/a	n/a	n/a	n/a	-999	6	[0, 0, 0]	n/a	catFR1	5	R1501J
734.317	2.147	900021	ENCODING_START	n/a	n/a	n/a	n/a	-999	7	[0, 0, 0]	n/a	catFR1	5	R1501J
736.464	1.619	902163	WORD	n/a	wordpools/wordpool_categorized_EN.txt	DOOR	Building	1	7	[0, 0, 0]	n/a	catFR1	5	R1501J
738.083	0.982	903790	WORD_OFF	n/a	n/a	DOOR	Building	1	7	[0, 0, 0]	n/a	catFR1	5	R1501J
739.065	1.602	904769	WORD	n/a	wordpools/wordpool_categorized_EN.txt	ROOM	Building	2	7	[0, 0, 0]	n/a	catFR1	5	R1501J
740.667	0.982	906369	WORD_OFF	n/a	n/a	ROOM	Building	2	7	[0, 0, 0]	n/a	catFR1	5	R1501J
741.649	1.6	907348	WORD	n/a	wordpools/wordpool_categorized_EN.txt	SOCKS	Clothing	3	7	[0, 0, 0]	n/a	catFR1	5	R1501J
743.249	0.767	908948	WORD_OFF	n/a	n/a	SOCKS	Clothing	3	7	[0, 0, 0]	n/a	catFR1	5	R1501J
744.016	1.616	909716	WORD	n/a	wordpools/wordpool_categorized_EN.txt	SHIRT	Clothing	4	7	[0, 0, 0]	n/a	catFR1	5	R1501J
745.632	0.817	911329	WORD_OFF	n/a	n/a	SHIRT	Clothing	4	7	[0, 0, 0]	n/a	catFR1	5	R1501J
746.449	1.601	912149	WORD	n/a	wordpools/wordpool_categorized_EN.txt	DRESSER	Furniture	5	7	[0, 0, 0]	n/a	catFR1	5	R1501J
748.05	0.983	913750	WORD_OFF	n/a	n/a	DRESSER	Furniture	5	7	[0, 0, 0]	n/a	catFR1	5	R1501J
749.033	1.6	914729	WORD	n/a	wordpools/wordpool_categorized_EN.txt	RECLINER	Furniture	6	7	[0, 0, 0]	n/a	catFR1	5	R1501J
750.633	0.8	916329	WORD_OFF	n/a	n/a	RECLINER	Furniture	6	7	[0, 0, 0]	n/a	catFR1	5	R1501J
751.433	1.617	917136	WORD	n/a	wordpools/wordpool_categorized_EN.txt	FLOOR	Building	7	7	[0, 0, 0]	n/a	catFR1	5	R1501J
753.05	0.967	918749	WORD_OFF	n/a	n/a	FLOOR	Building	7	7	[0, 0, 0]	n/a	catFR1	5	R1501J
754.017	1.616	919715	WORD	n/a	wordpools/wordpool_categorized_EN.txt	BATHROOM	Building	8	7	[0, 0, 0]	n/a	catFR1	5	R1501J
755.633	0.85	921329	WORD_OFF	n/a	n/a	BATHROOM	Building	8	7	[0, 0, 0]	n/a	catFR1	5	R1501J
756.483	1.6	922188	WORD	n/a	wordpools/wordpool_categorized_EN.txt	BOOKCASE	Furniture	9	7	[0, 0, 0]	n/a	catFR1	5	R1501J
758.083	0.817	923789	WORD_OFF	n/a	n/a	BOOKCASE	Furniture	9	7	[0, 0, 0]	n/a	catFR1	5	R1501J
758.9	1.615	924596	WORD	n/a	wordpools/wordpool_categorized_EN.txt	TABLE	Furniture	10	7	[0, 0, 0]	n/a	catFR1	5	R1501J
760.515	0.853	926209	WORD_OFF	n/a	n/a	TABLE	Furniture	10	7	[0, 0, 0]	n/a	catFR1	5	R1501J
761.368	1.615	927069	WORD	n/a	wordpools/wordpool_categorized_EN.txt	SHORTS	Clothing	11	7	[0, 0, 0]	n/a	catFR1	5	R1501J
762.983	0.783	928683	WORD_OFF	n/a	n/a	SHORTS	Clothing	11	7	[0, 0, 0]	n/a	catFR1	5	R1501J
763.766	1.616	929463	WORD	n/a	wordpools/wordpool_categorized_EN.txt	DRESS	Clothing	12	7	[0, 0, 0]	n/a	catFR1	5	R1501J
765.382	0.001	931077	WORD_OFF	n/a	n/a	DRESS	Clothing	12	7	[0, 0, 0]	n/a	catFR1	5	R1501J
765.383	0.0	931082	START	n/a	n/a	n/a	n/a	-999	7	[-999, -999, -999]	n/a	catFR1	5	R1501J
765.383	0.0	931082	PROB	0.0	n/a	n/a	n/a	-999	7	[8, 7, 2]	11	catFR1	5	R1501J
765.383	0.0	931090	ENCODING_END	n/a	n/a	n/a	n/a	-999	7	[0, 0, 0]	n/a	catFR1	5	R1501J
765.383	2.784	931090	DISTRACT_START	n/a	n/a	n/a	n/a	-999	7	[0, 0, 0]	n/a	catFR1	5	R1501J
768.167	6.1	933865	PROB	6.1	n/a	n/a	n/a	-999	7	[1, 5, 8]	14	catFR1	5	R1501J
774.267	4.333	939965	PROB	4.333	n/a	n/a	n/a	-999	7	[4, 6, 7]	17	catFR1	5	R1501J
778.6	4.849	944298	PROB	4.849	n/a	n/a	n/a	-999	7	[4, 3, 3]	10	catFR1	5	R1501J
783.449	3.067	949147	PROB	3.067	n/a	n/a	n/a	-999	7	[5, 6, 1]	12	catFR1	5	R1501J
786.516	0.0	952213	DISTRACT_END	n/a	n/a	n/a	n/a	-999	7	[0, 0, 0]	n/a	catFR1	5	R1501J
786.516	1.284	952214	STOP	n/a	n/a	n/a	n/a	-999	7	[-999, -999, -999]	n/a	catFR1	5	R1501J
787.8	0.248	953496	REC_START	n/a	n/a	n/a	n/a	-999	7	[0, 0, 0]	n/a	catFR1	5	R1501J
788.048	1.546	953746	REC_WORD	1.546	n/a	SOCKS	Clothing	3	7	[0, 0, 0]	n/a	catFR1	5	R1501J
789.594	1.562	955292	REC_WORD	1.562	n/a	FLOOR	Building	7	7	[0, 0, 0]	n/a	catFR1	5	R1501J
791.156	1.647	956854	REC_WORD	1.647	n/a	DESK	Furniture	-999	7	[0, 0, 0]	n/a	catFR1	5	R1501J
792.803	6.684	958500	REC_WORD	6.684	n/a	BATHROOM	Building	8	7	[0, 0, 0]	n/a	catFR1	5	R1501J
799.487	0.328	965184	REC_WORD_VV	0.328	n/a	<>	n/a	-999	7	[0, 0, 0]	n/a	catFR1	5	R1501J
799.815	0.87	965512	REC_WORD	0.87	n/a	SOCKS	Clothing	3	7	[0, 0, 0]	n/a	catFR1	5	R1501J
800.685	1.005	966382	REC_WORD	1.005	n/a	FLOOR	Building	7	7	[0, 0, 0]	n/a	catFR1	5	R1501J
801.69	1.144	967387	REC_WORD	1.144	n/a	DESK	Furniture	-999	7	[0, 0, 0]	n/a	catFR1	5	R1501J
802.834	1.373	968531	REC_WORD	1.373	n/a	BATHROOM	Building	8	7	[0, 0, 0]	n/a	catFR1	5	R1501J
804.207	1.299	969904	REC_WORD	1.299	n/a	ROOM	Building	2	7	[0, 0, 0]	n/a	catFR1	5	R1501J
805.506	8.825	971203	REC_WORD	8.825	n/a	DRESSER	Furniture	5	7	[0, 0, 0]	n/a	catFR1	5	R1501J
814.331	1.402	980028	REC_WORD	1.402	n/a	BATHROOM	Building	8	7	[0, 0, 0]	n/a	catFR1	5	R1501J
815.733	0.892	981430	REC_WORD	0.892	n/a	ROOM	Building	2	7	[0, 0, 0]	n/a	catFR1	5	R1501J
816.625	2.354	982322	REC_WORD	2.354	n/a	DRESSER	Furniture	5	7	[0, 0, 0]	n/a	catFR1	5	R1501J
818.979	1.803	984671	REC_END	n/a	n/a	n/a	n/a	-999	7	[0, 0, 0]	n/a	catFR1	5	R1501J
820.782	10.351	986483	COUNTDOWN_START	n/a	n/a	n/a	n/a	-999	7	[0, 0, 0]	n/a	catFR1	5	R1501J
831.133	0.0	996826	COUNTDOWN_END	n/a	n/a	n/a	n/a	-999	7	[0, 0, 0]	n/a	catFR1	5	R1501J
831.133	1.933	996826	ENCODING_START	n/a	n/a	n/a	n/a	-999	8	[0, 0, 0]	n/a	catFR1	5	R1501J
833.066	1.6	998757	WORD	n/a	wordpools/wordpool_categorized_EN.txt	BARBIE	Toys	1	8	[0, 0, 0]	n/a	catFR1	5	R1501J
834.666	0.85	1000358	WORD_OFF	n/a	n/a	BARBIE	Toys	1	8	[0, 0, 0]	n/a	catFR1	5	R1501J
835.516	1.617	1001218	WORD	n/a	wordpools/wordpool_categorized_EN.txt	FRISBEE	Toys	2	8	[0, 0, 0]	n/a	catFR1	5	R1501J
837.133	0.966	1002831	WORD_OFF	n/a	n/a	FRISBEE	Toys	2	8	[0, 0, 0]	n/a	catFR1	5	R1501J
838.099	1.601	1003797	WORD	n/a	wordpools/wordpool_categorized_EN.txt	THUNDERSTORM	Weather	3	8	[0, 0, 0]	n/a	catFR1	5	R1501J
839.7	0.932	1005397	WORD_OFF	n/a	n/a	THUNDERSTORM	Weather	3	8	[0, 0, 0]	n/a	catFR1	5	R1501J
840.632	1.6	1006323	WORD	n/a	wordpools/wordpool_categorized_EN.txt	WIND	Weather	4	8	[0, 0, 0]	n/a	catFR1	5	R1501J
842.232	0.968	1007924	WORD_OFF	n/a	n/a	WIND	Weather	4	8	[0, 0, 0]	n/a	catFR1	5	R1501J
843.2	1.616	1008902	WORD	n/a	wordpools/wordpool_categorized_EN.txt	CHERRY	Fruit	5	8	[0, 0, 0]	n/a	catFR1	5	R1501J
844.816	0.884	1010516	WORD_OFF	n/a	n/a	CHERRY	Fruit	5	8	[0, 0, 0]	n/a	catFR1	5	R1501J
845.7	1.6	1011402	WORD	n/a	wordpools/wordpool_categorized_EN.txt	PEACH	Fruit	6	8	[0, 0, 0]	n/a	catFR1	5	R1501J
847.3	0.765	1012989	WORD_OFF	n/a	n/a	PEACH	Fruit	6	8	[0, 0, 0]	n/a	catFR1	5	R1501J
848.065	1.601	1013757	WORD	n/a	wordpools/wordpool_categorized_EN.txt	BLOCKS	Toys	7	8	[0, 0, 0]	n/a	catFR1	5	R1501J
849.666	0.95	1015357	WORD_OFF	n/a	n/a	BLOCKS	Toys	7	8	[0, 0, 0]	n/a	catFR1	5	R1501J
850.616	1.616	1016309	WORD	n/a	wordpools/wordpool_categorized_EN.txt	MARBLES	Toys	8	8	[0, 0, 0]	n/a	catFR1	5	R1501J
852.232	0.968	1017923	WORD_OFF	n/a	n/a	MARBLES	Toys	8	8	[0, 0, 0]	n/a	catFR1	5	R1501J
853.2	1.6	1018902	WORD	n/a	wordpools/wordpool_categorized_EN.txt	STRAWBERRY	Fruit	9	8	[0, 0, 0]	n/a	catFR1	5	R1501J
854.8	0.95	1020502	WORD_OFF	n/a	n/a	STRAWBERRY	Fruit	9	8	[0, 0, 0]	n/a	catFR1	5	R1501J
855.75	1.616	1021441	WORD	n/a	wordpools/wordpool_categorized_EN.txt	ORANGE	Fruit	10	8	[0, 0, 0]	n/a	catFR1	5	R1501J
857.366	0.967	1023068	WORD_OFF	n/a	n/a	ORANGE	Fruit	10	8	[0, 0, 0]	n/a	catFR1	5	R1501J
858.333	1.617	1024034	WORD	n/a	wordpools/wordpool_categorized_EN.txt	THUNDER	Weather	11	8	[0, 0, 0]	n/a	catFR1	5	R1501J
859.95	0.866	1025647	WORD_OFF	n/a	n/a	THUNDER	Weather	11	8	[0, 0, 0]	n/a	catFR1	5	R1501J
860.816	1.6	1026507	WORD	n/a	wordpools/wordpool_categorized_EN.txt	FOG	Weather	12	8	[0, 0, 0]	n/a	catFR1	5	R1501J
862.416	0.002	1028107	WORD_OFF	n/a	n/a	FOG	Weather	12	8	[0, 0, 0]	n/a	catFR1	5	R1501J
862.418	0.0	1028107	ENCODING_END	n/a	n/a	n/a	n/a	-999	8	[0, 0, 0]	n/a	catFR1	5	R1501J
862.417	0.001	1028112	PROB	0.001	n/a	n/a	n/a	-999	8	[6, 7, 3]	16	catFR1	5	R1501J
862.418	0.0	1028113	START	n/a	n/a	n/a	n/a	-999	8	[-999, -999, -999]	n/a	catFR1	5	R1501J
862.418	6.832	1028121	DISTRACT_START	n/a	n/a	n/a	n/a	-999	8	[0, 0, 0]	n/a	catFR1	5	R1501J
869.25	3.75	1034944	PROB	3.75	n/a	n/a	n/a	-999	8	[5, 6, 4]	15	catFR1	5	R1501J
873.0	3.65	1038694	PROB	3.65	n/a	n/a	n/a	-999	8	[2, 5, 4]	11	catFR1	5	R1501J
876.65	4.182	1042344	PROB	4.182	n/a	n/a	n/a	-999	8	[3, 4, 5]	12	catFR1	5	R1501J
880.832	2.868	1046526	PROB	2.868	n/a	n/a	n/a	-999	8	[8, 1, 1]	10	catFR1	5	R1501J
883.7	0.0	1049389	DISTRACT_END	n/a	n/a	n/a	n/a	-999	8	[0, 0, 0]	n/a	catFR1	5	R1501J
883.7	1.266	1049394	STOP	n/a	n/a	n/a	n/a	-999	8	[-999, -999, -999]	n/a	catFR1	5	R1501J
884.966	1.047	1050659	REC_START	n/a	n/a	n/a	n/a	-999	8	[0, 0, 0]	n/a	catFR1	5	R1501J
886.013	1.0	1051707	REC_WORD	1.0	n/a	STRAWBERRY	Fruit	9	8	[0, 0, 0]	n/a	catFR1	5	R1501J
887.013	0.856	1052707	REC_WORD_VV	0.856	n/a	<>	n/a	-999	8	[0, 0, 0]	n/a	catFR1	5	R1501J
887.869	1.551	1053563	REC_WORD	1.551	n/a	PEACH	Fruit	6	8	[0, 0, 0]	n/a	catFR1	5	R1501J
889.42	3.004	1055114	REC_WORD	3.004	n/a	MARBLES	Toys	8	8	[0, 0, 0]	n/a	catFR1	5	R1501J
892.424	0.753	1058117	REC_WORD_VV	0.753	n/a	<>	n/a	-999	8	[0, 0, 0]	n/a	catFR1	5	R1501J
893.177	1.139	1058870	REC_WORD	1.139	n/a	THUNDER	Weather	11	8	[0, 0, 0]	n/a	catFR1	5	R1501J
894.316	1.179	1060009	REC_WORD	1.179	n/a	THUNDERSTORM	Weather	3	8	[0, 0, 0]	n/a	catFR1	5	R1501J
895.495	0.967	1061188	REC_WORD	0.967	n/a	WIND	Weather	4	8	[0, 0, 0]	n/a	catFR1	5	R1501J
896.462	4.322	1062155	REC_WORD	4.322	n/a	FOG	Weather	12	8	[0, 0, 0]	n/a	catFR1	5	R1501J
900.784	1.621	1066477	REC_WORD_VV	1.621	n/a	<>	n/a	-999	8	[0, 0, 0]	n/a	catFR1	5	R1501J
902.405	1.459	1068098	REC_WORD	1.459	n/a	BARBIE	Toys	1	8	[0, 0, 0]	n/a	catFR1	5	R1501J
903.864	6.477	1069557	REC_WORD	6.477	n/a	FRISBEE	Toys	2	8	[0, 0, 0]	n/a	catFR1	5	R1501J
910.341	0.692	1076034	REC_WORD	0.692	n/a	WIND	Weather	4	8	[0, 0, 0]	n/a	catFR1	5	R1501J
911.033	1.824	1076726	REC_WORD	1.824	n/a	FOG	Weather	12	8	[0, 0, 0]	n/a	catFR1	5	R1501J
912.857	1.027	1078550	REC_WORD	1.027	n/a	THUNDER	Weather	11	8	[0, 0, 0]	n/a	catFR1	5	R1501J
913.884	2.273	1079577	REC_WORD	2.273	n/a	THUNDERSTORM	Weather	3	8	[0, 0, 0]	n/a	catFR1	5	R1501J
916.157	2.008	1081847	REC_END	n/a	n/a	n/a	n/a	-999	8	[0, 0, 0]	n/a	catFR1	5	R1501J
918.165	10.35	1083858	COUNTDOWN_START	n/a	n/a	n/a	n/a	-999	8	[0, 0, 0]	n/a	catFR1	5	R1501J
928.515	0.0	1094214	COUNTDOWN_END	n/a	n/a	n/a	n/a	-999	8	[0, 0, 0]	n/a	catFR1	5	R1501J
928.515	1.9	1094214	ENCODING_START	n/a	n/a	n/a	n/a	-999	9	[0, 0, 0]	n/a	catFR1	5	R1501J
930.415	1.6	1096106	WORD	n/a	wordpools/wordpool_categorized_EN.txt	DOLPHIN	OceanAnimals	1	9	[0, 0, 0]	n/a	catFR1	5	R1501J
932.015	0.784	1097706	WORD_OFF	n/a	n/a	DOLPHIN	OceanAnimals	1	9	[0, 0, 0]	n/a	catFR1	5	R1501J
932.799	1.615	1098486	WORD	n/a	wordpools/wordpool_categorized_EN.txt	OYSTER	OceanAnimals	2	9	[0, 0, 0]	n/a	catFR1	5	R1501J
934.414	0.768	1100100	WORD_OFF	n/a	n/a	OYSTER	OceanAnimals	2	9	[0, 0, 0]	n/a	catFR1	5	R1501J
935.182	1.615	1100880	WORD	n/a	wordpools/wordpool_categorized_EN.txt	STREAM	Landscapes	3	9	[0, 0, 0]	n/a	catFR1	5	R1501J
936.797	0.917	1102494	WORD_OFF	n/a	n/a	STREAM	Landscapes	3	9	[0, 0, 0]	n/a	catFR1	5	R1501J
937.714	1.601	1103407	WORD	n/a	wordpools/wordpool_categorized_EN.txt	CREEK	Landscapes	4	9	[0, 0, 0]	n/a	catFR1	5	R1501J
939.315	0.783	1105007	WORD_OFF	n/a	n/a	CREEK	Landscapes	4	9	[0, 0, 0]	n/a	catFR1	5	R1501J
940.098	1.616	1105788	WORD	n/a	wordpools/wordpool_categorized_EN.txt	CELLO	Instruments	5	9	[0, 0, 0]	n/a	catFR1	5	R1501J
941.714	0.884	1107401	WORD_OFF	n/a	n/a	CELLO	Instruments	5	9	[0, 0, 0]	n/a	catFR1	5	R1501J
942.598	1.6	1108287	WORD	n/a	wordpools/wordpool_categorized_EN.txt	TROMBONE	Instruments	6	9	[0, 0, 0]	n/a	catFR1	5	R1501J
944.198	0.984	1109888	WORD_OFF	n/a	n/a	TROMBONE	Instruments	6	9	[0, 0, 0]	n/a	catFR1	5	R1501J
945.182	1.601	1110880	WORD	n/a	wordpools/wordpool_categorized_EN.txt	OCEAN	Landscapes	7	9	[0, 0, 0]	n/a	catFR1	5	R1501J
946.783	0.899	1112480	WORD_OFF	n/a	n/a	OCEAN	Landscapes	7	9	[0, 0, 0]	n/a	catFR1	5	R1501J
947.682	1.6	1113380	WORD	n/a	wordpools/wordpool_categorized_EN.txt	MOUNTAIN	Landscapes	8	9	[0, 0, 0]	n/a	catFR1	5	R1501J
949.282	0.949	1114980	WORD_OFF	n/a	n/a	MOUNTAIN	Landscapes	8	9	[0, 0, 0]	n/a	catFR1	5	R1501J
950.231	1.6	1115919	WORD	n/a	wordpools/wordpool_categorized_EN.txt	VIOLIN	Instruments	9	9	[0, 0, 0]	n/a	catFR1	5	R1501J
951.831	0.983	1117520	WORD_OFF	n/a	n/a	VIOLIN	Instruments	9	9	[0, 0, 0]	n/a	catFR1	5	R1501J
952.814	1.601	1118512	WORD	n/a	wordpools/wordpool_categorized_EN.txt	PIANO	Instruments	10	9	[0, 0, 0]	n/a	catFR1	5	R1501J
954.415	0.817	1120112	WORD_OFF	n/a	n/a	PIANO	Instruments	10	9	[0, 0, 0]	n/a	catFR1	5	R1501J
955.232	1.6	1120919	WORD	n/a	wordpools/wordpool_categorized_EN.txt	LOBSTER	OceanAnimals	11	9	[0, 0, 0]	n/a	catFR1	5	R1501J
956.832	0.883	1122519	WORD_OFF	n/a	n/a	LOBSTER	OceanAnimals	11	9	[0, 0, 0]	n/a	catFR1	5	R1501J
957.715	1.6	1123405	WORD	n/a	wordpools/wordpool_categorized_EN.txt	CRAB	OceanAnimals	12	9	[0, 0, 0]	n/a	catFR1	5	R1501J
959.315	0.001	1125006	WORD_OFF	n/a	n/a	CRAB	OceanAnimals	12	9	[0, 0, 0]	n/a	catFR1	5	R1501J
959.316	0.0	1125006	ENCODING_END	n/a	n/a	n/a	n/a	-999	9	[0, 0, 0]	n/a	catFR1	5	R1501J
959.316	0.0	1125006	DISTRACT_START	n/a	n/a	n/a	n/a	-999	9	[0, 0, 0]	n/a	catFR1	5	R1501J
959.316	0.0	1125007	START	n/a	n/a	n/a	n/a	-999	9	[-999, -999, -999]	n/a	catFR1	5	R1501J
959.316	4.466	1125007	PROB	4.466	n/a	n/a	n/a	-999	9	[4, 6, 4]	14	catFR1	5	R1501J
963.782	5.133	1129473	PROB	5.133	n/a	n/a	n/a	-999	9	[8, 8, 3]	19	catFR1	5	R1501J
968.915	10.034	1134605	PROB	10.034	n/a	n/a	n/a	-999	9	[4, 6, 6]	16	catFR1	5	R1501J
978.949	6.232	1144639	PROB	6.232	n/a	n/a	n/a	-999	9	[7, 5, 6]	18	catFR1	5	R1501J
985.181	0.0	1150871	STOP	n/a	n/a	n/a	n/a	-999	9	[-999, -999, -999]	n/a	catFR1	5	R1501J
985.181	1.367	1150877	DISTRACT_END	n/a	n/a	n/a	n/a	-999	9	[0, 0, 0]	n/a	catFR1	5	R1501J
986.548	0.991	1152240	REC_START	n/a	n/a	n/a	n/a	-999	9	[0, 0, 0]	n/a	catFR1	5	R1501J
987.539	1.597	1153229	REC_WORD	1.597	n/a	DOLPHIN	OceanAnimals	1	9	[0, 0, 0]	n/a	catFR1	5	R1501J
989.136	1.407	1154825	REC_WORD	1.407	n/a	OYSTER	OceanAnimals	2	9	[0, 0, 0]	n/a	catFR1	5	R1501J
990.543	1.668	1156232	REC_WORD	1.668	n/a	STREAM	Landscapes	3	9	[0, 0, 0]	n/a	catFR1	5	R1501J
992.211	2.516	1157900	REC_WORD	2.516	n/a	CREEK	Landscapes	4	9	[0, 0, 0]	n/a	catFR1	5	R1501J
994.727	1.0	1160416	REC_WORD	1.0	n/a	MOUNTAIN	Landscapes	8	9	[0, 0, 0]	n/a	catFR1	5	R1501J
995.727	1.756	1161416	REC_WORD_VV	1.756	n/a	<>	n/a	-999	9	[0, 0, 0]	n/a	catFR1	5	R1501J
997.483	1.423	1163172	REC_WORD_VV	1.423	n/a	<>	n/a	-999	9	[0, 0, 0]	n/a	catFR1	5	R1501J
998.906	6.882	1164595	REC_WORD_VV	6.882	n/a	<>	n/a	-999	9	[0, 0, 0]	n/a	catFR1	5	R1501J
1005.788	0.424	1171477	REC_WORD_VV	0.424	n/a	<>	n/a	-999	9	[0, 0, 0]	n/a	catFR1	5	R1501J
1006.212	2.108	1171901	REC_WORD	2.108	n/a	MOUNTAIN	Landscapes	8	9	[0, 0, 0]	n/a	catFR1	5	R1501J
1008.32	9.431	1174009	REC_WORD_VV	9.431	n/a	<>	n/a	-999	9	[0, 0, 0]	n/a	catFR1	5	R1501J
1017.751	2.015	1183441	REC_END	n/a	n/a	n/a	n/a	-999	9	[0, 0, 0]	n/a	catFR1	5	R1501J
1019.766	10.349	1185452	COUNTDOWN_START	n/a	n/a	n/a	n/a	-999	9	[0, 0, 0]	n/a	catFR1	5	R1501J
1030.115	0.001	1195808	COUNTDOWN_END	n/a	n/a	n/a	n/a	-999	9	[0, 0, 0]	n/a	catFR1	5	R1501J
1030.116	2.017	1195808	ENCODING_START	n/a	n/a	n/a	n/a	-999	10	[0, 0, 0]	n/a	catFR1	5	R1501J
1032.133	1.6	1197819	WORD	n/a	wordpools/wordpool_categorized_EN.txt	LIME	Fruit	1	10	[0, 0, 0]	n/a	catFR1	5	R1501J
1033.733	0.849	1199419	WORD_OFF	n/a	n/a	LIME	Fruit	1	10	[0, 0, 0]	n/a	catFR1	5	R1501J
1034.582	1.601	1200266	WORD	n/a	wordpools/wordpool_categorized_EN.txt	BANANA	Fruit	2	10	[0, 0, 0]	n/a	catFR1	5	R1501J
1036.183	0.9	1201866	WORD_OFF	n/a	n/a	BANANA	Fruit	2	10	[0, 0, 0]	n/a	catFR1	5	R1501J
1037.083	1.6	1202765	WORD	n/a	wordpools/wordpool_categorized_EN.txt	STRAINER	KitchenTools	3	10	[0, 0, 0]	n/a	catFR1	5	R1501J
1038.683	0.8	1204366	WORD_OFF	n/a	n/a	STRAINER	KitchenTools	3	10	[0, 0, 0]	n/a	catFR1	5	R1501J
1039.483	1.6	1205173	WORD	n/a	wordpools/wordpool_categorized_EN.txt	CORKSCREW	KitchenTools	4	10	[0, 0, 0]	n/a	catFR1	5	R1501J
1041.083	0.9	1206773	WORD_OFF	n/a	n/a	CORKSCREW	KitchenTools	4	10	[0, 0, 0]	n/a	catFR1	5	R1501J
1041.983	1.617	1207672	WORD	n/a	wordpools/wordpool_categorized_EN.txt	SQUID	OceanAnimals	5	10	[0, 0, 0]	n/a	catFR1	5	R1501J
1043.6	0.983	1209286	WORD_OFF	n/a	n/a	SQUID	OceanAnimals	5	10	[0, 0, 0]	n/a	catFR1	5	R1501J
1044.583	1.6	1210278	WORD	n/a	wordpools/wordpool_categorized_EN.txt	TURTLE	OceanAnimals	6	10	[0, 0, 0]	n/a	catFR1	5	R1501J
1046.183	0.85	1211865	WORD_OFF	n/a	n/a	TURTLE	OceanAnimals	6	10	[0, 0, 0]	n/a	catFR1	5	R1501J
1047.033	1.6	1212725	WORD	n/a	wordpools/wordpool_categorized_EN.txt	GRAPE	Fruit	7	10	[0, 0, 0]	n/a	catFR1	5	R1501J
1048.633	0.899	1214325	WORD_OFF	n/a	n/a	GRAPE	Fruit	7	10	[0, 0, 0]	n/a	catFR1	5	R1501J
1049.532	1.601	1215225	WORD	n/a	wordpools/wordpool_categorized_EN.txt	APPLE	Fruit	8	10	[0, 0, 0]	n/a	catFR1	5	R1501J
1051.133	0.783	1216825	WORD_OFF	n/a	n/a	APPLE	Fruit	8	10	[0, 0, 0]	n/a	catFR1	5	R1501J
1051.916	1.6	1217606	WORD	n/a	wordpools/wordpool_categorized_EN.txt	TONGS	KitchenTools	9	10	[0, 0, 0]	n/a	catFR1	5	R1501J
1053.516	0.885	1219206	WORD_OFF	n/a	n/a	TONGS	KitchenTools	9	10	[0, 0, 0]	n/a	catFR1	5	R1501J
1054.401	1.599	1220092	WORD	n/a	wordpools/wordpool_categorized_EN.txt	WHISK	KitchenTools	10	10	[0, 0, 0]	n/a	catFR1	5	R1501J
1056.0	0.766	1221693	WORD_OFF	n/a	n/a	WHISK	KitchenTools	10	10	[0, 0, 0]	n/a	catFR1	5	R1501J
1056.766	1.6	1222447	WORD	n/a	wordpools/wordpool_categorized_EN.txt	SHRIMP	OceanAnimals	11	10	[0, 0, 0]	n/a	catFR1	5	R1501J
1058.366	0.934	1224060	WORD_OFF	n/a	n/a	SHRIMP	OceanAnimals	11	10	[0, 0, 0]	n/a	catFR1	5	R1501J
1059.3	1.6	1224986	WORD	n/a	wordpools/wordpool_categorized_EN.txt	JELLYFISH	OceanAnimals	12	10	[0, 0, 0]	n/a	catFR1	5	R1501J
1060.9	0.001	1226587	WORD_OFF	n/a	n/a	JELLYFISH	OceanAnimals	12	10	[0, 0, 0]	n/a	catFR1	5	R1501J
1060.901	0.0	1226587	ENCODING_END	n/a	n/a	n/a	n/a	-999	10	[0, 0, 0]	n/a	catFR1	5	R1501J
1060.901	0.0	1226587	DISTRACT_START	n/a	n/a	n/a	n/a	-999	10	[0, 0, 0]	n/a	catFR1	5	R1501J
1060.9	0.001	1226587	PROB	0.001	n/a	n/a	n/a	-999	10	[7, 5, 2]	14	catFR1	5	R1501J
1060.901	11.149	1226588	START	n/a	n/a	n/a	n/a	-999	10	[-999, -999, -999]	n/a	catFR1	5	R1501J
1072.05	4.983	1237736	PROB	4.983	n/a	n/a	n/a	-999	10	[5, 4, 5]	14	catFR1	5	R1501J
1077.033	7.983	1242719	PROB	7.983	n/a	n/a	n/a	-999	10	[1, 4, 3]	8	catFR1	5	R1501J
1085.016	0.0	1250699	DISTRACT_END	n/a	n/a	n/a	n/a	-999	10	[0, 0, 0]	n/a	catFR1	5	R1501J
1085.016	1.132	1250702	STOP	n/a	n/a	n/a	n/a	-999	10	[-999, -999, -999]	n/a	catFR1	5	R1501J
1086.148	0.938	1251836	REC_START	n/a	n/a	n/a	n/a	-999	10	[0, 0, 0]	n/a	catFR1	5	R1501J
1087.086	1.626	1252772	REC_WORD	1.626	n/a	LIME	Fruit	1	10	[0, 0, 0]	n/a	catFR1	5	R1501J
1088.712	1.829	1254397	REC_WORD	1.829	n/a	BANANA	Fruit	2	10	[0, 0, 0]	n/a	catFR1	5	R1501J
1090.541	3.147	1256226	REC_WORD_VV	3.147	n/a	<>	n/a	-999	10	[0, 0, 0]	n/a	catFR1	5	R1501J
1093.688	3.436	1259373	REC_WORD_VV	3.436	n/a	<>	n/a	-999	10	[0, 0, 0]	n/a	catFR1	5	R1501J
1097.124	1.465	1262809	REC_WORD	1.465	n/a	CORKSCREW	KitchenTools	4	10	[0, 0, 0]	n/a	catFR1	5	R1501J
1098.589	5.949	1264274	REC_WORD	5.949	n/a	SCREWDRIVER	n/a	-999	10	[0, 0, 0]	n/a	catFR1	5	R1501J
1104.538	6.361	1270223	REC_WORD	6.361	n/a	COLANDER	n/a	-999	10	[0, 0, 0]	n/a	catFR1	5	R1501J
1110.899	1.187	1276584	REC_WORD	1.187	n/a	GRAPE	Fruit	7	10	[0, 0, 0]	n/a	catFR1	5	R1501J
1112.086	0.967	1277770	REC_WORD	0.967	n/a	APPLE	Fruit	8	10	[0, 0, 0]	n/a	catFR1	5	R1501J
1113.053	1.0	1278737	REC_WORD	1.0	n/a	STRAWBERRY	Fruit	-999	10	[0, 0, 0]	n/a	catFR1	5	R1501J
1114.053	3.304	1279737	REC_WORD_VV	3.304	n/a	<>	n/a	-999	10	[0, 0, 0]	n/a	catFR1	5	R1501J
1117.357	1.592	1283038	REC_END	n/a	n/a	n/a	n/a	-999	10	[0, 0, 0]	n/a	catFR1	5	R1501J
1118.949	10.35	1284638	COUNTDOWN_START	n/a	n/a	n/a	n/a	-999	10	[0, 0, 0]	n/a	catFR1	5	R1501J
1129.299	0.0	1294982	COUNTDOWN_END	n/a	n/a	n/a	n/a	-999	10	[0, 0, 0]	n/a	catFR1	5	R1501J
1129.299	2.032	1294982	ENCODING_START	n/a	n/a	n/a	n/a	-999	11	[0, 0, 0]	n/a	catFR1	5	R1501J
1131.331	1.6	1297019	WORD	n/a	wordpools/wordpool_categorized_EN.txt	HURRICANE	Weather	1	11	[0, 0, 0]	n/a	catFR1	5	R1501J
1132.931	0.783	1298619	WORD_OFF	n/a	n/a	HURRICANE	Weather	1	11	[0, 0, 0]	n/a	catFR1	5	R1501J
1133.714	1.617	1299399	WORD	n/a	wordpools/wordpool_categorized_EN.txt	DRIZZLE	Weather	2	11	[0, 0, 0]	n/a	catFR1	5	R1501J
1135.331	0.851	1301013	WORD_OFF	n/a	n/a	DRIZZLE	Weather	2	11	[0, 0, 0]	n/a	catFR1	5	R1501J
1136.182	1.617	1301860	WORD	n/a	wordpools/wordpool_categorized_EN.txt	TELEVISION	Electronics	3	11	[0, 0, 0]	n/a	catFR1	5	R1501J
1137.799	0.9	1303486	WORD_OFF	n/a	n/a	TELEVISION	Electronics	3	11	[0, 0, 0]	n/a	catFR1	5	R1501J
1138.699	1.616	1304386	WORD	n/a	wordpools/wordpool_categorized_EN.txt	PRINTER	Electronics	4	11	[0, 0, 0]	n/a	catFR1	5	R1501J
1140.315	0.917	1305999	WORD_OFF	n/a	n/a	PRINTER	Electronics	4	11	[0, 0, 0]	n/a	catFR1	5	R1501J
1141.232	1.616	1306912	WORD	n/a	wordpools/wordpool_categorized_EN.txt	PEN	OfficeSupplies	5	11	[0, 0, 0]	n/a	catFR1	5	R1501J
1142.848	0.834	1308526	WORD_OFF	n/a	n/a	PEN	OfficeSupplies	5	11	[0, 0, 0]	n/a	catFR1	5	R1501J
1143.682	1.6	1309359	WORD	n/a	wordpools/wordpool_categorized_EN.txt	FOLDER	OfficeSupplies	6	11	[0, 0, 0]	n/a	catFR1	5	R1501J
1145.282	0.833	1310959	WORD_OFF	n/a	n/a	FOLDER	OfficeSupplies	6	11	[0, 0, 0]	n/a	catFR1	5	R1501J
1146.115	1.615	1311793	WORD	n/a	wordpools/wordpool_categorized_EN.txt	SNOW	Weather	7	11	[0, 0, 0]	n/a	catFR1	5	R1501J
1147.73	0.884	1313420	WORD_OFF	n/a	n/a	SNOW	Weather	7	11	[0, 0, 0]	n/a	catFR1	5	R1501J
1148.614	1.602	1314293	WORD	n/a	wordpools/wordpool_categorized_EN.txt	HUMIDITY	Weather	8	11	[0, 0, 0]	n/a	catFR1	5	R1501J
1150.216	0.782	1315906	WORD_OFF	n/a	n/a	HUMIDITY	Weather	8	11	[0, 0, 0]	n/a	catFR1	5	R1501J
1150.998	1.601	1316687	WORD	n/a	wordpools/wordpool_categorized_EN.txt	PHONE	Electronics	9	11	[0, 0, 0]	n/a	catFR1	5	R1501J
1152.599	0.899	1318287	WORD_OFF	n/a	n/a	PHONE	Electronics	9	11	[0, 0, 0]	n/a	catFR1	5	R1501J
1153.498	1.617	1319186	WORD	n/a	wordpools/wordpool_categorized_EN.txt	RADIO	Electronics	10	11	[0, 0, 0]	n/a	catFR1	5	R1501J
1155.115	0.967	1320800	WORD_OFF	n/a	n/a	RADIO	Electronics	10	11	[0, 0, 0]	n/a	catFR1	5	R1501J
1156.082	1.616	1321766	WORD	n/a	wordpools/wordpool_categorized_EN.txt	GLUE	OfficeSupplies	11	11	[0, 0, 0]	n/a	catFR1	5	R1501J
1157.698	0.832	1323379	WORD_OFF	n/a	n/a	GLUE	OfficeSupplies	11	11	[0, 0, 0]	n/a	catFR1	5	R1501J
1158.53	1.601	1324213	WORD	n/a	wordpools/wordpool_categorized_EN.txt	RULER	OfficeSupplies	12	11	[0, 0, 0]	n/a	catFR1	5	R1501J
1160.131	0.001	1325813	WORD_OFF	n/a	n/a	RULER	OfficeSupplies	12	11	[0, 0, 0]	n/a	catFR1	5	R1501J
1160.132	0.0	1325813	ENCODING_END	n/a	n/a	n/a	n/a	-999	11	[0, 0, 0]	n/a	catFR1	5	R1501J
1160.132	0.0	1325813	DISTRACT_START	n/a	n/a	n/a	n/a	-999	11	[0, 0, 0]	n/a	catFR1	5	R1501J
1160.131	0.001	1325814	PROB	0.001	n/a	n/a	n/a	-999	11	[1, 8, 6]	15	catFR1	5	R1501J
1160.132	4.516	1325815	START	n/a	n/a	n/a	n/a	-999	11	[-999, -999, -999]	n/a	catFR1	5	R1501J
1164.648	2.45	1330330	PROB	2.45	n/a	n/a	n/a	-999	11	[2, 3, 1]	6	catFR1	5	R1501J
1167.098	8.567	1332780	PROB	8.567	n/a	n/a	n/a	-999	11	[8, 7, 8]	23	catFR1	5	R1501J
1175.665	3.032	1341347	PROB	3.032	n/a	n/a	n/a	-999	11	[3, 6, 4]	13	catFR1	5	R1501J
1178.697	3.767	1344379	PROB	3.767	n/a	n/a	n/a	-999	11	[3, 5, 1]	9	catFR1	5	R1501J
1182.464	0.0	1348146	STOP	n/a	n/a	n/a	n/a	-999	11	[-999, -999, -999]	n/a	catFR1	5	R1501J
1182.464	1.384	1348153	DISTRACT_END	n/a	n/a	n/a	n/a	-999	11	[0, 0, 0]	n/a	catFR1	5	R1501J
1183.848	1.167	1349528	REC_START	n/a	n/a	n/a	n/a	-999	11	[0, 0, 0]	n/a	catFR1	5	R1501J
1185.015	1.496	1350697	REC_WORD	1.496	n/a	TELEVISION	Electronics	3	11	[0, 0, 0]	n/a	catFR1	5	R1501J
1186.511	4.429	1352192	REC_WORD	4.429	n/a	PRINTER	Electronics	4	11	[0, 0, 0]	n/a	catFR1	5	R1501J
1190.94	2.038	1356621	REC_WORD	2.038	n/a	TELEVISION	Electronics	3	11	[0, 0, 0]	n/a	catFR1	5	R1501J
1192.978	1.811	1358659	REC_WORD	1.811	n/a	PRINTER	Electronics	4	11	[0, 0, 0]	n/a	catFR1	5	R1501J
1194.789	7.14	1360470	REC_WORD	7.14	n/a	RADIO	Electronics	10	11	[0, 0, 0]	n/a	catFR1	5	R1501J
1201.929	5.052	1367610	REC_WORD_VV	5.052	n/a	<>	n/a	-999	11	[0, 0, 0]	n/a	catFR1	5	R1501J
1206.981	0.901	1372662	REC_WORD_VV	0.901	n/a	<>	n/a	-999	11	[0, 0, 0]	n/a	catFR1	5	R1501J
1207.882	2.321	1373563	REC_WORD	2.321	n/a	WIND	Weather	-999	11	[0, 0, 0]	n/a	catFR1	5	R1501J
1210.203	2.125	1375883	REC_WORD	2.125	n/a	WINDY	n/a	-999	11	[0, 0, 0]	n/a	catFR1	5	R1501J
1212.328	2.744	1378008	REC_WORD	2.744	n/a	HURRICANE	Weather	1	11	[0, 0, 0]	n/a	catFR1	5	R1501J
1215.072	1.711	1380757	REC_END	n/a	n/a	n/a	n/a	-999	11	[0, 0, 0]	n/a	catFR1	5	R1501J
1216.783	10.349	1382463	COUNTDOWN_START	n/a	n/a	n/a	n/a	-999	11	[0, 0, 0]	n/a	catFR1	5	R1501J
1227.132	0.0	1392819	COUNTDOWN_END	n/a	n/a	n/a	n/a	-999	11	[0, 0, 0]	n/a	catFR1	5	R1501J
1227.132	2.234	1392819	ENCODING_START	n/a	n/a	n/a	n/a	-999	12	[0, 0, 0]	n/a	catFR1	5	R1501J
1229.366	1.617	1395041	WORD	n/a	wordpools/wordpool_categorized_EN.txt	SUEDE	Fabric	1	12	[0, 0, 0]	n/a	catFR1	5	R1501J
1230.983	0.767	1396668	WORD_OFF	n/a	n/a	SUEDE	Fabric	1	12	[0, 0, 0]	n/a	catFR1	5	R1501J
1231.75	1.6	1397435	WORD	n/a	wordpools/wordpool_categorized_EN.txt	SILK	Fabric	2	12	[0, 0, 0]	n/a	catFR1	5	R1501J
1233.35	0.833	1399036	WORD_OFF	n/a	n/a	SILK	Fabric	2	12	[0, 0, 0]	n/a	catFR1	5	R1501J
1234.183	1.6	1399869	WORD	n/a	wordpools/wordpool_categorized_EN.txt	MICROWAVE	Electronics	3	12	[0, 0, 0]	n/a	catFR1	5	R1501J
1235.783	0.767	1401456	WORD_OFF	n/a	n/a	MICROWAVE	Electronics	3	12	[0, 0, 0]	n/a	catFR1	5	R1501J
1236.55	1.616	1402223	WORD	n/a	wordpools/wordpool_categorized_EN.txt	SPEAKER	Electronics	4	12	[0, 0, 0]	n/a	catFR1	5	R1501J
1238.166	1.001	1403850	WORD_OFF	n/a	n/a	SPEAKER	Electronics	4	12	[0, 0, 0]	n/a	catFR1	5	R1501J
1239.167	1.599	1404842	WORD	n/a	wordpools/wordpool_categorized_EN.txt	LAKE	Landscapes	5	12	[0, 0, 0]	n/a	catFR1	5	R1501J
1240.766	0.9	1406443	WORD_OFF	n/a	n/a	LAKE	Landscapes	5	12	[0, 0, 0]	n/a	catFR1	5	R1501J
1241.666	1.601	1407342	WORD	n/a	wordpools/wordpool_categorized_EN.txt	VALLEY	Landscapes	6	12	[0, 0, 0]	n/a	catFR1	5	R1501J
1243.267	0.833	1408942	WORD_OFF	n/a	n/a	VALLEY	Landscapes	6	12	[0, 0, 0]	n/a	catFR1	5	R1501J
1244.1	1.6	1409776	WORD	n/a	wordpools/wordpool_categorized_EN.txt	NYLON	Fabric	7	12	[0, 0, 0]	n/a	catFR1	5	R1501J
1245.7	0.933	1411376	WORD_OFF	n/a	n/a	NYLON	Fabric	7	12	[0, 0, 0]	n/a	catFR1	5	R1501J
1246.633	1.6	1412315	WORD	n/a	wordpools/wordpool_categorized_EN.txt	COTTON	Fabric	8	12	[0, 0, 0]	n/a	catFR1	5	R1501J
1248.233	0.832	1413916	WORD_OFF	n/a	n/a	COTTON	Fabric	8	12	[0, 0, 0]	n/a	catFR1	5	R1501J
1249.065	1.601	1414749	WORD	n/a	wordpools/wordpool_categorized_EN.txt	STEREO	Electronics	9	12	[0, 0, 0]	n/a	catFR1	5	R1501J
1250.666	0.767	1416349	WORD_OFF	n/a	n/a	STEREO	Electronics	9	12	[0, 0, 0]	n/a	catFR1	5	R1501J
1251.433	1.6	1417117	WORD	n/a	wordpools/wordpool_categorized_EN.txt	SCANNER	Electronics	10	12	[0, 0, 0]	n/a	catFR1	5	R1501J
1253.033	0.8	1418717	WORD_OFF	n/a	n/a	SCANNER	Electronics	10	12	[0, 0, 0]	n/a	catFR1	5	R1501J
1253.833	1.6	1419511	WORD	n/a	wordpools/wordpool_categorized_EN.txt	BEACH	Landscapes	11	12	[0, 0, 0]	n/a	catFR1	5	R1501J
1255.433	0.783	1421111	WORD_OFF	n/a	n/a	BEACH	Landscapes	11	12	[0, 0, 0]	n/a	catFR1	5	R1501J
1256.216	1.601	1421891	WORD	n/a	wordpools/wordpool_categorized_EN.txt	WOODS	Landscapes	12	12	[0, 0, 0]	n/a	catFR1	5	R1501J
1257.817	0.001	1423492	WORD_OFF	n/a	n/a	WOODS	Landscapes	12	12	[0, 0, 0]	n/a	catFR1	5	R1501J
1257.818	0.0	1423492	ENCODING_END	n/a	n/a	n/a	n/a	-999	12	[0, 0, 0]	n/a	catFR1	5	R1501J
1257.817	0.001	1423496	PROB	0.001	n/a	n/a	n/a	-999	12	[7, 6, 1]	14	catFR1	5	R1501J
1257.818	0.0	1423497	START	n/a	n/a	n/a	n/a	-999	12	[-999, -999, -999]	n/a	catFR1	5	R1501J
1257.818	2.932	1423505	DISTRACT_START	n/a	n/a	n/a	n/a	-999	12	[0, 0, 0]	n/a	catFR1	5	R1501J
1260.75	4.751	1426428	PROB	4.751	n/a	n/a	n/a	-999	12	[8, 7, 7]	22	catFR1	5	R1501J
1265.501	4.233	1431179	PROB	4.233	n/a	n/a	n/a	-999	12	[1, 7, 6]	14	catFR1	5	R1501J
1269.734	4.367	1435412	PROB	4.367	n/a	n/a	n/a	-999	12	[6, 2, 1]	9	catFR1	5	R1501J
1274.101	4.732	1439779	PROB	4.732	n/a	n/a	n/a	-999	12	[6, 1, 2]	9	catFR1	5	R1501J
1278.833	0.0	1444509	DISTRACT_END	n/a	n/a	n/a	n/a	-999	12	[0, 0, 0]	n/a	catFR1	5	R1501J
1278.833	1.266	1444511	STOP	n/a	n/a	n/a	n/a	-999	12	[-999, -999, -999]	n/a	catFR1	5	R1501J
1280.099	0.432	1445779	REC_START	n/a	n/a	n/a	n/a	-999	12	[0, 0, 0]	n/a	catFR1	5	R1501J
1280.531	1.094	1446209	REC_WORD	1.094	n/a	SUEDE	Fabric	1	12	[0, 0, 0]	n/a	catFR1	5	R1501J
1281.625	1.232	1447303	REC_WORD	1.232	n/a	SILK	Fabric	2	12	[0, 0, 0]	n/a	catFR1	5	R1501J
1282.857	1.516	1448535	REC_WORD	1.516	n/a	NYLON	Fabric	7	12	[0, 0, 0]	n/a	catFR1	5	R1501J
1284.373	2.177	1450050	REC_WORD	2.177	n/a	COTTON	Fabric	8	12	[0, 0, 0]	n/a	catFR1	5	R1501J
1286.55	1.294	1452227	REC_WORD	1.294	n/a	MICROWAVE	Electronics	3	12	[0, 0, 0]	n/a	catFR1	5	R1501J
1287.844	3.404	1453521	REC_WORD	3.404	n/a	SCANNER	Electronics	10	12	[0, 0, 0]	n/a	catFR1	5	R1501J
1291.248	0.97	1456925	REC_WORD	0.97	n/a	PRINTER	Electronics	-999	12	[0, 0, 0]	n/a	catFR1	5	R1501J
1292.218	2.201	1457895	REC_WORD_VV	2.201	n/a	<>	n/a	-999	12	[0, 0, 0]	n/a	catFR1	5	R1501J
1294.419	1.629	1460096	REC_WORD_VV	1.629	n/a	<>	n/a	-999	12	[0, 0, 0]	n/a	catFR1	5	R1501J
1296.048	1.0	1461725	REC_WORD	1.0	n/a	SPANDEX	Fabric	-999	12	[0, 0, 0]	n/a	catFR1	5	R1501J
1297.048	14.281	1462725	REC_WORD_VV	14.281	n/a	<>	n/a	-999	12	[0, 0, 0]	n/a	catFR1	5	R1501J
1311.329	0.0	1477007	REC_END	n/a	n/a	n/a	n/a	-999	12	[0, 0, 0]	n/a	catFR1	5	R1501J
