onset	duration	sample	trial_type	response_time	stim_file	item_name	category	serialpos	list	test	answer	experiment	session	subject
0.0	164.815	166392	INSTRUCT_START	n/a	n/a	n/a	n/a	-999	-999	[0, 0, 0]	n/a	catFR1	0	R1492J
164.815	84.069	331190	INSTRUCT_END	n/a	n/a	n/a	n/a	-999	-999	[0, 0, 0]	n/a	catFR1	0	R1492J
248.884	10.0	415257	COUNTDOWN_START	n/a	n/a	n/a	n/a	-999	-999	[0, 0, 0]	n/a	catFR1	0	R1492J
259.232	0.0	425609	COUNTDOWN_END	n/a	n/a	n/a	n/a	-999	-999	[0, 0, 0]	n/a	catFR1	0	R1492J
259.232	2.052	425609	ENCODING_START	n/a	n/a	n/a	n/a	-999	-1	[0, 0, 0]	n/a	catFR1	0	R1492J
261.284	1.6	427657	WORD	n/a	n/a	WALNUT	Trees	1	-1	[0, 0, 0]	n/a	catFR1	0	R1492J
262.9	0.916	429271	WORD_OFF	n/a	n/a	WALNUT	Trees	1	-1	[0, 0, 0]	n/a	catFR1	0	R1492J
263.816	1.6	430190	WORD	n/a	n/a	PINE	Trees	2	-1	[0, 0, 0]	n/a	catFR1	0	R1492J
265.416	0.767	431794	WORD_OFF	n/a	n/a	PINE	Trees	2	-1	[0, 0, 0]	n/a	catFR1	0	R1492J
266.183	1.6	432553	WORD	n/a	n/a	OVEN	Appliances	3	-1	[0, 0, 0]	n/a	catFR1	0	R1492J
267.8	0.833	434179	WORD_OFF	n/a	n/a	OVEN	Appliances	3	-1	[0, 0, 0]	n/a	catFR1	0	R1492J
268.633	1.6	435012	WORD	n/a	n/a	DRYER	Appliances	4	-1	[0, 0, 0]	n/a	catFR1	0	R1492J
270.25	1.016	436627	WORD_OFF	n/a	n/a	DRYER	Appliances	4	-1	[0, 0, 0]	n/a	catFR1	0	R1492J
271.266	1.6	437640	WORD	n/a	n/a	OCEAN	Landscapes	5	-1	[0, 0, 0]	n/a	catFR1	0	R1492J
272.883	0.85	439255	WORD_OFF	n/a	n/a	OCEAN	Landscapes	5	-1	[0, 0, 0]	n/a	catFR1	0	R1492J
273.733	1.6	440110	WORD	n/a	n/a	RIVER	Landscapes	6	-1	[0, 0, 0]	n/a	catFR1	0	R1492J
275.35	0.816	441724	WORD_OFF	n/a	n/a	RIVER	Landscapes	6	-1	[0, 0, 0]	n/a	catFR1	0	R1492J
276.166	1.6	442537	WORD	n/a	n/a	BLENDER	Appliances	7	-1	[0, 0, 0]	n/a	catFR1	0	R1492J
277.783	0.9	444162	WORD_OFF	n/a	n/a	BLENDER	Appliances	7	-1	[0, 0, 0]	n/a	catFR1	0	R1492J
278.683	1.6	445059	WORD	n/a	n/a	DISHWASHER	Appliances	8	-1	[0, 0, 0]	n/a	catFR1	0	R1492J
280.299	0.834	446674	WORD_OFF	n/a	n/a	DISHWASHER	Appliances	8	-1	[0, 0, 0]	n/a	catFR1	0	R1492J
281.133	1.6	447507	WORD	n/a	n/a	HICKORY	Trees	9	-1	[0, 0, 0]	n/a	catFR1	0	R1492J
282.749	0.967	449122	WORD_OFF	n/a	n/a	HICKORY	Trees	9	-1	[0, 0, 0]	n/a	catFR1	0	R1492J
283.716	1.6	450093	WORD	n/a	n/a	CEDAR	Trees	10	-1	[0, 0, 0]	n/a	catFR1	0	R1492J
285.316	0.815	451686	WORD_OFF	n/a	n/a	CEDAR	Trees	10	-1	[0, 0, 0]	n/a	catFR1	0	R1492J
286.131	1.6	452510	WORD	n/a	n/a	STREAM	Landscapes	11	-1	[0, 0, 0]	n/a	catFR1	0	R1492J
287.733	0.999	454103	WORD_OFF	n/a	n/a	STREAM	Landscapes	11	-1	[0, 0, 0]	n/a	catFR1	0	R1492J
288.732	1.6	455106	WORD	n/a	n/a	ISLAND	Landscapes	12	-1	[0, 0, 0]	n/a	catFR1	0	R1492J
290.348	0.001	456720	WORD_OFF	n/a	n/a	ISLAND	Landscapes	12	-1	[0, 0, 0]	n/a	catFR1	0	R1492J
290.349	0.0	456720	ENCODING_END	n/a	n/a	n/a	n/a	-999	-1	[0, 0, 0]	n/a	catFR1	0	R1492J
290.349	0.0	456726	START	n/a	n/a	n/a	n/a	-999	-1	[-999, -999, -999]	n/a	catFR1	0	R1492J
290.349	0.0	456726	PROB	24.133	n/a	n/a	n/a	-999	-1	[1, 8, 1]	9.0	catFR1	0	R1492J
290.349	24.149	456731	DISTRACT_START	n/a	n/a	n/a	n/a	-999	-1	[0, 0, 0]	n/a	catFR1	0	R1492J
314.498	0.0	480866	DISTRACT_END	n/a	n/a	n/a	n/a	-999	-1	[0, 0, 0]	n/a	catFR1	0	R1492J
314.498	2.3	480874	STOP	n/a	n/a	n/a	n/a	-999	-1	[-999, -999, -999]	n/a	catFR1	0	R1492J
316.798	4.218	483174	REC_START	n/a	n/a	n/a	n/a	-999	-1	[0, 0, 0]	n/a	catFR1	0	R1492J
321.016	0.999	487392	REC_WORD_VV	4.218	n/a	<>	n/a	-999	-1	[0, 0, 0]	n/a	catFR1	0	R1492J
322.015	2.107	488391	REC_WORD_VV	5.217	n/a	<>	n/a	-999	-1	[0, 0, 0]	n/a	catFR1	0	R1492J
324.122	1.149	490498	REC_WORD_VV	7.324	n/a	<>	n/a	-999	-1	[0, 0, 0]	n/a	catFR1	0	R1492J
325.271	2.118	491647	REC_WORD	8.473	n/a	OVEN	Appliances	3	-1	[0, 0, 0]	n/a	catFR1	0	R1492J
327.389	2.569	493765	REC_WORD	10.591	n/a	DISHWASHER	Appliances	8	-1	[0, 0, 0]	n/a	catFR1	0	R1492J
329.958	1.42	496334	REC_WORD_VV	13.16	n/a	<>	n/a	-999	-1	[0, 0, 0]	n/a	catFR1	0	R1492J
331.378	1.352	497754	REC_WORD_VV	14.58	n/a	<>	n/a	-999	-1	[0, 0, 0]	n/a	catFR1	0	R1492J
332.73	1.0	499106	REC_WORD_VV	15.932	n/a	<>	n/a	-999	-1	[0, 0, 0]	n/a	catFR1	0	R1492J
333.73	1.0	500106	REC_WORD_VV	16.932	n/a	<>	n/a	-999	-1	[0, 0, 0]	n/a	catFR1	0	R1492J
334.73	0.587	501106	REC_WORD_VV	17.932	n/a	<>	n/a	-999	-1	[0, 0, 0]	n/a	catFR1	0	R1492J
335.317	2.192	501693	REC_WORD	18.519	n/a	DRYER	Appliances	4	-1	[0, 0, 0]	n/a	catFR1	0	R1492J
337.509	1.0	503885	REC_WORD_VV	20.711	n/a	<>	n/a	-999	-1	[0, 0, 0]	n/a	catFR1	0	R1492J
338.509	1.788	504885	REC_WORD_VV	21.711	n/a	<>	n/a	-999	-1	[0, 0, 0]	n/a	catFR1	0	R1492J
340.297	2.544	506672	REC_WORD_VV	23.499	n/a	<>	n/a	-999	-1	[0, 0, 0]	n/a	catFR1	0	R1492J
342.841	4.146	509216	REC_WORD_VV	26.043	n/a	<>	n/a	-999	-1	[0, 0, 0]	n/a	catFR1	0	R1492J
346.987	52.144	513359	REC_END	n/a	n/a	n/a	n/a	-999	-1	[0, 0, 0]	n/a	catFR1	0	R1492J
399.131	10.0	565502	COUNTDOWN_START	n/a	n/a	n/a	n/a	-999	1	[0, 0, 0]	n/a	catFR1	0	R1492J
409.482	0.0	575855	COUNTDOWN_END	n/a	n/a	n/a	n/a	-999	1	[0, 0, 0]	n/a	catFR1	0	R1492J
409.482	2.149	575855	ENCODING_START	n/a	n/a	n/a	n/a	-999	1	[0, 0, 0]	n/a	catFR1	0	R1492J
411.631	1.6	577997	WORD	n/a	wordpools/wordpool_categorized_EN.txt	COLA	Beverages	1	1	[0, 0, 0]	n/a	catFR1	0	R1492J
413.231	0.884	579602	WORD_OFF	n/a	n/a	COLA	Beverages	1	1	[0, 0, 0]	n/a	catFR1	0	R1492J
414.115	1.6	580488	WORD	n/a	wordpools/wordpool_categorized_EN.txt	RUM	Beverages	2	1	[0, 0, 0]	n/a	catFR1	0	R1492J
415.732	0.932	582103	WORD_OFF	n/a	n/a	RUM	Beverages	2	1	[0, 0, 0]	n/a	catFR1	0	R1492J
416.664	1.6	583031	WORD	n/a	wordpools/wordpool_categorized_EN.txt	OAK	Trees	3	1	[0, 0, 0]	n/a	catFR1	0	R1492J
418.265	0.817	584635	WORD_OFF	n/a	n/a	OAK	Trees	3	1	[0, 0, 0]	n/a	catFR1	0	R1492J
419.082	1.6	585448	WORD	n/a	wordpools/wordpool_categorized_EN.txt	ELM	Trees	4	1	[0, 0, 0]	n/a	catFR1	0	R1492J
420.698	0.833	587063	WORD_OFF	n/a	n/a	ELM	Trees	4	1	[0, 0, 0]	n/a	catFR1	0	R1492J
421.531	1.6	587896	WORD	n/a	wordpools/wordpool_categorized_EN.txt	ORCHID	Flowers	5	1	[0, 0, 0]	n/a	catFR1	0	R1492J
423.147	0.934	589511	WORD_OFF	n/a	n/a	ORCHID	Flowers	5	1	[0, 0, 0]	n/a	catFR1	0	R1492J
424.081	1.6	590450	WORD	n/a	wordpools/wordpool_categorized_EN.txt	DAFFODIL	Flowers	6	1	[0, 0, 0]	n/a	catFR1	0	R1492J
425.682	0.801	592054	WORD_OFF	n/a	n/a	DAFFODIL	Flowers	6	1	[0, 0, 0]	n/a	catFR1	0	R1492J
426.483	1.6	592848	WORD	n/a	wordpools/wordpool_categorized_EN.txt	SPRUCE	Trees	7	1	[0, 0, 0]	n/a	catFR1	0	R1492J
428.098	0.935	594471	WORD_OFF	n/a	n/a	SPRUCE	Trees	7	1	[0, 0, 0]	n/a	catFR1	0	R1492J
429.033	1.6	595400	WORD	n/a	wordpools/wordpool_categorized_EN.txt	BIRCH	Trees	8	1	[0, 0, 0]	n/a	catFR1	0	R1492J
430.648	0.967	597014	WORD_OFF	n/a	n/a	BIRCH	Trees	8	1	[0, 0, 0]	n/a	catFR1	0	R1492J
431.615	1.6	597985	WORD	n/a	wordpools/wordpool_categorized_EN.txt	LEMONADE	Beverages	9	1	[0, 0, 0]	n/a	catFR1	0	R1492J
433.23	0.885	599600	WORD_OFF	n/a	n/a	LEMONADE	Beverages	9	1	[0, 0, 0]	n/a	catFR1	0	R1492J
434.115	1.6	600486	WORD	n/a	wordpools/wordpool_categorized_EN.txt	COFFEE	Beverages	10	1	[0, 0, 0]	n/a	catFR1	0	R1492J
435.73	0.951	602101	WORD_OFF	n/a	n/a	COFFEE	Beverages	10	1	[0, 0, 0]	n/a	catFR1	0	R1492J
436.681	1.6	603051	WORD	n/a	wordpools/wordpool_categorized_EN.txt	SUNFLOWER	Flowers	11	1	[0, 0, 0]	n/a	catFR1	0	R1492J
438.298	0.95	604665	WORD_OFF	n/a	n/a	SUNFLOWER	Flowers	11	1	[0, 0, 0]	n/a	catFR1	0	R1492J
439.248	1.6	605615	WORD	n/a	wordpools/wordpool_categorized_EN.txt	ROSE	Flowers	12	1	[0, 0, 0]	n/a	catFR1	0	R1492J
440.865	0.001	607230	WORD_OFF	n/a	n/a	ROSE	Flowers	12	1	[0, 0, 0]	n/a	catFR1	0	R1492J
440.866	0.0	607230	ENCODING_END	n/a	n/a	n/a	n/a	-999	1	[0, 0, 0]	n/a	catFR1	0	R1492J
440.865	0.001	607236	PROB	7.849	n/a	n/a	n/a	-999	1	[5, 2, 3]	10.0	catFR1	0	R1492J
440.866	0.0	607237	START	n/a	n/a	n/a	n/a	-999	1	[-999, -999, -999]	n/a	catFR1	0	R1492J
440.866	7.866	607240	DISTRACT_START	n/a	n/a	n/a	n/a	-999	1	[0, 0, 0]	n/a	catFR1	0	R1492J
448.732	6.632	615103	PROB	6.616	n/a	n/a	n/a	-999	1	[3, 3, 8]	14.0	catFR1	0	R1492J
455.364	4.933	621735	PROB	4.917	n/a	n/a	n/a	-999	1	[1, 7, 2]	10.0	catFR1	0	R1492J
460.297	3.984	626668	PROB	3.967	n/a	n/a	n/a	-999	1	[2, 5, 1]	8.0	catFR1	0	R1492J
464.281	0.0	630647	DISTRACT_END	n/a	n/a	n/a	n/a	-999	1	[0, 0, 0]	n/a	catFR1	0	R1492J
464.281	2.333	630651	STOP	n/a	n/a	n/a	n/a	-999	1	[-999, -999, -999]	n/a	catFR1	0	R1492J
466.614	0.81	632977	REC_START	n/a	n/a	n/a	n/a	-999	1	[0, 0, 0]	n/a	catFR1	0	R1492J
467.424	0.49	633794	REC_WORD	0.81	n/a	ROSE	Flowers	12	1	[0, 0, 0]	n/a	catFR1	0	R1492J
467.914	28.863	634284	REC_WORD	1.3	n/a	SUNFLOWER	Flowers	11	1	[0, 0, 0]	n/a	catFR1	0	R1492J
496.777	13.654	663140	REC_END	n/a	n/a	n/a	n/a	-999	1	[0, 0, 0]	n/a	catFR1	0	R1492J
510.431	10.0	676796	COUNTDOWN_START	n/a	n/a	n/a	n/a	-999	2	[0, 0, 0]	n/a	catFR1	0	R1492J
520.781	0.0	687149	COUNTDOWN_END	n/a	n/a	n/a	n/a	-999	2	[0, 0, 0]	n/a	catFR1	0	R1492J
520.781	2.067	687149	ENCODING_START	n/a	n/a	n/a	n/a	-999	2	[0, 0, 0]	n/a	catFR1	0	R1492J
522.848	1.6	689217	WORD	n/a	wordpools/wordpool_categorized_EN.txt	OYSTER	OceanAnimals	1	2	[0, 0, 0]	n/a	catFR1	0	R1492J
524.448	0.849	690811	WORD_OFF	n/a	n/a	OYSTER	OceanAnimals	1	2	[0, 0, 0]	n/a	catFR1	0	R1492J
525.297	1.6	691666	WORD	n/a	wordpools/wordpool_categorized_EN.txt	TURTLE	OceanAnimals	2	2	[0, 0, 0]	n/a	catFR1	0	R1492J
526.898	0.9	693259	WORD_OFF	n/a	n/a	TURTLE	OceanAnimals	2	2	[0, 0, 0]	n/a	catFR1	0	R1492J
527.798	1.6	694167	WORD	n/a	wordpools/wordpool_categorized_EN.txt	LIGHTNING	Weather	3	2	[0, 0, 0]	n/a	catFR1	0	R1492J
529.399	0.816	695760	WORD_OFF	n/a	n/a	LIGHTNING	Weather	3	2	[0, 0, 0]	n/a	catFR1	0	R1492J
530.215	1.6	696573	WORD	n/a	wordpools/wordpool_categorized_EN.txt	CLOUD	Weather	4	2	[0, 0, 0]	n/a	catFR1	0	R1492J
531.815	0.784	698177	WORD_OFF	n/a	n/a	CLOUD	Weather	4	2	[0, 0, 0]	n/a	catFR1	0	R1492J
532.599	1.6	698958	WORD	n/a	wordpools/wordpool_categorized_EN.txt	BROCCOLI	Vegetables	5	2	[0, 0, 0]	n/a	catFR1	0	R1492J
534.215	0.917	700583	WORD_OFF	n/a	n/a	BROCCOLI	Vegetables	5	2	[0, 0, 0]	n/a	catFR1	0	R1492J
535.132	1.6	701491	WORD	n/a	wordpools/wordpool_categorized_EN.txt	CELERY	Vegetables	6	2	[0, 0, 0]	n/a	catFR1	0	R1492J
536.731	0.8	703095	WORD_OFF	n/a	n/a	CELERY	Vegetables	6	2	[0, 0, 0]	n/a	catFR1	0	R1492J
537.531	1.6	703897	WORD	n/a	wordpools/wordpool_categorized_EN.txt	HURRICANE	Weather	7	2	[0, 0, 0]	n/a	catFR1	0	R1492J
539.132	0.816	705490	WORD_OFF	n/a	n/a	HURRICANE	Weather	7	2	[0, 0, 0]	n/a	catFR1	0	R1492J
539.948	1.6	706314	WORD	n/a	wordpools/wordpool_categorized_EN.txt	TORNADO	Weather	8	2	[0, 0, 0]	n/a	catFR1	0	R1492J
541.564	0.801	707928	WORD_OFF	n/a	n/a	TORNADO	Weather	8	2	[0, 0, 0]	n/a	catFR1	0	R1492J
542.365	1.6	708730	WORD	n/a	wordpools/wordpool_categorized_EN.txt	PLANKTON	OceanAnimals	9	2	[0, 0, 0]	n/a	catFR1	0	R1492J
543.965	0.849	710324	WORD_OFF	n/a	n/a	PLANKTON	OceanAnimals	9	2	[0, 0, 0]	n/a	catFR1	0	R1492J
544.814	1.6	711179	WORD	n/a	wordpools/wordpool_categorized_EN.txt	SQUID	OceanAnimals	10	2	[0, 0, 0]	n/a	catFR1	0	R1492J
546.432	0.883	712793	WORD_OFF	n/a	n/a	SQUID	OceanAnimals	10	2	[0, 0, 0]	n/a	catFR1	0	R1492J
547.315	1.6	713680	WORD	n/a	wordpools/wordpool_categorized_EN.txt	CAULIFLOWER	Vegetables	11	2	[0, 0, 0]	n/a	catFR1	0	R1492J
548.915	0.8	715273	WORD_OFF	n/a	n/a	CAULIFLOWER	Vegetables	11	2	[0, 0, 0]	n/a	catFR1	0	R1492J
549.715	1.6	716075	WORD	n/a	wordpools/wordpool_categorized_EN.txt	CABBAGE	Vegetables	12	2	[0, 0, 0]	n/a	catFR1	0	R1492J
551.315	0.001	717679	WORD_OFF	n/a	n/a	CABBAGE	Vegetables	12	2	[0, 0, 0]	n/a	catFR1	0	R1492J
551.316	0.0	717679	ENCODING_END	n/a	n/a	n/a	n/a	-999	2	[0, 0, 0]	n/a	catFR1	0	R1492J
551.316	0.0	717679	DISTRACT_START	n/a	n/a	n/a	n/a	-999	2	[0, 0, 0]	n/a	catFR1	0	R1492J
551.315	0.001	717682	PROB	7.932	n/a	n/a	n/a	-999	2	[1, 6, 5]	11.0	catFR1	0	R1492J
551.316	7.949	717683	START	n/a	n/a	n/a	n/a	-999	2	[-999, -999, -999]	n/a	catFR1	0	R1492J
559.265	4.766	725632	PROB	4.75	n/a	n/a	n/a	-999	2	[8, 6, 1]	13.0	catFR1	0	R1492J
564.031	4.067	730397	PROB	4.05	n/a	n/a	n/a	-999	2	[2, 7, 8]	17.0	catFR1	0	R1492J
568.098	3.283	734464	PROB	3.266	n/a	n/a	n/a	-999	2	[5, 7, 7]	19.0	catFR1	0	R1492J
571.381	0.0	737741	DISTRACT_END	n/a	n/a	n/a	n/a	-999	2	[0, 0, 0]	n/a	catFR1	0	R1492J
571.381	2.1	737747	STOP	n/a	n/a	n/a	n/a	-999	2	[-999, -999, -999]	n/a	catFR1	0	R1492J
573.481	6.089	739838	REC_START	n/a	n/a	n/a	n/a	-999	2	[0, 0, 0]	n/a	catFR1	0	R1492J
579.57	8.774	745936	REC_WORD	6.089	n/a	TURTLE	OceanAnimals	2	2	[0, 0, 0]	n/a	catFR1	0	R1492J
588.344	15.331	754709	REC_WORD	14.863	n/a	SQUID	OceanAnimals	10	2	[0, 0, 0]	n/a	catFR1	0	R1492J
603.675	13.057	770034	REC_END	n/a	n/a	n/a	n/a	-999	2	[0, 0, 0]	n/a	catFR1	0	R1492J
616.732	10.0	783099	COUNTDOWN_START	n/a	n/a	n/a	n/a	-999	3	[0, 0, 0]	n/a	catFR1	0	R1492J
627.081	0.0	793441	COUNTDOWN_END	n/a	n/a	n/a	n/a	-999	3	[0, 0, 0]	n/a	catFR1	0	R1492J
627.081	2.117	793441	ENCODING_START	n/a	n/a	n/a	n/a	-999	3	[0, 0, 0]	n/a	catFR1	0	R1492J
629.198	1.6	795562	WORD	n/a	wordpools/wordpool_categorized_EN.txt	COLANDER	KitchenTools	1	3	[0, 0, 0]	n/a	catFR1	0	R1492J
630.815	0.999	797176	WORD_OFF	n/a	n/a	COLANDER	KitchenTools	1	3	[0, 0, 0]	n/a	catFR1	0	R1492J
631.814	1.6	798168	WORD	n/a	wordpools/wordpool_categorized_EN.txt	GRATER	KitchenTools	2	3	[0, 0, 0]	n/a	catFR1	0	R1492J
633.415	0.85	799773	WORD_OFF	n/a	n/a	GRATER	KitchenTools	2	3	[0, 0, 0]	n/a	catFR1	0	R1492J
634.265	1.6	800627	WORD	n/a	wordpools/wordpool_categorized_EN.txt	ONION	Vegetables	3	3	[0, 0, 0]	n/a	catFR1	0	R1492J
635.881	0.834	802242	WORD_OFF	n/a	n/a	ONION	Vegetables	3	3	[0, 0, 0]	n/a	catFR1	0	R1492J
636.715	1.6	803076	WORD	n/a	wordpools/wordpool_categorized_EN.txt	LETTUCE	Vegetables	4	3	[0, 0, 0]	n/a	catFR1	0	R1492J
638.315	0.833	804669	WORD_OFF	n/a	n/a	LETTUCE	Vegetables	4	3	[0, 0, 0]	n/a	catFR1	0	R1492J
639.148	1.6	805503	WORD	n/a	wordpools/wordpool_categorized_EN.txt	BIKE	Vehicles	5	3	[0, 0, 0]	n/a	catFR1	0	R1492J
640.748	0.967	807107	WORD_OFF	n/a	n/a	BIKE	Vehicles	5	3	[0, 0, 0]	n/a	catFR1	0	R1492J
641.715	1.6	808078	WORD	n/a	wordpools/wordpool_categorized_EN.txt	BUS	Vehicles	6	3	[0, 0, 0]	n/a	catFR1	0	R1492J
643.315	0.799	809671	WORD_OFF	n/a	n/a	BUS	Vehicles	6	3	[0, 0, 0]	n/a	catFR1	0	R1492J
644.114	1.6	810474	WORD	n/a	wordpools/wordpool_categorized_EN.txt	PEELER	KitchenTools	7	3	[0, 0, 0]	n/a	catFR1	0	R1492J
645.715	0.833	812078	WORD_OFF	n/a	n/a	PEELER	KitchenTools	7	3	[0, 0, 0]	n/a	catFR1	0	R1492J
646.548	1.6	812911	WORD	n/a	wordpools/wordpool_categorized_EN.txt	LADLE	KitchenTools	8	3	[0, 0, 0]	n/a	catFR1	0	R1492J
648.149	0.849	814505	WORD_OFF	n/a	n/a	LADLE	KitchenTools	8	3	[0, 0, 0]	n/a	catFR1	0	R1492J
648.998	1.6	815360	WORD	n/a	wordpools/wordpool_categorized_EN.txt	PEAS	Vegetables	9	3	[0, 0, 0]	n/a	catFR1	0	R1492J
650.615	0.799	816974	WORD_OFF	n/a	n/a	PEAS	Vegetables	9	3	[0, 0, 0]	n/a	catFR1	0	R1492J
651.414	1.6	817776	WORD	n/a	wordpools/wordpool_categorized_EN.txt	CUCUMBER	Vegetables	10	3	[0, 0, 0]	n/a	catFR1	0	R1492J
653.014	0.968	819370	WORD_OFF	n/a	n/a	CUCUMBER	Vegetables	10	3	[0, 0, 0]	n/a	catFR1	0	R1492J
653.982	1.6	820341	WORD	n/a	wordpools/wordpool_categorized_EN.txt	JEEP	Vehicles	11	3	[0, 0, 0]	n/a	catFR1	0	R1492J
655.597	1.001	821955	WORD_OFF	n/a	n/a	JEEP	Vehicles	11	3	[0, 0, 0]	n/a	catFR1	0	R1492J
656.598	1.6	822958	WORD	n/a	wordpools/wordpool_categorized_EN.txt	PLANE	Vehicles	12	3	[0, 0, 0]	n/a	catFR1	0	R1492J
658.199	0.0	824561	PROB	6.332	n/a	n/a	n/a	-999	3	[8, 3, 4]	15.0	catFR1	0	R1492J
658.199	0.001	824562	WORD_OFF	n/a	n/a	PLANE	Vehicles	12	3	[0, 0, 0]	n/a	catFR1	0	R1492J
658.2	0.0	824562	ENCODING_END	n/a	n/a	n/a	n/a	-999	3	[0, 0, 0]	n/a	catFR1	0	R1492J
658.2	0.0	824562	DISTRACT_START	n/a	n/a	n/a	n/a	-999	3	[0, 0, 0]	n/a	catFR1	0	R1492J
658.2	6.348	824562	START	n/a	n/a	n/a	n/a	-999	3	[-999, -999, -999]	n/a	catFR1	0	R1492J
664.548	5.467	830910	PROB	5.449	n/a	n/a	n/a	-999	3	[7, 5, 3]	15.0	catFR1	0	R1492J
670.015	3.2	836377	PROB	3.182	n/a	n/a	n/a	-999	3	[6, 8, 2]	16.0	catFR1	0	R1492J
673.215	4.217	839577	PROB	4.2	n/a	n/a	n/a	-999	3	[6, 1, 8]	15.0	catFR1	0	R1492J
677.432	3.698	843794	PROB	3.682	n/a	n/a	n/a	-999	3	[3, 7, 2]	12.0	catFR1	0	R1492J
681.13	0.0	847484	DISTRACT_END	n/a	n/a	n/a	n/a	-999	3	[0, 0, 0]	n/a	catFR1	0	R1492J
681.13	2.184	847492	STOP	n/a	n/a	n/a	n/a	-999	3	[-999, -999, -999]	n/a	catFR1	0	R1492J
683.314	0.479	849676	REC_START	n/a	n/a	n/a	n/a	-999	3	[0, 0, 0]	n/a	catFR1	0	R1492J
683.793	1.387	850154	REC_WORD	0.479	n/a	JEEP	Vehicles	11	3	[0, 0, 0]	n/a	catFR1	0	R1492J
685.18	9.141	851541	REC_WORD	1.866	n/a	PLANE	Vehicles	12	3	[0, 0, 0]	n/a	catFR1	0	R1492J
694.321	1.268	860682	REC_WORD	11.007	n/a	ONION	Vegetables	3	3	[0, 0, 0]	n/a	catFR1	0	R1492J
695.589	16.723	861950	REC_WORD	12.275	n/a	BUS	Vehicles	6	3	[0, 0, 0]	n/a	catFR1	0	R1492J
712.312	1.216	878672	REC_WORD	28.998	n/a	CABBAGE	Vegetables	-999	3	[0, 0, 0]	n/a	catFR1	0	R1492J
713.528	33.753	879882	REC_END	n/a	n/a	n/a	n/a	-999	3	[0, 0, 0]	n/a	catFR1	0	R1492J
747.281	10.0	913641	COUNTDOWN_START	n/a	n/a	n/a	n/a	-999	4	[0, 0, 0]	n/a	catFR1	0	R1492J
757.631	0.0	923984	COUNTDOWN_END	n/a	n/a	n/a	n/a	-999	4	[0, 0, 0]	n/a	catFR1	0	R1492J
757.631	2.251	923984	ENCODING_START	n/a	n/a	n/a	n/a	-999	4	[0, 0, 0]	n/a	catFR1	0	R1492J
759.882	1.6	926231	WORD	n/a	wordpools/wordpool_categorized_EN.txt	SODA	Beverages	1	4	[0, 0, 0]	n/a	catFR1	0	R1492J
761.499	0.982	927857	WORD_OFF	n/a	n/a	SODA	Beverages	1	4	[0, 0, 0]	n/a	catFR1	0	R1492J
762.481	1.6	928838	WORD	n/a	wordpools/wordpool_categorized_EN.txt	MILK	Beverages	2	4	[0, 0, 0]	n/a	catFR1	0	R1492J
764.081	1.0	930432	WORD_OFF	n/a	n/a	MILK	Beverages	2	4	[0, 0, 0]	n/a	catFR1	0	R1492J
765.081	1.6	931434	WORD	n/a	wordpools/wordpool_categorized_EN.txt	TULIP	Flowers	3	4	[0, 0, 0]	n/a	catFR1	0	R1492J
766.697	0.834	933049	WORD_OFF	n/a	n/a	TULIP	Flowers	3	4	[0, 0, 0]	n/a	catFR1	0	R1492J
767.531	1.6	933882	WORD	n/a	wordpools/wordpool_categorized_EN.txt	LILY	Flowers	4	4	[0, 0, 0]	n/a	catFR1	0	R1492J
769.131	0.867	935487	WORD_OFF	n/a	n/a	LILY	Flowers	4	4	[0, 0, 0]	n/a	catFR1	0	R1492J
769.998	1.6	936352	WORD	n/a	wordpools/wordpool_categorized_EN.txt	BINDER	OfficeSupplies	5	4	[0, 0, 0]	n/a	catFR1	0	R1492J
771.597	0.917	937956	WORD_OFF	n/a	n/a	BINDER	OfficeSupplies	5	4	[0, 0, 0]	n/a	catFR1	0	R1492J
772.514	1.6	938864	WORD	n/a	wordpools/wordpool_categorized_EN.txt	TAPE	OfficeSupplies	6	4	[0, 0, 0]	n/a	catFR1	0	R1492J
774.115	0.8	940468	WORD_OFF	n/a	n/a	TAPE	OfficeSupplies	6	4	[0, 0, 0]	n/a	catFR1	0	R1492J
774.915	1.6	941270	WORD	n/a	wordpools/wordpool_categorized_EN.txt	WATER	Beverages	7	4	[0, 0, 0]	n/a	catFR1	0	R1492J
776.516	0.982	942874	WORD_OFF	n/a	n/a	WATER	Beverages	7	4	[0, 0, 0]	n/a	catFR1	0	R1492J
777.498	1.6	943855	WORD	n/a	wordpools/wordpool_categorized_EN.txt	BEER	Beverages	8	4	[0, 0, 0]	n/a	catFR1	0	R1492J
779.099	0.898	945449	WORD_OFF	n/a	n/a	BEER	Beverages	8	4	[0, 0, 0]	n/a	catFR1	0	R1492J
779.997	1.6	946346	WORD	n/a	wordpools/wordpool_categorized_EN.txt	MARIGOLD	Flowers	9	4	[0, 0, 0]	n/a	catFR1	0	R1492J
781.599	0.832	947950	WORD_OFF	n/a	n/a	MARIGOLD	Flowers	9	4	[0, 0, 0]	n/a	catFR1	0	R1492J
782.431	1.6	948784	WORD	n/a	wordpools/wordpool_categorized_EN.txt	DAISY	Flowers	10	4	[0, 0, 0]	n/a	catFR1	0	R1492J
784.032	1.0	950388	WORD_OFF	n/a	n/a	DAISY	Flowers	10	4	[0, 0, 0]	n/a	catFR1	0	R1492J
785.032	1.6	951390	WORD	n/a	wordpools/wordpool_categorized_EN.txt	PEN	OfficeSupplies	11	4	[0, 0, 0]	n/a	catFR1	0	R1492J
786.647	1.001	953005	WORD_OFF	n/a	n/a	PEN	OfficeSupplies	11	4	[0, 0, 0]	n/a	catFR1	0	R1492J
787.648	1.6	953997	WORD	n/a	wordpools/wordpool_categorized_EN.txt	PAPER	OfficeSupplies	12	4	[0, 0, 0]	n/a	catFR1	0	R1492J
789.249	0.002	955601	WORD_OFF	n/a	n/a	PAPER	OfficeSupplies	12	4	[0, 0, 0]	n/a	catFR1	0	R1492J
789.251	0.0	955601	ENCODING_END	n/a	n/a	n/a	n/a	-999	4	[0, 0, 0]	n/a	catFR1	0	R1492J
789.25	0.001	955607	PROB	4.832	n/a	n/a	n/a	-999	4	[3, 5, 3]	11.0	catFR1	0	R1492J
789.251	0.0	955608	START	n/a	n/a	n/a	n/a	-999	4	[-999, -999, -999]	n/a	catFR1	0	R1492J
789.251	4.847	955611	DISTRACT_START	n/a	n/a	n/a	n/a	-999	4	[0, 0, 0]	n/a	catFR1	0	R1492J
794.098	3.084	960455	PROB	3.067	n/a	n/a	n/a	-999	4	[4, 6, 2]	12.0	catFR1	0	R1492J
797.182	3.55	963539	PROB	3.533	n/a	n/a	n/a	-999	4	[8, 3, 5]	16.0	catFR1	0	R1492J
800.732	3.833	967089	PROB	3.816	n/a	n/a	n/a	-999	4	[8, 4, 3]	15.0	catFR1	0	R1492J
804.565	3.651	970922	PROB	3.632	n/a	n/a	n/a	-999	4	[5, 4, 8]	17.0	catFR1	0	R1492J
808.216	3.464	974572	PROB	3.448	n/a	n/a	n/a	-999	4	[2, 7, 3]	12.0	catFR1	0	R1492J
811.68	0.0	978036	STOP	n/a	n/a	n/a	n/a	-999	4	[-999, -999, -999]	n/a	catFR1	0	R1492J
811.68	2.401	978037	DISTRACT_END	n/a	n/a	n/a	n/a	-999	4	[0, 0, 0]	n/a	catFR1	0	R1492J
814.081	0.0	980430	REC_START	n/a	n/a	n/a	n/a	-999	4	[0, 0, 0]	n/a	catFR1	0	R1492J
814.081	0.487	980437	REC_WORD	0.0	n/a	SODA	Beverages	1	4	[0, 0, 0]	n/a	catFR1	0	R1492J
814.568	5.411	980924	REC_WORD	0.487	n/a	MILK	Beverages	2	4	[0, 0, 0]	n/a	catFR1	0	R1492J
819.979	15.758	986335	REC_WORD	5.898	n/a	LETTER	n/a	-999	4	[0, 0, 0]	n/a	catFR1	0	R1492J
835.737	8.552	1002092	REC_WORD	21.656	n/a	BIKE	Vehicles	-999	4	[0, 0, 0]	n/a	catFR1	0	R1492J
844.289	8.277	1010636	REC_END	n/a	n/a	n/a	n/a	-999	4	[0, 0, 0]	n/a	catFR1	0	R1492J
852.566	10.0	1018920	COUNTDOWN_START	n/a	n/a	n/a	n/a	-999	5	[0, 0, 0]	n/a	catFR1	0	R1492J
862.915	0.0	1029262	COUNTDOWN_END	n/a	n/a	n/a	n/a	-999	5	[0, 0, 0]	n/a	catFR1	0	R1492J
862.915	2.317	1029262	ENCODING_START	n/a	n/a	n/a	n/a	-999	5	[0, 0, 0]	n/a	catFR1	0	R1492J
865.232	1.6	1031584	WORD	n/a	wordpools/wordpool_categorized_EN.txt	BLOUSE	Clothing	1	5	[0, 0, 0]	n/a	catFR1	0	R1492J
866.849	0.798	1033198	WORD_OFF	n/a	n/a	BLOUSE	Clothing	1	5	[0, 0, 0]	n/a	catFR1	0	R1492J
867.647	1.6	1034000	WORD	n/a	wordpools/wordpool_categorized_EN.txt	DRESS	Clothing	2	5	[0, 0, 0]	n/a	catFR1	0	R1492J
869.248	0.849	1035594	WORD_OFF	n/a	n/a	DRESS	Clothing	2	5	[0, 0, 0]	n/a	catFR1	0	R1492J
870.097	1.6	1036449	WORD	n/a	wordpools/wordpool_categorized_EN.txt	GOAT	FarmAnimals	3	5	[0, 0, 0]	n/a	catFR1	0	R1492J
871.698	0.768	1038053	WORD_OFF	n/a	n/a	GOAT	FarmAnimals	3	5	[0, 0, 0]	n/a	catFR1	0	R1492J
872.466	1.6	1038813	WORD	n/a	wordpools/wordpool_categorized_EN.txt	ROOSTER	FarmAnimals	4	5	[0, 0, 0]	n/a	catFR1	0	R1492J
874.083	0.799	1040427	WORD_OFF	n/a	n/a	ROOSTER	FarmAnimals	4	5	[0, 0, 0]	n/a	catFR1	0	R1492J
874.882	1.6	1041229	WORD	n/a	wordpools/wordpool_categorized_EN.txt	DESK	Furniture	5	5	[0, 0, 0]	n/a	catFR1	0	R1492J
876.482	0.917	1042834	WORD_OFF	n/a	n/a	DESK	Furniture	5	5	[0, 0, 0]	n/a	catFR1	0	R1492J
877.399	1.6	1043752	WORD	n/a	wordpools/wordpool_categorized_EN.txt	SHELF	Furniture	6	5	[0, 0, 0]	n/a	catFR1	0	R1492J
878.999	0.799	1045345	WORD_OFF	n/a	n/a	SHELF	Furniture	6	5	[0, 0, 0]	n/a	catFR1	0	R1492J
879.798	1.6	1046147	WORD	n/a	wordpools/wordpool_categorized_EN.txt	PIG	FarmAnimals	7	5	[0, 0, 0]	n/a	catFR1	0	R1492J
881.398	0.85	1047751	WORD_OFF	n/a	n/a	PIG	FarmAnimals	7	5	[0, 0, 0]	n/a	catFR1	0	R1492J
882.248	1.6	1048596	WORD	n/a	wordpools/wordpool_categorized_EN.txt	CALF	FarmAnimals	8	5	[0, 0, 0]	n/a	catFR1	0	R1492J
883.848	0.983	1050200	WORD_OFF	n/a	n/a	CALF	FarmAnimals	8	5	[0, 0, 0]	n/a	catFR1	0	R1492J
884.831	1.6	1051181	WORD	n/a	wordpools/wordpool_categorized_EN.txt	BOOKCASE	Furniture	9	5	[0, 0, 0]	n/a	catFR1	0	R1492J
886.432	0.999	1052785	WORD_OFF	n/a	n/a	BOOKCASE	Furniture	9	5	[0, 0, 0]	n/a	catFR1	0	R1492J
887.431	1.6	1053777	WORD	n/a	wordpools/wordpool_categorized_EN.txt	CHAIR	Furniture	10	5	[0, 0, 0]	n/a	catFR1	0	R1492J
889.031	0.852	1055381	WORD_OFF	n/a	n/a	CHAIR	Furniture	10	5	[0, 0, 0]	n/a	catFR1	0	R1492J
889.883	1.6	1056236	WORD	n/a	wordpools/wordpool_categorized_EN.txt	SHIRT	Clothing	11	5	[0, 0, 0]	n/a	catFR1	0	R1492J
891.498	0.899	1057851	WORD_OFF	n/a	n/a	SHIRT	Clothing	11	5	[0, 0, 0]	n/a	catFR1	0	R1492J
892.397	1.6	1058748	WORD	n/a	wordpools/wordpool_categorized_EN.txt	COAT	Clothing	12	5	[0, 0, 0]	n/a	catFR1	0	R1492J
893.998	0.004	1060352	WORD_OFF	n/a	n/a	COAT	Clothing	12	5	[0, 0, 0]	n/a	catFR1	0	R1492J
894.002	0.0	1060352	ENCODING_END	n/a	n/a	n/a	n/a	-999	5	[0, 0, 0]	n/a	catFR1	0	R1492J
894.002	0.0	1060352	DISTRACT_START	n/a	n/a	n/a	n/a	-999	5	[0, 0, 0]	n/a	catFR1	0	R1492J
893.999	0.003	1060352	PROB	4.866	n/a	n/a	n/a	-999	5	[2, 4, 4]	8.0	catFR1	0	R1492J
894.002	4.88	1060355	START	n/a	n/a	n/a	n/a	-999	5	[-999, -999, -999]	n/a	catFR1	0	R1492J
898.882	4.183	1065235	PROB	4.167	n/a	n/a	n/a	-999	5	[2, 4, 6]	12.0	catFR1	0	R1492J
903.065	2.067	1069418	PROB	2.049	n/a	n/a	n/a	-999	5	[5, 5, 1]	11.0	catFR1	0	R1492J
905.132	3.816	1071484	PROB	3.799	n/a	n/a	n/a	-999	5	[6, 2, 6]	14.0	catFR1	0	R1492J
908.948	1.901	1075300	PROB	1.883	n/a	n/a	n/a	-999	5	[1, 1, 1]	3.0	catFR1	0	R1492J
910.849	2.517	1077201	PROB	2.5	n/a	n/a	n/a	-999	5	[5, 5, 4]	14.0	catFR1	0	R1492J
913.366	3.682	1079718	PROB	3.666	n/a	n/a	n/a	-999	5	[7, 8, 5]	20.0	catFR1	0	R1492J
917.048	0.0	1083400	DISTRACT_END	n/a	n/a	n/a	n/a	-999	5	[0, 0, 0]	n/a	catFR1	0	R1492J
917.048	2.25	1083400	STOP	n/a	n/a	n/a	n/a	-999	5	[-999, -999, -999]	n/a	catFR1	0	R1492J
919.298	0.506	1085645	REC_START	n/a	n/a	n/a	n/a	-999	5	[0, 0, 0]	n/a	catFR1	0	R1492J
919.804	0.895	1086156	REC_WORD	0.506	n/a	CHAIR	Furniture	10	5	[0, 0, 0]	n/a	catFR1	0	R1492J
920.699	7.473	1087051	REC_WORD	1.401	n/a	DESK	Furniture	5	5	[0, 0, 0]	n/a	catFR1	0	R1492J
928.172	1.524	1094524	REC_WORD	8.874	n/a	SHELF	Furniture	6	5	[0, 0, 0]	n/a	catFR1	0	R1492J
929.696	12.045	1096047	REC_WORD	10.398	n/a	SHELF	Furniture	6	5	[0, 0, 0]	n/a	catFR1	0	R1492J
941.741	7.777	1108092	REC_WORD	22.443	n/a	COAT	Clothing	12	5	[0, 0, 0]	n/a	catFR1	0	R1492J
949.518	10.331	1115862	REC_END	n/a	n/a	n/a	n/a	-999	5	[0, 0, 0]	n/a	catFR1	0	R1492J
959.849	10.0	1126193	COUNTDOWN_START	n/a	n/a	n/a	n/a	-999	6	[0, 0, 0]	n/a	catFR1	0	R1492J
970.199	0.001	1136546	COUNTDOWN_END	n/a	n/a	n/a	n/a	-999	6	[0, 0, 0]	n/a	catFR1	0	R1492J
970.2	2.116	1136546	ENCODING_START	n/a	n/a	n/a	n/a	-999	6	[0, 0, 0]	n/a	catFR1	0	R1492J
972.316	1.6	1138667	WORD	n/a	wordpools/wordpool_categorized_EN.txt	LOBSTER	OceanAnimals	1	6	[0, 0, 0]	n/a	catFR1	0	R1492J
973.931	0.801	1140282	WORD_OFF	n/a	n/a	LOBSTER	OceanAnimals	1	6	[0, 0, 0]	n/a	catFR1	0	R1492J
974.732	1.6	1141084	WORD	n/a	wordpools/wordpool_categorized_EN.txt	CRAB	OceanAnimals	2	6	[0, 0, 0]	n/a	catFR1	0	R1492J
976.348	0.832	1142698	WORD_OFF	n/a	n/a	CRAB	OceanAnimals	2	6	[0, 0, 0]	n/a	catFR1	0	R1492J
977.18	1.6	1143521	WORD	n/a	wordpools/wordpool_categorized_EN.txt	FREEZER	Appliances	3	6	[0, 0, 0]	n/a	catFR1	0	R1492J
978.782	0.782	1145126	WORD_OFF	n/a	n/a	FREEZER	Appliances	3	6	[0, 0, 0]	n/a	catFR1	0	R1492J
979.564	1.6	1145906	WORD	n/a	wordpools/wordpool_categorized_EN.txt	WASHER	Appliances	4	6	[0, 0, 0]	n/a	catFR1	0	R1492J
981.181	0.901	1147521	WORD_OFF	n/a	n/a	WASHER	Appliances	4	6	[0, 0, 0]	n/a	catFR1	0	R1492J
982.082	1.6	1148429	WORD	n/a	wordpools/wordpool_categorized_EN.txt	CUPCAKE	Desserts	5	6	[0, 0, 0]	n/a	catFR1	0	R1492J
983.698	0.885	1150043	WORD_OFF	n/a	n/a	CUPCAKE	Desserts	5	6	[0, 0, 0]	n/a	catFR1	0	R1492J
984.583	1.6	1150930	WORD	n/a	wordpools/wordpool_categorized_EN.txt	FUDGE	Desserts	6	6	[0, 0, 0]	n/a	catFR1	0	R1492J
986.198	0.833	1152544	WORD_OFF	n/a	n/a	FUDGE	Desserts	6	6	[0, 0, 0]	n/a	catFR1	0	R1492J
987.031	1.6	1153378	WORD	n/a	wordpools/wordpool_categorized_EN.txt	REFRIGERATOR	Appliances	7	6	[0, 0, 0]	n/a	catFR1	0	R1492J
988.648	0.984	1154993	WORD_OFF	n/a	n/a	REFRIGERATOR	Appliances	7	6	[0, 0, 0]	n/a	catFR1	0	R1492J
989.632	1.6	1155974	WORD	n/a	wordpools/wordpool_categorized_EN.txt	VACUUM	Appliances	8	6	[0, 0, 0]	n/a	catFR1	0	R1492J
991.249	0.782	1157599	WORD_OFF	n/a	n/a	VACUUM	Appliances	8	6	[0, 0, 0]	n/a	catFR1	0	R1492J
992.031	1.6	1158380	WORD	n/a	wordpools/wordpool_categorized_EN.txt	PUDDING	Desserts	9	6	[0, 0, 0]	n/a	catFR1	0	R1492J
993.632	0.932	1159974	WORD_OFF	n/a	n/a	PUDDING	Desserts	9	6	[0, 0, 0]	n/a	catFR1	0	R1492J
994.564	1.6	1160913	WORD	n/a	wordpools/wordpool_categorized_EN.txt	COOKIE	Desserts	10	6	[0, 0, 0]	n/a	catFR1	0	R1492J
996.165	0.884	1162507	WORD_OFF	n/a	n/a	COOKIE	Desserts	10	6	[0, 0, 0]	n/a	catFR1	0	R1492J
997.049	1.6	1163393	WORD	n/a	wordpools/wordpool_categorized_EN.txt	JELLYFISH	OceanAnimals	11	6	[0, 0, 0]	n/a	catFR1	0	R1492J
998.665	0.851	1165008	WORD_OFF	n/a	n/a	JELLYFISH	OceanAnimals	11	6	[0, 0, 0]	n/a	catFR1	0	R1492J
999.516	1.6	1165863	WORD	n/a	wordpools/wordpool_categorized_EN.txt	SHRIMP	OceanAnimals	12	6	[0, 0, 0]	n/a	catFR1	0	R1492J
1001.132	0.001	1167477	WORD_OFF	n/a	n/a	SHRIMP	OceanAnimals	12	6	[0, 0, 0]	n/a	catFR1	0	R1492J
1001.133	0.0	1167477	ENCODING_END	n/a	n/a	n/a	n/a	-999	6	[0, 0, 0]	n/a	catFR1	0	R1492J
1001.133	0.0	1167477	DISTRACT_START	n/a	n/a	n/a	n/a	-999	6	[0, 0, 0]	n/a	catFR1	0	R1492J
1001.132	0.001	1167481	PROB	5.632	n/a	n/a	n/a	-999	6	[8, 8, 6]	24.0	catFR1	0	R1492J
1001.133	5.65	1167482	START	n/a	n/a	n/a	n/a	-999	6	[-999, -999, -999]	n/a	catFR1	0	R1492J
1006.783	3.782	1173131	PROB	3.765	n/a	n/a	n/a	-999	6	[1, 4, 1]	6.0	catFR1	0	R1492J
1010.565	4.55	1176913	PROB	4.533	n/a	n/a	n/a	-999	6	[5, 6, 7]	18.0	catFR1	0	R1492J
1015.115	4.466	1181463	PROB	4.45	n/a	n/a	n/a	-999	6	[1, 8, 1]	10.0	catFR1	0	R1492J
1019.581	3.817	1185929	PROB	3.8	n/a	n/a	n/a	-999	6	[2, 5, 2]	9.0	catFR1	0	R1492J
1023.398	0.0	1189744	DISTRACT_END	n/a	n/a	n/a	n/a	-999	6	[0, 0, 0]	n/a	catFR1	0	R1492J
1023.398	2.283	1189746	STOP	n/a	n/a	n/a	n/a	-999	6	[-999, -999, -999]	n/a	catFR1	0	R1492J
1025.681	3.592	1192021	REC_START	n/a	n/a	n/a	n/a	-999	6	[0, 0, 0]	n/a	catFR1	0	R1492J
1029.273	10.174	1195620	REC_WORD	3.592	n/a	JELLYFISH	OceanAnimals	11	6	[0, 0, 0]	n/a	catFR1	0	R1492J
1039.447	16.453	1205794	REC_WORD	13.766	n/a	LOBSTER	OceanAnimals	1	6	[0, 0, 0]	n/a	catFR1	0	R1492J
1055.9	6.55	1222238	REC_END	n/a	n/a	n/a	n/a	-999	6	[0, 0, 0]	n/a	catFR1	0	R1492J
1062.45	10.0	1228791	COUNTDOWN_START	n/a	n/a	n/a	n/a	-999	7	[0, 0, 0]	n/a	catFR1	0	R1492J
1072.799	0.0	1239144	COUNTDOWN_END	n/a	n/a	n/a	n/a	-999	7	[0, 0, 0]	n/a	catFR1	0	R1492J
1072.799	2.117	1239144	ENCODING_START	n/a	n/a	n/a	n/a	-999	7	[0, 0, 0]	n/a	catFR1	0	R1492J
1074.916	1.6	1241254	WORD	n/a	wordpools/wordpool_categorized_EN.txt	SILK	Fabric	1	7	[0, 0, 0]	n/a	catFR1	0	R1492J
1076.516	0.8	1242859	WORD_OFF	n/a	n/a	SILK	Fabric	1	7	[0, 0, 0]	n/a	catFR1	0	R1492J
1077.316	1.6	1243661	WORD	n/a	wordpools/wordpool_categorized_EN.txt	COTTON	Fabric	2	7	[0, 0, 0]	n/a	catFR1	0	R1492J
1078.916	0.767	1245254	WORD_OFF	n/a	n/a	COTTON	Fabric	2	7	[0, 0, 0]	n/a	catFR1	0	R1492J
1079.683	1.6	1246025	WORD	n/a	wordpools/wordpool_categorized_EN.txt	JACKET	Clothing	3	7	[0, 0, 0]	n/a	catFR1	0	R1492J
1081.283	0.867	1247629	WORD_OFF	n/a	n/a	JACKET	Clothing	3	7	[0, 0, 0]	n/a	catFR1	0	R1492J
1082.15	1.6	1248494	WORD	n/a	wordpools/wordpool_categorized_EN.txt	SKIRT	Clothing	4	7	[0, 0, 0]	n/a	catFR1	0	R1492J
1083.765	0.918	1250109	WORD_OFF	n/a	n/a	SKIRT	Clothing	4	7	[0, 0, 0]	n/a	catFR1	0	R1492J
1084.683	1.6	1251027	WORD	n/a	wordpools/wordpool_categorized_EN.txt	BROWNIES	Desserts	5	7	[0, 0, 0]	n/a	catFR1	0	R1492J
1086.283	0.967	1252620	WORD_OFF	n/a	n/a	BROWNIES	Desserts	5	7	[0, 0, 0]	n/a	catFR1	0	R1492J
1087.25	1.6	1253591	WORD	n/a	wordpools/wordpool_categorized_EN.txt	CHEESECAKE	Desserts	6	7	[0, 0, 0]	n/a	catFR1	0	R1492J
1088.866	0.784	1255206	WORD_OFF	n/a	n/a	CHEESECAKE	Desserts	6	7	[0, 0, 0]	n/a	catFR1	0	R1492J
1089.65	1.6	1255987	WORD	n/a	wordpools/wordpool_categorized_EN.txt	FLEECE	Fabric	7	7	[0, 0, 0]	n/a	catFR1	0	R1492J
1091.266	0.967	1257612	WORD_OFF	n/a	n/a	FLEECE	Fabric	7	7	[0, 0, 0]	n/a	catFR1	0	R1492J
1092.233	1.6	1258572	WORD	n/a	wordpools/wordpool_categorized_EN.txt	WOOL	Fabric	8	7	[0, 0, 0]	n/a	catFR1	0	R1492J
1093.833	0.867	1260176	WORD_OFF	n/a	n/a	WOOL	Fabric	8	7	[0, 0, 0]	n/a	catFR1	0	R1492J
1094.7	1.6	1261042	WORD	n/a	wordpools/wordpool_categorized_EN.txt	SHOES	Clothing	9	7	[0, 0, 0]	n/a	catFR1	0	R1492J
1096.316	0.833	1262656	WORD_OFF	n/a	n/a	SHOES	Clothing	9	7	[0, 0, 0]	n/a	catFR1	0	R1492J
1097.149	1.6	1263490	WORD	n/a	wordpools/wordpool_categorized_EN.txt	UNDERWEAR	Clothing	10	7	[0, 0, 0]	n/a	catFR1	0	R1492J
1098.749	0.817	1265094	WORD_OFF	n/a	n/a	UNDERWEAR	Clothing	10	7	[0, 0, 0]	n/a	catFR1	0	R1492J
1099.566	1.6	1265907	WORD	n/a	wordpools/wordpool_categorized_EN.txt	JELLO	Desserts	11	7	[0, 0, 0]	n/a	catFR1	0	R1492J
1101.181	0.952	1267521	WORD_OFF	n/a	n/a	JELLO	Desserts	11	7	[0, 0, 0]	n/a	catFR1	0	R1492J
1102.133	1.6	1268471	WORD	n/a	wordpools/wordpool_categorized_EN.txt	CAKE	Desserts	12	7	[0, 0, 0]	n/a	catFR1	0	R1492J
1103.733	0.001	1270075	WORD_OFF	n/a	n/a	CAKE	Desserts	12	7	[0, 0, 0]	n/a	catFR1	0	R1492J
1103.734	0.0	1270075	ENCODING_END	n/a	n/a	n/a	n/a	-999	7	[0, 0, 0]	n/a	catFR1	0	R1492J
1103.734	0.0	1270075	DISTRACT_START	n/a	n/a	n/a	n/a	-999	7	[0, 0, 0]	n/a	catFR1	0	R1492J
1103.734	0.0	1270078	START	n/a	n/a	n/a	n/a	-999	7	[-999, -999, -999]	n/a	catFR1	0	R1492J
1103.734	5.749	1270078	PROB	5.732	n/a	n/a	n/a	-999	7	[7, 4, 4]	15.0	catFR1	0	R1492J
1109.483	4.484	1275827	PROB	4.466	n/a	n/a	n/a	-999	7	[6, 4, 8]	18.0	catFR1	0	R1492J
1113.967	4.25	1280311	PROB	4.233	n/a	n/a	n/a	-999	7	[1, 7, 2]	10.0	catFR1	0	R1492J
1118.217	3.416	1284561	PROB	3.399	n/a	n/a	n/a	-999	7	[1, 1, 3]	5.0	catFR1	0	R1492J
1121.633	5.383	1287977	PROB	5.366	n/a	n/a	n/a	-999	7	[4, 3, 8]	15.0	catFR1	0	R1492J
1127.016	0.0	1293356	DISTRACT_END	n/a	n/a	n/a	n/a	-999	7	[0, 0, 0]	n/a	catFR1	0	R1492J
1127.016	2.101	1293359	STOP	n/a	n/a	n/a	n/a	-999	7	[-999, -999, -999]	n/a	catFR1	0	R1492J
1129.117	0.506	1295453	REC_START	n/a	n/a	n/a	n/a	-999	7	[0, 0, 0]	n/a	catFR1	0	R1492J
1129.623	1.711	1295966	REC_WORD	0.506	n/a	CAKE	Desserts	12	7	[0, 0, 0]	n/a	catFR1	0	R1492J
1131.334	10.757	1297677	REC_WORD	2.217	n/a	BROWNIES	Desserts	5	7	[0, 0, 0]	n/a	catFR1	0	R1492J
1142.091	5.155	1308434	REC_WORD_VV	12.974	n/a	<>	n/a	-999	7	[0, 0, 0]	n/a	catFR1	0	R1492J
1147.246	1.228	1313589	REC_WORD	18.129	n/a	SHORTS	n/a	-999	7	[0, 0, 0]	n/a	catFR1	0	R1492J
1148.474	10.856	1314817	REC_WORD	19.357	n/a	SHOES	Clothing	9	7	[0, 0, 0]	n/a	catFR1	0	R1492J
1159.33	8.767	1325669	REC_END	n/a	n/a	n/a	n/a	-999	7	[0, 0, 0]	n/a	catFR1	0	R1492J
1168.097	10.0	1334439	COUNTDOWN_START	n/a	n/a	n/a	n/a	-999	8	[0, 0, 0]	n/a	catFR1	0	R1492J
1178.449	0.0	1344781	COUNTDOWN_END	n/a	n/a	n/a	n/a	-999	8	[0, 0, 0]	n/a	catFR1	0	R1492J
1178.449	2.183	1344792	ENCODING_START	n/a	n/a	n/a	n/a	-999	8	[0, 0, 0]	n/a	catFR1	0	R1492J
1180.632	1.6	1346966	WORD	n/a	wordpools/wordpool_categorized_EN.txt	DENIM	Fabric	1	8	[0, 0, 0]	n/a	catFR1	0	R1492J
1182.233	0.816	1348570	WORD_OFF	n/a	n/a	DENIM	Fabric	1	8	[0, 0, 0]	n/a	catFR1	0	R1492J
1183.049	1.6	1349393	WORD	n/a	wordpools/wordpool_categorized_EN.txt	NYLON	Fabric	2	8	[0, 0, 0]	n/a	catFR1	0	R1492J
1184.665	0.884	1350997	WORD_OFF	n/a	n/a	NYLON	Fabric	2	8	[0, 0, 0]	n/a	catFR1	0	R1492J
1185.549	1.6	1351884	WORD	n/a	wordpools/wordpool_categorized_EN.txt	BED	Furniture	3	8	[0, 0, 0]	n/a	catFR1	0	R1492J
1187.165	0.85	1353498	WORD_OFF	n/a	n/a	BED	Furniture	3	8	[0, 0, 0]	n/a	catFR1	0	R1492J
1188.015	1.6	1354353	WORD	n/a	wordpools/wordpool_categorized_EN.txt	COUCH	Furniture	4	8	[0, 0, 0]	n/a	catFR1	0	R1492J
1189.616	0.765	1355957	WORD_OFF	n/a	n/a	COUCH	Furniture	4	8	[0, 0, 0]	n/a	catFR1	0	R1492J
1190.381	1.6	1356717	WORD	n/a	wordpools/wordpool_categorized_EN.txt	APPLE	Fruit	5	8	[0, 0, 0]	n/a	catFR1	0	R1492J
1191.981	1.0	1358321	WORD_OFF	n/a	n/a	APPLE	Fruit	5	8	[0, 0, 0]	n/a	catFR1	0	R1492J
1192.981	1.6	1359313	WORD	n/a	wordpools/wordpool_categorized_EN.txt	ORANGE	Fruit	6	8	[0, 0, 0]	n/a	catFR1	0	R1492J
1194.582	0.799	1360917	WORD_OFF	n/a	n/a	ORANGE	Fruit	6	8	[0, 0, 0]	n/a	catFR1	0	R1492J
1195.381	1.6	1361719	WORD	n/a	wordpools/wordpool_categorized_EN.txt	LINEN	Fabric	7	8	[0, 0, 0]	n/a	catFR1	0	R1492J
1196.982	0.766	1363323	WORD_OFF	n/a	n/a	LINEN	Fabric	7	8	[0, 0, 0]	n/a	catFR1	0	R1492J
1197.748	1.6	1364083	WORD	n/a	wordpools/wordpool_categorized_EN.txt	VELVET	Fabric	8	8	[0, 0, 0]	n/a	catFR1	0	R1492J
1199.364	0.868	1365698	WORD_OFF	n/a	n/a	VELVET	Fabric	8	8	[0, 0, 0]	n/a	catFR1	0	R1492J
1200.232	1.6	1366563	WORD	n/a	wordpools/wordpool_categorized_EN.txt	CABINET	Furniture	9	8	[0, 0, 0]	n/a	catFR1	0	R1492J
1201.847	0.934	1368188	WORD_OFF	n/a	n/a	CABINET	Furniture	9	8	[0, 0, 0]	n/a	catFR1	0	R1492J
1202.781	1.6	1369117	WORD	n/a	wordpools/wordpool_categorized_EN.txt	TABLE	Furniture	10	8	[0, 0, 0]	n/a	catFR1	0	R1492J
1204.381	0.884	1370721	WORD_OFF	n/a	n/a	TABLE	Furniture	10	8	[0, 0, 0]	n/a	catFR1	0	R1492J
1205.265	1.6	1371597	WORD	n/a	wordpools/wordpool_categorized_EN.txt	PLUM	Fruit	11	8	[0, 0, 0]	n/a	catFR1	0	R1492J
1206.865	0.85	1373201	WORD_OFF	n/a	n/a	PLUM	Fruit	11	8	[0, 0, 0]	n/a	catFR1	0	R1492J
1207.715	1.6	1374056	WORD	n/a	wordpools/wordpool_categorized_EN.txt	LIME	Fruit	12	8	[0, 0, 0]	n/a	catFR1	0	R1492J
1209.333	0.001	1375670	WORD_OFF	n/a	n/a	LIME	Fruit	12	8	[0, 0, 0]	n/a	catFR1	0	R1492J
1209.334	0.0	1375670	ENCODING_END	n/a	n/a	n/a	n/a	-999	8	[0, 0, 0]	n/a	catFR1	0	R1492J
1209.334	0.0	1375670	DISTRACT_START	n/a	n/a	n/a	n/a	-999	8	[0, 0, 0]	n/a	catFR1	0	R1492J
1209.333	0.001	1375673	PROB	5.031	n/a	n/a	n/a	-999	8	[7, 4, 3]	14.0	catFR1	0	R1492J
1209.334	5.048	1375674	START	n/a	n/a	n/a	n/a	-999	8	[-999, -999, -999]	n/a	catFR1	0	R1492J
1214.382	4.2	1380722	PROB	4.183	n/a	n/a	n/a	-999	8	[5, 2, 7]	14.0	catFR1	0	R1492J
1218.582	3.9	1384922	PROB	3.883	n/a	n/a	n/a	-999	8	[4, 6, 7]	17.0	catFR1	0	R1492J
1222.482	3.267	1388822	PROB	3.249	n/a	n/a	n/a	-999	8	[6, 5, 1]	12.0	catFR1	0	R1492J
1225.749	2.816	1392088	PROB	2.799	n/a	n/a	n/a	-999	8	[2, 8, 1]	11.0	catFR1	0	R1492J
1228.565	3.816	1394904	PROB	3.799	n/a	n/a	n/a	-999	8	[5, 1, 4]	10.0	catFR1	0	R1492J
1232.381	0.0	1398719	DISTRACT_END	n/a	n/a	n/a	n/a	-999	8	[0, 0, 0]	n/a	catFR1	0	R1492J
1232.381	2.116	1398720	STOP	n/a	n/a	n/a	n/a	-999	8	[-999, -999, -999]	n/a	catFR1	0	R1492J
1234.497	0.211	1400837	REC_START	n/a	n/a	n/a	n/a	-999	8	[0, 0, 0]	n/a	catFR1	0	R1492J
1234.708	11.257	1401047	REC_WORD	0.211	n/a	LIME	Fruit	12	8	[0, 0, 0]	n/a	catFR1	0	R1492J
1245.965	0.957	1412304	REC_WORD	11.468	n/a	ORANGE	Fruit	6	8	[0, 0, 0]	n/a	catFR1	0	R1492J
1246.922	3.208	1413261	REC_WORD	12.425	n/a	APPLE	Fruit	5	8	[0, 0, 0]	n/a	catFR1	0	R1492J
1250.13	14.59	1416468	REC_WORD	15.633	n/a	BED	Furniture	3	8	[0, 0, 0]	n/a	catFR1	0	R1492J
1264.72	2.594	1431054	REC_END	n/a	n/a	n/a	n/a	-999	8	[0, 0, 0]	n/a	catFR1	0	R1492J
1267.314	10.0	1433650	COUNTDOWN_START	n/a	n/a	n/a	n/a	-999	9	[0, 0, 0]	n/a	catFR1	0	R1492J
1277.664	0.0	1444002	COUNTDOWN_END	n/a	n/a	n/a	n/a	-999	9	[0, 0, 0]	n/a	catFR1	0	R1492J
1277.664	2.183	1444002	ENCODING_START	n/a	n/a	n/a	n/a	-999	9	[0, 0, 0]	n/a	catFR1	0	R1492J
1279.847	1.6	1446176	WORD	n/a	wordpools/wordpool_categorized_EN.txt	VIOLET	Flowers	1	9	[0, 0, 0]	n/a	catFR1	0	R1492J
1281.448	0.984	1447780	WORD_OFF	n/a	n/a	VIOLET	Flowers	1	9	[0, 0, 0]	n/a	catFR1	0	R1492J
1282.432	1.6	1448762	WORD	n/a	wordpools/wordpool_categorized_EN.txt	CARNATION	Flowers	2	9	[0, 0, 0]	n/a	catFR1	0	R1492J
1284.048	0.816	1450376	WORD_OFF	n/a	n/a	CARNATION	Flowers	2	9	[0, 0, 0]	n/a	catFR1	0	R1492J
1284.864	1.6	1451200	WORD	n/a	wordpools/wordpool_categorized_EN.txt	EYE	BodyParts	3	9	[0, 0, 0]	n/a	catFR1	0	R1492J
1286.465	0.783	1452793	WORD_OFF	n/a	n/a	EYE	BodyParts	3	9	[0, 0, 0]	n/a	catFR1	0	R1492J
1287.248	1.6	1453585	WORD	n/a	wordpools/wordpool_categorized_EN.txt	FOOT	BodyParts	4	9	[0, 0, 0]	n/a	catFR1	0	R1492J
1288.866	0.766	1455199	WORD_OFF	n/a	n/a	FOOT	BodyParts	4	9	[0, 0, 0]	n/a	catFR1	0	R1492J
1289.632	1.6	1455959	WORD	n/a	wordpools/wordpool_categorized_EN.txt	PANTS	Clothing	5	9	[0, 0, 0]	n/a	catFR1	0	R1492J
1291.248	0.833	1457584	WORD_OFF	n/a	n/a	PANTS	Clothing	5	9	[0, 0, 0]	n/a	catFR1	0	R1492J
1292.081	1.6	1458418	WORD	n/a	wordpools/wordpool_categorized_EN.txt	JEANS	Clothing	6	9	[0, 0, 0]	n/a	catFR1	0	R1492J
1293.698	0.783	1460033	WORD_OFF	n/a	n/a	JEANS	Clothing	6	9	[0, 0, 0]	n/a	catFR1	0	R1492J
1294.481	1.6	1460813	WORD	n/a	wordpools/wordpool_categorized_EN.txt	ELBOW	BodyParts	7	9	[0, 0, 0]	n/a	catFR1	0	R1492J
1296.098	0.783	1462428	WORD_OFF	n/a	n/a	ELBOW	BodyParts	7	9	[0, 0, 0]	n/a	catFR1	0	R1492J
1296.881	1.6	1463209	WORD	n/a	wordpools/wordpool_categorized_EN.txt	FINGERS	BodyParts	8	9	[0, 0, 0]	n/a	catFR1	0	R1492J
1298.498	0.949	1464834	WORD_OFF	n/a	n/a	FINGERS	BodyParts	8	9	[0, 0, 0]	n/a	catFR1	0	R1492J
1299.447	1.6	1465773	WORD	n/a	wordpools/wordpool_categorized_EN.txt	SOCKS	Clothing	9	9	[0, 0, 0]	n/a	catFR1	0	R1492J
1301.049	0.881	1467378	WORD_OFF	n/a	n/a	SOCKS	Clothing	9	9	[0, 0, 0]	n/a	catFR1	0	R1492J
1301.93	1.6	1468264	WORD	n/a	wordpools/wordpool_categorized_EN.txt	SHORTS	Clothing	10	9	[0, 0, 0]	n/a	catFR1	0	R1492J
1303.532	0.816	1469868	WORD_OFF	n/a	n/a	SHORTS	Clothing	10	9	[0, 0, 0]	n/a	catFR1	0	R1492J
1304.348	1.6	1470681	WORD	n/a	wordpools/wordpool_categorized_EN.txt	LILAC	Flowers	11	9	[0, 0, 0]	n/a	catFR1	0	R1492J
1305.965	0.999	1472295	WORD_OFF	n/a	n/a	LILAC	Flowers	11	9	[0, 0, 0]	n/a	catFR1	0	R1492J
1306.964	1.6	1473298	WORD	n/a	wordpools/wordpool_categorized_EN.txt	PETUNIA	Flowers	12	9	[0, 0, 0]	n/a	catFR1	0	R1492J
1308.565	0.0	1474901	PROB	4.733	n/a	n/a	n/a	-999	9	[8, 8, 3]	19.0	catFR1	0	R1492J
1308.565	0.001	1474902	WORD_OFF	n/a	n/a	PETUNIA	Flowers	12	9	[0, 0, 0]	n/a	catFR1	0	R1492J
1308.566	0.0	1474902	ENCODING_END	n/a	n/a	n/a	n/a	-999	9	[0, 0, 0]	n/a	catFR1	0	R1492J
1308.566	0.0	1474902	DISTRACT_START	n/a	n/a	n/a	n/a	-999	9	[0, 0, 0]	n/a	catFR1	0	R1492J
1308.566	4.749	1474902	START	n/a	n/a	n/a	n/a	-999	9	[-999, -999, -999]	n/a	catFR1	0	R1492J
1313.315	3.499	1479651	PROB	3.483	n/a	n/a	n/a	-999	9	[7, 1, 2]	10.0	catFR1	0	R1492J
1316.814	4.001	1483150	PROB	3.984	n/a	n/a	n/a	-999	9	[7, 8, 1]	16.0	catFR1	0	R1492J
1320.815	3.634	1487150	PROB	3.616	n/a	n/a	n/a	-999	9	[5, 1, 1]	7.0	catFR1	0	R1492J
1324.449	5.149	1490784	PROB	5.132	n/a	n/a	n/a	-999	9	[6, 3, 7]	16.0	catFR1	0	R1492J
1329.598	0.0	1495924	DISTRACT_END	n/a	n/a	n/a	n/a	-999	9	[0, 0, 0]	n/a	catFR1	0	R1492J
1329.598	2.267	1495933	STOP	n/a	n/a	n/a	n/a	-999	9	[-999, -999, -999]	n/a	catFR1	0	R1492J
1331.865	0.121	1498201	REC_START	n/a	n/a	n/a	n/a	-999	9	[0, 0, 0]	n/a	catFR1	0	R1492J
1331.986	30.104	1498321	REC_WORD	0.121	n/a	SOCKS	Clothing	9	9	[0, 0, 0]	n/a	catFR1	0	R1492J
1362.09	6.442	1528417	REC_END	n/a	n/a	n/a	n/a	-999	9	[0, 0, 0]	n/a	catFR1	0	R1492J
1368.532	10.0	1534865	COUNTDOWN_START	n/a	n/a	n/a	n/a	-999	10	[0, 0, 0]	n/a	catFR1	0	R1492J
1378.883	0.0	1545207	COUNTDOWN_END	n/a	n/a	n/a	n/a	-999	10	[0, 0, 0]	n/a	catFR1	0	R1492J
1378.883	2.332	1545218	ENCODING_START	n/a	n/a	n/a	n/a	-999	10	[0, 0, 0]	n/a	catFR1	0	R1492J
1381.215	1.6	1547540	WORD	n/a	wordpools/wordpool_categorized_EN.txt	WILLOW	Trees	1	10	[0, 0, 0]	n/a	catFR1	0	R1492J
1382.832	0.966	1549165	WORD_OFF	n/a	n/a	WILLOW	Trees	1	10	[0, 0, 0]	n/a	catFR1	0	R1492J
1383.798	1.6	1550125	WORD	n/a	wordpools/wordpool_categorized_EN.txt	EVERGREEN	Trees	2	10	[0, 0, 0]	n/a	catFR1	0	R1492J
1385.398	0.999	1551729	WORD_OFF	n/a	n/a	EVERGREEN	Trees	2	10	[0, 0, 0]	n/a	catFR1	0	R1492J
1386.397	1.6	1552721	WORD	n/a	wordpools/wordpool_categorized_EN.txt	CORKSCREW	KitchenTools	3	10	[0, 0, 0]	n/a	catFR1	0	R1492J
1387.997	0.834	1554325	WORD_OFF	n/a	n/a	CORKSCREW	KitchenTools	3	10	[0, 0, 0]	n/a	catFR1	0	R1492J
1388.831	1.6	1555159	WORD	n/a	wordpools/wordpool_categorized_EN.txt	STRAINER	KitchenTools	4	10	[0, 0, 0]	n/a	catFR1	0	R1492J
1390.432	0.85	1556763	WORD_OFF	n/a	n/a	STRAINER	KitchenTools	4	10	[0, 0, 0]	n/a	catFR1	0	R1492J
1391.282	1.6	1557607	WORD	n/a	wordpools/wordpool_categorized_EN.txt	HEAD	BodyParts	5	10	[0, 0, 0]	n/a	catFR1	0	R1492J
1392.899	0.766	1559232	WORD_OFF	n/a	n/a	HEAD	BodyParts	5	10	[0, 0, 0]	n/a	catFR1	0	R1492J
1393.665	1.6	1559992	WORD	n/a	wordpools/wordpool_categorized_EN.txt	ARM	BodyParts	6	10	[0, 0, 0]	n/a	catFR1	0	R1492J
1395.265	0.783	1561596	WORD_OFF	n/a	n/a	ARM	BodyParts	6	10	[0, 0, 0]	n/a	catFR1	0	R1492J
1396.048	1.6	1562377	WORD	n/a	wordpools/wordpool_categorized_EN.txt	WHISK	KitchenTools	7	10	[0, 0, 0]	n/a	catFR1	0	R1492J
1397.665	0.833	1563992	WORD_OFF	n/a	n/a	WHISK	KitchenTools	7	10	[0, 0, 0]	n/a	catFR1	0	R1492J
1398.498	1.6	1564826	WORD	n/a	wordpools/wordpool_categorized_EN.txt	FORK	KitchenTools	8	10	[0, 0, 0]	n/a	catFR1	0	R1492J
1400.115	0.833	1566440	WORD_OFF	n/a	n/a	FORK	KitchenTools	8	10	[0, 0, 0]	n/a	catFR1	0	R1492J
1400.948	1.6	1567274	WORD	n/a	wordpools/wordpool_categorized_EN.txt	CYPRESS	Trees	9	10	[0, 0, 0]	n/a	catFR1	0	R1492J
1402.549	0.916	1568878	WORD_OFF	n/a	n/a	CYPRESS	Trees	9	10	[0, 0, 0]	n/a	catFR1	0	R1492J
1403.465	1.6	1569796	WORD	n/a	wordpools/wordpool_categorized_EN.txt	MAPLE	Trees	10	10	[0, 0, 0]	n/a	catFR1	0	R1492J
1405.065	0.766	1571390	WORD_OFF	n/a	n/a	MAPLE	Trees	10	10	[0, 0, 0]	n/a	catFR1	0	R1492J
1405.831	1.6	1572160	WORD	n/a	wordpools/wordpool_categorized_EN.txt	EAR	BodyParts	11	10	[0, 0, 0]	n/a	catFR1	0	R1492J
1407.432	0.901	1573764	WORD_OFF	n/a	n/a	EAR	BodyParts	11	10	[0, 0, 0]	n/a	catFR1	0	R1492J
1408.333	1.6	1574661	WORD	n/a	wordpools/wordpool_categorized_EN.txt	HAND	BodyParts	12	10	[0, 0, 0]	n/a	catFR1	0	R1492J
1409.948	0.002	1576276	WORD_OFF	n/a	n/a	HAND	BodyParts	12	10	[0, 0, 0]	n/a	catFR1	0	R1492J
1409.95	0.0	1576276	ENCODING_END	n/a	n/a	n/a	n/a	-999	10	[0, 0, 0]	n/a	catFR1	0	R1492J
1409.948	0.002	1576280	PROB	5.55	n/a	n/a	n/a	-999	10	[3, 4, 7]	14.0	catFR1	0	R1492J
1409.95	0.0	1576282	START	n/a	n/a	n/a	n/a	-999	10	[-999, -999, -999]	n/a	catFR1	0	R1492J
1409.95	5.565	1576286	DISTRACT_START	n/a	n/a	n/a	n/a	-999	10	[0, 0, 0]	n/a	catFR1	0	R1492J
1415.515	6.6	1581847	PROB	6.583	n/a	n/a	n/a	-999	10	[8, 7, 2]	17.0	catFR1	0	R1492J
1422.115	5.249	1588446	PROB	5.233	n/a	n/a	n/a	-999	10	[4, 7, 1]	13.0	catFR1	0	R1492J
1427.364	6.734	1593695	PROB	6.717	n/a	n/a	n/a	-999	10	[7, 2, 8]	17.0	catFR1	0	R1492J
1434.098	0.0	1600422	DISTRACT_END	n/a	n/a	n/a	n/a	-999	10	[0, 0, 0]	n/a	catFR1	0	R1492J
1434.098	2.283	1600429	STOP	n/a	n/a	n/a	n/a	-999	10	[-999, -999, -999]	n/a	catFR1	0	R1492J
1436.381	3.387	1602709	REC_START	n/a	n/a	n/a	n/a	-999	10	[0, 0, 0]	n/a	catFR1	0	R1492J
1439.768	0.682	1606099	REC_WORD	3.387	n/a	HAND	BodyParts	12	10	[0, 0, 0]	n/a	catFR1	0	R1492J
1440.45	2.096	1606781	REC_WORD	4.069	n/a	HEAD	BodyParts	5	10	[0, 0, 0]	n/a	catFR1	0	R1492J
1442.546	24.053	1608877	REC_WORD	6.165	n/a	ARM	BodyParts	6	10	[0, 0, 0]	n/a	catFR1	0	R1492J
1466.599	9.501	1632925	REC_END	n/a	n/a	n/a	n/a	-999	10	[0, 0, 0]	n/a	catFR1	0	R1492J
1476.1	10.0	1642423	COUNTDOWN_START	n/a	n/a	n/a	n/a	-999	11	[0, 0, 0]	n/a	catFR1	0	R1492J
1486.45	0.0	1652776	COUNTDOWN_END	n/a	n/a	n/a	n/a	-999	11	[0, 0, 0]	n/a	catFR1	0	R1492J
1486.45	1.982	1652776	ENCODING_START	n/a	n/a	n/a	n/a	-999	11	[0, 0, 0]	n/a	catFR1	0	R1492J
1488.432	1.6	1654760	WORD	n/a	wordpools/wordpool_categorized_EN.txt	LEG	BodyParts	1	11	[0, 0, 0]	n/a	catFR1	0	R1492J
1490.033	0.867	1656353	WORD_OFF	n/a	n/a	LEG	BodyParts	1	11	[0, 0, 0]	n/a	catFR1	0	R1492J
1490.9	1.6	1657229	WORD	n/a	wordpools/wordpool_categorized_EN.txt	NOSE	BodyParts	2	11	[0, 0, 0]	n/a	catFR1	0	R1492J
1492.5	0.8	1658823	WORD_OFF	n/a	n/a	NOSE	BodyParts	2	11	[0, 0, 0]	n/a	catFR1	0	R1492J
1493.3	1.6	1659625	WORD	n/a	wordpools/wordpool_categorized_EN.txt	NIGHTSTAND	Furniture	3	11	[0, 0, 0]	n/a	catFR1	0	R1492J
1494.915	0.884	1661240	WORD_OFF	n/a	n/a	NIGHTSTAND	Furniture	3	11	[0, 0, 0]	n/a	catFR1	0	R1492J
1495.799	1.6	1662126	WORD	n/a	wordpools/wordpool_categorized_EN.txt	DRESSER	Furniture	4	11	[0, 0, 0]	n/a	catFR1	0	R1492J
1497.4	0.766	1663720	WORD_OFF	n/a	n/a	DRESSER	Furniture	4	11	[0, 0, 0]	n/a	catFR1	0	R1492J
1498.166	1.6	1664490	WORD	n/a	wordpools/wordpool_categorized_EN.txt	CRICKET	Insects	5	11	[0, 0, 0]	n/a	catFR1	0	R1492J
1499.782	0.965	1666105	WORD_OFF	n/a	n/a	CRICKET	Insects	5	11	[0, 0, 0]	n/a	catFR1	0	R1492J
1500.747	1.6	1667075	WORD	n/a	wordpools/wordpool_categorized_EN.txt	ANT	Insects	6	11	[0, 0, 0]	n/a	catFR1	0	R1492J
1502.35	0.816	1668669	WORD_OFF	n/a	n/a	ANT	Insects	6	11	[0, 0, 0]	n/a	catFR1	0	R1492J
1503.166	1.6	1669492	WORD	n/a	wordpools/wordpool_categorized_EN.txt	RECLINER	Furniture	7	11	[0, 0, 0]	n/a	catFR1	0	R1492J
1504.782	1.001	1671107	WORD_OFF	n/a	n/a	RECLINER	Furniture	7	11	[0, 0, 0]	n/a	catFR1	0	R1492J
1505.783	1.6	1672109	WORD	n/a	wordpools/wordpool_categorized_EN.txt	SOFA	Furniture	8	11	[0, 0, 0]	n/a	catFR1	0	R1492J
1507.383	0.849	1673703	WORD_OFF	n/a	n/a	SOFA	Furniture	8	11	[0, 0, 0]	n/a	catFR1	0	R1492J
1508.232	1.6	1674558	WORD	n/a	wordpools/wordpool_categorized_EN.txt	TOE	BodyParts	9	11	[0, 0, 0]	n/a	catFR1	0	R1492J
1509.833	0.767	1676162	WORD_OFF	n/a	n/a	TOE	BodyParts	9	11	[0, 0, 0]	n/a	catFR1	0	R1492J
1510.6	1.6	1676922	WORD	n/a	wordpools/wordpool_categorized_EN.txt	KNEE	BodyParts	10	11	[0, 0, 0]	n/a	catFR1	0	R1492J
1512.2	0.983	1678526	WORD_OFF	n/a	n/a	KNEE	BodyParts	10	11	[0, 0, 0]	n/a	catFR1	0	R1492J
1513.183	1.6	1679507	WORD	n/a	wordpools/wordpool_categorized_EN.txt	ROACH	Insects	11	11	[0, 0, 0]	n/a	catFR1	0	R1492J
1514.8	0.783	1681122	WORD_OFF	n/a	n/a	ROACH	Insects	11	11	[0, 0, 0]	n/a	catFR1	0	R1492J
1515.583	1.6	1681903	WORD	n/a	wordpools/wordpool_categorized_EN.txt	LADYBUG	Insects	12	11	[0, 0, 0]	n/a	catFR1	0	R1492J
1517.183	0.001	1683507	WORD_OFF	n/a	n/a	LADYBUG	Insects	12	11	[0, 0, 0]	n/a	catFR1	0	R1492J
1517.184	0.0	1683507	ENCODING_END	n/a	n/a	n/a	n/a	-999	11	[0, 0, 0]	n/a	catFR1	0	R1492J
1517.184	0.0	1683507	DISTRACT_START	n/a	n/a	n/a	n/a	-999	11	[0, 0, 0]	n/a	catFR1	0	R1492J
1517.184	0.0	1683511	START	n/a	n/a	n/a	n/a	-999	11	[-999, -999, -999]	n/a	catFR1	0	R1492J
1517.184	5.233	1683511	PROB	5.216	n/a	n/a	n/a	-999	11	[3, 4, 1]	8.0	catFR1	0	R1492J
1522.417	3.733	1688744	PROB	3.716	n/a	n/a	n/a	-999	11	[5, 3, 3]	11.0	catFR1	0	R1492J
1526.15	3.849	1692477	PROB	3.833	n/a	n/a	n/a	-999	11	[7, 3, 2]	12.0	catFR1	0	R1492J
1529.999	3.451	1696326	PROB	3.434	n/a	n/a	n/a	-999	11	[6, 1, 4]	11.0	catFR1	0	R1492J
1533.45	4.566	1699777	PROB	4.549	n/a	n/a	n/a	-999	11	[6, 7, 5]	18.0	catFR1	0	R1492J
1538.016	0.0	1704339	DISTRACT_END	n/a	n/a	n/a	n/a	-999	11	[0, 0, 0]	n/a	catFR1	0	R1492J
1538.016	2.233	1704343	STOP	n/a	n/a	n/a	n/a	-999	11	[-999, -999, -999]	n/a	catFR1	0	R1492J
1540.249	0.146	1706573	REC_START	n/a	n/a	n/a	n/a	-999	11	[0, 0, 0]	n/a	catFR1	0	R1492J
1540.395	5.79	1706722	REC_WORD	0.146	n/a	LADYBUG	Insects	12	11	[0, 0, 0]	n/a	catFR1	0	R1492J
1546.185	17.667	1712511	REC_WORD	5.936	n/a	LEG	BodyParts	1	11	[0, 0, 0]	n/a	catFR1	0	R1492J
1563.852	6.618	1730178	REC_WORD	23.603	n/a	ROACH	Insects	11	11	[0, 0, 0]	n/a	catFR1	0	R1492J
1570.47	20.663	1736790	REC_END	n/a	n/a	n/a	n/a	-999	11	[0, 0, 0]	n/a	catFR1	0	R1492J
1591.133	10.0	1757453	COUNTDOWN_START	n/a	n/a	n/a	n/a	-999	12	[0, 0, 0]	n/a	catFR1	0	R1492J
1601.482	0.0	1767806	COUNTDOWN_END	n/a	n/a	n/a	n/a	-999	12	[0, 0, 0]	n/a	catFR1	0	R1492J
1601.482	2.234	1767806	ENCODING_START	n/a	n/a	n/a	n/a	-999	12	[0, 0, 0]	n/a	catFR1	0	R1492J
1603.716	1.6	1770032	WORD	n/a	wordpools/wordpool_categorized_EN.txt	BUTTERFLY	Insects	1	12	[0, 0, 0]	n/a	catFR1	0	R1492J
1605.333	0.815	1771658	WORD_OFF	n/a	n/a	BUTTERFLY	Insects	1	12	[0, 0, 0]	n/a	catFR1	0	R1492J
1606.148	1.6	1772470	WORD	n/a	wordpools/wordpool_categorized_EN.txt	BEETLE	Insects	2	12	[0, 0, 0]	n/a	catFR1	0	R1492J
1607.75	0.815	1774074	WORD_OFF	n/a	n/a	BEETLE	Insects	2	12	[0, 0, 0]	n/a	catFR1	0	R1492J
1608.565	1.6	1774887	WORD	n/a	wordpools/wordpool_categorized_EN.txt	PLIERS	Tools	3	12	[0, 0, 0]	n/a	catFR1	0	R1492J
1610.167	0.899	1776491	WORD_OFF	n/a	n/a	PLIERS	Tools	3	12	[0, 0, 0]	n/a	catFR1	0	R1492J
1611.066	1.6	1777388	WORD	n/a	wordpools/wordpool_categorized_EN.txt	SCREWDRIVER	Tools	4	12	[0, 0, 0]	n/a	catFR1	0	R1492J
1612.683	0.967	1779003	WORD_OFF	n/a	n/a	SCREWDRIVER	Tools	4	12	[0, 0, 0]	n/a	catFR1	0	R1492J
1613.65	1.6	1779973	WORD	n/a	wordpools/wordpool_categorized_EN.txt	CORN	Vegetables	5	12	[0, 0, 0]	n/a	catFR1	0	R1492J
1615.25	0.898	1781567	WORD_OFF	n/a	n/a	CORN	Vegetables	5	12	[0, 0, 0]	n/a	catFR1	0	R1492J
1616.148	1.6	1782464	WORD	n/a	wordpools/wordpool_categorized_EN.txt	CARROT	Vegetables	6	12	[0, 0, 0]	n/a	catFR1	0	R1492J
1617.75	0.983	1784068	WORD_OFF	n/a	n/a	CARROT	Vegetables	6	12	[0, 0, 0]	n/a	catFR1	0	R1492J
1618.733	1.6	1785050	WORD	n/a	wordpools/wordpool_categorized_EN.txt	AXE	Tools	7	12	[0, 0, 0]	n/a	catFR1	0	R1492J
1620.333	0.967	1786654	WORD_OFF	n/a	n/a	AXE	Tools	7	12	[0, 0, 0]	n/a	catFR1	0	R1492J
1621.3	1.6	1787624	WORD	n/a	wordpools/wordpool_categorized_EN.txt	LEVEL	Tools	8	12	[0, 0, 0]	n/a	catFR1	0	R1492J
1622.9	0.767	1789218	WORD_OFF	n/a	n/a	LEVEL	Tools	8	12	[0, 0, 0]	n/a	catFR1	0	R1492J
1623.667	1.6	1789988	WORD	n/a	wordpools/wordpool_categorized_EN.txt	GNAT	Insects	9	12	[0, 0, 0]	n/a	catFR1	0	R1492J
1625.266	0.817	1791582	WORD_OFF	n/a	n/a	GNAT	Insects	9	12	[0, 0, 0]	n/a	catFR1	0	R1492J
1626.083	1.6	1792405	WORD	n/a	wordpools/wordpool_categorized_EN.txt	MOSQUITO	Insects	10	12	[0, 0, 0]	n/a	catFR1	0	R1492J
1627.7	0.999	1794020	WORD_OFF	n/a	n/a	MOSQUITO	Insects	10	12	[0, 0, 0]	n/a	catFR1	0	R1492J
1628.699	1.6	1795022	WORD	n/a	wordpools/wordpool_categorized_EN.txt	POTATO	Vegetables	11	12	[0, 0, 0]	n/a	catFR1	0	R1492J
1630.316	0.8	1796637	WORD_OFF	n/a	n/a	POTATO	Vegetables	11	12	[0, 0, 0]	n/a	catFR1	0	R1492J
1631.116	1.6	1797439	WORD	n/a	wordpools/wordpool_categorized_EN.txt	SPINACH	Vegetables	12	12	[0, 0, 0]	n/a	catFR1	0	R1492J
1632.733	0.001	1799054	WORD_OFF	n/a	n/a	SPINACH	Vegetables	12	12	[0, 0, 0]	n/a	catFR1	0	R1492J
1632.734	0.0	1799054	ENCODING_END	n/a	n/a	n/a	n/a	-999	12	[0, 0, 0]	n/a	catFR1	0	R1492J
1632.734	0.0	1799054	DISTRACT_START	n/a	n/a	n/a	n/a	-999	12	[0, 0, 0]	n/a	catFR1	0	R1492J
1632.733	0.001	1799056	PROB	5.966	n/a	n/a	n/a	-999	12	[5, 6, 8]	19.0	catFR1	0	R1492J
1632.734	5.982	1799057	START	n/a	n/a	n/a	n/a	-999	12	[-999, -999, -999]	n/a	catFR1	0	R1492J
1638.716	2.683	1805039	PROB	2.666	n/a	n/a	n/a	-999	12	[4, 3, 3]	11.0	catFR1	0	R1492J
1641.399	5.817	1807721	PROB	5.8	n/a	n/a	n/a	-999	12	[3, 7, 7]	17.0	catFR1	0	R1492J
1647.216	2.766	1813538	PROB	2.749	n/a	n/a	n/a	-999	12	[4, 6, 2]	12.0	catFR1	0	R1492J
1649.982	4.45	1816304	PROB	4.432	n/a	n/a	n/a	-999	12	[2, 3, 3]	8.0	catFR1	0	R1492J
1654.432	0.0	1820751	DISTRACT_END	n/a	n/a	n/a	n/a	-999	12	[0, 0, 0]	n/a	catFR1	0	R1492J
1654.432	2.016	1820754	STOP	n/a	n/a	n/a	n/a	-999	12	[-999, -999, -999]	n/a	catFR1	0	R1492J
1656.448	0.87	1822764	REC_START	n/a	n/a	n/a	n/a	-999	12	[0, 0, 0]	n/a	catFR1	0	R1492J
1657.318	0.41	1823640	REC_WORD	0.87	n/a	CARROT	Vegetables	6	12	[0, 0, 0]	n/a	catFR1	0	R1492J
1657.728	28.921	1824050	REC_WORD	1.28	n/a	SPINACH	Vegetables	12	12	[0, 0, 0]	n/a	catFR1	0	R1492J
1686.649	0.0	1852970	REC_END	n/a	n/a	n/a	n/a	-999	12	[0, 0, 0]	n/a	catFR1	0	R1492J
