onset	duration	sample	trial_type	response_time	stim_file	item_name	category	serialpos	list	test	answer	experiment	session	subject
0.0	10.515	225829	INSTRUCT_START	n/a	n/a	n/a	n/a	-999	-999	[0, 0, 0]	n/a	catFR1	0	R1395M
10.515	24.382	236339	INSTRUCT_END	n/a	n/a	n/a	n/a	-999	-999	[0, 0, 0]	n/a	catFR1	0	R1395M
34.897	10.351	260727	COUNTDOWN_START	n/a	n/a	n/a	n/a	-999	-999	[0, 0, 0]	n/a	catFR1	0	R1395M
45.248	0.001	271077	COUNTDOWN_END	n/a	n/a	n/a	n/a	-999	-999	[0, 0, 0]	n/a	catFR1	0	R1395M
45.249	2.382	271077	ENCODING_START	n/a	n/a	n/a	n/a	-999	-1	[0, 0, 0]	n/a	catFR1	0	R1395M
47.631	1.617	273454	WORD	n/a	n/a	SPATULA	KitchenTools	1	-1	[0, 0, 0]	n/a	catFR1	0	R1395M
49.248	0.866	275073	WORD_OFF	n/a	n/a	SPATULA	KitchenTools	1	-1	[0, 0, 0]	n/a	catFR1	0	R1395M
50.114	1.6	275944	WORD	n/a	n/a	SPOON	KitchenTools	2	-1	[0, 0, 0]	n/a	catFR1	0	R1395M
51.714	0.784	277544	WORD_OFF	n/a	n/a	SPOON	KitchenTools	2	-1	[0, 0, 0]	n/a	catFR1	0	R1395M
52.498	1.6	278321	WORD	n/a	n/a	BLUEBERRY	Fruit	3	-1	[0, 0, 0]	n/a	catFR1	0	R1395M
54.098	0.833	279921	WORD_OFF	n/a	n/a	BLUEBERRY	Fruit	3	-1	[0, 0, 0]	n/a	catFR1	0	R1395M
54.931	1.616	280754	WORD	n/a	n/a	ORANGE	Fruit	4	-1	[0, 0, 0]	n/a	catFR1	0	R1395M
56.547	0.801	282373	WORD_OFF	n/a	n/a	ORANGE	Fruit	4	-1	[0, 0, 0]	n/a	catFR1	0	R1395M
57.348	1.616	283169	WORD	n/a	n/a	ROOF	Building	5	-1	[0, 0, 0]	n/a	catFR1	0	R1395M
58.964	0.817	284788	WORD_OFF	n/a	n/a	ROOF	Building	5	-1	[0, 0, 0]	n/a	catFR1	0	R1395M
59.781	1.616	285602	WORD	n/a	n/a	ROOM	Building	6	-1	[0, 0, 0]	n/a	catFR1	0	R1395M
61.397	0.8	287221	WORD_OFF	n/a	n/a	ROOM	Building	6	-1	[0, 0, 0]	n/a	catFR1	0	R1395M
62.197	1.617	288026	WORD	n/a	n/a	TONGS	KitchenTools	7	-1	[0, 0, 0]	n/a	catFR1	0	R1395M
63.814	0.967	289635	WORD_OFF	n/a	n/a	TONGS	KitchenTools	7	-1	[0, 0, 0]	n/a	catFR1	0	R1395M
64.781	1.616	290609	WORD	n/a	n/a	FORK	KitchenTools	8	-1	[0, 0, 0]	n/a	catFR1	0	R1395M
66.397	0.884	292218	WORD_OFF	n/a	n/a	FORK	KitchenTools	8	-1	[0, 0, 0]	n/a	catFR1	0	R1395M
67.281	1.616	293107	WORD	n/a	n/a	GRAPE	Fruit	9	-1	[0, 0, 0]	n/a	catFR1	0	R1395M
68.897	0.867	294717	WORD_OFF	n/a	n/a	GRAPE	Fruit	9	-1	[0, 0, 0]	n/a	catFR1	0	R1395M
69.764	1.616	295587	WORD	n/a	n/a	BANANA	Fruit	10	-1	[0, 0, 0]	n/a	catFR1	0	R1395M
71.38	0.934	297206	WORD_OFF	n/a	n/a	BANANA	Fruit	10	-1	[0, 0, 0]	n/a	catFR1	0	R1395M
72.314	1.616	298133	WORD	n/a	n/a	BATHROOM	Building	11	-1	[0, 0, 0]	n/a	catFR1	0	R1395M
73.93	0.984	299752	WORD_OFF	n/a	n/a	BATHROOM	Building	11	-1	[0, 0, 0]	n/a	catFR1	0	R1395M
74.914	1.616	300734	WORD	n/a	n/a	FLOOR	Building	12	-1	[0, 0, 0]	n/a	catFR1	0	R1395M
76.53	0.002	302353	WORD_OFF	n/a	n/a	FLOOR	Building	12	-1	[0, 0, 0]	n/a	catFR1	0	R1395M
76.532	0.0	302353	ENCODING_END	n/a	n/a	n/a	n/a	-999	-1	[0, 0, 0]	n/a	catFR1	0	R1395M
76.532	0.0	302353	DISTRACT_START	n/a	n/a	n/a	n/a	-999	-1	[0, 0, 0]	n/a	catFR1	0	R1395M
76.531	0.001	302354	PROB	0.001	n/a	n/a	n/a	-999	-1	[2, 1, 2]	5	catFR1	0	R1395M
76.532	3.498	302355	START	n/a	n/a	n/a	n/a	-999	-1	[-999, -999, -999]	n/a	catFR1	0	R1395M
80.03	3.184	305853	PROB	3.184	n/a	n/a	n/a	-999	-1	[1, 5, 7]	13	catFR1	0	R1395M
83.214	3.016	309037	PROB	3.016	n/a	n/a	n/a	-999	-1	[8, 2, 7]	17	catFR1	0	R1395M
86.23	2.518	312053	PROB	2.518	n/a	n/a	n/a	-999	-1	[4, 2, 5]	11	catFR1	0	R1395M
88.748	2.684	314571	PROB	2.684	n/a	n/a	n/a	-999	-1	[6, 8, 5]	19	catFR1	0	R1395M
91.432	2.499	317254	PROB	2.499	n/a	n/a	n/a	-999	-1	[1, 3, 6]	10	catFR1	0	R1395M
93.931	2.333	319753	PROB	2.333	n/a	n/a	n/a	-999	-1	[7, 3, 7]	17	catFR1	0	R1395M
96.264	2.251	322086	PROB	2.251	n/a	n/a	n/a	-999	-1	[8, 8, 2]	18	catFR1	0	R1395M
98.515	0.0	324337	DISTRACT_END	n/a	n/a	n/a	n/a	-999	-1	[0, 0, 0]	n/a	catFR1	0	R1395M
98.515	1.05	324337	STOP	n/a	n/a	n/a	n/a	-999	-1	[-999, -999, -999]	n/a	catFR1	0	R1395M
99.565	2.048	325385	REC_START	n/a	n/a	n/a	n/a	-999	-1	[0, 0, 0]	n/a	catFR1	0	R1395M
101.613	1.214	327435	REC_WORD	1.214	n/a	SPATULA	KitchenTools	1	-1	[0, 0, 0]	n/a	catFR1	0	R1395M
102.827	3.123	328649	REC_WORD	3.123	n/a	SPOON	KitchenTools	2	-1	[0, 0, 0]	n/a	catFR1	0	R1395M
105.95	1.132	331772	REC_WORD	1.132	n/a	TONGS	KitchenTools	7	-1	[0, 0, 0]	n/a	catFR1	0	R1395M
107.082	2.811	332904	REC_WORD	2.811	n/a	FORK	KitchenTools	8	-1	[0, 0, 0]	n/a	catFR1	0	R1395M
109.893	0.964	335714	REC_WORD	0.964	n/a	BLUEBERRY	Fruit	3	-1	[0, 0, 0]	n/a	catFR1	0	R1395M
110.857	1.373	336678	REC_WORD	1.373	n/a	ORANGE	Fruit	4	-1	[0, 0, 0]	n/a	catFR1	0	R1395M
112.23	0.936	338051	REC_WORD	0.936	n/a	BANANA	Fruit	10	-1	[0, 0, 0]	n/a	catFR1	0	R1395M
113.166	5.391	338987	REC_WORD	5.391	n/a	GRAPE	Fruit	9	-1	[0, 0, 0]	n/a	catFR1	0	R1395M
118.557	1.681	344378	REC_WORD	1.681	n/a	ROOF	Building	5	-1	[0, 0, 0]	n/a	catFR1	0	R1395M
120.238	10.564	346059	REC_WORD_VV	10.564	n/a	<>	n/a	-999	-1	[0, 0, 0]	n/a	catFR1	0	R1395M
130.802	7.529	356623	REC_END	n/a	n/a	n/a	n/a	-999	-1	[0, 0, 0]	n/a	catFR1	0	R1395M
138.331	10.351	364157	COUNTDOWN_START	n/a	n/a	n/a	n/a	-999	1	[0, 0, 0]	n/a	catFR1	0	R1395M
148.682	0.0	374498	COUNTDOWN_END	n/a	n/a	n/a	n/a	-999	1	[0, 0, 0]	n/a	catFR1	0	R1395M
148.682	2.199	374507	ENCODING_START	n/a	n/a	n/a	n/a	-999	1	[0, 0, 0]	n/a	catFR1	0	R1395M
150.881	1.617	376697	WORD	n/a	wordpools/wordpool_categorized_EN.txt	STRAWBERRY	Fruit	1	1	[0, 0, 0]	n/a	catFR1	0	R1395M
152.498	0.865	378316	WORD_OFF	n/a	n/a	STRAWBERRY	Fruit	1	1	[0, 0, 0]	n/a	catFR1	0	R1395M
153.363	1.601	379187	WORD	n/a	wordpools/wordpool_categorized_EN.txt	PEACH	Fruit	2	1	[0, 0, 0]	n/a	catFR1	0	R1395M
154.964	0.767	380787	WORD_OFF	n/a	n/a	PEACH	Fruit	2	1	[0, 0, 0]	n/a	catFR1	0	R1395M
155.731	1.616	381554	WORD	n/a	wordpools/wordpool_categorized_EN.txt	AXE	Tools	3	1	[0, 0, 0]	n/a	catFR1	0	R1395M
157.347	0.834	383164	WORD_OFF	n/a	n/a	AXE	Tools	3	1	[0, 0, 0]	n/a	catFR1	0	R1395M
158.181	1.6	383997	WORD	n/a	wordpools/wordpool_categorized_EN.txt	WRENCH	Tools	4	1	[0, 0, 0]	n/a	catFR1	0	R1395M
159.781	0.833	385597	WORD_OFF	n/a	n/a	WRENCH	Tools	4	1	[0, 0, 0]	n/a	catFR1	0	R1395M
160.614	1.6	386430	WORD	n/a	wordpools/wordpool_categorized_EN.txt	CAULIFLOWER	Vegetables	5	1	[0, 0, 0]	n/a	catFR1	0	R1395M
162.214	1.0	388030	WORD_OFF	n/a	n/a	CAULIFLOWER	Vegetables	5	1	[0, 0, 0]	n/a	catFR1	0	R1395M
163.214	1.617	389032	WORD	n/a	wordpools/wordpool_categorized_EN.txt	PEAS	Vegetables	6	1	[0, 0, 0]	n/a	catFR1	0	R1395M
164.831	0.966	390651	WORD_OFF	n/a	n/a	PEAS	Vegetables	6	1	[0, 0, 0]	n/a	catFR1	0	R1395M
165.797	1.617	391615	WORD	n/a	wordpools/wordpool_categorized_EN.txt	SAW	Tools	7	1	[0, 0, 0]	n/a	catFR1	0	R1395M
167.414	1.0	393234	WORD_OFF	n/a	n/a	SAW	Tools	7	1	[0, 0, 0]	n/a	catFR1	0	R1395M
168.414	1.6	394235	WORD	n/a	wordpools/wordpool_categorized_EN.txt	DRILL	Tools	8	1	[0, 0, 0]	n/a	catFR1	0	R1395M
170.014	0.783	395835	WORD_OFF	n/a	n/a	DRILL	Tools	8	1	[0, 0, 0]	n/a	catFR1	0	R1395M
170.797	1.616	396612	WORD	n/a	wordpools/wordpool_categorized_EN.txt	LEMON	Fruit	9	1	[0, 0, 0]	n/a	catFR1	0	R1395M
172.413	0.834	398231	WORD_OFF	n/a	n/a	LEMON	Fruit	9	1	[0, 0, 0]	n/a	catFR1	0	R1395M
173.247	1.617	399064	WORD	n/a	wordpools/wordpool_categorized_EN.txt	LIME	Fruit	10	1	[0, 0, 0]	n/a	catFR1	0	R1395M
174.864	0.9	400683	WORD_OFF	n/a	n/a	LIME	Fruit	10	1	[0, 0, 0]	n/a	catFR1	0	R1395M
175.764	1.616	401581	WORD	n/a	wordpools/wordpool_categorized_EN.txt	ONION	Vegetables	11	1	[0, 0, 0]	n/a	catFR1	0	R1395M
177.38	0.867	403200	WORD_OFF	n/a	n/a	ONION	Vegetables	11	1	[0, 0, 0]	n/a	catFR1	0	R1395M
178.247	1.617	404061	WORD	n/a	wordpools/wordpool_categorized_EN.txt	SPINACH	Vegetables	12	1	[0, 0, 0]	n/a	catFR1	0	R1395M
179.864	0.001	405680	WORD_OFF	n/a	n/a	SPINACH	Vegetables	12	1	[0, 0, 0]	n/a	catFR1	0	R1395M
179.865	0.0	405680	ENCODING_END	n/a	n/a	n/a	n/a	-999	1	[0, 0, 0]	n/a	catFR1	0	R1395M
179.864	0.001	405682	PROB	0.001	n/a	n/a	n/a	-999	1	[2, 4, 8]	14	catFR1	0	R1395M
179.865	0.0	405683	START	n/a	n/a	n/a	n/a	-999	1	[-999, -999, -999]	n/a	catFR1	0	R1395M
179.865	3.9	405690	DISTRACT_START	n/a	n/a	n/a	n/a	-999	1	[0, 0, 0]	n/a	catFR1	0	R1395M
183.765	3.249	409582	PROB	3.249	n/a	n/a	n/a	-999	1	[5, 3, 6]	14	catFR1	0	R1395M
187.014	2.433	412831	PROB	2.433	n/a	n/a	n/a	-999	1	[4, 4, 3]	11	catFR1	0	R1395M
189.447	5.017	415264	PROB	5.017	n/a	n/a	n/a	-999	1	[8, 6, 8]	22	catFR1	0	R1395M
194.464	2.151	420281	PROB	2.151	n/a	n/a	n/a	-999	1	[8, 8, 1]	17	catFR1	0	R1395M
196.615	3.783	422432	PROB	3.783	n/a	n/a	n/a	-999	1	[4, 8, 8]	20	catFR1	0	R1395M
200.398	0.0	426213	DISTRACT_END	n/a	n/a	n/a	n/a	-999	1	[0, 0, 0]	n/a	catFR1	0	R1395M
200.398	1.134	426215	STOP	n/a	n/a	n/a	n/a	-999	1	[-999, -999, -999]	n/a	catFR1	0	R1395M
201.532	1.885	427345	REC_START	n/a	n/a	n/a	n/a	-999	1	[0, 0, 0]	n/a	catFR1	0	R1395M
203.417	1.552	429233	REC_WORD	1.552	n/a	STRAWBERRY	Fruit	1	1	[0, 0, 0]	n/a	catFR1	0	R1395M
204.969	2.165	430785	REC_WORD	2.165	n/a	PEACH	Fruit	2	1	[0, 0, 0]	n/a	catFR1	0	R1395M
207.134	0.814	432950	REC_WORD	0.814	n/a	LEMON	Fruit	9	1	[0, 0, 0]	n/a	catFR1	0	R1395M
207.948	2.133	433764	REC_WORD	2.133	n/a	LIME	Fruit	10	1	[0, 0, 0]	n/a	catFR1	0	R1395M
210.081	1.091	435897	REC_WORD	1.091	n/a	CAULIFLOWER	Vegetables	5	1	[0, 0, 0]	n/a	catFR1	0	R1395M
211.172	2.242	436988	REC_WORD	2.242	n/a	PEAS	Vegetables	6	1	[0, 0, 0]	n/a	catFR1	0	R1395M
213.414	1.035	439230	REC_WORD	1.035	n/a	AXE	Tools	3	1	[0, 0, 0]	n/a	catFR1	0	R1395M
214.449	16.756	440265	REC_WORD	16.756	n/a	WRENCH	Tools	4	1	[0, 0, 0]	n/a	catFR1	0	R1395M
231.205	1.573	457020	REC_WORD	1.573	n/a	SAW	Tools	7	1	[0, 0, 0]	n/a	catFR1	0	R1395M
232.778	8.052	458593	REC_END	n/a	n/a	n/a	n/a	-999	1	[0, 0, 0]	n/a	catFR1	0	R1395M
240.83	10.352	466651	COUNTDOWN_START	n/a	n/a	n/a	n/a	-999	1	[0, 0, 0]	n/a	catFR1	0	R1395M
251.182	0.0	476992	COUNTDOWN_END	n/a	n/a	n/a	n/a	-999	1	[0, 0, 0]	n/a	catFR1	0	R1395M
251.182	2.199	477002	ENCODING_START	n/a	n/a	n/a	n/a	-999	2	[0, 0, 0]	n/a	catFR1	0	R1395M
253.381	1.6	479191	WORD	n/a	wordpools/wordpool_categorized_EN.txt	SLINKY	Toys	1	2	[0, 0, 0]	n/a	catFR1	0	R1395M
254.981	0.95	480792	WORD_OFF	n/a	n/a	SLINKY	Toys	1	2	[0, 0, 0]	n/a	catFR1	0	R1395M
255.931	1.616	481746	WORD	n/a	wordpools/wordpool_categorized_EN.txt	BARBIE	Toys	2	2	[0, 0, 0]	n/a	catFR1	0	R1395M
257.547	0.951	483365	WORD_OFF	n/a	n/a	BARBIE	Toys	2	2	[0, 0, 0]	n/a	catFR1	0	R1395M
258.498	1.6	484310	WORD	n/a	wordpools/wordpool_categorized_EN.txt	ROBIN	Birds	3	2	[0, 0, 0]	n/a	catFR1	0	R1395M
260.098	0.866	485911	WORD_OFF	n/a	n/a	ROBIN	Birds	3	2	[0, 0, 0]	n/a	catFR1	0	R1395M
260.964	1.6	486781	WORD	n/a	wordpools/wordpool_categorized_EN.txt	BLUEBIRD	Birds	4	2	[0, 0, 0]	n/a	catFR1	0	R1395M
262.564	0.95	488381	WORD_OFF	n/a	n/a	BLUEBIRD	Birds	4	2	[0, 0, 0]	n/a	catFR1	0	R1395M
263.514	1.6	489327	WORD	n/a	wordpools/wordpool_categorized_EN.txt	WINDOW	Building	5	2	[0, 0, 0]	n/a	catFR1	0	R1395M
265.114	0.767	490927	WORD_OFF	n/a	n/a	WINDOW	Building	5	2	[0, 0, 0]	n/a	catFR1	0	R1395M
265.881	1.616	491694	WORD	n/a	wordpools/wordpool_categorized_EN.txt	FOUNDATION	Building	6	2	[0, 0, 0]	n/a	catFR1	0	R1395M
267.497	0.834	493313	WORD_OFF	n/a	n/a	FOUNDATION	Building	6	2	[0, 0, 0]	n/a	catFR1	0	R1395M
268.331	1.616	494146	WORD	n/a	wordpools/wordpool_categorized_EN.txt	CARDINAL	Birds	7	2	[0, 0, 0]	n/a	catFR1	0	R1395M
269.947	0.834	495765	WORD_OFF	n/a	n/a	CARDINAL	Birds	7	2	[0, 0, 0]	n/a	catFR1	0	R1395M
270.781	1.616	496598	WORD	n/a	wordpools/wordpool_categorized_EN.txt	FINCH	Birds	8	2	[0, 0, 0]	n/a	catFR1	0	R1395M
272.397	0.767	498208	WORD_OFF	n/a	n/a	FINCH	Birds	8	2	[0, 0, 0]	n/a	catFR1	0	R1395M
273.164	1.6	498975	WORD	n/a	wordpools/wordpool_categorized_EN.txt	PUZZLE	Toys	9	2	[0, 0, 0]	n/a	catFR1	0	R1395M
274.764	0.916	500576	WORD_OFF	n/a	n/a	PUZZLE	Toys	9	2	[0, 0, 0]	n/a	catFR1	0	R1395M
275.68	1.6	501493	WORD	n/a	wordpools/wordpool_categorized_EN.txt	FOOTBALL	Toys	10	2	[0, 0, 0]	n/a	catFR1	0	R1395M
277.28	0.85	503093	WORD_OFF	n/a	n/a	FOOTBALL	Toys	10	2	[0, 0, 0]	n/a	catFR1	0	R1395M
278.13	1.6	503945	WORD	n/a	wordpools/wordpool_categorized_EN.txt	WALL	Building	11	2	[0, 0, 0]	n/a	catFR1	0	R1395M
279.73	0.967	505545	WORD_OFF	n/a	n/a	WALL	Building	11	2	[0, 0, 0]	n/a	catFR1	0	R1395M
280.697	1.6	506509	WORD	n/a	wordpools/wordpool_categorized_EN.txt	HALLWAY	Building	12	2	[0, 0, 0]	n/a	catFR1	0	R1395M
282.297	0.002	508109	WORD_OFF	n/a	n/a	HALLWAY	Building	12	2	[0, 0, 0]	n/a	catFR1	0	R1395M
282.299	0.0	508109	ENCODING_END	n/a	n/a	n/a	n/a	-999	2	[0, 0, 0]	n/a	catFR1	0	R1395M
282.297	0.002	508109	PROB	0.002	n/a	n/a	n/a	-999	2	[3, 1, 2]	6	catFR1	0	R1395M
282.299	0.0	508111	START	n/a	n/a	n/a	n/a	-999	2	[-999, -999, -999]	n/a	catFR1	0	R1395M
282.299	2.981	508118	DISTRACT_START	n/a	n/a	n/a	n/a	-999	2	[0, 0, 0]	n/a	catFR1	0	R1395M
285.28	2.401	511092	PROB	2.401	n/a	n/a	n/a	-999	2	[4, 4, 1]	9	catFR1	0	R1395M
287.681	2.683	513493	PROB	2.683	n/a	n/a	n/a	-999	2	[8, 1, 6]	14	catFR1	0	R1395M
290.364	3.766	516176	PROB	3.766	n/a	n/a	n/a	-999	2	[2, 2, 3]	7	catFR1	0	R1395M
294.13	2.151	519942	PROB	2.151	n/a	n/a	n/a	-999	2	[5, 2, 1]	8	catFR1	0	R1395M
296.281	2.551	522092	PROB	2.551	n/a	n/a	n/a	-999	2	[1, 3, 7]	11	catFR1	0	R1395M
298.832	3.034	524643	PROB	3.034	n/a	n/a	n/a	-999	2	[7, 6, 3]	16	catFR1	0	R1395M
301.866	2.666	527677	PROB	2.666	n/a	n/a	n/a	-999	2	[8, 6, 1]	15	catFR1	0	R1395M
304.532	0.0	530343	STOP	n/a	n/a	n/a	n/a	-999	2	[-999, -999, -999]	n/a	catFR1	0	R1395M
304.532	1.266	530345	DISTRACT_END	n/a	n/a	n/a	n/a	-999	2	[0, 0, 0]	n/a	catFR1	0	R1395M
305.798	2.533	531608	REC_START	n/a	n/a	n/a	n/a	-999	2	[0, 0, 0]	n/a	catFR1	0	R1395M
308.331	1.626	534142	REC_WORD	1.626	n/a	PUZZLE	Toys	9	2	[0, 0, 0]	n/a	catFR1	0	R1395M
309.957	3.338	535768	REC_WORD	3.338	n/a	FOOTBALL	Toys	10	2	[0, 0, 0]	n/a	catFR1	0	R1395M
313.295	1.34	539106	REC_WORD	1.34	n/a	WINDOW	Building	5	2	[0, 0, 0]	n/a	catFR1	0	R1395M
314.635	3.09	540445	REC_WORD	3.09	n/a	FOUNDATION	Building	6	2	[0, 0, 0]	n/a	catFR1	0	R1395M
317.725	1.505	543535	REC_WORD	1.505	n/a	BLUEBIRD	Birds	4	2	[0, 0, 0]	n/a	catFR1	0	R1395M
319.23	2.763	545040	REC_WORD	2.763	n/a	FINCH	Birds	8	2	[0, 0, 0]	n/a	catFR1	0	R1395M
321.993	12.317	547803	REC_WORD	12.317	n/a	ROBIN	Birds	3	2	[0, 0, 0]	n/a	catFR1	0	R1395M
334.31	2.724	560119	REC_WORD	2.724	n/a	SLINKY	Toys	1	2	[0, 0, 0]	n/a	catFR1	0	R1395M
337.034	4.747	562847	REC_END	n/a	n/a	n/a	n/a	-999	2	[0, 0, 0]	n/a	catFR1	0	R1395M
341.781	10.351	567592	COUNTDOWN_START	n/a	n/a	n/a	n/a	-999	2	[0, 0, 0]	n/a	catFR1	0	R1395M
352.132	0.0	577942	COUNTDOWN_END	n/a	n/a	n/a	n/a	-999	2	[0, 0, 0]	n/a	catFR1	0	R1395M
352.132	2.349	577942	ENCODING_START	n/a	n/a	n/a	n/a	-999	3	[0, 0, 0]	n/a	catFR1	0	R1395M
354.481	1.616	580291	WORD	n/a	wordpools/wordpool_categorized_EN.txt	RAIN	Weather	1	3	[0, 0, 0]	n/a	catFR1	0	R1395M
356.097	0.801	581910	WORD_OFF	n/a	n/a	RAIN	Weather	1	3	[0, 0, 0]	n/a	catFR1	0	R1395M
356.898	1.6	582706	WORD	n/a	wordpools/wordpool_categorized_EN.txt	SNOW	Weather	2	3	[0, 0, 0]	n/a	catFR1	0	R1395M
358.498	0.766	584306	WORD_OFF	n/a	n/a	SNOW	Weather	2	3	[0, 0, 0]	n/a	catFR1	0	R1395M
359.264	1.616	585073	WORD	n/a	wordpools/wordpool_categorized_EN.txt	SILK	Fabric	3	3	[0, 0, 0]	n/a	catFR1	0	R1395M
360.88	0.934	586692	WORD_OFF	n/a	n/a	SILK	Fabric	3	3	[0, 0, 0]	n/a	catFR1	0	R1395M
361.814	1.617	587619	WORD	n/a	wordpools/wordpool_categorized_EN.txt	SATIN	Fabric	4	3	[0, 0, 0]	n/a	catFR1	0	R1395M
363.431	0.866	589238	WORD_OFF	n/a	n/a	SATIN	Fabric	4	3	[0, 0, 0]	n/a	catFR1	0	R1395M
364.297	1.6	590108	WORD	n/a	wordpools/wordpool_categorized_EN.txt	MILK	Beverages	5	3	[0, 0, 0]	n/a	catFR1	0	R1395M
365.897	0.817	591708	WORD_OFF	n/a	n/a	MILK	Beverages	5	3	[0, 0, 0]	n/a	catFR1	0	R1395M
366.714	1.617	592523	WORD	n/a	wordpools/wordpool_categorized_EN.txt	SODA	Beverages	6	3	[0, 0, 0]	n/a	catFR1	0	R1395M
368.331	0.816	594142	WORD_OFF	n/a	n/a	SODA	Beverages	6	3	[0, 0, 0]	n/a	catFR1	0	R1395M
369.147	1.6	594956	WORD	n/a	wordpools/wordpool_categorized_EN.txt	LEATHER	Fabric	7	3	[0, 0, 0]	n/a	catFR1	0	R1395M
370.747	0.834	596556	WORD_OFF	n/a	n/a	LEATHER	Fabric	7	3	[0, 0, 0]	n/a	catFR1	0	R1395M
371.581	1.6	597389	WORD	n/a	wordpools/wordpool_categorized_EN.txt	NYLON	Fabric	8	3	[0, 0, 0]	n/a	catFR1	0	R1395M
373.181	0.766	598989	WORD_OFF	n/a	n/a	NYLON	Fabric	8	3	[0, 0, 0]	n/a	catFR1	0	R1395M
373.947	1.617	599757	WORD	n/a	wordpools/wordpool_categorized_EN.txt	TORNADO	Weather	9	3	[0, 0, 0]	n/a	catFR1	0	R1395M
375.564	0.983	601376	WORD_OFF	n/a	n/a	TORNADO	Weather	9	3	[0, 0, 0]	n/a	catFR1	0	R1395M
376.547	1.617	602358	WORD	n/a	wordpools/wordpool_categorized_EN.txt	CLOUD	Weather	10	3	[0, 0, 0]	n/a	catFR1	0	R1395M
378.164	0.833	603968	WORD_OFF	n/a	n/a	CLOUD	Weather	10	3	[0, 0, 0]	n/a	catFR1	0	R1395M
378.997	1.617	604801	WORD	n/a	wordpools/wordpool_categorized_EN.txt	BEER	Beverages	11	3	[0, 0, 0]	n/a	catFR1	0	R1395M
380.614	0.85	606420	WORD_OFF	n/a	n/a	BEER	Beverages	11	3	[0, 0, 0]	n/a	catFR1	0	R1395M
381.464	1.617	607272	WORD	n/a	wordpools/wordpool_categorized_EN.txt	CIDER	Beverages	12	3	[0, 0, 0]	n/a	catFR1	0	R1395M
383.081	0.001	608888	PROB	0.001	n/a	n/a	n/a	-999	3	[6, 4, 2]	12	catFR1	0	R1395M
383.082	0.0	608889	START	n/a	n/a	n/a	n/a	-999	3	[-999, -999, -999]	n/a	catFR1	0	R1395M
383.08	0.002	608891	WORD_OFF	n/a	n/a	CIDER	Beverages	12	3	[0, 0, 0]	n/a	catFR1	0	R1395M
383.082	0.0	608891	ENCODING_END	n/a	n/a	n/a	n/a	-999	3	[0, 0, 0]	n/a	catFR1	0	R1395M
383.082	3.232	608891	DISTRACT_START	n/a	n/a	n/a	n/a	-999	3	[0, 0, 0]	n/a	catFR1	0	R1395M
386.314	2.434	612121	PROB	2.434	n/a	n/a	n/a	-999	3	[3, 5, 8]	16	catFR1	0	R1395M
388.748	2.183	614554	PROB	2.183	n/a	n/a	n/a	-999	3	[5, 3, 2]	10	catFR1	0	R1395M
390.931	2.483	616737	PROB	2.483	n/a	n/a	n/a	-999	3	[5, 7, 4]	16	catFR1	0	R1395M
393.414	2.567	619220	PROB	2.567	n/a	n/a	n/a	-999	3	[6, 2, 8]	16	catFR1	0	R1395M
395.981	2.2	621787	PROB	2.2	n/a	n/a	n/a	-999	3	[4, 3, 3]	10	catFR1	0	R1395M
398.181	2.834	623987	PROB	2.834	n/a	n/a	n/a	-999	3	[1, 3, 5]	9	catFR1	0	R1395M
401.015	2.15	626821	PROB	2.15	n/a	n/a	n/a	-999	3	[4, 4, 1]	9	catFR1	0	R1395M
403.165	0.0	628971	STOP	n/a	n/a	n/a	n/a	-999	3	[-999, -999, -999]	n/a	catFR1	0	R1395M
403.165	1.4	628974	DISTRACT_END	n/a	n/a	n/a	n/a	-999	3	[0, 0, 0]	n/a	catFR1	0	R1395M
404.565	2.065	630368	REC_START	n/a	n/a	n/a	n/a	-999	3	[0, 0, 0]	n/a	catFR1	0	R1395M
406.63	1.313	632436	REC_WORD	1.313	n/a	RAIN	Weather	1	3	[0, 0, 0]	n/a	catFR1	0	R1395M
407.943	2.558	633748	REC_WORD	2.558	n/a	SNOW	Weather	2	3	[0, 0, 0]	n/a	catFR1	0	R1395M
410.501	13.446	636306	REC_WORD	13.446	n/a	TORNADO	Weather	9	3	[0, 0, 0]	n/a	catFR1	0	R1395M
423.947	1.544	649752	REC_WORD	1.544	n/a	SILK	Fabric	3	3	[0, 0, 0]	n/a	catFR1	0	R1395M
425.491	10.295	651296	REC_WORD	10.295	n/a	SATIN	Fabric	4	3	[0, 0, 0]	n/a	catFR1	0	R1395M
435.786	4.211	661588	REC_END	n/a	n/a	n/a	n/a	-999	3	[0, 0, 0]	n/a	catFR1	0	R1395M
439.997	10.35	665800	COUNTDOWN_START	n/a	n/a	n/a	n/a	-999	3	[0, 0, 0]	n/a	catFR1	0	R1395M
450.347	0.0	676150	COUNTDOWN_END	n/a	n/a	n/a	n/a	-999	3	[0, 0, 0]	n/a	catFR1	0	R1395M
450.347	2.267	676150	ENCODING_START	n/a	n/a	n/a	n/a	-999	4	[0, 0, 0]	n/a	catFR1	0	R1395M
452.614	1.6	678415	WORD	n/a	wordpools/wordpool_categorized_EN.txt	REFRIGERATOR	Appliances	1	4	[0, 0, 0]	n/a	catFR1	0	R1395M
454.214	0.85	680015	WORD_OFF	n/a	n/a	REFRIGERATOR	Appliances	1	4	[0, 0, 0]	n/a	catFR1	0	R1395M
455.064	1.617	680867	WORD	n/a	wordpools/wordpool_categorized_EN.txt	OVEN	Appliances	2	4	[0, 0, 0]	n/a	catFR1	0	R1395M
456.681	0.833	682486	WORD_OFF	n/a	n/a	OVEN	Appliances	2	4	[0, 0, 0]	n/a	catFR1	0	R1395M
457.514	1.617	683328	WORD	n/a	wordpools/wordpool_categorized_EN.txt	GOOSE	Birds	3	4	[0, 0, 0]	n/a	catFR1	0	R1395M
459.131	0.95	684938	WORD_OFF	n/a	n/a	GOOSE	Birds	3	4	[0, 0, 0]	n/a	catFR1	0	R1395M
460.081	1.6	685883	WORD	n/a	wordpools/wordpool_categorized_EN.txt	DUCK	Birds	4	4	[0, 0, 0]	n/a	catFR1	0	R1395M
461.681	0.883	687483	WORD_OFF	n/a	n/a	DUCK	Birds	4	4	[0, 0, 0]	n/a	catFR1	0	R1395M
462.564	1.6	688371	WORD	n/a	wordpools/wordpool_categorized_EN.txt	BINDER	OfficeSupplies	5	4	[0, 0, 0]	n/a	catFR1	0	R1395M
464.164	0.834	689963	WORD_OFF	n/a	n/a	BINDER	OfficeSupplies	5	4	[0, 0, 0]	n/a	catFR1	0	R1395M
464.998	1.616	690798	WORD	n/a	wordpools/wordpool_categorized_EN.txt	PAPER	OfficeSupplies	6	4	[0, 0, 0]	n/a	catFR1	0	R1395M
466.614	0.95	692415	WORD_OFF	n/a	n/a	PAPER	OfficeSupplies	6	4	[0, 0, 0]	n/a	catFR1	0	R1395M
467.564	1.617	693370	WORD	n/a	wordpools/wordpool_categorized_EN.txt	PIGEON	Birds	7	4	[0, 0, 0]	n/a	catFR1	0	R1395M
469.181	0.783	694979	WORD_OFF	n/a	n/a	PIGEON	Birds	7	4	[0, 0, 0]	n/a	catFR1	0	R1395M
469.964	1.617	695765	WORD	n/a	wordpools/wordpool_categorized_EN.txt	CROW	Birds	8	4	[0, 0, 0]	n/a	catFR1	0	R1395M
471.581	0.916	697384	WORD_OFF	n/a	n/a	CROW	Birds	8	4	[0, 0, 0]	n/a	catFR1	0	R1395M
472.497	1.617	698302	WORD	n/a	wordpools/wordpool_categorized_EN.txt	NOTEBOOK	OfficeSupplies	9	4	[0, 0, 0]	n/a	catFR1	0	R1395M
474.114	0.883	699921	WORD_OFF	n/a	n/a	NOTEBOOK	OfficeSupplies	9	4	[0, 0, 0]	n/a	catFR1	0	R1395M
474.997	1.6	700800	WORD	n/a	wordpools/wordpool_categorized_EN.txt	PEN	OfficeSupplies	10	4	[0, 0, 0]	n/a	catFR1	0	R1395M
476.597	0.85	702401	WORD_OFF	n/a	n/a	PEN	OfficeSupplies	10	4	[0, 0, 0]	n/a	catFR1	0	R1395M
477.447	1.617	703252	WORD	n/a	wordpools/wordpool_categorized_EN.txt	WASHER	Appliances	11	4	[0, 0, 0]	n/a	catFR1	0	R1395M
479.064	0.917	704862	WORD_OFF	n/a	n/a	WASHER	Appliances	11	4	[0, 0, 0]	n/a	catFR1	0	R1395M
479.981	1.616	705779	WORD	n/a	wordpools/wordpool_categorized_EN.txt	DISHWASHER	Appliances	12	4	[0, 0, 0]	n/a	catFR1	0	R1395M
481.597	0.002	707398	WORD_OFF	n/a	n/a	DISHWASHER	Appliances	12	4	[0, 0, 0]	n/a	catFR1	0	R1395M
481.599	0.0	707398	ENCODING_END	n/a	n/a	n/a	n/a	-999	4	[0, 0, 0]	n/a	catFR1	0	R1395M
481.598	0.001	707400	PROB	0.001	n/a	n/a	n/a	-999	4	[3, 6, 2]	11	catFR1	0	R1395M
481.599	0.0	707401	START	n/a	n/a	n/a	n/a	-999	4	[-999, -999, -999]	n/a	catFR1	0	R1395M
481.599	3.432	707407	DISTRACT_START	n/a	n/a	n/a	n/a	-999	4	[0, 0, 0]	n/a	catFR1	0	R1395M
485.031	3.75	710832	PROB	3.75	n/a	n/a	n/a	-999	4	[5, 8, 4]	17	catFR1	0	R1395M
488.781	2.183	714582	PROB	2.183	n/a	n/a	n/a	-999	4	[3, 3, 5]	11	catFR1	0	R1395M
490.964	2.917	716765	PROB	2.917	n/a	n/a	n/a	-999	4	[5, 3, 5]	13	catFR1	0	R1395M
493.881	3.033	719682	PROB	3.033	n/a	n/a	n/a	-999	4	[6, 7, 8]	21	catFR1	0	R1395M
496.914	2.266	722715	PROB	2.266	n/a	n/a	n/a	-999	4	[7, 1, 8]	16	catFR1	0	R1395M
499.18	3.551	724981	PROB	3.551	n/a	n/a	n/a	-999	4	[7, 6, 1]	14	catFR1	0	R1395M
502.731	0.0	728529	DISTRACT_END	n/a	n/a	n/a	n/a	-999	4	[0, 0, 0]	n/a	catFR1	0	R1395M
502.731	1.167	728531	STOP	n/a	n/a	n/a	n/a	-999	4	[-999, -999, -999]	n/a	catFR1	0	R1395M
503.898	1.636	729709	REC_START	n/a	n/a	n/a	n/a	-999	4	[0, 0, 0]	n/a	catFR1	0	R1395M
505.534	0.698	731334	REC_WORD	0.698	n/a	PIGEON	Birds	7	4	[0, 0, 0]	n/a	catFR1	0	R1395M
506.232	2.121	732032	REC_WORD	2.121	n/a	CROW	Birds	8	4	[0, 0, 0]	n/a	catFR1	0	R1395M
508.353	1.538	734153	REC_WORD	1.538	n/a	DUCK	Birds	4	4	[0, 0, 0]	n/a	catFR1	0	R1395M
509.891	1.519	735691	REC_WORD	1.519	n/a	GOOSE	Birds	3	4	[0, 0, 0]	n/a	catFR1	0	R1395M
511.41	1.579	737210	REC_WORD	1.579	n/a	WASHER	Appliances	11	4	[0, 0, 0]	n/a	catFR1	0	R1395M
512.989	2.096	738789	REC_WORD	2.096	n/a	DISHWASHER	Appliances	12	4	[0, 0, 0]	n/a	catFR1	0	R1395M
515.085	2.185	740885	REC_WORD	2.185	n/a	REFRIGERATOR	Appliances	1	4	[0, 0, 0]	n/a	catFR1	0	R1395M
517.27	17.836	743070	REC_WORD	17.836	n/a	OVEN	Appliances	2	4	[0, 0, 0]	n/a	catFR1	0	R1395M
535.106	3.692	760900	REC_END	n/a	n/a	n/a	n/a	-999	4	[0, 0, 0]	n/a	catFR1	0	R1395M
538.798	10.35	764597	COUNTDOWN_START	n/a	n/a	n/a	n/a	-999	4	[0, 0, 0]	n/a	catFR1	0	R1395M
549.148	0.0	774948	COUNTDOWN_END	n/a	n/a	n/a	n/a	-999	4	[0, 0, 0]	n/a	catFR1	0	R1395M
549.148	1.816	774948	ENCODING_START	n/a	n/a	n/a	n/a	-999	5	[0, 0, 0]	n/a	catFR1	0	R1395M
550.964	1.617	776763	WORD	n/a	wordpools/wordpool_categorized_EN.txt	STRAINER	KitchenTools	1	5	[0, 0, 0]	n/a	catFR1	0	R1395M
552.581	0.916	778382	WORD_OFF	n/a	n/a	STRAINER	KitchenTools	1	5	[0, 0, 0]	n/a	catFR1	0	R1395M
553.497	1.601	779299	WORD	n/a	wordpools/wordpool_categorized_EN.txt	KNIFE	KitchenTools	2	5	[0, 0, 0]	n/a	catFR1	0	R1395M
555.098	0.799	780900	WORD_OFF	n/a	n/a	KNIFE	KitchenTools	2	5	[0, 0, 0]	n/a	catFR1	0	R1395M
555.897	1.601	781695	WORD	n/a	wordpools/wordpool_categorized_EN.txt	PIE	Desserts	3	5	[0, 0, 0]	n/a	catFR1	0	R1395M
557.498	0.816	783295	WORD_OFF	n/a	n/a	PIE	Desserts	3	5	[0, 0, 0]	n/a	catFR1	0	R1395M
558.314	1.6	784110	WORD	n/a	wordpools/wordpool_categorized_EN.txt	MOUSSE	Desserts	4	5	[0, 0, 0]	n/a	catFR1	0	R1395M
559.914	1.0	785710	WORD_OFF	n/a	n/a	MOUSSE	Desserts	4	5	[0, 0, 0]	n/a	catFR1	0	R1395M
560.914	1.617	786711	WORD	n/a	wordpools/wordpool_categorized_EN.txt	TABLE	Furniture	5	5	[0, 0, 0]	n/a	catFR1	0	R1395M
562.531	0.767	788330	WORD_OFF	n/a	n/a	TABLE	Furniture	5	5	[0, 0, 0]	n/a	catFR1	0	R1395M
563.298	1.616	789098	WORD	n/a	wordpools/wordpool_categorized_EN.txt	BOOKCASE	Furniture	6	5	[0, 0, 0]	n/a	catFR1	0	R1395M
564.914	0.8	790707	WORD_OFF	n/a	n/a	BOOKCASE	Furniture	6	5	[0, 0, 0]	n/a	catFR1	0	R1395M
565.714	1.617	791512	WORD	n/a	wordpools/wordpool_categorized_EN.txt	CORKSCREW	KitchenTools	7	5	[0, 0, 0]	n/a	catFR1	0	R1395M
567.331	0.917	793131	WORD_OFF	n/a	n/a	CORKSCREW	KitchenTools	7	5	[0, 0, 0]	n/a	catFR1	0	R1395M
568.248	1.615	794048	WORD	n/a	wordpools/wordpool_categorized_EN.txt	GRATER	KitchenTools	8	5	[0, 0, 0]	n/a	catFR1	0	R1395M
569.863	0.885	795658	WORD_OFF	n/a	n/a	GRATER	KitchenTools	8	5	[0, 0, 0]	n/a	catFR1	0	R1395M
570.748	1.616	796547	WORD	n/a	wordpools/wordpool_categorized_EN.txt	CABINET	Furniture	9	5	[0, 0, 0]	n/a	catFR1	0	R1395M
572.364	0.917	798157	WORD_OFF	n/a	n/a	CABINET	Furniture	9	5	[0, 0, 0]	n/a	catFR1	0	R1395M
573.281	1.616	799074	WORD	n/a	wordpools/wordpool_categorized_EN.txt	RECLINER	Furniture	10	5	[0, 0, 0]	n/a	catFR1	0	R1395M
574.897	0.834	800693	WORD_OFF	n/a	n/a	RECLINER	Furniture	10	5	[0, 0, 0]	n/a	catFR1	0	R1395M
575.731	1.616	801526	WORD	n/a	wordpools/wordpool_categorized_EN.txt	PUDDING	Desserts	11	5	[0, 0, 0]	n/a	catFR1	0	R1395M
577.347	1.0	803145	WORD_OFF	n/a	n/a	PUDDING	Desserts	11	5	[0, 0, 0]	n/a	catFR1	0	R1395M
578.347	1.601	804146	WORD	n/a	wordpools/wordpool_categorized_EN.txt	JELLO	Desserts	12	5	[0, 0, 0]	n/a	catFR1	0	R1395M
579.948	0.001	805744	PROB	0.001	n/a	n/a	n/a	-999	5	[5, 7, 5]	17	catFR1	0	R1395M
579.949	0.0	805745	START	n/a	n/a	n/a	n/a	-999	5	[-999, -999, -999]	n/a	catFR1	0	R1395M
579.947	0.002	805746	WORD_OFF	n/a	n/a	JELLO	Desserts	12	5	[0, 0, 0]	n/a	catFR1	0	R1395M
579.949	0.0	805746	ENCODING_END	n/a	n/a	n/a	n/a	-999	5	[0, 0, 0]	n/a	catFR1	0	R1395M
579.949	3.732	805746	DISTRACT_START	n/a	n/a	n/a	n/a	-999	5	[0, 0, 0]	n/a	catFR1	0	R1395M
583.681	3.133	809477	PROB	3.133	n/a	n/a	n/a	-999	5	[6, 8, 6]	20	catFR1	0	R1395M
586.814	2.501	812610	PROB	2.501	n/a	n/a	n/a	-999	5	[1, 3, 1]	5	catFR1	0	R1395M
589.315	2.266	815111	PROB	2.266	n/a	n/a	n/a	-999	5	[4, 1, 1]	6	catFR1	0	R1395M
591.581	2.184	817377	PROB	2.184	n/a	n/a	n/a	-999	5	[6, 4, 2]	12	catFR1	0	R1395M
593.765	2.566	819561	PROB	2.566	n/a	n/a	n/a	-999	5	[7, 5, 8]	20	catFR1	0	R1395M
596.331	2.399	822126	PROB	2.399	n/a	n/a	n/a	-999	5	[6, 6, 6]	18	catFR1	0	R1395M
598.73	2.2	824525	PROB	2.2	n/a	n/a	n/a	-999	5	[3, 5, 2]	10	catFR1	0	R1395M
600.93	0.0	826725	STOP	n/a	n/a	n/a	n/a	-999	5	[-999, -999, -999]	n/a	catFR1	0	R1395M
600.93	1.1	826728	DISTRACT_END	n/a	n/a	n/a	n/a	-999	5	[0, 0, 0]	n/a	catFR1	0	R1395M
602.03	2.559	827823	REC_START	n/a	n/a	n/a	n/a	-999	5	[0, 0, 0]	n/a	catFR1	0	R1395M
604.589	1.993	830384	REC_WORD	1.993	n/a	CABINET	Furniture	9	5	[0, 0, 0]	n/a	catFR1	0	R1395M
606.582	1.97	832377	REC_WORD	1.97	n/a	TABLE	Furniture	5	5	[0, 0, 0]	n/a	catFR1	0	R1395M
608.552	3.769	834347	REC_WORD	3.769	n/a	RECLINER	Furniture	10	5	[0, 0, 0]	n/a	catFR1	0	R1395M
612.321	20.933	838116	REC_WORD_VV	20.933	n/a	<>	n/a	-999	5	[0, 0, 0]	n/a	catFR1	0	R1395M
633.254	2.509	859052	REC_END	n/a	n/a	n/a	n/a	-999	5	[0, 0, 0]	n/a	catFR1	0	R1395M
635.763	10.352	861560	COUNTDOWN_START	n/a	n/a	n/a	n/a	-999	5	[0, 0, 0]	n/a	catFR1	0	R1395M
646.115	0.0	871911	COUNTDOWN_END	n/a	n/a	n/a	n/a	-999	5	[0, 0, 0]	n/a	catFR1	0	R1395M
646.115	2.133	871911	ENCODING_START	n/a	n/a	n/a	n/a	-999	6	[0, 0, 0]	n/a	catFR1	0	R1395M
648.248	1.6	874045	WORD	n/a	wordpools/wordpool_categorized_EN.txt	JACKET	Clothing	1	6	[0, 0, 0]	n/a	catFR1	0	R1395M
649.848	0.933	875645	WORD_OFF	n/a	n/a	JACKET	Clothing	1	6	[0, 0, 0]	n/a	catFR1	0	R1395M
650.781	1.6	876571	WORD	n/a	wordpools/wordpool_categorized_EN.txt	COAT	Clothing	2	6	[0, 0, 0]	n/a	catFR1	0	R1395M
652.381	0.867	878172	WORD_OFF	n/a	n/a	COAT	Clothing	2	6	[0, 0, 0]	n/a	catFR1	0	R1395M
653.248	1.6	879042	WORD	n/a	wordpools/wordpool_categorized_EN.txt	TRAIN	Vehicles	3	6	[0, 0, 0]	n/a	catFR1	0	R1395M
654.848	0.782	880642	WORD_OFF	n/a	n/a	TRAIN	Vehicles	3	6	[0, 0, 0]	n/a	catFR1	0	R1395M
655.63	1.601	881419	WORD	n/a	wordpools/wordpool_categorized_EN.txt	MOPED	Vehicles	4	6	[0, 0, 0]	n/a	catFR1	0	R1395M
657.231	0.917	883019	WORD_OFF	n/a	n/a	MOPED	Vehicles	4	6	[0, 0, 0]	n/a	catFR1	0	R1395M
658.148	1.616	883936	WORD	n/a	wordpools/wordpool_categorized_EN.txt	OAK	Trees	5	6	[0, 0, 0]	n/a	catFR1	0	R1395M
659.764	0.8	885556	WORD_OFF	n/a	n/a	OAK	Trees	5	6	[0, 0, 0]	n/a	catFR1	0	R1395M
660.564	1.6	886360	WORD	n/a	wordpools/wordpool_categorized_EN.txt	SPRUCE	Trees	6	6	[0, 0, 0]	n/a	catFR1	0	R1395M
662.164	0.9	887961	WORD_OFF	n/a	n/a	SPRUCE	Trees	6	6	[0, 0, 0]	n/a	catFR1	0	R1395M
663.064	1.6	888859	WORD	n/a	wordpools/wordpool_categorized_EN.txt	CAR	Vehicles	7	6	[0, 0, 0]	n/a	catFR1	0	R1395M
664.664	1.0	890459	WORD_OFF	n/a	n/a	CAR	Vehicles	7	6	[0, 0, 0]	n/a	catFR1	0	R1395M
665.664	1.617	891461	WORD	n/a	wordpools/wordpool_categorized_EN.txt	BUS	Vehicles	8	6	[0, 0, 0]	n/a	catFR1	0	R1395M
667.281	0.833	893070	WORD_OFF	n/a	n/a	BUS	Vehicles	8	6	[0, 0, 0]	n/a	catFR1	0	R1395M
668.114	1.6	893903	WORD	n/a	wordpools/wordpool_categorized_EN.txt	EVERGREEN	Trees	9	6	[0, 0, 0]	n/a	catFR1	0	R1395M
669.714	0.967	895504	WORD_OFF	n/a	n/a	EVERGREEN	Trees	9	6	[0, 0, 0]	n/a	catFR1	0	R1395M
670.681	1.6	896468	WORD	n/a	wordpools/wordpool_categorized_EN.txt	ELM	Trees	10	6	[0, 0, 0]	n/a	catFR1	0	R1395M
672.281	0.766	898077	WORD_OFF	n/a	n/a	ELM	Trees	10	6	[0, 0, 0]	n/a	catFR1	0	R1395M
673.047	1.6	898835	WORD	n/a	wordpools/wordpool_categorized_EN.txt	SHOES	Clothing	11	6	[0, 0, 0]	n/a	catFR1	0	R1395M
674.647	0.917	900436	WORD_OFF	n/a	n/a	SHOES	Clothing	11	6	[0, 0, 0]	n/a	catFR1	0	R1395M
675.564	1.617	901353	WORD	n/a	wordpools/wordpool_categorized_EN.txt	SKIRT	Clothing	12	6	[0, 0, 0]	n/a	catFR1	0	R1395M
677.181	0.001	902972	WORD_OFF	n/a	n/a	SKIRT	Clothing	12	6	[0, 0, 0]	n/a	catFR1	0	R1395M
677.182	0.0	902972	ENCODING_END	n/a	n/a	n/a	n/a	-999	6	[0, 0, 0]	n/a	catFR1	0	R1395M
677.181	0.002	902972	PROB	0.002	n/a	n/a	n/a	-999	6	[5, 2, 1]	8	catFR1	0	R1395M
677.183	0.0	902974	START	n/a	n/a	n/a	n/a	-999	6	[-999, -999, -999]	n/a	catFR1	0	R1395M
677.183	3.031	902981	DISTRACT_START	n/a	n/a	n/a	n/a	-999	6	[0, 0, 0]	n/a	catFR1	0	R1395M
680.214	2.917	906005	PROB	2.917	n/a	n/a	n/a	-999	6	[8, 5, 5]	18	catFR1	0	R1395M
683.131	4.684	908922	PROB	4.684	n/a	n/a	n/a	-999	6	[7, 8, 7]	22	catFR1	0	R1395M
687.815	2.966	913605	PROB	2.966	n/a	n/a	n/a	-999	6	[8, 1, 8]	17	catFR1	0	R1395M
690.781	2.7	916571	PROB	2.7	n/a	n/a	n/a	-999	6	[5, 5, 3]	13	catFR1	0	R1395M
693.481	2.583	919271	PROB	2.583	n/a	n/a	n/a	-999	6	[5, 7, 1]	13	catFR1	0	R1395M
696.064	2.699	921854	PROB	2.699	n/a	n/a	n/a	-999	6	[8, 7, 5]	20	catFR1	0	R1395M
698.763	0.0	924552	DISTRACT_END	n/a	n/a	n/a	n/a	-999	6	[0, 0, 0]	n/a	catFR1	0	R1395M
698.763	1.151	924553	STOP	n/a	n/a	n/a	n/a	-999	6	[-999, -999, -999]	n/a	catFR1	0	R1395M
699.914	2.096	925703	REC_START	n/a	n/a	n/a	n/a	-999	6	[0, 0, 0]	n/a	catFR1	0	R1395M
702.01	1.256	927800	REC_WORD	1.256	n/a	CAR	Vehicles	7	6	[0, 0, 0]	n/a	catFR1	0	R1395M
703.266	1.319	929056	REC_WORD	1.319	n/a	JACKET	Clothing	1	6	[0, 0, 0]	n/a	catFR1	0	R1395M
704.585	1.743	930375	REC_WORD	1.743	n/a	COAT	Clothing	2	6	[0, 0, 0]	n/a	catFR1	0	R1395M
706.328	8.108	932118	REC_WORD	8.108	n/a	SHOES	Clothing	11	6	[0, 0, 0]	n/a	catFR1	0	R1395M
714.436	1.936	940225	REC_WORD	1.936	n/a	ELM	Trees	10	6	[0, 0, 0]	n/a	catFR1	0	R1395M
716.372	2.773	942161	REC_WORD	2.773	n/a	SPRUCE	Trees	6	6	[0, 0, 0]	n/a	catFR1	0	R1395M
719.145	2.927	944934	REC_WORD	2.927	n/a	OAK	Trees	5	6	[0, 0, 0]	n/a	catFR1	0	R1395M
722.072	9.066	947861	REC_WORD	9.066	n/a	EVERGREEN	Trees	9	6	[0, 0, 0]	n/a	catFR1	0	R1395M
731.138	8.042	956923	REC_END	n/a	n/a	n/a	n/a	-999	6	[0, 0, 0]	n/a	catFR1	0	R1395M
739.18	10.352	964972	COUNTDOWN_START	n/a	n/a	n/a	n/a	-999	6	[0, 0, 0]	n/a	catFR1	0	R1395M
749.532	0.0	975322	COUNTDOWN_END	n/a	n/a	n/a	n/a	-999	6	[0, 0, 0]	n/a	catFR1	0	R1395M
749.532	2.049	975322	ENCODING_START	n/a	n/a	n/a	n/a	-999	7	[0, 0, 0]	n/a	catFR1	0	R1395M
751.581	1.615	977372	WORD	n/a	wordpools/wordpool_categorized_EN.txt	VELVET	Fabric	1	7	[0, 0, 0]	n/a	catFR1	0	R1395M
753.196	0.918	978981	WORD_OFF	n/a	n/a	VELVET	Fabric	1	7	[0, 0, 0]	n/a	catFR1	0	R1395M
754.114	1.6	979898	WORD	n/a	wordpools/wordpool_categorized_EN.txt	SUEDE	Fabric	2	7	[0, 0, 0]	n/a	catFR1	0	R1395M
755.714	0.917	981499	WORD_OFF	n/a	n/a	SUEDE	Fabric	2	7	[0, 0, 0]	n/a	catFR1	0	R1395M
756.631	1.617	982416	WORD	n/a	wordpools/wordpool_categorized_EN.txt	HUMIDITY	Weather	3	7	[0, 0, 0]	n/a	catFR1	0	R1395M
758.248	0.783	984035	WORD_OFF	n/a	n/a	HUMIDITY	Weather	3	7	[0, 0, 0]	n/a	catFR1	0	R1395M
759.031	1.617	984821	WORD	n/a	wordpools/wordpool_categorized_EN.txt	THUNDER	Weather	4	7	[0, 0, 0]	n/a	catFR1	0	R1395M
760.648	0.916	986431	WORD_OFF	n/a	n/a	THUNDER	Weather	4	7	[0, 0, 0]	n/a	catFR1	0	R1395M
761.564	1.6	987348	WORD	n/a	wordpools/wordpool_categorized_EN.txt	HAWK	Birds	5	7	[0, 0, 0]	n/a	catFR1	0	R1395M
763.164	0.834	988948	WORD_OFF	n/a	n/a	HAWK	Birds	5	7	[0, 0, 0]	n/a	catFR1	0	R1395M
763.998	1.6	989781	WORD	n/a	wordpools/wordpool_categorized_EN.txt	SPARROW	Birds	6	7	[0, 0, 0]	n/a	catFR1	0	R1395M
765.598	0.9	991381	WORD_OFF	n/a	n/a	SPARROW	Birds	6	7	[0, 0, 0]	n/a	catFR1	0	R1395M
766.498	1.6	992289	WORD	n/a	wordpools/wordpool_categorized_EN.txt	SPANDEX	Fabric	7	7	[0, 0, 0]	n/a	catFR1	0	R1395M
768.098	0.95	993889	WORD_OFF	n/a	n/a	SPANDEX	Fabric	7	7	[0, 0, 0]	n/a	catFR1	0	R1395M
769.048	1.6	994835	WORD	n/a	wordpools/wordpool_categorized_EN.txt	DENIM	Fabric	8	7	[0, 0, 0]	n/a	catFR1	0	R1395M
770.648	0.883	996435	WORD_OFF	n/a	n/a	DENIM	Fabric	8	7	[0, 0, 0]	n/a	catFR1	0	R1395M
771.531	1.617	997315	WORD	n/a	wordpools/wordpool_categorized_EN.txt	WIND	Weather	9	7	[0, 0, 0]	n/a	catFR1	0	R1395M
773.148	0.883	998934	WORD_OFF	n/a	n/a	WIND	Weather	9	7	[0, 0, 0]	n/a	catFR1	0	R1395M
774.031	1.6	999813	WORD	n/a	wordpools/wordpool_categorized_EN.txt	FOG	Weather	10	7	[0, 0, 0]	n/a	catFR1	0	R1395M
775.631	0.933	1001414	WORD_OFF	n/a	n/a	FOG	Weather	10	7	[0, 0, 0]	n/a	catFR1	0	R1395M
776.564	1.6	1002349	WORD	n/a	wordpools/wordpool_categorized_EN.txt	DOVE	Birds	11	7	[0, 0, 0]	n/a	catFR1	0	R1395M
778.164	0.917	1003950	WORD_OFF	n/a	n/a	DOVE	Birds	11	7	[0, 0, 0]	n/a	catFR1	0	R1395M
779.081	1.6	1004867	WORD	n/a	wordpools/wordpool_categorized_EN.txt	SEAGULL	Birds	12	7	[0, 0, 0]	n/a	catFR1	0	R1395M
780.681	0.001	1006467	WORD_OFF	n/a	n/a	SEAGULL	Birds	12	7	[0, 0, 0]	n/a	catFR1	0	R1395M
780.682	0.0	1006467	ENCODING_END	n/a	n/a	n/a	n/a	-999	7	[0, 0, 0]	n/a	catFR1	0	R1395M
780.682	0.0	1006467	DISTRACT_START	n/a	n/a	n/a	n/a	-999	7	[0, 0, 0]	n/a	catFR1	0	R1395M
780.682	0.0	1006468	START	n/a	n/a	n/a	n/a	-999	7	[-999, -999, -999]	n/a	catFR1	0	R1395M
780.682	4.816	1006468	PROB	4.816	n/a	n/a	n/a	-999	7	[5, 3, 2]	10	catFR1	0	R1395M
785.498	2.666	1011283	PROB	2.666	n/a	n/a	n/a	-999	7	[3, 1, 5]	9	catFR1	0	R1395M
788.164	2.8	1013949	PROB	2.8	n/a	n/a	n/a	-999	7	[6, 5, 6]	17	catFR1	0	R1395M
790.964	2.634	1016749	PROB	2.634	n/a	n/a	n/a	-999	7	[5, 5, 2]	12	catFR1	0	R1395M
793.598	2.633	1019383	PROB	2.633	n/a	n/a	n/a	-999	7	[8, 2, 4]	14	catFR1	0	R1395M
796.231	2.3	1022016	PROB	2.3	n/a	n/a	n/a	-999	7	[7, 5, 5]	17	catFR1	0	R1395M
798.531	3.032	1024316	PROB	3.032	n/a	n/a	n/a	-999	7	[5, 2, 7]	14	catFR1	0	R1395M
801.563	0.0	1027346	DISTRACT_END	n/a	n/a	n/a	n/a	-999	7	[0, 0, 0]	n/a	catFR1	0	R1395M
801.563	1.317	1027347	STOP	n/a	n/a	n/a	n/a	-999	7	[-999, -999, -999]	n/a	catFR1	0	R1395M
802.88	2.749	1028665	REC_START	n/a	n/a	n/a	n/a	-999	7	[0, 0, 0]	n/a	catFR1	0	R1395M
805.629	2.614	1031413	REC_WORD	2.614	n/a	HUMIDITY	Weather	3	7	[0, 0, 0]	n/a	catFR1	0	R1395M
808.243	3.166	1034027	REC_WORD	3.166	n/a	THUNDER	Weather	4	7	[0, 0, 0]	n/a	catFR1	0	R1395M
811.409	6.633	1037193	REC_WORD	6.633	n/a	FOG	Weather	10	7	[0, 0, 0]	n/a	catFR1	0	R1395M
818.042	2.704	1043826	REC_WORD	2.704	n/a	SUEDE	Fabric	2	7	[0, 0, 0]	n/a	catFR1	0	R1395M
820.746	13.356	1046529	REC_WORD	13.356	n/a	VELVET	Fabric	1	7	[0, 0, 0]	n/a	catFR1	0	R1395M
834.102	10.029	1059885	REC_END	n/a	n/a	n/a	n/a	-999	7	[0, 0, 0]	n/a	catFR1	0	R1395M
844.131	10.351	1069918	COUNTDOWN_START	n/a	n/a	n/a	n/a	-999	7	[0, 0, 0]	n/a	catFR1	0	R1395M
854.482	0.0	1080268	COUNTDOWN_END	n/a	n/a	n/a	n/a	-999	7	[0, 0, 0]	n/a	catFR1	0	R1395M
854.482	1.816	1080268	ENCODING_START	n/a	n/a	n/a	n/a	-999	8	[0, 0, 0]	n/a	catFR1	0	R1395M
856.298	1.6	1082084	WORD	n/a	wordpools/wordpool_categorized_EN.txt	CEILING	Building	1	8	[0, 0, 0]	n/a	catFR1	0	R1395M
857.898	0.883	1083684	WORD_OFF	n/a	n/a	CEILING	Building	1	8	[0, 0, 0]	n/a	catFR1	0	R1395M
858.781	1.617	1084564	WORD	n/a	wordpools/wordpool_categorized_EN.txt	DOOR	Building	2	8	[0, 0, 0]	n/a	catFR1	0	R1395M
860.398	0.866	1086183	WORD_OFF	n/a	n/a	DOOR	Building	2	8	[0, 0, 0]	n/a	catFR1	0	R1395M
861.264	1.6	1087044	WORD	n/a	wordpools/wordpool_categorized_EN.txt	CARNATION	Flowers	3	8	[0, 0, 0]	n/a	catFR1	0	R1395M
862.864	0.917	1088644	WORD_OFF	n/a	n/a	CARNATION	Flowers	3	8	[0, 0, 0]	n/a	catFR1	0	R1395M
863.781	1.617	1089561	WORD	n/a	wordpools/wordpool_categorized_EN.txt	TULIP	Flowers	4	8	[0, 0, 0]	n/a	catFR1	0	R1395M
865.398	0.9	1091180	WORD_OFF	n/a	n/a	TULIP	Flowers	4	8	[0, 0, 0]	n/a	catFR1	0	R1395M
866.298	1.6	1092079	WORD	n/a	wordpools/wordpool_categorized_EN.txt	CHIMPANZEE	Zoo	5	8	[0, 0, 0]	n/a	catFR1	0	R1395M
867.898	0.849	1093679	WORD_OFF	n/a	n/a	CHIMPANZEE	Zoo	5	8	[0, 0, 0]	n/a	catFR1	0	R1395M
868.747	1.601	1094530	WORD	n/a	wordpools/wordpool_categorized_EN.txt	ZEBRA	Zoo	6	8	[0, 0, 0]	n/a	catFR1	0	R1395M
870.348	0.833	1096131	WORD_OFF	n/a	n/a	ZEBRA	Zoo	6	8	[0, 0, 0]	n/a	catFR1	0	R1395M
871.181	1.616	1096964	WORD	n/a	wordpools/wordpool_categorized_EN.txt	LILAC	Flowers	7	8	[0, 0, 0]	n/a	catFR1	0	R1395M
872.797	0.783	1098583	WORD_OFF	n/a	n/a	LILAC	Flowers	7	8	[0, 0, 0]	n/a	catFR1	0	R1395M
873.58	1.601	1099359	WORD	n/a	wordpools/wordpool_categorized_EN.txt	ORCHID	Flowers	8	8	[0, 0, 0]	n/a	catFR1	0	R1395M
875.181	0.783	1100960	WORD_OFF	n/a	n/a	ORCHID	Flowers	8	8	[0, 0, 0]	n/a	catFR1	0	R1395M
875.964	1.6	1101746	WORD	n/a	wordpools/wordpool_categorized_EN.txt	ATTIC	Building	9	8	[0, 0, 0]	n/a	catFR1	0	R1395M
877.564	0.833	1103346	WORD_OFF	n/a	n/a	ATTIC	Building	9	8	[0, 0, 0]	n/a	catFR1	0	R1395M
878.397	1.601	1104179	WORD	n/a	wordpools/wordpool_categorized_EN.txt	STAIRS	Building	10	8	[0, 0, 0]	n/a	catFR1	0	R1395M
879.998	0.849	1105779	WORD_OFF	n/a	n/a	STAIRS	Building	10	8	[0, 0, 0]	n/a	catFR1	0	R1395M
880.847	1.617	1106631	WORD	n/a	wordpools/wordpool_categorized_EN.txt	GORILLA	Zoo	11	8	[0, 0, 0]	n/a	catFR1	0	R1395M
882.464	0.783	1108241	WORD_OFF	n/a	n/a	GORILLA	Zoo	11	8	[0, 0, 0]	n/a	catFR1	0	R1395M
883.247	1.6	1109027	WORD	n/a	wordpools/wordpool_categorized_EN.txt	ORANGUTAN	Zoo	12	8	[0, 0, 0]	n/a	catFR1	0	R1395M
884.847	0.002	1110627	WORD_OFF	n/a	n/a	ORANGUTAN	Zoo	12	8	[0, 0, 0]	n/a	catFR1	0	R1395M
884.849	0.0	1110627	ENCODING_END	n/a	n/a	n/a	n/a	-999	8	[0, 0, 0]	n/a	catFR1	0	R1395M
884.848	0.001	1110628	PROB	0.001	n/a	n/a	n/a	-999	8	[3, 4, 2]	9	catFR1	0	R1395M
884.849	0.0	1110629	START	n/a	n/a	n/a	n/a	-999	8	[-999, -999, -999]	n/a	catFR1	0	R1395M
884.849	3.032	1110636	DISTRACT_START	n/a	n/a	n/a	n/a	-999	8	[0, 0, 0]	n/a	catFR1	0	R1395M
887.881	2.883	1113661	PROB	2.883	n/a	n/a	n/a	-999	8	[1, 5, 7]	13	catFR1	0	R1395M
890.764	2.617	1116544	PROB	2.617	n/a	n/a	n/a	-999	8	[6, 6, 7]	19	catFR1	0	R1395M
893.381	2.783	1119161	PROB	2.783	n/a	n/a	n/a	-999	8	[6, 8, 2]	16	catFR1	0	R1395M
896.164	2.584	1121943	PROB	2.584	n/a	n/a	n/a	-999	8	[2, 1, 8]	11	catFR1	0	R1395M
898.748	2.683	1124527	PROB	2.683	n/a	n/a	n/a	-999	8	[2, 3, 2]	7	catFR1	0	R1395M
901.431	2.516	1127210	PROB	2.516	n/a	n/a	n/a	-999	8	[2, 3, 4]	9	catFR1	0	R1395M
903.947	2.533	1129726	PROB	2.533	n/a	n/a	n/a	-999	8	[2, 8, 3]	13	catFR1	0	R1395M
906.48	0.0	1132255	DISTRACT_END	n/a	n/a	n/a	n/a	-999	8	[0, 0, 0]	n/a	catFR1	0	R1395M
906.48	1.067	1132259	STOP	n/a	n/a	n/a	n/a	-999	8	[-999, -999, -999]	n/a	catFR1	0	R1395M
907.547	2.822	1133321	REC_START	n/a	n/a	n/a	n/a	-999	8	[0, 0, 0]	n/a	catFR1	0	R1395M
910.369	1.402	1136148	REC_WORD	1.402	n/a	LILAC	Flowers	7	8	[0, 0, 0]	n/a	catFR1	0	R1395M
911.771	1.887	1137550	REC_WORD	1.887	n/a	ORCHID	Flowers	8	8	[0, 0, 0]	n/a	catFR1	0	R1395M
913.658	1.536	1139436	REC_WORD	1.536	n/a	TULIP	Flowers	4	8	[0, 0, 0]	n/a	catFR1	0	R1395M
915.194	2.471	1140972	REC_WORD	2.471	n/a	CARNATION	Flowers	3	8	[0, 0, 0]	n/a	catFR1	0	R1395M
917.665	5.67	1143443	REC_WORD	5.67	n/a	CEILING	Building	1	8	[0, 0, 0]	n/a	catFR1	0	R1395M
923.335	2.168	1149113	REC_WORD	2.168	n/a	FLOOR	Building	-999	8	[0, 0, 0]	n/a	catFR1	0	R1395M
925.503	1.369	1151281	REC_WORD_VV	1.369	n/a	<>	n/a	-999	8	[0, 0, 0]	n/a	catFR1	0	R1395M
926.872	6.345	1152650	REC_WORD	6.345	n/a	ATTIC	Building	9	8	[0, 0, 0]	n/a	catFR1	0	R1395M
933.217	5.55	1158994	REC_WORD_VV	5.55	n/a	<>	n/a	-999	8	[0, 0, 0]	n/a	catFR1	0	R1395M
938.767	8.914	1164541	REC_END	n/a	n/a	n/a	n/a	-999	8	[0, 0, 0]	n/a	catFR1	0	R1395M
947.681	10.351	1173460	COUNTDOWN_START	n/a	n/a	n/a	n/a	-999	8	[0, 0, 0]	n/a	catFR1	0	R1395M
958.032	0.0	1183810	COUNTDOWN_END	n/a	n/a	n/a	n/a	-999	8	[0, 0, 0]	n/a	catFR1	0	R1395M
958.032	2.182	1183810	ENCODING_START	n/a	n/a	n/a	n/a	-999	9	[0, 0, 0]	n/a	catFR1	0	R1395M
960.214	1.616	1185991	WORD	n/a	wordpools/wordpool_categorized_EN.txt	SCANNER	Electronics	1	9	[0, 0, 0]	n/a	catFR1	0	R1395M
961.83	0.8	1187610	WORD_OFF	n/a	n/a	SCANNER	Electronics	1	9	[0, 0, 0]	n/a	catFR1	0	R1395M
962.63	1.601	1188405	WORD	n/a	wordpools/wordpool_categorized_EN.txt	HEADPHONES	Electronics	2	9	[0, 0, 0]	n/a	catFR1	0	R1395M
964.231	0.783	1190006	WORD_OFF	n/a	n/a	HEADPHONES	Electronics	2	9	[0, 0, 0]	n/a	catFR1	0	R1395M
965.014	1.6	1190792	WORD	n/a	wordpools/wordpool_categorized_EN.txt	LOBSTER	OceanAnimals	3	9	[0, 0, 0]	n/a	catFR1	0	R1395M
966.614	0.767	1192392	WORD_OFF	n/a	n/a	LOBSTER	OceanAnimals	3	9	[0, 0, 0]	n/a	catFR1	0	R1395M
967.381	1.616	1193160	WORD	n/a	wordpools/wordpool_categorized_EN.txt	DOLPHIN	OceanAnimals	4	9	[0, 0, 0]	n/a	catFR1	0	R1395M
968.997	0.867	1194769	WORD_OFF	n/a	n/a	DOLPHIN	OceanAnimals	4	9	[0, 0, 0]	n/a	catFR1	0	R1395M
969.864	1.6	1195640	WORD	n/a	wordpools/wordpool_categorized_EN.txt	DRIZZLE	Weather	5	9	[0, 0, 0]	n/a	catFR1	0	R1395M
971.464	0.784	1197240	WORD_OFF	n/a	n/a	DRIZZLE	Weather	5	9	[0, 0, 0]	n/a	catFR1	0	R1395M
972.248	1.616	1198026	WORD	n/a	wordpools/wordpool_categorized_EN.txt	LIGHTNING	Weather	6	9	[0, 0, 0]	n/a	catFR1	0	R1395M
973.864	0.967	1199636	WORD_OFF	n/a	n/a	LIGHTNING	Weather	6	9	[0, 0, 0]	n/a	catFR1	0	R1395M
974.831	1.6	1200609	WORD	n/a	wordpools/wordpool_categorized_EN.txt	OYSTER	OceanAnimals	7	9	[0, 0, 0]	n/a	catFR1	0	R1395M
976.431	0.8	1202209	WORD_OFF	n/a	n/a	OYSTER	OceanAnimals	7	9	[0, 0, 0]	n/a	catFR1	0	R1395M
977.231	1.6	1203005	WORD	n/a	wordpools/wordpool_categorized_EN.txt	SQUID	OceanAnimals	8	9	[0, 0, 0]	n/a	catFR1	0	R1395M
978.831	0.983	1204605	WORD_OFF	n/a	n/a	SQUID	OceanAnimals	8	9	[0, 0, 0]	n/a	catFR1	0	R1395M
979.814	1.617	1205588	WORD	n/a	wordpools/wordpool_categorized_EN.txt	PRINTER	Electronics	9	9	[0, 0, 0]	n/a	catFR1	0	R1395M
981.431	0.833	1207207	WORD_OFF	n/a	n/a	PRINTER	Electronics	9	9	[0, 0, 0]	n/a	catFR1	0	R1395M
982.264	1.6	1208040	WORD	n/a	wordpools/wordpool_categorized_EN.txt	COMPUTER	Electronics	10	9	[0, 0, 0]	n/a	catFR1	0	R1395M
983.864	0.767	1209640	WORD_OFF	n/a	n/a	COMPUTER	Electronics	10	9	[0, 0, 0]	n/a	catFR1	0	R1395M
984.631	1.6	1210407	WORD	n/a	wordpools/wordpool_categorized_EN.txt	THUNDERSTORM	Weather	11	9	[0, 0, 0]	n/a	catFR1	0	R1395M
986.231	0.799	1212008	WORD_OFF	n/a	n/a	THUNDERSTORM	Weather	11	9	[0, 0, 0]	n/a	catFR1	0	R1395M
987.03	1.601	1212803	WORD	n/a	wordpools/wordpool_categorized_EN.txt	HURRICANE	Weather	12	9	[0, 0, 0]	n/a	catFR1	0	R1395M
988.631	0.001	1214403	WORD_OFF	n/a	n/a	HURRICANE	Weather	12	9	[0, 0, 0]	n/a	catFR1	0	R1395M
988.632	0.0	1214403	ENCODING_END	n/a	n/a	n/a	n/a	-999	9	[0, 0, 0]	n/a	catFR1	0	R1395M
988.632	0.0	1214406	START	n/a	n/a	n/a	n/a	-999	9	[-999, -999, -999]	n/a	catFR1	0	R1395M
988.632	0.0	1214406	PROB	0.0	n/a	n/a	n/a	-999	9	[1, 3, 6]	10	catFR1	0	R1395M
988.632	4.033	1214413	DISTRACT_START	n/a	n/a	n/a	n/a	-999	9	[0, 0, 0]	n/a	catFR1	0	R1395M
992.665	2.616	1218439	PROB	2.616	n/a	n/a	n/a	-999	9	[2, 7, 1]	10	catFR1	0	R1395M
995.281	2.15	1221055	PROB	2.15	n/a	n/a	n/a	-999	9	[6, 4, 2]	12	catFR1	0	R1395M
997.431	2.517	1223205	PROB	2.517	n/a	n/a	n/a	-999	9	[4, 1, 6]	11	catFR1	0	R1395M
999.948	2.733	1225722	PROB	2.733	n/a	n/a	n/a	-999	9	[1, 4, 1]	6	catFR1	0	R1395M
1002.681	4.483	1228455	PROB	4.483	n/a	n/a	n/a	-999	9	[6, 8, 8]	22	catFR1	0	R1395M
1007.164	1.982	1232937	PROB	1.982	n/a	n/a	n/a	-999	9	[3, 7, 1]	11	catFR1	0	R1395M
1009.146	0.0	1234917	DISTRACT_END	n/a	n/a	n/a	n/a	-999	9	[0, 0, 0]	n/a	catFR1	0	R1395M
1009.146	1.118	1234919	STOP	n/a	n/a	n/a	n/a	-999	9	[-999, -999, -999]	n/a	catFR1	0	R1395M
1010.264	1.41	1236040	REC_START	n/a	n/a	n/a	n/a	-999	9	[0, 0, 0]	n/a	catFR1	0	R1395M
1011.674	1.954	1237447	REC_WORD	1.954	n/a	LOBSTER	OceanAnimals	3	9	[0, 0, 0]	n/a	catFR1	0	R1395M
1013.628	2.35	1239401	REC_WORD	2.35	n/a	DOLPHIN	OceanAnimals	4	9	[0, 0, 0]	n/a	catFR1	0	R1395M
1015.978	8.333	1241751	REC_WORD	8.333	n/a	SQUID	OceanAnimals	8	9	[0, 0, 0]	n/a	catFR1	0	R1395M
1024.311	2.282	1250084	REC_WORD	2.282	n/a	OYSTER	OceanAnimals	7	9	[0, 0, 0]	n/a	catFR1	0	R1395M
1026.593	1.107	1252365	REC_WORD	1.107	n/a	OYSTER	OceanAnimals	7	9	[0, 0, 0]	n/a	catFR1	0	R1395M
1027.7	0.863	1253472	REC_WORD_VV	0.863	n/a	<>	n/a	-999	9	[0, 0, 0]	n/a	catFR1	0	R1395M
1028.563	3.437	1254335	REC_WORD	3.437	n/a	THUNDER	Weather	-999	9	[0, 0, 0]	n/a	catFR1	0	R1395M
1032.0	1.101	1257772	REC_WORD	1.101	n/a	THUNDERSTORM	Weather	11	9	[0, 0, 0]	n/a	catFR1	0	R1395M
1033.101	2.689	1258873	REC_WORD	2.689	n/a	HURRICANE	Weather	12	9	[0, 0, 0]	n/a	catFR1	0	R1395M
1035.79	5.681	1261562	REC_WORD_VV	5.681	n/a	<>	n/a	-999	9	[0, 0, 0]	n/a	catFR1	0	R1395M
1041.471	10.077	1267241	REC_END	n/a	n/a	n/a	n/a	-999	9	[0, 0, 0]	n/a	catFR1	0	R1395M
1051.548	10.35	1277320	COUNTDOWN_START	n/a	n/a	n/a	n/a	-999	9	[0, 0, 0]	n/a	catFR1	0	R1395M
1061.898	0.001	1287671	COUNTDOWN_END	n/a	n/a	n/a	n/a	-999	9	[0, 0, 0]	n/a	catFR1	0	R1395M
1061.899	1.899	1287671	ENCODING_START	n/a	n/a	n/a	n/a	-999	10	[0, 0, 0]	n/a	catFR1	0	R1395M
1063.798	1.616	1289571	WORD	n/a	wordpools/wordpool_categorized_EN.txt	CEDAR	Trees	1	10	[0, 0, 0]	n/a	catFR1	0	R1395M
1065.414	0.884	1291189	WORD_OFF	n/a	n/a	CEDAR	Trees	1	10	[0, 0, 0]	n/a	catFR1	0	R1395M
1066.298	1.616	1292069	WORD	n/a	wordpools/wordpool_categorized_EN.txt	BIRCH	Trees	2	10	[0, 0, 0]	n/a	catFR1	0	R1395M
1067.914	0.8	1293688	WORD_OFF	n/a	n/a	BIRCH	Trees	2	10	[0, 0, 0]	n/a	catFR1	0	R1395M
1068.714	1.6	1294484	WORD	n/a	wordpools/wordpool_categorized_EN.txt	PEAR	Fruit	3	10	[0, 0, 0]	n/a	catFR1	0	R1395M
1070.314	0.867	1296084	WORD_OFF	n/a	n/a	PEAR	Fruit	3	10	[0, 0, 0]	n/a	catFR1	0	R1395M
1071.181	1.617	1296954	WORD	n/a	wordpools/wordpool_categorized_EN.txt	CHERRY	Fruit	4	10	[0, 0, 0]	n/a	catFR1	0	R1395M
1072.798	1.0	1298564	WORD_OFF	n/a	n/a	CHERRY	Fruit	4	10	[0, 0, 0]	n/a	catFR1	0	R1395M
1073.798	1.6	1299566	WORD	n/a	wordpools/wordpool_categorized_EN.txt	FINGERS	BodyParts	5	10	[0, 0, 0]	n/a	catFR1	0	R1395M
1075.398	0.8	1301166	WORD_OFF	n/a	n/a	FINGERS	BodyParts	5	10	[0, 0, 0]	n/a	catFR1	0	R1395M
1076.198	1.616	1301971	WORD	n/a	wordpools/wordpool_categorized_EN.txt	HEAD	BodyParts	6	10	[0, 0, 0]	n/a	catFR1	0	R1395M
1077.814	0.817	1303580	WORD_OFF	n/a	n/a	HEAD	BodyParts	6	10	[0, 0, 0]	n/a	catFR1	0	R1395M
1078.631	1.6	1304404	WORD	n/a	wordpools/wordpool_categorized_EN.txt	PLUM	Fruit	7	10	[0, 0, 0]	n/a	catFR1	0	R1395M
1080.231	0.883	1306004	WORD_OFF	n/a	n/a	PLUM	Fruit	7	10	[0, 0, 0]	n/a	catFR1	0	R1395M
1081.114	1.617	1306884	WORD	n/a	wordpools/wordpool_categorized_EN.txt	APPLE	Fruit	8	10	[0, 0, 0]	n/a	catFR1	0	R1395M
1082.731	0.8	1308503	WORD_OFF	n/a	n/a	APPLE	Fruit	8	10	[0, 0, 0]	n/a	catFR1	0	R1395M
1083.531	1.617	1309298	WORD	n/a	wordpools/wordpool_categorized_EN.txt	ELBOW	BodyParts	9	10	[0, 0, 0]	n/a	catFR1	0	R1395M
1085.148	0.949	1310917	WORD_OFF	n/a	n/a	ELBOW	BodyParts	9	10	[0, 0, 0]	n/a	catFR1	0	R1395M
1086.097	1.617	1311863	WORD	n/a	wordpools/wordpool_categorized_EN.txt	LEG	BodyParts	10	10	[0, 0, 0]	n/a	catFR1	0	R1395M
1087.714	0.967	1313482	WORD_OFF	n/a	n/a	LEG	BodyParts	10	10	[0, 0, 0]	n/a	catFR1	0	R1395M
1088.681	1.6	1314446	WORD	n/a	wordpools/wordpool_categorized_EN.txt	WALNUT	Trees	11	10	[0, 0, 0]	n/a	catFR1	0	R1395M
1090.281	0.999	1316046	WORD_OFF	n/a	n/a	WALNUT	Trees	11	10	[0, 0, 0]	n/a	catFR1	0	R1395M
1091.28	1.601	1317047	WORD	n/a	wordpools/wordpool_categorized_EN.txt	PINE	Trees	12	10	[0, 0, 0]	n/a	catFR1	0	R1395M
1092.881	0.0	1318647	WORD_OFF	n/a	n/a	PINE	Trees	12	10	[0, 0, 0]	n/a	catFR1	0	R1395M
1092.881	0.001	1318650	PROB	0.001	n/a	n/a	n/a	-999	10	[5, 7, 5]	17	catFR1	0	R1395M
1092.882	0.0	1318651	START	n/a	n/a	n/a	n/a	-999	10	[-999, -999, -999]	n/a	catFR1	0	R1395M
1092.882	0.0	1318653	ENCODING_END	n/a	n/a	n/a	n/a	-999	10	[0, 0, 0]	n/a	catFR1	0	R1395M
1092.882	5.032	1318657	DISTRACT_START	n/a	n/a	n/a	n/a	-999	10	[0, 0, 0]	n/a	catFR1	0	R1395M
1097.914	3.567	1323683	PROB	3.567	n/a	n/a	n/a	-999	10	[5, 4, 3]	12	catFR1	0	R1395M
1101.481	2.883	1327249	PROB	2.883	n/a	n/a	n/a	-999	10	[5, 5, 4]	14	catFR1	0	R1395M
1104.364	2.501	1330132	PROB	2.501	n/a	n/a	n/a	-999	10	[5, 5, 6]	16	catFR1	0	R1395M
1106.865	2.816	1332633	PROB	2.816	n/a	n/a	n/a	-999	10	[6, 5, 3]	14	catFR1	0	R1395M
1109.681	4.816	1335449	PROB	4.816	n/a	n/a	n/a	-999	10	[6, 3, 7]	16	catFR1	0	R1395M
1114.497	0.0	1340265	STOP	n/a	n/a	n/a	n/a	-999	10	[-999, -999, -999]	n/a	catFR1	0	R1395M
1114.497	1.4	1340266	DISTRACT_END	n/a	n/a	n/a	n/a	-999	10	[0, 0, 0]	n/a	catFR1	0	R1395M
1115.897	1.991	1341669	REC_START	n/a	n/a	n/a	n/a	-999	10	[0, 0, 0]	n/a	catFR1	0	R1395M
1117.888	2.854	1343656	REC_WORD	2.854	n/a	CEDAR	Trees	1	10	[0, 0, 0]	n/a	catFR1	0	R1395M
1120.742	3.025	1346509	REC_WORD	3.025	n/a	BIRCH	Trees	2	10	[0, 0, 0]	n/a	catFR1	0	R1395M
1123.767	2.186	1349534	REC_WORD	2.186	n/a	APPLE	Fruit	8	10	[0, 0, 0]	n/a	catFR1	0	R1395M
1125.953	2.695	1351720	REC_WORD	2.695	n/a	CHERRY	Fruit	4	10	[0, 0, 0]	n/a	catFR1	0	R1395M
1128.648	2.704	1354415	REC_WORD	2.704	n/a	WALNUT	Trees	11	10	[0, 0, 0]	n/a	catFR1	0	R1395M
1131.352	3.084	1357119	REC_WORD	3.084	n/a	FINGERS	BodyParts	5	10	[0, 0, 0]	n/a	catFR1	0	R1395M
1134.436	3.631	1360203	REC_WORD	3.631	n/a	LEG	BodyParts	10	10	[0, 0, 0]	n/a	catFR1	0	R1395M
1138.067	9.036	1363833	REC_WORD	9.036	n/a	ELBOW	BodyParts	9	10	[0, 0, 0]	n/a	catFR1	0	R1395M
1147.103	3.978	1372871	REC_END	n/a	n/a	n/a	n/a	-999	10	[0, 0, 0]	n/a	catFR1	0	R1395M
1151.081	10.351	1376848	COUNTDOWN_START	n/a	n/a	n/a	n/a	-999	10	[0, 0, 0]	n/a	catFR1	0	R1395M
1161.432	0.0	1387198	COUNTDOWN_END	n/a	n/a	n/a	n/a	-999	10	[0, 0, 0]	n/a	catFR1	0	R1395M
1161.432	1.999	1387198	ENCODING_START	n/a	n/a	n/a	n/a	-999	11	[0, 0, 0]	n/a	catFR1	0	R1395M
1163.431	1.6	1389201	WORD	n/a	wordpools/wordpool_categorized_EN.txt	KNEE	BodyParts	1	11	[0, 0, 0]	n/a	catFR1	0	R1395M
1165.031	0.799	1390792	WORD_OFF	n/a	n/a	KNEE	BodyParts	1	11	[0, 0, 0]	n/a	catFR1	0	R1395M
1165.83	1.601	1391597	WORD	n/a	wordpools/wordpool_categorized_EN.txt	TOE	BodyParts	2	11	[0, 0, 0]	n/a	catFR1	0	R1395M
1167.431	0.817	1393197	WORD_OFF	n/a	n/a	TOE	BodyParts	2	11	[0, 0, 0]	n/a	catFR1	0	R1395M
1168.248	1.6	1394011	WORD	n/a	wordpools/wordpool_categorized_EN.txt	MARBLES	Toys	3	11	[0, 0, 0]	n/a	catFR1	0	R1395M
1169.848	0.9	1395612	WORD_OFF	n/a	n/a	MARBLES	Toys	3	11	[0, 0, 0]	n/a	catFR1	0	R1395M
1170.748	1.616	1396510	WORD	n/a	wordpools/wordpool_categorized_EN.txt	FRISBEE	Toys	4	11	[0, 0, 0]	n/a	catFR1	0	R1395M
1172.364	0.817	1398129	WORD_OFF	n/a	n/a	FRISBEE	Toys	4	11	[0, 0, 0]	n/a	catFR1	0	R1395M
1173.181	1.6	1398943	WORD	n/a	wordpools/wordpool_categorized_EN.txt	MAPLE	Trees	5	11	[0, 0, 0]	n/a	catFR1	0	R1395M
1174.781	0.999	1400544	WORD_OFF	n/a	n/a	MAPLE	Trees	5	11	[0, 0, 0]	n/a	catFR1	0	R1395M
1175.78	1.601	1401545	WORD	n/a	wordpools/wordpool_categorized_EN.txt	WILLOW	Trees	6	11	[0, 0, 0]	n/a	catFR1	0	R1395M
1177.381	0.95	1403145	WORD_OFF	n/a	n/a	WILLOW	Trees	6	11	[0, 0, 0]	n/a	catFR1	0	R1395M
1178.331	1.6	1404100	WORD	n/a	wordpools/wordpool_categorized_EN.txt	EYE	BodyParts	7	11	[0, 0, 0]	n/a	catFR1	0	R1395M
1179.931	0.817	1405700	WORD_OFF	n/a	n/a	EYE	BodyParts	7	11	[0, 0, 0]	n/a	catFR1	0	R1395M
1180.748	1.6	1406514	WORD	n/a	wordpools/wordpool_categorized_EN.txt	EAR	BodyParts	8	11	[0, 0, 0]	n/a	catFR1	0	R1395M
1182.348	0.95	1408115	WORD_OFF	n/a	n/a	EAR	BodyParts	8	11	[0, 0, 0]	n/a	catFR1	0	R1395M
1183.298	1.616	1409060	WORD	n/a	wordpools/wordpool_categorized_EN.txt	HICKORY	Trees	9	11	[0, 0, 0]	n/a	catFR1	0	R1395M
1184.914	0.917	1410679	WORD_OFF	n/a	n/a	HICKORY	Trees	9	11	[0, 0, 0]	n/a	catFR1	0	R1395M
1185.831	1.6	1411596	WORD	n/a	wordpools/wordpool_categorized_EN.txt	CYPRESS	Trees	10	11	[0, 0, 0]	n/a	catFR1	0	R1395M
1187.431	0.966	1413196	WORD_OFF	n/a	n/a	CYPRESS	Trees	10	11	[0, 0, 0]	n/a	catFR1	0	R1395M
1188.397	1.616	1414160	WORD	n/a	wordpools/wordpool_categorized_EN.txt	BASEBALL	Toys	11	11	[0, 0, 0]	n/a	catFR1	0	R1395M
1190.013	0.984	1415779	WORD_OFF	n/a	n/a	BASEBALL	Toys	11	11	[0, 0, 0]	n/a	catFR1	0	R1395M
1190.997	1.617	1416762	WORD	n/a	wordpools/wordpool_categorized_EN.txt	DOLL	Toys	12	11	[0, 0, 0]	n/a	catFR1	0	R1395M
1192.614	0.002	1418378	PROB	0.002	n/a	n/a	n/a	-999	11	[7, 7, 3]	17	catFR1	0	R1395M
1192.616	0.0	1418380	START	n/a	n/a	n/a	n/a	-999	11	[-999, -999, -999]	n/a	catFR1	0	R1395M
1192.614	0.002	1418381	WORD_OFF	n/a	n/a	DOLL	Toys	12	11	[0, 0, 0]	n/a	catFR1	0	R1395M
1192.616	0.0	1418381	ENCODING_END	n/a	n/a	n/a	n/a	-999	11	[0, 0, 0]	n/a	catFR1	0	R1395M
1192.616	5.948	1418381	DISTRACT_START	n/a	n/a	n/a	n/a	-999	11	[0, 0, 0]	n/a	catFR1	0	R1395M
1198.564	3.217	1424327	PROB	3.217	n/a	n/a	n/a	-999	11	[8, 5, 4]	17	catFR1	0	R1395M
1201.781	2.75	1427544	PROB	2.75	n/a	n/a	n/a	-999	11	[1, 6, 5]	12	catFR1	0	R1395M
1204.531	2.316	1430294	PROB	2.316	n/a	n/a	n/a	-999	11	[5, 5, 7]	17	catFR1	0	R1395M
1206.847	2.35	1432610	PROB	2.35	n/a	n/a	n/a	-999	11	[8, 7, 2]	17	catFR1	0	R1395M
1209.197	2.85	1434960	PROB	2.85	n/a	n/a	n/a	-999	11	[6, 2, 5]	13	catFR1	0	R1395M
1212.047	5.033	1437809	PROB	5.033	n/a	n/a	n/a	-999	11	[6, 8, 8]	22	catFR1	0	R1395M
1217.08	0.0	1442842	STOP	n/a	n/a	n/a	n/a	-999	11	[-999, -999, -999]	n/a	catFR1	0	R1395M
1217.08	1.267	1442844	DISTRACT_END	n/a	n/a	n/a	n/a	-999	11	[0, 0, 0]	n/a	catFR1	0	R1395M
1218.347	2.713	1444107	REC_START	n/a	n/a	n/a	n/a	-999	11	[0, 0, 0]	n/a	catFR1	0	R1395M
1221.06	2.445	1446822	REC_WORD	2.445	n/a	HICKORY	Trees	9	11	[0, 0, 0]	n/a	catFR1	0	R1395M
1223.505	1.433	1449267	REC_WORD	1.433	n/a	MAPLE	Trees	5	11	[0, 0, 0]	n/a	catFR1	0	R1395M
1224.938	3.496	1450700	REC_WORD	3.496	n/a	CYPRESS	Trees	10	11	[0, 0, 0]	n/a	catFR1	0	R1395M
1228.434	2.52	1454196	REC_WORD	2.52	n/a	TOE	BodyParts	2	11	[0, 0, 0]	n/a	catFR1	0	R1395M
1230.954	9.017	1456715	REC_WORD	9.017	n/a	KNEE	BodyParts	1	11	[0, 0, 0]	n/a	catFR1	0	R1395M
1239.971	2.705	1465732	REC_WORD	2.705	n/a	EYE	BodyParts	7	11	[0, 0, 0]	n/a	catFR1	0	R1395M
1242.676	6.876	1468437	REC_WORD	6.876	n/a	EAR	BodyParts	8	11	[0, 0, 0]	n/a	catFR1	0	R1395M
1249.552	3.946	1475308	REC_END	n/a	n/a	n/a	n/a	-999	11	[0, 0, 0]	n/a	catFR1	0	R1395M
1253.498	10.35	1479258	COUNTDOWN_START	n/a	n/a	n/a	n/a	-999	11	[0, 0, 0]	n/a	catFR1	0	R1395M
1263.848	0.0	1489608	COUNTDOWN_END	n/a	n/a	n/a	n/a	-999	11	[0, 0, 0]	n/a	catFR1	0	R1395M
1263.848	2.233	1489608	ENCODING_START	n/a	n/a	n/a	n/a	-999	12	[0, 0, 0]	n/a	catFR1	0	R1395M
1266.081	1.6	1491845	WORD	n/a	wordpools/wordpool_categorized_EN.txt	PANDA	Zoo	1	12	[0, 0, 0]	n/a	catFR1	0	R1395M
1267.681	0.983	1493445	WORD_OFF	n/a	n/a	PANDA	Zoo	1	12	[0, 0, 0]	n/a	catFR1	0	R1395M
1268.664	1.617	1494428	WORD	n/a	wordpools/wordpool_categorized_EN.txt	ELEPHANT	Zoo	2	12	[0, 0, 0]	n/a	catFR1	0	R1395M
1270.281	0.9	1496038	WORD_OFF	n/a	n/a	ELEPHANT	Zoo	2	12	[0, 0, 0]	n/a	catFR1	0	R1395M
1271.181	1.6	1496945	WORD	n/a	wordpools/wordpool_categorized_EN.txt	CALCULATOR	Electronics	3	12	[0, 0, 0]	n/a	catFR1	0	R1395M
1272.781	0.867	1498536	WORD_OFF	n/a	n/a	CALCULATOR	Electronics	3	12	[0, 0, 0]	n/a	catFR1	0	R1395M
1273.648	1.6	1499407	WORD	n/a	wordpools/wordpool_categorized_EN.txt	SPEAKER	Electronics	4	12	[0, 0, 0]	n/a	catFR1	0	R1395M
1275.248	0.916	1501007	WORD_OFF	n/a	n/a	SPEAKER	Electronics	4	12	[0, 0, 0]	n/a	catFR1	0	R1395M
1276.164	1.6	1501924	WORD	n/a	wordpools/wordpool_categorized_EN.txt	JUICE	Beverages	5	12	[0, 0, 0]	n/a	catFR1	0	R1395M
1277.764	0.867	1503524	WORD_OFF	n/a	n/a	JUICE	Beverages	5	12	[0, 0, 0]	n/a	catFR1	0	R1395M
1278.631	1.617	1504395	WORD	n/a	wordpools/wordpool_categorized_EN.txt	WATER	Beverages	6	12	[0, 0, 0]	n/a	catFR1	0	R1395M
1280.248	0.932	1506004	WORD_OFF	n/a	n/a	WATER	Beverages	6	12	[0, 0, 0]	n/a	catFR1	0	R1395M
1281.18	1.601	1506940	WORD	n/a	wordpools/wordpool_categorized_EN.txt	MONKEY	Zoo	7	12	[0, 0, 0]	n/a	catFR1	0	R1395M
1282.781	0.8	1508540	WORD_OFF	n/a	n/a	MONKEY	Zoo	7	12	[0, 0, 0]	n/a	catFR1	0	R1395M
1283.581	1.6	1509336	WORD	n/a	wordpools/wordpool_categorized_EN.txt	GIRAFFE	Zoo	8	12	[0, 0, 0]	n/a	catFR1	0	R1395M
1285.181	0.867	1510936	WORD_OFF	n/a	n/a	GIRAFFE	Zoo	8	12	[0, 0, 0]	n/a	catFR1	0	R1395M
1286.048	1.6	1511807	WORD	n/a	wordpools/wordpool_categorized_EN.txt	COFFEE	Beverages	9	12	[0, 0, 0]	n/a	catFR1	0	R1395M
1287.648	0.999	1513407	WORD_OFF	n/a	n/a	COFFEE	Beverages	9	12	[0, 0, 0]	n/a	catFR1	0	R1395M
1288.647	1.6	1514408	WORD	n/a	wordpools/wordpool_categorized_EN.txt	LEMONADE	Beverages	10	12	[0, 0, 0]	n/a	catFR1	0	R1395M
1290.247	0.8	1516009	WORD_OFF	n/a	n/a	LEMONADE	Beverages	10	12	[0, 0, 0]	n/a	catFR1	0	R1395M
1291.047	1.6	1516804	WORD	n/a	wordpools/wordpool_categorized_EN.txt	TELEVISION	Electronics	11	12	[0, 0, 0]	n/a	catFR1	0	R1395M
1292.647	0.85	1518404	WORD_OFF	n/a	n/a	TELEVISION	Electronics	11	12	[0, 0, 0]	n/a	catFR1	0	R1395M
1293.497	1.6	1519256	WORD	n/a	wordpools/wordpool_categorized_EN.txt	PHONE	Electronics	12	12	[0, 0, 0]	n/a	catFR1	0	R1395M
1295.097	0.002	1520856	WORD_OFF	n/a	n/a	PHONE	Electronics	12	12	[0, 0, 0]	n/a	catFR1	0	R1395M
1295.099	0.0	1520856	ENCODING_END	n/a	n/a	n/a	n/a	-999	12	[0, 0, 0]	n/a	catFR1	0	R1395M
1295.099	0.0	1520856	DISTRACT_START	n/a	n/a	n/a	n/a	-999	12	[0, 0, 0]	n/a	catFR1	0	R1395M
1295.098	0.001	1520856	PROB	0.001	n/a	n/a	n/a	-999	12	[2, 1, 4]	7	catFR1	0	R1395M
1295.099	3.816	1520857	START	n/a	n/a	n/a	n/a	-999	12	[-999, -999, -999]	n/a	catFR1	0	R1395M
1298.915	2.933	1524673	PROB	2.933	n/a	n/a	n/a	-999	12	[6, 3, 7]	16	catFR1	0	R1395M
1301.848	2.383	1527606	PROB	2.383	n/a	n/a	n/a	-999	12	[1, 1, 1]	3	catFR1	0	R1395M
1304.231	2.1	1529989	PROB	2.1	n/a	n/a	n/a	-999	12	[1, 2, 5]	8	catFR1	0	R1395M
1306.331	2.633	1532088	PROB	2.633	n/a	n/a	n/a	-999	12	[2, 2, 8]	12	catFR1	0	R1395M
1308.964	2.634	1534721	PROB	2.634	n/a	n/a	n/a	-999	12	[2, 5, 4]	11	catFR1	0	R1395M
1311.598	2.616	1537355	PROB	2.616	n/a	n/a	n/a	-999	12	[5, 6, 5]	16	catFR1	0	R1395M
1314.214	2.616	1539971	PROB	2.616	n/a	n/a	n/a	-999	12	[1, 1, 4]	6	catFR1	0	R1395M
1316.83	0.0	1542587	DISTRACT_END	n/a	n/a	n/a	n/a	-999	12	[0, 0, 0]	n/a	catFR1	0	R1395M
1316.83	1.2	1542587	STOP	n/a	n/a	n/a	n/a	-999	12	[-999, -999, -999]	n/a	catFR1	0	R1395M
1318.03	1.418	1543785	REC_START	n/a	n/a	n/a	n/a	-999	12	[0, 0, 0]	n/a	catFR1	0	R1395M
1319.448	1.35	1545205	REC_WORD	1.35	n/a	PANDA	Zoo	1	12	[0, 0, 0]	n/a	catFR1	0	R1395M
1320.798	3.168	1546555	REC_WORD	3.168	n/a	ELEPHANT	Zoo	2	12	[0, 0, 0]	n/a	catFR1	0	R1395M
1323.966	1.628	1549723	REC_WORD	1.628	n/a	MONKEY	Zoo	7	12	[0, 0, 0]	n/a	catFR1	0	R1395M
1325.594	3.773	1551350	REC_WORD	3.773	n/a	GIRAFFE	Zoo	8	12	[0, 0, 0]	n/a	catFR1	0	R1395M
1329.367	3.042	1555123	REC_WORD	3.042	n/a	TELEVISION	Electronics	11	12	[0, 0, 0]	n/a	catFR1	0	R1395M
1332.409	1.841	1558165	REC_WORD	1.841	n/a	CALCULATOR	Electronics	3	12	[0, 0, 0]	n/a	catFR1	0	R1395M
1334.25	15.0	1560006	REC_WORD	15.0	n/a	SPEAKER	Electronics	4	12	[0, 0, 0]	n/a	catFR1	0	R1395M
1349.25	0.0	1575004	REC_END	n/a	n/a	n/a	n/a	-999	12	[0, 0, 0]	n/a	catFR1	0	R1395M
