onset	duration	sample	trial_type	response_time	stim_file	item_name	category	serialpos	list	test	answer	experiment	session	subject
0.0	96.916	25629	INSTRUCT_START	n/a	n/a	n/a	n/a	-999	-999	[0, 0, 0]	n/a	catFR1	2	R1403N
96.916	39.499	122538	INSTRUCT_END	n/a	n/a	n/a	n/a	-999	-999	[0, 0, 0]	n/a	catFR1	2	R1403N
136.415	10.35	162038	COUNTDOWN_START	n/a	n/a	n/a	n/a	-999	-999	[0, 0, 0]	n/a	catFR1	2	R1403N
146.765	0.0	172373	COUNTDOWN_END	n/a	n/a	n/a	n/a	-999	-999	[0, 0, 0]	n/a	catFR1	2	R1403N
146.765	2.099	172391	ENCODING_START	n/a	n/a	n/a	n/a	-999	-1	[0, 0, 0]	n/a	catFR1	2	R1403N
148.864	1.601	174483	WORD	n/a	n/a	CUCUMBER	Vegetables	1	-1	[0, 0, 0]	n/a	catFR1	2	R1403N
150.465	0.9	176088	WORD_OFF	n/a	n/a	CUCUMBER	Vegetables	1	-1	[0, 0, 0]	n/a	catFR1	2	R1403N
151.365	1.617	176972	WORD	n/a	n/a	CAULIFLOWER	Vegetables	2	-1	[0, 0, 0]	n/a	catFR1	2	R1403N
152.982	0.9	178595	WORD_OFF	n/a	n/a	CAULIFLOWER	Vegetables	2	-1	[0, 0, 0]	n/a	catFR1	2	R1403N
153.882	1.616	179497	WORD	n/a	n/a	ANT	Insects	3	-1	[0, 0, 0]	n/a	catFR1	2	R1403N
155.498	0.999	181121	WORD_OFF	n/a	n/a	ANT	Insects	3	-1	[0, 0, 0]	n/a	catFR1	2	R1403N
156.497	1.601	182112	WORD	n/a	n/a	GNAT	Insects	4	-1	[0, 0, 0]	n/a	catFR1	2	R1403N
158.098	0.833	183718	WORD_OFF	n/a	n/a	GNAT	Insects	4	-1	[0, 0, 0]	n/a	catFR1	2	R1403N
158.931	1.601	184547	WORD	n/a	n/a	COFFEE	Beverages	5	-1	[0, 0, 0]	n/a	catFR1	2	R1403N
160.532	0.933	186153	WORD_OFF	n/a	n/a	COFFEE	Beverages	5	-1	[0, 0, 0]	n/a	catFR1	2	R1403N
161.465	1.617	187072	WORD	n/a	n/a	WINE	Beverages	6	-1	[0, 0, 0]	n/a	catFR1	2	R1403N
163.082	0.851	188696	WORD_OFF	n/a	n/a	WINE	Beverages	6	-1	[0, 0, 0]	n/a	catFR1	2	R1403N
163.933	1.599	189543	WORD	n/a	n/a	ROACH	Insects	7	-1	[0, 0, 0]	n/a	catFR1	2	R1403N
165.532	0.916	191149	WORD_OFF	n/a	n/a	ROACH	Insects	7	-1	[0, 0, 0]	n/a	catFR1	2	R1403N
166.448	1.6	192069	WORD	n/a	n/a	FLY	Insects	8	-1	[0, 0, 0]	n/a	catFR1	2	R1403N
168.048	0.899	193656	WORD_OFF	n/a	n/a	FLY	Insects	8	-1	[0, 0, 0]	n/a	catFR1	2	R1403N
168.947	1.601	194558	WORD	n/a	n/a	PEAS	Vegetables	9	-1	[0, 0, 0]	n/a	catFR1	2	R1403N
170.548	0.817	196163	WORD_OFF	n/a	n/a	PEAS	Vegetables	9	-1	[0, 0, 0]	n/a	catFR1	2	R1403N
171.365	1.6	196974	WORD	n/a	n/a	CABBAGE	Vegetables	10	-1	[0, 0, 0]	n/a	catFR1	2	R1403N
172.965	0.867	198580	WORD_OFF	n/a	n/a	CABBAGE	Vegetables	10	-1	[0, 0, 0]	n/a	catFR1	2	R1403N
173.832	1.616	199445	WORD	n/a	n/a	BEER	Beverages	11	-1	[0, 0, 0]	n/a	catFR1	2	R1403N
175.448	0.8	201069	WORD_OFF	n/a	n/a	BEER	Beverages	11	-1	[0, 0, 0]	n/a	catFR1	2	R1403N
176.248	1.616	201862	WORD	n/a	n/a	CIDER	Beverages	12	-1	[0, 0, 0]	n/a	catFR1	2	R1403N
177.864	0.002	203486	WORD_OFF	n/a	n/a	CIDER	Beverages	12	-1	[0, 0, 0]	n/a	catFR1	2	R1403N
177.866	0.0	203486	DISTRACT_START	n/a	n/a	n/a	n/a	-999	-1	[0, 0, 0]	n/a	catFR1	2	R1403N
177.866	0.0	203486	ENCODING_END	n/a	n/a	n/a	n/a	-999	-1	[0, 0, 0]	n/a	catFR1	2	R1403N
177.866	0.0	203480	START	n/a	n/a	n/a	n/a	-999	-1	[-999, -999, -999]	n/a	catFR1	2	R1403N
177.866	6.683	203480	PROB	6.667	n/a	n/a	n/a	-999	-1	[3, 5, 8]	16.0	catFR1	2	R1403N
184.549	6.633	210163	PROB	6.616	n/a	n/a	n/a	-999	-1	[8, 8, 5]	21.0	catFR1	2	R1403N
191.182	3.616	216796	PROB	3.599	n/a	n/a	n/a	-999	-1	[1, 5, 4]	10.0	catFR1	2	R1403N
194.798	4.136	220411	PROB	4.117	n/a	n/a	n/a	-999	-1	[7, 1, 8]	16.0	catFR1	2	R1403N
198.934	0.0	224552	DISTRACT_END	n/a	n/a	n/a	n/a	-999	-1	[0, 0, 0]	n/a	catFR1	2	R1403N
198.934	2.364	224547	STOP	n/a	n/a	n/a	n/a	-999	-1	[-999, -999, -999]	n/a	catFR1	2	R1403N
201.298	1.462	226905	REC_START	n/a	n/a	n/a	n/a	-999	-1	[0, 0, 0]	n/a	catFR1	2	R1403N
202.76	0.541	228373	REC_WORD	1.462	n/a	CUCUMBER	Vegetables	1	-1	[0, 0, 0]	n/a	catFR1	2	R1403N
203.301	0.853	228914	REC_WORD	2.003	n/a	CAULIFLOWER	Vegetables	2	-1	[0, 0, 0]	n/a	catFR1	2	R1403N
204.154	0.561	229767	REC_WORD	2.856	n/a	ANT	Insects	3	-1	[0, 0, 0]	n/a	catFR1	2	R1403N
204.715	0.387	230328	REC_WORD	3.417	n/a	GNAT	Insects	4	-1	[0, 0, 0]	n/a	catFR1	2	R1403N
205.102	2.186	230715	REC_WORD	3.804	n/a	FLY	Insects	8	-1	[0, 0, 0]	n/a	catFR1	2	R1403N
207.288	20.573	232901	REC_WORD	5.99	n/a	BEER	Beverages	11	-1	[0, 0, 0]	n/a	catFR1	2	R1403N
227.861	3.647	253473	REC_WORD	26.563	n/a	CABBAGE	Vegetables	10	-1	[0, 0, 0]	n/a	catFR1	2	R1403N
231.508	17.507	257126	REC_END	n/a	n/a	n/a	n/a	-999	-1	[0, 0, 0]	n/a	catFR1	2	R1403N
249.015	10.35	274621	COUNTDOWN_START	n/a	n/a	n/a	n/a	-999	1	[0, 0, 0]	n/a	catFR1	2	R1403N
259.365	0.0	284974	COUNTDOWN_END	n/a	n/a	n/a	n/a	-999	1	[0, 0, 0]	n/a	catFR1	2	R1403N
259.365	1.966	284974	ENCODING_START	n/a	n/a	n/a	n/a	-999	1	[0, 0, 0]	n/a	catFR1	2	R1403N
261.331	1.6	286940	WORD	n/a	wordpools/wordpool_categorized_EN.txt	PHONE	Electronics	1	1	[0, 0, 0]	n/a	catFR1	2	R1403N
262.931	0.917	288545	WORD_OFF	n/a	n/a	PHONE	Electronics	1	1	[0, 0, 0]	n/a	catFR1	2	R1403N
263.848	1.616	289465	WORD	n/a	wordpools/wordpool_categorized_EN.txt	RADIO	Electronics	2	1	[0, 0, 0]	n/a	catFR1	2	R1403N
265.464	0.817	291070	WORD_OFF	n/a	n/a	RADIO	Electronics	2	1	[0, 0, 0]	n/a	catFR1	2	R1403N
266.281	1.617	291900	WORD	n/a	wordpools/wordpool_categorized_EN.txt	DOLL	Toys	3	1	[0, 0, 0]	n/a	catFR1	2	R1403N
267.898	0.85	293505	WORD_OFF	n/a	n/a	DOLL	Toys	3	1	[0, 0, 0]	n/a	catFR1	2	R1403N
268.748	1.6	294353	WORD	n/a	wordpools/wordpool_categorized_EN.txt	FOOTBALL	Toys	4	1	[0, 0, 0]	n/a	catFR1	2	R1403N
270.348	0.866	295958	WORD_OFF	n/a	n/a	FOOTBALL	Toys	4	1	[0, 0, 0]	n/a	catFR1	2	R1403N
271.214	1.617	296824	WORD	n/a	wordpools/wordpool_categorized_EN.txt	EAR	BodyParts	5	1	[0, 0, 0]	n/a	catFR1	2	R1403N
272.831	0.983	298447	WORD_OFF	n/a	n/a	EAR	BodyParts	5	1	[0, 0, 0]	n/a	catFR1	2	R1403N
273.814	1.617	299421	WORD	n/a	wordpools/wordpool_categorized_EN.txt	EYE	BodyParts	6	1	[0, 0, 0]	n/a	catFR1	2	R1403N
275.431	0.766	301044	WORD_OFF	n/a	n/a	EYE	BodyParts	6	1	[0, 0, 0]	n/a	catFR1	2	R1403N
276.197	1.601	301802	WORD	n/a	wordpools/wordpool_categorized_EN.txt	DOLLHOUSE	Toys	7	1	[0, 0, 0]	n/a	catFR1	2	R1403N
277.798	0.966	303407	WORD_OFF	n/a	n/a	DOLLHOUSE	Toys	7	1	[0, 0, 0]	n/a	catFR1	2	R1403N
278.764	1.6	304381	WORD	n/a	wordpools/wordpool_categorized_EN.txt	SLINKY	Toys	8	1	[0, 0, 0]	n/a	catFR1	2	R1403N
280.364	0.9	305968	WORD_OFF	n/a	n/a	SLINKY	Toys	8	1	[0, 0, 0]	n/a	catFR1	2	R1403N
281.264	1.601	306870	WORD	n/a	wordpools/wordpool_categorized_EN.txt	ELBOW	BodyParts	9	1	[0, 0, 0]	n/a	catFR1	2	R1403N
282.865	0.8	308475	WORD_OFF	n/a	n/a	ELBOW	BodyParts	9	1	[0, 0, 0]	n/a	catFR1	2	R1403N
283.665	1.6	309269	WORD	n/a	wordpools/wordpool_categorized_EN.txt	KNEE	BodyParts	10	1	[0, 0, 0]	n/a	catFR1	2	R1403N
285.265	0.9	310874	WORD_OFF	n/a	n/a	KNEE	BodyParts	10	1	[0, 0, 0]	n/a	catFR1	2	R1403N
286.165	1.6	311776	WORD	n/a	wordpools/wordpool_categorized_EN.txt	TABLET	Electronics	11	1	[0, 0, 0]	n/a	catFR1	2	R1403N
287.765	0.967	313381	WORD_OFF	n/a	n/a	TABLET	Electronics	11	1	[0, 0, 0]	n/a	catFR1	2	R1403N
288.732	1.6	314337	WORD	n/a	wordpools/wordpool_categorized_EN.txt	STEREO	Electronics	12	1	[0, 0, 0]	n/a	catFR1	2	R1403N
290.332	0.001	315942	WORD_OFF	n/a	n/a	STEREO	Electronics	12	1	[0, 0, 0]	n/a	catFR1	2	R1403N
290.333	0.001	315943	PROB	6.982	n/a	n/a	n/a	-999	1	[7, 8, 8]	23.0	catFR1	2	R1403N
290.334	0.0	315942	DISTRACT_START	n/a	n/a	n/a	n/a	-999	1	[0, 0, 0]	n/a	catFR1	2	R1403N
290.334	0.0	315942	ENCODING_END	n/a	n/a	n/a	n/a	-999	1	[0, 0, 0]	n/a	catFR1	2	R1403N
290.334	6.997	315944	START	n/a	n/a	n/a	n/a	-999	1	[-999, -999, -999]	n/a	catFR1	2	R1403N
297.331	4.485	322941	PROB	4.467	n/a	n/a	n/a	-999	1	[7, 3, 5]	15.0	catFR1	2	R1403N
301.816	8.881	327426	PROB	8.866	n/a	n/a	n/a	-999	1	[1, 8, 5]	14.0	catFR1	2	R1403N
310.697	0.0	336305	DISTRACT_END	n/a	n/a	n/a	n/a	-999	1	[0, 0, 0]	n/a	catFR1	2	R1403N
310.697	2.235	336307	STOP	n/a	n/a	n/a	n/a	-999	1	[-999, -999, -999]	n/a	catFR1	2	R1403N
312.932	1.21	338550	REC_START	n/a	n/a	n/a	n/a	-999	1	[0, 0, 0]	n/a	catFR1	2	R1403N
314.142	0.629	339752	REC_WORD	1.21	n/a	PHONE	Electronics	1	1	[0, 0, 0]	n/a	catFR1	2	R1403N
314.771	0.521	340381	REC_WORD	1.839	n/a	RADIO	Electronics	2	1	[0, 0, 0]	n/a	catFR1	2	R1403N
315.292	0.473	340902	REC_WORD	2.36	n/a	DOLL	Toys	3	1	[0, 0, 0]	n/a	catFR1	2	R1403N
315.765	1.014	341375	REC_WORD	2.833	n/a	DOLLHOUSE	Toys	7	1	[0, 0, 0]	n/a	catFR1	2	R1403N
316.779	0.371	342389	REC_WORD	3.847	n/a	ELBOW	BodyParts	9	1	[0, 0, 0]	n/a	catFR1	2	R1403N
317.15	0.912	342759	REC_WORD	4.218	n/a	SLINKY	Toys	8	1	[0, 0, 0]	n/a	catFR1	2	R1403N
318.062	20.445	343671	REC_WORD	5.13	n/a	EYE	BodyParts	6	1	[0, 0, 0]	n/a	catFR1	2	R1403N
338.507	4.66	364116	REC_WORD	25.575	n/a	FOOTBALL	Toys	4	1	[0, 0, 0]	n/a	catFR1	2	R1403N
343.167	2.932	368771	REC_END	n/a	n/a	n/a	n/a	-999	1	[0, 0, 0]	n/a	catFR1	2	R1403N
346.099	10.349	371710	COUNTDOWN_START	n/a	n/a	n/a	n/a	-999	2	[0, 0, 0]	n/a	catFR1	2	R1403N
356.448	0.0	382063	COUNTDOWN_END	n/a	n/a	n/a	n/a	-999	2	[0, 0, 0]	n/a	catFR1	2	R1403N
356.448	1.867	382063	ENCODING_START	n/a	n/a	n/a	n/a	-999	2	[0, 0, 0]	n/a	catFR1	2	R1403N
358.315	1.6	383921	WORD	n/a	wordpools/wordpool_categorized_EN.txt	APPLE	Fruit	1	2	[0, 0, 0]	n/a	catFR1	2	R1403N
359.915	0.783	385526	WORD_OFF	n/a	n/a	APPLE	Fruit	1	2	[0, 0, 0]	n/a	catFR1	2	R1403N
360.698	1.6	386302	WORD	n/a	wordpools/wordpool_categorized_EN.txt	PLUM	Fruit	2	2	[0, 0, 0]	n/a	catFR1	2	R1403N
362.298	0.95	387907	WORD_OFF	n/a	n/a	PLUM	Fruit	2	2	[0, 0, 0]	n/a	catFR1	2	R1403N
363.248	1.617	388863	WORD	n/a	wordpools/wordpool_categorized_EN.txt	OAK	Trees	3	2	[0, 0, 0]	n/a	catFR1	2	R1403N
364.865	0.766	390468	WORD_OFF	n/a	n/a	OAK	Trees	3	2	[0, 0, 0]	n/a	catFR1	2	R1403N
365.631	1.601	391244	WORD	n/a	wordpools/wordpool_categorized_EN.txt	WALNUT	Trees	4	2	[0, 0, 0]	n/a	catFR1	2	R1403N
367.232	0.999	392831	WORD_OFF	n/a	n/a	WALNUT	Trees	4	2	[0, 0, 0]	n/a	catFR1	2	R1403N
368.231	1.601	393841	WORD	n/a	wordpools/wordpool_categorized_EN.txt	HEN	FarmAnimals	5	2	[0, 0, 0]	n/a	catFR1	2	R1403N
369.832	0.766	395446	WORD_OFF	n/a	n/a	HEN	FarmAnimals	5	2	[0, 0, 0]	n/a	catFR1	2	R1403N
370.598	1.6	396204	WORD	n/a	wordpools/wordpool_categorized_EN.txt	CHICKEN	FarmAnimals	6	2	[0, 0, 0]	n/a	catFR1	2	R1403N
372.198	0.933	397809	WORD_OFF	n/a	n/a	CHICKEN	FarmAnimals	6	2	[0, 0, 0]	n/a	catFR1	2	R1403N
373.131	1.601	398747	WORD	n/a	wordpools/wordpool_categorized_EN.txt	PEAR	Fruit	7	2	[0, 0, 0]	n/a	catFR1	2	R1403N
374.732	0.966	400334	WORD_OFF	n/a	n/a	PEAR	Fruit	7	2	[0, 0, 0]	n/a	catFR1	2	R1403N
375.698	1.6	401308	WORD	n/a	wordpools/wordpool_categorized_EN.txt	GRAPE	Fruit	8	2	[0, 0, 0]	n/a	catFR1	2	R1403N
377.298	0.967	402913	WORD_OFF	n/a	n/a	GRAPE	Fruit	8	2	[0, 0, 0]	n/a	catFR1	2	R1403N
378.265	1.616	403869	WORD	n/a	wordpools/wordpool_categorized_EN.txt	ROOSTER	FarmAnimals	9	2	[0, 0, 0]	n/a	catFR1	2	R1403N
379.881	0.8	405493	WORD_OFF	n/a	n/a	ROOSTER	FarmAnimals	9	2	[0, 0, 0]	n/a	catFR1	2	R1403N
380.681	1.601	406286	WORD	n/a	wordpools/wordpool_categorized_EN.txt	TURKEY	FarmAnimals	10	2	[0, 0, 0]	n/a	catFR1	2	R1403N
382.282	0.866	407891	WORD_OFF	n/a	n/a	TURKEY	FarmAnimals	10	2	[0, 0, 0]	n/a	catFR1	2	R1403N
383.148	1.6	408757	WORD	n/a	wordpools/wordpool_categorized_EN.txt	MAPLE	Trees	11	2	[0, 0, 0]	n/a	catFR1	2	R1403N
384.748	0.784	410362	WORD_OFF	n/a	n/a	MAPLE	Trees	11	2	[0, 0, 0]	n/a	catFR1	2	R1403N
385.532	1.615	411138	WORD	n/a	wordpools/wordpool_categorized_EN.txt	BIRCH	Trees	12	2	[0, 0, 0]	n/a	catFR1	2	R1403N
387.147	0.001	412761	WORD_OFF	n/a	n/a	BIRCH	Trees	12	2	[0, 0, 0]	n/a	catFR1	2	R1403N
387.148	0.001	412755	PROB	9.0	n/a	n/a	n/a	-999	2	[5, 7, 1]	13.0	catFR1	2	R1403N
387.149	0.0	412761	DISTRACT_START	n/a	n/a	n/a	n/a	-999	2	[0, 0, 0]	n/a	catFR1	2	R1403N
387.149	0.0	412761	ENCODING_END	n/a	n/a	n/a	n/a	-999	2	[0, 0, 0]	n/a	catFR1	2	R1403N
387.149	9.017	412756	START	n/a	n/a	n/a	n/a	-999	2	[-999, -999, -999]	n/a	catFR1	2	R1403N
396.166	9.265	421773	PROB	9.249	n/a	n/a	n/a	-999	2	[2, 4, 1]	7.0	catFR1	2	R1403N
405.431	5.801	431038	PROB	5.784	n/a	n/a	n/a	-999	2	[8, 1, 7]	16.0	catFR1	2	R1403N
411.232	0.0	436840	DISTRACT_END	n/a	n/a	n/a	n/a	-999	2	[0, 0, 0]	n/a	catFR1	2	R1403N
411.232	2.166	436838	STOP	n/a	n/a	n/a	n/a	-999	2	[-999, -999, -999]	n/a	catFR1	2	R1403N
413.398	0.789	439012	REC_START	n/a	n/a	n/a	n/a	-999	2	[0, 0, 0]	n/a	catFR1	2	R1403N
414.187	0.402	439793	REC_WORD	0.789	n/a	HEN	FarmAnimals	5	2	[0, 0, 0]	n/a	catFR1	2	R1403N
414.589	0.594	440195	REC_WORD	1.191	n/a	CHICKEN	FarmAnimals	6	2	[0, 0, 0]	n/a	catFR1	2	R1403N
415.183	0.856	440789	REC_WORD	1.785	n/a	BIRCH	Trees	12	2	[0, 0, 0]	n/a	catFR1	2	R1403N
416.039	1.277	441645	REC_WORD	2.641	n/a	ROOSTER	FarmAnimals	9	2	[0, 0, 0]	n/a	catFR1	2	R1403N
417.316	3.23	442922	REC_WORD	3.918	n/a	TURKEY	FarmAnimals	10	2	[0, 0, 0]	n/a	catFR1	2	R1403N
420.546	23.083	446152	REC_WORD_VV	7.148	n/a	<>	n/a	-999	2	[0, 0, 0]	n/a	catFR1	2	R1403N
443.629	4.036	469233	REC_END	n/a	n/a	n/a	n/a	-999	2	[0, 0, 0]	n/a	catFR1	2	R1403N
447.665	10.35	473273	COUNTDOWN_START	n/a	n/a	n/a	n/a	-999	3	[0, 0, 0]	n/a	catFR1	2	R1403N
458.015	0.0	483626	COUNTDOWN_END	n/a	n/a	n/a	n/a	-999	3	[0, 0, 0]	n/a	catFR1	2	R1403N
458.015	2.066	483626	ENCODING_START	n/a	n/a	n/a	n/a	-999	3	[0, 0, 0]	n/a	catFR1	2	R1403N
460.081	1.617	485682	WORD	n/a	wordpools/wordpool_categorized_EN.txt	WIND	Weather	1	3	[0, 0, 0]	n/a	catFR1	2	R1403N
461.698	0.783	487305	WORD_OFF	n/a	n/a	WIND	Weather	1	3	[0, 0, 0]	n/a	catFR1	2	R1403N
462.481	1.6	488081	WORD	n/a	wordpools/wordpool_categorized_EN.txt	RAIN	Weather	2	3	[0, 0, 0]	n/a	catFR1	2	R1403N
464.081	0.85	489686	WORD_OFF	n/a	n/a	RAIN	Weather	2	3	[0, 0, 0]	n/a	catFR1	2	R1403N
464.931	1.6	490534	WORD	n/a	wordpools/wordpool_categorized_EN.txt	BUTTERFLY	Insects	3	3	[0, 0, 0]	n/a	catFR1	2	R1403N
466.531	0.934	492139	WORD_OFF	n/a	n/a	BUTTERFLY	Insects	3	3	[0, 0, 0]	n/a	catFR1	2	R1403N
467.465	1.616	493077	WORD	n/a	wordpools/wordpool_categorized_EN.txt	BEETLE	Insects	4	3	[0, 0, 0]	n/a	catFR1	2	R1403N
469.081	0.85	494682	WORD_OFF	n/a	n/a	BEETLE	Insects	4	3	[0, 0, 0]	n/a	catFR1	2	R1403N
469.931	1.6	495530	WORD	n/a	wordpools/wordpool_categorized_EN.txt	CABINET	Furniture	5	3	[0, 0, 0]	n/a	catFR1	2	R1403N
471.531	0.867	497135	WORD_OFF	n/a	n/a	CABINET	Furniture	5	3	[0, 0, 0]	n/a	catFR1	2	R1403N
472.398	1.616	498001	WORD	n/a	wordpools/wordpool_categorized_EN.txt	CHAIR	Furniture	6	3	[0, 0, 0]	n/a	catFR1	2	R1403N
474.014	1.001	499624	WORD_OFF	n/a	n/a	CHAIR	Furniture	6	3	[0, 0, 0]	n/a	catFR1	2	R1403N
475.015	1.599	500616	WORD	n/a	wordpools/wordpool_categorized_EN.txt	MOTH	Insects	7	3	[0, 0, 0]	n/a	catFR1	2	R1403N
476.614	0.917	502221	WORD_OFF	n/a	n/a	MOTH	Insects	7	3	[0, 0, 0]	n/a	catFR1	2	R1403N
477.531	1.617	503141	WORD	n/a	wordpools/wordpool_categorized_EN.txt	CRICKET	Insects	8	3	[0, 0, 0]	n/a	catFR1	2	R1403N
479.148	0.783	504747	WORD_OFF	n/a	n/a	CRICKET	Insects	8	3	[0, 0, 0]	n/a	catFR1	2	R1403N
479.931	1.6	505540	WORD	n/a	wordpools/wordpool_categorized_EN.txt	RECLINER	Furniture	9	3	[0, 0, 0]	n/a	catFR1	2	R1403N
481.531	0.95	507127	WORD_OFF	n/a	n/a	RECLINER	Furniture	9	3	[0, 0, 0]	n/a	catFR1	2	R1403N
482.481	1.616	508083	WORD	n/a	wordpools/wordpool_categorized_EN.txt	TABLE	Furniture	10	3	[0, 0, 0]	n/a	catFR1	2	R1403N
484.097	0.783	509707	WORD_OFF	n/a	n/a	TABLE	Furniture	10	3	[0, 0, 0]	n/a	catFR1	2	R1403N
484.88	1.601	510482	WORD	n/a	wordpools/wordpool_categorized_EN.txt	FOG	Weather	11	3	[0, 0, 0]	n/a	catFR1	2	R1403N
486.481	0.983	512087	WORD_OFF	n/a	n/a	FOG	Weather	11	3	[0, 0, 0]	n/a	catFR1	2	R1403N
487.464	1.616	513061	WORD	n/a	wordpools/wordpool_categorized_EN.txt	THUNDERSTORM	Weather	12	3	[0, 0, 0]	n/a	catFR1	2	R1403N
489.08	0.001	514685	WORD_OFF	n/a	n/a	THUNDERSTORM	Weather	12	3	[0, 0, 0]	n/a	catFR1	2	R1403N
489.081	0.0	514685	DISTRACT_START	n/a	n/a	n/a	n/a	-999	3	[0, 0, 0]	n/a	catFR1	2	R1403N
489.081	0.0	514685	ENCODING_END	n/a	n/a	n/a	n/a	-999	3	[0, 0, 0]	n/a	catFR1	2	R1403N
489.081	0.0	514685	START	n/a	n/a	n/a	n/a	-999	3	[-999, -999, -999]	n/a	catFR1	2	R1403N
489.081	6.185	514685	PROB	6.168	n/a	n/a	n/a	-999	3	[6, 8, 3]	17.0	catFR1	2	R1403N
495.266	5.099	520870	PROB	5.082	n/a	n/a	n/a	-999	3	[7, 8, 1]	16.0	catFR1	2	R1403N
500.365	4.0	525969	PROB	3.982	n/a	n/a	n/a	-999	3	[7, 2, 4]	13.0	catFR1	2	R1403N
504.365	3.317	529968	PROB	3.299	n/a	n/a	n/a	-999	3	[7, 3, 3]	13.0	catFR1	2	R1403N
507.682	4.099	533285	PROB	4.083	n/a	n/a	n/a	-999	3	[1, 1, 7]	9.0	catFR1	2	R1403N
511.781	0.0	537392	DISTRACT_END	n/a	n/a	n/a	n/a	-999	3	[0, 0, 0]	n/a	catFR1	2	R1403N
511.781	2.183	537384	STOP	n/a	n/a	n/a	n/a	-999	3	[-999, -999, -999]	n/a	catFR1	2	R1403N
513.964	0.932	539565	REC_START	n/a	n/a	n/a	n/a	-999	3	[0, 0, 0]	n/a	catFR1	2	R1403N
514.896	0.428	540499	REC_WORD	0.932	n/a	WIND	Weather	1	3	[0, 0, 0]	n/a	catFR1	2	R1403N
515.324	0.415	540927	REC_WORD	1.36	n/a	RAIN	Weather	2	3	[0, 0, 0]	n/a	catFR1	2	R1403N
515.739	0.535	541342	REC_WORD	1.775	n/a	MOTH	Insects	7	3	[0, 0, 0]	n/a	catFR1	2	R1403N
516.274	0.741	541877	REC_WORD	2.31	n/a	BUTTERFLY	Insects	3	3	[0, 0, 0]	n/a	catFR1	2	R1403N
517.015	3.714	542618	REC_WORD	3.051	n/a	THUNDERSTORM	Weather	12	3	[0, 0, 0]	n/a	catFR1	2	R1403N
520.729	23.455	546332	REC_WORD_VV	6.765	n/a	<>	n/a	-999	3	[0, 0, 0]	n/a	catFR1	2	R1403N
544.184	2.797	569786	REC_END	n/a	n/a	n/a	n/a	-999	3	[0, 0, 0]	n/a	catFR1	2	R1403N
546.981	10.351	572581	COUNTDOWN_START	n/a	n/a	n/a	n/a	-999	4	[0, 0, 0]	n/a	catFR1	2	R1403N
557.332	0.0	582934	COUNTDOWN_END	n/a	n/a	n/a	n/a	-999	4	[0, 0, 0]	n/a	catFR1	2	R1403N
557.332	1.9	582934	ENCODING_START	n/a	n/a	n/a	n/a	-999	4	[0, 0, 0]	n/a	catFR1	2	R1403N
559.232	1.6	584828	WORD	n/a	wordpools/wordpool_categorized_EN.txt	HAND	BodyParts	1	4	[0, 0, 0]	n/a	catFR1	2	R1403N
560.832	0.949	586433	WORD_OFF	n/a	n/a	HAND	BodyParts	1	4	[0, 0, 0]	n/a	catFR1	2	R1403N
561.781	1.601	587389	WORD	n/a	wordpools/wordpool_categorized_EN.txt	HEAD	BodyParts	2	4	[0, 0, 0]	n/a	catFR1	2	R1403N
563.382	0.999	588976	WORD_OFF	n/a	n/a	HEAD	BodyParts	2	4	[0, 0, 0]	n/a	catFR1	2	R1403N
564.381	1.601	589986	WORD	n/a	wordpools/wordpool_categorized_EN.txt	SAW	Tools	3	4	[0, 0, 0]	n/a	catFR1	2	R1403N
565.982	0.8	591592	WORD_OFF	n/a	n/a	SAW	Tools	3	4	[0, 0, 0]	n/a	catFR1	2	R1403N
566.782	1.6	592385	WORD	n/a	wordpools/wordpool_categorized_EN.txt	LEVEL	Tools	4	4	[0, 0, 0]	n/a	catFR1	2	R1403N
568.382	0.933	593990	WORD_OFF	n/a	n/a	LEVEL	Tools	4	4	[0, 0, 0]	n/a	catFR1	2	R1403N
569.315	1.616	594910	WORD	n/a	wordpools/wordpool_categorized_EN.txt	COAT	Clothing	5	4	[0, 0, 0]	n/a	catFR1	2	R1403N
570.931	0.867	596534	WORD_OFF	n/a	n/a	COAT	Clothing	5	4	[0, 0, 0]	n/a	catFR1	2	R1403N
571.798	1.6	597399	WORD	n/a	wordpools/wordpool_categorized_EN.txt	UNDERWEAR	Clothing	6	4	[0, 0, 0]	n/a	catFR1	2	R1403N
573.398	0.784	599005	WORD_OFF	n/a	n/a	UNDERWEAR	Clothing	6	4	[0, 0, 0]	n/a	catFR1	2	R1403N
574.182	1.616	599780	WORD	n/a	wordpools/wordpool_categorized_EN.txt	WRENCH	Tools	7	4	[0, 0, 0]	n/a	catFR1	2	R1403N
575.798	0.783	601403	WORD_OFF	n/a	n/a	WRENCH	Tools	7	4	[0, 0, 0]	n/a	catFR1	2	R1403N
576.581	1.6	602179	WORD	n/a	wordpools/wordpool_categorized_EN.txt	SANDER	Tools	8	4	[0, 0, 0]	n/a	catFR1	2	R1403N
578.181	0.834	603784	WORD_OFF	n/a	n/a	SANDER	Tools	8	4	[0, 0, 0]	n/a	catFR1	2	R1403N
579.015	1.616	604614	WORD	n/a	wordpools/wordpool_categorized_EN.txt	LEG	BodyParts	9	4	[0, 0, 0]	n/a	catFR1	2	R1403N
580.631	0.867	606237	WORD_OFF	n/a	n/a	LEG	BodyParts	9	4	[0, 0, 0]	n/a	catFR1	2	R1403N
581.498	1.6	607103	WORD	n/a	wordpools/wordpool_categorized_EN.txt	NOSE	BodyParts	10	4	[0, 0, 0]	n/a	catFR1	2	R1403N
583.098	0.817	608690	WORD_OFF	n/a	n/a	NOSE	BodyParts	10	4	[0, 0, 0]	n/a	catFR1	2	R1403N
583.915	1.6	609520	WORD	n/a	wordpools/wordpool_categorized_EN.txt	JEANS	Clothing	11	4	[0, 0, 0]	n/a	catFR1	2	R1403N
585.515	0.8	611125	WORD_OFF	n/a	n/a	JEANS	Clothing	11	4	[0, 0, 0]	n/a	catFR1	2	R1403N
586.315	1.6	611918	WORD	n/a	wordpools/wordpool_categorized_EN.txt	SOCKS	Clothing	12	4	[0, 0, 0]	n/a	catFR1	2	R1403N
587.915	0.001	613524	WORD_OFF	n/a	n/a	SOCKS	Clothing	12	4	[0, 0, 0]	n/a	catFR1	2	R1403N
587.916	0.001	613517	PROB	3.215	n/a	n/a	n/a	-999	4	[6, 7, 4]	17.0	catFR1	2	R1403N
587.917	0.0	613524	DISTRACT_START	n/a	n/a	n/a	n/a	-999	4	[0, 0, 0]	n/a	catFR1	2	R1403N
587.917	0.0	613524	ENCODING_END	n/a	n/a	n/a	n/a	-999	4	[0, 0, 0]	n/a	catFR1	2	R1403N
587.917	3.232	613518	START	n/a	n/a	n/a	n/a	-999	4	[-999, -999, -999]	n/a	catFR1	2	R1403N
591.149	3.749	616750	PROB	3.733	n/a	n/a	n/a	-999	4	[4, 2, 1]	7.0	catFR1	2	R1403N
594.898	4.2	620498	PROB	4.184	n/a	n/a	n/a	-999	4	[6, 3, 6]	15.0	catFR1	2	R1403N
599.098	3.367	624698	PROB	3.35	n/a	n/a	n/a	-999	4	[8, 1, 2]	11.0	catFR1	2	R1403N
602.465	4.233	628065	PROB	4.216	n/a	n/a	n/a	-999	4	[4, 8, 4]	16.0	catFR1	2	R1403N
606.698	5.3	632298	PROB	5.284	n/a	n/a	n/a	-999	4	[5, 3, 1]	9.0	catFR1	2	R1403N
611.998	0.0	637602	DISTRACT_END	n/a	n/a	n/a	n/a	-999	4	[0, 0, 0]	n/a	catFR1	2	R1403N
611.998	2.35	637598	STOP	n/a	n/a	n/a	n/a	-999	4	[-999, -999, -999]	n/a	catFR1	2	R1403N
614.348	1.637	639955	REC_START	n/a	n/a	n/a	n/a	-999	4	[0, 0, 0]	n/a	catFR1	2	R1403N
615.985	0.318	641585	REC_WORD	1.637	n/a	HAND	BodyParts	1	4	[0, 0, 0]	n/a	catFR1	2	R1403N
616.303	0.398	641903	REC_WORD	1.955	n/a	HEAD	BodyParts	2	4	[0, 0, 0]	n/a	catFR1	2	R1403N
616.701	3.674	642301	REC_WORD	2.353	n/a	SAW	Tools	3	4	[0, 0, 0]	n/a	catFR1	2	R1403N
620.375	2.013	645975	REC_WORD	6.027	n/a	UNDERWEAR	Clothing	6	4	[0, 0, 0]	n/a	catFR1	2	R1403N
622.388	3.091	647988	REC_WORD	8.04	n/a	LEVEL	Tools	4	4	[0, 0, 0]	n/a	catFR1	2	R1403N
625.479	19.09	651078	REC_WORD	11.131	n/a	SANDER	Tools	8	4	[0, 0, 0]	n/a	catFR1	2	R1403N
644.569	4.847	670176	REC_END	n/a	n/a	n/a	n/a	-999	4	[0, 0, 0]	n/a	catFR1	2	R1403N
649.416	10.349	675010	COUNTDOWN_START	n/a	n/a	n/a	n/a	-999	5	[0, 0, 0]	n/a	catFR1	2	R1403N
659.765	0.0	685362	COUNTDOWN_END	n/a	n/a	n/a	n/a	-999	5	[0, 0, 0]	n/a	catFR1	2	R1403N
659.765	2.0	685362	ENCODING_START	n/a	n/a	n/a	n/a	-999	5	[0, 0, 0]	n/a	catFR1	2	R1403N
661.765	1.616	687365	WORD	n/a	wordpools/wordpool_categorized_EN.txt	LADYBUG	Insects	1	5	[0, 0, 0]	n/a	catFR1	2	R1403N
663.381	0.801	688988	WORD_OFF	n/a	n/a	LADYBUG	Insects	1	5	[0, 0, 0]	n/a	catFR1	2	R1403N
664.182	1.615	689781	WORD	n/a	wordpools/wordpool_categorized_EN.txt	SPIDER	Insects	2	5	[0, 0, 0]	n/a	catFR1	2	R1403N
665.797	0.768	691387	WORD_OFF	n/a	n/a	SPIDER	Insects	2	5	[0, 0, 0]	n/a	catFR1	2	R1403N
666.565	1.617	692162	WORD	n/a	wordpools/wordpool_categorized_EN.txt	KNIFE	KitchenTools	3	5	[0, 0, 0]	n/a	catFR1	2	R1403N
668.182	0.783	693785	WORD_OFF	n/a	n/a	KNIFE	KitchenTools	3	5	[0, 0, 0]	n/a	catFR1	2	R1403N
668.965	1.6	694561	WORD	n/a	wordpools/wordpool_categorized_EN.txt	TONGS	KitchenTools	4	5	[0, 0, 0]	n/a	catFR1	2	R1403N
670.565	0.783	696166	WORD_OFF	n/a	n/a	TONGS	KitchenTools	4	5	[0, 0, 0]	n/a	catFR1	2	R1403N
671.348	1.617	696942	WORD	n/a	wordpools/wordpool_categorized_EN.txt	WHALE	OceanAnimals	5	5	[0, 0, 0]	n/a	catFR1	2	R1403N
672.965	0.783	698565	WORD_OFF	n/a	n/a	WHALE	OceanAnimals	5	5	[0, 0, 0]	n/a	catFR1	2	R1403N
673.748	1.6	699341	WORD	n/a	wordpools/wordpool_categorized_EN.txt	LOBSTER	OceanAnimals	6	5	[0, 0, 0]	n/a	catFR1	2	R1403N
675.348	0.917	700946	WORD_OFF	n/a	n/a	LOBSTER	OceanAnimals	6	5	[0, 0, 0]	n/a	catFR1	2	R1403N
676.265	1.6	701866	WORD	n/a	wordpools/wordpool_categorized_EN.txt	CORKSCREW	KitchenTools	7	5	[0, 0, 0]	n/a	catFR1	2	R1403N
677.865	0.916	703471	WORD_OFF	n/a	n/a	CORKSCREW	KitchenTools	7	5	[0, 0, 0]	n/a	catFR1	2	R1403N
678.781	1.6	704373	WORD	n/a	wordpools/wordpool_categorized_EN.txt	WHISK	KitchenTools	8	5	[0, 0, 0]	n/a	catFR1	2	R1403N
680.381	0.901	705978	WORD_OFF	n/a	n/a	WHISK	KitchenTools	8	5	[0, 0, 0]	n/a	catFR1	2	R1403N
681.282	1.6	706880	WORD	n/a	wordpools/wordpool_categorized_EN.txt	CRAB	OceanAnimals	9	5	[0, 0, 0]	n/a	catFR1	2	R1403N
682.882	0.933	708485	WORD_OFF	n/a	n/a	CRAB	OceanAnimals	9	5	[0, 0, 0]	n/a	catFR1	2	R1403N
683.815	1.601	709405	WORD	n/a	wordpools/wordpool_categorized_EN.txt	JELLYFISH	OceanAnimals	10	5	[0, 0, 0]	n/a	catFR1	2	R1403N
685.416	0.999	711010	WORD_OFF	n/a	n/a	JELLYFISH	OceanAnimals	10	5	[0, 0, 0]	n/a	catFR1	2	R1403N
686.415	1.6	712020	WORD	n/a	wordpools/wordpool_categorized_EN.txt	BEE	Insects	11	5	[0, 0, 0]	n/a	catFR1	2	R1403N
688.015	0.95	713607	WORD_OFF	n/a	n/a	BEE	Insects	11	5	[0, 0, 0]	n/a	catFR1	2	R1403N
688.965	1.6	714563	WORD	n/a	wordpools/wordpool_categorized_EN.txt	MOSQUITO	Insects	12	5	[0, 0, 0]	n/a	catFR1	2	R1403N
690.565	0.001	716169	WORD_OFF	n/a	n/a	MOSQUITO	Insects	12	5	[0, 0, 0]	n/a	catFR1	2	R1403N
690.566	0.001	716163	PROB	6.749	n/a	n/a	n/a	-999	5	[6, 1, 7]	14.0	catFR1	2	R1403N
690.567	0.0	716169	DISTRACT_START	n/a	n/a	n/a	n/a	-999	5	[0, 0, 0]	n/a	catFR1	2	R1403N
690.567	0.0	716169	ENCODING_END	n/a	n/a	n/a	n/a	-999	5	[0, 0, 0]	n/a	catFR1	2	R1403N
690.567	6.765	716164	START	n/a	n/a	n/a	n/a	-999	5	[-999, -999, -999]	n/a	catFR1	2	R1403N
697.332	6.651	722929	PROB	6.633	n/a	n/a	n/a	-999	5	[3, 2, 1]	6.0	catFR1	2	R1403N
703.983	5.566	729580	PROB	5.549	n/a	n/a	n/a	-999	5	[7, 1, 5]	13.0	catFR1	2	R1403N
709.549	16.049	735146	PROB	16.033	n/a	n/a	n/a	-999	5	[4, 7, 8]	19.0	catFR1	2	R1403N
725.598	0.0	751195	DISTRACT_END	n/a	n/a	n/a	n/a	-999	5	[0, 0, 0]	n/a	catFR1	2	R1403N
725.598	2.05	751194	STOP	n/a	n/a	n/a	n/a	-999	5	[-999, -999, -999]	n/a	catFR1	2	R1403N
727.648	1.626	753241	REC_START	n/a	n/a	n/a	n/a	-999	5	[0, 0, 0]	n/a	catFR1	2	R1403N
729.274	0.733	754870	REC_WORD	1.626	n/a	LOBSTER	OceanAnimals	6	5	[0, 0, 0]	n/a	catFR1	2	R1403N
730.007	0.76	755603	REC_WORD	2.359	n/a	JELLYFISH	OceanAnimals	10	5	[0, 0, 0]	n/a	catFR1	2	R1403N
730.767	1.627	756363	REC_WORD	3.119	n/a	CRAB	OceanAnimals	9	5	[0, 0, 0]	n/a	catFR1	2	R1403N
732.394	6.266	757990	REC_WORD	4.746	n/a	CORKSCREW	KitchenTools	7	5	[0, 0, 0]	n/a	catFR1	2	R1403N
738.66	5.875	764256	REC_WORD_VV	11.012	n/a	<>	n/a	-999	5	[0, 0, 0]	n/a	catFR1	2	R1403N
744.535	13.344	770131	REC_WORD	16.887	n/a	WHALE	OceanAnimals	5	5	[0, 0, 0]	n/a	catFR1	2	R1403N
757.879	5.336	783480	REC_END	n/a	n/a	n/a	n/a	-999	5	[0, 0, 0]	n/a	catFR1	2	R1403N
763.215	10.35	788819	COUNTDOWN_START	n/a	n/a	n/a	n/a	-999	6	[0, 0, 0]	n/a	catFR1	2	R1403N
773.565	0.0	799154	COUNTDOWN_END	n/a	n/a	n/a	n/a	-999	6	[0, 0, 0]	n/a	catFR1	2	R1403N
773.565	1.899	799154	ENCODING_START	n/a	n/a	n/a	n/a	-999	6	[0, 0, 0]	n/a	catFR1	2	R1403N
775.464	1.6	801066	WORD	n/a	wordpools/wordpool_categorized_EN.txt	MARBLES	Toys	1	6	[0, 0, 0]	n/a	catFR1	2	R1403N
777.064	0.784	802653	WORD_OFF	n/a	n/a	MARBLES	Toys	1	6	[0, 0, 0]	n/a	catFR1	2	R1403N
777.848	1.6	803446	WORD	n/a	wordpools/wordpool_categorized_EN.txt	PUZZLE	Toys	2	6	[0, 0, 0]	n/a	catFR1	2	R1403N
779.448	0.95	805052	WORD_OFF	n/a	n/a	PUZZLE	Toys	2	6	[0, 0, 0]	n/a	catFR1	2	R1403N
780.398	1.6	805990	WORD	n/a	wordpools/wordpool_categorized_EN.txt	DRESSER	Furniture	3	6	[0, 0, 0]	n/a	catFR1	2	R1403N
781.998	0.816	807595	WORD_OFF	n/a	n/a	DRESSER	Furniture	3	6	[0, 0, 0]	n/a	catFR1	2	R1403N
782.814	1.617	808406	WORD	n/a	wordpools/wordpool_categorized_EN.txt	COUCH	Furniture	4	6	[0, 0, 0]	n/a	catFR1	2	R1403N
784.431	0.95	810030	WORD_OFF	n/a	n/a	COUCH	Furniture	4	6	[0, 0, 0]	n/a	catFR1	2	R1403N
785.381	1.617	810968	WORD	n/a	wordpools/wordpool_categorized_EN.txt	ROBIN	Birds	5	6	[0, 0, 0]	n/a	catFR1	2	R1403N
786.998	0.966	812591	WORD_OFF	n/a	n/a	ROBIN	Birds	5	6	[0, 0, 0]	n/a	catFR1	2	R1403N
787.964	1.6	813565	WORD	n/a	wordpools/wordpool_categorized_EN.txt	SPARROW	Birds	6	6	[0, 0, 0]	n/a	catFR1	2	R1403N
789.564	0.817	815152	WORD_OFF	n/a	n/a	SPARROW	Birds	6	6	[0, 0, 0]	n/a	catFR1	2	R1403N
790.381	1.601	815982	WORD	n/a	wordpools/wordpool_categorized_EN.txt	BLOCKS	Toys	7	6	[0, 0, 0]	n/a	catFR1	2	R1403N
791.982	0.85	817569	WORD_OFF	n/a	n/a	BLOCKS	Toys	7	6	[0, 0, 0]	n/a	catFR1	2	R1403N
792.832	1.616	818435	WORD	n/a	wordpools/wordpool_categorized_EN.txt	BASEBALL	Toys	8	6	[0, 0, 0]	n/a	catFR1	2	R1403N
794.448	1.0	820040	WORD_OFF	n/a	n/a	BASEBALL	Toys	8	6	[0, 0, 0]	n/a	catFR1	2	R1403N
795.448	1.617	821050	WORD	n/a	wordpools/wordpool_categorized_EN.txt	BOOKCASE	Furniture	9	6	[0, 0, 0]	n/a	catFR1	2	R1403N
797.065	0.9	822655	WORD_OFF	n/a	n/a	BOOKCASE	Furniture	9	6	[0, 0, 0]	n/a	catFR1	2	R1403N
797.965	1.616	823557	WORD	n/a	wordpools/wordpool_categorized_EN.txt	SOFA	Furniture	10	6	[0, 0, 0]	n/a	catFR1	2	R1403N
799.581	0.967	825180	WORD_OFF	n/a	n/a	SOFA	Furniture	10	6	[0, 0, 0]	n/a	catFR1	2	R1403N
800.548	1.6	826136	WORD	n/a	wordpools/wordpool_categorized_EN.txt	GOOSE	Birds	11	6	[0, 0, 0]	n/a	catFR1	2	R1403N
802.148	0.983	827741	WORD_OFF	n/a	n/a	GOOSE	Birds	11	6	[0, 0, 0]	n/a	catFR1	2	R1403N
803.131	1.601	828733	WORD	n/a	wordpools/wordpool_categorized_EN.txt	FINCH	Birds	12	6	[0, 0, 0]	n/a	catFR1	2	R1403N
804.732	0.0	830321	WORD_OFF	n/a	n/a	FINCH	Birds	12	6	[0, 0, 0]	n/a	catFR1	2	R1403N
804.732	0.001	830326	PROB	5.916	n/a	n/a	n/a	-999	6	[3, 3, 7]	13.0	catFR1	2	R1403N
804.733	0.001	830321	ENCODING_END	n/a	n/a	n/a	n/a	-999	6	[0, 0, 0]	n/a	catFR1	2	R1403N
804.734	0.0	830339	DISTRACT_START	n/a	n/a	n/a	n/a	-999	6	[0, 0, 0]	n/a	catFR1	2	R1403N
804.734	5.931	830328	START	n/a	n/a	n/a	n/a	-999	6	[-999, -999, -999]	n/a	catFR1	2	R1403N
810.665	3.868	836258	PROB	3.849	n/a	n/a	n/a	-999	6	[7, 4, 7]	18.0	catFR1	2	R1403N
814.533	10.714	840126	PROB	10.699	n/a	n/a	n/a	-999	6	[8, 8, 8]	21.0	catFR1	2	R1403N
825.247	0.0	850846	DISTRACT_END	n/a	n/a	n/a	n/a	-999	6	[0, 0, 0]	n/a	catFR1	2	R1403N
825.247	2.168	850840	STOP	n/a	n/a	n/a	n/a	-999	6	[-999, -999, -999]	n/a	catFR1	2	R1403N
827.415	2.043	853000	REC_START	n/a	n/a	n/a	n/a	-999	6	[0, 0, 0]	n/a	catFR1	2	R1403N
829.458	27.906	855051	REC_WORD_VV	2.043	n/a	<>	n/a	-999	6	[0, 0, 0]	n/a	catFR1	2	R1403N
857.364	0.259	882956	REC_WORD_VV	29.949	n/a	<>	n/a	-999	6	[0, 0, 0]	n/a	catFR1	2	R1403N
857.623	8.292	883221	REC_END	n/a	n/a	n/a	n/a	-999	6	[0, 0, 0]	n/a	catFR1	2	R1403N
865.915	10.35	891500	COUNTDOWN_START	n/a	n/a	n/a	n/a	-999	7	[0, 0, 0]	n/a	catFR1	2	R1403N
876.265	0.001	901853	COUNTDOWN_END	n/a	n/a	n/a	n/a	-999	7	[0, 0, 0]	n/a	catFR1	2	R1403N
876.266	1.915	901853	ENCODING_START	n/a	n/a	n/a	n/a	-999	7	[0, 0, 0]	n/a	catFR1	2	R1403N
878.181	1.618	903765	WORD	n/a	wordpools/wordpool_categorized_EN.txt	SHORTS	Clothing	1	7	[0, 0, 0]	n/a	catFR1	2	R1403N
879.799	0.816	905388	WORD_OFF	n/a	n/a	SHORTS	Clothing	1	7	[0, 0, 0]	n/a	catFR1	2	R1403N
880.615	1.616	906199	WORD	n/a	wordpools/wordpool_categorized_EN.txt	DRESS	Clothing	2	7	[0, 0, 0]	n/a	catFR1	2	R1403N
882.231	0.933	907823	WORD_OFF	n/a	n/a	DRESS	Clothing	2	7	[0, 0, 0]	n/a	catFR1	2	R1403N
883.164	1.617	908761	WORD	n/a	wordpools/wordpool_categorized_EN.txt	BASKETBALL	Toys	3	7	[0, 0, 0]	n/a	catFR1	2	R1403N
884.781	0.95	910366	WORD_OFF	n/a	n/a	BASKETBALL	Toys	3	7	[0, 0, 0]	n/a	catFR1	2	R1403N
885.731	1.6	911322	WORD	n/a	wordpools/wordpool_categorized_EN.txt	FRISBEE	Toys	4	7	[0, 0, 0]	n/a	catFR1	2	R1403N
887.331	0.983	912927	WORD_OFF	n/a	n/a	FRISBEE	Toys	4	7	[0, 0, 0]	n/a	catFR1	2	R1403N
888.314	1.617	913901	WORD	n/a	wordpools/wordpool_categorized_EN.txt	VALLEY	Landscapes	5	7	[0, 0, 0]	n/a	catFR1	2	R1403N
889.931	0.867	915524	WORD_OFF	n/a	n/a	VALLEY	Landscapes	5	7	[0, 0, 0]	n/a	catFR1	2	R1403N
890.798	1.616	916390	WORD	n/a	wordpools/wordpool_categorized_EN.txt	HILLS	Landscapes	6	7	[0, 0, 0]	n/a	catFR1	2	R1403N
892.414	0.867	918013	WORD_OFF	n/a	n/a	HILLS	Landscapes	6	7	[0, 0, 0]	n/a	catFR1	2	R1403N
893.281	1.616	918879	WORD	n/a	wordpools/wordpool_categorized_EN.txt	BALL	Toys	7	7	[0, 0, 0]	n/a	catFR1	2	R1403N
894.897	0.95	920484	WORD_OFF	n/a	n/a	BALL	Toys	7	7	[0, 0, 0]	n/a	catFR1	2	R1403N
895.847	1.601	921440	WORD	n/a	wordpools/wordpool_categorized_EN.txt	BARBIE	Toys	8	7	[0, 0, 0]	n/a	catFR1	2	R1403N
897.448	0.783	923045	WORD_OFF	n/a	n/a	BARBIE	Toys	8	7	[0, 0, 0]	n/a	catFR1	2	R1403N
898.231	1.6	923821	WORD	n/a	wordpools/wordpool_categorized_EN.txt	SKIRT	Clothing	9	7	[0, 0, 0]	n/a	catFR1	2	R1403N
899.831	0.968	925426	WORD_OFF	n/a	n/a	SKIRT	Clothing	9	7	[0, 0, 0]	n/a	catFR1	2	R1403N
900.799	1.616	926382	WORD	n/a	wordpools/wordpool_categorized_EN.txt	SHOES	Clothing	10	7	[0, 0, 0]	n/a	catFR1	2	R1403N
902.415	0.851	928005	WORD_OFF	n/a	n/a	SHOES	Clothing	10	7	[0, 0, 0]	n/a	catFR1	2	R1403N
903.266	1.615	928853	WORD	n/a	wordpools/wordpool_categorized_EN.txt	MOUNTAIN	Landscapes	11	7	[0, 0, 0]	n/a	catFR1	2	R1403N
904.881	0.985	930476	WORD_OFF	n/a	n/a	MOUNTAIN	Landscapes	11	7	[0, 0, 0]	n/a	catFR1	2	R1403N
905.866	1.6	931450	WORD	n/a	wordpools/wordpool_categorized_EN.txt	WOODS	Landscapes	12	7	[0, 0, 0]	n/a	catFR1	2	R1403N
907.466	0.0	933056	WORD_OFF	n/a	n/a	WOODS	Landscapes	12	7	[0, 0, 0]	n/a	catFR1	2	R1403N
907.466	0.001	933056	PROB	3.648	n/a	n/a	n/a	-999	7	[6, 3, 4]	13.0	catFR1	2	R1403N
907.467	0.001	933056	ENCODING_END	n/a	n/a	n/a	n/a	-999	7	[0, 0, 0]	n/a	catFR1	2	R1403N
907.468	0.0	933056	DISTRACT_START	n/a	n/a	n/a	n/a	-999	7	[0, 0, 0]	n/a	catFR1	2	R1403N
907.468	3.664	933058	START	n/a	n/a	n/a	n/a	-999	7	[-999, -999, -999]	n/a	catFR1	2	R1403N
911.132	6.167	936722	PROB	6.149	n/a	n/a	n/a	-999	7	[3, 5, 2]	10.0	catFR1	2	R1403N
917.299	4.183	942889	PROB	4.166	n/a	n/a	n/a	-999	7	[7, 4, 1]	12.0	catFR1	2	R1403N
921.482	3.617	947072	PROB	3.599	n/a	n/a	n/a	-999	7	[2, 2, 6]	10.0	catFR1	2	R1403N
925.099	6.633	950689	PROB	6.615	n/a	n/a	n/a	-999	7	[7, 5, 8]	20.0	catFR1	2	R1403N
931.732	0.0	957314	DISTRACT_END	n/a	n/a	n/a	n/a	-999	7	[0, 0, 0]	n/a	catFR1	2	R1403N
931.732	2.166	957321	STOP	n/a	n/a	n/a	n/a	-999	7	[-999, -999, -999]	n/a	catFR1	2	R1403N
933.898	1.707	959487	REC_START	n/a	n/a	n/a	n/a	-999	7	[0, 0, 0]	n/a	catFR1	2	R1403N
935.605	1.251	961194	REC_WORD_VV	1.707	n/a	<>	n/a	-999	7	[0, 0, 0]	n/a	catFR1	2	R1403N
936.856	0.617	962445	REC_WORD	2.958	n/a	HILLS	Landscapes	6	7	[0, 0, 0]	n/a	catFR1	2	R1403N
937.473	0.566	963062	REC_WORD	3.575	n/a	BASKETBALL	Toys	3	7	[0, 0, 0]	n/a	catFR1	2	R1403N
938.039	0.83	963628	REC_WORD	4.141	n/a	VALLEY	Landscapes	5	7	[0, 0, 0]	n/a	catFR1	2	R1403N
938.869	2.401	964458	REC_WORD	4.971	n/a	FRISBEE	Toys	4	7	[0, 0, 0]	n/a	catFR1	2	R1403N
941.27	1.086	966859	REC_WORD	7.372	n/a	SHORTS	Clothing	1	7	[0, 0, 0]	n/a	catFR1	2	R1403N
942.356	3.906	967945	REC_WORD	8.458	n/a	SKIRT	Clothing	9	7	[0, 0, 0]	n/a	catFR1	2	R1403N
946.262	17.866	971851	REC_WORD	12.364	n/a	DRESSER	Furniture	-999	7	[0, 0, 0]	n/a	catFR1	2	R1403N
964.128	2.02	989726	REC_END	n/a	n/a	n/a	n/a	-999	7	[0, 0, 0]	n/a	catFR1	2	R1403N
966.148	10.351	991746	COUNTDOWN_START	n/a	n/a	n/a	n/a	-999	8	[0, 0, 0]	n/a	catFR1	2	R1403N
976.499	0.0	1002081	COUNTDOWN_END	n/a	n/a	n/a	n/a	-999	8	[0, 0, 0]	n/a	catFR1	2	R1403N
976.499	1.949	1002081	ENCODING_START	n/a	n/a	n/a	n/a	-999	8	[0, 0, 0]	n/a	catFR1	2	R1403N
978.448	1.6	1004029	WORD	n/a	wordpools/wordpool_categorized_EN.txt	OYSTER	OceanAnimals	1	8	[0, 0, 0]	n/a	catFR1	2	R1403N
980.048	0.883	1005634	WORD_OFF	n/a	n/a	OYSTER	OceanAnimals	1	8	[0, 0, 0]	n/a	catFR1	2	R1403N
980.931	1.616	1006518	WORD	n/a	wordpools/wordpool_categorized_EN.txt	TURTLE	OceanAnimals	2	8	[0, 0, 0]	n/a	catFR1	2	R1403N
982.547	0.9	1008141	WORD_OFF	n/a	n/a	TURTLE	OceanAnimals	2	8	[0, 0, 0]	n/a	catFR1	2	R1403N
983.447	1.601	1009043	WORD	n/a	wordpools/wordpool_categorized_EN.txt	MOUSSE	Desserts	3	8	[0, 0, 0]	n/a	catFR1	2	R1403N
985.048	0.783	1010630	WORD_OFF	n/a	n/a	MOUSSE	Desserts	3	8	[0, 0, 0]	n/a	catFR1	2	R1403N
985.831	1.6	1011424	WORD	n/a	wordpools/wordpool_categorized_EN.txt	CAKE	Desserts	4	8	[0, 0, 0]	n/a	catFR1	2	R1403N
987.431	0.967	1013011	WORD_OFF	n/a	n/a	CAKE	Desserts	4	8	[0, 0, 0]	n/a	catFR1	2	R1403N
988.398	1.616	1013985	WORD	n/a	wordpools/wordpool_categorized_EN.txt	THUNDER	Weather	5	8	[0, 0, 0]	n/a	catFR1	2	R1403N
990.014	0.934	1015608	WORD_OFF	n/a	n/a	THUNDER	Weather	5	8	[0, 0, 0]	n/a	catFR1	2	R1403N
990.948	1.616	1016528	WORD	n/a	wordpools/wordpool_categorized_EN.txt	TORNADO	Weather	6	8	[0, 0, 0]	n/a	catFR1	2	R1403N
992.564	0.784	1018151	WORD_OFF	n/a	n/a	TORNADO	Weather	6	8	[0, 0, 0]	n/a	catFR1	2	R1403N
993.348	1.6	1018927	WORD	n/a	wordpools/wordpool_categorized_EN.txt	PUDDING	Desserts	7	8	[0, 0, 0]	n/a	catFR1	2	R1403N
994.948	0.833	1020532	WORD_OFF	n/a	n/a	PUDDING	Desserts	7	8	[0, 0, 0]	n/a	catFR1	2	R1403N
995.781	1.6	1021362	WORD	n/a	wordpools/wordpool_categorized_EN.txt	BROWNIES	Desserts	8	8	[0, 0, 0]	n/a	catFR1	2	R1403N
997.381	0.783	1022967	WORD_OFF	n/a	n/a	BROWNIES	Desserts	8	8	[0, 0, 0]	n/a	catFR1	2	R1403N
998.164	1.6	1023760	WORD	n/a	wordpools/wordpool_categorized_EN.txt	SQUID	OceanAnimals	9	8	[0, 0, 0]	n/a	catFR1	2	R1403N
999.764	0.9	1025348	WORD_OFF	n/a	n/a	SQUID	OceanAnimals	9	8	[0, 0, 0]	n/a	catFR1	2	R1403N
1000.664	1.6	1026249	WORD	n/a	wordpools/wordpool_categorized_EN.txt	OCTOPUS	OceanAnimals	10	8	[0, 0, 0]	n/a	catFR1	2	R1403N
1002.264	0.801	1027855	WORD_OFF	n/a	n/a	OCTOPUS	OceanAnimals	10	8	[0, 0, 0]	n/a	catFR1	2	R1403N
1003.065	1.6	1028648	WORD	n/a	wordpools/wordpool_categorized_EN.txt	CLOUD	Weather	11	8	[0, 0, 0]	n/a	catFR1	2	R1403N
1004.665	0.949	1030253	WORD_OFF	n/a	n/a	CLOUD	Weather	11	8	[0, 0, 0]	n/a	catFR1	2	R1403N
1005.614	1.602	1031209	WORD	n/a	wordpools/wordpool_categorized_EN.txt	HUMIDITY	Weather	12	8	[0, 0, 0]	n/a	catFR1	2	R1403N
1007.216	0.0	1032797	WORD_OFF	n/a	n/a	HUMIDITY	Weather	12	8	[0, 0, 0]	n/a	catFR1	2	R1403N
1007.216	0.002	1032803	PROB	7.665	n/a	n/a	n/a	-999	8	[4, 7, 2]	13.0	catFR1	2	R1403N
1007.218	0.0	1032815	DISTRACT_START	n/a	n/a	n/a	n/a	-999	8	[0, 0, 0]	n/a	catFR1	2	R1403N
1007.218	0.0	1032815	ENCODING_END	n/a	n/a	n/a	n/a	-999	8	[0, 0, 0]	n/a	catFR1	2	R1403N
1007.218	7.68	1032805	START	n/a	n/a	n/a	n/a	-999	8	[-999, -999, -999]	n/a	catFR1	2	R1403N
1014.898	2.283	1040485	PROB	2.267	n/a	n/a	n/a	-999	8	[1, 6, 4]	11.0	catFR1	2	R1403N
1017.181	3.884	1042768	PROB	3.867	n/a	n/a	n/a	-999	8	[7, 5, 8]	20.0	catFR1	2	R1403N
1021.065	3.334	1046652	PROB	3.316	n/a	n/a	n/a	-999	8	[6, 1, 6]	13.0	catFR1	2	R1403N
1024.399	6.232	1049985	PROB	6.216	n/a	n/a	n/a	-999	8	[6, 8, 8]	22.0	catFR1	2	R1403N
1030.631	0.0	1056226	DISTRACT_END	n/a	n/a	n/a	n/a	-999	8	[0, 0, 0]	n/a	catFR1	2	R1403N
1030.631	2.201	1056217	STOP	n/a	n/a	n/a	n/a	-999	8	[-999, -999, -999]	n/a	catFR1	2	R1403N
1032.832	1.712	1058416	REC_START	n/a	n/a	n/a	n/a	-999	8	[0, 0, 0]	n/a	catFR1	2	R1403N
1034.544	4.192	1060130	REC_WORD	1.712	n/a	HUMIDITY	Weather	12	8	[0, 0, 0]	n/a	catFR1	2	R1403N
1038.736	2.276	1064322	REC_WORD	5.904	n/a	OYSTER	OceanAnimals	1	8	[0, 0, 0]	n/a	catFR1	2	R1403N
1041.012	0.833	1066598	REC_WORD	8.18	n/a	TURTLE	OceanAnimals	2	8	[0, 0, 0]	n/a	catFR1	2	R1403N
1041.845	2.808	1067431	REC_WORD	9.013	n/a	MOUSSE	Desserts	3	8	[0, 0, 0]	n/a	catFR1	2	R1403N
1044.653	1.09	1070239	REC_WORD	11.821	n/a	BLOUSE	n/a	-999	8	[0, 0, 0]	n/a	catFR1	2	R1403N
1045.743	17.309	1071329	REC_WORD	12.911	n/a	CAKE	Desserts	4	8	[0, 0, 0]	n/a	catFR1	2	R1403N
1063.052	2.746	1088637	REC_END	n/a	n/a	n/a	n/a	-999	8	[0, 0, 0]	n/a	catFR1	2	R1403N
1065.798	10.35	1091379	COUNTDOWN_START	n/a	n/a	n/a	n/a	-999	9	[0, 0, 0]	n/a	catFR1	2	R1403N
1076.148	0.0	1101731	COUNTDOWN_END	n/a	n/a	n/a	n/a	-999	9	[0, 0, 0]	n/a	catFR1	2	R1403N
1076.148	2.0	1101731	ENCODING_START	n/a	n/a	n/a	n/a	-999	9	[0, 0, 0]	n/a	catFR1	2	R1403N
1078.148	1.6	1103733	WORD	n/a	wordpools/wordpool_categorized_EN.txt	RULER	OfficeSupplies	1	9	[0, 0, 0]	n/a	catFR1	2	R1403N
1079.748	0.934	1105339	WORD_OFF	n/a	n/a	RULER	OfficeSupplies	1	9	[0, 0, 0]	n/a	catFR1	2	R1403N
1080.682	1.599	1106277	WORD	n/a	wordpools/wordpool_categorized_EN.txt	PEN	OfficeSupplies	2	9	[0, 0, 0]	n/a	catFR1	2	R1403N
1082.281	0.984	1107864	WORD_OFF	n/a	n/a	PEN	OfficeSupplies	2	9	[0, 0, 0]	n/a	catFR1	2	R1403N
1083.265	1.599	1108856	WORD	n/a	wordpools/wordpool_categorized_EN.txt	HURRICANE	Weather	3	9	[0, 0, 0]	n/a	catFR1	2	R1403N
1084.864	0.784	1110443	WORD_OFF	n/a	n/a	HURRICANE	Weather	3	9	[0, 0, 0]	n/a	catFR1	2	R1403N
1085.648	1.6	1111237	WORD	n/a	wordpools/wordpool_categorized_EN.txt	SNOW	Weather	4	9	[0, 0, 0]	n/a	catFR1	2	R1403N
1087.248	0.783	1112842	WORD_OFF	n/a	n/a	SNOW	Weather	4	9	[0, 0, 0]	n/a	catFR1	2	R1403N
1088.031	1.6	1113617	WORD	n/a	wordpools/wordpool_categorized_EN.txt	JUICE	Beverages	5	9	[0, 0, 0]	n/a	catFR1	2	R1403N
1089.631	0.8	1115223	WORD_OFF	n/a	n/a	JUICE	Beverages	5	9	[0, 0, 0]	n/a	catFR1	2	R1403N
1090.431	1.6	1116016	WORD	n/a	wordpools/wordpool_categorized_EN.txt	WATER	Beverages	6	9	[0, 0, 0]	n/a	catFR1	2	R1403N
1092.031	0.817	1117621	WORD_OFF	n/a	n/a	WATER	Beverages	6	9	[0, 0, 0]	n/a	catFR1	2	R1403N
1092.848	1.6	1118433	WORD	n/a	wordpools/wordpool_categorized_EN.txt	LIGHTNING	Weather	7	9	[0, 0, 0]	n/a	catFR1	2	R1403N
1094.448	0.85	1120038	WORD_OFF	n/a	n/a	LIGHTNING	Weather	7	9	[0, 0, 0]	n/a	catFR1	2	R1403N
1095.298	1.616	1120886	WORD	n/a	wordpools/wordpool_categorized_EN.txt	DRIZZLE	Weather	8	9	[0, 0, 0]	n/a	catFR1	2	R1403N
1096.914	0.884	1122491	WORD_OFF	n/a	n/a	DRIZZLE	Weather	8	9	[0, 0, 0]	n/a	catFR1	2	R1403N
1097.798	1.616	1123375	WORD	n/a	wordpools/wordpool_categorized_EN.txt	TAPE	OfficeSupplies	9	9	[0, 0, 0]	n/a	catFR1	2	R1403N
1099.414	0.933	1124998	WORD_OFF	n/a	n/a	TAPE	OfficeSupplies	9	9	[0, 0, 0]	n/a	catFR1	2	R1403N
1100.347	1.6	1125936	WORD	n/a	wordpools/wordpool_categorized_EN.txt	NOTEBOOK	OfficeSupplies	10	9	[0, 0, 0]	n/a	catFR1	2	R1403N
1101.947	0.967	1127523	WORD_OFF	n/a	n/a	NOTEBOOK	OfficeSupplies	10	9	[0, 0, 0]	n/a	catFR1	2	R1403N
1102.914	1.6	1128497	WORD	n/a	wordpools/wordpool_categorized_EN.txt	RUM	Beverages	11	9	[0, 0, 0]	n/a	catFR1	2	R1403N
1104.514	0.867	1130103	WORD_OFF	n/a	n/a	RUM	Beverages	11	9	[0, 0, 0]	n/a	catFR1	2	R1403N
1105.381	1.616	1130968	WORD	n/a	wordpools/wordpool_categorized_EN.txt	TEA	Beverages	12	9	[0, 0, 0]	n/a	catFR1	2	R1403N
1106.997	0.001	1132574	WORD_OFF	n/a	n/a	TEA	Beverages	12	9	[0, 0, 0]	n/a	catFR1	2	R1403N
1106.998	0.0	1132592	DISTRACT_START	n/a	n/a	n/a	n/a	-999	9	[0, 0, 0]	n/a	catFR1	2	R1403N
1106.998	0.0	1132592	ENCODING_END	n/a	n/a	n/a	n/a	-999	9	[0, 0, 0]	n/a	catFR1	2	R1403N
1106.998	0.0	1132582	START	n/a	n/a	n/a	n/a	-999	9	[-999, -999, -999]	n/a	catFR1	2	R1403N
1106.998	5.451	1132582	PROB	5.434	n/a	n/a	n/a	-999	9	[7, 1, 3]	11.0	catFR1	2	R1403N
1112.449	5.266	1138033	PROB	5.249	n/a	n/a	n/a	-999	9	[8, 1, 6]	15.0	catFR1	2	R1403N
1117.715	3.916	1143298	PROB	3.9	n/a	n/a	n/a	-999	9	[5, 4, 2]	11.0	catFR1	2	R1403N
1121.631	4.317	1147214	PROB	4.3	n/a	n/a	n/a	-999	9	[5, 6, 4]	15.0	catFR1	2	R1403N
1125.948	3.684	1151531	PROB	3.666	n/a	n/a	n/a	-999	9	[1, 5, 8]	14.0	catFR1	2	R1403N
1129.632	0.0	1155209	DISTRACT_END	n/a	n/a	n/a	n/a	-999	9	[0, 0, 0]	n/a	catFR1	2	R1403N
1129.632	2.3	1155215	STOP	n/a	n/a	n/a	n/a	-999	9	[-999, -999, -999]	n/a	catFR1	2	R1403N
1131.932	1.16	1157508	REC_START	n/a	n/a	n/a	n/a	-999	9	[0, 0, 0]	n/a	catFR1	2	R1403N
1133.092	1.827	1158675	REC_WORD_VV	1.16	n/a	<>	n/a	-999	9	[0, 0, 0]	n/a	catFR1	2	R1403N
1134.919	0.759	1160502	REC_WORD	2.987	n/a	NOTEBOOK	OfficeSupplies	10	9	[0, 0, 0]	n/a	catFR1	2	R1403N
1135.678	0.743	1161261	REC_WORD	3.746	n/a	RAIN	Weather	-999	9	[0, 0, 0]	n/a	catFR1	2	R1403N
1136.421	2.001	1162004	REC_WORD	4.489	n/a	DRIZZLE	Weather	8	9	[0, 0, 0]	n/a	catFR1	2	R1403N
1138.422	2.268	1164005	REC_WORD	6.49	n/a	THUNDER	Weather	-999	9	[0, 0, 0]	n/a	catFR1	2	R1403N
1140.69	21.449	1166273	REC_WORD_VV	8.758	n/a	<>	n/a	-999	9	[0, 0, 0]	n/a	catFR1	2	R1403N
1162.139	2.975	1187729	REC_END	n/a	n/a	n/a	n/a	-999	9	[0, 0, 0]	n/a	catFR1	2	R1403N
1165.114	10.351	1190705	COUNTDOWN_START	n/a	n/a	n/a	n/a	-999	10	[0, 0, 0]	n/a	catFR1	2	R1403N
1175.465	0.0	1201040	COUNTDOWN_END	n/a	n/a	n/a	n/a	-999	10	[0, 0, 0]	n/a	catFR1	2	R1403N
1175.465	2.333	1201058	ENCODING_START	n/a	n/a	n/a	n/a	-999	10	[0, 0, 0]	n/a	catFR1	2	R1403N
1177.798	1.616	1203384	WORD	n/a	wordpools/wordpool_categorized_EN.txt	CYPRESS	Trees	1	10	[0, 0, 0]	n/a	catFR1	2	R1403N
1179.414	0.867	1204989	WORD_OFF	n/a	n/a	CYPRESS	Trees	1	10	[0, 0, 0]	n/a	catFR1	2	R1403N
1180.281	1.616	1205855	WORD	n/a	wordpools/wordpool_categorized_EN.txt	SPRUCE	Trees	2	10	[0, 0, 0]	n/a	catFR1	2	R1403N
1181.897	0.85	1207478	WORD_OFF	n/a	n/a	SPRUCE	Trees	2	10	[0, 0, 0]	n/a	catFR1	2	R1403N
1182.747	1.601	1208326	WORD	n/a	wordpools/wordpool_categorized_EN.txt	DOLPHIN	OceanAnimals	3	10	[0, 0, 0]	n/a	catFR1	2	R1403N
1184.348	0.783	1209931	WORD_OFF	n/a	n/a	DOLPHIN	OceanAnimals	3	10	[0, 0, 0]	n/a	catFR1	2	R1403N
1185.131	1.6	1210707	WORD	n/a	wordpools/wordpool_categorized_EN.txt	FISH	OceanAnimals	4	10	[0, 0, 0]	n/a	catFR1	2	R1403N
1186.731	0.784	1212312	WORD_OFF	n/a	n/a	FISH	OceanAnimals	4	10	[0, 0, 0]	n/a	catFR1	2	R1403N
1187.515	1.599	1213088	WORD	n/a	wordpools/wordpool_categorized_EN.txt	COLANDER	KitchenTools	5	10	[0, 0, 0]	n/a	catFR1	2	R1403N
1189.114	0.901	1214693	WORD_OFF	n/a	n/a	COLANDER	KitchenTools	5	10	[0, 0, 0]	n/a	catFR1	2	R1403N
1190.015	1.616	1215595	WORD	n/a	wordpools/wordpool_categorized_EN.txt	SPATULA	KitchenTools	6	10	[0, 0, 0]	n/a	catFR1	2	R1403N
1191.631	0.933	1217218	WORD_OFF	n/a	n/a	SPATULA	KitchenTools	6	10	[0, 0, 0]	n/a	catFR1	2	R1403N
1192.564	1.617	1218138	WORD	n/a	wordpools/wordpool_categorized_EN.txt	EVERGREEN	Trees	7	10	[0, 0, 0]	n/a	catFR1	2	R1403N
1194.181	0.983	1219761	WORD_OFF	n/a	n/a	EVERGREEN	Trees	7	10	[0, 0, 0]	n/a	catFR1	2	R1403N
1195.164	1.6	1220753	WORD	n/a	wordpools/wordpool_categorized_EN.txt	PINE	Trees	8	10	[0, 0, 0]	n/a	catFR1	2	R1403N
1196.764	0.767	1222340	WORD_OFF	n/a	n/a	PINE	Trees	8	10	[0, 0, 0]	n/a	catFR1	2	R1403N
1197.531	1.6	1223116	WORD	n/a	wordpools/wordpool_categorized_EN.txt	PLANKTON	OceanAnimals	9	10	[0, 0, 0]	n/a	catFR1	2	R1403N
1199.131	0.816	1224721	WORD_OFF	n/a	n/a	PLANKTON	OceanAnimals	9	10	[0, 0, 0]	n/a	catFR1	2	R1403N
1199.947	1.6	1225533	WORD	n/a	wordpools/wordpool_categorized_EN.txt	SHRIMP	OceanAnimals	10	10	[0, 0, 0]	n/a	catFR1	2	R1403N
1201.547	0.867	1227138	WORD_OFF	n/a	n/a	SHRIMP	OceanAnimals	10	10	[0, 0, 0]	n/a	catFR1	2	R1403N
1202.414	1.6	1228004	WORD	n/a	wordpools/wordpool_categorized_EN.txt	FORK	KitchenTools	11	10	[0, 0, 0]	n/a	catFR1	2	R1403N
1204.014	0.917	1229591	WORD_OFF	n/a	n/a	FORK	KitchenTools	11	10	[0, 0, 0]	n/a	catFR1	2	R1403N
1204.931	1.6	1230511	WORD	n/a	wordpools/wordpool_categorized_EN.txt	PEELER	KitchenTools	12	10	[0, 0, 0]	n/a	catFR1	2	R1403N
1206.531	0.0	1232116	WORD_OFF	n/a	n/a	PEELER	KitchenTools	12	10	[0, 0, 0]	n/a	catFR1	2	R1403N
1206.531	0.002	1232112	PROB	3.617	n/a	n/a	n/a	-999	10	[7, 1, 1]	9.0	catFR1	2	R1403N
1206.533	0.0	1232116	DISTRACT_START	n/a	n/a	n/a	n/a	-999	10	[0, 0, 0]	n/a	catFR1	2	R1403N
1206.533	0.0	1232116	ENCODING_END	n/a	n/a	n/a	n/a	-999	10	[0, 0, 0]	n/a	catFR1	2	R1403N
1206.533	3.633	1232114	START	n/a	n/a	n/a	n/a	-999	10	[-999, -999, -999]	n/a	catFR1	2	R1403N
1210.166	2.35	1235746	PROB	2.333	n/a	n/a	n/a	-999	10	[7, 3, 1]	11.0	catFR1	2	R1403N
1212.516	4.932	1238096	PROB	4.916	n/a	n/a	n/a	-999	10	[5, 5, 6]	16.0	catFR1	2	R1403N
1217.448	7.833	1243028	PROB	7.817	n/a	n/a	n/a	-999	10	[8, 8, 7]	23.0	catFR1	2	R1403N
1225.281	8.334	1250861	PROB	8.317	n/a	n/a	n/a	-999	10	[8, 7, 6]	21.0	catFR1	2	R1403N
1233.615	0.0	1259189	DISTRACT_END	n/a	n/a	n/a	n/a	-999	10	[0, 0, 0]	n/a	catFR1	2	R1403N
1233.615	2.083	1259195	STOP	n/a	n/a	n/a	n/a	-999	10	[-999, -999, -999]	n/a	catFR1	2	R1403N
1235.698	0.742	1261271	REC_START	n/a	n/a	n/a	n/a	-999	10	[0, 0, 0]	n/a	catFR1	2	R1403N
1236.44	0.569	1262020	REC_WORD_VV	0.742	n/a	<>	n/a	-999	10	[0, 0, 0]	n/a	catFR1	2	R1403N
1237.009	1.289	1262589	REC_WORD	1.311	n/a	CYPRESS	Trees	1	10	[0, 0, 0]	n/a	catFR1	2	R1403N
1238.298	0.58	1263878	REC_WORD	2.6	n/a	PLANKTON	OceanAnimals	9	10	[0, 0, 0]	n/a	catFR1	2	R1403N
1238.878	2.91	1264458	REC_WORD	3.18	n/a	SHRIMP	OceanAnimals	10	10	[0, 0, 0]	n/a	catFR1	2	R1403N
1241.788	1.209	1267367	REC_WORD	6.09	n/a	EVERGREEN	Trees	7	10	[0, 0, 0]	n/a	catFR1	2	R1403N
1242.997	2.136	1268576	REC_WORD	7.299	n/a	FOREST	n/a	-999	10	[0, 0, 0]	n/a	catFR1	2	R1403N
1245.133	20.777	1270712	REC_WORD	9.435	n/a	PINE	Trees	8	10	[0, 0, 0]	n/a	catFR1	2	R1403N
1265.91	2.705	1291492	REC_END	n/a	n/a	n/a	n/a	-999	10	[0, 0, 0]	n/a	catFR1	2	R1403N
1268.615	10.35	1294197	COUNTDOWN_START	n/a	n/a	n/a	n/a	-999	11	[0, 0, 0]	n/a	catFR1	2	R1403N
1278.965	0.0	1304550	COUNTDOWN_END	n/a	n/a	n/a	n/a	-999	11	[0, 0, 0]	n/a	catFR1	2	R1403N
1278.965	2.016	1304550	ENCODING_START	n/a	n/a	n/a	n/a	-999	11	[0, 0, 0]	n/a	catFR1	2	R1403N
1280.981	1.6	1306552	WORD	n/a	wordpools/wordpool_categorized_EN.txt	VAN	Vehicles	1	11	[0, 0, 0]	n/a	catFR1	2	R1403N
1282.581	0.834	1308157	WORD_OFF	n/a	n/a	VAN	Vehicles	1	11	[0, 0, 0]	n/a	catFR1	2	R1403N
1283.415	1.6	1308987	WORD	n/a	wordpools/wordpool_categorized_EN.txt	MOTORCYCLE	Vehicles	2	11	[0, 0, 0]	n/a	catFR1	2	R1403N
1285.015	0.933	1310592	WORD_OFF	n/a	n/a	MOTORCYCLE	Vehicles	2	11	[0, 0, 0]	n/a	catFR1	2	R1403N
1285.948	1.618	1311530	WORD	n/a	wordpools/wordpool_categorized_EN.txt	LAKE	Landscapes	3	11	[0, 0, 0]	n/a	catFR1	2	R1403N
1287.566	0.932	1313153	WORD_OFF	n/a	n/a	LAKE	Landscapes	3	11	[0, 0, 0]	n/a	catFR1	2	R1403N
1288.498	1.6	1314073	WORD	n/a	wordpools/wordpool_categorized_EN.txt	OCEAN	Landscapes	4	11	[0, 0, 0]	n/a	catFR1	2	R1403N
1290.098	0.816	1315679	WORD_OFF	n/a	n/a	OCEAN	Landscapes	4	11	[0, 0, 0]	n/a	catFR1	2	R1403N
1290.914	1.617	1316490	WORD	n/a	wordpools/wordpool_categorized_EN.txt	WASHER	Appliances	5	11	[0, 0, 0]	n/a	catFR1	2	R1403N
1292.531	0.966	1318113	WORD_OFF	n/a	n/a	WASHER	Appliances	5	11	[0, 0, 0]	n/a	catFR1	2	R1403N
1293.497	1.601	1319069	WORD	n/a	wordpools/wordpool_categorized_EN.txt	OVEN	Appliances	6	11	[0, 0, 0]	n/a	catFR1	2	R1403N
1295.098	0.8	1320675	WORD_OFF	n/a	n/a	OVEN	Appliances	6	11	[0, 0, 0]	n/a	catFR1	2	R1403N
1295.898	1.6	1321468	WORD	n/a	wordpools/wordpool_categorized_EN.txt	RIVER	Landscapes	7	11	[0, 0, 0]	n/a	catFR1	2	R1403N
1297.498	0.833	1323073	WORD_OFF	n/a	n/a	RIVER	Landscapes	7	11	[0, 0, 0]	n/a	catFR1	2	R1403N
1298.331	1.6	1323903	WORD	n/a	wordpools/wordpool_categorized_EN.txt	CREEK	Landscapes	8	11	[0, 0, 0]	n/a	catFR1	2	R1403N
1299.931	0.867	1325508	WORD_OFF	n/a	n/a	CREEK	Landscapes	8	11	[0, 0, 0]	n/a	catFR1	2	R1403N
1300.798	1.616	1326374	WORD	n/a	wordpools/wordpool_categorized_EN.txt	MIXER	Appliances	9	11	[0, 0, 0]	n/a	catFR1	2	R1403N
1302.414	0.834	1327997	WORD_OFF	n/a	n/a	MIXER	Appliances	9	11	[0, 0, 0]	n/a	catFR1	2	R1403N
1303.248	1.616	1328827	WORD	n/a	wordpools/wordpool_categorized_EN.txt	BLENDER	Appliances	10	11	[0, 0, 0]	n/a	catFR1	2	R1403N
1304.864	0.85	1330450	WORD_OFF	n/a	n/a	BLENDER	Appliances	10	11	[0, 0, 0]	n/a	catFR1	2	R1403N
1305.714	1.617	1331298	WORD	n/a	wordpools/wordpool_categorized_EN.txt	TRAIN	Vehicles	11	11	[0, 0, 0]	n/a	catFR1	2	R1403N
1307.331	0.833	1332903	WORD_OFF	n/a	n/a	TRAIN	Vehicles	11	11	[0, 0, 0]	n/a	catFR1	2	R1403N
1308.164	1.601	1333733	WORD	n/a	wordpools/wordpool_categorized_EN.txt	CAR	Vehicles	12	11	[0, 0, 0]	n/a	catFR1	2	R1403N
1309.765	0.0	1335338	WORD_OFF	n/a	n/a	CAR	Vehicles	12	11	[0, 0, 0]	n/a	catFR1	2	R1403N
1309.765	0.001	1335342	PROB	6.533	n/a	n/a	n/a	-999	11	[7, 1, 6]	14.0	catFR1	2	R1403N
1309.766	0.0	1335338	ENCODING_END	n/a	n/a	n/a	n/a	-999	11	[0, 0, 0]	n/a	catFR1	2	R1403N
1309.766	0.0	1335356	DISTRACT_START	n/a	n/a	n/a	n/a	-999	11	[0, 0, 0]	n/a	catFR1	2	R1403N
1309.766	6.55	1335343	START	n/a	n/a	n/a	n/a	-999	11	[-999, -999, -999]	n/a	catFR1	2	R1403N
1316.316	6.383	1341893	PROB	6.365	n/a	n/a	n/a	-999	11	[8, 6, 7]	21.0	catFR1	2	R1403N
1322.699	5.332	1348276	PROB	5.316	n/a	n/a	n/a	-999	11	[6, 6, 3]	15.0	catFR1	2	R1403N
1328.031	2.634	1353608	PROB	2.617	n/a	n/a	n/a	-999	11	[1, 3, 7]	11.0	catFR1	2	R1403N
1330.665	0.0	1356242	DISTRACT_END	n/a	n/a	n/a	n/a	-999	11	[0, 0, 0]	n/a	catFR1	2	R1403N
1330.665	2.266	1356242	STOP	n/a	n/a	n/a	n/a	-999	11	[-999, -999, -999]	n/a	catFR1	2	R1403N
1332.931	5.703	1358505	REC_START	n/a	n/a	n/a	n/a	-999	11	[0, 0, 0]	n/a	catFR1	2	R1403N
1338.634	0.727	1364210	REC_WORD	5.703	n/a	VAN	Vehicles	1	11	[0, 0, 0]	n/a	catFR1	2	R1403N
1339.361	1.418	1364937	REC_WORD	6.43	n/a	MOTORCYCLE	Vehicles	2	11	[0, 0, 0]	n/a	catFR1	2	R1403N
1340.779	0.488	1366355	REC_WORD	7.848	n/a	CREEK	Landscapes	8	11	[0, 0, 0]	n/a	catFR1	2	R1403N
1341.267	0.945	1366843	REC_WORD	8.336	n/a	RIVER	Landscapes	7	11	[0, 0, 0]	n/a	catFR1	2	R1403N
1342.212	0.444	1367788	REC_WORD	9.281	n/a	OCEAN	Landscapes	4	11	[0, 0, 0]	n/a	catFR1	2	R1403N
1342.656	9.615	1368232	REC_WORD	9.725	n/a	LAKE	Landscapes	3	11	[0, 0, 0]	n/a	catFR1	2	R1403N
1352.271	0.534	1377847	REC_WORD	19.34	n/a	OVEN	Appliances	6	11	[0, 0, 0]	n/a	catFR1	2	R1403N
1352.805	1.924	1378381	REC_WORD	19.874	n/a	STOVE	n/a	-999	11	[0, 0, 0]	n/a	catFR1	2	R1403N
1354.729	8.409	1380305	REC_WORD	21.798	n/a	KITCHEN	n/a	-999	11	[0, 0, 0]	n/a	catFR1	2	R1403N
1363.138	2.194	1388708	REC_END	n/a	n/a	n/a	n/a	-999	11	[0, 0, 0]	n/a	catFR1	2	R1403N
1365.332	10.35	1390908	COUNTDOWN_START	n/a	n/a	n/a	n/a	-999	12	[0, 0, 0]	n/a	catFR1	2	R1403N
1375.682	0.0	1401261	COUNTDOWN_END	n/a	n/a	n/a	n/a	-999	12	[0, 0, 0]	n/a	catFR1	2	R1403N
1375.682	2.133	1401261	ENCODING_START	n/a	n/a	n/a	n/a	-999	12	[0, 0, 0]	n/a	catFR1	2	R1403N
1377.815	1.617	1403389	WORD	n/a	wordpools/wordpool_categorized_EN.txt	ISLAND	Landscapes	1	12	[0, 0, 0]	n/a	catFR1	2	R1403N
1379.432	0.916	1405013	WORD_OFF	n/a	n/a	ISLAND	Landscapes	1	12	[0, 0, 0]	n/a	catFR1	2	R1403N
1380.348	1.6	1405932	WORD	n/a	wordpools/wordpool_categorized_EN.txt	BEACH	Landscapes	2	12	[0, 0, 0]	n/a	catFR1	2	R1403N
1381.948	0.85	1407520	WORD_OFF	n/a	n/a	BEACH	Landscapes	2	12	[0, 0, 0]	n/a	catFR1	2	R1403N
1382.798	1.6	1408367	WORD	n/a	wordpools/wordpool_categorized_EN.txt	STRAINER	KitchenTools	3	12	[0, 0, 0]	n/a	catFR1	2	R1403N
1384.398	0.8	1409973	WORD_OFF	n/a	n/a	STRAINER	KitchenTools	3	12	[0, 0, 0]	n/a	catFR1	2	R1403N
1385.198	1.616	1410766	WORD	n/a	wordpools/wordpool_categorized_EN.txt	LADLE	KitchenTools	4	12	[0, 0, 0]	n/a	catFR1	2	R1403N
1386.814	0.867	1412389	WORD_OFF	n/a	n/a	LADLE	KitchenTools	4	12	[0, 0, 0]	n/a	catFR1	2	R1403N
1387.681	1.616	1413255	WORD	n/a	wordpools/wordpool_categorized_EN.txt	LEATHER	Fabric	5	12	[0, 0, 0]	n/a	catFR1	2	R1403N
1389.297	0.784	1414878	WORD_OFF	n/a	n/a	LEATHER	Fabric	5	12	[0, 0, 0]	n/a	catFR1	2	R1403N
1390.081	1.6	1415654	WORD	n/a	wordpools/wordpool_categorized_EN.txt	SUEDE	Fabric	6	12	[0, 0, 0]	n/a	catFR1	2	R1403N
1391.681	0.966	1417259	WORD_OFF	n/a	n/a	SUEDE	Fabric	6	12	[0, 0, 0]	n/a	catFR1	2	R1403N
1392.647	1.601	1418215	WORD	n/a	wordpools/wordpool_categorized_EN.txt	FOREST	Landscapes	7	12	[0, 0, 0]	n/a	catFR1	2	R1403N
1394.248	0.883	1419820	WORD_OFF	n/a	n/a	FOREST	Landscapes	7	12	[0, 0, 0]	n/a	catFR1	2	R1403N
1395.131	1.6	1420704	WORD	n/a	wordpools/wordpool_categorized_EN.txt	STREAM	Landscapes	8	12	[0, 0, 0]	n/a	catFR1	2	R1403N
1396.731	0.867	1422309	WORD_OFF	n/a	n/a	STREAM	Landscapes	8	12	[0, 0, 0]	n/a	catFR1	2	R1403N
1397.598	1.616	1423175	WORD	n/a	wordpools/wordpool_categorized_EN.txt	SPOON	KitchenTools	9	12	[0, 0, 0]	n/a	catFR1	2	R1403N
1399.214	1.0	1424798	WORD_OFF	n/a	n/a	SPOON	KitchenTools	9	12	[0, 0, 0]	n/a	catFR1	2	R1403N
1400.214	1.617	1425790	WORD	n/a	wordpools/wordpool_categorized_EN.txt	GRATER	KitchenTools	10	12	[0, 0, 0]	n/a	catFR1	2	R1403N
1401.831	0.983	1427414	WORD_OFF	n/a	n/a	GRATER	KitchenTools	10	12	[0, 0, 0]	n/a	catFR1	2	R1403N
1402.814	1.6	1428388	WORD	n/a	wordpools/wordpool_categorized_EN.txt	WOOL	Fabric	11	12	[0, 0, 0]	n/a	catFR1	2	R1403N
1404.414	0.883	1429993	WORD_OFF	n/a	n/a	WOOL	Fabric	11	12	[0, 0, 0]	n/a	catFR1	2	R1403N
1405.297	1.6	1430877	WORD	n/a	wordpools/wordpool_categorized_EN.txt	SILK	Fabric	12	12	[0, 0, 0]	n/a	catFR1	2	R1403N
1406.897	0.001	1432464	WORD_OFF	n/a	n/a	SILK	Fabric	12	12	[0, 0, 0]	n/a	catFR1	2	R1403N
1406.898	0.001	1432472	PROB	3.833	n/a	n/a	n/a	-999	12	[2, 1, 1]	4.0	catFR1	2	R1403N
1406.899	0.0	1432482	DISTRACT_START	n/a	n/a	n/a	n/a	-999	12	[0, 0, 0]	n/a	catFR1	2	R1403N
1406.899	0.0	1432482	ENCODING_END	n/a	n/a	n/a	n/a	-999	12	[0, 0, 0]	n/a	catFR1	2	R1403N
1406.899	3.849	1432473	START	n/a	n/a	n/a	n/a	-999	12	[-999, -999, -999]	n/a	catFR1	2	R1403N
1410.748	4.1	1436322	PROB	4.083	n/a	n/a	n/a	-999	12	[7, 6, 6]	19.0	catFR1	2	R1403N
1414.848	7.969	1440422	PROB	7.951	n/a	n/a	n/a	-999	12	[4, 8, 1]	12.0	catFR1	2	R1403N
1422.817	6.698	1448391	PROB	6.682	n/a	n/a	n/a	-999	12	[6, 6, 4]	16.0	catFR1	2	R1403N
1429.515	0.0	1455081	DISTRACT_END	n/a	n/a	n/a	n/a	-999	12	[0, 0, 0]	n/a	catFR1	2	R1403N
1429.515	2.167	1455088	STOP	n/a	n/a	n/a	n/a	-999	12	[-999, -999, -999]	n/a	catFR1	2	R1403N
1431.682	1.502	1457254	REC_START	n/a	n/a	n/a	n/a	-999	12	[0, 0, 0]	n/a	catFR1	2	R1403N
1433.184	0.977	1458757	REC_WORD	1.502	n/a	STRAINER	KitchenTools	3	12	[0, 0, 0]	n/a	catFR1	2	R1403N
1434.161	0.553	1459734	REC_WORD	2.479	n/a	LEATHER	Fabric	5	12	[0, 0, 0]	n/a	catFR1	2	R1403N
1434.714	2.272	1460287	REC_WORD	3.032	n/a	SUEDE	Fabric	6	12	[0, 0, 0]	n/a	catFR1	2	R1403N
1436.986	2.483	1462559	REC_WORD	5.304	n/a	STREAM	Landscapes	8	12	[0, 0, 0]	n/a	catFR1	2	R1403N
1439.469	0.687	1465042	REC_WORD	7.787	n/a	ISLAND	Landscapes	1	12	[0, 0, 0]	n/a	catFR1	2	R1403N
1440.156	21.733	1465729	REC_WORD	8.474	n/a	BEACH	Landscapes	2	12	[0, 0, 0]	n/a	catFR1	2	R1403N
1461.889	0.0	1487457	REC_END	n/a	n/a	n/a	n/a	-999	12	[0, 0, 0]	n/a	catFR1	2	R1403N
