onset	duration	sample	trial_type	response_time	stim_file	item_name	category	serialpos	list	test	answer	experiment	session	subject
0.0	54.074	-1	SESS_START	n/a	n/a	n/a	n/a	-999	-999	[0, 0, 0]	n/a	catFR1	0	R1111M
54.074	10.428	-1	COUNTDOWN_START	n/a	n/a	n/a	n/a	-999	-999	[0, 0, 0]	n/a	catFR1	0	R1111M
64.502	3.492	-1	COUNTDOWN_END	n/a	n/a	n/a	n/a	-999	-999	[0, 0, 0]	n/a	catFR1	0	R1111M
67.994	2.617	-1	PRACTICE_WORD	n/a	n/a	TONGUE	n/a	-999	-999	[0, 0, 0]	n/a	catFR1	0	R1111M
70.611	2.5	-1	PRACTICE_WORD	n/a	n/a	RHINO	n/a	-999	-999	[0, 0, 0]	n/a	catFR1	0	R1111M
73.111	2.55	-1	PRACTICE_WORD	n/a	n/a	COTTON	n/a	-999	-999	[0, 0, 0]	n/a	catFR1	0	R1111M
75.661	2.518	-1	PRACTICE_WORD	n/a	n/a	ATTIC	n/a	-999	-999	[0, 0, 0]	n/a	catFR1	0	R1111M
78.179	2.417	-1	PRACTICE_WORD	n/a	n/a	CAMEL	n/a	-999	-999	[0, 0, 0]	n/a	catFR1	0	R1111M
80.596	2.534	-1	PRACTICE_WORD	n/a	n/a	WATCH	n/a	-999	-999	[0, 0, 0]	n/a	catFR1	0	R1111M
83.13	2.566	-1	PRACTICE_WORD	n/a	n/a	FLOOD	n/a	-999	-999	[0, 0, 0]	n/a	catFR1	0	R1111M
85.696	2.602	-1	PRACTICE_WORD	n/a	n/a	RING	n/a	-999	-999	[0, 0, 0]	n/a	catFR1	0	R1111M
88.298	2.567	-1	PRACTICE_WORD	n/a	n/a	BEAM	n/a	-999	-999	[0, 0, 0]	n/a	catFR1	0	R1111M
90.865	2.517	-1	PRACTICE_WORD	n/a	n/a	CHEST	n/a	-999	-999	[0, 0, 0]	n/a	catFR1	0	R1111M
93.382	2.517	-1	PRACTICE_WORD	n/a	n/a	IRON	n/a	-999	-999	[0, 0, 0]	n/a	catFR1	0	R1111M
95.899	1.617	-1	PRACTICE_WORD	n/a	n/a	WAGON	n/a	-999	-999	[0, 0, 0]	n/a	catFR1	0	R1111M
97.516	0.0	-1	PRACTICE_DISTRACT_START	n/a	n/a	n/a	n/a	-999	-999	[0, 0, 0]	n/a	catFR1	0	R1111M
97.516	0.017	-1	START	n/a	n/a	n/a	n/a	-999	-1	[-999, -999, -999]	n/a	catFR1	0	R1111M
97.533	6.751	-1	PROB	6.718	n/a	n/a	n/a	-999	-1	[9, 1, 6]	16.0	catFR1	0	R1111M
104.284	13.069	-1	PROB	13.047	n/a	n/a	n/a	-999	-1	[6, 4, 3]	13.0	catFR1	0	R1111M
117.353	5.002	-1	PROB	5.002	n/a	n/a	n/a	-999	-1	[3, 1, 9]	13.0	catFR1	0	R1111M
122.355	0.016	-1	STOP	n/a	n/a	n/a	n/a	-999	-1	[-999, -999, -999]	n/a	catFR1	0	R1111M
122.371	0.652	-1	PRACTICE_DISTRACT_END	n/a	n/a	n/a	n/a	-999	-999	[0, 0, 0]	n/a	catFR1	0	R1111M
123.023	30.515	-1	PRACTICE_REC_START	n/a	n/a	n/a	n/a	-999	-999	[0, 0, 0]	n/a	catFR1	0	R1111M
153.538	84784.156	-1	PRACTICE_REC_END	n/a	n/a	n/a	n/a	-999	-999	[0, 0, 0]	n/a	catFR1	0	R1111M
84937.694	58.708	39409	SESS_START	n/a	n/a	n/a	n/a	-999	-999	[0, 0, 0]	n/a	catFR1	0	R1111M
84996.402	10.428	68761	COUNTDOWN_START	n/a	n/a	n/a	n/a	-999	-999	[0, 0, 0]	n/a	catFR1	0	R1111M
85006.83	3.891	73975	COUNTDOWN_END	n/a	n/a	n/a	n/a	-999	-999	[0, 0, 0]	n/a	catFR1	0	R1111M
85010.721	2.567	75921	PRACTICE_WORD	n/a	n/a	RING	n/a	-999	-999	[0, 0, 0]	n/a	catFR1	0	R1111M
85013.288	2.468	77204	PRACTICE_WORD	n/a	n/a	ATTIC	n/a	-999	-999	[0, 0, 0]	n/a	catFR1	0	R1111M
85015.756	2.6	78438	PRACTICE_WORD	n/a	n/a	COTTON	n/a	-999	-999	[0, 0, 0]	n/a	catFR1	0	R1111M
85018.356	2.585	79738	PRACTICE_WORD	n/a	n/a	CAMEL	n/a	-999	-999	[0, 0, 0]	n/a	catFR1	0	R1111M
85020.941	2.566	81030	PRACTICE_WORD	n/a	n/a	RHINO	n/a	-999	-999	[0, 0, 0]	n/a	catFR1	0	R1111M
85023.507	2.451	82313	PRACTICE_WORD	n/a	n/a	WATCH	n/a	-999	-999	[0, 0, 0]	n/a	catFR1	0	R1111M
85025.958	2.567	83539	PRACTICE_WORD	n/a	n/a	WAGON	n/a	-999	-999	[0, 0, 0]	n/a	catFR1	0	R1111M
85028.525	2.384	84822	PRACTICE_WORD	n/a	n/a	CHEST	n/a	-999	-999	[0, 0, 0]	n/a	catFR1	0	R1111M
85030.909	2.567	86014	PRACTICE_WORD	n/a	n/a	FLOOD	n/a	-999	-999	[0, 0, 0]	n/a	catFR1	0	R1111M
85033.476	2.55	87297	PRACTICE_WORD	n/a	n/a	IRON	n/a	-999	-999	[0, 0, 0]	n/a	catFR1	0	R1111M
85036.026	2.501	88572	PRACTICE_WORD	n/a	n/a	BEAM	n/a	-999	-999	[0, 0, 0]	n/a	catFR1	0	R1111M
85038.527	1.617	89823	PRACTICE_WORD	n/a	n/a	TONGUE	n/a	-999	-999	[0, 0, 0]	n/a	catFR1	0	R1111M
85040.144	0.0	90631	PRACTICE_DISTRACT_START	n/a	n/a	n/a	n/a	-999	-999	[0, 0, 0]	n/a	catFR1	0	R1111M
85040.144	0.016	90631	START	n/a	n/a	n/a	n/a	-999	1	[-999, -999, -999]	n/a	catFR1	0	R1111M
85040.16	9.035	90639	PROB	9.01	n/a	n/a	n/a	-999	1	[2, 9, 3]	14.0	catFR1	0	R1111M
85049.195	10.036	95156	PROB	10.014	n/a	n/a	n/a	-999	1	[8, 7, 4]	19.0	catFR1	0	R1111M
85059.231	5.299	100174	PROB	5.299	n/a	n/a	n/a	-999	1	[3, 2, 4]	9.0	catFR1	0	R1111M
85064.53	0.018	102823	STOP	n/a	n/a	n/a	n/a	-999	1	[-999, -999, -999]	n/a	catFR1	0	R1111M
85064.548	0.669	102832	PRACTICE_DISTRACT_END	n/a	n/a	n/a	n/a	-999	-999	[0, 0, 0]	n/a	catFR1	0	R1111M
85065.217	30.515	103167	PRACTICE_REC_START	n/a	n/a	n/a	n/a	-999	-999	[0, 0, 0]	n/a	catFR1	0	R1111M
85095.732	29.261	118424	PRACTICE_REC_END	n/a	n/a	n/a	n/a	-999	-999	[0, 0, 0]	n/a	catFR1	0	R1111M
85124.993	0.0	133053	TRIAL	n/a	n/a	n/a	n/a	-999	1	[0, 0, 0]	n/a	catFR1	0	R1111M
85124.993	10.428	133053	COUNTDOWN_START	n/a	n/a	n/a	n/a	-999	1	[0, 0, 0]	n/a	catFR1	0	R1111M
85135.421	0.008	138267	COUNTDOWN_END	n/a	n/a	n/a	n/a	-999	1	[0, 0, 0]	n/a	catFR1	0	R1111M
85135.429	3.401	138271	ORIENT	n/a	n/a	n/a	n/a	-999	1	[0, 0, 0]	n/a	catFR1	0	R1111M
85138.83	2.5	139971	WORD	n/a	wordpools/wordpool_categorized_EN.txt	MOPED	Vehicles	1	1	[0, 0, 0]	n/a	catFR1	0	R1111M
85141.33	2.501	141221	WORD	n/a	wordpools/wordpool_categorized_EN.txt	TRUCK	Vehicles	2	1	[0, 0, 0]	n/a	catFR1	0	R1111M
85143.831	2.583	142472	WORD	n/a	wordpools/wordpool_categorized_EN.txt	CUPCAKE	Desserts	3	1	[0, 0, 0]	n/a	catFR1	0	R1111M
85146.414	2.468	143763	WORD	n/a	wordpools/wordpool_categorized_EN.txt	PUDDING	Desserts	4	1	[0, 0, 0]	n/a	catFR1	0	R1111M
85148.882	2.566	144997	WORD	n/a	wordpools/wordpool_categorized_EN.txt	ROACH	Insects	5	1	[0, 0, 0]	n/a	catFR1	0	R1111M
85151.448	2.551	146280	WORD	n/a	wordpools/wordpool_categorized_EN.txt	BEE	Insects	6	1	[0, 0, 0]	n/a	catFR1	0	R1111M
85153.999	2.617	147555	WORD	n/a	wordpools/wordpool_categorized_EN.txt	MOUSSE	Desserts	7	1	[0, 0, 0]	n/a	catFR1	0	R1111M
85156.616	2.467	148864	WORD	n/a	wordpools/wordpool_categorized_EN.txt	FUDGE	Desserts	8	1	[0, 0, 0]	n/a	catFR1	0	R1111M
85159.083	2.484	150097	WORD	n/a	wordpools/wordpool_categorized_EN.txt	PLANE	Vehicles	9	1	[0, 0, 0]	n/a	catFR1	0	R1111M
85161.567	2.534	151339	WORD	n/a	wordpools/wordpool_categorized_EN.txt	MOTORCYCLE	Vehicles	10	1	[0, 0, 0]	n/a	catFR1	0	R1111M
85164.101	2.5	152606	WORD	n/a	wordpools/wordpool_categorized_EN.txt	GNAT	Insects	11	1	[0, 0, 0]	n/a	catFR1	0	R1111M
85166.601	1.617	153856	WORD	n/a	wordpools/wordpool_categorized_EN.txt	MOTH	Insects	12	1	[0, 0, 0]	n/a	catFR1	0	R1111M
85168.218	0.001	154665	DISTRACT_START	n/a	n/a	n/a	n/a	-999	1	[0, 0, 0]	n/a	catFR1	0	R1111M
85168.219	0.016	154665	START	n/a	n/a	n/a	n/a	-999	2	[-999, -999, -999]	n/a	catFR1	0	R1111M
85168.235	4.167	154673	PROB	4.143	n/a	n/a	n/a	-999	2	[1, 1, 4]	6.0	catFR1	0	R1111M
85172.402	8.619	156756	PROB	8.583	n/a	n/a	n/a	-999	2	[8, 5, 9]	22.0	catFR1	0	R1111M
85181.021	5.968	161066	PROB	5.933	n/a	n/a	n/a	-999	2	[9, 2, 7]	18.0	catFR1	0	R1111M
85186.989	5.076	164049	PROB	5.076	n/a	n/a	n/a	-999	2	[9, 2, 3]	14.0	catFR1	0	R1111M
85192.065	0.008	166587	STOP	n/a	n/a	n/a	n/a	-999	2	[-999, -999, -999]	n/a	catFR1	0	R1111M
85192.073	1.121	166591	DISTRACT_END	n/a	n/a	n/a	n/a	-999	1	[0, 0, 0]	n/a	catFR1	0	R1111M
85193.194	3.856	167152	REC_START	n/a	n/a	n/a	n/a	-999	1	[0, 0, 0]	n/a	catFR1	0	R1111M
85197.05	0.865	169080	REC_WORD	3.856	n/a	ROACH	Insects	5	1	[0, 0, 0]	n/a	catFR1	0	R1111M
85197.915	1.877	169512	REC_WORD	4.721	n/a	BEE	Insects	6	1	[0, 0, 0]	n/a	catFR1	0	R1111M
85199.792	3.213	170451	REC_WORD	6.598	n/a	MOPED	Vehicles	1	1	[0, 0, 0]	n/a	catFR1	0	R1111M
85203.005	3.517	172057	REC_WORD	9.811	n/a	MOTORCYCLE	Vehicles	10	1	[0, 0, 0]	n/a	catFR1	0	R1111M
85206.522	2.723	173815	REC_WORD	13.328	n/a	PLANE	Vehicles	9	1	[0, 0, 0]	n/a	catFR1	0	R1111M
85209.245	0.938	175177	REC_WORD	16.051	n/a	FUDGE	Desserts	8	1	[0, 0, 0]	n/a	catFR1	0	R1111M
85210.183	9.844	175646	REC_WORD	16.989	n/a	MOUSSE	Desserts	7	1	[0, 0, 0]	n/a	catFR1	0	R1111M
85220.027	3.174	180568	REC_WORD	26.833	n/a	CAR	n/a	-999	1	[0, 0, 0]	n/a	catFR1	0	R1111M
85223.201	18.732	182154	REC_END	n/a	n/a	n/a	n/a	-999	1	[0, 0, 0]	n/a	catFR1	0	R1111M
85241.933	0.001	191520	COUNTDOWN_START	n/a	n/a	n/a	n/a	-999	2	[0, 0, 0]	n/a	catFR1	0	R1111M
85241.934	10.427	191520	TRIAL	n/a	n/a	n/a	n/a	-999	2	[0, 0, 0]	n/a	catFR1	0	R1111M
85252.361	0.007	196734	COUNTDOWN_END	n/a	n/a	n/a	n/a	-999	2	[0, 0, 0]	n/a	catFR1	0	R1111M
85252.368	3.601	196737	ORIENT	n/a	n/a	n/a	n/a	-999	2	[0, 0, 0]	n/a	catFR1	0	R1111M
85255.969	2.433	198538	WORD	n/a	wordpools/wordpool_categorized_EN.txt	HEADPHONES	Electronics	1	2	[0, 0, 0]	n/a	catFR1	0	R1111M
85258.402	2.535	199754	WORD	n/a	wordpools/wordpool_categorized_EN.txt	RADIO	Electronics	2	2	[0, 0, 0]	n/a	catFR1	0	R1111M
85260.937	2.6	201021	WORD	n/a	wordpools/wordpool_categorized_EN.txt	DOVE	Birds	3	2	[0, 0, 0]	n/a	catFR1	0	R1111M
85263.537	2.55	202321	WORD	n/a	wordpools/wordpool_categorized_EN.txt	CROW	Birds	4	2	[0, 0, 0]	n/a	catFR1	0	R1111M
85266.087	2.451	203596	WORD	n/a	wordpools/wordpool_categorized_EN.txt	SHOVEL	Tools	5	2	[0, 0, 0]	n/a	catFR1	0	R1111M
85268.538	2.467	204822	WORD	n/a	wordpools/wordpool_categorized_EN.txt	SCREWDRIVER	Tools	6	2	[0, 0, 0]	n/a	catFR1	0	R1111M
85271.005	2.6	206055	WORD	n/a	wordpools/wordpool_categorized_EN.txt	SCANNER	Electronics	7	2	[0, 0, 0]	n/a	catFR1	0	R1111M
85273.605	2.401	207355	WORD	n/a	wordpools/wordpool_categorized_EN.txt	TELEVISION	Electronics	8	2	[0, 0, 0]	n/a	catFR1	0	R1111M
85276.006	2.584	208555	WORD	n/a	wordpools/wordpool_categorized_EN.txt	RATCHET	Tools	9	2	[0, 0, 0]	n/a	catFR1	0	R1111M
85278.59	2.5	209847	WORD	n/a	wordpools/wordpool_categorized_EN.txt	PLIERS	Tools	10	2	[0, 0, 0]	n/a	catFR1	0	R1111M
85281.09	2.634	211097	WORD	n/a	wordpools/wordpool_categorized_EN.txt	SEAGULL	Birds	11	2	[0, 0, 0]	n/a	catFR1	0	R1111M
85283.724	1.617	212414	WORD	n/a	wordpools/wordpool_categorized_EN.txt	FINCH	Birds	12	2	[0, 0, 0]	n/a	catFR1	0	R1111M
85285.341	0.001	213223	DISTRACT_START	n/a	n/a	n/a	n/a	-999	2	[0, 0, 0]	n/a	catFR1	0	R1111M
85285.342	0.016	213223	START	n/a	n/a	n/a	n/a	-999	3	[-999, -999, -999]	n/a	catFR1	0	R1111M
85285.358	15.47	213231	PROB	15.435	n/a	n/a	n/a	-999	3	[4, 8, 3]	15.0	catFR1	0	R1111M
85300.828	7.27	220966	PROB	7.27	n/a	n/a	n/a	-999	3	[2, 3, 1]	6.0	catFR1	0	R1111M
85308.098	0.014	224601	STOP	n/a	n/a	n/a	n/a	-999	3	[-999, -999, -999]	n/a	catFR1	0	R1111M
85308.112	1.067	224608	DISTRACT_END	n/a	n/a	n/a	n/a	-999	2	[0, 0, 0]	n/a	catFR1	0	R1111M
85309.179	3.268	225141	REC_START	n/a	n/a	n/a	n/a	-999	2	[0, 0, 0]	n/a	catFR1	0	R1111M
85312.447	2.815	226775	REC_WORD	3.268	n/a	FLY	n/a	-999	2	[0, 0, 0]	n/a	catFR1	0	R1111M
85315.262	7.652	228182	REC_WORD	6.083	n/a	GNAT	n/a	-999	2	[0, 0, 0]	n/a	catFR1	0	R1111M
85322.914	16.279	232008	REC_WORD	13.735	n/a	SCREWDRIVER	Tools	6	2	[0, 0, 0]	n/a	catFR1	0	R1111M
85339.193	15.928	240147	REC_END	n/a	n/a	n/a	n/a	-999	2	[0, 0, 0]	n/a	catFR1	0	R1111M
85355.121	0.0	248111	TRIAL	n/a	n/a	n/a	n/a	-999	3	[0, 0, 0]	n/a	catFR1	0	R1111M
85355.121	10.428	248111	COUNTDOWN_START	n/a	n/a	n/a	n/a	-999	3	[0, 0, 0]	n/a	catFR1	0	R1111M
85365.549	0.007	253324	COUNTDOWN_END	n/a	n/a	n/a	n/a	-999	3	[0, 0, 0]	n/a	catFR1	0	R1111M
85365.556	3.751	253328	ORIENT	n/a	n/a	n/a	n/a	-999	3	[0, 0, 0]	n/a	catFR1	0	R1111M
85369.307	2.551	255203	WORD	n/a	wordpools/wordpool_categorized_EN.txt	HAMMER	Tools	1	3	[0, 0, 0]	n/a	catFR1	0	R1111M
85371.858	2.483	256479	WORD	n/a	wordpools/wordpool_categorized_EN.txt	LEVEL	Tools	2	3	[0, 0, 0]	n/a	catFR1	0	R1111M
85374.341	2.401	257720	WORD	n/a	wordpools/wordpool_categorized_EN.txt	ANT	Insects	3	3	[0, 0, 0]	n/a	catFR1	0	R1111M
85376.742	2.584	258921	WORD	n/a	wordpools/wordpool_categorized_EN.txt	SPIDER	Insects	4	3	[0, 0, 0]	n/a	catFR1	0	R1111M
85379.326	2.618	260213	WORD	n/a	wordpools/wordpool_categorized_EN.txt	LOBSTER	OceanAnimals	5	3	[0, 0, 0]	n/a	catFR1	0	R1111M
85381.944	2.633	261521	WORD	n/a	wordpools/wordpool_categorized_EN.txt	DOLPHIN	OceanAnimals	6	3	[0, 0, 0]	n/a	catFR1	0	R1111M
85384.577	2.45	262838	WORD	n/a	wordpools/wordpool_categorized_EN.txt	AXE	Tools	7	3	[0, 0, 0]	n/a	catFR1	0	R1111M
85387.027	2.6	264063	WORD	n/a	wordpools/wordpool_categorized_EN.txt	DRILL	Tools	8	3	[0, 0, 0]	n/a	catFR1	0	R1111M
85389.627	2.501	265363	WORD	n/a	wordpools/wordpool_categorized_EN.txt	OYSTER	OceanAnimals	9	3	[0, 0, 0]	n/a	catFR1	0	R1111M
85392.128	2.584	266613	WORD	n/a	wordpools/wordpool_categorized_EN.txt	FISH	OceanAnimals	10	3	[0, 0, 0]	n/a	catFR1	0	R1111M
85394.712	2.417	267905	WORD	n/a	wordpools/wordpool_categorized_EN.txt	CRICKET	Insects	11	3	[0, 0, 0]	n/a	catFR1	0	R1111M
85397.129	1.617	269113	WORD	n/a	wordpools/wordpool_categorized_EN.txt	FLY	Insects	12	3	[0, 0, 0]	n/a	catFR1	0	R1111M
85398.746	0.001	269922	DISTRACT_START	n/a	n/a	n/a	n/a	-999	3	[0, 0, 0]	n/a	catFR1	0	R1111M
85398.747	0.016	269922	START	n/a	n/a	n/a	n/a	-999	4	[-999, -999, -999]	n/a	catFR1	0	R1111M
85398.763	6.501	269930	PROB	6.478	n/a	n/a	n/a	-999	4	[5, 4, 1]	10.0	catFR1	0	R1111M
85405.264	6.901	273181	PROB	6.873	n/a	n/a	n/a	-999	4	[3, 4, 6]	13.0	catFR1	0	R1111M
85412.165	6.385	276631	PROB	6.365	n/a	n/a	n/a	-999	4	[9, 2, 9]	20.0	catFR1	0	R1111M
85418.55	11.7	279823	PROB	11.7	n/a	n/a	n/a	-999	4	[2, 6, 3]	11.0	catFR1	0	R1111M
85430.25	0.019	285673	STOP	n/a	n/a	n/a	n/a	-999	4	[-999, -999, -999]	n/a	catFR1	0	R1111M
85430.269	1.151	285683	DISTRACT_END	n/a	n/a	n/a	n/a	-999	3	[0, 0, 0]	n/a	catFR1	0	R1111M
85431.42	7.151	286258	REC_START	n/a	n/a	n/a	n/a	-999	3	[0, 0, 0]	n/a	catFR1	0	R1111M
85438.571	3.105	289833	REC_WORD	7.151	n/a	LOBSTER	OceanAnimals	5	3	[0, 0, 0]	n/a	catFR1	0	R1111M
85441.676	2.553	291386	REC_WORD	10.256	n/a	HAMMER	Tools	1	3	[0, 0, 0]	n/a	catFR1	0	R1111M
85444.229	4.571	292662	REC_WORD	12.809	n/a	LEVEL	Tools	2	3	[0, 0, 0]	n/a	catFR1	0	R1111M
85448.8	12.629	294948	REC_WORD	17.38	n/a	ANT	Insects	3	3	[0, 0, 0]	n/a	catFR1	0	R1111M
85461.429	5.03	301262	REC_END	n/a	n/a	n/a	n/a	-999	3	[0, 0, 0]	n/a	catFR1	0	R1111M
85466.459	0.0	303777	TRIAL	n/a	n/a	n/a	n/a	-999	4	[0, 0, 0]	n/a	catFR1	0	R1111M
85466.459	10.428	303777	COUNTDOWN_START	n/a	n/a	n/a	n/a	-999	4	[0, 0, 0]	n/a	catFR1	0	R1111M
85476.887	0.008	308990	COUNTDOWN_END	n/a	n/a	n/a	n/a	-999	4	[0, 0, 0]	n/a	catFR1	0	R1111M
85476.895	3.867	308994	ORIENT	n/a	n/a	n/a	n/a	-999	4	[0, 0, 0]	n/a	catFR1	0	R1111M
85480.762	2.55	310928	WORD	n/a	wordpools/wordpool_categorized_EN.txt	SPINACH	Vegetables	1	4	[0, 0, 0]	n/a	catFR1	0	R1111M
85483.312	2.451	312203	WORD	n/a	wordpools/wordpool_categorized_EN.txt	CABBAGE	Vegetables	2	4	[0, 0, 0]	n/a	catFR1	0	R1111M
85485.763	2.5	313428	WORD	n/a	wordpools/wordpool_categorized_EN.txt	BIKE	Vehicles	3	4	[0, 0, 0]	n/a	catFR1	0	R1111M
85488.263	2.552	314678	WORD	n/a	wordpools/wordpool_categorized_EN.txt	CAR	Vehicles	4	4	[0, 0, 0]	n/a	catFR1	0	R1111M
85490.815	2.483	315954	WORD	n/a	wordpools/wordpool_categorized_EN.txt	UNDERWEAR	Clothing	5	4	[0, 0, 0]	n/a	catFR1	0	R1111M
85493.298	2.4	317195	WORD	n/a	wordpools/wordpool_categorized_EN.txt	PANTS	Clothing	6	4	[0, 0, 0]	n/a	catFR1	0	R1111M
85495.698	2.501	318395	WORD	n/a	wordpools/wordpool_categorized_EN.txt	POTATO	Vegetables	7	4	[0, 0, 0]	n/a	catFR1	0	R1111M
85498.199	2.483	319646	WORD	n/a	wordpools/wordpool_categorized_EN.txt	CARROT	Vegetables	8	4	[0, 0, 0]	n/a	catFR1	0	R1111M
85500.682	2.517	320887	WORD	n/a	wordpools/wordpool_categorized_EN.txt	SHIRT	Clothing	9	4	[0, 0, 0]	n/a	catFR1	0	R1111M
85503.199	2.451	322145	WORD	n/a	wordpools/wordpool_categorized_EN.txt	SOCKS	Clothing	10	4	[0, 0, 0]	n/a	catFR1	0	R1111M
85505.65	2.484	323371	WORD	n/a	wordpools/wordpool_categorized_EN.txt	TRAIN	Vehicles	11	4	[0, 0, 0]	n/a	catFR1	0	R1111M
85508.134	1.617	324613	WORD	n/a	wordpools/wordpool_categorized_EN.txt	BOAT	Vehicles	12	4	[0, 0, 0]	n/a	catFR1	0	R1111M
85509.751	0.0	325421	DISTRACT_START	n/a	n/a	n/a	n/a	-999	4	[0, 0, 0]	n/a	catFR1	0	R1111M
85509.751	0.016	325421	START	n/a	n/a	n/a	n/a	-999	5	[-999, -999, -999]	n/a	catFR1	0	R1111M
85509.767	12.486	325429	PROB	12.451	n/a	n/a	n/a	-999	5	[3, 5, 9]	17.0	catFR1	0	R1111M
85522.253	6.118	331672	PROB	6.092	n/a	n/a	n/a	-999	5	[8, 8, 5]	21.0	catFR1	0	R1111M
85528.371	5.206	334731	PROB	5.206	n/a	n/a	n/a	-999	5	[1, 4, 2]	7.0	catFR1	0	R1111M
85533.577	0.012	337334	STOP	n/a	n/a	n/a	n/a	-999	5	[-999, -999, -999]	n/a	catFR1	0	R1111M
85533.589	1.084	337340	DISTRACT_END	n/a	n/a	n/a	n/a	-999	4	[0, 0, 0]	n/a	catFR1	0	R1111M
85534.673	2.711	337882	REC_START	n/a	n/a	n/a	n/a	-999	4	[0, 0, 0]	n/a	catFR1	0	R1111M
85537.384	2.368	339237	REC_WORD	2.711	n/a	CABBAGE	Vegetables	2	4	[0, 0, 0]	n/a	catFR1	0	R1111M
85539.752	7.188	340421	REC_WORD	5.079	n/a	POTATO	Vegetables	7	4	[0, 0, 0]	n/a	catFR1	0	R1111M
85546.94	2.448	344015	REC_WORD	12.267	n/a	SPINACH	Vegetables	1	4	[0, 0, 0]	n/a	catFR1	0	R1111M
85549.388	8.896	345239	REC_WORD	14.715	n/a	CARROT	Vegetables	8	4	[0, 0, 0]	n/a	catFR1	0	R1111M
85558.284	2.26	349686	REC_WORD	23.611	n/a	UNDERWATER	n/a	-999	4	[0, 0, 0]	n/a	catFR1	0	R1111M
85560.544	2.257	350816	REC_WORD	25.871	n/a	CAR	Vehicles	4	4	[0, 0, 0]	n/a	catFR1	0	R1111M
85562.801	1.881	351945	REC_WORD	28.128	n/a	SHIRT	Clothing	9	4	[0, 0, 0]	n/a	catFR1	0	R1111M
85564.682	16.366	352885	REC_END	n/a	n/a	n/a	n/a	-999	4	[0, 0, 0]	n/a	catFR1	0	R1111M
85581.048	0.0	361068	COUNTDOWN_START	n/a	n/a	n/a	n/a	-999	5	[0, 0, 0]	n/a	catFR1	0	R1111M
85581.048	10.428	361068	TRIAL	n/a	n/a	n/a	n/a	-999	5	[0, 0, 0]	n/a	catFR1	0	R1111M
85591.476	0.007	366281	COUNTDOWN_END	n/a	n/a	n/a	n/a	-999	5	[0, 0, 0]	n/a	catFR1	0	R1111M
85591.483	3.784	366285	ORIENT	n/a	n/a	n/a	n/a	-999	5	[0, 0, 0]	n/a	catFR1	0	R1111M
85595.267	2.534	368177	WORD	n/a	wordpools/wordpool_categorized_EN.txt	BEACH	Landscapes	1	5	[0, 0, 0]	n/a	catFR1	0	R1111M
85597.801	2.451	369444	WORD	n/a	wordpools/wordpool_categorized_EN.txt	STREAM	Landscapes	2	5	[0, 0, 0]	n/a	catFR1	0	R1111M
85600.252	2.55	370669	WORD	n/a	wordpools/wordpool_categorized_EN.txt	CRAB	OceanAnimals	3	5	[0, 0, 0]	n/a	catFR1	0	R1111M
85602.802	2.384	371944	WORD	n/a	wordpools/wordpool_categorized_EN.txt	SQUID	OceanAnimals	4	5	[0, 0, 0]	n/a	catFR1	0	R1111M
85605.186	2.4	373136	WORD	n/a	wordpools/wordpool_categorized_EN.txt	IRON	Appliances	5	5	[0, 0, 0]	n/a	catFR1	0	R1111M
85607.586	2.501	374336	WORD	n/a	wordpools/wordpool_categorized_EN.txt	WASHER	Appliances	6	5	[0, 0, 0]	n/a	catFR1	0	R1111M
85610.087	2.4	375586	WORD	n/a	wordpools/wordpool_categorized_EN.txt	OCEAN	Landscapes	7	5	[0, 0, 0]	n/a	catFR1	0	R1111M
85612.487	2.517	376786	WORD	n/a	wordpools/wordpool_categorized_EN.txt	VALLEY	Landscapes	8	5	[0, 0, 0]	n/a	catFR1	0	R1111M
85615.004	2.468	378045	WORD	n/a	wordpools/wordpool_categorized_EN.txt	TOASTER	Appliances	9	5	[0, 0, 0]	n/a	catFR1	0	R1111M
85617.472	2.418	379279	WORD	n/a	wordpools/wordpool_categorized_EN.txt	STOVE	Appliances	10	5	[0, 0, 0]	n/a	catFR1	0	R1111M
85619.89	2.566	380488	WORD	n/a	wordpools/wordpool_categorized_EN.txt	TURTLE	OceanAnimals	11	5	[0, 0, 0]	n/a	catFR1	0	R1111M
85622.456	1.617	381771	WORD	n/a	wordpools/wordpool_categorized_EN.txt	PLANKTON	OceanAnimals	12	5	[0, 0, 0]	n/a	catFR1	0	R1111M
85624.073	0.001	382579	DISTRACT_START	n/a	n/a	n/a	n/a	-999	5	[0, 0, 0]	n/a	catFR1	0	R1111M
85624.074	0.015	382580	START	n/a	n/a	n/a	n/a	-999	6	[-999, -999, -999]	n/a	catFR1	0	R1111M
85624.089	14.37	382587	PROB	14.336	n/a	n/a	n/a	-999	6	[3, 9, 5]	17.0	catFR1	0	R1111M
85638.459	4.051	389772	PROB	4.022	n/a	n/a	n/a	-999	6	[1, 8, 3]	12.0	catFR1	0	R1111M
85642.51	6.804	391797	PROB	6.804	n/a	n/a	n/a	-999	6	[6, 4, 4]	14.0	catFR1	0	R1111M
85649.314	0.014	395199	STOP	n/a	n/a	n/a	n/a	-999	6	[-999, -999, -999]	n/a	catFR1	0	R1111M
85649.328	1.168	395206	DISTRACT_END	n/a	n/a	n/a	n/a	-999	5	[0, 0, 0]	n/a	catFR1	0	R1111M
85650.496	3.127	395790	REC_START	n/a	n/a	n/a	n/a	-999	5	[0, 0, 0]	n/a	catFR1	0	R1111M
85653.623	2.689	397353	REC_WORD	3.127	n/a	BEACH	Landscapes	1	5	[0, 0, 0]	n/a	catFR1	0	R1111M
85656.312	3.62	398698	REC_WORD	5.816	n/a	STEAM	n/a	-999	5	[0, 0, 0]	n/a	catFR1	0	R1111M
85659.932	4.494	400508	REC_WORD	9.436	n/a	CRAB	OceanAnimals	3	5	[0, 0, 0]	n/a	catFR1	0	R1111M
85664.426	2.289	402754	REC_WORD	13.93	n/a	IRON	Appliances	5	5	[0, 0, 0]	n/a	catFR1	0	R1111M
85666.715	13.79	403899	REC_WORD	16.219	n/a	SQUID	OceanAnimals	4	5	[0, 0, 0]	n/a	catFR1	0	R1111M
85680.505	10.432	410793	REC_END	n/a	n/a	n/a	n/a	-999	5	[0, 0, 0]	n/a	catFR1	0	R1111M
85690.937	0.0	416009	TRIAL	n/a	n/a	n/a	n/a	-999	6	[0, 0, 0]	n/a	catFR1	0	R1111M
85690.937	10.428	416009	COUNTDOWN_START	n/a	n/a	n/a	n/a	-999	6	[0, 0, 0]	n/a	catFR1	0	R1111M
85701.365	0.006	421223	COUNTDOWN_END	n/a	n/a	n/a	n/a	-999	6	[0, 0, 0]	n/a	catFR1	0	R1111M
85701.371	3.701	421226	ORIENT	n/a	n/a	n/a	n/a	-999	6	[0, 0, 0]	n/a	catFR1	0	R1111M
85705.072	2.517	423076	WORD	n/a	wordpools/wordpool_categorized_EN.txt	LEMON	Fruit	1	6	[0, 0, 0]	n/a	catFR1	0	R1111M
85707.589	2.55	424335	WORD	n/a	wordpools/wordpool_categorized_EN.txt	ORANGE	Fruit	2	6	[0, 0, 0]	n/a	catFR1	0	R1111M
85710.139	2.617	425610	WORD	n/a	wordpools/wordpool_categorized_EN.txt	NOTEBOOK	OfficeSupplies	3	6	[0, 0, 0]	n/a	catFR1	0	R1111M
85712.756	2.618	426918	WORD	n/a	wordpools/wordpool_categorized_EN.txt	ERASER	OfficeSupplies	4	6	[0, 0, 0]	n/a	catFR1	0	R1111M
85715.374	2.434	428227	WORD	n/a	wordpools/wordpool_categorized_EN.txt	ZEBRA	Zoo	5	6	[0, 0, 0]	n/a	catFR1	0	R1111M
85717.808	2.483	429444	WORD	n/a	wordpools/wordpool_categorized_EN.txt	PANDA	Zoo	6	6	[0, 0, 0]	n/a	catFR1	0	R1111M
85720.291	2.484	430685	WORD	n/a	wordpools/wordpool_categorized_EN.txt	RULER	OfficeSupplies	7	6	[0, 0, 0]	n/a	catFR1	0	R1111M
85722.775	2.45	431927	WORD	n/a	wordpools/wordpool_categorized_EN.txt	PAPER	OfficeSupplies	8	6	[0, 0, 0]	n/a	catFR1	0	R1111M
85725.225	2.585	433152	WORD	n/a	wordpools/wordpool_categorized_EN.txt	GRAPE	Fruit	9	6	[0, 0, 0]	n/a	catFR1	0	R1111M
85727.81	2.483	434445	WORD	n/a	wordpools/wordpool_categorized_EN.txt	PLUM	Fruit	10	6	[0, 0, 0]	n/a	catFR1	0	R1111M
85730.293	2.585	435686	WORD	n/a	wordpools/wordpool_categorized_EN.txt	GORILLA	Zoo	11	6	[0, 0, 0]	n/a	catFR1	0	R1111M
85732.878	1.616	436978	WORD	n/a	wordpools/wordpool_categorized_EN.txt	ELEPHANT	Zoo	12	6	[0, 0, 0]	n/a	catFR1	0	R1111M
85734.494	0.001	437786	DISTRACT_START	n/a	n/a	n/a	n/a	-999	6	[0, 0, 0]	n/a	catFR1	0	R1111M
85734.495	0.016	437787	START	n/a	n/a	n/a	n/a	-999	7	[-999, -999, -999]	n/a	catFR1	0	R1111M
85734.511	10.518	437795	PROB	10.49	n/a	n/a	n/a	-999	7	[3, 4, 2]	9.0	catFR1	0	R1111M
85745.029	6.485	443054	PROB	6.46	n/a	n/a	n/a	-999	7	[4, 6, 6]	16.0	catFR1	0	R1111M
85751.514	4.007	446296	PROB	4.007	n/a	n/a	n/a	-999	7	[9, 1, 1]	11.0	catFR1	0	R1111M
85755.521	0.011	448299	STOP	n/a	n/a	n/a	n/a	-999	7	[-999, -999, -999]	n/a	catFR1	0	R1111M
85755.532	1.034	448305	DISTRACT_END	n/a	n/a	n/a	n/a	-999	6	[0, 0, 0]	n/a	catFR1	0	R1111M
85756.566	5.592	448822	REC_START	n/a	n/a	n/a	n/a	-999	6	[0, 0, 0]	n/a	catFR1	0	R1111M
85762.158	1.172	451618	REC_WORD	5.592	n/a	NOTEBOOK	OfficeSupplies	3	6	[0, 0, 0]	n/a	catFR1	0	R1111M
85763.33	1.116	452204	REC_WORD	6.764	n/a	ERASER	OfficeSupplies	4	6	[0, 0, 0]	n/a	catFR1	0	R1111M
85764.446	2.211	452762	REC_WORD	7.88	n/a	ZEBRA	Zoo	5	6	[0, 0, 0]	n/a	catFR1	0	R1111M
85766.657	19.918	453867	REC_WORD	10.091	n/a	GORILLA	Zoo	11	6	[0, 0, 0]	n/a	catFR1	0	R1111M
85786.575	3.496	463825	REC_END	n/a	n/a	n/a	n/a	-999	6	[0, 0, 0]	n/a	catFR1	0	R1111M
85790.071	0.001	465573	COUNTDOWN_START	n/a	n/a	n/a	n/a	-999	7	[0, 0, 0]	n/a	catFR1	0	R1111M
85790.072	10.427	465574	TRIAL	n/a	n/a	n/a	n/a	-999	7	[0, 0, 0]	n/a	catFR1	0	R1111M
85800.499	0.008	470787	COUNTDOWN_END	n/a	n/a	n/a	n/a	-999	7	[0, 0, 0]	n/a	catFR1	0	R1111M
85800.507	3.884	470791	ORIENT	n/a	n/a	n/a	n/a	-999	7	[0, 0, 0]	n/a	catFR1	0	R1111M
85804.391	2.384	472733	WORD	n/a	wordpools/wordpool_categorized_EN.txt	WINE	Beverages	1	7	[0, 0, 0]	n/a	catFR1	0	R1111M
85806.775	2.433	473925	WORD	n/a	wordpools/wordpool_categorized_EN.txt	WATER	Beverages	2	7	[0, 0, 0]	n/a	catFR1	0	R1111M
85809.208	2.484	475141	WORD	n/a	wordpools/wordpool_categorized_EN.txt	BARBIE	Toys	3	7	[0, 0, 0]	n/a	catFR1	0	R1111M
85811.692	2.434	476383	WORD	n/a	wordpools/wordpool_categorized_EN.txt	BLOCKS	Toys	4	7	[0, 0, 0]	n/a	catFR1	0	R1111M
85814.126	2.534	477600	WORD	n/a	wordpools/wordpool_categorized_EN.txt	SHRIMP	OceanAnimals	5	7	[0, 0, 0]	n/a	catFR1	0	R1111M
85816.66	2.584	478867	WORD	n/a	wordpools/wordpool_categorized_EN.txt	WHALE	OceanAnimals	6	7	[0, 0, 0]	n/a	catFR1	0	R1111M
85819.244	2.4	480159	WORD	n/a	wordpools/wordpool_categorized_EN.txt	DOLL	Toys	7	7	[0, 0, 0]	n/a	catFR1	0	R1111M
85821.644	2.417	481359	WORD	n/a	wordpools/wordpool_categorized_EN.txt	DOLLHOUSE	Toys	8	7	[0, 0, 0]	n/a	catFR1	0	R1111M
85824.061	2.534	482567	WORD	n/a	wordpools/wordpool_categorized_EN.txt	RUM	Beverages	9	7	[0, 0, 0]	n/a	catFR1	0	R1111M
85826.595	2.451	483834	WORD	n/a	wordpools/wordpool_categorized_EN.txt	TEA	Beverages	10	7	[0, 0, 0]	n/a	catFR1	0	R1111M
85829.046	2.467	485060	WORD	n/a	wordpools/wordpool_categorized_EN.txt	OCTOPUS	OceanAnimals	11	7	[0, 0, 0]	n/a	catFR1	0	R1111M
85831.513	1.617	486293	WORD	n/a	wordpools/wordpool_categorized_EN.txt	JELLYFISH	OceanAnimals	12	7	[0, 0, 0]	n/a	catFR1	0	R1111M
85833.13	0.001	487102	DISTRACT_START	n/a	n/a	n/a	n/a	-999	7	[0, 0, 0]	n/a	catFR1	0	R1111M
85833.131	0.015	487102	START	n/a	n/a	n/a	n/a	-999	8	[-999, -999, -999]	n/a	catFR1	0	R1111M
85833.146	7.335	487110	PROB	7.303	n/a	n/a	n/a	-999	8	[9, 7, 3]	19.0	catFR1	0	R1111M
85840.481	12.553	490777	PROB	12.52	n/a	n/a	n/a	-999	8	[2, 9, 8]	19.0	catFR1	0	R1111M
85853.034	7.663	497053	PROB	7.663	n/a	n/a	n/a	-999	8	[4, 5, 9]	18.0	catFR1	0	R1111M
85860.697	0.005	500884	STOP	n/a	n/a	n/a	n/a	-999	8	[-999, -999, -999]	n/a	catFR1	0	R1111M
85860.702	1.135	500887	DISTRACT_END	n/a	n/a	n/a	n/a	-999	7	[0, 0, 0]	n/a	catFR1	0	R1111M
85861.837	1.871	501454	REC_START	n/a	n/a	n/a	n/a	-999	7	[0, 0, 0]	n/a	catFR1	0	R1111M
85863.708	0.794	502390	REC_WORD	1.871	n/a	WATER	Beverages	2	7	[0, 0, 0]	n/a	catFR1	0	R1111M
85864.502	1.342	502787	REC_WORD	2.665	n/a	WINE	Beverages	1	7	[0, 0, 0]	n/a	catFR1	0	R1111M
85865.844	0.529	503458	REC_WORD	4.007	n/a	BARBIE	Toys	3	7	[0, 0, 0]	n/a	catFR1	0	R1111M
85866.373	4.702	503722	REC_WORD	4.536	n/a	BLOCKS	Toys	4	7	[0, 0, 0]	n/a	catFR1	0	R1111M
85871.075	5.862	506073	REC_WORD	9.238	n/a	OCTOPUS	OceanAnimals	11	7	[0, 0, 0]	n/a	catFR1	0	R1111M
85876.937	6.87	509004	REC_WORD	15.1	n/a	JELLYFISH	OceanAnimals	12	7	[0, 0, 0]	n/a	catFR1	0	R1111M
85883.807	0.832	512439	REC_WORD	21.97	n/a	SUGAR	n/a	-999	7	[0, 0, 0]	n/a	catFR1	0	R1111M
85884.639	7.208	512855	REC_WORD	22.802	n/a	RUM	Beverages	9	7	[0, 0, 0]	n/a	catFR1	0	R1111M
85891.847	10.246	516458	REC_END	n/a	n/a	n/a	n/a	-999	7	[0, 0, 0]	n/a	catFR1	0	R1111M
85902.093	0.0	521581	COUNTDOWN_START	n/a	n/a	n/a	n/a	-999	8	[0, 0, 0]	n/a	catFR1	0	R1111M
85902.093	10.428	521581	TRIAL	n/a	n/a	n/a	n/a	-999	8	[0, 0, 0]	n/a	catFR1	0	R1111M
85912.521	0.007	526795	COUNTDOWN_END	n/a	n/a	n/a	n/a	-999	8	[0, 0, 0]	n/a	catFR1	0	R1111M
85912.528	3.568	526798	ORIENT	n/a	n/a	n/a	n/a	-999	8	[0, 0, 0]	n/a	catFR1	0	R1111M
85916.096	2.417	528582	WORD	n/a	wordpools/wordpool_categorized_EN.txt	MOSQUITO	Insects	1	8	[0, 0, 0]	n/a	catFR1	0	R1111M
85918.513	2.5	529791	WORD	n/a	wordpools/wordpool_categorized_EN.txt	BUTTERFLY	Insects	2	8	[0, 0, 0]	n/a	catFR1	0	R1111M
85921.013	2.518	531041	WORD	n/a	wordpools/wordpool_categorized_EN.txt	RAIN	Weather	3	8	[0, 0, 0]	n/a	catFR1	0	R1111M
85923.531	2.583	532300	WORD	n/a	wordpools/wordpool_categorized_EN.txt	WIND	Weather	4	8	[0, 0, 0]	n/a	catFR1	0	R1111M
85926.114	2.518	533591	WORD	n/a	wordpools/wordpool_categorized_EN.txt	VIOLET	Flowers	5	8	[0, 0, 0]	n/a	catFR1	0	R1111M
85928.632	2.483	534850	WORD	n/a	wordpools/wordpool_categorized_EN.txt	SUNFLOWER	Flowers	6	8	[0, 0, 0]	n/a	catFR1	0	R1111M
85931.115	2.567	536091	WORD	n/a	wordpools/wordpool_categorized_EN.txt	THUNDERSTORM	Weather	7	8	[0, 0, 0]	n/a	catFR1	0	R1111M
85933.682	2.384	537375	WORD	n/a	wordpools/wordpool_categorized_EN.txt	SNOW	Weather	8	8	[0, 0, 0]	n/a	catFR1	0	R1111M
85936.066	2.551	538567	WORD	n/a	wordpools/wordpool_categorized_EN.txt	LADYBUG	Insects	9	8	[0, 0, 0]	n/a	catFR1	0	R1111M
85938.617	2.534	539842	WORD	n/a	wordpools/wordpool_categorized_EN.txt	BEETLE	Insects	10	8	[0, 0, 0]	n/a	catFR1	0	R1111M
85941.151	2.434	541109	WORD	n/a	wordpools/wordpool_categorized_EN.txt	PETUNIA	Flowers	11	8	[0, 0, 0]	n/a	catFR1	0	R1111M
85943.585	1.617	542326	WORD	n/a	wordpools/wordpool_categorized_EN.txt	LILAC	Flowers	12	8	[0, 0, 0]	n/a	catFR1	0	R1111M
85945.202	0.0	543134	DISTRACT_START	n/a	n/a	n/a	n/a	-999	8	[0, 0, 0]	n/a	catFR1	0	R1111M
85945.202	0.016	543134	START	n/a	n/a	n/a	n/a	-999	9	[-999, -999, -999]	n/a	catFR1	0	R1111M
85945.218	16.953	543142	PROB	16.928	n/a	n/a	n/a	-999	9	[9, 2, 5]	16.0	catFR1	0	R1111M
85962.171	12.134	551618	PROB	12.134	n/a	n/a	n/a	-999	9	[8, 2, 5]	15.0	catFR1	0	R1111M
85974.305	0.019	557685	STOP	n/a	n/a	n/a	n/a	-999	9	[-999, -999, -999]	n/a	catFR1	0	R1111M
85974.324	1.151	557695	DISTRACT_END	n/a	n/a	n/a	n/a	-999	8	[0, 0, 0]	n/a	catFR1	0	R1111M
85975.475	3.413	558270	REC_START	n/a	n/a	n/a	n/a	-999	8	[0, 0, 0]	n/a	catFR1	0	R1111M
85978.888	2.139	559976	REC_WORD	3.413	n/a	SNOW	Weather	8	8	[0, 0, 0]	n/a	catFR1	0	R1111M
85981.027	3.355	561046	REC_WORD	5.552	n/a	THUNDERSTORM	Weather	7	8	[0, 0, 0]	n/a	catFR1	0	R1111M
85984.382	5.161	562723	REC_WORD	8.907	n/a	MOSQUITO	Insects	1	8	[0, 0, 0]	n/a	catFR1	0	R1111M
85989.543	4.958	565304	REC_WORD	14.068	n/a	BUTTERFLY	Insects	2	8	[0, 0, 0]	n/a	catFR1	0	R1111M
85994.501	10.993	567782	REC_WORD	19.026	n/a	LILAC	Flowers	12	8	[0, 0, 0]	n/a	catFR1	0	R1111M
86005.494	5.654	573279	REC_END	n/a	n/a	n/a	n/a	-999	8	[0, 0, 0]	n/a	catFR1	0	R1111M
86011.148	0.0	576106	TRIAL	n/a	n/a	n/a	n/a	-999	9	[0, 0, 0]	n/a	catFR1	0	R1111M
86011.148	10.428	576106	COUNTDOWN_START	n/a	n/a	n/a	n/a	-999	9	[0, 0, 0]	n/a	catFR1	0	R1111M
86021.576	0.007	581319	COUNTDOWN_END	n/a	n/a	n/a	n/a	-999	9	[0, 0, 0]	n/a	catFR1	0	R1111M
86021.583	3.751	581323	ORIENT	n/a	n/a	n/a	n/a	-999	9	[0, 0, 0]	n/a	catFR1	0	R1111M
86025.334	2.618	583198	WORD	n/a	wordpools/wordpool_categorized_EN.txt	FOUNDATION	Building	1	9	[0, 0, 0]	n/a	catFR1	0	R1111M
86027.952	2.449	584507	WORD	n/a	wordpools/wordpool_categorized_EN.txt	CEILING	Building	2	9	[0, 0, 0]	n/a	catFR1	0	R1111M
86030.401	2.485	585731	WORD	n/a	wordpools/wordpool_categorized_EN.txt	DISHWASHER	Appliances	3	9	[0, 0, 0]	n/a	catFR1	0	R1111M
86032.886	2.416	586974	WORD	n/a	wordpools/wordpool_categorized_EN.txt	BLENDER	Appliances	4	9	[0, 0, 0]	n/a	catFR1	0	R1111M
86035.302	2.417	588182	WORD	n/a	wordpools/wordpool_categorized_EN.txt	JACKET	Clothing	5	9	[0, 0, 0]	n/a	catFR1	0	R1111M
86037.719	2.551	589390	WORD	n/a	wordpools/wordpool_categorized_EN.txt	SHOES	Clothing	6	9	[0, 0, 0]	n/a	catFR1	0	R1111M
86040.27	2.4	590666	WORD	n/a	wordpools/wordpool_categorized_EN.txt	DRYER	Appliances	7	9	[0, 0, 0]	n/a	catFR1	0	R1111M
86042.67	2.601	591866	WORD	n/a	wordpools/wordpool_categorized_EN.txt	OVEN	Appliances	8	9	[0, 0, 0]	n/a	catFR1	0	R1111M
86045.271	2.417	593166	WORD	n/a	wordpools/wordpool_categorized_EN.txt	FLOOR	Building	9	9	[0, 0, 0]	n/a	catFR1	0	R1111M
86047.688	2.484	594374	WORD	n/a	wordpools/wordpool_categorized_EN.txt	BATHROOM	Building	10	9	[0, 0, 0]	n/a	catFR1	0	R1111M
86050.172	2.534	595616	WORD	n/a	wordpools/wordpool_categorized_EN.txt	COAT	Clothing	11	9	[0, 0, 0]	n/a	catFR1	0	R1111M
86052.706	1.617	596883	WORD	n/a	wordpools/wordpool_categorized_EN.txt	SKIRT	Clothing	12	9	[0, 0, 0]	n/a	catFR1	0	R1111M
86054.323	0.0	597692	DISTRACT_START	n/a	n/a	n/a	n/a	-999	9	[0, 0, 0]	n/a	catFR1	0	R1111M
86054.323	0.016	597692	START	n/a	n/a	n/a	n/a	-999	10	[-999, -999, -999]	n/a	catFR1	0	R1111M
86054.339	7.968	597700	PROB	7.943	n/a	n/a	n/a	-999	10	[9, 2, 9]	21.0	catFR1	0	R1111M
86062.307	6.085	601684	PROB	6.063	n/a	n/a	n/a	-999	10	[2, 7, 3]	12.0	catFR1	0	R1111M
86068.392	11.169	604726	PROB	11.169	n/a	n/a	n/a	-999	10	[9, 4, 7]	20.0	catFR1	0	R1111M
86079.561	0.016	610310	STOP	n/a	n/a	n/a	n/a	-999	10	[-999, -999, -999]	n/a	catFR1	0	R1111M
86079.577	1.101	610318	DISTRACT_END	n/a	n/a	n/a	n/a	-999	9	[0, 0, 0]	n/a	catFR1	0	R1111M
86080.678	1.752	610869	REC_START	n/a	n/a	n/a	n/a	-999	9	[0, 0, 0]	n/a	catFR1	0	R1111M
86082.43	7.265	611744	REC_WORD_VV	1.752	n/a	<>	n/a	-999	9	[0, 0, 0]	n/a	catFR1	0	R1111M
86089.695	6.18	615377	REC_WORD	9.017	n/a	BLENDER	Appliances	4	9	[0, 0, 0]	n/a	catFR1	0	R1111M
86095.875	14.819	618467	REC_WORD	15.197	n/a	DISHWASHER	Appliances	3	9	[0, 0, 0]	n/a	catFR1	0	R1111M
86110.694	12.176	625876	REC_END	n/a	n/a	n/a	n/a	-999	9	[0, 0, 0]	n/a	catFR1	0	R1111M
86122.87	0.0	631963	TRIAL	n/a	n/a	n/a	n/a	-999	10	[0, 0, 0]	n/a	catFR1	0	R1111M
86122.87	10.428	631963	COUNTDOWN_START	n/a	n/a	n/a	n/a	-999	10	[0, 0, 0]	n/a	catFR1	0	R1111M
86133.298	0.007	637177	COUNTDOWN_END	n/a	n/a	n/a	n/a	-999	10	[0, 0, 0]	n/a	catFR1	0	R1111M
86133.305	3.817	637181	ORIENT	n/a	n/a	n/a	n/a	-999	10	[0, 0, 0]	n/a	catFR1	0	R1111M
86137.122	2.534	639089	WORD	n/a	wordpools/wordpool_categorized_EN.txt	BASEBALL	Toys	1	10	[0, 0, 0]	n/a	catFR1	0	R1111M
86139.656	2.6	640356	WORD	n/a	wordpools/wordpool_categorized_EN.txt	BALL	Toys	2	10	[0, 0, 0]	n/a	catFR1	0	R1111M
86142.256	2.451	641656	WORD	n/a	wordpools/wordpool_categorized_EN.txt	SPEAKER	Electronics	3	10	[0, 0, 0]	n/a	catFR1	0	R1111M
86144.707	2.434	642881	WORD	n/a	wordpools/wordpool_categorized_EN.txt	CALCULATOR	Electronics	4	10	[0, 0, 0]	n/a	catFR1	0	R1111M
86147.141	2.55	644098	WORD	n/a	wordpools/wordpool_categorized_EN.txt	WOODS	Landscapes	5	10	[0, 0, 0]	n/a	catFR1	0	R1111M
86149.691	2.434	645373	WORD	n/a	wordpools/wordpool_categorized_EN.txt	HILLS	Landscapes	6	10	[0, 0, 0]	n/a	catFR1	0	R1111M
86152.125	2.584	646590	WORD	n/a	wordpools/wordpool_categorized_EN.txt	MARBLES	Toys	7	10	[0, 0, 0]	n/a	catFR1	0	R1111M
86154.709	2.617	647882	WORD	n/a	wordpools/wordpool_categorized_EN.txt	FRISBEE	Toys	8	10	[0, 0, 0]	n/a	catFR1	0	R1111M
86157.326	2.635	649190	WORD	n/a	wordpools/wordpool_categorized_EN.txt	FOREST	Landscapes	9	10	[0, 0, 0]	n/a	catFR1	0	R1111M
86159.961	2.582	650508	WORD	n/a	wordpools/wordpool_categorized_EN.txt	MOUNTAIN	Landscapes	10	10	[0, 0, 0]	n/a	catFR1	0	R1111M
86162.543	2.419	651799	WORD	n/a	wordpools/wordpool_categorized_EN.txt	STEREO	Electronics	11	10	[0, 0, 0]	n/a	catFR1	0	R1111M
86164.962	1.615	653008	WORD	n/a	wordpools/wordpool_categorized_EN.txt	MICROWAVE	Electronics	12	10	[0, 0, 0]	n/a	catFR1	0	R1111M
86166.577	0.001	653816	DISTRACT_START	n/a	n/a	n/a	n/a	-999	10	[0, 0, 0]	n/a	catFR1	0	R1111M
86166.578	0.016	653816	START	n/a	n/a	n/a	n/a	-999	11	[-999, -999, -999]	n/a	catFR1	0	R1111M
86166.594	7.418	653824	PROB	7.392	n/a	n/a	n/a	-999	11	[2, 5, 5]	12.0	catFR1	0	R1111M
86174.012	5.318	657533	PROB	5.293	n/a	n/a	n/a	-999	11	[7, 7, 4]	18.0	catFR1	0	R1111M
86179.33	6.101	660192	PROB	6.079	n/a	n/a	n/a	-999	11	[6, 5, 4]	15.0	catFR1	0	R1111M
86185.431	9.306	663242	PROB	9.306	n/a	n/a	n/a	-999	11	[8, 9, 9]	26.0	catFR1	0	R1111M
86194.737	0.013	667895	STOP	n/a	n/a	n/a	n/a	-999	11	[-999, -999, -999]	n/a	catFR1	0	R1111M
86194.75	1.118	667901	DISTRACT_END	n/a	n/a	n/a	n/a	-999	10	[0, 0, 0]	n/a	catFR1	0	R1111M
86195.868	2.523	668460	REC_START	n/a	n/a	n/a	n/a	-999	10	[0, 0, 0]	n/a	catFR1	0	R1111M
86198.391	2.315	669722	REC_WORD	2.523	n/a	BASEBALL	Toys	1	10	[0, 0, 0]	n/a	catFR1	0	R1111M
86200.706	2.549	670879	REC_WORD	4.838	n/a	SPEAKER	Electronics	3	10	[0, 0, 0]	n/a	catFR1	0	R1111M
86203.255	1.118	672154	REC_WORD	7.387	n/a	MOUNTAIN	Landscapes	10	10	[0, 0, 0]	n/a	catFR1	0	R1111M
86204.373	9.685	672713	REC_WORD	8.505	n/a	FIREFLY	n/a	-999	10	[0, 0, 0]	n/a	catFR1	0	R1111M
86214.058	6.818	677555	REC_WORD	18.19	n/a	MICROWAVE	Electronics	12	10	[0, 0, 0]	n/a	catFR1	0	R1111M
86220.876	2.025	680964	REC_WORD	25.008	n/a	WOODS	Landscapes	5	10	[0, 0, 0]	n/a	catFR1	0	R1111M
86222.901	2.981	681976	REC_WORD	27.033	n/a	HIT	n/a	-999	10	[0, 0, 0]	n/a	catFR1	0	R1111M
86225.882	23.979	683466	REC_END	n/a	n/a	n/a	n/a	-999	10	[0, 0, 0]	n/a	catFR1	0	R1111M
86249.861	0.0	695455	TRIAL	n/a	n/a	n/a	n/a	-999	11	[0, 0, 0]	n/a	catFR1	0	R1111M
86249.861	10.428	695455	COUNTDOWN_START	n/a	n/a	n/a	n/a	-999	11	[0, 0, 0]	n/a	catFR1	0	R1111M
86260.289	0.007	700669	COUNTDOWN_END	n/a	n/a	n/a	n/a	-999	11	[0, 0, 0]	n/a	catFR1	0	R1111M
86260.296	3.75	700672	ORIENT	n/a	n/a	n/a	n/a	-999	11	[0, 0, 0]	n/a	catFR1	0	R1111M
86264.046	2.518	702547	WORD	n/a	wordpools/wordpool_categorized_EN.txt	CHEETAH	Zoo	1	11	[0, 0, 0]	n/a	catFR1	0	R1111M
86266.564	2.5	703806	WORD	n/a	wordpools/wordpool_categorized_EN.txt	TIGER	Zoo	2	11	[0, 0, 0]	n/a	catFR1	0	R1111M
86269.064	2.55	705056	WORD	n/a	wordpools/wordpool_categorized_EN.txt	HEAD	BodyParts	3	11	[0, 0, 0]	n/a	catFR1	0	R1111M
86271.614	2.434	706331	WORD	n/a	wordpools/wordpool_categorized_EN.txt	FOOT	BodyParts	4	11	[0, 0, 0]	n/a	catFR1	0	R1111M
86274.048	2.501	707548	WORD	n/a	wordpools/wordpool_categorized_EN.txt	SCOOTER	Vehicles	5	11	[0, 0, 0]	n/a	catFR1	0	R1111M
86276.549	2.584	708798	WORD	n/a	wordpools/wordpool_categorized_EN.txt	VAN	Vehicles	6	11	[0, 0, 0]	n/a	catFR1	0	R1111M
86279.133	2.4	710090	WORD	n/a	wordpools/wordpool_categorized_EN.txt	KNEE	BodyParts	7	11	[0, 0, 0]	n/a	catFR1	0	R1111M
86281.533	2.418	711290	WORD	n/a	wordpools/wordpool_categorized_EN.txt	LEG	BodyParts	8	11	[0, 0, 0]	n/a	catFR1	0	R1111M
86283.951	2.383	712499	WORD	n/a	wordpools/wordpool_categorized_EN.txt	ORANGUTAN	Zoo	9	11	[0, 0, 0]	n/a	catFR1	0	R1111M
86286.334	2.4	713691	WORD	n/a	wordpools/wordpool_categorized_EN.txt	LION	Zoo	10	11	[0, 0, 0]	n/a	catFR1	0	R1111M
86288.734	2.484	714891	WORD	n/a	wordpools/wordpool_categorized_EN.txt	BUS	Vehicles	11	11	[0, 0, 0]	n/a	catFR1	0	R1111M
86291.218	1.618	716133	WORD	n/a	wordpools/wordpool_categorized_EN.txt	JEEP	Vehicles	12	11	[0, 0, 0]	n/a	catFR1	0	R1111M
86292.836	0.001	716941	DISTRACT_START	n/a	n/a	n/a	n/a	-999	11	[0, 0, 0]	n/a	catFR1	0	R1111M
86292.837	0.016	716942	START	n/a	n/a	n/a	n/a	-999	12	[-999, -999, -999]	n/a	catFR1	0	R1111M
86292.853	3.616	716950	PROB	3.58	n/a	n/a	n/a	-999	12	[1, 1, 4]	6.0	catFR1	0	R1111M
86296.469	2.884	718758	PROB	2.852	n/a	n/a	n/a	-999	12	[8, 9, 9]	26.0	catFR1	0	R1111M
86299.353	10.035	720200	PROB	10.008	n/a	n/a	n/a	-999	12	[2, 9, 8]	20.0	catFR1	0	R1111M
86309.388	3.001	725217	PROB	2.973	n/a	n/a	n/a	-999	12	[6, 1, 5]	12.0	catFR1	0	R1111M
86312.389	6.876	726717	PROB	6.876	n/a	n/a	n/a	-999	12	[5, 5, 7]	17.0	catFR1	0	R1111M
86319.265	0.009	730155	STOP	n/a	n/a	n/a	n/a	-999	12	[-999, -999, -999]	n/a	catFR1	0	R1111M
86319.274	1.167	730160	DISTRACT_END	n/a	n/a	n/a	n/a	-999	11	[0, 0, 0]	n/a	catFR1	0	R1111M
86320.441	6.771	730743	REC_START	n/a	n/a	n/a	n/a	-999	11	[0, 0, 0]	n/a	catFR1	0	R1111M
86327.212	1.342	734129	REC_WORD	6.771	n/a	ORANGUTAN	Zoo	9	11	[0, 0, 0]	n/a	catFR1	0	R1111M
86328.554	4.989	734799	REC_WORD	8.113	n/a	LION	Zoo	10	11	[0, 0, 0]	n/a	catFR1	0	R1111M
86333.543	9.757	737294	REC_WORD	13.102	n/a	CHEETAH	Zoo	1	11	[0, 0, 0]	n/a	catFR1	0	R1111M
86343.3	1.482	742172	REC_WORD	22.859	n/a	KNEE	BodyParts	7	11	[0, 0, 0]	n/a	catFR1	0	R1111M
86344.782	5.673	742913	REC_WORD	24.341	n/a	LEG	BodyParts	8	11	[0, 0, 0]	n/a	catFR1	0	R1111M
86350.455	6.326	745749	REC_END	n/a	n/a	n/a	n/a	-999	11	[0, 0, 0]	n/a	catFR1	0	R1111M
86356.781	0.0	748912	TRIAL	n/a	n/a	n/a	n/a	-999	12	[0, 0, 0]	n/a	catFR1	0	R1111M
86356.781	10.428	748912	COUNTDOWN_START	n/a	n/a	n/a	n/a	-999	12	[0, 0, 0]	n/a	catFR1	0	R1111M
86367.209	0.007	754126	COUNTDOWN_END	n/a	n/a	n/a	n/a	-999	12	[0, 0, 0]	n/a	catFR1	0	R1111M
86367.216	3.584	754129	ORIENT	n/a	n/a	n/a	n/a	-999	12	[0, 0, 0]	n/a	catFR1	0	R1111M
86370.8	2.384	755921	WORD	n/a	wordpools/wordpool_categorized_EN.txt	TUBA	Instruments	1	12	[0, 0, 0]	n/a	catFR1	0	R1111M
86373.184	2.434	757113	WORD	n/a	wordpools/wordpool_categorized_EN.txt	VIOLIN	Instruments	2	12	[0, 0, 0]	n/a	catFR1	0	R1111M
86375.618	2.617	758330	WORD	n/a	wordpools/wordpool_categorized_EN.txt	WHISK	KitchenTools	3	12	[0, 0, 0]	n/a	catFR1	0	R1111M
86378.235	2.517	759639	WORD	n/a	wordpools/wordpool_categorized_EN.txt	GRATER	KitchenTools	4	12	[0, 0, 0]	n/a	catFR1	0	R1111M
86380.752	2.401	760897	WORD	n/a	wordpools/wordpool_categorized_EN.txt	FINGERS	BodyParts	5	12	[0, 0, 0]	n/a	catFR1	0	R1111M
86383.153	2.5	762097	WORD	n/a	wordpools/wordpool_categorized_EN.txt	ELBOW	BodyParts	6	12	[0, 0, 0]	n/a	catFR1	0	R1111M
86385.653	2.617	763347	WORD	n/a	wordpools/wordpool_categorized_EN.txt	STRAINER	KitchenTools	7	12	[0, 0, 0]	n/a	catFR1	0	R1111M
86388.27	2.401	764656	WORD	n/a	wordpools/wordpool_categorized_EN.txt	LADLE	KitchenTools	8	12	[0, 0, 0]	n/a	catFR1	0	R1111M
86390.671	2.517	765856	WORD	n/a	wordpools/wordpool_categorized_EN.txt	BASS	Instruments	9	12	[0, 0, 0]	n/a	catFR1	0	R1111M
86393.188	2.584	767115	WORD	n/a	wordpools/wordpool_categorized_EN.txt	FLUTE	Instruments	10	12	[0, 0, 0]	n/a	catFR1	0	R1111M
86395.772	2.384	768407	WORD	n/a	wordpools/wordpool_categorized_EN.txt	ARM	BodyParts	11	12	[0, 0, 0]	n/a	catFR1	0	R1111M
86398.156	1.617	769598	WORD	n/a	wordpools/wordpool_categorized_EN.txt	EAR	BodyParts	12	12	[0, 0, 0]	n/a	catFR1	0	R1111M
86399.773	0.0	770407	DISTRACT_START	n/a	n/a	n/a	n/a	-999	12	[0, 0, 0]	n/a	catFR1	0	R1111M
86399.773	0.016	770407	START	n/a	n/a	n/a	n/a	-999	13	[-999, -999, -999]	n/a	catFR1	0	R1111M
86399.789	12.753	770415	PROB	12.724	n/a	n/a	n/a	-999	13	[4, 6, 7]	17.0	catFR1	0	R1111M
86412.542	8.236	776791	PROB	8.236	n/a	n/a	n/a	-999	13	[2, 3, 4]	9.0	catFR1	0	R1111M
86420.778	0.015	780909	STOP	n/a	n/a	n/a	n/a	-999	13	[-999, -999, -999]	n/a	catFR1	0	R1111M
86420.793	1.035	780916	DISTRACT_END	n/a	n/a	n/a	n/a	-999	12	[0, 0, 0]	n/a	catFR1	0	R1111M
86421.828	1.944	781434	REC_START	n/a	n/a	n/a	n/a	-999	12	[0, 0, 0]	n/a	catFR1	0	R1111M
86423.772	1.161	782406	REC_WORD	1.944	n/a	TUBA	Instruments	1	12	[0, 0, 0]	n/a	catFR1	0	R1111M
86424.933	5.224	782986	REC_WORD	3.105	n/a	VIOLIN	Instruments	2	12	[0, 0, 0]	n/a	catFR1	0	R1111M
86430.157	1.159	785598	REC_WORD	8.329	n/a	FINGERS	BodyParts	5	12	[0, 0, 0]	n/a	catFR1	0	R1111M
86431.316	2.347	786178	REC_WORD	9.488	n/a	ELBOW	BodyParts	6	12	[0, 0, 0]	n/a	catFR1	0	R1111M
86433.663	1.305	787351	REC_WORD	11.835	n/a	ARM	BodyParts	11	12	[0, 0, 0]	n/a	catFR1	0	R1111M
86434.968	2.194	788003	REC_WORD	13.14	n/a	EAR	BodyParts	12	12	[0, 0, 0]	n/a	catFR1	0	R1111M
86437.162	0.717	789100	REC_WORD	15.334	n/a	BASS	Instruments	9	12	[0, 0, 0]	n/a	catFR1	0	R1111M
86437.879	13.961	789459	REC_WORD	16.051	n/a	FLUTE	Instruments	10	12	[0, 0, 0]	n/a	catFR1	0	R1111M
86451.84	3.877	796439	REC_END	n/a	n/a	n/a	n/a	-999	12	[0, 0, 0]	n/a	catFR1	0	R1111M
86455.717	0.0	798377	TRIAL	n/a	n/a	n/a	n/a	-999	13	[0, 0, 0]	n/a	catFR1	0	R1111M
86455.717	10.428	798377	COUNTDOWN_START	n/a	n/a	n/a	n/a	-999	13	[0, 0, 0]	n/a	catFR1	0	R1111M
86466.145	0.007	803591	COUNTDOWN_END	n/a	n/a	n/a	n/a	-999	13	[0, 0, 0]	n/a	catFR1	0	R1111M
86466.152	3.484	803595	ORIENT	n/a	n/a	n/a	n/a	-999	13	[0, 0, 0]	n/a	catFR1	0	R1111M
86469.636	2.451	805336	WORD	n/a	wordpools/wordpool_categorized_EN.txt	BIRCH	Trees	1	13	[0, 0, 0]	n/a	catFR1	0	R1111M
86472.087	2.483	806562	WORD	n/a	wordpools/wordpool_categorized_EN.txt	CYPRESS	Trees	2	13	[0, 0, 0]	n/a	catFR1	0	R1111M
86474.57	2.501	807803	WORD	n/a	wordpools/wordpool_categorized_EN.txt	RIVER	Landscapes	3	13	[0, 0, 0]	n/a	catFR1	0	R1111M
86477.071	2.384	809054	WORD	n/a	wordpools/wordpool_categorized_EN.txt	CREEK	Landscapes	4	13	[0, 0, 0]	n/a	catFR1	0	R1111M
86479.455	2.534	810246	WORD	n/a	wordpools/wordpool_categorized_EN.txt	COLANDER	KitchenTools	5	13	[0, 0, 0]	n/a	catFR1	0	R1111M
86481.989	2.55	811513	WORD	n/a	wordpools/wordpool_categorized_EN.txt	SPOON	KitchenTools	6	13	[0, 0, 0]	n/a	catFR1	0	R1111M
86484.539	2.385	812788	WORD	n/a	wordpools/wordpool_categorized_EN.txt	ISLAND	Landscapes	7	13	[0, 0, 0]	n/a	catFR1	0	R1111M
86486.924	2.416	813980	WORD	n/a	wordpools/wordpool_categorized_EN.txt	LAKE	Landscapes	8	13	[0, 0, 0]	n/a	catFR1	0	R1111M
86489.34	2.417	815188	WORD	n/a	wordpools/wordpool_categorized_EN.txt	ELM	Trees	9	13	[0, 0, 0]	n/a	catFR1	0	R1111M
86491.757	2.467	816396	WORD	n/a	wordpools/wordpool_categorized_EN.txt	MAPLE	Trees	10	13	[0, 0, 0]	n/a	catFR1	0	R1111M
86494.224	2.602	817630	WORD	n/a	wordpools/wordpool_categorized_EN.txt	KNIFE	KitchenTools	11	13	[0, 0, 0]	n/a	catFR1	0	R1111M
86496.826	1.616	818931	WORD	n/a	wordpools/wordpool_categorized_EN.txt	SPATULA	KitchenTools	12	13	[0, 0, 0]	n/a	catFR1	0	R1111M
86498.442	0.001	819739	DISTRACT_START	n/a	n/a	n/a	n/a	-999	13	[0, 0, 0]	n/a	catFR1	0	R1111M
86498.443	0.015	819739	START	n/a	n/a	n/a	n/a	-999	14	[-999, -999, -999]	n/a	catFR1	0	R1111M
86498.458	17.455	819747	PROB	17.424	n/a	n/a	n/a	-999	14	[3, 4, 9]	16.0	catFR1	0	R1111M
86515.913	9.865	828474	PROB	9.865	n/a	n/a	n/a	-999	14	[8, 6, 4]	18.0	catFR1	0	R1111M
86525.778	0.019	833406	STOP	n/a	n/a	n/a	n/a	-999	14	[-999, -999, -999]	n/a	catFR1	0	R1111M
86525.797	1.051	833415	DISTRACT_END	n/a	n/a	n/a	n/a	-999	13	[0, 0, 0]	n/a	catFR1	0	R1111M
86526.848	2.097	833941	REC_START	n/a	n/a	n/a	n/a	-999	13	[0, 0, 0]	n/a	catFR1	0	R1111M
86528.945	3.315	834989	REC_WORD_VV	2.097	n/a	<>	n/a	-999	13	[0, 0, 0]	n/a	catFR1	0	R1111M
86532.26	1.228	836647	REC_WORD	5.412	n/a	RIVER	Landscapes	3	13	[0, 0, 0]	n/a	catFR1	0	R1111M
86533.488	3.422	837261	REC_WORD	6.64	n/a	CREEK	Landscapes	4	13	[0, 0, 0]	n/a	catFR1	0	R1111M
86536.91	3.152	838972	REC_WORD	10.062	n/a	COLANDER	KitchenTools	5	13	[0, 0, 0]	n/a	catFR1	0	R1111M
86540.062	8.895	840547	REC_WORD	13.214	n/a	SPOON	KitchenTools	6	13	[0, 0, 0]	n/a	catFR1	0	R1111M
86548.957	4.611	844995	REC_WORD	22.109	n/a	ISLAND	Landscapes	7	13	[0, 0, 0]	n/a	catFR1	0	R1111M
86553.568	3.295	847300	REC_WORD	26.72	n/a	ELM	Trees	9	13	[0, 0, 0]	n/a	catFR1	0	R1111M
86556.863	14.326	848947	REC_END	n/a	n/a	n/a	n/a	-999	13	[0, 0, 0]	n/a	catFR1	0	R1111M
86571.189	0.0	856110	TRIAL	n/a	n/a	n/a	n/a	-999	14	[0, 0, 0]	n/a	catFR1	0	R1111M
86571.189	10.428	856110	COUNTDOWN_START	n/a	n/a	n/a	n/a	-999	14	[0, 0, 0]	n/a	catFR1	0	R1111M
86581.617	0.007	861324	COUNTDOWN_END	n/a	n/a	n/a	n/a	-999	14	[0, 0, 0]	n/a	catFR1	0	R1111M
86581.624	3.534	861327	ORIENT	n/a	n/a	n/a	n/a	-999	14	[0, 0, 0]	n/a	catFR1	0	R1111M
86585.158	2.418	863094	WORD	n/a	wordpools/wordpool_categorized_EN.txt	PHONE	Electronics	1	14	[0, 0, 0]	n/a	catFR1	0	R1111M
86587.576	2.417	864303	WORD	n/a	wordpools/wordpool_categorized_EN.txt	PRINTER	Electronics	2	14	[0, 0, 0]	n/a	catFR1	0	R1111M
86589.993	2.517	865512	WORD	n/a	wordpools/wordpool_categorized_EN.txt	BEAR	Zoo	3	14	[0, 0, 0]	n/a	catFR1	0	R1111M
86592.51	2.6	866770	WORD	n/a	wordpools/wordpool_categorized_EN.txt	MONKEY	Zoo	4	14	[0, 0, 0]	n/a	catFR1	0	R1111M
86595.11	2.451	868070	WORD	n/a	wordpools/wordpool_categorized_EN.txt	CHEESECAKE	Desserts	5	14	[0, 0, 0]	n/a	catFR1	0	R1111M
86597.561	2.467	869295	WORD	n/a	wordpools/wordpool_categorized_EN.txt	COBBLER	Desserts	6	14	[0, 0, 0]	n/a	catFR1	0	R1111M
86600.028	2.567	870529	WORD	n/a	wordpools/wordpool_categorized_EN.txt	GIRAFFE	Zoo	7	14	[0, 0, 0]	n/a	catFR1	0	R1111M
86602.595	2.467	871812	WORD	n/a	wordpools/wordpool_categorized_EN.txt	CHIMPANZEE	Zoo	8	14	[0, 0, 0]	n/a	catFR1	0	R1111M
86605.062	2.484	873046	WORD	n/a	wordpools/wordpool_categorized_EN.txt	TABLET	Electronics	9	14	[0, 0, 0]	n/a	catFR1	0	R1111M
86607.546	2.451	874288	WORD	n/a	wordpools/wordpool_categorized_EN.txt	COMPUTER	Electronics	10	14	[0, 0, 0]	n/a	catFR1	0	R1111M
86609.997	2.6	875513	WORD	n/a	wordpools/wordpool_categorized_EN.txt	PASTRY	Desserts	11	14	[0, 0, 0]	n/a	catFR1	0	R1111M
86612.597	1.617	876813	WORD	n/a	wordpools/wordpool_categorized_EN.txt	CAKE	Desserts	12	14	[0, 0, 0]	n/a	catFR1	0	R1111M
86614.214	0.001	877621	DISTRACT_START	n/a	n/a	n/a	n/a	-999	14	[0, 0, 0]	n/a	catFR1	0	R1111M
86614.215	0.016	877622	START	n/a	n/a	n/a	n/a	-999	15	[-999, -999, -999]	n/a	catFR1	0	R1111M
86614.231	6.284	877630	PROB	6.25	n/a	n/a	n/a	-999	15	[6, 4, 1]	11.0	catFR1	0	R1111M
86620.515	2.784	880772	PROB	2.751	n/a	n/a	n/a	-999	15	[2, 6, 4]	12.0	catFR1	0	R1111M
86623.299	8.002	882164	PROB	7.975	n/a	n/a	n/a	-999	15	[6, 5, 6]	16.0	catFR1	0	R1111M
86631.301	4.98	886164	PROB	4.98	n/a	n/a	n/a	-999	15	[4, 2, 2]	8.0	catFR1	0	R1111M
86636.281	0.004	888654	STOP	n/a	n/a	n/a	n/a	-999	15	[-999, -999, -999]	n/a	catFR1	0	R1111M
86636.285	1.051	888656	DISTRACT_END	n/a	n/a	n/a	n/a	-999	14	[0, 0, 0]	n/a	catFR1	0	R1111M
86637.336	4.3	889182	REC_START	n/a	n/a	n/a	n/a	-999	14	[0, 0, 0]	n/a	catFR1	0	R1111M
86641.636	2.202	891332	REC_WORD	4.3	n/a	PHONE	Electronics	1	14	[0, 0, 0]	n/a	catFR1	0	R1111M
86643.838	2.47	892432	REC_WORD	6.502	n/a	TABLES	n/a	-999	14	[0, 0, 0]	n/a	catFR1	0	R1111M
86646.308	1.543	893667	REC_WORD	8.972	n/a	GIRAFFE	Zoo	7	14	[0, 0, 0]	n/a	catFR1	0	R1111M
86647.851	7.105	894439	REC_WORD	10.515	n/a	CHIMPANZEE	Zoo	8	14	[0, 0, 0]	n/a	catFR1	0	R1111M
86654.956	12.391	897991	REC_WORD	17.62	n/a	COMPUTER	Electronics	10	14	[0, 0, 0]	n/a	catFR1	0	R1111M
86667.347	20.665	904186	REC_END	n/a	n/a	n/a	n/a	-999	14	[0, 0, 0]	n/a	catFR1	0	R1111M
86688.012	0.0	914518	TRIAL	n/a	n/a	n/a	n/a	-999	15	[0, 0, 0]	n/a	catFR1	0	R1111M
86688.012	10.428	914518	COUNTDOWN_START	n/a	n/a	n/a	n/a	-999	15	[0, 0, 0]	n/a	catFR1	0	R1111M
86698.44	0.007	919732	COUNTDOWN_END	n/a	n/a	n/a	n/a	-999	15	[0, 0, 0]	n/a	catFR1	0	R1111M
86698.447	3.784	919735	ORIENT	n/a	n/a	n/a	n/a	-999	15	[0, 0, 0]	n/a	catFR1	0	R1111M
86702.231	2.384	921627	WORD	n/a	wordpools/wordpool_categorized_EN.txt	SODA	Beverages	1	15	[0, 0, 0]	n/a	catFR1	0	R1111M
86704.615	2.55	922819	WORD	n/a	wordpools/wordpool_categorized_EN.txt	BEER	Beverages	2	15	[0, 0, 0]	n/a	catFR1	0	R1111M
86707.165	2.401	924094	WORD	n/a	wordpools/wordpool_categorized_EN.txt	JEANS	Clothing	3	15	[0, 0, 0]	n/a	catFR1	0	R1111M
86709.566	2.584	925295	WORD	n/a	wordpools/wordpool_categorized_EN.txt	BLOUSE	Clothing	4	15	[0, 0, 0]	n/a	catFR1	0	R1111M
86712.15	2.617	926587	WORD	n/a	wordpools/wordpool_categorized_EN.txt	PEN	OfficeSupplies	5	15	[0, 0, 0]	n/a	catFR1	0	R1111M
86714.767	2.517	927895	WORD	n/a	wordpools/wordpool_categorized_EN.txt	GLUE	OfficeSupplies	6	15	[0, 0, 0]	n/a	catFR1	0	R1111M
86717.284	2.484	929153	WORD	n/a	wordpools/wordpool_categorized_EN.txt	CIDER	Beverages	7	15	[0, 0, 0]	n/a	catFR1	0	R1111M
86719.768	2.5	930395	WORD	n/a	wordpools/wordpool_categorized_EN.txt	LEMONADE	Beverages	8	15	[0, 0, 0]	n/a	catFR1	0	R1111M
86722.268	2.484	931645	WORD	n/a	wordpools/wordpool_categorized_EN.txt	STAPLER	OfficeSupplies	9	15	[0, 0, 0]	n/a	catFR1	0	R1111M
86724.752	2.601	932887	WORD	n/a	wordpools/wordpool_categorized_EN.txt	MARKER	OfficeSupplies	10	15	[0, 0, 0]	n/a	catFR1	0	R1111M
86727.353	2.484	934188	WORD	n/a	wordpools/wordpool_categorized_EN.txt	SHORTS	Clothing	11	15	[0, 0, 0]	n/a	catFR1	0	R1111M
86729.837	1.616	935430	WORD	n/a	wordpools/wordpool_categorized_EN.txt	DRESS	Clothing	12	15	[0, 0, 0]	n/a	catFR1	0	R1111M
86731.453	0.001	936238	DISTRACT_START	n/a	n/a	n/a	n/a	-999	15	[0, 0, 0]	n/a	catFR1	0	R1111M
86731.454	0.016	936238	START	n/a	n/a	n/a	n/a	-999	16	[-999, -999, -999]	n/a	catFR1	0	R1111M
86731.47	10.085	936246	PROB	10.051	n/a	n/a	n/a	-999	16	[4, 7, 3]	14.0	catFR1	0	R1111M
86741.555	3.269	941288	PROB	3.246	n/a	n/a	n/a	-999	16	[8, 3, 1]	12.0	catFR1	0	R1111M
86744.824	11.866	942923	PROB	11.866	n/a	n/a	n/a	-999	16	[7, 7, 5]	19.0	catFR1	0	R1111M
86756.69	0.018	948855	STOP	n/a	n/a	n/a	n/a	-999	16	[-999, -999, -999]	n/a	catFR1	0	R1111M
86756.708	1.119	948864	DISTRACT_END	n/a	n/a	n/a	n/a	-999	15	[0, 0, 0]	n/a	catFR1	0	R1111M
86757.827	2.283	949424	REC_START	n/a	n/a	n/a	n/a	-999	15	[0, 0, 0]	n/a	catFR1	0	R1111M
86760.11	2.935	950565	REC_WORD	2.283	n/a	CIDER	Beverages	7	15	[0, 0, 0]	n/a	catFR1	0	R1111M
86763.045	0.898	952033	REC_WORD	5.218	n/a	SODA	Beverages	1	15	[0, 0, 0]	n/a	catFR1	0	R1111M
86763.943	2.285	952482	REC_WORD	6.116	n/a	BEER	Beverages	2	15	[0, 0, 0]	n/a	catFR1	0	R1111M
86766.228	1.439	953624	REC_WORD	8.401	n/a	JEANS	Clothing	3	15	[0, 0, 0]	n/a	catFR1	0	R1111M
86767.667	20.169	954343	REC_WORD	9.84	n/a	BLOUSE	Clothing	4	15	[0, 0, 0]	n/a	catFR1	0	R1111M
86787.836	8.147	964427	REC_END	n/a	n/a	n/a	n/a	-999	15	[0, 0, 0]	n/a	catFR1	0	R1111M
86795.983	0.0	968501	TRIAL	n/a	n/a	n/a	n/a	-999	16	[0, 0, 0]	n/a	catFR1	0	R1111M
86795.983	10.428	968501	COUNTDOWN_START	n/a	n/a	n/a	n/a	-999	16	[0, 0, 0]	n/a	catFR1	0	R1111M
86806.411	0.007	973714	COUNTDOWN_END	n/a	n/a	n/a	n/a	-999	16	[0, 0, 0]	n/a	catFR1	0	R1111M
86806.418	3.701	973718	ORIENT	n/a	n/a	n/a	n/a	-999	16	[0, 0, 0]	n/a	catFR1	0	R1111M
86810.119	2.517	975568	WORD	n/a	wordpools/wordpool_categorized_EN.txt	CORN	Vegetables	1	16	[0, 0, 0]	n/a	catFR1	0	R1111M
86812.636	2.533	976827	WORD	n/a	wordpools/wordpool_categorized_EN.txt	ONION	Vegetables	2	16	[0, 0, 0]	n/a	catFR1	0	R1111M
86815.169	2.518	978093	WORD	n/a	wordpools/wordpool_categorized_EN.txt	BLUEBERRY	Fruit	3	16	[0, 0, 0]	n/a	catFR1	0	R1111M
86817.687	2.5	979352	WORD	n/a	wordpools/wordpool_categorized_EN.txt	PEACH	Fruit	4	16	[0, 0, 0]	n/a	catFR1	0	R1111M
86820.187	2.517	980602	WORD	n/a	wordpools/wordpool_categorized_EN.txt	MIXER	Appliances	5	16	[0, 0, 0]	n/a	catFR1	0	R1111M
86822.704	2.451	981860	WORD	n/a	wordpools/wordpool_categorized_EN.txt	REFRIGERATOR	Appliances	6	16	[0, 0, 0]	n/a	catFR1	0	R1111M
86825.155	2.5	983086	WORD	n/a	wordpools/wordpool_categorized_EN.txt	STRAWBERRY	Fruit	7	16	[0, 0, 0]	n/a	catFR1	0	R1111M
86827.655	2.401	984336	WORD	n/a	wordpools/wordpool_categorized_EN.txt	CHERRY	Fruit	8	16	[0, 0, 0]	n/a	catFR1	0	R1111M
86830.056	2.534	985536	WORD	n/a	wordpools/wordpool_categorized_EN.txt	BROCCOLI	Vegetables	9	16	[0, 0, 0]	n/a	catFR1	0	R1111M
86832.59	2.583	986803	WORD	n/a	wordpools/wordpool_categorized_EN.txt	CUCUMBER	Vegetables	10	16	[0, 0, 0]	n/a	catFR1	0	R1111M
86835.173	2.601	988095	WORD	n/a	wordpools/wordpool_categorized_EN.txt	VACUUM	Appliances	11	16	[0, 0, 0]	n/a	catFR1	0	R1111M
86837.774	1.617	989395	WORD	n/a	wordpools/wordpool_categorized_EN.txt	FREEZER	Appliances	12	16	[0, 0, 0]	n/a	catFR1	0	R1111M
86839.391	0.001	990203	DISTRACT_START	n/a	n/a	n/a	n/a	-999	16	[0, 0, 0]	n/a	catFR1	0	R1111M
86839.392	0.016	990204	START	n/a	n/a	n/a	n/a	-999	17	[-999, -999, -999]	n/a	catFR1	0	R1111M
86839.408	13.636	990212	PROB	13.61	n/a	n/a	n/a	-999	17	[6, 4, 9]	19.0	catFR1	0	R1111M
86853.044	8.702	997030	PROB	8.702	n/a	n/a	n/a	-999	17	[4, 5, 6]	14.0	catFR1	0	R1111M
86861.746	0.016	1001380	STOP	n/a	n/a	n/a	n/a	-999	17	[-999, -999, -999]	n/a	catFR1	0	R1111M
86861.762	1.135	1001388	DISTRACT_END	n/a	n/a	n/a	n/a	-999	16	[0, 0, 0]	n/a	catFR1	0	R1111M
86862.897	7.386	1001956	REC_START	n/a	n/a	n/a	n/a	-999	16	[0, 0, 0]	n/a	catFR1	0	R1111M
86870.283	0.927	1005649	REC_WORD	7.386	n/a	VACUUM	Appliances	11	16	[0, 0, 0]	n/a	catFR1	0	R1111M
86871.21	2.587	1006112	REC_WORD	8.313	n/a	FREEZER	Appliances	12	16	[0, 0, 0]	n/a	catFR1	0	R1111M
86873.797	0.788	1007405	REC_WORD	10.9	n/a	CORN	Vegetables	1	16	[0, 0, 0]	n/a	catFR1	0	R1111M
86874.585	2.105	1007799	REC_WORD	11.688	n/a	ONION	Vegetables	2	16	[0, 0, 0]	n/a	catFR1	0	R1111M
86876.69	0.755	1008852	REC_WORD	13.793	n/a	MIXER	Appliances	5	16	[0, 0, 0]	n/a	catFR1	0	R1111M
86877.445	2.059	1009229	REC_WORD	14.548	n/a	REFRIGERATOR	Appliances	6	16	[0, 0, 0]	n/a	catFR1	0	R1111M
86879.504	2.369	1010259	REC_WORD	16.607	n/a	BLUEBERRY	Fruit	3	16	[0, 0, 0]	n/a	catFR1	0	R1111M
86881.873	4.251	1011443	REC_WORD	18.976	n/a	STRAWBERRY	Fruit	7	16	[0, 0, 0]	n/a	catFR1	0	R1111M
86886.124	3.358	1013569	REC_WORD	23.227	n/a	CHERRY	Fruit	8	16	[0, 0, 0]	n/a	catFR1	0	R1111M
86889.482	3.424	1015248	REC_WORD	26.585	n/a	BROCCOLI	Vegetables	9	16	[0, 0, 0]	n/a	catFR1	0	R1111M
86892.906	7.397	1016959	REC_END	n/a	n/a	n/a	n/a	-999	16	[0, 0, 0]	n/a	catFR1	0	R1111M
86900.303	0.0	1020658	TRIAL	n/a	n/a	n/a	n/a	-999	17	[0, 0, 0]	n/a	catFR1	0	R1111M
86900.303	10.428	1020658	COUNTDOWN_START	n/a	n/a	n/a	n/a	-999	17	[0, 0, 0]	n/a	catFR1	0	R1111M
86910.731	0.007	1025871	COUNTDOWN_END	n/a	n/a	n/a	n/a	-999	17	[0, 0, 0]	n/a	catFR1	0	R1111M
86910.738	3.701	1025875	ORIENT	n/a	n/a	n/a	n/a	-999	17	[0, 0, 0]	n/a	catFR1	0	R1111M
86914.439	2.384	1027725	WORD	n/a	wordpools/wordpool_categorized_EN.txt	DRIZZLE	Weather	1	17	[0, 0, 0]	n/a	catFR1	0	R1111M
86916.823	2.467	1028917	WORD	n/a	wordpools/wordpool_categorized_EN.txt	FOG	Weather	2	17	[0, 0, 0]	n/a	catFR1	0	R1111M
86919.29	2.568	1030151	WORD	n/a	wordpools/wordpool_categorized_EN.txt	COUCH	Furniture	3	17	[0, 0, 0]	n/a	catFR1	0	R1111M
86921.858	2.616	1031435	WORD	n/a	wordpools/wordpool_categorized_EN.txt	NIGHTSTAND	Furniture	4	17	[0, 0, 0]	n/a	catFR1	0	R1111M
86924.474	2.551	1032743	WORD	n/a	wordpools/wordpool_categorized_EN.txt	TAPE	OfficeSupplies	5	17	[0, 0, 0]	n/a	catFR1	0	R1111M
86927.025	2.4	1034018	WORD	n/a	wordpools/wordpool_categorized_EN.txt	PENCIL	OfficeSupplies	6	17	[0, 0, 0]	n/a	catFR1	0	R1111M
86929.425	2.6	1035218	WORD	n/a	wordpools/wordpool_categorized_EN.txt	BOOKCASE	Furniture	7	17	[0, 0, 0]	n/a	catFR1	0	R1111M
86932.025	2.418	1036518	WORD	n/a	wordpools/wordpool_categorized_EN.txt	BED	Furniture	8	17	[0, 0, 0]	n/a	catFR1	0	R1111M
86934.443	2.533	1037727	WORD	n/a	wordpools/wordpool_categorized_EN.txt	CLOUD	Weather	9	17	[0, 0, 0]	n/a	catFR1	0	R1111M
86936.976	2.617	1038993	WORD	n/a	wordpools/wordpool_categorized_EN.txt	HUMIDITY	Weather	10	17	[0, 0, 0]	n/a	catFR1	0	R1111M
86939.593	2.501	1040302	WORD	n/a	wordpools/wordpool_categorized_EN.txt	BINDER	OfficeSupplies	11	17	[0, 0, 0]	n/a	catFR1	0	R1111M
86942.094	1.617	1041552	WORD	n/a	wordpools/wordpool_categorized_EN.txt	FOLDER	OfficeSupplies	12	17	[0, 0, 0]	n/a	catFR1	0	R1111M
86943.711	0.001	1042360	DISTRACT_START	n/a	n/a	n/a	n/a	-999	17	[0, 0, 0]	n/a	catFR1	0	R1111M
86943.712	0.016	1042361	START	n/a	n/a	n/a	n/a	-999	18	[-999, -999, -999]	n/a	catFR1	0	R1111M
86943.728	3.55	1042369	PROB	3.521	n/a	n/a	n/a	-999	18	[1, 7, 1]	9.0	catFR1	0	R1111M
86947.278	7.452	1044144	PROB	7.419	n/a	n/a	n/a	-999	18	[9, 4, 1]	14.0	catFR1	0	R1111M
86954.73	8.401	1047870	PROB	8.368	n/a	n/a	n/a	-999	18	[7, 2, 6]	15.0	catFR1	0	R1111M
86963.131	5.934	1052070	PROB	5.934	n/a	n/a	n/a	-999	18	[1, 9, 8]	18.0	catFR1	0	R1111M
86969.065	0.018	1055037	STOP	n/a	n/a	n/a	n/a	-999	18	[-999, -999, -999]	n/a	catFR1	0	R1111M
86969.083	1.141	1055046	DISTRACT_END	n/a	n/a	n/a	n/a	-999	17	[0, 0, 0]	n/a	catFR1	0	R1111M
86970.224	4.437	1055616	REC_START	n/a	n/a	n/a	n/a	-999	17	[0, 0, 0]	n/a	catFR1	0	R1111M
86974.661	1.168	1057835	REC_WORD	4.437	n/a	FOLDER	OfficeSupplies	12	17	[0, 0, 0]	n/a	catFR1	0	R1111M
86975.829	2.301	1058419	REC_WORD	5.605	n/a	BINDER	OfficeSupplies	11	17	[0, 0, 0]	n/a	catFR1	0	R1111M
86978.13	1.731	1059569	REC_WORD	7.906	n/a	DRIZZLE	Weather	1	17	[0, 0, 0]	n/a	catFR1	0	R1111M
86979.861	6.377	1060434	REC_WORD	9.637	n/a	HUMID	n/a	-999	17	[0, 0, 0]	n/a	catFR1	0	R1111M
86986.238	13.988	1063623	REC_WORD	16.014	n/a	NIGHTSTAND	Furniture	4	17	[0, 0, 0]	n/a	catFR1	0	R1111M
87000.226	9.348	1070616	REC_END	n/a	n/a	n/a	n/a	-999	17	[0, 0, 0]	n/a	catFR1	0	R1111M
87009.574	0.0	1075290	TRIAL	n/a	n/a	n/a	n/a	-999	18	[0, 0, 0]	n/a	catFR1	0	R1111M
87009.574	10.428	1075290	COUNTDOWN_START	n/a	n/a	n/a	n/a	-999	18	[0, 0, 0]	n/a	catFR1	0	R1111M
87020.002	0.007	1080504	COUNTDOWN_END	n/a	n/a	n/a	n/a	-999	18	[0, 0, 0]	n/a	catFR1	0	R1111M
87020.009	3.484	1080507	ORIENT	n/a	n/a	n/a	n/a	-999	18	[0, 0, 0]	n/a	catFR1	0	R1111M
87023.493	2.534	1082249	WORD	n/a	wordpools/wordpool_categorized_EN.txt	HICKORY	Trees	1	18	[0, 0, 0]	n/a	catFR1	0	R1111M
87026.027	2.534	1083516	WORD	n/a	wordpools/wordpool_categorized_EN.txt	OAK	Trees	2	18	[0, 0, 0]	n/a	catFR1	0	R1111M
87028.561	2.401	1084783	WORD	n/a	wordpools/wordpool_categorized_EN.txt	CROWBAR	Tools	3	18	[0, 0, 0]	n/a	catFR1	0	R1111M
87030.962	2.383	1085983	WORD	n/a	wordpools/wordpool_categorized_EN.txt	SAW	Tools	4	18	[0, 0, 0]	n/a	catFR1	0	R1111M
87033.345	2.434	1087175	WORD	n/a	wordpools/wordpool_categorized_EN.txt	COOKIE	Desserts	5	18	[0, 0, 0]	n/a	catFR1	0	R1111M
87035.779	2.617	1088392	WORD	n/a	wordpools/wordpool_categorized_EN.txt	BROWNIES	Desserts	6	18	[0, 0, 0]	n/a	catFR1	0	R1111M
87038.396	2.451	1089700	WORD	n/a	wordpools/wordpool_categorized_EN.txt	PINE	Trees	7	18	[0, 0, 0]	n/a	catFR1	0	R1111M
87040.847	2.517	1090926	WORD	n/a	wordpools/wordpool_categorized_EN.txt	CEDAR	Trees	8	18	[0, 0, 0]	n/a	catFR1	0	R1111M
87043.364	2.518	1092184	WORD	n/a	wordpools/wordpool_categorized_EN.txt	PIE	Desserts	9	18	[0, 0, 0]	n/a	catFR1	0	R1111M
87045.882	2.433	1093443	WORD	n/a	wordpools/wordpool_categorized_EN.txt	JELLO	Desserts	10	18	[0, 0, 0]	n/a	catFR1	0	R1111M
87048.315	2.467	1094659	WORD	n/a	wordpools/wordpool_categorized_EN.txt	WRENCH	Tools	11	18	[0, 0, 0]	n/a	catFR1	0	R1111M
87050.782	1.617	1095893	WORD	n/a	wordpools/wordpool_categorized_EN.txt	SANDER	Tools	12	18	[0, 0, 0]	n/a	catFR1	0	R1111M
87052.399	0.001	1096701	DISTRACT_START	n/a	n/a	n/a	n/a	-999	18	[0, 0, 0]	n/a	catFR1	0	R1111M
87052.4	0.015	1096702	START	n/a	n/a	n/a	n/a	-999	19	[-999, -999, -999]	n/a	catFR1	0	R1111M
87052.415	12.186	1096709	PROB	12.155	n/a	n/a	n/a	-999	19	[7, 9, 4]	34.0	catFR1	0	R1111M
87064.601	8.2	1102802	PROB	8.2	n/a	n/a	n/a	-999	19	[9, 8, 4]	12.0	catFR1	0	R1111M
87072.801	0.019	1106902	STOP	n/a	n/a	n/a	n/a	-999	19	[-999, -999, -999]	n/a	catFR1	0	R1111M
87072.82	1.101	1106911	DISTRACT_END	n/a	n/a	n/a	n/a	-999	18	[0, 0, 0]	n/a	catFR1	0	R1111M
87073.921	4.562	1107462	REC_START	n/a	n/a	n/a	n/a	-999	18	[0, 0, 0]	n/a	catFR1	0	R1111M
87078.483	5.87	1109743	REC_WORD	4.562	n/a	SANDER	Tools	12	18	[0, 0, 0]	n/a	catFR1	0	R1111M
87084.353	0.809	1112677	REC_WORD	10.432	n/a	OAK	Trees	2	18	[0, 0, 0]	n/a	catFR1	0	R1111M
87085.162	2.561	1113082	REC_WORD	11.241	n/a	HICKORY	Trees	1	18	[0, 0, 0]	n/a	catFR1	0	R1111M
87087.723	8.598	1114362	REC_WORD	13.802	n/a	WRENCH	Tools	11	18	[0, 0, 0]	n/a	catFR1	0	R1111M
87096.321	1.206	1118661	REC_WORD	22.4	n/a	PIE	Desserts	9	18	[0, 0, 0]	n/a	catFR1	0	R1111M
87097.527	1.971	1119264	REC_WORD	23.606	n/a	JELLO	Desserts	10	18	[0, 0, 0]	n/a	catFR1	0	R1111M
87099.498	0.438	1120250	REC_WORD	25.577	n/a	BROWNIES	Desserts	6	18	[0, 0, 0]	n/a	catFR1	0	R1111M
87099.936	4.0	1120469	REC_WORD	26.015	n/a	COOKIE	Desserts	5	18	[0, 0, 0]	n/a	catFR1	0	R1111M
87103.936	10.391	1122468	REC_END	n/a	n/a	n/a	n/a	-999	18	[0, 0, 0]	n/a	catFR1	0	R1111M
87114.327	0.001	1127664	COUNTDOWN_START	n/a	n/a	n/a	n/a	-999	19	[0, 0, 0]	n/a	catFR1	0	R1111M
87114.328	10.427	1127664	TRIAL	n/a	n/a	n/a	n/a	-999	19	[0, 0, 0]	n/a	catFR1	0	R1111M
87124.755	0.008	1132877	COUNTDOWN_END	n/a	n/a	n/a	n/a	-999	19	[0, 0, 0]	n/a	catFR1	0	R1111M
87124.763	3.867	1132881	ORIENT	n/a	n/a	n/a	n/a	-999	19	[0, 0, 0]	n/a	catFR1	0	R1111M
87128.63	2.451	1134815	WORD	n/a	wordpools/wordpool_categorized_EN.txt	PIANO	Instruments	1	19	[0, 0, 0]	n/a	catFR1	0	R1111M
87131.081	2.45	1136040	WORD	n/a	wordpools/wordpool_categorized_EN.txt	ORGAN	Instruments	2	19	[0, 0, 0]	n/a	catFR1	0	R1111M
87133.531	2.584	1137265	WORD	n/a	wordpools/wordpool_categorized_EN.txt	WALL	Building	3	19	[0, 0, 0]	n/a	catFR1	0	R1111M
87136.115	2.6	1138557	WORD	n/a	wordpools/wordpool_categorized_EN.txt	STAIRS	Building	4	19	[0, 0, 0]	n/a	catFR1	0	R1111M
87138.715	2.384	1139857	WORD	n/a	wordpools/wordpool_categorized_EN.txt	PIGEON	Birds	5	19	[0, 0, 0]	n/a	catFR1	0	R1111M
87141.099	2.601	1141049	WORD	n/a	wordpools/wordpool_categorized_EN.txt	HAWK	Birds	6	19	[0, 0, 0]	n/a	catFR1	0	R1111M
87143.7	2.45	1142349	WORD	n/a	wordpools/wordpool_categorized_EN.txt	TROMBONE	Instruments	7	19	[0, 0, 0]	n/a	catFR1	0	R1111M
87146.15	2.434	1143574	WORD	n/a	wordpools/wordpool_categorized_EN.txt	BANJO	Instruments	8	19	[0, 0, 0]	n/a	catFR1	0	R1111M
87148.584	2.517	1144791	WORD	n/a	wordpools/wordpool_categorized_EN.txt	GOOSE	Birds	9	19	[0, 0, 0]	n/a	catFR1	0	R1111M
87151.101	2.467	1146050	WORD	n/a	wordpools/wordpool_categorized_EN.txt	ROBIN	Birds	10	19	[0, 0, 0]	n/a	catFR1	0	R1111M
87153.568	2.518	1147283	WORD	n/a	wordpools/wordpool_categorized_EN.txt	ROOF	Building	11	19	[0, 0, 0]	n/a	catFR1	0	R1111M
87156.086	1.617	1148542	WORD	n/a	wordpools/wordpool_categorized_EN.txt	DOOR	Building	12	19	[0, 0, 0]	n/a	catFR1	0	R1111M
87157.703	0.0	1149350	DISTRACT_START	n/a	n/a	n/a	n/a	-999	19	[0, 0, 0]	n/a	catFR1	0	R1111M
87157.703	0.016	1149350	START	n/a	n/a	n/a	n/a	-999	20	[-999, -999, -999]	n/a	catFR1	0	R1111M
87157.719	11.602	1149358	PROB	11.57	n/a	n/a	n/a	-999	20	[4, 8, 5]	17.0	catFR1	0	R1111M
87169.321	8.019	1155159	PROB	7.993	n/a	n/a	n/a	-999	20	[3, 2, 8]	13.0	catFR1	0	R1111M
87177.34	7.669	1159168	PROB	7.669	n/a	n/a	n/a	-999	20	[2, 4, 7]	13.0	catFR1	0	R1111M
87185.009	0.015	1163003	STOP	n/a	n/a	n/a	n/a	-999	20	[-999, -999, -999]	n/a	catFR1	0	R1111M
87185.024	1.184	1163010	DISTRACT_END	n/a	n/a	n/a	n/a	-999	19	[0, 0, 0]	n/a	catFR1	0	R1111M
87186.208	2.784	1163602	REC_START	n/a	n/a	n/a	n/a	-999	19	[0, 0, 0]	n/a	catFR1	0	R1111M
87188.992	0.582	1164994	REC_WORD	2.784	n/a	ORGAN	Instruments	2	19	[0, 0, 0]	n/a	catFR1	0	R1111M
87189.574	0.918	1165285	REC_WORD	3.366	n/a	PIANO	Instruments	1	19	[0, 0, 0]	n/a	catFR1	0	R1111M
87190.492	0.454	1165744	REC_WORD	4.284	n/a	WALL	Building	3	19	[0, 0, 0]	n/a	catFR1	0	R1111M
87190.946	1.598	1165971	REC_WORD	4.738	n/a	STAIRS	Building	4	19	[0, 0, 0]	n/a	catFR1	0	R1111M
87192.544	1.226	1166770	REC_WORD	6.336	n/a	TROMBONE	Instruments	7	19	[0, 0, 0]	n/a	catFR1	0	R1111M
87193.77	3.304	1167383	REC_WORD	7.562	n/a	BANJO	Instruments	8	19	[0, 0, 0]	n/a	catFR1	0	R1111M
87197.074	2.542	1169035	REC_WORD	10.866	n/a	HAWK	Birds	6	19	[0, 0, 0]	n/a	catFR1	0	R1111M
87199.616	1.266	1170306	REC_WORD	13.408	n/a	ROBIN	Birds	10	19	[0, 0, 0]	n/a	catFR1	0	R1111M
87200.882	15.341	1170939	REC_WORD	14.674	n/a	PIGEON	Birds	5	19	[0, 0, 0]	n/a	catFR1	0	R1111M
87216.223	6.643	1178609	REC_END	n/a	n/a	n/a	n/a	-999	19	[0, 0, 0]	n/a	catFR1	0	R1111M
87222.866	0.0	1181930	COUNTDOWN_START	n/a	n/a	n/a	n/a	-999	20	[0, 0, 0]	n/a	catFR1	0	R1111M
87222.866	10.428	1181930	TRIAL	n/a	n/a	n/a	n/a	-999	20	[0, 0, 0]	n/a	catFR1	0	R1111M
87233.294	0.006	1187144	COUNTDOWN_END	n/a	n/a	n/a	n/a	-999	20	[0, 0, 0]	n/a	catFR1	0	R1111M
87233.3	3.785	1187147	ORIENT	n/a	n/a	n/a	n/a	-999	20	[0, 0, 0]	n/a	catFR1	0	R1111M
87237.085	2.483	1189039	WORD	n/a	wordpools/wordpool_categorized_EN.txt	APPLE	Fruit	1	20	[0, 0, 0]	n/a	catFR1	0	R1111M
87239.568	2.534	1190281	WORD	n/a	wordpools/wordpool_categorized_EN.txt	LIME	Fruit	2	20	[0, 0, 0]	n/a	catFR1	0	R1111M
87242.102	2.417	1191547	WORD	n/a	wordpools/wordpool_categorized_EN.txt	CELLO	Instruments	3	20	[0, 0, 0]	n/a	catFR1	0	R1111M
87244.519	2.534	1192756	WORD	n/a	wordpools/wordpool_categorized_EN.txt	DRUM	Instruments	4	20	[0, 0, 0]	n/a	catFR1	0	R1111M
87247.053	2.451	1194023	WORD	n/a	wordpools/wordpool_categorized_EN.txt	TULIP	Flowers	5	20	[0, 0, 0]	n/a	catFR1	0	R1111M
87249.504	2.483	1195248	WORD	n/a	wordpools/wordpool_categorized_EN.txt	ORCHID	Flowers	6	20	[0, 0, 0]	n/a	catFR1	0	R1111M
87251.987	2.584	1196490	WORD	n/a	wordpools/wordpool_categorized_EN.txt	BANANA	Fruit	7	20	[0, 0, 0]	n/a	catFR1	0	R1111M
87254.571	2.584	1197782	WORD	n/a	wordpools/wordpool_categorized_EN.txt	PEAR	Fruit	8	20	[0, 0, 0]	n/a	catFR1	0	R1111M
87257.155	2.401	1199074	WORD	n/a	wordpools/wordpool_categorized_EN.txt	LILY	Flowers	9	20	[0, 0, 0]	n/a	catFR1	0	R1111M
87259.556	2.416	1200274	WORD	n/a	wordpools/wordpool_categorized_EN.txt	DAISY	Flowers	10	20	[0, 0, 0]	n/a	catFR1	0	R1111M
87261.972	2.534	1201482	WORD	n/a	wordpools/wordpool_categorized_EN.txt	TRUMPET	Instruments	11	20	[0, 0, 0]	n/a	catFR1	0	R1111M
87264.506	1.617	1202749	WORD	n/a	wordpools/wordpool_categorized_EN.txt	GUITAR	Instruments	12	20	[0, 0, 0]	n/a	catFR1	0	R1111M
87266.123	0.001	1203557	DISTRACT_START	n/a	n/a	n/a	n/a	-999	20	[0, 0, 0]	n/a	catFR1	0	R1111M
87266.124	0.016	1203558	START	n/a	n/a	n/a	n/a	-999	21	[-999, -999, -999]	n/a	catFR1	0	R1111M
87266.14	7.168	1203566	PROB	7.142	n/a	n/a	n/a	-999	21	[5, 2, 4]	11.0	catFR1	0	R1111M
87273.308	17.862	1207150	PROB	17.862	n/a	n/a	n/a	-999	21	[7, 4, 6]	17.0	catFR1	0	R1111M
87291.17	0.008	1216080	STOP	n/a	n/a	n/a	n/a	-999	21	[-999, -999, -999]	n/a	catFR1	0	R1111M
87291.178	1.118	1216084	DISTRACT_END	n/a	n/a	n/a	n/a	-999	20	[0, 0, 0]	n/a	catFR1	0	R1111M
87292.296	6.021	1216643	REC_START	n/a	n/a	n/a	n/a	-999	20	[0, 0, 0]	n/a	catFR1	0	R1111M
87298.317	3.507	1219653	REC_WORD	6.021	n/a	TULIP	Flowers	5	20	[0, 0, 0]	n/a	catFR1	0	R1111M
87301.824	1.263	1221407	REC_WORD	9.528	n/a	APPLE	Fruit	1	20	[0, 0, 0]	n/a	catFR1	0	R1111M
87303.087	2.638	1222038	REC_WORD	10.791	n/a	LIME	Fruit	2	20	[0, 0, 0]	n/a	catFR1	0	R1111M
87305.725	0.748	1223357	REC_WORD	13.429	n/a	BANANA	Fruit	7	20	[0, 0, 0]	n/a	catFR1	0	R1111M
87306.473	2.633	1223731	REC_WORD	14.177	n/a	PEAR	Fruit	8	20	[0, 0, 0]	n/a	catFR1	0	R1111M
87309.106	1.533	1225048	REC_WORD	16.81	n/a	CELLO	Instruments	3	20	[0, 0, 0]	n/a	catFR1	0	R1111M
87310.639	11.667	1225814	REC_WORD	18.343	n/a	DRUM	Instruments	4	20	[0, 0, 0]	n/a	catFR1	0	R1111M
87322.306	7.396	1231647	REC_END	n/a	n/a	n/a	n/a	-999	20	[0, 0, 0]	n/a	catFR1	0	R1111M
87329.702	0.001	1235345	COUNTDOWN_START	n/a	n/a	n/a	n/a	-999	21	[0, 0, 0]	n/a	catFR1	0	R1111M
87329.703	10.427	1235345	TRIAL	n/a	n/a	n/a	n/a	-999	21	[0, 0, 0]	n/a	catFR1	0	R1111M
87340.13	0.008	1240559	COUNTDOWN_END	n/a	n/a	n/a	n/a	-999	21	[0, 0, 0]	n/a	catFR1	0	R1111M
87340.138	3.467	1240563	ORIENT	n/a	n/a	n/a	n/a	-999	21	[0, 0, 0]	n/a	catFR1	0	R1111M
87343.605	2.567	1242296	WORD	n/a	wordpools/wordpool_categorized_EN.txt	HALLWAY	Building	1	21	[0, 0, 0]	n/a	catFR1	0	R1111M
87346.172	2.517	1243579	WORD	n/a	wordpools/wordpool_categorized_EN.txt	WINDOW	Building	2	21	[0, 0, 0]	n/a	catFR1	0	R1111M
87348.689	2.384	1244838	WORD	n/a	wordpools/wordpool_categorized_EN.txt	SPRUCE	Trees	3	21	[0, 0, 0]	n/a	catFR1	0	R1111M
87351.073	2.501	1246030	WORD	n/a	wordpools/wordpool_categorized_EN.txt	EVERGREEN	Trees	4	21	[0, 0, 0]	n/a	catFR1	0	R1111M
87353.574	2.517	1247280	WORD	n/a	wordpools/wordpool_categorized_EN.txt	DESK	Furniture	5	21	[0, 0, 0]	n/a	catFR1	0	R1111M
87356.091	2.567	1248539	WORD	n/a	wordpools/wordpool_categorized_EN.txt	DRESSER	Furniture	6	21	[0, 0, 0]	n/a	catFR1	0	R1111M
87358.658	2.55	1249822	WORD	n/a	wordpools/wordpool_categorized_EN.txt	ROOM	Building	7	21	[0, 0, 0]	n/a	catFR1	0	R1111M
87361.208	2.534	1251097	WORD	n/a	wordpools/wordpool_categorized_EN.txt	ATTIC	Building	8	21	[0, 0, 0]	n/a	catFR1	0	R1111M
87363.742	2.501	1252364	WORD	n/a	wordpools/wordpool_categorized_EN.txt	CABINET	Furniture	9	21	[0, 0, 0]	n/a	catFR1	0	R1111M
87366.243	2.434	1253614	WORD	n/a	wordpools/wordpool_categorized_EN.txt	TABLE	Furniture	10	21	[0, 0, 0]	n/a	catFR1	0	R1111M
87368.677	2.517	1254831	WORD	n/a	wordpools/wordpool_categorized_EN.txt	WILLOW	Trees	11	21	[0, 0, 0]	n/a	catFR1	0	R1111M
87371.194	1.617	1256090	WORD	n/a	wordpools/wordpool_categorized_EN.txt	WALNUT	Trees	12	21	[0, 0, 0]	n/a	catFR1	0	R1111M
87372.811	0.0	1256898	DISTRACT_START	n/a	n/a	n/a	n/a	-999	21	[0, 0, 0]	n/a	catFR1	0	R1111M
87372.811	0.017	1256898	START	n/a	n/a	n/a	n/a	-999	22	[-999, -999, -999]	n/a	catFR1	0	R1111M
87372.828	14.319	1256907	PROB	14.286	n/a	n/a	n/a	-999	22	[5, 7, 4]	16.0	catFR1	0	R1111M
87387.147	5.902	1264066	PROB	5.902	n/a	n/a	n/a	-999	22	[1, 9, 7]	17.0	catFR1	0	R1111M
87393.049	0.016	1267017	STOP	n/a	n/a	n/a	n/a	-999	22	[-999, -999, -999]	n/a	catFR1	0	R1111M
87393.065	1.184	1267025	DISTRACT_END	n/a	n/a	n/a	n/a	-999	21	[0, 0, 0]	n/a	catFR1	0	R1111M
87394.249	2.22	1267617	REC_START	n/a	n/a	n/a	n/a	-999	21	[0, 0, 0]	n/a	catFR1	0	R1111M
87396.469	1.3	1268727	REC_WORD	2.22	n/a	WINDOW	Building	2	21	[0, 0, 0]	n/a	catFR1	0	R1111M
87397.769	7.474	1269377	REC_WORD	3.52	n/a	WALNUT	Trees	12	21	[0, 0, 0]	n/a	catFR1	0	R1111M
87405.243	5.537	1273113	REC_WORD	10.994	n/a	STAIRS	n/a	-999	21	[0, 0, 0]	n/a	catFR1	0	R1111M
87410.78	2.604	1275882	REC_WORD	16.531	n/a	HALLWAY	Building	1	21	[0, 0, 0]	n/a	catFR1	0	R1111M
87413.384	1.186	1277184	REC_WORD	19.135	n/a	EVERGREEN	Trees	4	21	[0, 0, 0]	n/a	catFR1	0	R1111M
87414.57	2.748	1277777	REC_WORD	20.321	n/a	SPRUCE	Trees	3	21	[0, 0, 0]	n/a	catFR1	0	R1111M
87417.318	2.32	1279150	REC_WORD	23.069	n/a	DESK	Furniture	5	21	[0, 0, 0]	n/a	catFR1	0	R1111M
87419.638	4.62	1280310	REC_WORD	25.389	n/a	TABLE	Furniture	10	21	[0, 0, 0]	n/a	catFR1	0	R1111M
87424.258	8.114	1282620	REC_END	n/a	n/a	n/a	n/a	-999	21	[0, 0, 0]	n/a	catFR1	0	R1111M
87432.372	0.0	1286677	COUNTDOWN_START	n/a	n/a	n/a	n/a	-999	22	[0, 0, 0]	n/a	catFR1	0	R1111M
87432.372	10.428	1286677	TRIAL	n/a	n/a	n/a	n/a	-999	22	[0, 0, 0]	n/a	catFR1	0	R1111M
87442.8	0.008	1291891	COUNTDOWN_END	n/a	n/a	n/a	n/a	-999	22	[0, 0, 0]	n/a	catFR1	0	R1111M
87442.808	3.5	1291895	ORIENT	n/a	n/a	n/a	n/a	-999	22	[0, 0, 0]	n/a	catFR1	0	R1111M
87446.308	2.535	1293645	WORD	n/a	wordpools/wordpool_categorized_EN.txt	SLINKY	Toys	1	22	[0, 0, 0]	n/a	catFR1	0	R1111M
87448.843	2.45	1294912	WORD	n/a	wordpools/wordpool_categorized_EN.txt	FOOTBALL	Toys	2	22	[0, 0, 0]	n/a	catFR1	0	R1111M
87451.293	2.534	1296137	WORD	n/a	wordpools/wordpool_categorized_EN.txt	CAULIFLOWER	Vegetables	3	22	[0, 0, 0]	n/a	catFR1	0	R1111M
87453.827	2.4	1297404	WORD	n/a	wordpools/wordpool_categorized_EN.txt	LETTUCE	Vegetables	4	22	[0, 0, 0]	n/a	catFR1	0	R1111M
87456.227	2.417	1298604	WORD	n/a	wordpools/wordpool_categorized_EN.txt	DUCK	Birds	5	22	[0, 0, 0]	n/a	catFR1	0	R1111M
87458.644	2.567	1299812	WORD	n/a	wordpools/wordpool_categorized_EN.txt	CARDINAL	Birds	6	22	[0, 0, 0]	n/a	catFR1	0	R1111M
87461.211	2.501	1301096	WORD	n/a	wordpools/wordpool_categorized_EN.txt	CELERY	Vegetables	7	22	[0, 0, 0]	n/a	catFR1	0	R1111M
87463.712	2.5	1302346	WORD	n/a	wordpools/wordpool_categorized_EN.txt	PEAS	Vegetables	8	22	[0, 0, 0]	n/a	catFR1	0	R1111M
87466.212	2.501	1303596	WORD	n/a	wordpools/wordpool_categorized_EN.txt	BASKETBALL	Toys	9	22	[0, 0, 0]	n/a	catFR1	0	R1111M
87468.713	2.4	1304847	WORD	n/a	wordpools/wordpool_categorized_EN.txt	PUZZLE	Toys	10	22	[0, 0, 0]	n/a	catFR1	0	R1111M
87471.113	2.401	1306046	WORD	n/a	wordpools/wordpool_categorized_EN.txt	SPARROW	Birds	11	22	[0, 0, 0]	n/a	catFR1	0	R1111M
87473.514	1.617	1307247	WORD	n/a	wordpools/wordpool_categorized_EN.txt	BLUEBIRD	Birds	12	22	[0, 0, 0]	n/a	catFR1	0	R1111M
87475.131	0.0	1308055	DISTRACT_START	n/a	n/a	n/a	n/a	-999	22	[0, 0, 0]	n/a	catFR1	0	R1111M
87475.131	0.016	1308055	START	n/a	n/a	n/a	n/a	-999	23	[-999, -999, -999]	n/a	catFR1	0	R1111M
87475.147	7.168	1308063	PROB	7.142	n/a	n/a	n/a	-999	23	[2, 7, 7]	16.0	catFR1	0	R1111M
87482.315	8.636	1311647	PROB	8.607	n/a	n/a	n/a	-999	23	[3, 4, 4]	11.0	catFR1	0	R1111M
87490.951	10.834	1315965	PROB	10.834	n/a	n/a	n/a	-999	23	[9, 4, 6]	19.0	catFR1	0	R1111M
87501.785	0.017	1321382	STOP	n/a	n/a	n/a	n/a	-999	23	[-999, -999, -999]	n/a	catFR1	0	R1111M
87501.802	1.218	1321390	DISTRACT_END	n/a	n/a	n/a	n/a	-999	22	[0, 0, 0]	n/a	catFR1	0	R1111M
87503.02	1.868	1321999	REC_START	n/a	n/a	n/a	n/a	-999	22	[0, 0, 0]	n/a	catFR1	0	R1111M
87504.888	1.261	1322933	REC_WORD	1.868	n/a	BLUEBIRD	Birds	12	22	[0, 0, 0]	n/a	catFR1	0	R1111M
87506.149	2.62	1323563	REC_WORD	3.129	n/a	SPARROW	Birds	11	22	[0, 0, 0]	n/a	catFR1	0	R1111M
87508.769	3.144	1324873	REC_WORD	5.749	n/a	SLINKY	Toys	1	22	[0, 0, 0]	n/a	catFR1	0	R1111M
87511.913	8.04	1326445	REC_WORD	8.893	n/a	FOOTBALL	Toys	2	22	[0, 0, 0]	n/a	catFR1	0	R1111M
87519.953	3.437	1330465	REC_WORD	16.933	n/a	CAULIFLOWER	Vegetables	3	22	[0, 0, 0]	n/a	catFR1	0	R1111M
87523.39	4.604	1332183	REC_WORD	20.37	n/a	PEAS	Vegetables	8	22	[0, 0, 0]	n/a	catFR1	0	R1111M
87527.994	5.037	1334485	REC_WORD	24.974	n/a	CARDINAL	Birds	6	22	[0, 0, 0]	n/a	catFR1	0	R1111M
87533.031	4.062	1337004	REC_END	n/a	n/a	n/a	n/a	-999	22	[0, 0, 0]	n/a	catFR1	0	R1111M
87537.093	0.0	1339035	TRIAL	n/a	n/a	n/a	n/a	-999	23	[0, 0, 0]	n/a	catFR1	0	R1111M
87537.093	10.428	1339035	COUNTDOWN_START	n/a	n/a	n/a	n/a	-999	23	[0, 0, 0]	n/a	catFR1	0	R1111M
87547.521	0.007	1344248	COUNTDOWN_END	n/a	n/a	n/a	n/a	-999	23	[0, 0, 0]	n/a	catFR1	0	R1111M
87547.528	3.617	1344252	ORIENT	n/a	n/a	n/a	n/a	-999	23	[0, 0, 0]	n/a	catFR1	0	R1111M
87551.145	2.401	1346060	WORD	n/a	wordpools/wordpool_categorized_EN.txt	CHAIR	Furniture	1	23	[0, 0, 0]	n/a	catFR1	0	R1111M
87553.546	2.517	1347261	WORD	n/a	wordpools/wordpool_categorized_EN.txt	SHELF	Furniture	2	23	[0, 0, 0]	n/a	catFR1	0	R1111M
87556.063	2.417	1348519	WORD	n/a	wordpools/wordpool_categorized_EN.txt	ROSE	Flowers	3	23	[0, 0, 0]	n/a	catFR1	0	R1111M
87558.48	2.601	1349727	WORD	n/a	wordpools/wordpool_categorized_EN.txt	CARNATION	Flowers	4	23	[0, 0, 0]	n/a	catFR1	0	R1111M
87561.081	2.4	1351028	WORD	n/a	wordpools/wordpool_categorized_EN.txt	CALF	FarmAnimals	5	23	[0, 0, 0]	n/a	catFR1	0	R1111M
87563.481	2.617	1352228	WORD	n/a	wordpools/wordpool_categorized_EN.txt	CHICKEN	FarmAnimals	6	23	[0, 0, 0]	n/a	catFR1	0	R1111M
87566.098	2.517	1353536	WORD	n/a	wordpools/wordpool_categorized_EN.txt	SOFA	Furniture	7	23	[0, 0, 0]	n/a	catFR1	0	R1111M
87568.615	2.601	1354795	WORD	n/a	wordpools/wordpool_categorized_EN.txt	RECLINER	Furniture	8	23	[0, 0, 0]	n/a	catFR1	0	R1111M
87571.216	2.4	1356095	WORD	n/a	wordpools/wordpool_categorized_EN.txt	PIG	FarmAnimals	9	23	[0, 0, 0]	n/a	catFR1	0	R1111M
87573.616	2.567	1357295	WORD	n/a	wordpools/wordpool_categorized_EN.txt	COW	FarmAnimals	10	23	[0, 0, 0]	n/a	catFR1	0	R1111M
87576.183	2.518	1358578	WORD	n/a	wordpools/wordpool_categorized_EN.txt	DAFFODIL	Flowers	11	23	[0, 0, 0]	n/a	catFR1	0	R1111M
87578.701	1.617	1359837	WORD	n/a	wordpools/wordpool_categorized_EN.txt	MARIGOLD	Flowers	12	23	[0, 0, 0]	n/a	catFR1	0	R1111M
87580.318	0.001	1360646	DISTRACT_START	n/a	n/a	n/a	n/a	-999	23	[0, 0, 0]	n/a	catFR1	0	R1111M
87580.319	0.015	1360646	START	n/a	n/a	n/a	n/a	-999	24	[-999, -999, -999]	n/a	catFR1	0	R1111M
87580.334	10.537	1360654	PROB	10.516	n/a	n/a	n/a	-999	24	[6, 3, 8]	19.0	catFR1	0	R1111M
87590.871	10.682	1365922	PROB	10.682	n/a	n/a	n/a	-999	24	[8, 7, 8]	23.0	catFR1	0	R1111M
87601.553	0.019	1371263	STOP	n/a	n/a	n/a	n/a	-999	24	[-999, -999, -999]	n/a	catFR1	0	R1111M
87601.572	1.2	1371272	DISTRACT_END	n/a	n/a	n/a	n/a	-999	23	[0, 0, 0]	n/a	catFR1	0	R1111M
87602.772	3.331	1371872	REC_START	n/a	n/a	n/a	n/a	-999	23	[0, 0, 0]	n/a	catFR1	0	R1111M
87606.103	0.766	1373538	REC_WORD	3.331	n/a	CHICKEN	FarmAnimals	6	23	[0, 0, 0]	n/a	catFR1	0	R1111M
87606.869	2.326	1373921	REC_WORD	4.097	n/a	CALF	FarmAnimals	5	23	[0, 0, 0]	n/a	catFR1	0	R1111M
87609.195	2.107	1375084	REC_WORD	6.423	n/a	PIG	FarmAnimals	9	23	[0, 0, 0]	n/a	catFR1	0	R1111M
87611.302	2.278	1376137	REC_WORD	8.53	n/a	COW	FarmAnimals	10	23	[0, 0, 0]	n/a	catFR1	0	R1111M
87613.58	1.31	1377276	REC_WORD	10.808	n/a	DAFFODIL	Flowers	11	23	[0, 0, 0]	n/a	catFR1	0	R1111M
87614.89	1.943	1377931	REC_WORD	12.118	n/a	CARNATION	Flowers	4	23	[0, 0, 0]	n/a	catFR1	0	R1111M
87616.833	15.952	1378902	REC_WORD	14.061	n/a	ROSE	Flowers	3	23	[0, 0, 0]	n/a	catFR1	0	R1111M
87632.785	3.777	1386878	REC_END	n/a	n/a	n/a	n/a	-999	23	[0, 0, 0]	n/a	catFR1	0	R1111M
87636.562	0.0	1388766	TRIAL	n/a	n/a	n/a	n/a	-999	24	[0, 0, 0]	n/a	catFR1	0	R1111M
87636.562	10.428	1388766	COUNTDOWN_START	n/a	n/a	n/a	n/a	-999	24	[0, 0, 0]	n/a	catFR1	0	R1111M
87646.99	0.007	1393980	COUNTDOWN_END	n/a	n/a	n/a	n/a	-999	24	[0, 0, 0]	n/a	catFR1	0	R1111M
87646.997	3.751	1393983	ORIENT	n/a	n/a	n/a	n/a	-999	24	[0, 0, 0]	n/a	catFR1	0	R1111M
87650.748	2.567	1395859	WORD	n/a	wordpools/wordpool_categorized_EN.txt	ROOSTER	FarmAnimals	1	24	[0, 0, 0]	n/a	catFR1	0	R1111M
87653.315	2.417	1397142	WORD	n/a	wordpools/wordpool_categorized_EN.txt	GOAT	FarmAnimals	2	24	[0, 0, 0]	n/a	catFR1	0	R1111M
87655.732	2.534	1398351	WORD	n/a	wordpools/wordpool_categorized_EN.txt	COFFEE	Beverages	3	24	[0, 0, 0]	n/a	catFR1	0	R1111M
87658.266	2.4	1399618	WORD	n/a	wordpools/wordpool_categorized_EN.txt	JUICE	Beverages	4	24	[0, 0, 0]	n/a	catFR1	0	R1111M
87660.666	2.618	1400818	WORD	n/a	wordpools/wordpool_categorized_EN.txt	TOE	BodyParts	5	24	[0, 0, 0]	n/a	catFR1	0	R1111M
87663.284	2.45	1402126	WORD	n/a	wordpools/wordpool_categorized_EN.txt	HAND	BodyParts	6	24	[0, 0, 0]	n/a	catFR1	0	R1111M
87665.734	2.634	1403351	WORD	n/a	wordpools/wordpool_categorized_EN.txt	TURKEY	FarmAnimals	7	24	[0, 0, 0]	n/a	catFR1	0	R1111M
87668.368	2.617	1404668	WORD	n/a	wordpools/wordpool_categorized_EN.txt	LAMB	FarmAnimals	8	24	[0, 0, 0]	n/a	catFR1	0	R1111M
87670.985	2.384	1405977	WORD	n/a	wordpools/wordpool_categorized_EN.txt	EYE	BodyParts	9	24	[0, 0, 0]	n/a	catFR1	0	R1111M
87673.369	2.617	1407169	WORD	n/a	wordpools/wordpool_categorized_EN.txt	NOSE	BodyParts	10	24	[0, 0, 0]	n/a	catFR1	0	R1111M
87675.986	2.534	1408477	WORD	n/a	wordpools/wordpool_categorized_EN.txt	COLA	Beverages	11	24	[0, 0, 0]	n/a	catFR1	0	R1111M
87678.52	1.617	1409744	WORD	n/a	wordpools/wordpool_categorized_EN.txt	MILK	Beverages	12	24	[0, 0, 0]	n/a	catFR1	0	R1111M
87680.137	0.001	1410552	DISTRACT_START	n/a	n/a	n/a	n/a	-999	24	[0, 0, 0]	n/a	catFR1	0	R1111M
87680.138	0.016	1410553	START	n/a	n/a	n/a	n/a	-999	25	[-999, -999, -999]	n/a	catFR1	0	R1111M
87680.154	5.017	1410561	PROB	4.984	n/a	n/a	n/a	-999	25	[5, 7, 1]	13.0	catFR1	0	R1111M
87685.171	12.403	1413069	PROB	12.374	n/a	n/a	n/a	-999	25	[1, 6, 9]	15.0	catFR1	0	R1111M
87697.574	8.365	1419270	PROB	8.365	n/a	n/a	n/a	-999	25	[2, 7, 9]	18.0	catFR1	0	R1111M
87705.939	0.004	1423453	STOP	n/a	n/a	n/a	n/a	-999	25	[-999, -999, -999]	n/a	catFR1	0	R1111M
87705.943	1.166	1423455	DISTRACT_END	n/a	n/a	n/a	n/a	-999	24	[0, 0, 0]	n/a	catFR1	0	R1111M
87707.109	3.344	1424038	REC_START	n/a	n/a	n/a	n/a	-999	24	[0, 0, 0]	n/a	catFR1	0	R1111M
87710.453	0.987	1425710	REC_WORD	3.344	n/a	ROOSTER	FarmAnimals	1	24	[0, 0, 0]	n/a	catFR1	0	R1111M
87711.44	6.321	1426203	REC_WORD	4.331	n/a	GOAT	FarmAnimals	2	24	[0, 0, 0]	n/a	catFR1	0	R1111M
87717.761	2.639	1429363	REC_WORD	10.652	n/a	TEA	n/a	-999	24	[0, 0, 0]	n/a	catFR1	0	R1111M
87720.4	5.87	1430683	REC_WORD	13.291	n/a	COFFEE	Beverages	3	24	[0, 0, 0]	n/a	catFR1	0	R1111M
87726.27	1.213	1433618	REC_WORD	19.161	n/a	TOE	BodyParts	5	24	[0, 0, 0]	n/a	catFR1	0	R1111M
87727.483	1.608	1434224	REC_WORD	20.374	n/a	HAND	BodyParts	6	24	[0, 0, 0]	n/a	catFR1	0	R1111M
87729.091	1.506	1435028	REC_WORD	21.982	n/a	TURKEY	FarmAnimals	7	24	[0, 0, 0]	n/a	catFR1	0	R1111M
87730.597	6.122	1435781	REC_WORD	23.488	n/a	LAMB	FarmAnimals	8	24	[0, 0, 0]	n/a	catFR1	0	R1111M
87736.719	0.401	1438842	REC_WORD	29.61	n/a	HAND	BodyParts	6	24	[0, 0, 0]	n/a	catFR1	0	R1111M
87737.12	34.218	1439042	REC_END	n/a	n/a	n/a	n/a	-999	24	[0, 0, 0]	n/a	catFR1	0	R1111M
87771.338	0.0	1456150	TRIAL	n/a	n/a	n/a	n/a	-999	25	[0, 0, 0]	n/a	catFR1	0	R1111M
87771.338	10.428	1456150	COUNTDOWN_START	n/a	n/a	n/a	n/a	-999	25	[0, 0, 0]	n/a	catFR1	0	R1111M
87781.766	0.007	1461364	COUNTDOWN_END	n/a	n/a	n/a	n/a	-999	25	[0, 0, 0]	n/a	catFR1	0	R1111M
87781.773	3.618	1461368	ORIENT	n/a	n/a	n/a	n/a	-999	25	[0, 0, 0]	n/a	catFR1	0	R1111M
87785.391	2.534	1463176	WORD	n/a	wordpools/wordpool_categorized_EN.txt	LIGHTNING	Weather	1	25	[0, 0, 0]	n/a	catFR1	0	R1111M
87787.925	2.467	1464443	WORD	n/a	wordpools/wordpool_categorized_EN.txt	THUNDER	Weather	2	25	[0, 0, 0]	n/a	catFR1	0	R1111M
87790.392	2.583	1465677	WORD	n/a	wordpools/wordpool_categorized_EN.txt	BULL	FarmAnimals	3	25	[0, 0, 0]	n/a	catFR1	0	R1111M
87792.975	2.468	1466968	WORD	n/a	wordpools/wordpool_categorized_EN.txt	HEN	FarmAnimals	4	25	[0, 0, 0]	n/a	catFR1	0	R1111M
87795.443	2.583	1468202	WORD	n/a	wordpools/wordpool_categorized_EN.txt	CORKSCREW	KitchenTools	5	25	[0, 0, 0]	n/a	catFR1	0	R1111M
87798.026	2.484	1469494	WORD	n/a	wordpools/wordpool_categorized_EN.txt	FORK	KitchenTools	6	25	[0, 0, 0]	n/a	catFR1	0	R1111M
87800.51	2.452	1470736	WORD	n/a	wordpools/wordpool_categorized_EN.txt	TORNADO	Weather	7	25	[0, 0, 0]	n/a	catFR1	0	R1111M
87802.962	2.416	1471961	WORD	n/a	wordpools/wordpool_categorized_EN.txt	HURRICANE	Weather	8	25	[0, 0, 0]	n/a	catFR1	0	R1111M
87805.378	2.434	1473169	WORD	n/a	wordpools/wordpool_categorized_EN.txt	PEELER	KitchenTools	9	25	[0, 0, 0]	n/a	catFR1	0	R1111M
87807.812	2.6	1474386	WORD	n/a	wordpools/wordpool_categorized_EN.txt	TONGS	KitchenTools	10	25	[0, 0, 0]	n/a	catFR1	0	R1111M
87810.412	2.468	1475686	WORD	n/a	wordpools/wordpool_categorized_EN.txt	SHEEP	FarmAnimals	11	25	[0, 0, 0]	n/a	catFR1	0	R1111M
87812.88	1.616	1476920	WORD	n/a	wordpools/wordpool_categorized_EN.txt	HORSE	FarmAnimals	12	25	[0, 0, 0]	n/a	catFR1	0	R1111M
87814.496	0.001	1477728	DISTRACT_START	n/a	n/a	n/a	n/a	-999	25	[0, 0, 0]	n/a	catFR1	0	R1111M
87814.497	0.016	1477729	START	n/a	n/a	n/a	n/a	-999	26	[-999, -999, -999]	n/a	catFR1	0	R1111M
87814.513	9.852	1477737	PROB	9.816	n/a	n/a	n/a	-999	26	[6, 9, 1]	16.0	catFR1	0	R1111M
87824.365	12.717	1482662	PROB	12.717	n/a	n/a	n/a	-999	26	[7, 2, 6]	15.0	catFR1	0	R1111M
87837.082	0.019	1489021	STOP	n/a	n/a	n/a	n/a	-999	26	[-999, -999, -999]	n/a	catFR1	0	R1111M
87837.101	1.051	1489030	DISTRACT_END	n/a	n/a	n/a	n/a	-999	25	[0, 0, 0]	n/a	catFR1	0	R1111M
87838.152	3.058	1489555	REC_START	n/a	n/a	n/a	n/a	-999	25	[0, 0, 0]	n/a	catFR1	0	R1111M
87841.21	1.243	1491084	REC_WORD	3.058	n/a	FORK	KitchenTools	6	25	[0, 0, 0]	n/a	catFR1	0	R1111M
87842.453	2.336	1491706	REC_WORD	4.301	n/a	CORKSCREW	KitchenTools	5	25	[0, 0, 0]	n/a	catFR1	0	R1111M
87844.789	0.71	1492874	REC_WORD	6.637	n/a	LIGHTNING	Weather	1	25	[0, 0, 0]	n/a	catFR1	0	R1111M
87845.499	2.534	1493229	REC_WORD	7.347	n/a	HURRICANE	Weather	8	25	[0, 0, 0]	n/a	catFR1	0	R1111M
87848.033	1.838	1494496	REC_WORD	9.881	n/a	SHEEP	FarmAnimals	11	25	[0, 0, 0]	n/a	catFR1	0	R1111M
87849.871	2.92	1495415	REC_WORD	11.719	n/a	GOAT	n/a	-999	25	[0, 0, 0]	n/a	catFR1	0	R1111M
87852.791	15.371	1496875	REC_WORD	14.639	n/a	HORSE	FarmAnimals	12	25	[0, 0, 0]	n/a	catFR1	0	R1111M
87868.162	110.25	1504560	REC_END	n/a	n/a	n/a	n/a	-999	25	[0, 0, 0]	n/a	catFR1	0	R1111M
87978.412	0.0	1559681	SESS_END	n/a	n/a	n/a	n/a	-999	25	[0, 0, 0]	n/a	catFR1	0	R1111M
