onset	duration	sample	trial_type	response_time	stim_file	item_name	category	serialpos	list	test	answer	experiment	session	subject
0.0	164.781	10216	INSTRUCT_START	n/a	n/a	n/a	n/a	-999	-999	[0, 0, 0]	n/a	catFR1	1	R1484T
164.781	97.55	174990	INSTRUCT_END	n/a	n/a	n/a	n/a	-999	-999	[0, 0, 0]	n/a	catFR1	1	R1484T
262.331	10.35	272534	COUNTDOWN_START	n/a	n/a	n/a	n/a	-999	-999	[0, 0, 0]	n/a	catFR1	1	R1484T
272.681	0.0	282883	COUNTDOWN_END	n/a	n/a	n/a	n/a	-999	-999	[0, 0, 0]	n/a	catFR1	1	R1484T
272.681	2.234	282883	ENCODING_START	n/a	n/a	n/a	n/a	-999	-1	[0, 0, 0]	n/a	catFR1	1	R1484T
274.915	1.616	285117	WORD	n/a	n/a	KNIFE	KitchenTools	1	-1	[0, 0, 0]	n/a	catFR1	1	R1484T
276.531	0.816	286734	WORD_OFF	n/a	n/a	KNIFE	KitchenTools	1	-1	[0, 0, 0]	n/a	catFR1	1	R1484T
277.347	1.601	287547	WORD	n/a	n/a	COLANDER	KitchenTools	2	-1	[0, 0, 0]	n/a	catFR1	1	R1484T
278.948	0.983	289148	WORD_OFF	n/a	n/a	COLANDER	KitchenTools	2	-1	[0, 0, 0]	n/a	catFR1	1	R1484T
279.931	1.6	290132	WORD	n/a	n/a	LILAC	Flowers	3	-1	[0, 0, 0]	n/a	catFR1	1	R1484T
281.531	0.816	291733	WORD_OFF	n/a	n/a	LILAC	Flowers	3	-1	[0, 0, 0]	n/a	catFR1	1	R1484T
282.347	1.616	292546	WORD	n/a	n/a	DAFFODIL	Flowers	4	-1	[0, 0, 0]	n/a	catFR1	1	R1484T
283.963	0.8	294163	WORD_OFF	n/a	n/a	DAFFODIL	Flowers	4	-1	[0, 0, 0]	n/a	catFR1	1	R1484T
284.763	1.617	294967	WORD	n/a	n/a	OCEAN	Landscapes	5	-1	[0, 0, 0]	n/a	catFR1	1	R1484T
286.38	0.917	296576	WORD_OFF	n/a	n/a	OCEAN	Landscapes	5	-1	[0, 0, 0]	n/a	catFR1	1	R1484T
287.297	1.6	297498	WORD	n/a	n/a	FOREST	Landscapes	6	-1	[0, 0, 0]	n/a	catFR1	1	R1484T
288.897	0.884	299099	WORD_OFF	n/a	n/a	FOREST	Landscapes	6	-1	[0, 0, 0]	n/a	catFR1	1	R1484T
289.781	1.617	299982	WORD	n/a	n/a	CORKSCREW	KitchenTools	7	-1	[0, 0, 0]	n/a	catFR1	1	R1484T
291.398	0.833	301599	WORD_OFF	n/a	n/a	CORKSCREW	KitchenTools	7	-1	[0, 0, 0]	n/a	catFR1	1	R1484T
292.231	1.616	302434	WORD	n/a	n/a	SPATULA	KitchenTools	8	-1	[0, 0, 0]	n/a	catFR1	1	R1484T
293.847	1.001	304043	WORD_OFF	n/a	n/a	SPATULA	KitchenTools	8	-1	[0, 0, 0]	n/a	catFR1	1	R1484T
294.848	1.6	305051	WORD	n/a	n/a	ISLAND	Landscapes	9	-1	[0, 0, 0]	n/a	catFR1	1	R1484T
296.448	0.85	306645	WORD_OFF	n/a	n/a	ISLAND	Landscapes	9	-1	[0, 0, 0]	n/a	catFR1	1	R1484T
297.298	1.616	307496	WORD	n/a	n/a	MOUNTAIN	Landscapes	10	-1	[0, 0, 0]	n/a	catFR1	1	R1484T
298.914	0.833	309113	WORD_OFF	n/a	n/a	MOUNTAIN	Landscapes	10	-1	[0, 0, 0]	n/a	catFR1	1	R1484T
299.747	1.601	309949	WORD	n/a	n/a	DAISY	Flowers	11	-1	[0, 0, 0]	n/a	catFR1	1	R1484T
301.348	0.833	311550	WORD_OFF	n/a	n/a	DAISY	Flowers	11	-1	[0, 0, 0]	n/a	catFR1	1	R1484T
302.181	1.616	312378	WORD	n/a	n/a	ROSE	Flowers	12	-1	[0, 0, 0]	n/a	catFR1	1	R1484T
303.797	0.001	313995	WORD_OFF	n/a	n/a	ROSE	Flowers	12	-1	[0, 0, 0]	n/a	catFR1	1	R1484T
303.798	0.001	313996	START	n/a	n/a	n/a	n/a	-999	-1	[-999, -999, -999]	n/a	catFR1	1	R1484T
303.799	0.0	313997	PROB	0.0	n/a	n/a	n/a	-999	-1	[1, 5, 8]	14	catFR1	1	R1484T
303.798	0.0	313998	ENCODING_END	n/a	n/a	n/a	n/a	-999	-1	[0, 0, 0]	n/a	catFR1	1	R1484T
303.798	24.167	314002	DISTRACT_START	n/a	n/a	n/a	n/a	-999	-1	[0, 0, 0]	n/a	catFR1	1	R1484T
327.965	0.0	338162	DISTRACT_END	n/a	n/a	n/a	n/a	-999	-1	[0, 0, 0]	n/a	catFR1	1	R1484T
327.965	1.399	338162	STOP	n/a	n/a	n/a	n/a	-999	-1	[-999, -999, -999]	n/a	catFR1	1	R1484T
329.364	1.737	339560	REC_START	n/a	n/a	n/a	n/a	-999	-1	[0, 0, 0]	n/a	catFR1	1	R1484T
331.101	1.0	341298	REC_WORD	1.0	n/a	KNIFE	KitchenTools	1	-1	[0, 0, 0]	n/a	catFR1	1	R1484T
332.101	0.936	342298	REC_WORD	0.936	n/a	KNIFE	KitchenTools	1	-1	[0, 0, 0]	n/a	catFR1	1	R1484T
333.037	1.0	343234	REC_WORD	1.0	n/a	DAFFODIL	Flowers	4	-1	[0, 0, 0]	n/a	catFR1	1	R1484T
334.037	1.655	344234	REC_WORD	1.655	n/a	DAFFODIL	Flowers	4	-1	[0, 0, 0]	n/a	catFR1	1	R1484T
335.692	2.534	345889	REC_WORD	2.534	n/a	TULIP	n/a	-999	-1	[0, 0, 0]	n/a	catFR1	1	R1484T
338.226	1.0	348422	REC_WORD	1.0	n/a	CORKSCREW	KitchenTools	7	-1	[0, 0, 0]	n/a	catFR1	1	R1484T
339.226	2.007	349422	REC_WORD	2.007	n/a	CORKSCREW	KitchenTools	7	-1	[0, 0, 0]	n/a	catFR1	1	R1484T
341.233	1.0	351429	REC_WORD	1.0	n/a	FOREST	Landscapes	6	-1	[0, 0, 0]	n/a	catFR1	1	R1484T
342.233	3.431	352429	REC_WORD	3.431	n/a	FOREST	Landscapes	6	-1	[0, 0, 0]	n/a	catFR1	1	R1484T
345.664	14.895	355860	REC_WORD_VV	14.895	n/a	<>	n/a	-999	-1	[0, 0, 0]	n/a	catFR1	1	R1484T
360.559	14.589	370757	REC_END	n/a	n/a	n/a	n/a	-999	-1	[0, 0, 0]	n/a	catFR1	1	R1484T
375.148	10.349	385348	COUNTDOWN_START	n/a	n/a	n/a	n/a	-999	1	[0, 0, 0]	n/a	catFR1	1	R1484T
385.497	0.0	395690	COUNTDOWN_END	n/a	n/a	n/a	n/a	-999	1	[0, 0, 0]	n/a	catFR1	1	R1484T
385.497	2.018	395690	ENCODING_START	n/a	n/a	n/a	n/a	-999	1	[0, 0, 0]	n/a	catFR1	1	R1484T
387.515	1.616	397705	WORD	n/a	wordpools/wordpool_categorized_EN.txt	THUNDERSTORM	Weather	1	1	[0, 0, 0]	n/a	catFR1	1	R1484T
389.131	0.966	399322	WORD_OFF	n/a	n/a	THUNDERSTORM	Weather	1	1	[0, 0, 0]	n/a	catFR1	1	R1484T
390.097	1.6	400291	WORD	n/a	wordpools/wordpool_categorized_EN.txt	RAIN	Weather	2	1	[0, 0, 0]	n/a	catFR1	1	R1484T
391.697	1.0	401892	WORD_OFF	n/a	n/a	RAIN	Weather	2	1	[0, 0, 0]	n/a	catFR1	1	R1484T
392.697	1.6	402892	WORD	n/a	wordpools/wordpool_categorized_EN.txt	FORK	KitchenTools	3	1	[0, 0, 0]	n/a	catFR1	1	R1484T
394.297	0.768	404493	WORD_OFF	n/a	n/a	FORK	KitchenTools	3	1	[0, 0, 0]	n/a	catFR1	1	R1484T
395.065	1.616	405259	WORD	n/a	wordpools/wordpool_categorized_EN.txt	GRATER	KitchenTools	4	1	[0, 0, 0]	n/a	catFR1	1	R1484T
396.681	0.917	406876	WORD_OFF	n/a	n/a	GRATER	KitchenTools	4	1	[0, 0, 0]	n/a	catFR1	1	R1484T
397.598	1.616	407789	WORD	n/a	wordpools/wordpool_categorized_EN.txt	FLY	Insects	5	1	[0, 0, 0]	n/a	catFR1	1	R1484T
399.214	0.95	409406	WORD_OFF	n/a	n/a	FLY	Insects	5	1	[0, 0, 0]	n/a	catFR1	1	R1484T
400.164	1.6	410359	WORD	n/a	wordpools/wordpool_categorized_EN.txt	BEETLE	Insects	6	1	[0, 0, 0]	n/a	catFR1	1	R1484T
401.764	0.933	411961	WORD_OFF	n/a	n/a	BEETLE	Insects	6	1	[0, 0, 0]	n/a	catFR1	1	R1484T
402.697	1.601	412890	WORD	n/a	wordpools/wordpool_categorized_EN.txt	WHISK	KitchenTools	7	1	[0, 0, 0]	n/a	catFR1	1	R1484T
404.298	0.816	414491	WORD_OFF	n/a	n/a	WHISK	KitchenTools	7	1	[0, 0, 0]	n/a	catFR1	1	R1484T
405.114	1.617	415311	WORD	n/a	wordpools/wordpool_categorized_EN.txt	SPOON	KitchenTools	8	1	[0, 0, 0]	n/a	catFR1	1	R1484T
406.731	0.917	416928	WORD_OFF	n/a	n/a	SPOON	KitchenTools	8	1	[0, 0, 0]	n/a	catFR1	1	R1484T
407.648	1.617	417842	WORD	n/a	wordpools/wordpool_categorized_EN.txt	SPIDER	Insects	9	1	[0, 0, 0]	n/a	catFR1	1	R1484T
409.265	0.883	419459	WORD_OFF	n/a	n/a	SPIDER	Insects	9	1	[0, 0, 0]	n/a	catFR1	1	R1484T
410.148	1.6	420342	WORD	n/a	wordpools/wordpool_categorized_EN.txt	LADYBUG	Insects	10	1	[0, 0, 0]	n/a	catFR1	1	R1484T
411.748	0.8	421943	WORD_OFF	n/a	n/a	LADYBUG	Insects	10	1	[0, 0, 0]	n/a	catFR1	1	R1484T
412.548	1.6	422740	WORD	n/a	wordpools/wordpool_categorized_EN.txt	SNOW	Weather	11	1	[0, 0, 0]	n/a	catFR1	1	R1484T
414.148	0.766	424341	WORD_OFF	n/a	n/a	SNOW	Weather	11	1	[0, 0, 0]	n/a	catFR1	1	R1484T
414.914	1.616	425106	WORD	n/a	wordpools/wordpool_categorized_EN.txt	HURRICANE	Weather	12	1	[0, 0, 0]	n/a	catFR1	1	R1484T
416.53	0.002	426723	WORD_OFF	n/a	n/a	HURRICANE	Weather	12	1	[0, 0, 0]	n/a	catFR1	1	R1484T
416.532	0.0	426723	ENCODING_END	n/a	n/a	n/a	n/a	-999	1	[0, 0, 0]	n/a	catFR1	1	R1484T
416.532	0.0	426723	DISTRACT_START	n/a	n/a	n/a	n/a	-999	1	[0, 0, 0]	n/a	catFR1	1	R1484T
416.531	0.001	426723	PROB	0.001	n/a	n/a	n/a	-999	1	[6, 1, 3]	10	catFR1	1	R1484T
416.532	8.516	426724	START	n/a	n/a	n/a	n/a	-999	1	[-999, -999, -999]	n/a	catFR1	1	R1484T
425.048	10.317	435240	PROB	10.317	n/a	n/a	n/a	-999	1	[6, 2, 8]	16	catFR1	1	R1484T
435.365	7.55	445556	PROB	7.55	n/a	n/a	n/a	-999	1	[2, 8, 5]	15	catFR1	1	R1484T
442.915	0.0	453106	STOP	n/a	n/a	n/a	n/a	-999	1	[-999, -999, -999]	n/a	catFR1	1	R1484T
442.915	1.115	453109	DISTRACT_END	n/a	n/a	n/a	n/a	-999	1	[0, 0, 0]	n/a	catFR1	1	R1484T
444.03	3.794	454218	REC_START	n/a	n/a	n/a	n/a	-999	1	[0, 0, 0]	n/a	catFR1	1	R1484T
447.824	1.0	458015	REC_WORD	1.0	n/a	THUNDERSTORM	Weather	1	1	[0, 0, 0]	n/a	catFR1	1	R1484T
448.824	2.284	459015	REC_WORD	2.284	n/a	THUNDERSTORM	Weather	1	1	[0, 0, 0]	n/a	catFR1	1	R1484T
451.108	1.253	461299	REC_WORD_VV	1.253	n/a	<>	n/a	-999	1	[0, 0, 0]	n/a	catFR1	1	R1484T
452.361	1.0	462551	REC_WORD	1.0	n/a	HURRICANE	Weather	12	1	[0, 0, 0]	n/a	catFR1	1	R1484T
453.361	3.381	463551	REC_WORD	3.381	n/a	HURRICANE	Weather	12	1	[0, 0, 0]	n/a	catFR1	1	R1484T
456.742	2.119	466932	REC_WORD_VV	2.119	n/a	<>	n/a	-999	1	[0, 0, 0]	n/a	catFR1	1	R1484T
458.861	1.0	469051	REC_WORD	1.0	n/a	SPOON	KitchenTools	8	1	[0, 0, 0]	n/a	catFR1	1	R1484T
459.861	0.979	470051	REC_WORD	0.979	n/a	SPOON	KitchenTools	8	1	[0, 0, 0]	n/a	catFR1	1	R1484T
460.84	3.42	471030	REC_WORD	3.42	n/a	FORK	KitchenTools	3	1	[0, 0, 0]	n/a	catFR1	1	R1484T
464.26	10.965	474450	REC_WORD_VV	10.965	n/a	<>	n/a	-999	1	[0, 0, 0]	n/a	catFR1	1	R1484T
475.225	6.372	485415	REC_END	n/a	n/a	n/a	n/a	-999	1	[0, 0, 0]	n/a	catFR1	1	R1484T
481.597	10.351	491789	COUNTDOWN_START	n/a	n/a	n/a	n/a	-999	1	[0, 0, 0]	n/a	catFR1	1	R1484T
491.948	0.0	502139	COUNTDOWN_END	n/a	n/a	n/a	n/a	-999	1	[0, 0, 0]	n/a	catFR1	1	R1484T
491.948	1.949	502139	ENCODING_START	n/a	n/a	n/a	n/a	-999	2	[0, 0, 0]	n/a	catFR1	1	R1484T
493.897	1.601	504084	WORD	n/a	wordpools/wordpool_categorized_EN.txt	SLINKY	Toys	1	2	[0, 0, 0]	n/a	catFR1	1	R1484T
495.498	0.816	505685	WORD_OFF	n/a	n/a	SLINKY	Toys	1	2	[0, 0, 0]	n/a	catFR1	1	R1484T
496.314	1.6	506505	WORD	n/a	wordpools/wordpool_categorized_EN.txt	DOLL	Toys	2	2	[0, 0, 0]	n/a	catFR1	1	R1484T
497.914	0.917	508106	WORD_OFF	n/a	n/a	DOLL	Toys	2	2	[0, 0, 0]	n/a	catFR1	1	R1484T
498.831	1.617	509020	WORD	n/a	wordpools/wordpool_categorized_EN.txt	ROOM	Building	3	2	[0, 0, 0]	n/a	catFR1	1	R1484T
500.448	0.949	510637	WORD_OFF	n/a	n/a	ROOM	Building	3	2	[0, 0, 0]	n/a	catFR1	1	R1484T
501.397	1.601	511582	WORD	n/a	wordpools/wordpool_categorized_EN.txt	HALLWAY	Building	4	2	[0, 0, 0]	n/a	catFR1	1	R1484T
502.998	0.983	513184	WORD_OFF	n/a	n/a	HALLWAY	Building	4	2	[0, 0, 0]	n/a	catFR1	1	R1484T
503.981	1.616	514168	WORD	n/a	wordpools/wordpool_categorized_EN.txt	CUCUMBER	Vegetables	5	2	[0, 0, 0]	n/a	catFR1	1	R1484T
505.597	0.784	515785	WORD_OFF	n/a	n/a	CUCUMBER	Vegetables	5	2	[0, 0, 0]	n/a	catFR1	1	R1484T
506.381	1.616	516567	WORD	n/a	wordpools/wordpool_categorized_EN.txt	CELERY	Vegetables	6	2	[0, 0, 0]	n/a	catFR1	1	R1484T
507.997	0.984	518183	WORD_OFF	n/a	n/a	CELERY	Vegetables	6	2	[0, 0, 0]	n/a	catFR1	1	R1484T
508.981	1.6	519167	WORD	n/a	wordpools/wordpool_categorized_EN.txt	BASEBALL	Toys	7	2	[0, 0, 0]	n/a	catFR1	1	R1484T
510.581	0.833	520768	WORD_OFF	n/a	n/a	BASEBALL	Toys	7	2	[0, 0, 0]	n/a	catFR1	1	R1484T
511.414	1.601	521604	WORD	n/a	wordpools/wordpool_categorized_EN.txt	FOOTBALL	Toys	8	2	[0, 0, 0]	n/a	catFR1	1	R1484T
513.015	0.85	523205	WORD_OFF	n/a	n/a	FOOTBALL	Toys	8	2	[0, 0, 0]	n/a	catFR1	1	R1484T
513.865	1.6	524056	WORD	n/a	wordpools/wordpool_categorized_EN.txt	FLOOR	Building	9	2	[0, 0, 0]	n/a	catFR1	1	R1484T
515.465	0.783	525650	WORD_OFF	n/a	n/a	FLOOR	Building	9	2	[0, 0, 0]	n/a	catFR1	1	R1484T
516.248	1.6	526439	WORD	n/a	wordpools/wordpool_categorized_EN.txt	WINDOW	Building	10	2	[0, 0, 0]	n/a	catFR1	1	R1484T
517.848	0.967	528032	WORD_OFF	n/a	n/a	WINDOW	Building	10	2	[0, 0, 0]	n/a	catFR1	1	R1484T
518.815	1.616	529001	WORD	n/a	wordpools/wordpool_categorized_EN.txt	CORN	Vegetables	11	2	[0, 0, 0]	n/a	catFR1	1	R1484T
520.431	0.883	530618	WORD_OFF	n/a	n/a	CORN	Vegetables	11	2	[0, 0, 0]	n/a	catFR1	1	R1484T
521.314	1.601	531500	WORD	n/a	wordpools/wordpool_categorized_EN.txt	SPINACH	Vegetables	12	2	[0, 0, 0]	n/a	catFR1	1	R1484T
522.915	0.001	533102	WORD_OFF	n/a	n/a	SPINACH	Vegetables	12	2	[0, 0, 0]	n/a	catFR1	1	R1484T
522.916	0.0	533102	ENCODING_END	n/a	n/a	n/a	n/a	-999	2	[0, 0, 0]	n/a	catFR1	1	R1484T
522.915	0.001	533102	PROB	0.001	n/a	n/a	n/a	-999	2	[4, 1, 1]	6	catFR1	1	R1484T
522.916	0.0	533103	START	n/a	n/a	n/a	n/a	-999	2	[-999, -999, -999]	n/a	catFR1	1	R1484T
522.916	4.681	533109	DISTRACT_START	n/a	n/a	n/a	n/a	-999	2	[0, 0, 0]	n/a	catFR1	1	R1484T
527.597	9.402	537784	PROB	9.402	n/a	n/a	n/a	-999	2	[6, 1, 7]	14	catFR1	1	R1484T
536.999	9.965	547185	PROB	9.965	n/a	n/a	n/a	-999	2	[5, 6, 2]	13	catFR1	1	R1484T
546.964	0.0	557150	STOP	n/a	n/a	n/a	n/a	-999	2	[-999, -999, -999]	n/a	catFR1	1	R1484T
546.964	1.167	557152	DISTRACT_END	n/a	n/a	n/a	n/a	-999	2	[0, 0, 0]	n/a	catFR1	1	R1484T
548.131	12.88	558316	REC_START	n/a	n/a	n/a	n/a	-999	2	[0, 0, 0]	n/a	catFR1	1	R1484T
561.011	1.0	571196	REC_WORD_VV	1.0	n/a	<>	n/a	-999	2	[0, 0, 0]	n/a	catFR1	1	R1484T
562.011	1.0	572196	REC_WORD_VV	1.0	n/a	<>	n/a	-999	2	[0, 0, 0]	n/a	catFR1	1	R1484T
563.011	1.585	573196	REC_WORD_VV	1.585	n/a	<>	n/a	-999	2	[0, 0, 0]	n/a	catFR1	1	R1484T
564.596	14.777	574781	REC_WORD_VV	14.777	n/a	<>	n/a	-999	2	[0, 0, 0]	n/a	catFR1	1	R1484T
579.373	5.075	589560	REC_END	n/a	n/a	n/a	n/a	-999	2	[0, 0, 0]	n/a	catFR1	1	R1484T
584.448	10.35	594637	COUNTDOWN_START	n/a	n/a	n/a	n/a	-999	2	[0, 0, 0]	n/a	catFR1	1	R1484T
594.798	0.0	604979	COUNTDOWN_END	n/a	n/a	n/a	n/a	-999	2	[0, 0, 0]	n/a	catFR1	1	R1484T
594.798	2.166	604986	ENCODING_START	n/a	n/a	n/a	n/a	-999	3	[0, 0, 0]	n/a	catFR1	1	R1484T
596.964	1.6	607150	WORD	n/a	wordpools/wordpool_categorized_EN.txt	CALF	FarmAnimals	1	3	[0, 0, 0]	n/a	catFR1	1	R1484T
598.564	0.867	608744	WORD_OFF	n/a	n/a	CALF	FarmAnimals	1	3	[0, 0, 0]	n/a	catFR1	1	R1484T
599.431	1.6	609614	WORD	n/a	wordpools/wordpool_categorized_EN.txt	LAMB	FarmAnimals	2	3	[0, 0, 0]	n/a	catFR1	1	R1484T
601.031	0.832	611212	WORD_OFF	n/a	n/a	LAMB	FarmAnimals	2	3	[0, 0, 0]	n/a	catFR1	1	R1484T
601.863	1.601	612048	WORD	n/a	wordpools/wordpool_categorized_EN.txt	BATHROOM	Building	3	3	[0, 0, 0]	n/a	catFR1	1	R1484T
603.464	0.801	613649	WORD_OFF	n/a	n/a	BATHROOM	Building	3	3	[0, 0, 0]	n/a	catFR1	1	R1484T
604.265	1.616	614446	WORD	n/a	wordpools/wordpool_categorized_EN.txt	DOOR	Building	4	3	[0, 0, 0]	n/a	catFR1	1	R1484T
605.881	0.865	616062	WORD_OFF	n/a	n/a	DOOR	Building	4	3	[0, 0, 0]	n/a	catFR1	1	R1484T
606.746	1.602	616929	WORD	n/a	wordpools/wordpool_categorized_EN.txt	BIKE	Vehicles	5	3	[0, 0, 0]	n/a	catFR1	1	R1484T
608.348	0.783	618531	WORD_OFF	n/a	n/a	BIKE	Vehicles	5	3	[0, 0, 0]	n/a	catFR1	1	R1484T
609.131	1.616	619312	WORD	n/a	wordpools/wordpool_categorized_EN.txt	CAR	Vehicles	6	3	[0, 0, 0]	n/a	catFR1	1	R1484T
610.747	0.767	620929	WORD_OFF	n/a	n/a	CAR	Vehicles	6	3	[0, 0, 0]	n/a	catFR1	1	R1484T
611.514	1.601	621694	WORD	n/a	wordpools/wordpool_categorized_EN.txt	PIG	FarmAnimals	7	3	[0, 0, 0]	n/a	catFR1	1	R1484T
613.115	0.831	623295	WORD_OFF	n/a	n/a	PIG	FarmAnimals	7	3	[0, 0, 0]	n/a	catFR1	1	R1484T
613.946	1.602	624131	WORD	n/a	wordpools/wordpool_categorized_EN.txt	TURKEY	FarmAnimals	8	3	[0, 0, 0]	n/a	catFR1	1	R1484T
615.548	0.883	625732	WORD_OFF	n/a	n/a	TURKEY	FarmAnimals	8	3	[0, 0, 0]	n/a	catFR1	1	R1484T
616.431	1.617	626615	WORD	n/a	wordpools/wordpool_categorized_EN.txt	STAIRS	Building	9	3	[0, 0, 0]	n/a	catFR1	1	R1484T
618.048	0.95	628232	WORD_OFF	n/a	n/a	STAIRS	Building	9	3	[0, 0, 0]	n/a	catFR1	1	R1484T
618.998	1.617	629177	WORD	n/a	wordpools/wordpool_categorized_EN.txt	ROOF	Building	10	3	[0, 0, 0]	n/a	catFR1	1	R1484T
620.615	0.883	630794	WORD_OFF	n/a	n/a	ROOF	Building	10	3	[0, 0, 0]	n/a	catFR1	1	R1484T
621.498	1.6	631677	WORD	n/a	wordpools/wordpool_categorized_EN.txt	VAN	Vehicles	11	3	[0, 0, 0]	n/a	catFR1	1	R1484T
623.098	0.783	633278	WORD_OFF	n/a	n/a	VAN	Vehicles	11	3	[0, 0, 0]	n/a	catFR1	1	R1484T
623.881	1.616	634067	WORD	n/a	wordpools/wordpool_categorized_EN.txt	JEEP	Vehicles	12	3	[0, 0, 0]	n/a	catFR1	1	R1484T
625.497	0.001	635676	WORD_OFF	n/a	n/a	JEEP	Vehicles	12	3	[0, 0, 0]	n/a	catFR1	1	R1484T
625.498	0.001	635680	PROB	0.001	n/a	n/a	n/a	-999	3	[5, 6, 1]	12	catFR1	1	R1484T
625.499	0.0	635681	START	n/a	n/a	n/a	n/a	-999	3	[-999, -999, -999]	n/a	catFR1	1	R1484T
625.499	0.0	635684	ENCODING_END	n/a	n/a	n/a	n/a	-999	3	[0, 0, 0]	n/a	catFR1	1	R1484T
625.499	7.099	635684	DISTRACT_START	n/a	n/a	n/a	n/a	-999	3	[0, 0, 0]	n/a	catFR1	1	R1484T
632.598	6.718	642779	PROB	6.718	n/a	n/a	n/a	-999	3	[4, 6, 8]	18	catFR1	1	R1484T
639.316	3.516	649497	PROB	3.516	n/a	n/a	n/a	-999	3	[1, 1, 1]	3	catFR1	1	R1484T
642.832	6.401	653013	PROB	6.401	n/a	n/a	n/a	-999	3	[4, 1, 1]	6	catFR1	1	R1484T
649.233	0.0	659413	STOP	n/a	n/a	n/a	n/a	-999	3	[-999, -999, -999]	n/a	catFR1	1	R1484T
649.233	1.332	659414	DISTRACT_END	n/a	n/a	n/a	n/a	-999	3	[0, 0, 0]	n/a	catFR1	1	R1484T
650.565	1.467	660741	REC_START	n/a	n/a	n/a	n/a	-999	3	[0, 0, 0]	n/a	catFR1	1	R1484T
652.032	1.0	662212	REC_WORD	1.0	n/a	FAN	n/a	-999	3	[0, 0, 0]	n/a	catFR1	1	R1484T
653.032	1.563	663212	REC_WORD	1.563	n/a	FAN	n/a	-999	3	[0, 0, 0]	n/a	catFR1	1	R1484T
654.595	2.437	664775	REC_WORD	2.437	n/a	ROOF	Building	10	3	[0, 0, 0]	n/a	catFR1	1	R1484T
657.032	1.0	667212	REC_WORD	1.0	n/a	BATHROOM	Building	3	3	[0, 0, 0]	n/a	catFR1	1	R1484T
658.032	5.638	668212	REC_WORD	5.638	n/a	BATHROOM	Building	3	3	[0, 0, 0]	n/a	catFR1	1	R1484T
663.67	3.25	673850	REC_WORD	3.25	n/a	PIG	FarmAnimals	7	3	[0, 0, 0]	n/a	catFR1	1	R1484T
666.92	4.409	677099	REC_WORD_VV	4.409	n/a	<>	n/a	-999	3	[0, 0, 0]	n/a	catFR1	1	R1484T
671.329	5.095	681508	REC_WORD	5.095	n/a	TURKEY	FarmAnimals	8	3	[0, 0, 0]	n/a	catFR1	1	R1484T
676.424	5.405	686603	REC_WORD	5.405	n/a	CALF	FarmAnimals	1	3	[0, 0, 0]	n/a	catFR1	1	R1484T
681.829	3.035	692009	REC_END	n/a	n/a	n/a	n/a	-999	3	[0, 0, 0]	n/a	catFR1	1	R1484T
684.864	10.35	695047	COUNTDOWN_START	n/a	n/a	n/a	n/a	-999	3	[0, 0, 0]	n/a	catFR1	1	R1484T
695.214	0.0	705389	COUNTDOWN_END	n/a	n/a	n/a	n/a	-999	3	[0, 0, 0]	n/a	catFR1	1	R1484T
695.214	1.983	705397	ENCODING_START	n/a	n/a	n/a	n/a	-999	4	[0, 0, 0]	n/a	catFR1	1	R1484T
697.197	1.6	707373	WORD	n/a	wordpools/wordpool_categorized_EN.txt	DOLPHIN	OceanAnimals	1	4	[0, 0, 0]	n/a	catFR1	1	R1484T
698.797	0.866	708975	WORD_OFF	n/a	n/a	DOLPHIN	OceanAnimals	1	4	[0, 0, 0]	n/a	catFR1	1	R1484T
699.663	1.601	709842	WORD	n/a	wordpools/wordpool_categorized_EN.txt	PLANKTON	OceanAnimals	2	4	[0, 0, 0]	n/a	catFR1	1	R1484T
701.264	0.834	711443	WORD_OFF	n/a	n/a	PLANKTON	OceanAnimals	2	4	[0, 0, 0]	n/a	catFR1	1	R1484T
702.098	1.616	712279	WORD	n/a	wordpools/wordpool_categorized_EN.txt	TELEVISION	Electronics	3	4	[0, 0, 0]	n/a	catFR1	1	R1484T
703.714	0.984	713895	WORD_OFF	n/a	n/a	TELEVISION	Electronics	3	4	[0, 0, 0]	n/a	catFR1	1	R1484T
704.698	1.617	714872	WORD	n/a	wordpools/wordpool_categorized_EN.txt	PHONE	Electronics	4	4	[0, 0, 0]	n/a	catFR1	1	R1484T
706.315	0.816	716489	WORD_OFF	n/a	n/a	PHONE	Electronics	4	4	[0, 0, 0]	n/a	catFR1	1	R1484T
707.131	1.6	717309	WORD	n/a	wordpools/wordpool_categorized_EN.txt	STOVE	Appliances	5	4	[0, 0, 0]	n/a	catFR1	1	R1484T
708.731	0.934	718910	WORD_OFF	n/a	n/a	STOVE	Appliances	5	4	[0, 0, 0]	n/a	catFR1	1	R1484T
709.665	1.6	719840	WORD	n/a	wordpools/wordpool_categorized_EN.txt	OVEN	Appliances	6	4	[0, 0, 0]	n/a	catFR1	1	R1484T
711.265	0.783	721441	WORD_OFF	n/a	n/a	OVEN	Appliances	6	4	[0, 0, 0]	n/a	catFR1	1	R1484T
712.048	1.617	722222	WORD	n/a	wordpools/wordpool_categorized_EN.txt	TURTLE	OceanAnimals	7	4	[0, 0, 0]	n/a	catFR1	1	R1484T
713.665	0.883	723839	WORD_OFF	n/a	n/a	TURTLE	OceanAnimals	7	4	[0, 0, 0]	n/a	catFR1	1	R1484T
714.548	1.617	724729	WORD	n/a	wordpools/wordpool_categorized_EN.txt	OCTOPUS	OceanAnimals	8	4	[0, 0, 0]	n/a	catFR1	1	R1484T
716.165	0.766	726338	WORD_OFF	n/a	n/a	OCTOPUS	OceanAnimals	8	4	[0, 0, 0]	n/a	catFR1	1	R1484T
716.931	1.6	727112	WORD	n/a	wordpools/wordpool_categorized_EN.txt	WASHER	Appliances	9	4	[0, 0, 0]	n/a	catFR1	1	R1484T
718.531	0.833	728705	WORD_OFF	n/a	n/a	WASHER	Appliances	9	4	[0, 0, 0]	n/a	catFR1	1	R1484T
719.364	1.617	729541	WORD	n/a	wordpools/wordpool_categorized_EN.txt	DISHWASHER	Appliances	10	4	[0, 0, 0]	n/a	catFR1	1	R1484T
720.981	0.917	731158	WORD_OFF	n/a	n/a	DISHWASHER	Appliances	10	4	[0, 0, 0]	n/a	catFR1	1	R1484T
721.898	1.616	732072	WORD	n/a	wordpools/wordpool_categorized_EN.txt	CALCULATOR	Electronics	11	4	[0, 0, 0]	n/a	catFR1	1	R1484T
723.514	0.884	733689	WORD_OFF	n/a	n/a	CALCULATOR	Electronics	11	4	[0, 0, 0]	n/a	catFR1	1	R1484T
724.398	1.601	734571	WORD	n/a	wordpools/wordpool_categorized_EN.txt	HEADPHONES	Electronics	12	4	[0, 0, 0]	n/a	catFR1	1	R1484T
725.999	0.0	736172	WORD_OFF	n/a	n/a	HEADPHONES	Electronics	12	4	[0, 0, 0]	n/a	catFR1	1	R1484T
725.999	0.002	736175	PROB	0.002	n/a	n/a	n/a	-999	4	[2, 3, 4]	9	catFR1	1	R1484T
726.001	0.0	736177	START	n/a	n/a	n/a	n/a	-999	4	[-999, -999, -999]	n/a	catFR1	1	R1484T
726.001	0.0	736180	ENCODING_END	n/a	n/a	n/a	n/a	-999	4	[0, 0, 0]	n/a	catFR1	1	R1484T
726.001	10.114	736180	DISTRACT_START	n/a	n/a	n/a	n/a	-999	4	[0, 0, 0]	n/a	catFR1	1	R1484T
736.115	13.299	746291	PROB	13.299	n/a	n/a	n/a	-999	4	[7, 4, 4]	15	catFR1	1	R1484T
749.414	0.0	759589	STOP	n/a	n/a	n/a	n/a	-999	4	[-999, -999, -999]	n/a	catFR1	1	R1484T
749.414	1.234	759590	DISTRACT_END	n/a	n/a	n/a	n/a	-999	4	[0, 0, 0]	n/a	catFR1	1	R1484T
750.648	3.463	760824	REC_START	n/a	n/a	n/a	n/a	-999	4	[0, 0, 0]	n/a	catFR1	1	R1484T
754.111	1.03	764286	REC_WORD_VV	1.03	n/a	<>	n/a	-999	4	[0, 0, 0]	n/a	catFR1	1	R1484T
755.141	2.031	765316	REC_WORD	2.031	n/a	OVEN	Appliances	6	4	[0, 0, 0]	n/a	catFR1	1	R1484T
757.172	1.0	767347	REC_WORD	1.0	n/a	STOVE	Appliances	5	4	[0, 0, 0]	n/a	catFR1	1	R1484T
758.172	1.535	768347	REC_WORD	1.535	n/a	STOVE	Appliances	5	4	[0, 0, 0]	n/a	catFR1	1	R1484T
759.707	1.0	769882	REC_WORD	1.0	n/a	CALCULATOR	Electronics	11	4	[0, 0, 0]	n/a	catFR1	1	R1484T
760.707	10.741	770882	REC_WORD	10.741	n/a	CALCULATOR	Electronics	11	4	[0, 0, 0]	n/a	catFR1	1	R1484T
771.448	5.093	781622	REC_WORD	5.093	n/a	DOLPHIN	OceanAnimals	1	4	[0, 0, 0]	n/a	catFR1	1	R1484T
776.541	1.976	786715	REC_WORD	1.976	n/a	TURKEY	FarmAnimals	-999	4	[0, 0, 0]	n/a	catFR1	1	R1484T
778.517	3.374	788691	REC_WORD_VV	3.374	n/a	<>	n/a	-999	4	[0, 0, 0]	n/a	catFR1	1	R1484T
781.891	4.957	792068	REC_END	n/a	n/a	n/a	n/a	-999	4	[0, 0, 0]	n/a	catFR1	1	R1484T
786.848	10.349	797020	COUNTDOWN_START	n/a	n/a	n/a	n/a	-999	4	[0, 0, 0]	n/a	catFR1	1	R1484T
797.197	0.0	807370	COUNTDOWN_END	n/a	n/a	n/a	n/a	-999	4	[0, 0, 0]	n/a	catFR1	1	R1484T
797.197	2.268	807370	ENCODING_START	n/a	n/a	n/a	n/a	-999	5	[0, 0, 0]	n/a	catFR1	1	R1484T
799.465	1.615	809635	WORD	n/a	wordpools/wordpool_categorized_EN.txt	JEANS	Clothing	1	5	[0, 0, 0]	n/a	catFR1	1	R1484T
801.08	0.867	811252	WORD_OFF	n/a	n/a	JEANS	Clothing	1	5	[0, 0, 0]	n/a	catFR1	1	R1484T
801.947	1.6	812119	WORD	n/a	wordpools/wordpool_categorized_EN.txt	COAT	Clothing	2	5	[0, 0, 0]	n/a	catFR1	1	R1484T
803.547	1.0	813720	WORD_OFF	n/a	n/a	COAT	Clothing	2	5	[0, 0, 0]	n/a	catFR1	1	R1484T
804.547	1.601	814720	WORD	n/a	wordpools/wordpool_categorized_EN.txt	TUBA	Instruments	3	5	[0, 0, 0]	n/a	catFR1	1	R1484T
806.148	0.983	816321	WORD_OFF	n/a	n/a	TUBA	Instruments	3	5	[0, 0, 0]	n/a	catFR1	1	R1484T
807.131	1.617	817306	WORD	n/a	wordpools/wordpool_categorized_EN.txt	PIANO	Instruments	4	5	[0, 0, 0]	n/a	catFR1	1	R1484T
808.748	0.867	818922	WORD_OFF	n/a	n/a	PIANO	Instruments	4	5	[0, 0, 0]	n/a	catFR1	1	R1484T
809.615	1.616	819789	WORD	n/a	wordpools/wordpool_categorized_EN.txt	AXE	Tools	5	5	[0, 0, 0]	n/a	catFR1	1	R1484T
811.231	0.767	821406	WORD_OFF	n/a	n/a	AXE	Tools	5	5	[0, 0, 0]	n/a	catFR1	1	R1484T
811.998	1.616	822172	WORD	n/a	wordpools/wordpool_categorized_EN.txt	RATCHET	Tools	6	5	[0, 0, 0]	n/a	catFR1	1	R1484T
813.614	0.95	823789	WORD_OFF	n/a	n/a	RATCHET	Tools	6	5	[0, 0, 0]	n/a	catFR1	1	R1484T
814.564	1.601	824734	WORD	n/a	wordpools/wordpool_categorized_EN.txt	CELLO	Instruments	7	5	[0, 0, 0]	n/a	catFR1	1	R1484T
816.165	0.966	826335	WORD_OFF	n/a	n/a	CELLO	Instruments	7	5	[0, 0, 0]	n/a	catFR1	1	R1484T
817.131	1.6	827304	WORD	n/a	wordpools/wordpool_categorized_EN.txt	DRUM	Instruments	8	5	[0, 0, 0]	n/a	catFR1	1	R1484T
818.731	0.917	828905	WORD_OFF	n/a	n/a	DRUM	Instruments	8	5	[0, 0, 0]	n/a	catFR1	1	R1484T
819.648	1.616	829819	WORD	n/a	wordpools/wordpool_categorized_EN.txt	JACKET	Clothing	9	5	[0, 0, 0]	n/a	catFR1	1	R1484T
821.264	0.917	831436	WORD_OFF	n/a	n/a	JACKET	Clothing	9	5	[0, 0, 0]	n/a	catFR1	1	R1484T
822.181	1.6	832350	WORD	n/a	wordpools/wordpool_categorized_EN.txt	DRESS	Clothing	10	5	[0, 0, 0]	n/a	catFR1	1	R1484T
823.781	0.967	833951	WORD_OFF	n/a	n/a	DRESS	Clothing	10	5	[0, 0, 0]	n/a	catFR1	1	R1484T
824.748	1.617	834919	WORD	n/a	wordpools/wordpool_categorized_EN.txt	HAMMER	Tools	11	5	[0, 0, 0]	n/a	catFR1	1	R1484T
826.365	0.883	836536	WORD_OFF	n/a	n/a	HAMMER	Tools	11	5	[0, 0, 0]	n/a	catFR1	1	R1484T
827.248	1.617	837419	WORD	n/a	wordpools/wordpool_categorized_EN.txt	CROWBAR	Tools	12	5	[0, 0, 0]	n/a	catFR1	1	R1484T
828.865	0.001	839036	WORD_OFF	n/a	n/a	CROWBAR	Tools	12	5	[0, 0, 0]	n/a	catFR1	1	R1484T
828.866	0.0	839036	ENCODING_END	n/a	n/a	n/a	n/a	-999	5	[0, 0, 0]	n/a	catFR1	1	R1484T
828.866	0.0	839036	DISTRACT_START	n/a	n/a	n/a	n/a	-999	5	[0, 0, 0]	n/a	catFR1	1	R1484T
828.865	0.001	839036	PROB	0.001	n/a	n/a	n/a	-999	5	[3, 1, 6]	10	catFR1	1	R1484T
828.866	6.666	839037	START	n/a	n/a	n/a	n/a	-999	5	[-999, -999, -999]	n/a	catFR1	1	R1484T
835.532	18.349	845703	PROB	18.349	n/a	n/a	n/a	-999	5	[8, 8, 6]	22	catFR1	1	R1484T
853.881	0.0	864051	STOP	n/a	n/a	n/a	n/a	-999	5	[-999, -999, -999]	n/a	catFR1	1	R1484T
853.881	1.267	864054	DISTRACT_END	n/a	n/a	n/a	n/a	-999	5	[0, 0, 0]	n/a	catFR1	1	R1484T
855.148	30.011	865320	REC_START	n/a	n/a	n/a	n/a	-999	5	[0, 0, 0]	n/a	catFR1	1	R1484T
885.159	1.231	895327	REC_WORD_VV	1.231	n/a	<>	n/a	-999	5	[0, 0, 0]	n/a	catFR1	1	R1484T
886.39	3.207	896556	REC_END	n/a	n/a	n/a	n/a	-999	5	[0, 0, 0]	n/a	catFR1	1	R1484T
889.597	10.351	899766	COUNTDOWN_START	n/a	n/a	n/a	n/a	-999	5	[0, 0, 0]	n/a	catFR1	1	R1484T
899.948	0.0	910116	COUNTDOWN_END	n/a	n/a	n/a	n/a	-999	5	[0, 0, 0]	n/a	catFR1	1	R1484T
899.948	1.783	910116	ENCODING_START	n/a	n/a	n/a	n/a	-999	6	[0, 0, 0]	n/a	catFR1	1	R1484T
901.731	1.616	911897	WORD	n/a	wordpools/wordpool_categorized_EN.txt	CHICKEN	FarmAnimals	1	6	[0, 0, 0]	n/a	catFR1	1	R1484T
903.347	0.95	913514	WORD_OFF	n/a	n/a	CHICKEN	FarmAnimals	1	6	[0, 0, 0]	n/a	catFR1	1	R1484T
904.297	1.6	914467	WORD	n/a	wordpools/wordpool_categorized_EN.txt	COW	FarmAnimals	2	6	[0, 0, 0]	n/a	catFR1	1	R1484T
905.897	0.784	916068	WORD_OFF	n/a	n/a	COW	FarmAnimals	2	6	[0, 0, 0]	n/a	catFR1	1	R1484T
906.681	1.617	916849	WORD	n/a	wordpools/wordpool_categorized_EN.txt	MOTORCYCLE	Vehicles	3	6	[0, 0, 0]	n/a	catFR1	1	R1484T
908.298	0.968	918466	WORD_OFF	n/a	n/a	MOTORCYCLE	Vehicles	3	6	[0, 0, 0]	n/a	catFR1	1	R1484T
909.266	1.614	919435	WORD	n/a	wordpools/wordpool_categorized_EN.txt	PLANE	Vehicles	4	6	[0, 0, 0]	n/a	catFR1	1	R1484T
910.88	0.984	921044	WORD_OFF	n/a	n/a	PLANE	Vehicles	4	6	[0, 0, 0]	n/a	catFR1	1	R1484T
911.864	1.601	922028	WORD	n/a	wordpools/wordpool_categorized_EN.txt	BALL	Toys	5	6	[0, 0, 0]	n/a	catFR1	1	R1484T
913.465	0.801	923629	WORD_OFF	n/a	n/a	BALL	Toys	5	6	[0, 0, 0]	n/a	catFR1	1	R1484T
914.266	1.615	924434	WORD	n/a	wordpools/wordpool_categorized_EN.txt	BARBIE	Toys	6	6	[0, 0, 0]	n/a	catFR1	1	R1484T
915.881	0.783	926051	WORD_OFF	n/a	n/a	BARBIE	Toys	6	6	[0, 0, 0]	n/a	catFR1	1	R1484T
916.664	1.6	926832	WORD	n/a	wordpools/wordpool_categorized_EN.txt	SHEEP	FarmAnimals	7	6	[0, 0, 0]	n/a	catFR1	1	R1484T
918.264	0.917	928433	WORD_OFF	n/a	n/a	SHEEP	FarmAnimals	7	6	[0, 0, 0]	n/a	catFR1	1	R1484T
919.181	1.617	929347	WORD	n/a	wordpools/wordpool_categorized_EN.txt	GOAT	FarmAnimals	8	6	[0, 0, 0]	n/a	catFR1	1	R1484T
920.798	0.983	930964	WORD_OFF	n/a	n/a	GOAT	FarmAnimals	8	6	[0, 0, 0]	n/a	catFR1	1	R1484T
921.781	1.6	931948	WORD	n/a	wordpools/wordpool_categorized_EN.txt	FRISBEE	Toys	9	6	[0, 0, 0]	n/a	catFR1	1	R1484T
923.381	1.0	933549	WORD_OFF	n/a	n/a	FRISBEE	Toys	9	6	[0, 0, 0]	n/a	catFR1	1	R1484T
924.381	1.6	934549	WORD	n/a	wordpools/wordpool_categorized_EN.txt	PUZZLE	Toys	10	6	[0, 0, 0]	n/a	catFR1	1	R1484T
925.981	0.984	936150	WORD_OFF	n/a	n/a	PUZZLE	Toys	10	6	[0, 0, 0]	n/a	catFR1	1	R1484T
926.965	1.616	937134	WORD	n/a	wordpools/wordpool_categorized_EN.txt	TRAIN	Vehicles	11	6	[0, 0, 0]	n/a	catFR1	1	R1484T
928.581	0.817	938751	WORD_OFF	n/a	n/a	TRAIN	Vehicles	11	6	[0, 0, 0]	n/a	catFR1	1	R1484T
929.398	1.616	939564	WORD	n/a	wordpools/wordpool_categorized_EN.txt	MOPED	Vehicles	12	6	[0, 0, 0]	n/a	catFR1	1	R1484T
931.014	0.0	941180	PROB	0.0	n/a	n/a	n/a	-999	6	[2, 5, 5]	12	catFR1	1	R1484T
931.014	0.001	941181	WORD_OFF	n/a	n/a	MOPED	Vehicles	12	6	[0, 0, 0]	n/a	catFR1	1	R1484T
931.015	0.0	941181	ENCODING_END	n/a	n/a	n/a	n/a	-999	6	[0, 0, 0]	n/a	catFR1	1	R1484T
931.015	0.0	941181	START	n/a	n/a	n/a	n/a	-999	6	[-999, -999, -999]	n/a	catFR1	1	R1484T
931.015	5.849	941188	DISTRACT_START	n/a	n/a	n/a	n/a	-999	6	[0, 0, 0]	n/a	catFR1	1	R1484T
936.864	19.916	947029	PROB	19.916	n/a	n/a	n/a	-999	6	[7, 4, 8]	19	catFR1	1	R1484T
956.78	0.0	966941	DISTRACT_END	n/a	n/a	n/a	n/a	-999	6	[0, 0, 0]	n/a	catFR1	1	R1484T
956.78	1.152	966944	STOP	n/a	n/a	n/a	n/a	-999	6	[-999, -999, -999]	n/a	catFR1	1	R1484T
957.932	1.789	968097	REC_START	n/a	n/a	n/a	n/a	-999	6	[0, 0, 0]	n/a	catFR1	1	R1484T
959.721	1.732	969885	REC_WORD	1.732	n/a	SHEEP	FarmAnimals	7	6	[0, 0, 0]	n/a	catFR1	1	R1484T
961.453	1.54	971617	REC_WORD	1.54	n/a	GOAT	FarmAnimals	8	6	[0, 0, 0]	n/a	catFR1	1	R1484T
962.993	1.0	973157	REC_WORD	1.0	n/a	FRISBEE	Toys	9	6	[0, 0, 0]	n/a	catFR1	1	R1484T
963.993	2.074	974157	REC_WORD	2.074	n/a	FRISBEE	Toys	9	6	[0, 0, 0]	n/a	catFR1	1	R1484T
966.067	5.189	976231	REC_WORD	5.189	n/a	PUZZLE	Toys	10	6	[0, 0, 0]	n/a	catFR1	1	R1484T
971.256	17.919	981420	REC_WORD	17.919	n/a	BARBIE	Toys	6	6	[0, 0, 0]	n/a	catFR1	1	R1484T
989.175	3.405	999341	REC_END	n/a	n/a	n/a	n/a	-999	6	[0, 0, 0]	n/a	catFR1	1	R1484T
992.58	10.35	1002747	COUNTDOWN_START	n/a	n/a	n/a	n/a	-999	6	[0, 0, 0]	n/a	catFR1	1	R1484T
1002.93	0.0	1013091	COUNTDOWN_END	n/a	n/a	n/a	n/a	-999	6	[0, 0, 0]	n/a	catFR1	1	R1484T
1002.93	1.933	1013097	ENCODING_START	n/a	n/a	n/a	n/a	-999	7	[0, 0, 0]	n/a	catFR1	1	R1484T
1004.863	1.617	1015026	WORD	n/a	wordpools/wordpool_categorized_EN.txt	PLIERS	Tools	1	7	[0, 0, 0]	n/a	catFR1	1	R1484T
1006.48	0.967	1016643	WORD_OFF	n/a	n/a	PLIERS	Tools	1	7	[0, 0, 0]	n/a	catFR1	1	R1484T
1007.447	1.6	1017611	WORD	n/a	wordpools/wordpool_categorized_EN.txt	LEVEL	Tools	2	7	[0, 0, 0]	n/a	catFR1	1	R1484T
1009.047	0.9	1019213	WORD_OFF	n/a	n/a	LEVEL	Tools	2	7	[0, 0, 0]	n/a	catFR1	1	R1484T
1009.947	1.6	1020111	WORD	n/a	wordpools/wordpool_categorized_EN.txt	WATER	Beverages	3	7	[0, 0, 0]	n/a	catFR1	1	R1484T
1011.547	0.867	1021712	WORD_OFF	n/a	n/a	WATER	Beverages	3	7	[0, 0, 0]	n/a	catFR1	1	R1484T
1012.414	1.617	1022579	WORD	n/a	wordpools/wordpool_categorized_EN.txt	COFFEE	Beverages	4	7	[0, 0, 0]	n/a	catFR1	1	R1484T
1014.031	0.8	1024196	WORD_OFF	n/a	n/a	COFFEE	Beverages	4	7	[0, 0, 0]	n/a	catFR1	1	R1484T
1014.831	1.6	1024993	WORD	n/a	wordpools/wordpool_categorized_EN.txt	FOG	Weather	5	7	[0, 0, 0]	n/a	catFR1	1	R1484T
1016.431	0.883	1026594	WORD_OFF	n/a	n/a	FOG	Weather	5	7	[0, 0, 0]	n/a	catFR1	1	R1484T
1017.314	1.601	1027477	WORD	n/a	wordpools/wordpool_categorized_EN.txt	HUMIDITY	Weather	6	7	[0, 0, 0]	n/a	catFR1	1	R1484T
1018.915	0.8	1029078	WORD_OFF	n/a	n/a	HUMIDITY	Weather	6	7	[0, 0, 0]	n/a	catFR1	1	R1484T
1019.715	1.615	1029875	WORD	n/a	wordpools/wordpool_categorized_EN.txt	DRILL	Tools	7	7	[0, 0, 0]	n/a	catFR1	1	R1484T
1021.33	0.818	1031492	WORD_OFF	n/a	n/a	DRILL	Tools	7	7	[0, 0, 0]	n/a	catFR1	1	R1484T
1022.148	1.616	1032312	WORD	n/a	wordpools/wordpool_categorized_EN.txt	SAW	Tools	8	7	[0, 0, 0]	n/a	catFR1	1	R1484T
1023.764	0.966	1033921	WORD_OFF	n/a	n/a	SAW	Tools	8	7	[0, 0, 0]	n/a	catFR1	1	R1484T
1024.73	1.601	1034889	WORD	n/a	wordpools/wordpool_categorized_EN.txt	JUICE	Beverages	9	7	[0, 0, 0]	n/a	catFR1	1	R1484T
1026.331	0.783	1036491	WORD_OFF	n/a	n/a	JUICE	Beverages	9	7	[0, 0, 0]	n/a	catFR1	1	R1484T
1027.114	1.617	1037279	WORD	n/a	wordpools/wordpool_categorized_EN.txt	BEER	Beverages	10	7	[0, 0, 0]	n/a	catFR1	1	R1484T
1028.731	0.85	1038889	WORD_OFF	n/a	n/a	BEER	Beverages	10	7	[0, 0, 0]	n/a	catFR1	1	R1484T
1029.581	1.6	1039740	WORD	n/a	wordpools/wordpool_categorized_EN.txt	THUNDER	Weather	11	7	[0, 0, 0]	n/a	catFR1	1	R1484T
1031.181	0.85	1041341	WORD_OFF	n/a	n/a	THUNDER	Weather	11	7	[0, 0, 0]	n/a	catFR1	1	R1484T
1032.031	1.617	1042193	WORD	n/a	wordpools/wordpool_categorized_EN.txt	WIND	Weather	12	7	[0, 0, 0]	n/a	catFR1	1	R1484T
1033.648	0.0	1043808	PROB	0.0	n/a	n/a	n/a	-999	7	[7, 3, 4]	14	catFR1	1	R1484T
1033.648	0.001	1043809	WORD_OFF	n/a	n/a	WIND	Weather	12	7	[0, 0, 0]	n/a	catFR1	1	R1484T
1033.649	0.0	1043809	ENCODING_END	n/a	n/a	n/a	n/a	-999	7	[0, 0, 0]	n/a	catFR1	1	R1484T
1033.649	0.0	1043809	DISTRACT_START	n/a	n/a	n/a	n/a	-999	7	[0, 0, 0]	n/a	catFR1	1	R1484T
1033.649	14.166	1043809	START	n/a	n/a	n/a	n/a	-999	7	[-999, -999, -999]	n/a	catFR1	1	R1484T
1047.815	5.8	1057975	PROB	5.8	n/a	n/a	n/a	-999	7	[3, 5, 5]	13	catFR1	1	R1484T
1053.615	4.999	1063774	PROB	4.999	n/a	n/a	n/a	-999	7	[8, 2, 2]	12	catFR1	1	R1484T
1058.614	0.0	1068773	STOP	n/a	n/a	n/a	n/a	-999	7	[-999, -999, -999]	n/a	catFR1	1	R1484T
1058.614	1.1	1068774	DISTRACT_END	n/a	n/a	n/a	n/a	-999	7	[0, 0, 0]	n/a	catFR1	1	R1484T
1059.714	1.751	1069875	REC_START	n/a	n/a	n/a	n/a	-999	7	[0, 0, 0]	n/a	catFR1	1	R1484T
1061.465	0.42	1071624	REC_WORD_VV	0.42	n/a	<>	n/a	-999	7	[0, 0, 0]	n/a	catFR1	1	R1484T
1061.885	1.0	1072044	REC_WORD	1.0	n/a	THUNDER	Weather	11	7	[0, 0, 0]	n/a	catFR1	1	R1484T
1062.885	2.655	1073044	REC_WORD	2.655	n/a	THUNDER	Weather	11	7	[0, 0, 0]	n/a	catFR1	1	R1484T
1065.54	1.0	1075699	REC_WORD_VV	1.0	n/a	<>	n/a	-999	7	[0, 0, 0]	n/a	catFR1	1	R1484T
1066.54	4.682	1076699	REC_WORD_VV	4.682	n/a	<>	n/a	-999	7	[0, 0, 0]	n/a	catFR1	1	R1484T
1071.222	3.611	1081380	REC_WORD	3.611	n/a	LIGHTNING	n/a	-999	7	[0, 0, 0]	n/a	catFR1	1	R1484T
1074.833	7.635	1084991	REC_WORD_VV	7.635	n/a	<>	n/a	-999	7	[0, 0, 0]	n/a	catFR1	1	R1484T
1082.468	8.47	1092626	REC_WORD	8.47	n/a	WIND	Weather	12	7	[0, 0, 0]	n/a	catFR1	1	R1484T
1090.938	3.593	1101096	REC_END	n/a	n/a	n/a	n/a	-999	7	[0, 0, 0]	n/a	catFR1	1	R1484T
1094.531	10.35	1104696	COUNTDOWN_START	n/a	n/a	n/a	n/a	-999	7	[0, 0, 0]	n/a	catFR1	1	R1484T
1104.881	0.0	1115038	COUNTDOWN_END	n/a	n/a	n/a	n/a	-999	7	[0, 0, 0]	n/a	catFR1	1	R1484T
1104.881	2.332	1115038	ENCODING_START	n/a	n/a	n/a	n/a	-999	8	[0, 0, 0]	n/a	catFR1	1	R1484T
1107.213	1.601	1117366	WORD	n/a	wordpools/wordpool_categorized_EN.txt	SATIN	Fabric	1	8	[0, 0, 0]	n/a	catFR1	1	R1484T
1108.814	0.766	1118967	WORD_OFF	n/a	n/a	SATIN	Fabric	1	8	[0, 0, 0]	n/a	catFR1	1	R1484T
1109.58	1.601	1119740	WORD	n/a	wordpools/wordpool_categorized_EN.txt	NYLON	Fabric	2	8	[0, 0, 0]	n/a	catFR1	1	R1484T
1111.181	0.783	1121334	WORD_OFF	n/a	n/a	NYLON	Fabric	2	8	[0, 0, 0]	n/a	catFR1	1	R1484T
1111.964	1.6	1122123	WORD	n/a	wordpools/wordpool_categorized_EN.txt	CARNATION	Flowers	3	8	[0, 0, 0]	n/a	catFR1	1	R1484T
1113.564	0.933	1123724	WORD_OFF	n/a	n/a	CARNATION	Flowers	3	8	[0, 0, 0]	n/a	catFR1	1	R1484T
1114.497	1.6	1124654	WORD	n/a	wordpools/wordpool_categorized_EN.txt	MARIGOLD	Flowers	4	8	[0, 0, 0]	n/a	catFR1	1	R1484T
1116.097	0.769	1126255	WORD_OFF	n/a	n/a	MARIGOLD	Flowers	4	8	[0, 0, 0]	n/a	catFR1	1	R1484T
1116.866	1.598	1127020	WORD	n/a	wordpools/wordpool_categorized_EN.txt	TRUCK	Vehicles	5	8	[0, 0, 0]	n/a	catFR1	1	R1484T
1118.464	1.001	1128622	WORD_OFF	n/a	n/a	TRUCK	Vehicles	5	8	[0, 0, 0]	n/a	catFR1	1	R1484T
1119.465	1.6	1129621	WORD	n/a	wordpools/wordpool_categorized_EN.txt	BOAT	Vehicles	6	8	[0, 0, 0]	n/a	catFR1	1	R1484T
1121.065	0.815	1131223	WORD_OFF	n/a	n/a	BOAT	Vehicles	6	8	[0, 0, 0]	n/a	catFR1	1	R1484T
1121.88	1.601	1132035	WORD	n/a	wordpools/wordpool_categorized_EN.txt	SILK	Fabric	7	8	[0, 0, 0]	n/a	catFR1	1	R1484T
1123.481	0.834	1133636	WORD_OFF	n/a	n/a	SILK	Fabric	7	8	[0, 0, 0]	n/a	catFR1	1	R1484T
1124.315	1.616	1134472	WORD	n/a	wordpools/wordpool_categorized_EN.txt	FLEECE	Fabric	8	8	[0, 0, 0]	n/a	catFR1	1	R1484T
1125.931	0.95	1136089	WORD_OFF	n/a	n/a	FLEECE	Fabric	8	8	[0, 0, 0]	n/a	catFR1	1	R1484T
1126.881	1.6	1137034	WORD	n/a	wordpools/wordpool_categorized_EN.txt	SCOOTER	Vehicles	9	8	[0, 0, 0]	n/a	catFR1	1	R1484T
1128.481	0.95	1138635	WORD_OFF	n/a	n/a	SCOOTER	Vehicles	9	8	[0, 0, 0]	n/a	catFR1	1	R1484T
1129.431	1.616	1139588	WORD	n/a	wordpools/wordpool_categorized_EN.txt	BUS	Vehicles	10	8	[0, 0, 0]	n/a	catFR1	1	R1484T
1131.047	0.934	1141205	WORD_OFF	n/a	n/a	BUS	Vehicles	10	8	[0, 0, 0]	n/a	catFR1	1	R1484T
1131.981	1.6	1142135	WORD	n/a	wordpools/wordpool_categorized_EN.txt	ORCHID	Flowers	11	8	[0, 0, 0]	n/a	catFR1	1	R1484T
1133.581	0.916	1143736	WORD_OFF	n/a	n/a	ORCHID	Flowers	11	8	[0, 0, 0]	n/a	catFR1	1	R1484T
1134.497	1.601	1144650	WORD	n/a	wordpools/wordpool_categorized_EN.txt	PETUNIA	Flowers	12	8	[0, 0, 0]	n/a	catFR1	1	R1484T
1136.098	0.001	1146251	WORD_OFF	n/a	n/a	PETUNIA	Flowers	12	8	[0, 0, 0]	n/a	catFR1	1	R1484T
1136.099	0.001	1146254	PROB	0.001	n/a	n/a	n/a	-999	8	[8, 7, 6]	21	catFR1	1	R1484T
1136.1	0.0	1146255	START	n/a	n/a	n/a	n/a	-999	8	[-999, -999, -999]	n/a	catFR1	1	R1484T
1136.1	0.0	1146259	ENCODING_END	n/a	n/a	n/a	n/a	-999	8	[0, 0, 0]	n/a	catFR1	1	R1484T
1136.1	39.881	1146259	DISTRACT_START	n/a	n/a	n/a	n/a	-999	8	[0, 0, 0]	n/a	catFR1	1	R1484T
1175.981	0.0	1186134	DISTRACT_END	n/a	n/a	n/a	n/a	-999	8	[0, 0, 0]	n/a	catFR1	1	R1484T
1175.981	1.334	1186134	STOP	n/a	n/a	n/a	n/a	-999	8	[-999, -999, -999]	n/a	catFR1	1	R1484T
1177.315	1.833	1187470	REC_START	n/a	n/a	n/a	n/a	-999	8	[0, 0, 0]	n/a	catFR1	1	R1484T
1179.148	1.0	1189301	REC_WORD	1.0	n/a	PETUNIA	Flowers	12	8	[0, 0, 0]	n/a	catFR1	1	R1484T
1180.148	1.449	1190301	REC_WORD	1.449	n/a	PETUNIA	Flowers	12	8	[0, 0, 0]	n/a	catFR1	1	R1484T
1181.597	1.461	1191750	REC_WORD	1.461	n/a	BOAT	Vehicles	6	8	[0, 0, 0]	n/a	catFR1	1	R1484T
1183.058	3.421	1193211	REC_WORD	3.421	n/a	TRUCK	Vehicles	5	8	[0, 0, 0]	n/a	catFR1	1	R1484T
1186.479	2.1	1196631	REC_WORD_VV	2.1	n/a	<>	n/a	-999	8	[0, 0, 0]	n/a	catFR1	1	R1484T
1188.579	1.0	1198731	REC_WORD	1.0	n/a	CARNATION	Flowers	3	8	[0, 0, 0]	n/a	catFR1	1	R1484T
1189.579	7.149	1199731	REC_WORD	7.149	n/a	CARNATION	Flowers	3	8	[0, 0, 0]	n/a	catFR1	1	R1484T
1196.728	6.492	1206880	REC_WORD	6.492	n/a	FLEECE	Fabric	8	8	[0, 0, 0]	n/a	catFR1	1	R1484T
1203.22	5.356	1213372	REC_WORD	5.356	n/a	SILK	Fabric	7	8	[0, 0, 0]	n/a	catFR1	1	R1484T
1208.576	10.972	1218729	REC_END	n/a	n/a	n/a	n/a	-999	8	[0, 0, 0]	n/a	catFR1	1	R1484T
1219.548	10.349	1229704	COUNTDOWN_START	n/a	n/a	n/a	n/a	-999	8	[0, 0, 0]	n/a	catFR1	1	R1484T
1229.897	0.0	1240046	COUNTDOWN_END	n/a	n/a	n/a	n/a	-999	8	[0, 0, 0]	n/a	catFR1	1	R1484T
1229.897	2.168	1240054	ENCODING_START	n/a	n/a	n/a	n/a	-999	9	[0, 0, 0]	n/a	catFR1	1	R1484T
1232.065	1.599	1242217	WORD	n/a	wordpools/wordpool_categorized_EN.txt	PENCIL	OfficeSupplies	1	9	[0, 0, 0]	n/a	catFR1	1	R1484T
1233.664	1.001	1243818	WORD_OFF	n/a	n/a	PENCIL	OfficeSupplies	1	9	[0, 0, 0]	n/a	catFR1	1	R1484T
1234.665	1.616	1244818	WORD	n/a	wordpools/wordpool_categorized_EN.txt	BINDER	OfficeSupplies	2	9	[0, 0, 0]	n/a	catFR1	1	R1484T
1236.281	0.917	1246435	WORD_OFF	n/a	n/a	BINDER	OfficeSupplies	2	9	[0, 0, 0]	n/a	catFR1	1	R1484T
1237.198	1.6	1247349	WORD	n/a	wordpools/wordpool_categorized_EN.txt	SEAGULL	Birds	3	9	[0, 0, 0]	n/a	catFR1	1	R1484T
1238.798	0.85	1248950	WORD_OFF	n/a	n/a	SEAGULL	Birds	3	9	[0, 0, 0]	n/a	catFR1	1	R1484T
1239.648	1.6	1249802	WORD	n/a	wordpools/wordpool_categorized_EN.txt	BLUEBIRD	Birds	4	9	[0, 0, 0]	n/a	catFR1	1	R1484T
1241.248	0.9	1251395	WORD_OFF	n/a	n/a	BLUEBIRD	Birds	4	9	[0, 0, 0]	n/a	catFR1	1	R1484T
1242.148	1.6	1252301	WORD	n/a	wordpools/wordpool_categorized_EN.txt	TOASTER	Appliances	5	9	[0, 0, 0]	n/a	catFR1	1	R1484T
1243.748	1.0	1253895	WORD_OFF	n/a	n/a	TOASTER	Appliances	5	9	[0, 0, 0]	n/a	catFR1	1	R1484T
1244.748	1.616	1254894	WORD	n/a	wordpools/wordpool_categorized_EN.txt	DRYER	Appliances	6	9	[0, 0, 0]	n/a	catFR1	1	R1484T
1246.364	0.867	1256511	WORD_OFF	n/a	n/a	DRYER	Appliances	6	9	[0, 0, 0]	n/a	catFR1	1	R1484T
1247.231	1.6	1257378	WORD	n/a	wordpools/wordpool_categorized_EN.txt	CARDINAL	Birds	7	9	[0, 0, 0]	n/a	catFR1	1	R1484T
1248.831	0.85	1258980	WORD_OFF	n/a	n/a	CARDINAL	Birds	7	9	[0, 0, 0]	n/a	catFR1	1	R1484T
1249.681	1.6	1259831	WORD	n/a	wordpools/wordpool_categorized_EN.txt	ROBIN	Birds	8	9	[0, 0, 0]	n/a	catFR1	1	R1484T
1251.281	0.849	1261432	WORD_OFF	n/a	n/a	ROBIN	Birds	8	9	[0, 0, 0]	n/a	catFR1	1	R1484T
1252.13	1.601	1262276	WORD	n/a	wordpools/wordpool_categorized_EN.txt	VACUUM	Appliances	9	9	[0, 0, 0]	n/a	catFR1	1	R1484T
1253.731	0.883	1263877	WORD_OFF	n/a	n/a	VACUUM	Appliances	9	9	[0, 0, 0]	n/a	catFR1	1	R1484T
1254.614	1.601	1264760	WORD	n/a	wordpools/wordpool_categorized_EN.txt	IRON	Appliances	10	9	[0, 0, 0]	n/a	catFR1	1	R1484T
1256.215	0.999	1266361	WORD_OFF	n/a	n/a	IRON	Appliances	10	9	[0, 0, 0]	n/a	catFR1	1	R1484T
1257.214	1.617	1267361	WORD	n/a	wordpools/wordpool_categorized_EN.txt	TAPE	OfficeSupplies	11	9	[0, 0, 0]	n/a	catFR1	1	R1484T
1258.831	0.9	1268978	WORD_OFF	n/a	n/a	TAPE	OfficeSupplies	11	9	[0, 0, 0]	n/a	catFR1	1	R1484T
1259.731	1.617	1269884	WORD	n/a	wordpools/wordpool_categorized_EN.txt	NOTEBOOK	OfficeSupplies	12	9	[0, 0, 0]	n/a	catFR1	1	R1484T
1261.348	0.0	1271493	WORD_OFF	n/a	n/a	NOTEBOOK	OfficeSupplies	12	9	[0, 0, 0]	n/a	catFR1	1	R1484T
1261.348	0.003	1271497	PROB	0.003	n/a	n/a	n/a	-999	9	[6, 2, 5]	13	catFR1	1	R1484T
1261.351	0.0	1271500	START	n/a	n/a	n/a	n/a	-999	9	[-999, -999, -999]	n/a	catFR1	1	R1484T
1261.351	0.0	1271501	ENCODING_END	n/a	n/a	n/a	n/a	-999	9	[0, 0, 0]	n/a	catFR1	1	R1484T
1261.351	15.531	1271501	DISTRACT_START	n/a	n/a	n/a	n/a	-999	9	[0, 0, 0]	n/a	catFR1	1	R1484T
1276.882	10.999	1287030	PROB	10.999	n/a	n/a	n/a	-999	9	[6, 8, 2]	16	catFR1	1	R1484T
1287.881	0.0	1298027	DISTRACT_END	n/a	n/a	n/a	n/a	-999	9	[0, 0, 0]	n/a	catFR1	1	R1484T
1287.881	1.017	1298028	STOP	n/a	n/a	n/a	n/a	-999	9	[-999, -999, -999]	n/a	catFR1	1	R1484T
1288.898	5.52	1299042	REC_START	n/a	n/a	n/a	n/a	-999	9	[0, 0, 0]	n/a	catFR1	1	R1484T
1294.418	1.0	1304565	REC_WORD	1.0	n/a	PENCIL	OfficeSupplies	1	9	[0, 0, 0]	n/a	catFR1	1	R1484T
1295.418	1.277	1305565	REC_WORD	1.277	n/a	PENCIL	OfficeSupplies	1	9	[0, 0, 0]	n/a	catFR1	1	R1484T
1296.695	1.0	1306842	REC_WORD	1.0	n/a	TOASTER	Appliances	5	9	[0, 0, 0]	n/a	catFR1	1	R1484T
1297.695	3.797	1307842	REC_WORD	3.797	n/a	TOASTER	Appliances	5	9	[0, 0, 0]	n/a	catFR1	1	R1484T
1301.492	18.67	1311638	REC_WORD_VV	18.67	n/a	<>	n/a	-999	9	[0, 0, 0]	n/a	catFR1	1	R1484T
1320.162	4.669	1330310	REC_END	n/a	n/a	n/a	n/a	-999	9	[0, 0, 0]	n/a	catFR1	1	R1484T
1324.831	10.35	1334981	COUNTDOWN_START	n/a	n/a	n/a	n/a	-999	9	[0, 0, 0]	n/a	catFR1	1	R1484T
1335.181	0.0	1345330	COUNTDOWN_END	n/a	n/a	n/a	n/a	-999	9	[0, 0, 0]	n/a	catFR1	1	R1484T
1335.181	2.017	1345330	ENCODING_START	n/a	n/a	n/a	n/a	-999	10	[0, 0, 0]	n/a	catFR1	1	R1484T
1337.198	1.617	1347346	WORD	n/a	wordpools/wordpool_categorized_EN.txt	SODA	Beverages	1	10	[0, 0, 0]	n/a	catFR1	1	R1484T
1338.815	0.85	1348963	WORD_OFF	n/a	n/a	SODA	Beverages	1	10	[0, 0, 0]	n/a	catFR1	1	R1484T
1339.665	1.616	1349806	WORD	n/a	wordpools/wordpool_categorized_EN.txt	WINE	Beverages	2	10	[0, 0, 0]	n/a	catFR1	1	R1484T
1341.281	0.848	1351423	WORD_OFF	n/a	n/a	WINE	Beverages	2	10	[0, 0, 0]	n/a	catFR1	1	R1484T
1342.129	1.602	1352274	WORD	n/a	wordpools/wordpool_categorized_EN.txt	TRUMPET	Instruments	3	10	[0, 0, 0]	n/a	catFR1	1	R1484T
1343.731	0.999	1353876	WORD_OFF	n/a	n/a	TRUMPET	Instruments	3	10	[0, 0, 0]	n/a	catFR1	1	R1484T
1344.73	1.601	1354876	WORD	n/a	wordpools/wordpool_categorized_EN.txt	BASS	Instruments	4	10	[0, 0, 0]	n/a	catFR1	1	R1484T
1346.331	0.934	1356477	WORD_OFF	n/a	n/a	BASS	Instruments	4	10	[0, 0, 0]	n/a	catFR1	1	R1484T
1347.265	1.616	1357406	WORD	n/a	wordpools/wordpool_categorized_EN.txt	SUEDE	Fabric	5	10	[0, 0, 0]	n/a	catFR1	1	R1484T
1348.881	0.817	1359023	WORD_OFF	n/a	n/a	SUEDE	Fabric	5	10	[0, 0, 0]	n/a	catFR1	1	R1484T
1349.698	1.6	1359843	WORD	n/a	wordpools/wordpool_categorized_EN.txt	LINEN	Fabric	6	10	[0, 0, 0]	n/a	catFR1	1	R1484T
1351.298	0.866	1361445	WORD_OFF	n/a	n/a	LINEN	Fabric	6	10	[0, 0, 0]	n/a	catFR1	1	R1484T
1352.164	1.6	1362312	WORD	n/a	wordpools/wordpool_categorized_EN.txt	MILK	Beverages	7	10	[0, 0, 0]	n/a	catFR1	1	R1484T
1353.764	0.933	1363905	WORD_OFF	n/a	n/a	MILK	Beverages	7	10	[0, 0, 0]	n/a	catFR1	1	R1484T
1354.697	1.601	1364842	WORD	n/a	wordpools/wordpool_categorized_EN.txt	COLA	Beverages	8	10	[0, 0, 0]	n/a	catFR1	1	R1484T
1356.298	0.883	1366444	WORD_OFF	n/a	n/a	COLA	Beverages	8	10	[0, 0, 0]	n/a	catFR1	1	R1484T
1357.181	1.6	1367326	WORD	n/a	wordpools/wordpool_categorized_EN.txt	LEATHER	Fabric	9	10	[0, 0, 0]	n/a	catFR1	1	R1484T
1358.781	0.999	1368928	WORD_OFF	n/a	n/a	LEATHER	Fabric	9	10	[0, 0, 0]	n/a	catFR1	1	R1484T
1359.78	1.6	1369927	WORD	n/a	wordpools/wordpool_categorized_EN.txt	SPANDEX	Fabric	10	10	[0, 0, 0]	n/a	catFR1	1	R1484T
1361.38	0.767	1371521	WORD_OFF	n/a	n/a	SPANDEX	Fabric	10	10	[0, 0, 0]	n/a	catFR1	1	R1484T
1362.147	1.6	1372294	WORD	n/a	wordpools/wordpool_categorized_EN.txt	TROMBONE	Instruments	11	10	[0, 0, 0]	n/a	catFR1	1	R1484T
1363.747	0.884	1373895	WORD_OFF	n/a	n/a	TROMBONE	Instruments	11	10	[0, 0, 0]	n/a	catFR1	1	R1484T
1364.631	1.618	1374778	WORD	n/a	wordpools/wordpool_categorized_EN.txt	ORGAN	Instruments	12	10	[0, 0, 0]	n/a	catFR1	1	R1484T
1366.249	0.002	1376392	PROB	0.002	n/a	n/a	n/a	-999	10	[4, 1, 4]	9	catFR1	1	R1484T
1366.251	0.0	1376394	START	n/a	n/a	n/a	n/a	-999	10	[-999, -999, -999]	n/a	catFR1	1	R1484T
1366.247	0.004	1376395	WORD_OFF	n/a	n/a	ORGAN	Instruments	12	10	[0, 0, 0]	n/a	catFR1	1	R1484T
1366.251	0.0	1376395	ENCODING_END	n/a	n/a	n/a	n/a	-999	10	[0, 0, 0]	n/a	catFR1	1	R1484T
1366.251	5.03	1376395	DISTRACT_START	n/a	n/a	n/a	n/a	-999	10	[0, 0, 0]	n/a	catFR1	1	R1484T
1371.281	4.851	1381424	PROB	4.851	n/a	n/a	n/a	-999	10	[1, 3, 1]	5	catFR1	1	R1484T
1376.132	16.716	1386275	PROB	16.716	n/a	n/a	n/a	-999	10	[6, 6, 7]	19	catFR1	1	R1484T
1392.848	0.0	1402990	STOP	n/a	n/a	n/a	n/a	-999	10	[-999, -999, -999]	n/a	catFR1	1	R1484T
1392.848	1.383	1402991	DISTRACT_END	n/a	n/a	n/a	n/a	-999	10	[0, 0, 0]	n/a	catFR1	1	R1484T
1394.231	2.047	1404374	REC_START	n/a	n/a	n/a	n/a	-999	10	[0, 0, 0]	n/a	catFR1	1	R1484T
1396.278	1.0	1406420	REC_WORD	1.0	n/a	TROMBONE	Instruments	11	10	[0, 0, 0]	n/a	catFR1	1	R1484T
1397.278	1.641	1407420	REC_WORD	1.641	n/a	TROMBONE	Instruments	11	10	[0, 0, 0]	n/a	catFR1	1	R1484T
1398.919	3.458	1409060	REC_WORD	3.458	n/a	ORGAN	Instruments	12	10	[0, 0, 0]	n/a	catFR1	1	R1484T
1402.377	3.823	1412518	REC_WORD	3.823	n/a	TRUMPET	Instruments	3	10	[0, 0, 0]	n/a	catFR1	1	R1484T
1406.2	2.457	1416341	REC_WORD_VV	2.457	n/a	<>	n/a	-999	10	[0, 0, 0]	n/a	catFR1	1	R1484T
1408.657	3.634	1418798	REC_WORD_VV	3.634	n/a	<>	n/a	-999	10	[0, 0, 0]	n/a	catFR1	1	R1484T
1412.291	1.0	1422432	REC_WORD	1.0	n/a	SPANDEX	Fabric	10	10	[0, 0, 0]	n/a	catFR1	1	R1484T
1413.291	2.985	1423432	REC_WORD	2.985	n/a	SPANDEX	Fabric	10	10	[0, 0, 0]	n/a	catFR1	1	R1484T
1416.276	2.813	1426417	REC_WORD_VV	2.813	n/a	<>	n/a	-999	10	[0, 0, 0]	n/a	catFR1	1	R1484T
1419.089	6.378	1429229	REC_WORD	6.378	n/a	LINEN	Fabric	6	10	[0, 0, 0]	n/a	catFR1	1	R1484T
1425.467	3.164	1435610	REC_END	n/a	n/a	n/a	n/a	-999	10	[0, 0, 0]	n/a	catFR1	1	R1484T
1428.631	10.35	1438774	COUNTDOWN_START	n/a	n/a	n/a	n/a	-999	10	[0, 0, 0]	n/a	catFR1	1	R1484T
1438.981	0.0	1449123	COUNTDOWN_END	n/a	n/a	n/a	n/a	-999	10	[0, 0, 0]	n/a	catFR1	1	R1484T
1438.981	2.0	1449123	ENCODING_START	n/a	n/a	n/a	n/a	-999	11	[0, 0, 0]	n/a	catFR1	1	R1484T
1440.981	1.617	1451123	WORD	n/a	wordpools/wordpool_categorized_EN.txt	BANJO	Instruments	1	11	[0, 0, 0]	n/a	catFR1	1	R1484T
1442.598	0.85	1452740	WORD_OFF	n/a	n/a	BANJO	Instruments	1	11	[0, 0, 0]	n/a	catFR1	1	R1484T
1443.448	1.6	1453591	WORD	n/a	wordpools/wordpool_categorized_EN.txt	FLUTE	Instruments	2	11	[0, 0, 0]	n/a	catFR1	1	R1484T
1445.048	0.933	1455185	WORD_OFF	n/a	n/a	FLUTE	Instruments	2	11	[0, 0, 0]	n/a	catFR1	1	R1484T
1445.981	1.6	1456122	WORD	n/a	wordpools/wordpool_categorized_EN.txt	GLUE	OfficeSupplies	3	11	[0, 0, 0]	n/a	catFR1	1	R1484T
1447.581	0.934	1457723	WORD_OFF	n/a	n/a	GLUE	OfficeSupplies	3	11	[0, 0, 0]	n/a	catFR1	1	R1484T
1448.515	1.6	1458653	WORD	n/a	wordpools/wordpool_categorized_EN.txt	FOLDER	OfficeSupplies	4	11	[0, 0, 0]	n/a	catFR1	1	R1484T
1450.115	0.8	1460254	WORD_OFF	n/a	n/a	FOLDER	OfficeSupplies	4	11	[0, 0, 0]	n/a	catFR1	1	R1484T
1450.915	1.616	1461051	WORD	n/a	wordpools/wordpool_categorized_EN.txt	DENIM	Fabric	5	11	[0, 0, 0]	n/a	catFR1	1	R1484T
1452.531	0.85	1462668	WORD_OFF	n/a	n/a	DENIM	Fabric	5	11	[0, 0, 0]	n/a	catFR1	1	R1484T
1453.381	1.6	1463519	WORD	n/a	wordpools/wordpool_categorized_EN.txt	COTTON	Fabric	6	11	[0, 0, 0]	n/a	catFR1	1	R1484T
1454.981	0.917	1465120	WORD_OFF	n/a	n/a	COTTON	Fabric	6	11	[0, 0, 0]	n/a	catFR1	1	R1484T
1455.898	1.617	1466034	WORD	n/a	wordpools/wordpool_categorized_EN.txt	RULER	OfficeSupplies	7	11	[0, 0, 0]	n/a	catFR1	1	R1484T
1457.515	0.783	1467651	WORD_OFF	n/a	n/a	RULER	OfficeSupplies	7	11	[0, 0, 0]	n/a	catFR1	1	R1484T
1458.298	1.616	1468440	WORD	n/a	wordpools/wordpool_categorized_EN.txt	STAPLER	OfficeSupplies	8	11	[0, 0, 0]	n/a	catFR1	1	R1484T
1459.914	0.934	1470049	WORD_OFF	n/a	n/a	STAPLER	OfficeSupplies	8	11	[0, 0, 0]	n/a	catFR1	1	R1484T
1460.848	1.615	1470986	WORD	n/a	wordpools/wordpool_categorized_EN.txt	WOOL	Fabric	9	11	[0, 0, 0]	n/a	catFR1	1	R1484T
1462.463	0.818	1472603	WORD_OFF	n/a	n/a	WOOL	Fabric	9	11	[0, 0, 0]	n/a	catFR1	1	R1484T
1463.281	1.615	1473423	WORD	n/a	wordpools/wordpool_categorized_EN.txt	VELVET	Fabric	10	11	[0, 0, 0]	n/a	catFR1	1	R1484T
1464.896	0.818	1475032	WORD_OFF	n/a	n/a	VELVET	Fabric	10	11	[0, 0, 0]	n/a	catFR1	1	R1484T
1465.714	1.6	1475853	WORD	n/a	wordpools/wordpool_categorized_EN.txt	VIOLIN	Instruments	11	11	[0, 0, 0]	n/a	catFR1	1	R1484T
1467.314	0.883	1477454	WORD_OFF	n/a	n/a	VIOLIN	Instruments	11	11	[0, 0, 0]	n/a	catFR1	1	R1484T
1468.197	1.617	1478337	WORD	n/a	wordpools/wordpool_categorized_EN.txt	GUITAR	Instruments	12	11	[0, 0, 0]	n/a	catFR1	1	R1484T
1469.814	0.0	1479952	PROB	0.0	n/a	n/a	n/a	-999	11	[4, 2, 5]	11	catFR1	1	R1484T
1469.814	0.001	1479953	WORD_OFF	n/a	n/a	GUITAR	Instruments	12	11	[0, 0, 0]	n/a	catFR1	1	R1484T
1469.815	0.0	1479953	ENCODING_END	n/a	n/a	n/a	n/a	-999	11	[0, 0, 0]	n/a	catFR1	1	R1484T
1469.815	0.0	1479953	DISTRACT_START	n/a	n/a	n/a	n/a	-999	11	[0, 0, 0]	n/a	catFR1	1	R1484T
1469.815	6.4	1479953	START	n/a	n/a	n/a	n/a	-999	11	[-999, -999, -999]	n/a	catFR1	1	R1484T
1476.215	15.433	1486352	PROB	15.433	n/a	n/a	n/a	-999	11	[5, 6, 3]	14	catFR1	1	R1484T
1491.648	0.0	1501785	DISTRACT_END	n/a	n/a	n/a	n/a	-999	11	[0, 0, 0]	n/a	catFR1	1	R1484T
1491.648	1.032	1501785	STOP	n/a	n/a	n/a	n/a	-999	11	[-999, -999, -999]	n/a	catFR1	1	R1484T
1492.68	3.299	1502816	REC_START	n/a	n/a	n/a	n/a	-999	11	[0, 0, 0]	n/a	catFR1	1	R1484T
1495.979	27.942	1506115	REC_WORD	27.942	n/a	WOOL	Fabric	9	11	[0, 0, 0]	n/a	catFR1	1	R1484T
1523.921	5.51	1534053	REC_END	n/a	n/a	n/a	n/a	-999	11	[0, 0, 0]	n/a	catFR1	1	R1484T
1529.431	10.35	1539567	COUNTDOWN_START	n/a	n/a	n/a	n/a	-999	11	[0, 0, 0]	n/a	catFR1	1	R1484T
1539.781	0.0	1549917	COUNTDOWN_END	n/a	n/a	n/a	n/a	-999	11	[0, 0, 0]	n/a	catFR1	1	R1484T
1539.781	2.15	1549917	ENCODING_START	n/a	n/a	n/a	n/a	-999	12	[0, 0, 0]	n/a	catFR1	1	R1484T
1541.931	1.617	1552065	WORD	n/a	wordpools/wordpool_categorized_EN.txt	LEMONADE	Beverages	1	12	[0, 0, 0]	n/a	catFR1	1	R1484T
1543.548	0.933	1553682	WORD_OFF	n/a	n/a	LEMONADE	Beverages	1	12	[0, 0, 0]	n/a	catFR1	1	R1484T
1544.481	1.617	1554619	WORD	n/a	wordpools/wordpool_categorized_EN.txt	TEA	Beverages	2	12	[0, 0, 0]	n/a	catFR1	1	R1484T
1546.098	0.982	1556236	WORD_OFF	n/a	n/a	TEA	Beverages	2	12	[0, 0, 0]	n/a	catFR1	1	R1484T
1547.08	1.601	1557212	WORD	n/a	wordpools/wordpool_categorized_EN.txt	SPARROW	Birds	3	12	[0, 0, 0]	n/a	catFR1	1	R1484T
1548.681	0.984	1558813	WORD_OFF	n/a	n/a	SPARROW	Birds	3	12	[0, 0, 0]	n/a	catFR1	1	R1484T
1549.665	1.616	1559798	WORD	n/a	wordpools/wordpool_categorized_EN.txt	DUCK	Birds	4	12	[0, 0, 0]	n/a	catFR1	1	R1484T
1551.281	0.85	1561414	WORD_OFF	n/a	n/a	DUCK	Birds	4	12	[0, 0, 0]	n/a	catFR1	1	R1484T
1552.131	1.6	1562266	WORD	n/a	wordpools/wordpool_categorized_EN.txt	ERASER	OfficeSupplies	5	12	[0, 0, 0]	n/a	catFR1	1	R1484T
1553.731	0.983	1563867	WORD_OFF	n/a	n/a	ERASER	OfficeSupplies	5	12	[0, 0, 0]	n/a	catFR1	1	R1484T
1554.714	1.601	1564851	WORD	n/a	wordpools/wordpool_categorized_EN.txt	PAPER	OfficeSupplies	6	12	[0, 0, 0]	n/a	catFR1	1	R1484T
1556.315	0.866	1566445	WORD_OFF	n/a	n/a	PAPER	OfficeSupplies	6	12	[0, 0, 0]	n/a	catFR1	1	R1484T
1557.181	1.6	1567312	WORD	n/a	wordpools/wordpool_categorized_EN.txt	DOVE	Birds	7	12	[0, 0, 0]	n/a	catFR1	1	R1484T
1558.781	0.867	1568913	WORD_OFF	n/a	n/a	DOVE	Birds	7	12	[0, 0, 0]	n/a	catFR1	1	R1484T
1559.648	1.6	1569780	WORD	n/a	wordpools/wordpool_categorized_EN.txt	GOOSE	Birds	8	12	[0, 0, 0]	n/a	catFR1	1	R1484T
1561.248	0.983	1571381	WORD_OFF	n/a	n/a	GOOSE	Birds	8	12	[0, 0, 0]	n/a	catFR1	1	R1484T
1562.231	1.6	1572366	WORD	n/a	wordpools/wordpool_categorized_EN.txt	CIDER	Beverages	9	12	[0, 0, 0]	n/a	catFR1	1	R1484T
1563.831	0.983	1573967	WORD_OFF	n/a	n/a	CIDER	Beverages	9	12	[0, 0, 0]	n/a	catFR1	1	R1484T
1564.814	1.6	1574951	WORD	n/a	wordpools/wordpool_categorized_EN.txt	RUM	Beverages	10	12	[0, 0, 0]	n/a	catFR1	1	R1484T
1566.414	0.967	1576544	WORD_OFF	n/a	n/a	RUM	Beverages	10	12	[0, 0, 0]	n/a	catFR1	1	R1484T
1567.381	1.616	1577513	WORD	n/a	wordpools/wordpool_categorized_EN.txt	MARKER	OfficeSupplies	11	12	[0, 0, 0]	n/a	catFR1	1	R1484T
1568.997	0.884	1579130	WORD_OFF	n/a	n/a	MARKER	OfficeSupplies	11	12	[0, 0, 0]	n/a	catFR1	1	R1484T
1569.881	1.6	1580013	WORD	n/a	wordpools/wordpool_categorized_EN.txt	PEN	OfficeSupplies	12	12	[0, 0, 0]	n/a	catFR1	1	R1484T
1571.481	0.003	1581614	WORD_OFF	n/a	n/a	PEN	OfficeSupplies	12	12	[0, 0, 0]	n/a	catFR1	1	R1484T
1571.484	0.0	1581614	ENCODING_END	n/a	n/a	n/a	n/a	-999	12	[0, 0, 0]	n/a	catFR1	1	R1484T
1571.481	0.003	1581614	PROB	0.003	n/a	n/a	n/a	-999	12	[7, 7, 7]	19	catFR1	1	R1484T
1571.484	0.0	1581617	START	n/a	n/a	n/a	n/a	-999	12	[-999, -999, -999]	n/a	catFR1	1	R1484T
1571.484	49.629	1581622	DISTRACT_START	n/a	n/a	n/a	n/a	-999	12	[0, 0, 0]	n/a	catFR1	1	R1484T
1621.113	0.0	1631243	STOP	n/a	n/a	n/a	n/a	-999	12	[-999, -999, -999]	n/a	catFR1	1	R1484T
1621.113	1.117	1631245	DISTRACT_END	n/a	n/a	n/a	n/a	-999	12	[0, 0, 0]	n/a	catFR1	1	R1484T
1622.23	3.103	1632362	REC_START	n/a	n/a	n/a	n/a	-999	12	[0, 0, 0]	n/a	catFR1	1	R1484T
1625.333	3.082	1635463	REC_WORD	3.082	n/a	TEA	Beverages	2	12	[0, 0, 0]	n/a	catFR1	1	R1484T
1628.415	0.903	1638545	REC_WORD_VV	0.903	n/a	<>	n/a	-999	12	[0, 0, 0]	n/a	catFR1	1	R1484T
1629.318	6.62	1639448	REC_WORD	6.62	n/a	LEMONADE	Beverages	1	12	[0, 0, 0]	n/a	catFR1	1	R1484T
1635.938	17.519	1646067	REC_WORD_VV	17.519	n/a	<>	n/a	-999	12	[0, 0, 0]	n/a	catFR1	1	R1484T
1653.457	0.0	1663583	REC_END	n/a	n/a	n/a	n/a	-999	12	[0, 0, 0]	n/a	catFR1	1	R1484T
