onset	duration	sample	trial_type	response_time	stim_file	item_name	category	serialpos	list	test	answer	experiment	session	subject
0.0	0.0	-1	INSTRUCT_START	n/a	n/a	n/a	n/a	-999	-999	[0, 0, 0]	n/a	catFR1	1	R1286J
0.0	0.0	-1	INSTRUCT_END	n/a	n/a	n/a	n/a	-999	-999	[0, 0, 0]	n/a	catFR1	1	R1286J
0.0	0.0	-1	SESS_START	n/a	n/a	n/a	n/a	-999	-999	[0, 0, 0]	n/a	catFR1	1	R1286J
0.0	1118.961	-1	MIC_TEST	n/a	n/a	n/a	n/a	-999	-999	[0, 0, 0]	n/a	catFR1	1	R1286J
1118.961	8.981	1095728	PRACTICE_TRIAL	n/a	n/a	n/a	n/a	-999	-1	[0, 0, 0]	n/a	catFR1	1	R1286J
1127.942	10.0	1104709	COUNTDOWN_START	n/a	n/a	n/a	n/a	-999	-1	[0, 0, 0]	n/a	catFR1	1	R1286J
1138.37	0.008	1115137	COUNTDOWN_END	n/a	n/a	n/a	n/a	-999	-1	[0, 0, 0]	n/a	catFR1	1	R1286J
1138.378	1.6	1115145	PRACTICE_ORIENT	n/a	n/a	n/a	n/a	-999	-1	[0, 0, 0]	n/a	catFR1	1	R1286J
1139.994	1.983	1116761	PRACTICE_ORIENT_OFF	n/a	n/a	n/a	n/a	-999	-1	[0, 0, 0]	n/a	catFR1	1	R1286J
1141.977	1.6	1118744	PRACTICE_WORD	n/a	n/a	COTTON	n/a	-1	-1	[0, 0, 0]	n/a	catFR1	1	R1286J
1143.579	0.917	1120346	PRACTICE_WORD_OFF	n/a	n/a	COTTON	n/a	-999	-1	[0, 0, 0]	n/a	catFR1	1	R1286J
1144.496	1.6	1121263	PRACTICE_WORD	n/a	n/a	WAGON	n/a	-1	-1	[0, 0, 0]	n/a	catFR1	1	R1286J
1146.112	0.883	1122878	PRACTICE_WORD_OFF	n/a	n/a	WAGON	n/a	-999	-1	[0, 0, 0]	n/a	catFR1	1	R1286J
1146.995	1.6	1123761	PRACTICE_WORD	n/a	n/a	ALLEY	n/a	-1	-1	[0, 0, 0]	n/a	catFR1	1	R1286J
1148.613	0.884	1125379	PRACTICE_WORD_OFF	n/a	n/a	ALLEY	n/a	-999	-1	[0, 0, 0]	n/a	catFR1	1	R1286J
1149.497	1.6	1126263	PRACTICE_WORD	n/a	n/a	CAMEL	n/a	-1	-1	[0, 0, 0]	n/a	catFR1	1	R1286J
1151.113	0.933	1127879	PRACTICE_WORD_OFF	n/a	n/a	CAMEL	n/a	-999	-1	[0, 0, 0]	n/a	catFR1	1	R1286J
1152.046	1.6	1128812	PRACTICE_WORD	n/a	n/a	FAUCET	n/a	-1	-1	[0, 0, 0]	n/a	catFR1	1	R1286J
1153.664	0.85	1130430	PRACTICE_WORD_OFF	n/a	n/a	FAUCET	n/a	-999	-1	[0, 0, 0]	n/a	catFR1	1	R1286J
1154.514	1.6	1131280	PRACTICE_WORD	n/a	n/a	TONGUE	n/a	-1	-1	[0, 0, 0]	n/a	catFR1	1	R1286J
1156.13	0.85	1132896	PRACTICE_WORD_OFF	n/a	n/a	TONGUE	n/a	-999	-1	[0, 0, 0]	n/a	catFR1	1	R1286J
1156.98	1.6	1133746	PRACTICE_WORD	n/a	n/a	WATCH	n/a	-1	-1	[0, 0, 0]	n/a	catFR1	1	R1286J
1158.598	0.967	1135364	PRACTICE_WORD_OFF	n/a	n/a	WATCH	n/a	-999	-1	[0, 0, 0]	n/a	catFR1	1	R1286J
1159.565	1.6	1136331	PRACTICE_WORD	n/a	n/a	RHINO	n/a	-1	-1	[0, 0, 0]	n/a	catFR1	1	R1286J
1161.181	0.783	1137947	PRACTICE_WORD_OFF	n/a	n/a	RHINO	n/a	-999	-1	[0, 0, 0]	n/a	catFR1	1	R1286J
1161.964	1.6	1138730	PRACTICE_WORD	n/a	n/a	RING	n/a	-1	-1	[0, 0, 0]	n/a	catFR1	1	R1286J
1163.582	0.8	1140348	PRACTICE_WORD_OFF	n/a	n/a	RING	n/a	-999	-1	[0, 0, 0]	n/a	catFR1	1	R1286J
1164.382	1.6	1141148	PRACTICE_WORD	n/a	n/a	CHEST	n/a	-1	-1	[0, 0, 0]	n/a	catFR1	1	R1286J
1165.998	0.834	1142764	PRACTICE_WORD_OFF	n/a	n/a	CHEST	n/a	-999	-1	[0, 0, 0]	n/a	catFR1	1	R1286J
1166.832	1.6	1143598	PRACTICE_WORD	n/a	n/a	BEAM	n/a	-1	-1	[0, 0, 0]	n/a	catFR1	1	R1286J
1168.45	1.0	1145216	PRACTICE_WORD_OFF	n/a	n/a	BEAM	n/a	-999	-1	[0, 0, 0]	n/a	catFR1	1	R1286J
1169.45	1.6	1146216	PRACTICE_WORD	n/a	n/a	FLOOD	n/a	-1	-1	[0, 0, 0]	n/a	catFR1	1	R1286J
1171.066	0.0	1147832	DISTRACT_START	n/a	n/a	n/a	n/a	-999	-1	[0, 0, 0]	n/a	catFR1	1	R1286J
1171.066	0.0	1147832	PRACTICE_WORD_OFF	n/a	n/a	FLOOD	n/a	-999	-1	[0, 0, 0]	n/a	catFR1	1	R1286J
1171.066	0.0	1147832	ENCODING_END	n/a	n/a	n/a	n/a	-999	-1	[0, 0, 0]	n/a	catFR1	1	R1286J
1171.066	0.017	1147832	START	n/a	n/a	n/a	n/a	-999	-1	[-999, -999, -999]	n/a	catFR1	1	R1286J
1171.083	14.019	1147849	PROB	13.982	n/a	n/a	n/a	-999	-1	[6, 5, 4]	15.0	catFR1	1	R1286J
1185.102	4.65	1161867	PROB	4.619	n/a	n/a	n/a	-999	-1	[7, 8, 1]	16.0	catFR1	1	R1286J
1189.752	5.263	1166517	PROB	5.263	n/a	n/a	n/a	-999	-1	[3, 3, 3]	9.0	catFR1	1	R1286J
1195.015	0.022	1171780	STOP	n/a	n/a	n/a	n/a	-999	-1	[-999, -999, -999]	n/a	catFR1	1	R1286J
1195.037	0.65	1171802	DISTRACT_END	n/a	n/a	n/a	n/a	-999	-1	[0, 0, 0]	n/a	catFR1	1	R1286J
1195.687	0.52	1172452	RETRIEVAL_ORIENT	n/a	n/a	n/a	n/a	-999	-1	[0, 0, 0]	n/a	catFR1	1	R1286J
1196.207	30.01	1172972	PRACTICE_REC_START	n/a	n/a	n/a	n/a	-999	-1	[0, 0, 0]	n/a	catFR1	1	R1286J
1226.217	13.877	1202981	PRACTICE_REC_END	n/a	n/a	n/a	n/a	-999	-1	[0, 0, 0]	n/a	catFR1	1	R1286J
1240.094	0.0	1216857	TRIAL	n/a	n/a	n/a	n/a	-999	1	[0, 0, 0]	n/a	catFR1	1	R1286J
1240.094	10.0	1216857	COUNTDOWN_START	n/a	n/a	n/a	n/a	-999	1	[0, 0, 0]	n/a	catFR1	1	R1286J
1250.522	0.008	1227285	COUNTDOWN_END	n/a	n/a	n/a	n/a	-999	1	[0, 0, 0]	n/a	catFR1	1	R1286J
1250.53	1.6	1227293	ORIENT	n/a	n/a	n/a	n/a	-999	1	[0, 0, 0]	n/a	catFR1	1	R1286J
1252.146	2.185	1228909	ORIENT_OFF	n/a	n/a	n/a	n/a	-999	1	[0, 0, 0]	n/a	catFR1	1	R1286J
1254.331	1.6	1231094	WORD	n/a	wordpools/wordpool_categorized_EN.txt	LEMONADE	Beverages	1	1	[0, 0, 0]	n/a	catFR1	1	R1286J
1255.947	0.867	1232710	WORD_OFF	n/a	n/a	LEMONADE	n/a	1	1	[0, 0, 0]	n/a	catFR1	1	R1286J
1256.814	1.6	1233577	WORD	n/a	wordpools/wordpool_categorized_EN.txt	MILK	Beverages	2	1	[0, 0, 0]	n/a	catFR1	1	R1286J
1258.432	0.799	1235195	WORD_OFF	n/a	n/a	MILK	n/a	2	1	[0, 0, 0]	n/a	catFR1	1	R1286J
1259.231	1.6	1235994	WORD	n/a	wordpools/wordpool_categorized_EN.txt	JEEP	Vehicles	3	1	[0, 0, 0]	n/a	catFR1	1	R1286J
1260.848	0.967	1237611	WORD_OFF	n/a	n/a	JEEP	n/a	3	1	[0, 0, 0]	n/a	catFR1	1	R1286J
1261.815	1.6	1238578	WORD	n/a	wordpools/wordpool_categorized_EN.txt	PLANE	Vehicles	4	1	[0, 0, 0]	n/a	catFR1	1	R1286J
1263.433	0.933	1240196	WORD_OFF	n/a	n/a	PLANE	n/a	4	1	[0, 0, 0]	n/a	catFR1	1	R1286J
1264.366	1.6	1241128	WORD	n/a	wordpools/wordpool_categorized_EN.txt	GIRAFFE	Zoo	5	1	[0, 0, 0]	n/a	catFR1	1	R1286J
1265.982	0.917	1242744	WORD_OFF	n/a	n/a	GIRAFFE	n/a	5	1	[0, 0, 0]	n/a	catFR1	1	R1286J
1266.899	1.6	1243661	WORD	n/a	wordpools/wordpool_categorized_EN.txt	PANDA	Zoo	6	1	[0, 0, 0]	n/a	catFR1	1	R1286J
1268.517	0.816	1245279	WORD_OFF	n/a	n/a	PANDA	n/a	6	1	[0, 0, 0]	n/a	catFR1	1	R1286J
1269.333	1.6	1246095	WORD	n/a	wordpools/wordpool_categorized_EN.txt	CIDER	Beverages	7	1	[0, 0, 0]	n/a	catFR1	1	R1286J
1270.949	0.984	1247711	WORD_OFF	n/a	n/a	CIDER	n/a	7	1	[0, 0, 0]	n/a	catFR1	1	R1286J
1271.933	1.6	1248695	WORD	n/a	wordpools/wordpool_categorized_EN.txt	SODA	Beverages	8	1	[0, 0, 0]	n/a	catFR1	1	R1286J
1273.551	0.967	1250313	WORD_OFF	n/a	n/a	SODA	n/a	8	1	[0, 0, 0]	n/a	catFR1	1	R1286J
1274.518	1.6	1251280	WORD	n/a	wordpools/wordpool_categorized_EN.txt	BOAT	Vehicles	9	1	[0, 0, 0]	n/a	catFR1	1	R1286J
1276.134	0.783	1252896	WORD_OFF	n/a	n/a	BOAT	n/a	9	1	[0, 0, 0]	n/a	catFR1	1	R1286J
1276.917	1.6	1253679	WORD	n/a	wordpools/wordpool_categorized_EN.txt	MOTORCYCLE	Vehicles	10	1	[0, 0, 0]	n/a	catFR1	1	R1286J
1278.535	0.8	1255297	WORD_OFF	n/a	n/a	MOTORCYCLE	n/a	10	1	[0, 0, 0]	n/a	catFR1	1	R1286J
1279.335	1.6	1256097	WORD	n/a	wordpools/wordpool_categorized_EN.txt	CHEETAH	Zoo	11	1	[0, 0, 0]	n/a	catFR1	1	R1286J
1280.951	0.85	1257713	WORD_OFF	n/a	n/a	CHEETAH	n/a	11	1	[0, 0, 0]	n/a	catFR1	1	R1286J
1281.801	1.6	1258563	WORD	n/a	wordpools/wordpool_categorized_EN.txt	BEAR	Zoo	12	1	[0, 0, 0]	n/a	catFR1	1	R1286J
1283.419	0.0	1260181	WORD_OFF	n/a	n/a	BEAR	n/a	12	1	[0, 0, 0]	n/a	catFR1	1	R1286J
1283.419	0.072	1260181	ENCODING_END	n/a	n/a	n/a	n/a	-999	1	[0, 0, 0]	n/a	catFR1	1	R1286J
1283.491	0.0	1260253	DISTRACT_START	n/a	n/a	n/a	n/a	-999	1	[0, 0, 0]	n/a	catFR1	1	R1286J
1283.491	0.012	1260253	START	n/a	n/a	n/a	n/a	-999	1	[-999, -999, -999]	n/a	catFR1	1	R1286J
1283.503	7.868	1260265	PROB	7.843	n/a	n/a	n/a	-999	1	[9, 9, 3]	21.0	catFR1	1	R1286J
1291.371	3.117	1268133	PROB	3.079	n/a	n/a	n/a	-999	1	[5, 5, 1]	11.0	catFR1	1	R1286J
1294.488	9.467	1271249	PROB	9.467	n/a	n/a	n/a	-999	1	[6, 1, 8]	15.0	catFR1	1	R1286J
1303.955	0.017	1280716	STOP	n/a	n/a	n/a	n/a	-999	1	[-999, -999, -999]	n/a	catFR1	1	R1286J
1303.972	0.7	1280733	DISTRACT_END	n/a	n/a	n/a	n/a	-999	1	[0, 0, 0]	n/a	catFR1	1	R1286J
1304.672	0.517	1281433	RETRIEVAL_ORIENT	n/a	n/a	n/a	n/a	-999	1	[0, 0, 0]	n/a	catFR1	1	R1286J
1305.189	1.71	1281950	REC_START	n/a	n/a	n/a	n/a	-999	1	[0, 0, 0]	n/a	catFR1	1	R1286J
1306.899	0.909	1283660	REC_WORD	1.71	n/a	PANDA	Zoo	6	1	[0, 0, 0]	n/a	catFR1	1	R1286J
1307.808	4.721	1284569	REC_WORD	2.619	n/a	MOTORCYCLE	Vehicles	10	1	[0, 0, 0]	n/a	catFR1	1	R1286J
1312.529	1.832	1289290	REC_WORD_VV	7.34	n/a	<>	n/a	-999	1	[0, 0, 0]	n/a	catFR1	1	R1286J
1314.361	0.538	1291122	REC_WORD	9.172	n/a	ALLEY	n/a	-999	1	[0, 0, 0]	n/a	catFR1	1	R1286J
1314.899	6.698	1291660	REC_WORD	9.71	n/a	WAGON	n/a	-999	1	[0, 0, 0]	n/a	catFR1	1	R1286J
1321.597	1.474	1298358	REC_WORD	16.408	n/a	MOTORCYCLE	Vehicles	10	1	[0, 0, 0]	n/a	catFR1	1	R1286J
1323.071	3.047	1299832	REC_WORD_VV	17.882	n/a	<>	n/a	-999	1	[0, 0, 0]	n/a	catFR1	1	R1286J
1326.118	9.081	1302878	REC_WORD_VV	20.929	n/a	<>	n/a	-999	1	[0, 0, 0]	n/a	catFR1	1	R1286J
1335.199	2.396	1311959	REC_END	n/a	n/a	n/a	n/a	-999	1	[0, 0, 0]	n/a	catFR1	1	R1286J
1337.595	0.0	1314355	TRIAL	n/a	n/a	n/a	n/a	-999	2	[0, 0, 0]	n/a	catFR1	1	R1286J
1337.595	10.0	1314355	COUNTDOWN_START	n/a	n/a	n/a	n/a	-999	2	[0, 0, 0]	n/a	catFR1	1	R1286J
1348.023	0.006	1324783	COUNTDOWN_END	n/a	n/a	n/a	n/a	-999	2	[0, 0, 0]	n/a	catFR1	1	R1286J
1348.029	1.6	1324789	ORIENT	n/a	n/a	n/a	n/a	-999	2	[0, 0, 0]	n/a	catFR1	1	R1286J
1349.647	1.934	1326407	ORIENT_OFF	n/a	n/a	n/a	n/a	-999	2	[0, 0, 0]	n/a	catFR1	1	R1286J
1351.581	1.6	1328341	WORD	n/a	wordpools/wordpool_categorized_EN.txt	ROOM	Building	1	2	[0, 0, 0]	n/a	catFR1	1	R1286J
1353.197	0.9	1329956	WORD_OFF	n/a	n/a	ROOM	n/a	1	2	[0, 0, 0]	n/a	catFR1	1	R1286J
1354.097	1.6	1330856	WORD	n/a	wordpools/wordpool_categorized_EN.txt	ROOF	Building	2	2	[0, 0, 0]	n/a	catFR1	1	R1286J
1355.714	1.0	1332473	WORD_OFF	n/a	n/a	ROOF	n/a	2	2	[0, 0, 0]	n/a	catFR1	1	R1286J
1356.714	1.6	1333473	WORD	n/a	wordpools/wordpool_categorized_EN.txt	OVEN	Appliances	3	2	[0, 0, 0]	n/a	catFR1	1	R1286J
1358.332	0.866	1335091	WORD_OFF	n/a	n/a	OVEN	n/a	3	2	[0, 0, 0]	n/a	catFR1	1	R1286J
1359.198	1.6	1335957	WORD	n/a	wordpools/wordpool_categorized_EN.txt	WASHER	Appliances	4	2	[0, 0, 0]	n/a	catFR1	1	R1286J
1360.815	0.966	1337574	WORD_OFF	n/a	n/a	WASHER	n/a	4	2	[0, 0, 0]	n/a	catFR1	1	R1286J
1361.781	1.6	1338540	WORD	n/a	wordpools/wordpool_categorized_EN.txt	BUS	Vehicles	5	2	[0, 0, 0]	n/a	catFR1	1	R1286J
1363.399	0.867	1340158	WORD_OFF	n/a	n/a	BUS	n/a	5	2	[0, 0, 0]	n/a	catFR1	1	R1286J
1364.266	1.6	1341025	WORD	n/a	wordpools/wordpool_categorized_EN.txt	BIKE	Vehicles	6	2	[0, 0, 0]	n/a	catFR1	1	R1286J
1365.882	0.768	1342641	WORD_OFF	n/a	n/a	BIKE	n/a	6	2	[0, 0, 0]	n/a	catFR1	1	R1286J
1366.65	1.6	1343409	WORD	n/a	wordpools/wordpool_categorized_EN.txt	HALLWAY	Building	7	2	[0, 0, 0]	n/a	catFR1	1	R1286J
1368.267	0.832	1345026	WORD_OFF	n/a	n/a	HALLWAY	n/a	7	2	[0, 0, 0]	n/a	catFR1	1	R1286J
1369.099	1.6	1345858	WORD	n/a	wordpools/wordpool_categorized_EN.txt	CEILING	Building	8	2	[0, 0, 0]	n/a	catFR1	1	R1286J
1370.716	0.801	1347475	WORD_OFF	n/a	n/a	CEILING	n/a	8	2	[0, 0, 0]	n/a	catFR1	1	R1286J
1371.517	1.6	1348276	WORD	n/a	wordpools/wordpool_categorized_EN.txt	VACUUM	Appliances	9	2	[0, 0, 0]	n/a	catFR1	1	R1286J
1373.133	0.784	1349892	WORD_OFF	n/a	n/a	VACUUM	n/a	9	2	[0, 0, 0]	n/a	catFR1	1	R1286J
1373.917	1.6	1350676	WORD	n/a	wordpools/wordpool_categorized_EN.txt	DRYER	Appliances	10	2	[0, 0, 0]	n/a	catFR1	1	R1286J
1375.535	1.017	1352294	WORD_OFF	n/a	n/a	DRYER	n/a	10	2	[0, 0, 0]	n/a	catFR1	1	R1286J
1376.552	1.6	1353311	WORD	n/a	wordpools/wordpool_categorized_EN.txt	TRUCK	Vehicles	11	2	[0, 0, 0]	n/a	catFR1	1	R1286J
1378.168	1.016	1354927	WORD_OFF	n/a	n/a	TRUCK	n/a	11	2	[0, 0, 0]	n/a	catFR1	1	R1286J
1379.184	1.6	1355943	WORD	n/a	wordpools/wordpool_categorized_EN.txt	CAR	Vehicles	12	2	[0, 0, 0]	n/a	catFR1	1	R1286J
1380.801	0.0	1357560	ENCODING_END	n/a	n/a	n/a	n/a	-999	2	[0, 0, 0]	n/a	catFR1	1	R1286J
1380.801	0.1	1357560	WORD_OFF	n/a	n/a	CAR	n/a	12	2	[0, 0, 0]	n/a	catFR1	1	R1286J
1380.901	0.0	1357660	DISTRACT_START	n/a	n/a	n/a	n/a	-999	2	[0, 0, 0]	n/a	catFR1	1	R1286J
1380.901	0.017	1357660	START	n/a	n/a	n/a	n/a	-999	2	[-999, -999, -999]	n/a	catFR1	1	R1286J
1380.918	13.37	1357677	PROB	13.333	n/a	n/a	n/a	-999	2	[7, 5, 2]	14.0	catFR1	1	R1286J
1394.288	5.483	1371046	PROB	5.453	n/a	n/a	n/a	-999	2	[3, 5, 4]	12.0	catFR1	1	R1286J
1399.771	10.92	1376529	PROB	10.92	n/a	n/a	n/a	-999	2	[2, 9, 9]	20.0	catFR1	1	R1286J
1410.691	0.015	1387449	STOP	n/a	n/a	n/a	n/a	-999	2	[-999, -999, -999]	n/a	catFR1	1	R1286J
1410.706	0.551	1387464	DISTRACT_END	n/a	n/a	n/a	n/a	-999	2	[0, 0, 0]	n/a	catFR1	1	R1286J
1411.257	0.517	1388015	RETRIEVAL_ORIENT	n/a	n/a	n/a	n/a	-999	2	[0, 0, 0]	n/a	catFR1	1	R1286J
1411.774	1.312	1388532	REC_START	n/a	n/a	n/a	n/a	-999	2	[0, 0, 0]	n/a	catFR1	1	R1286J
1413.086	1.023	1389843	REC_WORD	1.312	n/a	ROOM	Building	1	2	[0, 0, 0]	n/a	catFR1	1	R1286J
1414.109	1.561	1390866	REC_WORD	2.335	n/a	ROOF	Building	2	2	[0, 0, 0]	n/a	catFR1	1	R1286J
1415.67	1.314	1392427	REC_WORD	3.896	n/a	OVEN	Appliances	3	2	[0, 0, 0]	n/a	catFR1	1	R1286J
1416.984	1.138	1393741	REC_WORD	5.21	n/a	BIKE	Vehicles	6	2	[0, 0, 0]	n/a	catFR1	1	R1286J
1418.122	1.449	1394879	REC_WORD	6.348	n/a	BUS	Vehicles	5	2	[0, 0, 0]	n/a	catFR1	1	R1286J
1419.571	8.466	1396328	REC_WORD	7.797	n/a	CAR	Vehicles	12	2	[0, 0, 0]	n/a	catFR1	1	R1286J
1428.037	9.55	1404794	REC_WORD_VV	16.263	n/a	<>	n/a	-999	2	[0, 0, 0]	n/a	catFR1	1	R1286J
1437.587	1.152	1414344	REC_WORD_VV	25.813	n/a	<>	n/a	-999	2	[0, 0, 0]	n/a	catFR1	1	R1286J
1438.739	0.602	1415496	REC_WORD	26.965	n/a	BUS	Vehicles	5	2	[0, 0, 0]	n/a	catFR1	1	R1286J
1439.341	1.637	1416098	REC_WORD	27.567	n/a	BIKE	Vehicles	6	2	[0, 0, 0]	n/a	catFR1	1	R1286J
1440.978	0.807	1417735	REC_WORD	29.204	n/a	CAR	Vehicles	12	2	[0, 0, 0]	n/a	catFR1	1	R1286J
1441.785	1.944	1418541	REC_END	n/a	n/a	n/a	n/a	-999	2	[0, 0, 0]	n/a	catFR1	1	R1286J
1443.729	0.0	1420485	TRIAL	n/a	n/a	n/a	n/a	-999	3	[0, 0, 0]	n/a	catFR1	1	R1286J
1443.729	10.0	1420485	COUNTDOWN_START	n/a	n/a	n/a	n/a	-999	3	[0, 0, 0]	n/a	catFR1	1	R1286J
1454.157	0.007	1430913	COUNTDOWN_END	n/a	n/a	n/a	n/a	-999	3	[0, 0, 0]	n/a	catFR1	1	R1286J
1454.164	1.6	1430920	ORIENT	n/a	n/a	n/a	n/a	-999	3	[0, 0, 0]	n/a	catFR1	1	R1286J
1455.781	2.167	1432537	ORIENT_OFF	n/a	n/a	n/a	n/a	-999	3	[0, 0, 0]	n/a	catFR1	1	R1286J
1457.948	1.6	1434704	WORD	n/a	wordpools/wordpool_categorized_EN.txt	CARNATION	Flowers	1	3	[0, 0, 0]	n/a	catFR1	1	R1286J
1459.566	0.783	1436322	WORD_OFF	n/a	n/a	CARNATION	n/a	1	3	[0, 0, 0]	n/a	catFR1	1	R1286J
1460.349	1.6	1437105	WORD	n/a	wordpools/wordpool_categorized_EN.txt	VIOLET	Flowers	2	3	[0, 0, 0]	n/a	catFR1	1	R1286J
1461.965	0.9	1438721	WORD_OFF	n/a	n/a	VIOLET	n/a	2	3	[0, 0, 0]	n/a	catFR1	1	R1286J
1462.865	1.6	1439621	WORD	n/a	wordpools/wordpool_categorized_EN.txt	SHRIMP	OceanAnimals	3	3	[0, 0, 0]	n/a	catFR1	1	R1286J
1464.483	0.95	1441239	WORD_OFF	n/a	n/a	SHRIMP	n/a	3	3	[0, 0, 0]	n/a	catFR1	1	R1286J
1465.433	1.6	1442189	WORD	n/a	wordpools/wordpool_categorized_EN.txt	TURTLE	OceanAnimals	4	3	[0, 0, 0]	n/a	catFR1	1	R1286J
1467.049	0.884	1443805	WORD_OFF	n/a	n/a	TURTLE	n/a	4	3	[0, 0, 0]	n/a	catFR1	1	R1286J
1467.933	1.6	1444689	WORD	n/a	wordpools/wordpool_categorized_EN.txt	PENCIL	OfficeSupplies	5	3	[0, 0, 0]	n/a	catFR1	1	R1286J
1469.551	0.866	1446307	WORD_OFF	n/a	n/a	PENCIL	n/a	5	3	[0, 0, 0]	n/a	catFR1	1	R1286J
1470.417	1.6	1447173	WORD	n/a	wordpools/wordpool_categorized_EN.txt	MARKER	OfficeSupplies	6	3	[0, 0, 0]	n/a	catFR1	1	R1286J
1472.033	0.767	1448788	WORD_OFF	n/a	n/a	MARKER	n/a	6	3	[0, 0, 0]	n/a	catFR1	1	R1286J
1472.8	1.6	1449555	WORD	n/a	wordpools/wordpool_categorized_EN.txt	SQUID	OceanAnimals	7	3	[0, 0, 0]	n/a	catFR1	1	R1286J
1474.402	0.883	1451157	WORD_OFF	n/a	n/a	SQUID	n/a	7	3	[0, 0, 0]	n/a	catFR1	1	R1286J
1475.285	1.6	1452040	WORD	n/a	wordpools/wordpool_categorized_EN.txt	OCTOPUS	OceanAnimals	8	3	[0, 0, 0]	n/a	catFR1	1	R1286J
1476.901	0.783	1453656	WORD_OFF	n/a	n/a	OCTOPUS	n/a	8	3	[0, 0, 0]	n/a	catFR1	1	R1286J
1477.684	1.6	1454439	WORD	n/a	wordpools/wordpool_categorized_EN.txt	LILY	Flowers	9	3	[0, 0, 0]	n/a	catFR1	1	R1286J
1479.286	0.865	1456041	WORD_OFF	n/a	n/a	LILY	n/a	9	3	[0, 0, 0]	n/a	catFR1	1	R1286J
1480.151	1.6	1456906	WORD	n/a	wordpools/wordpool_categorized_EN.txt	MARIGOLD	Flowers	10	3	[0, 0, 0]	n/a	catFR1	1	R1286J
1481.768	0.967	1458523	WORD_OFF	n/a	n/a	MARIGOLD	n/a	10	3	[0, 0, 0]	n/a	catFR1	1	R1286J
1482.735	1.6	1459490	WORD	n/a	wordpools/wordpool_categorized_EN.txt	PEN	OfficeSupplies	11	3	[0, 0, 0]	n/a	catFR1	1	R1286J
1484.336	0.766	1461091	WORD_OFF	n/a	n/a	PEN	n/a	11	3	[0, 0, 0]	n/a	catFR1	1	R1286J
1485.102	1.6	1461857	WORD	n/a	wordpools/wordpool_categorized_EN.txt	ERASER	OfficeSupplies	12	3	[0, 0, 0]	n/a	catFR1	1	R1286J
1486.719	0.0	1463474	ENCODING_END	n/a	n/a	n/a	n/a	-999	3	[0, 0, 0]	n/a	catFR1	1	R1286J
1486.719	0.072	1463474	WORD_OFF	n/a	n/a	ERASER	n/a	12	3	[0, 0, 0]	n/a	catFR1	1	R1286J
1486.791	0.0	1463546	DISTRACT_START	n/a	n/a	n/a	n/a	-999	3	[0, 0, 0]	n/a	catFR1	1	R1286J
1486.791	0.012	1463546	START	n/a	n/a	n/a	n/a	-999	3	[-999, -999, -999]	n/a	catFR1	1	R1286J
1486.803	12.252	1463558	PROB	12.214	n/a	n/a	n/a	-999	3	[4, 9, 8]	21.0	catFR1	1	R1286J
1499.055	7.218	1475810	PROB	7.19	n/a	n/a	n/a	-999	3	[3, 4, 2]	9.0	catFR1	1	R1286J
1506.273	5.343	1483027	PROB	5.343	n/a	n/a	n/a	-999	3	[6, 2, 4]	12.0	catFR1	1	R1286J
1511.616	0.009	1488370	STOP	n/a	n/a	n/a	n/a	-999	3	[-999, -999, -999]	n/a	catFR1	1	R1286J
1511.625	0.65	1488379	DISTRACT_END	n/a	n/a	n/a	n/a	-999	3	[0, 0, 0]	n/a	catFR1	1	R1286J
1512.275	0.516	1489029	RETRIEVAL_ORIENT	n/a	n/a	n/a	n/a	-999	3	[0, 0, 0]	n/a	catFR1	1	R1286J
1512.791	2.089	1489545	REC_START	n/a	n/a	n/a	n/a	-999	3	[0, 0, 0]	n/a	catFR1	1	R1286J
1514.88	1.0	1491634	REC_WORD_VV	2.089	n/a	<>	n/a	-999	3	[0, 0, 0]	n/a	catFR1	1	R1286J
1515.88	3.159	1492634	REC_WORD_VV	3.089	n/a	<>	n/a	-999	3	[0, 0, 0]	n/a	catFR1	1	R1286J
1519.039	1.42	1495793	REC_WORD	6.248	n/a	CARNATION	Flowers	1	3	[0, 0, 0]	n/a	catFR1	1	R1286J
1520.459	3.688	1497213	REC_WORD	7.668	n/a	VIOLET	Flowers	2	3	[0, 0, 0]	n/a	catFR1	1	R1286J
1524.147	1.72	1500901	REC_WORD	11.356	n/a	ERASER	OfficeSupplies	12	3	[0, 0, 0]	n/a	catFR1	1	R1286J
1525.867	6.662	1502621	REC_WORD	13.076	n/a	SHRIMP	OceanAnimals	3	3	[0, 0, 0]	n/a	catFR1	1	R1286J
1532.529	10.274	1509282	REC_WORD	19.738	n/a	ERASER	OfficeSupplies	12	3	[0, 0, 0]	n/a	catFR1	1	R1286J
1542.803	2.677	1519556	REC_END	n/a	n/a	n/a	n/a	-999	3	[0, 0, 0]	n/a	catFR1	1	R1286J
1545.48	0.0	1522233	TRIAL	n/a	n/a	n/a	n/a	-999	4	[0, 0, 0]	n/a	catFR1	1	R1286J
1545.48	10.0	1522233	COUNTDOWN_START	n/a	n/a	n/a	n/a	-999	4	[0, 0, 0]	n/a	catFR1	1	R1286J
1555.908	0.006	1532661	COUNTDOWN_END	n/a	n/a	n/a	n/a	-999	4	[0, 0, 0]	n/a	catFR1	1	R1286J
1555.914	1.6	1532667	ORIENT	n/a	n/a	n/a	n/a	-999	4	[0, 0, 0]	n/a	catFR1	1	R1286J
1557.532	2.216	1534285	ORIENT_OFF	n/a	n/a	n/a	n/a	-999	4	[0, 0, 0]	n/a	catFR1	1	R1286J
1559.748	1.6	1536500	WORD	n/a	wordpools/wordpool_categorized_EN.txt	FINCH	Birds	1	4	[0, 0, 0]	n/a	catFR1	1	R1286J
1561.366	0.883	1538118	WORD_OFF	n/a	n/a	FINCH	n/a	1	4	[0, 0, 0]	n/a	catFR1	1	R1286J
1562.249	1.6	1539001	WORD	n/a	wordpools/wordpool_categorized_EN.txt	PIGEON	Birds	2	4	[0, 0, 0]	n/a	catFR1	1	R1286J
1563.866	0.95	1540618	WORD_OFF	n/a	n/a	PIGEON	n/a	2	4	[0, 0, 0]	n/a	catFR1	1	R1286J
1564.816	1.6	1541568	WORD	n/a	wordpools/wordpool_categorized_EN.txt	LILAC	Flowers	3	4	[0, 0, 0]	n/a	catFR1	1	R1286J
1566.434	0.866	1543186	WORD_OFF	n/a	n/a	LILAC	n/a	3	4	[0, 0, 0]	n/a	catFR1	1	R1286J
1567.3	1.6	1544052	WORD	n/a	wordpools/wordpool_categorized_EN.txt	TULIP	Flowers	4	4	[0, 0, 0]	n/a	catFR1	1	R1286J
1568.916	0.984	1545668	WORD_OFF	n/a	n/a	TULIP	n/a	4	4	[0, 0, 0]	n/a	catFR1	1	R1286J
1569.9	1.6	1546652	WORD	n/a	wordpools/wordpool_categorized_EN.txt	ELEPHANT	Zoo	5	4	[0, 0, 0]	n/a	catFR1	1	R1286J
1571.518	0.817	1548270	WORD_OFF	n/a	n/a	ELEPHANT	n/a	5	4	[0, 0, 0]	n/a	catFR1	1	R1286J
1572.335	1.6	1549087	WORD	n/a	wordpools/wordpool_categorized_EN.txt	TIGER	Zoo	6	4	[0, 0, 0]	n/a	catFR1	1	R1286J
1573.951	0.85	1550703	WORD_OFF	n/a	n/a	TIGER	n/a	6	4	[0, 0, 0]	n/a	catFR1	1	R1286J
1574.801	1.6	1551553	WORD	n/a	wordpools/wordpool_categorized_EN.txt	ROSE	Flowers	7	4	[0, 0, 0]	n/a	catFR1	1	R1286J
1576.419	0.983	1553171	WORD_OFF	n/a	n/a	ROSE	n/a	7	4	[0, 0, 0]	n/a	catFR1	1	R1286J
1577.402	1.6	1554154	WORD	n/a	wordpools/wordpool_categorized_EN.txt	DAISY	Flowers	8	4	[0, 0, 0]	n/a	catFR1	1	R1286J
1579.018	0.95	1555770	WORD_OFF	n/a	n/a	DAISY	n/a	8	4	[0, 0, 0]	n/a	catFR1	1	R1286J
1579.968	1.6	1556720	WORD	n/a	wordpools/wordpool_categorized_EN.txt	HAWK	Birds	9	4	[0, 0, 0]	n/a	catFR1	1	R1286J
1581.586	0.8	1558338	WORD_OFF	n/a	n/a	HAWK	n/a	9	4	[0, 0, 0]	n/a	catFR1	1	R1286J
1582.386	1.6	1559138	WORD	n/a	wordpools/wordpool_categorized_EN.txt	DUCK	Birds	10	4	[0, 0, 0]	n/a	catFR1	1	R1286J
1584.002	0.917	1560754	WORD_OFF	n/a	n/a	DUCK	n/a	10	4	[0, 0, 0]	n/a	catFR1	1	R1286J
1584.919	1.6	1561671	WORD	n/a	wordpools/wordpool_categorized_EN.txt	GORILLA	Zoo	11	4	[0, 0, 0]	n/a	catFR1	1	R1286J
1586.52	0.967	1563272	WORD_OFF	n/a	n/a	GORILLA	n/a	11	4	[0, 0, 0]	n/a	catFR1	1	R1286J
1587.487	1.6	1564239	WORD	n/a	wordpools/wordpool_categorized_EN.txt	LION	Zoo	12	4	[0, 0, 0]	n/a	catFR1	1	R1286J
1589.103	0.0	1565855	ENCODING_END	n/a	n/a	n/a	n/a	-999	4	[0, 0, 0]	n/a	catFR1	1	R1286J
1589.103	0.072	1565855	WORD_OFF	n/a	n/a	LION	n/a	12	4	[0, 0, 0]	n/a	catFR1	1	R1286J
1589.175	0.0	1565926	DISTRACT_START	n/a	n/a	n/a	n/a	-999	4	[0, 0, 0]	n/a	catFR1	1	R1286J
1589.175	0.011	1565926	START	n/a	n/a	n/a	n/a	-999	4	[-999, -999, -999]	n/a	catFR1	1	R1286J
1589.186	5.718	1565937	PROB	5.68	n/a	n/a	n/a	-999	4	[7, 2, 9]	18.0	catFR1	1	R1286J
1594.904	7.285	1571655	PROB	7.253	n/a	n/a	n/a	-999	4	[6, 1, 8]	15.0	catFR1	1	R1286J
1602.189	4.717	1578940	PROB	4.686	n/a	n/a	n/a	-999	4	[2, 1, 4]	7.0	catFR1	1	R1286J
1606.906	4.699	1583657	PROB	4.699	n/a	n/a	n/a	-999	4	[4, 8, 3]	15.0	catFR1	1	R1286J
1611.605	0.02	1588356	STOP	n/a	n/a	n/a	n/a	-999	4	[-999, -999, -999]	n/a	catFR1	1	R1286J
1611.625	0.599	1588376	DISTRACT_END	n/a	n/a	n/a	n/a	-999	4	[0, 0, 0]	n/a	catFR1	1	R1286J
1612.224	0.517	1588975	RETRIEVAL_ORIENT	n/a	n/a	n/a	n/a	-999	4	[0, 0, 0]	n/a	catFR1	1	R1286J
1612.741	3.164	1589492	REC_START	n/a	n/a	n/a	n/a	-999	4	[0, 0, 0]	n/a	catFR1	1	R1286J
1615.905	0.761	1592656	REC_WORD	3.164	n/a	CARNATION	n/a	-999	4	[0, 0, 0]	n/a	catFR1	1	R1286J
1616.666	1.97	1593417	REC_WORD	3.925	n/a	VIOLET	n/a	-999	4	[0, 0, 0]	n/a	catFR1	1	R1286J
1618.636	1.195	1595387	REC_WORD	5.895	n/a	SHRIMP	n/a	-999	4	[0, 0, 0]	n/a	catFR1	1	R1286J
1619.831	5.457	1596581	REC_WORD	7.09	n/a	OCTOPUS	n/a	-999	4	[0, 0, 0]	n/a	catFR1	1	R1286J
1625.288	14.885	1602038	REC_WORD	12.547	n/a	ERASER	n/a	-999	4	[0, 0, 0]	n/a	catFR1	1	R1286J
1640.173	2.579	1616923	REC_WORD	27.432	n/a	FINCH	Birds	1	4	[0, 0, 0]	n/a	catFR1	1	R1286J
1642.752	2.127	1619502	REC_END	n/a	n/a	n/a	n/a	-999	4	[0, 0, 0]	n/a	catFR1	1	R1286J
1644.879	0.0	1621629	TRIAL	n/a	n/a	n/a	n/a	-999	5	[0, 0, 0]	n/a	catFR1	1	R1286J
1644.879	10.0	1621629	COUNTDOWN_START	n/a	n/a	n/a	n/a	-999	5	[0, 0, 0]	n/a	catFR1	1	R1286J
1655.307	0.008	1632056	COUNTDOWN_END	n/a	n/a	n/a	n/a	-999	5	[0, 0, 0]	n/a	catFR1	1	R1286J
1655.315	1.6	1632064	ORIENT	n/a	n/a	n/a	n/a	-999	5	[0, 0, 0]	n/a	catFR1	1	R1286J
1656.931	2.084	1633680	ORIENT_OFF	n/a	n/a	n/a	n/a	-999	5	[0, 0, 0]	n/a	catFR1	1	R1286J
1659.015	1.6	1635764	WORD	n/a	wordpools/wordpool_categorized_EN.txt	DOVE	Birds	1	5	[0, 0, 0]	n/a	catFR1	1	R1286J
1660.633	0.933	1637382	WORD_OFF	n/a	n/a	DOVE	n/a	1	5	[0, 0, 0]	n/a	catFR1	1	R1286J
1661.566	1.6	1638315	WORD	n/a	wordpools/wordpool_categorized_EN.txt	CARDINAL	Birds	2	5	[0, 0, 0]	n/a	catFR1	1	R1286J
1663.182	0.867	1639931	WORD_OFF	n/a	n/a	CARDINAL	n/a	2	5	[0, 0, 0]	n/a	catFR1	1	R1286J
1664.049	1.6	1640798	WORD	n/a	wordpools/wordpool_categorized_EN.txt	SHOES	Clothing	3	5	[0, 0, 0]	n/a	catFR1	1	R1286J
1665.666	0.768	1642415	WORD_OFF	n/a	n/a	SHOES	n/a	3	5	[0, 0, 0]	n/a	catFR1	1	R1286J
1666.434	1.6	1643183	WORD	n/a	wordpools/wordpool_categorized_EN.txt	JEANS	Clothing	4	5	[0, 0, 0]	n/a	catFR1	1	R1286J
1668.05	0.883	1644799	WORD_OFF	n/a	n/a	JEANS	n/a	4	5	[0, 0, 0]	n/a	catFR1	1	R1286J
1668.933	1.6	1645682	WORD	n/a	wordpools/wordpool_categorized_EN.txt	WHALE	OceanAnimals	5	5	[0, 0, 0]	n/a	catFR1	1	R1286J
1670.551	0.85	1647300	WORD_OFF	n/a	n/a	WHALE	n/a	5	5	[0, 0, 0]	n/a	catFR1	1	R1286J
1671.401	1.6	1648150	WORD	n/a	wordpools/wordpool_categorized_EN.txt	OYSTER	OceanAnimals	6	5	[0, 0, 0]	n/a	catFR1	1	R1286J
1673.017	0.834	1649766	WORD_OFF	n/a	n/a	OYSTER	n/a	6	5	[0, 0, 0]	n/a	catFR1	1	R1286J
1673.851	1.6	1650600	WORD	n/a	wordpools/wordpool_categorized_EN.txt	SHORTS	Clothing	7	5	[0, 0, 0]	n/a	catFR1	1	R1286J
1675.469	0.9	1652218	WORD_OFF	n/a	n/a	SHORTS	n/a	7	5	[0, 0, 0]	n/a	catFR1	1	R1286J
1676.369	1.6	1653118	WORD	n/a	wordpools/wordpool_categorized_EN.txt	DRESS	Clothing	8	5	[0, 0, 0]	n/a	catFR1	1	R1286J
1677.985	0.933	1654733	WORD_OFF	n/a	n/a	DRESS	n/a	8	5	[0, 0, 0]	n/a	catFR1	1	R1286J
1678.918	1.6	1655666	WORD	n/a	wordpools/wordpool_categorized_EN.txt	BLUEBIRD	Birds	9	5	[0, 0, 0]	n/a	catFR1	1	R1286J
1680.536	0.9	1657284	WORD_OFF	n/a	n/a	BLUEBIRD	n/a	9	5	[0, 0, 0]	n/a	catFR1	1	R1286J
1681.436	1.6	1658184	WORD	n/a	wordpools/wordpool_categorized_EN.txt	ROBIN	Birds	10	5	[0, 0, 0]	n/a	catFR1	1	R1286J
1683.052	0.967	1659800	WORD_OFF	n/a	n/a	ROBIN	n/a	10	5	[0, 0, 0]	n/a	catFR1	1	R1286J
1684.019	1.6	1660767	WORD	n/a	wordpools/wordpool_categorized_EN.txt	CRAB	OceanAnimals	11	5	[0, 0, 0]	n/a	catFR1	1	R1286J
1685.637	0.834	1662385	WORD_OFF	n/a	n/a	CRAB	n/a	11	5	[0, 0, 0]	n/a	catFR1	1	R1286J
1686.471	1.6	1663219	WORD	n/a	wordpools/wordpool_categorized_EN.txt	JELLYFISH	OceanAnimals	12	5	[0, 0, 0]	n/a	catFR1	1	R1286J
1688.086	0.001	1664834	WORD_OFF	n/a	n/a	JELLYFISH	n/a	12	5	[0, 0, 0]	n/a	catFR1	1	R1286J
1688.087	0.1	1664835	ENCODING_END	n/a	n/a	n/a	n/a	-999	5	[0, 0, 0]	n/a	catFR1	1	R1286J
1688.187	0.0	1664935	DISTRACT_START	n/a	n/a	n/a	n/a	-999	5	[0, 0, 0]	n/a	catFR1	1	R1286J
1688.187	0.016	1664935	START	n/a	n/a	n/a	n/a	-999	5	[-999, -999, -999]	n/a	catFR1	1	R1286J
1688.203	8.035	1664951	PROB	7.999	n/a	n/a	n/a	-999	5	[2, 6, 7]	15.0	catFR1	1	R1286J
1696.238	5.068	1672986	PROB	5.037	n/a	n/a	n/a	-999	5	[1, 7, 2]	10.0	catFR1	1	R1286J
1701.306	5.517	1678054	PROB	5.487	n/a	n/a	n/a	-999	5	[5, 3, 9]	17.0	catFR1	1	R1286J
1706.823	5.37	1683571	PROB	5.37	n/a	n/a	n/a	-999	5	[7, 1, 6]	14.0	catFR1	1	R1286J
1712.193	0.014	1688940	STOP	n/a	n/a	n/a	n/a	-999	5	[-999, -999, -999]	n/a	catFR1	1	R1286J
1712.207	0.667	1688954	DISTRACT_END	n/a	n/a	n/a	n/a	-999	5	[0, 0, 0]	n/a	catFR1	1	R1286J
1712.874	0.518	1689621	RETRIEVAL_ORIENT	n/a	n/a	n/a	n/a	-999	5	[0, 0, 0]	n/a	catFR1	1	R1286J
1713.392	1.574	1690139	REC_START	n/a	n/a	n/a	n/a	-999	5	[0, 0, 0]	n/a	catFR1	1	R1286J
1714.966	1.12	1691713	REC_WORD	1.574	n/a	DOVE	Birds	1	5	[0, 0, 0]	n/a	catFR1	1	R1286J
1716.086	1.264	1692833	REC_WORD	2.694	n/a	CARDINAL	Birds	2	5	[0, 0, 0]	n/a	catFR1	1	R1286J
1717.35	1.285	1694097	REC_WORD	3.958	n/a	SHOES	Clothing	3	5	[0, 0, 0]	n/a	catFR1	1	R1286J
1718.635	1.59	1695382	REC_WORD	5.243	n/a	JEANS	Clothing	4	5	[0, 0, 0]	n/a	catFR1	1	R1286J
1720.225	1.233	1696972	REC_WORD	6.833	n/a	CRAB	OceanAnimals	11	5	[0, 0, 0]	n/a	catFR1	1	R1286J
1721.458	21.945	1698205	REC_WORD	8.066	n/a	JELLYFISH	OceanAnimals	12	5	[0, 0, 0]	n/a	catFR1	1	R1286J
1743.403	0.776	1720149	REC_END	n/a	n/a	n/a	n/a	-999	5	[0, 0, 0]	n/a	catFR1	1	R1286J
1744.179	0.0	1720925	TRIAL	n/a	n/a	n/a	n/a	-999	6	[0, 0, 0]	n/a	catFR1	1	R1286J
1744.179	10.0	1720925	COUNTDOWN_START	n/a	n/a	n/a	n/a	-999	6	[0, 0, 0]	n/a	catFR1	1	R1286J
1754.607	0.008	1731353	COUNTDOWN_END	n/a	n/a	n/a	n/a	-999	6	[0, 0, 0]	n/a	catFR1	1	R1286J
1754.615	1.6	1731361	ORIENT	n/a	n/a	n/a	n/a	-999	6	[0, 0, 0]	n/a	catFR1	1	R1286J
1756.231	2.001	1732977	ORIENT_OFF	n/a	n/a	n/a	n/a	-999	6	[0, 0, 0]	n/a	catFR1	1	R1286J
1758.232	1.6	1734978	WORD	n/a	wordpools/wordpool_categorized_EN.txt	HUMIDITY	Weather	1	6	[0, 0, 0]	n/a	catFR1	1	R1286J
1759.849	0.983	1736595	WORD_OFF	n/a	n/a	HUMIDITY	n/a	1	6	[0, 0, 0]	n/a	catFR1	1	R1286J
1760.832	1.6	1737578	WORD	n/a	wordpools/wordpool_categorized_EN.txt	FOG	Weather	2	6	[0, 0, 0]	n/a	catFR1	1	R1286J
1762.45	0.95	1739196	WORD_OFF	n/a	n/a	FOG	n/a	2	6	[0, 0, 0]	n/a	catFR1	1	R1286J
1763.4	1.6	1740146	WORD	n/a	wordpools/wordpool_categorized_EN.txt	SPOON	KitchenTools	3	6	[0, 0, 0]	n/a	catFR1	1	R1286J
1765.016	0.934	1741762	WORD_OFF	n/a	n/a	SPOON	n/a	3	6	[0, 0, 0]	n/a	catFR1	1	R1286J
1765.95	1.6	1742696	WORD	n/a	wordpools/wordpool_categorized_EN.txt	TONGS	KitchenTools	4	6	[0, 0, 0]	n/a	catFR1	1	R1286J
1767.568	0.966	1744313	WORD_OFF	n/a	n/a	TONGS	n/a	4	6	[0, 0, 0]	n/a	catFR1	1	R1286J
1768.534	1.6	1745279	WORD	n/a	wordpools/wordpool_categorized_EN.txt	ORANGUTAN	Zoo	5	6	[0, 0, 0]	n/a	catFR1	1	R1286J
1770.15	0.934	1746895	WORD_OFF	n/a	n/a	ORANGUTAN	n/a	5	6	[0, 0, 0]	n/a	catFR1	1	R1286J
1771.084	1.6	1747829	WORD	n/a	wordpools/wordpool_categorized_EN.txt	MONKEY	Zoo	6	6	[0, 0, 0]	n/a	catFR1	1	R1286J
1772.701	0.967	1749446	WORD_OFF	n/a	n/a	MONKEY	n/a	6	6	[0, 0, 0]	n/a	catFR1	1	R1286J
1773.668	1.6	1750413	WORD	n/a	wordpools/wordpool_categorized_EN.txt	KNIFE	KitchenTools	7	6	[0, 0, 0]	n/a	catFR1	1	R1286J
1775.286	0.782	1752031	WORD_OFF	n/a	n/a	KNIFE	n/a	7	6	[0, 0, 0]	n/a	catFR1	1	R1286J
1776.068	1.6	1752813	WORD	n/a	wordpools/wordpool_categorized_EN.txt	LADLE	KitchenTools	8	6	[0, 0, 0]	n/a	catFR1	1	R1286J
1777.685	0.934	1754430	WORD_OFF	n/a	n/a	LADLE	n/a	8	6	[0, 0, 0]	n/a	catFR1	1	R1286J
1778.619	1.6	1755364	WORD	n/a	wordpools/wordpool_categorized_EN.txt	TORNADO	Weather	9	6	[0, 0, 0]	n/a	catFR1	1	R1286J
1780.235	0.884	1756980	WORD_OFF	n/a	n/a	TORNADO	n/a	9	6	[0, 0, 0]	n/a	catFR1	1	R1286J
1781.119	1.6	1757864	WORD	n/a	wordpools/wordpool_categorized_EN.txt	THUNDER	Weather	10	6	[0, 0, 0]	n/a	catFR1	1	R1286J
1782.736	0.868	1759481	WORD_OFF	n/a	n/a	THUNDER	n/a	10	6	[0, 0, 0]	n/a	catFR1	1	R1286J
1783.604	1.6	1760349	WORD	n/a	wordpools/wordpool_categorized_EN.txt	CHIMPANZEE	Zoo	11	6	[0, 0, 0]	n/a	catFR1	1	R1286J
1785.22	0.816	1761965	WORD_OFF	n/a	n/a	CHIMPANZEE	n/a	11	6	[0, 0, 0]	n/a	catFR1	1	R1286J
1786.036	1.6	1762781	WORD	n/a	wordpools/wordpool_categorized_EN.txt	ZEBRA	Zoo	12	6	[0, 0, 0]	n/a	catFR1	1	R1286J
1787.654	0.0	1764399	ENCODING_END	n/a	n/a	n/a	n/a	-999	6	[0, 0, 0]	n/a	catFR1	1	R1286J
1787.654	0.069	1764399	WORD_OFF	n/a	n/a	ZEBRA	n/a	12	6	[0, 0, 0]	n/a	catFR1	1	R1286J
1787.723	0.0	1764468	DISTRACT_START	n/a	n/a	n/a	n/a	-999	6	[0, 0, 0]	n/a	catFR1	1	R1286J
1787.723	0.014	1764468	START	n/a	n/a	n/a	n/a	-999	6	[-999, -999, -999]	n/a	catFR1	1	R1286J
1787.737	8.869	1764482	PROB	8.831	n/a	n/a	n/a	-999	6	[7, 6, 4]	17.0	catFR1	1	R1286J
1796.606	2.967	1773350	PROB	2.93	n/a	n/a	n/a	-999	6	[2, 2, 2]	6.0	catFR1	1	R1286J
1799.573	9.038	1776317	PROB	9.038	n/a	n/a	n/a	-999	6	[7, 6, 4]	17.0	catFR1	1	R1286J
1808.611	0.014	1785355	STOP	n/a	n/a	n/a	n/a	-999	6	[-999, -999, -999]	n/a	catFR1	1	R1286J
1808.625	0.633	1785369	DISTRACT_END	n/a	n/a	n/a	n/a	-999	6	[0, 0, 0]	n/a	catFR1	1	R1286J
1809.258	0.517	1786002	RETRIEVAL_ORIENT	n/a	n/a	n/a	n/a	-999	6	[0, 0, 0]	n/a	catFR1	1	R1286J
1809.775	1.962	1786519	REC_START	n/a	n/a	n/a	n/a	-999	6	[0, 0, 0]	n/a	catFR1	1	R1286J
1811.737	1.164	1788481	REC_WORD	1.962	n/a	FOG	Weather	2	6	[0, 0, 0]	n/a	catFR1	1	R1286J
1812.901	1.755	1789645	REC_WORD	3.126	n/a	SPOON	KitchenTools	3	6	[0, 0, 0]	n/a	catFR1	1	R1286J
1814.656	6.706	1791400	REC_WORD	4.881	n/a	TURTLE	n/a	-999	6	[0, 0, 0]	n/a	catFR1	1	R1286J
1821.362	4.238	1798106	REC_WORD	11.587	n/a	CHIMPANZEE	Zoo	11	6	[0, 0, 0]	n/a	catFR1	1	R1286J
1825.6	12.567	1802343	REC_WORD	15.825	n/a	MONKEY	Zoo	6	6	[0, 0, 0]	n/a	catFR1	1	R1286J
1838.167	1.617	1814910	REC_WORD	28.392	n/a	TURTLE	n/a	-999	6	[0, 0, 0]	n/a	catFR1	1	R1286J
1839.784	0.912	1816527	REC_END	n/a	n/a	n/a	n/a	-999	6	[0, 0, 0]	n/a	catFR1	1	R1286J
1840.696	0.0	1817439	TRIAL	n/a	n/a	n/a	n/a	-999	7	[0, 0, 0]	n/a	catFR1	1	R1286J
1840.696	10.0	1817439	COUNTDOWN_START	n/a	n/a	n/a	n/a	-999	7	[0, 0, 0]	n/a	catFR1	1	R1286J
1851.124	0.007	1827867	COUNTDOWN_END	n/a	n/a	n/a	n/a	-999	7	[0, 0, 0]	n/a	catFR1	1	R1286J
1851.131	1.6	1827874	ORIENT	n/a	n/a	n/a	n/a	-999	7	[0, 0, 0]	n/a	catFR1	1	R1286J
1852.748	1.818	1829491	ORIENT_OFF	n/a	n/a	n/a	n/a	-999	7	[0, 0, 0]	n/a	catFR1	1	R1286J
1854.566	1.6	1831309	WORD	n/a	wordpools/wordpool_categorized_EN.txt	BLENDER	Appliances	1	7	[0, 0, 0]	n/a	catFR1	1	R1286J
1856.182	0.866	1832924	WORD_OFF	n/a	n/a	BLENDER	n/a	1	7	[0, 0, 0]	n/a	catFR1	1	R1286J
1857.048	1.6	1833790	WORD	n/a	wordpools/wordpool_categorized_EN.txt	DISHWASHER	Appliances	2	7	[0, 0, 0]	n/a	catFR1	1	R1286J
1858.649	0.884	1835391	WORD_OFF	n/a	n/a	DISHWASHER	n/a	2	7	[0, 0, 0]	n/a	catFR1	1	R1286J
1859.533	1.6	1836275	WORD	n/a	wordpools/wordpool_categorized_EN.txt	TAPE	OfficeSupplies	3	7	[0, 0, 0]	n/a	catFR1	1	R1286J
1861.149	0.834	1837891	WORD_OFF	n/a	n/a	TAPE	n/a	3	7	[0, 0, 0]	n/a	catFR1	1	R1286J
1861.983	1.6	1838725	WORD	n/a	wordpools/wordpool_categorized_EN.txt	PAPER	OfficeSupplies	4	7	[0, 0, 0]	n/a	catFR1	1	R1286J
1863.601	0.849	1840343	WORD_OFF	n/a	n/a	PAPER	n/a	4	7	[0, 0, 0]	n/a	catFR1	1	R1286J
1864.45	1.6	1841192	WORD	n/a	wordpools/wordpool_categorized_EN.txt	GOOSE	Birds	5	7	[0, 0, 0]	n/a	catFR1	1	R1286J
1866.067	0.85	1842809	WORD_OFF	n/a	n/a	GOOSE	n/a	5	7	[0, 0, 0]	n/a	catFR1	1	R1286J
1866.917	1.6	1843659	WORD	n/a	wordpools/wordpool_categorized_EN.txt	CROW	Birds	6	7	[0, 0, 0]	n/a	catFR1	1	R1286J
1868.535	0.95	1845277	WORD_OFF	n/a	n/a	CROW	n/a	6	7	[0, 0, 0]	n/a	catFR1	1	R1286J
1869.485	1.6	1846227	WORD	n/a	wordpools/wordpool_categorized_EN.txt	STOVE	Appliances	7	7	[0, 0, 0]	n/a	catFR1	1	R1286J
1871.101	0.867	1847843	WORD_OFF	n/a	n/a	STOVE	n/a	7	7	[0, 0, 0]	n/a	catFR1	1	R1286J
1871.968	1.6	1848710	WORD	n/a	wordpools/wordpool_categorized_EN.txt	MIXER	Appliances	8	7	[0, 0, 0]	n/a	catFR1	1	R1286J
1873.585	0.867	1850327	WORD_OFF	n/a	n/a	MIXER	n/a	8	7	[0, 0, 0]	n/a	catFR1	1	R1286J
1874.452	1.6	1851194	WORD	n/a	wordpools/wordpool_categorized_EN.txt	NOTEBOOK	OfficeSupplies	9	7	[0, 0, 0]	n/a	catFR1	1	R1286J
1876.068	0.834	1852810	WORD_OFF	n/a	n/a	NOTEBOOK	n/a	9	7	[0, 0, 0]	n/a	catFR1	1	R1286J
1876.902	1.6	1853644	WORD	n/a	wordpools/wordpool_categorized_EN.txt	BINDER	OfficeSupplies	10	7	[0, 0, 0]	n/a	catFR1	1	R1286J
1878.52	0.767	1855262	WORD_OFF	n/a	n/a	BINDER	n/a	10	7	[0, 0, 0]	n/a	catFR1	1	R1286J
1879.287	1.6	1856029	WORD	n/a	wordpools/wordpool_categorized_EN.txt	SPARROW	Birds	11	7	[0, 0, 0]	n/a	catFR1	1	R1286J
1880.902	0.884	1857644	WORD_OFF	n/a	n/a	SPARROW	n/a	11	7	[0, 0, 0]	n/a	catFR1	1	R1286J
1881.786	1.6	1858528	WORD	n/a	wordpools/wordpool_categorized_EN.txt	SEAGULL	Birds	12	7	[0, 0, 0]	n/a	catFR1	1	R1286J
1883.404	0.0	1860146	ENCODING_END	n/a	n/a	n/a	n/a	-999	7	[0, 0, 0]	n/a	catFR1	1	R1286J
1883.404	0.073	1860146	WORD_OFF	n/a	n/a	SEAGULL	n/a	12	7	[0, 0, 0]	n/a	catFR1	1	R1286J
1883.477	0.0	1860219	DISTRACT_START	n/a	n/a	n/a	n/a	-999	7	[0, 0, 0]	n/a	catFR1	1	R1286J
1883.477	0.01	1860219	START	n/a	n/a	n/a	n/a	-999	7	[-999, -999, -999]	n/a	catFR1	1	R1286J
1883.487	6.75	1860229	PROB	6.721	n/a	n/a	n/a	-999	7	[2, 9, 2]	13.0	catFR1	1	R1286J
1890.237	5.369	1866978	PROB	5.339	n/a	n/a	n/a	-999	7	[3, 7, 9]	19.0	catFR1	1	R1286J
1895.606	5.818	1872347	PROB	5.784	n/a	n/a	n/a	-999	7	[3, 5, 6]	14.0	catFR1	1	R1286J
1901.424	3.055	1878165	PROB	3.055	n/a	n/a	n/a	-999	7	[6, 6, 1]	13.0	catFR1	1	R1286J
1904.479	0.012	1881220	STOP	n/a	n/a	n/a	n/a	-999	7	[-999, -999, -999]	n/a	catFR1	1	R1286J
1904.491	0.532	1881232	DISTRACT_END	n/a	n/a	n/a	n/a	-999	7	[0, 0, 0]	n/a	catFR1	1	R1286J
1905.023	0.502	1881764	RETRIEVAL_ORIENT	n/a	n/a	n/a	n/a	-999	7	[0, 0, 0]	n/a	catFR1	1	R1286J
1905.525	1.913	1882266	REC_START	n/a	n/a	n/a	n/a	-999	7	[0, 0, 0]	n/a	catFR1	1	R1286J
1907.438	1.089	1884179	REC_WORD	1.913	n/a	PAPER	OfficeSupplies	4	7	[0, 0, 0]	n/a	catFR1	1	R1286J
1908.527	1.124	1885268	REC_WORD	3.002	n/a	CROW	Birds	6	7	[0, 0, 0]	n/a	catFR1	1	R1286J
1909.651	1.256	1886392	REC_WORD	4.126	n/a	STOVE	Appliances	7	7	[0, 0, 0]	n/a	catFR1	1	R1286J
1910.907	1.567	1887648	REC_WORD	5.382	n/a	MIXER	Appliances	8	7	[0, 0, 0]	n/a	catFR1	1	R1286J
1912.474	3.362	1889215	REC_WORD	6.949	n/a	BLENDER	Appliances	1	7	[0, 0, 0]	n/a	catFR1	1	R1286J
1915.836	19.701	1892576	REC_WORD	10.311	n/a	TIMER	n/a	-999	7	[0, 0, 0]	n/a	catFR1	1	R1286J
1935.537	2.458	1912277	REC_END	n/a	n/a	n/a	n/a	-999	7	[0, 0, 0]	n/a	catFR1	1	R1286J
1937.995	0.0	1914735	TRIAL	n/a	n/a	n/a	n/a	-999	8	[0, 0, 0]	n/a	catFR1	1	R1286J
1937.995	10.0	1914735	COUNTDOWN_START	n/a	n/a	n/a	n/a	-999	8	[0, 0, 0]	n/a	catFR1	1	R1286J
1948.423	0.009	1925162	COUNTDOWN_END	n/a	n/a	n/a	n/a	-999	8	[0, 0, 0]	n/a	catFR1	1	R1286J
1948.432	1.6	1925171	ORIENT	n/a	n/a	n/a	n/a	-999	8	[0, 0, 0]	n/a	catFR1	1	R1286J
1950.047	1.851	1926786	ORIENT_OFF	n/a	n/a	n/a	n/a	-999	8	[0, 0, 0]	n/a	catFR1	1	R1286J
1951.898	1.6	1928637	WORD	n/a	wordpools/wordpool_categorized_EN.txt	BUTTERFLY	Insects	1	8	[0, 0, 0]	n/a	catFR1	1	R1286J
1953.516	0.95	1930255	WORD_OFF	n/a	n/a	BUTTERFLY	n/a	1	8	[0, 0, 0]	n/a	catFR1	1	R1286J
1954.466	1.6	1931205	WORD	n/a	wordpools/wordpool_categorized_EN.txt	ANT	Insects	2	8	[0, 0, 0]	n/a	catFR1	1	R1286J
1956.082	0.833	1932821	WORD_OFF	n/a	n/a	ANT	n/a	2	8	[0, 0, 0]	n/a	catFR1	1	R1286J
1956.915	1.6	1933654	WORD	n/a	wordpools/wordpool_categorized_EN.txt	EVERGREEN	Trees	3	8	[0, 0, 0]	n/a	catFR1	1	R1286J
1958.516	0.951	1935255	WORD_OFF	n/a	n/a	EVERGREEN	n/a	3	8	[0, 0, 0]	n/a	catFR1	1	R1286J
1959.467	1.6	1936206	WORD	n/a	wordpools/wordpool_categorized_EN.txt	ELM	Trees	4	8	[0, 0, 0]	n/a	catFR1	1	R1286J
1961.083	0.9	1937822	WORD_OFF	n/a	n/a	ELM	n/a	4	8	[0, 0, 0]	n/a	catFR1	1	R1286J
1961.983	1.6	1938722	WORD	n/a	wordpools/wordpool_categorized_EN.txt	JACKET	Clothing	5	8	[0, 0, 0]	n/a	catFR1	1	R1286J
1963.601	0.883	1940340	WORD_OFF	n/a	n/a	JACKET	n/a	5	8	[0, 0, 0]	n/a	catFR1	1	R1286J
1964.484	1.6	1941223	WORD	n/a	wordpools/wordpool_categorized_EN.txt	PANTS	Clothing	6	8	[0, 0, 0]	n/a	catFR1	1	R1286J
1966.1	0.85	1942839	WORD_OFF	n/a	n/a	PANTS	n/a	6	8	[0, 0, 0]	n/a	catFR1	1	R1286J
1966.95	1.6	1943689	WORD	n/a	wordpools/wordpool_categorized_EN.txt	SPRUCE	Trees	7	8	[0, 0, 0]	n/a	catFR1	1	R1286J
1968.568	0.967	1945307	WORD_OFF	n/a	n/a	SPRUCE	n/a	7	8	[0, 0, 0]	n/a	catFR1	1	R1286J
1969.535	1.6	1946274	WORD	n/a	wordpools/wordpool_categorized_EN.txt	BIRCH	Trees	8	8	[0, 0, 0]	n/a	catFR1	1	R1286J
1971.151	0.867	1947890	WORD_OFF	n/a	n/a	BIRCH	n/a	8	8	[0, 0, 0]	n/a	catFR1	1	R1286J
1972.018	1.6	1948757	WORD	n/a	wordpools/wordpool_categorized_EN.txt	LADYBUG	Insects	9	8	[0, 0, 0]	n/a	catFR1	1	R1286J
1973.636	0.833	1950374	WORD_OFF	n/a	n/a	LADYBUG	n/a	9	8	[0, 0, 0]	n/a	catFR1	1	R1286J
1974.469	1.6	1951207	WORD	n/a	wordpools/wordpool_categorized_EN.txt	BEE	Insects	10	8	[0, 0, 0]	n/a	catFR1	1	R1286J
1976.085	0.967	1952823	WORD_OFF	n/a	n/a	BEE	n/a	10	8	[0, 0, 0]	n/a	catFR1	1	R1286J
1977.052	1.6	1953790	WORD	n/a	wordpools/wordpool_categorized_EN.txt	BLOUSE	Clothing	11	8	[0, 0, 0]	n/a	catFR1	1	R1286J
1978.653	1.001	1955391	WORD_OFF	n/a	n/a	BLOUSE	n/a	11	8	[0, 0, 0]	n/a	catFR1	1	R1286J
1979.654	1.6	1956392	WORD	n/a	wordpools/wordpool_categorized_EN.txt	SHIRT	Clothing	12	8	[0, 0, 0]	n/a	catFR1	1	R1286J
1981.27	0.001	1958008	WORD_OFF	n/a	n/a	SHIRT	n/a	12	8	[0, 0, 0]	n/a	catFR1	1	R1286J
1981.271	0.098	1958009	ENCODING_END	n/a	n/a	n/a	n/a	-999	8	[0, 0, 0]	n/a	catFR1	1	R1286J
1981.369	0.0	1958107	DISTRACT_START	n/a	n/a	n/a	n/a	-999	8	[0, 0, 0]	n/a	catFR1	1	R1286J
1981.369	0.018	1958107	START	n/a	n/a	n/a	n/a	-999	8	[-999, -999, -999]	n/a	catFR1	1	R1286J
1981.387	9.451	1958125	PROB	9.419	n/a	n/a	n/a	-999	8	[6, 8, 2]	16.0	catFR1	1	R1286J
1990.838	6.435	1967576	PROB	6.406	n/a	n/a	n/a	-999	8	[3, 5, 7]	15.0	catFR1	1	R1286J
1997.273	4.491	1974011	PROB	4.491	n/a	n/a	n/a	-999	8	[1, 9, 1]	11.0	catFR1	1	R1286J
2001.764	0.009	1978502	STOP	n/a	n/a	n/a	n/a	-999	8	[-999, -999, -999]	n/a	catFR1	1	R1286J
2001.773	0.618	1978511	DISTRACT_END	n/a	n/a	n/a	n/a	-999	8	[0, 0, 0]	n/a	catFR1	1	R1286J
2002.391	0.516	1979129	RETRIEVAL_ORIENT	n/a	n/a	n/a	n/a	-999	8	[0, 0, 0]	n/a	catFR1	1	R1286J
2002.907	1.314	1979644	REC_START	n/a	n/a	n/a	n/a	-999	8	[0, 0, 0]	n/a	catFR1	1	R1286J
2004.221	1.524	1980958	REC_WORD	1.314	n/a	ANT	Insects	2	8	[0, 0, 0]	n/a	catFR1	1	R1286J
2005.745	2.398	1982482	REC_WORD	2.838	n/a	ELM	Trees	4	8	[0, 0, 0]	n/a	catFR1	1	R1286J
2008.143	1.794	1984880	REC_WORD	5.236	n/a	PANTS	Clothing	6	8	[0, 0, 0]	n/a	catFR1	1	R1286J
2009.937	2.171	1986674	REC_WORD	7.03	n/a	COAT	n/a	-999	8	[0, 0, 0]	n/a	catFR1	1	R1286J
2012.108	1.229	1988845	REC_WORD	9.201	n/a	SHIRT	Clothing	12	8	[0, 0, 0]	n/a	catFR1	1	R1286J
2013.337	19.58	1990074	REC_WORD	10.43	n/a	BLOUSE	Clothing	11	8	[0, 0, 0]	n/a	catFR1	1	R1286J
2032.917	1.379	2009653	REC_END	n/a	n/a	n/a	n/a	-999	8	[0, 0, 0]	n/a	catFR1	1	R1286J
2034.296	0.0	2011032	TRIAL	n/a	n/a	n/a	n/a	-999	9	[0, 0, 0]	n/a	catFR1	1	R1286J
2034.296	10.0	2011032	COUNTDOWN_START	n/a	n/a	n/a	n/a	-999	9	[0, 0, 0]	n/a	catFR1	1	R1286J
2044.724	0.006	2021460	COUNTDOWN_END	n/a	n/a	n/a	n/a	-999	9	[0, 0, 0]	n/a	catFR1	1	R1286J
2044.73	1.6	2021466	ORIENT	n/a	n/a	n/a	n/a	-999	9	[0, 0, 0]	n/a	catFR1	1	R1286J
2046.348	1.934	2023084	ORIENT_OFF	n/a	n/a	n/a	n/a	-999	9	[0, 0, 0]	n/a	catFR1	1	R1286J
2048.282	1.6	2025018	WORD	n/a	wordpools/wordpool_categorized_EN.txt	CLOUD	Weather	1	9	[0, 0, 0]	n/a	catFR1	1	R1286J
2049.898	0.816	2026634	WORD_OFF	n/a	n/a	CLOUD	n/a	1	9	[0, 0, 0]	n/a	catFR1	1	R1286J
2050.714	1.6	2027450	WORD	n/a	wordpools/wordpool_categorized_EN.txt	DRIZZLE	Weather	2	9	[0, 0, 0]	n/a	catFR1	1	R1286J
2052.332	0.934	2029068	WORD_OFF	n/a	n/a	DRIZZLE	n/a	2	9	[0, 0, 0]	n/a	catFR1	1	R1286J
2053.266	1.6	2030002	WORD	n/a	wordpools/wordpool_categorized_EN.txt	COBBLER	Desserts	3	9	[0, 0, 0]	n/a	catFR1	1	R1286J
2054.882	0.833	2031618	WORD_OFF	n/a	n/a	COBBLER	n/a	3	9	[0, 0, 0]	n/a	catFR1	1	R1286J
2055.715	1.6	2032451	WORD	n/a	wordpools/wordpool_categorized_EN.txt	PUDDING	Desserts	4	9	[0, 0, 0]	n/a	catFR1	1	R1286J
2057.333	0.816	2034069	WORD_OFF	n/a	n/a	PUDDING	n/a	4	9	[0, 0, 0]	n/a	catFR1	1	R1286J
2058.149	1.6	2034885	WORD	n/a	wordpools/wordpool_categorized_EN.txt	WINDOW	Building	5	9	[0, 0, 0]	n/a	catFR1	1	R1286J
2059.766	0.784	2036502	WORD_OFF	n/a	n/a	WINDOW	n/a	5	9	[0, 0, 0]	n/a	catFR1	1	R1286J
2060.55	1.6	2037286	WORD	n/a	wordpools/wordpool_categorized_EN.txt	WALL	Building	6	9	[0, 0, 0]	n/a	catFR1	1	R1286J
2062.166	0.95	2038901	WORD_OFF	n/a	n/a	WALL	n/a	6	9	[0, 0, 0]	n/a	catFR1	1	R1286J
2063.116	1.6	2039851	WORD	n/a	wordpools/wordpool_categorized_EN.txt	SNOW	Weather	7	9	[0, 0, 0]	n/a	catFR1	1	R1286J
2064.734	0.801	2041469	WORD_OFF	n/a	n/a	SNOW	n/a	7	9	[0, 0, 0]	n/a	catFR1	1	R1286J
2065.535	1.6	2042270	WORD	n/a	wordpools/wordpool_categorized_EN.txt	THUNDERSTORM	Weather	8	9	[0, 0, 0]	n/a	catFR1	1	R1286J
2067.151	0.983	2043886	WORD_OFF	n/a	n/a	THUNDERSTORM	n/a	8	9	[0, 0, 0]	n/a	catFR1	1	R1286J
2068.134	1.6	2044869	WORD	n/a	wordpools/wordpool_categorized_EN.txt	BROWNIES	Desserts	9	9	[0, 0, 0]	n/a	catFR1	1	R1286J
2069.751	0.95	2046486	WORD_OFF	n/a	n/a	BROWNIES	n/a	9	9	[0, 0, 0]	n/a	catFR1	1	R1286J
2070.701	1.6	2047436	WORD	n/a	wordpools/wordpool_categorized_EN.txt	CHEESECAKE	Desserts	10	9	[0, 0, 0]	n/a	catFR1	1	R1286J
2072.319	0.967	2049054	WORD_OFF	n/a	n/a	CHEESECAKE	n/a	10	9	[0, 0, 0]	n/a	catFR1	1	R1286J
2073.286	1.6	2050021	WORD	n/a	wordpools/wordpool_categorized_EN.txt	ATTIC	Building	11	9	[0, 0, 0]	n/a	catFR1	1	R1286J
2074.902	0.817	2051637	WORD_OFF	n/a	n/a	ATTIC	n/a	11	9	[0, 0, 0]	n/a	catFR1	1	R1286J
2075.719	1.6	2052454	WORD	n/a	wordpools/wordpool_categorized_EN.txt	FLOOR	Building	12	9	[0, 0, 0]	n/a	catFR1	1	R1286J
2077.337	0.0	2054072	WORD_OFF	n/a	n/a	FLOOR	n/a	12	9	[0, 0, 0]	n/a	catFR1	1	R1286J
2077.337	0.069	2054072	ENCODING_END	n/a	n/a	n/a	n/a	-999	9	[0, 0, 0]	n/a	catFR1	1	R1286J
2077.406	0.0	2054141	DISTRACT_START	n/a	n/a	n/a	n/a	-999	9	[0, 0, 0]	n/a	catFR1	1	R1286J
2077.406	0.014	2054141	START	n/a	n/a	n/a	n/a	-999	9	[-999, -999, -999]	n/a	catFR1	1	R1286J
2077.42	5.683	2054155	PROB	5.652	n/a	n/a	n/a	-999	9	[3, 5, 8]	16.0	catFR1	1	R1286J
2083.103	5.369	2059838	PROB	5.343	n/a	n/a	n/a	-999	9	[2, 5, 1]	8.0	catFR1	1	R1286J
2088.472	4.633	2065207	PROB	4.596	n/a	n/a	n/a	-999	9	[2, 3, 5]	11.0	catFR1	1	R1286J
2093.105	8.431	2069839	PROB	8.431	n/a	n/a	n/a	-999	9	[9, 7, 4]	20.0	catFR1	1	R1286J
2101.536	0.022	2078270	STOP	n/a	n/a	n/a	n/a	-999	9	[-999, -999, -999]	n/a	catFR1	1	R1286J
2101.558	0.515	2078292	DISTRACT_END	n/a	n/a	n/a	n/a	-999	9	[0, 0, 0]	n/a	catFR1	1	R1286J
2102.073	0.501	2078807	RETRIEVAL_ORIENT	n/a	n/a	n/a	n/a	-999	9	[0, 0, 0]	n/a	catFR1	1	R1286J
2102.574	1.882	2079308	REC_START	n/a	n/a	n/a	n/a	-999	9	[0, 0, 0]	n/a	catFR1	1	R1286J
2104.456	1.57	2081190	REC_WORD	1.882	n/a	WINDOW	Building	5	9	[0, 0, 0]	n/a	catFR1	1	R1286J
2106.026	1.359	2082760	REC_WORD	3.452	n/a	WALL	Building	6	9	[0, 0, 0]	n/a	catFR1	1	R1286J
2107.385	2.413	2084119	REC_WORD	4.811	n/a	CLOUD	Weather	1	9	[0, 0, 0]	n/a	catFR1	1	R1286J
2109.798	1.0	2086532	REC_WORD	7.224	n/a	THUNDER	n/a	-999	9	[0, 0, 0]	n/a	catFR1	1	R1286J
2110.798	3.719	2087532	REC_WORD_VV	8.224	n/a	<>	n/a	-999	9	[0, 0, 0]	n/a	catFR1	1	R1286J
2114.517	6.022	2091251	REC_WORD	11.943	n/a	ATTIC	Building	11	9	[0, 0, 0]	n/a	catFR1	1	R1286J
2120.539	7.987	2097273	REC_WORD_VV	17.965	n/a	<>	n/a	-999	9	[0, 0, 0]	n/a	catFR1	1	R1286J
2128.526	4.059	2105259	REC_WORD_VV	25.952	n/a	<>	n/a	-999	9	[0, 0, 0]	n/a	catFR1	1	R1286J
2132.585	1.995	2109318	REC_END	n/a	n/a	n/a	n/a	-999	9	[0, 0, 0]	n/a	catFR1	1	R1286J
2134.58	0.0	2111313	TRIAL	n/a	n/a	n/a	n/a	-999	10	[0, 0, 0]	n/a	catFR1	1	R1286J
2134.58	10.0	2111313	COUNTDOWN_START	n/a	n/a	n/a	n/a	-999	10	[0, 0, 0]	n/a	catFR1	1	R1286J
2145.008	0.006	2121741	COUNTDOWN_END	n/a	n/a	n/a	n/a	-999	10	[0, 0, 0]	n/a	catFR1	1	R1286J
2145.014	1.6	2121747	ORIENT	n/a	n/a	n/a	n/a	-999	10	[0, 0, 0]	n/a	catFR1	1	R1286J
2146.632	2.182	2123365	ORIENT_OFF	n/a	n/a	n/a	n/a	-999	10	[0, 0, 0]	n/a	catFR1	1	R1286J
2148.814	1.6	2125547	WORD	n/a	wordpools/wordpool_categorized_EN.txt	HURRICANE	Weather	1	10	[0, 0, 0]	n/a	catFR1	1	R1286J
2150.432	0.816	2127164	WORD_OFF	n/a	n/a	HURRICANE	n/a	1	10	[0, 0, 0]	n/a	catFR1	1	R1286J
2151.248	1.6	2127980	WORD	n/a	wordpools/wordpool_categorized_EN.txt	LIGHTNING	Weather	2	10	[0, 0, 0]	n/a	catFR1	1	R1286J
2152.865	0.817	2129597	WORD_OFF	n/a	n/a	LIGHTNING	n/a	2	10	[0, 0, 0]	n/a	catFR1	1	R1286J
2153.682	1.6	2130414	WORD	n/a	wordpools/wordpool_categorized_EN.txt	MAPLE	Trees	3	10	[0, 0, 0]	n/a	catFR1	1	R1286J
2155.3	0.882	2132032	WORD_OFF	n/a	n/a	MAPLE	n/a	3	10	[0, 0, 0]	n/a	catFR1	1	R1286J
2156.182	1.6	2132914	WORD	n/a	wordpools/wordpool_categorized_EN.txt	HICKORY	Trees	4	10	[0, 0, 0]	n/a	catFR1	1	R1286J
2157.799	0.884	2134531	WORD_OFF	n/a	n/a	HICKORY	n/a	4	10	[0, 0, 0]	n/a	catFR1	1	R1286J
2158.683	1.6	2135415	WORD	n/a	wordpools/wordpool_categorized_EN.txt	CORN	Vegetables	5	10	[0, 0, 0]	n/a	catFR1	1	R1286J
2160.301	0.899	2137033	WORD_OFF	n/a	n/a	CORN	n/a	5	10	[0, 0, 0]	n/a	catFR1	1	R1286J
2161.2	1.6	2137932	WORD	n/a	wordpools/wordpool_categorized_EN.txt	SPINACH	Vegetables	6	10	[0, 0, 0]	n/a	catFR1	1	R1286J
2162.817	0.784	2139549	WORD_OFF	n/a	n/a	SPINACH	n/a	6	10	[0, 0, 0]	n/a	catFR1	1	R1286J
2163.601	1.6	2140333	WORD	n/a	wordpools/wordpool_categorized_EN.txt	WIND	Weather	7	10	[0, 0, 0]	n/a	catFR1	1	R1286J
2165.217	0.867	2141949	WORD_OFF	n/a	n/a	WIND	n/a	7	10	[0, 0, 0]	n/a	catFR1	1	R1286J
2166.084	1.6	2142816	WORD	n/a	wordpools/wordpool_categorized_EN.txt	RAIN	Weather	8	10	[0, 0, 0]	n/a	catFR1	1	R1286J
2167.701	0.934	2144433	WORD_OFF	n/a	n/a	RAIN	n/a	8	10	[0, 0, 0]	n/a	catFR1	1	R1286J
2168.635	1.6	2145367	WORD	n/a	wordpools/wordpool_categorized_EN.txt	OAK	Trees	9	10	[0, 0, 0]	n/a	catFR1	1	R1286J
2170.252	0.766	2146984	WORD_OFF	n/a	n/a	OAK	n/a	9	10	[0, 0, 0]	n/a	catFR1	1	R1286J
2171.018	1.6	2147750	WORD	n/a	wordpools/wordpool_categorized_EN.txt	CEDAR	Trees	10	10	[0, 0, 0]	n/a	catFR1	1	R1286J
2172.636	0.884	2149368	WORD_OFF	n/a	n/a	CEDAR	n/a	10	10	[0, 0, 0]	n/a	catFR1	1	R1286J
2173.52	1.6	2150252	WORD	n/a	wordpools/wordpool_categorized_EN.txt	CABBAGE	Vegetables	11	10	[0, 0, 0]	n/a	catFR1	1	R1286J
2175.136	0.983	2151868	WORD_OFF	n/a	n/a	CABBAGE	n/a	11	10	[0, 0, 0]	n/a	catFR1	1	R1286J
2176.119	1.6	2152851	WORD	n/a	wordpools/wordpool_categorized_EN.txt	CAULIFLOWER	Vegetables	12	10	[0, 0, 0]	n/a	catFR1	1	R1286J
2177.736	0.0	2154468	ENCODING_END	n/a	n/a	n/a	n/a	-999	10	[0, 0, 0]	n/a	catFR1	1	R1286J
2177.736	0.101	2154468	WORD_OFF	n/a	n/a	CAULIFLOWER	n/a	12	10	[0, 0, 0]	n/a	catFR1	1	R1286J
2177.837	0.0	2154569	DISTRACT_START	n/a	n/a	n/a	n/a	-999	10	[0, 0, 0]	n/a	catFR1	1	R1286J
2177.837	0.016	2154569	START	n/a	n/a	n/a	n/a	-999	10	[-999, -999, -999]	n/a	catFR1	1	R1286J
2177.853	7.134	2154585	PROB	7.102	n/a	n/a	n/a	-999	10	[8, 9, 3]	20.0	catFR1	1	R1286J
2184.987	5.151	2161718	PROB	5.12	n/a	n/a	n/a	-999	10	[7, 3, 1]	11.0	catFR1	1	R1286J
2190.138	5.634	2166869	PROB	5.594	n/a	n/a	n/a	-999	10	[8, 2, 6]	16.0	catFR1	1	R1286J
2195.772	4.927	2172503	PROB	4.927	n/a	n/a	n/a	-999	10	[8, 2, 5]	15.0	catFR1	1	R1286J
2200.699	0.008	2177430	STOP	n/a	n/a	n/a	n/a	-999	10	[-999, -999, -999]	n/a	catFR1	1	R1286J
2200.707	0.667	2177438	DISTRACT_END	n/a	n/a	n/a	n/a	-999	10	[0, 0, 0]	n/a	catFR1	1	R1286J
2201.374	0.517	2178105	RETRIEVAL_ORIENT	n/a	n/a	n/a	n/a	-999	10	[0, 0, 0]	n/a	catFR1	1	R1286J
2201.891	1.805	2178622	REC_START	n/a	n/a	n/a	n/a	-999	10	[0, 0, 0]	n/a	catFR1	1	R1286J
2203.696	1.389	2180427	REC_WORD	1.805	n/a	LIGHTNING	Weather	2	10	[0, 0, 0]	n/a	catFR1	1	R1286J
2205.085	1.804	2181816	REC_WORD	3.194	n/a	CORN	Vegetables	5	10	[0, 0, 0]	n/a	catFR1	1	R1286J
2206.889	5.713	2183620	REC_WORD	4.998	n/a	BIRCH	n/a	-999	10	[0, 0, 0]	n/a	catFR1	1	R1286J
2212.602	3.322	2189332	REC_WORD	10.711	n/a	ELM	n/a	-999	10	[0, 0, 0]	n/a	catFR1	1	R1286J
2215.924	0.809	2192654	REC_WORD	14.033	n/a	CORN	Vegetables	5	10	[0, 0, 0]	n/a	catFR1	1	R1286J
2216.733	5.42	2193463	REC_WORD	14.842	n/a	MAPLE	Trees	3	10	[0, 0, 0]	n/a	catFR1	1	R1286J
2222.153	9.749	2198883	REC_WORD	20.262	n/a	THUNDER	n/a	-999	10	[0, 0, 0]	n/a	catFR1	1	R1286J
2231.902	2.077	2208632	REC_END	n/a	n/a	n/a	n/a	-999	10	[0, 0, 0]	n/a	catFR1	1	R1286J
2233.979	0.0	2210709	TRIAL	n/a	n/a	n/a	n/a	-999	11	[0, 0, 0]	n/a	catFR1	1	R1286J
2233.979	10.0	2210709	COUNTDOWN_START	n/a	n/a	n/a	n/a	-999	11	[0, 0, 0]	n/a	catFR1	1	R1286J
2244.407	0.008	2221136	COUNTDOWN_END	n/a	n/a	n/a	n/a	-999	11	[0, 0, 0]	n/a	catFR1	1	R1286J
2244.415	1.6	2221144	ORIENT	n/a	n/a	n/a	n/a	-999	11	[0, 0, 0]	n/a	catFR1	1	R1286J
2246.031	1.867	2222760	ORIENT_OFF	n/a	n/a	n/a	n/a	-999	11	[0, 0, 0]	n/a	catFR1	1	R1286J
2247.898	1.6	2224627	WORD	n/a	wordpools/wordpool_categorized_EN.txt	BROCCOLI	Vegetables	1	11	[0, 0, 0]	n/a	catFR1	1	R1286J
2249.499	1.017	2226228	WORD_OFF	n/a	n/a	BROCCOLI	n/a	1	11	[0, 0, 0]	n/a	catFR1	1	R1286J
2250.516	1.6	2227245	WORD	n/a	wordpools/wordpool_categorized_EN.txt	PEAS	Vegetables	2	11	[0, 0, 0]	n/a	catFR1	1	R1286J
2252.132	0.85	2228861	WORD_OFF	n/a	n/a	PEAS	n/a	2	11	[0, 0, 0]	n/a	catFR1	1	R1286J
2252.982	1.6	2229711	WORD	n/a	wordpools/wordpool_categorized_EN.txt	RUM	Beverages	3	11	[0, 0, 0]	n/a	catFR1	1	R1286J
2254.583	0.867	2231312	WORD_OFF	n/a	n/a	RUM	n/a	3	11	[0, 0, 0]	n/a	catFR1	1	R1286J
2255.45	1.6	2232179	WORD	n/a	wordpools/wordpool_categorized_EN.txt	WATER	Beverages	4	11	[0, 0, 0]	n/a	catFR1	1	R1286J
2257.066	0.95	2233795	WORD_OFF	n/a	n/a	WATER	n/a	4	11	[0, 0, 0]	n/a	catFR1	1	R1286J
2258.016	1.6	2234745	WORD	n/a	wordpools/wordpool_categorized_EN.txt	MOTH	Insects	5	11	[0, 0, 0]	n/a	catFR1	1	R1286J
2259.634	0.8	2236363	WORD_OFF	n/a	n/a	MOTH	n/a	5	11	[0, 0, 0]	n/a	catFR1	1	R1286J
2260.434	1.6	2237163	WORD	n/a	wordpools/wordpool_categorized_EN.txt	FLY	Insects	6	11	[0, 0, 0]	n/a	catFR1	1	R1286J
2262.05	0.834	2238779	WORD_OFF	n/a	n/a	FLY	n/a	6	11	[0, 0, 0]	n/a	catFR1	1	R1286J
2262.884	1.6	2239613	WORD	n/a	wordpools/wordpool_categorized_EN.txt	CARROT	Vegetables	7	11	[0, 0, 0]	n/a	catFR1	1	R1286J
2264.502	0.933	2241231	WORD_OFF	n/a	n/a	CARROT	n/a	7	11	[0, 0, 0]	n/a	catFR1	1	R1286J
2265.435	1.6	2242164	WORD	n/a	wordpools/wordpool_categorized_EN.txt	CUCUMBER	Vegetables	8	11	[0, 0, 0]	n/a	catFR1	1	R1286J
2267.051	1.0	2243780	WORD_OFF	n/a	n/a	CUCUMBER	n/a	8	11	[0, 0, 0]	n/a	catFR1	1	R1286J
2268.051	1.6	2244780	WORD	n/a	wordpools/wordpool_categorized_EN.txt	TEA	Beverages	9	11	[0, 0, 0]	n/a	catFR1	1	R1286J
2269.668	0.968	2246396	WORD_OFF	n/a	n/a	TEA	n/a	9	11	[0, 0, 0]	n/a	catFR1	1	R1286J
2270.636	1.6	2247364	WORD	n/a	wordpools/wordpool_categorized_EN.txt	WINE	Beverages	10	11	[0, 0, 0]	n/a	catFR1	1	R1286J
2272.253	0.982	2248981	WORD_OFF	n/a	n/a	WINE	n/a	10	11	[0, 0, 0]	n/a	catFR1	1	R1286J
2273.235	1.6	2249963	WORD	n/a	wordpools/wordpool_categorized_EN.txt	MOSQUITO	Insects	11	11	[0, 0, 0]	n/a	catFR1	1	R1286J
2274.852	0.867	2251580	WORD_OFF	n/a	n/a	MOSQUITO	n/a	11	11	[0, 0, 0]	n/a	catFR1	1	R1286J
2275.719	1.6	2252447	WORD	n/a	wordpools/wordpool_categorized_EN.txt	BEETLE	Insects	12	11	[0, 0, 0]	n/a	catFR1	1	R1286J
2277.337	0.0	2254065	ENCODING_END	n/a	n/a	n/a	n/a	-999	11	[0, 0, 0]	n/a	catFR1	1	R1286J
2277.337	0.096	2254065	WORD_OFF	n/a	n/a	BEETLE	n/a	12	11	[0, 0, 0]	n/a	catFR1	1	R1286J
2277.433	0.0	2254161	DISTRACT_START	n/a	n/a	n/a	n/a	-999	11	[0, 0, 0]	n/a	catFR1	1	R1286J
2277.433	0.021	2254161	START	n/a	n/a	n/a	n/a	-999	11	[-999, -999, -999]	n/a	catFR1	1	R1286J
2277.454	8.367	2254182	PROB	8.336	n/a	n/a	n/a	-999	11	[3, 1, 4]	8.0	catFR1	1	R1286J
2285.821	3.967	2262549	PROB	3.936	n/a	n/a	n/a	-999	11	[9, 1, 6]	16.0	catFR1	1	R1286J
2289.788	8.941	2266516	PROB	8.941	n/a	n/a	n/a	-999	11	[7, 3, 3]	13.0	catFR1	1	R1286J
2298.729	0.011	2275456	STOP	n/a	n/a	n/a	n/a	-999	11	[-999, -999, -999]	n/a	catFR1	1	R1286J
2298.74	0.584	2275467	DISTRACT_END	n/a	n/a	n/a	n/a	-999	11	[0, 0, 0]	n/a	catFR1	1	R1286J
2299.324	0.517	2276051	RETRIEVAL_ORIENT	n/a	n/a	n/a	n/a	-999	11	[0, 0, 0]	n/a	catFR1	1	R1286J
2299.841	2.102	2276568	REC_START	n/a	n/a	n/a	n/a	-999	11	[0, 0, 0]	n/a	catFR1	1	R1286J
2301.943	1.699	2278670	REC_WORD	2.102	n/a	KEY	n/a	-999	11	[0, 0, 0]	n/a	catFR1	1	R1286J
2303.642	1.0	2280369	REC_WORD	3.801	n/a	CUCUMBER	Vegetables	8	11	[0, 0, 0]	n/a	catFR1	1	R1286J
2304.642	0.809	2281369	REC_WORD_VV	4.801	n/a	<>	n/a	-999	11	[0, 0, 0]	n/a	catFR1	1	R1286J
2305.451	1.761	2282178	REC_WORD	5.61	n/a	PEAS	Vegetables	2	11	[0, 0, 0]	n/a	catFR1	1	R1286J
2307.212	1.084	2283939	REC_WORD	7.371	n/a	RUM	Beverages	3	11	[0, 0, 0]	n/a	catFR1	1	R1286J
2308.296	21.554	2285023	REC_WORD	8.455	n/a	WATER	Beverages	4	11	[0, 0, 0]	n/a	catFR1	1	R1286J
2329.85	1.929	2306576	REC_END	n/a	n/a	n/a	n/a	-999	11	[0, 0, 0]	n/a	catFR1	1	R1286J
2331.779	0.0	2308505	TRIAL	n/a	n/a	n/a	n/a	-999	12	[0, 0, 0]	n/a	catFR1	1	R1286J
2331.779	10.0	2308505	COUNTDOWN_START	n/a	n/a	n/a	n/a	-999	12	[0, 0, 0]	n/a	catFR1	1	R1286J
2342.207	0.007	2318933	COUNTDOWN_END	n/a	n/a	n/a	n/a	-999	12	[0, 0, 0]	n/a	catFR1	1	R1286J
2342.214	1.6	2318940	ORIENT	n/a	n/a	n/a	n/a	-999	12	[0, 0, 0]	n/a	catFR1	1	R1286J
2343.831	2.233	2320557	ORIENT_OFF	n/a	n/a	n/a	n/a	-999	12	[0, 0, 0]	n/a	catFR1	1	R1286J
2346.064	1.6	2322790	WORD	n/a	wordpools/wordpool_categorized_EN.txt	CORKSCREW	KitchenTools	1	12	[0, 0, 0]	n/a	catFR1	1	R1286J
2347.666	0.917	2324392	WORD_OFF	n/a	n/a	CORKSCREW	n/a	1	12	[0, 0, 0]	n/a	catFR1	1	R1286J
2348.583	1.6	2325309	WORD	n/a	wordpools/wordpool_categorized_EN.txt	COLANDER	KitchenTools	2	12	[0, 0, 0]	n/a	catFR1	1	R1286J
2350.198	0.867	2326924	WORD_OFF	n/a	n/a	COLANDER	n/a	2	12	[0, 0, 0]	n/a	catFR1	1	R1286J
2351.065	1.6	2327791	WORD	n/a	wordpools/wordpool_categorized_EN.txt	STAPLER	OfficeSupplies	3	12	[0, 0, 0]	n/a	catFR1	1	R1286J
2352.682	0.818	2329408	WORD_OFF	n/a	n/a	STAPLER	n/a	3	12	[0, 0, 0]	n/a	catFR1	1	R1286J
2353.5	1.6	2330226	WORD	n/a	wordpools/wordpool_categorized_EN.txt	RULER	OfficeSupplies	4	12	[0, 0, 0]	n/a	catFR1	1	R1286J
2355.116	0.967	2331842	WORD_OFF	n/a	n/a	RULER	n/a	4	12	[0, 0, 0]	n/a	catFR1	1	R1286J
2356.083	1.6	2332809	WORD	n/a	wordpools/wordpool_categorized_EN.txt	DRESSER	Furniture	5	12	[0, 0, 0]	n/a	catFR1	1	R1286J
2357.7	0.801	2334425	WORD_OFF	n/a	n/a	DRESSER	n/a	5	12	[0, 0, 0]	n/a	catFR1	1	R1286J
2358.501	1.6	2335226	WORD	n/a	wordpools/wordpool_categorized_EN.txt	CABINET	Furniture	6	12	[0, 0, 0]	n/a	catFR1	1	R1286J
2360.117	0.867	2336842	WORD_OFF	n/a	n/a	CABINET	n/a	6	12	[0, 0, 0]	n/a	catFR1	1	R1286J
2360.984	1.6	2337709	WORD	n/a	wordpools/wordpool_categorized_EN.txt	FOLDER	OfficeSupplies	7	12	[0, 0, 0]	n/a	catFR1	1	R1286J
2362.602	0.816	2339327	WORD_OFF	n/a	n/a	FOLDER	n/a	7	12	[0, 0, 0]	n/a	catFR1	1	R1286J
2363.418	1.6	2340143	WORD	n/a	wordpools/wordpool_categorized_EN.txt	GLUE	OfficeSupplies	8	12	[0, 0, 0]	n/a	catFR1	1	R1286J
2365.034	0.934	2341759	WORD_OFF	n/a	n/a	GLUE	n/a	8	12	[0, 0, 0]	n/a	catFR1	1	R1286J
2365.968	1.6	2342693	WORD	n/a	wordpools/wordpool_categorized_EN.txt	PEELER	KitchenTools	9	12	[0, 0, 0]	n/a	catFR1	1	R1286J
2367.586	0.85	2344311	WORD_OFF	n/a	n/a	PEELER	n/a	9	12	[0, 0, 0]	n/a	catFR1	1	R1286J
2368.436	1.6	2345161	WORD	n/a	wordpools/wordpool_categorized_EN.txt	WHISK	KitchenTools	10	12	[0, 0, 0]	n/a	catFR1	1	R1286J
2370.052	0.8	2346777	WORD_OFF	n/a	n/a	WHISK	n/a	10	12	[0, 0, 0]	n/a	catFR1	1	R1286J
2370.852	1.6	2347577	WORD	n/a	wordpools/wordpool_categorized_EN.txt	NIGHTSTAND	Furniture	11	12	[0, 0, 0]	n/a	catFR1	1	R1286J
2372.453	0.817	2349178	WORD_OFF	n/a	n/a	NIGHTSTAND	n/a	11	12	[0, 0, 0]	n/a	catFR1	1	R1286J
2373.27	1.6	2349995	WORD	n/a	wordpools/wordpool_categorized_EN.txt	SOFA	Furniture	12	12	[0, 0, 0]	n/a	catFR1	1	R1286J
2374.886	0.0	2351611	ENCODING_END	n/a	n/a	n/a	n/a	-999	12	[0, 0, 0]	n/a	catFR1	1	R1286J
2374.886	0.071	2351611	WORD_OFF	n/a	n/a	SOFA	n/a	12	12	[0, 0, 0]	n/a	catFR1	1	R1286J
2374.957	0.001	2351682	DISTRACT_START	n/a	n/a	n/a	n/a	-999	12	[0, 0, 0]	n/a	catFR1	1	R1286J
2374.958	0.011	2351683	START	n/a	n/a	n/a	n/a	-999	12	[-999, -999, -999]	n/a	catFR1	1	R1286J
2374.969	6.118	2351694	PROB	6.094	n/a	n/a	n/a	-999	12	[3, 2, 3]	8.0	catFR1	1	R1286J
2381.087	4.352	2357812	PROB	4.321	n/a	n/a	n/a	-999	12	[3, 1, 7]	11.0	catFR1	1	R1286J
2385.439	16.841	2362164	PROB	16.841	n/a	n/a	n/a	-999	12	[2, 3, 9]	14.0	catFR1	1	R1286J
2402.28	0.012	2379004	STOP	n/a	n/a	n/a	n/a	-999	12	[-999, -999, -999]	n/a	catFR1	1	R1286J
2402.292	0.632	2379016	DISTRACT_END	n/a	n/a	n/a	n/a	-999	12	[0, 0, 0]	n/a	catFR1	1	R1286J
2402.924	0.519	2379648	RETRIEVAL_ORIENT	n/a	n/a	n/a	n/a	-999	12	[0, 0, 0]	n/a	catFR1	1	R1286J
2403.443	2.042	2380167	REC_START	n/a	n/a	n/a	n/a	-999	12	[0, 0, 0]	n/a	catFR1	1	R1286J
2405.485	1.196	2382209	REC_WORD	2.042	n/a	STAPLER	OfficeSupplies	3	12	[0, 0, 0]	n/a	catFR1	1	R1286J
2406.681	1.487	2383405	REC_WORD	3.238	n/a	RULER	OfficeSupplies	4	12	[0, 0, 0]	n/a	catFR1	1	R1286J
2408.168	1.129	2384892	REC_WORD	4.725	n/a	DRESSER	Furniture	5	12	[0, 0, 0]	n/a	catFR1	1	R1286J
2409.297	1.0	2386021	REC_WORD	5.854	n/a	NIGHTSTAND	Furniture	11	12	[0, 0, 0]	n/a	catFR1	1	R1286J
2410.297	1.417	2387021	REC_WORD_VV	6.854	n/a	<>	n/a	-999	12	[0, 0, 0]	n/a	catFR1	1	R1286J
2411.714	15.55	2388438	REC_WORD	8.271	n/a	WHISK	KitchenTools	10	12	[0, 0, 0]	n/a	catFR1	1	R1286J
2427.264	6.19	2403987	REC_WORD	23.821	n/a	COLANDER	KitchenTools	2	12	[0, 0, 0]	n/a	catFR1	1	R1286J
2433.454	2.359	2410177	REC_END	n/a	n/a	n/a	n/a	-999	12	[0, 0, 0]	n/a	catFR1	1	R1286J
2435.813	0.0	2412536	TRIAL	n/a	n/a	n/a	n/a	-999	13	[0, 0, 0]	n/a	catFR1	1	R1286J
2435.813	10.0	2412536	COUNTDOWN_START	n/a	n/a	n/a	n/a	-999	13	[0, 0, 0]	n/a	catFR1	1	R1286J
2446.241	0.007	2422963	COUNTDOWN_END	n/a	n/a	n/a	n/a	-999	13	[0, 0, 0]	n/a	catFR1	1	R1286J
2446.248	1.6	2422970	ORIENT	n/a	n/a	n/a	n/a	-999	13	[0, 0, 0]	n/a	catFR1	1	R1286J
2447.865	2.134	2424587	ORIENT_OFF	n/a	n/a	n/a	n/a	-999	13	[0, 0, 0]	n/a	catFR1	1	R1286J
2449.999	1.6	2426721	WORD	n/a	wordpools/wordpool_categorized_EN.txt	ORGAN	Instruments	1	13	[0, 0, 0]	n/a	catFR1	1	R1286J
2451.617	0.9	2428339	WORD_OFF	n/a	n/a	ORGAN	n/a	1	13	[0, 0, 0]	n/a	catFR1	1	R1286J
2452.517	1.6	2429239	WORD	n/a	wordpools/wordpool_categorized_EN.txt	TROMBONE	Instruments	2	13	[0, 0, 0]	n/a	catFR1	1	R1286J
2454.133	0.783	2430855	WORD_OFF	n/a	n/a	TROMBONE	n/a	2	13	[0, 0, 0]	n/a	catFR1	1	R1286J
2454.916	1.6	2431638	WORD	n/a	wordpools/wordpool_categorized_EN.txt	SPATULA	KitchenTools	3	13	[0, 0, 0]	n/a	catFR1	1	R1286J
2456.517	0.951	2433239	WORD_OFF	n/a	n/a	SPATULA	n/a	3	13	[0, 0, 0]	n/a	catFR1	1	R1286J
2457.468	1.6	2434190	WORD	n/a	wordpools/wordpool_categorized_EN.txt	GRATER	KitchenTools	4	13	[0, 0, 0]	n/a	catFR1	1	R1286J
2459.084	0.95	2435806	WORD_OFF	n/a	n/a	GRATER	n/a	4	13	[0, 0, 0]	n/a	catFR1	1	R1286J
2460.034	1.6	2436756	WORD	n/a	wordpools/wordpool_categorized_EN.txt	BULL	FarmAnimals	5	13	[0, 0, 0]	n/a	catFR1	1	R1286J
2461.652	0.967	2438374	WORD_OFF	n/a	n/a	BULL	n/a	5	13	[0, 0, 0]	n/a	catFR1	1	R1286J
2462.619	1.6	2439341	WORD	n/a	wordpools/wordpool_categorized_EN.txt	HEN	FarmAnimals	6	13	[0, 0, 0]	n/a	catFR1	1	R1286J
2464.235	0.9	2440957	WORD_OFF	n/a	n/a	HEN	n/a	6	13	[0, 0, 0]	n/a	catFR1	1	R1286J
2465.135	1.6	2441857	WORD	n/a	wordpools/wordpool_categorized_EN.txt	FORK	KitchenTools	7	13	[0, 0, 0]	n/a	catFR1	1	R1286J
2466.752	0.801	2443474	WORD_OFF	n/a	n/a	FORK	n/a	7	13	[0, 0, 0]	n/a	catFR1	1	R1286J
2467.553	1.6	2444275	WORD	n/a	wordpools/wordpool_categorized_EN.txt	STRAINER	KitchenTools	8	13	[0, 0, 0]	n/a	catFR1	1	R1286J
2469.168	1.0	2445890	WORD_OFF	n/a	n/a	STRAINER	n/a	8	13	[0, 0, 0]	n/a	catFR1	1	R1286J
2470.168	1.6	2446890	WORD	n/a	wordpools/wordpool_categorized_EN.txt	BANJO	Instruments	9	13	[0, 0, 0]	n/a	catFR1	1	R1286J
2471.786	0.95	2448508	WORD_OFF	n/a	n/a	BANJO	n/a	9	13	[0, 0, 0]	n/a	catFR1	1	R1286J
2472.736	1.6	2449458	WORD	n/a	wordpools/wordpool_categorized_EN.txt	TRUMPET	Instruments	10	13	[0, 0, 0]	n/a	catFR1	1	R1286J
2474.337	0.783	2451059	WORD_OFF	n/a	n/a	TRUMPET	n/a	10	13	[0, 0, 0]	n/a	catFR1	1	R1286J
2475.12	1.6	2451842	WORD	n/a	wordpools/wordpool_categorized_EN.txt	ROOSTER	FarmAnimals	11	13	[0, 0, 0]	n/a	catFR1	1	R1286J
2476.737	0.851	2453458	WORD_OFF	n/a	n/a	ROOSTER	n/a	11	13	[0, 0, 0]	n/a	catFR1	1	R1286J
2477.588	1.6	2454309	WORD	n/a	wordpools/wordpool_categorized_EN.txt	HORSE	FarmAnimals	12	13	[0, 0, 0]	n/a	catFR1	1	R1286J
2479.204	0.0	2455925	WORD_OFF	n/a	n/a	HORSE	n/a	12	13	[0, 0, 0]	n/a	catFR1	1	R1286J
2479.204	0.102	2455925	ENCODING_END	n/a	n/a	n/a	n/a	-999	13	[0, 0, 0]	n/a	catFR1	1	R1286J
2479.306	0.0	2456027	DISTRACT_START	n/a	n/a	n/a	n/a	-999	13	[0, 0, 0]	n/a	catFR1	1	R1286J
2479.306	0.015	2456027	START	n/a	n/a	n/a	n/a	-999	13	[-999, -999, -999]	n/a	catFR1	1	R1286J
2479.321	12.351	2456042	PROB	12.327	n/a	n/a	n/a	-999	13	[3, 5, 6]	14.0	catFR1	1	R1286J
2491.672	4.018	2468393	PROB	3.983	n/a	n/a	n/a	-999	13	[2, 8, 5]	15.0	catFR1	1	R1286J
2495.69	3.184	2472411	PROB	3.149	n/a	n/a	n/a	-999	13	[1, 1, 9]	11.0	catFR1	1	R1286J
2498.874	9.298	2475595	PROB	9.298	n/a	n/a	n/a	-999	13	[5, 2, 9]	16.0	catFR1	1	R1286J
2508.172	0.02	2484892	STOP	n/a	n/a	n/a	n/a	-999	13	[-999, -999, -999]	n/a	catFR1	1	R1286J
2508.192	0.583	2484912	DISTRACT_END	n/a	n/a	n/a	n/a	-999	13	[0, 0, 0]	n/a	catFR1	1	R1286J
2508.775	0.519	2485495	RETRIEVAL_ORIENT	n/a	n/a	n/a	n/a	-999	13	[0, 0, 0]	n/a	catFR1	1	R1286J
2509.294	2.024	2486014	REC_START	n/a	n/a	n/a	n/a	-999	13	[0, 0, 0]	n/a	catFR1	1	R1286J
2511.318	1.039	2488038	REC_WORD	2.024	n/a	ORGAN	Instruments	1	13	[0, 0, 0]	n/a	catFR1	1	R1286J
2512.357	1.849	2489077	REC_WORD	3.063	n/a	TROMBONE	Instruments	2	13	[0, 0, 0]	n/a	catFR1	1	R1286J
2514.206	4.274	2490926	REC_WORD	4.912	n/a	BULL	FarmAnimals	5	13	[0, 0, 0]	n/a	catFR1	1	R1286J
2518.48	6.152	2495200	REC_WORD	9.186	n/a	HEN	FarmAnimals	6	13	[0, 0, 0]	n/a	catFR1	1	R1286J
2524.632	7.949	2501352	REC_WORD_VV	15.338	n/a	<>	n/a	-999	13	[0, 0, 0]	n/a	catFR1	1	R1286J
2532.581	3.935	2509301	REC_WORD_VV	23.287	n/a	<>	n/a	-999	13	[0, 0, 0]	n/a	catFR1	1	R1286J
2536.516	2.788	2513235	REC_WORD_VV	27.222	n/a	<>	n/a	-999	13	[0, 0, 0]	n/a	catFR1	1	R1286J
2539.304	2.011	2516023	REC_END	n/a	n/a	n/a	n/a	-999	13	[0, 0, 0]	n/a	catFR1	1	R1286J
2541.315	0.0	2518034	TRIAL	n/a	n/a	n/a	n/a	-999	14	[0, 0, 0]	n/a	catFR1	1	R1286J
2541.315	10.0	2518034	COUNTDOWN_START	n/a	n/a	n/a	n/a	-999	14	[0, 0, 0]	n/a	catFR1	1	R1286J
2551.743	0.006	2528462	COUNTDOWN_END	n/a	n/a	n/a	n/a	-999	14	[0, 0, 0]	n/a	catFR1	1	R1286J
2551.749	1.6	2528468	ORIENT	n/a	n/a	n/a	n/a	-999	14	[0, 0, 0]	n/a	catFR1	1	R1286J
2553.367	1.901	2530086	ORIENT_OFF	n/a	n/a	n/a	n/a	-999	14	[0, 0, 0]	n/a	catFR1	1	R1286J
2555.268	1.6	2531987	WORD	n/a	wordpools/wordpool_categorized_EN.txt	UNDERWEAR	Clothing	1	14	[0, 0, 0]	n/a	catFR1	1	R1286J
2556.883	0.917	2533602	WORD_OFF	n/a	n/a	UNDERWEAR	n/a	1	14	[0, 0, 0]	n/a	catFR1	1	R1286J
2557.8	1.6	2534519	WORD	n/a	wordpools/wordpool_categorized_EN.txt	SKIRT	Clothing	2	14	[0, 0, 0]	n/a	catFR1	1	R1286J
2559.418	0.883	2536137	WORD_OFF	n/a	n/a	SKIRT	n/a	2	14	[0, 0, 0]	n/a	catFR1	1	R1286J
2560.301	1.6	2537020	WORD	n/a	wordpools/wordpool_categorized_EN.txt	SUNFLOWER	Flowers	3	14	[0, 0, 0]	n/a	catFR1	1	R1286J
2561.918	0.816	2538637	WORD_OFF	n/a	n/a	SUNFLOWER	n/a	3	14	[0, 0, 0]	n/a	catFR1	1	R1286J
2562.734	1.6	2539453	WORD	n/a	wordpools/wordpool_categorized_EN.txt	PETUNIA	Flowers	4	14	[0, 0, 0]	n/a	catFR1	1	R1286J
2564.336	0.967	2541054	WORD_OFF	n/a	n/a	PETUNIA	n/a	4	14	[0, 0, 0]	n/a	catFR1	1	R1286J
2565.303	1.6	2542021	WORD	n/a	wordpools/wordpool_categorized_EN.txt	DOOR	Building	5	14	[0, 0, 0]	n/a	catFR1	1	R1286J
2566.919	0.9	2543637	WORD_OFF	n/a	n/a	DOOR	n/a	5	14	[0, 0, 0]	n/a	catFR1	1	R1286J
2567.819	1.6	2544537	WORD	n/a	wordpools/wordpool_categorized_EN.txt	FOUNDATION	Building	6	14	[0, 0, 0]	n/a	catFR1	1	R1286J
2569.437	0.95	2546155	WORD_OFF	n/a	n/a	FOUNDATION	n/a	6	14	[0, 0, 0]	n/a	catFR1	1	R1286J
2570.387	1.6	2547105	WORD	n/a	wordpools/wordpool_categorized_EN.txt	SOCKS	Clothing	7	14	[0, 0, 0]	n/a	catFR1	1	R1286J
2572.003	0.867	2548721	WORD_OFF	n/a	n/a	SOCKS	n/a	7	14	[0, 0, 0]	n/a	catFR1	1	R1286J
2572.87	1.6	2549588	WORD	n/a	wordpools/wordpool_categorized_EN.txt	COAT	Clothing	8	14	[0, 0, 0]	n/a	catFR1	1	R1286J
2574.487	0.884	2551205	WORD_OFF	n/a	n/a	COAT	n/a	8	14	[0, 0, 0]	n/a	catFR1	1	R1286J
2575.371	1.6	2552089	WORD	n/a	wordpools/wordpool_categorized_EN.txt	DAFFODIL	Flowers	9	14	[0, 0, 0]	n/a	catFR1	1	R1286J
2576.987	0.983	2553705	WORD_OFF	n/a	n/a	DAFFODIL	n/a	9	14	[0, 0, 0]	n/a	catFR1	1	R1286J
2577.97	1.6	2554688	WORD	n/a	wordpools/wordpool_categorized_EN.txt	ORCHID	Flowers	10	14	[0, 0, 0]	n/a	catFR1	1	R1286J
2579.572	0.783	2556290	WORD_OFF	n/a	n/a	ORCHID	n/a	10	14	[0, 0, 0]	n/a	catFR1	1	R1286J
2580.355	1.6	2557073	WORD	n/a	wordpools/wordpool_categorized_EN.txt	STAIRS	Building	11	14	[0, 0, 0]	n/a	catFR1	1	R1286J
2581.971	0.817	2558689	WORD_OFF	n/a	n/a	STAIRS	n/a	11	14	[0, 0, 0]	n/a	catFR1	1	R1286J
2582.788	1.6	2559506	WORD	n/a	wordpools/wordpool_categorized_EN.txt	BATHROOM	Building	12	14	[0, 0, 0]	n/a	catFR1	1	R1286J
2584.406	0.0	2561124	ENCODING_END	n/a	n/a	n/a	n/a	-999	14	[0, 0, 0]	n/a	catFR1	1	R1286J
2584.406	0.071	2561124	WORD_OFF	n/a	n/a	BATHROOM	n/a	12	14	[0, 0, 0]	n/a	catFR1	1	R1286J
2584.477	0.0	2561195	DISTRACT_START	n/a	n/a	n/a	n/a	-999	14	[0, 0, 0]	n/a	catFR1	1	R1286J
2584.477	0.012	2561195	START	n/a	n/a	n/a	n/a	-999	14	[-999, -999, -999]	n/a	catFR1	1	R1286J
2584.489	12.268	2561207	PROB	12.242	n/a	n/a	n/a	-999	14	[3, 1, 9]	13.0	catFR1	1	R1286J
2596.757	7.001	2573474	PROB	6.977	n/a	n/a	n/a	-999	14	[4, 8, 4]	16.0	catFR1	1	R1286J
2603.758	8.164	2580475	PROB	8.164	n/a	n/a	n/a	-999	14	[6, 9, 4]	19.0	catFR1	1	R1286J
2611.922	0.021	2588639	STOP	n/a	n/a	n/a	n/a	-999	14	[-999, -999, -999]	n/a	catFR1	1	R1286J
2611.943	0.651	2588660	DISTRACT_END	n/a	n/a	n/a	n/a	-999	14	[0, 0, 0]	n/a	catFR1	1	R1286J
2612.594	0.517	2589311	RETRIEVAL_ORIENT	n/a	n/a	n/a	n/a	-999	14	[0, 0, 0]	n/a	catFR1	1	R1286J
2613.111	1.399	2589828	REC_START	n/a	n/a	n/a	n/a	-999	14	[0, 0, 0]	n/a	catFR1	1	R1286J
2614.51	1.421	2591227	REC_WORD	1.399	n/a	SOCKS	Clothing	7	14	[0, 0, 0]	n/a	catFR1	1	R1286J
2615.931	1.481	2592648	REC_WORD	2.82	n/a	COAT	Clothing	8	14	[0, 0, 0]	n/a	catFR1	1	R1286J
2617.412	1.0	2594129	REC_WORD	4.301	n/a	ORCHID	Flowers	10	14	[0, 0, 0]	n/a	catFR1	1	R1286J
2618.412	1.533	2595129	REC_WORD_VV	5.301	n/a	<>	n/a	-999	14	[0, 0, 0]	n/a	catFR1	1	R1286J
2619.945	7.697	2596662	REC_WORD	6.834	n/a	STAIRS	Building	11	14	[0, 0, 0]	n/a	catFR1	1	R1286J
2627.642	15.482	2604358	REC_WORD_VV	14.531	n/a	<>	n/a	-999	14	[0, 0, 0]	n/a	catFR1	1	R1286J
2643.124	0.542	2619840	REC_END	n/a	n/a	n/a	n/a	-999	14	[0, 0, 0]	n/a	catFR1	1	R1286J
2643.666	0.0	2620382	TRIAL	n/a	n/a	n/a	n/a	-999	15	[0, 0, 0]	n/a	catFR1	1	R1286J
2643.666	10.0	2620382	COUNTDOWN_START	n/a	n/a	n/a	n/a	-999	15	[0, 0, 0]	n/a	catFR1	1	R1286J
2654.094	0.006	2630809	COUNTDOWN_END	n/a	n/a	n/a	n/a	-999	15	[0, 0, 0]	n/a	catFR1	1	R1286J
2654.1	1.6	2630815	ORIENT	n/a	n/a	n/a	n/a	-999	15	[0, 0, 0]	n/a	catFR1	1	R1286J
2655.717	2.034	2632432	ORIENT_OFF	n/a	n/a	n/a	n/a	-999	15	[0, 0, 0]	n/a	catFR1	1	R1286J
2657.751	1.6	2634466	WORD	n/a	wordpools/wordpool_categorized_EN.txt	CELLO	Instruments	1	15	[0, 0, 0]	n/a	catFR1	1	R1286J
2659.368	0.984	2636083	WORD_OFF	n/a	n/a	CELLO	n/a	1	15	[0, 0, 0]	n/a	catFR1	1	R1286J
2660.352	1.6	2637067	WORD	n/a	wordpools/wordpool_categorized_EN.txt	TUBA	Instruments	2	15	[0, 0, 0]	n/a	catFR1	1	R1286J
2661.968	0.767	2638683	WORD_OFF	n/a	n/a	TUBA	n/a	2	15	[0, 0, 0]	n/a	catFR1	1	R1286J
2662.735	1.6	2639450	WORD	n/a	wordpools/wordpool_categorized_EN.txt	LETTUCE	Vegetables	3	15	[0, 0, 0]	n/a	catFR1	1	R1286J
2664.353	0.882	2641068	WORD_OFF	n/a	n/a	LETTUCE	n/a	3	15	[0, 0, 0]	n/a	catFR1	1	R1286J
2665.235	1.6	2641950	WORD	n/a	wordpools/wordpool_categorized_EN.txt	CELERY	Vegetables	4	15	[0, 0, 0]	n/a	catFR1	1	R1286J
2666.852	0.917	2643567	WORD_OFF	n/a	n/a	CELERY	n/a	4	15	[0, 0, 0]	n/a	catFR1	1	R1286J
2667.769	1.6	2644484	WORD	n/a	wordpools/wordpool_categorized_EN.txt	DOLL	Toys	5	15	[0, 0, 0]	n/a	catFR1	1	R1286J
2669.387	0.867	2646102	WORD_OFF	n/a	n/a	DOLL	n/a	5	15	[0, 0, 0]	n/a	catFR1	1	R1286J
2670.254	1.6	2646969	WORD	n/a	wordpools/wordpool_categorized_EN.txt	BALL	Toys	6	15	[0, 0, 0]	n/a	catFR1	1	R1286J
2671.87	0.833	2648585	WORD_OFF	n/a	n/a	BALL	n/a	6	15	[0, 0, 0]	n/a	catFR1	1	R1286J
2672.703	1.6	2649418	WORD	n/a	wordpools/wordpool_categorized_EN.txt	DRUM	Instruments	7	15	[0, 0, 0]	n/a	catFR1	1	R1286J
2674.321	0.816	2651036	WORD_OFF	n/a	n/a	DRUM	n/a	7	15	[0, 0, 0]	n/a	catFR1	1	R1286J
2675.137	1.6	2651852	WORD	n/a	wordpools/wordpool_categorized_EN.txt	PIANO	Instruments	8	15	[0, 0, 0]	n/a	catFR1	1	R1286J
2676.754	0.868	2653469	WORD_OFF	n/a	n/a	PIANO	n/a	8	15	[0, 0, 0]	n/a	catFR1	1	R1286J
2677.622	1.6	2654337	WORD	n/a	wordpools/wordpool_categorized_EN.txt	ONION	Vegetables	9	15	[0, 0, 0]	n/a	catFR1	1	R1286J
2679.238	0.766	2655953	WORD_OFF	n/a	n/a	ONION	n/a	9	15	[0, 0, 0]	n/a	catFR1	1	R1286J
2680.004	1.6	2656719	WORD	n/a	wordpools/wordpool_categorized_EN.txt	POTATO	Vegetables	10	15	[0, 0, 0]	n/a	catFR1	1	R1286J
2681.606	0.866	2658321	WORD_OFF	n/a	n/a	POTATO	n/a	10	15	[0, 0, 0]	n/a	catFR1	1	R1286J
2682.472	1.6	2659186	WORD	n/a	wordpools/wordpool_categorized_EN.txt	DOLLHOUSE	Toys	11	15	[0, 0, 0]	n/a	catFR1	1	R1286J
2684.088	0.867	2660802	WORD_OFF	n/a	n/a	DOLLHOUSE	n/a	11	15	[0, 0, 0]	n/a	catFR1	1	R1286J
2684.955	1.6	2661669	WORD	n/a	wordpools/wordpool_categorized_EN.txt	FRISBEE	Toys	12	15	[0, 0, 0]	n/a	catFR1	1	R1286J
2686.573	0.0	2663287	WORD_OFF	n/a	n/a	FRISBEE	n/a	12	15	[0, 0, 0]	n/a	catFR1	1	R1286J
2686.573	0.073	2663287	ENCODING_END	n/a	n/a	n/a	n/a	-999	15	[0, 0, 0]	n/a	catFR1	1	R1286J
2686.646	0.0	2663360	DISTRACT_START	n/a	n/a	n/a	n/a	-999	15	[0, 0, 0]	n/a	catFR1	1	R1286J
2686.646	0.01	2663360	START	n/a	n/a	n/a	n/a	-999	15	[-999, -999, -999]	n/a	catFR1	1	R1286J
2686.656	8.184	2663370	PROB	8.153	n/a	n/a	n/a	-999	15	[7, 6, 4]	17.0	catFR1	1	R1286J
2694.84	4.118	2671554	PROB	4.089	n/a	n/a	n/a	-999	15	[5, 1, 6]	12.0	catFR1	1	R1286J
2698.958	4.451	2675672	PROB	4.428	n/a	n/a	n/a	-999	15	[8, 3, 3]	14.0	catFR1	1	R1286J
2703.409	6.286	2680123	PROB	6.286	n/a	n/a	n/a	-999	15	[5, 7, 9]	21.0	catFR1	1	R1286J
2709.695	0.015	2686409	STOP	n/a	n/a	n/a	n/a	-999	15	[-999, -999, -999]	n/a	catFR1	1	R1286J
2709.71	0.684	2686424	DISTRACT_END	n/a	n/a	n/a	n/a	-999	15	[0, 0, 0]	n/a	catFR1	1	R1286J
2710.394	0.516	2687108	RETRIEVAL_ORIENT	n/a	n/a	n/a	n/a	-999	15	[0, 0, 0]	n/a	catFR1	1	R1286J
2710.91	4.968	2687624	REC_START	n/a	n/a	n/a	n/a	-999	15	[0, 0, 0]	n/a	catFR1	1	R1286J
2715.878	2.158	2692591	REC_WORD	4.968	n/a	SOCKS	n/a	-999	15	[0, 0, 0]	n/a	catFR1	1	R1286J
2718.036	0.817	2694749	REC_WORD	7.126	n/a	COAT	n/a	-999	15	[0, 0, 0]	n/a	catFR1	1	R1286J
2718.853	2.009	2695566	REC_WORD	7.943	n/a	STAIRS	n/a	-999	15	[0, 0, 0]	n/a	catFR1	1	R1286J
2720.862	9.945	2697575	REC_WORD	9.952	n/a	ORCHID	n/a	-999	15	[0, 0, 0]	n/a	catFR1	1	R1286J
2730.807	3.369	2707520	REC_WORD	19.897	n/a	ATTIC	n/a	-999	15	[0, 0, 0]	n/a	catFR1	1	R1286J
2734.176	1.041	2710889	REC_WORD	23.266	n/a	BALL	Toys	6	15	[0, 0, 0]	n/a	catFR1	1	R1286J
2735.217	4.933	2711930	REC_WORD	24.307	n/a	BELL	n/a	-999	15	[0, 0, 0]	n/a	catFR1	1	R1286J
2740.15	0.769	2716863	REC_WORD	29.24	n/a	DOLL	Toys	5	15	[0, 0, 0]	n/a	catFR1	1	R1286J
2740.919	2.514	2717632	REC_END	n/a	n/a	n/a	n/a	-999	15	[0, 0, 0]	n/a	catFR1	1	R1286J
2743.433	0.0	2720145	TRIAL	n/a	n/a	n/a	n/a	-999	16	[0, 0, 0]	n/a	catFR1	1	R1286J
2743.433	10.0	2720145	COUNTDOWN_START	n/a	n/a	n/a	n/a	-999	16	[0, 0, 0]	n/a	catFR1	1	R1286J
2753.861	0.006	2730573	COUNTDOWN_END	n/a	n/a	n/a	n/a	-999	16	[0, 0, 0]	n/a	catFR1	1	R1286J
2753.867	1.6	2730579	ORIENT	n/a	n/a	n/a	n/a	-999	16	[0, 0, 0]	n/a	catFR1	1	R1286J
2755.485	2.199	2732197	ORIENT_OFF	n/a	n/a	n/a	n/a	-999	16	[0, 0, 0]	n/a	catFR1	1	R1286J
2757.684	1.6	2734396	WORD	n/a	wordpools/wordpool_categorized_EN.txt	PLIERS	Tools	1	16	[0, 0, 0]	n/a	catFR1	1	R1286J
2759.302	0.984	2736014	WORD_OFF	n/a	n/a	PLIERS	n/a	1	16	[0, 0, 0]	n/a	catFR1	1	R1286J
2760.286	1.6	2736998	WORD	n/a	wordpools/wordpool_categorized_EN.txt	HAMMER	Tools	2	16	[0, 0, 0]	n/a	catFR1	1	R1286J
2761.902	0.85	2738614	WORD_OFF	n/a	n/a	HAMMER	n/a	2	16	[0, 0, 0]	n/a	catFR1	1	R1286J
2762.752	1.6	2739464	WORD	n/a	wordpools/wordpool_categorized_EN.txt	LAMB	FarmAnimals	3	16	[0, 0, 0]	n/a	catFR1	1	R1286J
2764.37	0.983	2741082	WORD_OFF	n/a	n/a	LAMB	n/a	3	16	[0, 0, 0]	n/a	catFR1	1	R1286J
2765.353	1.6	2742065	WORD	n/a	wordpools/wordpool_categorized_EN.txt	GOAT	FarmAnimals	4	16	[0, 0, 0]	n/a	catFR1	1	R1286J
2766.969	0.984	2743681	WORD_OFF	n/a	n/a	GOAT	n/a	4	16	[0, 0, 0]	n/a	catFR1	1	R1286J
2767.953	1.6	2744665	WORD	n/a	wordpools/wordpool_categorized_EN.txt	TOASTER	Appliances	5	16	[0, 0, 0]	n/a	catFR1	1	R1286J
2769.571	0.833	2746283	WORD_OFF	n/a	n/a	TOASTER	n/a	5	16	[0, 0, 0]	n/a	catFR1	1	R1286J
2770.404	1.6	2747116	WORD	n/a	wordpools/wordpool_categorized_EN.txt	REFRIGERATOR	Appliances	6	16	[0, 0, 0]	n/a	catFR1	1	R1286J
2772.02	0.883	2748731	WORD_OFF	n/a	n/a	REFRIGERATOR	n/a	6	16	[0, 0, 0]	n/a	catFR1	1	R1286J
2772.903	1.6	2749614	WORD	n/a	wordpools/wordpool_categorized_EN.txt	CROWBAR	Tools	7	16	[0, 0, 0]	n/a	catFR1	1	R1286J
2774.505	0.833	2751216	WORD_OFF	n/a	n/a	CROWBAR	n/a	7	16	[0, 0, 0]	n/a	catFR1	1	R1286J
2775.338	1.6	2752049	WORD	n/a	wordpools/wordpool_categorized_EN.txt	SHOVEL	Tools	8	16	[0, 0, 0]	n/a	catFR1	1	R1286J
2776.954	0.917	2753665	WORD_OFF	n/a	n/a	SHOVEL	n/a	8	16	[0, 0, 0]	n/a	catFR1	1	R1286J
2777.871	1.6	2754582	WORD	n/a	wordpools/wordpool_categorized_EN.txt	COW	FarmAnimals	9	16	[0, 0, 0]	n/a	catFR1	1	R1286J
2779.489	0.833	2756200	WORD_OFF	n/a	n/a	COW	n/a	9	16	[0, 0, 0]	n/a	catFR1	1	R1286J
2780.322	1.6	2757033	WORD	n/a	wordpools/wordpool_categorized_EN.txt	CHICKEN	FarmAnimals	10	16	[0, 0, 0]	n/a	catFR1	1	R1286J
2781.938	0.934	2758649	WORD_OFF	n/a	n/a	CHICKEN	n/a	10	16	[0, 0, 0]	n/a	catFR1	1	R1286J
2782.872	1.6	2759583	WORD	n/a	wordpools/wordpool_categorized_EN.txt	IRON	Appliances	11	16	[0, 0, 0]	n/a	catFR1	1	R1286J
2784.49	0.917	2761201	WORD_OFF	n/a	n/a	IRON	n/a	11	16	[0, 0, 0]	n/a	catFR1	1	R1286J
2785.407	1.6	2762118	WORD	n/a	wordpools/wordpool_categorized_EN.txt	FREEZER	Appliances	12	16	[0, 0, 0]	n/a	catFR1	1	R1286J
2787.022	0.001	2763733	WORD_OFF	n/a	n/a	FREEZER	n/a	12	16	[0, 0, 0]	n/a	catFR1	1	R1286J
2787.023	0.098	2763734	ENCODING_END	n/a	n/a	n/a	n/a	-999	16	[0, 0, 0]	n/a	catFR1	1	R1286J
2787.121	0.0	2763832	DISTRACT_START	n/a	n/a	n/a	n/a	-999	16	[0, 0, 0]	n/a	catFR1	1	R1286J
2787.121	0.018	2763832	START	n/a	n/a	n/a	n/a	-999	16	[-999, -999, -999]	n/a	catFR1	1	R1286J
2787.139	10.27	2763850	PROB	10.246	n/a	n/a	n/a	-999	16	[9, 4, 5]	18.0	catFR1	1	R1286J
2797.409	6.3	2774120	PROB	6.276	n/a	n/a	n/a	-999	16	[7, 7, 4]	18.0	catFR1	1	R1286J
2803.709	7.285	2780419	PROB	7.285	n/a	n/a	n/a	-999	16	[8, 5, 7]	20.0	catFR1	1	R1286J
2810.994	0.016	2787704	STOP	n/a	n/a	n/a	n/a	-999	16	[-999, -999, -999]	n/a	catFR1	1	R1286J
2811.01	0.534	2787720	DISTRACT_END	n/a	n/a	n/a	n/a	-999	16	[0, 0, 0]	n/a	catFR1	1	R1286J
2811.544	0.517	2788254	RETRIEVAL_ORIENT	n/a	n/a	n/a	n/a	-999	16	[0, 0, 0]	n/a	catFR1	1	R1286J
2812.061	1.711	2788771	REC_START	n/a	n/a	n/a	n/a	-999	16	[0, 0, 0]	n/a	catFR1	1	R1286J
2813.772	1.641	2790482	REC_WORD	1.711	n/a	PLIERS	Tools	1	16	[0, 0, 0]	n/a	catFR1	1	R1286J
2815.413	1.867	2792123	REC_WORD	3.352	n/a	HAMMER	Tools	2	16	[0, 0, 0]	n/a	catFR1	1	R1286J
2817.28	1.0	2793990	REC_WORD	5.219	n/a	CROWBAR	Tools	7	16	[0, 0, 0]	n/a	catFR1	1	R1286J
2818.28	11.416	2794990	REC_WORD_VV	6.219	n/a	<>	n/a	-999	16	[0, 0, 0]	n/a	catFR1	1	R1286J
2829.696	2.012	2806406	REC_WORD	17.635	n/a	GOAT	FarmAnimals	4	16	[0, 0, 0]	n/a	catFR1	1	R1286J
2831.708	10.364	2808417	REC_WORD	19.647	n/a	CROW	n/a	-999	16	[0, 0, 0]	n/a	catFR1	1	R1286J
2842.072	1.394	2818781	REC_END	n/a	n/a	n/a	n/a	-999	16	[0, 0, 0]	n/a	catFR1	1	R1286J
2843.466	0.0	2820175	TRIAL	n/a	n/a	n/a	n/a	-999	17	[0, 0, 0]	n/a	catFR1	1	R1286J
2843.466	10.0	2820175	COUNTDOWN_START	n/a	n/a	n/a	n/a	-999	17	[0, 0, 0]	n/a	catFR1	1	R1286J
2853.894	0.006	2830603	COUNTDOWN_END	n/a	n/a	n/a	n/a	-999	17	[0, 0, 0]	n/a	catFR1	1	R1286J
2853.9	1.6	2830609	ORIENT	n/a	n/a	n/a	n/a	-999	17	[0, 0, 0]	n/a	catFR1	1	R1286J
2855.502	2.067	2832211	ORIENT_OFF	n/a	n/a	n/a	n/a	-999	17	[0, 0, 0]	n/a	catFR1	1	R1286J
2857.569	1.6	2834278	WORD	n/a	wordpools/wordpool_categorized_EN.txt	LEVEL	Tools	1	17	[0, 0, 0]	n/a	catFR1	1	R1286J
2859.185	0.783	2835894	WORD_OFF	n/a	n/a	LEVEL	n/a	1	17	[0, 0, 0]	n/a	catFR1	1	R1286J
2859.968	1.6	2836676	WORD	n/a	wordpools/wordpool_categorized_EN.txt	SANDER	Tools	2	17	[0, 0, 0]	n/a	catFR1	1	R1286J
2861.586	0.834	2838294	WORD_OFF	n/a	n/a	SANDER	n/a	2	17	[0, 0, 0]	n/a	catFR1	1	R1286J
2862.42	1.6	2839128	WORD	n/a	wordpools/wordpool_categorized_EN.txt	BLUEBERRY	Fruit	3	17	[0, 0, 0]	n/a	catFR1	1	R1286J
2864.035	0.967	2840743	WORD_OFF	n/a	n/a	BLUEBERRY	n/a	3	17	[0, 0, 0]	n/a	catFR1	1	R1286J
2865.002	1.6	2841710	WORD	n/a	wordpools/wordpool_categorized_EN.txt	PEACH	Fruit	4	17	[0, 0, 0]	n/a	catFR1	1	R1286J
2866.604	0.783	2843312	WORD_OFF	n/a	n/a	PEACH	n/a	4	17	[0, 0, 0]	n/a	catFR1	1	R1286J
2867.387	1.6	2844095	WORD	n/a	wordpools/wordpool_categorized_EN.txt	LAKE	Landscapes	5	17	[0, 0, 0]	n/a	catFR1	1	R1286J
2869.003	0.817	2845711	WORD_OFF	n/a	n/a	LAKE	n/a	5	17	[0, 0, 0]	n/a	catFR1	1	R1286J
2869.82	1.6	2846528	WORD	n/a	wordpools/wordpool_categorized_EN.txt	MOUNTAIN	Landscapes	6	17	[0, 0, 0]	n/a	catFR1	1	R1286J
2871.438	1.0	2848146	WORD_OFF	n/a	n/a	MOUNTAIN	n/a	6	17	[0, 0, 0]	n/a	catFR1	1	R1286J
2872.438	1.6	2849146	WORD	n/a	wordpools/wordpool_categorized_EN.txt	LIME	Fruit	7	17	[0, 0, 0]	n/a	catFR1	1	R1286J
2874.054	0.95	2850762	WORD_OFF	n/a	n/a	LIME	n/a	7	17	[0, 0, 0]	n/a	catFR1	1	R1286J
2875.004	1.6	2851712	WORD	n/a	wordpools/wordpool_categorized_EN.txt	LEMON	Fruit	8	17	[0, 0, 0]	n/a	catFR1	1	R1286J
2876.622	0.8	2853330	WORD_OFF	n/a	n/a	LEMON	n/a	8	17	[0, 0, 0]	n/a	catFR1	1	R1286J
2877.422	1.6	2854130	WORD	n/a	wordpools/wordpool_categorized_EN.txt	RATCHET	Tools	9	17	[0, 0, 0]	n/a	catFR1	1	R1286J
2879.038	0.783	2855746	WORD_OFF	n/a	n/a	RATCHET	n/a	9	17	[0, 0, 0]	n/a	catFR1	1	R1286J
2879.821	1.6	2856529	WORD	n/a	wordpools/wordpool_categorized_EN.txt	WRENCH	Tools	10	17	[0, 0, 0]	n/a	catFR1	1	R1286J
2881.423	0.95	2858131	WORD_OFF	n/a	n/a	WRENCH	n/a	10	17	[0, 0, 0]	n/a	catFR1	1	R1286J
2882.373	1.6	2859081	WORD	n/a	wordpools/wordpool_categorized_EN.txt	CREEK	Landscapes	11	17	[0, 0, 0]	n/a	catFR1	1	R1286J
2883.989	0.95	2860697	WORD_OFF	n/a	n/a	CREEK	n/a	11	17	[0, 0, 0]	n/a	catFR1	1	R1286J
2884.939	1.6	2861647	WORD	n/a	wordpools/wordpool_categorized_EN.txt	OCEAN	Landscapes	12	17	[0, 0, 0]	n/a	catFR1	1	R1286J
2886.557	0.0	2863265	ENCODING_END	n/a	n/a	n/a	n/a	-999	17	[0, 0, 0]	n/a	catFR1	1	R1286J
2886.557	0.071	2863265	WORD_OFF	n/a	n/a	OCEAN	n/a	12	17	[0, 0, 0]	n/a	catFR1	1	R1286J
2886.628	0.0	2863336	DISTRACT_START	n/a	n/a	n/a	n/a	-999	17	[0, 0, 0]	n/a	catFR1	1	R1286J
2886.628	0.012	2863336	START	n/a	n/a	n/a	n/a	-999	17	[-999, -999, -999]	n/a	catFR1	1	R1286J
2886.64	10.902	2863348	PROB	10.868	n/a	n/a	n/a	-999	17	[1, 7, 4]	12.0	catFR1	1	R1286J
2897.542	5.818	2874249	PROB	5.786	n/a	n/a	n/a	-999	17	[1, 7, 5]	13.0	catFR1	1	R1286J
2903.36	7.536	2880067	PROB	7.536	n/a	n/a	n/a	-999	17	[3, 7, 7]	17.0	catFR1	1	R1286J
2910.896	0.014	2887603	STOP	n/a	n/a	n/a	n/a	-999	17	[-999, -999, -999]	n/a	catFR1	1	R1286J
2910.91	0.651	2887617	DISTRACT_END	n/a	n/a	n/a	n/a	-999	17	[0, 0, 0]	n/a	catFR1	1	R1286J
2911.561	0.517	2888268	RETRIEVAL_ORIENT	n/a	n/a	n/a	n/a	-999	17	[0, 0, 0]	n/a	catFR1	1	R1286J
2912.078	1.899	2888785	REC_START	n/a	n/a	n/a	n/a	-999	17	[0, 0, 0]	n/a	catFR1	1	R1286J
2913.977	1.434	2890684	REC_WORD	1.899	n/a	LAKE	Landscapes	5	17	[0, 0, 0]	n/a	catFR1	1	R1286J
2915.411	2.007	2892118	REC_WORD	3.333	n/a	LIME	Fruit	7	17	[0, 0, 0]	n/a	catFR1	1	R1286J
2917.418	2.333	2894125	REC_WORD	5.34	n/a	MOUNTAIN	Landscapes	6	17	[0, 0, 0]	n/a	catFR1	1	R1286J
2919.751	11.82	2896457	REC_WORD	7.673	n/a	WRENCH	Tools	10	17	[0, 0, 0]	n/a	catFR1	1	R1286J
2931.571	1.285	2908277	REC_WORD	19.493	n/a	BLUEBERRY	Fruit	3	17	[0, 0, 0]	n/a	catFR1	1	R1286J
2932.856	4.717	2909562	REC_WORD	20.778	n/a	PEACH	Fruit	4	17	[0, 0, 0]	n/a	catFR1	1	R1286J
2937.573	4.516	2914279	REC_WORD	25.495	n/a	SANDER	Tools	2	17	[0, 0, 0]	n/a	catFR1	1	R1286J
2942.089	2.143	2918795	REC_END	n/a	n/a	n/a	n/a	-999	17	[0, 0, 0]	n/a	catFR1	1	R1286J
2944.232	0.0	2920938	TRIAL	n/a	n/a	n/a	n/a	-999	18	[0, 0, 0]	n/a	catFR1	1	R1286J
2944.232	10.0	2920938	COUNTDOWN_START	n/a	n/a	n/a	n/a	-999	18	[0, 0, 0]	n/a	catFR1	1	R1286J
2954.66	0.007	2931365	COUNTDOWN_END	n/a	n/a	n/a	n/a	-999	18	[0, 0, 0]	n/a	catFR1	1	R1286J
2954.667	1.6	2931372	ORIENT	n/a	n/a	n/a	n/a	-999	18	[0, 0, 0]	n/a	catFR1	1	R1286J
2956.269	1.932	2932974	ORIENT_OFF	n/a	n/a	n/a	n/a	-999	18	[0, 0, 0]	n/a	catFR1	1	R1286J
2958.201	1.6	2934906	WORD	n/a	wordpools/wordpool_categorized_EN.txt	BASEBALL	Toys	1	18	[0, 0, 0]	n/a	catFR1	1	R1286J
2959.818	0.917	2936523	WORD_OFF	n/a	n/a	BASEBALL	n/a	1	18	[0, 0, 0]	n/a	catFR1	1	R1286J
2960.735	1.6	2937440	WORD	n/a	wordpools/wordpool_categorized_EN.txt	PUZZLE	Toys	2	18	[0, 0, 0]	n/a	catFR1	1	R1286J
2962.353	0.783	2939058	WORD_OFF	n/a	n/a	PUZZLE	n/a	2	18	[0, 0, 0]	n/a	catFR1	1	R1286J
2963.136	1.6	2939841	WORD	n/a	wordpools/wordpool_categorized_EN.txt	ELBOW	BodyParts	3	18	[0, 0, 0]	n/a	catFR1	1	R1286J
2964.753	1.016	2941458	WORD_OFF	n/a	n/a	ELBOW	n/a	3	18	[0, 0, 0]	n/a	catFR1	1	R1286J
2965.769	1.6	2942474	WORD	n/a	wordpools/wordpool_categorized_EN.txt	LEG	BodyParts	4	18	[0, 0, 0]	n/a	catFR1	1	R1286J
2967.387	0.799	2944092	WORD_OFF	n/a	n/a	LEG	n/a	4	18	[0, 0, 0]	n/a	catFR1	1	R1286J
2968.186	1.6	2944891	WORD	n/a	wordpools/wordpool_categorized_EN.txt	FUDGE	Desserts	5	18	[0, 0, 0]	n/a	catFR1	1	R1286J
2969.803	0.852	2946508	WORD_OFF	n/a	n/a	FUDGE	n/a	5	18	[0, 0, 0]	n/a	catFR1	1	R1286J
2970.655	1.6	2947360	WORD	n/a	wordpools/wordpool_categorized_EN.txt	COOKIE	Desserts	6	18	[0, 0, 0]	n/a	catFR1	1	R1286J
2972.272	0.832	2948977	WORD_OFF	n/a	n/a	COOKIE	n/a	6	18	[0, 0, 0]	n/a	catFR1	1	R1286J
2973.104	1.6	2949809	WORD	n/a	wordpools/wordpool_categorized_EN.txt	EYE	BodyParts	7	18	[0, 0, 0]	n/a	catFR1	1	R1286J
2974.721	0.967	2951426	WORD_OFF	n/a	n/a	EYE	n/a	7	18	[0, 0, 0]	n/a	catFR1	1	R1286J
2975.688	1.6	2952393	WORD	n/a	wordpools/wordpool_categorized_EN.txt	FOOT	BodyParts	8	18	[0, 0, 0]	n/a	catFR1	1	R1286J
2977.305	0.9	2954010	WORD_OFF	n/a	n/a	FOOT	n/a	8	18	[0, 0, 0]	n/a	catFR1	1	R1286J
2978.205	1.6	2954909	WORD	n/a	wordpools/wordpool_categorized_EN.txt	SLINKY	Toys	9	18	[0, 0, 0]	n/a	catFR1	1	R1286J
2979.822	0.784	2956526	WORD_OFF	n/a	n/a	SLINKY	n/a	9	18	[0, 0, 0]	n/a	catFR1	1	R1286J
2980.606	1.6	2957310	WORD	n/a	wordpools/wordpool_categorized_EN.txt	MARBLES	Toys	10	18	[0, 0, 0]	n/a	catFR1	1	R1286J
2982.222	0.984	2958926	WORD_OFF	n/a	n/a	MARBLES	n/a	10	18	[0, 0, 0]	n/a	catFR1	1	R1286J
2983.206	1.6	2959910	WORD	n/a	wordpools/wordpool_categorized_EN.txt	PIE	Desserts	11	18	[0, 0, 0]	n/a	catFR1	1	R1286J
2984.823	0.916	2961527	WORD_OFF	n/a	n/a	PIE	n/a	11	18	[0, 0, 0]	n/a	catFR1	1	R1286J
2985.739	1.6	2962443	WORD	n/a	wordpools/wordpool_categorized_EN.txt	CUPCAKE	Desserts	12	18	[0, 0, 0]	n/a	catFR1	1	R1286J
2987.357	0.001	2964061	WORD_OFF	n/a	n/a	CUPCAKE	n/a	12	18	[0, 0, 0]	n/a	catFR1	1	R1286J
2987.358	0.071	2964062	ENCODING_END	n/a	n/a	n/a	n/a	-999	18	[0, 0, 0]	n/a	catFR1	1	R1286J
2987.429	0.0	2964133	DISTRACT_START	n/a	n/a	n/a	n/a	-999	18	[0, 0, 0]	n/a	catFR1	1	R1286J
2987.429	0.012	2964133	START	n/a	n/a	n/a	n/a	-999	18	[-999, -999, -999]	n/a	catFR1	1	R1286J
2987.441	12.301	2964145	PROB	12.261	n/a	n/a	n/a	-999	18	[9, 1, 5]	15.0	catFR1	1	R1286J
2999.742	7.838	2976446	PROB	7.838	n/a	n/a	n/a	-999	18	[5, 7, 9]	21.0	catFR1	1	R1286J
3007.58	0.014	2984283	STOP	n/a	n/a	n/a	n/a	-999	18	[-999, -999, -999]	n/a	catFR1	1	R1286J
3007.594	0.667	2984297	DISTRACT_END	n/a	n/a	n/a	n/a	-999	18	[0, 0, 0]	n/a	catFR1	1	R1286J
3008.261	0.516	2984964	RETRIEVAL_ORIENT	n/a	n/a	n/a	n/a	-999	18	[0, 0, 0]	n/a	catFR1	1	R1286J
3008.777	2.806	2985480	REC_START	n/a	n/a	n/a	n/a	-999	18	[0, 0, 0]	n/a	catFR1	1	R1286J
3011.583	1.066	2988286	REC_WORD	2.806	n/a	ELBOW	BodyParts	3	18	[0, 0, 0]	n/a	catFR1	1	R1286J
3012.649	1.559	2989352	REC_WORD	3.872	n/a	LAKE	n/a	-999	18	[0, 0, 0]	n/a	catFR1	1	R1286J
3014.208	2.116	2990911	REC_WORD	5.431	n/a	MOUNTAIN	n/a	-999	18	[0, 0, 0]	n/a	catFR1	1	R1286J
3016.324	22.462	2993027	REC_WORD	7.547	n/a	LIME	n/a	-999	18	[0, 0, 0]	n/a	catFR1	1	R1286J
3038.786	1.514	3015488	REC_END	n/a	n/a	n/a	n/a	-999	18	[0, 0, 0]	n/a	catFR1	1	R1286J
3040.3	0.0	3017002	TRIAL	n/a	n/a	n/a	n/a	-999	19	[0, 0, 0]	n/a	catFR1	1	R1286J
3040.3	10.0	3017002	COUNTDOWN_START	n/a	n/a	n/a	n/a	-999	19	[0, 0, 0]	n/a	catFR1	1	R1286J
3050.728	0.006	3027430	COUNTDOWN_END	n/a	n/a	n/a	n/a	-999	19	[0, 0, 0]	n/a	catFR1	1	R1286J
3050.734	1.6	3027436	ORIENT	n/a	n/a	n/a	n/a	-999	19	[0, 0, 0]	n/a	catFR1	1	R1286J
3052.352	2.067	3029054	ORIENT_OFF	n/a	n/a	n/a	n/a	-999	19	[0, 0, 0]	n/a	catFR1	1	R1286J
3054.419	1.6	3031121	WORD	n/a	wordpools/wordpool_categorized_EN.txt	PHONE	Electronics	1	19	[0, 0, 0]	n/a	catFR1	1	R1286J
3056.035	0.966	3032737	WORD_OFF	n/a	n/a	PHONE	n/a	1	19	[0, 0, 0]	n/a	catFR1	1	R1286J
3057.001	1.6	3033703	WORD	n/a	wordpools/wordpool_categorized_EN.txt	COMPUTER	Electronics	2	19	[0, 0, 0]	n/a	catFR1	1	R1286J
3058.619	0.884	3035321	WORD_OFF	n/a	n/a	COMPUTER	n/a	2	19	[0, 0, 0]	n/a	catFR1	1	R1286J
3059.503	1.6	3036205	WORD	n/a	wordpools/wordpool_categorized_EN.txt	HEAD	BodyParts	3	19	[0, 0, 0]	n/a	catFR1	1	R1286J
3061.119	0.883	3037821	WORD_OFF	n/a	n/a	HEAD	n/a	3	19	[0, 0, 0]	n/a	catFR1	1	R1286J
3062.002	1.6	3038704	WORD	n/a	wordpools/wordpool_categorized_EN.txt	ARM	BodyParts	4	19	[0, 0, 0]	n/a	catFR1	1	R1286J
3063.604	0.933	3040306	WORD_OFF	n/a	n/a	ARM	n/a	4	19	[0, 0, 0]	n/a	catFR1	1	R1286J
3064.537	1.6	3041239	WORD	n/a	wordpools/wordpool_categorized_EN.txt	GUITAR	Instruments	5	19	[0, 0, 0]	n/a	catFR1	1	R1286J
3066.153	0.9	3042854	WORD_OFF	n/a	n/a	GUITAR	n/a	5	19	[0, 0, 0]	n/a	catFR1	1	R1286J
3067.053	1.6	3043754	WORD	n/a	wordpools/wordpool_categorized_EN.txt	FLUTE	Instruments	6	19	[0, 0, 0]	n/a	catFR1	1	R1286J
3068.67	0.868	3045371	WORD_OFF	n/a	n/a	FLUTE	n/a	6	19	[0, 0, 0]	n/a	catFR1	1	R1286J
3069.538	1.6	3046239	WORD	n/a	wordpools/wordpool_categorized_EN.txt	TOE	BodyParts	7	19	[0, 0, 0]	n/a	catFR1	1	R1286J
3071.154	0.767	3047855	WORD_OFF	n/a	n/a	TOE	n/a	7	19	[0, 0, 0]	n/a	catFR1	1	R1286J
3071.921	1.6	3048622	WORD	n/a	wordpools/wordpool_categorized_EN.txt	KNEE	BodyParts	8	19	[0, 0, 0]	n/a	catFR1	1	R1286J
3073.539	0.916	3050240	WORD_OFF	n/a	n/a	KNEE	n/a	8	19	[0, 0, 0]	n/a	catFR1	1	R1286J
3074.455	1.6	3051156	WORD	n/a	wordpools/wordpool_categorized_EN.txt	TABLET	Electronics	9	19	[0, 0, 0]	n/a	catFR1	1	R1286J
3076.071	0.984	3052772	WORD_OFF	n/a	n/a	TABLET	n/a	9	19	[0, 0, 0]	n/a	catFR1	1	R1286J
3077.055	1.6	3053756	WORD	n/a	wordpools/wordpool_categorized_EN.txt	SPEAKER	Electronics	10	19	[0, 0, 0]	n/a	catFR1	1	R1286J
3078.672	0.968	3055373	WORD_OFF	n/a	n/a	SPEAKER	n/a	10	19	[0, 0, 0]	n/a	catFR1	1	R1286J
3079.64	1.6	3056341	WORD	n/a	wordpools/wordpool_categorized_EN.txt	VIOLIN	Instruments	11	19	[0, 0, 0]	n/a	catFR1	1	R1286J
3081.257	0.932	3057958	WORD_OFF	n/a	n/a	VIOLIN	n/a	11	19	[0, 0, 0]	n/a	catFR1	1	R1286J
3082.189	1.6	3058890	WORD	n/a	wordpools/wordpool_categorized_EN.txt	BASS	Instruments	12	19	[0, 0, 0]	n/a	catFR1	1	R1286J
3083.806	0.0	3060507	ENCODING_END	n/a	n/a	n/a	n/a	-999	19	[0, 0, 0]	n/a	catFR1	1	R1286J
3083.806	0.101	3060507	WORD_OFF	n/a	n/a	BASS	n/a	12	19	[0, 0, 0]	n/a	catFR1	1	R1286J
3083.907	0.0	3060608	DISTRACT_START	n/a	n/a	n/a	n/a	-999	19	[0, 0, 0]	n/a	catFR1	1	R1286J
3083.907	0.016	3060608	START	n/a	n/a	n/a	n/a	-999	19	[-999, -999, -999]	n/a	catFR1	1	R1286J
3083.923	9.402	3060624	PROB	9.374	n/a	n/a	n/a	-999	19	[7, 4, 5]	16.0	catFR1	1	R1286J
3093.325	5.085	3070026	PROB	5.06	n/a	n/a	n/a	-999	19	[9, 7, 1]	17.0	catFR1	1	R1286J
3098.41	5.349	3075110	PROB	5.325	n/a	n/a	n/a	-999	19	[8, 6, 9]	23.0	catFR1	1	R1286J
3103.759	7.508	3080459	PROB	7.508	n/a	n/a	n/a	-999	19	[8, 7, 3]	18.0	catFR1	1	R1286J
3111.267	0.012	3087967	STOP	n/a	n/a	n/a	n/a	-999	19	[-999, -999, -999]	n/a	catFR1	1	R1286J
3111.279	0.699	3087979	DISTRACT_END	n/a	n/a	n/a	n/a	-999	19	[0, 0, 0]	n/a	catFR1	1	R1286J
3111.978	0.518	3088678	RETRIEVAL_ORIENT	n/a	n/a	n/a	n/a	-999	19	[0, 0, 0]	n/a	catFR1	1	R1286J
3112.496	5.278	3089196	REC_START	n/a	n/a	n/a	n/a	-999	19	[0, 0, 0]	n/a	catFR1	1	R1286J
3117.774	1.844	3094474	REC_WORD	5.278	n/a	ARM	BodyParts	4	19	[0, 0, 0]	n/a	catFR1	1	R1286J
3119.618	8.962	3096318	REC_WORD	7.122	n/a	TOE	BodyParts	7	19	[0, 0, 0]	n/a	catFR1	1	R1286J
3128.58	2.046	3105279	REC_WORD	16.084	n/a	MOUNTAIN	n/a	-999	19	[0, 0, 0]	n/a	catFR1	1	R1286J
3130.626	11.881	3107325	REC_WORD	18.13	n/a	CUPCAKE	n/a	-999	19	[0, 0, 0]	n/a	catFR1	1	R1286J
3142.507	1.76	3119206	REC_END	n/a	n/a	n/a	n/a	-999	19	[0, 0, 0]	n/a	catFR1	1	R1286J
3144.267	0.0	3120966	TRIAL	n/a	n/a	n/a	n/a	-999	20	[0, 0, 0]	n/a	catFR1	1	R1286J
3144.267	10.0	3120966	COUNTDOWN_START	n/a	n/a	n/a	n/a	-999	20	[0, 0, 0]	n/a	catFR1	1	R1286J
3154.695	0.006	3131394	COUNTDOWN_END	n/a	n/a	n/a	n/a	-999	20	[0, 0, 0]	n/a	catFR1	1	R1286J
3154.701	1.6	3131400	ORIENT	n/a	n/a	n/a	n/a	-999	20	[0, 0, 0]	n/a	catFR1	1	R1286J
3156.302	2.151	3133000	ORIENT_OFF	n/a	n/a	n/a	n/a	-999	20	[0, 0, 0]	n/a	catFR1	1	R1286J
3158.453	1.6	3135151	WORD	n/a	wordpools/wordpool_categorized_EN.txt	BLOCKS	Toys	1	20	[0, 0, 0]	n/a	catFR1	1	R1286J
3160.069	0.95	3136767	WORD_OFF	n/a	n/a	BLOCKS	n/a	1	20	[0, 0, 0]	n/a	catFR1	1	R1286J
3161.019	1.6	3137717	WORD	n/a	wordpools/wordpool_categorized_EN.txt	BASKETBALL	Toys	2	20	[0, 0, 0]	n/a	catFR1	1	R1286J
3162.637	0.917	3139335	WORD_OFF	n/a	n/a	BASKETBALL	n/a	2	20	[0, 0, 0]	n/a	catFR1	1	R1286J
3163.554	1.6	3140252	WORD	n/a	wordpools/wordpool_categorized_EN.txt	TURKEY	FarmAnimals	3	20	[0, 0, 0]	n/a	catFR1	1	R1286J
3165.17	0.917	3141868	WORD_OFF	n/a	n/a	TURKEY	n/a	3	20	[0, 0, 0]	n/a	catFR1	1	R1286J
3166.087	1.6	3142785	WORD	n/a	wordpools/wordpool_categorized_EN.txt	CALF	FarmAnimals	4	20	[0, 0, 0]	n/a	catFR1	1	R1286J
3167.704	1.0	3144402	WORD_OFF	n/a	n/a	CALF	n/a	4	20	[0, 0, 0]	n/a	catFR1	1	R1286J
3168.704	1.6	3145402	WORD	n/a	wordpools/wordpool_categorized_EN.txt	STRAWBERRY	Fruit	5	20	[0, 0, 0]	n/a	catFR1	1	R1286J
3170.322	0.765	3147020	WORD_OFF	n/a	n/a	STRAWBERRY	n/a	5	20	[0, 0, 0]	n/a	catFR1	1	R1286J
3171.087	1.6	3147785	WORD	n/a	wordpools/wordpool_categorized_EN.txt	ORANGE	Fruit	6	20	[0, 0, 0]	n/a	catFR1	1	R1286J
3172.704	0.768	3149402	WORD_OFF	n/a	n/a	ORANGE	n/a	6	20	[0, 0, 0]	n/a	catFR1	1	R1286J
3173.472	1.6	3150170	WORD	n/a	wordpools/wordpool_categorized_EN.txt	FOOTBALL	Toys	7	20	[0, 0, 0]	n/a	catFR1	1	R1286J
3175.088	0.967	3151786	WORD_OFF	n/a	n/a	FOOTBALL	n/a	7	20	[0, 0, 0]	n/a	catFR1	1	R1286J
3176.055	1.6	3152753	WORD	n/a	wordpools/wordpool_categorized_EN.txt	BARBIE	Toys	8	20	[0, 0, 0]	n/a	catFR1	1	R1286J
3177.656	0.85	3154354	WORD_OFF	n/a	n/a	BARBIE	n/a	8	20	[0, 0, 0]	n/a	catFR1	1	R1286J
3178.506	1.6	3155204	WORD	n/a	wordpools/wordpool_categorized_EN.txt	PIG	FarmAnimals	9	20	[0, 0, 0]	n/a	catFR1	1	R1286J
3180.122	0.967	3156820	WORD_OFF	n/a	n/a	PIG	n/a	9	20	[0, 0, 0]	n/a	catFR1	1	R1286J
3181.089	1.6	3157787	WORD	n/a	wordpools/wordpool_categorized_EN.txt	SHEEP	FarmAnimals	10	20	[0, 0, 0]	n/a	catFR1	1	R1286J
3182.706	0.768	3159404	WORD_OFF	n/a	n/a	SHEEP	n/a	10	20	[0, 0, 0]	n/a	catFR1	1	R1286J
3183.474	1.6	3160172	WORD	n/a	wordpools/wordpool_categorized_EN.txt	BANANA	Fruit	11	20	[0, 0, 0]	n/a	catFR1	1	R1286J
3185.09	0.767	3161787	WORD_OFF	n/a	n/a	BANANA	n/a	11	20	[0, 0, 0]	n/a	catFR1	1	R1286J
3185.857	1.6	3162554	WORD	n/a	wordpools/wordpool_categorized_EN.txt	APPLE	Fruit	12	20	[0, 0, 0]	n/a	catFR1	1	R1286J
3187.475	0.0	3164172	WORD_OFF	n/a	n/a	APPLE	n/a	12	20	[0, 0, 0]	n/a	catFR1	1	R1286J
3187.475	0.072	3164172	ENCODING_END	n/a	n/a	n/a	n/a	-999	20	[0, 0, 0]	n/a	catFR1	1	R1286J
3187.547	0.0	3164244	DISTRACT_START	n/a	n/a	n/a	n/a	-999	20	[0, 0, 0]	n/a	catFR1	1	R1286J
3187.547	0.011	3164244	START	n/a	n/a	n/a	n/a	-999	20	[-999, -999, -999]	n/a	catFR1	1	R1286J
3187.558	10.417	3164255	PROB	10.378	n/a	n/a	n/a	-999	20	[2, 7, 6]	15.0	catFR1	1	R1286J
3197.975	5.652	3174672	PROB	5.62	n/a	n/a	n/a	-999	20	[2, 8, 4]	14.0	catFR1	1	R1286J
3203.627	8.277	3180324	PROB	8.277	n/a	n/a	n/a	-999	20	[4, 4, 7]	15.0	catFR1	1	R1286J
3211.904	0.007	3188601	STOP	n/a	n/a	n/a	n/a	-999	20	[-999, -999, -999]	n/a	catFR1	1	R1286J
3211.911	0.551	3188608	DISTRACT_END	n/a	n/a	n/a	n/a	-999	20	[0, 0, 0]	n/a	catFR1	1	R1286J
3212.462	0.517	3189159	RETRIEVAL_ORIENT	n/a	n/a	n/a	n/a	-999	20	[0, 0, 0]	n/a	catFR1	1	R1286J
3212.979	3.231	3189676	REC_START	n/a	n/a	n/a	n/a	-999	20	[0, 0, 0]	n/a	catFR1	1	R1286J
3216.21	2.793	3192906	REC_WORD	3.231	n/a	TURKEY	FarmAnimals	3	20	[0, 0, 0]	n/a	catFR1	1	R1286J
3219.003	3.296	3195699	REC_WORD	6.024	n/a	PIG	FarmAnimals	9	20	[0, 0, 0]	n/a	catFR1	1	R1286J
3222.299	6.688	3198995	REC_WORD	9.32	n/a	SHEEP	FarmAnimals	10	20	[0, 0, 0]	n/a	catFR1	1	R1286J
3228.987	3.705	3205683	REC_WORD	16.008	n/a	GUITAR	n/a	-999	20	[0, 0, 0]	n/a	catFR1	1	R1286J
3232.692	2.973	3209388	REC_WORD_VV	19.713	n/a	<>	n/a	-999	20	[0, 0, 0]	n/a	catFR1	1	R1286J
3235.665	6.081	3212361	REC_WORD	22.686	n/a	GOAT	n/a	-999	20	[0, 0, 0]	n/a	catFR1	1	R1286J
3241.746	1.244	3218442	REC_WORD	28.767	n/a	BASKETBALL	Toys	2	20	[0, 0, 0]	n/a	catFR1	1	R1286J
3242.99	2.478	3219686	REC_END	n/a	n/a	n/a	n/a	-999	20	[0, 0, 0]	n/a	catFR1	1	R1286J
3245.468	0.0	3222163	TRIAL	n/a	n/a	n/a	n/a	-999	21	[0, 0, 0]	n/a	catFR1	1	R1286J
3245.468	10.0	3222163	COUNTDOWN_START	n/a	n/a	n/a	n/a	-999	21	[0, 0, 0]	n/a	catFR1	1	R1286J
3255.896	0.006	3232591	COUNTDOWN_END	n/a	n/a	n/a	n/a	-999	21	[0, 0, 0]	n/a	catFR1	1	R1286J
3255.902	1.6	3232597	ORIENT	n/a	n/a	n/a	n/a	-999	21	[0, 0, 0]	n/a	catFR1	1	R1286J
3257.52	2.166	3234215	ORIENT_OFF	n/a	n/a	n/a	n/a	-999	21	[0, 0, 0]	n/a	catFR1	1	R1286J
3259.686	1.6	3236381	WORD	n/a	wordpools/wordpool_categorized_EN.txt	CHAIR	Furniture	1	21	[0, 0, 0]	n/a	catFR1	1	R1286J
3261.304	0.983	3237999	WORD_OFF	n/a	n/a	CHAIR	n/a	1	21	[0, 0, 0]	n/a	catFR1	1	R1286J
3262.287	1.6	3238982	WORD	n/a	wordpools/wordpool_categorized_EN.txt	SHELF	Furniture	2	21	[0, 0, 0]	n/a	catFR1	1	R1286J
3263.903	0.867	3240598	WORD_OFF	n/a	n/a	SHELF	n/a	2	21	[0, 0, 0]	n/a	catFR1	1	R1286J
3264.77	1.6	3241465	WORD	n/a	wordpools/wordpool_categorized_EN.txt	CHERRY	Fruit	3	21	[0, 0, 0]	n/a	catFR1	1	R1286J
3266.388	0.933	3243083	WORD_OFF	n/a	n/a	CHERRY	n/a	3	21	[0, 0, 0]	n/a	catFR1	1	R1286J
3267.321	1.6	3244016	WORD	n/a	wordpools/wordpool_categorized_EN.txt	GRAPE	Fruit	4	21	[0, 0, 0]	n/a	catFR1	1	R1286J
3268.937	0.951	3245632	WORD_OFF	n/a	n/a	GRAPE	n/a	4	21	[0, 0, 0]	n/a	catFR1	1	R1286J
3269.888	1.6	3246583	WORD	n/a	wordpools/wordpool_categorized_EN.txt	PLANKTON	OceanAnimals	5	21	[0, 0, 0]	n/a	catFR1	1	R1286J
3271.505	0.817	3248200	WORD_OFF	n/a	n/a	PLANKTON	n/a	5	21	[0, 0, 0]	n/a	catFR1	1	R1286J
3272.322	1.6	3249017	WORD	n/a	wordpools/wordpool_categorized_EN.txt	FISH	OceanAnimals	6	21	[0, 0, 0]	n/a	catFR1	1	R1286J
3273.938	0.95	3250632	WORD_OFF	n/a	n/a	FISH	n/a	6	21	[0, 0, 0]	n/a	catFR1	1	R1286J
3274.888	1.6	3251582	WORD	n/a	wordpools/wordpool_categorized_EN.txt	PLUM	Fruit	7	21	[0, 0, 0]	n/a	catFR1	1	R1286J
3276.49	0.9	3253184	WORD_OFF	n/a	n/a	PLUM	n/a	7	21	[0, 0, 0]	n/a	catFR1	1	R1286J
3277.39	1.6	3254084	WORD	n/a	wordpools/wordpool_categorized_EN.txt	PEAR	Fruit	8	21	[0, 0, 0]	n/a	catFR1	1	R1286J
3279.006	0.883	3255700	WORD_OFF	n/a	n/a	PEAR	n/a	8	21	[0, 0, 0]	n/a	catFR1	1	R1286J
3279.889	1.6	3256583	WORD	n/a	wordpools/wordpool_categorized_EN.txt	RECLINER	Furniture	9	21	[0, 0, 0]	n/a	catFR1	1	R1286J
3281.507	0.884	3258201	WORD_OFF	n/a	n/a	RECLINER	n/a	9	21	[0, 0, 0]	n/a	catFR1	1	R1286J
3282.391	1.6	3259085	WORD	n/a	wordpools/wordpool_categorized_EN.txt	COUCH	Furniture	10	21	[0, 0, 0]	n/a	catFR1	1	R1286J
3284.007	0.933	3260701	WORD_OFF	n/a	n/a	COUCH	n/a	10	21	[0, 0, 0]	n/a	catFR1	1	R1286J
3284.94	1.6	3261634	WORD	n/a	wordpools/wordpool_categorized_EN.txt	LOBSTER	OceanAnimals	11	21	[0, 0, 0]	n/a	catFR1	1	R1286J
3286.558	1.0	3263252	WORD_OFF	n/a	n/a	LOBSTER	n/a	11	21	[0, 0, 0]	n/a	catFR1	1	R1286J
3287.558	1.6	3264252	WORD	n/a	wordpools/wordpool_categorized_EN.txt	DOLPHIN	OceanAnimals	12	21	[0, 0, 0]	n/a	catFR1	1	R1286J
3289.174	0.0	3265868	ENCODING_END	n/a	n/a	n/a	n/a	-999	21	[0, 0, 0]	n/a	catFR1	1	R1286J
3289.174	0.072	3265868	WORD_OFF	n/a	n/a	DOLPHIN	n/a	12	21	[0, 0, 0]	n/a	catFR1	1	R1286J
3289.246	0.0	3265940	DISTRACT_START	n/a	n/a	n/a	n/a	-999	21	[0, 0, 0]	n/a	catFR1	1	R1286J
3289.246	0.013	3265940	START	n/a	n/a	n/a	n/a	-999	21	[-999, -999, -999]	n/a	catFR1	1	R1286J
3289.259	13.085	3265953	PROB	13.048	n/a	n/a	n/a	-999	21	[8, 4, 2]	14.0	catFR1	1	R1286J
3302.344	6.945	3279038	PROB	6.945	n/a	n/a	n/a	-999	21	[4, 2, 3]	9.0	catFR1	1	R1286J
3309.289	0.023	3285982	STOP	n/a	n/a	n/a	n/a	-999	21	[-999, -999, -999]	n/a	catFR1	1	R1286J
3309.312	0.699	3286005	DISTRACT_END	n/a	n/a	n/a	n/a	-999	21	[0, 0, 0]	n/a	catFR1	1	R1286J
3310.011	0.518	3286704	RETRIEVAL_ORIENT	n/a	n/a	n/a	n/a	-999	21	[0, 0, 0]	n/a	catFR1	1	R1286J
3310.529	1.486	3287222	REC_START	n/a	n/a	n/a	n/a	-999	21	[0, 0, 0]	n/a	catFR1	1	R1286J
3312.015	1.544	3288708	REC_WORD	1.486	n/a	CHAIR	Furniture	1	21	[0, 0, 0]	n/a	catFR1	1	R1286J
3313.559	1.733	3290252	REC_WORD	3.03	n/a	SHELF	Furniture	2	21	[0, 0, 0]	n/a	catFR1	1	R1286J
3315.292	2.565	3291985	REC_WORD	4.763	n/a	FISH	OceanAnimals	6	21	[0, 0, 0]	n/a	catFR1	1	R1286J
3317.857	2.323	3294550	REC_WORD	7.328	n/a	PLUM	Fruit	7	21	[0, 0, 0]	n/a	catFR1	1	R1286J
3320.18	5.574	3296873	REC_WORD	9.651	n/a	COUCH	Furniture	10	21	[0, 0, 0]	n/a	catFR1	1	R1286J
3325.754	14.787	3302447	REC_WORD	15.225	n/a	LOBSTER	OceanAnimals	11	21	[0, 0, 0]	n/a	catFR1	1	R1286J
3340.541	1.81	3317233	REC_END	n/a	n/a	n/a	n/a	-999	21	[0, 0, 0]	n/a	catFR1	1	R1286J
3342.351	0.0	3319043	TRIAL	n/a	n/a	n/a	n/a	-999	22	[0, 0, 0]	n/a	catFR1	1	R1286J
3342.351	10.0	3319043	COUNTDOWN_START	n/a	n/a	n/a	n/a	-999	22	[0, 0, 0]	n/a	catFR1	1	R1286J
3352.779	0.006	3329471	COUNTDOWN_END	n/a	n/a	n/a	n/a	-999	22	[0, 0, 0]	n/a	catFR1	1	R1286J
3352.785	1.6	3329477	ORIENT	n/a	n/a	n/a	n/a	-999	22	[0, 0, 0]	n/a	catFR1	1	R1286J
3354.403	2.299	3331095	ORIENT_OFF	n/a	n/a	n/a	n/a	-999	22	[0, 0, 0]	n/a	catFR1	1	R1286J
3356.702	1.6	3333394	WORD	n/a	wordpools/wordpool_categorized_EN.txt	BEER	Beverages	1	22	[0, 0, 0]	n/a	catFR1	1	R1286J
3358.32	0.849	3335012	WORD_OFF	n/a	n/a	BEER	n/a	1	22	[0, 0, 0]	n/a	catFR1	1	R1286J
3359.169	1.6	3335861	WORD	n/a	wordpools/wordpool_categorized_EN.txt	COFFEE	Beverages	2	22	[0, 0, 0]	n/a	catFR1	1	R1286J
3360.786	0.801	3337478	WORD_OFF	n/a	n/a	COFFEE	n/a	2	22	[0, 0, 0]	n/a	catFR1	1	R1286J
3361.587	1.6	3338278	WORD	n/a	wordpools/wordpool_categorized_EN.txt	NOSE	BodyParts	3	22	[0, 0, 0]	n/a	catFR1	1	R1286J
3363.203	0.851	3339894	WORD_OFF	n/a	n/a	NOSE	n/a	3	22	[0, 0, 0]	n/a	catFR1	1	R1286J
3364.054	1.6	3340745	WORD	n/a	wordpools/wordpool_categorized_EN.txt	FINGERS	BodyParts	4	22	[0, 0, 0]	n/a	catFR1	1	R1286J
3365.67	0.835	3342361	WORD_OFF	n/a	n/a	FINGERS	n/a	4	22	[0, 0, 0]	n/a	catFR1	1	R1286J
3366.505	1.6	3343196	WORD	n/a	wordpools/wordpool_categorized_EN.txt	VALLEY	Landscapes	5	22	[0, 0, 0]	n/a	catFR1	1	R1286J
3368.121	0.933	3344812	WORD_OFF	n/a	n/a	VALLEY	n/a	5	22	[0, 0, 0]	n/a	catFR1	1	R1286J
3369.054	1.6	3345745	WORD	n/a	wordpools/wordpool_categorized_EN.txt	BEACH	Landscapes	6	22	[0, 0, 0]	n/a	catFR1	1	R1286J
3370.671	1.0	3347362	WORD_OFF	n/a	n/a	BEACH	n/a	6	22	[0, 0, 0]	n/a	catFR1	1	R1286J
3371.671	1.6	3348362	WORD	n/a	wordpools/wordpool_categorized_EN.txt	JUICE	Beverages	7	22	[0, 0, 0]	n/a	catFR1	1	R1286J
