onset	duration	sample	trial_type	response_time	stim_file	item_name	category	serialpos	list	test	answer	experiment	session	subject
0.0	0.0	9321	INSTRUCT_START	n/a	n/a	n/a	n/a	-999	-999	[0, 0, 0]	n/a	catFR1	2	R1274T
0.0	10.883	9321	INSTRUCT_END	n/a	n/a	n/a	n/a	-999	-999	[0, 0, 0]	n/a	catFR1	2	R1274T
10.883	0.0	20203	SESS_START	n/a	n/a	n/a	n/a	-999	-999	[0, 0, 0]	n/a	catFR1	2	R1274T
10.883	16.501	20203	MIC_TEST	n/a	n/a	n/a	n/a	-999	-999	[0, 0, 0]	n/a	catFR1	2	R1274T
27.384	4.905	36703	PRACTICE_TRIAL	n/a	n/a	n/a	n/a	-999	-1	[0, 0, 0]	n/a	catFR1	2	R1274T
32.289	10.428	41608	COUNTDOWN_START	n/a	n/a	n/a	n/a	-999	-1	[0, 0, 0]	n/a	catFR1	2	R1274T
42.717	0.007	52035	COUNTDOWN_END	n/a	n/a	n/a	n/a	-999	-1	[0, 0, 0]	n/a	catFR1	2	R1274T
42.724	1.618	52042	PRACTICE_ORIENT	n/a	n/a	n/a	n/a	-999	-1	[0, 0, 0]	n/a	catFR1	2	R1274T
44.342	2.017	53660	PRACTICE_ORIENT_OFF	n/a	n/a	n/a	n/a	-999	-1	[0, 0, 0]	n/a	catFR1	2	R1274T
46.359	1.616	55677	PRACTICE_WORD	n/a	n/a	BEAM	n/a	-1	-1	[0, 0, 0]	n/a	catFR1	2	R1274T
47.975	0.9	57293	PRACTICE_WORD_OFF	n/a	n/a	BEAM	n/a	-999	-1	[0, 0, 0]	n/a	catFR1	2	R1274T
48.875	1.618	58193	PRACTICE_WORD	n/a	n/a	ATTIC	n/a	-1	-1	[0, 0, 0]	n/a	catFR1	2	R1274T
50.493	0.984	59811	PRACTICE_WORD_OFF	n/a	n/a	ATTIC	n/a	-999	-1	[0, 0, 0]	n/a	catFR1	2	R1274T
51.477	1.616	60795	PRACTICE_WORD	n/a	n/a	CHEST	n/a	-1	-1	[0, 0, 0]	n/a	catFR1	2	R1274T
53.093	0.783	62411	PRACTICE_WORD_OFF	n/a	n/a	CHEST	n/a	-999	-1	[0, 0, 0]	n/a	catFR1	2	R1274T
53.876	1.602	63194	PRACTICE_WORD	n/a	n/a	FLOOD	n/a	-1	-1	[0, 0, 0]	n/a	catFR1	2	R1274T
55.478	0.9	64795	PRACTICE_WORD_OFF	n/a	n/a	FLOOD	n/a	-999	-1	[0, 0, 0]	n/a	catFR1	2	R1274T
56.378	1.616	65695	PRACTICE_WORD	n/a	n/a	TONGUE	n/a	-1	-1	[0, 0, 0]	n/a	catFR1	2	R1274T
57.994	0.833	67311	PRACTICE_WORD_OFF	n/a	n/a	TONGUE	n/a	-999	-1	[0, 0, 0]	n/a	catFR1	2	R1274T
58.827	1.601	68144	PRACTICE_WORD	n/a	n/a	IRON	n/a	-1	-1	[0, 0, 0]	n/a	catFR1	2	R1274T
60.428	0.867	69745	PRACTICE_WORD_OFF	n/a	n/a	IRON	n/a	-999	-1	[0, 0, 0]	n/a	catFR1	2	R1274T
61.295	1.616	70612	PRACTICE_WORD	n/a	n/a	RING	n/a	-1	-1	[0, 0, 0]	n/a	catFR1	2	R1274T
62.911	0.967	72228	PRACTICE_WORD_OFF	n/a	n/a	RING	n/a	-999	-1	[0, 0, 0]	n/a	catFR1	2	R1274T
63.878	1.618	73195	PRACTICE_WORD	n/a	n/a	WATCH	n/a	-1	-1	[0, 0, 0]	n/a	catFR1	2	R1274T
65.496	1.0	74813	PRACTICE_WORD_OFF	n/a	n/a	WATCH	n/a	-999	-1	[0, 0, 0]	n/a	catFR1	2	R1274T
66.496	1.617	75813	PRACTICE_WORD	n/a	n/a	CAMEL	n/a	-1	-1	[0, 0, 0]	n/a	catFR1	2	R1274T
68.113	0.783	77430	PRACTICE_WORD_OFF	n/a	n/a	CAMEL	n/a	-999	-1	[0, 0, 0]	n/a	catFR1	2	R1274T
68.896	1.618	78213	PRACTICE_WORD	n/a	n/a	COTTON	n/a	-1	-1	[0, 0, 0]	n/a	catFR1	2	R1274T
70.514	0.783	79831	PRACTICE_WORD_OFF	n/a	n/a	COTTON	n/a	-999	-1	[0, 0, 0]	n/a	catFR1	2	R1274T
71.297	1.616	80613	PRACTICE_WORD	n/a	n/a	RHINO	n/a	-1	-1	[0, 0, 0]	n/a	catFR1	2	R1274T
72.913	0.984	82229	PRACTICE_WORD_OFF	n/a	n/a	RHINO	n/a	-999	-1	[0, 0, 0]	n/a	catFR1	2	R1274T
73.897	1.618	83213	PRACTICE_WORD	n/a	n/a	WAGON	n/a	-1	-1	[0, 0, 0]	n/a	catFR1	2	R1274T
75.515	0.0	84831	ENCODING_END	n/a	n/a	n/a	n/a	-999	-1	[0, 0, 0]	n/a	catFR1	2	R1274T
75.515	0.0	84831	PRACTICE_WORD_OFF	n/a	n/a	WAGON	n/a	-999	-1	[0, 0, 0]	n/a	catFR1	2	R1274T
75.515	0.0	84831	DISTRACT_START	n/a	n/a	n/a	n/a	-999	-1	[0, 0, 0]	n/a	catFR1	2	R1274T
75.515	0.016	84831	START	n/a	n/a	n/a	n/a	-999	-1	[-999, -999, -999]	n/a	catFR1	2	R1274T
75.531	20.214	84847	PROB	20.214	n/a	n/a	n/a	-999	-1	[3, 3, 2]	8	catFR1	2	R1274T
95.745	0.023	105060	STOP	n/a	n/a	n/a	n/a	-999	-1	[-999, -999, -999]	n/a	catFR1	2	R1274T
95.768	0.65	105083	DISTRACT_END	n/a	n/a	n/a	n/a	-999	-1	[0, 0, 0]	n/a	catFR1	2	R1274T
96.418	0.52	105733	RETRIEVAL_ORIENT	n/a	n/a	n/a	n/a	-999	-1	[0, 0, 0]	n/a	catFR1	2	R1274T
96.938	30.011	106253	PRACTICE_REC_START	n/a	n/a	n/a	n/a	-999	-1	[0, 0, 0]	n/a	catFR1	2	R1274T
126.949	13.71	136262	PRACTICE_REC_END	n/a	n/a	n/a	n/a	-999	-1	[0, 0, 0]	n/a	catFR1	2	R1274T
140.659	0.5	149971	TRIAL	n/a	n/a	n/a	n/a	-999	1	[0, 0, 0]	n/a	catFR1	2	R1274T
141.159	10.428	150471	COUNTDOWN_START	n/a	n/a	n/a	n/a	-999	1	[0, 0, 0]	n/a	catFR1	2	R1274T
151.587	0.008	160899	COUNTDOWN_END	n/a	n/a	n/a	n/a	-999	1	[0, 0, 0]	n/a	catFR1	2	R1274T
151.595	1.617	160907	ORIENT	n/a	n/a	n/a	n/a	-999	1	[0, 0, 0]	n/a	catFR1	2	R1274T
153.212	2.134	162523	ORIENT_OFF	n/a	n/a	n/a	n/a	-999	1	[0, 0, 0]	n/a	catFR1	2	R1274T
155.346	1.616	164657	WORD	n/a	wordpools/wordpool_categorized_EN.txt	CALF	FarmAnimals	1	1	[0, 0, 0]	n/a	catFR1	2	R1274T
156.962	0.783	166273	WORD_OFF	n/a	n/a	CALF	n/a	1	1	[0, 0, 0]	n/a	catFR1	2	R1274T
157.745	1.601	167056	WORD	n/a	wordpools/wordpool_categorized_EN.txt	SHEEP	FarmAnimals	2	1	[0, 0, 0]	n/a	catFR1	2	R1274T
159.346	0.834	168657	WORD_OFF	n/a	n/a	SHEEP	n/a	2	1	[0, 0, 0]	n/a	catFR1	2	R1274T
160.18	1.616	169491	WORD	n/a	wordpools/wordpool_categorized_EN.txt	PEN	OfficeSupplies	3	1	[0, 0, 0]	n/a	catFR1	2	R1274T
161.796	0.801	171107	WORD_OFF	n/a	n/a	PEN	n/a	3	1	[0, 0, 0]	n/a	catFR1	2	R1274T
162.597	1.617	171908	WORD	n/a	wordpools/wordpool_categorized_EN.txt	PENCIL	OfficeSupplies	4	1	[0, 0, 0]	n/a	catFR1	2	R1274T
164.214	0.9	173525	WORD_OFF	n/a	n/a	PENCIL	n/a	4	1	[0, 0, 0]	n/a	catFR1	2	R1274T
165.114	1.616	174425	WORD	n/a	wordpools/wordpool_categorized_EN.txt	TOASTER	Appliances	5	1	[0, 0, 0]	n/a	catFR1	2	R1274T
166.73	0.967	176041	WORD_OFF	n/a	n/a	TOASTER	n/a	5	1	[0, 0, 0]	n/a	catFR1	2	R1274T
167.697	1.618	177008	WORD	n/a	wordpools/wordpool_categorized_EN.txt	REFRIGERATOR	Appliances	6	1	[0, 0, 0]	n/a	catFR1	2	R1274T
169.315	0.85	178625	WORD_OFF	n/a	n/a	REFRIGERATOR	n/a	6	1	[0, 0, 0]	n/a	catFR1	2	R1274T
170.165	1.616	179475	WORD	n/a	wordpools/wordpool_categorized_EN.txt	RULER	OfficeSupplies	7	1	[0, 0, 0]	n/a	catFR1	2	R1274T
171.781	0.9	181091	WORD_OFF	n/a	n/a	RULER	n/a	7	1	[0, 0, 0]	n/a	catFR1	2	R1274T
172.681	1.601	181991	WORD	n/a	wordpools/wordpool_categorized_EN.txt	STAPLER	OfficeSupplies	8	1	[0, 0, 0]	n/a	catFR1	2	R1274T
174.282	0.783	183592	WORD_OFF	n/a	n/a	STAPLER	n/a	8	1	[0, 0, 0]	n/a	catFR1	2	R1274T
175.065	1.617	184375	WORD	n/a	wordpools/wordpool_categorized_EN.txt	HORSE	FarmAnimals	9	1	[0, 0, 0]	n/a	catFR1	2	R1274T
176.682	1.0	185992	WORD_OFF	n/a	n/a	HORSE	n/a	9	1	[0, 0, 0]	n/a	catFR1	2	R1274T
177.682	1.618	186992	WORD	n/a	wordpools/wordpool_categorized_EN.txt	GOAT	FarmAnimals	10	1	[0, 0, 0]	n/a	catFR1	2	R1274T
179.3	1.017	188610	WORD_OFF	n/a	n/a	GOAT	n/a	10	1	[0, 0, 0]	n/a	catFR1	2	R1274T
180.317	1.616	189627	WORD	n/a	wordpools/wordpool_categorized_EN.txt	BLENDER	Appliances	11	1	[0, 0, 0]	n/a	catFR1	2	R1274T
181.933	0.95	191243	WORD_OFF	n/a	n/a	BLENDER	n/a	11	1	[0, 0, 0]	n/a	catFR1	2	R1274T
182.883	1.618	192193	WORD	n/a	wordpools/wordpool_categorized_EN.txt	WASHER	Appliances	12	1	[0, 0, 0]	n/a	catFR1	2	R1274T
184.501	0.0	193811	ENCODING_END	n/a	n/a	n/a	n/a	-999	1	[0, 0, 0]	n/a	catFR1	2	R1274T
184.501	0.133	193811	WORD_OFF	n/a	n/a	WASHER	n/a	12	1	[0, 0, 0]	n/a	catFR1	2	R1274T
184.634	0.0	193944	DISTRACT_START	n/a	n/a	n/a	n/a	-999	1	[0, 0, 0]	n/a	catFR1	2	R1274T
184.634	0.016	193944	START	n/a	n/a	n/a	n/a	-999	1	[-999, -999, -999]	n/a	catFR1	2	R1274T
184.65	8.919	193960	PROB	8.919	n/a	n/a	n/a	-999	1	[3, 7, 2]	12	catFR1	2	R1274T
193.569	3.884	202878	PROB	3.884	n/a	n/a	n/a	-999	1	[2, 4, 2]	8	catFR1	2	R1274T
197.453	17.372	206762	PROB	17.372	n/a	n/a	n/a	-999	1	[9, 9, 7]	25	catFR1	2	R1274T
214.825	0.014	224133	STOP	n/a	n/a	n/a	n/a	-999	1	[-999, -999, -999]	n/a	catFR1	2	R1274T
214.839	0.534	224147	DISTRACT_END	n/a	n/a	n/a	n/a	-999	1	[0, 0, 0]	n/a	catFR1	2	R1274T
215.373	0.517	224681	RETRIEVAL_ORIENT	n/a	n/a	n/a	n/a	-999	1	[0, 0, 0]	n/a	catFR1	2	R1274T
215.89	2.628	225198	REC_START	n/a	n/a	n/a	n/a	-999	1	[0, 0, 0]	n/a	catFR1	2	R1274T
218.518	1.72	227825	REC_WORD	1.72	n/a	CALF	FarmAnimals	1	1	[0, 0, 0]	n/a	catFR1	2	R1274T
220.238	1.339	229545	REC_WORD	1.339	n/a	SHEEP	FarmAnimals	2	1	[0, 0, 0]	n/a	catFR1	2	R1274T
221.577	1.367	230884	REC_WORD	1.367	n/a	GOAT	FarmAnimals	10	1	[0, 0, 0]	n/a	catFR1	2	R1274T
222.944	22.955	232251	REC_WORD	22.955	n/a	HORSE	FarmAnimals	9	1	[0, 0, 0]	n/a	catFR1	2	R1274T
245.899	5.913	255205	REC_END	n/a	n/a	n/a	n/a	-999	1	[0, 0, 0]	n/a	catFR1	2	R1274T
251.812	0.5	261117	TRIAL	n/a	n/a	n/a	n/a	-999	2	[0, 0, 0]	n/a	catFR1	2	R1274T
252.312	10.428	261617	COUNTDOWN_START	n/a	n/a	n/a	n/a	-999	2	[0, 0, 0]	n/a	catFR1	2	R1274T
262.74	0.008	272045	COUNTDOWN_END	n/a	n/a	n/a	n/a	-999	2	[0, 0, 0]	n/a	catFR1	2	R1274T
262.748	1.617	272053	ORIENT	n/a	n/a	n/a	n/a	-999	2	[0, 0, 0]	n/a	catFR1	2	R1274T
264.365	2.35	273670	ORIENT_OFF	n/a	n/a	n/a	n/a	-999	2	[0, 0, 0]	n/a	catFR1	2	R1274T
266.715	1.618	276019	WORD	n/a	wordpools/wordpool_categorized_EN.txt	WHISK	KitchenTools	1	2	[0, 0, 0]	n/a	catFR1	2	R1274T
268.333	0.783	277637	WORD_OFF	n/a	n/a	WHISK	n/a	1	2	[0, 0, 0]	n/a	catFR1	2	R1274T
269.116	1.616	278420	WORD	n/a	wordpools/wordpool_categorized_EN.txt	LADLE	KitchenTools	2	2	[0, 0, 0]	n/a	catFR1	2	R1274T
270.732	0.868	280036	WORD_OFF	n/a	n/a	LADLE	n/a	2	2	[0, 0, 0]	n/a	catFR1	2	R1274T
271.6	1.617	280904	WORD	n/a	wordpools/wordpool_categorized_EN.txt	FUDGE	Desserts	3	2	[0, 0, 0]	n/a	catFR1	2	R1274T
273.217	0.833	282521	WORD_OFF	n/a	n/a	FUDGE	n/a	3	2	[0, 0, 0]	n/a	catFR1	2	R1274T
274.05	1.617	283354	WORD	n/a	wordpools/wordpool_categorized_EN.txt	CHEESECAKE	Desserts	4	2	[0, 0, 0]	n/a	catFR1	2	R1274T
275.667	0.834	284971	WORD_OFF	n/a	n/a	CHEESECAKE	n/a	4	2	[0, 0, 0]	n/a	catFR1	2	R1274T
276.501	1.617	285805	WORD	n/a	wordpools/wordpool_categorized_EN.txt	CHICKEN	FarmAnimals	5	2	[0, 0, 0]	n/a	catFR1	2	R1274T
278.118	0.766	287422	WORD_OFF	n/a	n/a	CHICKEN	n/a	5	2	[0, 0, 0]	n/a	catFR1	2	R1274T
278.884	1.618	288188	WORD	n/a	wordpools/wordpool_categorized_EN.txt	BULL	FarmAnimals	6	2	[0, 0, 0]	n/a	catFR1	2	R1274T
280.502	0.917	289806	WORD_OFF	n/a	n/a	BULL	n/a	6	2	[0, 0, 0]	n/a	catFR1	2	R1274T
281.419	1.615	290723	WORD	n/a	wordpools/wordpool_categorized_EN.txt	FORK	KitchenTools	7	2	[0, 0, 0]	n/a	catFR1	2	R1274T
283.034	1.001	292338	WORD_OFF	n/a	n/a	FORK	n/a	7	2	[0, 0, 0]	n/a	catFR1	2	R1274T
284.035	1.617	293338	WORD	n/a	wordpools/wordpool_categorized_EN.txt	PEELER	KitchenTools	8	2	[0, 0, 0]	n/a	catFR1	2	R1274T
285.652	0.934	294955	WORD_OFF	n/a	n/a	PEELER	n/a	8	2	[0, 0, 0]	n/a	catFR1	2	R1274T
286.586	1.617	295889	WORD	n/a	wordpools/wordpool_categorized_EN.txt	PUDDING	Desserts	9	2	[0, 0, 0]	n/a	catFR1	2	R1274T
288.203	0.783	297506	WORD_OFF	n/a	n/a	PUDDING	n/a	9	2	[0, 0, 0]	n/a	catFR1	2	R1274T
288.986	1.618	298289	WORD	n/a	wordpools/wordpool_categorized_EN.txt	CUPCAKE	Desserts	10	2	[0, 0, 0]	n/a	catFR1	2	R1274T
290.604	0.816	299907	WORD_OFF	n/a	n/a	CUPCAKE	n/a	10	2	[0, 0, 0]	n/a	catFR1	2	R1274T
291.42	1.616	300723	WORD	n/a	wordpools/wordpool_categorized_EN.txt	HEN	FarmAnimals	11	2	[0, 0, 0]	n/a	catFR1	2	R1274T
293.036	0.917	302339	WORD_OFF	n/a	n/a	HEN	n/a	11	2	[0, 0, 0]	n/a	catFR1	2	R1274T
293.953	1.618	303256	WORD	n/a	wordpools/wordpool_categorized_EN.txt	TURKEY	FarmAnimals	12	2	[0, 0, 0]	n/a	catFR1	2	R1274T
295.571	0.0	304874	WORD_OFF	n/a	n/a	TURKEY	n/a	12	2	[0, 0, 0]	n/a	catFR1	2	R1274T
295.571	0.106	304874	ENCODING_END	n/a	n/a	n/a	n/a	-999	2	[0, 0, 0]	n/a	catFR1	2	R1274T
295.677	0.0	304980	DISTRACT_START	n/a	n/a	n/a	n/a	-999	2	[0, 0, 0]	n/a	catFR1	2	R1274T
295.677	0.01	304980	START	n/a	n/a	n/a	n/a	-999	2	[-999, -999, -999]	n/a	catFR1	2	R1274T
295.687	11.052	304990	PROB	11.052	n/a	n/a	n/a	-999	2	[7, 9, 8]	24	catFR1	2	R1274T
306.739	14.029	316041	PROB	14.029	n/a	n/a	n/a	-999	2	[4, 5, 6]	15	catFR1	2	R1274T
320.768	0.007	330069	STOP	n/a	n/a	n/a	n/a	-999	2	[-999, -999, -999]	n/a	catFR1	2	R1274T
320.775	0.601	330076	DISTRACT_END	n/a	n/a	n/a	n/a	-999	2	[0, 0, 0]	n/a	catFR1	2	R1274T
321.376	0.516	330677	RETRIEVAL_ORIENT	n/a	n/a	n/a	n/a	-999	2	[0, 0, 0]	n/a	catFR1	2	R1274T
321.892	1.361	331193	REC_START	n/a	n/a	n/a	n/a	-999	2	[0, 0, 0]	n/a	catFR1	2	R1274T
323.253	1.104	332554	REC_WORD	1.104	n/a	CHICKEN	FarmAnimals	5	2	[0, 0, 0]	n/a	catFR1	2	R1274T
324.357	1.1	333658	REC_WORD	1.1	n/a	HEN	FarmAnimals	11	2	[0, 0, 0]	n/a	catFR1	2	R1274T
325.457	26.444	334758	REC_WORD	26.444	n/a	ROASTER	n/a	-999	2	[0, 0, 0]	n/a	catFR1	2	R1274T
351.901	6.698	361200	REC_END	n/a	n/a	n/a	n/a	-999	2	[0, 0, 0]	n/a	catFR1	2	R1274T
358.599	0.5	367898	TRIAL	n/a	n/a	n/a	n/a	-999	3	[0, 0, 0]	n/a	catFR1	2	R1274T
359.099	10.428	368398	COUNTDOWN_START	n/a	n/a	n/a	n/a	-999	3	[0, 0, 0]	n/a	catFR1	2	R1274T
369.527	0.008	378825	COUNTDOWN_END	n/a	n/a	n/a	n/a	-999	3	[0, 0, 0]	n/a	catFR1	2	R1274T
369.535	1.616	378833	ORIENT	n/a	n/a	n/a	n/a	-999	3	[0, 0, 0]	n/a	catFR1	2	R1274T
371.151	1.967	380449	ORIENT_OFF	n/a	n/a	n/a	n/a	-999	3	[0, 0, 0]	n/a	catFR1	2	R1274T
373.118	1.616	382416	WORD	n/a	wordpools/wordpool_categorized_EN.txt	SAW	Tools	1	3	[0, 0, 0]	n/a	catFR1	2	R1274T
374.734	0.868	384032	WORD_OFF	n/a	n/a	SAW	n/a	1	3	[0, 0, 0]	n/a	catFR1	2	R1274T
375.602	1.617	384900	WORD	n/a	wordpools/wordpool_categorized_EN.txt	PLIERS	Tools	2	3	[0, 0, 0]	n/a	catFR1	2	R1274T
377.219	0.816	386517	WORD_OFF	n/a	n/a	PLIERS	n/a	2	3	[0, 0, 0]	n/a	catFR1	2	R1274T
378.035	1.617	387333	WORD	n/a	wordpools/wordpool_categorized_EN.txt	ELEPHANT	Zoo	3	3	[0, 0, 0]	n/a	catFR1	2	R1274T
379.652	0.885	388950	WORD_OFF	n/a	n/a	ELEPHANT	n/a	3	3	[0, 0, 0]	n/a	catFR1	2	R1274T
380.537	1.616	389835	WORD	n/a	wordpools/wordpool_categorized_EN.txt	MONKEY	Zoo	4	3	[0, 0, 0]	n/a	catFR1	2	R1274T
382.153	0.95	391450	WORD_OFF	n/a	n/a	MONKEY	n/a	4	3	[0, 0, 0]	n/a	catFR1	2	R1274T
383.103	1.617	392400	WORD	n/a	wordpools/wordpool_categorized_EN.txt	BROWNIES	Desserts	5	3	[0, 0, 0]	n/a	catFR1	2	R1274T
384.72	0.933	394017	WORD_OFF	n/a	n/a	BROWNIES	n/a	5	3	[0, 0, 0]	n/a	catFR1	2	R1274T
385.653	1.618	394950	WORD	n/a	wordpools/wordpool_categorized_EN.txt	CAKE	Desserts	6	3	[0, 0, 0]	n/a	catFR1	2	R1274T
387.271	0.917	396568	WORD_OFF	n/a	n/a	CAKE	n/a	6	3	[0, 0, 0]	n/a	catFR1	2	R1274T
388.188	1.616	397485	WORD	n/a	wordpools/wordpool_categorized_EN.txt	WRENCH	Tools	7	3	[0, 0, 0]	n/a	catFR1	2	R1274T
389.804	0.95	399101	WORD_OFF	n/a	n/a	WRENCH	n/a	7	3	[0, 0, 0]	n/a	catFR1	2	R1274T
390.754	1.618	400051	WORD	n/a	wordpools/wordpool_categorized_EN.txt	HAMMER	Tools	8	3	[0, 0, 0]	n/a	catFR1	2	R1274T
392.372	0.8	401669	WORD_OFF	n/a	n/a	HAMMER	n/a	8	3	[0, 0, 0]	n/a	catFR1	2	R1274T
393.172	1.616	402469	WORD	n/a	wordpools/wordpool_categorized_EN.txt	BEAR	Zoo	9	3	[0, 0, 0]	n/a	catFR1	2	R1274T
394.788	0.85	404085	WORD_OFF	n/a	n/a	BEAR	n/a	9	3	[0, 0, 0]	n/a	catFR1	2	R1274T
395.638	1.618	404935	WORD	n/a	wordpools/wordpool_categorized_EN.txt	ORANGUTAN	Zoo	10	3	[0, 0, 0]	n/a	catFR1	2	R1274T
397.256	0.934	406553	WORD_OFF	n/a	n/a	ORANGUTAN	n/a	10	3	[0, 0, 0]	n/a	catFR1	2	R1274T
398.19	1.616	407486	WORD	n/a	wordpools/wordpool_categorized_EN.txt	PASTRY	Desserts	11	3	[0, 0, 0]	n/a	catFR1	2	R1274T
399.806	0.883	409102	WORD_OFF	n/a	n/a	PASTRY	n/a	11	3	[0, 0, 0]	n/a	catFR1	2	R1274T
400.689	1.601	409985	WORD	n/a	wordpools/wordpool_categorized_EN.txt	MOUSSE	Desserts	12	3	[0, 0, 0]	n/a	catFR1	2	R1274T
402.29	0.001	411586	WORD_OFF	n/a	n/a	MOUSSE	n/a	12	3	[0, 0, 0]	n/a	catFR1	2	R1274T
402.291	0.102	411587	ENCODING_END	n/a	n/a	n/a	n/a	-999	3	[0, 0, 0]	n/a	catFR1	2	R1274T
402.393	0.0	411689	DISTRACT_START	n/a	n/a	n/a	n/a	-999	3	[0, 0, 0]	n/a	catFR1	2	R1274T
402.393	0.014	411689	START	n/a	n/a	n/a	n/a	-999	3	[-999, -999, -999]	n/a	catFR1	2	R1274T
402.407	6.25	411703	PROB	6.25	n/a	n/a	n/a	-999	3	[2, 3, 4]	9	catFR1	2	R1274T
408.657	30.328	417953	PROB	30.328	n/a	n/a	n/a	-999	3	[7, 8, 6]	20	catFR1	2	R1274T
438.985	0.011	448279	STOP	n/a	n/a	n/a	n/a	-999	3	[-999, -999, -999]	n/a	catFR1	2	R1274T
438.996	0.518	448290	DISTRACT_END	n/a	n/a	n/a	n/a	-999	3	[0, 0, 0]	n/a	catFR1	2	R1274T
439.514	0.516	448808	RETRIEVAL_ORIENT	n/a	n/a	n/a	n/a	-999	3	[0, 0, 0]	n/a	catFR1	2	R1274T
440.03	2.092	449324	REC_START	n/a	n/a	n/a	n/a	-999	3	[0, 0, 0]	n/a	catFR1	2	R1274T
442.122	1.095	451416	REC_WORD	1.095	n/a	PLIERS	Tools	2	3	[0, 0, 0]	n/a	catFR1	2	R1274T
443.217	1.276	452511	REC_WORD	1.276	n/a	HAMMER	Tools	8	3	[0, 0, 0]	n/a	catFR1	2	R1274T
444.493	1.709	453787	REC_WORD	1.709	n/a	HAMMER	Tools	8	3	[0, 0, 0]	n/a	catFR1	2	R1274T
446.202	3.444	455496	REC_WORD	3.444	n/a	IRON	n/a	-999	3	[0, 0, 0]	n/a	catFR1	2	R1274T
449.646	20.396	458939	REC_WORD	20.396	n/a	SCREWDRIVER	n/a	-999	3	[0, 0, 0]	n/a	catFR1	2	R1274T
470.042	5.878	479334	REC_END	n/a	n/a	n/a	n/a	-999	3	[0, 0, 0]	n/a	catFR1	2	R1274T
475.92	0.5	485212	TRIAL	n/a	n/a	n/a	n/a	-999	4	[0, 0, 0]	n/a	catFR1	2	R1274T
476.42	10.428	485712	COUNTDOWN_START	n/a	n/a	n/a	n/a	-999	4	[0, 0, 0]	n/a	catFR1	2	R1274T
486.848	0.007	496139	COUNTDOWN_END	n/a	n/a	n/a	n/a	-999	4	[0, 0, 0]	n/a	catFR1	2	R1274T
486.855	1.618	496146	ORIENT	n/a	n/a	n/a	n/a	-999	4	[0, 0, 0]	n/a	catFR1	2	R1274T
488.473	2.199	497764	ORIENT_OFF	n/a	n/a	n/a	n/a	-999	4	[0, 0, 0]	n/a	catFR1	2	R1274T
490.672	1.618	499963	WORD	n/a	wordpools/wordpool_categorized_EN.txt	ROSE	Flowers	1	4	[0, 0, 0]	n/a	catFR1	2	R1274T
492.29	0.834	501581	WORD_OFF	n/a	n/a	ROSE	n/a	1	4	[0, 0, 0]	n/a	catFR1	2	R1274T
493.124	1.616	502415	WORD	n/a	wordpools/wordpool_categorized_EN.txt	LILAC	Flowers	2	4	[0, 0, 0]	n/a	catFR1	2	R1274T
494.74	0.966	504031	WORD_OFF	n/a	n/a	LILAC	n/a	2	4	[0, 0, 0]	n/a	catFR1	2	R1274T
495.706	1.601	504996	WORD	n/a	wordpools/wordpool_categorized_EN.txt	COOKIE	Desserts	3	4	[0, 0, 0]	n/a	catFR1	2	R1274T
497.307	0.783	506597	WORD_OFF	n/a	n/a	COOKIE	n/a	3	4	[0, 0, 0]	n/a	catFR1	2	R1274T
498.09	1.617	507380	WORD	n/a	wordpools/wordpool_categorized_EN.txt	JELLO	Desserts	4	4	[0, 0, 0]	n/a	catFR1	2	R1274T
499.707	0.834	508997	WORD_OFF	n/a	n/a	JELLO	n/a	4	4	[0, 0, 0]	n/a	catFR1	2	R1274T
500.541	1.618	509831	WORD	n/a	wordpools/wordpool_categorized_EN.txt	SPRUCE	Trees	5	4	[0, 0, 0]	n/a	catFR1	2	R1274T
502.159	0.849	511449	WORD_OFF	n/a	n/a	SPRUCE	n/a	5	4	[0, 0, 0]	n/a	catFR1	2	R1274T
503.008	1.617	512298	WORD	n/a	wordpools/wordpool_categorized_EN.txt	MAPLE	Trees	6	4	[0, 0, 0]	n/a	catFR1	2	R1274T
504.625	0.934	513915	WORD_OFF	n/a	n/a	MAPLE	n/a	6	4	[0, 0, 0]	n/a	catFR1	2	R1274T
505.559	1.617	514849	WORD	n/a	wordpools/wordpool_categorized_EN.txt	COBBLER	Desserts	7	4	[0, 0, 0]	n/a	catFR1	2	R1274T
507.176	0.849	516466	WORD_OFF	n/a	n/a	COBBLER	n/a	7	4	[0, 0, 0]	n/a	catFR1	2	R1274T
508.025	1.617	517315	WORD	n/a	wordpools/wordpool_categorized_EN.txt	PIE	Desserts	8	4	[0, 0, 0]	n/a	catFR1	2	R1274T
509.642	0.984	518932	WORD_OFF	n/a	n/a	PIE	n/a	8	4	[0, 0, 0]	n/a	catFR1	2	R1274T
510.626	1.601	519916	WORD	n/a	wordpools/wordpool_categorized_EN.txt	DAISY	Flowers	9	4	[0, 0, 0]	n/a	catFR1	2	R1274T
512.227	0.984	521516	WORD_OFF	n/a	n/a	DAISY	n/a	9	4	[0, 0, 0]	n/a	catFR1	2	R1274T
513.211	1.616	522500	WORD	n/a	wordpools/wordpool_categorized_EN.txt	MARIGOLD	Flowers	10	4	[0, 0, 0]	n/a	catFR1	2	R1274T
514.827	0.95	524116	WORD_OFF	n/a	n/a	MARIGOLD	n/a	10	4	[0, 0, 0]	n/a	catFR1	2	R1274T
515.777	1.618	525066	WORD	n/a	wordpools/wordpool_categorized_EN.txt	ELM	Trees	11	4	[0, 0, 0]	n/a	catFR1	2	R1274T
517.395	0.95	526684	WORD_OFF	n/a	n/a	ELM	n/a	11	4	[0, 0, 0]	n/a	catFR1	2	R1274T
518.345	1.616	527634	WORD	n/a	wordpools/wordpool_categorized_EN.txt	HICKORY	Trees	12	4	[0, 0, 0]	n/a	catFR1	2	R1274T
519.961	0.0	529250	WORD_OFF	n/a	n/a	HICKORY	n/a	12	4	[0, 0, 0]	n/a	catFR1	2	R1274T
519.961	0.132	529250	ENCODING_END	n/a	n/a	n/a	n/a	-999	4	[0, 0, 0]	n/a	catFR1	2	R1274T
520.093	0.0	529382	DISTRACT_START	n/a	n/a	n/a	n/a	-999	4	[0, 0, 0]	n/a	catFR1	2	R1274T
520.093	0.019	529382	START	n/a	n/a	n/a	n/a	-999	4	[-999, -999, -999]	n/a	catFR1	2	R1274T
520.112	8.984	529401	PROB	8.984	n/a	n/a	n/a	-999	4	[1, 6, 9]	16	catFR1	2	R1274T
529.096	3.667	538384	PROB	3.667	n/a	n/a	n/a	-999	4	[2, 8, 1]	11	catFR1	2	R1274T
532.763	4.519	542051	PROB	4.519	n/a	n/a	n/a	-999	4	[1, 2, 5]	8	catFR1	2	R1274T
537.282	5.04	546570	PROB	5.04	n/a	n/a	n/a	-999	4	[9, 6, 1]	16	catFR1	2	R1274T
542.322	0.011	551610	STOP	n/a	n/a	n/a	n/a	-999	4	[-999, -999, -999]	n/a	catFR1	2	R1274T
542.333	0.599	551621	DISTRACT_END	n/a	n/a	n/a	n/a	-999	4	[0, 0, 0]	n/a	catFR1	2	R1274T
542.932	0.518	552220	RETRIEVAL_ORIENT	n/a	n/a	n/a	n/a	-999	4	[0, 0, 0]	n/a	catFR1	2	R1274T
543.45	2.5	552738	REC_START	n/a	n/a	n/a	n/a	-999	4	[0, 0, 0]	n/a	catFR1	2	R1274T
545.95	2.17	555237	REC_WORD	2.17	n/a	SPRUCE	Trees	5	4	[0, 0, 0]	n/a	catFR1	2	R1274T
548.12	7.248	557407	REC_WORD	7.248	n/a	MAPLE	Trees	6	4	[0, 0, 0]	n/a	catFR1	2	R1274T
555.368	18.092	564655	REC_WORD	18.092	n/a	HICKORY	Trees	12	4	[0, 0, 0]	n/a	catFR1	2	R1274T
573.46	8.013	582746	REC_END	n/a	n/a	n/a	n/a	-999	4	[0, 0, 0]	n/a	catFR1	2	R1274T
581.473	0.5	590758	TRIAL	n/a	n/a	n/a	n/a	-999	5	[0, 0, 0]	n/a	catFR1	2	R1274T
581.973	10.428	591258	COUNTDOWN_START	n/a	n/a	n/a	n/a	-999	5	[0, 0, 0]	n/a	catFR1	2	R1274T
592.401	0.007	601686	COUNTDOWN_END	n/a	n/a	n/a	n/a	-999	5	[0, 0, 0]	n/a	catFR1	2	R1274T
592.408	1.616	601693	ORIENT	n/a	n/a	n/a	n/a	-999	5	[0, 0, 0]	n/a	catFR1	2	R1274T
594.024	2.067	603308	ORIENT_OFF	n/a	n/a	n/a	n/a	-999	5	[0, 0, 0]	n/a	catFR1	2	R1274T
596.091	1.617	605375	WORD	n/a	wordpools/wordpool_categorized_EN.txt	DOVE	Birds	1	5	[0, 0, 0]	n/a	catFR1	2	R1274T
597.708	0.885	606992	WORD_OFF	n/a	n/a	DOVE	n/a	1	5	[0, 0, 0]	n/a	catFR1	2	R1274T
598.593	1.617	607877	WORD	n/a	wordpools/wordpool_categorized_EN.txt	DUCK	Birds	2	5	[0, 0, 0]	n/a	catFR1	2	R1274T
600.21	0.882	609494	WORD_OFF	n/a	n/a	DUCK	n/a	2	5	[0, 0, 0]	n/a	catFR1	2	R1274T
601.092	1.617	610376	WORD	n/a	wordpools/wordpool_categorized_EN.txt	NOTEBOOK	OfficeSupplies	3	5	[0, 0, 0]	n/a	catFR1	2	R1274T
602.709	0.801	611993	WORD_OFF	n/a	n/a	NOTEBOOK	n/a	3	5	[0, 0, 0]	n/a	catFR1	2	R1274T
603.51	1.617	612794	WORD	n/a	wordpools/wordpool_categorized_EN.txt	FOLDER	OfficeSupplies	4	5	[0, 0, 0]	n/a	catFR1	2	R1274T
605.127	0.883	614411	WORD_OFF	n/a	n/a	FOLDER	n/a	4	5	[0, 0, 0]	n/a	catFR1	2	R1274T
606.01	1.617	615294	WORD	n/a	wordpools/wordpool_categorized_EN.txt	WINE	Beverages	5	5	[0, 0, 0]	n/a	catFR1	2	R1274T
607.627	0.818	616911	WORD_OFF	n/a	n/a	WINE	n/a	5	5	[0, 0, 0]	n/a	catFR1	2	R1274T
608.445	1.616	617729	WORD	n/a	wordpools/wordpool_categorized_EN.txt	MILK	Beverages	6	5	[0, 0, 0]	n/a	catFR1	2	R1274T
610.061	0.983	619344	WORD_OFF	n/a	n/a	MILK	n/a	6	5	[0, 0, 0]	n/a	catFR1	2	R1274T
611.044	1.617	620327	WORD	n/a	wordpools/wordpool_categorized_EN.txt	ROBIN	Birds	7	5	[0, 0, 0]	n/a	catFR1	2	R1274T
612.661	0.801	621944	WORD_OFF	n/a	n/a	ROBIN	n/a	7	5	[0, 0, 0]	n/a	catFR1	2	R1274T
613.462	1.616	622745	WORD	n/a	wordpools/wordpool_categorized_EN.txt	SEAGULL	Birds	8	5	[0, 0, 0]	n/a	catFR1	2	R1274T
615.078	1.0	624361	WORD_OFF	n/a	n/a	SEAGULL	n/a	8	5	[0, 0, 0]	n/a	catFR1	2	R1274T
616.078	1.617	625361	WORD	n/a	wordpools/wordpool_categorized_EN.txt	ERASER	OfficeSupplies	9	5	[0, 0, 0]	n/a	catFR1	2	R1274T
617.695	0.967	626978	WORD_OFF	n/a	n/a	ERASER	n/a	9	5	[0, 0, 0]	n/a	catFR1	2	R1274T
618.662	1.618	627945	WORD	n/a	wordpools/wordpool_categorized_EN.txt	TAPE	OfficeSupplies	10	5	[0, 0, 0]	n/a	catFR1	2	R1274T
620.28	0.766	629563	WORD_OFF	n/a	n/a	TAPE	n/a	10	5	[0, 0, 0]	n/a	catFR1	2	R1274T
621.046	1.617	630329	WORD	n/a	wordpools/wordpool_categorized_EN.txt	TEA	Beverages	11	5	[0, 0, 0]	n/a	catFR1	2	R1274T
622.663	1.017	631946	WORD_OFF	n/a	n/a	TEA	n/a	11	5	[0, 0, 0]	n/a	catFR1	2	R1274T
623.68	1.618	632963	WORD	n/a	wordpools/wordpool_categorized_EN.txt	RUM	Beverages	12	5	[0, 0, 0]	n/a	catFR1	2	R1274T
625.298	0.0	634581	ENCODING_END	n/a	n/a	n/a	n/a	-999	5	[0, 0, 0]	n/a	catFR1	2	R1274T
625.298	0.103	634581	WORD_OFF	n/a	n/a	RUM	n/a	12	5	[0, 0, 0]	n/a	catFR1	2	R1274T
625.401	0.0	634684	DISTRACT_START	n/a	n/a	n/a	n/a	-999	5	[0, 0, 0]	n/a	catFR1	2	R1274T
625.401	0.013	634684	START	n/a	n/a	n/a	n/a	-999	5	[-999, -999, -999]	n/a	catFR1	2	R1274T
625.414	6.101	634697	PROB	6.101	n/a	n/a	n/a	-999	5	[2, 1, 1]	4	catFR1	2	R1274T
631.515	6.334	640797	PROB	6.334	n/a	n/a	n/a	-999	5	[4, 6, 9]	19	catFR1	2	R1274T
637.849	4.585	647131	PROB	4.585	n/a	n/a	n/a	-999	5	[2, 7, 4]	13	catFR1	2	R1274T
642.434	14.342	651715	PROB	14.342	n/a	n/a	n/a	-999	5	[5, 9, 2]	16	catFR1	2	R1274T
656.776	0.01	666057	STOP	n/a	n/a	n/a	n/a	-999	5	[-999, -999, -999]	n/a	catFR1	2	R1274T
656.786	0.584	666067	DISTRACT_END	n/a	n/a	n/a	n/a	-999	5	[0, 0, 0]	n/a	catFR1	2	R1274T
657.37	0.517	666651	RETRIEVAL_ORIENT	n/a	n/a	n/a	n/a	-999	5	[0, 0, 0]	n/a	catFR1	2	R1274T
657.887	2.688	667168	REC_START	n/a	n/a	n/a	n/a	-999	5	[0, 0, 0]	n/a	catFR1	2	R1274T
660.575	1.004	669855	REC_WORD	1.004	n/a	DUCK	Birds	2	5	[0, 0, 0]	n/a	catFR1	2	R1274T
661.579	26.318	670859	REC_WORD	26.318	n/a	DOVE	Birds	1	5	[0, 0, 0]	n/a	catFR1	2	R1274T
687.897	5.845	697176	REC_END	n/a	n/a	n/a	n/a	-999	5	[0, 0, 0]	n/a	catFR1	2	R1274T
693.742	0.5	703020	TRIAL	n/a	n/a	n/a	n/a	-999	6	[0, 0, 0]	n/a	catFR1	2	R1274T
694.242	10.428	703520	COUNTDOWN_START	n/a	n/a	n/a	n/a	-999	6	[0, 0, 0]	n/a	catFR1	2	R1274T
704.67	0.008	713948	COUNTDOWN_END	n/a	n/a	n/a	n/a	-999	6	[0, 0, 0]	n/a	catFR1	2	R1274T
704.678	1.618	713956	ORIENT	n/a	n/a	n/a	n/a	-999	6	[0, 0, 0]	n/a	catFR1	2	R1274T
706.296	2.133	715574	ORIENT_OFF	n/a	n/a	n/a	n/a	-999	6	[0, 0, 0]	n/a	catFR1	2	R1274T
708.429	1.616	717706	WORD	n/a	wordpools/wordpool_categorized_EN.txt	CEILING	Building	1	6	[0, 0, 0]	n/a	catFR1	2	R1274T
710.045	0.934	719322	WORD_OFF	n/a	n/a	CEILING	n/a	1	6	[0, 0, 0]	n/a	catFR1	2	R1274T
710.979	1.618	720256	WORD	n/a	wordpools/wordpool_categorized_EN.txt	WINDOW	Building	2	6	[0, 0, 0]	n/a	catFR1	2	R1274T
712.597	0.983	721874	WORD_OFF	n/a	n/a	WINDOW	n/a	2	6	[0, 0, 0]	n/a	catFR1	2	R1274T
713.58	1.617	722857	WORD	n/a	wordpools/wordpool_categorized_EN.txt	GRAPE	Fruit	3	6	[0, 0, 0]	n/a	catFR1	2	R1274T
715.197	0.883	724474	WORD_OFF	n/a	n/a	GRAPE	n/a	3	6	[0, 0, 0]	n/a	catFR1	2	R1274T
716.08	1.617	725357	WORD	n/a	wordpools/wordpool_categorized_EN.txt	PLUM	Fruit	4	6	[0, 0, 0]	n/a	catFR1	2	R1274T
717.697	0.967	726974	WORD_OFF	n/a	n/a	PLUM	n/a	4	6	[0, 0, 0]	n/a	catFR1	2	R1274T
718.664	1.601	727941	WORD	n/a	wordpools/wordpool_categorized_EN.txt	HURRICANE	Weather	5	6	[0, 0, 0]	n/a	catFR1	2	R1274T
720.265	0.933	729542	WORD_OFF	n/a	n/a	HURRICANE	n/a	5	6	[0, 0, 0]	n/a	catFR1	2	R1274T
721.198	1.616	730475	WORD	n/a	wordpools/wordpool_categorized_EN.txt	DRIZZLE	Weather	6	6	[0, 0, 0]	n/a	catFR1	2	R1274T
722.814	0.817	732091	WORD_OFF	n/a	n/a	DRIZZLE	n/a	6	6	[0, 0, 0]	n/a	catFR1	2	R1274T
723.631	1.601	732908	WORD	n/a	wordpools/wordpool_categorized_EN.txt	LIME	Fruit	7	6	[0, 0, 0]	n/a	catFR1	2	R1274T
725.232	0.8	734508	WORD_OFF	n/a	n/a	LIME	n/a	7	6	[0, 0, 0]	n/a	catFR1	2	R1274T
726.032	1.617	735308	WORD	n/a	wordpools/wordpool_categorized_EN.txt	PEAR	Fruit	8	6	[0, 0, 0]	n/a	catFR1	2	R1274T
727.649	0.784	736925	WORD_OFF	n/a	n/a	PEAR	n/a	8	6	[0, 0, 0]	n/a	catFR1	2	R1274T
728.433	1.616	737709	WORD	n/a	wordpools/wordpool_categorized_EN.txt	FOUNDATION	Building	9	6	[0, 0, 0]	n/a	catFR1	2	R1274T
730.049	0.884	739325	WORD_OFF	n/a	n/a	FOUNDATION	n/a	9	6	[0, 0, 0]	n/a	catFR1	2	R1274T
730.933	1.618	740209	WORD	n/a	wordpools/wordpool_categorized_EN.txt	ROOF	Building	10	6	[0, 0, 0]	n/a	catFR1	2	R1274T
732.551	0.833	741827	WORD_OFF	n/a	n/a	ROOF	n/a	10	6	[0, 0, 0]	n/a	catFR1	2	R1274T
733.384	1.616	742660	WORD	n/a	wordpools/wordpool_categorized_EN.txt	FOG	Weather	11	6	[0, 0, 0]	n/a	catFR1	2	R1274T
735.0	0.967	744276	WORD_OFF	n/a	n/a	FOG	n/a	11	6	[0, 0, 0]	n/a	catFR1	2	R1274T
735.967	1.601	745243	WORD	n/a	wordpools/wordpool_categorized_EN.txt	CLOUD	Weather	12	6	[0, 0, 0]	n/a	catFR1	2	R1274T
737.568	0.0	746844	ENCODING_END	n/a	n/a	n/a	n/a	-999	6	[0, 0, 0]	n/a	catFR1	2	R1274T
737.568	0.139	746844	WORD_OFF	n/a	n/a	CLOUD	n/a	12	6	[0, 0, 0]	n/a	catFR1	2	R1274T
737.707	0.0	746983	DISTRACT_START	n/a	n/a	n/a	n/a	-999	6	[0, 0, 0]	n/a	catFR1	2	R1274T
737.707	0.01	746983	START	n/a	n/a	n/a	n/a	-999	6	[-999, -999, -999]	n/a	catFR1	2	R1274T
737.717	9.619	746993	PROB	9.619	n/a	n/a	n/a	-999	6	[8, 1, 3]	12	catFR1	2	R1274T
747.336	16.93	756611	PROB	16.93	n/a	n/a	n/a	-999	6	[8, 3, 9]	20	catFR1	2	R1274T
764.266	0.007	773540	STOP	n/a	n/a	n/a	n/a	-999	6	[-999, -999, -999]	n/a	catFR1	2	R1274T
764.273	0.516	773547	DISTRACT_END	n/a	n/a	n/a	n/a	-999	6	[0, 0, 0]	n/a	catFR1	2	R1274T
764.789	0.518	774063	RETRIEVAL_ORIENT	n/a	n/a	n/a	n/a	-999	6	[0, 0, 0]	n/a	catFR1	2	R1274T
765.307	3.735	774581	REC_START	n/a	n/a	n/a	n/a	-999	6	[0, 0, 0]	n/a	catFR1	2	R1274T
769.042	1.54	778316	REC_WORD	1.54	n/a	CEILING	Building	1	6	[0, 0, 0]	n/a	catFR1	2	R1274T
770.582	1.557	779856	REC_WORD	1.557	n/a	EDGE	n/a	-999	6	[0, 0, 0]	n/a	catFR1	2	R1274T
772.139	0.347	781413	REC_WORD_VV	0.347	n/a	<>	n/a	-999	6	[0, 0, 0]	n/a	catFR1	2	R1274T
772.486	1.206	781760	REC_WORD	1.206	n/a	EDGING	n/a	-999	6	[0, 0, 0]	n/a	catFR1	2	R1274T
773.692	1.424	782965	REC_WORD	1.424	n/a	HARDWARE	n/a	-999	6	[0, 0, 0]	n/a	catFR1	2	R1274T
775.116	20.2	784389	REC_WORD	20.2	n/a	ROOFING	n/a	-999	6	[0, 0, 0]	n/a	catFR1	2	R1274T
795.316	5.413	804588	REC_END	n/a	n/a	n/a	n/a	-999	6	[0, 0, 0]	n/a	catFR1	2	R1274T
800.729	0.5	810001	TRIAL	n/a	n/a	n/a	n/a	-999	7	[0, 0, 0]	n/a	catFR1	2	R1274T
801.229	10.428	810501	COUNTDOWN_START	n/a	n/a	n/a	n/a	-999	7	[0, 0, 0]	n/a	catFR1	2	R1274T
811.657	0.007	820928	COUNTDOWN_END	n/a	n/a	n/a	n/a	-999	7	[0, 0, 0]	n/a	catFR1	2	R1274T
811.664	1.618	820935	ORIENT	n/a	n/a	n/a	n/a	-999	7	[0, 0, 0]	n/a	catFR1	2	R1274T
813.282	2.134	822553	ORIENT_OFF	n/a	n/a	n/a	n/a	-999	7	[0, 0, 0]	n/a	catFR1	2	R1274T
815.416	1.615	824687	WORD	n/a	wordpools/wordpool_categorized_EN.txt	SODA	Beverages	1	7	[0, 0, 0]	n/a	catFR1	2	R1274T
817.031	0.884	826302	WORD_OFF	n/a	n/a	SODA	n/a	1	7	[0, 0, 0]	n/a	catFR1	2	R1274T
817.915	1.618	827186	WORD	n/a	wordpools/wordpool_categorized_EN.txt	CIDER	Beverages	2	7	[0, 0, 0]	n/a	catFR1	2	R1274T
819.533	0.85	828804	WORD_OFF	n/a	n/a	CIDER	n/a	2	7	[0, 0, 0]	n/a	catFR1	2	R1274T
820.383	1.616	829654	WORD	n/a	wordpools/wordpool_categorized_EN.txt	BASS	Instruments	3	7	[0, 0, 0]	n/a	catFR1	2	R1274T
821.999	0.967	831269	WORD_OFF	n/a	n/a	BASS	n/a	3	7	[0, 0, 0]	n/a	catFR1	2	R1274T
822.966	1.618	832236	WORD	n/a	wordpools/wordpool_categorized_EN.txt	VIOLIN	Instruments	4	7	[0, 0, 0]	n/a	catFR1	2	R1274T
824.584	0.783	833854	WORD_OFF	n/a	n/a	VIOLIN	n/a	4	7	[0, 0, 0]	n/a	catFR1	2	R1274T
825.367	1.616	834637	WORD	n/a	wordpools/wordpool_categorized_EN.txt	CHERRY	Fruit	5	7	[0, 0, 0]	n/a	catFR1	2	R1274T
826.983	0.784	836253	WORD_OFF	n/a	n/a	CHERRY	n/a	5	7	[0, 0, 0]	n/a	catFR1	2	R1274T
827.767	1.618	837037	WORD	n/a	wordpools/wordpool_categorized_EN.txt	STRAWBERRY	Fruit	6	7	[0, 0, 0]	n/a	catFR1	2	R1274T
829.385	0.783	838655	WORD_OFF	n/a	n/a	STRAWBERRY	n/a	6	7	[0, 0, 0]	n/a	catFR1	2	R1274T
830.168	1.616	839438	WORD	n/a	wordpools/wordpool_categorized_EN.txt	COLA	Beverages	7	7	[0, 0, 0]	n/a	catFR1	2	R1274T
831.784	0.867	841054	WORD_OFF	n/a	n/a	COLA	n/a	7	7	[0, 0, 0]	n/a	catFR1	2	R1274T
832.651	1.618	841921	WORD	n/a	wordpools/wordpool_categorized_EN.txt	WATER	Beverages	8	7	[0, 0, 0]	n/a	catFR1	2	R1274T
834.269	0.917	843539	WORD_OFF	n/a	n/a	WATER	n/a	8	7	[0, 0, 0]	n/a	catFR1	2	R1274T
835.186	1.616	844456	WORD	n/a	wordpools/wordpool_categorized_EN.txt	TUBA	Instruments	9	7	[0, 0, 0]	n/a	catFR1	2	R1274T
836.802	0.95	846072	WORD_OFF	n/a	n/a	TUBA	n/a	9	7	[0, 0, 0]	n/a	catFR1	2	R1274T
837.752	1.618	847022	WORD	n/a	wordpools/wordpool_categorized_EN.txt	PIANO	Instruments	10	7	[0, 0, 0]	n/a	catFR1	2	R1274T
839.37	0.967	848639	WORD_OFF	n/a	n/a	PIANO	n/a	10	7	[0, 0, 0]	n/a	catFR1	2	R1274T
840.337	1.616	849606	WORD	n/a	wordpools/wordpool_categorized_EN.txt	PEACH	Fruit	11	7	[0, 0, 0]	n/a	catFR1	2	R1274T
841.953	0.85	851222	WORD_OFF	n/a	n/a	PEACH	n/a	11	7	[0, 0, 0]	n/a	catFR1	2	R1274T
842.803	1.618	852072	WORD	n/a	wordpools/wordpool_categorized_EN.txt	BANANA	Fruit	12	7	[0, 0, 0]	n/a	catFR1	2	R1274T
844.421	0.0	853690	ENCODING_END	n/a	n/a	n/a	n/a	-999	7	[0, 0, 0]	n/a	catFR1	2	R1274T
844.421	0.132	853690	WORD_OFF	n/a	n/a	BANANA	n/a	12	7	[0, 0, 0]	n/a	catFR1	2	R1274T
844.553	0.0	853822	DISTRACT_START	n/a	n/a	n/a	n/a	-999	7	[0, 0, 0]	n/a	catFR1	2	R1274T
844.553	0.018	853822	START	n/a	n/a	n/a	n/a	-999	7	[-999, -999, -999]	n/a	catFR1	2	R1274T
844.571	4.851	853840	PROB	4.851	n/a	n/a	n/a	-999	7	[7, 8, 4]	19	catFR1	2	R1274T
849.422	5.433	858691	PROB	5.433	n/a	n/a	n/a	-999	7	[9, 3, 8]	20	catFR1	2	R1274T
854.855	6.369	864123	PROB	6.369	n/a	n/a	n/a	-999	7	[5, 4, 5]	14	catFR1	2	R1274T
861.224	5.242	870492	PROB	5.242	n/a	n/a	n/a	-999	7	[3, 2, 7]	12	catFR1	2	R1274T
866.466	0.009	875734	STOP	n/a	n/a	n/a	n/a	-999	7	[-999, -999, -999]	n/a	catFR1	2	R1274T
866.475	0.683	875743	DISTRACT_END	n/a	n/a	n/a	n/a	-999	7	[0, 0, 0]	n/a	catFR1	2	R1274T
867.158	0.517	876426	RETRIEVAL_ORIENT	n/a	n/a	n/a	n/a	-999	7	[0, 0, 0]	n/a	catFR1	2	R1274T
867.675	1.827	876943	REC_START	n/a	n/a	n/a	n/a	-999	7	[0, 0, 0]	n/a	catFR1	2	R1274T
869.502	1.208	878770	REC_WORD	1.208	n/a	COLA	Beverages	7	7	[0, 0, 0]	n/a	catFR1	2	R1274T
870.71	1.815	879978	REC_WORD	1.815	n/a	WATER	Beverages	8	7	[0, 0, 0]	n/a	catFR1	2	R1274T
872.525	0.385	881792	REC_WORD_VV	0.385	n/a	<>	n/a	-999	7	[0, 0, 0]	n/a	catFR1	2	R1274T
872.91	1.483	882177	REC_WORD	1.483	n/a	VIOLIN	Instruments	4	7	[0, 0, 0]	n/a	catFR1	2	R1274T
874.393	23.292	883660	REC_WORD	23.292	n/a	PIANO	Instruments	10	7	[0, 0, 0]	n/a	catFR1	2	R1274T
897.685	7.63	906951	REC_END	n/a	n/a	n/a	n/a	-999	7	[0, 0, 0]	n/a	catFR1	2	R1274T
905.315	0.5	914580	TRIAL	n/a	n/a	n/a	n/a	-999	8	[0, 0, 0]	n/a	catFR1	2	R1274T
905.815	10.428	915080	COUNTDOWN_START	n/a	n/a	n/a	n/a	-999	8	[0, 0, 0]	n/a	catFR1	2	R1274T
916.243	0.008	925508	COUNTDOWN_END	n/a	n/a	n/a	n/a	-999	8	[0, 0, 0]	n/a	catFR1	2	R1274T
916.251	1.616	925516	ORIENT	n/a	n/a	n/a	n/a	-999	8	[0, 0, 0]	n/a	catFR1	2	R1274T
917.867	1.9	927132	ORIENT_OFF	n/a	n/a	n/a	n/a	-999	8	[0, 0, 0]	n/a	catFR1	2	R1274T
919.767	1.618	929032	WORD	n/a	wordpools/wordpool_categorized_EN.txt	LEMON	Fruit	1	8	[0, 0, 0]	n/a	catFR1	2	R1274T
921.385	0.833	930649	WORD_OFF	n/a	n/a	LEMON	n/a	1	8	[0, 0, 0]	n/a	catFR1	2	R1274T
922.218	1.616	931482	WORD	n/a	wordpools/wordpool_categorized_EN.txt	APPLE	Fruit	2	8	[0, 0, 0]	n/a	catFR1	2	R1274T
923.834	0.784	933098	WORD_OFF	n/a	n/a	APPLE	n/a	2	8	[0, 0, 0]	n/a	catFR1	2	R1274T
924.618	1.618	933882	WORD	n/a	wordpools/wordpool_categorized_EN.txt	LION	Zoo	3	8	[0, 0, 0]	n/a	catFR1	2	R1274T
926.236	0.983	935500	WORD_OFF	n/a	n/a	LION	n/a	3	8	[0, 0, 0]	n/a	catFR1	2	R1274T
927.219	1.616	936483	WORD	n/a	wordpools/wordpool_categorized_EN.txt	ZEBRA	Zoo	4	8	[0, 0, 0]	n/a	catFR1	2	R1274T
928.835	0.8	938099	WORD_OFF	n/a	n/a	ZEBRA	n/a	4	8	[0, 0, 0]	n/a	catFR1	2	R1274T
929.635	1.618	938899	WORD	n/a	wordpools/wordpool_categorized_EN.txt	DISHWASHER	Appliances	5	8	[0, 0, 0]	n/a	catFR1	2	R1274T
931.253	0.951	940517	WORD_OFF	n/a	n/a	DISHWASHER	n/a	5	8	[0, 0, 0]	n/a	catFR1	2	R1274T
932.204	1.615	941468	WORD	n/a	wordpools/wordpool_categorized_EN.txt	MIXER	Appliances	6	8	[0, 0, 0]	n/a	catFR1	2	R1274T
933.819	0.967	943083	WORD_OFF	n/a	n/a	MIXER	n/a	6	8	[0, 0, 0]	n/a	catFR1	2	R1274T
934.786	1.601	944050	WORD	n/a	wordpools/wordpool_categorized_EN.txt	ORANGE	Fruit	7	8	[0, 0, 0]	n/a	catFR1	2	R1274T
936.387	0.951	945650	WORD_OFF	n/a	n/a	ORANGE	n/a	7	8	[0, 0, 0]	n/a	catFR1	2	R1274T
937.338	1.616	946601	WORD	n/a	wordpools/wordpool_categorized_EN.txt	BLUEBERRY	Fruit	8	8	[0, 0, 0]	n/a	catFR1	2	R1274T
938.954	0.8	948217	WORD_OFF	n/a	n/a	BLUEBERRY	n/a	8	8	[0, 0, 0]	n/a	catFR1	2	R1274T
939.754	1.618	949017	WORD	n/a	wordpools/wordpool_categorized_EN.txt	CHEETAH	Zoo	9	8	[0, 0, 0]	n/a	catFR1	2	R1274T
941.372	0.9	950635	WORD_OFF	n/a	n/a	CHEETAH	n/a	9	8	[0, 0, 0]	n/a	catFR1	2	R1274T
942.272	1.616	951535	WORD	n/a	wordpools/wordpool_categorized_EN.txt	CHIMPANZEE	Zoo	10	8	[0, 0, 0]	n/a	catFR1	2	R1274T
943.888	0.9	953151	WORD_OFF	n/a	n/a	CHIMPANZEE	n/a	10	8	[0, 0, 0]	n/a	catFR1	2	R1274T
944.788	1.618	954051	WORD	n/a	wordpools/wordpool_categorized_EN.txt	DRYER	Appliances	11	8	[0, 0, 0]	n/a	catFR1	2	R1274T
946.406	0.884	955669	WORD_OFF	n/a	n/a	DRYER	n/a	11	8	[0, 0, 0]	n/a	catFR1	2	R1274T
947.29	1.615	956553	WORD	n/a	wordpools/wordpool_categorized_EN.txt	OVEN	Appliances	12	8	[0, 0, 0]	n/a	catFR1	2	R1274T
948.905	0.0	958168	WORD_OFF	n/a	n/a	OVEN	n/a	12	8	[0, 0, 0]	n/a	catFR1	2	R1274T
948.905	0.103	958168	ENCODING_END	n/a	n/a	n/a	n/a	-999	8	[0, 0, 0]	n/a	catFR1	2	R1274T
949.008	0.0	958271	DISTRACT_START	n/a	n/a	n/a	n/a	-999	8	[0, 0, 0]	n/a	catFR1	2	R1274T
949.008	0.014	958271	START	n/a	n/a	n/a	n/a	-999	8	[-999, -999, -999]	n/a	catFR1	2	R1274T
949.022	4.235	958285	PROB	4.235	n/a	n/a	n/a	-999	8	[2, 8, 6]	16	catFR1	2	R1274T
953.257	7.185	962519	PROB	7.185	n/a	n/a	n/a	-999	8	[6, 8, 8]	22	catFR1	2	R1274T
960.442	4.951	969704	PROB	4.951	n/a	n/a	n/a	-999	8	[5, 3, 6]	14	catFR1	2	R1274T
965.393	4.367	974655	PROB	4.367	n/a	n/a	n/a	-999	8	[9, 3, 2]	14	catFR1	2	R1274T
969.76	0.016	979021	STOP	n/a	n/a	n/a	n/a	-999	8	[-999, -999, -999]	n/a	catFR1	2	R1274T
969.776	0.518	979037	DISTRACT_END	n/a	n/a	n/a	n/a	-999	8	[0, 0, 0]	n/a	catFR1	2	R1274T
970.294	0.516	979555	RETRIEVAL_ORIENT	n/a	n/a	n/a	n/a	-999	8	[0, 0, 0]	n/a	catFR1	2	R1274T
970.81	3.862	980071	REC_START	n/a	n/a	n/a	n/a	-999	8	[0, 0, 0]	n/a	catFR1	2	R1274T
974.672	6.582	983933	REC_WORD	6.582	n/a	MUSTANG	n/a	-999	8	[0, 0, 0]	n/a	catFR1	2	R1274T
981.254	2.659	990515	REC_WORD	2.659	n/a	CATTLE	n/a	-999	8	[0, 0, 0]	n/a	catFR1	2	R1274T
983.913	16.906	993174	REC_WORD	16.906	n/a	CHEETAH	Zoo	9	8	[0, 0, 0]	n/a	catFR1	2	R1274T
1000.819	6.097	1010079	REC_END	n/a	n/a	n/a	n/a	-999	8	[0, 0, 0]	n/a	catFR1	2	R1274T
1006.916	0.5	1016175	TRIAL	n/a	n/a	n/a	n/a	-999	9	[0, 0, 0]	n/a	catFR1	2	R1274T
1007.416	10.428	1016675	COUNTDOWN_START	n/a	n/a	n/a	n/a	-999	9	[0, 0, 0]	n/a	catFR1	2	R1274T
1017.844	0.007	1027103	COUNTDOWN_END	n/a	n/a	n/a	n/a	-999	9	[0, 0, 0]	n/a	catFR1	2	R1274T
1017.851	1.618	1027110	ORIENT	n/a	n/a	n/a	n/a	-999	9	[0, 0, 0]	n/a	catFR1	2	R1274T
1019.469	2.1	1028727	ORIENT_OFF	n/a	n/a	n/a	n/a	-999	9	[0, 0, 0]	n/a	catFR1	2	R1274T
1021.569	1.618	1030827	WORD	n/a	wordpools/wordpool_categorized_EN.txt	THUNDER	Weather	1	9	[0, 0, 0]	n/a	catFR1	2	R1274T
1023.187	0.799	1032445	WORD_OFF	n/a	n/a	THUNDER	n/a	1	9	[0, 0, 0]	n/a	catFR1	2	R1274T
1023.986	1.618	1033244	WORD	n/a	wordpools/wordpool_categorized_EN.txt	THUNDERSTORM	Weather	2	9	[0, 0, 0]	n/a	catFR1	2	R1274T
1025.604	0.983	1034862	WORD_OFF	n/a	n/a	THUNDERSTORM	n/a	2	9	[0, 0, 0]	n/a	catFR1	2	R1274T
1026.587	1.617	1035845	WORD	n/a	wordpools/wordpool_categorized_EN.txt	ORCHID	Flowers	3	9	[0, 0, 0]	n/a	catFR1	2	R1274T
1028.204	0.816	1037462	WORD_OFF	n/a	n/a	ORCHID	n/a	3	9	[0, 0, 0]	n/a	catFR1	2	R1274T
1029.02	1.617	1038278	WORD	n/a	wordpools/wordpool_categorized_EN.txt	LILY	Flowers	4	9	[0, 0, 0]	n/a	catFR1	2	R1274T
1030.637	1.017	1039895	WORD_OFF	n/a	n/a	LILY	n/a	4	9	[0, 0, 0]	n/a	catFR1	2	R1274T
1031.654	1.618	1040912	WORD	n/a	wordpools/wordpool_categorized_EN.txt	SCREWDRIVER	Tools	5	9	[0, 0, 0]	n/a	catFR1	2	R1274T
1033.272	0.799	1042530	WORD_OFF	n/a	n/a	SCREWDRIVER	n/a	5	9	[0, 0, 0]	n/a	catFR1	2	R1274T
1034.071	1.617	1043329	WORD	n/a	wordpools/wordpool_categorized_EN.txt	DRILL	Tools	6	9	[0, 0, 0]	n/a	catFR1	2	R1274T
1035.688	0.801	1044945	WORD_OFF	n/a	n/a	DRILL	n/a	6	9	[0, 0, 0]	n/a	catFR1	2	R1274T
1036.489	1.616	1045746	WORD	n/a	wordpools/wordpool_categorized_EN.txt	RAIN	Weather	7	9	[0, 0, 0]	n/a	catFR1	2	R1274T
1038.105	0.917	1047362	WORD_OFF	n/a	n/a	RAIN	n/a	7	9	[0, 0, 0]	n/a	catFR1	2	R1274T
1039.022	1.617	1048279	WORD	n/a	wordpools/wordpool_categorized_EN.txt	SNOW	Weather	8	9	[0, 0, 0]	n/a	catFR1	2	R1274T
1040.639	0.918	1049896	WORD_OFF	n/a	n/a	SNOW	n/a	8	9	[0, 0, 0]	n/a	catFR1	2	R1274T
1041.557	1.617	1050814	WORD	n/a	wordpools/wordpool_categorized_EN.txt	PETUNIA	Flowers	9	9	[0, 0, 0]	n/a	catFR1	2	R1274T
1043.174	0.782	1052431	WORD_OFF	n/a	n/a	PETUNIA	n/a	9	9	[0, 0, 0]	n/a	catFR1	2	R1274T
1043.956	1.601	1053213	WORD	n/a	wordpools/wordpool_categorized_EN.txt	DAFFODIL	Flowers	10	9	[0, 0, 0]	n/a	catFR1	2	R1274T
1045.557	0.801	1054814	WORD_OFF	n/a	n/a	DAFFODIL	n/a	10	9	[0, 0, 0]	n/a	catFR1	2	R1274T
1046.358	1.616	1055615	WORD	n/a	wordpools/wordpool_categorized_EN.txt	LEVEL	Tools	11	9	[0, 0, 0]	n/a	catFR1	2	R1274T
1047.974	0.916	1057231	WORD_OFF	n/a	n/a	LEVEL	n/a	11	9	[0, 0, 0]	n/a	catFR1	2	R1274T
1048.89	1.618	1058147	WORD	n/a	wordpools/wordpool_categorized_EN.txt	RATCHET	Tools	12	9	[0, 0, 0]	n/a	catFR1	2	R1274T
1050.508	0.0	1059765	ENCODING_END	n/a	n/a	n/a	n/a	-999	9	[0, 0, 0]	n/a	catFR1	2	R1274T
1050.508	0.133	1059765	WORD_OFF	n/a	n/a	RATCHET	n/a	12	9	[0, 0, 0]	n/a	catFR1	2	R1274T
1050.641	0.0	1059897	DISTRACT_START	n/a	n/a	n/a	n/a	-999	9	[0, 0, 0]	n/a	catFR1	2	R1274T
1050.641	0.016	1059897	START	n/a	n/a	n/a	n/a	-999	9	[-999, -999, -999]	n/a	catFR1	2	R1274T
1050.657	20.152	1059913	PROB	20.152	n/a	n/a	n/a	-999	9	[6, 3, 6]	15	catFR1	2	R1274T
1070.809	0.019	1080064	STOP	n/a	n/a	n/a	n/a	-999	9	[-999, -999, -999]	n/a	catFR1	2	R1274T
1070.828	0.601	1080083	DISTRACT_END	n/a	n/a	n/a	n/a	-999	9	[0, 0, 0]	n/a	catFR1	2	R1274T
1071.429	0.516	1080684	RETRIEVAL_ORIENT	n/a	n/a	n/a	n/a	-999	9	[0, 0, 0]	n/a	catFR1	2	R1274T
1071.945	5.09	1081200	REC_START	n/a	n/a	n/a	n/a	-999	9	[0, 0, 0]	n/a	catFR1	2	R1274T
1077.035	0.73	1086290	REC_WORD_VV	0.73	n/a	<>	n/a	-999	9	[0, 0, 0]	n/a	catFR1	2	R1274T
1077.765	1.445	1087020	REC_WORD	1.445	n/a	DAFFODIL	Flowers	10	9	[0, 0, 0]	n/a	catFR1	2	R1274T
1079.21	4.848	1088465	REC_WORD	4.848	n/a	LILAC	n/a	-999	9	[0, 0, 0]	n/a	catFR1	2	R1274T
1084.058	1.922	1093312	REC_WORD	1.922	n/a	SCREWDRIVER	Tools	5	9	[0, 0, 0]	n/a	catFR1	2	R1274T
1085.98	1.9	1095234	REC_WORD	1.9	n/a	THUNDERSTORM	Weather	2	9	[0, 0, 0]	n/a	catFR1	2	R1274T
1087.88	1.034	1097134	REC_WORD	1.034	n/a	THUNDER	Weather	1	9	[0, 0, 0]	n/a	catFR1	2	R1274T
1088.914	13.041	1098168	REC_WORD	13.041	n/a	HURRICANE	n/a	-999	9	[0, 0, 0]	n/a	catFR1	2	R1274T
1101.955	6.531	1111208	REC_END	n/a	n/a	n/a	n/a	-999	9	[0, 0, 0]	n/a	catFR1	2	R1274T
1108.486	0.5	1117739	TRIAL	n/a	n/a	n/a	n/a	-999	10	[0, 0, 0]	n/a	catFR1	2	R1274T
1108.986	10.428	1118239	COUNTDOWN_START	n/a	n/a	n/a	n/a	-999	10	[0, 0, 0]	n/a	catFR1	2	R1274T
1119.414	0.007	1128666	COUNTDOWN_END	n/a	n/a	n/a	n/a	-999	10	[0, 0, 0]	n/a	catFR1	2	R1274T
1119.421	1.616	1128673	ORIENT	n/a	n/a	n/a	n/a	-999	10	[0, 0, 0]	n/a	catFR1	2	R1274T
1121.037	2.085	1130289	ORIENT_OFF	n/a	n/a	n/a	n/a	-999	10	[0, 0, 0]	n/a	catFR1	2	R1274T
1123.122	1.615	1132374	WORD	n/a	wordpools/wordpool_categorized_EN.txt	MOTH	Insects	1	10	[0, 0, 0]	n/a	catFR1	2	R1274T
1124.737	0.802	1133989	WORD_OFF	n/a	n/a	MOTH	n/a	1	10	[0, 0, 0]	n/a	catFR1	2	R1274T
1125.539	1.617	1134791	WORD	n/a	wordpools/wordpool_categorized_EN.txt	ROACH	Insects	2	10	[0, 0, 0]	n/a	catFR1	2	R1274T
1127.156	0.865	1136408	WORD_OFF	n/a	n/a	ROACH	n/a	2	10	[0, 0, 0]	n/a	catFR1	2	R1274T
1128.021	1.617	1137273	WORD	n/a	wordpools/wordpool_categorized_EN.txt	SKIRT	Clothing	3	10	[0, 0, 0]	n/a	catFR1	2	R1274T
1129.638	0.868	1138890	WORD_OFF	n/a	n/a	SKIRT	n/a	3	10	[0, 0, 0]	n/a	catFR1	2	R1274T
1130.506	1.617	1139758	WORD	n/a	wordpools/wordpool_categorized_EN.txt	JACKET	Clothing	4	10	[0, 0, 0]	n/a	catFR1	2	R1274T
1132.123	0.866	1141375	WORD_OFF	n/a	n/a	JACKET	n/a	4	10	[0, 0, 0]	n/a	catFR1	2	R1274T
1132.989	1.618	1142240	WORD	n/a	wordpools/wordpool_categorized_EN.txt	PINE	Trees	5	10	[0, 0, 0]	n/a	catFR1	2	R1274T
1134.607	0.8	1143858	WORD_OFF	n/a	n/a	PINE	n/a	5	10	[0, 0, 0]	n/a	catFR1	2	R1274T
1135.407	1.616	1144658	WORD	n/a	wordpools/wordpool_categorized_EN.txt	OAK	Trees	6	10	[0, 0, 0]	n/a	catFR1	2	R1274T
1137.023	0.784	1146274	WORD_OFF	n/a	n/a	OAK	n/a	6	10	[0, 0, 0]	n/a	catFR1	2	R1274T
1137.807	1.617	1147058	WORD	n/a	wordpools/wordpool_categorized_EN.txt	SOCKS	Clothing	7	10	[0, 0, 0]	n/a	catFR1	2	R1274T
1139.424	0.951	1148675	WORD_OFF	n/a	n/a	SOCKS	n/a	7	10	[0, 0, 0]	n/a	catFR1	2	R1274T
1140.375	1.616	1149626	WORD	n/a	wordpools/wordpool_categorized_EN.txt	COAT	Clothing	8	10	[0, 0, 0]	n/a	catFR1	2	R1274T
1141.991	0.933	1151242	WORD_OFF	n/a	n/a	COAT	n/a	8	10	[0, 0, 0]	n/a	catFR1	2	R1274T
1142.924	1.618	1152175	WORD	n/a	wordpools/wordpool_categorized_EN.txt	CRICKET	Insects	9	10	[0, 0, 0]	n/a	catFR1	2	R1274T
1144.542	0.767	1153793	WORD_OFF	n/a	n/a	CRICKET	n/a	9	10	[0, 0, 0]	n/a	catFR1	2	R1274T
1145.309	1.616	1154560	WORD	n/a	wordpools/wordpool_categorized_EN.txt	BEE	Insects	10	10	[0, 0, 0]	n/a	catFR1	2	R1274T
1146.925	0.783	1156176	WORD_OFF	n/a	n/a	BEE	n/a	10	10	[0, 0, 0]	n/a	catFR1	2	R1274T
1147.708	1.601	1156959	WORD	n/a	wordpools/wordpool_categorized_EN.txt	WILLOW	Trees	11	10	[0, 0, 0]	n/a	catFR1	2	R1274T
1149.309	0.968	1158559	WORD_OFF	n/a	n/a	WILLOW	n/a	11	10	[0, 0, 0]	n/a	catFR1	2	R1274T
1150.277	1.615	1159527	WORD	n/a	wordpools/wordpool_categorized_EN.txt	CEDAR	Trees	12	10	[0, 0, 0]	n/a	catFR1	2	R1274T
1151.892	0.001	1161142	WORD_OFF	n/a	n/a	CEDAR	n/a	12	10	[0, 0, 0]	n/a	catFR1	2	R1274T
1151.893	0.098	1161143	ENCODING_END	n/a	n/a	n/a	n/a	-999	10	[0, 0, 0]	n/a	catFR1	2	R1274T
1151.991	0.0	1161241	DISTRACT_START	n/a	n/a	n/a	n/a	-999	10	[0, 0, 0]	n/a	catFR1	2	R1274T
1151.991	0.018	1161241	START	n/a	n/a	n/a	n/a	-999	10	[-999, -999, -999]	n/a	catFR1	2	R1274T
1152.009	5.119	1161259	PROB	5.119	n/a	n/a	n/a	-999	10	[3, 5, 3]	11	catFR1	2	R1274T
1157.128	6.933	1166378	PROB	6.933	n/a	n/a	n/a	-999	10	[8, 7, 6]	21	catFR1	2	R1274T
1164.061	14.988	1173311	PROB	14.988	n/a	n/a	n/a	-999	10	[2, 7, 7]	16	catFR1	2	R1274T
1179.049	0.015	1188298	STOP	n/a	n/a	n/a	n/a	-999	10	[-999, -999, -999]	n/a	catFR1	2	R1274T
1179.064	0.583	1188313	DISTRACT_END	n/a	n/a	n/a	n/a	-999	10	[0, 0, 0]	n/a	catFR1	2	R1274T
1179.647	0.519	1188896	RETRIEVAL_ORIENT	n/a	n/a	n/a	n/a	-999	10	[0, 0, 0]	n/a	catFR1	2	R1274T
1180.166	6.107	1189415	REC_START	n/a	n/a	n/a	n/a	-999	10	[0, 0, 0]	n/a	catFR1	2	R1274T
1186.273	3.326	1195521	REC_WORD	3.326	n/a	PINE	Trees	5	10	[0, 0, 0]	n/a	catFR1	2	R1274T
1189.599	0.906	1198847	REC_WORD	0.906	n/a	OAK	Trees	6	10	[0, 0, 0]	n/a	catFR1	2	R1274T
1190.505	19.67	1199753	REC_WORD	19.67	n/a	CEDAR	Trees	12	10	[0, 0, 0]	n/a	catFR1	2	R1274T
1210.175	51.205	1219422	REC_END	n/a	n/a	n/a	n/a	-999	10	[0, 0, 0]	n/a	catFR1	2	R1274T
1261.38	0.5	1270624	TRIAL	n/a	n/a	n/a	n/a	-999	11	[0, 0, 0]	n/a	catFR1	2	R1274T
1261.88	10.428	1271124	COUNTDOWN_START	n/a	n/a	n/a	n/a	-999	11	[0, 0, 0]	n/a	catFR1	2	R1274T
1272.308	0.007	1281551	COUNTDOWN_END	n/a	n/a	n/a	n/a	-999	11	[0, 0, 0]	n/a	catFR1	2	R1274T
1272.315	1.616	1281558	ORIENT	n/a	n/a	n/a	n/a	-999	11	[0, 0, 0]	n/a	catFR1	2	R1274T
1273.931	2.1	1283174	ORIENT_OFF	n/a	n/a	n/a	n/a	-999	11	[0, 0, 0]	n/a	catFR1	2	R1274T
1276.031	1.601	1285274	WORD	n/a	wordpools/wordpool_categorized_EN.txt	STRAINER	KitchenTools	1	11	[0, 0, 0]	n/a	catFR1	2	R1274T
1277.632	0.784	1286875	WORD_OFF	n/a	n/a	STRAINER	n/a	1	11	[0, 0, 0]	n/a	catFR1	2	R1274T
1278.416	1.616	1287659	WORD	n/a	wordpools/wordpool_categorized_EN.txt	KNIFE	KitchenTools	2	11	[0, 0, 0]	n/a	catFR1	2	R1274T
1280.032	0.851	1289274	WORD_OFF	n/a	n/a	KNIFE	n/a	2	11	[0, 0, 0]	n/a	catFR1	2	R1274T
1280.883	1.618	1290125	WORD	n/a	wordpools/wordpool_categorized_EN.txt	COFFEE	Beverages	3	11	[0, 0, 0]	n/a	catFR1	2	R1274T
1282.501	0.9	1291743	WORD_OFF	n/a	n/a	COFFEE	n/a	3	11	[0, 0, 0]	n/a	catFR1	2	R1274T
1283.401	1.616	1292643	WORD	n/a	wordpools/wordpool_categorized_EN.txt	LEMONADE	Beverages	4	11	[0, 0, 0]	n/a	catFR1	2	R1274T
1285.017	0.816	1294259	WORD_OFF	n/a	n/a	LEMONADE	n/a	4	11	[0, 0, 0]	n/a	catFR1	2	R1274T
1285.833	1.601	1295075	WORD	n/a	wordpools/wordpool_categorized_EN.txt	CUCUMBER	Vegetables	5	11	[0, 0, 0]	n/a	catFR1	2	R1274T
1287.434	0.784	1296676	WORD_OFF	n/a	n/a	CUCUMBER	n/a	5	11	[0, 0, 0]	n/a	catFR1	2	R1274T
1288.218	1.616	1297460	WORD	n/a	wordpools/wordpool_categorized_EN.txt	CELERY	Vegetables	6	11	[0, 0, 0]	n/a	catFR1	2	R1274T
1289.834	0.917	1299076	WORD_OFF	n/a	n/a	CELERY	n/a	6	11	[0, 0, 0]	n/a	catFR1	2	R1274T
1290.751	1.618	1299993	WORD	n/a	wordpools/wordpool_categorized_EN.txt	JUICE	Beverages	7	11	[0, 0, 0]	n/a	catFR1	2	R1274T
1292.369	0.767	1301611	WORD_OFF	n/a	n/a	JUICE	n/a	7	11	[0, 0, 0]	n/a	catFR1	2	R1274T
1293.136	1.616	1302378	WORD	n/a	wordpools/wordpool_categorized_EN.txt	BEER	Beverages	8	11	[0, 0, 0]	n/a	catFR1	2	R1274T
1294.752	1.0	1303994	WORD_OFF	n/a	n/a	BEER	n/a	8	11	[0, 0, 0]	n/a	catFR1	2	R1274T
1295.752	1.618	1304993	WORD	n/a	wordpools/wordpool_categorized_EN.txt	SPATULA	KitchenTools	9	11	[0, 0, 0]	n/a	catFR1	2	R1274T
1297.37	0.933	1306611	WORD_OFF	n/a	n/a	SPATULA	n/a	9	11	[0, 0, 0]	n/a	catFR1	2	R1274T
1298.303	1.616	1307544	WORD	n/a	wordpools/wordpool_categorized_EN.txt	TONGS	KitchenTools	10	11	[0, 0, 0]	n/a	catFR1	2	R1274T
1299.919	0.901	1309160	WORD_OFF	n/a	n/a	TONGS	n/a	10	11	[0, 0, 0]	n/a	catFR1	2	R1274T
1300.82	1.618	1310061	WORD	n/a	wordpools/wordpool_categorized_EN.txt	POTATO	Vegetables	11	11	[0, 0, 0]	n/a	catFR1	2	R1274T
1302.438	0.983	1311679	WORD_OFF	n/a	n/a	POTATO	n/a	11	11	[0, 0, 0]	n/a	catFR1	2	R1274T
1303.421	1.616	1312662	WORD	n/a	wordpools/wordpool_categorized_EN.txt	SPINACH	Vegetables	12	11	[0, 0, 0]	n/a	catFR1	2	R1274T
1305.037	0.0	1314278	ENCODING_END	n/a	n/a	n/a	n/a	-999	11	[0, 0, 0]	n/a	catFR1	2	R1274T
1305.037	0.102	1314278	WORD_OFF	n/a	n/a	SPINACH	n/a	12	11	[0, 0, 0]	n/a	catFR1	2	R1274T
1305.139	0.0	1314380	DISTRACT_START	n/a	n/a	n/a	n/a	-999	11	[0, 0, 0]	n/a	catFR1	2	R1274T
1305.139	0.016	1314380	START	n/a	n/a	n/a	n/a	-999	11	[-999, -999, -999]	n/a	catFR1	2	R1274T
1305.155	15.236	1314396	PROB	15.236	n/a	n/a	n/a	-999	11	[7, 8, 9]	24	catFR1	2	R1274T
1320.391	4.633	1329631	PROB	4.633	n/a	n/a	n/a	-999	11	[1, 9, 8]	18	catFR1	2	R1274T
1325.024	4.409	1334264	PROB	4.409	n/a	n/a	n/a	-999	11	[1, 4, 1]	6	catFR1	2	R1274T
1329.433	0.01	1338672	STOP	n/a	n/a	n/a	n/a	-999	11	[-999, -999, -999]	n/a	catFR1	2	R1274T
1329.443	0.7	1338682	DISTRACT_END	n/a	n/a	n/a	n/a	-999	11	[0, 0, 0]	n/a	catFR1	2	R1274T
1330.143	0.516	1339382	RETRIEVAL_ORIENT	n/a	n/a	n/a	n/a	-999	11	[0, 0, 0]	n/a	catFR1	2	R1274T
1330.659	1.755	1339898	REC_START	n/a	n/a	n/a	n/a	-999	11	[0, 0, 0]	n/a	catFR1	2	R1274T
1332.414	28.254	1341653	REC_WORD	28.254	n/a	JUICE	Beverages	7	11	[0, 0, 0]	n/a	catFR1	2	R1274T
1360.668	6.164	1369906	REC_END	n/a	n/a	n/a	n/a	-999	11	[0, 0, 0]	n/a	catFR1	2	R1274T
1366.832	0.5	1376069	TRIAL	n/a	n/a	n/a	n/a	-999	12	[0, 0, 0]	n/a	catFR1	2	R1274T
1367.332	10.428	1376569	COUNTDOWN_START	n/a	n/a	n/a	n/a	-999	12	[0, 0, 0]	n/a	catFR1	2	R1274T
1377.76	0.007	1386996	COUNTDOWN_END	n/a	n/a	n/a	n/a	-999	12	[0, 0, 0]	n/a	catFR1	2	R1274T
1377.767	1.618	1387003	ORIENT	n/a	n/a	n/a	n/a	-999	12	[0, 0, 0]	n/a	catFR1	2	R1274T
1379.385	2.184	1388621	ORIENT_OFF	n/a	n/a	n/a	n/a	-999	12	[0, 0, 0]	n/a	catFR1	2	R1274T
1381.569	1.617	1390805	WORD	n/a	wordpools/wordpool_categorized_EN.txt	CAR	Vehicles	1	12	[0, 0, 0]	n/a	catFR1	2	R1274T
1383.186	1.016	1392422	WORD_OFF	n/a	n/a	CAR	n/a	1	12	[0, 0, 0]	n/a	catFR1	2	R1274T
1384.202	1.616	1393438	WORD	n/a	wordpools/wordpool_categorized_EN.txt	SCOOTER	Vehicles	2	12	[0, 0, 0]	n/a	catFR1	2	R1274T
1385.818	0.951	1395054	WORD_OFF	n/a	n/a	SCOOTER	n/a	2	12	[0, 0, 0]	n/a	catFR1	2	R1274T
1386.769	1.617	1396005	WORD	n/a	wordpools/wordpool_categorized_EN.txt	BINDER	OfficeSupplies	3	12	[0, 0, 0]	n/a	catFR1	2	R1274T
1388.386	0.784	1397622	WORD_OFF	n/a	n/a	BINDER	n/a	3	12	[0, 0, 0]	n/a	catFR1	2	R1274T
1389.17	1.616	1398406	WORD	n/a	wordpools/wordpool_categorized_EN.txt	GLUE	OfficeSupplies	4	12	[0, 0, 0]	n/a	catFR1	2	R1274T
1390.786	0.883	1400022	WORD_OFF	n/a	n/a	GLUE	n/a	4	12	[0, 0, 0]	n/a	catFR1	2	R1274T
1391.669	1.601	1400905	WORD	n/a	wordpools/wordpool_categorized_EN.txt	ROOM	Building	5	12	[0, 0, 0]	n/a	catFR1	2	R1274T
1393.27	0.851	1402506	WORD_OFF	n/a	n/a	ROOM	n/a	5	12	[0, 0, 0]	n/a	catFR1	2	R1274T
1394.121	1.616	1403356	WORD	n/a	wordpools/wordpool_categorized_EN.txt	FLOOR	Building	6	12	[0, 0, 0]	n/a	catFR1	2	R1274T
1395.737	0.9	1404972	WORD_OFF	n/a	n/a	FLOOR	n/a	6	12	[0, 0, 0]	n/a	catFR1	2	R1274T
1396.637	1.618	1405872	WORD	n/a	wordpools/wordpool_categorized_EN.txt	MARKER	OfficeSupplies	7	12	[0, 0, 0]	n/a	catFR1	2	R1274T
1398.255	0.883	1407490	WORD_OFF	n/a	n/a	MARKER	n/a	7	12	[0, 0, 0]	n/a	catFR1	2	R1274T
1399.138	1.616	1408373	WORD	n/a	wordpools/wordpool_categorized_EN.txt	PAPER	OfficeSupplies	8	12	[0, 0, 0]	n/a	catFR1	2	R1274T
1400.754	0.785	1409989	WORD_OFF	n/a	n/a	PAPER	n/a	8	12	[0, 0, 0]	n/a	catFR1	2	R1274T
1401.539	1.617	1410774	WORD	n/a	wordpools/wordpool_categorized_EN.txt	PLANE	Vehicles	9	12	[0, 0, 0]	n/a	catFR1	2	R1274T
1403.156	1.017	1412391	WORD_OFF	n/a	n/a	PLANE	n/a	9	12	[0, 0, 0]	n/a	catFR1	2	R1274T
1404.173	1.616	1413408	WORD	n/a	wordpools/wordpool_categorized_EN.txt	BUS	Vehicles	10	12	[0, 0, 0]	n/a	catFR1	2	R1274T
1405.789	0.983	1415024	WORD_OFF	n/a	n/a	BUS	n/a	10	12	[0, 0, 0]	n/a	catFR1	2	R1274T
1406.772	1.601	1416007	WORD	n/a	wordpools/wordpool_categorized_EN.txt	BATHROOM	Building	11	12	[0, 0, 0]	n/a	catFR1	2	R1274T
1408.373	1.001	1417608	WORD_OFF	n/a	n/a	BATHROOM	n/a	11	12	[0, 0, 0]	n/a	catFR1	2	R1274T
1409.374	1.616	1418609	WORD	n/a	wordpools/wordpool_categorized_EN.txt	STAIRS	Building	12	12	[0, 0, 0]	n/a	catFR1	2	R1274T
1410.99	0.0	1420224	ENCODING_END	n/a	n/a	n/a	n/a	-999	12	[0, 0, 0]	n/a	catFR1	2	R1274T
1410.99	0.142	1420224	WORD_OFF	n/a	n/a	STAIRS	n/a	12	12	[0, 0, 0]	n/a	catFR1	2	R1274T
1411.132	0.0	1420366	DISTRACT_START	n/a	n/a	n/a	n/a	-999	12	[0, 0, 0]	n/a	catFR1	2	R1274T
1411.132	0.008	1420366	START	n/a	n/a	n/a	n/a	-999	12	[-999, -999, -999]	n/a	catFR1	2	R1274T
1411.14	4.968	1420374	PROB	4.968	n/a	n/a	n/a	-999	12	[6, 8, 4]	18	catFR1	2	R1274T
1416.108	4.034	1425342	PROB	4.034	n/a	n/a	n/a	-999	12	[9, 3, 1]	13	catFR1	2	R1274T
1420.142	4.151	1429376	PROB	4.151	n/a	n/a	n/a	-999	12	[1, 5, 9]	15	catFR1	2	R1274T
1424.293	8.699	1433527	PROB	8.699	n/a	n/a	n/a	-999	12	[3, 9, 8]	20	catFR1	2	R1274T
1432.992	0.019	1442225	STOP	n/a	n/a	n/a	n/a	-999	12	[-999, -999, -999]	n/a	catFR1	2	R1274T
1433.011	0.517	1442244	DISTRACT_END	n/a	n/a	n/a	n/a	-999	12	[0, 0, 0]	n/a	catFR1	2	R1274T
1433.528	0.516	1442761	RETRIEVAL_ORIENT	n/a	n/a	n/a	n/a	-999	12	[0, 0, 0]	n/a	catFR1	2	R1274T
1434.044	1.29	1443277	REC_START	n/a	n/a	n/a	n/a	-999	12	[0, 0, 0]	n/a	catFR1	2	R1274T
1435.334	1.305	1444567	REC_WORD	1.305	n/a	BATHROOM	Building	11	12	[0, 0, 0]	n/a	catFR1	2	R1274T
1436.639	27.415	1445872	REC_WORD	27.415	n/a	STAIRWAY	n/a	-999	12	[0, 0, 0]	n/a	catFR1	2	R1274T
1464.054	7.081	1473285	REC_END	n/a	n/a	n/a	n/a	-999	12	[0, 0, 0]	n/a	catFR1	2	R1274T
1471.135	0.5	1480366	TRIAL	n/a	n/a	n/a	n/a	-999	13	[0, 0, 0]	n/a	catFR1	2	R1274T
1471.635	10.428	1480866	COUNTDOWN_START	n/a	n/a	n/a	n/a	-999	13	[0, 0, 0]	n/a	catFR1	2	R1274T
1482.063	0.006	1491293	COUNTDOWN_END	n/a	n/a	n/a	n/a	-999	13	[0, 0, 0]	n/a	catFR1	2	R1274T
1482.069	1.617	1491299	ORIENT	n/a	n/a	n/a	n/a	-999	13	[0, 0, 0]	n/a	catFR1	2	R1274T
1483.686	2.1	1492916	ORIENT_OFF	n/a	n/a	n/a	n/a	-999	13	[0, 0, 0]	n/a	catFR1	2	R1274T
1485.786	1.618	1495016	WORD	n/a	wordpools/wordpool_categorized_EN.txt	WALL	Building	1	13	[0, 0, 0]	n/a	catFR1	2	R1274T
1487.404	0.817	1496634	WORD_OFF	n/a	n/a	WALL	n/a	1	13	[0, 0, 0]	n/a	catFR1	2	R1274T
1488.221	1.616	1497451	WORD	n/a	wordpools/wordpool_categorized_EN.txt	ATTIC	Building	2	13	[0, 0, 0]	n/a	catFR1	2	R1274T
1489.837	0.984	1499067	WORD_OFF	n/a	n/a	ATTIC	n/a	2	13	[0, 0, 0]	n/a	catFR1	2	R1274T
1490.821	1.618	1500051	WORD	n/a	wordpools/wordpool_categorized_EN.txt	SHIRT	Clothing	3	13	[0, 0, 0]	n/a	catFR1	2	R1274T
1492.439	0.8	1501668	WORD_OFF	n/a	n/a	SHIRT	n/a	3	13	[0, 0, 0]	n/a	catFR1	2	R1274T
1493.239	1.616	1502468	WORD	n/a	wordpools/wordpool_categorized_EN.txt	BLOUSE	Clothing	4	13	[0, 0, 0]	n/a	catFR1	2	R1274T
1494.855	1.0	1504084	WORD_OFF	n/a	n/a	BLOUSE	n/a	4	13	[0, 0, 0]	n/a	catFR1	2	R1274T
1495.855	1.601	1505084	WORD	n/a	wordpools/wordpool_categorized_EN.txt	EAR	BodyParts	5	13	[0, 0, 0]	n/a	catFR1	2	R1274T
1497.456	0.834	1506685	WORD_OFF	n/a	n/a	EAR	n/a	5	13	[0, 0, 0]	n/a	catFR1	2	R1274T
1498.29	1.616	1507519	WORD	n/a	wordpools/wordpool_categorized_EN.txt	HAND	BodyParts	6	13	[0, 0, 0]	n/a	catFR1	2	R1274T
1499.906	0.933	1509135	WORD_OFF	n/a	n/a	HAND	n/a	6	13	[0, 0, 0]	n/a	catFR1	2	R1274T
1500.839	1.618	1510068	WORD	n/a	wordpools/wordpool_categorized_EN.txt	SHORTS	Clothing	7	13	[0, 0, 0]	n/a	catFR1	2	R1274T
1502.457	0.9	1511686	WORD_OFF	n/a	n/a	SHORTS	n/a	7	13	[0, 0, 0]	n/a	catFR1	2	R1274T
1503.357	1.616	1512586	WORD	n/a	wordpools/wordpool_categorized_EN.txt	DRESS	Clothing	8	13	[0, 0, 0]	n/a	catFR1	2	R1274T
1504.973	0.951	1514202	WORD_OFF	n/a	n/a	DRESS	n/a	8	13	[0, 0, 0]	n/a	catFR1	2	R1274T
1505.924	1.617	1515153	WORD	n/a	wordpools/wordpool_categorized_EN.txt	HALLWAY	Building	9	13	[0, 0, 0]	n/a	catFR1	2	R1274T
1507.541	0.834	1516770	WORD_OFF	n/a	n/a	HALLWAY	n/a	9	13	[0, 0, 0]	n/a	catFR1	2	R1274T
1508.375	1.616	1517603	WORD	n/a	wordpools/wordpool_categorized_EN.txt	DOOR	Building	10	13	[0, 0, 0]	n/a	catFR1	2	R1274T
1509.991	0.933	1519219	WORD_OFF	n/a	n/a	DOOR	n/a	10	13	[0, 0, 0]	n/a	catFR1	2	R1274T
1510.924	1.601	1520152	WORD	n/a	wordpools/wordpool_categorized_EN.txt	EYE	BodyParts	11	13	[0, 0, 0]	n/a	catFR1	2	R1274T
1512.525	0.801	1521753	WORD_OFF	n/a	n/a	EYE	n/a	11	13	[0, 0, 0]	n/a	catFR1	2	R1274T
1513.326	1.616	1522554	WORD	n/a	wordpools/wordpool_categorized_EN.txt	TOE	BodyParts	12	13	[0, 0, 0]	n/a	catFR1	2	R1274T
1514.942	0.0	1524170	ENCODING_END	n/a	n/a	n/a	n/a	-999	13	[0, 0, 0]	n/a	catFR1	2	R1274T
1514.942	0.1	1524170	WORD_OFF	n/a	n/a	TOE	n/a	12	13	[0, 0, 0]	n/a	catFR1	2	R1274T
1515.042	0.001	1524270	DISTRACT_START	n/a	n/a	n/a	n/a	-999	13	[0, 0, 0]	n/a	catFR1	2	R1274T
1515.043	0.015	1524271	START	n/a	n/a	n/a	n/a	-999	13	[-999, -999, -999]	n/a	catFR1	2	R1274T
1515.058	4.486	1524286	PROB	4.486	n/a	n/a	n/a	-999	13	[5, 1, 1]	7	catFR1	2	R1274T
1519.544	5.333	1528772	PROB	5.333	n/a	n/a	n/a	-999	13	[8, 1, 6]	15	catFR1	2	R1274T
1524.877	4.151	1534104	PROB	4.151	n/a	n/a	n/a	-999	13	[5, 3, 5]	13	catFR1	2	R1274T
1529.028	6.868	1538255	PROB	6.868	n/a	n/a	n/a	-999	13	[4, 8, 1]	13	catFR1	2	R1274T
1535.896	0.016	1545123	STOP	n/a	n/a	n/a	n/a	-999	13	[-999, -999, -999]	n/a	catFR1	2	R1274T
1535.912	0.601	1545139	DISTRACT_END	n/a	n/a	n/a	n/a	-999	13	[0, 0, 0]	n/a	catFR1	2	R1274T
1536.513	0.517	1545740	RETRIEVAL_ORIENT	n/a	n/a	n/a	n/a	-999	13	[0, 0, 0]	n/a	catFR1	2	R1274T
1537.03	1.829	1546257	REC_START	n/a	n/a	n/a	n/a	-999	13	[0, 0, 0]	n/a	catFR1	2	R1274T
1538.859	0.955	1548086	REC_WORD	0.955	n/a	EAR	BodyParts	5	13	[0, 0, 0]	n/a	catFR1	2	R1274T
1539.814	1.077	1549041	REC_WORD	1.077	n/a	EYE	BodyParts	11	13	[0, 0, 0]	n/a	catFR1	2	R1274T
1540.891	26.149	1550117	REC_WORD	26.149	n/a	TOE	BodyParts	12	13	[0, 0, 0]	n/a	catFR1	2	R1274T
1567.04	7.063	1576265	REC_END	n/a	n/a	n/a	n/a	-999	13	[0, 0, 0]	n/a	catFR1	2	R1274T
1574.103	0.5	1583327	TRIAL	n/a	n/a	n/a	n/a	-999	14	[0, 0, 0]	n/a	catFR1	2	R1274T
1574.603	10.428	1583827	COUNTDOWN_START	n/a	n/a	n/a	n/a	-999	14	[0, 0, 0]	n/a	catFR1	2	R1274T
1585.031	0.007	1594255	COUNTDOWN_END	n/a	n/a	n/a	n/a	-999	14	[0, 0, 0]	n/a	catFR1	2	R1274T
1585.038	1.617	1594262	ORIENT	n/a	n/a	n/a	n/a	-999	14	[0, 0, 0]	n/a	catFR1	2	R1274T
1586.655	2.167	1595879	ORIENT_OFF	n/a	n/a	n/a	n/a	-999	14	[0, 0, 0]	n/a	catFR1	2	R1274T
1588.822	1.618	1598046	WORD	n/a	wordpools/wordpool_categorized_EN.txt	SHELF	Furniture	1	14	[0, 0, 0]	n/a	catFR1	2	R1274T
1590.44	0.85	1599663	WORD_OFF	n/a	n/a	SHELF	n/a	1	14	[0, 0, 0]	n/a	catFR1	2	R1274T
1591.29	1.616	1600513	WORD	n/a	wordpools/wordpool_categorized_EN.txt	RECLINER	Furniture	2	14	[0, 0, 0]	n/a	catFR1	2	R1274T
1592.906	0.984	1602129	WORD_OFF	n/a	n/a	RECLINER	n/a	2	14	[0, 0, 0]	n/a	catFR1	2	R1274T
1593.89	1.617	1603113	WORD	n/a	wordpools/wordpool_categorized_EN.txt	CORKSCREW	KitchenTools	3	14	[0, 0, 0]	n/a	catFR1	2	R1274T
1595.507	0.967	1604730	WORD_OFF	n/a	n/a	CORKSCREW	n/a	3	14	[0, 0, 0]	n/a	catFR1	2	R1274T
1596.474	1.616	1605697	WORD	n/a	wordpools/wordpool_categorized_EN.txt	SPOON	KitchenTools	4	14	[0, 0, 0]	n/a	catFR1	2	R1274T
1598.09	0.817	1607313	WORD_OFF	n/a	n/a	SPOON	n/a	4	14	[0, 0, 0]	n/a	catFR1	2	R1274T
1598.907	1.618	1608130	WORD	n/a	wordpools/wordpool_categorized_EN.txt	ANT	Insects	5	14	[0, 0, 0]	n/a	catFR1	2	R1274T
1600.525	0.95	1609748	WORD_OFF	n/a	n/a	ANT	n/a	5	14	[0, 0, 0]	n/a	catFR1	2	R1274T
1601.475	1.616	1610698	WORD	n/a	wordpools/wordpool_categorized_EN.txt	GNAT	Insects	6	14	[0, 0, 0]	n/a	catFR1	2	R1274T
1603.091	0.8	1612314	WORD_OFF	n/a	n/a	GNAT	n/a	6	14	[0, 0, 0]	n/a	catFR1	2	R1274T
1603.891	1.601	1613114	WORD	n/a	wordpools/wordpool_categorized_EN.txt	BED	Furniture	7	14	[0, 0, 0]	n/a	catFR1	2	R1274T
1605.492	1.017	1614715	WORD_OFF	n/a	n/a	BED	n/a	7	14	[0, 0, 0]	n/a	catFR1	2	R1274T
1606.509	1.617	1615731	WORD	n/a	wordpools/wordpool_categorized_EN.txt	TABLE	Furniture	8	14	[0, 0, 0]	n/a	catFR1	2	R1274T
1608.126	0.783	1617348	WORD_OFF	n/a	n/a	TABLE	n/a	8	14	[0, 0, 0]	n/a	catFR1	2	R1274T
1608.909	1.601	1618131	WORD	n/a	wordpools/wordpool_categorized_EN.txt	GRATER	KitchenTools	9	14	[0, 0, 0]	n/a	catFR1	2	R1274T
1610.51	0.8	1619732	WORD_OFF	n/a	n/a	GRATER	n/a	9	14	[0, 0, 0]	n/a	catFR1	2	R1274T
1611.31	1.616	1620532	WORD	n/a	wordpools/wordpool_categorized_EN.txt	COLANDER	KitchenTools	10	14	[0, 0, 0]	n/a	catFR1	2	R1274T
1612.926	1.0	1622148	WORD_OFF	n/a	n/a	COLANDER	n/a	10	14	[0, 0, 0]	n/a	catFR1	2	R1274T
1613.926	1.601	1623148	WORD	n/a	wordpools/wordpool_categorized_EN.txt	FLY	Insects	11	14	[0, 0, 0]	n/a	catFR1	2	R1274T
1615.527	1.001	1624749	WORD_OFF	n/a	n/a	FLY	n/a	11	14	[0, 0, 0]	n/a	catFR1	2	R1274T
1616.528	1.617	1625750	WORD	n/a	wordpools/wordpool_categorized_EN.txt	SPIDER	Insects	12	14	[0, 0, 0]	n/a	catFR1	2	R1274T
1618.145	0.0	1627367	ENCODING_END	n/a	n/a	n/a	n/a	-999	14	[0, 0, 0]	n/a	catFR1	2	R1274T
1618.145	0.101	1627367	WORD_OFF	n/a	n/a	SPIDER	n/a	12	14	[0, 0, 0]	n/a	catFR1	2	R1274T
1618.246	0.0	1627468	DISTRACT_START	n/a	n/a	n/a	n/a	-999	14	[0, 0, 0]	n/a	catFR1	2	R1274T
1618.246	0.016	1627468	START	n/a	n/a	n/a	n/a	-999	14	[-999, -999, -999]	n/a	catFR1	2	R1274T
1618.262	16.086	1627484	PROB	16.086	n/a	n/a	n/a	-999	14	[2, 5, 6]	13	catFR1	2	R1274T
1634.348	16.006	1643569	PROB	16.006	n/a	n/a	n/a	-999	14	[9, 2, 8]	18	catFR1	2	R1274T
1650.354	0.014	1659574	STOP	n/a	n/a	n/a	n/a	-999	14	[-999, -999, -999]	n/a	catFR1	2	R1274T
1650.368	0.699	1659588	DISTRACT_END	n/a	n/a	n/a	n/a	-999	14	[0, 0, 0]	n/a	catFR1	2	R1274T
1651.067	0.518	1660287	RETRIEVAL_ORIENT	n/a	n/a	n/a	n/a	-999	14	[0, 0, 0]	n/a	catFR1	2	R1274T
1651.585	6.413	1660805	REC_START	n/a	n/a	n/a	n/a	-999	14	[0, 0, 0]	n/a	catFR1	2	R1274T
1657.998	0.97	1667217	REC_WORD	0.97	n/a	CLOTH	n/a	-999	14	[0, 0, 0]	n/a	catFR1	2	R1274T
1658.968	0.877	1668187	REC_WORD	0.877	n/a	COTTON	n/a	-999	14	[0, 0, 0]	n/a	catFR1	2	R1274T
1659.845	1.053	1669064	REC_WORD	1.053	n/a	TABLECLOTH	n/a	-999	14	[0, 0, 0]	n/a	catFR1	2	R1274T
1660.898	2.033	1670117	REC_WORD	2.033	n/a	BED	Furniture	7	14	[0, 0, 0]	n/a	catFR1	2	R1274T
1662.931	3.27	1672150	REC_WORD_VV	3.27	n/a	<>	n/a	-999	14	[0, 0, 0]	n/a	catFR1	2	R1274T
1666.201	15.396	1675420	REC_WORD	15.396	n/a	KITCHEN TABLE	n/a	-999	14	[0, 0, 0]	n/a	catFR1	2	R1274T
1681.597	26.08	1690815	REC_END	n/a	n/a	n/a	n/a	-999	14	[0, 0, 0]	n/a	catFR1	2	R1274T
1707.677	0.5	1716893	TRIAL	n/a	n/a	n/a	n/a	-999	15	[0, 0, 0]	n/a	catFR1	2	R1274T
1708.177	10.428	1717393	COUNTDOWN_START	n/a	n/a	n/a	n/a	-999	15	[0, 0, 0]	n/a	catFR1	2	R1274T
1718.605	0.008	1727821	COUNTDOWN_END	n/a	n/a	n/a	n/a	-999	15	[0, 0, 0]	n/a	catFR1	2	R1274T
1718.613	1.617	1727829	ORIENT	n/a	n/a	n/a	n/a	-999	15	[0, 0, 0]	n/a	catFR1	2	R1274T
1720.23	1.984	1729445	ORIENT_OFF	n/a	n/a	n/a	n/a	-999	15	[0, 0, 0]	n/a	catFR1	2	R1274T
1722.214	1.616	1731429	WORD	n/a	wordpools/wordpool_categorized_EN.txt	MOUNTAIN	Landscapes	1	15	[0, 0, 0]	n/a	catFR1	2	R1274T
1723.83	0.967	1733045	WORD_OFF	n/a	n/a	MOUNTAIN	n/a	1	15	[0, 0, 0]	n/a	catFR1	2	R1274T
1724.797	1.618	1734012	WORD	n/a	wordpools/wordpool_categorized_EN.txt	CREEK	Landscapes	2	15	[0, 0, 0]	n/a	catFR1	2	R1274T
1726.415	0.833	1735630	WORD_OFF	n/a	n/a	CREEK	n/a	2	15	[0, 0, 0]	n/a	catFR1	2	R1274T
1727.248	1.616	1736463	WORD	n/a	wordpools/wordpool_categorized_EN.txt	IRON	Appliances	3	15	[0, 0, 0]	n/a	catFR1	2	R1274T
1728.864	0.967	1738079	WORD_OFF	n/a	n/a	IRON	n/a	3	15	[0, 0, 0]	n/a	catFR1	2	R1274T
1729.831	1.618	1739046	WORD	n/a	wordpools/wordpool_categorized_EN.txt	FREEZER	Appliances	4	15	[0, 0, 0]	n/a	catFR1	2	R1274T
1731.449	1.0	1740664	WORD_OFF	n/a	n/a	FREEZER	n/a	4	15	[0, 0, 0]	n/a	catFR1	2	R1274T
1732.449	1.616	1741664	WORD	n/a	wordpools/wordpool_categorized_EN.txt	TRUMPET	Instruments	5	15	[0, 0, 0]	n/a	catFR1	2	R1274T
1734.065	0.933	1743280	WORD_OFF	n/a	n/a	TRUMPET	n/a	5	15	[0, 0, 0]	n/a	catFR1	2	R1274T
1734.998	1.601	1744213	WORD	n/a	wordpools/wordpool_categorized_EN.txt	CELLO	Instruments	6	15	[0, 0, 0]	n/a	catFR1	2	R1274T
1736.599	0.834	1745813	WORD_OFF	n/a	n/a	CELLO	n/a	6	15	[0, 0, 0]	n/a	catFR1	2	R1274T
1737.433	1.616	1746647	WORD	n/a	wordpools/wordpool_categorized_EN.txt	HILLS	Landscapes	7	15	[0, 0, 0]	n/a	catFR1	2	R1274T
1739.049	0.917	1748263	WORD_OFF	n/a	n/a	HILLS	n/a	7	15	[0, 0, 0]	n/a	catFR1	2	R1274T
1739.966	1.618	1749180	WORD	n/a	wordpools/wordpool_categorized_EN.txt	VALLEY	Landscapes	8	15	[0, 0, 0]	n/a	catFR1	2	R1274T
1741.584	0.8	1750798	WORD_OFF	n/a	n/a	VALLEY	n/a	8	15	[0, 0, 0]	n/a	catFR1	2	R1274T
1742.384	1.616	1751598	WORD	n/a	wordpools/wordpool_categorized_EN.txt	VACUUM	Appliances	9	15	[0, 0, 0]	n/a	catFR1	2	R1274T
1744.0	1.0	1753214	WORD_OFF	n/a	n/a	VACUUM	n/a	9	15	[0, 0, 0]	n/a	catFR1	2	R1274T
1745.0	1.617	1754214	WORD	n/a	wordpools/wordpool_categorized_EN.txt	STOVE	Appliances	10	15	[0, 0, 0]	n/a	catFR1	2	R1274T
1746.617	0.935	1755831	WORD_OFF	n/a	n/a	STOVE	n/a	10	15	[0, 0, 0]	n/a	catFR1	2	R1274T
1747.552	1.617	1756766	WORD	n/a	wordpools/wordpool_categorized_EN.txt	ORGAN	Instruments	11	15	[0, 0, 0]	n/a	catFR1	2	R1274T
1749.169	0.832	1758383	WORD_OFF	n/a	n/a	ORGAN	n/a	11	15	[0, 0, 0]	n/a	catFR1	2	R1274T
1750.001	1.617	1759215	WORD	n/a	wordpools/wordpool_categorized_EN.txt	TROMBONE	Instruments	12	15	[0, 0, 0]	n/a	catFR1	2	R1274T
1751.618	0.001	1760832	WORD_OFF	n/a	n/a	TROMBONE	n/a	12	15	[0, 0, 0]	n/a	catFR1	2	R1274T
1751.619	0.135	1760833	ENCODING_END	n/a	n/a	n/a	n/a	-999	15	[0, 0, 0]	n/a	catFR1	2	R1274T
1751.754	0.0	1760968	DISTRACT_START	n/a	n/a	n/a	n/a	-999	15	[0, 0, 0]	n/a	catFR1	2	R1274T
1751.754	0.014	1760968	START	n/a	n/a	n/a	n/a	-999	15	[-999, -999, -999]	n/a	catFR1	2	R1274T
1751.768	3.552	1760982	PROB	3.552	n/a	n/a	n/a	-999	15	[3, 1, 1]	5	catFR1	2	R1274T
1755.32	4.3	1764533	PROB	4.3	n/a	n/a	n/a	-999	15	[2, 3, 3]	8	catFR1	2	R1274T
1759.62	11.418	1768833	PROB	11.418	n/a	n/a	n/a	-999	15	[6, 1, 7]	14	catFR1	2	R1274T
1771.038	15.858	1780250	PROB	15.858	n/a	n/a	n/a	-999	15	[8, 3, 9]	20	catFR1	2	R1274T
1786.896	0.012	1796107	STOP	n/a	n/a	n/a	n/a	-999	15	[-999, -999, -999]	n/a	catFR1	2	R1274T
1786.908	0.651	1796119	DISTRACT_END	n/a	n/a	n/a	n/a	-999	15	[0, 0, 0]	n/a	catFR1	2	R1274T
1787.559	0.516	1796770	RETRIEVAL_ORIENT	n/a	n/a	n/a	n/a	-999	15	[0, 0, 0]	n/a	catFR1	2	R1274T
1788.075	1.114	1797286	REC_START	n/a	n/a	n/a	n/a	-999	15	[0, 0, 0]	n/a	catFR1	2	R1274T
1789.189	0.813	1798400	REC_WORD	0.813	n/a	TRUMPET	Instruments	5	15	[0, 0, 0]	n/a	catFR1	2	R1274T
1790.002	28.085	1799213	REC_WORD	28.085	n/a	TROMBONE	Instruments	12	15	[0, 0, 0]	n/a	catFR1	2	R1274T
1818.087	6.445	1827297	REC_END	n/a	n/a	n/a	n/a	-999	15	[0, 0, 0]	n/a	catFR1	2	R1274T
1824.532	0.5	1833741	TRIAL	n/a	n/a	n/a	n/a	-999	16	[0, 0, 0]	n/a	catFR1	2	R1274T
1825.032	10.428	1834241	COUNTDOWN_START	n/a	n/a	n/a	n/a	-999	16	[0, 0, 0]	n/a	catFR1	2	R1274T
1835.46	0.008	1844668	COUNTDOWN_END	n/a	n/a	n/a	n/a	-999	16	[0, 0, 0]	n/a	catFR1	2	R1274T
1835.468	1.616	1844676	ORIENT	n/a	n/a	n/a	n/a	-999	16	[0, 0, 0]	n/a	catFR1	2	R1274T
1837.084	2.017	1846292	ORIENT_OFF	n/a	n/a	n/a	n/a	-999	16	[0, 0, 0]	n/a	catFR1	2	R1274T
1839.101	1.617	1848309	WORD	n/a	wordpools/wordpool_categorized_EN.txt	GORILLA	Zoo	1	16	[0, 0, 0]	n/a	catFR1	2	R1274T
1840.718	0.767	1849926	WORD_OFF	n/a	n/a	GORILLA	n/a	1	16	[0, 0, 0]	n/a	catFR1	2	R1274T
1841.485	1.616	1850693	WORD	n/a	wordpools/wordpool_categorized_EN.txt	GIRAFFE	Zoo	2	16	[0, 0, 0]	n/a	catFR1	2	R1274T
1843.101	1.001	1852309	WORD_OFF	n/a	n/a	GIRAFFE	n/a	2	16	[0, 0, 0]	n/a	catFR1	2	R1274T
1844.102	1.617	1853310	WORD	n/a	wordpools/wordpool_categorized_EN.txt	BASKETBALL	Toys	3	16	[0, 0, 0]	n/a	catFR1	2	R1274T
1845.719	0.784	1854927	WORD_OFF	n/a	n/a	BASKETBALL	n/a	3	16	[0, 0, 0]	n/a	catFR1	2	R1274T
1846.503	1.617	1855711	WORD	n/a	wordpools/wordpool_categorized_EN.txt	DOLL	Toys	4	16	[0, 0, 0]	n/a	catFR1	2	R1274T
1848.12	0.949	1857328	WORD_OFF	n/a	n/a	DOLL	n/a	4	16	[0, 0, 0]	n/a	catFR1	2	R1274T
1849.069	1.617	1858277	WORD	n/a	wordpools/wordpool_categorized_EN.txt	KNEE	BodyParts	5	16	[0, 0, 0]	n/a	catFR1	2	R1274T
1850.686	0.934	1859894	WORD_OFF	n/a	n/a	KNEE	n/a	5	16	[0, 0, 0]	n/a	catFR1	2	R1274T
1851.62	1.618	1860827	WORD	n/a	wordpools/wordpool_categorized_EN.txt	ARM	BodyParts	6	16	[0, 0, 0]	n/a	catFR1	2	R1274T
1853.238	0.799	1862445	WORD_OFF	n/a	n/a	ARM	n/a	6	16	[0, 0, 0]	n/a	catFR1	2	R1274T
1854.037	1.617	1863244	WORD	n/a	wordpools/wordpool_categorized_EN.txt	PANDA	Zoo	7	16	[0, 0, 0]	n/a	catFR1	2	R1274T
1855.654	0.767	1864861	WORD_OFF	n/a	n/a	PANDA	n/a	7	16	[0, 0, 0]	n/a	catFR1	2	R1274T
1856.421	1.616	1865628	WORD	n/a	wordpools/wordpool_categorized_EN.txt	TIGER	Zoo	8	16	[0, 0, 0]	n/a	catFR1	2	R1274T
1858.037	0.967	1867244	WORD_OFF	n/a	n/a	TIGER	n/a	8	16	[0, 0, 0]	n/a	catFR1	2	R1274T
1859.004	1.617	1868211	WORD	n/a	wordpools/wordpool_categorized_EN.txt	BLOCKS	Toys	9	16	[0, 0, 0]	n/a	catFR1	2	R1274T
1860.621	0.935	1869828	WORD_OFF	n/a	n/a	BLOCKS	n/a	9	16	[0, 0, 0]	n/a	catFR1	2	R1274T
1861.556	1.617	1870763	WORD	n/a	wordpools/wordpool_categorized_EN.txt	BARBIE	Toys	10	16	[0, 0, 0]	n/a	catFR1	2	R1274T
1863.173	0.866	1872380	WORD_OFF	n/a	n/a	BARBIE	n/a	10	16	[0, 0, 0]	n/a	catFR1	2	R1274T
1864.039	1.617	1873246	WORD	n/a	wordpools/wordpool_categorized_EN.txt	LEG	BodyParts	11	16	[0, 0, 0]	n/a	catFR1	2	R1274T
1865.656	0.966	1874863	WORD_OFF	n/a	n/a	LEG	n/a	11	16	[0, 0, 0]	n/a	catFR1	2	R1274T
1866.622	1.618	1875829	WORD	n/a	wordpools/wordpool_categorized_EN.txt	ELBOW	BodyParts	12	16	[0, 0, 0]	n/a	catFR1	2	R1274T
1868.24	0.0	1877446	ENCODING_END	n/a	n/a	n/a	n/a	-999	16	[0, 0, 0]	n/a	catFR1	2	R1274T
1868.24	0.101	1877446	WORD_OFF	n/a	n/a	ELBOW	n/a	12	16	[0, 0, 0]	n/a	catFR1	2	R1274T
1868.341	0.0	1877547	DISTRACT_START	n/a	n/a	n/a	n/a	-999	16	[0, 0, 0]	n/a	catFR1	2	R1274T
1868.341	0.016	1877547	START	n/a	n/a	n/a	n/a	-999	16	[-999, -999, -999]	n/a	catFR1	2	R1274T
1868.357	3.733	1877563	PROB	3.733	n/a	n/a	n/a	-999	16	[2, 2, 4]	8	catFR1	2	R1274T
1872.09	4.701	1881296	PROB	4.701	n/a	n/a	n/a	-999	16	[3, 6, 2]	11	catFR1	2	R1274T
1876.791	6.934	1885997	PROB	6.934	n/a	n/a	n/a	-999	16	[5, 6, 9]	20	catFR1	2	R1274T
1883.725	5.717	1892930	PROB	5.717	n/a	n/a	n/a	-999	16	[6, 1, 5]	12	catFR1	2	R1274T
1889.442	0.019	1898647	STOP	n/a	n/a	n/a	n/a	-999	16	[-999, -999, -999]	n/a	catFR1	2	R1274T
1889.461	0.632	1898666	DISTRACT_END	n/a	n/a	n/a	n/a	-999	16	[0, 0, 0]	n/a	catFR1	2	R1274T
1890.093	0.519	1899298	RETRIEVAL_ORIENT	n/a	n/a	n/a	n/a	-999	16	[0, 0, 0]	n/a	catFR1	2	R1274T
1890.612	2.126	1899817	REC_START	n/a	n/a	n/a	n/a	-999	16	[0, 0, 0]	n/a	catFR1	2	R1274T
1892.738	0.884	1901943	REC_WORD	0.884	n/a	GORILLA	Zoo	1	16	[0, 0, 0]	n/a	catFR1	2	R1274T
1893.622	5.0	1902827	REC_WORD	5.0	n/a	PANDA	Zoo	7	16	[0, 0, 0]	n/a	catFR1	2	R1274T
1898.622	4.739	1907827	REC_WORD	4.739	n/a	CHIMPANZEE	n/a	-999	16	[0, 0, 0]	n/a	catFR1	2	R1274T
1903.361	2.938	1912565	REC_WORD	2.938	n/a	ELEPHANT	n/a	-999	16	[0, 0, 0]	n/a	catFR1	2	R1274T
1906.299	14.321	1915503	REC_WORD	14.321	n/a	TIGER	Zoo	8	16	[0, 0, 0]	n/a	catFR1	2	R1274T
1920.62	6.814	1929823	REC_END	n/a	n/a	n/a	n/a	-999	16	[0, 0, 0]	n/a	catFR1	2	R1274T
1927.434	0.5	1936637	TRIAL	n/a	n/a	n/a	n/a	-999	17	[0, 0, 0]	n/a	catFR1	2	R1274T
1927.934	10.428	1937137	COUNTDOWN_START	n/a	n/a	n/a	n/a	-999	17	[0, 0, 0]	n/a	catFR1	2	R1274T
1938.362	0.008	1947564	COUNTDOWN_END	n/a	n/a	n/a	n/a	-999	17	[0, 0, 0]	n/a	catFR1	2	R1274T
1938.37	1.616	1947572	ORIENT	n/a	n/a	n/a	n/a	-999	17	[0, 0, 0]	n/a	catFR1	2	R1274T
1939.986	2.334	1949188	ORIENT_OFF	n/a	n/a	n/a	n/a	-999	17	[0, 0, 0]	n/a	catFR1	2	R1274T
1942.32	1.616	1951522	WORD	n/a	wordpools/wordpool_categorized_EN.txt	BOAT	Vehicles	1	17	[0, 0, 0]	n/a	catFR1	2	R1274T
1943.936	0.917	1953138	WORD_OFF	n/a	n/a	BOAT	n/a	1	17	[0, 0, 0]	n/a	catFR1	2	R1274T
1944.853	1.618	1954055	WORD	n/a	wordpools/wordpool_categorized_EN.txt	BIKE	Vehicles	2	17	[0, 0, 0]	n/a	catFR1	2	R1274T
1946.471	0.834	1955673	WORD_OFF	n/a	n/a	BIKE	n/a	2	17	[0, 0, 0]	n/a	catFR1	2	R1274T
1947.305	1.616	1956507	WORD	n/a	wordpools/wordpool_categorized_EN.txt	CAULIFLOWER	Vegetables	3	17	[0, 0, 0]	n/a	catFR1	2	R1274T
1948.921	0.966	1958122	WORD_OFF	n/a	n/a	CAULIFLOWER	n/a	3	17	[0, 0, 0]	n/a	catFR1	2	R1274T
1949.887	1.602	1959088	WORD	n/a	wordpools/wordpool_categorized_EN.txt	LETTUCE	Vegetables	4	17	[0, 0, 0]	n/a	catFR1	2	R1274T
1951.489	0.8	1960690	WORD_OFF	n/a	n/a	LETTUCE	n/a	4	17	[0, 0, 0]	n/a	catFR1	2	R1274T
1952.289	1.616	1961490	WORD	n/a	wordpools/wordpool_categorized_EN.txt	SPEAKER	Electronics	5	17	[0, 0, 0]	n/a	catFR1	2	R1274T
1953.905	0.8	1963106	WORD_OFF	n/a	n/a	SPEAKER	n/a	5	17	[0, 0, 0]	n/a	catFR1	2	R1274T
1954.705	1.618	1963906	WORD	n/a	wordpools/wordpool_categorized_EN.txt	COMPUTER	Electronics	6	17	[0, 0, 0]	n/a	catFR1	2	R1274T
1956.323	0.85	1965524	WORD_OFF	n/a	n/a	COMPUTER	n/a	6	17	[0, 0, 0]	n/a	catFR1	2	R1274T
1957.173	1.616	1966374	WORD	n/a	wordpools/wordpool_categorized_EN.txt	BROCCOLI	Vegetables	7	17	[0, 0, 0]	n/a	catFR1	2	R1274T
1958.789	0.833	1967990	WORD_OFF	n/a	n/a	BROCCOLI	n/a	7	17	[0, 0, 0]	n/a	catFR1	2	R1274T
1959.622	1.602	1968823	WORD	n/a	wordpools/wordpool_categorized_EN.txt	PEAS	Vegetables	8	17	[0, 0, 0]	n/a	catFR1	2	R1274T
1961.224	0.866	1970425	WORD_OFF	n/a	n/a	PEAS	n/a	8	17	[0, 0, 0]	n/a	catFR1	2	R1274T
1962.09	1.617	1971291	WORD	n/a	wordpools/wordpool_categorized_EN.txt	MOPED	Vehicles	9	17	[0, 0, 0]	n/a	catFR1	2	R1274T
1963.707	0.901	1972908	WORD_OFF	n/a	n/a	MOPED	n/a	9	17	[0, 0, 0]	n/a	catFR1	2	R1274T
1964.608	1.617	1973809	WORD	n/a	wordpools/wordpool_categorized_EN.txt	JEEP	Vehicles	10	17	[0, 0, 0]	n/a	catFR1	2	R1274T
1966.225	0.9	1975425	WORD_OFF	n/a	n/a	JEEP	n/a	10	17	[0, 0, 0]	n/a	catFR1	2	R1274T
1967.125	1.616	1976325	WORD	n/a	wordpools/wordpool_categorized_EN.txt	PHONE	Electronics	11	17	[0, 0, 0]	n/a	catFR1	2	R1274T
1968.741	0.983	1977941	WORD_OFF	n/a	n/a	PHONE	n/a	11	17	[0, 0, 0]	n/a	catFR1	2	R1274T
1969.724	1.618	1978924	WORD	n/a	wordpools/wordpool_categorized_EN.txt	PRINTER	Electronics	12	17	[0, 0, 0]	n/a	catFR1	2	R1274T
1971.342	0.001	1980542	WORD_OFF	n/a	n/a	PRINTER	n/a	12	17	[0, 0, 0]	n/a	catFR1	2	R1274T
1971.343	0.102	1980543	ENCODING_END	n/a	n/a	n/a	n/a	-999	17	[0, 0, 0]	n/a	catFR1	2	R1274T
1971.445	0.0	1980645	DISTRACT_START	n/a	n/a	n/a	n/a	-999	17	[0, 0, 0]	n/a	catFR1	2	R1274T
1971.445	0.014	1980645	START	n/a	n/a	n/a	n/a	-999	17	[-999, -999, -999]	n/a	catFR1	2	R1274T
1971.459	4.433	1980659	PROB	4.433	n/a	n/a	n/a	-999	17	[8, 5, 5]	18	catFR1	2	R1274T
1975.892	4.751	1985092	PROB	4.751	n/a	n/a	n/a	-999	17	[5, 9, 2]	16	catFR1	2	R1274T
1980.643	4.552	1989843	PROB	4.552	n/a	n/a	n/a	-999	17	[4, 4, 6]	14	catFR1	2	R1274T
1985.195	4.184	1994394	PROB	4.184	n/a	n/a	n/a	-999	17	[6, 4, 2]	12	catFR1	2	R1274T
1989.379	5.054	1998578	PROB	5.054	n/a	n/a	n/a	-999	17	[6, 1, 3]	10	catFR1	2	R1274T
1994.433	0.014	2003632	STOP	n/a	n/a	n/a	n/a	-999	17	[-999, -999, -999]	n/a	catFR1	2	R1274T
1994.447	0.599	2003646	DISTRACT_END	n/a	n/a	n/a	n/a	-999	17	[0, 0, 0]	n/a	catFR1	2	R1274T
1995.046	0.518	2004245	RETRIEVAL_ORIENT	n/a	n/a	n/a	n/a	-999	17	[0, 0, 0]	n/a	catFR1	2	R1274T
1995.564	2.139	2004763	REC_START	n/a	n/a	n/a	n/a	-999	17	[0, 0, 0]	n/a	catFR1	2	R1274T
1997.703	3.317	2006902	REC_WORD	3.317	n/a	BROCCOLI	Vegetables	7	17	[0, 0, 0]	n/a	catFR1	2	R1274T
2001.02	6.422	2010218	REC_WORD	6.422	n/a	BROCCOLI	Vegetables	7	17	[0, 0, 0]	n/a	catFR1	2	R1274T
2007.442	18.132	2016640	REC_WORD_VV	18.132	n/a	<>	n/a	-999	17	[0, 0, 0]	n/a	catFR1	2	R1274T
2025.574	5.813	2034771	REC_END	n/a	n/a	n/a	n/a	-999	17	[0, 0, 0]	n/a	catFR1	2	R1274T
2031.387	0.5	2040583	TRIAL	n/a	n/a	n/a	n/a	-999	18	[0, 0, 0]	n/a	catFR1	2	R1274T
2031.887	10.428	2041083	COUNTDOWN_START	n/a	n/a	n/a	n/a	-999	18	[0, 0, 0]	n/a	catFR1	2	R1274T
2042.315	0.007	2051511	COUNTDOWN_END	n/a	n/a	n/a	n/a	-999	18	[0, 0, 0]	n/a	catFR1	2	R1274T
2042.322	1.616	2051518	ORIENT	n/a	n/a	n/a	n/a	-999	18	[0, 0, 0]	n/a	catFR1	2	R1274T
2043.938	2.167	2053134	ORIENT_OFF	n/a	n/a	n/a	n/a	-999	18	[0, 0, 0]	n/a	catFR1	2	R1274T
2046.105	1.617	2055301	WORD	n/a	wordpools/wordpool_categorized_EN.txt	LIGHTNING	Weather	1	18	[0, 0, 0]	n/a	catFR1	2	R1274T
2047.722	0.933	2056917	WORD_OFF	n/a	n/a	LIGHTNING	n/a	1	18	[0, 0, 0]	n/a	catFR1	2	R1274T
2048.655	1.618	2057850	WORD	n/a	wordpools/wordpool_categorized_EN.txt	WIND	Weather	2	18	[0, 0, 0]	n/a	catFR1	2	R1274T
2050.273	0.967	2059468	WORD_OFF	n/a	n/a	WIND	n/a	2	18	[0, 0, 0]	n/a	catFR1	2	R1274T
2051.24	1.616	2060435	WORD	n/a	wordpools/wordpool_categorized_EN.txt	GUITAR	Instruments	3	18	[0, 0, 0]	n/a	catFR1	2	R1274T
2052.856	0.8	2062051	WORD_OFF	n/a	n/a	GUITAR	n/a	3	18	[0, 0, 0]	n/a	catFR1	2	R1274T
2053.656	1.618	2062851	WORD	n/a	wordpools/wordpool_categorized_EN.txt	DRUM	Instruments	4	18	[0, 0, 0]	n/a	catFR1	2	R1274T
2055.274	0.85	2064469	WORD_OFF	n/a	n/a	DRUM	n/a	4	18	[0, 0, 0]	n/a	catFR1	2	R1274T
2056.124	1.616	2065319	WORD	n/a	wordpools/wordpool_categorized_EN.txt	CABBAGE	Vegetables	5	18	[0, 0, 0]	n/a	catFR1	2	R1274T
2057.74	0.984	2066935	WORD_OFF	n/a	n/a	CABBAGE	n/a	5	18	[0, 0, 0]	n/a	catFR1	2	R1274T
2058.724	1.618	2067919	WORD	n/a	wordpools/wordpool_categorized_EN.txt	CORN	Vegetables	6	18	[0, 0, 0]	n/a	catFR1	2	R1274T
2060.342	0.783	2069537	WORD_OFF	n/a	n/a	CORN	n/a	6	18	[0, 0, 0]	n/a	catFR1	2	R1274T
2061.125	1.616	2070320	WORD	n/a	wordpools/wordpool_categorized_EN.txt	FLUTE	Instruments	7	18	[0, 0, 0]	n/a	catFR1	2	R1274T
2062.741	0.818	2071936	WORD_OFF	n/a	n/a	FLUTE	n/a	7	18	[0, 0, 0]	n/a	catFR1	2	R1274T
2063.559	1.617	2072753	WORD	n/a	wordpools/wordpool_categorized_EN.txt	BANJO	Instruments	8	18	[0, 0, 0]	n/a	catFR1	2	R1274T
2065.176	0.816	2074370	WORD_OFF	n/a	n/a	BANJO	n/a	8	18	[0, 0, 0]	n/a	catFR1	2	R1274T
2065.992	1.618	2075186	WORD	n/a	wordpools/wordpool_categorized_EN.txt	TORNADO	Weather	9	18	[0, 0, 0]	n/a	catFR1	2	R1274T
2067.61	0.9	2076804	WORD_OFF	n/a	n/a	TORNADO	n/a	9	18	[0, 0, 0]	n/a	catFR1	2	R1274T
2068.51	1.617	2077704	WORD	n/a	wordpools/wordpool_categorized_EN.txt	HUMIDITY	Weather	10	18	[0, 0, 0]	n/a	catFR1	2	R1274T
2070.127	0.899	2079321	WORD_OFF	n/a	n/a	HUMIDITY	n/a	10	18	[0, 0, 0]	n/a	catFR1	2	R1274T
2071.026	1.617	2080220	WORD	n/a	wordpools/wordpool_categorized_EN.txt	ONION	Vegetables	11	18	[0, 0, 0]	n/a	catFR1	2	R1274T
2072.643	0.885	2081837	WORD_OFF	n/a	n/a	ONION	n/a	11	18	[0, 0, 0]	n/a	catFR1	2	R1274T
2073.528	1.616	2082722	WORD	n/a	wordpools/wordpool_categorized_EN.txt	CARROT	Vegetables	12	18	[0, 0, 0]	n/a	catFR1	2	R1274T
2075.144	0.001	2084338	WORD_OFF	n/a	n/a	CARROT	n/a	12	18	[0, 0, 0]	n/a	catFR1	2	R1274T
2075.145	0.13	2084339	ENCODING_END	n/a	n/a	n/a	n/a	-999	18	[0, 0, 0]	n/a	catFR1	2	R1274T
2075.275	0.0	2084469	DISTRACT_START	n/a	n/a	n/a	n/a	-999	18	[0, 0, 0]	n/a	catFR1	2	R1274T
2075.275	0.019	2084469	START	n/a	n/a	n/a	n/a	-999	18	[-999, -999, -999]	n/a	catFR1	2	R1274T
2075.294	6.918	2084488	PROB	6.918	n/a	n/a	n/a	-999	18	[4, 7, 6]	17	catFR1	2	R1274T
2082.212	5.817	2091405	PROB	5.817	n/a	n/a	n/a	-999	18	[8, 6, 5]	19	catFR1	2	R1274T
2088.029	4.784	2097222	PROB	4.784	n/a	n/a	n/a	-999	18	[2, 2, 6]	10	catFR1	2	R1274T
2092.813	4.843	2102006	PROB	4.843	n/a	n/a	n/a	-999	18	[3, 6, 9]	18	catFR1	2	R1274T
2097.656	0.008	2106848	STOP	n/a	n/a	n/a	n/a	-999	18	[-999, -999, -999]	n/a	catFR1	2	R1274T
2097.664	0.535	2106856	DISTRACT_END	n/a	n/a	n/a	n/a	-999	18	[0, 0, 0]	n/a	catFR1	2	R1274T
2098.199	0.516	2107391	RETRIEVAL_ORIENT	n/a	n/a	n/a	n/a	-999	18	[0, 0, 0]	n/a	catFR1	2	R1274T
2098.715	5.982	2107907	REC_START	n/a	n/a	n/a	n/a	-999	18	[0, 0, 0]	n/a	catFR1	2	R1274T
2104.697	1.133	2113889	REC_WORD	1.133	n/a	GUITAR	Instruments	3	18	[0, 0, 0]	n/a	catFR1	2	R1274T
2105.83	2.195	2115022	REC_WORD	2.195	n/a	DRUMLINE	n/a	-999	18	[0, 0, 0]	n/a	catFR1	2	R1274T
2108.025	20.699	2117217	REC_WORD	20.699	n/a	BANJO	Instruments	8	18	[0, 0, 0]	n/a	catFR1	2	R1274T
2128.724	8.798	2137914	REC_END	n/a	n/a	n/a	n/a	-999	18	[0, 0, 0]	n/a	catFR1	2	R1274T
2137.522	0.5	2146712	TRIAL	n/a	n/a	n/a	n/a	-999	19	[0, 0, 0]	n/a	catFR1	2	R1274T
2138.022	10.428	2147212	COUNTDOWN_START	n/a	n/a	n/a	n/a	-999	19	[0, 0, 0]	n/a	catFR1	2	R1274T
2148.45	0.008	2157639	COUNTDOWN_END	n/a	n/a	n/a	n/a	-999	19	[0, 0, 0]	n/a	catFR1	2	R1274T
2148.458	1.616	2157647	ORIENT	n/a	n/a	n/a	n/a	-999	19	[0, 0, 0]	n/a	catFR1	2	R1274T
2150.074	2.051	2159263	ORIENT_OFF	n/a	n/a	n/a	n/a	-999	19	[0, 0, 0]	n/a	catFR1	2	R1274T
2152.125	1.616	2161314	WORD	n/a	wordpools/wordpool_categorized_EN.txt	BIRCH	Trees	1	19	[0, 0, 0]	n/a	catFR1	2	R1274T
2153.741	0.818	2162930	WORD_OFF	n/a	n/a	BIRCH	n/a	1	19	[0, 0, 0]	n/a	catFR1	2	R1274T
2154.559	1.617	2163748	WORD	n/a	wordpools/wordpool_categorized_EN.txt	CYPRESS	Trees	2	19	[0, 0, 0]	n/a	catFR1	2	R1274T
2156.176	1.0	2165365	WORD_OFF	n/a	n/a	CYPRESS	n/a	2	19	[0, 0, 0]	n/a	catFR1	2	R1274T
2157.176	1.616	2166365	WORD	n/a	wordpools/wordpool_categorized_EN.txt	CROWBAR	Tools	3	19	[0, 0, 0]	n/a	catFR1	2	R1274T
2158.792	0.95	2167981	WORD_OFF	n/a	n/a	CROWBAR	n/a	3	19	[0, 0, 0]	n/a	catFR1	2	R1274T
2159.742	1.618	2168931	WORD	n/a	wordpools/wordpool_categorized_EN.txt	SANDER	Tools	4	19	[0, 0, 0]	n/a	catFR1	2	R1274T
2161.36	0.8	2170548	WORD_OFF	n/a	n/a	SANDER	n/a	4	19	[0, 0, 0]	n/a	catFR1	2	R1274T
2162.16	1.616	2171348	WORD	n/a	wordpools/wordpool_categorized_EN.txt	SHRIMP	OceanAnimals	5	19	[0, 0, 0]	n/a	catFR1	2	R1274T
2163.776	0.95	2172964	WORD_OFF	n/a	n/a	SHRIMP	n/a	5	19	[0, 0, 0]	n/a	catFR1	2	R1274T
2164.726	1.602	2173914	WORD	n/a	wordpools/wordpool_categorized_EN.txt	FISH	OceanAnimals	6	19	[0, 0, 0]	n/a	catFR1	2	R1274T
2166.328	0.783	2175516	WORD_OFF	n/a	n/a	FISH	n/a	6	19	[0, 0, 0]	n/a	catFR1	2	R1274T
2167.111	1.616	2176299	WORD	n/a	wordpools/wordpool_categorized_EN.txt	AXE	Tools	7	19	[0, 0, 0]	n/a	catFR1	2	R1274T
2168.727	0.9	2177915	WORD_OFF	n/a	n/a	AXE	n/a	7	19	[0, 0, 0]	n/a	catFR1	2	R1274T
2169.627	1.618	2178815	WORD	n/a	wordpools/wordpool_categorized_EN.txt	SHOVEL	Tools	8	19	[0, 0, 0]	n/a	catFR1	2	R1274T
2171.245	0.883	2180433	WORD_OFF	n/a	n/a	SHOVEL	n/a	8	19	[0, 0, 0]	n/a	catFR1	2	R1274T
2172.128	1.617	2181316	WORD	n/a	wordpools/wordpool_categorized_EN.txt	WALNUT	Trees	9	19	[0, 0, 0]	n/a	catFR1	2	R1274T
2173.745	0.801	2182933	WORD_OFF	n/a	n/a	WALNUT	n/a	9	19	[0, 0, 0]	n/a	catFR1	2	R1274T
2174.546	1.617	2183734	WORD	n/a	wordpools/wordpool_categorized_EN.txt	EVERGREEN	Trees	10	19	[0, 0, 0]	n/a	catFR1	2	R1274T
2176.163	0.916	2185351	WORD_OFF	n/a	n/a	EVERGREEN	n/a	10	19	[0, 0, 0]	n/a	catFR1	2	R1274T
2177.079	1.617	2186267	WORD	n/a	wordpools/wordpool_categorized_EN.txt	OCTOPUS	OceanAnimals	11	19	[0, 0, 0]	n/a	catFR1	2	R1274T
2178.696	0.933	2187883	WORD_OFF	n/a	n/a	OCTOPUS	n/a	11	19	[0, 0, 0]	n/a	catFR1	2	R1274T
2179.629	1.618	2188816	WORD	n/a	wordpools/wordpool_categorized_EN.txt	CRAB	OceanAnimals	12	19	[0, 0, 0]	n/a	catFR1	2	R1274T
2181.247	0.0	2190434	WORD_OFF	n/a	n/a	CRAB	n/a	12	19	[0, 0, 0]	n/a	catFR1	2	R1274T
2181.247	0.1	2190434	ENCODING_END	n/a	n/a	n/a	n/a	-999	19	[0, 0, 0]	n/a	catFR1	2	R1274T
2181.347	0.0	2190534	DISTRACT_START	n/a	n/a	n/a	n/a	-999	19	[0, 0, 0]	n/a	catFR1	2	R1274T
2181.347	0.017	2190534	START	n/a	n/a	n/a	n/a	-999	19	[-999, -999, -999]	n/a	catFR1	2	R1274T
2181.364	4.817	2190551	PROB	4.817	n/a	n/a	n/a	-999	19	[3, 5, 2]	10	catFR1	2	R1274T
2186.181	5.035	2195368	PROB	5.035	n/a	n/a	n/a	-999	19	[6, 9, 3]	18	catFR1	2	R1274T
2191.216	8.85	2200403	PROB	8.85	n/a	n/a	n/a	-999	19	[3, 3, 2]	8	catFR1	2	R1274T
2200.066	3.726	2209252	PROB	3.726	n/a	n/a	n/a	-999	19	[8, 1, 2]	11	catFR1	2	R1274T
2203.792	0.008	2212978	STOP	n/a	n/a	n/a	n/a	-999	19	[-999, -999, -999]	n/a	catFR1	2	R1274T
2203.8	0.668	2212986	DISTRACT_END	n/a	n/a	n/a	n/a	-999	19	[0, 0, 0]	n/a	catFR1	2	R1274T
2204.468	0.516	2213654	RETRIEVAL_ORIENT	n/a	n/a	n/a	n/a	-999	19	[0, 0, 0]	n/a	catFR1	2	R1274T
2204.984	1.785	2214170	REC_START	n/a	n/a	n/a	n/a	-999	19	[0, 0, 0]	n/a	catFR1	2	R1274T
2206.769	1.602	2215955	REC_WORD	1.602	n/a	FISH	OceanAnimals	6	19	[0, 0, 0]	n/a	catFR1	2	R1274T
2208.371	1.363	2217557	REC_WORD	1.363	n/a	SHRIMP	OceanAnimals	5	19	[0, 0, 0]	n/a	catFR1	2	R1274T
2209.734	1.245	2218920	REC_WORD	1.245	n/a	OYSTERS	n/a	-999	19	[0, 0, 0]	n/a	catFR1	2	R1274T
2210.979	24.016	2220164	REC_WORD	24.016	n/a	CRABMEAT	n/a	-999	19	[0, 0, 0]	n/a	catFR1	2	R1274T
2234.995	6.346	2244179	REC_END	n/a	n/a	n/a	n/a	-999	19	[0, 0, 0]	n/a	catFR1	2	R1274T
2241.341	0.5	2250525	TRIAL	n/a	n/a	n/a	n/a	-999	20	[0, 0, 0]	n/a	catFR1	2	R1274T
2241.841	10.428	2251025	COUNTDOWN_START	n/a	n/a	n/a	n/a	-999	20	[0, 0, 0]	n/a	catFR1	2	R1274T
2252.269	0.008	2261452	COUNTDOWN_END	n/a	n/a	n/a	n/a	-999	20	[0, 0, 0]	n/a	catFR1	2	R1274T
2252.277	1.616	2261460	ORIENT	n/a	n/a	n/a	n/a	-999	20	[0, 0, 0]	n/a	catFR1	2	R1274T
2253.893	1.933	2263076	ORIENT_OFF	n/a	n/a	n/a	n/a	-999	20	[0, 0, 0]	n/a	catFR1	2	R1274T
2255.826	1.618	2265009	WORD	n/a	wordpools/wordpool_categorized_EN.txt	UNDERWEAR	Clothing	1	20	[0, 0, 0]	n/a	catFR1	2	R1274T
2257.444	0.834	2266627	WORD_OFF	n/a	n/a	UNDERWEAR	n/a	1	20	[0, 0, 0]	n/a	catFR1	2	R1274T
2258.278	1.616	2267461	WORD	n/a	wordpools/wordpool_categorized_EN.txt	PANTS	Clothing	2	20	[0, 0, 0]	n/a	catFR1	2	R1274T
2259.894	0.867	2269076	WORD_OFF	n/a	n/a	PANTS	n/a	2	20	[0, 0, 0]	n/a	catFR1	2	R1274T
2260.761	1.617	2269943	WORD	n/a	wordpools/wordpool_categorized_EN.txt	TABLET	Electronics	3	20	[0, 0, 0]	n/a	catFR1	2	R1274T
2262.378	0.801	2271560	WORD_OFF	n/a	n/a	TABLET	n/a	3	20	[0, 0, 0]	n/a	catFR1	2	R1274T
2263.179	1.616	2272361	WORD	n/a	wordpools/wordpool_categorized_EN.txt	HEADPHONES	Electronics	4	20	[0, 0, 0]	n/a	catFR1	2	R1274T
2264.795	0.966	2273977	WORD_OFF	n/a	n/a	HEADPHONES	n/a	4	20	[0, 0, 0]	n/a	catFR1	2	R1274T
2265.761	1.618	2274943	WORD	n/a	wordpools/wordpool_categorized_EN.txt	VIOLET	Flowers	5	20	[0, 0, 0]	n/a	catFR1	2	R1274T
2267.379	0.784	2276561	WORD_OFF	n/a	n/a	VIOLET	n/a	5	20	[0, 0, 0]	n/a	catFR1	2	R1274T
2268.163	1.616	2277345	WORD	n/a	wordpools/wordpool_categorized_EN.txt	CARNATION	Flowers	6	20	[0, 0, 0]	n/a	catFR1	2	R1274T
2269.779	0.883	2278961	WORD_OFF	n/a	n/a	CARNATION	n/a	6	20	[0, 0, 0]	n/a	catFR1	2	R1274T
2270.662	1.618	2279844	WORD	n/a	wordpools/wordpool_categorized_EN.txt	SHOES	Clothing	7	20	[0, 0, 0]	n/a	catFR1	2	R1274T
2272.28	0.9	2281462	WORD_OFF	n/a	n/a	SHOES	n/a	7	20	[0, 0, 0]	n/a	catFR1	2	R1274T
2273.18	1.616	2282362	WORD	n/a	wordpools/wordpool_categorized_EN.txt	JEANS	Clothing	8	20	[0, 0, 0]	n/a	catFR1	2	R1274T
2274.796	0.817	2283978	WORD_OFF	n/a	n/a	JEANS	n/a	8	20	[0, 0, 0]	n/a	catFR1	2	R1274T
2275.613	1.601	2284794	WORD	n/a	wordpools/wordpool_categorized_EN.txt	MICROWAVE	Electronics	9	20	[0, 0, 0]	n/a	catFR1	2	R1274T
2277.214	1.017	2286395	WORD_OFF	n/a	n/a	MICROWAVE	n/a	9	20	[0, 0, 0]	n/a	catFR1	2	R1274T
2278.231	1.616	2287412	WORD	n/a	wordpools/wordpool_categorized_EN.txt	SCANNER	Electronics	10	20	[0, 0, 0]	n/a	catFR1	2	R1274T
2279.847	0.884	2289028	WORD_OFF	n/a	n/a	SCANNER	n/a	10	20	[0, 0, 0]	n/a	catFR1	2	R1274T
2280.731	1.618	2289912	WORD	n/a	wordpools/wordpool_categorized_EN.txt	SUNFLOWER	Flowers	11	20	[0, 0, 0]	n/a	catFR1	2	R1274T
2282.349	0.783	2291530	WORD_OFF	n/a	n/a	SUNFLOWER	n/a	11	20	[0, 0, 0]	n/a	catFR1	2	R1274T
2283.132	1.616	2292313	WORD	n/a	wordpools/wordpool_categorized_EN.txt	TULIP	Flowers	12	20	[0, 0, 0]	n/a	catFR1	2	R1274T
2284.748	0.001	2293929	WORD_OFF	n/a	n/a	TULIP	n/a	12	20	[0, 0, 0]	n/a	catFR1	2	R1274T
2284.749	0.105	2293930	ENCODING_END	n/a	n/a	n/a	n/a	-999	20	[0, 0, 0]	n/a	catFR1	2	R1274T
2284.854	0.001	2294035	DISTRACT_START	n/a	n/a	n/a	n/a	-999	20	[0, 0, 0]	n/a	catFR1	2	R1274T
2284.855	0.01	2294036	START	n/a	n/a	n/a	n/a	-999	20	[-999, -999, -999]	n/a	catFR1	2	R1274T
2284.865	11.202	2294046	PROB	11.202	n/a	n/a	n/a	-999	20	[9, 8, 5]	22	catFR1	2	R1274T
2296.067	7.918	2305247	PROB	7.918	n/a	n/a	n/a	-999	20	[8, 1, 5]	14	catFR1	2	R1274T
2303.985	6.28	2313165	PROB	6.28	n/a	n/a	n/a	-999	20	[3, 7, 3]	13	catFR1	2	R1274T
2310.265	0.022	2319444	STOP	n/a	n/a	n/a	n/a	-999	20	[-999, -999, -999]	n/a	catFR1	2	R1274T
2310.287	0.599	2319466	DISTRACT_END	n/a	n/a	n/a	n/a	-999	20	[0, 0, 0]	n/a	catFR1	2	R1274T
2310.886	0.519	2320065	RETRIEVAL_ORIENT	n/a	n/a	n/a	n/a	-999	20	[0, 0, 0]	n/a	catFR1	2	R1274T
2311.405	1.696	2320584	REC_START	n/a	n/a	n/a	n/a	-999	20	[0, 0, 0]	n/a	catFR1	2	R1274T
2313.101	4.419	2322280	REC_WORD	4.419	n/a	TULIP	Flowers	12	20	[0, 0, 0]	n/a	catFR1	2	R1274T
2317.52	23.896	2326699	REC_WORD	23.896	n/a	ROSES	n/a	-999	20	[0, 0, 0]	n/a	catFR1	2	R1274T
2341.416	11.962	2350593	REC_END	n/a	n/a	n/a	n/a	-999	20	[0, 0, 0]	n/a	catFR1	2	R1274T
2353.378	0.5	2362555	TRIAL	n/a	n/a	n/a	n/a	-999	21	[0, 0, 0]	n/a	catFR1	2	R1274T
2353.878	10.428	2363055	COUNTDOWN_START	n/a	n/a	n/a	n/a	-999	21	[0, 0, 0]	n/a	catFR1	2	R1274T
2364.306	0.008	2373482	COUNTDOWN_END	n/a	n/a	n/a	n/a	-999	21	[0, 0, 0]	n/a	catFR1	2	R1274T
2364.314	1.615	2373490	ORIENT	n/a	n/a	n/a	n/a	-999	21	[0, 0, 0]	n/a	catFR1	2	R1274T
2365.929	2.151	2375105	ORIENT_OFF	n/a	n/a	n/a	n/a	-999	21	[0, 0, 0]	n/a	catFR1	2	R1274T
2368.08	1.617	2377256	WORD	n/a	wordpools/wordpool_categorized_EN.txt	MOSQUITO	Insects	1	21	[0, 0, 0]	n/a	catFR1	2	R1274T
2369.697	0.884	2378873	WORD_OFF	n/a	n/a	MOSQUITO	n/a	1	21	[0, 0, 0]	n/a	catFR1	2	R1274T
2370.581	1.617	2379757	WORD	n/a	wordpools/wordpool_categorized_EN.txt	BUTTERFLY	Insects	2	21	[0, 0, 0]	n/a	catFR1	2	R1274T
2372.198	0.917	2381374	WORD_OFF	n/a	n/a	BUTTERFLY	n/a	2	21	[0, 0, 0]	n/a	catFR1	2	R1274T
2373.115	1.616	2382291	WORD	n/a	wordpools/wordpool_categorized_EN.txt	PIG	FarmAnimals	3	21	[0, 0, 0]	n/a	catFR1	2	R1274T
2374.731	0.9	2383906	WORD_OFF	n/a	n/a	PIG	n/a	3	21	[0, 0, 0]	n/a	catFR1	2	R1274T
2375.631	1.618	2384806	WORD	n/a	wordpools/wordpool_categorized_EN.txt	LAMB	FarmAnimals	4	21	[0, 0, 0]	n/a	catFR1	2	R1274T
2377.249	0.934	2386424	WORD_OFF	n/a	n/a	LAMB	n/a	4	21	[0, 0, 0]	n/a	catFR1	2	R1274T
2378.183	1.616	2387358	WORD	n/a	wordpools/wordpool_categorized_EN.txt	LOBSTER	OceanAnimals	5	21	[0, 0, 0]	n/a	catFR1	2	R1274T
2379.799	0.85	2388974	WORD_OFF	n/a	n/a	LOBSTER	n/a	5	21	[0, 0, 0]	n/a	catFR1	2	R1274T
2380.649	1.618	2389824	WORD	n/a	wordpools/wordpool_categorized_EN.txt	DOLPHIN	OceanAnimals	6	21	[0, 0, 0]	n/a	catFR1	2	R1274T
2382.267	1.0	2391442	WORD_OFF	n/a	n/a	DOLPHIN	n/a	6	21	[0, 0, 0]	n/a	catFR1	2	R1274T
2383.267	1.616	2392442	WORD	n/a	wordpools/wordpool_categorized_EN.txt	ROOSTER	FarmAnimals	7	21	[0, 0, 0]	n/a	catFR1	2	R1274T
2384.883	0.967	2394058	WORD_OFF	n/a	n/a	ROOSTER	n/a	7	21	[0, 0, 0]	n/a	catFR1	2	R1274T
2385.85	1.601	2395025	WORD	n/a	wordpools/wordpool_categorized_EN.txt	COW	FarmAnimals	8	21	[0, 0, 0]	n/a	catFR1	2	R1274T
2387.451	0.784	2396626	WORD_OFF	n/a	n/a	COW	n/a	8	21	[0, 0, 0]	n/a	catFR1	2	R1274T
2388.235	1.616	2397410	WORD	n/a	wordpools/wordpool_categorized_EN.txt	BEETLE	Insects	9	21	[0, 0, 0]	n/a	catFR1	2	R1274T
2389.851	0.95	2399025	WORD_OFF	n/a	n/a	BEETLE	n/a	9	21	[0, 0, 0]	n/a	catFR1	2	R1274T
2390.801	1.618	2399975	WORD	n/a	wordpools/wordpool_categorized_EN.txt	LADYBUG	Insects	10	21	[0, 0, 0]	n/a	catFR1	2	R1274T
2392.419	0.867	2401593	WORD_OFF	n/a	n/a	LADYBUG	n/a	10	21	[0, 0, 0]	n/a	catFR1	2	R1274T
2393.286	1.615	2402460	WORD	n/a	wordpools/wordpool_categorized_EN.txt	TURTLE	OceanAnimals	11	21	[0, 0, 0]	n/a	catFR1	2	R1274T
2394.901	0.884	2404075	WORD_OFF	n/a	n/a	TURTLE	n/a	11	21	[0, 0, 0]	n/a	catFR1	2	R1274T
2395.785	1.618	2404959	WORD	n/a	wordpools/wordpool_categorized_EN.txt	OYSTER	OceanAnimals	12	21	[0, 0, 0]	n/a	catFR1	2	R1274T
2397.403	0.0	2406577	WORD_OFF	n/a	n/a	OYSTER	n/a	12	21	[0, 0, 0]	n/a	catFR1	2	R1274T
2397.403	0.136	2406577	ENCODING_END	n/a	n/a	n/a	n/a	-999	21	[0, 0, 0]	n/a	catFR1	2	R1274T
2397.539	0.0	2406713	DISTRACT_START	n/a	n/a	n/a	n/a	-999	21	[0, 0, 0]	n/a	catFR1	2	R1274T
2397.539	0.014	2406713	START	n/a	n/a	n/a	n/a	-999	21	[-999, -999, -999]	n/a	catFR1	2	R1274T
2397.553	4.183	2406727	PROB	4.183	n/a	n/a	n/a	-999	21	[1, 1, 6]	8	catFR1	2	R1274T
2401.736	4.017	2410910	PROB	4.017	n/a	n/a	n/a	-999	21	[2, 6, 2]	10	catFR1	2	R1274T
2405.753	11.102	2414927	PROB	11.102	n/a	n/a	n/a	-999	21	[4, 8, 9]	22	catFR1	2	R1274T
2416.855	4.619	2426028	PROB	4.619	n/a	n/a	n/a	-999	21	[4, 6, 9]	23	catFR1	2	R1274T
2421.474	0.017	2430647	STOP	n/a	n/a	n/a	n/a	-999	21	[-999, -999, -999]	n/a	catFR1	2	R1274T
2421.491	0.582	2430664	DISTRACT_END	n/a	n/a	n/a	n/a	-999	21	[0, 0, 0]	n/a	catFR1	2	R1274T
2422.073	0.518	2431246	RETRIEVAL_ORIENT	n/a	n/a	n/a	n/a	-999	21	[0, 0, 0]	n/a	catFR1	2	R1274T
2422.591	1.895	2431763	REC_START	n/a	n/a	n/a	n/a	-999	21	[0, 0, 0]	n/a	catFR1	2	R1274T
2424.486	28.117	2433658	REC_WORD	28.117	n/a	LADYBUG	Insects	10	21	[0, 0, 0]	n/a	catFR1	2	R1274T
2452.603	6.377	2461774	REC_END	n/a	n/a	n/a	n/a	-999	21	[0, 0, 0]	n/a	catFR1	2	R1274T
2458.98	0.5	2468150	TRIAL	n/a	n/a	n/a	n/a	-999	22	[0, 0, 0]	n/a	catFR1	2	R1274T
2459.48	10.428	2468650	COUNTDOWN_START	n/a	n/a	n/a	n/a	-999	22	[0, 0, 0]	n/a	catFR1	2	R1274T
2469.908	0.007	2479078	COUNTDOWN_END	n/a	n/a	n/a	n/a	-999	22	[0, 0, 0]	n/a	catFR1	2	R1274T
2469.915	1.618	2479085	ORIENT	n/a	n/a	n/a	n/a	-999	22	[0, 0, 0]	n/a	catFR1	2	R1274T
2471.533	2.166	2480702	ORIENT_OFF	n/a	n/a	n/a	n/a	-999	22	[0, 0, 0]	n/a	catFR1	2	R1274T
2473.699	1.618	2482868	WORD	n/a	wordpools/wordpool_categorized_EN.txt	PIGEON	Birds	1	22	[0, 0, 0]	n/a	catFR1	2	R1274T
2475.317	0.95	2484486	WORD_OFF	n/a	n/a	PIGEON	n/a	1	22	[0, 0, 0]	n/a	catFR1	2	R1274T
2476.267	1.616	2485436	WORD	n/a	wordpools/wordpool_categorized_EN.txt	GOOSE	Birds	2	22	[0, 0, 0]	n/a	catFR1	2	R1274T
2477.883	1.0	2487052	WORD_OFF	n/a	n/a	GOOSE	n/a	2	22	[0, 0, 0]	n/a	catFR1	2	R1274T
2478.883	1.618	2488052	WORD	n/a	wordpools/wordpool_categorized_EN.txt	PUZZLE	Toys	3	22	[0, 0, 0]	n/a	catFR1	2	R1274T
2480.501	0.834	2489670	WORD_OFF	n/a	n/a	PUZZLE	n/a	3	22	[0, 0, 0]	n/a	catFR1	2	R1274T
2481.335	1.616	2490504	WORD	n/a	wordpools/wordpool_categorized_EN.txt	BASEBALL	Toys	4	22	[0, 0, 0]	n/a	catFR1	2	R1274T
2482.951	0.967	2492120	WORD_OFF	n/a	n/a	BASEBALL	n/a	4	22	[0, 0, 0]	n/a	catFR1	2	R1274T
2483.918	1.618	2493087	WORD	n/a	wordpools/wordpool_categorized_EN.txt	OCEAN	Landscapes	5	22	[0, 0, 0]	n/a	catFR1	2	R1274T
2485.536	0.983	2494705	WORD_OFF	n/a	n/a	OCEAN	n/a	5	22	[0, 0, 0]	n/a	catFR1	2	R1274T
2486.519	1.617	2495688	WORD	n/a	wordpools/wordpool_categorized_EN.txt	LAKE	Landscapes	6	22	[0, 0, 0]	n/a	catFR1	2	R1274T
2488.136	0.984	2497304	WORD_OFF	n/a	n/a	LAKE	n/a	6	22	[0, 0, 0]	n/a	catFR1	2	R1274T
2489.12	1.616	2498288	WORD	n/a	wordpools/wordpool_categorized_EN.txt	FRISBEE	Toys	7	22	[0, 0, 0]	n/a	catFR1	2	R1274T
2490.736	0.95	2499904	WORD_OFF	n/a	n/a	FRISBEE	n/a	7	22	[0, 0, 0]	n/a	catFR1	2	R1274T
2491.686	1.618	2500854	WORD	n/a	wordpools/wordpool_categorized_EN.txt	MARBLES	Toys	8	22	[0, 0, 0]	n/a	catFR1	2	R1274T
2493.304	0.983	2502472	WORD_OFF	n/a	n/a	MARBLES	n/a	8	22	[0, 0, 0]	n/a	catFR1	2	R1274T
2494.287	1.616	2503455	WORD	n/a	wordpools/wordpool_categorized_EN.txt	CROW	Birds	9	22	[0, 0, 0]	n/a	catFR1	2	R1274T
2495.903	0.867	2505071	WORD_OFF	n/a	n/a	CROW	n/a	9	22	[0, 0, 0]	n/a	catFR1	2	R1274T
2496.77	1.601	2505938	WORD	n/a	wordpools/wordpool_categorized_EN.txt	SPARROW	Birds	10	22	[0, 0, 0]	n/a	catFR1	2	R1274T
2498.371	0.817	2507539	WORD_OFF	n/a	n/a	SPARROW	n/a	10	22	[0, 0, 0]	n/a	catFR1	2	R1274T
2499.188	1.616	2508356	WORD	n/a	wordpools/wordpool_categorized_EN.txt	FOREST	Landscapes	11	22	[0, 0, 0]	n/a	catFR1	2	R1274T
2500.804	0.768	2509972	WORD_OFF	n/a	n/a	FOREST	n/a	11	22	[0, 0, 0]	n/a	catFR1	2	R1274T
2501.572	1.617	2510740	WORD	n/a	wordpools/wordpool_categorized_EN.txt	WOODS	Landscapes	12	22	[0, 0, 0]	n/a	catFR1	2	R1274T
2503.189	0.0	2512357	ENCODING_END	n/a	n/a	n/a	n/a	-999	22	[0, 0, 0]	n/a	catFR1	2	R1274T
2503.189	0.1	2512357	WORD_OFF	n/a	n/a	WOODS	n/a	12	22	[0, 0, 0]	n/a	catFR1	2	R1274T
2503.289	0.0	2512457	DISTRACT_START	n/a	n/a	n/a	n/a	-999	22	[0, 0, 0]	n/a	catFR1	2	R1274T
2503.289	0.017	2512457	START	n/a	n/a	n/a	n/a	-999	22	[-999, -999, -999]	n/a	catFR1	2	R1274T
2503.306	23.654	2512474	PROB	23.654	n/a	n/a	n/a	-999	22	[6, 5, 4]	15	catFR1	2	R1274T
2526.96	0.016	2536126	STOP	n/a	n/a	n/a	n/a	-999	22	[-999, -999, -999]	n/a	catFR1	2	R1274T
2526.976	0.517	2536142	DISTRACT_END	n/a	n/a	n/a	n/a	-999	22	[0, 0, 0]	n/a	catFR1	2	R1274T
2527.493	0.517	2536659	RETRIEVAL_ORIENT	n/a	n/a	n/a	n/a	-999	22	[0, 0, 0]	n/a	catFR1	2	R1274T
2528.01	2.2	2537176	REC_START	n/a	n/a	n/a	n/a	-999	22	[0, 0, 0]	n/a	catFR1	2	R1274T
2530.21	1.282	2539376	REC_WORD	1.282	n/a	PIGEON	Birds	1	22	[0, 0, 0]	n/a	catFR1	2	R1274T
2531.492	1.008	2540658	REC_WORD	1.008	n/a	DUCK	n/a	-999	22	[0, 0, 0]	n/a	catFR1	2	R1274T
2532.5	25.518	2541666	REC_WORD	25.518	n/a	GOOSE	Birds	2	22	[0, 0, 0]	n/a	catFR1	2	R1274T
2558.018	6.631	2567182	REC_END	n/a	n/a	n/a	n/a	-999	22	[0, 0, 0]	n/a	catFR1	2	R1274T
2564.649	0.5	2573813	TRIAL	n/a	n/a	n/a	n/a	-999	23	[0, 0, 0]	n/a	catFR1	2	R1274T
2565.149	10.428	2574313	COUNTDOWN_START	n/a	n/a	n/a	n/a	-999	23	[0, 0, 0]	n/a	catFR1	2	R1274T
2575.577	0.008	2584740	COUNTDOWN_END	n/a	n/a	n/a	n/a	-999	23	[0, 0, 0]	n/a	catFR1	2	R1274T
2575.585	1.617	2584748	ORIENT	n/a	n/a	n/a	n/a	-999	23	[0, 0, 0]	n/a	catFR1	2	R1274T
2577.202	2.034	2586365	ORIENT_OFF	n/a	n/a	n/a	n/a	-999	23	[0, 0, 0]	n/a	catFR1	2	R1274T
2579.236	1.616	2588399	WORD	n/a	wordpools/wordpool_categorized_EN.txt	TRAIN	Vehicles	1	23	[0, 0, 0]	n/a	catFR1	2	R1274T
2580.852	0.883	2590015	WORD_OFF	n/a	n/a	TRAIN	n/a	1	23	[0, 0, 0]	n/a	catFR1	2	R1274T
2581.735	1.601	2590898	WORD	n/a	wordpools/wordpool_categorized_EN.txt	TRUCK	Vehicles	2	23	[0, 0, 0]	n/a	catFR1	2	R1274T
2583.336	0.951	2592499	WORD_OFF	n/a	n/a	TRUCK	n/a	2	23	[0, 0, 0]	n/a	catFR1	2	R1274T
2584.287	1.616	2593450	WORD	n/a	wordpools/wordpool_categorized_EN.txt	SQUID	OceanAnimals	3	23	[0, 0, 0]	n/a	catFR1	2	R1274T
2585.903	0.967	2595065	WORD_OFF	n/a	n/a	SQUID	n/a	3	23	[0, 0, 0]	n/a	catFR1	2	R1274T
2586.87	1.618	2596032	WORD	n/a	wordpools/wordpool_categorized_EN.txt	WHALE	OceanAnimals	4	23	[0, 0, 0]	n/a	catFR1	2	R1274T
2588.488	0.85	2597650	WORD_OFF	n/a	n/a	WHALE	n/a	4	23	[0, 0, 0]	n/a	catFR1	2	R1274T
2589.338	1.616	2598500	WORD	n/a	wordpools/wordpool_categorized_EN.txt	SLINKY	Toys	5	23	[0, 0, 0]	n/a	catFR1	2	R1274T
2590.954	0.983	2600116	WORD_OFF	n/a	n/a	SLINKY	n/a	5	23	[0, 0, 0]	n/a	catFR1	2	R1274T
2591.937	1.618	2601099	WORD	n/a	wordpools/wordpool_categorized_EN.txt	BALL	Toys	6	23	[0, 0, 0]	n/a	catFR1	2	R1274T
2593.555	0.85	2602717	WORD_OFF	n/a	n/a	BALL	n/a	6	23	[0, 0, 0]	n/a	catFR1	2	R1274T
2594.405	1.616	2603567	WORD	n/a	wordpools/wordpool_categorized_EN.txt	VAN	Vehicles	7	23	[0, 0, 0]	n/a	catFR1	2	R1274T
2596.021	0.85	2605183	WORD_OFF	n/a	n/a	VAN	n/a	7	23	[0, 0, 0]	n/a	catFR1	2	R1274T
2596.871	1.618	2606033	WORD	n/a	wordpools/wordpool_categorized_EN.txt	MOTORCYCLE	Vehicles	8	23	[0, 0, 0]	n/a	catFR1	2	R1274T
2598.489	0.934	2607651	WORD_OFF	n/a	n/a	MOTORCYCLE	n/a	8	23	[0, 0, 0]	n/a	catFR1	2	R1274T
2599.423	1.616	2608585	WORD	n/a	wordpools/wordpool_categorized_EN.txt	PLANKTON	OceanAnimals	9	23	[0, 0, 0]	n/a	catFR1	2	R1274T
2601.039	0.833	2610201	WORD_OFF	n/a	n/a	PLANKTON	n/a	9	23	[0, 0, 0]	n/a	catFR1	2	R1274T
2601.872	1.601	2611034	WORD	n/a	wordpools/wordpool_categorized_EN.txt	JELLYFISH	OceanAnimals	10	23	[0, 0, 0]	n/a	catFR1	2	R1274T
2603.473	0.784	2612634	WORD_OFF	n/a	n/a	JELLYFISH	n/a	10	23	[0, 0, 0]	n/a	catFR1	2	R1274T
2604.257	1.616	2613418	WORD	n/a	wordpools/wordpool_categorized_EN.txt	FOOTBALL	Toys	11	23	[0, 0, 0]	n/a	catFR1	2	R1274T
2605.873	0.95	2615034	WORD_OFF	n/a	n/a	FOOTBALL	n/a	11	23	[0, 0, 0]	n/a	catFR1	2	R1274T
2606.823	1.618	2615984	WORD	n/a	wordpools/wordpool_categorized_EN.txt	DOLLHOUSE	Toys	12	23	[0, 0, 0]	n/a	catFR1	2	R1274T
2608.441	0.0	2617602	ENCODING_END	n/a	n/a	n/a	n/a	-999	23	[0, 0, 0]	n/a	catFR1	2	R1274T
2608.441	0.14	2617602	WORD_OFF	n/a	n/a	DOLLHOUSE	n/a	12	23	[0, 0, 0]	n/a	catFR1	2	R1274T
2608.581	0.0	2617742	DISTRACT_START	n/a	n/a	n/a	n/a	-999	23	[0, 0, 0]	n/a	catFR1	2	R1274T
2608.581	0.01	2617742	START	n/a	n/a	n/a	n/a	-999	23	[-999, -999, -999]	n/a	catFR1	2	R1274T
2608.591	5.15	2617752	PROB	5.15	n/a	n/a	n/a	-999	23	[6, 1, 3]	10	catFR1	2	R1274T
2613.741	17.612	2622902	PROB	17.612	n/a	n/a	n/a	-999	23	[5, 7, 6]	18	catFR1	2	R1274T
2631.353	0.009	2640513	STOP	n/a	n/a	n/a	n/a	-999	23	[-999, -999, -999]	n/a	catFR1	2	R1274T
2631.362	0.649	2640522	DISTRACT_END	n/a	n/a	n/a	n/a	-999	23	[0, 0, 0]	n/a	catFR1	2	R1274T
2632.011	0.519	2641171	RETRIEVAL_ORIENT	n/a	n/a	n/a	n/a	-999	23	[0, 0, 0]	n/a	catFR1	2	R1274T
2632.53	5.184	2641690	REC_START	n/a	n/a	n/a	n/a	-999	23	[0, 0, 0]	n/a	catFR1	2	R1274T
2637.714	1.305	2646873	REC_WORD	1.305	n/a	TABLETOP	n/a	-999	23	[0, 0, 0]	n/a	catFR1	2	R1274T
2639.019	1.239	2648178	REC_WORD	1.239	n/a	VAN	Vehicles	7	23	[0, 0, 0]	n/a	catFR1	2	R1274T
2640.258	3.827	2649417	REC_WORD	3.827	n/a	DOLLHOUSE	Toys	12	23	[0, 0, 0]	n/a	catFR1	2	R1274T
2644.085	18.455	2653244	REC_WORD	18.455	n/a	PLAYTIME	n/a	-999	23	[0, 0, 0]	n/a	catFR1	2	R1274T
2662.54	5.394	2671698	REC_END	n/a	n/a	n/a	n/a	-999	23	[0, 0, 0]	n/a	catFR1	2	R1274T
2667.934	0.5	2677091	TRIAL	n/a	n/a	n/a	n/a	-999	24	[0, 0, 0]	n/a	catFR1	2	R1274T
2668.434	10.428	2677591	COUNTDOWN_START	n/a	n/a	n/a	n/a	-999	24	[0, 0, 0]	n/a	catFR1	2	R1274T
