onset	duration	sample	trial_type	response_time	stim_file	item_name	category	serialpos	list	test	answer	experiment	session	subject
0.0	1.165	1360	INSTRUCT_START	n/a	n/a	n/a	n/a	-999	-999	[0, 0, 0]	n/a	catFR1	3	R1444D
1.165	18.333	2800	INSTRUCT_END	n/a	n/a	n/a	n/a	-999	-999	[0, 0, 0]	n/a	catFR1	3	R1444D
19.498	10.349	21133	COUNTDOWN_START	n/a	n/a	n/a	n/a	-999	-999	[0, 0, 0]	n/a	catFR1	3	R1444D
29.847	0.0	31480	COUNTDOWN_END	n/a	n/a	n/a	n/a	-999	-999	[0, 0, 0]	n/a	catFR1	3	R1444D
29.847	2.301	31480	ENCODING_START	n/a	n/a	n/a	n/a	-999	-1	[0, 0, 0]	n/a	catFR1	3	R1444D
32.148	1.599	33778	WORD	n/a	n/a	ANT	Insects	1	-1	[0, 0, 0]	n/a	catFR1	3	R1444D
33.747	0.817	35372	WORD_OFF	n/a	n/a	ANT	Insects	1	-1	[0, 0, 0]	n/a	catFR1	3	R1444D
34.564	1.617	36189	WORD	n/a	n/a	BEE	Insects	2	-1	[0, 0, 0]	n/a	catFR1	3	R1444D
36.181	1.0	37809	WORD_OFF	n/a	n/a	BEE	Insects	2	-1	[0, 0, 0]	n/a	catFR1	3	R1444D
37.181	1.616	38813	WORD	n/a	n/a	PUDDING	Desserts	3	-1	[0, 0, 0]	n/a	catFR1	3	R1444D
38.797	0.967	40433	WORD_OFF	n/a	n/a	PUDDING	Desserts	3	-1	[0, 0, 0]	n/a	catFR1	3	R1444D
39.764	1.617	41400	WORD	n/a	n/a	COOKIE	Desserts	4	-1	[0, 0, 0]	n/a	catFR1	3	R1444D
41.381	0.883	43007	WORD_OFF	n/a	n/a	COOKIE	Desserts	4	-1	[0, 0, 0]	n/a	catFR1	3	R1444D
42.264	1.6	43899	WORD	n/a	n/a	REFRIGERATOR	Appliances	5	-1	[0, 0, 0]	n/a	catFR1	3	R1444D
43.864	0.999	45493	WORD_OFF	n/a	n/a	REFRIGERATOR	Appliances	5	-1	[0, 0, 0]	n/a	catFR1	3	R1444D
44.863	1.6	46498	WORD	n/a	n/a	DISHWASHER	Appliances	6	-1	[0, 0, 0]	n/a	catFR1	3	R1444D
46.463	0.801	48093	WORD_OFF	n/a	n/a	DISHWASHER	Appliances	6	-1	[0, 0, 0]	n/a	catFR1	3	R1444D
47.264	1.616	48896	WORD	n/a	n/a	CAKE	Desserts	7	-1	[0, 0, 0]	n/a	catFR1	3	R1444D
48.88	1.0	50516	WORD_OFF	n/a	n/a	CAKE	Desserts	7	-1	[0, 0, 0]	n/a	catFR1	3	R1444D
49.88	1.617	51508	WORD	n/a	n/a	PIE	Desserts	8	-1	[0, 0, 0]	n/a	catFR1	3	R1444D
51.497	0.966	53128	WORD_OFF	n/a	n/a	PIE	Desserts	8	-1	[0, 0, 0]	n/a	catFR1	3	R1444D
52.463	1.6	54095	WORD	n/a	n/a	CRICKET	Insects	9	-1	[0, 0, 0]	n/a	catFR1	3	R1444D
54.063	0.801	55690	WORD_OFF	n/a	n/a	CRICKET	Insects	9	-1	[0, 0, 0]	n/a	catFR1	3	R1444D
54.864	1.616	56506	WORD	n/a	n/a	BEETLE	Insects	10	-1	[0, 0, 0]	n/a	catFR1	3	R1444D
56.48	0.95	58113	WORD_OFF	n/a	n/a	BEETLE	Insects	10	-1	[0, 0, 0]	n/a	catFR1	3	R1444D
57.43	1.6	59055	WORD	n/a	n/a	OVEN	Appliances	11	-1	[0, 0, 0]	n/a	catFR1	3	R1444D
59.03	0.767	60662	WORD_OFF	n/a	n/a	OVEN	Appliances	11	-1	[0, 0, 0]	n/a	catFR1	3	R1444D
59.797	1.6	61428	WORD	n/a	n/a	MIXER	Appliances	12	-1	[0, 0, 0]	n/a	catFR1	3	R1444D
61.397	0.002	63023	WORD_OFF	n/a	n/a	MIXER	Appliances	12	-1	[0, 0, 0]	n/a	catFR1	3	R1444D
61.399	0.0	63023	ENCODING_END	n/a	n/a	n/a	n/a	-999	-1	[0, 0, 0]	n/a	catFR1	3	R1444D
61.399	0.0	63026	START	n/a	n/a	n/a	n/a	-999	-1	[-999, -999, -999]	n/a	catFR1	3	R1444D
61.399	0.0	63026	PROB	14.915	n/a	n/a	n/a	-999	-1	[6, 7, 3]	16.0	catFR1	3	R1444D
61.399	14.932	63035	DISTRACT_START	n/a	n/a	n/a	n/a	-999	-1	[0, 0, 0]	n/a	catFR1	3	R1444D
76.331	3.55	77957	PROB	3.533	n/a	n/a	n/a	-999	-1	[1, 7, 7]	15.0	catFR1	3	R1444D
79.881	8.233	81507	PROB	8.216	n/a	n/a	n/a	-999	-1	[7, 7, 5]	19.0	catFR1	3	R1444D
88.114	0.0	89739	STOP	n/a	n/a	n/a	n/a	-999	-1	[-999, -999, -999]	n/a	catFR1	3	R1444D
88.114	2.067	89744	DISTRACT_END	n/a	n/a	n/a	n/a	-999	-1	[0, 0, 0]	n/a	catFR1	3	R1444D
90.181	0.0	91806	REC_WORD	0.0	n/a	CAKE	Desserts	7	-1	[0, 0, 0]	n/a	catFR1	3	R1444D
90.181	0.283	91811	REC_START	n/a	n/a	n/a	n/a	-999	-1	[0, 0, 0]	n/a	catFR1	3	R1444D
90.464	0.384	92089	REC_WORD	0.283	n/a	CREAM	n/a	-999	-1	[0, 0, 0]	n/a	catFR1	3	R1444D
90.848	1.016	92473	REC_WORD	0.667	n/a	PIE	Desserts	8	-1	[0, 0, 0]	n/a	catFR1	3	R1444D
91.864	1.822	93489	REC_WORD	1.683	n/a	MAKER	n/a	-999	-1	[0, 0, 0]	n/a	catFR1	3	R1444D
93.686	3.965	95311	REC_WORD_VV	3.505	n/a	<>	n/a	-999	-1	[0, 0, 0]	n/a	catFR1	3	R1444D
97.651	0.428	99276	REC_WORD	7.47	n/a	MAKER	n/a	-999	-1	[0, 0, 0]	n/a	catFR1	3	R1444D
98.079	1.89	99704	REC_WORD_VV	7.898	n/a	<>	n/a	-999	-1	[0, 0, 0]	n/a	catFR1	3	R1444D
99.969	1.0	101594	REC_WORD_VV	9.788	n/a	<>	n/a	-999	-1	[0, 0, 0]	n/a	catFR1	3	R1444D
100.969	1.0	102594	REC_WORD_VV	10.788	n/a	<>	n/a	-999	-1	[0, 0, 0]	n/a	catFR1	3	R1444D
101.969	1.0	103594	REC_WORD_VV	11.788	n/a	<>	n/a	-999	-1	[0, 0, 0]	n/a	catFR1	3	R1444D
102.969	1.0	104594	REC_WORD_VV	12.788	n/a	<>	n/a	-999	-1	[0, 0, 0]	n/a	catFR1	3	R1444D
103.969	1.0	105594	REC_WORD_VV	13.788	n/a	<>	n/a	-999	-1	[0, 0, 0]	n/a	catFR1	3	R1444D
104.969	1.0	106594	REC_WORD_VV	14.788	n/a	<>	n/a	-999	-1	[0, 0, 0]	n/a	catFR1	3	R1444D
105.969	1.0	107594	REC_WORD_VV	15.788	n/a	<>	n/a	-999	-1	[0, 0, 0]	n/a	catFR1	3	R1444D
106.969	1.0	108593	REC_WORD_VV	16.788	n/a	<>	n/a	-999	-1	[0, 0, 0]	n/a	catFR1	3	R1444D
107.969	1.0	109593	REC_WORD_VV	17.788	n/a	<>	n/a	-999	-1	[0, 0, 0]	n/a	catFR1	3	R1444D
108.969	11.432	110593	REC_WORD_VV	18.788	n/a	<>	n/a	-999	-1	[0, 0, 0]	n/a	catFR1	3	R1444D
120.401	12.079	122028	REC_END	n/a	n/a	n/a	n/a	-999	-1	[0, 0, 0]	n/a	catFR1	3	R1444D
132.48	10.351	134108	COUNTDOWN_START	n/a	n/a	n/a	n/a	-999	1	[0, 0, 0]	n/a	catFR1	3	R1444D
142.831	0.0	144455	COUNTDOWN_END	n/a	n/a	n/a	n/a	-999	1	[0, 0, 0]	n/a	catFR1	3	R1444D
142.831	2.166	144455	ENCODING_START	n/a	n/a	n/a	n/a	-999	1	[0, 0, 0]	n/a	catFR1	3	R1444D
144.997	1.6	146627	WORD	n/a	wordpools/wordpool_categorized_EN.txt	BOOKCASE	Furniture	1	1	[0, 0, 0]	n/a	catFR1	3	R1444D
146.597	0.801	148222	WORD_OFF	n/a	n/a	BOOKCASE	Furniture	1	1	[0, 0, 0]	n/a	catFR1	3	R1444D
147.398	1.616	149025	WORD	n/a	wordpools/wordpool_categorized_EN.txt	CABINET	Furniture	2	1	[0, 0, 0]	n/a	catFR1	3	R1444D
149.014	0.85	150633	WORD_OFF	n/a	n/a	CABINET	Furniture	2	1	[0, 0, 0]	n/a	catFR1	3	R1444D
149.864	1.617	151487	WORD	n/a	wordpools/wordpool_categorized_EN.txt	CHEETAH	Zoo	3	1	[0, 0, 0]	n/a	catFR1	3	R1444D
151.481	0.866	153106	WORD_OFF	n/a	n/a	CHEETAH	Zoo	3	1	[0, 0, 0]	n/a	catFR1	3	R1444D
152.347	1.617	153973	WORD	n/a	wordpools/wordpool_categorized_EN.txt	GIRAFFE	Zoo	4	1	[0, 0, 0]	n/a	catFR1	3	R1444D
153.964	0.916	155593	WORD_OFF	n/a	n/a	GIRAFFE	Zoo	4	1	[0, 0, 0]	n/a	catFR1	3	R1444D
154.88	1.601	156509	WORD	n/a	wordpools/wordpool_categorized_EN.txt	VAN	Vehicles	5	1	[0, 0, 0]	n/a	catFR1	3	R1444D
156.481	0.783	158104	WORD_OFF	n/a	n/a	VAN	Vehicles	5	1	[0, 0, 0]	n/a	catFR1	3	R1444D
157.264	1.617	158883	WORD	n/a	wordpools/wordpool_categorized_EN.txt	PLANE	Vehicles	6	1	[0, 0, 0]	n/a	catFR1	3	R1444D
158.881	0.95	160502	WORD_OFF	n/a	n/a	PLANE	Vehicles	6	1	[0, 0, 0]	n/a	catFR1	3	R1444D
159.831	1.6	161457	WORD	n/a	wordpools/wordpool_categorized_EN.txt	ORANGUTAN	Zoo	7	1	[0, 0, 0]	n/a	catFR1	3	R1444D
161.431	0.866	163052	WORD_OFF	n/a	n/a	ORANGUTAN	Zoo	7	1	[0, 0, 0]	n/a	catFR1	3	R1444D
162.297	1.6	163918	WORD	n/a	wordpools/wordpool_categorized_EN.txt	ELEPHANT	Zoo	8	1	[0, 0, 0]	n/a	catFR1	3	R1444D
163.897	0.867	165525	WORD_OFF	n/a	n/a	ELEPHANT	Zoo	8	1	[0, 0, 0]	n/a	catFR1	3	R1444D
164.764	1.6	166392	WORD	n/a	wordpools/wordpool_categorized_EN.txt	MOPED	Vehicles	9	1	[0, 0, 0]	n/a	catFR1	3	R1444D
166.364	0.917	167986	WORD_OFF	n/a	n/a	MOPED	Vehicles	9	1	[0, 0, 0]	n/a	catFR1	3	R1444D
167.281	1.616	168903	WORD	n/a	wordpools/wordpool_categorized_EN.txt	CAR	Vehicles	10	1	[0, 0, 0]	n/a	catFR1	3	R1444D
168.897	0.916	170523	WORD_OFF	n/a	n/a	CAR	Vehicles	10	1	[0, 0, 0]	n/a	catFR1	3	R1444D
169.813	1.617	171440	WORD	n/a	wordpools/wordpool_categorized_EN.txt	NIGHTSTAND	Furniture	11	1	[0, 0, 0]	n/a	catFR1	3	R1444D
171.43	0.766	173059	WORD_OFF	n/a	n/a	NIGHTSTAND	Furniture	11	1	[0, 0, 0]	n/a	catFR1	3	R1444D
172.196	1.617	173825	WORD	n/a	wordpools/wordpool_categorized_EN.txt	RECLINER	Furniture	12	1	[0, 0, 0]	n/a	catFR1	3	R1444D
173.813	0.002	175433	WORD_OFF	n/a	n/a	RECLINER	Furniture	12	1	[0, 0, 0]	n/a	catFR1	3	R1444D
173.815	0.0	175433	ENCODING_END	n/a	n/a	n/a	n/a	-999	1	[0, 0, 0]	n/a	catFR1	3	R1444D
173.814	0.001	175435	PROB	12.567	n/a	n/a	n/a	-999	1	[5, 6, 6]	17.0	catFR1	3	R1444D
173.815	0.0	175436	START	n/a	n/a	n/a	n/a	-999	1	[-999, -999, -999]	n/a	catFR1	3	R1444D
173.815	12.583	175445	DISTRACT_START	n/a	n/a	n/a	n/a	-999	1	[0, 0, 0]	n/a	catFR1	3	R1444D
186.398	4.9	188018	PROB	4.882	n/a	n/a	n/a	-999	1	[6, 2, 4]	12.0	catFR1	3	R1444D
191.298	6.35	192918	PROB	6.333	n/a	n/a	n/a	-999	1	[3, 4, 1]	8.0	catFR1	3	R1444D
197.648	0.0	199266	DISTRACT_END	n/a	n/a	n/a	n/a	-999	1	[0, 0, 0]	n/a	catFR1	3	R1444D
197.648	2.131	199268	STOP	n/a	n/a	n/a	n/a	-999	1	[-999, -999, -999]	n/a	catFR1	3	R1444D
199.779	1.609	201396	REC_START	n/a	n/a	n/a	n/a	-999	1	[0, 0, 0]	n/a	catFR1	3	R1444D
201.388	0.694	203007	REC_WORD	1.609	n/a	NIGHTSTAND	Furniture	11	1	[0, 0, 0]	n/a	catFR1	3	R1444D
202.082	1.0	203701	REC_WORD_VV	2.303	n/a	<>	n/a	-999	1	[0, 0, 0]	n/a	catFR1	3	R1444D
203.082	1.123	204701	REC_WORD_VV	3.303	n/a	<>	n/a	-999	1	[0, 0, 0]	n/a	catFR1	3	R1444D
204.205	0.393	205824	REC_WORD_VV	4.426	n/a	<>	n/a	-999	1	[0, 0, 0]	n/a	catFR1	3	R1444D
204.598	2.1	206217	REC_WORD	4.819	n/a	RECLINER	Furniture	12	1	[0, 0, 0]	n/a	catFR1	3	R1444D
206.698	3.037	208317	REC_WORD_VV	6.919	n/a	<>	n/a	-999	1	[0, 0, 0]	n/a	catFR1	3	R1444D
209.735	3.514	211354	REC_WORD	9.956	n/a	MOPED	Vehicles	9	1	[0, 0, 0]	n/a	catFR1	3	R1444D
213.249	0.72	214868	REC_WORD	13.47	n/a	MOPED	Vehicles	9	1	[0, 0, 0]	n/a	catFR1	3	R1444D
213.969	3.818	215588	REC_WORD_VV	14.19	n/a	<>	n/a	-999	1	[0, 0, 0]	n/a	catFR1	3	R1444D
217.787	2.191	219406	REC_WORD_VV	18.008	n/a	<>	n/a	-999	1	[0, 0, 0]	n/a	catFR1	3	R1444D
219.978	0.585	221596	REC_WORD	20.199	n/a	NIGHTSTAND	Furniture	11	1	[0, 0, 0]	n/a	catFR1	3	R1444D
220.563	0.799	222181	REC_WORD	20.784	n/a	RECLINER	Furniture	12	1	[0, 0, 0]	n/a	catFR1	3	R1444D
221.362	0.446	222980	REC_WORD	21.583	n/a	NIGHTSTAND	Furniture	11	1	[0, 0, 0]	n/a	catFR1	3	R1444D
221.808	0.464	223426	REC_WORD	22.029	n/a	RECLINER	Furniture	12	1	[0, 0, 0]	n/a	catFR1	3	R1444D
222.272	2.204	223890	REC_WORD	22.493	n/a	MOPED	Vehicles	9	1	[0, 0, 0]	n/a	catFR1	3	R1444D
224.476	1.291	226094	REC_WORD	24.697	n/a	MOUSSE	n/a	-999	1	[0, 0, 0]	n/a	catFR1	3	R1444D
225.767	1.0	227385	REC_WORD_VV	25.988	n/a	<>	n/a	-999	1	[0, 0, 0]	n/a	catFR1	3	R1444D
226.767	1.0	228385	REC_WORD_VV	26.988	n/a	<>	n/a	-999	1	[0, 0, 0]	n/a	catFR1	3	R1444D
227.767	2.247	229385	REC_WORD_VV	27.988	n/a	<>	n/a	-999	1	[0, 0, 0]	n/a	catFR1	3	R1444D
230.014	6.833	231638	REC_END	n/a	n/a	n/a	n/a	-999	1	[0, 0, 0]	n/a	catFR1	3	R1444D
236.847	10.348	238469	COUNTDOWN_START	n/a	n/a	n/a	n/a	-999	2	[0, 0, 0]	n/a	catFR1	3	R1444D
247.195	0.0	248816	COUNTDOWN_END	n/a	n/a	n/a	n/a	-999	2	[0, 0, 0]	n/a	catFR1	3	R1444D
247.195	2.186	248816	ENCODING_START	n/a	n/a	n/a	n/a	-999	2	[0, 0, 0]	n/a	catFR1	3	R1444D
249.381	1.6	251000	WORD	n/a	wordpools/wordpool_categorized_EN.txt	WALNUT	Trees	1	2	[0, 0, 0]	n/a	catFR1	3	R1444D
250.981	0.949	252595	WORD_OFF	n/a	n/a	WALNUT	Trees	1	2	[0, 0, 0]	n/a	catFR1	3	R1444D
251.93	1.601	253549	WORD	n/a	wordpools/wordpool_categorized_EN.txt	BIRCH	Trees	2	2	[0, 0, 0]	n/a	catFR1	3	R1444D
253.531	0.765	255144	WORD_OFF	n/a	n/a	BIRCH	Trees	2	2	[0, 0, 0]	n/a	catFR1	3	R1444D
254.296	1.601	255910	WORD	n/a	wordpools/wordpool_categorized_EN.txt	COFFEE	Beverages	3	2	[0, 0, 0]	n/a	catFR1	3	R1444D
255.897	0.817	257517	WORD_OFF	n/a	n/a	COFFEE	Beverages	3	2	[0, 0, 0]	n/a	catFR1	3	R1444D
256.714	1.616	258334	WORD	n/a	wordpools/wordpool_categorized_EN.txt	SODA	Beverages	4	2	[0, 0, 0]	n/a	catFR1	3	R1444D
258.33	0.767	259954	WORD_OFF	n/a	n/a	SODA	Beverages	4	2	[0, 0, 0]	n/a	catFR1	3	R1444D
259.097	1.617	260720	WORD	n/a	wordpools/wordpool_categorized_EN.txt	TELEVISION	Electronics	5	2	[0, 0, 0]	n/a	catFR1	3	R1444D
260.714	0.866	262339	WORD_OFF	n/a	n/a	TELEVISION	Electronics	5	2	[0, 0, 0]	n/a	catFR1	3	R1444D
261.58	1.601	263193	WORD	n/a	wordpools/wordpool_categorized_EN.txt	COMPUTER	Electronics	6	2	[0, 0, 0]	n/a	catFR1	3	R1444D
263.181	0.883	264801	WORD_OFF	n/a	n/a	COMPUTER	Electronics	6	2	[0, 0, 0]	n/a	catFR1	3	R1444D
264.064	1.6	265680	WORD	n/a	wordpools/wordpool_categorized_EN.txt	EVERGREEN	Trees	7	2	[0, 0, 0]	n/a	catFR1	3	R1444D
265.664	0.933	267287	WORD_OFF	n/a	n/a	EVERGREEN	Trees	7	2	[0, 0, 0]	n/a	catFR1	3	R1444D
266.597	1.6	268216	WORD	n/a	wordpools/wordpool_categorized_EN.txt	PINE	Trees	8	2	[0, 0, 0]	n/a	catFR1	3	R1444D
268.197	1.0	269811	WORD_OFF	n/a	n/a	PINE	Trees	8	2	[0, 0, 0]	n/a	catFR1	3	R1444D
269.197	1.6	270815	WORD	n/a	wordpools/wordpool_categorized_EN.txt	CIDER	Beverages	9	2	[0, 0, 0]	n/a	catFR1	3	R1444D
270.797	0.867	272410	WORD_OFF	n/a	n/a	CIDER	Beverages	9	2	[0, 0, 0]	n/a	catFR1	3	R1444D
271.664	1.6	273276	WORD	n/a	wordpools/wordpool_categorized_EN.txt	JUICE	Beverages	10	2	[0, 0, 0]	n/a	catFR1	3	R1444D
273.264	0.8	274884	WORD_OFF	n/a	n/a	JUICE	Beverages	10	2	[0, 0, 0]	n/a	catFR1	3	R1444D
274.064	1.617	275687	WORD	n/a	wordpools/wordpool_categorized_EN.txt	PRINTER	Electronics	11	2	[0, 0, 0]	n/a	catFR1	3	R1444D
275.681	0.883	277295	WORD_OFF	n/a	n/a	PRINTER	Electronics	11	2	[0, 0, 0]	n/a	catFR1	3	R1444D
276.564	1.601	278186	WORD	n/a	wordpools/wordpool_categorized_EN.txt	STEREO	Electronics	12	2	[0, 0, 0]	n/a	catFR1	3	R1444D
278.165	0.0	279780	PROB	15.048	n/a	n/a	n/a	-999	2	[8, 7, 5]	20.0	catFR1	3	R1444D
278.164	0.003	279781	WORD_OFF	n/a	n/a	STEREO	Electronics	12	2	[0, 0, 0]	n/a	catFR1	3	R1444D
278.167	0.0	279781	ENCODING_END	n/a	n/a	n/a	n/a	-999	2	[0, 0, 0]	n/a	catFR1	3	R1444D
278.167	0.0	279781	DISTRACT_START	n/a	n/a	n/a	n/a	-999	2	[0, 0, 0]	n/a	catFR1	3	R1444D
278.167	15.065	279782	START	n/a	n/a	n/a	n/a	-999	2	[-999, -999, -999]	n/a	catFR1	3	R1444D
293.232	5.464	294847	PROB	5.449	n/a	n/a	n/a	-999	2	[2, 4, 7]	13.0	catFR1	3	R1444D
298.696	0.0	300310	STOP	n/a	n/a	n/a	n/a	-999	2	[-999, -999, -999]	n/a	catFR1	3	R1444D
298.696	2.017	300312	DISTRACT_END	n/a	n/a	n/a	n/a	-999	2	[0, 0, 0]	n/a	catFR1	3	R1444D
300.713	2.344	302329	REC_START	n/a	n/a	n/a	n/a	-999	2	[0, 0, 0]	n/a	catFR1	3	R1444D
303.057	0.695	304671	REC_WORD	2.344	n/a	CIDER	Beverages	9	2	[0, 0, 0]	n/a	catFR1	3	R1444D
303.752	1.286	305366	REC_WORD	3.039	n/a	PINE	Trees	8	2	[0, 0, 0]	n/a	catFR1	3	R1444D
305.038	2.64	306652	REC_WORD_VV	4.325	n/a	<>	n/a	-999	2	[0, 0, 0]	n/a	catFR1	3	R1444D
307.678	3.373	309292	REC_WORD_VV	6.965	n/a	<>	n/a	-999	2	[0, 0, 0]	n/a	catFR1	3	R1444D
311.051	0.895	312665	REC_WORD	10.338	n/a	CIDER	Beverages	9	2	[0, 0, 0]	n/a	catFR1	3	R1444D
311.946	2.557	313560	REC_WORD	11.233	n/a	PINE	Trees	8	2	[0, 0, 0]	n/a	catFR1	3	R1444D
314.503	0.707	316116	REC_WORD	13.79	n/a	CIDER	Beverages	9	2	[0, 0, 0]	n/a	catFR1	3	R1444D
315.21	2.152	316823	REC_WORD	14.497	n/a	PINE	Trees	8	2	[0, 0, 0]	n/a	catFR1	3	R1444D
317.362	2.956	318975	REC_WORD	16.649	n/a	GREEN	n/a	-999	2	[0, 0, 0]	n/a	catFR1	3	R1444D
320.318	6.061	321931	REC_WORD_VV	19.605	n/a	<>	n/a	-999	2	[0, 0, 0]	n/a	catFR1	3	R1444D
326.379	1.0	327992	REC_WORD_VV	25.666	n/a	<>	n/a	-999	2	[0, 0, 0]	n/a	catFR1	3	R1444D
327.379	1.0	328992	REC_WORD_VV	26.666	n/a	<>	n/a	-999	2	[0, 0, 0]	n/a	catFR1	3	R1444D
328.379	2.561	329992	REC_WORD_VV	27.666	n/a	<>	n/a	-999	2	[0, 0, 0]	n/a	catFR1	3	R1444D
330.94	6.174	332558	REC_END	n/a	n/a	n/a	n/a	-999	2	[0, 0, 0]	n/a	catFR1	3	R1444D
337.114	10.35	338736	COUNTDOWN_START	n/a	n/a	n/a	n/a	-999	3	[0, 0, 0]	n/a	catFR1	3	R1444D
347.464	0.0	349083	COUNTDOWN_END	n/a	n/a	n/a	n/a	-999	3	[0, 0, 0]	n/a	catFR1	3	R1444D
347.464	2.284	349083	ENCODING_START	n/a	n/a	n/a	n/a	-999	3	[0, 0, 0]	n/a	catFR1	3	R1444D
349.748	1.6	351368	WORD	n/a	wordpools/wordpool_categorized_EN.txt	VIOLET	Flowers	1	3	[0, 0, 0]	n/a	catFR1	3	R1444D
351.348	0.85	352963	WORD_OFF	n/a	n/a	VIOLET	Flowers	1	3	[0, 0, 0]	n/a	catFR1	3	R1444D
352.198	1.616	353817	WORD	n/a	wordpools/wordpool_categorized_EN.txt	LILY	Flowers	2	3	[0, 0, 0]	n/a	catFR1	3	R1444D
353.814	0.9	355424	WORD_OFF	n/a	n/a	LILY	Flowers	2	3	[0, 0, 0]	n/a	catFR1	3	R1444D
354.714	1.617	356328	WORD	n/a	wordpools/wordpool_categorized_EN.txt	ARM	BodyParts	3	3	[0, 0, 0]	n/a	catFR1	3	R1444D
356.331	0.815	357948	WORD_OFF	n/a	n/a	ARM	BodyParts	3	3	[0, 0, 0]	n/a	catFR1	3	R1444D
357.146	1.601	358764	WORD	n/a	wordpools/wordpool_categorized_EN.txt	EAR	BodyParts	4	3	[0, 0, 0]	n/a	catFR1	3	R1444D
358.747	0.851	360359	WORD_OFF	n/a	n/a	EAR	BodyParts	4	3	[0, 0, 0]	n/a	catFR1	3	R1444D
359.598	1.616	361213	WORD	n/a	wordpools/wordpool_categorized_EN.txt	OCEAN	Landscapes	5	3	[0, 0, 0]	n/a	catFR1	3	R1444D
361.214	0.883	362833	WORD_OFF	n/a	n/a	OCEAN	Landscapes	5	3	[0, 0, 0]	n/a	catFR1	3	R1444D
362.097	1.6	363712	WORD	n/a	wordpools/wordpool_categorized_EN.txt	ISLAND	Landscapes	6	3	[0, 0, 0]	n/a	catFR1	3	R1444D
363.697	0.783	365306	WORD_OFF	n/a	n/a	ISLAND	Landscapes	6	3	[0, 0, 0]	n/a	catFR1	3	R1444D
364.48	1.618	366097	WORD	n/a	wordpools/wordpool_categorized_EN.txt	SUNFLOWER	Flowers	7	3	[0, 0, 0]	n/a	catFR1	3	R1444D
366.098	0.85	367717	WORD_OFF	n/a	n/a	SUNFLOWER	Flowers	7	3	[0, 0, 0]	n/a	catFR1	3	R1444D
366.948	1.599	368559	WORD	n/a	wordpools/wordpool_categorized_EN.txt	LILAC	Flowers	8	3	[0, 0, 0]	n/a	catFR1	3	R1444D
368.547	0.867	370166	WORD_OFF	n/a	n/a	LILAC	Flowers	8	3	[0, 0, 0]	n/a	catFR1	3	R1444D
369.414	1.6	371032	WORD	n/a	wordpools/wordpool_categorized_EN.txt	FOOT	BodyParts	9	3	[0, 0, 0]	n/a	catFR1	3	R1444D
371.014	0.849	372627	WORD_OFF	n/a	n/a	FOOT	BodyParts	9	3	[0, 0, 0]	n/a	catFR1	3	R1444D
371.863	1.601	373481	WORD	n/a	wordpools/wordpool_categorized_EN.txt	EYE	BodyParts	10	3	[0, 0, 0]	n/a	catFR1	3	R1444D
373.464	0.883	375076	WORD_OFF	n/a	n/a	EYE	BodyParts	10	3	[0, 0, 0]	n/a	catFR1	3	R1444D
374.347	1.601	375955	WORD	n/a	wordpools/wordpool_categorized_EN.txt	LAKE	Landscapes	11	3	[0, 0, 0]	n/a	catFR1	3	R1444D
375.948	0.866	377562	WORD_OFF	n/a	n/a	LAKE	Landscapes	11	3	[0, 0, 0]	n/a	catFR1	3	R1444D
376.814	1.617	378428	WORD	n/a	wordpools/wordpool_categorized_EN.txt	STREAM	Landscapes	12	3	[0, 0, 0]	n/a	catFR1	3	R1444D
378.431	0.001	380041	PROB	13.066	n/a	n/a	n/a	-999	3	[8, 8, 4]	18.0	catFR1	3	R1444D
378.432	0.0	380042	START	n/a	n/a	n/a	n/a	-999	3	[-999, -999, -999]	n/a	catFR1	3	R1444D
378.431	0.001	380048	WORD_OFF	n/a	n/a	STREAM	Landscapes	12	3	[0, 0, 0]	n/a	catFR1	3	R1444D
378.432	0.0	380048	ENCODING_END	n/a	n/a	n/a	n/a	-999	3	[0, 0, 0]	n/a	catFR1	3	R1444D
378.432	13.083	380048	DISTRACT_START	n/a	n/a	n/a	n/a	-999	3	[0, 0, 0]	n/a	catFR1	3	R1444D
391.515	5.866	393124	PROB	5.849	n/a	n/a	n/a	-999	3	[7, 1, 4]	12.0	catFR1	3	R1444D
397.381	7.216	398990	PROB	7.2	n/a	n/a	n/a	-999	3	[5, 3, 4]	12.0	catFR1	3	R1444D
404.597	0.0	406204	DISTRACT_END	n/a	n/a	n/a	n/a	-999	3	[0, 0, 0]	n/a	catFR1	3	R1444D
404.597	2.399	406206	STOP	n/a	n/a	n/a	n/a	-999	3	[-999, -999, -999]	n/a	catFR1	3	R1444D
406.996	1.367	408611	REC_START	n/a	n/a	n/a	n/a	-999	3	[0, 0, 0]	n/a	catFR1	3	R1444D
408.363	1.0	409971	REC_WORD_VV	1.367	n/a	<>	n/a	-999	3	[0, 0, 0]	n/a	catFR1	3	R1444D
409.363	2.205	410971	REC_WORD_VV	2.367	n/a	<>	n/a	-999	3	[0, 0, 0]	n/a	catFR1	3	R1444D
411.568	1.134	413176	REC_WORD	4.572	n/a	FIRE	n/a	-999	3	[0, 0, 0]	n/a	catFR1	3	R1444D
412.702	0.524	414310	REC_WORD	5.706	n/a	FIRE	n/a	-999	3	[0, 0, 0]	n/a	catFR1	3	R1444D
413.226	0.352	414834	REC_WORD	6.23	n/a	LAKE	Landscapes	11	3	[0, 0, 0]	n/a	catFR1	3	R1444D
413.578	1.915	415186	REC_WORD	6.582	n/a	STREAM	Landscapes	12	3	[0, 0, 0]	n/a	catFR1	3	R1444D
415.493	2.878	417101	REC_WORD_VV	8.497	n/a	<>	n/a	-999	3	[0, 0, 0]	n/a	catFR1	3	R1444D
418.371	0.899	419979	REC_WORD	11.375	n/a	FIRE	n/a	-999	3	[0, 0, 0]	n/a	catFR1	3	R1444D
419.27	0.324	420878	REC_WORD	12.274	n/a	LAKE	Landscapes	11	3	[0, 0, 0]	n/a	catFR1	3	R1444D
419.594	2.382	421202	REC_WORD	12.598	n/a	STREAM	Landscapes	12	3	[0, 0, 0]	n/a	catFR1	3	R1444D
421.976	15.263	423584	REC_WORD_VV	14.98	n/a	<>	n/a	-999	3	[0, 0, 0]	n/a	catFR1	3	R1444D
437.239	9.408	438852	REC_END	n/a	n/a	n/a	n/a	-999	3	[0, 0, 0]	n/a	catFR1	3	R1444D
446.647	10.35	448258	COUNTDOWN_START	n/a	n/a	n/a	n/a	-999	4	[0, 0, 0]	n/a	catFR1	3	R1444D
456.997	0.0	458605	COUNTDOWN_END	n/a	n/a	n/a	n/a	-999	4	[0, 0, 0]	n/a	catFR1	3	R1444D
456.997	2.217	458605	ENCODING_START	n/a	n/a	n/a	n/a	-999	4	[0, 0, 0]	n/a	catFR1	3	R1444D
459.214	1.616	460827	WORD	n/a	wordpools/wordpool_categorized_EN.txt	PIG	FarmAnimals	1	4	[0, 0, 0]	n/a	catFR1	3	R1444D
460.83	1.001	462434	WORD_OFF	n/a	n/a	PIG	FarmAnimals	1	4	[0, 0, 0]	n/a	catFR1	3	R1444D
461.831	1.617	463439	WORD	n/a	wordpools/wordpool_categorized_EN.txt	LAMB	FarmAnimals	2	4	[0, 0, 0]	n/a	catFR1	3	R1444D
463.448	0.915	465059	WORD_OFF	n/a	n/a	LAMB	FarmAnimals	2	4	[0, 0, 0]	n/a	catFR1	3	R1444D
464.363	1.601	465975	WORD	n/a	wordpools/wordpool_categorized_EN.txt	BED	Furniture	3	4	[0, 0, 0]	n/a	catFR1	3	R1444D
465.964	0.9	467570	WORD_OFF	n/a	n/a	BED	Furniture	3	4	[0, 0, 0]	n/a	catFR1	3	R1444D
466.864	1.601	468474	WORD	n/a	wordpools/wordpool_categorized_EN.txt	COUCH	Furniture	4	4	[0, 0, 0]	n/a	catFR1	3	R1444D
468.465	0.883	470069	WORD_OFF	n/a	n/a	COUCH	Furniture	4	4	[0, 0, 0]	n/a	catFR1	3	R1444D
469.348	1.616	470961	WORD	n/a	wordpools/wordpool_categorized_EN.txt	STAPLER	OfficeSupplies	5	4	[0, 0, 0]	n/a	catFR1	3	R1444D
470.964	0.966	472568	WORD_OFF	n/a	n/a	STAPLER	OfficeSupplies	5	4	[0, 0, 0]	n/a	catFR1	3	R1444D
471.93	1.601	473535	WORD	n/a	wordpools/wordpool_categorized_EN.txt	FOLDER	OfficeSupplies	6	4	[0, 0, 0]	n/a	catFR1	3	R1444D
473.531	0.967	475142	WORD_OFF	n/a	n/a	FOLDER	OfficeSupplies	6	4	[0, 0, 0]	n/a	catFR1	3	R1444D
474.498	1.616	476109	WORD	n/a	wordpools/wordpool_categorized_EN.txt	SOFA	Furniture	7	4	[0, 0, 0]	n/a	catFR1	3	R1444D
476.114	0.967	477716	WORD_OFF	n/a	n/a	SOFA	Furniture	7	4	[0, 0, 0]	n/a	catFR1	3	R1444D
477.081	1.616	478683	WORD	n/a	wordpools/wordpool_categorized_EN.txt	DRESSER	Furniture	8	4	[0, 0, 0]	n/a	catFR1	3	R1444D
478.697	0.8	480303	WORD_OFF	n/a	n/a	DRESSER	Furniture	8	4	[0, 0, 0]	n/a	catFR1	3	R1444D
479.497	1.6	481107	WORD	n/a	wordpools/wordpool_categorized_EN.txt	HORSE	FarmAnimals	9	4	[0, 0, 0]	n/a	catFR1	3	R1444D
481.097	1.001	482701	WORD_OFF	n/a	n/a	HORSE	FarmAnimals	9	4	[0, 0, 0]	n/a	catFR1	3	R1444D
482.098	1.615	483706	WORD	n/a	wordpools/wordpool_categorized_EN.txt	ROOSTER	FarmAnimals	10	4	[0, 0, 0]	n/a	catFR1	3	R1444D
483.713	1.001	485326	WORD_OFF	n/a	n/a	ROOSTER	FarmAnimals	10	4	[0, 0, 0]	n/a	catFR1	3	R1444D
484.714	1.617	486318	WORD	n/a	wordpools/wordpool_categorized_EN.txt	BINDER	OfficeSupplies	11	4	[0, 0, 0]	n/a	catFR1	3	R1444D
486.331	0.899	487938	WORD_OFF	n/a	n/a	BINDER	OfficeSupplies	11	4	[0, 0, 0]	n/a	catFR1	3	R1444D
487.23	1.601	488842	WORD	n/a	wordpools/wordpool_categorized_EN.txt	RULER	OfficeSupplies	12	4	[0, 0, 0]	n/a	catFR1	3	R1444D
488.831	0.0	490435	PROB	13.2	n/a	n/a	n/a	-999	4	[2, 4, 7]	13.0	catFR1	3	R1444D
488.831	0.001	490436	WORD_OFF	n/a	n/a	RULER	OfficeSupplies	12	4	[0, 0, 0]	n/a	catFR1	3	R1444D
488.832	0.0	490436	ENCODING_END	n/a	n/a	n/a	n/a	-999	4	[0, 0, 0]	n/a	catFR1	3	R1444D
488.832	0.0	490436	DISTRACT_START	n/a	n/a	n/a	n/a	-999	4	[0, 0, 0]	n/a	catFR1	3	R1444D
488.832	13.215	490436	START	n/a	n/a	n/a	n/a	-999	4	[-999, -999, -999]	n/a	catFR1	3	R1444D
502.047	7.517	503650	PROB	7.5	n/a	n/a	n/a	-999	4	[5, 8, 4]	17.0	catFR1	3	R1444D
509.564	0.0	511167	STOP	n/a	n/a	n/a	n/a	-999	4	[-999, -999, -999]	n/a	catFR1	3	R1444D
509.564	2.166	511168	DISTRACT_END	n/a	n/a	n/a	n/a	-999	4	[0, 0, 0]	n/a	catFR1	3	R1444D
511.73	4.068	513336	REC_START	n/a	n/a	n/a	n/a	-999	4	[0, 0, 0]	n/a	catFR1	3	R1444D
515.798	0.323	517401	REC_WORD	4.068	n/a	PIG	FarmAnimals	1	4	[0, 0, 0]	n/a	catFR1	3	R1444D
516.121	1.424	517724	REC_WORD	4.391	n/a	FOREST	n/a	-999	4	[0, 0, 0]	n/a	catFR1	3	R1444D
517.545	1.0	519148	REC_WORD_VV	5.815	n/a	<>	n/a	-999	4	[0, 0, 0]	n/a	catFR1	3	R1444D
518.545	1.0	520148	REC_WORD_VV	6.815	n/a	<>	n/a	-999	4	[0, 0, 0]	n/a	catFR1	3	R1444D
519.545	1.091	521148	REC_WORD_VV	7.815	n/a	<>	n/a	-999	4	[0, 0, 0]	n/a	catFR1	3	R1444D
520.636	3.517	522238	REC_WORD	8.906	n/a	LAMB	FarmAnimals	2	4	[0, 0, 0]	n/a	catFR1	3	R1444D
524.153	2.056	525755	REC_WORD_VV	12.423	n/a	<>	n/a	-999	4	[0, 0, 0]	n/a	catFR1	3	R1444D
526.209	1.52	527811	REC_WORD	14.479	n/a	LOBSTER	n/a	-999	4	[0, 0, 0]	n/a	catFR1	3	R1444D
527.729	1.416	529331	REC_WORD	15.999	n/a	COUCH	Furniture	4	4	[0, 0, 0]	n/a	catFR1	3	R1444D
529.145	1.851	530747	REC_WORD_VV	17.415	n/a	<>	n/a	-999	4	[0, 0, 0]	n/a	catFR1	3	R1444D
530.996	2.47	532598	REC_WORD	19.266	n/a	POTATO	n/a	-999	4	[0, 0, 0]	n/a	catFR1	3	R1444D
533.466	5.201	535068	REC_WORD_VV	21.736	n/a	<>	n/a	-999	4	[0, 0, 0]	n/a	catFR1	3	R1444D
538.667	3.302	540269	REC_WORD_VV	26.937	n/a	<>	n/a	-999	4	[0, 0, 0]	n/a	catFR1	3	R1444D
541.969	3.128	543577	REC_END	n/a	n/a	n/a	n/a	-999	4	[0, 0, 0]	n/a	catFR1	3	R1444D
545.097	10.35	546704	COUNTDOWN_START	n/a	n/a	n/a	n/a	-999	5	[0, 0, 0]	n/a	catFR1	3	R1444D
555.447	0.001	557051	COUNTDOWN_END	n/a	n/a	n/a	n/a	-999	5	[0, 0, 0]	n/a	catFR1	3	R1444D
555.448	2.048	557051	ENCODING_START	n/a	n/a	n/a	n/a	-999	5	[0, 0, 0]	n/a	catFR1	3	R1444D
557.496	1.601	559098	WORD	n/a	wordpools/wordpool_categorized_EN.txt	FOOTBALL	Toys	1	5	[0, 0, 0]	n/a	catFR1	3	R1444D
559.097	0.784	560705	WORD_OFF	n/a	n/a	FOOTBALL	Toys	1	5	[0, 0, 0]	n/a	catFR1	3	R1444D
559.881	1.616	561484	WORD	n/a	wordpools/wordpool_categorized_EN.txt	BASKETBALL	Toys	2	5	[0, 0, 0]	n/a	catFR1	3	R1444D
561.497	0.8	563103	WORD_OFF	n/a	n/a	BASKETBALL	Toys	2	5	[0, 0, 0]	n/a	catFR1	3	R1444D
562.297	1.601	563895	WORD	n/a	wordpools/wordpool_categorized_EN.txt	WASHER	Appliances	3	5	[0, 0, 0]	n/a	catFR1	3	R1444D
563.898	0.865	565502	WORD_OFF	n/a	n/a	WASHER	Appliances	3	5	[0, 0, 0]	n/a	catFR1	3	R1444D
564.763	1.6	566368	WORD	n/a	wordpools/wordpool_categorized_EN.txt	FREEZER	Appliances	4	5	[0, 0, 0]	n/a	catFR1	3	R1444D
566.363	0.834	567963	WORD_OFF	n/a	n/a	FREEZER	Appliances	4	5	[0, 0, 0]	n/a	catFR1	3	R1444D
567.197	1.615	568804	WORD	n/a	wordpools/wordpool_categorized_EN.txt	DRIZZLE	Weather	5	5	[0, 0, 0]	n/a	catFR1	3	R1444D
568.812	0.836	570412	WORD_OFF	n/a	n/a	DRIZZLE	Weather	5	5	[0, 0, 0]	n/a	catFR1	3	R1444D
569.648	1.6	571253	WORD	n/a	wordpools/wordpool_categorized_EN.txt	SNOW	Weather	6	5	[0, 0, 0]	n/a	catFR1	3	R1444D
571.248	0.882	572848	WORD_OFF	n/a	n/a	SNOW	Weather	6	5	[0, 0, 0]	n/a	catFR1	3	R1444D
572.13	1.601	573727	WORD	n/a	wordpools/wordpool_categorized_EN.txt	BARBIE	Toys	7	5	[0, 0, 0]	n/a	catFR1	3	R1444D
573.731	0.783	575334	WORD_OFF	n/a	n/a	BARBIE	Toys	7	5	[0, 0, 0]	n/a	catFR1	3	R1444D
574.514	1.617	576112	WORD	n/a	wordpools/wordpool_categorized_EN.txt	DOLL	Toys	8	5	[0, 0, 0]	n/a	catFR1	3	R1444D
576.131	0.867	577732	WORD_OFF	n/a	n/a	DOLL	Toys	8	5	[0, 0, 0]	n/a	catFR1	3	R1444D
576.998	1.599	578599	WORD	n/a	wordpools/wordpool_categorized_EN.txt	IRON	Appliances	9	5	[0, 0, 0]	n/a	catFR1	3	R1444D
578.597	0.984	580193	WORD_OFF	n/a	n/a	IRON	Appliances	9	5	[0, 0, 0]	n/a	catFR1	3	R1444D
579.581	1.617	581185	WORD	n/a	wordpools/wordpool_categorized_EN.txt	TOASTER	Appliances	10	5	[0, 0, 0]	n/a	catFR1	3	R1444D
581.198	0.966	582805	WORD_OFF	n/a	n/a	TOASTER	Appliances	10	5	[0, 0, 0]	n/a	catFR1	3	R1444D
582.164	1.616	583772	WORD	n/a	wordpools/wordpool_categorized_EN.txt	THUNDERSTORM	Weather	11	5	[0, 0, 0]	n/a	catFR1	3	R1444D
583.78	0.968	585380	WORD_OFF	n/a	n/a	THUNDERSTORM	Weather	11	5	[0, 0, 0]	n/a	catFR1	3	R1444D
584.748	1.617	586346	WORD	n/a	wordpools/wordpool_categorized_EN.txt	CLOUD	Weather	12	5	[0, 0, 0]	n/a	catFR1	3	R1444D
586.365	0.001	587964	PROB	46.432	n/a	n/a	n/a	-999	5	[7, 8, 7]	22.0	catFR1	3	R1444D
586.366	0.0	587965	START	n/a	n/a	n/a	n/a	-999	5	[-999, -999, -999]	n/a	catFR1	3	R1444D
586.364	0.002	587966	WORD_OFF	n/a	n/a	CLOUD	Weather	12	5	[0, 0, 0]	n/a	catFR1	3	R1444D
586.366	0.0	587966	ENCODING_END	n/a	n/a	n/a	n/a	-999	5	[0, 0, 0]	n/a	catFR1	3	R1444D
586.366	46.448	587966	DISTRACT_START	n/a	n/a	n/a	n/a	-999	5	[0, 0, 0]	n/a	catFR1	3	R1444D
632.814	0.0	634410	STOP	n/a	n/a	n/a	n/a	-999	5	[-999, -999, -999]	n/a	catFR1	3	R1444D
632.814	2.217	634414	DISTRACT_END	n/a	n/a	n/a	n/a	-999	5	[0, 0, 0]	n/a	catFR1	3	R1444D
635.031	0.4	636632	REC_START	n/a	n/a	n/a	n/a	-999	5	[0, 0, 0]	n/a	catFR1	3	R1444D
635.431	3.828	637027	REC_WORD	0.4	n/a	THUNDERSTORM	Weather	11	5	[0, 0, 0]	n/a	catFR1	3	R1444D
639.259	1.0	640855	REC_WORD	4.228	n/a	THUNDERSTORM	Weather	11	5	[0, 0, 0]	n/a	catFR1	3	R1444D
640.259	1.0	641855	REC_WORD_VV	5.228	n/a	<>	n/a	-999	5	[0, 0, 0]	n/a	catFR1	3	R1444D
641.259	0.687	642855	REC_WORD_VV	6.228	n/a	<>	n/a	-999	5	[0, 0, 0]	n/a	catFR1	3	R1444D
641.946	0.762	643542	REC_WORD	6.915	n/a	COUCH	Furniture	-999	5	[0, 0, 0]	n/a	catFR1	3	R1444D
642.708	1.845	644304	REC_WORD	7.677	n/a	RADAR	n/a	-999	5	[0, 0, 0]	n/a	catFR1	3	R1444D
644.553	3.013	646149	REC_WORD_VV	9.522	n/a	<>	n/a	-999	5	[0, 0, 0]	n/a	catFR1	3	R1444D
647.566	1.741	649162	REC_WORD	12.535	n/a	CRICKET	Insects	-999	5	[0, 0, 0]	n/a	catFR1	3	R1444D
649.307	4.675	650903	REC_WORD_VV	14.276	n/a	<>	n/a	-999	5	[0, 0, 0]	n/a	catFR1	3	R1444D
653.982	2.613	655577	REC_WORD_VV	18.951	n/a	<>	n/a	-999	5	[0, 0, 0]	n/a	catFR1	3	R1444D
656.595	1.752	658190	REC_WORD	21.564	n/a	MOBILE	n/a	-999	5	[0, 0, 0]	n/a	catFR1	3	R1444D
658.347	6.932	659942	REC_WORD_VV	23.316	n/a	<>	n/a	-999	5	[0, 0, 0]	n/a	catFR1	3	R1444D
665.279	3.469	666874	REC_END	n/a	n/a	n/a	n/a	-999	5	[0, 0, 0]	n/a	catFR1	3	R1444D
668.748	10.35	670352	COUNTDOWN_START	n/a	n/a	n/a	n/a	-999	6	[0, 0, 0]	n/a	catFR1	3	R1444D
679.098	0.0	680699	COUNTDOWN_END	n/a	n/a	n/a	n/a	-999	6	[0, 0, 0]	n/a	catFR1	3	R1444D
679.098	1.95	680699	ENCODING_START	n/a	n/a	n/a	n/a	-999	6	[0, 0, 0]	n/a	catFR1	3	R1444D
681.048	1.616	682646	WORD	n/a	wordpools/wordpool_categorized_EN.txt	DAFFODIL	Flowers	1	6	[0, 0, 0]	n/a	catFR1	3	R1444D
682.664	0.767	684265	WORD_OFF	n/a	n/a	DAFFODIL	Flowers	1	6	[0, 0, 0]	n/a	catFR1	3	R1444D
683.431	1.617	685031	WORD	n/a	wordpools/wordpool_categorized_EN.txt	TULIP	Flowers	2	6	[0, 0, 0]	n/a	catFR1	3	R1444D
685.048	0.766	686639	WORD_OFF	n/a	n/a	TULIP	Flowers	2	6	[0, 0, 0]	n/a	catFR1	3	R1444D
685.814	1.6	687405	WORD	n/a	wordpools/wordpool_categorized_EN.txt	SHEEP	FarmAnimals	3	6	[0, 0, 0]	n/a	catFR1	3	R1444D
687.414	0.8	689012	WORD_OFF	n/a	n/a	SHEEP	FarmAnimals	3	6	[0, 0, 0]	n/a	catFR1	3	R1444D
688.214	1.617	689816	WORD	n/a	wordpools/wordpool_categorized_EN.txt	CHICKEN	FarmAnimals	4	6	[0, 0, 0]	n/a	catFR1	3	R1444D
689.831	0.9	691423	WORD_OFF	n/a	n/a	CHICKEN	FarmAnimals	4	6	[0, 0, 0]	n/a	catFR1	3	R1444D
690.731	1.616	692327	WORD	n/a	wordpools/wordpool_categorized_EN.txt	PEACH	Fruit	5	6	[0, 0, 0]	n/a	catFR1	3	R1444D
692.347	0.984	693947	WORD_OFF	n/a	n/a	PEACH	Fruit	5	6	[0, 0, 0]	n/a	catFR1	3	R1444D
693.331	1.6	694926	WORD	n/a	wordpools/wordpool_categorized_EN.txt	CHERRY	Fruit	6	6	[0, 0, 0]	n/a	catFR1	3	R1444D
694.931	0.883	696521	WORD_OFF	n/a	n/a	CHERRY	Fruit	6	6	[0, 0, 0]	n/a	catFR1	3	R1444D
695.814	1.617	697413	WORD	n/a	wordpools/wordpool_categorized_EN.txt	ORCHID	Flowers	7	6	[0, 0, 0]	n/a	catFR1	3	R1444D
697.431	0.817	699032	WORD_OFF	n/a	n/a	ORCHID	Flowers	7	6	[0, 0, 0]	n/a	catFR1	3	R1444D
698.248	1.616	699849	WORD	n/a	wordpools/wordpool_categorized_EN.txt	MARIGOLD	Flowers	8	6	[0, 0, 0]	n/a	catFR1	3	R1444D
699.864	0.933	701456	WORD_OFF	n/a	n/a	MARIGOLD	Flowers	8	6	[0, 0, 0]	n/a	catFR1	3	R1444D
700.797	1.601	702398	WORD	n/a	wordpools/wordpool_categorized_EN.txt	BULL	FarmAnimals	9	6	[0, 0, 0]	n/a	catFR1	3	R1444D
702.398	0.982	703992	WORD_OFF	n/a	n/a	BULL	FarmAnimals	9	6	[0, 0, 0]	n/a	catFR1	3	R1444D
703.38	1.601	704972	WORD	n/a	wordpools/wordpool_categorized_EN.txt	COW	FarmAnimals	10	6	[0, 0, 0]	n/a	catFR1	3	R1444D
704.981	0.766	706579	WORD_OFF	n/a	n/a	COW	FarmAnimals	10	6	[0, 0, 0]	n/a	catFR1	3	R1444D
705.747	1.617	707345	WORD	n/a	wordpools/wordpool_categorized_EN.txt	PEAR	Fruit	11	6	[0, 0, 0]	n/a	catFR1	3	R1444D
707.364	0.917	708965	WORD_OFF	n/a	n/a	PEAR	Fruit	11	6	[0, 0, 0]	n/a	catFR1	3	R1444D
708.281	1.617	709882	WORD	n/a	wordpools/wordpool_categorized_EN.txt	PLUM	Fruit	12	6	[0, 0, 0]	n/a	catFR1	3	R1444D
709.898	0.001	711489	WORD_OFF	n/a	n/a	PLUM	Fruit	12	6	[0, 0, 0]	n/a	catFR1	3	R1444D
709.899	0.002	711491	PROB	9.599	n/a	n/a	n/a	-999	6	[3, 1, 4]	8.0	catFR1	3	R1444D
709.901	0.0	711493	START	n/a	n/a	n/a	n/a	-999	6	[-999, -999, -999]	n/a	catFR1	3	R1444D
709.901	0.0	711502	ENCODING_END	n/a	n/a	n/a	n/a	-999	6	[0, 0, 0]	n/a	catFR1	3	R1444D
709.901	9.613	711502	DISTRACT_START	n/a	n/a	n/a	n/a	-999	6	[0, 0, 0]	n/a	catFR1	3	R1444D
719.514	4.084	721106	PROB	4.067	n/a	n/a	n/a	-999	6	[6, 1, 3]	10.0	catFR1	3	R1444D
723.598	15.95	725190	PROB	15.933	n/a	n/a	n/a	-999	6	[6, 4, 4]	14.0	catFR1	3	R1444D
739.548	0.0	741136	DISTRACT_END	n/a	n/a	n/a	n/a	-999	6	[0, 0, 0]	n/a	catFR1	3	R1444D
739.548	2.033	741139	STOP	n/a	n/a	n/a	n/a	-999	6	[-999, -999, -999]	n/a	catFR1	3	R1444D
741.581	0.419	743178	REC_START	n/a	n/a	n/a	n/a	-999	6	[0, 0, 0]	n/a	catFR1	3	R1444D
742.0	5.934	743591	REC_WORD	0.419	n/a	ORCHID	Flowers	7	6	[0, 0, 0]	n/a	catFR1	3	R1444D
747.934	2.779	749524	REC_WORD	6.353	n/a	ORCHID	Flowers	7	6	[0, 0, 0]	n/a	catFR1	3	R1444D
750.713	11.531	752303	REC_WORD_VV	9.132	n/a	<>	n/a	-999	6	[0, 0, 0]	n/a	catFR1	3	R1444D
762.244	1.861	763834	REC_WORD	20.663	n/a	ORCHID	Flowers	7	6	[0, 0, 0]	n/a	catFR1	3	R1444D
764.105	1.984	765695	REC_WORD	22.524	n/a	ORCHID	Flowers	7	6	[0, 0, 0]	n/a	catFR1	3	R1444D
766.089	1.541	767678	REC_WORD	24.508	n/a	THUNDERSTORM	Weather	-999	6	[0, 0, 0]	n/a	catFR1	3	R1444D
767.63	4.191	769219	REC_WORD_VV	26.049	n/a	<>	n/a	-999	6	[0, 0, 0]	n/a	catFR1	3	R1444D
771.821	22.977	773407	REC_END	n/a	n/a	n/a	n/a	-999	6	[0, 0, 0]	n/a	catFR1	3	R1444D
794.798	10.349	796386	COUNTDOWN_START	n/a	n/a	n/a	n/a	-999	7	[0, 0, 0]	n/a	catFR1	3	R1444D
805.147	0.0	806733	COUNTDOWN_END	n/a	n/a	n/a	n/a	-999	7	[0, 0, 0]	n/a	catFR1	3	R1444D
805.147	2.034	806733	ENCODING_START	n/a	n/a	n/a	n/a	-999	7	[0, 0, 0]	n/a	catFR1	3	R1444D
807.181	1.616	808768	WORD	n/a	wordpools/wordpool_categorized_EN.txt	ORGAN	Instruments	1	7	[0, 0, 0]	n/a	catFR1	3	R1444D
808.797	0.983	810388	WORD_OFF	n/a	n/a	ORGAN	Instruments	1	7	[0, 0, 0]	n/a	catFR1	3	R1444D
809.78	1.601	811367	WORD	n/a	wordpools/wordpool_categorized_EN.txt	BANJO	Instruments	2	7	[0, 0, 0]	n/a	catFR1	3	R1444D
811.381	0.983	812974	WORD_OFF	n/a	n/a	BANJO	Instruments	2	7	[0, 0, 0]	n/a	catFR1	3	R1444D
812.364	1.6	813954	WORD	n/a	wordpools/wordpool_categorized_EN.txt	CREEK	Landscapes	3	7	[0, 0, 0]	n/a	catFR1	3	R1444D
813.964	0.933	815548	WORD_OFF	n/a	n/a	CREEK	Landscapes	3	7	[0, 0, 0]	n/a	catFR1	3	R1444D
814.897	1.601	816490	WORD	n/a	wordpools/wordpool_categorized_EN.txt	MOUNTAIN	Landscapes	4	7	[0, 0, 0]	n/a	catFR1	3	R1444D
816.498	0.916	818085	WORD_OFF	n/a	n/a	MOUNTAIN	Landscapes	4	7	[0, 0, 0]	n/a	catFR1	3	R1444D
817.414	1.617	819002	WORD	n/a	wordpools/wordpool_categorized_EN.txt	CYPRESS	Trees	5	7	[0, 0, 0]	n/a	catFR1	3	R1444D
819.031	0.816	820621	WORD_OFF	n/a	n/a	CYPRESS	Trees	5	7	[0, 0, 0]	n/a	catFR1	3	R1444D
819.847	1.617	821438	WORD	n/a	wordpools/wordpool_categorized_EN.txt	MAPLE	Trees	6	7	[0, 0, 0]	n/a	catFR1	3	R1444D
821.464	0.784	823057	WORD_OFF	n/a	n/a	MAPLE	Trees	6	7	[0, 0, 0]	n/a	catFR1	3	R1444D
822.248	1.616	823836	WORD	n/a	wordpools/wordpool_categorized_EN.txt	VALLEY	Landscapes	7	7	[0, 0, 0]	n/a	catFR1	3	R1444D
823.864	0.933	825456	WORD_OFF	n/a	n/a	VALLEY	Landscapes	7	7	[0, 0, 0]	n/a	catFR1	3	R1444D
824.797	1.601	826385	WORD	n/a	wordpools/wordpool_categorized_EN.txt	WOODS	Landscapes	8	7	[0, 0, 0]	n/a	catFR1	3	R1444D
826.398	0.782	827992	WORD_OFF	n/a	n/a	WOODS	Landscapes	8	7	[0, 0, 0]	n/a	catFR1	3	R1444D
827.18	1.6	828771	WORD	n/a	wordpools/wordpool_categorized_EN.txt	HICKORY	Trees	9	7	[0, 0, 0]	n/a	catFR1	3	R1444D
828.78	0.951	830366	WORD_OFF	n/a	n/a	HICKORY	Trees	9	7	[0, 0, 0]	n/a	catFR1	3	R1444D
829.731	1.614	831320	WORD	n/a	wordpools/wordpool_categorized_EN.txt	WILLOW	Trees	10	7	[0, 0, 0]	n/a	catFR1	3	R1444D
831.345	0.886	832940	WORD_OFF	n/a	n/a	WILLOW	Trees	10	7	[0, 0, 0]	n/a	catFR1	3	R1444D
832.231	1.6	833819	WORD	n/a	wordpools/wordpool_categorized_EN.txt	PIANO	Instruments	11	7	[0, 0, 0]	n/a	catFR1	3	R1444D
833.831	0.933	835414	WORD_OFF	n/a	n/a	PIANO	Instruments	11	7	[0, 0, 0]	n/a	catFR1	3	R1444D
834.764	1.617	836355	WORD	n/a	wordpools/wordpool_categorized_EN.txt	GUITAR	Instruments	12	7	[0, 0, 0]	n/a	catFR1	3	R1444D
836.381	0.004	837967	PROB	9.25	n/a	n/a	n/a	-999	7	[8, 8, 5]	21.0	catFR1	3	R1444D
836.385	0.0	837971	START	n/a	n/a	n/a	n/a	-999	7	[-999, -999, -999]	n/a	catFR1	3	R1444D
836.381	0.004	837975	WORD_OFF	n/a	n/a	GUITAR	Instruments	12	7	[0, 0, 0]	n/a	catFR1	3	R1444D
836.385	0.0	837975	ENCODING_END	n/a	n/a	n/a	n/a	-999	7	[0, 0, 0]	n/a	catFR1	3	R1444D
836.385	9.263	837975	DISTRACT_START	n/a	n/a	n/a	n/a	-999	7	[0, 0, 0]	n/a	catFR1	3	R1444D
845.648	8.916	847233	PROB	8.899	n/a	n/a	n/a	-999	7	[4, 1, 8]	13.0	catFR1	3	R1444D
854.564	3.25	856149	PROB	3.233	n/a	n/a	n/a	-999	7	[6, 4, 1]	11.0	catFR1	3	R1444D
857.814	0.0	859397	DISTRACT_END	n/a	n/a	n/a	n/a	-999	7	[0, 0, 0]	n/a	catFR1	3	R1444D
857.814	2.217	859398	STOP	n/a	n/a	n/a	n/a	-999	7	[-999, -999, -999]	n/a	catFR1	3	R1444D
860.031	0.876	861615	REC_START	n/a	n/a	n/a	n/a	-999	7	[0, 0, 0]	n/a	catFR1	3	R1444D
860.907	1.0	862491	REC_WORD_VV	0.876	n/a	<>	n/a	-999	7	[0, 0, 0]	n/a	catFR1	3	R1444D
861.907	1.604	863491	REC_WORD_VV	1.876	n/a	<>	n/a	-999	7	[0, 0, 0]	n/a	catFR1	3	R1444D
863.511	1.0	865095	REC_WORD	3.48	n/a	CYPRESS	Trees	5	7	[0, 0, 0]	n/a	catFR1	3	R1444D
864.511	1.521	866095	REC_WORD_VV	4.48	n/a	<>	n/a	-999	7	[0, 0, 0]	n/a	catFR1	3	R1444D
866.032	3.172	867616	REC_WORD_VV	6.001	n/a	<>	n/a	-999	7	[0, 0, 0]	n/a	catFR1	3	R1444D
869.204	1.366	870788	REC_WORD_VV	9.173	n/a	<>	n/a	-999	7	[0, 0, 0]	n/a	catFR1	3	R1444D
870.57	1.633	872154	REC_WORD	10.539	n/a	PEACH	Fruit	-999	7	[0, 0, 0]	n/a	catFR1	3	R1444D
872.203	6.078	873787	REC_WORD	12.172	n/a	PEACH	Fruit	-999	7	[0, 0, 0]	n/a	catFR1	3	R1444D
878.281	6.108	879864	REC_WORD	18.25	n/a	PEACH	Fruit	-999	7	[0, 0, 0]	n/a	catFR1	3	R1444D
884.389	3.519	885972	REC_WORD	24.358	n/a	ORCHID	Flowers	-999	7	[0, 0, 0]	n/a	catFR1	3	R1444D
887.908	2.372	889491	REC_WORD	27.877	n/a	ORCHID	Flowers	-999	7	[0, 0, 0]	n/a	catFR1	3	R1444D
890.28	25.134	891870	REC_END	n/a	n/a	n/a	n/a	-999	7	[0, 0, 0]	n/a	catFR1	3	R1444D
915.414	10.35	916996	COUNTDOWN_START	n/a	n/a	n/a	n/a	-999	8	[0, 0, 0]	n/a	catFR1	3	R1444D
925.764	0.0	927343	COUNTDOWN_END	n/a	n/a	n/a	n/a	-999	8	[0, 0, 0]	n/a	catFR1	3	R1444D
925.764	2.2	927356	ENCODING_START	n/a	n/a	n/a	n/a	-999	8	[0, 0, 0]	n/a	catFR1	3	R1444D
927.964	1.6	929553	WORD	n/a	wordpools/wordpool_categorized_EN.txt	HALLWAY	Building	1	8	[0, 0, 0]	n/a	catFR1	3	R1444D
929.564	0.833	931148	WORD_OFF	n/a	n/a	HALLWAY	Building	1	8	[0, 0, 0]	n/a	catFR1	3	R1444D
930.397	1.617	931976	WORD	n/a	wordpools/wordpool_categorized_EN.txt	FLOOR	Building	2	8	[0, 0, 0]	n/a	catFR1	3	R1444D
932.014	0.817	933596	WORD_OFF	n/a	n/a	FLOOR	Building	2	8	[0, 0, 0]	n/a	catFR1	3	R1444D
932.831	1.6	934413	WORD	n/a	wordpools/wordpool_categorized_EN.txt	CELLO	Instruments	3	8	[0, 0, 0]	n/a	catFR1	3	R1444D
934.431	0.899	936020	WORD_OFF	n/a	n/a	CELLO	Instruments	3	8	[0, 0, 0]	n/a	catFR1	3	R1444D
935.33	1.6	936911	WORD	n/a	wordpools/wordpool_categorized_EN.txt	VIOLIN	Instruments	4	8	[0, 0, 0]	n/a	catFR1	3	R1444D
936.93	0.951	938519	WORD_OFF	n/a	n/a	VIOLIN	Instruments	4	8	[0, 0, 0]	n/a	catFR1	3	R1444D
937.881	1.6	939460	WORD	n/a	wordpools/wordpool_categorized_EN.txt	FOREST	Landscapes	5	8	[0, 0, 0]	n/a	catFR1	3	R1444D
939.481	0.899	941068	WORD_OFF	n/a	n/a	FOREST	Landscapes	5	8	[0, 0, 0]	n/a	catFR1	3	R1444D
940.38	1.601	941959	WORD	n/a	wordpools/wordpool_categorized_EN.txt	RIVER	Landscapes	6	8	[0, 0, 0]	n/a	catFR1	3	R1444D
941.981	0.915	943567	WORD_OFF	n/a	n/a	RIVER	Landscapes	6	8	[0, 0, 0]	n/a	catFR1	3	R1444D
942.896	1.602	944483	WORD	n/a	wordpools/wordpool_categorized_EN.txt	TROMBONE	Instruments	7	8	[0, 0, 0]	n/a	catFR1	3	R1444D
944.498	0.983	946078	WORD_OFF	n/a	n/a	TROMBONE	Instruments	7	8	[0, 0, 0]	n/a	catFR1	3	R1444D
945.481	1.617	947057	WORD	n/a	wordpools/wordpool_categorized_EN.txt	TRUMPET	Instruments	8	8	[0, 0, 0]	n/a	catFR1	3	R1444D
947.098	0.782	948677	WORD_OFF	n/a	n/a	TRUMPET	Instruments	8	8	[0, 0, 0]	n/a	catFR1	3	R1444D
947.88	1.601	949456	WORD	n/a	wordpools/wordpool_categorized_EN.txt	ROOM	Building	9	8	[0, 0, 0]	n/a	catFR1	3	R1444D
949.481	0.833	951063	WORD_OFF	n/a	n/a	ROOM	Building	9	8	[0, 0, 0]	n/a	catFR1	3	R1444D
950.314	1.616	951892	WORD	n/a	wordpools/wordpool_categorized_EN.txt	ROOF	Building	10	8	[0, 0, 0]	n/a	catFR1	3	R1444D
951.93	0.816	953512	WORD_OFF	n/a	n/a	ROOF	Building	10	8	[0, 0, 0]	n/a	catFR1	3	R1444D
952.746	1.601	954328	WORD	n/a	wordpools/wordpool_categorized_EN.txt	BEACH	Landscapes	11	8	[0, 0, 0]	n/a	catFR1	3	R1444D
954.347	0.767	955923	WORD_OFF	n/a	n/a	BEACH	Landscapes	11	8	[0, 0, 0]	n/a	catFR1	3	R1444D
955.114	1.616	956701	WORD	n/a	wordpools/wordpool_categorized_EN.txt	HILLS	Landscapes	12	8	[0, 0, 0]	n/a	catFR1	3	R1444D
956.73	0.001	958308	WORD_OFF	n/a	n/a	HILLS	Landscapes	12	8	[0, 0, 0]	n/a	catFR1	3	R1444D
956.731	0.004	958310	PROB	11.15	n/a	n/a	n/a	-999	8	[4, 7, 5]	16.0	catFR1	3	R1444D
956.735	0.0	958314	START	n/a	n/a	n/a	n/a	-999	8	[-999, -999, -999]	n/a	catFR1	3	R1444D
956.735	0.0	958321	ENCODING_END	n/a	n/a	n/a	n/a	-999	8	[0, 0, 0]	n/a	catFR1	3	R1444D
956.735	11.163	958321	DISTRACT_START	n/a	n/a	n/a	n/a	-999	8	[0, 0, 0]	n/a	catFR1	3	R1444D
967.898	2.932	969477	PROB	2.916	n/a	n/a	n/a	-999	8	[2, 1, 2]	5.0	catFR1	3	R1444D
970.83	8.133	972408	PROB	8.117	n/a	n/a	n/a	-999	8	[5, 8, 3]	16.0	catFR1	3	R1444D
978.963	0.0	980541	STOP	n/a	n/a	n/a	n/a	-999	8	[-999, -999, -999]	n/a	catFR1	3	R1444D
978.963	2.067	980547	DISTRACT_END	n/a	n/a	n/a	n/a	-999	8	[0, 0, 0]	n/a	catFR1	3	R1444D
981.03	1.891	982614	REC_START	n/a	n/a	n/a	n/a	-999	8	[0, 0, 0]	n/a	catFR1	3	R1444D
982.921	1.0	984499	REC_WORD_VV	1.891	n/a	<>	n/a	-999	8	[0, 0, 0]	n/a	catFR1	3	R1444D
983.921	1.0	985499	REC_WORD_VV	2.891	n/a	<>	n/a	-999	8	[0, 0, 0]	n/a	catFR1	3	R1444D
984.921	1.469	986499	REC_WORD_VV	3.891	n/a	<>	n/a	-999	8	[0, 0, 0]	n/a	catFR1	3	R1444D
986.39	2.382	987968	REC_WORD	5.36	n/a	HILLS	Landscapes	12	8	[0, 0, 0]	n/a	catFR1	3	R1444D
988.772	3.151	990350	REC_WORD	7.742	n/a	TRUMPET	Instruments	8	8	[0, 0, 0]	n/a	catFR1	3	R1444D
991.923	9.075	993500	REC_WORD_VV	10.893	n/a	<>	n/a	-999	8	[0, 0, 0]	n/a	catFR1	3	R1444D
1000.998	1.0	1002575	REC_WORD_VV	19.968	n/a	<>	n/a	-999	8	[0, 0, 0]	n/a	catFR1	3	R1444D
1001.998	0.195	1003575	REC_WORD_VV	20.968	n/a	<>	n/a	-999	8	[0, 0, 0]	n/a	catFR1	3	R1444D
1002.193	2.235	1003770	REC_WORD	21.163	n/a	CYPRESS	Trees	-999	8	[0, 0, 0]	n/a	catFR1	3	R1444D
1004.428	1.453	1006005	REC_WORD	23.398	n/a	CYPRESS	Trees	-999	8	[0, 0, 0]	n/a	catFR1	3	R1444D
1005.881	3.077	1007458	REC_WORD	24.851	n/a	TOMBSTONE	n/a	-999	8	[0, 0, 0]	n/a	catFR1	3	R1444D
1008.958	2.303	1010535	REC_WORD_VV	27.928	n/a	<>	n/a	-999	8	[0, 0, 0]	n/a	catFR1	3	R1444D
1011.261	5.12	1012843	REC_END	n/a	n/a	n/a	n/a	-999	8	[0, 0, 0]	n/a	catFR1	3	R1444D
1016.381	10.349	1017966	COUNTDOWN_START	n/a	n/a	n/a	n/a	-999	9	[0, 0, 0]	n/a	catFR1	3	R1444D
1026.73	0.0	1028313	COUNTDOWN_END	n/a	n/a	n/a	n/a	-999	9	[0, 0, 0]	n/a	catFR1	3	R1444D
1026.73	2.334	1028313	ENCODING_START	n/a	n/a	n/a	n/a	-999	9	[0, 0, 0]	n/a	catFR1	3	R1444D
1029.064	1.6	1030636	WORD	n/a	wordpools/wordpool_categorized_EN.txt	SUEDE	Fabric	1	9	[0, 0, 0]	n/a	catFR1	3	R1444D
1030.664	0.95	1032244	WORD_OFF	n/a	n/a	SUEDE	Fabric	1	9	[0, 0, 0]	n/a	catFR1	3	R1444D
1031.614	1.617	1033198	WORD	n/a	wordpools/wordpool_categorized_EN.txt	LINEN	Fabric	2	9	[0, 0, 0]	n/a	catFR1	3	R1444D
1033.231	0.767	1034805	WORD_OFF	n/a	n/a	LINEN	Fabric	2	9	[0, 0, 0]	n/a	catFR1	3	R1444D
1033.998	1.6	1035571	WORD	n/a	wordpools/wordpool_categorized_EN.txt	STAIRS	Building	3	9	[0, 0, 0]	n/a	catFR1	3	R1444D
1035.598	0.982	1037179	WORD_OFF	n/a	n/a	STAIRS	Building	3	9	[0, 0, 0]	n/a	catFR1	3	R1444D
1036.58	1.601	1038158	WORD	n/a	wordpools/wordpool_categorized_EN.txt	ATTIC	Building	4	9	[0, 0, 0]	n/a	catFR1	3	R1444D
1038.181	0.867	1039765	WORD_OFF	n/a	n/a	ATTIC	Building	4	9	[0, 0, 0]	n/a	catFR1	3	R1444D
1039.048	1.615	1040619	WORD	n/a	wordpools/wordpool_categorized_EN.txt	FINCH	Birds	5	9	[0, 0, 0]	n/a	catFR1	3	R1444D
1040.663	0.9	1042239	WORD_OFF	n/a	n/a	FINCH	Birds	5	9	[0, 0, 0]	n/a	catFR1	3	R1444D
1041.563	1.618	1043143	WORD	n/a	wordpools/wordpool_categorized_EN.txt	CROW	Birds	6	9	[0, 0, 0]	n/a	catFR1	3	R1444D
1043.181	0.95	1044763	WORD_OFF	n/a	n/a	CROW	Birds	6	9	[0, 0, 0]	n/a	catFR1	3	R1444D
1044.131	1.6	1045705	WORD	n/a	wordpools/wordpool_categorized_EN.txt	CEILING	Building	7	9	[0, 0, 0]	n/a	catFR1	3	R1444D
1045.731	0.817	1047312	WORD_OFF	n/a	n/a	CEILING	Building	7	9	[0, 0, 0]	n/a	catFR1	3	R1444D
1046.548	1.616	1048128	WORD	n/a	wordpools/wordpool_categorized_EN.txt	FOUNDATION	Building	8	9	[0, 0, 0]	n/a	catFR1	3	R1444D
1048.164	0.934	1049736	WORD_OFF	n/a	n/a	FOUNDATION	Building	8	9	[0, 0, 0]	n/a	catFR1	3	R1444D
1049.098	1.616	1050677	WORD	n/a	wordpools/wordpool_categorized_EN.txt	PIGEON	Birds	9	9	[0, 0, 0]	n/a	catFR1	3	R1444D
1050.714	0.817	1052297	WORD_OFF	n/a	n/a	PIGEON	Birds	9	9	[0, 0, 0]	n/a	catFR1	3	R1444D
1051.531	1.6	1053113	WORD	n/a	wordpools/wordpool_categorized_EN.txt	SPARROW	Birds	10	9	[0, 0, 0]	n/a	catFR1	3	R1444D
1053.131	0.999	1054708	WORD_OFF	n/a	n/a	SPARROW	Birds	10	9	[0, 0, 0]	n/a	catFR1	3	R1444D
1054.13	1.6	1055700	WORD	n/a	wordpools/wordpool_categorized_EN.txt	COTTON	Fabric	11	9	[0, 0, 0]	n/a	catFR1	3	R1444D
1055.73	0.817	1057307	WORD_OFF	n/a	n/a	COTTON	Fabric	11	9	[0, 0, 0]	n/a	catFR1	3	R1444D
1056.547	1.6	1058124	WORD	n/a	wordpools/wordpool_categorized_EN.txt	NYLON	Fabric	12	9	[0, 0, 0]	n/a	catFR1	3	R1444D
1058.147	0.0	1059718	WORD_OFF	n/a	n/a	NYLON	Fabric	12	9	[0, 0, 0]	n/a	catFR1	3	R1444D
1058.147	0.001	1059721	PROB	16.267	n/a	n/a	n/a	-999	9	[4, 3, 2]	9.0	catFR1	3	R1444D
1058.148	0.0	1059722	START	n/a	n/a	n/a	n/a	-999	9	[-999, -999, -999]	n/a	catFR1	3	R1444D
1058.148	0.0	1059731	ENCODING_END	n/a	n/a	n/a	n/a	-999	9	[0, 0, 0]	n/a	catFR1	3	R1444D
1058.148	16.283	1059731	DISTRACT_START	n/a	n/a	n/a	n/a	-999	9	[0, 0, 0]	n/a	catFR1	3	R1444D
1074.431	9.933	1076004	PROB	9.916	n/a	n/a	n/a	-999	9	[1, 7, 1]	9.0	catFR1	3	R1444D
1084.364	0.0	1085936	STOP	n/a	n/a	n/a	n/a	-999	9	[-999, -999, -999]	n/a	catFR1	3	R1444D
1084.364	2.067	1085937	DISTRACT_END	n/a	n/a	n/a	n/a	-999	9	[0, 0, 0]	n/a	catFR1	3	R1444D
1086.431	0.0	1088003	REC_WORD_VV	0.0	n/a	<>	n/a	-999	9	[0, 0, 0]	n/a	catFR1	3	R1444D
1086.431	1.942	1088005	REC_START	n/a	n/a	n/a	n/a	-999	9	[0, 0, 0]	n/a	catFR1	3	R1444D
1088.373	1.254	1089945	REC_WORD	1.942	n/a	SPARROW	Birds	10	9	[0, 0, 0]	n/a	catFR1	3	R1444D
1089.627	2.006	1091199	REC_WORD	3.196	n/a	COTTON	Fabric	11	9	[0, 0, 0]	n/a	catFR1	3	R1444D
1091.633	5.051	1093205	REC_WORD_VV	5.202	n/a	<>	n/a	-999	9	[0, 0, 0]	n/a	catFR1	3	R1444D
1096.684	0.577	1098256	REC_WORD	10.253	n/a	SPARROW	Birds	10	9	[0, 0, 0]	n/a	catFR1	3	R1444D
1097.261	0.382	1098833	REC_WORD	10.83	n/a	COTTON	Fabric	11	9	[0, 0, 0]	n/a	catFR1	3	R1444D
1097.643	1.266	1099215	REC_WORD	11.212	n/a	ORCHID	Flowers	-999	9	[0, 0, 0]	n/a	catFR1	3	R1444D
1098.909	6.307	1100481	REC_WORD_VV	12.478	n/a	<>	n/a	-999	9	[0, 0, 0]	n/a	catFR1	3	R1444D
1105.216	9.771	1106787	REC_WORD_VV	18.785	n/a	<>	n/a	-999	9	[0, 0, 0]	n/a	catFR1	3	R1444D
1114.987	1.682	1116558	REC_WORD	28.556	n/a	ORCHID	Flowers	-999	9	[0, 0, 0]	n/a	catFR1	3	R1444D
1116.669	7.611	1118246	REC_END	n/a	n/a	n/a	n/a	-999	9	[0, 0, 0]	n/a	catFR1	3	R1444D
1124.28	10.351	1125856	COUNTDOWN_START	n/a	n/a	n/a	n/a	-999	10	[0, 0, 0]	n/a	catFR1	3	R1444D
1134.631	0.0	1136203	COUNTDOWN_END	n/a	n/a	n/a	n/a	-999	10	[0, 0, 0]	n/a	catFR1	3	R1444D
1134.631	2.317	1136203	ENCODING_START	n/a	n/a	n/a	n/a	-999	10	[0, 0, 0]	n/a	catFR1	3	R1444D
1136.948	1.6	1138526	WORD	n/a	wordpools/wordpool_categorized_EN.txt	MILK	Beverages	1	10	[0, 0, 0]	n/a	catFR1	3	R1444D
1138.548	0.833	1140121	WORD_OFF	n/a	n/a	MILK	Beverages	1	10	[0, 0, 0]	n/a	catFR1	3	R1444D
1139.381	1.616	1140949	WORD	n/a	wordpools/wordpool_categorized_EN.txt	RUM	Beverages	2	10	[0, 0, 0]	n/a	catFR1	3	R1444D
1140.997	0.834	1142569	WORD_OFF	n/a	n/a	RUM	Beverages	2	10	[0, 0, 0]	n/a	catFR1	3	R1444D
1141.831	1.6	1143398	WORD	n/a	wordpools/wordpool_categorized_EN.txt	STRAINER	KitchenTools	3	10	[0, 0, 0]	n/a	catFR1	3	R1444D
1143.431	0.817	1145005	WORD_OFF	n/a	n/a	STRAINER	KitchenTools	3	10	[0, 0, 0]	n/a	catFR1	3	R1444D
1144.248	1.6	1145821	WORD	n/a	wordpools/wordpool_categorized_EN.txt	GRATER	KitchenTools	4	10	[0, 0, 0]	n/a	catFR1	3	R1444D
1145.848	0.917	1147416	WORD_OFF	n/a	n/a	GRATER	KitchenTools	4	10	[0, 0, 0]	n/a	catFR1	3	R1444D
1146.765	1.616	1148345	WORD	n/a	wordpools/wordpool_categorized_EN.txt	HAWK	Birds	5	10	[0, 0, 0]	n/a	catFR1	3	R1444D
1148.381	0.866	1149953	WORD_OFF	n/a	n/a	HAWK	Birds	5	10	[0, 0, 0]	n/a	catFR1	3	R1444D
1149.247	1.6	1150819	WORD	n/a	wordpools/wordpool_categorized_EN.txt	DOVE	Birds	6	10	[0, 0, 0]	n/a	catFR1	3	R1444D
1150.847	0.934	1152414	WORD_OFF	n/a	n/a	DOVE	Birds	6	10	[0, 0, 0]	n/a	catFR1	3	R1444D
1151.781	1.6	1153356	WORD	n/a	wordpools/wordpool_categorized_EN.txt	WATER	Beverages	7	10	[0, 0, 0]	n/a	catFR1	3	R1444D
1153.381	0.982	1154950	WORD_OFF	n/a	n/a	WATER	Beverages	7	10	[0, 0, 0]	n/a	catFR1	3	R1444D
1154.363	1.601	1155930	WORD	n/a	wordpools/wordpool_categorized_EN.txt	WINE	Beverages	8	10	[0, 0, 0]	n/a	catFR1	3	R1444D
1155.964	0.966	1157537	WORD_OFF	n/a	n/a	WINE	Beverages	8	10	[0, 0, 0]	n/a	catFR1	3	R1444D
1156.93	1.601	1158504	WORD	n/a	wordpools/wordpool_categorized_EN.txt	LADLE	KitchenTools	9	10	[0, 0, 0]	n/a	catFR1	3	R1444D
1158.531	0.849	1160099	WORD_OFF	n/a	n/a	LADLE	KitchenTools	9	10	[0, 0, 0]	n/a	catFR1	3	R1444D
1159.38	1.6	1160952	WORD	n/a	wordpools/wordpool_categorized_EN.txt	SPOON	KitchenTools	10	10	[0, 0, 0]	n/a	catFR1	3	R1444D
1160.98	0.933	1162547	WORD_OFF	n/a	n/a	SPOON	KitchenTools	10	10	[0, 0, 0]	n/a	catFR1	3	R1444D
1161.913	1.601	1163489	WORD	n/a	wordpools/wordpool_categorized_EN.txt	BLUEBIRD	Birds	11	10	[0, 0, 0]	n/a	catFR1	3	R1444D
1163.514	0.984	1165084	WORD_OFF	n/a	n/a	BLUEBIRD	Birds	11	10	[0, 0, 0]	n/a	catFR1	3	R1444D
1164.498	1.616	1166063	WORD	n/a	wordpools/wordpool_categorized_EN.txt	CARDINAL	Birds	12	10	[0, 0, 0]	n/a	catFR1	3	R1444D
1166.114	0.0	1167682	PROB	7.067	n/a	n/a	n/a	-999	10	[4, 4, 3]	11.0	catFR1	3	R1444D
1166.113	0.002	1167683	WORD_OFF	n/a	n/a	CARDINAL	Birds	12	10	[0, 0, 0]	n/a	catFR1	3	R1444D
1166.115	0.0	1167683	ENCODING_END	n/a	n/a	n/a	n/a	-999	10	[0, 0, 0]	n/a	catFR1	3	R1444D
1166.115	0.0	1167683	DISTRACT_START	n/a	n/a	n/a	n/a	-999	10	[0, 0, 0]	n/a	catFR1	3	R1444D
1166.115	7.084	1167683	START	n/a	n/a	n/a	n/a	-999	10	[-999, -999, -999]	n/a	catFR1	3	R1444D
1173.199	8.666	1174767	PROB	8.649	n/a	n/a	n/a	-999	10	[4, 5, 4]	13.0	catFR1	3	R1444D
1181.865	7.566	1183432	PROB	7.549	n/a	n/a	n/a	-999	10	[8, 2, 3]	13.0	catFR1	3	R1444D
1189.431	0.0	1190998	STOP	n/a	n/a	n/a	n/a	-999	10	[-999, -999, -999]	n/a	catFR1	3	R1444D
1189.431	2.317	1191001	DISTRACT_END	n/a	n/a	n/a	n/a	-999	10	[0, 0, 0]	n/a	catFR1	3	R1444D
1191.748	3.251	1193320	REC_START	n/a	n/a	n/a	n/a	-999	10	[0, 0, 0]	n/a	catFR1	3	R1444D
1194.999	4.169	1196566	REC_WORD_VV	3.251	n/a	<>	n/a	-999	10	[0, 0, 0]	n/a	catFR1	3	R1444D
1199.168	0.863	1200734	REC_WORD_VV	7.42	n/a	<>	n/a	-999	10	[0, 0, 0]	n/a	catFR1	3	R1444D
1200.031	1.521	1201597	REC_WORD	8.283	n/a	CARDINAL	Birds	12	10	[0, 0, 0]	n/a	catFR1	3	R1444D
1201.552	1.095	1203118	REC_WORD	9.804	n/a	BIRD	n/a	-999	10	[0, 0, 0]	n/a	catFR1	3	R1444D
1202.647	4.268	1204213	REC_WORD_VV	10.899	n/a	<>	n/a	-999	10	[0, 0, 0]	n/a	catFR1	3	R1444D
1206.915	2.175	1208481	REC_WORD_VV	15.167	n/a	<>	n/a	-999	10	[0, 0, 0]	n/a	catFR1	3	R1444D
1209.09	10.895	1210656	REC_WORD	17.342	n/a	NOODLE	n/a	-999	10	[0, 0, 0]	n/a	catFR1	3	R1444D
1219.985	1.975	1221550	REC_WORD_VV	28.237	n/a	<>	n/a	-999	10	[0, 0, 0]	n/a	catFR1	3	R1444D
1221.96	5.221	1223524	REC_END	n/a	n/a	n/a	n/a	-999	10	[0, 0, 0]	n/a	catFR1	3	R1444D
1227.181	10.349	1228747	COUNTDOWN_START	n/a	n/a	n/a	n/a	-999	11	[0, 0, 0]	n/a	catFR1	3	R1444D
1237.53	0.0	1239094	COUNTDOWN_END	n/a	n/a	n/a	n/a	-999	11	[0, 0, 0]	n/a	catFR1	3	R1444D
1237.53	1.9	1239094	ENCODING_START	n/a	n/a	n/a	n/a	-999	11	[0, 0, 0]	n/a	catFR1	3	R1444D
1239.43	1.601	1241003	WORD	n/a	wordpools/wordpool_categorized_EN.txt	WINDOW	Building	1	11	[0, 0, 0]	n/a	catFR1	3	R1444D
1241.031	0.916	1242598	WORD_OFF	n/a	n/a	WINDOW	Building	1	11	[0, 0, 0]	n/a	catFR1	3	R1444D
1241.947	1.6	1243514	WORD	n/a	wordpools/wordpool_categorized_EN.txt	DOOR	Building	2	11	[0, 0, 0]	n/a	catFR1	3	R1444D
1243.547	1.0	1245109	WORD_OFF	n/a	n/a	DOOR	Building	2	11	[0, 0, 0]	n/a	catFR1	3	R1444D
1244.547	1.617	1246114	WORD	n/a	wordpools/wordpool_categorized_EN.txt	BOAT	Vehicles	3	11	[0, 0, 0]	n/a	catFR1	3	R1444D
1246.164	0.966	1247734	WORD_OFF	n/a	n/a	BOAT	Vehicles	3	11	[0, 0, 0]	n/a	catFR1	3	R1444D
1247.13	1.6	1248700	WORD	n/a	wordpools/wordpool_categorized_EN.txt	TRAIN	Vehicles	4	11	[0, 0, 0]	n/a	catFR1	3	R1444D
1248.73	0.767	1250295	WORD_OFF	n/a	n/a	TRAIN	Vehicles	4	11	[0, 0, 0]	n/a	catFR1	3	R1444D
1249.497	1.6	1251061	WORD	n/a	wordpools/wordpool_categorized_EN.txt	DRUM	Instruments	5	11	[0, 0, 0]	n/a	catFR1	3	R1444D
1251.097	0.801	1252668	WORD_OFF	n/a	n/a	DRUM	Instruments	5	11	[0, 0, 0]	n/a	catFR1	3	R1444D
1251.898	1.599	1253460	WORD	n/a	wordpools/wordpool_categorized_EN.txt	TUBA	Instruments	6	11	[0, 0, 0]	n/a	catFR1	3	R1444D
1253.497	0.884	1255067	WORD_OFF	n/a	n/a	TUBA	Instruments	6	11	[0, 0, 0]	n/a	catFR1	3	R1444D
1254.381	1.617	1255946	WORD	n/a	wordpools/wordpool_categorized_EN.txt	MOTORCYCLE	Vehicles	7	11	[0, 0, 0]	n/a	catFR1	3	R1444D
1255.998	0.782	1257566	WORD_OFF	n/a	n/a	MOTORCYCLE	Vehicles	7	11	[0, 0, 0]	n/a	catFR1	3	R1444D
1256.78	1.6	1258344	WORD	n/a	wordpools/wordpool_categorized_EN.txt	BIKE	Vehicles	8	11	[0, 0, 0]	n/a	catFR1	3	R1444D
1258.38	0.933	1259952	WORD_OFF	n/a	n/a	BIKE	Vehicles	8	11	[0, 0, 0]	n/a	catFR1	3	R1444D
1259.313	1.618	1260881	WORD	n/a	wordpools/wordpool_categorized_EN.txt	FLUTE	Instruments	9	11	[0, 0, 0]	n/a	catFR1	3	R1444D
1260.931	0.865	1262501	WORD_OFF	n/a	n/a	FLUTE	Instruments	9	11	[0, 0, 0]	n/a	catFR1	3	R1444D
1261.796	1.601	1263367	WORD	n/a	wordpools/wordpool_categorized_EN.txt	BASS	Instruments	10	11	[0, 0, 0]	n/a	catFR1	3	R1444D
1263.397	0.933	1264962	WORD_OFF	n/a	n/a	BASS	Instruments	10	11	[0, 0, 0]	n/a	catFR1	3	R1444D
1264.33	1.601	1265891	WORD	n/a	wordpools/wordpool_categorized_EN.txt	BATHROOM	Building	11	11	[0, 0, 0]	n/a	catFR1	3	R1444D
1265.931	0.982	1267498	WORD_OFF	n/a	n/a	BATHROOM	Building	11	11	[0, 0, 0]	n/a	catFR1	3	R1444D
1266.913	1.602	1268478	WORD	n/a	wordpools/wordpool_categorized_EN.txt	WALL	Building	12	11	[0, 0, 0]	n/a	catFR1	3	R1444D
1268.515	0.001	1270078	PROB	10.299	n/a	n/a	n/a	-999	11	[4, 1, 8]	13.0	catFR1	3	R1444D
1268.516	0.0	1270079	START	n/a	n/a	n/a	n/a	-999	11	[-999, -999, -999]	n/a	catFR1	3	R1444D
1268.514	0.002	1270085	WORD_OFF	n/a	n/a	WALL	Building	12	11	[0, 0, 0]	n/a	catFR1	3	R1444D
1268.516	0.0	1270085	ENCODING_END	n/a	n/a	n/a	n/a	-999	11	[0, 0, 0]	n/a	catFR1	3	R1444D
1268.516	10.315	1270085	DISTRACT_START	n/a	n/a	n/a	n/a	-999	11	[0, 0, 0]	n/a	catFR1	3	R1444D
1278.831	4.15	1280393	PROB	4.134	n/a	n/a	n/a	-999	11	[5, 5, 1]	11.0	catFR1	3	R1444D
1282.981	11.7	1284543	PROB	11.683	n/a	n/a	n/a	-999	11	[4, 4, 7]	15.0	catFR1	3	R1444D
1294.681	0.0	1296241	DISTRACT_END	n/a	n/a	n/a	n/a	-999	11	[0, 0, 0]	n/a	catFR1	3	R1444D
1294.681	2.199	1296242	STOP	n/a	n/a	n/a	n/a	-999	11	[-999, -999, -999]	n/a	catFR1	3	R1444D
1296.88	3.145	1298447	REC_START	n/a	n/a	n/a	n/a	-999	11	[0, 0, 0]	n/a	catFR1	3	R1444D
1300.025	1.0	1301586	REC_WORD_VV	3.145	n/a	<>	n/a	-999	11	[0, 0, 0]	n/a	catFR1	3	R1444D
1301.025	2.554	1302586	REC_WORD_VV	4.145	n/a	<>	n/a	-999	11	[0, 0, 0]	n/a	catFR1	3	R1444D
1303.579	1.062	1305140	REC_WORD_VV	6.699	n/a	<>	n/a	-999	11	[0, 0, 0]	n/a	catFR1	3	R1444D
1304.641	2.832	1306202	REC_WORD	7.761	n/a	BOAT	Vehicles	3	11	[0, 0, 0]	n/a	catFR1	3	R1444D
1307.473	1.523	1309034	REC_WORD	10.593	n/a	BOAT	Vehicles	3	11	[0, 0, 0]	n/a	catFR1	3	R1444D
1308.996	0.42	1310557	REC_WORD	12.116	n/a	CAR	Vehicles	-999	11	[0, 0, 0]	n/a	catFR1	3	R1444D
1309.416	2.026	1310977	REC_WORD	12.536	n/a	MOTORCYCLE	Vehicles	7	11	[0, 0, 0]	n/a	catFR1	3	R1444D
1311.442	3.582	1313002	REC_WORD_VV	14.562	n/a	<>	n/a	-999	11	[0, 0, 0]	n/a	catFR1	3	R1444D
1315.024	0.506	1316584	REC_WORD	18.144	n/a	PEACH	Fruit	-999	11	[0, 0, 0]	n/a	catFR1	3	R1444D
1315.53	0.42	1317090	REC_WORD	18.65	n/a	PLUM	Fruit	-999	11	[0, 0, 0]	n/a	catFR1	3	R1444D
1315.95	0.694	1317510	REC_WORD	19.07	n/a	PEAR	Fruit	-999	11	[0, 0, 0]	n/a	catFR1	3	R1444D
1316.644	4.597	1318204	REC_WORD	19.764	n/a	APPLE	n/a	-999	11	[0, 0, 0]	n/a	catFR1	3	R1444D
1321.241	5.878	1322801	REC_WORD_VV	24.361	n/a	<>	n/a	-999	11	[0, 0, 0]	n/a	catFR1	3	R1444D
1327.119	5.595	1328676	REC_END	n/a	n/a	n/a	n/a	-999	11	[0, 0, 0]	n/a	catFR1	3	R1444D
1332.714	10.349	1334276	COUNTDOWN_START	n/a	n/a	n/a	n/a	-999	12	[0, 0, 0]	n/a	catFR1	3	R1444D
1343.063	0.0	1344623	COUNTDOWN_END	n/a	n/a	n/a	n/a	-999	12	[0, 0, 0]	n/a	catFR1	3	R1444D
1343.063	1.935	1344623	ENCODING_START	n/a	n/a	n/a	n/a	-999	12	[0, 0, 0]	n/a	catFR1	3	R1444D
1344.998	1.615	1346557	WORD	n/a	wordpools/wordpool_categorized_EN.txt	TRUCK	Vehicles	1	12	[0, 0, 0]	n/a	catFR1	3	R1444D
1346.613	0.768	1348177	WORD_OFF	n/a	n/a	TRUCK	Vehicles	1	12	[0, 0, 0]	n/a	catFR1	3	R1444D
1347.381	1.616	1348943	WORD	n/a	wordpools/wordpool_categorized_EN.txt	JEEP	Vehicles	2	12	[0, 0, 0]	n/a	catFR1	3	R1444D
1348.997	1.0	1350562	WORD_OFF	n/a	n/a	JEEP	Vehicles	2	12	[0, 0, 0]	n/a	catFR1	3	R1444D
1349.997	1.617	1351554	WORD	n/a	wordpools/wordpool_categorized_EN.txt	SPANDEX	Fabric	3	12	[0, 0, 0]	n/a	catFR1	3	R1444D
1351.614	0.85	1353174	WORD_OFF	n/a	n/a	SPANDEX	Fabric	3	12	[0, 0, 0]	n/a	catFR1	3	R1444D
1352.464	1.6	1354028	WORD	n/a	wordpools/wordpool_categorized_EN.txt	WOOL	Fabric	4	12	[0, 0, 0]	n/a	catFR1	3	R1444D
1354.064	0.95	1355623	WORD_OFF	n/a	n/a	WOOL	Fabric	4	12	[0, 0, 0]	n/a	catFR1	3	R1444D
1355.014	1.6	1356577	WORD	n/a	wordpools/wordpool_categorized_EN.txt	SPIDER	Insects	5	12	[0, 0, 0]	n/a	catFR1	3	R1444D
1356.614	0.816	1358172	WORD_OFF	n/a	n/a	SPIDER	Insects	5	12	[0, 0, 0]	n/a	catFR1	3	R1444D
1357.43	1.601	1358988	WORD	n/a	wordpools/wordpool_categorized_EN.txt	LADYBUG	Insects	6	12	[0, 0, 0]	n/a	catFR1	3	R1444D
1359.031	0.882	1360595	WORD_OFF	n/a	n/a	LADYBUG	Insects	6	12	[0, 0, 0]	n/a	catFR1	3	R1444D
1359.913	1.617	1361474	WORD	n/a	wordpools/wordpool_categorized_EN.txt	SILK	Fabric	7	12	[0, 0, 0]	n/a	catFR1	3	R1444D
1361.53	1.0	1363094	WORD_OFF	n/a	n/a	SILK	Fabric	7	12	[0, 0, 0]	n/a	catFR1	3	R1444D
1362.53	1.618	1364086	WORD	n/a	wordpools/wordpool_categorized_EN.txt	DENIM	Fabric	8	12	[0, 0, 0]	n/a	catFR1	3	R1444D
1364.148	0.983	1365706	WORD_OFF	n/a	n/a	DENIM	Fabric	8	12	[0, 0, 0]	n/a	catFR1	3	R1444D
1365.131	1.616	1366686	WORD	n/a	wordpools/wordpool_categorized_EN.txt	MOSQUITO	Insects	9	12	[0, 0, 0]	n/a	catFR1	3	R1444D
1366.747	0.883	1368305	WORD_OFF	n/a	n/a	MOSQUITO	Insects	9	12	[0, 0, 0]	n/a	catFR1	3	R1444D
1367.63	1.6	1369184	WORD	n/a	wordpools/wordpool_categorized_EN.txt	FLY	Insects	10	12	[0, 0, 0]	n/a	catFR1	3	R1444D
1369.23	0.984	1370792	WORD_OFF	n/a	n/a	FLY	Insects	10	12	[0, 0, 0]	n/a	catFR1	3	R1444D
1370.214	1.6	1371771	WORD	n/a	wordpools/wordpool_categorized_EN.txt	BUS	Vehicles	11	12	[0, 0, 0]	n/a	catFR1	3	R1444D
1371.814	0.884	1373378	WORD_OFF	n/a	n/a	BUS	Vehicles	11	12	[0, 0, 0]	n/a	catFR1	3	R1444D
1372.698	1.6	1374257	WORD	n/a	wordpools/wordpool_categorized_EN.txt	SCOOTER	Vehicles	12	12	[0, 0, 0]	n/a	catFR1	3	R1444D
1374.298	0.0	1375852	WORD_OFF	n/a	n/a	SCOOTER	Vehicles	12	12	[0, 0, 0]	n/a	catFR1	3	R1444D
1374.298	0.001	1375855	PROB	7.482	n/a	n/a	n/a	-999	12	[7, 2, 3]	12.0	catFR1	3	R1444D
1374.299	0.0	1375856	START	n/a	n/a	n/a	n/a	-999	12	[-999, -999, -999]	n/a	catFR1	3	R1444D
1374.299	0.0	1375865	ENCODING_END	n/a	n/a	n/a	n/a	-999	12	[0, 0, 0]	n/a	catFR1	3	R1444D
1374.299	7.5	1375865	DISTRACT_START	n/a	n/a	n/a	n/a	-999	12	[0, 0, 0]	n/a	catFR1	3	R1444D
1381.799	4.9	1383356	PROB	4.882	n/a	n/a	n/a	-999	12	[8, 2, 1]	11.0	catFR1	3	R1444D
1386.699	12.215	1388255	PROB	12.199	n/a	n/a	n/a	-999	12	[2, 5, 5]	12.0	catFR1	3	R1444D
1398.914	0.0	1400470	STOP	n/a	n/a	n/a	n/a	-999	12	[-999, -999, -999]	n/a	catFR1	3	R1444D
1398.914	2.017	1400476	DISTRACT_END	n/a	n/a	n/a	n/a	-999	12	[0, 0, 0]	n/a	catFR1	3	R1444D
1400.931	0.788	1402493	REC_START	n/a	n/a	n/a	n/a	-999	12	[0, 0, 0]	n/a	catFR1	3	R1444D
1401.719	0.349	1403275	REC_WORD	0.788	n/a	SCOOTER	Vehicles	12	12	[0, 0, 0]	n/a	catFR1	3	R1444D
1402.068	0.767	1403624	REC_WORD	1.137	n/a	MOSQUITO	Insects	9	12	[0, 0, 0]	n/a	catFR1	3	R1444D
1402.835	0.436	1404391	REC_WORD	1.904	n/a	BUG	n/a	-999	12	[0, 0, 0]	n/a	catFR1	3	R1444D
1403.271	1.803	1404827	REC_WORD	2.34	n/a	FLY	Insects	10	12	[0, 0, 0]	n/a	catFR1	3	R1444D
1405.074	3.562	1406629	REC_WORD_VV	4.143	n/a	<>	n/a	-999	12	[0, 0, 0]	n/a	catFR1	3	R1444D
1408.636	1.354	1410191	REC_WORD	7.705	n/a	MOSQUITO	Insects	9	12	[0, 0, 0]	n/a	catFR1	3	R1444D
1409.99	2.916	1411545	REC_WORD	9.059	n/a	BUG	n/a	-999	12	[0, 0, 0]	n/a	catFR1	3	R1444D
1412.906	2.005	1414461	REC_WORD	11.975	n/a	FLY	Insects	10	12	[0, 0, 0]	n/a	catFR1	3	R1444D
1414.911	4.877	1416466	REC_WORD_VV	13.98	n/a	<>	n/a	-999	12	[0, 0, 0]	n/a	catFR1	3	R1444D
1419.788	0.542	1421343	REC_WORD_VV	18.857	n/a	<>	n/a	-999	12	[0, 0, 0]	n/a	catFR1	3	R1444D
1420.33	5.578	1421885	REC_WORD	19.399	n/a	ZEBRA	n/a	-999	12	[0, 0, 0]	n/a	catFR1	3	R1444D
1425.908	0.9	1427462	REC_WORD_VV	24.977	n/a	<>	n/a	-999	12	[0, 0, 0]	n/a	catFR1	3	R1444D
1426.808	4.355	1428362	REC_WORD	25.877	n/a	PILOT	n/a	-999	12	[0, 0, 0]	n/a	catFR1	3	R1444D
1431.163	0.0	1432723	REC_END	n/a	n/a	n/a	n/a	-999	12	[0, 0, 0]	n/a	catFR1	3	R1444D
