onset	duration	sample	trial_type	response_time	stim_file	item_name	category	serialpos	list	test	answer	experiment	session	subject
0.0	533.81	1557	INSTRUCT_START	n/a	n/a	n/a	n/a	-999	-999	[0, 0, 0]	n/a	catFR1	0	R1275D
533.81	3.167	535339	INSTRUCT_END	n/a	n/a	n/a	n/a	-999	-999	[0, 0, 0]	n/a	catFR1	0	R1275D
536.977	13.597	538506	MIC TEST_START	n/a	n/a	n/a	n/a	-999	-999	[0, 0, 0]	n/a	catFR1	0	R1275D
550.574	0.011	552102	MIC TEST_END	n/a	n/a	n/a	n/a	-999	-999	[0, 0, 0]	n/a	catFR1	0	R1275D
550.585	0.0	552113	TRIAL_START	n/a	n/a	n/a	n/a	-999	-1	[0, 0, 0]	n/a	catFR1	0	R1275D
550.585	0.0	552113	TRIAL	n/a	n/a	n/a	n/a	-999	-1	[0, 0, 0]	n/a	catFR1	0	R1275D
550.585	2.877	552113	WAITING_START	n/a	n/a	n/a	n/a	-999	-1	[0, 0, 0]	n/a	catFR1	0	R1275D
553.462	0.001	554990	WAITING_END	n/a	n/a	n/a	n/a	-999	-1	[0, 0, 0]	n/a	catFR1	0	R1275D
553.463	10.0	554991	COUNTDOWN_START	n/a	n/a	n/a	n/a	-999	-1	[0, 0, 0]	n/a	catFR1	0	R1275D
563.892	0.0	565419	COUNTDOWN_END	n/a	n/a	n/a	n/a	-999	-1	[0, 0, 0]	n/a	catFR1	0	R1275D
563.892	1.206	565419	ORIENT_START	n/a	n/a	n/a	n/a	-999	-1	[0, 0, 0]	n/a	catFR1	0	R1275D
565.098	0.001	566625	ORIENT_END	n/a	n/a	n/a	n/a	-999	-1	[0, 0, 0]	n/a	catFR1	0	R1275D
565.099	1.036	566626	ENCODING_START	n/a	n/a	n/a	n/a	-999	-1	[0, 0, 0]	n/a	catFR1	0	R1275D
566.135	1.6	567662	WORD	n/a	n/a	FARMER	n/a	1	-1	[0, 0, 0]	n/a	catFR1	0	R1275D
567.766	0.971	569293	WORD_OFF	n/a	n/a	FARMER	n/a	1	-1	[0, 0, 0]	n/a	catFR1	0	R1275D
568.737	1.6	570264	WORD	n/a	n/a	LEATHER	n/a	2	-1	[0, 0, 0]	n/a	catFR1	0	R1275D
570.365	0.981	571892	WORD_OFF	n/a	n/a	LEATHER	n/a	2	-1	[0, 0, 0]	n/a	catFR1	0	R1275D
571.346	1.6	572873	WORD	n/a	n/a	SECOND	n/a	3	-1	[0, 0, 0]	n/a	catFR1	0	R1275D
572.966	0.928	574493	WORD_OFF	n/a	n/a	SECOND	n/a	3	-1	[0, 0, 0]	n/a	catFR1	0	R1275D
573.894	1.6	575421	WORD	n/a	n/a	WOOL	n/a	4	-1	[0, 0, 0]	n/a	catFR1	0	R1275D
575.516	1.081	577043	WORD_OFF	n/a	n/a	WOOL	n/a	4	-1	[0, 0, 0]	n/a	catFR1	0	R1275D
576.597	1.6	578124	WORD	n/a	n/a	FIREMAN	n/a	5	-1	[0, 0, 0]	n/a	catFR1	0	R1275D
578.233	0.913	579760	WORD_OFF	n/a	n/a	FIREMAN	n/a	5	-1	[0, 0, 0]	n/a	catFR1	0	R1275D
579.146	1.6	580672	WORD	n/a	n/a	PLUMBER	n/a	6	-1	[0, 0, 0]	n/a	catFR1	0	R1275D
580.768	0.784	582294	WORD_OFF	n/a	n/a	PLUMBER	n/a	6	-1	[0, 0, 0]	n/a	catFR1	0	R1275D
581.552	1.6	583078	WORD	n/a	n/a	DENIM	n/a	7	-1	[0, 0, 0]	n/a	catFR1	0	R1275D
583.185	0.965	584711	WORD_OFF	n/a	n/a	DENIM	n/a	7	-1	[0, 0, 0]	n/a	catFR1	0	R1275D
584.15	1.6	585676	WORD	n/a	n/a	HOUR	n/a	8	-1	[0, 0, 0]	n/a	catFR1	0	R1275D
585.786	1.117	587312	WORD_OFF	n/a	n/a	HOUR	n/a	8	-1	[0, 0, 0]	n/a	catFR1	0	R1275D
586.903	1.6	588429	WORD	n/a	n/a	SILK	n/a	9	-1	[0, 0, 0]	n/a	catFR1	0	R1275D
588.536	1.053	590062	WORD_OFF	n/a	n/a	SILK	n/a	9	-1	[0, 0, 0]	n/a	catFR1	0	R1275D
589.589	1.6	591115	WORD	n/a	n/a	DAY	n/a	10	-1	[0, 0, 0]	n/a	catFR1	0	R1275D
591.219	1.139	592745	WORD_OFF	n/a	n/a	DAY	n/a	10	-1	[0, 0, 0]	n/a	catFR1	0	R1275D
592.358	1.6	593884	WORD	n/a	n/a	TEACHER	n/a	11	-1	[0, 0, 0]	n/a	catFR1	0	R1275D
593.987	0.764	595513	WORD_OFF	n/a	n/a	TEACHER	n/a	11	-1	[0, 0, 0]	n/a	catFR1	0	R1275D
594.751	1.6	596277	WORD	n/a	n/a	MINUTE	n/a	12	-1	[0, 0, 0]	n/a	catFR1	0	R1275D
596.387	0.0	597913	WORD_OFF	n/a	n/a	MINUTE	n/a	12	-1	[0, 0, 0]	n/a	catFR1	0	R1275D
596.387	0.0	597913	ENCODING_END	n/a	n/a	n/a	n/a	-999	-1	[0, 0, 0]	n/a	catFR1	0	R1275D
596.387	0.001	597913	DISTRACT_START	n/a	n/a	n/a	n/a	-999	-1	[0, 0, 0]	n/a	catFR1	0	R1275D
596.388	0.015	597914	START	n/a	n/a	n/a	n/a	-999	-1	[-999, -999, -999]	n/a	catFR1	0	R1275D
596.403	3.718	597929	PROB	3.687	n/a	n/a	n/a	-999	-1	[1, 3, 2]	6.0	catFR1	0	R1275D
600.121	4.901	601646	PROB	4.869	n/a	n/a	n/a	-999	-1	[6, 1, 5]	12.0	catFR1	0	R1275D
605.022	4.118	606547	PROB	4.095	n/a	n/a	n/a	-999	-1	[3, 4, 1]	8.0	catFR1	0	R1275D
609.14	6.034	610665	PROB	6.0	n/a	n/a	n/a	-999	-1	[2, 5, 6]	13.0	catFR1	0	R1275D
615.174	3.751	616699	PROB	3.751	n/a	n/a	n/a	-999	-1	[1, 3, 2]	6.0	catFR1	0	R1275D
618.925	0.017	620449	STOP	n/a	n/a	n/a	n/a	-999	-1	[-999, -999, -999]	n/a	catFR1	0	R1275D
618.942	0.588	620466	DISTRACT_END	n/a	n/a	n/a	n/a	-999	-1	[0, 0, 0]	n/a	catFR1	0	R1275D
619.53	1.6	621054	RETRIEVAL_ORIENT_START	n/a	n/a	n/a	n/a	-999	-1	[0, 0, 0]	n/a	catFR1	0	R1275D
621.241	0.0	622765	RETRIEVAL_ORIENT_END	n/a	n/a	n/a	n/a	-999	-1	[0, 0, 0]	n/a	catFR1	0	R1275D
621.241	0.335	622765	REC_START	n/a	n/a	n/a	n/a	-999	-1	[0, 0, 0]	n/a	catFR1	0	R1275D
621.576	1.91	623100	REC_WORD	0.335	n/a	FARMER	n/a	1	-1	[0, 0, 0]	n/a	catFR1	0	R1275D
623.486	7.908	625010	REC_WORD	2.245	n/a	FIREMAN	n/a	5	-1	[0, 0, 0]	n/a	catFR1	0	R1275D
631.394	1.776	632918	REC_WORD_VV	10.153	n/a	<>	n/a	-999	-1	[0, 0, 0]	n/a	catFR1	0	R1275D
633.17	10.617	634694	REC_WORD	11.929	n/a	TEACHER	n/a	11	-1	[0, 0, 0]	n/a	catFR1	0	R1275D
643.787	2.867	645310	REC_WORD_VV	22.546	n/a	<>	n/a	-999	-1	[0, 0, 0]	n/a	catFR1	0	R1275D
646.654	4.601	648177	REC_WORD_VV	25.413	n/a	<>	n/a	-999	-1	[0, 0, 0]	n/a	catFR1	0	R1275D
651.255	0.0	652778	REC_END	n/a	n/a	n/a	n/a	-999	-1	[0, 0, 0]	n/a	catFR1	0	R1275D
651.255	5.694	652778	PRACTICE_POST_INSTRUCT_START	n/a	n/a	n/a	n/a	-999	-1	[0, 0, 0]	n/a	catFR1	0	R1275D
656.949	0.0	658471	PRACTICE_POST_INSTRUCT_END	n/a	n/a	n/a	n/a	-999	-1	[0, 0, 0]	n/a	catFR1	0	R1275D
656.949	0.026	658471	TRIAL_END	n/a	n/a	n/a	n/a	-999	-1	[0, 0, 0]	n/a	catFR1	0	R1275D
656.975	0.0	658497	TRIAL_START	n/a	n/a	n/a	n/a	-999	1	[0, 0, 0]	n/a	catFR1	0	R1275D
656.975	0.0	658497	TRIAL	n/a	n/a	n/a	n/a	-999	1	[0, 0, 0]	n/a	catFR1	0	R1275D
656.975	2.658	658497	WAITING_START	n/a	n/a	n/a	n/a	-999	1	[0, 0, 0]	n/a	catFR1	0	R1275D
659.633	0.0	661155	WAITING_END	n/a	n/a	n/a	n/a	-999	1	[0, 0, 0]	n/a	catFR1	0	R1275D
659.633	10.0	661155	COUNTDOWN_START	n/a	n/a	n/a	n/a	-999	1	[0, 0, 0]	n/a	catFR1	0	R1275D
670.063	0.0	671585	COUNTDOWN_END	n/a	n/a	n/a	n/a	-999	1	[0, 0, 0]	n/a	catFR1	0	R1275D
670.063	1.122	671585	ORIENT_START	n/a	n/a	n/a	n/a	-999	1	[0, 0, 0]	n/a	catFR1	0	R1275D
671.185	0.0	672707	ORIENT_END	n/a	n/a	n/a	n/a	-999	1	[0, 0, 0]	n/a	catFR1	0	R1275D
671.185	1.141	672707	ENCODING_START	n/a	n/a	n/a	n/a	-999	1	[0, 0, 0]	n/a	catFR1	0	R1275D
672.326	1.6	673848	WORD	n/a	wordpools/wordpool_categorized_EN.txt	SUNFLOWER	Flowers	1	1	[0, 0, 0]	n/a	catFR1	0	R1275D
673.952	0.971	675473	WORD_OFF	n/a	n/a	SUNFLOWER	Flowers	1	1	[0, 0, 0]	n/a	catFR1	0	R1275D
674.923	1.6	676444	WORD	n/a	wordpools/wordpool_categorized_EN.txt	VIOLET	Flowers	2	1	[0, 0, 0]	n/a	catFR1	0	R1275D
676.552	0.766	678073	WORD_OFF	n/a	n/a	VIOLET	Flowers	2	1	[0, 0, 0]	n/a	catFR1	0	R1275D
677.318	1.6	678839	WORD	n/a	wordpools/wordpool_categorized_EN.txt	APPLE	Fruit	3	1	[0, 0, 0]	n/a	catFR1	0	R1275D
678.936	1.144	680457	WORD_OFF	n/a	n/a	APPLE	Fruit	3	1	[0, 0, 0]	n/a	catFR1	0	R1275D
680.08	1.6	681601	WORD	n/a	wordpools/wordpool_categorized_EN.txt	PEACH	Fruit	4	1	[0, 0, 0]	n/a	catFR1	0	R1275D
681.703	1.137	683224	WORD_OFF	n/a	n/a	PEACH	Fruit	4	1	[0, 0, 0]	n/a	catFR1	0	R1275D
682.84	1.6	684361	WORD	n/a	wordpools/wordpool_categorized_EN.txt	CABINET	Furniture	5	1	[0, 0, 0]	n/a	catFR1	0	R1275D
684.469	1.146	685990	WORD_OFF	n/a	n/a	CABINET	Furniture	5	1	[0, 0, 0]	n/a	catFR1	0	R1275D
685.615	1.6	687136	WORD	n/a	wordpools/wordpool_categorized_EN.txt	NIGHTSTAND	Furniture	6	1	[0, 0, 0]	n/a	catFR1	0	R1275D
687.253	0.971	688774	WORD_OFF	n/a	n/a	NIGHTSTAND	Furniture	6	1	[0, 0, 0]	n/a	catFR1	0	R1275D
688.224	1.6	689745	WORD	n/a	wordpools/wordpool_categorized_EN.txt	TULIP	Flowers	7	1	[0, 0, 0]	n/a	catFR1	0	R1275D
689.855	0.774	691376	WORD_OFF	n/a	n/a	TULIP	Flowers	7	1	[0, 0, 0]	n/a	catFR1	0	R1275D
690.629	1.6	692150	WORD	n/a	wordpools/wordpool_categorized_EN.txt	DAFFODIL	Flowers	8	1	[0, 0, 0]	n/a	catFR1	0	R1275D
692.254	0.979	693775	WORD_OFF	n/a	n/a	DAFFODIL	Flowers	8	1	[0, 0, 0]	n/a	catFR1	0	R1275D
693.233	1.6	694753	WORD	n/a	wordpools/wordpool_categorized_EN.txt	COUCH	Furniture	9	1	[0, 0, 0]	n/a	catFR1	0	R1275D
694.839	0.911	696359	WORD_OFF	n/a	n/a	COUCH	Furniture	9	1	[0, 0, 0]	n/a	catFR1	0	R1275D
695.75	1.6	697270	WORD	n/a	wordpools/wordpool_categorized_EN.txt	CHAIR	Furniture	10	1	[0, 0, 0]	n/a	catFR1	0	R1275D
697.372	0.873	698892	WORD_OFF	n/a	n/a	CHAIR	Furniture	10	1	[0, 0, 0]	n/a	catFR1	0	R1275D
698.245	1.6	699765	WORD	n/a	wordpools/wordpool_categorized_EN.txt	PLUM	Fruit	11	1	[0, 0, 0]	n/a	catFR1	0	R1275D
699.873	0.997	701393	WORD_OFF	n/a	n/a	PLUM	Fruit	11	1	[0, 0, 0]	n/a	catFR1	0	R1275D
700.87	1.6	702390	WORD	n/a	wordpools/wordpool_categorized_EN.txt	PEAR	Fruit	12	1	[0, 0, 0]	n/a	catFR1	0	R1275D
702.506	0.0	704026	WORD_OFF	n/a	n/a	PEAR	Fruit	12	1	[0, 0, 0]	n/a	catFR1	0	R1275D
702.506	0.001	704026	ENCODING_END	n/a	n/a	n/a	n/a	-999	1	[0, 0, 0]	n/a	catFR1	0	R1275D
702.507	0.0	704027	DISTRACT_START	n/a	n/a	n/a	n/a	-999	1	[0, 0, 0]	n/a	catFR1	0	R1275D
702.507	0.016	704027	START	n/a	n/a	n/a	n/a	-999	1	[-999, -999, -999]	n/a	catFR1	0	R1275D
702.523	5.668	704043	PROB	5.639	n/a	n/a	n/a	-999	1	[3, 5, 2]	10.0	catFR1	0	R1275D
708.191	6.084	709711	PROB	6.047	n/a	n/a	n/a	-999	1	[3, 9, 2]	14.0	catFR1	0	R1275D
714.275	4.501	715794	PROB	4.467	n/a	n/a	n/a	-999	1	[8, 6, 3]	17.0	catFR1	0	R1275D
718.776	4.094	720295	PROB	4.094	n/a	n/a	n/a	-999	1	[2, 5, 4]	11.0	catFR1	0	R1275D
722.87	0.007	724389	STOP	n/a	n/a	n/a	n/a	-999	1	[-999, -999, -999]	n/a	catFR1	0	R1275D
722.877	0.697	724396	DISTRACT_END	n/a	n/a	n/a	n/a	-999	1	[0, 0, 0]	n/a	catFR1	0	R1275D
723.574	1.6	725093	RETRIEVAL_ORIENT_START	n/a	n/a	n/a	n/a	-999	1	[0, 0, 0]	n/a	catFR1	0	R1275D
725.21	0.0	726729	RETRIEVAL_ORIENT_END	n/a	n/a	n/a	n/a	-999	1	[0, 0, 0]	n/a	catFR1	0	R1275D
725.21	0.123	726729	REC_START	n/a	n/a	n/a	n/a	-999	1	[0, 0, 0]	n/a	catFR1	0	R1275D
725.333	0.831	726852	REC_WORD	0.123	n/a	DAFFODIL	Flowers	8	1	[0, 0, 0]	n/a	catFR1	0	R1275D
726.164	0.716	727683	REC_WORD	0.954	n/a	TULIP	Flowers	7	1	[0, 0, 0]	n/a	catFR1	0	R1275D
726.88	0.697	728399	REC_WORD	1.67	n/a	CHAIR	Furniture	10	1	[0, 0, 0]	n/a	catFR1	0	R1275D
727.577	7.288	729096	REC_WORD	2.367	n/a	COUCH	Furniture	9	1	[0, 0, 0]	n/a	catFR1	0	R1275D
734.865	8.438	736383	REC_WORD	9.655	n/a	PEACH	Fruit	4	1	[0, 0, 0]	n/a	catFR1	0	R1275D
743.303	2.743	744821	REC_WORD_VV	18.093	n/a	<>	n/a	-999	1	[0, 0, 0]	n/a	catFR1	0	R1275D
746.046	1.184	747564	REC_WORD_VV	20.836	n/a	<>	n/a	-999	1	[0, 0, 0]	n/a	catFR1	0	R1275D
747.23	0.481	748748	REC_WORD	22.02	n/a	APPLE	Fruit	3	1	[0, 0, 0]	n/a	catFR1	0	R1275D
747.711	7.512	749229	REC_WORD_VV	22.501	n/a	<>	n/a	-999	1	[0, 0, 0]	n/a	catFR1	0	R1275D
755.223	0.0	756740	REC_END	n/a	n/a	n/a	n/a	-999	1	[0, 0, 0]	n/a	catFR1	0	R1275D
755.223	0.023	756740	TRIAL_END	n/a	n/a	n/a	n/a	-999	1	[0, 0, 0]	n/a	catFR1	0	R1275D
755.246	0.0	756763	TRIAL_START	n/a	n/a	n/a	n/a	-999	2	[0, 0, 0]	n/a	catFR1	0	R1275D
755.246	0.001	756763	TRIAL	n/a	n/a	n/a	n/a	-999	2	[0, 0, 0]	n/a	catFR1	0	R1275D
755.247	2.136	756764	WAITING_START	n/a	n/a	n/a	n/a	-999	2	[0, 0, 0]	n/a	catFR1	0	R1275D
757.383	0.0	758900	WAITING_END	n/a	n/a	n/a	n/a	-999	2	[0, 0, 0]	n/a	catFR1	0	R1275D
757.383	10.0	758900	COUNTDOWN_START	n/a	n/a	n/a	n/a	-999	2	[0, 0, 0]	n/a	catFR1	0	R1275D
767.812	0.001	769329	COUNTDOWN_END	n/a	n/a	n/a	n/a	-999	2	[0, 0, 0]	n/a	catFR1	0	R1275D
767.813	1.206	769330	ORIENT_START	n/a	n/a	n/a	n/a	-999	2	[0, 0, 0]	n/a	catFR1	0	R1275D
769.019	0.001	770536	ORIENT_END	n/a	n/a	n/a	n/a	-999	2	[0, 0, 0]	n/a	catFR1	0	R1275D
769.02	0.79	770537	ENCODING_START	n/a	n/a	n/a	n/a	-999	2	[0, 0, 0]	n/a	catFR1	0	R1275D
769.81	1.6	771326	WORD	n/a	wordpools/wordpool_categorized_EN.txt	BLENDER	Appliances	1	2	[0, 0, 0]	n/a	catFR1	0	R1275D
771.435	0.842	772951	WORD_OFF	n/a	n/a	BLENDER	Appliances	1	2	[0, 0, 0]	n/a	catFR1	0	R1275D
772.277	1.6	773793	WORD	n/a	wordpools/wordpool_categorized_EN.txt	VACUUM	Appliances	2	2	[0, 0, 0]	n/a	catFR1	0	R1275D
773.903	0.964	775419	WORD_OFF	n/a	n/a	VACUUM	Appliances	2	2	[0, 0, 0]	n/a	catFR1	0	R1275D
774.867	1.6	776383	WORD	n/a	wordpools/wordpool_categorized_EN.txt	PHONE	Electronics	3	2	[0, 0, 0]	n/a	catFR1	0	R1275D
776.503	1.028	778019	WORD_OFF	n/a	n/a	PHONE	Electronics	3	2	[0, 0, 0]	n/a	catFR1	0	R1275D
777.531	1.6	779047	WORD	n/a	wordpools/wordpool_categorized_EN.txt	COMPUTER	Electronics	4	2	[0, 0, 0]	n/a	catFR1	0	R1275D
779.154	0.768	780670	WORD_OFF	n/a	n/a	COMPUTER	Electronics	4	2	[0, 0, 0]	n/a	catFR1	0	R1275D
779.922	1.6	781438	WORD	n/a	wordpools/wordpool_categorized_EN.txt	FOLDER	OfficeSupplies	5	2	[0, 0, 0]	n/a	catFR1	0	R1275D
781.555	1.061	783071	WORD_OFF	n/a	n/a	FOLDER	OfficeSupplies	5	2	[0, 0, 0]	n/a	catFR1	0	R1275D
782.616	1.6	784132	WORD	n/a	wordpools/wordpool_categorized_EN.txt	BINDER	OfficeSupplies	6	2	[0, 0, 0]	n/a	catFR1	0	R1275D
784.238	0.909	785754	WORD_OFF	n/a	n/a	BINDER	OfficeSupplies	6	2	[0, 0, 0]	n/a	catFR1	0	R1275D
785.147	1.6	786663	WORD	n/a	wordpools/wordpool_categorized_EN.txt	TABLET	Electronics	7	2	[0, 0, 0]	n/a	catFR1	0	R1275D
786.772	1.048	788288	WORD_OFF	n/a	n/a	TABLET	Electronics	7	2	[0, 0, 0]	n/a	catFR1	0	R1275D
787.82	1.6	789336	WORD	n/a	wordpools/wordpool_categorized_EN.txt	RADIO	Electronics	8	2	[0, 0, 0]	n/a	catFR1	0	R1275D
789.455	0.824	790970	WORD_OFF	n/a	n/a	RADIO	Electronics	8	2	[0, 0, 0]	n/a	catFR1	0	R1275D
790.279	1.6	791794	WORD	n/a	wordpools/wordpool_categorized_EN.txt	PENCIL	OfficeSupplies	9	2	[0, 0, 0]	n/a	catFR1	0	R1275D
791.906	0.869	793421	WORD_OFF	n/a	n/a	PENCIL	OfficeSupplies	9	2	[0, 0, 0]	n/a	catFR1	0	R1275D
792.775	1.6	794290	WORD	n/a	wordpools/wordpool_categorized_EN.txt	RULER	OfficeSupplies	10	2	[0, 0, 0]	n/a	catFR1	0	R1275D
794.406	0.932	795921	WORD_OFF	n/a	n/a	RULER	OfficeSupplies	10	2	[0, 0, 0]	n/a	catFR1	0	R1275D
795.338	1.6	796853	WORD	n/a	wordpools/wordpool_categorized_EN.txt	WASHER	Appliances	11	2	[0, 0, 0]	n/a	catFR1	0	R1275D
796.957	1.132	798472	WORD_OFF	n/a	n/a	WASHER	Appliances	11	2	[0, 0, 0]	n/a	catFR1	0	R1275D
798.089	1.6	799604	WORD	n/a	wordpools/wordpool_categorized_EN.txt	STOVE	Appliances	12	2	[0, 0, 0]	n/a	catFR1	0	R1275D
799.725	0.0	801240	WORD_OFF	n/a	n/a	STOVE	Appliances	12	2	[0, 0, 0]	n/a	catFR1	0	R1275D
799.725	0.0	801240	ENCODING_END	n/a	n/a	n/a	n/a	-999	2	[0, 0, 0]	n/a	catFR1	0	R1275D
799.725	0.0	801240	DISTRACT_START	n/a	n/a	n/a	n/a	-999	2	[0, 0, 0]	n/a	catFR1	0	R1275D
799.725	0.016	801240	START	n/a	n/a	n/a	n/a	-999	2	[-999, -999, -999]	n/a	catFR1	0	R1275D
799.741	8.567	801256	PROB	8.538	n/a	n/a	n/a	-999	2	[4, 1, 8]	13.0	catFR1	0	R1275D
808.308	4.269	809822	PROB	4.231	n/a	n/a	n/a	-999	2	[1, 5, 3]	9.0	catFR1	0	R1275D
812.577	4.151	814091	PROB	4.113	n/a	n/a	n/a	-999	2	[1, 1, 8]	10.0	catFR1	0	R1275D
816.728	3.33	818242	PROB	3.33	n/a	n/a	n/a	-999	2	[1, 3, 3]	7.0	catFR1	0	R1275D
820.058	0.02	821572	STOP	n/a	n/a	n/a	n/a	-999	2	[-999, -999, -999]	n/a	catFR1	0	R1275D
820.078	0.512	821592	DISTRACT_END	n/a	n/a	n/a	n/a	-999	2	[0, 0, 0]	n/a	catFR1	0	R1275D
820.59	1.6	822104	RETRIEVAL_ORIENT_START	n/a	n/a	n/a	n/a	-999	2	[0, 0, 0]	n/a	catFR1	0	R1275D
822.294	0.001	823808	RETRIEVAL_ORIENT_END	n/a	n/a	n/a	n/a	-999	2	[0, 0, 0]	n/a	catFR1	0	R1275D
822.295	0.128	823809	REC_START	n/a	n/a	n/a	n/a	-999	2	[0, 0, 0]	n/a	catFR1	0	R1275D
822.423	0.957	823937	REC_WORD	0.128	n/a	RADIO	Electronics	8	2	[0, 0, 0]	n/a	catFR1	0	R1275D
823.38	2.18	824894	REC_WORD	1.085	n/a	STOVE	Appliances	12	2	[0, 0, 0]	n/a	catFR1	0	R1275D
825.56	5.599	827074	REC_WORD	3.265	n/a	BLENDER	Appliances	1	2	[0, 0, 0]	n/a	catFR1	0	R1275D
831.159	5.795	832672	REC_WORD_VV	8.864	n/a	<>	n/a	-999	2	[0, 0, 0]	n/a	catFR1	0	R1275D
836.954	7.691	838467	REC_WORD	14.659	n/a	VACUUM	Appliances	2	2	[0, 0, 0]	n/a	catFR1	0	R1275D
844.645	7.661	846158	REC_WORD_VV	22.35	n/a	<>	n/a	-999	2	[0, 0, 0]	n/a	catFR1	0	R1275D
852.306	0.001	853818	REC_END	n/a	n/a	n/a	n/a	-999	2	[0, 0, 0]	n/a	catFR1	0	R1275D
852.307	0.021	853819	TRIAL_END	n/a	n/a	n/a	n/a	-999	2	[0, 0, 0]	n/a	catFR1	0	R1275D
852.328	0.0	853840	TRIAL_START	n/a	n/a	n/a	n/a	-999	3	[0, 0, 0]	n/a	catFR1	0	R1275D
852.328	0.0	853840	TRIAL	n/a	n/a	n/a	n/a	-999	3	[0, 0, 0]	n/a	catFR1	0	R1275D
852.328	1.79	853840	WAITING_START	n/a	n/a	n/a	n/a	-999	3	[0, 0, 0]	n/a	catFR1	0	R1275D
854.118	0.0	855630	WAITING_END	n/a	n/a	n/a	n/a	-999	3	[0, 0, 0]	n/a	catFR1	0	R1275D
854.118	10.0	855630	COUNTDOWN_START	n/a	n/a	n/a	n/a	-999	3	[0, 0, 0]	n/a	catFR1	0	R1275D
864.547	0.001	866059	COUNTDOWN_END	n/a	n/a	n/a	n/a	-999	3	[0, 0, 0]	n/a	catFR1	0	R1275D
864.548	1.039	866060	ORIENT_START	n/a	n/a	n/a	n/a	-999	3	[0, 0, 0]	n/a	catFR1	0	R1275D
865.587	0.0	867098	ORIENT_END	n/a	n/a	n/a	n/a	-999	3	[0, 0, 0]	n/a	catFR1	0	R1275D
865.587	0.94	867098	ENCODING_START	n/a	n/a	n/a	n/a	-999	3	[0, 0, 0]	n/a	catFR1	0	R1275D
866.527	1.6	868038	WORD	n/a	wordpools/wordpool_categorized_EN.txt	PANTS	Clothing	1	3	[0, 0, 0]	n/a	catFR1	0	R1275D
868.154	1.002	869665	WORD_OFF	n/a	n/a	PANTS	Clothing	1	3	[0, 0, 0]	n/a	catFR1	0	R1275D
869.156	1.6	870667	WORD	n/a	wordpools/wordpool_categorized_EN.txt	SOCKS	Clothing	2	3	[0, 0, 0]	n/a	catFR1	0	R1275D
870.788	0.805	872299	WORD_OFF	n/a	n/a	SOCKS	Clothing	2	3	[0, 0, 0]	n/a	catFR1	0	R1275D
871.593	1.6	873104	WORD	n/a	wordpools/wordpool_categorized_EN.txt	SPEAKER	Electronics	3	3	[0, 0, 0]	n/a	catFR1	0	R1275D
873.22	1.059	874731	WORD_OFF	n/a	n/a	SPEAKER	Electronics	3	3	[0, 0, 0]	n/a	catFR1	0	R1275D
874.279	1.6	875790	WORD	n/a	wordpools/wordpool_categorized_EN.txt	MICROWAVE	Electronics	4	3	[0, 0, 0]	n/a	catFR1	0	R1275D
875.889	1.086	877400	WORD_OFF	n/a	n/a	MICROWAVE	Electronics	4	3	[0, 0, 0]	n/a	catFR1	0	R1275D
876.975	1.6	878486	WORD	n/a	wordpools/wordpool_categorized_EN.txt	VAN	Vehicles	5	3	[0, 0, 0]	n/a	catFR1	0	R1275D
878.606	0.925	880117	WORD_OFF	n/a	n/a	VAN	Vehicles	5	3	[0, 0, 0]	n/a	catFR1	0	R1275D
879.531	1.6	881042	WORD	n/a	wordpools/wordpool_categorized_EN.txt	TRAIN	Vehicles	6	3	[0, 0, 0]	n/a	catFR1	0	R1275D
881.156	1.101	882667	WORD_OFF	n/a	n/a	TRAIN	Vehicles	6	3	[0, 0, 0]	n/a	catFR1	0	R1275D
882.257	1.6	883768	WORD	n/a	wordpools/wordpool_categorized_EN.txt	JACKET	Clothing	7	3	[0, 0, 0]	n/a	catFR1	0	R1275D
883.89	0.924	885401	WORD_OFF	n/a	n/a	JACKET	Clothing	7	3	[0, 0, 0]	n/a	catFR1	0	R1275D
884.814	1.6	886324	WORD	n/a	wordpools/wordpool_categorized_EN.txt	BLOUSE	Clothing	8	3	[0, 0, 0]	n/a	catFR1	0	R1275D
886.439	1.12	887949	WORD_OFF	n/a	n/a	BLOUSE	Clothing	8	3	[0, 0, 0]	n/a	catFR1	0	R1275D
887.559	1.6	889069	WORD	n/a	wordpools/wordpool_categorized_EN.txt	TELEVISION	Electronics	9	3	[0, 0, 0]	n/a	catFR1	0	R1275D
889.191	0.948	890701	WORD_OFF	n/a	n/a	TELEVISION	Electronics	9	3	[0, 0, 0]	n/a	catFR1	0	R1275D
890.139	1.6	891649	WORD	n/a	wordpools/wordpool_categorized_EN.txt	HEADPHONES	Electronics	10	3	[0, 0, 0]	n/a	catFR1	0	R1275D
891.775	0.965	893285	WORD_OFF	n/a	n/a	HEADPHONES	Electronics	10	3	[0, 0, 0]	n/a	catFR1	0	R1275D
892.74	1.6	894250	WORD	n/a	wordpools/wordpool_categorized_EN.txt	BIKE	Vehicles	11	3	[0, 0, 0]	n/a	catFR1	0	R1275D
894.374	0.803	895884	WORD_OFF	n/a	n/a	BIKE	Vehicles	11	3	[0, 0, 0]	n/a	catFR1	0	R1275D
895.177	1.6	896687	WORD	n/a	wordpools/wordpool_categorized_EN.txt	SCOOTER	Vehicles	12	3	[0, 0, 0]	n/a	catFR1	0	R1275D
896.809	0.0	898319	WORD_OFF	n/a	n/a	SCOOTER	Vehicles	12	3	[0, 0, 0]	n/a	catFR1	0	R1275D
896.809	0.001	898319	ENCODING_END	n/a	n/a	n/a	n/a	-999	3	[0, 0, 0]	n/a	catFR1	0	R1275D
896.81	0.0	898320	DISTRACT_START	n/a	n/a	n/a	n/a	-999	3	[0, 0, 0]	n/a	catFR1	0	R1275D
896.81	0.015	898320	START	n/a	n/a	n/a	n/a	-999	3	[-999, -999, -999]	n/a	catFR1	0	R1275D
896.825	4.351	898335	PROB	4.323	n/a	n/a	n/a	-999	3	[2, 9, 8]	19.0	catFR1	0	R1275D
901.176	4.668	902686	PROB	4.633	n/a	n/a	n/a	-999	3	[5, 1, 3]	9.0	catFR1	0	R1275D
905.844	3.717	907353	PROB	3.686	n/a	n/a	n/a	-999	3	[5, 4, 1]	10.0	catFR1	0	R1275D
909.561	5.535	911070	PROB	5.508	n/a	n/a	n/a	-999	3	[7, 6, 3]	17.0	catFR1	0	R1275D
915.096	10.062	916605	PROB	10.062	n/a	n/a	n/a	-999	3	[8, 9, 9]	26.0	catFR1	0	R1275D
925.158	0.006	926666	STOP	n/a	n/a	n/a	n/a	-999	3	[-999, -999, -999]	n/a	catFR1	0	R1275D
925.164	0.534	926672	DISTRACT_END	n/a	n/a	n/a	n/a	-999	3	[0, 0, 0]	n/a	catFR1	0	R1275D
925.698	1.6	927206	RETRIEVAL_ORIENT_START	n/a	n/a	n/a	n/a	-999	3	[0, 0, 0]	n/a	catFR1	0	R1275D
927.297	0.0	928805	RETRIEVAL_ORIENT_END	n/a	n/a	n/a	n/a	-999	3	[0, 0, 0]	n/a	catFR1	0	R1275D
927.297	0.089	928805	REC_START	n/a	n/a	n/a	n/a	-999	3	[0, 0, 0]	n/a	catFR1	0	R1275D
927.386	1.104	928894	REC_WORD	0.089	n/a	SCOOTER	Vehicles	12	3	[0, 0, 0]	n/a	catFR1	0	R1275D
928.49	3.201	929998	REC_WORD	1.193	n/a	BIKE	Vehicles	11	3	[0, 0, 0]	n/a	catFR1	0	R1275D
931.691	5.685	933199	REC_WORD_VV	4.394	n/a	<>	n/a	-999	3	[0, 0, 0]	n/a	catFR1	0	R1275D
937.376	3.982	938884	REC_WORD	10.079	n/a	SPEAKER	Electronics	3	3	[0, 0, 0]	n/a	catFR1	0	R1275D
941.358	15.953	942866	REC_WORD	14.061	n/a	TELEVISION	Electronics	9	3	[0, 0, 0]	n/a	catFR1	0	R1275D
957.311	0.0	958818	REC_END	n/a	n/a	n/a	n/a	-999	3	[0, 0, 0]	n/a	catFR1	0	R1275D
957.311	0.021	958818	TRIAL_END	n/a	n/a	n/a	n/a	-999	3	[0, 0, 0]	n/a	catFR1	0	R1275D
957.332	0.001	958839	TRIAL_START	n/a	n/a	n/a	n/a	-999	4	[0, 0, 0]	n/a	catFR1	0	R1275D
957.333	0.0	958840	TRIAL	n/a	n/a	n/a	n/a	-999	4	[0, 0, 0]	n/a	catFR1	0	R1275D
957.333	1.721	958840	WAITING_START	n/a	n/a	n/a	n/a	-999	4	[0, 0, 0]	n/a	catFR1	0	R1275D
959.054	0.0	960561	WAITING_END	n/a	n/a	n/a	n/a	-999	4	[0, 0, 0]	n/a	catFR1	0	R1275D
959.054	10.0	960561	COUNTDOWN_START	n/a	n/a	n/a	n/a	-999	4	[0, 0, 0]	n/a	catFR1	0	R1275D
969.483	0.001	970989	COUNTDOWN_END	n/a	n/a	n/a	n/a	-999	4	[0, 0, 0]	n/a	catFR1	0	R1275D
969.484	1.122	970990	ORIENT_START	n/a	n/a	n/a	n/a	-999	4	[0, 0, 0]	n/a	catFR1	0	R1275D
970.606	0.0	972112	ORIENT_END	n/a	n/a	n/a	n/a	-999	4	[0, 0, 0]	n/a	catFR1	0	R1275D
970.606	0.912	972112	ENCODING_START	n/a	n/a	n/a	n/a	-999	4	[0, 0, 0]	n/a	catFR1	0	R1275D
971.518	1.6	973024	WORD	n/a	wordpools/wordpool_categorized_EN.txt	DISHWASHER	Appliances	1	4	[0, 0, 0]	n/a	catFR1	0	R1275D
973.156	1.149	974662	WORD_OFF	n/a	n/a	DISHWASHER	Appliances	1	4	[0, 0, 0]	n/a	catFR1	0	R1275D
974.305	1.6	975811	WORD	n/a	wordpools/wordpool_categorized_EN.txt	FREEZER	Appliances	2	4	[0, 0, 0]	n/a	catFR1	0	R1275D
975.924	0.912	977430	WORD_OFF	n/a	n/a	FREEZER	Appliances	2	4	[0, 0, 0]	n/a	catFR1	0	R1275D
976.836	1.6	978342	WORD	n/a	wordpools/wordpool_categorized_EN.txt	TOE	BodyParts	3	4	[0, 0, 0]	n/a	catFR1	0	R1275D
978.456	1.084	979962	WORD_OFF	n/a	n/a	TOE	BodyParts	3	4	[0, 0, 0]	n/a	catFR1	0	R1275D
979.54	1.6	981046	WORD	n/a	wordpools/wordpool_categorized_EN.txt	FOOT	BodyParts	4	4	[0, 0, 0]	n/a	catFR1	0	R1275D
981.174	1.037	982679	WORD_OFF	n/a	n/a	FOOT	BodyParts	4	4	[0, 0, 0]	n/a	catFR1	0	R1275D
982.211	1.6	983716	WORD	n/a	wordpools/wordpool_categorized_EN.txt	LILAC	Flowers	5	4	[0, 0, 0]	n/a	catFR1	0	R1275D
983.825	1.119	985330	WORD_OFF	n/a	n/a	LILAC	Flowers	5	4	[0, 0, 0]	n/a	catFR1	0	R1275D
984.944	1.6	986449	WORD	n/a	wordpools/wordpool_categorized_EN.txt	ORCHID	Flowers	6	4	[0, 0, 0]	n/a	catFR1	0	R1275D
986.575	0.883	988080	WORD_OFF	n/a	n/a	ORCHID	Flowers	6	4	[0, 0, 0]	n/a	catFR1	0	R1275D
987.458	1.6	988963	WORD	n/a	wordpools/wordpool_categorized_EN.txt	MIXER	Appliances	7	4	[0, 0, 0]	n/a	catFR1	0	R1275D
989.093	1.074	990598	WORD_OFF	n/a	n/a	MIXER	Appliances	7	4	[0, 0, 0]	n/a	catFR1	0	R1275D
990.167	1.6	991672	WORD	n/a	wordpools/wordpool_categorized_EN.txt	TOASTER	Appliances	8	4	[0, 0, 0]	n/a	catFR1	0	R1275D
991.793	0.805	993298	WORD_OFF	n/a	n/a	TOASTER	Appliances	8	4	[0, 0, 0]	n/a	catFR1	0	R1275D
992.598	1.6	994103	WORD	n/a	wordpools/wordpool_categorized_EN.txt	ARM	BodyParts	9	4	[0, 0, 0]	n/a	catFR1	0	R1275D
994.226	0.893	995731	WORD_OFF	n/a	n/a	ARM	BodyParts	9	4	[0, 0, 0]	n/a	catFR1	0	R1275D
995.119	1.6	996624	WORD	n/a	wordpools/wordpool_categorized_EN.txt	FINGERS	BodyParts	10	4	[0, 0, 0]	n/a	catFR1	0	R1275D
996.744	0.927	998249	WORD_OFF	n/a	n/a	FINGERS	BodyParts	10	4	[0, 0, 0]	n/a	catFR1	0	R1275D
997.671	1.6	999176	WORD	n/a	wordpools/wordpool_categorized_EN.txt	PETUNIA	Flowers	11	4	[0, 0, 0]	n/a	catFR1	0	R1275D
999.293	1.017	1000797	WORD_OFF	n/a	n/a	PETUNIA	Flowers	11	4	[0, 0, 0]	n/a	catFR1	0	R1275D
1000.31	1.6	1001814	WORD	n/a	wordpools/wordpool_categorized_EN.txt	DAISY	Flowers	12	4	[0, 0, 0]	n/a	catFR1	0	R1275D
1001.945	0.0	1003449	WORD_OFF	n/a	n/a	DAISY	Flowers	12	4	[0, 0, 0]	n/a	catFR1	0	R1275D
1001.945	0.001	1003449	ENCODING_END	n/a	n/a	n/a	n/a	-999	4	[0, 0, 0]	n/a	catFR1	0	R1275D
1001.946	0.0	1003450	DISTRACT_START	n/a	n/a	n/a	n/a	-999	4	[0, 0, 0]	n/a	catFR1	0	R1275D
1001.946	0.015	1003450	START	n/a	n/a	n/a	n/a	-999	4	[-999, -999, -999]	n/a	catFR1	0	R1275D
1001.961	6.367	1003465	PROB	6.329	n/a	n/a	n/a	-999	4	[4, 4, 5]	13.0	catFR1	0	R1275D
1008.328	5.302	1009832	PROB	5.265	n/a	n/a	n/a	-999	4	[7, 5, 2]	16.0	catFR1	0	R1275D
1013.63	5.567	1015134	PROB	5.54	n/a	n/a	n/a	-999	4	[6, 5, 4]	15.0	catFR1	0	R1275D
1019.197	4.965	1020700	PROB	4.965	n/a	n/a	n/a	-999	4	[4, 5, 2]	13.0	catFR1	0	R1275D
1024.162	0.02	1025665	STOP	n/a	n/a	n/a	n/a	-999	4	[-999, -999, -999]	n/a	catFR1	0	R1275D
1024.182	0.675	1025685	DISTRACT_END	n/a	n/a	n/a	n/a	-999	4	[0, 0, 0]	n/a	catFR1	0	R1275D
1024.857	1.6	1026360	RETRIEVAL_ORIENT_START	n/a	n/a	n/a	n/a	-999	4	[0, 0, 0]	n/a	catFR1	0	R1275D
1026.432	0.0	1027935	RETRIEVAL_ORIENT_END	n/a	n/a	n/a	n/a	-999	4	[0, 0, 0]	n/a	catFR1	0	R1275D
1026.432	0.711	1027935	REC_START	n/a	n/a	n/a	n/a	-999	4	[0, 0, 0]	n/a	catFR1	0	R1275D
1027.143	1.846	1028646	REC_WORD	0.711	n/a	DISHWASHER	Appliances	1	4	[0, 0, 0]	n/a	catFR1	0	R1275D
1028.989	3.32	1030492	REC_WORD	2.557	n/a	WASHER	Appliances	-999	4	[0, 0, 0]	n/a	catFR1	0	R1275D
1032.309	1.269	1033812	REC_WORD	5.877	n/a	ORCHID	Flowers	6	4	[0, 0, 0]	n/a	catFR1	0	R1275D
1033.578	1.028	1035081	REC_WORD	7.146	n/a	LILAC	Flowers	5	4	[0, 0, 0]	n/a	catFR1	0	R1275D
1034.606	11.525	1036109	REC_WORD	8.174	n/a	PETUNIA	Flowers	11	4	[0, 0, 0]	n/a	catFR1	0	R1275D
1046.131	2.067	1047633	REC_WORD_VV	19.699	n/a	<>	n/a	-999	4	[0, 0, 0]	n/a	catFR1	0	R1275D
1048.198	2.777	1049700	REC_WORD_VV	21.766	n/a	<>	n/a	-999	4	[0, 0, 0]	n/a	catFR1	0	R1275D
1050.975	5.47	1052477	REC_WORD	24.543	n/a	STOVE	Appliances	-999	4	[0, 0, 0]	n/a	catFR1	0	R1275D
1056.445	0.001	1057946	REC_END	n/a	n/a	n/a	n/a	-999	4	[0, 0, 0]	n/a	catFR1	0	R1275D
1056.446	0.021	1057947	TRIAL_END	n/a	n/a	n/a	n/a	-999	4	[0, 0, 0]	n/a	catFR1	0	R1275D
1056.467	0.0	1057968	TRIAL_START	n/a	n/a	n/a	n/a	-999	5	[0, 0, 0]	n/a	catFR1	0	R1275D
1056.467	0.0	1057968	TRIAL	n/a	n/a	n/a	n/a	-999	5	[0, 0, 0]	n/a	catFR1	0	R1275D
1056.467	1.688	1057968	WAITING_START	n/a	n/a	n/a	n/a	-999	5	[0, 0, 0]	n/a	catFR1	0	R1275D
1058.155	0.001	1059656	WAITING_END	n/a	n/a	n/a	n/a	-999	5	[0, 0, 0]	n/a	catFR1	0	R1275D
1058.156	10.0	1059657	COUNTDOWN_START	n/a	n/a	n/a	n/a	-999	5	[0, 0, 0]	n/a	catFR1	0	R1275D
1068.585	0.0	1070086	COUNTDOWN_END	n/a	n/a	n/a	n/a	-999	5	[0, 0, 0]	n/a	catFR1	0	R1275D
1068.585	1.022	1070086	ORIENT_START	n/a	n/a	n/a	n/a	-999	5	[0, 0, 0]	n/a	catFR1	0	R1275D
1069.607	0.001	1071108	ORIENT_END	n/a	n/a	n/a	n/a	-999	5	[0, 0, 0]	n/a	catFR1	0	R1275D
1069.608	0.923	1071109	ENCODING_START	n/a	n/a	n/a	n/a	-999	5	[0, 0, 0]	n/a	catFR1	0	R1275D
1070.531	1.6	1072032	WORD	n/a	wordpools/wordpool_categorized_EN.txt	PIGEON	Birds	1	5	[0, 0, 0]	n/a	catFR1	0	R1275D
1072.158	0.759	1073659	WORD_OFF	n/a	n/a	PIGEON	Birds	1	5	[0, 0, 0]	n/a	catFR1	0	R1275D
1072.917	1.6	1074418	WORD	n/a	wordpools/wordpool_categorized_EN.txt	DOVE	Birds	2	5	[0, 0, 0]	n/a	catFR1	0	R1275D
1074.542	0.898	1076043	WORD_OFF	n/a	n/a	DOVE	Birds	2	5	[0, 0, 0]	n/a	catFR1	0	R1275D
1075.44	1.6	1076941	WORD	n/a	wordpools/wordpool_categorized_EN.txt	TABLE	Furniture	3	5	[0, 0, 0]	n/a	catFR1	0	R1275D
1077.075	1.096	1078575	WORD_OFF	n/a	n/a	TABLE	Furniture	3	5	[0, 0, 0]	n/a	catFR1	0	R1275D
1078.171	1.6	1079671	WORD	n/a	wordpools/wordpool_categorized_EN.txt	SHELF	Furniture	4	5	[0, 0, 0]	n/a	catFR1	0	R1275D
1079.809	0.943	1081309	WORD_OFF	n/a	n/a	SHELF	Furniture	4	5	[0, 0, 0]	n/a	catFR1	0	R1275D
1080.752	1.6	1082252	WORD	n/a	wordpools/wordpool_categorized_EN.txt	MOTORCYCLE	Vehicles	5	5	[0, 0, 0]	n/a	catFR1	0	R1275D
1082.375	1.098	1083875	WORD_OFF	n/a	n/a	MOTORCYCLE	Vehicles	5	5	[0, 0, 0]	n/a	catFR1	0	R1275D
1083.473	1.6	1084973	WORD	n/a	wordpools/wordpool_categorized_EN.txt	BOAT	Vehicles	6	5	[0, 0, 0]	n/a	catFR1	0	R1275D
1085.11	0.811	1086610	WORD_OFF	n/a	n/a	BOAT	Vehicles	6	5	[0, 0, 0]	n/a	catFR1	0	R1275D
1085.921	1.6	1087421	WORD	n/a	wordpools/wordpool_categorized_EN.txt	CARDINAL	Birds	7	5	[0, 0, 0]	n/a	catFR1	0	R1275D
1087.544	0.8	1089044	WORD_OFF	n/a	n/a	CARDINAL	Birds	7	5	[0, 0, 0]	n/a	catFR1	0	R1275D
1088.344	1.6	1089844	WORD	n/a	wordpools/wordpool_categorized_EN.txt	FINCH	Birds	8	5	[0, 0, 0]	n/a	catFR1	0	R1275D
1089.978	1.088	1091478	WORD_OFF	n/a	n/a	FINCH	Birds	8	5	[0, 0, 0]	n/a	catFR1	0	R1275D
1091.066	1.6	1092566	WORD	n/a	wordpools/wordpool_categorized_EN.txt	TRUCK	Vehicles	9	5	[0, 0, 0]	n/a	catFR1	0	R1275D
1092.678	1.042	1094178	WORD_OFF	n/a	n/a	TRUCK	Vehicles	9	5	[0, 0, 0]	n/a	catFR1	0	R1275D
1093.72	1.6	1095220	WORD	n/a	wordpools/wordpool_categorized_EN.txt	BUS	Vehicles	10	5	[0, 0, 0]	n/a	catFR1	0	R1275D
1095.344	1.122	1096843	WORD_OFF	n/a	n/a	BUS	Vehicles	10	5	[0, 0, 0]	n/a	catFR1	0	R1275D
1096.466	1.6	1097965	WORD	n/a	wordpools/wordpool_categorized_EN.txt	DESK	Furniture	11	5	[0, 0, 0]	n/a	catFR1	0	R1275D
1098.096	0.85	1099595	WORD_OFF	n/a	n/a	DESK	Furniture	11	5	[0, 0, 0]	n/a	catFR1	0	R1275D
1098.946	1.6	1100445	WORD	n/a	wordpools/wordpool_categorized_EN.txt	BED	Furniture	12	5	[0, 0, 0]	n/a	catFR1	0	R1275D
1100.58	0.0	1102079	WORD_OFF	n/a	n/a	BED	Furniture	12	5	[0, 0, 0]	n/a	catFR1	0	R1275D
1100.58	0.001	1102079	ENCODING_END	n/a	n/a	n/a	n/a	-999	5	[0, 0, 0]	n/a	catFR1	0	R1275D
1100.581	0.0	1102080	DISTRACT_START	n/a	n/a	n/a	n/a	-999	5	[0, 0, 0]	n/a	catFR1	0	R1275D
1100.581	0.015	1102080	START	n/a	n/a	n/a	n/a	-999	5	[-999, -999, -999]	n/a	catFR1	0	R1275D
1100.596	7.985	1102095	PROB	7.961	n/a	n/a	n/a	-999	5	[4, 8, 6]	18.0	catFR1	0	R1275D
1108.581	4.984	1110080	PROB	4.96	n/a	n/a	n/a	-999	5	[2, 8, 1]	11.0	catFR1	0	R1275D
1113.565	5.351	1115064	PROB	5.319	n/a	n/a	n/a	-999	5	[8, 3, 2]	13.0	catFR1	0	R1275D
1118.916	5.036	1120414	PROB	5.036	n/a	n/a	n/a	-999	5	[9, 3, 9]	21.0	catFR1	0	R1275D
1123.952	0.015	1125450	STOP	n/a	n/a	n/a	n/a	-999	5	[-999, -999, -999]	n/a	catFR1	0	R1275D
1123.967	0.629	1125465	DISTRACT_END	n/a	n/a	n/a	n/a	-999	5	[0, 0, 0]	n/a	catFR1	0	R1275D
1124.596	1.6	1126094	RETRIEVAL_ORIENT_START	n/a	n/a	n/a	n/a	-999	5	[0, 0, 0]	n/a	catFR1	0	R1275D
1126.283	0.001	1127781	RETRIEVAL_ORIENT_END	n/a	n/a	n/a	n/a	-999	5	[0, 0, 0]	n/a	catFR1	0	R1275D
1126.284	1.537	1127782	REC_START	n/a	n/a	n/a	n/a	-999	5	[0, 0, 0]	n/a	catFR1	0	R1275D
1127.821	5.301	1129319	REC_WORD	1.537	n/a	DESK	Furniture	11	5	[0, 0, 0]	n/a	catFR1	0	R1275D
1133.122	3.691	1134619	REC_WORD_VV	6.838	n/a	<>	n/a	-999	5	[0, 0, 0]	n/a	catFR1	0	R1275D
1136.813	11.07	1138310	REC_WORD	10.529	n/a	DESK	Furniture	11	5	[0, 0, 0]	n/a	catFR1	0	R1275D
1147.883	1.549	1149380	REC_WORD_VV	21.599	n/a	<>	n/a	-999	5	[0, 0, 0]	n/a	catFR1	0	R1275D
1149.432	6.866	1150929	REC_WORD	23.148	n/a	BED	Furniture	12	5	[0, 0, 0]	n/a	catFR1	0	R1275D
1156.298	0.0	1157794	REC_END	n/a	n/a	n/a	n/a	-999	5	[0, 0, 0]	n/a	catFR1	0	R1275D
1156.298	0.022	1157794	TRIAL_END	n/a	n/a	n/a	n/a	-999	5	[0, 0, 0]	n/a	catFR1	0	R1275D
1156.32	0.0	1157816	TRIAL_START	n/a	n/a	n/a	n/a	-999	6	[0, 0, 0]	n/a	catFR1	0	R1275D
1156.32	0.001	1157816	TRIAL	n/a	n/a	n/a	n/a	-999	6	[0, 0, 0]	n/a	catFR1	0	R1275D
1156.321	2.118	1157817	WAITING_START	n/a	n/a	n/a	n/a	-999	6	[0, 0, 0]	n/a	catFR1	0	R1275D
1158.439	0.001	1159935	WAITING_END	n/a	n/a	n/a	n/a	-999	6	[0, 0, 0]	n/a	catFR1	0	R1275D
1158.44	10.0	1159936	COUNTDOWN_START	n/a	n/a	n/a	n/a	-999	6	[0, 0, 0]	n/a	catFR1	0	R1275D
1168.869	0.0	1170365	COUNTDOWN_END	n/a	n/a	n/a	n/a	-999	6	[0, 0, 0]	n/a	catFR1	0	R1275D
1168.869	1.073	1170365	ORIENT_START	n/a	n/a	n/a	n/a	-999	6	[0, 0, 0]	n/a	catFR1	0	R1275D
1169.942	0.001	1171438	ORIENT_END	n/a	n/a	n/a	n/a	-999	6	[0, 0, 0]	n/a	catFR1	0	R1275D
1169.943	1.048	1171439	ENCODING_START	n/a	n/a	n/a	n/a	-999	6	[0, 0, 0]	n/a	catFR1	0	R1275D
1170.991	1.6	1172487	WORD	n/a	wordpools/wordpool_categorized_EN.txt	DUCK	Birds	1	6	[0, 0, 0]	n/a	catFR1	0	R1275D
1172.626	0.871	1174121	WORD_OFF	n/a	n/a	DUCK	Birds	1	6	[0, 0, 0]	n/a	catFR1	0	R1275D
1173.497	1.6	1174992	WORD	n/a	wordpools/wordpool_categorized_EN.txt	SPARROW	Birds	2	6	[0, 0, 0]	n/a	catFR1	0	R1275D
1175.127	0.959	1176622	WORD_OFF	n/a	n/a	SPARROW	Birds	2	6	[0, 0, 0]	n/a	catFR1	0	R1275D
1176.086	1.6	1177581	WORD	n/a	wordpools/wordpool_categorized_EN.txt	ATTIC	Building	3	6	[0, 0, 0]	n/a	catFR1	0	R1275D
1177.71	1.04	1179205	WORD_OFF	n/a	n/a	ATTIC	Building	3	6	[0, 0, 0]	n/a	catFR1	0	R1275D
1178.75	1.6	1180245	WORD	n/a	wordpools/wordpool_categorized_EN.txt	FOUNDATION	Building	4	6	[0, 0, 0]	n/a	catFR1	0	R1275D
1180.376	0.955	1181871	WORD_OFF	n/a	n/a	FOUNDATION	Building	4	6	[0, 0, 0]	n/a	catFR1	0	R1275D
1181.331	1.6	1182826	WORD	n/a	wordpools/wordpool_categorized_EN.txt	CHEETAH	Zoo	5	6	[0, 0, 0]	n/a	catFR1	0	R1275D
1182.945	0.966	1184440	WORD_OFF	n/a	n/a	CHEETAH	Zoo	5	6	[0, 0, 0]	n/a	catFR1	0	R1275D
1183.911	1.6	1185406	WORD	n/a	wordpools/wordpool_categorized_EN.txt	GIRAFFE	Zoo	6	6	[0, 0, 0]	n/a	catFR1	0	R1275D
1185.545	0.761	1187040	WORD_OFF	n/a	n/a	GIRAFFE	Zoo	6	6	[0, 0, 0]	n/a	catFR1	0	R1275D
1186.306	1.6	1187801	WORD	n/a	wordpools/wordpool_categorized_EN.txt	BATHROOM	Building	7	6	[0, 0, 0]	n/a	catFR1	0	R1275D
1187.946	0.998	1189441	WORD_OFF	n/a	n/a	BATHROOM	Building	7	6	[0, 0, 0]	n/a	catFR1	0	R1275D
1188.944	1.6	1190439	WORD	n/a	wordpools/wordpool_categorized_EN.txt	ROOM	Building	8	6	[0, 0, 0]	n/a	catFR1	0	R1275D
1190.579	0.761	1192073	WORD_OFF	n/a	n/a	ROOM	Building	8	6	[0, 0, 0]	n/a	catFR1	0	R1275D
1191.34	1.6	1192834	WORD	n/a	wordpools/wordpool_categorized_EN.txt	ZEBRA	Zoo	9	6	[0, 0, 0]	n/a	catFR1	0	R1275D
1192.963	0.9	1194457	WORD_OFF	n/a	n/a	ZEBRA	Zoo	9	6	[0, 0, 0]	n/a	catFR1	0	R1275D
1193.863	1.6	1195357	WORD	n/a	wordpools/wordpool_categorized_EN.txt	LION	Zoo	10	6	[0, 0, 0]	n/a	catFR1	0	R1275D
1195.496	1.061	1196990	WORD_OFF	n/a	n/a	LION	Zoo	10	6	[0, 0, 0]	n/a	catFR1	0	R1275D
1196.557	1.6	1198051	WORD	n/a	wordpools/wordpool_categorized_EN.txt	BLUEBIRD	Birds	11	6	[0, 0, 0]	n/a	catFR1	0	R1275D
1198.181	0.89	1199675	WORD_OFF	n/a	n/a	BLUEBIRD	Birds	11	6	[0, 0, 0]	n/a	catFR1	0	R1275D
1199.071	1.6	1200565	WORD	n/a	wordpools/wordpool_categorized_EN.txt	SEAGULL	Birds	12	6	[0, 0, 0]	n/a	catFR1	0	R1275D
1200.698	0.0	1202192	WORD_OFF	n/a	n/a	SEAGULL	Birds	12	6	[0, 0, 0]	n/a	catFR1	0	R1275D
1200.698	0.0	1202192	ENCODING_END	n/a	n/a	n/a	n/a	-999	6	[0, 0, 0]	n/a	catFR1	0	R1275D
1200.698	0.001	1202192	DISTRACT_START	n/a	n/a	n/a	n/a	-999	6	[0, 0, 0]	n/a	catFR1	0	R1275D
1200.699	0.015	1202193	START	n/a	n/a	n/a	n/a	-999	6	[-999, -999, -999]	n/a	catFR1	0	R1275D
1200.714	4.968	1202208	PROB	4.939	n/a	n/a	n/a	-999	6	[9, 3, 8]	21.0	catFR1	0	R1275D
1205.682	8.035	1207176	PROB	8.001	n/a	n/a	n/a	-999	6	[6, 3, 9]	18.0	catFR1	0	R1275D
1213.717	3.616	1215210	PROB	3.589	n/a	n/a	n/a	-999	6	[5, 5, 4]	14.0	catFR1	0	R1275D
1217.333	4.181	1218826	PROB	4.181	n/a	n/a	n/a	-999	6	[3, 4, 6]	11.0	catFR1	0	R1275D
1221.514	0.021	1223007	STOP	n/a	n/a	n/a	n/a	-999	6	[-999, -999, -999]	n/a	catFR1	0	R1275D
1221.535	0.507	1223028	DISTRACT_END	n/a	n/a	n/a	n/a	-999	6	[0, 0, 0]	n/a	catFR1	0	R1275D
1222.042	1.6	1223535	RETRIEVAL_ORIENT_START	n/a	n/a	n/a	n/a	-999	6	[0, 0, 0]	n/a	catFR1	0	R1275D
1223.669	0.0	1225162	RETRIEVAL_ORIENT_END	n/a	n/a	n/a	n/a	-999	6	[0, 0, 0]	n/a	catFR1	0	R1275D
1223.669	1.484	1225162	REC_START	n/a	n/a	n/a	n/a	-999	6	[0, 0, 0]	n/a	catFR1	0	R1275D
1225.153	2.808	1226646	REC_WORD	1.484	n/a	BLUEBIRD	Birds	11	6	[0, 0, 0]	n/a	catFR1	0	R1275D
1227.961	0.91	1229454	REC_WORD	4.292	n/a	ZEBRA	Zoo	9	6	[0, 0, 0]	n/a	catFR1	0	R1275D
1228.871	7.095	1230363	REC_WORD	5.202	n/a	LION	Zoo	10	6	[0, 0, 0]	n/a	catFR1	0	R1275D
1235.966	1.515	1237458	REC_WORD_VV	12.297	n/a	<>	n/a	-999	6	[0, 0, 0]	n/a	catFR1	0	R1275D
1237.481	4.948	1238973	REC_WORD_VV	13.812	n/a	<>	n/a	-999	6	[0, 0, 0]	n/a	catFR1	0	R1275D
1242.429	11.252	1243921	REC_WORD_VV	18.76	n/a	<>	n/a	-999	6	[0, 0, 0]	n/a	catFR1	0	R1275D
1253.681	0.001	1255172	REC_END	n/a	n/a	n/a	n/a	-999	6	[0, 0, 0]	n/a	catFR1	0	R1275D
1253.682	0.021	1255173	TRIAL_END	n/a	n/a	n/a	n/a	-999	6	[0, 0, 0]	n/a	catFR1	0	R1275D
1253.703	0.001	1255194	TRIAL_START	n/a	n/a	n/a	n/a	-999	7	[0, 0, 0]	n/a	catFR1	0	R1275D
1253.704	0.0	1255195	TRIAL	n/a	n/a	n/a	n/a	-999	7	[0, 0, 0]	n/a	catFR1	0	R1275D
1253.704	1.553	1255195	WAITING_START	n/a	n/a	n/a	n/a	-999	7	[0, 0, 0]	n/a	catFR1	0	R1275D
1255.257	0.0	1256748	WAITING_END	n/a	n/a	n/a	n/a	-999	7	[0, 0, 0]	n/a	catFR1	0	R1275D
1255.257	10.0	1256748	COUNTDOWN_START	n/a	n/a	n/a	n/a	-999	7	[0, 0, 0]	n/a	catFR1	0	R1275D
1265.686	0.0	1267177	COUNTDOWN_END	n/a	n/a	n/a	n/a	-999	7	[0, 0, 0]	n/a	catFR1	0	R1275D
1265.686	1.274	1267177	ORIENT_START	n/a	n/a	n/a	n/a	-999	7	[0, 0, 0]	n/a	catFR1	0	R1275D
1266.96	0.0	1268450	ORIENT_END	n/a	n/a	n/a	n/a	-999	7	[0, 0, 0]	n/a	catFR1	0	R1275D
1266.96	1.033	1268450	ENCODING_START	n/a	n/a	n/a	n/a	-999	7	[0, 0, 0]	n/a	catFR1	0	R1275D
1267.993	1.6	1269483	WORD	n/a	wordpools/wordpool_categorized_EN.txt	GRAPE	Fruit	1	7	[0, 0, 0]	n/a	catFR1	0	R1275D
1269.627	1.027	1271117	WORD_OFF	n/a	n/a	GRAPE	Fruit	1	7	[0, 0, 0]	n/a	catFR1	0	R1275D
1270.654	1.6	1272144	WORD	n/a	wordpools/wordpool_categorized_EN.txt	ORANGE	Fruit	2	7	[0, 0, 0]	n/a	catFR1	0	R1275D
1272.277	0.852	1273767	WORD_OFF	n/a	n/a	ORANGE	Fruit	2	7	[0, 0, 0]	n/a	catFR1	0	R1275D
1273.129	1.6	1274619	WORD	n/a	wordpools/wordpool_categorized_EN.txt	TROMBONE	Instruments	3	7	[0, 0, 0]	n/a	catFR1	0	R1275D
1274.761	1.079	1276251	WORD_OFF	n/a	n/a	TROMBONE	Instruments	3	7	[0, 0, 0]	n/a	catFR1	0	R1275D
1275.84	1.6	1277330	WORD	n/a	wordpools/wordpool_categorized_EN.txt	PIANO	Instruments	4	7	[0, 0, 0]	n/a	catFR1	0	R1275D
1277.478	1.02	1278968	WORD_OFF	n/a	n/a	PIANO	Instruments	4	7	[0, 0, 0]	n/a	catFR1	0	R1275D
1278.498	1.6	1279988	WORD	n/a	wordpools/wordpool_categorized_EN.txt	MARBLES	Toys	5	7	[0, 0, 0]	n/a	catFR1	0	R1275D
1280.112	0.925	1281602	WORD_OFF	n/a	n/a	MARBLES	Toys	5	7	[0, 0, 0]	n/a	catFR1	0	R1275D
1281.037	1.6	1282527	WORD	n/a	wordpools/wordpool_categorized_EN.txt	BASEBALL	Toys	6	7	[0, 0, 0]	n/a	catFR1	0	R1275D
1282.663	0.884	1284153	WORD_OFF	n/a	n/a	BASEBALL	Toys	6	7	[0, 0, 0]	n/a	catFR1	0	R1275D
1283.547	1.6	1285037	WORD	n/a	wordpools/wordpool_categorized_EN.txt	CHERRY	Fruit	7	7	[0, 0, 0]	n/a	catFR1	0	R1275D
1285.18	0.999	1286670	WORD_OFF	n/a	n/a	CHERRY	Fruit	7	7	[0, 0, 0]	n/a	catFR1	0	R1275D
1286.179	1.6	1287668	WORD	n/a	wordpools/wordpool_categorized_EN.txt	LEMON	Fruit	8	7	[0, 0, 0]	n/a	catFR1	0	R1275D
1287.814	0.799	1289303	WORD_OFF	n/a	n/a	LEMON	Fruit	8	7	[0, 0, 0]	n/a	catFR1	0	R1275D
1288.613	1.6	1290102	WORD	n/a	wordpools/wordpool_categorized_EN.txt	TUBA	Instruments	9	7	[0, 0, 0]	n/a	catFR1	0	R1275D
1290.247	1.101	1291736	WORD_OFF	n/a	n/a	TUBA	Instruments	9	7	[0, 0, 0]	n/a	catFR1	0	R1275D
1291.348	1.6	1292837	WORD	n/a	wordpools/wordpool_categorized_EN.txt	CELLO	Instruments	10	7	[0, 0, 0]	n/a	catFR1	0	R1275D
1292.981	1.12	1294470	WORD_OFF	n/a	n/a	CELLO	Instruments	10	7	[0, 0, 0]	n/a	catFR1	0	R1275D
1294.101	1.6	1295590	WORD	n/a	wordpools/wordpool_categorized_EN.txt	FRISBEE	Toys	11	7	[0, 0, 0]	n/a	catFR1	0	R1275D
1295.732	1.131	1297221	WORD_OFF	n/a	n/a	FRISBEE	Toys	11	7	[0, 0, 0]	n/a	catFR1	0	R1275D
1296.863	1.6	1298352	WORD	n/a	wordpools/wordpool_categorized_EN.txt	DOLL	Toys	12	7	[0, 0, 0]	n/a	catFR1	0	R1275D
1298.498	0.001	1299987	WORD_OFF	n/a	n/a	DOLL	Toys	12	7	[0, 0, 0]	n/a	catFR1	0	R1275D
1298.499	0.0	1299988	ENCODING_END	n/a	n/a	n/a	n/a	-999	7	[0, 0, 0]	n/a	catFR1	0	R1275D
1298.499	0.0	1299988	DISTRACT_START	n/a	n/a	n/a	n/a	-999	7	[0, 0, 0]	n/a	catFR1	0	R1275D
1298.499	0.016	1299988	START	n/a	n/a	n/a	n/a	-999	7	[-999, -999, -999]	n/a	catFR1	0	R1275D
1298.515	4.218	1300004	PROB	4.183	n/a	n/a	n/a	-999	7	[5, 4, 8]	17.0	catFR1	0	R1275D
1302.733	3.75	1304222	PROB	3.716	n/a	n/a	n/a	-999	7	[4, 4, 6]	14.0	catFR1	0	R1275D
1306.483	5.884	1307971	PROB	5.847	n/a	n/a	n/a	-999	7	[4, 2, 9]	16.0	catFR1	0	R1275D
1312.367	6.878	1313855	PROB	6.878	n/a	n/a	n/a	-999	7	[6, 5, 2]	13.0	catFR1	0	R1275D
1319.245	0.007	1320733	STOP	n/a	n/a	n/a	n/a	-999	7	[-999, -999, -999]	n/a	catFR1	0	R1275D
1319.252	0.614	1320740	DISTRACT_END	n/a	n/a	n/a	n/a	-999	7	[0, 0, 0]	n/a	catFR1	0	R1275D
1319.866	1.6	1321354	RETRIEVAL_ORIENT_START	n/a	n/a	n/a	n/a	-999	7	[0, 0, 0]	n/a	catFR1	0	R1275D
1321.519	0.0	1323007	RETRIEVAL_ORIENT_END	n/a	n/a	n/a	n/a	-999	7	[0, 0, 0]	n/a	catFR1	0	R1275D
1321.519	0.462	1323007	REC_START	n/a	n/a	n/a	n/a	-999	7	[0, 0, 0]	n/a	catFR1	0	R1275D
1321.981	1.251	1323469	REC_WORD	0.462	n/a	TROMBONE	Instruments	3	7	[0, 0, 0]	n/a	catFR1	0	R1275D
1323.232	5.188	1324720	REC_WORD	1.713	n/a	CELLO	Instruments	10	7	[0, 0, 0]	n/a	catFR1	0	R1275D
1328.42	10.689	1329907	REC_WORD_VV	6.901	n/a	<>	n/a	-999	7	[0, 0, 0]	n/a	catFR1	0	R1275D
1339.109	1.595	1340596	REC_WORD_VV	17.59	n/a	<>	n/a	-999	7	[0, 0, 0]	n/a	catFR1	0	R1275D
1340.704	3.172	1342191	REC_WORD_VV	19.185	n/a	<>	n/a	-999	7	[0, 0, 0]	n/a	catFR1	0	R1275D
1343.876	7.656	1345362	REC_WORD_VV	22.357	n/a	<>	n/a	-999	7	[0, 0, 0]	n/a	catFR1	0	R1275D
1351.532	0.001	1353018	REC_END	n/a	n/a	n/a	n/a	-999	7	[0, 0, 0]	n/a	catFR1	0	R1275D
1351.533	0.021	1353019	TRIAL_END	n/a	n/a	n/a	n/a	-999	7	[0, 0, 0]	n/a	catFR1	0	R1275D
1351.554	0.0	1353040	TRIAL_START	n/a	n/a	n/a	n/a	-999	8	[0, 0, 0]	n/a	catFR1	0	R1275D
1351.554	0.001	1353040	TRIAL	n/a	n/a	n/a	n/a	-999	8	[0, 0, 0]	n/a	catFR1	0	R1275D
1351.555	1.554	1353041	WAITING_START	n/a	n/a	n/a	n/a	-999	8	[0, 0, 0]	n/a	catFR1	0	R1275D
1353.109	0.0	1354595	WAITING_END	n/a	n/a	n/a	n/a	-999	8	[0, 0, 0]	n/a	catFR1	0	R1275D
1353.109	10.0	1354595	COUNTDOWN_START	n/a	n/a	n/a	n/a	-999	8	[0, 0, 0]	n/a	catFR1	0	R1275D
1363.539	0.0	1365024	COUNTDOWN_END	n/a	n/a	n/a	n/a	-999	8	[0, 0, 0]	n/a	catFR1	0	R1275D
1363.539	1.039	1365024	ORIENT_START	n/a	n/a	n/a	n/a	-999	8	[0, 0, 0]	n/a	catFR1	0	R1275D
1364.578	0.0	1366063	ORIENT_END	n/a	n/a	n/a	n/a	-999	8	[0, 0, 0]	n/a	catFR1	0	R1275D
1364.578	0.771	1366063	ENCODING_START	n/a	n/a	n/a	n/a	-999	8	[0, 0, 0]	n/a	catFR1	0	R1275D
1365.349	1.6	1366834	WORD	n/a	wordpools/wordpool_categorized_EN.txt	HAWK	Birds	1	8	[0, 0, 0]	n/a	catFR1	0	R1275D
1366.962	0.875	1368447	WORD_OFF	n/a	n/a	HAWK	Birds	1	8	[0, 0, 0]	n/a	catFR1	0	R1275D
1367.837	1.6	1369322	WORD	n/a	wordpools/wordpool_categorized_EN.txt	GOOSE	Birds	2	8	[0, 0, 0]	n/a	catFR1	0	R1275D
1369.461	1.086	1370946	WORD_OFF	n/a	n/a	GOOSE	Birds	2	8	[0, 0, 0]	n/a	catFR1	0	R1275D
1370.547	1.6	1372032	WORD	n/a	wordpools/wordpool_categorized_EN.txt	SCANNER	Electronics	3	8	[0, 0, 0]	n/a	catFR1	0	R1275D
1372.179	0.884	1373664	WORD_OFF	n/a	n/a	SCANNER	Electronics	3	8	[0, 0, 0]	n/a	catFR1	0	R1275D
1373.063	1.6	1374548	WORD	n/a	wordpools/wordpool_categorized_EN.txt	PRINTER	Electronics	4	8	[0, 0, 0]	n/a	catFR1	0	R1275D
1374.696	0.933	1376181	WORD_OFF	n/a	n/a	PRINTER	Electronics	4	8	[0, 0, 0]	n/a	catFR1	0	R1275D
1375.629	1.6	1377114	WORD	n/a	wordpools/wordpool_categorized_EN.txt	SOFA	Furniture	5	8	[0, 0, 0]	n/a	catFR1	0	R1275D
1377.262	0.97	1378747	WORD_OFF	n/a	n/a	SOFA	Furniture	5	8	[0, 0, 0]	n/a	catFR1	0	R1275D
1378.232	1.6	1379717	WORD	n/a	wordpools/wordpool_categorized_EN.txt	RECLINER	Furniture	6	8	[0, 0, 0]	n/a	catFR1	0	R1275D
1379.864	1.079	1381349	WORD_OFF	n/a	n/a	RECLINER	Furniture	6	8	[0, 0, 0]	n/a	catFR1	0	R1275D
1380.943	1.6	1382428	WORD	n/a	wordpools/wordpool_categorized_EN.txt	STEREO	Electronics	7	8	[0, 0, 0]	n/a	catFR1	0	R1275D
1382.581	0.979	1384065	WORD_OFF	n/a	n/a	STEREO	Electronics	7	8	[0, 0, 0]	n/a	catFR1	0	R1275D
1383.56	1.6	1385044	WORD	n/a	wordpools/wordpool_categorized_EN.txt	CALCULATOR	Electronics	8	8	[0, 0, 0]	n/a	catFR1	0	R1275D
1385.197	1.048	1386681	WORD_OFF	n/a	n/a	CALCULATOR	Electronics	8	8	[0, 0, 0]	n/a	catFR1	0	R1275D
1386.245	1.6	1387729	WORD	n/a	wordpools/wordpool_categorized_EN.txt	BOOKCASE	Furniture	9	8	[0, 0, 0]	n/a	catFR1	0	R1275D
1387.882	0.757	1389366	WORD_OFF	n/a	n/a	BOOKCASE	Furniture	9	8	[0, 0, 0]	n/a	catFR1	0	R1275D
1388.639	1.6	1390123	WORD	n/a	wordpools/wordpool_categorized_EN.txt	DRESSER	Furniture	10	8	[0, 0, 0]	n/a	catFR1	0	R1275D
1390.265	1.062	1391749	WORD_OFF	n/a	n/a	DRESSER	Furniture	10	8	[0, 0, 0]	n/a	catFR1	0	R1275D
1391.327	1.6	1392811	WORD	n/a	wordpools/wordpool_categorized_EN.txt	CROW	Birds	11	8	[0, 0, 0]	n/a	catFR1	0	R1275D
1392.95	0.977	1394434	WORD_OFF	n/a	n/a	CROW	Birds	11	8	[0, 0, 0]	n/a	catFR1	0	R1275D
1393.927	1.6	1395411	WORD	n/a	wordpools/wordpool_categorized_EN.txt	ROBIN	Birds	12	8	[0, 0, 0]	n/a	catFR1	0	R1275D
1395.55	0.0	1397034	WORD_OFF	n/a	n/a	ROBIN	Birds	12	8	[0, 0, 0]	n/a	catFR1	0	R1275D
1395.55	0.001	1397034	ENCODING_END	n/a	n/a	n/a	n/a	-999	8	[0, 0, 0]	n/a	catFR1	0	R1275D
1395.551	0.0	1397035	DISTRACT_START	n/a	n/a	n/a	n/a	-999	8	[0, 0, 0]	n/a	catFR1	0	R1275D
1395.551	0.016	1397035	START	n/a	n/a	n/a	n/a	-999	8	[-999, -999, -999]	n/a	catFR1	0	R1275D
1395.567	8.434	1397051	PROB	8.399	n/a	n/a	n/a	-999	8	[6, 7, 8]	21.0	catFR1	0	R1275D
1404.001	4.517	1405484	PROB	4.488	n/a	n/a	n/a	-999	8	[4, 3, 4]	11.0	catFR1	0	R1275D
1408.518	4.285	1410001	PROB	4.246	n/a	n/a	n/a	-999	8	[2, 2, 5]	9.0	catFR1	0	R1275D
1412.803	4.225	1414286	PROB	4.225	n/a	n/a	n/a	-999	8	[8, 4, 1]	13.0	catFR1	0	R1275D
1417.028	0.009	1418511	STOP	n/a	n/a	n/a	n/a	-999	8	[-999, -999, -999]	n/a	catFR1	0	R1275D
1417.037	0.626	1418520	DISTRACT_END	n/a	n/a	n/a	n/a	-999	8	[0, 0, 0]	n/a	catFR1	0	R1275D
1417.663	1.6	1419146	RETRIEVAL_ORIENT_START	n/a	n/a	n/a	n/a	-999	8	[0, 0, 0]	n/a	catFR1	0	R1275D
1419.37	0.0	1420853	RETRIEVAL_ORIENT_END	n/a	n/a	n/a	n/a	-999	8	[0, 0, 0]	n/a	catFR1	0	R1275D
1419.37	0.326	1420853	REC_START	n/a	n/a	n/a	n/a	-999	8	[0, 0, 0]	n/a	catFR1	0	R1275D
1419.696	0.83	1421178	REC_WORD	0.326	n/a	HAWK	Birds	1	8	[0, 0, 0]	n/a	catFR1	0	R1275D
1420.526	5.964	1422008	REC_WORD	1.156	n/a	GOOSE	Birds	2	8	[0, 0, 0]	n/a	catFR1	0	R1275D
1426.49	1.0	1427972	REC_WORD_VV	7.12	n/a	<>	n/a	-999	8	[0, 0, 0]	n/a	catFR1	0	R1275D
1427.49	1.0	1428972	REC_WORD_VV	8.12	n/a	<>	n/a	-999	8	[0, 0, 0]	n/a	catFR1	0	R1275D
1428.49	10.873	1429972	REC_WORD_VV	9.12	n/a	<>	n/a	-999	8	[0, 0, 0]	n/a	catFR1	0	R1275D
1439.363	1.045	1440844	REC_WORD_VV	19.993	n/a	<>	n/a	-999	8	[0, 0, 0]	n/a	catFR1	0	R1275D
1440.408	8.976	1441889	REC_WORD	21.038	n/a	BOOKCASE	Furniture	9	8	[0, 0, 0]	n/a	catFR1	0	R1275D
1449.384	0.0	1450865	REC_END	n/a	n/a	n/a	n/a	-999	8	[0, 0, 0]	n/a	catFR1	0	R1275D
1449.384	0.024	1450865	TRIAL_END	n/a	n/a	n/a	n/a	-999	8	[0, 0, 0]	n/a	catFR1	0	R1275D
1449.408	0.0	1450889	TRIAL_START	n/a	n/a	n/a	n/a	-999	9	[0, 0, 0]	n/a	catFR1	0	R1275D
1449.408	0.0	1450889	TRIAL	n/a	n/a	n/a	n/a	-999	9	[0, 0, 0]	n/a	catFR1	0	R1275D
1449.408	1.652	1450889	WAITING_START	n/a	n/a	n/a	n/a	-999	9	[0, 0, 0]	n/a	catFR1	0	R1275D
1451.06	0.001	1452541	WAITING_END	n/a	n/a	n/a	n/a	-999	9	[0, 0, 0]	n/a	catFR1	0	R1275D
1451.061	10.0	1452542	COUNTDOWN_START	n/a	n/a	n/a	n/a	-999	9	[0, 0, 0]	n/a	catFR1	0	R1275D
1461.49	0.0	1462970	COUNTDOWN_END	n/a	n/a	n/a	n/a	-999	9	[0, 0, 0]	n/a	catFR1	0	R1275D
1461.49	1.106	1462970	ORIENT_START	n/a	n/a	n/a	n/a	-999	9	[0, 0, 0]	n/a	catFR1	0	R1275D
1462.596	0.0	1464076	ORIENT_END	n/a	n/a	n/a	n/a	-999	9	[0, 0, 0]	n/a	catFR1	0	R1275D
1462.596	1.135	1464076	ENCODING_START	n/a	n/a	n/a	n/a	-999	9	[0, 0, 0]	n/a	catFR1	0	R1275D
1463.731	1.6	1465211	WORD	n/a	wordpools/wordpool_categorized_EN.txt	COAT	Clothing	1	9	[0, 0, 0]	n/a	catFR1	0	R1275D
1465.362	0.851	1466842	WORD_OFF	n/a	n/a	COAT	Clothing	1	9	[0, 0, 0]	n/a	catFR1	0	R1275D
1466.213	1.6	1467693	WORD	n/a	wordpools/wordpool_categorized_EN.txt	JEANS	Clothing	2	9	[0, 0, 0]	n/a	catFR1	0	R1275D
1467.83	1.049	1469310	WORD_OFF	n/a	n/a	JEANS	Clothing	2	9	[0, 0, 0]	n/a	catFR1	0	R1275D
1468.879	1.6	1470359	WORD	n/a	wordpools/wordpool_categorized_EN.txt	WOODS	Landscapes	3	9	[0, 0, 0]	n/a	catFR1	0	R1275D
1470.513	1.135	1471993	WORD_OFF	n/a	n/a	WOODS	Landscapes	3	9	[0, 0, 0]	n/a	catFR1	0	R1275D
1471.648	1.6	1473128	WORD	n/a	wordpools/wordpool_categorized_EN.txt	LAKE	Landscapes	4	9	[0, 0, 0]	n/a	catFR1	0	R1275D
1473.28	0.765	1474760	WORD_OFF	n/a	n/a	LAKE	Landscapes	4	9	[0, 0, 0]	n/a	catFR1	0	R1275D
1474.045	1.6	1475525	WORD	n/a	wordpools/wordpool_categorized_EN.txt	SLINKY	Toys	5	9	[0, 0, 0]	n/a	catFR1	0	R1275D
1475.681	1.056	1477161	WORD_OFF	n/a	n/a	SLINKY	Toys	5	9	[0, 0, 0]	n/a	catFR1	0	R1275D
1476.737	1.6	1478217	WORD	n/a	wordpools/wordpool_categorized_EN.txt	BASKETBALL	Toys	6	9	[0, 0, 0]	n/a	catFR1	0	R1275D
1478.364	1.098	1479843	WORD_OFF	n/a	n/a	BASKETBALL	Toys	6	9	[0, 0, 0]	n/a	catFR1	0	R1275D
1479.462	1.6	1480941	WORD	n/a	wordpools/wordpool_categorized_EN.txt	VALLEY	Landscapes	7	9	[0, 0, 0]	n/a	catFR1	0	R1275D
1481.099	1.139	1482578	WORD_OFF	n/a	n/a	VALLEY	Landscapes	7	9	[0, 0, 0]	n/a	catFR1	0	R1275D
1482.238	1.6	1483717	WORD	n/a	wordpools/wordpool_categorized_EN.txt	STREAM	Landscapes	8	9	[0, 0, 0]	n/a	catFR1	0	R1275D
1483.849	1.029	1485328	WORD_OFF	n/a	n/a	STREAM	Landscapes	8	9	[0, 0, 0]	n/a	catFR1	0	R1275D
1484.878	1.6	1486357	WORD	n/a	wordpools/wordpool_categorized_EN.txt	BARBIE	Toys	9	9	[0, 0, 0]	n/a	catFR1	0	R1275D
1486.499	0.816	1487978	WORD_OFF	n/a	n/a	BARBIE	Toys	9	9	[0, 0, 0]	n/a	catFR1	0	R1275D
1487.315	1.6	1488794	WORD	n/a	wordpools/wordpool_categorized_EN.txt	PUZZLE	Toys	10	9	[0, 0, 0]	n/a	catFR1	0	R1275D
1488.934	0.987	1490413	WORD_OFF	n/a	n/a	PUZZLE	Toys	10	9	[0, 0, 0]	n/a	catFR1	0	R1275D
1489.921	1.6	1491400	WORD	n/a	wordpools/wordpool_categorized_EN.txt	SHIRT	Clothing	11	9	[0, 0, 0]	n/a	catFR1	0	R1275D
1491.551	0.858	1493030	WORD_OFF	n/a	n/a	SHIRT	Clothing	11	9	[0, 0, 0]	n/a	catFR1	0	R1275D
1492.409	1.6	1493888	WORD	n/a	wordpools/wordpool_categorized_EN.txt	SHOES	Clothing	12	9	[0, 0, 0]	n/a	catFR1	0	R1275D
1494.035	0.0	1495514	WORD_OFF	n/a	n/a	SHOES	Clothing	12	9	[0, 0, 0]	n/a	catFR1	0	R1275D
1494.035	0.001	1495514	ENCODING_END	n/a	n/a	n/a	n/a	-999	9	[0, 0, 0]	n/a	catFR1	0	R1275D
1494.036	0.0	1495515	DISTRACT_START	n/a	n/a	n/a	n/a	-999	9	[0, 0, 0]	n/a	catFR1	0	R1275D
1494.036	0.015	1495515	START	n/a	n/a	n/a	n/a	-999	9	[-999, -999, -999]	n/a	catFR1	0	R1275D
1494.051	5.4	1495530	PROB	5.375	n/a	n/a	n/a	-999	9	[9, 7, 1]	17.0	catFR1	0	R1275D
1499.451	3.335	1500929	PROB	3.304	n/a	n/a	n/a	-999	9	[7, 2, 2]	11.0	catFR1	0	R1275D
1502.786	3.801	1504264	PROB	3.762	n/a	n/a	n/a	-999	9	[1, 9, 6]	16.0	catFR1	0	R1275D
1506.587	3.683	1508065	PROB	3.656	n/a	n/a	n/a	-999	9	[3, 3, 4]	10.0	catFR1	0	R1275D
1510.27	5.322	1511748	PROB	5.322	n/a	n/a	n/a	-999	9	[2, 1, 4]	7.0	catFR1	0	R1275D
1515.592	0.013	1517069	STOP	n/a	n/a	n/a	n/a	-999	9	[-999, -999, -999]	n/a	catFR1	0	R1275D
1515.605	0.627	1517082	DISTRACT_END	n/a	n/a	n/a	n/a	-999	9	[0, 0, 0]	n/a	catFR1	0	R1275D
1516.232	1.6	1517709	RETRIEVAL_ORIENT_START	n/a	n/a	n/a	n/a	-999	9	[0, 0, 0]	n/a	catFR1	0	R1275D
1517.806	0.0	1519283	RETRIEVAL_ORIENT_END	n/a	n/a	n/a	n/a	-999	9	[0, 0, 0]	n/a	catFR1	0	R1275D
1517.806	4.189	1519283	REC_START	n/a	n/a	n/a	n/a	-999	9	[0, 0, 0]	n/a	catFR1	0	R1275D
1521.995	5.243	1523472	REC_WORD_VV	4.189	n/a	<>	n/a	-999	9	[0, 0, 0]	n/a	catFR1	0	R1275D
1527.238	6.494	1528715	REC_WORD	9.432	n/a	COAT	Clothing	1	9	[0, 0, 0]	n/a	catFR1	0	R1275D
1533.732	1.315	1535209	REC_WORD_VV	15.926	n/a	<>	n/a	-999	9	[0, 0, 0]	n/a	catFR1	0	R1275D
1535.047	3.895	1536523	REC_WORD_VV	17.241	n/a	<>	n/a	-999	9	[0, 0, 0]	n/a	catFR1	0	R1275D
1538.942	4.63	1540418	REC_WORD_VV	21.136	n/a	<>	n/a	-999	9	[0, 0, 0]	n/a	catFR1	0	R1275D
1543.572	3.199	1545048	REC_WORD	25.766	n/a	WOODS	Landscapes	3	9	[0, 0, 0]	n/a	catFR1	0	R1275D
1546.771	1.047	1548247	REC_WORD	28.965	n/a	LAKE	Landscapes	4	9	[0, 0, 0]	n/a	catFR1	0	R1275D
1547.818	0.001	1549294	REC_END	n/a	n/a	n/a	n/a	-999	9	[0, 0, 0]	n/a	catFR1	0	R1275D
1547.819	0.021	1549295	TRIAL_END	n/a	n/a	n/a	n/a	-999	9	[0, 0, 0]	n/a	catFR1	0	R1275D
1547.84	0.0	1549316	TRIAL_START	n/a	n/a	n/a	n/a	-999	10	[0, 0, 0]	n/a	catFR1	0	R1275D
1547.84	0.0	1549316	TRIAL	n/a	n/a	n/a	n/a	-999	10	[0, 0, 0]	n/a	catFR1	0	R1275D
1547.84	2.122	1549316	WAITING_START	n/a	n/a	n/a	n/a	-999	10	[0, 0, 0]	n/a	catFR1	0	R1275D
1549.962	0.0	1551438	WAITING_END	n/a	n/a	n/a	n/a	-999	10	[0, 0, 0]	n/a	catFR1	0	R1275D
1549.962	10.0	1551438	COUNTDOWN_START	n/a	n/a	n/a	n/a	-999	10	[0, 0, 0]	n/a	catFR1	0	R1275D
1560.391	0.0	1561866	COUNTDOWN_END	n/a	n/a	n/a	n/a	-999	10	[0, 0, 0]	n/a	catFR1	0	R1275D
1560.391	1.105	1561866	ORIENT_START	n/a	n/a	n/a	n/a	-999	10	[0, 0, 0]	n/a	catFR1	0	R1275D
1561.496	0.0	1562971	ORIENT_END	n/a	n/a	n/a	n/a	-999	10	[0, 0, 0]	n/a	catFR1	0	R1275D
1561.496	1.005	1562971	ENCODING_START	n/a	n/a	n/a	n/a	-999	10	[0, 0, 0]	n/a	catFR1	0	R1275D
1562.501	1.6	1563976	WORD	n/a	wordpools/wordpool_categorized_EN.txt	RUM	Beverages	1	10	[0, 0, 0]	n/a	catFR1	0	R1275D
1564.131	0.776	1565606	WORD_OFF	n/a	n/a	RUM	Beverages	1	10	[0, 0, 0]	n/a	catFR1	0	R1275D
1564.907	1.6	1566382	WORD	n/a	wordpools/wordpool_categorized_EN.txt	COLA	Beverages	2	10	[0, 0, 0]	n/a	catFR1	0	R1275D
1566.531	0.94	1568006	WORD_OFF	n/a	n/a	COLA	Beverages	2	10	[0, 0, 0]	n/a	catFR1	0	R1275D
1567.471	1.6	1568946	WORD	n/a	wordpools/wordpool_categorized_EN.txt	STRAWBERRY	Fruit	3	10	[0, 0, 0]	n/a	catFR1	0	R1275D
1569.099	1.021	1570574	WORD_OFF	n/a	n/a	STRAWBERRY	Fruit	3	10	[0, 0, 0]	n/a	catFR1	0	R1275D
1570.12	1.6	1571595	WORD	n/a	wordpools/wordpool_categorized_EN.txt	BLUEBERRY	Fruit	4	10	[0, 0, 0]	n/a	catFR1	0	R1275D
1571.749	0.989	1573224	WORD_OFF	n/a	n/a	BLUEBERRY	Fruit	4	10	[0, 0, 0]	n/a	catFR1	0	R1275D
1572.738	1.6	1574212	WORD	n/a	wordpools/wordpool_categorized_EN.txt	TORNADO	Weather	5	10	[0, 0, 0]	n/a	catFR1	0	R1275D
1574.365	1.004	1575839	WORD_OFF	n/a	n/a	TORNADO	Weather	5	10	[0, 0, 0]	n/a	catFR1	0	R1275D
1575.369	1.6	1576843	WORD	n/a	wordpools/wordpool_categorized_EN.txt	RAIN	Weather	6	10	[0, 0, 0]	n/a	catFR1	0	R1275D
1577.0	0.944	1578474	WORD_OFF	n/a	n/a	RAIN	Weather	6	10	[0, 0, 0]	n/a	catFR1	0	R1275D
1577.944	1.6	1579418	WORD	n/a	wordpools/wordpool_categorized_EN.txt	BEER	Beverages	7	10	[0, 0, 0]	n/a	catFR1	0	R1275D
1579.567	1.085	1581041	WORD_OFF	n/a	n/a	BEER	Beverages	7	10	[0, 0, 0]	n/a	catFR1	0	R1275D
1580.652	1.6	1582126	WORD	n/a	wordpools/wordpool_categorized_EN.txt	WINE	Beverages	8	10	[0, 0, 0]	n/a	catFR1	0	R1275D
1582.283	1.111	1583757	WORD_OFF	n/a	n/a	WINE	Beverages	8	10	[0, 0, 0]	n/a	catFR1	0	R1275D
1583.394	1.6	1584868	WORD	n/a	wordpools/wordpool_categorized_EN.txt	BANANA	Fruit	9	10	[0, 0, 0]	n/a	catFR1	0	R1275D
1585.018	0.967	1586492	WORD_OFF	n/a	n/a	BANANA	Fruit	9	10	[0, 0, 0]	n/a	catFR1	0	R1275D
1585.985	1.6	1587459	WORD	n/a	wordpools/wordpool_categorized_EN.txt	LIME	Fruit	10	10	[0, 0, 0]	n/a	catFR1	0	R1275D
1587.619	0.798	1589093	WORD_OFF	n/a	n/a	LIME	Fruit	10	10	[0, 0, 0]	n/a	catFR1	0	R1275D
1588.417	1.6	1589891	WORD	n/a	wordpools/wordpool_categorized_EN.txt	FOG	Weather	11	10	[0, 0, 0]	n/a	catFR1	0	R1275D
1590.052	1.118	1591526	WORD_OFF	n/a	n/a	FOG	Weather	11	10	[0, 0, 0]	n/a	catFR1	0	R1275D
1591.17	1.6	1592644	WORD	n/a	wordpools/wordpool_categorized_EN.txt	CLOUD	Weather	12	10	[0, 0, 0]	n/a	catFR1	0	R1275D
1592.803	0.0	1594276	WORD_OFF	n/a	n/a	CLOUD	Weather	12	10	[0, 0, 0]	n/a	catFR1	0	R1275D
1592.803	0.0	1594276	ENCODING_END	n/a	n/a	n/a	n/a	-999	10	[0, 0, 0]	n/a	catFR1	0	R1275D
1592.803	0.001	1594276	DISTRACT_START	n/a	n/a	n/a	n/a	-999	10	[0, 0, 0]	n/a	catFR1	0	R1275D
1592.804	0.015	1594277	START	n/a	n/a	n/a	n/a	-999	10	[-999, -999, -999]	n/a	catFR1	0	R1275D
1592.819	4.633	1594292	PROB	4.6	n/a	n/a	n/a	-999	10	[7, 3, 3]	13.0	catFR1	0	R1275D
1597.452	4.751	1598925	PROB	4.721	n/a	n/a	n/a	-999	10	[6, 3, 8]	17.0	catFR1	0	R1275D
1602.203	2.635	1603676	PROB	2.601	n/a	n/a	n/a	-999	10	[1, 6, 4]	11.0	catFR1	0	R1275D
1604.838	3.901	1606311	PROB	3.869	n/a	n/a	n/a	-999	10	[1, 2, 4]	7.0	catFR1	0	R1275D
1608.739	6.606	1610212	PROB	6.606	n/a	n/a	n/a	-999	10	[3, 6, 6]	15.0	catFR1	0	R1275D
1615.345	0.011	1616817	STOP	n/a	n/a	n/a	n/a	-999	10	[-999, -999, -999]	n/a	catFR1	0	R1275D
1615.356	0.599	1616828	DISTRACT_END	n/a	n/a	n/a	n/a	-999	10	[0, 0, 0]	n/a	catFR1	0	R1275D
1615.955	1.6	1617427	RETRIEVAL_ORIENT_START	n/a	n/a	n/a	n/a	-999	10	[0, 0, 0]	n/a	catFR1	0	R1275D
1617.541	0.0	1619013	RETRIEVAL_ORIENT_END	n/a	n/a	n/a	n/a	-999	10	[0, 0, 0]	n/a	catFR1	0	R1275D
1617.541	0.767	1619013	REC_START	n/a	n/a	n/a	n/a	-999	10	[0, 0, 0]	n/a	catFR1	0	R1275D
1618.308	6.761	1619780	REC_WORD	0.767	n/a	LIME	Fruit	10	10	[0, 0, 0]	n/a	catFR1	0	R1275D
1625.069	2.833	1626541	REC_WORD_VV	7.528	n/a	<>	n/a	-999	10	[0, 0, 0]	n/a	catFR1	0	R1275D
1627.902	6.487	1629374	REC_WORD_VV	10.361	n/a	<>	n/a	-999	10	[0, 0, 0]	n/a	catFR1	0	R1275D
1634.389	0.77	1635860	REC_WORD	16.848	n/a	WINE	Beverages	8	10	[0, 0, 0]	n/a	catFR1	0	R1275D
1635.159	5.949	1636630	REC_WORD	17.618	n/a	BEER	Beverages	7	10	[0, 0, 0]	n/a	catFR1	0	R1275D
1641.108	2.593	1642579	REC_WORD	23.567	n/a	PINACOLADA	n/a	-999	10	[0, 0, 0]	n/a	catFR1	0	R1275D
1643.701	3.851	1645172	REC_WORD_VV	26.16	n/a	<>	n/a	-999	10	[0, 0, 0]	n/a	catFR1	0	R1275D
1647.552	0.0	1649023	REC_END	n/a	n/a	n/a	n/a	-999	10	[0, 0, 0]	n/a	catFR1	0	R1275D
1647.552	0.022	1649023	TRIAL_END	n/a	n/a	n/a	n/a	-999	10	[0, 0, 0]	n/a	catFR1	0	R1275D
1647.574	0.0	1649045	TRIAL_START	n/a	n/a	n/a	n/a	-999	11	[0, 0, 0]	n/a	catFR1	0	R1275D
1647.574	0.0	1649045	TRIAL	n/a	n/a	n/a	n/a	-999	11	[0, 0, 0]	n/a	catFR1	0	R1275D
1647.574	4.073	1649045	WAITING_START	n/a	n/a	n/a	n/a	-999	11	[0, 0, 0]	n/a	catFR1	0	R1275D
1651.647	0.0	1653117	WAITING_END	n/a	n/a	n/a	n/a	-999	11	[0, 0, 0]	n/a	catFR1	0	R1275D
1651.647	10.0	1653117	COUNTDOWN_START	n/a	n/a	n/a	n/a	-999	11	[0, 0, 0]	n/a	catFR1	0	R1275D
1662.076	0.001	1663546	COUNTDOWN_END	n/a	n/a	n/a	n/a	-999	11	[0, 0, 0]	n/a	catFR1	0	R1275D
1662.077	1.188	1663547	ORIENT_START	n/a	n/a	n/a	n/a	-999	11	[0, 0, 0]	n/a	catFR1	0	R1275D
1663.265	0.0	1664735	ORIENT_END	n/a	n/a	n/a	n/a	-999	11	[0, 0, 0]	n/a	catFR1	0	R1275D
1663.265	0.933	1664735	ENCODING_START	n/a	n/a	n/a	n/a	-999	11	[0, 0, 0]	n/a	catFR1	0	R1275D
1664.198	1.6	1665668	WORD	n/a	wordpools/wordpool_categorized_EN.txt	BEACH	Landscapes	1	11	[0, 0, 0]	n/a	catFR1	0	R1275D
1665.833	1.07	1667303	WORD_OFF	n/a	n/a	BEACH	Landscapes	1	11	[0, 0, 0]	n/a	catFR1	0	R1275D
1666.903	1.6	1668373	WORD	n/a	wordpools/wordpool_categorized_EN.txt	ISLAND	Landscapes	2	11	[0, 0, 0]	n/a	catFR1	0	R1275D
1668.533	0.844	1670002	WORD_OFF	n/a	n/a	ISLAND	Landscapes	2	11	[0, 0, 0]	n/a	catFR1	0	R1275D
1669.377	1.6	1670846	WORD	n/a	wordpools/wordpool_categorized_EN.txt	NOTEBOOK	OfficeSupplies	3	11	[0, 0, 0]	n/a	catFR1	0	R1275D
1671.017	1.127	1672486	WORD_OFF	n/a	n/a	NOTEBOOK	OfficeSupplies	3	11	[0, 0, 0]	n/a	catFR1	0	R1275D
1672.144	1.6	1673613	WORD	n/a	wordpools/wordpool_categorized_EN.txt	MARKER	OfficeSupplies	4	11	[0, 0, 0]	n/a	catFR1	0	R1275D
1673.767	0.896	1675236	WORD_OFF	n/a	n/a	MARKER	OfficeSupplies	4	11	[0, 0, 0]	n/a	catFR1	0	R1275D
1674.663	1.6	1676132	WORD	n/a	wordpools/wordpool_categorized_EN.txt	GORILLA	Zoo	5	11	[0, 0, 0]	n/a	catFR1	0	R1275D
1676.3	0.967	1677769	WORD_OFF	n/a	n/a	GORILLA	Zoo	5	11	[0, 0, 0]	n/a	catFR1	0	R1275D
1677.267	1.6	1678736	WORD	n/a	wordpools/wordpool_categorized_EN.txt	PANDA	Zoo	6	11	[0, 0, 0]	n/a	catFR1	0	R1275D
1678.902	0.809	1680371	WORD_OFF	n/a	n/a	PANDA	Zoo	6	11	[0, 0, 0]	n/a	catFR1	0	R1275D
1679.711	1.6	1681180	WORD	n/a	wordpools/wordpool_categorized_EN.txt	TAPE	OfficeSupplies	7	11	[0, 0, 0]	n/a	catFR1	0	R1275D
1681.335	0.891	1682804	WORD_OFF	n/a	n/a	TAPE	OfficeSupplies	7	11	[0, 0, 0]	n/a	catFR1	0	R1275D
1682.226	1.6	1683695	WORD	n/a	wordpools/wordpool_categorized_EN.txt	ERASER	OfficeSupplies	8	11	[0, 0, 0]	n/a	catFR1	0	R1275D
1683.853	0.873	1685322	WORD_OFF	n/a	n/a	ERASER	OfficeSupplies	8	11	[0, 0, 0]	n/a	catFR1	0	R1275D
1684.726	1.6	1686195	WORD	n/a	wordpools/wordpool_categorized_EN.txt	TIGER	Zoo	9	11	[0, 0, 0]	n/a	catFR1	0	R1275D
1686.352	0.974	1687821	WORD_OFF	n/a	n/a	TIGER	Zoo	9	11	[0, 0, 0]	n/a	catFR1	0	R1275D
1687.326	1.6	1688795	WORD	n/a	wordpools/wordpool_categorized_EN.txt	BEAR	Zoo	10	11	[0, 0, 0]	n/a	catFR1	0	R1275D
1688.937	0.985	1690405	WORD_OFF	n/a	n/a	BEAR	Zoo	10	11	[0, 0, 0]	n/a	catFR1	0	R1275D
1689.922	1.6	1691390	WORD	n/a	wordpools/wordpool_categorized_EN.txt	MOUNTAIN	Landscapes	11	11	[0, 0, 0]	n/a	catFR1	0	R1275D
1691.554	0.951	1693022	WORD_OFF	n/a	n/a	MOUNTAIN	Landscapes	11	11	[0, 0, 0]	n/a	catFR1	0	R1275D
1692.505	1.6	1693973	WORD	n/a	wordpools/wordpool_categorized_EN.txt	CREEK	Landscapes	12	11	[0, 0, 0]	n/a	catFR1	0	R1275D
1694.138	0.0	1695606	WORD_OFF	n/a	n/a	CREEK	Landscapes	12	11	[0, 0, 0]	n/a	catFR1	0	R1275D
1694.138	0.001	1695606	ENCODING_END	n/a	n/a	n/a	n/a	-999	11	[0, 0, 0]	n/a	catFR1	0	R1275D
1694.139	0.0	1695607	DISTRACT_START	n/a	n/a	n/a	n/a	-999	11	[0, 0, 0]	n/a	catFR1	0	R1275D
1694.139	0.015	1695607	START	n/a	n/a	n/a	n/a	-999	11	[-999, -999, -999]	n/a	catFR1	0	R1275D
1694.154	5.735	1695622	PROB	5.704	n/a	n/a	n/a	-999	11	[7, 2, 4]	13.0	catFR1	0	R1275D
1699.889	5.449	1701357	PROB	5.428	n/a	n/a	n/a	-999	11	[9, 2, 9]	20.0	catFR1	0	R1275D
1705.338	5.836	1706806	PROB	5.805	n/a	n/a	n/a	-999	11	[3, 7, 4]	14.0	catFR1	0	R1275D
1711.174	4.71	1712641	PROB	4.71	n/a	n/a	n/a	-999	11	[6, 8, 7]	21.0	catFR1	0	R1275D
1715.884	0.008	1717351	STOP	n/a	n/a	n/a	n/a	-999	11	[-999, -999, -999]	n/a	catFR1	0	R1275D
1715.892	0.58	1717359	DISTRACT_END	n/a	n/a	n/a	n/a	-999	11	[0, 0, 0]	n/a	catFR1	0	R1275D
1716.472	1.6	1717939	RETRIEVAL_ORIENT_START	n/a	n/a	n/a	n/a	-999	11	[0, 0, 0]	n/a	catFR1	0	R1275D
1718.109	0.0	1719576	RETRIEVAL_ORIENT_END	n/a	n/a	n/a	n/a	-999	11	[0, 0, 0]	n/a	catFR1	0	R1275D
1718.109	0.654	1719576	REC_START	n/a	n/a	n/a	n/a	-999	11	[0, 0, 0]	n/a	catFR1	0	R1275D
1718.763	1.127	1720230	REC_WORD	0.654	n/a	MOUNTAIN	Landscapes	11	11	[0, 0, 0]	n/a	catFR1	0	R1275D
1719.89	6.836	1721357	REC_WORD	1.781	n/a	CREEK	Landscapes	12	11	[0, 0, 0]	n/a	catFR1	0	R1275D
1726.726	0.452	1728192	REC_WORD	8.617	n/a	MOUNTAIN	Landscapes	11	11	[0, 0, 0]	n/a	catFR1	0	R1275D
1727.178	6.463	1728644	REC_WORD	9.069	n/a	CREEK	Landscapes	12	11	[0, 0, 0]	n/a	catFR1	0	R1275D
1733.641	9.413	1735107	REC_WORD_VV	15.532	n/a	<>	n/a	-999	11	[0, 0, 0]	n/a	catFR1	0	R1275D
1743.054	5.069	1744520	REC_WORD_VV	24.945	n/a	<>	n/a	-999	11	[0, 0, 0]	n/a	catFR1	0	R1275D
1748.123	0.0	1749588	REC_END	n/a	n/a	n/a	n/a	-999	11	[0, 0, 0]	n/a	catFR1	0	R1275D
1748.123	0.023	1749588	TRIAL_END	n/a	n/a	n/a	n/a	-999	11	[0, 0, 0]	n/a	catFR1	0	R1275D
1748.146	0.001	1749611	TRIAL_START	n/a	n/a	n/a	n/a	-999	12	[0, 0, 0]	n/a	catFR1	0	R1275D
1748.147	0.0	1749612	TRIAL	n/a	n/a	n/a	n/a	-999	12	[0, 0, 0]	n/a	catFR1	0	R1275D
1748.147	1.934	1749612	WAITING_START	n/a	n/a	n/a	n/a	-999	12	[0, 0, 0]	n/a	catFR1	0	R1275D
1750.081	0.001	1751546	WAITING_END	n/a	n/a	n/a	n/a	-999	12	[0, 0, 0]	n/a	catFR1	0	R1275D
1750.082	10.0	1751547	COUNTDOWN_START	n/a	n/a	n/a	n/a	-999	12	[0, 0, 0]	n/a	catFR1	0	R1275D
1760.51	0.0	1761975	COUNTDOWN_END	n/a	n/a	n/a	n/a	-999	12	[0, 0, 0]	n/a	catFR1	0	R1275D
1760.51	1.107	1761975	ORIENT_START	n/a	n/a	n/a	n/a	-999	12	[0, 0, 0]	n/a	catFR1	0	R1275D
1761.617	0.0	1763082	ORIENT_END	n/a	n/a	n/a	n/a	-999	12	[0, 0, 0]	n/a	catFR1	0	R1275D
1761.617	0.841	1763082	ENCODING_START	n/a	n/a	n/a	n/a	-999	12	[0, 0, 0]	n/a	catFR1	0	R1275D
1762.458	1.6	1763923	WORD	n/a	wordpools/wordpool_categorized_EN.txt	DRYER	Appliances	1	12	[0, 0, 0]	n/a	catFR1	0	R1275D
1764.084	0.968	1765548	WORD_OFF	n/a	n/a	DRYER	Appliances	1	12	[0, 0, 0]	n/a	catFR1	0	R1275D
1765.052	1.6	1766516	WORD	n/a	wordpools/wordpool_categorized_EN.txt	IRON	Appliances	2	12	[0, 0, 0]	n/a	catFR1	0	R1275D
1766.684	0.799	1768148	WORD_OFF	n/a	n/a	IRON	Appliances	2	12	[0, 0, 0]	n/a	catFR1	0	R1275D
1767.483	1.6	1768947	WORD	n/a	wordpools/wordpool_categorized_EN.txt	ROACH	Insects	3	12	[0, 0, 0]	n/a	catFR1	0	R1275D
1769.102	0.792	1770566	WORD_OFF	n/a	n/a	ROACH	Insects	3	12	[0, 0, 0]	n/a	catFR1	0	R1275D
1769.894	1.6	1771358	WORD	n/a	wordpools/wordpool_categorized_EN.txt	GNAT	Insects	4	12	[0, 0, 0]	n/a	catFR1	0	R1275D
1771.518	0.81	1772982	WORD_OFF	n/a	n/a	GNAT	Insects	4	12	[0, 0, 0]	n/a	catFR1	0	R1275D
1772.328	1.6	1773792	WORD	n/a	wordpools/wordpool_categorized_EN.txt	PINE	Trees	5	12	[0, 0, 0]	n/a	catFR1	0	R1275D
1773.936	1.027	1775400	WORD_OFF	n/a	n/a	PINE	Trees	5	12	[0, 0, 0]	n/a	catFR1	0	R1275D
1774.963	1.6	1776427	WORD	n/a	wordpools/wordpool_categorized_EN.txt	MAPLE	Trees	6	12	[0, 0, 0]	n/a	catFR1	0	R1275D
1776.587	1.064	1778051	WORD_OFF	n/a	n/a	MAPLE	Trees	6	12	[0, 0, 0]	n/a	catFR1	0	R1275D
1777.651	1.6	1779115	WORD	n/a	wordpools/wordpool_categorized_EN.txt	MOSQUITO	Insects	7	12	[0, 0, 0]	n/a	catFR1	0	R1275D
1779.286	1.101	1780750	WORD_OFF	n/a	n/a	MOSQUITO	Insects	7	12	[0, 0, 0]	n/a	catFR1	0	R1275D
1780.387	1.6	1781851	WORD	n/a	wordpools/wordpool_categorized_EN.txt	FLY	Insects	8	12	[0, 0, 0]	n/a	catFR1	0	R1275D
1782.004	0.773	1783468	WORD_OFF	n/a	n/a	FLY	Insects	8	12	[0, 0, 0]	n/a	catFR1	0	R1275D
1782.777	1.6	1784241	WORD	n/a	wordpools/wordpool_categorized_EN.txt	REFRIGERATOR	Appliances	9	12	[0, 0, 0]	n/a	catFR1	0	R1275D
1784.403	0.885	1785866	WORD_OFF	n/a	n/a	REFRIGERATOR	Appliances	9	12	[0, 0, 0]	n/a	catFR1	0	R1275D
1785.288	1.6	1786751	WORD	n/a	wordpools/wordpool_categorized_EN.txt	OVEN	Appliances	10	12	[0, 0, 0]	n/a	catFR1	0	R1275D
1786.922	0.799	1788385	WORD_OFF	n/a	n/a	OVEN	Appliances	10	12	[0, 0, 0]	n/a	catFR1	0	R1275D
1787.721	1.6	1789184	WORD	n/a	wordpools/wordpool_categorized_EN.txt	CEDAR	Trees	11	12	[0, 0, 0]	n/a	catFR1	0	R1275D
1789.354	1.023	1790817	WORD_OFF	n/a	n/a	CEDAR	Trees	11	12	[0, 0, 0]	n/a	catFR1	0	R1275D
1790.377	1.6	1791840	WORD	n/a	wordpools/wordpool_categorized_EN.txt	HICKORY	Trees	12	12	[0, 0, 0]	n/a	catFR1	0	R1275D
1792.006	0.0	1793469	WORD_OFF	n/a	n/a	HICKORY	Trees	12	12	[0, 0, 0]	n/a	catFR1	0	R1275D
1792.006	0.0	1793469	ENCODING_END	n/a	n/a	n/a	n/a	-999	12	[0, 0, 0]	n/a	catFR1	0	R1275D
1792.006	0.001	1793469	DISTRACT_START	n/a	n/a	n/a	n/a	-999	12	[0, 0, 0]	n/a	catFR1	0	R1275D
1792.007	0.015	1793470	START	n/a	n/a	n/a	n/a	-999	12	[-999, -999, -999]	n/a	catFR1	0	R1275D
1792.022	4.701	1793485	PROB	4.671	n/a	n/a	n/a	-999	12	[6, 1, 3]	10.0	catFR1	0	R1275D
1796.723	8.734	1798186	PROB	8.697	n/a	n/a	n/a	-999	12	[7, 8, 9]	24.0	catFR1	0	R1275D
1805.457	4.951	1806919	PROB	4.915	n/a	n/a	n/a	-999	12	[7, 6, 1]	14.0	catFR1	0	R1275D
1810.408	5.41	1811870	PROB	5.41	n/a	n/a	n/a	-999	12	[1, 8, 5]	14.0	catFR1	0	R1275D
1815.818	0.009	1817280	STOP	n/a	n/a	n/a	n/a	-999	12	[-999, -999, -999]	n/a	catFR1	0	R1275D
1815.827	0.697	1817289	DISTRACT_END	n/a	n/a	n/a	n/a	-999	12	[0, 0, 0]	n/a	catFR1	0	R1275D
1816.524	1.6	1817986	RETRIEVAL_ORIENT_START	n/a	n/a	n/a	n/a	-999	12	[0, 0, 0]	n/a	catFR1	0	R1275D
1818.194	0.0	1819656	RETRIEVAL_ORIENT_END	n/a	n/a	n/a	n/a	-999	12	[0, 0, 0]	n/a	catFR1	0	R1275D
1818.194	0.249	1819656	REC_START	n/a	n/a	n/a	n/a	-999	12	[0, 0, 0]	n/a	catFR1	0	R1275D
1818.443	1.085	1819905	REC_WORD	0.249	n/a	PINE	Trees	5	12	[0, 0, 0]	n/a	catFR1	0	R1275D
1819.528	1.999	1820990	REC_WORD	1.334	n/a	HICKORY	Trees	12	12	[0, 0, 0]	n/a	catFR1	0	R1275D
1821.527	6.855	1822988	REC_WORD	3.333	n/a	CEDAR	Trees	11	12	[0, 0, 0]	n/a	catFR1	0	R1275D
1828.382	1.025	1829843	REC_WORD	10.188	n/a	MOSQUITO	Insects	7	12	[0, 0, 0]	n/a	catFR1	0	R1275D
1829.407	3.16	1830868	REC_WORD	11.213	n/a	GNAT	Insects	4	12	[0, 0, 0]	n/a	catFR1	0	R1275D
1832.567	15.08	1834028	REC_WORD_VV	14.373	n/a	<>	n/a	-999	12	[0, 0, 0]	n/a	catFR1	0	R1275D
1847.647	0.56	1849107	REC_WORD_VV	29.453	n/a	<>	n/a	-999	12	[0, 0, 0]	n/a	catFR1	0	R1275D
1848.207	0.0	1849667	REC_END	n/a	n/a	n/a	n/a	-999	12	[0, 0, 0]	n/a	catFR1	0	R1275D
1848.207	0.021	1849667	TRIAL_END	n/a	n/a	n/a	n/a	-999	12	[0, 0, 0]	n/a	catFR1	0	R1275D
1848.228	0.001	1849688	TRIAL_START	n/a	n/a	n/a	n/a	-999	13	[0, 0, 0]	n/a	catFR1	0	R1275D
1848.229	0.0	1849689	TRIAL	n/a	n/a	n/a	n/a	-999	13	[0, 0, 0]	n/a	catFR1	0	R1275D
1848.229	2.304	1849689	WAITING_START	n/a	n/a	n/a	n/a	-999	13	[0, 0, 0]	n/a	catFR1	0	R1275D
1850.533	0.001	1851993	WAITING_END	n/a	n/a	n/a	n/a	-999	13	[0, 0, 0]	n/a	catFR1	0	R1275D
1850.534	10.0	1851994	COUNTDOWN_START	n/a	n/a	n/a	n/a	-999	13	[0, 0, 0]	n/a	catFR1	0	R1275D
1860.963	0.0	1862422	COUNTDOWN_END	n/a	n/a	n/a	n/a	-999	13	[0, 0, 0]	n/a	catFR1	0	R1275D
1860.963	1.206	1862422	ORIENT_START	n/a	n/a	n/a	n/a	-999	13	[0, 0, 0]	n/a	catFR1	0	R1275D
1862.169	0.0	1863628	ORIENT_END	n/a	n/a	n/a	n/a	-999	13	[0, 0, 0]	n/a	catFR1	0	R1275D
1862.169	0.979	1863628	ENCODING_START	n/a	n/a	n/a	n/a	-999	13	[0, 0, 0]	n/a	catFR1	0	R1275D
1863.148	1.6	1864607	WORD	n/a	wordpools/wordpool_categorized_EN.txt	SODA	Beverages	1	13	[0, 0, 0]	n/a	catFR1	0	R1275D
1864.786	0.751	1866245	WORD_OFF	n/a	n/a	SODA	Beverages	1	13	[0, 0, 0]	n/a	catFR1	0	R1275D
1865.537	1.6	1866996	WORD	n/a	wordpools/wordpool_categorized_EN.txt	CIDER	Beverages	2	13	[0, 0, 0]	n/a	catFR1	0	R1275D
1867.17	1.027	1868629	WORD_OFF	n/a	n/a	CIDER	Beverages	2	13	[0, 0, 0]	n/a	catFR1	0	R1275D
1868.197	1.6	1869656	WORD	n/a	wordpools/wordpool_categorized_EN.txt	COW	FarmAnimals	3	13	[0, 0, 0]	n/a	catFR1	0	R1275D
1869.803	0.987	1871262	WORD_OFF	n/a	n/a	COW	FarmAnimals	3	13	[0, 0, 0]	n/a	catFR1	0	R1275D
1870.79	1.6	1872249	WORD	n/a	wordpools/wordpool_categorized_EN.txt	GOAT	FarmAnimals	4	13	[0, 0, 0]	n/a	catFR1	0	R1275D
1872.42	0.879	1873879	WORD_OFF	n/a	n/a	GOAT	FarmAnimals	4	13	[0, 0, 0]	n/a	catFR1	0	R1275D
1873.299	1.6	1874758	WORD	n/a	wordpools/wordpool_categorized_EN.txt	GUITAR	Instruments	5	13	[0, 0, 0]	n/a	catFR1	0	R1275D
1874.921	1.007	1876380	WORD_OFF	n/a	n/a	GUITAR	Instruments	5	13	[0, 0, 0]	n/a	catFR1	0	R1275D
1875.928	1.6	1877387	WORD	n/a	wordpools/wordpool_categorized_EN.txt	TRUMPET	Instruments	6	13	[0, 0, 0]	n/a	catFR1	0	R1275D
1877.555	1.017	1879014	WORD_OFF	n/a	n/a	TRUMPET	Instruments	6	13	[0, 0, 0]	n/a	catFR1	0	R1275D
1878.572	1.6	1880031	WORD	n/a	wordpools/wordpool_categorized_EN.txt	CHICKEN	FarmAnimals	7	13	[0, 0, 0]	n/a	catFR1	0	R1275D
1880.204	0.836	1881662	WORD_OFF	n/a	n/a	CHICKEN	FarmAnimals	7	13	[0, 0, 0]	n/a	catFR1	0	R1275D
1881.04	1.6	1882498	WORD	n/a	wordpools/wordpool_categorized_EN.txt	HORSE	FarmAnimals	8	13	[0, 0, 0]	n/a	catFR1	0	R1275D
1882.672	1.103	1884130	WORD_OFF	n/a	n/a	HORSE	FarmAnimals	8	13	[0, 0, 0]	n/a	catFR1	0	R1275D
1883.775	1.6	1885233	WORD	n/a	wordpools/wordpool_categorized_EN.txt	ORGAN	Instruments	9	13	[0, 0, 0]	n/a	catFR1	0	R1275D
1885.405	0.89	1886863	WORD_OFF	n/a	n/a	ORGAN	Instruments	9	13	[0, 0, 0]	n/a	catFR1	0	R1275D
1886.295	1.6	1887753	WORD	n/a	wordpools/wordpool_categorized_EN.txt	DRUM	Instruments	10	13	[0, 0, 0]	n/a	catFR1	0	R1275D
1887.923	1.073	1889381	WORD_OFF	n/a	n/a	DRUM	Instruments	10	13	[0, 0, 0]	n/a	catFR1	0	R1275D
1888.996	1.6	1890454	WORD	n/a	wordpools/wordpool_categorized_EN.txt	COFFEE	Beverages	11	13	[0, 0, 0]	n/a	catFR1	0	R1275D
1890.624	0.82	1892082	WORD_OFF	n/a	n/a	COFFEE	Beverages	11	13	[0, 0, 0]	n/a	catFR1	0	R1275D
1891.444	1.6	1892902	WORD	n/a	wordpools/wordpool_categorized_EN.txt	WATER	Beverages	12	13	[0, 0, 0]	n/a	catFR1	0	R1275D
1893.074	0.001	1894532	WORD_OFF	n/a	n/a	WATER	Beverages	12	13	[0, 0, 0]	n/a	catFR1	0	R1275D
1893.075	0.0	1894533	ENCODING_END	n/a	n/a	n/a	n/a	-999	13	[0, 0, 0]	n/a	catFR1	0	R1275D
1893.075	0.0	1894533	DISTRACT_START	n/a	n/a	n/a	n/a	-999	13	[0, 0, 0]	n/a	catFR1	0	R1275D
1893.075	0.016	1894533	START	n/a	n/a	n/a	n/a	-999	13	[-999, -999, -999]	n/a	catFR1	0	R1275D
1893.091	5.467	1894549	PROB	5.436	n/a	n/a	n/a	-999	13	[7, 5, 3]	15.0	catFR1	0	R1275D
1898.558	3.134	1900015	PROB	3.097	n/a	n/a	n/a	-999	13	[1, 2, 2]	6.0	catFR1	0	R1275D
1901.692	5.501	1903149	PROB	5.475	n/a	n/a	n/a	-999	13	[8, 5, 4]	17.0	catFR1	0	R1275D
1907.193	3.951	1908650	PROB	3.918	n/a	n/a	n/a	-999	13	[9, 9, 2]	20.0	catFR1	0	R1275D
1911.144	5.099	1912601	PROB	5.099	n/a	n/a	n/a	-999	13	[6, 3, 7]	16.0	catFR1	0	R1275D
1916.243	0.018	1917700	STOP	n/a	n/a	n/a	n/a	-999	13	[-999, -999, -999]	n/a	catFR1	0	R1275D
1916.261	0.518	1917718	DISTRACT_END	n/a	n/a	n/a	n/a	-999	13	[0, 0, 0]	n/a	catFR1	0	R1275D
1916.779	1.6	1918236	RETRIEVAL_ORIENT_START	n/a	n/a	n/a	n/a	-999	13	[0, 0, 0]	n/a	catFR1	0	R1275D
1918.461	0.001	1919917	RETRIEVAL_ORIENT_END	n/a	n/a	n/a	n/a	-999	13	[0, 0, 0]	n/a	catFR1	0	R1275D
1918.462	0.082	1919918	REC_START	n/a	n/a	n/a	n/a	-999	13	[0, 0, 0]	n/a	catFR1	0	R1275D
1918.544	1.149	1920000	REC_WORD	0.082	n/a	COFFEE	Beverages	11	13	[0, 0, 0]	n/a	catFR1	0	R1275D
1919.693	4.482	1921149	REC_WORD	1.231	n/a	WATER	Beverages	12	13	[0, 0, 0]	n/a	catFR1	0	R1275D
1924.175	14.745	1925631	REC_WORD	5.713	n/a	TRUMPET	Instruments	6	13	[0, 0, 0]	n/a	catFR1	0	R1275D
1938.92	4.046	1940375	REC_WORD_VV	20.458	n/a	<>	n/a	-999	13	[0, 0, 0]	n/a	catFR1	0	R1275D
1942.966	5.508	1944421	REC_WORD_VV	24.504	n/a	<>	n/a	-999	13	[0, 0, 0]	n/a	catFR1	0	R1275D
1948.474	0.001	1949929	REC_END	n/a	n/a	n/a	n/a	-999	13	[0, 0, 0]	n/a	catFR1	0	R1275D
1948.475	0.021	1949930	TRIAL_END	n/a	n/a	n/a	n/a	-999	13	[0, 0, 0]	n/a	catFR1	0	R1275D
1948.496	0.0	1949951	TRIAL_START	n/a	n/a	n/a	n/a	-999	14	[0, 0, 0]	n/a	catFR1	0	R1275D
1948.496	0.0	1949951	TRIAL	n/a	n/a	n/a	n/a	-999	14	[0, 0, 0]	n/a	catFR1	0	R1275D
1948.496	1.888	1949951	WAITING_START	n/a	n/a	n/a	n/a	-999	14	[0, 0, 0]	n/a	catFR1	0	R1275D
1950.384	0.0	1951839	WAITING_END	n/a	n/a	n/a	n/a	-999	14	[0, 0, 0]	n/a	catFR1	0	R1275D
1950.384	10.0	1951839	COUNTDOWN_START	n/a	n/a	n/a	n/a	-999	14	[0, 0, 0]	n/a	catFR1	0	R1275D
1960.813	0.001	1962267	COUNTDOWN_END	n/a	n/a	n/a	n/a	-999	14	[0, 0, 0]	n/a	catFR1	0	R1275D
1960.814	1.223	1962268	ORIENT_START	n/a	n/a	n/a	n/a	-999	14	[0, 0, 0]	n/a	catFR1	0	R1275D
1962.037	0.0	1963491	ORIENT_END	n/a	n/a	n/a	n/a	-999	14	[0, 0, 0]	n/a	catFR1	0	R1275D
1962.037	1.053	1963491	ENCODING_START	n/a	n/a	n/a	n/a	-999	14	[0, 0, 0]	n/a	catFR1	0	R1275D
1963.09	1.6	1964544	WORD	n/a	wordpools/wordpool_categorized_EN.txt	MOUSSE	Desserts	1	14	[0, 0, 0]	n/a	catFR1	0	R1275D
1964.721	0.947	1966175	WORD_OFF	n/a	n/a	MOUSSE	Desserts	1	14	[0, 0, 0]	n/a	catFR1	0	R1275D
1965.668	1.6	1967122	WORD	n/a	wordpools/wordpool_categorized_EN.txt	COOKIE	Desserts	2	14	[0, 0, 0]	n/a	catFR1	0	R1275D
1967.304	1.031	1968758	WORD_OFF	n/a	n/a	COOKIE	Desserts	2	14	[0, 0, 0]	n/a	catFR1	0	R1275D
1968.335	1.6	1969789	WORD	n/a	wordpools/wordpool_categorized_EN.txt	OCEAN	Landscapes	3	14	[0, 0, 0]	n/a	catFR1	0	R1275D
1969.955	0.878	1971409	WORD_OFF	n/a	n/a	OCEAN	Landscapes	3	14	[0, 0, 0]	n/a	catFR1	0	R1275D
1970.833	1.6	1972287	WORD	n/a	wordpools/wordpool_categorized_EN.txt	RIVER	Landscapes	4	14	[0, 0, 0]	n/a	catFR1	0	R1275D
1972.454	0.884	1973908	WORD_OFF	n/a	n/a	RIVER	Landscapes	4	14	[0, 0, 0]	n/a	catFR1	0	R1275D
1973.338	1.6	1974792	WORD	n/a	wordpools/wordpool_categorized_EN.txt	HAMMER	Tools	5	14	[0, 0, 0]	n/a	catFR1	0	R1275D
1974.973	0.966	1976426	WORD_OFF	n/a	n/a	HAMMER	Tools	5	14	[0, 0, 0]	n/a	catFR1	0	R1275D
1975.939	1.6	1977392	WORD	n/a	wordpools/wordpool_categorized_EN.txt	WRENCH	Tools	6	14	[0, 0, 0]	n/a	catFR1	0	R1275D
1977.573	0.969	1979026	WORD_OFF	n/a	n/a	WRENCH	Tools	6	14	[0, 0, 0]	n/a	catFR1	0	R1275D
1978.542	1.6	1979995	WORD	n/a	wordpools/wordpool_categorized_EN.txt	CUPCAKE	Desserts	7	14	[0, 0, 0]	n/a	catFR1	0	R1275D
1980.174	1.028	1981627	WORD_OFF	n/a	n/a	CUPCAKE	Desserts	7	14	[0, 0, 0]	n/a	catFR1	0	R1275D
1981.202	1.6	1982655	WORD	n/a	wordpools/wordpool_categorized_EN.txt	CAKE	Desserts	8	14	[0, 0, 0]	n/a	catFR1	0	R1275D
1982.841	0.96	1984294	WORD_OFF	n/a	n/a	CAKE	Desserts	8	14	[0, 0, 0]	n/a	catFR1	0	R1275D
1983.801	1.6	1985254	WORD	n/a	wordpools/wordpool_categorized_EN.txt	CROWBAR	Tools	9	14	[0, 0, 0]	n/a	catFR1	0	R1275D
1985.423	1.065	1986876	WORD_OFF	n/a	n/a	CROWBAR	Tools	9	14	[0, 0, 0]	n/a	catFR1	0	R1275D
1986.488	1.6	1987941	WORD	n/a	wordpools/wordpool_categorized_EN.txt	SCREWDRIVER	Tools	10	14	[0, 0, 0]	n/a	catFR1	0	R1275D
1988.109	1.015	1989562	WORD_OFF	n/a	n/a	SCREWDRIVER	Tools	10	14	[0, 0, 0]	n/a	catFR1	0	R1275D
1989.124	1.6	1990577	WORD	n/a	wordpools/wordpool_categorized_EN.txt	HILLS	Landscapes	11	14	[0, 0, 0]	n/a	catFR1	0	R1275D
1990.759	0.958	1992212	WORD_OFF	n/a	n/a	HILLS	Landscapes	11	14	[0, 0, 0]	n/a	catFR1	0	R1275D
1991.717	1.6	1993170	WORD	n/a	wordpools/wordpool_categorized_EN.txt	FOREST	Landscapes	12	14	[0, 0, 0]	n/a	catFR1	0	R1275D
1993.342	0.0	1994794	WORD_OFF	n/a	n/a	FOREST	Landscapes	12	14	[0, 0, 0]	n/a	catFR1	0	R1275D
1993.342	0.0	1994794	ENCODING_END	n/a	n/a	n/a	n/a	-999	14	[0, 0, 0]	n/a	catFR1	0	R1275D
1993.342	0.0	1994794	DISTRACT_START	n/a	n/a	n/a	n/a	-999	14	[0, 0, 0]	n/a	catFR1	0	R1275D
1993.342	0.016	1994794	START	n/a	n/a	n/a	n/a	-999	14	[-999, -999, -999]	n/a	catFR1	0	R1275D
1993.358	4.134	1994810	PROB	4.1	n/a	n/a	n/a	-999	14	[7, 2, 2]	11.0	catFR1	0	R1275D
1997.492	7.918	1998944	PROB	7.885	n/a	n/a	n/a	-999	14	[7, 8, 9]	24.0	catFR1	0	R1275D
2005.41	4.369	2006862	PROB	4.344	n/a	n/a	n/a	-999	14	[8, 3, 4]	15.0	catFR1	0	R1275D
2009.779	4.558	2011231	PROB	4.558	n/a	n/a	n/a	-999	14	[5, 5, 4]	14.0	catFR1	0	R1275D
2014.337	0.008	2015788	STOP	n/a	n/a	n/a	n/a	-999	14	[-999, -999, -999]	n/a	catFR1	0	R1275D
2014.345	0.634	2015796	DISTRACT_END	n/a	n/a	n/a	n/a	-999	14	[0, 0, 0]	n/a	catFR1	0	R1275D
2014.979	1.6	2016430	RETRIEVAL_ORIENT_START	n/a	n/a	n/a	n/a	-999	14	[0, 0, 0]	n/a	catFR1	0	R1275D
2016.597	0.0	2018048	RETRIEVAL_ORIENT_END	n/a	n/a	n/a	n/a	-999	14	[0, 0, 0]	n/a	catFR1	0	R1275D
2016.597	0.022	2018048	REC_START	n/a	n/a	n/a	n/a	-999	14	[0, 0, 0]	n/a	catFR1	0	R1275D
2016.619	1.102	2018070	REC_WORD	0.022	n/a	HILLS	Landscapes	11	14	[0, 0, 0]	n/a	catFR1	0	R1275D
2017.721	2.552	2019172	REC_WORD	1.124	n/a	FOREST	Landscapes	12	14	[0, 0, 0]	n/a	catFR1	0	R1275D
2020.273	1.161	2021724	REC_WORD	3.676	n/a	CROWBAR	Tools	9	14	[0, 0, 0]	n/a	catFR1	0	R1275D
2021.434	2.556	2022885	REC_WORD	4.837	n/a	SCREWDRIVER	Tools	10	14	[0, 0, 0]	n/a	catFR1	0	R1275D
2023.99	1.748	2025441	REC_WORD	7.393	n/a	MOUSSE	Desserts	1	14	[0, 0, 0]	n/a	catFR1	0	R1275D
2025.738	1.009	2027189	REC_WORD	9.141	n/a	CUPCAKE	Desserts	7	14	[0, 0, 0]	n/a	catFR1	0	R1275D
2026.747	5.03	2028198	REC_WORD	10.15	n/a	CAKE	Desserts	8	14	[0, 0, 0]	n/a	catFR1	0	R1275D
2031.777	7.199	2033227	REC_WORD_VV	15.18	n/a	<>	n/a	-999	14	[0, 0, 0]	n/a	catFR1	0	R1275D
2038.976	2.842	2040426	REC_WORD_VV	22.379	n/a	<>	n/a	-999	14	[0, 0, 0]	n/a	catFR1	0	R1275D
2041.818	4.793	2043268	REC_WORD_VV	25.221	n/a	<>	n/a	-999	14	[0, 0, 0]	n/a	catFR1	0	R1275D
2046.611	0.0	2048061	REC_END	n/a	n/a	n/a	n/a	-999	14	[0, 0, 0]	n/a	catFR1	0	R1275D
2046.611	0.024	2048061	TRIAL_END	n/a	n/a	n/a	n/a	-999	14	[0, 0, 0]	n/a	catFR1	0	R1275D
2046.635	0.0	2048085	TRIAL_START	n/a	n/a	n/a	n/a	-999	15	[0, 0, 0]	n/a	catFR1	0	R1275D
2046.635	0.0	2048085	TRIAL	n/a	n/a	n/a	n/a	-999	15	[0, 0, 0]	n/a	catFR1	0	R1275D
2046.635	1.633	2048085	WAITING_START	n/a	n/a	n/a	n/a	-999	15	[0, 0, 0]	n/a	catFR1	0	R1275D
2048.268	0.001	2049718	WAITING_END	n/a	n/a	n/a	n/a	-999	15	[0, 0, 0]	n/a	catFR1	0	R1275D
2048.269	10.0	2049719	COUNTDOWN_START	n/a	n/a	n/a	n/a	-999	15	[0, 0, 0]	n/a	catFR1	0	R1275D
2058.698	0.0	2060147	COUNTDOWN_END	n/a	n/a	n/a	n/a	-999	15	[0, 0, 0]	n/a	catFR1	0	R1275D
2058.698	1.107	2060147	ORIENT_START	n/a	n/a	n/a	n/a	-999	15	[0, 0, 0]	n/a	catFR1	0	R1275D
2059.805	0.0	2061254	ORIENT_END	n/a	n/a	n/a	n/a	-999	15	[0, 0, 0]	n/a	catFR1	0	R1275D
2059.805	0.818	2061254	ENCODING_START	n/a	n/a	n/a	n/a	-999	15	[0, 0, 0]	n/a	catFR1	0	R1275D
2060.623	1.6	2062072	WORD	n/a	wordpools/wordpool_categorized_EN.txt	DRESS	Clothing	1	15	[0, 0, 0]	n/a	catFR1	0	R1275D
2062.254	1.106	2063703	WORD_OFF	n/a	n/a	DRESS	Clothing	1	15	[0, 0, 0]	n/a	catFR1	0	R1275D
2063.36	1.6	2064809	WORD	n/a	wordpools/wordpool_categorized_EN.txt	SKIRT	Clothing	2	15	[0, 0, 0]	n/a	catFR1	0	R1275D
2064.989	1.055	2066438	WORD_OFF	n/a	n/a	SKIRT	Clothing	2	15	[0, 0, 0]	n/a	catFR1	0	R1275D
2066.044	1.6	2067493	WORD	n/a	wordpools/wordpool_categorized_EN.txt	JELLYFISH	OceanAnimals	3	15	[0, 0, 0]	n/a	catFR1	0	R1275D
2067.673	0.805	2069122	WORD_OFF	n/a	n/a	JELLYFISH	OceanAnimals	3	15	[0, 0, 0]	n/a	catFR1	0	R1275D
2068.478	1.6	2069927	WORD	n/a	wordpools/wordpool_categorized_EN.txt	DOLPHIN	OceanAnimals	4	15	[0, 0, 0]	n/a	catFR1	0	R1275D
2070.09	1.049	2071538	WORD_OFF	n/a	n/a	DOLPHIN	OceanAnimals	4	15	[0, 0, 0]	n/a	catFR1	0	R1275D
2071.139	1.6	2072587	WORD	n/a	wordpools/wordpool_categorized_EN.txt	PAPER	OfficeSupplies	5	15	[0, 0, 0]	n/a	catFR1	0	R1275D
2072.774	1.104	2074222	WORD_OFF	n/a	n/a	PAPER	OfficeSupplies	5	15	[0, 0, 0]	n/a	catFR1	0	R1275D
2073.878	1.6	2075326	WORD	n/a	wordpools/wordpool_categorized_EN.txt	PEN	OfficeSupplies	6	15	[0, 0, 0]	n/a	catFR1	0	R1275D
2075.507	1.107	2076955	WORD_OFF	n/a	n/a	PEN	OfficeSupplies	6	15	[0, 0, 0]	n/a	catFR1	0	R1275D
2076.614	1.6	2078062	WORD	n/a	wordpools/wordpool_categorized_EN.txt	PLANKTON	OceanAnimals	7	15	[0, 0, 0]	n/a	catFR1	0	R1275D
2078.24	0.928	2079688	WORD_OFF	n/a	n/a	PLANKTON	OceanAnimals	7	15	[0, 0, 0]	n/a	catFR1	0	R1275D
2079.168	1.6	2080616	WORD	n/a	wordpools/wordpool_categorized_EN.txt	OCTOPUS	OceanAnimals	8	15	[0, 0, 0]	n/a	catFR1	0	R1275D
2080.792	0.895	2082240	WORD_OFF	n/a	n/a	OCTOPUS	OceanAnimals	8	15	[0, 0, 0]	n/a	catFR1	0	R1275D
2081.687	1.6	2083135	WORD	n/a	wordpools/wordpool_categorized_EN.txt	STAPLER	OfficeSupplies	9	15	[0, 0, 0]	n/a	catFR1	0	R1275D
2083.325	0.756	2084773	WORD_OFF	n/a	n/a	STAPLER	OfficeSupplies	9	15	[0, 0, 0]	n/a	catFR1	0	R1275D
2084.081	1.6	2085529	WORD	n/a	wordpools/wordpool_categorized_EN.txt	GLUE	OfficeSupplies	10	15	[0, 0, 0]	n/a	catFR1	0	R1275D
2085.71	0.835	2087158	WORD_OFF	n/a	n/a	GLUE	OfficeSupplies	10	15	[0, 0, 0]	n/a	catFR1	0	R1275D
2086.545	1.6	2087993	WORD	n/a	wordpools/wordpool_categorized_EN.txt	UNDERWEAR	Clothing	11	15	[0, 0, 0]	n/a	catFR1	0	R1275D
2088.177	0.767	2089625	WORD_OFF	n/a	n/a	UNDERWEAR	Clothing	11	15	[0, 0, 0]	n/a	catFR1	0	R1275D
2088.944	1.6	2090391	WORD	n/a	wordpools/wordpool_categorized_EN.txt	SHORTS	Clothing	12	15	[0, 0, 0]	n/a	catFR1	0	R1275D
2090.577	0.001	2092024	WORD_OFF	n/a	n/a	SHORTS	Clothing	12	15	[0, 0, 0]	n/a	catFR1	0	R1275D
2090.578	0.0	2092025	ENCODING_END	n/a	n/a	n/a	n/a	-999	15	[0, 0, 0]	n/a	catFR1	0	R1275D
2090.578	0.0	2092025	DISTRACT_START	n/a	n/a	n/a	n/a	-999	15	[0, 0, 0]	n/a	catFR1	0	R1275D
2090.578	0.015	2092025	START	n/a	n/a	n/a	n/a	-999	15	[-999, -999, -999]	n/a	catFR1	0	R1275D
2090.593	4.401	2092040	PROB	4.368	n/a	n/a	n/a	-999	15	[9, 1, 4]	14.0	catFR1	0	R1275D
2094.994	4.818	2096441	PROB	4.791	n/a	n/a	n/a	-999	15	[8, 4, 9]	21.0	catFR1	0	R1275D
2099.812	5.45	2101259	PROB	5.426	n/a	n/a	n/a	-999	15	[7, 5, 9]	21.0	catFR1	0	R1275D
2105.262	3.0	2106709	PROB	2.967	n/a	n/a	n/a	-999	15	[1, 1, 1]	3.0	catFR1	0	R1275D
2108.262	8.106	2109708	PROB	8.106	n/a	n/a	n/a	-999	15	[7, 6, 5]	18.0	catFR1	0	R1275D
2116.368	0.013	2117814	STOP	n/a	n/a	n/a	n/a	-999	15	[-999, -999, -999]	n/a	catFR1	0	R1275D
2116.381	0.575	2117827	DISTRACT_END	n/a	n/a	n/a	n/a	-999	15	[0, 0, 0]	n/a	catFR1	0	R1275D
2116.956	1.6	2118402	RETRIEVAL_ORIENT_START	n/a	n/a	n/a	n/a	-999	15	[0, 0, 0]	n/a	catFR1	0	R1275D
2118.532	0.0	2119978	RETRIEVAL_ORIENT_END	n/a	n/a	n/a	n/a	-999	15	[0, 0, 0]	n/a	catFR1	0	R1275D
2118.532	0.024	2119978	REC_START	n/a	n/a	n/a	n/a	-999	15	[0, 0, 0]	n/a	catFR1	0	R1275D
2118.556	1.225	2120002	REC_WORD	0.024	n/a	SHORTS	Clothing	12	15	[0, 0, 0]	n/a	catFR1	0	R1275D
2119.781	1.542	2121227	REC_WORD	1.249	n/a	DRESS	Clothing	1	15	[0, 0, 0]	n/a	catFR1	0	R1275D
2121.323	1.869	2122769	REC_WORD_VV	2.791	n/a	<>	n/a	-999	15	[0, 0, 0]	n/a	catFR1	0	R1275D
2123.192	3.459	2124638	REC_WORD	4.66	n/a	UNDERWEAR	Clothing	11	15	[0, 0, 0]	n/a	catFR1	0	R1275D
2126.651	4.393	2128097	REC_WORD_VV	8.119	n/a	<>	n/a	-999	15	[0, 0, 0]	n/a	catFR1	0	R1275D
2131.044	7.099	2132489	REC_WORD	12.512	n/a	SKIRT	Clothing	2	15	[0, 0, 0]	n/a	catFR1	0	R1275D
2138.143	10.404	2139588	REC_WORD_VV	19.611	n/a	<>	n/a	-999	15	[0, 0, 0]	n/a	catFR1	0	R1275D
2148.547	0.0	2149991	REC_END	n/a	n/a	n/a	n/a	-999	15	[0, 0, 0]	n/a	catFR1	0	R1275D
2148.547	0.021	2149991	TRIAL_END	n/a	n/a	n/a	n/a	-999	15	[0, 0, 0]	n/a	catFR1	0	R1275D
2148.568	0.001	2150012	TRIAL_START	n/a	n/a	n/a	n/a	-999	16	[0, 0, 0]	n/a	catFR1	0	R1275D
2148.569	0.0	2150013	TRIAL	n/a	n/a	n/a	n/a	-999	16	[0, 0, 0]	n/a	catFR1	0	R1275D
2148.569	1.768	2150013	WAITING_START	n/a	n/a	n/a	n/a	-999	16	[0, 0, 0]	n/a	catFR1	0	R1275D
2150.337	0.0	2151781	WAITING_END	n/a	n/a	n/a	n/a	-999	16	[0, 0, 0]	n/a	catFR1	0	R1275D
2150.337	10.0	2151781	COUNTDOWN_START	n/a	n/a	n/a	n/a	-999	16	[0, 0, 0]	n/a	catFR1	0	R1275D
2160.767	0.0	2162211	COUNTDOWN_END	n/a	n/a	n/a	n/a	-999	16	[0, 0, 0]	n/a	catFR1	0	R1275D
2160.767	1.039	2162211	ORIENT_START	n/a	n/a	n/a	n/a	-999	16	[0, 0, 0]	n/a	catFR1	0	R1275D
2161.806	0.001	2163250	ORIENT_END	n/a	n/a	n/a	n/a	-999	16	[0, 0, 0]	n/a	catFR1	0	R1275D
2161.807	1.052	2163251	ENCODING_START	n/a	n/a	n/a	n/a	-999	16	[0, 0, 0]	n/a	catFR1	0	R1275D
2162.859	1.6	2164303	WORD	n/a	wordpools/wordpool_categorized_EN.txt	TURTLE	OceanAnimals	1	16	[0, 0, 0]	n/a	catFR1	0	R1275D
2164.49	1.09	2165934	WORD_OFF	n/a	n/a	TURTLE	OceanAnimals	1	16	[0, 0, 0]	n/a	catFR1	0	R1275D
2165.58	1.6	2167023	WORD	n/a	wordpools/wordpool_categorized_EN.txt	LOBSTER	OceanAnimals	2	16	[0, 0, 0]	n/a	catFR1	0	R1275D
2167.207	0.821	2168650	WORD_OFF	n/a	n/a	LOBSTER	OceanAnimals	2	16	[0, 0, 0]	n/a	catFR1	0	R1275D
2168.028	1.6	2169471	WORD	n/a	wordpools/wordpool_categorized_EN.txt	MOPED	Vehicles	3	16	[0, 0, 0]	n/a	catFR1	0	R1275D
2169.658	0.89	2171101	WORD_OFF	n/a	n/a	MOPED	Vehicles	3	16	[0, 0, 0]	n/a	catFR1	0	R1275D
2170.548	1.6	2171991	WORD	n/a	wordpools/wordpool_categorized_EN.txt	PLANE	Vehicles	4	16	[0, 0, 0]	n/a	catFR1	0	R1275D
2172.175	1.142	2173618	WORD_OFF	n/a	n/a	PLANE	Vehicles	4	16	[0, 0, 0]	n/a	catFR1	0	R1275D
2173.317	1.6	2174760	WORD	n/a	wordpools/wordpool_categorized_EN.txt	WIND	Weather	5	16	[0, 0, 0]	n/a	catFR1	0	R1275D
2174.926	0.884	2176369	WORD_OFF	n/a	n/a	WIND	Weather	5	16	[0, 0, 0]	n/a	catFR1	0	R1275D
2175.81	1.6	2177253	WORD	n/a	wordpools/wordpool_categorized_EN.txt	HUMIDITY	Weather	6	16	[0, 0, 0]	n/a	catFR1	0	R1275D
2177.442	0.782	2178885	WORD_OFF	n/a	n/a	HUMIDITY	Weather	6	16	[0, 0, 0]	n/a	catFR1	0	R1275D
2178.224	1.6	2179667	WORD	n/a	wordpools/wordpool_categorized_EN.txt	FISH	OceanAnimals	7	16	[0, 0, 0]	n/a	catFR1	0	R1275D
2179.843	0.766	2181286	WORD_OFF	n/a	n/a	FISH	OceanAnimals	7	16	[0, 0, 0]	n/a	catFR1	0	R1275D
2180.609	1.6	2182052	WORD	n/a	wordpools/wordpool_categorized_EN.txt	SQUID	OceanAnimals	8	16	[0, 0, 0]	n/a	catFR1	0	R1275D
2182.243	0.907	2183686	WORD_OFF	n/a	n/a	SQUID	OceanAnimals	8	16	[0, 0, 0]	n/a	catFR1	0	R1275D
2183.15	1.6	2184593	WORD	n/a	wordpools/wordpool_categorized_EN.txt	SNOW	Weather	9	16	[0, 0, 0]	n/a	catFR1	0	R1275D
2184.778	0.877	2186220	WORD_OFF	n/a	n/a	SNOW	Weather	9	16	[0, 0, 0]	n/a	catFR1	0	R1275D
2185.655	1.6	2187097	WORD	n/a	wordpools/wordpool_categorized_EN.txt	LIGHTNING	Weather	10	16	[0, 0, 0]	n/a	catFR1	0	R1275D
2187.277	1.135	2188719	WORD_OFF	n/a	n/a	LIGHTNING	Weather	10	16	[0, 0, 0]	n/a	catFR1	0	R1275D
2188.412	1.6	2189854	WORD	n/a	wordpools/wordpool_categorized_EN.txt	JEEP	Vehicles	11	16	[0, 0, 0]	n/a	catFR1	0	R1275D
2190.028	0.916	2191470	WORD_OFF	n/a	n/a	JEEP	Vehicles	11	16	[0, 0, 0]	n/a	catFR1	0	R1275D
2190.944	1.6	2192386	WORD	n/a	wordpools/wordpool_categorized_EN.txt	CAR	Vehicles	12	16	[0, 0, 0]	n/a	catFR1	0	R1275D
2192.579	0.0	2194021	WORD_OFF	n/a	n/a	CAR	Vehicles	12	16	[0, 0, 0]	n/a	catFR1	0	R1275D
2192.579	0.001	2194021	ENCODING_END	n/a	n/a	n/a	n/a	-999	16	[0, 0, 0]	n/a	catFR1	0	R1275D
2192.58	0.0	2194022	DISTRACT_START	n/a	n/a	n/a	n/a	-999	16	[0, 0, 0]	n/a	catFR1	0	R1275D
2192.58	0.015	2194022	START	n/a	n/a	n/a	n/a	-999	16	[-999, -999, -999]	n/a	catFR1	0	R1275D
2192.595	4.968	2194037	PROB	4.938	n/a	n/a	n/a	-999	16	[6, 4, 9]	19.0	catFR1	0	R1275D
2197.563	7.568	2199005	PROB	7.533	n/a	n/a	n/a	-999	16	[4, 9, 3]	16.0	catFR1	0	R1275D
2205.131	6.018	2206572	PROB	5.985	n/a	n/a	n/a	-999	16	[2, 9, 7]	18.0	catFR1	0	R1275D
2211.149	5.015	2212590	PROB	5.015	n/a	n/a	n/a	-999	16	[5, 7, 9]	21.0	catFR1	0	R1275D
2216.164	0.019	2217605	STOP	n/a	n/a	n/a	n/a	-999	16	[-999, -999, -999]	n/a	catFR1	0	R1275D
2216.183	0.538	2217624	DISTRACT_END	n/a	n/a	n/a	n/a	-999	16	[0, 0, 0]	n/a	catFR1	0	R1275D
2216.721	1.6	2218162	RETRIEVAL_ORIENT_START	n/a	n/a	n/a	n/a	-999	16	[0, 0, 0]	n/a	catFR1	0	R1275D
2218.449	0.001	2219890	RETRIEVAL_ORIENT_END	n/a	n/a	n/a	n/a	-999	16	[0, 0, 0]	n/a	catFR1	0	R1275D
2218.45	0.148	2219891	REC_START	n/a	n/a	n/a	n/a	-999	16	[0, 0, 0]	n/a	catFR1	0	R1275D
2218.598	1.549	2220039	REC_WORD	0.148	n/a	JEEP	Vehicles	11	16	[0, 0, 0]	n/a	catFR1	0	R1275D
2220.147	1.975	2221588	REC_WORD	1.697	n/a	SNOW	Weather	9	16	[0, 0, 0]	n/a	catFR1	0	R1275D
2222.122	8.405	2223563	REC_WORD	3.672	n/a	WIND	Weather	5	16	[0, 0, 0]	n/a	catFR1	0	R1275D
2230.527	4.266	2231967	REC_WORD	12.077	n/a	MOPED	Vehicles	3	16	[0, 0, 0]	n/a	catFR1	0	R1275D
2234.793	11.187	2236233	REC_WORD	16.343	n/a	LIGHTNING	Weather	10	16	[0, 0, 0]	n/a	catFR1	0	R1275D
2245.98	2.482	2247419	REC_WORD_VV	27.53	n/a	<>	n/a	-999	16	[0, 0, 0]	n/a	catFR1	0	R1275D
2248.462	0.0	2249901	REC_END	n/a	n/a	n/a	n/a	-999	16	[0, 0, 0]	n/a	catFR1	0	R1275D
2248.462	0.027	2249901	TRIAL_END	n/a	n/a	n/a	n/a	-999	16	[0, 0, 0]	n/a	catFR1	0	R1275D
2248.489	0.0	2249928	TRIAL_START	n/a	n/a	n/a	n/a	-999	17	[0, 0, 0]	n/a	catFR1	0	R1275D
2248.489	0.0	2249928	TRIAL	n/a	n/a	n/a	n/a	-999	17	[0, 0, 0]	n/a	catFR1	0	R1275D
2248.489	1.351	2249928	WAITING_START	n/a	n/a	n/a	n/a	-999	17	[0, 0, 0]	n/a	catFR1	0	R1275D
2249.84	0.0	2251279	WAITING_END	n/a	n/a	n/a	n/a	-999	17	[0, 0, 0]	n/a	catFR1	0	R1275D
2249.84	10.0	2251279	COUNTDOWN_START	n/a	n/a	n/a	n/a	-999	17	[0, 0, 0]	n/a	catFR1	0	R1275D
2260.268	0.001	2261707	COUNTDOWN_END	n/a	n/a	n/a	n/a	-999	17	[0, 0, 0]	n/a	catFR1	0	R1275D
2260.269	1.105	2261708	ORIENT_START	n/a	n/a	n/a	n/a	-999	17	[0, 0, 0]	n/a	catFR1	0	R1275D
2261.374	0.0	2262812	ORIENT_END	n/a	n/a	n/a	n/a	-999	17	[0, 0, 0]	n/a	catFR1	0	R1275D
2261.374	1.044	2262812	ENCODING_START	n/a	n/a	n/a	n/a	-999	17	[0, 0, 0]	n/a	catFR1	0	R1275D
2262.418	1.6	2263856	WORD	n/a	wordpools/wordpool_categorized_EN.txt	FLOOR	Building	1	17	[0, 0, 0]	n/a	catFR1	0	R1275D
2264.042	0.908	2265480	WORD_OFF	n/a	n/a	FLOOR	Building	1	17	[0, 0, 0]	n/a	catFR1	0	R1275D
2264.95	1.6	2266388	WORD	n/a	wordpools/wordpool_categorized_EN.txt	STAIRS	Building	2	17	[0, 0, 0]	n/a	catFR1	0	R1275D
2266.576	1.096	2268014	WORD_OFF	n/a	n/a	STAIRS	Building	2	17	[0, 0, 0]	n/a	catFR1	0	R1275D
2267.672	1.6	2269110	WORD	n/a	wordpools/wordpool_categorized_EN.txt	FOOTBALL	Toys	3	17	[0, 0, 0]	n/a	catFR1	0	R1275D
2269.309	1.057	2270747	WORD_OFF	n/a	n/a	FOOTBALL	Toys	3	17	[0, 0, 0]	n/a	catFR1	0	R1275D
2270.366	1.6	2271804	WORD	n/a	wordpools/wordpool_categorized_EN.txt	BALL	Toys	4	17	[0, 0, 0]	n/a	catFR1	0	R1275D
2271.993	1.052	2273431	WORD_OFF	n/a	n/a	BALL	Toys	4	17	[0, 0, 0]	n/a	catFR1	0	R1275D
2273.045	1.6	2274483	WORD	n/a	wordpools/wordpool_categorized_EN.txt	MONKEY	Zoo	5	17	[0, 0, 0]	n/a	catFR1	0	R1275D
2274.677	1.013	2276115	WORD_OFF	n/a	n/a	MONKEY	Zoo	5	17	[0, 0, 0]	n/a	catFR1	0	R1275D
2275.69	1.6	2277128	WORD	n/a	wordpools/wordpool_categorized_EN.txt	ORANGUTAN	Zoo	6	17	[0, 0, 0]	n/a	catFR1	0	R1275D
2277.327	1.055	2278765	WORD_OFF	n/a	n/a	ORANGUTAN	Zoo	6	17	[0, 0, 0]	n/a	catFR1	0	R1275D
2278.382	1.6	2279820	WORD	n/a	wordpools/wordpool_categorized_EN.txt	HALLWAY	Building	7	17	[0, 0, 0]	n/a	catFR1	0	R1275D
2279.995	1.1	2281433	WORD_OFF	n/a	n/a	HALLWAY	Building	7	17	[0, 0, 0]	n/a	catFR1	0	R1275D
2281.095	1.6	2282532	WORD	n/a	wordpools/wordpool_categorized_EN.txt	WALL	Building	8	17	[0, 0, 0]	n/a	catFR1	0	R1275D
2282.729	0.774	2284166	WORD_OFF	n/a	n/a	WALL	Building	8	17	[0, 0, 0]	n/a	catFR1	0	R1275D
2283.503	1.6	2284940	WORD	n/a	wordpools/wordpool_categorized_EN.txt	BLOCKS	Toys	9	17	[0, 0, 0]	n/a	catFR1	0	R1275D
2285.112	0.905	2286549	WORD_OFF	n/a	n/a	BLOCKS	Toys	9	17	[0, 0, 0]	n/a	catFR1	0	R1275D
2286.017	1.6	2287454	WORD	n/a	wordpools/wordpool_categorized_EN.txt	DOLLHOUSE	Toys	10	17	[0, 0, 0]	n/a	catFR1	0	R1275D
2287.646	0.927	2289083	WORD_OFF	n/a	n/a	DOLLHOUSE	Toys	10	17	[0, 0, 0]	n/a	catFR1	0	R1275D
2288.573	1.6	2290010	WORD	n/a	wordpools/wordpool_categorized_EN.txt	CHIMPANZEE	Zoo	11	17	[0, 0, 0]	n/a	catFR1	0	R1275D
2290.197	0.871	2291634	WORD_OFF	n/a	n/a	CHIMPANZEE	Zoo	11	17	[0, 0, 0]	n/a	catFR1	0	R1275D
2291.068	1.6	2292505	WORD	n/a	wordpools/wordpool_categorized_EN.txt	ELEPHANT	Zoo	12	17	[0, 0, 0]	n/a	catFR1	0	R1275D
2292.697	0.001	2294134	WORD_OFF	n/a	n/a	ELEPHANT	Zoo	12	17	[0, 0, 0]	n/a	catFR1	0	R1275D
2292.698	0.0	2294135	ENCODING_END	n/a	n/a	n/a	n/a	-999	17	[0, 0, 0]	n/a	catFR1	0	R1275D
2292.698	0.0	2294135	DISTRACT_START	n/a	n/a	n/a	n/a	-999	17	[0, 0, 0]	n/a	catFR1	0	R1275D
2292.698	0.016	2294135	START	n/a	n/a	n/a	n/a	-999	17	[-999, -999, -999]	n/a	catFR1	0	R1275D
2292.714	4.516	2294151	PROB	4.492	n/a	n/a	n/a	-999	17	[8, 6, 4]	18.0	catFR1	0	R1275D
2297.23	4.685	2298667	PROB	4.649	n/a	n/a	n/a	-999	17	[8, 6, 2]	16.0	catFR1	0	R1275D
2301.915	5.45	2303351	PROB	5.412	n/a	n/a	n/a	-999	17	[4, 8, 4]	18.0	catFR1	0	R1275D
2307.365	5.559	2308801	PROB	5.559	n/a	n/a	n/a	-999	17	[9, 5, 6]	20.0	catFR1	0	R1275D
2312.924	0.01	2314360	STOP	n/a	n/a	n/a	n/a	-999	17	[-999, -999, -999]	n/a	catFR1	0	R1275D
2312.934	0.525	2314370	DISTRACT_END	n/a	n/a	n/a	n/a	-999	17	[0, 0, 0]	n/a	catFR1	0	R1275D
2313.459	1.6	2314895	RETRIEVAL_ORIENT_START	n/a	n/a	n/a	n/a	-999	17	[0, 0, 0]	n/a	catFR1	0	R1275D
2315.018	0.0	2316454	RETRIEVAL_ORIENT_END	n/a	n/a	n/a	n/a	-999	17	[0, 0, 0]	n/a	catFR1	0	R1275D
2315.018	0.188	2316454	REC_START	n/a	n/a	n/a	n/a	-999	17	[0, 0, 0]	n/a	catFR1	0	R1275D
2315.206	9.96	2316642	REC_WORD	0.188	n/a	CHIMPANZEE	Zoo	11	17	[0, 0, 0]	n/a	catFR1	0	R1275D
2325.166	19.866	2326601	REC_WORD_VV	10.148	n/a	<>	n/a	-999	17	[0, 0, 0]	n/a	catFR1	0	R1275D
2345.032	0.0	2346466	REC_END	n/a	n/a	n/a	n/a	-999	17	[0, 0, 0]	n/a	catFR1	0	R1275D
2345.032	0.022	2346466	TRIAL_END	n/a	n/a	n/a	n/a	-999	17	[0, 0, 0]	n/a	catFR1	0	R1275D
2345.054	0.0	2346488	TRIAL_START	n/a	n/a	n/a	n/a	-999	18	[0, 0, 0]	n/a	catFR1	0	R1275D
2345.054	0.001	2346488	TRIAL	n/a	n/a	n/a	n/a	-999	18	[0, 0, 0]	n/a	catFR1	0	R1275D
2345.055	1.535	2346489	WAITING_START	n/a	n/a	n/a	n/a	-999	18	[0, 0, 0]	n/a	catFR1	0	R1275D
2346.59	0.001	2348024	WAITING_END	n/a	n/a	n/a	n/a	-999	18	[0, 0, 0]	n/a	catFR1	0	R1275D
2346.591	10.0	2348025	COUNTDOWN_START	n/a	n/a	n/a	n/a	-999	18	[0, 0, 0]	n/a	catFR1	0	R1275D
2357.019	0.0	2358452	COUNTDOWN_END	n/a	n/a	n/a	n/a	-999	18	[0, 0, 0]	n/a	catFR1	0	R1275D
2357.019	1.09	2358452	ORIENT_START	n/a	n/a	n/a	n/a	-999	18	[0, 0, 0]	n/a	catFR1	0	R1275D
2358.109	0.001	2359542	ORIENT_END	n/a	n/a	n/a	n/a	-999	18	[0, 0, 0]	n/a	catFR1	0	R1275D
2358.11	0.817	2359543	ENCODING_START	n/a	n/a	n/a	n/a	-999	18	[0, 0, 0]	n/a	catFR1	0	R1275D
2358.927	1.6	2360360	WORD	n/a	wordpools/wordpool_categorized_EN.txt	DOOR	Building	1	18	[0, 0, 0]	n/a	catFR1	0	R1275D
2360.56	0.755	2361993	WORD_OFF	n/a	n/a	DOOR	Building	1	18	[0, 0, 0]	n/a	catFR1	0	R1275D
2361.315	1.6	2362748	WORD	n/a	wordpools/wordpool_categorized_EN.txt	CEILING	Building	2	18	[0, 0, 0]	n/a	catFR1	0	R1275D
2362.927	0.92	2364360	WORD_OFF	n/a	n/a	CEILING	Building	2	18	[0, 0, 0]	n/a	catFR1	0	R1275D
2363.847	1.6	2365280	WORD	n/a	wordpools/wordpool_categorized_EN.txt	CHEESECAKE	Desserts	3	18	[0, 0, 0]	n/a	catFR1	0	R1275D
2365.476	1.076	2366909	WORD_OFF	n/a	n/a	CHEESECAKE	Desserts	3	18	[0, 0, 0]	n/a	catFR1	0	R1275D
2366.552	1.6	2367985	WORD	n/a	wordpools/wordpool_categorized_EN.txt	COBBLER	Desserts	4	18	[0, 0, 0]	n/a	catFR1	0	R1275D
2368.178	0.874	2369611	WORD_OFF	n/a	n/a	COBBLER	Desserts	4	18	[0, 0, 0]	n/a	catFR1	0	R1275D
2369.052	1.6	2370485	WORD	n/a	wordpools/wordpool_categorized_EN.txt	ROSE	Flowers	5	18	[0, 0, 0]	n/a	catFR1	0	R1275D
2370.678	0.951	2372111	WORD_OFF	n/a	n/a	ROSE	Flowers	5	18	[0, 0, 0]	n/a	catFR1	0	R1275D
2371.629	1.6	2373062	WORD	n/a	wordpools/wordpool_categorized_EN.txt	LILY	Flowers	6	18	[0, 0, 0]	n/a	catFR1	0	R1275D
2373.261	1.11	2374694	WORD_OFF	n/a	n/a	LILY	Flowers	6	18	[0, 0, 0]	n/a	catFR1	0	R1275D
2374.371	1.6	2375804	WORD	n/a	wordpools/wordpool_categorized_EN.txt	JELLO	Desserts	7	18	[0, 0, 0]	n/a	catFR1	0	R1275D
2375.979	0.825	2377411	WORD_OFF	n/a	n/a	JELLO	Desserts	7	18	[0, 0, 0]	n/a	catFR1	0	R1275D
2376.804	1.6	2378236	WORD	n/a	wordpools/wordpool_categorized_EN.txt	PIE	Desserts	8	18	[0, 0, 0]	n/a	catFR1	0	R1275D
2378.429	0.912	2379861	WORD_OFF	n/a	n/a	PIE	Desserts	8	18	[0, 0, 0]	n/a	catFR1	0	R1275D
2379.341	1.6	2380773	WORD	n/a	wordpools/wordpool_categorized_EN.txt	ROOF	Building	9	18	[0, 0, 0]	n/a	catFR1	0	R1275D
2380.98	1.118	2382412	WORD_OFF	n/a	n/a	ROOF	Building	9	18	[0, 0, 0]	n/a	catFR1	0	R1275D
2382.098	1.6	2383530	WORD	n/a	wordpools/wordpool_categorized_EN.txt	WINDOW	Building	10	18	[0, 0, 0]	n/a	catFR1	0	R1275D
2383.731	1.039	2385163	WORD_OFF	n/a	n/a	WINDOW	Building	10	18	[0, 0, 0]	n/a	catFR1	0	R1275D
2384.77	1.6	2386202	WORD	n/a	wordpools/wordpool_categorized_EN.txt	CARNATION	Flowers	11	18	[0, 0, 0]	n/a	catFR1	0	R1275D
2386.397	0.859	2387829	WORD_OFF	n/a	n/a	CARNATION	Flowers	11	18	[0, 0, 0]	n/a	catFR1	0	R1275D
2387.256	1.6	2388688	WORD	n/a	wordpools/wordpool_categorized_EN.txt	MARIGOLD	Flowers	12	18	[0, 0, 0]	n/a	catFR1	0	R1275D
2388.865	0.0	2390297	WORD_OFF	n/a	n/a	MARIGOLD	Flowers	12	18	[0, 0, 0]	n/a	catFR1	0	R1275D
2388.865	0.0	2390297	ENCODING_END	n/a	n/a	n/a	n/a	-999	18	[0, 0, 0]	n/a	catFR1	0	R1275D
2388.865	0.0	2390297	DISTRACT_START	n/a	n/a	n/a	n/a	-999	18	[0, 0, 0]	n/a	catFR1	0	R1275D
2388.865	0.016	2390297	START	n/a	n/a	n/a	n/a	-999	18	[-999, -999, -999]	n/a	catFR1	0	R1275D
2388.881	6.551	2390313	PROB	6.522	n/a	n/a	n/a	-999	18	[7, 9, 6]	22.0	catFR1	0	R1275D
2395.432	4.451	2396863	PROB	4.42	n/a	n/a	n/a	-999	18	[8, 3, 6]	17.0	catFR1	0	R1275D
2399.883	3.467	2401314	PROB	3.432	n/a	n/a	n/a	-999	18	[1, 6, 8]	15.0	catFR1	0	R1275D
2403.35	7.101	2404781	PROB	7.101	n/a	n/a	n/a	-999	18	[8, 7, 8]	23.0	catFR1	0	R1275D
2410.451	0.017	2411882	STOP	n/a	n/a	n/a	n/a	-999	18	[-999, -999, -999]	n/a	catFR1	0	R1275D
2410.468	0.653	2411899	DISTRACT_END	n/a	n/a	n/a	n/a	-999	18	[0, 0, 0]	n/a	catFR1	0	R1275D
2411.121	1.6	2412552	RETRIEVAL_ORIENT_START	n/a	n/a	n/a	n/a	-999	18	[0, 0, 0]	n/a	catFR1	0	R1275D
2412.736	0.0	2414167	RETRIEVAL_ORIENT_END	n/a	n/a	n/a	n/a	-999	18	[0, 0, 0]	n/a	catFR1	0	R1275D
2412.736	1.248	2414167	REC_START	n/a	n/a	n/a	n/a	-999	18	[0, 0, 0]	n/a	catFR1	0	R1275D
2413.984	1.798	2415415	REC_WORD	1.248	n/a	MARIGOLD	Flowers	12	18	[0, 0, 0]	n/a	catFR1	0	R1275D
2415.782	2.504	2417212	REC_WORD	3.046	n/a	LILY	Flowers	6	18	[0, 0, 0]	n/a	catFR1	0	R1275D
2418.286	0.799	2419716	REC_WORD	5.55	n/a	ROOF	Building	9	18	[0, 0, 0]	n/a	catFR1	0	R1275D
2419.085	4.471	2420515	REC_WORD	6.349	n/a	WINDOW	Building	10	18	[0, 0, 0]	n/a	catFR1	0	R1275D
2423.556	12.066	2424986	REC_WORD_VV	10.82	n/a	<>	n/a	-999	18	[0, 0, 0]	n/a	catFR1	0	R1275D
2435.622	7.127	2437051	REC_WORD_VV	22.886	n/a	<>	n/a	-999	18	[0, 0, 0]	n/a	catFR1	0	R1275D
2442.749	0.0	2444178	REC_END	n/a	n/a	n/a	n/a	-999	18	[0, 0, 0]	n/a	catFR1	0	R1275D
2442.749	0.026	2444178	TRIAL_END	n/a	n/a	n/a	n/a	-999	18	[0, 0, 0]	n/a	catFR1	0	R1275D
2442.775	0.0	2444204	TRIAL_START	n/a	n/a	n/a	n/a	-999	19	[0, 0, 0]	n/a	catFR1	0	R1275D
2442.775	0.001	2444204	TRIAL	n/a	n/a	n/a	n/a	-999	19	[0, 0, 0]	n/a	catFR1	0	R1275D
2442.776	1.232	2444205	WAITING_START	n/a	n/a	n/a	n/a	-999	19	[0, 0, 0]	n/a	catFR1	0	R1275D
2444.008	0.001	2445437	WAITING_END	n/a	n/a	n/a	n/a	-999	19	[0, 0, 0]	n/a	catFR1	0	R1275D
2444.009	10.0	2445438	COUNTDOWN_START	n/a	n/a	n/a	n/a	-999	19	[0, 0, 0]	n/a	catFR1	0	R1275D
2454.438	0.0	2455866	COUNTDOWN_END	n/a	n/a	n/a	n/a	-999	19	[0, 0, 0]	n/a	catFR1	0	R1275D
2454.438	1.156	2455866	ORIENT_START	n/a	n/a	n/a	n/a	-999	19	[0, 0, 0]	n/a	catFR1	0	R1275D
2455.594	0.0	2457022	ORIENT_END	n/a	n/a	n/a	n/a	-999	19	[0, 0, 0]	n/a	catFR1	0	R1275D
2455.594	1.078	2457022	ENCODING_START	n/a	n/a	n/a	n/a	-999	19	[0, 0, 0]	n/a	catFR1	0	R1275D
2456.672	1.6	2458100	WORD	n/a	wordpools/wordpool_categorized_EN.txt	FLUTE	Instruments	1	19	[0, 0, 0]	n/a	catFR1	0	R1275D
2458.293	0.839	2459721	WORD_OFF	n/a	n/a	FLUTE	Instruments	1	19	[0, 0, 0]	n/a	catFR1	0	R1275D
2459.132	1.6	2460560	WORD	n/a	wordpools/wordpool_categorized_EN.txt	BANJO	Instruments	2	19	[0, 0, 0]	n/a	catFR1	0	R1275D
2460.761	0.902	2462189	WORD_OFF	n/a	n/a	BANJO	Instruments	2	19	[0, 0, 0]	n/a	catFR1	0	R1275D
2461.663	1.6	2463091	WORD	n/a	wordpools/wordpool_categorized_EN.txt	WHISK	KitchenTools	3	19	[0, 0, 0]	n/a	catFR1	0	R1275D
2463.294	0.894	2464722	WORD_OFF	n/a	n/a	WHISK	KitchenTools	3	19	[0, 0, 0]	n/a	catFR1	0	R1275D
2464.188	1.6	2465616	WORD	n/a	wordpools/wordpool_categorized_EN.txt	SPATULA	KitchenTools	4	19	[0, 0, 0]	n/a	catFR1	0	R1275D
2465.812	1.099	2467240	WORD_OFF	n/a	n/a	SPATULA	KitchenTools	4	19	[0, 0, 0]	n/a	catFR1	0	R1275D
2466.911	1.6	2468339	WORD	n/a	wordpools/wordpool_categorized_EN.txt	DRIZZLE	Weather	5	19	[0, 0, 0]	n/a	catFR1	0	R1275D
2468.546	0.841	2469974	WORD_OFF	n/a	n/a	DRIZZLE	Weather	5	19	[0, 0, 0]	n/a	catFR1	0	R1275D
2469.387	1.6	2470815	WORD	n/a	wordpools/wordpool_categorized_EN.txt	HURRICANE	Weather	6	19	[0, 0, 0]	n/a	catFR1	0	R1275D
2470.996	1.142	2472424	WORD_OFF	n/a	n/a	HURRICANE	Weather	6	19	[0, 0, 0]	n/a	catFR1	0	R1275D
2472.138	1.6	2473565	WORD	n/a	wordpools/wordpool_categorized_EN.txt	BASS	Instruments	7	19	[0, 0, 0]	n/a	catFR1	0	R1275D
2473.764	0.949	2475191	WORD_OFF	n/a	n/a	BASS	Instruments	7	19	[0, 0, 0]	n/a	catFR1	0	R1275D
2474.713	1.6	2476140	WORD	n/a	wordpools/wordpool_categorized_EN.txt	VIOLIN	Instruments	8	19	[0, 0, 0]	n/a	catFR1	0	R1275D
2476.347	0.786	2477774	WORD_OFF	n/a	n/a	VIOLIN	Instruments	8	19	[0, 0, 0]	n/a	catFR1	0	R1275D
