onset	duration	sample	trial_type	response_time	stim_file	item_name	category	serialpos	list	test	answer	experiment	session	subject
0.0	28.068	38664	SESS_START	n/a	n/a	n/a	n/a	-999	-999	[0, 0, 0]	n/a	catFR1	1	R1111M
28.068	10.428	52697	COUNTDOWN_START	n/a	n/a	n/a	n/a	-999	-999	[0, 0, 0]	n/a	catFR1	1	R1111M
38.496	3.675	57911	COUNTDOWN_END	n/a	n/a	n/a	n/a	-999	-999	[0, 0, 0]	n/a	catFR1	1	R1111M
42.171	2.4	59748	PRACTICE_WORD	n/a	n/a	CHEST	n/a	-999	-999	[0, 0, 0]	n/a	catFR1	1	R1111M
44.571	2.484	60948	PRACTICE_WORD	n/a	n/a	RHINO	n/a	-999	-999	[0, 0, 0]	n/a	catFR1	1	R1111M
47.055	2.501	62190	PRACTICE_WORD	n/a	n/a	WAGON	n/a	-999	-999	[0, 0, 0]	n/a	catFR1	1	R1111M
49.556	2.533	63441	PRACTICE_WORD	n/a	n/a	RING	n/a	-999	-999	[0, 0, 0]	n/a	catFR1	1	R1111M
52.089	2.468	64707	PRACTICE_WORD	n/a	n/a	IRON	n/a	-999	-999	[0, 0, 0]	n/a	catFR1	1	R1111M
54.557	2.583	65941	PRACTICE_WORD	n/a	n/a	ATTIC	n/a	-999	-999	[0, 0, 0]	n/a	catFR1	1	R1111M
57.14	2.468	67232	PRACTICE_WORD	n/a	n/a	CAMEL	n/a	-999	-999	[0, 0, 0]	n/a	catFR1	1	R1111M
59.608	2.617	68466	PRACTICE_WORD	n/a	n/a	FLOOD	n/a	-999	-999	[0, 0, 0]	n/a	catFR1	1	R1111M
62.225	2.567	69775	PRACTICE_WORD	n/a	n/a	COTTON	n/a	-999	-999	[0, 0, 0]	n/a	catFR1	1	R1111M
64.792	2.45	71058	PRACTICE_WORD	n/a	n/a	WATCH	n/a	-999	-999	[0, 0, 0]	n/a	catFR1	1	R1111M
67.242	2.534	72283	PRACTICE_WORD	n/a	n/a	TONGUE	n/a	-999	-999	[0, 0, 0]	n/a	catFR1	1	R1111M
69.776	1.617	73550	PRACTICE_WORD	n/a	n/a	BEAM	n/a	-999	-999	[0, 0, 0]	n/a	catFR1	1	R1111M
71.393	0.001	74359	PRACTICE_DISTRACT_START	n/a	n/a	n/a	n/a	-999	-999	[0, 0, 0]	n/a	catFR1	1	R1111M
71.394	0.016	74359	START	n/a	n/a	n/a	n/a	-999	-1	[-999, -999, -999]	n/a	catFR1	1	R1111M
71.41	27.367	74367	PROB	27.367	n/a	n/a	n/a	-999	-1	[6, 8, 9]	9	catFR1	1	R1111M
98.777	0.005	88050	STOP	n/a	n/a	n/a	n/a	-999	-1	[-999, -999, -999]	n/a	catFR1	1	R1111M
98.782	0.702	88052	PRACTICE_DISTRACT_END	n/a	n/a	n/a	n/a	-999	-999	[0, 0, 0]	n/a	catFR1	1	R1111M
99.484	30.515	88403	PRACTICE_REC_START	n/a	n/a	n/a	n/a	-999	-999	[0, 0, 0]	n/a	catFR1	1	R1111M
129.999	166.238	103660	PRACTICE_REC_END	n/a	n/a	n/a	n/a	-999	-999	[0, 0, 0]	n/a	catFR1	1	R1111M
296.237	0.0	186774	TRIAL	n/a	n/a	n/a	n/a	-999	1	[0, 0, 0]	n/a	catFR1	1	R1111M
296.237	10.428	186774	COUNTDOWN_START	n/a	n/a	n/a	n/a	-999	1	[0, 0, 0]	n/a	catFR1	1	R1111M
306.665	0.007	191988	COUNTDOWN_END	n/a	n/a	n/a	n/a	-999	1	[0, 0, 0]	n/a	catFR1	1	R1111M
306.672	3.601	191991	ORIENT	n/a	n/a	n/a	n/a	-999	1	[0, 0, 0]	n/a	catFR1	1	R1111M
310.273	2.417	193792	WORD	n/a	wordpools/wordpool_categorized_EN.txt	VACUUM	Appliances	1	1	[0, 0, 0]	n/a	catFR1	1	R1111M
312.69	2.467	195000	WORD	n/a	wordpools/wordpool_categorized_EN.txt	DRYER	Appliances	2	1	[0, 0, 0]	n/a	catFR1	1	R1111M
315.157	2.601	196234	WORD	n/a	wordpools/wordpool_categorized_EN.txt	BUTTERFLY	Insects	3	1	[0, 0, 0]	n/a	catFR1	1	R1111M
317.758	2.5	197534	WORD	n/a	wordpools/wordpool_categorized_EN.txt	ROACH	Insects	4	1	[0, 0, 0]	n/a	catFR1	1	R1111M
320.258	2.517	198784	WORD	n/a	wordpools/wordpool_categorized_EN.txt	WILLOW	Trees	5	1	[0, 0, 0]	n/a	catFR1	1	R1111M
322.775	2.384	200042	WORD	n/a	wordpools/wordpool_categorized_EN.txt	WALNUT	Trees	6	1	[0, 0, 0]	n/a	catFR1	1	R1111M
325.159	2.501	201234	WORD	n/a	wordpools/wordpool_categorized_EN.txt	BEE	Insects	7	1	[0, 0, 0]	n/a	catFR1	1	R1111M
327.66	2.483	202485	WORD	n/a	wordpools/wordpool_categorized_EN.txt	BEETLE	Insects	8	1	[0, 0, 0]	n/a	catFR1	1	R1111M
330.143	2.518	203726	WORD	n/a	wordpools/wordpool_categorized_EN.txt	OVEN	Appliances	9	1	[0, 0, 0]	n/a	catFR1	1	R1111M
332.661	2.617	204985	WORD	n/a	wordpools/wordpool_categorized_EN.txt	DISHWASHER	Appliances	10	1	[0, 0, 0]	n/a	catFR1	1	R1111M
335.278	2.4	206294	WORD	n/a	wordpools/wordpool_categorized_EN.txt	CYPRESS	Trees	11	1	[0, 0, 0]	n/a	catFR1	1	R1111M
337.678	1.617	207493	WORD	n/a	wordpools/wordpool_categorized_EN.txt	HICKORY	Trees	12	1	[0, 0, 0]	n/a	catFR1	1	R1111M
339.295	0.001	208302	DISTRACT_START	n/a	n/a	n/a	n/a	-999	1	[0, 0, 0]	n/a	catFR1	1	R1111M
339.296	0.016	208302	START	n/a	n/a	n/a	n/a	-999	1	[-999, -999, -999]	n/a	catFR1	1	R1111M
339.312	12.686	208310	PROB	12.686	n/a	n/a	n/a	-999	1	[4, 7, 5]	16	catFR1	1	R1111M
351.998	11.507	214653	PROB	11.507	n/a	n/a	n/a	-999	1	[8, 9, 7]	24	catFR1	1	R1111M
363.505	0.011	220406	STOP	n/a	n/a	n/a	n/a	-999	1	[-999, -999, -999]	n/a	catFR1	1	R1111M
363.516	1.186	220412	DISTRACT_END	n/a	n/a	n/a	n/a	-999	1	[0, 0, 0]	n/a	catFR1	1	R1111M
364.702	1.403	221005	REC_START	n/a	n/a	n/a	n/a	-999	1	[0, 0, 0]	n/a	catFR1	1	R1111M
366.105	1.105	221706	REC_WORD	1.105	n/a	CYPRESS	Trees	11	1	[0, 0, 0]	n/a	catFR1	1	R1111M
367.21	1.264	222259	REC_WORD	1.264	n/a	HICKORY	Trees	12	1	[0, 0, 0]	n/a	catFR1	1	R1111M
368.474	2.193	222891	REC_WORD	2.193	n/a	DISHWASHER	Appliances	10	1	[0, 0, 0]	n/a	catFR1	1	R1111M
370.667	1.79	223987	REC_WORD	1.79	n/a	OVEN	Appliances	9	1	[0, 0, 0]	n/a	catFR1	1	R1111M
372.457	1.264	224882	REC_WORD	1.264	n/a	ROACH	Insects	4	1	[0, 0, 0]	n/a	catFR1	1	R1111M
373.721	0.951	225514	REC_WORD	0.951	n/a	BEE	Insects	7	1	[0, 0, 0]	n/a	catFR1	1	R1111M
374.672	1.768	225989	REC_WORD	1.768	n/a	BUTTERFLY	Insects	3	1	[0, 0, 0]	n/a	catFR1	1	R1111M
376.44	1.862	226873	REC_WORD	1.862	n/a	VACUUM	Appliances	1	1	[0, 0, 0]	n/a	catFR1	1	R1111M
378.302	9.097	227804	REC_WORD	9.097	n/a	DRYER	Appliances	2	1	[0, 0, 0]	n/a	catFR1	1	R1111M
387.399	3.071	232353	REC_WORD	3.071	n/a	WILLOW	Trees	5	1	[0, 0, 0]	n/a	catFR1	1	R1111M
390.47	4.24	233888	REC_WORD	4.24	n/a	HICKORY	Trees	12	1	[0, 0, 0]	n/a	catFR1	1	R1111M
394.71	10.098	236008	REC_END	n/a	n/a	n/a	n/a	-999	1	[0, 0, 0]	n/a	catFR1	1	R1111M
404.808	0.0	241057	TRIAL	n/a	n/a	n/a	n/a	-999	2	[0, 0, 0]	n/a	catFR1	1	R1111M
404.808	10.428	241057	COUNTDOWN_START	n/a	n/a	n/a	n/a	-999	2	[0, 0, 0]	n/a	catFR1	1	R1111M
415.236	0.007	246270	COUNTDOWN_END	n/a	n/a	n/a	n/a	-999	2	[0, 0, 0]	n/a	catFR1	1	R1111M
415.243	3.451	246274	ORIENT	n/a	n/a	n/a	n/a	-999	2	[0, 0, 0]	n/a	catFR1	1	R1111M
418.694	2.567	247999	WORD	n/a	wordpools/wordpool_categorized_EN.txt	WALL	Building	1	2	[0, 0, 0]	n/a	catFR1	1	R1111M
421.261	2.484	249283	WORD	n/a	wordpools/wordpool_categorized_EN.txt	ROOF	Building	2	2	[0, 0, 0]	n/a	catFR1	1	R1111M
423.745	2.567	250525	WORD	n/a	wordpools/wordpool_categorized_EN.txt	ROOSTER	FarmAnimals	3	2	[0, 0, 0]	n/a	catFR1	1	R1111M
426.312	2.534	251808	WORD	n/a	wordpools/wordpool_categorized_EN.txt	CHICKEN	FarmAnimals	4	2	[0, 0, 0]	n/a	catFR1	1	R1111M
428.846	2.567	253075	WORD	n/a	wordpools/wordpool_categorized_EN.txt	ERASER	OfficeSupplies	5	2	[0, 0, 0]	n/a	catFR1	1	R1111M
431.413	2.584	254358	WORD	n/a	wordpools/wordpool_categorized_EN.txt	BINDER	OfficeSupplies	6	2	[0, 0, 0]	n/a	catFR1	1	R1111M
433.997	2.45	255650	WORD	n/a	wordpools/wordpool_categorized_EN.txt	FLOOR	Building	7	2	[0, 0, 0]	n/a	catFR1	1	R1111M
436.447	2.501	256875	WORD	n/a	wordpools/wordpool_categorized_EN.txt	WINDOW	Building	8	2	[0, 0, 0]	n/a	catFR1	1	R1111M
438.948	2.55	258126	WORD	n/a	wordpools/wordpool_categorized_EN.txt	NOTEBOOK	OfficeSupplies	9	2	[0, 0, 0]	n/a	catFR1	1	R1111M
441.498	2.401	259401	WORD	n/a	wordpools/wordpool_categorized_EN.txt	PAPER	OfficeSupplies	10	2	[0, 0, 0]	n/a	catFR1	1	R1111M
443.899	2.417	260601	WORD	n/a	wordpools/wordpool_categorized_EN.txt	COW	FarmAnimals	11	2	[0, 0, 0]	n/a	catFR1	1	R1111M
446.316	1.617	261809	WORD	n/a	wordpools/wordpool_categorized_EN.txt	CALF	FarmAnimals	12	2	[0, 0, 0]	n/a	catFR1	1	R1111M
447.933	0.001	262618	DISTRACT_START	n/a	n/a	n/a	n/a	-999	2	[0, 0, 0]	n/a	catFR1	1	R1111M
447.934	0.015	262618	START	n/a	n/a	n/a	n/a	-999	2	[-999, -999, -999]	n/a	catFR1	1	R1111M
447.949	11.819	262626	PROB	11.819	n/a	n/a	n/a	-999	2	[5, 8, 4]	18	catFR1	1	R1111M
459.768	4.318	268535	PROB	4.318	n/a	n/a	n/a	-999	2	[8, 2, 5]	15	catFR1	1	R1111M
464.086	5.46	270694	PROB	5.46	n/a	n/a	n/a	-999	2	[2, 7, 5]	14	catFR1	1	R1111M
469.546	0.008	273424	STOP	n/a	n/a	n/a	n/a	-999	2	[-999, -999, -999]	n/a	catFR1	1	R1111M
469.554	1.134	273428	DISTRACT_END	n/a	n/a	n/a	n/a	-999	2	[0, 0, 0]	n/a	catFR1	1	R1111M
470.688	1.747	273995	REC_START	n/a	n/a	n/a	n/a	-999	2	[0, 0, 0]	n/a	catFR1	1	R1111M
472.435	0.623	274868	REC_WORD	0.623	n/a	COW	FarmAnimals	11	2	[0, 0, 0]	n/a	catFR1	1	R1111M
473.058	1.032	275180	REC_WORD	1.032	n/a	CALF	FarmAnimals	12	2	[0, 0, 0]	n/a	catFR1	1	R1111M
474.09	0.707	275696	REC_WORD	0.707	n/a	WINDOW	Building	8	2	[0, 0, 0]	n/a	catFR1	1	R1111M
474.797	1.003	276049	REC_WORD	1.003	n/a	WALL	Building	1	2	[0, 0, 0]	n/a	catFR1	1	R1111M
475.8	2.274	276551	REC_WORD	2.274	n/a	ROOF	Building	2	2	[0, 0, 0]	n/a	catFR1	1	R1111M
478.074	3.016	277688	REC_WORD	3.016	n/a	FLOOR	Building	7	2	[0, 0, 0]	n/a	catFR1	1	R1111M
481.09	2.887	279195	REC_WORD	2.887	n/a	ERASER	OfficeSupplies	5	2	[0, 0, 0]	n/a	catFR1	1	R1111M
483.977	3.308	280639	REC_WORD	3.308	n/a	NOTEBOOK	OfficeSupplies	9	2	[0, 0, 0]	n/a	catFR1	1	R1111M
487.285	1.144	282293	REC_WORD	1.144	n/a	PAPER	OfficeSupplies	10	2	[0, 0, 0]	n/a	catFR1	1	R1111M
488.429	3.179	282865	REC_WORD	3.179	n/a	BINDER	OfficeSupplies	6	2	[0, 0, 0]	n/a	catFR1	1	R1111M
491.608	9.09	284454	REC_WORD	9.09	n/a	ROOSTER	FarmAnimals	3	2	[0, 0, 0]	n/a	catFR1	1	R1111M
500.698	7.346	288999	REC_END	n/a	n/a	n/a	n/a	-999	2	[0, 0, 0]	n/a	catFR1	1	R1111M
508.044	0.001	292672	COUNTDOWN_START	n/a	n/a	n/a	n/a	-999	3	[0, 0, 0]	n/a	catFR1	1	R1111M
508.045	10.427	292672	TRIAL	n/a	n/a	n/a	n/a	-999	3	[0, 0, 0]	n/a	catFR1	1	R1111M
518.472	0.008	297885	COUNTDOWN_END	n/a	n/a	n/a	n/a	-999	3	[0, 0, 0]	n/a	catFR1	1	R1111M
518.48	3.634	297889	ORIENT	n/a	n/a	n/a	n/a	-999	3	[0, 0, 0]	n/a	catFR1	1	R1111M
522.114	2.467	299706	WORD	n/a	wordpools/wordpool_categorized_EN.txt	PUDDING	Desserts	1	3	[0, 0, 0]	n/a	catFR1	1	R1111M
524.581	2.484	300940	WORD	n/a	wordpools/wordpool_categorized_EN.txt	FUDGE	Desserts	2	3	[0, 0, 0]	n/a	catFR1	1	R1111M
527.065	2.434	302182	WORD	n/a	wordpools/wordpool_categorized_EN.txt	DUCK	Birds	3	3	[0, 0, 0]	n/a	catFR1	1	R1111M
529.499	2.517	303399	WORD	n/a	wordpools/wordpool_categorized_EN.txt	ROBIN	Birds	4	3	[0, 0, 0]	n/a	catFR1	1	R1111M
532.016	2.434	304657	WORD	n/a	wordpools/wordpool_categorized_EN.txt	COFFEE	Beverages	5	3	[0, 0, 0]	n/a	catFR1	1	R1111M
534.45	2.517	305874	WORD	n/a	wordpools/wordpool_categorized_EN.txt	JUICE	Beverages	6	3	[0, 0, 0]	n/a	catFR1	1	R1111M
536.967	2.417	307132	WORD	n/a	wordpools/wordpool_categorized_EN.txt	CHEESECAKE	Desserts	7	3	[0, 0, 0]	n/a	catFR1	1	R1111M
539.384	2.567	308341	WORD	n/a	wordpools/wordpool_categorized_EN.txt	COBBLER	Desserts	8	3	[0, 0, 0]	n/a	catFR1	1	R1111M
541.951	2.584	309624	WORD	n/a	wordpools/wordpool_categorized_EN.txt	MILK	Beverages	9	3	[0, 0, 0]	n/a	catFR1	1	R1111M
544.535	2.617	310916	WORD	n/a	wordpools/wordpool_categorized_EN.txt	LEMONADE	Beverages	10	3	[0, 0, 0]	n/a	catFR1	1	R1111M
547.152	2.434	312225	WORD	n/a	wordpools/wordpool_categorized_EN.txt	PIGEON	Birds	11	3	[0, 0, 0]	n/a	catFR1	1	R1111M
549.586	1.617	313442	WORD	n/a	wordpools/wordpool_categorized_EN.txt	HAWK	Birds	12	3	[0, 0, 0]	n/a	catFR1	1	R1111M
551.203	0.001	314250	DISTRACT_START	n/a	n/a	n/a	n/a	-999	3	[0, 0, 0]	n/a	catFR1	1	R1111M
551.204	0.016	314250	START	n/a	n/a	n/a	n/a	-999	3	[-999, -999, -999]	n/a	catFR1	1	R1111M
551.22	6.584	314258	PROB	6.584	n/a	n/a	n/a	-999	3	[7, 3, 4]	14	catFR1	1	R1111M
557.804	20.838	317550	PROB	20.838	n/a	n/a	n/a	-999	3	[7, 9, 4]	20	catFR1	1	R1111M
578.642	0.016	327969	STOP	n/a	n/a	n/a	n/a	-999	3	[-999, -999, -999]	n/a	catFR1	1	R1111M
578.658	1.151	327977	DISTRACT_END	n/a	n/a	n/a	n/a	-999	3	[0, 0, 0]	n/a	catFR1	1	R1111M
579.809	2.172	328552	REC_START	n/a	n/a	n/a	n/a	-999	3	[0, 0, 0]	n/a	catFR1	1	R1111M
581.981	2.6	329638	REC_WORD	2.6	n/a	PUDDING	Desserts	1	3	[0, 0, 0]	n/a	catFR1	1	R1111M
584.581	5.029	330938	REC_WORD	5.029	n/a	COFFEE	Beverages	5	3	[0, 0, 0]	n/a	catFR1	1	R1111M
589.61	1.774	333452	REC_WORD	1.774	n/a	TEA	n/a	-999	3	[0, 0, 0]	n/a	catFR1	1	R1111M
591.384	0.6	334339	REC_WORD	0.6	n/a	DUCK	Birds	3	3	[0, 0, 0]	n/a	catFR1	1	R1111M
591.984	1.636	334639	REC_WORD	1.636	n/a	GOOSE	n/a	-999	3	[0, 0, 0]	n/a	catFR1	1	R1111M
593.62	1.662	335457	REC_WORD	1.662	n/a	PIGEON	Birds	11	3	[0, 0, 0]	n/a	catFR1	1	R1111M
595.282	1.908	336288	REC_WORD	1.908	n/a	HAWK	Birds	12	3	[0, 0, 0]	n/a	catFR1	1	R1111M
597.19	1.12	337242	REC_WORD	1.12	n/a	COBBLER	Desserts	8	3	[0, 0, 0]	n/a	catFR1	1	R1111M
598.31	11.509	337802	REC_WORD	11.509	n/a	CHEESECAKE	Desserts	7	3	[0, 0, 0]	n/a	catFR1	1	R1111M
609.819	5.98	343556	REC_END	n/a	n/a	n/a	n/a	-999	3	[0, 0, 0]	n/a	catFR1	1	R1111M
615.799	0.0	346546	TRIAL	n/a	n/a	n/a	n/a	-999	4	[0, 0, 0]	n/a	catFR1	1	R1111M
615.799	10.428	346546	COUNTDOWN_START	n/a	n/a	n/a	n/a	-999	4	[0, 0, 0]	n/a	catFR1	1	R1111M
626.227	0.006	351760	COUNTDOWN_END	n/a	n/a	n/a	n/a	-999	4	[0, 0, 0]	n/a	catFR1	1	R1111M
626.233	3.868	351763	ORIENT	n/a	n/a	n/a	n/a	-999	4	[0, 0, 0]	n/a	catFR1	1	R1111M
630.101	2.468	353697	WORD	n/a	wordpools/wordpool_categorized_EN.txt	CARROT	Vegetables	1	4	[0, 0, 0]	n/a	catFR1	1	R1111M
632.569	2.5	354931	WORD	n/a	wordpools/wordpool_categorized_EN.txt	LETTUCE	Vegetables	2	4	[0, 0, 0]	n/a	catFR1	1	R1111M
635.069	2.467	356181	WORD	n/a	wordpools/wordpool_categorized_EN.txt	ELBOW	BodyParts	3	4	[0, 0, 0]	n/a	catFR1	1	R1111M
637.536	2.534	357414	WORD	n/a	wordpools/wordpool_categorized_EN.txt	NOSE	BodyParts	4	4	[0, 0, 0]	n/a	catFR1	1	R1111M
640.07	2.5	358681	WORD	n/a	wordpools/wordpool_categorized_EN.txt	FOLDER	OfficeSupplies	5	4	[0, 0, 0]	n/a	catFR1	1	R1111M
642.57	2.618	359931	WORD	n/a	wordpools/wordpool_categorized_EN.txt	RULER	OfficeSupplies	6	4	[0, 0, 0]	n/a	catFR1	1	R1111M
645.188	2.467	361240	WORD	n/a	wordpools/wordpool_categorized_EN.txt	EYE	BodyParts	7	4	[0, 0, 0]	n/a	catFR1	1	R1111M
647.655	2.534	362473	WORD	n/a	wordpools/wordpool_categorized_EN.txt	HAND	BodyParts	8	4	[0, 0, 0]	n/a	catFR1	1	R1111M
650.189	2.4	363740	WORD	n/a	wordpools/wordpool_categorized_EN.txt	POTATO	Vegetables	9	4	[0, 0, 0]	n/a	catFR1	1	R1111M
652.589	2.451	364940	WORD	n/a	wordpools/wordpool_categorized_EN.txt	CAULIFLOWER	Vegetables	10	4	[0, 0, 0]	n/a	catFR1	1	R1111M
655.04	2.417	366166	WORD	n/a	wordpools/wordpool_categorized_EN.txt	TAPE	OfficeSupplies	11	4	[0, 0, 0]	n/a	catFR1	1	R1111M
657.457	1.617	367374	WORD	n/a	wordpools/wordpool_categorized_EN.txt	PEN	OfficeSupplies	12	4	[0, 0, 0]	n/a	catFR1	1	R1111M
659.074	0.001	368182	DISTRACT_START	n/a	n/a	n/a	n/a	-999	4	[0, 0, 0]	n/a	catFR1	1	R1111M
659.075	0.015	368183	START	n/a	n/a	n/a	n/a	-999	4	[-999, -999, -999]	n/a	catFR1	1	R1111M
659.09	11.386	368190	PROB	11.386	n/a	n/a	n/a	-999	4	[2, 7, 8]	17	catFR1	1	R1111M
670.476	6.501	373883	PROB	6.501	n/a	n/a	n/a	-999	4	[2, 6, 1]	9	catFR1	1	R1111M
676.977	4.8	377133	PROB	4.8	n/a	n/a	n/a	-999	4	[5, 6, 3]	14	catFR1	1	R1111M
681.777	0.018	379533	STOP	n/a	n/a	n/a	n/a	-999	4	[-999, -999, -999]	n/a	catFR1	1	R1111M
681.795	1.1	379542	DISTRACT_END	n/a	n/a	n/a	n/a	-999	4	[0, 0, 0]	n/a	catFR1	1	R1111M
682.895	2.894	380092	REC_START	n/a	n/a	n/a	n/a	-999	4	[0, 0, 0]	n/a	catFR1	1	R1111M
685.789	0.882	381539	REC_WORD	0.882	n/a	CARROT	Vegetables	1	4	[0, 0, 0]	n/a	catFR1	1	R1111M
686.671	2.637	381980	REC_WORD	2.637	n/a	LETTUCE	Vegetables	2	4	[0, 0, 0]	n/a	catFR1	1	R1111M
689.308	1.535	383299	REC_WORD	1.535	n/a	HAND	BodyParts	8	4	[0, 0, 0]	n/a	catFR1	1	R1111M
690.843	2.512	384066	REC_WORD	2.512	n/a	RULER	OfficeSupplies	6	4	[0, 0, 0]	n/a	catFR1	1	R1111M
693.355	1.487	385322	REC_WORD	1.487	n/a	ELBOW	BodyParts	3	4	[0, 0, 0]	n/a	catFR1	1	R1111M
694.842	1.073	386065	REC_WORD	1.073	n/a	EYE	BodyParts	7	4	[0, 0, 0]	n/a	catFR1	1	R1111M
695.915	2.69	386602	REC_WORD	2.69	n/a	NOSE	BodyParts	4	4	[0, 0, 0]	n/a	catFR1	1	R1111M
698.605	1.215	387947	REC_WORD	1.215	n/a	POTATO	Vegetables	9	4	[0, 0, 0]	n/a	catFR1	1	R1111M
699.82	1.063	388554	REC_WORD	1.063	n/a	TAPE	OfficeSupplies	11	4	[0, 0, 0]	n/a	catFR1	1	R1111M
700.883	12.026	389086	REC_WORD	12.026	n/a	PEN	OfficeSupplies	12	4	[0, 0, 0]	n/a	catFR1	1	R1111M
712.909	4.226	395098	REC_END	n/a	n/a	n/a	n/a	-999	4	[0, 0, 0]	n/a	catFR1	1	R1111M
717.135	0.0	397211	TRIAL	n/a	n/a	n/a	n/a	-999	5	[0, 0, 0]	n/a	catFR1	1	R1111M
717.135	10.428	397211	COUNTDOWN_START	n/a	n/a	n/a	n/a	-999	5	[0, 0, 0]	n/a	catFR1	1	R1111M
727.563	0.007	402425	COUNTDOWN_END	n/a	n/a	n/a	n/a	-999	5	[0, 0, 0]	n/a	catFR1	1	R1111M
727.57	3.568	402428	ORIENT	n/a	n/a	n/a	n/a	-999	5	[0, 0, 0]	n/a	catFR1	1	R1111M
731.138	2.55	404212	WORD	n/a	wordpools/wordpool_categorized_EN.txt	OCTOPUS	OceanAnimals	1	5	[0, 0, 0]	n/a	catFR1	1	R1111M
733.688	2.384	405487	WORD	n/a	wordpools/wordpool_categorized_EN.txt	JELLYFISH	OceanAnimals	2	5	[0, 0, 0]	n/a	catFR1	1	R1111M
736.072	2.534	406679	WORD	n/a	wordpools/wordpool_categorized_EN.txt	PIANO	Instruments	3	5	[0, 0, 0]	n/a	catFR1	1	R1111M
738.606	2.5	407946	WORD	n/a	wordpools/wordpool_categorized_EN.txt	TUBA	Instruments	4	5	[0, 0, 0]	n/a	catFR1	1	R1111M
741.106	2.601	409196	WORD	n/a	wordpools/wordpool_categorized_EN.txt	COUCH	Furniture	5	5	[0, 0, 0]	n/a	catFR1	1	R1111M
743.707	2.4	410497	WORD	n/a	wordpools/wordpool_categorized_EN.txt	SOFA	Furniture	6	5	[0, 0, 0]	n/a	catFR1	1	R1111M
746.107	2.601	411696	WORD	n/a	wordpools/wordpool_categorized_EN.txt	BASS	Instruments	7	5	[0, 0, 0]	n/a	catFR1	1	R1111M
748.708	2.6	412997	WORD	n/a	wordpools/wordpool_categorized_EN.txt	VIOLIN	Instruments	8	5	[0, 0, 0]	n/a	catFR1	1	R1111M
751.308	2.584	414297	WORD	n/a	wordpools/wordpool_categorized_EN.txt	SQUID	OceanAnimals	9	5	[0, 0, 0]	n/a	catFR1	1	R1111M
753.892	2.484	415589	WORD	n/a	wordpools/wordpool_categorized_EN.txt	CRAB	OceanAnimals	10	5	[0, 0, 0]	n/a	catFR1	1	R1111M
756.376	2.484	416831	WORD	n/a	wordpools/wordpool_categorized_EN.txt	CHAIR	Furniture	11	5	[0, 0, 0]	n/a	catFR1	1	R1111M
758.86	1.617	418073	WORD	n/a	wordpools/wordpool_categorized_EN.txt	DRESSER	Furniture	12	5	[0, 0, 0]	n/a	catFR1	1	R1111M
760.477	0.0	418881	DISTRACT_START	n/a	n/a	n/a	n/a	-999	5	[0, 0, 0]	n/a	catFR1	1	R1111M
760.477	0.016	418881	START	n/a	n/a	n/a	n/a	-999	5	[-999, -999, -999]	n/a	catFR1	1	R1111M
760.493	7.252	418889	PROB	7.252	n/a	n/a	n/a	-999	5	[4, 7, 6]	17	catFR1	1	R1111M
767.745	10.485	422515	PROB	10.485	n/a	n/a	n/a	-999	5	[4, 5, 7]	16	catFR1	1	R1111M
778.23	8.147	427757	PROB	8.147	n/a	n/a	n/a	-999	5	[3, 9, 7]	20	catFR1	1	R1111M
786.377	0.004	431830	STOP	n/a	n/a	n/a	n/a	-999	5	[-999, -999, -999]	n/a	catFR1	1	R1111M
786.381	1.118	431832	DISTRACT_END	n/a	n/a	n/a	n/a	-999	5	[0, 0, 0]	n/a	catFR1	1	R1111M
787.499	6.045	432391	REC_START	n/a	n/a	n/a	n/a	-999	5	[0, 0, 0]	n/a	catFR1	1	R1111M
793.544	2.227	435414	REC_WORD	2.227	n/a	JELLYFISH	OceanAnimals	2	5	[0, 0, 0]	n/a	catFR1	1	R1111M
795.771	1.304	436527	REC_WORD	1.304	n/a	OCTOPUS	OceanAnimals	1	5	[0, 0, 0]	n/a	catFR1	1	R1111M
797.075	1.253	437179	REC_WORD	1.253	n/a	SQUID	OceanAnimals	9	5	[0, 0, 0]	n/a	catFR1	1	R1111M
798.328	3.38	437805	REC_WORD	3.38	n/a	CRAB	OceanAnimals	10	5	[0, 0, 0]	n/a	catFR1	1	R1111M
801.708	1.213	439495	REC_WORD	1.213	n/a	VIOLIN	Instruments	8	5	[0, 0, 0]	n/a	catFR1	1	R1111M
802.921	2.959	440102	REC_WORD	2.959	n/a	TUBA	Instruments	4	5	[0, 0, 0]	n/a	catFR1	1	R1111M
805.88	0.695	441581	REC_WORD	0.695	n/a	SOFA	Furniture	6	5	[0, 0, 0]	n/a	catFR1	1	R1111M
806.575	0.631	441929	REC_WORD	0.631	n/a	COUCH	Furniture	5	5	[0, 0, 0]	n/a	catFR1	1	R1111M
807.206	0.546	442244	REC_WORD	0.546	n/a	CHAIR	Furniture	11	5	[0, 0, 0]	n/a	catFR1	1	R1111M
807.752	9.762	442517	REC_WORD	9.762	n/a	DRESSER	Furniture	12	5	[0, 0, 0]	n/a	catFR1	1	R1111M
817.514	16.51	447398	REC_END	n/a	n/a	n/a	n/a	-999	5	[0, 0, 0]	n/a	catFR1	1	R1111M
834.024	0.0	455652	TRIAL	n/a	n/a	n/a	n/a	-999	6	[0, 0, 0]	n/a	catFR1	1	R1111M
834.024	10.428	455652	COUNTDOWN_START	n/a	n/a	n/a	n/a	-999	6	[0, 0, 0]	n/a	catFR1	1	R1111M
844.452	0.008	460866	COUNTDOWN_END	n/a	n/a	n/a	n/a	-999	6	[0, 0, 0]	n/a	catFR1	1	R1111M
844.46	3.534	460870	ORIENT	n/a	n/a	n/a	n/a	-999	6	[0, 0, 0]	n/a	catFR1	1	R1111M
847.994	2.517	462637	WORD	n/a	wordpools/wordpool_categorized_EN.txt	CREEK	Landscapes	1	6	[0, 0, 0]	n/a	catFR1	1	R1111M
850.511	2.583	463895	WORD	n/a	wordpools/wordpool_categorized_EN.txt	LAKE	Landscapes	2	6	[0, 0, 0]	n/a	catFR1	1	R1111M
853.094	2.534	465187	WORD	n/a	wordpools/wordpool_categorized_EN.txt	LEVEL	Tools	3	6	[0, 0, 0]	n/a	catFR1	1	R1111M
855.628	2.401	466454	WORD	n/a	wordpools/wordpool_categorized_EN.txt	SCREWDRIVER	Tools	4	6	[0, 0, 0]	n/a	catFR1	1	R1111M
858.029	2.45	467654	WORD	n/a	wordpools/wordpool_categorized_EN.txt	TRUMPET	Instruments	5	6	[0, 0, 0]	n/a	catFR1	1	R1111M
860.479	2.568	468879	WORD	n/a	wordpools/wordpool_categorized_EN.txt	TROMBONE	Instruments	6	6	[0, 0, 0]	n/a	catFR1	1	R1111M
863.047	2.467	470163	WORD	n/a	wordpools/wordpool_categorized_EN.txt	RATCHET	Tools	7	6	[0, 0, 0]	n/a	catFR1	1	R1111M
865.514	2.383	471397	WORD	n/a	wordpools/wordpool_categorized_EN.txt	SHOVEL	Tools	8	6	[0, 0, 0]	n/a	catFR1	1	R1111M
867.897	2.467	472588	WORD	n/a	wordpools/wordpool_categorized_EN.txt	VALLEY	Landscapes	9	6	[0, 0, 0]	n/a	catFR1	1	R1111M
870.364	2.601	473821	WORD	n/a	wordpools/wordpool_categorized_EN.txt	OCEAN	Landscapes	10	6	[0, 0, 0]	n/a	catFR1	1	R1111M
872.965	2.584	475122	WORD	n/a	wordpools/wordpool_categorized_EN.txt	ORGAN	Instruments	11	6	[0, 0, 0]	n/a	catFR1	1	R1111M
875.549	1.617	476414	WORD	n/a	wordpools/wordpool_categorized_EN.txt	FLUTE	Instruments	12	6	[0, 0, 0]	n/a	catFR1	1	R1111M
877.166	0.001	477222	DISTRACT_START	n/a	n/a	n/a	n/a	-999	6	[0, 0, 0]	n/a	catFR1	1	R1111M
877.167	0.016	477223	START	n/a	n/a	n/a	n/a	-999	6	[-999, -999, -999]	n/a	catFR1	1	R1111M
877.183	12.369	477231	PROB	12.369	n/a	n/a	n/a	-999	6	[6, 6, 7]	19	catFR1	1	R1111M
889.552	5.217	483415	PROB	5.217	n/a	n/a	n/a	-999	6	[8, 2, 2]	12	catFR1	1	R1111M
894.769	2.401	486023	PROB	2.401	n/a	n/a	n/a	-999	6	[3, 7, 1]	11	catFR1	1	R1111M
897.17	0.016	487224	STOP	n/a	n/a	n/a	n/a	-999	6	[-999, -999, -999]	n/a	catFR1	1	R1111M
897.186	1.218	487232	DISTRACT_END	n/a	n/a	n/a	n/a	-999	6	[0, 0, 0]	n/a	catFR1	1	R1111M
898.404	3.142	487841	REC_START	n/a	n/a	n/a	n/a	-999	6	[0, 0, 0]	n/a	catFR1	1	R1111M
901.546	1.232	489412	REC_WORD	1.232	n/a	CREEK	Landscapes	1	6	[0, 0, 0]	n/a	catFR1	1	R1111M
902.778	4.685	490028	REC_WORD	4.685	n/a	LAKE	Landscapes	2	6	[0, 0, 0]	n/a	catFR1	1	R1111M
907.463	1.788	492370	REC_WORD	1.788	n/a	TROMBONE	Instruments	6	6	[0, 0, 0]	n/a	catFR1	1	R1111M
909.251	5.197	493264	REC_WORD	5.197	n/a	TRUMPET	Instruments	5	6	[0, 0, 0]	n/a	catFR1	1	R1111M
914.448	2.971	495862	REC_WORD	2.971	n/a	ORGAN	Instruments	11	6	[0, 0, 0]	n/a	catFR1	1	R1111M
917.419	0.84	497348	REC_WORD	0.84	n/a	LEVEL	Tools	3	6	[0, 0, 0]	n/a	catFR1	1	R1111M
918.259	10.157	497768	REC_WORD	10.157	n/a	SCREWDRIVER	Tools	4	6	[0, 0, 0]	n/a	catFR1	1	R1111M
928.416	3.71	502846	REC_END	n/a	n/a	n/a	n/a	-999	6	[0, 0, 0]	n/a	catFR1	1	R1111M
932.126	0.001	504701	COUNTDOWN_START	n/a	n/a	n/a	n/a	-999	7	[0, 0, 0]	n/a	catFR1	1	R1111M
932.127	10.427	504701	TRIAL	n/a	n/a	n/a	n/a	-999	7	[0, 0, 0]	n/a	catFR1	1	R1111M
942.554	0.008	509914	COUNTDOWN_END	n/a	n/a	n/a	n/a	-999	7	[0, 0, 0]	n/a	catFR1	1	R1111M
942.562	3.767	509918	ORIENT	n/a	n/a	n/a	n/a	-999	7	[0, 0, 0]	n/a	catFR1	1	R1111M
946.329	2.584	511802	WORD	n/a	wordpools/wordpool_categorized_EN.txt	ANT	Insects	1	7	[0, 0, 0]	n/a	catFR1	1	R1111M
948.913	2.451	513094	WORD	n/a	wordpools/wordpool_categorized_EN.txt	CRICKET	Insects	2	7	[0, 0, 0]	n/a	catFR1	1	R1111M
951.364	2.467	514319	WORD	n/a	wordpools/wordpool_categorized_EN.txt	LION	Zoo	3	7	[0, 0, 0]	n/a	catFR1	1	R1111M
953.831	2.534	515553	WORD	n/a	wordpools/wordpool_categorized_EN.txt	ORANGUTAN	Zoo	4	7	[0, 0, 0]	n/a	catFR1	1	R1111M
956.365	2.5	516819	WORD	n/a	wordpools/wordpool_categorized_EN.txt	CELERY	Vegetables	5	7	[0, 0, 0]	n/a	catFR1	1	R1111M
958.865	2.55	518069	WORD	n/a	wordpools/wordpool_categorized_EN.txt	PEAS	Vegetables	6	7	[0, 0, 0]	n/a	catFR1	1	R1111M
961.415	2.601	519344	WORD	n/a	wordpools/wordpool_categorized_EN.txt	ZEBRA	Zoo	7	7	[0, 0, 0]	n/a	catFR1	1	R1111M
964.016	2.534	520645	WORD	n/a	wordpools/wordpool_categorized_EN.txt	PANDA	Zoo	8	7	[0, 0, 0]	n/a	catFR1	1	R1111M
966.55	2.567	521912	WORD	n/a	wordpools/wordpool_categorized_EN.txt	GNAT	Insects	9	7	[0, 0, 0]	n/a	catFR1	1	R1111M
969.117	2.55	523195	WORD	n/a	wordpools/wordpool_categorized_EN.txt	SPIDER	Insects	10	7	[0, 0, 0]	n/a	catFR1	1	R1111M
971.667	2.518	524470	WORD	n/a	wordpools/wordpool_categorized_EN.txt	CORN	Vegetables	11	7	[0, 0, 0]	n/a	catFR1	1	R1111M
974.185	1.617	525729	WORD	n/a	wordpools/wordpool_categorized_EN.txt	ONION	Vegetables	12	7	[0, 0, 0]	n/a	catFR1	1	R1111M
975.802	0.0	526537	DISTRACT_START	n/a	n/a	n/a	n/a	-999	7	[0, 0, 0]	n/a	catFR1	1	R1111M
975.802	0.016	526537	START	n/a	n/a	n/a	n/a	-999	7	[-999, -999, -999]	n/a	catFR1	1	R1111M
975.818	10.019	526545	PROB	10.019	n/a	n/a	n/a	-999	7	[6, 2, 3]	11	catFR1	1	R1111M
985.837	4.651	531555	PROB	4.651	n/a	n/a	n/a	-999	7	[7, 4, 1]	12	catFR1	1	R1111M
990.488	3.684	533880	PROB	3.684	n/a	n/a	n/a	-999	7	[3, 5, 8]	16	catFR1	1	R1111M
994.172	9.301	535722	PROB	9.301	n/a	n/a	n/a	-999	7	[4, 9, 5]	18	catFR1	1	R1111M
1003.473	0.017	540372	STOP	n/a	n/a	n/a	n/a	-999	7	[-999, -999, -999]	n/a	catFR1	1	R1111M
1003.49	1.135	540381	DISTRACT_END	n/a	n/a	n/a	n/a	-999	7	[0, 0, 0]	n/a	catFR1	1	R1111M
1004.625	1.681	540948	REC_START	n/a	n/a	n/a	n/a	-999	7	[0, 0, 0]	n/a	catFR1	1	R1111M
1006.306	0.902	541789	REC_WORD	0.902	n/a	ANT	Insects	1	7	[0, 0, 0]	n/a	catFR1	1	R1111M
1007.208	1.172	542240	REC_WORD	1.172	n/a	CRICKET	Insects	2	7	[0, 0, 0]	n/a	catFR1	1	R1111M
1008.38	2.355	542826	REC_WORD	2.355	n/a	LION	Zoo	3	7	[0, 0, 0]	n/a	catFR1	1	R1111M
1010.735	2.955	544003	REC_WORD	2.955	n/a	ORANGUTAN	Zoo	4	7	[0, 0, 0]	n/a	catFR1	1	R1111M
1013.69	3.615	545480	REC_WORD	3.615	n/a	CELERY	Vegetables	5	7	[0, 0, 0]	n/a	catFR1	1	R1111M
1017.305	2.879	547288	REC_WORD	2.879	n/a	PEAS	Vegetables	6	7	[0, 0, 0]	n/a	catFR1	1	R1111M
1020.184	14.453	548727	REC_WORD	14.453	n/a	ZEBRA	Zoo	7	7	[0, 0, 0]	n/a	catFR1	1	R1111M
1034.637	2.393	555953	REC_END	n/a	n/a	n/a	n/a	-999	7	[0, 0, 0]	n/a	catFR1	1	R1111M
1037.03	0.0	557150	TRIAL	n/a	n/a	n/a	n/a	-999	8	[0, 0, 0]	n/a	catFR1	1	R1111M
1037.03	10.428	557150	COUNTDOWN_START	n/a	n/a	n/a	n/a	-999	8	[0, 0, 0]	n/a	catFR1	1	R1111M
1047.458	0.007	562363	COUNTDOWN_END	n/a	n/a	n/a	n/a	-999	8	[0, 0, 0]	n/a	catFR1	1	R1111M
1047.465	3.601	562367	ORIENT	n/a	n/a	n/a	n/a	-999	8	[0, 0, 0]	n/a	catFR1	1	R1111M
1051.066	2.451	564167	WORD	n/a	wordpools/wordpool_categorized_EN.txt	LEG	BodyParts	1	8	[0, 0, 0]	n/a	catFR1	1	R1111M
1053.517	2.533	565393	WORD	n/a	wordpools/wordpool_categorized_EN.txt	ARM	BodyParts	2	8	[0, 0, 0]	n/a	catFR1	1	R1111M
1056.05	2.584	566659	WORD	n/a	wordpools/wordpool_categorized_EN.txt	WHALE	OceanAnimals	3	8	[0, 0, 0]	n/a	catFR1	1	R1111M
1058.634	2.467	567951	WORD	n/a	wordpools/wordpool_categorized_EN.txt	LOBSTER	OceanAnimals	4	8	[0, 0, 0]	n/a	catFR1	1	R1111M
1061.101	2.518	569185	WORD	n/a	wordpools/wordpool_categorized_EN.txt	SPARROW	Birds	5	8	[0, 0, 0]	n/a	catFR1	1	R1111M
1063.619	2.583	570443	WORD	n/a	wordpools/wordpool_categorized_EN.txt	CROW	Birds	6	8	[0, 0, 0]	n/a	catFR1	1	R1111M
1066.202	2.384	571735	WORD	n/a	wordpools/wordpool_categorized_EN.txt	FINGERS	BodyParts	7	8	[0, 0, 0]	n/a	catFR1	1	R1111M
1068.586	2.584	572927	WORD	n/a	wordpools/wordpool_categorized_EN.txt	TOE	BodyParts	8	8	[0, 0, 0]	n/a	catFR1	1	R1111M
1071.17	2.517	574219	WORD	n/a	wordpools/wordpool_categorized_EN.txt	BLUEBIRD	Birds	9	8	[0, 0, 0]	n/a	catFR1	1	R1111M
1073.687	2.501	575477	WORD	n/a	wordpools/wordpool_categorized_EN.txt	DOVE	Birds	10	8	[0, 0, 0]	n/a	catFR1	1	R1111M
1076.188	2.617	576728	WORD	n/a	wordpools/wordpool_categorized_EN.txt	SHRIMP	OceanAnimals	11	8	[0, 0, 0]	n/a	catFR1	1	R1111M
1078.805	1.617	578036	WORD	n/a	wordpools/wordpool_categorized_EN.txt	OYSTER	OceanAnimals	12	8	[0, 0, 0]	n/a	catFR1	1	R1111M
1080.422	0.001	578844	DISTRACT_START	n/a	n/a	n/a	n/a	-999	8	[0, 0, 0]	n/a	catFR1	1	R1111M
1080.423	0.016	578845	START	n/a	n/a	n/a	n/a	-999	8	[-999, -999, -999]	n/a	catFR1	1	R1111M
1080.439	10.935	578853	PROB	10.935	n/a	n/a	n/a	-999	8	[1, 3, 9]	13	catFR1	1	R1111M
1091.374	6.218	584320	PROB	6.218	n/a	n/a	n/a	-999	8	[6, 9, 9]	24	catFR1	1	R1111M
1097.592	4.474	587429	PROB	4.474	n/a	n/a	n/a	-999	8	[8, 6, 2]	16	catFR1	1	R1111M
1102.066	0.01	589666	STOP	n/a	n/a	n/a	n/a	-999	8	[-999, -999, -999]	n/a	catFR1	1	R1111M
1102.076	1.117	589671	DISTRACT_END	n/a	n/a	n/a	n/a	-999	8	[0, 0, 0]	n/a	catFR1	1	R1111M
1103.193	2.438	590229	REC_START	n/a	n/a	n/a	n/a	-999	8	[0, 0, 0]	n/a	catFR1	1	R1111M
1105.631	0.466	591448	REC_WORD	0.466	n/a	ARM	BodyParts	2	8	[0, 0, 0]	n/a	catFR1	1	R1111M
1106.097	0.983	591681	REC_WORD	0.983	n/a	LEG	BodyParts	1	8	[0, 0, 0]	n/a	catFR1	1	R1111M
1107.08	1.0	592173	REC_WORD	1.0	n/a	WHALE	OceanAnimals	3	8	[0, 0, 0]	n/a	catFR1	1	R1111M
1108.08	2.333	592673	REC_WORD	2.333	n/a	LOBSTER	OceanAnimals	4	8	[0, 0, 0]	n/a	catFR1	1	R1111M
1110.413	0.518	593839	REC_WORD	0.518	n/a	CROW	Birds	6	8	[0, 0, 0]	n/a	catFR1	1	R1111M
1110.931	7.689	594098	REC_WORD	7.689	n/a	SPARROW	Birds	5	8	[0, 0, 0]	n/a	catFR1	1	R1111M
1118.62	2.647	597942	REC_WORD	2.647	n/a	FINGERS	BodyParts	7	8	[0, 0, 0]	n/a	catFR1	1	R1111M
1121.267	11.941	599266	REC_WORD	11.941	n/a	OYSTER	OceanAnimals	12	8	[0, 0, 0]	n/a	catFR1	1	R1111M
1133.208	2.741	605236	REC_END	n/a	n/a	n/a	n/a	-999	8	[0, 0, 0]	n/a	catFR1	1	R1111M
1135.949	0.0	606606	TRIAL	n/a	n/a	n/a	n/a	-999	9	[0, 0, 0]	n/a	catFR1	1	R1111M
1135.949	10.428	606606	COUNTDOWN_START	n/a	n/a	n/a	n/a	-999	9	[0, 0, 0]	n/a	catFR1	1	R1111M
1146.377	0.008	611820	COUNTDOWN_END	n/a	n/a	n/a	n/a	-999	9	[0, 0, 0]	n/a	catFR1	1	R1111M
1146.385	3.884	611824	ORIENT	n/a	n/a	n/a	n/a	-999	9	[0, 0, 0]	n/a	catFR1	1	R1111M
1150.269	2.533	613766	WORD	n/a	wordpools/wordpool_categorized_EN.txt	BARBIE	Toys	1	9	[0, 0, 0]	n/a	catFR1	1	R1111M
1152.802	2.501	615032	WORD	n/a	wordpools/wordpool_categorized_EN.txt	DOLLHOUSE	Toys	2	9	[0, 0, 0]	n/a	catFR1	1	R1111M
1155.303	2.45	616283	WORD	n/a	wordpools/wordpool_categorized_EN.txt	BATHROOM	Building	3	9	[0, 0, 0]	n/a	catFR1	1	R1111M
1157.753	2.468	617508	WORD	n/a	wordpools/wordpool_categorized_EN.txt	FOUNDATION	Building	4	9	[0, 0, 0]	n/a	catFR1	1	R1111M
1160.221	2.383	618742	WORD	n/a	wordpools/wordpool_categorized_EN.txt	CROWBAR	Tools	5	9	[0, 0, 0]	n/a	catFR1	1	R1111M
1162.604	2.401	619933	WORD	n/a	wordpools/wordpool_categorized_EN.txt	SANDER	Tools	6	9	[0, 0, 0]	n/a	catFR1	1	R1111M
1165.005	2.55	621134	WORD	n/a	wordpools/wordpool_categorized_EN.txt	BASKETBALL	Toys	7	9	[0, 0, 0]	n/a	catFR1	1	R1111M
1167.555	2.584	622409	WORD	n/a	wordpools/wordpool_categorized_EN.txt	BASEBALL	Toys	8	9	[0, 0, 0]	n/a	catFR1	1	R1111M
1170.139	2.617	623700	WORD	n/a	wordpools/wordpool_categorized_EN.txt	AXE	Tools	9	9	[0, 0, 0]	n/a	catFR1	1	R1111M
1172.756	2.468	625009	WORD	n/a	wordpools/wordpool_categorized_EN.txt	DRILL	Tools	10	9	[0, 0, 0]	n/a	catFR1	1	R1111M
1175.224	2.383	626243	WORD	n/a	wordpools/wordpool_categorized_EN.txt	HALLWAY	Building	11	9	[0, 0, 0]	n/a	catFR1	1	R1111M
1177.607	1.617	627434	WORD	n/a	wordpools/wordpool_categorized_EN.txt	CEILING	Building	12	9	[0, 0, 0]	n/a	catFR1	1	R1111M
1179.224	0.001	628243	DISTRACT_START	n/a	n/a	n/a	n/a	-999	9	[0, 0, 0]	n/a	catFR1	1	R1111M
1179.225	0.016	628243	START	n/a	n/a	n/a	n/a	-999	9	[-999, -999, -999]	n/a	catFR1	1	R1111M
1179.241	6.385	628251	PROB	6.385	n/a	n/a	n/a	-999	9	[3, 9, 6]	18	catFR1	1	R1111M
1185.626	6.567	631444	PROB	6.567	n/a	n/a	n/a	-999	9	[9, 8, 3]	20	catFR1	1	R1111M
1192.193	6.435	634727	PROB	6.435	n/a	n/a	n/a	-999	9	[7, 7, 3]	17	catFR1	1	R1111M
1198.628	6.885	637944	PROB	6.885	n/a	n/a	n/a	-999	9	[9, 7, 4]	21	catFR1	1	R1111M
1205.513	0.016	641386	STOP	n/a	n/a	n/a	n/a	-999	9	[-999, -999, -999]	n/a	catFR1	1	R1111M
1205.529	1.051	641394	DISTRACT_END	n/a	n/a	n/a	n/a	-999	9	[0, 0, 0]	n/a	catFR1	1	R1111M
1206.58	6.252	641920	REC_START	n/a	n/a	n/a	n/a	-999	9	[0, 0, 0]	n/a	catFR1	1	R1111M
1212.832	0.768	645046	REC_WORD	0.768	n/a	BARBIE	Toys	1	9	[0, 0, 0]	n/a	catFR1	1	R1111M
1213.6	3.265	645430	REC_WORD	3.265	n/a	DOLLHOUSE	Toys	2	9	[0, 0, 0]	n/a	catFR1	1	R1111M
1216.865	1.825	647062	REC_WORD	1.825	n/a	DOLLHOUSE	Toys	2	9	[0, 0, 0]	n/a	catFR1	1	R1111M
1218.69	0.746	647975	REC_WORD	0.746	n/a	BARBIE	Toys	1	9	[0, 0, 0]	n/a	catFR1	1	R1111M
1219.436	0.816	648348	REC_WORD	0.816	n/a	DOLLHOUSE	Toys	2	9	[0, 0, 0]	n/a	catFR1	1	R1111M
1220.252	2.569	648756	REC_WORD	2.569	n/a	FOUNDATION	Building	4	9	[0, 0, 0]	n/a	catFR1	1	R1111M
1222.821	0.437	650040	REC_WORD	0.437	n/a	WALL	n/a	-999	9	[0, 0, 0]	n/a	catFR1	1	R1111M
1223.258	2.244	650258	REC_WORD	2.244	n/a	CEILING	Building	12	9	[0, 0, 0]	n/a	catFR1	1	R1111M
1225.502	1.238	651380	REC_WORD	1.238	n/a	HALLWAY	Building	11	9	[0, 0, 0]	n/a	catFR1	1	R1111M
1226.74	0.605	651999	REC_WORD	0.605	n/a	CROWBAR	Tools	5	9	[0, 0, 0]	n/a	catFR1	1	R1111M
1227.345	1.761	652302	REC_WORD	1.761	n/a	SANDER	Tools	6	9	[0, 0, 0]	n/a	catFR1	1	R1111M
1229.106	0.669	653182	REC_WORD_VV	0.669	n/a	<>	n/a	-999	9	[0, 0, 0]	n/a	catFR1	1	R1111M
1229.775	0.758	653517	REC_WORD	0.758	n/a	BASKETBALL	Toys	7	9	[0, 0, 0]	n/a	catFR1	1	R1111M
1230.533	6.059	653896	REC_WORD	6.059	n/a	BASEBALL	Toys	8	9	[0, 0, 0]	n/a	catFR1	1	R1111M
1236.592	5.228	656925	REC_END	n/a	n/a	n/a	n/a	-999	9	[0, 0, 0]	n/a	catFR1	1	R1111M
1241.82	0.0	659539	COUNTDOWN_START	n/a	n/a	n/a	n/a	-999	10	[0, 0, 0]	n/a	catFR1	1	R1111M
1241.82	10.428	659539	TRIAL	n/a	n/a	n/a	n/a	-999	10	[0, 0, 0]	n/a	catFR1	1	R1111M
1252.248	0.007	664753	COUNTDOWN_END	n/a	n/a	n/a	n/a	-999	10	[0, 0, 0]	n/a	catFR1	1	R1111M
1252.255	3.851	664756	ORIENT	n/a	n/a	n/a	n/a	-999	10	[0, 0, 0]	n/a	catFR1	1	R1111M
1256.106	2.5	666682	WORD	n/a	wordpools/wordpool_categorized_EN.txt	HEN	FarmAnimals	1	10	[0, 0, 0]	n/a	catFR1	1	R1111M
1258.606	2.567	667931	WORD	n/a	wordpools/wordpool_categorized_EN.txt	LAMB	FarmAnimals	2	10	[0, 0, 0]	n/a	catFR1	1	R1111M
1261.173	2.618	669215	WORD	n/a	wordpools/wordpool_categorized_EN.txt	ELM	Trees	3	10	[0, 0, 0]	n/a	catFR1	1	R1111M
1263.791	2.483	670524	WORD	n/a	wordpools/wordpool_categorized_EN.txt	OAK	Trees	4	10	[0, 0, 0]	n/a	catFR1	1	R1111M
1266.274	2.568	671765	WORD	n/a	wordpools/wordpool_categorized_EN.txt	BOAT	Vehicles	5	10	[0, 0, 0]	n/a	catFR1	1	R1111M
1268.842	2.517	673049	WORD	n/a	wordpools/wordpool_categorized_EN.txt	TRAIN	Vehicles	6	10	[0, 0, 0]	n/a	catFR1	1	R1111M
1271.359	2.434	674308	WORD	n/a	wordpools/wordpool_categorized_EN.txt	MAPLE	Trees	7	10	[0, 0, 0]	n/a	catFR1	1	R1111M
1273.793	2.6	675525	WORD	n/a	wordpools/wordpool_categorized_EN.txt	BIRCH	Trees	8	10	[0, 0, 0]	n/a	catFR1	1	R1111M
1276.393	2.5	676824	WORD	n/a	wordpools/wordpool_categorized_EN.txt	HORSE	FarmAnimals	9	10	[0, 0, 0]	n/a	catFR1	1	R1111M
1278.893	2.518	678074	WORD	n/a	wordpools/wordpool_categorized_EN.txt	BULL	FarmAnimals	10	10	[0, 0, 0]	n/a	catFR1	1	R1111M
1281.411	2.417	679333	WORD	n/a	wordpools/wordpool_categorized_EN.txt	MOPED	Vehicles	11	10	[0, 0, 0]	n/a	catFR1	1	R1111M
1283.828	1.617	680542	WORD	n/a	wordpools/wordpool_categorized_EN.txt	MOTORCYCLE	Vehicles	12	10	[0, 0, 0]	n/a	catFR1	1	R1111M
1285.445	0.001	681350	DISTRACT_START	n/a	n/a	n/a	n/a	-999	10	[0, 0, 0]	n/a	catFR1	1	R1111M
1285.446	0.015	681351	START	n/a	n/a	n/a	n/a	-999	10	[-999, -999, -999]	n/a	catFR1	1	R1111M
1285.461	5.118	681358	PROB	5.118	n/a	n/a	n/a	-999	10	[9, 9, 3]	21	catFR1	1	R1111M
1290.579	6.801	683917	PROB	6.801	n/a	n/a	n/a	-999	10	[3, 4, 5]	12	catFR1	1	R1111M
1297.38	5.168	687317	PROB	5.168	n/a	n/a	n/a	-999	10	[4, 2, 7]	13	catFR1	1	R1111M
1302.548	3.774	689901	PROB	3.774	n/a	n/a	n/a	-999	10	[1, 3, 2]	6	catFR1	1	R1111M
1306.322	0.01	691788	STOP	n/a	n/a	n/a	n/a	-999	10	[-999, -999, -999]	n/a	catFR1	1	R1111M
1306.332	1.067	691793	DISTRACT_END	n/a	n/a	n/a	n/a	-999	10	[0, 0, 0]	n/a	catFR1	1	R1111M
1307.399	1.682	692327	REC_START	n/a	n/a	n/a	n/a	-999	10	[0, 0, 0]	n/a	catFR1	1	R1111M
1309.081	2.724	693168	REC_WORD_VV	2.724	n/a	<>	n/a	-999	10	[0, 0, 0]	n/a	catFR1	1	R1111M
1311.805	6.58	694529	REC_WORD	6.58	n/a	BOAT	Vehicles	5	10	[0, 0, 0]	n/a	catFR1	1	R1111M
1318.385	1.767	697819	REC_WORD	1.767	n/a	HEN	FarmAnimals	1	10	[0, 0, 0]	n/a	catFR1	1	R1111M
1320.152	2.264	698703	REC_WORD	2.264	n/a	LAMB	FarmAnimals	2	10	[0, 0, 0]	n/a	catFR1	1	R1111M
1322.416	1.504	699835	REC_WORD	1.504	n/a	HORSE	FarmAnimals	9	10	[0, 0, 0]	n/a	catFR1	1	R1111M
1323.92	2.304	700587	REC_WORD	2.304	n/a	BULL	FarmAnimals	10	10	[0, 0, 0]	n/a	catFR1	1	R1111M
1326.224	0.906	701739	REC_WORD	0.906	n/a	MOPED	Vehicles	11	10	[0, 0, 0]	n/a	catFR1	1	R1111M
1327.13	4.424	702191	REC_WORD	4.424	n/a	MOTORCYCLE	Vehicles	12	10	[0, 0, 0]	n/a	catFR1	1	R1111M
1331.554	2.606	704403	REC_WORD	2.606	n/a	ELM	Trees	3	10	[0, 0, 0]	n/a	catFR1	1	R1111M
1334.16	0.76	705706	REC_WORD	0.76	n/a	OAK	Trees	4	10	[0, 0, 0]	n/a	catFR1	1	R1111M
1334.92	1.343	706086	REC_WORD	1.343	n/a	MAPLE	Trees	7	10	[0, 0, 0]	n/a	catFR1	1	R1111M
1336.263	1.148	706758	REC_WORD	1.148	n/a	BIRCH	Trees	8	10	[0, 0, 0]	n/a	catFR1	1	R1111M
1337.411	23.498	707332	REC_END	n/a	n/a	n/a	n/a	-999	10	[0, 0, 0]	n/a	catFR1	1	R1111M
1360.909	0.001	719080	COUNTDOWN_START	n/a	n/a	n/a	n/a	-999	11	[0, 0, 0]	n/a	catFR1	1	R1111M
1360.91	10.427	719081	TRIAL	n/a	n/a	n/a	n/a	-999	11	[0, 0, 0]	n/a	catFR1	1	R1111M
1371.337	0.008	724294	COUNTDOWN_END	n/a	n/a	n/a	n/a	-999	11	[0, 0, 0]	n/a	catFR1	1	R1111M
1371.345	3.751	724298	ORIENT	n/a	n/a	n/a	n/a	-999	11	[0, 0, 0]	n/a	catFR1	1	R1111M
1375.096	2.6	726173	WORD	n/a	wordpools/wordpool_categorized_EN.txt	SHORTS	Clothing	1	11	[0, 0, 0]	n/a	catFR1	1	R1111M
1377.696	2.617	727473	WORD	n/a	wordpools/wordpool_categorized_EN.txt	COAT	Clothing	2	11	[0, 0, 0]	n/a	catFR1	1	R1111M
1380.313	2.551	728781	WORD	n/a	wordpools/wordpool_categorized_EN.txt	SUNFLOWER	Flowers	3	11	[0, 0, 0]	n/a	catFR1	1	R1111M
1382.864	2.4	730057	WORD	n/a	wordpools/wordpool_categorized_EN.txt	DAISY	Flowers	4	11	[0, 0, 0]	n/a	catFR1	1	R1111M
1385.264	2.467	731257	WORD	n/a	wordpools/wordpool_categorized_EN.txt	WRENCH	Tools	5	11	[0, 0, 0]	n/a	catFR1	1	R1111M
1387.731	2.384	732490	WORD	n/a	wordpools/wordpool_categorized_EN.txt	SAW	Tools	6	11	[0, 0, 0]	n/a	catFR1	1	R1111M
1390.115	2.384	733682	WORD	n/a	wordpools/wordpool_categorized_EN.txt	VIOLET	Flowers	7	11	[0, 0, 0]	n/a	catFR1	1	R1111M
1392.499	2.617	734874	WORD	n/a	wordpools/wordpool_categorized_EN.txt	ORCHID	Flowers	8	11	[0, 0, 0]	n/a	catFR1	1	R1111M
1395.116	2.601	736183	WORD	n/a	wordpools/wordpool_categorized_EN.txt	SKIRT	Clothing	9	11	[0, 0, 0]	n/a	catFR1	1	R1111M
1397.717	2.617	737483	WORD	n/a	wordpools/wordpool_categorized_EN.txt	BLOUSE	Clothing	10	11	[0, 0, 0]	n/a	catFR1	1	R1111M
1400.334	2.417	738791	WORD	n/a	wordpools/wordpool_categorized_EN.txt	HAMMER	Tools	11	11	[0, 0, 0]	n/a	catFR1	1	R1111M
1402.751	1.617	740000	WORD	n/a	wordpools/wordpool_categorized_EN.txt	PLIERS	Tools	12	11	[0, 0, 0]	n/a	catFR1	1	R1111M
1404.368	0.0	740808	DISTRACT_START	n/a	n/a	n/a	n/a	-999	11	[0, 0, 0]	n/a	catFR1	1	R1111M
1404.368	0.016	740808	START	n/a	n/a	n/a	n/a	-999	11	[-999, -999, -999]	n/a	catFR1	1	R1111M
1404.384	14.987	740816	PROB	14.987	n/a	n/a	n/a	-999	11	[5, 2, 3]	10	catFR1	1	R1111M
1419.371	9.518	748309	PROB	9.518	n/a	n/a	n/a	-999	11	[2, 1, 5]	8	catFR1	1	R1111M
1428.889	0.017	753068	STOP	n/a	n/a	n/a	n/a	-999	11	[-999, -999, -999]	n/a	catFR1	1	R1111M
1428.906	1.151	753077	DISTRACT_END	n/a	n/a	n/a	n/a	-999	11	[0, 0, 0]	n/a	catFR1	1	R1111M
1430.057	2.486	753652	REC_START	n/a	n/a	n/a	n/a	-999	11	[0, 0, 0]	n/a	catFR1	1	R1111M
1432.543	1.103	754895	REC_WORD	1.103	n/a	SHORTS	Clothing	1	11	[0, 0, 0]	n/a	catFR1	1	R1111M
1433.646	2.348	755446	REC_WORD	2.348	n/a	COAT	Clothing	2	11	[0, 0, 0]	n/a	catFR1	1	R1111M
1435.994	2.303	756620	REC_WORD	2.303	n/a	SUNFLOWER	Flowers	3	11	[0, 0, 0]	n/a	catFR1	1	R1111M
1438.297	2.891	757772	REC_WORD	2.891	n/a	DAISY	Flowers	4	11	[0, 0, 0]	n/a	catFR1	1	R1111M
1441.188	0.836	759217	REC_WORD	0.836	n/a	BLOUSE	Clothing	10	11	[0, 0, 0]	n/a	catFR1	1	R1111M
1442.024	2.477	759635	REC_WORD	2.477	n/a	SKIRT	Clothing	9	11	[0, 0, 0]	n/a	catFR1	1	R1111M
1444.501	2.661	760874	REC_WORD	2.661	n/a	VIOLET	Flowers	7	11	[0, 0, 0]	n/a	catFR1	1	R1111M
1447.162	1.96	762204	REC_WORD	1.96	n/a	PLIERS	Tools	12	11	[0, 0, 0]	n/a	catFR1	1	R1111M
1449.122	1.295	763184	REC_WORD	1.295	n/a	WRENCH	Tools	5	11	[0, 0, 0]	n/a	catFR1	1	R1111M
1450.417	1.906	763832	REC_WORD	1.906	n/a	HAMMER	Tools	11	11	[0, 0, 0]	n/a	catFR1	1	R1111M
1452.323	7.745	764784	REC_WORD	7.745	n/a	SAW	Tools	6	11	[0, 0, 0]	n/a	catFR1	1	R1111M
1460.068	7.929	768657	REC_END	n/a	n/a	n/a	n/a	-999	11	[0, 0, 0]	n/a	catFR1	1	R1111M
1467.997	0.0	772621	TRIAL	n/a	n/a	n/a	n/a	-999	12	[0, 0, 0]	n/a	catFR1	1	R1111M
1467.997	10.428	772621	COUNTDOWN_START	n/a	n/a	n/a	n/a	-999	12	[0, 0, 0]	n/a	catFR1	1	R1111M
1478.425	0.007	777835	COUNTDOWN_END	n/a	n/a	n/a	n/a	-999	12	[0, 0, 0]	n/a	catFR1	1	R1111M
1478.432	3.934	777838	ORIENT	n/a	n/a	n/a	n/a	-999	12	[0, 0, 0]	n/a	catFR1	1	R1111M
1482.366	2.467	779805	WORD	n/a	wordpools/wordpool_categorized_EN.txt	CHERRY	Fruit	1	12	[0, 0, 0]	n/a	catFR1	1	R1111M
1484.833	2.384	781039	WORD	n/a	wordpools/wordpool_categorized_EN.txt	BLUEBERRY	Fruit	2	12	[0, 0, 0]	n/a	catFR1	1	R1111M
1487.217	2.417	782230	WORD	n/a	wordpools/wordpool_categorized_EN.txt	SOCKS	Clothing	3	12	[0, 0, 0]	n/a	catFR1	1	R1111M
1489.634	2.417	783439	WORD	n/a	wordpools/wordpool_categorized_EN.txt	SHOES	Clothing	4	12	[0, 0, 0]	n/a	catFR1	1	R1111M
1492.051	2.434	784647	WORD	n/a	wordpools/wordpool_categorized_EN.txt	CALCULATOR	Electronics	5	12	[0, 0, 0]	n/a	catFR1	1	R1111M
1494.485	2.384	785864	WORD	n/a	wordpools/wordpool_categorized_EN.txt	SPEAKER	Electronics	6	12	[0, 0, 0]	n/a	catFR1	1	R1111M
1496.869	2.534	787056	WORD	n/a	wordpools/wordpool_categorized_EN.txt	PANTS	Clothing	7	12	[0, 0, 0]	n/a	catFR1	1	R1111M
1499.403	2.617	788323	WORD	n/a	wordpools/wordpool_categorized_EN.txt	JACKET	Clothing	8	12	[0, 0, 0]	n/a	catFR1	1	R1111M
1502.02	2.417	789632	WORD	n/a	wordpools/wordpool_categorized_EN.txt	STRAWBERRY	Fruit	9	12	[0, 0, 0]	n/a	catFR1	1	R1111M
1504.437	2.484	790840	WORD	n/a	wordpools/wordpool_categorized_EN.txt	PEACH	Fruit	10	12	[0, 0, 0]	n/a	catFR1	1	R1111M
1506.921	2.467	792082	WORD	n/a	wordpools/wordpool_categorized_EN.txt	TABLET	Electronics	11	12	[0, 0, 0]	n/a	catFR1	1	R1111M
1509.388	1.617	793315	WORD	n/a	wordpools/wordpool_categorized_EN.txt	RADIO	Electronics	12	12	[0, 0, 0]	n/a	catFR1	1	R1111M
1511.005	0.001	794124	DISTRACT_START	n/a	n/a	n/a	n/a	-999	12	[0, 0, 0]	n/a	catFR1	1	R1111M
1511.006	0.016	794124	START	n/a	n/a	n/a	n/a	-999	12	[-999, -999, -999]	n/a	catFR1	1	R1111M
1511.022	7.218	794132	PROB	7.218	n/a	n/a	n/a	-999	12	[3, 6, 6]	15	catFR1	1	R1111M
1518.24	4.267	797741	PROB	4.267	n/a	n/a	n/a	-999	12	[4, 2, 1]	7	catFR1	1	R1111M
1522.507	6.202	799874	PROB	6.202	n/a	n/a	n/a	-999	12	[6, 8, 5]	19	catFR1	1	R1111M
1528.709	4.125	802975	PROB	4.125	n/a	n/a	n/a	-999	12	[2, 2, 3]	7	catFR1	1	R1111M
1532.834	0.009	805038	STOP	n/a	n/a	n/a	n/a	-999	12	[-999, -999, -999]	n/a	catFR1	1	R1111M
1532.843	1.234	805042	DISTRACT_END	n/a	n/a	n/a	n/a	-999	12	[0, 0, 0]	n/a	catFR1	1	R1111M
1534.077	6.808	805659	REC_START	n/a	n/a	n/a	n/a	-999	12	[0, 0, 0]	n/a	catFR1	1	R1111M
1540.885	0.825	809063	REC_WORD	0.825	n/a	SOCKS	Clothing	3	12	[0, 0, 0]	n/a	catFR1	1	R1111M
1541.71	0.943	809475	REC_WORD	0.943	n/a	SHOES	Clothing	4	12	[0, 0, 0]	n/a	catFR1	1	R1111M
1542.653	0.86	809947	REC_WORD	0.86	n/a	CHERRY	Fruit	1	12	[0, 0, 0]	n/a	catFR1	1	R1111M
1543.513	0.956	810377	REC_WORD	0.956	n/a	BLUEBERRY	Fruit	2	12	[0, 0, 0]	n/a	catFR1	1	R1111M
1544.469	1.445	810855	REC_WORD	1.445	n/a	PEACH	Fruit	10	12	[0, 0, 0]	n/a	catFR1	1	R1111M
1545.914	3.722	811577	REC_WORD	3.722	n/a	STRAWBERRY	Fruit	9	12	[0, 0, 0]	n/a	catFR1	1	R1111M
1549.636	1.487	813438	REC_WORD	1.487	n/a	JACKET	Clothing	8	12	[0, 0, 0]	n/a	catFR1	1	R1111M
1551.123	1.344	814182	REC_WORD	1.344	n/a	SHIRT	n/a	-999	12	[0, 0, 0]	n/a	catFR1	1	R1111M
1552.467	0.886	814854	REC_WORD	0.886	n/a	CALCULATOR	Electronics	5	12	[0, 0, 0]	n/a	catFR1	1	R1111M
1553.353	0.905	815297	REC_WORD	0.905	n/a	SPEAKER	Electronics	6	12	[0, 0, 0]	n/a	catFR1	1	R1111M
1554.258	1.136	815749	REC_WORD	1.136	n/a	TABLET	Electronics	11	12	[0, 0, 0]	n/a	catFR1	1	R1111M
1555.394	8.693	816317	REC_WORD	8.693	n/a	RADIO	Electronics	12	12	[0, 0, 0]	n/a	catFR1	1	R1111M
1564.087	35.985	820663	REC_END	n/a	n/a	n/a	n/a	-999	12	[0, 0, 0]	n/a	catFR1	1	R1111M
1600.072	0.001	838655	COUNTDOWN_START	n/a	n/a	n/a	n/a	-999	13	[0, 0, 0]	n/a	catFR1	1	R1111M
1600.073	0.0	838655	TRIAL	n/a	n/a	n/a	n/a	-999	13	[0, 0, 0]	n/a	catFR1	1	R1111M
