onset	duration	sample	trial_type	response_time	stim_file	item_name	category	serialpos	list	test	answer	experiment	session	subject
0.0	164.815	24118	INSTRUCT_START	n/a	n/a	n/a	n/a	-999	-999	[0, 0, 0]	n/a	catFR1	1	R1498D
164.815	43.117	188922	INSTRUCT_END	n/a	n/a	n/a	n/a	-999	-999	[0, 0, 0]	n/a	catFR1	1	R1498D
207.932	10.35	232039	COUNTDOWN_START	n/a	n/a	n/a	n/a	-999	-999	[0, 0, 0]	n/a	catFR1	1	R1498D
218.282	0.0	242384	COUNTDOWN_END	n/a	n/a	n/a	n/a	-999	-999	[0, 0, 0]	n/a	catFR1	1	R1498D
218.282	1.834	242384	ENCODING_START	n/a	n/a	n/a	n/a	-999	-1	[0, 0, 0]	n/a	catFR1	1	R1498D
220.116	1.599	244217	WORD	n/a	n/a	MICROWAVE	Electronics	1	-1	[0, 0, 0]	n/a	catFR1	1	R1498D
221.715	0.833	245821	WORD_OFF	n/a	n/a	MICROWAVE	Electronics	1	-1	[0, 0, 0]	n/a	catFR1	1	R1498D
222.548	1.617	246653	WORD	n/a	n/a	RADIO	Electronics	2	-1	[0, 0, 0]	n/a	catFR1	1	R1498D
224.165	0.917	248265	WORD_OFF	n/a	n/a	RADIO	Electronics	2	-1	[0, 0, 0]	n/a	catFR1	1	R1498D
225.082	1.616	249186	WORD	n/a	n/a	ORCHID	Flowers	3	-1	[0, 0, 0]	n/a	catFR1	1	R1498D
226.698	0.867	250798	WORD_OFF	n/a	n/a	ORCHID	Flowers	3	-1	[0, 0, 0]	n/a	catFR1	1	R1498D
227.565	1.617	251666	WORD	n/a	n/a	DAISY	Flowers	4	-1	[0, 0, 0]	n/a	catFR1	1	R1498D
229.182	0.966	253287	WORD_OFF	n/a	n/a	DAISY	Flowers	4	-1	[0, 0, 0]	n/a	catFR1	1	R1498D
230.148	1.616	254253	WORD	n/a	n/a	FOOT	BodyParts	5	-1	[0, 0, 0]	n/a	catFR1	1	R1498D
231.764	0.9	255865	WORD_OFF	n/a	n/a	FOOT	BodyParts	5	-1	[0, 0, 0]	n/a	catFR1	1	R1498D
232.664	1.617	256768	WORD	n/a	n/a	HAND	BodyParts	6	-1	[0, 0, 0]	n/a	catFR1	1	R1498D
234.281	0.8	258380	WORD_OFF	n/a	n/a	HAND	BodyParts	6	-1	[0, 0, 0]	n/a	catFR1	1	R1498D
235.081	1.6	259186	WORD	n/a	n/a	MARIGOLD	Flowers	7	-1	[0, 0, 0]	n/a	catFR1	1	R1498D
236.681	0.967	260780	WORD_OFF	n/a	n/a	MARIGOLD	Flowers	7	-1	[0, 0, 0]	n/a	catFR1	1	R1498D
237.648	1.6	261755	WORD	n/a	n/a	LILY	Flowers	8	-1	[0, 0, 0]	n/a	catFR1	1	R1498D
239.248	0.916	263349	WORD_OFF	n/a	n/a	LILY	Flowers	8	-1	[0, 0, 0]	n/a	catFR1	1	R1498D
240.164	1.601	264270	WORD	n/a	n/a	EYE	BodyParts	9	-1	[0, 0, 0]	n/a	catFR1	1	R1498D
241.765	0.917	265864	WORD_OFF	n/a	n/a	EYE	BodyParts	9	-1	[0, 0, 0]	n/a	catFR1	1	R1498D
242.682	1.6	266785	WORD	n/a	n/a	ARM	BodyParts	10	-1	[0, 0, 0]	n/a	catFR1	1	R1498D
244.282	0.966	268389	WORD_OFF	n/a	n/a	ARM	BodyParts	10	-1	[0, 0, 0]	n/a	catFR1	1	R1498D
245.248	1.617	269354	WORD	n/a	n/a	STEREO	Electronics	11	-1	[0, 0, 0]	n/a	catFR1	1	R1498D
246.865	0.9	270966	WORD_OFF	n/a	n/a	STEREO	Electronics	11	-1	[0, 0, 0]	n/a	catFR1	1	R1498D
247.765	1.602	271869	WORD	n/a	n/a	COMPUTER	Electronics	12	-1	[0, 0, 0]	n/a	catFR1	1	R1498D
249.367	0.0	273468	START	n/a	n/a	n/a	n/a	-999	-1	[-999, -999, -999]	n/a	catFR1	1	R1498D
249.367	0.0	273468	PROB	15.266	n/a	n/a	n/a	-999	-1	[4, 5, 8]	17.0	catFR1	1	R1498D
249.365	0.002	273473	WORD_OFF	n/a	n/a	COMPUTER	Electronics	12	-1	[0, 0, 0]	n/a	catFR1	1	R1498D
249.367	0.0	273473	ENCODING_END	n/a	n/a	n/a	n/a	-999	-1	[0, 0, 0]	n/a	catFR1	1	R1498D
249.367	15.282	273473	DISTRACT_START	n/a	n/a	n/a	n/a	-999	-1	[0, 0, 0]	n/a	catFR1	1	R1498D
264.649	5.916	288749	PROB	5.9	n/a	n/a	n/a	-999	-1	[7, 8, 3]	18.0	catFR1	1	R1498D
270.565	0.0	294665	STOP	n/a	n/a	n/a	n/a	-999	-1	[-999, -999, -999]	n/a	catFR1	1	R1498D
270.565	2.133	294668	DISTRACT_END	n/a	n/a	n/a	n/a	-999	-1	[0, 0, 0]	n/a	catFR1	1	R1498D
272.698	9.662	296801	REC_START	n/a	n/a	n/a	n/a	-999	-1	[0, 0, 0]	n/a	catFR1	1	R1498D
282.36	4.642	306459	REC_WORD	9.662	n/a	MARIGOLD	Flowers	7	-1	[0, 0, 0]	n/a	catFR1	1	R1498D
287.002	15.877	311101	REC_WORD_VV	14.304	n/a	<>	n/a	-999	-1	[0, 0, 0]	n/a	catFR1	1	R1498D
302.879	57.286	326978	REC_END	n/a	n/a	n/a	n/a	-999	-1	[0, 0, 0]	n/a	catFR1	1	R1498D
360.165	10.349	384266	COUNTDOWN_START	n/a	n/a	n/a	n/a	-999	1	[0, 0, 0]	n/a	catFR1	1	R1498D
370.514	0.001	394612	COUNTDOWN_END	n/a	n/a	n/a	n/a	-999	1	[0, 0, 0]	n/a	catFR1	1	R1498D
370.515	2.233	394612	ENCODING_START	n/a	n/a	n/a	n/a	-999	1	[0, 0, 0]	n/a	catFR1	1	R1498D
372.748	1.6	396844	WORD	n/a	wordpools/wordpool_categorized_EN.txt	STRAINER	KitchenTools	1	1	[0, 0, 0]	n/a	catFR1	1	R1498D
374.348	0.784	398447	WORD_OFF	n/a	n/a	STRAINER	KitchenTools	1	1	[0, 0, 0]	n/a	catFR1	1	R1498D
375.132	1.615	399226	WORD	n/a	wordpools/wordpool_categorized_EN.txt	WHISK	KitchenTools	2	1	[0, 0, 0]	n/a	catFR1	1	R1498D
376.747	0.968	400847	WORD_OFF	n/a	n/a	WHISK	KitchenTools	2	1	[0, 0, 0]	n/a	catFR1	1	R1498D
377.715	1.617	401812	WORD	n/a	wordpools/wordpool_categorized_EN.txt	COW	FarmAnimals	3	1	[0, 0, 0]	n/a	catFR1	1	R1498D
379.332	0.799	403424	WORD_OFF	n/a	n/a	COW	FarmAnimals	3	1	[0, 0, 0]	n/a	catFR1	1	R1498D
380.131	1.601	404230	WORD	n/a	wordpools/wordpool_categorized_EN.txt	PIG	FarmAnimals	4	1	[0, 0, 0]	n/a	catFR1	1	R1498D
381.732	0.767	405825	WORD_OFF	n/a	n/a	PIG	FarmAnimals	4	1	[0, 0, 0]	n/a	catFR1	1	R1498D
382.499	1.616	406595	WORD	n/a	wordpools/wordpool_categorized_EN.txt	CRAB	OceanAnimals	5	1	[0, 0, 0]	n/a	catFR1	1	R1498D
384.115	0.783	408207	WORD_OFF	n/a	n/a	CRAB	OceanAnimals	5	1	[0, 0, 0]	n/a	catFR1	1	R1498D
384.898	1.617	408996	WORD	n/a	wordpools/wordpool_categorized_EN.txt	DOLPHIN	OceanAnimals	6	1	[0, 0, 0]	n/a	catFR1	1	R1498D
386.515	0.853	410608	WORD_OFF	n/a	n/a	DOLPHIN	OceanAnimals	6	1	[0, 0, 0]	n/a	catFR1	1	R1498D
387.368	1.597	411467	WORD	n/a	wordpools/wordpool_categorized_EN.txt	SHEEP	FarmAnimals	7	1	[0, 0, 0]	n/a	catFR1	1	R1498D
388.965	1.0	413061	WORD_OFF	n/a	n/a	SHEEP	FarmAnimals	7	1	[0, 0, 0]	n/a	catFR1	1	R1498D
389.965	1.617	414062	WORD	n/a	wordpools/wordpool_categorized_EN.txt	LAMB	FarmAnimals	8	1	[0, 0, 0]	n/a	catFR1	1	R1498D
391.582	0.966	415674	WORD_OFF	n/a	n/a	LAMB	FarmAnimals	8	1	[0, 0, 0]	n/a	catFR1	1	R1498D
392.548	1.6	416639	WORD	n/a	wordpools/wordpool_categorized_EN.txt	LADLE	KitchenTools	9	1	[0, 0, 0]	n/a	catFR1	1	R1498D
394.148	0.95	418242	WORD_OFF	n/a	n/a	LADLE	KitchenTools	9	1	[0, 0, 0]	n/a	catFR1	1	R1498D
395.098	1.615	419190	WORD	n/a	wordpools/wordpool_categorized_EN.txt	KNIFE	KitchenTools	10	1	[0, 0, 0]	n/a	catFR1	1	R1498D
396.713	1.002	420811	WORD_OFF	n/a	n/a	KNIFE	KitchenTools	10	1	[0, 0, 0]	n/a	catFR1	1	R1498D
397.715	1.6	421812	WORD	n/a	wordpools/wordpool_categorized_EN.txt	OYSTER	OceanAnimals	11	1	[0, 0, 0]	n/a	catFR1	1	R1498D
399.315	0.933	423406	WORD_OFF	n/a	n/a	OYSTER	OceanAnimals	11	1	[0, 0, 0]	n/a	catFR1	1	R1498D
400.248	1.6	424345	WORD	n/a	wordpools/wordpool_categorized_EN.txt	FISH	OceanAnimals	12	1	[0, 0, 0]	n/a	catFR1	1	R1498D
401.848	0.0	425939	WORD_OFF	n/a	n/a	FISH	OceanAnimals	12	1	[0, 0, 0]	n/a	catFR1	1	R1498D
401.848	0.002	425941	PROB	6.249	n/a	n/a	n/a	-999	1	[2, 4, 6]	12.0	catFR1	1	R1498D
401.85	0.0	425943	START	n/a	n/a	n/a	n/a	-999	1	[-999, -999, -999]	n/a	catFR1	1	R1498D
401.85	0.0	425948	ENCODING_END	n/a	n/a	n/a	n/a	-999	1	[0, 0, 0]	n/a	catFR1	1	R1498D
401.85	6.264	425948	DISTRACT_START	n/a	n/a	n/a	n/a	-999	1	[0, 0, 0]	n/a	catFR1	1	R1498D
408.114	7.351	432206	PROB	7.334	n/a	n/a	n/a	-999	1	[4, 2, 3]	9.0	catFR1	1	R1498D
415.465	11.517	439557	PROB	11.5	n/a	n/a	n/a	-999	1	[8, 4, 1]	13.0	catFR1	1	R1498D
426.982	0.0	451073	STOP	n/a	n/a	n/a	n/a	-999	1	[-999, -999, -999]	n/a	catFR1	1	R1498D
426.982	2.183	451076	DISTRACT_END	n/a	n/a	n/a	n/a	-999	1	[0, 0, 0]	n/a	catFR1	1	R1498D
429.165	8.555	453254	REC_START	n/a	n/a	n/a	n/a	-999	1	[0, 0, 0]	n/a	catFR1	1	R1498D
437.72	0.358	461811	REC_WORD_VV	8.555	n/a	<>	n/a	-999	1	[0, 0, 0]	n/a	catFR1	1	R1498D
438.078	0.781	462169	REC_WORD	8.913	n/a	STRAINER	KitchenTools	1	1	[0, 0, 0]	n/a	catFR1	1	R1498D
438.859	4.747	462950	REC_WORD	9.694	n/a	COW	FarmAnimals	3	1	[0, 0, 0]	n/a	catFR1	1	R1498D
443.606	6.036	467696	REC_WORD	14.441	n/a	CRAB	OceanAnimals	5	1	[0, 0, 0]	n/a	catFR1	1	R1498D
449.642	9.724	473732	REC_WORD	20.477	n/a	SHEEP	FarmAnimals	7	1	[0, 0, 0]	n/a	catFR1	1	R1498D
459.366	24.932	483458	REC_END	n/a	n/a	n/a	n/a	-999	1	[0, 0, 0]	n/a	catFR1	1	R1498D
484.298	10.35	508390	COUNTDOWN_START	n/a	n/a	n/a	n/a	-999	2	[0, 0, 0]	n/a	catFR1	1	R1498D
494.648	0.0	518736	COUNTDOWN_END	n/a	n/a	n/a	n/a	-999	2	[0, 0, 0]	n/a	catFR1	1	R1498D
494.648	2.084	518736	ENCODING_START	n/a	n/a	n/a	n/a	-999	2	[0, 0, 0]	n/a	catFR1	1	R1498D
496.732	1.616	520817	WORD	n/a	wordpools/wordpool_categorized_EN.txt	TUBA	Instruments	1	2	[0, 0, 0]	n/a	catFR1	1	R1498D
498.348	0.817	522438	WORD_OFF	n/a	n/a	TUBA	Instruments	1	2	[0, 0, 0]	n/a	catFR1	1	R1498D
499.165	1.6	523253	WORD	n/a	wordpools/wordpool_categorized_EN.txt	TRUMPET	Instruments	2	2	[0, 0, 0]	n/a	catFR1	1	R1498D
500.765	0.916	524856	WORD_OFF	n/a	n/a	TRUMPET	Instruments	2	2	[0, 0, 0]	n/a	catFR1	1	R1498D
501.681	1.617	525768	WORD	n/a	wordpools/wordpool_categorized_EN.txt	VIOLET	Flowers	3	2	[0, 0, 0]	n/a	catFR1	1	R1498D
503.298	0.95	527389	WORD_OFF	n/a	n/a	VIOLET	Flowers	3	2	[0, 0, 0]	n/a	catFR1	1	R1498D
504.248	1.616	528337	WORD	n/a	wordpools/wordpool_categorized_EN.txt	DAFFODIL	Flowers	4	2	[0, 0, 0]	n/a	catFR1	1	R1498D
505.864	0.834	529958	WORD_OFF	n/a	n/a	DAFFODIL	Flowers	4	2	[0, 0, 0]	n/a	catFR1	1	R1498D
506.698	1.617	530790	WORD	n/a	wordpools/wordpool_categorized_EN.txt	COLA	Beverages	5	2	[0, 0, 0]	n/a	catFR1	1	R1498D
508.315	0.95	532402	WORD_OFF	n/a	n/a	COLA	Beverages	5	2	[0, 0, 0]	n/a	catFR1	1	R1498D
509.265	1.617	533350	WORD	n/a	wordpools/wordpool_categorized_EN.txt	LEMONADE	Beverages	6	2	[0, 0, 0]	n/a	catFR1	1	R1498D
510.882	0.817	534971	WORD_OFF	n/a	n/a	LEMONADE	Beverages	6	2	[0, 0, 0]	n/a	catFR1	1	R1498D
511.699	1.616	535786	WORD	n/a	wordpools/wordpool_categorized_EN.txt	PIANO	Instruments	7	2	[0, 0, 0]	n/a	catFR1	1	R1498D
513.315	0.983	537406	WORD_OFF	n/a	n/a	PIANO	Instruments	7	2	[0, 0, 0]	n/a	catFR1	1	R1498D
514.298	1.618	538390	WORD	n/a	wordpools/wordpool_categorized_EN.txt	FLUTE	Instruments	8	2	[0, 0, 0]	n/a	catFR1	1	R1498D
515.916	0.999	540002	WORD_OFF	n/a	n/a	FLUTE	Instruments	8	2	[0, 0, 0]	n/a	catFR1	1	R1498D
516.915	1.6	541002	WORD	n/a	wordpools/wordpool_categorized_EN.txt	RUM	Beverages	9	2	[0, 0, 0]	n/a	catFR1	1	R1498D
518.515	0.934	542605	WORD_OFF	n/a	n/a	RUM	Beverages	9	2	[0, 0, 0]	n/a	catFR1	1	R1498D
519.449	1.615	543535	WORD	n/a	wordpools/wordpool_categorized_EN.txt	BEER	Beverages	10	2	[0, 0, 0]	n/a	catFR1	1	R1498D
521.064	0.883	545156	WORD_OFF	n/a	n/a	BEER	Beverages	10	2	[0, 0, 0]	n/a	catFR1	1	R1498D
521.947	1.601	546033	WORD	n/a	wordpools/wordpool_categorized_EN.txt	LILAC	Flowers	11	2	[0, 0, 0]	n/a	catFR1	1	R1498D
523.548	1.0	547636	WORD_OFF	n/a	n/a	LILAC	Flowers	11	2	[0, 0, 0]	n/a	catFR1	1	R1498D
524.548	1.601	548637	WORD	n/a	wordpools/wordpool_categorized_EN.txt	PETUNIA	Flowers	12	2	[0, 0, 0]	n/a	catFR1	1	R1498D
526.149	0.001	550235	PROB	19.483	n/a	n/a	n/a	-999	2	[8, 8, 8]	21.0	catFR1	1	R1498D
526.15	0.0	550236	START	n/a	n/a	n/a	n/a	-999	2	[-999, -999, -999]	n/a	catFR1	1	R1498D
526.148	0.002	550240	WORD_OFF	n/a	n/a	PETUNIA	Flowers	12	2	[0, 0, 0]	n/a	catFR1	1	R1498D
526.15	0.0	550240	ENCODING_END	n/a	n/a	n/a	n/a	-999	2	[0, 0, 0]	n/a	catFR1	1	R1498D
526.15	19.498	550240	DISTRACT_START	n/a	n/a	n/a	n/a	-999	2	[0, 0, 0]	n/a	catFR1	1	R1498D
545.648	13.834	569733	PROB	13.817	n/a	n/a	n/a	-999	2	[4, 5, 8]	17.0	catFR1	1	R1498D
559.482	0.0	583566	STOP	n/a	n/a	n/a	n/a	-999	2	[-999, -999, -999]	n/a	catFR1	1	R1498D
559.482	2.083	583570	DISTRACT_END	n/a	n/a	n/a	n/a	-999	2	[0, 0, 0]	n/a	catFR1	1	R1498D
561.565	30.016	585650	REC_START	n/a	n/a	n/a	n/a	-999	2	[0, 0, 0]	n/a	catFR1	1	R1498D
591.581	0.201	615663	REC_WORD_VV	30.016	n/a	<>	n/a	-999	2	[0, 0, 0]	n/a	catFR1	1	R1498D
591.782	21.433	615863	REC_END	n/a	n/a	n/a	n/a	-999	2	[0, 0, 0]	n/a	catFR1	1	R1498D
613.215	10.35	637297	COUNTDOWN_START	n/a	n/a	n/a	n/a	-999	3	[0, 0, 0]	n/a	catFR1	1	R1498D
623.565	0.001	647651	COUNTDOWN_END	n/a	n/a	n/a	n/a	-999	3	[0, 0, 0]	n/a	catFR1	1	R1498D
623.566	1.799	647651	ENCODING_START	n/a	n/a	n/a	n/a	-999	3	[0, 0, 0]	n/a	catFR1	1	R1498D
625.365	1.617	649449	WORD	n/a	wordpools/wordpool_categorized_EN.txt	MOSQUITO	Insects	1	3	[0, 0, 0]	n/a	catFR1	1	R1498D
626.982	0.966	651061	WORD_OFF	n/a	n/a	MOSQUITO	Insects	1	3	[0, 0, 0]	n/a	catFR1	1	R1498D
627.948	1.6	652027	WORD	n/a	wordpools/wordpool_categorized_EN.txt	SPIDER	Insects	2	3	[0, 0, 0]	n/a	catFR1	1	R1498D
629.548	0.784	653630	WORD_OFF	n/a	n/a	SPIDER	Insects	2	3	[0, 0, 0]	n/a	catFR1	1	R1498D
630.332	1.6	654418	WORD	n/a	wordpools/wordpool_categorized_EN.txt	STOVE	Appliances	3	3	[0, 0, 0]	n/a	catFR1	1	R1498D
631.932	0.833	656012	WORD_OFF	n/a	n/a	STOVE	Appliances	3	3	[0, 0, 0]	n/a	catFR1	1	R1498D
632.765	1.6	656845	WORD	n/a	wordpools/wordpool_categorized_EN.txt	BLENDER	Appliances	4	3	[0, 0, 0]	n/a	catFR1	1	R1498D
634.365	0.983	658448	WORD_OFF	n/a	n/a	BLENDER	Appliances	4	3	[0, 0, 0]	n/a	catFR1	1	R1498D
635.348	1.6	659431	WORD	n/a	wordpools/wordpool_categorized_EN.txt	CELERY	Vegetables	5	3	[0, 0, 0]	n/a	catFR1	1	R1498D
636.948	0.784	661034	WORD_OFF	n/a	n/a	CELERY	Vegetables	5	3	[0, 0, 0]	n/a	catFR1	1	R1498D
637.732	1.616	661814	WORD	n/a	wordpools/wordpool_categorized_EN.txt	PEAS	Vegetables	6	3	[0, 0, 0]	n/a	catFR1	1	R1498D
639.348	0.85	663426	WORD_OFF	n/a	n/a	PEAS	Vegetables	6	3	[0, 0, 0]	n/a	catFR1	1	R1498D
640.198	1.6	664276	WORD	n/a	wordpools/wordpool_categorized_EN.txt	FLY	Insects	7	3	[0, 0, 0]	n/a	catFR1	1	R1498D
641.798	0.884	665879	WORD_OFF	n/a	n/a	FLY	Insects	7	3	[0, 0, 0]	n/a	catFR1	1	R1498D
642.682	1.616	666765	WORD	n/a	wordpools/wordpool_categorized_EN.txt	MOTH	Insects	8	3	[0, 0, 0]	n/a	catFR1	1	R1498D
644.298	0.767	668377	WORD_OFF	n/a	n/a	MOTH	Insects	8	3	[0, 0, 0]	n/a	catFR1	1	R1498D
645.065	1.6	669147	WORD	n/a	wordpools/wordpool_categorized_EN.txt	VACUUM	Appliances	9	3	[0, 0, 0]	n/a	catFR1	1	R1498D
646.665	0.933	670742	WORD_OFF	n/a	n/a	VACUUM	Appliances	9	3	[0, 0, 0]	n/a	catFR1	1	R1498D
647.598	1.6	671681	WORD	n/a	wordpools/wordpool_categorized_EN.txt	REFRIGERATOR	Appliances	10	3	[0, 0, 0]	n/a	catFR1	1	R1498D
649.198	0.8	673284	WORD_OFF	n/a	n/a	REFRIGERATOR	Appliances	10	3	[0, 0, 0]	n/a	catFR1	1	R1498D
649.998	1.617	674081	WORD	n/a	wordpools/wordpool_categorized_EN.txt	ONION	Vegetables	11	3	[0, 0, 0]	n/a	catFR1	1	R1498D
651.615	0.916	675693	WORD_OFF	n/a	n/a	ONION	Vegetables	11	3	[0, 0, 0]	n/a	catFR1	1	R1498D
652.531	1.6	676614	WORD	n/a	wordpools/wordpool_categorized_EN.txt	CAULIFLOWER	Vegetables	12	3	[0, 0, 0]	n/a	catFR1	1	R1498D
654.131	0.001	678208	WORD_OFF	n/a	n/a	CAULIFLOWER	Vegetables	12	3	[0, 0, 0]	n/a	catFR1	1	R1498D
654.132	0.0	678211	PROB	5.183	n/a	n/a	n/a	-999	3	[1, 8, 8]	17.0	catFR1	1	R1498D
654.132	0.0	678211	START	n/a	n/a	n/a	n/a	-999	3	[-999, -999, -999]	n/a	catFR1	1	R1498D
654.132	0.0	678217	ENCODING_END	n/a	n/a	n/a	n/a	-999	3	[0, 0, 0]	n/a	catFR1	1	R1498D
654.132	5.2	678217	DISTRACT_START	n/a	n/a	n/a	n/a	-999	3	[0, 0, 0]	n/a	catFR1	1	R1498D
659.332	17.65	683411	PROB	17.633	n/a	n/a	n/a	-999	3	[4, 7, 6]	17.0	catFR1	1	R1498D
676.982	0.0	701060	DISTRACT_END	n/a	n/a	n/a	n/a	-999	3	[0, 0, 0]	n/a	catFR1	1	R1498D
676.982	2.065	701060	STOP	n/a	n/a	n/a	n/a	-999	3	[-999, -999, -999]	n/a	catFR1	1	R1498D
679.047	3.85	703131	REC_START	n/a	n/a	n/a	n/a	-999	3	[0, 0, 0]	n/a	catFR1	1	R1498D
682.897	9.558	706975	REC_WORD	3.85	n/a	MOSQUITO	Insects	1	3	[0, 0, 0]	n/a	catFR1	1	R1498D
692.455	7.389	716532	REC_WORD	13.408	n/a	SAW	n/a	-999	3	[0, 0, 0]	n/a	catFR1	1	R1498D
699.844	9.407	723921	REC_WORD	20.797	n/a	LIME	n/a	-999	3	[0, 0, 0]	n/a	catFR1	1	R1498D
709.251	47.214	733326	REC_END	n/a	n/a	n/a	n/a	-999	3	[0, 0, 0]	n/a	catFR1	1	R1498D
756.465	10.351	780544	COUNTDOWN_START	n/a	n/a	n/a	n/a	-999	4	[0, 0, 0]	n/a	catFR1	1	R1498D
766.816	0.0	790889	COUNTDOWN_END	n/a	n/a	n/a	n/a	-999	4	[0, 0, 0]	n/a	catFR1	1	R1498D
766.816	1.948	790889	ENCODING_START	n/a	n/a	n/a	n/a	-999	4	[0, 0, 0]	n/a	catFR1	1	R1498D
768.764	1.601	792837	WORD	n/a	wordpools/wordpool_categorized_EN.txt	BASKETBALL	Toys	1	4	[0, 0, 0]	n/a	catFR1	1	R1498D
770.365	0.983	794440	WORD_OFF	n/a	n/a	BASKETBALL	Toys	1	4	[0, 0, 0]	n/a	catFR1	1	R1498D
771.348	1.617	795424	WORD	n/a	wordpools/wordpool_categorized_EN.txt	FOOTBALL	Toys	2	4	[0, 0, 0]	n/a	catFR1	1	R1498D
772.965	0.867	797036	WORD_OFF	n/a	n/a	FOOTBALL	Toys	2	4	[0, 0, 0]	n/a	catFR1	1	R1498D
773.832	1.616	797904	WORD	n/a	wordpools/wordpool_categorized_EN.txt	GIRAFFE	Zoo	3	4	[0, 0, 0]	n/a	catFR1	1	R1498D
775.448	0.983	799524	WORD_OFF	n/a	n/a	GIRAFFE	Zoo	3	4	[0, 0, 0]	n/a	catFR1	1	R1498D
776.431	1.601	800508	WORD	n/a	wordpools/wordpool_categorized_EN.txt	CHEETAH	Zoo	4	4	[0, 0, 0]	n/a	catFR1	1	R1498D
778.032	0.866	802102	WORD_OFF	n/a	n/a	CHEETAH	Zoo	4	4	[0, 0, 0]	n/a	catFR1	1	R1498D
778.898	1.6	802970	WORD	n/a	wordpools/wordpool_categorized_EN.txt	WRENCH	Tools	5	4	[0, 0, 0]	n/a	catFR1	1	R1498D
780.498	0.95	804573	WORD_OFF	n/a	n/a	WRENCH	Tools	5	4	[0, 0, 0]	n/a	catFR1	1	R1498D
781.448	1.6	805521	WORD	n/a	wordpools/wordpool_categorized_EN.txt	RATCHET	Tools	6	4	[0, 0, 0]	n/a	catFR1	1	R1498D
783.048	0.95	807124	WORD_OFF	n/a	n/a	RATCHET	Tools	6	4	[0, 0, 0]	n/a	catFR1	1	R1498D
783.998	1.617	808072	WORD	n/a	wordpools/wordpool_categorized_EN.txt	PANDA	Zoo	7	4	[0, 0, 0]	n/a	catFR1	1	R1498D
785.615	0.8	809692	WORD_OFF	n/a	n/a	PANDA	Zoo	7	4	[0, 0, 0]	n/a	catFR1	1	R1498D
786.415	1.6	810490	WORD	n/a	wordpools/wordpool_categorized_EN.txt	ELEPHANT	Zoo	8	4	[0, 0, 0]	n/a	catFR1	1	R1498D
788.015	0.867	812093	WORD_OFF	n/a	n/a	ELEPHANT	Zoo	8	4	[0, 0, 0]	n/a	catFR1	1	R1498D
788.882	1.6	812952	WORD	n/a	wordpools/wordpool_categorized_EN.txt	PUZZLE	Toys	9	4	[0, 0, 0]	n/a	catFR1	1	R1498D
790.482	0.95	814555	WORD_OFF	n/a	n/a	PUZZLE	Toys	9	4	[0, 0, 0]	n/a	catFR1	1	R1498D
791.432	1.6	815503	WORD	n/a	wordpools/wordpool_categorized_EN.txt	DOLL	Toys	10	4	[0, 0, 0]	n/a	catFR1	1	R1498D
793.032	0.982	817106	WORD_OFF	n/a	n/a	DOLL	Toys	10	4	[0, 0, 0]	n/a	catFR1	1	R1498D
794.014	1.601	818089	WORD	n/a	wordpools/wordpool_categorized_EN.txt	DRILL	Tools	11	4	[0, 0, 0]	n/a	catFR1	1	R1498D
795.615	0.983	819692	WORD_OFF	n/a	n/a	DRILL	Tools	11	4	[0, 0, 0]	n/a	catFR1	1	R1498D
796.598	1.617	820675	WORD	n/a	wordpools/wordpool_categorized_EN.txt	SHOVEL	Tools	12	4	[0, 0, 0]	n/a	catFR1	1	R1498D
798.215	0.002	822287	WORD_OFF	n/a	n/a	SHOVEL	Tools	12	4	[0, 0, 0]	n/a	catFR1	1	R1498D
798.217	0.0	822287	ENCODING_END	n/a	n/a	n/a	n/a	-999	4	[0, 0, 0]	n/a	catFR1	1	R1498D
798.217	0.0	822287	DISTRACT_START	n/a	n/a	n/a	n/a	-999	4	[0, 0, 0]	n/a	catFR1	1	R1498D
798.216	0.001	822287	PROB	63.432	n/a	n/a	n/a	-999	4	[8, 5, 1]	16.0	catFR1	1	R1498D
798.217	63.447	822288	START	n/a	n/a	n/a	n/a	-999	4	[-999, -999, -999]	n/a	catFR1	1	R1498D
861.664	0.0	885731	DISTRACT_END	n/a	n/a	n/a	n/a	-999	4	[0, 0, 0]	n/a	catFR1	1	R1498D
861.664	2.333	885732	STOP	n/a	n/a	n/a	n/a	-999	4	[-999, -999, -999]	n/a	catFR1	1	R1498D
863.997	4.361	888068	REC_START	n/a	n/a	n/a	n/a	-999	4	[0, 0, 0]	n/a	catFR1	1	R1498D
868.358	13.964	892426	REC_WORD	4.361	n/a	CHEETAH	Zoo	4	4	[0, 0, 0]	n/a	catFR1	1	R1498D
882.322	1.0	906389	REC_WORD_VV	18.325	n/a	<>	n/a	-999	4	[0, 0, 0]	n/a	catFR1	1	R1498D
883.322	1.0	907389	REC_WORD_VV	19.325	n/a	<>	n/a	-999	4	[0, 0, 0]	n/a	catFR1	1	R1498D
884.322	1.0	908389	REC_WORD_VV	20.325	n/a	<>	n/a	-999	4	[0, 0, 0]	n/a	catFR1	1	R1498D
885.322	1.0	909389	REC_WORD_VV	21.325	n/a	<>	n/a	-999	4	[0, 0, 0]	n/a	catFR1	1	R1498D
886.322	1.0	910389	REC_WORD_VV	22.325	n/a	<>	n/a	-999	4	[0, 0, 0]	n/a	catFR1	1	R1498D
887.322	1.0	911389	REC_WORD_VV	23.325	n/a	<>	n/a	-999	4	[0, 0, 0]	n/a	catFR1	1	R1498D
888.322	1.0	912389	REC_WORD_VV	24.325	n/a	<>	n/a	-999	4	[0, 0, 0]	n/a	catFR1	1	R1498D
889.322	1.0	913389	REC_WORD_VV	25.325	n/a	<>	n/a	-999	4	[0, 0, 0]	n/a	catFR1	1	R1498D
890.322	1.552	914389	REC_WORD_VV	26.325	n/a	<>	n/a	-999	4	[0, 0, 0]	n/a	catFR1	1	R1498D
891.874	2.343	915940	REC_WORD_VV	27.877	n/a	<>	n/a	-999	4	[0, 0, 0]	n/a	catFR1	1	R1498D
894.217	36.014	918281	REC_END	n/a	n/a	n/a	n/a	-999	4	[0, 0, 0]	n/a	catFR1	1	R1498D
930.231	10.351	954294	COUNTDOWN_START	n/a	n/a	n/a	n/a	-999	5	[0, 0, 0]	n/a	catFR1	1	R1498D
940.582	0.0	964648	COUNTDOWN_END	n/a	n/a	n/a	n/a	-999	5	[0, 0, 0]	n/a	catFR1	1	R1498D
940.582	1.899	964648	ENCODING_START	n/a	n/a	n/a	n/a	-999	5	[0, 0, 0]	n/a	catFR1	1	R1498D
942.481	1.601	966544	WORD	n/a	wordpools/wordpool_categorized_EN.txt	TOASTER	Appliances	1	5	[0, 0, 0]	n/a	catFR1	1	R1498D
944.082	0.915	968147	WORD_OFF	n/a	n/a	TOASTER	Appliances	1	5	[0, 0, 0]	n/a	catFR1	1	R1498D
944.997	1.602	969059	WORD	n/a	wordpools/wordpool_categorized_EN.txt	FREEZER	Appliances	2	5	[0, 0, 0]	n/a	catFR1	1	R1498D
946.599	0.882	970662	WORD_OFF	n/a	n/a	FREEZER	Appliances	2	5	[0, 0, 0]	n/a	catFR1	1	R1498D
947.481	1.601	971548	WORD	n/a	wordpools/wordpool_categorized_EN.txt	TONGS	KitchenTools	3	5	[0, 0, 0]	n/a	catFR1	1	R1498D
949.082	0.966	973151	WORD_OFF	n/a	n/a	TONGS	KitchenTools	3	5	[0, 0, 0]	n/a	catFR1	1	R1498D
950.048	1.617	974116	WORD	n/a	wordpools/wordpool_categorized_EN.txt	CORKSCREW	KitchenTools	4	5	[0, 0, 0]	n/a	catFR1	1	R1498D
951.665	0.799	975728	WORD_OFF	n/a	n/a	CORKSCREW	KitchenTools	4	5	[0, 0, 0]	n/a	catFR1	1	R1498D
952.464	1.601	976526	WORD	n/a	wordpools/wordpool_categorized_EN.txt	WOOL	Fabric	5	5	[0, 0, 0]	n/a	catFR1	1	R1498D
954.065	0.9	978129	WORD_OFF	n/a	n/a	WOOL	Fabric	5	5	[0, 0, 0]	n/a	catFR1	1	R1498D
954.965	1.616	979032	WORD	n/a	wordpools/wordpool_categorized_EN.txt	SPANDEX	Fabric	6	5	[0, 0, 0]	n/a	catFR1	1	R1498D
956.581	0.934	980644	WORD_OFF	n/a	n/a	SPANDEX	Fabric	6	5	[0, 0, 0]	n/a	catFR1	1	R1498D
957.515	1.617	981583	WORD	n/a	wordpools/wordpool_categorized_EN.txt	DISHWASHER	Appliances	7	5	[0, 0, 0]	n/a	catFR1	1	R1498D
959.132	0.883	983195	WORD_OFF	n/a	n/a	DISHWASHER	Appliances	7	5	[0, 0, 0]	n/a	catFR1	1	R1498D
960.015	1.6	984081	WORD	n/a	wordpools/wordpool_categorized_EN.txt	OVEN	Appliances	8	5	[0, 0, 0]	n/a	catFR1	1	R1498D
961.615	0.966	985676	WORD_OFF	n/a	n/a	OVEN	Appliances	8	5	[0, 0, 0]	n/a	catFR1	1	R1498D
962.581	1.601	986649	WORD	n/a	wordpools/wordpool_categorized_EN.txt	SPATULA	KitchenTools	9	5	[0, 0, 0]	n/a	catFR1	1	R1498D
964.182	0.983	988244	WORD_OFF	n/a	n/a	SPATULA	KitchenTools	9	5	[0, 0, 0]	n/a	catFR1	1	R1498D
965.165	1.617	989227	WORD	n/a	wordpools/wordpool_categorized_EN.txt	COLANDER	KitchenTools	10	5	[0, 0, 0]	n/a	catFR1	1	R1498D
966.782	0.983	990848	WORD_OFF	n/a	n/a	COLANDER	KitchenTools	10	5	[0, 0, 0]	n/a	catFR1	1	R1498D
967.765	1.6	991831	WORD	n/a	wordpools/wordpool_categorized_EN.txt	SATIN	Fabric	11	5	[0, 0, 0]	n/a	catFR1	1	R1498D
969.365	0.95	993425	WORD_OFF	n/a	n/a	SATIN	Fabric	11	5	[0, 0, 0]	n/a	catFR1	1	R1498D
970.315	1.616	994382	WORD	n/a	wordpools/wordpool_categorized_EN.txt	SILK	Fabric	12	5	[0, 0, 0]	n/a	catFR1	1	R1498D
971.931	0.0	995993	PROB	7.867	n/a	n/a	n/a	-999	5	[5, 6, 4]	15.0	catFR1	1	R1498D
971.931	0.001	995994	WORD_OFF	n/a	n/a	SILK	Fabric	12	5	[0, 0, 0]	n/a	catFR1	1	R1498D
971.932	0.0	995994	ENCODING_END	n/a	n/a	n/a	n/a	-999	5	[0, 0, 0]	n/a	catFR1	1	R1498D
971.932	0.0	995994	START	n/a	n/a	n/a	n/a	-999	5	[-999, -999, -999]	n/a	catFR1	1	R1498D
971.932	7.883	996002	DISTRACT_START	n/a	n/a	n/a	n/a	-999	5	[0, 0, 0]	n/a	catFR1	1	R1498D
979.815	18.367	1003877	PROB	18.349	n/a	n/a	n/a	-999	5	[2, 6, 3]	11.0	catFR1	1	R1498D
998.182	0.0	1022243	STOP	n/a	n/a	n/a	n/a	-999	5	[-999, -999, -999]	n/a	catFR1	1	R1498D
998.182	2.366	1022246	DISTRACT_END	n/a	n/a	n/a	n/a	-999	5	[0, 0, 0]	n/a	catFR1	1	R1498D
1000.548	0.781	1024610	REC_START	n/a	n/a	n/a	n/a	-999	5	[0, 0, 0]	n/a	catFR1	1	R1498D
1001.329	16.381	1025390	REC_WORD	0.781	n/a	SPATULA	KitchenTools	9	5	[0, 0, 0]	n/a	catFR1	1	R1498D
1017.71	1.0	1041770	REC_WORD_VV	17.162	n/a	<>	n/a	-999	5	[0, 0, 0]	n/a	catFR1	1	R1498D
1018.71	12.077	1042770	REC_WORD_VV	18.162	n/a	<>	n/a	-999	5	[0, 0, 0]	n/a	catFR1	1	R1498D
1030.787	37.428	1054849	REC_END	n/a	n/a	n/a	n/a	-999	5	[0, 0, 0]	n/a	catFR1	1	R1498D
1068.215	10.35	1092279	COUNTDOWN_START	n/a	n/a	n/a	n/a	-999	6	[0, 0, 0]	n/a	catFR1	1	R1498D
1078.565	0.0	1102625	COUNTDOWN_END	n/a	n/a	n/a	n/a	-999	6	[0, 0, 0]	n/a	catFR1	1	R1498D
1078.565	2.3	1102625	ENCODING_START	n/a	n/a	n/a	n/a	-999	6	[0, 0, 0]	n/a	catFR1	1	R1498D
1080.865	1.617	1104927	WORD	n/a	wordpools/wordpool_categorized_EN.txt	PLANE	Vehicles	1	6	[0, 0, 0]	n/a	catFR1	1	R1498D
1082.482	0.966	1106539	WORD_OFF	n/a	n/a	PLANE	Vehicles	1	6	[0, 0, 0]	n/a	catFR1	1	R1498D
1083.448	1.6	1107505	WORD	n/a	wordpools/wordpool_categorized_EN.txt	MOTORCYCLE	Vehicles	2	6	[0, 0, 0]	n/a	catFR1	1	R1498D
1085.048	0.884	1109108	WORD_OFF	n/a	n/a	MOTORCYCLE	Vehicles	2	6	[0, 0, 0]	n/a	catFR1	1	R1498D
1085.932	1.6	1109994	WORD	n/a	wordpools/wordpool_categorized_EN.txt	THUNDER	Weather	3	6	[0, 0, 0]	n/a	catFR1	1	R1498D
1087.532	0.966	1111588	WORD_OFF	n/a	n/a	THUNDER	Weather	3	6	[0, 0, 0]	n/a	catFR1	1	R1498D
1088.498	1.6	1112553	WORD	n/a	wordpools/wordpool_categorized_EN.txt	WIND	Weather	4	6	[0, 0, 0]	n/a	catFR1	1	R1498D
1090.098	0.9	1114157	WORD_OFF	n/a	n/a	WIND	Weather	4	6	[0, 0, 0]	n/a	catFR1	1	R1498D
1090.998	1.6	1115051	WORD	n/a	wordpools/wordpool_categorized_EN.txt	CORN	Vegetables	5	6	[0, 0, 0]	n/a	catFR1	1	R1498D
1092.598	0.834	1116654	WORD_OFF	n/a	n/a	CORN	Vegetables	5	6	[0, 0, 0]	n/a	catFR1	1	R1498D
1093.432	1.6	1117487	WORD	n/a	wordpools/wordpool_categorized_EN.txt	POTATO	Vegetables	6	6	[0, 0, 0]	n/a	catFR1	1	R1498D
1095.032	0.849	1119090	WORD_OFF	n/a	n/a	POTATO	Vegetables	6	6	[0, 0, 0]	n/a	catFR1	1	R1498D
1095.881	1.601	1119940	WORD	n/a	wordpools/wordpool_categorized_EN.txt	LIGHTNING	Weather	7	6	[0, 0, 0]	n/a	catFR1	1	R1498D
1097.482	0.916	1121543	WORD_OFF	n/a	n/a	LIGHTNING	Weather	7	6	[0, 0, 0]	n/a	catFR1	1	R1498D
1098.398	1.6	1122456	WORD	n/a	wordpools/wordpool_categorized_EN.txt	SNOW	Weather	8	6	[0, 0, 0]	n/a	catFR1	1	R1498D
1099.998	0.817	1124059	WORD_OFF	n/a	n/a	SNOW	Weather	8	6	[0, 0, 0]	n/a	catFR1	1	R1498D
1100.815	1.6	1124874	WORD	n/a	wordpools/wordpool_categorized_EN.txt	CAR	Vehicles	9	6	[0, 0, 0]	n/a	catFR1	1	R1498D
1102.415	0.9	1126468	WORD_OFF	n/a	n/a	CAR	Vehicles	9	6	[0, 0, 0]	n/a	catFR1	1	R1498D
1103.315	1.617	1127371	WORD	n/a	wordpools/wordpool_categorized_EN.txt	TRAIN	Vehicles	10	6	[0, 0, 0]	n/a	catFR1	1	R1498D
1104.932	0.933	1128992	WORD_OFF	n/a	n/a	TRAIN	Vehicles	10	6	[0, 0, 0]	n/a	catFR1	1	R1498D
1105.865	1.615	1129922	WORD	n/a	wordpools/wordpool_categorized_EN.txt	SPINACH	Vegetables	11	6	[0, 0, 0]	n/a	catFR1	1	R1498D
1107.48	0.852	1131534	WORD_OFF	n/a	n/a	SPINACH	Vegetables	11	6	[0, 0, 0]	n/a	catFR1	1	R1498D
1108.332	1.6	1132385	WORD	n/a	wordpools/wordpool_categorized_EN.txt	CABBAGE	Vegetables	12	6	[0, 0, 0]	n/a	catFR1	1	R1498D
1109.932	0.0	1133987	PROB	14.065	n/a	n/a	n/a	-999	6	[8, 2, 3]	13.0	catFR1	1	R1498D
1109.932	0.001	1133988	WORD_OFF	n/a	n/a	CABBAGE	Vegetables	12	6	[0, 0, 0]	n/a	catFR1	1	R1498D
1109.933	0.0	1133988	ENCODING_END	n/a	n/a	n/a	n/a	-999	6	[0, 0, 0]	n/a	catFR1	1	R1498D
1109.933	0.0	1133988	START	n/a	n/a	n/a	n/a	-999	6	[-999, -999, -999]	n/a	catFR1	1	R1498D
1109.933	14.083	1133997	DISTRACT_START	n/a	n/a	n/a	n/a	-999	6	[0, 0, 0]	n/a	catFR1	1	R1498D
1124.016	7.465	1148070	PROB	7.448	n/a	n/a	n/a	-999	6	[4, 3, 5]	12.0	catFR1	1	R1498D
1131.481	0.0	1155535	STOP	n/a	n/a	n/a	n/a	-999	6	[-999, -999, -999]	n/a	catFR1	1	R1498D
1131.481	2.35	1155537	DISTRACT_END	n/a	n/a	n/a	n/a	-999	6	[0, 0, 0]	n/a	catFR1	1	R1498D
1133.831	17.579	1157883	REC_START	n/a	n/a	n/a	n/a	-999	6	[0, 0, 0]	n/a	catFR1	1	R1498D
1151.41	12.658	1175463	REC_WORD	17.579	n/a	SPATULA	KitchenTools	-999	6	[0, 0, 0]	n/a	catFR1	1	R1498D
1164.068	1.863	1188123	REC_END	n/a	n/a	n/a	n/a	-999	6	[0, 0, 0]	n/a	catFR1	1	R1498D
1165.931	10.35	1189983	COUNTDOWN_START	n/a	n/a	n/a	n/a	-999	7	[0, 0, 0]	n/a	catFR1	1	R1498D
1176.281	0.0	1200337	COUNTDOWN_END	n/a	n/a	n/a	n/a	-999	7	[0, 0, 0]	n/a	catFR1	1	R1498D
1176.281	2.234	1200337	ENCODING_START	n/a	n/a	n/a	n/a	-999	7	[0, 0, 0]	n/a	catFR1	1	R1498D
1178.515	1.617	1202569	WORD	n/a	wordpools/wordpool_categorized_EN.txt	RECLINER	Furniture	1	7	[0, 0, 0]	n/a	catFR1	1	R1498D
1180.132	0.916	1204181	WORD_OFF	n/a	n/a	RECLINER	Furniture	1	7	[0, 0, 0]	n/a	catFR1	1	R1498D
1181.048	1.6	1205102	WORD	n/a	wordpools/wordpool_categorized_EN.txt	CHAIR	Furniture	2	7	[0, 0, 0]	n/a	catFR1	1	R1498D
1182.648	0.817	1206705	WORD_OFF	n/a	n/a	CHAIR	Furniture	2	7	[0, 0, 0]	n/a	catFR1	1	R1498D
1183.465	1.617	1207520	WORD	n/a	wordpools/wordpool_categorized_EN.txt	CARDINAL	Birds	3	7	[0, 0, 0]	n/a	catFR1	1	R1498D
1185.082	0.868	1209132	WORD_OFF	n/a	n/a	CARDINAL	Birds	3	7	[0, 0, 0]	n/a	catFR1	1	R1498D
1185.95	1.598	1210000	WORD	n/a	wordpools/wordpool_categorized_EN.txt	SEAGULL	Birds	4	7	[0, 0, 0]	n/a	catFR1	1	R1498D
1187.548	0.933	1211603	WORD_OFF	n/a	n/a	SEAGULL	Birds	4	7	[0, 0, 0]	n/a	catFR1	1	R1498D
1188.481	1.617	1212533	WORD	n/a	wordpools/wordpool_categorized_EN.txt	FRISBEE	Toys	5	7	[0, 0, 0]	n/a	catFR1	1	R1498D
1190.098	0.95	1214154	WORD_OFF	n/a	n/a	FRISBEE	Toys	5	7	[0, 0, 0]	n/a	catFR1	1	R1498D
1191.048	1.6	1215101	WORD	n/a	wordpools/wordpool_categorized_EN.txt	MARBLES	Toys	6	7	[0, 0, 0]	n/a	catFR1	1	R1498D
1192.648	0.817	1216705	WORD_OFF	n/a	n/a	MARBLES	Toys	6	7	[0, 0, 0]	n/a	catFR1	1	R1498D
1193.465	1.616	1217519	WORD	n/a	wordpools/wordpool_categorized_EN.txt	HAWK	Birds	7	7	[0, 0, 0]	n/a	catFR1	1	R1498D
1195.081	0.869	1219131	WORD_OFF	n/a	n/a	HAWK	Birds	7	7	[0, 0, 0]	n/a	catFR1	1	R1498D
1195.95	1.598	1219999	WORD	n/a	wordpools/wordpool_categorized_EN.txt	BLUEBIRD	Birds	8	7	[0, 0, 0]	n/a	catFR1	1	R1498D
1197.548	1.0	1221603	WORD_OFF	n/a	n/a	BLUEBIRD	Birds	8	7	[0, 0, 0]	n/a	catFR1	1	R1498D
1198.548	1.601	1222603	WORD	n/a	wordpools/wordpool_categorized_EN.txt	BALL	Toys	9	7	[0, 0, 0]	n/a	catFR1	1	R1498D
1200.149	0.983	1224198	WORD_OFF	n/a	n/a	BALL	Toys	9	7	[0, 0, 0]	n/a	catFR1	1	R1498D
1201.132	1.6	1225181	WORD	n/a	wordpools/wordpool_categorized_EN.txt	SLINKY	Toys	10	7	[0, 0, 0]	n/a	catFR1	1	R1498D
1202.732	0.849	1226784	WORD_OFF	n/a	n/a	SLINKY	Toys	10	7	[0, 0, 0]	n/a	catFR1	1	R1498D
1203.581	1.601	1227634	WORD	n/a	wordpools/wordpool_categorized_EN.txt	TABLE	Furniture	11	7	[0, 0, 0]	n/a	catFR1	1	R1498D
1205.182	0.933	1229237	WORD_OFF	n/a	n/a	TABLE	Furniture	11	7	[0, 0, 0]	n/a	catFR1	1	R1498D
1206.115	1.616	1230167	WORD	n/a	wordpools/wordpool_categorized_EN.txt	BED	Furniture	12	7	[0, 0, 0]	n/a	catFR1	1	R1498D
1207.731	0.0	1231779	WORD_OFF	n/a	n/a	BED	Furniture	12	7	[0, 0, 0]	n/a	catFR1	1	R1498D
1207.731	0.001	1231781	PROB	6.317	n/a	n/a	n/a	-999	7	[8, 3, 1]	12.0	catFR1	1	R1498D
1207.732	0.0	1231782	START	n/a	n/a	n/a	n/a	-999	7	[-999, -999, -999]	n/a	catFR1	1	R1498D
1207.732	0.0	1231788	ENCODING_END	n/a	n/a	n/a	n/a	-999	7	[0, 0, 0]	n/a	catFR1	1	R1498D
1207.732	6.333	1231788	DISTRACT_START	n/a	n/a	n/a	n/a	-999	7	[0, 0, 0]	n/a	catFR1	1	R1498D
1214.065	9.717	1238114	PROB	9.699	n/a	n/a	n/a	-999	7	[3, 4, 4]	11.0	catFR1	1	R1498D
1223.782	15.083	1247831	PROB	15.067	n/a	n/a	n/a	-999	7	[6, 6, 5]	18.0	catFR1	1	R1498D
1238.865	0.0	1262912	DISTRACT_END	n/a	n/a	n/a	n/a	-999	7	[0, 0, 0]	n/a	catFR1	1	R1498D
1238.865	2.384	1262913	STOP	n/a	n/a	n/a	n/a	-999	7	[-999, -999, -999]	n/a	catFR1	1	R1498D
1241.249	12.61	1265294	REC_START	n/a	n/a	n/a	n/a	-999	7	[0, 0, 0]	n/a	catFR1	1	R1498D
1253.859	0.791	1277906	REC_WORD	12.61	n/a	RECLINER	Furniture	1	7	[0, 0, 0]	n/a	catFR1	1	R1498D
1254.65	12.133	1278697	REC_WORD	13.401	n/a	SOFTBALL	n/a	-999	7	[0, 0, 0]	n/a	catFR1	1	R1498D
1266.783	4.69	1290830	REC_WORD	25.534	n/a	SOFA	n/a	-999	7	[0, 0, 0]	n/a	catFR1	1	R1498D
1271.473	6.708	1295524	REC_END	n/a	n/a	n/a	n/a	-999	7	[0, 0, 0]	n/a	catFR1	1	R1498D
1278.181	10.351	1302229	COUNTDOWN_START	n/a	n/a	n/a	n/a	-999	8	[0, 0, 0]	n/a	catFR1	1	R1498D
1288.532	0.0	1312583	COUNTDOWN_END	n/a	n/a	n/a	n/a	-999	8	[0, 0, 0]	n/a	catFR1	1	R1498D
1288.532	2.047	1312583	ENCODING_START	n/a	n/a	n/a	n/a	-999	8	[0, 0, 0]	n/a	catFR1	1	R1498D
1290.579	1.603	1314629	WORD	n/a	wordpools/wordpool_categorized_EN.txt	BEACH	Landscapes	1	8	[0, 0, 0]	n/a	catFR1	1	R1498D
1292.182	0.766	1316232	WORD_OFF	n/a	n/a	BEACH	Landscapes	1	8	[0, 0, 0]	n/a	catFR1	1	R1498D
1292.948	1.6	1316994	WORD	n/a	wordpools/wordpool_categorized_EN.txt	HILLS	Landscapes	2	8	[0, 0, 0]	n/a	catFR1	1	R1498D
1294.548	0.834	1318597	WORD_OFF	n/a	n/a	HILLS	Landscapes	2	8	[0, 0, 0]	n/a	catFR1	1	R1498D
1295.382	1.615	1319430	WORD	n/a	wordpools/wordpool_categorized_EN.txt	DENIM	Fabric	3	8	[0, 0, 0]	n/a	catFR1	1	R1498D
1296.997	0.951	1321042	WORD_OFF	n/a	n/a	DENIM	Fabric	3	8	[0, 0, 0]	n/a	catFR1	1	R1498D
1297.948	1.617	1321998	WORD	n/a	wordpools/wordpool_categorized_EN.txt	LINEN	Fabric	4	8	[0, 0, 0]	n/a	catFR1	1	R1498D
1299.565	0.817	1323610	WORD_OFF	n/a	n/a	LINEN	Fabric	4	8	[0, 0, 0]	n/a	catFR1	1	R1498D
1300.382	1.616	1324425	WORD	n/a	wordpools/wordpool_categorized_EN.txt	PRINTER	Electronics	5	8	[0, 0, 0]	n/a	catFR1	1	R1498D
1301.998	0.917	1326046	WORD_OFF	n/a	n/a	PRINTER	Electronics	5	8	[0, 0, 0]	n/a	catFR1	1	R1498D
1302.915	1.6	1326958	WORD	n/a	wordpools/wordpool_categorized_EN.txt	TABLET	Electronics	6	8	[0, 0, 0]	n/a	catFR1	1	R1498D
1304.515	0.817	1328561	WORD_OFF	n/a	n/a	TABLET	Electronics	6	8	[0, 0, 0]	n/a	catFR1	1	R1498D
1305.332	1.6	1329376	WORD	n/a	wordpools/wordpool_categorized_EN.txt	WOODS	Landscapes	7	8	[0, 0, 0]	n/a	catFR1	1	R1498D
1306.932	0.983	1330979	WORD_OFF	n/a	n/a	WOODS	Landscapes	7	8	[0, 0, 0]	n/a	catFR1	1	R1498D
1307.915	1.617	1331962	WORD	n/a	wordpools/wordpool_categorized_EN.txt	MOUNTAIN	Landscapes	8	8	[0, 0, 0]	n/a	catFR1	1	R1498D
1309.532	0.883	1333574	WORD_OFF	n/a	n/a	MOUNTAIN	Landscapes	8	8	[0, 0, 0]	n/a	catFR1	1	R1498D
1310.415	1.614	1334460	WORD	n/a	wordpools/wordpool_categorized_EN.txt	LEATHER	Fabric	9	8	[0, 0, 0]	n/a	catFR1	1	R1498D
1312.029	0.852	1336072	WORD_OFF	n/a	n/a	LEATHER	Fabric	9	8	[0, 0, 0]	n/a	catFR1	1	R1498D
1312.881	1.601	1336922	WORD	n/a	wordpools/wordpool_categorized_EN.txt	SUEDE	Fabric	10	8	[0, 0, 0]	n/a	catFR1	1	R1498D
1314.482	0.766	1338526	WORD_OFF	n/a	n/a	SUEDE	Fabric	10	8	[0, 0, 0]	n/a	catFR1	1	R1498D
1315.248	1.6	1339296	WORD	n/a	wordpools/wordpool_categorized_EN.txt	CALCULATOR	Electronics	11	8	[0, 0, 0]	n/a	catFR1	1	R1498D
1316.848	0.967	1340890	WORD_OFF	n/a	n/a	CALCULATOR	Electronics	11	8	[0, 0, 0]	n/a	catFR1	1	R1498D
1317.815	1.617	1341865	WORD	n/a	wordpools/wordpool_categorized_EN.txt	HEADPHONES	Electronics	12	8	[0, 0, 0]	n/a	catFR1	1	R1498D
1319.432	0.0	1343476	PROB	5.35	n/a	n/a	n/a	-999	8	[4, 3, 7]	14.0	catFR1	1	R1498D
1319.432	0.001	1343477	WORD_OFF	n/a	n/a	HEADPHONES	Electronics	12	8	[0, 0, 0]	n/a	catFR1	1	R1498D
1319.433	0.0	1343477	ENCODING_END	n/a	n/a	n/a	n/a	-999	8	[0, 0, 0]	n/a	catFR1	1	R1498D
1319.433	0.0	1343477	DISTRACT_START	n/a	n/a	n/a	n/a	-999	8	[0, 0, 0]	n/a	catFR1	1	R1498D
1319.433	5.366	1343477	START	n/a	n/a	n/a	n/a	-999	8	[-999, -999, -999]	n/a	catFR1	1	R1498D
1324.799	3.633	1348842	PROB	3.616	n/a	n/a	n/a	-999	8	[4, 2, 6]	12.0	catFR1	1	R1498D
1328.432	3.684	1352475	PROB	3.665	n/a	n/a	n/a	-999	8	[2, 3, 7]	12.0	catFR1	1	R1498D
1332.116	15.55	1356159	PROB	15.533	n/a	n/a	n/a	-999	8	[8, 8, 6]	22.0	catFR1	1	R1498D
1347.666	0.0	1371708	STOP	n/a	n/a	n/a	n/a	-999	8	[-999, -999, -999]	n/a	catFR1	1	R1498D
1347.666	2.298	1371713	DISTRACT_END	n/a	n/a	n/a	n/a	-999	8	[0, 0, 0]	n/a	catFR1	1	R1498D
1349.964	12.907	1374006	REC_START	n/a	n/a	n/a	n/a	-999	8	[0, 0, 0]	n/a	catFR1	1	R1498D
1362.871	17.308	1386912	REC_WORD	12.907	n/a	SUEDE	Fabric	10	8	[0, 0, 0]	n/a	catFR1	1	R1498D
1380.179	7.785	1404219	REC_END	n/a	n/a	n/a	n/a	-999	8	[0, 0, 0]	n/a	catFR1	1	R1498D
1387.964	10.352	1412004	COUNTDOWN_START	n/a	n/a	n/a	n/a	-999	9	[0, 0, 0]	n/a	catFR1	1	R1498D
1398.316	0.0	1422358	COUNTDOWN_END	n/a	n/a	n/a	n/a	-999	9	[0, 0, 0]	n/a	catFR1	1	R1498D
1398.316	2.015	1422358	ENCODING_START	n/a	n/a	n/a	n/a	-999	9	[0, 0, 0]	n/a	catFR1	1	R1498D
1400.331	1.601	1424369	WORD	n/a	wordpools/wordpool_categorized_EN.txt	ERASER	OfficeSupplies	1	9	[0, 0, 0]	n/a	catFR1	1	R1498D
1401.932	0.965	1425972	WORD_OFF	n/a	n/a	ERASER	OfficeSupplies	1	9	[0, 0, 0]	n/a	catFR1	1	R1498D
1402.897	1.601	1426938	WORD	n/a	wordpools/wordpool_categorized_EN.txt	GLUE	OfficeSupplies	2	9	[0, 0, 0]	n/a	catFR1	1	R1498D
1404.498	0.983	1428541	WORD_OFF	n/a	n/a	GLUE	OfficeSupplies	2	9	[0, 0, 0]	n/a	catFR1	1	R1498D
1405.481	1.6	1429524	WORD	n/a	wordpools/wordpool_categorized_EN.txt	PLUM	Fruit	3	9	[0, 0, 0]	n/a	catFR1	1	R1498D
1407.081	0.967	1431118	WORD_OFF	n/a	n/a	PLUM	Fruit	3	9	[0, 0, 0]	n/a	catFR1	1	R1498D
1408.048	1.616	1432092	WORD	n/a	wordpools/wordpool_categorized_EN.txt	BLUEBERRY	Fruit	4	9	[0, 0, 0]	n/a	catFR1	1	R1498D
1409.664	0.8	1433704	WORD_OFF	n/a	n/a	BLUEBERRY	Fruit	4	9	[0, 0, 0]	n/a	catFR1	1	R1498D
1410.464	1.6	1434502	WORD	n/a	wordpools/wordpool_categorized_EN.txt	JELLO	Desserts	5	9	[0, 0, 0]	n/a	catFR1	1	R1498D
1412.064	0.885	1436105	WORD_OFF	n/a	n/a	JELLO	Desserts	5	9	[0, 0, 0]	n/a	catFR1	1	R1498D
1412.949	1.6	1436990	WORD	n/a	wordpools/wordpool_categorized_EN.txt	COBBLER	Desserts	6	9	[0, 0, 0]	n/a	catFR1	1	R1498D
1414.549	0.933	1438585	WORD_OFF	n/a	n/a	COBBLER	Desserts	6	9	[0, 0, 0]	n/a	catFR1	1	R1498D
1415.482	1.616	1439524	WORD	n/a	wordpools/wordpool_categorized_EN.txt	PENCIL	OfficeSupplies	7	9	[0, 0, 0]	n/a	catFR1	1	R1498D
1417.098	0.883	1441136	WORD_OFF	n/a	n/a	PENCIL	OfficeSupplies	7	9	[0, 0, 0]	n/a	catFR1	1	R1498D
1417.981	1.601	1442021	WORD	n/a	wordpools/wordpool_categorized_EN.txt	STAPLER	OfficeSupplies	8	9	[0, 0, 0]	n/a	catFR1	1	R1498D
1419.582	0.883	1443624	WORD_OFF	n/a	n/a	STAPLER	OfficeSupplies	8	9	[0, 0, 0]	n/a	catFR1	1	R1498D
1420.465	1.6	1444501	WORD	n/a	wordpools/wordpool_categorized_EN.txt	COOKIE	Desserts	9	9	[0, 0, 0]	n/a	catFR1	1	R1498D
1422.065	0.984	1446104	WORD_OFF	n/a	n/a	COOKIE	Desserts	9	9	[0, 0, 0]	n/a	catFR1	1	R1498D
1423.049	1.616	1447088	WORD	n/a	wordpools/wordpool_categorized_EN.txt	PIE	Desserts	10	9	[0, 0, 0]	n/a	catFR1	1	R1498D
1424.665	0.883	1448708	WORD_OFF	n/a	n/a	PIE	Desserts	10	9	[0, 0, 0]	n/a	catFR1	1	R1498D
1425.548	1.617	1449585	WORD	n/a	wordpools/wordpool_categorized_EN.txt	LEMON	Fruit	11	9	[0, 0, 0]	n/a	catFR1	1	R1498D
1427.165	0.783	1451206	WORD_OFF	n/a	n/a	LEMON	Fruit	11	9	[0, 0, 0]	n/a	catFR1	1	R1498D
1427.948	1.601	1451986	WORD	n/a	wordpools/wordpool_categorized_EN.txt	PEAR	Fruit	12	9	[0, 0, 0]	n/a	catFR1	1	R1498D
1429.549	0.001	1453587	PROB	33.616	n/a	n/a	n/a	-999	9	[8, 6, 3]	17.0	catFR1	1	R1498D
1429.55	0.0	1453588	START	n/a	n/a	n/a	n/a	-999	9	[-999, -999, -999]	n/a	catFR1	1	R1498D
1429.549	0.001	1453589	WORD_OFF	n/a	n/a	PEAR	Fruit	12	9	[0, 0, 0]	n/a	catFR1	1	R1498D
1429.55	0.0	1453589	ENCODING_END	n/a	n/a	n/a	n/a	-999	9	[0, 0, 0]	n/a	catFR1	1	R1498D
1429.55	33.632	1453589	DISTRACT_START	n/a	n/a	n/a	n/a	-999	9	[0, 0, 0]	n/a	catFR1	1	R1498D
1463.182	0.0	1487218	STOP	n/a	n/a	n/a	n/a	-999	9	[-999, -999, -999]	n/a	catFR1	1	R1498D
1463.182	2.266	1487219	DISTRACT_END	n/a	n/a	n/a	n/a	-999	9	[0, 0, 0]	n/a	catFR1	1	R1498D
1465.448	5.565	1489486	REC_START	n/a	n/a	n/a	n/a	-999	9	[0, 0, 0]	n/a	catFR1	1	R1498D
1471.013	24.673	1495049	REC_WORD	5.565	n/a	COBBLER	Desserts	6	9	[0, 0, 0]	n/a	catFR1	1	R1498D
1495.686	2.946	1519725	REC_END	n/a	n/a	n/a	n/a	-999	9	[0, 0, 0]	n/a	catFR1	1	R1498D
1498.632	10.35	1522674	COUNTDOWN_START	n/a	n/a	n/a	n/a	-999	10	[0, 0, 0]	n/a	catFR1	1	R1498D
1508.982	0.0	1533019	COUNTDOWN_END	n/a	n/a	n/a	n/a	-999	10	[0, 0, 0]	n/a	catFR1	1	R1498D
1508.982	2.167	1533019	ENCODING_START	n/a	n/a	n/a	n/a	-999	10	[0, 0, 0]	n/a	catFR1	1	R1498D
1511.149	1.615	1535181	WORD	n/a	wordpools/wordpool_categorized_EN.txt	APPLE	Fruit	1	10	[0, 0, 0]	n/a	catFR1	1	R1498D
1512.764	0.968	1536801	WORD_OFF	n/a	n/a	APPLE	Fruit	1	10	[0, 0, 0]	n/a	catFR1	1	R1498D
1513.732	1.616	1537767	WORD	n/a	wordpools/wordpool_categorized_EN.txt	STRAWBERRY	Fruit	2	10	[0, 0, 0]	n/a	catFR1	1	R1498D
1515.348	0.767	1539379	WORD_OFF	n/a	n/a	STRAWBERRY	Fruit	2	10	[0, 0, 0]	n/a	catFR1	1	R1498D
1516.115	1.6	1540149	WORD	n/a	wordpools/wordpool_categorized_EN.txt	TORNADO	Weather	3	10	[0, 0, 0]	n/a	catFR1	1	R1498D
1517.715	0.833	1541753	WORD_OFF	n/a	n/a	TORNADO	Weather	3	10	[0, 0, 0]	n/a	catFR1	1	R1498D
1518.548	1.6	1542585	WORD	n/a	wordpools/wordpool_categorized_EN.txt	HURRICANE	Weather	4	10	[0, 0, 0]	n/a	catFR1	1	R1498D
1520.148	0.9	1544179	WORD_OFF	n/a	n/a	HURRICANE	Weather	4	10	[0, 0, 0]	n/a	catFR1	1	R1498D
1521.048	1.617	1545083	WORD	n/a	wordpools/wordpool_categorized_EN.txt	FLOOR	Building	5	10	[0, 0, 0]	n/a	catFR1	1	R1498D
1522.665	0.983	1546704	WORD_OFF	n/a	n/a	FLOOR	Building	5	10	[0, 0, 0]	n/a	catFR1	1	R1498D
1523.648	1.6	1547687	WORD	n/a	wordpools/wordpool_categorized_EN.txt	FOUNDATION	Building	6	10	[0, 0, 0]	n/a	catFR1	1	R1498D
1525.248	0.934	1549281	WORD_OFF	n/a	n/a	FOUNDATION	Building	6	10	[0, 0, 0]	n/a	catFR1	1	R1498D
1526.182	1.614	1550220	WORD	n/a	wordpools/wordpool_categorized_EN.txt	HUMIDITY	Weather	7	10	[0, 0, 0]	n/a	catFR1	1	R1498D
1527.796	0.969	1551832	WORD_OFF	n/a	n/a	HUMIDITY	Weather	7	10	[0, 0, 0]	n/a	catFR1	1	R1498D
1528.765	1.6	1552797	WORD	n/a	wordpools/wordpool_categorized_EN.txt	FOG	Weather	8	10	[0, 0, 0]	n/a	catFR1	1	R1498D
1530.365	0.799	1554401	WORD_OFF	n/a	n/a	FOG	Weather	8	10	[0, 0, 0]	n/a	catFR1	1	R1498D
1531.164	1.618	1555198	WORD	n/a	wordpools/wordpool_categorized_EN.txt	ROOF	Building	9	10	[0, 0, 0]	n/a	catFR1	1	R1498D
1532.782	0.801	1556819	WORD_OFF	n/a	n/a	ROOF	Building	9	10	[0, 0, 0]	n/a	catFR1	1	R1498D
1533.583	1.614	1557616	WORD	n/a	wordpools/wordpool_categorized_EN.txt	ATTIC	Building	10	10	[0, 0, 0]	n/a	catFR1	1	R1498D
1535.197	0.768	1559228	WORD_OFF	n/a	n/a	ATTIC	Building	10	10	[0, 0, 0]	n/a	catFR1	1	R1498D
1535.965	1.6	1559998	WORD	n/a	wordpools/wordpool_categorized_EN.txt	PEACH	Fruit	11	10	[0, 0, 0]	n/a	catFR1	1	R1498D
1537.565	0.934	1561601	WORD_OFF	n/a	n/a	PEACH	Fruit	11	10	[0, 0, 0]	n/a	catFR1	1	R1498D
1538.499	1.617	1562531	WORD	n/a	wordpools/wordpool_categorized_EN.txt	BANANA	Fruit	12	10	[0, 0, 0]	n/a	catFR1	1	R1498D
1540.116	0.001	1564148	PROB	5.366	n/a	n/a	n/a	-999	10	[7, 3, 6]	16.0	catFR1	1	R1498D
1540.117	0.0	1564149	START	n/a	n/a	n/a	n/a	-999	10	[-999, -999, -999]	n/a	catFR1	1	R1498D
1540.115	0.001	1564152	WORD_OFF	n/a	n/a	BANANA	Fruit	12	10	[0, 0, 0]	n/a	catFR1	1	R1498D
1540.116	0.001	1564152	ENCODING_END	n/a	n/a	n/a	n/a	-999	10	[0, 0, 0]	n/a	catFR1	1	R1498D
1540.117	5.382	1564152	DISTRACT_START	n/a	n/a	n/a	n/a	-999	10	[0, 0, 0]	n/a	catFR1	1	R1498D
1545.499	14.583	1569531	PROB	14.566	n/a	n/a	n/a	-999	10	[6, 7, 8]	21.0	catFR1	1	R1498D
1560.082	8.333	1584113	PROB	8.316	n/a	n/a	n/a	-999	10	[6, 8, 2]	16.0	catFR1	1	R1498D
1568.415	0.0	1592445	STOP	n/a	n/a	n/a	n/a	-999	10	[-999, -999, -999]	n/a	catFR1	1	R1498D
1568.415	2.299	1592451	DISTRACT_END	n/a	n/a	n/a	n/a	-999	10	[0, 0, 0]	n/a	catFR1	1	R1498D
1570.714	29.999	1594744	REC_START	n/a	n/a	n/a	n/a	-999	10	[0, 0, 0]	n/a	catFR1	1	R1498D
1600.713	0.215	1624742	REC_WORD_VV	29.999	n/a	<>	n/a	-999	10	[0, 0, 0]	n/a	catFR1	1	R1498D
1600.928	12.67	1624957	REC_END	n/a	n/a	n/a	n/a	-999	10	[0, 0, 0]	n/a	catFR1	1	R1498D
1613.598	10.351	1637631	COUNTDOWN_START	n/a	n/a	n/a	n/a	-999	11	[0, 0, 0]	n/a	catFR1	1	R1498D
1623.949	0.0	1647976	COUNTDOWN_END	n/a	n/a	n/a	n/a	-999	11	[0, 0, 0]	n/a	catFR1	1	R1498D
1623.949	1.999	1647976	ENCODING_START	n/a	n/a	n/a	n/a	-999	11	[0, 0, 0]	n/a	catFR1	1	R1498D
1625.948	1.617	1649978	WORD	n/a	wordpools/wordpool_categorized_EN.txt	OCEAN	Landscapes	1	11	[0, 0, 0]	n/a	catFR1	1	R1498D
1627.565	0.9	1651590	WORD_OFF	n/a	n/a	OCEAN	Landscapes	1	11	[0, 0, 0]	n/a	catFR1	1	R1498D
1628.465	1.617	1652493	WORD	n/a	wordpools/wordpool_categorized_EN.txt	CREEK	Landscapes	2	11	[0, 0, 0]	n/a	catFR1	1	R1498D
1630.082	0.816	1654114	WORD_OFF	n/a	n/a	CREEK	Landscapes	2	11	[0, 0, 0]	n/a	catFR1	1	R1498D
1630.898	1.601	1654929	WORD	n/a	wordpools/wordpool_categorized_EN.txt	JEEP	Vehicles	3	11	[0, 0, 0]	n/a	catFR1	1	R1498D
1632.499	0.833	1656523	WORD_OFF	n/a	n/a	JEEP	Vehicles	3	11	[0, 0, 0]	n/a	catFR1	1	R1498D
1633.332	1.616	1657365	WORD	n/a	wordpools/wordpool_categorized_EN.txt	SCOOTER	Vehicles	4	11	[0, 0, 0]	n/a	catFR1	1	R1498D
1634.948	0.784	1658977	WORD_OFF	n/a	n/a	SCOOTER	Vehicles	4	11	[0, 0, 0]	n/a	catFR1	1	R1498D
1635.732	1.616	1659765	WORD	n/a	wordpools/wordpool_categorized_EN.txt	BATHROOM	Building	5	11	[0, 0, 0]	n/a	catFR1	1	R1498D
1637.348	0.934	1661377	WORD_OFF	n/a	n/a	BATHROOM	Building	5	11	[0, 0, 0]	n/a	catFR1	1	R1498D
1638.282	1.6	1662307	WORD	n/a	wordpools/wordpool_categorized_EN.txt	WINDOW	Building	6	11	[0, 0, 0]	n/a	catFR1	1	R1498D
1639.882	0.999	1663910	WORD_OFF	n/a	n/a	WINDOW	Building	6	11	[0, 0, 0]	n/a	catFR1	1	R1498D
1640.881	1.601	1664911	WORD	n/a	wordpools/wordpool_categorized_EN.txt	BUS	Vehicles	7	11	[0, 0, 0]	n/a	catFR1	1	R1498D
1642.482	0.933	1666514	WORD_OFF	n/a	n/a	BUS	Vehicles	7	11	[0, 0, 0]	n/a	catFR1	1	R1498D
1643.415	1.617	1667444	WORD	n/a	wordpools/wordpool_categorized_EN.txt	MOPED	Vehicles	8	11	[0, 0, 0]	n/a	catFR1	1	R1498D
1645.032	0.95	1669056	WORD_OFF	n/a	n/a	MOPED	Vehicles	8	11	[0, 0, 0]	n/a	catFR1	1	R1498D
1645.982	1.615	1670013	WORD	n/a	wordpools/wordpool_categorized_EN.txt	DOOR	Building	9	11	[0, 0, 0]	n/a	catFR1	1	R1498D
1647.597	0.768	1671625	WORD_OFF	n/a	n/a	DOOR	Building	9	11	[0, 0, 0]	n/a	catFR1	1	R1498D
1648.365	1.617	1672395	WORD	n/a	wordpools/wordpool_categorized_EN.txt	CEILING	Building	10	11	[0, 0, 0]	n/a	catFR1	1	R1498D
1649.982	0.767	1674007	WORD_OFF	n/a	n/a	CEILING	Building	10	11	[0, 0, 0]	n/a	catFR1	1	R1498D
1650.749	1.616	1674778	WORD	n/a	wordpools/wordpool_categorized_EN.txt	ISLAND	Landscapes	11	11	[0, 0, 0]	n/a	catFR1	1	R1498D
1652.365	0.867	1676399	WORD_OFF	n/a	n/a	ISLAND	Landscapes	11	11	[0, 0, 0]	n/a	catFR1	1	R1498D
1653.232	1.617	1677258	WORD	n/a	wordpools/wordpool_categorized_EN.txt	VALLEY	Landscapes	12	11	[0, 0, 0]	n/a	catFR1	1	R1498D
1654.849	0.001	1678875	PROB	6.033	n/a	n/a	n/a	-999	11	[5, 8, 2]	15.0	catFR1	1	R1498D
1654.85	0.0	1678876	START	n/a	n/a	n/a	n/a	-999	11	[-999, -999, -999]	n/a	catFR1	1	R1498D
1654.848	0.002	1678879	WORD_OFF	n/a	n/a	VALLEY	Landscapes	12	11	[0, 0, 0]	n/a	catFR1	1	R1498D
1654.85	0.0	1678879	ENCODING_END	n/a	n/a	n/a	n/a	-999	11	[0, 0, 0]	n/a	catFR1	1	R1498D
1654.85	6.048	1678879	DISTRACT_START	n/a	n/a	n/a	n/a	-999	11	[0, 0, 0]	n/a	catFR1	1	R1498D
1660.898	6.401	1684923	PROB	6.384	n/a	n/a	n/a	-999	11	[1, 5, 2]	8.0	catFR1	1	R1498D
1667.299	8.482	1691324	PROB	8.466	n/a	n/a	n/a	-999	11	[6, 7, 7]	20.0	catFR1	1	R1498D
1675.781	0.0	1699806	STOP	n/a	n/a	n/a	n/a	-999	11	[-999, -999, -999]	n/a	catFR1	1	R1498D
1675.781	2.267	1699808	DISTRACT_END	n/a	n/a	n/a	n/a	-999	11	[0, 0, 0]	n/a	catFR1	1	R1498D
1678.048	1.55	1702075	REC_START	n/a	n/a	n/a	n/a	-999	11	[0, 0, 0]	n/a	catFR1	1	R1498D
1679.598	0.803	1703623	REC_WORD	1.55	n/a	MOPED	Vehicles	8	11	[0, 0, 0]	n/a	catFR1	1	R1498D
1680.401	27.867	1704426	REC_WORD	2.353	n/a	SCOOTER	Vehicles	4	11	[0, 0, 0]	n/a	catFR1	1	R1498D
1708.268	41.229	1732296	REC_END	n/a	n/a	n/a	n/a	-999	11	[0, 0, 0]	n/a	catFR1	1	R1498D
1749.497	10.35	1773517	COUNTDOWN_START	n/a	n/a	n/a	n/a	-999	12	[0, 0, 0]	n/a	catFR1	1	R1498D
1759.847	0.0	1783871	COUNTDOWN_END	n/a	n/a	n/a	n/a	-999	12	[0, 0, 0]	n/a	catFR1	1	R1498D
1759.847	2.117	1783871	ENCODING_START	n/a	n/a	n/a	n/a	-999	12	[0, 0, 0]	n/a	catFR1	1	R1498D
1761.964	1.6	1785988	WORD	n/a	wordpools/wordpool_categorized_EN.txt	HALLWAY	Building	1	12	[0, 0, 0]	n/a	catFR1	1	R1498D
1763.564	0.849	1787582	WORD_OFF	n/a	n/a	HALLWAY	Building	1	12	[0, 0, 0]	n/a	catFR1	1	R1498D
1764.413	1.602	1788433	WORD	n/a	wordpools/wordpool_categorized_EN.txt	STAIRS	Building	2	12	[0, 0, 0]	n/a	catFR1	1	R1498D
1766.015	1.0	1790036	WORD_OFF	n/a	n/a	STAIRS	Building	2	12	[0, 0, 0]	n/a	catFR1	1	R1498D
1767.015	1.616	1791037	WORD	n/a	wordpools/wordpool_categorized_EN.txt	DRIZZLE	Weather	3	12	[0, 0, 0]	n/a	catFR1	1	R1498D
1768.631	0.883	1792658	WORD_OFF	n/a	n/a	DRIZZLE	Weather	3	12	[0, 0, 0]	n/a	catFR1	1	R1498D
1769.514	1.601	1793534	WORD	n/a	wordpools/wordpool_categorized_EN.txt	RAIN	Weather	4	12	[0, 0, 0]	n/a	catFR1	1	R1498D
1771.115	0.883	1795138	WORD_OFF	n/a	n/a	RAIN	Weather	4	12	[0, 0, 0]	n/a	catFR1	1	R1498D
1771.998	1.6	1796023	WORD	n/a	wordpools/wordpool_categorized_EN.txt	DRYER	Appliances	5	12	[0, 0, 0]	n/a	catFR1	1	R1498D
1773.598	0.933	1797618	WORD_OFF	n/a	n/a	DRYER	Appliances	5	12	[0, 0, 0]	n/a	catFR1	1	R1498D
1774.531	1.618	1798556	WORD	n/a	wordpools/wordpool_categorized_EN.txt	IRON	Appliances	6	12	[0, 0, 0]	n/a	catFR1	1	R1498D
1776.149	0.983	1800168	WORD_OFF	n/a	n/a	IRON	Appliances	6	12	[0, 0, 0]	n/a	catFR1	1	R1498D
1777.132	1.6	1801152	WORD	n/a	wordpools/wordpool_categorized_EN.txt	ROOM	Building	7	12	[0, 0, 0]	n/a	catFR1	1	R1498D
1778.732	0.932	1802755	WORD_OFF	n/a	n/a	ROOM	Building	7	12	[0, 0, 0]	n/a	catFR1	1	R1498D
1779.664	1.618	1803685	WORD	n/a	wordpools/wordpool_categorized_EN.txt	WALL	Building	8	12	[0, 0, 0]	n/a	catFR1	1	R1498D
1781.282	0.816	1805306	WORD_OFF	n/a	n/a	WALL	Building	8	12	[0, 0, 0]	n/a	catFR1	1	R1498D
1782.098	1.599	1806120	WORD	n/a	wordpools/wordpool_categorized_EN.txt	MIXER	Appliances	9	12	[0, 0, 0]	n/a	catFR1	1	R1498D
1783.697	0.816	1807715	WORD_OFF	n/a	n/a	MIXER	Appliances	9	12	[0, 0, 0]	n/a	catFR1	1	R1498D
1784.513	1.601	1808530	WORD	n/a	wordpools/wordpool_categorized_EN.txt	WASHER	Appliances	10	12	[0, 0, 0]	n/a	catFR1	1	R1498D
1786.114	0.919	1810133	WORD_OFF	n/a	n/a	WASHER	Appliances	10	12	[0, 0, 0]	n/a	catFR1	1	R1498D
1787.033	1.615	1811054	WORD	n/a	wordpools/wordpool_categorized_EN.txt	THUNDERSTORM	Weather	11	12	[0, 0, 0]	n/a	catFR1	1	R1498D
1788.648	0.867	1812666	WORD_OFF	n/a	n/a	THUNDERSTORM	Weather	11	12	[0, 0, 0]	n/a	catFR1	1	R1498D
1789.515	1.617	1813534	WORD	n/a	wordpools/wordpool_categorized_EN.txt	CLOUD	Weather	12	12	[0, 0, 0]	n/a	catFR1	1	R1498D
1791.132	0.001	1815151	PROB	4.482	n/a	n/a	n/a	-999	12	[7, 3, 7]	17.0	catFR1	1	R1498D
1791.133	0.0	1815152	START	n/a	n/a	n/a	n/a	-999	12	[-999, -999, -999]	n/a	catFR1	1	R1498D
1791.132	0.001	1815155	WORD_OFF	n/a	n/a	CLOUD	Weather	12	12	[0, 0, 0]	n/a	catFR1	1	R1498D
1791.133	0.0	1815155	ENCODING_END	n/a	n/a	n/a	n/a	-999	12	[0, 0, 0]	n/a	catFR1	1	R1498D
1791.133	4.499	1815155	DISTRACT_START	n/a	n/a	n/a	n/a	-999	12	[0, 0, 0]	n/a	catFR1	1	R1498D
1795.632	6.117	1819650	PROB	6.099	n/a	n/a	n/a	-999	12	[4, 8, 1]	13.0	catFR1	1	R1498D
1801.749	7.583	1825767	PROB	7.566	n/a	n/a	n/a	-999	12	[8, 2, 5]	15.0	catFR1	1	R1498D
1809.332	5.367	1833350	PROB	5.35	n/a	n/a	n/a	-999	12	[7, 8, 2]	17.0	catFR1	1	R1498D
1814.699	0.0	1838715	DISTRACT_END	n/a	n/a	n/a	n/a	-999	12	[0, 0, 0]	n/a	catFR1	1	R1498D
1814.699	2.066	1838716	STOP	n/a	n/a	n/a	n/a	-999	12	[-999, -999, -999]	n/a	catFR1	1	R1498D
1816.765	1.38	1840786	REC_START	n/a	n/a	n/a	n/a	-999	12	[0, 0, 0]	n/a	catFR1	1	R1498D
1818.145	1.057	1842162	REC_WORD	1.38	n/a	DRIZZLE	Weather	3	12	[0, 0, 0]	n/a	catFR1	1	R1498D
1819.202	0.93	1843219	REC_WORD	2.437	n/a	RAIN	Weather	4	12	[0, 0, 0]	n/a	catFR1	1	R1498D
1820.132	4.404	1844149	REC_WORD	3.367	n/a	THUNDERSTORM	Weather	11	12	[0, 0, 0]	n/a	catFR1	1	R1498D
1824.536	2.822	1848553	REC_WORD	7.771	n/a	CLOUD	Weather	12	12	[0, 0, 0]	n/a	catFR1	1	R1498D
1827.358	19.642	1851375	REC_WORD	10.593	n/a	ROOM	Building	7	12	[0, 0, 0]	n/a	catFR1	1	R1498D
1847.0	0.0	1871017	REC_END	n/a	n/a	n/a	n/a	-999	12	[0, 0, 0]	n/a	catFR1	1	R1498D
