onset	duration	sample	trial_type	response_time	stim_file	item_name	category	serialpos	list	test	answer	experiment	session	subject
0.0	164.781	138197	INSTRUCT_START	n/a	n/a	n/a	n/a	-999	-999	[0, 0, 0]	n/a	catFR1	0	R1475J
164.781	73.752	302973	INSTRUCT_END	n/a	n/a	n/a	n/a	-999	-999	[0, 0, 0]	n/a	catFR1	0	R1475J
238.533	10.35	376722	COUNTDOWN_START	n/a	n/a	n/a	n/a	-999	-999	[0, 0, 0]	n/a	catFR1	0	R1475J
248.883	0.001	387076	COUNTDOWN_END	n/a	n/a	n/a	n/a	-999	-999	[0, 0, 0]	n/a	catFR1	0	R1475J
248.884	2.015	387076	ENCODING_START	n/a	n/a	n/a	n/a	-999	-1	[0, 0, 0]	n/a	catFR1	0	R1475J
250.899	1.601	389091	WORD	n/a	n/a	CHEESECAKE	Desserts	1	-1	[0, 0, 0]	n/a	catFR1	0	R1475J
252.5	0.883	390692	WORD_OFF	n/a	n/a	CHEESECAKE	Desserts	1	-1	[0, 0, 0]	n/a	catFR1	0	R1475J
253.383	1.6	391571	WORD	n/a	n/a	CAKE	Desserts	2	-1	[0, 0, 0]	n/a	catFR1	0	R1475J
254.983	0.834	393172	WORD_OFF	n/a	n/a	CAKE	Desserts	2	-1	[0, 0, 0]	n/a	catFR1	0	R1475J
255.817	1.599	394009	WORD	n/a	n/a	ONION	Vegetables	3	-1	[0, 0, 0]	n/a	catFR1	0	R1475J
257.416	0.983	395601	WORD_OFF	n/a	n/a	ONION	Vegetables	3	-1	[0, 0, 0]	n/a	catFR1	0	R1475J
258.399	1.601	396582	WORD	n/a	n/a	CAULIFLOWER	Vegetables	4	-1	[0, 0, 0]	n/a	catFR1	0	R1475J
260.0	0.849	398184	WORD_OFF	n/a	n/a	CAULIFLOWER	Vegetables	4	-1	[0, 0, 0]	n/a	catFR1	0	R1475J
260.849	1.601	399042	WORD	n/a	n/a	WILLOW	Trees	5	-1	[0, 0, 0]	n/a	catFR1	0	R1475J
262.45	0.95	400633	WORD_OFF	n/a	n/a	WILLOW	Trees	5	-1	[0, 0, 0]	n/a	catFR1	0	R1475J
263.4	1.6	401584	WORD	n/a	n/a	OAK	Trees	6	-1	[0, 0, 0]	n/a	catFR1	0	R1475J
265.0	0.849	403185	WORD_OFF	n/a	n/a	OAK	Trees	6	-1	[0, 0, 0]	n/a	catFR1	0	R1475J
265.849	1.617	404033	WORD	n/a	n/a	MOUSSE	Desserts	7	-1	[0, 0, 0]	n/a	catFR1	0	R1475J
267.466	0.816	405655	WORD_OFF	n/a	n/a	MOUSSE	Desserts	7	-1	[0, 0, 0]	n/a	catFR1	0	R1475J
268.282	1.6	406471	WORD	n/a	n/a	JELLO	Desserts	8	-1	[0, 0, 0]	n/a	catFR1	0	R1475J
269.882	0.851	408073	WORD_OFF	n/a	n/a	JELLO	Desserts	8	-1	[0, 0, 0]	n/a	catFR1	0	R1475J
270.733	1.616	408920	WORD	n/a	n/a	CORN	Vegetables	9	-1	[0, 0, 0]	n/a	catFR1	0	R1475J
272.349	0.899	410532	WORD_OFF	n/a	n/a	CORN	Vegetables	9	-1	[0, 0, 0]	n/a	catFR1	0	R1475J
273.248	1.601	411431	WORD	n/a	n/a	CUCUMBER	Vegetables	10	-1	[0, 0, 0]	n/a	catFR1	0	R1475J
274.849	0.984	413033	WORD_OFF	n/a	n/a	CUCUMBER	Vegetables	10	-1	[0, 0, 0]	n/a	catFR1	0	R1475J
275.833	1.615	414025	WORD	n/a	n/a	CYPRESS	Trees	11	-1	[0, 0, 0]	n/a	catFR1	0	R1475J
277.448	0.934	415637	WORD_OFF	n/a	n/a	CYPRESS	Trees	11	-1	[0, 0, 0]	n/a	catFR1	0	R1475J
278.382	1.617	416567	WORD	n/a	n/a	ELM	Trees	12	-1	[0, 0, 0]	n/a	catFR1	0	R1475J
279.999	0.002	418189	WORD_OFF	n/a	n/a	ELM	Trees	12	-1	[0, 0, 0]	n/a	catFR1	0	R1475J
280.001	0.001	418189	ENCODING_END	n/a	n/a	n/a	n/a	-999	-1	[0, 0, 0]	n/a	catFR1	0	R1475J
280.002	0.0	418189	DISTRACT_START	n/a	n/a	n/a	n/a	-999	-1	[0, 0, 0]	n/a	catFR1	0	R1475J
280.0	0.002	418193	PROB	0.002	n/a	n/a	n/a	-999	-1	[3, 8, 7]	18	catFR1	0	R1475J
280.002	24.914	418195	START	n/a	n/a	n/a	n/a	-999	-1	[-999, -999, -999]	n/a	catFR1	0	R1475J
304.916	0.0	443103	DISTRACT_END	n/a	n/a	n/a	n/a	-999	-1	[0, 0, 0]	n/a	catFR1	0	R1475J
304.916	2.267	443108	STOP	n/a	n/a	n/a	n/a	-999	-1	[-999, -999, -999]	n/a	catFR1	0	R1475J
307.183	3.381	445374	REC_START	n/a	n/a	n/a	n/a	-999	-1	[0, 0, 0]	n/a	catFR1	0	R1475J
310.564	0.629	448756	REC_WORD	0.629	n/a	ONION	Vegetables	3	-1	[0, 0, 0]	n/a	catFR1	0	R1475J
311.193	10.635	449384	REC_WORD	10.635	n/a	CAULIFLOWER	Vegetables	4	-1	[0, 0, 0]	n/a	catFR1	0	R1475J
321.828	1.065	460019	REC_WORD	1.065	n/a	CHEESECAKE	Desserts	1	-1	[0, 0, 0]	n/a	catFR1	0	R1475J
322.893	14.49	461084	REC_WORD	14.49	n/a	CAKE	Desserts	2	-1	[0, 0, 0]	n/a	catFR1	0	R1475J
337.383	43.449	475570	REC_END	n/a	n/a	n/a	n/a	-999	-1	[0, 0, 0]	n/a	catFR1	0	R1475J
380.832	10.349	519022	COUNTDOWN_START	n/a	n/a	n/a	n/a	-999	1	[0, 0, 0]	n/a	catFR1	0	R1475J
391.181	0.0	529366	COUNTDOWN_END	n/a	n/a	n/a	n/a	-999	1	[0, 0, 0]	n/a	catFR1	0	R1475J
391.181	2.118	529366	ENCODING_START	n/a	n/a	n/a	n/a	-999	1	[0, 0, 0]	n/a	catFR1	0	R1475J
393.299	1.616	531484	WORD	n/a	wordpools/wordpool_categorized_EN.txt	FRISBEE	Toys	1	1	[0, 0, 0]	n/a	catFR1	0	R1475J
394.915	0.917	533096	WORD_OFF	n/a	n/a	FRISBEE	Toys	1	1	[0, 0, 0]	n/a	catFR1	0	R1475J
395.832	1.601	534016	WORD	n/a	wordpools/wordpool_categorized_EN.txt	BARBIE	Toys	2	1	[0, 0, 0]	n/a	catFR1	0	R1475J
397.433	0.849	535617	WORD_OFF	n/a	n/a	BARBIE	Toys	2	1	[0, 0, 0]	n/a	catFR1	0	R1475J
398.282	1.617	536465	WORD	n/a	wordpools/wordpool_categorized_EN.txt	HICKORY	Trees	3	1	[0, 0, 0]	n/a	catFR1	0	R1475J
399.899	0.966	538087	WORD_OFF	n/a	n/a	HICKORY	Trees	3	1	[0, 0, 0]	n/a	catFR1	0	R1475J
400.865	1.6	539048	WORD	n/a	wordpools/wordpool_categorized_EN.txt	MAPLE	Trees	4	1	[0, 0, 0]	n/a	catFR1	0	R1475J
402.465	0.818	540650	WORD_OFF	n/a	n/a	MAPLE	Trees	4	1	[0, 0, 0]	n/a	catFR1	0	R1475J
403.283	1.614	541466	WORD	n/a	wordpools/wordpool_categorized_EN.txt	LADLE	KitchenTools	5	1	[0, 0, 0]	n/a	catFR1	0	R1475J
404.897	0.834	543078	WORD_OFF	n/a	n/a	LADLE	KitchenTools	5	1	[0, 0, 0]	n/a	catFR1	0	R1475J
405.731	1.616	543915	WORD	n/a	wordpools/wordpool_categorized_EN.txt	SPATULA	KitchenTools	6	1	[0, 0, 0]	n/a	catFR1	0	R1475J
407.347	0.917	545527	WORD_OFF	n/a	n/a	SPATULA	KitchenTools	6	1	[0, 0, 0]	n/a	catFR1	0	R1475J
408.264	1.6	546446	WORD	n/a	wordpools/wordpool_categorized_EN.txt	CEDAR	Trees	7	1	[0, 0, 0]	n/a	catFR1	0	R1475J
409.864	0.967	548048	WORD_OFF	n/a	n/a	CEDAR	Trees	7	1	[0, 0, 0]	n/a	catFR1	0	R1475J
410.831	1.601	549009	WORD	n/a	wordpools/wordpool_categorized_EN.txt	BIRCH	Trees	8	1	[0, 0, 0]	n/a	catFR1	0	R1475J
412.432	0.899	550611	WORD_OFF	n/a	n/a	BIRCH	Trees	8	1	[0, 0, 0]	n/a	catFR1	0	R1475J
413.331	1.6	551510	WORD	n/a	wordpools/wordpool_categorized_EN.txt	WHISK	KitchenTools	9	1	[0, 0, 0]	n/a	catFR1	0	R1475J
414.931	0.901	553111	WORD_OFF	n/a	n/a	WHISK	KitchenTools	9	1	[0, 0, 0]	n/a	catFR1	0	R1475J
415.832	1.601	554010	WORD	n/a	wordpools/wordpool_categorized_EN.txt	PEELER	KitchenTools	10	1	[0, 0, 0]	n/a	catFR1	0	R1475J
417.433	0.932	555612	WORD_OFF	n/a	n/a	PEELER	KitchenTools	10	1	[0, 0, 0]	n/a	catFR1	0	R1475J
418.365	1.617	556542	WORD	n/a	wordpools/wordpool_categorized_EN.txt	BALL	Toys	11	1	[0, 0, 0]	n/a	catFR1	0	R1475J
419.982	0.783	558164	WORD_OFF	n/a	n/a	BALL	Toys	11	1	[0, 0, 0]	n/a	catFR1	0	R1475J
420.765	1.617	558950	WORD	n/a	wordpools/wordpool_categorized_EN.txt	SLINKY	Toys	12	1	[0, 0, 0]	n/a	catFR1	0	R1475J
422.382	0.001	560562	WORD_OFF	n/a	n/a	SLINKY	Toys	12	1	[0, 0, 0]	n/a	catFR1	0	R1475J
422.383	0.0	560562	ENCODING_END	n/a	n/a	n/a	n/a	-999	1	[0, 0, 0]	n/a	catFR1	0	R1475J
422.383	0.0	560570	START	n/a	n/a	n/a	n/a	-999	1	[-999, -999, -999]	n/a	catFR1	0	R1475J
422.383	0.0	560570	PROB	0.0	n/a	n/a	n/a	-999	1	[6, 6, 6]	18	catFR1	0	R1475J
422.383	8.032	560572	DISTRACT_START	n/a	n/a	n/a	n/a	-999	1	[0, 0, 0]	n/a	catFR1	0	R1475J
430.415	7.434	568601	PROB	7.434	n/a	n/a	n/a	-999	1	[5, 6, 3]	14	catFR1	0	R1475J
437.849	7.533	576035	PROB	7.533	n/a	n/a	n/a	-999	1	[4, 6, 5]	15	catFR1	0	R1475J
445.382	0.0	583564	DISTRACT_END	n/a	n/a	n/a	n/a	-999	1	[0, 0, 0]	n/a	catFR1	0	R1475J
445.382	2.367	583568	STOP	n/a	n/a	n/a	n/a	-999	1	[-999, -999, -999]	n/a	catFR1	0	R1475J
447.749	1.321	585928	REC_START	n/a	n/a	n/a	n/a	-999	1	[0, 0, 0]	n/a	catFR1	0	R1475J
449.07	2.463	587256	REC_WORD	2.463	n/a	FRISBEE	Toys	1	1	[0, 0, 0]	n/a	catFR1	0	R1475J
451.533	2.549	589719	REC_WORD	2.549	n/a	SPATULA	KitchenTools	6	1	[0, 0, 0]	n/a	catFR1	0	R1475J
454.082	20.373	592268	REC_WORD	20.373	n/a	HICKORY	Trees	3	1	[0, 0, 0]	n/a	catFR1	0	R1475J
474.455	3.499	612640	REC_WORD	3.499	n/a	PLUSSIGN	n/a	-999	1	[0, 0, 0]	n/a	catFR1	0	R1475J
477.954	28.495	616134	REC_END	n/a	n/a	n/a	n/a	-999	1	[0, 0, 0]	n/a	catFR1	0	R1475J
506.449	10.35	644623	COUNTDOWN_START	n/a	n/a	n/a	n/a	-999	2	[0, 0, 0]	n/a	catFR1	0	R1475J
516.799	0.0	654977	COUNTDOWN_END	n/a	n/a	n/a	n/a	-999	2	[0, 0, 0]	n/a	catFR1	0	R1475J
516.799	2.116	654977	ENCODING_START	n/a	n/a	n/a	n/a	-999	2	[0, 0, 0]	n/a	catFR1	0	R1475J
518.915	1.6	657096	WORD	n/a	wordpools/wordpool_categorized_EN.txt	GUITAR	Instruments	1	2	[0, 0, 0]	n/a	catFR1	0	R1475J
520.515	0.885	658697	WORD_OFF	n/a	n/a	GUITAR	Instruments	1	2	[0, 0, 0]	n/a	catFR1	0	R1475J
521.4	1.615	659576	WORD	n/a	wordpools/wordpool_categorized_EN.txt	PIANO	Instruments	2	2	[0, 0, 0]	n/a	catFR1	0	R1475J
523.015	0.95	661188	WORD_OFF	n/a	n/a	PIANO	Instruments	2	2	[0, 0, 0]	n/a	catFR1	0	R1475J
523.965	1.6	662138	WORD	n/a	wordpools/wordpool_categorized_EN.txt	TULIP	Flowers	3	2	[0, 0, 0]	n/a	catFR1	0	R1475J
525.565	0.767	663740	WORD_OFF	n/a	n/a	TULIP	Flowers	3	2	[0, 0, 0]	n/a	catFR1	0	R1475J
526.332	1.6	664505	WORD	n/a	wordpools/wordpool_categorized_EN.txt	SUNFLOWER	Flowers	4	2	[0, 0, 0]	n/a	catFR1	0	R1475J
527.932	0.849	666106	WORD_OFF	n/a	n/a	SUNFLOWER	Flowers	4	2	[0, 0, 0]	n/a	catFR1	0	R1475J
528.781	1.617	666954	WORD	n/a	wordpools/wordpool_categorized_EN.txt	FOLDER	OfficeSupplies	5	2	[0, 0, 0]	n/a	catFR1	0	R1475J
530.398	0.85	668576	WORD_OFF	n/a	n/a	FOLDER	OfficeSupplies	5	2	[0, 0, 0]	n/a	catFR1	0	R1475J
531.248	1.601	669423	WORD	n/a	wordpools/wordpool_categorized_EN.txt	ERASER	OfficeSupplies	6	2	[0, 0, 0]	n/a	catFR1	0	R1475J
532.849	0.916	671025	WORD_OFF	n/a	n/a	ERASER	OfficeSupplies	6	2	[0, 0, 0]	n/a	catFR1	0	R1475J
533.765	1.6	671945	WORD	n/a	wordpools/wordpool_categorized_EN.txt	BASS	Instruments	7	2	[0, 0, 0]	n/a	catFR1	0	R1475J
535.365	0.833	673546	WORD_OFF	n/a	n/a	BASS	Instruments	7	2	[0, 0, 0]	n/a	catFR1	0	R1475J
536.198	1.601	674373	WORD	n/a	wordpools/wordpool_categorized_EN.txt	TRUMPET	Instruments	8	2	[0, 0, 0]	n/a	catFR1	0	R1475J
537.799	0.915	675975	WORD_OFF	n/a	n/a	TRUMPET	Instruments	8	2	[0, 0, 0]	n/a	catFR1	0	R1475J
538.714	1.601	676894	WORD	n/a	wordpools/wordpool_categorized_EN.txt	MARIGOLD	Flowers	9	2	[0, 0, 0]	n/a	catFR1	0	R1475J
540.315	0.917	678486	WORD_OFF	n/a	n/a	MARIGOLD	Flowers	9	2	[0, 0, 0]	n/a	catFR1	0	R1475J
541.232	1.6	679405	WORD	n/a	wordpools/wordpool_categorized_EN.txt	PETUNIA	Flowers	10	2	[0, 0, 0]	n/a	catFR1	0	R1475J
542.832	0.783	681007	WORD_OFF	n/a	n/a	PETUNIA	Flowers	10	2	[0, 0, 0]	n/a	catFR1	0	R1475J
543.615	1.6	681792	WORD	n/a	wordpools/wordpool_categorized_EN.txt	PAPER	OfficeSupplies	11	2	[0, 0, 0]	n/a	catFR1	0	R1475J
545.215	0.934	683394	WORD_OFF	n/a	n/a	PAPER	OfficeSupplies	11	2	[0, 0, 0]	n/a	catFR1	0	R1475J
546.149	1.616	684324	WORD	n/a	wordpools/wordpool_categorized_EN.txt	NOTEBOOK	OfficeSupplies	12	2	[0, 0, 0]	n/a	catFR1	0	R1475J
547.765	0.0	685936	WORD_OFF	n/a	n/a	NOTEBOOK	OfficeSupplies	12	2	[0, 0, 0]	n/a	catFR1	0	R1475J
547.765	0.001	685946	ENCODING_END	n/a	n/a	n/a	n/a	-999	2	[0, 0, 0]	n/a	catFR1	0	R1475J
547.766	0.0	685946	DISTRACT_START	n/a	n/a	n/a	n/a	-999	2	[0, 0, 0]	n/a	catFR1	0	R1475J
547.766	0.0	685948	START	n/a	n/a	n/a	n/a	-999	2	[-999, -999, -999]	n/a	catFR1	0	R1475J
547.766	9.016	685948	PROB	9.016	n/a	n/a	n/a	-999	2	[4, 4, 8]	16	catFR1	0	R1475J
556.782	9.017	694963	PROB	9.017	n/a	n/a	n/a	-999	2	[1, 3, 8]	12	catFR1	0	R1475J
565.799	10.499	703980	PROB	10.499	n/a	n/a	n/a	-999	2	[8, 4, 3]	15	catFR1	0	R1475J
576.298	0.0	714477	DISTRACT_END	n/a	n/a	n/a	n/a	-999	2	[0, 0, 0]	n/a	catFR1	0	R1475J
576.298	2.267	714478	STOP	n/a	n/a	n/a	n/a	-999	2	[-999, -999, -999]	n/a	catFR1	0	R1475J
578.565	0.908	716737	REC_START	n/a	n/a	n/a	n/a	-999	2	[0, 0, 0]	n/a	catFR1	0	R1475J
579.473	0.517	717653	REC_WORD	0.517	n/a	GUITAR	Instruments	1	2	[0, 0, 0]	n/a	catFR1	0	R1475J
579.99	2.466	718170	REC_WORD	2.466	n/a	PIANO	Instruments	2	2	[0, 0, 0]	n/a	catFR1	0	R1475J
582.456	3.131	720636	REC_WORD	3.131	n/a	FOLDER	OfficeSupplies	5	2	[0, 0, 0]	n/a	catFR1	0	R1475J
585.587	7.482	723767	REC_WORD	7.482	n/a	NOTEBOOK	OfficeSupplies	12	2	[0, 0, 0]	n/a	catFR1	0	R1475J
593.069	1.38	731249	REC_WORD	1.38	n/a	SUNFLOWER	Flowers	4	2	[0, 0, 0]	n/a	catFR1	0	R1475J
594.449	1.078	732629	REC_WORD	1.078	n/a	TULIP	Flowers	3	2	[0, 0, 0]	n/a	catFR1	0	R1475J
595.527	13.237	733707	REC_WORD	13.237	n/a	PETUNIA	Flowers	10	2	[0, 0, 0]	n/a	catFR1	0	R1475J
608.764	8.768	746934	REC_END	n/a	n/a	n/a	n/a	-999	2	[0, 0, 0]	n/a	catFR1	0	R1475J
617.532	10.352	755707	COUNTDOWN_START	n/a	n/a	n/a	n/a	-999	3	[0, 0, 0]	n/a	catFR1	0	R1475J
627.884	0.0	766061	COUNTDOWN_END	n/a	n/a	n/a	n/a	-999	3	[0, 0, 0]	n/a	catFR1	0	R1475J
627.884	2.349	766061	ENCODING_START	n/a	n/a	n/a	n/a	-999	3	[0, 0, 0]	n/a	catFR1	0	R1475J
630.233	1.601	768406	WORD	n/a	wordpools/wordpool_categorized_EN.txt	FREEZER	Appliances	1	3	[0, 0, 0]	n/a	catFR1	0	R1475J
631.834	0.849	770008	WORD_OFF	n/a	n/a	FREEZER	Appliances	1	3	[0, 0, 0]	n/a	catFR1	0	R1475J
632.683	1.6	770855	WORD	n/a	wordpools/wordpool_categorized_EN.txt	MIXER	Appliances	2	3	[0, 0, 0]	n/a	catFR1	0	R1475J
634.283	0.817	772457	WORD_OFF	n/a	n/a	MIXER	Appliances	2	3	[0, 0, 0]	n/a	catFR1	0	R1475J
635.1	1.617	773273	WORD	n/a	wordpools/wordpool_categorized_EN.txt	MOUNTAIN	Landscapes	3	3	[0, 0, 0]	n/a	catFR1	0	R1475J
636.717	0.783	774885	WORD_OFF	n/a	n/a	MOUNTAIN	Landscapes	3	3	[0, 0, 0]	n/a	catFR1	0	R1475J
637.5	1.6	775671	WORD	n/a	wordpools/wordpool_categorized_EN.txt	HILLS	Landscapes	4	3	[0, 0, 0]	n/a	catFR1	0	R1475J
639.1	0.983	777272	WORD_OFF	n/a	n/a	HILLS	Landscapes	4	3	[0, 0, 0]	n/a	catFR1	0	R1475J
640.083	1.6	778254	WORD	n/a	wordpools/wordpool_categorized_EN.txt	ORANGUTAN	Zoo	5	3	[0, 0, 0]	n/a	catFR1	0	R1475J
641.683	0.967	779856	WORD_OFF	n/a	n/a	ORANGUTAN	Zoo	5	3	[0, 0, 0]	n/a	catFR1	0	R1475J
642.65	1.6	780827	WORD	n/a	wordpools/wordpool_categorized_EN.txt	BEAR	Zoo	6	3	[0, 0, 0]	n/a	catFR1	0	R1475J
644.25	1.0	782418	WORD_OFF	n/a	n/a	BEAR	Zoo	6	3	[0, 0, 0]	n/a	catFR1	0	R1475J
645.25	1.616	783421	WORD	n/a	wordpools/wordpool_categorized_EN.txt	BLENDER	Appliances	7	3	[0, 0, 0]	n/a	catFR1	0	R1475J
646.866	0.784	785043	WORD_OFF	n/a	n/a	BLENDER	Appliances	7	3	[0, 0, 0]	n/a	catFR1	0	R1475J
647.65	1.617	785818	WORD	n/a	wordpools/wordpool_categorized_EN.txt	WASHER	Appliances	8	3	[0, 0, 0]	n/a	catFR1	0	R1475J
649.267	0.766	787440	WORD_OFF	n/a	n/a	WASHER	Appliances	8	3	[0, 0, 0]	n/a	catFR1	0	R1475J
650.033	1.616	788205	WORD	n/a	wordpools/wordpool_categorized_EN.txt	STREAM	Landscapes	9	3	[0, 0, 0]	n/a	catFR1	0	R1475J
651.649	0.817	789817	WORD_OFF	n/a	n/a	STREAM	Landscapes	9	3	[0, 0, 0]	n/a	catFR1	0	R1475J
652.466	1.599	790633	WORD	n/a	wordpools/wordpool_categorized_EN.txt	BEACH	Landscapes	10	3	[0, 0, 0]	n/a	catFR1	0	R1475J
654.065	0.902	792235	WORD_OFF	n/a	n/a	BEACH	Landscapes	10	3	[0, 0, 0]	n/a	catFR1	0	R1475J
654.967	1.616	793134	WORD	n/a	wordpools/wordpool_categorized_EN.txt	ZEBRA	Zoo	11	3	[0, 0, 0]	n/a	catFR1	0	R1475J
656.583	0.983	794756	WORD_OFF	n/a	n/a	ZEBRA	Zoo	11	3	[0, 0, 0]	n/a	catFR1	0	R1475J
657.566	1.599	795738	WORD	n/a	wordpools/wordpool_categorized_EN.txt	CHIMPANZEE	Zoo	12	3	[0, 0, 0]	n/a	catFR1	0	R1475J
659.165	0.001	797340	WORD_OFF	n/a	n/a	CHIMPANZEE	Zoo	12	3	[0, 0, 0]	n/a	catFR1	0	R1475J
659.166	0.0	797340	ENCODING_END	n/a	n/a	n/a	n/a	-999	3	[0, 0, 0]	n/a	catFR1	0	R1475J
659.166	0.0	797340	DISTRACT_START	n/a	n/a	n/a	n/a	-999	3	[0, 0, 0]	n/a	catFR1	0	R1475J
659.166	0.0	797343	PROB	0.0	n/a	n/a	n/a	-999	3	[2, 5, 5]	12	catFR1	0	R1475J
659.166	4.733	797343	START	n/a	n/a	n/a	n/a	-999	3	[-999, -999, -999]	n/a	catFR1	0	R1475J
663.899	7.034	802076	PROB	7.034	n/a	n/a	n/a	-999	3	[4, 3, 1]	8	catFR1	0	R1475J
670.933	21.882	809109	PROB	21.882	n/a	n/a	n/a	-999	3	[8, 7, 6]	21	catFR1	0	R1475J
692.815	0.0	830985	DISTRACT_END	n/a	n/a	n/a	n/a	-999	3	[0, 0, 0]	n/a	catFR1	0	R1475J
692.815	2.301	830991	STOP	n/a	n/a	n/a	n/a	-999	3	[-999, -999, -999]	n/a	catFR1	0	R1475J
695.116	2.005	833287	REC_START	n/a	n/a	n/a	n/a	-999	3	[0, 0, 0]	n/a	catFR1	0	R1475J
697.121	20.189	835296	REC_WORD	20.189	n/a	ZEBRA	Zoo	11	3	[0, 0, 0]	n/a	catFR1	0	R1475J
717.31	8.03	855485	REC_WORD	8.03	n/a	FREEZER	Appliances	1	3	[0, 0, 0]	n/a	catFR1	0	R1475J
725.34	2.792	863504	REC_END	n/a	n/a	n/a	n/a	-999	3	[0, 0, 0]	n/a	catFR1	0	R1475J
728.132	10.351	866304	COUNTDOWN_START	n/a	n/a	n/a	n/a	-999	4	[0, 0, 0]	n/a	catFR1	0	R1475J
738.483	0.001	876648	COUNTDOWN_END	n/a	n/a	n/a	n/a	-999	4	[0, 0, 0]	n/a	catFR1	0	R1475J
738.484	2.149	876658	ENCODING_START	n/a	n/a	n/a	n/a	-999	4	[0, 0, 0]	n/a	catFR1	0	R1475J
740.633	1.6	878797	WORD	n/a	wordpools/wordpool_categorized_EN.txt	PUDDING	Desserts	1	4	[0, 0, 0]	n/a	catFR1	0	R1475J
742.233	0.766	880399	WORD_OFF	n/a	n/a	PUDDING	Desserts	1	4	[0, 0, 0]	n/a	catFR1	0	R1475J
742.999	1.601	881164	WORD	n/a	wordpools/wordpool_categorized_EN.txt	COOKIE	Desserts	2	4	[0, 0, 0]	n/a	catFR1	0	R1475J
744.6	0.816	882765	WORD_OFF	n/a	n/a	COOKIE	Desserts	2	4	[0, 0, 0]	n/a	catFR1	0	R1475J
745.416	1.6	883582	WORD	n/a	wordpools/wordpool_categorized_EN.txt	DOLPHIN	OceanAnimals	3	4	[0, 0, 0]	n/a	catFR1	0	R1475J
747.016	0.85	885183	WORD_OFF	n/a	n/a	DOLPHIN	OceanAnimals	3	4	[0, 0, 0]	n/a	catFR1	0	R1475J
747.866	1.6	886031	WORD	n/a	wordpools/wordpool_categorized_EN.txt	OYSTER	OceanAnimals	4	4	[0, 0, 0]	n/a	catFR1	0	R1475J
749.466	0.765	887632	WORD_OFF	n/a	n/a	OYSTER	OceanAnimals	4	4	[0, 0, 0]	n/a	catFR1	0	R1475J
750.231	1.601	888397	WORD	n/a	wordpools/wordpool_categorized_EN.txt	DRYER	Appliances	5	4	[0, 0, 0]	n/a	catFR1	0	R1475J
751.832	0.851	889999	WORD_OFF	n/a	n/a	DRYER	Appliances	5	4	[0, 0, 0]	n/a	catFR1	0	R1475J
752.683	1.6	890846	WORD	n/a	wordpools/wordpool_categorized_EN.txt	TOASTER	Appliances	6	4	[0, 0, 0]	n/a	catFR1	0	R1475J
754.283	0.916	892448	WORD_OFF	n/a	n/a	TOASTER	Appliances	6	4	[0, 0, 0]	n/a	catFR1	0	R1475J
755.199	1.616	893367	WORD	n/a	wordpools/wordpool_categorized_EN.txt	SHRIMP	OceanAnimals	7	4	[0, 0, 0]	n/a	catFR1	0	R1475J
756.815	1.001	894979	WORD_OFF	n/a	n/a	SHRIMP	OceanAnimals	7	4	[0, 0, 0]	n/a	catFR1	0	R1475J
757.816	1.615	895982	WORD	n/a	wordpools/wordpool_categorized_EN.txt	SQUID	OceanAnimals	8	4	[0, 0, 0]	n/a	catFR1	0	R1475J
759.431	0.819	897594	WORD_OFF	n/a	n/a	SQUID	OceanAnimals	8	4	[0, 0, 0]	n/a	catFR1	0	R1475J
760.25	1.615	898420	WORD	n/a	wordpools/wordpool_categorized_EN.txt	PASTRY	Desserts	9	4	[0, 0, 0]	n/a	catFR1	0	R1475J
761.865	0.984	900032	WORD_OFF	n/a	n/a	PASTRY	Desserts	9	4	[0, 0, 0]	n/a	catFR1	0	R1475J
762.849	1.6	901014	WORD	n/a	wordpools/wordpool_categorized_EN.txt	FUDGE	Desserts	10	4	[0, 0, 0]	n/a	catFR1	0	R1475J
764.449	0.982	902616	WORD_OFF	n/a	n/a	FUDGE	Desserts	10	4	[0, 0, 0]	n/a	catFR1	0	R1475J
765.431	1.6	903597	WORD	n/a	wordpools/wordpool_categorized_EN.txt	STOVE	Appliances	11	4	[0, 0, 0]	n/a	catFR1	0	R1475J
767.031	0.967	905199	WORD_OFF	n/a	n/a	STOVE	Appliances	11	4	[0, 0, 0]	n/a	catFR1	0	R1475J
767.998	1.601	906160	WORD	n/a	wordpools/wordpool_categorized_EN.txt	OVEN	Appliances	12	4	[0, 0, 0]	n/a	catFR1	0	R1475J
769.599	0.001	907762	WORD_OFF	n/a	n/a	OVEN	Appliances	12	4	[0, 0, 0]	n/a	catFR1	0	R1475J
769.6	0.0	907772	ENCODING_END	n/a	n/a	n/a	n/a	-999	4	[0, 0, 0]	n/a	catFR1	0	R1475J
769.6	0.0	907772	DISTRACT_START	n/a	n/a	n/a	n/a	-999	4	[0, 0, 0]	n/a	catFR1	0	R1475J
769.6	0.0	907772	START	n/a	n/a	n/a	n/a	-999	4	[-999, -999, -999]	n/a	catFR1	0	R1475J
769.6	6.666	907772	PROB	6.666	n/a	n/a	n/a	-999	4	[7, 7, 3]	17	catFR1	0	R1475J
776.266	6.267	914438	PROB	6.267	n/a	n/a	n/a	-999	4	[2, 3, 2]	7	catFR1	0	R1475J
782.533	7.132	920705	PROB	7.132	n/a	n/a	n/a	-999	4	[6, 5, 5]	21	catFR1	0	R1475J
789.665	0.0	927829	DISTRACT_END	n/a	n/a	n/a	n/a	-999	4	[0, 0, 0]	n/a	catFR1	0	R1475J
789.665	2.266	927837	STOP	n/a	n/a	n/a	n/a	-999	4	[-999, -999, -999]	n/a	catFR1	0	R1475J
791.931	4.783	930100	REC_START	n/a	n/a	n/a	n/a	-999	4	[0, 0, 0]	n/a	catFR1	0	R1475J
796.714	0.872	934885	REC_WORD	0.872	n/a	PASTRY	Desserts	9	4	[0, 0, 0]	n/a	catFR1	0	R1475J
797.586	24.561	935757	REC_WORD	24.561	n/a	FUDGE	Desserts	10	4	[0, 0, 0]	n/a	catFR1	0	R1475J
822.147	2.302	960307	REC_END	n/a	n/a	n/a	n/a	-999	4	[0, 0, 0]	n/a	catFR1	0	R1475J
824.449	10.35	962621	COUNTDOWN_START	n/a	n/a	n/a	n/a	-999	5	[0, 0, 0]	n/a	catFR1	0	R1475J
834.799	0.0	972965	COUNTDOWN_END	n/a	n/a	n/a	n/a	-999	5	[0, 0, 0]	n/a	catFR1	0	R1475J
834.799	2.168	972965	ENCODING_START	n/a	n/a	n/a	n/a	-999	5	[0, 0, 0]	n/a	catFR1	0	R1475J
836.967	1.616	975135	WORD	n/a	wordpools/wordpool_categorized_EN.txt	SHIRT	Clothing	1	5	[0, 0, 0]	n/a	catFR1	0	R1475J
838.583	0.831	976747	WORD_OFF	n/a	n/a	SHIRT	Clothing	1	5	[0, 0, 0]	n/a	catFR1	0	R1475J
839.414	1.602	977574	WORD	n/a	wordpools/wordpool_categorized_EN.txt	PANTS	Clothing	2	5	[0, 0, 0]	n/a	catFR1	0	R1475J
841.016	0.866	979186	WORD_OFF	n/a	n/a	PANTS	Clothing	2	5	[0, 0, 0]	n/a	catFR1	0	R1475J
841.882	1.601	980043	WORD	n/a	wordpools/wordpool_categorized_EN.txt	ROSE	Flowers	3	5	[0, 0, 0]	n/a	catFR1	0	R1475J
843.483	0.933	981645	WORD_OFF	n/a	n/a	ROSE	Flowers	3	5	[0, 0, 0]	n/a	catFR1	0	R1475J
844.416	1.615	982575	WORD	n/a	wordpools/wordpool_categorized_EN.txt	DAISY	Flowers	4	5	[0, 0, 0]	n/a	catFR1	0	R1475J
846.031	0.968	984197	WORD_OFF	n/a	n/a	DAISY	Flowers	4	5	[0, 0, 0]	n/a	catFR1	0	R1475J
846.999	1.6	985158	WORD	n/a	wordpools/wordpool_categorized_EN.txt	CREEK	Landscapes	5	5	[0, 0, 0]	n/a	catFR1	0	R1475J
848.599	0.983	986760	WORD_OFF	n/a	n/a	CREEK	Landscapes	5	5	[0, 0, 0]	n/a	catFR1	0	R1475J
849.582	1.601	987742	WORD	n/a	wordpools/wordpool_categorized_EN.txt	OCEAN	Landscapes	6	5	[0, 0, 0]	n/a	catFR1	0	R1475J
851.183	0.966	989343	WORD_OFF	n/a	n/a	OCEAN	Landscapes	6	5	[0, 0, 0]	n/a	catFR1	0	R1475J
852.149	1.601	990315	WORD	n/a	wordpools/wordpool_categorized_EN.txt	SKIRT	Clothing	7	5	[0, 0, 0]	n/a	catFR1	0	R1475J
853.75	0.866	991916	WORD_OFF	n/a	n/a	SKIRT	Clothing	7	5	[0, 0, 0]	n/a	catFR1	0	R1475J
854.616	1.615	992784	WORD	n/a	wordpools/wordpool_categorized_EN.txt	JEANS	Clothing	8	5	[0, 0, 0]	n/a	catFR1	0	R1475J
856.231	0.951	994396	WORD_OFF	n/a	n/a	JEANS	Clothing	8	5	[0, 0, 0]	n/a	catFR1	0	R1475J
857.182	1.617	995347	WORD	n/a	wordpools/wordpool_categorized_EN.txt	LILAC	Flowers	9	5	[0, 0, 0]	n/a	catFR1	0	R1475J
858.799	0.967	996959	WORD_OFF	n/a	n/a	LILAC	Flowers	9	5	[0, 0, 0]	n/a	catFR1	0	R1475J
859.766	1.616	997930	WORD	n/a	wordpools/wordpool_categorized_EN.txt	LILY	Flowers	10	5	[0, 0, 0]	n/a	catFR1	0	R1475J
861.382	0.917	999542	WORD_OFF	n/a	n/a	LILY	Flowers	10	5	[0, 0, 0]	n/a	catFR1	0	R1475J
862.299	1.6	1000462	WORD	n/a	wordpools/wordpool_categorized_EN.txt	LAKE	Landscapes	11	5	[0, 0, 0]	n/a	catFR1	0	R1475J
863.899	0.949	1002064	WORD_OFF	n/a	n/a	LAKE	Landscapes	11	5	[0, 0, 0]	n/a	catFR1	0	R1475J
864.848	1.603	1003014	WORD	n/a	wordpools/wordpool_categorized_EN.txt	WOODS	Landscapes	12	5	[0, 0, 0]	n/a	catFR1	0	R1475J
866.451	0.001	1004616	WORD_OFF	n/a	n/a	WOODS	Landscapes	12	5	[0, 0, 0]	n/a	catFR1	0	R1475J
866.452	0.0	1004616	ENCODING_END	n/a	n/a	n/a	n/a	-999	5	[0, 0, 0]	n/a	catFR1	0	R1475J
866.452	0.0	1004616	DISTRACT_START	n/a	n/a	n/a	n/a	-999	5	[0, 0, 0]	n/a	catFR1	0	R1475J
866.45	0.002	1004618	PROB	0.002	n/a	n/a	n/a	-999	5	[3, 3, 4]	10	catFR1	0	R1475J
866.452	8.331	1004620	START	n/a	n/a	n/a	n/a	-999	5	[-999, -999, -999]	n/a	catFR1	0	R1475J
874.783	11.016	1012951	PROB	11.016	n/a	n/a	n/a	-999	5	[4, 6, 8]	18	catFR1	0	R1475J
885.799	7.566	1023967	PROB	7.566	n/a	n/a	n/a	-999	5	[3, 8, 8]	19	catFR1	0	R1475J
893.365	0.0	1031524	DISTRACT_END	n/a	n/a	n/a	n/a	-999	5	[0, 0, 0]	n/a	catFR1	0	R1475J
893.365	2.401	1031532	STOP	n/a	n/a	n/a	n/a	-999	5	[-999, -999, -999]	n/a	catFR1	0	R1475J
895.766	1.214	1033929	REC_START	n/a	n/a	n/a	n/a	-999	5	[0, 0, 0]	n/a	catFR1	0	R1475J
896.98	0.589	1035147	REC_WORD	0.589	n/a	PANTS	Clothing	2	5	[0, 0, 0]	n/a	catFR1	0	R1475J
897.569	0.446	1035736	REC_WORD	0.446	n/a	JEANS	Clothing	8	5	[0, 0, 0]	n/a	catFR1	0	R1475J
898.015	0.581	1036182	REC_WORD	0.581	n/a	SHIRT	Clothing	1	5	[0, 0, 0]	n/a	catFR1	0	R1475J
898.596	7.531	1036763	REC_WORD	7.531	n/a	LILAC	Flowers	9	5	[0, 0, 0]	n/a	catFR1	0	R1475J
906.127	15.939	1044294	REC_WORD	15.939	n/a	SKIRT	Clothing	7	5	[0, 0, 0]	n/a	catFR1	0	R1475J
922.066	3.92	1060232	REC_WORD	3.92	n/a	SHORTS	n/a	-999	5	[0, 0, 0]	n/a	catFR1	0	R1475J
925.986	2.797	1064146	REC_END	n/a	n/a	n/a	n/a	-999	5	[0, 0, 0]	n/a	catFR1	0	R1475J
928.783	10.348	1066946	COUNTDOWN_START	n/a	n/a	n/a	n/a	-999	6	[0, 0, 0]	n/a	catFR1	0	R1475J
939.131	0.0	1077290	COUNTDOWN_END	n/a	n/a	n/a	n/a	-999	6	[0, 0, 0]	n/a	catFR1	0	R1475J
939.131	2.335	1077290	ENCODING_START	n/a	n/a	n/a	n/a	-999	6	[0, 0, 0]	n/a	catFR1	0	R1475J
941.466	1.6	1079625	WORD	n/a	wordpools/wordpool_categorized_EN.txt	MOTORCYCLE	Vehicles	1	6	[0, 0, 0]	n/a	catFR1	0	R1475J
943.066	0.934	1081227	WORD_OFF	n/a	n/a	MOTORCYCLE	Vehicles	1	6	[0, 0, 0]	n/a	catFR1	0	R1475J
944.0	1.599	1082157	WORD	n/a	wordpools/wordpool_categorized_EN.txt	BOAT	Vehicles	2	6	[0, 0, 0]	n/a	catFR1	0	R1475J
945.599	0.9	1083759	WORD_OFF	n/a	n/a	BOAT	Vehicles	2	6	[0, 0, 0]	n/a	catFR1	0	R1475J
946.499	1.601	1084658	WORD	n/a	wordpools/wordpool_categorized_EN.txt	ROACH	Insects	3	6	[0, 0, 0]	n/a	catFR1	0	R1475J
948.1	0.783	1086259	WORD_OFF	n/a	n/a	ROACH	Insects	3	6	[0, 0, 0]	n/a	catFR1	0	R1475J
948.883	1.599	1087045	WORD	n/a	wordpools/wordpool_categorized_EN.txt	GNAT	Insects	4	6	[0, 0, 0]	n/a	catFR1	0	R1475J
950.482	0.983	1088646	WORD_OFF	n/a	n/a	GNAT	Insects	4	6	[0, 0, 0]	n/a	catFR1	0	R1475J
951.465	1.601	1089628	WORD	n/a	wordpools/wordpool_categorized_EN.txt	TUBA	Instruments	5	6	[0, 0, 0]	n/a	catFR1	0	R1475J
953.066	0.999	1091230	WORD_OFF	n/a	n/a	TUBA	Instruments	5	6	[0, 0, 0]	n/a	catFR1	0	R1475J
954.065	1.617	1092222	WORD	n/a	wordpools/wordpool_categorized_EN.txt	ORGAN	Instruments	6	6	[0, 0, 0]	n/a	catFR1	0	R1475J
955.682	1.0	1093844	WORD_OFF	n/a	n/a	ORGAN	Instruments	6	6	[0, 0, 0]	n/a	catFR1	0	R1475J
956.682	1.616	1094836	WORD	n/a	wordpools/wordpool_categorized_EN.txt	BEE	Insects	7	6	[0, 0, 0]	n/a	catFR1	0	R1475J
958.298	0.8	1096458	WORD_OFF	n/a	n/a	BEE	Insects	7	6	[0, 0, 0]	n/a	catFR1	0	R1475J
959.098	1.601	1097254	WORD	n/a	wordpools/wordpool_categorized_EN.txt	BUTTERFLY	Insects	8	6	[0, 0, 0]	n/a	catFR1	0	R1475J
960.699	0.916	1098856	WORD_OFF	n/a	n/a	BUTTERFLY	Insects	8	6	[0, 0, 0]	n/a	catFR1	0	R1475J
961.615	1.601	1099775	WORD	n/a	wordpools/wordpool_categorized_EN.txt	PLANE	Vehicles	9	6	[0, 0, 0]	n/a	catFR1	0	R1475J
963.216	0.848	1101377	WORD_OFF	n/a	n/a	PLANE	Vehicles	9	6	[0, 0, 0]	n/a	catFR1	0	R1475J
964.064	1.601	1102224	WORD	n/a	wordpools/wordpool_categorized_EN.txt	BUS	Vehicles	10	6	[0, 0, 0]	n/a	catFR1	0	R1475J
965.665	0.984	1103826	WORD_OFF	n/a	n/a	BUS	Vehicles	10	6	[0, 0, 0]	n/a	catFR1	0	R1475J
966.649	1.6	1104808	WORD	n/a	wordpools/wordpool_categorized_EN.txt	DRUM	Instruments	11	6	[0, 0, 0]	n/a	catFR1	0	R1475J
968.249	0.966	1106409	WORD_OFF	n/a	n/a	DRUM	Instruments	11	6	[0, 0, 0]	n/a	catFR1	0	R1475J
969.215	1.601	1107370	WORD	n/a	wordpools/wordpool_categorized_EN.txt	BANJO	Instruments	12	6	[0, 0, 0]	n/a	catFR1	0	R1475J
970.816	0.001	1108972	WORD_OFF	n/a	n/a	BANJO	Instruments	12	6	[0, 0, 0]	n/a	catFR1	0	R1475J
970.817	0.001	1108981	PROB	0.001	n/a	n/a	n/a	-999	6	[1, 7, 8]	16	catFR1	0	R1475J
970.818	0.0	1108982	ENCODING_END	n/a	n/a	n/a	n/a	-999	6	[0, 0, 0]	n/a	catFR1	0	R1475J
970.818	0.0	1108982	DISTRACT_START	n/a	n/a	n/a	n/a	-999	6	[0, 0, 0]	n/a	catFR1	0	R1475J
970.818	9.399	1108982	START	n/a	n/a	n/a	n/a	-999	6	[-999, -999, -999]	n/a	catFR1	0	R1475J
980.217	6.698	1118381	PROB	6.698	n/a	n/a	n/a	-999	6	[8, 5, 8]	21	catFR1	0	R1475J
986.915	10.299	1125078	PROB	10.299	n/a	n/a	n/a	-999	6	[8, 7, 5]	20	catFR1	0	R1475J
997.214	0.0	1135374	DISTRACT_END	n/a	n/a	n/a	n/a	-999	6	[0, 0, 0]	n/a	catFR1	0	R1475J
997.214	2.351	1135377	STOP	n/a	n/a	n/a	n/a	-999	6	[-999, -999, -999]	n/a	catFR1	0	R1475J
999.565	2.029	1137727	REC_START	n/a	n/a	n/a	n/a	-999	6	[0, 0, 0]	n/a	catFR1	0	R1475J
1001.594	5.898	1139757	REC_WORD	5.898	n/a	BANJO	Instruments	12	6	[0, 0, 0]	n/a	catFR1	0	R1475J
1007.492	3.052	1145654	REC_WORD	3.052	n/a	BOAT	Vehicles	2	6	[0, 0, 0]	n/a	catFR1	0	R1475J
1010.544	5.151	1148706	REC_WORD	5.151	n/a	DRUM	Instruments	11	6	[0, 0, 0]	n/a	catFR1	0	R1475J
1015.695	14.107	1153857	REC_WORD	14.107	n/a	MOTORCYCLE	Vehicles	1	6	[0, 0, 0]	n/a	catFR1	0	R1475J
1029.802	1.997	1167955	REC_END	n/a	n/a	n/a	n/a	-999	6	[0, 0, 0]	n/a	catFR1	0	R1475J
1031.799	10.35	1169959	COUNTDOWN_START	n/a	n/a	n/a	n/a	-999	7	[0, 0, 0]	n/a	catFR1	0	R1475J
1042.149	0.0	1180303	COUNTDOWN_END	n/a	n/a	n/a	n/a	-999	7	[0, 0, 0]	n/a	catFR1	0	R1475J
1042.149	2.217	1180303	ENCODING_START	n/a	n/a	n/a	n/a	-999	7	[0, 0, 0]	n/a	catFR1	0	R1475J
1044.366	1.617	1182525	WORD	n/a	wordpools/wordpool_categorized_EN.txt	DESK	Furniture	1	7	[0, 0, 0]	n/a	catFR1	0	R1475J
1045.983	0.949	1184137	WORD_OFF	n/a	n/a	DESK	Furniture	1	7	[0, 0, 0]	n/a	catFR1	0	R1475J
1046.932	1.6	1185087	WORD	n/a	wordpools/wordpool_categorized_EN.txt	CABINET	Furniture	2	7	[0, 0, 0]	n/a	catFR1	0	R1475J
1048.532	0.817	1186689	WORD_OFF	n/a	n/a	CABINET	Furniture	2	7	[0, 0, 0]	n/a	catFR1	0	R1475J
1049.349	1.6	1187505	WORD	n/a	wordpools/wordpool_categorized_EN.txt	DISHWASHER	Appliances	3	7	[0, 0, 0]	n/a	catFR1	0	R1475J
1050.949	0.966	1189107	WORD_OFF	n/a	n/a	DISHWASHER	Appliances	3	7	[0, 0, 0]	n/a	catFR1	0	R1475J
1051.915	1.6	1190068	WORD	n/a	wordpools/wordpool_categorized_EN.txt	REFRIGERATOR	Appliances	4	7	[0, 0, 0]	n/a	catFR1	0	R1475J
1053.515	0.917	1191670	WORD_OFF	n/a	n/a	REFRIGERATOR	Appliances	4	7	[0, 0, 0]	n/a	catFR1	0	R1475J
1054.432	1.616	1192589	WORD	n/a	wordpools/wordpool_categorized_EN.txt	SPOON	KitchenTools	5	7	[0, 0, 0]	n/a	catFR1	0	R1475J
1056.048	0.933	1194201	WORD_OFF	n/a	n/a	SPOON	KitchenTools	5	7	[0, 0, 0]	n/a	catFR1	0	R1475J
1056.981	1.602	1195131	WORD	n/a	wordpools/wordpool_categorized_EN.txt	FORK	KitchenTools	6	7	[0, 0, 0]	n/a	catFR1	0	R1475J
1058.583	0.933	1196733	WORD_OFF	n/a	n/a	FORK	KitchenTools	6	7	[0, 0, 0]	n/a	catFR1	0	R1475J
1059.516	1.616	1197673	WORD	n/a	wordpools/wordpool_categorized_EN.txt	IRON	Appliances	7	7	[0, 0, 0]	n/a	catFR1	0	R1475J
1061.132	0.834	1199285	WORD_OFF	n/a	n/a	IRON	Appliances	7	7	[0, 0, 0]	n/a	catFR1	0	R1475J
1061.966	1.616	1200122	WORD	n/a	wordpools/wordpool_categorized_EN.txt	VACUUM	Appliances	8	7	[0, 0, 0]	n/a	catFR1	0	R1475J
1063.582	0.816	1201734	WORD_OFF	n/a	n/a	VACUUM	Appliances	8	7	[0, 0, 0]	n/a	catFR1	0	R1475J
1064.398	1.601	1202551	WORD	n/a	wordpools/wordpool_categorized_EN.txt	STRAINER	KitchenTools	9	7	[0, 0, 0]	n/a	catFR1	0	R1475J
1065.999	0.834	1204152	WORD_OFF	n/a	n/a	STRAINER	KitchenTools	9	7	[0, 0, 0]	n/a	catFR1	0	R1475J
1066.833	1.614	1204989	WORD	n/a	wordpools/wordpool_categorized_EN.txt	TONGS	KitchenTools	10	7	[0, 0, 0]	n/a	catFR1	0	R1475J
1068.447	0.951	1206601	WORD_OFF	n/a	n/a	TONGS	KitchenTools	10	7	[0, 0, 0]	n/a	catFR1	0	R1475J
1069.398	1.601	1207552	WORD	n/a	wordpools/wordpool_categorized_EN.txt	SOFA	Furniture	11	7	[0, 0, 0]	n/a	catFR1	0	R1475J
1070.999	0.8	1209154	WORD_OFF	n/a	n/a	SOFA	Furniture	11	7	[0, 0, 0]	n/a	catFR1	0	R1475J
1071.799	1.616	1209949	WORD	n/a	wordpools/wordpool_categorized_EN.txt	BOOKCASE	Furniture	12	7	[0, 0, 0]	n/a	catFR1	0	R1475J
1073.415	0.001	1211572	WORD_OFF	n/a	n/a	BOOKCASE	Furniture	12	7	[0, 0, 0]	n/a	catFR1	0	R1475J
1073.416	0.0	1211572	ENCODING_END	n/a	n/a	n/a	n/a	-999	7	[0, 0, 0]	n/a	catFR1	0	R1475J
1073.416	0.0	1211572	DISTRACT_START	n/a	n/a	n/a	n/a	-999	7	[0, 0, 0]	n/a	catFR1	0	R1475J
1073.415	0.001	1211575	PROB	0.001	n/a	n/a	n/a	-999	7	[8, 3, 4]	15	catFR1	0	R1475J
1073.416	9.633	1211576	START	n/a	n/a	n/a	n/a	-999	7	[-999, -999, -999]	n/a	catFR1	0	R1475J
1083.049	14.633	1221208	PROB	14.633	n/a	n/a	n/a	-999	7	[6, 5, 3]	14	catFR1	0	R1475J
1097.682	0.0	1235834	DISTRACT_END	n/a	n/a	n/a	n/a	-999	7	[0, 0, 0]	n/a	catFR1	0	R1475J
1097.682	2.4	1235841	STOP	n/a	n/a	n/a	n/a	-999	7	[-999, -999, -999]	n/a	catFR1	0	R1475J
1100.082	6.648	1238229	REC_START	n/a	n/a	n/a	n/a	-999	7	[0, 0, 0]	n/a	catFR1	0	R1475J
1106.73	8.316	1244888	REC_WORD	8.316	n/a	DISHWASHER	Appliances	3	7	[0, 0, 0]	n/a	catFR1	0	R1475J
1115.046	15.26	1253204	REC_WORD	15.26	n/a	REFRIGERATOR	Appliances	4	7	[0, 0, 0]	n/a	catFR1	0	R1475J
1130.306	2.777	1268457	REC_END	n/a	n/a	n/a	n/a	-999	7	[0, 0, 0]	n/a	catFR1	0	R1475J
1133.083	10.35	1271236	COUNTDOWN_START	n/a	n/a	n/a	n/a	-999	8	[0, 0, 0]	n/a	catFR1	0	R1475J
1143.433	0.0	1281580	COUNTDOWN_END	n/a	n/a	n/a	n/a	-999	8	[0, 0, 0]	n/a	catFR1	0	R1475J
1143.433	2.116	1281590	ENCODING_START	n/a	n/a	n/a	n/a	-999	8	[0, 0, 0]	n/a	catFR1	0	R1475J
1145.549	1.6	1283698	WORD	n/a	wordpools/wordpool_categorized_EN.txt	MARKER	OfficeSupplies	1	8	[0, 0, 0]	n/a	catFR1	0	R1475J
1147.149	0.915	1285300	WORD_OFF	n/a	n/a	MARKER	OfficeSupplies	1	8	[0, 0, 0]	n/a	catFR1	0	R1475J
1148.064	1.601	1286220	WORD	n/a	wordpools/wordpool_categorized_EN.txt	PENCIL	OfficeSupplies	2	8	[0, 0, 0]	n/a	catFR1	0	R1475J
1149.665	1.0	1287811	WORD_OFF	n/a	n/a	PENCIL	OfficeSupplies	2	8	[0, 0, 0]	n/a	catFR1	0	R1475J
1150.665	1.6	1288813	WORD	n/a	wordpools/wordpool_categorized_EN.txt	BLOCKS	Toys	3	8	[0, 0, 0]	n/a	catFR1	0	R1475J
1152.265	0.901	1290415	WORD_OFF	n/a	n/a	BLOCKS	Toys	3	8	[0, 0, 0]	n/a	catFR1	0	R1475J
1153.166	1.616	1291314	WORD	n/a	wordpools/wordpool_categorized_EN.txt	DOLLHOUSE	Toys	4	8	[0, 0, 0]	n/a	catFR1	0	R1475J
1154.782	0.799	1292936	WORD_OFF	n/a	n/a	DOLLHOUSE	Toys	4	8	[0, 0, 0]	n/a	catFR1	0	R1475J
1155.581	1.6	1293732	WORD	n/a	wordpools/wordpool_categorized_EN.txt	FLY	Insects	5	8	[0, 0, 0]	n/a	catFR1	0	R1475J
1157.181	0.934	1295334	WORD_OFF	n/a	n/a	FLY	Insects	5	8	[0, 0, 0]	n/a	catFR1	0	R1475J
1158.115	1.6	1296264	WORD	n/a	wordpools/wordpool_categorized_EN.txt	SPIDER	Insects	6	8	[0, 0, 0]	n/a	catFR1	0	R1475J
1159.715	0.967	1297865	WORD_OFF	n/a	n/a	SPIDER	Insects	6	8	[0, 0, 0]	n/a	catFR1	0	R1475J
1160.682	1.617	1298826	WORD	n/a	wordpools/wordpool_categorized_EN.txt	BASEBALL	Toys	7	8	[0, 0, 0]	n/a	catFR1	0	R1475J
1162.299	0.884	1300449	WORD_OFF	n/a	n/a	BASEBALL	Toys	7	8	[0, 0, 0]	n/a	catFR1	0	R1475J
1163.183	1.616	1301337	WORD	n/a	wordpools/wordpool_categorized_EN.txt	DOLL	Toys	8	8	[0, 0, 0]	n/a	catFR1	0	R1475J
1164.799	0.833	1302949	WORD_OFF	n/a	n/a	DOLL	Toys	8	8	[0, 0, 0]	n/a	catFR1	0	R1475J
1165.632	1.617	1303786	WORD	n/a	wordpools/wordpool_categorized_EN.txt	MOSQUITO	Insects	9	8	[0, 0, 0]	n/a	catFR1	0	R1475J
1167.249	0.949	1305398	WORD_OFF	n/a	n/a	MOSQUITO	Insects	9	8	[0, 0, 0]	n/a	catFR1	0	R1475J
1168.198	1.617	1306349	WORD	n/a	wordpools/wordpool_categorized_EN.txt	ANT	Insects	10	8	[0, 0, 0]	n/a	catFR1	0	R1475J
1169.815	0.85	1307961	WORD_OFF	n/a	n/a	ANT	Insects	10	8	[0, 0, 0]	n/a	catFR1	0	R1475J
1170.665	1.6	1308819	WORD	n/a	wordpools/wordpool_categorized_EN.txt	TAPE	OfficeSupplies	11	8	[0, 0, 0]	n/a	catFR1	0	R1475J
1172.265	0.867	1310410	WORD_OFF	n/a	n/a	TAPE	OfficeSupplies	11	8	[0, 0, 0]	n/a	catFR1	0	R1475J
1173.132	1.6	1311278	WORD	n/a	wordpools/wordpool_categorized_EN.txt	STAPLER	OfficeSupplies	12	8	[0, 0, 0]	n/a	catFR1	0	R1475J
1174.732	0.001	1312880	WORD_OFF	n/a	n/a	STAPLER	OfficeSupplies	12	8	[0, 0, 0]	n/a	catFR1	0	R1475J
1174.733	0.0	1312880	ENCODING_END	n/a	n/a	n/a	n/a	-999	8	[0, 0, 0]	n/a	catFR1	0	R1475J
1174.733	0.0	1312888	START	n/a	n/a	n/a	n/a	-999	8	[-999, -999, -999]	n/a	catFR1	0	R1475J
1174.733	0.0	1312888	PROB	0.0	n/a	n/a	n/a	-999	8	[5, 5, 1]	11	catFR1	0	R1475J
1174.733	4.033	1312890	DISTRACT_START	n/a	n/a	n/a	n/a	-999	8	[0, 0, 0]	n/a	catFR1	0	R1475J
1178.766	12.617	1316921	PROB	12.617	n/a	n/a	n/a	-999	8	[7, 8, 1]	16	catFR1	0	R1475J
1191.383	10.632	1329538	PROB	10.632	n/a	n/a	n/a	-999	8	[7, 8, 8]	23	catFR1	0	R1475J
1202.015	0.0	1340160	DISTRACT_END	n/a	n/a	n/a	n/a	-999	8	[0, 0, 0]	n/a	catFR1	0	R1475J
1202.015	2.2	1340169	STOP	n/a	n/a	n/a	n/a	-999	8	[-999, -999, -999]	n/a	catFR1	0	R1475J
1204.215	2.41	1342358	REC_START	n/a	n/a	n/a	n/a	-999	8	[0, 0, 0]	n/a	catFR1	0	R1475J
1206.625	13.316	1344779	REC_WORD	13.316	n/a	PENCIL	OfficeSupplies	2	8	[0, 0, 0]	n/a	catFR1	0	R1475J
1219.941	0.841	1358095	REC_WORD	0.841	n/a	DOLLHOUSE	Toys	4	8	[0, 0, 0]	n/a	catFR1	0	R1475J
1220.782	3.7	1358936	REC_WORD	3.7	n/a	DOLL	Toys	8	8	[0, 0, 0]	n/a	catFR1	0	R1475J
1224.482	9.951	1362635	REC_WORD	9.951	n/a	STAPLER	OfficeSupplies	12	8	[0, 0, 0]	n/a	catFR1	0	R1475J
1234.433	2.581	1372575	REC_END	n/a	n/a	n/a	n/a	-999	8	[0, 0, 0]	n/a	catFR1	0	R1475J
1237.014	10.351	1375159	COUNTDOWN_START	n/a	n/a	n/a	n/a	-999	9	[0, 0, 0]	n/a	catFR1	0	R1475J
1247.365	0.0	1385513	COUNTDOWN_END	n/a	n/a	n/a	n/a	-999	9	[0, 0, 0]	n/a	catFR1	0	R1475J
1247.365	2.035	1385513	ENCODING_START	n/a	n/a	n/a	n/a	-999	9	[0, 0, 0]	n/a	catFR1	0	R1475J
1249.4	1.614	1387548	WORD	n/a	wordpools/wordpool_categorized_EN.txt	CROW	Birds	1	9	[0, 0, 0]	n/a	catFR1	0	R1475J
1251.014	0.768	1389160	WORD_OFF	n/a	n/a	CROW	Birds	1	9	[0, 0, 0]	n/a	catFR1	0	R1475J
1251.782	1.6	1389925	WORD	n/a	wordpools/wordpool_categorized_EN.txt	SPARROW	Birds	2	9	[0, 0, 0]	n/a	catFR1	0	R1475J
1253.382	0.983	1391527	WORD_OFF	n/a	n/a	SPARROW	Birds	2	9	[0, 0, 0]	n/a	catFR1	0	R1475J
1254.365	1.601	1392508	WORD	n/a	wordpools/wordpool_categorized_EN.txt	CORKSCREW	KitchenTools	3	9	[0, 0, 0]	n/a	catFR1	0	R1475J
1255.966	0.816	1394110	WORD_OFF	n/a	n/a	CORKSCREW	KitchenTools	3	9	[0, 0, 0]	n/a	catFR1	0	R1475J
1256.782	1.618	1394926	WORD	n/a	wordpools/wordpool_categorized_EN.txt	COLANDER	KitchenTools	4	9	[0, 0, 0]	n/a	catFR1	0	R1475J
1258.4	0.882	1396549	WORD_OFF	n/a	n/a	COLANDER	KitchenTools	4	9	[0, 0, 0]	n/a	catFR1	0	R1475J
1259.282	1.616	1397427	WORD	n/a	wordpools/wordpool_categorized_EN.txt	FOREST	Landscapes	5	9	[0, 0, 0]	n/a	catFR1	0	R1475J
1260.898	0.8	1399039	WORD_OFF	n/a	n/a	FOREST	Landscapes	5	9	[0, 0, 0]	n/a	catFR1	0	R1475J
1261.698	1.6	1399845	WORD	n/a	wordpools/wordpool_categorized_EN.txt	VALLEY	Landscapes	6	9	[0, 0, 0]	n/a	catFR1	0	R1475J
1263.298	0.801	1401447	WORD_OFF	n/a	n/a	VALLEY	Landscapes	6	9	[0, 0, 0]	n/a	catFR1	0	R1475J
1264.099	1.6	1402242	WORD	n/a	wordpools/wordpool_categorized_EN.txt	CARDINAL	Birds	7	9	[0, 0, 0]	n/a	catFR1	0	R1475J
1265.699	0.767	1403844	WORD_OFF	n/a	n/a	CARDINAL	Birds	7	9	[0, 0, 0]	n/a	catFR1	0	R1475J
1266.466	1.617	1404609	WORD	n/a	wordpools/wordpool_categorized_EN.txt	DUCK	Birds	8	9	[0, 0, 0]	n/a	catFR1	0	R1475J
1268.083	0.8	1406231	WORD_OFF	n/a	n/a	DUCK	Birds	8	9	[0, 0, 0]	n/a	catFR1	0	R1475J
1268.883	1.6	1407027	WORD	n/a	wordpools/wordpool_categorized_EN.txt	KNIFE	KitchenTools	9	9	[0, 0, 0]	n/a	catFR1	0	R1475J
1270.483	0.781	1408628	WORD_OFF	n/a	n/a	KNIFE	KitchenTools	9	9	[0, 0, 0]	n/a	catFR1	0	R1475J
1271.264	1.601	1409414	WORD	n/a	wordpools/wordpool_categorized_EN.txt	GRATER	KitchenTools	10	9	[0, 0, 0]	n/a	catFR1	0	R1475J
1272.865	0.817	1411015	WORD_OFF	n/a	n/a	GRATER	KitchenTools	10	9	[0, 0, 0]	n/a	catFR1	0	R1475J
1273.682	1.617	1411832	WORD	n/a	wordpools/wordpool_categorized_EN.txt	RIVER	Landscapes	11	9	[0, 0, 0]	n/a	catFR1	0	R1475J
1275.299	0.882	1413444	WORD_OFF	n/a	n/a	RIVER	Landscapes	11	9	[0, 0, 0]	n/a	catFR1	0	R1475J
1276.181	1.601	1414322	WORD	n/a	wordpools/wordpool_categorized_EN.txt	ISLAND	Landscapes	12	9	[0, 0, 0]	n/a	catFR1	0	R1475J
1277.782	0.0	1415933	PROB	0.0	n/a	n/a	n/a	-999	9	[8, 7, 5]	20	catFR1	0	R1475J
1277.782	0.002	1415934	WORD_OFF	n/a	n/a	ISLAND	Landscapes	12	9	[0, 0, 0]	n/a	catFR1	0	R1475J
1277.784	0.0	1415934	ENCODING_END	n/a	n/a	n/a	n/a	-999	9	[0, 0, 0]	n/a	catFR1	0	R1475J
1277.784	0.0	1415934	DISTRACT_START	n/a	n/a	n/a	n/a	-999	9	[0, 0, 0]	n/a	catFR1	0	R1475J
1277.784	10.148	1415935	START	n/a	n/a	n/a	n/a	-999	9	[-999, -999, -999]	n/a	catFR1	0	R1475J
1287.932	7.085	1426083	PROB	7.085	n/a	n/a	n/a	-999	9	[2, 7, 1]	10	catFR1	0	R1475J
1295.017	8.598	1433167	PROB	8.598	n/a	n/a	n/a	-999	9	[7, 4, 8]	19	catFR1	0	R1475J
1303.615	0.0	1441757	DISTRACT_END	n/a	n/a	n/a	n/a	-999	9	[0, 0, 0]	n/a	catFR1	0	R1475J
1303.615	2.133	1441765	STOP	n/a	n/a	n/a	n/a	-999	9	[-999, -999, -999]	n/a	catFR1	0	R1475J
1305.748	3.535	1443894	REC_START	n/a	n/a	n/a	n/a	-999	9	[0, 0, 0]	n/a	catFR1	0	R1475J
1309.283	2.718	1447433	REC_WORD	2.718	n/a	DUCK	Birds	8	9	[0, 0, 0]	n/a	catFR1	0	R1475J
1312.001	1.208	1450151	REC_WORD	1.208	n/a	COLANDER	KitchenTools	4	9	[0, 0, 0]	n/a	catFR1	0	R1475J
1313.209	0.694	1451359	REC_WORD	0.694	n/a	SPARROW	Birds	2	9	[0, 0, 0]	n/a	catFR1	0	R1475J
1313.903	22.083	1452053	REC_WORD	22.083	n/a	CROW	Birds	1	9	[0, 0, 0]	n/a	catFR1	0	R1475J
1335.986	3.196	1474131	REC_END	n/a	n/a	n/a	n/a	-999	9	[0, 0, 0]	n/a	catFR1	0	R1475J
1339.182	10.35	1477324	COUNTDOWN_START	n/a	n/a	n/a	n/a	-999	10	[0, 0, 0]	n/a	catFR1	0	R1475J
1349.532	0.001	1487678	COUNTDOWN_END	n/a	n/a	n/a	n/a	-999	10	[0, 0, 0]	n/a	catFR1	0	R1475J
1349.533	2.099	1487678	ENCODING_START	n/a	n/a	n/a	n/a	-999	10	[0, 0, 0]	n/a	catFR1	0	R1475J
1351.632	1.617	1489776	WORD	n/a	wordpools/wordpool_categorized_EN.txt	NOSE	BodyParts	1	10	[0, 0, 0]	n/a	catFR1	0	R1475J
1353.249	0.999	1491388	WORD_OFF	n/a	n/a	NOSE	BodyParts	1	10	[0, 0, 0]	n/a	catFR1	0	R1475J
1354.248	1.601	1492390	WORD	n/a	wordpools/wordpool_categorized_EN.txt	FOOT	BodyParts	2	10	[0, 0, 0]	n/a	catFR1	0	R1475J
1355.849	0.866	1493992	WORD_OFF	n/a	n/a	FOOT	BodyParts	2	10	[0, 0, 0]	n/a	catFR1	0	R1475J
1356.715	1.6	1494860	WORD	n/a	wordpools/wordpool_categorized_EN.txt	PEAR	Fruit	3	10	[0, 0, 0]	n/a	catFR1	0	R1475J
1358.315	0.885	1496462	WORD_OFF	n/a	n/a	PEAR	Fruit	3	10	[0, 0, 0]	n/a	catFR1	0	R1475J
1359.2	1.615	1497340	WORD	n/a	wordpools/wordpool_categorized_EN.txt	LEMON	Fruit	4	10	[0, 0, 0]	n/a	catFR1	0	R1475J
1360.815	0.933	1498962	WORD_OFF	n/a	n/a	LEMON	Fruit	4	10	[0, 0, 0]	n/a	catFR1	0	R1475J
1361.748	1.601	1499892	WORD	n/a	wordpools/wordpool_categorized_EN.txt	TIGER	Zoo	5	10	[0, 0, 0]	n/a	catFR1	0	R1475J
1363.349	0.866	1501494	WORD_OFF	n/a	n/a	TIGER	Zoo	5	10	[0, 0, 0]	n/a	catFR1	0	R1475J
1364.215	1.6	1502351	WORD	n/a	wordpools/wordpool_categorized_EN.txt	GIRAFFE	Zoo	6	10	[0, 0, 0]	n/a	catFR1	0	R1475J
1365.815	0.901	1503953	WORD_OFF	n/a	n/a	GIRAFFE	Zoo	6	10	[0, 0, 0]	n/a	catFR1	0	R1475J
1366.716	1.616	1504862	WORD	n/a	wordpools/wordpool_categorized_EN.txt	GRAPE	Fruit	7	10	[0, 0, 0]	n/a	catFR1	0	R1475J
1368.332	0.833	1506474	WORD_OFF	n/a	n/a	GRAPE	Fruit	7	10	[0, 0, 0]	n/a	catFR1	0	R1475J
1369.165	1.616	1507311	WORD	n/a	wordpools/wordpool_categorized_EN.txt	APPLE	Fruit	8	10	[0, 0, 0]	n/a	catFR1	0	R1475J
1370.781	0.901	1508923	WORD_OFF	n/a	n/a	APPLE	Fruit	8	10	[0, 0, 0]	n/a	catFR1	0	R1475J
1371.682	1.616	1509822	WORD	n/a	wordpools/wordpool_categorized_EN.txt	LION	Zoo	9	10	[0, 0, 0]	n/a	catFR1	0	R1475J
1373.298	0.916	1511434	WORD_OFF	n/a	n/a	LION	Zoo	9	10	[0, 0, 0]	n/a	catFR1	0	R1475J
1374.214	1.6	1512354	WORD	n/a	wordpools/wordpool_categorized_EN.txt	MONKEY	Zoo	10	10	[0, 0, 0]	n/a	catFR1	0	R1475J
1375.814	0.817	1513956	WORD_OFF	n/a	n/a	MONKEY	Zoo	10	10	[0, 0, 0]	n/a	catFR1	0	R1475J
1376.631	1.6	1514772	WORD	n/a	wordpools/wordpool_categorized_EN.txt	EAR	BodyParts	11	10	[0, 0, 0]	n/a	catFR1	0	R1475J
1378.231	1.001	1516374	WORD_OFF	n/a	n/a	EAR	BodyParts	11	10	[0, 0, 0]	n/a	catFR1	0	R1475J
1379.232	1.616	1517376	WORD	n/a	wordpools/wordpool_categorized_EN.txt	LEG	BodyParts	12	10	[0, 0, 0]	n/a	catFR1	0	R1475J
1380.848	0.001	1518988	WORD_OFF	n/a	n/a	LEG	BodyParts	12	10	[0, 0, 0]	n/a	catFR1	0	R1475J
1380.849	0.0	1518988	ENCODING_END	n/a	n/a	n/a	n/a	-999	10	[0, 0, 0]	n/a	catFR1	0	R1475J
1380.849	0.0	1518988	DISTRACT_START	n/a	n/a	n/a	n/a	-999	10	[0, 0, 0]	n/a	catFR1	0	R1475J
1380.849	0.0	1518996	START	n/a	n/a	n/a	n/a	-999	10	[-999, -999, -999]	n/a	catFR1	0	R1475J
1380.849	15.05	1518996	PROB	15.05	n/a	n/a	n/a	-999	10	[5, 4, 3]	12	catFR1	0	R1475J
1395.899	10.15	1534045	PROB	10.15	n/a	n/a	n/a	-999	10	[6, 7, 4]	17	catFR1	0	R1475J
1406.049	0.0	1544191	DISTRACT_END	n/a	n/a	n/a	n/a	-999	10	[0, 0, 0]	n/a	catFR1	0	R1475J
1406.049	2.099	1544195	STOP	n/a	n/a	n/a	n/a	-999	10	[-999, -999, -999]	n/a	catFR1	0	R1475J
1408.148	2.125	1546286	REC_START	n/a	n/a	n/a	n/a	-999	10	[0, 0, 0]	n/a	catFR1	0	R1475J
1410.273	0.619	1548419	REC_WORD	0.619	n/a	LEG	BodyParts	12	10	[0, 0, 0]	n/a	catFR1	0	R1475J
1410.892	0.417	1549038	REC_WORD	0.417	n/a	FOOT	BodyParts	2	10	[0, 0, 0]	n/a	catFR1	0	R1475J
1411.309	13.822	1549455	REC_WORD	13.822	n/a	EAR	BodyParts	11	10	[0, 0, 0]	n/a	catFR1	0	R1475J
1425.131	13.243	1563276	REC_WORD	13.243	n/a	TIGER	Zoo	5	10	[0, 0, 0]	n/a	catFR1	0	R1475J
1438.374	2.141	1576514	REC_END	n/a	n/a	n/a	n/a	-999	10	[0, 0, 0]	n/a	catFR1	0	R1475J
1440.515	10.351	1578653	COUNTDOWN_START	n/a	n/a	n/a	n/a	-999	11	[0, 0, 0]	n/a	catFR1	0	R1475J
1450.866	0.0	1589007	COUNTDOWN_END	n/a	n/a	n/a	n/a	-999	11	[0, 0, 0]	n/a	catFR1	0	R1475J
1450.866	2.316	1589007	ENCODING_START	n/a	n/a	n/a	n/a	-999	11	[0, 0, 0]	n/a	catFR1	0	R1475J
1453.182	1.617	1591321	WORD	n/a	wordpools/wordpool_categorized_EN.txt	MOTH	Insects	1	11	[0, 0, 0]	n/a	catFR1	0	R1475J
1454.799	0.901	1592933	WORD_OFF	n/a	n/a	MOTH	Insects	1	11	[0, 0, 0]	n/a	catFR1	0	R1475J
1455.7	1.615	1593832	WORD	n/a	wordpools/wordpool_categorized_EN.txt	CRICKET	Insects	2	11	[0, 0, 0]	n/a	catFR1	0	R1475J
1457.315	0.833	1595455	WORD_OFF	n/a	n/a	CRICKET	Insects	2	11	[0, 0, 0]	n/a	catFR1	0	R1475J
1458.148	1.602	1596281	WORD	n/a	wordpools/wordpool_categorized_EN.txt	CHAIR	Furniture	3	11	[0, 0, 0]	n/a	catFR1	0	R1475J
1459.75	0.999	1597883	WORD_OFF	n/a	n/a	CHAIR	Furniture	3	11	[0, 0, 0]	n/a	catFR1	0	R1475J
1460.749	1.601	1598885	WORD	n/a	wordpools/wordpool_categorized_EN.txt	NIGHTSTAND	Furniture	4	11	[0, 0, 0]	n/a	catFR1	0	R1475J
1462.35	0.933	1600487	WORD_OFF	n/a	n/a	NIGHTSTAND	Furniture	4	11	[0, 0, 0]	n/a	catFR1	0	R1475J
1463.283	1.6	1601417	WORD	n/a	wordpools/wordpool_categorized_EN.txt	LIME	Fruit	5	11	[0, 0, 0]	n/a	catFR1	0	R1475J
1464.883	0.899	1603019	WORD_OFF	n/a	n/a	LIME	Fruit	5	11	[0, 0, 0]	n/a	catFR1	0	R1475J
1465.782	1.618	1603918	WORD	n/a	wordpools/wordpool_categorized_EN.txt	CHERRY	Fruit	6	11	[0, 0, 0]	n/a	catFR1	0	R1475J
1467.4	0.932	1605540	WORD_OFF	n/a	n/a	CHERRY	Fruit	6	11	[0, 0, 0]	n/a	catFR1	0	R1475J
1468.332	1.616	1606470	WORD	n/a	wordpools/wordpool_categorized_EN.txt	BEETLE	Insects	7	11	[0, 0, 0]	n/a	catFR1	0	R1475J
1469.948	1.001	1608082	WORD_OFF	n/a	n/a	BEETLE	Insects	7	11	[0, 0, 0]	n/a	catFR1	0	R1475J
1470.949	1.617	1609084	WORD	n/a	wordpools/wordpool_categorized_EN.txt	LADYBUG	Insects	8	11	[0, 0, 0]	n/a	catFR1	0	R1475J
1472.566	0.882	1610707	WORD_OFF	n/a	n/a	LADYBUG	Insects	8	11	[0, 0, 0]	n/a	catFR1	0	R1475J
1473.448	1.617	1611585	WORD	n/a	wordpools/wordpool_categorized_EN.txt	PLUM	Fruit	9	11	[0, 0, 0]	n/a	catFR1	0	R1475J
1475.065	0.968	1613207	WORD_OFF	n/a	n/a	PLUM	Fruit	9	11	[0, 0, 0]	n/a	catFR1	0	R1475J
1476.033	1.616	1614168	WORD	n/a	wordpools/wordpool_categorized_EN.txt	PEACH	Fruit	10	11	[0, 0, 0]	n/a	catFR1	0	R1475J
1477.649	0.933	1615781	WORD_OFF	n/a	n/a	PEACH	Fruit	10	11	[0, 0, 0]	n/a	catFR1	0	R1475J
1478.582	1.6	1616721	WORD	n/a	wordpools/wordpool_categorized_EN.txt	SHELF	Furniture	11	11	[0, 0, 0]	n/a	catFR1	0	R1475J
1480.182	0.95	1618322	WORD_OFF	n/a	n/a	SHELF	Furniture	11	11	[0, 0, 0]	n/a	catFR1	0	R1475J
1481.132	1.6	1619273	WORD	n/a	wordpools/wordpool_categorized_EN.txt	COUCH	Furniture	12	11	[0, 0, 0]	n/a	catFR1	0	R1475J
1482.732	0.002	1620875	WORD_OFF	n/a	n/a	COUCH	Furniture	12	11	[0, 0, 0]	n/a	catFR1	0	R1475J
1482.734	0.0	1620875	ENCODING_END	n/a	n/a	n/a	n/a	-999	11	[0, 0, 0]	n/a	catFR1	0	R1475J
1482.734	0.0	1620875	DISTRACT_START	n/a	n/a	n/a	n/a	-999	11	[0, 0, 0]	n/a	catFR1	0	R1475J
1482.732	0.002	1620875	PROB	0.002	n/a	n/a	n/a	-999	11	[6, 2, 5]	13	catFR1	0	R1475J
1482.734	8.348	1620877	START	n/a	n/a	n/a	n/a	-999	11	[-999, -999, -999]	n/a	catFR1	0	R1475J
1491.082	5.867	1629224	PROB	5.867	n/a	n/a	n/a	-999	11	[1, 5, 1]	7	catFR1	0	R1475J
1496.949	11.533	1635091	PROB	11.533	n/a	n/a	n/a	-999	11	[5, 3, 6]	14	catFR1	0	R1475J
1508.482	0.0	1646615	DISTRACT_END	n/a	n/a	n/a	n/a	-999	11	[0, 0, 0]	n/a	catFR1	0	R1475J
1508.482	2.016	1646624	STOP	n/a	n/a	n/a	n/a	-999	11	[-999, -999, -999]	n/a	catFR1	0	R1475J
1510.498	13.372	1648638	REC_START	n/a	n/a	n/a	n/a	-999	11	[0, 0, 0]	n/a	catFR1	0	R1475J
1523.87	16.84	1662011	REC_WORD	16.84	n/a	LADYBUG	Insects	8	11	[0, 0, 0]	n/a	catFR1	0	R1475J
1540.71	2.688	1678845	REC_END	n/a	n/a	n/a	n/a	-999	11	[0, 0, 0]	n/a	catFR1	0	R1475J
1543.398	10.35	1681531	COUNTDOWN_START	n/a	n/a	n/a	n/a	-999	12	[0, 0, 0]	n/a	catFR1	0	R1475J
1553.748	0.0	1691885	COUNTDOWN_END	n/a	n/a	n/a	n/a	-999	12	[0, 0, 0]	n/a	catFR1	0	R1475J
1553.748	2.152	1691885	ENCODING_START	n/a	n/a	n/a	n/a	-999	12	[0, 0, 0]	n/a	catFR1	0	R1475J
1555.9	1.615	1694035	WORD	n/a	wordpools/wordpool_categorized_EN.txt	BANANA	Fruit	1	12	[0, 0, 0]	n/a	catFR1	0	R1475J
1557.515	0.985	1695647	WORD_OFF	n/a	n/a	BANANA	Fruit	1	12	[0, 0, 0]	n/a	catFR1	0	R1475J
1558.5	1.615	1696628	WORD	n/a	wordpools/wordpool_categorized_EN.txt	STRAWBERRY	Fruit	2	12	[0, 0, 0]	n/a	catFR1	0	R1475J
1560.115	1.0	1698251	WORD_OFF	n/a	n/a	STRAWBERRY	Fruit	2	12	[0, 0, 0]	n/a	catFR1	0	R1475J
1561.115	1.6	1699253	WORD	n/a	wordpools/wordpool_categorized_EN.txt	GOOSE	Birds	3	12	[0, 0, 0]	n/a	catFR1	0	R1475J
1562.715	0.9	1700844	WORD_OFF	n/a	n/a	GOOSE	Birds	3	12	[0, 0, 0]	n/a	catFR1	0	R1475J
1563.615	1.601	1701743	WORD	n/a	wordpools/wordpool_categorized_EN.txt	SEAGULL	Birds	4	12	[0, 0, 0]	n/a	catFR1	0	R1475J
1565.216	0.832	1703345	WORD_OFF	n/a	n/a	SEAGULL	Birds	4	12	[0, 0, 0]	n/a	catFR1	0	R1475J
1566.048	1.616	1704182	WORD	n/a	wordpools/wordpool_categorized_EN.txt	VIOLIN	Instruments	5	12	[0, 0, 0]	n/a	catFR1	0	R1475J
1567.664	0.85	1705794	WORD_OFF	n/a	n/a	VIOLIN	Instruments	5	12	[0, 0, 0]	n/a	catFR1	0	R1475J
1568.514	1.602	1706652	WORD	n/a	wordpools/wordpool_categorized_EN.txt	FLUTE	Instruments	6	12	[0, 0, 0]	n/a	catFR1	0	R1475J
1570.116	0.933	1708253	WORD_OFF	n/a	n/a	FLUTE	Instruments	6	12	[0, 0, 0]	n/a	catFR1	0	R1475J
1571.049	1.6	1709183	WORD	n/a	wordpools/wordpool_categorized_EN.txt	BLUEBERRY	Fruit	7	12	[0, 0, 0]	n/a	catFR1	0	R1475J
1572.649	0.766	1710785	WORD_OFF	n/a	n/a	BLUEBERRY	Fruit	7	12	[0, 0, 0]	n/a	catFR1	0	R1475J
1573.415	1.601	1711550	WORD	n/a	wordpools/wordpool_categorized_EN.txt	ORANGE	Fruit	8	12	[0, 0, 0]	n/a	catFR1	0	R1475J
1575.016	0.899	1713151	WORD_OFF	n/a	n/a	ORANGE	Fruit	8	12	[0, 0, 0]	n/a	catFR1	0	R1475J
1575.915	1.6	1714050	WORD	n/a	wordpools/wordpool_categorized_EN.txt	BLUEBIRD	Birds	9	12	[0, 0, 0]	n/a	catFR1	0	R1475J
1577.515	0.85	1715652	WORD_OFF	n/a	n/a	BLUEBIRD	Birds	9	12	[0, 0, 0]	n/a	catFR1	0	R1475J
1578.365	1.617	1716499	WORD	n/a	wordpools/wordpool_categorized_EN.txt	HAWK	Birds	10	12	[0, 0, 0]	n/a	catFR1	0	R1475J
1579.982	0.817	1718111	WORD_OFF	n/a	n/a	HAWK	Birds	10	12	[0, 0, 0]	n/a	catFR1	0	R1475J
1580.799	1.615	1718928	WORD	n/a	wordpools/wordpool_categorized_EN.txt	CELLO	Instruments	11	12	[0, 0, 0]	n/a	catFR1	0	R1475J
1582.414	0.851	1720550	WORD_OFF	n/a	n/a	CELLO	Instruments	11	12	[0, 0, 0]	n/a	catFR1	0	R1475J
1583.265	1.6	1721397	WORD	n/a	wordpools/wordpool_categorized_EN.txt	TROMBONE	Instruments	12	12	[0, 0, 0]	n/a	catFR1	0	R1475J
1584.865	0.003	1722999	WORD_OFF	n/a	n/a	TROMBONE	Instruments	12	12	[0, 0, 0]	n/a	catFR1	0	R1475J
1584.868	0.0	1722999	ENCODING_END	n/a	n/a	n/a	n/a	-999	12	[0, 0, 0]	n/a	catFR1	0	R1475J
1584.868	0.0	1722999	DISTRACT_START	n/a	n/a	n/a	n/a	-999	12	[0, 0, 0]	n/a	catFR1	0	R1475J
1584.866	0.002	1723004	PROB	0.002	n/a	n/a	n/a	-999	12	[5, 4, 2]	11	catFR1	0	R1475J
1584.868	7.198	1723006	START	n/a	n/a	n/a	n/a	-999	12	[-999, -999, -999]	n/a	catFR1	0	R1475J
1592.066	8.05	1730204	PROB	8.05	n/a	n/a	n/a	-999	12	[1, 2, 6]	9	catFR1	0	R1475J
1600.116	8.032	1738254	PROB	8.032	n/a	n/a	n/a	-999	12	[4, 3, 8]	15	catFR1	0	R1475J
1608.148	0.0	1746280	DISTRACT_END	n/a	n/a	n/a	n/a	-999	12	[0, 0, 0]	n/a	catFR1	0	R1475J
1608.148	2.117	1746285	STOP	n/a	n/a	n/a	n/a	-999	12	[-999, -999, -999]	n/a	catFR1	0	R1475J
1610.265	4.388	1748396	REC_START	n/a	n/a	n/a	n/a	-999	12	[0, 0, 0]	n/a	catFR1	0	R1475J
1614.653	0.896	1752790	REC_WORD	0.896	n/a	STRAWBERRY	Fruit	2	12	[0, 0, 0]	n/a	catFR1	0	R1475J
1615.549	0.62	1753686	REC_WORD	0.62	n/a	BANANA	Fruit	1	12	[0, 0, 0]	n/a	catFR1	0	R1475J
1616.169	15.341	1754306	REC_WORD	15.341	n/a	BLUEBERRY	Fruit	7	12	[0, 0, 0]	n/a	catFR1	0	R1475J
1631.51	0.305	1769646	REC_WORD_VV	0.305	n/a	<>	n/a	-999	12	[0, 0, 0]	n/a	catFR1	0	R1475J
1631.815	8.676	1769951	REC_WORD	8.676	n/a	PEACH	Fruit	-999	12	[0, 0, 0]	n/a	catFR1	0	R1475J
1640.491	0.0	1778623	REC_END	n/a	n/a	n/a	n/a	-999	12	[0, 0, 0]	n/a	catFR1	0	R1475J
