onset	duration	sample	trial_type	response_time	stim_file	item_name	category	serialpos	list	test	answer	experiment	session	subject
0.0	1.967	2266	INSTRUCT_START	n/a	n/a	n/a	n/a	-999	-999	[0, 0, 0]	n/a	catFR1	6	R1541T
1.967	24.881	4231	INSTRUCT_END	n/a	n/a	n/a	n/a	-999	-999	[0, 0, 0]	n/a	catFR1	6	R1541T
26.848	10.35	29113	COUNTDOWN_START	n/a	n/a	n/a	n/a	-999	-999	[0, 0, 0]	n/a	catFR1	6	R1541T
37.198	0.001	39461	COUNTDOWN_END	n/a	n/a	n/a	n/a	-999	-999	[0, 0, 0]	n/a	catFR1	6	R1541T
37.199	2.217	39461	ENCODING_START	n/a	n/a	n/a	n/a	-999	-1	[0, 0, 0]	n/a	catFR1	6	R1541T
39.416	1.599	41673	WORD	n/a	n/a	SHRIMP	OceanAnimals	1	-1	[0, 0, 0]	n/a	catFR1	6	R1541T
41.015	0.8	43274	WORD_OFF	n/a	n/a	SHRIMP	OceanAnimals	1	-1	[0, 0, 0]	n/a	catFR1	6	R1541T
41.815	1.6	44075	WORD	n/a	n/a	WHALE	OceanAnimals	2	-1	[0, 0, 0]	n/a	catFR1	6	R1541T
43.415	0.901	45677	WORD_OFF	n/a	n/a	WHALE	OceanAnimals	2	-1	[0, 0, 0]	n/a	catFR1	6	R1541T
44.316	1.616	46578	WORD	n/a	n/a	CUPCAKE	Desserts	3	-1	[0, 0, 0]	n/a	catFR1	6	R1541T
45.932	0.95	48198	WORD_OFF	n/a	n/a	CUPCAKE	Desserts	3	-1	[0, 0, 0]	n/a	catFR1	6	R1541T
46.882	1.6	49144	WORD	n/a	n/a	JELLO	Desserts	4	-1	[0, 0, 0]	n/a	catFR1	6	R1541T
48.482	0.999	50746	WORD_OFF	n/a	n/a	JELLO	Desserts	4	-1	[0, 0, 0]	n/a	catFR1	6	R1541T
49.481	1.601	51747	WORD	n/a	n/a	CLOUD	Weather	5	-1	[0, 0, 0]	n/a	catFR1	6	R1541T
51.082	0.933	53340	WORD_OFF	n/a	n/a	CLOUD	Weather	5	-1	[0, 0, 0]	n/a	catFR1	6	R1541T
52.015	1.616	54277	WORD	n/a	n/a	DRIZZLE	Weather	6	-1	[0, 0, 0]	n/a	catFR1	6	R1541T
53.631	1.001	55888	WORD_OFF	n/a	n/a	DRIZZLE	Weather	6	-1	[0, 0, 0]	n/a	catFR1	6	R1541T
54.632	1.6	56889	WORD	n/a	n/a	CAKE	Desserts	7	-1	[0, 0, 0]	n/a	catFR1	6	R1541T
56.232	0.916	58491	WORD_OFF	n/a	n/a	CAKE	Desserts	7	-1	[0, 0, 0]	n/a	catFR1	6	R1541T
57.148	1.617	59410	WORD	n/a	n/a	PUDDING	Desserts	8	-1	[0, 0, 0]	n/a	catFR1	6	R1541T
58.765	0.766	61030	WORD_OFF	n/a	n/a	PUDDING	Desserts	8	-1	[0, 0, 0]	n/a	catFR1	6	R1541T
59.531	1.6	61795	WORD	n/a	n/a	HUMIDITY	Weather	9	-1	[0, 0, 0]	n/a	catFR1	6	R1541T
61.131	0.933	63387	WORD_OFF	n/a	n/a	HUMIDITY	Weather	9	-1	[0, 0, 0]	n/a	catFR1	6	R1541T
62.064	1.601	64325	WORD	n/a	n/a	HURRICANE	Weather	10	-1	[0, 0, 0]	n/a	catFR1	6	R1541T
63.665	0.883	65927	WORD_OFF	n/a	n/a	HURRICANE	Weather	10	-1	[0, 0, 0]	n/a	catFR1	6	R1541T
64.548	1.6	66809	WORD	n/a	n/a	TURTLE	OceanAnimals	11	-1	[0, 0, 0]	n/a	catFR1	6	R1541T
66.148	0.916	68411	WORD_OFF	n/a	n/a	TURTLE	OceanAnimals	11	-1	[0, 0, 0]	n/a	catFR1	6	R1541T
67.064	1.601	69321	WORD	n/a	n/a	SQUID	OceanAnimals	12	-1	[0, 0, 0]	n/a	catFR1	6	R1541T
68.665	0.001	70923	WORD_OFF	n/a	n/a	SQUID	OceanAnimals	12	-1	[0, 0, 0]	n/a	catFR1	6	R1541T
68.666	0.0	70927	START	n/a	n/a	n/a	n/a	-999	-1	[-999, -999, -999]	n/a	catFR1	6	R1541T
68.666	0.0	70927	PROB	0.0	n/a	n/a	n/a	-999	-1	[3, 6, 8]	17	catFR1	6	R1541T
68.666	0.0	70932	ENCODING_END	n/a	n/a	n/a	n/a	-999	-1	[0, 0, 0]	n/a	catFR1	6	R1541T
68.666	3.133	70932	DISTRACT_START	n/a	n/a	n/a	n/a	-999	-1	[0, 0, 0]	n/a	catFR1	6	R1541T
71.799	2.366	74060	PROB	2.366	n/a	n/a	n/a	-999	-1	[3, 3, 2]	8	catFR1	6	R1541T
74.165	2.284	76426	PROB	2.284	n/a	n/a	n/a	-999	-1	[6, 1, 3]	10	catFR1	6	R1541T
76.449	2.683	78710	PROB	2.683	n/a	n/a	n/a	-999	-1	[6, 3, 8]	17	catFR1	6	R1541T
79.132	2.317	81393	PROB	2.317	n/a	n/a	n/a	-999	-1	[4, 7, 2]	13	catFR1	6	R1541T
81.449	2.365	83710	PROB	2.365	n/a	n/a	n/a	-999	-1	[2, 5, 2]	9	catFR1	6	R1541T
83.814	2.201	86075	PROB	2.201	n/a	n/a	n/a	-999	-1	[8, 8, 8]	24	catFR1	6	R1541T
86.015	2.633	88276	PROB	2.633	n/a	n/a	n/a	-999	-1	[2, 4, 8]	14	catFR1	6	R1541T
88.648	2.383	90908	PROB	2.383	n/a	n/a	n/a	-999	-1	[4, 5, 1]	10	catFR1	6	R1541T
91.031	0.0	93291	STOP	n/a	n/a	n/a	n/a	-999	-1	[-999, -999, -999]	n/a	catFR1	6	R1541T
91.031	1.649	93293	DISTRACT_END	n/a	n/a	n/a	n/a	-999	-1	[0, 0, 0]	n/a	catFR1	6	R1541T
92.68	2.383	94940	REC_START	n/a	n/a	n/a	n/a	-999	-1	[0, 0, 0]	n/a	catFR1	6	R1541T
95.063	0.746	97323	REC_WORD	0.746	n/a	SHRIMP	OceanAnimals	1	-1	[0, 0, 0]	n/a	catFR1	6	R1541T
95.809	0.67	98069	REC_WORD	0.67	n/a	WHALE	OceanAnimals	2	-1	[0, 0, 0]	n/a	catFR1	6	R1541T
96.479	0.631	98739	REC_WORD	0.631	n/a	TURTLE	OceanAnimals	11	-1	[0, 0, 0]	n/a	catFR1	6	R1541T
97.11	1.243	99370	REC_WORD	1.243	n/a	SQUID	OceanAnimals	12	-1	[0, 0, 0]	n/a	catFR1	6	R1541T
98.353	1.014	100613	REC_WORD	1.014	n/a	CUPCAKE	Desserts	3	-1	[0, 0, 0]	n/a	catFR1	6	R1541T
99.367	0.896	101627	REC_WORD	0.896	n/a	CAKE	Desserts	7	-1	[0, 0, 0]	n/a	catFR1	6	R1541T
100.263	0.782	102523	REC_WORD	0.782	n/a	JELLO	Desserts	4	-1	[0, 0, 0]	n/a	catFR1	6	R1541T
101.045	21.842	103305	REC_WORD	21.842	n/a	PUDDING	Desserts	8	-1	[0, 0, 0]	n/a	catFR1	6	R1541T
122.887	20.825	125146	REC_END	n/a	n/a	n/a	n/a	-999	-1	[0, 0, 0]	n/a	catFR1	6	R1541T
143.712	10.35	145969	COUNTDOWN_START	n/a	n/a	n/a	n/a	-999	1	[0, 0, 0]	n/a	catFR1	6	R1541T
154.062	0.001	156317	COUNTDOWN_END	n/a	n/a	n/a	n/a	-999	1	[0, 0, 0]	n/a	catFR1	6	R1541T
154.063	2.132	156326	ENCODING_START	n/a	n/a	n/a	n/a	-999	1	[0, 0, 0]	n/a	catFR1	6	R1541T
156.195	1.601	158456	WORD	n/a	wordpools/wordpool_categorized_EN.txt	CHAIR	Furniture	1	1	[0, 0, 0]	n/a	catFR1	6	R1541T
157.796	0.883	160057	WORD_OFF	n/a	n/a	CHAIR	Furniture	1	1	[0, 0, 0]	n/a	catFR1	6	R1541T
158.679	1.617	160940	WORD	n/a	wordpools/wordpool_categorized_EN.txt	NIGHTSTAND	Furniture	2	1	[0, 0, 0]	n/a	catFR1	6	R1541T
160.296	0.817	162551	WORD_OFF	n/a	n/a	NIGHTSTAND	Furniture	2	1	[0, 0, 0]	n/a	catFR1	6	R1541T
161.113	1.615	163370	WORD	n/a	wordpools/wordpool_categorized_EN.txt	TURKEY	FarmAnimals	3	1	[0, 0, 0]	n/a	catFR1	6	R1541T
162.728	0.784	164990	WORD_OFF	n/a	n/a	TURKEY	FarmAnimals	3	1	[0, 0, 0]	n/a	catFR1	6	R1541T
163.512	1.601	165773	WORD	n/a	wordpools/wordpool_categorized_EN.txt	LAMB	FarmAnimals	4	1	[0, 0, 0]	n/a	catFR1	6	R1541T
165.113	0.949	167374	WORD_OFF	n/a	n/a	LAMB	FarmAnimals	4	1	[0, 0, 0]	n/a	catFR1	6	R1541T
166.062	1.617	168321	WORD	n/a	wordpools/wordpool_categorized_EN.txt	SLINKY	Toys	5	1	[0, 0, 0]	n/a	catFR1	6	R1541T
167.679	0.917	169941	WORD_OFF	n/a	n/a	SLINKY	Toys	5	1	[0, 0, 0]	n/a	catFR1	6	R1541T
168.596	1.616	170851	WORD	n/a	wordpools/wordpool_categorized_EN.txt	BALL	Toys	6	1	[0, 0, 0]	n/a	catFR1	6	R1541T
170.212	0.867	172471	WORD_OFF	n/a	n/a	BALL	Toys	6	1	[0, 0, 0]	n/a	catFR1	6	R1541T
171.079	1.616	173336	WORD	n/a	wordpools/wordpool_categorized_EN.txt	BED	Furniture	7	1	[0, 0, 0]	n/a	catFR1	6	R1541T
172.695	0.967	174955	WORD_OFF	n/a	n/a	BED	Furniture	7	1	[0, 0, 0]	n/a	catFR1	6	R1541T
173.662	1.617	175920	WORD	n/a	wordpools/wordpool_categorized_EN.txt	BOOKCASE	Furniture	8	1	[0, 0, 0]	n/a	catFR1	6	R1541T
175.279	0.817	177540	WORD_OFF	n/a	n/a	BOOKCASE	Furniture	8	1	[0, 0, 0]	n/a	catFR1	6	R1541T
176.096	1.616	178350	WORD	n/a	wordpools/wordpool_categorized_EN.txt	FOOTBALL	Toys	9	1	[0, 0, 0]	n/a	catFR1	6	R1541T
177.712	0.783	179970	WORD_OFF	n/a	n/a	FOOTBALL	Toys	9	1	[0, 0, 0]	n/a	catFR1	6	R1541T
178.495	1.6	180753	WORD	n/a	wordpools/wordpool_categorized_EN.txt	BARBIE	Toys	10	1	[0, 0, 0]	n/a	catFR1	6	R1541T
180.095	0.901	182354	WORD_OFF	n/a	n/a	BARBIE	Toys	10	1	[0, 0, 0]	n/a	catFR1	6	R1541T
180.996	1.615	183255	WORD	n/a	wordpools/wordpool_categorized_EN.txt	BULL	FarmAnimals	11	1	[0, 0, 0]	n/a	catFR1	6	R1541T
182.611	0.901	184866	WORD_OFF	n/a	n/a	BULL	FarmAnimals	11	1	[0, 0, 0]	n/a	catFR1	6	R1541T
183.512	1.616	185767	WORD	n/a	wordpools/wordpool_categorized_EN.txt	ROOSTER	FarmAnimals	12	1	[0, 0, 0]	n/a	catFR1	6	R1541T
185.128	0.001	187387	WORD_OFF	n/a	n/a	ROOSTER	FarmAnimals	12	1	[0, 0, 0]	n/a	catFR1	6	R1541T
185.129	0.0	187387	ENCODING_END	n/a	n/a	n/a	n/a	-999	1	[0, 0, 0]	n/a	catFR1	6	R1541T
185.129	0.0	187387	DISTRACT_START	n/a	n/a	n/a	n/a	-999	1	[0, 0, 0]	n/a	catFR1	6	R1541T
185.129	0.0	187387	START	n/a	n/a	n/a	n/a	-999	1	[-999, -999, -999]	n/a	catFR1	6	R1541T
185.129	5.849	187387	PROB	5.849	n/a	n/a	n/a	-999	1	[5, 2, 7]	14	catFR1	6	R1541T
190.978	1.968	193236	PROB	1.968	n/a	n/a	n/a	-999	1	[3, 3, 1]	7	catFR1	6	R1541T
192.946	2.183	195204	PROB	2.183	n/a	n/a	n/a	-999	1	[7, 4, 5]	16	catFR1	6	R1541T
195.129	2.049	197386	PROB	2.049	n/a	n/a	n/a	-999	1	[8, 7, 8]	23	catFR1	6	R1541T
197.178	2.151	199435	PROB	2.151	n/a	n/a	n/a	-999	1	[5, 1, 7]	13	catFR1	6	R1541T
199.329	2.266	201586	PROB	2.266	n/a	n/a	n/a	-999	1	[8, 2, 3]	13	catFR1	6	R1541T
201.595	3.317	203852	PROB	3.317	n/a	n/a	n/a	-999	1	[5, 4, 6]	15	catFR1	6	R1541T
204.912	2.281	207169	PROB	2.281	n/a	n/a	n/a	-999	1	[5, 2, 8]	15	catFR1	6	R1541T
207.193	0.0	209448	DISTRACT_END	n/a	n/a	n/a	n/a	-999	1	[0, 0, 0]	n/a	catFR1	6	R1541T
207.193	1.834	209450	STOP	n/a	n/a	n/a	n/a	-999	1	[-999, -999, -999]	n/a	catFR1	6	R1541T
209.027	1.71	211286	REC_START	n/a	n/a	n/a	n/a	-999	1	[0, 0, 0]	n/a	catFR1	6	R1541T
210.737	0.909	212994	REC_WORD	0.909	n/a	BULL	FarmAnimals	11	1	[0, 0, 0]	n/a	catFR1	6	R1541T
211.646	1.0	213903	REC_WORD	1.0	n/a	ROOSTER	FarmAnimals	12	1	[0, 0, 0]	n/a	catFR1	6	R1541T
212.646	0.212	214903	REC_WORD_VV	0.212	n/a	<>	n/a	-999	1	[0, 0, 0]	n/a	catFR1	6	R1541T
212.858	1.031	215115	REC_WORD	1.031	n/a	LAMB	FarmAnimals	4	1	[0, 0, 0]	n/a	catFR1	6	R1541T
213.889	2.659	216146	REC_WORD	2.659	n/a	TURKEY	FarmAnimals	3	1	[0, 0, 0]	n/a	catFR1	6	R1541T
216.548	1.102	218805	REC_WORD	1.102	n/a	BALL	Toys	6	1	[0, 0, 0]	n/a	catFR1	6	R1541T
217.65	2.903	219907	REC_WORD	2.903	n/a	FOOTBALL	Toys	9	1	[0, 0, 0]	n/a	catFR1	6	R1541T
220.553	9.227	222810	REC_WORD	9.227	n/a	BARBIE	Toys	10	1	[0, 0, 0]	n/a	catFR1	6	R1541T
229.78	0.785	232036	REC_WORD	0.785	n/a	CHAIR	Furniture	1	1	[0, 0, 0]	n/a	catFR1	6	R1541T
230.565	0.754	232821	REC_WORD	0.754	n/a	NIGHTSTAND	Furniture	2	1	[0, 0, 0]	n/a	catFR1	6	R1541T
231.319	7.895	233575	REC_WORD	7.895	n/a	DRESSER	n/a	-999	1	[0, 0, 0]	n/a	catFR1	6	R1541T
239.214	1.613	241474	REC_END	n/a	n/a	n/a	n/a	-999	1	[0, 0, 0]	n/a	catFR1	6	R1541T
240.827	10.35	243085	COUNTDOWN_START	n/a	n/a	n/a	n/a	-999	1	[0, 0, 0]	n/a	catFR1	6	R1541T
251.177	0.0	253433	COUNTDOWN_END	n/a	n/a	n/a	n/a	-999	1	[0, 0, 0]	n/a	catFR1	6	R1541T
251.177	1.964	253433	ENCODING_START	n/a	n/a	n/a	n/a	-999	2	[0, 0, 0]	n/a	catFR1	6	R1541T
253.141	1.602	255398	WORD	n/a	wordpools/wordpool_categorized_EN.txt	HEN	FarmAnimals	1	2	[0, 0, 0]	n/a	catFR1	6	R1541T
254.743	0.85	257000	WORD_OFF	n/a	n/a	HEN	FarmAnimals	1	2	[0, 0, 0]	n/a	catFR1	6	R1541T
255.593	1.6	257847	WORD	n/a	wordpools/wordpool_categorized_EN.txt	SHEEP	FarmAnimals	2	2	[0, 0, 0]	n/a	catFR1	6	R1541T
257.193	1.0	259448	WORD_OFF	n/a	n/a	SHEEP	FarmAnimals	2	2	[0, 0, 0]	n/a	catFR1	6	R1541T
258.193	1.6	260449	WORD	n/a	wordpools/wordpool_categorized_EN.txt	ORANGE	Fruit	3	2	[0, 0, 0]	n/a	catFR1	6	R1541T
259.793	0.767	262051	WORD_OFF	n/a	n/a	ORANGE	Fruit	3	2	[0, 0, 0]	n/a	catFR1	6	R1541T
260.56	1.617	262816	WORD	n/a	wordpools/wordpool_categorized_EN.txt	CHERRY	Fruit	4	2	[0, 0, 0]	n/a	catFR1	6	R1541T
262.177	0.8	264436	WORD_OFF	n/a	n/a	CHERRY	Fruit	4	2	[0, 0, 0]	n/a	catFR1	6	R1541T
262.977	1.6	265227	WORD	n/a	wordpools/wordpool_categorized_EN.txt	TRAIN	Vehicles	5	2	[0, 0, 0]	n/a	catFR1	6	R1541T
264.577	0.799	266829	WORD_OFF	n/a	n/a	TRAIN	Vehicles	5	2	[0, 0, 0]	n/a	catFR1	6	R1541T
265.376	1.601	267630	WORD	n/a	wordpools/wordpool_categorized_EN.txt	BOAT	Vehicles	6	2	[0, 0, 0]	n/a	catFR1	6	R1541T
266.977	0.865	269232	WORD_OFF	n/a	n/a	BOAT	Vehicles	6	2	[0, 0, 0]	n/a	catFR1	6	R1541T
267.842	1.6	270096	WORD	n/a	wordpools/wordpool_categorized_EN.txt	CHICKEN	FarmAnimals	7	2	[0, 0, 0]	n/a	catFR1	6	R1541T
269.442	0.834	271698	WORD_OFF	n/a	n/a	CHICKEN	FarmAnimals	7	2	[0, 0, 0]	n/a	catFR1	6	R1541T
270.276	1.601	272535	WORD	n/a	wordpools/wordpool_categorized_EN.txt	GOAT	FarmAnimals	8	2	[0, 0, 0]	n/a	catFR1	6	R1541T
271.877	0.9	274128	WORD_OFF	n/a	n/a	GOAT	FarmAnimals	8	2	[0, 0, 0]	n/a	catFR1	6	R1541T
272.777	1.614	275029	WORD	n/a	wordpools/wordpool_categorized_EN.txt	APPLE	Fruit	9	2	[0, 0, 0]	n/a	catFR1	6	R1541T
274.391	0.968	276649	WORD_OFF	n/a	n/a	APPLE	Fruit	9	2	[0, 0, 0]	n/a	catFR1	6	R1541T
275.359	1.616	277614	WORD	n/a	wordpools/wordpool_categorized_EN.txt	PLUM	Fruit	10	2	[0, 0, 0]	n/a	catFR1	6	R1541T
276.975	0.801	279234	WORD_OFF	n/a	n/a	PLUM	Fruit	10	2	[0, 0, 0]	n/a	catFR1	6	R1541T
277.776	1.616	280035	WORD	n/a	wordpools/wordpool_categorized_EN.txt	VAN	Vehicles	11	2	[0, 0, 0]	n/a	catFR1	6	R1541T
279.392	0.917	281645	WORD_OFF	n/a	n/a	VAN	Vehicles	11	2	[0, 0, 0]	n/a	catFR1	6	R1541T
280.309	1.601	282565	WORD	n/a	wordpools/wordpool_categorized_EN.txt	JEEP	Vehicles	12	2	[0, 0, 0]	n/a	catFR1	6	R1541T
281.91	0.0	284165	PROB	0.0	n/a	n/a	n/a	-999	2	[8, 8, 7]	23	catFR1	6	R1541T
281.909	0.002	284166	WORD_OFF	n/a	n/a	JEEP	Vehicles	12	2	[0, 0, 0]	n/a	catFR1	6	R1541T
281.911	0.0	284166	ENCODING_END	n/a	n/a	n/a	n/a	-999	2	[0, 0, 0]	n/a	catFR1	6	R1541T
281.911	0.0	284166	DISTRACT_START	n/a	n/a	n/a	n/a	-999	2	[0, 0, 0]	n/a	catFR1	6	R1541T
281.911	3.165	284166	START	n/a	n/a	n/a	n/a	-999	2	[-999, -999, -999]	n/a	catFR1	6	R1541T
285.076	2.201	287331	PROB	2.201	n/a	n/a	n/a	-999	2	[6, 5, 2]	9	catFR1	6	R1541T
287.277	2.299	289532	PROB	2.299	n/a	n/a	n/a	-999	2	[5, 7, 1]	13	catFR1	6	R1541T
289.576	2.1	291831	PROB	2.1	n/a	n/a	n/a	-999	2	[1, 3, 6]	10	catFR1	6	R1541T
291.676	2.149	293931	PROB	2.149	n/a	n/a	n/a	-999	2	[4, 2, 6]	12	catFR1	6	R1541T
293.825	2.053	296080	PROB	2.053	n/a	n/a	n/a	-999	2	[3, 6, 1]	10	catFR1	6	R1541T
295.878	2.347	298133	PROB	2.347	n/a	n/a	n/a	-999	2	[2, 5, 3]	10	catFR1	6	R1541T
298.225	2.068	300480	PROB	2.068	n/a	n/a	n/a	-999	2	[1, 6, 4]	11	catFR1	6	R1541T
300.293	2.382	302547	PROB	2.382	n/a	n/a	n/a	-999	2	[6, 3, 5]	14	catFR1	6	R1541T
302.675	0.0	304926	DISTRACT_END	n/a	n/a	n/a	n/a	-999	2	[0, 0, 0]	n/a	catFR1	6	R1541T
302.675	1.784	304929	STOP	n/a	n/a	n/a	n/a	-999	2	[-999, -999, -999]	n/a	catFR1	6	R1541T
304.459	0.854	306709	REC_START	n/a	n/a	n/a	n/a	-999	2	[0, 0, 0]	n/a	catFR1	6	R1541T
305.313	1.018	307567	REC_WORD	1.018	n/a	HEN	FarmAnimals	1	2	[0, 0, 0]	n/a	catFR1	6	R1541T
306.331	1.498	308585	REC_WORD	1.498	n/a	CHICKEN	FarmAnimals	7	2	[0, 0, 0]	n/a	catFR1	6	R1541T
307.829	6.64	310083	REC_WORD	6.64	n/a	ROOSTER	FarmAnimals	-999	2	[0, 0, 0]	n/a	catFR1	6	R1541T
314.469	1.343	316723	REC_WORD	1.343	n/a	CHERRY	Fruit	4	2	[0, 0, 0]	n/a	catFR1	6	R1541T
315.812	7.029	318066	REC_WORD	7.029	n/a	PLUM	Fruit	10	2	[0, 0, 0]	n/a	catFR1	6	R1541T
322.841	11.819	325095	REC_WORD	11.819	n/a	APPLE	Fruit	9	2	[0, 0, 0]	n/a	catFR1	6	R1541T
334.66	2.265	336915	REC_END	n/a	n/a	n/a	n/a	-999	2	[0, 0, 0]	n/a	catFR1	6	R1541T
336.925	10.35	339181	COUNTDOWN_START	n/a	n/a	n/a	n/a	-999	2	[0, 0, 0]	n/a	catFR1	6	R1541T
347.275	0.0	349529	COUNTDOWN_END	n/a	n/a	n/a	n/a	-999	2	[0, 0, 0]	n/a	catFR1	6	R1541T
347.275	2.283	349529	ENCODING_START	n/a	n/a	n/a	n/a	-999	3	[0, 0, 0]	n/a	catFR1	6	R1541T
349.558	1.617	351813	WORD	n/a	wordpools/wordpool_categorized_EN.txt	BEACH	Landscapes	1	3	[0, 0, 0]	n/a	catFR1	6	R1541T
351.175	0.766	353424	WORD_OFF	n/a	n/a	BEACH	Landscapes	1	3	[0, 0, 0]	n/a	catFR1	6	R1541T
351.941	1.617	354191	WORD	n/a	wordpools/wordpool_categorized_EN.txt	STREAM	Landscapes	2	3	[0, 0, 0]	n/a	catFR1	6	R1541T
353.558	0.817	355809	WORD_OFF	n/a	n/a	STREAM	Landscapes	2	3	[0, 0, 0]	n/a	catFR1	6	R1541T
354.375	1.616	356628	WORD	n/a	wordpools/wordpool_categorized_EN.txt	CYPRESS	Trees	3	3	[0, 0, 0]	n/a	catFR1	6	R1541T
355.991	1.0	358248	WORD_OFF	n/a	n/a	CYPRESS	Trees	3	3	[0, 0, 0]	n/a	catFR1	6	R1541T
356.991	1.616	359240	WORD	n/a	wordpools/wordpool_categorized_EN.txt	ELM	Trees	4	3	[0, 0, 0]	n/a	catFR1	6	R1541T
358.607	0.968	360860	WORD_OFF	n/a	n/a	ELM	Trees	4	3	[0, 0, 0]	n/a	catFR1	6	R1541T
359.575	1.615	361824	WORD	n/a	wordpools/wordpool_categorized_EN.txt	WINE	Beverages	5	3	[0, 0, 0]	n/a	catFR1	6	R1541T
361.19	0.834	363444	WORD_OFF	n/a	n/a	WINE	Beverages	5	3	[0, 0, 0]	n/a	catFR1	6	R1541T
362.024	1.616	364273	WORD	n/a	wordpools/wordpool_categorized_EN.txt	WATER	Beverages	6	3	[0, 0, 0]	n/a	catFR1	6	R1541T
363.64	0.85	365893	WORD_OFF	n/a	n/a	WATER	Beverages	6	3	[0, 0, 0]	n/a	catFR1	6	R1541T
364.49	1.601	366739	WORD	n/a	wordpools/wordpool_categorized_EN.txt	MAPLE	Trees	7	3	[0, 0, 0]	n/a	catFR1	6	R1541T
366.091	0.9	368341	WORD_OFF	n/a	n/a	MAPLE	Trees	7	3	[0, 0, 0]	n/a	catFR1	6	R1541T
366.991	1.615	369242	WORD	n/a	wordpools/wordpool_categorized_EN.txt	EVERGREEN	Trees	8	3	[0, 0, 0]	n/a	catFR1	6	R1541T
368.606	0.984	370862	WORD_OFF	n/a	n/a	EVERGREEN	Trees	8	3	[0, 0, 0]	n/a	catFR1	6	R1541T
369.59	1.617	371845	WORD	n/a	wordpools/wordpool_categorized_EN.txt	TEA	Beverages	9	3	[0, 0, 0]	n/a	catFR1	6	R1541T
371.207	0.95	373455	WORD_OFF	n/a	n/a	TEA	Beverages	9	3	[0, 0, 0]	n/a	catFR1	6	R1541T
372.157	1.616	374411	WORD	n/a	wordpools/wordpool_categorized_EN.txt	BEER	Beverages	10	3	[0, 0, 0]	n/a	catFR1	6	R1541T
373.773	0.884	376022	WORD_OFF	n/a	n/a	BEER	Beverages	10	3	[0, 0, 0]	n/a	catFR1	6	R1541T
374.657	1.6	376905	WORD	n/a	wordpools/wordpool_categorized_EN.txt	FOREST	Landscapes	11	3	[0, 0, 0]	n/a	catFR1	6	R1541T
376.257	0.767	378506	WORD_OFF	n/a	n/a	FOREST	Landscapes	11	3	[0, 0, 0]	n/a	catFR1	6	R1541T
377.024	1.616	379280	WORD	n/a	wordpools/wordpool_categorized_EN.txt	VALLEY	Landscapes	12	3	[0, 0, 0]	n/a	catFR1	6	R1541T
378.64	0.001	380891	WORD_OFF	n/a	n/a	VALLEY	Landscapes	12	3	[0, 0, 0]	n/a	catFR1	6	R1541T
378.641	0.0	380891	ENCODING_END	n/a	n/a	n/a	n/a	-999	3	[0, 0, 0]	n/a	catFR1	6	R1541T
378.641	0.0	380893	START	n/a	n/a	n/a	n/a	-999	3	[-999, -999, -999]	n/a	catFR1	6	R1541T
378.641	0.0	380893	PROB	0.0	n/a	n/a	n/a	-999	3	[2, 6, 7]	15	catFR1	6	R1541T
378.641	2.932	380900	DISTRACT_START	n/a	n/a	n/a	n/a	-999	3	[0, 0, 0]	n/a	catFR1	6	R1541T
381.573	2.102	383825	PROB	2.102	n/a	n/a	n/a	-999	3	[5, 5, 8]	18	catFR1	6	R1541T
383.675	2.082	385927	PROB	2.082	n/a	n/a	n/a	-999	3	[6, 5, 8]	19	catFR1	6	R1541T
385.757	2.101	388009	PROB	2.101	n/a	n/a	n/a	-999	3	[3, 4, 3]	10	catFR1	6	R1541T
387.858	2.116	390110	PROB	2.116	n/a	n/a	n/a	-999	3	[7, 4, 3]	14	catFR1	6	R1541T
389.974	2.232	392226	PROB	2.232	n/a	n/a	n/a	-999	3	[8, 8, 7]	23	catFR1	6	R1541T
392.206	2.769	394458	PROB	2.769	n/a	n/a	n/a	-999	3	[8, 8, 6]	22	catFR1	6	R1541T
394.975	2.449	397227	PROB	2.449	n/a	n/a	n/a	-999	3	[4, 5, 8]	17	catFR1	6	R1541T
397.424	2.382	399676	PROB	2.382	n/a	n/a	n/a	-999	3	[1, 1, 8]	10	catFR1	6	R1541T
399.806	0.0	402058	STOP	n/a	n/a	n/a	n/a	-999	3	[-999, -999, -999]	n/a	catFR1	6	R1541T
399.806	1.884	402060	DISTRACT_END	n/a	n/a	n/a	n/a	-999	3	[0, 0, 0]	n/a	catFR1	6	R1541T
401.69	2.683	403944	REC_START	n/a	n/a	n/a	n/a	-999	3	[0, 0, 0]	n/a	catFR1	6	R1541T
404.373	0.612	406625	REC_WORD	0.612	n/a	BEER	Beverages	10	3	[0, 0, 0]	n/a	catFR1	6	R1541T
404.985	0.948	407237	REC_WORD	0.948	n/a	WINE	Beverages	5	3	[0, 0, 0]	n/a	catFR1	6	R1541T
405.933	3.252	408185	REC_WORD	3.252	n/a	WATER	Beverages	6	3	[0, 0, 0]	n/a	catFR1	6	R1541T
409.185	1.235	411436	REC_WORD	1.235	n/a	RUM	n/a	-999	3	[0, 0, 0]	n/a	catFR1	6	R1541T
410.42	0.77	412671	REC_WORD	0.77	n/a	MAPLE	Trees	7	3	[0, 0, 0]	n/a	catFR1	6	R1541T
411.19	1.0	413441	REC_WORD	1.0	n/a	CYPRESS	Trees	3	3	[0, 0, 0]	n/a	catFR1	6	R1541T
412.19	2.531	414441	REC_WORD_VV	2.531	n/a	<>	n/a	-999	3	[0, 0, 0]	n/a	catFR1	6	R1541T
414.721	0.89	416972	REC_WORD	0.89	n/a	FOREST	Landscapes	11	3	[0, 0, 0]	n/a	catFR1	6	R1541T
415.611	1.0	417862	REC_WORD	1.0	n/a	EVERGREEN	Trees	8	3	[0, 0, 0]	n/a	catFR1	6	R1541T
416.611	15.306	418862	REC_WORD_VV	15.306	n/a	<>	n/a	-999	3	[0, 0, 0]	n/a	catFR1	6	R1541T
431.917	2.322	434168	REC_END	n/a	n/a	n/a	n/a	-999	3	[0, 0, 0]	n/a	catFR1	6	R1541T
434.239	10.35	436488	COUNTDOWN_START	n/a	n/a	n/a	n/a	-999	3	[0, 0, 0]	n/a	catFR1	6	R1541T
444.589	0.0	446836	COUNTDOWN_END	n/a	n/a	n/a	n/a	-999	3	[0, 0, 0]	n/a	catFR1	6	R1541T
444.589	2.0	446836	ENCODING_START	n/a	n/a	n/a	n/a	-999	4	[0, 0, 0]	n/a	catFR1	6	R1541T
446.589	1.616	448838	WORD	n/a	wordpools/wordpool_categorized_EN.txt	ANT	Insects	1	4	[0, 0, 0]	n/a	catFR1	6	R1541T
448.205	0.951	450458	WORD_OFF	n/a	n/a	ANT	Insects	1	4	[0, 0, 0]	n/a	catFR1	6	R1541T
449.156	1.616	451405	WORD	n/a	wordpools/wordpool_categorized_EN.txt	SPIDER	Insects	2	4	[0, 0, 0]	n/a	catFR1	6	R1541T
450.772	0.984	453025	WORD_OFF	n/a	n/a	SPIDER	Insects	2	4	[0, 0, 0]	n/a	catFR1	6	R1541T
451.756	1.616	454008	WORD	n/a	wordpools/wordpool_categorized_EN.txt	COTTON	Fabric	3	4	[0, 0, 0]	n/a	catFR1	6	R1541T
453.372	0.899	455618	WORD_OFF	n/a	n/a	COTTON	Fabric	3	4	[0, 0, 0]	n/a	catFR1	6	R1541T
454.271	1.618	456519	WORD	n/a	wordpools/wordpool_categorized_EN.txt	SPANDEX	Fabric	4	4	[0, 0, 0]	n/a	catFR1	6	R1541T
455.889	0.882	458139	WORD_OFF	n/a	n/a	SPANDEX	Fabric	4	4	[0, 0, 0]	n/a	catFR1	6	R1541T
456.771	1.6	459022	WORD	n/a	wordpools/wordpool_categorized_EN.txt	CORKSCREW	KitchenTools	5	4	[0, 0, 0]	n/a	catFR1	6	R1541T
458.371	0.933	460624	WORD_OFF	n/a	n/a	CORKSCREW	KitchenTools	5	4	[0, 0, 0]	n/a	catFR1	6	R1541T
459.304	1.601	461552	WORD	n/a	wordpools/wordpool_categorized_EN.txt	STRAINER	KitchenTools	6	4	[0, 0, 0]	n/a	catFR1	6	R1541T
460.905	0.9	463154	WORD_OFF	n/a	n/a	STRAINER	KitchenTools	6	4	[0, 0, 0]	n/a	catFR1	6	R1541T
461.805	1.6	464055	WORD	n/a	wordpools/wordpool_categorized_EN.txt	GNAT	Insects	7	4	[0, 0, 0]	n/a	catFR1	6	R1541T
463.405	0.883	465657	WORD_OFF	n/a	n/a	GNAT	Insects	7	4	[0, 0, 0]	n/a	catFR1	6	R1541T
464.288	1.6	466540	WORD	n/a	wordpools/wordpool_categorized_EN.txt	MOSQUITO	Insects	8	4	[0, 0, 0]	n/a	catFR1	6	R1541T
465.888	0.883	468141	WORD_OFF	n/a	n/a	MOSQUITO	Insects	8	4	[0, 0, 0]	n/a	catFR1	6	R1541T
466.771	1.617	469024	WORD	n/a	wordpools/wordpool_categorized_EN.txt	LEATHER	Fabric	9	4	[0, 0, 0]	n/a	catFR1	6	R1541T
468.388	0.784	470635	WORD_OFF	n/a	n/a	LEATHER	Fabric	9	4	[0, 0, 0]	n/a	catFR1	6	R1541T
469.172	1.616	471418	WORD	n/a	wordpools/wordpool_categorized_EN.txt	WOOL	Fabric	10	4	[0, 0, 0]	n/a	catFR1	6	R1541T
470.788	0.817	473038	WORD_OFF	n/a	n/a	WOOL	Fabric	10	4	[0, 0, 0]	n/a	catFR1	6	R1541T
471.605	1.6	473857	WORD	n/a	wordpools/wordpool_categorized_EN.txt	FORK	KitchenTools	11	4	[0, 0, 0]	n/a	catFR1	6	R1541T
473.205	0.866	475458	WORD_OFF	n/a	n/a	FORK	KitchenTools	11	4	[0, 0, 0]	n/a	catFR1	6	R1541T
474.071	1.601	476323	WORD	n/a	wordpools/wordpool_categorized_EN.txt	GRATER	KitchenTools	12	4	[0, 0, 0]	n/a	catFR1	6	R1541T
475.672	0.001	477922	PROB	0.001	n/a	n/a	n/a	-999	4	[8, 1, 7]	16	catFR1	6	R1541T
475.673	0.0	477923	START	n/a	n/a	n/a	n/a	-999	4	[-999, -999, -999]	n/a	catFR1	6	R1541T
475.672	0.001	477925	WORD_OFF	n/a	n/a	GRATER	KitchenTools	12	4	[0, 0, 0]	n/a	catFR1	6	R1541T
475.673	0.0	477925	ENCODING_END	n/a	n/a	n/a	n/a	-999	4	[0, 0, 0]	n/a	catFR1	6	R1541T
475.673	3.099	477925	DISTRACT_START	n/a	n/a	n/a	n/a	-999	4	[0, 0, 0]	n/a	catFR1	6	R1541T
478.772	4.518	481021	PROB	4.518	n/a	n/a	n/a	-999	4	[6, 8, 6]	20	catFR1	6	R1541T
483.29	1.814	485539	PROB	1.814	n/a	n/a	n/a	-999	4	[3, 4, 4]	11	catFR1	6	R1541T
485.104	2.385	487353	PROB	2.385	n/a	n/a	n/a	-999	4	[8, 5, 8]	21	catFR1	6	R1541T
487.489	2.249	489738	PROB	2.249	n/a	n/a	n/a	-999	4	[1, 8, 8]	17	catFR1	6	R1541T
489.738	2.834	491987	PROB	2.834	n/a	n/a	n/a	-999	4	[3, 5, 5]	13	catFR1	6	R1541T
492.572	2.384	494821	PROB	2.384	n/a	n/a	n/a	-999	4	[6, 4, 6]	16	catFR1	6	R1541T
494.956	3.148	497205	PROB	3.148	n/a	n/a	n/a	-999	4	[4, 3, 1]	8	catFR1	6	R1541T
498.104	0.0	500349	DISTRACT_END	n/a	n/a	n/a	n/a	-999	4	[0, 0, 0]	n/a	catFR1	6	R1541T
498.104	1.9	500353	STOP	n/a	n/a	n/a	n/a	-999	4	[-999, -999, -999]	n/a	catFR1	6	R1541T
500.004	1.408	502252	REC_START	n/a	n/a	n/a	n/a	-999	4	[0, 0, 0]	n/a	catFR1	6	R1541T
501.412	0.582	503661	REC_WORD	0.582	n/a	ANT	Insects	1	4	[0, 0, 0]	n/a	catFR1	6	R1541T
501.994	0.894	504243	REC_WORD	0.894	n/a	SPIDER	Insects	2	4	[0, 0, 0]	n/a	catFR1	6	R1541T
502.888	1.0	505137	REC_WORD	1.0	n/a	MOSQUITO	Insects	8	4	[0, 0, 0]	n/a	catFR1	6	R1541T
503.888	1.222	506137	REC_WORD_VV	1.222	n/a	<>	n/a	-999	4	[0, 0, 0]	n/a	catFR1	6	R1541T
505.11	0.878	507359	REC_WORD	0.878	n/a	STRAINER	KitchenTools	6	4	[0, 0, 0]	n/a	catFR1	6	R1541T
505.988	5.575	508237	REC_WORD	5.575	n/a	FORK	KitchenTools	11	4	[0, 0, 0]	n/a	catFR1	6	R1541T
511.563	0.664	513812	REC_WORD	0.664	n/a	COTTON	Fabric	3	4	[0, 0, 0]	n/a	catFR1	6	R1541T
512.227	0.826	514476	REC_WORD	0.826	n/a	SPANDEX	Fabric	4	4	[0, 0, 0]	n/a	catFR1	6	R1541T
513.053	2.008	515301	REC_WORD	2.008	n/a	WOOL	Fabric	10	4	[0, 0, 0]	n/a	catFR1	6	R1541T
515.061	15.175	517309	REC_WORD	15.175	n/a	NYLON	n/a	-999	4	[0, 0, 0]	n/a	catFR1	6	R1541T
530.236	1.834	532485	REC_END	n/a	n/a	n/a	n/a	-999	4	[0, 0, 0]	n/a	catFR1	6	R1541T
532.07	10.35	534323	COUNTDOWN_START	n/a	n/a	n/a	n/a	-999	4	[0, 0, 0]	n/a	catFR1	6	R1541T
542.42	0.0	544671	COUNTDOWN_END	n/a	n/a	n/a	n/a	-999	4	[0, 0, 0]	n/a	catFR1	6	R1541T
542.42	2.133	544671	ENCODING_START	n/a	n/a	n/a	n/a	-999	5	[0, 0, 0]	n/a	catFR1	6	R1541T
544.553	1.617	546800	WORD	n/a	wordpools/wordpool_categorized_EN.txt	TRUCK	Vehicles	1	5	[0, 0, 0]	n/a	catFR1	6	R1541T
546.17	0.899	548420	WORD_OFF	n/a	n/a	TRUCK	Vehicles	1	5	[0, 0, 0]	n/a	catFR1	6	R1541T
547.069	1.6	549312	WORD	n/a	wordpools/wordpool_categorized_EN.txt	BUS	Vehicles	2	5	[0, 0, 0]	n/a	catFR1	6	R1541T
548.669	1.0	550914	WORD_OFF	n/a	n/a	BUS	Vehicles	2	5	[0, 0, 0]	n/a	catFR1	6	R1541T
549.669	1.617	551915	WORD	n/a	wordpools/wordpool_categorized_EN.txt	THUNDERSTORM	Weather	3	5	[0, 0, 0]	n/a	catFR1	6	R1541T
551.286	0.984	553535	WORD_OFF	n/a	n/a	THUNDERSTORM	Weather	3	5	[0, 0, 0]	n/a	catFR1	6	R1541T
552.27	1.616	554518	WORD	n/a	wordpools/wordpool_categorized_EN.txt	THUNDER	Weather	4	5	[0, 0, 0]	n/a	catFR1	6	R1541T
553.886	0.867	556129	WORD_OFF	n/a	n/a	THUNDER	Weather	4	5	[0, 0, 0]	n/a	catFR1	6	R1541T
554.753	1.616	557003	WORD	n/a	wordpools/wordpool_categorized_EN.txt	OCEAN	Landscapes	5	5	[0, 0, 0]	n/a	catFR1	6	R1541T
556.369	0.982	558613	WORD_OFF	n/a	n/a	OCEAN	Landscapes	5	5	[0, 0, 0]	n/a	catFR1	6	R1541T
557.351	1.602	559596	WORD	n/a	wordpools/wordpool_categorized_EN.txt	ISLAND	Landscapes	6	5	[0, 0, 0]	n/a	catFR1	6	R1541T
558.953	0.783	561198	WORD_OFF	n/a	n/a	ISLAND	Landscapes	6	5	[0, 0, 0]	n/a	catFR1	6	R1541T
559.736	1.617	561981	WORD	n/a	wordpools/wordpool_categorized_EN.txt	BIKE	Vehicles	7	5	[0, 0, 0]	n/a	catFR1	6	R1541T
561.353	0.867	563601	WORD_OFF	n/a	n/a	BIKE	Vehicles	7	5	[0, 0, 0]	n/a	catFR1	6	R1541T
562.22	1.6	564465	WORD	n/a	wordpools/wordpool_categorized_EN.txt	MOTORCYCLE	Vehicles	8	5	[0, 0, 0]	n/a	catFR1	6	R1541T
563.82	0.766	566067	WORD_OFF	n/a	n/a	MOTORCYCLE	Vehicles	8	5	[0, 0, 0]	n/a	catFR1	6	R1541T
564.586	1.617	566832	WORD	n/a	wordpools/wordpool_categorized_EN.txt	RIVER	Landscapes	9	5	[0, 0, 0]	n/a	catFR1	6	R1541T
566.203	0.8	568452	WORD_OFF	n/a	n/a	RIVER	Landscapes	9	5	[0, 0, 0]	n/a	catFR1	6	R1541T
567.003	1.6	569252	WORD	n/a	wordpools/wordpool_categorized_EN.txt	HILLS	Landscapes	10	5	[0, 0, 0]	n/a	catFR1	6	R1541T
568.603	0.8	570845	WORD_OFF	n/a	n/a	HILLS	Landscapes	10	5	[0, 0, 0]	n/a	catFR1	6	R1541T
569.403	1.6	571646	WORD	n/a	wordpools/wordpool_categorized_EN.txt	WIND	Weather	11	5	[0, 0, 0]	n/a	catFR1	6	R1541T
571.003	0.782	573248	WORD_OFF	n/a	n/a	WIND	Weather	11	5	[0, 0, 0]	n/a	catFR1	6	R1541T
571.785	1.601	574030	WORD	n/a	wordpools/wordpool_categorized_EN.txt	FOG	Weather	12	5	[0, 0, 0]	n/a	catFR1	6	R1541T
573.386	0.001	575632	WORD_OFF	n/a	n/a	FOG	Weather	12	5	[0, 0, 0]	n/a	catFR1	6	R1541T
573.387	0.0	575632	ENCODING_END	n/a	n/a	n/a	n/a	-999	5	[0, 0, 0]	n/a	catFR1	6	R1541T
573.387	0.0	575632	DISTRACT_START	n/a	n/a	n/a	n/a	-999	5	[0, 0, 0]	n/a	catFR1	6	R1541T
573.386	0.001	575633	PROB	0.001	n/a	n/a	n/a	-999	5	[3, 4, 3]	10	catFR1	6	R1541T
573.387	3.164	575634	START	n/a	n/a	n/a	n/a	-999	5	[-999, -999, -999]	n/a	catFR1	6	R1541T
576.551	3.885	578798	PROB	3.885	n/a	n/a	n/a	-999	5	[4, 7, 7]	18	catFR1	6	R1541T
580.436	2.367	582683	PROB	2.367	n/a	n/a	n/a	-999	5	[3, 7, 4]	14	catFR1	6	R1541T
582.803	1.866	585050	PROB	1.866	n/a	n/a	n/a	-999	5	[7, 4, 3]	14	catFR1	6	R1541T
584.669	2.617	586915	PROB	2.617	n/a	n/a	n/a	-999	5	[6, 3, 5]	14	catFR1	6	R1541T
587.286	1.967	589532	PROB	1.967	n/a	n/a	n/a	-999	5	[7, 8, 7]	22	catFR1	6	R1541T
589.253	2.283	591499	PROB	2.283	n/a	n/a	n/a	-999	5	[2, 4, 8]	14	catFR1	6	R1541T
591.536	2.216	593782	PROB	2.216	n/a	n/a	n/a	-999	5	[8, 7, 1]	16	catFR1	6	R1541T
593.752	0.0	595998	STOP	n/a	n/a	n/a	n/a	-999	5	[-999, -999, -999]	n/a	catFR1	6	R1541T
593.752	1.917	596000	DISTRACT_END	n/a	n/a	n/a	n/a	-999	5	[0, 0, 0]	n/a	catFR1	6	R1541T
595.669	1.336	597920	REC_START	n/a	n/a	n/a	n/a	-999	5	[0, 0, 0]	n/a	catFR1	6	R1541T
597.005	0.97	599251	REC_WORD	0.97	n/a	TRUCK	Vehicles	1	5	[0, 0, 0]	n/a	catFR1	6	R1541T
597.975	0.941	600221	REC_WORD	0.941	n/a	BUS	Vehicles	2	5	[0, 0, 0]	n/a	catFR1	6	R1541T
598.916	1.0	601162	REC_WORD	1.0	n/a	MOTORCYCLE	Vehicles	8	5	[0, 0, 0]	n/a	catFR1	6	R1541T
599.916	0.388	602162	REC_WORD_VV	0.388	n/a	<>	n/a	-999	5	[0, 0, 0]	n/a	catFR1	6	R1541T
600.304	0.735	602550	REC_WORD	0.735	n/a	THUNDER	Weather	4	5	[0, 0, 0]	n/a	catFR1	6	R1541T
601.039	1.014	603285	REC_WORD	1.014	n/a	THUNDERSTORM	Weather	3	5	[0, 0, 0]	n/a	catFR1	6	R1541T
602.053	0.865	604299	REC_WORD	0.865	n/a	HILLS	Landscapes	10	5	[0, 0, 0]	n/a	catFR1	6	R1541T
602.918	22.982	605164	REC_WORD	22.982	n/a	VALLEY	Landscapes	-999	5	[0, 0, 0]	n/a	catFR1	6	R1541T
625.9	2.585	628144	REC_END	n/a	n/a	n/a	n/a	-999	5	[0, 0, 0]	n/a	catFR1	6	R1541T
628.485	10.349	630729	COUNTDOWN_START	n/a	n/a	n/a	n/a	-999	5	[0, 0, 0]	n/a	catFR1	6	R1541T
638.834	0.0	641077	COUNTDOWN_END	n/a	n/a	n/a	n/a	-999	5	[0, 0, 0]	n/a	catFR1	6	R1541T
638.834	2.249	641077	ENCODING_START	n/a	n/a	n/a	n/a	-999	6	[0, 0, 0]	n/a	catFR1	6	R1541T
641.083	1.601	643325	WORD	n/a	wordpools/wordpool_categorized_EN.txt	SCREWDRIVER	Tools	1	6	[0, 0, 0]	n/a	catFR1	6	R1541T
642.684	0.848	644927	WORD_OFF	n/a	n/a	SCREWDRIVER	Tools	1	6	[0, 0, 0]	n/a	catFR1	6	R1541T
643.532	1.601	645773	WORD	n/a	wordpools/wordpool_categorized_EN.txt	PLIERS	Tools	2	6	[0, 0, 0]	n/a	catFR1	6	R1541T
645.133	0.951	647375	WORD_OFF	n/a	n/a	PLIERS	Tools	2	6	[0, 0, 0]	n/a	catFR1	6	R1541T
646.084	1.616	648330	WORD	n/a	wordpools/wordpool_categorized_EN.txt	ROBIN	Birds	3	6	[0, 0, 0]	n/a	catFR1	6	R1541T
647.7	0.95	649941	WORD_OFF	n/a	n/a	ROBIN	Birds	3	6	[0, 0, 0]	n/a	catFR1	6	R1541T
648.65	1.601	650897	WORD	n/a	wordpools/wordpool_categorized_EN.txt	GOOSE	Birds	4	6	[0, 0, 0]	n/a	catFR1	6	R1541T
650.251	0.783	652499	WORD_OFF	n/a	n/a	GOOSE	Birds	4	6	[0, 0, 0]	n/a	catFR1	6	R1541T
651.034	1.6	653281	WORD	n/a	wordpools/wordpool_categorized_EN.txt	ORCHID	Flowers	5	6	[0, 0, 0]	n/a	catFR1	6	R1541T
652.634	0.999	654874	WORD_OFF	n/a	n/a	ORCHID	Flowers	5	6	[0, 0, 0]	n/a	catFR1	6	R1541T
653.633	1.617	655875	WORD	n/a	wordpools/wordpool_categorized_EN.txt	TULIP	Flowers	6	6	[0, 0, 0]	n/a	catFR1	6	R1541T
655.25	0.867	657495	WORD_OFF	n/a	n/a	TULIP	Flowers	6	6	[0, 0, 0]	n/a	catFR1	6	R1541T
656.117	1.6	658360	WORD	n/a	wordpools/wordpool_categorized_EN.txt	CROWBAR	Tools	7	6	[0, 0, 0]	n/a	catFR1	6	R1541T
657.717	0.867	659961	WORD_OFF	n/a	n/a	CROWBAR	Tools	7	6	[0, 0, 0]	n/a	catFR1	6	R1541T
658.584	1.6	660826	WORD	n/a	wordpools/wordpool_categorized_EN.txt	WRENCH	Tools	8	6	[0, 0, 0]	n/a	catFR1	6	R1541T
660.184	0.766	662428	WORD_OFF	n/a	n/a	WRENCH	Tools	8	6	[0, 0, 0]	n/a	catFR1	6	R1541T
660.95	1.616	663192	WORD	n/a	wordpools/wordpool_categorized_EN.txt	BLUEBIRD	Birds	9	6	[0, 0, 0]	n/a	catFR1	6	R1541T
662.566	0.85	664812	WORD_OFF	n/a	n/a	BLUEBIRD	Birds	9	6	[0, 0, 0]	n/a	catFR1	6	R1541T
663.416	1.602	665658	WORD	n/a	wordpools/wordpool_categorized_EN.txt	CARDINAL	Birds	10	6	[0, 0, 0]	n/a	catFR1	6	R1541T
665.018	0.765	667260	WORD_OFF	n/a	n/a	CARDINAL	Birds	10	6	[0, 0, 0]	n/a	catFR1	6	R1541T
665.783	1.6	668025	WORD	n/a	wordpools/wordpool_categorized_EN.txt	DAFFODIL	Flowers	11	6	[0, 0, 0]	n/a	catFR1	6	R1541T
667.383	0.951	669626	WORD_OFF	n/a	n/a	DAFFODIL	Flowers	11	6	[0, 0, 0]	n/a	catFR1	6	R1541T
668.334	1.616	670582	WORD	n/a	wordpools/wordpool_categorized_EN.txt	DAISY	Flowers	12	6	[0, 0, 0]	n/a	catFR1	6	R1541T
669.95	0.003	672194	PROB	0.003	n/a	n/a	n/a	-999	6	[8, 3, 5]	16	catFR1	6	R1541T
669.953	0.0	672197	START	n/a	n/a	n/a	n/a	-999	6	[-999, -999, -999]	n/a	catFR1	6	R1541T
669.95	0.003	672202	WORD_OFF	n/a	n/a	DAISY	Flowers	12	6	[0, 0, 0]	n/a	catFR1	6	R1541T
669.953	0.0	672202	ENCODING_END	n/a	n/a	n/a	n/a	-999	6	[0, 0, 0]	n/a	catFR1	6	R1541T
669.953	3.031	672211	DISTRACT_START	n/a	n/a	n/a	n/a	-999	6	[0, 0, 0]	n/a	catFR1	6	R1541T
672.984	2.484	675228	PROB	2.484	n/a	n/a	n/a	-999	6	[4, 7, 5]	16	catFR1	6	R1541T
675.468	2.016	677712	PROB	2.016	n/a	n/a	n/a	-999	6	[5, 3, 4]	12	catFR1	6	R1541T
677.484	2.067	679728	PROB	2.067	n/a	n/a	n/a	-999	6	[1, 3, 6]	10	catFR1	6	R1541T
679.551	1.966	681795	PROB	1.966	n/a	n/a	n/a	-999	6	[2, 1, 2]	5	catFR1	6	R1541T
681.517	2.132	683761	PROB	2.132	n/a	n/a	n/a	-999	6	[4, 7, 8]	19	catFR1	6	R1541T
683.649	2.535	685893	PROB	2.535	n/a	n/a	n/a	-999	6	[7, 8, 7]	22	catFR1	6	R1541T
686.184	2.165	688428	PROB	2.165	n/a	n/a	n/a	-999	6	[2, 1, 3]	6	catFR1	6	R1541T
688.349	2.601	690593	PROB	2.601	n/a	n/a	n/a	-999	6	[4, 3, 1]	8	catFR1	6	R1541T
690.95	0.0	693189	DISTRACT_END	n/a	n/a	n/a	n/a	-999	6	[0, 0, 0]	n/a	catFR1	6	R1541T
690.95	1.75	693193	STOP	n/a	n/a	n/a	n/a	-999	6	[-999, -999, -999]	n/a	catFR1	6	R1541T
692.7	1.257	694945	REC_START	n/a	n/a	n/a	n/a	-999	6	[0, 0, 0]	n/a	catFR1	6	R1541T
693.957	1.0	696200	REC_WORD	1.0	n/a	SCREWDRIVER	Tools	1	6	[0, 0, 0]	n/a	catFR1	6	R1541T
694.957	0.387	697200	REC_WORD_VV	0.387	n/a	<>	n/a	-999	6	[0, 0, 0]	n/a	catFR1	6	R1541T
695.344	0.915	697587	REC_WORD	0.915	n/a	PLIERS	Tools	2	6	[0, 0, 0]	n/a	catFR1	6	R1541T
696.259	2.311	698502	REC_WORD	2.311	n/a	CROWBAR	Tools	7	6	[0, 0, 0]	n/a	catFR1	6	R1541T
698.57	1.507	700813	REC_WORD	1.507	n/a	DAFFODIL	Flowers	11	6	[0, 0, 0]	n/a	catFR1	6	R1541T
700.077	8.479	702320	REC_WORD	8.479	n/a	DAISY	Flowers	12	6	[0, 0, 0]	n/a	catFR1	6	R1541T
708.556	14.376	710799	REC_WORD	14.376	n/a	MARIGOLD	n/a	-999	6	[0, 0, 0]	n/a	catFR1	6	R1541T
722.932	2.067	725178	REC_END	n/a	n/a	n/a	n/a	-999	6	[0, 0, 0]	n/a	catFR1	6	R1541T
724.999	10.349	727244	COUNTDOWN_START	n/a	n/a	n/a	n/a	-999	6	[0, 0, 0]	n/a	catFR1	6	R1541T
735.348	0.0	737592	COUNTDOWN_END	n/a	n/a	n/a	n/a	-999	6	[0, 0, 0]	n/a	catFR1	6	R1541T
735.348	2.334	737592	ENCODING_START	n/a	n/a	n/a	n/a	-999	7	[0, 0, 0]	n/a	catFR1	6	R1541T
737.682	1.6	739922	WORD	n/a	wordpools/wordpool_categorized_EN.txt	FLEECE	Fabric	1	7	[0, 0, 0]	n/a	catFR1	6	R1541T
739.282	0.933	741524	WORD_OFF	n/a	n/a	FLEECE	Fabric	1	7	[0, 0, 0]	n/a	catFR1	6	R1541T
740.215	1.6	742461	WORD	n/a	wordpools/wordpool_categorized_EN.txt	NYLON	Fabric	2	7	[0, 0, 0]	n/a	catFR1	6	R1541T
741.815	0.85	744054	WORD_OFF	n/a	n/a	NYLON	Fabric	2	7	[0, 0, 0]	n/a	catFR1	6	R1541T
742.665	1.6	744909	WORD	n/a	wordpools/wordpool_categorized_EN.txt	MARIGOLD	Flowers	3	7	[0, 0, 0]	n/a	catFR1	6	R1541T
744.265	0.867	746511	WORD_OFF	n/a	n/a	MARIGOLD	Flowers	3	7	[0, 0, 0]	n/a	catFR1	6	R1541T
745.132	1.616	747376	WORD	n/a	wordpools/wordpool_categorized_EN.txt	SUNFLOWER	Flowers	4	7	[0, 0, 0]	n/a	catFR1	6	R1541T
746.748	0.851	748986	WORD_OFF	n/a	n/a	SUNFLOWER	Flowers	4	7	[0, 0, 0]	n/a	catFR1	6	R1541T
747.599	1.616	749842	WORD	n/a	wordpools/wordpool_categorized_EN.txt	RULER	OfficeSupplies	5	7	[0, 0, 0]	n/a	catFR1	6	R1541T
749.215	0.934	751453	WORD_OFF	n/a	n/a	RULER	OfficeSupplies	5	7	[0, 0, 0]	n/a	catFR1	6	R1541T
750.149	1.616	752390	WORD	n/a	wordpools/wordpool_categorized_EN.txt	BINDER	OfficeSupplies	6	7	[0, 0, 0]	n/a	catFR1	6	R1541T
751.765	0.799	754010	WORD_OFF	n/a	n/a	BINDER	OfficeSupplies	6	7	[0, 0, 0]	n/a	catFR1	6	R1541T
752.564	1.601	754802	WORD	n/a	wordpools/wordpool_categorized_EN.txt	DENIM	Fabric	7	7	[0, 0, 0]	n/a	catFR1	6	R1541T
754.165	0.999	756404	WORD_OFF	n/a	n/a	DENIM	Fabric	7	7	[0, 0, 0]	n/a	catFR1	6	R1541T
755.164	1.6	757405	WORD	n/a	wordpools/wordpool_categorized_EN.txt	SUEDE	Fabric	8	7	[0, 0, 0]	n/a	catFR1	6	R1541T
756.764	0.817	759006	WORD_OFF	n/a	n/a	SUEDE	Fabric	8	7	[0, 0, 0]	n/a	catFR1	6	R1541T
757.581	1.6	759826	WORD	n/a	wordpools/wordpool_categorized_EN.txt	PAPER	OfficeSupplies	9	7	[0, 0, 0]	n/a	catFR1	6	R1541T
759.181	0.917	761418	WORD_OFF	n/a	n/a	PAPER	OfficeSupplies	9	7	[0, 0, 0]	n/a	catFR1	6	R1541T
760.098	1.6	762337	WORD	n/a	wordpools/wordpool_categorized_EN.txt	ERASER	OfficeSupplies	10	7	[0, 0, 0]	n/a	catFR1	6	R1541T
761.698	0.917	763939	WORD_OFF	n/a	n/a	ERASER	OfficeSupplies	10	7	[0, 0, 0]	n/a	catFR1	6	R1541T
762.615	1.618	764858	WORD	n/a	wordpools/wordpool_categorized_EN.txt	CARNATION	Flowers	11	7	[0, 0, 0]	n/a	catFR1	6	R1541T
764.233	0.982	766478	WORD_OFF	n/a	n/a	CARNATION	Flowers	11	7	[0, 0, 0]	n/a	catFR1	6	R1541T
765.215	1.616	767452	WORD	n/a	wordpools/wordpool_categorized_EN.txt	LILY	Flowers	12	7	[0, 0, 0]	n/a	catFR1	6	R1541T
766.831	0.002	769072	WORD_OFF	n/a	n/a	LILY	Flowers	12	7	[0, 0, 0]	n/a	catFR1	6	R1541T
766.833	0.0	769072	ENCODING_END	n/a	n/a	n/a	n/a	-999	7	[0, 0, 0]	n/a	catFR1	6	R1541T
766.833	0.0	769072	DISTRACT_START	n/a	n/a	n/a	n/a	-999	7	[0, 0, 0]	n/a	catFR1	6	R1541T
766.832	0.001	769073	PROB	0.001	n/a	n/a	n/a	-999	7	[8, 8, 6]	22	catFR1	6	R1541T
766.833	2.615	769074	START	n/a	n/a	n/a	n/a	-999	7	[-999, -999, -999]	n/a	catFR1	6	R1541T
769.448	2.45	771689	PROB	2.45	n/a	n/a	n/a	-999	7	[6, 6, 4]	16	catFR1	6	R1541T
771.898	1.95	774139	PROB	1.95	n/a	n/a	n/a	-999	7	[2, 1, 5]	8	catFR1	6	R1541T
773.848	1.951	776089	PROB	1.951	n/a	n/a	n/a	-999	7	[7, 7, 8]	22	catFR1	6	R1541T
775.799	2.216	778040	PROB	2.216	n/a	n/a	n/a	-999	7	[3, 7, 7]	17	catFR1	6	R1541T
778.015	2.2	780256	PROB	2.2	n/a	n/a	n/a	-999	7	[5, 2, 5]	12	catFR1	6	R1541T
780.215	2.134	782456	PROB	2.134	n/a	n/a	n/a	-999	7	[4, 3, 2]	9	catFR1	6	R1541T
782.349	2.116	784590	PROB	2.116	n/a	n/a	n/a	-999	7	[3, 2, 1]	6	catFR1	6	R1541T
784.465	2.249	786706	PROB	2.249	n/a	n/a	n/a	-999	7	[5, 4, 5]	14	catFR1	6	R1541T
786.714	2.52	788955	PROB	2.52	n/a	n/a	n/a	-999	7	[4, 8, 8]	20	catFR1	6	R1541T
789.234	0.0	791469	DISTRACT_END	n/a	n/a	n/a	n/a	-999	7	[0, 0, 0]	n/a	catFR1	6	R1541T
789.234	1.647	791475	STOP	n/a	n/a	n/a	n/a	-999	7	[-999, -999, -999]	n/a	catFR1	6	R1541T
790.881	1.283	793117	REC_START	n/a	n/a	n/a	n/a	-999	7	[0, 0, 0]	n/a	catFR1	6	R1541T
792.164	0.595	794405	REC_WORD	0.595	n/a	PAPER	OfficeSupplies	9	7	[0, 0, 0]	n/a	catFR1	6	R1541T
792.759	1.944	795000	REC_WORD	1.944	n/a	ERASER	OfficeSupplies	10	7	[0, 0, 0]	n/a	catFR1	6	R1541T
794.703	0.698	796944	REC_WORD	0.698	n/a	LILY	Flowers	12	7	[0, 0, 0]	n/a	catFR1	6	R1541T
795.401	0.87	797642	REC_WORD	0.87	n/a	MARIGOLD	Flowers	3	7	[0, 0, 0]	n/a	catFR1	6	R1541T
796.271	24.829	798511	REC_WORD	24.829	n/a	CARNATION	Flowers	11	7	[0, 0, 0]	n/a	catFR1	6	R1541T
821.1	3.429	823341	REC_END	n/a	n/a	n/a	n/a	-999	7	[0, 0, 0]	n/a	catFR1	6	R1541T
824.529	10.351	826772	COUNTDOWN_START	n/a	n/a	n/a	n/a	-999	7	[0, 0, 0]	n/a	catFR1	6	R1541T
834.88	0.0	837120	COUNTDOWN_END	n/a	n/a	n/a	n/a	-999	7	[0, 0, 0]	n/a	catFR1	6	R1541T
834.88	2.232	837120	ENCODING_START	n/a	n/a	n/a	n/a	-999	8	[0, 0, 0]	n/a	catFR1	6	R1541T
837.112	1.601	839349	WORD	n/a	wordpools/wordpool_categorized_EN.txt	OVEN	Appliances	1	8	[0, 0, 0]	n/a	catFR1	6	R1541T
838.713	0.883	840951	WORD_OFF	n/a	n/a	OVEN	Appliances	1	8	[0, 0, 0]	n/a	catFR1	6	R1541T
839.596	1.617	841834	WORD	n/a	wordpools/wordpool_categorized_EN.txt	DISHWASHER	Appliances	2	8	[0, 0, 0]	n/a	catFR1	6	R1541T
841.213	0.95	843454	WORD_OFF	n/a	n/a	DISHWASHER	Appliances	2	8	[0, 0, 0]	n/a	catFR1	6	R1541T
842.163	1.616	844400	WORD	n/a	wordpools/wordpool_categorized_EN.txt	FINGERS	BodyParts	3	8	[0, 0, 0]	n/a	catFR1	6	R1541T
843.779	0.817	846020	WORD_OFF	n/a	n/a	FINGERS	BodyParts	3	8	[0, 0, 0]	n/a	catFR1	6	R1541T
844.596	1.617	846839	WORD	n/a	wordpools/wordpool_categorized_EN.txt	ELBOW	BodyParts	4	8	[0, 0, 0]	n/a	catFR1	6	R1541T
846.213	0.933	848450	WORD_OFF	n/a	n/a	ELBOW	BodyParts	4	8	[0, 0, 0]	n/a	catFR1	6	R1541T
847.146	1.617	849388	WORD	n/a	wordpools/wordpool_categorized_EN.txt	CEDAR	Trees	5	8	[0, 0, 0]	n/a	catFR1	6	R1541T
848.763	0.95	850998	WORD_OFF	n/a	n/a	CEDAR	Trees	5	8	[0, 0, 0]	n/a	catFR1	6	R1541T
849.713	1.6	851954	WORD	n/a	wordpools/wordpool_categorized_EN.txt	PINE	Trees	6	8	[0, 0, 0]	n/a	catFR1	6	R1541T
851.313	0.799	853556	WORD_OFF	n/a	n/a	PINE	Trees	6	8	[0, 0, 0]	n/a	catFR1	6	R1541T
852.112	1.6	854348	WORD	n/a	wordpools/wordpool_categorized_EN.txt	REFRIGERATOR	Appliances	7	8	[0, 0, 0]	n/a	catFR1	6	R1541T
853.712	0.767	855949	WORD_OFF	n/a	n/a	REFRIGERATOR	Appliances	7	8	[0, 0, 0]	n/a	catFR1	6	R1541T
854.479	1.617	856714	WORD	n/a	wordpools/wordpool_categorized_EN.txt	STOVE	Appliances	8	8	[0, 0, 0]	n/a	catFR1	6	R1541T
856.096	0.9	858334	WORD_OFF	n/a	n/a	STOVE	Appliances	8	8	[0, 0, 0]	n/a	catFR1	6	R1541T
856.996	1.6	859235	WORD	n/a	wordpools/wordpool_categorized_EN.txt	FOOT	BodyParts	9	8	[0, 0, 0]	n/a	catFR1	6	R1541T
858.596	0.867	860837	WORD_OFF	n/a	n/a	FOOT	BodyParts	9	8	[0, 0, 0]	n/a	catFR1	6	R1541T
859.463	1.616	861701	WORD	n/a	wordpools/wordpool_categorized_EN.txt	HEAD	BodyParts	10	8	[0, 0, 0]	n/a	catFR1	6	R1541T
861.079	0.9	863321	WORD_OFF	n/a	n/a	HEAD	BodyParts	10	8	[0, 0, 0]	n/a	catFR1	6	R1541T
861.979	1.617	864222	WORD	n/a	wordpools/wordpool_categorized_EN.txt	OAK	Trees	11	8	[0, 0, 0]	n/a	catFR1	6	R1541T
863.596	0.9	865833	WORD_OFF	n/a	n/a	OAK	Trees	11	8	[0, 0, 0]	n/a	catFR1	6	R1541T
864.496	1.617	866734	WORD	n/a	wordpools/wordpool_categorized_EN.txt	WALNUT	Trees	12	8	[0, 0, 0]	n/a	catFR1	6	R1541T
866.113	0.001	868352	PROB	0.001	n/a	n/a	n/a	-999	8	[8, 2, 1]	11	catFR1	6	R1541T
866.114	0.0	868353	START	n/a	n/a	n/a	n/a	-999	8	[-999, -999, -999]	n/a	catFR1	6	R1541T
866.112	0.002	868354	WORD_OFF	n/a	n/a	WALNUT	Trees	12	8	[0, 0, 0]	n/a	catFR1	6	R1541T
866.114	0.0	868354	ENCODING_END	n/a	n/a	n/a	n/a	-999	8	[0, 0, 0]	n/a	catFR1	6	R1541T
866.114	2.449	868354	DISTRACT_START	n/a	n/a	n/a	n/a	-999	8	[0, 0, 0]	n/a	catFR1	6	R1541T
868.563	2.249	870801	PROB	2.249	n/a	n/a	n/a	-999	8	[6, 1, 8]	15	catFR1	6	R1541T
870.812	2.467	873050	PROB	2.467	n/a	n/a	n/a	-999	8	[6, 5, 7]	18	catFR1	6	R1541T
873.279	2.251	875517	PROB	2.251	n/a	n/a	n/a	-999	8	[2, 3, 8]	13	catFR1	6	R1541T
875.53	2.615	877768	PROB	2.615	n/a	n/a	n/a	-999	8	[5, 2, 8]	15	catFR1	6	R1541T
878.145	1.867	880383	PROB	1.867	n/a	n/a	n/a	-999	8	[1, 3, 1]	5	catFR1	6	R1541T
880.012	1.867	882250	PROB	1.867	n/a	n/a	n/a	-999	8	[1, 8, 2]	11	catFR1	6	R1541T
881.879	2.051	884117	PROB	2.051	n/a	n/a	n/a	-999	8	[4, 6, 8]	18	catFR1	6	R1541T
883.93	2.665	886168	PROB	2.665	n/a	n/a	n/a	-999	8	[5, 4, 3]	12	catFR1	6	R1541T
886.595	0.0	888831	DISTRACT_END	n/a	n/a	n/a	n/a	-999	8	[0, 0, 0]	n/a	catFR1	6	R1541T
886.595	1.8	888833	STOP	n/a	n/a	n/a	n/a	-999	8	[-999, -999, -999]	n/a	catFR1	6	R1541T
888.395	1.168	890633	REC_START	n/a	n/a	n/a	n/a	-999	8	[0, 0, 0]	n/a	catFR1	6	R1541T
889.563	0.951	891801	REC_WORD	0.951	n/a	OAK	Trees	11	8	[0, 0, 0]	n/a	catFR1	6	R1541T
890.514	0.886	892752	REC_WORD	0.886	n/a	WALNUT	Trees	12	8	[0, 0, 0]	n/a	catFR1	6	R1541T
891.4	2.62	893638	REC_WORD	2.62	n/a	DISHWASHER	Appliances	2	8	[0, 0, 0]	n/a	catFR1	6	R1541T
894.02	1.776	896258	REC_WORD	1.776	n/a	OVEN	Appliances	1	8	[0, 0, 0]	n/a	catFR1	6	R1541T
895.796	0.55	898034	REC_WORD	0.55	n/a	FINGERS	BodyParts	3	8	[0, 0, 0]	n/a	catFR1	6	R1541T
896.346	2.377	898584	REC_WORD	2.377	n/a	ELBOW	BodyParts	4	8	[0, 0, 0]	n/a	catFR1	6	R1541T
898.723	2.112	900961	REC_WORD	2.112	n/a	FOOT	BodyParts	9	8	[0, 0, 0]	n/a	catFR1	6	R1541T
900.835	2.843	903073	REC_WORD	2.843	n/a	NOSE	n/a	-999	8	[0, 0, 0]	n/a	catFR1	6	R1541T
903.678	1.0	905915	REC_WORD	1.0	n/a	REFRIGERATOR	Appliances	7	8	[0, 0, 0]	n/a	catFR1	6	R1541T
904.678	13.951	906915	REC_WORD_VV	13.951	n/a	<>	n/a	-999	8	[0, 0, 0]	n/a	catFR1	6	R1541T
918.629	1.315	920866	REC_END	n/a	n/a	n/a	n/a	-999	8	[0, 0, 0]	n/a	catFR1	6	R1541T
919.944	10.349	922186	COUNTDOWN_START	n/a	n/a	n/a	n/a	-999	8	[0, 0, 0]	n/a	catFR1	6	R1541T
930.293	0.0	932534	COUNTDOWN_END	n/a	n/a	n/a	n/a	-999	8	[0, 0, 0]	n/a	catFR1	6	R1541T
930.293	2.268	932534	ENCODING_START	n/a	n/a	n/a	n/a	-999	9	[0, 0, 0]	n/a	catFR1	6	R1541T
932.561	1.616	934800	WORD	n/a	wordpools/wordpool_categorized_EN.txt	PENCIL	OfficeSupplies	1	9	[0, 0, 0]	n/a	catFR1	6	R1541T
934.177	0.884	936411	WORD_OFF	n/a	n/a	PENCIL	OfficeSupplies	1	9	[0, 0, 0]	n/a	catFR1	6	R1541T
935.061	1.6	937293	WORD	n/a	wordpools/wordpool_categorized_EN.txt	PEN	OfficeSupplies	2	9	[0, 0, 0]	n/a	catFR1	6	R1541T
936.661	0.833	938895	WORD_OFF	n/a	n/a	PEN	OfficeSupplies	2	9	[0, 0, 0]	n/a	catFR1	6	R1541T
937.494	1.616	939732	WORD	n/a	wordpools/wordpool_categorized_EN.txt	LEMONADE	Beverages	3	9	[0, 0, 0]	n/a	catFR1	6	R1541T
939.11	0.766	941343	WORD_OFF	n/a	n/a	LEMONADE	Beverages	3	9	[0, 0, 0]	n/a	catFR1	6	R1541T
939.876	1.601	942117	WORD	n/a	wordpools/wordpool_categorized_EN.txt	SODA	Beverages	4	9	[0, 0, 0]	n/a	catFR1	6	R1541T
941.477	0.866	943709	WORD_OFF	n/a	n/a	SODA	Beverages	4	9	[0, 0, 0]	n/a	catFR1	6	R1541T
942.343	1.6	944583	WORD	n/a	wordpools/wordpool_categorized_EN.txt	BLENDER	Appliances	5	9	[0, 0, 0]	n/a	catFR1	6	R1541T
943.943	0.917	946176	WORD_OFF	n/a	n/a	BLENDER	Appliances	5	9	[0, 0, 0]	n/a	catFR1	6	R1541T
944.86	1.616	947095	WORD	n/a	wordpools/wordpool_categorized_EN.txt	DRYER	Appliances	6	9	[0, 0, 0]	n/a	catFR1	6	R1541T
946.476	0.768	948715	WORD_OFF	n/a	n/a	DRYER	Appliances	6	9	[0, 0, 0]	n/a	catFR1	6	R1541T
947.244	1.6	949479	WORD	n/a	wordpools/wordpool_categorized_EN.txt	STAPLER	OfficeSupplies	7	9	[0, 0, 0]	n/a	catFR1	6	R1541T
948.844	0.766	951081	WORD_OFF	n/a	n/a	STAPLER	OfficeSupplies	7	9	[0, 0, 0]	n/a	catFR1	6	R1541T
949.61	1.617	951846	WORD	n/a	wordpools/wordpool_categorized_EN.txt	NOTEBOOK	OfficeSupplies	8	9	[0, 0, 0]	n/a	catFR1	6	R1541T
951.227	0.867	953466	WORD_OFF	n/a	n/a	NOTEBOOK	OfficeSupplies	8	9	[0, 0, 0]	n/a	catFR1	6	R1541T
952.094	1.616	954330	WORD	n/a	wordpools/wordpool_categorized_EN.txt	COFFEE	Beverages	9	9	[0, 0, 0]	n/a	catFR1	6	R1541T
953.71	0.884	955950	WORD_OFF	n/a	n/a	COFFEE	Beverages	9	9	[0, 0, 0]	n/a	catFR1	6	R1541T
954.594	1.599	956833	WORD	n/a	wordpools/wordpool_categorized_EN.txt	RUM	Beverages	10	9	[0, 0, 0]	n/a	catFR1	6	R1541T
956.193	0.783	958426	WORD_OFF	n/a	n/a	RUM	Beverages	10	9	[0, 0, 0]	n/a	catFR1	6	R1541T
956.976	1.601	959208	WORD	n/a	wordpools/wordpool_categorized_EN.txt	WASHER	Appliances	11	9	[0, 0, 0]	n/a	catFR1	6	R1541T
958.577	0.983	960810	WORD_OFF	n/a	n/a	WASHER	Appliances	11	9	[0, 0, 0]	n/a	catFR1	6	R1541T
959.56	1.6	961793	WORD	n/a	wordpools/wordpool_categorized_EN.txt	IRON	Appliances	12	9	[0, 0, 0]	n/a	catFR1	6	R1541T
961.16	0.001	963395	WORD_OFF	n/a	n/a	IRON	Appliances	12	9	[0, 0, 0]	n/a	catFR1	6	R1541T
961.161	0.0	963395	ENCODING_END	n/a	n/a	n/a	n/a	-999	9	[0, 0, 0]	n/a	catFR1	6	R1541T
961.161	0.0	963395	DISTRACT_START	n/a	n/a	n/a	n/a	-999	9	[0, 0, 0]	n/a	catFR1	6	R1541T
961.16	0.001	963396	PROB	0.001	n/a	n/a	n/a	-999	9	[1, 1, 5]	7	catFR1	6	R1541T
961.161	3.101	963397	START	n/a	n/a	n/a	n/a	-999	9	[-999, -999, -999]	n/a	catFR1	6	R1541T
964.262	1.899	966498	PROB	1.899	n/a	n/a	n/a	-999	9	[3, 6, 2]	11	catFR1	6	R1541T
966.161	2.632	968397	PROB	2.632	n/a	n/a	n/a	-999	9	[1, 8, 8]	17	catFR1	6	R1541T
968.793	1.818	971029	PROB	1.818	n/a	n/a	n/a	-999	9	[5, 5, 8]	18	catFR1	6	R1541T
970.611	1.833	972847	PROB	1.833	n/a	n/a	n/a	-999	9	[2, 1, 5]	8	catFR1	6	R1541T
972.444	2.883	974680	PROB	2.883	n/a	n/a	n/a	-999	9	[5, 4, 8]	17	catFR1	6	R1541T
975.327	2.85	977562	PROB	2.85	n/a	n/a	n/a	-999	9	[7, 8, 1]	16	catFR1	6	R1541T
978.177	2.233	980412	PROB	2.233	n/a	n/a	n/a	-999	9	[5, 8, 1]	14	catFR1	6	R1541T
980.41	2.083	982645	PROB	2.083	n/a	n/a	n/a	-999	9	[5, 8, 1]	14	catFR1	6	R1541T
982.493	0.0	984727	DISTRACT_END	n/a	n/a	n/a	n/a	-999	9	[0, 0, 0]	n/a	catFR1	6	R1541T
982.493	1.616	984728	STOP	n/a	n/a	n/a	n/a	-999	9	[-999, -999, -999]	n/a	catFR1	6	R1541T
984.109	0.981	986347	REC_START	n/a	n/a	n/a	n/a	-999	9	[0, 0, 0]	n/a	catFR1	6	R1541T
985.09	3.458	987325	REC_WORD	3.458	n/a	LEMONADE	Beverages	3	9	[0, 0, 0]	n/a	catFR1	6	R1541T
988.548	4.931	990783	REC_WORD	4.931	n/a	COLA	n/a	-999	9	[0, 0, 0]	n/a	catFR1	6	R1541T
993.479	5.852	995714	REC_WORD	5.852	n/a	BLENDER	Appliances	5	9	[0, 0, 0]	n/a	catFR1	6	R1541T
999.331	1.205	1001566	REC_WORD	1.205	n/a	DRYER	Appliances	6	9	[0, 0, 0]	n/a	catFR1	6	R1541T
1000.536	5.564	1002771	REC_WORD	5.564	n/a	IRON	Appliances	12	9	[0, 0, 0]	n/a	catFR1	6	R1541T
1006.1	0.702	1008335	REC_WORD	0.702	n/a	ELM	Trees	-999	9	[0, 0, 0]	n/a	catFR1	6	R1541T
1006.802	1.0	1009037	REC_WORD	1.0	n/a	CYPRESS	Trees	-999	9	[0, 0, 0]	n/a	catFR1	6	R1541T
1007.802	2.313	1010037	REC_WORD_VV	2.313	n/a	<>	n/a	-999	9	[0, 0, 0]	n/a	catFR1	6	R1541T
1010.115	4.223	1012349	REC_WORD	4.223	n/a	OAK	Trees	-999	9	[0, 0, 0]	n/a	catFR1	6	R1541T
1014.338	1.421	1016571	REC_END	n/a	n/a	n/a	n/a	-999	9	[0, 0, 0]	n/a	catFR1	6	R1541T
1015.759	10.349	1018000	COUNTDOWN_START	n/a	n/a	n/a	n/a	-999	9	[0, 0, 0]	n/a	catFR1	6	R1541T
1026.108	0.0	1028339	COUNTDOWN_END	n/a	n/a	n/a	n/a	-999	9	[0, 0, 0]	n/a	catFR1	6	R1541T
1026.108	2.05	1028339	ENCODING_START	n/a	n/a	n/a	n/a	-999	10	[0, 0, 0]	n/a	catFR1	6	R1541T
1028.158	1.617	1030396	WORD	n/a	wordpools/wordpool_categorized_EN.txt	LEG	BodyParts	1	10	[0, 0, 0]	n/a	catFR1	6	R1541T
1029.775	0.917	1032007	WORD_OFF	n/a	n/a	LEG	BodyParts	1	10	[0, 0, 0]	n/a	catFR1	6	R1541T
1030.692	1.616	1032926	WORD	n/a	wordpools/wordpool_categorized_EN.txt	TOE	BodyParts	2	10	[0, 0, 0]	n/a	catFR1	6	R1541T
1032.308	0.817	1034546	WORD_OFF	n/a	n/a	TOE	BodyParts	2	10	[0, 0, 0]	n/a	catFR1	6	R1541T
1033.125	1.6	1035356	WORD	n/a	wordpools/wordpool_categorized_EN.txt	MICROWAVE	Electronics	3	10	[0, 0, 0]	n/a	catFR1	6	R1541T
1034.725	0.85	1036957	WORD_OFF	n/a	n/a	MICROWAVE	Electronics	3	10	[0, 0, 0]	n/a	catFR1	6	R1541T
1035.575	1.6	1037804	WORD	n/a	wordpools/wordpool_categorized_EN.txt	STEREO	Electronics	4	10	[0, 0, 0]	n/a	catFR1	6	R1541T
1037.175	0.933	1039406	WORD_OFF	n/a	n/a	STEREO	Electronics	4	10	[0, 0, 0]	n/a	catFR1	6	R1541T
1038.108	1.6	1040343	WORD	n/a	wordpools/wordpool_categorized_EN.txt	GLUE	OfficeSupplies	5	10	[0, 0, 0]	n/a	catFR1	6	R1541T
1039.708	0.817	1041945	WORD_OFF	n/a	n/a	GLUE	OfficeSupplies	5	10	[0, 0, 0]	n/a	catFR1	6	R1541T
1040.525	1.6	1042755	WORD	n/a	wordpools/wordpool_categorized_EN.txt	TAPE	OfficeSupplies	6	10	[0, 0, 0]	n/a	catFR1	6	R1541T
1042.125	0.933	1044356	WORD_OFF	n/a	n/a	TAPE	OfficeSupplies	6	10	[0, 0, 0]	n/a	catFR1	6	R1541T
1043.058	1.6	1045294	WORD	n/a	wordpools/wordpool_categorized_EN.txt	TABLET	Electronics	7	10	[0, 0, 0]	n/a	catFR1	6	R1541T
1044.658	0.833	1046887	WORD_OFF	n/a	n/a	TABLET	Electronics	7	10	[0, 0, 0]	n/a	catFR1	6	R1541T
1045.491	1.617	1047724	WORD	n/a	wordpools/wordpool_categorized_EN.txt	RADIO	Electronics	8	10	[0, 0, 0]	n/a	catFR1	6	R1541T
1047.108	0.983	1049344	WORD_OFF	n/a	n/a	RADIO	Electronics	8	10	[0, 0, 0]	n/a	catFR1	6	R1541T
1048.091	1.6	1050327	WORD	n/a	wordpools/wordpool_categorized_EN.txt	FOLDER	OfficeSupplies	9	10	[0, 0, 0]	n/a	catFR1	6	R1541T
1049.691	0.9	1051928	WORD_OFF	n/a	n/a	FOLDER	OfficeSupplies	9	10	[0, 0, 0]	n/a	catFR1	6	R1541T
1050.591	1.6	1052820	WORD	n/a	wordpools/wordpool_categorized_EN.txt	MARKER	OfficeSupplies	10	10	[0, 0, 0]	n/a	catFR1	6	R1541T
1052.191	0.85	1054422	WORD_OFF	n/a	n/a	MARKER	OfficeSupplies	10	10	[0, 0, 0]	n/a	catFR1	6	R1541T
1053.041	1.6	1055278	WORD	n/a	wordpools/wordpool_categorized_EN.txt	HAND	BodyParts	11	10	[0, 0, 0]	n/a	catFR1	6	R1541T
1054.641	0.983	1056870	WORD_OFF	n/a	n/a	HAND	BodyParts	11	10	[0, 0, 0]	n/a	catFR1	6	R1541T
1055.624	1.6	1057853	WORD	n/a	wordpools/wordpool_categorized_EN.txt	EYE	BodyParts	12	10	[0, 0, 0]	n/a	catFR1	6	R1541T
1057.224	0.002	1059455	WORD_OFF	n/a	n/a	EYE	BodyParts	12	10	[0, 0, 0]	n/a	catFR1	6	R1541T
1057.226	0.0	1059455	ENCODING_END	n/a	n/a	n/a	n/a	-999	10	[0, 0, 0]	n/a	catFR1	6	R1541T
1057.225	0.001	1059458	PROB	0.001	n/a	n/a	n/a	-999	10	[5, 3, 1]	9	catFR1	6	R1541T
1057.226	0.0	1059459	START	n/a	n/a	n/a	n/a	-999	10	[-999, -999, -999]	n/a	catFR1	6	R1541T
1057.226	2.082	1059464	DISTRACT_START	n/a	n/a	n/a	n/a	-999	10	[0, 0, 0]	n/a	catFR1	6	R1541T
1059.308	2.0	1061541	PROB	2.0	n/a	n/a	n/a	-999	10	[4, 8, 2]	14	catFR1	6	R1541T
1061.308	2.45	1063541	PROB	2.45	n/a	n/a	n/a	-999	10	[8, 3, 4]	15	catFR1	6	R1541T
1063.758	1.9	1065991	PROB	1.9	n/a	n/a	n/a	-999	10	[2, 8, 3]	13	catFR1	6	R1541T
1065.658	1.884	1067891	PROB	1.884	n/a	n/a	n/a	-999	10	[4, 6, 3]	13	catFR1	6	R1541T
1067.542	2.266	1069775	PROB	2.266	n/a	n/a	n/a	-999	10	[4, 3, 8]	15	catFR1	6	R1541T
1069.808	2.133	1072041	PROB	2.133	n/a	n/a	n/a	-999	10	[6, 6, 5]	17	catFR1	6	R1541T
1071.941	3.484	1074174	PROB	3.484	n/a	n/a	n/a	-999	10	[1, 3, 7]	12	catFR1	6	R1541T
1075.425	2.581	1077658	PROB	2.581	n/a	n/a	n/a	-999	10	[2, 5, 8]	15	catFR1	6	R1541T
1078.006	0.0	1080239	STOP	n/a	n/a	n/a	n/a	-999	10	[-999, -999, -999]	n/a	catFR1	6	R1541T
1078.006	1.568	1080241	DISTRACT_END	n/a	n/a	n/a	n/a	-999	10	[0, 0, 0]	n/a	catFR1	6	R1541T
1079.574	1.617	1081807	REC_START	n/a	n/a	n/a	n/a	-999	10	[0, 0, 0]	n/a	catFR1	6	R1541T
1081.191	1.045	1083423	REC_WORD	1.045	n/a	TOE	BodyParts	2	10	[0, 0, 0]	n/a	catFR1	6	R1541T
1082.236	1.646	1084468	REC_WORD	1.646	n/a	LEG	BodyParts	1	10	[0, 0, 0]	n/a	catFR1	6	R1541T
1083.882	9.83	1086114	REC_WORD	9.83	n/a	ARM	n/a	-999	10	[0, 0, 0]	n/a	catFR1	6	R1541T
1093.712	1.0	1095944	REC_WORD	1.0	n/a	DISHWASHER	Appliances	-999	10	[0, 0, 0]	n/a	catFR1	6	R1541T
1094.712	15.098	1096944	REC_WORD_VV	15.098	n/a	<>	n/a	-999	10	[0, 0, 0]	n/a	catFR1	6	R1541T
1109.81	1.563	1112040	REC_END	n/a	n/a	n/a	n/a	-999	10	[0, 0, 0]	n/a	catFR1	6	R1541T
1111.373	10.349	1113605	COUNTDOWN_START	n/a	n/a	n/a	n/a	-999	10	[0, 0, 0]	n/a	catFR1	6	R1541T
1121.722	0.0	1123953	COUNTDOWN_END	n/a	n/a	n/a	n/a	-999	10	[0, 0, 0]	n/a	catFR1	6	R1541T
1121.722	2.283	1123953	ENCODING_START	n/a	n/a	n/a	n/a	-999	11	[0, 0, 0]	n/a	catFR1	6	R1541T
1124.005	1.601	1126237	WORD	n/a	wordpools/wordpool_categorized_EN.txt	SPARROW	Birds	1	11	[0, 0, 0]	n/a	catFR1	6	R1541T
1125.606	0.983	1127839	WORD_OFF	n/a	n/a	SPARROW	Birds	1	11	[0, 0, 0]	n/a	catFR1	6	R1541T
1126.589	1.6	1128822	WORD	n/a	wordpools/wordpool_categorized_EN.txt	DOVE	Birds	2	11	[0, 0, 0]	n/a	catFR1	6	R1541T
1128.189	0.967	1130424	WORD_OFF	n/a	n/a	DOVE	Birds	2	11	[0, 0, 0]	n/a	catFR1	6	R1541T
1129.156	1.6	1131388	WORD	n/a	wordpools/wordpool_categorized_EN.txt	EAR	BodyParts	3	11	[0, 0, 0]	n/a	catFR1	6	R1541T
1130.756	0.817	1132990	WORD_OFF	n/a	n/a	EAR	BodyParts	3	11	[0, 0, 0]	n/a	catFR1	6	R1541T
1131.573	1.6	1133800	WORD	n/a	wordpools/wordpool_categorized_EN.txt	NOSE	BodyParts	4	11	[0, 0, 0]	n/a	catFR1	6	R1541T
1133.173	0.999	1135402	WORD_OFF	n/a	n/a	NOSE	BodyParts	4	11	[0, 0, 0]	n/a	catFR1	6	R1541T
1134.172	1.617	1136403	WORD	n/a	wordpools/wordpool_categorized_EN.txt	HAMMER	Tools	5	11	[0, 0, 0]	n/a	catFR1	6	R1541T
1135.789	0.817	1138023	WORD_OFF	n/a	n/a	HAMMER	Tools	5	11	[0, 0, 0]	n/a	catFR1	6	R1541T
1136.606	1.615	1138833	WORD	n/a	wordpools/wordpool_categorized_EN.txt	RATCHET	Tools	6	11	[0, 0, 0]	n/a	catFR1	6	R1541T
1138.221	0.985	1140453	WORD_OFF	n/a	n/a	RATCHET	Tools	6	11	[0, 0, 0]	n/a	catFR1	6	R1541T
1139.206	1.616	1141436	WORD	n/a	wordpools/wordpool_categorized_EN.txt	FINCH	Birds	7	11	[0, 0, 0]	n/a	catFR1	6	R1541T
1140.822	0.967	1143056	WORD_OFF	n/a	n/a	FINCH	Birds	7	11	[0, 0, 0]	n/a	catFR1	6	R1541T
1141.789	1.6	1144021	WORD	n/a	wordpools/wordpool_categorized_EN.txt	SEAGULL	Birds	8	11	[0, 0, 0]	n/a	catFR1	6	R1541T
1143.389	0.95	1145622	WORD_OFF	n/a	n/a	SEAGULL	Birds	8	11	[0, 0, 0]	n/a	catFR1	6	R1541T
1144.339	1.616	1146569	WORD	n/a	wordpools/wordpool_categorized_EN.txt	SANDER	Tools	9	11	[0, 0, 0]	n/a	catFR1	6	R1541T
1145.955	0.801	1148189	WORD_OFF	n/a	n/a	SANDER	Tools	9	11	[0, 0, 0]	n/a	catFR1	6	R1541T
1146.756	1.6	1148990	WORD	n/a	wordpools/wordpool_categorized_EN.txt	LEVEL	Tools	10	11	[0, 0, 0]	n/a	catFR1	6	R1541T
1148.356	0.849	1150582	WORD_OFF	n/a	n/a	LEVEL	Tools	10	11	[0, 0, 0]	n/a	catFR1	6	R1541T
1149.205	1.601	1151438	WORD	n/a	wordpools/wordpool_categorized_EN.txt	KNEE	BodyParts	11	11	[0, 0, 0]	n/a	catFR1	6	R1541T
1150.806	0.949	1153040	WORD_OFF	n/a	n/a	KNEE	BodyParts	11	11	[0, 0, 0]	n/a	catFR1	6	R1541T
1151.755	1.617	1153986	WORD	n/a	wordpools/wordpool_categorized_EN.txt	ARM	BodyParts	12	11	[0, 0, 0]	n/a	catFR1	6	R1541T
1153.372	0.001	1155602	PROB	0.001	n/a	n/a	n/a	-999	11	[6, 5, 5]	16	catFR1	6	R1541T
1153.373	0.0	1155603	START	n/a	n/a	n/a	n/a	-999	11	[-999, -999, -999]	n/a	catFR1	6	R1541T
1153.372	0.001	1155606	WORD_OFF	n/a	n/a	ARM	BodyParts	12	11	[0, 0, 0]	n/a	catFR1	6	R1541T
1153.373	0.0	1155606	ENCODING_END	n/a	n/a	n/a	n/a	-999	11	[0, 0, 0]	n/a	catFR1	6	R1541T
1153.373	2.983	1155606	DISTRACT_START	n/a	n/a	n/a	n/a	-999	11	[0, 0, 0]	n/a	catFR1	6	R1541T
1156.356	2.383	1158586	PROB	2.383	n/a	n/a	n/a	-999	11	[2, 1, 5]	8	catFR1	6	R1541T
1158.739	2.183	1160969	PROB	2.183	n/a	n/a	n/a	-999	11	[5, 6, 1]	12	catFR1	6	R1541T
1160.922	2.051	1163152	PROB	2.051	n/a	n/a	n/a	-999	11	[7, 5, 6]	18	catFR1	6	R1541T
1162.973	1.881	1165203	PROB	1.881	n/a	n/a	n/a	-999	11	[1, 6, 1]	8	catFR1	6	R1541T
1164.854	2.201	1167084	PROB	2.201	n/a	n/a	n/a	-999	11	[6, 5, 6]	17	catFR1	6	R1541T
1167.055	2.0	1169285	PROB	2.0	n/a	n/a	n/a	-999	11	[6, 1, 1]	8	catFR1	6	R1541T
1169.055	2.317	1171285	PROB	2.317	n/a	n/a	n/a	-999	11	[4, 2, 8]	14	catFR1	6	R1541T
1171.372	1.767	1173602	PROB	1.767	n/a	n/a	n/a	-999	11	[7, 3, 3]	13	catFR1	6	R1541T
1173.139	3.333	1175369	PROB	3.333	n/a	n/a	n/a	-999	11	[4, 3, 5]	12	catFR1	6	R1541T
1176.472	0.0	1178702	STOP	n/a	n/a	n/a	n/a	-999	11	[-999, -999, -999]	n/a	catFR1	6	R1541T
1176.472	1.865	1178704	DISTRACT_END	n/a	n/a	n/a	n/a	-999	11	[0, 0, 0]	n/a	catFR1	6	R1541T
1178.337	0.692	1180570	REC_START	n/a	n/a	n/a	n/a	-999	11	[0, 0, 0]	n/a	catFR1	6	R1541T
1179.029	1.193	1181259	REC_WORD	1.193	n/a	SPARROW	Birds	1	11	[0, 0, 0]	n/a	catFR1	6	R1541T
1180.222	9.306	1182452	REC_WORD	9.306	n/a	DOVE	Birds	2	11	[0, 0, 0]	n/a	catFR1	6	R1541T
1189.528	3.254	1191757	REC_WORD	3.254	n/a	FINGERS	BodyParts	-999	11	[0, 0, 0]	n/a	catFR1	6	R1541T
1192.782	11.34	1195011	REC_WORD	11.34	n/a	NOSE	BodyParts	4	11	[0, 0, 0]	n/a	catFR1	6	R1541T
1204.122	1.0	1206351	REC_WORD_VV	1.0	n/a	<>	n/a	-999	11	[0, 0, 0]	n/a	catFR1	6	R1541T
1205.122	3.459	1207351	REC_WORD_VV	3.459	n/a	<>	n/a	-999	11	[0, 0, 0]	n/a	catFR1	6	R1541T
1208.581	15.889	1210812	REC_END	n/a	n/a	n/a	n/a	-999	11	[0, 0, 0]	n/a	catFR1	6	R1541T
1224.47	10.349	1226702	COUNTDOWN_START	n/a	n/a	n/a	n/a	-999	11	[0, 0, 0]	n/a	catFR1	6	R1541T
1234.819	0.001	1237050	COUNTDOWN_END	n/a	n/a	n/a	n/a	-999	11	[0, 0, 0]	n/a	catFR1	6	R1541T
1234.82	2.233	1237050	ENCODING_START	n/a	n/a	n/a	n/a	-999	12	[0, 0, 0]	n/a	catFR1	6	R1541T
1237.053	1.601	1239280	WORD	n/a	wordpools/wordpool_categorized_EN.txt	RAIN	Weather	1	12	[0, 0, 0]	n/a	catFR1	6	R1541T
1238.654	0.933	1240882	WORD_OFF	n/a	n/a	RAIN	Weather	1	12	[0, 0, 0]	n/a	catFR1	6	R1541T
1239.587	1.6	1241819	WORD	n/a	wordpools/wordpool_categorized_EN.txt	LIGHTNING	Weather	2	12	[0, 0, 0]	n/a	catFR1	6	R1541T
1241.187	0.783	1243412	WORD_OFF	n/a	n/a	LIGHTNING	Weather	2	12	[0, 0, 0]	n/a	catFR1	6	R1541T
1241.97	1.616	1244194	WORD	n/a	wordpools/wordpool_categorized_EN.txt	PIGEON	Birds	3	12	[0, 0, 0]	n/a	catFR1	6	R1541T
1243.586	0.95	1245814	WORD_OFF	n/a	n/a	PIGEON	Birds	3	12	[0, 0, 0]	n/a	catFR1	6	R1541T
1244.536	1.601	1246761	WORD	n/a	wordpools/wordpool_categorized_EN.txt	CROW	Birds	4	12	[0, 0, 0]	n/a	catFR1	6	R1541T
1246.137	1.0	1248363	WORD_OFF	n/a	n/a	CROW	Birds	4	12	[0, 0, 0]	n/a	catFR1	6	R1541T
1247.137	1.614	1249364	WORD	n/a	wordpools/wordpool_categorized_EN.txt	TELEVISION	Electronics	5	12	[0, 0, 0]	n/a	catFR1	6	R1541T
1248.751	0.986	1250974	WORD_OFF	n/a	n/a	TELEVISION	Electronics	5	12	[0, 0, 0]	n/a	catFR1	6	R1541T
1249.737	1.599	1251966	WORD	n/a	wordpools/wordpool_categorized_EN.txt	CALCULATOR	Electronics	6	12	[0, 0, 0]	n/a	catFR1	6	R1541T
1251.336	0.967	1253568	WORD_OFF	n/a	n/a	CALCULATOR	Electronics	6	12	[0, 0, 0]	n/a	catFR1	6	R1541T
1252.303	1.616	1254533	WORD	n/a	wordpools/wordpool_categorized_EN.txt	DUCK	Birds	7	12	[0, 0, 0]	n/a	catFR1	6	R1541T
1253.919	0.901	1256144	WORD_OFF	n/a	n/a	DUCK	Birds	7	12	[0, 0, 0]	n/a	catFR1	6	R1541T
1254.82	1.616	1257045	WORD	n/a	wordpools/wordpool_categorized_EN.txt	HAWK	Birds	8	12	[0, 0, 0]	n/a	catFR1	6	R1541T
1256.436	0.817	1258665	WORD_OFF	n/a	n/a	HAWK	Birds	8	12	[0, 0, 0]	n/a	catFR1	6	R1541T
1257.253	1.6	1259484	WORD	n/a	wordpools/wordpool_categorized_EN.txt	SPEAKER	Electronics	9	12	[0, 0, 0]	n/a	catFR1	6	R1541T
1258.853	0.95	1261076	WORD_OFF	n/a	n/a	SPEAKER	Electronics	9	12	[0, 0, 0]	n/a	catFR1	6	R1541T
1259.803	1.6	1262032	WORD	n/a	wordpools/wordpool_categorized_EN.txt	COMPUTER	Electronics	10	12	[0, 0, 0]	n/a	catFR1	6	R1541T
1261.403	1.0	1263634	WORD_OFF	n/a	n/a	COMPUTER	Electronics	10	12	[0, 0, 0]	n/a	catFR1	6	R1541T
1262.403	1.616	1264626	WORD	n/a	wordpools/wordpool_categorized_EN.txt	SNOW	Weather	11	12	[0, 0, 0]	n/a	catFR1	6	R1541T
1264.019	0.817	1266246	WORD_OFF	n/a	n/a	SNOW	Weather	11	12	[0, 0, 0]	n/a	catFR1	6	R1541T
1264.836	1.617	1267065	WORD	n/a	wordpools/wordpool_categorized_EN.txt	TORNADO	Weather	12	12	[0, 0, 0]	n/a	catFR1	6	R1541T
1266.453	0.0	1268676	WORD_OFF	n/a	n/a	TORNADO	Weather	12	12	[0, 0, 0]	n/a	catFR1	6	R1541T
1266.453	0.001	1268680	PROB	0.001	n/a	n/a	n/a	-999	12	[7, 5, 5]	17	catFR1	6	R1541T
1266.454	0.0	1268681	START	n/a	n/a	n/a	n/a	-999	12	[-999, -999, -999]	n/a	catFR1	6	R1541T
1266.454	0.0	1268685	ENCODING_END	n/a	n/a	n/a	n/a	-999	12	[0, 0, 0]	n/a	catFR1	6	R1541T
1266.454	2.782	1268685	DISTRACT_START	n/a	n/a	n/a	n/a	-999	12	[0, 0, 0]	n/a	catFR1	6	R1541T
1269.236	2.334	1271463	PROB	2.334	n/a	n/a	n/a	-999	12	[2, 4, 1]	7	catFR1	6	R1541T
1271.57	2.116	1273797	PROB	2.116	n/a	n/a	n/a	-999	12	[1, 1, 8]	10	catFR1	6	R1541T
1273.686	1.833	1275913	PROB	1.833	n/a	n/a	n/a	-999	12	[5, 3, 3]	11	catFR1	6	R1541T
1275.519	2.051	1277746	PROB	2.051	n/a	n/a	n/a	-999	12	[7, 4, 4]	15	catFR1	6	R1541T
1277.57	3.132	1279797	PROB	3.132	n/a	n/a	n/a	-999	12	[7, 3, 4]	14	catFR1	6	R1541T
1280.702	2.167	1282929	PROB	2.167	n/a	n/a	n/a	-999	12	[5, 8, 8]	21	catFR1	6	R1541T
1282.869	2.05	1285096	PROB	2.05	n/a	n/a	n/a	-999	12	[6, 4, 5]	15	catFR1	6	R1541T
1284.919	3.567	1287146	PROB	3.567	n/a	n/a	n/a	-999	12	[1, 7, 3]	11	catFR1	6	R1541T
1288.486	0.0	1290709	DISTRACT_END	n/a	n/a	n/a	n/a	-999	12	[0, 0, 0]	n/a	catFR1	6	R1541T
1288.486	1.699	1290713	STOP	n/a	n/a	n/a	n/a	-999	12	[-999, -999, -999]	n/a	catFR1	6	R1541T
1290.185	0.933	1292411	REC_START	n/a	n/a	n/a	n/a	-999	12	[0, 0, 0]	n/a	catFR1	6	R1541T
1291.118	1.094	1293345	REC_WORD	1.094	n/a	RAIN	Weather	1	12	[0, 0, 0]	n/a	catFR1	6	R1541T
1292.212	1.477	1294438	REC_WORD	1.477	n/a	LIGHTNING	Weather	2	12	[0, 0, 0]	n/a	catFR1	6	R1541T
1293.689	1.364	1295915	REC_WORD	1.364	n/a	PIGEON	Birds	3	12	[0, 0, 0]	n/a	catFR1	6	R1541T
1295.053	2.216	1297279	REC_WORD	2.216	n/a	CROW	Birds	4	12	[0, 0, 0]	n/a	catFR1	6	R1541T
1297.269	6.671	1299495	REC_WORD	6.671	n/a	HAWK	Birds	8	12	[0, 0, 0]	n/a	catFR1	6	R1541T
1303.94	2.144	1306166	REC_WORD	2.144	n/a	WIND	Weather	-999	12	[0, 0, 0]	n/a	catFR1	6	R1541T
1306.084	3.304	1308310	REC_WORD	3.304	n/a	HURRICANE	Weather	-999	12	[0, 0, 0]	n/a	catFR1	6	R1541T
1309.388	11.035	1311614	REC_WORD	11.035	n/a	THUNDER	Weather	-999	12	[0, 0, 0]	n/a	catFR1	6	R1541T
1320.423	0.0	1322653	REC_END	n/a	n/a	n/a	n/a	-999	12	[0, 0, 0]	n/a	catFR1	6	R1541T
