onset	duration	sample	trial_type	response_time	stim_file	item_name	category	serialpos	list	test	answer	experiment	session	subject
0.0	0.0	3796	INSTRUCT_VIDEO	n/a	n/a	n/a	n/a	-999	-999	[0, 0, 0]	n/a	catFR1	3	R1247P
0.0	11.114	3796	INSTRUCT_VIDEO	n/a	n/a	n/a	n/a	-999	-999	[0, 0, 0]	n/a	catFR1	3	R1247P
11.114	0.0	14909	SESS_START	n/a	n/a	n/a	n/a	-999	-999	[0, 0, 0]	n/a	catFR1	3	R1247P
11.114	22.501	14909	MIC_TEST	n/a	n/a	n/a	n/a	-999	-999	[0, 0, 0]	n/a	catFR1	3	R1247P
33.615	11.959	37409	PRACTICE_TRIAL	n/a	n/a	n/a	n/a	-999	-999	[0, 0, 0]	n/a	catFR1	3	R1247P
45.574	10.0	49368	COUNTDOWN_START	n/a	n/a	n/a	n/a	-999	-999	[0, 0, 0]	n/a	catFR1	3	R1247P
56.002	0.008	59795	COUNTDOWN_END	n/a	n/a	n/a	n/a	-999	-999	[0, 0, 0]	n/a	catFR1	3	R1247P
56.01	1.6	59803	PRACTICE_ORIENT	n/a	n/a	n/a	n/a	-999	-999	[0, 0, 0]	n/a	catFR1	3	R1247P
57.627	1.917	61420	PRACTICE_ORIENT_OFF	n/a	n/a	n/a	n/a	-999	-999	[0, 0, 0]	n/a	catFR1	3	R1247P
59.544	1.6	63337	PRACTICE_WORD	n/a	n/a	RING	n/a	-999	-999	[0, 0, 0]	n/a	catFR1	3	R1247P
61.161	0.9	64954	PRACTICE_WORD_OFF	n/a	n/a	n/a	n/a	-999	-999	[0, 0, 0]	n/a	catFR1	3	R1247P
62.061	1.6	65854	PRACTICE_WORD	n/a	n/a	COTTON	n/a	-999	-999	[0, 0, 0]	n/a	catFR1	3	R1247P
63.679	0.766	67472	PRACTICE_WORD_OFF	n/a	n/a	n/a	n/a	-999	-999	[0, 0, 0]	n/a	catFR1	3	R1247P
64.445	1.6	68238	PRACTICE_WORD	n/a	n/a	ATTIC	n/a	-999	-999	[0, 0, 0]	n/a	catFR1	3	R1247P
66.061	0.868	69853	PRACTICE_WORD_OFF	n/a	n/a	n/a	n/a	-999	-999	[0, 0, 0]	n/a	catFR1	3	R1247P
66.929	1.6	70721	PRACTICE_WORD	n/a	n/a	CAMEL	n/a	-999	-999	[0, 0, 0]	n/a	catFR1	3	R1247P
68.546	0.934	72338	PRACTICE_WORD_OFF	n/a	n/a	n/a	n/a	-999	-999	[0, 0, 0]	n/a	catFR1	3	R1247P
69.48	1.6	73272	PRACTICE_WORD	n/a	n/a	RHINO	n/a	-999	-999	[0, 0, 0]	n/a	catFR1	3	R1247P
71.097	0.833	74889	PRACTICE_WORD_OFF	n/a	n/a	n/a	n/a	-999	-999	[0, 0, 0]	n/a	catFR1	3	R1247P
71.93	1.6	75722	PRACTICE_WORD	n/a	n/a	WAGON	n/a	-999	-999	[0, 0, 0]	n/a	catFR1	3	R1247P
73.547	0.85	77339	PRACTICE_WORD_OFF	n/a	n/a	n/a	n/a	-999	-999	[0, 0, 0]	n/a	catFR1	3	R1247P
74.397	1.6	78189	PRACTICE_WORD	n/a	n/a	CHEST	n/a	-999	-999	[0, 0, 0]	n/a	catFR1	3	R1247P
76.014	0.767	79806	PRACTICE_WORD_OFF	n/a	n/a	n/a	n/a	-999	-999	[0, 0, 0]	n/a	catFR1	3	R1247P
76.781	1.6	80573	PRACTICE_WORD	n/a	n/a	BEAM	n/a	-999	-999	[0, 0, 0]	n/a	catFR1	3	R1247P
78.398	0.917	82190	PRACTICE_WORD_OFF	n/a	n/a	n/a	n/a	-999	-999	[0, 0, 0]	n/a	catFR1	3	R1247P
79.315	1.6	83107	PRACTICE_WORD	n/a	n/a	FLOOD	n/a	-999	-999	[0, 0, 0]	n/a	catFR1	3	R1247P
80.932	0.967	84724	PRACTICE_WORD_OFF	n/a	n/a	n/a	n/a	-999	-999	[0, 0, 0]	n/a	catFR1	3	R1247P
81.899	1.6	85691	PRACTICE_WORD	n/a	n/a	IRON	n/a	-999	-999	[0, 0, 0]	n/a	catFR1	3	R1247P
83.516	0.95	87308	PRACTICE_WORD_OFF	n/a	n/a	n/a	n/a	-999	-999	[0, 0, 0]	n/a	catFR1	3	R1247P
84.466	1.6	88258	PRACTICE_WORD	n/a	n/a	WATCH	n/a	-999	-999	[0, 0, 0]	n/a	catFR1	3	R1247P
86.083	0.932	89874	PRACTICE_WORD_OFF	n/a	n/a	n/a	n/a	-999	-999	[0, 0, 0]	n/a	catFR1	3	R1247P
87.015	1.6	90806	PRACTICE_WORD	n/a	n/a	TONGUE	n/a	-999	-999	[0, 0, 0]	n/a	catFR1	3	R1247P
88.616	0.0	92407	ENCODING_END	n/a	n/a	n/a	n/a	-999	-999	[0, 0, 0]	n/a	catFR1	3	R1247P
88.616	0.001	92407	PRACTICE_WORD_OFF	n/a	n/a	n/a	n/a	-999	-999	[0, 0, 0]	n/a	catFR1	3	R1247P
88.617	0.0	92408	DISTRACT_START	n/a	n/a	n/a	n/a	-999	-999	[0, 0, 0]	n/a	catFR1	3	R1247P
88.617	0.016	92408	START	n/a	n/a	n/a	n/a	-999	1	[-999, -999, -999]	n/a	catFR1	3	R1247P
88.633	3.101	92424	PROB	3.069	n/a	n/a	n/a	-999	1	[1, 1, 5]	7.0	catFR1	3	R1247P
91.734	3.667	95525	PROB	3.641	n/a	n/a	n/a	-999	1	[4, 2, 8]	10.0	catFR1	3	R1247P
95.401	2.666	99192	PROB	2.637	n/a	n/a	n/a	-999	1	[4, 1, 2]	7.0	catFR1	3	R1247P
98.067	3.385	101858	PROB	3.362	n/a	n/a	n/a	-999	1	[7, 8, 4]	19.0	catFR1	3	R1247P
101.452	2.534	105243	PROB	2.506	n/a	n/a	n/a	-999	1	[3, 2, 2]	7.0	catFR1	3	R1247P
103.986	3.417	107776	PROB	3.38	n/a	n/a	n/a	-999	1	[8, 3, 4]	15.0	catFR1	3	R1247P
107.403	4.002	111193	PROB	4.002	n/a	n/a	n/a	-999	1	[2, 6, 8]	16.0	catFR1	3	R1247P
111.405	0.016	115195	STOP	n/a	n/a	n/a	n/a	-999	1	[-999, -999, -999]	n/a	catFR1	3	R1247P
111.421	0.7	115211	DISTRACT_END	n/a	n/a	n/a	n/a	-999	-999	[0, 0, 0]	n/a	catFR1	3	R1247P
112.121	59.344	115911	RETRIEVAL_ORIENT	n/a	n/a	n/a	n/a	-999	-999	[0, 0, 0]	n/a	catFR1	3	R1247P
171.465	0.5	175252	TRIAL	n/a	n/a	n/a	n/a	-999	1	[0, 0, 0]	n/a	catFR1	3	R1247P
171.965	10.0	175752	COUNTDOWN_START	n/a	n/a	n/a	n/a	-999	1	[0, 0, 0]	n/a	catFR1	3	R1247P
182.393	0.008	186179	COUNTDOWN_END	n/a	n/a	n/a	n/a	-999	1	[0, 0, 0]	n/a	catFR1	3	R1247P
182.401	1.6	186187	ORIENT	n/a	n/a	n/a	n/a	-999	1	[0, 0, 0]	n/a	catFR1	3	R1247P
184.017	1.934	187803	ORIENT_OFF	n/a	n/a	n/a	n/a	-999	1	[0, 0, 0]	n/a	catFR1	3	R1247P
185.951	1.6	189737	WORD	n/a	wordpools/wordpool_categorized_EN.txt	MARBLES	Toys	1	1	[0, 0, 0]	n/a	catFR1	3	R1247P
187.569	0.916	191355	WORD_OFF	n/a	n/a	n/a	n/a	-999	1	[0, 0, 0]	n/a	catFR1	3	R1247P
188.485	1.6	192271	WORD	n/a	wordpools/wordpool_categorized_EN.txt	PUZZLE	Toys	2	1	[0, 0, 0]	n/a	catFR1	3	R1247P
190.102	0.949	193888	WORD_OFF	n/a	n/a	n/a	n/a	-999	1	[0, 0, 0]	n/a	catFR1	3	R1247P
191.051	1.6	194837	WORD	n/a	wordpools/wordpool_categorized_EN.txt	VALLEY	Landscapes	3	1	[0, 0, 0]	n/a	catFR1	3	R1247P
192.669	1.017	196455	WORD_OFF	n/a	n/a	n/a	n/a	-999	1	[0, 0, 0]	n/a	catFR1	3	R1247P
193.686	1.6	197472	WORD	n/a	wordpools/wordpool_categorized_EN.txt	MOUNTAIN	Landscapes	4	1	[0, 0, 0]	n/a	catFR1	3	R1247P
195.303	0.833	199089	WORD_OFF	n/a	n/a	n/a	n/a	-999	1	[0, 0, 0]	n/a	catFR1	3	R1247P
196.136	1.6	199922	WORD	n/a	wordpools/wordpool_categorized_EN.txt	SOCKS	Clothing	5	1	[0, 0, 0]	n/a	catFR1	3	R1247P
197.754	0.85	201540	WORD_OFF	n/a	n/a	n/a	n/a	-999	1	[0, 0, 0]	n/a	catFR1	3	R1247P
198.604	1.6	202390	WORD	n/a	wordpools/wordpool_categorized_EN.txt	SHIRT	Clothing	6	1	[0, 0, 0]	n/a	catFR1	3	R1247P
200.221	0.867	204006	WORD_OFF	n/a	n/a	n/a	n/a	-999	1	[0, 0, 0]	n/a	catFR1	3	R1247P
201.088	1.6	204873	WORD	n/a	wordpools/wordpool_categorized_EN.txt	OCEAN	Landscapes	7	1	[0, 0, 0]	n/a	catFR1	3	R1247P
202.705	0.8	206490	WORD_OFF	n/a	n/a	n/a	n/a	-999	1	[0, 0, 0]	n/a	catFR1	3	R1247P
203.505	1.6	207290	WORD	n/a	wordpools/wordpool_categorized_EN.txt	ISLAND	Landscapes	8	1	[0, 0, 0]	n/a	catFR1	3	R1247P
205.122	0.767	208907	WORD_OFF	n/a	n/a	n/a	n/a	-999	1	[0, 0, 0]	n/a	catFR1	3	R1247P
205.889	1.6	209674	WORD	n/a	wordpools/wordpool_categorized_EN.txt	FOOTBALL	Toys	9	1	[0, 0, 0]	n/a	catFR1	3	R1247P
207.506	0.933	211291	WORD_OFF	n/a	n/a	n/a	n/a	-999	1	[0, 0, 0]	n/a	catFR1	3	R1247P
208.439	1.6	212224	WORD	n/a	wordpools/wordpool_categorized_EN.txt	SLINKY	Toys	10	1	[0, 0, 0]	n/a	catFR1	3	R1247P
210.055	0.818	213840	WORD_OFF	n/a	n/a	n/a	n/a	-999	1	[0, 0, 0]	n/a	catFR1	3	R1247P
210.873	1.6	214658	WORD	n/a	wordpools/wordpool_categorized_EN.txt	BLOUSE	Clothing	11	1	[0, 0, 0]	n/a	catFR1	3	R1247P
212.49	0.817	216275	WORD_OFF	n/a	n/a	n/a	n/a	-999	1	[0, 0, 0]	n/a	catFR1	3	R1247P
213.307	1.6	217092	WORD	n/a	wordpools/wordpool_categorized_EN.txt	PANTS	Clothing	12	1	[0, 0, 0]	n/a	catFR1	3	R1247P
214.924	0.0	218709	ENCODING_END	n/a	n/a	n/a	n/a	-999	1	[0, 0, 0]	n/a	catFR1	3	R1247P
214.924	0.141	218709	WORD_OFF	n/a	n/a	n/a	n/a	-999	1	[0, 0, 0]	n/a	catFR1	3	R1247P
215.065	0.0	218850	DISTRACT_START	n/a	n/a	n/a	n/a	-999	1	[0, 0, 0]	n/a	catFR1	3	R1247P
215.065	0.025	218850	START	n/a	n/a	n/a	n/a	-999	2	[-999, -999, -999]	n/a	catFR1	3	R1247P
215.09	3.134	218875	PROB	3.107	n/a	n/a	n/a	-999	2	[6, 8, 8]	22.0	catFR1	3	R1247P
218.224	2.667	222009	PROB	2.637	n/a	n/a	n/a	-999	2	[7, 4, 8]	23.0	catFR1	3	R1247P
220.891	3.835	224675	PROB	3.812	n/a	n/a	n/a	-999	2	[3, 3, 6]	12.0	catFR1	3	R1247P
224.726	3.15	228510	PROB	3.112	n/a	n/a	n/a	-999	2	[8, 2, 3]	13.0	catFR1	3	R1247P
227.876	3.801	231660	PROB	3.778	n/a	n/a	n/a	-999	2	[1, 6, 9]	16.0	catFR1	3	R1247P
231.677	3.284	235461	PROB	3.249	n/a	n/a	n/a	-999	2	[4, 1, 9]	14.0	catFR1	3	R1247P
234.961	3.684	238745	PROB	3.684	n/a	n/a	n/a	-999	2	[4, 6, 7]	17.0	catFR1	3	R1247P
238.645	0.017	242428	STOP	n/a	n/a	n/a	n/a	-999	2	[-999, -999, -999]	n/a	catFR1	3	R1247P
238.662	0.683	242445	DISTRACT_END	n/a	n/a	n/a	n/a	-999	1	[0, 0, 0]	n/a	catFR1	3	R1247P
239.345	0.517	243128	RETRIEVAL_ORIENT	n/a	n/a	n/a	n/a	-999	1	[0, 0, 0]	n/a	catFR1	3	R1247P
239.862	10.231	243645	REC_START	n/a	n/a	n/a	n/a	-999	1	[0, 0, 0]	n/a	catFR1	3	R1247P
250.093	19.781	253876	REC_WORD	10.231	n/a	MARBLES	Toys	1	1	[0, 0, 0]	n/a	catFR1	3	R1247P
269.874	5.528	273656	REC_END	n/a	n/a	n/a	n/a	-999	1	[0, 0, 0]	n/a	catFR1	3	R1247P
275.402	0.5	279184	TRIAL	n/a	n/a	n/a	n/a	-999	2	[0, 0, 0]	n/a	catFR1	3	R1247P
275.902	10.0	279684	COUNTDOWN_START	n/a	n/a	n/a	n/a	-999	2	[0, 0, 0]	n/a	catFR1	3	R1247P
286.33	0.007	290111	COUNTDOWN_END	n/a	n/a	n/a	n/a	-999	2	[0, 0, 0]	n/a	catFR1	3	R1247P
286.337	1.6	290118	ORIENT	n/a	n/a	n/a	n/a	-999	2	[0, 0, 0]	n/a	catFR1	3	R1247P
287.954	1.883	291735	ORIENT_OFF	n/a	n/a	n/a	n/a	-999	2	[0, 0, 0]	n/a	catFR1	3	R1247P
289.837	1.6	293618	WORD	n/a	wordpools/wordpool_categorized_EN.txt	PRINTER	Electronics	1	2	[0, 0, 0]	n/a	catFR1	3	R1247P
291.455	0.833	295236	WORD_OFF	n/a	n/a	n/a	n/a	-999	2	[0, 0, 0]	n/a	catFR1	3	R1247P
292.288	1.6	296069	WORD	n/a	wordpools/wordpool_categorized_EN.txt	MICROWAVE	Electronics	2	2	[0, 0, 0]	n/a	catFR1	3	R1247P
293.905	0.917	297686	WORD_OFF	n/a	n/a	n/a	n/a	-999	2	[0, 0, 0]	n/a	catFR1	3	R1247P
294.822	1.6	298603	WORD	n/a	wordpools/wordpool_categorized_EN.txt	MILK	Beverages	3	2	[0, 0, 0]	n/a	catFR1	3	R1247P
296.439	0.833	300219	WORD_OFF	n/a	n/a	n/a	n/a	-999	2	[0, 0, 0]	n/a	catFR1	3	R1247P
297.272	1.6	301052	WORD	n/a	wordpools/wordpool_categorized_EN.txt	BEER	Beverages	4	2	[0, 0, 0]	n/a	catFR1	3	R1247P
298.889	0.884	302669	WORD_OFF	n/a	n/a	n/a	n/a	-999	2	[0, 0, 0]	n/a	catFR1	3	R1247P
299.773	1.6	303553	WORD	n/a	wordpools/wordpool_categorized_EN.txt	OCTOPUS	OceanAnimals	5	2	[0, 0, 0]	n/a	catFR1	3	R1247P
301.39	0.833	305170	WORD_OFF	n/a	n/a	n/a	n/a	-999	2	[0, 0, 0]	n/a	catFR1	3	R1247P
302.223	1.6	306003	WORD	n/a	wordpools/wordpool_categorized_EN.txt	PLANKTON	OceanAnimals	6	2	[0, 0, 0]	n/a	catFR1	3	R1247P
303.84	0.984	307620	WORD_OFF	n/a	n/a	n/a	n/a	-999	2	[0, 0, 0]	n/a	catFR1	3	R1247P
304.824	1.6	308604	WORD	n/a	wordpools/wordpool_categorized_EN.txt	SCANNER	Electronics	7	2	[0, 0, 0]	n/a	catFR1	3	R1247P
306.441	0.9	310221	WORD_OFF	n/a	n/a	n/a	n/a	-999	2	[0, 0, 0]	n/a	catFR1	3	R1247P
307.341	1.6	311121	WORD	n/a	wordpools/wordpool_categorized_EN.txt	RADIO	Electronics	8	2	[0, 0, 0]	n/a	catFR1	3	R1247P
308.958	0.833	312738	WORD_OFF	n/a	n/a	n/a	n/a	-999	2	[0, 0, 0]	n/a	catFR1	3	R1247P
309.791	1.6	313571	WORD	n/a	wordpools/wordpool_categorized_EN.txt	WINE	Beverages	9	2	[0, 0, 0]	n/a	catFR1	3	R1247P
311.408	0.801	315188	WORD_OFF	n/a	n/a	n/a	n/a	-999	2	[0, 0, 0]	n/a	catFR1	3	R1247P
312.209	1.6	315989	WORD	n/a	wordpools/wordpool_categorized_EN.txt	WATER	Beverages	10	2	[0, 0, 0]	n/a	catFR1	3	R1247P
313.826	0.9	317606	WORD_OFF	n/a	n/a	n/a	n/a	-999	2	[0, 0, 0]	n/a	catFR1	3	R1247P
314.726	1.6	318505	WORD	n/a	wordpools/wordpool_categorized_EN.txt	WHALE	OceanAnimals	11	2	[0, 0, 0]	n/a	catFR1	3	R1247P
316.343	0.883	320122	WORD_OFF	n/a	n/a	n/a	n/a	-999	2	[0, 0, 0]	n/a	catFR1	3	R1247P
317.226	1.6	321005	WORD	n/a	wordpools/wordpool_categorized_EN.txt	OYSTER	OceanAnimals	12	2	[0, 0, 0]	n/a	catFR1	3	R1247P
318.843	0.0	322622	ENCODING_END	n/a	n/a	n/a	n/a	-999	2	[0, 0, 0]	n/a	catFR1	3	R1247P
318.843	0.104	322622	WORD_OFF	n/a	n/a	n/a	n/a	-999	2	[0, 0, 0]	n/a	catFR1	3	R1247P
318.947	0.0	322726	DISTRACT_START	n/a	n/a	n/a	n/a	-999	2	[0, 0, 0]	n/a	catFR1	3	R1247P
318.947	0.013	322726	START	n/a	n/a	n/a	n/a	-999	3	[-999, -999, -999]	n/a	catFR1	3	R1247P
318.96	3.901	322739	PROB	3.87	n/a	n/a	n/a	-999	3	[7, 3, 4]	14.0	catFR1	3	R1247P
322.861	3.25	326640	PROB	3.225	n/a	n/a	n/a	-999	3	[4, 7, 7]	18.0	catFR1	3	R1247P
326.111	2.701	329890	PROB	2.67	n/a	n/a	n/a	-999	3	[5, 3, 3]	11.0	catFR1	3	R1247P
328.812	2.35	332591	PROB	2.322	n/a	n/a	n/a	-999	3	[2, 2, 1]	5.0	catFR1	3	R1247P
331.162	3.201	334941	PROB	3.172	n/a	n/a	n/a	-999	3	[5, 7, 7]	19.0	catFR1	3	R1247P
334.363	3.367	338141	PROB	3.331	n/a	n/a	n/a	-999	3	[6, 6, 2]	14.0	catFR1	3	R1247P
337.73	2.941	341508	PROB	2.941	n/a	n/a	n/a	-999	3	[3, 5, 6]	14.0	catFR1	3	R1247P
340.671	0.01	344449	STOP	n/a	n/a	n/a	n/a	-999	3	[-999, -999, -999]	n/a	catFR1	3	R1247P
340.681	0.533	344459	DISTRACT_END	n/a	n/a	n/a	n/a	-999	2	[0, 0, 0]	n/a	catFR1	3	R1247P
341.214	0.517	344992	RETRIEVAL_ORIENT	n/a	n/a	n/a	n/a	-999	2	[0, 0, 0]	n/a	catFR1	3	R1247P
341.731	1.584	345509	REC_START	n/a	n/a	n/a	n/a	-999	2	[0, 0, 0]	n/a	catFR1	3	R1247P
343.315	0.694	347093	REC_WORD	1.584	n/a	PRINTER	Electronics	1	2	[0, 0, 0]	n/a	catFR1	3	R1247P
344.009	1.903	347787	REC_WORD	2.278	n/a	PLANKTON	OceanAnimals	6	2	[0, 0, 0]	n/a	catFR1	3	R1247P
345.912	25.832	349690	REC_WORD	4.181	n/a	OCTOPUS	OceanAnimals	5	2	[0, 0, 0]	n/a	catFR1	3	R1247P
371.744	4.943	375521	REC_END	n/a	n/a	n/a	n/a	-999	2	[0, 0, 0]	n/a	catFR1	3	R1247P
376.687	0.5	380463	TRIAL	n/a	n/a	n/a	n/a	-999	3	[0, 0, 0]	n/a	catFR1	3	R1247P
377.187	10.0	380963	COUNTDOWN_START	n/a	n/a	n/a	n/a	-999	3	[0, 0, 0]	n/a	catFR1	3	R1247P
387.615	0.008	391391	COUNTDOWN_END	n/a	n/a	n/a	n/a	-999	3	[0, 0, 0]	n/a	catFR1	3	R1247P
387.623	1.6	391399	ORIENT	n/a	n/a	n/a	n/a	-999	3	[0, 0, 0]	n/a	catFR1	3	R1247P
389.24	2.2	393016	ORIENT_OFF	n/a	n/a	n/a	n/a	-999	3	[0, 0, 0]	n/a	catFR1	3	R1247P
391.44	1.6	395215	WORD	n/a	wordpools/wordpool_categorized_EN.txt	CRAB	OceanAnimals	1	3	[0, 0, 0]	n/a	catFR1	3	R1247P
393.056	0.967	396831	WORD_OFF	n/a	n/a	n/a	n/a	-999	3	[0, 0, 0]	n/a	catFR1	3	R1247P
394.023	1.6	397798	WORD	n/a	wordpools/wordpool_categorized_EN.txt	JELLYFISH	OceanAnimals	2	3	[0, 0, 0]	n/a	catFR1	3	R1247P
395.641	0.767	399416	WORD_OFF	n/a	n/a	n/a	n/a	-999	3	[0, 0, 0]	n/a	catFR1	3	R1247P
396.408	1.6	400183	WORD	n/a	wordpools/wordpool_categorized_EN.txt	DESK	Furniture	3	3	[0, 0, 0]	n/a	catFR1	3	R1247P
398.024	0.984	401799	WORD_OFF	n/a	n/a	n/a	n/a	-999	3	[0, 0, 0]	n/a	catFR1	3	R1247P
399.008	1.6	402783	WORD	n/a	wordpools/wordpool_categorized_EN.txt	COUCH	Furniture	4	3	[0, 0, 0]	n/a	catFR1	3	R1247P
400.625	0.867	404400	WORD_OFF	n/a	n/a	n/a	n/a	-999	3	[0, 0, 0]	n/a	catFR1	3	R1247P
401.492	1.6	405267	WORD	n/a	wordpools/wordpool_categorized_EN.txt	RAIN	Weather	5	3	[0, 0, 0]	n/a	catFR1	3	R1247P
403.109	0.949	406884	WORD_OFF	n/a	n/a	n/a	n/a	-999	3	[0, 0, 0]	n/a	catFR1	3	R1247P
404.058	1.6	407833	WORD	n/a	wordpools/wordpool_categorized_EN.txt	HUMIDITY	Weather	6	3	[0, 0, 0]	n/a	catFR1	3	R1247P
405.676	0.867	409451	WORD_OFF	n/a	n/a	n/a	n/a	-999	3	[0, 0, 0]	n/a	catFR1	3	R1247P
406.543	1.6	410318	WORD	n/a	wordpools/wordpool_categorized_EN.txt	TABLE	Furniture	7	3	[0, 0, 0]	n/a	catFR1	3	R1247P
408.16	0.983	411935	WORD_OFF	n/a	n/a	n/a	n/a	-999	3	[0, 0, 0]	n/a	catFR1	3	R1247P
409.143	1.6	412918	WORD	n/a	wordpools/wordpool_categorized_EN.txt	BOOKCASE	Furniture	8	3	[0, 0, 0]	n/a	catFR1	3	R1247P
410.76	0.784	414534	WORD_OFF	n/a	n/a	n/a	n/a	-999	3	[0, 0, 0]	n/a	catFR1	3	R1247P
411.544	1.6	415318	WORD	n/a	wordpools/wordpool_categorized_EN.txt	SHRIMP	OceanAnimals	9	3	[0, 0, 0]	n/a	catFR1	3	R1247P
413.161	0.983	416935	WORD_OFF	n/a	n/a	n/a	n/a	-999	3	[0, 0, 0]	n/a	catFR1	3	R1247P
414.144	1.6	417918	WORD	n/a	wordpools/wordpool_categorized_EN.txt	DOLPHIN	OceanAnimals	10	3	[0, 0, 0]	n/a	catFR1	3	R1247P
415.761	0.917	419535	WORD_OFF	n/a	n/a	n/a	n/a	-999	3	[0, 0, 0]	n/a	catFR1	3	R1247P
416.678	1.6	420452	WORD	n/a	wordpools/wordpool_categorized_EN.txt	DRIZZLE	Weather	11	3	[0, 0, 0]	n/a	catFR1	3	R1247P
418.295	1.017	422069	WORD_OFF	n/a	n/a	n/a	n/a	-999	3	[0, 0, 0]	n/a	catFR1	3	R1247P
419.312	1.6	423086	WORD	n/a	wordpools/wordpool_categorized_EN.txt	THUNDER	Weather	12	3	[0, 0, 0]	n/a	catFR1	3	R1247P
420.929	0.0	424703	ENCODING_END	n/a	n/a	n/a	n/a	-999	3	[0, 0, 0]	n/a	catFR1	3	R1247P
420.929	0.105	424703	WORD_OFF	n/a	n/a	n/a	n/a	-999	3	[0, 0, 0]	n/a	catFR1	3	R1247P
421.034	0.0	424808	DISTRACT_START	n/a	n/a	n/a	n/a	-999	3	[0, 0, 0]	n/a	catFR1	3	R1247P
421.034	0.011	424808	START	n/a	n/a	n/a	n/a	-999	4	[-999, -999, -999]	n/a	catFR1	3	R1247P
421.045	4.068	424819	PROB	4.031	n/a	n/a	n/a	-999	4	[1, 8, 5]	14.0	catFR1	3	R1247P
425.113	2.901	428887	PROB	2.876	n/a	n/a	n/a	-999	4	[9, 5, 7]	21.0	catFR1	3	R1247P
428.014	3.2	431788	PROB	3.168	n/a	n/a	n/a	-999	4	[8, 3, 9]	20.0	catFR1	3	R1247P
431.214	3.651	434987	PROB	3.624	n/a	n/a	n/a	-999	4	[3, 8, 8]	19.0	catFR1	3	R1247P
434.865	3.166	438638	PROB	3.141	n/a	n/a	n/a	-999	4	[3, 8, 2]	13.0	catFR1	3	R1247P
438.031	4.256	441804	PROB	4.256	n/a	n/a	n/a	-999	4	[1, 5, 4]	13.0	catFR1	3	R1247P
442.287	0.013	446060	STOP	n/a	n/a	n/a	n/a	-999	4	[-999, -999, -999]	n/a	catFR1	3	R1247P
442.3	0.666	446073	DISTRACT_END	n/a	n/a	n/a	n/a	-999	3	[0, 0, 0]	n/a	catFR1	3	R1247P
442.966	0.518	446739	RETRIEVAL_ORIENT	n/a	n/a	n/a	n/a	-999	3	[0, 0, 0]	n/a	catFR1	3	R1247P
443.484	30.0	447257	REC_START	n/a	n/a	n/a	n/a	-999	3	[0, 0, 0]	n/a	catFR1	3	R1247P
473.484	0.011	477255	REC_WORD_VV	30.0	n/a	<>	n/a	-999	3	[0, 0, 0]	n/a	catFR1	3	R1247P
473.495	5.645	477266	REC_END	n/a	n/a	n/a	n/a	-999	3	[0, 0, 0]	n/a	catFR1	3	R1247P
479.14	0.5	482911	TRIAL	n/a	n/a	n/a	n/a	-999	4	[0, 0, 0]	n/a	catFR1	3	R1247P
479.64	10.0	483411	COUNTDOWN_START	n/a	n/a	n/a	n/a	-999	4	[0, 0, 0]	n/a	catFR1	3	R1247P
490.068	0.006	493838	COUNTDOWN_END	n/a	n/a	n/a	n/a	-999	4	[0, 0, 0]	n/a	catFR1	3	R1247P
490.074	1.6	493844	ORIENT	n/a	n/a	n/a	n/a	-999	4	[0, 0, 0]	n/a	catFR1	3	R1247P
491.675	1.951	495445	ORIENT_OFF	n/a	n/a	n/a	n/a	-999	4	[0, 0, 0]	n/a	catFR1	3	R1247P
493.626	1.6	497396	WORD	n/a	wordpools/wordpool_categorized_EN.txt	LEMONADE	Beverages	1	4	[0, 0, 0]	n/a	catFR1	3	R1247P
495.243	0.85	499013	WORD_OFF	n/a	n/a	n/a	n/a	-999	4	[0, 0, 0]	n/a	catFR1	3	R1247P
496.093	1.6	499863	WORD	n/a	wordpools/wordpool_categorized_EN.txt	JUICE	Beverages	2	4	[0, 0, 0]	n/a	catFR1	3	R1247P
497.71	0.9	501480	WORD_OFF	n/a	n/a	n/a	n/a	-999	4	[0, 0, 0]	n/a	catFR1	3	R1247P
498.61	1.6	502380	WORD	n/a	wordpools/wordpool_categorized_EN.txt	CARDINAL	Birds	3	4	[0, 0, 0]	n/a	catFR1	3	R1247P
500.227	0.799	503997	WORD_OFF	n/a	n/a	n/a	n/a	-999	4	[0, 0, 0]	n/a	catFR1	3	R1247P
501.026	1.6	504796	WORD	n/a	wordpools/wordpool_categorized_EN.txt	HAWK	Birds	4	4	[0, 0, 0]	n/a	catFR1	3	R1247P
502.628	1.017	506398	WORD_OFF	n/a	n/a	n/a	n/a	-999	4	[0, 0, 0]	n/a	catFR1	3	R1247P
503.645	1.6	507415	WORD	n/a	wordpools/wordpool_categorized_EN.txt	SCOOTER	Vehicles	5	4	[0, 0, 0]	n/a	catFR1	3	R1247P
505.261	1.017	509031	WORD_OFF	n/a	n/a	n/a	n/a	-999	4	[0, 0, 0]	n/a	catFR1	3	R1247P
506.278	1.6	510047	WORD	n/a	wordpools/wordpool_categorized_EN.txt	VAN	Vehicles	6	4	[0, 0, 0]	n/a	catFR1	3	R1247P
507.895	0.767	511664	WORD_OFF	n/a	n/a	n/a	n/a	-999	4	[0, 0, 0]	n/a	catFR1	3	R1247P
508.662	1.6	512431	WORD	n/a	wordpools/wordpool_categorized_EN.txt	CIDER	Beverages	7	4	[0, 0, 0]	n/a	catFR1	3	R1247P
510.279	0.85	514048	WORD_OFF	n/a	n/a	n/a	n/a	-999	4	[0, 0, 0]	n/a	catFR1	3	R1247P
511.129	1.6	514898	WORD	n/a	wordpools/wordpool_categorized_EN.txt	COLA	Beverages	8	4	[0, 0, 0]	n/a	catFR1	3	R1247P
512.746	0.934	516515	WORD_OFF	n/a	n/a	n/a	n/a	-999	4	[0, 0, 0]	n/a	catFR1	3	R1247P
513.68	1.6	517449	WORD	n/a	wordpools/wordpool_categorized_EN.txt	ROBIN	Birds	9	4	[0, 0, 0]	n/a	catFR1	3	R1247P
515.297	0.917	519066	WORD_OFF	n/a	n/a	n/a	n/a	-999	4	[0, 0, 0]	n/a	catFR1	3	R1247P
516.214	1.6	519983	WORD	n/a	wordpools/wordpool_categorized_EN.txt	SEAGULL	Birds	10	4	[0, 0, 0]	n/a	catFR1	3	R1247P
517.831	0.95	521600	WORD_OFF	n/a	n/a	n/a	n/a	-999	4	[0, 0, 0]	n/a	catFR1	3	R1247P
518.781	1.6	522550	WORD	n/a	wordpools/wordpool_categorized_EN.txt	CAR	Vehicles	11	4	[0, 0, 0]	n/a	catFR1	3	R1247P
520.398	0.767	524167	WORD_OFF	n/a	n/a	n/a	n/a	-999	4	[0, 0, 0]	n/a	catFR1	3	R1247P
521.165	1.6	524934	WORD	n/a	wordpools/wordpool_categorized_EN.txt	BUS	Vehicles	12	4	[0, 0, 0]	n/a	catFR1	3	R1247P
522.782	0.0	526551	ENCODING_END	n/a	n/a	n/a	n/a	-999	4	[0, 0, 0]	n/a	catFR1	3	R1247P
522.782	0.138	526551	WORD_OFF	n/a	n/a	n/a	n/a	-999	4	[0, 0, 0]	n/a	catFR1	3	R1247P
522.92	0.0	526689	DISTRACT_START	n/a	n/a	n/a	n/a	-999	4	[0, 0, 0]	n/a	catFR1	3	R1247P
522.92	0.012	526689	START	n/a	n/a	n/a	n/a	-999	5	[-999, -999, -999]	n/a	catFR1	3	R1247P
522.932	3.867	526701	PROB	3.834	n/a	n/a	n/a	-999	5	[3, 6, 3]	12.0	catFR1	3	R1247P
526.799	3.434	530567	PROB	3.399	n/a	n/a	n/a	-999	5	[8, 2, 9]	20.0	catFR1	3	R1247P
530.233	3.967	534001	PROB	3.934	n/a	n/a	n/a	-999	5	[8, 2, 9]	19.0	catFR1	3	R1247P
534.2	2.85	537968	PROB	2.821	n/a	n/a	n/a	-999	5	[1, 1, 5]	7.0	catFR1	3	R1247P
537.05	3.435	540818	PROB	3.403	n/a	n/a	n/a	-999	5	[5, 9, 9]	23.0	catFR1	3	R1247P
540.485	2.761	544253	PROB	2.761	n/a	n/a	n/a	-999	5	[7, 7, 7]	21.0	catFR1	3	R1247P
543.246	0.006	547014	STOP	n/a	n/a	n/a	n/a	-999	5	[-999, -999, -999]	n/a	catFR1	3	R1247P
543.252	0.583	547020	DISTRACT_END	n/a	n/a	n/a	n/a	-999	4	[0, 0, 0]	n/a	catFR1	3	R1247P
543.835	0.518	547603	RETRIEVAL_ORIENT	n/a	n/a	n/a	n/a	-999	4	[0, 0, 0]	n/a	catFR1	3	R1247P
544.353	2.356	548120	REC_START	n/a	n/a	n/a	n/a	-999	4	[0, 0, 0]	n/a	catFR1	3	R1247P
546.709	3.661	550476	REC_WORD	2.356	n/a	LEMONADE	Beverages	1	4	[0, 0, 0]	n/a	catFR1	3	R1247P
550.37	3.384	554137	REC_WORD	6.017	n/a	BUS	Vehicles	12	4	[0, 0, 0]	n/a	catFR1	3	R1247P
553.754	8.555	557521	REC_WORD	9.401	n/a	CAR	Vehicles	11	4	[0, 0, 0]	n/a	catFR1	3	R1247P
562.309	12.055	566076	REC_WORD	17.956	n/a	JUICE	Beverages	2	4	[0, 0, 0]	n/a	catFR1	3	R1247P
574.364	8.229	578130	REC_END	n/a	n/a	n/a	n/a	-999	4	[0, 0, 0]	n/a	catFR1	3	R1247P
582.593	0.5	586358	TRIAL	n/a	n/a	n/a	n/a	-999	5	[0, 0, 0]	n/a	catFR1	3	R1247P
583.093	10.0	586858	COUNTDOWN_START	n/a	n/a	n/a	n/a	-999	5	[0, 0, 0]	n/a	catFR1	3	R1247P
593.521	0.007	597286	COUNTDOWN_END	n/a	n/a	n/a	n/a	-999	5	[0, 0, 0]	n/a	catFR1	3	R1247P
593.528	1.6	597293	ORIENT	n/a	n/a	n/a	n/a	-999	5	[0, 0, 0]	n/a	catFR1	3	R1247P
595.145	1.984	598910	ORIENT_OFF	n/a	n/a	n/a	n/a	-999	5	[0, 0, 0]	n/a	catFR1	3	R1247P
597.129	1.6	600894	WORD	n/a	wordpools/wordpool_categorized_EN.txt	SQUID	OceanAnimals	1	5	[0, 0, 0]	n/a	catFR1	3	R1247P
598.746	0.883	602511	WORD_OFF	n/a	n/a	n/a	n/a	-999	5	[0, 0, 0]	n/a	catFR1	3	R1247P
599.629	1.6	603394	WORD	n/a	wordpools/wordpool_categorized_EN.txt	TURTLE	OceanAnimals	2	5	[0, 0, 0]	n/a	catFR1	3	R1247P
601.246	0.85	605011	WORD_OFF	n/a	n/a	n/a	n/a	-999	5	[0, 0, 0]	n/a	catFR1	3	R1247P
602.096	1.6	605860	WORD	n/a	wordpools/wordpool_categorized_EN.txt	BANANA	Fruit	3	5	[0, 0, 0]	n/a	catFR1	3	R1247P
603.713	0.767	607477	WORD_OFF	n/a	n/a	n/a	n/a	-999	5	[0, 0, 0]	n/a	catFR1	3	R1247P
604.48	1.6	608244	WORD	n/a	wordpools/wordpool_categorized_EN.txt	GRAPE	Fruit	4	5	[0, 0, 0]	n/a	catFR1	3	R1247P
606.097	0.85	609861	WORD_OFF	n/a	n/a	n/a	n/a	-999	5	[0, 0, 0]	n/a	catFR1	3	R1247P
606.947	1.6	610711	WORD	n/a	wordpools/wordpool_categorized_EN.txt	BEACH	Landscapes	5	5	[0, 0, 0]	n/a	catFR1	3	R1247P
608.564	0.85	612328	WORD_OFF	n/a	n/a	n/a	n/a	-999	5	[0, 0, 0]	n/a	catFR1	3	R1247P
609.414	1.6	613178	WORD	n/a	wordpools/wordpool_categorized_EN.txt	STREAM	Landscapes	6	5	[0, 0, 0]	n/a	catFR1	3	R1247P
611.03	0.868	614794	WORD_OFF	n/a	n/a	n/a	n/a	-999	5	[0, 0, 0]	n/a	catFR1	3	R1247P
611.898	1.6	615662	WORD	n/a	wordpools/wordpool_categorized_EN.txt	PLUM	Fruit	7	5	[0, 0, 0]	n/a	catFR1	3	R1247P
613.515	0.984	617279	WORD_OFF	n/a	n/a	n/a	n/a	-999	5	[0, 0, 0]	n/a	catFR1	3	R1247P
614.499	1.6	618263	WORD	n/a	wordpools/wordpool_categorized_EN.txt	LIME	Fruit	8	5	[0, 0, 0]	n/a	catFR1	3	R1247P
616.116	0.916	619880	WORD_OFF	n/a	n/a	n/a	n/a	-999	5	[0, 0, 0]	n/a	catFR1	3	R1247P
617.032	1.6	620796	WORD	n/a	wordpools/wordpool_categorized_EN.txt	FISH	OceanAnimals	9	5	[0, 0, 0]	n/a	catFR1	3	R1247P
618.65	0.8	622414	WORD_OFF	n/a	n/a	n/a	n/a	-999	5	[0, 0, 0]	n/a	catFR1	3	R1247P
619.45	1.6	623214	WORD	n/a	wordpools/wordpool_categorized_EN.txt	LOBSTER	OceanAnimals	10	5	[0, 0, 0]	n/a	catFR1	3	R1247P
621.066	1.0	624829	WORD_OFF	n/a	n/a	n/a	n/a	-999	5	[0, 0, 0]	n/a	catFR1	3	R1247P
622.066	1.6	625829	WORD	n/a	wordpools/wordpool_categorized_EN.txt	FOREST	Landscapes	11	5	[0, 0, 0]	n/a	catFR1	3	R1247P
623.684	0.95	627447	WORD_OFF	n/a	n/a	n/a	n/a	-999	5	[0, 0, 0]	n/a	catFR1	3	R1247P
624.634	1.6	628397	WORD	n/a	wordpools/wordpool_categorized_EN.txt	WOODS	Landscapes	12	5	[0, 0, 0]	n/a	catFR1	3	R1247P
626.251	0.0	630014	ENCODING_END	n/a	n/a	n/a	n/a	-999	5	[0, 0, 0]	n/a	catFR1	3	R1247P
626.251	0.105	630014	WORD_OFF	n/a	n/a	n/a	n/a	-999	5	[0, 0, 0]	n/a	catFR1	3	R1247P
626.356	0.0	630119	DISTRACT_START	n/a	n/a	n/a	n/a	-999	5	[0, 0, 0]	n/a	catFR1	3	R1247P
626.356	0.012	630119	START	n/a	n/a	n/a	n/a	-999	6	[-999, -999, -999]	n/a	catFR1	3	R1247P
626.368	4.117	630131	PROB	4.094	n/a	n/a	n/a	-999	6	[8, 5, 7]	20.0	catFR1	3	R1247P
630.485	3.701	634248	PROB	3.665	n/a	n/a	n/a	-999	6	[4, 4, 9]	17.0	catFR1	3	R1247P
634.186	3.367	637949	PROB	3.339	n/a	n/a	n/a	-999	6	[5, 2, 3]	10.0	catFR1	3	R1247P
637.553	3.651	641316	PROB	3.621	n/a	n/a	n/a	-999	6	[3, 5, 8]	16.0	catFR1	3	R1247P
641.204	2.434	644966	PROB	2.41	n/a	n/a	n/a	-999	6	[3, 2, 2]	7.0	catFR1	3	R1247P
643.638	3.376	647400	PROB	3.376	n/a	n/a	n/a	-999	6	[6, 5, 9]	20.0	catFR1	3	R1247P
647.014	0.007	650776	STOP	n/a	n/a	n/a	n/a	-999	6	[-999, -999, -999]	n/a	catFR1	3	R1247P
647.021	0.584	650783	DISTRACT_END	n/a	n/a	n/a	n/a	-999	5	[0, 0, 0]	n/a	catFR1	3	R1247P
647.605	0.517	651367	RETRIEVAL_ORIENT	n/a	n/a	n/a	n/a	-999	5	[0, 0, 0]	n/a	catFR1	3	R1247P
648.122	0.793	651884	REC_START	n/a	n/a	n/a	n/a	-999	5	[0, 0, 0]	n/a	catFR1	3	R1247P
648.915	0.937	652677	REC_WORD	0.793	n/a	SQUID	OceanAnimals	1	5	[0, 0, 0]	n/a	catFR1	3	R1247P
649.852	0.615	653614	REC_WORD	1.73	n/a	TURTLE	OceanAnimals	2	5	[0, 0, 0]	n/a	catFR1	3	R1247P
650.467	0.733	654229	REC_WORD	2.345	n/a	BANANA	Fruit	3	5	[0, 0, 0]	n/a	catFR1	3	R1247P
651.2	0.737	654962	REC_WORD	3.078	n/a	GRAPE	Fruit	4	5	[0, 0, 0]	n/a	catFR1	3	R1247P
651.937	26.198	655699	REC_WORD	3.815	n/a	WINE	n/a	-999	5	[0, 0, 0]	n/a	catFR1	3	R1247P
678.135	4.827	681895	REC_END	n/a	n/a	n/a	n/a	-999	5	[0, 0, 0]	n/a	catFR1	3	R1247P
682.962	0.5	686722	TRIAL	n/a	n/a	n/a	n/a	-999	6	[0, 0, 0]	n/a	catFR1	3	R1247P
683.462	10.0	687222	COUNTDOWN_START	n/a	n/a	n/a	n/a	-999	6	[0, 0, 0]	n/a	catFR1	3	R1247P
693.89	0.007	697650	COUNTDOWN_END	n/a	n/a	n/a	n/a	-999	6	[0, 0, 0]	n/a	catFR1	3	R1247P
693.897	1.6	697657	ORIENT	n/a	n/a	n/a	n/a	-999	6	[0, 0, 0]	n/a	catFR1	3	R1247P
695.514	1.984	699274	ORIENT_OFF	n/a	n/a	n/a	n/a	-999	6	[0, 0, 0]	n/a	catFR1	3	R1247P
697.498	1.6	701257	WORD	n/a	wordpools/wordpool_categorized_EN.txt	LAKE	Landscapes	1	6	[0, 0, 0]	n/a	catFR1	3	R1247P
699.115	0.932	702874	WORD_OFF	n/a	n/a	n/a	n/a	-999	6	[0, 0, 0]	n/a	catFR1	3	R1247P
700.047	1.6	703806	WORD	n/a	wordpools/wordpool_categorized_EN.txt	RIVER	Landscapes	2	6	[0, 0, 0]	n/a	catFR1	3	R1247P
701.648	0.967	705407	WORD_OFF	n/a	n/a	n/a	n/a	-999	6	[0, 0, 0]	n/a	catFR1	3	R1247P
702.615	1.6	706374	WORD	n/a	wordpools/wordpool_categorized_EN.txt	CHEETAH	Zoo	3	6	[0, 0, 0]	n/a	catFR1	3	R1247P
704.232	0.967	707991	WORD_OFF	n/a	n/a	n/a	n/a	-999	6	[0, 0, 0]	n/a	catFR1	3	R1247P
705.199	1.6	708958	WORD	n/a	wordpools/wordpool_categorized_EN.txt	CHIMPANZEE	Zoo	4	6	[0, 0, 0]	n/a	catFR1	3	R1247P
706.816	0.834	710575	WORD_OFF	n/a	n/a	n/a	n/a	-999	6	[0, 0, 0]	n/a	catFR1	3	R1247P
707.65	1.6	711409	WORD	n/a	wordpools/wordpool_categorized_EN.txt	SPARROW	Birds	5	6	[0, 0, 0]	n/a	catFR1	3	R1247P
709.267	0.95	713026	WORD_OFF	n/a	n/a	n/a	n/a	-999	6	[0, 0, 0]	n/a	catFR1	3	R1247P
710.217	1.6	713976	WORD	n/a	wordpools/wordpool_categorized_EN.txt	CROW	Birds	6	6	[0, 0, 0]	n/a	catFR1	3	R1247P
711.834	1.0	715593	WORD_OFF	n/a	n/a	n/a	n/a	-999	6	[0, 0, 0]	n/a	catFR1	3	R1247P
712.834	1.6	716593	WORD	n/a	wordpools/wordpool_categorized_EN.txt	CREEK	Landscapes	7	6	[0, 0, 0]	n/a	catFR1	3	R1247P
714.451	0.883	718210	WORD_OFF	n/a	n/a	n/a	n/a	-999	6	[0, 0, 0]	n/a	catFR1	3	R1247P
715.334	1.6	719093	WORD	n/a	wordpools/wordpool_categorized_EN.txt	HILLS	Landscapes	8	6	[0, 0, 0]	n/a	catFR1	3	R1247P
716.951	0.801	720709	WORD_OFF	n/a	n/a	n/a	n/a	-999	6	[0, 0, 0]	n/a	catFR1	3	R1247P
717.752	1.6	721510	WORD	n/a	wordpools/wordpool_categorized_EN.txt	GIRAFFE	Zoo	9	6	[0, 0, 0]	n/a	catFR1	3	R1247P
719.369	0.983	723127	WORD_OFF	n/a	n/a	n/a	n/a	-999	6	[0, 0, 0]	n/a	catFR1	3	R1247P
720.352	1.6	724110	WORD	n/a	wordpools/wordpool_categorized_EN.txt	ORANGUTAN	Zoo	10	6	[0, 0, 0]	n/a	catFR1	3	R1247P
721.969	0.884	725727	WORD_OFF	n/a	n/a	n/a	n/a	-999	6	[0, 0, 0]	n/a	catFR1	3	R1247P
722.853	1.6	726611	WORD	n/a	wordpools/wordpool_categorized_EN.txt	DOVE	Birds	11	6	[0, 0, 0]	n/a	catFR1	3	R1247P
724.47	0.883	728228	WORD_OFF	n/a	n/a	n/a	n/a	-999	6	[0, 0, 0]	n/a	catFR1	3	R1247P
725.353	1.6	729111	WORD	n/a	wordpools/wordpool_categorized_EN.txt	DUCK	Birds	12	6	[0, 0, 0]	n/a	catFR1	3	R1247P
726.97	0.0	730728	ENCODING_END	n/a	n/a	n/a	n/a	-999	6	[0, 0, 0]	n/a	catFR1	3	R1247P
726.97	0.103	730728	WORD_OFF	n/a	n/a	n/a	n/a	-999	6	[0, 0, 0]	n/a	catFR1	3	R1247P
727.073	0.0	730831	DISTRACT_START	n/a	n/a	n/a	n/a	-999	6	[0, 0, 0]	n/a	catFR1	3	R1247P
727.073	0.014	730831	START	n/a	n/a	n/a	n/a	-999	7	[-999, -999, -999]	n/a	catFR1	3	R1247P
727.087	4.684	730845	PROB	4.654	n/a	n/a	n/a	-999	7	[7, 5, 3]	15.0	catFR1	3	R1247P
731.771	3.15	735529	PROB	3.123	n/a	n/a	n/a	-999	7	[5, 1, 7]	13.0	catFR1	3	R1247P
734.921	3.218	738679	PROB	3.182	n/a	n/a	n/a	-999	7	[3, 4, 3]	10.0	catFR1	3	R1247P
738.139	3.2	741896	PROB	3.171	n/a	n/a	n/a	-999	7	[3, 9, 2]	14.0	catFR1	3	R1247P
741.339	3.301	745096	PROB	3.267	n/a	n/a	n/a	-999	7	[9, 6, 4]	19.0	catFR1	3	R1247P
744.64	5.301	748397	PROB	5.301	n/a	n/a	n/a	-999	7	[1, 3, 6]	10.0	catFR1	3	R1247P
749.941	0.017	753698	STOP	n/a	n/a	n/a	n/a	-999	7	[-999, -999, -999]	n/a	catFR1	3	R1247P
749.958	0.7	753715	DISTRACT_END	n/a	n/a	n/a	n/a	-999	6	[0, 0, 0]	n/a	catFR1	3	R1247P
750.658	0.517	754415	RETRIEVAL_ORIENT	n/a	n/a	n/a	n/a	-999	6	[0, 0, 0]	n/a	catFR1	3	R1247P
751.175	1.894	754932	REC_START	n/a	n/a	n/a	n/a	-999	6	[0, 0, 0]	n/a	catFR1	3	R1247P
753.069	0.945	756826	REC_WORD	1.894	n/a	ORANGUTAN	Zoo	10	6	[0, 0, 0]	n/a	catFR1	3	R1247P
754.014	5.561	757771	REC_WORD	2.839	n/a	CHIMPANZEE	Zoo	4	6	[0, 0, 0]	n/a	catFR1	3	R1247P
759.575	0.503	763331	REC_WORD	8.4	n/a	LAKE	Landscapes	1	6	[0, 0, 0]	n/a	catFR1	3	R1247P
760.078	21.11	763834	REC_WORD	8.903	n/a	RIVER	Landscapes	2	6	[0, 0, 0]	n/a	catFR1	3	R1247P
781.188	4.676	784943	REC_END	n/a	n/a	n/a	n/a	-999	6	[0, 0, 0]	n/a	catFR1	3	R1247P
785.864	0.5	789619	TRIAL	n/a	n/a	n/a	n/a	-999	7	[0, 0, 0]	n/a	catFR1	3	R1247P
786.364	10.0	790119	COUNTDOWN_START	n/a	n/a	n/a	n/a	-999	7	[0, 0, 0]	n/a	catFR1	3	R1247P
796.792	0.008	800546	COUNTDOWN_END	n/a	n/a	n/a	n/a	-999	7	[0, 0, 0]	n/a	catFR1	3	R1247P
796.8	1.6	800554	ORIENT	n/a	n/a	n/a	n/a	-999	7	[0, 0, 0]	n/a	catFR1	3	R1247P
798.417	2.184	802171	ORIENT_OFF	n/a	n/a	n/a	n/a	-999	7	[0, 0, 0]	n/a	catFR1	3	R1247P
800.601	1.6	804355	WORD	n/a	wordpools/wordpool_categorized_EN.txt	ROSE	Flowers	1	7	[0, 0, 0]	n/a	catFR1	3	R1247P
802.217	0.951	805971	WORD_OFF	n/a	n/a	n/a	n/a	-999	7	[0, 0, 0]	n/a	catFR1	3	R1247P
803.168	1.6	806922	WORD	n/a	wordpools/wordpool_categorized_EN.txt	PETUNIA	Flowers	2	7	[0, 0, 0]	n/a	catFR1	3	R1247P
804.785	1.0	808539	WORD_OFF	n/a	n/a	n/a	n/a	-999	7	[0, 0, 0]	n/a	catFR1	3	R1247P
805.785	1.6	809539	WORD	n/a	wordpools/wordpool_categorized_EN.txt	SODA	Beverages	3	7	[0, 0, 0]	n/a	catFR1	3	R1247P
807.402	0.866	811156	WORD_OFF	n/a	n/a	n/a	n/a	-999	7	[0, 0, 0]	n/a	catFR1	3	R1247P
808.268	1.6	812022	WORD	n/a	wordpools/wordpool_categorized_EN.txt	RUM	Beverages	4	7	[0, 0, 0]	n/a	catFR1	3	R1247P
809.886	0.933	813640	WORD_OFF	n/a	n/a	n/a	n/a	-999	7	[0, 0, 0]	n/a	catFR1	3	R1247P
810.819	1.6	814573	WORD	n/a	wordpools/wordpool_categorized_EN.txt	CELERY	Vegetables	5	7	[0, 0, 0]	n/a	catFR1	3	R1247P
812.436	0.8	816189	WORD_OFF	n/a	n/a	n/a	n/a	-999	7	[0, 0, 0]	n/a	catFR1	3	R1247P
813.236	1.6	816989	WORD	n/a	wordpools/wordpool_categorized_EN.txt	CARROT	Vegetables	6	7	[0, 0, 0]	n/a	catFR1	3	R1247P
814.853	0.783	818606	WORD_OFF	n/a	n/a	n/a	n/a	-999	7	[0, 0, 0]	n/a	catFR1	3	R1247P
815.636	1.6	819389	WORD	n/a	wordpools/wordpool_categorized_EN.txt	COFFEE	Beverages	7	7	[0, 0, 0]	n/a	catFR1	3	R1247P
817.254	0.782	821007	WORD_OFF	n/a	n/a	n/a	n/a	-999	7	[0, 0, 0]	n/a	catFR1	3	R1247P
818.036	1.6	821789	WORD	n/a	wordpools/wordpool_categorized_EN.txt	TEA	Beverages	8	7	[0, 0, 0]	n/a	catFR1	3	R1247P
819.637	0.984	823390	WORD_OFF	n/a	n/a	n/a	n/a	-999	7	[0, 0, 0]	n/a	catFR1	3	R1247P
820.621	1.6	824374	WORD	n/a	wordpools/wordpool_categorized_EN.txt	DAISY	Flowers	9	7	[0, 0, 0]	n/a	catFR1	3	R1247P
822.238	0.967	825991	WORD_OFF	n/a	n/a	n/a	n/a	-999	7	[0, 0, 0]	n/a	catFR1	3	R1247P
823.205	1.6	826958	WORD	n/a	wordpools/wordpool_categorized_EN.txt	SUNFLOWER	Flowers	10	7	[0, 0, 0]	n/a	catFR1	3	R1247P
824.822	1.017	828575	WORD_OFF	n/a	n/a	n/a	n/a	-999	7	[0, 0, 0]	n/a	catFR1	3	R1247P
825.839	1.6	829592	WORD	n/a	wordpools/wordpool_categorized_EN.txt	SPINACH	Vegetables	11	7	[0, 0, 0]	n/a	catFR1	3	R1247P
827.456	0.983	831209	WORD_OFF	n/a	n/a	n/a	n/a	-999	7	[0, 0, 0]	n/a	catFR1	3	R1247P
828.439	1.6	832192	WORD	n/a	wordpools/wordpool_categorized_EN.txt	CORN	Vegetables	12	7	[0, 0, 0]	n/a	catFR1	3	R1247P
830.055	0.001	833808	WORD_OFF	n/a	n/a	n/a	n/a	-999	7	[0, 0, 0]	n/a	catFR1	3	R1247P
830.056	0.141	833809	ENCODING_END	n/a	n/a	n/a	n/a	-999	7	[0, 0, 0]	n/a	catFR1	3	R1247P
830.197	0.0	833950	DISTRACT_START	n/a	n/a	n/a	n/a	-999	7	[0, 0, 0]	n/a	catFR1	3	R1247P
830.197	0.009	833950	START	n/a	n/a	n/a	n/a	-999	8	[-999, -999, -999]	n/a	catFR1	3	R1247P
830.206	3.884	833959	PROB	3.855	n/a	n/a	n/a	-999	8	[8, 5, 5]	18.0	catFR1	3	R1247P
834.09	3.284	837842	PROB	3.26	n/a	n/a	n/a	-999	8	[2, 2, 6]	10.0	catFR1	3	R1247P
837.374	3.051	841126	PROB	3.025	n/a	n/a	n/a	-999	8	[5, 5, 5]	15.0	catFR1	3	R1247P
840.425	2.917	844177	PROB	2.885	n/a	n/a	n/a	-999	8	[5, 5, 4]	14.0	catFR1	3	R1247P
843.342	2.784	847094	PROB	2.76	n/a	n/a	n/a	-999	8	[3, 8, 4]	15.0	catFR1	3	R1247P
846.126	3.384	849878	PROB	3.36	n/a	n/a	n/a	-999	8	[2, 6, 6]	14.0	catFR1	3	R1247P
849.51	3.033	853262	PROB	3.033	n/a	n/a	n/a	-999	8	[8, 7, 9]	24.0	catFR1	3	R1247P
852.543	0.018	856294	STOP	n/a	n/a	n/a	n/a	-999	8	[-999, -999, -999]	n/a	catFR1	3	R1247P
852.561	0.633	856312	DISTRACT_END	n/a	n/a	n/a	n/a	-999	7	[0, 0, 0]	n/a	catFR1	3	R1247P
853.194	0.517	856945	RETRIEVAL_ORIENT	n/a	n/a	n/a	n/a	-999	7	[0, 0, 0]	n/a	catFR1	3	R1247P
853.711	1.308	857462	REC_START	n/a	n/a	n/a	n/a	-999	7	[0, 0, 0]	n/a	catFR1	3	R1247P
855.019	0.48	858770	REC_WORD	1.308	n/a	ROSE	Flowers	1	7	[0, 0, 0]	n/a	catFR1	3	R1247P
855.499	0.575	859250	REC_WORD	1.788	n/a	PETUNIA	Flowers	2	7	[0, 0, 0]	n/a	catFR1	3	R1247P
856.074	0.752	859825	REC_WORD	2.363	n/a	SODA	Beverages	3	7	[0, 0, 0]	n/a	catFR1	3	R1247P
856.826	0.498	860577	REC_WORD	3.115	n/a	RUM	Beverages	4	7	[0, 0, 0]	n/a	catFR1	3	R1247P
857.324	0.536	861075	REC_WORD	3.613	n/a	COFFEE	Beverages	7	7	[0, 0, 0]	n/a	catFR1	3	R1247P
857.86	25.863	861611	REC_WORD	4.149	n/a	TEA	Beverages	8	7	[0, 0, 0]	n/a	catFR1	3	R1247P
883.723	6.461	887473	REC_END	n/a	n/a	n/a	n/a	-999	7	[0, 0, 0]	n/a	catFR1	3	R1247P
890.184	0.5	893933	TRIAL	n/a	n/a	n/a	n/a	-999	8	[0, 0, 0]	n/a	catFR1	3	R1247P
890.684	10.0	894433	COUNTDOWN_START	n/a	n/a	n/a	n/a	-999	8	[0, 0, 0]	n/a	catFR1	3	R1247P
901.112	0.008	904861	COUNTDOWN_END	n/a	n/a	n/a	n/a	-999	8	[0, 0, 0]	n/a	catFR1	3	R1247P
901.12	1.6	904869	ORIENT	n/a	n/a	n/a	n/a	-999	8	[0, 0, 0]	n/a	catFR1	3	R1247P
902.736	1.884	906485	ORIENT_OFF	n/a	n/a	n/a	n/a	-999	8	[0, 0, 0]	n/a	catFR1	3	R1247P
904.62	1.6	908369	WORD	n/a	wordpools/wordpool_categorized_EN.txt	JEEP	Vehicles	1	8	[0, 0, 0]	n/a	catFR1	3	R1247P
906.237	0.95	909986	WORD_OFF	n/a	n/a	n/a	n/a	-999	8	[0, 0, 0]	n/a	catFR1	3	R1247P
907.187	1.6	910936	WORD	n/a	wordpools/wordpool_categorized_EN.txt	MOTORCYCLE	Vehicles	2	8	[0, 0, 0]	n/a	catFR1	3	R1247P
908.804	0.9	912552	WORD_OFF	n/a	n/a	n/a	n/a	-999	8	[0, 0, 0]	n/a	catFR1	3	R1247P
909.704	1.6	913452	WORD	n/a	wordpools/wordpool_categorized_EN.txt	LEMON	Fruit	3	8	[0, 0, 0]	n/a	catFR1	3	R1247P
911.321	1.001	915069	WORD_OFF	n/a	n/a	n/a	n/a	-999	8	[0, 0, 0]	n/a	catFR1	3	R1247P
912.322	1.6	916070	WORD	n/a	wordpools/wordpool_categorized_EN.txt	CHERRY	Fruit	4	8	[0, 0, 0]	n/a	catFR1	3	R1247P
913.939	0.966	917687	WORD_OFF	n/a	n/a	n/a	n/a	-999	8	[0, 0, 0]	n/a	catFR1	3	R1247P
914.905	1.6	918653	WORD	n/a	wordpools/wordpool_categorized_EN.txt	BLENDER	Appliances	5	8	[0, 0, 0]	n/a	catFR1	3	R1247P
916.522	0.851	920270	WORD_OFF	n/a	n/a	n/a	n/a	-999	8	[0, 0, 0]	n/a	catFR1	3	R1247P
917.373	1.6	921121	WORD	n/a	wordpools/wordpool_categorized_EN.txt	VACUUM	Appliances	6	8	[0, 0, 0]	n/a	catFR1	3	R1247P
918.99	0.866	922738	WORD_OFF	n/a	n/a	n/a	n/a	-999	8	[0, 0, 0]	n/a	catFR1	3	R1247P
919.856	1.6	923604	WORD	n/a	wordpools/wordpool_categorized_EN.txt	PLANE	Vehicles	7	8	[0, 0, 0]	n/a	catFR1	3	R1247P
921.473	0.784	925221	WORD_OFF	n/a	n/a	n/a	n/a	-999	8	[0, 0, 0]	n/a	catFR1	3	R1247P
922.257	1.6	926005	WORD	n/a	wordpools/wordpool_categorized_EN.txt	TRAIN	Vehicles	8	8	[0, 0, 0]	n/a	catFR1	3	R1247P
923.874	0.867	927622	WORD_OFF	n/a	n/a	n/a	n/a	-999	8	[0, 0, 0]	n/a	catFR1	3	R1247P
924.741	1.6	928489	WORD	n/a	wordpools/wordpool_categorized_EN.txt	APPLE	Fruit	9	8	[0, 0, 0]	n/a	catFR1	3	R1247P
926.358	0.916	930106	WORD_OFF	n/a	n/a	n/a	n/a	-999	8	[0, 0, 0]	n/a	catFR1	3	R1247P
927.274	1.6	931021	WORD	n/a	wordpools/wordpool_categorized_EN.txt	ORANGE	Fruit	10	8	[0, 0, 0]	n/a	catFR1	3	R1247P
928.891	0.851	932638	WORD_OFF	n/a	n/a	n/a	n/a	-999	8	[0, 0, 0]	n/a	catFR1	3	R1247P
929.742	1.6	933489	WORD	n/a	wordpools/wordpool_categorized_EN.txt	REFRIGERATOR	Appliances	11	8	[0, 0, 0]	n/a	catFR1	3	R1247P
931.359	1.0	935106	WORD_OFF	n/a	n/a	n/a	n/a	-999	8	[0, 0, 0]	n/a	catFR1	3	R1247P
932.359	1.6	936106	WORD	n/a	wordpools/wordpool_categorized_EN.txt	WASHER	Appliances	12	8	[0, 0, 0]	n/a	catFR1	3	R1247P
933.976	0.0	937723	ENCODING_END	n/a	n/a	n/a	n/a	-999	8	[0, 0, 0]	n/a	catFR1	3	R1247P
933.976	0.106	937723	WORD_OFF	n/a	n/a	n/a	n/a	-999	8	[0, 0, 0]	n/a	catFR1	3	R1247P
934.082	0.0	937829	DISTRACT_START	n/a	n/a	n/a	n/a	-999	8	[0, 0, 0]	n/a	catFR1	3	R1247P
934.082	0.01	937829	START	n/a	n/a	n/a	n/a	-999	9	[-999, -999, -999]	n/a	catFR1	3	R1247P
934.092	3.718	937839	PROB	3.683	n/a	n/a	n/a	-999	9	[9, 2, 9]	20.0	catFR1	3	R1247P
937.81	3.417	941557	PROB	3.38	n/a	n/a	n/a	-999	9	[6, 5, 7]	18.0	catFR1	3	R1247P
941.227	3.051	944974	PROB	3.027	n/a	n/a	n/a	-999	9	[5, 3, 8]	16.0	catFR1	3	R1247P
944.278	3.284	948025	PROB	3.256	n/a	n/a	n/a	-999	9	[4, 1, 5]	9.0	catFR1	3	R1247P
947.562	3.784	951308	PROB	3.748	n/a	n/a	n/a	-999	9	[7, 1, 9]	17.0	catFR1	3	R1247P
951.346	3.556	955092	PROB	3.556	n/a	n/a	n/a	-999	9	[6, 4, 5]	15.0	catFR1	3	R1247P
954.902	0.011	958648	STOP	n/a	n/a	n/a	n/a	-999	9	[-999, -999, -999]	n/a	catFR1	3	R1247P
954.913	0.667	958659	DISTRACT_END	n/a	n/a	n/a	n/a	-999	8	[0, 0, 0]	n/a	catFR1	3	R1247P
955.58	0.517	959326	RETRIEVAL_ORIENT	n/a	n/a	n/a	n/a	-999	8	[0, 0, 0]	n/a	catFR1	3	R1247P
956.097	1.888	959843	REC_START	n/a	n/a	n/a	n/a	-999	8	[0, 0, 0]	n/a	catFR1	3	R1247P
957.985	0.892	961731	REC_WORD	1.888	n/a	JEEP	Vehicles	1	8	[0, 0, 0]	n/a	catFR1	3	R1247P
958.877	4.838	962623	REC_WORD	2.78	n/a	MOTORCYCLE	Vehicles	2	8	[0, 0, 0]	n/a	catFR1	3	R1247P
963.715	0.411	967461	REC_WORD	7.618	n/a	ROSE	n/a	-999	8	[0, 0, 0]	n/a	catFR1	3	R1247P
964.126	21.982	967872	REC_WORD	8.029	n/a	PETUNIA	n/a	-999	8	[0, 0, 0]	n/a	catFR1	3	R1247P
986.108	4.545	989852	REC_END	n/a	n/a	n/a	n/a	-999	8	[0, 0, 0]	n/a	catFR1	3	R1247P
990.653	0.5	994397	TRIAL	n/a	n/a	n/a	n/a	-999	9	[0, 0, 0]	n/a	catFR1	3	R1247P
991.153	10.0	994897	COUNTDOWN_START	n/a	n/a	n/a	n/a	-999	9	[0, 0, 0]	n/a	catFR1	3	R1247P
1001.581	0.007	1005325	COUNTDOWN_END	n/a	n/a	n/a	n/a	-999	9	[0, 0, 0]	n/a	catFR1	3	R1247P
1001.588	1.6	1005332	ORIENT	n/a	n/a	n/a	n/a	-999	9	[0, 0, 0]	n/a	catFR1	3	R1247P
1003.205	1.833	1006949	ORIENT_OFF	n/a	n/a	n/a	n/a	-999	9	[0, 0, 0]	n/a	catFR1	3	R1247P
1005.038	1.6	1008781	WORD	n/a	wordpools/wordpool_categorized_EN.txt	BEAR	Zoo	1	9	[0, 0, 0]	n/a	catFR1	3	R1247P
1006.656	1.017	1010399	WORD_OFF	n/a	n/a	n/a	n/a	-999	9	[0, 0, 0]	n/a	catFR1	3	R1247P
1007.673	1.6	1011416	WORD	n/a	wordpools/wordpool_categorized_EN.txt	PANDA	Zoo	2	9	[0, 0, 0]	n/a	catFR1	3	R1247P
1009.29	0.967	1013033	WORD_OFF	n/a	n/a	n/a	n/a	-999	9	[0, 0, 0]	n/a	catFR1	3	R1247P
1010.257	1.6	1014000	WORD	n/a	wordpools/wordpool_categorized_EN.txt	DISHWASHER	Appliances	3	9	[0, 0, 0]	n/a	catFR1	3	R1247P
1011.874	0.767	1015617	WORD_OFF	n/a	n/a	n/a	n/a	-999	9	[0, 0, 0]	n/a	catFR1	3	R1247P
1012.641	1.6	1016384	WORD	n/a	wordpools/wordpool_categorized_EN.txt	STOVE	Appliances	4	9	[0, 0, 0]	n/a	catFR1	3	R1247P
1014.258	0.95	1018001	WORD_OFF	n/a	n/a	n/a	n/a	-999	9	[0, 0, 0]	n/a	catFR1	3	R1247P
1015.208	1.6	1018951	WORD	n/a	wordpools/wordpool_categorized_EN.txt	NOSE	BodyParts	5	9	[0, 0, 0]	n/a	catFR1	3	R1247P
1016.825	0.983	1020568	WORD_OFF	n/a	n/a	n/a	n/a	-999	9	[0, 0, 0]	n/a	catFR1	3	R1247P
1017.808	1.6	1021551	WORD	n/a	wordpools/wordpool_categorized_EN.txt	KNEE	BodyParts	6	9	[0, 0, 0]	n/a	catFR1	3	R1247P
1019.425	0.934	1023168	WORD_OFF	n/a	n/a	n/a	n/a	-999	9	[0, 0, 0]	n/a	catFR1	3	R1247P
1020.359	1.6	1024102	WORD	n/a	wordpools/wordpool_categorized_EN.txt	IRON	Appliances	7	9	[0, 0, 0]	n/a	catFR1	3	R1247P
1021.976	0.933	1025719	WORD_OFF	n/a	n/a	n/a	n/a	-999	9	[0, 0, 0]	n/a	catFR1	3	R1247P
1022.909	1.6	1026651	WORD	n/a	wordpools/wordpool_categorized_EN.txt	MIXER	Appliances	8	9	[0, 0, 0]	n/a	catFR1	3	R1247P
1024.526	0.95	1028268	WORD_OFF	n/a	n/a	n/a	n/a	-999	9	[0, 0, 0]	n/a	catFR1	3	R1247P
1025.476	1.6	1029218	WORD	n/a	wordpools/wordpool_categorized_EN.txt	GORILLA	Zoo	9	9	[0, 0, 0]	n/a	catFR1	3	R1247P
1027.093	0.966	1030835	WORD_OFF	n/a	n/a	n/a	n/a	-999	9	[0, 0, 0]	n/a	catFR1	3	R1247P
1028.059	1.6	1031801	WORD	n/a	wordpools/wordpool_categorized_EN.txt	TIGER	Zoo	10	9	[0, 0, 0]	n/a	catFR1	3	R1247P
1029.66	0.967	1033402	WORD_OFF	n/a	n/a	n/a	n/a	-999	9	[0, 0, 0]	n/a	catFR1	3	R1247P
1030.627	1.6	1034369	WORD	n/a	wordpools/wordpool_categorized_EN.txt	EYE	BodyParts	11	9	[0, 0, 0]	n/a	catFR1	3	R1247P
1032.244	0.85	1035986	WORD_OFF	n/a	n/a	n/a	n/a	-999	9	[0, 0, 0]	n/a	catFR1	3	R1247P
1033.094	1.6	1036836	WORD	n/a	wordpools/wordpool_categorized_EN.txt	TOE	BodyParts	12	9	[0, 0, 0]	n/a	catFR1	3	R1247P
1034.711	0.001	1038453	WORD_OFF	n/a	n/a	n/a	n/a	-999	9	[0, 0, 0]	n/a	catFR1	3	R1247P
1034.712	0.106	1038454	ENCODING_END	n/a	n/a	n/a	n/a	-999	9	[0, 0, 0]	n/a	catFR1	3	R1247P
1034.818	0.001	1038560	DISTRACT_START	n/a	n/a	n/a	n/a	-999	9	[0, 0, 0]	n/a	catFR1	3	R1247P
1034.819	0.009	1038561	START	n/a	n/a	n/a	n/a	-999	10	[-999, -999, -999]	n/a	catFR1	3	R1247P
1034.828	4.25	1038570	PROB	4.216	n/a	n/a	n/a	-999	10	[5, 7, 3]	15.0	catFR1	3	R1247P
1039.078	3.967	1042820	PROB	3.936	n/a	n/a	n/a	-999	10	[1, 5, 7]	13.0	catFR1	3	R1247P
1043.045	2.652	1046786	PROB	2.618	n/a	n/a	n/a	-999	10	[8, 8, 7]	23.0	catFR1	3	R1247P
1045.697	3.333	1049438	PROB	3.309	n/a	n/a	n/a	-999	10	[5, 6, 3]	14.0	catFR1	3	R1247P
1049.03	2.985	1052771	PROB	2.96	n/a	n/a	n/a	-999	10	[5, 5, 1]	11.0	catFR1	3	R1247P
1052.015	3.48	1055756	PROB	3.48	n/a	n/a	n/a	-999	10	[3, 8, 5]	16.0	catFR1	3	R1247P
1055.495	0.021	1059236	STOP	n/a	n/a	n/a	n/a	-999	10	[-999, -999, -999]	n/a	catFR1	3	R1247P
1055.516	0.666	1059257	DISTRACT_END	n/a	n/a	n/a	n/a	-999	9	[0, 0, 0]	n/a	catFR1	3	R1247P
1056.182	0.517	1059923	RETRIEVAL_ORIENT	n/a	n/a	n/a	n/a	-999	9	[0, 0, 0]	n/a	catFR1	3	R1247P
1056.699	3.186	1060440	REC_START	n/a	n/a	n/a	n/a	-999	9	[0, 0, 0]	n/a	catFR1	3	R1247P
1059.885	0.46	1063626	REC_WORD	3.186	n/a	BEAR	Zoo	1	9	[0, 0, 0]	n/a	catFR1	3	R1247P
1060.345	3.816	1064086	REC_WORD	3.646	n/a	PANDA	Zoo	2	9	[0, 0, 0]	n/a	catFR1	3	R1247P
1064.161	22.55	1067901	REC_WORD	7.462	n/a	MIXER	Appliances	8	9	[0, 0, 0]	n/a	catFR1	3	R1247P
1086.711	4.394	1090450	REC_END	n/a	n/a	n/a	n/a	-999	9	[0, 0, 0]	n/a	catFR1	3	R1247P
1091.105	0.5	1094844	TRIAL	n/a	n/a	n/a	n/a	-999	10	[0, 0, 0]	n/a	catFR1	3	R1247P
1091.605	10.0	1095344	COUNTDOWN_START	n/a	n/a	n/a	n/a	-999	10	[0, 0, 0]	n/a	catFR1	3	R1247P
1102.033	0.007	1105771	COUNTDOWN_END	n/a	n/a	n/a	n/a	-999	10	[0, 0, 0]	n/a	catFR1	3	R1247P
1102.04	1.6	1105778	ORIENT	n/a	n/a	n/a	n/a	-999	10	[0, 0, 0]	n/a	catFR1	3	R1247P
1103.658	2.083	1107396	ORIENT_OFF	n/a	n/a	n/a	n/a	-999	10	[0, 0, 0]	n/a	catFR1	3	R1247P
1105.741	1.6	1109479	WORD	n/a	wordpools/wordpool_categorized_EN.txt	BARBIE	Toys	1	10	[0, 0, 0]	n/a	catFR1	3	R1247P
1107.358	0.817	1111096	WORD_OFF	n/a	n/a	n/a	n/a	-999	10	[0, 0, 0]	n/a	catFR1	3	R1247P
1108.175	1.6	1111913	WORD	n/a	wordpools/wordpool_categorized_EN.txt	DOLL	Toys	2	10	[0, 0, 0]	n/a	catFR1	3	R1247P
1109.792	0.817	1113530	WORD_OFF	n/a	n/a	n/a	n/a	-999	10	[0, 0, 0]	n/a	catFR1	3	R1247P
1110.609	1.6	1114347	WORD	n/a	wordpools/wordpool_categorized_EN.txt	FLY	Insects	3	10	[0, 0, 0]	n/a	catFR1	3	R1247P
1112.226	0.917	1115964	WORD_OFF	n/a	n/a	n/a	n/a	-999	10	[0, 0, 0]	n/a	catFR1	3	R1247P
1113.143	1.6	1116881	WORD	n/a	wordpools/wordpool_categorized_EN.txt	ANT	Insects	4	10	[0, 0, 0]	n/a	catFR1	3	R1247P
1114.76	0.783	1118498	WORD_OFF	n/a	n/a	n/a	n/a	-999	10	[0, 0, 0]	n/a	catFR1	3	R1247P
1115.543	1.6	1119281	WORD	n/a	wordpools/wordpool_categorized_EN.txt	TRUCK	Vehicles	5	10	[0, 0, 0]	n/a	catFR1	3	R1247P
1117.16	0.95	1120898	WORD_OFF	n/a	n/a	n/a	n/a	-999	10	[0, 0, 0]	n/a	catFR1	3	R1247P
1118.11	1.6	1121848	WORD	n/a	wordpools/wordpool_categorized_EN.txt	BOAT	Vehicles	6	10	[0, 0, 0]	n/a	catFR1	3	R1247P
1119.727	0.834	1123464	WORD_OFF	n/a	n/a	n/a	n/a	-999	10	[0, 0, 0]	n/a	catFR1	3	R1247P
1120.561	1.6	1124298	WORD	n/a	wordpools/wordpool_categorized_EN.txt	BLOCKS	Toys	7	10	[0, 0, 0]	n/a	catFR1	3	R1247P
1122.178	0.882	1125915	WORD_OFF	n/a	n/a	n/a	n/a	-999	10	[0, 0, 0]	n/a	catFR1	3	R1247P
1123.06	1.6	1126797	WORD	n/a	wordpools/wordpool_categorized_EN.txt	DOLLHOUSE	Toys	8	10	[0, 0, 0]	n/a	catFR1	3	R1247P
1124.678	0.8	1128415	WORD_OFF	n/a	n/a	n/a	n/a	-999	10	[0, 0, 0]	n/a	catFR1	3	R1247P
1125.478	1.6	1129215	WORD	n/a	wordpools/wordpool_categorized_EN.txt	GNAT	Insects	9	10	[0, 0, 0]	n/a	catFR1	3	R1247P
1127.095	0.884	1130832	WORD_OFF	n/a	n/a	n/a	n/a	-999	10	[0, 0, 0]	n/a	catFR1	3	R1247P
1127.979	1.6	1131716	WORD	n/a	wordpools/wordpool_categorized_EN.txt	BEETLE	Insects	10	10	[0, 0, 0]	n/a	catFR1	3	R1247P
1129.596	0.85	1133333	WORD_OFF	n/a	n/a	n/a	n/a	-999	10	[0, 0, 0]	n/a	catFR1	3	R1247P
1130.446	1.6	1134183	WORD	n/a	wordpools/wordpool_categorized_EN.txt	MOPED	Vehicles	11	10	[0, 0, 0]	n/a	catFR1	3	R1247P
1132.062	0.868	1135799	WORD_OFF	n/a	n/a	n/a	n/a	-999	10	[0, 0, 0]	n/a	catFR1	3	R1247P
1132.93	1.6	1136667	WORD	n/a	wordpools/wordpool_categorized_EN.txt	BIKE	Vehicles	12	10	[0, 0, 0]	n/a	catFR1	3	R1247P
1134.547	0.0	1138284	ENCODING_END	n/a	n/a	n/a	n/a	-999	10	[0, 0, 0]	n/a	catFR1	3	R1247P
1134.547	0.133	1138284	WORD_OFF	n/a	n/a	n/a	n/a	-999	10	[0, 0, 0]	n/a	catFR1	3	R1247P
1134.68	0.0	1138417	DISTRACT_START	n/a	n/a	n/a	n/a	-999	10	[0, 0, 0]	n/a	catFR1	3	R1247P
1134.68	0.017	1138417	START	n/a	n/a	n/a	n/a	-999	11	[-999, -999, -999]	n/a	catFR1	3	R1247P
1134.697	3.684	1138434	PROB	3.661	n/a	n/a	n/a	-999	11	[7, 4, 6]	17.0	catFR1	3	R1247P
1138.381	3.617	1142117	PROB	3.585	n/a	n/a	n/a	-999	11	[3, 9, 4]	16.0	catFR1	3	R1247P
1141.998	3.884	1145734	PROB	3.857	n/a	n/a	n/a	-999	11	[5, 7, 4]	16.0	catFR1	3	R1247P
1145.882	3.268	1149618	PROB	3.243	n/a	n/a	n/a	-999	11	[9, 4, 4]	17.0	catFR1	3	R1247P
1149.15	4.567	1152886	PROB	4.528	n/a	n/a	n/a	-999	11	[2, 6, 7]	15.0	catFR1	3	R1247P
1153.717	3.593	1157453	PROB	3.593	n/a	n/a	n/a	-999	11	[5, 3, 6]	14.0	catFR1	3	R1247P
1157.31	0.008	1161045	STOP	n/a	n/a	n/a	n/a	-999	11	[-999, -999, -999]	n/a	catFR1	3	R1247P
1157.318	0.667	1161053	DISTRACT_END	n/a	n/a	n/a	n/a	-999	10	[0, 0, 0]	n/a	catFR1	3	R1247P
1157.985	0.517	1161720	RETRIEVAL_ORIENT	n/a	n/a	n/a	n/a	-999	10	[0, 0, 0]	n/a	catFR1	3	R1247P
1158.502	1.82	1162237	REC_START	n/a	n/a	n/a	n/a	-999	10	[0, 0, 0]	n/a	catFR1	3	R1247P
1160.322	0.705	1164057	REC_WORD	1.82	n/a	BARBIE	Toys	1	10	[0, 0, 0]	n/a	catFR1	3	R1247P
1161.027	0.664	1164762	REC_WORD	2.525	n/a	DOLL	Toys	2	10	[0, 0, 0]	n/a	catFR1	3	R1247P
1161.691	1.842	1165426	REC_WORD	3.189	n/a	DOLLHOUSE	Toys	8	10	[0, 0, 0]	n/a	catFR1	3	R1247P
1163.533	1.387	1167268	REC_WORD	5.031	n/a	ANT	Insects	4	10	[0, 0, 0]	n/a	catFR1	3	R1247P
1164.92	7.488	1168655	REC_WORD	6.418	n/a	LAD	n/a	-999	10	[0, 0, 0]	n/a	catFR1	3	R1247P
1172.408	16.106	1176143	REC_WORD	13.906	n/a	TRUCK	Vehicles	5	10	[0, 0, 0]	n/a	catFR1	3	R1247P
1188.514	4.877	1192248	REC_END	n/a	n/a	n/a	n/a	-999	10	[0, 0, 0]	n/a	catFR1	3	R1247P
1193.391	0.5	1197125	TRIAL	n/a	n/a	n/a	n/a	-999	11	[0, 0, 0]	n/a	catFR1	3	R1247P
1193.891	10.0	1197625	COUNTDOWN_START	n/a	n/a	n/a	n/a	-999	11	[0, 0, 0]	n/a	catFR1	3	R1247P
1204.319	0.008	1208052	COUNTDOWN_END	n/a	n/a	n/a	n/a	-999	11	[0, 0, 0]	n/a	catFR1	3	R1247P
1204.327	1.6	1208060	ORIENT	n/a	n/a	n/a	n/a	-999	11	[0, 0, 0]	n/a	catFR1	3	R1247P
1205.944	2.25	1209677	ORIENT_OFF	n/a	n/a	n/a	n/a	-999	11	[0, 0, 0]	n/a	catFR1	3	R1247P
1208.194	1.6	1211927	WORD	n/a	wordpools/wordpool_categorized_EN.txt	MONKEY	Zoo	1	11	[0, 0, 0]	n/a	catFR1	3	R1247P
1209.811	0.784	1213544	WORD_OFF	n/a	n/a	n/a	n/a	-999	11	[0, 0, 0]	n/a	catFR1	3	R1247P
1210.595	1.6	1214328	WORD	n/a	wordpools/wordpool_categorized_EN.txt	LION	Zoo	2	11	[0, 0, 0]	n/a	catFR1	3	R1247P
1212.212	0.9	1215945	WORD_OFF	n/a	n/a	n/a	n/a	-999	11	[0, 0, 0]	n/a	catFR1	3	R1247P
1213.112	1.6	1216845	WORD	n/a	wordpools/wordpool_categorized_EN.txt	COAT	Clothing	3	11	[0, 0, 0]	n/a	catFR1	3	R1247P
1214.729	0.833	1218461	WORD_OFF	n/a	n/a	n/a	n/a	-999	11	[0, 0, 0]	n/a	catFR1	3	R1247P
1215.562	1.6	1219294	WORD	n/a	wordpools/wordpool_categorized_EN.txt	SKIRT	Clothing	4	11	[0, 0, 0]	n/a	catFR1	3	R1247P
1217.179	0.883	1220911	WORD_OFF	n/a	n/a	n/a	n/a	-999	11	[0, 0, 0]	n/a	catFR1	3	R1247P
1218.062	1.6	1221794	WORD	n/a	wordpools/wordpool_categorized_EN.txt	LILAC	Flowers	5	11	[0, 0, 0]	n/a	catFR1	3	R1247P
1219.679	1.001	1223411	WORD_OFF	n/a	n/a	n/a	n/a	-999	11	[0, 0, 0]	n/a	catFR1	3	R1247P
1220.68	1.6	1224412	WORD	n/a	wordpools/wordpool_categorized_EN.txt	ORCHID	Flowers	6	11	[0, 0, 0]	n/a	catFR1	3	R1247P
1222.297	0.8	1226029	WORD_OFF	n/a	n/a	n/a	n/a	-999	11	[0, 0, 0]	n/a	catFR1	3	R1247P
1223.097	1.6	1226829	WORD	n/a	wordpools/wordpool_categorized_EN.txt	ELEPHANT	Zoo	7	11	[0, 0, 0]	n/a	catFR1	3	R1247P
1224.714	0.833	1228446	WORD_OFF	n/a	n/a	n/a	n/a	-999	11	[0, 0, 0]	n/a	catFR1	3	R1247P
1225.547	1.6	1229279	WORD	n/a	wordpools/wordpool_categorized_EN.txt	ZEBRA	Zoo	8	11	[0, 0, 0]	n/a	catFR1	3	R1247P
1227.164	0.783	1230896	WORD_OFF	n/a	n/a	n/a	n/a	-999	11	[0, 0, 0]	n/a	catFR1	3	R1247P
1227.947	1.6	1231679	WORD	n/a	wordpools/wordpool_categorized_EN.txt	DRESS	Clothing	9	11	[0, 0, 0]	n/a	catFR1	3	R1247P
1229.565	0.817	1233297	WORD_OFF	n/a	n/a	n/a	n/a	-999	11	[0, 0, 0]	n/a	catFR1	3	R1247P
1230.382	1.6	1234114	WORD	n/a	wordpools/wordpool_categorized_EN.txt	SHORTS	Clothing	10	11	[0, 0, 0]	n/a	catFR1	3	R1247P
1231.999	0.95	1235731	WORD_OFF	n/a	n/a	n/a	n/a	-999	11	[0, 0, 0]	n/a	catFR1	3	R1247P
1232.949	1.6	1236681	WORD	n/a	wordpools/wordpool_categorized_EN.txt	MARIGOLD	Flowers	11	11	[0, 0, 0]	n/a	catFR1	3	R1247P
1234.566	0.833	1238297	WORD_OFF	n/a	n/a	n/a	n/a	-999	11	[0, 0, 0]	n/a	catFR1	3	R1247P
1235.399	1.6	1239130	WORD	n/a	wordpools/wordpool_categorized_EN.txt	CARNATION	Flowers	12	11	[0, 0, 0]	n/a	catFR1	3	R1247P
1237.015	0.0	1240746	ENCODING_END	n/a	n/a	n/a	n/a	-999	11	[0, 0, 0]	n/a	catFR1	3	R1247P
1237.015	0.107	1240746	WORD_OFF	n/a	n/a	n/a	n/a	-999	11	[0, 0, 0]	n/a	catFR1	3	R1247P
1237.122	0.0	1240853	DISTRACT_START	n/a	n/a	n/a	n/a	-999	11	[0, 0, 0]	n/a	catFR1	3	R1247P
1237.122	0.011	1240853	START	n/a	n/a	n/a	n/a	-999	12	[-999, -999, -999]	n/a	catFR1	3	R1247P
1237.133	3.751	1240864	PROB	3.721	n/a	n/a	n/a	-999	12	[6, 2, 5]	13.0	catFR1	3	R1247P
1240.884	3.283	1244615	PROB	3.258	n/a	n/a	n/a	-999	12	[6, 6, 6]	18.0	catFR1	3	R1247P
1244.167	3.818	1247898	PROB	3.79	n/a	n/a	n/a	-999	12	[3, 5, 2]	10.0	catFR1	3	R1247P
1247.985	3.167	1251716	PROB	3.132	n/a	n/a	n/a	-999	12	[9, 5, 9]	23.0	catFR1	3	R1247P
1251.152	2.851	1254883	PROB	2.821	n/a	n/a	n/a	-999	12	[8, 6, 8]	22.0	catFR1	3	R1247P
1254.003	3.148	1257733	PROB	3.148	n/a	n/a	n/a	-999	12	[3, 2, 8]	13.0	catFR1	3	R1247P
1257.151	0.019	1260881	STOP	n/a	n/a	n/a	n/a	-999	12	[-999, -999, -999]	n/a	catFR1	3	R1247P
1257.17	0.583	1260900	DISTRACT_END	n/a	n/a	n/a	n/a	-999	11	[0, 0, 0]	n/a	catFR1	3	R1247P
1257.753	0.518	1261483	RETRIEVAL_ORIENT	n/a	n/a	n/a	n/a	-999	11	[0, 0, 0]	n/a	catFR1	3	R1247P
1258.271	30.0	1262001	REC_START	n/a	n/a	n/a	n/a	-999	11	[0, 0, 0]	n/a	catFR1	3	R1247P
1288.271	0.01	1292000	REC_WORD_VV	30.0	n/a	<>	n/a	-999	11	[0, 0, 0]	n/a	catFR1	3	R1247P
1288.281	4.546	1292010	REC_END	n/a	n/a	n/a	n/a	-999	11	[0, 0, 0]	n/a	catFR1	3	R1247P
1292.827	0.5	1296555	TRIAL	n/a	n/a	n/a	n/a	-999	12	[0, 0, 0]	n/a	catFR1	3	R1247P
1293.327	10.0	1297055	COUNTDOWN_START	n/a	n/a	n/a	n/a	-999	12	[0, 0, 0]	n/a	catFR1	3	R1247P
1303.755	0.007	1307483	COUNTDOWN_END	n/a	n/a	n/a	n/a	-999	12	[0, 0, 0]	n/a	catFR1	3	R1247P
1303.762	1.6	1307490	ORIENT	n/a	n/a	n/a	n/a	-999	12	[0, 0, 0]	n/a	catFR1	3	R1247P
1305.379	1.884	1309107	ORIENT_OFF	n/a	n/a	n/a	n/a	-999	12	[0, 0, 0]	n/a	catFR1	3	R1247P
1307.263	1.6	1310991	WORD	n/a	wordpools/wordpool_categorized_EN.txt	NIGHTSTAND	Furniture	1	12	[0, 0, 0]	n/a	catFR1	3	R1247P
1308.88	1.017	1312608	WORD_OFF	n/a	n/a	n/a	n/a	-999	12	[0, 0, 0]	n/a	catFR1	3	R1247P
1309.897	1.6	1313624	WORD	n/a	wordpools/wordpool_categorized_EN.txt	CHAIR	Furniture	2	12	[0, 0, 0]	n/a	catFR1	3	R1247P
1311.514	0.866	1315241	WORD_OFF	n/a	n/a	n/a	n/a	-999	12	[0, 0, 0]	n/a	catFR1	3	R1247P
1312.38	1.6	1316107	WORD	n/a	wordpools/wordpool_categorized_EN.txt	LILY	Flowers	3	12	[0, 0, 0]	n/a	catFR1	3	R1247P
1313.997	0.884	1317724	WORD_OFF	n/a	n/a	n/a	n/a	-999	12	[0, 0, 0]	n/a	catFR1	3	R1247P
1314.881	1.6	1318608	WORD	n/a	wordpools/wordpool_categorized_EN.txt	VIOLET	Flowers	4	12	[0, 0, 0]	n/a	catFR1	3	R1247P
1316.498	0.867	1320225	WORD_OFF	n/a	n/a	n/a	n/a	-999	12	[0, 0, 0]	n/a	catFR1	3	R1247P
1317.365	1.6	1321092	WORD	n/a	wordpools/wordpool_categorized_EN.txt	SANDER	Tools	5	12	[0, 0, 0]	n/a	catFR1	3	R1247P
1318.982	0.816	1322709	WORD_OFF	n/a	n/a	n/a	n/a	-999	12	[0, 0, 0]	n/a	catFR1	3	R1247P
1319.798	1.6	1323525	WORD	n/a	wordpools/wordpool_categorized_EN.txt	WRENCH	Tools	6	12	[0, 0, 0]	n/a	catFR1	3	R1247P
1321.415	0.984	1325142	WORD_OFF	n/a	n/a	n/a	n/a	-999	12	[0, 0, 0]	n/a	catFR1	3	R1247P
1322.399	1.6	1326126	WORD	n/a	wordpools/wordpool_categorized_EN.txt	SHELF	Furniture	7	12	[0, 0, 0]	n/a	catFR1	3	R1247P
1324.015	1.0	1327742	WORD_OFF	n/a	n/a	n/a	n/a	-999	12	[0, 0, 0]	n/a	catFR1	3	R1247P
1325.015	1.6	1328742	WORD	n/a	wordpools/wordpool_categorized_EN.txt	BED	Furniture	8	12	[0, 0, 0]	n/a	catFR1	3	R1247P
1326.633	0.783	1330360	WORD_OFF	n/a	n/a	n/a	n/a	-999	12	[0, 0, 0]	n/a	catFR1	3	R1247P
1327.416	1.6	1331143	WORD	n/a	wordpools/wordpool_categorized_EN.txt	TULIP	Flowers	9	12	[0, 0, 0]	n/a	catFR1	3	R1247P
1329.032	0.984	1332758	WORD_OFF	n/a	n/a	n/a	n/a	-999	12	[0, 0, 0]	n/a	catFR1	3	R1247P
1330.016	1.6	1333742	WORD	n/a	wordpools/wordpool_categorized_EN.txt	DAFFODIL	Flowers	10	12	[0, 0, 0]	n/a	catFR1	3	R1247P
1331.634	0.884	1335360	WORD_OFF	n/a	n/a	n/a	n/a	-999	12	[0, 0, 0]	n/a	catFR1	3	R1247P
1332.518	1.6	1336244	WORD	n/a	wordpools/wordpool_categorized_EN.txt	SCREWDRIVER	Tools	11	12	[0, 0, 0]	n/a	catFR1	3	R1247P
1334.134	0.784	1337860	WORD_OFF	n/a	n/a	n/a	n/a	-999	12	[0, 0, 0]	n/a	catFR1	3	R1247P
1334.918	1.6	1338644	WORD	n/a	wordpools/wordpool_categorized_EN.txt	PLIERS	Tools	12	12	[0, 0, 0]	n/a	catFR1	3	R1247P
1336.535	0.0	1340261	ENCODING_END	n/a	n/a	n/a	n/a	-999	12	[0, 0, 0]	n/a	catFR1	3	R1247P
1336.535	0.144	1340261	WORD_OFF	n/a	n/a	n/a	n/a	-999	12	[0, 0, 0]	n/a	catFR1	3	R1247P
1336.679	0.0	1340405	DISTRACT_START	n/a	n/a	n/a	n/a	-999	12	[0, 0, 0]	n/a	catFR1	3	R1247P
1336.679	0.023	1340405	START	n/a	n/a	n/a	n/a	-999	13	[-999, -999, -999]	n/a	catFR1	3	R1247P
1336.702	3.9	1340428	PROB	3.864	n/a	n/a	n/a	-999	13	[2, 4, 5]	11.0	catFR1	3	R1247P
1340.602	3.851	1344328	PROB	3.828	n/a	n/a	n/a	-999	13	[1, 5, 9]	15.0	catFR1	3	R1247P
1344.453	4.201	1348179	PROB	4.168	n/a	n/a	n/a	-999	13	[6, 2, 7]	15.0	catFR1	3	R1247P
1348.654	3.35	1352379	PROB	3.321	n/a	n/a	n/a	-999	13	[1, 7, 6]	14.0	catFR1	3	R1247P
1352.004	3.05	1355729	PROB	3.026	n/a	n/a	n/a	-999	13	[6, 5, 2]	13.0	catFR1	3	R1247P
1355.054	3.729	1358779	PROB	3.729	n/a	n/a	n/a	-999	13	[5, 9, 9]	23.0	catFR1	3	R1247P
1358.783	0.006	1362508	STOP	n/a	n/a	n/a	n/a	-999	13	[-999, -999, -999]	n/a	catFR1	3	R1247P
1358.789	0.633	1362514	DISTRACT_END	n/a	n/a	n/a	n/a	-999	12	[0, 0, 0]	n/a	catFR1	3	R1247P
1359.422	0.518	1363147	RETRIEVAL_ORIENT	n/a	n/a	n/a	n/a	-999	12	[0, 0, 0]	n/a	catFR1	3	R1247P
1359.94	2.001	1363665	REC_START	n/a	n/a	n/a	n/a	-999	12	[0, 0, 0]	n/a	catFR1	3	R1247P
1361.941	0.819	1365666	REC_WORD	2.001	n/a	TOOLS	n/a	-999	12	[0, 0, 0]	n/a	catFR1	3	R1247P
1362.76	1.061	1366485	REC_WORD	2.82	n/a	PLIERS	Tools	12	12	[0, 0, 0]	n/a	catFR1	3	R1247P
1363.821	1.011	1367546	REC_WORD	3.881	n/a	NIGHTSTAND	Furniture	1	12	[0, 0, 0]	n/a	catFR1	3	R1247P
1364.832	4.976	1368557	REC_WORD	4.892	n/a	CHAIR	Furniture	2	12	[0, 0, 0]	n/a	catFR1	3	R1247P
1369.808	6.408	1373532	REC_WORD	9.868	n/a	DAFFODIL	Flowers	10	12	[0, 0, 0]	n/a	catFR1	3	R1247P
1376.216	13.735	1379940	REC_WORD	16.276	n/a	SANDER	Tools	5	12	[0, 0, 0]	n/a	catFR1	3	R1247P
1389.951	17.096	1393674	REC_END	n/a	n/a	n/a	n/a	-999	12	[0, 0, 0]	n/a	catFR1	3	R1247P
1407.047	0.5	1410769	TRIAL	n/a	n/a	n/a	n/a	-999	13	[0, 0, 0]	n/a	catFR1	3	R1247P
1407.547	10.0	1411269	COUNTDOWN_START	n/a	n/a	n/a	n/a	-999	13	[0, 0, 0]	n/a	catFR1	3	R1247P
1417.975	0.009	1421697	COUNTDOWN_END	n/a	n/a	n/a	n/a	-999	13	[0, 0, 0]	n/a	catFR1	3	R1247P
1417.984	1.6	1421706	ORIENT	n/a	n/a	n/a	n/a	-999	13	[0, 0, 0]	n/a	catFR1	3	R1247P
1419.601	2.317	1423323	ORIENT_OFF	n/a	n/a	n/a	n/a	-999	13	[0, 0, 0]	n/a	catFR1	3	R1247P
1421.918	1.6	1425640	WORD	n/a	wordpools/wordpool_categorized_EN.txt	BASS	Instruments	1	13	[0, 0, 0]	n/a	catFR1	3	R1247P
1423.535	0.8	1427257	WORD_OFF	n/a	n/a	n/a	n/a	-999	13	[0, 0, 0]	n/a	catFR1	3	R1247P
1424.335	1.6	1428057	WORD	n/a	wordpools/wordpool_categorized_EN.txt	PIANO	Instruments	2	13	[0, 0, 0]	n/a	catFR1	3	R1247P
1425.952	0.9	1429673	WORD_OFF	n/a	n/a	n/a	n/a	-999	13	[0, 0, 0]	n/a	catFR1	3	R1247P
1426.852	1.6	1430573	WORD	n/a	wordpools/wordpool_categorized_EN.txt	HAMMER	Tools	3	13	[0, 0, 0]	n/a	catFR1	3	R1247P
1428.469	0.95	1432190	WORD_OFF	n/a	n/a	n/a	n/a	-999	13	[0, 0, 0]	n/a	catFR1	3	R1247P
1429.419	1.6	1433140	WORD	n/a	wordpools/wordpool_categorized_EN.txt	DRILL	Tools	4	13	[0, 0, 0]	n/a	catFR1	3	R1247P
1431.035	0.935	1434756	WORD_OFF	n/a	n/a	n/a	n/a	-999	13	[0, 0, 0]	n/a	catFR1	3	R1247P
1431.97	1.6	1435691	WORD	n/a	wordpools/wordpool_categorized_EN.txt	WALL	Building	5	13	[0, 0, 0]	n/a	catFR1	3	R1247P
1433.586	0.784	1437307	WORD_OFF	n/a	n/a	n/a	n/a	-999	13	[0, 0, 0]	n/a	catFR1	3	R1247P
1434.37	1.6	1438091	WORD	n/a	wordpools/wordpool_categorized_EN.txt	ROOM	Building	6	13	[0, 0, 0]	n/a	catFR1	3	R1247P
1435.987	0.85	1439708	WORD_OFF	n/a	n/a	n/a	n/a	-999	13	[0, 0, 0]	n/a	catFR1	3	R1247P
1436.837	1.6	1440558	WORD	n/a	wordpools/wordpool_categorized_EN.txt	CELLO	Instruments	7	13	[0, 0, 0]	n/a	catFR1	3	R1247P
1438.454	0.934	1442175	WORD_OFF	n/a	n/a	n/a	n/a	-999	13	[0, 0, 0]	n/a	catFR1	3	R1247P
1439.388	1.6	1443109	WORD	n/a	wordpools/wordpool_categorized_EN.txt	GUITAR	Instruments	8	13	[0, 0, 0]	n/a	catFR1	3	R1247P
1441.005	0.95	1444726	WORD_OFF	n/a	n/a	n/a	n/a	-999	13	[0, 0, 0]	n/a	catFR1	3	R1247P
1441.955	1.6	1445676	WORD	n/a	wordpools/wordpool_categorized_EN.txt	LEVEL	Tools	9	13	[0, 0, 0]	n/a	catFR1	3	R1247P
1443.572	1.0	1447293	WORD_OFF	n/a	n/a	n/a	n/a	-999	13	[0, 0, 0]	n/a	catFR1	3	R1247P
1444.572	1.6	1448292	WORD	n/a	wordpools/wordpool_categorized_EN.txt	SHOVEL	Tools	10	13	[0, 0, 0]	n/a	catFR1	3	R1247P
1446.189	0.983	1449909	WORD_OFF	n/a	n/a	n/a	n/a	-999	13	[0, 0, 0]	n/a	catFR1	3	R1247P
1447.172	1.6	1450892	WORD	n/a	wordpools/wordpool_categorized_EN.txt	DOOR	Building	11	13	[0, 0, 0]	n/a	catFR1	3	R1247P
1448.789	0.851	1452509	WORD_OFF	n/a	n/a	n/a	n/a	-999	13	[0, 0, 0]	n/a	catFR1	3	R1247P
1449.64	1.6	1453360	WORD	n/a	wordpools/wordpool_categorized_EN.txt	WINDOW	Building	12	13	[0, 0, 0]	n/a	catFR1	3	R1247P
1451.256	0.001	1454976	WORD_OFF	n/a	n/a	n/a	n/a	-999	13	[0, 0, 0]	n/a	catFR1	3	R1247P
1451.257	0.132	1454977	ENCODING_END	n/a	n/a	n/a	n/a	-999	13	[0, 0, 0]	n/a	catFR1	3	R1247P
1451.389	0.0	1455109	DISTRACT_START	n/a	n/a	n/a	n/a	-999	13	[0, 0, 0]	n/a	catFR1	3	R1247P
1451.389	0.018	1455109	START	n/a	n/a	n/a	n/a	-999	14	[-999, -999, -999]	n/a	catFR1	3	R1247P
1451.407	3.517	1455127	PROB	3.479	n/a	n/a	n/a	-999	14	[5, 1, 5]	11.0	catFR1	3	R1247P
1454.924	3.401	1458644	PROB	3.37	n/a	n/a	n/a	-999	14	[5, 9, 6]	20.0	catFR1	3	R1247P
1458.325	3.25	1462045	PROB	3.225	n/a	n/a	n/a	-999	14	[5, 7, 8]	20.0	catFR1	3	R1247P
1461.575	3.284	1465295	PROB	3.246	n/a	n/a	n/a	-999	14	[1, 9, 9]	19.0	catFR1	3	R1247P
1464.859	2.517	1468578	PROB	2.483	n/a	n/a	n/a	-999	14	[4, 2, 2]	8.0	catFR1	3	R1247P
1467.376	3.384	1471095	PROB	3.35	n/a	n/a	n/a	-999	14	[4, 8, 4]	16.0	catFR1	3	R1247P
1470.76	3.086	1474479	PROB	3.086	n/a	n/a	n/a	-999	14	[7, 8, 6]	21.0	catFR1	3	R1247P
1473.846	0.015	1477565	STOP	n/a	n/a	n/a	n/a	-999	14	[-999, -999, -999]	n/a	catFR1	3	R1247P
1473.861	0.55	1477580	DISTRACT_END	n/a	n/a	n/a	n/a	-999	13	[0, 0, 0]	n/a	catFR1	3	R1247P
1474.411	0.517	1478130	RETRIEVAL_ORIENT	n/a	n/a	n/a	n/a	-999	13	[0, 0, 0]	n/a	catFR1	3	R1247P
1474.928	5.795	1478647	REC_START	n/a	n/a	n/a	n/a	-999	13	[0, 0, 0]	n/a	catFR1	3	R1247P
1480.723	1.779	1484442	REC_WORD	5.795	n/a	PIANO	Instruments	2	13	[0, 0, 0]	n/a	catFR1	3	R1247P
1482.502	2.763	1486220	REC_WORD	7.574	n/a	ROOM	Building	6	13	[0, 0, 0]	n/a	catFR1	3	R1247P
1485.265	8.087	1488983	REC_WORD	10.337	n/a	BASS	Instruments	1	13	[0, 0, 0]	n/a	catFR1	3	R1247P
1493.352	11.588	1497070	REC_WORD	18.424	n/a	CELLO	Instruments	7	13	[0, 0, 0]	n/a	catFR1	3	R1247P
1504.94	4.428	1508657	REC_END	n/a	n/a	n/a	n/a	-999	13	[0, 0, 0]	n/a	catFR1	3	R1247P
1509.368	0.5	1513085	TRIAL	n/a	n/a	n/a	n/a	-999	14	[0, 0, 0]	n/a	catFR1	3	R1247P
1509.868	10.0	1513585	COUNTDOWN_START	n/a	n/a	n/a	n/a	-999	14	[0, 0, 0]	n/a	catFR1	3	R1247P
1520.296	0.007	1524012	COUNTDOWN_END	n/a	n/a	n/a	n/a	-999	14	[0, 0, 0]	n/a	catFR1	3	R1247P
1520.303	1.6	1524019	ORIENT	n/a	n/a	n/a	n/a	-999	14	[0, 0, 0]	n/a	catFR1	3	R1247P
1521.92	2.184	1525636	ORIENT_OFF	n/a	n/a	n/a	n/a	-999	14	[0, 0, 0]	n/a	catFR1	3	R1247P
1524.104	1.6	1527820	WORD	n/a	wordpools/wordpool_categorized_EN.txt	STEREO	Electronics	1	14	[0, 0, 0]	n/a	catFR1	3	R1247P
1525.721	0.8	1529437	WORD_OFF	n/a	n/a	n/a	n/a	-999	14	[0, 0, 0]	n/a	catFR1	3	R1247P
1526.521	1.6	1530237	WORD	n/a	wordpools/wordpool_categorized_EN.txt	SPEAKER	Electronics	2	14	[0, 0, 0]	n/a	catFR1	3	R1247P
1528.138	0.817	1531854	WORD_OFF	n/a	n/a	n/a	n/a	-999	14	[0, 0, 0]	n/a	catFR1	3	R1247P
1528.955	1.6	1532671	WORD	n/a	wordpools/wordpool_categorized_EN.txt	SHOES	Clothing	3	14	[0, 0, 0]	n/a	catFR1	3	R1247P
1530.572	0.933	1534288	WORD_OFF	n/a	n/a	n/a	n/a	-999	14	[0, 0, 0]	n/a	catFR1	3	R1247P
1531.505	1.6	1535221	WORD	n/a	wordpools/wordpool_categorized_EN.txt	JACKET	Clothing	4	14	[0, 0, 0]	n/a	catFR1	3	R1247P
1533.122	1.0	1536838	WORD_OFF	n/a	n/a	n/a	n/a	-999	14	[0, 0, 0]	n/a	catFR1	3	R1247P
1534.122	1.6	1537838	WORD	n/a	wordpools/wordpool_categorized_EN.txt	ERASER	OfficeSupplies	5	14	[0, 0, 0]	n/a	catFR1	3	R1247P
1535.739	1.0	1539455	WORD_OFF	n/a	n/a	n/a	n/a	-999	14	[0, 0, 0]	n/a	catFR1	3	R1247P
1536.739	1.6	1540455	WORD	n/a	wordpools/wordpool_categorized_EN.txt	MARKER	OfficeSupplies	6	14	[0, 0, 0]	n/a	catFR1	3	R1247P
1538.356	0.917	1542072	WORD_OFF	n/a	n/a	n/a	n/a	-999	14	[0, 0, 0]	n/a	catFR1	3	R1247P
1539.273	1.6	1542989	WORD	n/a	wordpools/wordpool_categorized_EN.txt	UNDERWEAR	Clothing	7	14	[0, 0, 0]	n/a	catFR1	3	R1247P
1540.89	0.95	1544605	WORD_OFF	n/a	n/a	n/a	n/a	-999	14	[0, 0, 0]	n/a	catFR1	3	R1247P
1541.84	1.6	1545555	WORD	n/a	wordpools/wordpool_categorized_EN.txt	JEANS	Clothing	8	14	[0, 0, 0]	n/a	catFR1	3	R1247P
1543.457	0.817	1547172	WORD_OFF	n/a	n/a	n/a	n/a	-999	14	[0, 0, 0]	n/a	catFR1	3	R1247P
1544.274	1.6	1547989	WORD	n/a	wordpools/wordpool_categorized_EN.txt	COMPUTER	Electronics	9	14	[0, 0, 0]	n/a	catFR1	3	R1247P
1545.891	0.784	1549606	WORD_OFF	n/a	n/a	n/a	n/a	-999	14	[0, 0, 0]	n/a	catFR1	3	R1247P
1546.675	1.6	1550390	WORD	n/a	wordpools/wordpool_categorized_EN.txt	PHONE	Electronics	10	14	[0, 0, 0]	n/a	catFR1	3	R1247P
1548.291	0.917	1552006	WORD_OFF	n/a	n/a	n/a	n/a	-999	14	[0, 0, 0]	n/a	catFR1	3	R1247P
1549.208	1.6	1552923	WORD	n/a	wordpools/wordpool_categorized_EN.txt	PAPER	OfficeSupplies	11	14	[0, 0, 0]	n/a	catFR1	3	R1247P
1550.825	0.834	1554540	WORD_OFF	n/a	n/a	n/a	n/a	-999	14	[0, 0, 0]	n/a	catFR1	3	R1247P
1551.659	1.6	1555374	WORD	n/a	wordpools/wordpool_categorized_EN.txt	FOLDER	OfficeSupplies	12	14	[0, 0, 0]	n/a	catFR1	3	R1247P
1553.276	0.0	1556991	ENCODING_END	n/a	n/a	n/a	n/a	-999	14	[0, 0, 0]	n/a	catFR1	3	R1247P
1553.276	0.104	1556991	WORD_OFF	n/a	n/a	n/a	n/a	-999	14	[0, 0, 0]	n/a	catFR1	3	R1247P
1553.38	0.001	1557095	DISTRACT_START	n/a	n/a	n/a	n/a	-999	14	[0, 0, 0]	n/a	catFR1	3	R1247P
1553.381	0.011	1557096	START	n/a	n/a	n/a	n/a	-999	15	[-999, -999, -999]	n/a	catFR1	3	R1247P
1553.392	3.368	1557107	PROB	3.342	n/a	n/a	n/a	-999	15	[9, 7, 6]	21.0	catFR1	3	R1247P
1556.76	4.201	1560475	PROB	4.166	n/a	n/a	n/a	-999	15	[7, 9, 7]	23.0	catFR1	3	R1247P
1560.961	3.8	1564675	PROB	3.765	n/a	n/a	n/a	-999	15	[5, 5, 9]	19.0	catFR1	3	R1247P
1564.761	3.368	1568475	PROB	3.333	n/a	n/a	n/a	-999	15	[3, 8, 7]	18.0	catFR1	3	R1247P
1568.129	3.083	1571843	PROB	3.054	n/a	n/a	n/a	-999	15	[2, 2, 9]	13.0	catFR1	3	R1247P
1571.212	3.345	1574926	PROB	3.345	n/a	n/a	n/a	-999	15	[8, 5, 7]	20.0	catFR1	3	R1247P
1574.557	0.006	1578271	STOP	n/a	n/a	n/a	n/a	-999	15	[-999, -999, -999]	n/a	catFR1	3	R1247P
1574.563	0.684	1578277	DISTRACT_END	n/a	n/a	n/a	n/a	-999	14	[0, 0, 0]	n/a	catFR1	3	R1247P
1575.247	0.517	1578961	RETRIEVAL_ORIENT	n/a	n/a	n/a	n/a	-999	14	[0, 0, 0]	n/a	catFR1	3	R1247P
1575.764	2.39	1579478	REC_START	n/a	n/a	n/a	n/a	-999	14	[0, 0, 0]	n/a	catFR1	3	R1247P
1578.154	0.915	1581867	REC_WORD	2.39	n/a	STEREO	Electronics	1	14	[0, 0, 0]	n/a	catFR1	3	R1247P
1579.069	1.0	1582782	REC_WORD	3.305	n/a	SPEAKER	Electronics	2	14	[0, 0, 0]	n/a	catFR1	3	R1247P
1580.069	25.707	1583782	REC_WORD_VV	4.305	n/a	<>	n/a	-999	14	[0, 0, 0]	n/a	catFR1	3	R1247P
1605.776	4.427	1609488	REC_END	n/a	n/a	n/a	n/a	-999	14	[0, 0, 0]	n/a	catFR1	3	R1247P
1610.203	0.5	1613915	TRIAL	n/a	n/a	n/a	n/a	-999	15	[0, 0, 0]	n/a	catFR1	3	R1247P
1610.703	10.0	1614415	COUNTDOWN_START	n/a	n/a	n/a	n/a	-999	15	[0, 0, 0]	n/a	catFR1	3	R1247P
1621.131	0.008	1624842	COUNTDOWN_END	n/a	n/a	n/a	n/a	-999	15	[0, 0, 0]	n/a	catFR1	3	R1247P
1621.139	1.6	1624850	ORIENT	n/a	n/a	n/a	n/a	-999	15	[0, 0, 0]	n/a	catFR1	3	R1247P
1622.756	2.167	1626467	ORIENT_OFF	n/a	n/a	n/a	n/a	-999	15	[0, 0, 0]	n/a	catFR1	3	R1247P
1624.923	1.6	1628634	WORD	n/a	wordpools/wordpool_categorized_EN.txt	WILLOW	Trees	1	15	[0, 0, 0]	n/a	catFR1	3	R1247P
1626.54	0.833	1630251	WORD_OFF	n/a	n/a	n/a	n/a	-999	15	[0, 0, 0]	n/a	catFR1	3	R1247P
1627.373	1.6	1631084	WORD	n/a	wordpools/wordpool_categorized_EN.txt	EVERGREEN	Trees	2	15	[0, 0, 0]	n/a	catFR1	3	R1247P
1628.99	1.0	1632701	WORD_OFF	n/a	n/a	n/a	n/a	-999	15	[0, 0, 0]	n/a	catFR1	3	R1247P
1629.99	1.6	1633701	WORD	n/a	wordpools/wordpool_categorized_EN.txt	FLUTE	Instruments	3	15	[0, 0, 0]	n/a	catFR1	3	R1247P
1631.607	0.784	1635318	WORD_OFF	n/a	n/a	n/a	n/a	-999	15	[0, 0, 0]	n/a	catFR1	3	R1247P
1632.391	1.6	1636102	WORD	n/a	wordpools/wordpool_categorized_EN.txt	TUBA	Instruments	4	15	[0, 0, 0]	n/a	catFR1	3	R1247P
1634.008	0.967	1637719	WORD_OFF	n/a	n/a	n/a	n/a	-999	15	[0, 0, 0]	n/a	catFR1	3	R1247P
1634.975	1.6	1638686	WORD	n/a	wordpools/wordpool_categorized_EN.txt	FINCH	Birds	5	15	[0, 0, 0]	n/a	catFR1	3	R1247P
1636.591	0.984	1640301	WORD_OFF	n/a	n/a	n/a	n/a	-999	15	[0, 0, 0]	n/a	catFR1	3	R1247P
1637.575	1.6	1641285	WORD	n/a	wordpools/wordpool_categorized_EN.txt	GOOSE	Birds	6	15	[0, 0, 0]	n/a	catFR1	3	R1247P
1639.192	0.767	1642902	WORD_OFF	n/a	n/a	n/a	n/a	-999	15	[0, 0, 0]	n/a	catFR1	3	R1247P
1639.959	1.6	1643669	WORD	n/a	wordpools/wordpool_categorized_EN.txt	VIOLIN	Instruments	7	15	[0, 0, 0]	n/a	catFR1	3	R1247P
1641.576	0.967	1645286	WORD_OFF	n/a	n/a	n/a	n/a	-999	15	[0, 0, 0]	n/a	catFR1	3	R1247P
1642.543	1.6	1646253	WORD	n/a	wordpools/wordpool_categorized_EN.txt	BANJO	Instruments	8	15	[0, 0, 0]	n/a	catFR1	3	R1247P
1644.16	0.983	1647870	WORD_OFF	n/a	n/a	n/a	n/a	-999	15	[0, 0, 0]	n/a	catFR1	3	R1247P
1645.143	1.6	1648853	WORD	n/a	wordpools/wordpool_categorized_EN.txt	WALNUT	Trees	9	15	[0, 0, 0]	n/a	catFR1	3	R1247P
1646.76	0.967	1650470	WORD_OFF	n/a	n/a	n/a	n/a	-999	15	[0, 0, 0]	n/a	catFR1	3	R1247P
1647.727	1.6	1651437	WORD	n/a	wordpools/wordpool_categorized_EN.txt	CEDAR	Trees	10	15	[0, 0, 0]	n/a	catFR1	3	R1247P
1649.344	0.766	1653054	WORD_OFF	n/a	n/a	n/a	n/a	-999	15	[0, 0, 0]	n/a	catFR1	3	R1247P
1650.11	1.6	1653820	WORD	n/a	wordpools/wordpool_categorized_EN.txt	BLUEBIRD	Birds	11	15	[0, 0, 0]	n/a	catFR1	3	R1247P
1651.728	0.816	1655438	WORD_OFF	n/a	n/a	n/a	n/a	-999	15	[0, 0, 0]	n/a	catFR1	3	R1247P
1652.544	1.6	1656254	WORD	n/a	wordpools/wordpool_categorized_EN.txt	PIGEON	Birds	12	15	[0, 0, 0]	n/a	catFR1	3	R1247P
1654.161	0.001	1657871	WORD_OFF	n/a	n/a	n/a	n/a	-999	15	[0, 0, 0]	n/a	catFR1	3	R1247P
1654.162	0.136	1657872	ENCODING_END	n/a	n/a	n/a	n/a	-999	15	[0, 0, 0]	n/a	catFR1	3	R1247P
1654.298	0.001	1658007	DISTRACT_START	n/a	n/a	n/a	n/a	-999	15	[0, 0, 0]	n/a	catFR1	3	R1247P
1654.299	0.012	1658008	START	n/a	n/a	n/a	n/a	-999	16	[-999, -999, -999]	n/a	catFR1	3	R1247P
1654.311	4.001	1658020	PROB	3.968	n/a	n/a	n/a	-999	16	[6, 1, 6]	13.0	catFR1	3	R1247P
1658.312	2.451	1662021	PROB	2.422	n/a	n/a	n/a	-999	16	[2, 2, 5]	9.0	catFR1	3	R1247P
1660.763	3.15	1664472	PROB	3.123	n/a	n/a	n/a	-999	16	[3, 7, 8]	18.0	catFR1	3	R1247P
1663.913	2.868	1667622	PROB	2.844	n/a	n/a	n/a	-999	16	[4, 5, 3]	12.0	catFR1	3	R1247P
1666.781	3.05	1670490	PROB	3.026	n/a	n/a	n/a	-999	16	[4, 6, 8]	20.0	catFR1	3	R1247P
1669.831	5.51	1673540	PROB	5.51	n/a	n/a	n/a	-999	16	[1, 9, 4]	14.0	catFR1	3	R1247P
1675.341	0.008	1679049	STOP	n/a	n/a	n/a	n/a	-999	16	[-999, -999, -999]	n/a	catFR1	3	R1247P
1675.349	0.55	1679057	DISTRACT_END	n/a	n/a	n/a	n/a	-999	15	[0, 0, 0]	n/a	catFR1	3	R1247P
1675.899	0.517	1679607	RETRIEVAL_ORIENT	n/a	n/a	n/a	n/a	-999	15	[0, 0, 0]	n/a	catFR1	3	R1247P
1676.416	1.223	1680124	REC_START	n/a	n/a	n/a	n/a	-999	15	[0, 0, 0]	n/a	catFR1	3	R1247P
1677.639	0.658	1681347	REC_WORD	1.223	n/a	WILLOW	Trees	1	15	[0, 0, 0]	n/a	catFR1	3	R1247P
1678.297	1.596	1682005	REC_WORD	1.881	n/a	WALNUT	Trees	9	15	[0, 0, 0]	n/a	catFR1	3	R1247P
1679.893	2.567	1683601	REC_WORD	3.477	n/a	CEDAR	Trees	10	15	[0, 0, 0]	n/a	catFR1	3	R1247P
1682.46	7.782	1686168	REC_WORD	6.044	n/a	FINCH	Birds	5	15	[0, 0, 0]	n/a	catFR1	3	R1247P
1690.242	9.901	1693950	REC_WORD	13.826	n/a	EVERGREEN	Trees	2	15	[0, 0, 0]	n/a	catFR1	3	R1247P
1700.143	6.285	1703850	REC_WORD	23.727	n/a	FLUTE	Instruments	3	15	[0, 0, 0]	n/a	catFR1	3	R1247P
1706.428	5.294	1710135	REC_END	n/a	n/a	n/a	n/a	-999	15	[0, 0, 0]	n/a	catFR1	3	R1247P
1711.722	0.5	1715428	TRIAL	n/a	n/a	n/a	n/a	-999	16	[0, 0, 0]	n/a	catFR1	3	R1247P
1712.222	10.0	1715928	COUNTDOWN_START	n/a	n/a	n/a	n/a	-999	16	[0, 0, 0]	n/a	catFR1	3	R1247P
1722.65	0.008	1726356	COUNTDOWN_END	n/a	n/a	n/a	n/a	-999	16	[0, 0, 0]	n/a	catFR1	3	R1247P
1722.658	1.6	1726364	ORIENT	n/a	n/a	n/a	n/a	-999	16	[0, 0, 0]	n/a	catFR1	3	R1247P
1724.275	2.267	1727981	ORIENT_OFF	n/a	n/a	n/a	n/a	-999	16	[0, 0, 0]	n/a	catFR1	3	R1247P
1726.542	1.6	1730248	WORD	n/a	wordpools/wordpool_categorized_EN.txt	BROCCOLI	Vegetables	1	16	[0, 0, 0]	n/a	catFR1	3	R1247P
1728.159	0.933	1731865	WORD_OFF	n/a	n/a	n/a	n/a	-999	16	[0, 0, 0]	n/a	catFR1	3	R1247P
1729.092	1.6	1732798	WORD	n/a	wordpools/wordpool_categorized_EN.txt	POTATO	Vegetables	2	16	[0, 0, 0]	n/a	catFR1	3	R1247P
1730.709	1.0	1734415	WORD_OFF	n/a	n/a	n/a	n/a	-999	16	[0, 0, 0]	n/a	catFR1	3	R1247P
1731.709	1.6	1735414	WORD	n/a	wordpools/wordpool_categorized_EN.txt	HEADPHONES	Electronics	3	16	[0, 0, 0]	n/a	catFR1	3	R1247P
1733.326	0.984	1737031	WORD_OFF	n/a	n/a	n/a	n/a	-999	16	[0, 0, 0]	n/a	catFR1	3	R1247P
1734.31	1.6	1738015	WORD	n/a	wordpools/wordpool_categorized_EN.txt	TELEVISION	Electronics	4	16	[0, 0, 0]	n/a	catFR1	3	R1247P
1735.927	0.9	1739632	WORD_OFF	n/a	n/a	n/a	n/a	-999	16	[0, 0, 0]	n/a	catFR1	3	R1247P
1736.827	1.6	1740532	WORD	n/a	wordpools/wordpool_categorized_EN.txt	THUNDERSTORM	Weather	5	16	[0, 0, 0]	n/a	catFR1	3	R1247P
1738.444	0.867	1742149	WORD_OFF	n/a	n/a	n/a	n/a	-999	16	[0, 0, 0]	n/a	catFR1	3	R1247P
1739.311	1.6	1743016	WORD	n/a	wordpools/wordpool_categorized_EN.txt	SNOW	Weather	6	16	[0, 0, 0]	n/a	catFR1	3	R1247P
1740.928	0.933	1744633	WORD_OFF	n/a	n/a	n/a	n/a	-999	16	[0, 0, 0]	n/a	catFR1	3	R1247P
1741.861	1.6	1745566	WORD	n/a	wordpools/wordpool_categorized_EN.txt	PEAS	Vegetables	7	16	[0, 0, 0]	n/a	catFR1	3	R1247P
1743.478	1.017	1747183	WORD_OFF	n/a	n/a	n/a	n/a	-999	16	[0, 0, 0]	n/a	catFR1	3	R1247P
1744.495	1.6	1748200	WORD	n/a	wordpools/wordpool_categorized_EN.txt	CUCUMBER	Vegetables	8	16	[0, 0, 0]	n/a	catFR1	3	R1247P
1746.112	1.0	1749817	WORD_OFF	n/a	n/a	n/a	n/a	-999	16	[0, 0, 0]	n/a	catFR1	3	R1247P
1747.112	1.6	1750817	WORD	n/a	wordpools/wordpool_categorized_EN.txt	TABLET	Electronics	9	16	[0, 0, 0]	n/a	catFR1	3	R1247P
1748.729	1.001	1752434	WORD_OFF	n/a	n/a	n/a	n/a	-999	16	[0, 0, 0]	n/a	catFR1	3	R1247P
1749.73	1.6	1753435	WORD	n/a	wordpools/wordpool_categorized_EN.txt	CALCULATOR	Electronics	10	16	[0, 0, 0]	n/a	catFR1	3	R1247P
1751.347	0.816	1755051	WORD_OFF	n/a	n/a	n/a	n/a	-999	16	[0, 0, 0]	n/a	catFR1	3	R1247P
1752.163	1.6	1755867	WORD	n/a	wordpools/wordpool_categorized_EN.txt	HURRICANE	Weather	11	16	[0, 0, 0]	n/a	catFR1	3	R1247P
1753.78	0.884	1757484	WORD_OFF	n/a	n/a	n/a	n/a	-999	16	[0, 0, 0]	n/a	catFR1	3	R1247P
1754.664	1.6	1758368	WORD	n/a	wordpools/wordpool_categorized_EN.txt	TORNADO	Weather	12	16	[0, 0, 0]	n/a	catFR1	3	R1247P
1756.281	0.0	1759985	ENCODING_END	n/a	n/a	n/a	n/a	-999	16	[0, 0, 0]	n/a	catFR1	3	R1247P
1756.281	0.105	1759985	WORD_OFF	n/a	n/a	n/a	n/a	-999	16	[0, 0, 0]	n/a	catFR1	3	R1247P
1756.386	0.0	1760090	DISTRACT_START	n/a	n/a	n/a	n/a	-999	16	[0, 0, 0]	n/a	catFR1	3	R1247P
1756.386	0.011	1760090	START	n/a	n/a	n/a	n/a	-999	17	[-999, -999, -999]	n/a	catFR1	3	R1247P
1756.397	3.684	1760101	PROB	3.657	n/a	n/a	n/a	-999	17	[6, 2, 4]	12.0	catFR1	3	R1247P
1760.081	3.268	1763785	PROB	3.23	n/a	n/a	n/a	-999	17	[9, 3, 3]	15.0	catFR1	3	R1247P
1763.349	2.784	1767053	PROB	2.76	n/a	n/a	n/a	-999	17	[8, 1, 1]	10.0	catFR1	3	R1247P
1766.133	3.734	1769837	PROB	3.697	n/a	n/a	n/a	-999	17	[6, 2, 7]	15.0	catFR1	3	R1247P
1769.867	3.5	1773570	PROB	3.475	n/a	n/a	n/a	-999	17	[7, 8, 4]	19.0	catFR1	3	R1247P
1773.367	2.818	1777070	PROB	2.784	n/a	n/a	n/a	-999	17	[4, 2, 1]	7.0	catFR1	3	R1247P
1776.185	3.253	1779888	PROB	3.253	n/a	n/a	n/a	-999	17	[5, 2, 9]	15.0	catFR1	3	R1247P
1779.438	0.014	1783141	STOP	n/a	n/a	n/a	n/a	-999	17	[-999, -999, -999]	n/a	catFR1	3	R1247P
1779.452	0.599	1783155	DISTRACT_END	n/a	n/a	n/a	n/a	-999	16	[0, 0, 0]	n/a	catFR1	3	R1247P
1780.051	0.518	1783754	RETRIEVAL_ORIENT	n/a	n/a	n/a	n/a	-999	16	[0, 0, 0]	n/a	catFR1	3	R1247P
1780.569	2.562	1784272	REC_START	n/a	n/a	n/a	n/a	-999	16	[0, 0, 0]	n/a	catFR1	3	R1247P
1783.131	0.703	1786834	REC_WORD	2.562	n/a	BROCCOLI	Vegetables	1	16	[0, 0, 0]	n/a	catFR1	3	R1247P
1783.834	3.943	1787537	REC_WORD	3.265	n/a	POTATO	Vegetables	2	16	[0, 0, 0]	n/a	catFR1	3	R1247P
1787.777	22.806	1791480	REC_WORD_VV	7.208	n/a	<>	n/a	-999	16	[0, 0, 0]	n/a	catFR1	3	R1247P
1810.583	4.926	1814284	REC_END	n/a	n/a	n/a	n/a	-999	16	[0, 0, 0]	n/a	catFR1	3	R1247P
1815.509	0.5	1819210	TRIAL	n/a	n/a	n/a	n/a	-999	17	[0, 0, 0]	n/a	catFR1	3	R1247P
1816.009	10.0	1819710	COUNTDOWN_START	n/a	n/a	n/a	n/a	-999	17	[0, 0, 0]	n/a	catFR1	3	R1247P
1826.437	0.007	1830138	COUNTDOWN_END	n/a	n/a	n/a	n/a	-999	17	[0, 0, 0]	n/a	catFR1	3	R1247P
1826.444	1.6	1830145	ORIENT	n/a	n/a	n/a	n/a	-999	17	[0, 0, 0]	n/a	catFR1	3	R1247P
1828.06	2.118	1831760	ORIENT_OFF	n/a	n/a	n/a	n/a	-999	17	[0, 0, 0]	n/a	catFR1	3	R1247P
1830.178	1.6	1833878	WORD	n/a	wordpools/wordpool_categorized_EN.txt	BASKETBALL	Toys	1	17	[0, 0, 0]	n/a	catFR1	3	R1247P
1831.795	0.884	1835495	WORD_OFF	n/a	n/a	n/a	n/a	-999	17	[0, 0, 0]	n/a	catFR1	3	R1247P
1832.679	1.6	1836379	WORD	n/a	wordpools/wordpool_categorized_EN.txt	FRISBEE	Toys	2	17	[0, 0, 0]	n/a	catFR1	3	R1247P
1834.295	0.934	1837995	WORD_OFF	n/a	n/a	n/a	n/a	-999	17	[0, 0, 0]	n/a	catFR1	3	R1247P
1835.229	1.6	1838929	WORD	n/a	wordpools/wordpool_categorized_EN.txt	SOFA	Furniture	3	17	[0, 0, 0]	n/a	catFR1	3	R1247P
1836.846	0.9	1840546	WORD_OFF	n/a	n/a	n/a	n/a	-999	17	[0, 0, 0]	n/a	catFR1	3	R1247P
1837.746	1.6	1841446	WORD	n/a	wordpools/wordpool_categorized_EN.txt	CABINET	Furniture	4	17	[0, 0, 0]	n/a	catFR1	3	R1247P
1839.363	0.8	1843063	WORD_OFF	n/a	n/a	n/a	n/a	-999	17	[0, 0, 0]	n/a	catFR1	3	R1247P
1840.163	1.6	1843863	WORD	n/a	wordpools/wordpool_categorized_EN.txt	SPATULA	KitchenTools	5	17	[0, 0, 0]	n/a	catFR1	3	R1247P
1841.78	0.767	1845480	WORD_OFF	n/a	n/a	n/a	n/a	-999	17	[0, 0, 0]	n/a	catFR1	3	R1247P
1842.547	1.6	1846247	WORD	n/a	wordpools/wordpool_categorized_EN.txt	STRAINER	KitchenTools	6	17	[0, 0, 0]	n/a	catFR1	3	R1247P
1844.164	0.933	1847864	WORD_OFF	n/a	n/a	n/a	n/a	-999	17	[0, 0, 0]	n/a	catFR1	3	R1247P
1845.097	1.6	1848797	WORD	n/a	wordpools/wordpool_categorized_EN.txt	BALL	Toys	7	17	[0, 0, 0]	n/a	catFR1	3	R1247P
1846.715	0.783	1850414	WORD_OFF	n/a	n/a	n/a	n/a	-999	17	[0, 0, 0]	n/a	catFR1	3	R1247P
1847.498	1.6	1851197	WORD	n/a	wordpools/wordpool_categorized_EN.txt	BASEBALL	Toys	8	17	[0, 0, 0]	n/a	catFR1	3	R1247P
1849.115	0.916	1852814	WORD_OFF	n/a	n/a	n/a	n/a	-999	17	[0, 0, 0]	n/a	catFR1	3	R1247P
1850.031	1.6	1853730	WORD	n/a	wordpools/wordpool_categorized_EN.txt	RECLINER	Furniture	9	17	[0, 0, 0]	n/a	catFR1	3	R1247P
1851.632	0.884	1855331	WORD_OFF	n/a	n/a	n/a	n/a	-999	17	[0, 0, 0]	n/a	catFR1	3	R1247P
1852.516	1.6	1856215	WORD	n/a	wordpools/wordpool_categorized_EN.txt	DRESSER	Furniture	10	17	[0, 0, 0]	n/a	catFR1	3	R1247P
1854.133	0.8	1857832	WORD_OFF	n/a	n/a	n/a	n/a	-999	17	[0, 0, 0]	n/a	catFR1	3	R1247P
1854.933	1.6	1858632	WORD	n/a	wordpools/wordpool_categorized_EN.txt	LADLE	KitchenTools	11	17	[0, 0, 0]	n/a	catFR1	3	R1247P
1856.55	0.933	1860249	WORD_OFF	n/a	n/a	n/a	n/a	-999	17	[0, 0, 0]	n/a	catFR1	3	R1247P
1857.483	1.6	1861182	WORD	n/a	wordpools/wordpool_categorized_EN.txt	SPOON	KitchenTools	12	17	[0, 0, 0]	n/a	catFR1	3	R1247P
1859.1	0.0	1862799	ENCODING_END	n/a	n/a	n/a	n/a	-999	17	[0, 0, 0]	n/a	catFR1	3	R1247P
1859.1	0.107	1862799	WORD_OFF	n/a	n/a	n/a	n/a	-999	17	[0, 0, 0]	n/a	catFR1	3	R1247P
1859.207	0.0	1862906	DISTRACT_START	n/a	n/a	n/a	n/a	-999	17	[0, 0, 0]	n/a	catFR1	3	R1247P
1859.207	0.01	1862906	START	n/a	n/a	n/a	n/a	-999	18	[-999, -999, -999]	n/a	catFR1	3	R1247P
1859.217	4.151	1862916	PROB	4.125	n/a	n/a	n/a	-999	18	[8, 3, 6]	15.0	catFR1	3	R1247P
1863.368	4.35	1867067	PROB	4.325	n/a	n/a	n/a	-999	18	[7, 7, 8]	22.0	catFR1	3	R1247P
1867.718	3.918	1871416	PROB	3.88	n/a	n/a	n/a	-999	18	[2, 8, 7]	17.0	catFR1	3	R1247P
1871.636	3.784	1875334	PROB	3.754	n/a	n/a	n/a	-999	18	[3, 5, 5]	13.0	catFR1	3	R1247P
1875.42	3.15	1879118	PROB	3.122	n/a	n/a	n/a	-999	18	[4, 5, 2]	11.0	catFR1	3	R1247P
1878.57	3.691	1882268	PROB	3.691	n/a	n/a	n/a	-999	18	[9, 5, 2]	16.0	catFR1	3	R1247P
1882.261	0.01	1885959	STOP	n/a	n/a	n/a	n/a	-999	18	[-999, -999, -999]	n/a	catFR1	3	R1247P
1882.271	0.634	1885969	DISTRACT_END	n/a	n/a	n/a	n/a	-999	17	[0, 0, 0]	n/a	catFR1	3	R1247P
1882.905	0.517	1886603	RETRIEVAL_ORIENT	n/a	n/a	n/a	n/a	-999	17	[0, 0, 0]	n/a	catFR1	3	R1247P
1883.422	1.985	1887120	REC_START	n/a	n/a	n/a	n/a	-999	17	[0, 0, 0]	n/a	catFR1	3	R1247P
1885.407	0.563	1889104	REC_WORD	1.985	n/a	FRISBEE	Toys	2	17	[0, 0, 0]	n/a	catFR1	3	R1247P
1885.97	27.465	1889667	REC_WORD	2.548	n/a	BASEBALL	Toys	8	17	[0, 0, 0]	n/a	catFR1	3	R1247P
1913.435	4.592	1917131	REC_END	n/a	n/a	n/a	n/a	-999	17	[0, 0, 0]	n/a	catFR1	3	R1247P
1918.027	0.5	1921723	TRIAL	n/a	n/a	n/a	n/a	-999	18	[0, 0, 0]	n/a	catFR1	3	R1247P
1918.527	10.0	1922223	COUNTDOWN_START	n/a	n/a	n/a	n/a	-999	18	[0, 0, 0]	n/a	catFR1	3	R1247P
1928.955	0.008	1932650	COUNTDOWN_END	n/a	n/a	n/a	n/a	-999	18	[0, 0, 0]	n/a	catFR1	3	R1247P
1928.963	1.6	1932658	ORIENT	n/a	n/a	n/a	n/a	-999	18	[0, 0, 0]	n/a	catFR1	3	R1247P
1930.58	1.984	1934275	ORIENT_OFF	n/a	n/a	n/a	n/a	-999	18	[0, 0, 0]	n/a	catFR1	3	R1247P
1932.564	1.6	1936259	WORD	n/a	wordpools/wordpool_categorized_EN.txt	WIND	Weather	1	18	[0, 0, 0]	n/a	catFR1	3	R1247P
1934.181	0.866	1937876	WORD_OFF	n/a	n/a	n/a	n/a	-999	18	[0, 0, 0]	n/a	catFR1	3	R1247P
1935.047	1.6	1938742	WORD	n/a	wordpools/wordpool_categorized_EN.txt	LIGHTNING	Weather	2	18	[0, 0, 0]	n/a	catFR1	3	R1247P
1936.648	0.817	1940343	WORD_OFF	n/a	n/a	n/a	n/a	-999	18	[0, 0, 0]	n/a	catFR1	3	R1247P
1937.465	1.6	1941160	WORD	n/a	wordpools/wordpool_categorized_EN.txt	OVEN	Appliances	3	18	[0, 0, 0]	n/a	catFR1	3	R1247P
1939.082	0.933	1942777	WORD_OFF	n/a	n/a	n/a	n/a	-999	18	[0, 0, 0]	n/a	catFR1	3	R1247P
1940.015	1.6	1943710	WORD	n/a	wordpools/wordpool_categorized_EN.txt	DRYER	Appliances	4	18	[0, 0, 0]	n/a	catFR1	3	R1247P
1941.632	0.851	1945326	WORD_OFF	n/a	n/a	n/a	n/a	-999	18	[0, 0, 0]	n/a	catFR1	3	R1247P
1942.483	1.6	1946177	WORD	n/a	wordpools/wordpool_categorized_EN.txt	BEE	Insects	5	18	[0, 0, 0]	n/a	catFR1	3	R1247P
1944.1	0.766	1947794	WORD_OFF	n/a	n/a	n/a	n/a	-999	18	[0, 0, 0]	n/a	catFR1	3	R1247P
1944.866	1.6	1948560	WORD	n/a	wordpools/wordpool_categorized_EN.txt	CRICKET	Insects	6	18	[0, 0, 0]	n/a	catFR1	3	R1247P
1946.483	0.867	1950177	WORD_OFF	n/a	n/a	n/a	n/a	-999	18	[0, 0, 0]	n/a	catFR1	3	R1247P
1947.35	1.6	1951044	WORD	n/a	wordpools/wordpool_categorized_EN.txt	FREEZER	Appliances	7	18	[0, 0, 0]	n/a	catFR1	3	R1247P
1948.967	0.85	1952661	WORD_OFF	n/a	n/a	n/a	n/a	-999	18	[0, 0, 0]	n/a	catFR1	3	R1247P
1949.817	1.6	1953511	WORD	n/a	wordpools/wordpool_categorized_EN.txt	TOASTER	Appliances	8	18	[0, 0, 0]	n/a	catFR1	3	R1247P
1951.434	0.85	1955128	WORD_OFF	n/a	n/a	n/a	n/a	-999	18	[0, 0, 0]	n/a	catFR1	3	R1247P
1952.284	1.6	1955978	WORD	n/a	wordpools/wordpool_categorized_EN.txt	FOG	Weather	9	18	[0, 0, 0]	n/a	catFR1	3	R1247P
1953.901	0.884	1957595	WORD_OFF	n/a	n/a	n/a	n/a	-999	18	[0, 0, 0]	n/a	catFR1	3	R1247P
1954.785	1.6	1958479	WORD	n/a	wordpools/wordpool_categorized_EN.txt	CLOUD	Weather	10	18	[0, 0, 0]	n/a	catFR1	3	R1247P
1956.402	0.85	1960096	WORD_OFF	n/a	n/a	n/a	n/a	-999	18	[0, 0, 0]	n/a	catFR1	3	R1247P
1957.252	1.6	1960946	WORD	n/a	wordpools/wordpool_categorized_EN.txt	SPIDER	Insects	11	18	[0, 0, 0]	n/a	catFR1	3	R1247P
1958.869	0.934	1962563	WORD_OFF	n/a	n/a	n/a	n/a	-999	18	[0, 0, 0]	n/a	catFR1	3	R1247P
1959.803	1.6	1963497	WORD	n/a	wordpools/wordpool_categorized_EN.txt	ROACH	Insects	12	18	[0, 0, 0]	n/a	catFR1	3	R1247P
1961.42	0.0	1965113	ENCODING_END	n/a	n/a	n/a	n/a	-999	18	[0, 0, 0]	n/a	catFR1	3	R1247P
1961.42	0.141	1965113	WORD_OFF	n/a	n/a	n/a	n/a	-999	18	[0, 0, 0]	n/a	catFR1	3	R1247P
1961.561	0.0	1965254	DISTRACT_START	n/a	n/a	n/a	n/a	-999	18	[0, 0, 0]	n/a	catFR1	3	R1247P
1961.561	0.008	1965254	START	n/a	n/a	n/a	n/a	-999	19	[-999, -999, -999]	n/a	catFR1	3	R1247P
1961.569	3.351	1965262	PROB	3.317	n/a	n/a	n/a	-999	19	[3, 9, 9]	21.0	catFR1	3	R1247P
1964.92	3.167	1968613	PROB	3.141	n/a	n/a	n/a	-999	19	[7, 1, 7]	15.0	catFR1	3	R1247P
1968.087	2.918	1971780	PROB	2.887	n/a	n/a	n/a	-999	19	[5, 7, 1]	13.0	catFR1	3	R1247P
1971.005	3.167	1974698	PROB	3.129	n/a	n/a	n/a	-999	19	[5, 4, 8]	20.0	catFR1	3	R1247P
1974.172	5.451	1977865	PROB	5.418	n/a	n/a	n/a	-999	19	[7, 5, 3]	15.0	catFR1	3	R1247P
1979.623	3.527	1983316	PROB	3.527	n/a	n/a	n/a	-999	19	[6, 7, 3]	16.0	catFR1	3	R1247P
1983.15	0.007	1986842	STOP	n/a	n/a	n/a	n/a	-999	19	[-999, -999, -999]	n/a	catFR1	3	R1247P
1983.157	0.7	1986849	DISTRACT_END	n/a	n/a	n/a	n/a	-999	18	[0, 0, 0]	n/a	catFR1	3	R1247P
1983.857	0.517	1987549	RETRIEVAL_ORIENT	n/a	n/a	n/a	n/a	-999	18	[0, 0, 0]	n/a	catFR1	3	R1247P
1984.374	1.694	1988066	REC_START	n/a	n/a	n/a	n/a	-999	18	[0, 0, 0]	n/a	catFR1	3	R1247P
1986.068	1.684	1989760	REC_WORD	1.694	n/a	WIND	Weather	1	18	[0, 0, 0]	n/a	catFR1	3	R1247P
1987.752	0.781	1991444	REC_WORD	3.378	n/a	LIGHTNING	Weather	2	18	[0, 0, 0]	n/a	catFR1	3	R1247P
1988.533	3.596	1992225	REC_WORD	4.159	n/a	THUNDER	n/a	-999	18	[0, 0, 0]	n/a	catFR1	3	R1247P
1992.129	22.257	1995821	REC_WORD	7.755	n/a	CRICKET	Insects	6	18	[0, 0, 0]	n/a	catFR1	3	R1247P
2014.386	5.378	2018077	REC_END	n/a	n/a	n/a	n/a	-999	18	[0, 0, 0]	n/a	catFR1	3	R1247P
2019.764	0.5	2023454	TRIAL	n/a	n/a	n/a	n/a	-999	19	[0, 0, 0]	n/a	catFR1	3	R1247P
2020.264	10.0	2023954	COUNTDOWN_START	n/a	n/a	n/a	n/a	-999	19	[0, 0, 0]	n/a	catFR1	3	R1247P
2030.692	0.007	2034382	COUNTDOWN_END	n/a	n/a	n/a	n/a	-999	19	[0, 0, 0]	n/a	catFR1	3	R1247P
2030.699	1.6	2034389	ORIENT	n/a	n/a	n/a	n/a	-999	19	[0, 0, 0]	n/a	catFR1	3	R1247P
2032.316	1.9	2036006	ORIENT_OFF	n/a	n/a	n/a	n/a	-999	19	[0, 0, 0]	n/a	catFR1	3	R1247P
2034.216	1.6	2037906	WORD	n/a	wordpools/wordpool_categorized_EN.txt	PEACH	Fruit	1	19	[0, 0, 0]	n/a	catFR1	3	R1247P
2035.834	0.933	2039524	WORD_OFF	n/a	n/a	n/a	n/a	-999	19	[0, 0, 0]	n/a	catFR1	3	R1247P
2036.767	1.6	2040457	WORD	n/a	wordpools/wordpool_categorized_EN.txt	BLUEBERRY	Fruit	2	19	[0, 0, 0]	n/a	catFR1	3	R1247P
2038.384	0.85	2042073	WORD_OFF	n/a	n/a	n/a	n/a	-999	19	[0, 0, 0]	n/a	catFR1	3	R1247P
2039.234	1.6	2042923	WORD	n/a	wordpools/wordpool_categorized_EN.txt	HICKORY	Trees	3	19	[0, 0, 0]	n/a	catFR1	3	R1247P
2040.851	0.834	2044540	WORD_OFF	n/a	n/a	n/a	n/a	-999	19	[0, 0, 0]	n/a	catFR1	3	R1247P
2041.685	1.6	2045374	WORD	n/a	wordpools/wordpool_categorized_EN.txt	ELM	Trees	4	19	[0, 0, 0]	n/a	catFR1	3	R1247P
2043.302	0.916	2046991	WORD_OFF	n/a	n/a	n/a	n/a	-999	19	[0, 0, 0]	n/a	catFR1	3	R1247P
2044.218	1.6	2047907	WORD	n/a	wordpools/wordpool_categorized_EN.txt	MOUSSE	Desserts	5	19	[0, 0, 0]	n/a	catFR1	3	R1247P
2045.835	0.934	2049524	WORD_OFF	n/a	n/a	n/a	n/a	-999	19	[0, 0, 0]	n/a	catFR1	3	R1247P
2046.769	1.6	2050458	WORD	n/a	wordpools/wordpool_categorized_EN.txt	CUPCAKE	Desserts	6	19	[0, 0, 0]	n/a	catFR1	3	R1247P
2048.386	0.85	2052075	WORD_OFF	n/a	n/a	n/a	n/a	-999	19	[0, 0, 0]	n/a	catFR1	3	R1247P
2049.236	1.6	2052925	WORD	n/a	wordpools/wordpool_categorized_EN.txt	SPRUCE	Trees	7	19	[0, 0, 0]	n/a	catFR1	3	R1247P
2050.853	0.834	2054542	WORD_OFF	n/a	n/a	n/a	n/a	-999	19	[0, 0, 0]	n/a	catFR1	3	R1247P
2051.687	1.6	2055376	WORD	n/a	wordpools/wordpool_categorized_EN.txt	MAPLE	Trees	8	19	[0, 0, 0]	n/a	catFR1	3	R1247P
2053.304	0.783	2056993	WORD_OFF	n/a	n/a	n/a	n/a	-999	19	[0, 0, 0]	n/a	catFR1	3	R1247P
2054.087	1.6	2057776	WORD	n/a	wordpools/wordpool_categorized_EN.txt	STRAWBERRY	Fruit	9	19	[0, 0, 0]	n/a	catFR1	3	R1247P
2055.704	0.767	2059393	WORD_OFF	n/a	n/a	n/a	n/a	-999	19	[0, 0, 0]	n/a	catFR1	3	R1247P
2056.471	1.6	2060159	WORD	n/a	wordpools/wordpool_categorized_EN.txt	PEAR	Fruit	10	19	[0, 0, 0]	n/a	catFR1	3	R1247P
2058.088	0.9	2061776	WORD_OFF	n/a	n/a	n/a	n/a	-999	19	[0, 0, 0]	n/a	catFR1	3	R1247P
2058.988	1.6	2062676	WORD	n/a	wordpools/wordpool_categorized_EN.txt	JELLO	Desserts	11	19	[0, 0, 0]	n/a	catFR1	3	R1247P
2060.605	0.767	2064293	WORD_OFF	n/a	n/a	n/a	n/a	-999	19	[0, 0, 0]	n/a	catFR1	3	R1247P
2061.372	1.6	2065060	WORD	n/a	wordpools/wordpool_categorized_EN.txt	PIE	Desserts	12	19	[0, 0, 0]	n/a	catFR1	3	R1247P
2062.989	0.0	2066677	ENCODING_END	n/a	n/a	n/a	n/a	-999	19	[0, 0, 0]	n/a	catFR1	3	R1247P
2062.989	0.105	2066677	WORD_OFF	n/a	n/a	n/a	n/a	-999	19	[0, 0, 0]	n/a	catFR1	3	R1247P
2063.094	0.0	2066782	DISTRACT_START	n/a	n/a	n/a	n/a	-999	19	[0, 0, 0]	n/a	catFR1	3	R1247P
2063.094	0.011	2066782	START	n/a	n/a	n/a	n/a	-999	20	[-999, -999, -999]	n/a	catFR1	3	R1247P
2063.105	3.568	2066793	PROB	3.542	n/a	n/a	n/a	-999	20	[5, 4, 2]	11.0	catFR1	3	R1247P
2066.673	3.317	2070361	PROB	3.285	n/a	n/a	n/a	-999	20	[8, 9, 4]	21.0	catFR1	3	R1247P
2069.99	2.934	2073678	PROB	2.911	n/a	n/a	n/a	-999	20	[4, 4, 9]	17.0	catFR1	3	R1247P
2072.924	3.067	2076612	PROB	3.042	n/a	n/a	n/a	-999	20	[7, 9, 7]	23.0	catFR1	3	R1247P
2075.991	3.217	2079678	PROB	3.183	n/a	n/a	n/a	-999	20	[6, 1, 8]	15.0	catFR1	3	R1247P
2079.208	2.684	2082895	PROB	2.645	n/a	n/a	n/a	-999	20	[2, 1, 6]	9.0	catFR1	3	R1247P
2081.892	3.395	2085579	PROB	3.395	n/a	n/a	n/a	-999	20	[3, 9, 4]	16.0	catFR1	3	R1247P
2085.287	0.006	2088974	STOP	n/a	n/a	n/a	n/a	-999	20	[-999, -999, -999]	n/a	catFR1	3	R1247P
2085.293	0.567	2088980	DISTRACT_END	n/a	n/a	n/a	n/a	-999	19	[0, 0, 0]	n/a	catFR1	3	R1247P
2085.86	0.517	2089547	RETRIEVAL_ORIENT	n/a	n/a	n/a	n/a	-999	19	[0, 0, 0]	n/a	catFR1	3	R1247P
2086.377	1.22	2090064	REC_START	n/a	n/a	n/a	n/a	-999	19	[0, 0, 0]	n/a	catFR1	3	R1247P
2087.597	0.638	2091284	REC_WORD	1.22	n/a	PEACH	Fruit	1	19	[0, 0, 0]	n/a	catFR1	3	R1247P
2088.235	0.828	2091922	REC_WORD	1.858	n/a	BLUEBERRY	Fruit	2	19	[0, 0, 0]	n/a	catFR1	3	R1247P
2089.063	1.028	2092750	REC_WORD	2.686	n/a	HICKORY	Trees	3	19	[0, 0, 0]	n/a	catFR1	3	R1247P
2090.091	7.64	2093778	REC_WORD	3.714	n/a	ELM	Trees	4	19	[0, 0, 0]	n/a	catFR1	3	R1247P
2097.731	1.325	2101417	REC_WORD	11.354	n/a	PEAR	Fruit	10	19	[0, 0, 0]	n/a	catFR1	3	R1247P
2099.056	2.507	2102742	REC_WORD	12.679	n/a	STRAWBERRY	Fruit	9	19	[0, 0, 0]	n/a	catFR1	3	R1247P
2101.563	14.826	2105249	REC_WORD	15.186	n/a	MOUSSE	Desserts	5	19	[0, 0, 0]	n/a	catFR1	3	R1247P
2116.389	5.077	2120074	REC_END	n/a	n/a	n/a	n/a	-999	19	[0, 0, 0]	n/a	catFR1	3	R1247P
2121.466	0.5	2125151	TRIAL	n/a	n/a	n/a	n/a	-999	20	[0, 0, 0]	n/a	catFR1	3	R1247P
2121.966	10.0	2125651	COUNTDOWN_START	n/a	n/a	n/a	n/a	-999	20	[0, 0, 0]	n/a	catFR1	3	R1247P
2132.394	0.008	2136079	COUNTDOWN_END	n/a	n/a	n/a	n/a	-999	20	[0, 0, 0]	n/a	catFR1	3	R1247P
2132.402	1.6	2136087	ORIENT	n/a	n/a	n/a	n/a	-999	20	[0, 0, 0]	n/a	catFR1	3	R1247P
2134.018	2.101	2137702	ORIENT_OFF	n/a	n/a	n/a	n/a	-999	20	[0, 0, 0]	n/a	catFR1	3	R1247P
2136.119	1.6	2139803	WORD	n/a	wordpools/wordpool_categorized_EN.txt	CYPRESS	Trees	1	20	[0, 0, 0]	n/a	catFR1	3	R1247P
2137.736	0.8	2141420	WORD_OFF	n/a	n/a	n/a	n/a	-999	20	[0, 0, 0]	n/a	catFR1	3	R1247P
2138.536	1.6	2142220	WORD	n/a	wordpools/wordpool_categorized_EN.txt	OAK	Trees	2	20	[0, 0, 0]	n/a	catFR1	3	R1247P
2140.153	0.866	2143837	WORD_OFF	n/a	n/a	n/a	n/a	-999	20	[0, 0, 0]	n/a	catFR1	3	R1247P
2141.019	1.6	2144703	WORD	n/a	wordpools/wordpool_categorized_EN.txt	KNIFE	KitchenTools	3	20	[0, 0, 0]	n/a	catFR1	3	R1247P
2142.62	0.8	2146304	WORD_OFF	n/a	n/a	n/a	n/a	-999	20	[0, 0, 0]	n/a	catFR1	3	R1247P
2143.42	1.6	2147104	WORD	n/a	wordpools/wordpool_categorized_EN.txt	FORK	KitchenTools	4	20	[0, 0, 0]	n/a	catFR1	3	R1247P
2145.036	0.835	2148720	WORD_OFF	n/a	n/a	n/a	n/a	-999	20	[0, 0, 0]	n/a	catFR1	3	R1247P
2145.871	1.6	2149555	WORD	n/a	wordpools/wordpool_categorized_EN.txt	BUTTERFLY	Insects	5	20	[0, 0, 0]	n/a	catFR1	3	R1247P
2147.488	0.833	2151172	WORD_OFF	n/a	n/a	n/a	n/a	-999	20	[0, 0, 0]	n/a	catFR1	3	R1247P
2148.321	1.6	2152005	WORD	n/a	wordpools/wordpool_categorized_EN.txt	MOTH	Insects	6	20	[0, 0, 0]	n/a	catFR1	3	R1247P
2149.938	0.834	2153622	WORD_OFF	n/a	n/a	n/a	n/a	-999	20	[0, 0, 0]	n/a	catFR1	3	R1247P
2150.772	1.6	2154456	WORD	n/a	wordpools/wordpool_categorized_EN.txt	COLANDER	KitchenTools	7	20	[0, 0, 0]	n/a	catFR1	3	R1247P
2152.389	0.917	2156072	WORD_OFF	n/a	n/a	n/a	n/a	-999	20	[0, 0, 0]	n/a	catFR1	3	R1247P
2153.306	1.6	2156989	WORD	n/a	wordpools/wordpool_categorized_EN.txt	GRATER	KitchenTools	8	20	[0, 0, 0]	n/a	catFR1	3	R1247P
2154.923	0.833	2158606	WORD_OFF	n/a	n/a	n/a	n/a	-999	20	[0, 0, 0]	n/a	catFR1	3	R1247P
2155.756	1.6	2159439	WORD	n/a	wordpools/wordpool_categorized_EN.txt	BIRCH	Trees	9	20	[0, 0, 0]	n/a	catFR1	3	R1247P
2157.373	0.85	2161056	WORD_OFF	n/a	n/a	n/a	n/a	-999	20	[0, 0, 0]	n/a	catFR1	3	R1247P
2158.223	1.6	2161906	WORD	n/a	wordpools/wordpool_categorized_EN.txt	PINE	Trees	10	20	[0, 0, 0]	n/a	catFR1	3	R1247P
2159.84	0.917	2163523	WORD_OFF	n/a	n/a	n/a	n/a	-999	20	[0, 0, 0]	n/a	catFR1	3	R1247P
2160.757	1.6	2164440	WORD	n/a	wordpools/wordpool_categorized_EN.txt	MOSQUITO	Insects	11	20	[0, 0, 0]	n/a	catFR1	3	R1247P
2162.374	0.917	2166057	WORD_OFF	n/a	n/a	n/a	n/a	-999	20	[0, 0, 0]	n/a	catFR1	3	R1247P
2163.291	1.6	2166974	WORD	n/a	wordpools/wordpool_categorized_EN.txt	LADYBUG	Insects	12	20	[0, 0, 0]	n/a	catFR1	3	R1247P
2164.908	0.0	2168591	ENCODING_END	n/a	n/a	n/a	n/a	-999	20	[0, 0, 0]	n/a	catFR1	3	R1247P
2164.908	0.106	2168591	WORD_OFF	n/a	n/a	n/a	n/a	-999	20	[0, 0, 0]	n/a	catFR1	3	R1247P
2165.014	0.0	2168697	DISTRACT_START	n/a	n/a	n/a	n/a	-999	20	[0, 0, 0]	n/a	catFR1	3	R1247P
2165.014	0.01	2168697	START	n/a	n/a	n/a	n/a	-999	21	[-999, -999, -999]	n/a	catFR1	3	R1247P
2165.024	3.968	2168707	PROB	3.934	n/a	n/a	n/a	-999	21	[2, 4, 9]	15.0	catFR1	3	R1247P
2168.992	3.167	2172675	PROB	3.134	n/a	n/a	n/a	-999	21	[4, 9, 3]	16.0	catFR1	3	R1247P
2172.159	2.617	2175841	PROB	2.591	n/a	n/a	n/a	-999	21	[1, 1, 9]	11.0	catFR1	3	R1247P
2174.776	3.051	2178458	PROB	3.021	n/a	n/a	n/a	-999	21	[2, 8, 4]	14.0	catFR1	3	R1247P
2177.827	3.417	2181509	PROB	3.395	n/a	n/a	n/a	-999	21	[6, 6, 4]	16.0	catFR1	3	R1247P
2181.244	2.617	2184926	PROB	2.586	n/a	n/a	n/a	-999	21	[3, 7, 2]	12.0	catFR1	3	R1247P
2183.861	3.192	2187543	PROB	3.192	n/a	n/a	n/a	-999	21	[9, 8, 1]	18.0	catFR1	3	R1247P
2187.053	0.008	2190735	STOP	n/a	n/a	n/a	n/a	-999	21	[-999, -999, -999]	n/a	catFR1	3	R1247P
2187.061	0.685	2190743	DISTRACT_END	n/a	n/a	n/a	n/a	-999	20	[0, 0, 0]	n/a	catFR1	3	R1247P
2187.746	0.517	2191428	RETRIEVAL_ORIENT	n/a	n/a	n/a	n/a	-999	20	[0, 0, 0]	n/a	catFR1	3	R1247P
2188.263	0.996	2191945	REC_START	n/a	n/a	n/a	n/a	-999	20	[0, 0, 0]	n/a	catFR1	3	R1247P
2189.259	0.957	2192941	REC_WORD	0.996	n/a	CYPRESS	Trees	1	20	[0, 0, 0]	n/a	catFR1	3	R1247P
2190.216	1.179	2193897	REC_WORD	1.953	n/a	OAK	Trees	2	20	[0, 0, 0]	n/a	catFR1	3	R1247P
2191.395	3.837	2195076	REC_WORD	3.132	n/a	RUM	n/a	-999	20	[0, 0, 0]	n/a	catFR1	3	R1247P
2195.232	0.809	2198913	REC_WORD	6.969	n/a	LOSS	n/a	-999	20	[0, 0, 0]	n/a	catFR1	3	R1247P
2196.041	22.234	2199722	REC_WORD	7.778	n/a	BUTTERFLY	Insects	5	20	[0, 0, 0]	n/a	catFR1	3	R1247P
2218.275	5.027	2221955	REC_END	n/a	n/a	n/a	n/a	-999	20	[0, 0, 0]	n/a	catFR1	3	R1247P
2223.302	0.5	2226982	TRIAL	n/a	n/a	n/a	n/a	-999	21	[0, 0, 0]	n/a	catFR1	3	R1247P
2223.802	10.0	2227482	COUNTDOWN_START	n/a	n/a	n/a	n/a	-999	21	[0, 0, 0]	n/a	catFR1	3	R1247P
2234.23	0.008	2237909	COUNTDOWN_END	n/a	n/a	n/a	n/a	-999	21	[0, 0, 0]	n/a	catFR1	3	R1247P
2234.238	1.6	2237917	ORIENT	n/a	n/a	n/a	n/a	-999	21	[0, 0, 0]	n/a	catFR1	3	R1247P
2235.855	2.199	2239534	ORIENT_OFF	n/a	n/a	n/a	n/a	-999	21	[0, 0, 0]	n/a	catFR1	3	R1247P
2238.054	1.6	2241733	WORD	n/a	wordpools/wordpool_categorized_EN.txt	CAULIFLOWER	Vegetables	1	21	[0, 0, 0]	n/a	catFR1	3	R1247P
2239.672	0.8	2243351	WORD_OFF	n/a	n/a	n/a	n/a	-999	21	[0, 0, 0]	n/a	catFR1	3	R1247P
2240.472	1.6	2244151	WORD	n/a	wordpools/wordpool_categorized_EN.txt	CABBAGE	Vegetables	2	21	[0, 0, 0]	n/a	catFR1	3	R1247P
2242.089	0.983	2245768	WORD_OFF	n/a	n/a	n/a	n/a	-999	21	[0, 0, 0]	n/a	catFR1	3	R1247P
2243.072	1.6	2246751	WORD	n/a	wordpools/wordpool_categorized_EN.txt	SAW	Tools	3	21	[0, 0, 0]	n/a	catFR1	3	R1247P
2244.69	0.95	2248369	WORD_OFF	n/a	n/a	n/a	n/a	-999	21	[0, 0, 0]	n/a	catFR1	3	R1247P
2245.64	1.6	2249319	WORD	n/a	wordpools/wordpool_categorized_EN.txt	AXE	Tools	4	21	[0, 0, 0]	n/a	catFR1	3	R1247P
2247.257	0.782	2250936	WORD_OFF	n/a	n/a	n/a	n/a	-999	21	[0, 0, 0]	n/a	catFR1	3	R1247P
2248.039	1.6	2251717	WORD	n/a	wordpools/wordpool_categorized_EN.txt	COW	FarmAnimals	5	21	[0, 0, 0]	n/a	catFR1	3	R1247P
2249.657	0.9	2253335	WORD_OFF	n/a	n/a	n/a	n/a	-999	21	[0, 0, 0]	n/a	catFR1	3	R1247P
2250.557	1.6	2254235	WORD	n/a	wordpools/wordpool_categorized_EN.txt	GOAT	FarmAnimals	6	21	[0, 0, 0]	n/a	catFR1	3	R1247P
2252.174	0.784	2255852	WORD_OFF	n/a	n/a	n/a	n/a	-999	21	[0, 0, 0]	n/a	catFR1	3	R1247P
2252.958	1.6	2256636	WORD	n/a	wordpools/wordpool_categorized_EN.txt	ONION	Vegetables	7	21	[0, 0, 0]	n/a	catFR1	3	R1247P
2254.575	0.85	2258253	WORD_OFF	n/a	n/a	n/a	n/a	-999	21	[0, 0, 0]	n/a	catFR1	3	R1247P
2255.425	1.6	2259103	WORD	n/a	wordpools/wordpool_categorized_EN.txt	LETTUCE	Vegetables	8	21	[0, 0, 0]	n/a	catFR1	3	R1247P
2257.041	0.983	2260719	WORD_OFF	n/a	n/a	n/a	n/a	-999	21	[0, 0, 0]	n/a	catFR1	3	R1247P
2258.024	1.6	2261702	WORD	n/a	wordpools/wordpool_categorized_EN.txt	CROWBAR	Tools	9	21	[0, 0, 0]	n/a	catFR1	3	R1247P
2259.642	1.001	2263320	WORD_OFF	n/a	n/a	n/a	n/a	-999	21	[0, 0, 0]	n/a	catFR1	3	R1247P
2260.643	1.6	2264321	WORD	n/a	wordpools/wordpool_categorized_EN.txt	RATCHET	Tools	10	21	[0, 0, 0]	n/a	catFR1	3	R1247P
2262.26	0.799	2265938	WORD_OFF	n/a	n/a	n/a	n/a	-999	21	[0, 0, 0]	n/a	catFR1	3	R1247P
2263.059	1.6	2266737	WORD	n/a	wordpools/wordpool_categorized_EN.txt	TURKEY	FarmAnimals	11	21	[0, 0, 0]	n/a	catFR1	3	R1247P
2264.677	1.0	2268355	WORD_OFF	n/a	n/a	n/a	n/a	-999	21	[0, 0, 0]	n/a	catFR1	3	R1247P
2265.677	1.6	2269355	WORD	n/a	wordpools/wordpool_categorized_EN.txt	PIG	FarmAnimals	12	21	[0, 0, 0]	n/a	catFR1	3	R1247P
2267.294	0.0	2270971	ENCODING_END	n/a	n/a	n/a	n/a	-999	21	[0, 0, 0]	n/a	catFR1	3	R1247P
2267.294	0.14	2270971	WORD_OFF	n/a	n/a	n/a	n/a	-999	21	[0, 0, 0]	n/a	catFR1	3	R1247P
2267.434	0.0	2271111	DISTRACT_START	n/a	n/a	n/a	n/a	-999	21	[0, 0, 0]	n/a	catFR1	3	R1247P
2267.434	0.01	2271111	START	n/a	n/a	n/a	n/a	-999	22	[-999, -999, -999]	n/a	catFR1	3	R1247P
2267.444	3.334	2271121	PROB	3.297	n/a	n/a	n/a	-999	22	[8, 9, 4]	21.0	catFR1	3	R1247P
2270.778	2.984	2274455	PROB	2.955	n/a	n/a	n/a	-999	22	[1, 4, 6]	11.0	catFR1	3	R1247P
2273.762	3.5	2277439	PROB	3.476	n/a	n/a	n/a	-999	22	[6, 2, 9]	17.0	catFR1	3	R1247P
2277.262	3.151	2280939	PROB	3.128	n/a	n/a	n/a	-999	22	[4, 4, 3]	11.0	catFR1	3	R1247P
2280.413	3.501	2284090	PROB	3.474	n/a	n/a	n/a	-999	22	[3, 6, 8]	16.0	catFR1	3	R1247P
2283.914	3.434	2287591	PROB	3.411	n/a	n/a	n/a	-999	22	[2, 6, 3]	11.0	catFR1	3	R1247P
2287.348	3.761	2291024	PROB	3.761	n/a	n/a	n/a	-999	22	[7, 8, 5]	20.0	catFR1	3	R1247P
2291.109	0.006	2294785	STOP	n/a	n/a	n/a	n/a	-999	22	[-999, -999, -999]	n/a	catFR1	3	R1247P
2291.115	0.683	2294791	DISTRACT_END	n/a	n/a	n/a	n/a	-999	21	[0, 0, 0]	n/a	catFR1	3	R1247P
2291.798	0.518	2295474	RETRIEVAL_ORIENT	n/a	n/a	n/a	n/a	-999	21	[0, 0, 0]	n/a	catFR1	3	R1247P
2292.316	3.169	2295992	REC_START	n/a	n/a	n/a	n/a	-999	21	[0, 0, 0]	n/a	catFR1	3	R1247P
2295.485	1.077	2299161	REC_WORD	3.169	n/a	CAULIFLOWER	Vegetables	1	21	[0, 0, 0]	n/a	catFR1	3	R1247P
2296.562	2.429	2300238	REC_WORD	4.246	n/a	CABBAGE	Vegetables	2	21	[0, 0, 0]	n/a	catFR1	3	R1247P
2298.991	0.829	2302667	REC_WORD	6.675	n/a	SAW	Tools	3	21	[0, 0, 0]	n/a	catFR1	3	R1247P
2299.82	22.509	2303496	REC_WORD	7.504	n/a	AXE	Tools	4	21	[0, 0, 0]	n/a	catFR1	3	R1247P
2322.329	5.093	2326004	REC_END	n/a	n/a	n/a	n/a	-999	21	[0, 0, 0]	n/a	catFR1	3	R1247P
2327.422	0.5	2331096	TRIAL	n/a	n/a	n/a	n/a	-999	22	[0, 0, 0]	n/a	catFR1	3	R1247P
2327.922	10.0	2331596	COUNTDOWN_START	n/a	n/a	n/a	n/a	-999	22	[0, 0, 0]	n/a	catFR1	3	R1247P
2338.35	0.007	2342024	COUNTDOWN_END	n/a	n/a	n/a	n/a	-999	22	[0, 0, 0]	n/a	catFR1	3	R1247P
2338.357	1.6	2342031	ORIENT	n/a	n/a	n/a	n/a	-999	22	[0, 0, 0]	n/a	catFR1	3	R1247P
2339.974	2.217	2343648	ORIENT_OFF	n/a	n/a	n/a	n/a	-999	22	[0, 0, 0]	n/a	catFR1	3	R1247P
2342.191	1.6	2345865	WORD	n/a	wordpools/wordpool_categorized_EN.txt	LAMB	FarmAnimals	1	22	[0, 0, 0]	n/a	catFR1	3	R1247P
2343.808	0.901	2347481	WORD_OFF	n/a	n/a	n/a	n/a	-999	22	[0, 0, 0]	n/a	catFR1	3	R1247P
2344.709	1.6	2348382	WORD	n/a	wordpools/wordpool_categorized_EN.txt	SHEEP	FarmAnimals	2	22	[0, 0, 0]	n/a	catFR1	3	R1247P
2346.325	0.984	2349998	WORD_OFF	n/a	n/a	n/a	n/a	-999	22	[0, 0, 0]	n/a	catFR1	3	R1247P
2347.309	1.6	2350982	WORD	n/a	wordpools/wordpool_categorized_EN.txt	PEN	OfficeSupplies	3	22	[0, 0, 0]	n/a	catFR1	3	R1247P
2348.926	0.883	2352599	WORD_OFF	n/a	n/a	n/a	n/a	-999	22	[0, 0, 0]	n/a	catFR1	3	R1247P
2349.809	1.6	2353482	WORD	n/a	wordpools/wordpool_categorized_EN.txt	TAPE	OfficeSupplies	4	22	[0, 0, 0]	n/a	catFR1	3	R1247P
2351.426	0.951	2355099	WORD_OFF	n/a	n/a	n/a	n/a	-999	22	[0, 0, 0]	n/a	catFR1	3	R1247P
2352.377	1.6	2356050	WORD	n/a	wordpools/wordpool_categorized_EN.txt	COBBLER	Desserts	5	22	[0, 0, 0]	n/a	catFR1	3	R1247P
2353.994	0.883	2357667	WORD_OFF	n/a	n/a	n/a	n/a	-999	22	[0, 0, 0]	n/a	catFR1	3	R1247P
2354.877	1.6	2358550	WORD	n/a	wordpools/wordpool_categorized_EN.txt	PASTRY	Desserts	6	22	[0, 0, 0]	n/a	catFR1	3	R1247P
2356.494	0.95	2360167	WORD_OFF	n/a	n/a	n/a	n/a	-999	22	[0, 0, 0]	n/a	catFR1	3	R1247P
2357.444	1.6	2361117	WORD	n/a	wordpools/wordpool_categorized_EN.txt	HORSE	FarmAnimals	7	22	[0, 0, 0]	n/a	catFR1	3	R1247P
2359.06	0.818	2362733	WORD_OFF	n/a	n/a	n/a	n/a	-999	22	[0, 0, 0]	n/a	catFR1	3	R1247P
2359.878	1.6	2363551	WORD	n/a	wordpools/wordpool_categorized_EN.txt	BULL	FarmAnimals	8	22	[0, 0, 0]	n/a	catFR1	3	R1247P
2361.495	0.8	2365168	WORD_OFF	n/a	n/a	n/a	n/a	-999	22	[0, 0, 0]	n/a	catFR1	3	R1247P
2362.295	1.6	2365968	WORD	n/a	wordpools/wordpool_categorized_EN.txt	STAPLER	OfficeSupplies	9	22	[0, 0, 0]	n/a	catFR1	3	R1247P
2363.912	1.017	2367584	WORD_OFF	n/a	n/a	n/a	n/a	-999	22	[0, 0, 0]	n/a	catFR1	3	R1247P
2364.929	1.6	2368601	WORD	n/a	wordpools/wordpool_categorized_EN.txt	PENCIL	OfficeSupplies	10	22	[0, 0, 0]	n/a	catFR1	3	R1247P
