onset	duration	sample	trial_type	response_time	stim_file	item_name	category	serialpos	list	test	answer	experiment	session	subject
0.0	0.999	62034	INSTRUCT_START	n/a	n/a	n/a	n/a	-999	-999	[0, 0, 0]	n/a	catFR1	0	R1396T
0.999	27.282	63026	INSTRUCT_END	n/a	n/a	n/a	n/a	-999	-999	[0, 0, 0]	n/a	catFR1	0	R1396T
28.281	10.351	90313	COUNTDOWN_START	n/a	n/a	n/a	n/a	-999	-999	[0, 0, 0]	n/a	catFR1	0	R1396T
38.632	0.0	100653	COUNTDOWN_END	n/a	n/a	n/a	n/a	-999	-999	[0, 0, 0]	n/a	catFR1	0	R1396T
38.632	1.982	100666	ENCODING_START	n/a	n/a	n/a	n/a	-999	-1	[0, 0, 0]	n/a	catFR1	0	R1396T
40.614	1.6	102637	WORD	n/a	n/a	BLOCKS	Toys	1	-1	[0, 0, 0]	n/a	catFR1	0	R1396T
42.214	0.883	104243	WORD_OFF	n/a	n/a	BLOCKS	Toys	1	-1	[0, 0, 0]	n/a	catFR1	0	R1396T
43.097	1.6	105124	WORD	n/a	n/a	FRISBEE	Toys	2	-1	[0, 0, 0]	n/a	catFR1	0	R1396T
44.697	0.967	106730	WORD_OFF	n/a	n/a	FRISBEE	Toys	2	-1	[0, 0, 0]	n/a	catFR1	0	R1396T
45.664	1.616	107694	WORD	n/a	n/a	RADIO	Electronics	3	-1	[0, 0, 0]	n/a	catFR1	0	R1396T
47.28	0.8	109301	WORD_OFF	n/a	n/a	RADIO	Electronics	3	-1	[0, 0, 0]	n/a	catFR1	0	R1396T
48.08	1.617	110111	WORD	n/a	n/a	CALCULATOR	Electronics	4	-1	[0, 0, 0]	n/a	catFR1	0	R1396T
49.697	0.767	111718	WORD_OFF	n/a	n/a	CALCULATOR	Electronics	4	-1	[0, 0, 0]	n/a	catFR1	0	R1396T
50.464	1.616	112487	WORD	n/a	n/a	ELEPHANT	Zoo	5	-1	[0, 0, 0]	n/a	catFR1	0	R1396T
52.08	0.767	114107	WORD_OFF	n/a	n/a	ELEPHANT	Zoo	5	-1	[0, 0, 0]	n/a	catFR1	0	R1396T
52.847	1.616	114876	WORD	n/a	n/a	ORANGUTAN	Zoo	6	-1	[0, 0, 0]	n/a	catFR1	0	R1396T
54.463	0.934	116483	WORD_OFF	n/a	n/a	ORANGUTAN	Zoo	6	-1	[0, 0, 0]	n/a	catFR1	0	R1396T
55.397	1.801	117419	WORD	n/a	n/a	SLINKY	Toys	7	-1	[0, 0, 0]	n/a	catFR1	0	R1396T
57.198	0.865	119221	WORD_OFF	n/a	n/a	SLINKY	Toys	7	-1	[0, 0, 0]	n/a	catFR1	0	R1396T
58.063	1.619	120087	WORD	n/a	n/a	FOOTBALL	Toys	8	-1	[0, 0, 0]	n/a	catFR1	0	R1396T
59.682	0.815	121708	WORD_OFF	n/a	n/a	FOOTBALL	Toys	8	-1	[0, 0, 0]	n/a	catFR1	0	R1396T
60.497	1.616	122518	WORD	n/a	n/a	TIGER	Zoo	9	-1	[0, 0, 0]	n/a	catFR1	0	R1396T
62.113	1.001	124139	WORD_OFF	n/a	n/a	TIGER	Zoo	9	-1	[0, 0, 0]	n/a	catFR1	0	R1396T
63.114	1.6	125145	WORD	n/a	n/a	GORILLA	Zoo	10	-1	[0, 0, 0]	n/a	catFR1	0	R1396T
64.714	0.816	126738	WORD_OFF	n/a	n/a	GORILLA	Zoo	10	-1	[0, 0, 0]	n/a	catFR1	0	R1396T
65.53	1.617	127562	WORD	n/a	n/a	TABLET	Electronics	11	-1	[0, 0, 0]	n/a	catFR1	0	R1396T
67.147	0.767	129169	WORD_OFF	n/a	n/a	TABLET	Electronics	11	-1	[0, 0, 0]	n/a	catFR1	0	R1396T
67.914	1.618	129937	WORD	n/a	n/a	STEREO	Electronics	12	-1	[0, 0, 0]	n/a	catFR1	0	R1396T
69.532	0.0	131557	START	n/a	n/a	n/a	n/a	-999	-1	[-999, -999, -999]	n/a	catFR1	0	R1396T
69.532	0.0	131557	PROB	8.716	n/a	n/a	n/a	-999	-1	[5, 8, 6]	19.0	catFR1	0	R1396T
69.531	0.001	131558	WORD_OFF	n/a	n/a	STEREO	Electronics	12	-1	[0, 0, 0]	n/a	catFR1	0	R1396T
69.532	0.0	131558	ENCODING_END	n/a	n/a	n/a	n/a	-999	-1	[0, 0, 0]	n/a	catFR1	0	R1396T
69.532	8.733	131558	DISTRACT_START	n/a	n/a	n/a	n/a	-999	-1	[0, 0, 0]	n/a	catFR1	0	R1396T
78.265	4.2	140289	PROB	4.182	n/a	n/a	n/a	-999	-1	[6, 2, 4]	12.0	catFR1	0	R1396T
82.465	7.766	144489	PROB	7.749	n/a	n/a	n/a	-999	-1	[5, 6, 7]	18.0	catFR1	0	R1396T
90.231	0.0	152250	DISTRACT_END	n/a	n/a	n/a	n/a	-999	-1	[0, 0, 0]	n/a	catFR1	0	R1396T
90.231	2.083	152255	STOP	n/a	n/a	n/a	n/a	-999	-1	[-999, -999, -999]	n/a	catFR1	0	R1396T
92.314	1.157	154340	REC_START	n/a	n/a	n/a	n/a	-999	-1	[0, 0, 0]	n/a	catFR1	0	R1396T
93.471	1.792	155495	REC_WORD	1.157	n/a	TABLET	Electronics	11	-1	[0, 0, 0]	n/a	catFR1	0	R1396T
95.263	11.025	157287	REC_WORD	2.949	n/a	ELEPHANT	Zoo	5	-1	[0, 0, 0]	n/a	catFR1	0	R1396T
106.288	16.26	168311	REC_WORD	13.974	n/a	GORILLA	Zoo	10	-1	[0, 0, 0]	n/a	catFR1	0	R1396T
122.548	3.833	184567	REC_END	n/a	n/a	n/a	n/a	-999	-1	[0, 0, 0]	n/a	catFR1	0	R1396T
126.381	10.35	188409	COUNTDOWN_START	n/a	n/a	n/a	n/a	-999	1	[0, 0, 0]	n/a	catFR1	0	R1396T
136.731	0.0	198749	COUNTDOWN_END	n/a	n/a	n/a	n/a	-999	1	[0, 0, 0]	n/a	catFR1	0	R1396T
136.731	2.116	198749	ENCODING_START	n/a	n/a	n/a	n/a	-999	1	[0, 0, 0]	n/a	catFR1	0	R1396T
138.847	1.6	200872	WORD	n/a	wordpools/wordpool_categorized_EN.txt	FOREST	Landscapes	1	1	[0, 0, 0]	n/a	catFR1	0	R1396T
140.447	0.933	202465	WORD_OFF	n/a	n/a	FOREST	Landscapes	1	1	[0, 0, 0]	n/a	catFR1	0	R1396T
141.38	1.601	203401	WORD	n/a	wordpools/wordpool_categorized_EN.txt	HILLS	Landscapes	2	1	[0, 0, 0]	n/a	catFR1	0	R1396T
142.981	0.833	205008	WORD_OFF	n/a	n/a	HILLS	Landscapes	2	1	[0, 0, 0]	n/a	catFR1	0	R1396T
143.814	1.6	205832	WORD	n/a	wordpools/wordpool_categorized_EN.txt	LOBSTER	OceanAnimals	3	1	[0, 0, 0]	n/a	catFR1	0	R1396T
145.414	0.967	207439	WORD_OFF	n/a	n/a	LOBSTER	OceanAnimals	3	1	[0, 0, 0]	n/a	catFR1	0	R1396T
146.381	1.6	208403	WORD	n/a	wordpools/wordpool_categorized_EN.txt	CRAB	OceanAnimals	4	1	[0, 0, 0]	n/a	catFR1	0	R1396T
147.981	0.899	209996	WORD_OFF	n/a	n/a	CRAB	OceanAnimals	4	1	[0, 0, 0]	n/a	catFR1	0	R1396T
148.88	1.6	210904	WORD	n/a	wordpools/wordpool_categorized_EN.txt	FLEECE	Fabric	5	1	[0, 0, 0]	n/a	catFR1	0	R1396T
150.48	1.0	212497	WORD_OFF	n/a	n/a	FLEECE	Fabric	5	1	[0, 0, 0]	n/a	catFR1	0	R1396T
151.48	1.617	213503	WORD	n/a	wordpools/wordpool_categorized_EN.txt	WOOL	Fabric	6	1	[0, 0, 0]	n/a	catFR1	0	R1396T
153.097	0.968	215124	WORD_OFF	n/a	n/a	WOOL	Fabric	6	1	[0, 0, 0]	n/a	catFR1	0	R1396T
154.065	1.615	216088	WORD	n/a	wordpools/wordpool_categorized_EN.txt	OCTOPUS	OceanAnimals	7	1	[0, 0, 0]	n/a	catFR1	0	R1396T
155.68	0.933	217694	WORD_OFF	n/a	n/a	OCTOPUS	OceanAnimals	7	1	[0, 0, 0]	n/a	catFR1	0	R1396T
156.613	1.601	218631	WORD	n/a	wordpools/wordpool_categorized_EN.txt	DOLPHIN	OceanAnimals	8	1	[0, 0, 0]	n/a	catFR1	0	R1396T
158.214	0.783	220237	WORD_OFF	n/a	n/a	DOLPHIN	OceanAnimals	8	1	[0, 0, 0]	n/a	catFR1	0	R1396T
158.997	1.617	221020	WORD	n/a	wordpools/wordpool_categorized_EN.txt	NYLON	Fabric	9	1	[0, 0, 0]	n/a	catFR1	0	R1396T
160.614	0.999	222640	WORD_OFF	n/a	n/a	NYLON	Fabric	9	1	[0, 0, 0]	n/a	catFR1	0	R1396T
161.613	1.617	223632	WORD	n/a	wordpools/wordpool_categorized_EN.txt	SATIN	Fabric	10	1	[0, 0, 0]	n/a	catFR1	0	R1396T
163.23	0.951	225253	WORD_OFF	n/a	n/a	SATIN	Fabric	10	1	[0, 0, 0]	n/a	catFR1	0	R1396T
164.181	1.6	226203	WORD	n/a	wordpools/wordpool_categorized_EN.txt	MOUNTAIN	Landscapes	11	1	[0, 0, 0]	n/a	catFR1	0	R1396T
165.781	0.833	227796	WORD_OFF	n/a	n/a	MOUNTAIN	Landscapes	11	1	[0, 0, 0]	n/a	catFR1	0	R1396T
166.614	1.601	228634	WORD	n/a	wordpools/wordpool_categorized_EN.txt	LAKE	Landscapes	12	1	[0, 0, 0]	n/a	catFR1	0	R1396T
168.215	0.0	230227	WORD_OFF	n/a	n/a	LAKE	Landscapes	12	1	[0, 0, 0]	n/a	catFR1	0	R1396T
168.215	0.001	230235	PROB	8.582	n/a	n/a	n/a	-999	1	[8, 7, 6]	21.0	catFR1	0	R1396T
168.216	0.0	230236	START	n/a	n/a	n/a	n/a	-999	1	[-999, -999, -999]	n/a	catFR1	0	R1396T
168.216	0.0	230241	ENCODING_END	n/a	n/a	n/a	n/a	-999	1	[0, 0, 0]	n/a	catFR1	0	R1396T
168.216	8.6	230241	DISTRACT_START	n/a	n/a	n/a	n/a	-999	1	[0, 0, 0]	n/a	catFR1	0	R1396T
176.816	7.365	238835	PROB	7.349	n/a	n/a	n/a	-999	1	[5, 7, 8]	20.0	catFR1	0	R1396T
184.181	5.167	246200	PROB	5.15	n/a	n/a	n/a	-999	1	[7, 8, 8]	23.0	catFR1	0	R1396T
189.348	0.0	251366	DISTRACT_END	n/a	n/a	n/a	n/a	-999	1	[0, 0, 0]	n/a	catFR1	0	R1396T
189.348	2.266	251367	STOP	n/a	n/a	n/a	n/a	-999	1	[-999, -999, -999]	n/a	catFR1	0	R1396T
191.614	1.761	253638	REC_START	n/a	n/a	n/a	n/a	-999	1	[0, 0, 0]	n/a	catFR1	0	R1396T
193.375	1.053	255393	REC_WORD	1.761	n/a	DOLPHIN	OceanAnimals	8	1	[0, 0, 0]	n/a	catFR1	0	R1396T
194.428	1.966	256446	REC_WORD	2.814	n/a	OCTOPUS	OceanAnimals	7	1	[0, 0, 0]	n/a	catFR1	0	R1396T
196.394	5.033	258412	REC_WORD	4.78	n/a	MOUNTAIN	Landscapes	11	1	[0, 0, 0]	n/a	catFR1	0	R1396T
201.427	20.389	263445	REC_WORD	9.813	n/a	OCEAN	n/a	-999	1	[0, 0, 0]	n/a	catFR1	0	R1396T
221.816	0.832	283837	REC_END	n/a	n/a	n/a	n/a	-999	1	[0, 0, 0]	n/a	catFR1	0	R1396T
222.648	10.35	284661	COUNTDOWN_START	n/a	n/a	n/a	n/a	-999	2	[0, 0, 0]	n/a	catFR1	0	R1396T
232.998	0.0	295014	COUNTDOWN_END	n/a	n/a	n/a	n/a	-999	2	[0, 0, 0]	n/a	catFR1	0	R1396T
232.998	2.133	295014	ENCODING_START	n/a	n/a	n/a	n/a	-999	2	[0, 0, 0]	n/a	catFR1	0	R1396T
235.131	1.6	297152	WORD	n/a	wordpools/wordpool_categorized_EN.txt	GLUE	OfficeSupplies	1	2	[0, 0, 0]	n/a	catFR1	0	R1396T
236.731	0.967	298745	WORD_OFF	n/a	n/a	GLUE	OfficeSupplies	1	2	[0, 0, 0]	n/a	catFR1	0	R1396T
237.698	1.6	299709	WORD	n/a	wordpools/wordpool_categorized_EN.txt	TAPE	OfficeSupplies	2	2	[0, 0, 0]	n/a	catFR1	0	R1396T
239.298	0.882	301316	WORD_OFF	n/a	n/a	TAPE	OfficeSupplies	2	2	[0, 0, 0]	n/a	catFR1	0	R1396T
240.18	1.601	302196	WORD	n/a	wordpools/wordpool_categorized_EN.txt	STRAWBERRY	Fruit	3	2	[0, 0, 0]	n/a	catFR1	0	R1396T
241.781	0.767	303803	WORD_OFF	n/a	n/a	STRAWBERRY	Fruit	3	2	[0, 0, 0]	n/a	catFR1	0	R1396T
242.548	1.6	304557	WORD	n/a	wordpools/wordpool_categorized_EN.txt	BLUEBERRY	Fruit	4	2	[0, 0, 0]	n/a	catFR1	0	R1396T
244.148	0.932	306164	WORD_OFF	n/a	n/a	BLUEBERRY	Fruit	4	2	[0, 0, 0]	n/a	catFR1	0	R1396T
245.08	1.618	307100	WORD	n/a	wordpools/wordpool_categorized_EN.txt	HORSE	FarmAnimals	5	2	[0, 0, 0]	n/a	catFR1	0	R1396T
246.698	0.883	308707	WORD_OFF	n/a	n/a	HORSE	FarmAnimals	5	2	[0, 0, 0]	n/a	catFR1	0	R1396T
247.581	1.617	309601	WORD	n/a	wordpools/wordpool_categorized_EN.txt	LAMB	FarmAnimals	6	2	[0, 0, 0]	n/a	catFR1	0	R1396T
249.198	0.816	311208	WORD_OFF	n/a	n/a	LAMB	FarmAnimals	6	2	[0, 0, 0]	n/a	catFR1	0	R1396T
250.014	1.6	312032	WORD	n/a	wordpools/wordpool_categorized_EN.txt	PAPER	OfficeSupplies	7	2	[0, 0, 0]	n/a	catFR1	0	R1396T
251.614	1.0	313625	WORD_OFF	n/a	n/a	PAPER	OfficeSupplies	7	2	[0, 0, 0]	n/a	catFR1	0	R1396T
252.614	1.6	314631	WORD	n/a	wordpools/wordpool_categorized_EN.txt	PEN	OfficeSupplies	8	2	[0, 0, 0]	n/a	catFR1	0	R1396T
254.214	0.966	316224	WORD_OFF	n/a	n/a	PEN	OfficeSupplies	8	2	[0, 0, 0]	n/a	catFR1	0	R1396T
255.18	1.601	317188	WORD	n/a	wordpools/wordpool_categorized_EN.txt	GRAPE	Fruit	9	2	[0, 0, 0]	n/a	catFR1	0	R1396T
256.781	0.9	318794	WORD_OFF	n/a	n/a	GRAPE	Fruit	9	2	[0, 0, 0]	n/a	catFR1	0	R1396T
257.681	1.6	319703	WORD	n/a	wordpools/wordpool_categorized_EN.txt	LIME	Fruit	10	2	[0, 0, 0]	n/a	catFR1	0	R1396T
259.281	0.95	321295	WORD_OFF	n/a	n/a	LIME	Fruit	10	2	[0, 0, 0]	n/a	catFR1	0	R1396T
260.231	1.6	322246	WORD	n/a	wordpools/wordpool_categorized_EN.txt	PIG	FarmAnimals	11	2	[0, 0, 0]	n/a	catFR1	0	R1396T
261.831	0.833	323852	WORD_OFF	n/a	n/a	PIG	FarmAnimals	11	2	[0, 0, 0]	n/a	catFR1	0	R1396T
262.664	1.617	324677	WORD	n/a	wordpools/wordpool_categorized_EN.txt	BULL	FarmAnimals	12	2	[0, 0, 0]	n/a	catFR1	0	R1396T
264.281	0.002	326297	WORD_OFF	n/a	n/a	BULL	FarmAnimals	12	2	[0, 0, 0]	n/a	catFR1	0	R1396T
264.283	0.0	326297	ENCODING_END	n/a	n/a	n/a	n/a	-999	2	[0, 0, 0]	n/a	catFR1	0	R1396T
264.283	0.0	326297	DISTRACT_START	n/a	n/a	n/a	n/a	-999	2	[0, 0, 0]	n/a	catFR1	0	R1396T
264.282	0.001	326297	PROB	5.115	n/a	n/a	n/a	-999	2	[4, 2, 8]	14.0	catFR1	0	R1396T
264.283	5.131	326298	START	n/a	n/a	n/a	n/a	-999	2	[-999, -999, -999]	n/a	catFR1	0	R1396T
269.414	5.167	331428	PROB	5.15	n/a	n/a	n/a	-999	2	[2, 6, 8]	16.0	catFR1	0	R1396T
274.581	3.433	336595	PROB	3.417	n/a	n/a	n/a	-999	2	[1, 2, 7]	10.0	catFR1	0	R1396T
278.014	3.985	340028	PROB	3.967	n/a	n/a	n/a	-999	2	[5, 7, 1]	13.0	catFR1	0	R1396T
281.999	3.432	344013	PROB	3.415	n/a	n/a	n/a	-999	2	[2, 7, 3]	12.0	catFR1	0	R1396T
285.431	0.0	347445	STOP	n/a	n/a	n/a	n/a	-999	2	[-999, -999, -999]	n/a	catFR1	0	R1396T
285.431	2.217	347451	DISTRACT_END	n/a	n/a	n/a	n/a	-999	2	[0, 0, 0]	n/a	catFR1	0	R1396T
287.648	3.324	349666	REC_START	n/a	n/a	n/a	n/a	-999	2	[0, 0, 0]	n/a	catFR1	0	R1396T
290.972	3.041	352985	REC_WORD	3.324	n/a	STRAWBERRY	Fruit	3	2	[0, 0, 0]	n/a	catFR1	0	R1396T
294.013	23.86	356026	REC_WORD	6.365	n/a	BLUEBERRY	Fruit	4	2	[0, 0, 0]	n/a	catFR1	0	R1396T
317.873	1.325	379879	REC_END	n/a	n/a	n/a	n/a	-999	2	[0, 0, 0]	n/a	catFR1	0	R1396T
319.198	10.35	381207	COUNTDOWN_START	n/a	n/a	n/a	n/a	-999	3	[0, 0, 0]	n/a	catFR1	0	R1396T
329.548	0.001	391560	COUNTDOWN_END	n/a	n/a	n/a	n/a	-999	3	[0, 0, 0]	n/a	catFR1	0	R1396T
329.549	2.249	391560	ENCODING_START	n/a	n/a	n/a	n/a	-999	3	[0, 0, 0]	n/a	catFR1	0	R1396T
331.798	1.616	393809	WORD	n/a	wordpools/wordpool_categorized_EN.txt	TROMBONE	Instruments	1	3	[0, 0, 0]	n/a	catFR1	0	R1396T
333.414	0.9	395430	WORD_OFF	n/a	n/a	TROMBONE	Instruments	1	3	[0, 0, 0]	n/a	catFR1	0	R1396T
334.314	1.617	396324	WORD	n/a	wordpools/wordpool_categorized_EN.txt	VIOLIN	Instruments	2	3	[0, 0, 0]	n/a	catFR1	0	R1396T
335.931	0.916	397945	WORD_OFF	n/a	n/a	VIOLIN	Instruments	2	3	[0, 0, 0]	n/a	catFR1	0	R1396T
336.847	1.618	398853	WORD	n/a	wordpools/wordpool_categorized_EN.txt	SHRIMP	OceanAnimals	3	3	[0, 0, 0]	n/a	catFR1	0	R1396T
338.465	0.965	400474	WORD_OFF	n/a	n/a	SHRIMP	OceanAnimals	3	3	[0, 0, 0]	n/a	catFR1	0	R1396T
339.43	1.601	401438	WORD	n/a	wordpools/wordpool_categorized_EN.txt	OYSTER	OceanAnimals	4	3	[0, 0, 0]	n/a	catFR1	0	R1396T
341.031	0.783	403045	WORD_OFF	n/a	n/a	OYSTER	OceanAnimals	4	3	[0, 0, 0]	n/a	catFR1	0	R1396T
341.814	1.6	403827	WORD	n/a	wordpools/wordpool_categorized_EN.txt	CELERY	Vegetables	5	3	[0, 0, 0]	n/a	catFR1	0	R1396T
343.414	0.767	405420	WORD_OFF	n/a	n/a	CELERY	Vegetables	5	3	[0, 0, 0]	n/a	catFR1	0	R1396T
344.181	1.616	406188	WORD	n/a	wordpools/wordpool_categorized_EN.txt	CABBAGE	Vegetables	6	3	[0, 0, 0]	n/a	catFR1	0	R1396T
345.797	1.0	407809	WORD_OFF	n/a	n/a	CABBAGE	Vegetables	6	3	[0, 0, 0]	n/a	catFR1	0	R1396T
346.797	1.6	408801	WORD	n/a	wordpools/wordpool_categorized_EN.txt	FISH	OceanAnimals	7	3	[0, 0, 0]	n/a	catFR1	0	R1396T
348.397	0.784	410408	WORD_OFF	n/a	n/a	FISH	OceanAnimals	7	3	[0, 0, 0]	n/a	catFR1	0	R1396T
349.181	1.616	411190	WORD	n/a	wordpools/wordpool_categorized_EN.txt	JELLYFISH	OceanAnimals	8	3	[0, 0, 0]	n/a	catFR1	0	R1396T
350.797	0.767	412811	WORD_OFF	n/a	n/a	JELLYFISH	OceanAnimals	8	3	[0, 0, 0]	n/a	catFR1	0	R1396T
351.564	1.6	413579	WORD	n/a	wordpools/wordpool_categorized_EN.txt	ORGAN	Instruments	9	3	[0, 0, 0]	n/a	catFR1	0	R1396T
353.164	0.933	415172	WORD_OFF	n/a	n/a	ORGAN	Instruments	9	3	[0, 0, 0]	n/a	catFR1	0	R1396T
354.097	1.617	416108	WORD	n/a	wordpools/wordpool_categorized_EN.txt	PIANO	Instruments	10	3	[0, 0, 0]	n/a	catFR1	0	R1396T
355.714	0.85	417729	WORD_OFF	n/a	n/a	PIANO	Instruments	10	3	[0, 0, 0]	n/a	catFR1	0	R1396T
356.564	1.6	418567	WORD	n/a	wordpools/wordpool_categorized_EN.txt	LETTUCE	Vegetables	11	3	[0, 0, 0]	n/a	catFR1	0	R1396T
358.164	0.933	420174	WORD_OFF	n/a	n/a	LETTUCE	Vegetables	11	3	[0, 0, 0]	n/a	catFR1	0	R1396T
359.097	1.6	421110	WORD	n/a	wordpools/wordpool_categorized_EN.txt	BROCCOLI	Vegetables	12	3	[0, 0, 0]	n/a	catFR1	0	R1396T
360.697	0.002	422703	WORD_OFF	n/a	n/a	BROCCOLI	Vegetables	12	3	[0, 0, 0]	n/a	catFR1	0	R1396T
360.699	0.0	422703	ENCODING_END	n/a	n/a	n/a	n/a	-999	3	[0, 0, 0]	n/a	catFR1	0	R1396T
360.698	0.001	422708	PROB	5.399	n/a	n/a	n/a	-999	3	[5, 4, 1]	10.0	catFR1	0	R1396T
360.699	0.0	422709	START	n/a	n/a	n/a	n/a	-999	3	[-999, -999, -999]	n/a	catFR1	0	R1396T
360.699	5.415	422717	DISTRACT_START	n/a	n/a	n/a	n/a	-999	3	[0, 0, 0]	n/a	catFR1	0	R1396T
366.114	3.684	428123	PROB	3.666	n/a	n/a	n/a	-999	3	[3, 2, 7]	12.0	catFR1	0	R1396T
369.798	3.233	431807	PROB	3.217	n/a	n/a	n/a	-999	3	[2, 2, 7]	11.0	catFR1	0	R1396T
373.031	2.683	435040	PROB	2.666	n/a	n/a	n/a	-999	3	[1, 1, 7]	9.0	catFR1	0	R1396T
375.714	3.817	437723	PROB	3.8	n/a	n/a	n/a	-999	3	[3, 4, 4]	11.0	catFR1	0	R1396T
379.531	4.183	441540	PROB	4.166	n/a	n/a	n/a	-999	3	[5, 2, 6]	13.0	catFR1	0	R1396T
383.714	0.0	445723	STOP	n/a	n/a	n/a	n/a	-999	3	[-999, -999, -999]	n/a	catFR1	0	R1396T
383.714	2.234	445728	DISTRACT_END	n/a	n/a	n/a	n/a	-999	3	[0, 0, 0]	n/a	catFR1	0	R1396T
385.948	1.272	447958	REC_START	n/a	n/a	n/a	n/a	-999	3	[0, 0, 0]	n/a	catFR1	0	R1396T
387.22	1.206	449228	REC_WORD	1.272	n/a	SHRIMP	OceanAnimals	3	3	[0, 0, 0]	n/a	catFR1	0	R1396T
388.426	2.898	450434	REC_WORD	2.478	n/a	OYSTER	OceanAnimals	4	3	[0, 0, 0]	n/a	catFR1	0	R1396T
391.324	1.424	453332	REC_WORD	5.376	n/a	FISH	OceanAnimals	7	3	[0, 0, 0]	n/a	catFR1	0	R1396T
392.748	1.561	454756	REC_WORD	6.8	n/a	LETTUCE	Vegetables	11	3	[0, 0, 0]	n/a	catFR1	0	R1396T
394.309	21.888	456317	REC_WORD	8.361	n/a	CABBAGE	Vegetables	6	3	[0, 0, 0]	n/a	catFR1	0	R1396T
416.197	1.334	478199	REC_END	n/a	n/a	n/a	n/a	-999	3	[0, 0, 0]	n/a	catFR1	0	R1396T
417.531	10.351	479540	COUNTDOWN_START	n/a	n/a	n/a	n/a	-999	4	[0, 0, 0]	n/a	catFR1	0	R1396T
427.882	0.0	489893	COUNTDOWN_END	n/a	n/a	n/a	n/a	-999	4	[0, 0, 0]	n/a	catFR1	0	R1396T
427.882	2.198	489893	ENCODING_START	n/a	n/a	n/a	n/a	-999	4	[0, 0, 0]	n/a	catFR1	0	R1396T
430.08	1.601	492087	WORD	n/a	wordpools/wordpool_categorized_EN.txt	MOTORCYCLE	Vehicles	1	4	[0, 0, 0]	n/a	catFR1	0	R1396T
431.681	0.784	493694	WORD_OFF	n/a	n/a	MOTORCYCLE	Vehicles	1	4	[0, 0, 0]	n/a	catFR1	0	R1396T
432.465	1.616	494476	WORD	n/a	wordpools/wordpool_categorized_EN.txt	BIKE	Vehicles	2	4	[0, 0, 0]	n/a	catFR1	0	R1396T
434.081	0.799	496083	WORD_OFF	n/a	n/a	BIKE	Vehicles	2	4	[0, 0, 0]	n/a	catFR1	0	R1396T
434.88	1.601	496893	WORD	n/a	wordpools/wordpool_categorized_EN.txt	SCREWDRIVER	Tools	3	4	[0, 0, 0]	n/a	catFR1	0	R1396T
436.481	0.967	498486	WORD_OFF	n/a	n/a	SCREWDRIVER	Tools	3	4	[0, 0, 0]	n/a	catFR1	0	R1396T
437.448	1.616	499450	WORD	n/a	wordpools/wordpool_categorized_EN.txt	SHOVEL	Tools	4	4	[0, 0, 0]	n/a	catFR1	0	R1396T
439.064	0.901	501071	WORD_OFF	n/a	n/a	SHOVEL	Tools	4	4	[0, 0, 0]	n/a	catFR1	0	R1396T
439.965	1.616	501965	WORD	n/a	wordpools/wordpool_categorized_EN.txt	COBBLER	Desserts	5	4	[0, 0, 0]	n/a	catFR1	0	R1396T
441.581	0.849	503586	WORD_OFF	n/a	n/a	COBBLER	Desserts	5	4	[0, 0, 0]	n/a	catFR1	0	R1396T
442.43	1.601	504438	WORD	n/a	wordpools/wordpool_categorized_EN.txt	CUPCAKE	Desserts	6	4	[0, 0, 0]	n/a	catFR1	0	R1396T
444.031	0.966	506031	WORD_OFF	n/a	n/a	CUPCAKE	Desserts	6	4	[0, 0, 0]	n/a	catFR1	0	R1396T
444.997	1.601	507009	WORD	n/a	wordpools/wordpool_categorized_EN.txt	TRAIN	Vehicles	7	4	[0, 0, 0]	n/a	catFR1	0	R1396T
446.598	0.85	508602	WORD_OFF	n/a	n/a	TRAIN	Vehicles	7	4	[0, 0, 0]	n/a	catFR1	0	R1396T
447.448	1.616	509454	WORD	n/a	wordpools/wordpool_categorized_EN.txt	BOAT	Vehicles	8	4	[0, 0, 0]	n/a	catFR1	0	R1396T
449.064	0.85	511075	WORD_OFF	n/a	n/a	BOAT	Vehicles	8	4	[0, 0, 0]	n/a	catFR1	0	R1396T
449.914	1.6	511913	WORD	n/a	wordpools/wordpool_categorized_EN.txt	PIE	Desserts	9	4	[0, 0, 0]	n/a	catFR1	0	R1396T
451.514	0.784	513520	WORD_OFF	n/a	n/a	PIE	Desserts	9	4	[0, 0, 0]	n/a	catFR1	0	R1396T
452.298	1.616	514302	WORD	n/a	wordpools/wordpool_categorized_EN.txt	BROWNIES	Desserts	10	4	[0, 0, 0]	n/a	catFR1	0	R1396T
453.914	0.8	515923	WORD_OFF	n/a	n/a	BROWNIES	Desserts	10	4	[0, 0, 0]	n/a	catFR1	0	R1396T
454.714	1.6	516719	WORD	n/a	wordpools/wordpool_categorized_EN.txt	HAMMER	Tools	11	4	[0, 0, 0]	n/a	catFR1	0	R1396T
456.314	0.933	518326	WORD_OFF	n/a	n/a	HAMMER	Tools	11	4	[0, 0, 0]	n/a	catFR1	0	R1396T
457.247	1.601	519248	WORD	n/a	wordpools/wordpool_categorized_EN.txt	DRILL	Tools	12	4	[0, 0, 0]	n/a	catFR1	0	R1396T
458.848	0.001	520853	PROB	4.133	n/a	n/a	n/a	-999	4	[6, 1, 7]	14.0	catFR1	0	R1396T
458.849	0.0	520854	START	n/a	n/a	n/a	n/a	-999	4	[-999, -999, -999]	n/a	catFR1	0	R1396T
458.848	0.001	520855	WORD_OFF	n/a	n/a	DRILL	Tools	12	4	[0, 0, 0]	n/a	catFR1	0	R1396T
458.849	0.0	520855	ENCODING_END	n/a	n/a	n/a	n/a	-999	4	[0, 0, 0]	n/a	catFR1	0	R1396T
458.849	4.149	520855	DISTRACT_START	n/a	n/a	n/a	n/a	-999	4	[0, 0, 0]	n/a	catFR1	0	R1396T
462.998	5.734	525002	PROB	5.716	n/a	n/a	n/a	-999	4	[7, 8, 1]	16.0	catFR1	0	R1396T
468.732	3.267	530736	PROB	3.249	n/a	n/a	n/a	-999	4	[4, 1, 1]	6.0	catFR1	0	R1396T
471.999	5.015	534003	PROB	4.999	n/a	n/a	n/a	-999	4	[6, 5, 2]	13.0	catFR1	0	R1396T
477.014	5.117	539018	PROB	5.1	n/a	n/a	n/a	-999	4	[8, 4, 1]	13.0	catFR1	0	R1396T
482.131	0.0	544132	DISTRACT_END	n/a	n/a	n/a	n/a	-999	4	[0, 0, 0]	n/a	catFR1	0	R1396T
482.131	2.3	544134	STOP	n/a	n/a	n/a	n/a	-999	4	[-999, -999, -999]	n/a	catFR1	0	R1396T
484.431	1.513	546431	REC_START	n/a	n/a	n/a	n/a	-999	4	[0, 0, 0]	n/a	catFR1	0	R1396T
485.944	1.839	547947	REC_WORD	1.513	n/a	SCREWDRIVER	Tools	3	4	[0, 0, 0]	n/a	catFR1	0	R1396T
487.783	1.597	549786	REC_WORD	3.352	n/a	MOTORCYCLE	Vehicles	1	4	[0, 0, 0]	n/a	catFR1	0	R1396T
489.38	3.068	551383	REC_WORD	4.949	n/a	BIKE	Vehicles	2	4	[0, 0, 0]	n/a	catFR1	0	R1396T
492.448	22.223	554451	REC_WORD	8.017	n/a	HAMMER	Tools	11	4	[0, 0, 0]	n/a	catFR1	0	R1396T
514.671	1.377	576672	REC_END	n/a	n/a	n/a	n/a	-999	4	[0, 0, 0]	n/a	catFR1	0	R1396T
516.048	10.35	578056	COUNTDOWN_START	n/a	n/a	n/a	n/a	-999	5	[0, 0, 0]	n/a	catFR1	0	R1396T
526.398	0.0	588395	COUNTDOWN_END	n/a	n/a	n/a	n/a	-999	5	[0, 0, 0]	n/a	catFR1	0	R1396T
526.398	2.05	588395	ENCODING_START	n/a	n/a	n/a	n/a	-999	5	[0, 0, 0]	n/a	catFR1	0	R1396T
528.448	1.6	590449	WORD	n/a	wordpools/wordpool_categorized_EN.txt	DRESS	Clothing	1	5	[0, 0, 0]	n/a	catFR1	0	R1396T
530.048	0.8	592055	WORD_OFF	n/a	n/a	DRESS	Clothing	1	5	[0, 0, 0]	n/a	catFR1	0	R1396T
530.848	1.616	592852	WORD	n/a	wordpools/wordpool_categorized_EN.txt	SOCKS	Clothing	2	5	[0, 0, 0]	n/a	catFR1	0	R1396T
532.464	0.767	594472	WORD_OFF	n/a	n/a	SOCKS	Clothing	2	5	[0, 0, 0]	n/a	catFR1	0	R1396T
533.231	1.617	595227	WORD	n/a	wordpools/wordpool_categorized_EN.txt	TELEVISION	Electronics	3	5	[0, 0, 0]	n/a	catFR1	0	R1396T
534.848	0.933	596848	WORD_OFF	n/a	n/a	TELEVISION	Electronics	3	5	[0, 0, 0]	n/a	catFR1	0	R1396T
535.781	1.616	597784	WORD	n/a	wordpools/wordpool_categorized_EN.txt	HEADPHONES	Electronics	4	5	[0, 0, 0]	n/a	catFR1	0	R1396T
537.397	0.851	599405	WORD_OFF	n/a	n/a	HEADPHONES	Electronics	4	5	[0, 0, 0]	n/a	catFR1	0	R1396T
538.248	1.616	600243	WORD	n/a	wordpools/wordpool_categorized_EN.txt	MILK	Beverages	5	5	[0, 0, 0]	n/a	catFR1	0	R1396T
539.864	0.766	601864	WORD_OFF	n/a	n/a	MILK	Beverages	5	5	[0, 0, 0]	n/a	catFR1	0	R1396T
540.63	1.601	602632	WORD	n/a	wordpools/wordpool_categorized_EN.txt	RUM	Beverages	6	5	[0, 0, 0]	n/a	catFR1	0	R1396T
542.231	1.0	604225	WORD_OFF	n/a	n/a	RUM	Beverages	6	5	[0, 0, 0]	n/a	catFR1	0	R1396T
543.231	1.616	605231	WORD	n/a	wordpools/wordpool_categorized_EN.txt	PHONE	Electronics	7	5	[0, 0, 0]	n/a	catFR1	0	R1396T
544.847	0.817	606851	WORD_OFF	n/a	n/a	PHONE	Electronics	7	5	[0, 0, 0]	n/a	catFR1	0	R1396T
545.664	1.6	607662	WORD	n/a	wordpools/wordpool_categorized_EN.txt	COMPUTER	Electronics	8	5	[0, 0, 0]	n/a	catFR1	0	R1396T
547.264	0.983	609269	WORD_OFF	n/a	n/a	COMPUTER	Electronics	8	5	[0, 0, 0]	n/a	catFR1	0	R1396T
548.247	1.6	610247	WORD	n/a	wordpools/wordpool_categorized_EN.txt	SHORTS	Clothing	9	5	[0, 0, 0]	n/a	catFR1	0	R1396T
549.847	0.767	611853	WORD_OFF	n/a	n/a	SHORTS	Clothing	9	5	[0, 0, 0]	n/a	catFR1	0	R1396T
550.614	1.6	612608	WORD	n/a	wordpools/wordpool_categorized_EN.txt	PANTS	Clothing	10	5	[0, 0, 0]	n/a	catFR1	0	R1396T
552.214	0.783	614215	WORD_OFF	n/a	n/a	PANTS	Clothing	10	5	[0, 0, 0]	n/a	catFR1	0	R1396T
552.997	1.6	614997	WORD	n/a	wordpools/wordpool_categorized_EN.txt	SODA	Beverages	11	5	[0, 0, 0]	n/a	catFR1	0	R1396T
554.597	0.8	616604	WORD_OFF	n/a	n/a	SODA	Beverages	11	5	[0, 0, 0]	n/a	catFR1	0	R1396T
555.397	1.6	617400	WORD	n/a	wordpools/wordpool_categorized_EN.txt	LEMONADE	Beverages	12	5	[0, 0, 0]	n/a	catFR1	0	R1396T
556.997	0.002	618993	WORD_OFF	n/a	n/a	LEMONADE	Beverages	12	5	[0, 0, 0]	n/a	catFR1	0	R1396T
556.999	0.0	618993	ENCODING_END	n/a	n/a	n/a	n/a	-999	5	[0, 0, 0]	n/a	catFR1	0	R1396T
556.998	0.001	618998	PROB	10.282	n/a	n/a	n/a	-999	5	[7, 7, 8]	22.0	catFR1	0	R1396T
556.999	0.0	618999	START	n/a	n/a	n/a	n/a	-999	5	[-999, -999, -999]	n/a	catFR1	0	R1396T
556.999	10.298	619007	DISTRACT_START	n/a	n/a	n/a	n/a	-999	5	[0, 0, 0]	n/a	catFR1	0	R1396T
567.297	4.751	629296	PROB	4.733	n/a	n/a	n/a	-999	5	[8, 5, 8]	21.0	catFR1	0	R1396T
572.048	3.367	634047	PROB	3.35	n/a	n/a	n/a	-999	5	[2, 4, 3]	9.0	catFR1	0	R1396T
575.415	3.801	637414	PROB	3.783	n/a	n/a	n/a	-999	5	[6, 3, 2]	11.0	catFR1	0	R1396T
579.216	0.0	641208	DISTRACT_END	n/a	n/a	n/a	n/a	-999	5	[0, 0, 0]	n/a	catFR1	0	R1396T
579.216	2.282	641214	STOP	n/a	n/a	n/a	n/a	-999	5	[-999, -999, -999]	n/a	catFR1	0	R1396T
581.498	2.297	643494	REC_START	n/a	n/a	n/a	n/a	-999	5	[0, 0, 0]	n/a	catFR1	0	R1396T
583.795	4.739	645793	REC_WORD	2.297	n/a	SODA	Beverages	11	5	[0, 0, 0]	n/a	catFR1	0	R1396T
588.534	7.84	650532	REC_WORD	7.036	n/a	LEMONADE	Beverages	12	5	[0, 0, 0]	n/a	catFR1	0	R1396T
596.374	15.379	658372	REC_WORD	14.876	n/a	BIKE	Vehicles	-999	5	[0, 0, 0]	n/a	catFR1	0	R1396T
611.753	0.527	673749	REC_END	n/a	n/a	n/a	n/a	-999	5	[0, 0, 0]	n/a	catFR1	0	R1396T
612.28	10.352	674279	COUNTDOWN_START	n/a	n/a	n/a	n/a	-999	6	[0, 0, 0]	n/a	catFR1	0	R1396T
622.632	0.0	684633	COUNTDOWN_END	n/a	n/a	n/a	n/a	-999	6	[0, 0, 0]	n/a	catFR1	0	R1396T
622.632	2.066	684633	ENCODING_START	n/a	n/a	n/a	n/a	-999	6	[0, 0, 0]	n/a	catFR1	0	R1396T
624.698	1.6	686700	WORD	n/a	wordpools/wordpool_categorized_EN.txt	BINDER	OfficeSupplies	1	6	[0, 0, 0]	n/a	catFR1	0	R1396T
626.298	0.933	688293	WORD_OFF	n/a	n/a	BINDER	OfficeSupplies	1	6	[0, 0, 0]	n/a	catFR1	0	R1396T
627.231	1.6	689229	WORD	n/a	wordpools/wordpool_categorized_EN.txt	RULER	OfficeSupplies	2	6	[0, 0, 0]	n/a	catFR1	0	R1396T
628.831	0.783	690822	WORD_OFF	n/a	n/a	RULER	OfficeSupplies	2	6	[0, 0, 0]	n/a	catFR1	0	R1396T
629.614	1.6	691605	WORD	n/a	wordpools/wordpool_categorized_EN.txt	DOVE	Birds	3	6	[0, 0, 0]	n/a	catFR1	0	R1396T
631.214	0.983	693211	WORD_OFF	n/a	n/a	DOVE	Birds	3	6	[0, 0, 0]	n/a	catFR1	0	R1396T
632.197	1.601	694189	WORD	n/a	wordpools/wordpool_categorized_EN.txt	BLUEBIRD	Birds	4	6	[0, 0, 0]	n/a	catFR1	0	R1396T
633.798	0.866	695796	WORD_OFF	n/a	n/a	BLUEBIRD	Birds	4	6	[0, 0, 0]	n/a	catFR1	0	R1396T
634.664	1.6	696662	WORD	n/a	wordpools/wordpool_categorized_EN.txt	ORANGE	Fruit	5	6	[0, 0, 0]	n/a	catFR1	0	R1396T
636.264	0.9	698255	WORD_OFF	n/a	n/a	ORANGE	Fruit	5	6	[0, 0, 0]	n/a	catFR1	0	R1396T
637.164	1.6	699163	WORD	n/a	wordpools/wordpool_categorized_EN.txt	CHERRY	Fruit	6	6	[0, 0, 0]	n/a	catFR1	0	R1396T
638.764	0.8	700756	WORD_OFF	n/a	n/a	CHERRY	Fruit	6	6	[0, 0, 0]	n/a	catFR1	0	R1396T
639.564	1.6	701552	WORD	n/a	wordpools/wordpool_categorized_EN.txt	DUCK	Birds	7	6	[0, 0, 0]	n/a	catFR1	0	R1396T
641.164	0.934	703159	WORD_OFF	n/a	n/a	DUCK	Birds	7	6	[0, 0, 0]	n/a	catFR1	0	R1396T
642.098	1.616	704095	WORD	n/a	wordpools/wordpool_categorized_EN.txt	GOOSE	Birds	8	6	[0, 0, 0]	n/a	catFR1	0	R1396T
643.714	0.833	705706	WORD_OFF	n/a	n/a	GOOSE	Birds	8	6	[0, 0, 0]	n/a	catFR1	0	R1396T
644.547	1.6	706540	WORD	n/a	wordpools/wordpool_categorized_EN.txt	PEAR	Fruit	9	6	[0, 0, 0]	n/a	catFR1	0	R1396T
646.147	0.784	708147	WORD_OFF	n/a	n/a	PEAR	Fruit	9	6	[0, 0, 0]	n/a	catFR1	0	R1396T
646.931	1.616	708930	WORD	n/a	wordpools/wordpool_categorized_EN.txt	LEMON	Fruit	10	6	[0, 0, 0]	n/a	catFR1	0	R1396T
648.547	0.884	710536	WORD_OFF	n/a	n/a	LEMON	Fruit	10	6	[0, 0, 0]	n/a	catFR1	0	R1396T
649.431	1.6	711431	WORD	n/a	wordpools/wordpool_categorized_EN.txt	MARKER	OfficeSupplies	11	6	[0, 0, 0]	n/a	catFR1	0	R1396T
651.031	0.832	713023	WORD_OFF	n/a	n/a	MARKER	OfficeSupplies	11	6	[0, 0, 0]	n/a	catFR1	0	R1396T
651.863	1.601	713862	WORD	n/a	wordpools/wordpool_categorized_EN.txt	FOLDER	OfficeSupplies	12	6	[0, 0, 0]	n/a	catFR1	0	R1396T
653.464	0.001	715454	WORD_OFF	n/a	n/a	FOLDER	OfficeSupplies	12	6	[0, 0, 0]	n/a	catFR1	0	R1396T
653.465	0.001	715460	PROB	3.549	n/a	n/a	n/a	-999	6	[1, 2, 1]	4.0	catFR1	0	R1396T
653.466	0.0	715461	START	n/a	n/a	n/a	n/a	-999	6	[-999, -999, -999]	n/a	catFR1	0	R1396T
653.466	0.0	715468	ENCODING_END	n/a	n/a	n/a	n/a	-999	6	[0, 0, 0]	n/a	catFR1	0	R1396T
653.466	3.565	715468	DISTRACT_START	n/a	n/a	n/a	n/a	-999	6	[0, 0, 0]	n/a	catFR1	0	R1396T
657.031	4.167	719025	PROB	4.149	n/a	n/a	n/a	-999	6	[7, 1, 6]	14.0	catFR1	0	R1396T
661.198	5.916	723192	PROB	5.899	n/a	n/a	n/a	-999	6	[8, 8, 8]	24.0	catFR1	0	R1396T
667.114	7.033	729108	PROB	7.016	n/a	n/a	n/a	-999	6	[8, 4, 6]	18.0	catFR1	0	R1396T
674.147	0.0	736141	STOP	n/a	n/a	n/a	n/a	-999	6	[-999, -999, -999]	n/a	catFR1	0	R1396T
674.147	2.316	736147	DISTRACT_END	n/a	n/a	n/a	n/a	-999	6	[0, 0, 0]	n/a	catFR1	0	R1396T
676.463	0.774	738460	REC_START	n/a	n/a	n/a	n/a	-999	6	[0, 0, 0]	n/a	catFR1	0	R1396T
677.237	1.347	739230	REC_WORD	0.774	n/a	BINDER	OfficeSupplies	1	6	[0, 0, 0]	n/a	catFR1	0	R1396T
678.584	2.442	740577	REC_WORD	2.121	n/a	NOTEBOOK	n/a	-999	6	[0, 0, 0]	n/a	catFR1	0	R1396T
681.026	9.636	743019	REC_WORD	4.563	n/a	PENCIL	n/a	-999	6	[0, 0, 0]	n/a	catFR1	0	R1396T
690.662	16.021	752655	REC_WORD	14.199	n/a	RULER	OfficeSupplies	2	6	[0, 0, 0]	n/a	catFR1	0	R1396T
706.683	1.247	768673	REC_END	n/a	n/a	n/a	n/a	-999	6	[0, 0, 0]	n/a	catFR1	0	R1396T
707.93	10.352	769931	COUNTDOWN_START	n/a	n/a	n/a	n/a	-999	7	[0, 0, 0]	n/a	catFR1	0	R1396T
718.282	0.0	780270	COUNTDOWN_END	n/a	n/a	n/a	n/a	-999	7	[0, 0, 0]	n/a	catFR1	0	R1396T
718.282	1.982	780270	ENCODING_START	n/a	n/a	n/a	n/a	-999	7	[0, 0, 0]	n/a	catFR1	0	R1396T
720.264	1.6	782254	WORD	n/a	wordpools/wordpool_categorized_EN.txt	CAKE	Desserts	1	7	[0, 0, 0]	n/a	catFR1	0	R1396T
721.864	0.884	783860	WORD_OFF	n/a	n/a	CAKE	Desserts	1	7	[0, 0, 0]	n/a	catFR1	0	R1396T
722.748	1.616	784741	WORD	n/a	wordpools/wordpool_categorized_EN.txt	PASTRY	Desserts	2	7	[0, 0, 0]	n/a	catFR1	0	R1396T
724.364	0.933	786361	WORD_OFF	n/a	n/a	PASTRY	Desserts	2	7	[0, 0, 0]	n/a	catFR1	0	R1396T
725.297	1.601	787284	WORD	n/a	wordpools/wordpool_categorized_EN.txt	STRAINER	KitchenTools	3	7	[0, 0, 0]	n/a	catFR1	0	R1396T
726.898	0.9	788890	WORD_OFF	n/a	n/a	STRAINER	KitchenTools	3	7	[0, 0, 0]	n/a	catFR1	0	R1396T
727.798	1.6	789784	WORD	n/a	wordpools/wordpool_categorized_EN.txt	SPOON	KitchenTools	4	7	[0, 0, 0]	n/a	catFR1	0	R1396T
729.398	0.783	791391	WORD_OFF	n/a	n/a	SPOON	KitchenTools	4	7	[0, 0, 0]	n/a	catFR1	0	R1396T
730.181	1.617	792174	WORD	n/a	wordpools/wordpool_categorized_EN.txt	JEANS	Clothing	5	7	[0, 0, 0]	n/a	catFR1	0	R1396T
731.798	0.8	793794	WORD_OFF	n/a	n/a	JEANS	Clothing	5	7	[0, 0, 0]	n/a	catFR1	0	R1396T
732.598	1.6	794591	WORD	n/a	wordpools/wordpool_categorized_EN.txt	SHIRT	Clothing	6	7	[0, 0, 0]	n/a	catFR1	0	R1396T
734.198	0.85	796184	WORD_OFF	n/a	n/a	SHIRT	Clothing	6	7	[0, 0, 0]	n/a	catFR1	0	R1396T
735.048	1.616	797036	WORD	n/a	wordpools/wordpool_categorized_EN.txt	PUDDING	Desserts	7	7	[0, 0, 0]	n/a	catFR1	0	R1396T
736.664	1.0	798657	WORD_OFF	n/a	n/a	PUDDING	Desserts	7	7	[0, 0, 0]	n/a	catFR1	0	R1396T
737.664	1.6	799649	WORD	n/a	wordpools/wordpool_categorized_EN.txt	CHEESECAKE	Desserts	8	7	[0, 0, 0]	n/a	catFR1	0	R1396T
739.264	0.884	801255	WORD_OFF	n/a	n/a	CHEESECAKE	Desserts	8	7	[0, 0, 0]	n/a	catFR1	0	R1396T
740.148	1.6	802136	WORD	n/a	wordpools/wordpool_categorized_EN.txt	SHOES	Clothing	9	7	[0, 0, 0]	n/a	catFR1	0	R1396T
741.748	0.766	803742	WORD_OFF	n/a	n/a	SHOES	Clothing	9	7	[0, 0, 0]	n/a	catFR1	0	R1396T
742.514	1.601	804511	WORD	n/a	wordpools/wordpool_categorized_EN.txt	BLOUSE	Clothing	10	7	[0, 0, 0]	n/a	catFR1	0	R1396T
744.115	0.949	806104	WORD_OFF	n/a	n/a	BLOUSE	Clothing	10	7	[0, 0, 0]	n/a	catFR1	0	R1396T
745.064	1.6	807054	WORD	n/a	wordpools/wordpool_categorized_EN.txt	PEELER	KitchenTools	11	7	[0, 0, 0]	n/a	catFR1	0	R1396T
746.664	0.849	808660	WORD_OFF	n/a	n/a	PEELER	KitchenTools	11	7	[0, 0, 0]	n/a	catFR1	0	R1396T
747.513	1.601	809499	WORD	n/a	wordpools/wordpool_categorized_EN.txt	SPATULA	KitchenTools	12	7	[0, 0, 0]	n/a	catFR1	0	R1396T
749.114	0.002	811105	WORD_OFF	n/a	n/a	SPATULA	KitchenTools	12	7	[0, 0, 0]	n/a	catFR1	0	R1396T
749.116	0.0	811105	ENCODING_END	n/a	n/a	n/a	n/a	-999	7	[0, 0, 0]	n/a	catFR1	0	R1396T
749.116	0.0	811105	DISTRACT_START	n/a	n/a	n/a	n/a	-999	7	[0, 0, 0]	n/a	catFR1	0	R1396T
749.115	0.001	811105	PROB	5.983	n/a	n/a	n/a	-999	7	[7, 4, 3]	14.0	catFR1	0	R1396T
749.116	5.998	811106	START	n/a	n/a	n/a	n/a	-999	7	[-999, -999, -999]	n/a	catFR1	0	R1396T
755.114	5.901	817103	PROB	5.883	n/a	n/a	n/a	-999	7	[5, 8, 3]	16.0	catFR1	0	R1396T
761.015	3.483	823004	PROB	3.466	n/a	n/a	n/a	-999	7	[5, 3, 5]	13.0	catFR1	0	R1396T
764.498	2.716	826487	PROB	2.699	n/a	n/a	n/a	-999	7	[5, 1, 5]	11.0	catFR1	0	R1396T
767.214	7.85	829203	PROB	7.833	n/a	n/a	n/a	-999	7	[7, 7, 8]	22.0	catFR1	0	R1396T
775.064	0.0	837051	DISTRACT_END	n/a	n/a	n/a	n/a	-999	7	[0, 0, 0]	n/a	catFR1	0	R1396T
775.064	2.299	837052	STOP	n/a	n/a	n/a	n/a	-999	7	[-999, -999, -999]	n/a	catFR1	0	R1396T
777.363	1.302	839351	REC_START	n/a	n/a	n/a	n/a	-999	7	[0, 0, 0]	n/a	catFR1	0	R1396T
778.665	2.719	840653	REC_WORD	1.302	n/a	CAKE	Desserts	1	7	[0, 0, 0]	n/a	catFR1	0	R1396T
781.384	1.771	843372	REC_WORD	4.021	n/a	CHEESECAKE	Desserts	8	7	[0, 0, 0]	n/a	catFR1	0	R1396T
783.155	3.515	845143	REC_WORD	5.792	n/a	SPATULA	KitchenTools	12	7	[0, 0, 0]	n/a	catFR1	0	R1396T
786.67	2.636	848658	REC_WORD	9.307	n/a	APRON	n/a	-999	7	[0, 0, 0]	n/a	catFR1	0	R1396T
789.306	3.53	851294	REC_WORD	11.943	n/a	PANTS	Clothing	-999	7	[0, 0, 0]	n/a	catFR1	0	R1396T
792.836	4.778	854823	REC_WORD	15.473	n/a	SHIRT	Clothing	6	7	[0, 0, 0]	n/a	catFR1	0	R1396T
797.614	9.969	859601	REC_WORD	20.251	n/a	PUDDING	Desserts	7	7	[0, 0, 0]	n/a	catFR1	0	R1396T
807.583	1.548	869564	REC_END	n/a	n/a	n/a	n/a	-999	7	[0, 0, 0]	n/a	catFR1	0	R1396T
809.131	10.351	871114	COUNTDOWN_START	n/a	n/a	n/a	n/a	-999	8	[0, 0, 0]	n/a	catFR1	0	R1396T
819.482	0.0	881468	COUNTDOWN_END	n/a	n/a	n/a	n/a	-999	8	[0, 0, 0]	n/a	catFR1	0	R1396T
819.482	2.048	881468	ENCODING_START	n/a	n/a	n/a	n/a	-999	8	[0, 0, 0]	n/a	catFR1	0	R1396T
821.53	1.601	883521	WORD	n/a	wordpools/wordpool_categorized_EN.txt	CARNATION	Flowers	1	8	[0, 0, 0]	n/a	catFR1	0	R1396T
823.131	0.916	885114	WORD_OFF	n/a	n/a	CARNATION	Flowers	1	8	[0, 0, 0]	n/a	catFR1	0	R1396T
824.047	1.6	886036	WORD	n/a	wordpools/wordpool_categorized_EN.txt	LILAC	Flowers	2	8	[0, 0, 0]	n/a	catFR1	0	R1396T
825.647	0.884	887629	WORD_OFF	n/a	n/a	LILAC	Flowers	2	8	[0, 0, 0]	n/a	catFR1	0	R1396T
826.531	1.6	888523	WORD	n/a	wordpools/wordpool_categorized_EN.txt	OAK	Trees	3	8	[0, 0, 0]	n/a	catFR1	0	R1396T
828.131	0.9	890116	WORD_OFF	n/a	n/a	OAK	Trees	3	8	[0, 0, 0]	n/a	catFR1	0	R1396T
829.031	1.617	891010	WORD	n/a	wordpools/wordpool_categorized_EN.txt	ELM	Trees	4	8	[0, 0, 0]	n/a	catFR1	0	R1396T
830.648	0.883	892631	WORD_OFF	n/a	n/a	ELM	Trees	4	8	[0, 0, 0]	n/a	catFR1	0	R1396T
831.531	1.6	893511	WORD	n/a	wordpools/wordpool_categorized_EN.txt	PLUM	Fruit	5	8	[0, 0, 0]	n/a	catFR1	0	R1396T
833.131	0.767	895118	WORD_OFF	n/a	n/a	PLUM	Fruit	5	8	[0, 0, 0]	n/a	catFR1	0	R1396T
833.898	1.616	895886	WORD	n/a	wordpools/wordpool_categorized_EN.txt	APPLE	Fruit	6	8	[0, 0, 0]	n/a	catFR1	0	R1396T
835.514	0.816	897493	WORD_OFF	n/a	n/a	APPLE	Fruit	6	8	[0, 0, 0]	n/a	catFR1	0	R1396T
836.33	1.601	898318	WORD	n/a	wordpools/wordpool_categorized_EN.txt	ORCHID	Flowers	7	8	[0, 0, 0]	n/a	catFR1	0	R1396T
837.931	0.8	899910	WORD_OFF	n/a	n/a	ORCHID	Flowers	7	8	[0, 0, 0]	n/a	catFR1	0	R1396T
838.731	1.616	900721	WORD	n/a	wordpools/wordpool_categorized_EN.txt	MARIGOLD	Flowers	8	8	[0, 0, 0]	n/a	catFR1	0	R1396T
840.347	0.801	902327	WORD_OFF	n/a	n/a	MARIGOLD	Flowers	8	8	[0, 0, 0]	n/a	catFR1	0	R1396T
841.148	1.6	903138	WORD	n/a	wordpools/wordpool_categorized_EN.txt	SPRUCE	Trees	9	8	[0, 0, 0]	n/a	catFR1	0	R1396T
842.748	0.9	904731	WORD_OFF	n/a	n/a	SPRUCE	Trees	9	8	[0, 0, 0]	n/a	catFR1	0	R1396T
843.648	1.616	905639	WORD	n/a	wordpools/wordpool_categorized_EN.txt	HICKORY	Trees	10	8	[0, 0, 0]	n/a	catFR1	0	R1396T
845.264	0.767	907246	WORD_OFF	n/a	n/a	HICKORY	Trees	10	8	[0, 0, 0]	n/a	catFR1	0	R1396T
846.031	1.616	908014	WORD	n/a	wordpools/wordpool_categorized_EN.txt	BANANA	Fruit	11	8	[0, 0, 0]	n/a	catFR1	0	R1396T
847.647	0.817	909635	WORD_OFF	n/a	n/a	BANANA	Fruit	11	8	[0, 0, 0]	n/a	catFR1	0	R1396T
848.464	1.617	910445	WORD	n/a	wordpools/wordpool_categorized_EN.txt	PEACH	Fruit	12	8	[0, 0, 0]	n/a	catFR1	0	R1396T
850.081	0.0	912065	PROB	5.933	n/a	n/a	n/a	-999	8	[8, 1, 7]	16.0	catFR1	0	R1396T
850.081	0.002	912066	WORD_OFF	n/a	n/a	PEACH	Fruit	12	8	[0, 0, 0]	n/a	catFR1	0	R1396T
850.083	0.0	912066	ENCODING_END	n/a	n/a	n/a	n/a	-999	8	[0, 0, 0]	n/a	catFR1	0	R1396T
850.083	0.0	912066	DISTRACT_START	n/a	n/a	n/a	n/a	-999	8	[0, 0, 0]	n/a	catFR1	0	R1396T
850.083	5.948	912067	START	n/a	n/a	n/a	n/a	-999	8	[-999, -999, -999]	n/a	catFR1	0	R1396T
856.031	4.983	918015	PROB	4.966	n/a	n/a	n/a	-999	8	[6, 4, 5]	15.0	catFR1	0	R1396T
861.014	3.817	922998	PROB	3.8	n/a	n/a	n/a	-999	8	[8, 3, 8]	19.0	catFR1	0	R1396T
864.831	4.866	926815	PROB	4.849	n/a	n/a	n/a	-999	8	[1, 3, 2]	6.0	catFR1	0	R1396T
869.697	6.4	931680	PROB	6.383	n/a	n/a	n/a	-999	8	[6, 4, 4]	14.0	catFR1	0	R1396T
876.097	0.0	938080	STOP	n/a	n/a	n/a	n/a	-999	8	[-999, -999, -999]	n/a	catFR1	0	R1396T
876.097	2.067	938081	DISTRACT_END	n/a	n/a	n/a	n/a	-999	8	[0, 0, 0]	n/a	catFR1	0	R1396T
878.164	1.261	940143	REC_START	n/a	n/a	n/a	n/a	-999	8	[0, 0, 0]	n/a	catFR1	0	R1396T
879.425	2.205	941408	REC_WORD	1.261	n/a	BANANA	Fruit	11	8	[0, 0, 0]	n/a	catFR1	0	R1396T
881.63	26.749	943613	REC_WORD	3.466	n/a	CHERRY	Fruit	-999	8	[0, 0, 0]	n/a	catFR1	0	R1396T
908.379	1.168	970356	REC_END	n/a	n/a	n/a	n/a	-999	8	[0, 0, 0]	n/a	catFR1	0	R1396T
909.547	10.351	971530	COUNTDOWN_START	n/a	n/a	n/a	n/a	-999	9	[0, 0, 0]	n/a	catFR1	0	R1396T
919.898	0.0	981883	COUNTDOWN_END	n/a	n/a	n/a	n/a	-999	9	[0, 0, 0]	n/a	catFR1	0	R1396T
919.898	2.017	981883	ENCODING_START	n/a	n/a	n/a	n/a	-999	9	[0, 0, 0]	n/a	catFR1	0	R1396T
921.915	1.599	983895	WORD	n/a	wordpools/wordpool_categorized_EN.txt	WASHER	Appliances	1	9	[0, 0, 0]	n/a	catFR1	0	R1396T
923.514	0.951	985502	WORD_OFF	n/a	n/a	WASHER	Appliances	1	9	[0, 0, 0]	n/a	catFR1	0	R1396T
924.465	1.599	986452	WORD	n/a	wordpools/wordpool_categorized_EN.txt	FREEZER	Appliances	2	9	[0, 0, 0]	n/a	catFR1	0	R1396T
926.064	0.767	988045	WORD_OFF	n/a	n/a	FREEZER	Appliances	2	9	[0, 0, 0]	n/a	catFR1	0	R1396T
926.831	1.617	988813	WORD	n/a	wordpools/wordpool_categorized_EN.txt	DAISY	Flowers	3	9	[0, 0, 0]	n/a	catFR1	0	R1396T
928.448	0.816	990434	WORD_OFF	n/a	n/a	DAISY	Flowers	3	9	[0, 0, 0]	n/a	catFR1	0	R1396T
929.264	1.601	991244	WORD	n/a	wordpools/wordpool_categorized_EN.txt	VIOLET	Flowers	4	9	[0, 0, 0]	n/a	catFR1	0	R1396T
930.865	0.916	992851	WORD_OFF	n/a	n/a	VIOLET	Flowers	4	9	[0, 0, 0]	n/a	catFR1	0	R1396T
931.781	1.601	993759	WORD	n/a	wordpools/wordpool_categorized_EN.txt	CORKSCREW	KitchenTools	5	9	[0, 0, 0]	n/a	catFR1	0	R1396T
933.382	0.832	995366	WORD_OFF	n/a	n/a	CORKSCREW	KitchenTools	5	9	[0, 0, 0]	n/a	catFR1	0	R1396T
934.214	1.617	996190	WORD	n/a	wordpools/wordpool_categorized_EN.txt	COLANDER	KitchenTools	6	9	[0, 0, 0]	n/a	catFR1	0	R1396T
935.831	0.85	997811	WORD_OFF	n/a	n/a	COLANDER	KitchenTools	6	9	[0, 0, 0]	n/a	catFR1	0	R1396T
936.681	1.6	998663	WORD	n/a	wordpools/wordpool_categorized_EN.txt	VACUUM	Appliances	7	9	[0, 0, 0]	n/a	catFR1	0	R1396T
938.281	0.983	1000256	WORD_OFF	n/a	n/a	VACUUM	Appliances	7	9	[0, 0, 0]	n/a	catFR1	0	R1396T
939.264	1.6	1001248	WORD	n/a	wordpools/wordpool_categorized_EN.txt	OVEN	Appliances	8	9	[0, 0, 0]	n/a	catFR1	0	R1396T
940.864	0.934	1002841	WORD_OFF	n/a	n/a	OVEN	Appliances	8	9	[0, 0, 0]	n/a	catFR1	0	R1396T
941.798	1.617	1003777	WORD	n/a	wordpools/wordpool_categorized_EN.txt	ROSE	Flowers	9	9	[0, 0, 0]	n/a	catFR1	0	R1396T
943.415	1.0	1005398	WORD_OFF	n/a	n/a	ROSE	Flowers	9	9	[0, 0, 0]	n/a	catFR1	0	R1396T
944.415	1.599	1006390	WORD	n/a	wordpools/wordpool_categorized_EN.txt	DAFFODIL	Flowers	10	9	[0, 0, 0]	n/a	catFR1	0	R1396T
946.014	1.0	1007996	WORD_OFF	n/a	n/a	DAFFODIL	Flowers	10	9	[0, 0, 0]	n/a	catFR1	0	R1396T
947.014	1.6	1008988	WORD	n/a	wordpools/wordpool_categorized_EN.txt	FORK	KitchenTools	11	9	[0, 0, 0]	n/a	catFR1	0	R1396T
948.614	0.85	1010595	WORD_OFF	n/a	n/a	FORK	KitchenTools	11	9	[0, 0, 0]	n/a	catFR1	0	R1396T
949.464	1.6	1011447	WORD	n/a	wordpools/wordpool_categorized_EN.txt	TONGS	KitchenTools	12	9	[0, 0, 0]	n/a	catFR1	0	R1396T
951.064	0.002	1013040	WORD_OFF	n/a	n/a	TONGS	KitchenTools	12	9	[0, 0, 0]	n/a	catFR1	0	R1396T
951.066	0.0	1013040	ENCODING_END	n/a	n/a	n/a	n/a	-999	9	[0, 0, 0]	n/a	catFR1	0	R1396T
951.066	0.0	1013040	DISTRACT_START	n/a	n/a	n/a	n/a	-999	9	[0, 0, 0]	n/a	catFR1	0	R1396T
951.065	0.001	1013044	PROB	5.516	n/a	n/a	n/a	-999	9	[7, 3, 5]	15.0	catFR1	0	R1396T
951.066	5.532	1013045	START	n/a	n/a	n/a	n/a	-999	9	[-999, -999, -999]	n/a	catFR1	0	R1396T
956.598	3.0	1018577	PROB	2.983	n/a	n/a	n/a	-999	9	[1, 4, 1]	6.0	catFR1	0	R1396T
959.598	8.7	1021577	PROB	8.682	n/a	n/a	n/a	-999	9	[7, 5, 8]	20.0	catFR1	0	R1396T
968.298	3.532	1030276	PROB	3.516	n/a	n/a	n/a	-999	9	[2, 8, 1]	11.0	catFR1	0	R1396T
971.83	0.0	1033802	DISTRACT_END	n/a	n/a	n/a	n/a	-999	9	[0, 0, 0]	n/a	catFR1	0	R1396T
971.83	2.017	1033808	STOP	n/a	n/a	n/a	n/a	-999	9	[-999, -999, -999]	n/a	catFR1	0	R1396T
973.847	29.945	1035822	REC_START	n/a	n/a	n/a	n/a	-999	9	[0, 0, 0]	n/a	catFR1	0	R1396T
1003.792	0.271	1065769	REC_WORD_VV	29.945	n/a	<>	n/a	-999	9	[0, 0, 0]	n/a	catFR1	0	R1396T
1004.063	0.384	1066035	REC_END	n/a	n/a	n/a	n/a	-999	9	[0, 0, 0]	n/a	catFR1	0	R1396T
1004.447	10.351	1066426	COUNTDOWN_START	n/a	n/a	n/a	n/a	-999	10	[0, 0, 0]	n/a	catFR1	0	R1396T
1014.798	0.001	1076780	COUNTDOWN_END	n/a	n/a	n/a	n/a	-999	10	[0, 0, 0]	n/a	catFR1	0	R1396T
1014.799	1.832	1076780	ENCODING_START	n/a	n/a	n/a	n/a	-999	10	[0, 0, 0]	n/a	catFR1	0	R1396T
1016.631	1.6	1078610	WORD	n/a	wordpools/wordpool_categorized_EN.txt	CUCUMBER	Vegetables	1	10	[0, 0, 0]	n/a	catFR1	0	R1396T
1018.231	0.95	1080203	WORD_OFF	n/a	n/a	CUCUMBER	Vegetables	1	10	[0, 0, 0]	n/a	catFR1	0	R1396T
1019.181	1.6	1081153	WORD	n/a	wordpools/wordpool_categorized_EN.txt	CORN	Vegetables	2	10	[0, 0, 0]	n/a	catFR1	0	R1396T
1020.781	0.983	1082760	WORD_OFF	n/a	n/a	CORN	Vegetables	2	10	[0, 0, 0]	n/a	catFR1	0	R1396T
1021.764	1.6	1083738	WORD	n/a	wordpools/wordpool_categorized_EN.txt	DRIZZLE	Weather	3	10	[0, 0, 0]	n/a	catFR1	0	R1396T
1023.364	0.983	1085344	WORD_OFF	n/a	n/a	DRIZZLE	Weather	3	10	[0, 0, 0]	n/a	catFR1	0	R1396T
1024.347	1.601	1086322	WORD	n/a	wordpools/wordpool_categorized_EN.txt	HUMIDITY	Weather	4	10	[0, 0, 0]	n/a	catFR1	0	R1396T
1025.948	0.916	1087929	WORD_OFF	n/a	n/a	HUMIDITY	Weather	4	10	[0, 0, 0]	n/a	catFR1	0	R1396T
1026.864	1.6	1088837	WORD	n/a	wordpools/wordpool_categorized_EN.txt	EVERGREEN	Trees	5	10	[0, 0, 0]	n/a	catFR1	0	R1396T
1028.464	0.785	1090444	WORD_OFF	n/a	n/a	EVERGREEN	Trees	5	10	[0, 0, 0]	n/a	catFR1	0	R1396T
1029.249	1.615	1091226	WORD	n/a	wordpools/wordpool_categorized_EN.txt	MAPLE	Trees	6	10	[0, 0, 0]	n/a	catFR1	0	R1396T
1030.864	0.967	1092833	WORD_OFF	n/a	n/a	MAPLE	Trees	6	10	[0, 0, 0]	n/a	catFR1	0	R1396T
1031.831	1.617	1093811	WORD	n/a	wordpools/wordpool_categorized_EN.txt	PEAS	Vegetables	7	10	[0, 0, 0]	n/a	catFR1	0	R1396T
1033.448	0.9	1095418	WORD_OFF	n/a	n/a	PEAS	Vegetables	7	10	[0, 0, 0]	n/a	catFR1	0	R1396T
1034.348	1.6	1096326	WORD	n/a	wordpools/wordpool_categorized_EN.txt	POTATO	Vegetables	8	10	[0, 0, 0]	n/a	catFR1	0	R1396T
1035.948	0.783	1097919	WORD_OFF	n/a	n/a	POTATO	Vegetables	8	10	[0, 0, 0]	n/a	catFR1	0	R1396T
1036.731	1.617	1098701	WORD	n/a	wordpools/wordpool_categorized_EN.txt	THUNDERSTORM	Weather	9	10	[0, 0, 0]	n/a	catFR1	0	R1396T
1038.348	0.85	1100322	WORD_OFF	n/a	n/a	THUNDERSTORM	Weather	9	10	[0, 0, 0]	n/a	catFR1	0	R1396T
1039.198	1.6	1101174	WORD	n/a	wordpools/wordpool_categorized_EN.txt	WIND	Weather	10	10	[0, 0, 0]	n/a	catFR1	0	R1396T
1040.798	0.866	1102767	WORD_OFF	n/a	n/a	WIND	Weather	10	10	[0, 0, 0]	n/a	catFR1	0	R1396T
1041.664	1.6	1103633	WORD	n/a	wordpools/wordpool_categorized_EN.txt	PINE	Trees	11	10	[0, 0, 0]	n/a	catFR1	0	R1396T
1043.264	0.867	1105240	WORD_OFF	n/a	n/a	PINE	Trees	11	10	[0, 0, 0]	n/a	catFR1	0	R1396T
1044.131	1.6	1106106	WORD	n/a	wordpools/wordpool_categorized_EN.txt	WILLOW	Trees	12	10	[0, 0, 0]	n/a	catFR1	0	R1396T
1045.731	0.001	1107699	WORD_OFF	n/a	n/a	WILLOW	Trees	12	10	[0, 0, 0]	n/a	catFR1	0	R1396T
1045.732	0.001	1107706	PROB	4.166	n/a	n/a	n/a	-999	10	[6, 1, 7]	14.0	catFR1	0	R1396T
1045.733	0.0	1107707	START	n/a	n/a	n/a	n/a	-999	10	[-999, -999, -999]	n/a	catFR1	0	R1396T
1045.733	0.0	1107713	ENCODING_END	n/a	n/a	n/a	n/a	-999	10	[0, 0, 0]	n/a	catFR1	0	R1396T
1045.733	4.182	1107713	DISTRACT_START	n/a	n/a	n/a	n/a	-999	10	[0, 0, 0]	n/a	catFR1	0	R1396T
1049.915	2.883	1111889	PROB	2.866	n/a	n/a	n/a	-999	10	[1, 1, 2]	4.0	catFR1	0	R1396T
1052.798	7.668	1114772	PROB	7.649	n/a	n/a	n/a	-999	10	[6, 8, 5]	19.0	catFR1	0	R1396T
1060.466	5.965	1122440	PROB	5.949	n/a	n/a	n/a	-999	10	[5, 6, 6]	17.0	catFR1	0	R1396T
1066.431	0.0	1128404	STOP	n/a	n/a	n/a	n/a	-999	10	[-999, -999, -999]	n/a	catFR1	0	R1396T
1066.431	2.15	1128405	DISTRACT_END	n/a	n/a	n/a	n/a	-999	10	[0, 0, 0]	n/a	catFR1	0	R1396T
1068.581	2.777	1130551	REC_START	n/a	n/a	n/a	n/a	-999	10	[0, 0, 0]	n/a	catFR1	0	R1396T
1071.358	27.437	1133331	REC_WORD	2.777	n/a	CUCUMBER	Vegetables	1	10	[0, 0, 0]	n/a	catFR1	0	R1396T
1098.795	1.219	1160764	REC_END	n/a	n/a	n/a	n/a	-999	10	[0, 0, 0]	n/a	catFR1	0	R1396T
1100.014	10.351	1161994	COUNTDOWN_START	n/a	n/a	n/a	n/a	-999	11	[0, 0, 0]	n/a	catFR1	0	R1396T
1110.365	0.0	1172333	COUNTDOWN_END	n/a	n/a	n/a	n/a	-999	11	[0, 0, 0]	n/a	catFR1	0	R1396T
1110.365	2.016	1172333	ENCODING_START	n/a	n/a	n/a	n/a	-999	11	[0, 0, 0]	n/a	catFR1	0	R1396T
1112.381	1.6	1174359	WORD	n/a	wordpools/wordpool_categorized_EN.txt	REFRIGERATOR	Appliances	1	11	[0, 0, 0]	n/a	catFR1	0	R1396T
1113.981	0.782	1175952	WORD_OFF	n/a	n/a	REFRIGERATOR	Appliances	1	11	[0, 0, 0]	n/a	catFR1	0	R1396T
1114.763	1.601	1176734	WORD	n/a	wordpools/wordpool_categorized_EN.txt	IRON	Appliances	2	11	[0, 0, 0]	n/a	catFR1	0	R1396T
1116.364	0.85	1178341	WORD_OFF	n/a	n/a	IRON	Appliances	2	11	[0, 0, 0]	n/a	catFR1	0	R1396T
1117.214	1.601	1179179	WORD	n/a	wordpools/wordpool_categorized_EN.txt	RATCHET	Tools	3	11	[0, 0, 0]	n/a	catFR1	0	R1396T
1118.815	0.883	1180786	WORD_OFF	n/a	n/a	RATCHET	Tools	3	11	[0, 0, 0]	n/a	catFR1	0	R1396T
1119.698	1.6	1181666	WORD	n/a	wordpools/wordpool_categorized_EN.txt	SAW	Tools	4	11	[0, 0, 0]	n/a	catFR1	0	R1396T
1121.298	0.916	1183273	WORD_OFF	n/a	n/a	SAW	Tools	4	11	[0, 0, 0]	n/a	catFR1	0	R1396T
1122.214	1.601	1184181	WORD	n/a	wordpools/wordpool_categorized_EN.txt	UNDERWEAR	Clothing	5	11	[0, 0, 0]	n/a	catFR1	0	R1396T
1123.815	0.766	1185788	WORD_OFF	n/a	n/a	UNDERWEAR	Clothing	5	11	[0, 0, 0]	n/a	catFR1	0	R1396T
1124.581	1.617	1186556	WORD	n/a	wordpools/wordpool_categorized_EN.txt	COAT	Clothing	6	11	[0, 0, 0]	n/a	catFR1	0	R1396T
1126.198	0.899	1188163	WORD_OFF	n/a	n/a	COAT	Clothing	6	11	[0, 0, 0]	n/a	catFR1	0	R1396T
1127.097	1.601	1189071	WORD	n/a	wordpools/wordpool_categorized_EN.txt	DRYER	Appliances	7	11	[0, 0, 0]	n/a	catFR1	0	R1396T
1128.698	0.967	1190664	WORD_OFF	n/a	n/a	DRYER	Appliances	7	11	[0, 0, 0]	n/a	catFR1	0	R1396T
1129.665	1.599	1191628	WORD	n/a	wordpools/wordpool_categorized_EN.txt	STOVE	Appliances	8	11	[0, 0, 0]	n/a	catFR1	0	R1396T
1131.264	0.817	1193235	WORD_OFF	n/a	n/a	STOVE	Appliances	8	11	[0, 0, 0]	n/a	catFR1	0	R1396T
1132.081	1.6	1194045	WORD	n/a	wordpools/wordpool_categorized_EN.txt	AXE	Tools	9	11	[0, 0, 0]	n/a	catFR1	0	R1396T
1133.681	0.817	1195652	WORD_OFF	n/a	n/a	AXE	Tools	9	11	[0, 0, 0]	n/a	catFR1	0	R1396T
1134.498	1.6	1196462	WORD	n/a	wordpools/wordpool_categorized_EN.txt	WRENCH	Tools	10	11	[0, 0, 0]	n/a	catFR1	0	R1396T
1136.098	0.982	1198069	WORD_OFF	n/a	n/a	WRENCH	Tools	10	11	[0, 0, 0]	n/a	catFR1	0	R1396T
1137.08	1.601	1199047	WORD	n/a	wordpools/wordpool_categorized_EN.txt	JACKET	Clothing	11	11	[0, 0, 0]	n/a	catFR1	0	R1396T
1138.681	0.833	1200654	WORD_OFF	n/a	n/a	JACKET	Clothing	11	11	[0, 0, 0]	n/a	catFR1	0	R1396T
1139.514	1.601	1201478	WORD	n/a	wordpools/wordpool_categorized_EN.txt	SKIRT	Clothing	12	11	[0, 0, 0]	n/a	catFR1	0	R1396T
1141.115	0.0	1203084	PROB	4.899	n/a	n/a	n/a	-999	11	[5, 2, 6]	13.0	catFR1	0	R1396T
1141.115	0.001	1203085	WORD_OFF	n/a	n/a	SKIRT	Clothing	12	11	[0, 0, 0]	n/a	catFR1	0	R1396T
1141.116	0.001	1203085	ENCODING_END	n/a	n/a	n/a	n/a	-999	11	[0, 0, 0]	n/a	catFR1	0	R1396T
1141.117	0.0	1203085	DISTRACT_START	n/a	n/a	n/a	n/a	-999	11	[0, 0, 0]	n/a	catFR1	0	R1396T
1141.117	4.915	1203086	START	n/a	n/a	n/a	n/a	-999	11	[-999, -999, -999]	n/a	catFR1	0	R1396T
1146.032	7.367	1208001	PROB	7.349	n/a	n/a	n/a	-999	11	[3, 8, 7]	18.0	catFR1	0	R1396T
1153.399	4.216	1215368	PROB	4.199	n/a	n/a	n/a	-999	11	[8, 6, 8]	22.0	catFR1	0	R1396T
1157.615	4.732	1219584	PROB	4.715	n/a	n/a	n/a	-999	11	[8, 1, 4]	13.0	catFR1	0	R1396T
1162.347	0.0	1224315	STOP	n/a	n/a	n/a	n/a	-999	11	[-999, -999, -999]	n/a	catFR1	0	R1396T
1162.347	2.051	1224322	DISTRACT_END	n/a	n/a	n/a	n/a	-999	11	[0, 0, 0]	n/a	catFR1	0	R1396T
1164.398	0.847	1226370	REC_START	n/a	n/a	n/a	n/a	-999	11	[0, 0, 0]	n/a	catFR1	0	R1396T
1165.245	3.117	1227213	REC_WORD	0.847	n/a	SKIRT	Clothing	12	11	[0, 0, 0]	n/a	catFR1	0	R1396T
1168.362	26.282	1230330	REC_WORD	3.964	n/a	SAW	Tools	4	11	[0, 0, 0]	n/a	catFR1	0	R1396T
1194.644	0.487	1256611	REC_END	n/a	n/a	n/a	n/a	-999	11	[0, 0, 0]	n/a	catFR1	0	R1396T
1195.131	10.35	1257100	COUNTDOWN_START	n/a	n/a	n/a	n/a	-999	12	[0, 0, 0]	n/a	catFR1	0	R1396T
1205.481	0.0	1267453	COUNTDOWN_END	n/a	n/a	n/a	n/a	-999	12	[0, 0, 0]	n/a	catFR1	0	R1396T
1205.481	2.217	1267453	ENCODING_START	n/a	n/a	n/a	n/a	-999	12	[0, 0, 0]	n/a	catFR1	0	R1396T
1207.698	1.6	1269661	WORD	n/a	wordpools/wordpool_categorized_EN.txt	CAR	Vehicles	1	12	[0, 0, 0]	n/a	catFR1	0	R1396T
1209.298	0.85	1271267	WORD_OFF	n/a	n/a	CAR	Vehicles	1	12	[0, 0, 0]	n/a	catFR1	0	R1396T
1210.148	1.6	1272120	WORD	n/a	wordpools/wordpool_categorized_EN.txt	MOPED	Vehicles	2	12	[0, 0, 0]	n/a	catFR1	0	R1396T
1211.748	0.95	1273712	WORD_OFF	n/a	n/a	MOPED	Vehicles	2	12	[0, 0, 0]	n/a	catFR1	0	R1396T
1212.698	1.6	1274662	WORD	n/a	wordpools/wordpool_categorized_EN.txt	CROWBAR	Tools	3	12	[0, 0, 0]	n/a	catFR1	0	R1396T
1214.298	0.8	1276269	WORD_OFF	n/a	n/a	CROWBAR	Tools	3	12	[0, 0, 0]	n/a	catFR1	0	R1396T
1215.098	1.6	1277066	WORD	n/a	wordpools/wordpool_categorized_EN.txt	SANDER	Tools	4	12	[0, 0, 0]	n/a	catFR1	0	R1396T
1216.698	0.8	1278658	WORD_OFF	n/a	n/a	SANDER	Tools	4	12	[0, 0, 0]	n/a	catFR1	0	R1396T
1217.498	1.6	1279469	WORD	n/a	wordpools/wordpool_categorized_EN.txt	CLOUD	Weather	5	12	[0, 0, 0]	n/a	catFR1	0	R1396T
1219.098	0.983	1281062	WORD_OFF	n/a	n/a	CLOUD	Weather	5	12	[0, 0, 0]	n/a	catFR1	0	R1396T
1220.081	1.6	1282040	WORD	n/a	wordpools/wordpool_categorized_EN.txt	SNOW	Weather	6	12	[0, 0, 0]	n/a	catFR1	0	R1396T
1221.681	0.933	1283646	WORD_OFF	n/a	n/a	SNOW	Weather	6	12	[0, 0, 0]	n/a	catFR1	0	R1396T
1222.614	1.6	1284582	WORD	n/a	wordpools/wordpool_categorized_EN.txt	PLIERS	Tools	7	12	[0, 0, 0]	n/a	catFR1	0	R1396T
1224.214	0.834	1286175	WORD_OFF	n/a	n/a	PLIERS	Tools	7	12	[0, 0, 0]	n/a	catFR1	0	R1396T
1225.048	1.6	1287014	WORD	n/a	wordpools/wordpool_categorized_EN.txt	LEVEL	Tools	8	12	[0, 0, 0]	n/a	catFR1	0	R1396T
1226.648	0.85	1288606	WORD_OFF	n/a	n/a	LEVEL	Tools	8	12	[0, 0, 0]	n/a	catFR1	0	R1396T
1227.498	1.6	1289459	WORD	n/a	wordpools/wordpool_categorized_EN.txt	TRUCK	Vehicles	9	12	[0, 0, 0]	n/a	catFR1	0	R1396T
1229.098	0.933	1291065	WORD_OFF	n/a	n/a	TRUCK	Vehicles	9	12	[0, 0, 0]	n/a	catFR1	0	R1396T
1230.031	1.6	1292001	WORD	n/a	wordpools/wordpool_categorized_EN.txt	BUS	Vehicles	10	12	[0, 0, 0]	n/a	catFR1	0	R1396T
1231.631	0.85	1293594	WORD_OFF	n/a	n/a	BUS	Vehicles	10	12	[0, 0, 0]	n/a	catFR1	0	R1396T
1232.481	1.6	1294447	WORD	n/a	wordpools/wordpool_categorized_EN.txt	TORNADO	Weather	11	12	[0, 0, 0]	n/a	catFR1	0	R1396T
1234.081	0.783	1296039	WORD_OFF	n/a	n/a	TORNADO	Weather	11	12	[0, 0, 0]	n/a	catFR1	0	R1396T
1234.864	1.601	1296822	WORD	n/a	wordpools/wordpool_categorized_EN.txt	RAIN	Weather	12	12	[0, 0, 0]	n/a	catFR1	0	R1396T
1236.465	0.001	1298430	PROB	4.299	n/a	n/a	n/a	-999	12	[2, 1, 1]	4.0	catFR1	0	R1396T
1236.466	0.0	1298431	START	n/a	n/a	n/a	n/a	-999	12	[-999, -999, -999]	n/a	catFR1	0	R1396T
1236.464	0.002	1298435	WORD_OFF	n/a	n/a	RAIN	Weather	12	12	[0, 0, 0]	n/a	catFR1	0	R1396T
1236.466	0.0	1298442	ENCODING_END	n/a	n/a	n/a	n/a	-999	12	[0, 0, 0]	n/a	catFR1	0	R1396T
1236.466	4.316	1298442	DISTRACT_START	n/a	n/a	n/a	n/a	-999	12	[0, 0, 0]	n/a	catFR1	0	R1396T
1240.782	4.984	1302746	PROB	4.965	n/a	n/a	n/a	-999	12	[3, 2, 5]	10.0	catFR1	0	R1396T
1245.766	3.565	1307730	PROB	3.549	n/a	n/a	n/a	-999	12	[6, 3, 1]	10.0	catFR1	0	R1396T
1249.331	4.717	1311295	PROB	4.7	n/a	n/a	n/a	-999	12	[1, 7, 8]	16.0	catFR1	0	R1396T
1254.048	4.099	1316012	PROB	4.083	n/a	n/a	n/a	-999	12	[7, 1, 4]	12.0	catFR1	0	R1396T
1258.147	0.0	1320110	STOP	n/a	n/a	n/a	n/a	-999	12	[-999, -999, -999]	n/a	catFR1	0	R1396T
1258.147	2.083	1320113	DISTRACT_END	n/a	n/a	n/a	n/a	-999	12	[0, 0, 0]	n/a	catFR1	0	R1396T
1260.23	1.851	1322189	REC_START	n/a	n/a	n/a	n/a	-999	12	[0, 0, 0]	n/a	catFR1	0	R1396T
1262.081	1.309	1324044	REC_WORD	1.851	n/a	CLOUD	Weather	5	12	[0, 0, 0]	n/a	catFR1	0	R1396T
1263.39	0.965	1325353	REC_WORD	3.16	n/a	THUNDER	n/a	-999	12	[0, 0, 0]	n/a	catFR1	0	R1396T
1264.355	1.463	1326318	REC_WORD	4.125	n/a	THUNDERSTORM	Weather	-999	12	[0, 0, 0]	n/a	catFR1	0	R1396T
1265.818	24.635	1327781	REC_WORD	5.588	n/a	SNOW	Weather	6	12	[0, 0, 0]	n/a	catFR1	0	R1396T
1290.453	0.0	1352416	REC_END	n/a	n/a	n/a	n/a	-999	12	[0, 0, 0]	n/a	catFR1	0	R1396T
