onset	duration	sample	trial_type	response_time	stim_file	item_name	category	serialpos	list	test	answer	experiment	session	subject
0.0	12.282	221050	INSTRUCT_START	n/a	n/a	n/a	n/a	-999	-999	[0, 0, 0]	n/a	catFR1	1	R1421M
12.282	208.449	233326	INSTRUCT_END	n/a	n/a	n/a	n/a	-999	-999	[0, 0, 0]	n/a	catFR1	1	R1421M
220.731	10.384	441770	COUNTDOWN_START	n/a	n/a	n/a	n/a	-999	-999	[0, 0, 0]	n/a	catFR1	1	R1421M
231.115	0.0	452158	COUNTDOWN_END	n/a	n/a	n/a	n/a	-999	-999	[0, 0, 0]	n/a	catFR1	1	R1421M
231.115	2.084	452158	ENCODING_START	n/a	n/a	n/a	n/a	-999	-1	[0, 0, 0]	n/a	catFR1	1	R1421M
233.199	1.598	454239	WORD	n/a	n/a	LAMB	FarmAnimals	1	-1	[0, 0, 0]	n/a	catFR1	1	R1421M
234.797	0.867	455837	WORD_OFF	n/a	n/a	LAMB	FarmAnimals	1	-1	[0, 0, 0]	n/a	catFR1	1	R1421M
235.664	1.6	456705	WORD	n/a	n/a	SHEEP	FarmAnimals	2	-1	[0, 0, 0]	n/a	catFR1	1	R1421M
237.264	0.9	458303	WORD_OFF	n/a	n/a	SHEEP	FarmAnimals	2	-1	[0, 0, 0]	n/a	catFR1	1	R1421M
238.164	1.617	459199	WORD	n/a	n/a	ROSE	Flowers	3	-1	[0, 0, 0]	n/a	catFR1	1	R1421M
239.781	0.8	460824	WORD_OFF	n/a	n/a	ROSE	Flowers	3	-1	[0, 0, 0]	n/a	catFR1	1	R1421M
240.581	1.6	461624	WORD	n/a	n/a	DAFFODIL	Flowers	4	-1	[0, 0, 0]	n/a	catFR1	1	R1421M
242.181	0.832	463222	WORD_OFF	n/a	n/a	DAFFODIL	Flowers	4	-1	[0, 0, 0]	n/a	catFR1	1	R1421M
243.013	1.601	464048	WORD	n/a	n/a	HAMMER	Tools	5	-1	[0, 0, 0]	n/a	catFR1	1	R1421M
244.614	0.816	465647	WORD_OFF	n/a	n/a	HAMMER	Tools	5	-1	[0, 0, 0]	n/a	catFR1	1	R1421M
245.43	1.601	466460	WORD	n/a	n/a	PLIERS	Tools	6	-1	[0, 0, 0]	n/a	catFR1	1	R1421M
247.031	0.8	468072	WORD_OFF	n/a	n/a	PLIERS	Tools	6	-1	[0, 0, 0]	n/a	catFR1	1	R1421M
247.831	1.616	468871	WORD	n/a	n/a	VIOLET	Flowers	7	-1	[0, 0, 0]	n/a	catFR1	1	R1421M
249.447	0.817	470483	WORD_OFF	n/a	n/a	VIOLET	Flowers	7	-1	[0, 0, 0]	n/a	catFR1	1	R1421M
250.264	1.6	471296	WORD	n/a	n/a	CARNATION	Flowers	8	-1	[0, 0, 0]	n/a	catFR1	1	R1421M
251.864	0.799	472894	WORD_OFF	n/a	n/a	CARNATION	Flowers	8	-1	[0, 0, 0]	n/a	catFR1	1	R1421M
252.663	1.601	473693	WORD	n/a	n/a	SHOVEL	Tools	9	-1	[0, 0, 0]	n/a	catFR1	1	R1421M
254.264	0.799	475305	WORD_OFF	n/a	n/a	SHOVEL	Tools	9	-1	[0, 0, 0]	n/a	catFR1	1	R1421M
255.063	1.601	476104	WORD	n/a	n/a	CROWBAR	Tools	10	-1	[0, 0, 0]	n/a	catFR1	1	R1421M
256.664	1.0	477702	WORD_OFF	n/a	n/a	CROWBAR	Tools	10	-1	[0, 0, 0]	n/a	catFR1	1	R1421M
257.664	1.6	478694	WORD	n/a	n/a	TURKEY	FarmAnimals	11	-1	[0, 0, 0]	n/a	catFR1	1	R1421M
259.264	0.767	480306	WORD_OFF	n/a	n/a	TURKEY	FarmAnimals	11	-1	[0, 0, 0]	n/a	catFR1	1	R1421M
260.031	1.615	481064	WORD	n/a	n/a	CALF	FarmAnimals	12	-1	[0, 0, 0]	n/a	catFR1	1	R1421M
261.646	0.002	482676	WORD_OFF	n/a	n/a	CALF	FarmAnimals	12	-1	[0, 0, 0]	n/a	catFR1	1	R1421M
261.648	0.0	482682	START	n/a	n/a	n/a	n/a	-999	-1	[-999, -999, -999]	n/a	catFR1	1	R1421M
261.648	0.0	482682	PROB	5.95	n/a	n/a	n/a	-999	-1	[2, 1, 8]	11.0	catFR1	1	R1421M
261.648	0.0	482690	ENCODING_END	n/a	n/a	n/a	n/a	-999	-1	[0, 0, 0]	n/a	catFR1	1	R1421M
261.648	5.965	482690	DISTRACT_START	n/a	n/a	n/a	n/a	-999	-1	[0, 0, 0]	n/a	catFR1	1	R1421M
267.613	5.184	488647	PROB	5.167	n/a	n/a	n/a	-999	-1	[2, 4, 5]	11.0	catFR1	1	R1421M
272.797	5.7	493830	PROB	5.683	n/a	n/a	n/a	-999	-1	[5, 4, 5]	14.0	catFR1	1	R1421M
278.497	6.118	499530	PROB	6.1	n/a	n/a	n/a	-999	-1	[8, 4, 3]	15.0	catFR1	1	R1421M
284.615	0.0	505644	DISTRACT_END	n/a	n/a	n/a	n/a	-999	-1	[0, 0, 0]	n/a	catFR1	1	R1421M
284.615	2.098	505648	STOP	n/a	n/a	n/a	n/a	-999	-1	[-999, -999, -999]	n/a	catFR1	1	R1421M
286.713	2.158	507746	REC_START	n/a	n/a	n/a	n/a	-999	-1	[0, 0, 0]	n/a	catFR1	1	R1421M
288.871	0.55	509904	REC_WORD	2.158	n/a	LAMB	FarmAnimals	1	-1	[0, 0, 0]	n/a	catFR1	1	R1421M
289.421	0.719	510454	REC_WORD	2.708	n/a	SHEEP	FarmAnimals	2	-1	[0, 0, 0]	n/a	catFR1	1	R1421M
290.14	1.363	511173	REC_WORD	3.427	n/a	ROSE	Flowers	3	-1	[0, 0, 0]	n/a	catFR1	1	R1421M
291.503	5.713	512535	REC_WORD	4.79	n/a	HAMMER	Tools	5	-1	[0, 0, 0]	n/a	catFR1	1	R1421M
297.216	1.165	518248	REC_WORD	10.503	n/a	CACTUS	n/a	-999	-1	[0, 0, 0]	n/a	catFR1	1	R1421M
298.381	0.617	519413	REC_WORD_VV	11.668	n/a	<>	n/a	-999	-1	[0, 0, 0]	n/a	catFR1	1	R1421M
298.998	2.307	520030	REC_WORD	12.285	n/a	DAFFODIL	Flowers	4	-1	[0, 0, 0]	n/a	catFR1	1	R1421M
301.305	4.701	522337	REC_WORD_VV	14.592	n/a	<>	n/a	-999	-1	[0, 0, 0]	n/a	catFR1	1	R1421M
306.006	4.629	527038	REC_WORD	19.293	n/a	CARNATION	Flowers	8	-1	[0, 0, 0]	n/a	catFR1	1	R1421M
310.635	3.756	531667	REC_WORD	23.922	n/a	TRUCK	n/a	-999	-1	[0, 0, 0]	n/a	catFR1	1	R1421M
314.391	2.549	535422	REC_WORD_VV	27.678	n/a	<>	n/a	-999	-1	[0, 0, 0]	n/a	catFR1	1	R1421M
316.94	35.39	537966	REC_END	n/a	n/a	n/a	n/a	-999	-1	[0, 0, 0]	n/a	catFR1	1	R1421M
352.33	10.35	573361	COUNTDOWN_START	n/a	n/a	n/a	n/a	-999	1	[0, 0, 0]	n/a	catFR1	1	R1421M
362.68	0.0	583708	COUNTDOWN_END	n/a	n/a	n/a	n/a	-999	1	[0, 0, 0]	n/a	catFR1	1	R1421M
362.68	2.216	583708	ENCODING_START	n/a	n/a	n/a	n/a	-999	1	[0, 0, 0]	n/a	catFR1	1	R1421M
364.896	1.6	585927	WORD	n/a	wordpools/wordpool_categorized_EN.txt	BLOUSE	Clothing	1	1	[0, 0, 0]	n/a	catFR1	1	R1421M
366.496	0.967	587525	WORD_OFF	n/a	n/a	BLOUSE	Clothing	1	1	[0, 0, 0]	n/a	catFR1	1	R1421M
367.463	1.6	588489	WORD	n/a	wordpools/wordpool_categorized_EN.txt	JEANS	Clothing	2	1	[0, 0, 0]	n/a	catFR1	1	R1421M
369.063	1.001	590087	WORD_OFF	n/a	n/a	JEANS	Clothing	2	1	[0, 0, 0]	n/a	catFR1	1	R1421M
370.064	1.6	591093	WORD	n/a	wordpools/wordpool_categorized_EN.txt	COOKIE	Desserts	3	1	[0, 0, 0]	n/a	catFR1	1	R1421M
371.664	0.8	592691	WORD_OFF	n/a	n/a	COOKIE	Desserts	3	1	[0, 0, 0]	n/a	catFR1	1	R1421M
372.464	1.6	593491	WORD	n/a	wordpools/wordpool_categorized_EN.txt	CAKE	Desserts	4	1	[0, 0, 0]	n/a	catFR1	1	R1421M
374.064	0.916	595089	WORD_OFF	n/a	n/a	CAKE	Desserts	4	1	[0, 0, 0]	n/a	catFR1	1	R1421M
374.98	1.601	596012	WORD	n/a	wordpools/wordpool_categorized_EN.txt	DUCK	Birds	5	1	[0, 0, 0]	n/a	catFR1	1	R1421M
376.581	0.801	597610	WORD_OFF	n/a	n/a	DUCK	Birds	5	1	[0, 0, 0]	n/a	catFR1	1	R1421M
377.382	1.615	598409	WORD	n/a	wordpools/wordpool_categorized_EN.txt	ROBIN	Birds	6	1	[0, 0, 0]	n/a	catFR1	1	R1421M
378.997	0.967	600021	WORD_OFF	n/a	n/a	ROBIN	Birds	6	1	[0, 0, 0]	n/a	catFR1	1	R1421M
379.964	1.6	600999	WORD	n/a	wordpools/wordpool_categorized_EN.txt	PUDDING	Desserts	7	1	[0, 0, 0]	n/a	catFR1	1	R1421M
381.564	0.817	602598	WORD_OFF	n/a	n/a	PUDDING	Desserts	7	1	[0, 0, 0]	n/a	catFR1	1	R1421M
382.381	1.615	603411	WORD	n/a	wordpools/wordpool_categorized_EN.txt	FUDGE	Desserts	8	1	[0, 0, 0]	n/a	catFR1	1	R1421M
383.996	0.834	605023	WORD_OFF	n/a	n/a	FUDGE	Desserts	8	1	[0, 0, 0]	n/a	catFR1	1	R1421M
384.83	1.601	605863	WORD	n/a	wordpools/wordpool_categorized_EN.txt	SOCKS	Clothing	9	1	[0, 0, 0]	n/a	catFR1	1	R1421M
386.431	0.883	607461	WORD_OFF	n/a	n/a	SOCKS	Clothing	9	1	[0, 0, 0]	n/a	catFR1	1	R1421M
387.314	1.617	608343	WORD	n/a	wordpools/wordpool_categorized_EN.txt	PANTS	Clothing	10	1	[0, 0, 0]	n/a	catFR1	1	R1421M
388.931	1.0	609955	WORD_OFF	n/a	n/a	PANTS	Clothing	10	1	[0, 0, 0]	n/a	catFR1	1	R1421M
389.931	1.616	610961	WORD	n/a	wordpools/wordpool_categorized_EN.txt	BLUEBIRD	Birds	11	1	[0, 0, 0]	n/a	catFR1	1	R1421M
391.547	0.834	612573	WORD_OFF	n/a	n/a	BLUEBIRD	Birds	11	1	[0, 0, 0]	n/a	catFR1	1	R1421M
392.381	1.616	613413	WORD	n/a	wordpools/wordpool_categorized_EN.txt	PIGEON	Birds	12	1	[0, 0, 0]	n/a	catFR1	1	R1421M
393.997	0.002	615025	WORD_OFF	n/a	n/a	PIGEON	Birds	12	1	[0, 0, 0]	n/a	catFR1	1	R1421M
393.999	0.0	615025	ENCODING_END	n/a	n/a	n/a	n/a	-999	1	[0, 0, 0]	n/a	catFR1	1	R1421M
393.999	0.0	615025	DISTRACT_START	n/a	n/a	n/a	n/a	-999	1	[0, 0, 0]	n/a	catFR1	1	R1421M
393.998	0.001	615026	PROB	6.683	n/a	n/a	n/a	-999	1	[8, 5, 3]	11.0	catFR1	1	R1421M
393.999	6.699	615027	START	n/a	n/a	n/a	n/a	-999	1	[-999, -999, -999]	n/a	catFR1	1	R1421M
400.698	3.982	621725	PROB	3.966	n/a	n/a	n/a	-999	1	[7, 5, 1]	13.0	catFR1	1	R1421M
404.68	3.951	625707	PROB	3.934	n/a	n/a	n/a	-999	1	[3, 4, 8]	15.0	catFR1	1	R1421M
408.631	2.7	629658	PROB	2.683	n/a	n/a	n/a	-999	1	[6, 1, 5]	12.0	catFR1	1	R1421M
411.331	3.136	632358	PROB	3.116	n/a	n/a	n/a	-999	1	[8, 8, 1]	17.0	catFR1	1	R1421M
414.467	0.0	635494	STOP	n/a	n/a	n/a	n/a	-999	1	[-999, -999, -999]	n/a	catFR1	1	R1421M
414.467	2.163	635499	DISTRACT_END	n/a	n/a	n/a	n/a	-999	1	[0, 0, 0]	n/a	catFR1	1	R1421M
416.63	0.936	637656	REC_START	n/a	n/a	n/a	n/a	-999	1	[0, 0, 0]	n/a	catFR1	1	R1421M
417.566	0.564	638593	REC_WORD	0.936	n/a	BLOUSE	Clothing	1	1	[0, 0, 0]	n/a	catFR1	1	R1421M
418.13	0.549	639157	REC_WORD	1.5	n/a	JEANS	Clothing	2	1	[0, 0, 0]	n/a	catFR1	1	R1421M
418.679	1.092	639706	REC_WORD_VV	2.049	n/a	<>	n/a	-999	1	[0, 0, 0]	n/a	catFR1	1	R1421M
419.771	0.568	640797	REC_WORD	3.141	n/a	COOKIE	Desserts	3	1	[0, 0, 0]	n/a	catFR1	1	R1421M
420.339	3.083	641365	REC_WORD	3.709	n/a	CAKE	Desserts	4	1	[0, 0, 0]	n/a	catFR1	1	R1421M
423.422	7.541	644448	REC_WORD_VV	6.792	n/a	<>	n/a	-999	1	[0, 0, 0]	n/a	catFR1	1	R1421M
430.963	4.126	651989	REC_WORD	14.333	n/a	PANTS	Clothing	10	1	[0, 0, 0]	n/a	catFR1	1	R1421M
435.089	0.948	656115	REC_WORD	18.459	n/a	ROSE	Flowers	-999	1	[0, 0, 0]	n/a	catFR1	1	R1421M
436.037	1.443	657063	REC_WORD	19.407	n/a	ROBIN	Birds	6	1	[0, 0, 0]	n/a	catFR1	1	R1421M
437.48	5.617	658506	REC_WORD	20.85	n/a	PIGEON	Birds	12	1	[0, 0, 0]	n/a	catFR1	1	R1421M
443.097	3.106	664122	REC_WORD	26.467	n/a	DUCK	Birds	5	1	[0, 0, 0]	n/a	catFR1	1	R1421M
446.203	0.654	667228	REC_WORD_VV	29.573	n/a	<>	n/a	-999	1	[0, 0, 0]	n/a	catFR1	1	R1421M
446.857	34.59	667890	REC_END	n/a	n/a	n/a	n/a	-999	1	[0, 0, 0]	n/a	catFR1	1	R1421M
481.447	10.351	702473	COUNTDOWN_START	n/a	n/a	n/a	n/a	-999	2	[0, 0, 0]	n/a	catFR1	1	R1421M
491.798	0.0	712820	COUNTDOWN_END	n/a	n/a	n/a	n/a	-999	2	[0, 0, 0]	n/a	catFR1	1	R1421M
491.798	2.333	712820	ENCODING_START	n/a	n/a	n/a	n/a	-999	2	[0, 0, 0]	n/a	catFR1	1	R1421M
494.131	1.616	715148	WORD	n/a	wordpools/wordpool_categorized_EN.txt	PENCIL	OfficeSupplies	1	2	[0, 0, 0]	n/a	catFR1	1	R1421M
495.747	0.884	716774	WORD_OFF	n/a	n/a	PENCIL	OfficeSupplies	1	2	[0, 0, 0]	n/a	catFR1	1	R1421M
496.631	1.615	717656	WORD	n/a	wordpools/wordpool_categorized_EN.txt	PEN	OfficeSupplies	2	2	[0, 0, 0]	n/a	catFR1	1	R1421M
498.246	0.885	719268	WORD_OFF	n/a	n/a	PEN	OfficeSupplies	2	2	[0, 0, 0]	n/a	catFR1	1	R1421M
499.131	1.615	720150	WORD	n/a	wordpools/wordpool_categorized_EN.txt	DOOR	Building	3	2	[0, 0, 0]	n/a	catFR1	1	R1421M
500.746	0.867	721775	WORD_OFF	n/a	n/a	DOOR	Building	3	2	[0, 0, 0]	n/a	catFR1	1	R1421M
501.613	1.601	722643	WORD	n/a	wordpools/wordpool_categorized_EN.txt	FLOOR	Building	4	2	[0, 0, 0]	n/a	catFR1	1	R1421M
503.214	0.999	724242	WORD_OFF	n/a	n/a	FLOOR	Building	4	2	[0, 0, 0]	n/a	catFR1	1	R1421M
504.213	1.601	725234	WORD	n/a	wordpools/wordpool_categorized_EN.txt	PETUNIA	Flowers	5	2	[0, 0, 0]	n/a	catFR1	1	R1421M
505.814	0.767	726832	WORD_OFF	n/a	n/a	PETUNIA	Flowers	5	2	[0, 0, 0]	n/a	catFR1	1	R1421M
506.581	1.6	727603	WORD	n/a	wordpools/wordpool_categorized_EN.txt	LILY	Flowers	6	2	[0, 0, 0]	n/a	catFR1	1	R1421M
508.181	0.932	729202	WORD_OFF	n/a	n/a	LILY	Flowers	6	2	[0, 0, 0]	n/a	catFR1	1	R1421M
509.113	1.601	730138	WORD	n/a	wordpools/wordpool_categorized_EN.txt	FOUNDATION	Building	7	2	[0, 0, 0]	n/a	catFR1	1	R1421M
510.714	0.817	731737	WORD_OFF	n/a	n/a	FOUNDATION	Building	7	2	[0, 0, 0]	n/a	catFR1	1	R1421M
511.531	1.616	732550	WORD	n/a	wordpools/wordpool_categorized_EN.txt	WALL	Building	8	2	[0, 0, 0]	n/a	catFR1	1	R1421M
513.147	0.817	734175	WORD_OFF	n/a	n/a	WALL	Building	8	2	[0, 0, 0]	n/a	catFR1	1	R1421M
513.964	1.6	734988	WORD	n/a	wordpools/wordpool_categorized_EN.txt	ORCHID	Flowers	9	2	[0, 0, 0]	n/a	catFR1	1	R1421M
515.564	0.983	736586	WORD_OFF	n/a	n/a	ORCHID	Flowers	9	2	[0, 0, 0]	n/a	catFR1	1	R1421M
516.547	1.617	737565	WORD	n/a	wordpools/wordpool_categorized_EN.txt	LILAC	Flowers	10	2	[0, 0, 0]	n/a	catFR1	1	R1421M
518.164	1.001	739190	WORD_OFF	n/a	n/a	LILAC	Flowers	10	2	[0, 0, 0]	n/a	catFR1	1	R1421M
519.165	1.599	740182	WORD	n/a	wordpools/wordpool_categorized_EN.txt	STAPLER	OfficeSupplies	11	2	[0, 0, 0]	n/a	catFR1	1	R1421M
520.764	0.833	741781	WORD_OFF	n/a	n/a	STAPLER	OfficeSupplies	11	2	[0, 0, 0]	n/a	catFR1	1	R1421M
521.597	1.6	742621	WORD	n/a	wordpools/wordpool_categorized_EN.txt	BINDER	OfficeSupplies	12	2	[0, 0, 0]	n/a	catFR1	1	R1421M
523.197	0.002	744219	WORD_OFF	n/a	n/a	BINDER	OfficeSupplies	12	2	[0, 0, 0]	n/a	catFR1	1	R1421M
523.199	0.0	744219	ENCODING_END	n/a	n/a	n/a	n/a	-999	2	[0, 0, 0]	n/a	catFR1	1	R1421M
523.199	0.0	744219	DISTRACT_START	n/a	n/a	n/a	n/a	-999	2	[0, 0, 0]	n/a	catFR1	1	R1421M
523.198	0.001	744220	PROB	3.482	n/a	n/a	n/a	-999	2	[6, 2, 1]	9.0	catFR1	1	R1421M
523.199	3.498	744221	START	n/a	n/a	n/a	n/a	-999	2	[-999, -999, -999]	n/a	catFR1	1	R1421M
526.697	3.918	747718	PROB	3.9	n/a	n/a	n/a	-999	2	[6, 4, 6]	14.0	catFR1	1	R1421M
530.615	3.332	751636	PROB	3.316	n/a	n/a	n/a	-999	2	[6, 8, 8]	22.0	catFR1	1	R1421M
533.947	3.351	754968	PROB	3.333	n/a	n/a	n/a	-999	2	[3, 4, 2]	9.0	catFR1	1	R1421M
537.298	3.133	758319	PROB	3.115	n/a	n/a	n/a	-999	2	[4, 6, 7]	17.0	catFR1	1	R1421M
540.431	3.549	761452	PROB	3.533	n/a	n/a	n/a	-999	2	[5, 5, 7]	17.0	catFR1	1	R1421M
543.98	0.0	765001	STOP	n/a	n/a	n/a	n/a	-999	2	[-999, -999, -999]	n/a	catFR1	1	R1421M
543.98	2.084	765010	DISTRACT_END	n/a	n/a	n/a	n/a	-999	2	[0, 0, 0]	n/a	catFR1	1	R1421M
546.064	5.859	767085	REC_START	n/a	n/a	n/a	n/a	-999	2	[0, 0, 0]	n/a	catFR1	1	R1421M
551.923	0.514	772943	REC_WORD	5.859	n/a	PENCIL	OfficeSupplies	1	2	[0, 0, 0]	n/a	catFR1	1	R1421M
552.437	3.201	773457	REC_WORD	6.373	n/a	PEN	OfficeSupplies	2	2	[0, 0, 0]	n/a	catFR1	1	R1421M
555.638	6.403	776658	REC_WORD	9.574	n/a	DAFFODIL	Flowers	-999	2	[0, 0, 0]	n/a	catFR1	1	R1421M
562.041	5.841	783061	REC_WORD	15.977	n/a	ROSE	Flowers	-999	2	[0, 0, 0]	n/a	catFR1	1	R1421M
567.882	0.712	788902	REC_WORD	21.818	n/a	PANTS	Clothing	-999	2	[0, 0, 0]	n/a	catFR1	1	R1421M
568.594	3.065	789614	REC_WORD	22.53	n/a	SHOES	n/a	-999	2	[0, 0, 0]	n/a	catFR1	1	R1421M
571.659	2.358	792678	REC_WORD	25.595	n/a	VIOLET	Flowers	-999	2	[0, 0, 0]	n/a	catFR1	1	R1421M
574.017	2.352	795036	REC_WORD	27.953	n/a	PETUNIA	Flowers	5	2	[0, 0, 0]	n/a	catFR1	1	R1421M
576.369	40.078	797388	REC_END	n/a	n/a	n/a	n/a	-999	2	[0, 0, 0]	n/a	catFR1	1	R1421M
616.447	10.351	837467	COUNTDOWN_START	n/a	n/a	n/a	n/a	-999	3	[0, 0, 0]	n/a	catFR1	1	R1421M
626.798	0.0	847814	COUNTDOWN_END	n/a	n/a	n/a	n/a	-999	3	[0, 0, 0]	n/a	catFR1	1	R1421M
626.798	2.033	847814	ENCODING_START	n/a	n/a	n/a	n/a	-999	3	[0, 0, 0]	n/a	catFR1	1	R1421M
628.831	1.616	849853	WORD	n/a	wordpools/wordpool_categorized_EN.txt	SANDER	Tools	1	3	[0, 0, 0]	n/a	catFR1	1	R1421M
630.447	0.834	851465	WORD_OFF	n/a	n/a	SANDER	Tools	1	3	[0, 0, 0]	n/a	catFR1	1	R1421M
631.281	1.616	852292	WORD	n/a	wordpools/wordpool_categorized_EN.txt	DRILL	Tools	2	3	[0, 0, 0]	n/a	catFR1	1	R1421M
632.897	0.967	853918	WORD_OFF	n/a	n/a	DRILL	Tools	2	3	[0, 0, 0]	n/a	catFR1	1	R1421M
633.864	1.617	854882	WORD	n/a	wordpools/wordpool_categorized_EN.txt	APPLE	Fruit	3	3	[0, 0, 0]	n/a	catFR1	1	R1421M
635.481	0.783	856494	WORD_OFF	n/a	n/a	APPLE	Fruit	3	3	[0, 0, 0]	n/a	catFR1	1	R1421M
636.264	1.6	857280	WORD	n/a	wordpools/wordpool_categorized_EN.txt	CHERRY	Fruit	4	3	[0, 0, 0]	n/a	catFR1	1	R1421M
637.864	0.966	858878	WORD_OFF	n/a	n/a	CHERRY	Fruit	4	3	[0, 0, 0]	n/a	catFR1	1	R1421M
638.83	1.602	859842	WORD	n/a	wordpools/wordpool_categorized_EN.txt	BATHROOM	Building	5	3	[0, 0, 0]	n/a	catFR1	1	R1421M
640.432	0.915	861454	WORD_OFF	n/a	n/a	BATHROOM	Building	5	3	[0, 0, 0]	n/a	catFR1	1	R1421M
641.347	1.617	862364	WORD	n/a	wordpools/wordpool_categorized_EN.txt	ATTIC	Building	6	3	[0, 0, 0]	n/a	catFR1	1	R1421M
642.964	0.85	863976	WORD_OFF	n/a	n/a	ATTIC	Building	6	3	[0, 0, 0]	n/a	catFR1	1	R1421M
643.814	1.617	864830	WORD	n/a	wordpools/wordpool_categorized_EN.txt	PEACH	Fruit	7	3	[0, 0, 0]	n/a	catFR1	1	R1421M
645.431	0.966	866442	WORD_OFF	n/a	n/a	PEACH	Fruit	7	3	[0, 0, 0]	n/a	catFR1	1	R1421M
646.397	1.617	867420	WORD	n/a	wordpools/wordpool_categorized_EN.txt	PLUM	Fruit	8	3	[0, 0, 0]	n/a	catFR1	1	R1421M
648.014	0.917	869032	WORD_OFF	n/a	n/a	PLUM	Fruit	8	3	[0, 0, 0]	n/a	catFR1	1	R1421M
648.931	1.616	869941	WORD	n/a	wordpools/wordpool_categorized_EN.txt	RATCHET	Tools	9	3	[0, 0, 0]	n/a	catFR1	1	R1421M
650.547	0.966	871567	WORD_OFF	n/a	n/a	RATCHET	Tools	9	3	[0, 0, 0]	n/a	catFR1	1	R1421M
651.513	1.601	872532	WORD	n/a	wordpools/wordpool_categorized_EN.txt	SAW	Tools	10	3	[0, 0, 0]	n/a	catFR1	1	R1421M
653.114	0.833	874130	WORD_OFF	n/a	n/a	SAW	Tools	10	3	[0, 0, 0]	n/a	catFR1	1	R1421M
653.947	1.616	874970	WORD	n/a	wordpools/wordpool_categorized_EN.txt	ROOM	Building	11	3	[0, 0, 0]	n/a	catFR1	1	R1421M
655.563	0.917	876582	WORD_OFF	n/a	n/a	ROOM	Building	11	3	[0, 0, 0]	n/a	catFR1	1	R1421M
656.48	1.6	877492	WORD	n/a	wordpools/wordpool_categorized_EN.txt	WINDOW	Building	12	3	[0, 0, 0]	n/a	catFR1	1	R1421M
658.08	0.001	879090	WORD_OFF	n/a	n/a	WINDOW	Building	12	3	[0, 0, 0]	n/a	catFR1	1	R1421M
658.081	0.001	879096	PROB	4.299	n/a	n/a	n/a	-999	3	[7, 4, 6]	17.0	catFR1	1	R1421M
658.082	0.0	879097	START	n/a	n/a	n/a	n/a	-999	3	[-999, -999, -999]	n/a	catFR1	1	R1421M
658.082	0.0	879104	ENCODING_END	n/a	n/a	n/a	n/a	-999	3	[0, 0, 0]	n/a	catFR1	1	R1421M
658.082	4.315	879104	DISTRACT_START	n/a	n/a	n/a	n/a	-999	3	[0, 0, 0]	n/a	catFR1	1	R1421M
662.397	3.233	883412	PROB	3.216	n/a	n/a	n/a	-999	3	[1, 7, 6]	14.0	catFR1	1	R1421M
665.63	4.95	886645	PROB	4.933	n/a	n/a	n/a	-999	3	[3, 5, 8]	16.0	catFR1	1	R1421M
670.58	3.201	891595	PROB	3.183	n/a	n/a	n/a	-999	3	[8, 8, 1]	17.0	catFR1	1	R1421M
673.781	3.902	894796	PROB	3.883	n/a	n/a	n/a	-999	3	[4, 8, 3]	15.0	catFR1	1	R1421M
677.683	2.764	898697	PROB	2.749	n/a	n/a	n/a	-999	3	[6, 5, 5]	16.0	catFR1	1	R1421M
680.447	0.0	901461	STOP	n/a	n/a	n/a	n/a	-999	3	[-999, -999, -999]	n/a	catFR1	1	R1421M
680.447	2.284	901465	DISTRACT_END	n/a	n/a	n/a	n/a	-999	3	[0, 0, 0]	n/a	catFR1	1	R1421M
682.731	1.003	903746	REC_START	n/a	n/a	n/a	n/a	-999	3	[0, 0, 0]	n/a	catFR1	1	R1421M
683.734	10.46	904748	REC_WORD_VV	1.003	n/a	<>	n/a	-999	3	[0, 0, 0]	n/a	catFR1	1	R1421M
694.194	0.89	915208	REC_WORD_VV	11.463	n/a	<>	n/a	-999	3	[0, 0, 0]	n/a	catFR1	1	R1421M
695.084	0.852	916098	REC_WORD_VV	12.353	n/a	<>	n/a	-999	3	[0, 0, 0]	n/a	catFR1	1	R1421M
695.936	0.613	916950	REC_WORD_VV	13.205	n/a	<>	n/a	-999	3	[0, 0, 0]	n/a	catFR1	1	R1421M
696.549	1.666	917563	REC_WORD_VV	13.818	n/a	<>	n/a	-999	3	[0, 0, 0]	n/a	catFR1	1	R1421M
698.215	0.249	919229	REC_WORD_VV	15.484	n/a	<>	n/a	-999	3	[0, 0, 0]	n/a	catFR1	1	R1421M
698.464	0.526	919478	REC_WORD	15.733	n/a	PENCIL	OfficeSupplies	-999	3	[0, 0, 0]	n/a	catFR1	1	R1421M
698.99	9.616	920004	REC_WORD	16.259	n/a	PEN	OfficeSupplies	-999	3	[0, 0, 0]	n/a	catFR1	1	R1421M
708.606	4.412	929619	REC_WORD	25.875	n/a	DAFFODIL	Flowers	-999	3	[0, 0, 0]	n/a	catFR1	1	R1421M
713.018	21.179	934036	REC_END	n/a	n/a	n/a	n/a	-999	3	[0, 0, 0]	n/a	catFR1	1	R1421M
734.197	10.351	955212	COUNTDOWN_START	n/a	n/a	n/a	n/a	-999	4	[0, 0, 0]	n/a	catFR1	1	R1421M
744.548	0.0	965559	COUNTDOWN_END	n/a	n/a	n/a	n/a	-999	4	[0, 0, 0]	n/a	catFR1	1	R1421M
744.548	1.865	965559	ENCODING_START	n/a	n/a	n/a	n/a	-999	4	[0, 0, 0]	n/a	catFR1	1	R1421M
746.413	1.6	967419	WORD	n/a	wordpools/wordpool_categorized_EN.txt	GOOSE	Birds	1	4	[0, 0, 0]	n/a	catFR1	1	R1421M
748.013	0.851	969031	WORD_OFF	n/a	n/a	GOOSE	Birds	1	4	[0, 0, 0]	n/a	catFR1	1	R1421M
748.864	1.6	969872	WORD	n/a	wordpools/wordpool_categorized_EN.txt	HAWK	Birds	2	4	[0, 0, 0]	n/a	catFR1	1	R1421M
750.464	0.933	971470	WORD_OFF	n/a	n/a	HAWK	Birds	2	4	[0, 0, 0]	n/a	catFR1	1	R1421M
751.397	1.6	972407	WORD	n/a	wordpools/wordpool_categorized_EN.txt	STRAWBERRY	Fruit	3	4	[0, 0, 0]	n/a	catFR1	1	R1421M
752.997	0.783	974005	WORD_OFF	n/a	n/a	STRAWBERRY	Fruit	3	4	[0, 0, 0]	n/a	catFR1	1	R1421M
753.78	1.617	974790	WORD	n/a	wordpools/wordpool_categorized_EN.txt	ORANGE	Fruit	4	4	[0, 0, 0]	n/a	catFR1	1	R1421M
755.397	0.916	976416	WORD_OFF	n/a	n/a	ORANGE	Fruit	4	4	[0, 0, 0]	n/a	catFR1	1	R1421M
756.313	1.6	977325	WORD	n/a	wordpools/wordpool_categorized_EN.txt	EVERGREEN	Trees	5	4	[0, 0, 0]	n/a	catFR1	1	R1421M
757.913	0.85	978924	WORD_OFF	n/a	n/a	EVERGREEN	Trees	5	4	[0, 0, 0]	n/a	catFR1	1	R1421M
758.763	1.617	979778	WORD	n/a	wordpools/wordpool_categorized_EN.txt	MAPLE	Trees	6	4	[0, 0, 0]	n/a	catFR1	1	R1421M
760.38	0.767	981390	WORD_OFF	n/a	n/a	MAPLE	Trees	6	4	[0, 0, 0]	n/a	catFR1	1	R1421M
761.147	1.616	982161	WORD	n/a	wordpools/wordpool_categorized_EN.txt	DOVE	Birds	7	4	[0, 0, 0]	n/a	catFR1	1	R1421M
762.763	0.933	983773	WORD_OFF	n/a	n/a	DOVE	Birds	7	4	[0, 0, 0]	n/a	catFR1	1	R1421M
763.696	1.617	984710	WORD	n/a	wordpools/wordpool_categorized_EN.txt	FINCH	Birds	8	4	[0, 0, 0]	n/a	catFR1	1	R1421M
765.313	0.85	986322	WORD_OFF	n/a	n/a	FINCH	Birds	8	4	[0, 0, 0]	n/a	catFR1	1	R1421M
766.163	1.6	987176	WORD	n/a	wordpools/wordpool_categorized_EN.txt	ELM	Trees	9	4	[0, 0, 0]	n/a	catFR1	1	R1421M
767.763	0.9	988775	WORD_OFF	n/a	n/a	ELM	Trees	9	4	[0, 0, 0]	n/a	catFR1	1	R1421M
768.663	1.6	989670	WORD	n/a	wordpools/wordpool_categorized_EN.txt	SPRUCE	Trees	10	4	[0, 0, 0]	n/a	catFR1	1	R1421M
770.263	0.933	991268	WORD_OFF	n/a	n/a	SPRUCE	Trees	10	4	[0, 0, 0]	n/a	catFR1	1	R1421M
771.196	1.6	992205	WORD	n/a	wordpools/wordpool_categorized_EN.txt	LEMON	Fruit	11	4	[0, 0, 0]	n/a	catFR1	1	R1421M
772.796	0.967	993804	WORD_OFF	n/a	n/a	LEMON	Fruit	11	4	[0, 0, 0]	n/a	catFR1	1	R1421M
773.763	1.618	994768	WORD	n/a	wordpools/wordpool_categorized_EN.txt	PEAR	Fruit	12	4	[0, 0, 0]	n/a	catFR1	1	R1421M
775.381	0.001	996391	PROB	5.683	n/a	n/a	n/a	-999	4	[3, 6, 7]	16.0	catFR1	1	R1421M
775.382	0.0	996392	START	n/a	n/a	n/a	n/a	-999	4	[-999, -999, -999]	n/a	catFR1	1	R1421M
775.38	0.001	996394	WORD_OFF	n/a	n/a	PEAR	Fruit	12	4	[0, 0, 0]	n/a	catFR1	1	R1421M
775.381	0.001	996394	ENCODING_END	n/a	n/a	n/a	n/a	-999	4	[0, 0, 0]	n/a	catFR1	1	R1421M
775.382	5.699	996394	DISTRACT_START	n/a	n/a	n/a	n/a	-999	4	[0, 0, 0]	n/a	catFR1	1	R1421M
781.081	5.217	1002091	PROB	5.2	n/a	n/a	n/a	-999	4	[8, 4, 8]	20.0	catFR1	1	R1421M
786.298	3.816	1007307	PROB	3.799	n/a	n/a	n/a	-999	4	[7, 6, 3]	16.0	catFR1	1	R1421M
790.114	8.333	1011123	PROB	8.317	n/a	n/a	n/a	-999	4	[4, 7, 8]	20.0	catFR1	1	R1421M
798.447	0.0	1019456	STOP	n/a	n/a	n/a	n/a	-999	4	[-999, -999, -999]	n/a	catFR1	1	R1421M
798.447	2.034	1019458	DISTRACT_END	n/a	n/a	n/a	n/a	-999	4	[0, 0, 0]	n/a	catFR1	1	R1421M
800.481	1.781	1021491	REC_START	n/a	n/a	n/a	n/a	-999	4	[0, 0, 0]	n/a	catFR1	1	R1421M
802.262	9.789	1023271	REC_WORD_VV	1.781	n/a	<>	n/a	-999	4	[0, 0, 0]	n/a	catFR1	1	R1421M
812.051	0.757	1033059	REC_WORD	11.57	n/a	TOOLS	n/a	-999	4	[0, 0, 0]	n/a	catFR1	1	R1421M
812.808	0.245	1033816	REC_WORD_VV	12.327	n/a	<>	n/a	-999	4	[0, 0, 0]	n/a	catFR1	1	R1421M
813.053	1.057	1034061	REC_WORD	12.572	n/a	STAPLER	OfficeSupplies	-999	4	[0, 0, 0]	n/a	catFR1	1	R1421M
814.11	3.273	1035118	REC_WORD	13.629	n/a	HAMMER	Tools	-999	4	[0, 0, 0]	n/a	catFR1	1	R1421M
817.383	3.0	1038391	REC_WORD_VV	16.902	n/a	<>	n/a	-999	4	[0, 0, 0]	n/a	catFR1	1	R1421M
820.383	4.548	1041391	REC_WORD	19.902	n/a	EVERGREEN	Trees	5	4	[0, 0, 0]	n/a	catFR1	1	R1421M
824.931	0.557	1045939	REC_WORD	24.45	n/a	EAGLE	n/a	-999	4	[0, 0, 0]	n/a	catFR1	1	R1421M
825.488	3.539	1046496	REC_WORD	25.007	n/a	PIGEON	Birds	-999	4	[0, 0, 0]	n/a	catFR1	1	R1421M
829.027	1.748	1050035	REC_WORD_VV	28.546	n/a	<>	n/a	-999	4	[0, 0, 0]	n/a	catFR1	1	R1421M
830.775	23.705	1051780	REC_END	n/a	n/a	n/a	n/a	-999	4	[0, 0, 0]	n/a	catFR1	1	R1421M
854.48	10.351	1075492	COUNTDOWN_START	n/a	n/a	n/a	n/a	-999	5	[0, 0, 0]	n/a	catFR1	1	R1421M
864.831	0.0	1085839	COUNTDOWN_END	n/a	n/a	n/a	n/a	-999	5	[0, 0, 0]	n/a	catFR1	1	R1421M
864.831	2.232	1085839	ENCODING_START	n/a	n/a	n/a	n/a	-999	5	[0, 0, 0]	n/a	catFR1	1	R1421M
867.063	1.6	1088071	WORD	n/a	wordpools/wordpool_categorized_EN.txt	CIDER	Beverages	1	5	[0, 0, 0]	n/a	catFR1	1	R1421M
868.663	0.95	1089669	WORD_OFF	n/a	n/a	CIDER	Beverages	1	5	[0, 0, 0]	n/a	catFR1	1	R1421M
869.613	1.617	1090620	WORD	n/a	wordpools/wordpool_categorized_EN.txt	SODA	Beverages	2	5	[0, 0, 0]	n/a	catFR1	1	R1421M
871.23	0.85	1092232	WORD_OFF	n/a	n/a	SODA	Beverages	2	5	[0, 0, 0]	n/a	catFR1	1	R1421M
872.08	1.6	1093086	WORD	n/a	wordpools/wordpool_categorized_EN.txt	OAK	Trees	3	5	[0, 0, 0]	n/a	catFR1	1	R1421M
873.68	0.916	1094684	WORD_OFF	n/a	n/a	OAK	Trees	3	5	[0, 0, 0]	n/a	catFR1	1	R1421M
874.596	1.601	1095607	WORD	n/a	wordpools/wordpool_categorized_EN.txt	CYPRESS	Trees	4	5	[0, 0, 0]	n/a	catFR1	1	R1421M
876.197	0.916	1097206	WORD_OFF	n/a	n/a	CYPRESS	Trees	4	5	[0, 0, 0]	n/a	catFR1	1	R1421M
877.113	1.617	1098115	WORD	n/a	wordpools/wordpool_categorized_EN.txt	GRATER	KitchenTools	5	5	[0, 0, 0]	n/a	catFR1	1	R1421M
878.73	0.833	1099741	WORD_OFF	n/a	n/a	GRATER	KitchenTools	5	5	[0, 0, 0]	n/a	catFR1	1	R1421M
879.563	1.6	1100567	WORD	n/a	wordpools/wordpool_categorized_EN.txt	STRAINER	KitchenTools	6	5	[0, 0, 0]	n/a	catFR1	1	R1421M
881.163	0.867	1102166	WORD_OFF	n/a	n/a	STRAINER	KitchenTools	6	5	[0, 0, 0]	n/a	catFR1	1	R1421M
882.03	1.6	1103034	WORD	n/a	wordpools/wordpool_categorized_EN.txt	RUM	Beverages	7	5	[0, 0, 0]	n/a	catFR1	1	R1421M
883.63	0.784	1104632	WORD_OFF	n/a	n/a	RUM	Beverages	7	5	[0, 0, 0]	n/a	catFR1	1	R1421M
884.414	1.6	1105417	WORD	n/a	wordpools/wordpool_categorized_EN.txt	JUICE	Beverages	8	5	[0, 0, 0]	n/a	catFR1	1	R1421M
886.014	0.85	1107015	WORD_OFF	n/a	n/a	JUICE	Beverages	8	5	[0, 0, 0]	n/a	catFR1	1	R1421M
886.864	1.601	1107870	WORD	n/a	wordpools/wordpool_categorized_EN.txt	BIRCH	Trees	9	5	[0, 0, 0]	n/a	catFR1	1	R1421M
888.465	0.984	1109468	WORD_OFF	n/a	n/a	BIRCH	Trees	9	5	[0, 0, 0]	n/a	catFR1	1	R1421M
889.449	1.616	1110460	WORD	n/a	wordpools/wordpool_categorized_EN.txt	CEDAR	Trees	10	5	[0, 0, 0]	n/a	catFR1	1	R1421M
891.065	0.9	1112072	WORD_OFF	n/a	n/a	CEDAR	Trees	10	5	[0, 0, 0]	n/a	catFR1	1	R1421M
891.965	1.615	1112967	WORD	n/a	wordpools/wordpool_categorized_EN.txt	LADLE	KitchenTools	11	5	[0, 0, 0]	n/a	catFR1	1	R1421M
893.58	0.867	1114579	WORD_OFF	n/a	n/a	LADLE	KitchenTools	11	5	[0, 0, 0]	n/a	catFR1	1	R1421M
894.447	1.601	1115447	WORD	n/a	wordpools/wordpool_categorized_EN.txt	SPOON	KitchenTools	12	5	[0, 0, 0]	n/a	catFR1	1	R1421M
896.048	0.001	1117052	PROB	6.583	n/a	n/a	n/a	-999	5	[8, 7, 4]	19.0	catFR1	1	R1421M
896.049	0.0	1117053	START	n/a	n/a	n/a	n/a	-999	5	[-999, -999, -999]	n/a	catFR1	1	R1421M
896.047	0.002	1117059	WORD_OFF	n/a	n/a	SPOON	KitchenTools	12	5	[0, 0, 0]	n/a	catFR1	1	R1421M
896.049	0.0	1117059	ENCODING_END	n/a	n/a	n/a	n/a	-999	5	[0, 0, 0]	n/a	catFR1	1	R1421M
896.049	6.6	1117059	DISTRACT_START	n/a	n/a	n/a	n/a	-999	5	[0, 0, 0]	n/a	catFR1	1	R1421M
902.649	2.815	1123653	PROB	2.8	n/a	n/a	n/a	-999	5	[3, 7, 2]	12.0	catFR1	1	R1421M
905.464	2.85	1126468	PROB	2.833	n/a	n/a	n/a	-999	5	[5, 5, 4]	14.0	catFR1	1	R1421M
908.314	3.001	1129318	PROB	2.982	n/a	n/a	n/a	-999	5	[2, 7, 5]	14.0	catFR1	1	R1421M
911.315	7.949	1132319	PROB	7.932	n/a	n/a	n/a	-999	5	[8, 6, 5]	19.0	catFR1	1	R1421M
919.264	0.0	1140261	DISTRACT_END	n/a	n/a	n/a	n/a	-999	5	[0, 0, 0]	n/a	catFR1	1	R1421M
919.264	2.233	1140267	STOP	n/a	n/a	n/a	n/a	-999	5	[-999, -999, -999]	n/a	catFR1	1	R1421M
921.497	1.544	1142501	REC_START	n/a	n/a	n/a	n/a	-999	5	[0, 0, 0]	n/a	catFR1	1	R1421M
923.041	3.777	1144044	REC_WORD_VV	1.544	n/a	<>	n/a	-999	5	[0, 0, 0]	n/a	catFR1	1	R1421M
926.818	1.333	1147821	REC_WORD	5.321	n/a	CIDER	Beverages	1	5	[0, 0, 0]	n/a	catFR1	1	R1421M
928.151	5.923	1149154	REC_WORD	6.654	n/a	SODA	Beverages	2	5	[0, 0, 0]	n/a	catFR1	1	R1421M
934.074	12.497	1155077	REC_WORD	12.577	n/a	PEAR	Fruit	-999	5	[0, 0, 0]	n/a	catFR1	1	R1421M
946.571	5.209	1167573	REC_WORD	25.074	n/a	GOOSE	Birds	-999	5	[0, 0, 0]	n/a	catFR1	1	R1421M
951.78	46.816	1172777	REC_END	n/a	n/a	n/a	n/a	-999	5	[0, 0, 0]	n/a	catFR1	1	R1421M
998.596	10.352	1219594	COUNTDOWN_START	n/a	n/a	n/a	n/a	-999	6	[0, 0, 0]	n/a	catFR1	1	R1421M
1008.948	0.0	1229954	COUNTDOWN_END	n/a	n/a	n/a	n/a	-999	6	[0, 0, 0]	n/a	catFR1	1	R1421M
1008.948	2.199	1229954	ENCODING_START	n/a	n/a	n/a	n/a	-999	6	[0, 0, 0]	n/a	catFR1	1	R1421M
1011.147	1.617	1232145	WORD	n/a	wordpools/wordpool_categorized_EN.txt	BASEBALL	Toys	1	6	[0, 0, 0]	n/a	catFR1	1	R1421M
1012.764	0.917	1233757	WORD_OFF	n/a	n/a	BASEBALL	Toys	1	6	[0, 0, 0]	n/a	catFR1	1	R1421M
1013.681	1.6	1234680	WORD	n/a	wordpools/wordpool_categorized_EN.txt	BALL	Toys	2	6	[0, 0, 0]	n/a	catFR1	1	R1421M
1015.281	0.966	1236278	WORD_OFF	n/a	n/a	BALL	Toys	2	6	[0, 0, 0]	n/a	catFR1	1	R1421M
1016.247	1.6	1237243	WORD	n/a	wordpools/wordpool_categorized_EN.txt	TUBA	Instruments	3	6	[0, 0, 0]	n/a	catFR1	1	R1421M
1017.847	0.95	1238841	WORD_OFF	n/a	n/a	TUBA	Instruments	3	6	[0, 0, 0]	n/a	catFR1	1	R1421M
1018.797	1.617	1239792	WORD	n/a	wordpools/wordpool_categorized_EN.txt	TRUMPET	Instruments	4	6	[0, 0, 0]	n/a	catFR1	1	R1421M
1020.414	0.767	1241418	WORD_OFF	n/a	n/a	TRUMPET	Instruments	4	6	[0, 0, 0]	n/a	catFR1	1	R1421M
1021.181	1.6	1242175	WORD	n/a	wordpools/wordpool_categorized_EN.txt	BULL	FarmAnimals	5	6	[0, 0, 0]	n/a	catFR1	1	R1421M
1022.781	0.966	1243774	WORD_OFF	n/a	n/a	BULL	FarmAnimals	5	6	[0, 0, 0]	n/a	catFR1	1	R1421M
1023.747	1.617	1244752	WORD	n/a	wordpools/wordpool_categorized_EN.txt	HEN	FarmAnimals	6	6	[0, 0, 0]	n/a	catFR1	1	R1421M
1025.364	0.95	1246364	WORD_OFF	n/a	n/a	HEN	FarmAnimals	6	6	[0, 0, 0]	n/a	catFR1	1	R1421M
1026.314	1.6	1247314	WORD	n/a	wordpools/wordpool_categorized_EN.txt	DRUM	Instruments	7	6	[0, 0, 0]	n/a	catFR1	1	R1421M
1027.914	0.95	1248913	WORD_OFF	n/a	n/a	DRUM	Instruments	7	6	[0, 0, 0]	n/a	catFR1	1	R1421M
1028.864	1.616	1249863	WORD	n/a	wordpools/wordpool_categorized_EN.txt	FLUTE	Instruments	8	6	[0, 0, 0]	n/a	catFR1	1	R1421M
1030.48	0.967	1251475	WORD_OFF	n/a	n/a	FLUTE	Instruments	8	6	[0, 0, 0]	n/a	catFR1	1	R1421M
1031.447	1.6	1252454	WORD	n/a	wordpools/wordpool_categorized_EN.txt	SLINKY	Toys	9	6	[0, 0, 0]	n/a	catFR1	1	R1421M
1033.047	0.8	1254052	WORD_OFF	n/a	n/a	SLINKY	Toys	9	6	[0, 0, 0]	n/a	catFR1	1	R1421M
1033.847	1.6	1254851	WORD	n/a	wordpools/wordpool_categorized_EN.txt	DOLLHOUSE	Toys	10	6	[0, 0, 0]	n/a	catFR1	1	R1421M
1035.447	0.867	1256449	WORD_OFF	n/a	n/a	DOLLHOUSE	Toys	10	6	[0, 0, 0]	n/a	catFR1	1	R1421M
1036.314	1.616	1257317	WORD	n/a	wordpools/wordpool_categorized_EN.txt	ROOSTER	FarmAnimals	11	6	[0, 0, 0]	n/a	catFR1	1	R1421M
1037.93	0.967	1258929	WORD_OFF	n/a	n/a	ROOSTER	FarmAnimals	11	6	[0, 0, 0]	n/a	catFR1	1	R1421M
1038.897	1.618	1259894	WORD	n/a	wordpools/wordpool_categorized_EN.txt	GOAT	FarmAnimals	12	6	[0, 0, 0]	n/a	catFR1	1	R1421M
1040.515	0.001	1261513	PROB	4.915	n/a	n/a	n/a	-999	6	[5, 6, 2]	13.0	catFR1	1	R1421M
1040.516	0.0	1261514	START	n/a	n/a	n/a	n/a	-999	6	[-999, -999, -999]	n/a	catFR1	1	R1421M
1040.514	0.002	1261519	WORD_OFF	n/a	n/a	GOAT	FarmAnimals	12	6	[0, 0, 0]	n/a	catFR1	1	R1421M
1040.516	0.0	1261519	ENCODING_END	n/a	n/a	n/a	n/a	-999	6	[0, 0, 0]	n/a	catFR1	1	R1421M
1040.516	4.932	1261519	DISTRACT_START	n/a	n/a	n/a	n/a	-999	6	[0, 0, 0]	n/a	catFR1	1	R1421M
1045.448	15.916	1266445	PROB	15.899	n/a	n/a	n/a	-999	6	[5, 1, 2]	8.0	catFR1	1	R1421M
1061.364	0.0	1282361	STOP	n/a	n/a	n/a	n/a	-999	6	[-999, -999, -999]	n/a	catFR1	1	R1421M
1061.364	2.066	1282365	DISTRACT_END	n/a	n/a	n/a	n/a	-999	6	[0, 0, 0]	n/a	catFR1	1	R1421M
1063.43	0.94	1284426	REC_START	n/a	n/a	n/a	n/a	-999	6	[0, 0, 0]	n/a	catFR1	1	R1421M
1064.37	3.217	1285367	REC_WORD_VV	0.94	n/a	<>	n/a	-999	6	[0, 0, 0]	n/a	catFR1	1	R1421M
1067.587	0.489	1288583	REC_WORD	4.157	n/a	PENCIL	OfficeSupplies	-999	6	[0, 0, 0]	n/a	catFR1	1	R1421M
1068.076	4.111	1289072	REC_WORD	4.646	n/a	PEN	OfficeSupplies	-999	6	[0, 0, 0]	n/a	catFR1	1	R1421M
1072.187	2.506	1293183	REC_WORD	8.757	n/a	ROB	n/a	-999	6	[0, 0, 0]	n/a	catFR1	1	R1421M
1074.693	5.119	1295689	REC_WORD	11.263	n/a	SHOES	n/a	-999	6	[0, 0, 0]	n/a	catFR1	1	R1421M
1079.812	5.861	1300808	REC_WORD_VV	16.382	n/a	<>	n/a	-999	6	[0, 0, 0]	n/a	catFR1	1	R1421M
1085.673	1.97	1306669	REC_WORD	22.243	n/a	CIDER	Beverages	-999	6	[0, 0, 0]	n/a	catFR1	1	R1421M
1087.643	5.537	1308639	REC_WORD_VV	24.213	n/a	<>	n/a	-999	6	[0, 0, 0]	n/a	catFR1	1	R1421M
1093.18	0.512	1314175	REC_WORD	29.75	n/a	ELM	Trees	-999	6	[0, 0, 0]	n/a	catFR1	1	R1421M
1093.692	14.655	1314688	REC_END	n/a	n/a	n/a	n/a	-999	6	[0, 0, 0]	n/a	catFR1	1	R1421M
1108.347	10.351	1329347	COUNTDOWN_START	n/a	n/a	n/a	n/a	-999	7	[0, 0, 0]	n/a	catFR1	1	R1421M
1118.698	0.0	1339694	COUNTDOWN_END	n/a	n/a	n/a	n/a	-999	7	[0, 0, 0]	n/a	catFR1	1	R1421M
1118.698	2.282	1339694	ENCODING_START	n/a	n/a	n/a	n/a	-999	7	[0, 0, 0]	n/a	catFR1	1	R1421M
1120.98	1.601	1341981	WORD	n/a	wordpools/wordpool_categorized_EN.txt	CROW	Birds	1	7	[0, 0, 0]	n/a	catFR1	1	R1421M
1122.581	0.8	1343580	WORD_OFF	n/a	n/a	CROW	Birds	1	7	[0, 0, 0]	n/a	catFR1	1	R1421M
1123.381	1.6	1344379	WORD	n/a	wordpools/wordpool_categorized_EN.txt	SEAGULL	Birds	2	7	[0, 0, 0]	n/a	catFR1	1	R1421M
1124.981	0.85	1345977	WORD_OFF	n/a	n/a	SEAGULL	Birds	2	7	[0, 0, 0]	n/a	catFR1	1	R1421M
1125.831	1.616	1346831	WORD	n/a	wordpools/wordpool_categorized_EN.txt	KNIFE	KitchenTools	3	7	[0, 0, 0]	n/a	catFR1	1	R1421M
1127.447	0.883	1348443	WORD_OFF	n/a	n/a	KNIFE	KitchenTools	3	7	[0, 0, 0]	n/a	catFR1	1	R1421M
1128.33	1.601	1349325	WORD	n/a	wordpools/wordpool_categorized_EN.txt	TONGS	KitchenTools	4	7	[0, 0, 0]	n/a	catFR1	1	R1421M
1129.931	0.883	1350923	WORD_OFF	n/a	n/a	TONGS	KitchenTools	4	7	[0, 0, 0]	n/a	catFR1	1	R1421M
1130.814	1.6	1351805	WORD	n/a	wordpools/wordpool_categorized_EN.txt	BLOCKS	Toys	5	7	[0, 0, 0]	n/a	catFR1	1	R1421M
1132.414	0.883	1353403	WORD_OFF	n/a	n/a	BLOCKS	Toys	5	7	[0, 0, 0]	n/a	catFR1	1	R1421M
1133.297	1.6	1354285	WORD	n/a	wordpools/wordpool_categorized_EN.txt	FRISBEE	Toys	6	7	[0, 0, 0]	n/a	catFR1	1	R1421M
1134.897	0.817	1355897	WORD_OFF	n/a	n/a	FRISBEE	Toys	6	7	[0, 0, 0]	n/a	catFR1	1	R1421M
1135.714	1.6	1356710	WORD	n/a	wordpools/wordpool_categorized_EN.txt	SPARROW	Birds	7	7	[0, 0, 0]	n/a	catFR1	1	R1421M
1137.314	0.85	1358308	WORD_OFF	n/a	n/a	SPARROW	Birds	7	7	[0, 0, 0]	n/a	catFR1	1	R1421M
1138.164	1.617	1359162	WORD	n/a	wordpools/wordpool_categorized_EN.txt	CARDINAL	Birds	8	7	[0, 0, 0]	n/a	catFR1	1	R1421M
1139.781	0.783	1360774	WORD_OFF	n/a	n/a	CARDINAL	Birds	8	7	[0, 0, 0]	n/a	catFR1	1	R1421M
1140.564	1.6	1361560	WORD	n/a	wordpools/wordpool_categorized_EN.txt	CORKSCREW	KitchenTools	9	7	[0, 0, 0]	n/a	catFR1	1	R1421M
1142.164	0.782	1363158	WORD_OFF	n/a	n/a	CORKSCREW	KitchenTools	9	7	[0, 0, 0]	n/a	catFR1	1	R1421M
1142.946	1.601	1363943	WORD	n/a	wordpools/wordpool_categorized_EN.txt	SPATULA	KitchenTools	10	7	[0, 0, 0]	n/a	catFR1	1	R1421M
1144.547	0.884	1365541	WORD_OFF	n/a	n/a	SPATULA	KitchenTools	10	7	[0, 0, 0]	n/a	catFR1	1	R1421M
1145.431	1.6	1366423	WORD	n/a	wordpools/wordpool_categorized_EN.txt	PUZZLE	Toys	11	7	[0, 0, 0]	n/a	catFR1	1	R1421M
1147.031	0.8	1368021	WORD_OFF	n/a	n/a	PUZZLE	Toys	11	7	[0, 0, 0]	n/a	catFR1	1	R1421M
1147.831	1.617	1368821	WORD	n/a	wordpools/wordpool_categorized_EN.txt	MARBLES	Toys	12	7	[0, 0, 0]	n/a	catFR1	1	R1421M
1149.448	0.0	1370441	START	n/a	n/a	n/a	n/a	-999	7	[-999, -999, -999]	n/a	catFR1	1	R1421M
1149.448	0.0	1370441	PROB	8.616	n/a	n/a	n/a	-999	7	[3, 4, 4]	11.0	catFR1	1	R1421M
1149.447	0.001	1370446	WORD_OFF	n/a	n/a	MARBLES	Toys	12	7	[0, 0, 0]	n/a	catFR1	1	R1421M
1149.448	0.0	1370446	ENCODING_END	n/a	n/a	n/a	n/a	-999	7	[0, 0, 0]	n/a	catFR1	1	R1421M
1149.448	8.632	1370446	DISTRACT_START	n/a	n/a	n/a	n/a	-999	7	[0, 0, 0]	n/a	catFR1	1	R1421M
1158.08	5.167	1379072	PROB	5.15	n/a	n/a	n/a	-999	7	[6, 2, 2]	10.0	catFR1	1	R1421M
1163.247	3.417	1384239	PROB	3.4	n/a	n/a	n/a	-999	7	[4, 4, 2]	10.0	catFR1	1	R1421M
1166.664	2.983	1387656	PROB	2.966	n/a	n/a	n/a	-999	7	[5, 3, 6]	14.0	catFR1	1	R1421M
1169.647	0.0	1390639	STOP	n/a	n/a	n/a	n/a	-999	7	[-999, -999, -999]	n/a	catFR1	1	R1421M
1169.647	2.083	1390644	DISTRACT_END	n/a	n/a	n/a	n/a	-999	7	[0, 0, 0]	n/a	catFR1	1	R1421M
1171.73	1.225	1392719	REC_START	n/a	n/a	n/a	n/a	-999	7	[0, 0, 0]	n/a	catFR1	1	R1421M
1172.955	3.572	1393947	REC_WORD_VV	1.225	n/a	<>	n/a	-999	7	[0, 0, 0]	n/a	catFR1	1	R1421M
1176.527	1.966	1397518	REC_WORD	4.797	n/a	SPATULA	KitchenTools	10	7	[0, 0, 0]	n/a	catFR1	1	R1421M
1178.493	7.717	1399484	REC_WORD	6.763	n/a	TONGS	KitchenTools	4	7	[0, 0, 0]	n/a	catFR1	1	R1421M
1186.21	5.594	1407201	REC_WORD	14.48	n/a	CROW	Birds	1	7	[0, 0, 0]	n/a	catFR1	1	R1421M
1191.804	10.196	1412795	REC_WORD	20.074	n/a	FRISBEE	Toys	6	7	[0, 0, 0]	n/a	catFR1	1	R1421M
1202.0	39.414	1422995	REC_END	n/a	n/a	n/a	n/a	-999	7	[0, 0, 0]	n/a	catFR1	1	R1421M
1241.414	10.35	1462399	COUNTDOWN_START	n/a	n/a	n/a	n/a	-999	8	[0, 0, 0]	n/a	catFR1	1	R1421M
1251.764	0.0	1472746	COUNTDOWN_END	n/a	n/a	n/a	n/a	-999	8	[0, 0, 0]	n/a	catFR1	1	R1421M
1251.764	2.25	1472760	ENCODING_START	n/a	n/a	n/a	n/a	-999	8	[0, 0, 0]	n/a	catFR1	1	R1421M
1254.014	1.6	1475006	WORD	n/a	wordpools/wordpool_categorized_EN.txt	PIG	FarmAnimals	1	8	[0, 0, 0]	n/a	catFR1	1	R1421M
1255.614	0.799	1476604	WORD_OFF	n/a	n/a	PIG	FarmAnimals	1	8	[0, 0, 0]	n/a	catFR1	1	R1421M
1256.413	1.617	1477403	WORD	n/a	wordpools/wordpool_categorized_EN.txt	HORSE	FarmAnimals	2	8	[0, 0, 0]	n/a	catFR1	1	R1421M
1258.03	0.867	1479015	WORD_OFF	n/a	n/a	HORSE	FarmAnimals	2	8	[0, 0, 0]	n/a	catFR1	1	R1421M
1258.897	1.6	1479883	WORD	n/a	wordpools/wordpool_categorized_EN.txt	FORK	KitchenTools	3	8	[0, 0, 0]	n/a	catFR1	1	R1421M
1260.497	0.817	1481481	WORD_OFF	n/a	n/a	FORK	KitchenTools	3	8	[0, 0, 0]	n/a	catFR1	1	R1421M
1261.314	1.616	1482308	WORD	n/a	wordpools/wordpool_categorized_EN.txt	PEELER	KitchenTools	4	8	[0, 0, 0]	n/a	catFR1	1	R1421M
1262.93	0.784	1483920	WORD_OFF	n/a	n/a	PEELER	KitchenTools	4	8	[0, 0, 0]	n/a	catFR1	1	R1421M
1263.714	1.616	1484705	WORD	n/a	wordpools/wordpool_categorized_EN.txt	CELLO	Instruments	5	8	[0, 0, 0]	n/a	catFR1	1	R1421M
1265.33	0.967	1486317	WORD_OFF	n/a	n/a	CELLO	Instruments	5	8	[0, 0, 0]	n/a	catFR1	1	R1421M
1266.297	1.6	1487282	WORD	n/a	wordpools/wordpool_categorized_EN.txt	PIANO	Instruments	6	8	[0, 0, 0]	n/a	catFR1	1	R1421M
1267.897	0.883	1488880	WORD_OFF	n/a	n/a	PIANO	Instruments	6	8	[0, 0, 0]	n/a	catFR1	1	R1421M
1268.78	1.6	1489762	WORD	n/a	wordpools/wordpool_categorized_EN.txt	COW	FarmAnimals	7	8	[0, 0, 0]	n/a	catFR1	1	R1421M
1270.38	0.917	1491374	WORD_OFF	n/a	n/a	COW	FarmAnimals	7	8	[0, 0, 0]	n/a	catFR1	1	R1421M
1271.297	1.6	1492283	WORD	n/a	wordpools/wordpool_categorized_EN.txt	CHICKEN	FarmAnimals	8	8	[0, 0, 0]	n/a	catFR1	1	R1421M
1272.897	0.834	1493881	WORD_OFF	n/a	n/a	CHICKEN	FarmAnimals	8	8	[0, 0, 0]	n/a	catFR1	1	R1421M
1273.731	1.599	1494722	WORD	n/a	wordpools/wordpool_categorized_EN.txt	BASS	Instruments	9	8	[0, 0, 0]	n/a	catFR1	1	R1421M
1275.33	0.867	1496320	WORD_OFF	n/a	n/a	BASS	Instruments	9	8	[0, 0, 0]	n/a	catFR1	1	R1421M
1276.197	1.6	1497188	WORD	n/a	wordpools/wordpool_categorized_EN.txt	VIOLIN	Instruments	10	8	[0, 0, 0]	n/a	catFR1	1	R1421M
1277.797	0.95	1498786	WORD_OFF	n/a	n/a	VIOLIN	Instruments	10	8	[0, 0, 0]	n/a	catFR1	1	R1421M
1278.747	1.616	1499737	WORD	n/a	wordpools/wordpool_categorized_EN.txt	WHISK	KitchenTools	11	8	[0, 0, 0]	n/a	catFR1	1	R1421M
1280.363	0.817	1501349	WORD_OFF	n/a	n/a	WHISK	KitchenTools	11	8	[0, 0, 0]	n/a	catFR1	1	R1421M
1281.18	1.601	1502162	WORD	n/a	wordpools/wordpool_categorized_EN.txt	COLANDER	KitchenTools	12	8	[0, 0, 0]	n/a	catFR1	1	R1421M
1282.781	0.001	1503767	PROB	6.766	n/a	n/a	n/a	-999	8	[5, 3, 2]	10.0	catFR1	1	R1421M
1282.782	0.0	1503768	START	n/a	n/a	n/a	n/a	-999	8	[-999, -999, -999]	n/a	catFR1	1	R1421M
1282.78	0.002	1503774	WORD_OFF	n/a	n/a	COLANDER	KitchenTools	12	8	[0, 0, 0]	n/a	catFR1	1	R1421M
1282.782	0.0	1503774	ENCODING_END	n/a	n/a	n/a	n/a	-999	8	[0, 0, 0]	n/a	catFR1	1	R1421M
1282.782	6.782	1503774	DISTRACT_START	n/a	n/a	n/a	n/a	-999	8	[0, 0, 0]	n/a	catFR1	1	R1421M
1289.564	4.4	1510550	PROB	4.383	n/a	n/a	n/a	-999	8	[1, 8, 1]	10.0	catFR1	1	R1421M
1293.964	3.884	1514950	PROB	3.867	n/a	n/a	n/a	-999	8	[1, 5, 2]	8.0	catFR1	1	R1421M
1297.848	6.799	1518834	PROB	6.782	n/a	n/a	n/a	-999	8	[5, 7, 3]	15.0	catFR1	1	R1421M
1304.647	0.0	1525632	STOP	n/a	n/a	n/a	n/a	-999	8	[-999, -999, -999]	n/a	catFR1	1	R1421M
1304.647	2.2	1525639	DISTRACT_END	n/a	n/a	n/a	n/a	-999	8	[0, 0, 0]	n/a	catFR1	1	R1421M
1306.847	2.284	1527838	REC_START	n/a	n/a	n/a	n/a	-999	8	[0, 0, 0]	n/a	catFR1	1	R1421M
1309.131	0.81	1530116	REC_WORD	2.284	n/a	PIG	FarmAnimals	1	8	[0, 0, 0]	n/a	catFR1	1	R1421M
1309.941	1.431	1530926	REC_WORD	3.094	n/a	COW	FarmAnimals	7	8	[0, 0, 0]	n/a	catFR1	1	R1421M
1311.372	2.534	1532357	REC_WORD	4.525	n/a	CHICKEN	FarmAnimals	8	8	[0, 0, 0]	n/a	catFR1	1	R1421M
1313.906	8.484	1534891	REC_WORD	7.059	n/a	HORSE	FarmAnimals	2	8	[0, 0, 0]	n/a	catFR1	1	R1421M
1322.39	0.745	1543375	REC_WORD	15.543	n/a	VIOLET	Flowers	-999	8	[0, 0, 0]	n/a	catFR1	1	R1421M
1323.135	6.485	1544120	REC_WORD	16.288	n/a	CEDAR	Trees	-999	8	[0, 0, 0]	n/a	catFR1	1	R1421M
1329.62	0.387	1550604	REC_WORD	22.773	n/a	ELM	Trees	-999	8	[0, 0, 0]	n/a	catFR1	1	R1421M
1330.007	7.11	1550991	REC_WORD	23.16	n/a	MAPLE	Trees	-999	8	[0, 0, 0]	n/a	catFR1	1	R1421M
1337.117	11.33	1558099	REC_END	n/a	n/a	n/a	n/a	-999	8	[0, 0, 0]	n/a	catFR1	1	R1421M
1348.447	10.351	1569439	COUNTDOWN_START	n/a	n/a	n/a	n/a	-999	9	[0, 0, 0]	n/a	catFR1	1	R1421M
1358.798	0.0	1579786	COUNTDOWN_END	n/a	n/a	n/a	n/a	-999	9	[0, 0, 0]	n/a	catFR1	1	R1421M
1358.798	2.066	1579786	ENCODING_START	n/a	n/a	n/a	n/a	-999	9	[0, 0, 0]	n/a	catFR1	1	R1421M
1360.864	1.617	1581852	WORD	n/a	wordpools/wordpool_categorized_EN.txt	COLA	Beverages	1	9	[0, 0, 0]	n/a	catFR1	1	R1421M
1362.481	0.766	1583464	WORD_OFF	n/a	n/a	COLA	Beverages	1	9	[0, 0, 0]	n/a	catFR1	1	R1421M
1363.247	1.6	1584236	WORD	n/a	wordpools/wordpool_categorized_EN.txt	WINE	Beverages	2	9	[0, 0, 0]	n/a	catFR1	1	R1421M
1364.847	0.983	1585834	WORD_OFF	n/a	n/a	WINE	Beverages	2	9	[0, 0, 0]	n/a	catFR1	1	R1421M
1365.83	1.6	1586812	WORD	n/a	wordpools/wordpool_categorized_EN.txt	ERASER	OfficeSupplies	3	9	[0, 0, 0]	n/a	catFR1	1	R1421M
1367.43	0.867	1588411	WORD_OFF	n/a	n/a	ERASER	OfficeSupplies	3	9	[0, 0, 0]	n/a	catFR1	1	R1421M
1368.297	1.616	1589279	WORD	n/a	wordpools/wordpool_categorized_EN.txt	RULER	OfficeSupplies	4	9	[0, 0, 0]	n/a	catFR1	1	R1421M
1369.913	0.867	1590891	WORD_OFF	n/a	n/a	RULER	OfficeSupplies	4	9	[0, 0, 0]	n/a	catFR1	1	R1421M
1370.78	1.617	1591759	WORD	n/a	wordpools/wordpool_categorized_EN.txt	EYE	BodyParts	5	9	[0, 0, 0]	n/a	catFR1	1	R1421M
1372.397	0.95	1593384	WORD_OFF	n/a	n/a	EYE	BodyParts	5	9	[0, 0, 0]	n/a	catFR1	1	R1421M
1373.347	1.616	1594335	WORD	n/a	wordpools/wordpool_categorized_EN.txt	HAND	BodyParts	6	9	[0, 0, 0]	n/a	catFR1	1	R1421M
1374.963	0.917	1595947	WORD_OFF	n/a	n/a	HAND	BodyParts	6	9	[0, 0, 0]	n/a	catFR1	1	R1421M
1375.88	1.6	1596856	WORD	n/a	wordpools/wordpool_categorized_EN.txt	MARKER	OfficeSupplies	7	9	[0, 0, 0]	n/a	catFR1	1	R1421M
1377.48	0.783	1598468	WORD_OFF	n/a	n/a	MARKER	OfficeSupplies	7	9	[0, 0, 0]	n/a	catFR1	1	R1421M
1378.263	1.6	1599240	WORD	n/a	wordpools/wordpool_categorized_EN.txt	NOTEBOOK	OfficeSupplies	8	9	[0, 0, 0]	n/a	catFR1	1	R1421M
1379.863	0.817	1600852	WORD_OFF	n/a	n/a	NOTEBOOK	OfficeSupplies	8	9	[0, 0, 0]	n/a	catFR1	1	R1421M
1380.68	1.6	1601665	WORD	n/a	wordpools/wordpool_categorized_EN.txt	EAR	BodyParts	9	9	[0, 0, 0]	n/a	catFR1	1	R1421M
1382.28	0.95	1603263	WORD_OFF	n/a	n/a	EAR	BodyParts	9	9	[0, 0, 0]	n/a	catFR1	1	R1421M
1383.23	1.6	1604214	WORD	n/a	wordpools/wordpool_categorized_EN.txt	FINGERS	BodyParts	10	9	[0, 0, 0]	n/a	catFR1	1	R1421M
1384.83	0.95	1605812	WORD_OFF	n/a	n/a	FINGERS	BodyParts	10	9	[0, 0, 0]	n/a	catFR1	1	R1421M
1385.78	1.616	1606763	WORD	n/a	wordpools/wordpool_categorized_EN.txt	LEMONADE	Beverages	11	9	[0, 0, 0]	n/a	catFR1	1	R1421M
1387.396	1.0	1608375	WORD_OFF	n/a	n/a	LEMONADE	Beverages	11	9	[0, 0, 0]	n/a	catFR1	1	R1421M
1388.396	1.617	1609380	WORD	n/a	wordpools/wordpool_categorized_EN.txt	WATER	Beverages	12	9	[0, 0, 0]	n/a	catFR1	1	R1421M
1390.013	0.0	1610992	WORD_OFF	n/a	n/a	WATER	Beverages	12	9	[0, 0, 0]	n/a	catFR1	1	R1421M
1390.013	0.008	1610994	PROB	6.233	n/a	n/a	n/a	-999	9	[7, 4, 5]	16.0	catFR1	1	R1421M
1390.021	0.0	1611002	START	n/a	n/a	n/a	n/a	-999	9	[-999, -999, -999]	n/a	catFR1	1	R1421M
1390.021	0.0	1611006	ENCODING_END	n/a	n/a	n/a	n/a	-999	9	[0, 0, 0]	n/a	catFR1	1	R1421M
1390.021	6.243	1611006	DISTRACT_START	n/a	n/a	n/a	n/a	-999	9	[0, 0, 0]	n/a	catFR1	1	R1421M
1396.264	5.634	1617245	PROB	5.617	n/a	n/a	n/a	-999	9	[5, 8, 6]	20.0	catFR1	1	R1421M
1401.898	4.001	1622879	PROB	3.984	n/a	n/a	n/a	-999	9	[4, 1, 7]	12.0	catFR1	1	R1421M
1405.899	12.314	1626880	PROB	12.298	n/a	n/a	n/a	-999	9	[2, 5, 3]	19.0	catFR1	1	R1421M
1418.213	0.0	1639193	STOP	n/a	n/a	n/a	n/a	-999	9	[-999, -999, -999]	n/a	catFR1	1	R1421M
1418.213	2.084	1639195	DISTRACT_END	n/a	n/a	n/a	n/a	-999	9	[0, 0, 0]	n/a	catFR1	1	R1421M
1420.297	2.15	1641284	REC_START	n/a	n/a	n/a	n/a	-999	9	[0, 0, 0]	n/a	catFR1	1	R1421M
1422.447	1.815	1643427	REC_WORD_VV	2.15	n/a	<>	n/a	-999	9	[0, 0, 0]	n/a	catFR1	1	R1421M
1424.262	1.679	1645242	REC_WORD_VV	3.965	n/a	<>	n/a	-999	9	[0, 0, 0]	n/a	catFR1	1	R1421M
1425.941	2.451	1646921	REC_WORD_VV	5.644	n/a	<>	n/a	-999	9	[0, 0, 0]	n/a	catFR1	1	R1421M
1428.392	12.388	1649372	REC_WORD_VV	8.095	n/a	<>	n/a	-999	9	[0, 0, 0]	n/a	catFR1	1	R1421M
1440.78	5.923	1661759	REC_WORD_VV	20.483	n/a	<>	n/a	-999	9	[0, 0, 0]	n/a	catFR1	1	R1421M
1446.703	2.172	1667682	REC_WORD	26.406	n/a	CELLO	Instruments	-999	9	[0, 0, 0]	n/a	catFR1	1	R1421M
1448.875	1.707	1669854	REC_WORD	28.578	n/a	PIANO	Instruments	-999	9	[0, 0, 0]	n/a	catFR1	1	R1421M
1450.582	16.615	1671559	REC_END	n/a	n/a	n/a	n/a	-999	9	[0, 0, 0]	n/a	catFR1	1	R1421M
1467.197	10.351	1688175	COUNTDOWN_START	n/a	n/a	n/a	n/a	-999	10	[0, 0, 0]	n/a	catFR1	1	R1421M
1477.548	0.0	1698522	COUNTDOWN_END	n/a	n/a	n/a	n/a	-999	10	[0, 0, 0]	n/a	catFR1	1	R1421M
1477.548	2.283	1698522	ENCODING_START	n/a	n/a	n/a	n/a	-999	10	[0, 0, 0]	n/a	catFR1	1	R1421M
1479.831	1.616	1700810	WORD	n/a	wordpools/wordpool_categorized_EN.txt	JELLO	Desserts	1	10	[0, 0, 0]	n/a	catFR1	1	R1421M
1481.447	0.817	1702422	WORD_OFF	n/a	n/a	JELLO	Desserts	1	10	[0, 0, 0]	n/a	catFR1	1	R1421M
1482.264	1.617	1703248	WORD	n/a	wordpools/wordpool_categorized_EN.txt	MOUSSE	Desserts	2	10	[0, 0, 0]	n/a	catFR1	1	R1421M
1483.881	0.9	1704860	WORD_OFF	n/a	n/a	MOUSSE	Desserts	2	10	[0, 0, 0]	n/a	catFR1	1	R1421M
1484.781	1.6	1705756	WORD	n/a	wordpools/wordpool_categorized_EN.txt	FOLDER	OfficeSupplies	3	10	[0, 0, 0]	n/a	catFR1	1	R1421M
1486.381	0.766	1707354	WORD_OFF	n/a	n/a	FOLDER	OfficeSupplies	3	10	[0, 0, 0]	n/a	catFR1	1	R1421M
1487.147	1.6	1708126	WORD	n/a	wordpools/wordpool_categorized_EN.txt	PAPER	OfficeSupplies	4	10	[0, 0, 0]	n/a	catFR1	1	R1421M
1488.747	0.784	1709724	WORD_OFF	n/a	n/a	PAPER	OfficeSupplies	4	10	[0, 0, 0]	n/a	catFR1	1	R1421M
1489.531	1.6	1710509	WORD	n/a	wordpools/wordpool_categorized_EN.txt	ARM	BodyParts	5	10	[0, 0, 0]	n/a	catFR1	1	R1421M
1491.131	0.766	1712107	WORD_OFF	n/a	n/a	ARM	BodyParts	5	10	[0, 0, 0]	n/a	catFR1	1	R1421M
1491.897	1.617	1712879	WORD	n/a	wordpools/wordpool_categorized_EN.txt	ELBOW	BodyParts	6	10	[0, 0, 0]	n/a	catFR1	1	R1421M
1493.514	0.817	1714491	WORD_OFF	n/a	n/a	ELBOW	BodyParts	6	10	[0, 0, 0]	n/a	catFR1	1	R1421M
1494.331	1.616	1715304	WORD	n/a	wordpools/wordpool_categorized_EN.txt	GLUE	OfficeSupplies	7	10	[0, 0, 0]	n/a	catFR1	1	R1421M
1495.947	0.883	1716930	WORD_OFF	n/a	n/a	GLUE	OfficeSupplies	7	10	[0, 0, 0]	n/a	catFR1	1	R1421M
1496.83	1.6	1717811	WORD	n/a	wordpools/wordpool_categorized_EN.txt	TAPE	OfficeSupplies	8	10	[0, 0, 0]	n/a	catFR1	1	R1421M
1498.43	0.8	1719410	WORD_OFF	n/a	n/a	TAPE	OfficeSupplies	8	10	[0, 0, 0]	n/a	catFR1	1	R1421M
1499.23	1.6	1720209	WORD	n/a	wordpools/wordpool_categorized_EN.txt	CHEESECAKE	Desserts	9	10	[0, 0, 0]	n/a	catFR1	1	R1421M
1500.83	0.967	1721807	WORD_OFF	n/a	n/a	CHEESECAKE	Desserts	9	10	[0, 0, 0]	n/a	catFR1	1	R1421M
1501.797	1.617	1722771	WORD	n/a	wordpools/wordpool_categorized_EN.txt	CUPCAKE	Desserts	10	10	[0, 0, 0]	n/a	catFR1	1	R1421M
1503.414	0.983	1724397	WORD_OFF	n/a	n/a	CUPCAKE	Desserts	10	10	[0, 0, 0]	n/a	catFR1	1	R1421M
1504.397	1.617	1725375	WORD	n/a	wordpools/wordpool_categorized_EN.txt	KNEE	BodyParts	11	10	[0, 0, 0]	n/a	catFR1	1	R1421M
1506.014	0.899	1726987	WORD_OFF	n/a	n/a	KNEE	BodyParts	11	10	[0, 0, 0]	n/a	catFR1	1	R1421M
1506.913	1.601	1727897	WORD	n/a	wordpools/wordpool_categorized_EN.txt	LEG	BodyParts	12	10	[0, 0, 0]	n/a	catFR1	1	R1421M
1508.514	0.002	1729490	PROB	6.483	n/a	n/a	n/a	-999	10	[6, 7, 4]	17.0	catFR1	1	R1421M
1508.516	0.0	1729492	START	n/a	n/a	n/a	n/a	-999	10	[-999, -999, -999]	n/a	catFR1	1	R1421M
1508.514	0.001	1729495	WORD_OFF	n/a	n/a	LEG	BodyParts	12	10	[0, 0, 0]	n/a	catFR1	1	R1421M
1508.515	0.001	1729495	ENCODING_END	n/a	n/a	n/a	n/a	-999	10	[0, 0, 0]	n/a	catFR1	1	R1421M
1508.516	6.498	1729495	DISTRACT_START	n/a	n/a	n/a	n/a	-999	10	[0, 0, 0]	n/a	catFR1	1	R1421M
1515.014	5.05	1735990	PROB	5.033	n/a	n/a	n/a	-999	10	[3, 3, 7]	13.0	catFR1	1	R1421M
1520.064	4.084	1741039	PROB	4.067	n/a	n/a	n/a	-999	10	[8, 4, 4]	16.0	catFR1	1	R1421M
1524.148	3.433	1745123	PROB	3.415	n/a	n/a	n/a	-999	10	[3, 7, 6]	16.0	catFR1	1	R1421M
1527.581	4.665	1748556	PROB	4.649	n/a	n/a	n/a	-999	10	[8, 6, 2]	16.0	catFR1	1	R1421M
1532.246	0.0	1753220	DISTRACT_END	n/a	n/a	n/a	n/a	-999	10	[0, 0, 0]	n/a	catFR1	1	R1421M
1532.246	2.118	1753221	STOP	n/a	n/a	n/a	n/a	-999	10	[-999, -999, -999]	n/a	catFR1	1	R1421M
1534.364	3.877	1755336	REC_START	n/a	n/a	n/a	n/a	-999	10	[0, 0, 0]	n/a	catFR1	1	R1421M
1538.241	1.423	1759216	REC_WORD_VV	3.877	n/a	<>	n/a	-999	10	[0, 0, 0]	n/a	catFR1	1	R1421M
1539.664	3.801	1760639	REC_WORD	5.3	n/a	CELLO	Instruments	-999	10	[0, 0, 0]	n/a	catFR1	1	R1421M
1543.465	0.72	1764439	REC_WORD	9.101	n/a	ELBOW	BodyParts	6	10	[0, 0, 0]	n/a	catFR1	1	R1421M
1544.185	1.695	1765159	REC_WORD	9.821	n/a	LEG	BodyParts	12	10	[0, 0, 0]	n/a	catFR1	1	R1421M
1545.88	3.31	1766854	REC_WORD	11.516	n/a	ARM	BodyParts	5	10	[0, 0, 0]	n/a	catFR1	1	R1421M
1549.19	0.831	1770164	REC_WORD	14.826	n/a	FOOT	n/a	-999	10	[0, 0, 0]	n/a	catFR1	1	R1421M
1550.021	14.636	1770995	REC_WORD	15.657	n/a	WRIST	n/a	-999	10	[0, 0, 0]	n/a	catFR1	1	R1421M
1564.657	7.89	1785625	REC_END	n/a	n/a	n/a	n/a	-999	10	[0, 0, 0]	n/a	catFR1	1	R1421M
1572.547	10.35	1793520	COUNTDOWN_START	n/a	n/a	n/a	n/a	-999	11	[0, 0, 0]	n/a	catFR1	1	R1421M
1582.897	0.0	1803867	COUNTDOWN_END	n/a	n/a	n/a	n/a	-999	11	[0, 0, 0]	n/a	catFR1	1	R1421M
1582.897	2.033	1803867	ENCODING_START	n/a	n/a	n/a	n/a	-999	11	[0, 0, 0]	n/a	catFR1	1	R1421M
1584.93	1.617	1805906	WORD	n/a	wordpools/wordpool_categorized_EN.txt	MOTORCYCLE	Vehicles	1	11	[0, 0, 0]	n/a	catFR1	1	R1421M
1586.547	0.966	1807518	WORD_OFF	n/a	n/a	MOTORCYCLE	Vehicles	1	11	[0, 0, 0]	n/a	catFR1	1	R1421M
1587.513	1.6	1808483	WORD	n/a	wordpools/wordpool_categorized_EN.txt	TRAIN	Vehicles	2	11	[0, 0, 0]	n/a	catFR1	1	R1421M
1589.113	0.817	1810081	WORD_OFF	n/a	n/a	TRAIN	Vehicles	2	11	[0, 0, 0]	n/a	catFR1	1	R1421M
1589.93	1.6	1810908	WORD	n/a	wordpools/wordpool_categorized_EN.txt	BED	Furniture	3	11	[0, 0, 0]	n/a	catFR1	1	R1421M
1591.53	0.817	1812506	WORD_OFF	n/a	n/a	BED	Furniture	3	11	[0, 0, 0]	n/a	catFR1	1	R1421M
1592.347	1.616	1813319	WORD	n/a	wordpools/wordpool_categorized_EN.txt	NIGHTSTAND	Furniture	4	11	[0, 0, 0]	n/a	catFR1	1	R1421M
1593.963	0.867	1814931	WORD_OFF	n/a	n/a	NIGHTSTAND	Furniture	4	11	[0, 0, 0]	n/a	catFR1	1	R1421M
1594.83	1.6	1815799	WORD	n/a	wordpools/wordpool_categorized_EN.txt	TABLET	Electronics	5	11	[0, 0, 0]	n/a	catFR1	1	R1421M
1596.43	0.766	1817397	WORD_OFF	n/a	n/a	TABLET	Electronics	5	11	[0, 0, 0]	n/a	catFR1	1	R1421M
1597.196	1.617	1818169	WORD	n/a	wordpools/wordpool_categorized_EN.txt	PRINTER	Electronics	6	11	[0, 0, 0]	n/a	catFR1	1	R1421M
1598.813	0.783	1819781	WORD_OFF	n/a	n/a	PRINTER	Electronics	6	11	[0, 0, 0]	n/a	catFR1	1	R1421M
1599.596	1.601	1820566	WORD	n/a	wordpools/wordpool_categorized_EN.txt	PLANE	Vehicles	7	11	[0, 0, 0]	n/a	catFR1	1	R1421M
1601.197	0.917	1822164	WORD_OFF	n/a	n/a	PLANE	Vehicles	7	11	[0, 0, 0]	n/a	catFR1	1	R1421M
1602.114	1.6	1823087	WORD	n/a	wordpools/wordpool_categorized_EN.txt	VAN	Vehicles	8	11	[0, 0, 0]	n/a	catFR1	1	R1421M
1603.714	0.85	1824685	WORD_OFF	n/a	n/a	VAN	Vehicles	8	11	[0, 0, 0]	n/a	catFR1	1	R1421M
1604.564	1.599	1825540	WORD	n/a	wordpools/wordpool_categorized_EN.txt	SHELF	Furniture	9	11	[0, 0, 0]	n/a	catFR1	1	R1421M
1606.163	0.835	1827138	WORD_OFF	n/a	n/a	SHELF	Furniture	9	11	[0, 0, 0]	n/a	catFR1	1	R1421M
1606.998	1.6	1827965	WORD	n/a	wordpools/wordpool_categorized_EN.txt	CHAIR	Furniture	10	11	[0, 0, 0]	n/a	catFR1	1	R1421M
1608.598	0.883	1829577	WORD_OFF	n/a	n/a	CHAIR	Furniture	10	11	[0, 0, 0]	n/a	catFR1	1	R1421M
1609.481	1.601	1830458	WORD	n/a	wordpools/wordpool_categorized_EN.txt	SCANNER	Electronics	11	11	[0, 0, 0]	n/a	catFR1	1	R1421M
1611.082	0.865	1832057	WORD_OFF	n/a	n/a	SCANNER	Electronics	11	11	[0, 0, 0]	n/a	catFR1	1	R1421M
1611.947	1.6	1832925	WORD	n/a	wordpools/wordpool_categorized_EN.txt	STEREO	Electronics	12	11	[0, 0, 0]	n/a	catFR1	1	R1421M
1613.547	0.001	1834518	PROB	8.5	n/a	n/a	n/a	-999	11	[3, 6, 3]	12.0	catFR1	1	R1421M
1613.548	0.0	1834519	START	n/a	n/a	n/a	n/a	-999	11	[-999, -999, -999]	n/a	catFR1	1	R1421M
1613.546	0.002	1834523	WORD_OFF	n/a	n/a	STEREO	Electronics	12	11	[0, 0, 0]	n/a	catFR1	1	R1421M
1613.548	0.0	1834523	ENCODING_END	n/a	n/a	n/a	n/a	-999	11	[0, 0, 0]	n/a	catFR1	1	R1421M
1613.548	8.516	1834533	DISTRACT_START	n/a	n/a	n/a	n/a	-999	11	[0, 0, 0]	n/a	catFR1	1	R1421M
1622.064	3.384	1843035	PROB	3.366	n/a	n/a	n/a	-999	11	[8, 2, 3]	13.0	catFR1	1	R1421M
1625.448	3.15	1846419	PROB	3.133	n/a	n/a	n/a	-999	11	[8, 8, 8]	24.0	catFR1	1	R1421M
1628.598	3.766	1849568	PROB	3.749	n/a	n/a	n/a	-999	11	[4, 2, 5]	11.0	catFR1	1	R1421M
1632.364	3.566	1853334	PROB	3.55	n/a	n/a	n/a	-999	11	[2, 8, 6]	16.0	catFR1	1	R1421M
1635.93	0.0	1856898	DISTRACT_END	n/a	n/a	n/a	n/a	-999	11	[0, 0, 0]	n/a	catFR1	1	R1421M
1635.93	2.134	1856900	STOP	n/a	n/a	n/a	n/a	-999	11	[-999, -999, -999]	n/a	catFR1	1	R1421M
1638.064	0.96	1859041	REC_START	n/a	n/a	n/a	n/a	-999	11	[0, 0, 0]	n/a	catFR1	1	R1421M
1639.024	0.474	1859994	REC_WORD_VV	0.96	n/a	<>	n/a	-999	11	[0, 0, 0]	n/a	catFR1	1	R1421M
1639.498	1.561	1860468	REC_WORD	1.434	n/a	NIGHTSTAND	Furniture	4	11	[0, 0, 0]	n/a	catFR1	1	R1421M
1641.059	4.833	1862029	REC_WORD	2.995	n/a	PILLOW	n/a	-999	11	[0, 0, 0]	n/a	catFR1	1	R1421M
1645.892	4.325	1866862	REC_WORD	7.828	n/a	BED	Furniture	3	11	[0, 0, 0]	n/a	catFR1	1	R1421M
1650.217	0.731	1871186	REC_WORD_VV	12.153	n/a	<>	n/a	-999	11	[0, 0, 0]	n/a	catFR1	1	R1421M
1650.948	0.343	1871917	REC_WORD	12.884	n/a	HORN	n/a	-999	11	[0, 0, 0]	n/a	catFR1	1	R1421M
1651.291	5.913	1872260	REC_WORD	13.227	n/a	TUBA	Instruments	-999	11	[0, 0, 0]	n/a	catFR1	1	R1421M
1657.204	4.42	1878173	REC_WORD	19.14	n/a	ROOSTER	FarmAnimals	-999	11	[0, 0, 0]	n/a	catFR1	1	R1421M
1661.624	1.559	1882593	REC_WORD_VV	23.56	n/a	<>	n/a	-999	11	[0, 0, 0]	n/a	catFR1	1	R1421M
1663.183	4.897	1884152	REC_WORD	25.119	n/a	SPATULA	KitchenTools	-999	11	[0, 0, 0]	n/a	catFR1	1	R1421M
1668.08	0.278	1889049	REC_WORD	30.016	n/a	FORK	KitchenTools	-999	11	[0, 0, 0]	n/a	catFR1	1	R1421M
1668.358	9.972	1889331	REC_END	n/a	n/a	n/a	n/a	-999	11	[0, 0, 0]	n/a	catFR1	1	R1421M
1678.33	10.351	1899306	COUNTDOWN_START	n/a	n/a	n/a	n/a	-999	12	[0, 0, 0]	n/a	catFR1	1	R1421M
1688.681	0.0	1909653	COUNTDOWN_END	n/a	n/a	n/a	n/a	-999	12	[0, 0, 0]	n/a	catFR1	1	R1421M
1688.681	2.182	1909653	ENCODING_START	n/a	n/a	n/a	n/a	-999	12	[0, 0, 0]	n/a	catFR1	1	R1421M
1690.863	1.617	1911830	WORD	n/a	wordpools/wordpool_categorized_EN.txt	FOOT	BodyParts	1	12	[0, 0, 0]	n/a	catFR1	1	R1421M
1692.48	0.966	1913442	WORD_OFF	n/a	n/a	FOOT	BodyParts	1	12	[0, 0, 0]	n/a	catFR1	1	R1421M
1693.446	1.601	1914420	WORD	n/a	wordpools/wordpool_categorized_EN.txt	NOSE	BodyParts	2	12	[0, 0, 0]	n/a	catFR1	1	R1421M
1695.047	0.766	1916018	WORD_OFF	n/a	n/a	NOSE	BodyParts	2	12	[0, 0, 0]	n/a	catFR1	1	R1421M
1695.813	1.6	1916776	WORD	n/a	wordpools/wordpool_categorized_EN.txt	BIKE	Vehicles	3	12	[0, 0, 0]	n/a	catFR1	1	R1421M
1697.413	0.867	1918374	WORD_OFF	n/a	n/a	BIKE	Vehicles	3	12	[0, 0, 0]	n/a	catFR1	1	R1421M
1698.28	1.616	1919242	WORD	n/a	wordpools/wordpool_categorized_EN.txt	MOPED	Vehicles	4	12	[0, 0, 0]	n/a	catFR1	1	R1421M
1699.896	0.884	1920868	WORD_OFF	n/a	n/a	MOPED	Vehicles	4	12	[0, 0, 0]	n/a	catFR1	1	R1421M
1700.78	1.6	1921750	WORD	n/a	wordpools/wordpool_categorized_EN.txt	CABINET	Furniture	5	12	[0, 0, 0]	n/a	catFR1	1	R1421M
1702.38	0.917	1923348	WORD_OFF	n/a	n/a	CABINET	Furniture	5	12	[0, 0, 0]	n/a	catFR1	1	R1421M
1703.297	1.6	1924257	WORD	n/a	wordpools/wordpool_categorized_EN.txt	COUCH	Furniture	6	12	[0, 0, 0]	n/a	catFR1	1	R1421M
1704.897	0.8	1925869	WORD_OFF	n/a	n/a	COUCH	Furniture	6	12	[0, 0, 0]	n/a	catFR1	1	R1421M
1705.697	1.602	1926668	WORD	n/a	wordpools/wordpool_categorized_EN.txt	TOE	BodyParts	7	12	[0, 0, 0]	n/a	catFR1	1	R1421M
1707.299	0.932	1928267	WORD_OFF	n/a	n/a	TOE	BodyParts	7	12	[0, 0, 0]	n/a	catFR1	1	R1421M
1708.231	1.6	1929204	WORD	n/a	wordpools/wordpool_categorized_EN.txt	HEAD	BodyParts	8	12	[0, 0, 0]	n/a	catFR1	1	R1421M
1709.831	0.867	1930802	WORD_OFF	n/a	n/a	HEAD	BodyParts	8	12	[0, 0, 0]	n/a	catFR1	1	R1421M
1710.698	1.6	1931670	WORD	n/a	wordpools/wordpool_categorized_EN.txt	BOAT	Vehicles	9	12	[0, 0, 0]	n/a	catFR1	1	R1421M
1712.298	1.001	1933268	WORD_OFF	n/a	n/a	BOAT	Vehicles	9	12	[0, 0, 0]	n/a	catFR1	1	R1421M
1713.299	1.615	1934260	WORD	n/a	wordpools/wordpool_categorized_EN.txt	BUS	Vehicles	10	12	[0, 0, 0]	n/a	catFR1	1	R1421M
1714.914	0.867	1935886	WORD_OFF	n/a	n/a	BUS	Vehicles	10	12	[0, 0, 0]	n/a	catFR1	1	R1421M
1715.781	1.616	1936754	WORD	n/a	wordpools/wordpool_categorized_EN.txt	DESK	Furniture	11	12	[0, 0, 0]	n/a	catFR1	1	R1421M
1717.397	0.817	1938366	WORD_OFF	n/a	n/a	DESK	Furniture	11	12	[0, 0, 0]	n/a	catFR1	1	R1421M
1718.214	1.6	1939179	WORD	n/a	wordpools/wordpool_categorized_EN.txt	SOFA	Furniture	12	12	[0, 0, 0]	n/a	catFR1	1	R1421M
1719.814	0.0	1940777	WORD_OFF	n/a	n/a	SOFA	Furniture	12	12	[0, 0, 0]	n/a	catFR1	1	R1421M
1719.814	0.009	1940780	PROB	7.833	n/a	n/a	n/a	-999	12	[8, 4, 4]	16.0	catFR1	1	R1421M
1719.823	0.0	1940789	START	n/a	n/a	n/a	n/a	-999	12	[-999, -999, -999]	n/a	catFR1	1	R1421M
1719.822	0.001	1940791	ENCODING_END	n/a	n/a	n/a	n/a	-999	12	[0, 0, 0]	n/a	catFR1	1	R1421M
1719.823	7.842	1940791	DISTRACT_START	n/a	n/a	n/a	n/a	-999	12	[0, 0, 0]	n/a	catFR1	1	R1421M
1727.665	6.066	1948631	PROB	6.049	n/a	n/a	n/a	-999	12	[2, 1, 1]	4.0	catFR1	1	R1421M
1733.731	2.549	1954696	PROB	2.533	n/a	n/a	n/a	-999	12	[1, 7, 4]	12.0	catFR1	1	R1421M
1736.28	2.785	1957245	PROB	2.767	n/a	n/a	n/a	-999	12	[7, 1, 4]	12.0	catFR1	1	R1421M
1739.065	4.032	1960030	PROB	4.016	n/a	n/a	n/a	-999	12	[2, 4, 8]	14.0	catFR1	1	R1421M
1743.097	0.0	1964061	DISTRACT_END	n/a	n/a	n/a	n/a	-999	12	[0, 0, 0]	n/a	catFR1	1	R1421M
1743.097	2.284	1964062	STOP	n/a	n/a	n/a	n/a	-999	12	[-999, -999, -999]	n/a	catFR1	1	R1421M
1745.381	1.043	1966343	REC_START	n/a	n/a	n/a	n/a	-999	12	[0, 0, 0]	n/a	catFR1	1	R1421M
1746.424	0.501	1967389	REC_WORD	1.043	n/a	FOOT	BodyParts	1	12	[0, 0, 0]	n/a	catFR1	1	R1421M
1746.925	0.65	1967890	REC_WORD	1.544	n/a	TOE	BodyParts	7	12	[0, 0, 0]	n/a	catFR1	1	R1421M
1747.575	10.932	1968540	REC_WORD	2.194	n/a	ELBOW	BodyParts	-999	12	[0, 0, 0]	n/a	catFR1	1	R1421M
1758.507	8.079	1979471	REC_WORD	13.126	n/a	PEN	OfficeSupplies	-999	12	[0, 0, 0]	n/a	catFR1	1	R1421M
1766.586	0.459	1987550	REC_WORD	21.205	n/a	COW	FarmAnimals	-999	12	[0, 0, 0]	n/a	catFR1	1	R1421M
1767.045	0.645	1988009	REC_WORD	21.664	n/a	HORSE	FarmAnimals	-999	12	[0, 0, 0]	n/a	catFR1	1	R1421M
1767.69	7.707	1988654	REC_WORD_VV	22.309	n/a	<>	n/a	-999	12	[0, 0, 0]	n/a	catFR1	1	R1421M
1775.397	0.272	1996361	REC_WORD	30.016	n/a	MOPED	Vehicles	4	12	[0, 0, 0]	n/a	catFR1	1	R1421M
1775.669	0.0	1996632	REC_END	n/a	n/a	n/a	n/a	-999	12	[0, 0, 0]	n/a	catFR1	1	R1421M
